mstime	trial_type	stim_file	subject	experiment	session	trial	task	item_name	item_num	recog_resp	recog_conf	resp	color_r	color_g	color_b	case	font
0	SESS_START	n/a	LTP114	ltpFR	6	n/a	n/a	n/a	n/a	1	5	n/a	n/a	n/a	n/a	n/a	n/a
79014	WORD	wordpools/wasnorm_wordpool.txt	LTP114	ltpFR	6	1	0	CAVE	263	0	n/a	1	0.57763671875	0.412841796875	1	upper	amplitud.ttf
83118	WORD	wordpools/wasnorm_wordpool.txt	LTP114	ltpFR	6	1	0	STONE	1385	n/a	n/a	0	0.57763671875	0.412841796875	1	upper	amplitud.ttf
87230	WORD	wordpools/wasnorm_wordpool.txt	LTP114	ltpFR	6	1	1	ATLAS	53	n/a	n/a	1	0.422607421875	0.5869140625	0	lower	zerothre.ttf
91075	WORD	wordpools/wasnorm_wordpool.txt	LTP114	ltpFR	6	1	1	UNIVERSE	1540	n/a	n/a	0	0.422607421875	0.5869140625	0	lower	zerothre.ttf
95087	WORD	wordpools/wasnorm_wordpool.txt	LTP114	ltpFR	6	1	1	FEMALE	559	n/a	n/a	1	0.422607421875	0.5869140625	0	lower	zerothre.ttf
99132	WORD	wordpools/wasnorm_wordpool.txt	LTP114	ltpFR	6	1	1	MEDICINE	886	n/a	n/a	0	0.422607421875	0.5869140625	0	lower	zerothre.ttf
103094	WORD	wordpools/wasnorm_wordpool.txt	LTP114	ltpFR	6	1	1	BUN	197	n/a	n/a	0	0.422607421875	0.5869140625	0	lower	zerothre.ttf
107232	WORD	wordpools/wasnorm_wordpool.txt	LTP114	ltpFR	6	1	0	SALMON	1227	n/a	n/a	0	0.57763671875	0.412841796875	1	upper	amplitud.ttf
111435	WORD	wordpools/wasnorm_wordpool.txt	LTP114	ltpFR	6	1	0	GRASSHOPPER	656	n/a	n/a	0	0.57763671875	0.412841796875	1	upper	amplitud.ttf
115538	WORD	wordpools/wasnorm_wordpool.txt	LTP114	ltpFR	6	1	1	LOVER	846	n/a	n/a	1	0.422607421875	0.5869140625	0	lower	zerothre.ttf
119692	WORD	wordpools/wasnorm_wordpool.txt	LTP114	ltpFR	6	1	1	MOWER	928	n/a	n/a	0	0.422607421875	0.5869140625	0	lower	zerothre.ttf
123779	WORD	wordpools/wasnorm_wordpool.txt	LTP114	ltpFR	6	1	1	MOSS	918	n/a	n/a	1	0.422607421875	0.5869140625	0	lower	zerothre.ttf
127591	WORD	wordpools/wasnorm_wordpool.txt	LTP114	ltpFR	6	1	0	COUNTRY	388	n/a	n/a	1	0.57763671875	0.412841796875	1	upper	amplitud.ttf
131595	WORD	wordpools/wasnorm_wordpool.txt	LTP114	ltpFR	6	1	0	LONDON	843	n/a	n/a	1	0.57763671875	0.412841796875	1	upper	amplitud.ttf
135756	WORD	wordpools/wasnorm_wordpool.txt	LTP114	ltpFR	6	1	0	TREASURE	1500	n/a	n/a	0	0.57763671875	0.412841796875	1	upper	amplitud.ttf
139835	WORD	wordpools/wasnorm_wordpool.txt	LTP114	ltpFR	6	1	0	BARRACUDA	90	n/a	n/a	1	0.57763671875	0.412841796875	1	upper	amplitud.ttf
145712	REC_START	n/a	LTP114	ltpFR	6	1	n/a	n/a	n/a	n/a	n/a	n/a	n/a	n/a	n/a	n/a	n/a
146345	REC_WORD	wordpools/wasnorm_wordpool.txt	LTP114	ltpFR	6	1	0	BARRACUDA	90	n/a	n/a	1	n/a	n/a	n/a	n/a	n/a
147075	REC_WORD	wordpools/wasnorm_wordpool.txt	LTP114	ltpFR	6	1	0	SALMON	1227	n/a	n/a	0	n/a	n/a	n/a	n/a	n/a
147707	REC_WORD	wordpools/wasnorm_wordpool.txt	LTP114	ltpFR	6	1	0	GRASSHOPPER	656	n/a	n/a	0	n/a	n/a	n/a	n/a	n/a
148485	REC_WORD	wordpools/wasnorm_wordpool.txt	LTP114	ltpFR	6	1	1	MOSS	918	n/a	n/a	1	n/a	n/a	n/a	n/a	n/a
149748	REC_WORD	wordpools/wasnorm_wordpool.txt	LTP114	ltpFR	6	1	0	CAVE	263	n/a	n/a	1	n/a	n/a	n/a	n/a	n/a
150131	REC_WORD	wordpools/wasnorm_wordpool.txt	LTP114	ltpFR	6	1	0	STONE	1385	n/a	n/a	0	n/a	n/a	n/a	n/a	n/a
150759	REC_WORD	wordpools/wasnorm_wordpool.txt	LTP114	ltpFR	6	1	1	UNIVERSE	1540	n/a	n/a	0	n/a	n/a	n/a	n/a	n/a
151414	REC_WORD	wordpools/wasnorm_wordpool.txt	LTP114	ltpFR	6	1	1	ATLAS	53	n/a	n/a	1	n/a	n/a	n/a	n/a	n/a
154587	REC_WORD	wordpools/wasnorm_wordpool.txt	LTP114	ltpFR	6	1	0	COUNTRY	388	n/a	n/a	1	n/a	n/a	n/a	n/a	n/a
156293	REC_WORD	wordpools/wasnorm_wordpool.txt	LTP114	ltpFR	6	1	0	LONDON	843	n/a	n/a	1	n/a	n/a	n/a	n/a	n/a
176896	REC_WORD	wordpools/wasnorm_wordpool.txt	LTP114	ltpFR	6	1	0	BARRACUDA	90	n/a	n/a	1	n/a	n/a	n/a	n/a	n/a
178008	REC_WORD	wordpools/wasnorm_wordpool.txt	LTP114	ltpFR	6	1	0	SALMON	1227	n/a	n/a	0	n/a	n/a	n/a	n/a	n/a
266863	WORD	wordpools/wasnorm_wordpool.txt	LTP114	ltpFR	6	2	1	LUNCH	849	n/a	n/a	0	0.422607421875	0.5869140625	0	lower	zerothre.ttf
270833	WORD	wordpools/wasnorm_wordpool.txt	LTP114	ltpFR	6	2	1	PANTHER	1009	n/a	n/a	1	0.422607421875	0.5869140625	0	lower	zerothre.ttf
274978	WORD	wordpools/wasnorm_wordpool.txt	LTP114	ltpFR	6	2	1	CRAB	397	n/a	n/a	1	0.422607421875	0.5869140625	0	lower	zerothre.ttf
278907	WORD	wordpools/wasnorm_wordpool.txt	LTP114	ltpFR	6	2	1	POCKET	1093	n/a	n/a	0	0.422607421875	0.5869140625	0	lower	zerothre.ttf
283102	WORD	wordpools/wasnorm_wordpool.txt	LTP114	ltpFR	6	2	1	DESIGNER	451	n/a	n/a	1	0.422607421875	0.5869140625	0	lower	zerothre.ttf
287131	WORD	wordpools/wasnorm_wordpool.txt	LTP114	ltpFR	6	2	0	RAG	1160	n/a	n/a	0	0.57763671875	0.412841796875	1	upper	amplitud.ttf
291135	WORD	wordpools/wasnorm_wordpool.txt	LTP114	ltpFR	6	2	0	CHAMPAGNE	278	n/a	n/a	0	0.57763671875	0.412841796875	1	upper	amplitud.ttf
295063	WORD	wordpools/wasnorm_wordpool.txt	LTP114	ltpFR	6	2	0	FILM	565	n/a	n/a	0	0.57763671875	0.412841796875	1	upper	amplitud.ttf
299050	WORD	wordpools/wasnorm_wordpool.txt	LTP114	ltpFR	6	2	0	CHIEF	298	n/a	n/a	1	0.57763671875	0.412841796875	1	upper	amplitud.ttf
303037	WORD	wordpools/wasnorm_wordpool.txt	LTP114	ltpFR	6	2	1	THICKET	1455	n/a	n/a	1	0.422607421875	0.5869140625	0	lower	zerothre.ttf
306949	WORD	wordpools/wasnorm_wordpool.txt	LTP114	ltpFR	6	2	1	TERMITE	1451	n/a	n/a	1	0.422607421875	0.5869140625	0	lower	zerothre.ttf
310937	WORD	wordpools/wasnorm_wordpool.txt	LTP114	ltpFR	6	2	1	MOTH	920	n/a	n/a	1	0.422607421875	0.5869140625	0	lower	zerothre.ttf
315090	WORD	wordpools/wasnorm_wordpool.txt	LTP114	ltpFR	6	2	0	GRAPE	654	n/a	n/a	0	0.57763671875	0.412841796875	1	upper	amplitud.ttf
319119	WORD	wordpools/wasnorm_wordpool.txt	LTP114	ltpFR	6	2	0	TENT	1449	n/a	n/a	1	0.57763671875	0.412841796875	1	upper	amplitud.ttf
323097	WORD	wordpools/wasnorm_wordpool.txt	LTP114	ltpFR	6	2	0	FEAST	556	n/a	n/a	1	0.57763671875	0.412841796875	1	upper	amplitud.ttf
326960	WORD	wordpools/wasnorm_wordpool.txt	LTP114	ltpFR	6	2	0	LEG	809	n/a	n/a	1	0.57763671875	0.412841796875	1	upper	amplitud.ttf
332895	REC_START	n/a	LTP114	ltpFR	6	2	n/a	n/a	n/a	n/a	n/a	n/a	n/a	n/a	n/a	n/a	n/a
334042	REC_WORD	wordpools/wasnorm_wordpool.txt	LTP114	ltpFR	6	2	0	FEAST	556	n/a	n/a	1	n/a	n/a	n/a	n/a	n/a
335075	REC_WORD	wordpools/wasnorm_wordpool.txt	LTP114	ltpFR	6	2	1	TERMITE	1451	n/a	n/a	1	n/a	n/a	n/a	n/a	n/a
336028	REC_WORD	wordpools/wasnorm_wordpool.txt	LTP114	ltpFR	6	2	0	LEG	809	n/a	n/a	1	n/a	n/a	n/a	n/a	n/a
337080	REC_WORD	wordpools/wasnorm_wordpool.txt	LTP114	ltpFR	6	2	1	MOTH	920	n/a	n/a	1	n/a	n/a	n/a	n/a	n/a
412220	WORD	wordpools/wasnorm_wordpool.txt	LTP114	ltpFR	6	3	-1	OATS	968	n/a	n/a	-1	1.0	1.0	1	upper	Verdana.ttf
416331	WORD	wordpools/wasnorm_wordpool.txt	LTP114	ltpFR	6	3	-1	REPORT	1184	n/a	n/a	-1	1.0	1.0	1	upper	Verdana.ttf
420160	WORD	wordpools/wasnorm_wordpool.txt	LTP114	ltpFR	6	3	-1	BIOLOGIST	128	n/a	n/a	-1	1.0	1.0	1	upper	Verdana.ttf
424330	WORD	wordpools/wasnorm_wordpool.txt	LTP114	ltpFR	6	3	-1	FLASK	576	n/a	n/a	-1	1.0	1.0	1	upper	Verdana.ttf
428500	WORD	wordpools/wasnorm_wordpool.txt	LTP114	ltpFR	6	3	-1	DICE	461	n/a	n/a	-1	1.0	1.0	1	upper	Verdana.ttf
432479	WORD	wordpools/wasnorm_wordpool.txt	LTP114	ltpFR	6	3	-1	CATERPILLAR	259	n/a	n/a	-1	1.0	1.0	1	upper	Verdana.ttf
436457	WORD	wordpools/wasnorm_wordpool.txt	LTP114	ltpFR	6	3	-1	FOOT	590	n/a	n/a	-1	1.0	1.0	1	upper	Verdana.ttf
440553	WORD	wordpools/wasnorm_wordpool.txt	LTP114	ltpFR	6	3	-1	FOREHEAD	592	n/a	n/a	-1	1.0	1.0	1	upper	Verdana.ttf
444490	WORD	wordpools/wasnorm_wordpool.txt	LTP114	ltpFR	6	3	-1	SAW	1239	n/a	n/a	-1	1.0	1.0	1	upper	Verdana.ttf
448552	WORD	wordpools/wasnorm_wordpool.txt	LTP114	ltpFR	6	3	-1	HATCHET	691	n/a	n/a	-1	1.0	1.0	1	upper	Verdana.ttf
452472	WORD	wordpools/wasnorm_wordpool.txt	LTP114	ltpFR	6	3	-1	COMB	351	n/a	n/a	-1	1.0	1.0	1	upper	Verdana.ttf
456409	WORD	wordpools/wasnorm_wordpool.txt	LTP114	ltpFR	6	3	-1	CABINET	212	n/a	n/a	-1	1.0	1.0	1	upper	Verdana.ttf
460538	WORD	wordpools/wasnorm_wordpool.txt	LTP114	ltpFR	6	3	-1	PRAIRIE	1118	n/a	n/a	-1	1.0	1.0	1	upper	Verdana.ttf
464525	WORD	wordpools/wasnorm_wordpool.txt	LTP114	ltpFR	6	3	-1	PEANUT	1032	n/a	n/a	-1	1.0	1.0	1	upper	Verdana.ttf
468387	WORD	wordpools/wasnorm_wordpool.txt	LTP114	ltpFR	6	3	-1	FLOUR	583	n/a	n/a	-1	1.0	1.0	1	upper	Verdana.ttf
472457	WORD	wordpools/wasnorm_wordpool.txt	LTP114	ltpFR	6	3	-1	SHOELACE	1289	n/a	n/a	-1	1.0	1.0	1	upper	Verdana.ttf
478376	REC_START	n/a	LTP114	ltpFR	6	3	n/a	n/a	n/a	n/a	n/a	n/a	n/a	n/a	n/a	n/a	n/a
479284	REC_WORD	wordpools/wasnorm_wordpool.txt	LTP114	ltpFR	6	3	n/a	FLOWER	584	n/a	n/a	n/a	n/a	n/a	n/a	n/a	n/a
480200	REC_WORD	wordpools/wasnorm_wordpool.txt	LTP114	ltpFR	6	3	-1	SHOELACE	1289	n/a	n/a	-1	n/a	n/a	n/a	n/a	n/a
482082	REC_WORD	wordpools/wasnorm_wordpool.txt	LTP114	ltpFR	6	3	-1	COMB	351	n/a	n/a	-1	n/a	n/a	n/a	n/a	n/a
484342	REC_WORD	wordpools/wasnorm_wordpool.txt	LTP114	ltpFR	6	3	-1	CABINET	212	n/a	n/a	-1	n/a	n/a	n/a	n/a	n/a
485380	REC_WORD	wordpools/wasnorm_wordpool.txt	LTP114	ltpFR	6	3	-1	PRAIRIE	1118	n/a	n/a	-1	n/a	n/a	n/a	n/a	n/a
492149	REC_WORD	wordpools/wasnorm_wordpool.txt	LTP114	ltpFR	6	3	n/a	POPCORN	1104	n/a	n/a	n/a	n/a	n/a	n/a	n/a	n/a
494100	REC_WORD	wordpools/wasnorm_wordpool.txt	LTP114	ltpFR	6	3	-1	DICE	461	n/a	n/a	-1	n/a	n/a	n/a	n/a	n/a
496864	REC_WORD	wordpools/wasnorm_wordpool.txt	LTP114	ltpFR	6	3	-1	CATERPILLAR	259	n/a	n/a	-1	n/a	n/a	n/a	n/a	n/a
500027	REC_WORD	wordpools/wasnorm_wordpool.txt	LTP114	ltpFR	6	3	-1	HATCHET	691	n/a	n/a	-1	n/a	n/a	n/a	n/a	n/a
500625	REC_WORD	wordpools/wasnorm_wordpool.txt	LTP114	ltpFR	6	3	-1	SAW	1239	n/a	n/a	-1	n/a	n/a	n/a	n/a	n/a
576778	WORD	wordpools/wasnorm_wordpool.txt	LTP114	ltpFR	6	4	-1	CANOE	233	n/a	n/a	-1	1.0	1.0	1	upper	Verdana.ttf
580981	WORD	wordpools/wasnorm_wordpool.txt	LTP114	ltpFR	6	4	-1	AMBULANCE	19	n/a	n/a	-1	1.0	1.0	1	upper	Verdana.ttf
585102	WORD	wordpools/wasnorm_wordpool.txt	LTP114	ltpFR	6	4	-1	MITTEN	902	n/a	n/a	-1	1.0	1.0	1	upper	Verdana.ttf
589281	WORD	wordpools/wasnorm_wordpool.txt	LTP114	ltpFR	6	4	-1	CAPTAIN	239	n/a	n/a	-1	1.0	1.0	1	upper	Verdana.ttf
593177	WORD	wordpools/wasnorm_wordpool.txt	LTP114	ltpFR	6	4	-1	PARTY	1018	n/a	n/a	-1	1.0	1.0	1	upper	Verdana.ttf
597239	WORD	wordpools/wasnorm_wordpool.txt	LTP114	ltpFR	6	4	-1	STEREO	1378	n/a	n/a	-1	1.0	1.0	1	upper	Verdana.ttf
601050	WORD	wordpools/wasnorm_wordpool.txt	LTP114	ltpFR	6	4	-1	RANCH	1166	n/a	n/a	-1	1.0	1.0	1	upper	Verdana.ttf
605196	WORD	wordpools/wasnorm_wordpool.txt	LTP114	ltpFR	6	4	-1	COW	393	n/a	n/a	-1	1.0	1.0	1	upper	Verdana.ttf
609115	WORD	wordpools/wasnorm_wordpool.txt	LTP114	ltpFR	6	4	-1	SNORKEL	1336	n/a	n/a	-1	1.0	1.0	1	upper	Verdana.ttf
613253	WORD	wordpools/wasnorm_wordpool.txt	LTP114	ltpFR	6	4	-1	HOSE	720	n/a	n/a	-1	1.0	1.0	1	upper	Verdana.ttf
617372	WORD	wordpools/wasnorm_wordpool.txt	LTP114	ltpFR	6	4	-1	MATTRESS	879	n/a	n/a	-1	1.0	1.0	1	upper	Verdana.ttf
621451	WORD	wordpools/wasnorm_wordpool.txt	LTP114	ltpFR	6	4	-1	LIP	828	n/a	n/a	-1	1.0	1.0	1	upper	Verdana.ttf
625438	WORD	wordpools/wasnorm_wordpool.txt	LTP114	ltpFR	6	4	-1	EUROPE	541	n/a	n/a	-1	1.0	1.0	1	upper	Verdana.ttf
629617	WORD	wordpools/wasnorm_wordpool.txt	LTP114	ltpFR	6	4	-1	TOWN	1491	n/a	n/a	-1	1.0	1.0	1	upper	Verdana.ttf
633570	WORD	wordpools/wasnorm_wordpool.txt	LTP114	ltpFR	6	4	-1	RADISH	1158	n/a	n/a	-1	1.0	1.0	1	upper	Verdana.ttf
637624	WORD	wordpools/wasnorm_wordpool.txt	LTP114	ltpFR	6	4	-1	CARNIVAL	245	n/a	n/a	-1	1.0	1.0	1	upper	Verdana.ttf
643551	REC_START	n/a	LTP114	ltpFR	6	4	n/a	n/a	n/a	n/a	n/a	n/a	n/a	n/a	n/a	n/a	n/a
644045	REC_WORD	wordpools/wasnorm_wordpool.txt	LTP114	ltpFR	6	4	-1	RADISH	1158	n/a	n/a	-1	n/a	n/a	n/a	n/a	n/a
644718	REC_WORD	wordpools/wasnorm_wordpool.txt	LTP114	ltpFR	6	4	-1	CARNIVAL	245	n/a	n/a	-1	n/a	n/a	n/a	n/a	n/a
645601	REC_WORD	wordpools/wasnorm_wordpool.txt	LTP114	ltpFR	6	4	-1	EUROPE	541	n/a	n/a	-1	n/a	n/a	n/a	n/a	n/a
646778	REC_WORD	wordpools/wasnorm_wordpool.txt	LTP114	ltpFR	6	4	-1	TOWN	1491	n/a	n/a	-1	n/a	n/a	n/a	n/a	n/a
647432	REC_WORD	wordpools/wasnorm_wordpool.txt	LTP114	ltpFR	6	4	-1	CANOE	233	n/a	n/a	-1	n/a	n/a	n/a	n/a	n/a
649093	REC_WORD	wordpools/wasnorm_wordpool.txt	LTP114	ltpFR	6	4	-1	AMBULANCE	19	n/a	n/a	-1	n/a	n/a	n/a	n/a	n/a
650093	REC_WORD_VV	wordpools/wasnorm_wordpool.txt	LTP114	ltpFR	6	4	n/a	<>	-1	n/a	n/a	n/a	n/a	n/a	n/a	n/a	n/a
651047	REC_WORD_VV	wordpools/wasnorm_wordpool.txt	LTP114	ltpFR	6	4	n/a	<>	-1	n/a	n/a	n/a	n/a	n/a	n/a	n/a	n/a
738665	WORD	wordpools/wasnorm_wordpool.txt	LTP114	ltpFR	6	5	1	HIP	710	n/a	n/a	1	0.422607421875	0.5869140625	0	lower	zerothre.ttf
742794	WORD	wordpools/wasnorm_wordpool.txt	LTP114	ltpFR	6	5	1	HUMAN	726	n/a	n/a	1	0.422607421875	0.5869140625	0	lower	zerothre.ttf
746606	WORD	wordpools/wasnorm_wordpool.txt	LTP114	ltpFR	6	5	1	BARN	89	n/a	n/a	0	0.422607421875	0.5869140625	0	lower	zerothre.ttf
750609	WORD	wordpools/wasnorm_wordpool.txt	LTP114	ltpFR	6	5	1	UMBRELLA	1534	n/a	n/a	0	0.422607421875	0.5869140625	0	lower	zerothre.ttf
754563	WORD	wordpools/wasnorm_wordpool.txt	LTP114	ltpFR	6	5	1	MINT	898	n/a	n/a	0	0.422607421875	0.5869140625	0	lower	zerothre.ttf
758559	WORD	wordpools/wasnorm_wordpool.txt	LTP114	ltpFR	6	5	1	WAIST	1579	n/a	n/a	1	0.422607421875	0.5869140625	0	lower	zerothre.ttf
762612	WORD	wordpools/wasnorm_wordpool.txt	LTP114	ltpFR	6	5	1	WALLET	1583	n/a	n/a	0	0.422607421875	0.5869140625	0	lower	zerothre.ttf
766508	WORD	wordpools/wasnorm_wordpool.txt	LTP114	ltpFR	6	5	1	TOTE	1487	n/a	n/a	0	0.422607421875	0.5869140625	0	lower	zerothre.ttf
770586	WORD	wordpools/wasnorm_wordpool.txt	LTP114	ltpFR	6	5	1	PELICAN	1039	n/a	n/a	1	0.422607421875	0.5869140625	0	lower	zerothre.ttf
774673	WORD	wordpools/wasnorm_wordpool.txt	LTP114	ltpFR	6	5	1	HAWK	692	n/a	n/a	1	0.422607421875	0.5869140625	0	lower	zerothre.ttf
778835	WORD	wordpools/wasnorm_wordpool.txt	LTP114	ltpFR	6	5	1	CITY	314	n/a	n/a	0	0.422607421875	0.5869140625	0	lower	zerothre.ttf
782980	WORD	wordpools/wasnorm_wordpool.txt	LTP114	ltpFR	6	5	1	OFFICER	973	n/a	n/a	1	0.422607421875	0.5869140625	0	lower	zerothre.ttf
787034	WORD	wordpools/wasnorm_wordpool.txt	LTP114	ltpFR	6	5	1	UNIFORM	1539	n/a	n/a	0	0.422607421875	0.5869140625	0	lower	zerothre.ttf
790963	WORD	wordpools/wasnorm_wordpool.txt	LTP114	ltpFR	6	5	1	GRATE	657	n/a	n/a	0	0.422607421875	0.5869140625	0	lower	zerothre.ttf
794800	WORD	wordpools/wasnorm_wordpool.txt	LTP114	ltpFR	6	5	1	MAN	862	n/a	n/a	1	0.422607421875	0.5869140625	0	lower	zerothre.ttf
798612	WORD	wordpools/wasnorm_wordpool.txt	LTP114	ltpFR	6	5	1	CALF	222	n/a	n/a	1	0.422607421875	0.5869140625	0	lower	zerothre.ttf
804589	REC_START	n/a	LTP114	ltpFR	6	5	n/a	n/a	n/a	n/a	n/a	n/a	n/a	n/a	n/a	n/a	n/a
805217	REC_WORD	wordpools/wasnorm_wordpool.txt	LTP114	ltpFR	6	5	1	HIP	710	n/a	n/a	1	n/a	n/a	n/a	n/a	n/a
805737	REC_WORD	wordpools/wasnorm_wordpool.txt	LTP114	ltpFR	6	5	1	HUMAN	726	n/a	n/a	1	n/a	n/a	n/a	n/a	n/a
806639	REC_WORD	wordpools/wasnorm_wordpool.txt	LTP114	ltpFR	6	5	1	MAN	862	n/a	n/a	1	n/a	n/a	n/a	n/a	n/a
807447	REC_WORD	wordpools/wasnorm_wordpool.txt	LTP114	ltpFR	6	5	1	WAIST	1579	n/a	n/a	1	n/a	n/a	n/a	n/a	n/a
808290	REC_WORD	wordpools/wasnorm_wordpool.txt	LTP114	ltpFR	6	5	1	CALF	222	n/a	n/a	1	n/a	n/a	n/a	n/a	n/a
813703	REC_WORD	wordpools/wasnorm_wordpool.txt	LTP114	ltpFR	6	5	1	PELICAN	1039	n/a	n/a	1	n/a	n/a	n/a	n/a	n/a
814631	REC_WORD	wordpools/wasnorm_wordpool.txt	LTP114	ltpFR	6	5	1	HAWK	692	n/a	n/a	1	n/a	n/a	n/a	n/a	n/a
890605	WORD	wordpools/wasnorm_wordpool.txt	LTP114	ltpFR	6	6	1	BUBBLE	183	n/a	n/a	0	0.422607421875	0.5869140625	0	lower	zerothre.ttf
894784	WORD	wordpools/wasnorm_wordpool.txt	LTP114	ltpFR	6	6	1	JAW	751	n/a	n/a	0	0.422607421875	0.5869140625	0	lower	zerothre.ttf
898621	WORD	wordpools/wasnorm_wordpool.txt	LTP114	ltpFR	6	6	1	ANTENNA	28	n/a	n/a	0	0.422607421875	0.5869140625	0	lower	zerothre.ttf
902766	WORD	wordpools/wasnorm_wordpool.txt	LTP114	ltpFR	6	6	0	CONSOLE	364	n/a	n/a	0	0.57763671875	0.412841796875	1	upper	amplitud.ttf
906920	WORD	wordpools/wasnorm_wordpool.txt	LTP114	ltpFR	6	6	0	BLENDER	136	n/a	n/a	0	0.57763671875	0.412841796875	1	upper	amplitud.ttf
910823	WORD	wordpools/wasnorm_wordpool.txt	LTP114	ltpFR	6	6	0	HARE	688	n/a	n/a	0	0.57763671875	0.412841796875	1	upper	amplitud.ttf
915010	WORD	wordpools/wasnorm_wordpool.txt	LTP114	ltpFR	6	6	0	COYOTE	396	n/a	n/a	1	0.57763671875	0.412841796875	1	upper	amplitud.ttf
918989	WORD	wordpools/wasnorm_wordpool.txt	LTP114	ltpFR	6	6	0	FAIRY	549	n/a	n/a	1	0.57763671875	0.412841796875	1	upper	amplitud.ttf
923169	WORD	wordpools/wasnorm_wordpool.txt	LTP114	ltpFR	6	6	1	LITTER	832	n/a	n/a	1	0.422607421875	0.5869140625	0	lower	zerothre.ttf
927096	WORD	wordpools/wasnorm_wordpool.txt	LTP114	ltpFR	6	6	1	SHELL	1281	n/a	n/a	0	0.422607421875	0.5869140625	0	lower	zerothre.ttf
931259	WORD	wordpools/wasnorm_wordpool.txt	LTP114	ltpFR	6	6	1	FOX	598	n/a	n/a	1	0.422607421875	0.5869140625	0	lower	zerothre.ttf
935288	WORD	wordpools/wasnorm_wordpool.txt	LTP114	ltpFR	6	6	0	TORTOISE	1486	n/a	n/a	n/a	0.57763671875	0.412841796875	1	upper	amplitud.ttf
938309	SLOW_MSG	n/a	LTP114	ltpFR	6	6	n/a	n/a	n/a	n/a	n/a	n/a	n/a	n/a	n/a	n/a	n/a
940972	WORD	wordpools/wasnorm_wordpool.txt	LTP114	ltpFR	6	6	0	UNDERWEAR	1537	n/a	n/a	0	0.57763671875	0.412841796875	1	upper	amplitud.ttf
945159	WORD	wordpools/wasnorm_wordpool.txt	LTP114	ltpFR	6	6	0	ROBE	1198	n/a	n/a	1	0.57763671875	0.412841796875	1	upper	amplitud.ttf
949247	WORD	wordpools/wasnorm_wordpool.txt	LTP114	ltpFR	6	6	1	MATCH	878	n/a	n/a	0	0.422607421875	0.5869140625	0	lower	zerothre.ttf
953292	WORD	wordpools/wasnorm_wordpool.txt	LTP114	ltpFR	6	6	1	HURRICANE	727	n/a	n/a	0	0.422607421875	0.5869140625	0	lower	zerothre.ttf
959043	REC_START	n/a	LTP114	ltpFR	6	6	n/a	n/a	n/a	n/a	n/a	n/a	n/a	n/a	n/a	n/a	n/a
959931	REC_WORD	wordpools/wasnorm_wordpool.txt	LTP114	ltpFR	6	6	1	HURRICANE	727	n/a	n/a	0	n/a	n/a	n/a	n/a	n/a
961233	REC_WORD	wordpools/wasnorm_wordpool.txt	LTP114	ltpFR	6	6	1	MATCH	878	n/a	n/a	0	n/a	n/a	n/a	n/a	n/a
962495	REC_WORD	wordpools/wasnorm_wordpool.txt	LTP114	ltpFR	6	6	0	UNDERWEAR	1537	n/a	n/a	0	n/a	n/a	n/a	n/a	n/a
964036	REC_WORD	wordpools/wasnorm_wordpool.txt	LTP114	ltpFR	6	6	0	TORTOISE	1486	n/a	n/a	n/a	n/a	n/a	n/a	n/a	n/a
965433	REC_WORD	wordpools/wasnorm_wordpool.txt	LTP114	ltpFR	6	6	0	HARE	688	n/a	n/a	0	n/a	n/a	n/a	n/a	n/a
966860	REC_WORD	wordpools/wasnorm_wordpool.txt	LTP114	ltpFR	6	6	1	FOX	598	n/a	n/a	1	n/a	n/a	n/a	n/a	n/a
968217	REC_WORD	wordpools/wasnorm_wordpool.txt	LTP114	ltpFR	6	6	0	COYOTE	396	n/a	n/a	1	n/a	n/a	n/a	n/a	n/a
1043153	WORD	wordpools/wasnorm_wordpool.txt	LTP114	ltpFR	6	7	0	SCREW	1254	n/a	n/a	0	0.57763671875	0.412841796875	1	upper	amplitud.ttf
1047157	WORD	wordpools/wasnorm_wordpool.txt	LTP114	ltpFR	6	7	0	PAIL	1002	n/a	n/a	1	0.57763671875	0.412841796875	1	upper	amplitud.ttf
1051136	WORD	wordpools/wasnorm_wordpool.txt	LTP114	ltpFR	6	7	0	BARTENDER	92	n/a	n/a	1	0.57763671875	0.412841796875	1	upper	amplitud.ttf
1055089	WORD	wordpools/wasnorm_wordpool.txt	LTP114	ltpFR	6	7	0	SUPPER	1411	n/a	n/a	1	0.57763671875	0.412841796875	1	upper	amplitud.ttf
1059227	WORD	wordpools/wasnorm_wordpool.txt	LTP114	ltpFR	6	7	0	YARD	1630	n/a	n/a	1	0.57763671875	0.412841796875	1	upper	amplitud.ttf
1063038	WORD	wordpools/wasnorm_wordpool.txt	LTP114	ltpFR	6	7	0	BEVERAGE	123	n/a	n/a	0	0.57763671875	0.412841796875	1	upper	amplitud.ttf
1067042	WORD	wordpools/wasnorm_wordpool.txt	LTP114	ltpFR	6	7	0	SCOTCH	1251	n/a	n/a	0	0.57763671875	0.412841796875	1	upper	amplitud.ttf
1071238	WORD	wordpools/wasnorm_wordpool.txt	LTP114	ltpFR	6	7	0	VEGETABLE	1552	n/a	n/a	0	0.57763671875	0.412841796875	1	upper	amplitud.ttf
1075391	WORD	wordpools/wasnorm_wordpool.txt	LTP114	ltpFR	6	7	0	GROCERIES	663	n/a	n/a	1	0.57763671875	0.412841796875	1	upper	amplitud.ttf
1079444	WORD	wordpools/wasnorm_wordpool.txt	LTP114	ltpFR	6	7	0	GOOSE	649	n/a	n/a	1	0.57763671875	0.412841796875	1	upper	amplitud.ttf
1083456	WORD	wordpools/wasnorm_wordpool.txt	LTP114	ltpFR	6	7	0	BOTTLE	153	n/a	n/a	0	0.57763671875	0.412841796875	1	upper	amplitud.ttf
1087452	WORD	wordpools/wasnorm_wordpool.txt	LTP114	ltpFR	6	7	0	PRODUCER	1129	n/a	n/a	1	0.57763671875	0.412841796875	1	upper	amplitud.ttf
1091547	WORD	wordpools/wasnorm_wordpool.txt	LTP114	ltpFR	6	7	0	DIRECTOR	471	n/a	n/a	1	0.57763671875	0.412841796875	1	upper	amplitud.ttf
1095359	WORD	wordpools/wasnorm_wordpool.txt	LTP114	ltpFR	6	7	0	MAGAZINE	853	n/a	n/a	0	0.57763671875	0.412841796875	1	upper	amplitud.ttf
1099430	WORD	wordpools/wasnorm_wordpool.txt	LTP114	ltpFR	6	7	0	BOOK	149	n/a	n/a	0	0.57763671875	0.412841796875	1	upper	amplitud.ttf
1103284	WORD	wordpools/wasnorm_wordpool.txt	LTP114	ltpFR	6	7	0	CLOCK	325	n/a	n/a	0	0.57763671875	0.412841796875	1	upper	amplitud.ttf
1109236	REC_START	n/a	LTP114	ltpFR	6	7	n/a	n/a	n/a	n/a	n/a	n/a	n/a	n/a	n/a	n/a	n/a
1109869	REC_WORD	wordpools/wasnorm_wordpool.txt	LTP114	ltpFR	6	7	0	CLOCK	325	n/a	n/a	0	n/a	n/a	n/a	n/a	n/a
1110687	REC_WORD	wordpools/wasnorm_wordpool.txt	LTP114	ltpFR	6	7	0	BOOK	149	n/a	n/a	0	n/a	n/a	n/a	n/a	n/a
1111341	REC_WORD	wordpools/wasnorm_wordpool.txt	LTP114	ltpFR	6	7	0	MAGAZINE	853	n/a	n/a	0	n/a	n/a	n/a	n/a	n/a
1113002	REC_WORD	wordpools/wasnorm_wordpool.txt	LTP114	ltpFR	6	7	0	PRODUCER	1129	n/a	n/a	1	n/a	n/a	n/a	n/a	n/a
1113741	REC_WORD	wordpools/wasnorm_wordpool.txt	LTP114	ltpFR	6	7	0	DIRECTOR	471	n/a	n/a	1	n/a	n/a	n/a	n/a	n/a
1115078	REC_WORD	wordpools/wasnorm_wordpool.txt	LTP114	ltpFR	6	7	0	GOOSE	649	n/a	n/a	1	n/a	n/a	n/a	n/a	n/a
1133181	REC_WORD	wordpools/wasnorm_wordpool.txt	LTP114	ltpFR	6	7	0	BEVERAGE	123	n/a	n/a	0	n/a	n/a	n/a	n/a	n/a
1133715	REC_WORD	wordpools/wasnorm_wordpool.txt	LTP114	ltpFR	6	7	0	SCOTCH	1251	n/a	n/a	0	n/a	n/a	n/a	n/a	n/a
1193737	WORD	wordpools/wasnorm_wordpool.txt	LTP114	ltpFR	6	8	1	LEOPARD	812	n/a	n/a	1	0.422607421875	0.5869140625	0	lower	zerothre.ttf
1197557	WORD	wordpools/wasnorm_wordpool.txt	LTP114	ltpFR	6	8	1	PROFESSOR	1131	n/a	n/a	1	0.422607421875	0.5869140625	0	lower	zerothre.ttf
1201652	WORD	wordpools/wasnorm_wordpool.txt	LTP114	ltpFR	6	8	1	PERMIT	1051	n/a	n/a	0	0.422607421875	0.5869140625	0	lower	zerothre.ttf
1205615	WORD	wordpools/wasnorm_wordpool.txt	LTP114	ltpFR	6	8	1	DOLL	481	n/a	n/a	1	0.422607421875	0.5869140625	0	lower	zerothre.ttf
1209477	WORD	wordpools/wasnorm_wordpool.txt	LTP114	ltpFR	6	8	1	KID	775	n/a	n/a	1	0.422607421875	0.5869140625	0	lower	zerothre.ttf
1213522	WORD	wordpools/wasnorm_wordpool.txt	LTP114	ltpFR	6	8	1	DESK	452	n/a	n/a	0	0.422607421875	0.5869140625	0	lower	zerothre.ttf
1217551	WORD	wordpools/wasnorm_wordpool.txt	LTP114	ltpFR	6	8	1	SOFA	1342	n/a	n/a	0	0.422607421875	0.5869140625	0	lower	zerothre.ttf
1221696	WORD	wordpools/wasnorm_wordpool.txt	LTP114	ltpFR	6	8	1	TURKEY	1520	n/a	n/a	1	0.422607421875	0.5869140625	0	lower	zerothre.ttf
1225633	WORD	wordpools/wasnorm_wordpool.txt	LTP114	ltpFR	6	8	1	BIRD	129	n/a	n/a	1	0.422607421875	0.5869140625	0	lower	zerothre.ttf
1229578	WORD	wordpools/wasnorm_wordpool.txt	LTP114	ltpFR	6	8	1	COPIER	377	n/a	n/a	0	0.422607421875	0.5869140625	0	lower	zerothre.ttf
1233457	WORD	wordpools/wasnorm_wordpool.txt	LTP114	ltpFR	6	8	1	MAGNET	855	n/a	n/a	0	0.422607421875	0.5869140625	0	lower	zerothre.ttf
1237453	WORD	wordpools/wasnorm_wordpool.txt	LTP114	ltpFR	6	8	1	SIGNATURE	1306	n/a	n/a	0	0.422607421875	0.5869140625	0	lower	zerothre.ttf
1241373	WORD	wordpools/wasnorm_wordpool.txt	LTP114	ltpFR	6	8	1	TIGER	1467	n/a	n/a	1	0.422607421875	0.5869140625	0	lower	zerothre.ttf
1245527	WORD	wordpools/wasnorm_wordpool.txt	LTP114	ltpFR	6	8	1	NOTEBOOK	959	n/a	n/a	0	0.422607421875	0.5869140625	0	lower	zerothre.ttf
1249422	WORD	wordpools/wasnorm_wordpool.txt	LTP114	ltpFR	6	8	1	GLACIER	638	n/a	n/a	0	0.422607421875	0.5869140625	0	lower	zerothre.ttf
1253584	WORD	wordpools/wasnorm_wordpool.txt	LTP114	ltpFR	6	8	1	FIDDLE	561	n/a	n/a	0	0.422607421875	0.5869140625	0	lower	zerothre.ttf
1259628	REC_START	n/a	LTP114	ltpFR	6	8	n/a	n/a	n/a	n/a	n/a	n/a	n/a	n/a	n/a	n/a	n/a
1260142	REC_WORD	wordpools/wasnorm_wordpool.txt	LTP114	ltpFR	6	8	1	FIDDLE	561	n/a	n/a	0	n/a	n/a	n/a	n/a	n/a
1261060	REC_WORD	wordpools/wasnorm_wordpool.txt	LTP114	ltpFR	6	8	1	GLACIER	638	n/a	n/a	0	n/a	n/a	n/a	n/a	n/a
1261883	REC_WORD	wordpools/wasnorm_wordpool.txt	LTP114	ltpFR	6	8	1	NOTEBOOK	959	n/a	n/a	0	n/a	n/a	n/a	n/a	n/a
1262985	REC_WORD	wordpools/wasnorm_wordpool.txt	LTP114	ltpFR	6	8	1	DESK	452	n/a	n/a	0	n/a	n/a	n/a	n/a	n/a
1263614	REC_WORD	wordpools/wasnorm_wordpool.txt	LTP114	ltpFR	6	8	1	COPIER	377	n/a	n/a	0	n/a	n/a	n/a	n/a	n/a
1264986	REC_WORD	wordpools/wasnorm_wordpool.txt	LTP114	ltpFR	6	8	1	TIGER	1467	n/a	n/a	1	n/a	n/a	n/a	n/a	n/a
1265584	REC_WORD	wordpools/wasnorm_wordpool.txt	LTP114	ltpFR	6	8	1	LEOPARD	812	n/a	n/a	1	n/a	n/a	n/a	n/a	n/a
1278046	REC_WORD_VV	wordpools/wasnorm_wordpool.txt	LTP114	ltpFR	6	8	n/a	<>	-1	n/a	n/a	n/a	n/a	n/a	n/a	n/a	n/a
1355882	WORD	wordpools/wasnorm_wordpool.txt	LTP114	ltpFR	6	9	-1	WASHCLOTH	1591	n/a	n/a	-1	1.0	1.0	1	upper	Verdana.ttf
1360010	WORD	wordpools/wasnorm_wordpool.txt	LTP114	ltpFR	6	9	-1	SALIVA	1226	n/a	n/a	-1	1.0	1.0	1	upper	Verdana.ttf
1364155	WORD	wordpools/wasnorm_wordpool.txt	LTP114	ltpFR	6	9	-1	TYPEWRITER	1531	n/a	n/a	-1	1.0	1.0	1	upper	Verdana.ttf
1368142	WORD	wordpools/wasnorm_wordpool.txt	LTP114	ltpFR	6	9	-1	CLAY	320	n/a	n/a	-1	1.0	1.0	1	upper	Verdana.ttf
1372222	WORD	wordpools/wasnorm_wordpool.txt	LTP114	ltpFR	6	9	-1	COMEDIAN	352	n/a	n/a	-1	1.0	1.0	1	upper	Verdana.ttf
1376067	WORD	wordpools/wasnorm_wordpool.txt	LTP114	ltpFR	6	9	-1	CARPENTER	246	n/a	n/a	-1	1.0	1.0	1	upper	Verdana.ttf
1380029	WORD	wordpools/wasnorm_wordpool.txt	LTP114	ltpFR	6	9	-1	AGENT	10	n/a	n/a	-1	1.0	1.0	1	upper	Verdana.ttf
1384016	WORD	wordpools/wasnorm_wordpool.txt	LTP114	ltpFR	6	9	-1	PATROL	1027	n/a	n/a	-1	1.0	1.0	1	upper	Verdana.ttf
1388044	WORD	wordpools/wasnorm_wordpool.txt	LTP114	ltpFR	6	9	-1	AUTHOR	61	n/a	n/a	-1	1.0	1.0	1	upper	Verdana.ttf
1392207	WORD	wordpools/wasnorm_wordpool.txt	LTP114	ltpFR	6	9	-1	PAGE	1001	n/a	n/a	-1	1.0	1.0	1	upper	Verdana.ttf
1396228	WORD	wordpools/wasnorm_wordpool.txt	LTP114	ltpFR	6	9	-1	SKI	1316	n/a	n/a	-1	1.0	1.0	1	upper	Verdana.ttf
1400281	WORD	wordpools/wasnorm_wordpool.txt	LTP114	ltpFR	6	9	-1	SUSPECT	1415	n/a	n/a	-1	1.0	1.0	1	upper	Verdana.ttf
1404400	WORD	wordpools/wasnorm_wordpool.txt	LTP114	ltpFR	6	9	-1	PAPER	1011	n/a	n/a	-1	1.0	1.0	1	upper	Verdana.ttf
1408596	WORD	wordpools/wasnorm_wordpool.txt	LTP114	ltpFR	6	9	-1	SHINGLE	1285	n/a	n/a	-1	1.0	1.0	1	upper	Verdana.ttf
1412608	WORD	wordpools/wasnorm_wordpool.txt	LTP114	ltpFR	6	9	-1	MOAT	903	n/a	n/a	-1	1.0	1.0	1	upper	Verdana.ttf
1416486	WORD	wordpools/wasnorm_wordpool.txt	LTP114	ltpFR	6	9	-1	HOSTAGE	722	n/a	n/a	-1	1.0	1.0	1	upper	Verdana.ttf
1422331	REC_START	n/a	LTP114	ltpFR	6	9	n/a	n/a	n/a	n/a	n/a	n/a	n/a	n/a	n/a	n/a	n/a
1423069	REC_WORD	wordpools/wasnorm_wordpool.txt	LTP114	ltpFR	6	9	-1	PAPER	1011	n/a	n/a	-1	n/a	n/a	n/a	n/a	n/a
1423412	REC_WORD	wordpools/wasnorm_wordpool.txt	LTP114	ltpFR	6	9	-1	SHINGLE	1285	n/a	n/a	-1	n/a	n/a	n/a	n/a	n/a
1423891	REC_WORD	wordpools/wasnorm_wordpool.txt	LTP114	ltpFR	6	9	-1	MOAT	903	n/a	n/a	-1	n/a	n/a	n/a	n/a	n/a
1424361	REC_WORD	wordpools/wasnorm_wordpool.txt	LTP114	ltpFR	6	9	-1	HOSTAGE	722	n/a	n/a	-1	n/a	n/a	n/a	n/a	n/a
1425100	REC_WORD	wordpools/wasnorm_wordpool.txt	LTP114	ltpFR	6	9	-1	AUTHOR	61	n/a	n/a	-1	n/a	n/a	n/a	n/a	n/a
1425898	REC_WORD	wordpools/wasnorm_wordpool.txt	LTP114	ltpFR	6	9	-1	PAGE	1001	n/a	n/a	-1	n/a	n/a	n/a	n/a	n/a
1428013	REC_WORD	wordpools/wasnorm_wordpool.txt	LTP114	ltpFR	6	9	-1	AGENT	10	n/a	n/a	-1	n/a	n/a	n/a	n/a	n/a
1433650	REC_WORD	wordpools/wasnorm_wordpool.txt	LTP114	ltpFR	6	9	-1	CARPENTER	246	n/a	n/a	-1	n/a	n/a	n/a	n/a	n/a
1434164	REC_WORD	wordpools/wasnorm_wordpool.txt	LTP114	ltpFR	6	9	-1	COMEDIAN	352	n/a	n/a	-1	n/a	n/a	n/a	n/a	n/a
1508871	WORD	wordpools/wasnorm_wordpool.txt	LTP114	ltpFR	6	10	1	COMPANION	357	n/a	n/a	1	0.422607421875	0.5869140625	0	lower	zerothre.ttf
1513058	WORD	wordpools/wasnorm_wordpool.txt	LTP114	ltpFR	6	10	1	MANAGER	863	n/a	n/a	1	0.422607421875	0.5869140625	0	lower	zerothre.ttf
1517245	WORD	wordpools/wasnorm_wordpool.txt	LTP114	ltpFR	6	10	1	THORN	1459	n/a	n/a	1	0.422607421875	0.5869140625	0	lower	zerothre.ttf
1521216	WORD	wordpools/wasnorm_wordpool.txt	LTP114	ltpFR	6	10	1	MISTER	901	n/a	n/a	1	0.422607421875	0.5869140625	0	lower	zerothre.ttf
1525377	WORD	wordpools/wasnorm_wordpool.txt	LTP114	ltpFR	6	10	1	LIME	823	n/a	n/a	1	0.422607421875	0.5869140625	0	lower	zerothre.ttf
1529538	WORD	wordpools/wasnorm_wordpool.txt	LTP114	ltpFR	6	10	1	VISITOR	1573	n/a	n/a	1	0.422607421875	0.5869140625	0	lower	zerothre.ttf
1533451	WORD	wordpools/wasnorm_wordpool.txt	LTP114	ltpFR	6	10	1	SEAGULL	1261	n/a	n/a	1	0.422607421875	0.5869140625	0	lower	zerothre.ttf
1537429	WORD	wordpools/wasnorm_wordpool.txt	LTP114	ltpFR	6	10	1	PERCH	1048	n/a	n/a	0	0.422607421875	0.5869140625	0	lower	zerothre.ttf
1541375	WORD	wordpools/wasnorm_wordpool.txt	LTP114	ltpFR	6	10	1	SKELETON	1314	n/a	n/a	0	0.422607421875	0.5869140625	0	lower	zerothre.ttf
1545370	WORD	wordpools/wasnorm_wordpool.txt	LTP114	ltpFR	6	10	1	GAZELLE	628	n/a	n/a	1	0.422607421875	0.5869140625	0	lower	zerothre.ttf
1549357	WORD	wordpools/wasnorm_wordpool.txt	LTP114	ltpFR	6	10	1	SWAN	1417	n/a	n/a	1	0.422607421875	0.5869140625	0	lower	zerothre.ttf
1553436	WORD	wordpools/wasnorm_wordpool.txt	LTP114	ltpFR	6	10	1	COMMITTEE	355	n/a	n/a	1	0.422607421875	0.5869140625	0	lower	zerothre.ttf
1557606	WORD	wordpools/wasnorm_wordpool.txt	LTP114	ltpFR	6	10	1	STAFF	1365	n/a	n/a	1	0.422607421875	0.5869140625	0	lower	zerothre.ttf
1561510	WORD	wordpools/wasnorm_wordpool.txt	LTP114	ltpFR	6	10	1	SKULL	1320	n/a	n/a	0	0.422607421875	0.5869140625	0	lower	zerothre.ttf
1565563	WORD	wordpools/wasnorm_wordpool.txt	LTP114	ltpFR	6	10	1	BASEMENT	94	n/a	n/a	0	0.422607421875	0.5869140625	0	lower	zerothre.ttf
1569484	WORD	wordpools/wasnorm_wordpool.txt	LTP114	ltpFR	6	10	1	WORKER	1621	n/a	n/a	1	0.422607421875	0.5869140625	0	lower	zerothre.ttf
1575188	REC_START	n/a	LTP114	ltpFR	6	10	n/a	n/a	n/a	n/a	n/a	n/a	n/a	n/a	n/a	n/a	n/a
1575482	REC_WORD	wordpools/wasnorm_wordpool.txt	LTP114	ltpFR	6	10	1	COMPANION	357	n/a	n/a	1	n/a	n/a	n/a	n/a	n/a
1576385	REC_WORD	wordpools/wasnorm_wordpool.txt	LTP114	ltpFR	6	10	1	MANAGER	863	n/a	n/a	1	n/a	n/a	n/a	n/a	n/a
1577073	REC_WORD	wordpools/wasnorm_wordpool.txt	LTP114	ltpFR	6	10	1	WORKER	1621	n/a	n/a	1	n/a	n/a	n/a	n/a	n/a
1577522	REC_WORD	wordpools/wasnorm_wordpool.txt	LTP114	ltpFR	6	10	1	STAFF	1365	n/a	n/a	1	n/a	n/a	n/a	n/a	n/a
1578102	REC_WORD	wordpools/wasnorm_wordpool.txt	LTP114	ltpFR	6	10	1	COMMITTEE	355	n/a	n/a	1	n/a	n/a	n/a	n/a	n/a
1580042	REC_WORD	wordpools/wasnorm_wordpool.txt	LTP114	ltpFR	6	10	1	SEAGULL	1261	n/a	n/a	1	n/a	n/a	n/a	n/a	n/a
1580624	REC_WORD	wordpools/wasnorm_wordpool.txt	LTP114	ltpFR	6	10	1	SWAN	1417	n/a	n/a	1	n/a	n/a	n/a	n/a	n/a
1581384	REC_WORD	wordpools/wasnorm_wordpool.txt	LTP114	ltpFR	6	10	1	PERCH	1048	n/a	n/a	0	n/a	n/a	n/a	n/a	n/a
1583175	REC_WORD	wordpools/wasnorm_wordpool.txt	LTP114	ltpFR	6	10	1	SKELETON	1314	n/a	n/a	0	n/a	n/a	n/a	n/a	n/a
1583898	REC_WORD	wordpools/wasnorm_wordpool.txt	LTP114	ltpFR	6	10	1	SKULL	1320	n/a	n/a	0	n/a	n/a	n/a	n/a	n/a
1591027	REC_WORD	wordpools/wasnorm_wordpool.txt	LTP114	ltpFR	6	10	1	VISITOR	1573	n/a	n/a	1	n/a	n/a	n/a	n/a	n/a
1658872	WORD	wordpools/wasnorm_wordpool.txt	LTP114	ltpFR	6	11	0	WINE	1613	n/a	n/a	2	0.57763671875	0.412841796875	1	upper	amplitud.ttf
1660911	KEY_MSG	n/a	LTP114	ltpFR	6	11	n/a	n/a	n/a	n/a	n/a	n/a	n/a	n/a	n/a	n/a	n/a
1663475	WORD	wordpools/wasnorm_wordpool.txt	LTP114	ltpFR	6	11	0	TART	1436	n/a	n/a	0	0.57763671875	0.412841796875	1	upper	amplitud.ttf
1667362	WORD	wordpools/wasnorm_wordpool.txt	LTP114	ltpFR	6	11	0	STALLION	1369	n/a	n/a	1	0.57763671875	0.412841796875	1	upper	amplitud.ttf
1671449	WORD	wordpools/wasnorm_wordpool.txt	LTP114	ltpFR	6	11	0	SALT	1229	n/a	n/a	0	0.57763671875	0.412841796875	1	upper	amplitud.ttf
1675477	WORD	wordpools/wasnorm_wordpool.txt	LTP114	ltpFR	6	11	1	PRUNE	1134	n/a	n/a	1	0.422607421875	0.5869140625	0	lower	zerothre.ttf
1679406	WORD	wordpools/wasnorm_wordpool.txt	LTP114	ltpFR	6	11	1	COOLER	375	n/a	n/a	0	0.422607421875	0.5869140625	0	lower	zerothre.ttf
1683327	WORD	wordpools/wasnorm_wordpool.txt	LTP114	ltpFR	6	11	1	HEART	697	n/a	n/a	1	0.422607421875	0.5869140625	0	lower	zerothre.ttf
1687405	WORD	wordpools/wasnorm_wordpool.txt	LTP114	ltpFR	6	11	1	BOXER	160	n/a	n/a	1	0.422607421875	0.5869140625	0	lower	zerothre.ttf
1691492	WORD	wordpools/wasnorm_wordpool.txt	LTP114	ltpFR	6	11	1	CART	250	n/a	n/a	0	0.422607421875	0.5869140625	0	lower	zerothre.ttf
1695429	WORD	wordpools/wasnorm_wordpool.txt	LTP114	ltpFR	6	11	0	OUTLAW	989	n/a	n/a	1	0.57763671875	0.412841796875	1	upper	amplitud.ttf
1699483	WORD	wordpools/wasnorm_wordpool.txt	LTP114	ltpFR	6	11	0	ACORN	3	n/a	n/a	0	0.57763671875	0.412841796875	1	upper	amplitud.ttf
1703611	WORD	wordpools/wasnorm_wordpool.txt	LTP114	ltpFR	6	11	1	TIMBER	1469	n/a	n/a	0	0.422607421875	0.5869140625	0	lower	zerothre.ttf
1707807	WORD	wordpools/wasnorm_wordpool.txt	LTP114	ltpFR	6	11	1	BRUNETTE	181	n/a	n/a	1	0.422607421875	0.5869140625	0	lower	zerothre.ttf
1711802	WORD	wordpools/wasnorm_wordpool.txt	LTP114	ltpFR	6	11	1	CONTINENT	367	n/a	n/a	0	0.422607421875	0.5869140625	0	lower	zerothre.ttf
1715914	WORD	wordpools/wasnorm_wordpool.txt	LTP114	ltpFR	6	11	0	NUN	962	n/a	n/a	1	0.57763671875	0.412841796875	1	upper	amplitud.ttf
1719967	WORD	wordpools/wasnorm_wordpool.txt	LTP114	ltpFR	6	11	0	CONVENT	370	n/a	n/a	1	0.57763671875	0.412841796875	1	upper	amplitud.ttf
1726003	REC_START	n/a	LTP114	ltpFR	6	11	n/a	n/a	n/a	n/a	n/a	n/a	n/a	n/a	n/a	n/a	n/a
1726856	REC_WORD	wordpools/wasnorm_wordpool.txt	LTP114	ltpFR	6	11	0	NUN	962	n/a	n/a	1	n/a	n/a	n/a	n/a	n/a
1727415	REC_WORD	wordpools/wasnorm_wordpool.txt	LTP114	ltpFR	6	11	0	CONVENT	370	n/a	n/a	1	n/a	n/a	n/a	n/a	n/a
1728108	REC_WORD	wordpools/wasnorm_wordpool.txt	LTP114	ltpFR	6	11	0	OUTLAW	989	n/a	n/a	1	n/a	n/a	n/a	n/a	n/a
1731490	REC_WORD	wordpools/wasnorm_wordpool.txt	LTP114	ltpFR	6	11	0	WINE	1613	n/a	n/a	2	n/a	n/a	n/a	n/a	n/a
1732294	REC_WORD	wordpools/wasnorm_wordpool.txt	LTP114	ltpFR	6	11	1	COOLER	375	n/a	n/a	0	n/a	n/a	n/a	n/a	n/a
1742166	REC_WORD	wordpools/wasnorm_wordpool.txt	LTP114	ltpFR	6	11	0	ACORN	3	n/a	n/a	0	n/a	n/a	n/a	n/a	n/a
1750093	REC_WORD	wordpools/wasnorm_wordpool.txt	LTP114	ltpFR	6	11	1	TIMBER	1469	n/a	n/a	0	n/a	n/a	n/a	n/a	n/a
1804744	WORD	wordpools/wasnorm_wordpool.txt	LTP114	ltpFR	6	12	1	NOMAD	955	n/a	n/a	1	0.422607421875	0.5869140625	0	lower	zerothre.ttf
1808856	WORD	wordpools/wasnorm_wordpool.txt	LTP114	ltpFR	6	12	1	HIKER	708	n/a	n/a	1	0.422607421875	0.5869140625	0	lower	zerothre.ttf
1812735	WORD	wordpools/wasnorm_wordpool.txt	LTP114	ltpFR	6	12	1	PAW	1029	n/a	n/a	0	0.422607421875	0.5869140625	0	lower	zerothre.ttf
1816871	WORD	wordpools/wasnorm_wordpool.txt	LTP114	ltpFR	6	12	0	GRAVEL	659	n/a	n/a	0	0.57763671875	0.412841796875	1	upper	amplitud.ttf
1821017	WORD	wordpools/wasnorm_wordpool.txt	LTP114	ltpFR	6	12	0	MONGOOSE	909	n/a	n/a	1	0.57763671875	0.412841796875	1	upper	amplitud.ttf
1825079	WORD	wordpools/wasnorm_wordpool.txt	LTP114	ltpFR	6	12	0	MAID	856	n/a	n/a	1	0.57763671875	0.412841796875	1	upper	amplitud.ttf
1829049	WORD	wordpools/wasnorm_wordpool.txt	LTP114	ltpFR	6	12	1	BOULEVARD	156	n/a	n/a	1	0.422607421875	0.5869140625	0	lower	zerothre.ttf
1833229	WORD	wordpools/wasnorm_wordpool.txt	LTP114	ltpFR	6	12	1	FRANCE	601	n/a	n/a	0	0.422607421875	0.5869140625	0	lower	zerothre.ttf
1837224	WORD	wordpools/wasnorm_wordpool.txt	LTP114	ltpFR	6	12	1	SUGAR	1401	n/a	n/a	0	0.422607421875	0.5869140625	0	lower	zerothre.ttf
1841368	WORD	wordpools/wasnorm_wordpool.txt	LTP114	ltpFR	6	12	1	BELT	120	n/a	n/a	0	0.422607421875	0.5869140625	0	lower	zerothre.ttf
1845555	WORD	wordpools/wasnorm_wordpool.txt	LTP114	ltpFR	6	12	1	BUCKLE	185	n/a	n/a	0	0.422607421875	0.5869140625	0	lower	zerothre.ttf
1849384	WORD	wordpools/wasnorm_wordpool.txt	LTP114	ltpFR	6	12	0	BEAN	105	n/a	n/a	0	0.57763671875	0.412841796875	1	upper	amplitud.ttf
1853554	WORD	wordpools/wasnorm_wordpool.txt	LTP114	ltpFR	6	12	0	CORN	381	n/a	n/a	0	0.57763671875	0.412841796875	1	upper	amplitud.ttf
1857558	WORD	wordpools/wasnorm_wordpool.txt	LTP114	ltpFR	6	12	0	PARSLEY	1016	n/a	n/a	0	0.57763671875	0.412841796875	1	upper	amplitud.ttf
1861761	WORD	wordpools/wasnorm_wordpool.txt	LTP114	ltpFR	6	12	0	DOG	480	n/a	n/a	1	0.57763671875	0.412841796875	1	upper	amplitud.ttf
1865765	WORD	wordpools/wasnorm_wordpool.txt	LTP114	ltpFR	6	12	0	SLIDE	1326	n/a	n/a	1	0.57763671875	0.412841796875	1	upper	amplitud.ttf
1871517	REC_START	n/a	LTP114	ltpFR	6	12	n/a	n/a	n/a	n/a	n/a	n/a	n/a	n/a	n/a	n/a	n/a
1872380	REC_WORD	wordpools/wasnorm_wordpool.txt	LTP114	ltpFR	6	12	0	CORN	381	n/a	n/a	0	n/a	n/a	n/a	n/a	n/a
1872867	REC_WORD	wordpools/wasnorm_wordpool.txt	LTP114	ltpFR	6	12	0	SLIDE	1326	n/a	n/a	1	n/a	n/a	n/a	n/a	n/a
1873517	REC_WORD	wordpools/wasnorm_wordpool.txt	LTP114	ltpFR	6	12	0	PARSLEY	1016	n/a	n/a	0	n/a	n/a	n/a	n/a	n/a
1874380	REC_WORD	wordpools/wasnorm_wordpool.txt	LTP114	ltpFR	6	12	0	BEAN	105	n/a	n/a	0	n/a	n/a	n/a	n/a	n/a
1947104	REST_REWET	n/a	LTP114	ltpFR	6	12	n/a	n/a	n/a	n/a	n/a	n/a	n/a	n/a	n/a	n/a	n/a
2299353	WORD	wordpools/wasnorm_wordpool.txt	LTP114	ltpFR	6	13	0	BRANDY	169	n/a	n/a	0	0.57763671875	0.412841796875	1	upper	amplitud.ttf
2303382	WORD	wordpools/wasnorm_wordpool.txt	LTP114	ltpFR	6	13	0	LIZARD	834	n/a	n/a	0	0.57763671875	0.412841796875	1	upper	amplitud.ttf
2307335	WORD	wordpools/wasnorm_wordpool.txt	LTP114	ltpFR	6	13	0	HERO	706	n/a	n/a	1	0.57763671875	0.412841796875	1	upper	amplitud.ttf
2311547	WORD	wordpools/wasnorm_wordpool.txt	LTP114	ltpFR	6	13	0	WALNUT	1584	n/a	n/a	0	0.57763671875	0.412841796875	1	upper	amplitud.ttf
2315518	WORD	wordpools/wasnorm_wordpool.txt	LTP114	ltpFR	6	13	0	GRASS	655	n/a	n/a	0	0.57763671875	0.412841796875	1	upper	amplitud.ttf
2319638	WORD	wordpools/wasnorm_wordpool.txt	LTP114	ltpFR	6	13	1	COWARD	394	n/a	n/a	1	0.422607421875	0.5869140625	0	lower	zerothre.ttf
2323450	WORD	wordpools/wasnorm_wordpool.txt	LTP114	ltpFR	6	13	1	MARINE	869	n/a	n/a	1	0.422607421875	0.5869140625	0	lower	zerothre.ttf
2327354	WORD	wordpools/wasnorm_wordpool.txt	LTP114	ltpFR	6	13	1	PADDLE	1000	n/a	n/a	0	0.422607421875	0.5869140625	0	lower	zerothre.ttf
2331184	WORD	wordpools/wasnorm_wordpool.txt	LTP114	ltpFR	6	13	1	CLOWN	330	n/a	n/a	1	0.422607421875	0.5869140625	0	lower	zerothre.ttf
2335237	WORD	wordpools/wasnorm_wordpool.txt	LTP114	ltpFR	6	13	1	WAGON	1578	n/a	n/a	0	0.422607421875	0.5869140625	0	lower	zerothre.ttf
2339090	WORD	wordpools/wasnorm_wordpool.txt	LTP114	ltpFR	6	13	1	BLOSSOM	138	n/a	n/a	1	0.422607421875	0.5869140625	0	lower	zerothre.ttf
2343136	WORD	wordpools/wasnorm_wordpool.txt	LTP114	ltpFR	6	13	0	SEED	1266	n/a	n/a	0	0.57763671875	0.412841796875	1	upper	amplitud.ttf
2347147	WORD	wordpools/wasnorm_wordpool.txt	LTP114	ltpFR	6	13	0	TANK	1432	n/a	n/a	1	0.57763671875	0.412841796875	1	upper	amplitud.ttf
2351118	WORD	wordpools/wasnorm_wordpool.txt	LTP114	ltpFR	6	13	0	PIER	1063	n/a	n/a	1	0.57763671875	0.412841796875	1	upper	amplitud.ttf
2355088	WORD	wordpools/wasnorm_wordpool.txt	LTP114	ltpFR	6	13	1	TAVERN	1437	n/a	n/a	0	0.422607421875	0.5869140625	0	lower	zerothre.ttf
2359084	WORD	wordpools/wasnorm_wordpool.txt	LTP114	ltpFR	6	13	1	FAN	551	n/a	n/a	0	0.422607421875	0.5869140625	0	lower	zerothre.ttf
2364836	REC_START	n/a	LTP114	ltpFR	6	13	n/a	n/a	n/a	n/a	n/a	n/a	n/a	n/a	n/a	n/a	n/a
2365414	REC_WORD	wordpools/wasnorm_wordpool.txt	LTP114	ltpFR	6	13	1	FAN	551	n/a	n/a	0	n/a	n/a	n/a	n/a	n/a
2366063	REC_WORD	wordpools/wasnorm_wordpool.txt	LTP114	ltpFR	6	13	0	TANK	1432	n/a	n/a	1	n/a	n/a	n/a	n/a	n/a
2366677	REC_WORD	wordpools/wasnorm_wordpool.txt	LTP114	ltpFR	6	13	1	TAVERN	1437	n/a	n/a	0	n/a	n/a	n/a	n/a	n/a
2367530	REC_WORD	wordpools/wasnorm_wordpool.txt	LTP114	ltpFR	6	13	1	WAGON	1578	n/a	n/a	0	n/a	n/a	n/a	n/a	n/a
2368283	REC_WORD	wordpools/wasnorm_wordpool.txt	LTP114	ltpFR	6	13	0	PIER	1063	n/a	n/a	1	n/a	n/a	n/a	n/a	n/a
2369675	REC_WORD	wordpools/wasnorm_wordpool.txt	LTP114	ltpFR	6	13	0	SEED	1266	n/a	n/a	0	n/a	n/a	n/a	n/a	n/a
2370777	REC_WORD	wordpools/wasnorm_wordpool.txt	LTP114	ltpFR	6	13	0	WALNUT	1584	n/a	n/a	0	n/a	n/a	n/a	n/a	n/a
2372384	REC_WORD	wordpools/wasnorm_wordpool.txt	LTP114	ltpFR	6	13	0	LIZARD	834	n/a	n/a	0	n/a	n/a	n/a	n/a	n/a
2377213	REC_WORD	wordpools/wasnorm_wordpool.txt	LTP114	ltpFR	6	13	0	BRANDY	169	n/a	n/a	0	n/a	n/a	n/a	n/a	n/a
2457752	WORD	wordpools/wasnorm_wordpool.txt	LTP114	ltpFR	6	14	0	BLACKBERRY	132	n/a	n/a	0	0.57763671875	0.412841796875	1	upper	amplitud.ttf
2461773	WORD	wordpools/wasnorm_wordpool.txt	LTP114	ltpFR	6	14	0	FARM	552	n/a	n/a	1	0.57763671875	0.412841796875	1	upper	amplitud.ttf
2465926	WORD	wordpools/wasnorm_wordpool.txt	LTP114	ltpFR	6	14	0	HOUSE	725	n/a	n/a	1	0.57763671875	0.412841796875	1	upper	amplitud.ttf
2470030	WORD	wordpools/wasnorm_wordpool.txt	LTP114	ltpFR	6	14	0	CAT	257	n/a	n/a	0	0.57763671875	0.412841796875	1	upper	amplitud.ttf
2474009	WORD	wordpools/wasnorm_wordpool.txt	LTP114	ltpFR	6	14	0	RODENT	1204	n/a	n/a	0	0.57763671875	0.412841796875	1	upper	amplitud.ttf
2478213	WORD	wordpools/wasnorm_wordpool.txt	LTP114	ltpFR	6	14	0	SAILOR	1223	n/a	n/a	1	0.57763671875	0.412841796875	1	upper	amplitud.ttf
2482316	WORD	wordpools/wasnorm_wordpool.txt	LTP114	ltpFR	6	14	0	CEILING	265	n/a	n/a	1	0.57763671875	0.412841796875	1	upper	amplitud.ttf
2486136	WORD	wordpools/wasnorm_wordpool.txt	LTP114	ltpFR	6	14	0	DENTIST	447	n/a	n/a	1	0.57763671875	0.412841796875	1	upper	amplitud.ttf
2490266	WORD	wordpools/wasnorm_wordpool.txt	LTP114	ltpFR	6	14	0	RECIPE	1175	n/a	n/a	0	0.57763671875	0.412841796875	1	upper	amplitud.ttf
2494253	WORD	wordpools/wasnorm_wordpool.txt	LTP114	ltpFR	6	14	0	STREAM	1392	n/a	n/a	1	0.57763671875	0.412841796875	1	upper	amplitud.ttf
2498223	WORD	wordpools/wasnorm_wordpool.txt	LTP114	ltpFR	6	14	0	POOL	1103	n/a	n/a	1	0.57763671875	0.412841796875	1	upper	amplitud.ttf
2502367	WORD	wordpools/wasnorm_wordpool.txt	LTP114	ltpFR	6	14	0	MARSH	874	n/a	n/a	1	0.57763671875	0.412841796875	1	upper	amplitud.ttf
2506429	WORD	wordpools/wasnorm_wordpool.txt	LTP114	ltpFR	6	14	0	BRACES	164	n/a	n/a	0	0.57763671875	0.412841796875	1	upper	amplitud.ttf
2510458	WORD	wordpools/wasnorm_wordpool.txt	LTP114	ltpFR	6	14	0	MARBLE	867	n/a	n/a	0	0.57763671875	0.412841796875	1	upper	amplitud.ttf
2514520	WORD	wordpools/wasnorm_wordpool.txt	LTP114	ltpFR	6	14	0	BULLY	196	n/a	n/a	0	0.57763671875	0.412841796875	1	upper	amplitud.ttf
2518549	WORD	wordpools/wasnorm_wordpool.txt	LTP114	ltpFR	6	14	0	SWAMP	1416	n/a	n/a	1	0.57763671875	0.412841796875	1	upper	amplitud.ttf
2524467	REC_START	n/a	LTP114	ltpFR	6	14	n/a	n/a	n/a	n/a	n/a	n/a	n/a	n/a	n/a	n/a	n/a
2525325	REC_WORD	wordpools/wasnorm_wordpool.txt	LTP114	ltpFR	6	14	0	BULLY	196	n/a	n/a	0	n/a	n/a	n/a	n/a	n/a
2525973	REC_WORD	wordpools/wasnorm_wordpool.txt	LTP114	ltpFR	6	14	0	SWAMP	1416	n/a	n/a	1	n/a	n/a	n/a	n/a	n/a
2526807	REC_WORD	wordpools/wasnorm_wordpool.txt	LTP114	ltpFR	6	14	0	MARSH	874	n/a	n/a	1	n/a	n/a	n/a	n/a	n/a
2528004	REC_WORD	wordpools/wasnorm_wordpool.txt	LTP114	ltpFR	6	14	n/a	LAKE	796	n/a	n/a	n/a	n/a	n/a	n/a	n/a	n/a
2528782	REC_WORD_VV	wordpools/wasnorm_wordpool.txt	LTP114	ltpFR	6	14	n/a	<>	-1	n/a	n/a	n/a	n/a	n/a	n/a	n/a	n/a
2533322	REC_WORD	wordpools/wasnorm_wordpool.txt	LTP114	ltpFR	6	14	0	POOL	1103	n/a	n/a	1	n/a	n/a	n/a	n/a	n/a
2534349	REC_WORD	wordpools/wasnorm_wordpool.txt	LTP114	ltpFR	6	14	0	STREAM	1392	n/a	n/a	1	n/a	n/a	n/a	n/a	n/a
2536395	REC_WORD	wordpools/wasnorm_wordpool.txt	LTP114	ltpFR	6	14	1	BARN	89	n/a	n/a	0	n/a	n/a	n/a	n/a	n/a
2537851	REC_WORD	wordpools/wasnorm_wordpool.txt	LTP114	ltpFR	6	14	0	HOUSE	725	n/a	n/a	1	n/a	n/a	n/a	n/a	n/a
2549854	REC_WORD	wordpools/wasnorm_wordpool.txt	LTP114	ltpFR	6	14	0	CAT	257	n/a	n/a	0	n/a	n/a	n/a	n/a	n/a
2550423	REC_WORD	wordpools/wasnorm_wordpool.txt	LTP114	ltpFR	6	14	0	RODENT	1204	n/a	n/a	0	n/a	n/a	n/a	n/a	n/a
2621670	WORD	wordpools/wasnorm_wordpool.txt	LTP114	ltpFR	6	15	0	MOLECULE	905	n/a	n/a	0	0.57763671875	0.412841796875	1	upper	amplitud.ttf
2625716	WORD	wordpools/wasnorm_wordpool.txt	LTP114	ltpFR	6	15	0	CHAUFFEUR	283	n/a	n/a	1	0.57763671875	0.412841796875	1	upper	amplitud.ttf
2629670	WORD	wordpools/wasnorm_wordpool.txt	LTP114	ltpFR	6	15	0	BUSH	202	n/a	n/a	1	0.57763671875	0.412841796875	1	upper	amplitud.ttf
2633532	WORD	wordpools/wasnorm_wordpool.txt	LTP114	ltpFR	6	15	0	FIG	563	n/a	n/a	0	0.57763671875	0.412841796875	1	upper	amplitud.ttf
2637677	WORD	wordpools/wasnorm_wordpool.txt	LTP114	ltpFR	6	15	0	TREE	1502	n/a	n/a	1	0.57763671875	0.412841796875	1	upper	amplitud.ttf
2641855	WORD	wordpools/wasnorm_wordpool.txt	LTP114	ltpFR	6	15	0	LADDER	793	n/a	n/a	1	0.57763671875	0.412841796875	1	upper	amplitud.ttf
2646042	WORD	wordpools/wasnorm_wordpool.txt	LTP114	ltpFR	6	15	0	MICROSCOPE	891	n/a	n/a	1	0.57763671875	0.412841796875	1	upper	amplitud.ttf
2650087	WORD	wordpools/wasnorm_wordpool.txt	LTP114	ltpFR	6	15	0	GOBLIN	645	n/a	n/a	1	0.57763671875	0.412841796875	1	upper	amplitud.ttf
2654167	WORD	wordpools/wasnorm_wordpool.txt	LTP114	ltpFR	6	15	0	STEAM	1375	n/a	n/a	0	0.57763671875	0.412841796875	1	upper	amplitud.ttf
2658353	WORD	wordpools/wasnorm_wordpool.txt	LTP114	ltpFR	6	15	0	RESTAURANT	1187	n/a	n/a	1	0.57763671875	0.412841796875	1	upper	amplitud.ttf
2662556	WORD	wordpools/wasnorm_wordpool.txt	LTP114	ltpFR	6	15	0	KITCHEN	778	n/a	n/a	1	0.57763671875	0.412841796875	1	upper	amplitud.ttf
2666618	WORD	wordpools/wasnorm_wordpool.txt	LTP114	ltpFR	6	15	0	BATTERY	101	n/a	n/a	0	0.57763671875	0.412841796875	1	upper	amplitud.ttf
2670597	WORD	wordpools/wasnorm_wordpool.txt	LTP114	ltpFR	6	15	0	ALMOND	18	n/a	n/a	0	0.57763671875	0.412841796875	1	upper	amplitud.ttf
2674459	WORD	wordpools/wasnorm_wordpool.txt	LTP114	ltpFR	6	15	0	SOCKET	1340	n/a	n/a	0	0.57763671875	0.412841796875	1	upper	amplitud.ttf
2678272	WORD	wordpools/wasnorm_wordpool.txt	LTP114	ltpFR	6	15	0	CIGAR	308	n/a	n/a	0	0.57763671875	0.412841796875	1	upper	amplitud.ttf
2682417	WORD	wordpools/wasnorm_wordpool.txt	LTP114	ltpFR	6	15	0	SINK	1309	n/a	n/a	0	0.57763671875	0.412841796875	1	upper	amplitud.ttf
2688336	REC_START	n/a	LTP114	ltpFR	6	15	n/a	n/a	n/a	n/a	n/a	n/a	n/a	n/a	n/a	n/a	n/a
2688904	REC_WORD	wordpools/wasnorm_wordpool.txt	LTP114	ltpFR	6	15	0	SINK	1309	n/a	n/a	0	n/a	n/a	n/a	n/a	n/a
2689658	REC_WORD	wordpools/wasnorm_wordpool.txt	LTP114	ltpFR	6	15	0	CIGAR	308	n/a	n/a	0	n/a	n/a	n/a	n/a	n/a
2690785	REC_WORD	wordpools/wasnorm_wordpool.txt	LTP114	ltpFR	6	15	0	KITCHEN	778	n/a	n/a	1	n/a	n/a	n/a	n/a	n/a
2691778	REC_WORD	wordpools/wasnorm_wordpool.txt	LTP114	ltpFR	6	15	0	RESTAURANT	1187	n/a	n/a	1	n/a	n/a	n/a	n/a	n/a
2692965	REC_WORD	wordpools/wasnorm_wordpool.txt	LTP114	ltpFR	6	15	0	GOBLIN	645	n/a	n/a	1	n/a	n/a	n/a	n/a	n/a
2693768	REC_WORD	wordpools/wasnorm_wordpool.txt	LTP114	ltpFR	6	15	0	FIG	563	n/a	n/a	0	n/a	n/a	n/a	n/a	n/a
2695051	REC_WORD	wordpools/wasnorm_wordpool.txt	LTP114	ltpFR	6	15	0	ALMOND	18	n/a	n/a	0	n/a	n/a	n/a	n/a	n/a
2700184	REC_WORD	wordpools/wasnorm_wordpool.txt	LTP114	ltpFR	6	15	0	STEAM	1375	n/a	n/a	0	n/a	n/a	n/a	n/a	n/a
2783841	WORD	wordpools/wasnorm_wordpool.txt	LTP114	ltpFR	6	16	-1	HOOP	716	n/a	n/a	-1	1.0	1.0	1	upper	Verdana.ttf
2787761	WORD	wordpools/wasnorm_wordpool.txt	LTP114	ltpFR	6	16	-1	BEAD	103	n/a	n/a	-1	1.0	1.0	1	upper	Verdana.ttf
2791873	WORD	wordpools/wasnorm_wordpool.txt	LTP114	ltpFR	6	16	-1	DISH	474	n/a	n/a	-1	1.0	1.0	1	upper	Verdana.ttf
2795976	WORD	wordpools/wasnorm_wordpool.txt	LTP114	ltpFR	6	16	-1	LIGHTER	819	n/a	n/a	-1	1.0	1.0	1	upper	Verdana.ttf
2799864	WORD	wordpools/wasnorm_wordpool.txt	LTP114	ltpFR	6	16	-1	CASH	252	n/a	n/a	-1	1.0	1.0	1	upper	Verdana.ttf
2803934	WORD	wordpools/wasnorm_wordpool.txt	LTP114	ltpFR	6	16	-1	ATTIRE	57	n/a	n/a	-1	1.0	1.0	1	upper	Verdana.ttf
2807813	WORD	wordpools/wasnorm_wordpool.txt	LTP114	ltpFR	6	16	-1	WATERFALL	1595	n/a	n/a	-1	1.0	1.0	1	upper	Verdana.ttf
2811933	WORD	wordpools/wasnorm_wordpool.txt	LTP114	ltpFR	6	16	-1	LENS	811	n/a	n/a	-1	1.0	1.0	1	upper	Verdana.ttf
2816045	WORD	wordpools/wasnorm_wordpool.txt	LTP114	ltpFR	6	16	-1	GLASSES	640	n/a	n/a	-1	1.0	1.0	1	upper	Verdana.ttf
2820233	WORD	wordpools/wasnorm_wordpool.txt	LTP114	ltpFR	6	16	-1	DANDELION	438	n/a	n/a	-1	1.0	1.0	1	upper	Verdana.ttf
2824435	WORD	wordpools/wasnorm_wordpool.txt	LTP114	ltpFR	6	16	-1	DAGGER	434	n/a	n/a	-1	1.0	1.0	1	upper	Verdana.ttf
2828248	WORD	wordpools/wasnorm_wordpool.txt	LTP114	ltpFR	6	16	-1	TUB	1514	n/a	n/a	-1	1.0	1.0	1	upper	Verdana.ttf
2832084	WORD	wordpools/wasnorm_wordpool.txt	LTP114	ltpFR	6	16	-1	NICOTINE	951	n/a	n/a	-1	1.0	1.0	1	upper	Verdana.ttf
2836264	WORD	wordpools/wasnorm_wordpool.txt	LTP114	ltpFR	6	16	-1	ULCER	1533	n/a	n/a	-1	1.0	1.0	1	upper	Verdana.ttf
2840408	WORD	wordpools/wasnorm_wordpool.txt	LTP114	ltpFR	6	16	-1	DEPARTMENT	449	n/a	n/a	-1	1.0	1.0	1	upper	Verdana.ttf
2844378	WORD	wordpools/wasnorm_wordpool.txt	LTP114	ltpFR	6	16	-1	CLERK	321	n/a	n/a	-1	1.0	1.0	1	upper	Verdana.ttf
2850147	REC_START	n/a	LTP114	ltpFR	6	16	n/a	n/a	n/a	n/a	n/a	n/a	n/a	n/a	n/a	n/a	n/a
2851279	REC_WORD	wordpools/wasnorm_wordpool.txt	LTP114	ltpFR	6	16	-1	DEPARTMENT	449	n/a	n/a	-1	n/a	n/a	n/a	n/a	n/a
2852397	REC_WORD	wordpools/wasnorm_wordpool.txt	LTP114	ltpFR	6	16	-1	CLERK	321	n/a	n/a	-1	n/a	n/a	n/a	n/a	n/a
2853260	REC_WORD	wordpools/wasnorm_wordpool.txt	LTP114	ltpFR	6	16	-1	ULCER	1533	n/a	n/a	-1	n/a	n/a	n/a	n/a	n/a
2854073	REC_WORD	wordpools/wasnorm_wordpool.txt	LTP114	ltpFR	6	16	-1	NICOTINE	951	n/a	n/a	-1	n/a	n/a	n/a	n/a	n/a
2855280	REC_WORD	wordpools/wasnorm_wordpool.txt	LTP114	ltpFR	6	16	-1	LIGHTER	819	n/a	n/a	-1	n/a	n/a	n/a	n/a	n/a
2857291	REC_WORD	wordpools/wasnorm_wordpool.txt	LTP114	ltpFR	6	16	-1	WATERFALL	1595	n/a	n/a	-1	n/a	n/a	n/a	n/a	n/a
2951563	REC_START	n/a	LTP114	ltpFR	6	1	n/a	n/a	n/a	n/a	n/a	n/a	n/a	n/a	n/a	n/a	n/a
2951596	RECOG_LURE	n/a	LTP114	ltpFR	6	1	n/a	CONSUMER	365	1	3	n/a	n/a	n/a	n/a	n/a	n/a
2953164	RECOG_RESP	n/a	LTP114	ltpFR	6	1	n/a	CONSUMER	365	1	n/a	n/a	n/a	n/a	n/a	n/a	n/a
2954391	RECOG_CONF	n/a	LTP114	ltpFR	6	1	n/a	CONSUMER	365	n/a	3	n/a	n/a	n/a	n/a	n/a	n/a
2956423	RECOG_TARGET	n/a	LTP114	ltpFR	6	1	1	TERMITE	1451	1	5	1	n/a	n/a	n/a	n/a	n/a
2957105	RECOG_RESP	n/a	LTP114	ltpFR	6	1	1	TERMITE	1451	1	n/a	1	n/a	n/a	n/a	n/a	n/a
2957784	RECOG_CONF	n/a	LTP114	ltpFR	6	1	1	TERMITE	1451	n/a	5	1	n/a	n/a	n/a	n/a	n/a
2959487	RECOG_TARGET	n/a	LTP114	ltpFR	6	1	1	FIDDLE	561	1	5	0	n/a	n/a	n/a	n/a	n/a
2960088	RECOG_RESP	n/a	LTP114	ltpFR	6	1	1	FIDDLE	561	1	n/a	0	n/a	n/a	n/a	n/a	n/a
2960707	RECOG_CONF	n/a	LTP114	ltpFR	6	1	1	FIDDLE	561	n/a	5	0	n/a	n/a	n/a	n/a	n/a
2962325	RECOG_TARGET	n/a	LTP114	ltpFR	6	1	1	TIGER	1467	1	5	1	n/a	n/a	n/a	n/a	n/a
2962907	RECOG_RESP	n/a	LTP114	ltpFR	6	1	1	TIGER	1467	1	n/a	1	n/a	n/a	n/a	n/a	n/a
2963471	RECOG_CONF	n/a	LTP114	ltpFR	6	1	1	TIGER	1467	n/a	5	1	n/a	n/a	n/a	n/a	n/a
2965055	RECOG_LURE	n/a	LTP114	ltpFR	6	1	n/a	CRIB	407	0	5	n/a	n/a	n/a	n/a	n/a	n/a
2965785	RECOG_RESP	n/a	LTP114	ltpFR	6	1	n/a	CRIB	407	0	n/a	n/a	n/a	n/a	n/a	n/a	n/a
2966334	RECOG_CONF	n/a	LTP114	ltpFR	6	1	n/a	CRIB	407	n/a	5	n/a	n/a	n/a	n/a	n/a	n/a
2967885	RECOG_LURE	n/a	LTP114	ltpFR	6	1	n/a	CREVICE	405	0	5	n/a	n/a	n/a	n/a	n/a	n/a
2968619	RECOG_RESP_VV	n/a	LTP114	ltpFR	6	1	n/a	CREVICE	405	1	n/a	n/a	n/a	n/a	n/a	n/a	n/a
2969198	RECOG_RESP	n/a	LTP114	ltpFR	6	1	n/a	CREVICE	405	0	n/a	n/a	n/a	n/a	n/a	n/a	n/a
2970146	RECOG_CONF	n/a	LTP114	ltpFR	6	1	n/a	CREVICE	405	n/a	5	n/a	n/a	n/a	n/a	n/a	n/a
2971672	RECOG_TARGET	n/a	LTP114	ltpFR	6	1	-1	CLERK	321	1	5	-1	n/a	n/a	n/a	n/a	n/a
2972410	RECOG_RESP	n/a	LTP114	ltpFR	6	1	-1	CLERK	321	1	n/a	-1	n/a	n/a	n/a	n/a	n/a
2973099	RECOG_CONF	n/a	LTP114	ltpFR	6	1	-1	CLERK	321	n/a	5	-1	n/a	n/a	n/a	n/a	n/a
2974727	RECOG_TARGET	n/a	LTP114	ltpFR	6	1	-1	LIGHTER	819	1	5	-1	n/a	n/a	n/a	n/a	n/a
2975324	RECOG_RESP	n/a	LTP114	ltpFR	6	1	-1	LIGHTER	819	1	n/a	-1	n/a	n/a	n/a	n/a	n/a
2975992	RECOG_CONF	n/a	LTP114	ltpFR	6	1	-1	LIGHTER	819	n/a	5	-1	n/a	n/a	n/a	n/a	n/a
2977516	RECOG_TARGET	n/a	LTP114	ltpFR	6	1	0	FAIRY	549	1	5	1	n/a	n/a	n/a	n/a	n/a
2978222	RECOG_RESP	n/a	LTP114	ltpFR	6	1	0	FAIRY	549	1	n/a	1	n/a	n/a	n/a	n/a	n/a
2978826	RECOG_CONF	n/a	LTP114	ltpFR	6	1	0	FAIRY	549	n/a	5	1	n/a	n/a	n/a	n/a	n/a
2980362	RECOG_TARGET	n/a	LTP114	ltpFR	6	1	-1	MOAT	903	1	5	-1	n/a	n/a	n/a	n/a	n/a
2981001	RECOG_RESP	n/a	LTP114	ltpFR	6	1	-1	MOAT	903	1	n/a	-1	n/a	n/a	n/a	n/a	n/a
2981580	RECOG_CONF	n/a	LTP114	ltpFR	6	1	-1	MOAT	903	n/a	5	-1	n/a	n/a	n/a	n/a	n/a
2983159	RECOG_TARGET	n/a	LTP114	ltpFR	6	1	0	TREASURE	1500	1	5	0	n/a	n/a	n/a	n/a	n/a
2983765	RECOG_RESP	n/a	LTP114	ltpFR	6	1	0	TREASURE	1500	1	n/a	0	n/a	n/a	n/a	n/a	n/a
2984323	RECOG_CONF	n/a	LTP114	ltpFR	6	1	0	TREASURE	1500	n/a	5	0	n/a	n/a	n/a	n/a	n/a
2985956	RECOG_TARGET	n/a	LTP114	ltpFR	6	1	1	KID	775	1	3	1	n/a	n/a	n/a	n/a	n/a
2987257	RECOG_RESP	n/a	LTP114	ltpFR	6	1	1	KID	775	1	n/a	1	n/a	n/a	n/a	n/a	n/a
2987995	RECOG_CONF	n/a	LTP114	ltpFR	6	1	1	KID	775	n/a	3	1	n/a	n/a	n/a	n/a	n/a
2989468	RECOG_LURE	n/a	LTP114	ltpFR	6	1	n/a	SWEATER	1419	0	3	n/a	n/a	n/a	n/a	n/a	n/a
2990310	RECOG_RESP	n/a	LTP114	ltpFR	6	1	n/a	SWEATER	1419	0	n/a	n/a	n/a	n/a	n/a	n/a	n/a
2991038	RECOG_CONF	n/a	LTP114	ltpFR	6	1	n/a	SWEATER	1419	n/a	3	n/a	n/a	n/a	n/a	n/a	n/a
2992490	RECOG_TARGET	n/a	LTP114	ltpFR	6	1	1	DOLL	481	1	5	1	n/a	n/a	n/a	n/a	n/a
2993193	RECOG_RESP	n/a	LTP114	ltpFR	6	1	1	DOLL	481	1	n/a	1	n/a	n/a	n/a	n/a	n/a
2993842	RECOG_CONF	n/a	LTP114	ltpFR	6	1	1	DOLL	481	n/a	5	1	n/a	n/a	n/a	n/a	n/a
2995370	RECOG_TARGET	n/a	LTP114	ltpFR	6	1	1	HAWK	692	1	5	1	n/a	n/a	n/a	n/a	n/a
2995917	RECOG_RESP	n/a	LTP114	ltpFR	6	1	1	HAWK	692	1	n/a	1	n/a	n/a	n/a	n/a	n/a
2996486	RECOG_CONF	n/a	LTP114	ltpFR	6	1	1	HAWK	692	n/a	5	1	n/a	n/a	n/a	n/a	n/a
2998050	RECOG_TARGET	n/a	LTP114	ltpFR	6	1	1	TIMBER	1469	1	5	0	n/a	n/a	n/a	n/a	n/a
2998641	RECOG_RESP	n/a	LTP114	ltpFR	6	1	1	TIMBER	1469	1	n/a	0	n/a	n/a	n/a	n/a	n/a
2999289	RECOG_CONF	n/a	LTP114	ltpFR	6	1	1	TIMBER	1469	n/a	5	0	n/a	n/a	n/a	n/a	n/a
3000689	RECOG_TARGET	n/a	LTP114	ltpFR	6	1	1	JAW	751	1	5	0	n/a	n/a	n/a	n/a	n/a
3001185	RECOG_RESP	n/a	LTP114	ltpFR	6	1	1	JAW	751	1	n/a	0	n/a	n/a	n/a	n/a	n/a
3001854	RECOG_CONF	n/a	LTP114	ltpFR	6	1	1	JAW	751	n/a	5	0	n/a	n/a	n/a	n/a	n/a
3003278	RECOG_LURE	n/a	LTP114	ltpFR	6	1	n/a	BOWL	158	1	2	n/a	n/a	n/a	n/a	n/a	n/a
3005231	RECOG_RESP	n/a	LTP114	ltpFR	6	1	n/a	BOWL	158	1	n/a	n/a	n/a	n/a	n/a	n/a	n/a
3005904	RECOG_CONF	n/a	LTP114	ltpFR	6	1	n/a	BOWL	158	n/a	2	n/a	n/a	n/a	n/a	n/a	n/a
3007414	RECOG_TARGET	n/a	LTP114	ltpFR	6	1	0	CONSOLE	364	1	5	0	n/a	n/a	n/a	n/a	n/a
3008104	RECOG_RESP	n/a	LTP114	ltpFR	6	1	0	CONSOLE	364	1	n/a	0	n/a	n/a	n/a	n/a	n/a
3008778	RECOG_CONF	n/a	LTP114	ltpFR	6	1	0	CONSOLE	364	n/a	5	0	n/a	n/a	n/a	n/a	n/a
3010287	RECOG_TARGET	n/a	LTP114	ltpFR	6	1	-1	FOOT	590	0	3	-1	n/a	n/a	n/a	n/a	n/a
3011302	RECOG_RESP	n/a	LTP114	ltpFR	6	1	-1	FOOT	590	0	n/a	-1	n/a	n/a	n/a	n/a	n/a
3012310	RECOG_CONF	n/a	LTP114	ltpFR	6	1	-1	FOOT	590	n/a	3	-1	n/a	n/a	n/a	n/a	n/a
3018276	REC_START	n/a	LTP114	ltpFR	6	2	n/a	n/a	n/a	n/a	n/a	n/a	n/a	n/a	n/a	n/a	n/a
3018303	RECOG_LURE	n/a	LTP114	ltpFR	6	2	n/a	HORSE	719	0	4	n/a	n/a	n/a	n/a	n/a	n/a
3020062	RECOG_RESP	n/a	LTP114	ltpFR	6	2	n/a	HORSE	719	0	n/a	n/a	n/a	n/a	n/a	n/a	n/a
3020815	RECOG_CONF	n/a	LTP114	ltpFR	6	2	n/a	HORSE	719	n/a	4	n/a	n/a	n/a	n/a	n/a	n/a
3022405	RECOG_TARGET	n/a	LTP114	ltpFR	6	2	0	PARSLEY	1016	1	5	0	n/a	n/a	n/a	n/a	n/a
3023100	RECOG_RESP	n/a	LTP114	ltpFR	6	2	0	PARSLEY	1016	1	n/a	0	n/a	n/a	n/a	n/a	n/a
3023828	RECOG_CONF	n/a	LTP114	ltpFR	6	2	0	PARSLEY	1016	n/a	5	0	n/a	n/a	n/a	n/a	n/a
3025261	RECOG_TARGET	n/a	LTP114	ltpFR	6	2	0	KITCHEN	778	1	5	1	n/a	n/a	n/a	n/a	n/a
3025889	RECOG_RESP	n/a	LTP114	ltpFR	6	2	0	KITCHEN	778	1	n/a	1	n/a	n/a	n/a	n/a	n/a
3026452	RECOG_CONF	n/a	LTP114	ltpFR	6	2	0	KITCHEN	778	n/a	5	1	n/a	n/a	n/a	n/a	n/a
3027974	RECOG_TARGET	n/a	LTP114	ltpFR	6	2	0	SOCKET	1340	1	5	0	n/a	n/a	n/a	n/a	n/a
3028777	RECOG_RESP	n/a	LTP114	ltpFR	6	2	0	SOCKET	1340	1	n/a	0	n/a	n/a	n/a	n/a	n/a
3029396	RECOG_CONF	n/a	LTP114	ltpFR	6	2	0	SOCKET	1340	n/a	5	0	n/a	n/a	n/a	n/a	n/a
3030829	RECOG_TARGET	n/a	LTP114	ltpFR	6	2	-1	WATERFALL	1595	1	5	-1	n/a	n/a	n/a	n/a	n/a
3031381	RECOG_RESP	n/a	LTP114	ltpFR	6	2	-1	WATERFALL	1595	1	n/a	-1	n/a	n/a	n/a	n/a	n/a
3032059	RECOG_CONF	n/a	LTP114	ltpFR	6	2	-1	WATERFALL	1595	n/a	5	-1	n/a	n/a	n/a	n/a	n/a
3033434	RECOG_LURE	n/a	LTP114	ltpFR	6	2	n/a	BELL	118	0	4	n/a	n/a	n/a	n/a	n/a	n/a
3034185	RECOG_RESP	n/a	LTP114	ltpFR	6	2	n/a	BELL	118	0	n/a	n/a	n/a	n/a	n/a	n/a	n/a
3034823	RECOG_CONF	n/a	LTP114	ltpFR	6	2	n/a	BELL	118	n/a	4	n/a	n/a	n/a	n/a	n/a	n/a
3036207	RECOG_TARGET	n/a	LTP114	ltpFR	6	2	0	BOOK	149	1	5	0	n/a	n/a	n/a	n/a	n/a
3036799	RECOG_RESP	n/a	LTP114	ltpFR	6	2	0	BOOK	149	1	n/a	0	n/a	n/a	n/a	n/a	n/a
3037407	RECOG_CONF	n/a	LTP114	ltpFR	6	2	0	BOOK	149	n/a	5	0	n/a	n/a	n/a	n/a	n/a
3038928	RECOG_TARGET	n/a	LTP114	ltpFR	6	2	1	BASEMENT	94	1	2	0	n/a	n/a	n/a	n/a	n/a
3039493	RECOG_RESP	n/a	LTP114	ltpFR	6	2	1	BASEMENT	94	1	n/a	0	n/a	n/a	n/a	n/a	n/a
3040550	RECOG_CONF	n/a	LTP114	ltpFR	6	2	1	BASEMENT	94	n/a	2	0	n/a	n/a	n/a	n/a	n/a
3042132	RECOG_TARGET	n/a	LTP114	ltpFR	6	2	1	CITY	314	1	3	0	n/a	n/a	n/a	n/a	n/a
3042815	RECOG_RESP	n/a	LTP114	ltpFR	6	2	1	CITY	314	1	n/a	0	n/a	n/a	n/a	n/a	n/a
3043573	RECOG_CONF	n/a	LTP114	ltpFR	6	2	1	CITY	314	n/a	3	0	n/a	n/a	n/a	n/a	n/a
3045037	RECOG_TARGET	n/a	LTP114	ltpFR	6	2	0	SINK	1309	1	4	0	n/a	n/a	n/a	n/a	n/a
3045629	RECOG_RESP	n/a	LTP114	ltpFR	6	2	0	SINK	1309	1	n/a	0	n/a	n/a	n/a	n/a	n/a
3046247	RECOG_CONF	n/a	LTP114	ltpFR	6	2	0	SINK	1309	n/a	4	0	n/a	n/a	n/a	n/a	n/a
3047692	RECOG_TARGET	n/a	LTP114	ltpFR	6	2	0	DOG	480	1	1	1	n/a	n/a	n/a	n/a	n/a
3048342	RECOG_RESP	n/a	LTP114	ltpFR	6	2	0	DOG	480	1	n/a	1	n/a	n/a	n/a	n/a	n/a
3049270	RECOG_CONF	n/a	LTP114	ltpFR	6	2	0	DOG	480	n/a	1	1	n/a	n/a	n/a	n/a	n/a
3050689	RECOG_TARGET	n/a	LTP114	ltpFR	6	2	0	CORN	381	1	5	0	n/a	n/a	n/a	n/a	n/a
3051296	RECOG_RESP	n/a	LTP114	ltpFR	6	2	0	CORN	381	1	n/a	0	n/a	n/a	n/a	n/a	n/a
3051964	RECOG_CONF	n/a	LTP114	ltpFR	6	2	0	CORN	381	n/a	5	0	n/a	n/a	n/a	n/a	n/a
3053361	RECOG_TARGET	n/a	LTP114	ltpFR	6	2	0	TORTOISE	1486	1	5	n/a	n/a	n/a	n/a	n/a	n/a
3053940	RECOG_RESP	n/a	LTP114	ltpFR	6	2	0	TORTOISE	1486	1	n/a	n/a	n/a	n/a	n/a	n/a	n/a
3054518	RECOG_CONF	n/a	LTP114	ltpFR	6	2	0	TORTOISE	1486	n/a	5	n/a	n/a	n/a	n/a	n/a	n/a
3055966	RECOG_TARGET	n/a	LTP114	ltpFR	6	2	0	SALT	1229	1	5	0	n/a	n/a	n/a	n/a	n/a
3056504	RECOG_RESP	n/a	LTP114	ltpFR	6	2	0	SALT	1229	1	n/a	0	n/a	n/a	n/a	n/a	n/a
3057043	RECOG_CONF	n/a	LTP114	ltpFR	6	2	0	SALT	1229	n/a	5	0	n/a	n/a	n/a	n/a	n/a
3058571	RECOG_TARGET	n/a	LTP114	ltpFR	6	2	-1	GLASSES	640	1	5	-1	n/a	n/a	n/a	n/a	n/a
3059088	RECOG_RESP	n/a	LTP114	ltpFR	6	2	-1	GLASSES	640	1	n/a	-1	n/a	n/a	n/a	n/a	n/a
3059707	RECOG_CONF	n/a	LTP114	ltpFR	6	2	-1	GLASSES	640	n/a	5	-1	n/a	n/a	n/a	n/a	n/a
3061169	RECOG_TARGET	n/a	LTP114	ltpFR	6	2	-1	NICOTINE	951	1	5	-1	n/a	n/a	n/a	n/a	n/a
3061712	RECOG_RESP	n/a	LTP114	ltpFR	6	2	-1	NICOTINE	951	1	n/a	-1	n/a	n/a	n/a	n/a	n/a
3062371	RECOG_CONF	n/a	LTP114	ltpFR	6	2	-1	NICOTINE	951	n/a	5	-1	n/a	n/a	n/a	n/a	n/a
3063815	RECOG_TARGET	n/a	LTP114	ltpFR	6	2	1	PERCH	1048	1	5	0	n/a	n/a	n/a	n/a	n/a
3064406	RECOG_RESP	n/a	LTP114	ltpFR	6	2	1	PERCH	1048	1	n/a	0	n/a	n/a	n/a	n/a	n/a
3065064	RECOG_CONF	n/a	LTP114	ltpFR	6	2	1	PERCH	1048	n/a	5	0	n/a	n/a	n/a	n/a	n/a
3066504	RECOG_TARGET	n/a	LTP114	ltpFR	6	2	1	COOLER	375	1	5	0	n/a	n/a	n/a	n/a	n/a
3067000	RECOG_RESP	n/a	LTP114	ltpFR	6	2	1	COOLER	375	1	n/a	0	n/a	n/a	n/a	n/a	n/a
3067489	RECOG_CONF	n/a	LTP114	ltpFR	6	2	1	COOLER	375	n/a	5	0	n/a	n/a	n/a	n/a	n/a
3069093	RECOG_LURE	n/a	LTP114	ltpFR	6	2	n/a	BENCH	121	1	2	n/a	n/a	n/a	n/a	n/a	n/a
3069604	RECOG_RESP	n/a	LTP114	ltpFR	6	2	n/a	BENCH	121	1	n/a	n/a	n/a	n/a	n/a	n/a	n/a
3070762	RECOG_CONF	n/a	LTP114	ltpFR	6	2	n/a	BENCH	121	n/a	2	n/a	n/a	n/a	n/a	n/a	n/a
3072139	RECOG_TARGET	n/a	LTP114	ltpFR	6	2	-1	AMBULANCE	19	1	5	-1	n/a	n/a	n/a	n/a	n/a
3072847	RECOG_RESP	n/a	LTP114	ltpFR	6	2	-1	AMBULANCE	19	1	n/a	-1	n/a	n/a	n/a	n/a	n/a
3073535	RECOG_CONF	n/a	LTP114	ltpFR	6	2	-1	AMBULANCE	19	n/a	5	-1	n/a	n/a	n/a	n/a	n/a
3076914	REC_START	n/a	LTP114	ltpFR	6	3	n/a	n/a	n/a	n/a	n/a	n/a	n/a	n/a	n/a	n/a	n/a
3076942	RECOG_TARGET	n/a	LTP114	ltpFR	6	3	1	HUMAN	726	1	5	1	n/a	n/a	n/a	n/a	n/a
3077577	RECOG_RESP	n/a	LTP114	ltpFR	6	3	1	HUMAN	726	1	n/a	1	n/a	n/a	n/a	n/a	n/a
3078415	RECOG_CONF	n/a	LTP114	ltpFR	6	3	1	HUMAN	726	n/a	5	1	n/a	n/a	n/a	n/a	n/a
3079905	RECOG_TARGET	n/a	LTP114	ltpFR	6	3	0	WINE	1613	1	5	2	n/a	n/a	n/a	n/a	n/a
3080541	RECOG_RESP	n/a	LTP114	ltpFR	6	3	0	WINE	1613	1	n/a	2	n/a	n/a	n/a	n/a	n/a
3081449	RECOG_CONF	n/a	LTP114	ltpFR	6	3	0	WINE	1613	n/a	5	2	n/a	n/a	n/a	n/a	n/a
3082951	RECOG_LURE	n/a	LTP114	ltpFR	6	3	n/a	TUSK	1523	0	4	n/a	n/a	n/a	n/a	n/a	n/a
3083703	RECOG_RESP	n/a	LTP114	ltpFR	6	3	n/a	TUSK	1523	0	n/a	n/a	n/a	n/a	n/a	n/a	n/a
3084591	RECOG_CONF	n/a	LTP114	ltpFR	6	3	n/a	TUSK	1523	n/a	4	n/a	n/a	n/a	n/a	n/a	n/a
3086073	RECOG_LURE	n/a	LTP114	ltpFR	6	3	n/a	STAPLER	1372	1	3	n/a	n/a	n/a	n/a	n/a	n/a
3086766	RECOG_RESP	n/a	LTP114	ltpFR	6	3	n/a	STAPLER	1372	1	n/a	n/a	n/a	n/a	n/a	n/a	n/a
3087495	RECOG_CONF	n/a	LTP114	ltpFR	6	3	n/a	STAPLER	1372	n/a	3	n/a	n/a	n/a	n/a	n/a	n/a
3088970	RECOG_TARGET	n/a	LTP114	ltpFR	6	3	-1	TUB	1514	1	2	-1	n/a	n/a	n/a	n/a	n/a
3089675	RECOG_RESP	n/a	LTP114	ltpFR	6	3	-1	TUB	1514	1	n/a	-1	n/a	n/a	n/a	n/a	n/a
3090378	RECOG_CONF	n/a	LTP114	ltpFR	6	3	-1	TUB	1514	n/a	2	-1	n/a	n/a	n/a	n/a	n/a
3091758	RECOG_LURE	n/a	LTP114	ltpFR	6	3	n/a	TOWER	1490	1	1	n/a	n/a	n/a	n/a	n/a	n/a
3092344	RECOG_RESP	n/a	LTP114	ltpFR	6	3	n/a	TOWER	1490	1	n/a	n/a	n/a	n/a	n/a	n/a	n/a
3093112	RECOG_CONF	n/a	LTP114	ltpFR	6	3	n/a	TOWER	1490	n/a	1	n/a	n/a	n/a	n/a	n/a	n/a
3094521	RECOG_TARGET	n/a	LTP114	ltpFR	6	3	1	PANTHER	1009	1	3	1	n/a	n/a	n/a	n/a	n/a
3095107	RECOG_RESP	n/a	LTP114	ltpFR	6	3	1	PANTHER	1009	1	n/a	1	n/a	n/a	n/a	n/a	n/a
3095946	RECOG_CONF	n/a	LTP114	ltpFR	6	3	1	PANTHER	1009	n/a	3	1	n/a	n/a	n/a	n/a	n/a
3097360	RECOG_TARGET	n/a	LTP114	ltpFR	6	3	1	THORN	1459	1	5	1	n/a	n/a	n/a	n/a	n/a
3097961	RECOG_RESP	n/a	LTP114	ltpFR	6	3	1	THORN	1459	1	n/a	1	n/a	n/a	n/a	n/a	n/a
3098600	RECOG_CONF	n/a	LTP114	ltpFR	6	3	1	THORN	1459	n/a	5	1	n/a	n/a	n/a	n/a	n/a
3100148	RECOG_TARGET	n/a	LTP114	ltpFR	6	3	0	TART	1436	1	5	0	n/a	n/a	n/a	n/a	n/a
3100725	RECOG_RESP	n/a	LTP114	ltpFR	6	3	0	TART	1436	1	n/a	0	n/a	n/a	n/a	n/a	n/a
3101303	RECOG_CONF	n/a	LTP114	ltpFR	6	3	0	TART	1436	n/a	5	0	n/a	n/a	n/a	n/a	n/a
3102753	RECOG_TARGET	n/a	LTP114	ltpFR	6	3	0	BATTERY	101	1	5	0	n/a	n/a	n/a	n/a	n/a
3103299	RECOG_RESP	n/a	LTP114	ltpFR	6	3	0	BATTERY	101	1	n/a	0	n/a	n/a	n/a	n/a	n/a
3103917	RECOG_CONF	n/a	LTP114	ltpFR	6	3	0	BATTERY	101	n/a	5	0	n/a	n/a	n/a	n/a	n/a
3105367	RECOG_TARGET	n/a	LTP114	ltpFR	6	3	0	ROBE	1198	0	5	1	n/a	n/a	n/a	n/a	n/a
3106182	RECOG_RESP	n/a	LTP114	ltpFR	6	3	0	ROBE	1198	0	n/a	1	n/a	n/a	n/a	n/a	n/a
3106811	RECOG_CONF	n/a	LTP114	ltpFR	6	3	0	ROBE	1198	n/a	5	1	n/a	n/a	n/a	n/a	n/a
3108223	RECOG_LURE	n/a	LTP114	ltpFR	6	3	n/a	WAX	1597	0	2	n/a	n/a	n/a	n/a	n/a	n/a
3109225	RECOG_RESP	n/a	LTP114	ltpFR	6	3	n/a	WAX	1597	0	n/a	n/a	n/a	n/a	n/a	n/a	n/a
3110034	RECOG_CONF	n/a	LTP114	ltpFR	6	3	n/a	WAX	1597	n/a	2	n/a	n/a	n/a	n/a	n/a	n/a
3111493	RECOG_LURE	n/a	LTP114	ltpFR	6	3	n/a	RAISIN	1163	1	1	n/a	n/a	n/a	n/a	n/a	n/a
3112258	RECOG_RESP	n/a	LTP114	ltpFR	6	3	n/a	RAISIN	1163	1	n/a	n/a	n/a	n/a	n/a	n/a	n/a
3113595	RECOG_CONF	n/a	LTP114	ltpFR	6	3	n/a	RAISIN	1163	n/a	1	n/a	n/a	n/a	n/a	n/a	n/a
3115497	RECOG_TARGET	n/a	LTP114	ltpFR	6	3	0	BUSH	202	1	5	1	n/a	n/a	n/a	n/a	n/a
3116569	RECOG_RESP	n/a	LTP114	ltpFR	6	3	0	BUSH	202	1	n/a	1	n/a	n/a	n/a	n/a	n/a
3117197	RECOG_CONF	n/a	LTP114	ltpFR	6	3	0	BUSH	202	n/a	5	1	n/a	n/a	n/a	n/a	n/a
3118652	RECOG_LURE	n/a	LTP114	ltpFR	6	3	n/a	PROFESSIONAL	1130	0	5	n/a	n/a	n/a	n/a	n/a	n/a
3119532	RECOG_RESP	n/a	LTP114	ltpFR	6	3	n/a	PROFESSIONAL	1130	0	n/a	n/a	n/a	n/a	n/a	n/a	n/a
3120240	RECOG_CONF	n/a	LTP114	ltpFR	6	3	n/a	PROFESSIONAL	1130	n/a	5	n/a	n/a	n/a	n/a	n/a	n/a
3121657	RECOG_TARGET	n/a	LTP114	ltpFR	6	3	-1	HATCHET	691	1	5	-1	n/a	n/a	n/a	n/a	n/a
3122236	RECOG_RESP	n/a	LTP114	ltpFR	6	3	-1	HATCHET	691	1	n/a	-1	n/a	n/a	n/a	n/a	n/a
3122944	RECOG_CONF	n/a	LTP114	ltpFR	6	3	-1	HATCHET	691	n/a	5	-1	n/a	n/a	n/a	n/a	n/a
3124387	RECOG_TARGET	n/a	LTP114	ltpFR	6	3	0	ALMOND	18	1	5	0	n/a	n/a	n/a	n/a	n/a
3124970	RECOG_RESP	n/a	LTP114	ltpFR	6	3	0	ALMOND	18	1	n/a	0	n/a	n/a	n/a	n/a	n/a
3125658	RECOG_CONF	n/a	LTP114	ltpFR	6	3	0	ALMOND	18	n/a	5	0	n/a	n/a	n/a	n/a	n/a
3127168	RECOG_LURE	n/a	LTP114	ltpFR	6	3	n/a	BAIT	70	0	3	n/a	n/a	n/a	n/a	n/a	n/a
3127993	RECOG_RESP	n/a	LTP114	ltpFR	6	3	n/a	BAIT	70	0	n/a	n/a	n/a	n/a	n/a	n/a	n/a
3129060	RECOG_CONF	n/a	LTP114	ltpFR	6	3	n/a	BAIT	70	n/a	3	n/a	n/a	n/a	n/a	n/a	n/a
3130954	RECOG_TARGET	n/a	LTP114	ltpFR	6	3	0	TREE	1502	1	3	1	n/a	n/a	n/a	n/a	n/a
3132034	RECOG_RESP	n/a	LTP114	ltpFR	6	3	0	TREE	1502	1	n/a	1	n/a	n/a	n/a	n/a	n/a
3132961	RECOG_CONF	n/a	LTP114	ltpFR	6	3	0	TREE	1502	n/a	3	1	n/a	n/a	n/a	n/a	n/a
3134583	RECOG_TARGET	n/a	LTP114	ltpFR	6	3	1	HEART	697	0	4	1	n/a	n/a	n/a	n/a	n/a
3136164	RECOG_RESP	n/a	LTP114	ltpFR	6	3	1	HEART	697	0	n/a	1	n/a	n/a	n/a	n/a	n/a
3137092	RECOG_CONF	n/a	LTP114	ltpFR	6	3	1	HEART	697	n/a	4	1	n/a	n/a	n/a	n/a	n/a
3153119	REC_START	n/a	LTP114	ltpFR	6	4	n/a	n/a	n/a	n/a	n/a	n/a	n/a	n/a	n/a	n/a	n/a
3153145	RECOG_TARGET	n/a	LTP114	ltpFR	6	4	0	BEAN	105	1	5	0	n/a	n/a	n/a	n/a	n/a
3153902	RECOG_RESP	n/a	LTP114	ltpFR	6	4	0	BEAN	105	1	n/a	0	n/a	n/a	n/a	n/a	n/a
3154600	RECOG_CONF	n/a	LTP114	ltpFR	6	4	0	BEAN	105	n/a	5	0	n/a	n/a	n/a	n/a	n/a
3156108	RECOG_LURE	n/a	LTP114	ltpFR	6	4	n/a	COUGAR	387	1	5	n/a	n/a	n/a	n/a	n/a	n/a
3156696	RECOG_RESP	n/a	LTP114	ltpFR	6	4	n/a	COUGAR	387	1	n/a	n/a	n/a	n/a	n/a	n/a	n/a
3157384	RECOG_CONF	n/a	LTP114	ltpFR	6	4	n/a	COUGAR	387	n/a	5	n/a	n/a	n/a	n/a	n/a	n/a
3158830	RECOG_TARGET	n/a	LTP114	ltpFR	6	4	0	GOBLIN	645	1	5	1	n/a	n/a	n/a	n/a	n/a
3159370	RECOG_RESP	n/a	LTP114	ltpFR	6	4	0	GOBLIN	645	1	n/a	1	n/a	n/a	n/a	n/a	n/a
3160068	RECOG_CONF	n/a	LTP114	ltpFR	6	4	0	GOBLIN	645	n/a	5	1	n/a	n/a	n/a	n/a	n/a
3161544	RECOG_TARGET	n/a	LTP114	ltpFR	6	4	0	ACORN	3	1	5	0	n/a	n/a	n/a	n/a	n/a
3162063	RECOG_RESP	n/a	LTP114	ltpFR	6	4	0	ACORN	3	1	n/a	0	n/a	n/a	n/a	n/a	n/a
3162712	RECOG_CONF	n/a	LTP114	ltpFR	6	4	0	ACORN	3	n/a	5	0	n/a	n/a	n/a	n/a	n/a
3164216	RECOG_TARGET	n/a	LTP114	ltpFR	6	4	1	TURKEY	1520	1	5	1	n/a	n/a	n/a	n/a	n/a
3164827	RECOG_RESP	n/a	LTP114	ltpFR	6	4	1	TURKEY	1520	1	n/a	1	n/a	n/a	n/a	n/a	n/a
3165486	RECOG_CONF	n/a	LTP114	ltpFR	6	4	1	TURKEY	1520	n/a	5	1	n/a	n/a	n/a	n/a	n/a
3166971	RECOG_TARGET	n/a	LTP114	ltpFR	6	4	0	BRANDY	169	1	5	0	n/a	n/a	n/a	n/a	n/a
3167501	RECOG_RESP	n/a	LTP114	ltpFR	6	4	0	BRANDY	169	1	n/a	0	n/a	n/a	n/a	n/a	n/a
3168219	RECOG_CONF	n/a	LTP114	ltpFR	6	4	0	BRANDY	169	n/a	5	0	n/a	n/a	n/a	n/a	n/a
3169651	RECOG_TARGET	n/a	LTP114	ltpFR	6	4	1	DESK	452	1	3	0	n/a	n/a	n/a	n/a	n/a
3171322	RECOG_RESP	n/a	LTP114	ltpFR	6	4	1	DESK	452	1	n/a	0	n/a	n/a	n/a	n/a	n/a
3172101	RECOG_CONF	n/a	LTP114	ltpFR	6	4	1	DESK	452	n/a	3	0	n/a	n/a	n/a	n/a	n/a
3173530	RECOG_TARGET	n/a	LTP114	ltpFR	6	4	1	MATCH	878	1	3	0	n/a	n/a	n/a	n/a	n/a
3174366	RECOG_RESP	n/a	LTP114	ltpFR	6	4	1	MATCH	878	1	n/a	0	n/a	n/a	n/a	n/a	n/a
3175084	RECOG_CONF	n/a	LTP114	ltpFR	6	4	1	MATCH	878	n/a	3	0	n/a	n/a	n/a	n/a	n/a
3176576	RECOG_TARGET	n/a	LTP114	ltpFR	6	4	-1	COMEDIAN	352	1	5	-1	n/a	n/a	n/a	n/a	n/a
3177169	RECOG_RESP	n/a	LTP114	ltpFR	6	4	-1	COMEDIAN	352	1	n/a	-1	n/a	n/a	n/a	n/a	n/a
3177828	RECOG_CONF	n/a	LTP114	ltpFR	6	4	-1	COMEDIAN	352	n/a	5	-1	n/a	n/a	n/a	n/a	n/a
3179340	RECOG_TARGET	n/a	LTP114	ltpFR	6	4	1	STAFF	1365	1	5	1	n/a	n/a	n/a	n/a	n/a
3180551	RECOG_RESP	n/a	LTP114	ltpFR	6	4	1	STAFF	1365	1	n/a	1	n/a	n/a	n/a	n/a	n/a
3181120	RECOG_CONF	n/a	LTP114	ltpFR	6	4	1	STAFF	1365	n/a	5	1	n/a	n/a	n/a	n/a	n/a
3182611	RECOG_LURE	n/a	LTP114	ltpFR	6	4	n/a	TAR	1435	0	3	n/a	n/a	n/a	n/a	n/a	n/a
3183435	RECOG_RESP	n/a	LTP114	ltpFR	6	4	n/a	TAR	1435	0	n/a	n/a	n/a	n/a	n/a	n/a	n/a
3184133	RECOG_CONF	n/a	LTP114	ltpFR	6	4	n/a	TAR	1435	n/a	3	n/a	n/a	n/a	n/a	n/a	n/a
3185507	RECOG_TARGET	n/a	LTP114	ltpFR	6	4	1	PERMIT	1051	1	5	0	n/a	n/a	n/a	n/a	n/a
3186318	RECOG_RESP	n/a	LTP114	ltpFR	6	4	1	PERMIT	1051	1	n/a	0	n/a	n/a	n/a	n/a	n/a
3186937	RECOG_CONF	n/a	LTP114	ltpFR	6	4	1	PERMIT	1051	n/a	5	0	n/a	n/a	n/a	n/a	n/a
3188362	RECOG_LURE	n/a	LTP114	ltpFR	6	4	n/a	DRIVER	499	1	2	n/a	n/a	n/a	n/a	n/a	n/a
3189242	RECOG_RESP	n/a	LTP114	ltpFR	6	4	n/a	DRIVER	499	1	n/a	n/a	n/a	n/a	n/a	n/a	n/a
3190319	RECOG_CONF	n/a	LTP114	ltpFR	6	4	n/a	DRIVER	499	n/a	2	n/a	n/a	n/a	n/a	n/a	n/a
3191858	RECOG_TARGET	n/a	LTP114	ltpFR	6	4	-1	CANOE	233	1	5	-1	n/a	n/a	n/a	n/a	n/a
3192484	RECOG_RESP	n/a	LTP114	ltpFR	6	4	-1	CANOE	233	1	n/a	-1	n/a	n/a	n/a	n/a	n/a
3193113	RECOG_CONF	n/a	LTP114	ltpFR	6	4	-1	CANOE	233	n/a	5	-1	n/a	n/a	n/a	n/a	n/a
3194589	RECOG_TARGET	n/a	LTP114	ltpFR	6	4	0	BULLY	196	1	5	0	n/a	n/a	n/a	n/a	n/a
3195188	RECOG_RESP	n/a	LTP114	ltpFR	6	4	0	BULLY	196	1	n/a	0	n/a	n/a	n/a	n/a	n/a
3195877	RECOG_CONF	n/a	LTP114	ltpFR	6	4	0	BULLY	196	n/a	5	0	n/a	n/a	n/a	n/a	n/a
3197452	RECOG_TARGET	n/a	LTP114	ltpFR	6	4	-1	LENS	811	1	5	-1	n/a	n/a	n/a	n/a	n/a
3198012	RECOG_RESP	n/a	LTP114	ltpFR	6	4	-1	LENS	811	1	n/a	-1	n/a	n/a	n/a	n/a	n/a
3198650	RECOG_CONF	n/a	LTP114	ltpFR	6	4	-1	LENS	811	n/a	5	-1	n/a	n/a	n/a	n/a	n/a
3200149	RECOG_TARGET	n/a	LTP114	ltpFR	6	4	1	UNIFORM	1539	1	3	0	n/a	n/a	n/a	n/a	n/a
3201364	RECOG_RESP	n/a	LTP114	ltpFR	6	4	1	UNIFORM	1539	1	n/a	0	n/a	n/a	n/a	n/a	n/a
3202202	RECOG_CONF	n/a	LTP114	ltpFR	6	4	1	UNIFORM	1539	n/a	3	0	n/a	n/a	n/a	n/a	n/a
3203686	RECOG_TARGET	n/a	LTP114	ltpFR	6	4	-1	COMB	351	1	5	-1	n/a	n/a	n/a	n/a	n/a
3204377	RECOG_RESP	n/a	LTP114	ltpFR	6	4	-1	COMB	351	1	n/a	-1	n/a	n/a	n/a	n/a	n/a
3204976	RECOG_CONF	n/a	LTP114	ltpFR	6	4	-1	COMB	351	n/a	5	-1	n/a	n/a	n/a	n/a	n/a
3206608	RECOG_LURE	n/a	LTP114	ltpFR	6	4	n/a	SAP	1233	0	4	n/a	n/a	n/a	n/a	n/a	n/a
3207371	RECOG_RESP	n/a	LTP114	ltpFR	6	4	n/a	SAP	1233	0	n/a	n/a	n/a	n/a	n/a	n/a	n/a
3208059	RECOG_CONF	n/a	LTP114	ltpFR	6	4	n/a	SAP	1233	n/a	4	n/a	n/a	n/a	n/a	n/a	n/a
3209413	RECOG_LURE	n/a	LTP114	ltpFR	6	4	n/a	DILL	465	0	2	n/a	n/a	n/a	n/a	n/a	n/a
3211421	RECOG_RESP	n/a	LTP114	ltpFR	6	4	n/a	DILL	465	0	n/a	n/a	n/a	n/a	n/a	n/a	n/a
3212319	RECOG_CONF	n/a	LTP114	ltpFR	6	4	n/a	DILL	465	n/a	2	n/a	n/a	n/a	n/a	n/a	n/a
3226443	REC_START	n/a	LTP114	ltpFR	6	5	n/a	n/a	n/a	n/a	n/a	n/a	n/a	n/a	n/a	n/a	n/a
3226468	RECOG_LURE	n/a	LTP114	ltpFR	6	5	n/a	PAN	1008	1	1	n/a	n/a	n/a	n/a	n/a	n/a
3228054	RECOG_RESP	n/a	LTP114	ltpFR	6	5	n/a	PAN	1008	1	n/a	n/a	n/a	n/a	n/a	n/a	n/a
3228862	RECOG_CONF	n/a	LTP114	ltpFR	6	5	n/a	PAN	1008	n/a	1	n/a	n/a	n/a	n/a	n/a	n/a
3230339	RECOG_TARGET	n/a	LTP114	ltpFR	6	5	0	RODENT	1204	1	5	0	n/a	n/a	n/a	n/a	n/a
3231047	RECOG_RESP	n/a	LTP114	ltpFR	6	5	0	RODENT	1204	1	n/a	0	n/a	n/a	n/a	n/a	n/a
3231636	RECOG_CONF	n/a	LTP114	ltpFR	6	5	0	RODENT	1204	n/a	5	0	n/a	n/a	n/a	n/a	n/a
3233203	RECOG_TARGET	n/a	LTP114	ltpFR	6	5	0	COUNTRY	388	1	5	1	n/a	n/a	n/a	n/a	n/a
3233891	RECOG_RESP	n/a	LTP114	ltpFR	6	5	0	COUNTRY	388	1	n/a	1	n/a	n/a	n/a	n/a	n/a
3234490	RECOG_CONF	n/a	LTP114	ltpFR	6	5	0	COUNTRY	388	n/a	5	1	n/a	n/a	n/a	n/a	n/a
3236040	RECOG_TARGET	n/a	LTP114	ltpFR	6	5	0	NUN	962	1	5	1	n/a	n/a	n/a	n/a	n/a
3236675	RECOG_RESP	n/a	LTP114	ltpFR	6	5	0	NUN	962	1	n/a	1	n/a	n/a	n/a	n/a	n/a
3237203	RECOG_CONF	n/a	LTP114	ltpFR	6	5	0	NUN	962	n/a	5	1	n/a	n/a	n/a	n/a	n/a
3238820	RECOG_TARGET	n/a	LTP114	ltpFR	6	5	0	GRAPE	654	1	5	0	n/a	n/a	n/a	n/a	n/a
3239339	RECOG_RESP	n/a	LTP114	ltpFR	6	5	0	GRAPE	654	1	n/a	0	n/a	n/a	n/a	n/a	n/a
3239997	RECOG_CONF	n/a	LTP114	ltpFR	6	5	0	GRAPE	654	n/a	5	0	n/a	n/a	n/a	n/a	n/a
3241409	RECOG_TARGET	n/a	LTP114	ltpFR	6	5	0	COYOTE	396	1	5	1	n/a	n/a	n/a	n/a	n/a
3241873	RECOG_RESP	n/a	LTP114	ltpFR	6	5	0	COYOTE	396	1	n/a	1	n/a	n/a	n/a	n/a	n/a
3242392	RECOG_CONF	n/a	LTP114	ltpFR	6	5	0	COYOTE	396	n/a	5	1	n/a	n/a	n/a	n/a	n/a
3243898	RECOG_TARGET	n/a	LTP114	ltpFR	6	5	1	BLOSSOM	138	1	5	1	n/a	n/a	n/a	n/a	n/a
3244477	RECOG_RESP	n/a	LTP114	ltpFR	6	5	1	BLOSSOM	138	1	n/a	1	n/a	n/a	n/a	n/a	n/a
3245135	RECOG_CONF	n/a	LTP114	ltpFR	6	5	1	BLOSSOM	138	n/a	5	1	n/a	n/a	n/a	n/a	n/a
3246578	RECOG_TARGET	n/a	LTP114	ltpFR	6	5	0	YARD	1630	1	5	1	n/a	n/a	n/a	n/a	n/a
3248288	RECOG_RESP	n/a	LTP114	ltpFR	6	5	0	YARD	1630	1	n/a	1	n/a	n/a	n/a	n/a	n/a
3249066	RECOG_CONF	n/a	LTP114	ltpFR	6	5	0	YARD	1630	n/a	5	1	n/a	n/a	n/a	n/a	n/a
3250682	RECOG_LURE	n/a	LTP114	ltpFR	6	5	n/a	KNIFE	785	0	4	n/a	n/a	n/a	n/a	n/a	n/a
3251960	RECOG_RESP	n/a	LTP114	ltpFR	6	5	n/a	KNIFE	785	0	n/a	n/a	n/a	n/a	n/a	n/a	n/a
3252618	RECOG_CONF	n/a	LTP114	ltpFR	6	5	n/a	KNIFE	785	n/a	4	n/a	n/a	n/a	n/a	n/a	n/a
3254020	RECOG_TARGET	n/a	LTP114	ltpFR	6	5	0	SCREW	1254	1	5	0	n/a	n/a	n/a	n/a	n/a
3254554	RECOG_RESP	n/a	LTP114	ltpFR	6	5	0	SCREW	1254	1	n/a	0	n/a	n/a	n/a	n/a	n/a
3255173	RECOG_CONF	n/a	LTP114	ltpFR	6	5	0	SCREW	1254	n/a	5	0	n/a	n/a	n/a	n/a	n/a
3256633	RECOG_TARGET	n/a	LTP114	ltpFR	6	5	-1	DANDELION	438	1	5	-1	n/a	n/a	n/a	n/a	n/a
3257238	RECOG_RESP	n/a	LTP114	ltpFR	6	5	-1	DANDELION	438	1	n/a	-1	n/a	n/a	n/a	n/a	n/a
3257866	RECOG_CONF	n/a	LTP114	ltpFR	6	5	-1	DANDELION	438	n/a	5	-1	n/a	n/a	n/a	n/a	n/a
3259338	RECOG_TARGET	n/a	LTP114	ltpFR	6	5	1	SUGAR	1401	1	5	0	n/a	n/a	n/a	n/a	n/a
3259952	RECOG_RESP	n/a	LTP114	ltpFR	6	5	1	SUGAR	1401	1	n/a	0	n/a	n/a	n/a	n/a	n/a
3260490	RECOG_CONF	n/a	LTP114	ltpFR	6	5	1	SUGAR	1401	n/a	5	0	n/a	n/a	n/a	n/a	n/a
3262052	RECOG_TARGET	n/a	LTP114	ltpFR	6	5	0	STREAM	1392	1	5	1	n/a	n/a	n/a	n/a	n/a
3262586	RECOG_RESP	n/a	LTP114	ltpFR	6	5	0	STREAM	1392	1	n/a	1	n/a	n/a	n/a	n/a	n/a
3263204	RECOG_CONF	n/a	LTP114	ltpFR	6	5	0	STREAM	1392	n/a	5	1	n/a	n/a	n/a	n/a	n/a
3264657	RECOG_TARGET	n/a	LTP114	ltpFR	6	5	0	DIRECTOR	471	1	5	1	n/a	n/a	n/a	n/a	n/a
3265300	RECOG_RESP	n/a	LTP114	ltpFR	6	5	0	DIRECTOR	471	1	n/a	1	n/a	n/a	n/a	n/a	n/a
3265918	RECOG_CONF	n/a	LTP114	ltpFR	6	5	0	DIRECTOR	471	n/a	5	1	n/a	n/a	n/a	n/a	n/a
3267412	RECOG_LURE	n/a	LTP114	ltpFR	6	5	n/a	REGISTER	1180	1	5	n/a	n/a	n/a	n/a	n/a	n/a
3267943	RECOG_RESP	n/a	LTP114	ltpFR	6	5	n/a	REGISTER	1180	1	n/a	n/a	n/a	n/a	n/a	n/a	n/a
3268522	RECOG_CONF	n/a	LTP114	ltpFR	6	5	n/a	REGISTER	1180	n/a	5	n/a	n/a	n/a	n/a	n/a	n/a
3270084	RECOG_TARGET	n/a	LTP114	ltpFR	6	5	1	LIME	823	1	5	1	n/a	n/a	n/a	n/a	n/a
3270737	RECOG_RESP	n/a	LTP114	ltpFR	6	5	1	LIME	823	1	n/a	1	n/a	n/a	n/a	n/a	n/a
3271346	RECOG_CONF	n/a	LTP114	ltpFR	6	5	1	LIME	823	n/a	5	1	n/a	n/a	n/a	n/a	n/a
3272864	RECOG_TARGET	n/a	LTP114	ltpFR	6	5	-1	CAPTAIN	239	1	3	-1	n/a	n/a	n/a	n/a	n/a
3273441	RECOG_RESP	n/a	LTP114	ltpFR	6	5	-1	CAPTAIN	239	1	n/a	-1	n/a	n/a	n/a	n/a	n/a
3274269	RECOG_CONF	n/a	LTP114	ltpFR	6	5	-1	CAPTAIN	239	n/a	3	-1	n/a	n/a	n/a	n/a	n/a
3275728	RECOG_TARGET	n/a	LTP114	ltpFR	6	5	-1	SALIVA	1226	1	4	-1	n/a	n/a	n/a	n/a	n/a
3276304	RECOG_RESP	n/a	LTP114	ltpFR	6	5	-1	SALIVA	1226	1	n/a	-1	n/a	n/a	n/a	n/a	n/a
3277043	RECOG_CONF	n/a	LTP114	ltpFR	6	5	-1	SALIVA	1226	n/a	4	-1	n/a	n/a	n/a	n/a	n/a
3278425	RECOG_LURE	n/a	LTP114	ltpFR	6	5	n/a	TOENAIL	1474	0	5	n/a	n/a	n/a	n/a	n/a	n/a
3279607	RECOG_RESP	n/a	LTP114	ltpFR	6	5	n/a	TOENAIL	1474	0	n/a	n/a	n/a	n/a	n/a	n/a	n/a
3280226	RECOG_CONF	n/a	LTP114	ltpFR	6	5	n/a	TOENAIL	1474	n/a	5	n/a	n/a	n/a	n/a	n/a	n/a
3281621	RECOG_TARGET	n/a	LTP114	ltpFR	6	5	0	MARSH	874	1	5	1	n/a	n/a	n/a	n/a	n/a
3282271	RECOG_RESP	n/a	LTP114	ltpFR	6	5	0	MARSH	874	1	n/a	1	n/a	n/a	n/a	n/a	n/a
3282870	RECOG_CONF	n/a	LTP114	ltpFR	6	5	0	MARSH	874	n/a	5	1	n/a	n/a	n/a	n/a	n/a
3286472	REC_START	n/a	LTP114	ltpFR	6	6	n/a	n/a	n/a	n/a	n/a	n/a	n/a	n/a	n/a	n/a	n/a
3286498	RECOG_TARGET	n/a	LTP114	ltpFR	6	6	0	GROCERIES	663	1	5	1	n/a	n/a	n/a	n/a	n/a
3287305	RECOG_RESP	n/a	LTP114	ltpFR	6	6	0	GROCERIES	663	1	n/a	1	n/a	n/a	n/a	n/a	n/a
3287904	RECOG_CONF	n/a	LTP114	ltpFR	6	6	0	GROCERIES	663	n/a	5	1	n/a	n/a	n/a	n/a	n/a
3289378	RECOG_LURE	n/a	LTP114	ltpFR	6	6	n/a	BRUSH	182	1	5	n/a	n/a	n/a	n/a	n/a	n/a
3289999	RECOG_RESP	n/a	LTP114	ltpFR	6	6	n/a	BRUSH	182	1	n/a	n/a	n/a	n/a	n/a	n/a	n/a
3290657	RECOG_CONF	n/a	LTP114	ltpFR	6	6	n/a	BRUSH	182	n/a	5	n/a	n/a	n/a	n/a	n/a	n/a
3292159	RECOG_LURE	n/a	LTP114	ltpFR	6	6	n/a	AUDIENCE	59	0	3	n/a	n/a	n/a	n/a	n/a	n/a
3293062	RECOG_RESP	n/a	LTP114	ltpFR	6	6	n/a	AUDIENCE	59	0	n/a	n/a	n/a	n/a	n/a	n/a	n/a
3293800	RECOG_CONF	n/a	LTP114	ltpFR	6	6	n/a	AUDIENCE	59	n/a	3	n/a	n/a	n/a	n/a	n/a	n/a
3295173	RECOG_TARGET	n/a	LTP114	ltpFR	6	6	1	CONTINENT	367	1	5	0	n/a	n/a	n/a	n/a	n/a
3295776	RECOG_RESP	n/a	LTP114	ltpFR	6	6	1	CONTINENT	367	1	n/a	0	n/a	n/a	n/a	n/a	n/a
3296324	RECOG_CONF	n/a	LTP114	ltpFR	6	6	1	CONTINENT	367	n/a	5	0	n/a	n/a	n/a	n/a	n/a
3297860	RECOG_LURE	n/a	LTP114	ltpFR	6	6	n/a	SHERIFF	1284	1	1	n/a	n/a	n/a	n/a	n/a	n/a
3298380	RECOG_RESP	n/a	LTP114	ltpFR	6	6	n/a	SHERIFF	1284	1	n/a	n/a	n/a	n/a	n/a	n/a	n/a
3299437	RECOG_CONF	n/a	LTP114	ltpFR	6	6	n/a	SHERIFF	1284	n/a	1	n/a	n/a	n/a	n/a	n/a	n/a
3300965	RECOG_TARGET	n/a	LTP114	ltpFR	6	6	0	LADDER	793	1	5	1	n/a	n/a	n/a	n/a	n/a
3302949	RECOG_RESP	n/a	LTP114	ltpFR	6	6	0	LADDER	793	1	n/a	1	n/a	n/a	n/a	n/a	n/a
3303608	RECOG_CONF	n/a	LTP114	ltpFR	6	6	0	LADDER	793	n/a	5	1	n/a	n/a	n/a	n/a	n/a
3305135	RECOG_TARGET	n/a	LTP114	ltpFR	6	6	-1	CATERPILLAR	259	1	5	-1	n/a	n/a	n/a	n/a	n/a
3305663	RECOG_RESP	n/a	LTP114	ltpFR	6	6	-1	CATERPILLAR	259	1	n/a	-1	n/a	n/a	n/a	n/a	n/a
3306272	RECOG_CONF	n/a	LTP114	ltpFR	6	6	-1	CATERPILLAR	259	n/a	5	-1	n/a	n/a	n/a	n/a	n/a
3307732	RECOG_TARGET	n/a	LTP114	ltpFR	6	6	0	BLACKBERRY	132	1	5	0	n/a	n/a	n/a	n/a	n/a
3308207	RECOG_RESP	n/a	LTP114	ltpFR	6	6	0	BLACKBERRY	132	1	n/a	0	n/a	n/a	n/a	n/a	n/a
3308776	RECOG_CONF	n/a	LTP114	ltpFR	6	6	0	BLACKBERRY	132	n/a	5	0	n/a	n/a	n/a	n/a	n/a
3310239	RECOG_TARGET	n/a	LTP114	ltpFR	6	6	1	BRUNETTE	181	1	5	1	n/a	n/a	n/a	n/a	n/a
3310782	RECOG_RESP	n/a	LTP114	ltpFR	6	6	1	BRUNETTE	181	1	n/a	1	n/a	n/a	n/a	n/a	n/a
3311380	RECOG_CONF	n/a	LTP114	ltpFR	6	6	1	BRUNETTE	181	n/a	5	1	n/a	n/a	n/a	n/a	n/a
3312860	RECOG_LURE	n/a	LTP114	ltpFR	6	6	n/a	DICTATOR	462	0	4	n/a	n/a	n/a	n/a	n/a	n/a
3313520	RECOG_RESP	n/a	LTP114	ltpFR	6	6	n/a	DICTATOR	462	0	n/a	n/a	n/a	n/a	n/a	n/a	n/a
3314393	RECOG_CONF	n/a	LTP114	ltpFR	6	6	n/a	DICTATOR	462	n/a	4	n/a	n/a	n/a	n/a	n/a	n/a
3315831	RECOG_LURE	n/a	LTP114	ltpFR	6	6	n/a	LUNG	850	0	3	n/a	n/a	n/a	n/a	n/a	n/a
3316898	RECOG_RESP	n/a	LTP114	ltpFR	6	6	n/a	LUNG	850	0	n/a	n/a	n/a	n/a	n/a	n/a	n/a
3317646	RECOG_CONF	n/a	LTP114	ltpFR	6	6	n/a	LUNG	850	n/a	3	n/a	n/a	n/a	n/a	n/a	n/a
3319061	RECOG_TARGET	n/a	LTP114	ltpFR	6	6	1	UMBRELLA	1534	1	5	0	n/a	n/a	n/a	n/a	n/a
3319731	RECOG_RESP	n/a	LTP114	ltpFR	6	6	1	UMBRELLA	1534	1	n/a	0	n/a	n/a	n/a	n/a	n/a
3320450	RECOG_CONF	n/a	LTP114	ltpFR	6	6	1	UMBRELLA	1534	n/a	5	0	n/a	n/a	n/a	n/a	n/a
3321891	RECOG_TARGET	n/a	LTP114	ltpFR	6	6	1	GLACIER	638	1	5	0	n/a	n/a	n/a	n/a	n/a
3322525	RECOG_RESP	n/a	LTP114	ltpFR	6	6	1	GLACIER	638	1	n/a	0	n/a	n/a	n/a	n/a	n/a
3323453	RECOG_CONF	n/a	LTP114	ltpFR	6	6	1	GLACIER	638	n/a	5	0	n/a	n/a	n/a	n/a	n/a
3324912	RECOG_TARGET	n/a	LTP114	ltpFR	6	6	0	CHAMPAGNE	278	0	3	0	n/a	n/a	n/a	n/a	n/a
3325967	RECOG_RESP	n/a	LTP114	ltpFR	6	6	0	CHAMPAGNE	278	0	n/a	0	n/a	n/a	n/a	n/a	n/a
3326855	RECOG_CONF	n/a	LTP114	ltpFR	6	6	0	CHAMPAGNE	278	n/a	3	0	n/a	n/a	n/a	n/a	n/a
3328284	RECOG_TARGET	n/a	LTP114	ltpFR	6	6	-1	BEAD	103	1	5	-1	n/a	n/a	n/a	n/a	n/a
3328920	RECOG_RESP	n/a	LTP114	ltpFR	6	6	-1	BEAD	103	1	n/a	-1	n/a	n/a	n/a	n/a	n/a
3329639	RECOG_CONF	n/a	LTP114	ltpFR	6	6	-1	BEAD	103	n/a	5	-1	n/a	n/a	n/a	n/a	n/a
3330972	RECOG_TARGET	n/a	LTP114	ltpFR	6	6	0	BLENDER	136	1	5	0	n/a	n/a	n/a	n/a	n/a
3331784	RECOG_RESP	n/a	LTP114	ltpFR	6	6	0	BLENDER	136	1	n/a	0	n/a	n/a	n/a	n/a	n/a
3332522	RECOG_CONF	n/a	LTP114	ltpFR	6	6	0	BLENDER	136	n/a	5	0	n/a	n/a	n/a	n/a	n/a
3333977	RECOG_LURE	n/a	LTP114	ltpFR	6	6	n/a	CABBAGE	210	0	5	n/a	n/a	n/a	n/a	n/a	n/a
3334947	RECOG_RESP	n/a	LTP114	ltpFR	6	6	n/a	CABBAGE	210	0	n/a	n/a	n/a	n/a	n/a	n/a	n/a
3335575	RECOG_CONF	n/a	LTP114	ltpFR	6	6	n/a	CABBAGE	210	n/a	5	n/a	n/a	n/a	n/a	n/a	n/a
3337023	RECOG_LURE	n/a	LTP114	ltpFR	6	6	n/a	DIARY	460	0	3	n/a	n/a	n/a	n/a	n/a	n/a
3338010	RECOG_RESP	n/a	LTP114	ltpFR	6	6	n/a	DIARY	460	0	n/a	n/a	n/a	n/a	n/a	n/a	n/a
3338638	RECOG_CONF	n/a	LTP114	ltpFR	6	6	n/a	DIARY	460	n/a	3	n/a	n/a	n/a	n/a	n/a	n/a
3340061	RECOG_TARGET	n/a	LTP114	ltpFR	6	6	0	CEILING	265	1	4	1	n/a	n/a	n/a	n/a	n/a
3340813	RECOG_RESP	n/a	LTP114	ltpFR	6	6	0	CEILING	265	1	n/a	1	n/a	n/a	n/a	n/a	n/a
3341542	RECOG_CONF	n/a	LTP114	ltpFR	6	6	0	CEILING	265	n/a	4	1	n/a	n/a	n/a	n/a	n/a
3343000	RECOG_TARGET	n/a	LTP114	ltpFR	6	6	1	WALLET	1583	1	5	0	n/a	n/a	n/a	n/a	n/a
3343896	RECOG_RESP	n/a	LTP114	ltpFR	6	6	1	WALLET	1583	1	n/a	0	n/a	n/a	n/a	n/a	n/a
3344495	RECOG_CONF	n/a	LTP114	ltpFR	6	6	1	WALLET	1583	n/a	5	0	n/a	n/a	n/a	n/a	n/a
3359621	REC_START	n/a	LTP114	ltpFR	6	7	n/a	n/a	n/a	n/a	n/a	n/a	n/a	n/a	n/a	n/a	n/a
3359647	RECOG_LURE	n/a	LTP114	ltpFR	6	7	n/a	COCKTAIL	338	1	4	n/a	n/a	n/a	n/a	n/a	n/a
3360294	RECOG_RESP	n/a	LTP114	ltpFR	6	7	n/a	COCKTAIL	338	1	n/a	n/a	n/a	n/a	n/a	n/a	n/a
3361472	RECOG_CONF	n/a	LTP114	ltpFR	6	7	n/a	COCKTAIL	338	n/a	4	n/a	n/a	n/a	n/a	n/a	n/a
3362976	RECOG_TARGET	n/a	LTP114	ltpFR	6	7	-1	BIOLOGIST	128	1	4	-1	n/a	n/a	n/a	n/a	n/a
3363996	RECOG_RESP	n/a	LTP114	ltpFR	6	7	-1	BIOLOGIST	128	1	n/a	-1	n/a	n/a	n/a	n/a	n/a
3364904	RECOG_CONF	n/a	LTP114	ltpFR	6	7	-1	BIOLOGIST	128	n/a	4	-1	n/a	n/a	n/a	n/a	n/a
3366439	RECOG_TARGET	n/a	LTP114	ltpFR	6	7	1	BELT	120	1	5	0	n/a	n/a	n/a	n/a	n/a
3367149	RECOG_RESP	n/a	LTP114	ltpFR	6	7	1	BELT	120	1	n/a	0	n/a	n/a	n/a	n/a	n/a
3367807	RECOG_CONF	n/a	LTP114	ltpFR	6	7	1	BELT	120	n/a	5	0	n/a	n/a	n/a	n/a	n/a
3369220	RECOG_TARGET	n/a	LTP114	ltpFR	6	7	-1	DAGGER	434	1	5	-1	n/a	n/a	n/a	n/a	n/a
3369873	RECOG_RESP	n/a	LTP114	ltpFR	6	7	-1	DAGGER	434	1	n/a	-1	n/a	n/a	n/a	n/a	n/a
3370541	RECOG_CONF	n/a	LTP114	ltpFR	6	7	-1	DAGGER	434	n/a	5	-1	n/a	n/a	n/a	n/a	n/a
3371999	RECOG_TARGET	n/a	LTP114	ltpFR	6	7	1	LUNCH	849	1	3	0	n/a	n/a	n/a	n/a	n/a
3374901	RECOG_RESP	n/a	LTP114	ltpFR	6	7	1	LUNCH	849	1	n/a	0	n/a	n/a	n/a	n/a	n/a
3375550	RECOG_CONF	n/a	LTP114	ltpFR	6	7	1	LUNCH	849	n/a	3	0	n/a	n/a	n/a	n/a	n/a
3377052	RECOG_TARGET	n/a	LTP114	ltpFR	6	7	1	UNIVERSE	1540	1	4	0	n/a	n/a	n/a	n/a	n/a
3377755	RECOG_RESP	n/a	LTP114	ltpFR	6	7	1	UNIVERSE	1540	1	n/a	0	n/a	n/a	n/a	n/a	n/a
3378513	RECOG_CONF	n/a	LTP114	ltpFR	6	7	1	UNIVERSE	1540	n/a	4	0	n/a	n/a	n/a	n/a	n/a
3379823	RECOG_LURE	n/a	LTP114	ltpFR	6	7	n/a	TAG	1429	0	2	n/a	n/a	n/a	n/a	n/a	n/a
3380498	RECOG_RESP	n/a	LTP114	ltpFR	6	7	n/a	TAG	1429	0	n/a	n/a	n/a	n/a	n/a	n/a	n/a
3381317	RECOG_CONF	n/a	LTP114	ltpFR	6	7	n/a	TAG	1429	n/a	2	n/a	n/a	n/a	n/a	n/a	n/a
3382770	RECOG_TARGET	n/a	LTP114	ltpFR	6	7	-1	PAPER	1011	1	4	-1	n/a	n/a	n/a	n/a	n/a
3383412	RECOG_RESP	n/a	LTP114	ltpFR	6	7	-1	PAPER	1011	1	n/a	-1	n/a	n/a	n/a	n/a	n/a
3384070	RECOG_CONF	n/a	LTP114	ltpFR	6	7	-1	PAPER	1011	n/a	4	-1	n/a	n/a	n/a	n/a	n/a
3385500	RECOG_TARGET	n/a	LTP114	ltpFR	6	7	0	FIG	563	1	5	0	n/a	n/a	n/a	n/a	n/a
3386106	RECOG_RESP	n/a	LTP114	ltpFR	6	7	0	FIG	563	1	n/a	0	n/a	n/a	n/a	n/a	n/a
3386834	RECOG_CONF	n/a	LTP114	ltpFR	6	7	0	FIG	563	n/a	5	0	n/a	n/a	n/a	n/a	n/a
3388355	RECOG_TARGET	n/a	LTP114	ltpFR	6	7	1	COPIER	377	1	5	0	n/a	n/a	n/a	n/a	n/a
3389089	RECOG_RESP	n/a	LTP114	ltpFR	6	7	1	COPIER	377	1	n/a	0	n/a	n/a	n/a	n/a	n/a
3389837	RECOG_CONF	n/a	LTP114	ltpFR	6	7	1	COPIER	377	n/a	5	0	n/a	n/a	n/a	n/a	n/a
3391195	RECOG_TARGET	n/a	LTP114	ltpFR	6	7	0	STEAM	1375	1	5	0	n/a	n/a	n/a	n/a	n/a
3391703	RECOG_RESP	n/a	LTP114	ltpFR	6	7	0	STEAM	1375	1	n/a	0	n/a	n/a	n/a	n/a	n/a
3392401	RECOG_CONF	n/a	LTP114	ltpFR	6	7	0	STEAM	1375	n/a	5	0	n/a	n/a	n/a	n/a	n/a
3393799	RECOG_TARGET	n/a	LTP114	ltpFR	6	7	-1	CARPENTER	246	1	5	-1	n/a	n/a	n/a	n/a	n/a
3395644	RECOG_RESP	n/a	LTP114	ltpFR	6	7	-1	CARPENTER	246	1	n/a	-1	n/a	n/a	n/a	n/a	n/a
3396223	RECOG_CONF	n/a	LTP114	ltpFR	6	7	-1	CARPENTER	246	n/a	5	-1	n/a	n/a	n/a	n/a	n/a
3397836	RECOG_TARGET	n/a	LTP114	ltpFR	6	7	-1	CLAY	320	1	5	-1	n/a	n/a	n/a	n/a	n/a
3398487	RECOG_RESP	n/a	LTP114	ltpFR	6	7	-1	CLAY	320	1	n/a	-1	n/a	n/a	n/a	n/a	n/a
3399206	RECOG_CONF	n/a	LTP114	ltpFR	6	7	-1	CLAY	320	n/a	5	-1	n/a	n/a	n/a	n/a	n/a
3400633	RECOG_LURE	n/a	LTP114	ltpFR	6	7	n/a	MINER	896	1	5	n/a	n/a	n/a	n/a	n/a	n/a
3403815	RECOG_RESP	n/a	LTP114	ltpFR	6	7	n/a	MINER	896	1	n/a	n/a	n/a	n/a	n/a	n/a	n/a
3404494	RECOG_CONF	n/a	LTP114	ltpFR	6	7	n/a	MINER	896	n/a	5	n/a	n/a	n/a	n/a	n/a	n/a
3405985	RECOG_TARGET	n/a	LTP114	ltpFR	6	7	0	HERO	706	1	5	1	n/a	n/a	n/a	n/a	n/a
3406649	RECOG_RESP	n/a	LTP114	ltpFR	6	7	0	HERO	706	1	n/a	1	n/a	n/a	n/a	n/a	n/a
3407367	RECOG_CONF	n/a	LTP114	ltpFR	6	7	0	HERO	706	n/a	5	1	n/a	n/a	n/a	n/a	n/a
3408773	RECOG_TARGET	n/a	LTP114	ltpFR	6	7	0	GRASSHOPPER	656	1	5	0	n/a	n/a	n/a	n/a	n/a
3409383	RECOG_RESP	n/a	LTP114	ltpFR	6	7	0	GRASSHOPPER	656	1	n/a	0	n/a	n/a	n/a	n/a	n/a
3410061	RECOG_CONF	n/a	LTP114	ltpFR	6	7	0	GRASSHOPPER	656	n/a	5	0	n/a	n/a	n/a	n/a	n/a
3411453	RECOG_LURE	n/a	LTP114	ltpFR	6	7	n/a	EAGLE	512	0	3	n/a	n/a	n/a	n/a	n/a	n/a
3412675	RECOG_RESP	n/a	LTP114	ltpFR	6	7	n/a	EAGLE	512	0	n/a	n/a	n/a	n/a	n/a	n/a	n/a
3413364	RECOG_CONF	n/a	LTP114	ltpFR	6	7	n/a	EAGLE	512	n/a	3	n/a	n/a	n/a	n/a	n/a	n/a
3414791	RECOG_TARGET	n/a	LTP114	ltpFR	6	7	1	LOVER	846	1	2	1	n/a	n/a	n/a	n/a	n/a
3415609	RECOG_RESP	n/a	LTP114	ltpFR	6	7	1	LOVER	846	1	n/a	1	n/a	n/a	n/a	n/a	n/a
3416517	RECOG_CONF	n/a	LTP114	ltpFR	6	7	1	LOVER	846	n/a	2	1	n/a	n/a	n/a	n/a	n/a
3418062	RECOG_TARGET	n/a	LTP114	ltpFR	6	7	1	FRANCE	601	1	3	0	n/a	n/a	n/a	n/a	n/a
3418652	RECOG_RESP	n/a	LTP114	ltpFR	6	7	1	FRANCE	601	1	n/a	0	n/a	n/a	n/a	n/a	n/a
3419580	RECOG_CONF	n/a	LTP114	ltpFR	6	7	1	FRANCE	601	n/a	3	0	n/a	n/a	n/a	n/a	n/a
3421001	RECOG_TARGET	n/a	LTP114	ltpFR	6	7	1	OFFICER	973	1	3	1	n/a	n/a	n/a	n/a	n/a
3421844	RECOG_RESP	n/a	LTP114	ltpFR	6	7	1	OFFICER	973	1	n/a	1	n/a	n/a	n/a	n/a	n/a
3422623	RECOG_CONF	n/a	LTP114	ltpFR	6	7	1	OFFICER	973	n/a	3	1	n/a	n/a	n/a	n/a	n/a
3425561	REC_START	n/a	LTP114	ltpFR	6	8	n/a	n/a	n/a	n/a	n/a	n/a	n/a	n/a	n/a	n/a	n/a
3425587	RECOG_LURE	n/a	LTP114	ltpFR	6	8	n/a	PORK	1108	0	5	n/a	n/a	n/a	n/a	n/a	n/a
3426174	RECOG_RESP_VV	n/a	LTP114	ltpFR	6	8	n/a	PORK	1108	1	n/a	n/a	n/a	n/a	n/a	n/a	n/a
3426698	RECOG_RESP	n/a	LTP114	ltpFR	6	8	n/a	PORK	1108	0	n/a	n/a	n/a	n/a	n/a	n/a	n/a
3427681	RECOG_CONF	n/a	LTP114	ltpFR	6	8	n/a	PORK	1108	n/a	5	n/a	n/a	n/a	n/a	n/a	n/a
3429116	RECOG_LURE	n/a	LTP114	ltpFR	6	8	n/a	ANIMAL	23	0	5	n/a	n/a	n/a	n/a	n/a	n/a
3430105	RECOG_RESP	n/a	LTP114	ltpFR	6	8	n/a	ANIMAL	23	0	n/a	n/a	n/a	n/a	n/a	n/a	n/a
3430814	RECOG_CONF	n/a	LTP114	ltpFR	6	8	n/a	ANIMAL	23	n/a	5	n/a	n/a	n/a	n/a	n/a	n/a
3432230	RECOG_TARGET	n/a	LTP114	ltpFR	6	8	0	RAG	1160	1	5	0	n/a	n/a	n/a	n/a	n/a
3432989	RECOG_RESP	n/a	LTP114	ltpFR	6	8	0	RAG	1160	1	n/a	0	n/a	n/a	n/a	n/a	n/a
3433667	RECOG_CONF	n/a	LTP114	ltpFR	6	8	0	RAG	1160	n/a	5	0	n/a	n/a	n/a	n/a	n/a
3435084	RECOG_TARGET	n/a	LTP114	ltpFR	6	8	1	MANAGER	863	1	5	1	n/a	n/a	n/a	n/a	n/a
3435673	RECOG_RESP	n/a	LTP114	ltpFR	6	8	1	MANAGER	863	1	n/a	1	n/a	n/a	n/a	n/a	n/a
3436341	RECOG_CONF	n/a	LTP114	ltpFR	6	8	1	MANAGER	863	n/a	5	1	n/a	n/a	n/a	n/a	n/a
3437781	RECOG_TARGET	n/a	LTP114	ltpFR	6	8	1	MEDICINE	886	1	5	0	n/a	n/a	n/a	n/a	n/a
3438397	RECOG_RESP	n/a	LTP114	ltpFR	6	8	1	MEDICINE	886	1	n/a	0	n/a	n/a	n/a	n/a	n/a
3439075	RECOG_CONF	n/a	LTP114	ltpFR	6	8	1	MEDICINE	886	n/a	5	0	n/a	n/a	n/a	n/a	n/a
3440461	RECOG_TARGET	n/a	LTP114	ltpFR	6	8	-1	DEPARTMENT	449	1	5	-1	n/a	n/a	n/a	n/a	n/a
3441061	RECOG_RESP	n/a	LTP114	ltpFR	6	8	-1	DEPARTMENT	449	1	n/a	-1	n/a	n/a	n/a	n/a	n/a
3441799	RECOG_CONF	n/a	LTP114	ltpFR	6	8	-1	DEPARTMENT	449	n/a	5	-1	n/a	n/a	n/a	n/a	n/a
3443142	RECOG_LURE	n/a	LTP114	ltpFR	6	8	n/a	DAD	433	1	3	n/a	n/a	n/a	n/a	n/a	n/a
3444862	RECOG_RESP	n/a	LTP114	ltpFR	6	8	n/a	DAD	433	1	n/a	n/a	n/a	n/a	n/a	n/a	n/a
3445949	RECOG_CONF	n/a	LTP114	ltpFR	6	8	n/a	DAD	433	n/a	3	n/a	n/a	n/a	n/a	n/a	n/a
3447362	RECOG_TARGET	n/a	LTP114	ltpFR	6	8	1	BIRD	129	1	5	1	n/a	n/a	n/a	n/a	n/a
3450559	RECOG_RESP	n/a	LTP114	ltpFR	6	8	1	BIRD	129	1	n/a	1	n/a	n/a	n/a	n/a	n/a
3451128	RECOG_CONF	n/a	LTP114	ltpFR	6	8	1	BIRD	129	n/a	5	1	n/a	n/a	n/a	n/a	n/a
3452647	RECOG_TARGET	n/a	LTP114	ltpFR	6	8	-1	DISH	474	0	3	-1	n/a	n/a	n/a	n/a	n/a
3453842	RECOG_RESP	n/a	LTP114	ltpFR	6	8	-1	DISH	474	0	n/a	-1	n/a	n/a	n/a	n/a	n/a
3454690	RECOG_CONF	n/a	LTP114	ltpFR	6	8	-1	DISH	474	n/a	3	-1	n/a	n/a	n/a	n/a	n/a
3456118	RECOG_TARGET	n/a	LTP114	ltpFR	6	8	-1	PARTY	1018	1	3	-1	n/a	n/a	n/a	n/a	n/a
3457842	RECOG_RESP	n/a	LTP114	ltpFR	6	8	-1	PARTY	1018	1	n/a	-1	n/a	n/a	n/a	n/a	n/a
3458491	RECOG_CONF	n/a	LTP114	ltpFR	6	8	-1	PARTY	1018	n/a	3	-1	n/a	n/a	n/a	n/a	n/a
3459989	RECOG_TARGET	n/a	LTP114	ltpFR	6	8	1	NOMAD	955	1	4	1	n/a	n/a	n/a	n/a	n/a
3460616	RECOG_RESP	n/a	LTP114	ltpFR	6	8	1	NOMAD	955	1	n/a	1	n/a	n/a	n/a	n/a	n/a
3461225	RECOG_CONF	n/a	LTP114	ltpFR	6	8	1	NOMAD	955	n/a	4	1	n/a	n/a	n/a	n/a	n/a
3462694	RECOG_LURE	n/a	LTP114	ltpFR	6	8	n/a	ELBOW	520	0	4	n/a	n/a	n/a	n/a	n/a	n/a
3463450	RECOG_RESP	n/a	LTP114	ltpFR	6	8	n/a	ELBOW	520	0	n/a	n/a	n/a	n/a	n/a	n/a	n/a
3464168	RECOG_CONF	n/a	LTP114	ltpFR	6	8	n/a	ELBOW	520	n/a	4	n/a	n/a	n/a	n/a	n/a	n/a
3465532	RECOG_TARGET	n/a	LTP114	ltpFR	6	8	1	NOTEBOOK	959	1	4	0	n/a	n/a	n/a	n/a	n/a
3466283	RECOG_RESP	n/a	LTP114	ltpFR	6	8	1	NOTEBOOK	959	1	n/a	0	n/a	n/a	n/a	n/a	n/a
3466962	RECOG_CONF	n/a	LTP114	ltpFR	6	8	1	NOTEBOOK	959	n/a	4	0	n/a	n/a	n/a	n/a	n/a
3468379	RECOG_TARGET	n/a	LTP114	ltpFR	6	8	1	SWAN	1417	1	5	1	n/a	n/a	n/a	n/a	n/a
3469346	RECOG_RESP	n/a	LTP114	ltpFR	6	8	1	SWAN	1417	1	n/a	1	n/a	n/a	n/a	n/a	n/a
3470135	RECOG_CONF	n/a	LTP114	ltpFR	6	8	1	SWAN	1417	n/a	5	1	n/a	n/a	n/a	n/a	n/a
3471617	RECOG_TARGET	n/a	LTP114	ltpFR	6	8	1	MAGNET	855	1	5	0	n/a	n/a	n/a	n/a	n/a
3472369	RECOG_RESP	n/a	LTP114	ltpFR	6	8	1	MAGNET	855	1	n/a	0	n/a	n/a	n/a	n/a	n/a
3473118	RECOG_CONF	n/a	LTP114	ltpFR	6	8	1	MAGNET	855	n/a	5	0	n/a	n/a	n/a	n/a	n/a
3474588	RECOG_TARGET	n/a	LTP114	ltpFR	6	8	-1	TOWN	1491	1	3	-1	n/a	n/a	n/a	n/a	n/a
3475323	RECOG_RESP	n/a	LTP114	ltpFR	6	8	-1	TOWN	1491	1	n/a	-1	n/a	n/a	n/a	n/a	n/a
3476211	RECOG_CONF	n/a	LTP114	ltpFR	6	8	-1	TOWN	1491	n/a	3	-1	n/a	n/a	n/a	n/a	n/a
3477585	RECOG_TARGET	n/a	LTP114	ltpFR	6	8	0	TANK	1432	1	5	1	n/a	n/a	n/a	n/a	n/a
3478296	RECOG_RESP	n/a	LTP114	ltpFR	6	8	0	TANK	1432	1	n/a	1	n/a	n/a	n/a	n/a	n/a
3479134	RECOG_CONF	n/a	LTP114	ltpFR	6	8	0	TANK	1432	n/a	5	1	n/a	n/a	n/a	n/a	n/a
3480540	RECOG_TARGET	n/a	LTP114	ltpFR	6	8	1	SHELL	1281	1	5	0	n/a	n/a	n/a	n/a	n/a
3481569	RECOG_RESP	n/a	LTP114	ltpFR	6	8	1	SHELL	1281	1	n/a	0	n/a	n/a	n/a	n/a	n/a
3482287	RECOG_CONF	n/a	LTP114	ltpFR	6	8	1	SHELL	1281	n/a	5	0	n/a	n/a	n/a	n/a	n/a
3483786	RECOG_LURE	n/a	LTP114	ltpFR	6	8	n/a	CRIMINAL	409	0	4	n/a	n/a	n/a	n/a	n/a	n/a
3484751	RECOG_RESP	n/a	LTP114	ltpFR	6	8	n/a	CRIMINAL	409	0	n/a	n/a	n/a	n/a	n/a	n/a	n/a
3485549	RECOG_CONF	n/a	LTP114	ltpFR	6	8	n/a	CRIMINAL	409	n/a	4	n/a	n/a	n/a	n/a	n/a	n/a
3486991	RECOG_TARGET	n/a	LTP114	ltpFR	6	8	-1	WASHCLOTH	1591	1	4	-1	n/a	n/a	n/a	n/a	n/a
3487565	RECOG_RESP	n/a	LTP114	ltpFR	6	8	-1	WASHCLOTH	1591	1	n/a	-1	n/a	n/a	n/a	n/a	n/a
3488243	RECOG_CONF	n/a	LTP114	ltpFR	6	8	-1	WASHCLOTH	1591	n/a	4	-1	n/a	n/a	n/a	n/a	n/a
3505327	REC_START	n/a	LTP114	ltpFR	6	9	n/a	n/a	n/a	n/a	n/a	n/a	n/a	n/a	n/a	n/a	n/a
3505353	RECOG_LURE	n/a	LTP114	ltpFR	6	9	n/a	KEEPER	769	1	3	n/a	n/a	n/a	n/a	n/a	n/a
3507018	RECOG_RESP	n/a	LTP114	ltpFR	6	9	n/a	KEEPER	769	1	n/a	n/a	n/a	n/a	n/a	n/a	n/a
3507876	RECOG_CONF	n/a	LTP114	ltpFR	6	9	n/a	KEEPER	769	n/a	3	n/a	n/a	n/a	n/a	n/a	n/a
3509316	RECOG_TARGET	n/a	LTP114	ltpFR	6	9	0	TENT	1449	1	5	1	n/a	n/a	n/a	n/a	n/a
3509812	RECOG_RESP	n/a	LTP114	ltpFR	6	9	0	TENT	1449	1	n/a	1	n/a	n/a	n/a	n/a	n/a
3510400	RECOG_CONF	n/a	LTP114	ltpFR	6	9	0	TENT	1449	n/a	5	1	n/a	n/a	n/a	n/a	n/a
3511837	RECOG_TARGET	n/a	LTP114	ltpFR	6	9	-1	MITTEN	902	1	5	-1	n/a	n/a	n/a	n/a	n/a
3512376	RECOG_RESP	n/a	LTP114	ltpFR	6	9	-1	MITTEN	902	1	n/a	-1	n/a	n/a	n/a	n/a	n/a
3513024	RECOG_CONF	n/a	LTP114	ltpFR	6	9	-1	MITTEN	902	n/a	5	-1	n/a	n/a	n/a	n/a	n/a
3514392	RECOG_TARGET	n/a	LTP114	ltpFR	6	9	-1	SAW	1239	1	5	-1	n/a	n/a	n/a	n/a	n/a
3514910	RECOG_RESP	n/a	LTP114	ltpFR	6	9	-1	SAW	1239	1	n/a	-1	n/a	n/a	n/a	n/a	n/a
3515539	RECOG_CONF	n/a	LTP114	ltpFR	6	9	-1	SAW	1239	n/a	5	-1	n/a	n/a	n/a	n/a	n/a
3516931	RECOG_TARGET	n/a	LTP114	ltpFR	6	9	0	LONDON	843	1	5	1	n/a	n/a	n/a	n/a	n/a
3517335	RECOG_RESP	n/a	LTP114	ltpFR	6	9	0	LONDON	843	1	n/a	1	n/a	n/a	n/a	n/a	n/a
3517903	RECOG_CONF	n/a	LTP114	ltpFR	6	9	0	LONDON	843	n/a	5	1	n/a	n/a	n/a	n/a	n/a
3519279	RECOG_TARGET	n/a	LTP114	ltpFR	6	9	0	MOLECULE	905	1	5	0	n/a	n/a	n/a	n/a	n/a
3519789	RECOG_RESP	n/a	LTP114	ltpFR	6	9	0	MOLECULE	905	1	n/a	0	n/a	n/a	n/a	n/a	n/a
3520278	RECOG_CONF	n/a	LTP114	ltpFR	6	9	0	MOLECULE	905	n/a	5	0	n/a	n/a	n/a	n/a	n/a
3521834	RECOG_LURE	n/a	LTP114	ltpFR	6	9	n/a	CHEESE	289	1	5	n/a	n/a	n/a	n/a	n/a	n/a
3522313	RECOG_RESP	n/a	LTP114	ltpFR	6	9	n/a	CHEESE	289	1	n/a	n/a	n/a	n/a	n/a	n/a	n/a
3522942	RECOG_CONF	n/a	LTP114	ltpFR	6	9	n/a	CHEESE	289	n/a	5	n/a	n/a	n/a	n/a	n/a	n/a
3524456	RECOG_TARGET	n/a	LTP114	ltpFR	6	9	-1	COW	393	1	3	-1	n/a	n/a	n/a	n/a	n/a
3525057	RECOG_RESP	n/a	LTP114	ltpFR	6	9	-1	COW	393	1	n/a	-1	n/a	n/a	n/a	n/a	n/a
3525875	RECOG_CONF	n/a	LTP114	ltpFR	6	9	-1	COW	393	n/a	3	-1	n/a	n/a	n/a	n/a	n/a
3527295	RECOG_TARGET	n/a	LTP114	ltpFR	6	9	0	MAID	856	1	4	1	n/a	n/a	n/a	n/a	n/a
3527910	RECOG_RESP	n/a	LTP114	ltpFR	6	9	0	MAID	856	1	n/a	1	n/a	n/a	n/a	n/a	n/a
3528539	RECOG_CONF	n/a	LTP114	ltpFR	6	9	0	MAID	856	n/a	4	1	n/a	n/a	n/a	n/a	n/a
3529957	RECOG_TARGET	n/a	LTP114	ltpFR	6	9	-1	PEANUT	1032	1	5	-1	n/a	n/a	n/a	n/a	n/a
3530465	RECOG_RESP	n/a	LTP114	ltpFR	6	9	-1	PEANUT	1032	1	n/a	-1	n/a	n/a	n/a	n/a	n/a
3531013	RECOG_CONF	n/a	LTP114	ltpFR	6	9	-1	PEANUT	1032	n/a	5	-1	n/a	n/a	n/a	n/a	n/a
3532388	RECOG_LURE	n/a	LTP114	ltpFR	6	9	n/a	MOTOR	922	1	1	n/a	n/a	n/a	n/a	n/a	n/a
3533009	RECOG_RESP	n/a	LTP114	ltpFR	6	9	n/a	MOTOR	922	1	n/a	n/a	n/a	n/a	n/a	n/a	n/a
3534096	RECOG_CONF	n/a	LTP114	ltpFR	6	9	n/a	MOTOR	922	n/a	1	n/a	n/a	n/a	n/a	n/a	n/a
3535518	RECOG_TARGET	n/a	LTP114	ltpFR	6	9	1	WORKER	1621	1	3	1	n/a	n/a	n/a	n/a	n/a
3536401	RECOG_RESP	n/a	LTP114	ltpFR	6	9	1	WORKER	1621	1	n/a	1	n/a	n/a	n/a	n/a	n/a
3537090	RECOG_CONF	n/a	LTP114	ltpFR	6	9	1	WORKER	1621	n/a	3	1	n/a	n/a	n/a	n/a	n/a
3538514	RECOG_TARGET	n/a	LTP114	ltpFR	6	9	1	MOSS	918	1	5	1	n/a	n/a	n/a	n/a	n/a
3539135	RECOG_RESP	n/a	LTP114	ltpFR	6	9	1	MOSS	918	1	n/a	1	n/a	n/a	n/a	n/a	n/a
3539724	RECOG_CONF	n/a	LTP114	ltpFR	6	9	1	MOSS	918	n/a	5	1	n/a	n/a	n/a	n/a	n/a
3541245	RECOG_LURE	n/a	LTP114	ltpFR	6	9	n/a	GEM	629	0	4	n/a	n/a	n/a	n/a	n/a	n/a
3542128	RECOG_RESP	n/a	LTP114	ltpFR	6	9	n/a	GEM	629	0	n/a	n/a	n/a	n/a	n/a	n/a	n/a
3542867	RECOG_CONF	n/a	LTP114	ltpFR	6	9	n/a	GEM	629	n/a	4	n/a	n/a	n/a	n/a	n/a	n/a
3544349	RECOG_LURE	n/a	LTP114	ltpFR	6	9	n/a	FOOTBALL	591	0	4	n/a	n/a	n/a	n/a	n/a	n/a
3545201	RECOG_RESP	n/a	LTP114	ltpFR	6	9	n/a	FOOTBALL	591	0	n/a	n/a	n/a	n/a	n/a	n/a	n/a
3545830	RECOG_CONF	n/a	LTP114	ltpFR	6	9	n/a	FOOTBALL	591	n/a	4	n/a	n/a	n/a	n/a	n/a	n/a
3547313	RECOG_TARGET	n/a	LTP114	ltpFR	6	9	-1	DICE	461	1	5	-1	n/a	n/a	n/a	n/a	n/a
3547965	RECOG_RESP	n/a	LTP114	ltpFR	6	9	-1	DICE	461	1	n/a	-1	n/a	n/a	n/a	n/a	n/a
3548593	RECOG_CONF	n/a	LTP114	ltpFR	6	9	-1	DICE	461	n/a	5	-1	n/a	n/a	n/a	n/a	n/a
3550026	RECOG_TARGET	n/a	LTP114	ltpFR	6	9	-1	SUSPECT	1415	0	4	-1	n/a	n/a	n/a	n/a	n/a
3551158	RECOG_RESP	n/a	LTP114	ltpFR	6	9	-1	SUSPECT	1415	0	n/a	-1	n/a	n/a	n/a	n/a	n/a
3551946	RECOG_CONF	n/a	LTP114	ltpFR	6	9	-1	SUSPECT	1415	n/a	4	-1	n/a	n/a	n/a	n/a	n/a
3553347	RECOG_LURE	n/a	LTP114	ltpFR	6	9	n/a	RAFT	1159	0	4	n/a	n/a	n/a	n/a	n/a	n/a
3556236	RECOG_RESP	n/a	LTP114	ltpFR	6	9	n/a	RAFT	1159	0	n/a	n/a	n/a	n/a	n/a	n/a	n/a
3556935	RECOG_CONF	n/a	LTP114	ltpFR	6	9	n/a	RAFT	1159	n/a	4	n/a	n/a	n/a	n/a	n/a	n/a
3558325	RECOG_LURE	n/a	LTP114	ltpFR	6	9	n/a	ROAD	1196	1	3	n/a	n/a	n/a	n/a	n/a	n/a
3559140	RECOG_RESP	n/a	LTP114	ltpFR	6	9	n/a	ROAD	1196	1	n/a	n/a	n/a	n/a	n/a	n/a	n/a
3559758	RECOG_CONF	n/a	LTP114	ltpFR	6	9	n/a	ROAD	1196	n/a	3	n/a	n/a	n/a	n/a	n/a	n/a
3561121	RECOG_TARGET	n/a	LTP114	ltpFR	6	9	1	PADDLE	1000	1	5	0	n/a	n/a	n/a	n/a	n/a
3561784	RECOG_RESP	n/a	LTP114	ltpFR	6	9	1	PADDLE	1000	1	n/a	0	n/a	n/a	n/a	n/a	n/a
3562412	RECOG_CONF	n/a	LTP114	ltpFR	6	9	1	PADDLE	1000	n/a	5	0	n/a	n/a	n/a	n/a	n/a
3575164	REC_START	n/a	LTP114	ltpFR	6	10	n/a	n/a	n/a	n/a	n/a	n/a	n/a	n/a	n/a	n/a	n/a
3575189	RECOG_LURE	n/a	LTP114	ltpFR	6	10	n/a	BALL	73	0	4	n/a	n/a	n/a	n/a	n/a	n/a
3576246	RECOG_RESP	n/a	LTP114	ltpFR	6	10	n/a	BALL	73	0	n/a	n/a	n/a	n/a	n/a	n/a	n/a
3576965	RECOG_CONF	n/a	LTP114	ltpFR	6	10	n/a	BALL	73	n/a	4	n/a	n/a	n/a	n/a	n/a	n/a
3578385	RECOG_TARGET	n/a	LTP114	ltpFR	6	10	0	SCOTCH	1251	1	5	0	n/a	n/a	n/a	n/a	n/a
3578811	RECOG_RESP	n/a	LTP114	ltpFR	6	10	0	SCOTCH	1251	1	n/a	0	n/a	n/a	n/a	n/a	n/a
3579409	RECOG_CONF	n/a	LTP114	ltpFR	6	10	0	SCOTCH	1251	n/a	5	0	n/a	n/a	n/a	n/a	n/a
3580832	RECOG_TARGET	n/a	LTP114	ltpFR	6	10	1	SOFA	1342	1	3	0	n/a	n/a	n/a	n/a	n/a
3581604	RECOG_RESP	n/a	LTP114	ltpFR	6	10	1	SOFA	1342	1	n/a	0	n/a	n/a	n/a	n/a	n/a
3582702	RECOG_CONF	n/a	LTP114	ltpFR	6	10	1	SOFA	1342	n/a	3	0	n/a	n/a	n/a	n/a	n/a
3584103	RECOG_TARGET	n/a	LTP114	ltpFR	6	10	1	HIP	710	1	5	1	n/a	n/a	n/a	n/a	n/a
3584767	RECOG_RESP	n/a	LTP114	ltpFR	6	10	1	HIP	710	1	n/a	1	n/a	n/a	n/a	n/a	n/a
3585396	RECOG_CONF	n/a	LTP114	ltpFR	6	10	1	HIP	710	n/a	5	1	n/a	n/a	n/a	n/a	n/a
3586741	RECOG_TARGET	n/a	LTP114	ltpFR	6	10	-1	AUTHOR	61	1	5	-1	n/a	n/a	n/a	n/a	n/a
3587261	RECOG_RESP	n/a	LTP114	ltpFR	6	10	-1	AUTHOR	61	1	n/a	-1	n/a	n/a	n/a	n/a	n/a
3587830	RECOG_CONF	n/a	LTP114	ltpFR	6	10	-1	AUTHOR	61	n/a	5	-1	n/a	n/a	n/a	n/a	n/a
3589231	RECOG_TARGET	n/a	LTP114	ltpFR	6	10	0	LIZARD	834	1	5	0	n/a	n/a	n/a	n/a	n/a
3589855	RECOG_RESP	n/a	LTP114	ltpFR	6	10	0	LIZARD	834	1	n/a	0	n/a	n/a	n/a	n/a	n/a
3590424	RECOG_CONF	n/a	LTP114	ltpFR	6	10	0	LIZARD	834	n/a	5	0	n/a	n/a	n/a	n/a	n/a
3591886	RECOG_LURE	n/a	LTP114	ltpFR	6	10	n/a	REFEREE	1178	0	5	n/a	n/a	n/a	n/a	n/a	n/a
3592559	RECOG_RESP	n/a	LTP114	ltpFR	6	10	n/a	REFEREE	1178	0	n/a	n/a	n/a	n/a	n/a	n/a	n/a
3593178	RECOG_CONF	n/a	LTP114	ltpFR	6	10	n/a	REFEREE	1178	n/a	5	n/a	n/a	n/a	n/a	n/a	n/a
3594516	RECOG_TARGET	n/a	LTP114	ltpFR	6	10	0	LEG	809	1	5	1	n/a	n/a	n/a	n/a	n/a
3595044	RECOG_RESP	n/a	LTP114	ltpFR	6	10	0	LEG	809	1	n/a	1	n/a	n/a	n/a	n/a	n/a
3595642	RECOG_CONF	n/a	LTP114	ltpFR	6	10	0	LEG	809	n/a	5	1	n/a	n/a	n/a	n/a	n/a
3597096	RECOG_TARGET	n/a	LTP114	ltpFR	6	10	0	CHAUFFEUR	283	1	5	1	n/a	n/a	n/a	n/a	n/a
3597718	RECOG_RESP	n/a	LTP114	ltpFR	6	10	0	CHAUFFEUR	283	1	n/a	1	n/a	n/a	n/a	n/a	n/a
3598566	RECOG_CONF	n/a	LTP114	ltpFR	6	10	0	CHAUFFEUR	283	n/a	5	1	n/a	n/a	n/a	n/a	n/a
3600001	RECOG_TARGET	n/a	LTP114	ltpFR	6	10	-1	SHOELACE	1289	1	5	-1	n/a	n/a	n/a	n/a	n/a
3601230	RECOG_RESP	n/a	LTP114	ltpFR	6	10	-1	SHOELACE	1289	1	n/a	-1	n/a	n/a	n/a	n/a	n/a
3601908	RECOG_CONF	n/a	LTP114	ltpFR	6	10	-1	SHOELACE	1289	n/a	5	-1	n/a	n/a	n/a	n/a	n/a
3603364	RECOG_TARGET	n/a	LTP114	ltpFR	6	10	1	PRUNE	1134	1	5	1	n/a	n/a	n/a	n/a	n/a
3604013	RECOG_RESP	n/a	LTP114	ltpFR	6	10	1	PRUNE	1134	1	n/a	1	n/a	n/a	n/a	n/a	n/a
3604692	RECOG_CONF	n/a	LTP114	ltpFR	6	10	1	PRUNE	1134	n/a	5	1	n/a	n/a	n/a	n/a	n/a
3606069	RECOG_TARGET	n/a	LTP114	ltpFR	6	10	1	BARN	89	1	5	0	n/a	n/a	n/a	n/a	n/a
3606707	RECOG_RESP	n/a	LTP114	ltpFR	6	10	1	BARN	89	1	n/a	0	n/a	n/a	n/a	n/a	n/a
3607416	RECOG_CONF	n/a	LTP114	ltpFR	6	10	1	BARN	89	n/a	5	0	n/a	n/a	n/a	n/a	n/a
3608833	RECOG_TARGET	n/a	LTP114	ltpFR	6	10	0	BEVERAGE	123	1	5	0	n/a	n/a	n/a	n/a	n/a
3609900	RECOG_RESP	n/a	LTP114	ltpFR	6	10	0	BEVERAGE	123	1	n/a	0	n/a	n/a	n/a	n/a	n/a
3610588	RECOG_CONF	n/a	LTP114	ltpFR	6	10	0	BEVERAGE	123	n/a	5	0	n/a	n/a	n/a	n/a	n/a
3611937	RECOG_TARGET	n/a	LTP114	ltpFR	6	10	-1	HOSE	720	1	5	-1	n/a	n/a	n/a	n/a	n/a
3612664	RECOG_RESP	n/a	LTP114	ltpFR	6	10	-1	HOSE	720	1	n/a	-1	n/a	n/a	n/a	n/a	n/a
3613382	RECOG_CONF	n/a	LTP114	ltpFR	6	10	-1	HOSE	720	n/a	5	-1	n/a	n/a	n/a	n/a	n/a
3614751	RECOG_TARGET	n/a	LTP114	ltpFR	6	10	1	CALF	222	1	5	1	n/a	n/a	n/a	n/a	n/a
3615308	RECOG_RESP	n/a	LTP114	ltpFR	6	10	1	CALF	222	1	n/a	1	n/a	n/a	n/a	n/a	n/a
3615986	RECOG_CONF	n/a	LTP114	ltpFR	6	10	1	CALF	222	n/a	5	1	n/a	n/a	n/a	n/a	n/a
3617406	RECOG_LURE	n/a	LTP114	ltpFR	6	10	n/a	PIGEON	1065	0	5	n/a	n/a	n/a	n/a	n/a	n/a
3618101	RECOG_RESP	n/a	LTP114	ltpFR	6	10	n/a	PIGEON	1065	0	n/a	n/a	n/a	n/a	n/a	n/a	n/a
3618610	RECOG_CONF	n/a	LTP114	ltpFR	6	10	n/a	PIGEON	1065	n/a	5	n/a	n/a	n/a	n/a	n/a	n/a
3619986	RECOG_TARGET	n/a	LTP114	ltpFR	6	10	1	MOWER	928	1	5	0	n/a	n/a	n/a	n/a	n/a
3620606	RECOG_RESP	n/a	LTP114	ltpFR	6	10	1	MOWER	928	1	n/a	0	n/a	n/a	n/a	n/a	n/a
3621214	RECOG_CONF	n/a	LTP114	ltpFR	6	10	1	MOWER	928	n/a	5	0	n/a	n/a	n/a	n/a	n/a
3622550	RECOG_TARGET	n/a	LTP114	ltpFR	6	10	0	MONGOOSE	909	1	5	1	n/a	n/a	n/a	n/a	n/a
3623200	RECOG_RESP	n/a	LTP114	ltpFR	6	10	0	MONGOOSE	909	1	n/a	1	n/a	n/a	n/a	n/a	n/a
3623888	RECOG_CONF	n/a	LTP114	ltpFR	6	10	0	MONGOOSE	909	n/a	5	1	n/a	n/a	n/a	n/a	n/a
3625306	RECOG_TARGET	n/a	LTP114	ltpFR	6	10	1	ATLAS	53	1	5	1	n/a	n/a	n/a	n/a	n/a
3625864	RECOG_RESP	n/a	LTP114	ltpFR	6	10	1	ATLAS	53	1	n/a	1	n/a	n/a	n/a	n/a	n/a
3626602	RECOG_CONF	n/a	LTP114	ltpFR	6	10	1	ATLAS	53	n/a	5	1	n/a	n/a	n/a	n/a	n/a
3627944	RECOG_TARGET	n/a	LTP114	ltpFR	6	10	1	WAGON	1578	1	5	0	n/a	n/a	n/a	n/a	n/a
3628797	RECOG_RESP	n/a	LTP114	ltpFR	6	10	1	WAGON	1578	1	n/a	0	n/a	n/a	n/a	n/a	n/a
3629465	RECOG_CONF	n/a	LTP114	ltpFR	6	10	1	WAGON	1578	n/a	5	0	n/a	n/a	n/a	n/a	n/a
3643279	REC_START	n/a	LTP114	ltpFR	6	11	n/a	n/a	n/a	n/a	n/a	n/a	n/a	n/a	n/a	n/a	n/a
3643310	RECOG_LURE	n/a	LTP114	ltpFR	6	11	n/a	GOVERNOR	651	0	5	n/a	n/a	n/a	n/a	n/a	n/a
3644152	RECOG_RESP	n/a	LTP114	ltpFR	6	11	n/a	GOVERNOR	651	0	n/a	n/a	n/a	n/a	n/a	n/a	n/a
3644800	RECOG_CONF	n/a	LTP114	ltpFR	6	11	n/a	GOVERNOR	651	n/a	5	n/a	n/a	n/a	n/a	n/a	n/a
3646406	RECOG_LURE	n/a	LTP114	ltpFR	6	11	n/a	LEAF	808	0	5	n/a	n/a	n/a	n/a	n/a	n/a
3647404	RECOG_RESP	n/a	LTP114	ltpFR	6	11	n/a	LEAF	808	0	n/a	n/a	n/a	n/a	n/a	n/a	n/a
3648193	RECOG_CONF	n/a	LTP114	ltpFR	6	11	n/a	LEAF	808	n/a	5	n/a	n/a	n/a	n/a	n/a	n/a
3649610	RECOG_TARGET	n/a	LTP114	ltpFR	6	11	1	CRAB	397	1	5	1	n/a	n/a	n/a	n/a	n/a
3650328	RECOG_RESP	n/a	LTP114	ltpFR	6	11	1	CRAB	397	1	n/a	1	n/a	n/a	n/a	n/a	n/a
