mstime	trial_type	stim_file	subject	experiment	session	trial	task	item_name	item_num	recog_conf	resp	color_b	color_g	color_r	case	font
0	SESS_START	n/a	LTP118	ltpFR	14	n/a	n/a	n/a	n/a	3	n/a	n/a	n/a	n/a	n/a	n/a
66932	WORD	wordpools/wasnorm_wordpool.txt	LTP118	ltpFR	14	1	1	BOULEVARD	156	n/a	0	1	0.412841796875	0.57763671875	upper	../fonts/amplitud.ttf
70755	WORD	wordpools/wasnorm_wordpool.txt	LTP118	ltpFR	14	1	1	TREAT	1501	n/a	0	1	0.412841796875	0.57763671875	upper	../fonts/amplitud.ttf
74803	WORD	wordpools/wasnorm_wordpool.txt	LTP118	ltpFR	14	1	0	KETTLE	772	n/a	0	0	0.5869140625	0.422607421875	lower	../fonts/zerothre.ttf
78735	WORD	wordpools/wasnorm_wordpool.txt	LTP118	ltpFR	14	1	0	PAN	1008	n/a	1	0	0.5869140625	0.422607421875	lower	../fonts/zerothre.ttf
82700	WORD	wordpools/wasnorm_wordpool.txt	LTP118	ltpFR	14	1	0	CLOVE	329	n/a	0	0	0.5869140625	0.422607421875	lower	../fonts/zerothre.ttf
86741	WORD	wordpools/wasnorm_wordpool.txt	LTP118	ltpFR	14	1	1	TENT	1449	n/a	0	1	0.412841796875	0.57763671875	upper	../fonts/amplitud.ttf
90873	WORD	wordpools/wasnorm_wordpool.txt	LTP118	ltpFR	14	1	1	SWING	1421	n/a	0	1	0.412841796875	0.57763671875	upper	../fonts/amplitud.ttf
94863	WORD	wordpools/wasnorm_wordpool.txt	LTP118	ltpFR	14	1	1	ANIMAL	23	n/a	1	1	0.412841796875	0.57763671875	upper	../fonts/amplitud.ttf
99071	WORD	wordpools/wasnorm_wordpool.txt	LTP118	ltpFR	14	1	1	CAVE	263	n/a	0	1	0.412841796875	0.57763671875	upper	../fonts/amplitud.ttf
103177	WORD	wordpools/wasnorm_wordpool.txt	LTP118	ltpFR	14	1	1	REPTILE	1185	n/a	1	1	0.412841796875	0.57763671875	upper	../fonts/amplitud.ttf
107350	WORD	wordpools/wasnorm_wordpool.txt	LTP118	ltpFR	14	1	1	ALLEY	15	n/a	0	1	0.412841796875	0.57763671875	upper	../fonts/amplitud.ttf
111390	WORD	wordpools/wasnorm_wordpool.txt	LTP118	ltpFR	14	1	0	WHALE	1601	n/a	1	0	0.5869140625	0.422607421875	lower	../fonts/zerothre.ttf
115306	WORD	wordpools/wasnorm_wordpool.txt	LTP118	ltpFR	14	1	0	SPY	1360	n/a	1	0	0.5869140625	0.422607421875	lower	../fonts/zerothre.ttf
119180	WORD	wordpools/wasnorm_wordpool.txt	LTP118	ltpFR	14	1	0	AGENT	10	n/a	1	0	0.5869140625	0.422607421875	lower	../fonts/zerothre.ttf
123378	WORD	wordpools/wasnorm_wordpool.txt	LTP118	ltpFR	14	1	0	PARSLEY	1016	n/a	0	0	0.5869140625	0.422607421875	lower	../fonts/zerothre.ttf
127501	WORD	wordpools/wasnorm_wordpool.txt	LTP118	ltpFR	14	1	0	PECAN	1036	n/a	0	0	0.5869140625	0.422607421875	lower	../fonts/zerothre.ttf
133292	REC_START	n/a	LTP118	ltpFR	14	1	n/a	n/a	n/a	n/a	n/a	n/a	n/a	n/a	n/a	n/a
134255	REC_WORD	wordpools/wasnorm_wordpool.txt	LTP118	ltpFR	14	1	0	PECAN	1036	n/a	0	n/a	n/a	n/a	n/a	n/a
135412	REC_WORD	wordpools/wasnorm_wordpool.txt	LTP118	ltpFR	14	1	1	ANIMAL	23	n/a	1	n/a	n/a	n/a	n/a	n/a
137098	REC_WORD	wordpools/wasnorm_wordpool.txt	LTP118	ltpFR	14	1	0	PAN	1008	n/a	1	n/a	n/a	n/a	n/a	n/a
138465	REC_WORD	wordpools/wasnorm_wordpool.txt	LTP118	ltpFR	14	1	0	KETTLE	772	n/a	0	n/a	n/a	n/a	n/a	n/a
143813	REC_WORD	wordpools/wasnorm_wordpool.txt	LTP118	ltpFR	14	1	1	SWING	1421	n/a	0	n/a	n/a	n/a	n/a	n/a
145439	REC_WORD	wordpools/wasnorm_wordpool.txt	LTP118	ltpFR	14	1	1	BOULEVARD	156	n/a	0	n/a	n/a	n/a	n/a	n/a
149869	REC_WORD	wordpools/wasnorm_wordpool.txt	LTP118	ltpFR	14	1	0	SPY	1360	n/a	1	n/a	n/a	n/a	n/a	n/a
151595	REC_WORD	wordpools/wasnorm_wordpool.txt	LTP118	ltpFR	14	1	0	AGENT	10	n/a	1	n/a	n/a	n/a	n/a	n/a
177147	REC_WORD	wordpools/wasnorm_wordpool.txt	LTP118	ltpFR	14	1	0	CLOVE	329	n/a	0	n/a	n/a	n/a	n/a	n/a
179881	REC_WORD	wordpools/wasnorm_wordpool.txt	LTP118	ltpFR	14	1	0	PARSLEY	1016	n/a	0	n/a	n/a	n/a	n/a	n/a
226251	WORD	wordpools/wasnorm_wordpool.txt	LTP118	ltpFR	14	2	0	PREDATOR	1120	n/a	1	0	0.5869140625	0.422607421875	lower	../fonts/zerothre.ttf
230423	WORD	wordpools/wasnorm_wordpool.txt	LTP118	ltpFR	14	2	0	RAISIN	1163	n/a	0	0	0.5869140625	0.422607421875	lower	../fonts/zerothre.ttf
234314	WORD	wordpools/wasnorm_wordpool.txt	LTP118	ltpFR	14	2	1	SUNRISE	1407	n/a	0	1	0.412841796875	0.57763671875	upper	../fonts/amplitud.ttf
238147	WORD	wordpools/wasnorm_wordpool.txt	LTP118	ltpFR	14	2	1	NEWSSTAND	949	n/a	0	1	0.412841796875	0.57763671875	upper	../fonts/amplitud.ttf
242170	WORD	wordpools/wasnorm_wordpool.txt	LTP118	ltpFR	14	2	1	RACCOON	1153	n/a	1	1	0.412841796875	0.57763671875	upper	../fonts/amplitud.ttf
246036	WORD	wordpools/wasnorm_wordpool.txt	LTP118	ltpFR	14	2	0	ZUCCHINI	1638	n/a	0	0	0.5869140625	0.422607421875	lower	../fonts/zerothre.ttf
249883	WORD	wordpools/wasnorm_wordpool.txt	LTP118	ltpFR	14	2	0	CRUTCH	417	n/a	1	0	0.5869140625	0.422607421875	lower	../fonts/zerothre.ttf
253848	WORD	wordpools/wasnorm_wordpool.txt	LTP118	ltpFR	14	2	1	CUFF	423	n/a	0	1	0.412841796875	0.57763671875	upper	../fonts/amplitud.ttf
257839	WORD	wordpools/wasnorm_wordpool.txt	LTP118	ltpFR	14	2	1	BLOUSE	139	n/a	0	1	0.412841796875	0.57763671875	upper	../fonts/amplitud.ttf
261947	WORD	wordpools/wasnorm_wordpool.txt	LTP118	ltpFR	14	2	1	DIARY	460	n/a	0	1	0.412841796875	0.57763671875	upper	../fonts/amplitud.ttf
266029	WORD	wordpools/wasnorm_wordpool.txt	LTP118	ltpFR	14	2	1	VEST	1559	n/a	0	1	0.412841796875	0.57763671875	upper	../fonts/amplitud.ttf
269977	WORD	wordpools/wasnorm_wordpool.txt	LTP118	ltpFR	14	2	1	HERB	704	n/a	0	1	0.412841796875	0.57763671875	upper	../fonts/amplitud.ttf
273866	WORD	wordpools/wasnorm_wordpool.txt	LTP118	ltpFR	14	2	0	PADDLE	1000	n/a	0	0	0.5869140625	0.422607421875	lower	../fonts/zerothre.ttf
277682	WORD	wordpools/wasnorm_wordpool.txt	LTP118	ltpFR	14	2	0	SAILOR	1223	n/a	1	0	0.5869140625	0.422607421875	lower	../fonts/zerothre.ttf
281822	WORD	wordpools/wasnorm_wordpool.txt	LTP118	ltpFR	14	2	0	TRIBE	1505	n/a	1	0	0.5869140625	0.422607421875	lower	../fonts/zerothre.ttf
285846	WORD	wordpools/wasnorm_wordpool.txt	LTP118	ltpFR	14	2	0	COWBOY	395	n/a	1	0	0.5869140625	0.422607421875	lower	../fonts/zerothre.ttf
291594	REC_START	n/a	LTP118	ltpFR	14	2	n/a	n/a	n/a	n/a	n/a	n/a	n/a	n/a	n/a	n/a
292876	REC_WORD	wordpools/wasnorm_wordpool.txt	LTP118	ltpFR	14	2	0	COWBOY	395	n/a	1	n/a	n/a	n/a	n/a	n/a
294303	REC_WORD	wordpools/wasnorm_wordpool.txt	LTP118	ltpFR	14	2	0	TRIBE	1505	n/a	1	n/a	n/a	n/a	n/a	n/a
295889	REC_WORD	wordpools/wasnorm_wordpool.txt	LTP118	ltpFR	14	2	0	SAILOR	1223	n/a	1	n/a	n/a	n/a	n/a	n/a
297595	REC_WORD	wordpools/wasnorm_wordpool.txt	LTP118	ltpFR	14	2	1	NEWSSTAND	949	n/a	0	n/a	n/a	n/a	n/a	n/a
300299	REC_WORD	wordpools/wasnorm_wordpool.txt	LTP118	ltpFR	14	2	1	RACCOON	1153	n/a	1	n/a	n/a	n/a	n/a	n/a
303532	REC_WORD	wordpools/wasnorm_wordpool.txt	LTP118	ltpFR	14	2	0	ZUCCHINI	1638	n/a	0	n/a	n/a	n/a	n/a	n/a
328285	REC_WORD	wordpools/wasnorm_wordpool.txt	LTP118	ltpFR	14	2	0	CRUTCH	417	n/a	1	n/a	n/a	n/a	n/a	n/a
333913	REC_WORD	wordpools/wasnorm_wordpool.txt	LTP118	ltpFR	14	2	0	RAISIN	1163	n/a	0	n/a	n/a	n/a	n/a	n/a
341725	REC_WORD	wordpools/wasnorm_wordpool.txt	LTP118	ltpFR	14	2	1	HERB	704	n/a	0	n/a	n/a	n/a	n/a	n/a
391708	WORD	wordpools/wasnorm_wordpool.txt	LTP118	ltpFR	14	3	-1	TRAITOR	1495	n/a	-1	1	1.0	1.0	upper	../fonts/Verdana.ttf
395907	WORD	wordpools/wasnorm_wordpool.txt	LTP118	ltpFR	14	3	-1	BULLY	196	n/a	-1	1	1.0	1.0	upper	../fonts/Verdana.ttf
399948	WORD	wordpools/wasnorm_wordpool.txt	LTP118	ltpFR	14	3	-1	THUMB	1462	n/a	-1	1	1.0	1.0	upper	../fonts/Verdana.ttf
403997	WORD	wordpools/wasnorm_wordpool.txt	LTP118	ltpFR	14	3	-1	ENEMY	534	n/a	-1	1	1.0	1.0	upper	../fonts/Verdana.ttf
407911	WORD	wordpools/wasnorm_wordpool.txt	LTP118	ltpFR	14	3	-1	SLACKS	1323	n/a	-1	1	1.0	1.0	upper	../fonts/Verdana.ttf
411793	WORD	wordpools/wasnorm_wordpool.txt	LTP118	ltpFR	14	3	-1	GOWN	652	n/a	-1	1	1.0	1.0	upper	../fonts/Verdana.ttf
415959	WORD	wordpools/wasnorm_wordpool.txt	LTP118	ltpFR	14	3	-1	VIRUS	1572	n/a	-1	1	1.0	1.0	upper	../fonts/Verdana.ttf
419840	WORD	wordpools/wasnorm_wordpool.txt	LTP118	ltpFR	14	3	-1	GERM	632	n/a	-1	1	1.0	1.0	upper	../fonts/Verdana.ttf
423697	WORD	wordpools/wasnorm_wordpool.txt	LTP118	ltpFR	14	3	-1	CANAL	226	n/a	-1	1	1.0	1.0	upper	../fonts/Verdana.ttf
427546	WORD	wordpools/wasnorm_wordpool.txt	LTP118	ltpFR	14	3	-1	TERMITE	1451	n/a	-1	1	1.0	1.0	upper	../fonts/Verdana.ttf
431403	WORD	wordpools/wasnorm_wordpool.txt	LTP118	ltpFR	14	3	-1	WITNESS	1618	n/a	-1	1	1.0	1.0	upper	../fonts/Verdana.ttf
435244	WORD	wordpools/wasnorm_wordpool.txt	LTP118	ltpFR	14	3	-1	SHINGLE	1285	n/a	-1	1	1.0	1.0	upper	../fonts/Verdana.ttf
439117	WORD	wordpools/wasnorm_wordpool.txt	LTP118	ltpFR	14	3	-1	MAT	877	n/a	-1	1	1.0	1.0	upper	../fonts/Verdana.ttf
443216	WORD	wordpools/wasnorm_wordpool.txt	LTP118	ltpFR	14	3	-1	SKI	1316	n/a	-1	1	1.0	1.0	upper	../fonts/Verdana.ttf
447190	WORD	wordpools/wasnorm_wordpool.txt	LTP118	ltpFR	14	3	-1	UNIFORM	1539	n/a	-1	1	1.0	1.0	upper	../fonts/Verdana.ttf
451247	WORD	wordpools/wasnorm_wordpool.txt	LTP118	ltpFR	14	3	-1	SPIDER	1351	n/a	-1	1	1.0	1.0	upper	../fonts/Verdana.ttf
456979	REC_START	n/a	LTP118	ltpFR	14	3	n/a	n/a	n/a	n/a	n/a	n/a	n/a	n/a	n/a	n/a
458091	REC_WORD	wordpools/wasnorm_wordpool.txt	LTP118	ltpFR	14	3	-1	SPIDER	1351	n/a	-1	n/a	n/a	n/a	n/a	n/a
459728	REC_WORD	wordpools/wasnorm_wordpool.txt	LTP118	ltpFR	14	3	-1	SKI	1316	n/a	-1	n/a	n/a	n/a	n/a	n/a
461783	REC_WORD	wordpools/wasnorm_wordpool.txt	LTP118	ltpFR	14	3	-1	THUMB	1462	n/a	-1	n/a	n/a	n/a	n/a	n/a
464068	REC_WORD	wordpools/wasnorm_wordpool.txt	LTP118	ltpFR	14	3	-1	ENEMY	534	n/a	-1	n/a	n/a	n/a	n/a	n/a
466931	REC_WORD	wordpools/wasnorm_wordpool.txt	LTP118	ltpFR	14	3	-1	WITNESS	1618	n/a	-1	n/a	n/a	n/a	n/a	n/a
469226	REC_WORD	wordpools/wasnorm_wordpool.txt	LTP118	ltpFR	14	3	-1	SLACKS	1323	n/a	-1	n/a	n/a	n/a	n/a	n/a
471810	REC_WORD	wordpools/wasnorm_wordpool.txt	LTP118	ltpFR	14	3	-1	TRAITOR	1495	n/a	-1	n/a	n/a	n/a	n/a	n/a
702507	WORD	wordpools/wasnorm_wordpool.txt	LTP118	ltpFR	14	4	1	BANQUET	86	n/a	0	1	0.412841796875	0.57763671875	upper	../fonts/amplitud.ttf
706572	WORD	wordpools/wasnorm_wordpool.txt	LTP118	ltpFR	14	4	1	SIRLOIN	1311	n/a	0	1	0.412841796875	0.57763671875	upper	../fonts/amplitud.ttf
710529	WORD	wordpools/wasnorm_wordpool.txt	LTP118	ltpFR	14	4	1	BATTERY	101	n/a	0	1	0.412841796875	0.57763671875	upper	../fonts/amplitud.ttf
714370	WORD	wordpools/wasnorm_wordpool.txt	LTP118	ltpFR	14	4	1	OVAL	990	n/a	0	1	0.412841796875	0.57763671875	upper	../fonts/amplitud.ttf
718468	WORD	wordpools/wasnorm_wordpool.txt	LTP118	ltpFR	14	4	1	YOLK	1633	n/a	0	1	0.412841796875	0.57763671875	upper	../fonts/amplitud.ttf
722542	WORD	wordpools/wasnorm_wordpool.txt	LTP118	ltpFR	14	4	1	CONDUCTOR	362	n/a	1	1	0.412841796875	0.57763671875	upper	../fonts/amplitud.ttf
726674	WORD	wordpools/wasnorm_wordpool.txt	LTP118	ltpFR	14	4	1	WIDOW	1608	n/a	1	1	0.412841796875	0.57763671875	upper	../fonts/amplitud.ttf
730547	WORD	wordpools/wasnorm_wordpool.txt	LTP118	ltpFR	14	4	1	LAGOON	795	n/a	0	1	0.412841796875	0.57763671875	upper	../fonts/amplitud.ttf
734429	WORD	wordpools/wasnorm_wordpool.txt	LTP118	ltpFR	14	4	1	AUTOMOBILE	62	n/a	0	1	0.412841796875	0.57763671875	upper	../fonts/amplitud.ttf
738270	WORD	wordpools/wasnorm_wordpool.txt	LTP118	ltpFR	14	4	1	FEAST	556	n/a	0	1	0.412841796875	0.57763671875	upper	../fonts/amplitud.ttf
742418	WORD	wordpools/wasnorm_wordpool.txt	LTP118	ltpFR	14	4	1	GUM	672	n/a	0	1	0.412841796875	0.57763671875	upper	../fonts/amplitud.ttf
746317	WORD	wordpools/wasnorm_wordpool.txt	LTP118	ltpFR	14	4	1	FISH	571	n/a	1	1	0.412841796875	0.57763671875	upper	../fonts/amplitud.ttf
750175	WORD	wordpools/wasnorm_wordpool.txt	LTP118	ltpFR	14	4	1	WALRUS	1585	n/a	1	1	0.412841796875	0.57763671875	upper	../fonts/amplitud.ttf
754090	WORD	wordpools/wasnorm_wordpool.txt	LTP118	ltpFR	14	4	1	SERVER	1272	n/a	1	1	0.412841796875	0.57763671875	upper	../fonts/amplitud.ttf
758296	WORD	wordpools/wasnorm_wordpool.txt	LTP118	ltpFR	14	4	1	LAPEL	800	n/a	0	1	0.412841796875	0.57763671875	upper	../fonts/amplitud.ttf
762245	WORD	wordpools/wasnorm_wordpool.txt	LTP118	ltpFR	14	4	1	SUIT	1402	n/a	0	1	0.412841796875	0.57763671875	upper	../fonts/amplitud.ttf
767860	REC_START	n/a	LTP118	ltpFR	14	4	n/a	n/a	n/a	n/a	n/a	n/a	n/a	n/a	n/a	n/a
768783	REC_WORD	wordpools/wasnorm_wordpool.txt	LTP118	ltpFR	14	4	1	SUIT	1402	n/a	0	n/a	n/a	n/a	n/a	n/a
770010	REC_WORD	wordpools/wasnorm_wordpool.txt	LTP118	ltpFR	14	4	1	LAPEL	800	n/a	0	n/a	n/a	n/a	n/a	n/a
771467	REC_WORD	wordpools/wasnorm_wordpool.txt	LTP118	ltpFR	14	4	1	SERVER	1272	n/a	1	n/a	n/a	n/a	n/a	n/a
773013	REC_WORD	wordpools/wasnorm_wordpool.txt	LTP118	ltpFR	14	4	1	WALRUS	1585	n/a	1	n/a	n/a	n/a	n/a	n/a
774340	REC_WORD	wordpools/wasnorm_wordpool.txt	LTP118	ltpFR	14	4	n/a	SEAL	1262	n/a	n/a	n/a	n/a	n/a	n/a	n/a
800930	REC_WORD	wordpools/wasnorm_wordpool.txt	LTP118	ltpFR	14	4	1	SUIT	1402	n/a	0	n/a	n/a	n/a	n/a	n/a
809201	REC_WORD	wordpools/wasnorm_wordpool.txt	LTP118	ltpFR	14	4	1	LAGOON	795	n/a	0	n/a	n/a	n/a	n/a	n/a
810957	REC_WORD	wordpools/wasnorm_wordpool.txt	LTP118	ltpFR	14	4	n/a	GOO	648	n/a	n/a	n/a	n/a	n/a	n/a	n/a
812394	REC_WORD	wordpools/wasnorm_wordpool.txt	LTP118	ltpFR	14	4	1	AUTOMOBILE	62	n/a	0	n/a	n/a	n/a	n/a	n/a
821174	REC_WORD	wordpools/wasnorm_wordpool.txt	LTP118	ltpFR	14	4	1	SERVER	1272	n/a	1	n/a	n/a	n/a	n/a	n/a
870940	WORD	wordpools/wasnorm_wordpool.txt	LTP118	ltpFR	14	5	-1	BLUEPRINT	142	n/a	-1	1	1.0	1.0	upper	../fonts/Verdana.ttf
874821	WORD	wordpools/wasnorm_wordpool.txt	LTP118	ltpFR	14	5	-1	UMBRELLA	1534	n/a	-1	1	1.0	1.0	upper	../fonts/Verdana.ttf
878712	WORD	wordpools/wasnorm_wordpool.txt	LTP118	ltpFR	14	5	-1	FENCE	560	n/a	-1	1	1.0	1.0	upper	../fonts/Verdana.ttf
882844	WORD	wordpools/wasnorm_wordpool.txt	LTP118	ltpFR	14	5	-1	ARENA	37	n/a	-1	1	1.0	1.0	upper	../fonts/Verdana.ttf
887051	WORD	wordpools/wasnorm_wordpool.txt	LTP118	ltpFR	14	5	-1	ATHLETE	52	n/a	-1	1	1.0	1.0	upper	../fonts/Verdana.ttf
891017	WORD	wordpools/wasnorm_wordpool.txt	LTP118	ltpFR	14	5	-1	VEIN	1554	n/a	-1	1	1.0	1.0	upper	../fonts/Verdana.ttf
894974	WORD	wordpools/wasnorm_wordpool.txt	LTP118	ltpFR	14	5	-1	PENCIL	1042	n/a	-1	1	1.0	1.0	upper	../fonts/Verdana.ttf
898947	WORD	wordpools/wasnorm_wordpool.txt	LTP118	ltpFR	14	5	-1	ZOO	1637	n/a	-1	1	1.0	1.0	upper	../fonts/Verdana.ttf
902987	WORD	wordpools/wasnorm_wordpool.txt	LTP118	ltpFR	14	5	-1	TREAD	1499	n/a	-1	1	1.0	1.0	upper	../fonts/Verdana.ttf
907186	WORD	wordpools/wasnorm_wordpool.txt	LTP118	ltpFR	14	5	-1	WAVE	1596	n/a	-1	1	1.0	1.0	upper	../fonts/Verdana.ttf
911350	WORD	wordpools/wasnorm_wordpool.txt	LTP118	ltpFR	14	5	-1	FARMER	553	n/a	-1	1	1.0	1.0	upper	../fonts/Verdana.ttf
915340	WORD	wordpools/wasnorm_wordpool.txt	LTP118	ltpFR	14	5	-1	HAYSTACK	694	n/a	-1	1	1.0	1.0	upper	../fonts/Verdana.ttf
919372	WORD	wordpools/wasnorm_wordpool.txt	LTP118	ltpFR	14	5	-1	BACK	65	n/a	-1	1	1.0	1.0	upper	../fonts/Verdana.ttf
923214	WORD	wordpools/wasnorm_wordpool.txt	LTP118	ltpFR	14	5	-1	VESSEL	1558	n/a	-1	1	1.0	1.0	upper	../fonts/Verdana.ttf
927129	WORD	wordpools/wasnorm_wordpool.txt	LTP118	ltpFR	14	5	-1	OTTER	986	n/a	-1	1	1.0	1.0	upper	../fonts/Verdana.ttf
931301	WORD	wordpools/wasnorm_wordpool.txt	LTP118	ltpFR	14	5	-1	PRAIRIE	1118	n/a	-1	1	1.0	1.0	upper	../fonts/Verdana.ttf
937034	REC_START	n/a	LTP118	ltpFR	14	5	n/a	n/a	n/a	n/a	n/a	n/a	n/a	n/a	n/a	n/a
938027	REC_WORD	wordpools/wasnorm_wordpool.txt	LTP118	ltpFR	14	5	-1	PRAIRIE	1118	n/a	-1	n/a	n/a	n/a	n/a	n/a
939364	REC_WORD	wordpools/wasnorm_wordpool.txt	LTP118	ltpFR	14	5	n/a	DOG	480	n/a	n/a	n/a	n/a	n/a	n/a	n/a
948104	REC_WORD	wordpools/wasnorm_wordpool.txt	LTP118	ltpFR	14	5	-1	OTTER	986	n/a	-1	n/a	n/a	n/a	n/a	n/a
949510	REC_WORD	wordpools/wasnorm_wordpool.txt	LTP118	ltpFR	14	5	-1	ZOO	1637	n/a	-1	n/a	n/a	n/a	n/a	n/a
957243	REC_WORD	wordpools/wasnorm_wordpool.txt	LTP118	ltpFR	14	5	-1	BLUEPRINT	142	n/a	-1	n/a	n/a	n/a	n/a	n/a
958520	REC_WORD	wordpools/wasnorm_wordpool.txt	LTP118	ltpFR	14	5	-1	UMBRELLA	1534	n/a	-1	n/a	n/a	n/a	n/a	n/a
960106	REC_WORD	wordpools/wasnorm_wordpool.txt	LTP118	ltpFR	14	5	-1	VEIN	1554	n/a	-1	n/a	n/a	n/a	n/a	n/a
961573	REC_WORD	wordpools/wasnorm_wordpool.txt	LTP118	ltpFR	14	5	n/a	ARTERY	41	n/a	n/a	n/a	n/a	n/a	n/a	n/a
1008207	REC_WORD	wordpools/wasnorm_wordpool.txt	LTP118	ltpFR	14	5	-1	OTTER	986	n/a	-1	n/a	n/a	n/a	n/a	n/a
1039680	WORD	wordpools/wasnorm_wordpool.txt	LTP118	ltpFR	14	6	1	STAPLER	1372	n/a	0	1	0.412841796875	0.57763671875	upper	../fonts/amplitud.ttf
1043604	WORD	wordpools/wasnorm_wordpool.txt	LTP118	ltpFR	14	6	1	STAGE	1366	n/a	0	1	0.412841796875	0.57763671875	upper	../fonts/amplitud.ttf
1047569	WORD	wordpools/wasnorm_wordpool.txt	LTP118	ltpFR	14	6	1	DOLL	481	n/a	0	1	0.412841796875	0.57763671875	upper	../fonts/amplitud.ttf
1051709	WORD	wordpools/wasnorm_wordpool.txt	LTP118	ltpFR	14	6	1	CITY	314	n/a	0	1	0.412841796875	0.57763671875	upper	../fonts/amplitud.ttf
1055599	WORD	wordpools/wasnorm_wordpool.txt	LTP118	ltpFR	14	6	0	OCTOPUS	971	n/a	1	0	0.5869140625	0.422607421875	lower	../fonts/zerothre.ttf
1059548	WORD	wordpools/wasnorm_wordpool.txt	LTP118	ltpFR	14	6	0	NET	946	n/a	0	0	0.5869140625	0.422607421875	lower	../fonts/zerothre.ttf
1063505	WORD	wordpools/wasnorm_wordpool.txt	LTP118	ltpFR	14	6	0	REPORT	1184	n/a	0	0	0.5869140625	0.422607421875	lower	../fonts/zerothre.ttf
1067570	WORD	wordpools/wasnorm_wordpool.txt	LTP118	ltpFR	14	6	1	SIBLING	1301	n/a	1	1	0.412841796875	0.57763671875	upper	../fonts/amplitud.ttf
1071385	WORD	wordpools/wasnorm_wordpool.txt	LTP118	ltpFR	14	6	1	TREE	1502	n/a	1	1	0.412841796875	0.57763671875	upper	../fonts/amplitud.ttf
1075442	WORD	wordpools/wasnorm_wordpool.txt	LTP118	ltpFR	14	6	1	SPATULA	1348	n/a	0	1	0.412841796875	0.57763671875	upper	../fonts/amplitud.ttf
1079524	WORD	wordpools/wasnorm_wordpool.txt	LTP118	ltpFR	14	6	1	CHEF	290	n/a	1	1	0.412841796875	0.57763671875	upper	../fonts/amplitud.ttf
1083731	WORD	wordpools/wasnorm_wordpool.txt	LTP118	ltpFR	14	6	0	LAKE	796	n/a	1	0	0.5869140625	0.422607421875	lower	../fonts/zerothre.ttf
1087780	WORD	wordpools/wasnorm_wordpool.txt	LTP118	ltpFR	14	6	0	FORK	594	n/a	0	0	0.5869140625	0.422607421875	lower	../fonts/zerothre.ttf
1091670	WORD	wordpools/wasnorm_wordpool.txt	LTP118	ltpFR	14	6	0	SALMON	1227	n/a	1	0	0.5869140625	0.422607421875	lower	../fonts/zerothre.ttf
1095502	WORD	wordpools/wasnorm_wordpool.txt	LTP118	ltpFR	14	6	0	TRUMPET	1513	n/a	1	0	0.5869140625	0.422607421875	lower	../fonts/zerothre.ttf
1099426	WORD	wordpools/wasnorm_wordpool.txt	LTP118	ltpFR	14	6	0	GUITAR	670	n/a	1	0	0.5869140625	0.422607421875	lower	../fonts/zerothre.ttf
1105075	REC_START	n/a	LTP118	ltpFR	14	6	n/a	n/a	n/a	n/a	n/a	n/a	n/a	n/a	n/a	n/a
1106137	REC_WORD	wordpools/wasnorm_wordpool.txt	LTP118	ltpFR	14	6	0	GUITAR	670	n/a	1	n/a	n/a	n/a	n/a	n/a
1107704	REC_WORD	wordpools/wasnorm_wordpool.txt	LTP118	ltpFR	14	6	0	TRUMPET	1513	n/a	1	n/a	n/a	n/a	n/a	n/a
1115945	REC_WORD	wordpools/wasnorm_wordpool.txt	LTP118	ltpFR	14	6	0	SALMON	1227	n/a	1	n/a	n/a	n/a	n/a	n/a
1117611	REC_WORD	wordpools/wasnorm_wordpool.txt	LTP118	ltpFR	14	6	1	FISH	571	n/a	1	n/a	n/a	n/a	n/a	n/a
1121473	REC_WORD	wordpools/wasnorm_wordpool.txt	LTP118	ltpFR	14	6	1	SPATULA	1348	n/a	0	n/a	n/a	n/a	n/a	n/a
1123159	REC_WORD	wordpools/wasnorm_wordpool.txt	LTP118	ltpFR	14	6	n/a	SPONGE	1355	n/a	n/a	n/a	n/a	n/a	n/a	n/a
1124895	REC_WORD	wordpools/wasnorm_wordpool.txt	LTP118	ltpFR	14	6	1	CHEF	290	n/a	1	n/a	n/a	n/a	n/a	n/a
1128387	REC_WORD	wordpools/wasnorm_wordpool.txt	LTP118	ltpFR	14	6	n/a	CHIEF	298	n/a	n/a	n/a	n/a	n/a	n/a	n/a
1140689	REC_WORD	wordpools/wasnorm_wordpool.txt	LTP118	ltpFR	14	6	0	FORK	594	n/a	0	n/a	n/a	n/a	n/a	n/a
1142166	REC_WORD	wordpools/wasnorm_wordpool.txt	LTP118	ltpFR	14	6	n/a	SPOON	1357	n/a	n/a	n/a	n/a	n/a	n/a	n/a
1202406	WORD	wordpools/wasnorm_wordpool.txt	LTP118	ltpFR	14	7	-1	DISC	473	n/a	-1	1	1.0	1.0	upper	../fonts/Verdana.ttf
1206571	WORD	wordpools/wasnorm_wordpool.txt	LTP118	ltpFR	14	7	-1	COMMANDER	354	n/a	-1	1	1.0	1.0	upper	../fonts/Verdana.ttf
1210786	WORD	wordpools/wasnorm_wordpool.txt	LTP118	ltpFR	14	7	-1	RIFLE	1192	n/a	-1	1	1.0	1.0	upper	../fonts/Verdana.ttf
1214936	WORD	wordpools/wasnorm_wordpool.txt	LTP118	ltpFR	14	7	-1	GUN	673	n/a	-1	1	1.0	1.0	upper	../fonts/Verdana.ttf
1218934	WORD	wordpools/wasnorm_wordpool.txt	LTP118	ltpFR	14	7	-1	CREATURE	403	n/a	-1	1	1.0	1.0	upper	../fonts/Verdana.ttf
1222966	WORD	wordpools/wasnorm_wordpool.txt	LTP118	ltpFR	14	7	-1	DIAL	457	n/a	-1	1	1.0	1.0	upper	../fonts/Verdana.ttf
1227007	WORD	wordpools/wasnorm_wordpool.txt	LTP118	ltpFR	14	7	-1	CLERK	321	n/a	-1	1	1.0	1.0	upper	../fonts/Verdana.ttf
1231105	WORD	wordpools/wasnorm_wordpool.txt	LTP118	ltpFR	14	7	-1	BALL	73	n/a	-1	1	1.0	1.0	upper	../fonts/Verdana.ttf
1235087	WORD	wordpools/wasnorm_wordpool.txt	LTP118	ltpFR	14	7	-1	CANNON	232	n/a	-1	1	1.0	1.0	upper	../fonts/Verdana.ttf
1239086	WORD	wordpools/wasnorm_wordpool.txt	LTP118	ltpFR	14	7	-1	WHISTLE	1606	n/a	-1	1	1.0	1.0	upper	../fonts/Verdana.ttf
1243218	WORD	wordpools/wasnorm_wordpool.txt	LTP118	ltpFR	14	7	-1	TRUCK	1512	n/a	-1	1	1.0	1.0	upper	../fonts/Verdana.ttf
1247083	WORD	wordpools/wasnorm_wordpool.txt	LTP118	ltpFR	14	7	-1	FOE	587	n/a	-1	1	1.0	1.0	upper	../fonts/Verdana.ttf
1251289	WORD	wordpools/wasnorm_wordpool.txt	LTP118	ltpFR	14	7	-1	FOX	598	n/a	-1	1	1.0	1.0	upper	../fonts/Verdana.ttf
1255371	WORD	wordpools/wasnorm_wordpool.txt	LTP118	ltpFR	14	7	-1	PISTON	1076	n/a	-1	1	1.0	1.0	upper	../fonts/Verdana.ttf
1259428	WORD	wordpools/wasnorm_wordpool.txt	LTP118	ltpFR	14	7	-1	CARRIAGE	248	n/a	-1	1	1.0	1.0	upper	../fonts/Verdana.ttf
1263493	WORD	wordpools/wasnorm_wordpool.txt	LTP118	ltpFR	14	7	-1	EARTH	515	n/a	-1	1	1.0	1.0	upper	../fonts/Verdana.ttf
1269217	REC_START	n/a	LTP118	ltpFR	14	7	n/a	n/a	n/a	n/a	n/a	n/a	n/a	n/a	n/a	n/a
1270210	REC_WORD	wordpools/wasnorm_wordpool.txt	LTP118	ltpFR	14	7	-1	EARTH	515	n/a	-1	n/a	n/a	n/a	n/a	n/a
1271586	REC_WORD	wordpools/wasnorm_wordpool.txt	LTP118	ltpFR	14	7	-1	CARRIAGE	248	n/a	-1	n/a	n/a	n/a	n/a	n/a
1272913	REC_WORD	wordpools/wasnorm_wordpool.txt	LTP118	ltpFR	14	7	n/a	HORSE	719	n/a	n/a	n/a	n/a	n/a	n/a	n/a
1280172	REC_WORD	wordpools/wasnorm_wordpool.txt	LTP118	ltpFR	14	7	-1	GUN	673	n/a	-1	n/a	n/a	n/a	n/a	n/a
1281629	REC_WORD	wordpools/wasnorm_wordpool.txt	LTP118	ltpFR	14	7	-1	BALL	73	n/a	-1	n/a	n/a	n/a	n/a	n/a
1283225	REC_WORD	wordpools/wasnorm_wordpool.txt	LTP118	ltpFR	14	7	-1	CANNON	232	n/a	-1	n/a	n/a	n/a	n/a	n/a
1284766	REC_WORD	wordpools/wasnorm_wordpool.txt	LTP118	ltpFR	14	7	-1	RIFLE	1192	n/a	-1	n/a	n/a	n/a	n/a	n/a
1291890	REC_WORD	wordpools/wasnorm_wordpool.txt	LTP118	ltpFR	14	7	-1	FOX	598	n/a	-1	n/a	n/a	n/a	n/a	n/a
1293412	REC_WORD	wordpools/wasnorm_wordpool.txt	LTP118	ltpFR	14	7	-1	FOE	587	n/a	-1	n/a	n/a	n/a	n/a	n/a
1295033	REC_WORD	wordpools/wasnorm_wordpool.txt	LTP118	ltpFR	14	7	n/a	FRIEND	606	n/a	n/a	n/a	n/a	n/a	n/a	n/a
1312124	REC_WORD	wordpools/wasnorm_wordpool.txt	LTP118	ltpFR	14	7	-1	COMMANDER	354	n/a	-1	n/a	n/a	n/a	n/a	n/a
1374679	WORD	wordpools/wasnorm_wordpool.txt	LTP118	ltpFR	14	8	-1	TORCH	1484	n/a	-1	1	1.0	1.0	upper	../fonts/Verdana.ttf
1378661	WORD	wordpools/wasnorm_wordpool.txt	LTP118	ltpFR	14	8	-1	MICROPHONE	890	n/a	-1	1	1.0	1.0	upper	../fonts/Verdana.ttf
1382551	WORD	wordpools/wasnorm_wordpool.txt	LTP118	ltpFR	14	8	-1	POET	1095	n/a	-1	1	1.0	1.0	upper	../fonts/Verdana.ttf
1386566	WORD	wordpools/wasnorm_wordpool.txt	LTP118	ltpFR	14	8	-1	BAG	69	n/a	-1	1	1.0	1.0	upper	../fonts/Verdana.ttf
1390565	WORD	wordpools/wasnorm_wordpool.txt	LTP118	ltpFR	14	8	-1	POCKETBOOK	1094	n/a	-1	1	1.0	1.0	upper	../fonts/Verdana.ttf
1394588	WORD	wordpools/wasnorm_wordpool.txt	LTP118	ltpFR	14	8	-1	OPERA	978	n/a	-1	1	1.0	1.0	upper	../fonts/Verdana.ttf
1398404	WORD	wordpools/wasnorm_wordpool.txt	LTP118	ltpFR	14	8	-1	COBRA	336	n/a	-1	1	1.0	1.0	upper	../fonts/Verdana.ttf
1402220	WORD	wordpools/wasnorm_wordpool.txt	LTP118	ltpFR	14	8	-1	POISON	1096	n/a	-1	1	1.0	1.0	upper	../fonts/Verdana.ttf
1406068	WORD	wordpools/wasnorm_wordpool.txt	LTP118	ltpFR	14	8	-1	BUTTON	207	n/a	-1	1	1.0	1.0	upper	../fonts/Verdana.ttf
1410150	WORD	wordpools/wasnorm_wordpool.txt	LTP118	ltpFR	14	8	-1	NECK	939	n/a	-1	1	1.0	1.0	upper	../fonts/Verdana.ttf
1414249	WORD	wordpools/wasnorm_wordpool.txt	LTP118	ltpFR	14	8	-1	SEAL	1262	n/a	-1	1	1.0	1.0	upper	../fonts/Verdana.ttf
1418148	WORD	wordpools/wasnorm_wordpool.txt	LTP118	ltpFR	14	8	-1	WALLET	1583	n/a	-1	1	1.0	1.0	upper	../fonts/Verdana.ttf
1421971	WORD	wordpools/wasnorm_wordpool.txt	LTP118	ltpFR	14	8	-1	MOAT	903	n/a	-1	1	1.0	1.0	upper	../fonts/Verdana.ttf
1425886	WORD	wordpools/wasnorm_wordpool.txt	LTP118	ltpFR	14	8	-1	PUDDLE	1140	n/a	-1	1	1.0	1.0	upper	../fonts/Verdana.ttf
1429784	WORD	wordpools/wasnorm_wordpool.txt	LTP118	ltpFR	14	8	-1	VET	1560	n/a	-1	1	1.0	1.0	upper	../fonts/Verdana.ttf
1433749	WORD	wordpools/wasnorm_wordpool.txt	LTP118	ltpFR	14	8	-1	BUFFALO	186	n/a	-1	1	1.0	1.0	upper	../fonts/Verdana.ttf
1439590	REC_START	n/a	LTP118	ltpFR	14	8	n/a	n/a	n/a	n/a	n/a	n/a	n/a	n/a	n/a	n/a
1441211	REC_WORD	wordpools/wasnorm_wordpool.txt	LTP118	ltpFR	14	8	-1	BUFFALO	186	n/a	-1	n/a	n/a	n/a	n/a	n/a
1442359	REC_WORD	wordpools/wasnorm_wordpool.txt	LTP118	ltpFR	14	8	n/a	OX	994	n/a	n/a	n/a	n/a	n/a	n/a	n/a
1443895	REC_WORD	wordpools/wasnorm_wordpool.txt	LTP118	ltpFR	14	8	-1	VET	1560	n/a	-1	n/a	n/a	n/a	n/a	n/a
1447377	REC_WORD	wordpools/wasnorm_wordpool.txt	LTP118	ltpFR	14	8	-1	BUTTON	207	n/a	-1	n/a	n/a	n/a	n/a	n/a
1452545	REC_WORD	wordpools/wasnorm_wordpool.txt	LTP118	ltpFR	14	8	-1	TORCH	1484	n/a	-1	n/a	n/a	n/a	n/a	n/a
1453553	REC_WORD	wordpools/wasnorm_wordpool.txt	LTP118	ltpFR	14	8	n/a	FLAME	-1	n/a	n/a	n/a	n/a	n/a	n/a	n/a
1455130	REC_WORD	wordpools/wasnorm_wordpool.txt	LTP118	ltpFR	14	8	-1	MICROPHONE	890	n/a	-1	n/a	n/a	n/a	n/a	n/a
1456786	REC_WORD	wordpools/wasnorm_wordpool.txt	LTP118	ltpFR	14	8	-1	BAG	69	n/a	-1	n/a	n/a	n/a	n/a	n/a
1458921	REC_WORD	wordpools/wasnorm_wordpool.txt	LTP118	ltpFR	14	8	-1	SEAL	1262	n/a	-1	n/a	n/a	n/a	n/a	n/a
1460557	REC_WORD	wordpools/wasnorm_wordpool.txt	LTP118	ltpFR	14	8	-1	WALLET	1583	n/a	-1	n/a	n/a	n/a	n/a	n/a
1462104	REC_WORD	wordpools/wasnorm_wordpool.txt	LTP118	ltpFR	14	8	1	WALRUS	1585	n/a	1	n/a	n/a	n/a	n/a	n/a
1482368	REC_WORD	wordpools/wasnorm_wordpool.txt	LTP118	ltpFR	14	8	-1	BUTTON	207	n/a	-1	n/a	n/a	n/a	n/a	n/a
1551824	WORD	wordpools/wasnorm_wordpool.txt	LTP118	ltpFR	14	9	1	CEILING	265	n/a	0	1	0.412841796875	0.57763671875	upper	../fonts/amplitud.ttf
1555781	WORD	wordpools/wasnorm_wordpool.txt	LTP118	ltpFR	14	9	1	SALAD	1224	n/a	0	1	0.412841796875	0.57763671875	upper	../fonts/amplitud.ttf
1559663	WORD	wordpools/wasnorm_wordpool.txt	LTP118	ltpFR	14	9	0	SWEATER	1419	n/a	1	0	0.5869140625	0.422607421875	lower	../fonts/zerothre.ttf
1563779	WORD	wordpools/wasnorm_wordpool.txt	LTP118	ltpFR	14	9	0	DWARF	510	n/a	1	0	0.5869140625	0.422607421875	lower	../fonts/zerothre.ttf
1567911	WORD	wordpools/wasnorm_wordpool.txt	LTP118	ltpFR	14	9	1	CUBE	420	n/a	0	1	0.412841796875	0.57763671875	upper	../fonts/amplitud.ttf
1571776	WORD	wordpools/wasnorm_wordpool.txt	LTP118	ltpFR	14	9	1	IGLOO	734	n/a	0	1	0.412841796875	0.57763671875	upper	../fonts/amplitud.ttf
1575783	WORD	wordpools/wasnorm_wordpool.txt	LTP118	ltpFR	14	9	0	MICROSCOPE	891	n/a	1	0	0.5869140625	0.422607421875	lower	../fonts/zerothre.ttf
1579898	WORD	wordpools/wasnorm_wordpool.txt	LTP118	ltpFR	14	9	0	FOSSIL	596	n/a	0	0	0.5869140625	0.422607421875	lower	../fonts/zerothre.ttf
1584039	WORD	wordpools/wasnorm_wordpool.txt	LTP118	ltpFR	14	9	0	COOK	372	n/a	1	0	0.5869140625	0.422607421875	lower	../fonts/zerothre.ttf
1588129	WORD	wordpools/wasnorm_wordpool.txt	LTP118	ltpFR	14	9	0	FUDGE	611	n/a	0	0	0.5869140625	0.422607421875	lower	../fonts/zerothre.ttf
1592145	WORD	wordpools/wasnorm_wordpool.txt	LTP118	ltpFR	14	9	0	TILE	1468	n/a	0	0	0.5869140625	0.422607421875	lower	../fonts/zerothre.ttf
1596277	WORD	wordpools/wasnorm_wordpool.txt	LTP118	ltpFR	14	9	0	RIB	1188	n/a	1	0	0.5869140625	0.422607421875	lower	../fonts/zerothre.ttf
1600217	WORD	wordpools/wasnorm_wordpool.txt	LTP118	ltpFR	14	9	1	FLEA	577	n/a	1	1	0.412841796875	0.57763671875	upper	../fonts/amplitud.ttf
1604314	WORD	wordpools/wasnorm_wordpool.txt	LTP118	ltpFR	14	9	1	WOLF	1619	n/a	1	1	0.412841796875	0.57763671875	upper	../fonts/amplitud.ttf
1608222	WORD	wordpools/wasnorm_wordpool.txt	LTP118	ltpFR	14	9	1	TUNNEL	1519	n/a	0	1	0.412841796875	0.57763671875	upper	../fonts/amplitud.ttf
1612113	WORD	wordpools/wasnorm_wordpool.txt	LTP118	ltpFR	14	9	1	RUNNER	1218	n/a	1	1	0.412841796875	0.57763671875	upper	../fonts/amplitud.ttf
1617702	REC_START	n/a	LTP118	ltpFR	14	9	n/a	n/a	n/a	n/a	n/a	n/a	n/a	n/a	n/a	n/a
1618874	REC_WORD	wordpools/wasnorm_wordpool.txt	LTP118	ltpFR	14	9	1	CEILING	265	n/a	0	n/a	n/a	n/a	n/a	n/a
1621009	REC_WORD	wordpools/wasnorm_wordpool.txt	LTP118	ltpFR	14	9	1	RUNNER	1218	n/a	1	n/a	n/a	n/a	n/a	n/a
1623344	REC_WORD	wordpools/wasnorm_wordpool.txt	LTP118	ltpFR	14	9	1	WOLF	1619	n/a	1	n/a	n/a	n/a	n/a	n/a
1625120	REC_WORD	wordpools/wasnorm_wordpool.txt	LTP118	ltpFR	14	9	n/a	DOG	480	n/a	n/a	n/a	n/a	n/a	n/a	n/a
1637911	REC_WORD	wordpools/wasnorm_wordpool.txt	LTP118	ltpFR	14	9	0	FOSSIL	596	n/a	0	n/a	n/a	n/a	n/a	n/a
1639607	REC_WORD	wordpools/wasnorm_wordpool.txt	LTP118	ltpFR	14	9	0	MICROSCOPE	891	n/a	1	n/a	n/a	n/a	n/a	n/a
1650253	REC_WORD	wordpools/wasnorm_wordpool.txt	LTP118	ltpFR	14	9	0	RIB	1188	n/a	1	n/a	n/a	n/a	n/a	n/a
1651789	REC_WORD	wordpools/wasnorm_wordpool.txt	LTP118	ltpFR	14	9	n/a	COW	393	n/a	n/a	n/a	n/a	n/a	n/a	n/a
1665059	REC_WORD	wordpools/wasnorm_wordpool.txt	LTP118	ltpFR	14	9	1	FLEA	577	n/a	1	n/a	n/a	n/a	n/a	n/a
1666705	REC_WORD	wordpools/wasnorm_wordpool.txt	LTP118	ltpFR	14	9	n/a	MARKET	871	n/a	n/a	n/a	n/a	n/a	n/a	n/a
1745315	WORD	wordpools/wasnorm_wordpool.txt	LTP118	ltpFR	14	10	0	SWORD	1423	n/a	1	0	0.5869140625	0.422607421875	lower	../fonts/zerothre.ttf
1749355	WORD	wordpools/wasnorm_wordpool.txt	LTP118	ltpFR	14	10	0	SAW	1239	n/a	1	0	0.5869140625	0.422607421875	lower	../fonts/zerothre.ttf
1753462	WORD	wordpools/wasnorm_wordpool.txt	LTP118	ltpFR	14	10	0	STALLION	1369	n/a	1	0	0.5869140625	0.422607421875	lower	../fonts/zerothre.ttf
1757460	WORD	wordpools/wasnorm_wordpool.txt	LTP118	ltpFR	14	10	0	VALLEY	1545	n/a	1	0	0.5869140625	0.422607421875	lower	../fonts/zerothre.ttf
1761501	WORD	wordpools/wasnorm_wordpool.txt	LTP118	ltpFR	14	10	0	KNAPSACK	783	n/a	1	0	0.5869140625	0.422607421875	lower	../fonts/zerothre.ttf
1765341	WORD	wordpools/wasnorm_wordpool.txt	LTP118	ltpFR	14	10	0	PIT	1077	n/a	1	0	0.5869140625	0.422607421875	lower	../fonts/zerothre.ttf
1769340	WORD	wordpools/wasnorm_wordpool.txt	LTP118	ltpFR	14	10	0	CREVICE	405	n/a	0	0	0.5869140625	0.422607421875	lower	../fonts/zerothre.ttf
1773463	WORD	wordpools/wasnorm_wordpool.txt	LTP118	ltpFR	14	10	0	ANT	25	n/a	0	0	0.5869140625	0.422607421875	lower	../fonts/zerothre.ttf
1777637	WORD	wordpools/wasnorm_wordpool.txt	LTP118	ltpFR	14	10	0	SUN	1406	n/a	1	0	0.5869140625	0.422607421875	lower	../fonts/zerothre.ttf
1781610	WORD	wordpools/wasnorm_wordpool.txt	LTP118	ltpFR	14	10	0	AUTHOR	61	n/a	1	0	0.5869140625	0.422607421875	lower	../fonts/zerothre.ttf
1785650	WORD	wordpools/wasnorm_wordpool.txt	LTP118	ltpFR	14	10	0	FRIES	607	n/a	0	0	0.5869140625	0.422607421875	lower	../fonts/zerothre.ttf
1789499	WORD	wordpools/wasnorm_wordpool.txt	LTP118	ltpFR	14	10	0	PHILOSOPHER	1054	n/a	1	0	0.5869140625	0.422607421875	lower	../fonts/zerothre.ttf
1793473	WORD	wordpools/wasnorm_wordpool.txt	LTP118	ltpFR	14	10	0	INFANT	737	n/a	1	0	0.5869140625	0.422607421875	lower	../fonts/zerothre.ttf
1797388	WORD	wordpools/wasnorm_wordpool.txt	LTP118	ltpFR	14	10	0	HAY	693	n/a	1	0	0.5869140625	0.422607421875	lower	../fonts/zerothre.ttf
1801345	WORD	wordpools/wasnorm_wordpool.txt	LTP118	ltpFR	14	10	0	NOOSE	956	n/a	0	0	0.5869140625	0.422607421875	lower	../fonts/zerothre.ttf
1805278	WORD	wordpools/wasnorm_wordpool.txt	LTP118	ltpFR	14	10	0	STRING	1394	n/a	0	0	0.5869140625	0.422607421875	lower	../fonts/zerothre.ttf
1810935	REC_START	n/a	LTP118	ltpFR	14	10	n/a	n/a	n/a	n/a	n/a	n/a	n/a	n/a	n/a	n/a
1812536	REC_WORD	wordpools/wasnorm_wordpool.txt	LTP118	ltpFR	14	10	0	NOOSE	956	n/a	0	n/a	n/a	n/a	n/a	n/a
1814123	REC_WORD	wordpools/wasnorm_wordpool.txt	LTP118	ltpFR	14	10	n/a	MOOSE	915	n/a	n/a	n/a	n/a	n/a	n/a	n/a
1815519	REC_WORD	wordpools/wasnorm_wordpool.txt	LTP118	ltpFR	14	10	0	STRING	1394	n/a	0	n/a	n/a	n/a	n/a	n/a
1824748	REC_WORD	wordpools/wasnorm_wordpool.txt	LTP118	ltpFR	14	10	0	STALLION	1369	n/a	1	n/a	n/a	n/a	n/a	n/a
1826400	REC_WORD	wordpools/wasnorm_wordpool.txt	LTP118	ltpFR	14	10	n/a	ITALIAN	-1	n/a	n/a	n/a	n/a	n/a	n/a	n/a
1840652	REC_WORD	wordpools/wasnorm_wordpool.txt	LTP118	ltpFR	14	10	0	ANT	25	n/a	0	n/a	n/a	n/a	n/a	n/a
1846309	REC_WORD	wordpools/wasnorm_wordpool.txt	LTP118	ltpFR	14	10	0	SWORD	1423	n/a	1	n/a	n/a	n/a	n/a	n/a
1931366	WORD	wordpools/wasnorm_wordpool.txt	LTP118	ltpFR	14	11	0	OCEAN	970	n/a	1	0	0.5869140625	0.422607421875	lower	../fonts/zerothre.ttf
1935406	WORD	wordpools/wasnorm_wordpool.txt	LTP118	ltpFR	14	11	0	RULER	1216	n/a	0	0	0.5869140625	0.422607421875	lower	../fonts/zerothre.ttf
1939579	WORD	wordpools/wasnorm_wordpool.txt	LTP118	ltpFR	14	11	0	TAVERN	1437	n/a	1	0	0.5869140625	0.422607421875	lower	../fonts/zerothre.ttf
1943586	WORD	wordpools/wasnorm_wordpool.txt	LTP118	ltpFR	14	11	0	MONGOOSE	909	n/a	1	0	0.5869140625	0.422607421875	lower	../fonts/zerothre.ttf
1947418	WORD	wordpools/wasnorm_wordpool.txt	LTP118	ltpFR	14	11	0	FIG	563	n/a	0	0	0.5869140625	0.422607421875	lower	../fonts/zerothre.ttf
1951609	WORD	wordpools/wasnorm_wordpool.txt	LTP118	ltpFR	14	11	0	COCKTAIL	338	n/a	0	0	0.5869140625	0.422607421875	lower	../fonts/zerothre.ttf
1955491	WORD	wordpools/wasnorm_wordpool.txt	LTP118	ltpFR	14	11	0	BEAVER	109	n/a	1	0	0.5869140625	0.422607421875	lower	../fonts/zerothre.ttf
1959398	WORD	wordpools/wasnorm_wordpool.txt	LTP118	ltpFR	14	11	0	DEER	444	n/a	1	0	0.5869140625	0.422607421875	lower	../fonts/zerothre.ttf
1963538	WORD	wordpools/wasnorm_wordpool.txt	LTP118	ltpFR	14	11	0	VIDEO	1564	n/a	1	0	0.5869140625	0.422607421875	lower	../fonts/zerothre.ttf
1967720	WORD	wordpools/wasnorm_wordpool.txt	LTP118	ltpFR	14	11	0	STEREO	1378	n/a	1	0	0.5869140625	0.422607421875	lower	../fonts/zerothre.ttf
1971685	WORD	wordpools/wasnorm_wordpool.txt	LTP118	ltpFR	14	11	0	FIDDLE	561	n/a	1	0	0.5869140625	0.422607421875	lower	../fonts/zerothre.ttf
1975792	WORD	wordpools/wasnorm_wordpool.txt	LTP118	ltpFR	14	11	0	TOASTER	1472	n/a	0	0	0.5869140625	0.422607421875	lower	../fonts/zerothre.ttf
1979649	WORD	wordpools/wasnorm_wordpool.txt	LTP118	ltpFR	14	11	0	KITCHEN	778	n/a	1	0	0.5869140625	0.422607421875	lower	../fonts/zerothre.ttf
1983797	WORD	wordpools/wasnorm_wordpool.txt	LTP118	ltpFR	14	11	0	SCREEN	1253	n/a	1	0	0.5869140625	0.422607421875	lower	../fonts/zerothre.ttf
1987854	WORD	wordpools/wasnorm_wordpool.txt	LTP118	ltpFR	14	11	0	CAMEL	223	n/a	1	0	0.5869140625	0.422607421875	lower	../fonts/zerothre.ttf
1991819	WORD	wordpools/wasnorm_wordpool.txt	LTP118	ltpFR	14	11	0	FREEWAY	603	n/a	1	0	0.5869140625	0.422607421875	lower	../fonts/zerothre.ttf
1997626	REC_START	n/a	LTP118	ltpFR	14	11	n/a	n/a	n/a	n/a	n/a	n/a	n/a	n/a	n/a	n/a
1999227	REC_WORD	wordpools/wasnorm_wordpool.txt	LTP118	ltpFR	14	11	0	FREEWAY	603	n/a	1	n/a	n/a	n/a	n/a	n/a
2000724	REC_WORD	wordpools/wasnorm_wordpool.txt	LTP118	ltpFR	14	11	n/a	HIGHWAY	707	n/a	n/a	n/a	n/a	n/a	n/a	n/a
2006561	REC_WORD	wordpools/wasnorm_wordpool.txt	LTP118	ltpFR	14	11	0	MONGOOSE	909	n/a	1	n/a	n/a	n/a	n/a	n/a
2025777	REC_WORD	wordpools/wasnorm_wordpool.txt	LTP118	ltpFR	14	11	0	OCEAN	970	n/a	1	n/a	n/a	n/a	n/a	n/a
2107171	WORD	wordpools/wasnorm_wordpool.txt	LTP118	ltpFR	14	12	0	SEAT	1264	n/a	1	0	0.5869140625	0.422607421875	lower	../fonts/zerothre.ttf
2111195	WORD	wordpools/wasnorm_wordpool.txt	LTP118	ltpFR	14	12	0	STOOL	1386	n/a	1	0	0.5869140625	0.422607421875	lower	../fonts/zerothre.ttf
2115185	WORD	wordpools/wasnorm_wordpool.txt	LTP118	ltpFR	14	12	0	GUARD	667	n/a	1	0	0.5869140625	0.422607421875	lower	../fonts/zerothre.ttf
2119349	WORD	wordpools/wasnorm_wordpool.txt	LTP118	ltpFR	14	12	0	BUCKLE	185	n/a	0	0	0.5869140625	0.422607421875	lower	../fonts/zerothre.ttf
2123481	WORD	wordpools/wasnorm_wordpool.txt	LTP118	ltpFR	14	12	0	TWINE	1529	n/a	0	0	0.5869140625	0.422607421875	lower	../fonts/zerothre.ttf
2127663	WORD	wordpools/wasnorm_wordpool.txt	LTP118	ltpFR	14	12	0	LITERATURE	831	n/a	1	0	0.5869140625	0.422607421875	lower	../fonts/zerothre.ttf
2131562	WORD	wordpools/wasnorm_wordpool.txt	LTP118	ltpFR	14	12	0	CONTRACT	368	n/a	0	0	0.5869140625	0.422607421875	lower	../fonts/zerothre.ttf
2135519	WORD	wordpools/wasnorm_wordpool.txt	LTP118	ltpFR	14	12	0	BATHTUB	100	n/a	1	0	0.5869140625	0.422607421875	lower	../fonts/zerothre.ttf
2139401	WORD	wordpools/wasnorm_wordpool.txt	LTP118	ltpFR	14	12	0	JUG	762	n/a	0	0	0.5869140625	0.422607421875	lower	../fonts/zerothre.ttf
2143267	WORD	wordpools/wasnorm_wordpool.txt	LTP118	ltpFR	14	12	0	DAUGHTER	442	n/a	0	0	0.5869140625	0.422607421875	lower	../fonts/zerothre.ttf
2147373	WORD	wordpools/wasnorm_wordpool.txt	LTP118	ltpFR	14	12	0	BLOSSOM	138	n/a	0	0	0.5869140625	0.422607421875	lower	../fonts/zerothre.ttf
2151372	WORD	wordpools/wasnorm_wordpool.txt	LTP118	ltpFR	14	12	0	NURSERY	964	n/a	1	0	0.5869140625	0.422607421875	lower	../fonts/zerothre.ttf
2155205	WORD	wordpools/wasnorm_wordpool.txt	LTP118	ltpFR	14	12	0	POLICE	1098	n/a	1	0	0.5869140625	0.422607421875	lower	../fonts/zerothre.ttf
2159053	WORD	wordpools/wasnorm_wordpool.txt	LTP118	ltpFR	14	12	0	CENT	270	n/a	0	0	0.5869140625	0.422607421875	lower	../fonts/zerothre.ttf
2163210	WORD	wordpools/wasnorm_wordpool.txt	LTP118	ltpFR	14	12	0	PAGE	1001	n/a	0	0	0.5869140625	0.422607421875	lower	../fonts/zerothre.ttf
2167299	WORD	wordpools/wasnorm_wordpool.txt	LTP118	ltpFR	14	12	0	MINK	897	n/a	1	0	0.5869140625	0.422607421875	lower	../fonts/zerothre.ttf
2173174	REC_START	n/a	LTP118	ltpFR	14	12	n/a	n/a	n/a	n/a	n/a	n/a	n/a	n/a	n/a	n/a
2175134	REC_WORD	wordpools/wasnorm_wordpool.txt	LTP118	ltpFR	14	12	0	MINK	897	n/a	1	n/a	n/a	n/a	n/a	n/a
2176691	REC_WORD	wordpools/wasnorm_wordpool.txt	LTP118	ltpFR	14	12	n/a	FUR	615	n/a	n/a	n/a	n/a	n/a	n/a	n/a
2179026	REC_WORD	wordpools/wasnorm_wordpool.txt	LTP118	ltpFR	14	12	0	POLICE	1098	n/a	1	n/a	n/a	n/a	n/a	n/a
2180871	REC_WORD	wordpools/wasnorm_wordpool.txt	LTP118	ltpFR	14	12	n/a	DETECTIVE	454	n/a	n/a	n/a	n/a	n/a	n/a	n/a
2189232	REC_WORD	wordpools/wasnorm_wordpool.txt	LTP118	ltpFR	14	12	0	CENT	270	n/a	0	n/a	n/a	n/a	n/a	n/a
2192445	REC_WORD	wordpools/wasnorm_wordpool.txt	LTP118	ltpFR	14	12	0	PAGE	1001	n/a	0	n/a	n/a	n/a	n/a	n/a
2200771	REC_WORD	wordpools/wasnorm_wordpool.txt	LTP118	ltpFR	14	12	0	DAUGHTER	442	n/a	0	n/a	n/a	n/a	n/a	n/a
2205386	REC_WORD	wordpools/wasnorm_wordpool.txt	LTP118	ltpFR	14	12	n/a	SON	-1	n/a	n/a	n/a	n/a	n/a	n/a	n/a
2248771	REST_REWET	n/a	LTP118	ltpFR	14	12	n/a	n/a	n/a	n/a	n/a	n/a	n/a	n/a	n/a	n/a
2599948	WORD	wordpools/wasnorm_wordpool.txt	LTP118	ltpFR	14	13	1	CLAM	315	n/a	1	1	0.412841796875	0.57763671875	upper	../fonts/amplitud.ttf
2604071	WORD	wordpools/wasnorm_wordpool.txt	LTP118	ltpFR	14	13	1	TAXI	1438	n/a	0	1	0.412841796875	0.57763671875	upper	../fonts/amplitud.ttf
2607945	WORD	wordpools/wasnorm_wordpool.txt	LTP118	ltpFR	14	13	1	FUNGUS	614	n/a	1	1	0.412841796875	0.57763671875	upper	../fonts/amplitud.ttf
2611969	WORD	wordpools/wasnorm_wordpool.txt	LTP118	ltpFR	14	13	1	OFFICE	972	n/a	0	1	0.412841796875	0.57763671875	upper	../fonts/amplitud.ttf
2615841	WORD	wordpools/wasnorm_wordpool.txt	LTP118	ltpFR	14	13	1	MARKET	871	n/a	0	1	0.412841796875	0.57763671875	upper	../fonts/amplitud.ttf
2619773	WORD	wordpools/wasnorm_wordpool.txt	LTP118	ltpFR	14	13	1	TORTOISE	1486	n/a	1	1	0.412841796875	0.57763671875	upper	../fonts/amplitud.ttf
2623772	WORD	wordpools/wasnorm_wordpool.txt	LTP118	ltpFR	14	13	1	MECHANIC	884	n/a	1	1	0.412841796875	0.57763671875	upper	../fonts/amplitud.ttf
2627695	WORD	wordpools/wasnorm_wordpool.txt	LTP118	ltpFR	14	13	1	RADIATOR	1156	n/a	0	1	0.412841796875	0.57763671875	upper	../fonts/amplitud.ttf
2631902	WORD	wordpools/wasnorm_wordpool.txt	LTP118	ltpFR	14	13	1	PUMP	1141	n/a	0	1	0.412841796875	0.57763671875	upper	../fonts/amplitud.ttf
2635943	WORD	wordpools/wasnorm_wordpool.txt	LTP118	ltpFR	14	13	1	PUCK	1138	n/a	0	1	0.412841796875	0.57763671875	upper	../fonts/amplitud.ttf
2639791	WORD	wordpools/wasnorm_wordpool.txt	LTP118	ltpFR	14	13	1	COB	334	n/a	0	1	0.412841796875	0.57763671875	upper	../fonts/amplitud.ttf
2643898	WORD	wordpools/wasnorm_wordpool.txt	LTP118	ltpFR	14	13	1	DESSERT	453	n/a	0	1	0.412841796875	0.57763671875	upper	../fonts/amplitud.ttf
2647730	WORD	wordpools/wasnorm_wordpool.txt	LTP118	ltpFR	14	13	1	SUITCASE	1403	n/a	0	1	0.412841796875	0.57763671875	upper	../fonts/amplitud.ttf
2651645	WORD	wordpools/wasnorm_wordpool.txt	LTP118	ltpFR	14	13	1	TOURIST	1488	n/a	1	1	0.412841796875	0.57763671875	upper	../fonts/amplitud.ttf
2655810	WORD	wordpools/wasnorm_wordpool.txt	LTP118	ltpFR	14	13	1	CARAVAN	242	n/a	0	1	0.412841796875	0.57763671875	upper	../fonts/amplitud.ttf
2659927	WORD	wordpools/wasnorm_wordpool.txt	LTP118	ltpFR	14	13	1	SHORTCAKE	1292	n/a	0	1	0.412841796875	0.57763671875	upper	../fonts/amplitud.ttf
2665967	REC_START	n/a	LTP118	ltpFR	14	13	n/a	n/a	n/a	n/a	n/a	n/a	n/a	n/a	n/a	n/a
2667049	REC_WORD	wordpools/wasnorm_wordpool.txt	LTP118	ltpFR	14	13	1	SHORTCAKE	1292	n/a	0	n/a	n/a	n/a	n/a	n/a
2668715	REC_WORD	wordpools/wasnorm_wordpool.txt	LTP118	ltpFR	14	13	1	MECHANIC	884	n/a	1	n/a	n/a	n/a	n/a	n/a
2670462	REC_WORD	wordpools/wasnorm_wordpool.txt	LTP118	ltpFR	14	13	n/a	CAR	241	n/a	n/a	n/a	n/a	n/a	n/a	n/a
2680768	REC_WORD	wordpools/wasnorm_wordpool.txt	LTP118	ltpFR	14	13	1	CLAM	315	n/a	1	n/a	n/a	n/a	n/a	n/a
2682484	REC_WORD	wordpools/wasnorm_wordpool.txt	LTP118	ltpFR	14	13	n/a	MUSSEL	-1	n/a	n/a	n/a	n/a	n/a	n/a	n/a
2689029	REC_WORD	wordpools/wasnorm_wordpool.txt	LTP118	ltpFR	14	13	1	OFFICE	972	n/a	0	n/a	n/a	n/a	n/a	n/a
2694223	REC_WORD	wordpools/wasnorm_wordpool.txt	LTP118	ltpFR	14	13	1	PUMP	1141	n/a	0	n/a	n/a	n/a	n/a	n/a
2699555	REC_WORD	wordpools/wasnorm_wordpool.txt	LTP118	ltpFR	14	13	1	DESSERT	453	n/a	0	n/a	n/a	n/a	n/a	n/a
2701561	REC_WORD	wordpools/wasnorm_wordpool.txt	LTP118	ltpFR	14	13	1	SHORTCAKE	1292	n/a	0	n/a	n/a	n/a	n/a	n/a
2835115	WORD	wordpools/wasnorm_wordpool.txt	LTP118	ltpFR	14	14	1	GIRAFFE	636	n/a	1	1	0.412841796875	0.57763671875	upper	../fonts/amplitud.ttf
2839005	WORD	wordpools/wasnorm_wordpool.txt	LTP118	ltpFR	14	14	1	GOVERNOR	651	n/a	1	1	0.412841796875	0.57763671875	upper	../fonts/amplitud.ttf
2842911	WORD	wordpools/wasnorm_wordpool.txt	LTP118	ltpFR	14	14	1	DINNER	468	n/a	0	1	0.412841796875	0.57763671875	upper	../fonts/amplitud.ttf
2846785	WORD	wordpools/wasnorm_wordpool.txt	LTP118	ltpFR	14	14	1	PILOT	1070	n/a	1	1	0.412841796875	0.57763671875	upper	../fonts/amplitud.ttf
2850968	WORD	wordpools/wasnorm_wordpool.txt	LTP118	ltpFR	14	14	1	SENATOR	1268	n/a	1	1	0.412841796875	0.57763671875	upper	../fonts/amplitud.ttf
2854890	WORD	wordpools/wasnorm_wordpool.txt	LTP118	ltpFR	14	14	1	CLOUD	328	n/a	0	1	0.412841796875	0.57763671875	upper	../fonts/amplitud.ttf
2858889	WORD	wordpools/wasnorm_wordpool.txt	LTP118	ltpFR	14	14	1	PEPPER	1047	n/a	0	1	0.412841796875	0.57763671875	upper	../fonts/amplitud.ttf
2862980	WORD	wordpools/wasnorm_wordpool.txt	LTP118	ltpFR	14	14	1	OREGANO	983	n/a	0	1	0.412841796875	0.57763671875	upper	../fonts/amplitud.ttf
2867170	WORD	wordpools/wasnorm_wordpool.txt	LTP118	ltpFR	14	14	1	SCREWDRIVER	1255	n/a	0	1	0.412841796875	0.57763671875	upper	../fonts/amplitud.ttf
2871011	WORD	wordpools/wasnorm_wordpool.txt	LTP118	ltpFR	14	14	1	TACK	1428	n/a	0	1	0.412841796875	0.57763671875	upper	../fonts/amplitud.ttf
2874951	WORD	wordpools/wasnorm_wordpool.txt	LTP118	ltpFR	14	14	1	ACID	2	n/a	0	1	0.412841796875	0.57763671875	upper	../fonts/amplitud.ttf
2878890	WORD	wordpools/wasnorm_wordpool.txt	LTP118	ltpFR	14	14	1	SKILLET	1317	n/a	0	1	0.412841796875	0.57763671875	upper	../fonts/amplitud.ttf
2882956	WORD	wordpools/wasnorm_wordpool.txt	LTP118	ltpFR	14	14	1	STORE	1387	n/a	0	1	0.412841796875	0.57763671875	upper	../fonts/amplitud.ttf
2886787	WORD	wordpools/wasnorm_wordpool.txt	LTP118	ltpFR	14	14	1	OWNER	993	n/a	1	1	0.412841796875	0.57763671875	upper	../fonts/amplitud.ttf
2890628	WORD	wordpools/wasnorm_wordpool.txt	LTP118	ltpFR	14	14	1	ATMOSPHERE	54	n/a	0	1	0.412841796875	0.57763671875	upper	../fonts/amplitud.ttf
2894651	WORD	wordpools/wasnorm_wordpool.txt	LTP118	ltpFR	14	14	1	DRUG	501	n/a	0	1	0.412841796875	0.57763671875	upper	../fonts/amplitud.ttf
2900492	REC_START	n/a	LTP118	ltpFR	14	14	n/a	n/a	n/a	n/a	n/a	n/a	n/a	n/a	n/a	n/a
2901505	REC_WORD	wordpools/wasnorm_wordpool.txt	LTP118	ltpFR	14	14	1	DRUG	501	n/a	0	n/a	n/a	n/a	n/a	n/a
2902951	REC_WORD	wordpools/wasnorm_wordpool.txt	LTP118	ltpFR	14	14	1	ACID	2	n/a	0	n/a	n/a	n/a	n/a	n/a
2910514	REC_WORD	wordpools/wasnorm_wordpool.txt	LTP118	ltpFR	14	14	1	TACK	1428	n/a	0	n/a	n/a	n/a	n/a	n/a
2911861	REC_WORD	wordpools/wasnorm_wordpool.txt	LTP118	ltpFR	14	14	-1	THUMB	1462	n/a	-1	n/a	n/a	n/a	n/a	n/a
2913767	REC_WORD	wordpools/wasnorm_wordpool.txt	LTP118	ltpFR	14	14	1	GIRAFFE	636	n/a	1	n/a	n/a	n/a	n/a	n/a
2930778	REC_WORD	wordpools/wasnorm_wordpool.txt	LTP118	ltpFR	14	14	1	SCREWDRIVER	1255	n/a	0	n/a	n/a	n/a	n/a	n/a
2945939	REC_WORD	wordpools/wasnorm_wordpool.txt	LTP118	ltpFR	14	14	1	GIRAFFE	636	n/a	1	n/a	n/a	n/a	n/a	n/a
2958894	REC_WORD	wordpools/wasnorm_wordpool.txt	LTP118	ltpFR	14	14	1	GOVERNOR	651	n/a	1	n/a	n/a	n/a	n/a	n/a
2960281	REC_WORD	wordpools/wasnorm_wordpool.txt	LTP118	ltpFR	14	14	1	SENATOR	1268	n/a	1	n/a	n/a	n/a	n/a	n/a
2965010	REC_WORD	wordpools/wasnorm_wordpool.txt	LTP118	ltpFR	14	14	1	OWNER	993	n/a	1	n/a	n/a	n/a	n/a	n/a
2966227	REC_WORD	wordpools/wasnorm_wordpool.txt	LTP118	ltpFR	14	14	1	STORE	1387	n/a	0	n/a	n/a	n/a	n/a	n/a
3097613	WORD	wordpools/wasnorm_wordpool.txt	LTP118	ltpFR	14	15	0	TANGERINE	1431	n/a	0	0	0.5869140625	0.422607421875	lower	../fonts/zerothre.ttf
3101770	WORD	wordpools/wasnorm_wordpool.txt	LTP118	ltpFR	14	15	0	BLUEBERRY	140	n/a	0	0	0.5869140625	0.422607421875	lower	../fonts/zerothre.ttf
3105843	WORD	wordpools/wasnorm_wordpool.txt	LTP118	ltpFR	14	15	0	HOUND	724	n/a	1	0	0.5869140625	0.422607421875	lower	../fonts/zerothre.ttf
3109725	WORD	wordpools/wasnorm_wordpool.txt	LTP118	ltpFR	14	15	1	SHEEP	1278	n/a	0	1	0.412841796875	0.57763671875	upper	../fonts/amplitud.ttf
3113707	WORD	wordpools/wasnorm_wordpool.txt	LTP118	ltpFR	14	15	1	BROCCOLI	176	n/a	0	1	0.412841796875	0.57763671875	upper	../fonts/amplitud.ttf
3117814	WORD	wordpools/wasnorm_wordpool.txt	LTP118	ltpFR	14	15	1	FIREPLACE	570	n/a	0	1	0.412841796875	0.57763671875	upper	../fonts/amplitud.ttf
3121879	WORD	wordpools/wasnorm_wordpool.txt	LTP118	ltpFR	14	15	1	AUNT	60	n/a	1	1	0.412841796875	0.57763671875	upper	../fonts/amplitud.ttf
3125911	WORD	wordpools/wasnorm_wordpool.txt	LTP118	ltpFR	14	15	1	CITRUS	313	n/a	1	1	0.412841796875	0.57763671875	upper	../fonts/amplitud.ttf
3129986	WORD	wordpools/wasnorm_wordpool.txt	LTP118	ltpFR	14	15	0	VOLLEYBALL	1576	n/a	0	0	0.5869140625	0.422607421875	lower	../fonts/zerothre.ttf
3134159	WORD	wordpools/wasnorm_wordpool.txt	LTP118	ltpFR	14	15	0	MOTH	920	n/a	0	0	0.5869140625	0.422607421875	lower	../fonts/zerothre.ttf
3138315	WORD	wordpools/wasnorm_wordpool.txt	LTP118	ltpFR	14	15	0	COCOON	339	n/a	0	0	0.5869140625	0.422607421875	lower	../fonts/zerothre.ttf
3142339	WORD	wordpools/wasnorm_wordpool.txt	LTP118	ltpFR	14	15	1	SHERIFF	1284	n/a	1	1	0.412841796875	0.57763671875	upper	../fonts/amplitud.ttf
3146463	WORD	wordpools/wasnorm_wordpool.txt	LTP118	ltpFR	14	15	1	TOWER	1490	n/a	1	1	0.412841796875	0.57763671875	upper	../fonts/amplitud.ttf
3150344	WORD	wordpools/wasnorm_wordpool.txt	LTP118	ltpFR	14	15	1	LETTUCE	814	n/a	0	1	0.412841796875	0.57763671875	upper	../fonts/amplitud.ttf
3154385	WORD	wordpools/wasnorm_wordpool.txt	LTP118	ltpFR	14	15	0	BASKETBALL	96	n/a	0	0	0.5869140625	0.422607421875	lower	../fonts/zerothre.ttf
3158218	WORD	wordpools/wasnorm_wordpool.txt	LTP118	ltpFR	14	15	0	CACTUS	215	n/a	1	0	0.5869140625	0.422607421875	lower	../fonts/zerothre.ttf
3164083	REC_START	n/a	LTP118	ltpFR	14	15	n/a	n/a	n/a	n/a	n/a	n/a	n/a	n/a	n/a	n/a
3165170	REC_WORD	wordpools/wasnorm_wordpool.txt	LTP118	ltpFR	14	15	0	CACTUS	215	n/a	1	n/a	n/a	n/a	n/a	n/a
3167470	REC_WORD	wordpools/wasnorm_wordpool.txt	LTP118	ltpFR	14	15	0	VOLLEYBALL	1576	n/a	0	n/a	n/a	n/a	n/a	n/a
3169007	REC_WORD	wordpools/wasnorm_wordpool.txt	LTP118	ltpFR	14	15	n/a	FOOTBALL	591	n/a	n/a	n/a	n/a	n/a	n/a	n/a
3170393	REC_WORD	wordpools/wasnorm_wordpool.txt	LTP118	ltpFR	14	15	1	FIREPLACE	570	n/a	0	n/a	n/a	n/a	n/a	n/a
3174354	REC_WORD	wordpools/wasnorm_wordpool.txt	LTP118	ltpFR	14	15	1	SHEEP	1278	n/a	0	n/a	n/a	n/a	n/a	n/a
3175731	REC_WORD	wordpools/wasnorm_wordpool.txt	LTP118	ltpFR	14	15	n/a	WOOL	-1	n/a	n/a	n/a	n/a	n/a	n/a	n/a
3184352	REC_WORD	wordpools/wasnorm_wordpool.txt	LTP118	ltpFR	14	15	1	TOWER	1490	n/a	1	n/a	n/a	n/a	n/a	n/a
3355764	WORD	wordpools/wasnorm_wordpool.txt	LTP118	ltpFR	14	16	0	BOUQUET	157	n/a	0	0	0.5869140625	0.422607421875	lower	../fonts/zerothre.ttf
3359587	WORD	wordpools/wasnorm_wordpool.txt	LTP118	ltpFR	14	16	0	LACE	792	n/a	0	0	0.5869140625	0.422607421875	lower	../fonts/zerothre.ttf
3363411	WORD	wordpools/wasnorm_wordpool.txt	LTP118	ltpFR	14	16	0	PLUMBER	1091	n/a	1	0	0.5869140625	0.422607421875	lower	../fonts/zerothre.ttf
3367551	WORD	wordpools/wasnorm_wordpool.txt	LTP118	ltpFR	14	16	1	SCALLOP	1242	n/a	1	1	0.412841796875	0.57763671875	upper	../fonts/amplitud.ttf
3371558	WORD	wordpools/wasnorm_wordpool.txt	LTP118	ltpFR	14	16	1	HOOK	715	n/a	0	1	0.412841796875	0.57763671875	upper	../fonts/amplitud.ttf
3375473	WORD	wordpools/wasnorm_wordpool.txt	LTP118	ltpFR	14	16	1	TUBA	1515	n/a	0	1	0.412841796875	0.57763671875	upper	../fonts/amplitud.ttf
3379489	WORD	wordpools/wasnorm_wordpool.txt	LTP118	ltpFR	14	16	1	CLARINET	317	n/a	0	1	0.412841796875	0.57763671875	upper	../fonts/amplitud.ttf
3383312	WORD	wordpools/wasnorm_wordpool.txt	LTP118	ltpFR	14	16	0	BANDIT	81	n/a	1	0	0.5869140625	0.422607421875	lower	../fonts/zerothre.ttf
3387229	WORD	wordpools/wasnorm_wordpool.txt	LTP118	ltpFR	14	16	0	GATE	625	n/a	0	0	0.5869140625	0.422607421875	lower	../fonts/zerothre.ttf
3391194	WORD	wordpools/wasnorm_wordpool.txt	LTP118	ltpFR	14	16	0	GRASSHOPPER	656	n/a	0	0	0.5869140625	0.422607421875	lower	../fonts/zerothre.ttf
3395076	WORD	wordpools/wasnorm_wordpool.txt	LTP118	ltpFR	14	16	0	ZEBRA	1635	n/a	1	0	0.5869140625	0.422607421875	lower	../fonts/zerothre.ttf
3399116	WORD	wordpools/wasnorm_wordpool.txt	LTP118	ltpFR	14	16	0	KNOB	787	n/a	0	0	0.5869140625	0.422607421875	lower	../fonts/zerothre.ttf
3403240	WORD	wordpools/wasnorm_wordpool.txt	LTP118	ltpFR	14	16	1	DELINQUENT	445	n/a	1	1	0.412841796875	0.57763671875	upper	../fonts/amplitud.ttf
3407080	WORD	wordpools/wasnorm_wordpool.txt	LTP118	ltpFR	14	16	1	HORSE	719	n/a	1	1	0.412841796875	0.57763671875	upper	../fonts/amplitud.ttf
3411137	WORD	wordpools/wasnorm_wordpool.txt	LTP118	ltpFR	14	16	1	PLANET	1082	n/a	0	1	0.412841796875	0.57763671875	upper	../fonts/amplitud.ttf
3415293	WORD	wordpools/wasnorm_wordpool.txt	LTP118	ltpFR	14	16	1	CATERPILLAR	259	n/a	1	1	0.412841796875	0.57763671875	upper	../fonts/amplitud.ttf
3421267	REC_START	n/a	LTP118	ltpFR	14	16	n/a	n/a	n/a	n/a	n/a	n/a	n/a	n/a	n/a	n/a
3422309	REC_WORD	wordpools/wasnorm_wordpool.txt	LTP118	ltpFR	14	16	1	CATERPILLAR	259	n/a	1	n/a	n/a	n/a	n/a	n/a
3424998	REC_WORD	wordpools/wasnorm_wordpool.txt	LTP118	ltpFR	14	16	1	DELINQUENT	445	n/a	1	n/a	n/a	n/a	n/a	n/a
3426111	REC_WORD	wordpools/wasnorm_wordpool.txt	LTP118	ltpFR	14	16	n/a	JUVENILE	767	n/a	n/a	n/a	n/a	n/a	n/a	n/a
3427767	REC_WORD	wordpools/wasnorm_wordpool.txt	LTP118	ltpFR	14	16	1	SCALLOP	1242	n/a	1	n/a	n/a	n/a	n/a	n/a
3429074	REC_WORD	wordpools/wasnorm_wordpool.txt	LTP118	ltpFR	14	16	n/a	POTATO	1115	n/a	n/a	n/a	n/a	n/a	n/a	n/a
3441017	REC_WORD	wordpools/wasnorm_wordpool.txt	LTP118	ltpFR	14	16	0	BANDIT	81	n/a	1	n/a	n/a	n/a	n/a	n/a
3539425	REC_START	n/a	LTP118	ltpFR	14	n/a	n/a	n/a	n/a	n/a	n/a	n/a	n/a	n/a	n/a	n/a
3540143	FFR_REC_WORD	wordpools/wasnorm_wordpool.txt	LTP118	ltpFR	14	n/a	0	PLUMBER	1091	n/a	1	n/a	n/a	n/a	n/a	n/a
3544558	FFR_REC_WORD	wordpools/wasnorm_wordpool.txt	LTP118	ltpFR	14	n/a	-1	ZOO	1637	n/a	-1	n/a	n/a	n/a	n/a	n/a
3545686	FFR_REC_WORD	wordpools/wasnorm_wordpool.txt	LTP118	ltpFR	14	n/a	1	GIRAFFE	636	n/a	1	n/a	n/a	n/a	n/a	n/a
3546993	FFR_REC_WORD	wordpools/wasnorm_wordpool.txt	LTP118	ltpFR	14	n/a	-1	PRAIRIE	1118	n/a	-1	n/a	n/a	n/a	n/a	n/a
3548030	FFR_REC_WORD	wordpools/wasnorm_wordpool.txt	LTP118	ltpFR	14	n/a	n/a	DOG	480	n/a	n/a	n/a	n/a	n/a	n/a	n/a
3549657	FFR_REC_WORD	wordpools/wasnorm_wordpool.txt	LTP118	ltpFR	14	n/a	-1	SEAL	1262	n/a	-1	n/a	n/a	n/a	n/a	n/a
3550994	FFR_REC_WORD	wordpools/wasnorm_wordpool.txt	LTP118	ltpFR	14	n/a	1	WALRUS	1585	n/a	1	n/a	n/a	n/a	n/a	n/a
3552221	FFR_REC_WORD	wordpools/wasnorm_wordpool.txt	LTP118	ltpFR	14	n/a	0	JUG	762	n/a	0	n/a	n/a	n/a	n/a	n/a
3553538	FFR_REC_WORD	wordpools/wasnorm_wordpool.txt	LTP118	ltpFR	14	n/a	1	ACID	2	n/a	0	n/a	n/a	n/a	n/a	n/a
3557783	FFR_REC_WORD	wordpools/wasnorm_wordpool.txt	LTP118	ltpFR	14	n/a	1	LAGOON	795	n/a	0	n/a	n/a	n/a	n/a	n/a
3559165	FFR_REC_WORD	wordpools/wasnorm_wordpool.txt	LTP118	ltpFR	14	n/a	1	SCALLOP	1242	n/a	1	n/a	n/a	n/a	n/a	n/a
3560492	FFR_REC_WORD	wordpools/wasnorm_wordpool.txt	LTP118	ltpFR	14	n/a	1	CLAM	315	n/a	1	n/a	n/a	n/a	n/a	n/a
3565461	FFR_REC_WORD	wordpools/wasnorm_wordpool.txt	LTP118	ltpFR	14	n/a	n/a	MUSSEL	-1	n/a	n/a	n/a	n/a	n/a	n/a	n/a
3568613	FFR_REC_WORD	wordpools/wasnorm_wordpool.txt	LTP118	ltpFR	14	n/a	0	SPY	1360	n/a	1	n/a	n/a	n/a	n/a	n/a
3570030	FFR_REC_WORD	wordpools/wasnorm_wordpool.txt	LTP118	ltpFR	14	n/a	0	AGENT	10	n/a	1	n/a	n/a	n/a	n/a	n/a
3570998	FFR_REC_WORD	wordpools/wasnorm_wordpool.txt	LTP118	ltpFR	14	n/a	0	POLICE	1098	n/a	1	n/a	n/a	n/a	n/a	n/a
3572275	FFR_REC_WORD	wordpools/wasnorm_wordpool.txt	LTP118	ltpFR	14	n/a	-1	WITNESS	1618	n/a	-1	n/a	n/a	n/a	n/a	n/a
3573497	FFR_REC_WORD	wordpools/wasnorm_wordpool.txt	LTP118	ltpFR	14	n/a	n/a	DETECTIVE	454	n/a	n/a	n/a	n/a	n/a	n/a	n/a
3577493	FFR_REC_WORD	wordpools/wasnorm_wordpool.txt	LTP118	ltpFR	14	n/a	1	OWNER	993	n/a	1	n/a	n/a	n/a	n/a	n/a
3582991	FFR_REC_WORD	wordpools/wasnorm_wordpool.txt	LTP118	ltpFR	14	n/a	1	STORE	1387	n/a	0	n/a	n/a	n/a	n/a	n/a
3584867	FFR_REC_WORD	wordpools/wasnorm_wordpool.txt	LTP118	ltpFR	14	n/a	0	BOUQUET	157	n/a	0	n/a	n/a	n/a	n/a	n/a
3589576	FFR_REC_WORD	wordpools/wasnorm_wordpool.txt	LTP118	ltpFR	14	n/a	1	GIRAFFE	636	n/a	1	n/a	n/a	n/a	n/a	n/a
3590953	FFR_REC_WORD	wordpools/wasnorm_wordpool.txt	LTP118	ltpFR	14	n/a	0	ZEBRA	1635	n/a	1	n/a	n/a	n/a	n/a	n/a
3604183	FFR_REC_WORD	wordpools/wasnorm_wordpool.txt	LTP118	ltpFR	14	n/a	0	ZUCCHINI	1638	n/a	0	n/a	n/a	n/a	n/a	n/a
3605869	FFR_REC_WORD	wordpools/wasnorm_wordpool.txt	LTP118	ltpFR	14	n/a	n/a	SAXOPHONE	1240	n/a	n/a	n/a	n/a	n/a	n/a	n/a
3607216	FFR_REC_WORD	wordpools/wasnorm_wordpool.txt	LTP118	ltpFR	14	n/a	1	TUBA	1515	n/a	0	n/a	n/a	n/a	n/a	n/a
3608323	FFR_REC_WORD	wordpools/wasnorm_wordpool.txt	LTP118	ltpFR	14	n/a	1	CLARINET	317	n/a	0	n/a	n/a	n/a	n/a	n/a
3609540	FFR_REC_WORD	wordpools/wasnorm_wordpool.txt	LTP118	ltpFR	14	n/a	n/a	FLUTE	585	n/a	n/a	n/a	n/a	n/a	n/a	n/a
3612743	FFR_REC_WORD	wordpools/wasnorm_wordpool.txt	LTP118	ltpFR	14	n/a	0	SALMON	1227	n/a	1	n/a	n/a	n/a	n/a	n/a
3614200	FFR_REC_WORD	wordpools/wasnorm_wordpool.txt	LTP118	ltpFR	14	n/a	n/a	TUNA	1518	n/a	n/a	n/a	n/a	n/a	n/a	n/a
3640615	FFR_REC_WORD	wordpools/wasnorm_wordpool.txt	LTP118	ltpFR	14	n/a	n/a	DRINK	498	n/a	n/a	n/a	n/a	n/a	n/a	n/a
3646307	FFR_REC_WORD	wordpools/wasnorm_wordpool.txt	LTP118	ltpFR	14	n/a	1	CUBE	420	n/a	0	n/a	n/a	n/a	n/a	n/a
3647684	FFR_REC_WORD	wordpools/wasnorm_wordpool.txt	LTP118	ltpFR	14	n/a	n/a	ICE	730	n/a	n/a	n/a	n/a	n/a	n/a	n/a
3648876	FFR_REC_WORD	wordpools/wasnorm_wordpool.txt	LTP118	ltpFR	14	n/a	1	IGLOO	734	n/a	0	n/a	n/a	n/a	n/a	n/a
3675052	FFR_REC_WORD	wordpools/wasnorm_wordpool.txt	LTP118	ltpFR	14	n/a	1	HERB	704	n/a	0	n/a	n/a	n/a	n/a	n/a
3676598	FFR_REC_WORD	wordpools/wasnorm_wordpool.txt	LTP118	ltpFR	14	n/a	n/a	SALT	1229	n/a	n/a	n/a	n/a	n/a	n/a	n/a
3677895	FFR_REC_WORD	wordpools/wasnorm_wordpool.txt	LTP118	ltpFR	14	n/a	1	PEPPER	1047	n/a	0	n/a	n/a	n/a	n/a	n/a
3678903	FFR_REC_WORD	wordpools/wasnorm_wordpool.txt	LTP118	ltpFR	14	n/a	1	OREGANO	983	n/a	0	n/a	n/a	n/a	n/a	n/a
3683612	FFR_REC_WORD	wordpools/wasnorm_wordpool.txt	LTP118	ltpFR	14	n/a	0	PARSLEY	1016	n/a	0	n/a	n/a	n/a	n/a	n/a
3781320	FFR_REC_WORD	wordpools/wasnorm_wordpool.txt	LTP118	ltpFR	14	n/a	1	HERB	704	n/a	0	n/a	n/a	n/a	n/a	n/a
3838251	FFR_REC_WORD	wordpools/wasnorm_wordpool.txt	LTP118	ltpFR	14	n/a	1	SHEEP	1278	n/a	0	n/a	n/a	n/a	n/a	n/a
3868809	REC_START	n/a	LTP118	ltpFR	14	1	n/a	n/a	n/a	n/a	n/a	n/a	n/a	n/a	n/a	n/a
3868841	RECOG_TARGET	n/a	LTP118	ltpFR	14	1	1	FLEA	577	3	1	n/a	n/a	n/a	n/a	n/a
3869502	RECOG_RESP	n/a	LTP118	ltpFR	14	1	1	FLEA	577	n/a	1	n/a	n/a	n/a	n/a	n/a
3870640	RECOG_CONF	n/a	LTP118	ltpFR	14	1	1	FLEA	577	3	1	n/a	n/a	n/a	n/a	n/a
3871925	RECOG_LURE	n/a	LTP118	ltpFR	14	1	n/a	DAGGER	434	1	n/a	n/a	n/a	n/a	n/a	n/a
3872151	RECOG_RESP	n/a	LTP118	ltpFR	14	1	n/a	DAGGER	434	n/a	n/a	n/a	n/a	n/a	n/a	n/a
3873034	RECOG_CONF	n/a	LTP118	ltpFR	14	1	n/a	DAGGER	434	1	n/a	n/a	n/a	n/a	n/a	n/a
3874306	RECOG_TARGET	n/a	LTP118	ltpFR	14	1	-1	THUMB	1462	3	-1	n/a	n/a	n/a	n/a	n/a
3874785	RECOG_RESP	n/a	LTP118	ltpFR	14	1	-1	THUMB	1462	n/a	-1	n/a	n/a	n/a	n/a	n/a
3875598	RECOG_CONF	n/a	LTP118	ltpFR	14	1	-1	THUMB	1462	3	-1	n/a	n/a	n/a	n/a	n/a
3876813	RECOG_TARGET	n/a	LTP118	ltpFR	14	1	1	AUNT	60	4	1	n/a	n/a	n/a	n/a	n/a
3877344	RECOG_RESP	n/a	LTP118	ltpFR	14	1	1	AUNT	60	n/a	1	n/a	n/a	n/a	n/a	n/a
3878053	RECOG_CONF	n/a	LTP118	ltpFR	14	1	1	AUNT	60	4	1	n/a	n/a	n/a	n/a	n/a
3879329	RECOG_TARGET	n/a	LTP118	ltpFR	14	1	-1	ATHLETE	52	5	-1	n/a	n/a	n/a	n/a	n/a
3879759	RECOG_RESP	n/a	LTP118	ltpFR	14	1	-1	ATHLETE	52	n/a	-1	n/a	n/a	n/a	n/a	n/a
3880427	RECOG_CONF	n/a	LTP118	ltpFR	14	1	-1	ATHLETE	52	5	-1	n/a	n/a	n/a	n/a	n/a
3881737	RECOG_TARGET	n/a	LTP118	ltpFR	14	1	1	SUITCASE	1403	4	0	n/a	n/a	n/a	n/a	n/a
3882288	RECOG_RESP	n/a	LTP118	ltpFR	14	1	1	SUITCASE	1403	n/a	0	n/a	n/a	n/a	n/a	n/a
3882852	RECOG_CONF	n/a	LTP118	ltpFR	14	1	1	SUITCASE	1403	4	0	n/a	n/a	n/a	n/a	n/a
3884278	RECOG_TARGET	n/a	LTP118	ltpFR	14	1	1	CLAM	315	3	1	n/a	n/a	n/a	n/a	n/a
3884797	RECOG_RESP	n/a	LTP118	ltpFR	14	1	1	CLAM	315	n/a	1	n/a	n/a	n/a	n/a	n/a
3885476	RECOG_CONF	n/a	LTP118	ltpFR	14	1	1	CLAM	315	3	1	n/a	n/a	n/a	n/a	n/a
3886810	RECOG_TARGET	n/a	LTP118	ltpFR	14	1	1	CATERPILLAR	259	4	1	n/a	n/a	n/a	n/a	n/a
3887342	RECOG_RESP	n/a	LTP118	ltpFR	14	1	1	CATERPILLAR	259	n/a	1	n/a	n/a	n/a	n/a	n/a
3887910	RECOG_CONF	n/a	LTP118	ltpFR	14	1	1	CATERPILLAR	259	4	1	n/a	n/a	n/a	n/a	n/a
3889202	RECOG_LURE	n/a	LTP118	ltpFR	14	1	n/a	SCOUT	1252	2	n/a	n/a	n/a	n/a	n/a	n/a
3889836	RECOG_RESP	n/a	LTP118	ltpFR	14	1	n/a	SCOUT	1252	n/a	n/a	n/a	n/a	n/a	n/a	n/a
3890425	RECOG_CONF	n/a	LTP118	ltpFR	14	1	n/a	SCOUT	1252	2	n/a	n/a	n/a	n/a	n/a	n/a
3891758	RECOG_TARGET	n/a	LTP118	ltpFR	14	1	-1	PISTON	1076	3	-1	n/a	n/a	n/a	n/a	n/a
3892685	RECOG_RESP	n/a	LTP118	ltpFR	14	1	-1	PISTON	1076	n/a	-1	n/a	n/a	n/a	n/a	n/a
3893328	RECOG_CONF	n/a	LTP118	ltpFR	14	1	-1	PISTON	1076	3	-1	n/a	n/a	n/a	n/a	n/a
3894765	RECOG_TARGET	n/a	LTP118	ltpFR	14	1	0	SUN	1406	4	1	n/a	n/a	n/a	n/a	n/a
3895244	RECOG_RESP	n/a	LTP118	ltpFR	14	1	0	SUN	1406	n/a	1	n/a	n/a	n/a	n/a	n/a
3895743	RECOG_CONF	n/a	LTP118	ltpFR	14	1	0	SUN	1406	4	1	n/a	n/a	n/a	n/a	n/a
3897116	RECOG_TARGET	n/a	LTP118	ltpFR	14	1	1	SWING	1421	5	0	n/a	n/a	n/a	n/a	n/a
3897598	RECOG_RESP	n/a	LTP118	ltpFR	14	1	1	SWING	1421	n/a	0	n/a	n/a	n/a	n/a	n/a
3898247	RECOG_CONF	n/a	LTP118	ltpFR	14	1	1	SWING	1421	5	0	n/a	n/a	n/a	n/a	n/a
3899689	RECOG_LURE	n/a	LTP118	ltpFR	14	1	n/a	PLASTER	1085	1	n/a	n/a	n/a	n/a	n/a	n/a
3899948	RECOG_RESP	n/a	LTP118	ltpFR	14	1	n/a	PLASTER	1085	n/a	n/a	n/a	n/a	n/a	n/a	n/a
3900622	RECOG_CONF	n/a	LTP118	ltpFR	14	1	n/a	PLASTER	1085	1	n/a	n/a	n/a	n/a	n/a	n/a
3901855	RECOG_TARGET	n/a	LTP118	ltpFR	14	1	0	PIT	1077	3	1	n/a	n/a	n/a	n/a	n/a
3902228	RECOG_RESP	n/a	LTP118	ltpFR	14	1	0	PIT	1077	n/a	1	n/a	n/a	n/a	n/a	n/a
3902797	RECOG_CONF	n/a	LTP118	ltpFR	14	1	0	PIT	1077	3	1	n/a	n/a	n/a	n/a	n/a
3904063	RECOG_LURE	n/a	LTP118	ltpFR	14	1	n/a	WART	1590	2	n/a	n/a	n/a	n/a	n/a	n/a
3904363	RECOG_RESP_VV	n/a	LTP118	ltpFR	14	1	n/a	WART	1590	n/a	n/a	n/a	n/a	n/a	n/a	n/a
3904827	RECOG_RESP	n/a	LTP118	ltpFR	14	1	n/a	WART	1590	n/a	n/a	n/a	n/a	n/a	n/a	n/a
3905480	RECOG_CONF	n/a	LTP118	ltpFR	14	1	n/a	WART	1590	2	n/a	n/a	n/a	n/a	n/a	n/a
3906786	RECOG_TARGET	n/a	LTP118	ltpFR	14	1	-1	SHINGLE	1285	1	-1	n/a	n/a	n/a	n/a	n/a
3907142	RECOG_RESP	n/a	LTP118	ltpFR	14	1	-1	SHINGLE	1285	n/a	-1	n/a	n/a	n/a	n/a	n/a
3908045	RECOG_CONF	n/a	LTP118	ltpFR	14	1	-1	SHINGLE	1285	1	-1	n/a	n/a	n/a	n/a	n/a
3909394	RECOG_TARGET	n/a	LTP118	ltpFR	14	1	1	SERVER	1272	1	1	n/a	n/a	n/a	n/a	n/a
3909636	RECOG_RESP	n/a	LTP118	ltpFR	14	1	1	SERVER	1272	n/a	1	n/a	n/a	n/a	n/a	n/a
3910309	RECOG_CONF	n/a	LTP118	ltpFR	14	1	1	SERVER	1272	1	1	n/a	n/a	n/a	n/a	n/a
3911560	RECOG_LURE	n/a	LTP118	ltpFR	14	1	n/a	MAILBOX	857	1	n/a	n/a	n/a	n/a	n/a	n/a
3911562	RECOG_RESP	n/a	LTP118	ltpFR	14	1	n/a	MAILBOX	857	n/a	n/a	n/a	n/a	n/a	n/a	n/a
3912714	RECOG_CONF	n/a	LTP118	ltpFR	14	1	n/a	MAILBOX	857	1	n/a	n/a	n/a	n/a	n/a	n/a
3913968	RECOG_LURE	n/a	LTP118	ltpFR	14	1	n/a	SPIT	1354	3	n/a	n/a	n/a	n/a	n/a	n/a
3914555	RECOG_RESP	n/a	LTP118	ltpFR	14	1	n/a	SPIT	1354	n/a	n/a	n/a	n/a	n/a	n/a	n/a
3915119	RECOG_CONF	n/a	LTP118	ltpFR	14	1	n/a	SPIT	1354	3	n/a	n/a	n/a	n/a	n/a	n/a
3916399	RECOG_LURE	n/a	LTP118	ltpFR	14	1	n/a	BUTCHER	203	2	n/a	n/a	n/a	n/a	n/a	n/a
3916895	RECOG_RESP	n/a	LTP118	ltpFR	14	1	n/a	BUTCHER	203	n/a	n/a	n/a	n/a	n/a	n/a	n/a
3917713	RECOG_CONF	n/a	LTP118	ltpFR	14	1	n/a	BUTCHER	203	2	n/a	n/a	n/a	n/a	n/a	n/a
3931333	REC_START	n/a	LTP118	ltpFR	14	2	n/a	n/a	n/a	n/a	n/a	n/a	n/a	n/a	n/a	n/a
3931369	RECOG_TARGET	n/a	LTP118	ltpFR	14	2	-1	WALLET	1583	3	-1	n/a	n/a	n/a	n/a	n/a
3931737	RECOG_RESP	n/a	LTP118	ltpFR	14	2	-1	WALLET	1583	n/a	-1	n/a	n/a	n/a	n/a	n/a
3932445	RECOG_CONF	n/a	LTP118	ltpFR	14	2	-1	WALLET	1583	3	-1	n/a	n/a	n/a	n/a	n/a
3933577	RECOG_LURE	n/a	LTP118	ltpFR	14	2	n/a	WINNER	1615	2	n/a	n/a	n/a	n/a	n/a	n/a
3933977	RECOG_RESP_VV	n/a	LTP118	ltpFR	14	2	n/a	WINNER	1615	n/a	n/a	n/a	n/a	n/a	n/a	n/a
3934436	RECOG_RESP	n/a	LTP118	ltpFR	14	2	n/a	WINNER	1615	n/a	n/a	n/a	n/a	n/a	n/a	n/a
3935049	RECOG_CONF	n/a	LTP118	ltpFR	14	2	n/a	WINNER	1615	2	n/a	n/a	n/a	n/a	n/a	n/a
3936342	RECOG_LURE	n/a	LTP118	ltpFR	14	2	n/a	BRUSH	182	1	n/a	n/a	n/a	n/a	n/a	n/a
3936646	RECOG_RESP	n/a	LTP118	ltpFR	14	2	n/a	BRUSH	182	n/a	n/a	n/a	n/a	n/a	n/a	n/a
3937185	RECOG_CONF	n/a	LTP118	ltpFR	14	2	n/a	BRUSH	182	1	n/a	n/a	n/a	n/a	n/a	n/a
3938583	RECOG_TARGET	n/a	LTP118	ltpFR	14	2	-1	GUN	673	3	-1	n/a	n/a	n/a	n/a	n/a
3939100	RECOG_RESP	n/a	LTP118	ltpFR	14	2	-1	GUN	673	n/a	-1	n/a	n/a	n/a	n/a	n/a
3939619	RECOG_CONF	n/a	LTP118	ltpFR	14	2	-1	GUN	673	3	-1	n/a	n/a	n/a	n/a	n/a
3940933	RECOG_TARGET	n/a	LTP118	ltpFR	14	2	0	GATE	625	4	0	n/a	n/a	n/a	n/a	n/a
3941245	RECOG_RESP	n/a	LTP118	ltpFR	14	2	0	GATE	625	n/a	0	n/a	n/a	n/a	n/a	n/a
3941704	RECOG_CONF	n/a	LTP118	ltpFR	14	2	0	GATE	625	4	0	n/a	n/a	n/a	n/a	n/a
3943116	RECOG_TARGET	n/a	LTP118	ltpFR	14	2	1	TENT	1449	1	0	n/a	n/a	n/a	n/a	n/a
3943485	RECOG_RESP	n/a	LTP118	ltpFR	14	2	1	TENT	1449	n/a	0	n/a	n/a	n/a	n/a	n/a
3943999	RECOG_CONF	n/a	LTP118	ltpFR	14	2	1	TENT	1449	1	0	n/a	n/a	n/a	n/a	n/a
3945314	RECOG_LURE	n/a	LTP118	ltpFR	14	2	n/a	BODY	145	2	n/a	n/a	n/a	n/a	n/a	n/a
3945680	RECOG_RESP	n/a	LTP118	ltpFR	14	2	n/a	BODY	145	n/a	n/a	n/a	n/a	n/a	n/a	n/a
3946424	RECOG_CONF	n/a	LTP118	ltpFR	14	2	n/a	BODY	145	2	n/a	n/a	n/a	n/a	n/a	n/a
3947822	RECOG_TARGET	n/a	LTP118	ltpFR	14	2	1	LAPEL	800	3	0	n/a	n/a	n/a	n/a	n/a
3948175	RECOG_RESP	n/a	LTP118	ltpFR	14	2	1	LAPEL	800	n/a	0	n/a	n/a	n/a	n/a	n/a
3948728	RECOG_CONF	n/a	LTP118	ltpFR	14	2	1	LAPEL	800	3	0	n/a	n/a	n/a	n/a	n/a
3950180	RECOG_TARGET	n/a	LTP118	ltpFR	14	2	-1	PUDDLE	1140	4	-1	n/a	n/a	n/a	n/a	n/a
3950569	RECOG_RESP	n/a	LTP118	ltpFR	14	2	-1	PUDDLE	1140	n/a	-1	n/a	n/a	n/a	n/a	n/a
3951093	RECOG_CONF	n/a	LTP118	ltpFR	14	2	-1	PUDDLE	1140	4	-1	n/a	n/a	n/a	n/a	n/a
3952437	RECOG_LURE	n/a	LTP118	ltpFR	14	2	n/a	TOAST	1471	1	n/a	n/a	n/a	n/a	n/a	n/a
3952974	RECOG_RESP	n/a	LTP118	ltpFR	14	2	n/a	TOAST	1471	n/a	n/a	n/a	n/a	n/a	n/a	n/a
3953497	RECOG_CONF	n/a	LTP118	ltpFR	14	2	n/a	TOAST	1471	1	n/a	n/a	n/a	n/a	n/a	n/a
3954811	RECOG_TARGET	n/a	LTP118	ltpFR	14	2	-1	VET	1560	3	-1	n/a	n/a	n/a	n/a	n/a
3955368	RECOG_RESP	n/a	LTP118	ltpFR	14	2	-1	VET	1560	n/a	-1	n/a	n/a	n/a	n/a	n/a
3955942	RECOG_CONF	n/a	LTP118	ltpFR	14	2	-1	VET	1560	3	-1	n/a	n/a	n/a	n/a	n/a
3957244	RECOG_TARGET	n/a	LTP118	ltpFR	14	2	1	PLANET	1082	4	0	n/a	n/a	n/a	n/a	n/a
3957648	RECOG_RESP	n/a	LTP118	ltpFR	14	2	1	PLANET	1082	n/a	0	n/a	n/a	n/a	n/a	n/a
3958157	RECOG_CONF	n/a	LTP118	ltpFR	14	2	1	PLANET	1082	4	0	n/a	n/a	n/a	n/a	n/a
3959476	RECOG_TARGET	n/a	LTP118	ltpFR	14	2	1	REPTILE	1185	3	1	n/a	n/a	n/a	n/a	n/a
3959808	RECOG_RESP	n/a	LTP118	ltpFR	14	2	1	REPTILE	1185	n/a	1	n/a	n/a	n/a	n/a	n/a
3960521	RECOG_CONF	n/a	LTP118	ltpFR	14	2	1	REPTILE	1185	3	1	n/a	n/a	n/a	n/a	n/a
3961792	RECOG_TARGET	n/a	LTP118	ltpFR	14	2	1	TUNNEL	1519	2	0	n/a	n/a	n/a	n/a	n/a
3962198	RECOG_RESP	n/a	LTP118	ltpFR	14	2	1	TUNNEL	1519	n/a	0	n/a	n/a	n/a	n/a	n/a
3962776	RECOG_CONF	n/a	LTP118	ltpFR	14	2	1	TUNNEL	1519	2	0	n/a	n/a	n/a	n/a	n/a
3964034	RECOG_TARGET	n/a	LTP118	ltpFR	14	2	0	FREEWAY	603	5	1	n/a	n/a	n/a	n/a	n/a
3964537	RECOG_RESP	n/a	LTP118	ltpFR	14	2	0	FREEWAY	603	n/a	1	n/a	n/a	n/a	n/a	n/a
3965021	RECOG_CONF	n/a	LTP118	ltpFR	14	2	0	FREEWAY	603	5	1	n/a	n/a	n/a	n/a	n/a
3966307	RECOG_LURE	n/a	LTP118	ltpFR	14	2	n/a	BEARD	107	3	n/a	n/a	n/a	n/a	n/a	n/a
3966967	RECOG_RESP	n/a	LTP118	ltpFR	14	2	n/a	BEARD	107	n/a	n/a	n/a	n/a	n/a	n/a	n/a
3967526	RECOG_CONF	n/a	LTP118	ltpFR	14	2	n/a	BEARD	107	3	n/a	n/a	n/a	n/a	n/a	n/a
3968748	RECOG_TARGET	n/a	LTP118	ltpFR	14	2	0	REPORT	1184	4	0	n/a	n/a	n/a	n/a	n/a
3969142	RECOG_RESP	n/a	LTP118	ltpFR	14	2	0	REPORT	1184	n/a	0	n/a	n/a	n/a	n/a	n/a
3970010	RECOG_CONF	n/a	LTP118	ltpFR	14	2	0	REPORT	1184	4	0	n/a	n/a	n/a	n/a	n/a
3971273	RECOG_TARGET	n/a	LTP118	ltpFR	14	2	-1	DIAL	457	2	-1	n/a	n/a	n/a	n/a	n/a
3971856	RECOG_RESP	n/a	LTP118	ltpFR	14	2	-1	DIAL	457	n/a	-1	n/a	n/a	n/a	n/a	n/a
3972424	RECOG_CONF	n/a	LTP118	ltpFR	14	2	-1	DIAL	457	2	-1	n/a	n/a	n/a	n/a	n/a
3973646	RECOG_TARGET	n/a	LTP118	ltpFR	14	2	1	NEWSSTAND	949	3	0	n/a	n/a	n/a	n/a	n/a
3974205	RECOG_RESP	n/a	LTP118	ltpFR	14	2	1	NEWSSTAND	949	n/a	0	n/a	n/a	n/a	n/a	n/a
3974729	RECOG_CONF	n/a	LTP118	ltpFR	14	2	1	NEWSSTAND	949	3	0	n/a	n/a	n/a	n/a	n/a
3976029	RECOG_LURE	n/a	LTP118	ltpFR	14	2	n/a	PUBLICATION	1136	4	n/a	n/a	n/a	n/a	n/a	n/a
3976650	RECOG_RESP	n/a	LTP118	ltpFR	14	2	n/a	PUBLICATION	1136	n/a	n/a	n/a	n/a	n/a	n/a	n/a
3977144	RECOG_CONF	n/a	LTP118	ltpFR	14	2	n/a	PUBLICATION	1136	4	n/a	n/a	n/a	n/a	n/a	n/a
3997093	REC_START	n/a	LTP118	ltpFR	14	3	n/a	n/a	n/a	n/a	n/a	n/a	n/a	n/a	n/a	n/a
3997122	RECOG_TARGET	n/a	LTP118	ltpFR	14	3	1	OVAL	990	3	0	n/a	n/a	n/a	n/a	n/a
3997816	RECOG_RESP	n/a	LTP118	ltpFR	14	3	1	OVAL	990	n/a	0	n/a	n/a	n/a	n/a	n/a
3998395	RECOG_CONF	n/a	LTP118	ltpFR	14	3	1	OVAL	990	3	0	n/a	n/a	n/a	n/a	n/a
3999612	RECOG_TARGET	n/a	LTP118	ltpFR	14	3	1	DRUG	501	4	0	n/a	n/a	n/a	n/a	n/a
3999876	RECOG_RESP	n/a	LTP118	ltpFR	14	3	1	DRUG	501	n/a	0	n/a	n/a	n/a	n/a	n/a
4000350	RECOG_CONF	n/a	LTP118	ltpFR	14	3	1	DRUG	501	4	0	n/a	n/a	n/a	n/a	n/a
4001744	RECOG_LURE	n/a	LTP118	ltpFR	14	3	n/a	CHEESE	289	2	n/a	n/a	n/a	n/a	n/a	n/a
4002171	RECOG_RESP	n/a	LTP118	ltpFR	14	3	n/a	CHEESE	289	n/a	n/a	n/a	n/a	n/a	n/a	n/a
4002815	RECOG_CONF	n/a	LTP118	ltpFR	14	3	n/a	CHEESE	289	2	n/a	n/a	n/a	n/a	n/a	n/a
4004261	RECOG_LURE	n/a	LTP118	ltpFR	14	3	n/a	SHIP	1286	1	n/a	n/a	n/a	n/a	n/a	n/a
4004576	RECOG_RESP	n/a	LTP118	ltpFR	14	3	n/a	SHIP	1286	n/a	n/a	n/a	n/a	n/a	n/a	n/a
4005080	RECOG_CONF	n/a	LTP118	ltpFR	14	3	n/a	SHIP	1286	1	n/a	n/a	n/a	n/a	n/a	n/a
4006418	RECOG_TARGET	n/a	LTP118	ltpFR	14	3	0	TANGERINE	1431	4	0	n/a	n/a	n/a	n/a	n/a
4006856	RECOG_RESP	n/a	LTP118	ltpFR	14	3	0	TANGERINE	1431	n/a	0	n/a	n/a	n/a	n/a	n/a
4007315	RECOG_CONF	n/a	LTP118	ltpFR	14	3	0	TANGERINE	1431	4	0	n/a	n/a	n/a	n/a	n/a
4008634	RECOG_LURE	n/a	LTP118	ltpFR	14	3	n/a	CAFETERIA	217	1	n/a	n/a	n/a	n/a	n/a	n/a
4009021	RECOG_RESP	n/a	LTP118	ltpFR	14	3	n/a	CAFETERIA	217	n/a	n/a	n/a	n/a	n/a	n/a	n/a
4009540	RECOG_CONF	n/a	LTP118	ltpFR	14	3	n/a	CAFETERIA	217	1	n/a	n/a	n/a	n/a	n/a	n/a
4010874	RECOG_TARGET	n/a	LTP118	ltpFR	14	3	0	FIG	563	3	0	n/a	n/a	n/a	n/a	n/a
4011296	RECOG_RESP	n/a	LTP118	ltpFR	14	3	0	FIG	563	n/a	0	n/a	n/a	n/a	n/a	n/a
4011804	RECOG_CONF	n/a	LTP118	ltpFR	14	3	0	FIG	563	3	0	n/a	n/a	n/a	n/a	n/a
4013141	RECOG_TARGET	n/a	LTP118	ltpFR	14	3	0	PREDATOR	1120	1	1	n/a	n/a	n/a	n/a	n/a
4013635	RECOG_RESP	n/a	LTP118	ltpFR	14	3	0	PREDATOR	1120	n/a	1	n/a	n/a	n/a	n/a	n/a
4014149	RECOG_CONF	n/a	LTP118	ltpFR	14	3	0	PREDATOR	1120	1	1	n/a	n/a	n/a	n/a	n/a
4015415	RECOG_TARGET	n/a	LTP118	ltpFR	14	3	-1	COMMANDER	354	4	-1	n/a	n/a	n/a	n/a	n/a
4015950	RECOG_RESP	n/a	LTP118	ltpFR	14	3	-1	COMMANDER	354	n/a	-1	n/a	n/a	n/a	n/a	n/a
4016384	RECOG_CONF	n/a	LTP118	ltpFR	14	3	-1	COMMANDER	354	4	-1	n/a	n/a	n/a	n/a	n/a
4017755	RECOG_TARGET	n/a	LTP118	ltpFR	14	3	1	MARKET	871	3	0	n/a	n/a	n/a	n/a	n/a
4018494	RECOG_RESP	n/a	LTP118	ltpFR	14	3	1	MARKET	871	n/a	0	n/a	n/a	n/a	n/a	n/a
4019008	RECOG_CONF	n/a	LTP118	ltpFR	14	3	1	MARKET	871	3	0	n/a	n/a	n/a	n/a	n/a
4020172	RECOG_LURE	n/a	LTP118	ltpFR	14	3	n/a	COTTON	385	2	n/a	n/a	n/a	n/a	n/a	n/a
4020884	RECOG_RESP	n/a	LTP118	ltpFR	14	3	n/a	COTTON	385	n/a	n/a	n/a	n/a	n/a	n/a	n/a
4021423	RECOG_CONF	n/a	LTP118	ltpFR	14	3	n/a	COTTON	385	2	n/a	n/a	n/a	n/a	n/a	n/a
4022679	RECOG_TARGET	n/a	LTP118	ltpFR	14	3	1	ANIMAL	23	3	1	n/a	n/a	n/a	n/a	n/a
4023149	RECOG_RESP	n/a	LTP118	ltpFR	14	3	1	ANIMAL	23	n/a	1	n/a	n/a	n/a	n/a	n/a
4023737	RECOG_CONF	n/a	LTP118	ltpFR	14	3	1	ANIMAL	23	3	1	n/a	n/a	n/a	n/a	n/a
4024937	RECOG_LURE	n/a	LTP118	ltpFR	14	3	n/a	HEDGE	699	2	n/a	n/a	n/a	n/a	n/a	n/a
4025478	RECOG_RESP_VV	n/a	LTP118	ltpFR	14	3	n/a	HEDGE	699	n/a	n/a	n/a	n/a	n/a	n/a	n/a
4026092	RECOG_RESP	n/a	LTP118	ltpFR	14	3	n/a	HEDGE	699	n/a	n/a	n/a	n/a	n/a	n/a	n/a
4026730	RECOG_CONF	n/a	LTP118	ltpFR	14	3	n/a	HEDGE	699	2	n/a	n/a	n/a	n/a	n/a	n/a
4028053	RECOG_TARGET	n/a	LTP118	ltpFR	14	3	-1	CLERK	321	3	-1	n/a	n/a	n/a	n/a	n/a
4028412	RECOG_RESP_VV	n/a	LTP118	ltpFR	14	3	-1	CLERK	321	n/a	-1	n/a	n/a	n/a	n/a	n/a
4028995	RECOG_RESP	n/a	LTP118	ltpFR	14	3	-1	CLERK	321	n/a	-1	n/a	n/a	n/a	n/a	n/a
4029634	RECOG_CONF	n/a	LTP118	ltpFR	14	3	-1	CLERK	321	3	-1	n/a	n/a	n/a	n/a	n/a
4031334	RECOG_TARGET	n/a	LTP118	ltpFR	14	3	-1	BALL	73	4	-1	n/a	n/a	n/a	n/a	n/a
4031689	RECOG_RESP	n/a	LTP118	ltpFR	14	3	-1	BALL	73	n/a	-1	n/a	n/a	n/a	n/a	n/a
4032398	RECOG_CONF	n/a	LTP118	ltpFR	14	3	-1	BALL	73	4	-1	n/a	n/a	n/a	n/a	n/a
4033775	RECOG_TARGET	n/a	LTP118	ltpFR	14	3	-1	MOAT	903	3	-1	n/a	n/a	n/a	n/a	n/a
4034328	RECOG_RESP	n/a	LTP118	ltpFR	14	3	-1	MOAT	903	n/a	-1	n/a	n/a	n/a	n/a	n/a
4034852	RECOG_CONF	n/a	LTP118	ltpFR	14	3	-1	MOAT	903	3	-1	n/a	n/a	n/a	n/a	n/a
4036050	RECOG_TARGET	n/a	LTP118	ltpFR	14	3	-1	WHISTLE	1606	2	-1	n/a	n/a	n/a	n/a	n/a
4036598	RECOG_RESP	n/a	LTP118	ltpFR	14	3	-1	WHISTLE	1606	n/a	-1	n/a	n/a	n/a	n/a	n/a
4037097	RECOG_CONF	n/a	LTP118	ltpFR	14	3	-1	WHISTLE	1606	2	-1	n/a	n/a	n/a	n/a	n/a
4038398	RECOG_LURE	n/a	LTP118	ltpFR	14	3	n/a	PERSONNEL	1053	1	n/a	n/a	n/a	n/a	n/a	n/a
4038978	RECOG_RESP	n/a	LTP118	ltpFR	14	3	n/a	PERSONNEL	1053	n/a	n/a	n/a	n/a	n/a	n/a	n/a
4039531	RECOG_CONF	n/a	LTP118	ltpFR	14	3	n/a	PERSONNEL	1053	1	n/a	n/a	n/a	n/a	n/a	n/a
4040822	RECOG_TARGET	n/a	LTP118	ltpFR	14	3	1	DELINQUENT	445	1	1	n/a	n/a	n/a	n/a	n/a
4041387	RECOG_RESP	n/a	LTP118	ltpFR	14	3	1	DELINQUENT	445	n/a	1	n/a	n/a	n/a	n/a	n/a
4042495	RECOG_CONF	n/a	LTP118	ltpFR	14	3	1	DELINQUENT	445	1	1	n/a	n/a	n/a	n/a	n/a
4043939	RECOG_TARGET	n/a	LTP118	ltpFR	14	3	0	GUARD	667	2	1	n/a	n/a	n/a	n/a	n/a
4044161	RECOG_RESP	n/a	LTP118	ltpFR	14	3	0	GUARD	667	n/a	1	n/a	n/a	n/a	n/a	n/a
4045039	RECOG_CONF	n/a	LTP118	ltpFR	14	3	0	GUARD	667	2	1	n/a	n/a	n/a	n/a	n/a
4074205	REC_START	n/a	LTP118	ltpFR	14	4	n/a	n/a	n/a	n/a	n/a	n/a	n/a	n/a	n/a	n/a
4074236	RECOG_LURE	n/a	LTP118	ltpFR	14	4	n/a	HARE	688	3	n/a	n/a	n/a	n/a	n/a	n/a
4074878	RECOG_RESP	n/a	LTP118	ltpFR	14	4	n/a	HARE	688	n/a	n/a	n/a	n/a	n/a	n/a	n/a
4075477	RECOG_CONF	n/a	LTP118	ltpFR	14	4	n/a	HARE	688	3	n/a	n/a	n/a	n/a	n/a	n/a
4076585	RECOG_TARGET	n/a	LTP118	ltpFR	14	4	0	CAMEL	223	2	1	n/a	n/a	n/a	n/a	n/a
4077078	RECOG_RESP	n/a	LTP118	ltpFR	14	4	0	CAMEL	223	n/a	1	n/a	n/a	n/a	n/a	n/a
4077572	RECOG_CONF	n/a	LTP118	ltpFR	14	4	0	CAMEL	223	2	1	n/a	n/a	n/a	n/a	n/a
4078792	RECOG_TARGET	n/a	LTP118	ltpFR	14	4	0	GRASSHOPPER	656	3	0	n/a	n/a	n/a	n/a	n/a
4078909	RECOG_RESP	n/a	LTP118	ltpFR	14	4	0	GRASSHOPPER	656	n/a	0	n/a	n/a	n/a	n/a	n/a
4079418	RECOG_CONF	n/a	LTP118	ltpFR	14	4	0	GRASSHOPPER	656	3	0	n/a	n/a	n/a	n/a	n/a
4080642	RECOG_TARGET	n/a	LTP118	ltpFR	14	4	0	STALLION	1369	2	1	n/a	n/a	n/a	n/a	n/a
4080710	RECOG_RESP	n/a	LTP118	ltpFR	14	4	0	STALLION	1369	n/a	1	n/a	n/a	n/a	n/a	n/a
4081234	RECOG_CONF	n/a	LTP118	ltpFR	14	4	0	STALLION	1369	2	1	n/a	n/a	n/a	n/a	n/a
4082533	RECOG_TARGET	n/a	LTP118	ltpFR	14	4	0	POLICE	1098	3	1	n/a	n/a	n/a	n/a	n/a
4082686	RECOG_RESP	n/a	LTP118	ltpFR	14	4	0	POLICE	1098	n/a	1	n/a	n/a	n/a	n/a	n/a
4083189	RECOG_CONF	n/a	LTP118	ltpFR	14	4	0	POLICE	1098	3	1	n/a	n/a	n/a	n/a	n/a
4084374	RECOG_TARGET	n/a	LTP118	ltpFR	14	4	0	PARSLEY	1016	4	0	n/a	n/a	n/a	n/a	n/a
4084591	RECOG_RESP	n/a	LTP118	ltpFR	14	4	0	PARSLEY	1016	n/a	0	n/a	n/a	n/a	n/a	n/a
4085035	RECOG_CONF	n/a	LTP118	ltpFR	14	4	0	PARSLEY	1016	4	0	n/a	n/a	n/a	n/a	n/a
4086365	RECOG_TARGET	n/a	LTP118	ltpFR	14	4	1	SENATOR	1268	3	1	n/a	n/a	n/a	n/a	n/a
4086532	RECOG_RESP	n/a	LTP118	ltpFR	14	4	1	SENATOR	1268	n/a	1	n/a	n/a	n/a	n/a	n/a
4087051	RECOG_CONF	n/a	LTP118	ltpFR	14	4	1	SENATOR	1268	3	1	n/a	n/a	n/a	n/a	n/a
4088215	RECOG_LURE	n/a	LTP118	ltpFR	14	4	n/a	EWE	542	1	n/a	n/a	n/a	n/a	n/a	n/a
4088427	RECOG_RESP	n/a	LTP118	ltpFR	14	4	n/a	EWE	542	n/a	n/a	n/a	n/a	n/a	n/a	n/a
4089006	RECOG_CONF	n/a	LTP118	ltpFR	14	4	n/a	EWE	542	1	n/a	n/a	n/a	n/a	n/a	n/a
4090330	RECOG_LURE	n/a	LTP118	ltpFR	14	4	n/a	TOAD	1470	2	n/a	n/a	n/a	n/a	n/a	n/a
4090717	RECOG_RESP_VV	n/a	LTP118	ltpFR	14	4	n/a	TOAD	1470	n/a	n/a	n/a	n/a	n/a	n/a	n/a
4091146	RECOG_RESP	n/a	LTP118	ltpFR	14	4	n/a	TOAD	1470	n/a	n/a	n/a	n/a	n/a	n/a	n/a
4091660	RECOG_CONF	n/a	LTP118	ltpFR	14	4	n/a	TOAD	1470	2	n/a	n/a	n/a	n/a	n/a	n/a
4092930	RECOG_TARGET	n/a	LTP118	ltpFR	14	4	0	AGENT	10	3	1	n/a	n/a	n/a	n/a	n/a
4093097	RECOG_RESP	n/a	LTP118	ltpFR	14	4	0	AGENT	10	n/a	1	n/a	n/a	n/a	n/a	n/a
4093556	RECOG_CONF	n/a	LTP118	ltpFR	14	4	0	AGENT	10	3	1	n/a	n/a	n/a	n/a	n/a
4094845	RECOG_TARGET	n/a	LTP118	ltpFR	14	4	1	OFFICE	972	1	0	n/a	n/a	n/a	n/a	n/a
4095107	RECOG_RESP	n/a	LTP118	ltpFR	14	4	1	OFFICE	972	n/a	0	n/a	n/a	n/a	n/a	n/a
4095631	RECOG_CONF	n/a	LTP118	ltpFR	14	4	1	OFFICE	972	1	0	n/a	n/a	n/a	n/a	n/a
4096786	RECOG_TARGET	n/a	LTP118	ltpFR	14	4	0	FIDDLE	561	2	1	n/a	n/a	n/a	n/a	n/a
4097068	RECOG_RESP	n/a	LTP118	ltpFR	14	4	0	FIDDLE	561	n/a	1	n/a	n/a	n/a	n/a	n/a
4097547	RECOG_CONF	n/a	LTP118	ltpFR	14	4	0	FIDDLE	561	2	1	n/a	n/a	n/a	n/a	n/a
4098885	RECOG_TARGET	n/a	LTP118	ltpFR	14	4	0	LITERATURE	831	4	1	n/a	n/a	n/a	n/a	n/a
4099138	RECOG_RESP	n/a	LTP118	ltpFR	14	4	0	LITERATURE	831	n/a	1	n/a	n/a	n/a	n/a	n/a
4099612	RECOG_CONF	n/a	LTP118	ltpFR	14	4	0	LITERATURE	831	4	1	n/a	n/a	n/a	n/a	n/a
4100884	RECOG_TARGET	n/a	LTP118	ltpFR	14	4	0	HOUND	724	3	1	n/a	n/a	n/a	n/a	n/a
4101169	RECOG_RESP	n/a	LTP118	ltpFR	14	4	0	HOUND	724	n/a	1	n/a	n/a	n/a	n/a	n/a
4101727	RECOG_CONF	n/a	LTP118	ltpFR	14	4	0	HOUND	724	3	1	n/a	n/a	n/a	n/a	n/a
4102968	RECOG_TARGET	n/a	LTP118	ltpFR	14	4	1	SPATULA	1348	5	0	n/a	n/a	n/a	n/a	n/a
4103354	RECOG_RESP	n/a	LTP118	ltpFR	14	4	1	SPATULA	1348	n/a	0	n/a	n/a	n/a	n/a	n/a
4103733	RECOG_CONF	n/a	LTP118	ltpFR	14	4	1	SPATULA	1348	5	0	n/a	n/a	n/a	n/a	n/a
4105117	RECOG_TARGET	n/a	LTP118	ltpFR	14	4	0	KNAPSACK	783	3	1	n/a	n/a	n/a	n/a	n/a
4105329	RECOG_RESP	n/a	LTP118	ltpFR	14	4	0	KNAPSACK	783	n/a	1	n/a	n/a	n/a	n/a	n/a
4105868	RECOG_CONF	n/a	LTP118	ltpFR	14	4	0	KNAPSACK	783	3	1	n/a	n/a	n/a	n/a	n/a
4107192	RECOG_TARGET	n/a	LTP118	ltpFR	14	4	1	TREAT	1501	1	0	n/a	n/a	n/a	n/a	n/a
4107429	RECOG_RESP	n/a	LTP118	ltpFR	14	4	1	TREAT	1501	n/a	0	n/a	n/a	n/a	n/a	n/a
4107993	RECOG_CONF	n/a	LTP118	ltpFR	14	4	1	TREAT	1501	1	0	n/a	n/a	n/a	n/a	n/a
4109257	RECOG_LURE	n/a	LTP118	ltpFR	14	4	n/a	PUPPY	1144	2	n/a	n/a	n/a	n/a	n/a	n/a
4109973	RECOG_RESP	n/a	LTP118	ltpFR	14	4	n/a	PUPPY	1144	n/a	n/a	n/a	n/a	n/a	n/a	n/a
4110497	RECOG_CONF	n/a	LTP118	ltpFR	14	4	n/a	PUPPY	1144	2	n/a	n/a	n/a	n/a	n/a	n/a
4111839	RECOG_LURE	n/a	LTP118	ltpFR	14	4	n/a	FIREMAN	569	1	n/a	n/a	n/a	n/a	n/a	n/a
4112144	RECOG_RESP	n/a	LTP118	ltpFR	14	4	n/a	FIREMAN	569	n/a	n/a	n/a	n/a	n/a	n/a	n/a
4113211	RECOG_CONF	n/a	LTP118	ltpFR	14	4	n/a	FIREMAN	569	1	n/a	n/a	n/a	n/a	n/a	n/a
4114538	RECOG_TARGET	n/a	LTP118	ltpFR	14	4	0	KNOB	787	4	0	n/a	n/a	n/a	n/a	n/a
4114877	RECOG_RESP	n/a	LTP118	ltpFR	14	4	0	KNOB	787	n/a	0	n/a	n/a	n/a	n/a	n/a
4115346	RECOG_CONF	n/a	LTP118	ltpFR	14	4	0	KNOB	787	4	0	n/a	n/a	n/a	n/a	n/a
4121912	REC_START	n/a	LTP118	ltpFR	14	5	n/a	n/a	n/a	n/a	n/a	n/a	n/a	n/a	n/a	n/a
4121945	RECOG_TARGET	n/a	LTP118	ltpFR	14	5	1	TUBA	1515	3	0	n/a	n/a	n/a	n/a	n/a
4122276	RECOG_RESP	n/a	LTP118	ltpFR	14	5	1	TUBA	1515	n/a	0	n/a	n/a	n/a	n/a	n/a
4122765	RECOG_CONF	n/a	LTP118	ltpFR	14	5	1	TUBA	1515	3	0	n/a	n/a	n/a	n/a	n/a
4123986	RECOG_TARGET	n/a	LTP118	ltpFR	14	5	0	SCREEN	1253	1	1	n/a	n/a	n/a	n/a	n/a
4124202	RECOG_RESP	n/a	LTP118	ltpFR	14	5	0	SCREEN	1253	n/a	1	n/a	n/a	n/a	n/a	n/a
4124710	RECOG_CONF	n/a	LTP118	ltpFR	14	5	0	SCREEN	1253	1	1	n/a	n/a	n/a	n/a	n/a
4125935	RECOG_TARGET	n/a	LTP118	ltpFR	14	5	0	CREVICE	405	3	0	n/a	n/a	n/a	n/a	n/a
4126177	RECOG_RESP	n/a	LTP118	ltpFR	14	5	0	CREVICE	405	n/a	0	n/a	n/a	n/a	n/a	n/a
4126716	RECOG_CONF	n/a	LTP118	ltpFR	14	5	0	CREVICE	405	3	0	n/a	n/a	n/a	n/a	n/a
4128043	RECOG_TARGET	n/a	LTP118	ltpFR	14	5	1	WIDOW	1608	2	1	n/a	n/a	n/a	n/a	n/a
4128247	RECOG_RESP	n/a	LTP118	ltpFR	14	5	1	WIDOW	1608	n/a	1	n/a	n/a	n/a	n/a	n/a
4128801	RECOG_CONF	n/a	LTP118	ltpFR	14	5	1	WIDOW	1608	2	1	n/a	n/a	n/a	n/a	n/a
4130142	RECOG_TARGET	n/a	LTP118	ltpFR	14	5	1	SCALLOP	1242	4	1	n/a	n/a	n/a	n/a	n/a
4130437	RECOG_RESP	n/a	LTP118	ltpFR	14	5	1	SCALLOP	1242	n/a	1	n/a	n/a	n/a	n/a	n/a
4130837	RECOG_CONF	n/a	LTP118	ltpFR	14	5	1	SCALLOP	1242	4	1	n/a	n/a	n/a	n/a	n/a
4132174	RECOG_TARGET	n/a	LTP118	ltpFR	14	5	0	AUTHOR	61	3	1	n/a	n/a	n/a	n/a	n/a
4132443	RECOG_RESP	n/a	LTP118	ltpFR	14	5	0	AUTHOR	61	n/a	1	n/a	n/a	n/a	n/a	n/a
4132962	RECOG_CONF	n/a	LTP118	ltpFR	14	5	0	AUTHOR	61	3	1	n/a	n/a	n/a	n/a	n/a
4134190	RECOG_TARGET	n/a	LTP118	ltpFR	14	5	1	TACK	1428	4	0	n/a	n/a	n/a	n/a	n/a
4134438	RECOG_RESP	n/a	LTP118	ltpFR	14	5	1	TACK	1428	n/a	0	n/a	n/a	n/a	n/a	n/a
4134857	RECOG_CONF	n/a	LTP118	ltpFR	14	5	1	TACK	1428	4	0	n/a	n/a	n/a	n/a	n/a
4136148	RECOG_LURE	n/a	LTP118	ltpFR	14	5	n/a	HOUSE	725	1	n/a	n/a	n/a	n/a	n/a	n/a
4136409	RECOG_RESP	n/a	LTP118	ltpFR	14	5	n/a	HOUSE	725	n/a	n/a	n/a	n/a	n/a	n/a	n/a
4136893	RECOG_CONF	n/a	LTP118	ltpFR	14	5	n/a	HOUSE	725	1	n/a	n/a	n/a	n/a	n/a	n/a
4138081	RECOG_TARGET	n/a	LTP118	ltpFR	14	5	1	COB	334	3	0	n/a	n/a	n/a	n/a	n/a
4138474	RECOG_RESP	n/a	LTP118	ltpFR	14	5	1	COB	334	n/a	0	n/a	n/a	n/a	n/a	n/a
4138968	RECOG_CONF	n/a	LTP118	ltpFR	14	5	1	COB	334	3	0	n/a	n/a	n/a	n/a	n/a
4140163	RECOG_TARGET	n/a	LTP118	ltpFR	14	5	1	PUCK	1138	4	0	n/a	n/a	n/a	n/a	n/a
4140465	RECOG_RESP	n/a	LTP118	ltpFR	14	5	1	PUCK	1138	n/a	0	n/a	n/a	n/a	n/a	n/a
4140894	RECOG_CONF	n/a	LTP118	ltpFR	14	5	1	PUCK	1138	4	0	n/a	n/a	n/a	n/a	n/a
4142138	RECOG_LURE	n/a	LTP118	ltpFR	14	5	n/a	SCREW	1254	3	n/a	n/a	n/a	n/a	n/a	n/a
4142425	RECOG_RESP	n/a	LTP118	ltpFR	14	5	n/a	SCREW	1254	n/a	n/a	n/a	n/a	n/a	n/a	n/a
4142919	RECOG_CONF	n/a	LTP118	ltpFR	14	5	n/a	SCREW	1254	3	n/a	n/a	n/a	n/a	n/a	n/a
4144179	RECOG_TARGET	n/a	LTP118	ltpFR	14	5	-1	UMBRELLA	1534	4	-1	n/a	n/a	n/a	n/a	n/a
4144401	RECOG_RESP	n/a	LTP118	ltpFR	14	5	-1	UMBRELLA	1534	n/a	-1	n/a	n/a	n/a	n/a	n/a
4144875	RECOG_CONF	n/a	LTP118	ltpFR	14	5	-1	UMBRELLA	1534	4	-1	n/a	n/a	n/a	n/a	n/a
4146318	RECOG_TARGET	n/a	LTP118	ltpFR	14	5	1	HOOK	715	5	0	n/a	n/a	n/a	n/a	n/a
4147015	RECOG_RESP	n/a	LTP118	ltpFR	14	5	1	HOOK	715	n/a	0	n/a	n/a	n/a	n/a	n/a
4147598	RECOG_CONF	n/a	LTP118	ltpFR	14	5	1	HOOK	715	5	0	n/a	n/a	n/a	n/a	n/a
4148884	RECOG_LURE	n/a	LTP118	ltpFR	14	5	n/a	AIRCRAFT	11	2	n/a	n/a	n/a	n/a	n/a	n/a
4149449	RECOG_RESP	n/a	LTP118	ltpFR	14	5	n/a	AIRCRAFT	11	n/a	n/a	n/a	n/a	n/a	n/a	n/a
4149923	RECOG_CONF	n/a	LTP118	ltpFR	14	5	n/a	AIRCRAFT	11	2	n/a	n/a	n/a	n/a	n/a	n/a
4151084	RECOG_LURE	n/a	LTP118	ltpFR	14	5	n/a	DOUGHNUT	490	3	n/a	n/a	n/a	n/a	n/a	n/a
4151874	RECOG_RESP	n/a	LTP118	ltpFR	14	5	n/a	DOUGHNUT	490	n/a	n/a	n/a	n/a	n/a	n/a	n/a
4152398	RECOG_CONF	n/a	LTP118	ltpFR	14	5	n/a	DOUGHNUT	490	3	n/a	n/a	n/a	n/a	n/a	n/a
4153591	RECOG_TARGET	n/a	LTP118	ltpFR	14	5	1	ALLEY	15	4	0	n/a	n/a	n/a	n/a	n/a
4154104	RECOG_RESP	n/a	LTP118	ltpFR	14	5	1	ALLEY	15	n/a	0	n/a	n/a	n/a	n/a	n/a
4154493	RECOG_CONF	n/a	LTP118	ltpFR	14	5	1	ALLEY	15	4	0	n/a	n/a	n/a	n/a	n/a
4155848	RECOG_TARGET	n/a	LTP118	ltpFR	14	5	0	CENT	270	1	0	n/a	n/a	n/a	n/a	n/a
4156184	RECOG_RESP	n/a	LTP118	ltpFR	14	5	0	CENT	270	n/a	0	n/a	n/a	n/a	n/a	n/a
4156668	RECOG_CONF	n/a	LTP118	ltpFR	14	5	0	CENT	270	1	0	n/a	n/a	n/a	n/a	n/a
4157940	RECOG_TARGET	n/a	LTP118	ltpFR	14	5	0	DAUGHTER	442	3	0	n/a	n/a	n/a	n/a	n/a
4158115	RECOG_RESP	n/a	LTP118	ltpFR	14	5	0	DAUGHTER	442	n/a	0	n/a	n/a	n/a	n/a	n/a
4158673	RECOG_CONF	n/a	LTP118	ltpFR	14	5	0	DAUGHTER	442	3	0	n/a	n/a	n/a	n/a	n/a
4159990	RECOG_TARGET	n/a	LTP118	ltpFR	14	5	1	STORE	1387	4	0	n/a	n/a	n/a	n/a	n/a
4160250	RECOG_RESP	n/a	LTP118	ltpFR	14	5	1	STORE	1387	n/a	0	n/a	n/a	n/a	n/a	n/a
4160699	RECOG_CONF	n/a	LTP118	ltpFR	14	5	1	STORE	1387	4	0	n/a	n/a	n/a	n/a	n/a
4161997	RECOG_LURE	n/a	LTP118	ltpFR	14	5	n/a	NECKLACE	940	1	n/a	n/a	n/a	n/a	n/a	n/a
4162285	RECOG_RESP	n/a	LTP118	ltpFR	14	5	n/a	NECKLACE	940	n/a	n/a	n/a	n/a	n/a	n/a	n/a
4162764	RECOG_CONF	n/a	LTP118	ltpFR	14	5	n/a	NECKLACE	940	1	n/a	n/a	n/a	n/a	n/a	n/a
4174631	REC_START	n/a	LTP118	ltpFR	14	6	n/a	n/a	n/a	n/a	n/a	n/a	n/a	n/a	n/a	n/a
4174667	RECOG_TARGET	n/a	LTP118	ltpFR	14	6	-1	CREATURE	403	3	-1	n/a	n/a	n/a	n/a	n/a
4175274	RECOG_CONF	n/a	LTP118	ltpFR	14	6	-1	CREATURE	403	3	-1	n/a	n/a	n/a	n/a	n/a
4176766	RECOG_TARGET	n/a	LTP118	ltpFR	14	6	-1	VESSEL	1558	1	-1	n/a	n/a	n/a	n/a	n/a
4177080	RECOG_RESP	n/a	LTP118	ltpFR	14	6	-1	VESSEL	1558	n/a	-1	n/a	n/a	n/a	n/a	n/a
4177549	RECOG_CONF	n/a	LTP118	ltpFR	14	6	-1	VESSEL	1558	1	-1	n/a	n/a	n/a	n/a	n/a
4178765	RECOG_LURE	n/a	LTP118	ltpFR	14	6	n/a	LABEL	790	3	n/a	n/a	n/a	n/a	n/a	n/a
4178946	RECOG_RESP	n/a	LTP118	ltpFR	14	6	n/a	LABEL	790	n/a	n/a	n/a	n/a	n/a	n/a	n/a
4179435	RECOG_CONF	n/a	LTP118	ltpFR	14	6	n/a	LABEL	790	3	n/a	n/a	n/a	n/a	n/a	n/a
4180731	RECOG_TARGET	n/a	LTP118	ltpFR	14	6	0	GUITAR	670	4	1	n/a	n/a	n/a	n/a	n/a
4181206	RECOG_RESP	n/a	LTP118	ltpFR	14	6	0	GUITAR	670	n/a	1	n/a	n/a	n/a	n/a	n/a
4181600	RECOG_CONF	n/a	LTP118	ltpFR	14	6	0	GUITAR	670	4	1	n/a	n/a	n/a	n/a	n/a
4182847	RECOG_LURE	n/a	LTP118	ltpFR	14	6	n/a	PUMPKIN	1142	2	n/a	n/a	n/a	n/a	n/a	n/a
4183376	RECOG_RESP	n/a	LTP118	ltpFR	14	6	n/a	PUMPKIN	1142	n/a	n/a	n/a	n/a	n/a	n/a	n/a
4184154	RECOG_CONF	n/a	LTP118	ltpFR	14	6	n/a	PUMPKIN	1142	2	n/a	n/a	n/a	n/a	n/a	n/a
4185521	RECOG_LURE	n/a	LTP118	ltpFR	14	6	n/a	GLOVE	642	3	n/a	n/a	n/a	n/a	n/a	n/a
4185845	RECOG_RESP_VV	n/a	LTP118	ltpFR	14	6	n/a	GLOVE	642	n/a	n/a	n/a	n/a	n/a	n/a	n/a
4186364	RECOG_RESP	n/a	LTP118	ltpFR	14	6	n/a	GLOVE	642	n/a	n/a	n/a	n/a	n/a	n/a	n/a
4186868	RECOG_CONF	n/a	LTP118	ltpFR	14	6	n/a	GLOVE	642	3	n/a	n/a	n/a	n/a	n/a	n/a
4188055	RECOG_TARGET	n/a	LTP118	ltpFR	14	6	0	BEAVER	109	1	1	n/a	n/a	n/a	n/a	n/a
4188390	RECOG_RESP	n/a	LTP118	ltpFR	14	6	0	BEAVER	109	n/a	1	n/a	n/a	n/a	n/a	n/a
4188883	RECOG_CONF	n/a	LTP118	ltpFR	14	6	0	BEAVER	109	1	1	n/a	n/a	n/a	n/a	n/a
4190154	RECOG_TARGET	n/a	LTP118	ltpFR	14	6	1	LETTUCE	814	3	0	n/a	n/a	n/a	n/a	n/a
4190390	RECOG_RESP	n/a	LTP118	ltpFR	14	6	1	LETTUCE	814	n/a	0	n/a	n/a	n/a	n/a	n/a
4190879	RECOG_CONF	n/a	LTP118	ltpFR	14	6	1	LETTUCE	814	3	0	n/a	n/a	n/a	n/a	n/a
4192170	RECOG_TARGET	n/a	LTP118	ltpFR	14	6	1	TAXI	1438	1	0	n/a	n/a	n/a	n/a	n/a
4192400	RECOG_RESP	n/a	LTP118	ltpFR	14	6	1	TAXI	1438	n/a	0	n/a	n/a	n/a	n/a	n/a
4192944	RECOG_CONF	n/a	LTP118	ltpFR	14	6	1	TAXI	1438	1	0	n/a	n/a	n/a	n/a	n/a
4194128	RECOG_LURE	n/a	LTP118	ltpFR	14	6	n/a	HELMET	702	2	n/a	n/a	n/a	n/a	n/a	n/a
4194426	RECOG_RESP_VV	n/a	LTP118	ltpFR	14	6	n/a	HELMET	702	n/a	n/a	n/a	n/a	n/a	n/a	n/a
4194950	RECOG_RESP	n/a	LTP118	ltpFR	14	6	n/a	HELMET	702	n/a	n/a	n/a	n/a	n/a	n/a	n/a
4195429	RECOG_CONF	n/a	LTP118	ltpFR	14	6	n/a	HELMET	702	2	n/a	n/a	n/a	n/a	n/a	n/a
4196751	RECOG_TARGET	n/a	LTP118	ltpFR	14	6	0	WHALE	1601	3	1	n/a	n/a	n/a	n/a	n/a
4196990	RECOG_RESP	n/a	LTP118	ltpFR	14	6	0	WHALE	1601	n/a	1	n/a	n/a	n/a	n/a	n/a
4197484	RECOG_CONF	n/a	LTP118	ltpFR	14	6	0	WHALE	1601	3	1	n/a	n/a	n/a	n/a	n/a
4198750	RECOG_TARGET	n/a	LTP118	ltpFR	14	6	-1	POET	1095	2	-1	n/a	n/a	n/a	n/a	n/a
4198966	RECOG_RESP	n/a	LTP118	ltpFR	14	6	-1	POET	1095	n/a	-1	n/a	n/a	n/a	n/a	n/a
4199479	RECOG_CONF	n/a	LTP118	ltpFR	14	6	-1	POET	1095	2	-1	n/a	n/a	n/a	n/a	n/a
4200749	RECOG_LURE	n/a	LTP118	ltpFR	14	6	n/a	TUBE	1516	3	n/a	n/a	n/a	n/a	n/a	n/a
4200996	RECOG_RESP	n/a	LTP118	ltpFR	14	6	n/a	TUBE	1516	n/a	n/a	n/a	n/a	n/a	n/a	n/a
4201495	RECOG_CONF	n/a	LTP118	ltpFR	14	6	n/a	TUBE	1516	3	n/a	n/a	n/a	n/a	n/a	n/a
4202632	RECOG_TARGET	n/a	LTP118	ltpFR	14	6	-1	VEIN	1554	4	-1	n/a	n/a	n/a	n/a	n/a
4203001	RECOG_RESP	n/a	LTP118	ltpFR	14	6	-1	VEIN	1554	n/a	-1	n/a	n/a	n/a	n/a	n/a
4203400	RECOG_CONF	n/a	LTP118	ltpFR	14	6	-1	VEIN	1554	4	-1	n/a	n/a	n/a	n/a	n/a
4204689	RECOG_TARGET	n/a	LTP118	ltpFR	14	6	1	SIRLOIN	1311	5	0	n/a	n/a	n/a	n/a	n/a
4205007	RECOG_RESP	n/a	LTP118	ltpFR	14	6	1	SIRLOIN	1311	n/a	0	n/a	n/a	n/a	n/a	n/a
4205416	RECOG_CONF	n/a	LTP118	ltpFR	14	6	1	SIRLOIN	1311	5	0	n/a	n/a	n/a	n/a	n/a
4206689	RECOG_TARGET	n/a	LTP118	ltpFR	14	6	1	ACID	2	5	0	n/a	n/a	n/a	n/a	n/a
4207032	RECOG_RESP	n/a	LTP118	ltpFR	14	6	1	ACID	2	n/a	0	n/a	n/a	n/a	n/a	n/a
4207461	RECOG_CONF	n/a	LTP118	ltpFR	14	6	1	ACID	2	5	0	n/a	n/a	n/a	n/a	n/a
4208705	RECOG_TARGET	n/a	LTP118	ltpFR	14	6	0	MOTH	920	3	0	n/a	n/a	n/a	n/a	n/a
4208983	RECOG_RESP	n/a	LTP118	ltpFR	14	6	0	MOTH	920	n/a	0	n/a	n/a	n/a	n/a	n/a
4209497	RECOG_CONF	n/a	LTP118	ltpFR	14	6	0	MOTH	920	3	0	n/a	n/a	n/a	n/a	n/a
4210712	RECOG_LURE	n/a	LTP118	ltpFR	14	6	n/a	JELLO	754	2	n/a	n/a	n/a	n/a	n/a	n/a
4211023	RECOG_RESP_VV	n/a	LTP118	ltpFR	14	6	n/a	JELLO	754	n/a	n/a	n/a	n/a	n/a	n/a	n/a
4211442	RECOG_RESP	n/a	LTP118	ltpFR	14	6	n/a	JELLO	754	n/a	n/a	n/a	n/a	n/a	n/a	n/a
4211991	RECOG_CONF	n/a	LTP118	ltpFR	14	6	n/a	JELLO	754	2	n/a	n/a	n/a	n/a	n/a	n/a
4213345	RECOG_TARGET	n/a	LTP118	ltpFR	14	6	0	ZEBRA	1635	3	1	n/a	n/a	n/a	n/a	n/a
4213697	RECOG_RESP	n/a	LTP118	ltpFR	14	6	0	ZEBRA	1635	n/a	1	n/a	n/a	n/a	n/a	n/a
4214256	RECOG_CONF	n/a	LTP118	ltpFR	14	6	0	ZEBRA	1635	3	1	n/a	n/a	n/a	n/a	n/a
4215461	RECOG_TARGET	n/a	LTP118	ltpFR	14	6	0	BLOSSOM	138	4	0	n/a	n/a	n/a	n/a	n/a
4215732	RECOG_RESP	n/a	LTP118	ltpFR	14	6	0	BLOSSOM	138	n/a	0	n/a	n/a	n/a	n/a	n/a
4216171	RECOG_CONF	n/a	LTP118	ltpFR	14	6	0	BLOSSOM	138	4	0	n/a	n/a	n/a	n/a	n/a
4219844	REC_START	n/a	LTP118	ltpFR	14	7	n/a	n/a	n/a	n/a	n/a	n/a	n/a	n/a	n/a	n/a
4219876	RECOG_TARGET	n/a	LTP118	ltpFR	14	7	0	TAVERN	1437	1	1	n/a	n/a	n/a	n/a	n/a
4220128	RECOG_RESP	n/a	LTP118	ltpFR	14	7	0	TAVERN	1437	n/a	1	n/a	n/a	n/a	n/a	n/a
4220657	RECOG_CONF	n/a	LTP118	ltpFR	14	7	0	TAVERN	1437	1	1	n/a	n/a	n/a	n/a	n/a
4221908	RECOG_LURE	n/a	LTP118	ltpFR	14	7	n/a	ROAD	1196	3	n/a	n/a	n/a	n/a	n/a	n/a
4222119	RECOG_RESP_VV	n/a	LTP118	ltpFR	14	7	n/a	ROAD	1196	n/a	n/a	n/a	n/a	n/a	n/a	n/a
4222727	RECOG_RESP	n/a	LTP118	ltpFR	14	7	n/a	ROAD	1196	n/a	n/a	n/a	n/a	n/a	n/a	n/a
4223251	RECOG_CONF	n/a	LTP118	ltpFR	14	7	n/a	ROAD	1196	3	n/a	n/a	n/a	n/a	n/a	n/a
4224582	RECOG_TARGET	n/a	LTP118	ltpFR	14	7	1	OREGANO	983	3	0	n/a	n/a	n/a	n/a	n/a
4224842	RECOG_RESP	n/a	LTP118	ltpFR	14	7	1	OREGANO	983	n/a	0	n/a	n/a	n/a	n/a	n/a
4225416	RECOG_CONF	n/a	LTP118	ltpFR	14	7	1	OREGANO	983	3	0	n/a	n/a	n/a	n/a	n/a
4226807	RECOG_LURE	n/a	LTP118	ltpFR	14	7	n/a	JAW	751	2	n/a	n/a	n/a	n/a	n/a	n/a
4227117	RECOG_RESP_VV	n/a	LTP118	ltpFR	14	7	n/a	JAW	751	n/a	n/a	n/a	n/a	n/a	n/a	n/a
4227636	RECOG_RESP	n/a	LTP118	ltpFR	14	7	n/a	JAW	751	n/a	n/a	n/a	n/a	n/a	n/a	n/a
4228150	RECOG_CONF	n/a	LTP118	ltpFR	14	7	n/a	JAW	751	2	n/a	n/a	n/a	n/a	n/a	n/a
4229389	RECOG_TARGET	n/a	LTP118	ltpFR	14	7	-1	TRUCK	1512	1	-1	n/a	n/a	n/a	n/a	n/a
4229622	RECOG_RESP	n/a	LTP118	ltpFR	14	7	-1	TRUCK	1512	n/a	-1	n/a	n/a	n/a	n/a	n/a
4230086	RECOG_CONF	n/a	LTP118	ltpFR	14	7	-1	TRUCK	1512	1	-1	n/a	n/a	n/a	n/a	n/a
4231372	RECOG_TARGET	n/a	LTP118	ltpFR	14	7	1	MECHANIC	884	3	1	n/a	n/a	n/a	n/a	n/a
4231702	RECOG_RESP	n/a	LTP118	ltpFR	14	7	1	MECHANIC	884	n/a	1	n/a	n/a	n/a	n/a	n/a
4232181	RECOG_CONF	n/a	LTP118	ltpFR	14	7	1	MECHANIC	884	3	1	n/a	n/a	n/a	n/a	n/a
4233446	RECOG_LURE	n/a	LTP118	ltpFR	14	7	n/a	ALMOND	18	2	n/a	n/a	n/a	n/a	n/a	n/a
4233717	RECOG_RESP_VV	n/a	LTP118	ltpFR	14	7	n/a	ALMOND	18	n/a	n/a	n/a	n/a	n/a	n/a	n/a
4234136	RECOG_RESP	n/a	LTP118	ltpFR	14	7	n/a	ALMOND	18	n/a	n/a	n/a	n/a	n/a	n/a	n/a
4234685	RECOG_CONF	n/a	LTP118	ltpFR	14	7	n/a	ALMOND	18	2	n/a	n/a	n/a	n/a	n/a	n/a
4235845	RECOG_TARGET	n/a	LTP118	ltpFR	14	7	0	SPY	1360	3	1	n/a	n/a	n/a	n/a	n/a
4236266	RECOG_RESP	n/a	LTP118	ltpFR	14	7	0	SPY	1360	n/a	1	n/a	n/a	n/a	n/a	n/a
4236810	RECOG_CONF	n/a	LTP118	ltpFR	14	7	0	SPY	1360	3	1	n/a	n/a	n/a	n/a	n/a
4238220	RECOG_TARGET	n/a	LTP118	ltpFR	14	7	-1	ZOO	1637	4	-1	n/a	n/a	n/a	n/a	n/a
4238576	RECOG_RESP	n/a	LTP118	ltpFR	14	7	-1	ZOO	1637	n/a	-1	n/a	n/a	n/a	n/a	n/a
4238995	RECOG_CONF	n/a	LTP118	ltpFR	14	7	-1	ZOO	1637	4	-1	n/a	n/a	n/a	n/a	n/a
4240278	RECOG_TARGET	n/a	LTP118	ltpFR	14	7	-1	GOWN	652	3	-1	n/a	n/a	n/a	n/a	n/a
4240587	RECOG_RESP	n/a	LTP118	ltpFR	14	7	-1	GOWN	652	n/a	-1	n/a	n/a	n/a	n/a	n/a
4241200	RECOG_CONF	n/a	LTP118	ltpFR	14	7	-1	GOWN	652	3	-1	n/a	n/a	n/a	n/a	n/a
4242576	RECOG_LURE	n/a	LTP118	ltpFR	14	7	n/a	NAVIGATOR	938	2	n/a	n/a	n/a	n/a	n/a	n/a
4242871	RECOG_RESP_VV	n/a	LTP118	ltpFR	14	7	n/a	NAVIGATOR	938	n/a	n/a	n/a	n/a	n/a	n/a	n/a
4243345	RECOG_RESP	n/a	LTP118	ltpFR	14	7	n/a	NAVIGATOR	938	n/a	n/a	n/a	n/a	n/a	n/a	n/a
4243854	RECOG_CONF	n/a	LTP118	ltpFR	14	7	n/a	NAVIGATOR	938	2	n/a	n/a	n/a	n/a	n/a	n/a
4245110	RECOG_LURE	n/a	LTP118	ltpFR	14	7	n/a	BRAKE	166	3	n/a	n/a	n/a	n/a	n/a	n/a
4245346	RECOG_RESP	n/a	LTP118	ltpFR	14	7	n/a	BRAKE	166	n/a	n/a	n/a	n/a	n/a	n/a	n/a
4245870	RECOG_CONF	n/a	LTP118	ltpFR	14	7	n/a	BRAKE	166	3	n/a	n/a	n/a	n/a	n/a	n/a
4247449	RECOG_LURE	n/a	LTP118	ltpFR	14	7	n/a	PAIL	1002	2	n/a	n/a	n/a	n/a	n/a	n/a
4247995	RECOG_RESP	n/a	LTP118	ltpFR	14	7	n/a	PAIL	1002	n/a	n/a	n/a	n/a	n/a	n/a	n/a
4248683	RECOG_CONF	n/a	LTP118	ltpFR	14	7	n/a	PAIL	1002	2	n/a	n/a	n/a	n/a	n/a	n/a
4249983	RECOG_LURE	n/a	LTP118	ltpFR	14	7	n/a	BANDANNA	80	4	n/a	n/a	n/a	n/a	n/a	n/a
4250334	RECOG_RESP_VV	n/a	LTP118	ltpFR	14	7	n/a	BANDANNA	80	n/a	n/a	n/a	n/a	n/a	n/a	n/a
4250808	RECOG_RESP	n/a	LTP118	ltpFR	14	7	n/a	BANDANNA	80	n/a	n/a	n/a	n/a	n/a	n/a	n/a
4251357	RECOG_CONF	n/a	LTP118	ltpFR	14	7	n/a	BANDANNA	80	4	n/a	n/a	n/a	n/a	n/a	n/a
4252681	RECOG_LURE	n/a	LTP118	ltpFR	14	7	n/a	ROBE	1198	3	n/a	n/a	n/a	n/a	n/a	n/a
4252964	RECOG_RESP_VV	n/a	LTP118	ltpFR	14	7	n/a	ROBE	1198	n/a	n/a	n/a	n/a	n/a	n/a	n/a
4253572	RECOG_RESP	n/a	LTP118	ltpFR	14	7	n/a	ROBE	1198	n/a	n/a	n/a	n/a	n/a	n/a	n/a
4254071	RECOG_CONF	n/a	LTP118	ltpFR	14	7	n/a	ROBE	1198	3	n/a	n/a	n/a	n/a	n/a	n/a
4255397	RECOG_TARGET	n/a	LTP118	ltpFR	14	7	1	DOLL	481	3	0	n/a	n/a	n/a	n/a	n/a
4255603	RECOG_RESP	n/a	LTP118	ltpFR	14	7	1	DOLL	481	n/a	0	n/a	n/a	n/a	n/a	n/a
4256176	RECOG_CONF	n/a	LTP118	ltpFR	14	7	1	DOLL	481	3	0	n/a	n/a	n/a	n/a	n/a
4257687	RECOG_TARGET	n/a	LTP118	ltpFR	14	7	0	FRIES	607	5	0	n/a	n/a	n/a	n/a	n/a
4257922	RECOG_RESP	n/a	LTP118	ltpFR	14	7	0	FRIES	607	n/a	0	n/a	n/a	n/a	n/a	n/a
4258411	RECOG_CONF	n/a	LTP118	ltpFR	14	7	0	FRIES	607	5	0	n/a	n/a	n/a	n/a	n/a
4259787	RECOG_TARGET	n/a	LTP118	ltpFR	14	7	0	COCKTAIL	338	5	0	n/a	n/a	n/a	n/a	n/a
4260062	RECOG_RESP	n/a	LTP118	ltpFR	14	7	0	COCKTAIL	338	n/a	0	n/a	n/a	n/a	n/a	n/a
4260506	RECOG_CONF	n/a	LTP118	ltpFR	14	7	0	COCKTAIL	338	5	0	n/a	n/a	n/a	n/a	n/a
4261911	RECOG_TARGET	n/a	LTP118	ltpFR	14	7	0	PLUMBER	1091	4	1	n/a	n/a	n/a	n/a	n/a
4262322	RECOG_RESP	n/a	LTP118	ltpFR	14	7	0	PLUMBER	1091	n/a	1	n/a	n/a	n/a	n/a	n/a
4262721	RECOG_CONF	n/a	LTP118	ltpFR	14	7	0	PLUMBER	1091	4	1	n/a	n/a	n/a	n/a	n/a
4263953	RECOG_TARGET	n/a	LTP118	ltpFR	14	7	0	SWORD	1423	3	1	n/a	n/a	n/a	n/a	n/a
4264507	RECOG_RESP	n/a	LTP118	ltpFR	14	7	0	SWORD	1423	n/a	1	n/a	n/a	n/a	n/a	n/a
4265026	RECOG_CONF	n/a	LTP118	ltpFR	14	7	0	SWORD	1423	3	1	n/a	n/a	n/a	n/a	n/a
4279196	REC_START	n/a	LTP118	ltpFR	14	8	n/a	n/a	n/a	n/a	n/a	n/a	n/a	n/a	n/a	n/a
4279231	RECOG_TARGET	n/a	LTP118	ltpFR	14	8	0	VALLEY	1545	4	1	n/a	n/a	n/a	n/a	n/a
4279500	RECOG_RESP	n/a	LTP118	ltpFR	14	8	0	VALLEY	1545	n/a	1	n/a	n/a	n/a	n/a	n/a
4279969	RECOG_CONF	n/a	LTP118	ltpFR	14	8	0	VALLEY	1545	4	1	n/a	n/a	n/a	n/a	n/a
4281247	RECOG_TARGET	n/a	LTP118	ltpFR	14	8	1	TORTOISE	1486	3	1	n/a	n/a	n/a	n/a	n/a
4281426	RECOG_RESP	n/a	LTP118	ltpFR	14	8	1	TORTOISE	1486	n/a	1	n/a	n/a	n/a	n/a	n/a
4282404	RECOG_CONF	n/a	LTP118	ltpFR	14	8	1	TORTOISE	1486	3	1	n/a	n/a	n/a	n/a	n/a
4283570	RECOG_TARGET	n/a	LTP118	ltpFR	14	8	0	DEER	444	2	1	n/a	n/a	n/a	n/a	n/a
4283760	RECOG_RESP	n/a	LTP118	ltpFR	14	8	0	DEER	444	n/a	1	n/a	n/a	n/a	n/a	n/a
4284249	RECOG_CONF	n/a	LTP118	ltpFR	14	8	0	DEER	444	2	1	n/a	n/a	n/a	n/a	n/a
4285644	RECOG_TARGET	n/a	LTP118	ltpFR	14	8	1	BOULEVARD	156	3	0	n/a	n/a	n/a	n/a	n/a
4285841	RECOG_RESP	n/a	LTP118	ltpFR	14	8	1	BOULEVARD	156	n/a	0	n/a	n/a	n/a	n/a	n/a
4286355	RECOG_CONF	n/a	LTP118	ltpFR	14	8	1	BOULEVARD	156	3	0	n/a	n/a	n/a	n/a	n/a
4287727	RECOG_TARGET	n/a	LTP118	ltpFR	14	8	0	LAKE	796	4	1	n/a	n/a	n/a	n/a	n/a
4288001	RECOG_RESP	n/a	LTP118	ltpFR	14	8	0	LAKE	796	n/a	1	n/a	n/a	n/a	n/a	n/a
4288410	RECOG_CONF	n/a	LTP118	ltpFR	14	8	0	LAKE	796	4	1	n/a	n/a	n/a	n/a	n/a
4289793	RECOG_TARGET	n/a	LTP118	ltpFR	14	8	1	RACCOON	1153	3	1	n/a	n/a	n/a	n/a	n/a
4290106	RECOG_RESP	n/a	LTP118	ltpFR	14	8	1	RACCOON	1153	n/a	1	n/a	n/a	n/a	n/a	n/a
4290615	RECOG_CONF	n/a	LTP118	ltpFR	14	8	1	RACCOON	1153	3	1	n/a	n/a	n/a	n/a	n/a
4291892	RECOG_LURE	n/a	LTP118	ltpFR	14	8	n/a	WAITRESS	1581	2	n/a	n/a	n/a	n/a	n/a	n/a
4292181	RECOG_RESP_VV	n/a	LTP118	ltpFR	14	8	n/a	WAITRESS	1581	n/a	n/a	n/a	n/a	n/a	n/a	n/a
4292890	RECOG_RESP	n/a	LTP118	ltpFR	14	8	n/a	WAITRESS	1581	n/a	n/a	n/a	n/a	n/a	n/a	n/a
4293359	RECOG_CONF	n/a	LTP118	ltpFR	14	8	n/a	WAITRESS	1581	2	n/a	n/a	n/a	n/a	n/a	n/a
4294549	RECOG_TARGET	n/a	LTP118	ltpFR	14	8	-1	NECK	939	3	-1	n/a	n/a	n/a	n/a	n/a
4294825	RECOG_RESP	n/a	LTP118	ltpFR	14	8	-1	NECK	939	n/a	-1	n/a	n/a	n/a	n/a	n/a
4295354	RECOG_CONF	n/a	LTP118	ltpFR	14	8	-1	NECK	939	3	-1	n/a	n/a	n/a	n/a	n/a
4296649	RECOG_TARGET	n/a	LTP118	ltpFR	14	8	-1	BLUEPRINT	142	4	-1	n/a	n/a	n/a	n/a	n/a
4296906	RECOG_RESP	n/a	LTP118	ltpFR	14	8	-1	BLUEPRINT	142	n/a	-1	n/a	n/a	n/a	n/a	n/a
4297379	RECOG_CONF	n/a	LTP118	ltpFR	14	8	-1	BLUEPRINT	142	4	-1	n/a	n/a	n/a	n/a	n/a
4298706	RECOG_LURE	n/a	LTP118	ltpFR	14	8	n/a	TULIP	1517	3	n/a	n/a	n/a	n/a	n/a	n/a
4299121	RECOG_RESP_VV	n/a	LTP118	ltpFR	14	8	n/a	TULIP	1517	n/a	n/a	n/a	n/a	n/a	n/a	n/a
4299624	RECOG_RESP	n/a	LTP118	ltpFR	14	8	n/a	TULIP	1517	n/a	n/a	n/a	n/a	n/a	n/a	n/a
4300103	RECOG_CONF	n/a	LTP118	ltpFR	14	8	n/a	TULIP	1517	3	n/a	n/a	n/a	n/a	n/a	n/a
4301305	RECOG_TARGET	n/a	LTP118	ltpFR	14	8	-1	RIFLE	1192	4	-1	n/a	n/a	n/a	n/a	n/a
4302169	RECOG_RESP	n/a	LTP118	ltpFR	14	8	-1	RIFLE	1192	n/a	-1	n/a	n/a	n/a	n/a	n/a
4302667	RECOG_CONF	n/a	LTP118	ltpFR	14	8	-1	RIFLE	1192	4	-1	n/a	n/a	n/a	n/a	n/a
4304089	RECOG_TARGET	n/a	LTP118	ltpFR	14	8	0	MICROSCOPE	891	5	1	n/a	n/a	n/a	n/a	n/a
4304503	RECOG_RESP	n/a	LTP118	ltpFR	14	8	0	MICROSCOPE	891	n/a	1	n/a	n/a	n/a	n/a	n/a
4304912	RECOG_CONF	n/a	LTP118	ltpFR	14	8	0	MICROSCOPE	891	5	1	n/a	n/a	n/a	n/a	n/a
4306221	RECOG_TARGET	n/a	LTP118	ltpFR	14	8	1	YOLK	1633	5	0	n/a	n/a	n/a	n/a	n/a
4306529	RECOG_RESP	n/a	LTP118	ltpFR	14	8	1	YOLK	1633	n/a	0	n/a	n/a	n/a	n/a	n/a
4306978	RECOG_CONF	n/a	LTP118	ltpFR	14	8	1	YOLK	1633	5	0	n/a	n/a	n/a	n/a	n/a
4308295	RECOG_TARGET	n/a	LTP118	ltpFR	14	8	0	KETTLE	772	3	0	n/a	n/a	n/a	n/a	n/a
4308609	RECOG_RESP	n/a	LTP118	ltpFR	14	8	0	KETTLE	772	n/a	0	n/a	n/a	n/a	n/a	n/a
4309093	RECOG_CONF	n/a	LTP118	ltpFR	14	8	0	KETTLE	772	3	0	n/a	n/a	n/a	n/a	n/a
4310361	RECOG_TARGET	n/a	LTP118	ltpFR	14	8	0	COOK	372	2	1	n/a	n/a	n/a	n/a	n/a
4310634	RECOG_RESP	n/a	LTP118	ltpFR	14	8	0	COOK	372	n/a	1	n/a	n/a	n/a	n/a	n/a
4311138	RECOG_CONF	n/a	LTP118	ltpFR	14	8	0	COOK	372	2	1	n/a	n/a	n/a	n/a	n/a
4312452	RECOG_TARGET	n/a	LTP118	ltpFR	14	8	1	GOVERNOR	651	3	1	n/a	n/a	n/a	n/a	n/a
4312760	RECOG_RESP_VV	n/a	LTP118	ltpFR	14	8	1	GOVERNOR	651	n/a	1	n/a	n/a	n/a	n/a	n/a
4313797	RECOG_RESP	n/a	LTP118	ltpFR	14	8	1	GOVERNOR	651	n/a	1	n/a	n/a	n/a	n/a	n/a
4314351	RECOG_CONF	n/a	LTP118	ltpFR	14	8	1	GOVERNOR	651	3	1	n/a	n/a	n/a	n/a	n/a
4315492	RECOG_TARGET	n/a	LTP118	ltpFR	14	8	0	TILE	1468	4	0	n/a	n/a	n/a	n/a	n/a
4315683	RECOG_RESP	n/a	LTP118	ltpFR	14	8	0	TILE	1468	n/a	0	n/a	n/a	n/a	n/a	n/a
4316207	RECOG_CONF	n/a	LTP118	ltpFR	14	8	0	TILE	1468	4	0	n/a	n/a	n/a	n/a	n/a
4317675	RECOG_TARGET	n/a	LTP118	ltpFR	14	8	0	STRING	1394	5	0	n/a	n/a	n/a	n/a	n/a
4317983	RECOG_RESP	n/a	LTP118	ltpFR	14	8	0	STRING	1394	n/a	0	n/a	n/a	n/a	n/a	n/a
4318541	RECOG_CONF	n/a	LTP118	ltpFR	14	8	0	STRING	1394	5	0	n/a	n/a	n/a	n/a	n/a
4319882	RECOG_LURE	n/a	LTP118	ltpFR	14	8	n/a	CRYSTAL	418	2	n/a	n/a	n/a	n/a	n/a	n/a
4320193	RECOG_RESP_VV	n/a	LTP118	ltpFR	14	8	n/a	CRYSTAL	418	n/a	n/a	n/a	n/a	n/a	n/a	n/a
4320577	RECOG_RESP	n/a	LTP118	ltpFR	14	8	n/a	CRYSTAL	418	n/a	n/a	n/a	n/a	n/a	n/a	n/a
4321116	RECOG_CONF	n/a	LTP118	ltpFR	14	8	n/a	CRYSTAL	418	2	n/a	n/a	n/a	n/a	n/a	n/a
4322373	RECOG_LURE	n/a	LTP118	ltpFR	14	8	n/a	DOORBELL	487	3	n/a	n/a	n/a	n/a	n/a	n/a
4322677	RECOG_RESP	n/a	LTP118	ltpFR	14	8	n/a	DOORBELL	487	n/a	n/a	n/a	n/a	n/a	n/a	n/a
4323560	RECOG_CONF	n/a	LTP118	ltpFR	14	8	n/a	DOORBELL	487	3	n/a	n/a	n/a	n/a	n/a	n/a
4334210	REC_START	n/a	LTP118	ltpFR	14	9	n/a	n/a	n/a	n/a	n/a	n/a	n/a	n/a	n/a	n/a
4334245	RECOG_TARGET	n/a	LTP118	ltpFR	14	9	-1	FENCE	560	2	-1	n/a	n/a	n/a	n/a	n/a
4334644	RECOG_RESP	n/a	LTP118	ltpFR	14	9	-1	FENCE	560	n/a	-1	n/a	n/a	n/a	n/a	n/a
4335153	RECOG_CONF	n/a	LTP118	ltpFR	14	9	-1	FENCE	560	2	-1	n/a	n/a	n/a	n/a	n/a
4336418	RECOG_TARGET	n/a	LTP118	ltpFR	14	9	1	CUFF	423	1	0	n/a	n/a	n/a	n/a	n/a
4336529	RECOG_RESP	n/a	LTP118	ltpFR	14	9	1	CUFF	423	n/a	0	n/a	n/a	n/a	n/a	n/a
4337068	RECOG_CONF	n/a	LTP118	ltpFR	14	9	1	CUFF	423	1	0	n/a	n/a	n/a	n/a	n/a
4338334	RECOG_TARGET	n/a	LTP118	ltpFR	14	9	-1	OPERA	978	3	-1	n/a	n/a	n/a	n/a	n/a
4338530	RECOG_RESP	n/a	LTP118	ltpFR	14	9	-1	OPERA	978	n/a	-1	n/a	n/a	n/a	n/a	n/a
4339363	RECOG_CONF	n/a	LTP118	ltpFR	14	9	-1	OPERA	978	3	-1	n/a	n/a	n/a	n/a	n/a
4340442	RECOG_LURE	n/a	LTP118	ltpFR	14	9	n/a	JAM	748	1	n/a	n/a	n/a	n/a	n/a	n/a
4340655	RECOG_RESP	n/a	LTP118	ltpFR	14	9	n/a	JAM	748	n/a	n/a	n/a	n/a	n/a	n/a	n/a
4341359	RECOG_CONF	n/a	LTP118	ltpFR	14	9	n/a	JAM	748	1	n/a	n/a	n/a	n/a	n/a	n/a
4342549	RECOG_TARGET	n/a	LTP118	ltpFR	14	9	0	NOOSE	956	5	0	n/a	n/a	n/a	n/a	n/a
4343115	RECOG_RESP	n/a	LTP118	ltpFR	14	9	0	NOOSE	956	n/a	0	n/a	n/a	n/a	n/a	n/a
4343534	RECOG_CONF	n/a	LTP118	ltpFR	14	9	0	NOOSE	956	5	0	n/a	n/a	n/a	n/a	n/a
4344898	RECOG_LURE	n/a	LTP118	ltpFR	14	9	n/a	VOLUNTEER	1577	2	n/a	n/a	n/a	n/a	n/a	n/a
4345160	RECOG_RESP_VV	n/a	LTP118	ltpFR	14	9	n/a	VOLUNTEER	1577	n/a	n/a	n/a	n/a	n/a	n/a	n/a
4345684	RECOG_RESP	n/a	LTP118	ltpFR	14	9	n/a	VOLUNTEER	1577	n/a	n/a	n/a	n/a	n/a	n/a	n/a
4346158	RECOG_CONF	n/a	LTP118	ltpFR	14	9	n/a	VOLUNTEER	1577	2	n/a	n/a	n/a	n/a	n/a	n/a
4347448	RECOG_TARGET	n/a	LTP118	ltpFR	14	9	0	CLOVE	329	3	0	n/a	n/a	n/a	n/a	n/a
4347674	RECOG_RESP	n/a	LTP118	ltpFR	14	9	0	CLOVE	329	n/a	0	n/a	n/a	n/a	n/a	n/a
4348532	RECOG_CONF	n/a	LTP118	ltpFR	14	9	0	CLOVE	329	3	0	n/a	n/a	n/a	n/a	n/a
4349780	RECOG_LURE	n/a	LTP118	ltpFR	14	9	n/a	SEAFOOD	1260	4	n/a	n/a	n/a	n/a	n/a	n/a
4350458	RECOG_RESP	n/a	LTP118	ltpFR	14	9	n/a	SEAFOOD	1260	n/a	n/a	n/a	n/a	n/a	n/a	n/a
4350927	RECOG_CONF	n/a	LTP118	ltpFR	14	9	n/a	SEAFOOD	1260	4	n/a	n/a	n/a	n/a	n/a	n/a
4352321	RECOG_TARGET	n/a	LTP118	ltpFR	14	9	1	CARAVAN	242	5	0	n/a	n/a	n/a	n/a	n/a
4352862	RECOG_RESP	n/a	LTP118	ltpFR	14	9	1	CARAVAN	242	n/a	0	n/a	n/a	n/a	n/a	n/a
4353351	RECOG_CONF	n/a	LTP118	ltpFR	14	9	1	CARAVAN	242	5	0	n/a	n/a	n/a	n/a	n/a
4354787	RECOG_TARGET	n/a	LTP118	ltpFR	14	9	0	MONGOOSE	909	3	1	n/a	n/a	n/a	n/a	n/a
4355172	RECOG_RESP	n/a	LTP118	ltpFR	14	9	0	MONGOOSE	909	n/a	1	n/a	n/a	n/a	n/a	n/a
4355706	RECOG_CONF	n/a	LTP118	ltpFR	14	9	0	MONGOOSE	909	3	1	n/a	n/a	n/a	n/a	n/a
4357037	RECOG_LURE	n/a	LTP118	ltpFR	14	9	n/a	TOY	1492	1	n/a	n/a	n/a	n/a	n/a	n/a
4357392	RECOG_RESP	n/a	LTP118	ltpFR	14	9	n/a	TOY	1492	n/a	n/a	n/a	n/a	n/a	n/a	n/a
4357871	RECOG_CONF	n/a	LTP118	ltpFR	14	9	n/a	TOY	1492	1	n/a	n/a	n/a	n/a	n/a	n/a
4359585	RECOG_TARGET	n/a	LTP118	ltpFR	14	9	1	TOURIST	1488	2	1	n/a	n/a	n/a	n/a	n/a
4360236	RECOG_RESP	n/a	LTP118	ltpFR	14	9	1	TOURIST	1488	n/a	1	n/a	n/a	n/a	n/a	n/a
4360764	RECOG_CONF	n/a	LTP118	ltpFR	14	9	1	TOURIST	1488	2	1	n/a	n/a	n/a	n/a	n/a
4362085	RECOG_TARGET	n/a	LTP118	ltpFR	14	9	1	BLOUSE	139	3	0	n/a	n/a	n/a	n/a	n/a
4362361	RECOG_RESP	n/a	LTP118	ltpFR	14	9	1	BLOUSE	139	n/a	0	n/a	n/a	n/a	n/a	n/a
4362860	RECOG_CONF	n/a	LTP118	ltpFR	14	9	1	BLOUSE	139	3	0	n/a	n/a	n/a	n/a	n/a
4364134	RECOG_TARGET	n/a	LTP118	ltpFR	14	9	-1	CANNON	232	4	-1	n/a	n/a	n/a	n/a	n/a
