onset	duration	trial_type	sample	stim_file	subject	experiment	session	trial	task	item_name	item_num	recog_conf	resp	color_b	color_g	color_r	case	font
246.228	n/a	SESS_START	123114	n/a	LTP141	ltpFR	19	n/a	n/a	n/a	n/a	5	n/a	n/a	n/a	n/a	n/a	n/a
299.044	n/a	WORD	149522	wordpools/wasnorm_wordpool.txt	LTP141	ltpFR	19	1	0	ALBUM	14	n/a	0	0	0.5869140625	0.422607421875	lower	../fonts/zerothre.ttf
303.0	n/a	WORD	151500	wordpools/wasnorm_wordpool.txt	LTP141	ltpFR	19	1	0	CONCERT	360	n/a	1	0	0.5869140625	0.422607421875	lower	../fonts/zerothre.ttf
306.834	n/a	WORD	153417	wordpools/wasnorm_wordpool.txt	LTP141	ltpFR	19	1	0	CLOSET	326	n/a	1	0	0.5869140625	0.422607421875	lower	../fonts/zerothre.ttf
310.948	n/a	WORD	155474	wordpools/wasnorm_wordpool.txt	LTP141	ltpFR	19	1	0	BUNNY	198	n/a	0	0	0.5869140625	0.422607421875	lower	../fonts/zerothre.ttf
315.098	n/a	WORD	157549	wordpools/wasnorm_wordpool.txt	LTP141	ltpFR	19	1	1	ANCESTOR	20	n/a	1	1	0.412841796875	0.57763671875	upper	../fonts/amplitud.ttf
318.912	n/a	WORD	159456	wordpools/wasnorm_wordpool.txt	LTP141	ltpFR	19	1	1	SWEATER	1419	n/a	0	1	0.412841796875	0.57763671875	upper	../fonts/amplitud.ttf
322.736	n/a	WORD	161368	wordpools/wasnorm_wordpool.txt	LTP141	ltpFR	19	1	0	SPONGE	1355	n/a	0	0	0.5869140625	0.422607421875	lower	../fonts/zerothre.ttf
326.928	n/a	WORD	163464	wordpools/wasnorm_wordpool.txt	LTP141	ltpFR	19	1	0	GARLIC	624	n/a	0	0	0.5869140625	0.422607421875	lower	../fonts/zerothre.ttf
330.834	n/a	WORD	165417	wordpools/wasnorm_wordpool.txt	LTP141	ltpFR	19	1	1	CENT	270	n/a	0	1	0.412841796875	0.57763671875	upper	../fonts/amplitud.ttf
334.932	n/a	WORD	167466	wordpools/wasnorm_wordpool.txt	LTP141	ltpFR	19	1	1	PARTNER	1017	n/a	1	1	0.412841796875	0.57763671875	upper	../fonts/amplitud.ttf
339.024	n/a	WORD	169512	wordpools/wasnorm_wordpool.txt	LTP141	ltpFR	19	1	1	BRIDGE	174	n/a	0	1	0.412841796875	0.57763671875	upper	../fonts/amplitud.ttf
343.19	n/a	WORD	171595	wordpools/wasnorm_wordpool.txt	LTP141	ltpFR	19	1	1	DINOSAUR	469	n/a	0	1	0.412841796875	0.57763671875	upper	../fonts/amplitud.ttf
347.114	n/a	WORD	173557	wordpools/wasnorm_wordpool.txt	LTP141	ltpFR	19	1	1	MAPLE	866	n/a	0	1	0.412841796875	0.57763671875	upper	../fonts/amplitud.ttf
350.97	n/a	WORD	175485	wordpools/wasnorm_wordpool.txt	LTP141	ltpFR	19	1	1	SYRUP	1425	n/a	0	1	0.412841796875	0.57763671875	upper	../fonts/amplitud.ttf
354.976	n/a	WORD	177488	wordpools/wasnorm_wordpool.txt	LTP141	ltpFR	19	1	0	SPARROW	1347	n/a	0	0	0.5869140625	0.422607421875	lower	../fonts/zerothre.ttf
359.008	n/a	WORD	179504	wordpools/wasnorm_wordpool.txt	LTP141	ltpFR	19	1	0	CHICK	296	n/a	0	0	0.5869140625	0.422607421875	lower	../fonts/zerothre.ttf
364.934	n/a	REC_START	182467	n/a	LTP141	ltpFR	19	1	n/a	n/a	n/a	n/a	n/a	n/a	n/a	n/a	n/a	n/a
366.354	n/a	REC_WORD	183177	wordpools/wasnorm_wordpool.txt	LTP141	ltpFR	19	1	0	SPARROW	1347	n/a	0	n/a	n/a	n/a	n/a	n/a
367.752	n/a	REC_WORD	183876	wordpools/wasnorm_wordpool.txt	LTP141	ltpFR	19	1	0	CHICK	296	n/a	0	n/a	n/a	n/a	n/a	n/a
369.492	n/a	REC_WORD	184746	wordpools/wasnorm_wordpool.txt	LTP141	ltpFR	19	1	0	ALBUM	14	n/a	0	n/a	n/a	n/a	n/a	n/a
372.412	n/a	REC_WORD	186206	wordpools/wasnorm_wordpool.txt	LTP141	ltpFR	19	1	0	CONCERT	360	n/a	1	n/a	n/a	n/a	n/a	n/a
374.532	n/a	REC_WORD	187266	wordpools/wasnorm_wordpool.txt	LTP141	ltpFR	19	1	0	CLOSET	326	n/a	1	n/a	n/a	n/a	n/a	n/a
376.428	n/a	REC_WORD	188214	wordpools/wasnorm_wordpool.txt	LTP141	ltpFR	19	1	1	SWEATER	1419	n/a	0	n/a	n/a	n/a	n/a	n/a
378.522	n/a	REC_WORD	189261	wordpools/wasnorm_wordpool.txt	LTP141	ltpFR	19	1	1	MAPLE	866	n/a	0	n/a	n/a	n/a	n/a	n/a
380.068	n/a	REC_WORD	190034	wordpools/wasnorm_wordpool.txt	LTP141	ltpFR	19	1	1	SYRUP	1425	n/a	0	n/a	n/a	n/a	n/a	n/a
384.66	n/a	REC_WORD	192330	wordpools/wasnorm_wordpool.txt	LTP141	ltpFR	19	1	1	ANCESTOR	20	n/a	1	n/a	n/a	n/a	n/a	n/a
386.226	n/a	REC_WORD	193113	wordpools/wasnorm_wordpool.txt	LTP141	ltpFR	19	1	1	PARTNER	1017	n/a	1	n/a	n/a	n/a	n/a	n/a
394.452	n/a	REC_WORD	197226	wordpools/wasnorm_wordpool.txt	LTP141	ltpFR	19	1	1	DINOSAUR	469	n/a	0	n/a	n/a	n/a	n/a	n/a
446.74	n/a	WORD	223370	wordpools/wasnorm_wordpool.txt	LTP141	ltpFR	19	2	1	COLT	349	n/a	0	1	0.412841796875	0.57763671875	upper	../fonts/amplitud.ttf
450.572	n/a	WORD	225286	wordpools/wasnorm_wordpool.txt	LTP141	ltpFR	19	2	1	TOMBSTONE	1478	n/a	0	1	0.412841796875	0.57763671875	upper	../fonts/amplitud.ttf
454.53	n/a	WORD	227265	wordpools/wasnorm_wordpool.txt	LTP141	ltpFR	19	2	1	MUSHROOM	934	n/a	1	1	0.412841796875	0.57763671875	upper	../fonts/amplitud.ttf
458.696	n/a	WORD	229348	wordpools/wasnorm_wordpool.txt	LTP141	ltpFR	19	2	0	LIMB	822	n/a	1	0	0.5869140625	0.422607421875	lower	../fonts/zerothre.ttf
462.736	n/a	WORD	231368	wordpools/wasnorm_wordpool.txt	LTP141	ltpFR	19	2	0	WARDROBE	1587	n/a	1	0	0.5869140625	0.422607421875	lower	../fonts/zerothre.ttf
466.692	n/a	WORD	233346	wordpools/wasnorm_wordpool.txt	LTP141	ltpFR	19	2	0	CHAIRPERSON	275	n/a	1	0	0.5869140625	0.422607421875	lower	../fonts/zerothre.ttf
470.834	n/a	WORD	235417	wordpools/wasnorm_wordpool.txt	LTP141	ltpFR	19	2	0	MONGOOSE	909	n/a	1	0	0.5869140625	0.422607421875	lower	../fonts/zerothre.ttf
475.042	n/a	WORD	237521	wordpools/wasnorm_wordpool.txt	LTP141	ltpFR	19	2	1	PONY	1102	n/a	1	1	0.412841796875	0.57763671875	upper	../fonts/amplitud.ttf
479.148	n/a	WORD	239574	wordpools/wasnorm_wordpool.txt	LTP141	ltpFR	19	2	1	LIME	823	n/a	0	1	0.412841796875	0.57763671875	upper	../fonts/amplitud.ttf
483.088	n/a	WORD	241544	wordpools/wasnorm_wordpool.txt	LTP141	ltpFR	19	2	0	STRAWBERRY	1391	n/a	0	0	0.5869140625	0.422607421875	lower	../fonts/zerothre.ttf
487.27	n/a	WORD	243635	wordpools/wasnorm_wordpool.txt	LTP141	ltpFR	19	2	0	RAISIN	1163	n/a	0	0	0.5869140625	0.422607421875	lower	../fonts/zerothre.ttf
491.202	n/a	WORD	245601	wordpools/wasnorm_wordpool.txt	LTP141	ltpFR	19	2	0	SAP	1233	n/a	0	0	0.5869140625	0.422607421875	lower	../fonts/zerothre.ttf
495.036	n/a	WORD	247518	wordpools/wasnorm_wordpool.txt	LTP141	ltpFR	19	2	0	KIWI	781	n/a	0	0	0.5869140625	0.422607421875	lower	../fonts/zerothre.ttf
499.084	n/a	WORD	249542	wordpools/wasnorm_wordpool.txt	LTP141	ltpFR	19	2	1	RANCH	1166	n/a	0	1	0.412841796875	0.57763671875	upper	../fonts/amplitud.ttf
503.192	n/a	WORD	251596	wordpools/wasnorm_wordpool.txt	LTP141	ltpFR	19	2	1	SNACK	1331	n/a	0	1	0.412841796875	0.57763671875	upper	../fonts/amplitud.ttf
507.33	n/a	WORD	253665	wordpools/wasnorm_wordpool.txt	LTP141	ltpFR	19	2	1	DINNER	468	n/a	0	1	0.412841796875	0.57763671875	upper	../fonts/amplitud.ttf
513.082	n/a	REC_START	256541	n/a	LTP141	ltpFR	19	2	n/a	n/a	n/a	n/a	n/a	n/a	n/a	n/a	n/a	n/a
514.168	n/a	REC_WORD	257084	wordpools/wasnorm_wordpool.txt	LTP141	ltpFR	19	2	1	DINNER	468	n/a	0	n/a	n/a	n/a	n/a	n/a
514.922	n/a	REC_WORD	257461	wordpools/wasnorm_wordpool.txt	LTP141	ltpFR	19	2	1	SNACK	1331	n/a	0	n/a	n/a	n/a	n/a	n/a
516.414	n/a	REC_WORD	258207	wordpools/wasnorm_wordpool.txt	LTP141	ltpFR	19	2	1	RANCH	1166	n/a	0	n/a	n/a	n/a	n/a	n/a
534.224	n/a	REC_WORD	267112	wordpools/wasnorm_wordpool.txt	LTP141	ltpFR	19	2	1	COLT	349	n/a	0	n/a	n/a	n/a	n/a	n/a
536.758	n/a	REC_WORD	268379	wordpools/wasnorm_wordpool.txt	LTP141	ltpFR	19	2	0	STRAWBERRY	1391	n/a	0	n/a	n/a	n/a	n/a	n/a
539.632	n/a	REC_WORD	269816	wordpools/wasnorm_wordpool.txt	LTP141	ltpFR	19	2	0	KIWI	781	n/a	0	n/a	n/a	n/a	n/a	n/a
561.194	n/a	REC_WORD	280597	wordpools/wasnorm_wordpool.txt	LTP141	ltpFR	19	2	1	DINNER	468	n/a	0	n/a	n/a	n/a	n/a	n/a
601.044	n/a	WORD	300522	wordpools/wasnorm_wordpool.txt	LTP141	ltpFR	19	3	0	FLANNEL	574	n/a	0	0	0.5869140625	0.422607421875	lower	../fonts/zerothre.ttf
605.176	n/a	WORD	302588	wordpools/wasnorm_wordpool.txt	LTP141	ltpFR	19	3	0	SOCKET	1340	n/a	0	0	0.5869140625	0.422607421875	lower	../fonts/zerothre.ttf
609.184	n/a	WORD	304592	wordpools/wasnorm_wordpool.txt	LTP141	ltpFR	19	3	0	RADISH	1158	n/a	0	0	0.5869140625	0.422607421875	lower	../fonts/zerothre.ttf
613.358	n/a	WORD	306679	wordpools/wasnorm_wordpool.txt	LTP141	ltpFR	19	3	0	LID	817	n/a	0	0	0.5869140625	0.422607421875	lower	../fonts/zerothre.ttf
617.522	n/a	WORD	308761	wordpools/wasnorm_wordpool.txt	LTP141	ltpFR	19	3	0	DOLPHIN	483	n/a	0	0	0.5869140625	0.422607421875	lower	../fonts/zerothre.ttf
621.52	n/a	WORD	310760	wordpools/wasnorm_wordpool.txt	LTP141	ltpFR	19	3	0	BIKE	125	n/a	1	0	0.5869140625	0.422607421875	lower	../fonts/zerothre.ttf
625.37	n/a	WORD	312685	wordpools/wasnorm_wordpool.txt	LTP141	ltpFR	19	3	0	ALLEY	15	n/a	1	0	0.5869140625	0.422607421875	lower	../fonts/zerothre.ttf
629.22	n/a	WORD	314610	wordpools/wasnorm_wordpool.txt	LTP141	ltpFR	19	3	0	ROAD	1196	n/a	1	0	0.5869140625	0.422607421875	lower	../fonts/zerothre.ttf
633.384	n/a	WORD	316692	wordpools/wasnorm_wordpool.txt	LTP141	ltpFR	19	3	0	BATTERY	101	n/a	0	0	0.5869140625	0.422607421875	lower	../fonts/zerothre.ttf
637.55	n/a	WORD	318775	wordpools/wasnorm_wordpool.txt	LTP141	ltpFR	19	3	0	SLOPE	1328	n/a	1	0	0.5869140625	0.422607421875	lower	../fonts/zerothre.ttf
641.648	n/a	WORD	320824	wordpools/wasnorm_wordpool.txt	LTP141	ltpFR	19	3	0	PALM	1007	n/a	1	0	0.5869140625	0.422607421875	lower	../fonts/zerothre.ttf
645.48	n/a	WORD	322740	wordpools/wasnorm_wordpool.txt	LTP141	ltpFR	19	3	0	ORNAMENT	985	n/a	0	0	0.5869140625	0.422607421875	lower	../fonts/zerothre.ttf
649.662	n/a	WORD	324831	wordpools/wasnorm_wordpool.txt	LTP141	ltpFR	19	3	0	WIRE	1616	n/a	0	0	0.5869140625	0.422607421875	lower	../fonts/zerothre.ttf
653.512	n/a	WORD	326756	wordpools/wasnorm_wordpool.txt	LTP141	ltpFR	19	3	0	TOMATO	1476	n/a	0	0	0.5869140625	0.422607421875	lower	../fonts/zerothre.ttf
657.418	n/a	WORD	328709	wordpools/wasnorm_wordpool.txt	LTP141	ltpFR	19	3	0	CORPORATION	382	n/a	1	0	0.5869140625	0.422607421875	lower	../fonts/zerothre.ttf
661.566	n/a	WORD	330783	wordpools/wasnorm_wordpool.txt	LTP141	ltpFR	19	3	0	GANG	619	n/a	1	0	0.5869140625	0.422607421875	lower	../fonts/zerothre.ttf
667.542	n/a	REC_START	333771	n/a	LTP141	ltpFR	19	3	n/a	n/a	n/a	n/a	n/a	n/a	n/a	n/a	n/a	n/a
669.318	n/a	REC_WORD	334659	wordpools/wasnorm_wordpool.txt	LTP141	ltpFR	19	3	0	GANG	619	n/a	1	n/a	n/a	n/a	n/a	n/a
670.548	n/a	REC_WORD	335274	wordpools/wasnorm_wordpool.txt	LTP141	ltpFR	19	3	0	CORPORATION	382	n/a	1	n/a	n/a	n/a	n/a	n/a
672.066	n/a	REC_WORD	336033	wordpools/wasnorm_wordpool.txt	LTP141	ltpFR	19	3	0	TOMATO	1476	n/a	0	n/a	n/a	n/a	n/a	n/a
673.412	n/a	REC_WORD	336706	wordpools/wasnorm_wordpool.txt	LTP141	ltpFR	19	3	0	WIRE	1616	n/a	0	n/a	n/a	n/a	n/a	n/a
674.83	n/a	REC_WORD	337415	wordpools/wasnorm_wordpool.txt	LTP141	ltpFR	19	3	0	ROAD	1196	n/a	1	n/a	n/a	n/a	n/a	n/a
676.322	n/a	REC_WORD	338161	wordpools/wasnorm_wordpool.txt	LTP141	ltpFR	19	3	0	RADISH	1158	n/a	0	n/a	n/a	n/a	n/a	n/a
751.824	n/a	WORD	375912	wordpools/wasnorm_wordpool.txt	LTP141	ltpFR	19	4	1	TUNA	1518	n/a	1	1	0.412841796875	0.57763671875	upper	../fonts/amplitud.ttf
755.882	n/a	WORD	377941	wordpools/wasnorm_wordpool.txt	LTP141	ltpFR	19	4	1	TABLE	1426	n/a	0	1	0.412841796875	0.57763671875	upper	../fonts/amplitud.ttf
759.846	n/a	WORD	379923	wordpools/wasnorm_wordpool.txt	LTP141	ltpFR	19	4	1	TRAY	1498	n/a	0	1	0.412841796875	0.57763671875	upper	../fonts/amplitud.ttf
763.896	n/a	WORD	381948	wordpools/wasnorm_wordpool.txt	LTP141	ltpFR	19	4	1	STEAM	1375	n/a	0	1	0.412841796875	0.57763671875	upper	../fonts/amplitud.ttf
767.96	n/a	WORD	383980	wordpools/wasnorm_wordpool.txt	LTP141	ltpFR	19	4	0	CASKET	255	n/a	1	0	0.5869140625	0.422607421875	lower	../fonts/zerothre.ttf
771.9	n/a	WORD	385950	wordpools/wasnorm_wordpool.txt	LTP141	ltpFR	19	4	0	FOLLOWER	589	n/a	1	0	0.5869140625	0.422607421875	lower	../fonts/zerothre.ttf
775.876	n/a	WORD	387938	wordpools/wasnorm_wordpool.txt	LTP141	ltpFR	19	4	0	LINEN	825	n/a	0	0	0.5869140625	0.422607421875	lower	../fonts/zerothre.ttf
779.94	n/a	WORD	389970	wordpools/wasnorm_wordpool.txt	LTP141	ltpFR	19	4	0	HOME	712	n/a	1	0	0.5869140625	0.422607421875	lower	../fonts/zerothre.ttf
783.972	n/a	WORD	391986	wordpools/wasnorm_wordpool.txt	LTP141	ltpFR	19	4	1	ARCHITECT	36	n/a	1	1	0.412841796875	0.57763671875	upper	../fonts/amplitud.ttf
787.954	n/a	WORD	393977	wordpools/wasnorm_wordpool.txt	LTP141	ltpFR	19	4	1	COD	340	n/a	0	1	0.412841796875	0.57763671875	upper	../fonts/amplitud.ttf
791.87	n/a	WORD	395935	wordpools/wasnorm_wordpool.txt	LTP141	ltpFR	19	4	1	GLACIER	638	n/a	0	1	0.412841796875	0.57763671875	upper	../fonts/amplitud.ttf
795.828	n/a	WORD	397914	wordpools/wasnorm_wordpool.txt	LTP141	ltpFR	19	4	1	TILE	1468	n/a	1	1	0.412841796875	0.57763671875	upper	../fonts/amplitud.ttf
799.684	n/a	WORD	399842	wordpools/wasnorm_wordpool.txt	LTP141	ltpFR	19	4	0	MEADOW	881	n/a	1	0	0.5869140625	0.422607421875	lower	../fonts/zerothre.ttf
803.608	n/a	WORD	401804	wordpools/wasnorm_wordpool.txt	LTP141	ltpFR	19	4	0	HOUND	724	n/a	1	0	0.5869140625	0.422607421875	lower	../fonts/zerothre.ttf
807.432	n/a	WORD	403716	wordpools/wasnorm_wordpool.txt	LTP141	ltpFR	19	4	0	PAW	1029	n/a	1	0	0.5869140625	0.422607421875	lower	../fonts/zerothre.ttf
811.538	n/a	WORD	405769	wordpools/wasnorm_wordpool.txt	LTP141	ltpFR	19	4	0	MAT	877	n/a	0	0	0.5869140625	0.422607421875	lower	../fonts/zerothre.ttf
817.488	n/a	REC_START	408744	n/a	LTP141	ltpFR	19	4	n/a	n/a	n/a	n/a	n/a	n/a	n/a	n/a	n/a	n/a
818.58	n/a	REC_WORD	409290	wordpools/wasnorm_wordpool.txt	LTP141	ltpFR	19	4	0	MAT	877	n/a	0	n/a	n/a	n/a	n/a	n/a
819.484	n/a	REC_WORD	409742	wordpools/wasnorm_wordpool.txt	LTP141	ltpFR	19	4	0	HOUND	724	n/a	1	n/a	n/a	n/a	n/a	n/a
820.82	n/a	REC_WORD	410410	wordpools/wasnorm_wordpool.txt	LTP141	ltpFR	19	4	0	MEADOW	881	n/a	1	n/a	n/a	n/a	n/a	n/a
824.432	n/a	REC_WORD	412216	wordpools/wasnorm_wordpool.txt	LTP141	ltpFR	19	4	0	HOME	712	n/a	1	n/a	n/a	n/a	n/a	n/a
830.174	n/a	REC_WORD	415087	wordpools/wasnorm_wordpool.txt	LTP141	ltpFR	19	4	1	TABLE	1426	n/a	0	n/a	n/a	n/a	n/a	n/a
831.816	n/a	REC_WORD	415908	wordpools/wasnorm_wordpool.txt	LTP141	ltpFR	19	4	1	TUNA	1518	n/a	1	n/a	n/a	n/a	n/a	n/a
833.522	n/a	REC_WORD	416761	wordpools/wasnorm_wordpool.txt	LTP141	ltpFR	19	4	1	TRAY	1498	n/a	0	n/a	n/a	n/a	n/a	n/a
834.73	n/a	REC_WORD	417365	wordpools/wasnorm_wordpool.txt	LTP141	ltpFR	19	4	1	STEAM	1375	n/a	0	n/a	n/a	n/a	n/a	n/a
836.456	n/a	REC_WORD	418228	wordpools/wasnorm_wordpool.txt	LTP141	ltpFR	19	4	1	COD	340	n/a	0	n/a	n/a	n/a	n/a	n/a
840.208	n/a	REC_WORD	420104	wordpools/wasnorm_wordpool.txt	LTP141	ltpFR	19	4	1	GLACIER	638	n/a	0	n/a	n/a	n/a	n/a	n/a
848.728	n/a	REC_WORD	424364	wordpools/wasnorm_wordpool.txt	LTP141	ltpFR	19	4	0	CASKET	255	n/a	1	n/a	n/a	n/a	n/a	n/a
849.852	n/a	REC_WORD	424926	wordpools/wasnorm_wordpool.txt	LTP141	ltpFR	19	4	0	FOLLOWER	589	n/a	1	n/a	n/a	n/a	n/a	n/a
866.574	n/a	REC_WORD	433287	wordpools/wasnorm_wordpool.txt	LTP141	ltpFR	19	4	0	LINEN	825	n/a	0	n/a	n/a	n/a	n/a	n/a
877.454	n/a	REC_WORD	438727	wordpools/wasnorm_wordpool.txt	LTP141	ltpFR	19	4	0	PAW	1029	n/a	1	n/a	n/a	n/a	n/a	n/a
897.504	n/a	WORD	448752	wordpools/wasnorm_wordpool.txt	LTP141	ltpFR	19	5	0	SOFTBALL	1343	n/a	0	0	0.5869140625	0.422607421875	lower	../fonts/zerothre.ttf
901.504	n/a	WORD	450752	wordpools/wasnorm_wordpool.txt	LTP141	ltpFR	19	5	0	PREACHER	1119	n/a	1	0	0.5869140625	0.422607421875	lower	../fonts/zerothre.ttf
905.652	n/a	WORD	452826	wordpools/wasnorm_wordpool.txt	LTP141	ltpFR	19	5	0	ASTEROID	50	n/a	1	0	0.5869140625	0.422607421875	lower	../fonts/zerothre.ttf
909.51	n/a	WORD	454755	wordpools/wasnorm_wordpool.txt	LTP141	ltpFR	19	5	0	SPY	1360	n/a	1	0	0.5869140625	0.422607421875	lower	../fonts/zerothre.ttf
913.416	n/a	WORD	456708	wordpools/wasnorm_wordpool.txt	LTP141	ltpFR	19	5	0	SALOON	1228	n/a	1	0	0.5869140625	0.422607421875	lower	../fonts/zerothre.ttf
917.516	n/a	WORD	458758	wordpools/wasnorm_wordpool.txt	LTP141	ltpFR	19	5	0	PUB	1135	n/a	1	0	0.5869140625	0.422607421875	lower	../fonts/zerothre.ttf
921.438	n/a	WORD	460719	wordpools/wasnorm_wordpool.txt	LTP141	ltpFR	19	5	0	LIVER	833	n/a	0	0	0.5869140625	0.422607421875	lower	../fonts/zerothre.ttf
925.364	n/a	WORD	462682	wordpools/wasnorm_wordpool.txt	LTP141	ltpFR	19	5	0	MEAL	882	n/a	0	0	0.5869140625	0.422607421875	lower	../fonts/zerothre.ttf
929.546	n/a	WORD	464773	wordpools/wasnorm_wordpool.txt	LTP141	ltpFR	19	5	0	NOTEBOOK	959	n/a	0	0	0.5869140625	0.422607421875	lower	../fonts/zerothre.ttf
933.702	n/a	WORD	466851	wordpools/wasnorm_wordpool.txt	LTP141	ltpFR	19	5	0	LIST	830	n/a	0	0	0.5869140625	0.422607421875	lower	../fonts/zerothre.ttf
937.56	n/a	WORD	468780	wordpools/wasnorm_wordpool.txt	LTP141	ltpFR	19	5	0	ORANGE	980	n/a	0	0	0.5869140625	0.422607421875	lower	../fonts/zerothre.ttf
941.65	n/a	WORD	470825	wordpools/wasnorm_wordpool.txt	LTP141	ltpFR	19	5	0	BROCCOLI	176	n/a	0	0	0.5869140625	0.422607421875	lower	../fonts/zerothre.ttf
945.716	n/a	WORD	472858	wordpools/wasnorm_wordpool.txt	LTP141	ltpFR	19	5	0	CRATER	400	n/a	1	0	0.5869140625	0.422607421875	lower	../fonts/zerothre.ttf
949.756	n/a	WORD	474878	wordpools/wasnorm_wordpool.txt	LTP141	ltpFR	19	5	0	SCALE	1241	n/a	0	0	0.5869140625	0.422607421875	lower	../fonts/zerothre.ttf
953.696	n/a	WORD	476848	wordpools/wasnorm_wordpool.txt	LTP141	ltpFR	19	5	0	VEGETABLE	1552	n/a	0	0	0.5869140625	0.422607421875	lower	../fonts/zerothre.ttf
957.786	n/a	WORD	478893	wordpools/wasnorm_wordpool.txt	LTP141	ltpFR	19	5	0	CROOK	412	n/a	1	0	0.5869140625	0.422607421875	lower	../fonts/zerothre.ttf
963.678	n/a	REC_START	481839	n/a	LTP141	ltpFR	19	5	n/a	n/a	n/a	n/a	n/a	n/a	n/a	n/a	n/a	n/a
964.754	n/a	REC_WORD	482377	wordpools/wasnorm_wordpool.txt	LTP141	ltpFR	19	5	0	CROOK	412	n/a	1	n/a	n/a	n/a	n/a	n/a
967.064	n/a	REC_WORD	483532	wordpools/wasnorm_wordpool.txt	LTP141	ltpFR	19	5	0	VEGETABLE	1552	n/a	0	n/a	n/a	n/a	n/a	n/a
969.084	n/a	REC_WORD	484542	wordpools/wasnorm_wordpool.txt	LTP141	ltpFR	19	5	0	PREACHER	1119	n/a	1	n/a	n/a	n/a	n/a	n/a
970.472	n/a	REC_WORD	485236	wordpools/wasnorm_wordpool.txt	LTP141	ltpFR	19	5	0	NOTEBOOK	959	n/a	0	n/a	n/a	n/a	n/a	n/a
975.714	n/a	REC_WORD	487857	wordpools/wasnorm_wordpool.txt	LTP141	ltpFR	19	5	0	ORANGE	980	n/a	0	n/a	n/a	n/a	n/a	n/a
976.952	n/a	REC_WORD	488476	wordpools/wasnorm_wordpool.txt	LTP141	ltpFR	19	5	0	BROCCOLI	176	n/a	0	n/a	n/a	n/a	n/a	n/a
982.46	n/a	REC_WORD	491230	wordpools/wasnorm_wordpool.txt	LTP141	ltpFR	19	5	0	LIST	830	n/a	0	n/a	n/a	n/a	n/a	n/a
1050.542	n/a	WORD	525271	wordpools/wasnorm_wordpool.txt	LTP141	ltpFR	19	6	-1	STAKE	1368	n/a	-1	1	1.0	1.0	upper	../fonts/Verdana.ttf
1054.574	n/a	WORD	527287	wordpools/wasnorm_wordpool.txt	LTP141	ltpFR	19	6	-1	HOOP	716	n/a	-1	1	1.0	1.0	upper	../fonts/Verdana.ttf
1058.598	n/a	WORD	529299	wordpools/wasnorm_wordpool.txt	LTP141	ltpFR	19	6	-1	BANK	83	n/a	-1	1	1.0	1.0	upper	../fonts/Verdana.ttf
1062.714	n/a	WORD	531357	wordpools/wasnorm_wordpool.txt	LTP141	ltpFR	19	6	-1	CONE	363	n/a	-1	1	1.0	1.0	upper	../fonts/Verdana.ttf
1066.846	n/a	WORD	533423	wordpools/wasnorm_wordpool.txt	LTP141	ltpFR	19	6	-1	ICE	730	n/a	-1	1	1.0	1.0	upper	../fonts/Verdana.ttf
1071.01	n/a	WORD	535505	wordpools/wasnorm_wordpool.txt	LTP141	ltpFR	19	6	-1	LOG	841	n/a	-1	1	1.0	1.0	upper	../fonts/Verdana.ttf
1075.186	n/a	WORD	537593	wordpools/wasnorm_wordpool.txt	LTP141	ltpFR	19	6	-1	GOO	648	n/a	-1	1	1.0	1.0	upper	../fonts/Verdana.ttf
1079.234	n/a	WORD	539617	wordpools/wasnorm_wordpool.txt	LTP141	ltpFR	19	6	-1	SEAGULL	1261	n/a	-1	1	1.0	1.0	upper	../fonts/Verdana.ttf
1083.29	n/a	WORD	541645	wordpools/wasnorm_wordpool.txt	LTP141	ltpFR	19	6	-1	FEATHER	557	n/a	-1	1	1.0	1.0	upper	../fonts/Verdana.ttf
1087.206	n/a	WORD	543603	wordpools/wasnorm_wordpool.txt	LTP141	ltpFR	19	6	-1	HANGER	687	n/a	-1	1	1.0	1.0	upper	../fonts/Verdana.ttf
1091.13	n/a	WORD	545565	wordpools/wasnorm_wordpool.txt	LTP141	ltpFR	19	6	-1	ATTORNEY	58	n/a	-1	1	1.0	1.0	upper	../fonts/Verdana.ttf
1095.08	n/a	WORD	547540	wordpools/wasnorm_wordpool.txt	LTP141	ltpFR	19	6	-1	BANDIT	81	n/a	-1	1	1.0	1.0	upper	../fonts/Verdana.ttf
1098.902	n/a	WORD	549451	wordpools/wasnorm_wordpool.txt	LTP141	ltpFR	19	6	-1	CRIB	407	n/a	-1	1	1.0	1.0	upper	../fonts/Verdana.ttf
1102.85	n/a	WORD	551425	wordpools/wasnorm_wordpool.txt	LTP141	ltpFR	19	6	-1	COTTAGE	384	n/a	-1	1	1.0	1.0	upper	../fonts/Verdana.ttf
1106.942	n/a	WORD	553471	wordpools/wasnorm_wordpool.txt	LTP141	ltpFR	19	6	-1	LAPEL	800	n/a	-1	1	1.0	1.0	upper	../fonts/Verdana.ttf
1110.924	n/a	WORD	555462	wordpools/wasnorm_wordpool.txt	LTP141	ltpFR	19	6	-1	HOOD	714	n/a	-1	1	1.0	1.0	upper	../fonts/Verdana.ttf
1116.598	n/a	REC_START	558299	n/a	LTP141	ltpFR	19	6	n/a	n/a	n/a	n/a	n/a	n/a	n/a	n/a	n/a	n/a
1117.786	n/a	REC_WORD	558893	wordpools/wasnorm_wordpool.txt	LTP141	ltpFR	19	6	-1	HOOD	714	n/a	-1	n/a	n/a	n/a	n/a	n/a
1119.168	n/a	REC_WORD	559584	wordpools/wasnorm_wordpool.txt	LTP141	ltpFR	19	6	-1	LAPEL	800	n/a	-1	n/a	n/a	n/a	n/a	n/a
1120.58	n/a	REC_WORD	560290	wordpools/wasnorm_wordpool.txt	LTP141	ltpFR	19	6	-1	ATTORNEY	58	n/a	-1	n/a	n/a	n/a	n/a	n/a
1126.904	n/a	REC_WORD	563452	wordpools/wasnorm_wordpool.txt	LTP141	ltpFR	19	6	-1	BANDIT	81	n/a	-1	n/a	n/a	n/a	n/a	n/a
1128.62	n/a	REC_WORD	564310	wordpools/wasnorm_wordpool.txt	LTP141	ltpFR	19	6	-1	STAKE	1368	n/a	-1	n/a	n/a	n/a	n/a	n/a
1130.014	n/a	REC_WORD	565007	wordpools/wasnorm_wordpool.txt	LTP141	ltpFR	19	6	-1	HOOP	716	n/a	-1	n/a	n/a	n/a	n/a	n/a
1136.234	n/a	REC_WORD	568117	wordpools/wasnorm_wordpool.txt	LTP141	ltpFR	19	6	n/a	COMB	351	n/a	n/a	n/a	n/a	n/a	n/a	n/a
1137.602	n/a	REC_WORD	568801	wordpools/wasnorm_wordpool.txt	LTP141	ltpFR	19	6	-1	ICE	730	n/a	-1	n/a	n/a	n/a	n/a	n/a
1139.752	n/a	REC_WORD	569876	wordpools/wasnorm_wordpool.txt	LTP141	ltpFR	19	6	n/a	CREAM	402	n/a	n/a	n/a	n/a	n/a	n/a	n/a
1146.412	n/a	REC_WORD	573206	wordpools/wasnorm_wordpool.txt	LTP141	ltpFR	19	6	-1	SEAGULL	1261	n/a	-1	n/a	n/a	n/a	n/a	n/a
1147.888	n/a	REC_WORD	573944	wordpools/wasnorm_wordpool.txt	LTP141	ltpFR	19	6	-1	FEATHER	557	n/a	-1	n/a	n/a	n/a	n/a	n/a
1150.294	n/a	REC_WORD	575147	wordpools/wasnorm_wordpool.txt	LTP141	ltpFR	19	6	-1	GOO	648	n/a	-1	n/a	n/a	n/a	n/a	n/a
1164.052	n/a	REC_WORD	582026	wordpools/wasnorm_wordpool.txt	LTP141	ltpFR	19	6	-1	LOG	841	n/a	-1	n/a	n/a	n/a	n/a	n/a
1206.262	n/a	WORD	603131	wordpools/wasnorm_wordpool.txt	LTP141	ltpFR	19	7	-1	ELEVATOR	524	n/a	-1	1	1.0	1.0	upper	../fonts/Verdana.ttf
1210.154	n/a	WORD	605077	wordpools/wasnorm_wordpool.txt	LTP141	ltpFR	19	7	-1	LODGE	839	n/a	-1	1	1.0	1.0	upper	../fonts/Verdana.ttf
1214.21	n/a	WORD	607105	wordpools/wasnorm_wordpool.txt	LTP141	ltpFR	19	7	-1	FORK	594	n/a	-1	1	1.0	1.0	upper	../fonts/Verdana.ttf
1218.024	n/a	WORD	609012	wordpools/wasnorm_wordpool.txt	LTP141	ltpFR	19	7	-1	TURKEY	1520	n/a	-1	1	1.0	1.0	upper	../fonts/Verdana.ttf
1221.998	n/a	WORD	610999	wordpools/wasnorm_wordpool.txt	LTP141	ltpFR	19	7	-1	OCTOPUS	971	n/a	-1	1	1.0	1.0	upper	../fonts/Verdana.ttf
1225.872	n/a	WORD	612936	wordpools/wasnorm_wordpool.txt	LTP141	ltpFR	19	7	-1	KIDNEY	776	n/a	-1	1	1.0	1.0	upper	../fonts/Verdana.ttf
1229.73	n/a	WORD	614865	wordpools/wasnorm_wordpool.txt	LTP141	ltpFR	19	7	-1	WATER	1594	n/a	-1	1	1.0	1.0	upper	../fonts/Verdana.ttf
1233.828	n/a	WORD	616914	wordpools/wasnorm_wordpool.txt	LTP141	ltpFR	19	7	-1	CANOE	233	n/a	-1	1	1.0	1.0	upper	../fonts/Verdana.ttf
1237.994	n/a	WORD	618997	wordpools/wasnorm_wordpool.txt	LTP141	ltpFR	19	7	-1	GAUZE	626	n/a	-1	1	1.0	1.0	upper	../fonts/Verdana.ttf
1241.884	n/a	WORD	620942	wordpools/wasnorm_wordpool.txt	LTP141	ltpFR	19	7	-1	VEIN	1554	n/a	-1	1	1.0	1.0	upper	../fonts/Verdana.ttf
1246.084	n/a	WORD	623042	wordpools/wasnorm_wordpool.txt	LTP141	ltpFR	19	7	-1	ROOM	1206	n/a	-1	1	1.0	1.0	upper	../fonts/Verdana.ttf
1249.956	n/a	WORD	624978	wordpools/wasnorm_wordpool.txt	LTP141	ltpFR	19	7	-1	SLIDE	1326	n/a	-1	1	1.0	1.0	upper	../fonts/Verdana.ttf
1254.114	n/a	WORD	627057	wordpools/wasnorm_wordpool.txt	LTP141	ltpFR	19	7	-1	TRANSPLANT	1496	n/a	-1	1	1.0	1.0	upper	../fonts/Verdana.ttf
1258.012	n/a	WORD	629006	wordpools/wasnorm_wordpool.txt	LTP141	ltpFR	19	7	-1	POOL	1103	n/a	-1	1	1.0	1.0	upper	../fonts/Verdana.ttf
1262.112	n/a	WORD	631056	wordpools/wasnorm_wordpool.txt	LTP141	ltpFR	19	7	-1	COOKBOOK	373	n/a	-1	1	1.0	1.0	upper	../fonts/Verdana.ttf
1266.17	n/a	WORD	633085	wordpools/wasnorm_wordpool.txt	LTP141	ltpFR	19	7	-1	MICROWAVE	892	n/a	-1	1	1.0	1.0	upper	../fonts/Verdana.ttf
1271.868	n/a	REC_START	635934	n/a	LTP141	ltpFR	19	7	n/a	n/a	n/a	n/a	n/a	n/a	n/a	n/a	n/a	n/a
1273.748	n/a	REC_WORD	636874	wordpools/wasnorm_wordpool.txt	LTP141	ltpFR	19	7	-1	MICROWAVE	892	n/a	-1	n/a	n/a	n/a	n/a	n/a
1275.016	n/a	REC_WORD	637508	wordpools/wasnorm_wordpool.txt	LTP141	ltpFR	19	7	-1	COOKBOOK	373	n/a	-1	n/a	n/a	n/a	n/a	n/a
1276.244	n/a	REC_WORD	638122	wordpools/wasnorm_wordpool.txt	LTP141	ltpFR	19	7	-1	SLIDE	1326	n/a	-1	n/a	n/a	n/a	n/a	n/a
1277.674	n/a	REC_WORD	638837	wordpools/wasnorm_wordpool.txt	LTP141	ltpFR	19	7	-1	POOL	1103	n/a	-1	n/a	n/a	n/a	n/a	n/a
1279.29	n/a	REC_WORD	639645	wordpools/wasnorm_wordpool.txt	LTP141	ltpFR	19	7	-1	ELEVATOR	524	n/a	-1	n/a	n/a	n/a	n/a	n/a
1280.498	n/a	REC_WORD	640249	wordpools/wasnorm_wordpool.txt	LTP141	ltpFR	19	7	-1	LODGE	839	n/a	-1	n/a	n/a	n/a	n/a	n/a
1281.926	n/a	REC_WORD	640963	wordpools/wasnorm_wordpool.txt	LTP141	ltpFR	19	7	-1	WATER	1594	n/a	-1	n/a	n/a	n/a	n/a	n/a
1284.236	n/a	REC_WORD	642118	wordpools/wasnorm_wordpool.txt	LTP141	ltpFR	19	7	-1	CANOE	233	n/a	-1	n/a	n/a	n/a	n/a	n/a
1287.312	n/a	REC_WORD	643656	wordpools/wasnorm_wordpool.txt	LTP141	ltpFR	19	7	-1	FORK	594	n/a	-1	n/a	n/a	n/a	n/a	n/a
1338.434	n/a	REC_WORD	669217	wordpools/wasnorm_wordpool.txt	LTP141	ltpFR	19	7	-1	GAUZE	626	n/a	-1	n/a	n/a	n/a	n/a	n/a
1351.152	n/a	WORD	675576	wordpools/wasnorm_wordpool.txt	LTP141	ltpFR	19	8	0	TAIL	1430	n/a	0	0	0.5869140625	0.422607421875	lower	../fonts/zerothre.ttf
1354.992	n/a	WORD	677496	wordpools/wasnorm_wordpool.txt	LTP141	ltpFR	19	8	0	TOY	1492	n/a	0	0	0.5869140625	0.422607421875	lower	../fonts/zerothre.ttf
1358.95	n/a	WORD	679475	wordpools/wasnorm_wordpool.txt	LTP141	ltpFR	19	8	0	INFANT	737	n/a	0	0	0.5869140625	0.422607421875	lower	../fonts/zerothre.ttf
1362.864	n/a	WORD	681432	wordpools/wasnorm_wordpool.txt	LTP141	ltpFR	19	8	1	COIN	343	n/a	0	1	0.412841796875	0.57763671875	upper	../fonts/amplitud.ttf
1366.796	n/a	WORD	683398	wordpools/wasnorm_wordpool.txt	LTP141	ltpFR	19	8	1	WALRUS	1585	n/a	1	1	0.412841796875	0.57763671875	upper	../fonts/amplitud.ttf
1370.794	n/a	WORD	685397	wordpools/wasnorm_wordpool.txt	LTP141	ltpFR	19	8	1	VESSEL	1558	n/a	0	1	0.412841796875	0.57763671875	upper	../fonts/amplitud.ttf
1374.944	n/a	WORD	687472	wordpools/wasnorm_wordpool.txt	LTP141	ltpFR	19	8	0	CREW	406	n/a	1	0	0.5869140625	0.422607421875	lower	../fonts/zerothre.ttf
1379.068	n/a	WORD	689534	wordpools/wasnorm_wordpool.txt	LTP141	ltpFR	19	8	0	NICKEL	950	n/a	0	0	0.5869140625	0.422607421875	lower	../fonts/zerothre.ttf
1383.226	n/a	WORD	691613	wordpools/wasnorm_wordpool.txt	LTP141	ltpFR	19	8	0	WHEAT	1602	n/a	1	0	0.5869140625	0.422607421875	lower	../fonts/zerothre.ttf
1387.142	n/a	WORD	693571	wordpools/wasnorm_wordpool.txt	LTP141	ltpFR	19	8	0	MAJOR	859	n/a	1	0	0.5869140625	0.422607421875	lower	../fonts/zerothre.ttf
1391.19	n/a	WORD	695595	wordpools/wasnorm_wordpool.txt	LTP141	ltpFR	19	8	0	MOAT	903	n/a	1	0	0.5869140625	0.422607421875	lower	../fonts/zerothre.ttf
1395.08	n/a	WORD	697540	wordpools/wasnorm_wordpool.txt	LTP141	ltpFR	19	8	1	KING	777	n/a	1	1	0.412841796875	0.57763671875	upper	../fonts/amplitud.ttf
1399.222	n/a	WORD	699611	wordpools/wasnorm_wordpool.txt	LTP141	ltpFR	19	8	1	DWARF	510	n/a	0	1	0.412841796875	0.57763671875	upper	../fonts/amplitud.ttf
1403.328	n/a	WORD	701664	wordpools/wasnorm_wordpool.txt	LTP141	ltpFR	19	8	1	FLEET	578	n/a	0	1	0.412841796875	0.57763671875	upper	../fonts/amplitud.ttf
1407.45	n/a	WORD	703725	wordpools/wasnorm_wordpool.txt	LTP141	ltpFR	19	8	1	ELBOW	520	n/a	0	1	0.412841796875	0.57763671875	upper	../fonts/amplitud.ttf
1411.366	n/a	WORD	705683	wordpools/wasnorm_wordpool.txt	LTP141	ltpFR	19	8	1	REPTILE	1185	n/a	1	1	0.412841796875	0.57763671875	upper	../fonts/amplitud.ttf
1417.216	n/a	REC_START	708608	n/a	LTP141	ltpFR	19	8	n/a	n/a	n/a	n/a	n/a	n/a	n/a	n/a	n/a	n/a
1418.144	n/a	REC_WORD	709072	wordpools/wasnorm_wordpool.txt	LTP141	ltpFR	19	8	1	REPTILE	1185	n/a	1	n/a	n/a	n/a	n/a	n/a
1419.476	n/a	REC_WORD	709738	wordpools/wasnorm_wordpool.txt	LTP141	ltpFR	19	8	1	ELBOW	520	n/a	0	n/a	n/a	n/a	n/a	n/a
1423.732	n/a	REC_WORD	711866	wordpools/wasnorm_wordpool.txt	LTP141	ltpFR	19	8	1	KING	777	n/a	1	n/a	n/a	n/a	n/a	n/a
1428.062	n/a	REC_WORD	714031	wordpools/wasnorm_wordpool.txt	LTP141	ltpFR	19	8	1	DWARF	510	n/a	0	n/a	n/a	n/a	n/a	n/a
1434.454	n/a	REC_WORD	717227	wordpools/wasnorm_wordpool.txt	LTP141	ltpFR	19	8	0	INFANT	737	n/a	0	n/a	n/a	n/a	n/a	n/a
1435.96	n/a	REC_WORD	717980	wordpools/wasnorm_wordpool.txt	LTP141	ltpFR	19	8	0	TAIL	1430	n/a	0	n/a	n/a	n/a	n/a	n/a
1440.284	n/a	REC_WORD	720142	wordpools/wasnorm_wordpool.txt	LTP141	ltpFR	19	8	1	VESSEL	1558	n/a	0	n/a	n/a	n/a	n/a	n/a
1441.706	n/a	REC_WORD	720853	wordpools/wasnorm_wordpool.txt	LTP141	ltpFR	19	8	0	CREW	406	n/a	1	n/a	n/a	n/a	n/a	n/a
1504.406	n/a	WORD	752203	wordpools/wasnorm_wordpool.txt	LTP141	ltpFR	19	9	-1	CREATURE	403	n/a	-1	1	1.0	1.0	upper	../fonts/Verdana.ttf
1508.256	n/a	WORD	754128	wordpools/wasnorm_wordpool.txt	LTP141	ltpFR	19	9	-1	GARAGE	621	n/a	-1	1	1.0	1.0	upper	../fonts/Verdana.ttf
1512.138	n/a	WORD	756069	wordpools/wasnorm_wordpool.txt	LTP141	ltpFR	19	9	-1	SQUID	1361	n/a	-1	1	1.0	1.0	upper	../fonts/Verdana.ttf
1516.128	n/a	WORD	758064	wordpools/wasnorm_wordpool.txt	LTP141	ltpFR	19	9	-1	HOOK	715	n/a	-1	1	1.0	1.0	upper	../fonts/Verdana.ttf
1520.26	n/a	WORD	760130	wordpools/wasnorm_wordpool.txt	LTP141	ltpFR	19	9	-1	CLAW	319	n/a	-1	1	1.0	1.0	upper	../fonts/Verdana.ttf
1524.208	n/a	WORD	762104	wordpools/wasnorm_wordpool.txt	LTP141	ltpFR	19	9	-1	COLUMN	350	n/a	-1	1	1.0	1.0	upper	../fonts/Verdana.ttf
1528.182	n/a	WORD	764091	wordpools/wasnorm_wordpool.txt	LTP141	ltpFR	19	9	-1	ANT	25	n/a	-1	1	1.0	1.0	upper	../fonts/Verdana.ttf
1532.314	n/a	WORD	766157	wordpools/wasnorm_wordpool.txt	LTP141	ltpFR	19	9	-1	VICTIM	1562	n/a	-1	1	1.0	1.0	upper	../fonts/Verdana.ttf
1536.304	n/a	WORD	768152	wordpools/wasnorm_wordpool.txt	LTP141	ltpFR	19	9	-1	THIEF	1456	n/a	-1	1	1.0	1.0	upper	../fonts/Verdana.ttf
1540.254	n/a	WORD	770127	wordpools/wasnorm_wordpool.txt	LTP141	ltpFR	19	9	-1	FINGER	567	n/a	-1	1	1.0	1.0	upper	../fonts/Verdana.ttf
1544.294	n/a	WORD	772147	wordpools/wasnorm_wordpool.txt	LTP141	ltpFR	19	9	-1	FRAME	600	n/a	-1	1	1.0	1.0	upper	../fonts/Verdana.ttf
1548.192	n/a	WORD	774096	wordpools/wasnorm_wordpool.txt	LTP141	ltpFR	19	9	-1	AUTOMOBILE	62	n/a	-1	1	1.0	1.0	upper	../fonts/Verdana.ttf
1552.298	n/a	WORD	776149	wordpools/wasnorm_wordpool.txt	LTP141	ltpFR	19	9	-1	BEETLE	116	n/a	-1	1	1.0	1.0	upper	../fonts/Verdana.ttf
1556.264	n/a	WORD	778132	wordpools/wasnorm_wordpool.txt	LTP141	ltpFR	19	9	-1	DIAPER	459	n/a	-1	1	1.0	1.0	upper	../fonts/Verdana.ttf
1560.088	n/a	WORD	780044	wordpools/wasnorm_wordpool.txt	LTP141	ltpFR	19	9	-1	CHILD	299	n/a	-1	1	1.0	1.0	upper	../fonts/Verdana.ttf
1563.912	n/a	WORD	781956	wordpools/wasnorm_wordpool.txt	LTP141	ltpFR	19	9	-1	RUST	1219	n/a	-1	1	1.0	1.0	upper	../fonts/Verdana.ttf
1569.91	n/a	REC_START	784955	n/a	LTP141	ltpFR	19	9	n/a	n/a	n/a	n/a	n/a	n/a	n/a	n/a	n/a	n/a
1571.078	n/a	REC_WORD	785539	wordpools/wasnorm_wordpool.txt	LTP141	ltpFR	19	9	-1	RUST	1219	n/a	-1	n/a	n/a	n/a	n/a	n/a
1573.388	n/a	REC_WORD	786694	wordpools/wasnorm_wordpool.txt	LTP141	ltpFR	19	9	-1	CHILD	299	n/a	-1	n/a	n/a	n/a	n/a	n/a
1584.748	n/a	REC_WORD	792374	wordpools/wasnorm_wordpool.txt	LTP141	ltpFR	19	9	-1	DIAPER	459	n/a	-1	n/a	n/a	n/a	n/a	n/a
1586.224	n/a	REC_WORD	793112	wordpools/wasnorm_wordpool.txt	LTP141	ltpFR	19	9	-1	COLUMN	350	n/a	-1	n/a	n/a	n/a	n/a	n/a
1588.614	n/a	REC_WORD	794307	wordpools/wasnorm_wordpool.txt	LTP141	ltpFR	19	9	-1	SQUID	1361	n/a	-1	n/a	n/a	n/a	n/a	n/a
1590.814	n/a	REC_WORD	795407	wordpools/wasnorm_wordpool.txt	LTP141	ltpFR	19	9	-1	GARAGE	621	n/a	-1	n/a	n/a	n/a	n/a	n/a
1606.948	n/a	REC_WORD	803474	wordpools/wasnorm_wordpool.txt	LTP141	ltpFR	19	9	-1	AUTOMOBILE	62	n/a	-1	n/a	n/a	n/a	n/a	n/a
1609.154	n/a	REC_WORD	804577	wordpools/wasnorm_wordpool.txt	LTP141	ltpFR	19	9	-1	BEETLE	116	n/a	-1	n/a	n/a	n/a	n/a	n/a
1618.204	n/a	REC_WORD	809102	wordpools/wasnorm_wordpool.txt	LTP141	ltpFR	19	9	-1	FRAME	600	n/a	-1	n/a	n/a	n/a	n/a	n/a
1622.27	n/a	REC_WORD	811135	wordpools/wasnorm_wordpool.txt	LTP141	ltpFR	19	9	-1	FINGER	567	n/a	-1	n/a	n/a	n/a	n/a	n/a
1623.84	n/a	REC_WORD	811920	wordpools/wasnorm_wordpool.txt	LTP141	ltpFR	19	9	-1	THIEF	1456	n/a	-1	n/a	n/a	n/a	n/a	n/a
1648.994	n/a	WORD	824497	wordpools/wasnorm_wordpool.txt	LTP141	ltpFR	19	10	-1	PERSONNEL	1053	n/a	-1	1	1.0	1.0	upper	../fonts/Verdana.ttf
1652.984	n/a	WORD	826492	wordpools/wasnorm_wordpool.txt	LTP141	ltpFR	19	10	-1	WATERFALL	1595	n/a	-1	1	1.0	1.0	upper	../fonts/Verdana.ttf
1657.176	n/a	WORD	828588	wordpools/wasnorm_wordpool.txt	LTP141	ltpFR	19	10	-1	DOCUMENT	479	n/a	-1	1	1.0	1.0	upper	../fonts/Verdana.ttf
1661.1	n/a	WORD	830550	wordpools/wasnorm_wordpool.txt	LTP141	ltpFR	19	10	-1	MARROW	872	n/a	-1	1	1.0	1.0	upper	../fonts/Verdana.ttf
1665.04	n/a	WORD	832520	wordpools/wasnorm_wordpool.txt	LTP141	ltpFR	19	10	-1	SAXOPHONE	1240	n/a	-1	1	1.0	1.0	upper	../fonts/Verdana.ttf
1668.996	n/a	WORD	834498	wordpools/wasnorm_wordpool.txt	LTP141	ltpFR	19	10	-1	BALCONY	72	n/a	-1	1	1.0	1.0	upper	../fonts/Verdana.ttf
1672.862	n/a	WORD	836431	wordpools/wasnorm_wordpool.txt	LTP141	ltpFR	19	10	-1	CEREAL	272	n/a	-1	1	1.0	1.0	upper	../fonts/Verdana.ttf
1676.844	n/a	WORD	838422	wordpools/wasnorm_wordpool.txt	LTP141	ltpFR	19	10	-1	CLARINET	317	n/a	-1	1	1.0	1.0	upper	../fonts/Verdana.ttf
1680.968	n/a	WORD	840484	wordpools/wasnorm_wordpool.txt	LTP141	ltpFR	19	10	-1	KLEENEX	782	n/a	-1	1	1.0	1.0	upper	../fonts/Verdana.ttf
1684.866	n/a	WORD	842433	wordpools/wasnorm_wordpool.txt	LTP141	ltpFR	19	10	-1	TELEPHONE	1445	n/a	-1	1	1.0	1.0	upper	../fonts/Verdana.ttf
1688.84	n/a	WORD	844420	wordpools/wasnorm_wordpool.txt	LTP141	ltpFR	19	10	-1	POLYESTER	1100	n/a	-1	1	1.0	1.0	upper	../fonts/Verdana.ttf
1692.906	n/a	WORD	846453	wordpools/wasnorm_wordpool.txt	LTP141	ltpFR	19	10	-1	POCKET	1093	n/a	-1	1	1.0	1.0	upper	../fonts/Verdana.ttf
1696.864	n/a	WORD	848432	wordpools/wasnorm_wordpool.txt	LTP141	ltpFR	19	10	-1	FIN	566	n/a	-1	1	1.0	1.0	upper	../fonts/Verdana.ttf
1700.728	n/a	WORD	850364	wordpools/wasnorm_wordpool.txt	LTP141	ltpFR	19	10	-1	WHALE	1601	n/a	-1	1	1.0	1.0	upper	../fonts/Verdana.ttf
1704.702	n/a	WORD	852351	wordpools/wasnorm_wordpool.txt	LTP141	ltpFR	19	10	-1	LOLLIPOP	842	n/a	-1	1	1.0	1.0	upper	../fonts/Verdana.ttf
1708.526	n/a	WORD	854263	wordpools/wasnorm_wordpool.txt	LTP141	ltpFR	19	10	-1	CANE	231	n/a	-1	1	1.0	1.0	upper	../fonts/Verdana.ttf
1714.218	n/a	REC_START	857109	n/a	LTP141	ltpFR	19	10	n/a	n/a	n/a	n/a	n/a	n/a	n/a	n/a	n/a	n/a
1715.356	n/a	REC_WORD	857678	wordpools/wasnorm_wordpool.txt	LTP141	ltpFR	19	10	-1	CANE	231	n/a	-1	n/a	n/a	n/a	n/a	n/a
1716.538	n/a	REC_WORD	858269	wordpools/wasnorm_wordpool.txt	LTP141	ltpFR	19	10	-1	LOLLIPOP	842	n/a	-1	n/a	n/a	n/a	n/a	n/a
1721.762	n/a	REC_WORD	860881	wordpools/wasnorm_wordpool.txt	LTP141	ltpFR	19	10	-1	PERSONNEL	1053	n/a	-1	n/a	n/a	n/a	n/a	n/a
1724.45	n/a	REC_WORD	862225	wordpools/wasnorm_wordpool.txt	LTP141	ltpFR	19	10	-1	DOCUMENT	479	n/a	-1	n/a	n/a	n/a	n/a	n/a
1725.602	n/a	REC_WORD	862801	wordpools/wasnorm_wordpool.txt	LTP141	ltpFR	19	10	-1	WATERFALL	1595	n/a	-1	n/a	n/a	n/a	n/a	n/a
1801.19	n/a	WORD	900595	wordpools/wasnorm_wordpool.txt	LTP141	ltpFR	19	11	1	COSTUME	383	n/a	0	1	0.412841796875	0.57763671875	upper	../fonts/amplitud.ttf
1805.232	n/a	WORD	902616	wordpools/wasnorm_wordpool.txt	LTP141	ltpFR	19	11	1	PATRIOT	1026	n/a	1	1	0.412841796875	0.57763671875	upper	../fonts/amplitud.ttf
1809.354	n/a	WORD	904677	wordpools/wasnorm_wordpool.txt	LTP141	ltpFR	19	11	1	FOOTBALL	591	n/a	0	1	0.412841796875	0.57763671875	upper	../fonts/amplitud.ttf
1813.42	n/a	WORD	906710	wordpools/wasnorm_wordpool.txt	LTP141	ltpFR	19	11	1	SCALPEL	1243	n/a	0	1	0.412841796875	0.57763671875	upper	../fonts/amplitud.ttf
1817.626	n/a	WORD	908813	wordpools/wasnorm_wordpool.txt	LTP141	ltpFR	19	11	1	TUNNEL	1519	n/a	0	1	0.412841796875	0.57763671875	upper	../fonts/amplitud.ttf
1821.458	n/a	WORD	910729	wordpools/wasnorm_wordpool.txt	LTP141	ltpFR	19	11	1	RAILROAD	1162	n/a	0	1	0.412841796875	0.57763671875	upper	../fonts/amplitud.ttf
1825.392	n/a	WORD	912696	wordpools/wasnorm_wordpool.txt	LTP141	ltpFR	19	11	1	PATIENT	1024	n/a	1	1	0.412841796875	0.57763671875	upper	../fonts/amplitud.ttf
1829.606	n/a	WORD	914803	wordpools/wasnorm_wordpool.txt	LTP141	ltpFR	19	11	1	COMET	353	n/a	0	1	0.412841796875	0.57763671875	upper	../fonts/amplitud.ttf
1833.448	n/a	WORD	916724	wordpools/wasnorm_wordpool.txt	LTP141	ltpFR	19	11	1	CHERRY	293	n/a	0	1	0.412841796875	0.57763671875	upper	../fonts/amplitud.ttf
1837.446	n/a	WORD	918723	wordpools/wasnorm_wordpool.txt	LTP141	ltpFR	19	11	1	DOCTOR	478	n/a	n/a	1	0.412841796875	0.57763671875	upper	../fonts/amplitud.ttf
1840.47	n/a	SLOW_MSG	920235	n/a	LTP141	ltpFR	19	11	n/a	n/a	n/a	n/a	n/a	n/a	n/a	n/a	n/a	n/a
1843.146	n/a	WORD	921573	wordpools/wasnorm_wordpool.txt	LTP141	ltpFR	19	11	1	HORIZON	717	n/a	0	1	0.412841796875	0.57763671875	upper	../fonts/amplitud.ttf
1847.236	n/a	WORD	923618	wordpools/wasnorm_wordpool.txt	LTP141	ltpFR	19	11	1	FIREMAN	569	n/a	1	1	0.412841796875	0.57763671875	upper	../fonts/amplitud.ttf
1851.342	n/a	WORD	925671	wordpools/wasnorm_wordpool.txt	LTP141	ltpFR	19	11	1	SAILOR	1223	n/a	1	1	0.412841796875	0.57763671875	upper	../fonts/amplitud.ttf
1855.25	n/a	WORD	927625	wordpools/wasnorm_wordpool.txt	LTP141	ltpFR	19	11	1	VIKING	1565	n/a	1	1	0.412841796875	0.57763671875	upper	../fonts/amplitud.ttf
1859.106	n/a	WORD	929553	wordpools/wasnorm_wordpool.txt	LTP141	ltpFR	19	11	1	SPOON	1357	n/a	0	1	0.412841796875	0.57763671875	upper	../fonts/amplitud.ttf
1863.182	n/a	WORD	931591	wordpools/wasnorm_wordpool.txt	LTP141	ltpFR	19	11	1	CHIP	303	n/a	0	1	0.412841796875	0.57763671875	upper	../fonts/amplitud.ttf
1868.97	n/a	REC_START	934485	n/a	LTP141	ltpFR	19	11	n/a	n/a	n/a	n/a	n/a	n/a	n/a	n/a	n/a	n/a
1869.952	n/a	REC_WORD	934976	wordpools/wasnorm_wordpool.txt	LTP141	ltpFR	19	11	1	SPOON	1357	n/a	0	n/a	n/a	n/a	n/a	n/a
1871.744	n/a	REC_WORD	935872	wordpools/wasnorm_wordpool.txt	LTP141	ltpFR	19	11	1	CHIP	303	n/a	0	n/a	n/a	n/a	n/a	n/a
1872.852	n/a	REC_WORD	936426	wordpools/wasnorm_wordpool.txt	LTP141	ltpFR	19	11	1	VIKING	1565	n/a	1	n/a	n/a	n/a	n/a	n/a
1874.788	n/a	REC_WORD	937394	wordpools/wasnorm_wordpool.txt	LTP141	ltpFR	19	11	1	DOCTOR	478	n/a	n/a	n/a	n/a	n/a	n/a	n/a
1880.276	n/a	REC_WORD	940138	wordpools/wasnorm_wordpool.txt	LTP141	ltpFR	19	11	1	HORIZON	717	n/a	0	n/a	n/a	n/a	n/a	n/a
1886.058	n/a	REC_WORD	943029	wordpools/wasnorm_wordpool.txt	LTP141	ltpFR	19	11	1	COMET	353	n/a	0	n/a	n/a	n/a	n/a	n/a
1948.912	n/a	WORD	974456	wordpools/wasnorm_wordpool.txt	LTP141	ltpFR	19	12	1	CAMEL	223	n/a	1	1	0.412841796875	0.57763671875	upper	../fonts/amplitud.ttf
1952.778	n/a	WORD	976389	wordpools/wasnorm_wordpool.txt	LTP141	ltpFR	19	12	1	ASHTRAY	45	n/a	0	1	0.412841796875	0.57763671875	upper	../fonts/amplitud.ttf
1956.86	n/a	WORD	978430	wordpools/wasnorm_wordpool.txt	LTP141	ltpFR	19	12	0	BAND	78	n/a	1	0	0.5869140625	0.422607421875	lower	../fonts/zerothre.ttf
1960.9	n/a	WORD	980450	wordpools/wasnorm_wordpool.txt	LTP141	ltpFR	19	12	0	VINE	1568	n/a	1	0	0.5869140625	0.422607421875	lower	../fonts/zerothre.ttf
1965.058	n/a	WORD	982529	wordpools/wasnorm_wordpool.txt	LTP141	ltpFR	19	12	1	SOLDIER	1344	n/a	1	1	0.412841796875	0.57763671875	upper	../fonts/amplitud.ttf
1968.914	n/a	WORD	984457	wordpools/wasnorm_wordpool.txt	LTP141	ltpFR	19	12	1	STAMP	1370	n/a	1	1	0.412841796875	0.57763671875	upper	../fonts/amplitud.ttf
1972.88	n/a	WORD	986440	wordpools/wasnorm_wordpool.txt	LTP141	ltpFR	19	12	1	OPERA	978	n/a	0	1	0.412841796875	0.57763671875	upper	../fonts/amplitud.ttf
1976.896	n/a	WORD	988448	wordpools/wasnorm_wordpool.txt	LTP141	ltpFR	19	12	0	SURF	1412	n/a	1	0	0.5869140625	0.422607421875	lower	../fonts/zerothre.ttf
1981.012	n/a	WORD	990506	wordpools/wasnorm_wordpool.txt	LTP141	ltpFR	19	12	0	PUDDLE	1140	n/a	1	0	0.5869140625	0.422607421875	lower	../fonts/zerothre.ttf
1985.186	n/a	WORD	992593	wordpools/wasnorm_wordpool.txt	LTP141	ltpFR	19	12	0	SIDING	1304	n/a	1	0	0.5869140625	0.422607421875	lower	../fonts/zerothre.ttf
1989.176	n/a	WORD	994588	wordpools/wasnorm_wordpool.txt	LTP141	ltpFR	19	12	0	CONTRACTOR	369	n/a	1	0	0.5869140625	0.422607421875	lower	../fonts/zerothre.ttf
1993.134	n/a	WORD	996567	wordpools/wasnorm_wordpool.txt	LTP141	ltpFR	19	12	0	CHIMPANZEE	302	n/a	1	0	0.5869140625	0.422607421875	lower	../fonts/zerothre.ttf
1997.216	n/a	WORD	998608	wordpools/wasnorm_wordpool.txt	LTP141	ltpFR	19	12	0	CRICKET	408	n/a	0	0	0.5869140625	0.422607421875	lower	../fonts/zerothre.ttf
2001.23	n/a	WORD	1000615	wordpools/wasnorm_wordpool.txt	LTP141	ltpFR	19	12	1	UMBRELLA	1534	n/a	0	1	0.412841796875	0.57763671875	upper	../fonts/amplitud.ttf
2005.346	n/a	WORD	1002673	wordpools/wasnorm_wordpool.txt	LTP141	ltpFR	19	12	1	POSTAGE	1113	n/a	0	1	0.412841796875	0.57763671875	upper	../fonts/amplitud.ttf
2009.494	n/a	WORD	1004747	wordpools/wasnorm_wordpool.txt	LTP141	ltpFR	19	12	1	BRANDY	169	n/a	0	1	0.412841796875	0.57763671875	upper	../fonts/amplitud.ttf
2015.368	n/a	REC_START	1007684	n/a	LTP141	ltpFR	19	12	n/a	n/a	n/a	n/a	n/a	n/a	n/a	n/a	n/a	n/a
2017.174	n/a	REC_WORD	1008587	wordpools/wasnorm_wordpool.txt	LTP141	ltpFR	19	12	1	BRANDY	169	n/a	0	n/a	n/a	n/a	n/a	n/a
2018.362	n/a	REC_WORD	1009181	wordpools/wasnorm_wordpool.txt	LTP141	ltpFR	19	12	1	POSTAGE	1113	n/a	0	n/a	n/a	n/a	n/a	n/a
2019.942	n/a	REC_WORD	1009971	wordpools/wasnorm_wordpool.txt	LTP141	ltpFR	19	12	0	PUDDLE	1140	n/a	1	n/a	n/a	n/a	n/a	n/a
2021.08	n/a	REC_WORD	1010540	wordpools/wasnorm_wordpool.txt	LTP141	ltpFR	19	12	0	SIDING	1304	n/a	1	n/a	n/a	n/a	n/a	n/a
2022.742	n/a	REC_WORD	1011371	wordpools/wasnorm_wordpool.txt	LTP141	ltpFR	19	12	0	CONTRACTOR	369	n/a	1	n/a	n/a	n/a	n/a	n/a
2024.312	n/a	REC_WORD	1012156	wordpools/wasnorm_wordpool.txt	LTP141	ltpFR	19	12	0	CRICKET	408	n/a	0	n/a	n/a	n/a	n/a	n/a
2044.662	n/a	REC_WORD	1022331	wordpools/wasnorm_wordpool.txt	LTP141	ltpFR	19	12	1	OPERA	978	n/a	0	n/a	n/a	n/a	n/a	n/a
2090.952	n/a	REST_REWET	1045476	n/a	LTP141	ltpFR	19	12	n/a	n/a	n/a	n/a	n/a	n/a	n/a	n/a	n/a	n/a
2593.634	n/a	WORD	1296817	wordpools/wasnorm_wordpool.txt	LTP141	ltpFR	19	13	1	WIFE	1609	n/a	1	1	0.412841796875	0.57763671875	upper	../fonts/amplitud.ttf
2597.5	n/a	WORD	1298750	wordpools/wasnorm_wordpool.txt	LTP141	ltpFR	19	13	1	COMPANION	357	n/a	1	1	0.412841796875	0.57763671875	upper	../fonts/amplitud.ttf
2601.398	n/a	WORD	1300699	wordpools/wasnorm_wordpool.txt	LTP141	ltpFR	19	13	1	SANDPAPER	1231	n/a	0	1	0.412841796875	0.57763671875	upper	../fonts/amplitud.ttf
2605.406	n/a	WORD	1302703	wordpools/wasnorm_wordpool.txt	LTP141	ltpFR	19	13	1	HAND	683	n/a	0	1	0.412841796875	0.57763671875	upper	../fonts/amplitud.ttf
2609.464	n/a	WORD	1304732	wordpools/wasnorm_wordpool.txt	LTP141	ltpFR	19	13	1	MECHANIC	884	n/a	1	1	0.412841796875	0.57763671875	upper	../fonts/amplitud.ttf
2613.314	n/a	WORD	1306657	wordpools/wasnorm_wordpool.txt	LTP141	ltpFR	19	13	1	BOOK	149	n/a	0	1	0.412841796875	0.57763671875	upper	../fonts/amplitud.ttf
2617.22	n/a	WORD	1308610	wordpools/wasnorm_wordpool.txt	LTP141	ltpFR	19	13	1	BINDER	127	n/a	0	1	0.412841796875	0.57763671875	upper	../fonts/amplitud.ttf
2621.118	n/a	WORD	1310559	wordpools/wasnorm_wordpool.txt	LTP141	ltpFR	19	13	1	DOOR	486	n/a	0	1	0.412841796875	0.57763671875	upper	../fonts/amplitud.ttf
2625.158	n/a	WORD	1312579	wordpools/wasnorm_wordpool.txt	LTP141	ltpFR	19	13	1	SURGEON	1413	n/a	1	1	0.412841796875	0.57763671875	upper	../fonts/amplitud.ttf
2629.15	n/a	WORD	1314575	wordpools/wasnorm_wordpool.txt	LTP141	ltpFR	19	13	1	WAREHOUSE	1588	n/a	0	1	0.412841796875	0.57763671875	upper	../fonts/amplitud.ttf
2633.248	n/a	WORD	1316624	wordpools/wasnorm_wordpool.txt	LTP141	ltpFR	19	13	1	WHEEL	1603	n/a	0	1	0.412841796875	0.57763671875	upper	../fonts/amplitud.ttf
2637.114	n/a	WORD	1318557	wordpools/wasnorm_wordpool.txt	LTP141	ltpFR	19	13	1	TOE	1473	n/a	1	1	0.412841796875	0.57763671875	upper	../fonts/amplitud.ttf
2641.288	n/a	WORD	1320644	wordpools/wasnorm_wordpool.txt	LTP141	ltpFR	19	13	1	UNDERWEAR	1537	n/a	0	1	0.412841796875	0.57763671875	upper	../fonts/amplitud.ttf
2645.41	n/a	WORD	1322705	wordpools/wasnorm_wordpool.txt	LTP141	ltpFR	19	13	1	DRAWER	493	n/a	0	1	0.412841796875	0.57763671875	upper	../fonts/amplitud.ttf
2649.278	n/a	WORD	1324639	wordpools/wasnorm_wordpool.txt	LTP141	ltpFR	19	13	1	FORT	595	n/a	0	1	0.412841796875	0.57763671875	upper	../fonts/amplitud.ttf
2653.15	n/a	WORD	1326575	wordpools/wasnorm_wordpool.txt	LTP141	ltpFR	19	13	1	PUDDING	1139	n/a	0	1	0.412841796875	0.57763671875	upper	../fonts/amplitud.ttf
2659.116	n/a	REC_START	1329558	n/a	LTP141	ltpFR	19	13	n/a	n/a	n/a	n/a	n/a	n/a	n/a	n/a	n/a	n/a
2661.08	n/a	REC_WORD	1330540	wordpools/wasnorm_wordpool.txt	LTP141	ltpFR	19	13	1	PUDDING	1139	n/a	0	n/a	n/a	n/a	n/a	n/a
2664.084	n/a	REC_WORD	1332042	wordpools/wasnorm_wordpool.txt	LTP141	ltpFR	19	13	1	DRAWER	493	n/a	0	n/a	n/a	n/a	n/a	n/a
2665.686	n/a	REC_WORD	1332843	wordpools/wasnorm_wordpool.txt	LTP141	ltpFR	19	13	1	WAREHOUSE	1588	n/a	0	n/a	n/a	n/a	n/a	n/a
2667.218	n/a	REC_WORD	1333609	wordpools/wasnorm_wordpool.txt	LTP141	ltpFR	19	13	1	FORT	595	n/a	0	n/a	n/a	n/a	n/a	n/a
2669.692	n/a	REC_WORD	1334846	wordpools/wasnorm_wordpool.txt	LTP141	ltpFR	19	13	1	DOOR	486	n/a	0	n/a	n/a	n/a	n/a	n/a
2671.514	n/a	REC_WORD	1335757	wordpools/wasnorm_wordpool.txt	LTP141	ltpFR	19	13	1	BINDER	127	n/a	0	n/a	n/a	n/a	n/a	n/a
2673.578	n/a	REC_WORD	1336789	wordpools/wasnorm_wordpool.txt	LTP141	ltpFR	19	13	1	BOOK	149	n/a	0	n/a	n/a	n/a	n/a	n/a
2675.084	n/a	REC_WORD	1337542	wordpools/wasnorm_wordpool.txt	LTP141	ltpFR	19	13	1	HAND	683	n/a	0	n/a	n/a	n/a	n/a	n/a
2676.936	n/a	REC_WORD	1338468	wordpools/wasnorm_wordpool.txt	LTP141	ltpFR	19	13	1	SANDPAPER	1231	n/a	0	n/a	n/a	n/a	n/a	n/a
2683.086	n/a	REC_WORD	1341543	wordpools/wasnorm_wordpool.txt	LTP141	ltpFR	19	13	1	WIFE	1609	n/a	1	n/a	n/a	n/a	n/a	n/a
2684.28	n/a	REC_WORD	1342140	wordpools/wasnorm_wordpool.txt	LTP141	ltpFR	19	13	1	COMPANION	357	n/a	1	n/a	n/a	n/a	n/a	n/a
2685.742	n/a	REC_WORD	1342871	wordpools/wasnorm_wordpool.txt	LTP141	ltpFR	19	13	1	MECHANIC	884	n/a	1	n/a	n/a	n/a	n/a	n/a
2693.046	n/a	REC_WORD	1346523	wordpools/wasnorm_wordpool.txt	LTP141	ltpFR	19	13	1	SURGEON	1413	n/a	1	n/a	n/a	n/a	n/a	n/a
2740.25	n/a	WORD	1370125	wordpools/wasnorm_wordpool.txt	LTP141	ltpFR	19	14	1	BOTTLE	153	n/a	0	1	0.412841796875	0.57763671875	upper	../fonts/amplitud.ttf
2744.216	n/a	WORD	1372108	wordpools/wasnorm_wordpool.txt	LTP141	ltpFR	19	14	1	ARTIST	43	n/a	1	1	0.412841796875	0.57763671875	upper	../fonts/amplitud.ttf
2748.172	n/a	WORD	1374086	wordpools/wasnorm_wordpool.txt	LTP141	ltpFR	19	14	1	PAINT	1003	n/a	0	1	0.412841796875	0.57763671875	upper	../fonts/amplitud.ttf
2752.086	n/a	WORD	1376043	wordpools/wasnorm_wordpool.txt	LTP141	ltpFR	19	14	1	PATIO	1025	n/a	0	1	0.412841796875	0.57763671875	upper	../fonts/amplitud.ttf
2756.16	n/a	WORD	1378080	wordpools/wasnorm_wordpool.txt	LTP141	ltpFR	19	14	1	BRICK	172	n/a	0	1	0.412841796875	0.57763671875	upper	../fonts/amplitud.ttf
2760.002	n/a	WORD	1380001	wordpools/wasnorm_wordpool.txt	LTP141	ltpFR	19	14	1	DELINQUENT	445	n/a	1	1	0.412841796875	0.57763671875	upper	../fonts/amplitud.ttf
2763.924	n/a	WORD	1381962	wordpools/wasnorm_wordpool.txt	LTP141	ltpFR	19	14	1	HOSTAGE	722	n/a	1	1	0.412841796875	0.57763671875	upper	../fonts/amplitud.ttf
2767.99	n/a	WORD	1383995	wordpools/wasnorm_wordpool.txt	LTP141	ltpFR	19	14	1	LOBBY	836	n/a	0	1	0.412841796875	0.57763671875	upper	../fonts/amplitud.ttf
2771.914	n/a	WORD	1385957	wordpools/wasnorm_wordpool.txt	LTP141	ltpFR	19	14	1	FLOWER	584	n/a	1	1	0.412841796875	0.57763671875	upper	../fonts/amplitud.ttf
2775.854	n/a	WORD	1387927	wordpools/wasnorm_wordpool.txt	LTP141	ltpFR	19	14	1	CAVITY	264	n/a	0	1	0.412841796875	0.57763671875	upper	../fonts/amplitud.ttf
2779.796	n/a	WORD	1389898	wordpools/wasnorm_wordpool.txt	LTP141	ltpFR	19	14	1	RATTLE	1170	n/a	0	1	0.412841796875	0.57763671875	upper	../fonts/amplitud.ttf
2783.828	n/a	WORD	1391914	wordpools/wasnorm_wordpool.txt	LTP141	ltpFR	19	14	1	ABDOMEN	1	n/a	1	1	0.412841796875	0.57763671875	upper	../fonts/amplitud.ttf
2787.7	n/a	WORD	1393850	wordpools/wasnorm_wordpool.txt	LTP141	ltpFR	19	14	1	COCKTAIL	338	n/a	0	1	0.412841796875	0.57763671875	upper	../fonts/amplitud.ttf
2791.674	n/a	WORD	1395837	wordpools/wasnorm_wordpool.txt	LTP141	ltpFR	19	14	1	CONDUCTOR	362	n/a	1	1	0.412841796875	0.57763671875	upper	../fonts/amplitud.ttf
2795.556	n/a	WORD	1397778	wordpools/wasnorm_wordpool.txt	LTP141	ltpFR	19	14	1	RESORT	1186	n/a	0	1	0.412841796875	0.57763671875	upper	../fonts/amplitud.ttf
2799.59	n/a	WORD	1399795	wordpools/wasnorm_wordpool.txt	LTP141	ltpFR	19	14	1	TOOTHBRUSH	1482	n/a	0	1	0.412841796875	0.57763671875	upper	../fonts/amplitud.ttf
2805.462	n/a	REC_START	1402731	n/a	LTP141	ltpFR	19	14	n/a	n/a	n/a	n/a	n/a	n/a	n/a	n/a	n/a	n/a
2806.63	n/a	REC_WORD	1403315	wordpools/wasnorm_wordpool.txt	LTP141	ltpFR	19	14	1	TOOTHBRUSH	1482	n/a	0	n/a	n/a	n/a	n/a	n/a
2807.682	n/a	REC_WORD	1403841	wordpools/wasnorm_wordpool.txt	LTP141	ltpFR	19	14	1	RESORT	1186	n/a	0	n/a	n/a	n/a	n/a	n/a
2808.742	n/a	REC_WORD	1404371	wordpools/wasnorm_wordpool.txt	LTP141	ltpFR	19	14	1	CONDUCTOR	362	n/a	1	n/a	n/a	n/a	n/a	n/a
2834.18	n/a	REC_WORD	1417090	wordpools/wasnorm_wordpool.txt	LTP141	ltpFR	19	14	1	PATIO	1025	n/a	0	n/a	n/a	n/a	n/a	n/a
2835.466	n/a	REC_WORD	1417733	wordpools/wasnorm_wordpool.txt	LTP141	ltpFR	19	14	1	BRICK	172	n/a	0	n/a	n/a	n/a	n/a	n/a
2836.764	n/a	REC_WORD	1418382	wordpools/wasnorm_wordpool.txt	LTP141	ltpFR	19	14	1	ARTIST	43	n/a	1	n/a	n/a	n/a	n/a	n/a
2838.026	n/a	REC_WORD	1419013	wordpools/wasnorm_wordpool.txt	LTP141	ltpFR	19	14	1	DELINQUENT	445	n/a	1	n/a	n/a	n/a	n/a	n/a
2839.532	n/a	REC_WORD	1419766	wordpools/wasnorm_wordpool.txt	LTP141	ltpFR	19	14	1	PAINT	1003	n/a	0	n/a	n/a	n/a	n/a	n/a
2841.812	n/a	REC_WORD	1420906	wordpools/wasnorm_wordpool.txt	LTP141	ltpFR	19	14	1	BOTTLE	153	n/a	0	n/a	n/a	n/a	n/a	n/a
2884.804	n/a	WORD	1442402	wordpools/wasnorm_wordpool.txt	LTP141	ltpFR	19	15	0	TOWN	1491	n/a	1	0	0.5869140625	0.422607421875	lower	../fonts/zerothre.ttf
2888.986	n/a	WORD	1444493	wordpools/wasnorm_wordpool.txt	LTP141	ltpFR	19	15	0	GRASS	655	n/a	1	0	0.5869140625	0.422607421875	lower	../fonts/zerothre.ttf
2893.078	n/a	WORD	1446539	wordpools/wasnorm_wordpool.txt	LTP141	ltpFR	19	15	0	DIAMOND	458	n/a	0	0	0.5869140625	0.422607421875	lower	../fonts/zerothre.ttf
2897.126	n/a	WORD	1448563	wordpools/wasnorm_wordpool.txt	LTP141	ltpFR	19	15	0	FISH	571	n/a	0	0	0.5869140625	0.422607421875	lower	../fonts/zerothre.ttf
2901.074	n/a	WORD	1450537	wordpools/wasnorm_wordpool.txt	LTP141	ltpFR	19	15	0	ANIMAL	23	n/a	1	0	0.5869140625	0.422607421875	lower	../fonts/zerothre.ttf
2905.106	n/a	WORD	1452553	wordpools/wasnorm_wordpool.txt	LTP141	ltpFR	19	15	0	SHRUB	1299	n/a	1	0	0.5869140625	0.422607421875	lower	../fonts/zerothre.ttf
2909.082	n/a	WORD	1454541	wordpools/wasnorm_wordpool.txt	LTP141	ltpFR	19	15	0	TREE	1502	n/a	1	0	0.5869140625	0.422607421875	lower	../fonts/zerothre.ttf
2913.104	n/a	WORD	1456552	wordpools/wasnorm_wordpool.txt	LTP141	ltpFR	19	15	0	CLIPPERS	324	n/a	1	0	0.5869140625	0.422607421875	lower	../fonts/zerothre.ttf
2917.078	n/a	WORD	1458539	wordpools/wasnorm_wordpool.txt	LTP141	ltpFR	19	15	0	TOENAIL	1474	n/a	1	0	0.5869140625	0.422607421875	lower	../fonts/zerothre.ttf
2920.936	n/a	WORD	1460468	wordpools/wasnorm_wordpool.txt	LTP141	ltpFR	19	15	0	MILDEW	893	n/a	0	0	0.5869140625	0.422607421875	lower	../fonts/zerothre.ttf
2924.85	n/a	WORD	1462425	wordpools/wasnorm_wordpool.txt	LTP141	ltpFR	19	15	0	DOG	480	n/a	1	0	0.5869140625	0.422607421875	lower	../fonts/zerothre.ttf
2928.866	n/a	WORD	1464433	wordpools/wasnorm_wordpool.txt	LTP141	ltpFR	19	15	0	COUNTY	389	n/a	1	0	0.5869140625	0.422607421875	lower	../fonts/zerothre.ttf
2932.698	n/a	WORD	1466349	wordpools/wasnorm_wordpool.txt	LTP141	ltpFR	19	15	0	LIZARD	834	n/a	0	0	0.5869140625	0.422607421875	lower	../fonts/zerothre.ttf
2936.63	n/a	WORD	1468315	wordpools/wasnorm_wordpool.txt	LTP141	ltpFR	19	15	0	HANDCUFFS	685	n/a	1	0	0.5869140625	0.422607421875	lower	../fonts/zerothre.ttf
2940.83	n/a	WORD	1470415	wordpools/wasnorm_wordpool.txt	LTP141	ltpFR	19	15	0	THRONE	1461	n/a	1	0	0.5869140625	0.422607421875	lower	../fonts/zerothre.ttf
2944.82	n/a	WORD	1472410	wordpools/wasnorm_wordpool.txt	LTP141	ltpFR	19	15	0	RULER	1216	n/a	1	0	0.5869140625	0.422607421875	lower	../fonts/zerothre.ttf
2950.752	n/a	REC_START	1475376	n/a	LTP141	ltpFR	19	15	n/a	n/a	n/a	n/a	n/a	n/a	n/a	n/a	n/a	n/a
2951.38	n/a	REC_WORD	1475690	wordpools/wasnorm_wordpool.txt	LTP141	ltpFR	19	15	0	THRONE	1461	n/a	1	n/a	n/a	n/a	n/a	n/a
2952.708	n/a	REC_WORD	1476354	wordpools/wasnorm_wordpool.txt	LTP141	ltpFR	19	15	0	RULER	1216	n/a	1	n/a	n/a	n/a	n/a	n/a
2954.08	n/a	REC_WORD	1477040	wordpools/wasnorm_wordpool.txt	LTP141	ltpFR	19	15	0	HANDCUFFS	685	n/a	1	n/a	n/a	n/a	n/a	n/a
2955.566	n/a	REC_WORD	1477783	wordpools/wasnorm_wordpool.txt	LTP141	ltpFR	19	15	0	TOWN	1491	n/a	1	n/a	n/a	n/a	n/a	n/a
2956.884	n/a	REC_WORD	1478442	wordpools/wasnorm_wordpool.txt	LTP141	ltpFR	19	15	0	GRASS	655	n/a	1	n/a	n/a	n/a	n/a	n/a
2958.24	n/a	REC_WORD	1479120	wordpools/wasnorm_wordpool.txt	LTP141	ltpFR	19	15	0	COUNTY	389	n/a	1	n/a	n/a	n/a	n/a	n/a
2959.468	n/a	REC_WORD	1479734	wordpools/wasnorm_wordpool.txt	LTP141	ltpFR	19	15	0	SHRUB	1299	n/a	1	n/a	n/a	n/a	n/a	n/a
2996.62	n/a	REC_WORD	1498310	wordpools/wasnorm_wordpool.txt	LTP141	ltpFR	19	15	0	DOG	480	n/a	1	n/a	n/a	n/a	n/a	n/a
3035.71	n/a	WORD	1517855	wordpools/wasnorm_wordpool.txt	LTP141	ltpFR	19	16	0	PRINCE	1124	n/a	1	0	0.5869140625	0.422607421875	lower	../fonts/zerothre.ttf
3039.85	n/a	WORD	1519925	wordpools/wasnorm_wordpool.txt	LTP141	ltpFR	19	16	0	FROG	608	n/a	0	0	0.5869140625	0.422607421875	lower	../fonts/zerothre.ttf
3043.932	n/a	WORD	1521966	wordpools/wasnorm_wordpool.txt	LTP141	ltpFR	19	16	1	CROCODILE	411	n/a	1	1	0.412841796875	0.57763671875	upper	../fonts/amplitud.ttf
3047.822	n/a	WORD	1523911	wordpools/wasnorm_wordpool.txt	LTP141	ltpFR	19	16	1	LENS	811	n/a	0	1	0.412841796875	0.57763671875	upper	../fonts/amplitud.ttf
3051.77	n/a	WORD	1525885	wordpools/wasnorm_wordpool.txt	LTP141	ltpFR	19	16	1	SKELETON	1314	n/a	0	1	0.412841796875	0.57763671875	upper	../fonts/amplitud.ttf
3055.67	n/a	WORD	1527835	wordpools/wasnorm_wordpool.txt	LTP141	ltpFR	19	16	1	SKULL	1320	n/a	0	1	0.412841796875	0.57763671875	upper	../fonts/amplitud.ttf
3059.66	n/a	WORD	1529830	wordpools/wasnorm_wordpool.txt	LTP141	ltpFR	19	16	0	COPIER	377	n/a	1	0	0.5869140625	0.422607421875	lower	../fonts/zerothre.ttf
3063.634	n/a	WORD	1531817	wordpools/wasnorm_wordpool.txt	LTP141	ltpFR	19	16	0	DRAGON	492	n/a	1	0	0.5869140625	0.422607421875	lower	../fonts/zerothre.ttf
3067.45	n/a	WORD	1533725	wordpools/wasnorm_wordpool.txt	LTP141	ltpFR	19	16	0	DRESS	495	n/a	0	0	0.5869140625	0.422607421875	lower	../fonts/zerothre.ttf
3071.632	n/a	WORD	1535816	wordpools/wasnorm_wordpool.txt	LTP141	ltpFR	19	16	1	SAUSAGE	1238	n/a	0	1	0.412841796875	0.57763671875	upper	../fonts/amplitud.ttf
3075.68	n/a	WORD	1537840	wordpools/wasnorm_wordpool.txt	LTP141	ltpFR	19	16	1	FIREPLACE	570	n/a	0	1	0.412841796875	0.57763671875	upper	../fonts/amplitud.ttf
3079.588	n/a	WORD	1539794	wordpools/wasnorm_wordpool.txt	LTP141	ltpFR	19	16	1	CLOVE	329	n/a	0	1	0.412841796875	0.57763671875	upper	../fonts/amplitud.ttf
3083.662	n/a	WORD	1541831	wordpools/wasnorm_wordpool.txt	LTP141	ltpFR	19	16	1	BUN	197	n/a	0	1	0.412841796875	0.57763671875	upper	../fonts/amplitud.ttf
3087.81	n/a	WORD	1543905	wordpools/wasnorm_wordpool.txt	LTP141	ltpFR	19	16	0	PAD	998	n/a	1	0	0.5869140625	0.422607421875	lower	../fonts/zerothre.ttf
3092.0	n/a	WORD	1546000	wordpools/wasnorm_wordpool.txt	LTP141	ltpFR	19	16	0	BISON	131	n/a	1	0	0.5869140625	0.422607421875	lower	../fonts/zerothre.ttf
3096.016	n/a	WORD	1548008	wordpools/wasnorm_wordpool.txt	LTP141	ltpFR	19	16	0	BUFFALO	186	n/a	1	0	0.5869140625	0.422607421875	lower	../fonts/zerothre.ttf
3101.724	n/a	REC_START	1550862	n/a	LTP141	ltpFR	19	16	n/a	n/a	n/a	n/a	n/a	n/a	n/a	n/a	n/a	n/a
3103.096	n/a	REC_WORD	1551548	wordpools/wasnorm_wordpool.txt	LTP141	ltpFR	19	16	0	BUFFALO	186	n/a	1	n/a	n/a	n/a	n/a	n/a
3104.442	n/a	REC_WORD	1552221	wordpools/wasnorm_wordpool.txt	LTP141	ltpFR	19	16	0	BISON	131	n/a	1	n/a	n/a	n/a	n/a	n/a
3106.028	n/a	REC_WORD	1553014	wordpools/wasnorm_wordpool.txt	LTP141	ltpFR	19	16	0	PAD	998	n/a	1	n/a	n/a	n/a	n/a	n/a
3107.266	n/a	REC_WORD	1553633	wordpools/wasnorm_wordpool.txt	LTP141	ltpFR	19	16	0	PRINCE	1124	n/a	1	n/a	n/a	n/a	n/a	n/a
3108.688	n/a	REC_WORD	1554344	wordpools/wasnorm_wordpool.txt	LTP141	ltpFR	19	16	0	FROG	608	n/a	0	n/a	n/a	n/a	n/a	n/a
3160.388	n/a	REC_WORD	1580194	wordpools/wasnorm_wordpool.txt	LTP141	ltpFR	19	16	0	COPIER	377	n/a	1	n/a	n/a	n/a	n/a	n/a
3194.538	n/a	REC_START	1597269	n/a	LTP141	ltpFR	19	n/a	n/a	n/a	n/a	n/a	n/a	n/a	n/a	n/a	n/a	n/a
3195.326	n/a	FFR_REC_WORD	1597663	wordpools/wasnorm_wordpool.txt	LTP141	ltpFR	19	n/a	0	COPIER	377	n/a	1	n/a	n/a	n/a	n/a	n/a
3196.308	n/a	FFR_REC_WORD	1598154	wordpools/wasnorm_wordpool.txt	LTP141	ltpFR	19	n/a	0	PRINCE	1124	n/a	1	n/a	n/a	n/a	n/a	n/a
3197.296	n/a	FFR_REC_WORD	1598648	wordpools/wasnorm_wordpool.txt	LTP141	ltpFR	19	n/a	0	FROG	608	n/a	0	n/a	n/a	n/a	n/a	n/a
3199.002	n/a	FFR_REC_WORD	1599501	wordpools/wasnorm_wordpool.txt	LTP141	ltpFR	19	n/a	1	KING	777	n/a	1	n/a	n/a	n/a	n/a	n/a
3200.12	n/a	FFR_REC_WORD	1600060	wordpools/wasnorm_wordpool.txt	LTP141	ltpFR	19	n/a	0	THRONE	1461	n/a	1	n/a	n/a	n/a	n/a	n/a
3201.496	n/a	FFR_REC_WORD	1600748	wordpools/wasnorm_wordpool.txt	LTP141	ltpFR	19	n/a	1	FOOTBALL	591	n/a	0	n/a	n/a	n/a	n/a	n/a
3202.734	n/a	FFR_REC_WORD	1601367	wordpools/wasnorm_wordpool.txt	LTP141	ltpFR	19	n/a	1	PATRIOT	1026	n/a	1	n/a	n/a	n/a	n/a	n/a
3210.038	n/a	FFR_REC_WORD	1605019	wordpools/wasnorm_wordpool.txt	LTP141	ltpFR	19	n/a	0	MILDEW	893	n/a	0	n/a	n/a	n/a	n/a	n/a
3211.13	n/a	FFR_REC_WORD	1605565	wordpools/wasnorm_wordpool.txt	LTP141	ltpFR	19	n/a	0	TREE	1502	n/a	1	n/a	n/a	n/a	n/a	n/a
3212.328	n/a	FFR_REC_WORD	1606164	wordpools/wasnorm_wordpool.txt	LTP141	ltpFR	19	n/a	0	TOWN	1491	n/a	1	n/a	n/a	n/a	n/a	n/a
3213.506	n/a	FFR_REC_WORD	1606753	wordpools/wasnorm_wordpool.txt	LTP141	ltpFR	19	n/a	0	COUNTY	389	n/a	1	n/a	n/a	n/a	n/a	n/a
3215.636	n/a	FFR_REC_WORD	1607818	wordpools/wasnorm_wordpool.txt	LTP141	ltpFR	19	n/a	0	GRASS	655	n/a	1	n/a	n/a	n/a	n/a	n/a
3217.526	n/a	FFR_REC_WORD	1608763	wordpools/wasnorm_wordpool.txt	LTP141	ltpFR	19	n/a	0	DOG	480	n/a	1	n/a	n/a	n/a	n/a	n/a
3222.13	n/a	FFR_REC_WORD	1611065	wordpools/wasnorm_wordpool.txt	LTP141	ltpFR	19	n/a	1	BRICK	172	n/a	0	n/a	n/a	n/a	n/a	n/a
3223.254	n/a	FFR_REC_WORD	1611627	wordpools/wasnorm_wordpool.txt	LTP141	ltpFR	19	n/a	1	PATIO	1025	n/a	0	n/a	n/a	n/a	n/a	n/a
3226.332	n/a	FFR_REC_WORD	1613166	wordpools/wasnorm_wordpool.txt	LTP141	ltpFR	19	n/a	1	CROCODILE	411	n/a	1	n/a	n/a	n/a	n/a	n/a
3228.492	n/a	FFR_REC_WORD	1614246	wordpools/wasnorm_wordpool.txt	LTP141	ltpFR	19	n/a	0	INFANT	737	n/a	0	n/a	n/a	n/a	n/a	n/a
3229.57	n/a	FFR_REC_WORD	1614785	wordpools/wasnorm_wordpool.txt	LTP141	ltpFR	19	n/a	0	TAIL	1430	n/a	0	n/a	n/a	n/a	n/a	n/a
3233.122	n/a	FFR_REC_WORD	1616561	wordpools/wasnorm_wordpool.txt	LTP141	ltpFR	19	n/a	0	KIWI	781	n/a	0	n/a	n/a	n/a	n/a	n/a
3234.318	n/a	FFR_REC_WORD	1617159	wordpools/wasnorm_wordpool.txt	LTP141	ltpFR	19	n/a	0	ORANGE	980	n/a	0	n/a	n/a	n/a	n/a	n/a
3236.564	n/a	FFR_REC_WORD	1618282	wordpools/wasnorm_wordpool.txt	LTP141	ltpFR	19	n/a	0	TOMATO	1476	n/a	0	n/a	n/a	n/a	n/a	n/a
3237.646	n/a	FFR_REC_WORD	1618823	wordpools/wasnorm_wordpool.txt	LTP141	ltpFR	19	n/a	0	STRAWBERRY	1391	n/a	0	n/a	n/a	n/a	n/a	n/a
3239.058	n/a	FFR_REC_WORD	1619529	wordpools/wasnorm_wordpool.txt	LTP141	ltpFR	19	n/a	0	VEGETABLE	1552	n/a	0	n/a	n/a	n/a	n/a	n/a
3247.216	n/a	FFR_REC_WORD	1623608	wordpools/wasnorm_wordpool.txt	LTP141	ltpFR	19	n/a	1	WIFE	1609	n/a	1	n/a	n/a	n/a	n/a	n/a
3248.382	n/a	FFR_REC_WORD	1624191	wordpools/wasnorm_wordpool.txt	LTP141	ltpFR	19	n/a	1	COMPANION	357	n/a	1	n/a	n/a	n/a	n/a	n/a
3249.704	n/a	FFR_REC_WORD	1624852	wordpools/wasnorm_wordpool.txt	LTP141	ltpFR	19	n/a	1	PARTNER	1017	n/a	1	n/a	n/a	n/a	n/a	n/a
3253.7	n/a	FFR_REC_WORD	1626850	wordpools/wasnorm_wordpool.txt	LTP141	ltpFR	19	n/a	1	SURGEON	1413	n/a	1	n/a	n/a	n/a	n/a	n/a
3255.482	n/a	FFR_REC_WORD	1627741	wordpools/wasnorm_wordpool.txt	LTP141	ltpFR	19	n/a	1	DOCTOR	478	n/a	n/a	n/a	n/a	n/a	n/a	n/a
3256.588	n/a	FFR_REC_WORD	1628294	wordpools/wasnorm_wordpool.txt	LTP141	ltpFR	19	n/a	-1	ATTORNEY	58	n/a	-1	n/a	n/a	n/a	n/a	n/a
3259.886	n/a	FFR_REC_WORD	1629943	wordpools/wasnorm_wordpool.txt	LTP141	ltpFR	19	n/a	1	COD	340	n/a	0	n/a	n/a	n/a	n/a	n/a
3263.13	n/a	FFR_REC_WORD	1631565	wordpools/wasnorm_wordpool.txt	LTP141	ltpFR	19	n/a	1	TUNA	1518	n/a	1	n/a	n/a	n/a	n/a	n/a
3264.104	n/a	FFR_REC_WORD	1632052	wordpools/wasnorm_wordpool.txt	LTP141	ltpFR	19	n/a	1	TRAY	1498	n/a	0	n/a	n/a	n/a	n/a	n/a
3265.466	n/a	FFR_REC_WORD	1632733	wordpools/wasnorm_wordpool.txt	LTP141	ltpFR	19	n/a	1	TABLE	1426	n/a	0	n/a	n/a	n/a	n/a	n/a
3266.732	n/a	FFR_REC_WORD	1633366	wordpools/wasnorm_wordpool.txt	LTP141	ltpFR	19	n/a	1	DOOR	486	n/a	0	n/a	n/a	n/a	n/a	n/a
3270.24	n/a	FFR_REC_WORD	1635120	wordpools/wasnorm_wordpool.txt	LTP141	ltpFR	19	n/a	n/a	BUSH	202	n/a	n/a	n/a	n/a	n/a	n/a	n/a
3271.282	n/a	FFR_REC_WORD	1635641	wordpools/wasnorm_wordpool.txt	LTP141	ltpFR	19	n/a	1	BINDER	127	n/a	0	n/a	n/a	n/a	n/a	n/a
3272.48	n/a	FFR_REC_WORD	1636240	wordpools/wasnorm_wordpool.txt	LTP141	ltpFR	19	n/a	1	WAREHOUSE	1588	n/a	0	n/a	n/a	n/a	n/a	n/a
3273.612	n/a	FFR_REC_WORD	1636806	wordpools/wasnorm_wordpool.txt	LTP141	ltpFR	19	n/a	1	FORT	595	n/a	0	n/a	n/a	n/a	n/a	n/a
3290.294	n/a	FFR_REC_WORD	1645147	wordpools/wasnorm_wordpool.txt	LTP141	ltpFR	19	n/a	-1	WATER	1594	n/a	-1	n/a	n/a	n/a	n/a	n/a
3302.342	n/a	FFR_REC_WORD	1651171	wordpools/wasnorm_wordpool.txt	LTP141	ltpFR	19	n/a	0	SOFTBALL	1343	n/a	0	n/a	n/a	n/a	n/a	n/a
3315.562	n/a	FFR_REC_WORD	1657781	wordpools/wasnorm_wordpool.txt	LTP141	ltpFR	19	n/a	-1	SQUID	1361	n/a	-1	n/a	n/a	n/a	n/a	n/a
3319.738	n/a	FFR_REC_WORD	1659869	wordpools/wasnorm_wordpool.txt	LTP141	ltpFR	19	n/a	-1	COLUMN	350	n/a	-1	n/a	n/a	n/a	n/a	n/a
3343.422	n/a	FFR_REC_WORD	1671711	wordpools/wasnorm_wordpool.txt	LTP141	ltpFR	19	n/a	0	HOUND	724	n/a	1	n/a	n/a	n/a	n/a	n/a
3344.58	n/a	FFR_REC_WORD	1672290	wordpools/wasnorm_wordpool.txt	LTP141	ltpFR	19	n/a	0	PAW	1029	n/a	1	n/a	n/a	n/a	n/a	n/a
3346.874	n/a	FFR_REC_WORD	1673437	wordpools/wasnorm_wordpool.txt	LTP141	ltpFR	19	n/a	1	SKELETON	1314	n/a	0	n/a	n/a	n/a	n/a	n/a
3348.076	n/a	FFR_REC_WORD	1674038	wordpools/wasnorm_wordpool.txt	LTP141	ltpFR	19	n/a	0	CASKET	255	n/a	1	n/a	n/a	n/a	n/a	n/a
3361.442	n/a	FFR_REC_WORD	1680721	wordpools/wasnorm_wordpool.txt	LTP141	ltpFR	19	n/a	-1	KLEENEX	782	n/a	-1	n/a	n/a	n/a	n/a	n/a
3369.912	n/a	FFR_REC_WORD	1684956	wordpools/wasnorm_wordpool.txt	LTP141	ltpFR	19	n/a	0	CREW	406	n/a	1	n/a	n/a	n/a	n/a	n/a
3370.79	n/a	FFR_REC_WORD	1685395	wordpools/wasnorm_wordpool.txt	LTP141	ltpFR	19	n/a	1	VESSEL	1558	n/a	0	n/a	n/a	n/a	n/a	n/a
3379.662	n/a	FFR_REC_WORD	1689831	wordpools/wasnorm_wordpool.txt	LTP141	ltpFR	19	n/a	0	LIMB	822	n/a	1	n/a	n/a	n/a	n/a	n/a
3380.754	n/a	FFR_REC_WORD	1690377	wordpools/wasnorm_wordpool.txt	LTP141	ltpFR	19	n/a	1	ELBOW	520	n/a	0	n/a	n/a	n/a	n/a	n/a
3385.02	n/a	FFR_REC_WORD	1692510	wordpools/wasnorm_wordpool.txt	LTP141	ltpFR	19	n/a	0	MEAL	882	n/a	0	n/a	n/a	n/a	n/a	n/a
3410.244	n/a	FFR_REC_WORD	1705122	wordpools/wasnorm_wordpool.txt	LTP141	ltpFR	19	n/a	0	BUFFALO	186	n/a	1	n/a	n/a	n/a	n/a	n/a
3411.126	n/a	FFR_REC_WORD	1705563	wordpools/wasnorm_wordpool.txt	LTP141	ltpFR	19	n/a	0	BISON	131	n/a	1	n/a	n/a	n/a	n/a	n/a
3423.13	n/a	FFR_REC_WORD	1711565	wordpools/wasnorm_wordpool.txt	LTP141	ltpFR	19	n/a	1	ANCESTOR	20	n/a	1	n/a	n/a	n/a	n/a	n/a
3425.444	n/a	FFR_REC_WORD	1712722	wordpools/wasnorm_wordpool.txt	LTP141	ltpFR	19	n/a	1	DELINQUENT	445	n/a	1	n/a	n/a	n/a	n/a	n/a
3427.594	n/a	FFR_REC_WORD	1713797	wordpools/wasnorm_wordpool.txt	LTP141	ltpFR	19	n/a	-1	BANDIT	81	n/a	-1	n/a	n/a	n/a	n/a	n/a
3429.18	n/a	FFR_REC_WORD	1714590	wordpools/wasnorm_wordpool.txt	LTP141	ltpFR	19	n/a	-1	THIEF	1456	n/a	-1	n/a	n/a	n/a	n/a	n/a
3446.832	n/a	FFR_REC_WORD	1723416	wordpools/wasnorm_wordpool.txt	LTP141	ltpFR	19	n/a	1	TILE	1468	n/a	1	n/a	n/a	n/a	n/a	n/a
3487.856	n/a	FFR_REC_WORD	1743928	wordpools/wasnorm_wordpool.txt	LTP141	ltpFR	19	n/a	1	BRANDY	169	n/a	0	n/a	n/a	n/a	n/a	n/a
3489.01	n/a	FFR_REC_WORD	1744505	wordpools/wasnorm_wordpool.txt	LTP141	ltpFR	19	n/a	0	PUB	1135	n/a	1	n/a	n/a	n/a	n/a	n/a
3523.938	n/a	REC_START	1761969	n/a	LTP141	ltpFR	19	1	n/a	n/a	n/a	n/a	n/a	n/a	n/a	n/a	n/a	n/a
3523.97	n/a	RECOG_TARGET	1761985	n/a	LTP141	ltpFR	19	1	0	BUNNY	198	4	0	n/a	n/a	n/a	n/a	n/a
3525.646	n/a	RECOG_RESP	1762823	n/a	LTP141	ltpFR	19	1	0	BUNNY	198	n/a	0	n/a	n/a	n/a	n/a	n/a
3526.796	n/a	RECOG_CONF	1763398	n/a	LTP141	ltpFR	19	1	0	BUNNY	198	4	0	n/a	n/a	n/a	n/a	n/a
3528.17	n/a	RECOG_TARGET	1764085	n/a	LTP141	ltpFR	19	1	1	TOE	1473	4	1	n/a	n/a	n/a	n/a	n/a
3528.83	n/a	RECOG_RESP	1764415	n/a	LTP141	ltpFR	19	1	1	TOE	1473	n/a	1	n/a	n/a	n/a	n/a	n/a
3530.1	n/a	RECOG_CONF	1765050	n/a	LTP141	ltpFR	19	1	1	TOE	1473	4	1	n/a	n/a	n/a	n/a	n/a
3531.434	n/a	RECOG_LURE	1765717	n/a	LTP141	ltpFR	19	1	n/a	SHEET	1279	4	n/a	n/a	n/a	n/a	n/a	n/a
3532.07	n/a	RECOG_RESP_VV	1766035	n/a	LTP141	ltpFR	19	1	n/a	SHEET	1279	n/a	n/a	n/a	n/a	n/a	n/a	n/a
3533.26	n/a	RECOG_RESP	1766630	n/a	LTP141	ltpFR	19	1	n/a	SHEET	1279	n/a	n/a	n/a	n/a	n/a	n/a	n/a
3534.126	n/a	RECOG_CONF	1767063	n/a	LTP141	ltpFR	19	1	n/a	SHEET	1279	4	n/a	n/a	n/a	n/a	n/a	n/a
3535.6	n/a	RECOG_LURE	1767800	n/a	LTP141	ltpFR	19	1	n/a	COOLER	375	4	n/a	n/a	n/a	n/a	n/a	n/a
3536.342	n/a	RECOG_RESP	1768171	n/a	LTP141	ltpFR	19	1	n/a	COOLER	375	n/a	n/a	n/a	n/a	n/a	n/a	n/a
3536.95	n/a	RECOG_CONF	1768475	n/a	LTP141	ltpFR	19	1	n/a	COOLER	375	4	n/a	n/a	n/a	n/a	n/a	n/a
3538.266	n/a	RECOG_LURE	1769133	n/a	LTP141	ltpFR	19	1	n/a	BEEF	113	4	n/a	n/a	n/a	n/a	n/a	n/a
3539.556	n/a	RECOG_RESP	1769778	n/a	LTP141	ltpFR	19	1	n/a	BEEF	113	n/a	n/a	n/a	n/a	n/a	n/a	n/a
3540.306	n/a	RECOG_CONF	1770153	n/a	LTP141	ltpFR	19	1	n/a	BEEF	113	4	n/a	n/a	n/a	n/a	n/a	n/a
3541.714	n/a	RECOG_TARGET	1770857	n/a	LTP141	ltpFR	19	1	1	BRANDY	169	5	0	n/a	n/a	n/a	n/a	n/a
3542.3	n/a	RECOG_RESP	1771150	n/a	LTP141	ltpFR	19	1	1	BRANDY	169	n/a	0	n/a	n/a	n/a	n/a	n/a
3543.02	n/a	RECOG_CONF	1771510	n/a	LTP141	ltpFR	19	1	1	BRANDY	169	5	0	n/a	n/a	n/a	n/a	n/a
3544.432	n/a	RECOG_TARGET	1772216	n/a	LTP141	ltpFR	19	1	0	PRINCE	1124	5	1	n/a	n/a	n/a	n/a	n/a
3545.004	n/a	RECOG_RESP	1772502	n/a	LTP141	ltpFR	19	1	0	PRINCE	1124	n/a	1	n/a	n/a	n/a	n/a	n/a
3545.678	n/a	RECOG_CONF	1772839	n/a	LTP141	ltpFR	19	1	0	PRINCE	1124	5	1	n/a	n/a	n/a	n/a	n/a
3547.24	n/a	RECOG_TARGET	1773620	n/a	LTP141	ltpFR	19	1	1	SAUSAGE	1238	5	0	n/a	n/a	n/a	n/a	n/a
3547.83	n/a	RECOG_RESP	1773915	n/a	LTP141	ltpFR	19	1	1	SAUSAGE	1238	n/a	0	n/a	n/a	n/a	n/a	n/a
3548.41	n/a	RECOG_CONF	1774205	n/a	LTP141	ltpFR	19	1	1	SAUSAGE	1238	5	0	n/a	n/a	n/a	n/a	n/a
3549.846	n/a	RECOG_TARGET	1774923	n/a	LTP141	ltpFR	19	1	1	SAILOR	1223	4	1	n/a	n/a	n/a	n/a	n/a
3550.382	n/a	RECOG_RESP	1775191	n/a	LTP141	ltpFR	19	1	1	SAILOR	1223	n/a	1	n/a	n/a	n/a	n/a	n/a
3551.122	n/a	RECOG_CONF	1775561	n/a	LTP141	ltpFR	19	1	1	SAILOR	1223	4	1	n/a	n/a	n/a	n/a	n/a
3552.436	n/a	RECOG_LURE	1776218	n/a	LTP141	ltpFR	19	1	n/a	BLOUSE	139	4	n/a	n/a	n/a	n/a	n/a	n/a
3552.972	n/a	RECOG_RESP	1776486	n/a	LTP141	ltpFR	19	1	n/a	BLOUSE	139	n/a	n/a	n/a	n/a	n/a	n/a	n/a
3553.574	n/a	RECOG_CONF	1776787	n/a	LTP141	ltpFR	19	1	n/a	BLOUSE	139	4	n/a	n/a	n/a	n/a	n/a	n/a
3555.094	n/a	RECOG_TARGET	1777547	n/a	LTP141	ltpFR	19	1	-1	BANK	83	4	-1	n/a	n/a	n/a	n/a	n/a
3555.708	n/a	RECOG_RESP	1777854	n/a	LTP141	ltpFR	19	1	-1	BANK	83	n/a	-1	n/a	n/a	n/a	n/a	n/a
3556.44	n/a	RECOG_CONF	1778220	n/a	LTP141	ltpFR	19	1	-1	BANK	83	4	-1	n/a	n/a	n/a	n/a	n/a
3557.744	n/a	RECOG_TARGET	1778872	n/a	LTP141	ltpFR	19	1	1	TILE	1468	5	1	n/a	n/a	n/a	n/a	n/a
3558.176	n/a	RECOG_RESP	1779088	n/a	LTP141	ltpFR	19	1	1	TILE	1468	n/a	1	n/a	n/a	n/a	n/a	n/a
3558.764	n/a	RECOG_CONF	1779382	n/a	LTP141	ltpFR	19	1	1	TILE	1468	5	1	n/a	n/a	n/a	n/a	n/a
3560.21	n/a	RECOG_TARGET	1780105	n/a	LTP141	ltpFR	19	1	1	DOOR	486	5	0	n/a	n/a	n/a	n/a	n/a
3560.848	n/a	RECOG_RESP	1780424	n/a	LTP141	ltpFR	19	1	1	DOOR	486	n/a	0	n/a	n/a	n/a	n/a	n/a
3561.416	n/a	RECOG_CONF	1780708	n/a	LTP141	ltpFR	19	1	1	DOOR	486	5	0	n/a	n/a	n/a	n/a	n/a
3562.816	n/a	RECOG_LURE	1781408	n/a	LTP141	ltpFR	19	1	n/a	HEEL	700	4	n/a	n/a	n/a	n/a	n/a	n/a
3563.442	n/a	RECOG_RESP	1781721	n/a	LTP141	ltpFR	19	1	n/a	HEEL	700	n/a	n/a	n/a	n/a	n/a	n/a	n/a
3564.048	n/a	RECOG_CONF	1782024	n/a	LTP141	ltpFR	19	1	n/a	HEEL	700	4	n/a	n/a	n/a	n/a	n/a	n/a
3565.484	n/a	RECOG_LURE	1782742	n/a	LTP141	ltpFR	19	1	n/a	DEODORANT	448	5	n/a	n/a	n/a	n/a	n/a	n/a
3566.122	n/a	RECOG_RESP	1783061	n/a	LTP141	ltpFR	19	1	n/a	DEODORANT	448	n/a	n/a	n/a	n/a	n/a	n/a	n/a
3566.838	n/a	RECOG_CONF	1783419	n/a	LTP141	ltpFR	19	1	n/a	DEODORANT	448	5	n/a	n/a	n/a	n/a	n/a	n/a
3568.158	n/a	RECOG_TARGET	1784079	n/a	LTP141	ltpFR	19	1	0	TREE	1502	5	1	n/a	n/a	n/a	n/a	n/a
3568.754	n/a	RECOG_RESP	1784377	n/a	LTP141	ltpFR	19	1	0	TREE	1502	n/a	1	n/a	n/a	n/a	n/a	n/a
3569.344	n/a	RECOG_CONF	1784672	n/a	LTP141	ltpFR	19	1	0	TREE	1502	5	1	n/a	n/a	n/a	n/a	n/a
3570.806	n/a	RECOG_LURE	1785403	n/a	LTP141	ltpFR	19	1	n/a	PRODUCER	1129	4	n/a	n/a	n/a	n/a	n/a	n/a
3571.392	n/a	RECOG_RESP	1785696	n/a	LTP141	ltpFR	19	1	n/a	PRODUCER	1129	n/a	n/a	n/a	n/a	n/a	n/a	n/a
3572.0	n/a	RECOG_CONF	1786000	n/a	LTP141	ltpFR	19	1	n/a	PRODUCER	1129	4	n/a	n/a	n/a	n/a	n/a	n/a
3573.348	n/a	RECOG_LURE	1786674	n/a	LTP141	ltpFR	19	1	n/a	CAPITAL	238	4	n/a	n/a	n/a	n/a	n/a	n/a
3573.954	n/a	RECOG_RESP	1786977	n/a	LTP141	ltpFR	19	1	n/a	CAPITAL	238	n/a	n/a	n/a	n/a	n/a	n/a	n/a
3574.584	n/a	RECOG_CONF	1787292	n/a	LTP141	ltpFR	19	1	n/a	CAPITAL	238	4	n/a	n/a	n/a	n/a	n/a	n/a
3575.938	n/a	RECOG_TARGET	1787969	n/a	LTP141	ltpFR	19	1	-1	MARROW	872	5	-1	n/a	n/a	n/a	n/a	n/a
3576.704	n/a	RECOG_RESP	1788352	n/a	LTP141	ltpFR	19	1	-1	MARROW	872	n/a	-1	n/a	n/a	n/a	n/a	n/a
3577.414	n/a	RECOG_CONF	1788707	n/a	LTP141	ltpFR	19	1	-1	MARROW	872	5	-1	n/a	n/a	n/a	n/a	n/a
3578.728	n/a	RECOG_TARGET	1789364	n/a	LTP141	ltpFR	19	1	-1	ELEVATOR	524	5	-1	n/a	n/a	n/a	n/a	n/a
3579.38	n/a	RECOG_RESP	1789690	n/a	LTP141	ltpFR	19	1	-1	ELEVATOR	524	n/a	-1	n/a	n/a	n/a	n/a	n/a
3580.088	n/a	RECOG_CONF	1790044	n/a	LTP141	ltpFR	19	1	-1	ELEVATOR	524	5	-1	n/a	n/a	n/a	n/a	n/a
3585.516	n/a	REC_START	1792758	n/a	LTP141	ltpFR	19	2	n/a	n/a	n/a	n/a	n/a	n/a	n/a	n/a	n/a	n/a
3585.552	n/a	RECOG_TARGET	1792776	n/a	LTP141	ltpFR	19	2	0	LIST	830	5	0	n/a	n/a	n/a	n/a	n/a
3586.274	n/a	RECOG_RESP	1793137	n/a	LTP141	ltpFR	19	2	0	LIST	830	n/a	0	n/a	n/a	n/a	n/a	n/a
3586.968	n/a	RECOG_CONF	1793484	n/a	LTP141	ltpFR	19	2	0	LIST	830	5	0	n/a	n/a	n/a	n/a	n/a
3588.252	n/a	RECOG_TARGET	1794126	n/a	LTP141	ltpFR	19	2	0	SIDING	1304	5	1	n/a	n/a	n/a	n/a	n/a
3588.824	n/a	RECOG_RESP	1794412	n/a	LTP141	ltpFR	19	2	0	SIDING	1304	n/a	1	n/a	n/a	n/a	n/a	n/a
3589.408	n/a	RECOG_CONF	1794704	n/a	LTP141	ltpFR	19	2	0	SIDING	1304	5	1	n/a	n/a	n/a	n/a	n/a
3590.826	n/a	RECOG_TARGET	1795413	n/a	LTP141	ltpFR	19	2	0	WIRE	1616	5	0	n/a	n/a	n/a	n/a	n/a
3591.352	n/a	RECOG_RESP	1795676	n/a	LTP141	ltpFR	19	2	0	WIRE	1616	n/a	0	n/a	n/a	n/a	n/a	n/a
3591.918	n/a	RECOG_CONF	1795959	n/a	LTP141	ltpFR	19	2	0	WIRE	1616	5	0	n/a	n/a	n/a	n/a	n/a
3593.276	n/a	RECOG_TARGET	1796638	n/a	LTP141	ltpFR	19	2	0	PUB	1135	5	1	n/a	n/a	n/a	n/a	n/a
3593.862	n/a	RECOG_RESP	1796931	n/a	LTP141	ltpFR	19	2	0	PUB	1135	n/a	1	n/a	n/a	n/a	n/a	n/a
3594.41	n/a	RECOG_CONF	1797205	n/a	LTP141	ltpFR	19	2	0	PUB	1135	5	1	n/a	n/a	n/a	n/a	n/a
3595.806	n/a	RECOG_TARGET	1797903	n/a	LTP141	ltpFR	19	2	-1	CLAW	319	5	-1	n/a	n/a	n/a	n/a	n/a
3596.57	n/a	RECOG_RESP	1798285	n/a	LTP141	ltpFR	19	2	-1	CLAW	319	n/a	-1	n/a	n/a	n/a	n/a	n/a
3597.142	n/a	RECOG_CONF	1798571	n/a	LTP141	ltpFR	19	2	-1	CLAW	319	5	-1	n/a	n/a	n/a	n/a	n/a
3598.53	n/a	RECOG_TARGET	1799265	n/a	LTP141	ltpFR	19	2	0	MILDEW	893	5	0	n/a	n/a	n/a	n/a	n/a
3599.12	n/a	RECOG_RESP	1799560	n/a	LTP141	ltpFR	19	2	0	MILDEW	893	n/a	0	n/a	n/a	n/a	n/a	n/a
3599.674	n/a	RECOG_CONF	1799837	n/a	LTP141	ltpFR	19	2	0	MILDEW	893	5	0	n/a	n/a	n/a	n/a	n/a
3601.048	n/a	RECOG_TARGET	1800524	n/a	LTP141	ltpFR	19	2	-1	ICE	730	5	-1	n/a	n/a	n/a	n/a	n/a
3601.82	n/a	RECOG_RESP	1800910	n/a	LTP141	ltpFR	19	2	-1	ICE	730	n/a	-1	n/a	n/a	n/a	n/a	n/a
3602.912	n/a	RECOG_CONF	1801456	n/a	LTP141	ltpFR	19	2	-1	ICE	730	5	-1	n/a	n/a	n/a	n/a	n/a
3604.314	n/a	RECOG_TARGET	1802157	n/a	LTP141	ltpFR	19	2	-1	CANE	231	5	-1	n/a	n/a	n/a	n/a	n/a
3605.774	n/a	RECOG_RESP	1802887	n/a	LTP141	ltpFR	19	2	-1	CANE	231	n/a	-1	n/a	n/a	n/a	n/a	n/a
3606.354	n/a	RECOG_CONF	1803177	n/a	LTP141	ltpFR	19	2	-1	CANE	231	5	-1	n/a	n/a	n/a	n/a	n/a
3607.894	n/a	RECOG_LURE	1803947	n/a	LTP141	ltpFR	19	2	n/a	SHACK	1273	4	n/a	n/a	n/a	n/a	n/a	n/a
3609.536	n/a	RECOG_RESP	1804768	n/a	LTP141	ltpFR	19	2	n/a	SHACK	1273	n/a	n/a	n/a	n/a	n/a	n/a	n/a
3610.116	n/a	RECOG_CONF	1805058	n/a	LTP141	ltpFR	19	2	n/a	SHACK	1273	4	n/a	n/a	n/a	n/a	n/a	n/a
3611.486	n/a	RECOG_TARGET	1805743	n/a	LTP141	ltpFR	19	2	-1	VICTIM	1562	4	-1	n/a	n/a	n/a	n/a	n/a
3612.326	n/a	RECOG_RESP	1806163	n/a	LTP141	ltpFR	19	2	-1	VICTIM	1562	n/a	-1	n/a	n/a	n/a	n/a	n/a
3612.882	n/a	RECOG_CONF	1806441	n/a	LTP141	ltpFR	19	2	-1	VICTIM	1562	4	-1	n/a	n/a	n/a	n/a	n/a
3614.31	n/a	RECOG_TARGET	1807155	n/a	LTP141	ltpFR	19	2	-1	CHILD	299	5	-1	n/a	n/a	n/a	n/a	n/a
3614.768	n/a	RECOG_RESP	1807384	n/a	LTP141	ltpFR	19	2	-1	CHILD	299	n/a	-1	n/a	n/a	n/a	n/a	n/a
3615.306	n/a	RECOG_CONF	1807653	n/a	LTP141	ltpFR	19	2	-1	CHILD	299	5	-1	n/a	n/a	n/a	n/a	n/a
3616.692	n/a	RECOG_TARGET	1808346	n/a	LTP141	ltpFR	19	2	0	CREW	406	5	1	n/a	n/a	n/a	n/a	n/a
3617.202	n/a	RECOG_RESP	1808601	n/a	LTP141	ltpFR	19	2	0	CREW	406	n/a	1	n/a	n/a	n/a	n/a	n/a
3617.73	n/a	RECOG_CONF	1808865	n/a	LTP141	ltpFR	19	2	0	CREW	406	5	1	n/a	n/a	n/a	n/a	n/a
3619.1	n/a	RECOG_TARGET	1809550	n/a	LTP141	ltpFR	19	2	1	KING	777	5	1	n/a	n/a	n/a	n/a	n/a
3619.608	n/a	RECOG_RESP	1809804	n/a	LTP141	ltpFR	19	2	1	KING	777	n/a	1	n/a	n/a	n/a	n/a	n/a
3620.126	n/a	RECOG_CONF	1810063	n/a	LTP141	ltpFR	19	2	1	KING	777	5	1	n/a	n/a	n/a	n/a	n/a
3621.574	n/a	RECOG_LURE	1810787	n/a	LTP141	ltpFR	19	2	n/a	FOSSIL	596	5	n/a	n/a	n/a	n/a	n/a	n/a
3622.014	n/a	RECOG_RESP_VV	1811007	n/a	LTP141	ltpFR	19	2	n/a	FOSSIL	596	n/a	n/a	n/a	n/a	n/a	n/a	n/a
3622.734	n/a	RECOG_RESP	1811367	n/a	LTP141	ltpFR	19	2	n/a	FOSSIL	596	n/a	n/a	n/a	n/a	n/a	n/a	n/a
3623.452	n/a	RECOG_CONF	1811726	n/a	LTP141	ltpFR	19	2	n/a	FOSSIL	596	5	n/a	n/a	n/a	n/a	n/a	n/a
3624.964	n/a	RECOG_TARGET	1812482	n/a	LTP141	ltpFR	19	2	-1	CEREAL	272	4	-1	n/a	n/a	n/a	n/a	n/a
3625.694	n/a	RECOG_RESP	1812847	n/a	LTP141	ltpFR	19	2	-1	CEREAL	272	n/a	-1	n/a	n/a	n/a	n/a	n/a
3626.33	n/a	RECOG_CONF	1813165	n/a	LTP141	ltpFR	19	2	-1	CEREAL	272	4	-1	n/a	n/a	n/a	n/a	n/a
3627.588	n/a	RECOG_LURE	1813794	n/a	LTP141	ltpFR	19	2	n/a	DEPARTMENT	449	4	n/a	n/a	n/a	n/a	n/a	n/a
3628.554	n/a	RECOG_RESP	1814277	n/a	LTP141	ltpFR	19	2	n/a	DEPARTMENT	449	n/a	n/a	n/a	n/a	n/a	n/a	n/a
3629.14	n/a	RECOG_CONF	1814570	n/a	LTP141	ltpFR	19	2	n/a	DEPARTMENT	449	4	n/a	n/a	n/a	n/a	n/a	n/a
3630.596	n/a	RECOG_LURE	1815298	n/a	LTP141	ltpFR	19	2	n/a	WORM	1623	4	n/a	n/a	n/a	n/a	n/a	n/a
3631.458	n/a	RECOG_RESP	1815729	n/a	LTP141	ltpFR	19	2	n/a	WORM	1623	n/a	n/a	n/a	n/a	n/a	n/a	n/a
3632.016	n/a	RECOG_CONF	1816008	n/a	LTP141	ltpFR	19	2	n/a	WORM	1623	4	n/a	n/a	n/a	n/a	n/a	n/a
3633.362	n/a	RECOG_TARGET	1816681	n/a	LTP141	ltpFR	19	2	0	CHICK	296	5	0	n/a	n/a	n/a	n/a	n/a
3633.992	n/a	RECOG_RESP	1816996	n/a	LTP141	ltpFR	19	2	0	CHICK	296	n/a	0	n/a	n/a	n/a	n/a	n/a
3634.662	n/a	RECOG_CONF	1817331	n/a	LTP141	ltpFR	19	2	0	CHICK	296	5	0	n/a	n/a	n/a	n/a	n/a
3635.978	n/a	RECOG_TARGET	1817989	n/a	LTP141	ltpFR	19	2	0	SLOPE	1328	5	1	n/a	n/a	n/a	n/a	n/a
3636.576	n/a	RECOG_RESP	1818288	n/a	LTP141	ltpFR	19	2	0	SLOPE	1328	n/a	1	n/a	n/a	n/a	n/a	n/a
3637.12	n/a	RECOG_CONF	1818560	n/a	LTP141	ltpFR	19	2	0	SLOPE	1328	5	1	n/a	n/a	n/a	n/a	n/a
3638.536	n/a	RECOG_TARGET	1819268	n/a	LTP141	ltpFR	19	2	0	HOUND	724	5	1	n/a	n/a	n/a	n/a	n/a
3639.102	n/a	RECOG_RESP	1819551	n/a	LTP141	ltpFR	19	2	0	HOUND	724	n/a	1	n/a	n/a	n/a	n/a	n/a
3639.712	n/a	RECOG_CONF	1819856	n/a	LTP141	ltpFR	19	2	0	HOUND	724	5	1	n/a	n/a	n/a	n/a	n/a
3642.802	n/a	REC_START	1821401	n/a	LTP141	ltpFR	19	3	n/a	n/a	n/a	n/a	n/a	n/a	n/a	n/a	n/a	n/a
3642.834	n/a	RECOG_LURE	1821417	n/a	LTP141	ltpFR	19	3	n/a	OATMEAL	967	4	n/a	n/a	n/a	n/a	n/a	n/a
3643.8	n/a	RECOG_RESP	1821900	n/a	LTP141	ltpFR	19	3	n/a	OATMEAL	967	n/a	n/a	n/a	n/a	n/a	n/a	n/a
3644.382	n/a	RECOG_CONF	1822191	n/a	LTP141	ltpFR	19	3	n/a	OATMEAL	967	4	n/a	n/a	n/a	n/a	n/a	n/a
3645.784	n/a	RECOG_LURE	1822892	n/a	LTP141	ltpFR	19	3	n/a	RUG	1215	4	n/a	n/a	n/a	n/a	n/a	n/a
3646.474	n/a	RECOG_RESP	1823237	n/a	LTP141	ltpFR	19	3	n/a	RUG	1215	n/a	n/a	n/a	n/a	n/a	n/a	n/a
3647.176	n/a	RECOG_CONF	1823588	n/a	LTP141	ltpFR	19	3	n/a	RUG	1215	4	n/a	n/a	n/a	n/a	n/a	n/a
3648.5	n/a	RECOG_TARGET	1824250	n/a	LTP141	ltpFR	19	3	0	TOMATO	1476	5	0	n/a	n/a	n/a	n/a	n/a
3649.056	n/a	RECOG_RESP	1824528	n/a	LTP141	ltpFR	19	3	0	TOMATO	1476	n/a	0	n/a	n/a	n/a	n/a	n/a
3649.616	n/a	RECOG_CONF	1824808	n/a	LTP141	ltpFR	19	3	0	TOMATO	1476	5	0	n/a	n/a	n/a	n/a	n/a
3651.016	n/a	RECOG_TARGET	1825508	n/a	LTP141	ltpFR	19	3	-1	SQUID	1361	5	-1	n/a	n/a	n/a	n/a	n/a
3651.504	n/a	RECOG_RESP	1825752	n/a	LTP141	ltpFR	19	3	-1	SQUID	1361	n/a	-1	n/a	n/a	n/a	n/a	n/a
3652.1	n/a	RECOG_CONF	1826050	n/a	LTP141	ltpFR	19	3	-1	SQUID	1361	5	-1	n/a	n/a	n/a	n/a	n/a
3653.498	n/a	RECOG_LURE	1826749	n/a	LTP141	ltpFR	19	3	n/a	GEM	629	4	n/a	n/a	n/a	n/a	n/a	n/a
3654.14	n/a	RECOG_RESP	1827070	n/a	LTP141	ltpFR	19	3	n/a	GEM	629	n/a	n/a	n/a	n/a	n/a	n/a	n/a
3654.688	n/a	RECOG_CONF	1827344	n/a	LTP141	ltpFR	19	3	n/a	GEM	629	4	n/a	n/a	n/a	n/a	n/a	n/a
3655.996	n/a	RECOG_LURE	1827998	n/a	LTP141	ltpFR	19	3	n/a	POSSUM	1112	4	n/a	n/a	n/a	n/a	n/a	n/a
3656.7	n/a	RECOG_RESP	1828350	n/a	LTP141	ltpFR	19	3	n/a	POSSUM	1112	n/a	n/a	n/a	n/a	n/a	n/a	n/a
3657.366	n/a	RECOG_CONF	1828683	n/a	LTP141	ltpFR	19	3	n/a	POSSUM	1112	4	n/a	n/a	n/a	n/a	n/a	n/a
3658.872	n/a	RECOG_TARGET	1829436	n/a	LTP141	ltpFR	19	3	0	FLANNEL	574	5	0	n/a	n/a	n/a	n/a	n/a
3659.384	n/a	RECOG_RESP	1829692	n/a	LTP141	ltpFR	19	3	0	FLANNEL	574	n/a	0	n/a	n/a	n/a	n/a	n/a
3660.048	n/a	RECOG_CONF	1830024	n/a	LTP141	ltpFR	19	3	0	FLANNEL	574	5	0	n/a	n/a	n/a	n/a	n/a
3661.354	n/a	RECOG_TARGET	1830677	n/a	LTP141	ltpFR	19	3	0	DRESS	495	5	0	n/a	n/a	n/a	n/a	n/a
3661.926	n/a	RECOG_RESP	1830963	n/a	LTP141	ltpFR	19	3	0	DRESS	495	n/a	0	n/a	n/a	n/a	n/a	n/a
3662.586	n/a	RECOG_CONF	1831293	n/a	LTP141	ltpFR	19	3	0	DRESS	495	5	0	n/a	n/a	n/a	n/a	n/a
3664.07	n/a	RECOG_TARGET	1832035	n/a	LTP141	ltpFR	19	3	1	OPERA	978	5	0	n/a	n/a	n/a	n/a	n/a
3664.638	n/a	RECOG_RESP	1832319	n/a	LTP141	ltpFR	19	3	1	OPERA	978	n/a	0	n/a	n/a	n/a	n/a	n/a
3665.246	n/a	RECOG_CONF	1832623	n/a	LTP141	ltpFR	19	3	1	OPERA	978	5	0	n/a	n/a	n/a	n/a	n/a
3666.56	n/a	RECOG_TARGET	1833280	n/a	LTP141	ltpFR	19	3	1	PATIENT	1024	5	1	n/a	n/a	n/a	n/a	n/a
3667.076	n/a	RECOG_RESP	1833538	n/a	LTP141	ltpFR	19	3	1	PATIENT	1024	n/a	1	n/a	n/a	n/a	n/a	n/a
3667.72	n/a	RECOG_CONF	1833860	n/a	LTP141	ltpFR	19	3	1	PATIENT	1024	5	1	n/a	n/a	n/a	n/a	n/a
3668.91	n/a	RECOG_TARGET	1834455	n/a	LTP141	ltpFR	19	3	1	COLT	349	5	0	n/a	n/a	n/a	n/a	n/a
3669.448	n/a	RECOG_RESP	1834724	n/a	LTP141	ltpFR	19	3	1	COLT	349	n/a	0	n/a	n/a	n/a	n/a	n/a
3670.096	n/a	RECOG_CONF	1835048	n/a	LTP141	ltpFR	19	3	1	COLT	349	5	0	n/a	n/a	n/a	n/a	n/a
3671.376	n/a	RECOG_TARGET	1835688	n/a	LTP141	ltpFR	19	3	1	MAPLE	866	5	0	n/a	n/a	n/a	n/a	n/a
3671.874	n/a	RECOG_RESP	1835937	n/a	LTP141	ltpFR	19	3	1	MAPLE	866	n/a	0	n/a	n/a	n/a	n/a	n/a
3672.48	n/a	RECOG_CONF	1836240	n/a	LTP141	ltpFR	19	3	1	MAPLE	866	5	0	n/a	n/a	n/a	n/a	n/a
3673.708	n/a	RECOG_TARGET	1836854	n/a	LTP141	ltpFR	19	3	1	ARTIST	43	5	1	n/a	n/a	n/a	n/a	n/a
3674.276	n/a	RECOG_RESP	1837138	n/a	LTP141	ltpFR	19	3	1	ARTIST	43	n/a	1	n/a	n/a	n/a	n/a	n/a
3674.794	n/a	RECOG_CONF	1837397	n/a	LTP141	ltpFR	19	3	1	ARTIST	43	5	1	n/a	n/a	n/a	n/a	n/a
3676.158	n/a	RECOG_TARGET	1838079	n/a	LTP141	ltpFR	19	3	1	CHERRY	293	3	0	n/a	n/a	n/a	n/a	n/a
3677.202	n/a	RECOG_RESP	1838601	n/a	LTP141	ltpFR	19	3	1	CHERRY	293	n/a	0	n/a	n/a	n/a	n/a	n/a
3677.848	n/a	RECOG_CONF	1838924	n/a	LTP141	ltpFR	19	3	1	CHERRY	293	3	0	n/a	n/a	n/a	n/a	n/a
3679.374	n/a	RECOG_TARGET	1839687	n/a	LTP141	ltpFR	19	3	1	REPTILE	1185	5	1	n/a	n/a	n/a	n/a	n/a
3679.938	n/a	RECOG_RESP	1839969	n/a	LTP141	ltpFR	19	3	1	REPTILE	1185	n/a	1	n/a	n/a	n/a	n/a	n/a
3680.434	n/a	RECOG_CONF	1840217	n/a	LTP141	ltpFR	19	3	1	REPTILE	1185	5	1	n/a	n/a	n/a	n/a	n/a
3681.814	n/a	RECOG_TARGET	1840907	n/a	LTP141	ltpFR	19	3	1	UNDERWEAR	1537	5	0	n/a	n/a	n/a	n/a	n/a
3682.4	n/a	RECOG_RESP	1841200	n/a	LTP141	ltpFR	19	3	1	UNDERWEAR	1537	n/a	0	n/a	n/a	n/a	n/a	n/a
3682.902	n/a	RECOG_CONF	1841451	n/a	LTP141	ltpFR	19	3	1	UNDERWEAR	1537	5	0	n/a	n/a	n/a	n/a	n/a
3684.314	n/a	RECOG_LURE	1842157	n/a	LTP141	ltpFR	19	3	n/a	CEILING	265	4	n/a	n/a	n/a	n/a	n/a	n/a
3684.956	n/a	RECOG_RESP	1842478	n/a	LTP141	ltpFR	19	3	n/a	CEILING	265	n/a	n/a	n/a	n/a	n/a	n/a	n/a
3685.506	n/a	RECOG_CONF	1842753	n/a	LTP141	ltpFR	19	3	n/a	CEILING	265	4	n/a	n/a	n/a	n/a	n/a	n/a
3686.92	n/a	RECOG_TARGET	1843460	n/a	LTP141	ltpFR	19	3	0	MAJOR	859	5	1	n/a	n/a	n/a	n/a	n/a
3687.46	n/a	RECOG_RESP	1843730	n/a	LTP141	ltpFR	19	3	0	MAJOR	859	n/a	1	n/a	n/a	n/a	n/a	n/a
3688.012	n/a	RECOG_CONF	1844006	n/a	LTP141	ltpFR	19	3	0	MAJOR	859	5	1	n/a	n/a	n/a	n/a	n/a
3689.38	n/a	RECOG_LURE	1844690	n/a	LTP141	ltpFR	19	3	n/a	FRIES	607	4	n/a	n/a	n/a	n/a	n/a	n/a
3690.01	n/a	RECOG_RESP	1845005	n/a	LTP141	ltpFR	19	3	n/a	FRIES	607	n/a	n/a	n/a	n/a	n/a	n/a	n/a
3690.582	n/a	RECOG_CONF	1845291	n/a	LTP141	ltpFR	19	3	n/a	FRIES	607	4	n/a	n/a	n/a	n/a	n/a	n/a
3691.994	n/a	RECOG_TARGET	1845997	n/a	LTP141	ltpFR	19	3	0	THRONE	1461	5	1	n/a	n/a	n/a	n/a	n/a
3692.642	n/a	RECOG_RESP	1846321	n/a	LTP141	ltpFR	19	3	0	THRONE	1461	n/a	1	n/a	n/a	n/a	n/a	n/a
3693.304	n/a	RECOG_CONF	1846652	n/a	LTP141	ltpFR	19	3	0	THRONE	1461	5	1	n/a	n/a	n/a	n/a	n/a
3696.134	n/a	REC_START	1848067	n/a	LTP141	ltpFR	19	4	n/a	n/a	n/a	n/a	n/a	n/a	n/a	n/a	n/a	n/a
3696.168	n/a	RECOG_TARGET	1848084	n/a	LTP141	ltpFR	19	4	0	CONCERT	360	4	1	n/a	n/a	n/a	n/a	n/a
3696.974	n/a	RECOG_RESP	1848487	n/a	LTP141	ltpFR	19	4	0	CONCERT	360	n/a	1	n/a	n/a	n/a	n/a	n/a
3697.666	n/a	RECOG_CONF	1848833	n/a	LTP141	ltpFR	19	4	0	CONCERT	360	4	1	n/a	n/a	n/a	n/a	n/a
3698.8	n/a	RECOG_TARGET	1849400	n/a	LTP141	ltpFR	19	4	1	CROCODILE	411	4	1	n/a	n/a	n/a	n/a	n/a
3699.436	n/a	RECOG_RESP	1849718	n/a	LTP141	ltpFR	19	4	1	CROCODILE	411	n/a	1	n/a	n/a	n/a	n/a	n/a
3700.022	n/a	RECOG_CONF	1850011	n/a	LTP141	ltpFR	19	4	1	CROCODILE	411	4	1	n/a	n/a	n/a	n/a	n/a
3701.4	n/a	RECOG_TARGET	1850700	n/a	LTP141	ltpFR	19	4	0	CRICKET	408	5	0	n/a	n/a	n/a	n/a	n/a
3701.898	n/a	RECOG_RESP	1850949	n/a	LTP141	ltpFR	19	4	0	CRICKET	408	n/a	0	n/a	n/a	n/a	n/a	n/a
3702.424	n/a	RECOG_CONF	1851212	n/a	LTP141	ltpFR	19	4	0	CRICKET	408	5	0	n/a	n/a	n/a	n/a	n/a
3703.774	n/a	RECOG_TARGET	1851887	n/a	LTP141	ltpFR	19	4	1	UMBRELLA	1534	5	0	n/a	n/a	n/a	n/a	n/a
3704.294	n/a	RECOG_RESP	1852147	n/a	LTP141	ltpFR	19	4	1	UMBRELLA	1534	n/a	0	n/a	n/a	n/a	n/a	n/a
3704.87	n/a	RECOG_CONF	1852435	n/a	LTP141	ltpFR	19	4	1	UMBRELLA	1534	5	0	n/a	n/a	n/a	n/a	n/a
3706.132	n/a	RECOG_LURE	1853066	n/a	LTP141	ltpFR	19	4	n/a	LIPSTICK	829	4	n/a	n/a	n/a	n/a	n/a	n/a
3706.648	n/a	RECOG_RESP	1853324	n/a	LTP141	ltpFR	19	4	n/a	LIPSTICK	829	n/a	n/a	n/a	n/a	n/a	n/a	n/a
3707.304	n/a	RECOG_CONF	1853652	n/a	LTP141	ltpFR	19	4	n/a	LIPSTICK	829	4	n/a	n/a	n/a	n/a	n/a	n/a
3708.464	n/a	RECOG_TARGET	1854232	n/a	LTP141	ltpFR	19	4	0	WARDROBE	1587	5	1	n/a	n/a	n/a	n/a	n/a
3708.99	n/a	RECOG_RESP	1854495	n/a	LTP141	ltpFR	19	4	0	WARDROBE	1587	n/a	1	n/a	n/a	n/a	n/a	n/a
3709.568	n/a	RECOG_CONF	1854784	n/a	LTP141	ltpFR	19	4	0	WARDROBE	1587	5	1	n/a	n/a	n/a	n/a	n/a
3711.038	n/a	RECOG_TARGET	1855519	n/a	LTP141	ltpFR	19	4	1	VIKING	1565	5	1	n/a	n/a	n/a	n/a	n/a
3711.562	n/a	RECOG_RESP	1855781	n/a	LTP141	ltpFR	19	4	1	VIKING	1565	n/a	1	n/a	n/a	n/a	n/a	n/a
3712.49	n/a	RECOG_CONF	1856245	n/a	LTP141	ltpFR	19	4	1	VIKING	1565	5	1	n/a	n/a	n/a	n/a	n/a
3713.846	n/a	RECOG_TARGET	1856923	n/a	LTP141	ltpFR	19	4	0	RULER	1216	5	1	n/a	n/a	n/a	n/a	n/a
3714.628	n/a	RECOG_RESP	1857314	n/a	LTP141	ltpFR	19	4	0	RULER	1216	n/a	1	n/a	n/a	n/a	n/a	n/a
3715.296	n/a	RECOG_CONF	1857648	n/a	LTP141	ltpFR	19	4	0	RULER	1216	5	1	n/a	n/a	n/a	n/a	n/a
3716.53	n/a	RECOG_TARGET	1858265	n/a	LTP141	ltpFR	19	4	-1	BANDIT	81	5	-1	n/a	n/a	n/a	n/a	n/a
3717.036	n/a	RECOG_RESP	1858518	n/a	LTP141	ltpFR	19	4	-1	BANDIT	81	n/a	-1	n/a	n/a	n/a	n/a	n/a
3717.642	n/a	RECOG_CONF	1858821	n/a	LTP141	ltpFR	19	4	-1	BANDIT	81	5	-1	n/a	n/a	n/a	n/a	n/a
3719.094	n/a	RECOG_TARGET	1859547	n/a	LTP141	ltpFR	19	4	-1	STAKE	1368	5	-1	n/a	n/a	n/a	n/a	n/a
3719.64	n/a	RECOG_RESP	1859820	n/a	LTP141	ltpFR	19	4	-1	STAKE	1368	n/a	-1	n/a	n/a	n/a	n/a	n/a
3720.214	n/a	RECOG_CONF	1860107	n/a	LTP141	ltpFR	19	4	-1	STAKE	1368	5	-1	n/a	n/a	n/a	n/a	n/a
3721.518	n/a	RECOG_TARGET	1860759	n/a	LTP141	ltpFR	19	4	0	PALM	1007	4	1	n/a	n/a	n/a	n/a	n/a
3722.124	n/a	RECOG_RESP	1861062	n/a	LTP141	ltpFR	19	4	0	PALM	1007	n/a	1	n/a	n/a	n/a	n/a	n/a
3722.704	n/a	RECOG_CONF	1861352	n/a	LTP141	ltpFR	19	4	0	PALM	1007	4	1	n/a	n/a	n/a	n/a	n/a
3724.134	n/a	RECOG_TARGET	1862067	n/a	LTP141	ltpFR	19	4	0	HANDCUFFS	685	5	1	n/a	n/a	n/a	n/a	n/a
3724.648	n/a	RECOG_RESP	1862324	n/a	LTP141	ltpFR	19	4	0	HANDCUFFS	685	n/a	1	n/a	n/a	n/a	n/a	n/a
3725.314	n/a	RECOG_CONF	1862657	n/a	LTP141	ltpFR	19	4	0	HANDCUFFS	685	5	1	n/a	n/a	n/a	n/a	n/a
3726.634	n/a	RECOG_LURE	1863317	n/a	LTP141	ltpFR	19	4	n/a	WELL	1600	4	n/a	n/a	n/a	n/a	n/a	n/a
3727.556	n/a	RECOG_RESP	1863778	n/a	LTP141	ltpFR	19	4	n/a	WELL	1600	n/a	n/a	n/a	n/a	n/a	n/a	n/a
3728.122	n/a	RECOG_CONF	1864061	n/a	LTP141	ltpFR	19	4	n/a	WELL	1600	4	n/a	n/a	n/a	n/a	n/a	n/a
3729.492	n/a	RECOG_TARGET	1864746	n/a	LTP141	ltpFR	19	4	-1	WATER	1594	5	-1	n/a	n/a	n/a	n/a	n/a
3730.218	n/a	RECOG_RESP	1865109	n/a	LTP141	ltpFR	19	4	-1	WATER	1594	n/a	-1	n/a	n/a	n/a	n/a	n/a
3730.852	n/a	RECOG_CONF	1865426	n/a	LTP141	ltpFR	19	4	-1	WATER	1594	5	-1	n/a	n/a	n/a	n/a	n/a
3732.016	n/a	RECOG_LURE	1866008	n/a	LTP141	ltpFR	19	4	n/a	PISTOL	1075	4	n/a	n/a	n/a	n/a	n/a	n/a
3732.74	n/a	RECOG_RESP	1866370	n/a	LTP141	ltpFR	19	4	n/a	PISTOL	1075	n/a	n/a	n/a	n/a	n/a	n/a	n/a
3733.416	n/a	RECOG_CONF	1866708	n/a	LTP141	ltpFR	19	4	n/a	PISTOL	1075	4	n/a	n/a	n/a	n/a	n/a	n/a
3734.632	n/a	RECOG_TARGET	1867316	n/a	LTP141	ltpFR	19	4	1	HORIZON	717	5	0	n/a	n/a	n/a	n/a	n/a
3735.266	n/a	RECOG_RESP	1867633	n/a	LTP141	ltpFR	19	4	1	HORIZON	717	n/a	0	n/a	n/a	n/a	n/a	n/a
3735.95	n/a	RECOG_CONF	1867975	n/a	LTP141	ltpFR	19	4	1	HORIZON	717	5	0	n/a	n/a	n/a	n/a	n/a
3737.232	n/a	RECOG_TARGET	1868616	n/a	LTP141	ltpFR	19	4	0	CROOK	412	4	1	n/a	n/a	n/a	n/a	n/a
3737.908	n/a	RECOG_RESP	1868954	n/a	LTP141	ltpFR	19	4	0	CROOK	412	n/a	1	n/a	n/a	n/a	n/a	n/a
3738.554	n/a	RECOG_CONF	1869277	n/a	LTP141	ltpFR	19	4	0	CROOK	412	4	1	n/a	n/a	n/a	n/a	n/a
3739.788	n/a	RECOG_LURE	1869894	n/a	LTP141	ltpFR	19	4	n/a	TROMBONE	1508	4	n/a	n/a	n/a	n/a	n/a	n/a
3740.378	n/a	RECOG_RESP	1870189	n/a	LTP141	ltpFR	19	4	n/a	TROMBONE	1508	n/a	n/a	n/a	n/a	n/a	n/a	n/a
3741.268	n/a	RECOG_CONF	1870634	n/a	LTP141	ltpFR	19	4	n/a	TROMBONE	1508	4	n/a	n/a	n/a	n/a	n/a	n/a
3742.47	n/a	RECOG_TARGET	1871235	n/a	LTP141	ltpFR	19	4	0	NOTEBOOK	959	4	0	n/a	n/a	n/a	n/a	n/a
3743.066	n/a	RECOG_RESP	1871533	n/a	LTP141	ltpFR	19	4	0	NOTEBOOK	959	n/a	0	n/a	n/a	n/a	n/a	n/a
3743.698	n/a	RECOG_CONF	1871849	n/a	LTP141	ltpFR	19	4	0	NOTEBOOK	959	4	0	n/a	n/a	n/a	n/a	n/a
3745.104	n/a	RECOG_TARGET	1872552	n/a	LTP141	ltpFR	19	4	1	STAMP	1370	4	1	n/a	n/a	n/a	n/a	n/a
3745.854	n/a	RECOG_RESP	1872927	n/a	LTP141	ltpFR	19	4	1	STAMP	1370	n/a	1	n/a	n/a	n/a	n/a	n/a
3746.436	n/a	RECOG_CONF	1873218	n/a	LTP141	ltpFR	19	4	1	STAMP	1370	4	1	n/a	n/a	n/a	n/a	n/a
3749.292	n/a	REC_START	1874646	n/a	LTP141	ltpFR	19	5	n/a	n/a	n/a	n/a	n/a	n/a	n/a	n/a	n/a	n/a
3749.328	n/a	RECOG_LURE	1874664	n/a	LTP141	ltpFR	19	5	n/a	CAVE	263	4	n/a	n/a	n/a	n/a	n/a	n/a
3750.264	n/a	RECOG_RESP	1875132	n/a	LTP141	ltpFR	19	5	n/a	CAVE	263	n/a	n/a	n/a	n/a	n/a	n/a	n/a
3750.836	n/a	RECOG_CONF	1875418	n/a	LTP141	ltpFR	19	5	n/a	CAVE	263	4	n/a	n/a	n/a	n/a	n/a	n/a
3752.186	n/a	RECOG_TARGET	1876093	n/a	LTP141	ltpFR	19	5	0	VEGETABLE	1552	5	0	n/a	n/a	n/a	n/a	n/a
3752.734	n/a	RECOG_RESP	1876367	n/a	LTP141	ltpFR	19	5	0	VEGETABLE	1552	n/a	0	n/a	n/a	n/a	n/a	n/a
3753.238	n/a	RECOG_CONF	1876619	n/a	LTP141	ltpFR	19	5	0	VEGETABLE	1552	5	0	n/a	n/a	n/a	n/a	n/a
3754.592	n/a	RECOG_LURE	1877296	n/a	LTP141	ltpFR	19	5	n/a	LASH	802	4	n/a	n/a	n/a	n/a	n/a	n/a
3755.242	n/a	RECOG_RESP	1877621	n/a	LTP141	ltpFR	19	5	n/a	LASH	802	n/a	n/a	n/a	n/a	n/a	n/a	n/a
3755.742	n/a	RECOG_CONF	1877871	n/a	LTP141	ltpFR	19	5	n/a	LASH	802	4	n/a	n/a	n/a	n/a	n/a	n/a
3757.092	n/a	RECOG_LURE	1878546	n/a	LTP141	ltpFR	19	5	n/a	HELMET	702	4	n/a	n/a	n/a	n/a	n/a	n/a
3757.704	n/a	RECOG_RESP	1878852	n/a	LTP141	ltpFR	19	5	n/a	HELMET	702	n/a	n/a	n/a	n/a	n/a	n/a	n/a
3758.22	n/a	RECOG_CONF	1879110	n/a	LTP141	ltpFR	19	5	n/a	HELMET	702	4	n/a	n/a	n/a	n/a	n/a	n/a
3759.616	n/a	RECOG_TARGET	1879808	n/a	LTP141	ltpFR	19	5	-1	BEETLE	116	5	-1	n/a	n/a	n/a	n/a	n/a
3760.168	n/a	RECOG_RESP	1880084	n/a	LTP141	ltpFR	19	5	-1	BEETLE	116	n/a	-1	n/a	n/a	n/a	n/a	n/a
3760.822	n/a	RECOG_CONF	1880411	n/a	LTP141	ltpFR	19	5	-1	BEETLE	116	5	-1	n/a	n/a	n/a	n/a	n/a
3762.132	n/a	RECOG_TARGET	1881066	n/a	LTP141	ltpFR	19	5	1	SYRUP	1425	5	0	n/a	n/a	n/a	n/a	n/a
3762.682	n/a	RECOG_RESP	1881341	n/a	LTP141	ltpFR	19	5	1	SYRUP	1425	n/a	0	n/a	n/a	n/a	n/a	n/a
3763.224	n/a	RECOG_CONF	1881612	n/a	LTP141	ltpFR	19	5	1	SYRUP	1425	5	0	n/a	n/a	n/a	n/a	n/a
3764.638	n/a	RECOG_TARGET	1882319	n/a	LTP141	ltpFR	19	5	-1	TRANSPLANT	1496	3	-1	n/a	n/a	n/a	n/a	n/a
3765.238	n/a	RECOG_RESP	1882619	n/a	LTP141	ltpFR	19	5	-1	TRANSPLANT	1496	n/a	-1	n/a	n/a	n/a	n/a	n/a
3766.678	n/a	RECOG_CONF	1883339	n/a	LTP141	ltpFR	19	5	-1	TRANSPLANT	1496	3	-1	n/a	n/a	n/a	n/a	n/a
3768.004	n/a	RECOG_TARGET	1884002	n/a	LTP141	ltpFR	19	5	1	PAINT	1003	5	0	n/a	n/a	n/a	n/a	n/a
3770.934	n/a	RECOG_RESP	1885467	n/a	LTP141	ltpFR	19	5	1	PAINT	1003	n/a	0	n/a	n/a	n/a	n/a	n/a
3771.504	n/a	RECOG_CONF	1885752	n/a	LTP141	ltpFR	19	5	1	PAINT	1003	5	0	n/a	n/a	n/a	n/a	n/a
3772.938	n/a	RECOG_TARGET	1886469	n/a	LTP141	ltpFR	19	5	1	SWEATER	1419	5	0	n/a	n/a	n/a	n/a	n/a
3773.504	n/a	RECOG_RESP	1886752	n/a	LTP141	ltpFR	19	5	1	SWEATER	1419	n/a	0	n/a	n/a	n/a	n/a	n/a
3774.012	n/a	RECOG_CONF	1887006	n/a	LTP141	ltpFR	19	5	1	SWEATER	1419	5	0	n/a	n/a	n/a	n/a	n/a
3775.412	n/a	RECOG_LURE	1887706	n/a	LTP141	ltpFR	19	5	n/a	BUREAU	199	4	n/a	n/a	n/a	n/a	n/a	n/a
3776.148	n/a	RECOG_RESP	1888074	n/a	LTP141	ltpFR	19	5	n/a	BUREAU	199	n/a	n/a	n/a	n/a	n/a	n/a	n/a
3776.836	n/a	RECOG_CONF	1888418	n/a	LTP141	ltpFR	19	5	n/a	BUREAU	199	4	n/a	n/a	n/a	n/a	n/a	n/a
3778.026	n/a	RECOG_TARGET	1889013	n/a	LTP141	ltpFR	19	5	0	LIVER	833	5	0	n/a	n/a	n/a	n/a	n/a
3778.59	n/a	RECOG_RESP	1889295	n/a	LTP141	ltpFR	19	5	0	LIVER	833	n/a	0	n/a	n/a	n/a	n/a	n/a
3779.098	n/a	RECOG_CONF	1889549	n/a	LTP141	ltpFR	19	5	0	LIVER	833	5	0	n/a	n/a	n/a	n/a	n/a
3780.402	n/a	RECOG_TARGET	1890201	n/a	LTP141	ltpFR	19	5	-1	AUTOMOBILE	62	5	-1	n/a	n/a	n/a	n/a	n/a
3781.046	n/a	RECOG_RESP	1890523	n/a	LTP141	ltpFR	19	5	-1	AUTOMOBILE	62	n/a	-1	n/a	n/a	n/a	n/a	n/a
3781.552	n/a	RECOG_CONF	1890776	n/a	LTP141	ltpFR	19	5	-1	AUTOMOBILE	62	5	-1	n/a	n/a	n/a	n/a	n/a
3782.942	n/a	RECOG_TARGET	1891471	n/a	LTP141	ltpFR	19	5	0	FROG	608	5	0	n/a	n/a	n/a	n/a	n/a
3783.448	n/a	RECOG_RESP	1891724	n/a	LTP141	ltpFR	19	5	0	FROG	608	n/a	0	n/a	n/a	n/a	n/a	n/a
3784.01	n/a	RECOG_CONF	1892005	n/a	LTP141	ltpFR	19	5	0	FROG	608	5	0	n/a	n/a	n/a	n/a	n/a
3785.326	n/a	RECOG_TARGET	1892663	n/a	LTP141	ltpFR	19	5	1	BRICK	172	5	0	n/a	n/a	n/a	n/a	n/a
3785.874	n/a	RECOG_RESP	1892937	n/a	LTP141	ltpFR	19	5	1	BRICK	172	n/a	0	n/a	n/a	n/a	n/a	n/a
3786.38	n/a	RECOG_CONF	1893190	n/a	LTP141	ltpFR	19	5	1	BRICK	172	5	0	n/a	n/a	n/a	n/a	n/a
3787.774	n/a	RECOG_TARGET	1893887	n/a	LTP141	ltpFR	19	5	1	COIN	343	4	0	n/a	n/a	n/a	n/a	n/a
3788.446	n/a	RECOG_RESP	1894223	n/a	LTP141	ltpFR	19	5	1	COIN	343	n/a	0	n/a	n/a	n/a	n/a	n/a
3789.184	n/a	RECOG_CONF	1894592	n/a	LTP141	ltpFR	19	5	1	COIN	343	4	0	n/a	n/a	n/a	n/a	n/a
3790.532	n/a	RECOG_TARGET	1895266	n/a	LTP141	ltpFR	19	5	0	MAT	877	5	0	n/a	n/a	n/a	n/a	n/a
3791.078	n/a	RECOG_RESP	1895539	n/a	LTP141	ltpFR	19	5	0	MAT	877	n/a	0	n/a	n/a	n/a	n/a	n/a
3791.762	n/a	RECOG_CONF	1895881	n/a	LTP141	ltpFR	19	5	0	MAT	877	5	0	n/a	n/a	n/a	n/a	n/a
3793.022	n/a	RECOG_LURE	1896511	n/a	LTP141	ltpFR	19	5	n/a	SLEIGH	1325	5	n/a	n/a	n/a	n/a	n/a	n/a
3793.766	n/a	RECOG_RESP	1896883	n/a	LTP141	ltpFR	19	5	n/a	SLEIGH	1325	n/a	n/a	n/a	n/a	n/a	n/a	n/a
3794.286	n/a	RECOG_CONF	1897143	n/a	LTP141	ltpFR	19	5	n/a	SLEIGH	1325	5	n/a	n/a	n/a	n/a	n/a	n/a
3795.896	n/a	RECOG_TARGET	1897948	n/a	LTP141	ltpFR	19	5	0	BROCCOLI	176	5	0	n/a	n/a	n/a	n/a	n/a
3796.416	n/a	RECOG_RESP	1898208	n/a	LTP141	ltpFR	19	5	0	BROCCOLI	176	n/a	0	n/a	n/a	n/a	n/a	n/a
3797.04	n/a	RECOG_CONF	1898520	n/a	LTP141	ltpFR	19	5	0	BROCCOLI	176	5	0	n/a	n/a	n/a	n/a	n/a
3798.438	n/a	RECOG_TARGET	1899219	n/a	LTP141	ltpFR	19	5	1	FIREPLACE	570	4	0	n/a	n/a	n/a	n/a	n/a
3799.71	n/a	RECOG_RESP	1899855	n/a	LTP141	ltpFR	19	5	1	FIREPLACE	570	n/a	0	n/a	n/a	n/a	n/a	n/a
3800.316	n/a	RECOG_CONF	1900158	n/a	LTP141	ltpFR	19	5	1	FIREPLACE	570	4	0	n/a	n/a	n/a	n/a	n/a
3801.662	n/a	RECOG_TARGET	1900831	n/a	LTP141	ltpFR	19	5	0	LID	817	4	0	n/a	n/a	n/a	n/a	n/a
3802.426	n/a	RECOG_RESP	1901213	n/a	LTP141	ltpFR	19	5	0	LID	817	n/a	0	n/a	n/a	n/a	n/a	n/a
3802.928	n/a	RECOG_CONF	1901464	n/a	LTP141	ltpFR	19	5	0	LID	817	4	0	n/a	n/a	n/a	n/a	n/a
3805.736	n/a	REC_START	1902868	n/a	LTP141	ltpFR	19	6	n/a	n/a	n/a	n/a	n/a	n/a	n/a	n/a	n/a	n/a
3805.776	n/a	RECOG_TARGET	1902888	n/a	LTP141	ltpFR	19	6	1	FOOTBALL	591	5	0	n/a	n/a	n/a	n/a	n/a
3806.432	n/a	RECOG_RESP	1903216	n/a	LTP141	ltpFR	19	6	1	FOOTBALL	591	n/a	0	n/a	n/a	n/a	n/a	n/a
3806.998	n/a	RECOG_CONF	1903499	n/a	LTP141	ltpFR	19	6	1	FOOTBALL	591	5	0	n/a	n/a	n/a	n/a	n/a
3808.31	n/a	RECOG_TARGET	1904155	n/a	LTP141	ltpFR	19	6	1	TRAY	1498	5	0	n/a	n/a	n/a	n/a	n/a
3808.916	n/a	RECOG_RESP	1904458	n/a	LTP141	ltpFR	19	6	1	TRAY	1498	n/a	0	n/a	n/a	n/a	n/a	n/a
3809.468	n/a	RECOG_CONF	1904734	n/a	LTP141	ltpFR	19	6	1	TRAY	1498	5	0	n/a	n/a	n/a	n/a	n/a
3810.808	n/a	RECOG_TARGET	1905404	n/a	LTP141	ltpFR	19	6	0	ALBUM	14	5	0	n/a	n/a	n/a	n/a	n/a
3811.402	n/a	RECOG_RESP	1905701	n/a	LTP141	ltpFR	19	6	0	ALBUM	14	n/a	0	n/a	n/a	n/a	n/a	n/a
3811.95	n/a	RECOG_CONF	1905975	n/a	LTP141	ltpFR	19	6	0	ALBUM	14	5	0	n/a	n/a	n/a	n/a	n/a
3813.384	n/a	RECOG_TARGET	1906692	n/a	LTP141	ltpFR	19	6	0	MEADOW	881	5	1	n/a	n/a	n/a	n/a	n/a
3813.848	n/a	RECOG_RESP	1906924	n/a	LTP141	ltpFR	19	6	0	MEADOW	881	n/a	1	n/a	n/a	n/a	n/a	n/a
3814.366	n/a	RECOG_CONF	1907183	n/a	LTP141	ltpFR	19	6	0	MEADOW	881	5	1	n/a	n/a	n/a	n/a	n/a
3815.708	n/a	RECOG_TARGET	1907854	n/a	LTP141	ltpFR	19	6	0	TOY	1492	5	0	n/a	n/a	n/a	n/a	n/a
3816.17	n/a	RECOG_RESP	1908085	n/a	LTP141	ltpFR	19	6	0	TOY	1492	n/a	0	n/a	n/a	n/a	n/a	n/a
3816.692	n/a	RECOG_CONF	1908346	n/a	LTP141	ltpFR	19	6	0	TOY	1492	5	0	n/a	n/a	n/a	n/a	n/a
3818.024	n/a	RECOG_TARGET	1909012	n/a	LTP141	ltpFR	19	6	0	FISH	571	4	0	n/a	n/a	n/a	n/a	n/a
3818.958	n/a	RECOG_RESP	1909479	n/a	LTP141	ltpFR	19	6	0	FISH	571	n/a	0	n/a	n/a	n/a	n/a	n/a
3819.616	n/a	RECOG_CONF	1909808	n/a	LTP141	ltpFR	19	6	0	FISH	571	4	0	n/a	n/a	n/a	n/a	n/a
3821.022	n/a	RECOG_TARGET	1910511	n/a	LTP141	ltpFR	19	6	0	SOCKET	1340	5	0	n/a	n/a	n/a	n/a	n/a
3821.58	n/a	RECOG_RESP	1910790	n/a	LTP141	ltpFR	19	6	0	SOCKET	1340	n/a	0	n/a	n/a	n/a	n/a	n/a
3822.116	n/a	RECOG_CONF	1911058	n/a	LTP141	ltpFR	19	6	0	SOCKET	1340	5	0	n/a	n/a	n/a	n/a	n/a
3823.572	n/a	RECOG_TARGET	1911786	n/a	LTP141	ltpFR	19	6	-1	GAUZE	626	4	-1	n/a	n/a	n/a	n/a	n/a
3824.034	n/a	RECOG_RESP	1912017	n/a	LTP141	ltpFR	19	6	-1	GAUZE	626	n/a	-1	n/a	n/a	n/a	n/a	n/a
3824.564	n/a	RECOG_CONF	1912282	n/a	LTP141	ltpFR	19	6	-1	GAUZE	626	4	-1	n/a	n/a	n/a	n/a	n/a
3826.004	n/a	RECOG_TARGET	1913002	n/a	LTP141	ltpFR	19	6	0	COPIER	377	5	1	n/a	n/a	n/a	n/a	n/a
3826.512	n/a	RECOG_RESP	1913256	n/a	LTP141	ltpFR	19	6	0	COPIER	377	n/a	1	n/a	n/a	n/a	n/a	n/a
3827.01	n/a	RECOG_CONF	1913505	n/a	LTP141	ltpFR	19	6	0	COPIER	377	5	1	n/a	n/a	n/a	n/a	n/a
3828.462	n/a	RECOG_LURE	1914231	n/a	LTP141	ltpFR	19	6	n/a	CUPBOARD	425	4	n/a	n/a	n/a	n/a	n/a	n/a
3829.594	n/a	RECOG_RESP	1914797	n/a	LTP141	ltpFR	19	6	n/a	CUPBOARD	425	n/a	n/a	n/a	n/a	n/a	n/a	n/a
3830.192	n/a	RECOG_CONF	1915096	n/a	LTP141	ltpFR	19	6	n/a	CUPBOARD	425	4	n/a	n/a	n/a	n/a	n/a	n/a
3831.652	n/a	RECOG_TARGET	1915826	n/a	LTP141	ltpFR	19	6	0	CORPORATION	382	5	1	n/a	n/a	n/a	n/a	n/a
3832.23	n/a	RECOG_RESP	1916115	n/a	LTP141	ltpFR	19	6	0	CORPORATION	382	n/a	1	n/a	n/a	n/a	n/a	n/a
3832.892	n/a	RECOG_CONF	1916446	n/a	LTP141	ltpFR	19	6	0	CORPORATION	382	5	1	n/a	n/a	n/a	n/a	n/a
3834.11	n/a	RECOG_TARGET	1917055	n/a	LTP141	ltpFR	19	6	0	GRASS	655	5	1	n/a	n/a	n/a	n/a	n/a
3834.684	n/a	RECOG_RESP	1917342	n/a	LTP141	ltpFR	19	6	0	GRASS	655	n/a	1	n/a	n/a	n/a	n/a	n/a
3835.232	n/a	RECOG_CONF	1917616	n/a	LTP141	ltpFR	19	6	0	GRASS	655	5	1	n/a	n/a	n/a	n/a	n/a
3838.192	n/a	RECOG_TARGET	1919096	n/a	LTP141	ltpFR	19	6	1	LENS	811	5	0	n/a	n/a	n/a	n/a	n/a
3838.912	n/a	RECOG_RESP	1919456	n/a	LTP141	ltpFR	19	6	1	LENS	811	n/a	0	n/a	n/a	n/a	n/a	n/a
3839.416	n/a	RECOG_CONF	1919708	n/a	LTP141	ltpFR	19	6	1	LENS	811	5	0	n/a	n/a	n/a	n/a	n/a
3840.85	n/a	RECOG_LURE	1920425	n/a	LTP141	ltpFR	19	6	n/a	MACHINE	852	4	n/a	n/a	n/a	n/a	n/a	n/a
3841.666	n/a	RECOG_RESP	1920833	n/a	LTP141	ltpFR	19	6	n/a	MACHINE	852	n/a	n/a	n/a	n/a	n/a	n/a	n/a
3842.246	n/a	RECOG_CONF	1921123	n/a	LTP141	ltpFR	19	6	n/a	MACHINE	852	4	n/a	n/a	n/a	n/a	n/a	n/a
3843.632	n/a	RECOG_TARGET	1921816	n/a	LTP141	ltpFR	19	6	-1	GARAGE	621	5	-1	n/a	n/a	n/a	n/a	n/a
3844.77	n/a	RECOG_RESP	1922385	n/a	LTP141	ltpFR	19	6	-1	GARAGE	621	n/a	-1	n/a	n/a	n/a	n/a	n/a
3845.292	n/a	RECOG_CONF	1922646	n/a	LTP141	ltpFR	19	6	-1	GARAGE	621	5	-1	n/a	n/a	n/a	n/a	n/a
3846.598	n/a	RECOG_TARGET	1923299	n/a	LTP141	ltpFR	19	6	0	CLIPPERS	324	5	1	n/a	n/a	n/a	n/a	n/a
3847.398	n/a	RECOG_RESP	1923699	n/a	LTP141	ltpFR	19	6	0	CLIPPERS	324	n/a	1	n/a	n/a	n/a	n/a	n/a
3847.888	n/a	RECOG_CONF	1923944	n/a	LTP141	ltpFR	19	6	0	CLIPPERS	324	5	1	n/a	n/a	n/a	n/a	n/a
3849.398	n/a	RECOG_TARGET	1924699	n/a	LTP141	ltpFR	19	6	-1	SLIDE	1326	5	-1	n/a	n/a	n/a	n/a	n/a
3850.3	n/a	RECOG_RESP	1925150	n/a	LTP141	ltpFR	19	6	-1	SLIDE	1326	n/a	-1	n/a	n/a	n/a	n/a	n/a
3850.902	n/a	RECOG_CONF	1925451	n/a	LTP141	ltpFR	19	6	-1	SLIDE	1326	5	-1	n/a	n/a	n/a	n/a	n/a
3852.28	n/a	RECOG_TARGET	1926140	n/a	LTP141	ltpFR	19	6	0	KIWI	781	5	0	n/a	n/a	n/a	n/a	n/a
3852.818	n/a	RECOG_RESP	1926409	n/a	LTP141	ltpFR	19	6	0	KIWI	781	n/a	0	n/a	n/a	n/a	n/a	n/a
3853.356	n/a	RECOG_CONF	1926678	n/a	LTP141	ltpFR	19	6	0	KIWI	781	5	0	n/a	n/a	n/a	n/a	n/a
3854.754	n/a	RECOG_TARGET	1927377	n/a	LTP141	ltpFR	19	6	-1	POOL	1103	5	-1	n/a	n/a	n/a	n/a	n/a
3855.246	n/a	RECOG_RESP	1927623	n/a	LTP141	ltpFR	19	6	-1	POOL	1103	n/a	-1	n/a	n/a	n/a	n/a	n/a
3855.91	n/a	RECOG_CONF	1927955	n/a	LTP141	ltpFR	19	6	-1	POOL	1103	5	-1	n/a	n/a	n/a	n/a	n/a
3857.152	n/a	RECOG_TARGET	1928576	n/a	LTP141	ltpFR	19	6	-1	LOG	841	5	-1	n/a	n/a	n/a	n/a	n/a
3857.638	n/a	RECOG_RESP	1928819	n/a	LTP141	ltpFR	19	6	-1	LOG	841	n/a	-1	n/a	n/a	n/a	n/a	n/a
3858.242	n/a	RECOG_CONF	1929121	n/a	LTP141	ltpFR	19	6	-1	LOG	841	5	-1	n/a	n/a	n/a	n/a	n/a
3868.514	n/a	REC_START	1934257	n/a	LTP141	ltpFR	19	7	n/a	n/a	n/a	n/a	n/a	n/a	n/a	n/a	n/a	n/a
3868.55	n/a	RECOG_TARGET	1934275	n/a	LTP141	ltpFR	19	7	1	CENT	270	3	0	n/a	n/a	n/a	n/a	n/a
3869.958	n/a	RECOG_RESP	1934979	n/a	LTP141	ltpFR	19	7	1	CENT	270	n/a	0	n/a	n/a	n/a	n/a	n/a
3870.644	n/a	RECOG_CONF	1935322	n/a	LTP141	ltpFR	19	7	1	CENT	270	3	0	n/a	n/a	n/a	n/a	n/a
3872.056	n/a	RECOG_TARGET	1936028	n/a	LTP141	ltpFR	19	7	-1	CRIB	407	4	-1	n/a	n/a	n/a	n/a	n/a
3872.588	n/a	RECOG_RESP	1936294	n/a	LTP141	ltpFR	19	7	-1	CRIB	407	n/a	-1	n/a	n/a	n/a	n/a	n/a
3873.17	n/a	RECOG_CONF	1936585	n/a	LTP141	ltpFR	19	7	-1	CRIB	407	4	-1	n/a	n/a	n/a	n/a	n/a
3874.59	n/a	RECOG_TARGET	1937295	n/a	LTP141	ltpFR	19	7	1	MUSHROOM	934	4	1	n/a	n/a	n/a	n/a	n/a
3875.376	n/a	RECOG_RESP	1937688	n/a	LTP141	ltpFR	19	7	1	MUSHROOM	934	n/a	1	n/a	n/a	n/a	n/a	n/a
3875.934	n/a	RECOG_CONF	1937967	n/a	LTP141	ltpFR	19	7	1	MUSHROOM	934	4	1	n/a	n/a	n/a	n/a	n/a
3877.546	n/a	RECOG_TARGET	1938773	n/a	LTP141	ltpFR	19	7	1	LIME	823	4	0	n/a	n/a	n/a	n/a	n/a
3878.23	n/a	RECOG_RESP_VV	1939115	n/a	LTP141	ltpFR	19	7	1	LIME	823	n/a	0	n/a	n/a	n/a	n/a	n/a
3878.968	n/a	RECOG_RESP	1939484	n/a	LTP141	ltpFR	19	7	1	LIME	823	n/a	0	n/a	n/a	n/a	n/a	n/a
3879.682	n/a	RECOG_CONF	1939841	n/a	LTP141	ltpFR	19	7	1	LIME	823	4	0	n/a	n/a	n/a	n/a	n/a
3881.036	n/a	RECOG_TARGET	1940518	n/a	LTP141	ltpFR	19	7	-1	RUST	1219	5	-1	n/a	n/a	n/a	n/a	n/a
3881.804	n/a	RECOG_RESP	1940902	n/a	LTP141	ltpFR	19	7	-1	RUST	1219	n/a	-1	n/a	n/a	n/a	n/a	n/a
3882.498	n/a	RECOG_CONF	1941249	n/a	LTP141	ltpFR	19	7	-1	RUST	1219	5	-1	n/a	n/a	n/a	n/a	n/a
3883.77	n/a	RECOG_LURE	1941885	n/a	LTP141	ltpFR	19	7	n/a	COUGAR	387	5	n/a	n/a	n/a	n/a	n/a	n/a
3884.386	n/a	RECOG_RESP	1942193	n/a	LTP141	ltpFR	19	7	n/a	COUGAR	387	n/a	n/a	n/a	n/a	n/a	n/a	n/a
