onset	duration	trial_type	sample	stim_file	subject	experiment	session	trial	item_name	item_num	list	answer	test_x	test_y	test_z
249.208	n/a	SESS_START	124604	n/a	LTP093	ltpFR2	16	n/a	n/a	n/a	n/a	n/a	0	0	0
407.106	n/a	START	203553	n/a	LTP093	ltpFR2	16	n/a	n/a	n/a	-1	n/a	n/a	n/a	n/a
407.14	n/a	PROB	203570	n/a	LTP093	ltpFR2	16	n/a	n/a	n/a	-1	18	6	9	3
409.554	n/a	PROB	204777	n/a	LTP093	ltpFR2	16	n/a	n/a	n/a	-1	20	8	6	6
411.116	n/a	PROB	205558	n/a	LTP093	ltpFR2	16	n/a	n/a	n/a	-1	19	6	4	9
412.416	n/a	PROB	206208	n/a	LTP093	ltpFR2	16	n/a	n/a	n/a	-1	21	9	7	5
414.628	n/a	PROB	207314	n/a	LTP093	ltpFR2	16	n/a	n/a	n/a	-1	19	6	8	5
417.008	n/a	PROB	208504	n/a	LTP093	ltpFR2	16	n/a	n/a	n/a	-1	16	4	9	3
418.61	n/a	STOP	209305	n/a	LTP093	ltpFR2	16	n/a	n/a	n/a	-1	n/a	n/a	n/a	n/a
469.948	n/a	WORD	234974	wordpools/wasnorm_wordpool_576.txt	LTP093	ltpFR2	16	1	HOUND	724	n/a	n/a	0	0	0
472.428	n/a	WORD	236214	wordpools/wasnorm_wordpool_576.txt	LTP093	ltpFR2	16	1	DANDRUFF	439	n/a	n/a	0	0	0
475.056	n/a	WORD	237528	wordpools/wasnorm_wordpool_576.txt	LTP093	ltpFR2	16	1	PAIL	1002	n/a	n/a	0	0	0
477.652	n/a	WORD	238826	wordpools/wasnorm_wordpool_576.txt	LTP093	ltpFR2	16	1	PIANO	1057	n/a	n/a	0	0	0
480.198	n/a	WORD	240099	wordpools/wasnorm_wordpool_576.txt	LTP093	ltpFR2	16	1	GROUND	666	n/a	n/a	0	0	0
483.012	n/a	WORD	241506	wordpools/wasnorm_wordpool_576.txt	LTP093	ltpFR2	16	1	MAMMAL	861	n/a	n/a	0	0	0
485.808	n/a	WORD	242904	wordpools/wasnorm_wordpool_576.txt	LTP093	ltpFR2	16	1	HARP	689	n/a	n/a	0	0	0
488.322	n/a	WORD	244161	wordpools/wasnorm_wordpool_576.txt	LTP093	ltpFR2	16	1	BEEF	113	n/a	n/a	0	0	0
490.85	n/a	WORD	245425	wordpools/wasnorm_wordpool_576.txt	LTP093	ltpFR2	16	1	SHOVEL	1295	n/a	n/a	0	0	0
493.596	n/a	WORD	246798	wordpools/wasnorm_wordpool_576.txt	LTP093	ltpFR2	16	1	DONKEY	484	n/a	n/a	0	0	0
496.14	n/a	WORD	248070	wordpools/wasnorm_wordpool_576.txt	LTP093	ltpFR2	16	1	CARRIAGE	248	n/a	n/a	0	0	0
498.72	n/a	WORD	249360	wordpools/wasnorm_wordpool_576.txt	LTP093	ltpFR2	16	1	OZONE	996	n/a	n/a	0	0	0
501.534	n/a	WORD	250767	wordpools/wasnorm_wordpool_576.txt	LTP093	ltpFR2	16	1	UMPIRE	1535	n/a	n/a	0	0	0
504.346	n/a	WORD	252173	wordpools/wasnorm_wordpool_576.txt	LTP093	ltpFR2	16	1	PEANUT	1032	n/a	n/a	0	0	0
506.976	n/a	WORD	253488	wordpools/wasnorm_wordpool_576.txt	LTP093	ltpFR2	16	1	SIBLING	1301	n/a	n/a	0	0	0
509.588	n/a	WORD	254794	wordpools/wasnorm_wordpool_576.txt	LTP093	ltpFR2	16	1	LEOPARD	812	n/a	n/a	0	0	0
512.268	n/a	WORD	256134	wordpools/wasnorm_wordpool_576.txt	LTP093	ltpFR2	16	1	JUNGLE	764	n/a	n/a	0	0	0
514.814	n/a	WORD	257407	wordpools/wasnorm_wordpool_576.txt	LTP093	ltpFR2	16	1	ASIA	46	n/a	n/a	0	0	0
517.544	n/a	WORD	258772	wordpools/wasnorm_wordpool_576.txt	LTP093	ltpFR2	16	1	MEAT	883	n/a	n/a	0	0	0
520.072	n/a	WORD	260036	wordpools/wasnorm_wordpool_576.txt	LTP093	ltpFR2	16	1	TUTU	1524	n/a	n/a	0	0	0
522.902	n/a	WORD	261451	wordpools/wasnorm_wordpool_576.txt	LTP093	ltpFR2	16	1	DANCER	437	n/a	n/a	0	0	0
525.398	n/a	WORD	262699	wordpools/wasnorm_wordpool_576.txt	LTP093	ltpFR2	16	1	LION	827	n/a	n/a	0	0	0
528.144	n/a	WORD	264072	wordpools/wasnorm_wordpool_576.txt	LTP093	ltpFR2	16	1	PACKAGE	997	n/a	n/a	0	0	0
530.79	n/a	WORD	265395	wordpools/wasnorm_wordpool_576.txt	LTP093	ltpFR2	16	1	CLIMBER	323	n/a	n/a	0	0	0
532.406	n/a	START	266203	n/a	LTP093	ltpFR2	16	n/a	n/a	n/a	1	n/a	n/a	n/a	n/a
533.378	n/a	DISTRACTOR	266689	n/a	LTP093	ltpFR2	16	1	n/a	n/a	n/a	n/a	0	0	0
533.388	n/a	PROB	266694	n/a	LTP093	ltpFR2	16	n/a	n/a	n/a	1	16	5	2	9
535.3	n/a	PROB	267650	n/a	LTP093	ltpFR2	16	n/a	n/a	n/a	1	16	7	1	8
536.732	n/a	PROB	268366	n/a	LTP093	ltpFR2	16	n/a	n/a	n/a	1	18	1	8	9
538.962	n/a	PROB	269481	n/a	LTP093	ltpFR2	16	n/a	n/a	n/a	1	16	3	6	7
541.326	n/a	PROB	270663	n/a	LTP093	ltpFR2	16	n/a	n/a	n/a	1	13	3	2	8
542.74	n/a	PROB	271370	n/a	LTP093	ltpFR2	16	n/a	n/a	n/a	1	21	9	5	7
544.47	n/a	PROB	272235	n/a	LTP093	ltpFR2	16	n/a	n/a	n/a	1	18	8	1	9
545.668	n/a	PROB	272834	n/a	LTP093	ltpFR2	16	n/a	n/a	n/a	1	16	8	7	1
547.434	n/a	PROB	273717	n/a	LTP093	ltpFR2	16	n/a	n/a	n/a	1	9	3	2	4
549.348	n/a	PROB	274674	n/a	LTP093	ltpFR2	16	n/a	n/a	n/a	1	15	6	2	7
551.394	n/a	PROB	275697	n/a	LTP093	ltpFR2	16	n/a	n/a	n/a	1	7	2	2	3
552.692	n/a	PROB	276346	n/a	LTP093	ltpFR2	16	n/a	n/a	n/a	1	14	9	2	3
554.372	n/a	PROB	277186	n/a	LTP093	ltpFR2	16	n/a	n/a	n/a	1	19	8	2	9
555.804	n/a	STOP	277902	n/a	LTP093	ltpFR2	16	n/a	n/a	n/a	1	n/a	n/a	n/a	n/a
558.334	n/a	REC_START	279167	n/a	LTP093	ltpFR2	16	1	n/a	n/a	n/a	n/a	0	0	0
558.9	n/a	REC_WORD	279450	wordpools/wasnorm_wordpool_576.txt	LTP093	ltpFR2	16	1	LION	827	n/a	n/a	0	0	0
559.73	n/a	REC_WORD	279865	wordpools/wasnorm_wordpool_576.txt	LTP093	ltpFR2	16	1	PACKAGE	997	n/a	n/a	0	0	0
560.546	n/a	REC_WORD	280273	wordpools/wasnorm_wordpool_576.txt	LTP093	ltpFR2	16	1	CLIMBER	323	n/a	n/a	0	0	0
561.6	n/a	REC_WORD	280800	wordpools/wasnorm_wordpool_576.txt	LTP093	ltpFR2	16	1	MEAT	883	n/a	n/a	0	0	0
562.312	n/a	REC_WORD	281156	wordpools/wasnorm_wordpool_576.txt	LTP093	ltpFR2	16	1	TUTU	1524	n/a	n/a	0	0	0
563.236	n/a	REC_WORD	281618	wordpools/wasnorm_wordpool_576.txt	LTP093	ltpFR2	16	1	DANCER	437	n/a	n/a	0	0	0
564.33	n/a	REC_WORD	282165	wordpools/wasnorm_wordpool_576.txt	LTP093	ltpFR2	16	1	HOUND	724	n/a	n/a	0	0	0
566.764	n/a	REC_WORD	283382	wordpools/wasnorm_wordpool_576.txt	LTP093	ltpFR2	16	1	GROUND	666	n/a	n/a	0	0	0
567.546	n/a	REC_WORD	283773	wordpools/wasnorm_wordpool_576.txt	LTP093	ltpFR2	16	1	MAMMAL	861	n/a	n/a	0	0	0
606.208	n/a	REC_WORD	303104	wordpools/wasnorm_wordpool_576.txt	LTP093	ltpFR2	16	1	JUNGLE	764	n/a	n/a	0	0	0
606.87	n/a	REC_WORD	303435	wordpools/wasnorm_wordpool_576.txt	LTP093	ltpFR2	16	1	ASIA	46	n/a	n/a	0	0	0
607.44	n/a	REC_WORD	303720	wordpools/wasnorm_wordpool_576.txt	LTP093	ltpFR2	16	1	LEOPARD	812	n/a	n/a	0	0	0
649.764	n/a	DISTRACTOR	324882	n/a	LTP093	ltpFR2	16	2	n/a	n/a	n/a	n/a	0	0	0
649.764	n/a	START	324882	n/a	LTP093	ltpFR2	16	n/a	n/a	n/a	2	n/a	n/a	n/a	n/a
649.798	n/a	PROB	324899	n/a	LTP093	ltpFR2	16	n/a	n/a	n/a	2	11	5	3	3
651.546	n/a	PROB	325773	n/a	LTP093	ltpFR2	16	n/a	n/a	n/a	2	20	9	6	5
653.724	n/a	PROB	326862	n/a	LTP093	ltpFR2	16	n/a	n/a	n/a	2	18	6	3	9
655.172	n/a	PROB	327586	n/a	LTP093	ltpFR2	16	n/a	n/a	n/a	2	12	6	4	2
656.438	n/a	PROB	328219	n/a	LTP093	ltpFR2	16	n/a	n/a	n/a	2	15	7	1	7
657.702	n/a	PROB	328851	n/a	LTP093	ltpFR2	16	n/a	n/a	n/a	2	20	7	7	6
659.632	n/a	PROB	329816	n/a	LTP093	ltpFR2	16	n/a	n/a	n/a	2	18	9	5	4
661.912	n/a	PROB	330956	n/a	LTP093	ltpFR2	16	n/a	n/a	n/a	2	21	6	8	7
663.644	n/a	PROB	331822	n/a	LTP093	ltpFR2	16	n/a	n/a	n/a	2	13	1	8	4
665.492	n/a	PROB	332746	n/a	LTP093	ltpFR2	16	n/a	n/a	n/a	2	18	4	8	6
667.304	n/a	PROB	333652	n/a	LTP093	ltpFR2	16	n/a	n/a	n/a	2	11	3	4	4
668.97	n/a	PROB	334485	n/a	LTP093	ltpFR2	16	n/a	n/a	n/a	2	22	7	6	9
671.066	n/a	PROB	335533	n/a	LTP093	ltpFR2	16	n/a	n/a	n/a	2	12	1	6	5
672.392	n/a	STOP	336196	n/a	LTP093	ltpFR2	16	n/a	n/a	n/a	2	n/a	n/a	n/a	n/a
674.928	n/a	WORD	337464	wordpools/wasnorm_wordpool_576.txt	LTP093	ltpFR2	16	2	NURSE	963	n/a	n/a	0	0	0
677.508	n/a	WORD	338754	wordpools/wasnorm_wordpool_576.txt	LTP093	ltpFR2	16	2	WORLD	1622	n/a	n/a	0	0	0
680.052	n/a	WORD	340026	wordpools/wasnorm_wordpool_576.txt	LTP093	ltpFR2	16	2	SUMMIT	1405	n/a	n/a	0	0	0
682.566	n/a	WORD	341283	wordpools/wasnorm_wordpool_576.txt	LTP093	ltpFR2	16	2	MUFFIN	929	n/a	n/a	0	0	0
685.196	n/a	WORD	342598	wordpools/wasnorm_wordpool_576.txt	LTP093	ltpFR2	16	2	STATUE	1374	n/a	n/a	0	0	0
687.642	n/a	WORD	343821	wordpools/wasnorm_wordpool_576.txt	LTP093	ltpFR2	16	2	FARMER	553	n/a	n/a	0	0	0
690.072	n/a	WORD	345036	wordpools/wasnorm_wordpool_576.txt	LTP093	ltpFR2	16	2	OFFICE	972	n/a	n/a	0	0	0
692.652	n/a	WORD	346326	wordpools/wasnorm_wordpool_576.txt	LTP093	ltpFR2	16	2	STUDENT	1395	n/a	n/a	0	0	0
695.098	n/a	WORD	347549	wordpools/wasnorm_wordpool_576.txt	LTP093	ltpFR2	16	2	KLEENEX	782	n/a	n/a	0	0	0
697.676	n/a	WORD	348838	wordpools/wasnorm_wordpool_576.txt	LTP093	ltpFR2	16	2	BRIEFCASE	175	n/a	n/a	0	0	0
700.24	n/a	WORD	350120	wordpools/wasnorm_wordpool_576.txt	LTP093	ltpFR2	16	2	PLUTO	1092	n/a	n/a	0	0	0
702.986	n/a	WORD	351493	wordpools/wasnorm_wordpool_576.txt	LTP093	ltpFR2	16	2	SNACK	1331	n/a	n/a	0	0	0
705.566	n/a	WORD	352783	wordpools/wasnorm_wordpool_576.txt	LTP093	ltpFR2	16	2	SERVER	1272	n/a	n/a	0	0	0
708.194	n/a	WORD	354097	wordpools/wasnorm_wordpool_576.txt	LTP093	ltpFR2	16	2	SLUG	1329	n/a	n/a	0	0	0
710.674	n/a	WORD	355337	wordpools/wasnorm_wordpool_576.txt	LTP093	ltpFR2	16	2	INMATE	738	n/a	n/a	0	0	0
713.372	n/a	WORD	356686	wordpools/wasnorm_wordpool_576.txt	LTP093	ltpFR2	16	2	FLEET	578	n/a	n/a	0	0	0
716.0	n/a	WORD	358000	wordpools/wasnorm_wordpool_576.txt	LTP093	ltpFR2	16	2	COLONEL	348	n/a	n/a	0	0	0
718.68	n/a	WORD	359340	wordpools/wasnorm_wordpool_576.txt	LTP093	ltpFR2	16	2	MARS	873	n/a	n/a	0	0	0
721.476	n/a	WORD	360738	wordpools/wasnorm_wordpool_576.txt	LTP093	ltpFR2	16	2	COUCH	386	n/a	n/a	0	0	0
724.204	n/a	WORD	362102	wordpools/wasnorm_wordpool_576.txt	LTP093	ltpFR2	16	2	TAXI	1438	n/a	n/a	0	0	0
726.85	n/a	WORD	363425	wordpools/wasnorm_wordpool_576.txt	LTP093	ltpFR2	16	2	CONVICT	371	n/a	n/a	0	0	0
729.314	n/a	WORD	364657	wordpools/wasnorm_wordpool_576.txt	LTP093	ltpFR2	16	2	LADY	794	n/a	n/a	0	0	0
731.794	n/a	WORD	365897	wordpools/wasnorm_wordpool_576.txt	LTP093	ltpFR2	16	2	ACTOR	5	n/a	n/a	0	0	0
734.44	n/a	WORD	367220	wordpools/wasnorm_wordpool_576.txt	LTP093	ltpFR2	16	2	SPHINX	1349	n/a	n/a	0	0	0
736.054	n/a	START	368027	n/a	LTP093	ltpFR2	16	n/a	n/a	n/a	3	n/a	n/a	n/a	n/a
736.926	n/a	DISTRACTOR	368463	n/a	LTP093	ltpFR2	16	2	n/a	n/a	n/a	n/a	0	0	0
736.934	n/a	PROB	368467	n/a	LTP093	ltpFR2	16	n/a	n/a	n/a	3	11	8	2	1
738.484	n/a	PROB	369242	n/a	LTP093	ltpFR2	16	n/a	n/a	n/a	3	21	9	5	7
740.398	n/a	PROB	370199	n/a	LTP093	ltpFR2	16	n/a	n/a	n/a	3	15	1	6	8
743.592	n/a	PROB	371796	n/a	LTP093	ltpFR2	16	n/a	n/a	n/a	3	15	2	8	5
744.724	n/a	PROB	372362	n/a	LTP093	ltpFR2	16	n/a	n/a	n/a	3	11	3	6	2
746.406	n/a	PROB	373203	n/a	LTP093	ltpFR2	16	n/a	n/a	n/a	3	8	2	1	5
747.968	n/a	PROB	373984	n/a	LTP093	ltpFR2	16	n/a	n/a	n/a	3	12	1	9	2
749.068	n/a	PROB	374534	n/a	LTP093	ltpFR2	16	n/a	n/a	n/a	3	12	2	6	4
750.948	n/a	PROB	375474	n/a	LTP093	ltpFR2	16	n/a	n/a	n/a	3	8	4	3	1
752.112	n/a	PROB	376056	n/a	LTP093	ltpFR2	16	n/a	n/a	n/a	3	17	5	6	6
753.976	n/a	PROB	376988	n/a	LTP093	ltpFR2	16	n/a	n/a	n/a	3	16	6	9	1
755.158	n/a	PROB	377579	n/a	LTP093	ltpFR2	16	n/a	n/a	n/a	3	12	7	2	3
756.606	n/a	PROB	378303	n/a	LTP093	ltpFR2	16	n/a	n/a	n/a	3	17	5	4	8
758.768	n/a	STOP	379384	n/a	LTP093	ltpFR2	16	n/a	n/a	n/a	3	n/a	n/a	n/a	n/a
761.898	n/a	REC_START	380949	n/a	LTP093	ltpFR2	16	2	n/a	n/a	n/a	n/a	0	0	0
762.238	n/a	REC_WORD	381119	wordpools/wasnorm_wordpool_576.txt	LTP093	ltpFR2	16	2	LADY	794	n/a	n/a	0	0	0
763.006	n/a	REC_WORD	381503	wordpools/wasnorm_wordpool_576.txt	LTP093	ltpFR2	16	2	ACTOR	5	n/a	n/a	0	0	0
763.614	n/a	REC_WORD	381807	wordpools/wasnorm_wordpool_576.txt	LTP093	ltpFR2	16	2	SPHINX	1349	n/a	n/a	0	0	0
765.81	n/a	REC_WORD	382905	wordpools/wasnorm_wordpool_576.txt	LTP093	ltpFR2	16	2	COUCH	386	n/a	n/a	0	0	0
766.45	n/a	REC_WORD	383225	wordpools/wasnorm_wordpool_576.txt	LTP093	ltpFR2	16	2	TAXI	1438	n/a	n/a	0	0	0
767.098	n/a	REC_WORD	383549	wordpools/wasnorm_wordpool_576.txt	LTP093	ltpFR2	16	2	CONVICT	371	n/a	n/a	0	0	0
775.842	n/a	REC_WORD	387921	wordpools/wasnorm_wordpool_576.txt	LTP093	ltpFR2	16	2	OFFICE	972	n/a	n/a	0	0	0
776.542	n/a	REC_WORD	388271	wordpools/wasnorm_wordpool_576.txt	LTP093	ltpFR2	16	2	STUDENT	1395	n/a	n/a	0	0	0
777.536	n/a	REC_WORD	388768	wordpools/wasnorm_wordpool_576.txt	LTP093	ltpFR2	16	2	KLEENEX	782	n/a	n/a	0	0	0
778.626	n/a	REC_WORD	389313	wordpools/wasnorm_wordpool_576.txt	LTP093	ltpFR2	16	2	NURSE	963	n/a	n/a	0	0	0
784.998	n/a	REC_WORD	392499	wordpools/wasnorm_wordpool_576.txt	LTP093	ltpFR2	16	2	WORLD	1622	n/a	n/a	0	0	0
852.566	n/a	DISTRACTOR	426283	n/a	LTP093	ltpFR2	16	3	n/a	n/a	n/a	n/a	0	0	0
852.566	n/a	START	426283	n/a	LTP093	ltpFR2	16	n/a	n/a	n/a	4	n/a	n/a	n/a	n/a
852.6	n/a	PROB	426300	n/a	LTP093	ltpFR2	16	n/a	n/a	n/a	4	26	8	9	9
854.512	n/a	PROB	427256	n/a	LTP093	ltpFR2	16	n/a	n/a	n/a	4	14	2	6	6
858.704	n/a	PROB	429352	n/a	LTP093	ltpFR2	16	n/a	n/a	n/a	4	23	6	8	9
861.568	n/a	PROB	430784	n/a	LTP093	ltpFR2	16	n/a	n/a	n/a	4	18	4	6	8
862.882	n/a	PROB	431441	n/a	LTP093	ltpFR2	16	n/a	n/a	n/a	4	18	4	7	7
864.746	n/a	PROB	432373	n/a	LTP093	ltpFR2	16	n/a	n/a	n/a	4	15	5	5	5
865.712	n/a	PROB	432856	n/a	LTP093	ltpFR2	16	n/a	n/a	n/a	4	10	1	3	6
867.292	n/a	PROB	433646	n/a	LTP093	ltpFR2	16	n/a	n/a	n/a	4	23	8	6	9
870.456	n/a	PROB	435228	n/a	LTP093	ltpFR2	16	n/a	n/a	n/a	4	20	5	8	7
873.234	n/a	PROB	436617	n/a	LTP093	ltpFR2	16	n/a	n/a	n/a	4	14	4	8	2
876.564	n/a	STOP	438282	n/a	LTP093	ltpFR2	16	n/a	n/a	n/a	4	n/a	n/a	n/a	n/a
877.676	n/a	WORD	438838	wordpools/wasnorm_wordpool_576.txt	LTP093	ltpFR2	16	3	VENUS	1557	n/a	n/a	0	0	0
880.49	n/a	WORD	440245	wordpools/wasnorm_wordpool_576.txt	LTP093	ltpFR2	16	3	SWIMMER	1420	n/a	n/a	0	0	0
882.952	n/a	WORD	441476	wordpools/wasnorm_wordpool_576.txt	LTP093	ltpFR2	16	3	FOREST	593	n/a	n/a	0	0	0
885.384	n/a	WORD	442692	wordpools/wasnorm_wordpool_576.txt	LTP093	ltpFR2	16	3	MAPLE	866	n/a	n/a	0	0	0
888.062	n/a	WORD	444031	wordpools/wasnorm_wordpool_576.txt	LTP093	ltpFR2	16	3	LEG	809	n/a	n/a	0	0	0
890.792	n/a	WORD	445396	wordpools/wasnorm_wordpool_576.txt	LTP093	ltpFR2	16	3	PARENT	1013	n/a	n/a	0	0	0
893.472	n/a	WORD	446736	wordpools/wasnorm_wordpool_576.txt	LTP093	ltpFR2	16	3	ACTRESS	6	n/a	n/a	0	0	0
896.15	n/a	WORD	448075	wordpools/wasnorm_wordpool_576.txt	LTP093	ltpFR2	16	3	WOMAN	1620	n/a	n/a	0	0	0
898.796	n/a	WORD	449398	wordpools/wasnorm_wordpool_576.txt	LTP093	ltpFR2	16	3	MOP	916	n/a	n/a	0	0	0
901.46	n/a	WORD	450730	wordpools/wasnorm_wordpool_576.txt	LTP093	ltpFR2	16	3	COURSE	390	n/a	n/a	0	0	0
904.154	n/a	WORD	452077	wordpools/wasnorm_wordpool_576.txt	LTP093	ltpFR2	16	3	COLLEGE	346	n/a	n/a	0	0	0
906.634	n/a	WORD	453317	wordpools/wasnorm_wordpool_576.txt	LTP093	ltpFR2	16	3	PATROL	1027	n/a	n/a	0	0	0
909.148	n/a	WORD	454574	wordpools/wasnorm_wordpool_576.txt	LTP093	ltpFR2	16	3	MONEY	908	n/a	n/a	0	0	0
911.926	n/a	WORD	455963	wordpools/wasnorm_wordpool_576.txt	LTP093	ltpFR2	16	3	VIKING	1565	n/a	n/a	0	0	0
914.49	n/a	WORD	457245	wordpools/wasnorm_wordpool_576.txt	LTP093	ltpFR2	16	3	PEDAL	1037	n/a	n/a	0	0	0
917.302	n/a	WORD	458651	wordpools/wasnorm_wordpool_576.txt	LTP093	ltpFR2	16	3	BIKE	125	n/a	n/a	0	0	0
920.082	n/a	WORD	460041	wordpools/wasnorm_wordpool_576.txt	LTP093	ltpFR2	16	3	KEEPER	769	n/a	n/a	0	0	0
922.71	n/a	WORD	461355	wordpools/wasnorm_wordpool_576.txt	LTP093	ltpFR2	16	3	TREAT	1501	n/a	n/a	0	0	0
925.374	n/a	WORD	462687	wordpools/wasnorm_wordpool_576.txt	LTP093	ltpFR2	16	3	FLUTE	585	n/a	n/a	0	0	0
928.136	n/a	WORD	464068	wordpools/wasnorm_wordpool_576.txt	LTP093	ltpFR2	16	3	GREASE	660	n/a	n/a	0	0	0
930.816	n/a	WORD	465408	wordpools/wasnorm_wordpool_576.txt	LTP093	ltpFR2	16	3	COSTUME	383	n/a	n/a	0	0	0
933.596	n/a	WORD	466798	wordpools/wasnorm_wordpool_576.txt	LTP093	ltpFR2	16	3	SHOULDER	1294	n/a	n/a	0	0	0
936.374	n/a	WORD	468187	wordpools/wasnorm_wordpool_576.txt	LTP093	ltpFR2	16	3	COUNTY	389	n/a	n/a	0	0	0
938.92	n/a	WORD	469460	wordpools/wasnorm_wordpool_576.txt	LTP093	ltpFR2	16	3	DUSTPAN	509	n/a	n/a	0	0	0
940.536	n/a	START	470268	n/a	LTP093	ltpFR2	16	n/a	n/a	n/a	5	n/a	n/a	n/a	n/a
941.35	n/a	DISTRACTOR	470675	n/a	LTP093	ltpFR2	16	3	n/a	n/a	n/a	n/a	0	0	0
941.368	n/a	PROB	470684	n/a	LTP093	ltpFR2	16	n/a	n/a	n/a	5	21	6	7	8
945.078	n/a	PROB	472539	n/a	LTP093	ltpFR2	16	n/a	n/a	n/a	5	14	5	2	7
946.676	n/a	PROB	473338	n/a	LTP093	ltpFR2	16	n/a	n/a	n/a	5	17	2	7	8
949.006	n/a	PROB	474503	n/a	LTP093	ltpFR2	16	n/a	n/a	n/a	5	21	9	8	4
951.286	n/a	PROB	475643	n/a	LTP093	ltpFR2	16	n/a	n/a	n/a	5	20	9	6	5
954.648	n/a	PROB	477324	n/a	LTP093	ltpFR2	16	n/a	n/a	n/a	5	19	6	8	5
957.594	n/a	PROB	478797	n/a	LTP093	ltpFR2	16	n/a	n/a	n/a	5	18	8	6	4
958.89	n/a	PROB	479445	n/a	LTP093	ltpFR2	16	n/a	n/a	n/a	5	19	9	3	7
960.506	n/a	PROB	480253	n/a	LTP093	ltpFR2	16	n/a	n/a	n/a	5	17	1	7	9
962.22	n/a	PROB	481110	n/a	LTP093	ltpFR2	16	n/a	n/a	n/a	5	26	8	9	9
964.25	n/a	STOP	482125	n/a	LTP093	ltpFR2	16	n/a	n/a	n/a	5	n/a	n/a	n/a	n/a
966.348	n/a	REC_START	483174	n/a	LTP093	ltpFR2	16	3	n/a	n/a	n/a	n/a	0	0	0
966.864	n/a	REC_WORD	483432	wordpools/wasnorm_wordpool_576.txt	LTP093	ltpFR2	16	3	SHOULDER	1294	n/a	n/a	0	0	0
967.656	n/a	REC_WORD	483828	wordpools/wasnorm_wordpool_576.txt	LTP093	ltpFR2	16	3	COUNTY	389	n/a	n/a	0	0	0
968.29	n/a	REC_WORD	484145	wordpools/wasnorm_wordpool_576.txt	LTP093	ltpFR2	16	3	DUSTPAN	509	n/a	n/a	0	0	0
969.582	n/a	REC_WORD	484791	wordpools/wasnorm_wordpool_576.txt	LTP093	ltpFR2	16	3	VENUS	1557	n/a	n/a	0	0	0
1057.012	n/a	DISTRACTOR	528506	n/a	LTP093	ltpFR2	16	4	n/a	n/a	n/a	n/a	0	0	0
1057.012	n/a	START	528506	n/a	LTP093	ltpFR2	16	n/a	n/a	n/a	6	n/a	n/a	n/a	n/a
1057.046	n/a	PROB	528523	n/a	LTP093	ltpFR2	16	n/a	n/a	n/a	6	12	2	3	7
1058.86	n/a	PROB	529430	n/a	LTP093	ltpFR2	16	n/a	n/a	n/a	6	13	1	4	8
1060.69	n/a	PROB	530345	n/a	LTP093	ltpFR2	16	n/a	n/a	n/a	6	18	9	8	1
1062.038	n/a	PROB	531019	n/a	LTP093	ltpFR2	16	n/a	n/a	n/a	6	8	4	3	1
1063.22	n/a	PROB	531610	n/a	LTP093	ltpFR2	16	n/a	n/a	n/a	6	24	8	7	9
1065.434	n/a	PROB	532717	n/a	LTP093	ltpFR2	16	n/a	n/a	n/a	6	14	2	6	6
1067.614	n/a	PROB	533807	n/a	LTP093	ltpFR2	16	n/a	n/a	n/a	6	7	2	3	2
1068.944	n/a	PROB	534472	n/a	LTP093	ltpFR2	16	n/a	n/a	n/a	6	13	7	5	1
1070.976	n/a	PROB	535488	n/a	LTP093	ltpFR2	16	n/a	n/a	n/a	6	12	3	7	2
1072.29	n/a	PROB	536145	n/a	LTP093	ltpFR2	16	n/a	n/a	n/a	6	15	1	6	8
1075.684	n/a	PROB	537842	n/a	LTP093	ltpFR2	16	n/a	n/a	n/a	6	13	5	2	6
1077.232	n/a	PROB	538616	n/a	LTP093	ltpFR2	16	n/a	n/a	n/a	6	10	1	4	5
1081.012	n/a	STOP	540506	n/a	LTP093	ltpFR2	16	n/a	n/a	n/a	6	n/a	n/a	n/a	n/a
1082.092	n/a	WORD	541046	wordpools/wasnorm_wordpool_576.txt	LTP093	ltpFR2	16	4	BLOUSE	139	n/a	n/a	0	0	0
1084.804	n/a	WORD	542402	wordpools/wasnorm_wordpool_576.txt	LTP093	ltpFR2	16	4	FRIEND	606	n/a	n/a	0	0	0
1087.386	n/a	WORD	543693	wordpools/wasnorm_wordpool_576.txt	LTP093	ltpFR2	16	4	JELLY	755	n/a	n/a	0	0	0
1089.948	n/a	WORD	544974	wordpools/wasnorm_wordpool_576.txt	LTP093	ltpFR2	16	4	LOFT	840	n/a	n/a	0	0	0
1092.51	n/a	WORD	546255	wordpools/wasnorm_wordpool_576.txt	LTP093	ltpFR2	16	4	STAR	1373	n/a	n/a	0	0	0
1095.088	n/a	WORD	547544	wordpools/wasnorm_wordpool_576.txt	LTP093	ltpFR2	16	4	PARTNER	1017	n/a	n/a	0	0	0
1097.902	n/a	WORD	548951	wordpools/wasnorm_wordpool_576.txt	LTP093	ltpFR2	16	4	BUBBLE	183	n/a	n/a	0	0	0
1100.416	n/a	WORD	550208	wordpools/wasnorm_wordpool_576.txt	LTP093	ltpFR2	16	4	BATHTUB	100	n/a	n/a	0	0	0
1102.96	n/a	WORD	551480	wordpools/wasnorm_wordpool_576.txt	LTP093	ltpFR2	16	4	GALLON	618	n/a	n/a	0	0	0
1105.59	n/a	WORD	552795	wordpools/wasnorm_wordpool_576.txt	LTP093	ltpFR2	16	4	MILK	895	n/a	n/a	0	0	0
1108.252	n/a	WORD	554126	wordpools/wasnorm_wordpool_576.txt	LTP093	ltpFR2	16	4	SPONGE	1355	n/a	n/a	0	0	0
1110.832	n/a	WORD	555416	wordpools/wasnorm_wordpool_576.txt	LTP093	ltpFR2	16	4	CLOTHES	327	n/a	n/a	0	0	0
1113.58	n/a	WORD	556790	wordpools/wasnorm_wordpool_576.txt	LTP093	ltpFR2	16	4	MILDEW	893	n/a	n/a	0	0	0
1116.024	n/a	WORD	558012	wordpools/wasnorm_wordpool_576.txt	LTP093	ltpFR2	16	4	SEAL	1262	n/a	n/a	0	0	0
1118.654	n/a	WORD	559327	wordpools/wasnorm_wordpool_576.txt	LTP093	ltpFR2	16	4	SWAMP	1416	n/a	n/a	0	0	0
1121.1	n/a	WORD	560550	wordpools/wasnorm_wordpool_576.txt	LTP093	ltpFR2	16	4	PRINCE	1124	n/a	n/a	0	0	0
1123.814	n/a	WORD	561907	wordpools/wasnorm_wordpool_576.txt	LTP093	ltpFR2	16	4	BUGGY	188	n/a	n/a	0	0	0
1126.292	n/a	WORD	563146	wordpools/wasnorm_wordpool_576.txt	LTP093	ltpFR2	16	4	ANTLER	29	n/a	n/a	0	0	0
1128.772	n/a	WORD	564386	wordpools/wasnorm_wordpool_576.txt	LTP093	ltpFR2	16	4	HELMET	702	n/a	n/a	0	0	0
1131.202	n/a	WORD	565601	wordpools/wasnorm_wordpool_576.txt	LTP093	ltpFR2	16	4	PREACHER	1119	n/a	n/a	0	0	0
1133.914	n/a	WORD	566957	wordpools/wasnorm_wordpool_576.txt	LTP093	ltpFR2	16	4	TRENCH	1503	n/a	n/a	0	0	0
1136.694	n/a	WORD	568347	wordpools/wasnorm_wordpool_576.txt	LTP093	ltpFR2	16	4	ZIPPER	1636	n/a	n/a	0	0	0
1139.392	n/a	WORD	569696	wordpools/wasnorm_wordpool_576.txt	LTP093	ltpFR2	16	4	QUEEN	1149	n/a	n/a	0	0	0
1141.986	n/a	WORD	570993	wordpools/wasnorm_wordpool_576.txt	LTP093	ltpFR2	16	4	FLAG	573	n/a	n/a	0	0	0
1143.6	n/a	START	571800	n/a	LTP093	ltpFR2	16	n/a	n/a	n/a	7	n/a	n/a	n/a	n/a
1144.58	n/a	DISTRACTOR	572290	n/a	LTP093	ltpFR2	16	4	n/a	n/a	n/a	n/a	0	0	0
1144.584	n/a	PROB	572292	n/a	LTP093	ltpFR2	16	n/a	n/a	n/a	7	16	2	9	5
1146.548	n/a	PROB	573274	n/a	LTP093	ltpFR2	16	n/a	n/a	n/a	7	18	8	6	4
1147.928	n/a	PROB	573964	n/a	LTP093	ltpFR2	16	n/a	n/a	n/a	7	10	6	1	3
1149.758	n/a	PROB	574879	n/a	LTP093	ltpFR2	16	n/a	n/a	n/a	7	17	8	3	6
1152.222	n/a	PROB	576111	n/a	LTP093	ltpFR2	16	n/a	n/a	n/a	7	7	1	3	3
1153.354	n/a	PROB	576677	n/a	LTP093	ltpFR2	16	n/a	n/a	n/a	7	15	7	4	4
1155.068	n/a	PROB	577534	n/a	LTP093	ltpFR2	16	n/a	n/a	n/a	7	14	4	8	2
1156.698	n/a	PROB	578349	n/a	LTP093	ltpFR2	16	n/a	n/a	n/a	7	21	6	8	7
1158.928	n/a	PROB	579464	n/a	LTP093	ltpFR2	16	n/a	n/a	n/a	7	15	1	5	9
1160.16	n/a	PROB	580080	n/a	LTP093	ltpFR2	16	n/a	n/a	n/a	7	19	3	9	7
1161.974	n/a	PROB	580987	n/a	LTP093	ltpFR2	16	n/a	n/a	n/a	7	23	9	5	9
1163.688	n/a	PROB	581844	n/a	LTP093	ltpFR2	16	n/a	n/a	n/a	7	11	5	1	5
1164.87	n/a	PROB	582435	n/a	LTP093	ltpFR2	16	n/a	n/a	n/a	7	8	4	3	1
1166.062	n/a	STOP	583031	n/a	LTP093	ltpFR2	16	n/a	n/a	n/a	7	n/a	n/a	n/a	n/a
1169.514	n/a	REC_START	584757	n/a	LTP093	ltpFR2	16	4	n/a	n/a	n/a	n/a	0	0	0
1169.988	n/a	REC_WORD	584994	wordpools/wasnorm_wordpool_576.txt	LTP093	ltpFR2	16	4	ZIPPER	1636	n/a	n/a	0	0	0
1170.772	n/a	REC_WORD	585386	wordpools/wasnorm_wordpool_576.txt	LTP093	ltpFR2	16	4	QUEEN	1149	n/a	n/a	0	0	0
1171.46	n/a	REC_WORD	585730	wordpools/wasnorm_wordpool_576.txt	LTP093	ltpFR2	16	4	FLAG	573	n/a	n/a	0	0	0
1173.834	n/a	REC_WORD	586917	wordpools/wasnorm_wordpool_576.txt	LTP093	ltpFR2	16	4	ANTLER	29	n/a	n/a	0	0	0
1260.112	n/a	DISTRACTOR	630056	n/a	LTP093	ltpFR2	16	5	n/a	n/a	n/a	n/a	0	0	0
1260.112	n/a	START	630056	n/a	LTP093	ltpFR2	16	n/a	n/a	n/a	8	n/a	n/a	n/a	n/a
1260.144	n/a	PROB	630072	n/a	LTP093	ltpFR2	16	n/a	n/a	n/a	8	8	4	1	3
1261.892	n/a	PROB	630946	n/a	LTP093	ltpFR2	16	n/a	n/a	n/a	8	12	3	4	5
1263.89	n/a	PROB	631945	n/a	LTP093	ltpFR2	16	n/a	n/a	n/a	8	18	8	9	1
1264.988	n/a	PROB	632494	n/a	LTP093	ltpFR2	16	n/a	n/a	n/a	8	20	5	6	9
1267.118	n/a	PROB	633559	n/a	LTP093	ltpFR2	16	n/a	n/a	n/a	8	10	1	3	6
1268.65	n/a	PROB	634325	n/a	LTP093	ltpFR2	16	n/a	n/a	n/a	8	15	1	7	7
1270.096	n/a	PROB	635048	n/a	LTP093	ltpFR2	16	n/a	n/a	n/a	8	11	2	5	4
1274.69	n/a	PROB	637345	n/a	LTP093	ltpFR2	16	n/a	n/a	n/a	8	6	3	2	1
1276.054	n/a	PROB	638027	n/a	LTP093	ltpFR2	16	n/a	n/a	n/a	8	14	3	4	7
1278.234	n/a	PROB	639117	n/a	LTP093	ltpFR2	16	n/a	n/a	n/a	8	11	7	3	1
1279.832	n/a	PROB	639916	n/a	LTP093	ltpFR2	16	n/a	n/a	n/a	8	14	9	4	1
1281.28	n/a	PROB	640640	n/a	LTP093	ltpFR2	16	n/a	n/a	n/a	8	17	2	8	7
1282.95	n/a	STOP	641475	n/a	LTP093	ltpFR2	16	n/a	n/a	n/a	8	n/a	n/a	n/a	n/a
1284.958	n/a	WORD	642479	wordpools/wasnorm_wordpool_576.txt	LTP093	ltpFR2	16	5	PASSAGE	1019	n/a	n/a	0	0	0
1287.44	n/a	WORD	643720	wordpools/wasnorm_wordpool_576.txt	LTP093	ltpFR2	16	5	NOVEL	960	n/a	n/a	0	0	0
1290.25	n/a	WORD	645125	wordpools/wasnorm_wordpool_576.txt	LTP093	ltpFR2	16	5	COOK	372	n/a	n/a	0	0	0
1292.864	n/a	WORD	646432	wordpools/wasnorm_wordpool_576.txt	LTP093	ltpFR2	16	5	LIZARD	834	n/a	n/a	0	0	0
1295.394	n/a	WORD	647697	wordpools/wasnorm_wordpool_576.txt	LTP093	ltpFR2	16	5	SODA	1341	n/a	n/a	0	0	0
1298.172	n/a	WORD	649086	wordpools/wasnorm_wordpool_576.txt	LTP093	ltpFR2	16	5	BARLEY	88	n/a	n/a	0	0	0
1300.736	n/a	WORD	650368	wordpools/wasnorm_wordpool_576.txt	LTP093	ltpFR2	16	5	BEAVER	109	n/a	n/a	0	0	0
1303.448	n/a	WORD	651724	wordpools/wasnorm_wordpool_576.txt	LTP093	ltpFR2	16	5	CRICKET	408	n/a	n/a	0	0	0
1306.044	n/a	WORD	653022	wordpools/wasnorm_wordpool_576.txt	LTP093	ltpFR2	16	5	BRANDY	169	n/a	n/a	0	0	0
1308.606	n/a	WORD	654303	wordpools/wasnorm_wordpool_576.txt	LTP093	ltpFR2	16	5	MONSTER	912	n/a	n/a	0	0	0
1311.22	n/a	WORD	655610	wordpools/wasnorm_wordpool_576.txt	LTP093	ltpFR2	16	5	PRIMATE	1123	n/a	n/a	0	0	0
1313.782	n/a	WORD	656891	wordpools/wasnorm_wordpool_576.txt	LTP093	ltpFR2	16	5	SNAKE	1333	n/a	n/a	0	0	0
1316.212	n/a	WORD	658106	wordpools/wasnorm_wordpool_576.txt	LTP093	ltpFR2	16	5	BARREL	91	n/a	n/a	0	0	0
1318.708	n/a	WORD	659354	wordpools/wasnorm_wordpool_576.txt	LTP093	ltpFR2	16	5	LASER	801	n/a	n/a	0	0	0
1321.456	n/a	WORD	660728	wordpools/wasnorm_wordpool_576.txt	LTP093	ltpFR2	16	5	FLIPPER	580	n/a	n/a	0	0	0
1324.184	n/a	WORD	662092	wordpools/wasnorm_wordpool_576.txt	LTP093	ltpFR2	16	5	DOLPHIN	483	n/a	n/a	0	0	0
1326.914	n/a	WORD	663457	wordpools/wasnorm_wordpool_576.txt	LTP093	ltpFR2	16	5	VIRUS	1572	n/a	n/a	0	0	0
1329.378	n/a	WORD	664689	wordpools/wasnorm_wordpool_576.txt	LTP093	ltpFR2	16	5	PANTHER	1009	n/a	n/a	0	0	0
1332.022	n/a	WORD	666011	wordpools/wasnorm_wordpool_576.txt	LTP093	ltpFR2	16	5	CUPBOARD	425	n/a	n/a	0	0	0
1334.618	n/a	WORD	667309	wordpools/wasnorm_wordpool_576.txt	LTP093	ltpFR2	16	5	CAPTIVE	240	n/a	n/a	0	0	0
1337.298	n/a	WORD	668649	wordpools/wasnorm_wordpool_576.txt	LTP093	ltpFR2	16	5	DOUGHNUT	490	n/a	n/a	0	0	0
1340.044	n/a	WORD	670022	wordpools/wasnorm_wordpool_576.txt	LTP093	ltpFR2	16	5	SEAFOOD	1260	n/a	n/a	0	0	0
1342.54	n/a	WORD	671270	wordpools/wasnorm_wordpool_576.txt	LTP093	ltpFR2	16	5	NOTEBOOK	959	n/a	n/a	0	0	0
1345.036	n/a	WORD	672518	wordpools/wasnorm_wordpool_576.txt	LTP093	ltpFR2	16	5	FEMALE	559	n/a	n/a	0	0	0
1346.65	n/a	START	673325	n/a	LTP093	ltpFR2	16	n/a	n/a	n/a	9	n/a	n/a	n/a	n/a
1347.652	n/a	DISTRACTOR	673826	n/a	LTP093	ltpFR2	16	5	n/a	n/a	n/a	n/a	0	0	0
1347.666	n/a	PROB	673833	n/a	LTP093	ltpFR2	16	n/a	n/a	n/a	9	18	6	9	3
1350.562	n/a	PROB	675281	n/a	LTP093	ltpFR2	16	n/a	n/a	n/a	9	11	2	4	5
1352.126	n/a	PROB	676063	n/a	LTP093	ltpFR2	16	n/a	n/a	n/a	9	17	8	5	4
1353.756	n/a	PROB	676878	n/a	LTP093	ltpFR2	16	n/a	n/a	n/a	9	14	2	4	8
1355.154	n/a	PROB	677577	n/a	LTP093	ltpFR2	16	n/a	n/a	n/a	9	14	4	2	8
1356.652	n/a	PROB	678326	n/a	LTP093	ltpFR2	16	n/a	n/a	n/a	9	20	7	8	5
1358.584	n/a	PROB	679292	n/a	LTP093	ltpFR2	16	n/a	n/a	n/a	9	9	2	4	3
1361.228	n/a	PROB	680614	n/a	LTP093	ltpFR2	16	n/a	n/a	n/a	9	11	2	4	5
1363.808	n/a	PROB	681904	n/a	LTP093	ltpFR2	16	n/a	n/a	n/a	9	9	3	1	5
1365.756	n/a	PROB	682878	n/a	LTP093	ltpFR2	16	n/a	n/a	n/a	9	16	1	8	7
1369.504	n/a	STOP	684752	n/a	LTP093	ltpFR2	16	n/a	n/a	n/a	9	n/a	n/a	n/a	n/a
1372.496	n/a	REC_START	686248	n/a	LTP093	ltpFR2	16	5	n/a	n/a	n/a	n/a	0	0	0
1373.166	n/a	REC_WORD	686583	wordpools/wasnorm_wordpool_576.txt	LTP093	ltpFR2	16	5	PANTHER	1009	n/a	n/a	0	0	0
1373.684	n/a	REC_WORD	686842	wordpools/wasnorm_wordpool_576.txt	LTP093	ltpFR2	16	5	VIRUS	1572	n/a	n/a	0	0	0
1374.356	n/a	REC_WORD	687178	wordpools/wasnorm_wordpool_576.txt	LTP093	ltpFR2	16	5	CUPBOARD	425	n/a	n/a	0	0	0
1376.126	n/a	REC_WORD	688063	wordpools/wasnorm_wordpool_576.txt	LTP093	ltpFR2	16	5	PRIMATE	1123	n/a	n/a	0	0	0
1376.698	n/a	REC_WORD	688349	wordpools/wasnorm_wordpool_576.txt	LTP093	ltpFR2	16	5	SNAKE	1333	n/a	n/a	0	0	0
1377.536	n/a	REC_WORD	688768	wordpools/wasnorm_wordpool_576.txt	LTP093	ltpFR2	16	5	BARREL	91	n/a	n/a	0	0	0
1378.144	n/a	REC_WORD	689072	wordpools/wasnorm_wordpool_576.txt	LTP093	ltpFR2	16	5	FLIPPER	580	n/a	n/a	0	0	0
1378.782	n/a	REC_WORD	689391	wordpools/wasnorm_wordpool_576.txt	LTP093	ltpFR2	16	5	LASER	801	n/a	n/a	0	0	0
1379.378	n/a	REC_WORD	689689	wordpools/wasnorm_wordpool_576.txt	LTP093	ltpFR2	16	5	DOLPHIN	483	n/a	n/a	0	0	0
1575.994	n/a	DISTRACTOR	787997	n/a	LTP093	ltpFR2	16	6	n/a	n/a	n/a	n/a	0	0	0
1575.994	n/a	START	787997	n/a	LTP093	ltpFR2	16	n/a	n/a	n/a	10	n/a	n/a	n/a	n/a
1576.028	n/a	PROB	788014	n/a	LTP093	ltpFR2	16	n/a	n/a	n/a	10	20	9	4	7
1578.074	n/a	PROB	789037	n/a	LTP093	ltpFR2	16	n/a	n/a	n/a	10	9	2	4	3
1580.254	n/a	PROB	790127	n/a	LTP093	ltpFR2	16	n/a	n/a	n/a	10	12	7	4	1
1581.586	n/a	PROB	790793	n/a	LTP093	ltpFR2	16	n/a	n/a	n/a	10	21	7	6	8
1583.632	n/a	PROB	791816	n/a	LTP093	ltpFR2	16	n/a	n/a	n/a	10	8	2	2	4
1584.98	n/a	PROB	792490	n/a	LTP093	ltpFR2	16	n/a	n/a	n/a	10	12	3	7	2
1586.464	n/a	PROB	793232	n/a	LTP093	ltpFR2	16	n/a	n/a	n/a	10	9	2	6	1
1588.708	n/a	PROB	794354	n/a	LTP093	ltpFR2	16	n/a	n/a	n/a	10	16	1	7	8
1590.374	n/a	PROB	795187	n/a	LTP093	ltpFR2	16	n/a	n/a	n/a	10	11	2	2	7
1591.97	n/a	PROB	795985	n/a	LTP093	ltpFR2	16	n/a	n/a	n/a	10	12	2	3	7
1593.618	n/a	PROB	796809	n/a	LTP093	ltpFR2	16	n/a	n/a	n/a	10	10	2	2	6
1595.082	n/a	PROB	797541	n/a	LTP093	ltpFR2	16	n/a	n/a	n/a	10	14	2	6	6
1596.98	n/a	PROB	798490	n/a	LTP093	ltpFR2	16	n/a	n/a	n/a	10	18	4	5	9
1598.658	n/a	STOP	799329	n/a	LTP093	ltpFR2	16	n/a	n/a	n/a	10	n/a	n/a	n/a	n/a
1600.858	n/a	WORD	800429	wordpools/wasnorm_wordpool_576.txt	LTP093	ltpFR2	16	6	LABEL	790	n/a	n/a	0	0	0
1603.438	n/a	WORD	801719	wordpools/wasnorm_wordpool_576.txt	LTP093	ltpFR2	16	6	SCRIBBLE	1256	n/a	n/a	0	0	0
1606.15	n/a	WORD	803075	wordpools/wasnorm_wordpool_576.txt	LTP093	ltpFR2	16	6	CLAMP	316	n/a	n/a	0	0	0
1608.646	n/a	WORD	804323	wordpools/wasnorm_wordpool_576.txt	LTP093	ltpFR2	16	6	RECORD	1176	n/a	n/a	0	0	0
1611.226	n/a	WORD	805613	wordpools/wasnorm_wordpool_576.txt	LTP093	ltpFR2	16	6	KETCHUP	771	n/a	n/a	0	0	0
1613.806	n/a	WORD	806903	wordpools/wasnorm_wordpool_576.txt	LTP093	ltpFR2	16	6	HIGHWAY	707	n/a	n/a	0	0	0
1616.568	n/a	WORD	808284	wordpools/wasnorm_wordpool_576.txt	LTP093	ltpFR2	16	6	GRAVEL	659	n/a	n/a	0	0	0
1619.264	n/a	WORD	809632	wordpools/wasnorm_wordpool_576.txt	LTP093	ltpFR2	16	6	TUBA	1515	n/a	n/a	0	0	0
1621.994	n/a	WORD	810997	wordpools/wasnorm_wordpool_576.txt	LTP093	ltpFR2	16	6	YACHT	1629	n/a	n/a	0	0	0
1624.474	n/a	WORD	812237	wordpools/wasnorm_wordpool_576.txt	LTP093	ltpFR2	16	6	TYPIST	1532	n/a	n/a	0	0	0
1627.152	n/a	WORD	813576	wordpools/wasnorm_wordpool_576.txt	LTP093	ltpFR2	16	6	JUDGE	761	n/a	n/a	0	0	0
1629.582	n/a	WORD	814791	wordpools/wasnorm_wordpool_576.txt	LTP093	ltpFR2	16	6	CONTRACT	368	n/a	n/a	0	0	0
1632.278	n/a	WORD	816139	wordpools/wasnorm_wordpool_576.txt	LTP093	ltpFR2	16	6	LEADER	807	n/a	n/a	0	0	0
1634.908	n/a	WORD	817454	wordpools/wasnorm_wordpool_576.txt	LTP093	ltpFR2	16	6	ANKLE	24	n/a	n/a	0	0	0
1637.572	n/a	WORD	818786	wordpools/wasnorm_wordpool_576.txt	LTP093	ltpFR2	16	6	FOOT	590	n/a	n/a	0	0	0
1640.034	n/a	WORD	820017	wordpools/wasnorm_wordpool_576.txt	LTP093	ltpFR2	16	6	COIN	343	n/a	n/a	0	0	0
1642.83	n/a	WORD	821415	wordpools/wasnorm_wordpool_576.txt	LTP093	ltpFR2	16	6	UNCLE	1536	n/a	n/a	0	0	0
1645.376	n/a	WORD	822688	wordpools/wasnorm_wordpool_576.txt	LTP093	ltpFR2	16	6	HUMAN	726	n/a	n/a	0	0	0
1647.938	n/a	WORD	823969	wordpools/wasnorm_wordpool_576.txt	LTP093	ltpFR2	16	6	BOARD	143	n/a	n/a	0	0	0
1650.518	n/a	WORD	825259	wordpools/wasnorm_wordpool_576.txt	LTP093	ltpFR2	16	6	MESSAGE	888	n/a	n/a	0	0	0
1653.214	n/a	WORD	826607	wordpools/wasnorm_wordpool_576.txt	LTP093	ltpFR2	16	6	PECAN	1036	n/a	n/a	0	0	0
1655.944	n/a	WORD	827972	wordpools/wasnorm_wordpool_576.txt	LTP093	ltpFR2	16	6	FINGER	567	n/a	n/a	0	0	0
1658.54	n/a	WORD	829270	wordpools/wasnorm_wordpool_576.txt	LTP093	ltpFR2	16	6	COFFEE	341	n/a	n/a	0	0	0
1661.252	n/a	WORD	830626	wordpools/wasnorm_wordpool_576.txt	LTP093	ltpFR2	16	6	PADDLE	1000	n/a	n/a	0	0	0
1662.866	n/a	START	831433	n/a	LTP093	ltpFR2	16	n/a	n/a	n/a	11	n/a	n/a	n/a	n/a
1664.032	n/a	DISTRACTOR	832016	n/a	LTP093	ltpFR2	16	6	n/a	n/a	n/a	n/a	0	0	0
1664.048	n/a	PROB	832024	n/a	LTP093	ltpFR2	16	n/a	n/a	n/a	11	13	2	8	3
1665.996	n/a	PROB	832998	n/a	LTP093	ltpFR2	16	n/a	n/a	n/a	11	6	1	3	2
1667.11	n/a	PROB	833555	n/a	LTP093	ltpFR2	16	n/a	n/a	n/a	11	19	6	6	7
1668.658	n/a	PROB	834329	n/a	LTP093	ltpFR2	16	n/a	n/a	n/a	11	12	2	2	8
1670.056	n/a	PROB	835028	n/a	LTP093	ltpFR2	16	n/a	n/a	n/a	11	13	4	3	6
1672.984	n/a	PROB	836492	n/a	LTP093	ltpFR2	16	n/a	n/a	n/a	11	9	7	1	1
1674.616	n/a	PROB	837308	n/a	LTP093	ltpFR2	16	n/a	n/a	n/a	11	7	3	1	3
1675.914	n/a	PROB	837957	n/a	LTP093	ltpFR2	16	n/a	n/a	n/a	11	7	2	3	2
1677.53	n/a	PROB	838765	n/a	LTP093	ltpFR2	16	n/a	n/a	n/a	11	21	9	4	8
1680.458	n/a	PROB	840229	n/a	LTP093	ltpFR2	16	n/a	n/a	n/a	11	12	6	3	3
1681.688	n/a	PROB	840844	n/a	LTP093	ltpFR2	16	n/a	n/a	n/a	11	18	2	9	7
1683.852	n/a	PROB	841926	n/a	LTP093	ltpFR2	16	n/a	n/a	n/a	11	18	2	8	8
1686.866	n/a	STOP	843433	n/a	LTP093	ltpFR2	16	n/a	n/a	n/a	11	n/a	n/a	n/a	n/a
1688.762	n/a	REC_START	844381	n/a	LTP093	ltpFR2	16	6	n/a	n/a	n/a	n/a	0	0	0
1689.21	n/a	REC_WORD	844605	wordpools/wasnorm_wordpool_576.txt	LTP093	ltpFR2	16	6	COFFEE	341	n/a	n/a	0	0	0
1689.81	n/a	REC_WORD	844905	wordpools/wasnorm_wordpool_576.txt	LTP093	ltpFR2	16	6	PADDLE	1000	n/a	n/a	0	0	0
1699.722	n/a	REC_WORD	849861	wordpools/wasnorm_wordpool_576.txt	LTP093	ltpFR2	16	6	PECAN	1036	n/a	n/a	0	0	0
1779.362	n/a	DISTRACTOR	889681	n/a	LTP093	ltpFR2	16	7	n/a	n/a	n/a	n/a	0	0	0
1779.362	n/a	START	889681	n/a	LTP093	ltpFR2	16	n/a	n/a	n/a	12	n/a	n/a	n/a	n/a
1779.396	n/a	PROB	889698	n/a	LTP093	ltpFR2	16	n/a	n/a	n/a	12	21	8	9	4
1781.99	n/a	PROB	890995	n/a	LTP093	ltpFR2	16	n/a	n/a	n/a	12	7	1	1	5
1783.106	n/a	PROB	891553	n/a	LTP093	ltpFR2	16	n/a	n/a	n/a	12	16	9	6	1
1784.736	n/a	PROB	892368	n/a	LTP093	ltpFR2	16	n/a	n/a	n/a	12	18	4	8	6
1786.084	n/a	PROB	893042	n/a	LTP093	ltpFR2	16	n/a	n/a	n/a	12	8	4	3	1
1787.316	n/a	PROB	893658	n/a	LTP093	ltpFR2	16	n/a	n/a	n/a	12	20	8	6	6
1788.846	n/a	PROB	894423	n/a	LTP093	ltpFR2	16	n/a	n/a	n/a	12	21	9	9	3
1790.362	n/a	PROB	895181	n/a	LTP093	ltpFR2	16	n/a	n/a	n/a	12	12	6	2	4
1791.776	n/a	PROB	895888	n/a	LTP093	ltpFR2	16	n/a	n/a	n/a	12	6	1	3	2
1792.824	n/a	PROB	896412	n/a	LTP093	ltpFR2	16	n/a	n/a	n/a	12	1	4	8	1
1794.622	n/a	PROB	897311	n/a	LTP093	ltpFR2	16	n/a	n/a	n/a	12	18	5	9	4
1797.068	n/a	PROB	898534	n/a	LTP093	ltpFR2	16	n/a	n/a	n/a	12	15	1	6	8
1799.282	n/a	PROB	899641	n/a	LTP093	ltpFR2	16	n/a	n/a	n/a	12	21	8	4	9
1801.096	n/a	PROB	900548	n/a	LTP093	ltpFR2	16	n/a	n/a	n/a	12	15	3	5	7
1803.022	n/a	STOP	901511	n/a	LTP093	ltpFR2	16	n/a	n/a	n/a	12	n/a	n/a	n/a	n/a
1804.24	n/a	WORD	902120	wordpools/wasnorm_wordpool_576.txt	LTP093	ltpFR2	16	7	VELVET	1555	n/a	n/a	0	0	0
1806.87	n/a	WORD	903435	wordpools/wasnorm_wordpool_576.txt	LTP093	ltpFR2	16	7	LETTUCE	814	n/a	n/a	0	0	0
1809.55	n/a	WORD	904775	wordpools/wasnorm_wordpool_576.txt	LTP093	ltpFR2	16	7	SLIME	1327	n/a	n/a	0	0	0
1812.144	n/a	WORD	906072	wordpools/wasnorm_wordpool_576.txt	LTP093	ltpFR2	16	7	CATCHER	258	n/a	n/a	0	0	0
1814.958	n/a	WORD	907479	wordpools/wasnorm_wordpool_576.txt	LTP093	ltpFR2	16	7	TEMPLE	1448	n/a	n/a	0	0	0
1817.388	n/a	WORD	908694	wordpools/wasnorm_wordpool_576.txt	LTP093	ltpFR2	16	7	IDOL	733	n/a	n/a	0	0	0
1820.134	n/a	WORD	910067	wordpools/wasnorm_wordpool_576.txt	LTP093	ltpFR2	16	7	DENTIST	447	n/a	n/a	0	0	0
1822.68	n/a	WORD	911340	wordpools/wasnorm_wordpool_576.txt	LTP093	ltpFR2	16	7	ROBOT	1200	n/a	n/a	0	0	0
1825.426	n/a	WORD	912713	wordpools/wasnorm_wordpool_576.txt	LTP093	ltpFR2	16	7	EMPIRE	530	n/a	n/a	0	0	0
1828.222	n/a	WORD	914111	wordpools/wasnorm_wordpool_576.txt	LTP093	ltpFR2	16	7	NAPKIN	937	n/a	n/a	0	0	0
1830.95	n/a	WORD	915475	wordpools/wasnorm_wordpool_576.txt	LTP093	ltpFR2	16	7	BRACES	164	n/a	n/a	0	0	0
1833.382	n/a	WORD	916691	wordpools/wasnorm_wordpool_576.txt	LTP093	ltpFR2	16	7	PUDDING	1139	n/a	n/a	0	0	0
1836.092	n/a	WORD	918046	wordpools/wasnorm_wordpool_576.txt	LTP093	ltpFR2	16	7	BACON	67	n/a	n/a	0	0	0
1838.872	n/a	WORD	919436	wordpools/wasnorm_wordpool_576.txt	LTP093	ltpFR2	16	7	MARKER	870	n/a	n/a	0	0	0
1841.668	n/a	WORD	920834	wordpools/wasnorm_wordpool_576.txt	LTP093	ltpFR2	16	7	CRAYON	401	n/a	n/a	0	0	0
1844.466	n/a	WORD	922233	wordpools/wasnorm_wordpool_576.txt	LTP093	ltpFR2	16	7	SALT	1229	n/a	n/a	0	0	0
1847.176	n/a	WORD	923588	wordpools/wasnorm_wordpool_576.txt	LTP093	ltpFR2	16	7	BODY	145	n/a	n/a	0	0	0
1849.656	n/a	WORD	924828	wordpools/wasnorm_wordpool_576.txt	LTP093	ltpFR2	16	7	PUPPY	1144	n/a	n/a	0	0	0
1852.202	n/a	WORD	926101	wordpools/wasnorm_wordpool_576.txt	LTP093	ltpFR2	16	7	FOREHEAD	592	n/a	n/a	0	0	0
1854.816	n/a	WORD	927408	wordpools/wasnorm_wordpool_576.txt	LTP093	ltpFR2	16	7	CREVICE	405	n/a	n/a	0	0	0
1857.262	n/a	WORD	928631	wordpools/wasnorm_wordpool_576.txt	LTP093	ltpFR2	16	7	PIGMENT	1066	n/a	n/a	0	0	0
1859.858	n/a	WORD	929929	wordpools/wasnorm_wordpool_576.txt	LTP093	ltpFR2	16	7	BELLY	119	n/a	n/a	0	0	0
1862.488	n/a	WORD	931244	wordpools/wasnorm_wordpool_576.txt	LTP093	ltpFR2	16	7	HOOK	715	n/a	n/a	0	0	0
1865.266	n/a	WORD	932633	wordpools/wasnorm_wordpool_576.txt	LTP093	ltpFR2	16	7	PALACE	1006	n/a	n/a	0	0	0
1866.882	n/a	START	933441	n/a	LTP093	ltpFR2	16	n/a	n/a	n/a	13	n/a	n/a	n/a	n/a
1867.8	n/a	DISTRACTOR	933900	n/a	LTP093	ltpFR2	16	7	n/a	n/a	n/a	n/a	0	0	0
1867.814	n/a	PROB	933907	n/a	LTP093	ltpFR2	16	n/a	n/a	n/a	13	13	9	1	3
1870.36	n/a	PROB	935180	n/a	LTP093	ltpFR2	16	n/a	n/a	n/a	13	19	5	8	6
1872.09	n/a	PROB	936045	n/a	LTP093	ltpFR2	16	n/a	n/a	n/a	13	25	8	9	8
1875.086	n/a	PROB	937543	n/a	LTP093	ltpFR2	16	n/a	n/a	n/a	13	20	4	9	7
1877.0	n/a	PROB	938500	n/a	LTP093	ltpFR2	16	n/a	n/a	n/a	13	14	4	4	6
1878.498	n/a	PROB	939249	n/a	LTP093	ltpFR2	16	n/a	n/a	n/a	13	16	5	2	9
1880.312	n/a	PROB	940156	n/a	LTP093	ltpFR2	16	n/a	n/a	n/a	13	20	4	8	8
1881.908	n/a	PROB	940954	n/a	LTP093	ltpFR2	16	n/a	n/a	n/a	13	12	7	3	2
1883.108	n/a	PROB	941554	n/a	LTP093	ltpFR2	16	n/a	n/a	n/a	13	19	8	9	2
1885.554	n/a	PROB	942777	n/a	LTP093	ltpFR2	16	n/a	n/a	n/a	13	7	4	1	2
1886.868	n/a	PROB	943434	n/a	LTP093	ltpFR2	16	n/a	n/a	n/a	13	13	5	1	7
1890.88	n/a	STOP	945440	n/a	LTP093	ltpFR2	16	n/a	n/a	n/a	13	n/a	n/a	n/a	n/a
1892.71	n/a	REC_START	946355	n/a	LTP093	ltpFR2	16	7	n/a	n/a	n/a	n/a	0	0	0
1893.434	n/a	REC_WORD	946717	wordpools/wasnorm_wordpool_576.txt	LTP093	ltpFR2	16	7	CREVICE	405	n/a	n/a	0	0	0
1894.1	n/a	REC_WORD	947050	wordpools/wasnorm_wordpool_576.txt	LTP093	ltpFR2	16	7	PIGMENT	1066	n/a	n/a	0	0	0
1894.706	n/a	REC_WORD	947353	wordpools/wasnorm_wordpool_576.txt	LTP093	ltpFR2	16	7	BELLY	119	n/a	n/a	0	0	0
1895.184	n/a	REC_WORD	947592	wordpools/wasnorm_wordpool_576.txt	LTP093	ltpFR2	16	7	HOOK	715	n/a	n/a	0	0	0
1895.688	n/a	REC_WORD	947844	wordpools/wasnorm_wordpool_576.txt	LTP093	ltpFR2	16	7	PALACE	1006	n/a	n/a	0	0	0
1904.308	n/a	REC_WORD	952154	wordpools/wasnorm_wordpool_576.txt	LTP093	ltpFR2	16	7	VELVET	1555	n/a	n/a	0	0	0
1905.142	n/a	REC_WORD	952571	wordpools/wasnorm_wordpool_576.txt	LTP093	ltpFR2	16	7	SLIME	1327	n/a	n/a	0	0	0
1998.636	n/a	DISTRACTOR	999318	n/a	LTP093	ltpFR2	16	8	n/a	n/a	n/a	n/a	0	0	0
1998.636	n/a	START	999318	n/a	LTP093	ltpFR2	16	n/a	n/a	n/a	14	n/a	n/a	n/a	n/a
1998.67	n/a	PROB	999335	n/a	LTP093	ltpFR2	16	n/a	n/a	n/a	14	14	9	2	3
2000.568	n/a	PROB	1000284	n/a	LTP093	ltpFR2	16	n/a	n/a	n/a	14	20	6	7	7
2002.316	n/a	PROB	1001158	n/a	LTP093	ltpFR2	16	n/a	n/a	n/a	14	8	3	4	1
2003.414	n/a	PROB	1001707	n/a	LTP093	ltpFR2	16	n/a	n/a	n/a	14	13	1	8	4
2006.208	n/a	PROB	1003104	n/a	LTP093	ltpFR2	16	n/a	n/a	n/a	14	12	7	1	4
2007.656	n/a	PROB	1003828	n/a	LTP093	ltpFR2	16	n/a	n/a	n/a	14	15	6	7	2
2009.354	n/a	PROB	1004677	n/a	LTP093	ltpFR2	16	n/a	n/a	n/a	14	9	4	2	3
2011.584	n/a	PROB	1005792	n/a	LTP093	ltpFR2	16	n/a	n/a	n/a	14	16	9	6	1
2013.68	n/a	PROB	1006840	n/a	LTP093	ltpFR2	16	n/a	n/a	n/a	14	12	2	2	8
2014.962	n/a	PROB	1007481	n/a	LTP093	ltpFR2	16	n/a	n/a	n/a	14	14	2	7	5
2017.176	n/a	PROB	1008588	n/a	LTP093	ltpFR2	16	n/a	n/a	n/a	14	16	3	4	9
2019.272	n/a	PROB	1009636	n/a	LTP093	ltpFR2	16	n/a	n/a	n/a	14	12	9	1	2
2020.654	n/a	PROB	1010327	n/a	LTP093	ltpFR2	16	n/a	n/a	n/a	14	18	7	7	4
2022.218	n/a	STOP	1011109	n/a	LTP093	ltpFR2	16	n/a	n/a	n/a	14	n/a	n/a	n/a	n/a
2023.716	n/a	WORD	1011858	wordpools/wasnorm_wordpool_576.txt	LTP093	ltpFR2	16	8	SHARK	1275	n/a	n/a	0	0	0
2026.496	n/a	WORD	1013248	wordpools/wasnorm_wordpool_576.txt	LTP093	ltpFR2	16	8	CRAB	397	n/a	n/a	0	0	0
2029.292	n/a	WORD	1014646	wordpools/wasnorm_wordpool_576.txt	LTP093	ltpFR2	16	8	ROD	1203	n/a	n/a	0	0	0
2031.754	n/a	WORD	1015877	wordpools/wasnorm_wordpool_576.txt	LTP093	ltpFR2	16	8	TOMBSTONE	1478	n/a	n/a	0	0	0
2034.368	n/a	WORD	1017184	wordpools/wasnorm_wordpool_576.txt	LTP093	ltpFR2	16	8	QUAIL	1147	n/a	n/a	0	0	0
2037.164	n/a	WORD	1018582	wordpools/wasnorm_wordpool_576.txt	LTP093	ltpFR2	16	8	DRINK	498	n/a	n/a	0	0	0
2039.976	n/a	WORD	1019988	wordpools/wasnorm_wordpool_576.txt	LTP093	ltpFR2	16	8	SIDEWALK	1303	n/a	n/a	0	0	0
2042.44	n/a	WORD	1021220	wordpools/wasnorm_wordpool_576.txt	LTP093	ltpFR2	16	8	POLICE	1098	n/a	n/a	0	0	0
2045.202	n/a	WORD	1022601	wordpools/wasnorm_wordpool_576.txt	LTP093	ltpFR2	16	8	NIGHTGOWN	953	n/a	n/a	0	0	0
2047.864	n/a	WORD	1023932	wordpools/wasnorm_wordpool_576.txt	LTP093	ltpFR2	16	8	CABIN	211	n/a	n/a	0	0	0
2050.51	n/a	WORD	1025255	wordpools/wasnorm_wordpool_576.txt	LTP093	ltpFR2	16	8	SUNSET	1408	n/a	n/a	0	0	0
2053.238	n/a	WORD	1026619	wordpools/wasnorm_wordpool_576.txt	LTP093	ltpFR2	16	8	SUNRISE	1407	n/a	n/a	0	0	0
2056.05	n/a	WORD	1028025	wordpools/wasnorm_wordpool_576.txt	LTP093	ltpFR2	16	8	FIREPLACE	570	n/a	n/a	0	0	0
2058.614	n/a	WORD	1029307	wordpools/wasnorm_wordpool_576.txt	LTP093	ltpFR2	16	8	EXPERT	543	n/a	n/a	0	0	0
2061.394	n/a	WORD	1030697	wordpools/wasnorm_wordpool_576.txt	LTP093	ltpFR2	16	8	TEACHER	1440	n/a	n/a	0	0	0
2063.922	n/a	WORD	1031961	wordpools/wasnorm_wordpool_576.txt	LTP093	ltpFR2	16	8	JELLO	754	n/a	n/a	0	0	0
2066.47	n/a	WORD	1033235	wordpools/wasnorm_wordpool_576.txt	LTP093	ltpFR2	16	8	STAMP	1370	n/a	n/a	0	0	0
2069.032	n/a	WORD	1034516	wordpools/wasnorm_wordpool_576.txt	LTP093	ltpFR2	16	8	PARSLEY	1016	n/a	n/a	0	0	0
2071.778	n/a	WORD	1035889	wordpools/wasnorm_wordpool_576.txt	LTP093	ltpFR2	16	8	DRUG	501	n/a	n/a	0	0	0
2074.458	n/a	WORD	1037229	wordpools/wasnorm_wordpool_576.txt	LTP093	ltpFR2	16	8	STAKE	1368	n/a	n/a	0	0	0
2077.17	n/a	WORD	1038585	wordpools/wasnorm_wordpool_576.txt	LTP093	ltpFR2	16	8	LOVER	846	n/a	n/a	0	0	0
2079.65	n/a	WORD	1039825	wordpools/wasnorm_wordpool_576.txt	LTP093	ltpFR2	16	8	XEROX	1628	n/a	n/a	0	0	0
2082.364	n/a	WORD	1041182	wordpools/wasnorm_wordpool_576.txt	LTP093	ltpFR2	16	8	HERO	706	n/a	n/a	0	0	0
2084.958	n/a	WORD	1042479	wordpools/wasnorm_wordpool_576.txt	LTP093	ltpFR2	16	8	BOYFRIEND	162	n/a	n/a	0	0	0
2086.574	n/a	START	1043287	n/a	LTP093	ltpFR2	16	n/a	n/a	n/a	15	n/a	n/a	n/a	n/a
2087.742	n/a	DISTRACTOR	1043871	n/a	LTP093	ltpFR2	16	8	n/a	n/a	n/a	n/a	0	0	0
2087.754	n/a	PROB	1043877	n/a	LTP093	ltpFR2	16	n/a	n/a	n/a	15	21	3	9	9
2090.134	n/a	PROB	1045067	n/a	LTP093	ltpFR2	16	n/a	n/a	n/a	15	23	7	8	8
2092.416	n/a	PROB	1046208	n/a	LTP093	ltpFR2	16	n/a	n/a	n/a	15	19	4	8	7
2094.112	n/a	PROB	1047056	n/a	LTP093	ltpFR2	16	n/a	n/a	n/a	15	11	4	2	5
2096.658	n/a	PROB	1048329	n/a	LTP093	ltpFR2	16	n/a	n/a	n/a	15	17	4	9	4
2099.936	n/a	PROB	1049968	n/a	LTP093	ltpFR2	16	n/a	n/a	n/a	15	14	4	9	1
2101.336	n/a	PROB	1050668	n/a	LTP093	ltpFR2	16	n/a	n/a	n/a	15	16	8	4	4
2102.798	n/a	PROB	1051399	n/a	LTP093	ltpFR2	16	n/a	n/a	n/a	15	11	5	4	2
2104.08	n/a	PROB	1052040	n/a	LTP093	ltpFR2	16	n/a	n/a	n/a	15	14	3	9	2
2106.512	n/a	PROB	1053256	n/a	LTP093	ltpFR2	16	n/a	n/a	n/a	15	19	9	1	9
2108.606	n/a	PROB	1054303	n/a	LTP093	ltpFR2	16	n/a	n/a	n/a	15	13	1	3	9
2110.162	n/a	STOP	1055081	n/a	LTP093	ltpFR2	16	n/a	n/a	n/a	15	n/a	n/a	n/a	n/a
2112.404	n/a	REC_START	1056202	n/a	LTP093	ltpFR2	16	8	n/a	n/a	n/a	n/a	0	0	0
2113.08	n/a	REC_WORD	1056540	wordpools/wasnorm_wordpool_576.txt	LTP093	ltpFR2	16	8	LOVER	846	n/a	n/a	0	0	0
2113.688	n/a	REC_WORD	1056844	wordpools/wasnorm_wordpool_576.txt	LTP093	ltpFR2	16	8	XEROX	1628	n/a	n/a	0	0	0
2114.3	n/a	REC_WORD	1057150	wordpools/wasnorm_wordpool_576.txt	LTP093	ltpFR2	16	8	HERO	706	n/a	n/a	0	0	0
2115.108	n/a	REC_WORD	1057554	wordpools/wasnorm_wordpool_576.txt	LTP093	ltpFR2	16	8	BOYFRIEND	162	n/a	n/a	0	0	0
2125.574	n/a	REC_WORD	1062787	wordpools/wasnorm_wordpool_576.txt	LTP093	ltpFR2	16	8	NIGHTGOWN	953	n/a	n/a	0	0	0
2126.51	n/a	REC_WORD	1063255	wordpools/wasnorm_wordpool_576.txt	LTP093	ltpFR2	16	8	QUAIL	1147	n/a	n/a	0	0	0
2126.992	n/a	REC_WORD	1063496	wordpools/wasnorm_wordpool_576.txt	LTP093	ltpFR2	16	8	SIDEWALK	1303	n/a	n/a	0	0	0
2127.72	n/a	REC_WORD	1063860	wordpools/wasnorm_wordpool_576.txt	LTP093	ltpFR2	16	8	POLICE	1098	n/a	n/a	0	0	0
2128.26	n/a	REC_WORD	1064130	wordpools/wasnorm_wordpool_576.txt	LTP093	ltpFR2	16	8	CABIN	211	n/a	n/a	0	0	0
2189.038	n/a	REST_REWET	1094519	n/a	LTP093	ltpFR2	16	8	n/a	n/a	n/a	n/a	0	0	0
2544.18	n/a	WORD	1272090	wordpools/wasnorm_wordpool_576.txt	LTP093	ltpFR2	16	9	PICNIC	1060	n/a	n/a	0	0	0
2546.758	n/a	WORD	1273379	wordpools/wasnorm_wordpool_576.txt	LTP093	ltpFR2	16	9	BUCKET	184	n/a	n/a	0	0	0
2549.522	n/a	WORD	1274761	wordpools/wasnorm_wordpool_576.txt	LTP093	ltpFR2	16	9	DIVER	476	n/a	n/a	0	0	0
2552.118	n/a	WORD	1276059	wordpools/wasnorm_wordpool_576.txt	LTP093	ltpFR2	16	9	AIRPORT	13	n/a	n/a	0	0	0
2554.864	n/a	WORD	1277432	wordpools/wasnorm_wordpool_576.txt	LTP093	ltpFR2	16	9	LILY	821	n/a	n/a	0	0	0
2557.444	n/a	WORD	1278722	wordpools/wasnorm_wordpool_576.txt	LTP093	ltpFR2	16	9	LAPEL	800	n/a	n/a	0	0	0
2560.09	n/a	WORD	1280045	wordpools/wasnorm_wordpool_576.txt	LTP093	ltpFR2	16	9	PILOT	1070	n/a	n/a	0	0	0
2562.836	n/a	WORD	1281418	wordpools/wasnorm_wordpool_576.txt	LTP093	ltpFR2	16	9	SISTER	1312	n/a	n/a	0	0	0
2565.532	n/a	WORD	1282766	wordpools/wasnorm_wordpool_576.txt	LTP093	ltpFR2	16	9	SADDLE	1221	n/a	n/a	0	0	0
2568.06	n/a	WORD	1284030	wordpools/wasnorm_wordpool_576.txt	LTP093	ltpFR2	16	9	SUPPER	1411	n/a	n/a	0	0	0
2570.492	n/a	WORD	1285246	wordpools/wasnorm_wordpool_576.txt	LTP093	ltpFR2	16	9	PISTOL	1075	n/a	n/a	0	0	0
2573.054	n/a	WORD	1286527	wordpools/wasnorm_wordpool_576.txt	LTP093	ltpFR2	16	9	JAPAN	749	n/a	n/a	0	0	0
2575.782	n/a	WORD	1287891	wordpools/wasnorm_wordpool_576.txt	LTP093	ltpFR2	16	9	EUROPE	541	n/a	n/a	0	0	0
2578.414	n/a	WORD	1289207	wordpools/wasnorm_wordpool_576.txt	LTP093	ltpFR2	16	9	APRON	35	n/a	n/a	0	0	0
2580.942	n/a	WORD	1290471	wordpools/wasnorm_wordpool_576.txt	LTP093	ltpFR2	16	9	POCKET	1093	n/a	n/a	0	0	0
2583.688	n/a	WORD	1291844	wordpools/wasnorm_wordpool_576.txt	LTP093	ltpFR2	16	9	ISLAND	745	n/a	n/a	0	0	0
2586.468	n/a	WORD	1293234	wordpools/wasnorm_wordpool_576.txt	LTP093	ltpFR2	16	9	HORNET	718	n/a	n/a	0	0	0
2589.196	n/a	WORD	1294598	wordpools/wasnorm_wordpool_576.txt	LTP093	ltpFR2	16	9	SMOG	1330	n/a	n/a	0	0	0
2591.726	n/a	WORD	1295863	wordpools/wasnorm_wordpool_576.txt	LTP093	ltpFR2	16	9	MISTER	901	n/a	n/a	0	0	0
2594.324	n/a	WORD	1297162	wordpools/wasnorm_wordpool_576.txt	LTP093	ltpFR2	16	9	RAFT	1159	n/a	n/a	0	0	0
2596.802	n/a	WORD	1298401	wordpools/wasnorm_wordpool_576.txt	LTP093	ltpFR2	16	9	PISTON	1076	n/a	n/a	0	0	0
2599.482	n/a	WORD	1299741	wordpools/wasnorm_wordpool_576.txt	LTP093	ltpFR2	16	9	SHELF	1280	n/a	n/a	0	0	0
2601.978	n/a	WORD	1300989	wordpools/wasnorm_wordpool_576.txt	LTP093	ltpFR2	16	9	TWIG	1527	n/a	n/a	0	0	0
2604.656	n/a	WORD	1302328	wordpools/wasnorm_wordpool_576.txt	LTP093	ltpFR2	16	9	TROUT	1511	n/a	n/a	0	0	0
2606.272	n/a	START	1303136	n/a	LTP093	ltpFR2	16	n/a	n/a	n/a	16	n/a	n/a	n/a	n/a
2607.208	n/a	DISTRACTOR	1303604	n/a	LTP093	ltpFR2	16	9	n/a	n/a	n/a	n/a	0	0	0
2607.22	n/a	PROB	1303610	n/a	LTP093	ltpFR2	16	n/a	n/a	n/a	16	20	9	4	7
2610.282	n/a	PROB	1305141	n/a	LTP093	ltpFR2	16	n/a	n/a	n/a	16	12	8	2	2
2611.498	n/a	PROB	1305749	n/a	LTP093	ltpFR2	16	n/a	n/a	n/a	16	6	1	2	3
2612.628	n/a	PROB	1306314	n/a	LTP093	ltpFR2	16	n/a	n/a	n/a	16	8	2	2	4
2614.226	n/a	PROB	1307113	n/a	LTP093	ltpFR2	16	n/a	n/a	n/a	16	18	9	2	7
2616.056	n/a	PROB	1308028	n/a	LTP093	ltpFR2	16	n/a	n/a	n/a	16	20	5	7	8
2619.036	n/a	PROB	1309518	n/a	LTP093	ltpFR2	16	n/a	n/a	n/a	16	14	7	2	5
2620.966	n/a	PROB	1310483	n/a	LTP093	ltpFR2	16	n/a	n/a	n/a	16	14	5	8	1
2623.446	n/a	PROB	1311723	n/a	LTP093	ltpFR2	16	n/a	n/a	n/a	16	10	2	5	3
2625.592	n/a	PROB	1312796	n/a	LTP093	ltpFR2	16	n/a	n/a	n/a	16	18	4	8	6
2627.24	n/a	PROB	1313620	n/a	LTP093	ltpFR2	16	n/a	n/a	n/a	16	8	1	6	1
2630.272	n/a	STOP	1315136	n/a	LTP093	ltpFR2	16	n/a	n/a	n/a	16	n/a	n/a	n/a	n/a
2632.2	n/a	REC_START	1316100	n/a	LTP093	ltpFR2	16	9	n/a	n/a	n/a	n/a	0	0	0
2633.318	n/a	REC_WORD	1316659	wordpools/wasnorm_wordpool_576.txt	LTP093	ltpFR2	16	9	PISTON	1076	n/a	n/a	0	0	0
2633.934	n/a	REC_WORD	1316967	wordpools/wasnorm_wordpool_576.txt	LTP093	ltpFR2	16	9	SHELF	1280	n/a	n/a	0	0	0
2635.496	n/a	REC_WORD	1317748	wordpools/wasnorm_wordpool_576.txt	LTP093	ltpFR2	16	9	TWIG	1527	n/a	n/a	0	0	0
2636.42	n/a	REC_WORD	1318210	wordpools/wasnorm_wordpool_576.txt	LTP093	ltpFR2	16	9	TROUT	1511	n/a	n/a	0	0	0
2639.546	n/a	REC_WORD	1319773	wordpools/wasnorm_wordpool_576.txt	LTP093	ltpFR2	16	9	PISTOL	1075	n/a	n/a	0	0	0
2640.126	n/a	REC_WORD	1320063	wordpools/wasnorm_wordpool_576.txt	LTP093	ltpFR2	16	9	JAPAN	749	n/a	n/a	0	0	0
2640.648	n/a	REC_WORD	1320324	wordpools/wasnorm_wordpool_576.txt	LTP093	ltpFR2	16	9	EUROPE	541	n/a	n/a	0	0	0
2722.832	n/a	WORD	1361416	wordpools/wasnorm_wordpool_576.txt	LTP093	ltpFR2	16	10	RUST	1219	n/a	n/a	0	0	0
2725.496	n/a	WORD	1362748	wordpools/wasnorm_wordpool_576.txt	LTP093	ltpFR2	16	10	WIFE	1609	n/a	n/a	0	0	0
2727.958	n/a	WORD	1363979	wordpools/wasnorm_wordpool_576.txt	LTP093	ltpFR2	16	10	PASTA	1021	n/a	n/a	0	0	0
2730.572	n/a	WORD	1365286	wordpools/wasnorm_wordpool_576.txt	LTP093	ltpFR2	16	10	MAILMAN	858	n/a	n/a	0	0	0
2733.05	n/a	WORD	1366525	wordpools/wasnorm_wordpool_576.txt	LTP093	ltpFR2	16	10	HOOD	714	n/a	n/a	0	0	0
2735.664	n/a	WORD	1367832	wordpools/wasnorm_wordpool_576.txt	LTP093	ltpFR2	16	10	TABLE	1426	n/a	n/a	0	0	0
2738.31	n/a	WORD	1369155	wordpools/wasnorm_wordpool_576.txt	LTP093	ltpFR2	16	10	SCOTCH	1251	n/a	n/a	0	0	0
2740.84	n/a	WORD	1370420	wordpools/wasnorm_wordpool_576.txt	LTP093	ltpFR2	16	10	GLASS	639	n/a	n/a	0	0	0
2743.486	n/a	WORD	1371743	wordpools/wasnorm_wordpool_576.txt	LTP093	ltpFR2	16	10	MAILBOX	857	n/a	n/a	0	0	0
2746.014	n/a	WORD	1373007	wordpools/wasnorm_wordpool_576.txt	LTP093	ltpFR2	16	10	TILE	1468	n/a	n/a	0	0	0
2748.61	n/a	WORD	1374305	wordpools/wasnorm_wordpool_576.txt	LTP093	ltpFR2	16	10	BRAKE	166	n/a	n/a	0	0	0
2751.424	n/a	WORD	1375712	wordpools/wasnorm_wordpool_576.txt	LTP093	ltpFR2	16	10	COMET	353	n/a	n/a	0	0	0
2754.07	n/a	WORD	1377035	wordpools/wasnorm_wordpool_576.txt	LTP093	ltpFR2	16	10	ROCKET	1202	n/a	n/a	0	0	0
2756.55	n/a	WORD	1378275	wordpools/wasnorm_wordpool_576.txt	LTP093	ltpFR2	16	10	PERMIT	1051	n/a	n/a	0	0	0
2758.996	n/a	WORD	1379498	wordpools/wasnorm_wordpool_576.txt	LTP093	ltpFR2	16	10	GOBLIN	645	n/a	n/a	0	0	0
2761.808	n/a	WORD	1380904	wordpools/wasnorm_wordpool_576.txt	LTP093	ltpFR2	16	10	SKILLET	1317	n/a	n/a	0	0	0
2764.556	n/a	WORD	1382278	wordpools/wasnorm_wordpool_576.txt	LTP093	ltpFR2	16	10	YOLK	1633	n/a	n/a	0	0	0
2767.1	n/a	WORD	1383550	wordpools/wasnorm_wordpool_576.txt	LTP093	ltpFR2	16	10	NECKLACE	940	n/a	n/a	0	0	0
2769.63	n/a	WORD	1384815	wordpools/wasnorm_wordpool_576.txt	LTP093	ltpFR2	16	10	RIFLE	1192	n/a	n/a	0	0	0
2772.376	n/a	WORD	1386188	wordpools/wasnorm_wordpool_576.txt	LTP093	ltpFR2	16	10	SPOUSE	1358	n/a	n/a	0	0	0
2775.038	n/a	WORD	1387519	wordpools/wasnorm_wordpool_576.txt	LTP093	ltpFR2	16	10	MOTOR	922	n/a	n/a	0	0	0
2777.668	n/a	WORD	1388834	wordpools/wasnorm_wordpool_576.txt	LTP093	ltpFR2	16	10	SURVEY	1414	n/a	n/a	0	0	0
2780.096	n/a	WORD	1390048	wordpools/wasnorm_wordpool_576.txt	LTP093	ltpFR2	16	10	TURKEY	1520	n/a	n/a	0	0	0
2782.676	n/a	WORD	1391338	wordpools/wasnorm_wordpool_576.txt	LTP093	ltpFR2	16	10	EAGLE	512	n/a	n/a	0	0	0
2784.292	n/a	START	1392146	n/a	LTP093	ltpFR2	16	n/a	n/a	n/a	17	n/a	n/a	n/a	n/a
2785.174	n/a	DISTRACTOR	1392587	n/a	LTP093	ltpFR2	16	10	n/a	n/a	n/a	n/a	0	0	0
2785.19	n/a	PROB	1392595	n/a	LTP093	ltpFR2	16	n/a	n/a	n/a	17	11	3	5	3
2786.854	n/a	PROB	1393427	n/a	LTP093	ltpFR2	16	n/a	n/a	n/a	17	7	2	2	3
2788.336	n/a	PROB	1394168	n/a	LTP093	ltpFR2	16	n/a	n/a	n/a	17	15	6	5	4
2789.65	n/a	PROB	1394825	n/a	LTP093	ltpFR2	16	n/a	n/a	n/a	17	18	6	9	3
2791.382	n/a	PROB	1395691	n/a	LTP093	ltpFR2	16	n/a	n/a	n/a	17	21	9	3	9
2794.758	n/a	PROB	1397379	n/a	LTP093	ltpFR2	16	n/a	n/a	n/a	17	19	9	9	1
2796.174	n/a	PROB	1398087	n/a	LTP093	ltpFR2	16	n/a	n/a	n/a	17	14	5	7	2
2798.17	n/a	PROB	1399085	n/a	LTP093	ltpFR2	16	n/a	n/a	n/a	17	12	1	2	9
2799.42	n/a	PROB	1399710	n/a	LTP093	ltpFR2	16	n/a	n/a	n/a	17	16	7	8	1
2801.55	n/a	PROB	1400775	n/a	LTP093	ltpFR2	16	n/a	n/a	n/a	17	15	6	2	7
2804.312	n/a	PROB	1402156	n/a	LTP093	ltpFR2	16	n/a	n/a	n/a	17	11	3	2	6
2805.992	n/a	PROB	1402996	n/a	LTP093	ltpFR2	16	n/a	n/a	n/a	17	11	9	1	1
2807.14	n/a	STOP	1403570	n/a	LTP093	ltpFR2	16	n/a	n/a	n/a	17	n/a	n/a	n/a	n/a
2810.236	n/a	REC_START	1405118	n/a	LTP093	ltpFR2	16	10	n/a	n/a	n/a	n/a	0	0	0
2810.61	n/a	REC_WORD	1405305	wordpools/wasnorm_wordpool_576.txt	LTP093	ltpFR2	16	10	SURVEY	1414	n/a	n/a	0	0	0
2811.4	n/a	REC_WORD	1405700	wordpools/wasnorm_wordpool_576.txt	LTP093	ltpFR2	16	10	TURKEY	1520	n/a	n/a	0	0	0
2811.9	n/a	REC_WORD	1405950	wordpools/wasnorm_wordpool_576.txt	LTP093	ltpFR2	16	10	EAGLE	512	n/a	n/a	0	0	0
2813.254	n/a	REC_WORD	1406627	wordpools/wasnorm_wordpool_576.txt	LTP093	ltpFR2	16	10	RIFLE	1192	n/a	n/a	0	0	0
2813.926	n/a	REC_WORD	1406963	wordpools/wasnorm_wordpool_576.txt	LTP093	ltpFR2	16	10	SPOUSE	1358	n/a	n/a	0	0	0
2815.588	n/a	REC_WORD	1407794	wordpools/wasnorm_wordpool_576.txt	LTP093	ltpFR2	16	10	RUST	1219	n/a	n/a	0	0	0
2816.038	n/a	REC_WORD	1408019	wordpools/wasnorm_wordpool_576.txt	LTP093	ltpFR2	16	10	WIFE	1609	n/a	n/a	0	0	0
2816.568	n/a	REC_WORD	1408284	wordpools/wasnorm_wordpool_576.txt	LTP093	ltpFR2	16	10	PASTA	1021	n/a	n/a	0	0	0
2825.288	n/a	REC_WORD	1412644	wordpools/wasnorm_wordpool_576.txt	LTP093	ltpFR2	16	10	SCOTCH	1251	n/a	n/a	0	0	0
2825.984	n/a	REC_WORD	1412992	wordpools/wasnorm_wordpool_576.txt	LTP093	ltpFR2	16	10	GLASS	639	n/a	n/a	0	0	0
2826.418	n/a	REC_WORD	1413209	wordpools/wasnorm_wordpool_576.txt	LTP093	ltpFR2	16	10	MAILBOX	857	n/a	n/a	0	0	0
2827.662	n/a	REC_WORD	1413831	wordpools/wasnorm_wordpool_576.txt	LTP093	ltpFR2	16	10	MAILMAN	858	n/a	n/a	0	0	0
2900.886	n/a	WORD	1450443	wordpools/wasnorm_wordpool_576.txt	LTP093	ltpFR2	16	11	MARINE	869	n/a	n/a	0	0	0
2903.366	n/a	WORD	1451683	wordpools/wasnorm_wordpool_576.txt	LTP093	ltpFR2	16	11	BUREAU	199	n/a	n/a	0	0	0
2906.01	n/a	WORD	1453005	wordpools/wasnorm_wordpool_576.txt	LTP093	ltpFR2	16	11	PASTRY	1022	n/a	n/a	0	0	0
2908.558	n/a	WORD	1454279	wordpools/wasnorm_wordpool_576.txt	LTP093	ltpFR2	16	11	GIRL	637	n/a	n/a	0	0	0
2911.036	n/a	WORD	1455518	wordpools/wasnorm_wordpool_576.txt	LTP093	ltpFR2	16	11	COBRA	336	n/a	n/a	0	0	0
2913.832	n/a	WORD	1456916	wordpools/wasnorm_wordpool_576.txt	LTP093	ltpFR2	16	11	SUITCASE	1403	n/a	n/a	0	0	0
2916.364	n/a	WORD	1458182	wordpools/wasnorm_wordpool_576.txt	LTP093	ltpFR2	16	11	VICTIM	1562	n/a	n/a	0	0	0
2919.174	n/a	WORD	1459587	wordpools/wasnorm_wordpool_576.txt	LTP093	ltpFR2	16	11	OUTLAW	989	n/a	n/a	0	0	0
2921.754	n/a	WORD	1460877	wordpools/wasnorm_wordpool_576.txt	LTP093	ltpFR2	16	11	SANDWICH	1232	n/a	n/a	0	0	0
2924.184	n/a	WORD	1462092	wordpools/wasnorm_wordpool_576.txt	LTP093	ltpFR2	16	11	DRESSER	496	n/a	n/a	0	0	0
2926.88	n/a	WORD	1463440	wordpools/wasnorm_wordpool_576.txt	LTP093	ltpFR2	16	11	DRAGON	492	n/a	n/a	0	0	0
2929.56	n/a	WORD	1464780	wordpools/wasnorm_wordpool_576.txt	LTP093	ltpFR2	16	11	FIREMAN	569	n/a	n/a	0	0	0
2932.09	n/a	WORD	1466045	wordpools/wasnorm_wordpool_576.txt	LTP093	ltpFR2	16	11	ORANGE	980	n/a	n/a	0	0	0
2934.702	n/a	WORD	1467351	wordpools/wasnorm_wordpool_576.txt	LTP093	ltpFR2	16	11	ARMY	39	n/a	n/a	0	0	0
2937.316	n/a	WORD	1468658	wordpools/wasnorm_wordpool_576.txt	LTP093	ltpFR2	16	11	ITEM	746	n/a	n/a	0	0	0
2939.894	n/a	WORD	1469947	wordpools/wasnorm_wordpool_576.txt	LTP093	ltpFR2	16	11	SEAGULL	1261	n/a	n/a	0	0	0
2942.508	n/a	WORD	1471254	wordpools/wasnorm_wordpool_576.txt	LTP093	ltpFR2	16	11	BULLET	194	n/a	n/a	0	0	0
2945.086	n/a	WORD	1472543	wordpools/wasnorm_wordpool_576.txt	LTP093	ltpFR2	16	11	WASHER	1592	n/a	n/a	0	0	0
2947.9	n/a	WORD	1473950	wordpools/wasnorm_wordpool_576.txt	LTP093	ltpFR2	16	11	TABLET	1427	n/a	n/a	0	0	0
2950.612	n/a	WORD	1475306	wordpools/wasnorm_wordpool_576.txt	LTP093	ltpFR2	16	11	BEAKER	104	n/a	n/a	0	0	0
2953.292	n/a	WORD	1476646	wordpools/wasnorm_wordpool_576.txt	LTP093	ltpFR2	16	11	SKIRT	1319	n/a	n/a	0	0	0
2955.82	n/a	WORD	1477910	wordpools/wasnorm_wordpool_576.txt	LTP093	ltpFR2	16	11	CANAL	226	n/a	n/a	0	0	0
2958.418	n/a	WORD	1479209	wordpools/wasnorm_wordpool_576.txt	LTP093	ltpFR2	16	11	SWITCH	1422	n/a	n/a	0	0	0
2961.03	n/a	WORD	1480515	wordpools/wasnorm_wordpool_576.txt	LTP093	ltpFR2	16	11	MATCH	878	n/a	n/a	0	0	0
2962.644	n/a	START	1481322	n/a	LTP093	ltpFR2	16	n/a	n/a	n/a	18	n/a	n/a	n/a	n/a
2963.688	n/a	DISTRACTOR	1481844	n/a	LTP093	ltpFR2	16	11	n/a	n/a	n/a	n/a	0	0	0
2963.692	n/a	PROB	1481846	n/a	LTP093	ltpFR2	16	n/a	n/a	n/a	18	14	6	1	7
2966.572	n/a	PROB	1483286	n/a	LTP093	ltpFR2	16	n/a	n/a	n/a	18	6	4	1	1
2967.804	n/a	PROB	1483902	n/a	LTP093	ltpFR2	16	n/a	n/a	n/a	18	15	4	9	2
2969.368	n/a	PROB	1484684	n/a	LTP093	ltpFR2	16	n/a	n/a	n/a	18	11	4	1	6
2970.682	n/a	PROB	1485341	n/a	LTP093	ltpFR2	16	n/a	n/a	n/a	18	6	3	2	1
2971.73	n/a	PROB	1485865	n/a	LTP093	ltpFR2	16	n/a	n/a	n/a	18	15	9	4	2
2973.712	n/a	PROB	1486856	n/a	LTP093	ltpFR2	16	n/a	n/a	n/a	18	21	6	7	8
2975.344	n/a	PROB	1487672	n/a	LTP093	ltpFR2	16	n/a	n/a	n/a	18	20	9	6	5
2976.974	n/a	PROB	1488487	n/a	LTP093	ltpFR2	16	n/a	n/a	n/a	18	8	3	4	1
2978.604	n/a	PROB	1489302	n/a	LTP093	ltpFR2	16	n/a	n/a	n/a	18	17	9	4	4
2980.584	n/a	PROB	1490292	n/a	LTP093	ltpFR2	16	n/a	n/a	n/a	18	12	3	1	8
2983.432	n/a	PROB	1491716	n/a	LTP093	ltpFR2	16	n/a	n/a	n/a	18	11	1	8	2
2985.15	n/a	STOP	1492575	n/a	LTP093	ltpFR2	16	n/a	n/a	n/a	18	n/a	n/a	n/a	n/a
2988.508	n/a	REC_START	1494254	n/a	LTP093	ltpFR2	16	11	n/a	n/a	n/a	n/a	0	0	0
2989.132	n/a	REC_WORD	1494566	wordpools/wasnorm_wordpool_576.txt	LTP093	ltpFR2	16	11	SKIRT	1319	n/a	n/a	0	0	0
2989.72	n/a	REC_WORD	1494860	wordpools/wasnorm_wordpool_576.txt	LTP093	ltpFR2	16	11	CANAL	226	n/a	n/a	0	0	0
2990.158	n/a	REC_WORD	1495079	wordpools/wasnorm_wordpool_576.txt	LTP093	ltpFR2	16	11	SWITCH	1422	n/a	n/a	0	0	0
3010.568	n/a	REC_WORD	1505284	wordpools/wasnorm_wordpool_576.txt	LTP093	ltpFR2	16	11	GIRL	637	n/a	n/a	0	0	0
3014.942	n/a	REC_WORD	1507471	wordpools/wasnorm_wordpool_576.txt	LTP093	ltpFR2	16	11	COBRA	336	n/a	n/a	0	0	0
3079.188	n/a	WORD	1539594	wordpools/wasnorm_wordpool_576.txt	LTP093	ltpFR2	16	12	BLUEPRINT	142	n/a	n/a	0	0	0
3081.802	n/a	WORD	1540901	wordpools/wasnorm_wordpool_576.txt	LTP093	ltpFR2	16	12	BLACKBOARD	133	n/a	n/a	0	0	0
3084.298	n/a	WORD	1542149	wordpools/wasnorm_wordpool_576.txt	LTP093	ltpFR2	16	12	WAITRESS	1581	n/a	n/a	0	0	0
3086.96	n/a	WORD	1543480	wordpools/wasnorm_wordpool_576.txt	LTP093	ltpFR2	16	12	TURTLE	1522	n/a	n/a	0	0	0
3089.558	n/a	WORD	1544779	wordpools/wasnorm_wordpool_576.txt	LTP093	ltpFR2	16	12	CHILD	299	n/a	n/a	0	0	0
3092.152	n/a	WORD	1546076	wordpools/wasnorm_wordpool_576.txt	LTP093	ltpFR2	16	12	PROTON	1132	n/a	n/a	0	0	0
3094.748	n/a	WORD	1547374	wordpools/wasnorm_wordpool_576.txt	LTP093	ltpFR2	16	12	COOKBOOK	373	n/a	n/a	0	0	0
3097.462	n/a	WORD	1548731	wordpools/wasnorm_wordpool_576.txt	LTP093	ltpFR2	16	12	STONE	1385	n/a	n/a	0	0	0
3099.974	n/a	WORD	1549987	wordpools/wasnorm_wordpool_576.txt	LTP093	ltpFR2	16	12	GRIZZLY	662	n/a	n/a	0	0	0
3102.522	n/a	WORD	1551261	wordpools/wasnorm_wordpool_576.txt	LTP093	ltpFR2	16	12	BROOK	177	n/a	n/a	0	0	0
3105.018	n/a	WORD	1552509	wordpools/wasnorm_wordpool_576.txt	LTP093	ltpFR2	16	12	LAKE	796	n/a	n/a	0	0	0
3107.846	n/a	WORD	1553923	wordpools/wasnorm_wordpool_576.txt	LTP093	ltpFR2	16	12	DUST	508	n/a	n/a	0	0	0
3110.394	n/a	WORD	1555197	wordpools/wasnorm_wordpool_576.txt	LTP093	ltpFR2	16	12	SERVANT	1271	n/a	n/a	0	0	0
3112.906	n/a	WORD	1556453	wordpools/wasnorm_wordpool_576.txt	LTP093	ltpFR2	16	12	PATIENT	1024	n/a	n/a	0	0	0
3115.47	n/a	WORD	1557735	wordpools/wasnorm_wordpool_576.txt	LTP093	ltpFR2	16	12	RATTLE	1170	n/a	n/a	0	0	0
3118.148	n/a	WORD	1559074	wordpools/wasnorm_wordpool_576.txt	LTP093	ltpFR2	16	12	SCALLOP	1242	n/a	n/a	0	0	0
3120.844	n/a	WORD	1560422	wordpools/wasnorm_wordpool_576.txt	LTP093	ltpFR2	16	12	GARBAGE	622	n/a	n/a	0	0	0
3123.656	n/a	WORD	1561828	wordpools/wasnorm_wordpool_576.txt	LTP093	ltpFR2	16	12	BOX	159	n/a	n/a	0	0	0
3126.102	n/a	WORD	1563051	wordpools/wasnorm_wordpool_576.txt	LTP093	ltpFR2	16	12	CASHEW	253	n/a	n/a	0	0	0
3128.782	n/a	WORD	1564391	wordpools/wasnorm_wordpool_576.txt	LTP093	ltpFR2	16	12	DINER	467	n/a	n/a	0	0	0
3131.462	n/a	WORD	1565731	wordpools/wasnorm_wordpool_576.txt	LTP093	ltpFR2	16	12	SILK	1307	n/a	n/a	0	0	0
3134.14	n/a	WORD	1567070	wordpools/wasnorm_wordpool_576.txt	LTP093	ltpFR2	16	12	HANDBAG	684	n/a	n/a	0	0	0
3136.736	n/a	WORD	1568368	wordpools/wasnorm_wordpool_576.txt	LTP093	ltpFR2	16	12	KNAPSACK	783	n/a	n/a	0	0	0
3139.534	n/a	WORD	1569767	wordpools/wasnorm_wordpool_576.txt	LTP093	ltpFR2	16	12	SNAIL	1332	n/a	n/a	0	0	0
3141.146	n/a	START	1570573	n/a	LTP093	ltpFR2	16	n/a	n/a	n/a	19	n/a	n/a	n/a	n/a
3142.344	n/a	DISTRACTOR	1571172	n/a	LTP093	ltpFR2	16	12	n/a	n/a	n/a	n/a	0	0	0
3142.346	n/a	PROB	1571173	n/a	LTP093	ltpFR2	16	n/a	n/a	n/a	19	10	1	1	8
3144.242	n/a	PROB	1572121	n/a	LTP093	ltpFR2	16	n/a	n/a	n/a	19	18	6	4	8
3145.756	n/a	PROB	1572878	n/a	LTP093	ltpFR2	16	n/a	n/a	n/a	19	10	1	5	4
3147.188	n/a	PROB	1573594	n/a	LTP093	ltpFR2	16	n/a	n/a	n/a	19	19	8	8	3
3148.852	n/a	PROB	1574426	n/a	LTP093	ltpFR2	16	n/a	n/a	n/a	19	9	2	5	2
3150.368	n/a	PROB	1575184	n/a	LTP093	ltpFR2	16	n/a	n/a	n/a	19	22	5	9	8
3152.214	n/a	PROB	1576107	n/a	LTP093	ltpFR2	16	n/a	n/a	n/a	19	17	5	5	7
3153.594	n/a	PROB	1576797	n/a	LTP093	ltpFR2	16	n/a	n/a	n/a	19	17	1	8	8
3155.51	n/a	PROB	1577755	n/a	LTP093	ltpFR2	16	n/a	n/a	n/a	19	17	7	6	4
3157.606	n/a	PROB	1578803	n/a	LTP093	ltpFR2	16	n/a	n/a	n/a	19	8	3	2	3
3159.554	n/a	PROB	1579777	n/a	LTP093	ltpFR2	16	n/a	n/a	n/a	19	20	8	3	9
3161.584	n/a	PROB	1580792	n/a	LTP093	ltpFR2	16	n/a	n/a	n/a	19	19	8	9	2
3163.214	n/a	PROB	1581607	n/a	LTP093	ltpFR2	16	n/a	n/a	n/a	19	14	7	1	6
3164.808	n/a	STOP	1582404	n/a	LTP093	ltpFR2	16	n/a	n/a	n/a	19	n/a	n/a	n/a	n/a
3166.96	n/a	REC_START	1583480	n/a	LTP093	ltpFR2	16	12	n/a	n/a	n/a	n/a	0	0	0
3167.352	n/a	REC_WORD	1583676	wordpools/wasnorm_wordpool_576.txt	LTP093	ltpFR2	16	12	SILK	1307	n/a	n/a	0	0	0
3167.96	n/a	REC_WORD	1583980	wordpools/wasnorm_wordpool_576.txt	LTP093	ltpFR2	16	12	HANDBAG	684	n/a	n/a	0	0	0
3169.066	n/a	REC_WORD	1584533	wordpools/wasnorm_wordpool_576.txt	LTP093	ltpFR2	16	12	KNAPSACK	783	n/a	n/a	0	0	0
3211.208	n/a	REC_WORD_VV	1605604	wordpools/wasnorm_wordpool_576.txt	LTP093	ltpFR2	16	12	<>	-1	n/a	n/a	0	0	0
3257.576	n/a	WORD	1628788	wordpools/wasnorm_wordpool_576.txt	LTP093	ltpFR2	16	13	DRAWING	494	n/a	n/a	0	0	0
3260.17	n/a	WORD	1630085	wordpools/wasnorm_wordpool_576.txt	LTP093	ltpFR2	16	13	INFANT	737	n/a	n/a	0	0	0
3262.916	n/a	WORD	1631458	wordpools/wasnorm_wordpool_576.txt	LTP093	ltpFR2	16	13	MEDAL	885	n/a	n/a	0	0	0
3265.398	n/a	WORD	1632699	wordpools/wasnorm_wordpool_576.txt	LTP093	ltpFR2	16	13	SUSPECT	1415	n/a	n/a	0	0	0
3268.208	n/a	WORD	1634104	wordpools/wasnorm_wordpool_576.txt	LTP093	ltpFR2	16	13	GARDEN	623	n/a	n/a	0	0	0
3270.722	n/a	WORD	1635361	wordpools/wasnorm_wordpool_576.txt	LTP093	ltpFR2	16	13	ORCHID	982	n/a	n/a	0	0	0
3273.268	n/a	WORD	1636634	wordpools/wasnorm_wordpool_576.txt	LTP093	ltpFR2	16	13	SPOON	1357	n/a	n/a	0	0	0
3275.948	n/a	WORD	1637974	wordpools/wasnorm_wordpool_576.txt	LTP093	ltpFR2	16	13	KIDNEY	776	n/a	n/a	0	0	0
3278.578	n/a	WORD	1639289	wordpools/wasnorm_wordpool_576.txt	LTP093	ltpFR2	16	13	AUTHOR	61	n/a	n/a	0	0	0
3281.272	n/a	WORD	1640636	wordpools/wasnorm_wordpool_576.txt	LTP093	ltpFR2	16	13	CHIPMUNK	304	n/a	n/a	0	0	0
3284.086	n/a	WORD	1642043	wordpools/wasnorm_wordpool_576.txt	LTP093	ltpFR2	16	13	BANJO	82	n/a	n/a	0	0	0
3286.764	n/a	WORD	1643382	wordpools/wasnorm_wordpool_576.txt	LTP093	ltpFR2	16	13	GIFT	635	n/a	n/a	0	0	0
3289.378	n/a	WORD	1644689	wordpools/wasnorm_wordpool_576.txt	LTP093	ltpFR2	16	13	ICING	732	n/a	n/a	0	0	0
3292.14	n/a	WORD	1646070	wordpools/wasnorm_wordpool_576.txt	LTP093	ltpFR2	16	13	FOX	598	n/a	n/a	0	0	0
3294.736	n/a	WORD	1647368	wordpools/wasnorm_wordpool_576.txt	LTP093	ltpFR2	16	13	POSTAGE	1113	n/a	n/a	0	0	0
3297.434	n/a	WORD	1648717	wordpools/wasnorm_wordpool_576.txt	LTP093	ltpFR2	16	13	FIDDLE	561	n/a	n/a	0	0	0
3300.096	n/a	WORD	1650048	wordpools/wasnorm_wordpool_576.txt	LTP093	ltpFR2	16	13	CASKET	255	n/a	n/a	0	0	0
3302.658	n/a	WORD	1651329	wordpools/wasnorm_wordpool_576.txt	LTP093	ltpFR2	16	13	BRICK	172	n/a	n/a	0	0	0
3305.404	n/a	WORD	1652702	wordpools/wasnorm_wordpool_576.txt	LTP093	ltpFR2	16	13	LADDER	793	n/a	n/a	0	0	0
3308.216	n/a	WORD	1654108	wordpools/wasnorm_wordpool_576.txt	LTP093	ltpFR2	16	13	GRAVE	658	n/a	n/a	0	0	0
3310.846	n/a	WORD	1655423	wordpools/wasnorm_wordpool_576.txt	LTP093	ltpFR2	16	13	PUDDLE	1140	n/a	n/a	0	0	0
3313.46	n/a	WORD	1656730	wordpools/wasnorm_wordpool_576.txt	LTP093	ltpFR2	16	13	RIVER	1194	n/a	n/a	0	0	0
3316.154	n/a	WORD	1658077	wordpools/wasnorm_wordpool_576.txt	LTP093	ltpFR2	16	13	COWBOY	395	n/a	n/a	0	0	0
3318.752	n/a	WORD	1659376	wordpools/wasnorm_wordpool_576.txt	LTP093	ltpFR2	16	13	FRAME	600	n/a	n/a	0	0	0
3320.366	n/a	START	1660183	n/a	LTP093	ltpFR2	16	n/a	n/a	n/a	20	n/a	n/a	n/a	n/a
3321.398	n/a	DISTRACTOR	1660699	n/a	LTP093	ltpFR2	16	13	n/a	n/a	n/a	n/a	0	0	0
3321.414	n/a	PROB	1660707	n/a	LTP093	ltpFR2	16	n/a	n/a	n/a	20	13	5	1	7
3324.242	n/a	PROB	1662121	n/a	LTP093	ltpFR2	16	n/a	n/a	n/a	20	7	4	1	2
3325.724	n/a	PROB	1662862	n/a	LTP093	ltpFR2	16	n/a	n/a	n/a	20	13	4	4	5
3327.788	n/a	PROB	1663894	n/a	LTP093	ltpFR2	16	n/a	n/a	n/a	20	6	1	2	3
3328.852	n/a	PROB	1664426	n/a	LTP093	ltpFR2	16	n/a	n/a	n/a	20	13	2	7	4
3331.282	n/a	PROB	1665641	n/a	LTP093	ltpFR2	16	n/a	n/a	n/a	20	11	6	3	2
3333.43	n/a	PROB	1666715	n/a	LTP093	ltpFR2	16	n/a	n/a	n/a	20	17	1	8	8
3336.242	n/a	PROB	1668121	n/a	LTP093	ltpFR2	16	n/a	n/a	n/a	20	24	9	8	7
3339.254	n/a	PROB	1669627	n/a	LTP093	ltpFR2	16	n/a	n/a	n/a	20	25	6	7	6
3344.366	n/a	STOP	1672183	n/a	LTP093	ltpFR2	16	n/a	n/a	n/a	20	n/a	n/a	n/a	n/a
3346.262	n/a	REC_START	1673131	n/a	LTP093	ltpFR2	16	13	n/a	n/a	n/a	n/a	0	0	0
3346.594	n/a	REC_WORD	1673297	wordpools/wasnorm_wordpool_576.txt	LTP093	ltpFR2	16	13	GRAVE	658	n/a	n/a	0	0	0
3347.172	n/a	REC_WORD	1673586	wordpools/wasnorm_wordpool_576.txt	LTP093	ltpFR2	16	13	RIVER	1194	n/a	n/a	0	0	0
3347.678	n/a	REC_WORD	1673839	wordpools/wasnorm_wordpool_576.txt	LTP093	ltpFR2	16	13	COWBOY	395	n/a	n/a	0	0	0
3348.3	n/a	REC_WORD	1674150	wordpools/wasnorm_wordpool_576.txt	LTP093	ltpFR2	16	13	CASKET	255	n/a	n/a	0	0	0
3348.97	n/a	REC_WORD	1674485	wordpools/wasnorm_wordpool_576.txt	LTP093	ltpFR2	16	13	BRICK	172	n/a	n/a	0	0	0
3349.74	n/a	REC_WORD	1674870	wordpools/wasnorm_wordpool_576.txt	LTP093	ltpFR2	16	13	LADDER	793	n/a	n/a	0	0	0
3436.892	n/a	WORD	1718446	wordpools/wasnorm_wordpool_576.txt	LTP093	ltpFR2	16	14	CLOUD	328	n/a	n/a	0	0	0
3439.638	n/a	WORD	1719819	wordpools/wasnorm_wordpool_576.txt	LTP093	ltpFR2	16	14	HAMPER	682	n/a	n/a	0	0	0
3442.352	n/a	WORD	1721176	wordpools/wasnorm_wordpool_576.txt	LTP093	ltpFR2	16	14	CAFE	216	n/a	n/a	0	0	0
3444.782	n/a	WORD	1722391	wordpools/wasnorm_wordpool_576.txt	LTP093	ltpFR2	16	14	WRIST	1626	n/a	n/a	0	0	0
3447.512	n/a	WORD	1723756	wordpools/wasnorm_wordpool_576.txt	LTP093	ltpFR2	16	14	TROMBONE	1508	n/a	n/a	0	0	0
3450.274	n/a	WORD	1725137	wordpools/wasnorm_wordpool_576.txt	LTP093	ltpFR2	16	14	AWARD	63	n/a	n/a	0	0	0
3452.936	n/a	WORD	1726468	wordpools/wasnorm_wordpool_576.txt	LTP093	ltpFR2	16	14	PLATE	1086	n/a	n/a	0	0	0
3455.466	n/a	WORD	1727733	wordpools/wasnorm_wordpool_576.txt	LTP093	ltpFR2	16	14	QUARTER	1148	n/a	n/a	0	0	0
3457.978	n/a	WORD	1728989	wordpools/wasnorm_wordpool_576.txt	LTP093	ltpFR2	16	14	COUSIN	392	n/a	n/a	0	0	0
3460.658	n/a	WORD	1730329	wordpools/wasnorm_wordpool_576.txt	LTP093	ltpFR2	16	14	ATOM	55	n/a	n/a	0	0	0
3463.138	n/a	WORD	1731569	wordpools/wasnorm_wordpool_576.txt	LTP093	ltpFR2	16	14	AIRPLANE	12	n/a	n/a	0	0	0
3465.7	n/a	WORD	1732850	wordpools/wasnorm_wordpool_576.txt	LTP093	ltpFR2	16	14	HAND	683	n/a	n/a	0	0	0
3468.448	n/a	WORD	1734224	wordpools/wasnorm_wordpool_576.txt	LTP093	ltpFR2	16	14	TRUCK	1512	n/a	n/a	0	0	0
3471.21	n/a	WORD	1735605	wordpools/wasnorm_wordpool_576.txt	LTP093	ltpFR2	16	14	WAGON	1578	n/a	n/a	0	0	0
3473.972	n/a	WORD	1736986	wordpools/wasnorm_wordpool_576.txt	LTP093	ltpFR2	16	14	PERFUME	1049	n/a	n/a	0	0	0
3476.486	n/a	WORD	1738243	wordpools/wasnorm_wordpool_576.txt	LTP093	ltpFR2	16	14	GAVEL	627	n/a	n/a	0	0	0
3479.248	n/a	WORD	1739624	wordpools/wasnorm_wordpool_576.txt	LTP093	ltpFR2	16	14	NOMAD	955	n/a	n/a	0	0	0
3482.044	n/a	WORD	1741022	wordpools/wasnorm_wordpool_576.txt	LTP093	ltpFR2	16	14	VAGRANT	1544	n/a	n/a	0	0	0
3484.54	n/a	WORD	1742270	wordpools/wasnorm_wordpool_576.txt	LTP093	ltpFR2	16	14	CROWN	415	n/a	n/a	0	0	0
3486.968	n/a	WORD	1743484	wordpools/wasnorm_wordpool_576.txt	LTP093	ltpFR2	16	14	TART	1436	n/a	n/a	0	0	0
3489.482	n/a	WORD	1744741	wordpools/wasnorm_wordpool_576.txt	LTP093	ltpFR2	16	14	CIGAR	308	n/a	n/a	0	0	0
3492.228	n/a	WORD	1746114	wordpools/wasnorm_wordpool_576.txt	LTP093	ltpFR2	16	14	CAMEL	223	n/a	n/a	0	0	0
3494.924	n/a	WORD	1747462	wordpools/wasnorm_wordpool_576.txt	LTP093	ltpFR2	16	14	STAPLE	1371	n/a	n/a	0	0	0
3497.752	n/a	WORD	1748876	wordpools/wasnorm_wordpool_576.txt	LTP093	ltpFR2	16	14	BADGE	68	n/a	n/a	0	0	0
3499.368	n/a	START	1749684	n/a	LTP093	ltpFR2	16	n/a	n/a	n/a	21	n/a	n/a	n/a	n/a
3500.23	n/a	DISTRACTOR	1750115	n/a	LTP093	ltpFR2	16	14	n/a	n/a	n/a	n/a	0	0	0
3500.232	n/a	PROB	1750116	n/a	LTP093	ltpFR2	16	n/a	n/a	n/a	21	14	6	7	1
3502.778	n/a	PROB	1751389	n/a	LTP093	ltpFR2	16	n/a	n/a	n/a	21	11	1	9	1
3504.026	n/a	PROB	1752013	n/a	LTP093	ltpFR2	16	n/a	n/a	n/a	21	15	9	5	1
3505.408	n/a	PROB	1752704	n/a	LTP093	ltpFR2	16	n/a	n/a	n/a	21	12	3	2	7
3506.988	n/a	PROB	1753494	n/a	LTP093	ltpFR2	16	n/a	n/a	n/a	21	18	2	9	7
3509.32	n/a	PROB	1754660	n/a	LTP093	ltpFR2	16	n/a	n/a	n/a	21	19	6	8	5
3511.082	n/a	PROB	1755541	n/a	LTP093	ltpFR2	16	n/a	n/a	n/a	21	26	9	9	8
3512.764	n/a	PROB	1756382	n/a	LTP093	ltpFR2	16	n/a	n/a	n/a	21	9	1	1	7
3514.062	n/a	PROB	1757031	n/a	LTP093	ltpFR2	16	n/a	n/a	n/a	21	13	8	2	3
3515.394	n/a	PROB	1757697	n/a	LTP093	ltpFR2	16	n/a	n/a	n/a	21	13	4	7	2
3517.358	n/a	PROB	1758679	n/a	LTP093	ltpFR2	16	n/a	n/a	n/a	21	13	2	3	8
3519.17	n/a	PROB	1759585	n/a	LTP093	ltpFR2	16	n/a	n/a	n/a	21	14	3	9	2
3521.234	n/a	PROB	1760617	n/a	LTP093	ltpFR2	16	n/a	n/a	n/a	21	19	2	8	9
3523.238	n/a	STOP	1761619	n/a	LTP093	ltpFR2	16	n/a	n/a	n/a	21	n/a	n/a	n/a	n/a
3525.28	n/a	REC_START	1762640	n/a	LTP093	ltpFR2	16	14	n/a	n/a	n/a	n/a	0	0	0
3525.978	n/a	REC_WORD	1762989	wordpools/wasnorm_wordpool_576.txt	LTP093	ltpFR2	16	14	CROWN	415	n/a	n/a	0	0	0
3526.534	n/a	REC_WORD	1763267	wordpools/wasnorm_wordpool_576.txt	LTP093	ltpFR2	16	14	TART	1436	n/a	n/a	0	0	0
3526.84	n/a	REC_WORD	1763420	wordpools/wasnorm_wordpool_576.txt	LTP093	ltpFR2	16	14	CIGAR	308	n/a	n/a	0	0	0
3528.556	n/a	REC_WORD	1764278	wordpools/wasnorm_wordpool_576.txt	LTP093	ltpFR2	16	14	CAMEL	223	n/a	n/a	0	0	0
3529.058	n/a	REC_WORD	1764529	wordpools/wasnorm_wordpool_576.txt	LTP093	ltpFR2	16	14	STAPLE	1371	n/a	n/a	0	0	0
3529.894	n/a	REC_WORD	1764947	wordpools/wasnorm_wordpool_576.txt	LTP093	ltpFR2	16	14	BADGE	68	n/a	n/a	0	0	0
3615.912	n/a	WORD	1807956	wordpools/wasnorm_wordpool_576.txt	LTP093	ltpFR2	16	15	ZEBRA	1635	n/a	n/a	0	0	0
3618.524	n/a	WORD	1809262	wordpools/wasnorm_wordpool_576.txt	LTP093	ltpFR2	16	15	GANGSTER	620	n/a	n/a	0	0	0
3621.17	n/a	WORD	1810585	wordpools/wasnorm_wordpool_576.txt	LTP093	ltpFR2	16	15	HAWK	692	n/a	n/a	0	0	0
3623.95	n/a	WORD	1811975	wordpools/wasnorm_wordpool_576.txt	LTP093	ltpFR2	16	15	ATLAS	53	n/a	n/a	0	0	0
3626.496	n/a	WORD	1813248	wordpools/wasnorm_wordpool_576.txt	LTP093	ltpFR2	16	15	BINDER	127	n/a	n/a	0	0	0
3629.258	n/a	WORD	1814629	wordpools/wasnorm_wordpool_576.txt	LTP093	ltpFR2	16	15	BLADE	134	n/a	n/a	0	0	0
3631.738	n/a	WORD	1815869	wordpools/wasnorm_wordpool_576.txt	LTP093	ltpFR2	16	15	SHORTCAKE	1292	n/a	n/a	0	0	0
3634.2	n/a	WORD	1817100	wordpools/wasnorm_wordpool_576.txt	LTP093	ltpFR2	16	15	GRILL	661	n/a	n/a	0	0	0
3636.896	n/a	WORD	1818448	wordpools/wasnorm_wordpool_576.txt	LTP093	ltpFR2	16	15	BUTCHER	203	n/a	n/a	0	0	0
3639.578	n/a	WORD	1819789	wordpools/wasnorm_wordpool_576.txt	LTP093	ltpFR2	16	15	BEAST	108	n/a	n/a	0	0	0
3642.222	n/a	WORD	1821111	wordpools/wasnorm_wordpool_576.txt	LTP093	ltpFR2	16	15	BISON	131	n/a	n/a	0	0	0
3644.984	n/a	WORD	1822492	wordpools/wasnorm_wordpool_576.txt	LTP093	ltpFR2	16	15	PLAZA	1088	n/a	n/a	0	0	0
3647.482	n/a	WORD	1823741	wordpools/wasnorm_wordpool_576.txt	LTP093	ltpFR2	16	15	BUG	187	n/a	n/a	0	0	0
3650.26	n/a	WORD	1825130	wordpools/wasnorm_wordpool_576.txt	LTP093	ltpFR2	16	15	PICTURE	1061	n/a	n/a	0	0	0
3653.074	n/a	WORD	1826537	wordpools/wasnorm_wordpool_576.txt	LTP093	ltpFR2	16	15	STALLION	1369	n/a	n/a	0	0	0
3655.82	n/a	WORD	1827910	wordpools/wasnorm_wordpool_576.txt	LTP093	ltpFR2	16	15	LODGE	839	n/a	n/a	0	0	0
3658.516	n/a	WORD	1829258	wordpools/wasnorm_wordpool_576.txt	LTP093	ltpFR2	16	15	CRUTCH	417	n/a	n/a	0	0	0
3661.128	n/a	WORD	1830564	wordpools/wasnorm_wordpool_576.txt	LTP093	ltpFR2	16	15	THIEF	1456	n/a	n/a	0	0	0
3663.64	n/a	WORD	1831820	wordpools/wasnorm_wordpool_576.txt	LTP093	ltpFR2	16	15	PEACH	1031	n/a	n/a	0	0	0
3666.404	n/a	WORD	1833202	wordpools/wasnorm_wordpool_576.txt	LTP093	ltpFR2	16	15	MATTRESS	879	n/a	n/a	0	0	0
3669.166	n/a	WORD	1834583	wordpools/wasnorm_wordpool_576.txt	LTP093	ltpFR2	16	15	HEDGE	699	n/a	n/a	0	0	0
3671.828	n/a	WORD	1835914	wordpools/wasnorm_wordpool_576.txt	LTP093	ltpFR2	16	15	MUMMY	932	n/a	n/a	0	0	0
3674.46	n/a	WORD	1837230	wordpools/wasnorm_wordpool_576.txt	LTP093	ltpFR2	16	15	EGYPT	519	n/a	n/a	0	0	0
3677.27	n/a	WORD	1838635	wordpools/wasnorm_wordpool_576.txt	LTP093	ltpFR2	16	15	CRIB	407	n/a	n/a	0	0	0
3678.886	n/a	START	1839443	n/a	LTP093	ltpFR2	16	n/a	n/a	n/a	22	n/a	n/a	n/a	n/a
3679.792	n/a	DISTRACTOR	1839896	n/a	LTP093	ltpFR2	16	15	n/a	n/a	n/a	n/a	0	0	0
3679.8	n/a	PROB	1839900	n/a	LTP093	ltpFR2	16	n/a	n/a	n/a	22	20	9	4	7
3684.744	n/a	PROB	1842372	n/a	LTP093	ltpFR2	16	n/a	n/a	n/a	22	18	8	1	9
3686.508	n/a	PROB	1843254	n/a	LTP093	ltpFR2	16	n/a	n/a	n/a	22	13	4	5	4
3689.236	n/a	PROB	1844618	n/a	LTP093	ltpFR2	16	n/a	n/a	n/a	22	11	3	7	1
3690.568	n/a	PROB	1845284	n/a	LTP093	ltpFR2	16	n/a	n/a	n/a	22	12	7	4	1
3692.082	n/a	PROB	1846041	n/a	LTP093	ltpFR2	16	n/a	n/a	n/a	22	20	7	8	5
3695.396	n/a	PROB	1847698	n/a	LTP093	ltpFR2	16	n/a	n/a	n/a	22	18	5	7	6
3697.59	n/a	PROB	1848795	n/a	LTP093	ltpFR2	16	n/a	n/a	n/a	22	18	5	7	6
3698.706	n/a	PROB	1849353	n/a	LTP093	ltpFR2	16	n/a	n/a	n/a	22	18	6	9	3
3702.884	n/a	STOP	1851442	n/a	LTP093	ltpFR2	16	n/a	n/a	n/a	22	n/a	n/a	n/a	n/a
3704.78	n/a	REC_START	1852390	n/a	LTP093	ltpFR2	16	15	n/a	n/a	n/a	n/a	0	0	0
3705.466	n/a	REC_WORD	1852733	wordpools/wasnorm_wordpool_576.txt	LTP093	ltpFR2	16	15	PEACH	1031	n/a	n/a	0	0	0
3705.958	n/a	REC_WORD	1852979	wordpools/wasnorm_wordpool_576.txt	LTP093	ltpFR2	16	15	HEDGE	699	n/a	n/a	0	0	0
3706.43	n/a	REC_WORD	1853215	wordpools/wasnorm_wordpool_576.txt	LTP093	ltpFR2	16	15	MUMMY	932	n/a	n/a	0	0	0
3706.986	n/a	REC_WORD	1853493	wordpools/wasnorm_wordpool_576.txt	LTP093	ltpFR2	16	15	EGYPT	519	n/a	n/a	0	0	0
3707.578	n/a	REC_WORD	1853789	wordpools/wasnorm_wordpool_576.txt	LTP093	ltpFR2	16	15	CRIB	407	n/a	n/a	0	0	0
3795.398	n/a	WORD	1897699	wordpools/wasnorm_wordpool_576.txt	LTP093	ltpFR2	16	16	WIDOW	1608	n/a	n/a	0	0	0
3797.992	n/a	WORD	1898996	wordpools/wasnorm_wordpool_576.txt	LTP093	ltpFR2	16	16	CRITIC	410	n/a	n/a	0	0	0
3800.672	n/a	WORD	1900336	wordpools/wasnorm_wordpool_576.txt	LTP093	ltpFR2	16	16	FILM	565	n/a	n/a	0	0	0
3803.486	n/a	WORD	1901743	wordpools/wasnorm_wordpool_576.txt	LTP093	ltpFR2	16	16	TUNNEL	1519	n/a	n/a	0	0	0
3805.964	n/a	WORD	1902982	wordpools/wasnorm_wordpool_576.txt	LTP093	ltpFR2	16	16	SPIDER	1351	n/a	n/a	0	0	0
3808.676	n/a	WORD	1904338	wordpools/wasnorm_wordpool_576.txt	LTP093	ltpFR2	16	16	ICEBERG	731	n/a	n/a	0	0	0
3811.156	n/a	WORD	1905578	wordpools/wasnorm_wordpool_576.txt	LTP093	ltpFR2	16	16	CHAPEL	280	n/a	n/a	0	0	0
3813.752	n/a	WORD	1906876	wordpools/wasnorm_wordpool_576.txt	LTP093	ltpFR2	16	16	SHERIFF	1284	n/a	n/a	0	0	0
3816.216	n/a	WORD	1908108	wordpools/wasnorm_wordpool_576.txt	LTP093	ltpFR2	16	16	SHIRT	1287	n/a	n/a	0	0	0
3818.844	n/a	WORD	1909422	wordpools/wasnorm_wordpool_576.txt	LTP093	ltpFR2	16	16	WHISTLE	1606	n/a	n/a	0	0	0
3821.526	n/a	WORD	1910763	wordpools/wasnorm_wordpool_576.txt	LTP093	ltpFR2	16	16	OX	994	n/a	n/a	0	0	0
3824.188	n/a	WORD	1912094	wordpools/wasnorm_wordpool_576.txt	LTP093	ltpFR2	16	16	MOTEL	919	n/a	n/a	0	0	0
3826.75	n/a	WORD	1913375	wordpools/wasnorm_wordpool_576.txt	LTP093	ltpFR2	16	16	CANDY	230	n/a	n/a	0	0	0
3829.546	n/a	WORD	1914773	wordpools/wasnorm_wordpool_576.txt	LTP093	ltpFR2	16	16	AGENT	10	n/a	n/a	0	0	0
3831.976	n/a	WORD	1915988	wordpools/wasnorm_wordpool_576.txt	LTP093	ltpFR2	16	16	POET	1095	n/a	n/a	0	0	0
3834.688	n/a	WORD	1917344	wordpools/wasnorm_wordpool_576.txt	LTP093	ltpFR2	16	16	BASEMENT	94	n/a	n/a	0	0	0
3837.386	n/a	WORD	1918693	wordpools/wasnorm_wordpool_576.txt	LTP093	ltpFR2	16	16	CYCLONE	431	n/a	n/a	0	0	0
3839.948	n/a	WORD	1919974	wordpools/wasnorm_wordpool_576.txt	LTP093	ltpFR2	16	16	BANK	83	n/a	n/a	0	0	0
3842.476	n/a	WORD	1921238	wordpools/wasnorm_wordpool_576.txt	LTP093	ltpFR2	16	16	LUNCH	849	n/a	n/a	0	0	0
3845.038	n/a	WORD	1922519	wordpools/wasnorm_wordpool_576.txt	LTP093	ltpFR2	16	16	SUBWAY	1400	n/a	n/a	0	0	0
3847.618	n/a	WORD	1923809	wordpools/wasnorm_wordpool_576.txt	LTP093	ltpFR2	16	16	FUNGUS	614	n/a	n/a	0	0	0
3850.348	n/a	WORD	1925174	wordpools/wasnorm_wordpool_576.txt	LTP093	ltpFR2	16	16	SALAD	1224	n/a	n/a	0	0	0
3853.126	n/a	WORD	1926563	wordpools/wasnorm_wordpool_576.txt	LTP093	ltpFR2	16	16	SHELTER	1282	n/a	n/a	0	0	0
3855.922	n/a	WORD	1927961	wordpools/wasnorm_wordpool_576.txt	LTP093	ltpFR2	16	16	TWISTER	1530	n/a	n/a	0	0	0
3857.538	n/a	START	1928769	n/a	LTP093	ltpFR2	16	n/a	n/a	n/a	23	n/a	n/a	n/a	n/a
3858.532	n/a	DISTRACTOR	1929266	n/a	LTP093	ltpFR2	16	16	n/a	n/a	n/a	n/a	0	0	0
3858.536	n/a	PROB	1929268	n/a	LTP093	ltpFR2	16	n/a	n/a	n/a	23	16	9	1	6
3860.65	n/a	PROB	1930325	n/a	LTP093	ltpFR2	16	n/a	n/a	n/a	23	16	5	2	9
3862.846	n/a	PROB	1931423	n/a	LTP093	ltpFR2	16	n/a	n/a	n/a	23	14	5	3	6
3865.06	n/a	PROB	1932530	n/a	LTP093	ltpFR2	16	n/a	n/a	n/a	23	20	2	9	9
3867.006	n/a	PROB	1933503	n/a	LTP093	ltpFR2	16	n/a	n/a	n/a	23	4	2	1	1
3868.122	n/a	PROB	1934061	n/a	LTP093	ltpFR2	16	n/a	n/a	n/a	23	13	6	3	4
3869.77	n/a	PROB	1934885	n/a	LTP093	ltpFR2	16	n/a	n/a	n/a	23	18	8	1	7
3872.182	n/a	PROB	1936091	n/a	LTP093	ltpFR2	16	n/a	n/a	n/a	23	20	9	8	3
3875.244	n/a	PROB	1937622	n/a	LTP093	ltpFR2	16	n/a	n/a	n/a	23	15	9	5	1
3876.742	n/a	PROB	1938371	n/a	LTP093	ltpFR2	16	n/a	n/a	n/a	23	7	2	1	4
3879.122	n/a	PROB	1939561	n/a	LTP093	ltpFR2	16	n/a	n/a	n/a	23	22	7	7	8
3880.962	n/a	STOP	1940481	n/a	LTP093	ltpFR2	16	n/a	n/a	n/a	23	n/a	n/a	n/a	n/a
3883.318	n/a	REC_START	1941659	n/a	LTP093	ltpFR2	16	16	n/a	n/a	n/a	n/a	0	0	0
3883.658	n/a	REC_WORD	1941829	wordpools/wasnorm_wordpool_576.txt	LTP093	ltpFR2	16	16	LUNCH	849	n/a	n/a	0	0	0
3884.064	n/a	REC_WORD	1942032	wordpools/wasnorm_wordpool_576.txt	LTP093	ltpFR2	16	16	SUBWAY	1400	n/a	n/a	0	0	0
3884.592	n/a	REC_WORD	1942296	wordpools/wasnorm_wordpool_576.txt	LTP093	ltpFR2	16	16	FUNGUS	614	n/a	n/a	0	0	0
3885.11	n/a	REC_WORD	1942555	wordpools/wasnorm_wordpool_576.txt	LTP093	ltpFR2	16	16	SALAD	1224	n/a	n/a	0	0	0
3959.87	n/a	REST_REWET	1979935	n/a	LTP093	ltpFR2	16	16	n/a	n/a	n/a	n/a	0	0	0
4318.74	n/a	WORD	2159370	wordpools/wasnorm_wordpool_576.txt	LTP093	ltpFR2	16	17	BANKER	84	n/a	n/a	0	0	0
4321.436	n/a	WORD	2160718	wordpools/wasnorm_wordpool_576.txt	LTP093	ltpFR2	16	17	SLIDE	1326	n/a	n/a	0	0	0
4324.164	n/a	WORD	2162082	wordpools/wasnorm_wordpool_576.txt	LTP093	ltpFR2	16	17	DONOR	485	n/a	n/a	0	0	0
4326.776	n/a	WORD	2163388	wordpools/wasnorm_wordpool_576.txt	LTP093	ltpFR2	16	17	FLESH	579	n/a	n/a	0	0	0
4329.358	n/a	WORD	2164679	wordpools/wasnorm_wordpool_576.txt	LTP093	ltpFR2	16	17	SCARF	1246	n/a	n/a	0	0	0
4331.952	n/a	WORD	2165976	wordpools/wasnorm_wordpool_576.txt	LTP093	ltpFR2	16	17	BOUQUET	157	n/a	n/a	0	0	0
4334.5	n/a	WORD	2167250	wordpools/wasnorm_wordpool_576.txt	LTP093	ltpFR2	16	17	PAPER	1011	n/a	n/a	0	0	0
4337.062	n/a	WORD	2168531	wordpools/wasnorm_wordpool_576.txt	LTP093	ltpFR2	16	17	IGLOO	734	n/a	n/a	0	0	0
4339.69	n/a	WORD	2169845	wordpools/wasnorm_wordpool_576.txt	LTP093	ltpFR2	16	17	WORKER	1621	n/a	n/a	0	0	0
4342.12	n/a	WORD	2171060	wordpools/wasnorm_wordpool_576.txt	LTP093	ltpFR2	16	17	SCALPEL	1243	n/a	n/a	0	0	0
4344.616	n/a	WORD	2172308	wordpools/wasnorm_wordpool_576.txt	LTP093	ltpFR2	16	17	OINTMENT	974	n/a	n/a	0	0	0
4347.196	n/a	WORD	2173598	wordpools/wasnorm_wordpool_576.txt	LTP093	ltpFR2	16	17	KNIFE	785	n/a	n/a	0	0	0
4349.742	n/a	WORD	2174871	wordpools/wasnorm_wordpool_576.txt	LTP093	ltpFR2	16	17	SWORD	1423	n/a	n/a	0	0	0
4352.54	n/a	WORD	2176270	wordpools/wasnorm_wordpool_576.txt	LTP093	ltpFR2	16	17	PEPPER	1047	n/a	n/a	0	0	0
4355.134	n/a	WORD	2177567	wordpools/wasnorm_wordpool_576.txt	LTP093	ltpFR2	16	17	BREAST	171	n/a	n/a	0	0	0
4357.914	n/a	WORD	2178957	wordpools/wasnorm_wordpool_576.txt	LTP093	ltpFR2	16	17	JURY	766	n/a	n/a	0	0	0
4360.644	n/a	WORD	2180322	wordpools/wasnorm_wordpool_576.txt	LTP093	ltpFR2	16	17	LAGOON	795	n/a	n/a	0	0	0
4363.24	n/a	WORD	2181620	wordpools/wasnorm_wordpool_576.txt	LTP093	ltpFR2	16	17	PARROT	1015	n/a	n/a	0	0	0
4365.67	n/a	WORD	2182835	wordpools/wasnorm_wordpool_576.txt	LTP093	ltpFR2	16	17	CATTLE	261	n/a	n/a	0	0	0
4368.416	n/a	WORD	2184208	wordpools/wasnorm_wordpool_576.txt	LTP093	ltpFR2	16	17	GARLIC	624	n/a	n/a	0	0	0
4371.078	n/a	WORD	2185539	wordpools/wasnorm_wordpool_576.txt	LTP093	ltpFR2	16	17	PUPIL	1143	n/a	n/a	0	0	0
4373.574	n/a	WORD	2186787	wordpools/wasnorm_wordpool_576.txt	LTP093	ltpFR2	16	17	STREAM	1392	n/a	n/a	0	0	0
4376.388	n/a	WORD	2188194	wordpools/wasnorm_wordpool_576.txt	LTP093	ltpFR2	16	17	GHETTO	633	n/a	n/a	0	0	0
4378.866	n/a	WORD	2189433	wordpools/wasnorm_wordpool_576.txt	LTP093	ltpFR2	16	17	CLAM	315	n/a	n/a	0	0	0
4380.482	n/a	START	2190241	n/a	LTP093	ltpFR2	16	n/a	n/a	n/a	24	n/a	n/a	n/a	n/a
4381.586	n/a	DISTRACTOR	2190793	n/a	LTP093	ltpFR2	16	17	n/a	n/a	n/a	n/a	0	0	0
4381.596	n/a	PROB	2190798	n/a	LTP093	ltpFR2	16	n/a	n/a	n/a	24	13	3	5	5
4383.61	n/a	PROB	2191805	n/a	LTP093	ltpFR2	16	n/a	n/a	n/a	24	20	7	7	6
4385.124	n/a	PROB	2192562	n/a	LTP093	ltpFR2	16	n/a	n/a	n/a	24	15	3	6	6
4386.738	n/a	PROB	2193369	n/a	LTP093	ltpFR2	16	n/a	n/a	n/a	24	20	9	9	2
4388.202	n/a	PROB	2194101	n/a	LTP093	ltpFR2	16	n/a	n/a	n/a	24	13	6	3	4
4390.016	n/a	PROB	2195008	n/a	LTP093	ltpFR2	16	n/a	n/a	n/a	24	17	8	7	2
4392.796	n/a	PROB	2196398	n/a	LTP093	ltpFR2	16	n/a	n/a	n/a	24	12	3	8	1
4394.776	n/a	PROB	2197388	n/a	LTP093	ltpFR2	16	n/a	n/a	n/a	24	14	5	1	8
4397.49	n/a	PROB	2198745	n/a	LTP093	ltpFR2	16	n/a	n/a	n/a	24	24	6	9	9
4399.186	n/a	PROB	2199593	n/a	LTP093	ltpFR2	16	n/a	n/a	n/a	24	13	5	4	4
4404.482	n/a	STOP	2202241	n/a	LTP093	ltpFR2	16	n/a	n/a	n/a	24	n/a	n/a	n/a	n/a
4406.41	n/a	REC_START	2203205	n/a	LTP093	ltpFR2	16	17	n/a	n/a	n/a	n/a	0	0	0
4406.75	n/a	REC_WORD	2203375	wordpools/wasnorm_wordpool_576.txt	LTP093	ltpFR2	16	17	STREAM	1392	n/a	n/a	0	0	0
4407.75	n/a	REC_WORD	2203875	wordpools/wasnorm_wordpool_576.txt	LTP093	ltpFR2	16	17	GHETTO	633	n/a	n/a	0	0	0
4408.262	n/a	REC_WORD	2204131	wordpools/wasnorm_wordpool_576.txt	LTP093	ltpFR2	16	17	CLAM	315	n/a	n/a	0	0	0
4411.348	n/a	REC_WORD	2205674	wordpools/wasnorm_wordpool_576.txt	LTP093	ltpFR2	16	17	BANKER	84	n/a	n/a	0	0	0
4497.076	n/a	WORD	2248538	wordpools/wasnorm_wordpool_576.txt	LTP093	ltpFR2	16	18	DORM	488	n/a	n/a	0	0	0
4499.572	n/a	WORD	2249786	wordpools/wasnorm_wordpool_576.txt	LTP093	ltpFR2	16	18	WITNESS	1618	n/a	n/a	0	0	0
4502.302	n/a	WORD	2251151	wordpools/wasnorm_wordpool_576.txt	LTP093	ltpFR2	16	18	BLOCKADE	137	n/a	n/a	0	0	0
4504.896	n/a	WORD	2252448	wordpools/wasnorm_wordpool_576.txt	LTP093	ltpFR2	16	18	SCISSORS	1250	n/a	n/a	0	0	0
4507.444	n/a	WORD	2253722	wordpools/wasnorm_wordpool_576.txt	LTP093	ltpFR2	16	18	SHORTS	1293	n/a	n/a	0	0	0
4509.94	n/a	WORD	2254970	wordpools/wasnorm_wordpool_576.txt	LTP093	ltpFR2	16	18	LACE	792	n/a	n/a	0	0	0
4512.602	n/a	WORD	2256301	wordpools/wasnorm_wordpool_576.txt	LTP093	ltpFR2	16	18	TRIBE	1505	n/a	n/a	0	0	0
4515.4	n/a	WORD	2257700	wordpools/wasnorm_wordpool_576.txt	LTP093	ltpFR2	16	18	PORK	1108	n/a	n/a	0	0	0
4518.028	n/a	WORD	2259014	wordpools/wasnorm_wordpool_576.txt	LTP093	ltpFR2	16	18	SAUSAGE	1238	n/a	n/a	0	0	0
4520.724	n/a	WORD	2260362	wordpools/wasnorm_wordpool_576.txt	LTP093	ltpFR2	16	18	SOFTBALL	1343	n/a	n/a	0	0	0
4523.52	n/a	WORD	2261760	wordpools/wasnorm_wordpool_576.txt	LTP093	ltpFR2	16	18	OUTFIT	988	n/a	n/a	0	0	0
4526.232	n/a	WORD	2263116	wordpools/wasnorm_wordpool_576.txt	LTP093	ltpFR2	16	18	BALLOON	75	n/a	n/a	0	0	0
4528.962	n/a	WORD	2264481	wordpools/wasnorm_wordpool_576.txt	LTP093	ltpFR2	16	18	FRANCE	601	n/a	n/a	0	0	0
4531.674	n/a	WORD	2265837	wordpools/wasnorm_wordpool_576.txt	LTP093	ltpFR2	16	18	LONDON	843	n/a	n/a	0	0	0
4534.304	n/a	WORD	2267152	wordpools/wasnorm_wordpool_576.txt	LTP093	ltpFR2	16	18	CELLAR	267	n/a	n/a	0	0	0
4536.95	n/a	WORD	2268475	wordpools/wasnorm_wordpool_576.txt	LTP093	ltpFR2	16	18	BUNNY	198	n/a	n/a	0	0	0
4539.746	n/a	WORD	2269873	wordpools/wasnorm_wordpool_576.txt	LTP093	ltpFR2	16	18	COTTAGE	384	n/a	n/a	0	0	0
4542.226	n/a	WORD	2271113	wordpools/wasnorm_wordpool_576.txt	LTP093	ltpFR2	16	18	ULCER	1533	n/a	n/a	0	0	0
4544.672	n/a	WORD	2272336	wordpools/wasnorm_wordpool_576.txt	LTP093	ltpFR2	16	18	CARROT	249	n/a	n/a	0	0	0
4547.234	n/a	WORD	2273617	wordpools/wasnorm_wordpool_576.txt	LTP093	ltpFR2	16	18	MISSILE	900	n/a	n/a	0	0	0
4549.848	n/a	WORD	2274924	wordpools/wasnorm_wordpool_576.txt	LTP093	ltpFR2	16	18	WAITER	1580	n/a	n/a	0	0	0
4552.512	n/a	WORD	2276256	wordpools/wasnorm_wordpool_576.txt	LTP093	ltpFR2	16	18	EYELASH	546	n/a	n/a	0	0	0
4555.156	n/a	WORD	2277578	wordpools/wasnorm_wordpool_576.txt	LTP093	ltpFR2	16	18	CRATER	400	n/a	n/a	0	0	0
4557.586	n/a	WORD	2278793	wordpools/wasnorm_wordpool_576.txt	LTP093	ltpFR2	16	18	LUGGAGE	847	n/a	n/a	0	0	0
4559.2	n/a	START	2279600	n/a	LTP093	ltpFR2	16	n/a	n/a	n/a	25	n/a	n/a	n/a	n/a
4560.178	n/a	DISTRACTOR	2280089	n/a	LTP093	ltpFR2	16	18	n/a	n/a	n/a	n/a	0	0	0
4560.182	n/a	PROB	2280091	n/a	LTP093	ltpFR2	16	n/a	n/a	n/a	25	9	3	2	4
4563.126	n/a	PROB	2281563	n/a	LTP093	ltpFR2	16	n/a	n/a	n/a	25	9	3	3	3
4564.176	n/a	PROB	2282088	n/a	LTP093	ltpFR2	16	n/a	n/a	n/a	25	12	1	6	5
4566.29	n/a	PROB	2283145	n/a	LTP093	ltpFR2	16	n/a	n/a	n/a	25	11	6	4	1
4567.686	n/a	PROB	2283843	n/a	LTP093	ltpFR2	16	n/a	n/a	n/a	25	17	5	9	3
4569.934	n/a	PROB	2284967	n/a	LTP093	ltpFR2	16	n/a	n/a	n/a	25	13	2	2	9
4571.3	n/a	PROB	2285650	n/a	LTP093	ltpFR2	16	n/a	n/a	n/a	25	23	5	9	9
4572.796	n/a	PROB	2286398	n/a	LTP093	ltpFR2	16	n/a	n/a	n/a	25	12	5	3	4
4575.676	n/a	PROB	2287838	n/a	LTP093	ltpFR2	16	n/a	n/a	n/a	25	18	4	6	8
4577.14	n/a	PROB	2288570	n/a	LTP093	ltpFR2	16	n/a	n/a	n/a	25	21	8	7	6
4578.986	n/a	PROB	2289493	n/a	LTP093	ltpFR2	16	n/a	n/a	n/a	25	14	4	9	1
4580.57	n/a	PROB	2290285	n/a	LTP093	ltpFR2	16	n/a	n/a	n/a	25	19	6	4	9
4582.148	n/a	STOP	2291074	n/a	LTP093	ltpFR2	16	n/a	n/a	n/a	25	n/a	n/a	n/a	n/a
4585.062	n/a	REC_START	2292531	n/a	LTP093	ltpFR2	16	18	n/a	n/a	n/a	n/a	0	0	0
4585.758	n/a	REC_WORD	2292879	wordpools/wasnorm_wordpool_576.txt	LTP093	ltpFR2	16	18	EYELASH	546	n/a	n/a	0	0	0
4586.374	n/a	REC_WORD	2293187	wordpools/wasnorm_wordpool_576.txt	LTP093	ltpFR2	16	18	CRATER	400	n/a	n/a	0	0	0
4586.956	n/a	REC_WORD	2293478	wordpools/wasnorm_wordpool_576.txt	LTP093	ltpFR2	16	18	LUGGAGE	847	n/a	n/a	0	0	0
4587.842	n/a	REC_WORD	2293921	wordpools/wasnorm_wordpool_576.txt	LTP093	ltpFR2	16	18	WAITER	1580	n/a	n/a	0	0	0
4591.614	n/a	REC_WORD	2295807	wordpools/wasnorm_wordpool_576.txt	LTP093	ltpFR2	16	18	CARROT	249	n/a	n/a	0	0	0
4592.19	n/a	REC_WORD	2296095	wordpools/wasnorm_wordpool_576.txt	LTP093	ltpFR2	16	18	MISSILE	900	n/a	n/a	0	0	0
4593.522	n/a	REC_WORD	2296761	wordpools/wasnorm_wordpool_576.txt	LTP093	ltpFR2	16	18	BUNNY	198	n/a	n/a	0	0	0
4675.694	n/a	WORD	2337847	wordpools/wasnorm_wordpool_576.txt	LTP093	ltpFR2	16	19	DRIVER	499	n/a	n/a	0	0	0
4678.14	n/a	WORD	2339070	wordpools/wasnorm_wordpool_576.txt	LTP093	ltpFR2	16	19	CHAUFFEUR	283	n/a	n/a	0	0	0
4680.802	n/a	WORD	2340401	wordpools/wasnorm_wordpool_576.txt	LTP093	ltpFR2	16	19	CURTAIN	427	n/a	n/a	0	0	0
4683.598	n/a	WORD	2341799	wordpools/wasnorm_wordpool_576.txt	LTP093	ltpFR2	16	19	COCKTAIL	338	n/a	n/a	0	0	0
4686.396	n/a	WORD	2343198	wordpools/wasnorm_wordpool_576.txt	LTP093	ltpFR2	16	19	BURGLAR	200	n/a	n/a	0	0	0
4689.008	n/a	WORD	2344504	wordpools/wasnorm_wordpool_576.txt	LTP093	ltpFR2	16	19	MASK	876	n/a	n/a	0	0	0
4691.704	n/a	WORD	2345852	wordpools/wasnorm_wordpool_576.txt	LTP093	ltpFR2	16	19	TWEEZERS	1526	n/a	n/a	0	0	0
4694.418	n/a	WORD	2347209	wordpools/wasnorm_wordpool_576.txt	LTP093	ltpFR2	16	19	JEANS	752	n/a	n/a	0	0	0
4697.112	n/a	WORD	2348556	wordpools/wasnorm_wordpool_576.txt	LTP093	ltpFR2	16	19	RABBIT	1152	n/a	n/a	0	0	0
4699.608	n/a	WORD	2349804	wordpools/wasnorm_wordpool_576.txt	LTP093	ltpFR2	16	19	ELBOW	520	n/a	n/a	0	0	0
4702.338	n/a	WORD	2351169	wordpools/wasnorm_wordpool_576.txt	LTP093	ltpFR2	16	19	CHEMIST	292	n/a	n/a	0	0	0
4705.134	n/a	WORD	2352567	wordpools/wasnorm_wordpool_576.txt	LTP093	ltpFR2	16	19	FLASK	576	n/a	n/a	0	0	0
4707.614	n/a	WORD	2353807	wordpools/wasnorm_wordpool_576.txt	LTP093	ltpFR2	16	19	WRENCH	1625	n/a	n/a	0	0	0
4710.11	n/a	WORD	2355055	wordpools/wasnorm_wordpool_576.txt	LTP093	ltpFR2	16	19	ROBBER	1197	n/a	n/a	0	0	0
4712.558	n/a	WORD	2356279	wordpools/wasnorm_wordpool_576.txt	LTP093	ltpFR2	16	19	FREEZER	604	n/a	n/a	0	0	0
4715.37	n/a	WORD	2357685	wordpools/wasnorm_wordpool_576.txt	LTP093	ltpFR2	16	19	TOURIST	1488	n/a	n/a	0	0	0
4718.014	n/a	WORD	2359007	wordpools/wasnorm_wordpool_576.txt	LTP093	ltpFR2	16	19	ROOSTER	1209	n/a	n/a	0	0	0
4720.562	n/a	WORD	2360281	wordpools/wasnorm_wordpool_576.txt	LTP093	ltpFR2	16	19	CUSTARD	429	n/a	n/a	0	0	0
4723.24	n/a	WORD	2361620	wordpools/wasnorm_wordpool_576.txt	LTP093	ltpFR2	16	19	PIZZA	1079	n/a	n/a	0	0	0
4725.97	n/a	WORD	2362985	wordpools/wasnorm_wordpool_576.txt	LTP093	ltpFR2	16	19	PIGEON	1065	n/a	n/a	0	0	0
4728.666	n/a	WORD	2364333	wordpools/wasnorm_wordpool_576.txt	LTP093	ltpFR2	16	19	MARSH	874	n/a	n/a	0	0	0
4731.38	n/a	WORD	2365690	wordpools/wasnorm_wordpool_576.txt	LTP093	ltpFR2	16	19	JUGGLER	763	n/a	n/a	0	0	0
4733.908	n/a	WORD	2366954	wordpools/wasnorm_wordpool_576.txt	LTP093	ltpFR2	16	19	OUTDOORS	987	n/a	n/a	0	0	0
4736.604	n/a	WORD	2368302	wordpools/wasnorm_wordpool_576.txt	LTP093	ltpFR2	16	19	LUMBER	848	n/a	n/a	0	0	0
4738.218	n/a	START	2369109	n/a	LTP093	ltpFR2	16	n/a	n/a	n/a	26	n/a	n/a	n/a	n/a
4739.234	n/a	DISTRACTOR	2369617	n/a	LTP093	ltpFR2	16	19	n/a	n/a	n/a	n/a	0	0	0
4739.25	n/a	PROB	2369625	n/a	LTP093	ltpFR2	16	n/a	n/a	n/a	26	15	5	2	8
4741.298	n/a	PROB	2370649	n/a	LTP093	ltpFR2	16	n/a	n/a	n/a	26	14	2	6	6
4744.176	n/a	PROB	2372088	n/a	LTP093	ltpFR2	16	n/a	n/a	n/a	26	13	1	4	8
4745.974	n/a	PROB	2372987	n/a	LTP093	ltpFR2	16	n/a	n/a	n/a	26	15	1	7	7
4747.122	n/a	PROB	2373561	n/a	LTP093	ltpFR2	16	n/a	n/a	n/a	26	6	3	2	1
4748.088	n/a	PROB	2374044	n/a	LTP093	ltpFR2	16	n/a	n/a	n/a	26	22	5	8	9
4750.884	n/a	PROB	2375442	n/a	LTP093	ltpFR2	16	n/a	n/a	n/a	26	14	4	6	4
4753.164	n/a	PROB	2376582	n/a	LTP093	ltpFR2	16	n/a	n/a	n/a	26	21	7	9	5
4755.776	n/a	PROB	2377888	n/a	LTP093	ltpFR2	16	n/a	n/a	n/a	26	25	9	7	9
4757.756	n/a	PROB	2378878	n/a	LTP093	ltpFR2	16	n/a	n/a	n/a	26	18	1	9	8
4759.22	n/a	PROB	2379610	n/a	LTP093	ltpFR2	16	n/a	n/a	n/a	26	14	7	6	1
4760.872	n/a	STOP	2380436	n/a	LTP093	ltpFR2	16	n/a	n/a	n/a	26	n/a	n/a	n/a	n/a
4764.014	n/a	REC_START	2382007	n/a	LTP093	ltpFR2	16	19	n/a	n/a	n/a	n/a	0	0	0
4764.682	n/a	REC_WORD	2382341	wordpools/wasnorm_wordpool_576.txt	LTP093	ltpFR2	16	19	MARSH	874	n/a	n/a	0	0	0
4765.274	n/a	REC_WORD	2382637	wordpools/wasnorm_wordpool_576.txt	LTP093	ltpFR2	16	19	JUGGLER	763	n/a	n/a	0	0	0
4765.966	n/a	REC_WORD	2382983	wordpools/wasnorm_wordpool_576.txt	LTP093	ltpFR2	16	19	OUTDOORS	987	n/a	n/a	0	0	0
4768.974	n/a	REC_WORD	2384487	wordpools/wasnorm_wordpool_576.txt	LTP093	ltpFR2	16	19	PIZZA	1079	n/a	n/a	0	0	0
4796.548	n/a	REC_WORD	2398274	wordpools/wasnorm_wordpool_576.txt	LTP093	ltpFR2	16	19	CHAUFFEUR	283	n/a	n/a	0	0	0
4797.338	n/a	REC_WORD	2398669	wordpools/wasnorm_wordpool_576.txt	LTP093	ltpFR2	16	19	DRIVER	499	n/a	n/a	0	0	0
4797.87	n/a	REC_WORD	2398935	wordpools/wasnorm_wordpool_576.txt	LTP093	ltpFR2	16	19	CURTAIN	427	n/a	n/a	0	0	0
4799.308	n/a	REC_WORD	2399654	wordpools/wasnorm_wordpool_576.txt	LTP093	ltpFR2	16	19	RABBIT	1152	n/a	n/a	0	0	0
4799.928	n/a	REC_WORD	2399964	wordpools/wasnorm_wordpool_576.txt	LTP093	ltpFR2	16	19	JEANS	752	n/a	n/a	0	0	0
4854.68	n/a	DISTRACTOR	2427340	n/a	LTP093	ltpFR2	16	20	n/a	n/a	n/a	n/a	0	0	0
4854.68	n/a	START	2427340	n/a	LTP093	ltpFR2	16	n/a	n/a	n/a	27	n/a	n/a	n/a	n/a
4854.712	n/a	PROB	2427356	n/a	LTP093	ltpFR2	16	n/a	n/a	n/a	27	16	8	6	2
4856.894	n/a	PROB	2428447	n/a	LTP093	ltpFR2	16	n/a	n/a	n/a	27	13	5	4	4
4859.474	n/a	PROB	2429737	n/a	LTP093	ltpFR2	16	n/a	n/a	n/a	27	17	2	8	7
4861.07	n/a	PROB	2430535	n/a	LTP093	ltpFR2	16	n/a	n/a	n/a	27	22	9	5	8
4863.384	n/a	PROB	2431692	n/a	LTP093	ltpFR2	16	n/a	n/a	n/a	27	16	3	8	5
4865.032	n/a	PROB	2432516	n/a	LTP093	ltpFR2	16	n/a	n/a	n/a	27	17	3	8	6
4868.11	n/a	PROB	2434055	n/a	LTP093	ltpFR2	16	n/a	n/a	n/a	27	10	1	5	4
4870.69	n/a	PROB	2435345	n/a	LTP093	ltpFR2	16	n/a	n/a	n/a	27	5	1	3	1
4871.838	n/a	PROB	2435919	n/a	LTP093	ltpFR2	16	n/a	n/a	n/a	27	14	8	2	4
4873.868	n/a	PROB	2436934	n/a	LTP093	ltpFR2	16	n/a	n/a	n/a	27	4	1	2	1
4878.68	n/a	STOP	2439340	n/a	LTP093	ltpFR2	16	n/a	n/a	n/a	27	n/a	n/a	n/a	n/a
4879.86	n/a	WORD	2439930	wordpools/wasnorm_wordpool_576.txt	LTP093	ltpFR2	16	20	BLENDER	136	n/a	n/a	0	0	0
4882.356	n/a	WORD	2441178	wordpools/wasnorm_wordpool_576.txt	LTP093	ltpFR2	16	20	RAZOR	1171	n/a	n/a	0	0	0
4885.052	n/a	WORD	2442526	wordpools/wasnorm_wordpool_576.txt	LTP093	ltpFR2	16	20	REBEL	1172	n/a	n/a	0	0	0
4887.83	n/a	WORD	2443915	wordpools/wasnorm_wordpool_576.txt	LTP093	ltpFR2	16	20	COMPASS	358	n/a	n/a	0	0	0
4890.362	n/a	WORD	2445181	wordpools/wasnorm_wordpool_576.txt	LTP093	ltpFR2	16	20	STICKER	1382	n/a	n/a	0	0	0
4892.956	n/a	WORD	2446478	wordpools/wasnorm_wordpool_576.txt	LTP093	ltpFR2	16	20	FLASHLIGHT	575	n/a	n/a	0	0	0
4895.77	n/a	WORD	2447885	wordpools/wasnorm_wordpool_576.txt	LTP093	ltpFR2	16	20	CEILING	265	n/a	n/a	0	0	0
4898.3	n/a	WORD	2449150	wordpools/wasnorm_wordpool_576.txt	LTP093	ltpFR2	16	20	RUG	1215	n/a	n/a	0	0	0
4901.094	n/a	WORD	2450547	wordpools/wasnorm_wordpool_576.txt	LTP093	ltpFR2	16	20	CLOCK	325	n/a	n/a	0	0	0
4903.724	n/a	WORD	2451862	wordpools/wasnorm_wordpool_576.txt	LTP093	ltpFR2	16	20	CASHIER	254	n/a	n/a	0	0	0
4906.504	n/a	WORD	2453252	wordpools/wasnorm_wordpool_576.txt	LTP093	ltpFR2	16	20	TRACTOR	1493	n/a	n/a	0	0	0
4909.116	n/a	WORD	2454558	wordpools/wasnorm_wordpool_576.txt	LTP093	ltpFR2	16	20	TOASTER	1472	n/a	n/a	0	0	0
4911.712	n/a	WORD	2455856	wordpools/wasnorm_wordpool_576.txt	LTP093	ltpFR2	16	20	KITCHEN	778	n/a	n/a	0	0	0
4914.526	n/a	WORD	2457263	wordpools/wasnorm_wordpool_576.txt	LTP093	ltpFR2	16	20	HEADBAND	696	n/a	n/a	0	0	0
4917.054	n/a	WORD	2458527	wordpools/wasnorm_wordpool_576.txt	LTP093	ltpFR2	16	20	LAVA	804	n/a	n/a	0	0	0
4919.634	n/a	WORD	2459817	wordpools/wasnorm_wordpool_576.txt	LTP093	ltpFR2	16	20	OYSTER	995	n/a	n/a	0	0	0
4922.212	n/a	WORD	2461106	wordpools/wasnorm_wordpool_576.txt	LTP093	ltpFR2	16	20	HATCHET	691	n/a	n/a	0	0	0
4924.908	n/a	WORD	2462454	wordpools/wasnorm_wordpool_576.txt	LTP093	ltpFR2	16	20	PLAYGROUND	1087	n/a	n/a	0	0	0
4927.654	n/a	WORD	2463827	wordpools/wasnorm_wordpool_576.txt	LTP093	ltpFR2	16	20	STOVE	1388	n/a	n/a	0	0	0
4930.402	n/a	WORD	2465201	wordpools/wasnorm_wordpool_576.txt	LTP093	ltpFR2	16	20	STOMACH	1384	n/a	n/a	0	0	0
4933.214	n/a	WORD	2466607	wordpools/wasnorm_wordpool_576.txt	LTP093	ltpFR2	16	20	TRANSPLANT	1496	n/a	n/a	0	0	0
4935.726	n/a	WORD	2467863	wordpools/wasnorm_wordpool_576.txt	LTP093	ltpFR2	16	20	LAMP	798	n/a	n/a	0	0	0
4938.222	n/a	WORD	2469111	wordpools/wasnorm_wordpool_576.txt	LTP093	ltpFR2	16	20	HEART	697	n/a	n/a	0	0	0
4940.936	n/a	WORD	2470468	wordpools/wasnorm_wordpool_576.txt	LTP093	ltpFR2	16	20	LIGHTNING	820	n/a	n/a	0	0	0
4942.55	n/a	START	2471275	n/a	LTP093	ltpFR2	16	n/a	n/a	n/a	28	n/a	n/a	n/a	n/a
4943.58	n/a	DISTRACTOR	2471790	n/a	LTP093	ltpFR2	16	20	n/a	n/a	n/a	n/a	0	0	0
4943.598	n/a	PROB	2471799	n/a	LTP093	ltpFR2	16	n/a	n/a	n/a	28	6	1	1	4
4945.412	n/a	PROB	2472706	n/a	LTP093	ltpFR2	16	n/a	n/a	n/a	28	20	4	8	8
4947.924	n/a	PROB	2473962	n/a	LTP093	ltpFR2	16	n/a	n/a	n/a	28	10	5	4	1
4949.272	n/a	PROB	2474636	n/a	LTP093	ltpFR2	16	n/a	n/a	n/a	28	18	9	7	2
4951.82	n/a	PROB	2475910	n/a	LTP093	ltpFR2	16	n/a	n/a	n/a	28	13	9	1	3
4953.484	n/a	PROB	2476742	n/a	LTP093	ltpFR2	16	n/a	n/a	n/a	28	26	8	9	7
4955.814	n/a	PROB	2477907	n/a	LTP093	ltpFR2	16	n/a	n/a	n/a	28	13	6	6	1
4958.06	n/a	PROB	2479030	n/a	LTP093	ltpFR2	16	n/a	n/a	n/a	28	17	9	4	4
4962.586	n/a	PROB	2481293	n/a	LTP093	ltpFR2	16	n/a	n/a	n/a	28	19	7	8	4
4966.55	n/a	STOP	2483275	n/a	LTP093	ltpFR2	16	n/a	n/a	n/a	28	n/a	n/a	n/a	n/a
4968.396	n/a	REC_START	2484198	n/a	LTP093	ltpFR2	16	20	n/a	n/a	n/a	n/a	0	0	0
4972.776	n/a	REC_WORD	2486388	wordpools/wasnorm_wordpool_576.txt	LTP093	ltpFR2	16	20	TRANSPLANT	1496	n/a	n/a	0	0	0
4984.212	n/a	REC_WORD	2492106	wordpools/wasnorm_wordpool_576.txt	LTP093	ltpFR2	16	20	HEART	697	n/a	n/a	0	0	0
5058.994	n/a	DISTRACTOR	2529497	n/a	LTP093	ltpFR2	16	21	n/a	n/a	n/a	n/a	0	0	0
5058.994	n/a	START	2529497	n/a	LTP093	ltpFR2	16	n/a	n/a	n/a	29	n/a	n/a	n/a	n/a
5059.028	n/a	PROB	2529514	n/a	LTP093	ltpFR2	16	n/a	n/a	n/a	29	15	5	2	8
5060.692	n/a	PROB	2530346	n/a	LTP093	ltpFR2	16	n/a	n/a	n/a	29	15	6	8	1
5062.622	n/a	PROB	2531311	n/a	LTP093	ltpFR2	16	n/a	n/a	n/a	29	21	8	6	7
5064.868	n/a	PROB	2532434	n/a	LTP093	ltpFR2	16	n/a	n/a	n/a	29	14	3	3	8
5066.998	n/a	PROB	2533499	n/a	LTP093	ltpFR2	16	n/a	n/a	n/a	29	16	9	6	1
5068.548	n/a	PROB	2534274	n/a	LTP093	ltpFR2	16	n/a	n/a	n/a	29	13	8	4	1
5070.61	n/a	PROB	2535305	n/a	LTP093	ltpFR2	16	n/a	n/a	n/a	29	11	3	6	2
5072.326	n/a	PROB	2536163	n/a	LTP093	ltpFR2	16	n/a	n/a	n/a	29	17	5	8	4
5074.204	n/a	PROB	2537102	n/a	LTP093	ltpFR2	16	n/a	n/a	n/a	29	12	9	1	2
5075.37	n/a	PROB	2537685	n/a	LTP093	ltpFR2	16	n/a	n/a	n/a	29	22	5	8	9
5077.65	n/a	PROB	2538825	n/a	LTP093	ltpFR2	16	n/a	n/a	n/a	29	19	6	4	9
5078.948	n/a	PROB	2539474	n/a	LTP093	ltpFR2	16	n/a	n/a	n/a	29	24	8	8	8
5082.994	n/a	STOP	2541497	n/a	LTP093	ltpFR2	16	n/a	n/a	n/a	29	n/a	n/a	n/a	n/a
5084.008	n/a	WORD	2542004	wordpools/wasnorm_wordpool_576.txt	LTP093	ltpFR2	16	21	PORTRAIT	1111	n/a	n/a	0	0	0
5086.82	n/a	WORD	2543410	wordpools/wasnorm_wordpool_576.txt	LTP093	ltpFR2	16	21	SKETCH	1315	n/a	n/a	0	0	0
5089.316	n/a	WORD	2544658	wordpools/wasnorm_wordpool_576.txt	LTP093	ltpFR2	16	21	CHAMPAGNE	278	n/a	n/a	0	0	0
5092.012	n/a	WORD	2546006	wordpools/wasnorm_wordpool_576.txt	LTP093	ltpFR2	16	21	CHEST	295	n/a	n/a	0	0	0
5094.842	n/a	WORD	2547421	wordpools/wasnorm_wordpool_576.txt	LTP093	ltpFR2	16	21	GYMNAST	675	n/a	n/a	0	0	0
5097.422	n/a	WORD	2548711	wordpools/wasnorm_wordpool_576.txt	LTP093	ltpFR2	16	21	PLAID	1080	n/a	n/a	0	0	0
5100.234	n/a	WORD	2550117	wordpools/wasnorm_wordpool_576.txt	LTP093	ltpFR2	16	21	DRESS	495	n/a	n/a	0	0	0
5102.68	n/a	WORD	2551340	wordpools/wasnorm_wordpool_576.txt	LTP093	ltpFR2	16	21	TERMITE	1451	n/a	n/a	0	0	0
5105.36	n/a	WORD	2552680	wordpools/wasnorm_wordpool_576.txt	LTP093	ltpFR2	16	21	BRANCH	168	n/a	n/a	0	0	0
5108.104	n/a	WORD	2554052	wordpools/wasnorm_wordpool_576.txt	LTP093	ltpFR2	16	21	CHURCH	307	n/a	n/a	0	0	0
5110.684	n/a	WORD	2555342	wordpools/wasnorm_wordpool_576.txt	LTP093	ltpFR2	16	21	CROSS	413	n/a	n/a	0	0	0
5113.164	n/a	WORD	2556582	wordpools/wasnorm_wordpool_576.txt	LTP093	ltpFR2	16	21	SLOPE	1328	n/a	n/a	0	0	0
5115.678	n/a	WORD	2557839	wordpools/wasnorm_wordpool_576.txt	LTP093	ltpFR2	16	21	COUNTRY	388	n/a	n/a	0	0	0
5118.308	n/a	WORD	2559154	wordpools/wasnorm_wordpool_576.txt	LTP093	ltpFR2	16	21	CORAL	378	n/a	n/a	0	0	0
5121.12	n/a	WORD	2560560	wordpools/wasnorm_wordpool_576.txt	LTP093	ltpFR2	16	21	COD	340	n/a	n/a	0	0	0
5123.848	n/a	WORD	2561924	wordpools/wasnorm_wordpool_576.txt	LTP093	ltpFR2	16	21	ARM	38	n/a	n/a	0	0	0
5126.296	n/a	WORD	2563148	wordpools/wasnorm_wordpool_576.txt	LTP093	ltpFR2	16	21	DENIM	446	n/a	n/a	0	0	0
5129.09	n/a	WORD	2564545	wordpools/wasnorm_wordpool_576.txt	LTP093	ltpFR2	16	21	BROTHER	179	n/a	n/a	0	0	0
5131.686	n/a	WORD	2565843	wordpools/wasnorm_wordpool_576.txt	LTP093	ltpFR2	16	21	WARDROBE	1587	n/a	n/a	0	0	0
5134.5	n/a	WORD	2567250	wordpools/wasnorm_wordpool_576.txt	LTP093	ltpFR2	16	21	LIVER	833	n/a	n/a	0	0	0
5137.228	n/a	WORD	2568614	wordpools/wasnorm_wordpool_576.txt	LTP093	ltpFR2	16	21	CABBAGE	210	n/a	n/a	0	0	0
5139.742	n/a	WORD	2569871	wordpools/wasnorm_wordpool_576.txt	LTP093	ltpFR2	16	21	HIKER	708	n/a	n/a	0	0	0
5142.506	n/a	WORD	2571253	wordpools/wasnorm_wordpool_576.txt	LTP093	ltpFR2	16	21	NEUTRON	947	n/a	n/a	0	0	0
5145.168	n/a	WORD	2572584	wordpools/wasnorm_wordpool_576.txt	LTP093	ltpFR2	16	21	FOOTBALL	591	n/a	n/a	0	0	0
5146.782	n/a	START	2573391	n/a	LTP093	ltpFR2	16	n/a	n/a	n/a	30	n/a	n/a	n/a	n/a
5147.9	n/a	DISTRACTOR	2573950	n/a	LTP093	ltpFR2	16	21	n/a	n/a	n/a	n/a	0	0	0
5147.914	n/a	PROB	2573957	n/a	LTP093	ltpFR2	16	n/a	n/a	n/a	30	16	1	8	7
5151.174	n/a	PROB	2575587	n/a	LTP093	ltpFR2	16	n/a	n/a	n/a	30	8	4	1	3
5152.408	n/a	PROB	2576204	n/a	LTP093	ltpFR2	16	n/a	n/a	n/a	30	10	7	2	1
5153.738	n/a	PROB	2576869	n/a	LTP093	ltpFR2	16	n/a	n/a	n/a	30	12	3	1	8
5155.12	n/a	PROB	2577560	n/a	LTP093	ltpFR2	16	n/a	n/a	n/a	30	8	3	3	2
