onset	duration	trial_type	sample	stim_file	subject	experiment	session	trial	item_name	item_num	list	answer	test_x	test_y	test_z
246.876	n/a	SESS_START	123438	n/a	LTP259	ltpFR2	1	n/a	n/a	n/a	n/a	n/a	0	0	0
266.13	n/a	START	133065	n/a	LTP259	ltpFR2	1	n/a	n/a	n/a	-1	n/a	n/a	n/a	n/a
266.162	n/a	PROB	133081	n/a	LTP259	ltpFR2	1	n/a	n/a	n/a	-1	17	8	7	2
270.74	n/a	PROB	135370	n/a	LTP259	ltpFR2	1	n/a	n/a	n/a	-1	19	1	9	9
273.052	n/a	PROB	136526	n/a	LTP259	ltpFR2	1	n/a	n/a	n/a	-1	17	6	7	4
276.65	n/a	STOP	138325	n/a	LTP259	ltpFR2	1	n/a	n/a	n/a	-1	n/a	n/a	n/a	n/a
313.16	n/a	DISTRACTOR	156580	n/a	LTP259	ltpFR2	1	1	n/a	n/a	n/a	n/a	0	0	0
313.16	n/a	START	156580	n/a	LTP259	ltpFR2	1	n/a	n/a	n/a	1	n/a	n/a	n/a	n/a
313.194	n/a	PROB	156597	n/a	LTP259	ltpFR2	1	n/a	n/a	n/a	1	12	7	1	4
316.606	n/a	PROB	158303	n/a	LTP259	ltpFR2	1	n/a	n/a	n/a	1	20	8	3	9
319.352	n/a	PROB	159676	n/a	LTP259	ltpFR2	1	n/a	n/a	n/a	1	10	3	5	2
321.498	n/a	PROB	160749	n/a	LTP259	ltpFR2	1	n/a	n/a	n/a	1	21	7	8	6
323.812	n/a	PROB	161906	n/a	LTP259	ltpFR2	1	n/a	n/a	n/a	1	9	1	2	6
325.476	n/a	PROB	162738	n/a	LTP259	ltpFR2	1	n/a	n/a	n/a	1	15	4	9	8
329.536	n/a	PROB	164768	n/a	LTP259	ltpFR2	1	n/a	n/a	n/a	1	10	3	3	4
332.666	n/a	PROB	166333	n/a	LTP259	ltpFR2	1	n/a	n/a	n/a	1	21	8	5	9
336.37	n/a	STOP	168185	n/a	LTP259	ltpFR2	1	n/a	n/a	n/a	1	n/a	n/a	n/a	n/a
338.14	n/a	WORD	169070	wordpools/wasnorm_wordpool_576.txt	LTP259	ltpFR2	1	1	MARINE	869	n/a	n/a	0	0	0
340.77	n/a	WORD	170385	wordpools/wasnorm_wordpool_576.txt	LTP259	ltpFR2	1	1	CAFE	216	n/a	n/a	0	0	0
343.498	n/a	WORD	171749	wordpools/wasnorm_wordpool_576.txt	LTP259	ltpFR2	1	1	KNAPSACK	783	n/a	n/a	0	0	0
345.962	n/a	WORD	172981	wordpools/wasnorm_wordpool_576.txt	LTP259	ltpFR2	1	1	SANDWICH	1232	n/a	n/a	0	0	0
348.492	n/a	WORD	174246	wordpools/wasnorm_wordpool_576.txt	LTP259	ltpFR2	1	1	MILDEW	893	n/a	n/a	0	0	0
351.254	n/a	WORD	175627	wordpools/wasnorm_wordpool_576.txt	LTP259	ltpFR2	1	1	GIRL	637	n/a	n/a	0	0	0
353.884	n/a	WORD	176942	wordpools/wasnorm_wordpool_576.txt	LTP259	ltpFR2	1	1	HOOK	715	n/a	n/a	0	0	0
356.396	n/a	WORD	178198	wordpools/wasnorm_wordpool_576.txt	LTP259	ltpFR2	1	1	CABBAGE	210	n/a	n/a	0	0	0
358.96	n/a	WORD	179480	wordpools/wasnorm_wordpool_576.txt	LTP259	ltpFR2	1	1	PRINCE	1124	n/a	n/a	0	0	0
361.506	n/a	WORD	180753	wordpools/wasnorm_wordpool_576.txt	LTP259	ltpFR2	1	1	PENGUIN	1044	n/a	n/a	0	0	0
364.284	n/a	WORD	182142	wordpools/wasnorm_wordpool_576.txt	LTP259	ltpFR2	1	1	EAGLE	512	n/a	n/a	0	0	0
367.014	n/a	WORD	183507	wordpools/wasnorm_wordpool_576.txt	LTP259	ltpFR2	1	1	CARROT	249	n/a	n/a	0	0	0
369.826	n/a	WORD	184913	wordpools/wasnorm_wordpool_576.txt	LTP259	ltpFR2	1	1	RABBIT	1152	n/a	n/a	0	0	0
372.34	n/a	WORD	186170	wordpools/wasnorm_wordpool_576.txt	LTP259	ltpFR2	1	1	LAGOON	795	n/a	n/a	0	0	0
374.786	n/a	WORD	187393	wordpools/wasnorm_wordpool_576.txt	LTP259	ltpFR2	1	1	OMELET	976	n/a	n/a	0	0	0
377.382	n/a	WORD	188691	wordpools/wasnorm_wordpool_576.txt	LTP259	ltpFR2	1	1	PEPPER	1047	n/a	n/a	0	0	0
379.896	n/a	WORD	189948	wordpools/wasnorm_wordpool_576.txt	LTP259	ltpFR2	1	1	PARSLEY	1016	n/a	n/a	0	0	0
382.442	n/a	WORD	191221	wordpools/wasnorm_wordpool_576.txt	LTP259	ltpFR2	1	1	COOKBOOK	373	n/a	n/a	0	0	0
384.904	n/a	WORD	192452	wordpools/wasnorm_wordpool_576.txt	LTP259	ltpFR2	1	1	HUSBAND	728	n/a	n/a	0	0	0
387.684	n/a	WORD	193842	wordpools/wasnorm_wordpool_576.txt	LTP259	ltpFR2	1	1	SPONGE	1355	n/a	n/a	0	0	0
390.33	n/a	WORD	195165	wordpools/wasnorm_wordpool_576.txt	LTP259	ltpFR2	1	1	GARLIC	624	n/a	n/a	0	0	0
392.86	n/a	WORD	196430	wordpools/wasnorm_wordpool_576.txt	LTP259	ltpFR2	1	1	PALACE	1006	n/a	n/a	0	0	0
395.44	n/a	WORD	197720	wordpools/wasnorm_wordpool_576.txt	LTP259	ltpFR2	1	1	WOMAN	1620	n/a	n/a	0	0	0
397.986	n/a	WORD	198993	wordpools/wasnorm_wordpool_576.txt	LTP259	ltpFR2	1	1	TYPIST	1532	n/a	n/a	0	0	0
399.6	n/a	START	199800	n/a	LTP259	ltpFR2	1	n/a	n/a	n/a	2	n/a	n/a	n/a	n/a
400.532	n/a	DISTRACTOR	200266	n/a	LTP259	ltpFR2	1	1	n/a	n/a	n/a	n/a	0	0	0
400.548	n/a	PROB	200274	n/a	LTP259	ltpFR2	1	n/a	n/a	n/a	2	21	9	5	7
404.626	n/a	PROB	202313	n/a	LTP259	ltpFR2	1	n/a	n/a	n/a	2	17	2	8	7
407.154	n/a	PROB	203577	n/a	LTP259	ltpFR2	1	n/a	n/a	n/a	2	14	9	3	2
409.684	n/a	PROB	204842	n/a	LTP259	ltpFR2	1	n/a	n/a	n/a	2	17	6	9	2
411.932	n/a	PROB	205966	n/a	LTP259	ltpFR2	1	n/a	n/a	n/a	2	16	4	6	6
416.69	n/a	PROB	208345	n/a	LTP259	ltpFR2	1	n/a	n/a	n/a	2	14	3	4	7
418.554	n/a	PROB	209277	n/a	LTP259	ltpFR2	1	n/a	n/a	n/a	2	9	5	1	3
420.634	n/a	PROB	210317	n/a	LTP259	ltpFR2	1	n/a	n/a	n/a	2	11	7	1	3
422.564	n/a	STOP	211282	n/a	LTP259	ltpFR2	1	n/a	n/a	n/a	2	n/a	n/a	n/a	n/a
425.512	n/a	REC_START	212756	n/a	LTP259	ltpFR2	1	1	n/a	n/a	n/a	n/a	0	0	0
427.138	n/a	REC_WORD	213569	wordpools/wasnorm_wordpool_576.txt	LTP259	ltpFR2	1	1	MARINE	869	n/a	n/a	0	0	0
428.236	n/a	REC_WORD	214118	wordpools/wasnorm_wordpool_576.txt	LTP259	ltpFR2	1	1	CAFE	216	n/a	n/a	0	0	0
429.262	n/a	REC_WORD	214631	wordpools/wasnorm_wordpool_576.txt	LTP259	ltpFR2	1	1	KNAPSACK	783	n/a	n/a	0	0	0
430.23	n/a	REC_WORD	215115	wordpools/wasnorm_wordpool_576.txt	LTP259	ltpFR2	1	1	SANDWICH	1232	n/a	n/a	0	0	0
432.092	n/a	REC_WORD	216046	wordpools/wasnorm_wordpool_576.txt	LTP259	ltpFR2	1	1	GIRL	637	n/a	n/a	0	0	0
432.986	n/a	REC_WORD	216493	wordpools/wasnorm_wordpool_576.txt	LTP259	ltpFR2	1	1	HOOK	715	n/a	n/a	0	0	0
435.188	n/a	REC_WORD	217594	wordpools/wasnorm_wordpool_576.txt	LTP259	ltpFR2	1	1	OMELET	976	n/a	n/a	0	0	0
436.15	n/a	REC_WORD	218075	wordpools/wasnorm_wordpool_576.txt	LTP259	ltpFR2	1	1	PEPPER	1047	n/a	n/a	0	0	0
437.976	n/a	REC_WORD	218988	wordpools/wasnorm_wordpool_576.txt	LTP259	ltpFR2	1	1	PRINCE	1124	n/a	n/a	0	0	0
439.846	n/a	REC_WORD	219923	wordpools/wasnorm_wordpool_576.txt	LTP259	ltpFR2	1	1	CABBAGE	210	n/a	n/a	0	0	0
442.444	n/a	REC_WORD	221222	wordpools/wasnorm_wordpool_576.txt	LTP259	ltpFR2	1	1	PENGUIN	1044	n/a	n/a	0	0	0
443.33	n/a	REC_WORD	221665	wordpools/wasnorm_wordpool_576.txt	LTP259	ltpFR2	1	1	EAGLE	512	n/a	n/a	0	0	0
444.154	n/a	REC_WORD	222077	wordpools/wasnorm_wordpool_576.txt	LTP259	ltpFR2	1	1	CARROT	249	n/a	n/a	0	0	0
445.062	n/a	REC_WORD	222531	wordpools/wasnorm_wordpool_576.txt	LTP259	ltpFR2	1	1	RABBIT	1152	n/a	n/a	0	0	0
446.466	n/a	REC_WORD	223233	wordpools/wasnorm_wordpool_576.txt	LTP259	ltpFR2	1	1	LAGOON	795	n/a	n/a	0	0	0
448.996	n/a	REC_WORD	224498	wordpools/wasnorm_wordpool_576.txt	LTP259	ltpFR2	1	1	TYPIST	1532	n/a	n/a	0	0	0
451.48	n/a	REC_WORD	225740	wordpools/wasnorm_wordpool_576.txt	LTP259	ltpFR2	1	1	SPONGE	1355	n/a	n/a	0	0	0
453.606	n/a	REC_WORD	226803	wordpools/wasnorm_wordpool_576.txt	LTP259	ltpFR2	1	1	COOKBOOK	373	n/a	n/a	0	0	0
475.448	n/a	REC_WORD	237724	wordpools/wasnorm_wordpool_576.txt	LTP259	ltpFR2	1	1	MILDEW	893	n/a	n/a	0	0	0
485.21	n/a	REC_WORD	242605	wordpools/wasnorm_wordpool_576.txt	LTP259	ltpFR2	1	1	PALACE	1006	n/a	n/a	0	0	0
489.066	n/a	REC_WORD	244533	wordpools/wasnorm_wordpool_576.txt	LTP259	ltpFR2	1	1	GARLIC	624	n/a	n/a	0	0	0
490.4	n/a	REC_WORD	245200	wordpools/wasnorm_wordpool_576.txt	LTP259	ltpFR2	1	1	PARSLEY	1016	n/a	n/a	0	0	0
493.342	n/a	REC_WORD	246671	wordpools/wasnorm_wordpool_576.txt	LTP259	ltpFR2	1	1	OMELET	976	n/a	n/a	0	0	0
516.144	n/a	DISTRACTOR	258072	n/a	LTP259	ltpFR2	1	2	n/a	n/a	n/a	n/a	0	0	0
516.144	n/a	START	258072	n/a	LTP259	ltpFR2	1	n/a	n/a	n/a	3	n/a	n/a	n/a	n/a
516.176	n/a	PROB	258088	n/a	LTP259	ltpFR2	1	n/a	n/a	n/a	3	26	9	9	8
518.474	n/a	PROB	259237	n/a	LTP259	ltpFR2	1	n/a	n/a	n/a	3	20	8	7	5
522.068	n/a	PROB	261034	n/a	LTP259	ltpFR2	1	n/a	n/a	n/a	3	22	9	5	8
526.512	n/a	PROB	263256	n/a	LTP259	ltpFR2	1	n/a	n/a	n/a	3	14	1	8	5
528.31	n/a	PROB	264155	n/a	LTP259	ltpFR2	1	n/a	n/a	n/a	3	9	2	3	4
532.636	n/a	PROB	266318	n/a	LTP259	ltpFR2	1	n/a	n/a	n/a	3	8	5	1	2
534.516	n/a	PROB	267258	n/a	LTP259	ltpFR2	1	n/a	n/a	n/a	3	1	3	3	5
536.298	n/a	PROB	268149	n/a	LTP259	ltpFR2	1	n/a	n/a	n/a	3	18	6	4	8
539.518	n/a	STOP	269759	n/a	LTP259	ltpFR2	1	n/a	n/a	n/a	3	n/a	n/a	n/a	n/a
541.172	n/a	WORD	270586	wordpools/wasnorm_wordpool_576.txt	LTP259	ltpFR2	1	2	PORK	1108	n/a	n/a	0	0	0
543.936	n/a	WORD	271968	wordpools/wasnorm_wordpool_576.txt	LTP259	ltpFR2	1	2	PLAZA	1088	n/a	n/a	0	0	0
546.416	n/a	WORD	273208	wordpools/wasnorm_wordpool_576.txt	LTP259	ltpFR2	1	2	MARKET	871	n/a	n/a	0	0	0
549.11	n/a	WORD	274555	wordpools/wasnorm_wordpool_576.txt	LTP259	ltpFR2	1	2	OUTLAW	989	n/a	n/a	0	0	0
551.724	n/a	WORD	275862	wordpools/wasnorm_wordpool_576.txt	LTP259	ltpFR2	1	2	POLICE	1098	n/a	n/a	0	0	0
554.436	n/a	WORD	277218	wordpools/wasnorm_wordpool_576.txt	LTP259	ltpFR2	1	2	QUEEN	1149	n/a	n/a	0	0	0
557.216	n/a	WORD	278608	wordpools/wasnorm_wordpool_576.txt	LTP259	ltpFR2	1	2	BLENDER	136	n/a	n/a	0	0	0
559.712	n/a	WORD	279856	wordpools/wasnorm_wordpool_576.txt	LTP259	ltpFR2	1	2	OYSTER	995	n/a	n/a	0	0	0
562.326	n/a	WORD	281163	wordpools/wasnorm_wordpool_576.txt	LTP259	ltpFR2	1	2	ONION	977	n/a	n/a	0	0	0
564.922	n/a	WORD	282461	wordpools/wasnorm_wordpool_576.txt	LTP259	ltpFR2	1	2	ACTRESS	6	n/a	n/a	0	0	0
567.6	n/a	WORD	283800	wordpools/wasnorm_wordpool_576.txt	LTP259	ltpFR2	1	2	CRITIC	410	n/a	n/a	0	0	0
570.23	n/a	WORD	285115	wordpools/wasnorm_wordpool_576.txt	LTP259	ltpFR2	1	2	PUPIL	1143	n/a	n/a	0	0	0
572.96	n/a	WORD	286480	wordpools/wasnorm_wordpool_576.txt	LTP259	ltpFR2	1	2	CAMEL	223	n/a	n/a	0	0	0
575.756	n/a	WORD	287878	wordpools/wasnorm_wordpool_576.txt	LTP259	ltpFR2	1	2	FLOWER	584	n/a	n/a	0	0	0
578.302	n/a	WORD	289151	wordpools/wasnorm_wordpool_576.txt	LTP259	ltpFR2	1	2	PLATE	1086	n/a	n/a	0	0	0
580.914	n/a	WORD	290457	wordpools/wasnorm_wordpool_576.txt	LTP259	ltpFR2	1	2	GLOBE	641	n/a	n/a	0	0	0
583.46	n/a	WORD	291730	wordpools/wasnorm_wordpool_576.txt	LTP259	ltpFR2	1	2	ULCER	1533	n/a	n/a	0	0	0
586.04	n/a	WORD	293020	wordpools/wasnorm_wordpool_576.txt	LTP259	ltpFR2	1	2	SLUG	1329	n/a	n/a	0	0	0
588.504	n/a	WORD	294252	wordpools/wasnorm_wordpool_576.txt	LTP259	ltpFR2	1	2	COCKTAIL	338	n/a	n/a	0	0	0
591.232	n/a	WORD	295616	wordpools/wasnorm_wordpool_576.txt	LTP259	ltpFR2	1	2	BARREL	91	n/a	n/a	0	0	0
594.012	n/a	WORD	297006	wordpools/wasnorm_wordpool_576.txt	LTP259	ltpFR2	1	2	SEAFOOD	1260	n/a	n/a	0	0	0
596.592	n/a	WORD	298296	wordpools/wasnorm_wordpool_576.txt	LTP259	ltpFR2	1	2	BURGLAR	200	n/a	n/a	0	0	0
599.388	n/a	WORD	299694	wordpools/wasnorm_wordpool_576.txt	LTP259	ltpFR2	1	2	BLACKBOARD	133	n/a	n/a	0	0	0
602.116	n/a	WORD	301058	wordpools/wasnorm_wordpool_576.txt	LTP259	ltpFR2	1	2	PICNIC	1060	n/a	n/a	0	0	0
603.732	n/a	START	301866	n/a	LTP259	ltpFR2	1	n/a	n/a	n/a	4	n/a	n/a	n/a	n/a
604.9	n/a	DISTRACTOR	302450	n/a	LTP259	ltpFR2	1	2	n/a	n/a	n/a	n/a	0	0	0
604.912	n/a	PROB	302456	n/a	LTP259	ltpFR2	1	n/a	n/a	n/a	4	15	7	3	5
607.042	n/a	PROB	303521	n/a	LTP259	ltpFR2	1	n/a	n/a	n/a	4	21	3	9	9
610.254	n/a	PROB	305127	n/a	LTP259	ltpFR2	1	n/a	n/a	n/a	4	21	9	6	6
613.032	n/a	PROB	306516	n/a	LTP259	ltpFR2	1	n/a	n/a	n/a	4	14	6	4	4
614.814	n/a	PROB	307407	n/a	LTP259	ltpFR2	1	n/a	n/a	n/a	4	11	4	1	6
616.562	n/a	PROB	308281	n/a	LTP259	ltpFR2	1	n/a	n/a	n/a	4	11	6	1	4
618.242	n/a	PROB	309121	n/a	LTP259	ltpFR2	1	n/a	n/a	n/a	4	18	3	9	6
622.736	n/a	PROB	311368	n/a	LTP259	ltpFR2	1	n/a	n/a	n/a	4	14	1	7	6
625.466	n/a	PROB	312733	n/a	LTP259	ltpFR2	1	n/a	n/a	n/a	4	17	2	9	6
627.462	n/a	STOP	313731	n/a	LTP259	ltpFR2	1	n/a	n/a	n/a	4	n/a	n/a	n/a	n/a
629.544	n/a	REC_START	314772	n/a	LTP259	ltpFR2	1	2	n/a	n/a	n/a	n/a	0	0	0
631.622	n/a	REC_WORD	315811	wordpools/wasnorm_wordpool_576.txt	LTP259	ltpFR2	1	2	BURGLAR	200	n/a	n/a	0	0	0
632.696	n/a	REC_WORD	316348	wordpools/wasnorm_wordpool_576.txt	LTP259	ltpFR2	1	2	BARREL	91	n/a	n/a	0	0	0
634.19	n/a	REC_WORD	317095	wordpools/wasnorm_wordpool_576.txt	LTP259	ltpFR2	1	2	QUEEN	1149	n/a	n/a	0	0	0
634.932	n/a	REC_WORD	317466	wordpools/wasnorm_wordpool_576.txt	LTP259	ltpFR2	1	2	ACTRESS	6	n/a	n/a	0	0	0
636.0	n/a	REC_WORD	318000	wordpools/wasnorm_wordpool_576.txt	LTP259	ltpFR2	1	2	PLAZA	1088	n/a	n/a	0	0	0
636.926	n/a	REC_WORD	318463	wordpools/wasnorm_wordpool_576.txt	LTP259	ltpFR2	1	2	PORK	1108	n/a	n/a	0	0	0
638.098	n/a	REC_WORD	319049	wordpools/wasnorm_wordpool_576.txt	LTP259	ltpFR2	1	2	CRITIC	410	n/a	n/a	0	0	0
638.94	n/a	REC_WORD	319470	wordpools/wasnorm_wordpool_576.txt	LTP259	ltpFR2	1	2	PUPIL	1143	n/a	n/a	0	0	0
639.782	n/a	REC_WORD	319891	wordpools/wasnorm_wordpool_576.txt	LTP259	ltpFR2	1	2	QUEEN	1149	n/a	n/a	0	0	0
641.182	n/a	REC_WORD	320591	wordpools/wasnorm_wordpool_576.txt	LTP259	ltpFR2	1	2	ONION	977	n/a	n/a	0	0	0
641.94	n/a	REC_WORD	320970	wordpools/wasnorm_wordpool_576.txt	LTP259	ltpFR2	1	2	OYSTER	995	n/a	n/a	0	0	0
642.912	n/a	REC_WORD	321456	wordpools/wasnorm_wordpool_576.txt	LTP259	ltpFR2	1	2	BLENDER	136	n/a	n/a	0	0	0
649.298	n/a	REC_WORD	324649	wordpools/wasnorm_wordpool_576.txt	LTP259	ltpFR2	1	2	OUTLAW	989	n/a	n/a	0	0	0
650.55	n/a	REC_WORD	325275	wordpools/wasnorm_wordpool_576.txt	LTP259	ltpFR2	1	2	POLICE	1098	n/a	n/a	0	0	0
656.562	n/a	REC_WORD	328281	wordpools/wasnorm_wordpool_576.txt	LTP259	ltpFR2	1	2	CAMEL	223	n/a	n/a	0	0	0
660.0	n/a	REC_WORD	330000	wordpools/wasnorm_wordpool_576.txt	LTP259	ltpFR2	1	2	GARLIC	624	n/a	n/a	0	0	0
666.274	n/a	REC_WORD	333137	wordpools/wasnorm_wordpool_576.txt	LTP259	ltpFR2	1	2	BURGLAR	200	n/a	n/a	0	0	0
671.474	n/a	REC_WORD	335737	wordpools/wasnorm_wordpool_576.txt	LTP259	ltpFR2	1	2	FLOWER	584	n/a	n/a	0	0	0
677.074	n/a	REC_WORD	338537	wordpools/wasnorm_wordpool_576.txt	LTP259	ltpFR2	1	2	SEAFOOD	1260	n/a	n/a	0	0	0
686.526	n/a	REC_WORD	343263	wordpools/wasnorm_wordpool_576.txt	LTP259	ltpFR2	1	2	GLOBE	641	n/a	n/a	0	0	0
687.802	n/a	REC_WORD	343901	wordpools/wasnorm_wordpool_576.txt	LTP259	ltpFR2	1	2	PLATE	1086	n/a	n/a	0	0	0
720.358	n/a	WORD	360179	wordpools/wasnorm_wordpool_576.txt	LTP259	ltpFR2	1	3	NOVEL	960	n/a	n/a	0	0	0
723.17	n/a	WORD	361585	wordpools/wasnorm_wordpool_576.txt	LTP259	ltpFR2	1	3	COD	340	n/a	n/a	0	0	0
725.75	n/a	WORD	362875	wordpools/wasnorm_wordpool_576.txt	LTP259	ltpFR2	1	3	ROBOT	1200	n/a	n/a	0	0	0
728.43	n/a	WORD	364215	wordpools/wasnorm_wordpool_576.txt	LTP259	ltpFR2	1	3	COUSIN	392	n/a	n/a	0	0	0
730.944	n/a	WORD	365472	wordpools/wasnorm_wordpool_576.txt	LTP259	ltpFR2	1	3	VELVET	1555	n/a	n/a	0	0	0
733.572	n/a	WORD	366786	wordpools/wasnorm_wordpool_576.txt	LTP259	ltpFR2	1	3	DOUGHNUT	490	n/a	n/a	0	0	0
736.386	n/a	WORD	368193	wordpools/wasnorm_wordpool_576.txt	LTP259	ltpFR2	1	3	TWIG	1527	n/a	n/a	0	0	0
738.882	n/a	WORD	369441	wordpools/wasnorm_wordpool_576.txt	LTP259	ltpFR2	1	3	BACKBONE	66	n/a	n/a	0	0	0
741.694	n/a	WORD	370847	wordpools/wasnorm_wordpool_576.txt	LTP259	ltpFR2	1	3	CITRUS	313	n/a	n/a	0	0	0
744.39	n/a	WORD	372195	wordpools/wasnorm_wordpool_576.txt	LTP259	ltpFR2	1	3	LODGE	839	n/a	n/a	0	0	0
747.068	n/a	WORD	373534	wordpools/wasnorm_wordpool_576.txt	LTP259	ltpFR2	1	3	JEANS	752	n/a	n/a	0	0	0
749.616	n/a	WORD	374808	wordpools/wasnorm_wordpool_576.txt	LTP259	ltpFR2	1	3	SHIRT	1287	n/a	n/a	0	0	0
752.362	n/a	WORD	376181	wordpools/wasnorm_wordpool_576.txt	LTP259	ltpFR2	1	3	LADDER	793	n/a	n/a	0	0	0
755.056	n/a	WORD	377528	wordpools/wasnorm_wordpool_576.txt	LTP259	ltpFR2	1	3	WRIST	1626	n/a	n/a	0	0	0
757.52	n/a	WORD	378760	wordpools/wasnorm_wordpool_576.txt	LTP259	ltpFR2	1	3	GLOVE	642	n/a	n/a	0	0	0
760.048	n/a	WORD	380024	wordpools/wasnorm_wordpool_576.txt	LTP259	ltpFR2	1	3	HIGHWAY	707	n/a	n/a	0	0	0
762.778	n/a	WORD	381389	wordpools/wasnorm_wordpool_576.txt	LTP259	ltpFR2	1	3	SIDEWALK	1303	n/a	n/a	0	0	0
765.392	n/a	WORD	382696	wordpools/wasnorm_wordpool_576.txt	LTP259	ltpFR2	1	3	BUBBLE	183	n/a	n/a	0	0	0
767.854	n/a	WORD	383927	wordpools/wasnorm_wordpool_576.txt	LTP259	ltpFR2	1	3	FRIEND	606	n/a	n/a	0	0	0
770.6	n/a	WORD	385300	wordpools/wasnorm_wordpool_576.txt	LTP259	ltpFR2	1	3	FLIPPER	580	n/a	n/a	0	0	0
773.08	n/a	WORD	386540	wordpools/wasnorm_wordpool_576.txt	LTP259	ltpFR2	1	3	SILK	1307	n/a	n/a	0	0	0
775.544	n/a	WORD	387772	wordpools/wasnorm_wordpool_576.txt	LTP259	ltpFR2	1	3	NURSE	963	n/a	n/a	0	0	0
778.088	n/a	WORD	389044	wordpools/wasnorm_wordpool_576.txt	LTP259	ltpFR2	1	3	SCARECROW	1245	n/a	n/a	0	0	0
780.552	n/a	WORD	390276	wordpools/wasnorm_wordpool_576.txt	LTP259	ltpFR2	1	3	TUBA	1515	n/a	n/a	0	0	0
782.166	n/a	START	391083	n/a	LTP259	ltpFR2	1	n/a	n/a	n/a	5	n/a	n/a	n/a	n/a
783.224	n/a	DISTRACTOR	391612	n/a	LTP259	ltpFR2	1	3	n/a	n/a	n/a	n/a	0	0	0
783.23	n/a	PROB	391615	n/a	LTP259	ltpFR2	1	n/a	n/a	n/a	5	18	7	4	7
786.226	n/a	PROB	393113	n/a	LTP259	ltpFR2	1	n/a	n/a	n/a	5	22	9	9	4
790.672	n/a	PROB	395336	n/a	LTP259	ltpFR2	1	n/a	n/a	n/a	5	13	5	5	3
792.168	n/a	PROB	396084	n/a	LTP259	ltpFR2	1	n/a	n/a	n/a	5	13	7	3	3
794.698	n/a	PROB	397349	n/a	LTP259	ltpFR2	1	n/a	n/a	n/a	5	14	5	8	1
796.43	n/a	PROB	398215	n/a	LTP259	ltpFR2	1	n/a	n/a	n/a	5	19	5	8	6
799.124	n/a	PROB	399562	n/a	LTP259	ltpFR2	1	n/a	n/a	n/a	5	16	3	6	7
801.204	n/a	PROB	400602	n/a	LTP259	ltpFR2	1	n/a	n/a	n/a	5	23	9	8	6
806.166	n/a	STOP	403083	n/a	LTP259	ltpFR2	1	n/a	n/a	n/a	5	n/a	n/a	n/a	n/a
808.028	n/a	REC_START	404014	n/a	LTP259	ltpFR2	1	3	n/a	n/a	n/a	n/a	0	0	0
809.672	n/a	REC_WORD	404836	wordpools/wasnorm_wordpool_576.txt	LTP259	ltpFR2	1	3	FLIPPER	580	n/a	n/a	0	0	0
810.61	n/a	REC_WORD	405305	wordpools/wasnorm_wordpool_576.txt	LTP259	ltpFR2	1	3	SILK	1307	n/a	n/a	0	0	0
811.324	n/a	REC_WORD	405662	wordpools/wasnorm_wordpool_576.txt	LTP259	ltpFR2	1	3	NURSE	963	n/a	n/a	0	0	0
813.964	n/a	REC_WORD	406982	wordpools/wasnorm_wordpool_576.txt	LTP259	ltpFR2	1	3	LODGE	839	n/a	n/a	0	0	0
814.63	n/a	REC_WORD	407315	wordpools/wasnorm_wordpool_576.txt	LTP259	ltpFR2	1	3	LADDER	793	n/a	n/a	0	0	0
815.128	n/a	REC_WORD	407564	wordpools/wasnorm_wordpool_576.txt	LTP259	ltpFR2	1	3	WRIST	1626	n/a	n/a	0	0	0
815.734	n/a	REC_WORD	407867	wordpools/wasnorm_wordpool_576.txt	LTP259	ltpFR2	1	3	GLOVE	642	n/a	n/a	0	0	0
816.874	n/a	REC_WORD	408437	wordpools/wasnorm_wordpool_576.txt	LTP259	ltpFR2	1	3	HIGHWAY	707	n/a	n/a	0	0	0
817.602	n/a	REC_WORD	408801	wordpools/wasnorm_wordpool_576.txt	LTP259	ltpFR2	1	3	SIDEWALK	1303	n/a	n/a	0	0	0
819.164	n/a	REC_WORD	409582	wordpools/wasnorm_wordpool_576.txt	LTP259	ltpFR2	1	3	NOVEL	960	n/a	n/a	0	0	0
820.056	n/a	REC_WORD	410028	wordpools/wasnorm_wordpool_576.txt	LTP259	ltpFR2	1	3	COD	340	n/a	n/a	0	0	0
821.314	n/a	REC_WORD	410657	wordpools/wasnorm_wordpool_576.txt	LTP259	ltpFR2	1	3	JEANS	752	n/a	n/a	0	0	0
822.172	n/a	REC_WORD	411086	wordpools/wasnorm_wordpool_576.txt	LTP259	ltpFR2	1	3	SHIRT	1287	n/a	n/a	0	0	0
823.678	n/a	REC_WORD	411839	wordpools/wasnorm_wordpool_576.txt	LTP259	ltpFR2	1	3	COUSIN	392	n/a	n/a	0	0	0
824.564	n/a	REC_WORD	412282	wordpools/wasnorm_wordpool_576.txt	LTP259	ltpFR2	1	3	VELVET	1555	n/a	n/a	0	0	0
826.288	n/a	REC_WORD	413144	wordpools/wasnorm_wordpool_576.txt	LTP259	ltpFR2	1	3	SUIT	1402	n/a	n/a	0	0	0
829.87	n/a	REC_WORD	414935	wordpools/wasnorm_wordpool_576.txt	LTP259	ltpFR2	1	3	CITRUS	313	n/a	n/a	0	0	0
830.87	n/a	REC_WORD_VV	415435	wordpools/wasnorm_wordpool_576.txt	LTP259	ltpFR2	1	3	<>	-1	n/a	n/a	0	0	0
832.616	n/a	REC_WORD	416308	wordpools/wasnorm_wordpool_576.txt	LTP259	ltpFR2	1	3	FRIEND	606	n/a	n/a	0	0	0
848.248	n/a	REC_WORD	424124	wordpools/wasnorm_wordpool_576.txt	LTP259	ltpFR2	1	3	LADDER	793	n/a	n/a	0	0	0
856.402	n/a	REC_WORD	428201	wordpools/wasnorm_wordpool_576.txt	LTP259	ltpFR2	1	3	SCARECROW	1245	n/a	n/a	0	0	0
857.402	n/a	REC_WORD_VV	428701	wordpools/wasnorm_wordpool_576.txt	LTP259	ltpFR2	1	3	<>	-1	n/a	n/a	0	0	0
857.666	n/a	REC_WORD	428833	wordpools/wasnorm_wordpool_576.txt	LTP259	ltpFR2	1	3	TUBA	1515	n/a	n/a	0	0	0
898.712	n/a	WORD	449356	wordpools/wasnorm_wordpool_576.txt	LTP259	ltpFR2	1	4	HANDBAG	684	n/a	n/a	0	0	0
901.49	n/a	WORD	450745	wordpools/wasnorm_wordpool_576.txt	LTP259	ltpFR2	1	4	TEMPLE	1448	n/a	n/a	0	0	0
904.102	n/a	WORD	452051	wordpools/wasnorm_wordpool_576.txt	LTP259	ltpFR2	1	4	SHELTER	1282	n/a	n/a	0	0	0
906.65	n/a	WORD	453325	wordpools/wasnorm_wordpool_576.txt	LTP259	ltpFR2	1	4	GALLON	618	n/a	n/a	0	0	0
909.328	n/a	WORD	454664	wordpools/wasnorm_wordpool_576.txt	LTP259	ltpFR2	1	4	SUBWAY	1400	n/a	n/a	0	0	0
912.108	n/a	WORD	456054	wordpools/wasnorm_wordpool_576.txt	LTP259	ltpFR2	1	4	CASHEW	253	n/a	n/a	0	0	0
914.904	n/a	WORD	457452	wordpools/wasnorm_wordpool_576.txt	LTP259	ltpFR2	1	4	SPIDER	1351	n/a	n/a	0	0	0
917.55	n/a	WORD	458775	wordpools/wasnorm_wordpool_576.txt	LTP259	ltpFR2	1	4	CIGAR	308	n/a	n/a	0	0	0
920.312	n/a	WORD	460156	wordpools/wasnorm_wordpool_576.txt	LTP259	ltpFR2	1	4	RELISH	1183	n/a	n/a	0	0	0
923.124	n/a	WORD	461562	wordpools/wasnorm_wordpool_576.txt	LTP259	ltpFR2	1	4	MARKER	870	n/a	n/a	0	0	0
925.906	n/a	WORD	462953	wordpools/wasnorm_wordpool_576.txt	LTP259	ltpFR2	1	4	NOTEBOOK	959	n/a	n/a	0	0	0
928.452	n/a	WORD	464226	wordpools/wasnorm_wordpool_576.txt	LTP259	ltpFR2	1	4	MAILBOX	857	n/a	n/a	0	0	0
931.046	n/a	WORD	465523	wordpools/wasnorm_wordpool_576.txt	LTP259	ltpFR2	1	4	MILK	895	n/a	n/a	0	0	0
933.544	n/a	WORD	466772	wordpools/wasnorm_wordpool_576.txt	LTP259	ltpFR2	1	4	CRIB	407	n/a	n/a	0	0	0
936.056	n/a	WORD	468028	wordpools/wasnorm_wordpool_576.txt	LTP259	ltpFR2	1	4	INFANT	737	n/a	n/a	0	0	0
938.586	n/a	WORD	469293	wordpools/wasnorm_wordpool_576.txt	LTP259	ltpFR2	1	4	BLOUSE	139	n/a	n/a	0	0	0
941.298	n/a	WORD	470649	wordpools/wasnorm_wordpool_576.txt	LTP259	ltpFR2	1	4	YOLK	1633	n/a	n/a	0	0	0
943.796	n/a	WORD	471898	wordpools/wasnorm_wordpool_576.txt	LTP259	ltpFR2	1	4	APRON	35	n/a	n/a	0	0	0
946.442	n/a	WORD	473221	wordpools/wasnorm_wordpool_576.txt	LTP259	ltpFR2	1	4	CLOUD	328	n/a	n/a	0	0	0
948.888	n/a	WORD	474444	wordpools/wasnorm_wordpool_576.txt	LTP259	ltpFR2	1	4	EGYPT	519	n/a	n/a	0	0	0
951.434	n/a	WORD	475717	wordpools/wasnorm_wordpool_576.txt	LTP259	ltpFR2	1	4	BACON	67	n/a	n/a	0	0	0
954.028	n/a	WORD	477014	wordpools/wasnorm_wordpool_576.txt	LTP259	ltpFR2	1	4	ASIA	46	n/a	n/a	0	0	0
956.576	n/a	WORD	478288	wordpools/wasnorm_wordpool_576.txt	LTP259	ltpFR2	1	4	CUPBOARD	425	n/a	n/a	0	0	0
959.254	n/a	WORD	479627	wordpools/wasnorm_wordpool_576.txt	LTP259	ltpFR2	1	4	NAPKIN	937	n/a	n/a	0	0	0
960.87	n/a	START	480435	n/a	LTP259	ltpFR2	1	n/a	n/a	n/a	6	n/a	n/a	n/a	n/a
961.934	n/a	DISTRACTOR	480967	n/a	LTP259	ltpFR2	1	4	n/a	n/a	n/a	n/a	0	0	0
961.934	n/a	PROB	480967	n/a	LTP259	ltpFR2	1	n/a	n/a	n/a	6	24	9	8	7
964.614	n/a	PROB	482307	n/a	LTP259	ltpFR2	1	n/a	n/a	n/a	6	5	1	3	1
966.06	n/a	PROB	483030	n/a	LTP259	ltpFR2	1	n/a	n/a	n/a	6	16	7	4	5
970.422	n/a	PROB	485211	n/a	LTP259	ltpFR2	1	n/a	n/a	n/a	6	17	6	4	7
972.602	n/a	PROB	486301	n/a	LTP259	ltpFR2	1	n/a	n/a	n/a	6	11	1	1	9
974.166	n/a	PROB	487083	n/a	LTP259	ltpFR2	1	n/a	n/a	n/a	6	22	5	8	9
978.926	n/a	PROB	489463	n/a	LTP259	ltpFR2	1	n/a	n/a	n/a	6	11	2	6	3
981.272	n/a	PROB	490636	n/a	LTP259	ltpFR2	1	n/a	n/a	n/a	6	17	8	5	4
983.836	n/a	STOP	491918	n/a	LTP259	ltpFR2	1	n/a	n/a	n/a	6	n/a	n/a	n/a	n/a
986.714	n/a	REC_START	493357	n/a	LTP259	ltpFR2	1	4	n/a	n/a	n/a	n/a	0	0	0
987.552	n/a	REC_WORD	493776	wordpools/wasnorm_wordpool_576.txt	LTP259	ltpFR2	1	4	BACON	67	n/a	n/a	0	0	0
988.114	n/a	REC_WORD	494057	wordpools/wasnorm_wordpool_576.txt	LTP259	ltpFR2	1	4	ASIA	46	n/a	n/a	0	0	0
988.792	n/a	REC_WORD	494396	wordpools/wasnorm_wordpool_576.txt	LTP259	ltpFR2	1	4	CUPBOARD	425	n/a	n/a	0	0	0
989.554	n/a	REC_WORD	494777	wordpools/wasnorm_wordpool_576.txt	LTP259	ltpFR2	1	4	NAPKIN	937	n/a	n/a	0	0	0
993.406	n/a	REC_WORD	496703	wordpools/wasnorm_wordpool_576.txt	LTP259	ltpFR2	1	4	APRON	35	n/a	n/a	0	0	0
1000.128	n/a	REC_WORD	500064	wordpools/wasnorm_wordpool_576.txt	LTP259	ltpFR2	1	4	TEMPLE	1448	n/a	n/a	0	0	0
1000.862	n/a	REC_WORD	500431	wordpools/wasnorm_wordpool_576.txt	LTP259	ltpFR2	1	4	HANDBAG	684	n/a	n/a	0	0	0
1002.706	n/a	REC_WORD	501353	wordpools/wasnorm_wordpool_576.txt	LTP259	ltpFR2	1	4	GALLON	618	n/a	n/a	0	0	0
1004.548	n/a	REC_WORD	502274	wordpools/wasnorm_wordpool_576.txt	LTP259	ltpFR2	1	4	SUBWAY	1400	n/a	n/a	0	0	0
1006.618	n/a	REC_WORD	503309	wordpools/wasnorm_wordpool_576.txt	LTP259	ltpFR2	1	4	MARKER	870	n/a	n/a	0	0	0
1009.032	n/a	REC_WORD	504516	wordpools/wasnorm_wordpool_576.txt	LTP259	ltpFR2	1	4	NOTEBOOK	959	n/a	n/a	0	0	0
1010.93	n/a	REC_WORD	505465	wordpools/wasnorm_wordpool_576.txt	LTP259	ltpFR2	1	4	CIGAR	308	n/a	n/a	0	0	0
1012.71	n/a	REC_WORD	506355	wordpools/wasnorm_wordpool_576.txt	LTP259	ltpFR2	1	4	SPIDER	1351	n/a	n/a	0	0	0
1014.636	n/a	REC_WORD	507318	wordpools/wasnorm_wordpool_576.txt	LTP259	ltpFR2	1	4	CASHEW	253	n/a	n/a	0	0	0
1017.326	n/a	REC_WORD	508663	wordpools/wasnorm_wordpool_576.txt	LTP259	ltpFR2	1	4	YOLK	1633	n/a	n/a	0	0	0
1020.438	n/a	REC_WORD	510219	wordpools/wasnorm_wordpool_576.txt	LTP259	ltpFR2	1	4	INFANT	737	n/a	n/a	0	0	0
1021.984	n/a	REC_WORD	510992	wordpools/wasnorm_wordpool_576.txt	LTP259	ltpFR2	1	4	CRIB	407	n/a	n/a	0	0	0
1040.274	n/a	REC_WORD	520137	wordpools/wasnorm_wordpool_576.txt	LTP259	ltpFR2	1	4	BACON	67	n/a	n/a	0	0	0
1077.414	n/a	WORD	538707	wordpools/wasnorm_wordpool_576.txt	LTP259	ltpFR2	1	5	PROTON	1132	n/a	n/a	0	0	0
1080.076	n/a	WORD	540038	wordpools/wasnorm_wordpool_576.txt	LTP259	ltpFR2	1	5	MARROW	872	n/a	n/a	0	0	0
1082.822	n/a	WORD	541411	wordpools/wasnorm_wordpool_576.txt	LTP259	ltpFR2	1	5	FLESH	579	n/a	n/a	0	0	0
1085.402	n/a	WORD	542701	wordpools/wasnorm_wordpool_576.txt	LTP259	ltpFR2	1	5	EMPIRE	530	n/a	n/a	0	0	0
1087.982	n/a	WORD	543991	wordpools/wasnorm_wordpool_576.txt	LTP259	ltpFR2	1	5	SUNRISE	1407	n/a	n/a	0	0	0
1090.512	n/a	WORD	545256	wordpools/wasnorm_wordpool_576.txt	LTP259	ltpFR2	1	5	STAPLE	1371	n/a	n/a	0	0	0
1093.308	n/a	WORD	546654	wordpools/wasnorm_wordpool_576.txt	LTP259	ltpFR2	1	5	DANCER	437	n/a	n/a	0	0	0
1096.036	n/a	WORD	548018	wordpools/wasnorm_wordpool_576.txt	LTP259	ltpFR2	1	5	CELLAR	267	n/a	n/a	0	0	0
1098.866	n/a	WORD	549433	wordpools/wasnorm_wordpool_576.txt	LTP259	ltpFR2	1	5	CANYON	235	n/a	n/a	0	0	0
1101.412	n/a	WORD	550706	wordpools/wasnorm_wordpool_576.txt	LTP259	ltpFR2	1	5	SLOPE	1328	n/a	n/a	0	0	0
1104.008	n/a	WORD	552004	wordpools/wasnorm_wordpool_576.txt	LTP259	ltpFR2	1	5	FLASHLIGHT	575	n/a	n/a	0	0	0
1106.704	n/a	WORD	553352	wordpools/wasnorm_wordpool_576.txt	LTP259	ltpFR2	1	5	BASEMENT	94	n/a	n/a	0	0	0
1109.334	n/a	WORD	554667	wordpools/wasnorm_wordpool_576.txt	LTP259	ltpFR2	1	5	XEROX	1628	n/a	n/a	0	0	0
1112.028	n/a	WORD	556014	wordpools/wasnorm_wordpool_576.txt	LTP259	ltpFR2	1	5	DRIVER	499	n/a	n/a	0	0	0
1114.608	n/a	WORD	557304	wordpools/wasnorm_wordpool_576.txt	LTP259	ltpFR2	1	5	DENIM	446	n/a	n/a	0	0	0
1117.088	n/a	WORD	558544	wordpools/wasnorm_wordpool_576.txt	LTP259	ltpFR2	1	5	POCKET	1093	n/a	n/a	0	0	0
1119.834	n/a	WORD	559917	wordpools/wasnorm_wordpool_576.txt	LTP259	ltpFR2	1	5	SPOON	1357	n/a	n/a	0	0	0
1122.298	n/a	WORD	561149	wordpools/wasnorm_wordpool_576.txt	LTP259	ltpFR2	1	5	LAMP	798	n/a	n/a	0	0	0
1124.826	n/a	WORD	562413	wordpools/wasnorm_wordpool_576.txt	LTP259	ltpFR2	1	5	HEART	697	n/a	n/a	0	0	0
1127.324	n/a	WORD	563662	wordpools/wasnorm_wordpool_576.txt	LTP259	ltpFR2	1	5	SUNSET	1408	n/a	n/a	0	0	0
1129.902	n/a	WORD	564951	wordpools/wasnorm_wordpool_576.txt	LTP259	ltpFR2	1	5	BROTHER	179	n/a	n/a	0	0	0
1132.4	n/a	WORD	566200	wordpools/wasnorm_wordpool_576.txt	LTP259	ltpFR2	1	5	SPARROW	1347	n/a	n/a	0	0	0
1135.178	n/a	WORD	567589	wordpools/wasnorm_wordpool_576.txt	LTP259	ltpFR2	1	5	HARP	689	n/a	n/a	0	0	0
1137.892	n/a	WORD	568946	wordpools/wasnorm_wordpool_576.txt	LTP259	ltpFR2	1	5	TRANSPLANT	1496	n/a	n/a	0	0	0
1139.506	n/a	START	569753	n/a	LTP259	ltpFR2	1	n/a	n/a	n/a	7	n/a	n/a	n/a	n/a
1140.386	n/a	DISTRACTOR	570193	n/a	LTP259	ltpFR2	1	5	n/a	n/a	n/a	n/a	0	0	0
1140.388	n/a	PROB	570194	n/a	LTP259	ltpFR2	1	n/a	n/a	n/a	7	14	3	2	9
1142.85	n/a	PROB	571425	n/a	LTP259	ltpFR2	1	n/a	n/a	n/a	7	21	7	7	7
1144.432	n/a	PROB	572216	n/a	LTP259	ltpFR2	1	n/a	n/a	n/a	7	23	8	6	9
1147.244	n/a	PROB	573622	n/a	LTP259	ltpFR2	1	n/a	n/a	n/a	7	23	7	9	7
1155.148	n/a	PROB	577574	n/a	LTP259	ltpFR2	1	n/a	n/a	n/a	7	21	4	9	8
1158.578	n/a	PROB	579289	n/a	LTP259	ltpFR2	1	n/a	n/a	n/a	7	15	7	3	5
1160.108	n/a	PROB	580054	n/a	LTP259	ltpFR2	1	n/a	n/a	n/a	7	7	1	4	2
1161.656	n/a	PROB	580828	n/a	LTP259	ltpFR2	1	n/a	n/a	n/a	7	9	1	2	6
1163.118	n/a	STOP	581559	n/a	LTP259	ltpFR2	1	n/a	n/a	n/a	7	n/a	n/a	n/a	n/a
1165.268	n/a	REC_START	582634	n/a	LTP259	ltpFR2	1	5	n/a	n/a	n/a	n/a	0	0	0
1167.872	n/a	REC_WORD	583936	wordpools/wasnorm_wordpool_576.txt	LTP259	ltpFR2	1	5	TRANSPLANT	1496	n/a	n/a	0	0	0
1168.878	n/a	REC_WORD	584439	wordpools/wasnorm_wordpool_576.txt	LTP259	ltpFR2	1	5	MARROW	872	n/a	n/a	0	0	0
1169.938	n/a	REC_WORD	584969	wordpools/wasnorm_wordpool_576.txt	LTP259	ltpFR2	1	5	PROTON	1132	n/a	n/a	0	0	0
1171.206	n/a	REC_WORD	585603	wordpools/wasnorm_wordpool_576.txt	LTP259	ltpFR2	1	5	FLESH	579	n/a	n/a	0	0	0
1172.774	n/a	REC_WORD	586387	wordpools/wasnorm_wordpool_576.txt	LTP259	ltpFR2	1	5	DANCER	437	n/a	n/a	0	0	0
1173.702	n/a	REC_WORD	586851	wordpools/wasnorm_wordpool_576.txt	LTP259	ltpFR2	1	5	STAPLE	1371	n/a	n/a	0	0	0
1175.164	n/a	REC_WORD	587582	wordpools/wasnorm_wordpool_576.txt	LTP259	ltpFR2	1	5	SUNSET	1408	n/a	n/a	0	0	0
1176.164	n/a	REC_WORD_VV	588082	wordpools/wasnorm_wordpool_576.txt	LTP259	ltpFR2	1	5	<>	-1	n/a	n/a	0	0	0
1176.962	n/a	REC_WORD	588481	wordpools/wasnorm_wordpool_576.txt	LTP259	ltpFR2	1	5	SUNRISE	1407	n/a	n/a	0	0	0
1177.962	n/a	REC_WORD_VV	588981	wordpools/wasnorm_wordpool_576.txt	LTP259	ltpFR2	1	5	<>	-1	n/a	n/a	0	0	0
1180.62	n/a	REC_WORD	590310	wordpools/wasnorm_wordpool_576.txt	LTP259	ltpFR2	1	5	BROTHER	179	n/a	n/a	0	0	0
1181.606	n/a	REC_WORD	590803	wordpools/wasnorm_wordpool_576.txt	LTP259	ltpFR2	1	5	DRIVER	499	n/a	n/a	0	0	0
1183.034	n/a	REC_WORD	591517	wordpools/wasnorm_wordpool_576.txt	LTP259	ltpFR2	1	5	DENIM	446	n/a	n/a	0	0	0
1183.826	n/a	REC_WORD	591913	wordpools/wasnorm_wordpool_576.txt	LTP259	ltpFR2	1	5	POCKET	1093	n/a	n/a	0	0	0
1185.224	n/a	REC_WORD	592612	wordpools/wasnorm_wordpool_576.txt	LTP259	ltpFR2	1	5	HARP	689	n/a	n/a	0	0	0
1186.508	n/a	REC_WORD	593254	wordpools/wasnorm_wordpool_576.txt	LTP259	ltpFR2	1	5	SPOON	1357	n/a	n/a	0	0	0
1188.068	n/a	REC_WORD	594034	wordpools/wasnorm_wordpool_576.txt	LTP259	ltpFR2	1	5	LAMP	798	n/a	n/a	0	0	0
1190.612	n/a	REC_WORD	595306	wordpools/wasnorm_wordpool_576.txt	LTP259	ltpFR2	1	5	CELLAR	267	n/a	n/a	0	0	0
1192.078	n/a	REC_WORD	596039	wordpools/wasnorm_wordpool_576.txt	LTP259	ltpFR2	1	5	BASEMENT	94	n/a	n/a	0	0	0
1193.402	n/a	REC_WORD	596701	wordpools/wasnorm_wordpool_576.txt	LTP259	ltpFR2	1	5	FLASHLIGHT	575	n/a	n/a	0	0	0
1194.516	n/a	REC_WORD	597258	wordpools/wasnorm_wordpool_576.txt	LTP259	ltpFR2	1	5	SLOPE	1328	n/a	n/a	0	0	0
1206.484	n/a	REC_WORD	603242	wordpools/wasnorm_wordpool_576.txt	LTP259	ltpFR2	1	5	TRANSPLANT	1496	n/a	n/a	0	0	0
1207.694	n/a	REC_WORD	603847	wordpools/wasnorm_wordpool_576.txt	LTP259	ltpFR2	1	5	HEART	697	n/a	n/a	0	0	0
1231.982	n/a	REC_WORD	615991	wordpools/wasnorm_wordpool_576.txt	LTP259	ltpFR2	1	5	STAPLE	1371	n/a	n/a	0	0	0
1255.95	n/a	WORD	627975	wordpools/wasnorm_wordpool_576.txt	LTP259	ltpFR2	1	6	LASER	801	n/a	n/a	0	0	0
1258.48	n/a	WORD	629240	wordpools/wasnorm_wordpool_576.txt	LTP259	ltpFR2	1	6	WIDOW	1608	n/a	n/a	0	0	0
1261.292	n/a	WORD	630646	wordpools/wasnorm_wordpool_576.txt	LTP259	ltpFR2	1	6	SCRIBBLE	1256	n/a	n/a	0	0	0
1264.104	n/a	WORD	632052	wordpools/wasnorm_wordpool_576.txt	LTP259	ltpFR2	1	6	PADDING	999	n/a	n/a	0	0	0
1266.684	n/a	WORD	633342	wordpools/wasnorm_wordpool_576.txt	LTP259	ltpFR2	1	6	BUCKET	184	n/a	n/a	0	0	0
1269.28	n/a	WORD	634640	wordpools/wasnorm_wordpool_576.txt	LTP259	ltpFR2	1	6	KIDNEY	776	n/a	n/a	0	0	0
1271.826	n/a	WORD	635913	wordpools/wasnorm_wordpool_576.txt	LTP259	ltpFR2	1	6	PATROL	1027	n/a	n/a	0	0	0
1274.456	n/a	WORD	637228	wordpools/wasnorm_wordpool_576.txt	LTP259	ltpFR2	1	6	SHERIFF	1284	n/a	n/a	0	0	0
1277.052	n/a	WORD	638526	wordpools/wasnorm_wordpool_576.txt	LTP259	ltpFR2	1	6	DIME	466	n/a	n/a	0	0	0
1279.548	n/a	WORD	639774	wordpools/wasnorm_wordpool_576.txt	LTP259	ltpFR2	1	6	SMOG	1330	n/a	n/a	0	0	0
1282.16	n/a	WORD	641080	wordpools/wasnorm_wordpool_576.txt	LTP259	ltpFR2	1	6	INMATE	738	n/a	n/a	0	0	0
1284.774	n/a	WORD	642387	wordpools/wasnorm_wordpool_576.txt	LTP259	ltpFR2	1	6	SPACE	1345	n/a	n/a	0	0	0
1287.52	n/a	WORD	643760	wordpools/wasnorm_wordpool_576.txt	LTP259	ltpFR2	1	6	STAR	1373	n/a	n/a	0	0	0
1290.132	n/a	WORD	645066	wordpools/wasnorm_wordpool_576.txt	LTP259	ltpFR2	1	6	CARRIAGE	248	n/a	n/a	0	0	0
1292.762	n/a	WORD	646381	wordpools/wasnorm_wordpool_576.txt	LTP259	ltpFR2	1	6	POSSUM	1112	n/a	n/a	0	0	0
1295.358	n/a	WORD	647679	wordpools/wasnorm_wordpool_576.txt	LTP259	ltpFR2	1	6	ZIPPER	1636	n/a	n/a	0	0	0
1297.788	n/a	WORD	648894	wordpools/wasnorm_wordpool_576.txt	LTP259	ltpFR2	1	6	SNACK	1331	n/a	n/a	0	0	0
1300.6	n/a	WORD	650300	wordpools/wasnorm_wordpool_576.txt	LTP259	ltpFR2	1	6	BEAST	108	n/a	n/a	0	0	0
1303.146	n/a	WORD	651573	wordpools/wasnorm_wordpool_576.txt	LTP259	ltpFR2	1	6	BOX	159	n/a	n/a	0	0	0
1305.81	n/a	WORD	652905	wordpools/wasnorm_wordpool_576.txt	LTP259	ltpFR2	1	6	ICEBERG	731	n/a	n/a	0	0	0
1308.556	n/a	WORD	654278	wordpools/wasnorm_wordpool_576.txt	LTP259	ltpFR2	1	6	PICTURE	1061	n/a	n/a	0	0	0
1311.352	n/a	WORD	655676	wordpools/wasnorm_wordpool_576.txt	LTP259	ltpFR2	1	6	JURY	766	n/a	n/a	0	0	0
1313.964	n/a	WORD	656982	wordpools/wasnorm_wordpool_576.txt	LTP259	ltpFR2	1	6	PLAID	1080	n/a	n/a	0	0	0
1316.56	n/a	WORD	658280	wordpools/wasnorm_wordpool_576.txt	LTP259	ltpFR2	1	6	EXPERT	543	n/a	n/a	0	0	0
1318.174	n/a	START	659087	n/a	LTP259	ltpFR2	1	n/a	n/a	n/a	8	n/a	n/a	n/a	n/a
1319.178	n/a	DISTRACTOR	659589	n/a	LTP259	ltpFR2	1	6	n/a	n/a	n/a	n/a	0	0	0
1319.188	n/a	PROB	659594	n/a	LTP259	ltpFR2	1	n/a	n/a	n/a	8	5	2	2	1
1320.72	n/a	PROB	660360	n/a	LTP259	ltpFR2	1	n/a	n/a	n/a	8	19	5	8	6
1323.484	n/a	PROB	661742	n/a	LTP259	ltpFR2	1	n/a	n/a	n/a	8	14	2	7	5
1325.298	n/a	PROB	662649	n/a	LTP259	ltpFR2	1	n/a	n/a	n/a	8	13	3	8	2
1326.912	n/a	PROB	663456	n/a	LTP259	ltpFR2	1	n/a	n/a	n/a	8	15	9	1	5
1328.326	n/a	PROB	664163	n/a	LTP259	ltpFR2	1	n/a	n/a	n/a	8	13	3	4	6
1329.906	n/a	PROB	664953	n/a	LTP259	ltpFR2	1	n/a	n/a	n/a	8	14	4	1	9
1331.304	n/a	PROB	665652	n/a	LTP259	ltpFR2	1	n/a	n/a	n/a	8	11	6	1	4
1332.952	n/a	PROB	666476	n/a	LTP259	ltpFR2	1	n/a	n/a	n/a	8	17	3	8	6
1335.316	n/a	PROB	667658	n/a	LTP259	ltpFR2	1	n/a	n/a	n/a	8	12	3	1	8
1338.878	n/a	PROB	669439	n/a	LTP259	ltpFR2	1	n/a	n/a	n/a	8	8	2	5	1
1342.174	n/a	STOP	671087	n/a	LTP259	ltpFR2	1	n/a	n/a	n/a	8	n/a	n/a	n/a	n/a
1343.97	n/a	REC_START	671985	n/a	LTP259	ltpFR2	1	6	n/a	n/a	n/a	n/a	0	0	0
1347.996	n/a	REC_WORD	673998	wordpools/wasnorm_wordpool_576.txt	LTP259	ltpFR2	1	6	WIDOW	1608	n/a	n/a	0	0	0
1350.144	n/a	REC_WORD	675072	wordpools/wasnorm_wordpool_576.txt	LTP259	ltpFR2	1	6	LASER	801	n/a	n/a	0	0	0
1359.752	n/a	REC_WORD	679876	wordpools/wasnorm_wordpool_576.txt	LTP259	ltpFR2	1	6	PICTURE	1061	n/a	n/a	0	0	0
1361.422	n/a	REC_WORD	680711	wordpools/wasnorm_wordpool_576.txt	LTP259	ltpFR2	1	6	ICEBERG	731	n/a	n/a	0	0	0
1363.77	n/a	REC_WORD	681885	wordpools/wasnorm_wordpool_576.txt	LTP259	ltpFR2	1	6	PADDING	999	n/a	n/a	0	0	0
1365.276	n/a	REC_WORD	682638	wordpools/wasnorm_wordpool_576.txt	LTP259	ltpFR2	1	6	PADDING	999	n/a	n/a	0	0	0
1370.928	n/a	REC_WORD	685464	wordpools/wasnorm_wordpool_576.txt	LTP259	ltpFR2	1	6	INMATE	738	n/a	n/a	0	0	0
1372.42	n/a	REC_WORD	686210	wordpools/wasnorm_wordpool_576.txt	LTP259	ltpFR2	1	6	SHERIFF	1284	n/a	n/a	0	0	0
1373.514	n/a	REC_WORD	686757	wordpools/wasnorm_wordpool_576.txt	LTP259	ltpFR2	1	6	PATROL	1027	n/a	n/a	0	0	0
1375.58	n/a	REC_WORD	687790	wordpools/wasnorm_wordpool_576.txt	LTP259	ltpFR2	1	6	CARRIAGE	248	n/a	n/a	0	0	0
1376.596	n/a	REC_WORD	688298	wordpools/wasnorm_wordpool_576.txt	LTP259	ltpFR2	1	6	STAR	1373	n/a	n/a	0	0	0
1378.022	n/a	REC_WORD	689011	wordpools/wasnorm_wordpool_576.txt	LTP259	ltpFR2	1	6	SPACE	1345	n/a	n/a	0	0	0
1382.808	n/a	REC_WORD	691404	wordpools/wasnorm_wordpool_576.txt	LTP259	ltpFR2	1	6	ZIPPER	1636	n/a	n/a	0	0	0
1383.658	n/a	REC_WORD	691829	wordpools/wasnorm_wordpool_576.txt	LTP259	ltpFR2	1	6	POSSUM	1112	n/a	n/a	0	0	0
1385.498	n/a	REC_WORD	692749	wordpools/wasnorm_wordpool_576.txt	LTP259	ltpFR2	1	6	BOX	159	n/a	n/a	0	0	0
1386.806	n/a	REC_WORD	693403	wordpools/wasnorm_wordpool_576.txt	LTP259	ltpFR2	1	6	BEAST	108	n/a	n/a	0	0	0
1393.836	n/a	REC_WORD	696918	wordpools/wasnorm_wordpool_576.txt	LTP259	ltpFR2	1	6	PLAID	1080	n/a	n/a	0	0	0
1395.356	n/a	REC_WORD	697678	wordpools/wasnorm_wordpool_576.txt	LTP259	ltpFR2	1	6	JURY	766	n/a	n/a	0	0	0
1396.686	n/a	REC_WORD	698343	wordpools/wasnorm_wordpool_576.txt	LTP259	ltpFR2	1	6	EXPERT	543	n/a	n/a	0	0	0
1411.058	n/a	REC_WORD	705529	wordpools/wasnorm_wordpool_576.txt	LTP259	ltpFR2	1	6	DRAWING	494	n/a	n/a	0	0	0
1434.652	n/a	WORD	717326	wordpools/wasnorm_wordpool_576.txt	LTP259	ltpFR2	1	7	OZONE	996	n/a	n/a	0	0	0
1437.264	n/a	WORD	718632	wordpools/wasnorm_wordpool_576.txt	LTP259	ltpFR2	1	7	BALLOON	75	n/a	n/a	0	0	0
1439.812	n/a	WORD	719906	wordpools/wasnorm_wordpool_576.txt	LTP259	ltpFR2	1	7	PIGMENT	1066	n/a	n/a	0	0	0
1442.558	n/a	WORD	721279	wordpools/wasnorm_wordpool_576.txt	LTP259	ltpFR2	1	7	BULLET	194	n/a	n/a	0	0	0
1445.186	n/a	WORD	722593	wordpools/wasnorm_wordpool_576.txt	LTP259	ltpFR2	1	7	AIRPLANE	12	n/a	n/a	0	0	0
1447.85	n/a	WORD	723925	wordpools/wasnorm_wordpool_576.txt	LTP259	ltpFR2	1	7	LIVER	833	n/a	n/a	0	0	0
1450.662	n/a	WORD	725331	wordpools/wasnorm_wordpool_576.txt	LTP259	ltpFR2	1	7	STREAM	1392	n/a	n/a	0	0	0
1453.324	n/a	WORD	726662	wordpools/wasnorm_wordpool_576.txt	LTP259	ltpFR2	1	7	PARENT	1013	n/a	n/a	0	0	0
1455.97	n/a	WORD	727985	wordpools/wasnorm_wordpool_576.txt	LTP259	ltpFR2	1	7	PISTOL	1075	n/a	n/a	0	0	0
1458.418	n/a	WORD	729209	wordpools/wasnorm_wordpool_576.txt	LTP259	ltpFR2	1	7	VENUS	1557	n/a	n/a	0	0	0
1461.162	n/a	WORD	730581	wordpools/wasnorm_wordpool_576.txt	LTP259	ltpFR2	1	7	TURKEY	1520	n/a	n/a	0	0	0
1463.858	n/a	WORD	731929	wordpools/wasnorm_wordpool_576.txt	LTP259	ltpFR2	1	7	LETTUCE	814	n/a	n/a	0	0	0
1466.356	n/a	WORD	733178	wordpools/wasnorm_wordpool_576.txt	LTP259	ltpFR2	1	7	HAWK	692	n/a	n/a	0	0	0
1468.934	n/a	WORD	734467	wordpools/wasnorm_wordpool_576.txt	LTP259	ltpFR2	1	7	FRECKLE	602	n/a	n/a	0	0	0
1471.48	n/a	WORD	735740	wordpools/wasnorm_wordpool_576.txt	LTP259	ltpFR2	1	7	FOREHEAD	592	n/a	n/a	0	0	0
1474.194	n/a	WORD	737097	wordpools/wasnorm_wordpool_576.txt	LTP259	ltpFR2	1	7	CHAMPAGNE	278	n/a	n/a	0	0	0
1476.99	n/a	WORD	738495	wordpools/wasnorm_wordpool_576.txt	LTP259	ltpFR2	1	7	TREAT	1501	n/a	n/a	0	0	0
1479.57	n/a	WORD	739785	wordpools/wasnorm_wordpool_576.txt	LTP259	ltpFR2	1	7	COWBOY	395	n/a	n/a	0	0	0
1482.148	n/a	WORD	741074	wordpools/wasnorm_wordpool_576.txt	LTP259	ltpFR2	1	7	PAIL	1002	n/a	n/a	0	0	0
1484.896	n/a	WORD	742448	wordpools/wasnorm_wordpool_576.txt	LTP259	ltpFR2	1	7	JELLY	755	n/a	n/a	0	0	0
1487.324	n/a	WORD	743662	wordpools/wasnorm_wordpool_576.txt	LTP259	ltpFR2	1	7	WIFE	1609	n/a	n/a	0	0	0
1489.804	n/a	WORD	744902	wordpools/wasnorm_wordpool_576.txt	LTP259	ltpFR2	1	7	BEEF	113	n/a	n/a	0	0	0
1492.35	n/a	WORD	746175	wordpools/wasnorm_wordpool_576.txt	LTP259	ltpFR2	1	7	KITCHEN	778	n/a	n/a	0	0	0
1494.864	n/a	WORD	747432	wordpools/wasnorm_wordpool_576.txt	LTP259	ltpFR2	1	7	NECKLACE	940	n/a	n/a	0	0	0
1496.478	n/a	START	748239	n/a	LTP259	ltpFR2	1	n/a	n/a	n/a	9	n/a	n/a	n/a	n/a
1497.366	n/a	DISTRACTOR	748683	n/a	LTP259	ltpFR2	1	7	n/a	n/a	n/a	n/a	0	0	0
1497.376	n/a	PROB	748688	n/a	LTP259	ltpFR2	1	n/a	n/a	n/a	9	21	8	7	6
1500.238	n/a	PROB	750119	n/a	LTP259	ltpFR2	1	n/a	n/a	n/a	9	11	7	3	1
1501.87	n/a	PROB	750935	n/a	LTP259	ltpFR2	1	n/a	n/a	n/a	9	9	7	1	1
1503.8	n/a	PROB	751900	n/a	LTP259	ltpFR2	1	n/a	n/a	n/a	9	17	8	6	3
1506.646	n/a	PROB	753323	n/a	LTP259	ltpFR2	1	n/a	n/a	n/a	9	15	1	5	9
1508.376	n/a	PROB	754188	n/a	LTP259	ltpFR2	1	n/a	n/a	n/a	9	12	2	9	1
1509.758	n/a	PROB	754879	n/a	LTP259	ltpFR2	1	n/a	n/a	n/a	9	15	6	7	2
1513.086	n/a	PROB	756543	n/a	LTP259	ltpFR2	1	n/a	n/a	n/a	9	13	1	8	4
1515.966	n/a	PROB	757983	n/a	LTP259	ltpFR2	1	n/a	n/a	n/a	9	16	8	3	5
1518.194	n/a	PROB	759097	n/a	LTP259	ltpFR2	1	n/a	n/a	n/a	9	17	9	7	1
1519.996	n/a	STOP	759998	n/a	LTP259	ltpFR2	1	n/a	n/a	n/a	9	n/a	n/a	n/a	n/a
1522.356	n/a	REC_START	761178	n/a	LTP259	ltpFR2	1	7	n/a	n/a	n/a	n/a	0	0	0
1523.248	n/a	REC_WORD	761624	wordpools/wasnorm_wordpool_576.txt	LTP259	ltpFR2	1	7	PAIL	1002	n/a	n/a	0	0	0
1524.744	n/a	REC_WORD	762372	wordpools/wasnorm_wordpool_576.txt	LTP259	ltpFR2	1	7	WIFE	1609	n/a	n/a	0	0	0
1525.838	n/a	REC_WORD	762919	wordpools/wasnorm_wordpool_576.txt	LTP259	ltpFR2	1	7	JELLY	755	n/a	n/a	0	0	0
1528.212	n/a	REC_WORD	764106	wordpools/wasnorm_wordpool_576.txt	LTP259	ltpFR2	1	7	FARMER	553	n/a	n/a	0	0	0
1529.5	n/a	REC_WORD	764750	wordpools/wasnorm_wordpool_576.txt	LTP259	ltpFR2	1	7	COWBOY	395	n/a	n/a	0	0	0
1532.174	n/a	REC_WORD	766087	wordpools/wasnorm_wordpool_576.txt	LTP259	ltpFR2	1	7	AIRPLANE	12	n/a	n/a	0	0	0
1533.174	n/a	REC_WORD	766587	wordpools/wasnorm_wordpool_576.txt	LTP259	ltpFR2	1	7	VENUS	1557	n/a	n/a	0	0	0
1534.204	n/a	REC_WORD	767102	wordpools/wasnorm_wordpool_576.txt	LTP259	ltpFR2	1	7	HAWK	692	n/a	n/a	0	0	0
1535.692	n/a	REC_WORD	767846	wordpools/wasnorm_wordpool_576.txt	LTP259	ltpFR2	1	7	LETTUCE	814	n/a	n/a	0	0	0
1537.152	n/a	REC_WORD	768576	wordpools/wasnorm_wordpool_576.txt	LTP259	ltpFR2	1	7	TURKEY	1520	n/a	n/a	0	0	0
1539.422	n/a	REC_WORD	769711	wordpools/wasnorm_wordpool_576.txt	LTP259	ltpFR2	1	7	STREAM	1392	n/a	n/a	0	0	0
1540.794	n/a	REC_WORD	770397	wordpools/wasnorm_wordpool_576.txt	LTP259	ltpFR2	1	7	LIVER	833	n/a	n/a	0	0	0
1543.468	n/a	REC_WORD_VV	771734	wordpools/wasnorm_wordpool_576.txt	LTP259	ltpFR2	1	7	<>	-1	n/a	n/a	0	0	0
1543.922	n/a	REC_WORD	771961	wordpools/wasnorm_wordpool_576.txt	LTP259	ltpFR2	1	7	PARENT	1013	n/a	n/a	0	0	0
1547.134	n/a	REC_WORD	773567	wordpools/wasnorm_wordpool_576.txt	LTP259	ltpFR2	1	7	OZONE	996	n/a	n/a	0	0	0
1548.508	n/a	REC_WORD	774254	wordpools/wasnorm_wordpool_576.txt	LTP259	ltpFR2	1	7	BALLOON	75	n/a	n/a	0	0	0
1549.432	n/a	REC_WORD	774716	wordpools/wasnorm_wordpool_576.txt	LTP259	ltpFR2	1	7	PIGMENT	1066	n/a	n/a	0	0	0
1550.474	n/a	REC_WORD	775237	wordpools/wasnorm_wordpool_576.txt	LTP259	ltpFR2	1	7	BULLET	194	n/a	n/a	0	0	0
1554.702	n/a	REC_WORD	777351	wordpools/wasnorm_wordpool_576.txt	LTP259	ltpFR2	1	7	CHAMPAGNE	278	n/a	n/a	0	0	0
1556.08	n/a	REC_WORD	778040	wordpools/wasnorm_wordpool_576.txt	LTP259	ltpFR2	1	7	TREAT	1501	n/a	n/a	0	0	0
1571.772	n/a	REC_WORD	785886	wordpools/wasnorm_wordpool_576.txt	LTP259	ltpFR2	1	7	PISTOL	1075	n/a	n/a	0	0	0
1613.006	n/a	DISTRACTOR	806503	n/a	LTP259	ltpFR2	1	8	n/a	n/a	n/a	n/a	0	0	0
1613.006	n/a	START	806503	n/a	LTP259	ltpFR2	1	n/a	n/a	n/a	10	n/a	n/a	n/a	n/a
1613.038	n/a	PROB	806519	n/a	LTP259	ltpFR2	1	n/a	n/a	n/a	10	12	3	1	8
1615.868	n/a	PROB	807934	n/a	LTP259	ltpFR2	1	n/a	n/a	n/a	10	16	1	8	7
1617.7	n/a	PROB	808850	n/a	LTP259	ltpFR2	1	n/a	n/a	n/a	10	15	5	8	2
1619.246	n/a	PROB	809623	n/a	LTP259	ltpFR2	1	n/a	n/a	n/a	10	12	5	5	2
1620.944	n/a	PROB	810472	n/a	LTP259	ltpFR2	1	n/a	n/a	n/a	10	17	3	8	6
1623.606	n/a	PROB	811803	n/a	LTP259	ltpFR2	1	n/a	n/a	n/a	10	17	5	8	3
1626.202	n/a	PROB	813101	n/a	LTP259	ltpFR2	1	n/a	n/a	n/a	10	25	7	9	9
1631.378	n/a	PROB	815689	n/a	LTP259	ltpFR2	1	n/a	n/a	n/a	10	14	4	4	6
1632.992	n/a	PROB	816496	n/a	LTP259	ltpFR2	1	n/a	n/a	n/a	10	17	6	4	7
1635.206	n/a	PROB	817603	n/a	LTP259	ltpFR2	1	n/a	n/a	n/a	10	24	8	8	8
1636.782	n/a	STOP	818391	n/a	LTP259	ltpFR2	1	n/a	n/a	n/a	10	n/a	n/a	n/a	n/a
1637.968	n/a	WORD	818984	wordpools/wasnorm_wordpool_576.txt	LTP259	ltpFR2	1	8	WAITRESS	1581	n/a	n/a	0	0	0
1640.514	n/a	WORD	820257	wordpools/wasnorm_wordpool_576.txt	LTP259	ltpFR2	1	8	SHELF	1280	n/a	n/a	0	0	0
1643.044	n/a	WORD	821522	wordpools/wasnorm_wordpool_576.txt	LTP259	ltpFR2	1	8	RECORD	1176	n/a	n/a	0	0	0
1645.574	n/a	WORD	822787	wordpools/wasnorm_wordpool_576.txt	LTP259	ltpFR2	1	8	ATLAS	53	n/a	n/a	0	0	0
1648.252	n/a	WORD	824126	wordpools/wasnorm_wordpool_576.txt	LTP259	ltpFR2	1	8	DAISY	435	n/a	n/a	0	0	0
1650.716	n/a	WORD	825358	wordpools/wasnorm_wordpool_576.txt	LTP259	ltpFR2	1	8	COUCH	386	n/a	n/a	0	0	0
1653.178	n/a	WORD	826589	wordpools/wasnorm_wordpool_576.txt	LTP259	ltpFR2	1	8	TABLE	1426	n/a	n/a	0	0	0
1655.908	n/a	WORD	827954	wordpools/wasnorm_wordpool_576.txt	LTP259	ltpFR2	1	8	FLAG	573	n/a	n/a	0	0	0
1658.688	n/a	WORD	829344	wordpools/wasnorm_wordpool_576.txt	LTP259	ltpFR2	1	8	CLOCK	325	n/a	n/a	0	0	0
1661.5	n/a	WORD	830750	wordpools/wasnorm_wordpool_576.txt	LTP259	ltpFR2	1	8	ZEBRA	1635	n/a	n/a	0	0	0
1664.146	n/a	WORD	832073	wordpools/wasnorm_wordpool_576.txt	LTP259	ltpFR2	1	8	ROOSTER	1209	n/a	n/a	0	0	0
1666.742	n/a	WORD	833371	wordpools/wasnorm_wordpool_576.txt	LTP259	ltpFR2	1	8	BRAKE	166	n/a	n/a	0	0	0
1669.456	n/a	WORD	834728	wordpools/wasnorm_wordpool_576.txt	LTP259	ltpFR2	1	8	DONKEY	484	n/a	n/a	0	0	0
1672.266	n/a	WORD	836133	wordpools/wasnorm_wordpool_576.txt	LTP259	ltpFR2	1	8	DRILL	497	n/a	n/a	0	0	0
1674.93	n/a	WORD	837465	wordpools/wasnorm_wordpool_576.txt	LTP259	ltpFR2	1	8	CRATER	400	n/a	n/a	0	0	0
1677.544	n/a	WORD	838772	wordpools/wasnorm_wordpool_576.txt	LTP259	ltpFR2	1	8	DRESSER	496	n/a	n/a	0	0	0
1680.024	n/a	WORD	840012	wordpools/wasnorm_wordpool_576.txt	LTP259	ltpFR2	1	8	PLASTER	1085	n/a	n/a	0	0	0
1682.554	n/a	WORD	841277	wordpools/wasnorm_wordpool_576.txt	LTP259	ltpFR2	1	8	SCISSORS	1250	n/a	n/a	0	0	0
1685.048	n/a	WORD	842524	wordpools/wasnorm_wordpool_576.txt	LTP259	ltpFR2	1	8	CLAM	315	n/a	n/a	0	0	0
1687.546	n/a	WORD	843773	wordpools/wasnorm_wordpool_576.txt	LTP259	ltpFR2	1	8	TURTLE	1522	n/a	n/a	0	0	0
1690.108	n/a	WORD	845054	wordpools/wasnorm_wordpool_576.txt	LTP259	ltpFR2	1	8	SPHINX	1349	n/a	n/a	0	0	0
1692.904	n/a	WORD	846452	wordpools/wasnorm_wordpool_576.txt	LTP259	ltpFR2	1	8	BRANDY	169	n/a	n/a	0	0	0
1695.518	n/a	WORD	847759	wordpools/wasnorm_wordpool_576.txt	LTP259	ltpFR2	1	8	LONDON	843	n/a	n/a	0	0	0
1698.062	n/a	WORD	849031	wordpools/wasnorm_wordpool_576.txt	LTP259	ltpFR2	1	8	ORCHID	982	n/a	n/a	0	0	0
1699.678	n/a	START	849839	n/a	LTP259	ltpFR2	1	n/a	n/a	n/a	11	n/a	n/a	n/a	n/a
1700.768	n/a	DISTRACTOR	850384	n/a	LTP259	ltpFR2	1	8	n/a	n/a	n/a	n/a	0	0	0
1700.776	n/a	PROB	850388	n/a	LTP259	ltpFR2	1	n/a	n/a	n/a	11	24	9	8	7
1703.088	n/a	PROB	851544	n/a	LTP259	ltpFR2	1	n/a	n/a	n/a	11	18	5	5	8
1704.654	n/a	PROB	852327	n/a	LTP259	ltpFR2	1	n/a	n/a	n/a	11	17	6	6	5
1707.248	n/a	PROB	853624	n/a	LTP259	ltpFR2	1	n/a	n/a	n/a	11	22	7	8	7
1710.296	n/a	PROB	855148	n/a	LTP259	ltpFR2	1	n/a	n/a	n/a	11	16	8	6	2
1713.34	n/a	PROB	856670	n/a	LTP259	ltpFR2	1	n/a	n/a	n/a	11	19	9	8	2
1715.92	n/a	PROB	857960	n/a	LTP259	ltpFR2	1	n/a	n/a	n/a	11	15	4	9	2
1717.8	n/a	PROB	858900	n/a	LTP259	ltpFR2	1	n/a	n/a	n/a	11	12	4	7	1
1720.28	n/a	PROB	860140	n/a	LTP259	ltpFR2	1	n/a	n/a	n/a	11	19	9	7	3
1723.678	n/a	STOP	861839	n/a	LTP259	ltpFR2	1	n/a	n/a	n/a	11	n/a	n/a	n/a	n/a
1725.54	n/a	REC_START	862770	n/a	LTP259	ltpFR2	1	8	n/a	n/a	n/a	n/a	0	0	0
1728.77	n/a	REC_WORD	864385	wordpools/wasnorm_wordpool_576.txt	LTP259	ltpFR2	1	8	LONDON	843	n/a	n/a	0	0	0
1729.858	n/a	REC_WORD	864929	wordpools/wasnorm_wordpool_576.txt	LTP259	ltpFR2	1	8	WAITRESS	1581	n/a	n/a	0	0	0
1731.526	n/a	REC_WORD	865763	wordpools/wasnorm_wordpool_576.txt	LTP259	ltpFR2	1	8	COUCH	386	n/a	n/a	0	0	0
1732.468	n/a	REC_WORD	866234	wordpools/wasnorm_wordpool_576.txt	LTP259	ltpFR2	1	8	TABLE	1426	n/a	n/a	0	0	0
1733.604	n/a	REC_WORD	866802	wordpools/wasnorm_wordpool_576.txt	LTP259	ltpFR2	1	8	CLOCK	325	n/a	n/a	0	0	0
1734.892	n/a	REC_WORD	867446	wordpools/wasnorm_wordpool_576.txt	LTP259	ltpFR2	1	8	ZEBRA	1635	n/a	n/a	0	0	0
1736.338	n/a	REC_WORD	868169	wordpools/wasnorm_wordpool_576.txt	LTP259	ltpFR2	1	8	SPHINX	1349	n/a	n/a	0	0	0
1737.486	n/a	REC_WORD	868743	wordpools/wasnorm_wordpool_576.txt	LTP259	ltpFR2	1	8	TURTLE	1522	n/a	n/a	0	0	0
1740.176	n/a	REC_WORD	870088	wordpools/wasnorm_wordpool_576.txt	LTP259	ltpFR2	1	8	DONKEY	484	n/a	n/a	0	0	0
1741.398	n/a	REC_WORD	870699	wordpools/wasnorm_wordpool_576.txt	LTP259	ltpFR2	1	8	BRAKE	166	n/a	n/a	0	0	0
1742.414	n/a	REC_WORD	871207	wordpools/wasnorm_wordpool_576.txt	LTP259	ltpFR2	1	8	DRILL	497	n/a	n/a	0	0	0
1743.76	n/a	REC_WORD	871880	wordpools/wasnorm_wordpool_576.txt	LTP259	ltpFR2	1	8	CAVERN	-1	n/a	n/a	0	0	0
1752.364	n/a	REC_WORD	876182	wordpools/wasnorm_wordpool_576.txt	LTP259	ltpFR2	1	8	ATLAS	53	n/a	n/a	0	0	0
1757.652	n/a	REC_WORD	878826	wordpools/wasnorm_wordpool_576.txt	LTP259	ltpFR2	1	8	FLAG	573	n/a	n/a	0	0	0
1771.674	n/a	REC_WORD	885837	wordpools/wasnorm_wordpool_576.txt	LTP259	ltpFR2	1	8	CUPBOARD	425	n/a	n/a	0	0	0
1772.55	n/a	REC_WORD	886275	wordpools/wasnorm_wordpool_576.txt	LTP259	ltpFR2	1	8	SHELF	1280	n/a	n/a	0	0	0
1802.174	n/a	REST_REWET	901087	n/a	LTP259	ltpFR2	1	8	n/a	n/a	n/a	n/a	0	0	0
2212.42	n/a	DISTRACTOR	1106210	n/a	LTP259	ltpFR2	1	9	n/a	n/a	n/a	n/a	0	0	0
2212.42	n/a	START	1106210	n/a	LTP259	ltpFR2	1	n/a	n/a	n/a	12	n/a	n/a	n/a	n/a
2212.452	n/a	PROB	1106226	n/a	LTP259	ltpFR2	1	n/a	n/a	n/a	12	17	3	7	7
2215.532	n/a	PROB	1107766	n/a	LTP259	ltpFR2	1	n/a	n/a	n/a	12	14	8	4	2
2217.26	n/a	PROB	1108630	n/a	LTP259	ltpFR2	1	n/a	n/a	n/a	12	19	2	9	8
2220.558	n/a	PROB	1110279	n/a	LTP259	ltpFR2	1	n/a	n/a	n/a	12	15	5	8	2
2222.27	n/a	PROB	1111135	n/a	LTP259	ltpFR2	1	n/a	n/a	n/a	12	12	4	1	7
2224.136	n/a	PROB	1112068	n/a	LTP259	ltpFR2	1	n/a	n/a	n/a	12	15	5	2	8
2226.034	n/a	PROB	1113017	n/a	LTP259	ltpFR2	1	n/a	n/a	n/a	12	16	6	2	8
2227.432	n/a	PROB	1113716	n/a	LTP259	ltpFR2	1	n/a	n/a	n/a	12	14	2	3	9
2229.628	n/a	PROB	1114814	n/a	LTP259	ltpFR2	1	n/a	n/a	n/a	12	23	6	8	9
2231.992	n/a	PROB	1115996	n/a	LTP259	ltpFR2	1	n/a	n/a	n/a	12	12	1	7	4
2234.27	n/a	PROB	1117135	n/a	LTP259	ltpFR2	1	n/a	n/a	n/a	12	15	5	8	2
2235.574	n/a	STOP	1117787	n/a	LTP259	ltpFR2	1	n/a	n/a	n/a	12	n/a	n/a	n/a	n/a
2237.316	n/a	WORD	1118658	wordpools/wasnorm_wordpool_576.txt	LTP259	ltpFR2	1	9	DANDRUFF	439	n/a	n/a	0	0	0
2239.88	n/a	WORD	1119940	wordpools/wasnorm_wordpool_576.txt	LTP259	ltpFR2	1	9	BUG	187	n/a	n/a	0	0	0
2242.442	n/a	WORD	1121221	wordpools/wasnorm_wordpool_576.txt	LTP259	ltpFR2	1	9	SAUSAGE	1238	n/a	n/a	0	0	0
2245.022	n/a	WORD	1122511	wordpools/wasnorm_wordpool_576.txt	LTP259	ltpFR2	1	9	THIEF	1456	n/a	n/a	0	0	0
2247.718	n/a	WORD	1123859	wordpools/wasnorm_wordpool_576.txt	LTP259	ltpFR2	1	9	BRANCH	168	n/a	n/a	0	0	0
2250.496	n/a	WORD	1125248	wordpools/wasnorm_wordpool_576.txt	LTP259	ltpFR2	1	9	JUNGLE	764	n/a	n/a	0	0	0
2253.026	n/a	WORD	1126513	wordpools/wasnorm_wordpool_576.txt	LTP259	ltpFR2	1	9	PASTA	1021	n/a	n/a	0	0	0
2255.806	n/a	WORD	1127903	wordpools/wasnorm_wordpool_576.txt	LTP259	ltpFR2	1	9	FOOTBALL	591	n/a	n/a	0	0	0
2258.602	n/a	WORD	1129301	wordpools/wasnorm_wordpool_576.txt	LTP259	ltpFR2	1	9	SHOVEL	1295	n/a	n/a	0	0	0
2261.046	n/a	WORD	1130523	wordpools/wasnorm_wordpool_576.txt	LTP259	ltpFR2	1	9	PANTHER	1009	n/a	n/a	0	0	0
2263.628	n/a	WORD	1131814	wordpools/wasnorm_wordpool_576.txt	LTP259	ltpFR2	1	9	TROUT	1511	n/a	n/a	0	0	0
2266.138	n/a	WORD	1133069	wordpools/wasnorm_wordpool_576.txt	LTP259	ltpFR2	1	9	POET	1095	n/a	n/a	0	0	0
2268.77	n/a	WORD	1134385	wordpools/wasnorm_wordpool_576.txt	LTP259	ltpFR2	1	9	JOURNAL	760	n/a	n/a	0	0	0
2271.348	n/a	WORD	1135674	wordpools/wasnorm_wordpool_576.txt	LTP259	ltpFR2	1	9	LION	827	n/a	n/a	0	0	0
2274.11	n/a	WORD	1137055	wordpools/wasnorm_wordpool_576.txt	LTP259	ltpFR2	1	9	THREAD	1460	n/a	n/a	0	0	0
2276.824	n/a	WORD	1138412	wordpools/wasnorm_wordpool_576.txt	LTP259	ltpFR2	1	9	YARN	1631	n/a	n/a	0	0	0
2279.288	n/a	WORD	1139644	wordpools/wasnorm_wordpool_576.txt	LTP259	ltpFR2	1	9	MACHINE	852	n/a	n/a	0	0	0
2282.098	n/a	WORD	1141049	wordpools/wasnorm_wordpool_576.txt	LTP259	ltpFR2	1	9	HELMET	702	n/a	n/a	0	0	0
2284.58	n/a	WORD	1142290	wordpools/wasnorm_wordpool_576.txt	LTP259	ltpFR2	1	9	PARROT	1015	n/a	n/a	0	0	0
2287.374	n/a	WORD	1143687	wordpools/wasnorm_wordpool_576.txt	LTP259	ltpFR2	1	9	AIRPORT	13	n/a	n/a	0	0	0
2289.954	n/a	WORD	1144977	wordpools/wasnorm_wordpool_576.txt	LTP259	ltpFR2	1	9	SADDLE	1221	n/a	n/a	0	0	0
2292.652	n/a	WORD	1146326	wordpools/wasnorm_wordpool_576.txt	LTP259	ltpFR2	1	9	SUPPER	1411	n/a	n/a	0	0	0
2295.398	n/a	WORD	1147699	wordpools/wasnorm_wordpool_576.txt	LTP259	ltpFR2	1	9	SHARK	1275	n/a	n/a	0	0	0
2297.994	n/a	WORD	1148997	wordpools/wasnorm_wordpool_576.txt	LTP259	ltpFR2	1	9	SOFTBALL	1343	n/a	n/a	0	0	0
2299.608	n/a	START	1149804	n/a	LTP259	ltpFR2	1	n/a	n/a	n/a	13	n/a	n/a	n/a	n/a
2300.796	n/a	DISTRACTOR	1150398	n/a	LTP259	ltpFR2	1	9	n/a	n/a	n/a	n/a	0	0	0
2300.806	n/a	PROB	1150403	n/a	LTP259	ltpFR2	1	n/a	n/a	n/a	13	15	7	1	7
2302.952	n/a	PROB	1151476	n/a	LTP259	ltpFR2	1	n/a	n/a	n/a	13	5	2	2	1
2304.35	n/a	PROB	1152175	n/a	LTP259	ltpFR2	1	n/a	n/a	n/a	13	17	8	4	5
2307.796	n/a	PROB	1153898	n/a	LTP259	ltpFR2	1	n/a	n/a	n/a	13	20	7	9	4
2310.708	n/a	PROB	1155354	n/a	LTP259	ltpFR2	1	n/a	n/a	n/a	13	13	4	1	8
2312.506	n/a	PROB	1156253	n/a	LTP259	ltpFR2	1	n/a	n/a	n/a	13	9	7	1	1
2313.886	n/a	PROB	1156943	n/a	LTP259	ltpFR2	1	n/a	n/a	n/a	13	11	4	6	1
2315.684	n/a	PROB	1157842	n/a	LTP259	ltpFR2	1	n/a	n/a	n/a	13	16	5	2	9
2317.348	n/a	PROB	1158674	n/a	LTP259	ltpFR2	1	n/a	n/a	n/a	13	11	1	1	9
2318.712	n/a	PROB	1159356	n/a	LTP259	ltpFR2	1	n/a	n/a	n/a	13	14	4	8	2
2320.21	n/a	PROB	1160105	n/a	LTP259	ltpFR2	1	n/a	n/a	n/a	13	9	1	2	6
2323.608	n/a	STOP	1161804	n/a	LTP259	ltpFR2	1	n/a	n/a	n/a	13	n/a	n/a	n/a	n/a
2325.502	n/a	REC_START	1162751	n/a	LTP259	ltpFR2	1	9	n/a	n/a	n/a	n/a	0	0	0
2326.374	n/a	REC_WORD	1163187	wordpools/wasnorm_wordpool_576.txt	LTP259	ltpFR2	1	9	SHOVEL	1295	n/a	n/a	0	0	0
2327.368	n/a	REC_WORD	1163684	wordpools/wasnorm_wordpool_576.txt	LTP259	ltpFR2	1	9	FOOTBALL	591	n/a	n/a	0	0	0
2328.368	n/a	REC_WORD_VV	1164184	wordpools/wasnorm_wordpool_576.txt	LTP259	ltpFR2	1	9	<>	-1	n/a	n/a	0	0	0
2329.2	n/a	REC_WORD	1164600	wordpools/wasnorm_wordpool_576.txt	LTP259	ltpFR2	1	9	POET	1095	n/a	n/a	0	0	0
2330.126	n/a	REC_WORD	1165063	wordpools/wasnorm_wordpool_576.txt	LTP259	ltpFR2	1	9	PASTA	1021	n/a	n/a	0	0	0
2331.128	n/a	REC_WORD	1165564	wordpools/wasnorm_wordpool_576.txt	LTP259	ltpFR2	1	9	BUG	187	n/a	n/a	0	0	0
2332.518	n/a	REC_WORD	1166259	wordpools/wasnorm_wordpool_576.txt	LTP259	ltpFR2	1	9	DANDRUFF	439	n/a	n/a	0	0	0
2334.884	n/a	REC_WORD_VV	1167442	wordpools/wasnorm_wordpool_576.txt	LTP259	ltpFR2	1	9	<>	-1	n/a	n/a	0	0	0
2339.544	n/a	REC_WORD	1169772	wordpools/wasnorm_wordpool_576.txt	LTP259	ltpFR2	1	9	SAUSAGE	1238	n/a	n/a	0	0	0
2341.412	n/a	REC_WORD	1170706	wordpools/wasnorm_wordpool_576.txt	LTP259	ltpFR2	1	9	THIEF	1456	n/a	n/a	0	0	0
2343.292	n/a	REC_WORD	1171646	wordpools/wasnorm_wordpool_576.txt	LTP259	ltpFR2	1	9	FOREST	593	n/a	n/a	0	0	0
2344.292	n/a	REC_WORD_VV	1172146	wordpools/wasnorm_wordpool_576.txt	LTP259	ltpFR2	1	9	<>	-1	n/a	n/a	0	0	0
2345.562	n/a	REC_WORD	1172781	wordpools/wasnorm_wordpool_576.txt	LTP259	ltpFR2	1	9	JUNGLE	764	n/a	n/a	0	0	0
2346.59	n/a	REC_WORD	1173295	wordpools/wasnorm_wordpool_576.txt	LTP259	ltpFR2	1	9	BRANCH	168	n/a	n/a	0	0	0
2348.82	n/a	REC_WORD	1174410	wordpools/wasnorm_wordpool_576.txt	LTP259	ltpFR2	1	9	PANTHER	1009	n/a	n/a	0	0	0
2350.64	n/a	REC_WORD	1175320	wordpools/wasnorm_wordpool_576.txt	LTP259	ltpFR2	1	9	LION	827	n/a	n/a	0	0	0
2353.316	n/a	REC_WORD	1176658	wordpools/wasnorm_wordpool_576.txt	LTP259	ltpFR2	1	9	PARROT	1015	n/a	n/a	0	0	0
2356.506	n/a	REC_WORD	1178253	wordpools/wasnorm_wordpool_576.txt	LTP259	ltpFR2	1	9	COD	340	n/a	n/a	0	0	0
2363.064	n/a	REC_WORD	1181532	wordpools/wasnorm_wordpool_576.txt	LTP259	ltpFR2	1	9	POET	1095	n/a	n/a	0	0	0
2364.328	n/a	REC_WORD	1182164	wordpools/wasnorm_wordpool_576.txt	LTP259	ltpFR2	1	9	YARN	1631	n/a	n/a	0	0	0
2365.12	n/a	REC_WORD	1182560	wordpools/wasnorm_wordpool_576.txt	LTP259	ltpFR2	1	9	MACHINE	852	n/a	n/a	0	0	0
2366.478	n/a	REC_WORD	1183239	wordpools/wasnorm_wordpool_576.txt	LTP259	ltpFR2	1	9	THREAD	1460	n/a	n/a	0	0	0
2368.224	n/a	REC_WORD	1184112	wordpools/wasnorm_wordpool_576.txt	LTP259	ltpFR2	1	9	JOURNAL	760	n/a	n/a	0	0	0
2369.492	n/a	REC_WORD	1184746	wordpools/wasnorm_wordpool_576.txt	LTP259	ltpFR2	1	9	HELMET	702	n/a	n/a	0	0	0
2372.358	n/a	REC_WORD	1186179	wordpools/wasnorm_wordpool_576.txt	LTP259	ltpFR2	1	9	AIRPLANE	12	n/a	n/a	0	0	0
2373.428	n/a	REC_WORD	1186714	wordpools/wasnorm_wordpool_576.txt	LTP259	ltpFR2	1	9	SADDLE	1221	n/a	n/a	0	0	0
2375.542	n/a	REC_WORD	1187771	wordpools/wasnorm_wordpool_576.txt	LTP259	ltpFR2	1	9	SUPPER	1411	n/a	n/a	0	0	0
2416.168	n/a	DISTRACTOR	1208084	n/a	LTP259	ltpFR2	1	10	n/a	n/a	n/a	n/a	0	0	0
2416.168	n/a	START	1208084	n/a	LTP259	ltpFR2	1	n/a	n/a	n/a	14	n/a	n/a	n/a	n/a
2416.2	n/a	PROB	1208100	n/a	LTP259	ltpFR2	1	n/a	n/a	n/a	14	24	8	9	7
2418.332	n/a	PROB	1209166	n/a	LTP259	ltpFR2	1	n/a	n/a	n/a	14	27	9	9	9
2420.212	n/a	PROB	1210106	n/a	LTP259	ltpFR2	1	n/a	n/a	n/a	14	26	9	9	8
2421.96	n/a	PROB	1210980	n/a	LTP259	ltpFR2	1	n/a	n/a	n/a	14	9	4	3	2
2423.99	n/a	PROB	1211995	n/a	LTP259	ltpFR2	1	n/a	n/a	n/a	14	21	9	9	2
2426.42	n/a	PROB	1213210	n/a	LTP259	ltpFR2	1	n/a	n/a	n/a	14	10	3	4	3
2429.048	n/a	PROB	1214524	n/a	LTP259	ltpFR2	1	n/a	n/a	n/a	14	15	2	6	7
2431.78	n/a	PROB	1215890	n/a	LTP259	ltpFR2	1	n/a	n/a	n/a	14	17	7	4	6
2433.526	n/a	PROB	1216763	n/a	LTP259	ltpFR2	1	n/a	n/a	n/a	14	17	8	7	2
2436.188	n/a	PROB	1218094	n/a	LTP259	ltpFR2	1	n/a	n/a	n/a	14	22	9	6	7
2439.482	n/a	STOP	1219741	n/a	LTP259	ltpFR2	1	n/a	n/a	n/a	14	n/a	n/a	n/a	n/a
2441.064	n/a	WORD	1220532	wordpools/wasnorm_wordpool_576.txt	LTP259	ltpFR2	1	10	JELLO	754	n/a	n/a	0	0	0
2443.544	n/a	WORD	1221772	wordpools/wasnorm_wordpool_576.txt	LTP259	ltpFR2	1	10	RAZOR	1171	n/a	n/a	0	0	0
2446.008	n/a	WORD	1223004	wordpools/wasnorm_wordpool_576.txt	LTP259	ltpFR2	1	10	SCALPEL	1243	n/a	n/a	0	0	0
2448.738	n/a	WORD	1224369	wordpools/wasnorm_wordpool_576.txt	LTP259	ltpFR2	1	10	RATTLE	1170	n/a	n/a	0	0	0
2451.3	n/a	WORD	1225650	wordpools/wasnorm_wordpool_576.txt	LTP259	ltpFR2	1	10	HOOD	714	n/a	n/a	0	0	0
2453.912	n/a	WORD	1226956	wordpools/wasnorm_wordpool_576.txt	LTP259	ltpFR2	1	10	REPORT	1184	n/a	n/a	0	0	0
2456.642	n/a	WORD	1228321	wordpools/wasnorm_wordpool_576.txt	LTP259	ltpFR2	1	10	BUREAU	199	n/a	n/a	0	0	0
2459.27	n/a	WORD	1229635	wordpools/wasnorm_wordpool_576.txt	LTP259	ltpFR2	1	10	VAGRANT	1544	n/a	n/a	0	0	0
2461.818	n/a	WORD	1230909	wordpools/wasnorm_wordpool_576.txt	LTP259	ltpFR2	1	10	PAPER	1011	n/a	n/a	0	0	0
2464.58	n/a	WORD	1232290	wordpools/wasnorm_wordpool_576.txt	LTP259	ltpFR2	1	10	PUDDING	1139	n/a	n/a	0	0	0
2467.176	n/a	WORD	1233588	wordpools/wasnorm_wordpool_576.txt	LTP259	ltpFR2	1	10	PUDDLE	1140	n/a	n/a	0	0	0
2469.872	n/a	WORD	1234936	wordpools/wasnorm_wordpool_576.txt	LTP259	ltpFR2	1	10	SWITCH	1422	n/a	n/a	0	0	0
2472.468	n/a	WORD	1236234	wordpools/wasnorm_wordpool_576.txt	LTP259	ltpFR2	1	10	OX	994	n/a	n/a	0	0	0
2475.196	n/a	WORD	1237598	wordpools/wasnorm_wordpool_576.txt	LTP259	ltpFR2	1	10	HOUND	724	n/a	n/a	0	0	0
2477.894	n/a	WORD	1238947	wordpools/wasnorm_wordpool_576.txt	LTP259	ltpFR2	1	10	MOTOR	922	n/a	n/a	0	0	0
2480.424	n/a	WORD	1240212	wordpools/wasnorm_wordpool_576.txt	LTP259	ltpFR2	1	10	HOSTESS	723	n/a	n/a	0	0	0
2482.92	n/a	WORD	1241460	wordpools/wasnorm_wordpool_576.txt	LTP259	ltpFR2	1	10	VIKING	1565	n/a	n/a	0	0	0
2485.532	n/a	WORD	1242766	wordpools/wasnorm_wordpool_576.txt	LTP259	ltpFR2	1	10	DAUGHTER	442	n/a	n/a	0	0	0
2488.278	n/a	WORD	1244139	wordpools/wasnorm_wordpool_576.txt	LTP259	ltpFR2	1	10	OUTDOORS	987	n/a	n/a	0	0	0
2490.89	n/a	WORD	1245445	wordpools/wasnorm_wordpool_576.txt	LTP259	ltpFR2	1	10	ROBBER	1197	n/a	n/a	0	0	0
2493.536	n/a	WORD	1246768	wordpools/wasnorm_wordpool_576.txt	LTP259	ltpFR2	1	10	SISTER	1312	n/a	n/a	0	0	0
2496.048	n/a	WORD	1248024	wordpools/wasnorm_wordpool_576.txt	LTP259	ltpFR2	1	10	COIN	343	n/a	n/a	0	0	0
2498.514	n/a	WORD	1249257	wordpools/wasnorm_wordpool_576.txt	LTP259	ltpFR2	1	10	PIANO	1057	n/a	n/a	0	0	0
2501.258	n/a	WORD	1250629	wordpools/wasnorm_wordpool_576.txt	LTP259	ltpFR2	1	10	GUITAR	670	n/a	n/a	0	0	0
2502.874	n/a	START	1251437	n/a	LTP259	ltpFR2	1	n/a	n/a	n/a	15	n/a	n/a	n/a	n/a
2503.768	n/a	DISTRACTOR	1251884	n/a	LTP259	ltpFR2	1	10	n/a	n/a	n/a	n/a	0	0	0
2503.772	n/a	PROB	1251886	n/a	LTP259	ltpFR2	1	n/a	n/a	n/a	15	15	9	1	5
2505.786	n/a	PROB	1252893	n/a	LTP259	ltpFR2	1	n/a	n/a	n/a	15	14	3	5	6
2507.85	n/a	PROB	1253925	n/a	LTP259	ltpFR2	1	n/a	n/a	n/a	15	15	5	7	3
2509.33	n/a	PROB	1254665	n/a	LTP259	ltpFR2	1	n/a	n/a	n/a	15	12	3	7	2
2510.778	n/a	PROB	1255389	n/a	LTP259	ltpFR2	1	n/a	n/a	n/a	15	10	2	5	3
2512.726	n/a	PROB	1256363	n/a	LTP259	ltpFR2	1	n/a	n/a	n/a	15	9	7	2	2
2515.054	n/a	PROB	1257527	n/a	LTP259	ltpFR2	1	n/a	n/a	n/a	15	19	4	9	6
2517.834	n/a	PROB	1258917	n/a	LTP259	ltpFR2	1	n/a	n/a	n/a	15	12	6	2	4
2519.598	n/a	PROB	1259799	n/a	LTP259	ltpFR2	1	n/a	n/a	n/a	15	17	9	3	5
2522.344	n/a	PROB	1261172	n/a	LTP259	ltpFR2	1	n/a	n/a	n/a	15	18	5	5	8
2524.01	n/a	PROB	1262005	n/a	LTP259	ltpFR2	1	n/a	n/a	n/a	15	13	1	5	7
2526.578	n/a	STOP	1263289	n/a	LTP259	ltpFR2	1	n/a	n/a	n/a	15	n/a	n/a	n/a	n/a
2528.686	n/a	REC_START	1264343	n/a	LTP259	ltpFR2	1	10	n/a	n/a	n/a	n/a	0	0	0
2529.9	n/a	REC_WORD	1264950	wordpools/wasnorm_wordpool_576.txt	LTP259	ltpFR2	1	10	VIKING	1565	n/a	n/a	0	0	0
2531.188	n/a	REC_WORD	1265594	wordpools/wasnorm_wordpool_576.txt	LTP259	ltpFR2	1	10	DAUGHTER	442	n/a	n/a	0	0	0
2531.996	n/a	REC_WORD	1265998	wordpools/wasnorm_wordpool_576.txt	LTP259	ltpFR2	1	10	SISTER	1312	n/a	n/a	0	0	0
2533.306	n/a	REC_WORD	1266653	wordpools/wasnorm_wordpool_576.txt	LTP259	ltpFR2	1	10	HOSTESS	723	n/a	n/a	0	0	0
2534.26	n/a	REC_WORD	1267130	wordpools/wasnorm_wordpool_576.txt	LTP259	ltpFR2	1	10	PIANO	1057	n/a	n/a	0	0	0
2535.544	n/a	REC_WORD	1267772	wordpools/wasnorm_wordpool_576.txt	LTP259	ltpFR2	1	10	GUITAR	670	n/a	n/a	0	0	0
2573.654	n/a	REC_WORD	1286827	wordpools/wasnorm_wordpool_576.txt	LTP259	ltpFR2	1	10	COIN	343	n/a	n/a	0	0	0
2619.45	n/a	DISTRACTOR	1309725	n/a	LTP259	ltpFR2	1	11	n/a	n/a	n/a	n/a	0	0	0
2619.452	n/a	START	1309726	n/a	LTP259	ltpFR2	1	n/a	n/a	n/a	16	n/a	n/a	n/a	n/a
2619.484	n/a	PROB	1309742	n/a	LTP259	ltpFR2	1	n/a	n/a	n/a	16	15	4	6	5
2621.864	n/a	PROB	1310932	n/a	LTP259	ltpFR2	1	n/a	n/a	n/a	16	19	7	9	3
2624.56	n/a	PROB	1312280	n/a	LTP259	ltpFR2	1	n/a	n/a	n/a	16	21	7	5	9
2628.588	n/a	PROB	1314294	n/a	LTP259	ltpFR2	1	n/a	n/a	n/a	16	16	7	6	3
2631.15	n/a	PROB	1315575	n/a	LTP259	ltpFR2	1	n/a	n/a	n/a	16	23	8	7	8
2633.23	n/a	PROB	1316615	n/a	LTP259	ltpFR2	1	n/a	n/a	n/a	16	14	1	8	5
2635.844	n/a	PROB	1317922	n/a	LTP259	ltpFR2	1	n/a	n/a	n/a	16	18	5	4	9
2638.272	n/a	PROB	1319136	n/a	LTP259	ltpFR2	1	n/a	n/a	n/a	16	19	5	7	7
2640.754	n/a	PROB	1320377	n/a	LTP259	ltpFR2	1	n/a	n/a	n/a	16	5	1	1	3
2642.156	n/a	STOP	1321078	n/a	LTP259	ltpFR2	1	n/a	n/a	n/a	16	n/a	n/a	n/a	n/a
2644.314	n/a	WORD	1322157	wordpools/wasnorm_wordpool_576.txt	LTP259	ltpFR2	1	11	FARMER	553	n/a	n/a	0	0	0
2646.878	n/a	WORD	1323439	wordpools/wasnorm_wordpool_576.txt	LTP259	ltpFR2	1	11	ROCKET	1202	n/a	n/a	0	0	0
2649.69	n/a	WORD	1324845	wordpools/wasnorm_wordpool_576.txt	LTP259	ltpFR2	1	11	BREAST	171	n/a	n/a	0	0	0
2652.152	n/a	WORD	1326076	wordpools/wasnorm_wordpool_576.txt	LTP259	ltpFR2	1	11	PEANUT	1032	n/a	n/a	0	0	0
2654.65	n/a	WORD	1327325	wordpools/wasnorm_wordpool_576.txt	LTP259	ltpFR2	1	11	CONTRACT	368	n/a	n/a	0	0	0
2657.128	n/a	WORD	1328564	wordpools/wasnorm_wordpool_576.txt	LTP259	ltpFR2	1	11	SHRUB	1299	n/a	n/a	0	0	0
2659.626	n/a	WORD	1329813	wordpools/wasnorm_wordpool_576.txt	LTP259	ltpFR2	1	11	FOREST	593	n/a	n/a	0	0	0
2662.404	n/a	WORD	1331202	wordpools/wasnorm_wordpool_576.txt	LTP259	ltpFR2	1	11	BOUQUET	157	n/a	n/a	0	0	0
2665.082	n/a	WORD	1332541	wordpools/wasnorm_wordpool_576.txt	LTP259	ltpFR2	1	11	LIPSTICK	829	n/a	n/a	0	0	0
2667.63	n/a	WORD	1333815	wordpools/wasnorm_wordpool_576.txt	LTP259	ltpFR2	1	11	CATTLE	261	n/a	n/a	0	0	0
2670.426	n/a	WORD	1335213	wordpools/wasnorm_wordpool_576.txt	LTP259	ltpFR2	1	11	GOBLIN	645	n/a	n/a	0	0	0
2673.254	n/a	WORD	1336627	wordpools/wasnorm_wordpool_576.txt	LTP259	ltpFR2	1	11	TURNIP	1521	n/a	n/a	0	0	0
2676.034	n/a	WORD	1338017	wordpools/wasnorm_wordpool_576.txt	LTP259	ltpFR2	1	11	SERVANT	1271	n/a	n/a	0	0	0
2678.814	n/a	WORD	1339407	wordpools/wasnorm_wordpool_576.txt	LTP259	ltpFR2	1	11	FLEET	578	n/a	n/a	0	0	0
2681.592	n/a	WORD	1340796	wordpools/wasnorm_wordpool_576.txt	LTP259	ltpFR2	1	11	GREASE	660	n/a	n/a	0	0	0
2684.072	n/a	WORD	1342036	wordpools/wasnorm_wordpool_576.txt	LTP259	ltpFR2	1	11	CLAMP	316	n/a	n/a	0	0	0
2686.652	n/a	WORD	1343326	wordpools/wasnorm_wordpool_576.txt	LTP259	ltpFR2	1	11	PARTNER	1017	n/a	n/a	0	0	0
2689.196	n/a	WORD	1344598	wordpools/wasnorm_wordpool_576.txt	LTP259	ltpFR2	1	11	TRACTOR	1493	n/a	n/a	0	0	0
2691.894	n/a	WORD	1345947	wordpools/wasnorm_wordpool_576.txt	LTP259	ltpFR2	1	11	BATHTUB	100	n/a	n/a	0	0	0
2694.456	n/a	WORD	1347228	wordpools/wasnorm_wordpool_576.txt	LTP259	ltpFR2	1	11	LILY	821	n/a	n/a	0	0	0
2697.086	n/a	WORD	1348543	wordpools/wasnorm_wordpool_576.txt	LTP259	ltpFR2	1	11	STICKER	1382	n/a	n/a	0	0	0
2699.748	n/a	WORD	1349874	wordpools/wasnorm_wordpool_576.txt	LTP259	ltpFR2	1	11	LACE	792	n/a	n/a	0	0	0
2702.244	n/a	WORD	1351122	wordpools/wasnorm_wordpool_576.txt	LTP259	ltpFR2	1	11	POWDER	1117	n/a	n/a	0	0	0
2704.808	n/a	WORD	1352404	wordpools/wasnorm_wordpool_576.txt	LTP259	ltpFR2	1	11	BABY	64	n/a	n/a	0	0	0
2706.424	n/a	START	1353212	n/a	LTP259	ltpFR2	1	n/a	n/a	n/a	17	n/a	n/a	n/a	n/a
2707.364	n/a	DISTRACTOR	1353682	n/a	LTP259	ltpFR2	1	11	n/a	n/a	n/a	n/a	0	0	0
2707.372	n/a	PROB	1353686	n/a	LTP259	ltpFR2	1	n/a	n/a	n/a	17	14	9	1	4
2709.118	n/a	PROB	1354559	n/a	LTP259	ltpFR2	1	n/a	n/a	n/a	17	21	4	9	8
2713.58	n/a	PROB	1356790	n/a	LTP259	ltpFR2	1	n/a	n/a	n/a	17	21	9	8	4
2716.508	n/a	PROB	1358254	n/a	LTP259	ltpFR2	1	n/a	n/a	n/a	17	15	6	4	5
2719.454	n/a	PROB	1359727	n/a	LTP259	ltpFR2	1	n/a	n/a	n/a	17	18	4	5	9
2721.916	n/a	PROB	1360958	n/a	LTP259	ltpFR2	1	n/a	n/a	n/a	17	16	3	7	6
2723.498	n/a	PROB	1361749	n/a	LTP259	ltpFR2	1	n/a	n/a	n/a	17	21	8	5	7
2730.422	n/a	STOP	1365211	n/a	LTP259	ltpFR2	1	n/a	n/a	n/a	17	n/a	n/a	n/a	n/a
2732.334	n/a	REC_START	1366167	n/a	LTP259	ltpFR2	1	11	n/a	n/a	n/a	n/a	0	0	0
2733.1	n/a	REC_WORD	1366550	wordpools/wasnorm_wordpool_576.txt	LTP259	ltpFR2	1	11	BABY	64	n/a	n/a	0	0	0
2733.898	n/a	REC_WORD	1366949	wordpools/wasnorm_wordpool_576.txt	LTP259	ltpFR2	1	11	POWDER	1117	n/a	n/a	0	0	0
2735.176	n/a	REC_WORD	1367588	wordpools/wasnorm_wordpool_576.txt	LTP259	ltpFR2	1	11	FARMER	553	n/a	n/a	0	0	0
2740.12	n/a	REC_WORD	1370060	wordpools/wasnorm_wordpool_576.txt	LTP259	ltpFR2	1	11	TRACTOR	1493	n/a	n/a	0	0	0
2746.872	n/a	REC_WORD	1373436	wordpools/wasnorm_wordpool_576.txt	LTP259	ltpFR2	1	11	FLEET	578	n/a	n/a	0	0	0
2752.456	n/a	REC_WORD	1376228	wordpools/wasnorm_wordpool_576.txt	LTP259	ltpFR2	1	11	BATHTUB	100	n/a	n/a	0	0	0
2753.36	n/a	REC_WORD	1376680	wordpools/wasnorm_wordpool_576.txt	LTP259	ltpFR2	1	11	LACE	792	n/a	n/a	0	0	0
2754.456	n/a	REC_WORD	1377228	wordpools/wasnorm_wordpool_576.txt	LTP259	ltpFR2	1	11	STICKER	1382	n/a	n/a	0	0	0
2762.37	n/a	REC_WORD	1381185	wordpools/wasnorm_wordpool_576.txt	LTP259	ltpFR2	1	11	CATTLE	261	n/a	n/a	0	0	0
2771.972	n/a	REC_WORD	1385986	wordpools/wasnorm_wordpool_576.txt	LTP259	ltpFR2	1	11	ACTRESS	6	n/a	n/a	0	0	0
2788.0	n/a	REC_WORD	1394000	wordpools/wasnorm_wordpool_576.txt	LTP259	ltpFR2	1	11	SHRUB	1299	n/a	n/a	0	0	0
2790.66	n/a	REC_WORD	1395330	wordpools/wasnorm_wordpool_576.txt	LTP259	ltpFR2	1	11	PEANUT	1032	n/a	n/a	0	0	0
2794.526	n/a	REC_WORD	1397263	wordpools/wasnorm_wordpool_576.txt	LTP259	ltpFR2	1	11	BREAST	171	n/a	n/a	0	0	0
2823.0	n/a	DISTRACTOR	1411500	n/a	LTP259	ltpFR2	1	12	n/a	n/a	n/a	n/a	0	0	0
2823.0	n/a	START	1411500	n/a	LTP259	ltpFR2	1	n/a	n/a	n/a	18	n/a	n/a	n/a	n/a
2823.034	n/a	PROB	1411517	n/a	LTP259	ltpFR2	1	n/a	n/a	n/a	18	10	3	1	6
2825.196	n/a	PROB	1412598	n/a	LTP259	ltpFR2	1	n/a	n/a	n/a	18	9	2	5	2
2827.092	n/a	PROB	1413546	n/a	LTP259	ltpFR2	1	n/a	n/a	n/a	18	17	8	4	5
2830.056	n/a	PROB	1415028	n/a	LTP259	ltpFR2	1	n/a	n/a	n/a	18	19	7	4	8
2833.084	n/a	PROB	1416542	n/a	LTP259	ltpFR2	1	n/a	n/a	n/a	18	8	2	2	4
2835.148	n/a	PROB	1417574	n/a	LTP259	ltpFR2	1	n/a	n/a	n/a	18	12	1	4	7
2839.242	n/a	PROB	1419621	n/a	LTP259	ltpFR2	1	n/a	n/a	n/a	18	12	2	7	3
2840.642	n/a	PROB	1420321	n/a	LTP259	ltpFR2	1	n/a	n/a	n/a	18	15	7	1	7
2842.154	n/a	PROB	1421077	n/a	LTP259	ltpFR2	1	n/a	n/a	n/a	18	16	1	6	9
2846.776	n/a	STOP	1423388	n/a	LTP259	ltpFR2	1	n/a	n/a	n/a	18	n/a	n/a	n/a	n/a
2848.03	n/a	WORD	1424015	wordpools/wasnorm_wordpool_576.txt	LTP259	ltpFR2	1	12	PERFUME	1049	n/a	n/a	0	0	0
2850.81	n/a	WORD	1425405	wordpools/wasnorm_wordpool_576.txt	LTP259	ltpFR2	1	12	CLIMBER	323	n/a	n/a	0	0	0
2853.422	n/a	WORD	1426711	wordpools/wasnorm_wordpool_576.txt	LTP259	ltpFR2	1	12	HIKER	708	n/a	n/a	0	0	0
2856.002	n/a	WORD	1428001	wordpools/wasnorm_wordpool_576.txt	LTP259	ltpFR2	1	12	GHETTO	633	n/a	n/a	0	0	0
2858.698	n/a	WORD	1429349	wordpools/wasnorm_wordpool_576.txt	LTP259	ltpFR2	1	12	MATTRESS	879	n/a	n/a	0	0	0
2861.444	n/a	WORD	1430722	wordpools/wasnorm_wordpool_576.txt	LTP259	ltpFR2	1	12	TROMBONE	1508	n/a	n/a	0	0	0
2863.99	n/a	WORD	1431995	wordpools/wasnorm_wordpool_576.txt	LTP259	ltpFR2	1	12	SPOOL	1356	n/a	n/a	0	0	0
2866.502	n/a	WORD	1433251	wordpools/wasnorm_wordpool_576.txt	LTP259	ltpFR2	1	12	DINER	467	n/a	n/a	0	0	0
2869.064	n/a	WORD	1434532	wordpools/wasnorm_wordpool_576.txt	LTP259	ltpFR2	1	12	KEEPER	769	n/a	n/a	0	0	0
2871.878	n/a	WORD	1435939	wordpools/wasnorm_wordpool_576.txt	LTP259	ltpFR2	1	12	BINDER	127	n/a	n/a	0	0	0
2874.59	n/a	WORD	1437295	wordpools/wasnorm_wordpool_576.txt	LTP259	ltpFR2	1	12	MOTEL	919	n/a	n/a	0	0	0
2877.32	n/a	WORD	1438660	wordpools/wasnorm_wordpool_576.txt	LTP259	ltpFR2	1	12	LUNCH	849	n/a	n/a	0	0	0
2880.05	n/a	WORD	1440025	wordpools/wasnorm_wordpool_576.txt	LTP259	ltpFR2	1	12	POISON	1096	n/a	n/a	0	0	0
2882.828	n/a	WORD	1441414	wordpools/wasnorm_wordpool_576.txt	LTP259	ltpFR2	1	12	CASKET	255	n/a	n/a	0	0	0
2885.558	n/a	WORD	1442779	wordpools/wasnorm_wordpool_576.txt	LTP259	ltpFR2	1	12	CROWN	415	n/a	n/a	0	0	0
2888.186	n/a	WORD	1444093	wordpools/wasnorm_wordpool_576.txt	LTP259	ltpFR2	1	12	VALVE	1546	n/a	n/a	0	0	0
2890.634	n/a	WORD	1445317	wordpools/wasnorm_wordpool_576.txt	LTP259	ltpFR2	1	12	RACKET	1155	n/a	n/a	0	0	0
2893.246	n/a	WORD	1446623	wordpools/wasnorm_wordpool_576.txt	LTP259	ltpFR2	1	12	COLLEGE	346	n/a	n/a	0	0	0
2895.892	n/a	WORD	1447946	wordpools/wasnorm_wordpool_576.txt	LTP259	ltpFR2	1	12	SURVEY	1414	n/a	n/a	0	0	0
2898.422	n/a	WORD	1449211	wordpools/wasnorm_wordpool_576.txt	LTP259	ltpFR2	1	12	SEAGULL	1261	n/a	n/a	0	0	0
2900.968	n/a	WORD	1450484	wordpools/wasnorm_wordpool_576.txt	LTP259	ltpFR2	1	12	STOMACH	1384	n/a	n/a	0	0	0
2903.73	n/a	WORD	1451865	wordpools/wasnorm_wordpool_576.txt	LTP259	ltpFR2	1	12	COOK	372	n/a	n/a	0	0	0
2906.26	n/a	WORD	1453130	wordpools/wasnorm_wordpool_576.txt	LTP259	ltpFR2	1	12	SERVER	1272	n/a	n/a	0	0	0
2908.858	n/a	WORD	1454429	wordpools/wasnorm_wordpool_576.txt	LTP259	ltpFR2	1	12	STUDENT	1395	n/a	n/a	0	0	0
2910.472	n/a	START	1455236	n/a	LTP259	ltpFR2	1	n/a	n/a	n/a	19	n/a	n/a	n/a	n/a
2911.438	n/a	DISTRACTOR	1455719	n/a	LTP259	ltpFR2	1	12	n/a	n/a	n/a	n/a	0	0	0
2911.454	n/a	PROB	1455727	n/a	LTP259	ltpFR2	1	n/a	n/a	n/a	19	17	4	5	8
2914.848	n/a	PROB	1457424	n/a	LTP259	ltpFR2	1	n/a	n/a	n/a	19	14	4	7	3
2916.33	n/a	PROB	1458165	n/a	LTP259	ltpFR2	1	n/a	n/a	n/a	19	14	7	5	2
2918.592	n/a	PROB	1459296	n/a	LTP259	ltpFR2	1	n/a	n/a	n/a	19	11	1	6	4
2920.29	n/a	PROB	1460145	n/a	LTP259	ltpFR2	1	n/a	n/a	n/a	19	13	1	7	5
2922.82	n/a	PROB	1461410	n/a	LTP259	ltpFR2	1	n/a	n/a	n/a	19	10	6	2	2
2925.766	n/a	PROB	1462883	n/a	LTP259	ltpFR2	1	n/a	n/a	n/a	19	23	9	7	6
2929.21	n/a	PROB	1464605	n/a	LTP259	ltpFR2	1	n/a	n/a	n/a	19	20	3	8	9
2933.488	n/a	STOP	1466744	n/a	LTP259	ltpFR2	1	n/a	n/a	n/a	19	n/a	n/a	n/a	n/a
2936.416	n/a	REC_START	1468208	n/a	LTP259	ltpFR2	1	12	n/a	n/a	n/a	n/a	0	0	0
2937.376	n/a	REC_WORD	1468688	wordpools/wasnorm_wordpool_576.txt	LTP259	ltpFR2	1	12	SERVER	1272	n/a	n/a	0	0	0
2938.77	n/a	REC_WORD	1469385	wordpools/wasnorm_wordpool_576.txt	LTP259	ltpFR2	1	12	COOK	372	n/a	n/a	0	0	0
2939.888	n/a	REC_WORD	1469944	wordpools/wasnorm_wordpool_576.txt	LTP259	ltpFR2	1	12	STOMACH	1384	n/a	n/a	0	0	0
2943.096	n/a	REC_WORD	1471548	wordpools/wasnorm_wordpool_576.txt	LTP259	ltpFR2	1	12	VALVE	1546	n/a	n/a	0	0	0
2945.55	n/a	REC_WORD	1472775	wordpools/wasnorm_wordpool_576.txt	LTP259	ltpFR2	1	12	PERFUME	1049	n/a	n/a	0	0	0
2946.652	n/a	REC_WORD	1473326	wordpools/wasnorm_wordpool_576.txt	LTP259	ltpFR2	1	12	CLIMBER	323	n/a	n/a	0	0	0
2948.074	n/a	REC_WORD	1474037	wordpools/wasnorm_wordpool_576.txt	LTP259	ltpFR2	1	12	HIKER	708	n/a	n/a	0	0	0
2949.128	n/a	REC_WORD	1474564	wordpools/wasnorm_wordpool_576.txt	LTP259	ltpFR2	1	12	GHETTO	633	n/a	n/a	0	0	0
2951.286	n/a	REC_WORD	1475643	wordpools/wasnorm_wordpool_576.txt	LTP259	ltpFR2	1	12	MATTRESS	879	n/a	n/a	0	0	0
2952.49	n/a	REC_WORD	1476245	wordpools/wasnorm_wordpool_576.txt	LTP259	ltpFR2	1	12	MOTEL	919	n/a	n/a	0	0	0
2955.444	n/a	REC_WORD	1477722	wordpools/wasnorm_wordpool_576.txt	LTP259	ltpFR2	1	12	DINER	467	n/a	n/a	0	0	0
2956.208	n/a	REC_WORD	1478104	wordpools/wasnorm_wordpool_576.txt	LTP259	ltpFR2	1	12	LUNCH	849	n/a	n/a	0	0	0
2957.45	n/a	REC_WORD	1478725	wordpools/wasnorm_wordpool_576.txt	LTP259	ltpFR2	1	12	POISON	1096	n/a	n/a	0	0	0
2958.71	n/a	REC_WORD	1479355	wordpools/wasnorm_wordpool_576.txt	LTP259	ltpFR2	1	12	CASKET	255	n/a	n/a	0	0	0
2961.494	n/a	REC_WORD	1480747	wordpools/wasnorm_wordpool_576.txt	LTP259	ltpFR2	1	12	BINDER	127	n/a	n/a	0	0	0
2965.834	n/a	REC_WORD	1482917	wordpools/wasnorm_wordpool_576.txt	LTP259	ltpFR2	1	12	COLLEGE	346	n/a	n/a	0	0	0
2967.028	n/a	REC_WORD	1483514	wordpools/wasnorm_wordpool_576.txt	LTP259	ltpFR2	1	12	STUDENT	1395	n/a	n/a	0	0	0
3027.13	n/a	WORD	1513565	wordpools/wasnorm_wordpool_576.txt	LTP259	ltpFR2	1	13	FOOT	590	n/a	n/a	0	0	0
3029.91	n/a	WORD	1514955	wordpools/wasnorm_wordpool_576.txt	LTP259	ltpFR2	1	13	CROSS	413	n/a	n/a	0	0	0
3032.374	n/a	WORD	1516187	wordpools/wasnorm_wordpool_576.txt	LTP259	ltpFR2	1	13	DASHBOARD	441	n/a	n/a	0	0	0
3035.136	n/a	WORD	1517568	wordpools/wasnorm_wordpool_576.txt	LTP259	ltpFR2	1	13	SCOTCH	1251	n/a	n/a	0	0	0
3037.666	n/a	WORD	1518833	wordpools/wasnorm_wordpool_576.txt	LTP259	ltpFR2	1	13	POPCORN	1104	n/a	n/a	0	0	0
3040.296	n/a	WORD	1520148	wordpools/wasnorm_wordpool_576.txt	LTP259	ltpFR2	1	13	LUGGAGE	847	n/a	n/a	0	0	0
3043.074	n/a	WORD	1521537	wordpools/wasnorm_wordpool_576.txt	LTP259	ltpFR2	1	13	BRIEFCASE	175	n/a	n/a	0	0	0
3045.738	n/a	WORD	1522869	wordpools/wasnorm_wordpool_576.txt	LTP259	ltpFR2	1	13	BELLY	119	n/a	n/a	0	0	0
3048.368	n/a	WORD	1524184	wordpools/wasnorm_wordpool_576.txt	LTP259	ltpFR2	1	13	OUTFIT	988	n/a	n/a	0	0	0
3050.898	n/a	WORD	1525449	wordpools/wasnorm_wordpool_576.txt	LTP259	ltpFR2	1	13	GARBAGE	622	n/a	n/a	0	0	0
3053.71	n/a	WORD	1526855	wordpools/wasnorm_wordpool_576.txt	LTP259	ltpFR2	1	13	FLASK	576	n/a	n/a	0	0	0
3056.272	n/a	WORD	1528136	wordpools/wasnorm_wordpool_576.txt	LTP259	ltpFR2	1	13	SODA	1341	n/a	n/a	0	0	0
3058.702	n/a	WORD	1529351	wordpools/wasnorm_wordpool_576.txt	LTP259	ltpFR2	1	13	NIGHTGOWN	953	n/a	n/a	0	0	0
3061.498	n/a	WORD	1530749	wordpools/wasnorm_wordpool_576.txt	LTP259	ltpFR2	1	13	STAKE	1368	n/a	n/a	0	0	0
3064.06	n/a	WORD	1532030	wordpools/wasnorm_wordpool_576.txt	LTP259	ltpFR2	1	13	GRILL	661	n/a	n/a	0	0	0
3066.74	n/a	WORD	1533370	wordpools/wasnorm_wordpool_576.txt	LTP259	ltpFR2	1	13	ANKLE	24	n/a	n/a	0	0	0
3069.386	n/a	WORD	1534693	wordpools/wasnorm_wordpool_576.txt	LTP259	ltpFR2	1	13	MUSTARD	935	n/a	n/a	0	0	0
3072.132	n/a	WORD	1536066	wordpools/wasnorm_wordpool_576.txt	LTP259	ltpFR2	1	13	JUGGLER	763	n/a	n/a	0	0	0
3074.912	n/a	WORD	1537456	wordpools/wasnorm_wordpool_576.txt	LTP259	ltpFR2	1	13	TWEEZERS	1526	n/a	n/a	0	0	0
3077.342	n/a	WORD	1538671	wordpools/wasnorm_wordpool_576.txt	LTP259	ltpFR2	1	13	WHISKERS	1605	n/a	n/a	0	0	0
3079.954	n/a	WORD	1539977	wordpools/wasnorm_wordpool_576.txt	LTP259	ltpFR2	1	13	MASK	876	n/a	n/a	0	0	0
3082.616	n/a	WORD	1541308	wordpools/wasnorm_wordpool_576.txt	LTP259	ltpFR2	1	13	WARDROBE	1587	n/a	n/a	0	0	0
3085.43	n/a	WORD	1542715	wordpools/wasnorm_wordpool_576.txt	LTP259	ltpFR2	1	13	WASHER	1592	n/a	n/a	0	0	0
3087.958	n/a	WORD	1543979	wordpools/wasnorm_wordpool_576.txt	LTP259	ltpFR2	1	13	CLOTHES	327	n/a	n/a	0	0	0
3089.574	n/a	START	1544787	n/a	LTP259	ltpFR2	1	n/a	n/a	n/a	20	n/a	n/a	n/a	n/a
3090.384	n/a	DISTRACTOR	1545192	n/a	LTP259	ltpFR2	1	13	n/a	n/a	n/a	n/a	0	0	0
3090.388	n/a	PROB	1545194	n/a	LTP259	ltpFR2	1	n/a	n/a	n/a	20	15	3	3	9
3093.282	n/a	PROB	1546641	n/a	LTP259	ltpFR2	1	n/a	n/a	n/a	20	5	3	1	1
3094.682	n/a	PROB	1547341	n/a	LTP259	ltpFR2	1	n/a	n/a	n/a	20	11	6	4	1
3096.146	n/a	PROB	1548073	n/a	LTP259	ltpFR2	1	n/a	n/a	n/a	20	13	4	4	5
3100.024	n/a	PROB	1550012	n/a	LTP259	ltpFR2	1	n/a	n/a	n/a	20	20	5	8	7
3104.334	n/a	PROB	1552167	n/a	LTP259	ltpFR2	1	n/a	n/a	n/a	20	16	2	8	6
3106.83	n/a	PROB	1553415	n/a	LTP259	ltpFR2	1	n/a	n/a	n/a	20	18	5	9	4
3109.61	n/a	PROB	1554805	n/a	LTP259	ltpFR2	1	n/a	n/a	n/a	20	11	6	5	5
3113.574	n/a	STOP	1556787	n/a	LTP259	ltpFR2	1	n/a	n/a	n/a	20	n/a	n/a	n/a	n/a
3115.386	n/a	REC_START	1557693	n/a	LTP259	ltpFR2	1	13	n/a	n/a	n/a	n/a	0	0	0
3118.162	n/a	REC_WORD_VV	1559081	wordpools/wasnorm_wordpool_576.txt	LTP259	ltpFR2	1	13	<>	-1	n/a	n/a	0	0	0
3118.574	n/a	REC_WORD	1559287	wordpools/wasnorm_wordpool_576.txt	LTP259	ltpFR2	1	13	NIGHTGOWN	953	n/a	n/a	0	0	0
3120.328	n/a	REC_WORD	1560164	wordpools/wasnorm_wordpool_576.txt	LTP259	ltpFR2	1	13	SCOTCH	1251	n/a	n/a	0	0	0
3121.352	n/a	REC_WORD	1560676	wordpools/wasnorm_wordpool_576.txt	LTP259	ltpFR2	1	13	STOMACH	1384	n/a	n/a	0	0	0
3123.088	n/a	REC_WORD	1561544	wordpools/wasnorm_wordpool_576.txt	LTP259	ltpFR2	1	13	BELLY	119	n/a	n/a	0	0	0
3124.81	n/a	REC_WORD	1562405	wordpools/wasnorm_wordpool_576.txt	LTP259	ltpFR2	1	13	BRIEFCASE	175	n/a	n/a	0	0	0
3125.78	n/a	REC_WORD	1562890	wordpools/wasnorm_wordpool_576.txt	LTP259	ltpFR2	1	13	LUGGAGE	847	n/a	n/a	0	0	0
3129.59	n/a	REC_WORD	1564795	wordpools/wasnorm_wordpool_576.txt	LTP259	ltpFR2	1	13	OUTFIT	988	n/a	n/a	0	0	0
3137.406	n/a	REC_WORD	1568703	wordpools/wasnorm_wordpool_576.txt	LTP259	ltpFR2	1	13	FOOT	590	n/a	n/a	0	0	0
3138.732	n/a	REC_WORD	1569366	wordpools/wasnorm_wordpool_576.txt	LTP259	ltpFR2	1	13	DASHBOARD	441	n/a	n/a	0	0	0
3141.152	n/a	REC_WORD	1570576	wordpools/wasnorm_wordpool_576.txt	LTP259	ltpFR2	1	13	ANKLE	24	n/a	n/a	0	0	0
3142.334	n/a	REC_WORD	1571167	wordpools/wasnorm_wordpool_576.txt	LTP259	ltpFR2	1	13	STAKE	1368	n/a	n/a	0	0	0
3143.602	n/a	REC_WORD	1571801	wordpools/wasnorm_wordpool_576.txt	LTP259	ltpFR2	1	13	GRILL	661	n/a	n/a	0	0	0
3145.188	n/a	REC_WORD	1572594	wordpools/wasnorm_wordpool_576.txt	LTP259	ltpFR2	1	13	FLASK	576	n/a	n/a	0	0	0
3146.19	n/a	REC_WORD	1573095	wordpools/wasnorm_wordpool_576.txt	LTP259	ltpFR2	1	13	SODA	1341	n/a	n/a	0	0	0
3152.208	n/a	REC_WORD	1576104	wordpools/wasnorm_wordpool_576.txt	LTP259	ltpFR2	1	13	JUGGLER	763	n/a	n/a	0	0	0
3152.958	n/a	REC_WORD	1576479	wordpools/wasnorm_wordpool_576.txt	LTP259	ltpFR2	1	13	MASK	876	n/a	n/a	0	0	0
3154.968	n/a	REC_WORD	1577484	wordpools/wasnorm_wordpool_576.txt	LTP259	ltpFR2	1	13	CLOTHES	327	n/a	n/a	0	0	0
3155.928	n/a	REC_WORD	1577964	wordpools/wasnorm_wordpool_576.txt	LTP259	ltpFR2	1	13	WASHER	1592	n/a	n/a	0	0	0
3188.928	n/a	REC_WORD	1594464	wordpools/wasnorm_wordpool_576.txt	LTP259	ltpFR2	1	13	MUSTARD	935	n/a	n/a	0	0	0
3206.05	n/a	WORD	1603025	wordpools/wasnorm_wordpool_576.txt	LTP259	ltpFR2	1	14	STOVE	1388	n/a	n/a	0	0	0
3208.648	n/a	WORD	1604324	wordpools/wasnorm_wordpool_576.txt	LTP259	ltpFR2	1	14	PERMIT	1051	n/a	n/a	0	0	0
3211.192	n/a	WORD	1605596	wordpools/wasnorm_wordpool_576.txt	LTP259	ltpFR2	1	14	BANKER	84	n/a	n/a	0	0	0
3213.972	n/a	WORD	1606986	wordpools/wasnorm_wordpool_576.txt	LTP259	ltpFR2	1	14	PLIERS	1089	n/a	n/a	0	0	0
3216.536	n/a	WORD	1608268	wordpools/wasnorm_wordpool_576.txt	LTP259	ltpFR2	1	14	WRENCH	1625	n/a	n/a	0	0	0
3219.164	n/a	WORD	1609582	wordpools/wasnorm_wordpool_576.txt	LTP259	ltpFR2	1	14	WORLD	1622	n/a	n/a	0	0	0
3221.878	n/a	WORD	1610939	wordpools/wasnorm_wordpool_576.txt	LTP259	ltpFR2	1	14	RECEIPT	1173	n/a	n/a	0	0	0
3224.44	n/a	WORD	1612220	wordpools/wasnorm_wordpool_576.txt	LTP259	ltpFR2	1	14	TOURIST	1488	n/a	n/a	0	0	0
3226.92	n/a	WORD	1613460	wordpools/wasnorm_wordpool_576.txt	LTP259	ltpFR2	1	14	CASHIER	254	n/a	n/a	0	0	0
3229.65	n/a	WORD	1614825	wordpools/wasnorm_wordpool_576.txt	LTP259	ltpFR2	1	14	SPOUSE	1358	n/a	n/a	0	0	0
3232.312	n/a	WORD	1616156	wordpools/wasnorm_wordpool_576.txt	LTP259	ltpFR2	1	14	CONVICT	371	n/a	n/a	0	0	0
3234.992	n/a	WORD	1617496	wordpools/wasnorm_wordpool_576.txt	LTP259	ltpFR2	1	14	SUITCASE	1403	n/a	n/a	0	0	0
3237.804	n/a	WORD	1618902	wordpools/wasnorm_wordpool_576.txt	LTP259	ltpFR2	1	14	BLOCKADE	137	n/a	n/a	0	0	0
3240.366	n/a	WORD	1620183	wordpools/wasnorm_wordpool_576.txt	LTP259	ltpFR2	1	14	GRAPE	654	n/a	n/a	0	0	0
3242.896	n/a	WORD	1621448	wordpools/wasnorm_wordpool_576.txt	LTP259	ltpFR2	1	14	REBEL	1172	n/a	n/a	0	0	0
3245.358	n/a	WORD	1622679	wordpools/wasnorm_wordpool_576.txt	LTP259	ltpFR2	1	14	FLUTE	585	n/a	n/a	0	0	0
3247.938	n/a	WORD	1623969	wordpools/wasnorm_wordpool_576.txt	LTP259	ltpFR2	1	14	WHISTLE	1606	n/a	n/a	0	0	0
3250.502	n/a	WORD	1625251	wordpools/wasnorm_wordpool_576.txt	LTP259	ltpFR2	1	14	DRAGON	492	n/a	n/a	0	0	0
3253.248	n/a	WORD	1626624	wordpools/wasnorm_wordpool_576.txt	LTP259	ltpFR2	1	14	HEDGE	699	n/a	n/a	0	0	0
3255.944	n/a	WORD	1627972	wordpools/wasnorm_wordpool_576.txt	LTP259	ltpFR2	1	14	ITEM	746	n/a	n/a	0	0	0
3258.474	n/a	WORD	1629237	wordpools/wasnorm_wordpool_576.txt	LTP259	ltpFR2	1	14	CUSTARD	429	n/a	n/a	0	0	0
3261.236	n/a	WORD	1630618	wordpools/wasnorm_wordpool_576.txt	LTP259	ltpFR2	1	14	DUST	508	n/a	n/a	0	0	0
3263.982	n/a	WORD	1631991	wordpools/wasnorm_wordpool_576.txt	LTP259	ltpFR2	1	14	SWAMP	1416	n/a	n/a	0	0	0
3266.478	n/a	WORD	1633239	wordpools/wasnorm_wordpool_576.txt	LTP259	ltpFR2	1	14	FOX	598	n/a	n/a	0	0	0
3268.092	n/a	START	1634046	n/a	LTP259	ltpFR2	1	n/a	n/a	n/a	21	n/a	n/a	n/a	n/a
3269.096	n/a	DISTRACTOR	1634548	n/a	LTP259	ltpFR2	1	14	n/a	n/a	n/a	n/a	0	0	0
3269.106	n/a	PROB	1634553	n/a	LTP259	ltpFR2	1	n/a	n/a	n/a	21	9	4	3	2
3271.704	n/a	PROB	1635852	n/a	LTP259	ltpFR2	1	n/a	n/a	n/a	21	15	1	7	7
3273.418	n/a	PROB	1636709	n/a	LTP259	ltpFR2	1	n/a	n/a	n/a	21	18	7	2	9
3275.582	n/a	PROB	1637791	n/a	LTP259	ltpFR2	1	n/a	n/a	n/a	21	10	3	3	4
3277.328	n/a	PROB	1638664	n/a	LTP259	ltpFR2	1	n/a	n/a	n/a	21	11	1	2	8
3278.76	n/a	PROB	1639380	n/a	LTP259	ltpFR2	1	n/a	n/a	n/a	21	18	4	7	7
3281.288	n/a	PROB	1640644	n/a	LTP259	ltpFR2	1	n/a	n/a	n/a	21	16	2	7	7
3284.534	n/a	PROB	1642267	n/a	LTP259	ltpFR2	1	n/a	n/a	n/a	21	15	5	7	3
3286.082	n/a	PROB	1643041	n/a	LTP259	ltpFR2	1	n/a	n/a	n/a	21	16	3	6	7
3288.046	n/a	PROB	1644023	n/a	LTP259	ltpFR2	1	n/a	n/a	n/a	21	10	5	4	1
3289.794	n/a	PROB	1644897	n/a	LTP259	ltpFR2	1	n/a	n/a	n/a	21	6	3	1	2
3291.734	n/a	STOP	1645867	n/a	LTP259	ltpFR2	1	n/a	n/a	n/a	21	n/a	n/a	n/a	n/a
3294.004	n/a	REC_START	1647002	n/a	LTP259	ltpFR2	1	14	n/a	n/a	n/a	n/a	0	0	0
3295.708	n/a	REC_WORD	1647854	wordpools/wasnorm_wordpool_576.txt	LTP259	ltpFR2	1	14	DRAGON	492	n/a	n/a	0	0	0
3296.474	n/a	REC_WORD	1648237	wordpools/wasnorm_wordpool_576.txt	LTP259	ltpFR2	1	14	FOX	598	n/a	n/a	0	0	0
3297.24	n/a	REC_WORD	1648620	wordpools/wasnorm_wordpool_576.txt	LTP259	ltpFR2	1	14	SWAMP	1416	n/a	n/a	0	0	0
3298.142	n/a	REC_WORD	1649071	wordpools/wasnorm_wordpool_576.txt	LTP259	ltpFR2	1	14	HEDGE	699	n/a	n/a	0	0	0
3299.244	n/a	REC_WORD	1649622	wordpools/wasnorm_wordpool_576.txt	LTP259	ltpFR2	1	14	BANKER	84	n/a	n/a	0	0	0
3300.654	n/a	REC_WORD	1650327	wordpools/wasnorm_wordpool_576.txt	LTP259	ltpFR2	1	14	STOVE	1388	n/a	n/a	0	0	0
3302.006	n/a	REC_WORD	1651003	wordpools/wasnorm_wordpool_576.txt	LTP259	ltpFR2	1	14	GRILL	661	n/a	n/a	0	0	0
3302.728	n/a	REC_WORD	1651364	wordpools/wasnorm_wordpool_576.txt	LTP259	ltpFR2	1	14	PERMIT	1051	n/a	n/a	0	0	0
3304.158	n/a	REC_WORD	1652079	wordpools/wasnorm_wordpool_576.txt	LTP259	ltpFR2	1	14	CASHIER	254	n/a	n/a	0	0	0
3306.114	n/a	REC_WORD	1653057	wordpools/wasnorm_wordpool_576.txt	LTP259	ltpFR2	1	14	WIFE	1609	n/a	n/a	0	0	0
3307.862	n/a	REC_WORD	1653931	wordpools/wasnorm_wordpool_576.txt	LTP259	ltpFR2	1	14	PERMIT	1051	n/a	n/a	0	0	0
3309.134	n/a	REC_WORD	1654567	wordpools/wasnorm_wordpool_576.txt	LTP259	ltpFR2	1	14	SPOUSE	1358	n/a	n/a	0	0	0
3310.994	n/a	REC_WORD	1655497	wordpools/wasnorm_wordpool_576.txt	LTP259	ltpFR2	1	14	TRAVELER	-1	n/a	n/a	0	0	0
3312.718	n/a	REC_WORD	1656359	wordpools/wasnorm_wordpool_576.txt	LTP259	ltpFR2	1	14	TOURIST	1488	n/a	n/a	0	0	0
3315.536	n/a	REC_WORD	1657768	wordpools/wasnorm_wordpool_576.txt	LTP259	ltpFR2	1	14	ITEM	746	n/a	n/a	0	0	0
3317.58	n/a	REC_WORD	1658790	wordpools/wasnorm_wordpool_576.txt	LTP259	ltpFR2	1	14	GRAPE	654	n/a	n/a	0	0	0
3319.048	n/a	REC_WORD	1659524	wordpools/wasnorm_wordpool_576.txt	LTP259	ltpFR2	1	14	CUSTARD	429	n/a	n/a	0	0	0
3320.516	n/a	REC_WORD	1660258	wordpools/wasnorm_wordpool_576.txt	LTP259	ltpFR2	1	14	DUST	508	n/a	n/a	0	0	0
3324.792	n/a	REC_WORD	1662396	wordpools/wasnorm_wordpool_576.txt	LTP259	ltpFR2	1	14	CONVICT	371	n/a	n/a	0	0	0
3328.196	n/a	REC_WORD	1664098	wordpools/wasnorm_wordpool_576.txt	LTP259	ltpFR2	1	14	INMATE	738	n/a	n/a	0	0	0
3335.148	n/a	REC_WORD	1667574	wordpools/wasnorm_wordpool_576.txt	LTP259	ltpFR2	1	14	PLIERS	1089	n/a	n/a	0	0	0
3337.622	n/a	REC_WORD	1668811	wordpools/wasnorm_wordpool_576.txt	LTP259	ltpFR2	1	14	WRENCH	1625	n/a	n/a	0	0	0
3339.55	n/a	REC_WORD	1669775	wordpools/wasnorm_wordpool_576.txt	LTP259	ltpFR2	1	14	BRIEFCASE	175	n/a	n/a	0	0	0
3347.956	n/a	REC_WORD	1673978	wordpools/wasnorm_wordpool_576.txt	LTP259	ltpFR2	1	14	REBEL	1172	n/a	n/a	0	0	0
3384.652	n/a	DISTRACTOR	1692326	n/a	LTP259	ltpFR2	1	15	n/a	n/a	n/a	n/a	0	0	0
3384.654	n/a	START	1692327	n/a	LTP259	ltpFR2	1	n/a	n/a	n/a	22	n/a	n/a	n/a	n/a
3384.686	n/a	PROB	1692343	n/a	LTP259	ltpFR2	1	n/a	n/a	n/a	22	18	1	8	9
3386.868	n/a	PROB	1693434	n/a	LTP259	ltpFR2	1	n/a	n/a	n/a	22	14	3	9	2
3388.698	n/a	PROB	1694349	n/a	LTP259	ltpFR2	1	n/a	n/a	n/a	22	16	5	9	2
3390.462	n/a	PROB	1695231	n/a	LTP259	ltpFR2	1	n/a	n/a	n/a	22	16	7	8	1
3392.442	n/a	PROB	1696221	n/a	LTP259	ltpFR2	1	n/a	n/a	n/a	22	13	8	2	3
3394.024	n/a	PROB	1697012	n/a	LTP259	ltpFR2	1	n/a	n/a	n/a	22	12	1	4	7
3395.838	n/a	PROB	1697919	n/a	LTP259	ltpFR2	1	n/a	n/a	n/a	22	9	3	3	3
3397.25	n/a	PROB	1698625	n/a	LTP259	ltpFR2	1	n/a	n/a	n/a	22	6	3	2	1
3398.932	n/a	PROB	1699466	n/a	LTP259	ltpFR2	1	n/a	n/a	n/a	22	15	8	6	1
3401.846	n/a	PROB	1700923	n/a	LTP259	ltpFR2	1	n/a	n/a	n/a	22	18	9	1	8
3403.46	n/a	PROB	1701730	n/a	LTP259	ltpFR2	1	n/a	n/a	n/a	22	12	5	6	1
3405.34	n/a	PROB	1702670	n/a	LTP259	ltpFR2	1	n/a	n/a	n/a	22	20	3	9	8
3408.424	n/a	STOP	1704212	n/a	LTP259	ltpFR2	1	n/a	n/a	n/a	22	n/a	n/a	n/a	n/a
3409.85	n/a	WORD	1704925	wordpools/wasnorm_wordpool_576.txt	LTP259	ltpFR2	1	15	JAPAN	749	n/a	n/a	0	0	0
3412.48	n/a	WORD	1706240	wordpools/wasnorm_wordpool_576.txt	LTP259	ltpFR2	1	15	SKETCH	1315	n/a	n/a	0	0	0
3415.208	n/a	WORD	1707604	wordpools/wasnorm_wordpool_576.txt	LTP259	ltpFR2	1	15	MAMMAL	861	n/a	n/a	0	0	0
3417.772	n/a	WORD	1708886	wordpools/wasnorm_wordpool_576.txt	LTP259	ltpFR2	1	15	BEAVER	109	n/a	n/a	0	0	0
3420.584	n/a	WORD	1710292	wordpools/wasnorm_wordpool_576.txt	LTP259	ltpFR2	1	15	TUNNEL	1519	n/a	n/a	0	0	0
3423.03	n/a	WORD	1711515	wordpools/wasnorm_wordpool_576.txt	LTP259	ltpFR2	1	15	COUNTRY	388	n/a	n/a	0	0	0
3425.626	n/a	WORD	1712813	wordpools/wasnorm_wordpool_576.txt	LTP259	ltpFR2	1	15	PASSAGE	1019	n/a	n/a	0	0	0
3428.388	n/a	WORD	1714194	wordpools/wasnorm_wordpool_576.txt	LTP259	ltpFR2	1	15	COURSE	390	n/a	n/a	0	0	0
3430.902	n/a	WORD	1715451	wordpools/wasnorm_wordpool_576.txt	LTP259	ltpFR2	1	15	PATIENT	1024	n/a	n/a	0	0	0
3433.448	n/a	WORD	1716724	wordpools/wasnorm_wordpool_576.txt	LTP259	ltpFR2	1	15	SHORTS	1293	n/a	n/a	0	0	0
3436.226	n/a	WORD	1718113	wordpools/wasnorm_wordpool_576.txt	LTP259	ltpFR2	1	15	PISTON	1076	n/a	n/a	0	0	0
3438.806	n/a	WORD	1719403	wordpools/wasnorm_wordpool_576.txt	LTP259	ltpFR2	1	15	CRAB	397	n/a	n/a	0	0	0
3441.336	n/a	WORD	1720668	wordpools/wasnorm_wordpool_576.txt	LTP259	ltpFR2	1	15	UMPIRE	1535	n/a	n/a	0	0	0
3444.13	n/a	WORD	1722065	wordpools/wasnorm_wordpool_576.txt	LTP259	ltpFR2	1	15	CEILING	265	n/a	n/a	0	0	0
3446.828	n/a	WORD	1723414	wordpools/wasnorm_wordpool_576.txt	LTP259	ltpFR2	1	15	SKIRT	1319	n/a	n/a	0	0	0
3449.624	n/a	WORD	1724812	wordpools/wasnorm_wordpool_576.txt	LTP259	ltpFR2	1	15	BRICK	172	n/a	n/a	0	0	0
3452.268	n/a	WORD	1726134	wordpools/wasnorm_wordpool_576.txt	LTP259	ltpFR2	1	15	CABIN	211	n/a	n/a	0	0	0
3454.966	n/a	WORD	1727483	wordpools/wasnorm_wordpool_576.txt	LTP259	ltpFR2	1	15	CAPTIVE	240	n/a	n/a	0	0	0
3457.462	n/a	WORD	1728731	wordpools/wasnorm_wordpool_576.txt	LTP259	ltpFR2	1	15	TRENCH	1503	n/a	n/a	0	0	0
3460.174	n/a	WORD	1730087	wordpools/wasnorm_wordpool_576.txt	LTP259	ltpFR2	1	15	STATUE	1374	n/a	n/a	0	0	0
3462.888	n/a	WORD	1731444	wordpools/wasnorm_wordpool_576.txt	LTP259	ltpFR2	1	15	SCALLOP	1242	n/a	n/a	0	0	0
3465.7	n/a	WORD	1732850	wordpools/wasnorm_wordpool_576.txt	LTP259	ltpFR2	1	15	DIVER	476	n/a	n/a	0	0	0
3468.43	n/a	WORD	1734215	wordpools/wasnorm_wordpool_576.txt	LTP259	ltpFR2	1	15	COUNTY	389	n/a	n/a	0	0	0
3471.01	n/a	WORD	1735505	wordpools/wasnorm_wordpool_576.txt	LTP259	ltpFR2	1	15	COCOON	339	n/a	n/a	0	0	0
3472.624	n/a	START	1736312	n/a	LTP259	ltpFR2	1	n/a	n/a	n/a	23	n/a	n/a	n/a	n/a
3473.426	n/a	DISTRACTOR	1736713	n/a	LTP259	ltpFR2	1	15	n/a	n/a	n/a	n/a	0	0	0
3473.44	n/a	PROB	1736720	n/a	LTP259	ltpFR2	1	n/a	n/a	n/a	23	9	1	2	6
3475.352	n/a	PROB	1737676	n/a	LTP259	ltpFR2	1	n/a	n/a	n/a	23	6	2	1	3
3477.082	n/a	PROB	1738541	n/a	LTP259	ltpFR2	1	n/a	n/a	n/a	23	16	2	9	5
3478.782	n/a	PROB	1739391	n/a	LTP259	ltpFR2	1	n/a	n/a	n/a	23	12	1	3	8
3480.512	n/a	PROB	1740256	n/a	LTP259	ltpFR2	1	n/a	n/a	n/a	23	15	5	2	8
3481.86	n/a	PROB	1740930	n/a	LTP259	ltpFR2	1	n/a	n/a	n/a	23	26	8	9	9
3483.824	n/a	PROB	1741912	n/a	LTP259	ltpFR2	1	n/a	n/a	n/a	23	15	9	1	5
3485.154	n/a	PROB	1742577	n/a	LTP259	ltpFR2	1	n/a	n/a	n/a	23	20	8	5	7
3488.5	n/a	PROB	1744250	n/a	LTP259	ltpFR2	1	n/a	n/a	n/a	23	12	3	3	6
3490.78	n/a	PROB	1745390	n/a	LTP259	ltpFR2	1	n/a	n/a	n/a	23	9	4	4	1
3492.176	n/a	PROB	1746088	n/a	LTP259	ltpFR2	1	n/a	n/a	n/a	23	18	4	9	5
3496.624	n/a	STOP	1748312	n/a	LTP259	ltpFR2	1	n/a	n/a	n/a	23	n/a	n/a	n/a	n/a
3498.486	n/a	REC_START	1749243	n/a	LTP259	ltpFR2	1	15	n/a	n/a	n/a	n/a	0	0	0
3499.4	n/a	REC_WORD	1749700	wordpools/wasnorm_wordpool_576.txt	LTP259	ltpFR2	1	15	DIVER	476	n/a	n/a	0	0	0
3500.0	n/a	REC_WORD	1750000	wordpools/wasnorm_wordpool_576.txt	LTP259	ltpFR2	1	15	SCALLOP	1242	n/a	n/a	0	0	0
3500.898	n/a	REC_WORD	1750449	wordpools/wasnorm_wordpool_576.txt	LTP259	ltpFR2	1	15	COUNTY	389	n/a	n/a	0	0	0
3503.486	n/a	REC_WORD	1751743	wordpools/wasnorm_wordpool_576.txt	LTP259	ltpFR2	1	15	COUNTRY	388	n/a	n/a	0	0	0
3504.512	n/a	REC_WORD	1752256	wordpools/wasnorm_wordpool_576.txt	LTP259	ltpFR2	1	15	PATIENT	1024	n/a	n/a	0	0	0
3506.494	n/a	REC_WORD	1753247	wordpools/wasnorm_wordpool_576.txt	LTP259	ltpFR2	1	15	PASSAGE	1019	n/a	n/a	0	0	0
3508.178	n/a	REC_WORD	1754089	wordpools/wasnorm_wordpool_576.txt	LTP259	ltpFR2	1	15	TUNNEL	1519	n/a	n/a	0	0	0
3511.14	n/a	REC_WORD	1755570	wordpools/wasnorm_wordpool_576.txt	LTP259	ltpFR2	1	15	BRIDGE	174	n/a	n/a	0	0	0
3512.534	n/a	REC_WORD	1756267	wordpools/wasnorm_wordpool_576.txt	LTP259	ltpFR2	1	15	JAPAN	749	n/a	n/a	0	0	0
3513.324	n/a	REC_WORD	1756662	wordpools/wasnorm_wordpool_576.txt	LTP259	ltpFR2	1	15	SKETCH	1315	n/a	n/a	0	0	0
3514.676	n/a	REC_WORD	1757338	wordpools/wasnorm_wordpool_576.txt	LTP259	ltpFR2	1	15	MAMMAL	861	n/a	n/a	0	0	0
3517.724	n/a	REC_WORD	1758862	wordpools/wasnorm_wordpool_576.txt	LTP259	ltpFR2	1	15	BEAVER	109	n/a	n/a	0	0	0
3526.68	n/a	REC_WORD	1763340	wordpools/wasnorm_wordpool_576.txt	LTP259	ltpFR2	1	15	STATUE	1374	n/a	n/a	0	0	0
3528.344	n/a	REC_WORD	1764172	wordpools/wasnorm_wordpool_576.txt	LTP259	ltpFR2	1	15	CAPTIVE	240	n/a	n/a	0	0	0
3531.44	n/a	REC_WORD	1765720	wordpools/wasnorm_wordpool_576.txt	LTP259	ltpFR2	1	15	BRICK	172	n/a	n/a	0	0	0
3532.574	n/a	REC_WORD	1766287	wordpools/wasnorm_wordpool_576.txt	LTP259	ltpFR2	1	15	CEILING	265	n/a	n/a	0	0	0
3534.228	n/a	REC_WORD	1767114	wordpools/wasnorm_wordpool_576.txt	LTP259	ltpFR2	1	15	UMPIRE	1535	n/a	n/a	0	0	0
3539.834	n/a	REC_WORD	1769917	wordpools/wasnorm_wordpool_576.txt	LTP259	ltpFR2	1	15	COTTAGE	384	n/a	n/a	0	0	0
3568.606	n/a	REC_WORD	1784303	wordpools/wasnorm_wordpool_576.txt	LTP259	ltpFR2	1	15	SKIRT	1319	n/a	n/a	0	0	0
3569.606	n/a	REC_WORD_VV	1784803	wordpools/wasnorm_wordpool_576.txt	LTP259	ltpFR2	1	15	<>	-1	n/a	n/a	0	0	0
3571.26	n/a	REC_WORD	1785630	wordpools/wasnorm_wordpool_576.txt	LTP259	ltpFR2	1	15	SHORTS	1293	n/a	n/a	0	0	0
3589.166	n/a	WORD	1794583	wordpools/wasnorm_wordpool_576.txt	LTP259	ltpFR2	1	16	MESSAGE	888	n/a	n/a	0	0	0
3591.93	n/a	WORD	1795965	wordpools/wasnorm_wordpool_576.txt	LTP259	ltpFR2	1	16	HEADBAND	696	n/a	n/a	0	0	0
3594.51	n/a	WORD	1797255	wordpools/wasnorm_wordpool_576.txt	LTP259	ltpFR2	1	16	PRINCESS	1125	n/a	n/a	0	0	0
3597.256	n/a	WORD	1798628	wordpools/wasnorm_wordpool_576.txt	LTP259	ltpFR2	1	16	MISSILE	900	n/a	n/a	0	0	0
3599.87	n/a	WORD	1799935	wordpools/wasnorm_wordpool_576.txt	LTP259	ltpFR2	1	16	BANK	83	n/a	n/a	0	0	0
3602.366	n/a	WORD	1801183	wordpools/wasnorm_wordpool_576.txt	LTP259	ltpFR2	1	16	THRONE	1461	n/a	n/a	0	0	0
3604.844	n/a	WORD	1802422	wordpools/wasnorm_wordpool_576.txt	LTP259	ltpFR2	1	16	GUARD	667	n/a	n/a	0	0	0
3607.54	n/a	WORD	1803770	wordpools/wasnorm_wordpool_576.txt	LTP259	ltpFR2	1	16	LIZARD	834	n/a	n/a	0	0	0
3610.304	n/a	WORD	1805152	wordpools/wasnorm_wordpool_576.txt	LTP259	ltpFR2	1	16	GROUND	666	n/a	n/a	0	0	0
3612.866	n/a	WORD	1806433	wordpools/wasnorm_wordpool_576.txt	LTP259	ltpFR2	1	16	CANDY	230	n/a	n/a	0	0	0
3615.528	n/a	WORD	1807764	wordpools/wasnorm_wordpool_576.txt	LTP259	ltpFR2	1	16	KLEENEX	782	n/a	n/a	0	0	0
3618.026	n/a	WORD	1809013	wordpools/wasnorm_wordpool_576.txt	LTP259	ltpFR2	1	16	QUARTER	1148	n/a	n/a	0	0	0
3620.522	n/a	WORD	1810261	wordpools/wasnorm_wordpool_576.txt	LTP259	ltpFR2	1	16	LABEL	790	n/a	n/a	0	0	0
3623.166	n/a	WORD	1811583	wordpools/wasnorm_wordpool_576.txt	LTP259	ltpFR2	1	16	CANAL	226	n/a	n/a	0	0	0
3625.88	n/a	WORD	1812940	wordpools/wasnorm_wordpool_576.txt	LTP259	ltpFR2	1	16	BROOK	177	n/a	n/a	0	0	0
3628.394	n/a	WORD	1814197	wordpools/wasnorm_wordpool_576.txt	LTP259	ltpFR2	1	16	ARMY	39	n/a	n/a	0	0	0
3630.872	n/a	WORD	1815436	wordpools/wasnorm_wordpool_576.txt	LTP259	ltpFR2	1	16	LIGHTNING	820	n/a	n/a	0	0	0
3633.586	n/a	WORD	1816793	wordpools/wasnorm_wordpool_576.txt	LTP259	ltpFR2	1	16	MONEY	908	n/a	n/a	0	0	0
3636.198	n/a	WORD	1818099	wordpools/wasnorm_wordpool_576.txt	LTP259	ltpFR2	1	16	EYELASH	546	n/a	n/a	0	0	0
3638.96	n/a	WORD	1819480	wordpools/wasnorm_wordpool_576.txt	LTP259	ltpFR2	1	16	LOVER	846	n/a	n/a	0	0	0
3641.49	n/a	WORD	1820745	wordpools/wasnorm_wordpool_576.txt	LTP259	ltpFR2	1	16	FEMALE	559	n/a	n/a	0	0	0
3644.286	n/a	WORD	1822143	wordpools/wasnorm_wordpool_576.txt	LTP259	ltpFR2	1	16	LAVA	804	n/a	n/a	0	0	0
3646.916	n/a	WORD	1823458	wordpools/wasnorm_wordpool_576.txt	LTP259	ltpFR2	1	16	SHORTCAKE	1292	n/a	n/a	0	0	0
3649.346	n/a	WORD	1824673	wordpools/wasnorm_wordpool_576.txt	LTP259	ltpFR2	1	16	SALAD	1224	n/a	n/a	0	0	0
3650.96	n/a	START	1825480	n/a	LTP259	ltpFR2	1	n/a	n/a	n/a	24	n/a	n/a	n/a	n/a
3651.936	n/a	DISTRACTOR	1825968	n/a	LTP259	ltpFR2	1	16	n/a	n/a	n/a	n/a	0	0	0
3651.942	n/a	PROB	1825971	n/a	LTP259	ltpFR2	1	n/a	n/a	n/a	24	13	5	5	3
3654.07	n/a	PROB	1827035	n/a	LTP259	ltpFR2	1	n/a	n/a	n/a	24	8	1	3	4
3656.834	n/a	PROB	1828417	n/a	LTP259	ltpFR2	1	n/a	n/a	n/a	24	13	2	9	2
3658.998	n/a	PROB	1829499	n/a	LTP259	ltpFR2	1	n/a	n/a	n/a	24	15	2	8	5
3660.612	n/a	PROB	1830306	n/a	LTP259	ltpFR2	1	n/a	n/a	n/a	24	14	3	3	8
3662.792	n/a	PROB	1831396	n/a	LTP259	ltpFR2	1	n/a	n/a	n/a	24	10	2	1	7
3664.874	n/a	PROB	1832437	n/a	LTP259	ltpFR2	1	n/a	n/a	n/a	24	18	7	9	2
3667.202	n/a	PROB	1833601	n/a	LTP259	ltpFR2	1	n/a	n/a	n/a	24	17	8	7	2
3669.782	n/a	PROB	1834891	n/a	LTP259	ltpFR2	1	n/a	n/a	n/a	24	20	8	8	4
3672.294	n/a	PROB	1836147	n/a	LTP259	ltpFR2	1	n/a	n/a	n/a	24	12	2	1	9
3673.708	n/a	STOP	1836854	n/a	LTP259	ltpFR2	1	n/a	n/a	n/a	24	n/a	n/a	n/a	n/a
3676.906	n/a	REC_START	1838453	n/a	LTP259	ltpFR2	1	16	n/a	n/a	n/a	n/a	0	0	0
3678.154	n/a	REC_WORD	1839077	wordpools/wasnorm_wordpool_576.txt	LTP259	ltpFR2	1	16	PRINCESS	1125	n/a	n/a	0	0	0
3679.462	n/a	REC_WORD	1839731	wordpools/wasnorm_wordpool_576.txt	LTP259	ltpFR2	1	16	BANK	83	n/a	n/a	0	0	0
3680.304	n/a	REC_WORD	1840152	wordpools/wasnorm_wordpool_576.txt	LTP259	ltpFR2	1	16	LAVA	804	n/a	n/a	0	0	0
3681.428	n/a	REC_WORD	1840714	wordpools/wasnorm_wordpool_576.txt	LTP259	ltpFR2	1	16	SHORTCAKE	1292	n/a	n/a	0	0	0
3682.904	n/a	REC_WORD	1841452	wordpools/wasnorm_wordpool_576.txt	LTP259	ltpFR2	1	16	EYELASH	546	n/a	n/a	0	0	0
3683.932	n/a	REC_WORD	1841966	wordpools/wasnorm_wordpool_576.txt	LTP259	ltpFR2	1	16	LOVER	846	n/a	n/a	0	0	0
3685.33	n/a	REC_WORD	1842665	wordpools/wasnorm_wordpool_576.txt	LTP259	ltpFR2	1	16	WOMAN	1620	n/a	n/a	0	0	0
3688.764	n/a	REC_WORD	1844382	wordpools/wasnorm_wordpool_576.txt	LTP259	ltpFR2	1	16	GIRL	637	n/a	n/a	0	0	0
3693.418	n/a	REC_WORD	1846709	wordpools/wasnorm_wordpool_576.txt	LTP259	ltpFR2	1	16	LIZARD	834	n/a	n/a	0	0	0
3694.712	n/a	REC_WORD	1847356	wordpools/wasnorm_wordpool_576.txt	LTP259	ltpFR2	1	16	LABEL	790	n/a	n/a	0	0	0
3696.058	n/a	REC_WORD	1848029	wordpools/wasnorm_wordpool_576.txt	LTP259	ltpFR2	1	16	ARMY	39	n/a	n/a	0	0	0
3696.938	n/a	REC_WORD	1848469	wordpools/wasnorm_wordpool_576.txt	LTP259	ltpFR2	1	16	CANAL	226	n/a	n/a	0	0	0
3702.058	n/a	REC_WORD	1851029	wordpools/wasnorm_wordpool_576.txt	LTP259	ltpFR2	1	16	LIGHTNING	820	n/a	n/a	0	0	0
3704.72	n/a	REC_WORD	1852360	wordpools/wasnorm_wordpool_576.txt	LTP259	ltpFR2	1	16	SHORTCAKE	1292	n/a	n/a	0	0	0
3706.198	n/a	REC_WORD	1853099	wordpools/wasnorm_wordpool_576.txt	LTP259	ltpFR2	1	16	SALAD	1224	n/a	n/a	0	0	0
3709.716	n/a	REC_WORD	1854858	wordpools/wasnorm_wordpool_576.txt	LTP259	ltpFR2	1	16	KLEENEX	782	n/a	n/a	0	0	0
3712.36	n/a	REC_WORD	1856180	wordpools/wasnorm_wordpool_576.txt	LTP259	ltpFR2	1	16	MONEY	908	n/a	n/a	0	0	0
3722.582	n/a	REC_WORD	1861291	wordpools/wasnorm_wordpool_576.txt	LTP259	ltpFR2	1	16	PRINCESS	1125	n/a	n/a	0	0	0
3724.608	n/a	REC_WORD	1862304	wordpools/wasnorm_wordpool_576.txt	LTP259	ltpFR2	1	16	THRONE	1461	n/a	n/a	0	0	0
3737.804	n/a	REC_WORD	1868902	wordpools/wasnorm_wordpool_576.txt	LTP259	ltpFR2	1	16	CANDY	230	n/a	n/a	0	0	0
3740.044	n/a	REC_WORD	1870022	wordpools/wasnorm_wordpool_576.txt	LTP259	ltpFR2	1	16	GROUND	666	n/a	n/a	0	0	0
3741.886	n/a	REC_WORD	1870943	wordpools/wasnorm_wordpool_576.txt	LTP259	ltpFR2	1	16	PATROL	1027	n/a	n/a	0	0	0
3753.508	n/a	REST_REWET	1876754	n/a	LTP259	ltpFR2	1	16	n/a	n/a	n/a	n/a	0	0	0
4011.028	n/a	DISTRACTOR	2005514	n/a	LTP259	ltpFR2	1	17	n/a	n/a	n/a	n/a	0	0	0
4011.028	n/a	START	2005514	n/a	LTP259	ltpFR2	1	n/a	n/a	n/a	25	n/a	n/a	n/a	n/a
4011.062	n/a	PROB	2005531	n/a	LTP259	ltpFR2	1	n/a	n/a	n/a	25	23	8	9	6
4017.852	n/a	PROB	2008926	n/a	LTP259	ltpFR2	1	n/a	n/a	n/a	25	20	7	4	9
4022.412	n/a	PROB	2011206	n/a	LTP259	ltpFR2	1	n/a	n/a	n/a	25	21	8	4	9
4030.264	n/a	PROB	2015132	n/a	LTP259	ltpFR2	1	n/a	n/a	n/a	25	18	2	9	7
4034.44	n/a	STOP	2017220	n/a	LTP259	ltpFR2	1	n/a	n/a	n/a	25	n/a	n/a	n/a	n/a
4036.222	n/a	WORD	2018111	wordpools/wasnorm_wordpool_576.txt	LTP259	ltpFR2	1	17	COLONEL	348	n/a	n/a	0	0	0
4038.886	n/a	WORD	2019443	wordpools/wasnorm_wordpool_576.txt	LTP259	ltpFR2	1	17	DORM	488	n/a	n/a	0	0	0
4041.516	n/a	WORD	2020758	wordpools/wasnorm_wordpool_576.txt	LTP259	ltpFR2	1	17	COTTAGE	384	n/a	n/a	0	0	0
4043.962	n/a	WORD	2021981	wordpools/wasnorm_wordpool_576.txt	LTP259	ltpFR2	1	17	SWIMMER	1420	n/a	n/a	0	0	0
4046.442	n/a	WORD	2023221	wordpools/wasnorm_wordpool_576.txt	LTP259	ltpFR2	1	17	LAPEL	800	n/a	n/a	0	0	0
4049.236	n/a	WORD	2024618	wordpools/wasnorm_wordpool_576.txt	LTP259	ltpFR2	1	17	OINTMENT	974	n/a	n/a	0	0	0
4051.768	n/a	WORD	2025884	wordpools/wasnorm_wordpool_576.txt	LTP259	ltpFR2	1	17	MARSH	874	n/a	n/a	0	0	0
4054.33	n/a	WORD	2027165	wordpools/wasnorm_wordpool_576.txt	LTP259	ltpFR2	1	17	TAXI	1438	n/a	n/a	0	0	0
4056.942	n/a	WORD	2028471	wordpools/wasnorm_wordpool_576.txt	LTP259	ltpFR2	1	17	COMPASS	358	n/a	n/a	0	0	0
4059.656	n/a	WORD	2029828	wordpools/wasnorm_wordpool_576.txt	LTP259	ltpFR2	1	17	TOASTER	1472	n/a	n/a	0	0	0
4062.234	n/a	WORD	2031117	wordpools/wasnorm_wordpool_576.txt	LTP259	ltpFR2	1	17	RADISH	1158	n/a	n/a	0	0	0
4064.93	n/a	WORD	2032465	wordpools/wasnorm_wordpool_576.txt	LTP259	ltpFR2	1	17	BODY	145	n/a	n/a	0	0	0
4067.71	n/a	WORD	2033855	wordpools/wasnorm_wordpool_576.txt	LTP259	ltpFR2	1	17	SKILLET	1317	n/a	n/a	0	0	0
4070.374	n/a	WORD	2035187	wordpools/wasnorm_wordpool_576.txt	LTP259	ltpFR2	1	17	WAGON	1578	n/a	n/a	0	0	0
4072.836	n/a	WORD	2036418	wordpools/wasnorm_wordpool_576.txt	LTP259	ltpFR2	1	17	COFFEE	341	n/a	n/a	0	0	0
4075.266	n/a	WORD	2037633	wordpools/wasnorm_wordpool_576.txt	LTP259	ltpFR2	1	17	GLASS	639	n/a	n/a	0	0	0
4077.846	n/a	WORD	2038923	wordpools/wasnorm_wordpool_576.txt	LTP259	ltpFR2	1	17	COBRA	336	n/a	n/a	0	0	0
4080.392	n/a	WORD	2040196	wordpools/wasnorm_wordpool_576.txt	LTP259	ltpFR2	1	17	LUMBER	848	n/a	n/a	0	0	0
4083.138	n/a	WORD	2041569	wordpools/wasnorm_wordpool_576.txt	LTP259	ltpFR2	1	17	TORTOISE	1486	n/a	n/a	0	0	0
4085.918	n/a	WORD	2042959	wordpools/wasnorm_wordpool_576.txt	LTP259	ltpFR2	1	17	SNAIL	1332	n/a	n/a	0	0	0
4088.664	n/a	WORD	2044332	wordpools/wasnorm_wordpool_576.txt	LTP259	ltpFR2	1	17	CONCERT	360	n/a	n/a	0	0	0
4091.174	n/a	WORD	2045587	wordpools/wasnorm_wordpool_576.txt	LTP259	ltpFR2	1	17	MONSTER	912	n/a	n/a	0	0	0
4093.706	n/a	WORD	2046853	wordpools/wasnorm_wordpool_576.txt	LTP259	ltpFR2	1	17	MUFFIN	929	n/a	n/a	0	0	0
4096.284	n/a	WORD	2048142	wordpools/wasnorm_wordpool_576.txt	LTP259	ltpFR2	1	17	BOARD	143	n/a	n/a	0	0	0
4097.9	n/a	START	2048950	n/a	LTP259	ltpFR2	1	n/a	n/a	n/a	26	n/a	n/a	n/a	n/a
4098.84	n/a	DISTRACTOR	2049420	n/a	LTP259	ltpFR2	1	17	n/a	n/a	n/a	n/a	0	0	0
