onset	duration	trial_type	sample	stim_file	subject	experiment	session	trial	item_name	item_num	list	answer	test_x	test_y	test_z
273.006	n/a	SESS_START	136503	n/a	LTP259	ltpFR2	20	n/a	n/a	n/a	n/a	n/a	0	0	0
287.268	n/a	START	143634	n/a	LTP259	ltpFR2	20	n/a	n/a	n/a	-1	n/a	n/a	n/a	n/a
287.282	n/a	PROB	143641	n/a	LTP259	ltpFR2	20	n/a	n/a	n/a	-1	13	4	5	4
291.336	n/a	PROB	145668	n/a	LTP259	ltpFR2	20	n/a	n/a	n/a	-1	14	7	1	6
293.922	n/a	PROB	146961	n/a	LTP259	ltpFR2	20	n/a	n/a	n/a	-1	18	3	8	7
295.974	n/a	PROB	147987	n/a	LTP259	ltpFR2	20	n/a	n/a	n/a	-1	8	3	2	3
297.922	n/a	STOP	148961	n/a	LTP259	ltpFR2	20	n/a	n/a	n/a	-1	n/a	n/a	n/a	n/a
333.534	n/a	WORD	166767	wordpools/wasnorm_wordpool_576.txt	LTP259	ltpFR2	20	1	SCOTCH	1251	n/a	n/a	0	0	0
336.072	n/a	WORD	168036	wordpools/wasnorm_wordpool_576.txt	LTP259	ltpFR2	20	1	LAMP	798	n/a	n/a	0	0	0
338.756	n/a	WORD	169378	wordpools/wasnorm_wordpool_576.txt	LTP259	ltpFR2	20	1	CONTRACT	368	n/a	n/a	0	0	0
341.358	n/a	WORD	170679	wordpools/wasnorm_wordpool_576.txt	LTP259	ltpFR2	20	1	STAMP	1370	n/a	n/a	0	0	0
344.01	n/a	WORD	172005	wordpools/wasnorm_wordpool_576.txt	LTP259	ltpFR2	20	1	PLASTER	1085	n/a	n/a	0	0	0
346.578	n/a	WORD	173289	wordpools/wasnorm_wordpool_576.txt	LTP259	ltpFR2	20	1	PAPER	1011	n/a	n/a	0	0	0
349.33	n/a	WORD	174665	wordpools/wasnorm_wordpool_576.txt	LTP259	ltpFR2	20	1	TORTOISE	1486	n/a	n/a	0	0	0
352.018	n/a	WORD	176009	wordpools/wasnorm_wordpool_576.txt	LTP259	ltpFR2	20	1	SNAIL	1332	n/a	n/a	0	0	0
354.502	n/a	WORD	177251	wordpools/wasnorm_wordpool_576.txt	LTP259	ltpFR2	20	1	BEEF	113	n/a	n/a	0	0	0
356.988	n/a	WORD	178494	wordpools/wasnorm_wordpool_576.txt	LTP259	ltpFR2	20	1	POPCORN	1104	n/a	n/a	0	0	0
359.606	n/a	WORD	179803	wordpools/wasnorm_wordpool_576.txt	LTP259	ltpFR2	20	1	CANDY	230	n/a	n/a	0	0	0
362.076	n/a	WORD	181038	wordpools/wasnorm_wordpool_576.txt	LTP259	ltpFR2	20	1	SWITCH	1422	n/a	n/a	0	0	0
364.828	n/a	WORD	182414	wordpools/wasnorm_wordpool_576.txt	LTP259	ltpFR2	20	1	QUEEN	1149	n/a	n/a	0	0	0
367.362	n/a	WORD	183681	wordpools/wasnorm_wordpool_576.txt	LTP259	ltpFR2	20	1	TREAT	1501	n/a	n/a	0	0	0
369.932	n/a	WORD	184966	wordpools/wasnorm_wordpool_576.txt	LTP259	ltpFR2	20	1	ROCKET	1202	n/a	n/a	0	0	0
372.682	n/a	WORD	186341	wordpools/wasnorm_wordpool_576.txt	LTP259	ltpFR2	20	1	TART	1436	n/a	n/a	0	0	0
375.102	n/a	WORD	187551	wordpools/wasnorm_wordpool_576.txt	LTP259	ltpFR2	20	1	PASTRY	1022	n/a	n/a	0	0	0
377.904	n/a	WORD	188952	wordpools/wasnorm_wordpool_576.txt	LTP259	ltpFR2	20	1	GAZELLE	628	n/a	n/a	0	0	0
380.456	n/a	WORD	190228	wordpools/wasnorm_wordpool_576.txt	LTP259	ltpFR2	20	1	BLENDER	136	n/a	n/a	0	0	0
382.926	n/a	WORD	191463	wordpools/wasnorm_wordpool_576.txt	LTP259	ltpFR2	20	1	MUMMY	932	n/a	n/a	0	0	0
385.676	n/a	WORD	192838	wordpools/wasnorm_wordpool_576.txt	LTP259	ltpFR2	20	1	POLICE	1098	n/a	n/a	0	0	0
388.194	n/a	WORD	194097	wordpools/wasnorm_wordpool_576.txt	LTP259	ltpFR2	20	1	OZONE	996	n/a	n/a	0	0	0
390.646	n/a	WORD	195323	wordpools/wasnorm_wordpool_576.txt	LTP259	ltpFR2	20	1	LIVER	833	n/a	n/a	0	0	0
393.25	n/a	WORD	196625	wordpools/wasnorm_wordpool_576.txt	LTP259	ltpFR2	20	1	FARMER	553	n/a	n/a	0	0	0
394.852	n/a	START	197426	n/a	LTP259	ltpFR2	20	n/a	n/a	n/a	1	n/a	n/a	n/a	n/a
395.91	n/a	DISTRACTOR	197955	n/a	LTP259	ltpFR2	20	1	n/a	n/a	n/a	n/a	0	0	0
395.918	n/a	PROB	197959	n/a	LTP259	ltpFR2	20	n/a	n/a	n/a	1	17	8	8	1
398.604	n/a	PROB	199302	n/a	LTP259	ltpFR2	20	n/a	n/a	n/a	1	7	3	2	2
400.572	n/a	PROB	200286	n/a	LTP259	ltpFR2	20	n/a	n/a	n/a	1	7	1	4	2
402.54	n/a	PROB	201270	n/a	LTP259	ltpFR2	20	n/a	n/a	n/a	1	14	2	9	3
404.108	n/a	PROB	202054	n/a	LTP259	ltpFR2	20	n/a	n/a	n/a	1	17	5	8	4
408.962	n/a	PROB	204481	n/a	LTP259	ltpFR2	20	n/a	n/a	n/a	1	20	8	7	5
411.364	n/a	PROB	205682	n/a	LTP259	ltpFR2	20	n/a	n/a	n/a	1	13	7	5	1
413.9	n/a	PROB	206950	n/a	LTP259	ltpFR2	20	n/a	n/a	n/a	1	19	6	8	5
418.38	n/a	STOP	209190	n/a	LTP259	ltpFR2	20	n/a	n/a	n/a	1	n/a	n/a	n/a	n/a
420.604	n/a	REC_START	210302	n/a	LTP259	ltpFR2	20	1	n/a	n/a	n/a	n/a	0	0	0
421.248	n/a	REC_WORD	210624	wordpools/wasnorm_wordpool_576.txt	LTP259	ltpFR2	20	1	OZONE	996	n/a	n/a	0	0	0
421.872	n/a	REC_WORD	210936	wordpools/wasnorm_wordpool_576.txt	LTP259	ltpFR2	20	1	FARMER	553	n/a	n/a	0	0	0
422.596	n/a	REC_WORD	211298	wordpools/wasnorm_wordpool_576.txt	LTP259	ltpFR2	20	1	POLICE	1098	n/a	n/a	0	0	0
423.438	n/a	REC_WORD	211719	wordpools/wasnorm_wordpool_576.txt	LTP259	ltpFR2	20	1	TORTOISE	1486	n/a	n/a	0	0	0
424.152	n/a	REC_WORD	212076	wordpools/wasnorm_wordpool_576.txt	LTP259	ltpFR2	20	1	TREAT	1501	n/a	n/a	0	0	0
424.728	n/a	REC_WORD	212364	wordpools/wasnorm_wordpool_576.txt	LTP259	ltpFR2	20	1	ROCKET	1202	n/a	n/a	0	0	0
425.73	n/a	REC_WORD	212865	wordpools/wasnorm_wordpool_576.txt	LTP259	ltpFR2	20	1	PASTRY	1022	n/a	n/a	0	0	0
426.58	n/a	REC_WORD_VV	213290	wordpools/wasnorm_wordpool_576.txt	LTP259	ltpFR2	20	1	<>	-1	n/a	n/a	0	0	0
427.068	n/a	REC_WORD	213534	wordpools/wasnorm_wordpool_576.txt	LTP259	ltpFR2	20	1	TART	1436	n/a	n/a	0	0	0
427.81	n/a	REC_WORD	213905	wordpools/wasnorm_wordpool_576.txt	LTP259	ltpFR2	20	1	SNAIL	1332	n/a	n/a	0	0	0
428.648	n/a	REC_WORD	214324	wordpools/wasnorm_wordpool_576.txt	LTP259	ltpFR2	20	1	BEEF	113	n/a	n/a	0	0	0
429.206	n/a	REC_WORD	214603	wordpools/wasnorm_wordpool_576.txt	LTP259	ltpFR2	20	1	POPCORN	1104	n/a	n/a	0	0	0
430.066	n/a	REC_WORD	215033	wordpools/wasnorm_wordpool_576.txt	LTP259	ltpFR2	20	1	CANDY	230	n/a	n/a	0	0	0
431.27	n/a	REC_WORD	215635	wordpools/wasnorm_wordpool_576.txt	LTP259	ltpFR2	20	1	QUEEN	1149	n/a	n/a	0	0	0
432.322	n/a	REC_WORD	216161	wordpools/wasnorm_wordpool_576.txt	LTP259	ltpFR2	20	1	GAZELLE	628	n/a	n/a	0	0	0
434.086	n/a	REC_WORD	217043	wordpools/wasnorm_wordpool_576.txt	LTP259	ltpFR2	20	1	CONTRACT	368	n/a	n/a	0	0	0
434.85	n/a	REC_WORD	217425	wordpools/wasnorm_wordpool_576.txt	LTP259	ltpFR2	20	1	SCOTCH	1251	n/a	n/a	0	0	0
435.724	n/a	REC_WORD	217862	wordpools/wasnorm_wordpool_576.txt	LTP259	ltpFR2	20	1	LIVER	833	n/a	n/a	0	0	0
437.386	n/a	REC_WORD	218693	wordpools/wasnorm_wordpool_576.txt	LTP259	ltpFR2	20	1	OZONE	996	n/a	n/a	0	0	0
440.66	n/a	REC_WORD	220330	wordpools/wasnorm_wordpool_576.txt	LTP259	ltpFR2	20	1	BLENDER	136	n/a	n/a	0	0	0
445.966	n/a	REC_WORD	222983	wordpools/wasnorm_wordpool_576.txt	LTP259	ltpFR2	20	1	LAMP	798	n/a	n/a	0	0	0
448.392	n/a	REC_WORD	224196	wordpools/wasnorm_wordpool_576.txt	LTP259	ltpFR2	20	1	PLASTER	1085	n/a	n/a	0	0	0
451.976	n/a	REC_WORD	225988	wordpools/wasnorm_wordpool_576.txt	LTP259	ltpFR2	20	1	PAINT	1003	n/a	n/a	0	0	0
453.072	n/a	REC_WORD	226536	wordpools/wasnorm_wordpool_576.txt	LTP259	ltpFR2	20	1	PEEL	-1	n/a	n/a	0	0	0
478.08	n/a	REC_WORD	239040	wordpools/wasnorm_wordpool_576.txt	LTP259	ltpFR2	20	1	BEEF	113	n/a	n/a	0	0	0
511.044	n/a	WORD	255522	wordpools/wasnorm_wordpool_576.txt	LTP259	ltpFR2	20	2	WITNESS	1618	n/a	n/a	0	0	0
513.744	n/a	WORD	256872	wordpools/wasnorm_wordpool_576.txt	LTP259	ltpFR2	20	2	ACTRESS	6	n/a	n/a	0	0	0
516.28	n/a	WORD	258140	wordpools/wasnorm_wordpool_576.txt	LTP259	ltpFR2	20	2	FIREPLACE	570	n/a	n/a	0	0	0
518.698	n/a	WORD	259349	wordpools/wasnorm_wordpool_576.txt	LTP259	ltpFR2	20	2	SHELF	1280	n/a	n/a	0	0	0
521.418	n/a	WORD	260709	wordpools/wasnorm_wordpool_576.txt	LTP259	ltpFR2	20	2	IDOL	733	n/a	n/a	0	0	0
524.102	n/a	WORD	262051	wordpools/wasnorm_wordpool_576.txt	LTP259	ltpFR2	20	2	PREACHER	1119	n/a	n/a	0	0	0
526.754	n/a	WORD	263377	wordpools/wasnorm_wordpool_576.txt	LTP259	ltpFR2	20	2	HIKER	708	n/a	n/a	0	0	0
529.54	n/a	WORD	264770	wordpools/wasnorm_wordpool_576.txt	LTP259	ltpFR2	20	2	PILOT	1070	n/a	n/a	0	0	0
532.092	n/a	WORD	266046	wordpools/wasnorm_wordpool_576.txt	LTP259	ltpFR2	20	2	LODGE	839	n/a	n/a	0	0	0
534.694	n/a	WORD	267347	wordpools/wasnorm_wordpool_576.txt	LTP259	ltpFR2	20	2	EXPERT	543	n/a	n/a	0	0	0
537.13	n/a	WORD	268565	wordpools/wasnorm_wordpool_576.txt	LTP259	ltpFR2	20	2	CONVICT	371	n/a	n/a	0	0	0
539.916	n/a	WORD	269958	wordpools/wasnorm_wordpool_576.txt	LTP259	ltpFR2	20	2	COUCH	386	n/a	n/a	0	0	0
542.5	n/a	WORD	271250	wordpools/wasnorm_wordpool_576.txt	LTP259	ltpFR2	20	2	BUCKET	184	n/a	n/a	0	0	0
544.954	n/a	WORD	272477	wordpools/wasnorm_wordpool_576.txt	LTP259	ltpFR2	20	2	ISLAND	745	n/a	n/a	0	0	0
547.522	n/a	WORD	273761	wordpools/wasnorm_wordpool_576.txt	LTP259	ltpFR2	20	2	BUG	187	n/a	n/a	0	0	0
550.256	n/a	WORD	275128	wordpools/wasnorm_wordpool_576.txt	LTP259	ltpFR2	20	2	BRAKE	166	n/a	n/a	0	0	0
552.926	n/a	WORD	276463	wordpools/wasnorm_wordpool_576.txt	LTP259	ltpFR2	20	2	AWARD	63	n/a	n/a	0	0	0
555.578	n/a	WORD	277789	wordpools/wasnorm_wordpool_576.txt	LTP259	ltpFR2	20	2	COCOON	339	n/a	n/a	0	0	0
558.33	n/a	WORD	279165	wordpools/wasnorm_wordpool_576.txt	LTP259	ltpFR2	20	2	ROD	1203	n/a	n/a	0	0	0
560.932	n/a	WORD	280466	wordpools/wasnorm_wordpool_576.txt	LTP259	ltpFR2	20	2	FREEZER	604	n/a	n/a	0	0	0
563.468	n/a	WORD	281734	wordpools/wasnorm_wordpool_576.txt	LTP259	ltpFR2	20	2	BEAST	108	n/a	n/a	0	0	0
566.07	n/a	WORD	283035	wordpools/wasnorm_wordpool_576.txt	LTP259	ltpFR2	20	2	MEDAL	885	n/a	n/a	0	0	0
568.588	n/a	WORD	284294	wordpools/wasnorm_wordpool_576.txt	LTP259	ltpFR2	20	2	SHRUB	1299	n/a	n/a	0	0	0
571.024	n/a	WORD	285512	wordpools/wasnorm_wordpool_576.txt	LTP259	ltpFR2	20	2	HEDGE	699	n/a	n/a	0	0	0
572.642	n/a	START	286321	n/a	LTP259	ltpFR2	20	n/a	n/a	n/a	2	n/a	n/a	n/a	n/a
573.494	n/a	DISTRACTOR	286747	n/a	LTP259	ltpFR2	20	2	n/a	n/a	n/a	n/a	0	0	0
573.508	n/a	PROB	286754	n/a	LTP259	ltpFR2	20	n/a	n/a	n/a	2	13	4	4	5
578.378	n/a	PROB	289189	n/a	LTP259	ltpFR2	20	n/a	n/a	n/a	2	13	5	6	2
580.23	n/a	PROB	290115	n/a	LTP259	ltpFR2	20	n/a	n/a	n/a	2	18	2	9	7
582.9	n/a	PROB	291450	n/a	LTP259	ltpFR2	20	n/a	n/a	n/a	2	15	6	3	6
584.7	n/a	PROB	292350	n/a	LTP259	ltpFR2	20	n/a	n/a	n/a	2	7	1	5	1
585.952	n/a	PROB	292976	n/a	LTP259	ltpFR2	20	n/a	n/a	n/a	2	18	6	9	3
587.888	n/a	PROB	293944	n/a	LTP259	ltpFR2	20	n/a	n/a	n/a	2	19	6	6	7
590.372	n/a	PROB	295186	n/a	LTP259	ltpFR2	20	n/a	n/a	n/a	2	19	9	3	7
592.074	n/a	PROB	296037	n/a	LTP259	ltpFR2	20	n/a	n/a	n/a	2	14	1	8	5
596.64	n/a	STOP	298320	n/a	LTP259	ltpFR2	20	n/a	n/a	n/a	2	n/a	n/a	n/a	n/a
598.53	n/a	REC_START	299265	n/a	LTP259	ltpFR2	20	2	n/a	n/a	n/a	n/a	0	0	0
599.654	n/a	REC_WORD	299827	wordpools/wasnorm_wordpool_576.txt	LTP259	ltpFR2	20	2	ROD	1203	n/a	n/a	0	0	0
600.574	n/a	REC_WORD	300287	wordpools/wasnorm_wordpool_576.txt	LTP259	ltpFR2	20	2	WITNESS	1618	n/a	n/a	0	0	0
601.508	n/a	REC_WORD_VV	300754	wordpools/wasnorm_wordpool_576.txt	LTP259	ltpFR2	20	2	<>	-1	n/a	n/a	0	0	0
604.008	n/a	REC_WORD	302004	wordpools/wasnorm_wordpool_576.txt	LTP259	ltpFR2	20	2	ACTRESS	6	n/a	n/a	0	0	0
604.762	n/a	REC_WORD	302381	wordpools/wasnorm_wordpool_576.txt	LTP259	ltpFR2	20	2	PRIEST	1122	n/a	n/a	0	0	0
605.422	n/a	REC_WORD	302711	wordpools/wasnorm_wordpool_576.txt	LTP259	ltpFR2	20	2	HEDGE	699	n/a	n/a	0	0	0
606.386	n/a	REC_WORD	303193	wordpools/wasnorm_wordpool_576.txt	LTP259	ltpFR2	20	2	BEAST	108	n/a	n/a	0	0	0
608.344	n/a	REC_WORD	304172	wordpools/wasnorm_wordpool_576.txt	LTP259	ltpFR2	20	2	BUCKET	184	n/a	n/a	0	0	0
611.926	n/a	REC_WORD	305963	wordpools/wasnorm_wordpool_576.txt	LTP259	ltpFR2	20	2	BUSH	202	n/a	n/a	0	0	0
614.734	n/a	REC_WORD	307367	wordpools/wasnorm_wordpool_576.txt	LTP259	ltpFR2	20	2	BUG	187	n/a	n/a	0	0	0
615.81	n/a	REC_WORD	307905	wordpools/wasnorm_wordpool_576.txt	LTP259	ltpFR2	20	2	FIREPLACE	570	n/a	n/a	0	0	0
616.7	n/a	REC_WORD	308350	wordpools/wasnorm_wordpool_576.txt	LTP259	ltpFR2	20	2	SHELF	1280	n/a	n/a	0	0	0
618.88	n/a	REC_WORD	309440	wordpools/wasnorm_wordpool_576.txt	LTP259	ltpFR2	20	2	COUCH	386	n/a	n/a	0	0	0
619.512	n/a	REC_WORD	309756	wordpools/wasnorm_wordpool_576.txt	LTP259	ltpFR2	20	2	LODGE	839	n/a	n/a	0	0	0
621.088	n/a	REC_WORD	310544	wordpools/wasnorm_wordpool_576.txt	LTP259	ltpFR2	20	2	HIKER	708	n/a	n/a	0	0	0
621.706	n/a	REC_WORD	310853	wordpools/wasnorm_wordpool_576.txt	LTP259	ltpFR2	20	2	EXPERT	543	n/a	n/a	0	0	0
624.558	n/a	REC_WORD	312279	wordpools/wasnorm_wordpool_576.txt	LTP259	ltpFR2	20	2	PILOT	1070	n/a	n/a	0	0	0
625.27	n/a	REC_WORD	312635	wordpools/wasnorm_wordpool_576.txt	LTP259	ltpFR2	20	2	BRAKE	166	n/a	n/a	0	0	0
628.908	n/a	REC_WORD	314454	wordpools/wasnorm_wordpool_576.txt	LTP259	ltpFR2	20	2	CONVICT	371	n/a	n/a	0	0	0
640.586	n/a	REC_WORD	320293	wordpools/wasnorm_wordpool_576.txt	LTP259	ltpFR2	20	2	FREEZER	604	n/a	n/a	0	0	0
649.356	n/a	REC_WORD	324678	wordpools/wasnorm_wordpool_576.txt	LTP259	ltpFR2	20	2	PRIEST	1122	n/a	n/a	0	0	0
652.654	n/a	REC_WORD	326327	wordpools/wasnorm_wordpool_576.txt	LTP259	ltpFR2	20	2	MEDAL	885	n/a	n/a	0	0	0
661.67	n/a	REC_WORD	330835	wordpools/wasnorm_wordpool_576.txt	LTP259	ltpFR2	20	2	AWARD	63	n/a	n/a	0	0	0
667.846	n/a	REC_WORD	333923	wordpools/wasnorm_wordpool_576.txt	LTP259	ltpFR2	20	2	COUCH	386	n/a	n/a	0	0	0
688.934	n/a	WORD	344467	wordpools/wasnorm_wordpool_576.txt	LTP259	ltpFR2	20	3	SPIDER	1351	n/a	n/a	0	0	0
691.468	n/a	WORD	345734	wordpools/wasnorm_wordpool_576.txt	LTP259	ltpFR2	20	3	PARSLEY	1016	n/a	n/a	0	0	0
694.154	n/a	WORD	347077	wordpools/wasnorm_wordpool_576.txt	LTP259	ltpFR2	20	3	MOTOR	922	n/a	n/a	0	0	0
696.622	n/a	WORD	348311	wordpools/wasnorm_wordpool_576.txt	LTP259	ltpFR2	20	3	WASP	1593	n/a	n/a	0	0	0
699.274	n/a	WORD	349637	wordpools/wasnorm_wordpool_576.txt	LTP259	ltpFR2	20	3	DENTIST	447	n/a	n/a	0	0	0
701.744	n/a	WORD	350872	wordpools/wasnorm_wordpool_576.txt	LTP259	ltpFR2	20	3	BRACES	164	n/a	n/a	0	0	0
704.412	n/a	WORD	352206	wordpools/wasnorm_wordpool_576.txt	LTP259	ltpFR2	20	3	LOFT	840	n/a	n/a	0	0	0
706.914	n/a	WORD	353457	wordpools/wasnorm_wordpool_576.txt	LTP259	ltpFR2	20	3	OUTDOORS	987	n/a	n/a	0	0	0
709.466	n/a	WORD	354733	wordpools/wasnorm_wordpool_576.txt	LTP259	ltpFR2	20	3	LAKE	796	n/a	n/a	0	0	0
712.268	n/a	WORD	356134	wordpools/wasnorm_wordpool_576.txt	LTP259	ltpFR2	20	3	BISON	131	n/a	n/a	0	0	0
714.754	n/a	WORD	357377	wordpools/wasnorm_wordpool_576.txt	LTP259	ltpFR2	20	3	MAMMAL	861	n/a	n/a	0	0	0
717.506	n/a	WORD	358753	wordpools/wasnorm_wordpool_576.txt	LTP259	ltpFR2	20	3	TERMITE	1451	n/a	n/a	0	0	0
719.958	n/a	WORD	359979	wordpools/wasnorm_wordpool_576.txt	LTP259	ltpFR2	20	3	NAPKIN	937	n/a	n/a	0	0	0
722.544	n/a	WORD	361272	wordpools/wasnorm_wordpool_576.txt	LTP259	ltpFR2	20	3	CATCHER	258	n/a	n/a	0	0	0
725.062	n/a	WORD	362531	wordpools/wasnorm_wordpool_576.txt	LTP259	ltpFR2	20	3	ATOM	55	n/a	n/a	0	0	0
727.832	n/a	WORD	363916	wordpools/wasnorm_wordpool_576.txt	LTP259	ltpFR2	20	3	BELLY	119	n/a	n/a	0	0	0
730.35	n/a	WORD	365175	wordpools/wasnorm_wordpool_576.txt	LTP259	ltpFR2	20	3	CATTLE	261	n/a	n/a	0	0	0
732.802	n/a	WORD	366401	wordpools/wasnorm_wordpool_576.txt	LTP259	ltpFR2	20	3	OUTFIT	988	n/a	n/a	0	0	0
735.336	n/a	WORD	367668	wordpools/wasnorm_wordpool_576.txt	LTP259	ltpFR2	20	3	SHORTS	1293	n/a	n/a	0	0	0
737.756	n/a	WORD	368878	wordpools/wasnorm_wordpool_576.txt	LTP259	ltpFR2	20	3	CLAMP	316	n/a	n/a	0	0	0
740.29	n/a	WORD	370145	wordpools/wasnorm_wordpool_576.txt	LTP259	ltpFR2	20	3	RADISH	1158	n/a	n/a	0	0	0
742.826	n/a	WORD	371413	wordpools/wasnorm_wordpool_576.txt	LTP259	ltpFR2	20	3	SCRIBBLE	1256	n/a	n/a	0	0	0
745.428	n/a	WORD	372714	wordpools/wasnorm_wordpool_576.txt	LTP259	ltpFR2	20	3	STOMACH	1384	n/a	n/a	0	0	0
747.898	n/a	WORD	373949	wordpools/wasnorm_wordpool_576.txt	LTP259	ltpFR2	20	3	LUNCH	849	n/a	n/a	0	0	0
749.498	n/a	START	374749	n/a	LTP259	ltpFR2	20	n/a	n/a	n/a	3	n/a	n/a	n/a	n/a
750.654	n/a	DISTRACTOR	375327	n/a	LTP259	ltpFR2	20	3	n/a	n/a	n/a	n/a	0	0	0
750.666	n/a	PROB	375333	n/a	LTP259	ltpFR2	20	n/a	n/a	n/a	3	13	3	4	6
752.618	n/a	PROB	376309	n/a	LTP259	ltpFR2	20	n/a	n/a	n/a	3	14	5	6	3
754.436	n/a	PROB	377218	n/a	LTP259	ltpFR2	20	n/a	n/a	n/a	3	21	6	7	9
757.622	n/a	PROB	378811	n/a	LTP259	ltpFR2	20	n/a	n/a	n/a	3	19	8	9	2
759.84	n/a	PROB	379920	n/a	LTP259	ltpFR2	20	n/a	n/a	n/a	3	16	9	1	6
761.14	n/a	PROB	380570	n/a	LTP259	ltpFR2	20	n/a	n/a	n/a	3	13	6	1	6
762.758	n/a	PROB	381379	n/a	LTP259	ltpFR2	20	n/a	n/a	n/a	3	15	5	1	9
764.16	n/a	PROB	382080	n/a	LTP259	ltpFR2	20	n/a	n/a	n/a	3	11	4	1	6
765.528	n/a	PROB	382764	n/a	LTP259	ltpFR2	20	n/a	n/a	n/a	3	12	3	7	2
766.794	n/a	PROB	383397	n/a	LTP259	ltpFR2	20	n/a	n/a	n/a	3	14	2	6	6
768.162	n/a	PROB	384081	n/a	LTP259	ltpFR2	20	n/a	n/a	n/a	3	14	2	3	9
771.416	n/a	PROB	385708	n/a	LTP259	ltpFR2	20	n/a	n/a	n/a	3	8	2	5	1
772.79	n/a	STOP	386395	n/a	LTP259	ltpFR2	20	n/a	n/a	n/a	3	n/a	n/a	n/a	n/a
775.302	n/a	REC_START	387651	n/a	LTP259	ltpFR2	20	3	n/a	n/a	n/a	n/a	0	0	0
777.658	n/a	REC_WORD	388829	wordpools/wasnorm_wordpool_576.txt	LTP259	ltpFR2	20	3	SPIDER	1351	n/a	n/a	0	0	0
778.684	n/a	REC_WORD	389342	wordpools/wasnorm_wordpool_576.txt	LTP259	ltpFR2	20	3	TERMITE	1451	n/a	n/a	0	0	0
780.388	n/a	REC_WORD	390194	wordpools/wasnorm_wordpool_576.txt	LTP259	ltpFR2	20	3	DENTIST	447	n/a	n/a	0	0	0
781.182	n/a	REC_WORD	390591	wordpools/wasnorm_wordpool_576.txt	LTP259	ltpFR2	20	3	BRACES	164	n/a	n/a	0	0	0
782.666	n/a	REC_WORD	391333	wordpools/wasnorm_wordpool_576.txt	LTP259	ltpFR2	20	3	PARSLEY	1016	n/a	n/a	0	0	0
783.926	n/a	REC_WORD	391963	wordpools/wasnorm_wordpool_576.txt	LTP259	ltpFR2	20	3	WASP	1593	n/a	n/a	0	0	0
789.092	n/a	REC_WORD	394546	wordpools/wasnorm_wordpool_576.txt	LTP259	ltpFR2	20	3	OUTDOORS	987	n/a	n/a	0	0	0
790.692	n/a	REC_WORD	395346	wordpools/wasnorm_wordpool_576.txt	LTP259	ltpFR2	20	3	BISON	131	n/a	n/a	0	0	0
791.48	n/a	REC_WORD	395740	wordpools/wasnorm_wordpool_576.txt	LTP259	ltpFR2	20	3	CATTLE	261	n/a	n/a	0	0	0
794.648	n/a	REC_WORD	397324	wordpools/wasnorm_wordpool_576.txt	LTP259	ltpFR2	20	3	RADISH	1158	n/a	n/a	0	0	0
796.012	n/a	REC_WORD	398006	wordpools/wasnorm_wordpool_576.txt	LTP259	ltpFR2	20	3	CLAMP	316	n/a	n/a	0	0	0
798.56	n/a	REC_WORD	399280	wordpools/wasnorm_wordpool_576.txt	LTP259	ltpFR2	20	3	LAKE	796	n/a	n/a	0	0	0
799.382	n/a	REC_WORD	399691	wordpools/wasnorm_wordpool_576.txt	LTP259	ltpFR2	20	3	OCEAN	970	n/a	n/a	0	0	0
804.834	n/a	REC_WORD	402417	wordpools/wasnorm_wordpool_576.txt	LTP259	ltpFR2	20	3	MAMMAL	861	n/a	n/a	0	0	0
808.204	n/a	REC_WORD	404102	wordpools/wasnorm_wordpool_576.txt	LTP259	ltpFR2	20	3	OUTFIT	988	n/a	n/a	0	0	0
808.898	n/a	REC_WORD	404449	wordpools/wasnorm_wordpool_576.txt	LTP259	ltpFR2	20	3	LUNCH	849	n/a	n/a	0	0	0
810.036	n/a	REC_WORD	405018	wordpools/wasnorm_wordpool_576.txt	LTP259	ltpFR2	20	3	STOMACH	1384	n/a	n/a	0	0	0
810.962	n/a	REC_WORD	405481	wordpools/wasnorm_wordpool_576.txt	LTP259	ltpFR2	20	3	BELLY	119	n/a	n/a	0	0	0
811.446	n/a	REC_WORD	405723	wordpools/wasnorm_wordpool_576.txt	LTP259	ltpFR2	20	3	SHORTS	1293	n/a	n/a	0	0	0
815.298	n/a	REC_WORD	407649	wordpools/wasnorm_wordpool_576.txt	LTP259	ltpFR2	20	3	CATCHER	258	n/a	n/a	0	0	0
822.478	n/a	REC_WORD	411239	wordpools/wasnorm_wordpool_576.txt	LTP259	ltpFR2	20	3	LOFT	840	n/a	n/a	0	0	0
830.716	n/a	REC_WORD	415358	wordpools/wasnorm_wordpool_576.txt	LTP259	ltpFR2	20	3	MOTOR	922	n/a	n/a	0	0	0
838.998	n/a	REC_WORD	419499	wordpools/wasnorm_wordpool_576.txt	LTP259	ltpFR2	20	3	SCRIBBLE	1256	n/a	n/a	0	0	0
865.724	n/a	WORD	432862	wordpools/wasnorm_wordpool_576.txt	LTP259	ltpFR2	20	4	PASSAGE	1019	n/a	n/a	0	0	0
868.242	n/a	WORD	434121	wordpools/wasnorm_wordpool_576.txt	LTP259	ltpFR2	20	4	ARM	38	n/a	n/a	0	0	0
870.794	n/a	WORD	435397	wordpools/wasnorm_wordpool_576.txt	LTP259	ltpFR2	20	4	CRUTCH	417	n/a	n/a	0	0	0
873.53	n/a	WORD	436765	wordpools/wasnorm_wordpool_576.txt	LTP259	ltpFR2	20	4	NEUTRON	947	n/a	n/a	0	0	0
876.182	n/a	WORD	438091	wordpools/wasnorm_wordpool_576.txt	LTP259	ltpFR2	20	4	FIDDLE	561	n/a	n/a	0	0	0
878.734	n/a	WORD	439367	wordpools/wasnorm_wordpool_576.txt	LTP259	ltpFR2	20	4	HORNET	718	n/a	n/a	0	0	0
881.468	n/a	WORD	440734	wordpools/wasnorm_wordpool_576.txt	LTP259	ltpFR2	20	4	AUTHOR	61	n/a	n/a	0	0	0
883.988	n/a	WORD	441994	wordpools/wasnorm_wordpool_576.txt	LTP259	ltpFR2	20	4	SHOULDER	1294	n/a	n/a	0	0	0
886.606	n/a	WORD	443303	wordpools/wasnorm_wordpool_576.txt	LTP259	ltpFR2	20	4	AIRPORT	13	n/a	n/a	0	0	0
889.158	n/a	WORD	444579	wordpools/wasnorm_wordpool_576.txt	LTP259	ltpFR2	20	4	GHETTO	633	n/a	n/a	0	0	0
891.862	n/a	WORD	445931	wordpools/wasnorm_wordpool_576.txt	LTP259	ltpFR2	20	4	EYELASH	546	n/a	n/a	0	0	0
894.296	n/a	WORD	447148	wordpools/wasnorm_wordpool_576.txt	LTP259	ltpFR2	20	4	WHISTLE	1606	n/a	n/a	0	0	0
896.832	n/a	WORD	448416	wordpools/wasnorm_wordpool_576.txt	LTP259	ltpFR2	20	4	GOBLIN	645	n/a	n/a	0	0	0
899.4	n/a	WORD	449700	wordpools/wasnorm_wordpool_576.txt	LTP259	ltpFR2	20	4	PIANO	1057	n/a	n/a	0	0	0
902.07	n/a	WORD	451035	wordpools/wasnorm_wordpool_576.txt	LTP259	ltpFR2	20	4	DONOR	485	n/a	n/a	0	0	0
904.738	n/a	WORD	452369	wordpools/wasnorm_wordpool_576.txt	LTP259	ltpFR2	20	4	ZEBRA	1635	n/a	n/a	0	0	0
907.306	n/a	WORD	453653	wordpools/wasnorm_wordpool_576.txt	LTP259	ltpFR2	20	4	SEAL	1262	n/a	n/a	0	0	0
909.892	n/a	WORD	454946	wordpools/wasnorm_wordpool_576.txt	LTP259	ltpFR2	20	4	FOREHEAD	592	n/a	n/a	0	0	0
912.46	n/a	WORD	456230	wordpools/wasnorm_wordpool_576.txt	LTP259	ltpFR2	20	4	MARKET	871	n/a	n/a	0	0	0
914.88	n/a	WORD	457440	wordpools/wasnorm_wordpool_576.txt	LTP259	ltpFR2	20	4	PLAZA	1088	n/a	n/a	0	0	0
917.664	n/a	WORD	458832	wordpools/wasnorm_wordpool_576.txt	LTP259	ltpFR2	20	4	PENGUIN	1044	n/a	n/a	0	0	0
920.35	n/a	WORD	460175	wordpools/wasnorm_wordpool_576.txt	LTP259	ltpFR2	20	4	JOURNAL	760	n/a	n/a	0	0	0
923.004	n/a	WORD	461502	wordpools/wasnorm_wordpool_576.txt	LTP259	ltpFR2	20	4	ANKLE	24	n/a	n/a	0	0	0
925.52	n/a	WORD	462760	wordpools/wasnorm_wordpool_576.txt	LTP259	ltpFR2	20	4	CHEST	295	n/a	n/a	0	0	0
927.122	n/a	START	463561	n/a	LTP259	ltpFR2	20	n/a	n/a	n/a	4	n/a	n/a	n/a	n/a
927.96	n/a	DISTRACTOR	463980	n/a	LTP259	ltpFR2	20	4	n/a	n/a	n/a	n/a	0	0	0
927.974	n/a	PROB	463987	n/a	LTP259	ltpFR2	20	n/a	n/a	n/a	4	14	5	2	7
930.608	n/a	PROB	465304	n/a	LTP259	ltpFR2	20	n/a	n/a	n/a	4	17	8	6	3
933.41	n/a	PROB	466705	n/a	LTP259	ltpFR2	20	n/a	n/a	n/a	4	14	3	3	8
936.18	n/a	PROB	468090	n/a	LTP259	ltpFR2	20	n/a	n/a	n/a	4	12	6	2	4
937.982	n/a	PROB	468991	n/a	LTP259	ltpFR2	20	n/a	n/a	n/a	4	12	3	3	6
940.366	n/a	PROB	470183	n/a	LTP259	ltpFR2	20	n/a	n/a	n/a	4	16	4	4	8
941.868	n/a	PROB	470934	n/a	LTP259	ltpFR2	20	n/a	n/a	n/a	4	12	5	1	6
943.518	n/a	PROB	471759	n/a	LTP259	ltpFR2	20	n/a	n/a	n/a	4	7	2	1	4
945.17	n/a	PROB	472585	n/a	LTP259	ltpFR2	20	n/a	n/a	n/a	4	18	7	7	4
947.088	n/a	PROB	473544	n/a	LTP259	ltpFR2	20	n/a	n/a	n/a	4	17	3	9	5
949.58	n/a	STOP	474790	n/a	LTP259	ltpFR2	20	n/a	n/a	n/a	4	n/a	n/a	n/a	n/a
953.028	n/a	REC_START	476514	n/a	LTP259	ltpFR2	20	4	n/a	n/a	n/a	n/a	0	0	0
955.494	n/a	REC_WORD	477747	wordpools/wasnorm_wordpool_576.txt	LTP259	ltpFR2	20	4	HORNET	718	n/a	n/a	0	0	0
958.378	n/a	REC_WORD_VV	479189	wordpools/wasnorm_wordpool_576.txt	LTP259	ltpFR2	20	4	<>	-1	n/a	n/a	0	0	0
959.294	n/a	REC_WORD	479647	wordpools/wasnorm_wordpool_576.txt	LTP259	ltpFR2	20	4	ANKLE	24	n/a	n/a	0	0	0
960.21	n/a	REC_WORD	480105	wordpools/wasnorm_wordpool_576.txt	LTP259	ltpFR2	20	4	ARM	38	n/a	n/a	0	0	0
962.06	n/a	REC_WORD	481030	wordpools/wasnorm_wordpool_576.txt	LTP259	ltpFR2	20	4	CRUTCH	417	n/a	n/a	0	0	0
962.812	n/a	REC_WORD	481406	wordpools/wasnorm_wordpool_576.txt	LTP259	ltpFR2	20	4	SEAL	1262	n/a	n/a	0	0	0
964.662	n/a	REC_WORD	482331	wordpools/wasnorm_wordpool_576.txt	LTP259	ltpFR2	20	4	ZEBRA	1635	n/a	n/a	0	0	0
965.462	n/a	REC_WORD	482731	wordpools/wasnorm_wordpool_576.txt	LTP259	ltpFR2	20	4	FOREHEAD	592	n/a	n/a	0	0	0
967.396	n/a	REC_WORD	483698	wordpools/wasnorm_wordpool_576.txt	LTP259	ltpFR2	20	4	PENGUIN	1044	n/a	n/a	0	0	0
974.2	n/a	REC_WORD	487100	wordpools/wasnorm_wordpool_576.txt	LTP259	ltpFR2	20	4	STOMACH	1384	n/a	n/a	0	0	0
975.266	n/a	REC_WORD	487633	wordpools/wasnorm_wordpool_576.txt	LTP259	ltpFR2	20	4	CHEST	295	n/a	n/a	0	0	0
976.116	n/a	REC_WORD	488058	wordpools/wasnorm_wordpool_576.txt	LTP259	ltpFR2	20	4	ANKLE	24	n/a	n/a	0	0	0
977.996	n/a	REC_WORD	488998	wordpools/wasnorm_wordpool_576.txt	LTP259	ltpFR2	20	4	SHOULDER	1294	n/a	n/a	0	0	0
978.912	n/a	REC_WORD	489456	wordpools/wasnorm_wordpool_576.txt	LTP259	ltpFR2	20	4	JOURNAL	760	n/a	n/a	0	0	0
980.812	n/a	REC_WORD	490406	wordpools/wasnorm_wordpool_576.txt	LTP259	ltpFR2	20	4	GHETTO	633	n/a	n/a	0	0	0
981.456	n/a	REC_WORD	490728	wordpools/wasnorm_wordpool_576.txt	LTP259	ltpFR2	20	4	EYELASH	546	n/a	n/a	0	0	0
982.754	n/a	REC_WORD	491377	wordpools/wasnorm_wordpool_576.txt	LTP259	ltpFR2	20	4	GOBLIN	645	n/a	n/a	0	0	0
985.916	n/a	REC_WORD	492958	wordpools/wasnorm_wordpool_576.txt	LTP259	ltpFR2	20	4	PASSAGE	1019	n/a	n/a	0	0	0
991.798	n/a	REC_WORD	495899	wordpools/wasnorm_wordpool_576.txt	LTP259	ltpFR2	20	4	AUTHOR	61	n/a	n/a	0	0	0
994.462	n/a	REC_WORD	497231	wordpools/wasnorm_wordpool_576.txt	LTP259	ltpFR2	20	4	PIANO	1057	n/a	n/a	0	0	0
995.86	n/a	REC_WORD	497930	wordpools/wasnorm_wordpool_576.txt	LTP259	ltpFR2	20	4	FIDDLE	561	n/a	n/a	0	0	0
998.128	n/a	REC_WORD	499064	wordpools/wasnorm_wordpool_576.txt	LTP259	ltpFR2	20	4	AIRPORT	13	n/a	n/a	0	0	0
1003.924	n/a	REC_WORD	501962	wordpools/wasnorm_wordpool_576.txt	LTP259	ltpFR2	20	4	DONOR	485	n/a	n/a	0	0	0
1013.146	n/a	REC_WORD	506573	wordpools/wasnorm_wordpool_576.txt	LTP259	ltpFR2	20	4	PLAZA	1088	n/a	n/a	0	0	0
1013.826	n/a	REC_WORD	506913	wordpools/wasnorm_wordpool_576.txt	LTP259	ltpFR2	20	4	MARKET	871	n/a	n/a	0	0	0
1043.464	n/a	WORD	521732	wordpools/wasnorm_wordpool_576.txt	LTP259	ltpFR2	20	5	HEART	697	n/a	n/a	0	0	0
1046.216	n/a	WORD	523108	wordpools/wasnorm_wordpool_576.txt	LTP259	ltpFR2	20	5	SERVANT	1271	n/a	n/a	0	0	0
1049.002	n/a	WORD	524501	wordpools/wasnorm_wordpool_576.txt	LTP259	ltpFR2	20	5	WAITER	1580	n/a	n/a	0	0	0
1051.436	n/a	WORD	525718	wordpools/wasnorm_wordpool_576.txt	LTP259	ltpFR2	20	5	STATUE	1374	n/a	n/a	0	0	0
1053.906	n/a	WORD	526953	wordpools/wasnorm_wordpool_576.txt	LTP259	ltpFR2	20	5	CHIPMUNK	304	n/a	n/a	0	0	0
1056.358	n/a	WORD	528179	wordpools/wasnorm_wordpool_576.txt	LTP259	ltpFR2	20	5	INMATE	738	n/a	n/a	0	0	0
1059.078	n/a	WORD	529539	wordpools/wasnorm_wordpool_576.txt	LTP259	ltpFR2	20	5	FIREMAN	569	n/a	n/a	0	0	0
1061.562	n/a	WORD	530781	wordpools/wasnorm_wordpool_576.txt	LTP259	ltpFR2	20	5	BLUEPRINT	142	n/a	n/a	0	0	0
1064.014	n/a	WORD	532007	wordpools/wasnorm_wordpool_576.txt	LTP259	ltpFR2	20	5	LEOPARD	812	n/a	n/a	0	0	0
1066.448	n/a	WORD	533224	wordpools/wasnorm_wordpool_576.txt	LTP259	ltpFR2	20	5	WINDOW	1611	n/a	n/a	0	0	0
1069.252	n/a	WORD	534626	wordpools/wasnorm_wordpool_576.txt	LTP259	ltpFR2	20	5	STAPLE	1371	n/a	n/a	0	0	0
1071.77	n/a	WORD	535885	wordpools/wasnorm_wordpool_576.txt	LTP259	ltpFR2	20	5	RIVER	1194	n/a	n/a	0	0	0
1074.256	n/a	WORD	537128	wordpools/wasnorm_wordpool_576.txt	LTP259	ltpFR2	20	5	DRAGON	492	n/a	n/a	0	0	0
1076.958	n/a	WORD	538479	wordpools/wasnorm_wordpool_576.txt	LTP259	ltpFR2	20	5	CASHEW	253	n/a	n/a	0	0	0
1079.692	n/a	WORD	539846	wordpools/wasnorm_wordpool_576.txt	LTP259	ltpFR2	20	5	PECAN	1036	n/a	n/a	0	0	0
1082.228	n/a	WORD	541114	wordpools/wasnorm_wordpool_576.txt	LTP259	ltpFR2	20	5	WARDROBE	1587	n/a	n/a	0	0	0
1084.78	n/a	WORD	542390	wordpools/wasnorm_wordpool_576.txt	LTP259	ltpFR2	20	5	SPHINX	1349	n/a	n/a	0	0	0
1087.298	n/a	WORD	543649	wordpools/wasnorm_wordpool_576.txt	LTP259	ltpFR2	20	5	VALVE	1546	n/a	n/a	0	0	0
1089.768	n/a	WORD	544884	wordpools/wasnorm_wordpool_576.txt	LTP259	ltpFR2	20	5	PEDAL	1037	n/a	n/a	0	0	0
1092.502	n/a	WORD	546251	wordpools/wasnorm_wordpool_576.txt	LTP259	ltpFR2	20	5	PASTA	1021	n/a	n/a	0	0	0
1095.138	n/a	WORD	547569	wordpools/wasnorm_wordpool_576.txt	LTP259	ltpFR2	20	5	CORAL	378	n/a	n/a	0	0	0
1097.924	n/a	WORD	548962	wordpools/wasnorm_wordpool_576.txt	LTP259	ltpFR2	20	5	YARN	1631	n/a	n/a	0	0	0
1100.676	n/a	WORD	550338	wordpools/wasnorm_wordpool_576.txt	LTP259	ltpFR2	20	5	GANGSTER	620	n/a	n/a	0	0	0
1103.144	n/a	WORD	551572	wordpools/wasnorm_wordpool_576.txt	LTP259	ltpFR2	20	5	INFANT	737	n/a	n/a	0	0	0
1104.746	n/a	START	552373	n/a	LTP259	ltpFR2	20	n/a	n/a	n/a	5	n/a	n/a	n/a	n/a
1105.874	n/a	DISTRACTOR	552937	n/a	LTP259	ltpFR2	20	5	n/a	n/a	n/a	n/a	0	0	0
1105.882	n/a	PROB	552941	n/a	LTP259	ltpFR2	20	n/a	n/a	n/a	5	16	2	8	6
1107.982	n/a	PROB	553991	n/a	LTP259	ltpFR2	20	n/a	n/a	n/a	5	10	4	1	5
1109.634	n/a	PROB	554817	n/a	LTP259	ltpFR2	20	n/a	n/a	n/a	5	21	5	7	9
1114.67	n/a	PROB	557335	n/a	LTP259	ltpFR2	20	n/a	n/a	n/a	5	18	5	6	7
1117.106	n/a	PROB	558553	n/a	LTP259	ltpFR2	20	n/a	n/a	n/a	5	21	8	7	6
1119.124	n/a	PROB	559562	n/a	LTP259	ltpFR2	20	n/a	n/a	n/a	5	12	9	2	1
1120.692	n/a	PROB	560346	n/a	LTP259	ltpFR2	20	n/a	n/a	n/a	5	17	4	9	4
1122.66	n/a	PROB	561330	n/a	LTP259	ltpFR2	20	n/a	n/a	n/a	5	3	1	1	1
1123.762	n/a	PROB	561881	n/a	LTP259	ltpFR2	20	n/a	n/a	n/a	5	10	3	3	4
1125.83	n/a	PROB	562915	n/a	LTP259	ltpFR2	20	n/a	n/a	n/a	5	14	7	1	6
1127.514	n/a	STOP	563757	n/a	LTP259	ltpFR2	20	n/a	n/a	n/a	5	n/a	n/a	n/a	n/a
1130.5	n/a	REC_START	565250	n/a	LTP259	ltpFR2	20	5	n/a	n/a	n/a	n/a	0	0	0
1132.726	n/a	REC_WORD	566363	wordpools/wasnorm_wordpool_576.txt	LTP259	ltpFR2	20	5	PANTHER	1009	n/a	n/a	0	0	0
1134.246	n/a	REC_WORD	567123	wordpools/wasnorm_wordpool_576.txt	LTP259	ltpFR2	20	5	INMATE	738	n/a	n/a	0	0	0
1136.132	n/a	REC_WORD	568066	wordpools/wasnorm_wordpool_576.txt	LTP259	ltpFR2	20	5	CHIPMUNK	304	n/a	n/a	0	0	0
1137.084	n/a	REC_WORD	568542	wordpools/wasnorm_wordpool_576.txt	LTP259	ltpFR2	20	5	CORAL	378	n/a	n/a	0	0	0
1138.288	n/a	REC_WORD	569144	wordpools/wasnorm_wordpool_576.txt	LTP259	ltpFR2	20	5	CASHEW	253	n/a	n/a	0	0	0
1139.172	n/a	REC_WORD	569586	wordpools/wasnorm_wordpool_576.txt	LTP259	ltpFR2	20	5	PECAN	1036	n/a	n/a	0	0	0
1140.034	n/a	REC_WORD	570017	wordpools/wasnorm_wordpool_576.txt	LTP259	ltpFR2	20	5	PASTA	1021	n/a	n/a	0	0	0
1141.502	n/a	REC_WORD	570751	wordpools/wasnorm_wordpool_576.txt	LTP259	ltpFR2	20	5	PEDAL	1037	n/a	n/a	0	0	0
1142.164	n/a	REC_WORD	571082	wordpools/wasnorm_wordpool_576.txt	LTP259	ltpFR2	20	5	VALVE	1546	n/a	n/a	0	0	0
1143.66	n/a	REC_WORD	571830	wordpools/wasnorm_wordpool_576.txt	LTP259	ltpFR2	20	5	SERVANT	1271	n/a	n/a	0	0	0
1144.52	n/a	REC_WORD	572260	wordpools/wasnorm_wordpool_576.txt	LTP259	ltpFR2	20	5	WAITER	1580	n/a	n/a	0	0	0
1148.82	n/a	REC_WORD	574410	wordpools/wasnorm_wordpool_576.txt	LTP259	ltpFR2	20	5	STATUE	1374	n/a	n/a	0	0	0
1152.708	n/a	REC_WORD	576354	wordpools/wasnorm_wordpool_576.txt	LTP259	ltpFR2	20	5	RIVER	1194	n/a	n/a	0	0	0
1162.08	n/a	REC_WORD	581040	wordpools/wasnorm_wordpool_576.txt	LTP259	ltpFR2	20	5	FIREMAN	569	n/a	n/a	0	0	0
1162.872	n/a	REC_WORD	581436	wordpools/wasnorm_wordpool_576.txt	LTP259	ltpFR2	20	5	CONVICT	371	n/a	n/a	0	0	0
1165.006	n/a	REC_WORD	582503	wordpools/wasnorm_wordpool_576.txt	LTP259	ltpFR2	20	5	GANGSTER	620	n/a	n/a	0	0	0
1172.588	n/a	REC_WORD	586294	wordpools/wasnorm_wordpool_576.txt	LTP259	ltpFR2	20	5	YARN	1631	n/a	n/a	0	0	0
1220.906	n/a	DISTRACTOR	610453	n/a	LTP259	ltpFR2	20	6	n/a	n/a	n/a	n/a	0	0	0
1220.906	n/a	START	610453	n/a	LTP259	ltpFR2	20	n/a	n/a	n/a	6	n/a	n/a	n/a	n/a
1220.922	n/a	PROB	610461	n/a	LTP259	ltpFR2	20	n/a	n/a	n/a	6	14	5	3	6
1223.122	n/a	PROB	611561	n/a	LTP259	ltpFR2	20	n/a	n/a	n/a	6	14	4	1	9
1224.408	n/a	PROB	612204	n/a	LTP259	ltpFR2	20	n/a	n/a	n/a	6	5	1	1	3
1225.642	n/a	PROB	612821	n/a	LTP259	ltpFR2	20	n/a	n/a	n/a	6	21	4	8	9
1231.212	n/a	PROB	615606	n/a	LTP259	ltpFR2	20	n/a	n/a	n/a	6	14	9	1	4
1232.916	n/a	PROB	616458	n/a	LTP259	ltpFR2	20	n/a	n/a	n/a	6	11	1	8	2
1235.066	n/a	PROB	617533	n/a	LTP259	ltpFR2	20	n/a	n/a	n/a	6	19	1	9	9
1236.984	n/a	PROB	618492	n/a	LTP259	ltpFR2	20	n/a	n/a	n/a	6	15	3	8	4
1241.004	n/a	PROB	620502	n/a	LTP259	ltpFR2	20	n/a	n/a	n/a	6	12	9	2	1
1242.538	n/a	PROB	621269	n/a	LTP259	ltpFR2	20	n/a	n/a	n/a	6	19	3	7	9
1243.974	n/a	STOP	621987	n/a	LTP259	ltpFR2	20	n/a	n/a	n/a	6	n/a	n/a	n/a	n/a
1246.076	n/a	WORD	623038	wordpools/wasnorm_wordpool_576.txt	LTP259	ltpFR2	20	6	BABY	64	n/a	n/a	0	0	0
1248.494	n/a	WORD	624247	wordpools/wasnorm_wordpool_576.txt	LTP259	ltpFR2	20	6	FLAG	573	n/a	n/a	0	0	0
1250.93	n/a	WORD	625465	wordpools/wasnorm_wordpool_576.txt	LTP259	ltpFR2	20	6	SCARF	1246	n/a	n/a	0	0	0
1253.58	n/a	WORD	626790	wordpools/wasnorm_wordpool_576.txt	LTP259	ltpFR2	20	6	SADDLE	1221	n/a	n/a	0	0	0
1256.216	n/a	WORD	628108	wordpools/wasnorm_wordpool_576.txt	LTP259	ltpFR2	20	6	PIZZA	1079	n/a	n/a	0	0	0
1258.836	n/a	WORD	629418	wordpools/wasnorm_wordpool_576.txt	LTP259	ltpFR2	20	6	CARRIAGE	248	n/a	n/a	0	0	0
1261.304	n/a	WORD	630652	wordpools/wasnorm_wordpool_576.txt	LTP259	ltpFR2	20	6	PADDLE	1000	n/a	n/a	0	0	0
1263.756	n/a	WORD	631878	wordpools/wasnorm_wordpool_576.txt	LTP259	ltpFR2	20	6	RAFT	1159	n/a	n/a	0	0	0
1266.474	n/a	WORD	633237	wordpools/wasnorm_wordpool_576.txt	LTP259	ltpFR2	20	6	SODA	1341	n/a	n/a	0	0	0
1269.028	n/a	WORD	634514	wordpools/wasnorm_wordpool_576.txt	LTP259	ltpFR2	20	6	BRANDY	169	n/a	n/a	0	0	0
1271.796	n/a	WORD	635898	wordpools/wasnorm_wordpool_576.txt	LTP259	ltpFR2	20	6	TYPIST	1532	n/a	n/a	0	0	0
1274.498	n/a	WORD	637249	wordpools/wasnorm_wordpool_576.txt	LTP259	ltpFR2	20	6	MILK	895	n/a	n/a	0	0	0
1277.016	n/a	WORD	638508	wordpools/wasnorm_wordpool_576.txt	LTP259	ltpFR2	20	6	ONION	977	n/a	n/a	0	0	0
1279.668	n/a	WORD	639834	wordpools/wasnorm_wordpool_576.txt	LTP259	ltpFR2	20	6	FLASK	576	n/a	n/a	0	0	0
1282.12	n/a	WORD	641060	wordpools/wasnorm_wordpool_576.txt	LTP259	ltpFR2	20	6	PIGEON	1065	n/a	n/a	0	0	0
1284.906	n/a	WORD	642453	wordpools/wasnorm_wordpool_576.txt	LTP259	ltpFR2	20	6	SUMMIT	1405	n/a	n/a	0	0	0
1287.54	n/a	WORD	643770	wordpools/wasnorm_wordpool_576.txt	LTP259	ltpFR2	20	6	ITEM	746	n/a	n/a	0	0	0
1290.26	n/a	WORD	645130	wordpools/wasnorm_wordpool_576.txt	LTP259	ltpFR2	20	6	SHERIFF	1284	n/a	n/a	0	0	0
1292.846	n/a	WORD	646423	wordpools/wasnorm_wordpool_576.txt	LTP259	ltpFR2	20	6	AGENT	10	n/a	n/a	0	0	0
1295.614	n/a	WORD	647807	wordpools/wasnorm_wordpool_576.txt	LTP259	ltpFR2	20	6	CASHIER	254	n/a	n/a	0	0	0
1298.1	n/a	WORD	649050	wordpools/wasnorm_wordpool_576.txt	LTP259	ltpFR2	20	6	EAGLE	512	n/a	n/a	0	0	0
1300.618	n/a	WORD	650309	wordpools/wasnorm_wordpool_576.txt	LTP259	ltpFR2	20	6	STALLION	1369	n/a	n/a	0	0	0
1303.386	n/a	WORD	651693	wordpools/wasnorm_wordpool_576.txt	LTP259	ltpFR2	20	6	GALLON	618	n/a	n/a	0	0	0
1306.19	n/a	WORD	653095	wordpools/wasnorm_wordpool_576.txt	LTP259	ltpFR2	20	6	THREAD	1460	n/a	n/a	0	0	0
1307.79	n/a	START	653895	n/a	LTP259	ltpFR2	20	n/a	n/a	n/a	7	n/a	n/a	n/a	n/a
1308.654	n/a	DISTRACTOR	654327	n/a	LTP259	ltpFR2	20	6	n/a	n/a	n/a	n/a	0	0	0
1308.658	n/a	PROB	654329	n/a	LTP259	ltpFR2	20	n/a	n/a	n/a	7	7	4	2	1
1310.71	n/a	PROB	655355	n/a	LTP259	ltpFR2	20	n/a	n/a	n/a	7	18	8	4	6
1312.594	n/a	PROB	656297	n/a	LTP259	ltpFR2	20	n/a	n/a	n/a	7	11	3	2	6
1315.832	n/a	PROB	657916	n/a	LTP259	ltpFR2	20	n/a	n/a	n/a	7	12	4	6	2
1317.314	n/a	PROB	658657	n/a	LTP259	ltpFR2	20	n/a	n/a	n/a	7	15	6	3	6
1319.0	n/a	PROB	659500	n/a	LTP259	ltpFR2	20	n/a	n/a	n/a	7	20	6	8	6
1321.118	n/a	PROB	660559	n/a	LTP259	ltpFR2	20	n/a	n/a	n/a	7	8	5	2	1
1322.518	n/a	PROB	661259	n/a	LTP259	ltpFR2	20	n/a	n/a	n/a	7	18	4	7	7
1324.52	n/a	PROB	662260	n/a	LTP259	ltpFR2	20	n/a	n/a	n/a	7	21	2	2	7
1331.774	n/a	STOP	665887	n/a	LTP259	ltpFR2	20	n/a	n/a	n/a	7	n/a	n/a	n/a	n/a
1333.728	n/a	REC_START	666864	n/a	LTP259	ltpFR2	20	6	n/a	n/a	n/a	n/a	0	0	0
1334.43	n/a	REC_WORD	667215	wordpools/wasnorm_wordpool_576.txt	LTP259	ltpFR2	20	6	STALLION	1369	n/a	n/a	0	0	0
1335.262	n/a	REC_WORD	667631	wordpools/wasnorm_wordpool_576.txt	LTP259	ltpFR2	20	6	SHERIFF	1284	n/a	n/a	0	0	0
1336.16	n/a	REC_WORD	668080	wordpools/wasnorm_wordpool_576.txt	LTP259	ltpFR2	20	6	GALLON	618	n/a	n/a	0	0	0
1337.36	n/a	REC_WORD	668680	wordpools/wasnorm_wordpool_576.txt	LTP259	ltpFR2	20	6	FLASK	576	n/a	n/a	0	0	0
1338.346	n/a	REC_WORD	669173	wordpools/wasnorm_wordpool_576.txt	LTP259	ltpFR2	20	6	BRANDY	169	n/a	n/a	0	0	0
1339.112	n/a	REC_WORD	669556	wordpools/wasnorm_wordpool_576.txt	LTP259	ltpFR2	20	6	PIZZA	1079	n/a	n/a	0	0	0
1339.916	n/a	REC_WORD	669958	wordpools/wasnorm_wordpool_576.txt	LTP259	ltpFR2	20	6	ONION	977	n/a	n/a	0	0	0
1340.61	n/a	REC_WORD	670305	wordpools/wasnorm_wordpool_576.txt	LTP259	ltpFR2	20	6	BABY	64	n/a	n/a	0	0	0
1341.838	n/a	REC_WORD	670919	wordpools/wasnorm_wordpool_576.txt	LTP259	ltpFR2	20	6	TYPIST	1532	n/a	n/a	0	0	0
1343.538	n/a	REC_WORD	671769	wordpools/wasnorm_wordpool_576.txt	LTP259	ltpFR2	20	6	RAFT	1159	n/a	n/a	0	0	0
1344.266	n/a	REC_WORD	672133	wordpools/wasnorm_wordpool_576.txt	LTP259	ltpFR2	20	6	PADDLE	1000	n/a	n/a	0	0	0
1350.628	n/a	REC_WORD	675314	wordpools/wasnorm_wordpool_576.txt	LTP259	ltpFR2	20	6	MILK	895	n/a	n/a	0	0	0
1352.708	n/a	REC_WORD	676354	wordpools/wasnorm_wordpool_576.txt	LTP259	ltpFR2	20	6	SUMMIT	1405	n/a	n/a	0	0	0
1356.296	n/a	REC_WORD	678148	wordpools/wasnorm_wordpool_576.txt	LTP259	ltpFR2	20	6	EAGLE	512	n/a	n/a	0	0	0
1363.292	n/a	REC_WORD	681646	wordpools/wasnorm_wordpool_576.txt	LTP259	ltpFR2	20	6	ASSISTANT	48	n/a	n/a	0	0	0
1367.526	n/a	REC_WORD	683763	wordpools/wasnorm_wordpool_576.txt	LTP259	ltpFR2	20	6	CASHIER	254	n/a	n/a	0	0	0
1424.15	n/a	WORD	712075	wordpools/wasnorm_wordpool_576.txt	LTP259	ltpFR2	20	7	SUNRISE	1407	n/a	n/a	0	0	0
1426.718	n/a	WORD	713359	wordpools/wasnorm_wordpool_576.txt	LTP259	ltpFR2	20	7	VAGRANT	1544	n/a	n/a	0	0	0
1429.304	n/a	WORD	714652	wordpools/wasnorm_wordpool_576.txt	LTP259	ltpFR2	20	7	CREATURE	403	n/a	n/a	0	0	0
1431.754	n/a	WORD	715877	wordpools/wasnorm_wordpool_576.txt	LTP259	ltpFR2	20	7	SUNSET	1408	n/a	n/a	0	0	0
1434.424	n/a	WORD	717212	wordpools/wasnorm_wordpool_576.txt	LTP259	ltpFR2	20	7	SHORTCAKE	1292	n/a	n/a	0	0	0
1436.976	n/a	WORD	718488	wordpools/wasnorm_wordpool_576.txt	LTP259	ltpFR2	20	7	ACTOR	5	n/a	n/a	0	0	0
1439.428	n/a	WORD	719714	wordpools/wasnorm_wordpool_576.txt	LTP259	ltpFR2	20	7	JUGGLER	763	n/a	n/a	0	0	0
1441.964	n/a	WORD	720982	wordpools/wasnorm_wordpool_576.txt	LTP259	ltpFR2	20	7	RABBIT	1152	n/a	n/a	0	0	0
1444.448	n/a	WORD	722224	wordpools/wasnorm_wordpool_576.txt	LTP259	ltpFR2	20	7	HUSBAND	728	n/a	n/a	0	0	0
1447.052	n/a	WORD	723526	wordpools/wasnorm_wordpool_576.txt	LTP259	ltpFR2	20	7	SPOUSE	1358	n/a	n/a	0	0	0
1449.702	n/a	WORD	724851	wordpools/wasnorm_wordpool_576.txt	LTP259	ltpFR2	20	7	VIKING	1565	n/a	n/a	0	0	0
1452.372	n/a	WORD	726186	wordpools/wasnorm_wordpool_576.txt	LTP259	ltpFR2	20	7	IGLOO	734	n/a	n/a	0	0	0
1455.058	n/a	WORD	727529	wordpools/wasnorm_wordpool_576.txt	LTP259	ltpFR2	20	7	GARBAGE	622	n/a	n/a	0	0	0
1457.826	n/a	WORD	728913	wordpools/wasnorm_wordpool_576.txt	LTP259	ltpFR2	20	7	RACKET	1155	n/a	n/a	0	0	0
1460.412	n/a	WORD	730206	wordpools/wasnorm_wordpool_576.txt	LTP259	ltpFR2	20	7	FOOTBALL	591	n/a	n/a	0	0	0
1462.948	n/a	WORD	731474	wordpools/wasnorm_wordpool_576.txt	LTP259	ltpFR2	20	7	SPOOL	1356	n/a	n/a	0	0	0
1465.498	n/a	WORD	732749	wordpools/wasnorm_wordpool_576.txt	LTP259	ltpFR2	20	7	POCKET	1093	n/a	n/a	0	0	0
1468.068	n/a	WORD	734034	wordpools/wasnorm_wordpool_576.txt	LTP259	ltpFR2	20	7	KNAPSACK	783	n/a	n/a	0	0	0
1470.82	n/a	WORD	735410	wordpools/wasnorm_wordpool_576.txt	LTP259	ltpFR2	20	7	NECKLACE	940	n/a	n/a	0	0	0
1473.538	n/a	WORD	736769	wordpools/wasnorm_wordpool_576.txt	LTP259	ltpFR2	20	7	BUNNY	198	n/a	n/a	0	0	0
1476.024	n/a	WORD	738012	wordpools/wasnorm_wordpool_576.txt	LTP259	ltpFR2	20	7	ICING	732	n/a	n/a	0	0	0
1478.476	n/a	WORD	739238	wordpools/wasnorm_wordpool_576.txt	LTP259	ltpFR2	20	7	COMET	353	n/a	n/a	0	0	0
1481.012	n/a	WORD	740506	wordpools/wasnorm_wordpool_576.txt	LTP259	ltpFR2	20	7	NIGHTGOWN	953	n/a	n/a	0	0	0
1483.446	n/a	WORD	741723	wordpools/wasnorm_wordpool_576.txt	LTP259	ltpFR2	20	7	TURTLE	1522	n/a	n/a	0	0	0
1485.048	n/a	START	742524	n/a	LTP259	ltpFR2	20	n/a	n/a	n/a	8	n/a	n/a	n/a	n/a
1486.184	n/a	DISTRACTOR	743092	n/a	LTP259	ltpFR2	20	7	n/a	n/a	n/a	n/a	0	0	0
1486.198	n/a	PROB	743099	n/a	LTP259	ltpFR2	20	n/a	n/a	n/a	8	12	8	1	3
1488.284	n/a	PROB	744142	n/a	LTP259	ltpFR2	20	n/a	n/a	n/a	8	23	8	7	8
1491.752	n/a	PROB	745876	n/a	LTP259	ltpFR2	20	n/a	n/a	n/a	8	14	9	2	3
1493.37	n/a	PROB	746685	n/a	LTP259	ltpFR2	20	n/a	n/a	n/a	8	14	3	7	4
1494.906	n/a	PROB	747453	n/a	LTP259	ltpFR2	20	n/a	n/a	n/a	8	16	4	3	9
1497.274	n/a	PROB	748637	n/a	LTP259	ltpFR2	20	n/a	n/a	n/a	8	16	7	5	4
1501.26	n/a	PROB	750630	n/a	LTP259	ltpFR2	20	n/a	n/a	n/a	8	7	1	2	4
1502.778	n/a	PROB	751389	n/a	LTP259	ltpFR2	20	n/a	n/a	n/a	8	20	6	9	5
1505.998	n/a	PROB	752999	n/a	LTP259	ltpFR2	20	n/a	n/a	n/a	8	12	1	7	4
1508.316	n/a	STOP	754158	n/a	LTP259	ltpFR2	20	n/a	n/a	n/a	8	n/a	n/a	n/a	n/a
1510.902	n/a	REC_START	755451	n/a	LTP259	ltpFR2	20	7	n/a	n/a	n/a	n/a	0	0	0
1512.156	n/a	REC_WORD	756078	wordpools/wasnorm_wordpool_576.txt	LTP259	ltpFR2	20	7	BUNNY	198	n/a	n/a	0	0	0
1512.754	n/a	REC_WORD	756377	wordpools/wasnorm_wordpool_576.txt	LTP259	ltpFR2	20	7	RABBIT	1152	n/a	n/a	0	0	0
1513.438	n/a	REC_WORD	756719	wordpools/wasnorm_wordpool_576.txt	LTP259	ltpFR2	20	7	GARBAGE	622	n/a	n/a	0	0	0
1514.162	n/a	REC_WORD	757081	wordpools/wasnorm_wordpool_576.txt	LTP259	ltpFR2	20	7	SPOOL	1356	n/a	n/a	0	0	0
1514.874	n/a	REC_WORD	757437	wordpools/wasnorm_wordpool_576.txt	LTP259	ltpFR2	20	7	POCKET	1093	n/a	n/a	0	0	0
1515.63	n/a	REC_WORD	757815	wordpools/wasnorm_wordpool_576.txt	LTP259	ltpFR2	20	7	TURTLE	1522	n/a	n/a	0	0	0
1516.772	n/a	REC_WORD	758386	wordpools/wasnorm_wordpool_576.txt	LTP259	ltpFR2	20	7	SUNSET	1408	n/a	n/a	0	0	0
1517.586	n/a	REC_WORD	758793	wordpools/wasnorm_wordpool_576.txt	LTP259	ltpFR2	20	7	SUNRISE	1407	n/a	n/a	0	0	0
1518.584	n/a	REC_WORD	759292	wordpools/wasnorm_wordpool_576.txt	LTP259	ltpFR2	20	7	VIKING	1565	n/a	n/a	0	0	0
1519.806	n/a	REC_WORD	759903	wordpools/wasnorm_wordpool_576.txt	LTP259	ltpFR2	20	7	IGLOO	734	n/a	n/a	0	0	0
1520.426	n/a	REC_WORD	760213	wordpools/wasnorm_wordpool_576.txt	LTP259	ltpFR2	20	7	FOOTBALL	591	n/a	n/a	0	0	0
1521.246	n/a	REC_WORD	760623	wordpools/wasnorm_wordpool_576.txt	LTP259	ltpFR2	20	7	RACKET	1155	n/a	n/a	0	0	0
1528.13	n/a	REC_WORD	764065	wordpools/wasnorm_wordpool_576.txt	LTP259	ltpFR2	20	7	JUGGLER	763	n/a	n/a	0	0	0
1528.756	n/a	REC_WORD	764378	wordpools/wasnorm_wordpool_576.txt	LTP259	ltpFR2	20	7	ACTOR	5	n/a	n/a	0	0	0
1530.802	n/a	REC_WORD	765401	wordpools/wasnorm_wordpool_576.txt	LTP259	ltpFR2	20	7	SUNSET	1408	n/a	n/a	0	0	0
1532.734	n/a	REC_WORD	766367	wordpools/wasnorm_wordpool_576.txt	LTP259	ltpFR2	20	7	VAGRANT	1544	n/a	n/a	0	0	0
1536.938	n/a	REC_WORD	768469	wordpools/wasnorm_wordpool_576.txt	LTP259	ltpFR2	20	7	SPOUSE	1358	n/a	n/a	0	0	0
1537.624	n/a	REC_WORD	768812	wordpools/wasnorm_wordpool_576.txt	LTP259	ltpFR2	20	7	HUSBAND	728	n/a	n/a	0	0	0
1538.214	n/a	REC_WORD	769107	wordpools/wasnorm_wordpool_576.txt	LTP259	ltpFR2	20	7	VIKING	1565	n/a	n/a	0	0	0
1545.066	n/a	REC_WORD	772533	wordpools/wasnorm_wordpool_576.txt	LTP259	ltpFR2	20	7	CREATURE	403	n/a	n/a	0	0	0
1547.696	n/a	REC_WORD	773848	wordpools/wasnorm_wordpool_576.txt	LTP259	ltpFR2	20	7	SHORTCAKE	1292	n/a	n/a	0	0	0
1550.126	n/a	REC_WORD	775063	wordpools/wasnorm_wordpool_576.txt	LTP259	ltpFR2	20	7	ICING	732	n/a	n/a	0	0	0
1601.356	n/a	DISTRACTOR	800678	n/a	LTP259	ltpFR2	20	8	n/a	n/a	n/a	n/a	0	0	0
1601.356	n/a	START	800678	n/a	LTP259	ltpFR2	20	n/a	n/a	n/a	9	n/a	n/a	n/a	n/a
1601.372	n/a	PROB	800686	n/a	LTP259	ltpFR2	20	n/a	n/a	n/a	9	12	1	9	2
1602.758	n/a	PROB	801379	n/a	LTP259	ltpFR2	20	n/a	n/a	n/a	9	19	3	7	9
1604.224	n/a	PROB	802112	n/a	LTP259	ltpFR2	20	n/a	n/a	n/a	9	15	8	6	1
1606.078	n/a	PROB	803039	n/a	LTP259	ltpFR2	20	n/a	n/a	n/a	9	13	3	9	1
1607.394	n/a	PROB	803697	n/a	LTP259	ltpFR2	20	n/a	n/a	n/a	9	24	8	7	9
1609.43	n/a	PROB	804715	n/a	LTP259	ltpFR2	20	n/a	n/a	n/a	9	23	9	7	7
1611.698	n/a	PROB	805849	n/a	LTP259	ltpFR2	20	n/a	n/a	n/a	9	12	3	8	1
1613.682	n/a	PROB	806841	n/a	LTP259	ltpFR2	20	n/a	n/a	n/a	9	16	9	2	5
1615.134	n/a	PROB	807567	n/a	LTP259	ltpFR2	20	n/a	n/a	n/a	9	18	4	5	9
1617.07	n/a	PROB	808535	n/a	LTP259	ltpFR2	20	n/a	n/a	n/a	9	12	4	5	3
1619.104	n/a	PROB	809552	n/a	LTP259	ltpFR2	20	n/a	n/a	n/a	9	12	3	5	4
1621.79	n/a	PROB	810895	n/a	LTP259	ltpFR2	20	n/a	n/a	n/a	9	12	1	2	9
1623.34	n/a	PROB	811670	n/a	LTP259	ltpFR2	20	n/a	n/a	n/a	9	6	1	4	1
1624.672	n/a	STOP	812336	n/a	LTP259	ltpFR2	20	n/a	n/a	n/a	9	n/a	n/a	n/a	n/a
1626.31	n/a	WORD	813155	wordpools/wasnorm_wordpool_576.txt	LTP259	ltpFR2	20	8	DRIVER	499	n/a	n/a	0	0	0
1628.728	n/a	WORD	814364	wordpools/wasnorm_wordpool_576.txt	LTP259	ltpFR2	20	8	CLIMBER	323	n/a	n/a	0	0	0
1631.446	n/a	WORD	815723	wordpools/wasnorm_wordpool_576.txt	LTP259	ltpFR2	20	8	ICEBERG	731	n/a	n/a	0	0	0
1634.198	n/a	WORD	817099	wordpools/wasnorm_wordpool_576.txt	LTP259	ltpFR2	20	8	DANDRUFF	439	n/a	n/a	0	0	0
1636.818	n/a	WORD	818409	wordpools/wasnorm_wordpool_576.txt	LTP259	ltpFR2	20	8	FOX	598	n/a	n/a	0	0	0
1639.354	n/a	WORD	819677	wordpools/wasnorm_wordpool_576.txt	LTP259	ltpFR2	20	8	SWORD	1423	n/a	n/a	0	0	0
1642.006	n/a	WORD	821003	wordpools/wasnorm_wordpool_576.txt	LTP259	ltpFR2	20	8	TOASTER	1472	n/a	n/a	0	0	0
1644.54	n/a	WORD	822270	wordpools/wasnorm_wordpool_576.txt	LTP259	ltpFR2	20	8	MOTEL	919	n/a	n/a	0	0	0
1647.126	n/a	WORD	823563	wordpools/wasnorm_wordpool_576.txt	LTP259	ltpFR2	20	8	DORM	488	n/a	n/a	0	0	0
1649.846	n/a	WORD	824923	wordpools/wasnorm_wordpool_576.txt	LTP259	ltpFR2	20	8	MUFFIN	929	n/a	n/a	0	0	0
1652.546	n/a	WORD	826273	wordpools/wasnorm_wordpool_576.txt	LTP259	ltpFR2	20	8	COUNTRY	388	n/a	n/a	0	0	0
1655.05	n/a	WORD	827525	wordpools/wasnorm_wordpool_576.txt	LTP259	ltpFR2	20	8	CLOTHES	327	n/a	n/a	0	0	0
1657.718	n/a	WORD	828859	wordpools/wasnorm_wordpool_576.txt	LTP259	ltpFR2	20	8	CRICKET	408	n/a	n/a	0	0	0
1660.454	n/a	WORD	830227	wordpools/wasnorm_wordpool_576.txt	LTP259	ltpFR2	20	8	HOOK	715	n/a	n/a	0	0	0
1662.972	n/a	WORD	831486	wordpools/wasnorm_wordpool_576.txt	LTP259	ltpFR2	20	8	BUTCHER	203	n/a	n/a	0	0	0
1665.39	n/a	WORD	832695	wordpools/wasnorm_wordpool_576.txt	LTP259	ltpFR2	20	8	MEAT	883	n/a	n/a	0	0	0
1668.124	n/a	WORD	834062	wordpools/wasnorm_wordpool_576.txt	LTP259	ltpFR2	20	8	HELMET	702	n/a	n/a	0	0	0
1670.56	n/a	WORD	835280	wordpools/wasnorm_wordpool_576.txt	LTP259	ltpFR2	20	8	COUNTY	389	n/a	n/a	0	0	0
1673.146	n/a	WORD	836573	wordpools/wasnorm_wordpool_576.txt	LTP259	ltpFR2	20	8	KLEENEX	782	n/a	n/a	0	0	0
1675.916	n/a	WORD	837958	wordpools/wasnorm_wordpool_576.txt	LTP259	ltpFR2	20	8	ANTLER	29	n/a	n/a	0	0	0
1678.384	n/a	WORD	839192	wordpools/wasnorm_wordpool_576.txt	LTP259	ltpFR2	20	8	GLOBE	641	n/a	n/a	0	0	0
1680.836	n/a	WORD	840418	wordpools/wasnorm_wordpool_576.txt	LTP259	ltpFR2	20	8	PISTOL	1075	n/a	n/a	0	0	0
1683.438	n/a	WORD	841719	wordpools/wasnorm_wordpool_576.txt	LTP259	ltpFR2	20	8	OUTLAW	989	n/a	n/a	0	0	0
1685.94	n/a	WORD	842970	wordpools/wasnorm_wordpool_576.txt	LTP259	ltpFR2	20	8	DOLPHIN	483	n/a	n/a	0	0	0
1687.558	n/a	START	843779	n/a	LTP259	ltpFR2	20	n/a	n/a	n/a	10	n/a	n/a	n/a	n/a
1688.36	n/a	DISTRACTOR	844180	n/a	LTP259	ltpFR2	20	8	n/a	n/a	n/a	n/a	0	0	0
1688.374	n/a	PROB	844187	n/a	LTP259	ltpFR2	20	n/a	n/a	n/a	10	17	4	7	4
1691.11	n/a	PROB	845555	n/a	LTP259	ltpFR2	20	n/a	n/a	n/a	10	20	9	8	3
1694.212	n/a	PROB	847106	n/a	LTP259	ltpFR2	20	n/a	n/a	n/a	10	15	1	9	5
1695.514	n/a	PROB	847757	n/a	LTP259	ltpFR2	20	n/a	n/a	n/a	10	12	6	4	2
1696.932	n/a	PROB	848466	n/a	LTP259	ltpFR2	20	n/a	n/a	n/a	10	13	5	5	3
1698.166	n/a	PROB	849083	n/a	LTP259	ltpFR2	20	n/a	n/a	n/a	10	12	9	1	2
1699.584	n/a	PROB	849792	n/a	LTP259	ltpFR2	20	n/a	n/a	n/a	10	9	6	1	2
1701.584	n/a	PROB	850792	n/a	LTP259	ltpFR2	20	n/a	n/a	n/a	10	14	2	3	9
1703.504	n/a	PROB	851752	n/a	LTP259	ltpFR2	20	n/a	n/a	n/a	10	7	2	3	2
1705.572	n/a	PROB	852786	n/a	LTP259	ltpFR2	20	n/a	n/a	n/a	10	11	4	3	4
1707.656	n/a	PROB	853828	n/a	LTP259	ltpFR2	20	n/a	n/a	n/a	10	19	7	5	7
1710.506	n/a	STOP	855253	n/a	LTP259	ltpFR2	20	n/a	n/a	n/a	10	n/a	n/a	n/a	n/a
1713.378	n/a	REC_START	856689	n/a	LTP259	ltpFR2	20	8	n/a	n/a	n/a	n/a	0	0	0
1714.032	n/a	REC_WORD	857016	wordpools/wasnorm_wordpool_576.txt	LTP259	ltpFR2	20	8	PISTOL	1075	n/a	n/a	0	0	0
1714.664	n/a	REC_WORD	857332	wordpools/wasnorm_wordpool_576.txt	LTP259	ltpFR2	20	8	GLOBE	641	n/a	n/a	0	0	0
1715.214	n/a	REC_WORD	857607	wordpools/wasnorm_wordpool_576.txt	LTP259	ltpFR2	20	8	OUTLAW	989	n/a	n/a	0	0	0
1715.834	n/a	REC_WORD	857917	wordpools/wasnorm_wordpool_576.txt	LTP259	ltpFR2	20	8	DOLPHIN	483	n/a	n/a	0	0	0
1716.512	n/a	REC_WORD	858256	wordpools/wasnorm_wordpool_576.txt	LTP259	ltpFR2	20	8	DRIVER	499	n/a	n/a	0	0	0
1717.206	n/a	REC_WORD	858603	wordpools/wasnorm_wordpool_576.txt	LTP259	ltpFR2	20	8	ICEBERG	731	n/a	n/a	0	0	0
1718.488	n/a	REC_WORD	859244	wordpools/wasnorm_wordpool_576.txt	LTP259	ltpFR2	20	8	CLIMBER	323	n/a	n/a	0	0	0
1723.396	n/a	REC_WORD	861698	wordpools/wasnorm_wordpool_576.txt	LTP259	ltpFR2	20	8	MUFFIN	929	n/a	n/a	0	0	0
1724.224	n/a	REC_WORD	862112	wordpools/wasnorm_wordpool_576.txt	LTP259	ltpFR2	20	8	MOTEL	919	n/a	n/a	0	0	0
1725.118	n/a	REC_WORD	862559	wordpools/wasnorm_wordpool_576.txt	LTP259	ltpFR2	20	8	MUFFIN	929	n/a	n/a	0	0	0
1726.188	n/a	REC_WORD	863094	wordpools/wasnorm_wordpool_576.txt	LTP259	ltpFR2	20	8	HOTEL	-1	n/a	n/a	0	0	0
1728.192	n/a	REC_WORD	864096	wordpools/wasnorm_wordpool_576.txt	LTP259	ltpFR2	20	8	MOTEL	919	n/a	n/a	0	0	0
1728.946	n/a	REC_WORD	864473	wordpools/wasnorm_wordpool_576.txt	LTP259	ltpFR2	20	8	DORM	488	n/a	n/a	0	0	0
1740.676	n/a	REC_WORD	870338	wordpools/wasnorm_wordpool_576.txt	LTP259	ltpFR2	20	8	ANTLER	29	n/a	n/a	0	0	0
1742.228	n/a	REC_WORD	871114	wordpools/wasnorm_wordpool_576.txt	LTP259	ltpFR2	20	8	MEAT	883	n/a	n/a	0	0	0
1745.962	n/a	REC_WORD	872981	wordpools/wasnorm_wordpool_576.txt	LTP259	ltpFR2	20	8	BUTCHER	203	n/a	n/a	0	0	0
1759.796	n/a	REC_WORD	879898	wordpools/wasnorm_wordpool_576.txt	LTP259	ltpFR2	20	8	TOASTER	1472	n/a	n/a	0	0	0
1767.29	n/a	REC_WORD	883645	wordpools/wasnorm_wordpool_576.txt	LTP259	ltpFR2	20	8	RACKET	1155	n/a	n/a	0	0	0
1770.194	n/a	REC_WORD	885097	wordpools/wasnorm_wordpool_576.txt	LTP259	ltpFR2	20	8	CRICKET	408	n/a	n/a	0	0	0
1783.014	n/a	REC_WORD	891507	wordpools/wasnorm_wordpool_576.txt	LTP259	ltpFR2	20	8	OUTLAW	989	n/a	n/a	0	0	0
1789.89	n/a	REST_REWET	894945	n/a	LTP259	ltpFR2	20	8	n/a	n/a	n/a	n/a	0	0	0
2728.448	n/a	DISTRACTOR	1364224	n/a	LTP259	ltpFR2	20	9	n/a	n/a	n/a	n/a	0	0	0
2728.448	n/a	START	1364224	n/a	LTP259	ltpFR2	20	n/a	n/a	n/a	11	n/a	n/a	n/a	n/a
2728.466	n/a	PROB	1364233	n/a	LTP259	ltpFR2	20	n/a	n/a	n/a	11	13	5	4	4
2731.75	n/a	PROB	1365875	n/a	LTP259	ltpFR2	20	n/a	n/a	n/a	11	16	8	6	2
2733.518	n/a	PROB	1366759	n/a	LTP259	ltpFR2	20	n/a	n/a	n/a	11	20	9	8	3
2735.338	n/a	PROB	1367669	n/a	LTP259	ltpFR2	20	n/a	n/a	n/a	11	5	1	1	3
2736.438	n/a	PROB	1368219	n/a	LTP259	ltpFR2	20	n/a	n/a	n/a	11	16	4	4	8
2737.79	n/a	PROB	1368895	n/a	LTP259	ltpFR2	20	n/a	n/a	n/a	11	13	6	6	1
2739.074	n/a	PROB	1369537	n/a	LTP259	ltpFR2	20	n/a	n/a	n/a	11	8	1	1	6
2740.424	n/a	PROB	1370212	n/a	LTP259	ltpFR2	20	n/a	n/a	n/a	11	21	8	4	9
2742.41	n/a	PROB	1371205	n/a	LTP259	ltpFR2	20	n/a	n/a	n/a	11	17	6	6	5
2744.778	n/a	PROB	1372389	n/a	LTP259	ltpFR2	20	n/a	n/a	n/a	11	8	1	4	3
2746.196	n/a	PROB	1373098	n/a	LTP259	ltpFR2	20	n/a	n/a	n/a	11	11	4	4	3
2748.064	n/a	PROB	1374032	n/a	LTP259	ltpFR2	20	n/a	n/a	n/a	11	5	1	3	1
2749.332	n/a	PROB	1374666	n/a	LTP259	ltpFR2	20	n/a	n/a	n/a	11	19	7	9	3
2751.632	n/a	STOP	1375816	n/a	LTP259	ltpFR2	20	n/a	n/a	n/a	11	n/a	n/a	n/a	n/a
2753.536	n/a	WORD	1376768	wordpools/wasnorm_wordpool_576.txt	LTP259	ltpFR2	20	9	APPLE	33	n/a	n/a	0	0	0
2756.304	n/a	WORD	1378152	wordpools/wasnorm_wordpool_576.txt	LTP259	ltpFR2	20	9	PIMPLE	1071	n/a	n/a	0	0	0
2758.906	n/a	WORD	1379453	wordpools/wasnorm_wordpool_576.txt	LTP259	ltpFR2	20	9	CAMEL	223	n/a	n/a	0	0	0
2761.442	n/a	WORD	1380721	wordpools/wasnorm_wordpool_576.txt	LTP259	ltpFR2	20	9	TRIBE	1505	n/a	n/a	0	0	0
2764.144	n/a	WORD	1382072	wordpools/wasnorm_wordpool_576.txt	LTP259	ltpFR2	20	9	HIGHWAY	707	n/a	n/a	0	0	0
2766.728	n/a	WORD	1383364	wordpools/wasnorm_wordpool_576.txt	LTP259	ltpFR2	20	9	BREAST	171	n/a	n/a	0	0	0
2769.198	n/a	WORD	1384599	wordpools/wasnorm_wordpool_576.txt	LTP259	ltpFR2	20	9	GRILL	661	n/a	n/a	0	0	0
2771.666	n/a	WORD	1385833	wordpools/wasnorm_wordpool_576.txt	LTP259	ltpFR2	20	9	PARROT	1015	n/a	n/a	0	0	0
2774.352	n/a	WORD	1387176	wordpools/wasnorm_wordpool_576.txt	LTP259	ltpFR2	20	9	SIDEWALK	1303	n/a	n/a	0	0	0
2777.004	n/a	WORD	1388502	wordpools/wasnorm_wordpool_576.txt	LTP259	ltpFR2	20	9	NOMAD	955	n/a	n/a	0	0	0
2779.706	n/a	WORD	1389853	wordpools/wasnorm_wordpool_576.txt	LTP259	ltpFR2	20	9	DUSTPAN	509	n/a	n/a	0	0	0
2782.174	n/a	WORD	1391087	wordpools/wasnorm_wordpool_576.txt	LTP259	ltpFR2	20	9	CLOUD	328	n/a	n/a	0	0	0
2784.644	n/a	WORD	1392322	wordpools/wasnorm_wordpool_576.txt	LTP259	ltpFR2	20	9	ULCER	1533	n/a	n/a	0	0	0
2787.346	n/a	WORD	1393673	wordpools/wasnorm_wordpool_576.txt	LTP259	ltpFR2	20	9	TURNIP	1521	n/a	n/a	0	0	0
2789.832	n/a	WORD	1394916	wordpools/wasnorm_wordpool_576.txt	LTP259	ltpFR2	20	9	PERFUME	1049	n/a	n/a	0	0	0
2792.5	n/a	WORD	1396250	wordpools/wasnorm_wordpool_576.txt	LTP259	ltpFR2	20	9	HUMAN	726	n/a	n/a	0	0	0
2794.97	n/a	WORD	1397485	wordpools/wasnorm_wordpool_576.txt	LTP259	ltpFR2	20	9	PORK	1108	n/a	n/a	0	0	0
2797.52	n/a	WORD	1398760	wordpools/wasnorm_wordpool_576.txt	LTP259	ltpFR2	20	9	SANDWICH	1232	n/a	n/a	0	0	0
2799.94	n/a	WORD	1399970	wordpools/wasnorm_wordpool_576.txt	LTP259	ltpFR2	20	9	POSTAGE	1113	n/a	n/a	0	0	0
2802.374	n/a	WORD	1401187	wordpools/wasnorm_wordpool_576.txt	LTP259	ltpFR2	20	9	MAILBOX	857	n/a	n/a	0	0	0
2805.01	n/a	WORD	1402505	wordpools/wasnorm_wordpool_576.txt	LTP259	ltpFR2	20	9	BLOUSE	139	n/a	n/a	0	0	0
2807.612	n/a	WORD	1403806	wordpools/wasnorm_wordpool_576.txt	LTP259	ltpFR2	20	9	TEMPLE	1448	n/a	n/a	0	0	0
2810.23	n/a	WORD	1405115	wordpools/wasnorm_wordpool_576.txt	LTP259	ltpFR2	20	9	HANDBAG	684	n/a	n/a	0	0	0
2812.934	n/a	WORD	1406467	wordpools/wasnorm_wordpool_576.txt	LTP259	ltpFR2	20	9	DRESSER	496	n/a	n/a	0	0	0
2814.534	n/a	START	1407267	n/a	LTP259	ltpFR2	20	n/a	n/a	n/a	12	n/a	n/a	n/a	n/a
2815.574	n/a	DISTRACTOR	1407787	n/a	LTP259	ltpFR2	20	9	n/a	n/a	n/a	n/a	0	0	0
2815.584	n/a	PROB	1407792	n/a	LTP259	ltpFR2	20	n/a	n/a	n/a	12	11	1	6	4
2817.136	n/a	PROB	1408568	n/a	LTP259	ltpFR2	20	n/a	n/a	n/a	12	12	5	6	1
2818.738	n/a	PROB	1409369	n/a	LTP259	ltpFR2	20	n/a	n/a	n/a	12	14	8	5	1
2820.788	n/a	PROB	1410394	n/a	LTP259	ltpFR2	20	n/a	n/a	n/a	12	18	8	2	8
2822.924	n/a	PROB	1411462	n/a	LTP259	ltpFR2	20	n/a	n/a	n/a	12	15	3	4	8
2826.878	n/a	PROB	1413439	n/a	LTP259	ltpFR2	20	n/a	n/a	n/a	12	22	8	8	6
2830.696	n/a	PROB	1415348	n/a	LTP259	ltpFR2	20	n/a	n/a	n/a	12	19	5	9	5
2832.448	n/a	PROB	1416224	n/a	LTP259	ltpFR2	20	n/a	n/a	n/a	12	16	9	2	5
2833.984	n/a	PROB	1416992	n/a	LTP259	ltpFR2	20	n/a	n/a	n/a	12	14	6	1	7
2836.352	n/a	PROB	1418176	n/a	LTP259	ltpFR2	20	n/a	n/a	n/a	12	18	6	8	4
2838.444	n/a	STOP	1419222	n/a	LTP259	ltpFR2	20	n/a	n/a	n/a	12	n/a	n/a	n/a	n/a
2840.32	n/a	REC_START	1420160	n/a	LTP259	ltpFR2	20	9	n/a	n/a	n/a	n/a	0	0	0
2841.548	n/a	REC_WORD	1420774	wordpools/wasnorm_wordpool_576.txt	LTP259	ltpFR2	20	9	TEMPLE	1448	n/a	n/a	0	0	0
2842.382	n/a	REC_WORD	1421191	wordpools/wasnorm_wordpool_576.txt	LTP259	ltpFR2	20	9	ULCER	1533	n/a	n/a	0	0	0
2844.044	n/a	REC_WORD	1422022	wordpools/wasnorm_wordpool_576.txt	LTP259	ltpFR2	20	9	BREAST	171	n/a	n/a	0	0	0
2847.1	n/a	REC_WORD	1423550	wordpools/wasnorm_wordpool_576.txt	LTP259	ltpFR2	20	9	BABY	64	n/a	n/a	0	0	0
2849.882	n/a	REC_WORD	1424941	wordpools/wasnorm_wordpool_576.txt	LTP259	ltpFR2	20	9	APPLE	33	n/a	n/a	0	0	0
2851.002	n/a	REC_WORD	1425501	wordpools/wasnorm_wordpool_576.txt	LTP259	ltpFR2	20	9	GRILL	661	n/a	n/a	0	0	0
2852.474	n/a	REC_WORD	1426237	wordpools/wasnorm_wordpool_576.txt	LTP259	ltpFR2	20	9	DUSTPAN	509	n/a	n/a	0	0	0
2854.506	n/a	REC_WORD	1427253	wordpools/wasnorm_wordpool_576.txt	LTP259	ltpFR2	20	9	HIGHWAY	707	n/a	n/a	0	0	0
2855.452	n/a	REC_WORD	1427726	wordpools/wasnorm_wordpool_576.txt	LTP259	ltpFR2	20	9	NOMAD	955	n/a	n/a	0	0	0
2856.802	n/a	REC_WORD	1428401	wordpools/wasnorm_wordpool_576.txt	LTP259	ltpFR2	20	9	SIDEWALK	1303	n/a	n/a	0	0	0
2859.028	n/a	REC_WORD	1429514	wordpools/wasnorm_wordpool_576.txt	LTP259	ltpFR2	20	9	CAMEL	223	n/a	n/a	0	0	0
2863.638	n/a	REC_WORD	1431819	wordpools/wasnorm_wordpool_576.txt	LTP259	ltpFR2	20	9	PIMPLE	1071	n/a	n/a	0	0	0
2868.416	n/a	REC_WORD	1434208	wordpools/wasnorm_wordpool_576.txt	LTP259	ltpFR2	20	9	POSTAGE	1113	n/a	n/a	0	0	0
2869.42	n/a	REC_WORD	1434710	wordpools/wasnorm_wordpool_576.txt	LTP259	ltpFR2	20	9	ULCER	1533	n/a	n/a	0	0	0
2872.516	n/a	REC_WORD	1436258	wordpools/wasnorm_wordpool_576.txt	LTP259	ltpFR2	20	9	HUMAN	726	n/a	n/a	0	0	0
2873.598	n/a	REC_WORD	1436799	wordpools/wasnorm_wordpool_576.txt	LTP259	ltpFR2	20	9	PORK	1108	n/a	n/a	0	0	0
2875.172	n/a	REC_WORD	1437586	wordpools/wasnorm_wordpool_576.txt	LTP259	ltpFR2	20	9	SANDWICH	1232	n/a	n/a	0	0	0
2878.134	n/a	REC_WORD	1439067	wordpools/wasnorm_wordpool_576.txt	LTP259	ltpFR2	20	9	MAIL	-1	n/a	n/a	0	0	0
2878.972	n/a	REC_WORD	1439486	wordpools/wasnorm_wordpool_576.txt	LTP259	ltpFR2	20	9	POSTAGE	1113	n/a	n/a	0	0	0
2880.44	n/a	REC_WORD	1440220	wordpools/wasnorm_wordpool_576.txt	LTP259	ltpFR2	20	9	MAILBOX	857	n/a	n/a	0	0	0
2884.716	n/a	REC_WORD	1442358	wordpools/wasnorm_wordpool_576.txt	LTP259	ltpFR2	20	9	BLOUSE	139	n/a	n/a	0	0	0
2891.598	n/a	REC_WORD	1445799	wordpools/wasnorm_wordpool_576.txt	LTP259	ltpFR2	20	9	HANDBAG	684	n/a	n/a	0	0	0
2898.82	n/a	REC_WORD	1449410	wordpools/wasnorm_wordpool_576.txt	LTP259	ltpFR2	20	9	DRESSER	496	n/a	n/a	0	0	0
2930.742	n/a	WORD	1465371	wordpools/wasnorm_wordpool_576.txt	LTP259	ltpFR2	20	10	SISTER	1312	n/a	n/a	0	0	0
2933.494	n/a	WORD	1466747	wordpools/wasnorm_wordpool_576.txt	LTP259	ltpFR2	20	10	SIBLING	1301	n/a	n/a	0	0	0
2936.03	n/a	WORD	1468015	wordpools/wasnorm_wordpool_576.txt	LTP259	ltpFR2	20	10	BADGE	68	n/a	n/a	0	0	0
2938.498	n/a	WORD	1469249	wordpools/wasnorm_wordpool_576.txt	LTP259	ltpFR2	20	10	STONE	1385	n/a	n/a	0	0	0
2941.002	n/a	WORD	1470501	wordpools/wasnorm_wordpool_576.txt	LTP259	ltpFR2	20	10	UMPIRE	1535	n/a	n/a	0	0	0
2943.486	n/a	WORD	1471743	wordpools/wasnorm_wordpool_576.txt	LTP259	ltpFR2	20	10	GUARD	667	n/a	n/a	0	0	0
2946.056	n/a	WORD	1473028	wordpools/wasnorm_wordpool_576.txt	LTP259	ltpFR2	20	10	SKETCH	1315	n/a	n/a	0	0	0
2948.606	n/a	WORD	1474303	wordpools/wasnorm_wordpool_576.txt	LTP259	ltpFR2	20	10	SUPPER	1411	n/a	n/a	0	0	0
2951.358	n/a	WORD	1475679	wordpools/wasnorm_wordpool_576.txt	LTP259	ltpFR2	20	10	PEBBLE	1035	n/a	n/a	0	0	0
2953.812	n/a	WORD	1476906	wordpools/wasnorm_wordpool_576.txt	LTP259	ltpFR2	20	10	HOSTESS	723	n/a	n/a	0	0	0
2956.596	n/a	WORD	1478298	wordpools/wasnorm_wordpool_576.txt	LTP259	ltpFR2	20	10	DANCER	437	n/a	n/a	0	0	0
2959.148	n/a	WORD	1479574	wordpools/wasnorm_wordpool_576.txt	LTP259	ltpFR2	20	10	LUMBER	848	n/a	n/a	0	0	0
2961.584	n/a	WORD	1480792	wordpools/wasnorm_wordpool_576.txt	LTP259	ltpFR2	20	10	TRUCK	1512	n/a	n/a	0	0	0
2964.302	n/a	WORD	1482151	wordpools/wasnorm_wordpool_576.txt	LTP259	ltpFR2	20	10	BARREL	91	n/a	n/a	0	0	0
2966.888	n/a	WORD	1483444	wordpools/wasnorm_wordpool_576.txt	LTP259	ltpFR2	20	10	ARMY	39	n/a	n/a	0	0	0
2969.556	n/a	WORD	1484778	wordpools/wasnorm_wordpool_576.txt	LTP259	ltpFR2	20	10	TEACHER	1440	n/a	n/a	0	0	0
2972.258	n/a	WORD	1486129	wordpools/wasnorm_wordpool_576.txt	LTP259	ltpFR2	20	10	WASHER	1592	n/a	n/a	0	0	0
2974.694	n/a	WORD	1487347	wordpools/wasnorm_wordpool_576.txt	LTP259	ltpFR2	20	10	SLOPE	1328	n/a	n/a	0	0	0
2977.146	n/a	WORD	1488573	wordpools/wasnorm_wordpool_576.txt	LTP259	ltpFR2	20	10	LADDER	793	n/a	n/a	0	0	0
2979.932	n/a	WORD	1489966	wordpools/wasnorm_wordpool_576.txt	LTP259	ltpFR2	20	10	SCULPTURE	1258	n/a	n/a	0	0	0
2982.55	n/a	WORD	1491275	wordpools/wasnorm_wordpool_576.txt	LTP259	ltpFR2	20	10	BODY	145	n/a	n/a	0	0	0
2985.352	n/a	WORD	1492676	wordpools/wasnorm_wordpool_576.txt	LTP259	ltpFR2	20	10	CONCERT	360	n/a	n/a	0	0	0
2987.988	n/a	WORD	1493994	wordpools/wasnorm_wordpool_576.txt	LTP259	ltpFR2	20	10	STAR	1373	n/a	n/a	0	0	0
2990.474	n/a	WORD	1495237	wordpools/wasnorm_wordpool_576.txt	LTP259	ltpFR2	20	10	SPACE	1345	n/a	n/a	0	0	0
2992.076	n/a	START	1496038	n/a	LTP259	ltpFR2	20	n/a	n/a	n/a	13	n/a	n/a	n/a	n/a
2993.134	n/a	DISTRACTOR	1496567	n/a	LTP259	ltpFR2	20	10	n/a	n/a	n/a	n/a	0	0	0
2993.142	n/a	PROB	1496571	n/a	LTP259	ltpFR2	20	n/a	n/a	n/a	13	21	9	8	4
2996.794	n/a	PROB	1498397	n/a	LTP259	ltpFR2	20	n/a	n/a	n/a	13	18	1	8	9
2998.596	n/a	PROB	1499298	n/a	LTP259	ltpFR2	20	n/a	n/a	n/a	13	16	3	6	7
3000.23	n/a	PROB	1500115	n/a	LTP259	ltpFR2	20	n/a	n/a	n/a	13	15	3	5	7
3001.95	n/a	PROB	1500975	n/a	LTP259	ltpFR2	20	n/a	n/a	n/a	13	13	2	2	9
3004.284	n/a	PROB	1502142	n/a	LTP259	ltpFR2	20	n/a	n/a	n/a	13	11	5	3	3
3006.002	n/a	PROB	1503001	n/a	LTP259	ltpFR2	20	n/a	n/a	n/a	13	13	2	4	7
3008.786	n/a	PROB	1504393	n/a	LTP259	ltpFR2	20	n/a	n/a	n/a	13	18	3	8	7
3011.122	n/a	PROB	1505561	n/a	LTP259	ltpFR2	20	n/a	n/a	n/a	13	14	8	4	2
3013.74	n/a	PROB	1506870	n/a	LTP259	ltpFR2	20	n/a	n/a	n/a	13	15	2	7	6
3015.954	n/a	STOP	1507977	n/a	LTP259	ltpFR2	20	n/a	n/a	n/a	13	n/a	n/a	n/a	n/a
3017.928	n/a	REC_START	1508964	n/a	LTP259	ltpFR2	20	10	n/a	n/a	n/a	n/a	0	0	0
3021.72	n/a	REC_WORD	1510860	wordpools/wasnorm_wordpool_576.txt	LTP259	ltpFR2	20	10	SISTER	1312	n/a	n/a	0	0	0
3022.762	n/a	REC_WORD	1511381	wordpools/wasnorm_wordpool_576.txt	LTP259	ltpFR2	20	10	DANCER	437	n/a	n/a	0	0	0
3023.578	n/a	REC_WORD	1511789	wordpools/wasnorm_wordpool_576.txt	LTP259	ltpFR2	20	10	LUMBER	848	n/a	n/a	0	0	0
3025.452	n/a	REC_WORD	1512726	wordpools/wasnorm_wordpool_576.txt	LTP259	ltpFR2	20	10	SUPPER	1411	n/a	n/a	0	0	0
3026.17	n/a	REC_WORD	1513085	wordpools/wasnorm_wordpool_576.txt	LTP259	ltpFR2	20	10	HOSTESS	723	n/a	n/a	0	0	0
3038.552	n/a	REC_WORD	1519276	wordpools/wasnorm_wordpool_576.txt	LTP259	ltpFR2	20	10	PEBBLE	1035	n/a	n/a	0	0	0
3048.006	n/a	REC_WORD	1524003	wordpools/wasnorm_wordpool_576.txt	LTP259	ltpFR2	20	10	SPACE	1345	n/a	n/a	0	0	0
3049.968	n/a	REC_WORD	1524984	wordpools/wasnorm_wordpool_576.txt	LTP259	ltpFR2	20	10	STAR	1373	n/a	n/a	0	0	0
3055.894	n/a	REC_WORD	1527947	wordpools/wasnorm_wordpool_576.txt	LTP259	ltpFR2	20	10	STONE	1385	n/a	n/a	0	0	0
3058.112	n/a	REC_WORD	1529056	wordpools/wasnorm_wordpool_576.txt	LTP259	ltpFR2	20	10	SIBLING	1301	n/a	n/a	0	0	0
3060.72	n/a	REC_WORD	1530360	wordpools/wasnorm_wordpool_576.txt	LTP259	ltpFR2	20	10	UMPIRE	1535	n/a	n/a	0	0	0
3062.488	n/a	REC_WORD	1531244	wordpools/wasnorm_wordpool_576.txt	LTP259	ltpFR2	20	10	SKETCH	1315	n/a	n/a	0	0	0
3065.552	n/a	REC_WORD	1532776	wordpools/wasnorm_wordpool_576.txt	LTP259	ltpFR2	20	10	CATCHER	258	n/a	n/a	0	0	0
3108.382	n/a	DISTRACTOR	1554191	n/a	LTP259	ltpFR2	20	11	n/a	n/a	n/a	n/a	0	0	0
3108.382	n/a	START	1554191	n/a	LTP259	ltpFR2	20	n/a	n/a	n/a	14	n/a	n/a	n/a	n/a
3108.4	n/a	PROB	1554200	n/a	LTP259	ltpFR2	20	n/a	n/a	n/a	14	16	7	2	7
3110.1	n/a	PROB	1555050	n/a	LTP259	ltpFR2	20	n/a	n/a	n/a	14	18	8	6	4
3111.786	n/a	PROB	1555893	n/a	LTP259	ltpFR2	20	n/a	n/a	n/a	14	24	6	9	9
3118.34	n/a	PROB	1559170	n/a	LTP259	ltpFR2	20	n/a	n/a	n/a	14	18	7	4	7
3120.41	n/a	PROB	1560205	n/a	LTP259	ltpFR2	20	n/a	n/a	n/a	14	12	2	9	1
3121.576	n/a	PROB	1560788	n/a	LTP259	ltpFR2	20	n/a	n/a	n/a	14	8	3	1	4
3123.212	n/a	PROB	1561606	n/a	LTP259	ltpFR2	20	n/a	n/a	n/a	14	17	2	9	6
3124.964	n/a	PROB	1562482	n/a	LTP259	ltpFR2	20	n/a	n/a	n/a	14	8	1	1	6
3126.114	n/a	PROB	1563057	n/a	LTP259	ltpFR2	20	n/a	n/a	n/a	14	14	6	7	1
3128.666	n/a	PROB	1564333	n/a	LTP259	ltpFR2	20	n/a	n/a	n/a	14	15	4	7	4
3130.878	n/a	STOP	1565439	n/a	LTP259	ltpFR2	20	n/a	n/a	n/a	14	n/a	n/a	n/a	n/a
3133.22	n/a	WORD	1566610	wordpools/wasnorm_wordpool_576.txt	LTP259	ltpFR2	20	11	WIFE	1609	n/a	n/a	0	0	0
3135.822	n/a	WORD	1567911	wordpools/wasnorm_wordpool_576.txt	LTP259	ltpFR2	20	11	HAWK	692	n/a	n/a	0	0	0
3138.324	n/a	WORD	1569162	wordpools/wasnorm_wordpool_576.txt	LTP259	ltpFR2	20	11	SWAMP	1416	n/a	n/a	0	0	0
3141.044	n/a	WORD	1570522	wordpools/wasnorm_wordpool_576.txt	LTP259	ltpFR2	20	11	TRENCH	1503	n/a	n/a	0	0	0
3143.578	n/a	WORD	1571789	wordpools/wasnorm_wordpool_576.txt	LTP259	ltpFR2	20	11	CANYON	235	n/a	n/a	0	0	0
3146.08	n/a	WORD	1573040	wordpools/wasnorm_wordpool_576.txt	LTP259	ltpFR2	20	11	GIRL	637	n/a	n/a	0	0	0
3148.748	n/a	WORD	1574374	wordpools/wasnorm_wordpool_576.txt	LTP259	ltpFR2	20	11	PEPPER	1047	n/a	n/a	0	0	0
3151.218	n/a	WORD	1575609	wordpools/wasnorm_wordpool_576.txt	LTP259	ltpFR2	20	11	MARSH	874	n/a	n/a	0	0	0
3153.854	n/a	WORD	1576927	wordpools/wasnorm_wordpool_576.txt	LTP259	ltpFR2	20	11	CANAL	226	n/a	n/a	0	0	0
3156.422	n/a	WORD	1578211	wordpools/wasnorm_wordpool_576.txt	LTP259	ltpFR2	20	11	OYSTER	995	n/a	n/a	0	0	0
3158.874	n/a	WORD	1579437	wordpools/wasnorm_wordpool_576.txt	LTP259	ltpFR2	20	11	MARINE	869	n/a	n/a	0	0	0
3161.376	n/a	WORD	1580688	wordpools/wasnorm_wordpool_576.txt	LTP259	ltpFR2	20	11	FRECKLE	602	n/a	n/a	0	0	0
3164.178	n/a	WORD	1582089	wordpools/wasnorm_wordpool_576.txt	LTP259	ltpFR2	20	11	WHISKERS	1605	n/a	n/a	0	0	0
3166.78	n/a	WORD	1583390	wordpools/wasnorm_wordpool_576.txt	LTP259	ltpFR2	20	11	MARS	873	n/a	n/a	0	0	0
3169.332	n/a	WORD	1584666	wordpools/wasnorm_wordpool_576.txt	LTP259	ltpFR2	20	11	REBEL	1172	n/a	n/a	0	0	0
3172.0	n/a	WORD	1586000	wordpools/wasnorm_wordpool_576.txt	LTP259	ltpFR2	20	11	DINER	467	n/a	n/a	0	0	0
3174.518	n/a	WORD	1587259	wordpools/wasnorm_wordpool_576.txt	LTP259	ltpFR2	20	11	SAUSAGE	1238	n/a	n/a	0	0	0
3177.038	n/a	WORD	1588519	wordpools/wasnorm_wordpool_576.txt	LTP259	ltpFR2	20	11	FLOWER	584	n/a	n/a	0	0	0
3179.638	n/a	WORD	1589819	wordpools/wasnorm_wordpool_576.txt	LTP259	ltpFR2	20	11	STREAM	1392	n/a	n/a	0	0	0
3182.224	n/a	WORD	1591112	wordpools/wasnorm_wordpool_576.txt	LTP259	ltpFR2	20	11	SOFTBALL	1343	n/a	n/a	0	0	0
3184.878	n/a	WORD	1592439	wordpools/wasnorm_wordpool_576.txt	LTP259	ltpFR2	20	11	WORLD	1622	n/a	n/a	0	0	0
3187.494	n/a	WORD	1593747	wordpools/wasnorm_wordpool_576.txt	LTP259	ltpFR2	20	11	SCALLOP	1242	n/a	n/a	0	0	0
3190.198	n/a	WORD	1595099	wordpools/wasnorm_wordpool_576.txt	LTP259	ltpFR2	20	11	NOVEL	960	n/a	n/a	0	0	0
3192.816	n/a	WORD	1596408	wordpools/wasnorm_wordpool_576.txt	LTP259	ltpFR2	20	11	BINDER	127	n/a	n/a	0	0	0
3194.418	n/a	START	1597209	n/a	LTP259	ltpFR2	20	n/a	n/a	n/a	15	n/a	n/a	n/a	n/a
3195.536	n/a	DISTRACTOR	1597768	n/a	LTP259	ltpFR2	20	11	n/a	n/a	n/a	n/a	0	0	0
3195.552	n/a	PROB	1597776	n/a	LTP259	ltpFR2	20	n/a	n/a	n/a	15	9	4	3	2
3198.454	n/a	PROB	1599227	n/a	LTP259	ltpFR2	20	n/a	n/a	n/a	15	7	2	1	4
3200.638	n/a	PROB	1600319	n/a	LTP259	ltpFR2	20	n/a	n/a	n/a	15	16	6	3	7
3202.274	n/a	PROB	1601137	n/a	LTP259	ltpFR2	20	n/a	n/a	n/a	15	15	6	1	8
3204.276	n/a	PROB	1602138	n/a	LTP259	ltpFR2	20	n/a	n/a	n/a	15	12	3	6	3
3206.326	n/a	PROB	1603163	n/a	LTP259	ltpFR2	20	n/a	n/a	n/a	15	9	2	3	4
3208.562	n/a	PROB	1604281	n/a	LTP259	ltpFR2	20	n/a	n/a	n/a	15	16	4	7	5
3212.048	n/a	PROB	1606024	n/a	LTP259	ltpFR2	20	n/a	n/a	n/a	15	12	5	4	3
3215.15	n/a	PROB	1607575	n/a	LTP259	ltpFR2	20	n/a	n/a	n/a	15	18	9	4	5
3217.462	n/a	STOP	1608731	n/a	LTP259	ltpFR2	20	n/a	n/a	n/a	15	n/a	n/a	n/a	n/a
3220.288	n/a	REC_START	1610144	n/a	LTP259	ltpFR2	20	11	n/a	n/a	n/a	n/a	0	0	0
3231.274	n/a	REC_WORD	1615637	wordpools/wasnorm_wordpool_576.txt	LTP259	ltpFR2	20	11	SAUSAGE	1238	n/a	n/a	0	0	0
3232.248	n/a	REC_WORD	1616124	wordpools/wasnorm_wordpool_576.txt	LTP259	ltpFR2	20	11	DINER	467	n/a	n/a	0	0	0
3310.71	n/a	WORD	1655355	wordpools/wasnorm_wordpool_576.txt	LTP259	ltpFR2	20	12	BIKE	125	n/a	n/a	0	0	0
3313.212	n/a	WORD	1656606	wordpools/wasnorm_wordpool_576.txt	LTP259	ltpFR2	20	12	CUPBOARD	425	n/a	n/a	0	0	0
3315.882	n/a	WORD	1657941	wordpools/wasnorm_wordpool_576.txt	LTP259	ltpFR2	20	12	MISTER	901	n/a	n/a	0	0	0
3318.416	n/a	WORD	1659208	wordpools/wasnorm_wordpool_576.txt	LTP259	ltpFR2	20	12	HONEY	713	n/a	n/a	0	0	0
3320.886	n/a	WORD	1660443	wordpools/wasnorm_wordpool_576.txt	LTP259	ltpFR2	20	12	SERVER	1272	n/a	n/a	0	0	0
3323.304	n/a	WORD	1661652	wordpools/wasnorm_wordpool_576.txt	LTP259	ltpFR2	20	12	WAITRESS	1581	n/a	n/a	0	0	0
3325.84	n/a	WORD	1662920	wordpools/wasnorm_wordpool_576.txt	LTP259	ltpFR2	20	12	DRUG	501	n/a	n/a	0	0	0
3328.424	n/a	WORD	1664212	wordpools/wasnorm_wordpool_576.txt	LTP259	ltpFR2	20	12	HERO	706	n/a	n/a	0	0	0
3330.91	n/a	WORD	1665455	wordpools/wasnorm_wordpool_576.txt	LTP259	ltpFR2	20	12	PORTRAIT	1111	n/a	n/a	0	0	0
3333.344	n/a	WORD	1666672	wordpools/wasnorm_wordpool_576.txt	LTP259	ltpFR2	20	12	LADY	794	n/a	n/a	0	0	0
3336.032	n/a	WORD	1668016	wordpools/wasnorm_wordpool_576.txt	LTP259	ltpFR2	20	12	DRINK	498	n/a	n/a	0	0	0
3338.732	n/a	WORD	1669366	wordpools/wasnorm_wordpool_576.txt	LTP259	ltpFR2	20	12	LEADER	807	n/a	n/a	0	0	0
3341.3	n/a	WORD	1670650	wordpools/wasnorm_wordpool_576.txt	LTP259	ltpFR2	20	12	STICKER	1382	n/a	n/a	0	0	0
3343.954	n/a	WORD	1671977	wordpools/wasnorm_wordpool_576.txt	LTP259	ltpFR2	20	12	VALLEY	1545	n/a	n/a	0	0	0
3346.654	n/a	WORD	1673327	wordpools/wasnorm_wordpool_576.txt	LTP259	ltpFR2	20	12	LIZARD	834	n/a	n/a	0	0	0
3349.106	n/a	WORD	1674553	wordpools/wasnorm_wordpool_576.txt	LTP259	ltpFR2	20	12	DOUGHNUT	490	n/a	n/a	0	0	0
3351.624	n/a	WORD	1675812	wordpools/wasnorm_wordpool_576.txt	LTP259	ltpFR2	20	12	CHILD	299	n/a	n/a	0	0	0
3354.326	n/a	WORD	1677163	wordpools/wasnorm_wordpool_576.txt	LTP259	ltpFR2	20	12	CREVICE	405	n/a	n/a	0	0	0
3356.846	n/a	WORD	1678423	wordpools/wasnorm_wordpool_576.txt	LTP259	ltpFR2	20	12	WORKER	1621	n/a	n/a	0	0	0
3359.648	n/a	WORD	1679824	wordpools/wasnorm_wordpool_576.txt	LTP259	ltpFR2	20	12	OFFICE	972	n/a	n/a	0	0	0
3362.284	n/a	WORD	1681142	wordpools/wasnorm_wordpool_576.txt	LTP259	ltpFR2	20	12	TABLE	1426	n/a	n/a	0	0	0
3365.004	n/a	WORD	1682502	wordpools/wasnorm_wordpool_576.txt	LTP259	ltpFR2	20	12	TUNNEL	1519	n/a	n/a	0	0	0
3367.822	n/a	WORD	1683911	wordpools/wasnorm_wordpool_576.txt	LTP259	ltpFR2	20	12	SNACK	1331	n/a	n/a	0	0	0
3370.524	n/a	WORD	1685262	wordpools/wasnorm_wordpool_576.txt	LTP259	ltpFR2	20	12	BUREAU	199	n/a	n/a	0	0	0
3372.126	n/a	START	1686063	n/a	LTP259	ltpFR2	20	n/a	n/a	n/a	16	n/a	n/a	n/a	n/a
3373.158	n/a	DISTRACTOR	1686579	n/a	LTP259	ltpFR2	20	12	n/a	n/a	n/a	n/a	0	0	0
3373.158	n/a	PROB	1686579	n/a	LTP259	ltpFR2	20	n/a	n/a	n/a	16	21	8	4	9
3376.678	n/a	PROB	1688339	n/a	LTP259	ltpFR2	20	n/a	n/a	n/a	16	22	9	8	5
3380.348	n/a	PROB	1690174	n/a	LTP259	ltpFR2	20	n/a	n/a	n/a	16	14	3	2	9
3382.332	n/a	PROB	1691166	n/a	LTP259	ltpFR2	20	n/a	n/a	n/a	16	15	8	5	2
3385.568	n/a	PROB	1692784	n/a	LTP259	ltpFR2	20	n/a	n/a	n/a	16	18	1	8	9
3387.104	n/a	PROB	1693552	n/a	LTP259	ltpFR2	20	n/a	n/a	n/a	16	13	9	2	2
3388.906	n/a	PROB	1694453	n/a	LTP259	ltpFR2	20	n/a	n/a	n/a	16	7	1	3	3
3390.256	n/a	PROB	1695128	n/a	LTP259	ltpFR2	20	n/a	n/a	n/a	16	16	2	7	7
3391.858	n/a	PROB	1695929	n/a	LTP259	ltpFR2	20	n/a	n/a	n/a	16	16	4	3	9
3395.86	n/a	STOP	1697930	n/a	LTP259	ltpFR2	20	n/a	n/a	n/a	16	n/a	n/a	n/a	n/a
3398.014	n/a	REC_START	1699007	n/a	LTP259	ltpFR2	20	12	n/a	n/a	n/a	n/a	0	0	0
3398.578	n/a	REC_WORD	1699289	wordpools/wasnorm_wordpool_576.txt	LTP259	ltpFR2	20	12	TUNNEL	1519	n/a	n/a	0	0	0
3399.234	n/a	REC_WORD	1699617	wordpools/wasnorm_wordpool_576.txt	LTP259	ltpFR2	20	12	BUREAU	199	n/a	n/a	0	0	0
3400.03	n/a	REC_WORD	1700015	wordpools/wasnorm_wordpool_576.txt	LTP259	ltpFR2	20	12	DOUGHNUT	490	n/a	n/a	0	0	0
3402.876	n/a	REC_WORD	1701438	wordpools/wasnorm_wordpool_576.txt	LTP259	ltpFR2	20	12	DRINK	498	n/a	n/a	0	0	0
3403.612	n/a	REC_WORD	1701806	wordpools/wasnorm_wordpool_576.txt	LTP259	ltpFR2	20	12	COFFEE	341	n/a	n/a	0	0	0
3405.006	n/a	REC_WORD	1702503	wordpools/wasnorm_wordpool_576.txt	LTP259	ltpFR2	20	12	CUPBOARD	425	n/a	n/a	0	0	0
3406.898	n/a	REC_WORD	1703449	wordpools/wasnorm_wordpool_576.txt	LTP259	ltpFR2	20	12	BIKE	125	n/a	n/a	0	0	0
3407.618	n/a	REC_WORD	1703809	wordpools/wasnorm_wordpool_576.txt	LTP259	ltpFR2	20	12	WAITER	1580	n/a	n/a	0	0	0
3412.64	n/a	REC_WORD	1706320	wordpools/wasnorm_wordpool_576.txt	LTP259	ltpFR2	20	12	MISTER	901	n/a	n/a	0	0	0
3414.828	n/a	REC_WORD	1707414	wordpools/wasnorm_wordpool_576.txt	LTP259	ltpFR2	20	12	HERO	706	n/a	n/a	0	0	0
3415.76	n/a	REC_WORD	1707880	wordpools/wasnorm_wordpool_576.txt	LTP259	ltpFR2	20	12	PORTRAIT	1111	n/a	n/a	0	0	0
3416.494	n/a	REC_WORD	1708247	wordpools/wasnorm_wordpool_576.txt	LTP259	ltpFR2	20	12	LADY	794	n/a	n/a	0	0	0
3418.144	n/a	REC_WORD	1709072	wordpools/wasnorm_wordpool_576.txt	LTP259	ltpFR2	20	12	POISON	1096	n/a	n/a	0	0	0
3418.818	n/a	REC_WORD	1709409	wordpools/wasnorm_wordpool_576.txt	LTP259	ltpFR2	20	12	HONEY	713	n/a	n/a	0	0	0
3419.808	n/a	REC_WORD	1709904	wordpools/wasnorm_wordpool_576.txt	LTP259	ltpFR2	20	12	CUPBOARD	425	n/a	n/a	0	0	0
3421.908	n/a	REC_WORD	1710954	wordpools/wasnorm_wordpool_576.txt	LTP259	ltpFR2	20	12	WAITRESS	1581	n/a	n/a	0	0	0
3424.086	n/a	REC_WORD	1712043	wordpools/wasnorm_wordpool_576.txt	LTP259	ltpFR2	20	12	LEADER	807	n/a	n/a	0	0	0
3426.296	n/a	REC_WORD	1713148	wordpools/wasnorm_wordpool_576.txt	LTP259	ltpFR2	20	12	OFFICE	972	n/a	n/a	0	0	0
3430.91	n/a	REC_WORD	1715455	wordpools/wasnorm_wordpool_576.txt	LTP259	ltpFR2	20	12	WORKER	1621	n/a	n/a	0	0	0
3433.086	n/a	REC_WORD	1716543	wordpools/wasnorm_wordpool_576.txt	LTP259	ltpFR2	20	12	CREVICE	405	n/a	n/a	0	0	0
3441.628	n/a	REC_WORD	1720814	wordpools/wasnorm_wordpool_576.txt	LTP259	ltpFR2	20	12	DAUGHTER	442	n/a	n/a	0	0	0
3488.45	n/a	WORD	1744225	wordpools/wasnorm_wordpool_576.txt	LTP259	ltpFR2	20	13	PLAYGROUND	1087	n/a	n/a	0	0	0
3491.17	n/a	WORD	1745585	wordpools/wasnorm_wordpool_576.txt	LTP259	ltpFR2	20	13	MONSTER	912	n/a	n/a	0	0	0
3493.604	n/a	WORD	1746802	wordpools/wasnorm_wordpool_576.txt	LTP259	ltpFR2	20	13	COLLEGE	346	n/a	n/a	0	0	0
3496.34	n/a	WORD	1748170	wordpools/wasnorm_wordpool_576.txt	LTP259	ltpFR2	20	13	KITCHEN	778	n/a	n/a	0	0	0
3498.776	n/a	WORD	1749388	wordpools/wasnorm_wordpool_576.txt	LTP259	ltpFR2	20	13	SHIRT	1287	n/a	n/a	0	0	0
3501.462	n/a	WORD	1750731	wordpools/wasnorm_wordpool_576.txt	LTP259	ltpFR2	20	13	EMPIRE	530	n/a	n/a	0	0	0
3504.014	n/a	WORD	1752007	wordpools/wasnorm_wordpool_576.txt	LTP259	ltpFR2	20	13	CRITIC	410	n/a	n/a	0	0	0
3506.816	n/a	WORD	1753408	wordpools/wasnorm_wordpool_576.txt	LTP259	ltpFR2	20	13	CAPTIVE	240	n/a	n/a	0	0	0
3509.384	n/a	WORD	1754692	wordpools/wasnorm_wordpool_576.txt	LTP259	ltpFR2	20	13	JEANS	752	n/a	n/a	0	0	0
3511.986	n/a	WORD	1755993	wordpools/wasnorm_wordpool_576.txt	LTP259	ltpFR2	20	13	SEAFOOD	1260	n/a	n/a	0	0	0
3514.554	n/a	WORD	1757277	wordpools/wasnorm_wordpool_576.txt	LTP259	ltpFR2	20	13	CLAM	315	n/a	n/a	0	0	0
3517.156	n/a	WORD	1758578	wordpools/wasnorm_wordpool_576.txt	LTP259	ltpFR2	20	13	TABLET	1427	n/a	n/a	0	0	0
3519.592	n/a	WORD	1759796	wordpools/wasnorm_wordpool_576.txt	LTP259	ltpFR2	20	13	LOVER	846	n/a	n/a	0	0	0
3522.26	n/a	WORD	1761130	wordpools/wasnorm_wordpool_576.txt	LTP259	ltpFR2	20	13	BURGLAR	200	n/a	n/a	0	0	0
3524.762	n/a	WORD	1762381	wordpools/wasnorm_wordpool_576.txt	LTP259	ltpFR2	20	13	RUST	1219	n/a	n/a	0	0	0
3527.364	n/a	WORD	1763682	wordpools/wasnorm_wordpool_576.txt	LTP259	ltpFR2	20	13	COSTUME	383	n/a	n/a	0	0	0
3530.05	n/a	WORD	1765025	wordpools/wasnorm_wordpool_576.txt	LTP259	ltpFR2	20	13	LIPSTICK	829	n/a	n/a	0	0	0
3532.802	n/a	WORD	1766401	wordpools/wasnorm_wordpool_576.txt	LTP259	ltpFR2	20	13	BOUQUET	157	n/a	n/a	0	0	0
3535.354	n/a	WORD	1767677	wordpools/wasnorm_wordpool_576.txt	LTP259	ltpFR2	20	13	QUAIL	1147	n/a	n/a	0	0	0
3538.056	n/a	WORD	1769028	wordpools/wasnorm_wordpool_576.txt	LTP259	ltpFR2	20	13	COURSE	390	n/a	n/a	0	0	0
3540.674	n/a	WORD	1770337	wordpools/wasnorm_wordpool_576.txt	LTP259	ltpFR2	20	13	SPOON	1357	n/a	n/a	0	0	0
3543.478	n/a	WORD	1771739	wordpools/wasnorm_wordpool_576.txt	LTP259	ltpFR2	20	13	LACE	792	n/a	n/a	0	0	0
3546.13	n/a	WORD	1773065	wordpools/wasnorm_wordpool_576.txt	LTP259	ltpFR2	20	13	SILK	1307	n/a	n/a	0	0	0
3548.9	n/a	WORD	1774450	wordpools/wasnorm_wordpool_576.txt	LTP259	ltpFR2	20	13	DENIM	446	n/a	n/a	0	0	0
3550.516	n/a	START	1775258	n/a	LTP259	ltpFR2	20	n/a	n/a	n/a	17	n/a	n/a	n/a	n/a
3551.37	n/a	DISTRACTOR	1775685	n/a	LTP259	ltpFR2	20	13	n/a	n/a	n/a	n/a	0	0	0
3551.384	n/a	PROB	1775692	n/a	LTP259	ltpFR2	20	n/a	n/a	n/a	17	15	2	7	6
3554.402	n/a	PROB	1777201	n/a	LTP259	ltpFR2	20	n/a	n/a	n/a	17	17	3	6	8
3560.858	n/a	PROB	1780429	n/a	LTP259	ltpFR2	20	n/a	n/a	n/a	17	9	4	1	4
3562.226	n/a	PROB	1781113	n/a	LTP259	ltpFR2	20	n/a	n/a	n/a	17	21	4	9	8
3566.296	n/a	PROB	1783148	n/a	LTP259	ltpFR2	20	n/a	n/a	n/a	17	18	3	6	9
3568.698	n/a	PROB	1784349	n/a	LTP259	ltpFR2	20	n/a	n/a	n/a	17	12	2	3	7
3570.816	n/a	PROB	1785408	n/a	LTP259	ltpFR2	20	n/a	n/a	n/a	17	20	7	7	6
3574.516	n/a	STOP	1787258	n/a	LTP259	ltpFR2	20	n/a	n/a	n/a	17	n/a	n/a	n/a	n/a
3576.438	n/a	REC_START	1788219	n/a	LTP259	ltpFR2	20	13	n/a	n/a	n/a	n/a	0	0	0
3576.82	n/a	REC_WORD	1788410	wordpools/wasnorm_wordpool_576.txt	LTP259	ltpFR2	20	13	RUST	1219	n/a	n/a	0	0	0
3577.378	n/a	REC_WORD	1788689	wordpools/wasnorm_wordpool_576.txt	LTP259	ltpFR2	20	13	SPOON	1357	n/a	n/a	0	0	0
3578.358	n/a	REC_WORD	1789179	wordpools/wasnorm_wordpool_576.txt	LTP259	ltpFR2	20	13	DENIM	446	n/a	n/a	0	0	0
3578.924	n/a	REC_WORD	1789462	wordpools/wasnorm_wordpool_576.txt	LTP259	ltpFR2	20	13	SILK	1307	n/a	n/a	0	0	0
3579.704	n/a	REC_WORD	1789852	wordpools/wasnorm_wordpool_576.txt	LTP259	ltpFR2	20	13	LACE	792	n/a	n/a	0	0	0
3580.91	n/a	REC_WORD	1790455	wordpools/wasnorm_wordpool_576.txt	LTP259	ltpFR2	20	13	COSTUME	383	n/a	n/a	0	0	0
3581.738	n/a	REC_WORD	1790869	wordpools/wasnorm_wordpool_576.txt	LTP259	ltpFR2	20	13	LIPSTICK	829	n/a	n/a	0	0	0
3583.164	n/a	REC_WORD	1791582	wordpools/wasnorm_wordpool_576.txt	LTP259	ltpFR2	20	13	CLAM	315	n/a	n/a	0	0	0
3583.748	n/a	REC_WORD	1791874	wordpools/wasnorm_wordpool_576.txt	LTP259	ltpFR2	20	13	SEAFOOD	1260	n/a	n/a	0	0	0
3589.148	n/a	REC_WORD	1794574	wordpools/wasnorm_wordpool_576.txt	LTP259	ltpFR2	20	13	COLLEGE	346	n/a	n/a	0	0	0
3590.22	n/a	REC_WORD	1795110	wordpools/wasnorm_wordpool_576.txt	LTP259	ltpFR2	20	13	MONSTER	912	n/a	n/a	0	0	0
3593.934	n/a	REC_WORD	1796967	wordpools/wasnorm_wordpool_576.txt	LTP259	ltpFR2	20	13	PLAYGROUND	1087	n/a	n/a	0	0	0
3596.306	n/a	REC_WORD	1798153	wordpools/wasnorm_wordpool_576.txt	LTP259	ltpFR2	20	13	BURGLAR	200	n/a	n/a	0	0	0
3604.742	n/a	REC_WORD	1802371	wordpools/wasnorm_wordpool_576.txt	LTP259	ltpFR2	20	13	TABLET	1427	n/a	n/a	0	0	0
3614.168	n/a	REC_WORD	1807084	wordpools/wasnorm_wordpool_576.txt	LTP259	ltpFR2	20	13	CAPTIVE	240	n/a	n/a	0	0	0
3614.872	n/a	REC_WORD	1807436	wordpools/wasnorm_wordpool_576.txt	LTP259	ltpFR2	20	13	HOSTAGE	722	n/a	n/a	0	0	0
3621.238	n/a	REC_WORD	1810619	wordpools/wasnorm_wordpool_576.txt	LTP259	ltpFR2	20	13	BOUQUET	157	n/a	n/a	0	0	0
3623.312	n/a	REC_WORD	1811656	wordpools/wasnorm_wordpool_576.txt	LTP259	ltpFR2	20	13	KITCHEN	778	n/a	n/a	0	0	0
3624.348	n/a	REC_WORD	1812174	wordpools/wasnorm_wordpool_576.txt	LTP259	ltpFR2	20	13	COLLEGE	346	n/a	n/a	0	0	0
3626.394	n/a	REC_WORD	1813197	wordpools/wasnorm_wordpool_576.txt	LTP259	ltpFR2	20	13	CRITIC	410	n/a	n/a	0	0	0
3633.824	n/a	REC_WORD	1816912	wordpools/wasnorm_wordpool_576.txt	LTP259	ltpFR2	20	13	JACKET	747	n/a	n/a	0	0	0
3666.844	n/a	WORD	1833422	wordpools/wasnorm_wordpool_576.txt	LTP259	ltpFR2	20	14	MONEY	908	n/a	n/a	0	0	0
3669.628	n/a	WORD	1834814	wordpools/wasnorm_wordpool_576.txt	LTP259	ltpFR2	20	14	COBRA	336	n/a	n/a	0	0	0
3672.196	n/a	WORD	1836098	wordpools/wasnorm_wordpool_576.txt	LTP259	ltpFR2	20	14	KNIFE	785	n/a	n/a	0	0	0
3674.832	n/a	WORD	1837416	wordpools/wasnorm_wordpool_576.txt	LTP259	ltpFR2	20	14	WAGON	1578	n/a	n/a	0	0	0
3677.582	n/a	WORD	1838791	wordpools/wasnorm_wordpool_576.txt	LTP259	ltpFR2	20	14	JURY	766	n/a	n/a	0	0	0
3680.168	n/a	WORD	1840084	wordpools/wasnorm_wordpool_576.txt	LTP259	ltpFR2	20	14	HATCHET	691	n/a	n/a	0	0	0
3682.804	n/a	WORD	1841402	wordpools/wasnorm_wordpool_576.txt	LTP259	ltpFR2	20	14	TAXI	1438	n/a	n/a	0	0	0
3685.272	n/a	WORD	1842636	wordpools/wasnorm_wordpool_576.txt	LTP259	ltpFR2	20	14	RATTLE	1170	n/a	n/a	0	0	0
3687.958	n/a	WORD	1843979	wordpools/wasnorm_wordpool_576.txt	LTP259	ltpFR2	20	14	RAZOR	1171	n/a	n/a	0	0	0
3690.76	n/a	WORD	1845380	wordpools/wasnorm_wordpool_576.txt	LTP259	ltpFR2	20	14	HEADBAND	696	n/a	n/a	0	0	0
3693.196	n/a	WORD	1846598	wordpools/wasnorm_wordpool_576.txt	LTP259	ltpFR2	20	14	SCISSORS	1250	n/a	n/a	0	0	0
3695.982	n/a	WORD	1847991	wordpools/wasnorm_wordpool_576.txt	LTP259	ltpFR2	20	14	PLATE	1086	n/a	n/a	0	0	0
3698.7	n/a	WORD	1849350	wordpools/wasnorm_wordpool_576.txt	LTP259	ltpFR2	20	14	PICNIC	1060	n/a	n/a	0	0	0
3701.402	n/a	WORD	1850701	wordpools/wasnorm_wordpool_576.txt	LTP259	ltpFR2	20	14	CEILING	265	n/a	n/a	0	0	0
3703.972	n/a	WORD	1851986	wordpools/wasnorm_wordpool_576.txt	LTP259	ltpFR2	20	14	SUBWAY	1400	n/a	n/a	0	0	0
3706.39	n/a	WORD	1853195	wordpools/wasnorm_wordpool_576.txt	LTP259	ltpFR2	20	14	LIGHTNING	820	n/a	n/a	0	0	0
3709.026	n/a	WORD	1854513	wordpools/wasnorm_wordpool_576.txt	LTP259	ltpFR2	20	14	GYMNAST	675	n/a	n/a	0	0	0
3711.46	n/a	WORD	1855730	wordpools/wasnorm_wordpool_576.txt	LTP259	ltpFR2	20	14	MESSAGE	888	n/a	n/a	0	0	0
3713.93	n/a	WORD	1856965	wordpools/wasnorm_wordpool_576.txt	LTP259	ltpFR2	20	14	CARROT	249	n/a	n/a	0	0	0
3716.664	n/a	WORD	1858332	wordpools/wasnorm_wordpool_576.txt	LTP259	ltpFR2	20	14	DRILL	497	n/a	n/a	0	0	0
3719.416	n/a	WORD	1859708	wordpools/wasnorm_wordpool_576.txt	LTP259	ltpFR2	20	14	MOP	916	n/a	n/a	0	0	0
3722.136	n/a	WORD	1861068	wordpools/wasnorm_wordpool_576.txt	LTP259	ltpFR2	20	14	PROTON	1132	n/a	n/a	0	0	0
3724.788	n/a	WORD	1862394	wordpools/wasnorm_wordpool_576.txt	LTP259	ltpFR2	20	14	DIVER	476	n/a	n/a	0	0	0
3727.322	n/a	WORD	1863661	wordpools/wasnorm_wordpool_576.txt	LTP259	ltpFR2	20	14	LAGOON	795	n/a	n/a	0	0	0
3728.926	n/a	START	1864463	n/a	LTP259	ltpFR2	20	n/a	n/a	n/a	18	n/a	n/a	n/a	n/a
3730.108	n/a	DISTRACTOR	1865054	n/a	LTP259	ltpFR2	20	14	n/a	n/a	n/a	n/a	0	0	0
3730.108	n/a	PROB	1865054	n/a	LTP259	ltpFR2	20	n/a	n/a	n/a	18	12	7	4	1
3733.51	n/a	PROB	1866755	n/a	LTP259	ltpFR2	20	n/a	n/a	n/a	18	15	5	4	6
3735.412	n/a	PROB	1867706	n/a	LTP259	ltpFR2	20	n/a	n/a	n/a	18	13	9	9	5
3738.398	n/a	PROB	1869199	n/a	LTP259	ltpFR2	20	n/a	n/a	n/a	18	13	1	4	8
3740.584	n/a	PROB	1870292	n/a	LTP259	ltpFR2	20	n/a	n/a	n/a	18	22	9	7	6
3743.418	n/a	PROB	1871709	n/a	LTP259	ltpFR2	20	n/a	n/a	n/a	18	21	6	9	6
3747.222	n/a	PROB	1873611	n/a	LTP259	ltpFR2	20	n/a	n/a	n/a	18	8	2	1	5
3749.424	n/a	PROB	1874712	n/a	LTP259	ltpFR2	20	n/a	n/a	n/a	18	18	7	9	2
3752.158	n/a	STOP	1876079	n/a	LTP259	ltpFR2	20	n/a	n/a	n/a	18	n/a	n/a	n/a	n/a
3754.846	n/a	REC_START	1877423	n/a	LTP259	ltpFR2	20	14	n/a	n/a	n/a	n/a	0	0	0
3755.472	n/a	REC_WORD	1877736	wordpools/wasnorm_wordpool_576.txt	LTP259	ltpFR2	20	14	DIVER	476	n/a	n/a	0	0	0
3756.076	n/a	REC_WORD	1878038	wordpools/wasnorm_wordpool_576.txt	LTP259	ltpFR2	20	14	LAGOON	795	n/a	n/a	0	0	0
3756.744	n/a	REC_WORD	1878372	wordpools/wasnorm_wordpool_576.txt	LTP259	ltpFR2	20	14	CARROT	249	n/a	n/a	0	0	0
3757.334	n/a	REC_WORD	1878667	wordpools/wasnorm_wordpool_576.txt	LTP259	ltpFR2	20	14	GYMNAST	675	n/a	n/a	0	0	0
3758.038	n/a	REC_WORD	1879019	wordpools/wasnorm_wordpool_576.txt	LTP259	ltpFR2	20	14	MESSAGE	888	n/a	n/a	0	0	0
3759.42	n/a	REC_WORD	1879710	wordpools/wasnorm_wordpool_576.txt	LTP259	ltpFR2	20	14	LIGHTNING	820	n/a	n/a	0	0	0
3760.462	n/a	REC_WORD	1880231	wordpools/wasnorm_wordpool_576.txt	LTP259	ltpFR2	20	14	PLATE	1086	n/a	n/a	0	0	0
3762.244	n/a	REC_WORD	1881122	wordpools/wasnorm_wordpool_576.txt	LTP259	ltpFR2	20	14	SCISSORS	1250	n/a	n/a	0	0	0
3765.488	n/a	REC_WORD	1882744	wordpools/wasnorm_wordpool_576.txt	LTP259	ltpFR2	20	14	SUBWAY	1400	n/a	n/a	0	0	0
3766.406	n/a	REC_WORD	1883203	wordpools/wasnorm_wordpool_576.txt	LTP259	ltpFR2	20	14	PICNIC	1060	n/a	n/a	0	0	0
3780.876	n/a	REC_WORD	1890438	wordpools/wasnorm_wordpool_576.txt	LTP259	ltpFR2	20	14	TAXI	1438	n/a	n/a	0	0	0
3781.884	n/a	REC_WORD	1890942	wordpools/wasnorm_wordpool_576.txt	LTP259	ltpFR2	20	14	KNIFE	785	n/a	n/a	0	0	0
3783.174	n/a	REC_WORD	1891587	wordpools/wasnorm_wordpool_576.txt	LTP259	ltpFR2	20	14	HATCHET	691	n/a	n/a	0	0	0
3788.152	n/a	REC_WORD	1894076	wordpools/wasnorm_wordpool_576.txt	LTP259	ltpFR2	20	14	MONEY	908	n/a	n/a	0	0	0
3788.888	n/a	REC_WORD	1894444	wordpools/wasnorm_wordpool_576.txt	LTP259	ltpFR2	20	14	COBRA	336	n/a	n/a	0	0	0
3792.494	n/a	REC_WORD	1896247	wordpools/wasnorm_wordpool_576.txt	LTP259	ltpFR2	20	14	RAZOR	1171	n/a	n/a	0	0	0
3794.984	n/a	REC_WORD	1897492	wordpools/wasnorm_wordpool_576.txt	LTP259	ltpFR2	20	14	TAXI	1438	n/a	n/a	0	0	0
3795.802	n/a	REC_WORD	1897901	wordpools/wasnorm_wordpool_576.txt	LTP259	ltpFR2	20	14	WAGON	1578	n/a	n/a	0	0	0
3797.206	n/a	REC_WORD	1898603	wordpools/wasnorm_wordpool_576.txt	LTP259	ltpFR2	20	14	HEADBAND	696	n/a	n/a	0	0	0
3812.47	n/a	REC_WORD	1906235	wordpools/wasnorm_wordpool_576.txt	LTP259	ltpFR2	20	14	PLUNGE	-1	n/a	n/a	0	0	0
3845.25	n/a	DISTRACTOR	1922625	n/a	LTP259	ltpFR2	20	15	n/a	n/a	n/a	n/a	0	0	0
3845.25	n/a	START	1922625	n/a	LTP259	ltpFR2	20	n/a	n/a	n/a	19	n/a	n/a	n/a	n/a
3845.266	n/a	PROB	1922633	n/a	LTP259	ltpFR2	20	n/a	n/a	n/a	19	17	7	2	8
3846.952	n/a	PROB	1923476	n/a	LTP259	ltpFR2	20	n/a	n/a	n/a	19	26	9	9	8
3850.136	n/a	PROB	1925068	n/a	LTP259	ltpFR2	20	n/a	n/a	n/a	19	11	9	1	1
3851.822	n/a	PROB	1925911	n/a	LTP259	ltpFR2	20	n/a	n/a	n/a	19	19	8	4	7
3855.624	n/a	PROB	1927812	n/a	LTP259	ltpFR2	20	n/a	n/a	n/a	19	12	4	7	1
3858.928	n/a	PROB	1929464	n/a	LTP259	ltpFR2	20	n/a	n/a	n/a	19	13	3	2	8
3860.362	n/a	PROB	1930181	n/a	LTP259	ltpFR2	20	n/a	n/a	n/a	19	13	2	9	2
3862.446	n/a	PROB	1931223	n/a	LTP259	ltpFR2	20	n/a	n/a	n/a	19	9	6	1	2
3864.048	n/a	PROB	1932024	n/a	LTP259	ltpFR2	20	n/a	n/a	n/a	19	14	9	3	2
3866.3	n/a	PROB	1933150	n/a	LTP259	ltpFR2	20	n/a	n/a	n/a	19	11	6	3	2
3868.442	n/a	STOP	1934221	n/a	LTP259	ltpFR2	20	n/a	n/a	n/a	19	n/a	n/a	n/a	n/a
3870.086	n/a	WORD	1935043	wordpools/wasnorm_wordpool_576.txt	LTP259	ltpFR2	20	15	CHAUFFEUR	283	n/a	n/a	0	0	0
3872.504	n/a	WORD	1936252	wordpools/wasnorm_wordpool_576.txt	LTP259	ltpFR2	20	15	COD	340	n/a	n/a	0	0	0
3875.058	n/a	WORD	1937529	wordpools/wasnorm_wordpool_576.txt	LTP259	ltpFR2	20	15	ROBIN	1199	n/a	n/a	0	0	0
3877.608	n/a	WORD	1938804	wordpools/wasnorm_wordpool_576.txt	LTP259	ltpFR2	20	15	CELLAR	267	n/a	n/a	0	0	0
3880.294	n/a	WORD	1940147	wordpools/wasnorm_wordpool_576.txt	LTP259	ltpFR2	20	15	GIFT	635	n/a	n/a	0	0	0
3883.046	n/a	WORD	1941523	wordpools/wasnorm_wordpool_576.txt	LTP259	ltpFR2	20	15	GRAVEL	659	n/a	n/a	0	0	0
3885.582	n/a	WORD	1942791	wordpools/wasnorm_wordpool_576.txt	LTP259	ltpFR2	20	15	COIN	343	n/a	n/a	0	0	0
3888.366	n/a	WORD	1944183	wordpools/wasnorm_wordpool_576.txt	LTP259	ltpFR2	20	15	BASEMENT	94	n/a	n/a	0	0	0
3890.802	n/a	WORD	1945401	wordpools/wasnorm_wordpool_576.txt	LTP259	ltpFR2	20	15	SALT	1229	n/a	n/a	0	0	0
3893.388	n/a	WORD	1946694	wordpools/wasnorm_wordpool_576.txt	LTP259	ltpFR2	20	15	GARLIC	624	n/a	n/a	0	0	0
3896.124	n/a	WORD	1948062	wordpools/wasnorm_wordpool_576.txt	LTP259	ltpFR2	20	15	CRAYON	401	n/a	n/a	0	0	0
3898.892	n/a	WORD	1949446	wordpools/wasnorm_wordpool_576.txt	LTP259	ltpFR2	20	15	MASK	876	n/a	n/a	0	0	0
3901.51	n/a	WORD	1950755	wordpools/wasnorm_wordpool_576.txt	LTP259	ltpFR2	20	15	LION	827	n/a	n/a	0	0	0
3904.014	n/a	WORD	1952007	wordpools/wasnorm_wordpool_576.txt	LTP259	ltpFR2	20	15	PIGMENT	1066	n/a	n/a	0	0	0
3906.782	n/a	WORD	1953391	wordpools/wasnorm_wordpool_576.txt	LTP259	ltpFR2	20	15	HOOD	714	n/a	n/a	0	0	0
3909.25	n/a	WORD	1954625	wordpools/wasnorm_wordpool_576.txt	LTP259	ltpFR2	20	15	CLOCK	325	n/a	n/a	0	0	0
3911.82	n/a	WORD	1955910	wordpools/wasnorm_wordpool_576.txt	LTP259	ltpFR2	20	15	MACHINE	852	n/a	n/a	0	0	0
3914.32	n/a	WORD	1957160	wordpools/wasnorm_wordpool_576.txt	LTP259	ltpFR2	20	15	COTTAGE	384	n/a	n/a	0	0	0
3917.106	n/a	WORD	1958553	wordpools/wasnorm_wordpool_576.txt	LTP259	ltpFR2	20	15	SCALPEL	1243	n/a	n/a	0	0	0
3919.894	n/a	WORD	1959947	wordpools/wasnorm_wordpool_576.txt	LTP259	ltpFR2	20	15	OINTMENT	974	n/a	n/a	0	0	0
3922.51	n/a	WORD	1961255	wordpools/wasnorm_wordpool_576.txt	LTP259	ltpFR2	20	15	TWEEZERS	1526	n/a	n/a	0	0	0
3924.98	n/a	WORD	1962490	wordpools/wasnorm_wordpool_576.txt	LTP259	ltpFR2	20	15	BOYFRIEND	162	n/a	n/a	0	0	0
3927.698	n/a	WORD	1963849	wordpools/wasnorm_wordpool_576.txt	LTP259	ltpFR2	20	15	GLOVE	642	n/a	n/a	0	0	0
3930.45	n/a	WORD	1965225	wordpools/wasnorm_wordpool_576.txt	LTP259	ltpFR2	20	15	FINGER	567	n/a	n/a	0	0	0
3932.052	n/a	START	1966026	n/a	LTP259	ltpFR2	20	n/a	n/a	n/a	20	n/a	n/a	n/a	n/a
3933.218	n/a	DISTRACTOR	1966609	n/a	LTP259	ltpFR2	20	15	n/a	n/a	n/a	n/a	0	0	0
3933.22	n/a	PROB	1966610	n/a	LTP259	ltpFR2	20	n/a	n/a	n/a	20	11	7	1	3
3935.204	n/a	PROB	1967602	n/a	LTP259	ltpFR2	20	n/a	n/a	n/a	20	17	6	8	3
3938.656	n/a	PROB	1969328	n/a	LTP259	ltpFR2	20	n/a	n/a	n/a	20	11	7	3	1
3939.942	n/a	PROB	1969971	n/a	LTP259	ltpFR2	20	n/a	n/a	n/a	20	9	4	2	3
3942.226	n/a	PROB	1971113	n/a	LTP259	ltpFR2	20	n/a	n/a	n/a	20	10	6	1	3
3943.896	n/a	PROB	1971948	n/a	LTP259	ltpFR2	20	n/a	n/a	n/a	20	18	7	9	2
3946.914	n/a	PROB	1973457	n/a	LTP259	ltpFR2	20	n/a	n/a	n/a	20	20	8	7	7
3949.0	n/a	PROB	1974500	n/a	LTP259	ltpFR2	20	n/a	n/a	n/a	20	7	1	4	2
3951.002	n/a	PROB	1975501	n/a	LTP259	ltpFR2	20	n/a	n/a	n/a	20	9	1	2	6
3952.418	n/a	PROB	1976209	n/a	LTP259	ltpFR2	20	n/a	n/a	n/a	20	20	5	8	7
3955.316	n/a	STOP	1977658	n/a	LTP259	ltpFR2	20	n/a	n/a	n/a	20	n/a	n/a	n/a	n/a
3957.908	n/a	REC_START	1978954	n/a	LTP259	ltpFR2	20	15	n/a	n/a	n/a	n/a	0	0	0
3958.098	n/a	REC_WORD	1979049	wordpools/wasnorm_wordpool_576.txt	LTP259	ltpFR2	20	15	TWEEZERS	1526	n/a	n/a	0	0	0
3958.83	n/a	REC_WORD	1979415	wordpools/wasnorm_wordpool_576.txt	LTP259	ltpFR2	20	15	OINTMENT	974	n/a	n/a	0	0	0
3959.594	n/a	REC_WORD	1979797	wordpools/wasnorm_wordpool_576.txt	LTP259	ltpFR2	20	15	GLOVE	642	n/a	n/a	0	0	0
3960.106	n/a	REC_WORD	1980053	wordpools/wasnorm_wordpool_576.txt	LTP259	ltpFR2	20	15	FINGER	567	n/a	n/a	0	0	0
3962.792	n/a	REC_WORD	1981396	wordpools/wasnorm_wordpool_576.txt	LTP259	ltpFR2	20	15	COTTAGE	384	n/a	n/a	0	0	0
3963.336	n/a	REC_WORD	1981668	wordpools/wasnorm_wordpool_576.txt	LTP259	ltpFR2	20	15	MACHINE	852	n/a	n/a	0	0	0
3964.028	n/a	REC_WORD	1982014	wordpools/wasnorm_wordpool_576.txt	LTP259	ltpFR2	20	15	CLOCK	325	n/a	n/a	0	0	0
3964.586	n/a	REC_WORD	1982293	wordpools/wasnorm_wordpool_576.txt	LTP259	ltpFR2	20	15	ROBIN	1199	n/a	n/a	0	0	0
3965.422	n/a	REC_WORD	1982711	wordpools/wasnorm_wordpool_576.txt	LTP259	ltpFR2	20	15	COD	340	n/a	n/a	0	0	0
3966.586	n/a	REC_WORD	1983293	wordpools/wasnorm_wordpool_576.txt	LTP259	ltpFR2	20	15	GIFT	635	n/a	n/a	0	0	0
3967.03	n/a	REC_WORD	1983515	wordpools/wasnorm_wordpool_576.txt	LTP259	ltpFR2	20	15	CHAUFFEUR	283	n/a	n/a	0	0	0
3968.802	n/a	REC_WORD	1984401	wordpools/wasnorm_wordpool_576.txt	LTP259	ltpFR2	20	15	GRAVEL	659	n/a	n/a	0	0	0
3969.422	n/a	REC_WORD	1984711	wordpools/wasnorm_wordpool_576.txt	LTP259	ltpFR2	20	15	SALT	1229	n/a	n/a	0	0	0
3970.288	n/a	REC_WORD	1985144	wordpools/wasnorm_wordpool_576.txt	LTP259	ltpFR2	20	15	CRAYON	401	n/a	n/a	0	0	0
3971.872	n/a	REC_WORD	1985936	wordpools/wasnorm_wordpool_576.txt	LTP259	ltpFR2	20	15	HOOD	714	n/a	n/a	0	0	0
3974.378	n/a	REC_WORD	1987189	wordpools/wasnorm_wordpool_576.txt	LTP259	ltpFR2	20	15	CELLAR	267	n/a	n/a	0	0	0
3975.212	n/a	REC_WORD	1987606	wordpools/wasnorm_wordpool_576.txt	LTP259	ltpFR2	20	15	BASEMENT	94	n/a	n/a	0	0	0
3990.726	n/a	REC_WORD	1995363	wordpools/wasnorm_wordpool_576.txt	LTP259	ltpFR2	20	15	CHEF	290	n/a	n/a	0	0	0
3991.494	n/a	REC_WORD	1995747	wordpools/wasnorm_wordpool_576.txt	LTP259	ltpFR2	20	15	COOK	372	n/a	n/a	0	0	0
3998.186	n/a	REC_WORD	1999093	wordpools/wasnorm_wordpool_576.txt	LTP259	ltpFR2	20	15	BOYFRIEND	162	n/a	n/a	0	0	0
4016.694	n/a	REC_WORD	2008347	wordpools/wasnorm_wordpool_576.txt	LTP259	ltpFR2	20	15	LION	827	n/a	n/a	0	0	0
4017.416	n/a	REC_WORD	2008708	wordpools/wasnorm_wordpool_576.txt	LTP259	ltpFR2	20	15	MASK	876	n/a	n/a	0	0	0
4019.134	n/a	REC_WORD	2009567	wordpools/wasnorm_wordpool_576.txt	LTP259	ltpFR2	20	15	LION	827	n/a	n/a	0	0	0
4048.31	n/a	DISTRACTOR	2024155	n/a	LTP259	ltpFR2	20	16	n/a	n/a	n/a	n/a	0	0	0
4048.31	n/a	START	2024155	n/a	LTP259	ltpFR2	20	n/a	n/a	n/a	21	n/a	n/a	n/a	n/a
4048.326	n/a	PROB	2024163	n/a	LTP259	ltpFR2	20	n/a	n/a	n/a	21	12	4	3	5
4050.496	n/a	PROB	2025248	n/a	LTP259	ltpFR2	20	n/a	n/a	n/a	21	12	9	2	1
4051.948	n/a	PROB	2025974	n/a	LTP259	ltpFR2	20	n/a	n/a	n/a	21	10	2	6	2
4055.984	n/a	PROB	2027992	n/a	LTP259	ltpFR2	20	n/a	n/a	n/a	21	14	5	7	2
4058.418	n/a	PROB	2029209	n/a	LTP259	ltpFR2	20	n/a	n/a	n/a	21	17	8	1	8
4059.82	n/a	PROB	2029910	n/a	LTP259	ltpFR2	20	n/a	n/a	n/a	21	19	6	9	4
4061.538	n/a	PROB	2030769	n/a	LTP259	ltpFR2	20	n/a	n/a	n/a	21	17	2	9	6
4063.406	n/a	PROB	2031703	n/a	LTP259	ltpFR2	20	n/a	n/a	n/a	21	12	7	4	1
4065.19	n/a	PROB	2032595	n/a	LTP259	ltpFR2	20	n/a	n/a	n/a	21	18	6	6	6
4066.524	n/a	PROB	2033262	n/a	LTP259	ltpFR2	20	n/a	n/a	n/a	21	25	6	9	9
4070.412	n/a	PROB	2035206	n/a	LTP259	ltpFR2	20	n/a	n/a	n/a	21	10	2	4	4
4072.168	n/a	STOP	2036084	n/a	LTP259	ltpFR2	20	n/a	n/a	n/a	21	n/a	n/a	n/a	n/a
4073.264	n/a	WORD	2036632	wordpools/wasnorm_wordpool_576.txt	LTP259	ltpFR2	20	16	SKILLET	1317	n/a	n/a	0	0	0
4075.698	n/a	WORD	2037849	wordpools/wasnorm_wordpool_576.txt	LTP259	ltpFR2	20	16	APRON	35	n/a	n/a	0	0	0
4078.118	n/a	WORD	2039059	wordpools/wasnorm_wordpool_576.txt	LTP259	ltpFR2	20	16	CRAB	397	n/a	n/a	0	0	0
4080.77	n/a	WORD	2040385	wordpools/wasnorm_wordpool_576.txt	LTP259	ltpFR2	20	16	JELLO	754	n/a	n/a	0	0	0
4083.272	n/a	WORD	2041636	wordpools/wasnorm_wordpool_576.txt	LTP259	ltpFR2	20	16	FLEET	578	n/a	n/a	0	0	0
4085.974	n/a	WORD	2042987	wordpools/wasnorm_wordpool_576.txt	LTP259	ltpFR2	20	16	FUNGUS	614	n/a	n/a	0	0	0
4088.392	n/a	WORD	2044196	wordpools/wasnorm_wordpool_576.txt	LTP259	ltpFR2	20	16	PANTHER	1009	n/a	n/a	0	0	0
4091.144	n/a	WORD	2045572	wordpools/wasnorm_wordpool_576.txt	LTP259	ltpFR2	20	16	PAIL	1002	n/a	n/a	0	0	0
4093.898	n/a	WORD	2046949	wordpools/wasnorm_wordpool_576.txt	LTP259	ltpFR2	20	16	ORCHID	982	n/a	n/a	0	0	0
4096.366	n/a	WORD	2048183	wordpools/wasnorm_wordpool_576.txt	LTP259	ltpFR2	20	16	PADDING	999	n/a	n/a	0	0	0
4099.15	n/a	WORD	2049575	wordpools/wasnorm_wordpool_576.txt	LTP259	ltpFR2	20	16	BUBBLE	183	n/a	n/a	0	0	0
4101.854	n/a	WORD	2050927	wordpools/wasnorm_wordpool_576.txt	LTP259	ltpFR2	20	16	BLADE	134	n/a	n/a	0	0	0
4104.538	n/a	WORD	2052269	wordpools/wasnorm_wordpool_576.txt	LTP259	ltpFR2	20	16	COUSIN	392	n/a	n/a	0	0	0
4106.992	n/a	WORD	2053496	wordpools/wasnorm_wordpool_576.txt	LTP259	ltpFR2	20	16	THRONE	1461	n/a	n/a	0	0	0
4109.692	n/a	WORD	2054846	wordpools/wasnorm_wordpool_576.txt	LTP259	ltpFR2	20	16	COLONEL	348	n/a	n/a	0	0	0
4112.244	n/a	WORD	2056122	wordpools/wasnorm_wordpool_576.txt	LTP259	ltpFR2	20	16	BRANCH	168	n/a	n/a	0	0	0
4114.714	n/a	WORD	2057357	wordpools/wasnorm_wordpool_576.txt	LTP259	ltpFR2	20	16	FOREST	593	n/a	n/a	0	0	0
4117.398	n/a	WORD	2058699	wordpools/wasnorm_wordpool_576.txt	LTP259	ltpFR2	20	16	GROUND	666	n/a	n/a	0	0	0
4119.834	n/a	WORD	2059917	wordpools/wasnorm_wordpool_576.txt	LTP259	ltpFR2	20	16	VENUS	1557	n/a	n/a	0	0	0
4122.32	n/a	WORD	2061160	wordpools/wasnorm_wordpool_576.txt	LTP259	ltpFR2	20	16	SEAGULL	1261	n/a	n/a	0	0	0
4124.806	n/a	WORD	2062403	wordpools/wasnorm_wordpool_576.txt	LTP259	ltpFR2	20	16	POSSUM	1112	n/a	n/a	0	0	0
4127.474	n/a	WORD	2063737	wordpools/wasnorm_wordpool_576.txt	LTP259	ltpFR2	20	16	POISON	1096	n/a	n/a	0	0	0
4130.276	n/a	WORD	2065138	wordpools/wasnorm_wordpool_576.txt	LTP259	ltpFR2	20	16	LONDON	843	n/a	n/a	0	0	0
4133.046	n/a	WORD	2066523	wordpools/wasnorm_wordpool_576.txt	LTP259	ltpFR2	20	16	GRIZZLY	662	n/a	n/a	0	0	0
4134.646	n/a	START	2067323	n/a	LTP259	ltpFR2	20	n/a	n/a	n/a	22	n/a	n/a	n/a	n/a
4135.58	n/a	DISTRACTOR	2067790	n/a	LTP259	ltpFR2	20	16	n/a	n/a	n/a	n/a	0	0	0
4135.596	n/a	PROB	2067798	n/a	LTP259	ltpFR2	20	n/a	n/a	n/a	22	11	7	1	3
4137.598	n/a	PROB	2068799	n/a	LTP259	ltpFR2	20	n/a	n/a	n/a	22	6	2	3	1
4139.868	n/a	PROB	2069934	n/a	LTP259	ltpFR2	20	n/a	n/a	n/a	22	16	6	2	8
4141.318	n/a	PROB	2070659	n/a	LTP259	ltpFR2	20	n/a	n/a	n/a	22	18	8	7	3
4143.386	n/a	PROB	2071693	n/a	LTP259	ltpFR2	20	n/a	n/a	n/a	22	16	3	9	4
4146.306	n/a	PROB	2073153	n/a	LTP259	ltpFR2	20	n/a	n/a	n/a	22	9	1	2	6
4148.008	n/a	PROB	2074004	n/a	LTP259	ltpFR2	20	n/a	n/a	n/a	22	14	4	4	6
4149.608	n/a	PROB	2074804	n/a	LTP259	ltpFR2	20	n/a	n/a	n/a	22	10	2	4	4
4151.142	n/a	PROB	2075571	n/a	LTP259	ltpFR2	20	n/a	n/a	n/a	22	17	8	7	2
4152.71	n/a	PROB	2076355	n/a	LTP259	ltpFR2	20	n/a	n/a	n/a	22	22	9	8	5
4155.83	n/a	PROB	2077915	n/a	LTP259	ltpFR2	20	n/a	n/a	n/a	22	14	6	1	7
4157.706	n/a	STOP	2078853	n/a	LTP259	ltpFR2	20	n/a	n/a	n/a	22	n/a	n/a	n/a	n/a
4160.55	n/a	REC_START	2080275	n/a	LTP259	ltpFR2	20	16	n/a	n/a	n/a	n/a	0	0	0
4161.24	n/a	REC_WORD	2080620	wordpools/wasnorm_wordpool_576.txt	LTP259	ltpFR2	20	16	POISON	1096	n/a	n/a	0	0	0
4162.156	n/a	REC_WORD	2081078	wordpools/wasnorm_wordpool_576.txt	LTP259	ltpFR2	20	16	LONDON	843	n/a	n/a	0	0	0
4163.016	n/a	REC_WORD	2081508	wordpools/wasnorm_wordpool_576.txt	LTP259	ltpFR2	20	16	GRIZZLY	662	n/a	n/a	0	0	0
4169.55	n/a	REC_WORD	2084775	wordpools/wasnorm_wordpool_576.txt	LTP259	ltpFR2	20	16	VENUS	1557	n/a	n/a	0	0	0
4173.818	n/a	REC_WORD	2086909	wordpools/wasnorm_wordpool_576.txt	LTP259	ltpFR2	20	16	SKILLET	1317	n/a	n/a	0	0	0
4175.28	n/a	REC_WORD	2087640	wordpools/wasnorm_wordpool_576.txt	LTP259	ltpFR2	20	16	PAIL	1002	n/a	n/a	0	0	0
4176.56	n/a	REC_WORD	2088280	wordpools/wasnorm_wordpool_576.txt	LTP259	ltpFR2	20	16	PANTHER	1009	n/a	n/a	0	0	0
4177.53	n/a	REC_WORD_VV	2088765	wordpools/wasnorm_wordpool_576.txt	LTP259	ltpFR2	20	16	<>	-1	n/a	n/a	0	0	0
4177.932	n/a	REC_WORD	2088966	wordpools/wasnorm_wordpool_576.txt	LTP259	ltpFR2	20	16	CRAB	397	n/a	n/a	0	0	0
4179.368	n/a	REC_WORD	2089684	wordpools/wasnorm_wordpool_576.txt	LTP259	ltpFR2	20	16	FUNGUS	614	n/a	n/a	0	0	0
4184.614	n/a	REC_WORD	2092307	wordpools/wasnorm_wordpool_576.txt	LTP259	ltpFR2	20	16	FOREST	593	n/a	n/a	0	0	0
4186.416	n/a	REC_WORD	2093208	wordpools/wasnorm_wordpool_576.txt	LTP259	ltpFR2	20	16	FLOOR	581	n/a	n/a	0	0	0
4188.118	n/a	REC_WORD	2094059	wordpools/wasnorm_wordpool_576.txt	LTP259	ltpFR2	20	16	THRONE	1461	n/a	n/a	0	0	0
4189.906	n/a	REC_WORD	2094953	wordpools/wasnorm_wordpool_576.txt	LTP259	ltpFR2	20	16	WOOD	-1	n/a	n/a	0	0	0
4190.6	n/a	REC_WORD	2095300	wordpools/wasnorm_wordpool_576.txt	LTP259	ltpFR2	20	16	BRANCH	168	n/a	n/a	0	0	0
4202.762	n/a	REC_WORD	2101381	wordpools/wasnorm_wordpool_576.txt	LTP259	ltpFR2	20	16	WINDOW	1611	n/a	n/a	0	0	0
4203.374	n/a	REC_WORD	2101687	wordpools/wasnorm_wordpool_576.txt	LTP259	ltpFR2	20	16	ORCHID	982	n/a	n/a	0	0	0
4214.176	n/a	REC_WORD	2107088	wordpools/wasnorm_wordpool_576.txt	LTP259	ltpFR2	20	16	FLEET	578	n/a	n/a	0	0	0
4220.27	n/a	REC_WORD	2110135	wordpools/wasnorm_wordpool_576.txt	LTP259	ltpFR2	20	16	APRON	35	n/a	n/a	0	0	0
4237.076	n/a	REST_REWET	2118538	n/a	LTP259	ltpFR2	20	16	n/a	n/a	n/a	n/a	0	0	0
4628.804	n/a	WORD	2314402	wordpools/wasnorm_wordpool_576.txt	LTP259	ltpFR2	20	17	SNAKE	1333	n/a	n/a	0	0	0
4631.44	n/a	WORD	2315720	wordpools/wasnorm_wordpool_576.txt	LTP259	ltpFR2	20	17	CHURCH	307	n/a	n/a	0	0	0
4634.042	n/a	WORD	2317021	wordpools/wasnorm_wordpool_576.txt	LTP259	ltpFR2	20	17	TURKEY	1520	n/a	n/a	0	0	0
4636.644	n/a	WORD	2318322	wordpools/wasnorm_wordpool_576.txt	LTP259	ltpFR2	20	17	THIEF	1456	n/a	n/a	0	0	0
4639.112	n/a	WORD	2319556	wordpools/wasnorm_wordpool_576.txt	LTP259	ltpFR2	20	17	POWDER	1117	n/a	n/a	0	0	0
4641.73	n/a	WORD	2320865	wordpools/wasnorm_wordpool_576.txt	LTP259	ltpFR2	20	17	SLIDE	1326	n/a	n/a	0	0	0
4644.316	n/a	WORD	2322158	wordpools/wasnorm_wordpool_576.txt	LTP259	ltpFR2	20	17	KETCHUP	771	n/a	n/a	0	0	0
4646.886	n/a	WORD	2323443	wordpools/wasnorm_wordpool_576.txt	LTP259	ltpFR2	20	17	SALAD	1224	n/a	n/a	0	0	0
4649.554	n/a	WORD	2324777	wordpools/wasnorm_wordpool_576.txt	LTP259	ltpFR2	20	17	FRIAR	605	n/a	n/a	0	0	0
4652.156	n/a	WORD	2326078	wordpools/wasnorm_wordpool_576.txt	LTP259	ltpFR2	20	17	DONKEY	484	n/a	n/a	0	0	0
4654.758	n/a	WORD	2327379	wordpools/wasnorm_wordpool_576.txt	LTP259	ltpFR2	20	17	REPORT	1184	n/a	n/a	0	0	0
4657.51	n/a	WORD	2328755	wordpools/wasnorm_wordpool_576.txt	LTP259	ltpFR2	20	17	BALLOON	75	n/a	n/a	0	0	0
4660.014	n/a	WORD	2330007	wordpools/wasnorm_wordpool_576.txt	LTP259	ltpFR2	20	17	PRIMATE	1123	n/a	n/a	0	0	0
4662.782	n/a	WORD	2331391	wordpools/wasnorm_wordpool_576.txt	LTP259	ltpFR2	20	17	CRATER	400	n/a	n/a	0	0	0
4665.3	n/a	WORD	2332650	wordpools/wasnorm_wordpool_576.txt	LTP259	ltpFR2	20	17	PERMIT	1051	n/a	n/a	0	0	0
4668.086	n/a	WORD	2334043	wordpools/wasnorm_wordpool_576.txt	LTP259	ltpFR2	20	17	SHELTER	1282	n/a	n/a	0	0	0
4670.806	n/a	WORD	2335403	wordpools/wasnorm_wordpool_576.txt	LTP259	ltpFR2	20	17	KEEPER	769	n/a	n/a	0	0	0
4673.606	n/a	WORD	2336803	wordpools/wasnorm_wordpool_576.txt	LTP259	ltpFR2	20	17	SHARK	1275	n/a	n/a	0	0	0
4676.108	n/a	WORD	2338054	wordpools/wasnorm_wordpool_576.txt	LTP259	ltpFR2	20	17	TROUT	1511	n/a	n/a	0	0	0
4678.76	n/a	WORD	2339380	wordpools/wasnorm_wordpool_576.txt	LTP259	ltpFR2	20	17	ROOSTER	1209	n/a	n/a	0	0	0
4681.444	n/a	WORD	2340722	wordpools/wasnorm_wordpool_576.txt	LTP259	ltpFR2	20	17	DUST	508	n/a	n/a	0	0	0
4684.098	n/a	WORD	2342049	wordpools/wasnorm_wordpool_576.txt	LTP259	ltpFR2	20	17	PRINCE	1124	n/a	n/a	0	0	0
4686.532	n/a	WORD	2343266	wordpools/wasnorm_wordpool_576.txt	LTP259	ltpFR2	20	17	LUGGAGE	847	n/a	n/a	0	0	0
4689.118	n/a	WORD	2344559	wordpools/wasnorm_wordpool_576.txt	LTP259	ltpFR2	20	17	YOLK	1633	n/a	n/a	0	0	0
4690.72	n/a	START	2345360	n/a	LTP259	ltpFR2	20	n/a	n/a	n/a	23	n/a	n/a	n/a	n/a
4691.684	n/a	DISTRACTOR	2345842	n/a	LTP259	ltpFR2	20	17	n/a	n/a	n/a	n/a	0	0	0
4691.686	n/a	PROB	2345843	n/a	LTP259	ltpFR2	20	n/a	n/a	n/a	23	20	9	7	4
4694.056	n/a	PROB	2347028	n/a	LTP259	ltpFR2	20	n/a	n/a	n/a	23	22	8	7	7
4696.374	n/a	PROB	2348187	n/a	LTP259	ltpFR2	20	n/a	n/a	n/a	23	14	1	6	7
4698.91	n/a	PROB	2349455	n/a	LTP259	ltpFR2	20	n/a	n/a	n/a	23	7	1	3	3
4700.16	n/a	PROB	2350080	n/a	LTP259	ltpFR2	20	n/a	n/a	n/a	23	23	9	7	7
4703.762	n/a	PROB	2351881	n/a	LTP259	ltpFR2	20	n/a	n/a	n/a	23	9	1	7	1
4705.248	n/a	PROB	2352624	n/a	LTP259	ltpFR2	20	n/a	n/a	n/a	23	16	4	8	4
4707.316	n/a	PROB	2353658	n/a	LTP259	ltpFR2	20	n/a	n/a	n/a	23	15	1	5	9
4708.968	n/a	PROB	2354484	n/a	LTP259	ltpFR2	20	n/a	n/a	n/a	23	14	3	9	2
