onset	duration	trial_type	sample	stim_file	subject	experiment	session	trial	item_name	item_num	list	answer	test_x	test_y	test_z
336.30712890625	n/a	SESS_START	688757	n/a	LTP352	ltpFR2	0	n/a	n/a	n/a	n/a	n/a	0	0	0
478.1923828125	n/a	START	979338	n/a	LTP352	ltpFR2	0	n/a	n/a	n/a	-1	n/a	n/a	n/a	n/a
478.22265625	n/a	PROB	979400	n/a	LTP352	ltpFR2	0	n/a	n/a	n/a	-1	9	1	5	3
481.404296875	n/a	PROB	985916	n/a	LTP352	ltpFR2	0	n/a	n/a	n/a	-1	17	5	8	4
485.38525390625	n/a	PROB	994069	n/a	LTP352	ltpFR2	0	n/a	n/a	n/a	-1	18	7	6	5
489.1953125	n/a	STOP	1001872	n/a	LTP352	ltpFR2	0	n/a	n/a	n/a	-1	n/a	n/a	n/a	n/a
608.64306640625	n/a	WORD	1246501	wordpools/wasnorm_wordpool_576.txt	LTP352	ltpFR2	0	1	WHISTLE	1606	n/a	n/a	0	0	0
611.4248046875	n/a	WORD	1252198	wordpools/wasnorm_wordpool_576.txt	LTP352	ltpFR2	0	1	DRIVER	499	n/a	n/a	0	0	0
614.24072265625	n/a	WORD	1257965	wordpools/wasnorm_wordpool_576.txt	LTP352	ltpFR2	0	1	BOUQUET	157	n/a	n/a	0	0	0
616.97265625	n/a	WORD	1263560	wordpools/wasnorm_wordpool_576.txt	LTP352	ltpFR2	0	1	LUNCH	849	n/a	n/a	0	0	0
619.720703125	n/a	WORD	1269188	wordpools/wasnorm_wordpool_576.txt	LTP352	ltpFR2	0	1	PIZZA	1079	n/a	n/a	0	0	0
622.40283203125	n/a	WORD	1274681	wordpools/wasnorm_wordpool_576.txt	LTP352	ltpFR2	0	1	NIGHTGOWN	953	n/a	n/a	0	0	0
624.935546875	n/a	WORD	1279868	wordpools/wasnorm_wordpool_576.txt	LTP352	ltpFR2	0	1	RATTLE	1170	n/a	n/a	0	0	0
627.41748046875	n/a	WORD	1284951	wordpools/wasnorm_wordpool_576.txt	LTP352	ltpFR2	0	1	TWISTER	1530	n/a	n/a	0	0	0
630.0166015625	n/a	WORD	1290274	wordpools/wasnorm_wordpool_576.txt	LTP352	ltpFR2	0	1	GAZELLE	628	n/a	n/a	0	0	0
632.4814453125	n/a	WORD	1295322	wordpools/wasnorm_wordpool_576.txt	LTP352	ltpFR2	0	1	BANQUET	86	n/a	n/a	0	0	0
634.947265625	n/a	WORD	1300372	wordpools/wasnorm_wordpool_576.txt	LTP352	ltpFR2	0	1	FRECKLE	602	n/a	n/a	0	0	0
637.71240234375	n/a	WORD	1306035	wordpools/wasnorm_wordpool_576.txt	LTP352	ltpFR2	0	1	SNACK	1331	n/a	n/a	0	0	0
640.1611328125	n/a	WORD	1311050	wordpools/wasnorm_wordpool_576.txt	LTP352	ltpFR2	0	1	FLEET	578	n/a	n/a	0	0	0
642.7099609375	n/a	WORD	1316270	wordpools/wasnorm_wordpool_576.txt	LTP352	ltpFR2	0	1	MARKER	870	n/a	n/a	0	0	0
645.22607421875	n/a	WORD	1321423	wordpools/wasnorm_wordpool_576.txt	LTP352	ltpFR2	0	1	THRONE	1461	n/a	n/a	0	0	0
648.05908203125	n/a	WORD	1327225	wordpools/wasnorm_wordpool_576.txt	LTP352	ltpFR2	0	1	VIKING	1565	n/a	n/a	0	0	0
650.755859375	n/a	WORD	1332748	wordpools/wasnorm_wordpool_576.txt	LTP352	ltpFR2	0	1	QUEEN	1149	n/a	n/a	0	0	0
653.40478515625	n/a	WORD	1338173	wordpools/wasnorm_wordpool_576.txt	LTP352	ltpFR2	0	1	PRINCESS	1125	n/a	n/a	0	0	0
655.8369140625	n/a	WORD	1343154	wordpools/wasnorm_wordpool_576.txt	LTP352	ltpFR2	0	1	NEUTRON	947	n/a	n/a	0	0	0
658.36962890625	n/a	WORD	1348341	wordpools/wasnorm_wordpool_576.txt	LTP352	ltpFR2	0	1	ATOM	55	n/a	n/a	0	0	0
661.052734375	n/a	WORD	1353836	wordpools/wasnorm_wordpool_576.txt	LTP352	ltpFR2	0	1	HELMET	702	n/a	n/a	0	0	0
663.55029296875	n/a	WORD	1358951	wordpools/wasnorm_wordpool_576.txt	LTP352	ltpFR2	0	1	HOOD	714	n/a	n/a	0	0	0
666.3154296875	n/a	WORD	1364614	wordpools/wasnorm_wordpool_576.txt	LTP352	ltpFR2	0	1	SCARECROW	1245	n/a	n/a	0	0	0
669.1142578125	n/a	WORD	1370346	wordpools/wasnorm_wordpool_576.txt	LTP352	ltpFR2	0	1	BEAVER	109	n/a	n/a	0	0	0
670.73046875	n/a	START	1373656	n/a	LTP352	ltpFR2	0	n/a	n/a	n/a	1	n/a	n/a	n/a	n/a
671.7353515625	n/a	DISTRACTOR	1375714	n/a	LTP352	ltpFR2	0	1	n/a	n/a	n/a	n/a	0	0	0
671.74609375	n/a	PROB	1375736	n/a	LTP352	ltpFR2	0	n/a	n/a	n/a	1	13	5	3	5
674.62841796875	n/a	PROB	1381639	n/a	LTP352	ltpFR2	0	n/a	n/a	n/a	1	16	4	7	5
678.1103515625	n/a	PROB	1388770	n/a	LTP352	ltpFR2	0	n/a	n/a	n/a	1	19	6	5	8
683.70703125	n/a	PROB	1400232	n/a	LTP352	ltpFR2	0	n/a	n/a	n/a	1	11	6	4	1
685.7060546875	n/a	PROB	1404326	n/a	LTP352	ltpFR2	0	n/a	n/a	n/a	1	7	1	2	4
687.85498046875	n/a	PROB	1408727	n/a	LTP352	ltpFR2	0	n/a	n/a	n/a	1	23	5	9	7
691.5869140625	n/a	PROB	1416370	n/a	LTP352	ltpFR2	0	n/a	n/a	n/a	1	21	7	5	9
694.70751953125	n/a	STOP	1422761	n/a	LTP352	ltpFR2	0	n/a	n/a	n/a	1	n/a	n/a	n/a	n/a
696.66748046875	n/a	REC_START	1426775	n/a	LTP352	ltpFR2	0	1	n/a	n/a	n/a	n/a	0	0	0
700.16552734375	n/a	REC_WORD	1433939	wordpools/wasnorm_wordpool_576.txt	LTP352	ltpFR2	0	1	GAZELLE	628	n/a	n/a	0	0	0
701.28759765625	n/a	REC_WORD	1436237	wordpools/wasnorm_wordpool_576.txt	LTP352	ltpFR2	0	1	ATOM	55	n/a	n/a	0	0	0
702.55859375	n/a	REC_WORD	1438840	wordpools/wasnorm_wordpool_576.txt	LTP352	ltpFR2	0	1	NEUTRON	947	n/a	n/a	0	0	0
704.58544921875	n/a	REC_WORD	1442991	wordpools/wasnorm_wordpool_576.txt	LTP352	ltpFR2	0	1	DRIVER	499	n/a	n/a	0	0	0
705.91015625	n/a	REC_WORD	1445704	wordpools/wasnorm_wordpool_576.txt	LTP352	ltpFR2	0	1	PIZZA	1079	n/a	n/a	0	0	0
707.72119140625	n/a	REC_WORD	1449413	wordpools/wasnorm_wordpool_576.txt	LTP352	ltpFR2	0	1	LUNCH	849	n/a	n/a	0	0	0
709.58837890625	n/a	REC_WORD	1453237	wordpools/wasnorm_wordpool_576.txt	LTP352	ltpFR2	0	1	SCARECROW	1245	n/a	n/a	0	0	0
714.55419921875	n/a	REC_WORD	1463407	wordpools/wasnorm_wordpool_576.txt	LTP352	ltpFR2	0	1	NIGHTGOWN	953	n/a	n/a	0	0	0
725.8857421875	n/a	REC_WORD	1486614	wordpools/wasnorm_wordpool_576.txt	LTP352	ltpFR2	0	1	RATTLE	1170	n/a	n/a	0	0	0
728.4189453125	n/a	REC_WORD	1491802	wordpools/wasnorm_wordpool_576.txt	LTP352	ltpFR2	0	1	TWISTER	1530	n/a	n/a	0	0	0
736.04248046875	n/a	REC_WORD	1507415	wordpools/wasnorm_wordpool_576.txt	LTP352	ltpFR2	0	1	FLEET	578	n/a	n/a	0	0	0
819.92529296875	n/a	DISTRACTOR	1679207	n/a	LTP352	ltpFR2	0	2	n/a	n/a	n/a	n/a	0	0	0
819.92529296875	n/a	START	1679207	n/a	LTP352	ltpFR2	0	n/a	n/a	n/a	2	n/a	n/a	n/a	n/a
819.94140625	n/a	PROB	1679240	n/a	LTP352	ltpFR2	0	n/a	n/a	n/a	2	16	5	9	1
823.7890625	n/a	PROB	1687120	n/a	LTP352	ltpFR2	0	n/a	n/a	n/a	2	12	6	5	1
826.75537109375	n/a	PROB	1693195	n/a	LTP352	ltpFR2	0	n/a	n/a	n/a	2	12	4	6	2
828.37109375	n/a	PROB	1696504	n/a	LTP352	ltpFR2	0	n/a	n/a	n/a	2	21	9	5	7
831.23583984375	n/a	PROB	1702371	n/a	LTP352	ltpFR2	0	n/a	n/a	n/a	2	18	6	9	3
833.66796875	n/a	PROB	1707352	n/a	LTP352	ltpFR2	0	n/a	n/a	n/a	2	12	7	1	5
835.41796875	n/a	PROB	1710936	n/a	LTP352	ltpFR2	0	n/a	n/a	n/a	2	19	8	3	8
839.44873046875	n/a	PROB	1719191	n/a	LTP352	ltpFR2	0	n/a	n/a	n/a	2	12	2	8	2
841.1318359375	n/a	PROB	1722638	n/a	LTP352	ltpFR2	0	n/a	n/a	n/a	2	14	9	2	3
843.396484375	n/a	STOP	1727276	n/a	LTP352	ltpFR2	0	n/a	n/a	n/a	2	n/a	n/a	n/a	n/a
845.095703125	n/a	WORD	1730756	wordpools/wasnorm_wordpool_576.txt	LTP352	ltpFR2	0	2	WAITER	1580	n/a	n/a	0	0	0
847.64453125	n/a	WORD	1735976	wordpools/wasnorm_wordpool_576.txt	LTP352	ltpFR2	0	2	ARMY	39	n/a	n/a	0	0	0
850.3603515625	n/a	WORD	1741538	wordpools/wasnorm_wordpool_576.txt	LTP352	ltpFR2	0	2	FOOT	590	n/a	n/a	0	0	0
852.8251953125	n/a	WORD	1746586	wordpools/wasnorm_wordpool_576.txt	LTP352	ltpFR2	0	2	CLIMBER	323	n/a	n/a	0	0	0
855.37451171875	n/a	WORD	1751807	wordpools/wasnorm_wordpool_576.txt	LTP352	ltpFR2	0	2	POLICE	1098	n/a	n/a	0	0	0
857.84033203125	n/a	WORD	1756857	wordpools/wasnorm_wordpool_576.txt	LTP352	ltpFR2	0	2	SUITCASE	1403	n/a	n/a	0	0	0
860.2724609375	n/a	WORD	1761838	wordpools/wasnorm_wordpool_576.txt	LTP352	ltpFR2	0	2	TURTLE	1522	n/a	n/a	0	0	0
863.08740234375	n/a	WORD	1767603	wordpools/wasnorm_wordpool_576.txt	LTP352	ltpFR2	0	2	CLAM	315	n/a	n/a	0	0	0
865.88623046875	n/a	WORD	1773335	wordpools/wasnorm_wordpool_576.txt	LTP352	ltpFR2	0	2	BRICK	172	n/a	n/a	0	0	0
868.3349609375	n/a	WORD	1778350	wordpools/wasnorm_wordpool_576.txt	LTP352	ltpFR2	0	2	TEACHER	1440	n/a	n/a	0	0	0
870.966796875	n/a	WORD	1783740	wordpools/wasnorm_wordpool_576.txt	LTP352	ltpFR2	0	2	BROOK	177	n/a	n/a	0	0	0
873.4658203125	n/a	WORD	1788858	wordpools/wasnorm_wordpool_576.txt	LTP352	ltpFR2	0	2	GLASS	639	n/a	n/a	0	0	0
876.1806640625	n/a	WORD	1794418	wordpools/wasnorm_wordpool_576.txt	LTP352	ltpFR2	0	2	ZIPPER	1636	n/a	n/a	0	0	0
878.66357421875	n/a	WORD	1799503	wordpools/wasnorm_wordpool_576.txt	LTP352	ltpFR2	0	2	SHORTS	1293	n/a	n/a	0	0	0
881.44580078125	n/a	WORD	1805201	wordpools/wasnorm_wordpool_576.txt	LTP352	ltpFR2	0	2	SUPPER	1411	n/a	n/a	0	0	0
883.91064453125	n/a	WORD	1810249	wordpools/wasnorm_wordpool_576.txt	LTP352	ltpFR2	0	2	RECEIPT	1173	n/a	n/a	0	0	0
886.57666015625	n/a	WORD	1815709	wordpools/wasnorm_wordpool_576.txt	LTP352	ltpFR2	0	2	SHARK	1275	n/a	n/a	0	0	0
889.19140625	n/a	WORD	1821064	wordpools/wasnorm_wordpool_576.txt	LTP352	ltpFR2	0	2	MASK	876	n/a	n/a	0	0	0
891.95654296875	n/a	WORD	1826727	wordpools/wasnorm_wordpool_576.txt	LTP352	ltpFR2	0	2	CLOTHES	327	n/a	n/a	0	0	0
894.689453125	n/a	WORD	1832324	wordpools/wasnorm_wordpool_576.txt	LTP352	ltpFR2	0	2	BLOUSE	139	n/a	n/a	0	0	0
897.43701171875	n/a	WORD	1837951	wordpools/wasnorm_wordpool_576.txt	LTP352	ltpFR2	0	2	WORLD	1622	n/a	n/a	0	0	0
899.8701171875	n/a	WORD	1842934	wordpools/wasnorm_wordpool_576.txt	LTP352	ltpFR2	0	2	SPOON	1357	n/a	n/a	0	0	0
902.51806640625	n/a	WORD	1848357	wordpools/wasnorm_wordpool_576.txt	LTP352	ltpFR2	0	2	GRILL	661	n/a	n/a	0	0	0
905.0009765625	n/a	WORD	1853442	wordpools/wasnorm_wordpool_576.txt	LTP352	ltpFR2	0	2	COTTAGE	384	n/a	n/a	0	0	0
906.6171875	n/a	START	1856752	n/a	LTP352	ltpFR2	0	n/a	n/a	n/a	3	n/a	n/a	n/a	n/a
907.63720703125	n/a	DISTRACTOR	1858841	n/a	LTP352	ltpFR2	0	2	n/a	n/a	n/a	n/a	0	0	0
907.64892578125	n/a	PROB	1858865	n/a	LTP352	ltpFR2	0	n/a	n/a	n/a	3	14	5	5	4
909.44873046875	n/a	PROB	1862551	n/a	LTP352	ltpFR2	0	n/a	n/a	n/a	3	17	8	4	5
912.2138671875	n/a	PROB	1868214	n/a	LTP352	ltpFR2	0	n/a	n/a	n/a	3	16	6	7	3
916.7119140625	n/a	PROB	1877426	n/a	LTP352	ltpFR2	0	n/a	n/a	n/a	3	21	7	5	9
918.810546875	n/a	PROB	1881724	n/a	LTP352	ltpFR2	0	n/a	n/a	n/a	3	17	2	8	7
920.4765625	n/a	PROB	1885136	n/a	LTP352	ltpFR2	0	n/a	n/a	n/a	3	13	5	1	7
922.62548828125	n/a	PROB	1889537	n/a	LTP352	ltpFR2	0	n/a	n/a	n/a	3	21	9	8	4
925.57470703125	n/a	PROB	1895577	n/a	LTP352	ltpFR2	0	n/a	n/a	n/a	3	17	7	9	1
927.75634765625	n/a	PROB	1900045	n/a	LTP352	ltpFR2	0	n/a	n/a	n/a	3	16	4	9	3
930.0302734375	n/a	STOP	1904702	n/a	LTP352	ltpFR2	0	n/a	n/a	n/a	3	n/a	n/a	n/a	n/a
932.38818359375	n/a	REC_START	1909531	n/a	LTP352	ltpFR2	0	2	n/a	n/a	n/a	n/a	0	0	0
934.17919921875	n/a	REC_WORD	1913199	wordpools/wasnorm_wordpool_576.txt	LTP352	ltpFR2	0	2	WAITER	1580	n/a	n/a	0	0	0
935.357421875	n/a	REC_WORD	1915612	wordpools/wasnorm_wordpool_576.txt	LTP352	ltpFR2	0	2	GRILL	661	n/a	n/a	0	0	0
936.8291015625	n/a	REC_WORD	1918626	wordpools/wasnorm_wordpool_576.txt	LTP352	ltpFR2	0	2	ARMY	39	n/a	n/a	0	0	0
938.50390625	n/a	REC_WORD	1922056	wordpools/wasnorm_wordpool_576.txt	LTP352	ltpFR2	0	2	ZIPPER	1636	n/a	n/a	0	0	0
940.06396484375	n/a	REC_WORD	1925251	wordpools/wasnorm_wordpool_576.txt	LTP352	ltpFR2	0	2	BLOUSE	139	n/a	n/a	0	0	0
941.673828125	n/a	REC_WORD	1928548	wordpools/wasnorm_wordpool_576.txt	LTP352	ltpFR2	0	2	SHORTS	1293	n/a	n/a	0	0	0
945.373046875	n/a	REC_WORD	1936124	wordpools/wasnorm_wordpool_576.txt	LTP352	ltpFR2	0	2	COTTAGE	384	n/a	n/a	0	0	0
947.02294921875	n/a	REC_WORD	1939503	wordpools/wasnorm_wordpool_576.txt	LTP352	ltpFR2	0	2	SHARK	1275	n/a	n/a	0	0	0
948.60693359375	n/a	REC_WORD	1942747	wordpools/wasnorm_wordpool_576.txt	LTP352	ltpFR2	0	2	WORLD	1622	n/a	n/a	0	0	0
958.392578125	n/a	REC_WORD	1962788	wordpools/wasnorm_wordpool_576.txt	LTP352	ltpFR2	0	2	BRICK	172	n/a	n/a	0	0	0
964.80859375	n/a	REC_WORD	1975928	wordpools/wasnorm_wordpool_576.txt	LTP352	ltpFR2	0	2	WAITER	1580	n/a	n/a	0	0	0
978.10986328125	n/a	REC_WORD	2003169	wordpools/wasnorm_wordpool_576.txt	LTP352	ltpFR2	0	2	CHECK	284	n/a	n/a	0	0	0
991.39990234375	n/a	REC_WORD	2030387	wordpools/wasnorm_wordpool_576.txt	LTP352	ltpFR2	0	2	FOOT	590	n/a	n/a	0	0	0
1022.84375	n/a	WORD	2094784	wordpools/wasnorm_wordpool_576.txt	LTP352	ltpFR2	0	3	DAUGHTER	442	n/a	n/a	0	0	0
1025.57568359375	n/a	WORD	2100379	wordpools/wasnorm_wordpool_576.txt	LTP352	ltpFR2	0	3	GRAVEL	659	n/a	n/a	0	0	0
1028.20751953125	n/a	WORD	2105769	wordpools/wasnorm_wordpool_576.txt	LTP352	ltpFR2	0	3	COUNTRY	388	n/a	n/a	0	0	0
1030.923828125	n/a	WORD	2111332	wordpools/wasnorm_wordpool_576.txt	LTP352	ltpFR2	0	3	PARENT	1013	n/a	n/a	0	0	0
1033.60546875	n/a	WORD	2116824	wordpools/wasnorm_wordpool_576.txt	LTP352	ltpFR2	0	3	ROCKET	1202	n/a	n/a	0	0	0
1036.3203125	n/a	WORD	2122384	wordpools/wasnorm_wordpool_576.txt	LTP352	ltpFR2	0	3	SALMON	1227	n/a	n/a	0	0	0
1038.91943359375	n/a	WORD	2127707	wordpools/wasnorm_wordpool_576.txt	LTP352	ltpFR2	0	3	SKETCH	1315	n/a	n/a	0	0	0
1041.75146484375	n/a	WORD	2133507	wordpools/wasnorm_wordpool_576.txt	LTP352	ltpFR2	0	3	COIN	343	n/a	n/a	0	0	0
1044.33349609375	n/a	WORD	2138795	wordpools/wasnorm_wordpool_576.txt	LTP352	ltpFR2	0	3	LUMBER	848	n/a	n/a	0	0	0
1046.79931640625	n/a	WORD	2143845	wordpools/wasnorm_wordpool_576.txt	LTP352	ltpFR2	0	3	MATCH	878	n/a	n/a	0	0	0
1049.28125	n/a	WORD	2148928	wordpools/wasnorm_wordpool_576.txt	LTP352	ltpFR2	0	3	CAMEL	223	n/a	n/a	0	0	0
1052.03125	n/a	WORD	2154560	wordpools/wasnorm_wordpool_576.txt	LTP352	ltpFR2	0	3	TUNNEL	1519	n/a	n/a	0	0	0
1054.544921875	n/a	WORD	2159708	wordpools/wasnorm_wordpool_576.txt	LTP352	ltpFR2	0	3	SCALLOP	1242	n/a	n/a	0	0	0
1057.044921875	n/a	WORD	2164828	wordpools/wasnorm_wordpool_576.txt	LTP352	ltpFR2	0	3	BUREAU	199	n/a	n/a	0	0	0
1059.509765625	n/a	WORD	2169876	wordpools/wasnorm_wordpool_576.txt	LTP352	ltpFR2	0	3	WARDROBE	1587	n/a	n/a	0	0	0
1062.02587890625	n/a	WORD	2175029	wordpools/wasnorm_wordpool_576.txt	LTP352	ltpFR2	0	3	GREASE	660	n/a	n/a	0	0	0
1064.49072265625	n/a	WORD	2180077	wordpools/wasnorm_wordpool_576.txt	LTP352	ltpFR2	0	3	FRIEND	606	n/a	n/a	0	0	0
1067.18994140625	n/a	WORD	2185605	wordpools/wasnorm_wordpool_576.txt	LTP352	ltpFR2	0	3	SUBWAY	1400	n/a	n/a	0	0	0
1069.70458984375	n/a	WORD	2190755	wordpools/wasnorm_wordpool_576.txt	LTP352	ltpFR2	0	3	TROUT	1511	n/a	n/a	0	0	0
1072.20361328125	n/a	WORD	2195873	wordpools/wasnorm_wordpool_576.txt	LTP352	ltpFR2	0	3	SALT	1229	n/a	n/a	0	0	0
1074.935546875	n/a	WORD	2201468	wordpools/wasnorm_wordpool_576.txt	LTP352	ltpFR2	0	3	FRAME	600	n/a	n/a	0	0	0
1077.4345703125	n/a	WORD	2206586	wordpools/wasnorm_wordpool_576.txt	LTP352	ltpFR2	0	3	PICTURE	1061	n/a	n/a	0	0	0
1080.13330078125	n/a	WORD	2212113	wordpools/wasnorm_wordpool_576.txt	LTP352	ltpFR2	0	3	SLIME	1327	n/a	n/a	0	0	0
1082.615234375	n/a	WORD	2217196	wordpools/wasnorm_wordpool_576.txt	LTP352	ltpFR2	0	3	BRANCH	168	n/a	n/a	0	0	0
1084.2314453125	n/a	START	2220506	n/a	LTP352	ltpFR2	0	n/a	n/a	n/a	4	n/a	n/a	n/a	n/a
1085.35302734375	n/a	DISTRACTOR	2222803	n/a	LTP352	ltpFR2	0	3	n/a	n/a	n/a	n/a	0	0	0
1085.3642578125	n/a	PROB	2222826	n/a	LTP352	ltpFR2	0	n/a	n/a	n/a	4	8	2	4	2
1088.04736328125	n/a	PROB	2228321	n/a	LTP352	ltpFR2	0	n/a	n/a	n/a	4	18	6	9	3
1091.3779296875	n/a	PROB	2235142	n/a	LTP352	ltpFR2	0	n/a	n/a	n/a	4	7	2	2	3
1094.29296875	n/a	PROB	2241112	n/a	LTP352	ltpFR2	0	n/a	n/a	n/a	4	8	1	2	5
1096.14208984375	n/a	PROB	2244899	n/a	LTP352	ltpFR2	0	n/a	n/a	n/a	4	16	4	6	6
1098.7236328125	n/a	PROB	2250186	n/a	LTP352	ltpFR2	0	n/a	n/a	n/a	4	15	3	8	4
1101.6728515625	n/a	PROB	2256226	n/a	LTP352	ltpFR2	0	n/a	n/a	n/a	4	16	8	5	3
1103.98876953125	n/a	PROB	2260969	n/a	LTP352	ltpFR2	0	n/a	n/a	n/a	4	19	6	7	6
1106.03857421875	n/a	PROB	2265167	n/a	LTP352	ltpFR2	0	n/a	n/a	n/a	4	16	7	8	1
1108.09375	n/a	STOP	2269376	n/a	LTP352	ltpFR2	0	n/a	n/a	n/a	4	n/a	n/a	n/a	n/a
1110.0537109375	n/a	REC_START	2273390	n/a	LTP352	ltpFR2	0	3	n/a	n/a	n/a	n/a	0	0	0
1112.3212890625	n/a	REC_WORD	2278034	wordpools/wasnorm_wordpool_576.txt	LTP352	ltpFR2	0	3	DAUGHTER	442	n/a	n/a	0	0	0
1113.435546875	n/a	REC_WORD	2280316	wordpools/wasnorm_wordpool_576.txt	LTP352	ltpFR2	0	3	MOTHER	921	n/a	n/a	0	0	0
1114.61767578125	n/a	REC_WORD	2282737	wordpools/wasnorm_wordpool_576.txt	LTP352	ltpFR2	0	3	GRAVEL	659	n/a	n/a	0	0	0
1116.390625	n/a	REC_WORD	2286368	wordpools/wasnorm_wordpool_576.txt	LTP352	ltpFR2	0	3	GREASE	660	n/a	n/a	0	0	0
1118.20654296875	n/a	REC_WORD	2290087	wordpools/wasnorm_wordpool_576.txt	LTP352	ltpFR2	0	3	WARDROBE	1587	n/a	n/a	0	0	0
1120.04736328125	n/a	REC_WORD	2293857	wordpools/wasnorm_wordpool_576.txt	LTP352	ltpFR2	0	3	STREAM	1392	n/a	n/a	0	0	0
1121.666015625	n/a	REC_WORD	2297172	wordpools/wasnorm_wordpool_576.txt	LTP352	ltpFR2	0	3	SCALLOP	1242	n/a	n/a	0	0	0
1123.89599609375	n/a	REC_WORD	2301739	wordpools/wasnorm_wordpool_576.txt	LTP352	ltpFR2	0	3	COIN	343	n/a	n/a	0	0	0
1130.40087890625	n/a	REC_WORD	2315061	wordpools/wasnorm_wordpool_576.txt	LTP352	ltpFR2	0	3	COUNTRY	388	n/a	n/a	0	0	0
1140.94287109375	n/a	REC_WORD	2336651	wordpools/wasnorm_wordpool_576.txt	LTP352	ltpFR2	0	3	FRIEND	606	n/a	n/a	0	0	0
1156.62841796875	n/a	REC_WORD	2368775	wordpools/wasnorm_wordpool_576.txt	LTP352	ltpFR2	0	3	WOOD	-1	n/a	n/a	0	0	0
1162.85302734375	n/a	REC_WORD	2381523	wordpools/wasnorm_wordpool_576.txt	LTP352	ltpFR2	0	3	LUMBER	848	n/a	n/a	0	0	0
1200.47509765625	n/a	DISTRACTOR	2458573	n/a	LTP352	ltpFR2	0	4	n/a	n/a	n/a	n/a	0	0	0
1200.47509765625	n/a	START	2458573	n/a	LTP352	ltpFR2	0	n/a	n/a	n/a	5	n/a	n/a	n/a	n/a
1200.4921875	n/a	PROB	2458608	n/a	LTP352	ltpFR2	0	n/a	n/a	n/a	5	20	3	9	8
1203.19091796875	n/a	PROB	2464135	n/a	LTP352	ltpFR2	0	n/a	n/a	n/a	5	18	7	7	4
1205.041015625	n/a	PROB	2467924	n/a	LTP352	ltpFR2	0	n/a	n/a	n/a	5	10	2	6	2
1206.671875	n/a	PROB	2471264	n/a	LTP352	ltpFR2	0	n/a	n/a	n/a	5	12	5	4	3
1208.970703125	n/a	PROB	2475972	n/a	LTP352	ltpFR2	0	n/a	n/a	n/a	5	11	2	7	2
1211.50390625	n/a	PROB	2481160	n/a	LTP352	ltpFR2	0	n/a	n/a	n/a	5	14	4	7	3
1213.0537109375	n/a	PROB	2484334	n/a	LTP352	ltpFR2	0	n/a	n/a	n/a	5	7	2	2	3
1214.90185546875	n/a	PROB	2488119	n/a	LTP352	ltpFR2	0	n/a	n/a	n/a	5	20	7	7	6
1216.98388671875	n/a	PROB	2492383	n/a	LTP352	ltpFR2	0	n/a	n/a	n/a	5	13	2	4	7
1220.11572265625	n/a	PROB	2498797	n/a	LTP352	ltpFR2	0	n/a	n/a	n/a	5	10	4	1	5
1221.66552734375	n/a	PROB	2501971	n/a	LTP352	ltpFR2	0	n/a	n/a	n/a	5	16	7	8	1
1223.646484375	n/a	STOP	2506028	n/a	LTP352	ltpFR2	0	n/a	n/a	n/a	5	n/a	n/a	n/a	n/a
1225.33056640625	n/a	WORD	2509477	wordpools/wasnorm_wordpool_576.txt	LTP352	ltpFR2	0	4	GUARD	667	n/a	n/a	0	0	0
1227.978515625	n/a	WORD	2514900	wordpools/wasnorm_wordpool_576.txt	LTP352	ltpFR2	0	4	FINGER	567	n/a	n/a	0	0	0
1230.5771484375	n/a	WORD	2520222	wordpools/wasnorm_wordpool_576.txt	LTP352	ltpFR2	0	4	PARSLEY	1016	n/a	n/a	0	0	0
1233.34326171875	n/a	WORD	2525887	wordpools/wasnorm_wordpool_576.txt	LTP352	ltpFR2	0	4	CAPTIVE	240	n/a	n/a	0	0	0
1235.908203125	n/a	WORD	2531140	wordpools/wasnorm_wordpool_576.txt	LTP352	ltpFR2	0	4	PATIENT	1024	n/a	n/a	0	0	0
1238.60693359375	n/a	WORD	2536667	wordpools/wasnorm_wordpool_576.txt	LTP352	ltpFR2	0	4	POWDER	1117	n/a	n/a	0	0	0
1241.2060546875	n/a	WORD	2541990	wordpools/wasnorm_wordpool_576.txt	LTP352	ltpFR2	0	4	COD	340	n/a	n/a	0	0	0
1244.02197265625	n/a	WORD	2547757	wordpools/wasnorm_wordpool_576.txt	LTP352	ltpFR2	0	4	VENUS	1557	n/a	n/a	0	0	0
1246.73681640625	n/a	WORD	2553317	wordpools/wasnorm_wordpool_576.txt	LTP352	ltpFR2	0	4	PLUTO	1092	n/a	n/a	0	0	0
1249.56884765625	n/a	WORD	2559117	wordpools/wasnorm_wordpool_576.txt	LTP352	ltpFR2	0	4	STAPLE	1371	n/a	n/a	0	0	0
1252.2509765625	n/a	WORD	2564610	wordpools/wasnorm_wordpool_576.txt	LTP352	ltpFR2	0	4	SIDEWALK	1303	n/a	n/a	0	0	0
1254.81591796875	n/a	WORD	2569863	wordpools/wasnorm_wordpool_576.txt	LTP352	ltpFR2	0	4	ROBOT	1200	n/a	n/a	0	0	0
1257.53173828125	n/a	WORD	2575425	wordpools/wasnorm_wordpool_576.txt	LTP352	ltpFR2	0	4	RIFLE	1192	n/a	n/a	0	0	0
1260.2294921875	n/a	WORD	2580950	wordpools/wasnorm_wordpool_576.txt	LTP352	ltpFR2	0	4	FUNGUS	614	n/a	n/a	0	0	0
1262.6953125	n/a	WORD	2586000	wordpools/wasnorm_wordpool_576.txt	LTP352	ltpFR2	0	4	WINDOW	1611	n/a	n/a	0	0	0
1265.34423828125	n/a	WORD	2591425	wordpools/wasnorm_wordpool_576.txt	LTP352	ltpFR2	0	4	HOSTESS	723	n/a	n/a	0	0	0
1267.859375	n/a	WORD	2596576	wordpools/wasnorm_wordpool_576.txt	LTP352	ltpFR2	0	4	COSTUME	383	n/a	n/a	0	0	0
1270.658203125	n/a	WORD	2602308	wordpools/wasnorm_wordpool_576.txt	LTP352	ltpFR2	0	4	ULCER	1533	n/a	n/a	0	0	0
1273.107421875	n/a	WORD	2607324	wordpools/wasnorm_wordpool_576.txt	LTP352	ltpFR2	0	4	CURTAIN	427	n/a	n/a	0	0	0
1275.60595703125	n/a	WORD	2612441	wordpools/wasnorm_wordpool_576.txt	LTP352	ltpFR2	0	4	EGYPT	519	n/a	n/a	0	0	0
1278.4052734375	n/a	WORD	2618174	wordpools/wasnorm_wordpool_576.txt	LTP352	ltpFR2	0	4	GRAVE	658	n/a	n/a	0	0	0
1280.98681640625	n/a	WORD	2623461	wordpools/wasnorm_wordpool_576.txt	LTP352	ltpFR2	0	4	CHEMIST	292	n/a	n/a	0	0	0
1283.56884765625	n/a	WORD	2628749	wordpools/wasnorm_wordpool_576.txt	LTP352	ltpFR2	0	4	MONSTER	912	n/a	n/a	0	0	0
1286.10107421875	n/a	WORD	2633935	wordpools/wasnorm_wordpool_576.txt	LTP352	ltpFR2	0	4	LIGHTNING	820	n/a	n/a	0	0	0
1287.716796875	n/a	START	2637244	n/a	LTP352	ltpFR2	0	n/a	n/a	n/a	6	n/a	n/a	n/a	n/a
1288.52001953125	n/a	DISTRACTOR	2638889	n/a	LTP352	ltpFR2	0	4	n/a	n/a	n/a	n/a	0	0	0
1288.53271484375	n/a	PROB	2638915	n/a	LTP352	ltpFR2	0	n/a	n/a	n/a	6	18	9	4	5
1290.91552734375	n/a	PROB	2643795	n/a	LTP352	ltpFR2	0	n/a	n/a	n/a	6	13	5	7	1
1293.2978515625	n/a	PROB	2648674	n/a	LTP352	ltpFR2	0	n/a	n/a	n/a	6	15	7	6	2
1296.345703125	n/a	PROB	2654916	n/a	LTP352	ltpFR2	0	n/a	n/a	n/a	6	24	8	6	9
1301.71044921875	n/a	PROB	2665903	n/a	LTP352	ltpFR2	0	n/a	n/a	n/a	6	16	2	9	5
1304.0751953125	n/a	PROB	2670746	n/a	LTP352	ltpFR2	0	n/a	n/a	n/a	6	17	7	7	3
1311.71630859375	n/a	STOP	2686395	n/a	LTP352	ltpFR2	0	n/a	n/a	n/a	6	n/a	n/a	n/a	n/a
1313.52099609375	n/a	REC_START	2690091	n/a	LTP352	ltpFR2	0	4	n/a	n/a	n/a	n/a	0	0	0
1315.171875	n/a	REC_WORD	2693472	wordpools/wasnorm_wordpool_576.txt	LTP352	ltpFR2	0	4	VENUS	1557	n/a	n/a	0	0	0
1316.33203125	n/a	REC_WORD	2695848	wordpools/wasnorm_wordpool_576.txt	LTP352	ltpFR2	0	4	PLUTO	1092	n/a	n/a	0	0	0
1318.02001953125	n/a	REC_WORD	2699305	wordpools/wasnorm_wordpool_576.txt	LTP352	ltpFR2	0	4	PRISONER	1128	n/a	n/a	0	0	0
1319.69482421875	n/a	REC_WORD	2702735	wordpools/wasnorm_wordpool_576.txt	LTP352	ltpFR2	0	4	LIGHTNING	820	n/a	n/a	0	0	0
1321.337890625	n/a	REC_WORD	2706100	wordpools/wasnorm_wordpool_576.txt	LTP352	ltpFR2	0	4	GUARD	667	n/a	n/a	0	0	0
1325.28076171875	n/a	REC_WORD	2714175	wordpools/wasnorm_wordpool_576.txt	LTP352	ltpFR2	0	4	HOSTESS	723	n/a	n/a	0	0	0
1329.02490234375	n/a	REC_WORD	2721843	wordpools/wasnorm_wordpool_576.txt	LTP352	ltpFR2	0	4	CHEMIST	292	n/a	n/a	0	0	0
1330.546875	n/a	REC_WORD	2724960	wordpools/wasnorm_wordpool_576.txt	LTP352	ltpFR2	0	4	WINDOW	1611	n/a	n/a	0	0	0
1331.810546875	n/a	REC_WORD	2727548	wordpools/wasnorm_wordpool_576.txt	LTP352	ltpFR2	0	4	CURTAIN	427	n/a	n/a	0	0	0
1336.2353515625	n/a	REC_WORD	2736610	wordpools/wasnorm_wordpool_576.txt	LTP352	ltpFR2	0	4	MONSTER	912	n/a	n/a	0	0	0
1348.14306640625	n/a	REC_WORD	2760997	wordpools/wasnorm_wordpool_576.txt	LTP352	ltpFR2	0	4	EGYPT	519	n/a	n/a	0	0	0
1403.94482421875	n/a	DISTRACTOR	2875279	n/a	LTP352	ltpFR2	0	5	n/a	n/a	n/a	n/a	0	0	0
1403.94482421875	n/a	START	2875279	n/a	LTP352	ltpFR2	0	n/a	n/a	n/a	7	n/a	n/a	n/a	n/a
1403.96044921875	n/a	PROB	2875311	n/a	LTP352	ltpFR2	0	n/a	n/a	n/a	7	12	1	4	7
1407.0263671875	n/a	PROB	2881590	n/a	LTP352	ltpFR2	0	n/a	n/a	n/a	7	17	4	6	7
1408.5087890625	n/a	PROB	2884626	n/a	LTP352	ltpFR2	0	n/a	n/a	n/a	7	17	7	9	1
1409.8583984375	n/a	PROB	2887390	n/a	LTP352	ltpFR2	0	n/a	n/a	n/a	7	11	6	3	2
1412.0244140625	n/a	PROB	2891826	n/a	LTP352	ltpFR2	0	n/a	n/a	n/a	7	4	1	2	1
1413.62353515625	n/a	PROB	2895101	n/a	LTP352	ltpFR2	0	n/a	n/a	n/a	7	12	2	4	6
1415.35546875	n/a	PROB	2898648	n/a	LTP352	ltpFR2	0	n/a	n/a	n/a	7	13	7	4	2
1417.42138671875	n/a	PROB	2902879	n/a	LTP352	ltpFR2	0	n/a	n/a	n/a	7	17	6	5	6
1419.103515625	n/a	PROB	2906324	n/a	LTP352	ltpFR2	0	n/a	n/a	n/a	7	20	7	8	5
1423.4013671875	n/a	PROB	2915126	n/a	LTP352	ltpFR2	0	n/a	n/a	n/a	7	18	4	9	5
1425.7841796875	n/a	PROB	2920006	n/a	LTP352	ltpFR2	0	n/a	n/a	n/a	7	11	3	1	7
1427.88720703125	n/a	STOP	2924313	n/a	LTP352	ltpFR2	0	n/a	n/a	n/a	7	n/a	n/a	n/a	n/a
1428.76611328125	n/a	WORD	2926113	wordpools/wasnorm_wordpool_576.txt	LTP352	ltpFR2	0	5	COMET	353	n/a	n/a	0	0	0
1431.3310546875	n/a	WORD	2931366	wordpools/wasnorm_wordpool_576.txt	LTP352	ltpFR2	0	5	STAR	1373	n/a	n/a	0	0	0
1433.796875	n/a	WORD	2936416	wordpools/wasnorm_wordpool_576.txt	LTP352	ltpFR2	0	5	PADDLE	1000	n/a	n/a	0	0	0
1436.44482421875	n/a	WORD	2941839	wordpools/wasnorm_wordpool_576.txt	LTP352	ltpFR2	0	5	PILOT	1070	n/a	n/a	0	0	0
1439.19384765625	n/a	WORD	2947469	wordpools/wasnorm_wordpool_576.txt	LTP352	ltpFR2	0	5	GAVEL	627	n/a	n/a	0	0	0
1441.82568359375	n/a	WORD	2952859	wordpools/wasnorm_wordpool_576.txt	LTP352	ltpFR2	0	5	SWIMMER	1420	n/a	n/a	0	0	0
1444.6416015625	n/a	WORD	2958626	wordpools/wasnorm_wordpool_576.txt	LTP352	ltpFR2	0	5	EAGLE	512	n/a	n/a	0	0	0
1447.07373046875	n/a	WORD	2963607	wordpools/wasnorm_wordpool_576.txt	LTP352	ltpFR2	0	5	MARKET	871	n/a	n/a	0	0	0
1449.83837890625	n/a	WORD	2969269	wordpools/wasnorm_wordpool_576.txt	LTP352	ltpFR2	0	5	PASTRY	1022	n/a	n/a	0	0	0
1452.58740234375	n/a	WORD	2974899	wordpools/wasnorm_wordpool_576.txt	LTP352	ltpFR2	0	5	JURY	766	n/a	n/a	0	0	0
1455.369140625	n/a	WORD	2980596	wordpools/wasnorm_wordpool_576.txt	LTP352	ltpFR2	0	5	STUDENT	1395	n/a	n/a	0	0	0
1458.16845703125	n/a	WORD	2986329	wordpools/wasnorm_wordpool_576.txt	LTP352	ltpFR2	0	5	COLLEGE	346	n/a	n/a	0	0	0
1460.6669921875	n/a	WORD	2991446	wordpools/wasnorm_wordpool_576.txt	LTP352	ltpFR2	0	5	MISTER	901	n/a	n/a	0	0	0
1463.48193359375	n/a	WORD	2997211	wordpools/wasnorm_wordpool_576.txt	LTP352	ltpFR2	0	5	PALACE	1006	n/a	n/a	0	0	0
1466.26416015625	n/a	WORD	3002909	wordpools/wasnorm_wordpool_576.txt	LTP352	ltpFR2	0	5	FIDDLE	561	n/a	n/a	0	0	0
1468.77978515625	n/a	WORD	3008061	wordpools/wasnorm_wordpool_576.txt	LTP352	ltpFR2	0	5	YACHT	1629	n/a	n/a	0	0	0
1471.22900390625	n/a	WORD	3013077	wordpools/wasnorm_wordpool_576.txt	LTP352	ltpFR2	0	5	NOMAD	955	n/a	n/a	0	0	0
1474.044921875	n/a	WORD	3018844	wordpools/wasnorm_wordpool_576.txt	LTP352	ltpFR2	0	5	CAFE	216	n/a	n/a	0	0	0
1476.69287109375	n/a	WORD	3024267	wordpools/wasnorm_wordpool_576.txt	LTP352	ltpFR2	0	5	CANAL	226	n/a	n/a	0	0	0
1479.44189453125	n/a	WORD	3029897	wordpools/wasnorm_wordpool_576.txt	LTP352	ltpFR2	0	5	SERVANT	1271	n/a	n/a	0	0	0
1481.98974609375	n/a	WORD	3035115	wordpools/wasnorm_wordpool_576.txt	LTP352	ltpFR2	0	5	MEDAL	885	n/a	n/a	0	0	0
1484.75537109375	n/a	WORD	3040779	wordpools/wasnorm_wordpool_576.txt	LTP352	ltpFR2	0	5	BARLEY	88	n/a	n/a	0	0	0
1487.47021484375	n/a	WORD	3046339	wordpools/wasnorm_wordpool_576.txt	LTP352	ltpFR2	0	5	STONE	1385	n/a	n/a	0	0	0
1490.25244140625	n/a	WORD	3052037	wordpools/wasnorm_wordpool_576.txt	LTP352	ltpFR2	0	5	HIGHWAY	707	n/a	n/a	0	0	0
1491.8681640625	n/a	START	3055346	n/a	LTP352	ltpFR2	0	n/a	n/a	n/a	8	n/a	n/a	n/a	n/a
1492.88916015625	n/a	DISTRACTOR	3057437	n/a	LTP352	ltpFR2	0	5	n/a	n/a	n/a	n/a	0	0	0
1492.9013671875	n/a	PROB	3057462	n/a	LTP352	ltpFR2	0	n/a	n/a	n/a	8	11	2	4	5
1496.26611328125	n/a	PROB	3064353	n/a	LTP352	ltpFR2	0	n/a	n/a	n/a	8	10	5	3	2
1498.18212890625	n/a	PROB	3068277	n/a	LTP352	ltpFR2	0	n/a	n/a	n/a	8	18	5	7	6
1500.81396484375	n/a	PROB	3073667	n/a	LTP352	ltpFR2	0	n/a	n/a	n/a	8	8	4	3	1
1502.7470703125	n/a	PROB	3077626	n/a	LTP352	ltpFR2	0	n/a	n/a	n/a	8	13	8	5	1
1504.44580078125	n/a	PROB	3081105	n/a	LTP352	ltpFR2	0	n/a	n/a	n/a	8	11	1	4	6
1506.26171875	n/a	PROB	3084824	n/a	LTP352	ltpFR2	0	n/a	n/a	n/a	8	14	5	8	1
1508.89404296875	n/a	PROB	3090215	n/a	LTP352	ltpFR2	0	n/a	n/a	n/a	8	14	3	4	7
1510.90966796875	n/a	PROB	3094343	n/a	LTP352	ltpFR2	0	n/a	n/a	n/a	8	16	8	7	1
1512.841796875	n/a	PROB	3098300	n/a	LTP352	ltpFR2	0	n/a	n/a	n/a	8	13	1	4	8
1514.4638671875	n/a	STOP	3101622	n/a	LTP352	ltpFR2	0	n/a	n/a	n/a	8	n/a	n/a	n/a	n/a
1517.73974609375	n/a	REC_START	3108331	n/a	LTP352	ltpFR2	0	5	n/a	n/a	n/a	n/a	0	0	0
1519.48583984375	n/a	REC_WORD	3111907	wordpools/wasnorm_wordpool_576.txt	LTP352	ltpFR2	0	5	PILOT	1070	n/a	n/a	0	0	0
1520.77978515625	n/a	REC_WORD	3114557	wordpools/wasnorm_wordpool_576.txt	LTP352	ltpFR2	0	5	CAFE	216	n/a	n/a	0	0	0
1522.2255859375	n/a	REC_WORD	3117518	wordpools/wasnorm_wordpool_576.txt	LTP352	ltpFR2	0	5	MARKET	871	n/a	n/a	0	0	0
1523.529296875	n/a	REC_WORD	3120188	wordpools/wasnorm_wordpool_576.txt	LTP352	ltpFR2	0	5	JURY	766	n/a	n/a	0	0	0
1524.8505859375	n/a	REC_WORD	3122894	wordpools/wasnorm_wordpool_576.txt	LTP352	ltpFR2	0	5	STUDENT	1395	n/a	n/a	0	0	0
1526.66748046875	n/a	REC_WORD	3126615	wordpools/wasnorm_wordpool_576.txt	LTP352	ltpFR2	0	5	COLLEGE	346	n/a	n/a	0	0	0
1531.60009765625	n/a	REC_WORD	3136717	wordpools/wasnorm_wordpool_576.txt	LTP352	ltpFR2	0	5	MISTER	901	n/a	n/a	0	0	0
1534.89404296875	n/a	REC_WORD	3143463	wordpools/wasnorm_wordpool_576.txt	LTP352	ltpFR2	0	5	COMET	353	n/a	n/a	0	0	0
1537.5849609375	n/a	REC_WORD	3148974	wordpools/wasnorm_wordpool_576.txt	LTP352	ltpFR2	0	5	EAGLE	512	n/a	n/a	0	0	0
1539.865234375	n/a	REC_WORD	3153644	wordpools/wasnorm_wordpool_576.txt	LTP352	ltpFR2	0	5	PALACE	1006	n/a	n/a	0	0	0
1543.755859375	n/a	REC_WORD	3161612	wordpools/wasnorm_wordpool_576.txt	LTP352	ltpFR2	0	5	FIDDLE	561	n/a	n/a	0	0	0
1557.4296875	n/a	REC_WORD	3189616	wordpools/wasnorm_wordpool_576.txt	LTP352	ltpFR2	0	5	NOMAD	955	n/a	n/a	0	0	0
1572.5283203125	n/a	REC_WORD	3220538	wordpools/wasnorm_wordpool_576.txt	LTP352	ltpFR2	0	5	YACHT	1629	n/a	n/a	0	0	0
1608.1962890625	n/a	WORD	3293586	wordpools/wasnorm_wordpool_576.txt	LTP352	ltpFR2	0	6	DRILL	497	n/a	n/a	0	0	0
1610.828125	n/a	WORD	3298976	wordpools/wasnorm_wordpool_576.txt	LTP352	ltpFR2	0	6	UMPIRE	1535	n/a	n/a	0	0	0
1613.54296875	n/a	WORD	3304536	wordpools/wasnorm_wordpool_576.txt	LTP352	ltpFR2	0	6	INMATE	738	n/a	n/a	0	0	0
1616.1259765625	n/a	WORD	3309826	wordpools/wasnorm_wordpool_576.txt	LTP352	ltpFR2	0	6	YOLK	1633	n/a	n/a	0	0	0
1618.8740234375	n/a	WORD	3315454	wordpools/wasnorm_wordpool_576.txt	LTP352	ltpFR2	0	6	LETTUCE	814	n/a	n/a	0	0	0
1621.35693359375	n/a	WORD	3320539	wordpools/wasnorm_wordpool_576.txt	LTP352	ltpFR2	0	6	GROUND	666	n/a	n/a	0	0	0
1624.0400390625	n/a	WORD	3326034	wordpools/wasnorm_wordpool_576.txt	LTP352	ltpFR2	0	6	BACON	67	n/a	n/a	0	0	0
1626.70361328125	n/a	WORD	3331489	wordpools/wasnorm_wordpool_576.txt	LTP352	ltpFR2	0	6	TORTOISE	1486	n/a	n/a	0	0	0
1629.45263671875	n/a	WORD	3337119	wordpools/wasnorm_wordpool_576.txt	LTP352	ltpFR2	0	6	BOARD	143	n/a	n/a	0	0	0
1631.884765625	n/a	WORD	3342100	wordpools/wasnorm_wordpool_576.txt	LTP352	ltpFR2	0	6	LONDON	843	n/a	n/a	0	0	0
1634.38330078125	n/a	WORD	3347217	wordpools/wasnorm_wordpool_576.txt	LTP352	ltpFR2	0	6	JAPAN	749	n/a	n/a	0	0	0
1637.03369140625	n/a	WORD	3352645	wordpools/wasnorm_wordpool_576.txt	LTP352	ltpFR2	0	6	PLATE	1086	n/a	n/a	0	0	0
1639.49755859375	n/a	WORD	3357691	wordpools/wasnorm_wordpool_576.txt	LTP352	ltpFR2	0	6	PEACH	1031	n/a	n/a	0	0	0
1642.09619140625	n/a	WORD	3363013	wordpools/wasnorm_wordpool_576.txt	LTP352	ltpFR2	0	6	CROWN	415	n/a	n/a	0	0	0
1644.76220703125	n/a	WORD	3368473	wordpools/wasnorm_wordpool_576.txt	LTP352	ltpFR2	0	6	CATCHER	258	n/a	n/a	0	0	0
1647.3603515625	n/a	WORD	3373794	wordpools/wasnorm_wordpool_576.txt	LTP352	ltpFR2	0	6	MUFFIN	929	n/a	n/a	0	0	0
1650.10888671875	n/a	WORD	3379423	wordpools/wasnorm_wordpool_576.txt	LTP352	ltpFR2	0	6	DENTIST	447	n/a	n/a	0	0	0
1652.60791015625	n/a	WORD	3384541	wordpools/wasnorm_wordpool_576.txt	LTP352	ltpFR2	0	6	SURVEY	1414	n/a	n/a	0	0	0
1655.07373046875	n/a	WORD	3389591	wordpools/wasnorm_wordpool_576.txt	LTP352	ltpFR2	0	6	CUPBOARD	425	n/a	n/a	0	0	0
1657.52197265625	n/a	WORD	3394605	wordpools/wasnorm_wordpool_576.txt	LTP352	ltpFR2	0	6	MESSAGE	888	n/a	n/a	0	0	0
1660.32080078125	n/a	WORD	3400337	wordpools/wasnorm_wordpool_576.txt	LTP352	ltpFR2	0	6	MAILBOX	857	n/a	n/a	0	0	0
1663.1025390625	n/a	WORD	3406034	wordpools/wasnorm_wordpool_576.txt	LTP352	ltpFR2	0	6	FLIPPER	580	n/a	n/a	0	0	0
1665.8017578125	n/a	WORD	3411562	wordpools/wasnorm_wordpool_576.txt	LTP352	ltpFR2	0	6	SPIDER	1351	n/a	n/a	0	0	0
1668.36767578125	n/a	WORD	3416817	wordpools/wasnorm_wordpool_576.txt	LTP352	ltpFR2	0	6	CRICKET	408	n/a	n/a	0	0	0
1669.9833984375	n/a	START	3420126	n/a	LTP352	ltpFR2	0	n/a	n/a	n/a	9	n/a	n/a	n/a	n/a
1671.02978515625	n/a	DISTRACTOR	3422269	n/a	LTP352	ltpFR2	0	6	n/a	n/a	n/a	n/a	0	0	0
1671.03369140625	n/a	PROB	3422277	n/a	LTP352	ltpFR2	0	n/a	n/a	n/a	9	17	7	1	9
1673.1484375	n/a	PROB	3426608	n/a	LTP352	ltpFR2	0	n/a	n/a	n/a	9	10	2	4	4
1675.24755859375	n/a	PROB	3430907	n/a	LTP352	ltpFR2	0	n/a	n/a	n/a	9	15	4	6	5
1676.79638671875	n/a	PROB	3434079	n/a	LTP352	ltpFR2	0	n/a	n/a	n/a	9	17	7	2	6
1678.67919921875	n/a	PROB	3437935	n/a	LTP352	ltpFR2	0	n/a	n/a	n/a	9	18	5	5	8
1680.79443359375	n/a	PROB	3442267	n/a	LTP352	ltpFR2	0	n/a	n/a	n/a	9	21	5	8	8
1683.7431640625	n/a	PROB	3448306	n/a	LTP352	ltpFR2	0	n/a	n/a	n/a	9	24	9	6	9
1686.375	n/a	PROB	3453696	n/a	LTP352	ltpFR2	0	n/a	n/a	n/a	9	13	6	2	5
1688.39111328125	n/a	PROB	3457825	n/a	LTP352	ltpFR2	0	n/a	n/a	n/a	9	20	5	9	6
1690.77294921875	n/a	PROB	3462703	n/a	LTP352	ltpFR2	0	n/a	n/a	n/a	9	15	3	6	3
1693.47216796875	n/a	STOP	3468231	n/a	LTP352	ltpFR2	0	n/a	n/a	n/a	9	n/a	n/a	n/a	n/a
1695.7548828125	n/a	REC_START	3472906	n/a	LTP352	ltpFR2	0	6	n/a	n/a	n/a	n/a	0	0	0
1697.224609375	n/a	REC_WORD	3475916	wordpools/wasnorm_wordpool_576.txt	LTP352	ltpFR2	0	6	DRILL	497	n/a	n/a	0	0	0
1698.24169921875	n/a	REC_WORD	3477999	wordpools/wasnorm_wordpool_576.txt	LTP352	ltpFR2	0	6	CATCHER	258	n/a	n/a	0	0	0
1699.44775390625	n/a	REC_WORD	3480469	wordpools/wasnorm_wordpool_576.txt	LTP352	ltpFR2	0	6	UMPIRE	1535	n/a	n/a	0	0	0
1701.642578125	n/a	REC_WORD	3484964	wordpools/wasnorm_wordpool_576.txt	LTP352	ltpFR2	0	6	CROWN	415	n/a	n/a	0	0	0
1703.0146484375	n/a	REC_WORD	3487774	wordpools/wasnorm_wordpool_576.txt	LTP352	ltpFR2	0	6	PEACH	1031	n/a	n/a	0	0	0
1705.36669921875	n/a	REC_WORD	3492591	wordpools/wasnorm_wordpool_576.txt	LTP352	ltpFR2	0	6	BACON	67	n/a	n/a	0	0	0
1706.478515625	n/a	REC_WORD	3494868	wordpools/wasnorm_wordpool_576.txt	LTP352	ltpFR2	0	6	MUFFIN	929	n/a	n/a	0	0	0
1709.568359375	n/a	REC_WORD	3501196	wordpools/wasnorm_wordpool_576.txt	LTP352	ltpFR2	0	6	PLATE	1086	n/a	n/a	0	0	0
1711.2236328125	n/a	REC_WORD	3504586	wordpools/wasnorm_wordpool_576.txt	LTP352	ltpFR2	0	6	JAPAN	749	n/a	n/a	0	0	0
1713.4033203125	n/a	REC_WORD	3509050	wordpools/wasnorm_wordpool_576.txt	LTP352	ltpFR2	0	6	LONDON	843	n/a	n/a	0	0	0
1764.18115234375	n/a	REC_WORD	3613043	wordpools/wasnorm_wordpool_576.txt	LTP352	ltpFR2	0	6	GRILL	661	n/a	n/a	0	0	0
1786.17724609375	n/a	DISTRACTOR	3658091	n/a	LTP352	ltpFR2	0	7	n/a	n/a	n/a	n/a	0	0	0
1786.17724609375	n/a	START	3658091	n/a	LTP352	ltpFR2	0	n/a	n/a	n/a	10	n/a	n/a	n/a	n/a
1786.193359375	n/a	PROB	3658124	n/a	LTP352	ltpFR2	0	n/a	n/a	n/a	10	16	4	9	3
1788.4423828125	n/a	PROB	3662730	n/a	LTP352	ltpFR2	0	n/a	n/a	n/a	10	10	5	1	4
1790.75830078125	n/a	PROB	3667473	n/a	LTP352	ltpFR2	0	n/a	n/a	n/a	10	15	4	6	5
1793.00830078125	n/a	PROB	3672081	n/a	LTP352	ltpFR2	0	n/a	n/a	n/a	10	12	5	1	6
1796.25634765625	n/a	PROB	3678733	n/a	LTP352	ltpFR2	0	n/a	n/a	n/a	10	16	1	8	7
1798.55419921875	n/a	PROB	3683439	n/a	LTP352	ltpFR2	0	n/a	n/a	n/a	10	20	4	9	7
1802.93603515625	n/a	PROB	3692413	n/a	LTP352	ltpFR2	0	n/a	n/a	n/a	10	20	9	2	9
1804.76806640625	n/a	PROB	3696165	n/a	LTP352	ltpFR2	0	n/a	n/a	n/a	10	15	5	4	6
1806.78369140625	n/a	PROB	3700293	n/a	LTP352	ltpFR2	0	n/a	n/a	n/a	10	15	8	6	1
1808.7529296875	n/a	STOP	3704326	n/a	LTP352	ltpFR2	0	n/a	n/a	n/a	10	n/a	n/a	n/a	n/a
1811.1650390625	n/a	WORD	3709266	wordpools/wasnorm_wordpool_576.txt	LTP352	ltpFR2	0	7	ANTLER	29	n/a	n/a	0	0	0
1813.73095703125	n/a	WORD	3714521	wordpools/wasnorm_wordpool_576.txt	LTP352	ltpFR2	0	7	SUSPECT	1415	n/a	n/a	0	0	0
1816.24658203125	n/a	WORD	3719673	wordpools/wasnorm_wordpool_576.txt	LTP352	ltpFR2	0	7	TART	1436	n/a	n/a	0	0	0
1818.82861328125	n/a	WORD	3724961	wordpools/wasnorm_wordpool_576.txt	LTP352	ltpFR2	0	7	DOUGHNUT	490	n/a	n/a	0	0	0
1821.37646484375	n/a	WORD	3730179	wordpools/wasnorm_wordpool_576.txt	LTP352	ltpFR2	0	7	MAPLE	866	n/a	n/a	0	0	0
1824.01025390625	n/a	WORD	3735573	wordpools/wasnorm_wordpool_576.txt	LTP352	ltpFR2	0	7	SHRUB	1299	n/a	n/a	0	0	0
1826.45751953125	n/a	WORD	3740585	wordpools/wasnorm_wordpool_576.txt	LTP352	ltpFR2	0	7	JELLY	755	n/a	n/a	0	0	0
1829.22314453125	n/a	WORD	3746249	wordpools/wasnorm_wordpool_576.txt	LTP352	ltpFR2	0	7	SHERIFF	1284	n/a	n/a	0	0	0
1831.955078125	n/a	WORD	3751844	wordpools/wasnorm_wordpool_576.txt	LTP352	ltpFR2	0	7	LUGGAGE	847	n/a	n/a	0	0	0
1834.6201171875	n/a	WORD	3757302	wordpools/wasnorm_wordpool_576.txt	LTP352	ltpFR2	0	7	TERMITE	1451	n/a	n/a	0	0	0
1837.43603515625	n/a	WORD	3763069	wordpools/wasnorm_wordpool_576.txt	LTP352	ltpFR2	0	7	HONEY	713	n/a	n/a	0	0	0
1840.01904296875	n/a	WORD	3768359	wordpools/wasnorm_wordpool_576.txt	LTP352	ltpFR2	0	7	OUTLAW	989	n/a	n/a	0	0	0
1842.64990234375	n/a	WORD	3773747	wordpools/wasnorm_wordpool_576.txt	LTP352	ltpFR2	0	7	CRAYON	401	n/a	n/a	0	0	0
1845.36572265625	n/a	WORD	3779309	wordpools/wasnorm_wordpool_576.txt	LTP352	ltpFR2	0	7	BODY	145	n/a	n/a	0	0	0
1847.9638671875	n/a	WORD	3784630	wordpools/wasnorm_wordpool_576.txt	LTP352	ltpFR2	0	7	NOTEBOOK	959	n/a	n/a	0	0	0
1850.4296875	n/a	WORD	3789680	wordpools/wasnorm_wordpool_576.txt	LTP352	ltpFR2	0	7	PAPER	1011	n/a	n/a	0	0	0
1853.02978515625	n/a	WORD	3795005	wordpools/wasnorm_wordpool_576.txt	LTP352	ltpFR2	0	7	PORK	1108	n/a	n/a	0	0	0
1855.49365234375	n/a	WORD	3800051	wordpools/wasnorm_wordpool_576.txt	LTP352	ltpFR2	0	7	ROBBER	1197	n/a	n/a	0	0	0
1857.9423828125	n/a	WORD	3805066	wordpools/wasnorm_wordpool_576.txt	LTP352	ltpFR2	0	7	PIGMENT	1066	n/a	n/a	0	0	0
1860.62451171875	n/a	WORD	3810559	wordpools/wasnorm_wordpool_576.txt	LTP352	ltpFR2	0	7	GUITAR	670	n/a	n/a	0	0	0
1863.42333984375	n/a	WORD	3816291	wordpools/wasnorm_wordpool_576.txt	LTP352	ltpFR2	0	7	CRAB	397	n/a	n/a	0	0	0
1866.17236328125	n/a	WORD	3821921	wordpools/wasnorm_wordpool_576.txt	LTP352	ltpFR2	0	7	SHELF	1280	n/a	n/a	0	0	0
1868.72119140625	n/a	WORD	3827141	wordpools/wasnorm_wordpool_576.txt	LTP352	ltpFR2	0	7	LADY	794	n/a	n/a	0	0	0
1871.18603515625	n/a	WORD	3832189	wordpools/wasnorm_wordpool_576.txt	LTP352	ltpFR2	0	7	FOREHEAD	592	n/a	n/a	0	0	0
1872.80224609375	n/a	START	3835499	n/a	LTP352	ltpFR2	0	n/a	n/a	n/a	11	n/a	n/a	n/a	n/a
1873.80224609375	n/a	DISTRACTOR	3837547	n/a	LTP352	ltpFR2	0	7	n/a	n/a	n/a	n/a	0	0	0
1873.818359375	n/a	PROB	3837580	n/a	LTP352	ltpFR2	0	n/a	n/a	n/a	11	20	8	4	8
1876.01806640625	n/a	PROB	3842085	n/a	LTP352	ltpFR2	0	n/a	n/a	n/a	11	21	8	9	4
1878.8662109375	n/a	PROB	3847918	n/a	LTP352	ltpFR2	0	n/a	n/a	n/a	11	11	5	2	4
1881.248046875	n/a	PROB	3852796	n/a	LTP352	ltpFR2	0	n/a	n/a	n/a	11	12	5	4	3
1883.23095703125	n/a	PROB	3856857	n/a	LTP352	ltpFR2	0	n/a	n/a	n/a	11	17	3	6	8
1885.2626953125	n/a	PROB	3861018	n/a	LTP352	ltpFR2	0	n/a	n/a	n/a	11	8	4	1	3
1887.07861328125	n/a	PROB	3864737	n/a	LTP352	ltpFR2	0	n/a	n/a	n/a	11	15	7	4	4
1889.66064453125	n/a	PROB	3870025	n/a	LTP352	ltpFR2	0	n/a	n/a	n/a	11	9	4	4	1
1891.4765625	n/a	PROB	3873744	n/a	LTP352	ltpFR2	0	n/a	n/a	n/a	11	18	4	9	5
1896.80126953125	n/a	STOP	3884649	n/a	LTP352	ltpFR2	0	n/a	n/a	n/a	11	n/a	n/a	n/a	n/a
1898.740234375	n/a	REC_START	3888620	n/a	LTP352	ltpFR2	0	7	n/a	n/a	n/a	n/a	0	0	0
1900.3193359375	n/a	REC_WORD	3891854	wordpools/wasnorm_wordpool_576.txt	LTP352	ltpFR2	0	7	SUSPECT	1415	n/a	n/a	0	0	0
1902.4423828125	n/a	REC_WORD	3896202	wordpools/wasnorm_wordpool_576.txt	LTP352	ltpFR2	0	7	ROBBER	1197	n/a	n/a	0	0	0
1904.91650390625	n/a	REC_WORD	3901269	wordpools/wasnorm_wordpool_576.txt	LTP352	ltpFR2	0	7	WOMAN	1620	n/a	n/a	0	0	0
1906.64208984375	n/a	REC_WORD	3904803	wordpools/wasnorm_wordpool_576.txt	LTP352	ltpFR2	0	7	LUGGAGE	847	n/a	n/a	0	0	0
1909.326171875	n/a	REC_WORD	3910300	wordpools/wasnorm_wordpool_576.txt	LTP352	ltpFR2	0	7	SHERIFF	1284	n/a	n/a	0	0	0
1911.60498046875	n/a	REC_WORD	3914967	wordpools/wasnorm_wordpool_576.txt	LTP352	ltpFR2	0	7	PIGMENT	1066	n/a	n/a	0	0	0
1912.8798828125	n/a	REC_WORD	3917578	wordpools/wasnorm_wordpool_576.txt	LTP352	ltpFR2	0	7	CRAYON	401	n/a	n/a	0	0	0
1913.9072265625	n/a	REC_WORD	3919682	wordpools/wasnorm_wordpool_576.txt	LTP352	ltpFR2	0	7	FOREHEAD	592	n/a	n/a	0	0	0
1915.43408203125	n/a	REC_WORD	3922809	wordpools/wasnorm_wordpool_576.txt	LTP352	ltpFR2	0	7	BUSH	202	n/a	n/a	0	0	0
1917.4267578125	n/a	REC_WORD	3926890	wordpools/wasnorm_wordpool_576.txt	LTP352	ltpFR2	0	7	TART	1436	n/a	n/a	0	0	0
1918.90771484375	n/a	REC_WORD	3929923	wordpools/wasnorm_wordpool_576.txt	LTP352	ltpFR2	0	7	MAPLE	866	n/a	n/a	0	0	0
1923.1748046875	n/a	REC_WORD	3938662	wordpools/wasnorm_wordpool_576.txt	LTP352	ltpFR2	0	7	PAPER	1011	n/a	n/a	0	0	0
1928.0634765625	n/a	REC_WORD	3948674	wordpools/wasnorm_wordpool_576.txt	LTP352	ltpFR2	0	7	PORK	1108	n/a	n/a	0	0	0
1930.67236328125	n/a	REC_WORD	3954017	wordpools/wasnorm_wordpool_576.txt	LTP352	ltpFR2	0	7	OUTLAW	989	n/a	n/a	0	0	0
1948.375	n/a	REC_WORD	3990272	wordpools/wasnorm_wordpool_576.txt	LTP352	ltpFR2	0	7	DOUGHNUT	490	n/a	n/a	0	0	0
1949.43017578125	n/a	REC_WORD	3992433	wordpools/wasnorm_wordpool_576.txt	LTP352	ltpFR2	0	7	JELLY	755	n/a	n/a	0	0	0
1970.232421875	n/a	REC_WORD	4035036	wordpools/wasnorm_wordpool_576.txt	LTP352	ltpFR2	0	7	TERMITE	1451	n/a	n/a	0	0	0
1989.212890625	n/a	WORD	4073908	wordpools/wasnorm_wordpool_576.txt	LTP352	ltpFR2	0	8	CASKET	255	n/a	n/a	0	0	0
1991.81201171875	n/a	WORD	4079231	wordpools/wasnorm_wordpool_576.txt	LTP352	ltpFR2	0	8	KETCHUP	771	n/a	n/a	0	0	0
1994.32666015625	n/a	WORD	4084381	wordpools/wasnorm_wordpool_576.txt	LTP352	ltpFR2	0	8	RADISH	1158	n/a	n/a	0	0	0
1997.05859375	n/a	WORD	4089976	wordpools/wasnorm_wordpool_576.txt	LTP352	ltpFR2	0	8	TREAT	1501	n/a	n/a	0	0	0
1999.82470703125	n/a	WORD	4095641	wordpools/wasnorm_wordpool_576.txt	LTP352	ltpFR2	0	8	LACE	792	n/a	n/a	0	0	0
2002.556640625	n/a	WORD	4101236	wordpools/wasnorm_wordpool_576.txt	LTP352	ltpFR2	0	8	SCOTCH	1251	n/a	n/a	0	0	0
2005.0556640625	n/a	WORD	4106354	wordpools/wasnorm_wordpool_576.txt	LTP352	ltpFR2	0	8	DENIM	446	n/a	n/a	0	0	0
2007.75439453125	n/a	WORD	4111881	wordpools/wasnorm_wordpool_576.txt	LTP352	ltpFR2	0	8	PREACHER	1119	n/a	n/a	0	0	0
2010.46923828125	n/a	WORD	4117441	wordpools/wasnorm_wordpool_576.txt	LTP352	ltpFR2	0	8	AUTHOR	61	n/a	n/a	0	0	0
2013.16845703125	n/a	WORD	4122969	wordpools/wasnorm_wordpool_576.txt	LTP352	ltpFR2	0	8	TUBA	1515	n/a	n/a	0	0	0
2015.8671875	n/a	WORD	4128496	wordpools/wasnorm_wordpool_576.txt	LTP352	ltpFR2	0	8	NOVEL	960	n/a	n/a	0	0	0
2018.482421875	n/a	WORD	4133852	wordpools/wasnorm_wordpool_576.txt	LTP352	ltpFR2	0	8	TWIG	1527	n/a	n/a	0	0	0
2021.29736328125	n/a	WORD	4139617	wordpools/wasnorm_wordpool_576.txt	LTP352	ltpFR2	0	8	BRACES	164	n/a	n/a	0	0	0
2024.01416015625	n/a	WORD	4145181	wordpools/wasnorm_wordpool_576.txt	LTP352	ltpFR2	0	8	GANGSTER	620	n/a	n/a	0	0	0
2026.828125	n/a	WORD	4150944	wordpools/wasnorm_wordpool_576.txt	LTP352	ltpFR2	0	8	PISTOL	1075	n/a	n/a	0	0	0
2029.39404296875	n/a	WORD	4156199	wordpools/wasnorm_wordpool_576.txt	LTP352	ltpFR2	0	8	JOURNAL	760	n/a	n/a	0	0	0
2032.14208984375	n/a	WORD	4161827	wordpools/wasnorm_wordpool_576.txt	LTP352	ltpFR2	0	8	COUSIN	392	n/a	n/a	0	0	0
2034.625	n/a	WORD	4166912	wordpools/wasnorm_wordpool_576.txt	LTP352	ltpFR2	0	8	PRIMATE	1123	n/a	n/a	0	0	0
2037.056640625	n/a	WORD	4171892	wordpools/wasnorm_wordpool_576.txt	LTP352	ltpFR2	0	8	FLASK	576	n/a	n/a	0	0	0
2039.8056640625	n/a	WORD	4177522	wordpools/wasnorm_wordpool_576.txt	LTP352	ltpFR2	0	8	CASHEW	253	n/a	n/a	0	0	0
2042.45361328125	n/a	WORD	4182945	wordpools/wasnorm_wordpool_576.txt	LTP352	ltpFR2	0	8	PECAN	1036	n/a	n/a	0	0	0
2045.08642578125	n/a	WORD	4188337	wordpools/wasnorm_wordpool_576.txt	LTP352	ltpFR2	0	8	BROTHER	179	n/a	n/a	0	0	0
2047.80126953125	n/a	WORD	4193897	wordpools/wasnorm_wordpool_576.txt	LTP352	ltpFR2	0	8	PENGUIN	1044	n/a	n/a	0	0	0
2050.25048828125	n/a	WORD	4198913	wordpools/wasnorm_wordpool_576.txt	LTP352	ltpFR2	0	8	LAPEL	800	n/a	n/a	0	0	0
2051.8662109375	n/a	START	4202222	n/a	LTP352	ltpFR2	0	n/a	n/a	n/a	12	n/a	n/a	n/a	n/a
2052.96337890625	n/a	DISTRACTOR	4204469	n/a	LTP352	ltpFR2	0	8	n/a	n/a	n/a	n/a	0	0	0
2052.96533203125	n/a	PROB	4204473	n/a	LTP352	ltpFR2	0	n/a	n/a	n/a	12	11	4	1	6
2055.4482421875	n/a	PROB	4209558	n/a	LTP352	ltpFR2	0	n/a	n/a	n/a	12	19	3	7	9
2056.97998046875	n/a	PROB	4212695	n/a	LTP352	ltpFR2	0	n/a	n/a	n/a	12	13	1	3	9
2058.79638671875	n/a	PROB	4216415	n/a	LTP352	ltpFR2	0	n/a	n/a	n/a	12	23	9	9	5
2061.06201171875	n/a	PROB	4221055	n/a	LTP352	ltpFR2	0	n/a	n/a	n/a	12	12	3	4	5
2063.60986328125	n/a	PROB	4226273	n/a	LTP352	ltpFR2	0	n/a	n/a	n/a	12	10	7	1	2
2065.4931640625	n/a	PROB	4230130	n/a	LTP352	ltpFR2	0	n/a	n/a	n/a	12	13	6	6	1
2066.80908203125	n/a	PROB	4232825	n/a	LTP352	ltpFR2	0	n/a	n/a	n/a	12	16	6	7	3
2068.82470703125	n/a	PROB	4236953	n/a	LTP352	ltpFR2	0	n/a	n/a	n/a	12	20	9	8	3
2070.74072265625	n/a	PROB	4240877	n/a	LTP352	ltpFR2	0	n/a	n/a	n/a	12	10	3	2	5
2072.6728515625	n/a	PROB	4244834	n/a	LTP352	ltpFR2	0	n/a	n/a	n/a	12	11	2	7	2
2075.169921875	n/a	STOP	4249948	n/a	LTP352	ltpFR2	0	n/a	n/a	n/a	12	n/a	n/a	n/a	n/a
2077.78759765625	n/a	REC_START	4255309	n/a	LTP352	ltpFR2	0	8	n/a	n/a	n/a	n/a	0	0	0
2079.49267578125	n/a	REC_WORD	4258801	wordpools/wasnorm_wordpool_576.txt	LTP352	ltpFR2	0	8	CASKET	255	n/a	n/a	0	0	0
2080.61279296875	n/a	REC_WORD	4261095	wordpools/wasnorm_wordpool_576.txt	LTP352	ltpFR2	0	8	RADISH	1158	n/a	n/a	0	0	0
2082.36962890625	n/a	REC_WORD	4264693	wordpools/wasnorm_wordpool_576.txt	LTP352	ltpFR2	0	8	PREACHER	1119	n/a	n/a	0	0	0
2083.9833984375	n/a	REC_WORD	4267998	wordpools/wasnorm_wordpool_576.txt	LTP352	ltpFR2	0	8	BROTHER	179	n/a	n/a	0	0	0
2084.599609375	n/a	REC_WORD	4269260	wordpools/wasnorm_wordpool_576.txt	LTP352	ltpFR2	0	8	COUSIN	392	n/a	n/a	0	0	0
2085.529296875	n/a	REC_WORD	4271164	wordpools/wasnorm_wordpool_576.txt	LTP352	ltpFR2	0	8	AUTHOR	61	n/a	n/a	0	0	0
2087.46728515625	n/a	REC_WORD	4275133	wordpools/wasnorm_wordpool_576.txt	LTP352	ltpFR2	0	8	JOURNAL	760	n/a	n/a	0	0	0
2088.88525390625	n/a	REC_WORD	4278037	wordpools/wasnorm_wordpool_576.txt	LTP352	ltpFR2	0	8	GANGSTER	620	n/a	n/a	0	0	0
2090.22216796875	n/a	REC_WORD	4280775	wordpools/wasnorm_wordpool_576.txt	LTP352	ltpFR2	0	8	PISTOL	1075	n/a	n/a	0	0	0
2094.744140625	n/a	REC_WORD	4290036	wordpools/wasnorm_wordpool_576.txt	LTP352	ltpFR2	0	8	CASHEW	253	n/a	n/a	0	0	0
2095.47705078125	n/a	REC_WORD	4291537	wordpools/wasnorm_wordpool_576.txt	LTP352	ltpFR2	0	8	PECAN	1036	n/a	n/a	0	0	0
2096.7041015625	n/a	REC_WORD	4294050	wordpools/wasnorm_wordpool_576.txt	LTP352	ltpFR2	0	8	SCOTCH	1251	n/a	n/a	0	0	0
2097.46533203125	n/a	REC_WORD	4295609	wordpools/wasnorm_wordpool_576.txt	LTP352	ltpFR2	0	8	FLASK	576	n/a	n/a	0	0	0
2098.703125	n/a	REC_WORD	4298144	wordpools/wasnorm_wordpool_576.txt	LTP352	ltpFR2	0	8	TUBA	1515	n/a	n/a	0	0	0
2101.68408203125	n/a	REC_WORD	4304249	wordpools/wasnorm_wordpool_576.txt	LTP352	ltpFR2	0	8	BRANCH	168	n/a	n/a	0	0	0
2112.78955078125	n/a	REC_WORD	4326993	wordpools/wasnorm_wordpool_576.txt	LTP352	ltpFR2	0	8	KETCHUP	771	n/a	n/a	0	0	0
2140.52978515625	n/a	REC_WORD	4383805	wordpools/wasnorm_wordpool_576.txt	LTP352	ltpFR2	0	8	LACE	792	n/a	n/a	0	0	0
2142.9599609375	n/a	REC_WORD	4388782	wordpools/wasnorm_wordpool_576.txt	LTP352	ltpFR2	0	8	DENIM	446	n/a	n/a	0	0	0
2154.31640625	n/a	REST_REWET	4412040	n/a	LTP352	ltpFR2	0	8	n/a	n/a	n/a	n/a	0	0	0
2334.14697265625	n/a	DISTRACTOR	4780333	n/a	LTP352	ltpFR2	0	9	n/a	n/a	n/a	n/a	0	0	0
2334.14794921875	n/a	START	4780335	n/a	LTP352	ltpFR2	0	n/a	n/a	n/a	13	n/a	n/a	n/a	n/a
2334.16357421875	n/a	PROB	4780367	n/a	LTP352	ltpFR2	0	n/a	n/a	n/a	13	13	5	6	2
2336.07958984375	n/a	PROB	4784291	n/a	LTP352	ltpFR2	0	n/a	n/a	n/a	13	15	8	1	6
2338.0947265625	n/a	PROB	4788418	n/a	LTP352	ltpFR2	0	n/a	n/a	n/a	13	15	5	3	7
2340.11083984375	n/a	PROB	4792547	n/a	LTP352	ltpFR2	0	n/a	n/a	n/a	13	17	8	3	6
2342.65966796875	n/a	PROB	4797767	n/a	LTP352	ltpFR2	0	n/a	n/a	n/a	13	14	5	4	5
2344.42529296875	n/a	PROB	4801383	n/a	LTP352	ltpFR2	0	n/a	n/a	n/a	13	5	2	1	2
2346.19140625	n/a	PROB	4805000	n/a	LTP352	ltpFR2	0	n/a	n/a	n/a	13	15	4	2	9
2347.92333984375	n/a	PROB	4808547	n/a	LTP352	ltpFR2	0	n/a	n/a	n/a	13	9	2	6	1
2349.75634765625	n/a	PROB	4812301	n/a	LTP352	ltpFR2	0	n/a	n/a	n/a	13	17	6	6	5
2351.322265625	n/a	PROB	4815508	n/a	LTP352	ltpFR2	0	n/a	n/a	n/a	13	8	1	3	4
2353.05419921875	n/a	PROB	4819055	n/a	LTP352	ltpFR2	0	n/a	n/a	n/a	13	18	6	7	5
2355.1201171875	n/a	PROB	4823286	n/a	LTP352	ltpFR2	0	n/a	n/a	n/a	13	11	1	1	9
2356.486328125	n/a	PROB	4826084	n/a	LTP352	ltpFR2	0	n/a	n/a	n/a	13	11	1	9	1
2357.5859375	n/a	STOP	4828336	n/a	LTP352	ltpFR2	0	n/a	n/a	n/a	13	n/a	n/a	n/a	n/a
2359.251953125	n/a	WORD	4831748	wordpools/wasnorm_wordpool_576.txt	LTP352	ltpFR2	0	9	HOOK	715	n/a	n/a	0	0	0
2362.05029296875	n/a	WORD	4837479	wordpools/wasnorm_wordpool_576.txt	LTP352	ltpFR2	0	9	REBEL	1172	n/a	n/a	0	0	0
2364.7490234375	n/a	WORD	4843006	wordpools/wasnorm_wordpool_576.txt	LTP352	ltpFR2	0	9	MAMMAL	861	n/a	n/a	0	0	0
2367.2978515625	n/a	WORD	4848226	wordpools/wasnorm_wordpool_576.txt	LTP352	ltpFR2	0	9	PROTON	1132	n/a	n/a	0	0	0
2369.830078125	n/a	WORD	4853412	wordpools/wasnorm_wordpool_576.txt	LTP352	ltpFR2	0	9	DANDRUFF	439	n/a	n/a	0	0	0
2372.2958984375	n/a	WORD	4858462	wordpools/wasnorm_wordpool_576.txt	LTP352	ltpFR2	0	9	GYMNAST	675	n/a	n/a	0	0	0
2374.8935546875	n/a	WORD	4863782	wordpools/wasnorm_wordpool_576.txt	LTP352	ltpFR2	0	9	BADGE	68	n/a	n/a	0	0	0
2377.65966796875	n/a	WORD	4869447	wordpools/wasnorm_wordpool_576.txt	LTP352	ltpFR2	0	9	TURKEY	1520	n/a	n/a	0	0	0
2380.30859375	n/a	WORD	4874872	wordpools/wasnorm_wordpool_576.txt	LTP352	ltpFR2	0	9	DIME	466	n/a	n/a	0	0	0
2382.87353515625	n/a	WORD	4880125	wordpools/wasnorm_wordpool_576.txt	LTP352	ltpFR2	0	9	BLACKBOARD	133	n/a	n/a	0	0	0
2385.6884765625	n/a	WORD	4885890	wordpools/wasnorm_wordpool_576.txt	LTP352	ltpFR2	0	9	PUPIL	1143	n/a	n/a	0	0	0
2388.45458984375	n/a	WORD	4891555	wordpools/wasnorm_wordpool_576.txt	LTP352	ltpFR2	0	9	PATROL	1027	n/a	n/a	0	0	0
2391.18603515625	n/a	WORD	4897149	wordpools/wasnorm_wordpool_576.txt	LTP352	ltpFR2	0	9	CIGAR	308	n/a	n/a	0	0	0
2393.78515625	n/a	WORD	4902472	wordpools/wasnorm_wordpool_576.txt	LTP352	ltpFR2	0	9	EYELASH	546	n/a	n/a	0	0	0
2396.26708984375	n/a	WORD	4907555	wordpools/wasnorm_wordpool_576.txt	LTP352	ltpFR2	0	9	SEAL	1262	n/a	n/a	0	0	0
2398.783203125	n/a	WORD	4912708	wordpools/wasnorm_wordpool_576.txt	LTP352	ltpFR2	0	9	MILDEW	893	n/a	n/a	0	0	0
2401.48095703125	n/a	WORD	4918233	wordpools/wasnorm_wordpool_576.txt	LTP352	ltpFR2	0	9	LILY	821	n/a	n/a	0	0	0
2404.27978515625	n/a	WORD	4923965	wordpools/wasnorm_wordpool_576.txt	LTP352	ltpFR2	0	9	VELVET	1555	n/a	n/a	0	0	0
2406.9970703125	n/a	WORD	4929530	wordpools/wasnorm_wordpool_576.txt	LTP352	ltpFR2	0	9	FLESH	579	n/a	n/a	0	0	0
2409.61083984375	n/a	WORD	4934883	wordpools/wasnorm_wordpool_576.txt	LTP352	ltpFR2	0	9	FLAG	573	n/a	n/a	0	0	0
2412.0595703125	n/a	WORD	4939898	wordpools/wasnorm_wordpool_576.txt	LTP352	ltpFR2	0	9	KNIFE	785	n/a	n/a	0	0	0
2414.70849609375	n/a	WORD	4945323	wordpools/wasnorm_wordpool_576.txt	LTP352	ltpFR2	0	9	RAZOR	1171	n/a	n/a	0	0	0
2417.2578125	n/a	WORD	4950544	wordpools/wasnorm_wordpool_576.txt	LTP352	ltpFR2	0	9	ISLAND	745	n/a	n/a	0	0	0
2419.85546875	n/a	WORD	4955864	wordpools/wasnorm_wordpool_576.txt	LTP352	ltpFR2	0	9	BINDER	127	n/a	n/a	0	0	0
2421.47265625	n/a	START	4959176	n/a	LTP352	ltpFR2	0	n/a	n/a	n/a	14	n/a	n/a	n/a	n/a
2422.5673828125	n/a	DISTRACTOR	4961418	n/a	LTP352	ltpFR2	0	9	n/a	n/a	n/a	n/a	0	0	0
2422.5712890625	n/a	PROB	4961426	n/a	LTP352	ltpFR2	0	n/a	n/a	n/a	14	18	6	6	6
2424.53759765625	n/a	PROB	4965453	n/a	LTP352	ltpFR2	0	n/a	n/a	n/a	14	13	7	3	3
2426.55224609375	n/a	PROB	4969579	n/a	LTP352	ltpFR2	0	n/a	n/a	n/a	14	4	1	2	1
2428.2353515625	n/a	PROB	4973026	n/a	LTP352	ltpFR2	0	n/a	n/a	n/a	14	16	3	9	4
2430.8671875	n/a	PROB	4978416	n/a	LTP352	ltpFR2	0	n/a	n/a	n/a	14	16	5	8	3
2432.916015625	n/a	PROB	4982612	n/a	LTP352	ltpFR2	0	n/a	n/a	n/a	14	19	4	7	8
2435.4482421875	n/a	PROB	4987798	n/a	LTP352	ltpFR2	0	n/a	n/a	n/a	14	13	3	3	7
2436.76416015625	n/a	PROB	4990493	n/a	LTP352	ltpFR2	0	n/a	n/a	n/a	14	6	2	1	3
2439.080078125	n/a	PROB	4995236	n/a	LTP352	ltpFR2	0	n/a	n/a	n/a	14	19	5	9	5
2440.7958984375	n/a	PROB	4998750	n/a	LTP352	ltpFR2	0	n/a	n/a	n/a	14	21	6	7	8
2442.7451171875	n/a	PROB	5002742	n/a	LTP352	ltpFR2	0	n/a	n/a	n/a	14	10	2	3	5
2444.85888671875	n/a	STOP	5007071	n/a	LTP352	ltpFR2	0	n/a	n/a	n/a	14	n/a	n/a	n/a	n/a
2447.40966796875	n/a	REC_START	5012295	n/a	LTP352	ltpFR2	0	9	n/a	n/a	n/a	n/a	0	0	0
2448.853515625	n/a	REC_WORD	5015252	wordpools/wasnorm_wordpool_576.txt	LTP352	ltpFR2	0	9	GYMNAST	675	n/a	n/a	0	0	0
2450.66357421875	n/a	REC_WORD	5018959	wordpools/wasnorm_wordpool_576.txt	LTP352	ltpFR2	0	9	PATROL	1027	n/a	n/a	0	0	0
2452.08056640625	n/a	REC_WORD	5021861	wordpools/wasnorm_wordpool_576.txt	LTP352	ltpFR2	0	9	RAZOR	1171	n/a	n/a	0	0	0
2452.73974609375	n/a	REC_WORD	5023211	wordpools/wasnorm_wordpool_576.txt	LTP352	ltpFR2	0	9	KNIFE	785	n/a	n/a	0	0	0
2453.6435546875	n/a	REC_WORD	5025062	wordpools/wasnorm_wordpool_576.txt	LTP352	ltpFR2	0	9	BINDER	127	n/a	n/a	0	0	0
2457.76025390625	n/a	REC_WORD	5033493	wordpools/wasnorm_wordpool_576.txt	LTP352	ltpFR2	0	9	DIME	466	n/a	n/a	0	0	0
2462.04638671875	n/a	REC_WORD	5042271	wordpools/wasnorm_wordpool_576.txt	LTP352	ltpFR2	0	9	PUPIL	1143	n/a	n/a	0	0	0
2464.8544921875	n/a	REC_WORD	5048022	wordpools/wasnorm_wordpool_576.txt	LTP352	ltpFR2	0	9	EYELASH	546	n/a	n/a	0	0	0
2466.3564453125	n/a	REC_WORD	5051098	wordpools/wasnorm_wordpool_576.txt	LTP352	ltpFR2	0	9	LILY	821	n/a	n/a	0	0	0
2469.3759765625	n/a	REC_WORD	5057282	wordpools/wasnorm_wordpool_576.txt	LTP352	ltpFR2	0	9	SEAL	1262	n/a	n/a	0	0	0
2470.2421875	n/a	REC_WORD	5059056	wordpools/wasnorm_wordpool_576.txt	LTP352	ltpFR2	0	9	ISLAND	745	n/a	n/a	0	0	0
2471.66015625	n/a	REC_WORD	5061960	wordpools/wasnorm_wordpool_576.txt	LTP352	ltpFR2	0	9	MAMMAL	861	n/a	n/a	0	0	0
2477.3662109375	n/a	REC_WORD	5073646	wordpools/wasnorm_wordpool_576.txt	LTP352	ltpFR2	0	9	FLESH	579	n/a	n/a	0	0	0
2478.44873046875	n/a	REC_WORD	5075863	wordpools/wasnorm_wordpool_576.txt	LTP352	ltpFR2	0	9	VELVET	1555	n/a	n/a	0	0	0
2537.84912109375	n/a	DISTRACTOR	5197515	n/a	LTP352	ltpFR2	0	10	n/a	n/a	n/a	n/a	0	0	0
2537.84912109375	n/a	START	5197515	n/a	LTP352	ltpFR2	0	n/a	n/a	n/a	15	n/a	n/a	n/a	n/a
2537.8662109375	n/a	PROB	5197550	n/a	LTP352	ltpFR2	0	n/a	n/a	n/a	15	8	2	3	3
2539.76513671875	n/a	PROB	5201439	n/a	LTP352	ltpFR2	0	n/a	n/a	n/a	15	17	8	2	7
2542.79736328125	n/a	PROB	5207649	n/a	LTP352	ltpFR2	0	n/a	n/a	n/a	15	6	2	3	1
2544.29638671875	n/a	PROB	5210719	n/a	LTP352	ltpFR2	0	n/a	n/a	n/a	15	16	9	6	1
2546.14501953125	n/a	PROB	5214505	n/a	LTP352	ltpFR2	0	n/a	n/a	n/a	15	12	3	5	4
2547.84423828125	n/a	PROB	5217985	n/a	LTP352	ltpFR2	0	n/a	n/a	n/a	15	10	2	4	4
2550.17578125	n/a	PROB	5222760	n/a	LTP352	ltpFR2	0	n/a	n/a	n/a	15	15	4	3	8
2551.92578125	n/a	PROB	5226344	n/a	LTP352	ltpFR2	0	n/a	n/a	n/a	15	15	7	4	3
2555.89111328125	n/a	PROB	5234465	n/a	LTP352	ltpFR2	0	n/a	n/a	n/a	15	12	5	1	6
2557.73974609375	n/a	PROB	5238251	n/a	LTP352	ltpFR2	0	n/a	n/a	n/a	15	17	8	5	4
2561.8486328125	n/a	STOP	5246666	n/a	LTP352	ltpFR2	0	n/a	n/a	n/a	15	n/a	n/a	n/a	n/a
2562.853515625	n/a	WORD	5248724	wordpools/wasnorm_wordpool_576.txt	LTP352	ltpFR2	0	10	BUTCHER	203	n/a	n/a	0	0	0
2565.65283203125	n/a	WORD	5254457	wordpools/wasnorm_wordpool_576.txt	LTP352	ltpFR2	0	10	WIDOW	1608	n/a	n/a	0	0	0
2568.3173828125	n/a	WORD	5259914	wordpools/wasnorm_wordpool_576.txt	LTP352	ltpFR2	0	10	PUDDING	1139	n/a	n/a	0	0	0
2571.017578125	n/a	WORD	5265444	wordpools/wasnorm_wordpool_576.txt	LTP352	ltpFR2	0	10	ICEBERG	731	n/a	n/a	0	0	0
2573.68115234375	n/a	WORD	5270899	wordpools/wasnorm_wordpool_576.txt	LTP352	ltpFR2	0	10	FARMER	553	n/a	n/a	0	0	0
2576.13037109375	n/a	WORD	5275915	wordpools/wasnorm_wordpool_576.txt	LTP352	ltpFR2	0	10	XEROX	1628	n/a	n/a	0	0	0
2578.79638671875	n/a	WORD	5281375	wordpools/wasnorm_wordpool_576.txt	LTP352	ltpFR2	0	10	BABY	64	n/a	n/a	0	0	0
2581.29541015625	n/a	WORD	5286493	wordpools/wasnorm_wordpool_576.txt	LTP352	ltpFR2	0	10	ONION	977	n/a	n/a	0	0	0
2583.91015625	n/a	WORD	5291848	wordpools/wasnorm_wordpool_576.txt	LTP352	ltpFR2	0	10	PRINCE	1124	n/a	n/a	0	0	0
2586.6259765625	n/a	WORD	5297410	wordpools/wasnorm_wordpool_576.txt	LTP352	ltpFR2	0	10	ELBOW	520	n/a	n/a	0	0	0
2589.423828125	n/a	WORD	5303140	wordpools/wasnorm_wordpool_576.txt	LTP352	ltpFR2	0	10	OZONE	996	n/a	n/a	0	0	0
2591.873046875	n/a	WORD	5308156	wordpools/wasnorm_wordpool_576.txt	LTP352	ltpFR2	0	10	SCARF	1246	n/a	n/a	0	0	0
2594.57177734375	n/a	WORD	5313683	wordpools/wasnorm_wordpool_576.txt	LTP352	ltpFR2	0	10	CRIB	407	n/a	n/a	0	0	0
2597.02197265625	n/a	WORD	5318701	wordpools/wasnorm_wordpool_576.txt	LTP352	ltpFR2	0	10	GLOVE	642	n/a	n/a	0	0	0
2599.8359375	n/a	WORD	5324464	wordpools/wasnorm_wordpool_576.txt	LTP352	ltpFR2	0	10	LADDER	793	n/a	n/a	0	0	0
2602.58447265625	n/a	WORD	5330093	wordpools/wasnorm_wordpool_576.txt	LTP352	ltpFR2	0	10	COUNTY	389	n/a	n/a	0	0	0
2605.017578125	n/a	WORD	5335076	wordpools/wasnorm_wordpool_576.txt	LTP352	ltpFR2	0	10	SPACE	1345	n/a	n/a	0	0	0
2607.6982421875	n/a	WORD	5340566	wordpools/wasnorm_wordpool_576.txt	LTP352	ltpFR2	0	10	CRATER	400	n/a	n/a	0	0	0
2610.314453125	n/a	WORD	5345924	wordpools/wasnorm_wordpool_576.txt	LTP352	ltpFR2	0	10	HAND	683	n/a	n/a	0	0	0
2612.9794921875	n/a	WORD	5351382	wordpools/wasnorm_wordpool_576.txt	LTP352	ltpFR2	0	10	PIMPLE	1071	n/a	n/a	0	0	0
2615.79541015625	n/a	WORD	5357149	wordpools/wasnorm_wordpool_576.txt	LTP352	ltpFR2	0	10	HAWK	692	n/a	n/a	0	0	0
2618.29443359375	n/a	WORD	5362267	wordpools/wasnorm_wordpool_576.txt	LTP352	ltpFR2	0	10	PIGEON	1065	n/a	n/a	0	0	0
2620.75927734375	n/a	WORD	5367315	wordpools/wasnorm_wordpool_576.txt	LTP352	ltpFR2	0	10	ARM	38	n/a	n/a	0	0	0
2623.4580078125	n/a	WORD	5372842	wordpools/wasnorm_wordpool_576.txt	LTP352	ltpFR2	0	10	SHELTER	1282	n/a	n/a	0	0	0
2625.07421875	n/a	START	5376152	n/a	LTP352	ltpFR2	0	n/a	n/a	n/a	16	n/a	n/a	n/a	n/a
2626.06298828125	n/a	DISTRACTOR	5378177	n/a	LTP352	ltpFR2	0	10	n/a	n/a	n/a	n/a	0	0	0
2626.07275390625	n/a	PROB	5378197	n/a	LTP352	ltpFR2	0	n/a	n/a	n/a	16	12	2	8	2
2628.505859375	n/a	PROB	5383180	n/a	LTP352	ltpFR2	0	n/a	n/a	n/a	16	13	1	3	9
2630.62109375	n/a	PROB	5387512	n/a	LTP352	ltpFR2	0	n/a	n/a	n/a	16	13	4	1	8
2632.52001953125	n/a	PROB	5391401	n/a	LTP352	ltpFR2	0	n/a	n/a	n/a	16	12	4	4	4
2633.88671875	n/a	PROB	5394200	n/a	LTP352	ltpFR2	0	n/a	n/a	n/a	16	19	6	8	5
2635.8359375	n/a	PROB	5398192	n/a	LTP352	ltpFR2	0	n/a	n/a	n/a	16	16	6	5	5
2638.45068359375	n/a	PROB	5403547	n/a	LTP352	ltpFR2	0	n/a	n/a	n/a	16	5	1	3	1
2642.5654296875	n/a	PROB	5411974	n/a	LTP352	ltpFR2	0	n/a	n/a	n/a	16	17	6	2	9
2646.0634765625	n/a	PROB	5419138	n/a	LTP352	ltpFR2	0	n/a	n/a	n/a	16	12	8	2	2
2647.5712890625	n/a	STOP	5422226	n/a	LTP352	ltpFR2	0	n/a	n/a	n/a	16	n/a	n/a	n/a	n/a
2650.8955078125	n/a	REC_START	5429034	n/a	LTP352	ltpFR2	0	10	n/a	n/a	n/a	n/a	0	0	0
2652.6171875	n/a	REC_WORD	5432560	wordpools/wasnorm_wordpool_576.txt	LTP352	ltpFR2	0	10	BUTCHER	203	n/a	n/a	0	0	0
2653.1953125	n/a	REC_WORD	5433744	wordpools/wasnorm_wordpool_576.txt	LTP352	ltpFR2	0	10	FARMER	553	n/a	n/a	0	0	0
2654.73046875	n/a	REC_WORD	5436888	wordpools/wasnorm_wordpool_576.txt	LTP352	ltpFR2	0	10	WIDOW	1608	n/a	n/a	0	0	0
2656.78515625	n/a	REC_WORD	5441096	wordpools/wasnorm_wordpool_576.txt	LTP352	ltpFR2	0	10	PRINCE	1124	n/a	n/a	0	0	0
2658.5830078125	n/a	REC_WORD	5444778	wordpools/wasnorm_wordpool_576.txt	LTP352	ltpFR2	0	10	BABY	64	n/a	n/a	0	0	0
2659.3759765625	n/a	REC_WORD	5446402	wordpools/wasnorm_wordpool_576.txt	LTP352	ltpFR2	0	10	CRIB	407	n/a	n/a	0	0	0
2660.46923828125	n/a	REC_WORD	5448641	wordpools/wasnorm_wordpool_576.txt	LTP352	ltpFR2	0	10	SPACE	1345	n/a	n/a	0	0	0
2662.705078125	n/a	REC_WORD	5453220	wordpools/wasnorm_wordpool_576.txt	LTP352	ltpFR2	0	10	METEOR	889	n/a	n/a	0	0	0
2664.3369140625	n/a	REC_WORD	5456562	wordpools/wasnorm_wordpool_576.txt	LTP352	ltpFR2	0	10	COUNTY	389	n/a	n/a	0	0	0
2666.3701171875	n/a	REC_WORD	5460726	wordpools/wasnorm_wordpool_576.txt	LTP352	ltpFR2	0	10	LADDER	793	n/a	n/a	0	0	0
2668.4541015625	n/a	REC_WORD	5464994	wordpools/wasnorm_wordpool_576.txt	LTP352	ltpFR2	0	10	SHELTER	1282	n/a	n/a	0	0	0
2671.087890625	n/a	REC_WORD	5470388	wordpools/wasnorm_wordpool_576.txt	LTP352	ltpFR2	0	10	ELBOW	520	n/a	n/a	0	0	0
2671.65478515625	n/a	REC_WORD	5471549	wordpools/wasnorm_wordpool_576.txt	LTP352	ltpFR2	0	10	ARM	38	n/a	n/a	0	0	0
2672.21875	n/a	REC_WORD	5472704	wordpools/wasnorm_wordpool_576.txt	LTP352	ltpFR2	0	10	GLOVE	642	n/a	n/a	0	0	0
2672.7666015625	n/a	REC_WORD	5473826	wordpools/wasnorm_wordpool_576.txt	LTP352	ltpFR2	0	10	HAND	683	n/a	n/a	0	0	0
2679.767578125	n/a	REC_WORD	5488164	wordpools/wasnorm_wordpool_576.txt	LTP352	ltpFR2	0	10	ONION	977	n/a	n/a	0	0	0
2693.1982421875	n/a	REC_WORD	5515670	wordpools/wasnorm_wordpool_576.txt	LTP352	ltpFR2	0	10	XEROX	1628	n/a	n/a	0	0	0
2725.00048828125	n/a	REC_WORD	5580801	wordpools/wasnorm_wordpool_576.txt	LTP352	ltpFR2	0	10	PIMPLE	1071	n/a	n/a	0	0	0
2741.35107421875	n/a	DISTRACTOR	5614287	n/a	LTP352	ltpFR2	0	11	n/a	n/a	n/a	n/a	0	0	0
2741.35205078125	n/a	START	5614289	n/a	LTP352	ltpFR2	0	n/a	n/a	n/a	17	n/a	n/a	n/a	n/a
2741.36767578125	n/a	PROB	5614321	n/a	LTP352	ltpFR2	0	n/a	n/a	n/a	17	13	1	8	4
2744.23291015625	n/a	PROB	5620189	n/a	LTP352	ltpFR2	0	n/a	n/a	n/a	17	11	1	4	6
2746.265625	n/a	PROB	5624352	n/a	LTP352	ltpFR2	0	n/a	n/a	n/a	17	20	8	4	8
2748.36474609375	n/a	PROB	5628651	n/a	LTP352	ltpFR2	0	n/a	n/a	n/a	17	12	3	1	8
2749.94677734375	n/a	PROB	5631891	n/a	LTP352	ltpFR2	0	n/a	n/a	n/a	17	14	6	5	3
2751.7626953125	n/a	PROB	5635610	n/a	LTP352	ltpFR2	0	n/a	n/a	n/a	17	17	4	8	3
2754.49462890625	n/a	PROB	5641205	n/a	LTP352	ltpFR2	0	n/a	n/a	n/a	17	12	5	3	4
2756.41064453125	n/a	PROB	5645129	n/a	LTP352	ltpFR2	0	n/a	n/a	n/a	17	16	1	9	6
2757.96044921875	n/a	PROB	5648303	n/a	LTP352	ltpFR2	0	n/a	n/a	n/a	17	17	4	5	8
2759.8251953125	n/a	PROB	5652122	n/a	LTP352	ltpFR2	0	n/a	n/a	n/a	17	11	1	7	3
2762.82421875	n/a	PROB	5658264	n/a	LTP352	ltpFR2	0	n/a	n/a	n/a	17	14	3	2	9
2765.1640625	n/a	STOP	5663056	n/a	LTP352	ltpFR2	0	n/a	n/a	n/a	17	n/a	n/a	n/a	n/a
2766.2890625	n/a	WORD	5665360	wordpools/wasnorm_wordpool_576.txt	LTP352	ltpFR2	0	11	FOREST	593	n/a	n/a	0	0	0
2768.92138671875	n/a	WORD	5670751	wordpools/wasnorm_wordpool_576.txt	LTP352	ltpFR2	0	11	FIREPLACE	570	n/a	n/a	0	0	0
2771.703125	n/a	WORD	5676448	wordpools/wasnorm_wordpool_576.txt	LTP352	ltpFR2	0	11	BULLET	194	n/a	n/a	0	0	0
2774.2021484375	n/a	WORD	5681566	wordpools/wasnorm_wordpool_576.txt	LTP352	ltpFR2	0	11	LASER	801	n/a	n/a	0	0	0
2776.98486328125	n/a	WORD	5687265	wordpools/wasnorm_wordpool_576.txt	LTP352	ltpFR2	0	11	CORAL	378	n/a	n/a	0	0	0
2779.48291015625	n/a	WORD	5692381	wordpools/wasnorm_wordpool_576.txt	LTP352	ltpFR2	0	11	TOASTER	1472	n/a	n/a	0	0	0
2782.08203125	n/a	WORD	5697704	wordpools/wasnorm_wordpool_576.txt	LTP352	ltpFR2	0	11	APRON	35	n/a	n/a	0	0	0
2784.513671875	n/a	WORD	5702684	wordpools/wasnorm_wordpool_576.txt	LTP352	ltpFR2	0	11	DIVER	476	n/a	n/a	0	0	0
2787.11279296875	n/a	WORD	5708007	wordpools/wasnorm_wordpool_576.txt	LTP352	ltpFR2	0	11	POPCORN	1104	n/a	n/a	0	0	0
2789.8115234375	n/a	WORD	5713534	wordpools/wasnorm_wordpool_576.txt	LTP352	ltpFR2	0	11	QUARTER	1148	n/a	n/a	0	0	0
2792.37646484375	n/a	WORD	5718787	wordpools/wasnorm_wordpool_576.txt	LTP352	ltpFR2	0	11	LAMP	798	n/a	n/a	0	0	0
2795.142578125	n/a	WORD	5724452	wordpools/wasnorm_wordpool_576.txt	LTP352	ltpFR2	0	11	FLASHLIGHT	575	n/a	n/a	0	0	0
2797.95751953125	n/a	WORD	5730217	wordpools/wasnorm_wordpool_576.txt	LTP352	ltpFR2	0	11	VALLEY	1545	n/a	n/a	0	0	0
2800.53955078125	n/a	WORD	5735505	wordpools/wasnorm_wordpool_576.txt	LTP352	ltpFR2	0	11	CHAPEL	280	n/a	n/a	0	0	0
2803.271484375	n/a	WORD	5741100	wordpools/wasnorm_wordpool_576.txt	LTP352	ltpFR2	0	11	FILM	565	n/a	n/a	0	0	0
2806.0703125	n/a	WORD	5746832	wordpools/wasnorm_wordpool_576.txt	LTP352	ltpFR2	0	11	GRAPE	654	n/a	n/a	0	0	0
2808.501953125	n/a	WORD	5751812	wordpools/wasnorm_wordpool_576.txt	LTP352	ltpFR2	0	11	BLUEPRINT	142	n/a	n/a	0	0	0
2811.16796875	n/a	WORD	5757272	wordpools/wasnorm_wordpool_576.txt	LTP352	ltpFR2	0	11	ACTOR	5	n/a	n/a	0	0	0
2813.9501953125	n/a	WORD	5762970	wordpools/wasnorm_wordpool_576.txt	LTP352	ltpFR2	0	11	LAVA	804	n/a	n/a	0	0	0
2816.748046875	n/a	WORD	5768700	wordpools/wasnorm_wordpool_576.txt	LTP352	ltpFR2	0	11	OINTMENT	974	n/a	n/a	0	0	0
2819.4306640625	n/a	WORD	5774194	wordpools/wasnorm_wordpool_576.txt	LTP352	ltpFR2	0	11	HAMPER	682	n/a	n/a	0	0	0
2822.02880859375	n/a	WORD	5779515	wordpools/wasnorm_wordpool_576.txt	LTP352	ltpFR2	0	11	TYPIST	1532	n/a	n/a	0	0	0
2824.677734375	n/a	WORD	5784940	wordpools/wasnorm_wordpool_576.txt	LTP352	ltpFR2	0	11	OUTDOORS	987	n/a	n/a	0	0	0
2827.45947265625	n/a	WORD	5790637	wordpools/wasnorm_wordpool_576.txt	LTP352	ltpFR2	0	11	VALVE	1546	n/a	n/a	0	0	0
2829.07568359375	n/a	START	5793947	n/a	LTP352	ltpFR2	0	n/a	n/a	n/a	18	n/a	n/a	n/a	n/a
2830.16943359375	n/a	DISTRACTOR	5796187	n/a	LTP352	ltpFR2	0	11	n/a	n/a	n/a	n/a	0	0	0
2830.17529296875	n/a	PROB	5796199	n/a	LTP352	ltpFR2	0	n/a	n/a	n/a	18	10	4	3	3
2832.67431640625	n/a	PROB	5801317	n/a	LTP352	ltpFR2	0	n/a	n/a	n/a	18	12	3	5	4
2836.0234375	n/a	PROB	5808176	n/a	LTP352	ltpFR2	0	n/a	n/a	n/a	18	13	9	1	3
2837.33837890625	n/a	PROB	5810869	n/a	LTP352	ltpFR2	0	n/a	n/a	n/a	18	158	9	1	5
2839.05419921875	n/a	PROB	5814383	n/a	LTP352	ltpFR2	0	n/a	n/a	n/a	18	12	3	8	1
2841.703125	n/a	PROB	5819808	n/a	LTP352	ltpFR2	0	n/a	n/a	n/a	18	12	2	9	1
2843.43505859375	n/a	PROB	5823355	n/a	LTP352	ltpFR2	0	n/a	n/a	n/a	18	18	6	4	8
2847.0009765625	n/a	PROB	5830658	n/a	LTP352	ltpFR2	0	n/a	n/a	n/a	18	11	9	1	1
2848.283203125	n/a	PROB	5833284	n/a	LTP352	ltpFR2	0	n/a	n/a	n/a	18	16	6	6	4
2850.39892578125	n/a	PROB	5837617	n/a	LTP352	ltpFR2	0	n/a	n/a	n/a	18	10	4	5	1
2852.56396484375	n/a	STOP	5842051	n/a	LTP352	ltpFR2	0	n/a	n/a	n/a	18	n/a	n/a	n/a	n/a
2854.8466796875	n/a	REC_START	5846726	n/a	LTP352	ltpFR2	0	11	n/a	n/a	n/a	n/a	0	0	0
2856.74658203125	n/a	REC_WORD	5850617	wordpools/wasnorm_wordpool_576.txt	LTP352	ltpFR2	0	11	FIREPLACE	570	n/a	n/a	0	0	0
2858.1328125	n/a	REC_WORD	5853456	wordpools/wasnorm_wordpool_576.txt	LTP352	ltpFR2	0	11	FOREST	593	n/a	n/a	0	0	0
2859.62451171875	n/a	REC_WORD	5856511	wordpools/wasnorm_wordpool_576.txt	LTP352	ltpFR2	0	11	OUTDOORS	987	n/a	n/a	0	0	0
2861.58251953125	n/a	REC_WORD	5860521	wordpools/wasnorm_wordpool_576.txt	LTP352	ltpFR2	0	11	ACTOR	5	n/a	n/a	0	0	0
2862.265625	n/a	REC_WORD	5861920	wordpools/wasnorm_wordpool_576.txt	LTP352	ltpFR2	0	11	VALVE	1546	n/a	n/a	0	0	0
2864.2236328125	n/a	REC_WORD	5865930	wordpools/wasnorm_wordpool_576.txt	LTP352	ltpFR2	0	11	APRON	35	n/a	n/a	0	0	0
2865.03564453125	n/a	REC_WORD	5867593	wordpools/wasnorm_wordpool_576.txt	LTP352	ltpFR2	0	11	TOASTER	1472	n/a	n/a	0	0	0
2865.8564453125	n/a	REC_WORD	5869274	wordpools/wasnorm_wordpool_576.txt	LTP352	ltpFR2	0	11	CORAL	378	n/a	n/a	0	0	0
2866.728515625	n/a	REC_WORD	5871060	wordpools/wasnorm_wordpool_576.txt	LTP352	ltpFR2	0	11	LAVA	804	n/a	n/a	0	0	0
2870.0595703125	n/a	REC_WORD	5877882	wordpools/wasnorm_wordpool_576.txt	LTP352	ltpFR2	0	11	FILM	565	n/a	n/a	0	0	0
2876.34912109375	n/a	REC_WORD	5890763	wordpools/wasnorm_wordpool_576.txt	LTP352	ltpFR2	0	11	BLUEPRINT	142	n/a	n/a	0	0	0
2878.904296875	n/a	REC_WORD	5895996	wordpools/wasnorm_wordpool_576.txt	LTP352	ltpFR2	0	11	HAMPER	682	n/a	n/a	0	0	0
2956.89794921875	n/a	DISTRACTOR	6055727	n/a	LTP352	ltpFR2	0	12	n/a	n/a	n/a	n/a	0	0	0
2956.89794921875	n/a	START	6055727	n/a	LTP352	ltpFR2	0	n/a	n/a	n/a	19	n/a	n/a	n/a	n/a
2956.9140625	n/a	PROB	6055760	n/a	LTP352	ltpFR2	0	n/a	n/a	n/a	19	5	1	2	2
2959.197265625	n/a	PROB	6060436	n/a	LTP352	ltpFR2	0	n/a	n/a	n/a	19	11	2	5	4
2961.22900390625	n/a	PROB	6064597	n/a	LTP352	ltpFR2	0	n/a	n/a	n/a	19	14	4	1	9
2962.97900390625	n/a	PROB	6068181	n/a	LTP352	ltpFR2	0	n/a	n/a	n/a	19	15	3	3	9
2965.52685546875	n/a	PROB	6073399	n/a	LTP352	ltpFR2	0	n/a	n/a	n/a	19	10	3	1	6
2967.82568359375	n/a	PROB	6078107	n/a	LTP352	ltpFR2	0	n/a	n/a	n/a	19	21	8	9	4
2972.73974609375	n/a	PROB	6088171	n/a	LTP352	ltpFR2	0	n/a	n/a	n/a	19	15	3	5	7
2976.388671875	n/a	PROB	6095644	n/a	LTP352	ltpFR2	0	n/a	n/a	n/a	19	14	4	5	4
2980.8974609375	n/a	STOP	6104878	n/a	LTP352	ltpFR2	0	n/a	n/a	n/a	19	n/a	n/a	n/a	n/a
2982.08544921875	n/a	WORD	6107311	wordpools/wasnorm_wordpool_576.txt	LTP352	ltpFR2	0	12	TROMBONE	1508	n/a	n/a	0	0	0
2984.6513671875	n/a	WORD	6112566	wordpools/wasnorm_wordpool_576.txt	LTP352	ltpFR2	0	12	FLUTE	585	n/a	n/a	0	0	0
2987.33349609375	n/a	WORD	6118059	wordpools/wasnorm_wordpool_576.txt	LTP352	ltpFR2	0	12	SALAD	1224	n/a	n/a	0	0	0
2990.115234375	n/a	WORD	6123756	wordpools/wasnorm_wordpool_576.txt	LTP352	ltpFR2	0	12	SEAGULL	1261	n/a	n/a	0	0	0
2992.56396484375	n/a	WORD	6128771	wordpools/wasnorm_wordpool_576.txt	LTP352	ltpFR2	0	12	AWARD	63	n/a	n/a	0	0	0
2995.0458984375	n/a	WORD	6133854	wordpools/wasnorm_wordpool_576.txt	LTP352	ltpFR2	0	12	LABEL	790	n/a	n/a	0	0	0
2997.67822265625	n/a	WORD	6139245	wordpools/wasnorm_wordpool_576.txt	LTP352	ltpFR2	0	12	JUDGE	761	n/a	n/a	0	0	0
3000.1767578125	n/a	WORD	6144362	wordpools/wasnorm_wordpool_576.txt	LTP352	ltpFR2	0	12	PAIL	1002	n/a	n/a	0	0	0
3002.958984375	n/a	WORD	6150060	wordpools/wasnorm_wordpool_576.txt	LTP352	ltpFR2	0	12	VAGRANT	1544	n/a	n/a	0	0	0
3005.57373046875	n/a	WORD	6155415	wordpools/wasnorm_wordpool_576.txt	LTP352	ltpFR2	0	12	HERO	706	n/a	n/a	0	0	0
3008.27294921875	n/a	WORD	6160943	wordpools/wasnorm_wordpool_576.txt	LTP352	ltpFR2	0	12	POISON	1096	n/a	n/a	0	0	0
3011.005859375	n/a	WORD	6166540	wordpools/wasnorm_wordpool_576.txt	LTP352	ltpFR2	0	12	JUNGLE	764	n/a	n/a	0	0	0
3013.7705078125	n/a	WORD	6172202	wordpools/wasnorm_wordpool_576.txt	LTP352	ltpFR2	0	12	WOMAN	1620	n/a	n/a	0	0	0
3016.568359375	n/a	WORD	6177932	wordpools/wasnorm_wordpool_576.txt	LTP352	ltpFR2	0	12	TEMPLE	1448	n/a	n/a	0	0	0
3019.00244140625	n/a	WORD	6182917	wordpools/wasnorm_wordpool_576.txt	LTP352	ltpFR2	0	12	SPONGE	1355	n/a	n/a	0	0	0
3021.63330078125	n/a	WORD	6188305	wordpools/wasnorm_wordpool_576.txt	LTP352	ltpFR2	0	12	CLAMP	316	n/a	n/a	0	0	0
3024.0654296875	n/a	WORD	6193286	wordpools/wasnorm_wordpool_576.txt	LTP352	ltpFR2	0	12	TURNIP	1521	n/a	n/a	0	0	0
3026.53125	n/a	WORD	6198336	wordpools/wasnorm_wordpool_576.txt	LTP352	ltpFR2	0	12	PEANUT	1032	n/a	n/a	0	0	0
3029.31298828125	n/a	WORD	6204033	wordpools/wasnorm_wordpool_576.txt	LTP352	ltpFR2	0	12	FRUIT	610	n/a	n/a	0	0	0
3031.7783203125	n/a	WORD	6209082	wordpools/wasnorm_wordpool_576.txt	LTP352	ltpFR2	0	12	LIPSTICK	829	n/a	n/a	0	0	0
3034.26025390625	n/a	WORD	6214165	wordpools/wasnorm_wordpool_576.txt	LTP352	ltpFR2	0	12	POCKET	1093	n/a	n/a	0	0	0
3036.77587890625	n/a	WORD	6219317	wordpools/wasnorm_wordpool_576.txt	LTP352	ltpFR2	0	12	KNAPSACK	783	n/a	n/a	0	0	0
3039.40771484375	n/a	WORD	6224707	wordpools/wasnorm_wordpool_576.txt	LTP352	ltpFR2	0	12	ROOSTER	1209	n/a	n/a	0	0	0
3041.83984375	n/a	WORD	6229688	wordpools/wasnorm_wordpool_576.txt	LTP352	ltpFR2	0	12	GOBLIN	645	n/a	n/a	0	0	0
3043.4560546875	n/a	START	6232998	n/a	LTP352	ltpFR2	0	n/a	n/a	n/a	20	n/a	n/a	n/a	n/a
3044.53076171875	n/a	DISTRACTOR	6235199	n/a	LTP352	ltpFR2	0	12	n/a	n/a	n/a	n/a	0	0	0
3044.53857421875	n/a	PROB	6235215	n/a	LTP352	ltpFR2	0	n/a	n/a	n/a	20	10	2	4	3
3048.919921875	n/a	PROB	6244188	n/a	LTP352	ltpFR2	0	n/a	n/a	n/a	20	10	4	2	4
3050.91845703125	n/a	PROB	6248281	n/a	LTP352	ltpFR2	0	n/a	n/a	n/a	20	11	4	6	1
3052.6015625	n/a	PROB	6251728	n/a	LTP352	ltpFR2	0	n/a	n/a	n/a	20	19	4	7	8
3055.31640625	n/a	PROB	6257288	n/a	LTP352	ltpFR2	0	n/a	n/a	n/a	20	13	3	4	6
3057.46630859375	n/a	PROB	6261691	n/a	LTP352	ltpFR2	0	n/a	n/a	n/a	20	8	3	2	3
3059.38134765625	n/a	PROB	6265613	n/a	LTP352	ltpFR2	0	n/a	n/a	n/a	20	9	4	1	4
3061.26416015625	n/a	PROB	6269469	n/a	LTP352	ltpFR2	0	n/a	n/a	n/a	20	17	4	6	7
3062.88037109375	n/a	PROB	6272779	n/a	LTP352	ltpFR2	0	n/a	n/a	n/a	20	19	5	8	6
3064.8623046875	n/a	PROB	6276838	n/a	LTP352	ltpFR2	0	n/a	n/a	n/a	20	15	7	7	1
3066.3251953125	n/a	STOP	6279834	n/a	LTP352	ltpFR2	0	n/a	n/a	n/a	20	n/a	n/a	n/a	n/a
3069.2109375	n/a	REC_START	6285744	n/a	LTP352	ltpFR2	0	12	n/a	n/a	n/a	n/a	0	0	0
3071.47802734375	n/a	REC_WORD	6290387	wordpools/wasnorm_wordpool_576.txt	LTP352	ltpFR2	0	12	WOMAN	1620	n/a	n/a	0	0	0
3072.35205078125	n/a	REC_WORD	6292177	wordpools/wasnorm_wordpool_576.txt	LTP352	ltpFR2	0	12	POISON	1096	n/a	n/a	0	0	0
3073.3291015625	n/a	REC_WORD	6294178	wordpools/wasnorm_wordpool_576.txt	LTP352	ltpFR2	0	12	FLUTE	585	n/a	n/a	0	0	0
3075.26318359375	n/a	REC_WORD	6298139	wordpools/wasnorm_wordpool_576.txt	LTP352	ltpFR2	0	12	TROMBONE	1508	n/a	n/a	0	0	0
3076.453125	n/a	REC_WORD	6300576	wordpools/wasnorm_wordpool_576.txt	LTP352	ltpFR2	0	12	JUDGE	761	n/a	n/a	0	0	0
3077.94970703125	n/a	REC_WORD	6303641	wordpools/wasnorm_wordpool_576.txt	LTP352	ltpFR2	0	12	HERO	706	n/a	n/a	0	0	0
3078.89111328125	n/a	REC_WORD	6305569	wordpools/wasnorm_wordpool_576.txt	LTP352	ltpFR2	0	12	AWARD	63	n/a	n/a	0	0	0
3081.39404296875	n/a	REC_WORD	6310695	wordpools/wasnorm_wordpool_576.txt	LTP352	ltpFR2	0	12	LABEL	790	n/a	n/a	0	0	0
3082.44580078125	n/a	REC_WORD	6312849	wordpools/wasnorm_wordpool_576.txt	LTP352	ltpFR2	0	12	SEAGULL	1261	n/a	n/a	0	0	0
3083.05859375	n/a	REC_WORD	6314104	wordpools/wasnorm_wordpool_576.txt	LTP352	ltpFR2	0	12	SALAD	1224	n/a	n/a	0	0	0
3083.7099609375	n/a	REC_WORD	6315438	wordpools/wasnorm_wordpool_576.txt	LTP352	ltpFR2	0	12	TURNIP	1521	n/a	n/a	0	0	0
3086.5927734375	n/a	REC_WORD	6321342	wordpools/wasnorm_wordpool_576.txt	LTP352	ltpFR2	0	12	PEANUT	1032	n/a	n/a	0	0	0
3087.79052734375	n/a	REC_WORD	6323795	wordpools/wasnorm_wordpool_576.txt	LTP352	ltpFR2	0	12	FRUIT	610	n/a	n/a	0	0	0
3091.87255859375	n/a	REC_WORD	6332155	wordpools/wasnorm_wordpool_576.txt	LTP352	ltpFR2	0	12	RADISH	1158	n/a	n/a	0	0	0
3099.45556640625	n/a	REC_WORD	6347685	wordpools/wasnorm_wordpool_576.txt	LTP352	ltpFR2	0	12	POISON	1096	n/a	n/a	0	0	0
3100.37109375	n/a	REC_WORD	6349560	wordpools/wasnorm_wordpool_576.txt	LTP352	ltpFR2	0	12	KNAPSACK	783	n/a	n/a	0	0	0
3101.46533203125	n/a	REC_WORD	6351801	wordpools/wasnorm_wordpool_576.txt	LTP352	ltpFR2	0	12	POCKET	1093	n/a	n/a	0	0	0
3115.40283203125	n/a	REC_WORD	6380345	wordpools/wasnorm_wordpool_576.txt	LTP352	ltpFR2	0	12	LIPSTICK	829	n/a	n/a	0	0	0
3159.66650390625	n/a	WORD	6470997	wordpools/wasnorm_wordpool_576.txt	LTP352	ltpFR2	0	13	SLOPE	1328	n/a	n/a	0	0	0
3162.265625	n/a	WORD	6476320	wordpools/wasnorm_wordpool_576.txt	LTP352	ltpFR2	0	13	DONKEY	484	n/a	n/a	0	0	0
3165.04736328125	n/a	WORD	6482017	wordpools/wasnorm_wordpool_576.txt	LTP352	ltpFR2	0	13	ROBIN	1199	n/a	n/a	0	0	0
3167.54638671875	n/a	WORD	6487135	wordpools/wasnorm_wordpool_576.txt	LTP352	ltpFR2	0	13	CREVICE	405	n/a	n/a	0	0	0
3170.361328125	n/a	WORD	6492900	wordpools/wasnorm_wordpool_576.txt	LTP352	ltpFR2	0	13	DRUG	501	n/a	n/a	0	0	0
3173.17724609375	n/a	WORD	6498667	wordpools/wasnorm_wordpool_576.txt	LTP352	ltpFR2	0	13	GARLIC	624	n/a	n/a	0	0	0
3175.89208984375	n/a	WORD	6504227	wordpools/wasnorm_wordpool_576.txt	LTP352	ltpFR2	0	13	STICKER	1382	n/a	n/a	0	0	0
3178.32421875	n/a	WORD	6509208	wordpools/wasnorm_wordpool_576.txt	LTP352	ltpFR2	0	13	BUG	187	n/a	n/a	0	0	0
3180.93994140625	n/a	WORD	6514565	wordpools/wasnorm_wordpool_576.txt	LTP352	ltpFR2	0	13	TRENCH	1503	n/a	n/a	0	0	0
3183.572265625	n/a	WORD	6519956	wordpools/wasnorm_wordpool_576.txt	LTP352	ltpFR2	0	13	SOFTBALL	1343	n/a	n/a	0	0	0
3186.0869140625	n/a	WORD	6525106	wordpools/wasnorm_wordpool_576.txt	LTP352	ltpFR2	0	13	BLENDER	136	n/a	n/a	0	0	0
3188.7529296875	n/a	WORD	6530566	wordpools/wasnorm_wordpool_576.txt	LTP352	ltpFR2	0	13	VIRUS	1572	n/a	n/a	0	0	0
3191.5849609375	n/a	WORD	6536366	wordpools/wasnorm_wordpool_576.txt	LTP352	ltpFR2	0	13	CABIN	211	n/a	n/a	0	0	0
3194.19970703125	n/a	WORD	6541721	wordpools/wasnorm_wordpool_576.txt	LTP352	ltpFR2	0	13	CONTRACT	368	n/a	n/a	0	0	0
3196.94873046875	n/a	WORD	6547351	wordpools/wasnorm_wordpool_576.txt	LTP352	ltpFR2	0	13	PEPPER	1047	n/a	n/a	0	0	0
3199.564453125	n/a	WORD	6552708	wordpools/wasnorm_wordpool_576.txt	LTP352	ltpFR2	0	13	ROD	1203	n/a	n/a	0	0	0
3202.11279296875	n/a	WORD	6557927	wordpools/wasnorm_wordpool_576.txt	LTP352	ltpFR2	0	13	HUMAN	726	n/a	n/a	0	0	0
3204.91162109375	n/a	WORD	6563659	wordpools/wasnorm_wordpool_576.txt	LTP352	ltpFR2	0	13	SPARROW	1347	n/a	n/a	0	0	0
3207.66064453125	n/a	WORD	6569289	wordpools/wasnorm_wordpool_576.txt	LTP352	ltpFR2	0	13	LIZARD	834	n/a	n/a	0	0	0
3210.17626953125	n/a	WORD	6574441	wordpools/wasnorm_wordpool_576.txt	LTP352	ltpFR2	0	13	SNAIL	1332	n/a	n/a	0	0	0
3212.67431640625	n/a	WORD	6579557	wordpools/wasnorm_wordpool_576.txt	LTP352	ltpFR2	0	13	BELLY	119	n/a	n/a	0	0	0
3215.30615234375	n/a	WORD	6584947	wordpools/wasnorm_wordpool_576.txt	LTP352	ltpFR2	0	13	STOMACH	1384	n/a	n/a	0	0	0
3217.822265625	n/a	WORD	6590100	wordpools/wasnorm_wordpool_576.txt	LTP352	ltpFR2	0	13	BOYFRIEND	162	n/a	n/a	0	0	0
3220.4541015625	n/a	WORD	6595490	wordpools/wasnorm_wordpool_576.txt	LTP352	ltpFR2	0	13	MISSILE	900	n/a	n/a	0	0	0
3222.06982421875	n/a	START	6598799	n/a	LTP352	ltpFR2	0	n/a	n/a	n/a	21	n/a	n/a	n/a	n/a
3223.1328125	n/a	DISTRACTOR	6600976	n/a	LTP352	ltpFR2	0	13	n/a	n/a	n/a	n/a	0	0	0
3223.13623046875	n/a	PROB	6600983	n/a	LTP352	ltpFR2	0	n/a	n/a	n/a	21	8	2	4	2
3226.48486328125	n/a	PROB	6607841	n/a	LTP352	ltpFR2	0	n/a	n/a	n/a	21	13	7	5	1
3228.39990234375	n/a	PROB	6611763	n/a	LTP352	ltpFR2	0	n/a	n/a	n/a	21	7	1	2	4
3230.36572265625	n/a	PROB	6615789	n/a	LTP352	ltpFR2	0	n/a	n/a	n/a	21	10	3	5	2
3232.14892578125	n/a	PROB	6619441	n/a	LTP352	ltpFR2	0	n/a	n/a	n/a	21	12	3	5	4
3234.33056640625	n/a	PROB	6623909	n/a	LTP352	ltpFR2	0	n/a	n/a	n/a	21	7	1	5	1
3236.3798828125	n/a	PROB	6628106	n/a	LTP352	ltpFR2	0	n/a	n/a	n/a	21	15	2	8	5
3237.87939453125	n/a	PROB	6631177	n/a	LTP352	ltpFR2	0	n/a	n/a	n/a	21	19	8	9	2
3240.02880859375	n/a	PROB	6635579	n/a	LTP352	ltpFR2	0	n/a	n/a	n/a	21	13	3	1	9
3242.04345703125	n/a	PROB	6639705	n/a	LTP352	ltpFR2	0	n/a	n/a	n/a	21	19	6	8	5
3243.87646484375	n/a	PROB	6643459	n/a	LTP352	ltpFR2	0	n/a	n/a	n/a	21	10	1	5	4
3245.82958984375	n/a	STOP	6647459	n/a	LTP352	ltpFR2	0	n/a	n/a	n/a	21	n/a	n/a	n/a	n/a
3247.8583984375	n/a	REC_START	6651614	n/a	LTP352	ltpFR2	0	13	n/a	n/a	n/a	n/a	0	0	0
3248.97314453125	n/a	REC_WORD	6653897	wordpools/wasnorm_wordpool_576.txt	LTP352	ltpFR2	0	13	SPARROW	1347	n/a	n/a	0	0	0
3249.68408203125	n/a	REC_WORD	6655353	wordpools/wasnorm_wordpool_576.txt	LTP352	ltpFR2	0	13	ROBIN	1199	n/a	n/a	0	0	0
3250.46728515625	n/a	REC_WORD	6656957	wordpools/wasnorm_wordpool_576.txt	LTP352	ltpFR2	0	13	DONKEY	484	n/a	n/a	0	0	0
3252.0634765625	n/a	REC_WORD	6660226	wordpools/wasnorm_wordpool_576.txt	LTP352	ltpFR2	0	13	CABIN	211	n/a	n/a	0	0	0
3252.75	n/a	REC_WORD	6661632	wordpools/wasnorm_wordpool_576.txt	LTP352	ltpFR2	0	13	SLOPE	1328	n/a	n/a	0	0	0
3254.60400390625	n/a	REC_WORD	6665429	wordpools/wasnorm_wordpool_576.txt	LTP352	ltpFR2	0	13	HUMAN	726	n/a	n/a	0	0	0
3256.25390625	n/a	REC_WORD	6668808	wordpools/wasnorm_wordpool_576.txt	LTP352	ltpFR2	0	13	BOYFRIEND	162	n/a	n/a	0	0	0
3258.81298828125	n/a	REC_WORD	6674049	wordpools/wasnorm_wordpool_576.txt	LTP352	ltpFR2	0	13	STOMACH	1384	n/a	n/a	0	0	0
3265.298828125	n/a	REC_WORD	6687332	wordpools/wasnorm_wordpool_576.txt	LTP352	ltpFR2	0	13	BELLY	119	n/a	n/a	0	0	0
3268.52587890625	n/a	REC_WORD	6693941	wordpools/wasnorm_wordpool_576.txt	LTP352	ltpFR2	0	13	LIZARD	834	n/a	n/a	0	0	0
3270.06494140625	n/a	REC_WORD	6697093	wordpools/wasnorm_wordpool_576.txt	LTP352	ltpFR2	0	13	SNAIL	1332	n/a	n/a	0	0	0
3273.6484375	n/a	REC_WORD	6704432	wordpools/wasnorm_wordpool_576.txt	LTP352	ltpFR2	0	13	CREVICE	405	n/a	n/a	0	0	0
3274.45751953125	n/a	REC_WORD	6706089	wordpools/wasnorm_wordpool_576.txt	LTP352	ltpFR2	0	13	TRENCH	1503	n/a	n/a	0	0	0
3277.6923828125	n/a	REC_WORD	6712714	wordpools/wasnorm_wordpool_576.txt	LTP352	ltpFR2	0	13	DRUG	501	n/a	n/a	0	0	0
3280.20458984375	n/a	REC_WORD	6717859	wordpools/wasnorm_wordpool_576.txt	LTP352	ltpFR2	0	13	CONTRACT	368	n/a	n/a	0	0	0
3293.55322265625	n/a	REC_WORD	6745197	wordpools/wasnorm_wordpool_576.txt	LTP352	ltpFR2	0	13	SIGN	1305	n/a	n/a	0	0	0
3308.5498046875	n/a	REC_WORD	6775910	wordpools/wasnorm_wordpool_576.txt	LTP352	ltpFR2	0	13	VACCINE	-1	n/a	n/a	0	0	0
3318.04150390625	n/a	REC_WORD	6795349	wordpools/wasnorm_wordpool_576.txt	LTP352	ltpFR2	0	13	BUG	187	n/a	n/a	0	0	0
3338.28076171875	n/a	DISTRACTOR	6836799	n/a	LTP352	ltpFR2	0	14	n/a	n/a	n/a	n/a	0	0	0
3338.28076171875	n/a	START	6836799	n/a	LTP352	ltpFR2	0	n/a	n/a	n/a	22	n/a	n/a	n/a	n/a
3338.2978515625	n/a	PROB	6836834	n/a	LTP352	ltpFR2	0	n/a	n/a	n/a	22	14	3	3	8
3340.212890625	n/a	PROB	6840756	n/a	LTP352	ltpFR2	0	n/a	n/a	n/a	22	26	9	9	8
3344.74462890625	n/a	PROB	6850037	n/a	LTP352	ltpFR2	0	n/a	n/a	n/a	22	6	2	3	1
3347.74267578125	n/a	PROB	6856177	n/a	LTP352	ltpFR2	0	n/a	n/a	n/a	22	20	9	3	8
3352.890625	n/a	PROB	6866720	n/a	LTP352	ltpFR2	0	n/a	n/a	n/a	22	20	5	6	9
3355.62255859375	n/a	PROB	6872315	n/a	LTP352	ltpFR2	0	n/a	n/a	n/a	22	20	6	6	8
3358.33837890625	n/a	PROB	6877877	n/a	LTP352	ltpFR2	0	n/a	n/a	n/a	22	11	2	2	7
3361.71826171875	n/a	STOP	6884799	n/a	LTP352	ltpFR2	0	n/a	n/a	n/a	22	n/a	n/a	n/a	n/a
3363.26904296875	n/a	WORD	6887975	wordpools/wasnorm_wordpool_576.txt	LTP352	ltpFR2	0	14	PEDAL	1037	n/a	n/a	0	0	0
3365.88427734375	n/a	WORD	6893331	wordpools/wasnorm_wordpool_576.txt	LTP352	ltpFR2	0	14	WAGON	1578	n/a	n/a	0	0	0
3368.5	n/a	WORD	6898688	wordpools/wasnorm_wordpool_576.txt	LTP352	ltpFR2	0	14	DRAGON	492	n/a	n/a	0	0	0
3371.09814453125	n/a	WORD	6904009	wordpools/wasnorm_wordpool_576.txt	LTP352	ltpFR2	0	14	DASHBOARD	441	n/a	n/a	0	0	0
3373.81396484375	n/a	WORD	6909571	wordpools/wasnorm_wordpool_576.txt	LTP352	ltpFR2	0	14	SHOULDER	1294	n/a	n/a	0	0	0
3376.4130859375	n/a	WORD	6914894	wordpools/wasnorm_wordpool_576.txt	LTP352	ltpFR2	0	14	ANKLE	24	n/a	n/a	0	0	0
3379.22802734375	n/a	WORD	6920659	wordpools/wasnorm_wordpool_576.txt	LTP352	ltpFR2	0	14	SNAKE	1333	n/a	n/a	0	0	0
3381.90966796875	n/a	WORD	6926151	wordpools/wasnorm_wordpool_576.txt	LTP352	ltpFR2	0	14	GARBAGE	622	n/a	n/a	0	0	0
3384.70849609375	n/a	WORD	6931883	wordpools/wasnorm_wordpool_576.txt	LTP352	ltpFR2	0	14	AIRPORT	13	n/a	n/a	0	0	0
3387.29052734375	n/a	WORD	6937171	wordpools/wasnorm_wordpool_576.txt	LTP352	ltpFR2	0	14	FIREMAN	569	n/a	n/a	0	0	0
3389.8056640625	n/a	WORD	6942322	wordpools/wasnorm_wordpool_576.txt	LTP352	ltpFR2	0	14	TRACTOR	1493	n/a	n/a	0	0	0
3392.58837890625	n/a	WORD	6948021	wordpools/wasnorm_wordpool_576.txt	LTP352	ltpFR2	0	14	DINER	467	n/a	n/a	0	0	0
3395.25341796875	n/a	WORD	6953479	wordpools/wasnorm_wordpool_576.txt	LTP352	ltpFR2	0	14	SEAFOOD	1260	n/a	n/a	0	0	0
3398.068359375	n/a	WORD	6959244	wordpools/wasnorm_wordpool_576.txt	LTP352	ltpFR2	0	14	DAISY	435	n/a	n/a	0	0	0
3400.88427734375	n/a	WORD	6965011	wordpools/wasnorm_wordpool_576.txt	LTP352	ltpFR2	0	14	BREAST	171	n/a	n/a	0	0	0
3403.6494140625	n/a	WORD	6970674	wordpools/wasnorm_wordpool_576.txt	LTP352	ltpFR2	0	14	PLIERS	1089	n/a	n/a	0	0	0
3406.3310546875	n/a	WORD	6976166	wordpools/wasnorm_wordpool_576.txt	LTP352	ltpFR2	0	14	PASSAGE	1019	n/a	n/a	0	0	0
3409.14697265625	n/a	WORD	6981933	wordpools/wasnorm_wordpool_576.txt	LTP352	ltpFR2	0	14	PLASTER	1085	n/a	n/a	0	0	0
3411.962890625	n/a	WORD	6987700	wordpools/wasnorm_wordpool_576.txt	LTP352	ltpFR2	0	14	BOX	159	n/a	n/a	0	0	0
3414.77783203125	n/a	WORD	6993465	wordpools/wasnorm_wordpool_576.txt	LTP352	ltpFR2	0	14	COURSE	390	n/a	n/a	0	0	0
3417.2099609375	n/a	WORD	6998446	wordpools/wasnorm_wordpool_576.txt	LTP352	ltpFR2	0	14	RUG	1215	n/a	n/a	0	0	0
3419.9248046875	n/a	WORD	7004006	wordpools/wasnorm_wordpool_576.txt	LTP352	ltpFR2	0	14	TILE	1468	n/a	n/a	0	0	0
3422.40673828125	n/a	WORD	7009089	wordpools/wasnorm_wordpool_576.txt	LTP352	ltpFR2	0	14	CEILING	265	n/a	n/a	0	0	0
3425.07275390625	n/a	WORD	7014549	wordpools/wasnorm_wordpool_576.txt	LTP352	ltpFR2	0	14	CYCLONE	431	n/a	n/a	0	0	0
3426.6884765625	n/a	START	7017858	n/a	LTP352	ltpFR2	0	n/a	n/a	n/a	23	n/a	n/a	n/a	n/a
3427.78759765625	n/a	DISTRACTOR	7020109	n/a	LTP352	ltpFR2	0	14	n/a	n/a	n/a	n/a	0	0	0
3427.8046875	n/a	PROB	7020144	n/a	LTP352	ltpFR2	0	n/a	n/a	n/a	23	17	8	1	8
3430.03662109375	n/a	PROB	7024715	n/a	LTP352	ltpFR2	0	n/a	n/a	n/a	23	12	3	3	6
3432.51953125	n/a	PROB	7029800	n/a	LTP352	ltpFR2	0	n/a	n/a	n/a	23	23	8	7	8
3436.33349609375	n/a	PROB	7037611	n/a	LTP352	ltpFR2	0	n/a	n/a	n/a	23	12	2	6	4
3438.34912109375	n/a	PROB	7041739	n/a	LTP352	ltpFR2	0	n/a	n/a	n/a	23	4	1	2	1
3439.83203125	n/a	PROB	7044776	n/a	LTP352	ltpFR2	0	n/a	n/a	n/a	23	20	8	9	3
3442.31396484375	n/a	PROB	7049859	n/a	LTP352	ltpFR2	0	n/a	n/a	n/a	23	10	3	4	3
3444.11328125	n/a	PROB	7053544	n/a	LTP352	ltpFR2	0	n/a	n/a	n/a	23	17	7	6	4
3445.9970703125	n/a	PROB	7057402	n/a	LTP352	ltpFR2	0	n/a	n/a	n/a	23	16	4	8	4
3450.68798828125	n/a	STOP	7067009	n/a	LTP352	ltpFR2	0	n/a	n/a	n/a	23	n/a	n/a	n/a	n/a
3452.54296875	n/a	REC_START	7070808	n/a	LTP352	ltpFR2	0	14	n/a	n/a	n/a	n/a	0	0	0
3454.58984375	n/a	REC_WORD	7075000	wordpools/wasnorm_wordpool_576.txt	LTP352	ltpFR2	0	14	WAGON	1578	n/a	n/a	0	0	0
3455.45166015625	n/a	REC_WORD	7076765	wordpools/wasnorm_wordpool_576.txt	LTP352	ltpFR2	0	14	DRAGON	492	n/a	n/a	0	0	0
3459.4287109375	n/a	REC_WORD	7084910	wordpools/wasnorm_wordpool_576.txt	LTP352	ltpFR2	0	14	DASHBOARD	441	n/a	n/a	0	0	0
3462.00439453125	n/a	REC_WORD	7090185	wordpools/wasnorm_wordpool_576.txt	LTP352	ltpFR2	0	14	PEDAL	1037	n/a	n/a	0	0	0
3464.96875	n/a	REC_WORD	7096256	wordpools/wasnorm_wordpool_576.txt	LTP352	ltpFR2	0	14	SHOULDER	1294	n/a	n/a	0	0	0
3465.74560546875	n/a	REC_WORD	7097847	wordpools/wasnorm_wordpool_576.txt	LTP352	ltpFR2	0	14	PLIERS	1089	n/a	n/a	0	0	0
3467.19970703125	n/a	REC_WORD	7100825	wordpools/wasnorm_wordpool_576.txt	LTP352	ltpFR2	0	14	AIRPORT	13	n/a	n/a	0	0	0
3467.86328125	n/a	REC_WORD	7102184	wordpools/wasnorm_wordpool_576.txt	LTP352	ltpFR2	0	14	FIREMAN	569	n/a	n/a	0	0	0
3470.486328125	n/a	REC_WORD	7107556	wordpools/wasnorm_wordpool_576.txt	LTP352	ltpFR2	0	14	DAISY	435	n/a	n/a	0	0	0
3471.09619140625	n/a	REC_WORD	7108805	wordpools/wasnorm_wordpool_576.txt	LTP352	ltpFR2	0	14	RUG	1215	n/a	n/a	0	0	0
3471.7294921875	n/a	REC_WORD	7110102	wordpools/wasnorm_wordpool_576.txt	LTP352	ltpFR2	0	14	DINNER	468	n/a	n/a	0	0	0
3472.16015625	n/a	REC_WORD	7110984	wordpools/wasnorm_wordpool_576.txt	LTP352	ltpFR2	0	14	SEAFOOD	1260	n/a	n/a	0	0	0
3485.63720703125	n/a	REC_WORD	7138585	wordpools/wasnorm_wordpool_576.txt	LTP352	ltpFR2	0	14	GARBAGE	622	n/a	n/a	0	0	0
3501.53369140625	n/a	REC_WORD	7171141	wordpools/wasnorm_wordpool_576.txt	LTP352	ltpFR2	0	14	ANKLE	24	n/a	n/a	0	0	0
3555.826171875	n/a	DISTRACTOR	7282332	n/a	LTP352	ltpFR2	0	15	n/a	n/a	n/a	n/a	0	0	0
3555.826171875	n/a	START	7282332	n/a	LTP352	ltpFR2	0	n/a	n/a	n/a	24	n/a	n/a	n/a	n/a
3555.84326171875	n/a	PROB	7282367	n/a	LTP352	ltpFR2	0	n/a	n/a	n/a	24	17	8	7	2
3558.658203125	n/a	PROB	7288132	n/a	LTP352	ltpFR2	0	n/a	n/a	n/a	24	15	6	8	1
3561.10693359375	n/a	PROB	7293147	n/a	LTP352	ltpFR2	0	n/a	n/a	n/a	24	16	7	1	8
3563.30615234375	n/a	PROB	7297651	n/a	LTP352	ltpFR2	0	n/a	n/a	n/a	24	15	1	7	7
3564.8388671875	n/a	PROB	7300790	n/a	LTP352	ltpFR2	0	n/a	n/a	n/a	24	19	2	9	8
3567.87060546875	n/a	PROB	7306999	n/a	LTP352	ltpFR2	0	n/a	n/a	n/a	24	22	4	9	9
3570.0859375	n/a	PROB	7311536	n/a	LTP352	ltpFR2	0	n/a	n/a	n/a	24	6	1	2	3
3572.0517578125	n/a	PROB	7315562	n/a	LTP352	ltpFR2	0	n/a	n/a	n/a	24	15	8	4	3
3574.75048828125	n/a	PROB	7321089	n/a	LTP352	ltpFR2	0	n/a	n/a	n/a	24	15	6	2	7
3577.00048828125	n/a	PROB	7325697	n/a	LTP352	ltpFR2	0	n/a	n/a	n/a	24	18	4	6	6
3579.20654296875	n/a	STOP	7330215	n/a	LTP352	ltpFR2	0	n/a	n/a	n/a	24	n/a	n/a	n/a	n/a
3580.7314453125	n/a	WORD	7333338	wordpools/wasnorm_wordpool_576.txt	LTP352	ltpFR2	0	15	HORSE	719	n/a	n/a	0	0	0
3583.21337890625	n/a	WORD	7338421	wordpools/wasnorm_wordpool_576.txt	LTP352	ltpFR2	0	15	SHIRT	1287	n/a	n/a	0	0	0
3585.9453125	n/a	WORD	7344016	wordpools/wasnorm_wordpool_576.txt	LTP352	ltpFR2	0	15	COLONEL	348	n/a	n/a	0	0	0
3588.41015625	n/a	WORD	7349064	wordpools/wasnorm_wordpool_576.txt	LTP352	ltpFR2	0	15	PANTHER	1009	n/a	n/a	0	0	0
3591.09326171875	n/a	WORD	7354559	wordpools/wasnorm_wordpool_576.txt	LTP352	ltpFR2	0	15	LIVER	833	n/a	n/a	0	0	0
3593.908203125	n/a	WORD	7360324	wordpools/wasnorm_wordpool_576.txt	LTP352	ltpFR2	0	15	TRIBE	1505	n/a	n/a	0	0	0
3596.623046875	n/a	WORD	7365884	wordpools/wasnorm_wordpool_576.txt	LTP352	ltpFR2	0	15	COWBOY	395	n/a	n/a	0	0	0
3599.35498046875	n/a	WORD	7371479	wordpools/wasnorm_wordpool_576.txt	LTP352	ltpFR2	0	15	SLUG	1329	n/a	n/a	0	0	0
3602.0380859375	n/a	WORD	7376974	wordpools/wasnorm_wordpool_576.txt	LTP352	ltpFR2	0	15	DORM	488	n/a	n/a	0	0	0
3604.61962890625	n/a	WORD	7382261	wordpools/wasnorm_wordpool_576.txt	LTP352	ltpFR2	0	15	NURSE	963	n/a	n/a	0	0	0
3607.41796875	n/a	WORD	7387992	wordpools/wasnorm_wordpool_576.txt	LTP352	ltpFR2	0	15	BLADE	134	n/a	n/a	0	0	0
3610.20068359375	n/a	WORD	7393691	wordpools/wasnorm_wordpool_576.txt	LTP352	ltpFR2	0	15	OYSTER	995	n/a	n/a	0	0	0
3612.83251953125	n/a	WORD	7399081	wordpools/wasnorm_wordpool_576.txt	LTP352	ltpFR2	0	15	BURGLAR	200	n/a	n/a	0	0	0
3615.564453125	n/a	WORD	7404676	wordpools/wasnorm_wordpool_576.txt	LTP352	ltpFR2	0	15	MARINE	869	n/a	n/a	0	0	0
3618.263671875	n/a	WORD	7410204	wordpools/wasnorm_wordpool_576.txt	LTP352	ltpFR2	0	15	CLOCK	325	n/a	n/a	0	0	0
3621.04541015625	n/a	WORD	7415901	wordpools/wasnorm_wordpool_576.txt	LTP352	ltpFR2	0	15	KITCHEN	778	n/a	n/a	0	0	0
3623.84326171875	n/a	WORD	7421631	wordpools/wasnorm_wordpool_576.txt	LTP352	ltpFR2	0	15	STOVE	1388	n/a	n/a	0	0	0
3626.37646484375	n/a	WORD	7426819	wordpools/wasnorm_wordpool_576.txt	LTP352	ltpFR2	0	15	LOFT	840	n/a	n/a	0	0	0
3628.908203125	n/a	WORD	7432004	wordpools/wasnorm_wordpool_576.txt	LTP352	ltpFR2	0	15	PUPPY	1144	n/a	n/a	0	0	0
3631.52294921875	n/a	WORD	7437359	wordpools/wasnorm_wordpool_576.txt	LTP352	ltpFR2	0	15	THREAD	1460	n/a	n/a	0	0	0
3633.9560546875	n/a	WORD	7442342	wordpools/wasnorm_wordpool_576.txt	LTP352	ltpFR2	0	15	SWORD	1423	n/a	n/a	0	0	0
3636.65380859375	n/a	WORD	7447867	wordpools/wasnorm_wordpool_576.txt	LTP352	ltpFR2	0	15	BATHTUB	100	n/a	n/a	0	0	0
3639.23583984375	n/a	WORD	7453155	wordpools/wasnorm_wordpool_576.txt	LTP352	ltpFR2	0	15	FRIAR	605	n/a	n/a	0	0	0
3641.95166015625	n/a	WORD	7458717	wordpools/wasnorm_wordpool_576.txt	LTP352	ltpFR2	0	15	MARSH	874	n/a	n/a	0	0	0
3643.56787109375	n/a	START	7462027	n/a	LTP352	ltpFR2	0	n/a	n/a	n/a	25	n/a	n/a	n/a	n/a
3644.7158203125	n/a	DISTRACTOR	7464378	n/a	LTP352	ltpFR2	0	15	n/a	n/a	n/a	n/a	0	0	0
3644.73388671875	n/a	PROB	7464415	n/a	LTP352	ltpFR2	0	n/a	n/a	n/a	25	22	9	7	6
3649.69775390625	n/a	PROB	7474581	n/a	LTP352	ltpFR2	0	n/a	n/a	n/a	25	11	4	1	6
3651.36376953125	n/a	PROB	7477993	n/a	LTP352	ltpFR2	0	n/a	n/a	n/a	25	24	7	8	9
3654.71240234375	n/a	PROB	7484851	n/a	LTP352	ltpFR2	0	n/a	n/a	n/a	25	15	3	9	3
3657.32763671875	n/a	PROB	7490207	n/a	LTP352	ltpFR2	0	n/a	n/a	n/a	25	12	2	7	3
3659.7763671875	n/a	PROB	7495222	n/a	LTP352	ltpFR2	0	n/a	n/a	n/a	25	18	4	5	9
3661.97607421875	n/a	PROB	7499727	n/a	LTP352	ltpFR2	0	n/a	n/a	n/a	25	8	2	5	1
3667.56689453125	n/a	STOP	7511177	n/a	LTP352	ltpFR2	0	n/a	n/a	n/a	25	n/a	n/a	n/a	n/a
3669.43896484375	n/a	REC_START	7515011	n/a	LTP352	ltpFR2	0	15	n/a	n/a	n/a	n/a	0	0	0
3674.26513671875	n/a	REC_WORD	7524895	wordpools/wasnorm_wordpool_576.txt	LTP352	ltpFR2	0	15	NURSE	963	n/a	n/a	0	0	0
3675.7587890625	n/a	REC_WORD	7527954	wordpools/wasnorm_wordpool_576.txt	LTP352	ltpFR2	0	15	BLADE	134	n/a	n/a	0	0	0
3676.5830078125	n/a	REC_WORD	7529642	wordpools/wasnorm_wordpool_576.txt	LTP352	ltpFR2	0	15	SWORD	1423	n/a	n/a	0	0	0
3677.5830078125	n/a	REC_WORD_VV	7531690	wordpools/wasnorm_wordpool_576.txt	LTP352	ltpFR2	0	15	<>	-1	n/a	n/a	0	0	0
3678.70703125	n/a	REC_WORD	7533992	wordpools/wasnorm_wordpool_576.txt	LTP352	ltpFR2	0	15	OYSTER	995	n/a	n/a	0	0	0
3679.82763671875	n/a	REC_WORD	7536287	wordpools/wasnorm_wordpool_576.txt	LTP352	ltpFR2	0	15	COWBOY	395	n/a	n/a	0	0	0
3681.15380859375	n/a	REC_WORD	7539003	wordpools/wasnorm_wordpool_576.txt	LTP352	ltpFR2	0	15	BURGLAR	200	n/a	n/a	0	0	0
3685.37255859375	n/a	REC_WORD	7547643	wordpools/wasnorm_wordpool_576.txt	LTP352	ltpFR2	0	15	COWBOY	395	n/a	n/a	0	0	0
3696.37255859375	n/a	REC_WORD	7570171	wordpools/wasnorm_wordpool_576.txt	LTP352	ltpFR2	0	15	STOVE	1388	n/a	n/a	0	0	0
3706.58203125	n/a	REC_WORD	7591080	wordpools/wasnorm_wordpool_576.txt	LTP352	ltpFR2	0	15	COLONY	-1	n/a	n/a	0	0	0
3727.96630859375	n/a	REC_WORD	7634875	wordpools/wasnorm_wordpool_576.txt	LTP352	ltpFR2	0	15	PUPPY	1144	n/a	n/a	0	0	0
3728.822265625	n/a	REC_WORD	7636628	wordpools/wasnorm_wordpool_576.txt	LTP352	ltpFR2	0	15	PANTHER	1009	n/a	n/a	0	0	0
3759.87841796875	n/a	WORD	7700231	wordpools/wasnorm_wordpool_576.txt	LTP352	ltpFR2	0	16	SKILLET	1317	n/a	n/a	0	0	0
3762.66064453125	n/a	WORD	7705929	wordpools/wasnorm_wordpool_576.txt	LTP352	ltpFR2	0	16	UNCLE	1536	n/a	n/a	0	0	0
3765.15966796875	n/a	WORD	7711047	wordpools/wasnorm_wordpool_576.txt	LTP352	ltpFR2	0	16	OX	994	n/a	n/a	0	0	0
3767.92431640625	n/a	WORD	7716709	wordpools/wasnorm_wordpool_576.txt	LTP352	ltpFR2	0	16	CROSS	413	n/a	n/a	0	0	0
3770.53955078125	n/a	WORD	7722065	wordpools/wasnorm_wordpool_576.txt	LTP352	ltpFR2	0	16	NECKLACE	940	n/a	n/a	0	0	0
3773.1220703125	n/a	WORD	7727354	wordpools/wasnorm_wordpool_576.txt	LTP352	ltpFR2	0	16	LAGOON	795	n/a	n/a	0	0	0
3775.67041015625	n/a	WORD	7732573	wordpools/wasnorm_wordpool_576.txt	LTP352	ltpFR2	0	16	PLAID	1080	n/a	n/a	0	0	0
3778.1533203125	n/a	WORD	7737658	wordpools/wasnorm_wordpool_576.txt	LTP352	ltpFR2	0	16	SKIRT	1319	n/a	n/a	0	0	0
3780.85107421875	n/a	WORD	7743183	wordpools/wasnorm_wordpool_576.txt	LTP352	ltpFR2	0	16	MAILMAN	858	n/a	n/a	0	0	0
3783.35009765625	n/a	WORD	7748301	wordpools/wasnorm_wordpool_576.txt	LTP352	ltpFR2	0	16	CHURCH	307	n/a	n/a	0	0	0
3785.93212890625	n/a	WORD	7753589	wordpools/wasnorm_wordpool_576.txt	LTP352	ltpFR2	0	16	LEG	809	n/a	n/a	0	0	0
3788.73095703125	n/a	WORD	7759321	wordpools/wasnorm_wordpool_576.txt	LTP352	ltpFR2	0	16	BUBBLE	183	n/a	n/a	0	0	0
3791.296875	n/a	WORD	7764576	wordpools/wasnorm_wordpool_576.txt	LTP352	ltpFR2	0	16	BANK	83	n/a	n/a	0	0	0
3793.82861328125	n/a	WORD	7769761	wordpools/wasnorm_wordpool_576.txt	LTP352	ltpFR2	0	16	IGLOO	734	n/a	n/a	0	0	0
3796.46044921875	n/a	WORD	7775151	wordpools/wasnorm_wordpool_576.txt	LTP352	ltpFR2	0	16	BUNNY	198	n/a	n/a	0	0	0
3799.12548828125	n/a	WORD	7780609	wordpools/wasnorm_wordpool_576.txt	LTP352	ltpFR2	0	16	KLEENEX	782	n/a	n/a	0	0	0
3801.8916015625	n/a	WORD	7786274	wordpools/wasnorm_wordpool_576.txt	LTP352	ltpFR2	0	16	PLAZA	1088	n/a	n/a	0	0	0
3804.556640625	n/a	WORD	7791732	wordpools/wasnorm_wordpool_576.txt	LTP352	ltpFR2	0	16	CASHIER	254	n/a	n/a	0	0	0
3807.28857421875	n/a	WORD	7797327	wordpools/wasnorm_wordpool_576.txt	LTP352	ltpFR2	0	16	CRUTCH	417	n/a	n/a	0	0	0
3809.83740234375	n/a	WORD	7802547	wordpools/wasnorm_wordpool_576.txt	LTP352	ltpFR2	0	16	WRIST	1626	n/a	n/a	0	0	0
3812.41943359375	n/a	WORD	7807835	wordpools/wasnorm_wordpool_576.txt	LTP352	ltpFR2	0	16	FOOTBALL	591	n/a	n/a	0	0	0
3815.068359375	n/a	WORD	7813260	wordpools/wasnorm_wordpool_576.txt	LTP352	ltpFR2	0	16	STATUE	1374	n/a	n/a	0	0	0
3817.5341796875	n/a	WORD	7818310	wordpools/wasnorm_wordpool_576.txt	LTP352	ltpFR2	0	16	NAPKIN	937	n/a	n/a	0	0	0
3820.26611328125	n/a	WORD	7823905	wordpools/wasnorm_wordpool_576.txt	LTP352	ltpFR2	0	16	HATCHET	691	n/a	n/a	0	0	0
3821.8818359375	n/a	START	7827214	n/a	LTP352	ltpFR2	0	n/a	n/a	n/a	26	n/a	n/a	n/a	n/a
3822.85205078125	n/a	DISTRACTOR	7829201	n/a	LTP352	ltpFR2	0	16	n/a	n/a	n/a	n/a	0	0	0
3822.86474609375	n/a	PROB	7829227	n/a	LTP352	ltpFR2	0	n/a	n/a	n/a	26	6	1	1	4
3825.263671875	n/a	PROB	7834140	n/a	LTP352	ltpFR2	0	n/a	n/a	n/a	26	22	9	5	8
3828.72900390625	n/a	PROB	7841237	n/a	LTP352	ltpFR2	0	n/a	n/a	n/a	26	16	8	4	4
3830.52783203125	n/a	PROB	7844921	n/a	LTP352	ltpFR2	0	n/a	n/a	n/a	26	17	8	8	1
3832.45947265625	n/a	PROB	7848877	n/a	LTP352	ltpFR2	0	n/a	n/a	n/a	26	15	2	7	6
3835.45849609375	n/a	PROB	7855019	n/a	LTP352	ltpFR2	0	n/a	n/a	n/a	26	12	9	2	1
3837.7744140625	n/a	PROB	7859762	n/a	LTP352	ltpFR2	0	n/a	n/a	n/a	26	16	8	1	7
3839.7734375	n/a	PROB	7863856	n/a	LTP352	ltpFR2	0	n/a	n/a	n/a	26	16	7	6	3
3841.60546875	n/a	PROB	7867608	n/a	LTP352	ltpFR2	0	n/a	n/a	n/a	26	18	8	1	9
3845.88134765625	n/a	STOP	7876365	n/a	LTP352	ltpFR2	0	n/a	n/a	n/a	26	n/a	n/a	n/a	n/a
3847.72021484375	n/a	REC_START	7880131	n/a	LTP352	ltpFR2	0	16	n/a	n/a	n/a	n/a	0	0	0
3849.6171875	n/a	REC_WORD	7884016	wordpools/wasnorm_wordpool_576.txt	LTP352	ltpFR2	0	16	UNCLE	1536	n/a	n/a	0	0	0
3850.40625	n/a	REC_WORD	7885632	wordpools/wasnorm_wordpool_576.txt	LTP352	ltpFR2	0	16	MAILMAN	858	n/a	n/a	0	0	0
3852.35205078125	n/a	REC_WORD	7889617	wordpools/wasnorm_wordpool_576.txt	LTP352	ltpFR2	0	16	BANK	83	n/a	n/a	0	0	0
3853.68408203125	n/a	REC_WORD	7892345	wordpools/wasnorm_wordpool_576.txt	LTP352	ltpFR2	0	16	LAGOON	795	n/a	n/a	0	0	0
3854.916015625	n/a	REC_WORD	7894868	wordpools/wasnorm_wordpool_576.txt	LTP352	ltpFR2	0	16	IGLOO	734	n/a	n/a	0	0	0
3855.662109375	n/a	REC_WORD	7896396	wordpools/wasnorm_wordpool_576.txt	LTP352	ltpFR2	0	16	HATCHET	691	n/a	n/a	0	0	0
3857.501953125	n/a	REC_WORD	7900164	wordpools/wasnorm_wordpool_576.txt	LTP352	ltpFR2	0	16	SKILLET	1317	n/a	n/a	0	0	0
3858.2041015625	n/a	REC_WORD	7901602	wordpools/wasnorm_wordpool_576.txt	LTP352	ltpFR2	0	16	WRIST	1626	n/a	n/a	0	0	0
3859.13916015625	n/a	REC_WORD	7903517	wordpools/wasnorm_wordpool_576.txt	LTP352	ltpFR2	0	16	PLAID	1080	n/a	n/a	0	0	0
3861.1201171875	n/a	REC_WORD	7907574	wordpools/wasnorm_wordpool_576.txt	LTP352	ltpFR2	0	16	CROSS	413	n/a	n/a	0	0	0
3862.45068359375	n/a	REC_WORD	7910299	wordpools/wasnorm_wordpool_576.txt	LTP352	ltpFR2	0	16	NECKLACE	940	n/a	n/a	0	0	0
3863.82373046875	n/a	REC_WORD	7913111	wordpools/wasnorm_wordpool_576.txt	LTP352	ltpFR2	0	16	CHURCH	307	n/a	n/a	0	0	0
3865.44970703125	n/a	REC_WORD	7916441	wordpools/wasnorm_wordpool_576.txt	LTP352	ltpFR2	0	16	SKIRT	1319	n/a	n/a	0	0	0
3866.802734375	n/a	REC_WORD	7919212	wordpools/wasnorm_wordpool_576.txt	LTP352	ltpFR2	0	16	LEG	809	n/a	n/a	0	0	0
3867.919921875	n/a	REC_WORD	7921500	wordpools/wasnorm_wordpool_576.txt	LTP352	ltpFR2	0	16	OX	994	n/a	n/a	0	0	0
3870.478515625	n/a	REC_WORD	7926740	wordpools/wasnorm_wordpool_576.txt	LTP352	ltpFR2	0	16	BUNNY	198	n/a	n/a	0	0	0
3872.8564453125	n/a	REC_WORD	7931610	wordpools/wasnorm_wordpool_576.txt	LTP352	ltpFR2	0	16	HATCHET	691	n/a	n/a	0	0	0
3880.8251953125	n/a	REC_WORD	7947930	wordpools/wasnorm_wordpool_576.txt	LTP352	ltpFR2	0	16	PLAZA	1088	n/a	n/a	0	0	0
3883.45947265625	n/a	REC_WORD	7953325	wordpools/wasnorm_wordpool_576.txt	LTP352	ltpFR2	0	16	STATUE	1374	n/a	n/a	0	0	0
3885.01953125	n/a	REC_WORD	7956520	wordpools/wasnorm_wordpool_576.txt	LTP352	ltpFR2	0	16	FOOTBALL	591	n/a	n/a	0	0	0
3924.26611328125	n/a	REST_REWET	8036897	n/a	LTP352	ltpFR2	0	16	n/a	n/a	n/a	n/a	0	0	0
4054.36962890625	n/a	WORD	8303349	wordpools/wasnorm_wordpool_576.txt	LTP352	ltpFR2	0	17	LEOPARD	812	n/a	n/a	0	0	0
4056.98681640625	n/a	WORD	8308709	wordpools/wasnorm_wordpool_576.txt	LTP352	ltpFR2	0	17	CONCERT	360	n/a	n/a	0	0	0
4059.58447265625	n/a	WORD	8314029	wordpools/wasnorm_wordpool_576.txt	LTP352	ltpFR2	0	17	BANJO	82	n/a	n/a	0	0	0
4062.36669921875	n/a	WORD	8319727	wordpools/wasnorm_wordpool_576.txt	LTP352	ltpFR2	0	17	DONOR	485	n/a	n/a	0	0	0
4064.94970703125	n/a	WORD	8325017	wordpools/wasnorm_wordpool_576.txt	LTP352	ltpFR2	0	17	STAKE	1368	n/a	n/a	0	0	0
4067.59765625	n/a	WORD	8330440	wordpools/wasnorm_wordpool_576.txt	LTP352	ltpFR2	0	17	DOLPHIN	483	n/a	n/a	0	0	0
4070.04541015625	n/a	WORD	8335453	wordpools/wasnorm_wordpool_576.txt	LTP352	ltpFR2	0	17	MOTOR	922	n/a	n/a	0	0	0
4072.51123046875	n/a	WORD	8340503	wordpools/wasnorm_wordpool_576.txt	LTP352	ltpFR2	0	17	BARREL	91	n/a	n/a	0	0	0
4075.21044921875	n/a	WORD	8346031	wordpools/wasnorm_wordpool_576.txt	LTP352	ltpFR2	0	17	EXPERT	543	n/a	n/a	0	0	0
4077.775390625	n/a	WORD	8351284	wordpools/wasnorm_wordpool_576.txt	LTP352	ltpFR2	0	17	FRANCE	601	n/a	n/a	0	0	0
4080.3740234375	n/a	WORD	8356606	wordpools/wasnorm_wordpool_576.txt	LTP352	ltpFR2	0	17	RABBIT	1152	n/a	n/a	0	0	0
4083.08984375	n/a	WORD	8362168	wordpools/wasnorm_wordpool_576.txt	LTP352	ltpFR2	0	17	SWITCH	1422	n/a	n/a	0	0	0
4085.5380859375	n/a	WORD	8367182	wordpools/wasnorm_wordpool_576.txt	LTP352	ltpFR2	0	17	AIRPLANE	12	n/a	n/a	0	0	0
4088.35400390625	n/a	WORD	8372949	wordpools/wasnorm_wordpool_576.txt	LTP352	ltpFR2	0	17	POSTAGE	1113	n/a	n/a	0	0	0
4090.802734375	n/a	WORD	8377964	wordpools/wasnorm_wordpool_576.txt	LTP352	ltpFR2	0	17	WHISKERS	1605	n/a	n/a	0	0	0
4093.5849609375	n/a	WORD	8383662	wordpools/wasnorm_wordpool_576.txt	LTP352	ltpFR2	0	17	FRAGRANCE	599	n/a	n/a	0	0	0
4096.08349609375	n/a	WORD	8388779	wordpools/wasnorm_wordpool_576.txt	LTP352	ltpFR2	0	17	BISON	131	n/a	n/a	0	0	0
4098.66552734375	n/a	WORD	8394067	wordpools/wasnorm_wordpool_576.txt	LTP352	ltpFR2	0	17	FEMALE	559	n/a	n/a	0	0	0
4101.33056640625	n/a	WORD	8399525	wordpools/wasnorm_wordpool_576.txt	LTP352	ltpFR2	0	17	LOVER	846	n/a	n/a	0	0	0
4103.947265625	n/a	WORD	8404884	wordpools/wasnorm_wordpool_576.txt	LTP352	ltpFR2	0	17	COOK	372	n/a	n/a	0	0	0
4106.66162109375	n/a	WORD	8410443	wordpools/wasnorm_wordpool_576.txt	LTP352	ltpFR2	0	17	CHAMPAGNE	278	n/a	n/a	0	0	0
4109.3603515625	n/a	WORD	8415970	wordpools/wasnorm_wordpool_576.txt	LTP352	ltpFR2	0	17	GHETTO	633	n/a	n/a	0	0	0
4112.109375	n/a	WORD	8421600	wordpools/wasnorm_wordpool_576.txt	LTP352	ltpFR2	0	17	TUTU	1524	n/a	n/a	0	0	0
4114.59130859375	n/a	WORD	8426683	wordpools/wasnorm_wordpool_576.txt	LTP352	ltpFR2	0	17	PERFUME	1049	n/a	n/a	0	0	0
4116.20703125	n/a	START	8429992	n/a	LTP352	ltpFR2	0	n/a	n/a	n/a	27	n/a	n/a	n/a	n/a
4117.34619140625	n/a	DISTRACTOR	8432325	n/a	LTP352	ltpFR2	0	17	n/a	n/a	n/a	n/a	0	0	0
