mstime	trial_type	stim_file	subject	experiment	session	trial	item_name	item_num	list	answer	test_x	test_y	test_z
0	SESS_START	n/a	LTP338	ltpFR2	10	n/a	n/a	n/a	n/a	n/a	0	0	0
32642	START	n/a	LTP338	ltpFR2	10	n/a	n/a	n/a	-1	n/a	n/a	n/a	n/a
32656	PROB	n/a	LTP338	ltpFR2	10	n/a	n/a	n/a	-1	15	8	3	4
34227	PROB	n/a	LTP338	ltpFR2	10	n/a	n/a	n/a	-1	10	6	3	1
35733	PROB	n/a	LTP338	ltpFR2	10	n/a	n/a	n/a	-1	10	3	6	1
37036	PROB	n/a	LTP338	ltpFR2	10	n/a	n/a	n/a	-1	15	6	6	3
38992	PROB	n/a	LTP338	ltpFR2	10	n/a	n/a	n/a	-1	13	5	1	7
40582	PROB	n/a	LTP338	ltpFR2	10	n/a	n/a	n/a	-1	22	8	5	9
43381	STOP	n/a	LTP338	ltpFR2	10	n/a	n/a	n/a	-1	n/a	n/a	n/a	n/a
74156	DISTRACTOR	n/a	LTP338	ltpFR2	10	1	n/a	n/a	n/a	n/a	0	0	0
74157	START	n/a	LTP338	ltpFR2	10	n/a	n/a	n/a	1	n/a	n/a	n/a	n/a
74173	PROB	n/a	LTP338	ltpFR2	10	n/a	n/a	n/a	1	15	6	7	2
76230	PROB	n/a	LTP338	ltpFR2	10	n/a	n/a	n/a	1	23	9	5	9
77953	PROB	n/a	LTP338	ltpFR2	10	n/a	n/a	n/a	1	11	1	7	3
79491	PROB	n/a	LTP338	ltpFR2	10	n/a	n/a	n/a	1	5	1	1	3
80812	PROB	n/a	LTP338	ltpFR2	10	n/a	n/a	n/a	1	13	2	9	2
82249	PROB	n/a	LTP338	ltpFR2	10	n/a	n/a	n/a	1	13	7	4	2
83554	PROB	n/a	LTP338	ltpFR2	10	n/a	n/a	n/a	1	14	3	5	6
85511	PROB	n/a	LTP338	ltpFR2	10	n/a	n/a	n/a	1	14	4	2	8
86832	PROB	n/a	LTP338	ltpFR2	10	n/a	n/a	n/a	1	17	6	5	6
88788	PROB	n/a	LTP338	ltpFR2	10	n/a	n/a	n/a	1	7	1	1	5
90108	PROB	n/a	LTP338	ltpFR2	10	n/a	n/a	n/a	1	18	8	8	2
91463	PROB	n/a	LTP338	ltpFR2	10	n/a	n/a	n/a	1	14	1	7	6
92952	PROB	n/a	LTP338	ltpFR2	10	n/a	n/a	n/a	1	13	8	3	2
94288	PROB	n/a	LTP338	ltpFR2	10	n/a	n/a	n/a	1	14	6	4	4
95811	PROB	n/a	LTP338	ltpFR2	10	n/a	n/a	n/a	1	21	9	7	6
97783	STOP	n/a	LTP338	ltpFR2	10	n/a	n/a	n/a	1	n/a	n/a	n/a	n/a
99104	WORD	wordpools/wasnorm_wordpool_576.txt	LTP338	ltpFR2	10	1	ROD	1203	n/a	n/a	0	0	0
101747	WORD	wordpools/wasnorm_wordpool_576.txt	LTP338	ltpFR2	10	1	ROBIN	1199	n/a	n/a	0	0	0
104338	WORD	wordpools/wasnorm_wordpool_576.txt	LTP338	ltpFR2	10	1	PORTRAIT	1111	n/a	n/a	0	0	0
106964	WORD	wordpools/wasnorm_wordpool_576.txt	LTP338	ltpFR2	10	1	LABEL	790	n/a	n/a	0	0	0
109756	WORD	wordpools/wasnorm_wordpool_576.txt	LTP338	ltpFR2	10	1	FOOT	590	n/a	n/a	0	0	0
112465	WORD	wordpools/wasnorm_wordpool_576.txt	LTP338	ltpFR2	10	1	HELMET	702	n/a	n/a	0	0	0
115056	WORD	wordpools/wasnorm_wordpool_576.txt	LTP338	ltpFR2	10	1	OX	994	n/a	n/a	0	0	0
117832	WORD	wordpools/wasnorm_wordpool_576.txt	LTP338	ltpFR2	10	1	OUTLAW	989	n/a	n/a	0	0	0
120524	WORD	wordpools/wasnorm_wordpool_576.txt	LTP338	ltpFR2	10	1	TRANSPLANT	1496	n/a	n/a	0	0	0
123081	WORD	wordpools/wasnorm_wordpool_576.txt	LTP338	ltpFR2	10	1	CLAMP	316	n/a	n/a	0	0	0
125774	WORD	wordpools/wasnorm_wordpool_576.txt	LTP338	ltpFR2	10	1	PEDAL	1037	n/a	n/a	0	0	0
128248	WORD	wordpools/wasnorm_wordpool_576.txt	LTP338	ltpFR2	10	1	ANKLE	24	n/a	n/a	0	0	0
130741	WORD	wordpools/wasnorm_wordpool_576.txt	LTP338	ltpFR2	10	1	HARP	689	n/a	n/a	0	0	0
133198	WORD	wordpools/wasnorm_wordpool_576.txt	LTP338	ltpFR2	10	1	CONCERT	360	n/a	n/a	0	0	0
135974	WORD	wordpools/wasnorm_wordpool_576.txt	LTP338	ltpFR2	10	1	OUTFIT	988	n/a	n/a	0	0	0
138516	WORD	wordpools/wasnorm_wordpool_576.txt	LTP338	ltpFR2	10	1	WORKER	1621	n/a	n/a	0	0	0
141073	WORD	wordpools/wasnorm_wordpool_576.txt	LTP338	ltpFR2	10	1	CASHIER	254	n/a	n/a	0	0	0
143599	WORD	wordpools/wasnorm_wordpool_576.txt	LTP338	ltpFR2	10	1	DRAWING	494	n/a	n/a	0	0	0
146290	WORD	wordpools/wasnorm_wordpool_576.txt	LTP338	ltpFR2	10	1	FRAME	600	n/a	n/a	0	0	0
148866	WORD	wordpools/wasnorm_wordpool_576.txt	LTP338	ltpFR2	10	1	SCRIBBLE	1256	n/a	n/a	0	0	0
151341	WORD	wordpools/wasnorm_wordpool_576.txt	LTP338	ltpFR2	10	1	LOVER	846	n/a	n/a	0	0	0
154099	WORD	wordpools/wasnorm_wordpool_576.txt	LTP338	ltpFR2	10	1	SPONGE	1355	n/a	n/a	0	0	0
156624	WORD	wordpools/wasnorm_wordpool_576.txt	LTP338	ltpFR2	10	1	CREATURE	403	n/a	n/a	0	0	0
159148	WORD	wordpools/wasnorm_wordpool_576.txt	LTP338	ltpFR2	10	1	REBEL	1172	n/a	n/a	0	0	0
160755	START	n/a	LTP338	ltpFR2	10	n/a	n/a	n/a	2	n/a	n/a	n/a	n/a
161685	DISTRACTOR	n/a	LTP338	ltpFR2	10	1	n/a	n/a	n/a	n/a	0	0	0
161691	PROB	n/a	LTP338	ltpFR2	10	n/a	n/a	n/a	2	12	5	5	2
163313	PROB	n/a	LTP338	ltpFR2	10	n/a	n/a	n/a	2	18	8	1	9
165017	PROB	n/a	LTP338	ltpFR2	10	n/a	n/a	n/a	2	10	8	1	1
166322	PROB	n/a	LTP338	ltpFR2	10	n/a	n/a	n/a	2	10	3	4	3
168194	PROB	n/a	LTP338	ltpFR2	10	n/a	n/a	n/a	2	6	1	2	3
170804	PROB	n/a	LTP338	ltpFR2	10	n/a	n/a	n/a	2	18	8	9	1
172609	PROB	n/a	LTP338	ltpFR2	10	n/a	n/a	n/a	2	8	4	2	2
174449	PROB	n/a	LTP338	ltpFR2	10	n/a	n/a	n/a	2	18	9	4	5
177190	PROB	n/a	LTP338	ltpFR2	10	n/a	n/a	n/a	2	14	7	4	3
178763	PROB	n/a	LTP338	ltpFR2	10	n/a	n/a	n/a	2	11	3	7	1
180485	PROB	n/a	LTP338	ltpFR2	10	n/a	n/a	n/a	2	10	4	2	4
182139	PROB	n/a	LTP338	ltpFR2	10	n/a	n/a	n/a	2	12	3	3	6
183569	STOP	n/a	LTP338	ltpFR2	10	n/a	n/a	n/a	2	n/a	n/a	n/a	n/a
186689	REC_START	n/a	LTP338	ltpFR2	10	1	n/a	n/a	n/a	n/a	0	0	0
189011	REC_WORD	wordpools/wasnorm_wordpool_576.txt	LTP338	ltpFR2	10	1	ROD	1203	n/a	n/a	0	0	0
190077	REC_WORD	wordpools/wasnorm_wordpool_576.txt	LTP338	ltpFR2	10	1	ROBIN	1199	n/a	n/a	0	0	0
191097	REC_WORD	wordpools/wasnorm_wordpool_576.txt	LTP338	ltpFR2	10	1	PORTRAIT	1111	n/a	n/a	0	0	0
192635	REC_WORD	wordpools/wasnorm_wordpool_576.txt	LTP338	ltpFR2	10	1	HELMET	702	n/a	n/a	0	0	0
194496	REC_WORD	wordpools/wasnorm_wordpool_576.txt	LTP338	ltpFR2	10	1	DRAWING	494	n/a	n/a	0	0	0
195106	REC_WORD	wordpools/wasnorm_wordpool_576.txt	LTP338	ltpFR2	10	1	FRAME	600	n/a	n/a	0	0	0
197150	REC_WORD	wordpools/wasnorm_wordpool_576.txt	LTP338	ltpFR2	10	1	WORKER	1621	n/a	n/a	0	0	0
197689	REC_WORD	wordpools/wasnorm_wordpool_576.txt	LTP338	ltpFR2	10	1	CASHIER	254	n/a	n/a	0	0	0
208532	REC_WORD	wordpools/wasnorm_wordpool_576.txt	LTP338	ltpFR2	10	1	OUTFIT	988	n/a	n/a	0	0	0
214077	REC_WORD	wordpools/wasnorm_wordpool_576.txt	LTP338	ltpFR2	10	1	LOVER	846	n/a	n/a	0	0	0
217894	REC_WORD	wordpools/wasnorm_wordpool_576.txt	LTP338	ltpFR2	10	1	OX	994	n/a	n/a	0	0	0
221092	REC_WORD	wordpools/wasnorm_wordpool_576.txt	LTP338	ltpFR2	10	1	OUTLAW	989	n/a	n/a	0	0	0
277130	DISTRACTOR	n/a	LTP338	ltpFR2	10	2	n/a	n/a	n/a	n/a	0	0	0
277131	START	n/a	LTP338	ltpFR2	10	n/a	n/a	n/a	3	n/a	n/a	n/a	n/a
277147	PROB	n/a	LTP338	ltpFR2	10	n/a	n/a	n/a	3	14	3	5	6
279087	PROB	n/a	LTP338	ltpFR2	10	n/a	n/a	n/a	3	8	3	2	3
280626	PROB	n/a	LTP338	ltpFR2	10	n/a	n/a	n/a	3	9	2	2	5
282147	PROB	n/a	LTP338	ltpFR2	10	n/a	n/a	n/a	3	11	3	6	2
283686	PROB	n/a	LTP338	ltpFR2	10	n/a	n/a	n/a	3	20	9	3	8
286612	PROB	n/a	LTP338	ltpFR2	10	n/a	n/a	n/a	3	12	1	5	6
288619	PROB	n/a	LTP338	ltpFR2	10	n/a	n/a	n/a	3	19	9	4	6
290542	PROB	n/a	LTP338	ltpFR2	10	n/a	n/a	n/a	3	16	2	6	8
292146	PROB	n/a	LTP338	ltpFR2	10	n/a	n/a	n/a	3	20	6	9	5
295189	PROB	n/a	LTP338	ltpFR2	10	n/a	n/a	n/a	3	6	2	1	3
296645	PROB	n/a	LTP338	ltpFR2	10	n/a	n/a	n/a	3	13	3	2	8
298232	PROB	n/a	LTP338	ltpFR2	10	n/a	n/a	n/a	3	19	8	8	3
301130	STOP	n/a	LTP338	ltpFR2	10	n/a	n/a	n/a	3	n/a	n/a	n/a	n/a
302161	WORD	wordpools/wasnorm_wordpool_576.txt	LTP338	ltpFR2	10	2	SCALLOP	1242	n/a	n/a	0	0	0
304604	WORD	wordpools/wasnorm_wordpool_576.txt	LTP338	ltpFR2	10	2	PUPIL	1143	n/a	n/a	0	0	0
307363	WORD	wordpools/wasnorm_wordpool_576.txt	LTP338	ltpFR2	10	2	MOP	916	n/a	n/a	0	0	0
309954	WORD	wordpools/wasnorm_wordpool_576.txt	LTP338	ltpFR2	10	2	CHAUFFEUR	283	n/a	n/a	0	0	0
312479	WORD	wordpools/wasnorm_wordpool_576.txt	LTP338	ltpFR2	10	2	SUBWAY	1400	n/a	n/a	0	0	0
315070	WORD	wordpools/wasnorm_wordpool_576.txt	LTP338	ltpFR2	10	2	HIKER	708	n/a	n/a	0	0	0
317880	WORD	wordpools/wasnorm_wordpool_576.txt	LTP338	ltpFR2	10	2	BUTCHER	203	n/a	n/a	0	0	0
320405	WORD	wordpools/wasnorm_wordpool_576.txt	LTP338	ltpFR2	10	2	COLLEGE	346	n/a	n/a	0	0	0
322963	WORD	wordpools/wasnorm_wordpool_576.txt	LTP338	ltpFR2	10	2	EYELASH	546	n/a	n/a	0	0	0
325756	WORD	wordpools/wasnorm_wordpool_576.txt	LTP338	ltpFR2	10	2	FRECKLE	602	n/a	n/a	0	0	0
328548	WORD	wordpools/wasnorm_wordpool_576.txt	LTP338	ltpFR2	10	2	FOREHEAD	592	n/a	n/a	0	0	0
331038	WORD	wordpools/wasnorm_wordpool_576.txt	LTP338	ltpFR2	10	2	SURVEY	1414	n/a	n/a	0	0	0
333514	WORD	wordpools/wasnorm_wordpool_576.txt	LTP338	ltpFR2	10	2	ATLAS	53	n/a	n/a	0	0	0
336188	WORD	wordpools/wasnorm_wordpool_576.txt	LTP338	ltpFR2	10	2	OUTDOORS	987	n/a	n/a	0	0	0
338982	WORD	wordpools/wasnorm_wordpool_576.txt	LTP338	ltpFR2	10	2	PASTRY	1022	n/a	n/a	0	0	0
341757	WORD	wordpools/wasnorm_wordpool_576.txt	LTP338	ltpFR2	10	2	PARTNER	1017	n/a	n/a	0	0	0
344366	WORD	wordpools/wasnorm_wordpool_576.txt	LTP338	ltpFR2	10	2	PADDING	999	n/a	n/a	0	0	0
346874	WORD	wordpools/wasnorm_wordpool_576.txt	LTP338	ltpFR2	10	2	LUNCH	849	n/a	n/a	0	0	0
349399	WORD	wordpools/wasnorm_wordpool_576.txt	LTP338	ltpFR2	10	2	MEAT	883	n/a	n/a	0	0	0
352123	WORD	wordpools/wasnorm_wordpool_576.txt	LTP338	ltpFR2	10	2	GANGSTER	620	n/a	n/a	0	0	0
354867	WORD	wordpools/wasnorm_wordpool_576.txt	LTP338	ltpFR2	10	2	MATTRESS	879	n/a	n/a	0	0	0
357659	WORD	wordpools/wasnorm_wordpool_576.txt	LTP338	ltpFR2	10	2	KITCHEN	778	n/a	n/a	0	0	0
360301	WORD	wordpools/wasnorm_wordpool_576.txt	LTP338	ltpFR2	10	2	SUPPER	1411	n/a	n/a	0	0	0
363025	WORD	wordpools/wasnorm_wordpool_576.txt	LTP338	ltpFR2	10	2	VALLEY	1545	n/a	n/a	0	0	0
364632	START	n/a	LTP338	ltpFR2	10	n/a	n/a	n/a	4	n/a	n/a	n/a	n/a
365616	DISTRACTOR	n/a	LTP338	ltpFR2	10	2	n/a	n/a	n/a	n/a	0	0	0
365618	PROB	n/a	LTP338	ltpFR2	10	n/a	n/a	n/a	4	16	8	1	7
369162	PROB	n/a	LTP338	ltpFR2	10	n/a	n/a	n/a	4	19	8	9	2
371252	PROB	n/a	LTP338	ltpFR2	10	n/a	n/a	n/a	4	10	5	2	3
373058	PROB	n/a	LTP338	ltpFR2	10	n/a	n/a	n/a	4	18	7	7	4
374413	PROB	n/a	LTP338	ltpFR2	10	n/a	n/a	n/a	4	13	8	4	1
376520	PROB	n/a	LTP338	ltpFR2	10	n/a	n/a	n/a	4	13	1	3	9
380399	PROB	n/a	LTP338	ltpFR2	10	n/a	n/a	n/a	4	6	2	2	2
381804	PROB	n/a	LTP338	ltpFR2	10	n/a	n/a	n/a	4	8	4	1	3
383140	PROB	n/a	LTP338	ltpFR2	10	n/a	n/a	n/a	4	16	3	6	7
385516	PROB	n/a	LTP338	ltpFR2	10	n/a	n/a	n/a	4	19	4	6	9
387903	STOP	n/a	LTP338	ltpFR2	10	n/a	n/a	n/a	4	n/a	n/a	n/a	n/a
390432	REC_START	n/a	LTP338	ltpFR2	10	2	n/a	n/a	n/a	n/a	0	0	0
395090	REC_WORD	wordpools/wasnorm_wordpool_576.txt	LTP338	ltpFR2	10	2	SCALLOP	1242	n/a	n/a	0	0	0
396218	REC_WORD	wordpools/wasnorm_wordpool_576.txt	LTP338	ltpFR2	10	2	PUPIL	1143	n/a	n/a	0	0	0
396927	REC_WORD	wordpools/wasnorm_wordpool_576.txt	LTP338	ltpFR2	10	2	MOP	916	n/a	n/a	0	0	0
402206	REC_WORD	wordpools/wasnorm_wordpool_576.txt	LTP338	ltpFR2	10	2	ATLAS	53	n/a	n/a	0	0	0
403210	REC_WORD	wordpools/wasnorm_wordpool_576.txt	LTP338	ltpFR2	10	2	SURVEY	1414	n/a	n/a	0	0	0
405945	REC_WORD	wordpools/wasnorm_wordpool_576.txt	LTP338	ltpFR2	10	2	PASTRY	1022	n/a	n/a	0	0	0
408648	REC_WORD	wordpools/wasnorm_wordpool_576.txt	LTP338	ltpFR2	10	2	PARTNER	1017	n/a	n/a	0	0	0
480891	WORD	wordpools/wasnorm_wordpool_576.txt	LTP338	ltpFR2	10	3	TREAT	1501	n/a	n/a	0	0	0
483332	WORD	wordpools/wasnorm_wordpool_576.txt	LTP338	ltpFR2	10	3	WINDOW	1611	n/a	n/a	0	0	0
485990	WORD	wordpools/wasnorm_wordpool_576.txt	LTP338	ltpFR2	10	3	BUBBLE	183	n/a	n/a	0	0	0
488416	WORD	wordpools/wasnorm_wordpool_576.txt	LTP338	ltpFR2	10	3	ROBOT	1200	n/a	n/a	0	0	0
490924	WORD	wordpools/wasnorm_wordpool_576.txt	LTP338	ltpFR2	10	3	MISTER	901	n/a	n/a	0	0	0
493582	WORD	wordpools/wasnorm_wordpool_576.txt	LTP338	ltpFR2	10	3	SNAKE	1333	n/a	n/a	0	0	0
496140	WORD	wordpools/wasnorm_wordpool_576.txt	LTP338	ltpFR2	10	3	SLIDE	1326	n/a	n/a	0	0	0
498632	WORD	wordpools/wasnorm_wordpool_576.txt	LTP338	ltpFR2	10	3	TABLET	1427	n/a	n/a	0	0	0
501358	WORD	wordpools/wasnorm_wordpool_576.txt	LTP338	ltpFR2	10	3	TURTLE	1522	n/a	n/a	0	0	0
504082	WORD	wordpools/wasnorm_wordpool_576.txt	LTP338	ltpFR2	10	3	MATCH	878	n/a	n/a	0	0	0
506809	WORD	wordpools/wasnorm_wordpool_576.txt	LTP338	ltpFR2	10	3	MACHINE	852	n/a	n/a	0	0	0
509484	WORD	wordpools/wasnorm_wordpool_576.txt	LTP338	ltpFR2	10	3	PASTA	1021	n/a	n/a	0	0	0
512175	WORD	wordpools/wasnorm_wordpool_576.txt	LTP338	ltpFR2	10	3	GALLON	618	n/a	n/a	0	0	0
514684	WORD	wordpools/wasnorm_wordpool_576.txt	LTP338	ltpFR2	10	3	MILK	895	n/a	n/a	0	0	0
517108	WORD	wordpools/wasnorm_wordpool_576.txt	LTP338	ltpFR2	10	3	NAPKIN	937	n/a	n/a	0	0	0
519851	WORD	wordpools/wasnorm_wordpool_576.txt	LTP338	ltpFR2	10	3	POCKET	1093	n/a	n/a	0	0	0
522509	WORD	wordpools/wasnorm_wordpool_576.txt	LTP338	ltpFR2	10	3	LEADER	807	n/a	n/a	0	0	0
525184	WORD	wordpools/wasnorm_wordpool_576.txt	LTP338	ltpFR2	10	3	BRIEFCASE	175	n/a	n/a	0	0	0
527977	WORD	wordpools/wasnorm_wordpool_576.txt	LTP338	ltpFR2	10	3	KNAPSACK	783	n/a	n/a	0	0	0
530569	WORD	wordpools/wasnorm_wordpool_576.txt	LTP338	ltpFR2	10	3	WAITRESS	1581	n/a	n/a	0	0	0
533160	WORD	wordpools/wasnorm_wordpool_576.txt	LTP338	ltpFR2	10	3	POSTAGE	1113	n/a	n/a	0	0	0
535836	WORD	wordpools/wasnorm_wordpool_576.txt	LTP338	ltpFR2	10	3	STREAM	1392	n/a	n/a	0	0	0
538276	WORD	wordpools/wasnorm_wordpool_576.txt	LTP338	ltpFR2	10	3	BOX	159	n/a	n/a	0	0	0
540752	WORD	wordpools/wasnorm_wordpool_576.txt	LTP338	ltpFR2	10	3	SNACK	1331	n/a	n/a	0	0	0
542357	START	n/a	LTP338	ltpFR2	10	n/a	n/a	n/a	5	n/a	n/a	n/a	n/a
543313	DISTRACTOR	n/a	LTP338	ltpFR2	10	3	n/a	n/a	n/a	n/a	0	0	0
543327	PROB	n/a	LTP338	ltpFR2	10	n/a	n/a	n/a	5	11	1	8	2
545098	PROB	n/a	LTP338	ltpFR2	10	n/a	n/a	n/a	5	14	3	5	6
546872	PROB	n/a	LTP338	ltpFR2	10	n/a	n/a	n/a	5	15	8	5	2
548393	PROB	n/a	LTP338	ltpFR2	10	n/a	n/a	n/a	5	12	2	2	8
550467	PROB	n/a	LTP338	ltpFR2	10	n/a	n/a	n/a	5	13	3	9	1
552975	PROB	n/a	LTP338	ltpFR2	10	n/a	n/a	n/a	5	24	9	6	9
554864	PROB	n/a	LTP338	ltpFR2	10	n/a	n/a	n/a	5	10	3	6	1
556469	PROB	n/a	LTP338	ltpFR2	10	n/a	n/a	n/a	5	14	6	2	6
558023	PROB	n/a	LTP338	ltpFR2	10	n/a	n/a	n/a	5	25	9	9	7
559847	PROB	n/a	LTP338	ltpFR2	10	n/a	n/a	n/a	5	16	8	5	3
561770	PROB	n/a	LTP338	ltpFR2	10	n/a	n/a	n/a	5	16	8	4	4
563993	PROB	n/a	LTP338	ltpFR2	10	n/a	n/a	n/a	5	14	3	4	7
565605	STOP	n/a	LTP338	ltpFR2	10	n/a	n/a	n/a	5	n/a	n/a	n/a	n/a
568107	REC_START	n/a	LTP338	ltpFR2	10	3	n/a	n/a	n/a	n/a	0	0	0
569620	REC_WORD	wordpools/wasnorm_wordpool_576.txt	LTP338	ltpFR2	10	3	TREAT	1501	n/a	n/a	0	0	0
570317	REC_WORD	wordpools/wasnorm_wordpool_576.txt	LTP338	ltpFR2	10	3	WINDOW	1611	n/a	n/a	0	0	0
572196	REC_WORD	wordpools/wasnorm_wordpool_576.txt	LTP338	ltpFR2	10	3	SNACK	1331	n/a	n/a	0	0	0
573102	REC_WORD	wordpools/wasnorm_wordpool_576.txt	LTP338	ltpFR2	10	3	BRIEFCASE	175	n/a	n/a	0	0	0
573950	REC_WORD	wordpools/wasnorm_wordpool_576.txt	LTP338	ltpFR2	10	3	KNAPSACK	783	n/a	n/a	0	0	0
578066	REC_WORD	wordpools/wasnorm_wordpool_576.txt	LTP338	ltpFR2	10	3	TURTLE	1522	n/a	n/a	0	0	0
581201	REC_WORD	wordpools/wasnorm_wordpool_576.txt	LTP338	ltpFR2	10	3	MATCH	878	n/a	n/a	0	0	0
581879	REC_WORD	wordpools/wasnorm_wordpool_576.txt	LTP338	ltpFR2	10	3	MACHINE	852	n/a	n/a	0	0	0
584267	REC_WORD	wordpools/wasnorm_wordpool_576.txt	LTP338	ltpFR2	10	3	SLIDE	1326	n/a	n/a	0	0	0
658550	DISTRACTOR	n/a	LTP338	ltpFR2	10	4	n/a	n/a	n/a	n/a	0	0	0
658550	START	n/a	LTP338	ltpFR2	10	n/a	n/a	n/a	6	n/a	n/a	n/a	n/a
658567	PROB	n/a	LTP338	ltpFR2	10	n/a	n/a	n/a	6	14	3	9	2
660137	PROB	n/a	LTP338	ltpFR2	10	n/a	n/a	n/a	6	16	2	7	7
661526	PROB	n/a	LTP338	ltpFR2	10	n/a	n/a	n/a	6	16	8	1	7
664586	PROB	n/a	LTP338	ltpFR2	10	n/a	n/a	n/a	6	20	8	3	9
666526	PROB	n/a	LTP338	ltpFR2	10	n/a	n/a	n/a	6	11	5	2	4
668281	PROB	n/a	LTP338	ltpFR2	10	n/a	n/a	n/a	6	7	3	3	1
669820	PROB	n/a	LTP338	ltpFR2	10	n/a	n/a	n/a	6	15	8	6	1
671240	PROB	n/a	LTP338	ltpFR2	10	n/a	n/a	n/a	6	16	8	5	3
672729	PROB	n/a	LTP338	ltpFR2	10	n/a	n/a	n/a	6	13	6	5	2
674485	PROB	n/a	LTP338	ltpFR2	10	n/a	n/a	n/a	6	19	8	6	5
676358	PROB	n/a	LTP338	ltpFR2	10	n/a	n/a	n/a	6	9	3	2	4
678179	PROB	n/a	LTP338	ltpFR2	10	n/a	n/a	n/a	6	13	5	5	3
679485	PROB	n/a	LTP338	ltpFR2	10	n/a	n/a	n/a	6	18	5	9	4
681191	STOP	n/a	LTP338	ltpFR2	10	n/a	n/a	n/a	6	n/a	n/a	n/a	n/a
683648	WORD	wordpools/wasnorm_wordpool_576.txt	LTP338	ltpFR2	10	4	HOSTESS	723	n/a	n/a	0	0	0
686122	WORD	wordpools/wasnorm_wordpool_576.txt	LTP338	ltpFR2	10	4	WAITER	1580	n/a	n/a	0	0	0
688547	WORD	wordpools/wasnorm_wordpool_576.txt	LTP338	ltpFR2	10	4	GIFT	635	n/a	n/a	0	0	0
691171	WORD	wordpools/wasnorm_wordpool_576.txt	LTP338	ltpFR2	10	4	STAPLE	1371	n/a	n/a	0	0	0
693764	WORD	wordpools/wasnorm_wordpool_576.txt	LTP338	ltpFR2	10	4	PRIMATE	1123	n/a	n/a	0	0	0
696406	WORD	wordpools/wasnorm_wordpool_576.txt	LTP338	ltpFR2	10	4	SOFTBALL	1343	n/a	n/a	0	0	0
699197	WORD	wordpools/wasnorm_wordpool_576.txt	LTP338	ltpFR2	10	4	TOURIST	1488	n/a	n/a	0	0	0
701941	WORD	wordpools/wasnorm_wordpool_576.txt	LTP338	ltpFR2	10	4	WOMAN	1620	n/a	n/a	0	0	0
704465	WORD	wordpools/wasnorm_wordpool_576.txt	LTP338	ltpFR2	10	4	MAILBOX	857	n/a	n/a	0	0	0
706974	WORD	wordpools/wasnorm_wordpool_576.txt	LTP338	ltpFR2	10	4	SANDWICH	1232	n/a	n/a	0	0	0
709498	WORD	wordpools/wasnorm_wordpool_576.txt	LTP338	ltpFR2	10	4	SPIDER	1351	n/a	n/a	0	0	0
711956	WORD	wordpools/wasnorm_wordpool_576.txt	LTP338	ltpFR2	10	4	DENIM	446	n/a	n/a	0	0	0
714699	WORD	wordpools/wasnorm_wordpool_576.txt	LTP338	ltpFR2	10	4	ULCER	1533	n/a	n/a	0	0	0
717340	WORD	wordpools/wasnorm_wordpool_576.txt	LTP338	ltpFR2	10	4	CLAM	315	n/a	n/a	0	0	0
719882	WORD	wordpools/wasnorm_wordpool_576.txt	LTP338	ltpFR2	10	4	CHURCH	307	n/a	n/a	0	0	0
722674	WORD	wordpools/wasnorm_wordpool_576.txt	LTP338	ltpFR2	10	4	BROOK	177	n/a	n/a	0	0	0
725383	WORD	wordpools/wasnorm_wordpool_576.txt	LTP338	ltpFR2	10	4	BULLET	194	n/a	n/a	0	0	0
727808	WORD	wordpools/wasnorm_wordpool_576.txt	LTP338	ltpFR2	10	4	AIRPORT	13	n/a	n/a	0	0	0
730299	WORD	wordpools/wasnorm_wordpool_576.txt	LTP338	ltpFR2	10	4	CRICKET	408	n/a	n/a	0	0	0
732924	WORD	wordpools/wasnorm_wordpool_576.txt	LTP338	ltpFR2	10	4	LAGOON	795	n/a	n/a	0	0	0
735633	WORD	wordpools/wasnorm_wordpool_576.txt	LTP338	ltpFR2	10	4	BLOUSE	139	n/a	n/a	0	0	0
738107	WORD	wordpools/wasnorm_wordpool_576.txt	LTP338	ltpFR2	10	4	COSTUME	383	n/a	n/a	0	0	0
740800	WORD	wordpools/wasnorm_wordpool_576.txt	LTP338	ltpFR2	10	4	SCISSORS	1250	n/a	n/a	0	0	0
743392	WORD	wordpools/wasnorm_wordpool_576.txt	LTP338	ltpFR2	10	4	HATCHET	691	n/a	n/a	0	0	0
744996	START	n/a	LTP338	ltpFR2	10	n/a	n/a	n/a	7	n/a	n/a	n/a	n/a
746112	DISTRACTOR	n/a	LTP338	ltpFR2	10	4	n/a	n/a	n/a	n/a	0	0	0
746116	PROB	n/a	LTP338	ltpFR2	10	n/a	n/a	n/a	7	21	7	8	6
748592	PROB	n/a	LTP338	ltpFR2	10	n/a	n/a	n/a	7	16	2	8	6
750515	PROB	n/a	LTP338	ltpFR2	10	n/a	n/a	n/a	7	4	1	1	2
751769	PROB	n/a	LTP338	ltpFR2	10	n/a	n/a	n/a	7	16	2	7	7
753206	PROB	n/a	LTP338	ltpFR2	10	n/a	n/a	n/a	7	19	6	5	8
754879	PROB	n/a	LTP338	ltpFR2	10	n/a	n/a	n/a	7	27	9	9	9
756785	PROB	n/a	LTP338	ltpFR2	10	n/a	n/a	n/a	7	11	2	1	8
758574	PROB	n/a	LTP338	ltpFR2	10	n/a	n/a	n/a	7	19	9	2	8
761433	PROB	n/a	LTP338	ltpFR2	10	n/a	n/a	n/a	7	15	7	4	4
763624	PROB	n/a	LTP338	ltpFR2	10	n/a	n/a	n/a	7	19	4	7	8
765094	PROB	n/a	LTP338	ltpFR2	10	n/a	n/a	n/a	7	22	9	7	6
767985	STOP	n/a	LTP338	ltpFR2	10	n/a	n/a	n/a	7	n/a	n/a	n/a	n/a
770781	REC_START	n/a	LTP338	ltpFR2	10	4	n/a	n/a	n/a	n/a	0	0	0
774889	REC_WORD	wordpools/wasnorm_wordpool_576.txt	LTP338	ltpFR2	10	4	HOSTESS	723	n/a	n/a	0	0	0
775636	REC_WORD	wordpools/wasnorm_wordpool_576.txt	LTP338	ltpFR2	10	4	WAITER	1580	n/a	n/a	0	0	0
778876	REC_WORD	wordpools/wasnorm_wordpool_576.txt	LTP338	ltpFR2	10	4	MAILBOX	857	n/a	n/a	0	0	0
779488	REC_WORD	wordpools/wasnorm_wordpool_576.txt	LTP338	ltpFR2	10	4	SANDWICH	1232	n/a	n/a	0	0	0
780031	REC_WORD	wordpools/wasnorm_wordpool_576.txt	LTP338	ltpFR2	10	4	SPIDER	1351	n/a	n/a	0	0	0
828870	REC_WORD	wordpools/wasnorm_wordpool_576.txt	LTP338	ltpFR2	10	4	BROOK	177	n/a	n/a	0	0	0
861222	DISTRACTOR	n/a	LTP338	ltpFR2	10	5	n/a	n/a	n/a	n/a	0	0	0
861222	START	n/a	LTP338	ltpFR2	10	n/a	n/a	n/a	8	n/a	n/a	n/a	n/a
861239	PROB	n/a	LTP338	ltpFR2	10	n/a	n/a	n/a	8	22	9	8	5
863648	PROB	n/a	LTP338	ltpFR2	10	n/a	n/a	n/a	8	10	1	1	8
864952	PROB	n/a	LTP338	ltpFR2	10	n/a	n/a	n/a	8	12	6	1	5
867007	PROB	n/a	LTP338	ltpFR2	10	n/a	n/a	n/a	8	19	5	9	5
868781	PROB	n/a	LTP338	ltpFR2	10	n/a	n/a	n/a	8	6	2	3	1
870386	PROB	n/a	LTP338	ltpFR2	10	n/a	n/a	n/a	8	19	7	4	8
871874	PROB	n/a	LTP338	ltpFR2	10	n/a	n/a	n/a	8	15	3	7	5
874064	PROB	n/a	LTP338	ltpFR2	10	n/a	n/a	n/a	8	12	6	5	1
875519	PROB	n/a	LTP338	ltpFR2	10	n/a	n/a	n/a	8	17	2	6	9
878227	PROB	n/a	LTP338	ltpFR2	10	n/a	n/a	n/a	8	16	4	9	3
880184	PROB	n/a	LTP338	ltpFR2	10	n/a	n/a	n/a	8	8	1	1	6
885222	STOP	n/a	LTP338	ltpFR2	10	n/a	n/a	n/a	8	n/a	n/a	n/a	n/a
886053	WORD	wordpools/wasnorm_wordpool_576.txt	LTP338	ltpFR2	10	5	BUGGY	188	n/a	n/a	0	0	0
888612	WORD	wordpools/wasnorm_wordpool_576.txt	LTP338	ltpFR2	10	5	SCARF	1246	n/a	n/a	0	0	0
891203	WORD	wordpools/wasnorm_wordpool_576.txt	LTP338	ltpFR2	10	5	COIN	343	n/a	n/a	0	0	0
893628	WORD	wordpools/wasnorm_wordpool_576.txt	LTP338	ltpFR2	10	5	SWITCH	1422	n/a	n/a	0	0	0
896437	WORD	wordpools/wasnorm_wordpool_576.txt	LTP338	ltpFR2	10	5	CARRIAGE	248	n/a	n/a	0	0	0
899111	WORD	wordpools/wasnorm_wordpool_576.txt	LTP338	ltpFR2	10	5	CANYON	235	n/a	n/a	0	0	0
901771	WORD	wordpools/wasnorm_wordpool_576.txt	LTP338	ltpFR2	10	5	BRANCH	168	n/a	n/a	0	0	0
904278	WORD	wordpools/wasnorm_wordpool_576.txt	LTP338	ltpFR2	10	5	GRIZZLY	662	n/a	n/a	0	0	0
906737	WORD	wordpools/wasnorm_wordpool_576.txt	LTP338	ltpFR2	10	5	VELVET	1555	n/a	n/a	0	0	0
909379	WORD	wordpools/wasnorm_wordpool_576.txt	LTP338	ltpFR2	10	5	LIPSTICK	829	n/a	n/a	0	0	0
911804	WORD	wordpools/wasnorm_wordpool_576.txt	LTP338	ltpFR2	10	5	SERVANT	1271	n/a	n/a	0	0	0
914261	WORD	wordpools/wasnorm_wordpool_576.txt	LTP338	ltpFR2	10	5	ISLAND	745	n/a	n/a	0	0	0
916937	WORD	wordpools/wasnorm_wordpool_576.txt	LTP338	ltpFR2	10	5	CLOCK	325	n/a	n/a	0	0	0
919529	WORD	wordpools/wasnorm_wordpool_576.txt	LTP338	ltpFR2	10	5	PLASTER	1085	n/a	n/a	0	0	0
922287	WORD	wordpools/wasnorm_wordpool_576.txt	LTP338	ltpFR2	10	5	CEILING	265	n/a	n/a	0	0	0
924796	WORD	wordpools/wasnorm_wordpool_576.txt	LTP338	ltpFR2	10	5	PLATE	1086	n/a	n/a	0	0	0
927454	WORD	wordpools/wasnorm_wordpool_576.txt	LTP338	ltpFR2	10	5	BANQUET	86	n/a	n/a	0	0	0
930145	WORD	wordpools/wasnorm_wordpool_576.txt	LTP338	ltpFR2	10	5	FLESH	579	n/a	n/a	0	0	0
932955	WORD	wordpools/wasnorm_wordpool_576.txt	LTP338	ltpFR2	10	5	RELISH	1183	n/a	n/a	0	0	0
935480	WORD	wordpools/wasnorm_wordpool_576.txt	LTP338	ltpFR2	10	5	NECKLACE	940	n/a	n/a	0	0	0
937921	WORD	wordpools/wasnorm_wordpool_576.txt	LTP338	ltpFR2	10	5	TOMBSTONE	1478	n/a	n/a	0	0	0
940697	WORD	wordpools/wasnorm_wordpool_576.txt	LTP338	ltpFR2	10	5	STALLION	1369	n/a	n/a	0	0	0
943238	WORD	wordpools/wasnorm_wordpool_576.txt	LTP338	ltpFR2	10	5	OYSTER	995	n/a	n/a	0	0	0
945797	WORD	wordpools/wasnorm_wordpool_576.txt	LTP338	ltpFR2	10	5	PIMPLE	1071	n/a	n/a	0	0	0
947402	START	n/a	LTP338	ltpFR2	10	n/a	n/a	n/a	9	n/a	n/a	n/a	n/a
948522	DISTRACTOR	n/a	LTP338	ltpFR2	10	5	n/a	n/a	n/a	n/a	0	0	0
948539	PROB	n/a	LTP338	ltpFR2	10	n/a	n/a	n/a	9	9	2	5	2
950194	PROB	n/a	LTP338	ltpFR2	10	n/a	n/a	n/a	9	11	6	4	1
951399	PROB	n/a	LTP338	ltpFR2	10	n/a	n/a	n/a	9	15	6	3	6
953120	PROB	n/a	LTP338	ltpFR2	10	n/a	n/a	n/a	9	15	3	6	6
954826	PROB	n/a	LTP338	ltpFR2	10	n/a	n/a	n/a	9	18	4	8	6
956381	PROB	n/a	LTP338	ltpFR2	10	n/a	n/a	n/a	9	15	1	5	9
958052	PROB	n/a	LTP338	ltpFR2	10	n/a	n/a	n/a	9	15	2	5	8
960796	PROB	n/a	LTP338	ltpFR2	10	n/a	n/a	n/a	9	14	3	4	7
962351	PROB	n/a	LTP338	ltpFR2	10	n/a	n/a	n/a	9	18	8	1	9
963605	PROB	n/a	LTP338	ltpFR2	10	n/a	n/a	n/a	9	17	9	3	5
965628	PROB	n/a	LTP338	ltpFR2	10	n/a	n/a	n/a	9	15	1	7	9
967031	PROB	n/a	LTP338	ltpFR2	10	n/a	n/a	n/a	9	12	2	8	2
970888	STOP	n/a	LTP338	ltpFR2	10	n/a	n/a	n/a	9	n/a	n/a	n/a	n/a
973320	REC_START	n/a	LTP338	ltpFR2	10	5	n/a	n/a	n/a	n/a	0	0	0
976437	REC_WORD	wordpools/wasnorm_wordpool_576.txt	LTP338	ltpFR2	10	5	BUGGY	188	n/a	n/a	0	0	0
976878	REC_WORD	wordpools/wasnorm_wordpool_576.txt	LTP338	ltpFR2	10	5	SCARF	1246	n/a	n/a	0	0	0
977779	REC_WORD	wordpools/wasnorm_wordpool_576.txt	LTP338	ltpFR2	10	5	COIN	343	n/a	n/a	0	0	0
978934	REC_WORD	wordpools/wasnorm_wordpool_576.txt	LTP338	ltpFR2	10	5	SWITCH	1422	n/a	n/a	0	0	0
979921	REC_WORD	wordpools/wasnorm_wordpool_576.txt	LTP338	ltpFR2	10	5	CARRIAGE	248	n/a	n/a	0	0	0
984393	REC_WORD	wordpools/wasnorm_wordpool_576.txt	LTP338	ltpFR2	10	5	TOMBSTONE	1478	n/a	n/a	0	0	0
985393	REC_WORD_VV	wordpools/wasnorm_wordpool_576.txt	LTP338	ltpFR2	10	5	<>	-1	n/a	n/a	0	0	0
1006360	REC_WORD	wordpools/wasnorm_wordpool_576.txt	LTP338	ltpFR2	10	5	STALLION	1369	n/a	n/a	0	0	0
1007089	REC_WORD	wordpools/wasnorm_wordpool_576.txt	LTP338	ltpFR2	10	5	OYSTER	995	n/a	n/a	0	0	0
1063779	WORD	wordpools/wasnorm_wordpool_576.txt	LTP338	ltpFR2	10	6	MAMMAL	861	n/a	n/a	0	0	0
1066388	WORD	wordpools/wasnorm_wordpool_576.txt	LTP338	ltpFR2	10	6	SEAL	1262	n/a	n/a	0	0	0
1069045	WORD	wordpools/wasnorm_wordpool_576.txt	LTP338	ltpFR2	10	6	SPOUSE	1358	n/a	n/a	0	0	0
1071721	WORD	wordpools/wasnorm_wordpool_576.txt	LTP338	ltpFR2	10	6	BEAKER	104	n/a	n/a	0	0	0
1074245	WORD	wordpools/wasnorm_wordpool_576.txt	LTP338	ltpFR2	10	6	TUTU	1524	n/a	n/a	0	0	0
1076888	WORD	wordpools/wasnorm_wordpool_576.txt	LTP338	ltpFR2	10	6	SKIRT	1319	n/a	n/a	0	0	0
1079530	WORD	wordpools/wasnorm_wordpool_576.txt	LTP338	ltpFR2	10	6	TWISTER	1530	n/a	n/a	0	0	0
1082004	WORD	wordpools/wasnorm_wordpool_576.txt	LTP338	ltpFR2	10	6	HOOD	714	n/a	n/a	0	0	0
1084680	WORD	wordpools/wasnorm_wordpool_576.txt	LTP338	ltpFR2	10	6	SLUG	1329	n/a	n/a	0	0	0
1087389	WORD	wordpools/wasnorm_wordpool_576.txt	LTP338	ltpFR2	10	6	KNIFE	785	n/a	n/a	0	0	0
1090013	WORD	wordpools/wasnorm_wordpool_576.txt	LTP338	ltpFR2	10	6	RAZOR	1171	n/a	n/a	0	0	0
1092539	WORD	wordpools/wasnorm_wordpool_576.txt	LTP338	ltpFR2	10	6	GARBAGE	622	n/a	n/a	0	0	0
1095096	WORD	wordpools/wasnorm_wordpool_576.txt	LTP338	ltpFR2	10	6	BOUQUET	157	n/a	n/a	0	0	0
1097522	WORD	wordpools/wasnorm_wordpool_576.txt	LTP338	ltpFR2	10	6	YOLK	1633	n/a	n/a	0	0	0
1100112	WORD	wordpools/wasnorm_wordpool_576.txt	LTP338	ltpFR2	10	6	WRIST	1626	n/a	n/a	0	0	0
1102705	WORD	wordpools/wasnorm_wordpool_576.txt	LTP338	ltpFR2	10	6	NEUTRON	947	n/a	n/a	0	0	0
1105414	WORD	wordpools/wasnorm_wordpool_576.txt	LTP338	ltpFR2	10	6	BOYFRIEND	162	n/a	n/a	0	0	0
1108155	WORD	wordpools/wasnorm_wordpool_576.txt	LTP338	ltpFR2	10	6	PLAZA	1088	n/a	n/a	0	0	0
1110648	WORD	wordpools/wasnorm_wordpool_576.txt	LTP338	ltpFR2	10	6	COUSIN	392	n/a	n/a	0	0	0
1113288	WORD	wordpools/wasnorm_wordpool_576.txt	LTP338	ltpFR2	10	6	LEG	809	n/a	n/a	0	0	0
1115898	WORD	wordpools/wasnorm_wordpool_576.txt	LTP338	ltpFR2	10	6	GLOVE	642	n/a	n/a	0	0	0
1118657	WORD	wordpools/wasnorm_wordpool_576.txt	LTP338	ltpFR2	10	6	RATTLE	1170	n/a	n/a	0	0	0
1121097	WORD	wordpools/wasnorm_wordpool_576.txt	LTP338	ltpFR2	10	6	SILK	1307	n/a	n/a	0	0	0
1123589	WORD	wordpools/wasnorm_wordpool_576.txt	LTP338	ltpFR2	10	6	WIFE	1609	n/a	n/a	0	0	0
1125194	START	n/a	LTP338	ltpFR2	10	n/a	n/a	n/a	10	n/a	n/a	n/a	n/a
1126268	DISTRACTOR	n/a	LTP338	ltpFR2	10	6	n/a	n/a	n/a	n/a	0	0	0
1126281	PROB	n/a	LTP338	ltpFR2	10	n/a	n/a	n/a	10	27	9	9	9
1128136	PROB	n/a	LTP338	ltpFR2	10	n/a	n/a	n/a	10	16	5	3	8
1129793	PROB	n/a	LTP338	ltpFR2	10	n/a	n/a	n/a	10	15	4	4	7
1131682	PROB	n/a	LTP338	ltpFR2	10	n/a	n/a	n/a	10	14	2	5	7
1133806	PROB	n/a	LTP338	ltpFR2	10	n/a	n/a	n/a	10	13	4	1	8
1135159	PROB	n/a	LTP338	ltpFR2	10	n/a	n/a	n/a	10	13	7	1	5
1139742	PROB	n/a	LTP338	ltpFR2	10	n/a	n/a	n/a	10	15	3	4	8
1141095	PROB	n/a	LTP338	ltpFR2	10	n/a	n/a	n/a	10	11	2	3	6
1143320	PROB	n/a	LTP338	ltpFR2	10	n/a	n/a	n/a	10	20	6	9	5
1146647	PROB	n/a	LTP338	ltpFR2	10	n/a	n/a	n/a	10	13	2	7	4
1149004	STOP	n/a	LTP338	ltpFR2	10	n/a	n/a	n/a	10	n/a	n/a	n/a	n/a
1150979	REC_START	n/a	LTP338	ltpFR2	10	6	n/a	n/a	n/a	n/a	0	0	0
1153903	REC_WORD	wordpools/wasnorm_wordpool_576.txt	LTP338	ltpFR2	10	6	MAMMAL	861	n/a	n/a	0	0	0
1154464	REC_WORD	wordpools/wasnorm_wordpool_576.txt	LTP338	ltpFR2	10	6	SEAL	1262	n/a	n/a	0	0	0
1155719	REC_WORD	wordpools/wasnorm_wordpool_576.txt	LTP338	ltpFR2	10	6	TUTU	1524	n/a	n/a	0	0	0
1156272	REC_WORD	wordpools/wasnorm_wordpool_576.txt	LTP338	ltpFR2	10	6	SKIRT	1319	n/a	n/a	0	0	0
1157313	REC_WORD	wordpools/wasnorm_wordpool_576.txt	LTP338	ltpFR2	10	6	SPOUSE	1358	n/a	n/a	0	0	0
1159218	REC_WORD	wordpools/wasnorm_wordpool_576.txt	LTP338	ltpFR2	10	6	KNIFE	785	n/a	n/a	0	0	0
1161191	REC_WORD	wordpools/wasnorm_wordpool_576.txt	LTP338	ltpFR2	10	6	HOOD	714	n/a	n/a	0	0	0
1161674	REC_WORD	wordpools/wasnorm_wordpool_576.txt	LTP338	ltpFR2	10	6	SLUG	1329	n/a	n/a	0	0	0
1163761	REC_WORD	wordpools/wasnorm_wordpool_576.txt	LTP338	ltpFR2	10	6	RAZOR	1171	n/a	n/a	0	0	0
1241438	WORD	wordpools/wasnorm_wordpool_576.txt	LTP338	ltpFR2	10	7	PERFUME	1049	n/a	n/a	0	0	0
1244095	WORD	wordpools/wasnorm_wordpool_576.txt	LTP338	ltpFR2	10	7	FRAGRANCE	599	n/a	n/a	0	0	0
1246906	WORD	wordpools/wasnorm_wordpool_576.txt	LTP338	ltpFR2	10	7	MESSAGE	888	n/a	n/a	0	0	0
1249564	WORD	wordpools/wasnorm_wordpool_576.txt	LTP338	ltpFR2	10	7	CHEST	295	n/a	n/a	0	0	0
1252255	WORD	wordpools/wasnorm_wordpool_576.txt	LTP338	ltpFR2	10	7	WARDROBE	1587	n/a	n/a	0	0	0
1254697	WORD	wordpools/wasnorm_wordpool_576.txt	LTP338	ltpFR2	10	7	SNAIL	1332	n/a	n/a	0	0	0
1257323	WORD	wordpools/wasnorm_wordpool_576.txt	LTP338	ltpFR2	10	7	MUSTARD	935	n/a	n/a	0	0	0
1259864	WORD	wordpools/wasnorm_wordpool_576.txt	LTP338	ltpFR2	10	7	MAILMAN	858	n/a	n/a	0	0	0
1262339	WORD	wordpools/wasnorm_wordpool_576.txt	LTP338	ltpFR2	10	7	ICING	732	n/a	n/a	0	0	0
1264847	WORD	wordpools/wasnorm_wordpool_576.txt	LTP338	ltpFR2	10	7	INFANT	737	n/a	n/a	0	0	0
1267556	WORD	wordpools/wasnorm_wordpool_576.txt	LTP338	ltpFR2	10	7	GARLIC	624	n/a	n/a	0	0	0
1270180	WORD	wordpools/wasnorm_wordpool_576.txt	LTP338	ltpFR2	10	7	SHELTER	1282	n/a	n/a	0	0	0
1272656	WORD	wordpools/wasnorm_wordpool_576.txt	LTP338	ltpFR2	10	7	BUG	187	n/a	n/a	0	0	0
1275465	WORD	wordpools/wasnorm_wordpool_576.txt	LTP338	ltpFR2	10	7	PLAYGROUND	1087	n/a	n/a	0	0	0
1278039	WORD	wordpools/wasnorm_wordpool_576.txt	LTP338	ltpFR2	10	7	VAGRANT	1544	n/a	n/a	0	0	0
1280631	WORD	wordpools/wasnorm_wordpool_576.txt	LTP338	ltpFR2	10	7	BISON	131	n/a	n/a	0	0	0
1283340	WORD	wordpools/wasnorm_wordpool_576.txt	LTP338	ltpFR2	10	7	CHAMPAGNE	278	n/a	n/a	0	0	0
1285798	WORD	wordpools/wasnorm_wordpool_576.txt	LTP338	ltpFR2	10	7	CABIN	211	n/a	n/a	0	0	0
1288373	WORD	wordpools/wasnorm_wordpool_576.txt	LTP338	ltpFR2	10	7	FOOTBALL	591	n/a	n/a	0	0	0
1291165	WORD	wordpools/wasnorm_wordpool_576.txt	LTP338	ltpFR2	10	7	FLUTE	585	n/a	n/a	0	0	0
1293791	WORD	wordpools/wasnorm_wordpool_576.txt	LTP338	ltpFR2	10	7	CROSS	413	n/a	n/a	0	0	0
1296214	WORD	wordpools/wasnorm_wordpool_576.txt	LTP338	ltpFR2	10	7	PARSLEY	1016	n/a	n/a	0	0	0
1298790	WORD	wordpools/wasnorm_wordpool_576.txt	LTP338	ltpFR2	10	7	RADISH	1158	n/a	n/a	0	0	0
1301432	WORD	wordpools/wasnorm_wordpool_576.txt	LTP338	ltpFR2	10	7	BEAVER	109	n/a	n/a	0	0	0
1303036	START	n/a	LTP338	ltpFR2	10	n/a	n/a	n/a	11	n/a	n/a	n/a	n/a
1304168	DISTRACTOR	n/a	LTP338	ltpFR2	10	7	n/a	n/a	n/a	n/a	0	0	0
1304173	PROB	n/a	LTP338	ltpFR2	10	n/a	n/a	n/a	11	7	2	4	1
1305696	PROB	n/a	LTP338	ltpFR2	10	n/a	n/a	n/a	11	18	3	8	7
1306999	PROB	n/a	LTP338	ltpFR2	10	n/a	n/a	n/a	11	21	8	4	9
1308806	PROB	n/a	LTP338	ltpFR2	10	n/a	n/a	n/a	11	19	6	5	8
1310159	PROB	n/a	LTP338	ltpFR2	10	n/a	n/a	n/a	11	11	2	8	1
1311498	PROB	n/a	LTP338	ltpFR2	10	n/a	n/a	n/a	11	12	3	2	7
1314809	PROB	n/a	LTP338	ltpFR2	10	n/a	n/a	n/a	11	21	8	9	4
1317282	PROB	n/a	LTP338	ltpFR2	10	n/a	n/a	n/a	11	19	6	6	7
1319591	PROB	n/a	LTP338	ltpFR2	10	n/a	n/a	n/a	11	14	3	7	4
1320979	PROB	n/a	LTP338	ltpFR2	10	n/a	n/a	n/a	11	16	7	7	2
1322400	PROB	n/a	LTP338	ltpFR2	10	n/a	n/a	n/a	11	10	1	7	2
1323938	PROB	n/a	LTP338	ltpFR2	10	n/a	n/a	n/a	11	9	6	1	2
1326506	STOP	n/a	LTP338	ltpFR2	10	n/a	n/a	n/a	11	n/a	n/a	n/a	n/a
1328972	REC_START	n/a	LTP338	ltpFR2	10	7	n/a	n/a	n/a	n/a	0	0	0
1332352	REC_WORD	wordpools/wasnorm_wordpool_576.txt	LTP338	ltpFR2	10	7	PERFUME	1049	n/a	n/a	0	0	0
1332999	REC_WORD	wordpools/wasnorm_wordpool_576.txt	LTP338	ltpFR2	10	7	FRAGRANCE	599	n/a	n/a	0	0	0
1333999	REC_WORD_VV	wordpools/wasnorm_wordpool_576.txt	LTP338	ltpFR2	10	7	<>	-1	n/a	n/a	0	0	0
1335080	REC_WORD	wordpools/wasnorm_wordpool_576.txt	LTP338	ltpFR2	10	7	MESSAGE	888	n/a	n/a	0	0	0
1335758	REC_WORD	wordpools/wasnorm_wordpool_576.txt	LTP338	ltpFR2	10	7	CHEST	295	n/a	n/a	0	0	0
1337584	REC_WORD	wordpools/wasnorm_wordpool_576.txt	LTP338	ltpFR2	10	7	WARDROBE	1587	n/a	n/a	0	0	0
1338220	REC_WORD	wordpools/wasnorm_wordpool_576.txt	LTP338	ltpFR2	10	7	SNAIL	1332	n/a	n/a	0	0	0
1342346	REC_WORD	wordpools/wasnorm_wordpool_576.txt	LTP338	ltpFR2	10	7	GARLIC	624	n/a	n/a	0	0	0
1342918	REC_WORD	wordpools/wasnorm_wordpool_576.txt	LTP338	ltpFR2	10	7	INFANT	737	n/a	n/a	0	0	0
1343666	REC_WORD	wordpools/wasnorm_wordpool_576.txt	LTP338	ltpFR2	10	7	MUSTARD	935	n/a	n/a	0	0	0
1344310	REC_WORD	wordpools/wasnorm_wordpool_576.txt	LTP338	ltpFR2	10	7	MAILMAN	858	n/a	n/a	0	0	0
1419414	DISTRACTOR	n/a	LTP338	ltpFR2	10	8	n/a	n/a	n/a	n/a	0	0	0
1419414	START	n/a	LTP338	ltpFR2	10	n/a	n/a	n/a	12	n/a	n/a	n/a	n/a
1419431	PROB	n/a	LTP338	ltpFR2	10	n/a	n/a	n/a	12	19	9	5	7
1421269	PROB	n/a	LTP338	ltpFR2	10	n/a	n/a	n/a	12	16	5	2	9
1424798	PROB	n/a	LTP338	ltpFR2	10	n/a	n/a	n/a	12	18	3	6	9
1426470	PROB	n/a	LTP338	ltpFR2	10	n/a	n/a	n/a	12	9	4	1	4
1428258	PROB	n/a	LTP338	ltpFR2	10	n/a	n/a	n/a	12	23	6	9	8
1430951	PROB	n/a	LTP338	ltpFR2	10	n/a	n/a	n/a	12	15	1	7	7
1432373	PROB	n/a	LTP338	ltpFR2	10	n/a	n/a	n/a	12	22	6	8	8
1434077	PROB	n/a	LTP338	ltpFR2	10	n/a	n/a	n/a	12	22	9	4	9
1435918	PROB	n/a	LTP338	ltpFR2	10	n/a	n/a	n/a	12	17	6	7	4
1438827	PROB	n/a	LTP338	ltpFR2	10	n/a	n/a	n/a	12	16	8	5	3
1440466	PROB	n/a	LTP338	ltpFR2	10	n/a	n/a	n/a	12	12	3	6	3
1442510	STOP	n/a	LTP338	ltpFR2	10	n/a	n/a	n/a	12	n/a	n/a	n/a	n/a
1444395	WORD	wordpools/wasnorm_wordpool_576.txt	LTP338	ltpFR2	10	8	PISTON	1076	n/a	n/a	0	0	0
1447019	WORD	wordpools/wasnorm_wordpool_576.txt	LTP338	ltpFR2	10	8	ROCKET	1202	n/a	n/a	0	0	0
1449528	WORD	wordpools/wasnorm_wordpool_576.txt	LTP338	ltpFR2	10	8	COURSE	390	n/a	n/a	0	0	0
1452337	WORD	wordpools/wasnorm_wordpool_576.txt	LTP338	ltpFR2	10	8	CRUTCH	417	n/a	n/a	0	0	0
1454845	WORD	wordpools/wasnorm_wordpool_576.txt	LTP338	ltpFR2	10	8	ARM	38	n/a	n/a	0	0	0
1457638	WORD	wordpools/wasnorm_wordpool_576.txt	LTP338	ltpFR2	10	8	LUMBER	848	n/a	n/a	0	0	0
1460095	WORD	wordpools/wasnorm_wordpool_576.txt	LTP338	ltpFR2	10	8	KEEPER	769	n/a	n/a	0	0	0
1462587	WORD	wordpools/wasnorm_wordpool_576.txt	LTP338	ltpFR2	10	8	MUFFIN	929	n/a	n/a	0	0	0
1465380	WORD	wordpools/wasnorm_wordpool_576.txt	LTP338	ltpFR2	10	8	CHILD	299	n/a	n/a	0	0	0
1468087	WORD	wordpools/wasnorm_wordpool_576.txt	LTP338	ltpFR2	10	8	FOX	598	n/a	n/a	0	0	0
1470697	WORD	wordpools/wasnorm_wordpool_576.txt	LTP338	ltpFR2	10	8	LIGHTNING	820	n/a	n/a	0	0	0
1473372	WORD	wordpools/wasnorm_wordpool_576.txt	LTP338	ltpFR2	10	8	POISON	1096	n/a	n/a	0	0	0
1476080	WORD	wordpools/wasnorm_wordpool_576.txt	LTP338	ltpFR2	10	8	BLACKBOARD	133	n/a	n/a	0	0	0
1478823	WORD	wordpools/wasnorm_wordpool_576.txt	LTP338	ltpFR2	10	8	CRIB	407	n/a	n/a	0	0	0
1481298	WORD	wordpools/wasnorm_wordpool_576.txt	LTP338	ltpFR2	10	8	TORTOISE	1486	n/a	n/a	0	0	0
1483940	WORD	wordpools/wasnorm_wordpool_576.txt	LTP338	ltpFR2	10	8	BUNNY	198	n/a	n/a	0	0	0
1486732	WORD	wordpools/wasnorm_wordpool_576.txt	LTP338	ltpFR2	10	8	FEMALE	559	n/a	n/a	0	0	0
1489239	WORD	wordpools/wasnorm_wordpool_576.txt	LTP338	ltpFR2	10	8	HERO	706	n/a	n/a	0	0	0
1491849	WORD	wordpools/wasnorm_wordpool_576.txt	LTP338	ltpFR2	10	8	STICKER	1382	n/a	n/a	0	0	0
1494491	WORD	wordpools/wasnorm_wordpool_576.txt	LTP338	ltpFR2	10	8	SLIME	1327	n/a	n/a	0	0	0
1496998	WORD	wordpools/wasnorm_wordpool_576.txt	LTP338	ltpFR2	10	8	MILDEW	893	n/a	n/a	0	0	0
1499607	WORD	wordpools/wasnorm_wordpool_576.txt	LTP338	ltpFR2	10	8	SPOON	1357	n/a	n/a	0	0	0
1502081	WORD	wordpools/wasnorm_wordpool_576.txt	LTP338	ltpFR2	10	8	RABBIT	1152	n/a	n/a	0	0	0
1504824	WORD	wordpools/wasnorm_wordpool_576.txt	LTP338	ltpFR2	10	8	PARENT	1013	n/a	n/a	0	0	0
1506429	START	n/a	LTP338	ltpFR2	10	n/a	n/a	n/a	13	n/a	n/a	n/a	n/a
1507520	DISTRACTOR	n/a	LTP338	ltpFR2	10	8	n/a	n/a	n/a	n/a	0	0	0
1507533	PROB	n/a	LTP338	ltpFR2	10	n/a	n/a	n/a	13	14	4	3	7
1509990	PROB	n/a	LTP338	ltpFR2	10	n/a	n/a	n/a	13	24	8	9	7
1511947	PROB	n/a	LTP338	ltpFR2	10	n/a	n/a	n/a	13	16	1	8	7
1514070	PROB	n/a	LTP338	ltpFR2	10	n/a	n/a	n/a	13	14	5	8	1
1516930	PROB	n/a	LTP338	ltpFR2	10	n/a	n/a	n/a	13	15	3	3	9
1518468	PROB	n/a	LTP338	ltpFR2	10	n/a	n/a	n/a	13	18	7	2	9
1520189	PROB	n/a	LTP338	ltpFR2	10	n/a	n/a	n/a	13	17	1	7	9
1522331	PROB	n/a	LTP338	ltpFR2	10	n/a	n/a	n/a	13	20	5	7	8
1524988	PROB	n/a	LTP338	ltpFR2	10	n/a	n/a	n/a	13	21	5	7	9
1526678	PROB	n/a	LTP338	ltpFR2	10	n/a	n/a	n/a	13	14	7	3	4
1530429	STOP	n/a	LTP338	ltpFR2	10	n/a	n/a	n/a	13	n/a	n/a	n/a	n/a
1532330	REC_START	n/a	LTP338	ltpFR2	10	8	n/a	n/a	n/a	n/a	0	0	0
1534743	REC_WORD	wordpools/wasnorm_wordpool_576.txt	LTP338	ltpFR2	10	8	COURSE	390	n/a	n/a	0	0	0
1535453	REC_WORD	wordpools/wasnorm_wordpool_576.txt	LTP338	ltpFR2	10	8	CRUTCH	417	n/a	n/a	0	0	0
1536884	REC_WORD	wordpools/wasnorm_wordpool_576.txt	LTP338	ltpFR2	10	8	CHILD	299	n/a	n/a	0	0	0
1537575	REC_WORD	wordpools/wasnorm_wordpool_576.txt	LTP338	ltpFR2	10	8	FOX	598	n/a	n/a	0	0	0
1538454	REC_WORD	wordpools/wasnorm_wordpool_576.txt	LTP338	ltpFR2	10	8	LIGHTNING	820	n/a	n/a	0	0	0
1539342	REC_WORD	wordpools/wasnorm_wordpool_576.txt	LTP338	ltpFR2	10	8	POISON	1096	n/a	n/a	0	0	0
1540959	REC_WORD	wordpools/wasnorm_wordpool_576.txt	LTP338	ltpFR2	10	8	BLACKBOARD	133	n/a	n/a	0	0	0
1542662	REC_WORD	wordpools/wasnorm_wordpool_576.txt	LTP338	ltpFR2	10	8	BUNNY	198	n/a	n/a	0	0	0
1543471	REC_WORD	wordpools/wasnorm_wordpool_576.txt	LTP338	ltpFR2	10	8	RABBIT	1152	n/a	n/a	0	0	0
1544595	REC_WORD	wordpools/wasnorm_wordpool_576.txt	LTP338	ltpFR2	10	8	PARENT	1013	n/a	n/a	0	0	0
1548376	REC_WORD	wordpools/wasnorm_wordpool_576.txt	LTP338	ltpFR2	10	8	SLIME	1327	n/a	n/a	0	0	0
1549090	REC_WORD	wordpools/wasnorm_wordpool_576.txt	LTP338	ltpFR2	10	8	MILDEW	893	n/a	n/a	0	0	0
1608861	REST_REWET	n/a	LTP338	ltpFR2	10	8	n/a	n/a	n/a	n/a	0	0	0
1693385	WORD	wordpools/wasnorm_wordpool_576.txt	LTP338	ltpFR2	10	9	CIGAR	308	n/a	n/a	0	0	0
1696143	WORD	wordpools/wasnorm_wordpool_576.txt	LTP338	ltpFR2	10	9	PADDLE	1000	n/a	n/a	0	0	0
1698719	WORD	wordpools/wasnorm_wordpool_576.txt	LTP338	ltpFR2	10	9	GARDEN	623	n/a	n/a	0	0	0
1701461	WORD	wordpools/wasnorm_wordpool_576.txt	LTP338	ltpFR2	10	9	LION	827	n/a	n/a	0	0	0
1704102	WORD	wordpools/wasnorm_wordpool_576.txt	LTP338	ltpFR2	10	9	CROWN	415	n/a	n/a	0	0	0
1706678	WORD	wordpools/wasnorm_wordpool_576.txt	LTP338	ltpFR2	10	9	JOURNAL	760	n/a	n/a	0	0	0
1709370	WORD	wordpools/wasnorm_wordpool_576.txt	LTP338	ltpFR2	10	9	BABY	64	n/a	n/a	0	0	0
1712027	WORD	wordpools/wasnorm_wordpool_576.txt	LTP338	ltpFR2	10	9	CASKET	255	n/a	n/a	0	0	0
1714453	WORD	wordpools/wasnorm_wordpool_576.txt	LTP338	ltpFR2	10	9	BANKER	84	n/a	n/a	0	0	0
1717211	WORD	wordpools/wasnorm_wordpool_576.txt	LTP338	ltpFR2	10	9	PANTHER	1009	n/a	n/a	0	0	0
1719636	WORD	wordpools/wasnorm_wordpool_576.txt	LTP338	ltpFR2	10	9	DONKEY	484	n/a	n/a	0	0	0
1722160	WORD	wordpools/wasnorm_wordpool_576.txt	LTP338	ltpFR2	10	9	SUNRISE	1407	n/a	n/a	0	0	0
1724686	WORD	wordpools/wasnorm_wordpool_576.txt	LTP338	ltpFR2	10	9	FLAG	573	n/a	n/a	0	0	0
1727378	WORD	wordpools/wasnorm_wordpool_576.txt	LTP338	ltpFR2	10	9	PUDDING	1139	n/a	n/a	0	0	0
1730136	WORD	wordpools/wasnorm_wordpool_576.txt	LTP338	ltpFR2	10	9	JELLO	754	n/a	n/a	0	0	0
1732645	WORD	wordpools/wasnorm_wordpool_576.txt	LTP338	ltpFR2	10	9	TEACHER	1440	n/a	n/a	0	0	0
1735371	WORD	wordpools/wasnorm_wordpool_576.txt	LTP338	ltpFR2	10	9	NOTEBOOK	959	n/a	n/a	0	0	0
1737929	WORD	wordpools/wasnorm_wordpool_576.txt	LTP338	ltpFR2	10	9	SHORTCAKE	1292	n/a	n/a	0	0	0
1740671	WORD	wordpools/wasnorm_wordpool_576.txt	LTP338	ltpFR2	10	9	SMOG	1330	n/a	n/a	0	0	0
1743330	WORD	wordpools/wasnorm_wordpool_576.txt	LTP338	ltpFR2	10	9	CLOUD	328	n/a	n/a	0	0	0
1745955	WORD	wordpools/wasnorm_wordpool_576.txt	LTP338	ltpFR2	10	9	PRINCE	1124	n/a	n/a	0	0	0
1748530	WORD	wordpools/wasnorm_wordpool_576.txt	LTP338	ltpFR2	10	9	ONION	977	n/a	n/a	0	0	0
1751054	WORD	wordpools/wasnorm_wordpool_576.txt	LTP338	ltpFR2	10	9	PALACE	1006	n/a	n/a	0	0	0
1753513	WORD	wordpools/wasnorm_wordpool_576.txt	LTP338	ltpFR2	10	9	GAZELLE	628	n/a	n/a	0	0	0
1755117	START	n/a	LTP338	ltpFR2	10	n/a	n/a	n/a	14	n/a	n/a	n/a	n/a
1755935	DISTRACTOR	n/a	LTP338	ltpFR2	10	9	n/a	n/a	n/a	n/a	0	0	0
1755937	PROB	n/a	LTP338	ltpFR2	10	n/a	n/a	n/a	14	13	2	9	2
1758830	PROB	n/a	LTP338	ltpFR2	10	n/a	n/a	n/a	14	14	2	8	4
1761656	PROB	n/a	LTP338	ltpFR2	10	n/a	n/a	n/a	14	22	8	5	9
1764532	PROB	n/a	LTP338	ltpFR2	10	n/a	n/a	n/a	14	18	7	5	6
1766722	PROB	n/a	LTP338	ltpFR2	10	n/a	n/a	n/a	14	13	4	8	1
1768461	PROB	n/a	LTP338	ltpFR2	10	n/a	n/a	n/a	14	7	2	2	3
1770049	PROB	n/a	LTP338	ltpFR2	10	n/a	n/a	n/a	14	15	2	5	8
1772357	PROB	n/a	LTP338	ltpFR2	10	n/a	n/a	n/a	14	10	2	5	3
1774112	PROB	n/a	LTP338	ltpFR2	10	n/a	n/a	n/a	14	10	6	3	1
1775902	PROB	n/a	LTP338	ltpFR2	10	n/a	n/a	n/a	14	16	8	6	2
1777815	STOP	n/a	LTP338	ltpFR2	10	n/a	n/a	n/a	14	n/a	n/a	n/a	n/a
1780969	REC_START	n/a	LTP338	ltpFR2	10	9	n/a	n/a	n/a	n/a	0	0	0
1781764	REC_WORD	wordpools/wasnorm_wordpool_576.txt	LTP338	ltpFR2	10	9	CIGAR	308	n/a	n/a	0	0	0
1783708	REC_WORD	wordpools/wasnorm_wordpool_576.txt	LTP338	ltpFR2	10	9	GARDEN	623	n/a	n/a	0	0	0
1785274	REC_WORD	wordpools/wasnorm_wordpool_576.txt	LTP338	ltpFR2	10	9	PANTHER	1009	n/a	n/a	0	0	0
1785954	REC_WORD	wordpools/wasnorm_wordpool_576.txt	LTP338	ltpFR2	10	9	PUDDING	1139	n/a	n/a	0	0	0
1786844	REC_WORD	wordpools/wasnorm_wordpool_576.txt	LTP338	ltpFR2	10	9	JELLO	754	n/a	n/a	0	0	0
1871428	WORD	wordpools/wasnorm_wordpool_576.txt	LTP338	ltpFR2	10	10	LOFT	840	n/a	n/a	0	0	0
1874136	WORD	wordpools/wasnorm_wordpool_576.txt	LTP338	ltpFR2	10	10	SPHINX	1349	n/a	n/a	0	0	0
1876611	WORD	wordpools/wasnorm_wordpool_576.txt	LTP338	ltpFR2	10	10	STATUE	1374	n/a	n/a	0	0	0
1879387	WORD	wordpools/wasnorm_wordpool_576.txt	LTP338	ltpFR2	10	10	WITNESS	1618	n/a	n/a	0	0	0
1882095	WORD	wordpools/wasnorm_wordpool_576.txt	LTP338	ltpFR2	10	10	ICEBERG	731	n/a	n/a	0	0	0
1884754	WORD	wordpools/wasnorm_wordpool_576.txt	LTP338	ltpFR2	10	10	IGLOO	734	n/a	n/a	0	0	0
1887513	WORD	wordpools/wasnorm_wordpool_576.txt	LTP338	ltpFR2	10	10	LADY	794	n/a	n/a	0	0	0
1890137	WORD	wordpools/wasnorm_wordpool_576.txt	LTP338	ltpFR2	10	10	CORAL	378	n/a	n/a	0	0	0
1892797	WORD	wordpools/wasnorm_wordpool_576.txt	LTP338	ltpFR2	10	10	QUAIL	1147	n/a	n/a	0	0	0
1895406	WORD	wordpools/wasnorm_wordpool_576.txt	LTP338	ltpFR2	10	10	RECEIPT	1173	n/a	n/a	0	0	0
1897947	WORD	wordpools/wasnorm_wordpool_576.txt	LTP338	ltpFR2	10	10	RECORD	1176	n/a	n/a	0	0	0
1900689	WORD	wordpools/wasnorm_wordpool_576.txt	LTP338	ltpFR2	10	10	STAR	1373	n/a	n/a	0	0	0
1903263	WORD	wordpools/wasnorm_wordpool_576.txt	LTP338	ltpFR2	10	10	SALT	1229	n/a	n/a	0	0	0
1905839	WORD	wordpools/wasnorm_wordpool_576.txt	LTP338	ltpFR2	10	10	FRANCE	601	n/a	n/a	0	0	0
1908648	WORD	wordpools/wasnorm_wordpool_576.txt	LTP338	ltpFR2	10	10	TUBA	1515	n/a	n/a	0	0	0
1911391	WORD	wordpools/wasnorm_wordpool_576.txt	LTP338	ltpFR2	10	10	QUARTER	1148	n/a	n/a	0	0	0
1914032	WORD	wordpools/wasnorm_wordpool_576.txt	LTP338	ltpFR2	10	10	SKILLET	1317	n/a	n/a	0	0	0
1916524	WORD	wordpools/wasnorm_wordpool_576.txt	LTP338	ltpFR2	10	10	COOK	372	n/a	n/a	0	0	0
1918982	WORD	wordpools/wasnorm_wordpool_576.txt	LTP338	ltpFR2	10	10	HEART	697	n/a	n/a	0	0	0
1921674	WORD	wordpools/wasnorm_wordpool_576.txt	LTP338	ltpFR2	10	10	COUCH	386	n/a	n/a	0	0	0
1924148	WORD	wordpools/wasnorm_wordpool_576.txt	LTP338	ltpFR2	10	10	STAMP	1370	n/a	n/a	0	0	0
1926874	WORD	wordpools/wasnorm_wordpool_576.txt	LTP338	ltpFR2	10	10	FUNGUS	614	n/a	n/a	0	0	0
1929683	WORD	wordpools/wasnorm_wordpool_576.txt	LTP338	ltpFR2	10	10	CELLAR	267	n/a	n/a	0	0	0
1932140	WORD	wordpools/wasnorm_wordpool_576.txt	LTP338	ltpFR2	10	10	SIBLING	1301	n/a	n/a	0	0	0
1933747	START	n/a	LTP338	ltpFR2	10	n/a	n/a	n/a	15	n/a	n/a	n/a	n/a
1934897	DISTRACTOR	n/a	LTP338	ltpFR2	10	10	n/a	n/a	n/a	n/a	0	0	0
1934900	PROB	n/a	LTP338	ltpFR2	10	n/a	n/a	n/a	15	15	8	4	3
1936823	PROB	n/a	LTP338	ltpFR2	10	n/a	n/a	n/a	15	16	5	3	8
1938143	PROB	n/a	LTP338	ltpFR2	10	n/a	n/a	n/a	15	15	4	6	5
1939498	PROB	n/a	LTP338	ltpFR2	10	n/a	n/a	n/a	15	15	5	9	1
1941153	PROB	n/a	LTP338	ltpFR2	10	n/a	n/a	n/a	15	16	5	9	2
1942776	PROB	n/a	LTP338	ltpFR2	10	n/a	n/a	n/a	15	9	2	4	3
1944899	PROB	n/a	LTP338	ltpFR2	10	n/a	n/a	n/a	15	18	6	5	7
1946354	PROB	n/a	LTP338	ltpFR2	10	n/a	n/a	n/a	15	18	6	3	9
1949648	PROB	n/a	LTP338	ltpFR2	10	n/a	n/a	n/a	15	17	5	3	9
1953326	PROB	n/a	LTP338	ltpFR2	10	n/a	n/a	n/a	15	17	7	1	9
1955048	PROB	n/a	LTP338	ltpFR2	10	n/a	n/a	n/a	15	18	7	9	2
1956788	STOP	n/a	LTP338	ltpFR2	10	n/a	n/a	n/a	15	n/a	n/a	n/a	n/a
1959564	REC_START	n/a	LTP338	ltpFR2	10	10	n/a	n/a	n/a	n/a	0	0	0
1960976	REC_WORD	wordpools/wasnorm_wordpool_576.txt	LTP338	ltpFR2	10	10	LOFT	840	n/a	n/a	0	0	0
1961634	REC_WORD	wordpools/wasnorm_wordpool_576.txt	LTP338	ltpFR2	10	10	SPHINX	1349	n/a	n/a	0	0	0
1962435	REC_WORD	wordpools/wasnorm_wordpool_576.txt	LTP338	ltpFR2	10	10	STATUE	1374	n/a	n/a	0	0	0
1964801	REC_WORD	wordpools/wasnorm_wordpool_576.txt	LTP338	ltpFR2	10	10	ICEBERG	731	n/a	n/a	0	0	0
1965638	REC_WORD	wordpools/wasnorm_wordpool_576.txt	LTP338	ltpFR2	10	10	IGLOO	734	n/a	n/a	0	0	0
1967074	REC_WORD	wordpools/wasnorm_wordpool_576.txt	LTP338	ltpFR2	10	10	CORAL	378	n/a	n/a	0	0	0
2016712	REC_WORD	wordpools/wasnorm_wordpool_576.txt	LTP338	ltpFR2	10	10	TUBA	1515	n/a	n/a	0	0	0
2017453	REC_WORD	wordpools/wasnorm_wordpool_576.txt	LTP338	ltpFR2	10	10	COOK	372	n/a	n/a	0	0	0
2017985	REC_WORD	wordpools/wasnorm_wordpool_576.txt	LTP338	ltpFR2	10	10	SKILLET	1317	n/a	n/a	0	0	0
2050022	WORD	wordpools/wasnorm_wordpool_576.txt	LTP338	ltpFR2	10	11	CAFE	216	n/a	n/a	0	0	0
2052581	WORD	wordpools/wasnorm_wordpool_576.txt	LTP338	ltpFR2	10	11	SERVER	1272	n/a	n/a	0	0	0
2055172	WORD	wordpools/wasnorm_wordpool_576.txt	LTP338	ltpFR2	10	11	EXPERT	543	n/a	n/a	0	0	0
2057664	WORD	wordpools/wasnorm_wordpool_576.txt	LTP338	ltpFR2	10	11	POWDER	1117	n/a	n/a	0	0	0
2060373	WORD	wordpools/wasnorm_wordpool_576.txt	LTP338	ltpFR2	10	11	SCOTCH	1251	n/a	n/a	0	0	0
2062814	WORD	wordpools/wasnorm_wordpool_576.txt	LTP338	ltpFR2	10	11	MOTOR	922	n/a	n/a	0	0	0
2065271	WORD	wordpools/wasnorm_wordpool_576.txt	LTP338	ltpFR2	10	11	CRATER	400	n/a	n/a	0	0	0
2067997	WORD	wordpools/wasnorm_wordpool_576.txt	LTP338	ltpFR2	10	11	LADDER	793	n/a	n/a	0	0	0
2070707	WORD	wordpools/wasnorm_wordpool_576.txt	LTP338	ltpFR2	10	11	DASHBOARD	441	n/a	n/a	0	0	0
2073247	WORD	wordpools/wasnorm_wordpool_576.txt	LTP338	ltpFR2	10	11	PATROL	1027	n/a	n/a	0	0	0
2075940	WORD	wordpools/wasnorm_wordpool_576.txt	LTP338	ltpFR2	10	11	COUNTY	389	n/a	n/a	0	0	0
2078666	WORD	wordpools/wasnorm_wordpool_576.txt	LTP338	ltpFR2	10	11	EUROPE	541	n/a	n/a	0	0	0
2081189	WORD	wordpools/wasnorm_wordpool_576.txt	LTP338	ltpFR2	10	11	FIREMAN	569	n/a	n/a	0	0	0
2083949	WORD	wordpools/wasnorm_wordpool_576.txt	LTP338	ltpFR2	10	11	DAUGHTER	442	n/a	n/a	0	0	0
2086391	WORD	wordpools/wasnorm_wordpool_576.txt	LTP338	ltpFR2	10	11	PORK	1108	n/a	n/a	0	0	0
2089098	WORD	wordpools/wasnorm_wordpool_576.txt	LTP338	ltpFR2	10	11	LASER	801	n/a	n/a	0	0	0
2091608	WORD	wordpools/wasnorm_wordpool_576.txt	LTP338	ltpFR2	10	11	YACHT	1629	n/a	n/a	0	0	0
2094265	WORD	wordpools/wasnorm_wordpool_576.txt	LTP338	ltpFR2	10	11	LIVER	833	n/a	n/a	0	0	0
2096741	WORD	wordpools/wasnorm_wordpool_576.txt	LTP338	ltpFR2	10	11	CANAL	226	n/a	n/a	0	0	0
2099181	WORD	wordpools/wasnorm_wordpool_576.txt	LTP338	ltpFR2	10	11	LONDON	843	n/a	n/a	0	0	0
2101857	WORD	wordpools/wasnorm_wordpool_576.txt	LTP338	ltpFR2	10	11	CAPTIVE	240	n/a	n/a	0	0	0
2104499	WORD	wordpools/wasnorm_wordpool_576.txt	LTP338	ltpFR2	10	11	GRILL	661	n/a	n/a	0	0	0
2107157	WORD	wordpools/wasnorm_wordpool_576.txt	LTP338	ltpFR2	10	11	AUTHOR	61	n/a	n/a	0	0	0
2109850	WORD	wordpools/wasnorm_wordpool_576.txt	LTP338	ltpFR2	10	11	NOVEL	960	n/a	n/a	0	0	0
2111455	START	n/a	LTP338	ltpFR2	10	n/a	n/a	n/a	16	n/a	n/a	n/a	n/a
2112376	DISTRACTOR	n/a	LTP338	ltpFR2	10	11	n/a	n/a	n/a	n/a	0	0	0
2112391	PROB	n/a	LTP338	ltpFR2	10	n/a	n/a	n/a	16	7	1	5	1
2115869	PROB	n/a	LTP338	ltpFR2	10	n/a	n/a	n/a	16	13	2	7	4
2118276	PROB	n/a	LTP338	ltpFR2	10	n/a	n/a	n/a	16	14	6	7	1
2121035	PROB	n/a	LTP338	ltpFR2	10	n/a	n/a	n/a	16	18	8	8	2
2123410	PROB	n/a	LTP338	ltpFR2	10	n/a	n/a	n/a	16	15	9	4	2
2126387	PROB	n/a	LTP338	ltpFR2	10	n/a	n/a	n/a	16	12	5	5	2
2128091	PROB	n/a	LTP338	ltpFR2	10	n/a	n/a	n/a	16	14	1	4	9
2132088	PROB	n/a	LTP338	ltpFR2	10	n/a	n/a	n/a	16	15	9	3	3
2134457	STOP	n/a	LTP338	ltpFR2	10	n/a	n/a	n/a	16	n/a	n/a	n/a	n/a
2137376	REC_START	n/a	LTP338	ltpFR2	10	11	n/a	n/a	n/a	n/a	0	0	0
2142322	REC_WORD	wordpools/wasnorm_wordpool_576.txt	LTP338	ltpFR2	10	11	DASHBOARD	441	n/a	n/a	0	0	0
2143739	REC_WORD	wordpools/wasnorm_wordpool_576.txt	LTP338	ltpFR2	10	11	DAUGHTER	442	n/a	n/a	0	0	0
2145661	REC_WORD	wordpools/wasnorm_wordpool_576.txt	LTP338	ltpFR2	10	11	PATROL	1027	n/a	n/a	0	0	0
2146842	REC_WORD	wordpools/wasnorm_wordpool_576.txt	LTP338	ltpFR2	10	11	COUNTY	389	n/a	n/a	0	0	0
2153195	REC_WORD	wordpools/wasnorm_wordpool_576.txt	LTP338	ltpFR2	10	11	EUROPE	541	n/a	n/a	0	0	0
2154187	REC_WORD	wordpools/wasnorm_wordpool_576.txt	LTP338	ltpFR2	10	11	LONDON	843	n/a	n/a	0	0	0
2227832	WORD	wordpools/wasnorm_wordpool_576.txt	LTP338	ltpFR2	10	12	CRAYON	401	n/a	n/a	0	0	0
2230289	WORD	wordpools/wasnorm_wordpool_576.txt	LTP338	ltpFR2	10	12	BLUEPRINT	142	n/a	n/a	0	0	0
2233048	WORD	wordpools/wasnorm_wordpool_576.txt	LTP338	ltpFR2	10	12	GOBLIN	645	n/a	n/a	0	0	0
2235691	WORD	wordpools/wasnorm_wordpool_576.txt	LTP338	ltpFR2	10	12	SHRUB	1299	n/a	n/a	0	0	0
2238215	WORD	wordpools/wasnorm_wordpool_576.txt	LTP338	ltpFR2	10	12	BANK	83	n/a	n/a	0	0	0
2240690	WORD	wordpools/wasnorm_wordpool_576.txt	LTP338	ltpFR2	10	12	SUSPECT	1415	n/a	n/a	0	0	0
2243349	WORD	wordpools/wasnorm_wordpool_576.txt	LTP338	ltpFR2	10	12	CONVICT	371	n/a	n/a	0	0	0
2245874	WORD	wordpools/wasnorm_wordpool_576.txt	LTP338	ltpFR2	10	12	COUNTRY	388	n/a	n/a	0	0	0
2248332	WORD	wordpools/wasnorm_wordpool_576.txt	LTP338	ltpFR2	10	12	MONSTER	912	n/a	n/a	0	0	0
2250974	WORD	wordpools/wasnorm_wordpool_576.txt	LTP338	ltpFR2	10	12	COMPASS	358	n/a	n/a	0	0	0
2253649	WORD	wordpools/wasnorm_wordpool_576.txt	LTP338	ltpFR2	10	12	BUREAU	199	n/a	n/a	0	0	0
2256391	WORD	wordpools/wasnorm_wordpool_576.txt	LTP338	ltpFR2	10	12	BASEMENT	94	n/a	n/a	0	0	0
2259149	WORD	wordpools/wasnorm_wordpool_576.txt	LTP338	ltpFR2	10	12	PICTURE	1061	n/a	n/a	0	0	0
2261792	WORD	wordpools/wasnorm_wordpool_576.txt	LTP338	ltpFR2	10	12	SCULPTURE	1258	n/a	n/a	0	0	0
2264484	WORD	wordpools/wasnorm_wordpool_576.txt	LTP338	ltpFR2	10	12	BURGLAR	200	n/a	n/a	0	0	0
2267208	WORD	wordpools/wasnorm_wordpool_576.txt	LTP338	ltpFR2	10	12	JELLY	755	n/a	n/a	0	0	0
2269801	WORD	wordpools/wasnorm_wordpool_576.txt	LTP338	ltpFR2	10	12	SPARROW	1347	n/a	n/a	0	0	0
2272476	WORD	wordpools/wasnorm_wordpool_576.txt	LTP338	ltpFR2	10	12	FINGER	567	n/a	n/a	0	0	0
2275017	WORD	wordpools/wasnorm_wordpool_576.txt	LTP338	ltpFR2	10	12	TRIBE	1505	n/a	n/a	0	0	0
2277693	WORD	wordpools/wasnorm_wordpool_576.txt	LTP338	ltpFR2	10	12	GHETTO	633	n/a	n/a	0	0	0
2280469	WORD	wordpools/wasnorm_wordpool_576.txt	LTP338	ltpFR2	10	12	BODY	145	n/a	n/a	0	0	0
2282977	WORD	wordpools/wasnorm_wordpool_576.txt	LTP338	ltpFR2	10	12	SADDLE	1221	n/a	n/a	0	0	0
2285786	WORD	wordpools/wasnorm_wordpool_576.txt	LTP338	ltpFR2	10	12	WAGON	1578	n/a	n/a	0	0	0
2288226	WORD	wordpools/wasnorm_wordpool_576.txt	LTP338	ltpFR2	10	12	MARKER	870	n/a	n/a	0	0	0
2289833	START	n/a	LTP338	ltpFR2	10	n/a	n/a	n/a	17	n/a	n/a	n/a	n/a
2290742	DISTRACTOR	n/a	LTP338	ltpFR2	10	12	n/a	n/a	n/a	n/a	0	0	0
2290752	PROB	n/a	LTP338	ltpFR2	10	n/a	n/a	n/a	17	17	3	6	8
2293612	PROB	n/a	LTP338	ltpFR2	10	n/a	n/a	n/a	17	25	8	9	8
2295919	PROB	n/a	LTP338	ltpFR2	10	n/a	n/a	n/a	17	16	4	3	9
2297725	PROB	n/a	LTP338	ltpFR2	10	n/a	n/a	n/a	17	19	4	8	7
2299899	PROB	n/a	LTP338	ltpFR2	10	n/a	n/a	n/a	17	12	3	6	3
2302323	PROB	n/a	LTP338	ltpFR2	10	n/a	n/a	n/a	17	12	5	3	4
2304161	PROB	n/a	LTP338	ltpFR2	10	n/a	n/a	n/a	17	19	6	7	6
2305868	PROB	n/a	LTP338	ltpFR2	10	n/a	n/a	n/a	17	22	6	7	9
2308560	PROB	n/a	LTP338	ltpFR2	10	n/a	n/a	n/a	17	10	2	3	5
2310884	PROB	n/a	LTP338	ltpFR2	10	n/a	n/a	n/a	17	17	2	6	9
2312902	STOP	n/a	LTP338	ltpFR2	10	n/a	n/a	n/a	17	n/a	n/a	n/a	n/a
2315734	REC_START	n/a	LTP338	ltpFR2	10	12	n/a	n/a	n/a	n/a	0	0	0
2319048	REC_WORD	wordpools/wasnorm_wordpool_576.txt	LTP338	ltpFR2	10	12	BLUEPRINT	142	n/a	n/a	0	0	0
2320006	REC_WORD	wordpools/wasnorm_wordpool_576.txt	LTP338	ltpFR2	10	12	BURGLAR	200	n/a	n/a	0	0	0
2320971	REC_WORD	wordpools/wasnorm_wordpool_576.txt	LTP338	ltpFR2	10	12	BASEMENT	94	n/a	n/a	0	0	0
2322738	REC_WORD	wordpools/wasnorm_wordpool_576.txt	LTP338	ltpFR2	10	12	GOBLIN	645	n/a	n/a	0	0	0
2323497	REC_WORD	wordpools/wasnorm_wordpool_576.txt	LTP338	ltpFR2	10	12	SHRUB	1299	n/a	n/a	0	0	0
2324887	REC_WORD	wordpools/wasnorm_wordpool_576.txt	LTP338	ltpFR2	10	12	BUREAU	199	n/a	n/a	0	0	0
2325679	REC_WORD	wordpools/wasnorm_wordpool_576.txt	LTP338	ltpFR2	10	12	COUNTRY	388	n/a	n/a	0	0	0
2329711	REC_WORD	wordpools/wasnorm_wordpool_576.txt	LTP338	ltpFR2	10	12	SADDLE	1221	n/a	n/a	0	0	0
2330807	REC_WORD	wordpools/wasnorm_wordpool_576.txt	LTP338	ltpFR2	10	12	WAGON	1578	n/a	n/a	0	0	0
2332195	REC_WORD	wordpools/wasnorm_wordpool_576.txt	LTP338	ltpFR2	10	12	MARKER	870	n/a	n/a	0	0	0
2406175	DISTRACTOR	n/a	LTP338	ltpFR2	10	13	n/a	n/a	n/a	n/a	0	0	0
2406175	START	n/a	LTP338	ltpFR2	10	n/a	n/a	n/a	18	n/a	n/a	n/a	n/a
2406192	PROB	n/a	LTP338	ltpFR2	10	n/a	n/a	n/a	18	7	1	1	5
2407848	PROB	n/a	LTP338	ltpFR2	10	n/a	n/a	n/a	18	6	1	4	1
2409218	PROB	n/a	LTP338	ltpFR2	10	n/a	n/a	n/a	18	20	4	9	7
2412313	PROB	n/a	LTP338	ltpFR2	10	n/a	n/a	n/a	18	16	7	8	1
2413901	PROB	n/a	LTP338	ltpFR2	10	n/a	n/a	n/a	18	18	9	4	6
2415690	PROB	n/a	LTP338	ltpFR2	10	n/a	n/a	n/a	18	10	5	2	3
2419302	PROB	n/a	LTP338	ltpFR2	10	n/a	n/a	n/a	18	19	9	7	3
2423432	PROB	n/a	LTP338	ltpFR2	10	n/a	n/a	n/a	18	8	4	2	2
2425237	PROB	n/a	LTP338	ltpFR2	10	n/a	n/a	n/a	18	9	3	5	1
2426709	PROB	n/a	LTP338	ltpFR2	10	n/a	n/a	n/a	18	15	9	3	3
2428866	STOP	n/a	LTP338	ltpFR2	10	n/a	n/a	n/a	18	n/a	n/a	n/a	n/a
2431341	WORD	wordpools/wasnorm_wordpool_576.txt	LTP338	ltpFR2	10	13	HEDGE	699	n/a	n/a	0	0	0
2433933	WORD	wordpools/wasnorm_wordpool_576.txt	LTP338	ltpFR2	10	13	MEDAL	885	n/a	n/a	0	0	0
2436574	WORD	wordpools/wasnorm_wordpool_576.txt	LTP338	ltpFR2	10	13	PEBBLE	1035	n/a	n/a	0	0	0
2439165	WORD	wordpools/wasnorm_wordpool_576.txt	LTP338	ltpFR2	10	13	RUG	1215	n/a	n/a	0	0	0
2441641	WORD	wordpools/wasnorm_wordpool_576.txt	LTP338	ltpFR2	10	13	DORM	488	n/a	n/a	0	0	0
2444131	WORD	wordpools/wasnorm_wordpool_576.txt	LTP338	ltpFR2	10	13	PACKAGE	997	n/a	n/a	0	0	0
2446674	WORD	wordpools/wasnorm_wordpool_576.txt	LTP338	ltpFR2	10	13	UNCLE	1536	n/a	n/a	0	0	0
2449399	WORD	wordpools/wasnorm_wordpool_576.txt	LTP338	ltpFR2	10	13	JUGGLER	763	n/a	n/a	0	0	0
2452090	WORD	wordpools/wasnorm_wordpool_576.txt	LTP338	ltpFR2	10	13	RACKET	1155	n/a	n/a	0	0	0
2454533	WORD	wordpools/wasnorm_wordpool_576.txt	LTP338	ltpFR2	10	13	BELLY	119	n/a	n/a	0	0	0
2457090	WORD	wordpools/wasnorm_wordpool_576.txt	LTP338	ltpFR2	10	13	POPCORN	1104	n/a	n/a	0	0	0
2459633	WORD	wordpools/wasnorm_wordpool_576.txt	LTP338	ltpFR2	10	13	BACKBONE	66	n/a	n/a	0	0	0
2462325	WORD	wordpools/wasnorm_wordpool_576.txt	LTP338	ltpFR2	10	13	BRICK	172	n/a	n/a	0	0	0
2464849	WORD	wordpools/wasnorm_wordpool_576.txt	LTP338	ltpFR2	10	13	COTTAGE	384	n/a	n/a	0	0	0
2467642	WORD	wordpools/wasnorm_wordpool_576.txt	LTP338	ltpFR2	10	13	XEROX	1628	n/a	n/a	0	0	0
2470417	WORD	wordpools/wasnorm_wordpool_576.txt	LTP338	ltpFR2	10	13	MARROW	872	n/a	n/a	0	0	0
2473159	WORD	wordpools/wasnorm_wordpool_576.txt	LTP338	ltpFR2	10	13	STOMACH	1384	n/a	n/a	0	0	0
2475835	WORD	wordpools/wasnorm_wordpool_576.txt	LTP338	ltpFR2	10	13	BADGE	68	n/a	n/a	0	0	0
2478560	WORD	wordpools/wasnorm_wordpool_576.txt	LTP338	ltpFR2	10	13	VENUS	1557	n/a	n/a	0	0	0
2481151	WORD	wordpools/wasnorm_wordpool_576.txt	LTP338	ltpFR2	10	13	BRANDY	169	n/a	n/a	0	0	0
2483911	WORD	wordpools/wasnorm_wordpool_576.txt	LTP338	ltpFR2	10	13	GRAPE	654	n/a	n/a	0	0	0
2486603	WORD	wordpools/wasnorm_wordpool_576.txt	LTP338	ltpFR2	10	13	FLASHLIGHT	575	n/a	n/a	0	0	0
2489261	WORD	wordpools/wasnorm_wordpool_576.txt	LTP338	ltpFR2	10	13	MARINE	869	n/a	n/a	0	0	0
2491937	WORD	wordpools/wasnorm_wordpool_576.txt	LTP338	ltpFR2	10	13	NOMAD	955	n/a	n/a	0	0	0
2493543	START	n/a	LTP338	ltpFR2	10	n/a	n/a	n/a	19	n/a	n/a	n/a	n/a
2494666	DISTRACTOR	n/a	LTP338	ltpFR2	10	13	n/a	n/a	n/a	n/a	0	0	0
2494679	PROB	n/a	LTP338	ltpFR2	10	n/a	n/a	n/a	19	9	2	6	1
2496652	PROB	n/a	LTP338	ltpFR2	10	n/a	n/a	n/a	19	13	3	7	3
2498006	PROB	n/a	LTP338	ltpFR2	10	n/a	n/a	n/a	19	23	7	9	7
2499879	PROB	n/a	LTP338	ltpFR2	10	n/a	n/a	n/a	19	26	9	8	9
2501669	PROB	n/a	LTP338	ltpFR2	10	n/a	n/a	n/a	19	14	7	3	4
2504310	PROB	n/a	LTP338	ltpFR2	10	n/a	n/a	n/a	19	21	9	9	3
2505899	PROB	n/a	LTP338	ltpFR2	10	n/a	n/a	n/a	19	16	2	9	5
2508021	PROB	n/a	LTP338	ltpFR2	10	n/a	n/a	n/a	19	19	9	4	6
2510832	PROB	n/a	LTP338	ltpFR2	10	n/a	n/a	n/a	19	18	4	9	5
2512554	PROB	n/a	LTP338	ltpFR2	10	n/a	n/a	n/a	19	16	7	3	6
2514091	PROB	n/a	LTP338	ltpFR2	10	n/a	n/a	n/a	19	19	4	6	9
2515597	PROB	n/a	LTP338	ltpFR2	10	n/a	n/a	n/a	19	14	4	3	7
2517019	STOP	n/a	LTP338	ltpFR2	10	n/a	n/a	n/a	19	n/a	n/a	n/a	n/a
2519443	REC_START	n/a	LTP338	ltpFR2	10	13	n/a	n/a	n/a	n/a	0	0	0
2520893	REC_WORD	wordpools/wasnorm_wordpool_576.txt	LTP338	ltpFR2	10	13	HEDGE	699	n/a	n/a	0	0	0
2521559	REC_WORD	wordpools/wasnorm_wordpool_576.txt	LTP338	ltpFR2	10	13	MEDAL	885	n/a	n/a	0	0	0
2522500	REC_WORD	wordpools/wasnorm_wordpool_576.txt	LTP338	ltpFR2	10	13	PEBBLE	1035	n/a	n/a	0	0	0
2523176	REC_WORD	wordpools/wasnorm_wordpool_576.txt	LTP338	ltpFR2	10	13	RUG	1215	n/a	n/a	0	0	0
2524344	REC_WORD	wordpools/wasnorm_wordpool_576.txt	LTP338	ltpFR2	10	13	UNCLE	1536	n/a	n/a	0	0	0
2528276	REC_WORD	wordpools/wasnorm_wordpool_576.txt	LTP338	ltpFR2	10	13	BRICK	172	n/a	n/a	0	0	0
2529110	REC_WORD	wordpools/wasnorm_wordpool_576.txt	LTP338	ltpFR2	10	13	BACKBONE	66	n/a	n/a	0	0	0
2530115	REC_WORD	wordpools/wasnorm_wordpool_576.txt	LTP338	ltpFR2	10	13	BELLY	119	n/a	n/a	0	0	0
2531026	REC_WORD	wordpools/wasnorm_wordpool_576.txt	LTP338	ltpFR2	10	13	POPCORN	1104	n/a	n/a	0	0	0
2533086	REC_WORD	wordpools/wasnorm_wordpool_576.txt	LTP338	ltpFR2	10	13	GRAPE	654	n/a	n/a	0	0	0
2534135	REC_WORD	wordpools/wasnorm_wordpool_576.txt	LTP338	ltpFR2	10	13	NOMAD	955	n/a	n/a	0	0	0
2535461	REC_WORD	wordpools/wasnorm_wordpool_576.txt	LTP338	ltpFR2	10	13	FLASHLIGHT	575	n/a	n/a	0	0	0
2609902	WORD	wordpools/wasnorm_wordpool_576.txt	LTP338	ltpFR2	10	14	PUPPY	1144	n/a	n/a	0	0	0
2612444	WORD	wordpools/wasnorm_wordpool_576.txt	LTP338	ltpFR2	10	14	DIVER	476	n/a	n/a	0	0	0
2615118	WORD	wordpools/wasnorm_wordpool_576.txt	LTP338	ltpFR2	10	14	MUMMY	932	n/a	n/a	0	0	0
2617644	WORD	wordpools/wasnorm_wordpool_576.txt	LTP338	ltpFR2	10	14	JUNGLE	764	n/a	n/a	0	0	0
2620118	WORD	wordpools/wasnorm_wordpool_576.txt	LTP338	ltpFR2	10	14	HOUND	724	n/a	n/a	0	0	0
2622828	WORD	wordpools/wasnorm_wordpool_576.txt	LTP338	ltpFR2	10	14	PICNIC	1060	n/a	n/a	0	0	0
2625620	WORD	wordpools/wasnorm_wordpool_576.txt	LTP338	ltpFR2	10	14	BRAKE	166	n/a	n/a	0	0	0
2628110	WORD	wordpools/wasnorm_wordpool_576.txt	LTP338	ltpFR2	10	14	SALAD	1224	n/a	n/a	0	0	0
2630569	WORD	wordpools/wasnorm_wordpool_576.txt	LTP338	ltpFR2	10	14	CARROT	249	n/a	n/a	0	0	0
2632993	WORD	wordpools/wasnorm_wordpool_576.txt	LTP338	ltpFR2	10	14	PENGUIN	1044	n/a	n/a	0	0	0
2635669	WORD	wordpools/wasnorm_wordpool_576.txt	LTP338	ltpFR2	10	14	STOVE	1388	n/a	n/a	0	0	0
2638293	WORD	wordpools/wasnorm_wordpool_576.txt	LTP338	ltpFR2	10	14	WASHER	1592	n/a	n/a	0	0	0
2640819	WORD	wordpools/wasnorm_wordpool_576.txt	LTP338	ltpFR2	10	14	BARREL	91	n/a	n/a	0	0	0
2643545	WORD	wordpools/wasnorm_wordpool_576.txt	LTP338	ltpFR2	10	14	LAPEL	800	n/a	n/a	0	0	0
2646052	WORD	wordpools/wasnorm_wordpool_576.txt	LTP338	ltpFR2	10	14	RIFLE	1192	n/a	n/a	0	0	0
2648711	WORD	wordpools/wasnorm_wordpool_576.txt	LTP338	ltpFR2	10	14	PISTOL	1075	n/a	n/a	0	0	0
2651420	WORD	wordpools/wasnorm_wordpool_576.txt	LTP338	ltpFR2	10	14	CAMEL	223	n/a	n/a	0	0	0
2654094	WORD	wordpools/wasnorm_wordpool_576.txt	LTP338	ltpFR2	10	14	PIGMENT	1066	n/a	n/a	0	0	0
2656553	WORD	wordpools/wasnorm_wordpool_576.txt	LTP338	ltpFR2	10	14	HUSBAND	728	n/a	n/a	0	0	0
2659278	WORD	wordpools/wasnorm_wordpool_576.txt	LTP338	ltpFR2	10	14	DRINK	498	n/a	n/a	0	0	0
2661854	WORD	wordpools/wasnorm_wordpool_576.txt	LTP338	ltpFR2	10	14	HAND	683	n/a	n/a	0	0	0
2664596	WORD	wordpools/wasnorm_wordpool_576.txt	LTP338	ltpFR2	10	14	MARKET	871	n/a	n/a	0	0	0
2667153	WORD	wordpools/wasnorm_wordpool_576.txt	LTP338	ltpFR2	10	14	MONEY	908	n/a	n/a	0	0	0
2669947	WORD	wordpools/wasnorm_wordpool_576.txt	LTP338	ltpFR2	10	14	SPACE	1345	n/a	n/a	0	0	0
2671552	START	n/a	LTP338	ltpFR2	10	n/a	n/a	n/a	20	n/a	n/a	n/a	n/a
2672504	DISTRACTOR	n/a	LTP338	ltpFR2	10	14	n/a	n/a	n/a	n/a	0	0	0
2672505	PROB	n/a	LTP338	ltpFR2	10	n/a	n/a	n/a	20	15	7	5	3
2674126	PROB	n/a	LTP338	ltpFR2	10	n/a	n/a	n/a	20	16	4	8	4
2675916	PROB	n/a	LTP338	ltpFR2	10	n/a	n/a	n/a	20	23	8	8	7
2679862	PROB	n/a	LTP338	ltpFR2	10	n/a	n/a	n/a	20	16	4	4	8
2681282	PROB	n/a	LTP338	ltpFR2	10	n/a	n/a	n/a	20	15	9	3	3
2683558	PROB	n/a	LTP338	ltpFR2	10	n/a	n/a	n/a	20	20	8	7	5
2685898	PROB	n/a	LTP338	ltpFR2	10	n/a	n/a	n/a	20	15	3	4	8
2687872	PROB	n/a	LTP338	ltpFR2	10	n/a	n/a	n/a	20	20	6	8	6
2691181	PROB	n/a	LTP338	ltpFR2	10	n/a	n/a	n/a	20	10	2	1	7
2692771	PROB	n/a	LTP338	ltpFR2	10	n/a	n/a	n/a	20	17	6	7	4
2694857	STOP	n/a	LTP338	ltpFR2	10	n/a	n/a	n/a	20	n/a	n/a	n/a	n/a
2697487	REC_START	n/a	LTP338	ltpFR2	10	14	n/a	n/a	n/a	n/a	0	0	0
2698936	REC_WORD	wordpools/wasnorm_wordpool_576.txt	LTP338	ltpFR2	10	14	PUPPY	1144	n/a	n/a	0	0	0
2699485	REC_WORD	wordpools/wasnorm_wordpool_576.txt	LTP338	ltpFR2	10	14	HOUND	724	n/a	n/a	0	0	0
2700145	REC_WORD	wordpools/wasnorm_wordpool_576.txt	LTP338	ltpFR2	10	14	PICNIC	1060	n/a	n/a	0	0	0
2701617	REC_WORD	wordpools/wasnorm_wordpool_576.txt	LTP338	ltpFR2	10	14	MUMMY	932	n/a	n/a	0	0	0
2702155	REC_WORD	wordpools/wasnorm_wordpool_576.txt	LTP338	ltpFR2	10	14	DIVER	476	n/a	n/a	0	0	0
2702755	REC_WORD	wordpools/wasnorm_wordpool_576.txt	LTP338	ltpFR2	10	14	JUNGLE	764	n/a	n/a	0	0	0
2708310	REC_WORD	wordpools/wasnorm_wordpool_576.txt	LTP338	ltpFR2	10	14	MONEY	908	n/a	n/a	0	0	0
2709234	REC_WORD	wordpools/wasnorm_wordpool_576.txt	LTP338	ltpFR2	10	14	SPACE	1345	n/a	n/a	0	0	0
2787946	WORD	wordpools/wasnorm_wordpool_576.txt	LTP338	ltpFR2	10	15	COWBOY	395	n/a	n/a	0	0	0
2790721	WORD	wordpools/wasnorm_wordpool_576.txt	LTP338	ltpFR2	10	15	FLASK	576	n/a	n/a	0	0	0
2793145	WORD	wordpools/wasnorm_wordpool_576.txt	LTP338	ltpFR2	10	15	PERMIT	1051	n/a	n/a	0	0	0
2795871	WORD	wordpools/wasnorm_wordpool_576.txt	LTP338	ltpFR2	10	15	SUITCASE	1403	n/a	n/a	0	0	0
2798379	WORD	wordpools/wasnorm_wordpool_576.txt	LTP338	ltpFR2	10	15	FLIPPER	580	n/a	n/a	0	0	0
2801087	WORD	wordpools/wasnorm_wordpool_576.txt	LTP338	ltpFR2	10	15	SHELF	1280	n/a	n/a	0	0	0
2803546	WORD	wordpools/wasnorm_wordpool_576.txt	LTP338	ltpFR2	10	15	SISTER	1312	n/a	n/a	0	0	0
2806153	WORD	wordpools/wasnorm_wordpool_576.txt	LTP338	ltpFR2	10	15	DINER	467	n/a	n/a	0	0	0
2808913	WORD	wordpools/wasnorm_wordpool_576.txt	LTP338	ltpFR2	10	15	PECAN	1036	n/a	n/a	0	0	0
2811472	WORD	wordpools/wasnorm_wordpool_576.txt	LTP338	ltpFR2	10	15	ANTLER	29	n/a	n/a	0	0	0
2814163	WORD	wordpools/wasnorm_wordpool_576.txt	LTP338	ltpFR2	10	15	DUSTPAN	509	n/a	n/a	0	0	0
2816605	WORD	wordpools/wasnorm_wordpool_576.txt	LTP338	ltpFR2	10	15	DUST	508	n/a	n/a	0	0	0
2819112	WORD	wordpools/wasnorm_wordpool_576.txt	LTP338	ltpFR2	10	15	SUMMIT	1405	n/a	n/a	0	0	0
2821538	WORD	wordpools/wasnorm_wordpool_576.txt	LTP338	ltpFR2	10	15	OZONE	996	n/a	n/a	0	0	0
2824212	WORD	wordpools/wasnorm_wordpool_576.txt	LTP338	ltpFR2	10	15	BIKE	125	n/a	n/a	0	0	0
2826922	WORD	wordpools/wasnorm_wordpool_576.txt	LTP338	ltpFR2	10	15	DRAGON	492	n/a	n/a	0	0	0
2829346	WORD	wordpools/wasnorm_wordpool_576.txt	LTP338	ltpFR2	10	15	SWORD	1423	n/a	n/a	0	0	0
2831938	WORD	wordpools/wasnorm_wordpool_576.txt	LTP338	ltpFR2	10	15	DOUGHNUT	490	n/a	n/a	0	0	0
2834664	WORD	wordpools/wasnorm_wordpool_576.txt	LTP338	ltpFR2	10	15	DRIVER	499	n/a	n/a	0	0	0
2837187	WORD	wordpools/wasnorm_wordpool_576.txt	LTP338	ltpFR2	10	15	DOLPHIN	483	n/a	n/a	0	0	0
2839931	WORD	wordpools/wasnorm_wordpool_576.txt	LTP338	ltpFR2	10	15	POLICE	1098	n/a	n/a	0	0	0
2842589	WORD	wordpools/wasnorm_wordpool_576.txt	LTP338	ltpFR2	10	15	SHERIFF	1284	n/a	n/a	0	0	0
2845315	WORD	wordpools/wasnorm_wordpool_576.txt	LTP338	ltpFR2	10	15	COBRA	336	n/a	n/a	0	0	0
2847989	WORD	wordpools/wasnorm_wordpool_576.txt	LTP338	ltpFR2	10	15	TRENCH	1503	n/a	n/a	0	0	0
2849596	START	n/a	LTP338	ltpFR2	10	n/a	n/a	n/a	21	n/a	n/a	n/a	n/a
2850688	DISTRACTOR	n/a	LTP338	ltpFR2	10	15	n/a	n/a	n/a	n/a	0	0	0
2850699	PROB	n/a	LTP338	ltpFR2	10	n/a	n/a	n/a	21	26	9	9	8
2854075	PROB	n/a	LTP338	ltpFR2	10	n/a	n/a	n/a	21	26	9	9	8
2855481	PROB	n/a	LTP338	ltpFR2	10	n/a	n/a	n/a	21	11	3	2	6
2857404	PROB	n/a	LTP338	ltpFR2	10	n/a	n/a	n/a	21	12	1	9	2
2858975	PROB	n/a	LTP338	ltpFR2	10	n/a	n/a	n/a	21	16	8	2	6
2860631	PROB	n/a	LTP338	ltpFR2	10	n/a	n/a	n/a	21	13	5	3	5
2862051	PROB	n/a	LTP338	ltpFR2	10	n/a	n/a	n/a	21	8	6	1	1
2863272	PROB	n/a	LTP338	ltpFR2	10	n/a	n/a	n/a	21	1	9	8	1
2865228	PROB	n/a	LTP338	ltpFR2	10	n/a	n/a	n/a	21	15	9	5	1
2868037	PROB	n/a	LTP338	ltpFR2	10	n/a	n/a	n/a	21	21	5	9	7
2870714	PROB	n/a	LTP338	ltpFR2	10	n/a	n/a	n/a	21	10	1	7	2
2872173	STOP	n/a	LTP338	ltpFR2	10	n/a	n/a	n/a	21	n/a	n/a	n/a	n/a
2875346	REC_START	n/a	LTP338	ltpFR2	10	15	n/a	n/a	n/a	n/a	0	0	0
2880685	REC_WORD	wordpools/wasnorm_wordpool_576.txt	LTP338	ltpFR2	10	15	SISTER	1312	n/a	n/a	0	0	0
2881481	REC_WORD	wordpools/wasnorm_wordpool_576.txt	LTP338	ltpFR2	10	15	DINER	467	n/a	n/a	0	0	0
2886646	REC_WORD	wordpools/wasnorm_wordpool_576.txt	LTP338	ltpFR2	10	15	POLICE	1098	n/a	n/a	0	0	0
2887559	REC_WORD	wordpools/wasnorm_wordpool_576.txt	LTP338	ltpFR2	10	15	DOLPHIN	483	n/a	n/a	0	0	0
2889216	REC_WORD	wordpools/wasnorm_wordpool_576.txt	LTP338	ltpFR2	10	15	SHERIFF	1284	n/a	n/a	0	0	0
2890878	REC_WORD	wordpools/wasnorm_wordpool_576.txt	LTP338	ltpFR2	10	15	COBRA	336	n/a	n/a	0	0	0
2893023	REC_WORD	wordpools/wasnorm_wordpool_576.txt	LTP338	ltpFR2	10	15	DRIVER	499	n/a	n/a	0	0	0
2896701	REC_WORD	wordpools/wasnorm_wordpool_576.txt	LTP338	ltpFR2	10	15	DOUGHNUT	490	n/a	n/a	0	0	0
2898369	REC_WORD	wordpools/wasnorm_wordpool_576.txt	LTP338	ltpFR2	10	15	DRAGON	492	n/a	n/a	0	0	0
2899277	REC_WORD	wordpools/wasnorm_wordpool_576.txt	LTP338	ltpFR2	10	15	OZONE	996	n/a	n/a	0	0	0
2900448	REC_WORD	wordpools/wasnorm_wordpool_576.txt	LTP338	ltpFR2	10	15	BIKE	125	n/a	n/a	0	0	0
2965788	DISTRACTOR	n/a	LTP338	ltpFR2	10	16	n/a	n/a	n/a	n/a	0	0	0
2965788	START	n/a	LTP338	ltpFR2	10	n/a	n/a	n/a	22	n/a	n/a	n/a	n/a
2965805	PROB	n/a	LTP338	ltpFR2	10	n/a	n/a	n/a	22	14	4	9	1
2970704	PROB	n/a	LTP338	ltpFR2	10	n/a	n/a	n/a	22	18	8	1	9
2972158	PROB	n/a	LTP338	ltpFR2	10	n/a	n/a	n/a	22	21	6	8	7
2974399	PROB	n/a	LTP338	ltpFR2	10	n/a	n/a	n/a	22	16	4	9	3
2978563	PROB	n/a	LTP338	ltpFR2	10	n/a	n/a	n/a	22	12	5	3	4
2981756	PROB	n/a	LTP338	ltpFR2	10	n/a	n/a	n/a	22	17	5	4	8
2984113	PROB	n/a	LTP338	ltpFR2	10	n/a	n/a	n/a	22	18	9	5	4
2985719	PROB	n/a	LTP338	ltpFR2	10	n/a	n/a	n/a	22	13	3	7	3
2989788	STOP	n/a	LTP338	ltpFR2	10	n/a	n/a	n/a	22	n/a	n/a	n/a	n/a
2990886	WORD	wordpools/wasnorm_wordpool_576.txt	LTP338	ltpFR2	10	16	CUPBOARD	425	n/a	n/a	0	0	0
2993662	WORD	wordpools/wasnorm_wordpool_576.txt	LTP338	ltpFR2	10	16	BLENDER	136	n/a	n/a	0	0	0
2996202	WORD	wordpools/wasnorm_wordpool_576.txt	LTP338	ltpFR2	10	16	INMATE	738	n/a	n/a	0	0	0
2998995	WORD	wordpools/wasnorm_wordpool_576.txt	LTP338	ltpFR2	10	16	TART	1436	n/a	n/a	0	0	0
3001754	WORD	wordpools/wasnorm_wordpool_576.txt	LTP338	ltpFR2	10	16	SIDEWALK	1303	n/a	n/a	0	0	0
3004178	WORD	wordpools/wasnorm_wordpool_576.txt	LTP338	ltpFR2	10	16	COMET	353	n/a	n/a	0	0	0
3006637	WORD	wordpools/wasnorm_wordpool_576.txt	LTP338	ltpFR2	10	16	LUGGAGE	847	n/a	n/a	0	0	0
3009312	WORD	wordpools/wasnorm_wordpool_576.txt	LTP338	ltpFR2	10	16	SWAMP	1416	n/a	n/a	0	0	0
3011938	WORD	wordpools/wasnorm_wordpool_576.txt	LTP338	ltpFR2	10	16	ATOM	55	n/a	n/a	0	0	0
3014663	WORD	wordpools/wasnorm_wordpool_576.txt	LTP338	ltpFR2	10	16	CREVICE	405	n/a	n/a	0	0	0
3017287	WORD	wordpools/wasnorm_wordpool_576.txt	LTP338	ltpFR2	10	16	TRACTOR	1493	n/a	n/a	0	0	0
3019947	WORD	wordpools/wasnorm_wordpool_576.txt	LTP338	ltpFR2	10	16	FARMER	553	n/a	n/a	0	0	0
3022455	WORD	wordpools/wasnorm_wordpool_576.txt	LTP338	ltpFR2	10	16	LIZARD	834	n/a	n/a	0	0	0
3024963	WORD	wordpools/wasnorm_wordpool_576.txt	LTP338	ltpFR2	10	16	COD	340	n/a	n/a	0	0	0
3027605	WORD	wordpools/wasnorm_wordpool_576.txt	LTP338	ltpFR2	10	16	SEAFOOD	1260	n/a	n/a	0	0	0
3030279	WORD	wordpools/wasnorm_wordpool_576.txt	LTP338	ltpFR2	10	16	TERMITE	1451	n/a	n/a	0	0	0
3033005	WORD	wordpools/wasnorm_wordpool_576.txt	LTP338	ltpFR2	10	16	PLUTO	1092	n/a	n/a	0	0	0
3035497	WORD	wordpools/wasnorm_wordpool_576.txt	LTP338	ltpFR2	10	16	PIGEON	1065	n/a	n/a	0	0	0
3038138	WORD	wordpools/wasnorm_wordpool_576.txt	LTP338	ltpFR2	10	16	DENTIST	447	n/a	n/a	0	0	0
3040564	WORD	wordpools/wasnorm_wordpool_576.txt	LTP338	ltpFR2	10	16	CANDY	230	n/a	n/a	0	0	0
3043356	WORD	wordpools/wasnorm_wordpool_576.txt	LTP338	ltpFR2	10	16	PAIL	1002	n/a	n/a	0	0	0
3045847	WORD	wordpools/wasnorm_wordpool_576.txt	LTP338	ltpFR2	10	16	POSSUM	1112	n/a	n/a	0	0	0
3048523	WORD	wordpools/wasnorm_wordpool_576.txt	LTP338	ltpFR2	10	16	CHIPMUNK	304	n/a	n/a	0	0	0
3051281	WORD	wordpools/wasnorm_wordpool_576.txt	LTP338	ltpFR2	10	16	CATCHER	258	n/a	n/a	0	0	0
3052887	START	n/a	LTP338	ltpFR2	10	n/a	n/a	n/a	23	n/a	n/a	n/a	n/a
3053803	DISTRACTOR	n/a	LTP338	ltpFR2	10	16	n/a	n/a	n/a	n/a	0	0	0
3053806	PROB	n/a	LTP338	ltpFR2	10	n/a	n/a	n/a	23	16	9	3	4
3055746	PROB	n/a	LTP338	ltpFR2	10	n/a	n/a	n/a	23	18	4	8	6
3057452	PROB	n/a	LTP338	ltpFR2	10	n/a	n/a	n/a	23	19	4	6	9
3059223	PROB	n/a	LTP338	ltpFR2	10	n/a	n/a	n/a	23	16	2	9	5
3060829	PROB	n/a	LTP338	ltpFR2	10	n/a	n/a	n/a	23	23	9	5	9
3062936	PROB	n/a	LTP338	ltpFR2	10	n/a	n/a	n/a	23	11	1	7	3
3065427	PROB	n/a	LTP338	ltpFR2	10	n/a	n/a	n/a	23	14	5	6	3
3067249	PROB	n/a	LTP338	ltpFR2	10	n/a	n/a	n/a	23	11	2	6	3
3068688	PROB	n/a	LTP338	ltpFR2	10	n/a	n/a	n/a	23	13	3	6	4
3070878	PROB	n/a	LTP338	ltpFR2	10	n/a	n/a	n/a	23	19	7	4	8
3072617	PROB	n/a	LTP338	ltpFR2	10	n/a	n/a	n/a	23	13	3	3	7
3074891	PROB	n/a	LTP338	ltpFR2	10	n/a	n/a	n/a	23	12	3	6	3
3076444	STOP	n/a	LTP338	ltpFR2	10	n/a	n/a	n/a	23	n/a	n/a	n/a	n/a
3078688	REC_START	n/a	LTP338	ltpFR2	10	16	n/a	n/a	n/a	n/a	0	0	0
3082452	REC_WORD	wordpools/wasnorm_wordpool_576.txt	LTP338	ltpFR2	10	16	BLENDER	136	n/a	n/a	0	0	0
3083312	REC_WORD	wordpools/wasnorm_wordpool_576.txt	LTP338	ltpFR2	10	16	TART	1436	n/a	n/a	0	0	0
3084463	REC_WORD	wordpools/wasnorm_wordpool_576.txt	LTP338	ltpFR2	10	16	CATCHER	258	n/a	n/a	0	0	0
3085271	REC_WORD	wordpools/wasnorm_wordpool_576.txt	LTP338	ltpFR2	10	16	CHIPMUNK	304	n/a	n/a	0	0	0
3086208	REC_WORD	wordpools/wasnorm_wordpool_576.txt	LTP338	ltpFR2	10	16	POSSUM	1112	n/a	n/a	0	0	0
3088477	REC_WORD	wordpools/wasnorm_wordpool_576.txt	LTP338	ltpFR2	10	16	PAIL	1002	n/a	n/a	0	0	0
3089365	REC_WORD	wordpools/wasnorm_wordpool_576.txt	LTP338	ltpFR2	10	16	CANDY	230	n/a	n/a	0	0	0
3090365	REC_WORD	wordpools/wasnorm_wordpool_576.txt	LTP338	ltpFR2	10	16	DENTIST	447	n/a	n/a	0	0	0
3101575	REC_WORD	wordpools/wasnorm_wordpool_576.txt	LTP338	ltpFR2	10	16	COMET	353	n/a	n/a	0	0	0
3102119	REC_WORD	wordpools/wasnorm_wordpool_576.txt	LTP338	ltpFR2	10	16	LUGGAGE	847	n/a	n/a	0	0	0
3155217	REST_REWET	n/a	LTP338	ltpFR2	10	16	n/a	n/a	n/a	n/a	0	0	0
3201099	WORD	wordpools/wasnorm_wordpool_576.txt	LTP338	ltpFR2	10	17	BRACES	164	n/a	n/a	0	0	0
3203842	WORD	wordpools/wasnorm_wordpool_576.txt	LTP338	ltpFR2	10	17	TWIG	1527	n/a	n/a	0	0	0
3206534	WORD	wordpools/wasnorm_wordpool_576.txt	LTP338	ltpFR2	10	17	CUSTARD	429	n/a	n/a	0	0	0
3209008	WORD	wordpools/wasnorm_wordpool_576.txt	LTP338	ltpFR2	10	17	QUEEN	1149	n/a	n/a	0	0	0
3211601	WORD	wordpools/wasnorm_wordpool_576.txt	LTP338	ltpFR2	10	17	PRINCESS	1125	n/a	n/a	0	0	0
3214309	WORD	wordpools/wasnorm_wordpool_576.txt	LTP338	ltpFR2	10	17	HAMPER	682	n/a	n/a	0	0	0
3216918	WORD	wordpools/wasnorm_wordpool_576.txt	LTP338	ltpFR2	10	17	ITEM	746	n/a	n/a	0	0	0
3219443	WORD	wordpools/wasnorm_wordpool_576.txt	LTP338	ltpFR2	10	17	OINTMENT	974	n/a	n/a	0	0	0
3222167	WORD	wordpools/wasnorm_wordpool_576.txt	LTP338	ltpFR2	10	17	LEOPARD	812	n/a	n/a	0	0	0
3224977	WORD	wordpools/wasnorm_wordpool_576.txt	LTP338	ltpFR2	10	17	TILE	1468	n/a	n/a	0	0	0
3227770	WORD	wordpools/wasnorm_wordpool_576.txt	LTP338	ltpFR2	10	17	FILM	565	n/a	n/a	0	0	0
3230545	WORD	wordpools/wasnorm_wordpool_576.txt	LTP338	ltpFR2	10	17	PARROT	1015	n/a	n/a	0	0	0
3233036	WORD	wordpools/wasnorm_wordpool_576.txt	LTP338	ltpFR2	10	17	REPORT	1184	n/a	n/a	0	0	0
3235762	WORD	wordpools/wasnorm_wordpool_576.txt	LTP338	ltpFR2	10	17	FREEZER	604	n/a	n/a	0	0	0
3238202	WORD	wordpools/wasnorm_wordpool_576.txt	LTP338	ltpFR2	10	17	JAPAN	749	n/a	n/a	0	0	0
3240795	WORD	wordpools/wasnorm_wordpool_576.txt	LTP338	ltpFR2	10	17	EMPIRE	530	n/a	n/a	0	0	0
3243521	WORD	wordpools/wasnorm_wordpool_576.txt	LTP338	ltpFR2	10	17	HORNET	718	n/a	n/a	0	0	0
3246330	WORD	wordpools/wasnorm_wordpool_576.txt	LTP338	ltpFR2	10	17	THREAD	1460	n/a	n/a	0	0	0
3249054	WORD	wordpools/wasnorm_wordpool_576.txt	LTP338	ltpFR2	10	17	LACE	792	n/a	n/a	0	0	0
3251530	WORD	wordpools/wasnorm_wordpool_576.txt	LTP338	ltpFR2	10	17	VIRUS	1572	n/a	n/a	0	0	0
3254339	WORD	wordpools/wasnorm_wordpool_576.txt	LTP338	ltpFR2	10	17	BINDER	127	n/a	n/a	0	0	0
3257080	WORD	wordpools/wasnorm_wordpool_576.txt	LTP338	ltpFR2	10	17	CLOTHES	327	n/a	n/a	0	0	0
3259790	WORD	wordpools/wasnorm_wordpool_576.txt	LTP338	ltpFR2	10	17	PEANUT	1032	n/a	n/a	0	0	0
3262348	WORD	wordpools/wasnorm_wordpool_576.txt	LTP338	ltpFR2	10	17	CASHEW	253	n/a	n/a	0	0	0
3263954	START	n/a	LTP338	ltpFR2	10	n/a	n/a	n/a	24	n/a	n/a	n/a	n/a
3264859	DISTRACTOR	n/a	LTP338	ltpFR2	10	17	n/a	n/a	n/a	n/a	0	0	0
3264873	PROB	n/a	LTP338	ltpFR2	10	n/a	n/a	n/a	24	19	8	2	9
3266813	PROB	n/a	LTP338	ltpFR2	10	n/a	n/a	n/a	24	16	3	7	6
3270056	PROB	n/a	LTP338	ltpFR2	10	n/a	n/a	n/a	24	11	3	7	1
3271226	PROB	n/a	LTP338	ltpFR2	10	n/a	n/a	n/a	24	19	6	5	8
3272816	PROB	n/a	LTP338	ltpFR2	10	n/a	n/a	n/a	24	13	3	9	3
3274638	PROB	n/a	LTP338	ltpFR2	10	n/a	n/a	n/a	24	8	1	3	4
3278300	PROB	n/a	LTP338	ltpFR2	10	n/a	n/a	n/a	24	16	1	7	8
3280121	PROB	n/a	LTP338	ltpFR2	10	n/a	n/a	n/a	24	11	5	2	4
3282011	PROB	n/a	LTP338	ltpFR2	10	n/a	n/a	n/a	24	6	3	2	1
3283734	PROB	n/a	LTP338	ltpFR2	10	n/a	n/a	n/a	24	13	5	7	1
3285523	PROB	n/a	LTP338	ltpFR2	10	n/a	n/a	n/a	24	12	4	5	3
3287418	STOP	n/a	LTP338	ltpFR2	10	n/a	n/a	n/a	24	n/a	n/a	n/a	n/a
3289821	REC_START	n/a	LTP338	ltpFR2	10	17	n/a	n/a	n/a	n/a	0	0	0
3291794	REC_WORD	wordpools/wasnorm_wordpool_576.txt	LTP338	ltpFR2	10	17	CUSTARD	429	n/a	n/a	0	0	0
3292556	REC_WORD	wordpools/wasnorm_wordpool_576.txt	LTP338	ltpFR2	10	17	BRACES	164	n/a	n/a	0	0	0
3293260	REC_WORD	wordpools/wasnorm_wordpool_576.txt	LTP338	ltpFR2	10	17	TWIG	1527	n/a	n/a	0	0	0
3294385	REC_WORD	wordpools/wasnorm_wordpool_576.txt	LTP338	ltpFR2	10	17	QUEEN	1149	n/a	n/a	0	0	0
3294961	REC_WORD	wordpools/wasnorm_wordpool_576.txt	LTP338	ltpFR2	10	17	PRINCESS	1125	n/a	n/a	0	0	0
3295501	REC_WORD	wordpools/wasnorm_wordpool_576.txt	LTP338	ltpFR2	10	17	HAMPER	682	n/a	n/a	0	0	0
3297095	REC_WORD	wordpools/wasnorm_wordpool_576.txt	LTP338	ltpFR2	10	17	OINTMENT	974	n/a	n/a	0	0	0
3309788	REC_WORD	wordpools/wasnorm_wordpool_576.txt	LTP338	ltpFR2	10	17	CLOTHES	327	n/a	n/a	0	0	0
3380262	DISTRACTOR	n/a	LTP338	ltpFR2	10	18	n/a	n/a	n/a	n/a	0	0	0
3380263	START	n/a	LTP338	ltpFR2	10	n/a	n/a	n/a	25	n/a	n/a	n/a	n/a
3380279	PROB	n/a	LTP338	ltpFR2	10	n/a	n/a	n/a	25	15	3	9	3
3383758	PROB	n/a	LTP338	ltpFR2	10	n/a	n/a	n/a	25	18	4	8	6
3385581	PROB	n/a	LTP338	ltpFR2	10	n/a	n/a	n/a	25	17	7	5	5
3387403	PROB	n/a	LTP338	ltpFR2	10	n/a	n/a	n/a	25	14	4	8	2
3389108	PROB	n/a	LTP338	ltpFR2	10	n/a	n/a	n/a	25	13	3	1	9
3391650	PROB	n/a	LTP338	ltpFR2	10	n/a	n/a	n/a	25	20	8	6	6
3394510	PROB	n/a	LTP338	ltpFR2	10	n/a	n/a	n/a	25	18	7	7	4
3395897	PROB	n/a	LTP338	ltpFR2	10	n/a	n/a	n/a	25	18	6	3	9
3397284	PROB	n/a	LTP338	ltpFR2	10	n/a	n/a	n/a	25	14	5	3	6
3398890	PROB	n/a	LTP338	ltpFR2	10	n/a	n/a	n/a	25	20	3	9	8
3401332	PROB	n/a	LTP338	ltpFR2	10	n/a	n/a	n/a	25	14	7	1	6
3403557	STOP	n/a	LTP338	ltpFR2	10	n/a	n/a	n/a	25	n/a	n/a	n/a	n/a
3405210	WORD	wordpools/wasnorm_wordpool_576.txt	LTP338	ltpFR2	10	18	STAKE	1368	n/a	n/a	0	0	0
3407953	WORD	wordpools/wasnorm_wordpool_576.txt	LTP338	ltpFR2	10	18	GRAVEL	659	n/a	n/a	0	0	0
3410645	WORD	wordpools/wasnorm_wordpool_576.txt	LTP338	ltpFR2	10	18	BOARD	143	n/a	n/a	0	0	0
3413102	WORD	wordpools/wasnorm_wordpool_576.txt	LTP338	ltpFR2	10	18	SWIMMER	1420	n/a	n/a	0	0	0
3415862	WORD	wordpools/wasnorm_wordpool_576.txt	LTP338	ltpFR2	10	18	RAFT	1159	n/a	n/a	0	0	0
3418337	WORD	wordpools/wasnorm_wordpool_576.txt	LTP338	ltpFR2	10	18	LAMP	798	n/a	n/a	0	0	0
3420962	WORD	wordpools/wasnorm_wordpool_576.txt	LTP338	ltpFR2	10	18	TUNNEL	1519	n/a	n/a	0	0	0
3423671	WORD	wordpools/wasnorm_wordpool_576.txt	LTP338	ltpFR2	10	18	JURY	766	n/a	n/a	0	0	0
3426211	WORD	wordpools/wasnorm_wordpool_576.txt	LTP338	ltpFR2	10	18	LAKE	796	n/a	n/a	0	0	0
3428737	WORD	wordpools/wasnorm_wordpool_576.txt	LTP338	ltpFR2	10	18	NURSE	963	n/a	n/a	0	0	0
3431496	WORD	wordpools/wasnorm_wordpool_576.txt	LTP338	ltpFR2	10	18	APRON	35	n/a	n/a	0	0	0
3434087	WORD	wordpools/wasnorm_wordpool_576.txt	LTP338	ltpFR2	10	18	COOKBOOK	373	n/a	n/a	0	0	0
3436562	WORD	wordpools/wasnorm_wordpool_576.txt	LTP338	ltpFR2	10	18	PASSAGE	1019	n/a	n/a	0	0	0
3439019	WORD	wordpools/wasnorm_wordpool_576.txt	LTP338	ltpFR2	10	18	DONOR	485	n/a	n/a	0	0	0
3441829	WORD	wordpools/wasnorm_wordpool_576.txt	LTP338	ltpFR2	10	18	PATIENT	1024	n/a	n/a	0	0	0
3444505	WORD	wordpools/wasnorm_wordpool_576.txt	LTP338	ltpFR2	10	18	HIGHWAY	707	n/a	n/a	0	0	0
3447213	WORD	wordpools/wasnorm_wordpool_576.txt	LTP338	ltpFR2	10	18	PUDDLE	1140	n/a	n/a	0	0	0
3449738	WORD	wordpools/wasnorm_wordpool_576.txt	LTP338	ltpFR2	10	18	COCKTAIL	338	n/a	n/a	0	0	0
3452514	WORD	wordpools/wasnorm_wordpool_576.txt	LTP338	ltpFR2	10	18	HORSE	719	n/a	n/a	0	0	0
3455088	WORD	wordpools/wasnorm_wordpool_576.txt	LTP338	ltpFR2	10	18	KIDNEY	776	n/a	n/a	0	0	0
3457614	WORD	wordpools/wasnorm_wordpool_576.txt	LTP338	ltpFR2	10	18	DIME	466	n/a	n/a	0	0	0
3460272	WORD	wordpools/wasnorm_wordpool_576.txt	LTP338	ltpFR2	10	18	GYMNAST	675	n/a	n/a	0	0	0
3462714	WORD	wordpools/wasnorm_wordpool_576.txt	LTP338	ltpFR2	10	18	ROBBER	1197	n/a	n/a	0	0	0
3465171	WORD	wordpools/wasnorm_wordpool_576.txt	LTP338	ltpFR2	10	18	FLOWER	584	n/a	n/a	0	0	0
3466777	START	n/a	LTP338	ltpFR2	10	n/a	n/a	n/a	26	n/a	n/a	n/a	n/a
3467619	DISTRACTOR	n/a	LTP338	ltpFR2	10	18	n/a	n/a	n/a	n/a	0	0	0
3467630	PROB	n/a	LTP338	ltpFR2	10	n/a	n/a	n/a	26	18	6	4	8
3469217	PROB	n/a	LTP338	ltpFR2	10	n/a	n/a	n/a	26	11	3	5	3
3471090	PROB	n/a	LTP338	ltpFR2	10	n/a	n/a	n/a	26	21	8	6	7
3473063	PROB	n/a	LTP338	ltpFR2	10	n/a	n/a	n/a	26	13	3	9	1
3475120	PROB	n/a	LTP338	ltpFR2	10	n/a	n/a	n/a	26	10	3	2	5
3476625	PROB	n/a	LTP338	ltpFR2	10	n/a	n/a	n/a	26	15	3	8	4
3478079	PROB	n/a	LTP338	ltpFR2	10	n/a	n/a	n/a	26	17	1	8	8
3479451	PROB	n/a	LTP338	ltpFR2	10	n/a	n/a	n/a	26	12	8	2	2
3480806	PROB	n/a	LTP338	ltpFR2	10	n/a	n/a	n/a	26	21	7	5	9
3482795	PROB	n/a	LTP338	ltpFR2	10	n/a	n/a	n/a	26	17	6	3	8
3484936	PROB	n/a	LTP338	ltpFR2	10	n/a	n/a	n/a	26	17	1	8	8
3486390	PROB	n/a	LTP338	ltpFR2	10	n/a	n/a	n/a	26	19	2	8	9
3490777	STOP	n/a	LTP338	ltpFR2	10	n/a	n/a	n/a	26	n/a	n/a	n/a	n/a
3492661	REC_START	n/a	LTP338	ltpFR2	10	18	n/a	n/a	n/a	n/a	0	0	0
3501308	REC_WORD	wordpools/wasnorm_wordpool_576.txt	LTP338	ltpFR2	10	18	LAKE	796	n/a	n/a	0	0	0
3501994	REC_WORD	wordpools/wasnorm_wordpool_576.txt	LTP338	ltpFR2	10	18	RAFT	1159	n/a	n/a	0	0	0
3524931	REC_WORD	wordpools/wasnorm_wordpool_576.txt	LTP338	ltpFR2	10	18	STAKE	1368	n/a	n/a	0	0	0
3526019	REC_WORD	wordpools/wasnorm_wordpool_576.txt	LTP338	ltpFR2	10	18	GRAVEL	659	n/a	n/a	0	0	0
3541363	REC_WORD	wordpools/wasnorm_wordpool_576.txt	LTP338	ltpFR2	10	18	JURY	766	n/a	n/a	0	0	0
3542235	REC_WORD	wordpools/wasnorm_wordpool_576.txt	LTP338	ltpFR2	10	18	NURSE	963	n/a	n/a	0	0	0
3543576	REC_WORD	wordpools/wasnorm_wordpool_576.txt	LTP338	ltpFR2	10	18	DONOR	485	n/a	n/a	0	0	0
3544107	REC_WORD	wordpools/wasnorm_wordpool_576.txt	LTP338	ltpFR2	10	18	PATIENT	1024	n/a	n/a	0	0	0
3545149	REC_WORD	wordpools/wasnorm_wordpool_576.txt	LTP338	ltpFR2	10	18	KIDNEY	776	n/a	n/a	0	0	0
3583103	DISTRACTOR	n/a	LTP338	ltpFR2	10	19	n/a	n/a	n/a	n/a	0	0	0
3583103	START	n/a	LTP338	ltpFR2	10	n/a	n/a	n/a	27	n/a	n/a	n/a	n/a
3583119	PROB	n/a	LTP338	ltpFR2	10	n/a	n/a	n/a	27	24	7	8	9
3586515	PROB	n/a	LTP338	ltpFR2	10	n/a	n/a	n/a	27	22	8	6	8
3588252	PROB	n/a	LTP338	ltpFR2	10	n/a	n/a	n/a	27	13	1	7	5
3590394	PROB	n/a	LTP338	ltpFR2	10	n/a	n/a	n/a	27	19	9	6	4
3592282	PROB	n/a	LTP338	ltpFR2	10	n/a	n/a	n/a	27	13	5	7	1
3594021	PROB	n/a	LTP338	ltpFR2	10	n/a	n/a	n/a	27	8	5	2	1
3596330	PROB	n/a	LTP338	ltpFR2	10	n/a	n/a	n/a	27	10	5	2	3
3598453	PROB	n/a	LTP338	ltpFR2	10	n/a	n/a	n/a	27	8	2	2	4
3599958	PROB	n/a	LTP338	ltpFR2	10	n/a	n/a	n/a	27	13	7	1	5
3602500	PROB	n/a	LTP338	ltpFR2	10	n/a	n/a	n/a	27	10	2	2	6
3604540	PROB	n/a	LTP338	ltpFR2	10	n/a	n/a	n/a	27	19	3	9	7
3606234	STOP	n/a	LTP338	ltpFR2	10	n/a	n/a	n/a	27	n/a	n/a	n/a	n/a
3608067	WORD	wordpools/wasnorm_wordpool_576.txt	LTP338	ltpFR2	10	19	NIGHTGOWN	953	n/a	n/a	0	0	0
3610877	WORD	wordpools/wasnorm_wordpool_576.txt	LTP338	ltpFR2	10	19	STUDENT	1395	n/a	n/a	0	0	0
3613535	WORD	wordpools/wasnorm_wordpool_576.txt	LTP338	ltpFR2	10	19	ARMY	39	n/a	n/a	0	0	0
3616109	WORD	wordpools/wasnorm_wordpool_576.txt	LTP338	ltpFR2	10	19	GAVEL	627	n/a	n/a	0	0	0
3618685	WORD	wordpools/wasnorm_wordpool_576.txt	LTP338	ltpFR2	10	19	GREASE	660	n/a	n/a	0	0	0
3621461	WORD	wordpools/wasnorm_wordpool_576.txt	LTP338	ltpFR2	10	19	SHARK	1275	n/a	n/a	0	0	0
3624186	WORD	wordpools/wasnorm_wordpool_576.txt	LTP338	ltpFR2	10	19	TRUCK	1512	n/a	n/a	0	0	0
3626678	WORD	wordpools/wasnorm_wordpool_576.txt	LTP338	ltpFR2	10	19	RUST	1219	n/a	n/a	0	0	0
3629387	WORD	wordpools/wasnorm_wordpool_576.txt	LTP338	ltpFR2	10	19	BROTHER	179	n/a	n/a	0	0	0
3631912	WORD	wordpools/wasnorm_wordpool_576.txt	LTP338	ltpFR2	10	19	FLEET	578	n/a	n/a	0	0	0
3634420	WORD	wordpools/wasnorm_wordpool_576.txt	LTP338	ltpFR2	10	19	DAISY	435	n/a	n/a	0	0	0
3636994	WORD	wordpools/wasnorm_wordpool_576.txt	LTP338	ltpFR2	10	19	COCOON	339	n/a	n/a	0	0	0
3639570	WORD	wordpools/wasnorm_wordpool_576.txt	LTP338	ltpFR2	10	19	FIREPLACE	570	n/a	n/a	0	0	0
3642077	WORD	wordpools/wasnorm_wordpool_576.txt	LTP338	ltpFR2	10	19	HUMAN	726	n/a	n/a	0	0	0
3644686	WORD	wordpools/wasnorm_wordpool_576.txt	LTP338	ltpFR2	10	19	TEMPLE	1448	n/a	n/a	0	0	0
3647378	WORD	wordpools/wasnorm_wordpool_576.txt	LTP338	ltpFR2	10	19	FRUIT	610	n/a	n/a	0	0	0
3649870	WORD	wordpools/wasnorm_wordpool_576.txt	LTP338	ltpFR2	10	19	APPLE	33	n/a	n/a	0	0	0
3652562	WORD	wordpools/wasnorm_wordpool_576.txt	LTP338	ltpFR2	10	19	KETCHUP	771	n/a	n/a	0	0	0
3655321	WORD	wordpools/wasnorm_wordpool_576.txt	LTP338	ltpFR2	10	19	GLASS	639	n/a	n/a	0	0	0
3658095	WORD	wordpools/wasnorm_wordpool_576.txt	LTP338	ltpFR2	10	19	VALVE	1546	n/a	n/a	0	0	0
3660722	WORD	wordpools/wasnorm_wordpool_576.txt	LTP338	ltpFR2	10	19	CITRUS	313	n/a	n/a	0	0	0
3663178	WORD	wordpools/wasnorm_wordpool_576.txt	LTP338	ltpFR2	10	19	SUNSET	1408	n/a	n/a	0	0	0
3665872	WORD	wordpools/wasnorm_wordpool_576.txt	LTP338	ltpFR2	10	19	LETTUCE	814	n/a	n/a	0	0	0
3668329	WORD	wordpools/wasnorm_wordpool_576.txt	LTP338	ltpFR2	10	19	PLIERS	1089	n/a	n/a	0	0	0
3669935	START	n/a	LTP338	ltpFR2	10	n/a	n/a	n/a	28	n/a	n/a	n/a	n/a
3671048	DISTRACTOR	n/a	LTP338	ltpFR2	10	19	n/a	n/a	n/a	n/a	0	0	0
3671054	PROB	n/a	LTP338	ltpFR2	10	n/a	n/a	n/a	28	12	1	6	5
3672660	PROB	n/a	LTP338	ltpFR2	10	n/a	n/a	n/a	28	21	7	9	5
3675503	PROB	n/a	LTP338	ltpFR2	10	n/a	n/a	n/a	28	18	8	9	1
3677359	PROB	n/a	LTP338	ltpFR2	10	n/a	n/a	n/a	28	17	7	7	3
3679013	PROB	n/a	LTP338	ltpFR2	10	n/a	n/a	n/a	28	13	6	2	5
3681220	PROB	n/a	LTP338	ltpFR2	10	n/a	n/a	n/a	28	22	7	8	7
3684146	PROB	n/a	LTP338	ltpFR2	10	n/a	n/a	n/a	28	16	1	9	6
3685468	PROB	n/a	LTP338	ltpFR2	10	n/a	n/a	n/a	28	15	1	7	7
3687156	PROB	n/a	LTP338	ltpFR2	10	n/a	n/a	n/a	28	17	8	5	4
3689448	PROB	n/a	LTP338	ltpFR2	10	n/a	n/a	n/a	28	15	8	5	2
3691102	PROB	n/a	LTP338	ltpFR2	10	n/a	n/a	n/a	28	26	8	9	9
3692621	STOP	n/a	LTP338	ltpFR2	10	n/a	n/a	n/a	28	n/a	n/a	n/a	n/a
3695736	REC_START	n/a	LTP338	ltpFR2	10	19	n/a	n/a	n/a	n/a	0	0	0
3698344	REC_WORD	wordpools/wasnorm_wordpool_576.txt	LTP338	ltpFR2	10	19	GAVEL	627	n/a	n/a	0	0	0
3698788	REC_WORD	wordpools/wasnorm_wordpool_576.txt	LTP338	ltpFR2	10	19	GREASE	660	n/a	n/a	0	0	0
3699692	REC_WORD	wordpools/wasnorm_wordpool_576.txt	LTP338	ltpFR2	10	19	RUST	1219	n/a	n/a	0	0	0
3703359	REC_WORD	wordpools/wasnorm_wordpool_576.txt	LTP338	ltpFR2	10	19	CITRUS	313	n/a	n/a	0	0	0
3704263	REC_WORD	wordpools/wasnorm_wordpool_576.txt	LTP338	ltpFR2	10	19	SUNSET	1408	n/a	n/a	0	0	0
3708226	REC_WORD	wordpools/wasnorm_wordpool_576.txt	LTP338	ltpFR2	10	19	HUMAN	726	n/a	n/a	0	0	0
3709817	REC_WORD	wordpools/wasnorm_wordpool_576.txt	LTP338	ltpFR2	10	19	PLIERS	1089	n/a	n/a	0	0	0
3710387	REC_WORD	wordpools/wasnorm_wordpool_576.txt	LTP338	ltpFR2	10	19	LETTUCE	814	n/a	n/a	0	0	0
3731646	REC_WORD	wordpools/wasnorm_wordpool_576.txt	LTP338	ltpFR2	10	19	NIGHTGOWN	953	n/a	n/a	0	0	0
3732537	REC_WORD	wordpools/wasnorm_wordpool_576.txt	LTP338	ltpFR2	10	19	STUDENT	1395	n/a	n/a	0	0	0
3733012	REC_WORD	wordpools/wasnorm_wordpool_576.txt	LTP338	ltpFR2	10	19	ARMY	39	n/a	n/a	0	0	0
3786177	DISTRACTOR	n/a	LTP338	ltpFR2	10	20	n/a	n/a	n/a	n/a	0	0	0
3786177	START	n/a	LTP338	ltpFR2	10	n/a	n/a	n/a	29	n/a	n/a	n/a	n/a
3786193	PROB	n/a	LTP338	ltpFR2	10	n/a	n/a	n/a	29	19	6	9	4
3787967	PROB	n/a	LTP338	ltpFR2	10	n/a	n/a	n/a	29	18	5	4	9
3789455	PROB	n/a	LTP338	ltpFR2	10	n/a	n/a	n/a	29	13	6	4	3
3791210	PROB	n/a	LTP338	ltpFR2	10	n/a	n/a	n/a	29	15	4	7	4
3792999	PROB	n/a	LTP338	ltpFR2	10	n/a	n/a	n/a	29	10	2	1	7
3795374	PROB	n/a	LTP338	ltpFR2	10	n/a	n/a	n/a	29	18	5	6	7
3798484	PROB	n/a	LTP338	ltpFR2	10	n/a	n/a	n/a	29	18	9	8	1
3801242	PROB	n/a	LTP338	ltpFR2	10	n/a	n/a	n/a	29	20	8	4	8
3802932	PROB	n/a	LTP338	ltpFR2	10	n/a	n/a	n/a	29	14	6	3	5
3804922	PROB	n/a	LTP338	ltpFR2	10	n/a	n/a	n/a	29	16	4	9	3
3807061	PROB	n/a	LTP338	ltpFR2	10	n/a	n/a	n/a	29	14	1	8	5
3809633	STOP	n/a	LTP338	ltpFR2	10	n/a	n/a	n/a	29	n/a	n/a	n/a	n/a
3811208	WORD	wordpools/wasnorm_wordpool_576.txt	LTP338	ltpFR2	10	20	BANJO	82	n/a	n/a	0	0	0
3813800	WORD	wordpools/wasnorm_wordpool_576.txt	LTP338	ltpFR2	10	20	PREACHER	1119	n/a	n/a	0	0	0
3816291	WORD	wordpools/wasnorm_wordpool_576.txt	LTP338	ltpFR2	10	20	AIRPLANE	12	n/a	n/a	0	0	0
3818917	WORD	wordpools/wasnorm_wordpool_576.txt	LTP338	ltpFR2	10	20	ORANGE	980	n/a	n/a	0	0	0
3821475	WORD	wordpools/wasnorm_wordpool_576.txt	LTP338	ltpFR2	10	20	LAVA	804	n/a	n/a	0	0	0
3824267	WORD	wordpools/wasnorm_wordpool_576.txt	LTP338	ltpFR2	10	20	SHORTS	1293	n/a	n/a	0	0	0
3826809	WORD	wordpools/wasnorm_wordpool_576.txt	LTP338	ltpFR2	10	20	LODGE	839	n/a	n/a	0	0	0
3829568	WORD	wordpools/wasnorm_wordpool_576.txt	LTP338	ltpFR2	10	20	STONE	1385	n/a	n/a	0	0	0
3832192	WORD	wordpools/wasnorm_wordpool_576.txt	LTP338	ltpFR2	10	20	IDOL	733	n/a	n/a	0	0	0
3835001	WORD	wordpools/wasnorm_wordpool_576.txt	LTP338	ltpFR2	10	20	POET	1095	n/a	n/a	0	0	0
3837494	WORD	wordpools/wasnorm_wordpool_576.txt	LTP338	ltpFR2	10	20	GUITAR	670	n/a	n/a	0	0	0
3840218	WORD	wordpools/wasnorm_wordpool_576.txt	LTP338	ltpFR2	10	20	ELBOW	520	n/a	n/a	0	0	0
3842945	WORD	wordpools/wasnorm_wordpool_576.txt	LTP338	ltpFR2	10	20	THRONE	1461	n/a	n/a	0	0	0
3845503	WORD	wordpools/wasnorm_wordpool_576.txt	LTP338	ltpFR2	10	20	MASK	876	n/a	n/a	0	0	0
3847911	WORD	wordpools/wasnorm_wordpool_576.txt	LTP338	ltpFR2	10	20	CRITIC	410	n/a	n/a	0	0	0
3850653	WORD	wordpools/wasnorm_wordpool_576.txt	LTP338	ltpFR2	10	20	MARS	873	n/a	n/a	0	0	0
3853445	WORD	wordpools/wasnorm_wordpool_576.txt	LTP338	ltpFR2	10	20	BLOCKADE	137	n/a	n/a	0	0	0
3855970	WORD	wordpools/wasnorm_wordpool_576.txt	LTP338	ltpFR2	10	20	KLEENEX	782	n/a	n/a	0	0	0
3858495	WORD	wordpools/wasnorm_wordpool_576.txt	LTP338	ltpFR2	10	20	PAPER	1011	n/a	n/a	0	0	0
3861270	WORD	wordpools/wasnorm_wordpool_576.txt	LTP338	ltpFR2	10	20	OFFICE	972	n/a	n/a	0	0	0
3864012	WORD	wordpools/wasnorm_wordpool_576.txt	LTP338	ltpFR2	10	20	TROMBONE	1508	n/a	n/a	0	0	0
3866739	WORD	wordpools/wasnorm_wordpool_576.txt	LTP338	ltpFR2	10	20	PIANO	1057	n/a	n/a	0	0	0
3869162	WORD	wordpools/wasnorm_wordpool_576.txt	LTP338	ltpFR2	10	20	AGENT	10	n/a	n/a	0	0	0
3871972	WORD	wordpools/wasnorm_wordpool_576.txt	LTP338	ltpFR2	10	20	DRESS	495	n/a	n/a	0	0	0
3873578	START	n/a	LTP338	ltpFR2	10	n/a	n/a	n/a	30	n/a	n/a	n/a	n/a
3874541	DISTRACTOR	n/a	LTP338	ltpFR2	10	20	n/a	n/a	n/a	n/a	0	0	0
3874547	PROB	n/a	LTP338	ltpFR2	10	n/a	n/a	n/a	30	20	7	5	8
3876453	PROB	n/a	LTP338	ltpFR2	10	n/a	n/a	n/a	30	16	9	6	1
3879463	PROB	n/a	LTP338	ltpFR2	10	n/a	n/a	n/a	30	23	8	6	9
3882322	PROB	n/a	LTP338	ltpFR2	10	n/a	n/a	n/a	30	8	3	1	4
3883794	PROB	n/a	LTP338	ltpFR2	10	n/a	n/a	n/a	30	10	4	1	5
3886302	PROB	n/a	LTP338	ltpFR2	10	n/a	n/a	n/a	30	15	5	2	8
3888860	PROB	n/a	LTP338	ltpFR2	10	n/a	n/a	n/a	30	24	7	9	8
3892589	PROB	n/a	LTP338	ltpFR2	10	n/a	n/a	n/a	30	15	9	2	4
3894243	PROB	n/a	LTP338	ltpFR2	10	n/a	n/a	n/a	30	9	6	1	2
3896106	STOP	n/a	LTP338	ltpFR2	10	n/a	n/a	n/a	30	n/a	n/a	n/a	n/a
3899378	REC_START	n/a	LTP338	ltpFR2	10	20	n/a	n/a	n/a	n/a	0	0	0
3908715	REC_WORD	wordpools/wasnorm_wordpool_576.txt	LTP338	ltpFR2	10	20	GUITAR	670	n/a	n/a	0	0	0
3909341	REC_WORD	wordpools/wasnorm_wordpool_576.txt	LTP338	ltpFR2	10	20	POET	1095	n/a	n/a	0	0	0
3910533	REC_WORD	wordpools/wasnorm_wordpool_576.txt	LTP338	ltpFR2	10	20	BANJO	82	n/a	n/a	0	0	0
3914021	REC_WORD	wordpools/wasnorm_wordpool_576.txt	LTP338	ltpFR2	10	20	PIANO	1057	n/a	n/a	0	0	0
3917545	REC_WORD	wordpools/wasnorm_wordpool_576.txt	LTP338	ltpFR2	10	20	IDOL	733	n/a	n/a	0	0	0
3920750	REC_WORD	wordpools/wasnorm_wordpool_576.txt	LTP338	ltpFR2	10	20	CITRUS	313	n/a	n/a	0	0	0
3921563	REC_WORD	wordpools/wasnorm_wordpool_576.txt	LTP338	ltpFR2	10	20	SUN	1406	n/a	n/a	0	0	0
3924402	REC_WORD	wordpools/wasnorm_wordpool_576.txt	LTP338	ltpFR2	10	20	ORANGE	980	n/a	n/a	0	0	0
3925194	REC_WORD	wordpools/wasnorm_wordpool_576.txt	LTP338	ltpFR2	10	20	LAVA	804	n/a	n/a	0	0	0
3931843	REC_WORD	wordpools/wasnorm_wordpool_576.txt	LTP338	ltpFR2	10	20	SHORTS	1293	n/a	n/a	0	0	0
3989820	DISTRACTOR	n/a	LTP338	ltpFR2	10	21	n/a	n/a	n/a	n/a	0	0	0
3989821	START	n/a	LTP338	ltpFR2	10	n/a	n/a	n/a	31	n/a	n/a	n/a	n/a
3989837	PROB	n/a	LTP338	ltpFR2	10	n/a	n/a	n/a	31	11	4	1	6
3991559	PROB	n/a	LTP338	ltpFR2	10	n/a	n/a	n/a	31	19	9	5	5
3993013	PROB	n/a	LTP338	ltpFR2	10	n/a	n/a	n/a	31	22	7	8	7
3997177	PROB	n/a	LTP338	ltpFR2	10	n/a	n/a	n/a	31	14	5	3	6
4000355	PROB	n/a	LTP338	ltpFR2	10	n/a	n/a	n/a	31	20	4	8	8
4002143	PROB	n/a	LTP338	ltpFR2	10	n/a	n/a	n/a	31	21	9	7	5
4005085	PROB	n/a	LTP338	ltpFR2	10	n/a	n/a	n/a	31	24	9	7	8
4007327	PROB	n/a	LTP338	ltpFR2	10	n/a	n/a	n/a	31	9	6	2	1
4008765	PROB	n/a	LTP338	ltpFR2	10	n/a	n/a	n/a	31	19	6	9	4
4013821	STOP	n/a	LTP338	ltpFR2	10	n/a	n/a	n/a	31	n/a	n/a	n/a	n/a
4014651	WORD	wordpools/wasnorm_wordpool_576.txt	LTP338	ltpFR2	10	21	COFFEE	341	n/a	n/a	0	0	0
4017058	WORD	wordpools/wasnorm_wordpool_576.txt	LTP338	ltpFR2	10	21	SLOPE	1328	n/a	n/a	0	0	0
4019801	WORD	wordpools/wasnorm_wordpool_576.txt	LTP338	ltpFR2	10	21	JUDGE	761	n/a	n/a	0	0	0
4022208	WORD	wordpools/wasnorm_wordpool_576.txt	LTP338	ltpFR2	10	21	OMELET	976	n/a	n/a	0	0	0
4024800	WORD	wordpools/wasnorm_wordpool_576.txt	LTP338	ltpFR2	10	21	BACON	67	n/a	n/a	0	0	0
4027375	WORD	wordpools/wasnorm_wordpool_576.txt	LTP338	ltpFR2	10	21	CABBAGE	210	n/a	n/a	0	0	0
4029800	WORD	wordpools/wasnorm_wordpool_576.txt	LTP338	ltpFR2	10	21	BUCKET	184	n/a	n/a	0	0	0
4032308	WORD	wordpools/wasnorm_wordpool_576.txt	LTP338	ltpFR2	10	21	MARSH	874	n/a	n/a	0	0	0
4034766	WORD	wordpools/wasnorm_wordpool_576.txt	LTP338	ltpFR2	10	21	CURTAIN	427	n/a	n/a	0	0	0
4037542	WORD	wordpools/wasnorm_wordpool_576.txt	LTP338	ltpFR2	10	21	PEACH	1031	n/a	n/a	0	0	0
4039983	WORD	wordpools/wasnorm_wordpool_576.txt	LTP338	ltpFR2	10	21	SKETCH	1315	n/a	n/a	0	0	0
4042575	WORD	wordpools/wasnorm_wordpool_576.txt	LTP338	ltpFR2	10	21	TURNIP	1521	n/a	n/a	0	0	0
4045149	WORD	wordpools/wasnorm_wordpool_576.txt	LTP338	ltpFR2	10	21	AWARD	63	n/a	n/a	0	0	0
4047624	WORD	wordpools/wasnorm_wordpool_576.txt	LTP338	ltpFR2	10	21	HAWK	692	n/a	n/a	0	0	0
4050131	WORD	wordpools/wasnorm_wordpool_576.txt	LTP338	ltpFR2	10	21	CONTRACT	368	n/a	n/a	0	0	0
4052741	WORD	wordpools/wasnorm_wordpool_576.txt	LTP338	ltpFR2	10	21	BATHTUB	100	n/a	n/a	0	0	0
4055316	WORD	wordpools/wasnorm_wordpool_576.txt	LTP338	ltpFR2	10	21	BEEF	113	n/a	n/a	0	0	0
4057774	WORD	wordpools/wasnorm_wordpool_576.txt	LTP338	ltpFR2	10	21	TURKEY	1520	n/a	n/a	0	0	0
4060432	WORD	wordpools/wasnorm_wordpool_576.txt	LTP338	ltpFR2	10	21	ZIPPER	1636	n/a	n/a	0	0	0
4062924	WORD	wordpools/wasnorm_wordpool_576.txt	LTP338	ltpFR2	10	21	SODA	1341	n/a	n/a	0	0	0
4065415	WORD	wordpools/wasnorm_wordpool_576.txt	LTP338	ltpFR2	10	21	FIDDLE	561	n/a	n/a	0	0	0
4068173	WORD	wordpools/wasnorm_wordpool_576.txt	LTP338	ltpFR2	10	21	WHISTLE	1606	n/a	n/a	0	0	0
4070766	WORD	wordpools/wasnorm_wordpool_576.txt	LTP338	ltpFR2	10	21	PLAID	1080	n/a	n/a	0	0	0
4073374	WORD	wordpools/wasnorm_wordpool_576.txt	LTP338	ltpFR2	10	21	SHIRT	1287	n/a	n/a	0	0	0
4074980	START	n/a	LTP338	ltpFR2	10	n/a	n/a	n/a	32	n/a	n/a	n/a	n/a
4075927	DISTRACTOR	n/a	LTP338	ltpFR2	10	21	n/a	n/a	n/a	n/a	0	0	0
4075933	PROB	n/a	LTP338	ltpFR2	10	n/a	n/a	n/a	32	17	7	3	7
4078005	PROB	n/a	LTP338	ltpFR2	10	n/a	n/a	n/a	32	17	8	3	6
4080380	PROB	n/a	LTP338	ltpFR2	10	n/a	n/a	n/a	32	14	3	5	6
4083071	PROB	n/a	LTP338	ltpFR2	10	n/a	n/a	n/a	32	12	2	6	4
4085748	PROB	n/a	LTP338	ltpFR2	10	n/a	n/a	n/a	32	25	9	7	9
4087821	PROB	n/a	LTP338	ltpFR2	10	n/a	n/a	n/a	32	12	4	2	6
4089560	PROB	n/a	LTP338	ltpFR2	10	n/a	n/a	n/a	32	21	6	7	8
4092201	PROB	n/a	LTP338	ltpFR2	10	n/a	n/a	n/a	32	12	2	4	6
4093924	PROB	n/a	LTP338	ltpFR2	10	n/a	n/a	n/a	32	17	8	8	1
4097000	PROB	n/a	LTP338	ltpFR2	10	n/a	n/a	n/a	32	8	5	2	1
4098753	STOP	n/a	LTP338	ltpFR2	10	n/a	n/a	n/a	32	n/a	n/a	n/a	n/a
4100847	REC_START	n/a	LTP338	ltpFR2	10	21	n/a	n/a	n/a	n/a	0	0	0
4102408	REC_WORD	wordpools/wasnorm_wordpool_576.txt	LTP338	ltpFR2	10	21	COFFEE	341	n/a	n/a	0	0	0
4103380	REC_WORD	wordpools/wasnorm_wordpool_576.txt	LTP338	ltpFR2	10	21	BACON	67	n/a	n/a	0	0	0
4104297	REC_WORD	wordpools/wasnorm_wordpool_576.txt	LTP338	ltpFR2	10	21	OMELET	976	n/a	n/a	0	0	0
4106030	REC_WORD	wordpools/wasnorm_wordpool_576.txt	LTP338	ltpFR2	10	21	CABBAGE	210	n/a	n/a	0	0	0
4106840	REC_WORD	wordpools/wasnorm_wordpool_576.txt	LTP338	ltpFR2	10	21	PEACH	1031	n/a	n/a	0	0	0
4108716	REC_WORD	wordpools/wasnorm_wordpool_576.txt	LTP338	ltpFR2	10	21	BEEF	113	n/a	n/a	0	0	0
4109512	REC_WORD	wordpools/wasnorm_wordpool_576.txt	LTP338	ltpFR2	10	21	TURKEY	1520	n/a	n/a	0	0	0
4110444	REC_WORD	wordpools/wasnorm_wordpool_576.txt	LTP338	ltpFR2	10	21	SODA	1341	n/a	n/a	0	0	0
4111603	REC_WORD	wordpools/wasnorm_wordpool_576.txt	LTP338	ltpFR2	10	21	WHISTLE	1606	n/a	n/a	0	0	0
4112316	REC_WORD	wordpools/wasnorm_wordpool_576.txt	LTP338	ltpFR2	10	21	AWARD	63	n/a	n/a	0	0	0
4191306	WORD	wordpools/wasnorm_wordpool_576.txt	LTP338	ltpFR2	10	22	BALLOON	75	n/a	n/a	0	0	0
4193731	WORD	wordpools/wasnorm_wordpool_576.txt	LTP338	ltpFR2	10	22	CRAB	397	n/a	n/a	0	0	0
4196204	WORD	wordpools/wasnorm_wordpool_576.txt	LTP338	ltpFR2	10	22	DANCER	437	n/a	n/a	0	0	0
4198680	WORD	wordpools/wasnorm_wordpool_576.txt	LTP338	ltpFR2	10	22	DANDRUFF	439	n/a	n/a	0	0	0
4201171	WORD	wordpools/wasnorm_wordpool_576.txt	LTP338	ltpFR2	10	22	ACTRESS	6	n/a	n/a	0	0	0
4203797	WORD	wordpools/wasnorm_wordpool_576.txt	LTP338	ltpFR2	10	22	GLOBE	641	n/a	n/a	0	0	0
4206572	WORD	wordpools/wasnorm_wordpool_576.txt	LTP338	ltpFR2	10	22	WORLD	1622	n/a	n/a	0	0	0
4209381	WORD	wordpools/wasnorm_wordpool_576.txt	LTP338	ltpFR2	10	22	SALMON	1227	n/a	n/a	0	0	0
4211873	WORD	wordpools/wasnorm_wordpool_576.txt	LTP338	ltpFR2	10	22	ACTOR	5	n/a	n/a	0	0	0
4214548	WORD	wordpools/wasnorm_wordpool_576.txt	LTP338	ltpFR2	10	22	HANDBAG	684	n/a	n/a	0	0	0
4217307	WORD	wordpools/wasnorm_wordpool_576.txt	LTP338	ltpFR2	10	22	SEAGULL	1261	n/a	n/a	0	0	0
4219966	WORD	wordpools/wasnorm_wordpool_576.txt	LTP338	ltpFR2	10	22	SHOULDER	1294	n/a	n/a	0	0	0
4222474	WORD	wordpools/wasnorm_wordpool_576.txt	LTP338	ltpFR2	10	22	TOASTER	1472	n/a	n/a	0	0	0
4225265	WORD	wordpools/wasnorm_wordpool_576.txt	LTP338	ltpFR2	10	22	MOTEL	919	n/a	n/a	0	0	0
4227791	WORD	wordpools/wasnorm_wordpool_576.txt	LTP338	ltpFR2	10	22	FOREST	593	n/a	n/a	0	0	0
4230281	WORD	wordpools/wasnorm_wordpool_576.txt	LTP338	ltpFR2	10	22	PEPPER	1047	n/a	n/a	0	0	0
4232891	WORD	wordpools/wasnorm_wordpool_576.txt	LTP338	ltpFR2	10	22	TYPIST	1532	n/a	n/a	0	0	0
4235533	WORD	wordpools/wasnorm_wordpool_576.txt	LTP338	ltpFR2	10	22	DRESSER	496	n/a	n/a	0	0	0
4237990	WORD	wordpools/wasnorm_wordpool_576.txt	LTP338	ltpFR2	10	22	WRENCH	1625	n/a	n/a	0	0	0
4240700	WORD	wordpools/wasnorm_wordpool_576.txt	LTP338	ltpFR2	10	22	DRILL	497	n/a	n/a	0	0	0
4243509	WORD	wordpools/wasnorm_wordpool_576.txt	LTP338	ltpFR2	10	22	SCALPEL	1243	n/a	n/a	0	0	0
4246301	WORD	wordpools/wasnorm_wordpool_576.txt	LTP338	ltpFR2	10	22	SAUSAGE	1238	n/a	n/a	0	0	0
4248943	WORD	wordpools/wasnorm_wordpool_576.txt	LTP338	ltpFR2	10	22	CYCLONE	431	n/a	n/a	0	0	0
4251601	WORD	wordpools/wasnorm_wordpool_576.txt	LTP338	ltpFR2	10	22	VICTIM	1562	n/a	n/a	0	0	0
4253206	START	n/a	LTP338	ltpFR2	10	n/a	n/a	n/a	33	n/a	n/a	n/a	n/a
4254168	DISTRACTOR	n/a	LTP338	ltpFR2	10	22	n/a	n/a	n/a	n/a	0	0	0
4254175	PROB	n/a	LTP338	ltpFR2	10	n/a	n/a	n/a	33	12	5	4	3
4258071	PROB	n/a	LTP338	ltpFR2	10	n/a	n/a	n/a	33	18	9	7	2
4260346	PROB	n/a	LTP338	ltpFR2	10	n/a	n/a	n/a	33	7	1	4	2
4261768	PROB	n/a	LTP338	ltpFR2	10	n/a	n/a	n/a	33	18	7	4	7
4263774	PROB	n/a	LTP338	ltpFR2	10	n/a	n/a	n/a	33	9	4	3	2
4265597	PROB	n/a	LTP338	ltpFR2	10	n/a	n/a	n/a	33	15	3	7	5
4267117	PROB	n/a	LTP338	ltpFR2	10	n/a	n/a	n/a	33	12	1	9	2
4268356	PROB	n/a	LTP338	ltpFR2	10	n/a	n/a	n/a	33	10	1	5	4
4269978	PROB	n/a	LTP338	ltpFR2	10	n/a	n/a	n/a	33	16	7	5	4
4272486	PROB	n/a	LTP338	ltpFR2	10	n/a	n/a	n/a	33	14	1	9	4
4273840	PROB	n/a	LTP338	ltpFR2	10	n/a	n/a	n/a	33	5	2	1	2
4277206	STOP	n/a	LTP338	ltpFR2	10	n/a	n/a	n/a	33	n/a	n/a	n/a	n/a
4279023	REC_START	n/a	LTP338	ltpFR2	10	22	n/a	n/a	n/a	n/a	0	0	0
4281412	REC_WORD	wordpools/wasnorm_wordpool_576.txt	LTP338	ltpFR2	10	22	SAUSAGE	1238	n/a	n/a	0	0	0
4282412	REC_WORD_VV	wordpools/wasnorm_wordpool_576.txt	LTP338	ltpFR2	10	22	<>	-1	n/a	n/a	0	0	0
4284136	REC_WORD	wordpools/wasnorm_wordpool_576.txt	LTP338	ltpFR2	10	22	BALLOON	75	n/a	n/a	0	0	0
4285119	REC_WORD	wordpools/wasnorm_wordpool_576.txt	LTP338	ltpFR2	10	22	CRAB	397	n/a	n/a	0	0	0
4288004	REC_WORD	wordpools/wasnorm_wordpool_576.txt	LTP338	ltpFR2	10	22	ACTOR	5	n/a	n/a	0	0	0
4290738	REC_WORD	wordpools/wasnorm_wordpool_576.txt	LTP338	ltpFR2	10	22	DANCER	437	n/a	n/a	0	0	0
4291344	REC_WORD	wordpools/wasnorm_wordpool_576.txt	LTP338	ltpFR2	10	22	DANDRUFF	439	n/a	n/a	0	0	0
4299992	REC_WORD	wordpools/wasnorm_wordpool_576.txt	LTP338	ltpFR2	10	22	TYPIST	1532	n/a	n/a	0	0	0
4302352	REC_WORD	wordpools/wasnorm_wordpool_576.txt	LTP338	ltpFR2	10	22	PEPPER	1047	n/a	n/a	0	0	0
4353699	REC_WORD	wordpools/wasnorm_wordpool_576.txt	LTP338	ltpFR2	10	22	GLOBE	641	n/a	n/a	0	0	0
4369466	DISTRACTOR	n/a	LTP338	ltpFR2	10	23	n/a	n/a	n/a	n/a	0	0	0
4369467	START	n/a	LTP338	ltpFR2	10	n/a	n/a	n/a	34	n/a	n/a	n/a	n/a
4369483	PROB	n/a	LTP338	ltpFR2	10	n/a	n/a	n/a	34	9	5	3	1
4371154	PROB	n/a	LTP338	ltpFR2	10	n/a	n/a	n/a	34	20	8	5	7
4373329	PROB	n/a	LTP338	ltpFR2	10	n/a	n/a	n/a	34	10	4	3	3
4375921	PROB	n/a	LTP338	ltpFR2	10	n/a	n/a	n/a	34	18	8	4	6
4377609	PROB	n/a	LTP338	ltpFR2	10	n/a	n/a	n/a	34	13	7	3	3
4379147	PROB	n/a	LTP338	ltpFR2	10	n/a	n/a	n/a	34	18	7	9	2
4380920	PROB	n/a	LTP338	ltpFR2	10	n/a	n/a	n/a	34	13	5	5	3
4382308	PROB	n/a	LTP338	ltpFR2	10	n/a	n/a	n/a	34	16	7	4	5
4383880	PROB	n/a	LTP338	ltpFR2	10	n/a	n/a	n/a	34	15	6	8	1
4385267	PROB	n/a	LTP338	ltpFR2	10	n/a	n/a	n/a	34	9	1	7	1
4387575	PROB	n/a	LTP338	ltpFR2	10	n/a	n/a	n/a	34	16	9	1	6
4388913	PROB	n/a	LTP338	ltpFR2	10	n/a	n/a	n/a	34	8	2	5	1
4393467	STOP	n/a	LTP338	ltpFR2	10	n/a	n/a	n/a	34	n/a	n/a	n/a	n/a
4394615	WORD	wordpools/wasnorm_wordpool_576.txt	LTP338	ltpFR2	10	23	WASP	1593	n/a	n/a	0	0	0
4397373	WORD	wordpools/wasnorm_wordpool_576.txt	LTP338	ltpFR2	10	23	PIZZA	1079	n/a	n/a	0	0	0
4399948	WORD	wordpools/wasnorm_wordpool_576.txt	LTP338	ltpFR2	10	23	GRAVE	658	n/a	n/a	0	0	0
4402691	WORD	wordpools/wasnorm_wordpool_576.txt	LTP338	ltpFR2	10	23	VIKING	1565	n/a	n/a	0	0	0
4405450	WORD	wordpools/wasnorm_wordpool_576.txt	LTP338	ltpFR2	10	23	GIRL	637	n/a	n/a	0	0	0
4408057	WORD	wordpools/wasnorm_wordpool_576.txt	LTP338	ltpFR2	10	23	HONEY	713	n/a	n/a	0	0	0
4410633	WORD	wordpools/wasnorm_wordpool_576.txt	LTP338	ltpFR2	10	23	MAPLE	866	n/a	n/a	0	0	0
4413308	WORD	wordpools/wasnorm_wordpool_576.txt	LTP338	ltpFR2	10	23	THIEF	1456	n/a	n/a	0	0	0
4415733	WORD	wordpools/wasnorm_wordpool_576.txt	LTP338	ltpFR2	10	23	UMPIRE	1535	n/a	n/a	0	0	0
4418290	WORD	wordpools/wasnorm_wordpool_576.txt	LTP338	ltpFR2	10	23	GUARD	667	n/a	n/a	0	0	0
4420916	WORD	wordpools/wasnorm_wordpool_576.txt	LTP338	ltpFR2	10	23	TAXI	1438	n/a	n/a	0	0	0
4423508	WORD	wordpools/wasnorm_wordpool_576.txt	LTP338	ltpFR2	10	23	BARLEY	88	n/a	n/a	0	0	0
4425998	WORD	wordpools/wasnorm_wordpool_576.txt	LTP338	ltpFR2	10	23	WIDOW	1608	n/a	n/a	0	0	0
4428558	WORD	wordpools/wasnorm_wordpool_576.txt	LTP338	ltpFR2	10	23	COLONEL	348	n/a	n/a	0	0	0
4430982	WORD	wordpools/wasnorm_wordpool_576.txt	LTP338	ltpFR2	10	23	TROUT	1511	n/a	n/a	0	0	0
