mstime	trial_type	stim_file	subject	experiment	session	trial	task	item_name	item_num	recog_resp	recog_conf	resp	color_r	color_g	color_b	case	font
0	SESS_START	n/a	LTP161	ltpFR	2	n/a	n/a	n/a	n/a	1	5	n/a	n/a	n/a	n/a	n/a	n/a
48642	WORD	wordpools/wasnorm_wordpool_less_exclusions.txt	LTP161	ltpFR	2	1	1	COBBLER	335	1	n/a	0	0.422607421875	0.5869140625	0	upper	amplitud.ttf
52702	WORD	wordpools/wasnorm_wordpool_less_exclusions.txt	LTP161	ltpFR	2	1	1	PIE	1062	n/a	n/a	0	0.422607421875	0.5869140625	0	upper	amplitud.ttf
56563	WORD	wordpools/wasnorm_wordpool_less_exclusions.txt	LTP161	ltpFR	2	1	1	TERMITE	1451	n/a	n/a	1	0.422607421875	0.5869140625	0	upper	amplitud.ttf
60740	WORD	wordpools/wasnorm_wordpool_less_exclusions.txt	LTP161	ltpFR	2	1	1	BAY	102	n/a	n/a	0	0.422607421875	0.5869140625	0	upper	amplitud.ttf
64784	WORD	wordpools/wasnorm_wordpool_less_exclusions.txt	LTP161	ltpFR	2	1	0	SURF	1412	n/a	n/a	1	0.57763671875	0.412841796875	1	lower	zerothre.ttf
68910	WORD	wordpools/wasnorm_wordpool_less_exclusions.txt	LTP161	ltpFR	2	1	0	MOSQUITO	917	n/a	n/a	0	0.57763671875	0.412841796875	1	lower	zerothre.ttf
73004	WORD	wordpools/wasnorm_wordpool_less_exclusions.txt	LTP161	ltpFR	2	1	0	RACKET	1155	n/a	n/a	1	0.57763671875	0.412841796875	1	lower	zerothre.ttf
77148	WORD	wordpools/wasnorm_wordpool_less_exclusions.txt	LTP161	ltpFR	2	1	0	SAW	1239	n/a	n/a	1	0.57763671875	0.412841796875	1	lower	zerothre.ttf
81259	WORD	wordpools/wasnorm_wordpool_less_exclusions.txt	LTP161	ltpFR	2	1	0	PEDAL	1037	n/a	n/a	1	0.57763671875	0.412841796875	1	lower	zerothre.ttf
85120	WORD	wordpools/wasnorm_wordpool_less_exclusions.txt	LTP161	ltpFR	2	1	1	CREW	406	n/a	n/a	1	0.422607421875	0.5869140625	0	upper	amplitud.ttf
89331	WORD	wordpools/wasnorm_wordpool_less_exclusions.txt	LTP161	ltpFR	2	1	1	SLUG	1329	n/a	n/a	1	0.422607421875	0.5869140625	0	upper	amplitud.ttf
93157	WORD	wordpools/wasnorm_wordpool_less_exclusions.txt	LTP161	ltpFR	2	1	0	WAND	1586	n/a	n/a	1	0.57763671875	0.412841796875	1	lower	zerothre.ttf
97301	WORD	wordpools/wasnorm_wordpool_less_exclusions.txt	LTP161	ltpFR	2	1	0	ANCHOR	21	n/a	n/a	1	0.57763671875	0.412841796875	1	lower	zerothre.ttf
101346	WORD	wordpools/wasnorm_wordpool_less_exclusions.txt	LTP161	ltpFR	2	1	0	BAND	78	n/a	n/a	1	0.57763671875	0.412841796875	1	lower	zerothre.ttf
105424	WORD	wordpools/wasnorm_wordpool_less_exclusions.txt	LTP161	ltpFR	2	1	1	STRING	1394	n/a	n/a	0	0.422607421875	0.5869140625	0	upper	amplitud.ttf
109351	WORD	wordpools/wasnorm_wordpool_less_exclusions.txt	LTP161	ltpFR	2	1	1	BASKET	95	n/a	n/a	0	0.422607421875	0.5869140625	0	upper	amplitud.ttf
115075	REC_START	n/a	LTP161	ltpFR	2	1	n/a	n/a	n/a	n/a	n/a	n/a	n/a	n/a	n/a	n/a	n/a
117020	REC_WORD	wordpools/wasnorm_wordpool_less_exclusions.txt	LTP161	ltpFR	2	1	1	STRING	1394	n/a	n/a	0	n/a	n/a	n/a	n/a	n/a
118692	REC_WORD	wordpools/wasnorm_wordpool_less_exclusions.txt	LTP161	ltpFR	2	1	1	BASKET	95	n/a	n/a	0	n/a	n/a	n/a	n/a	n/a
119953	REC_WORD	wordpools/wasnorm_wordpool_less_exclusions.txt	LTP161	ltpFR	2	1	0	MOSQUITO	917	n/a	n/a	0	n/a	n/a	n/a	n/a	n/a
121884	REC_WORD	wordpools/wasnorm_wordpool_less_exclusions.txt	LTP161	ltpFR	2	1	1	CREW	406	n/a	n/a	1	n/a	n/a	n/a	n/a	n/a
124209	REC_WORD	wordpools/wasnorm_wordpool_less_exclusions.txt	LTP161	ltpFR	2	1	0	WAND	1586	n/a	n/a	1	n/a	n/a	n/a	n/a	n/a
125386	REC_WORD	wordpools/wasnorm_wordpool_less_exclusions.txt	LTP161	ltpFR	2	1	0	ANCHOR	21	n/a	n/a	1	n/a	n/a	n/a	n/a	n/a
130011	REC_WORD	wordpools/wasnorm_wordpool_less_exclusions.txt	LTP161	ltpFR	2	1	1	TERMITE	1451	n/a	n/a	1	n/a	n/a	n/a	n/a	n/a
195904	WORD	wordpools/wasnorm_wordpool_less_exclusions.txt	LTP161	ltpFR	2	2	0	POPE	1105	n/a	n/a	0	0.57763671875	0.412841796875	1	lower	zerothre.ttf
200098	WORD	wordpools/wasnorm_wordpool_less_exclusions.txt	LTP161	ltpFR	2	2	0	UNIFORM	1539	n/a	n/a	1	0.57763671875	0.412841796875	1	lower	zerothre.ttf
204225	WORD	wordpools/wasnorm_wordpool_less_exclusions.txt	LTP161	ltpFR	2	2	0	MAGNET	855	n/a	n/a	0	0.57763671875	0.412841796875	1	lower	zerothre.ttf
208252	WORD	wordpools/wasnorm_wordpool_less_exclusions.txt	LTP161	ltpFR	2	2	0	JOURNAL	760	n/a	n/a	0	0.57763671875	0.412841796875	1	lower	zerothre.ttf
212381	WORD	wordpools/wasnorm_wordpool_less_exclusions.txt	LTP161	ltpFR	2	2	0	EDITOR	516	n/a	n/a	1	0.57763671875	0.412841796875	1	lower	zerothre.ttf
216257	WORD	wordpools/wasnorm_wordpool_less_exclusions.txt	LTP161	ltpFR	2	2	1	COMMITTEE	355	n/a	n/a	1	0.422607421875	0.5869140625	0	upper	amplitud.ttf
220435	WORD	wordpools/wasnorm_wordpool_less_exclusions.txt	LTP161	ltpFR	2	2	1	BLANKET	135	n/a	n/a	1	0.422607421875	0.5869140625	0	upper	amplitud.ttf
224479	WORD	wordpools/wasnorm_wordpool_less_exclusions.txt	LTP161	ltpFR	2	2	1	NIGHTGOWN	953	n/a	n/a	0	0.422607421875	0.5869140625	0	upper	amplitud.ttf
228656	WORD	wordpools/wasnorm_wordpool_less_exclusions.txt	LTP161	ltpFR	2	2	1	OFFICER	973	n/a	n/a	1	0.422607421875	0.5869140625	0	upper	amplitud.ttf
232650	WORD	wordpools/wasnorm_wordpool_less_exclusions.txt	LTP161	ltpFR	2	2	0	PRIEST	1122	n/a	n/a	1	0.57763671875	0.412841796875	1	lower	zerothre.ttf
236661	WORD	wordpools/wasnorm_wordpool_less_exclusions.txt	LTP161	ltpFR	2	2	0	IRON	744	n/a	n/a	1	0.57763671875	0.412841796875	1	lower	zerothre.ttf
240771	WORD	wordpools/wasnorm_wordpool_less_exclusions.txt	LTP161	ltpFR	2	2	0	SHERIFF	1284	n/a	n/a	3	0.57763671875	0.412841796875	1	lower	zerothre.ttf
241753	KEY_MSG	n/a	LTP161	ltpFR	2	2	n/a	n/a	n/a	n/a	n/a	n/a	n/a	n/a	n/a	n/a	n/a
244981	WORD	wordpools/wasnorm_wordpool_less_exclusions.txt	LTP161	ltpFR	2	2	1	MUSEUM	933	n/a	n/a	0	0.422607421875	0.5869140625	0	upper	amplitud.ttf
248892	WORD	wordpools/wasnorm_wordpool_less_exclusions.txt	LTP161	ltpFR	2	2	1	PLASTER	1085	n/a	n/a	0	0.422607421875	0.5869140625	0	upper	amplitud.ttf
252902	WORD	wordpools/wasnorm_wordpool_less_exclusions.txt	LTP161	ltpFR	2	2	1	OUTDOORS	987	n/a	n/a	1	0.422607421875	0.5869140625	0	upper	amplitud.ttf
256980	WORD	wordpools/wasnorm_wordpool_less_exclusions.txt	LTP161	ltpFR	2	2	1	SWING	1421	n/a	n/a	0	0.422607421875	0.5869140625	0	upper	amplitud.ttf
263005	REC_START	n/a	LTP161	ltpFR	2	2	n/a	n/a	n/a	n/a	n/a	n/a	n/a	n/a	n/a	n/a	n/a
263872	REC_WORD	wordpools/wasnorm_wordpool_less_exclusions.txt	LTP161	ltpFR	2	2	1	SWING	1421	n/a	n/a	0	n/a	n/a	n/a	n/a	n/a
264872	REC_WORD_VV	wordpools/wasnorm_wordpool_less_exclusions.txt	LTP161	ltpFR	2	2	n/a	<>	-1	n/a	n/a	n/a	n/a	n/a	n/a	n/a	n/a
265419	REC_WORD	wordpools/wasnorm_wordpool_less_exclusions.txt	LTP161	ltpFR	2	2	1	OUTDOORS	987	n/a	n/a	1	n/a	n/a	n/a	n/a	n/a
266419	REC_WORD_VV	wordpools/wasnorm_wordpool_less_exclusions.txt	LTP161	ltpFR	2	2	n/a	<>	-1	n/a	n/a	n/a	n/a	n/a	n/a	n/a	n/a
267021	REC_WORD	wordpools/wasnorm_wordpool_less_exclusions.txt	LTP161	ltpFR	2	2	1	OFFICER	973	n/a	n/a	1	n/a	n/a	n/a	n/a	n/a
268856	REC_WORD	wordpools/wasnorm_wordpool_less_exclusions.txt	LTP161	ltpFR	2	2	0	SHERIFF	1284	n/a	n/a	3	n/a	n/a	n/a	n/a	n/a
269856	REC_WORD_VV	wordpools/wasnorm_wordpool_less_exclusions.txt	LTP161	ltpFR	2	2	n/a	<>	-1	n/a	n/a	n/a	n/a	n/a	n/a	n/a	n/a
270817	REC_WORD	wordpools/wasnorm_wordpool_less_exclusions.txt	LTP161	ltpFR	2	2	1	COMMITTEE	355	n/a	n/a	1	n/a	n/a	n/a	n/a	n/a
309733	REC_WORD	wordpools/wasnorm_wordpool_less_exclusions.txt	LTP161	ltpFR	2	2	0	JOURNAL	760	n/a	n/a	0	n/a	n/a	n/a	n/a	n/a
314418	REC_WORD	wordpools/wasnorm_wordpool_less_exclusions.txt	LTP161	ltpFR	2	2	0	IRON	744	n/a	n/a	1	n/a	n/a	n/a	n/a	n/a
350007	WORD	wordpools/wasnorm_wordpool_less_exclusions.txt	LTP161	ltpFR	2	3	1	WAX	1597	n/a	n/a	0	0.422607421875	0.5869140625	0	upper	amplitud.ttf
353935	WORD	wordpools/wasnorm_wordpool_less_exclusions.txt	LTP161	ltpFR	2	3	1	COLESLAW	344	n/a	n/a	0	0.422607421875	0.5869140625	0	upper	amplitud.ttf
358012	WORD	wordpools/wasnorm_wordpool_less_exclusions.txt	LTP161	ltpFR	2	3	1	DASHBOARD	441	n/a	n/a	0	0.422607421875	0.5869140625	0	upper	amplitud.ttf
362172	WORD	wordpools/wasnorm_wordpool_less_exclusions.txt	LTP161	ltpFR	2	3	1	HERO	706	n/a	n/a	1	0.422607421875	0.5869140625	0	upper	amplitud.ttf
366384	WORD	wordpools/wasnorm_wordpool_less_exclusions.txt	LTP161	ltpFR	2	3	1	MISTER	901	n/a	n/a	1	0.422607421875	0.5869140625	0	upper	amplitud.ttf
370277	WORD	wordpools/wasnorm_wordpool_less_exclusions.txt	LTP161	ltpFR	2	3	0	CRAB	397	n/a	n/a	n/a	0.57763671875	0.412841796875	1	lower	zerothre.ttf
373306	SLOW_MSG	n/a	LTP161	ltpFR	2	3	n/a	n/a	n/a	n/a	n/a	n/a	n/a	n/a	n/a	n/a	n/a
376035	WORD	wordpools/wasnorm_wordpool_less_exclusions.txt	LTP161	ltpFR	2	3	0	BURGLAR	200	n/a	n/a	1	0.57763671875	0.412841796875	1	lower	zerothre.ttf
380245	WORD	wordpools/wasnorm_wordpool_less_exclusions.txt	LTP161	ltpFR	2	3	0	SPINE	1353	n/a	n/a	1	0.57763671875	0.412841796875	1	lower	zerothre.ttf
384106	WORD	wordpools/wasnorm_wordpool_less_exclusions.txt	LTP161	ltpFR	2	3	0	STEM	1376	n/a	n/a	1	0.57763671875	0.412841796875	1	lower	zerothre.ttf
388067	WORD	wordpools/wasnorm_wordpool_less_exclusions.txt	LTP161	ltpFR	2	3	0	DAISY	435	n/a	n/a	0	0.57763671875	0.412841796875	1	lower	zerothre.ttf
391961	WORD	wordpools/wasnorm_wordpool_less_exclusions.txt	LTP161	ltpFR	2	3	0	WHEAT	1602	n/a	n/a	1	0.57763671875	0.412841796875	1	lower	zerothre.ttf
396105	WORD	wordpools/wasnorm_wordpool_less_exclusions.txt	LTP161	ltpFR	2	3	1	SCARECROW	1245	n/a	n/a	0	0.422607421875	0.5869140625	0	upper	amplitud.ttf
399949	WORD	wordpools/wasnorm_wordpool_less_exclusions.txt	LTP161	ltpFR	2	3	1	ROOSTER	1209	n/a	n/a	1	0.422607421875	0.5869140625	0	upper	amplitud.ttf
404077	WORD	wordpools/wasnorm_wordpool_less_exclusions.txt	LTP161	ltpFR	2	3	1	BACK	65	n/a	n/a	0	0.422607421875	0.5869140625	0	upper	amplitud.ttf
408037	WORD	wordpools/wasnorm_wordpool_less_exclusions.txt	LTP161	ltpFR	2	3	0	INVENTOR	743	n/a	n/a	1	0.57763671875	0.412841796875	1	lower	zerothre.ttf
412131	WORD	wordpools/wasnorm_wordpool_less_exclusions.txt	LTP161	ltpFR	2	3	0	GARAGE	621	n/a	n/a	1	0.57763671875	0.412841796875	1	lower	zerothre.ttf
417923	REC_START	n/a	LTP161	ltpFR	2	3	n/a	n/a	n/a	n/a	n/a	n/a	n/a	n/a	n/a	n/a	n/a
419349	REC_WORD	wordpools/wasnorm_wordpool_less_exclusions.txt	LTP161	ltpFR	2	3	0	GARAGE	621	n/a	n/a	1	n/a	n/a	n/a	n/a	n/a
420766	REC_WORD	wordpools/wasnorm_wordpool_less_exclusions.txt	LTP161	ltpFR	2	3	0	INVENTOR	743	n/a	n/a	1	n/a	n/a	n/a	n/a	n/a
422547	REC_WORD	wordpools/wasnorm_wordpool_less_exclusions.txt	LTP161	ltpFR	2	3	1	SCARECROW	1245	n/a	n/a	0	n/a	n/a	n/a	n/a	n/a
424727	REC_WORD	wordpools/wasnorm_wordpool_less_exclusions.txt	LTP161	ltpFR	2	3	1	HERO	706	n/a	n/a	1	n/a	n/a	n/a	n/a	n/a
462905	REC_WORD	wordpools/wasnorm_wordpool_less_exclusions.txt	LTP161	ltpFR	2	3	1	DASHBOARD	441	n/a	n/a	0	n/a	n/a	n/a	n/a	n/a
500100	WORD	wordpools/wasnorm_wordpool_less_exclusions.txt	LTP161	ltpFR	2	4	1	OPERATOR	979	n/a	n/a	1	0.422607421875	0.5869140625	0	upper	amplitud.ttf
504044	WORD	wordpools/wasnorm_wordpool_less_exclusions.txt	LTP161	ltpFR	2	4	1	FLASHLIGHT	575	n/a	n/a	0	0.422607421875	0.5869140625	0	upper	amplitud.ttf
507955	WORD	wordpools/wasnorm_wordpool_less_exclusions.txt	LTP161	ltpFR	2	4	1	CALF	222	n/a	n/a	1	0.422607421875	0.5869140625	0	upper	amplitud.ttf
512132	WORD	wordpools/wasnorm_wordpool_less_exclusions.txt	LTP161	ltpFR	2	4	1	WORLD	1622	n/a	n/a	1	0.422607421875	0.5869140625	0	upper	amplitud.ttf
516309	WORD	wordpools/wasnorm_wordpool_less_exclusions.txt	LTP161	ltpFR	2	4	1	LOOP	844	n/a	n/a	0	0.422607421875	0.5869140625	0	upper	amplitud.ttf
520437	WORD	wordpools/wasnorm_wordpool_less_exclusions.txt	LTP161	ltpFR	2	4	1	FRAGRANCE	599	n/a	n/a	0	0.422607421875	0.5869140625	0	upper	amplitud.ttf
524365	WORD	wordpools/wasnorm_wordpool_less_exclusions.txt	LTP161	ltpFR	2	4	1	BEAN	105	n/a	n/a	0	0.422607421875	0.5869140625	0	upper	amplitud.ttf
528392	WORD	wordpools/wasnorm_wordpool_less_exclusions.txt	LTP161	ltpFR	2	4	1	COOKBOOK	373	n/a	n/a	0	0.422607421875	0.5869140625	0	upper	amplitud.ttf
532268	WORD	wordpools/wasnorm_wordpool_less_exclusions.txt	LTP161	ltpFR	2	4	1	BARN	89	n/a	n/a	0	0.422607421875	0.5869140625	0	upper	amplitud.ttf
536380	WORD	wordpools/wasnorm_wordpool_less_exclusions.txt	LTP161	ltpFR	2	4	1	PELICAN	1039	n/a	n/a	1	0.422607421875	0.5869140625	0	upper	amplitud.ttf
540273	WORD	wordpools/wasnorm_wordpool_less_exclusions.txt	LTP161	ltpFR	2	4	1	TRASH	1497	n/a	n/a	0	0.422607421875	0.5869140625	0	upper	amplitud.ttf
544134	WORD	wordpools/wasnorm_wordpool_less_exclusions.txt	LTP161	ltpFR	2	4	1	KNUCKLE	789	n/a	n/a	0	0.422607421875	0.5869140625	0	upper	amplitud.ttf
548128	WORD	wordpools/wasnorm_wordpool_less_exclusions.txt	LTP161	ltpFR	2	4	1	FIST	572	n/a	n/a	0	0.422607421875	0.5869140625	0	upper	amplitud.ttf
552106	WORD	wordpools/wasnorm_wordpool_less_exclusions.txt	LTP161	ltpFR	2	4	1	CIGAR	308	n/a	n/a	0	0.422607421875	0.5869140625	0	upper	amplitud.ttf
556216	WORD	wordpools/wasnorm_wordpool_less_exclusions.txt	LTP161	ltpFR	2	4	1	PIGEON	1065	n/a	n/a	0	0.422607421875	0.5869140625	0	upper	amplitud.ttf
560427	WORD	wordpools/wasnorm_wordpool_less_exclusions.txt	LTP161	ltpFR	2	4	1	SLOPE	1328	n/a	n/a	0	0.422607421875	0.5869140625	0	upper	amplitud.ttf
566452	REC_START	n/a	LTP161	ltpFR	2	4	n/a	n/a	n/a	n/a	n/a	n/a	n/a	n/a	n/a	n/a	n/a
567449	REC_WORD	wordpools/wasnorm_wordpool_less_exclusions.txt	LTP161	ltpFR	2	4	1	PIGEON	1065	n/a	n/a	0	n/a	n/a	n/a	n/a	n/a
568621	REC_WORD	wordpools/wasnorm_wordpool_less_exclusions.txt	LTP161	ltpFR	2	4	1	SLOPE	1328	n/a	n/a	0	n/a	n/a	n/a	n/a	n/a
571091	REC_WORD	wordpools/wasnorm_wordpool_less_exclusions.txt	LTP161	ltpFR	2	4	1	LOOP	844	n/a	n/a	0	n/a	n/a	n/a	n/a	n/a
603857	REC_WORD	wordpools/wasnorm_wordpool_less_exclusions.txt	LTP161	ltpFR	2	4	1	WORLD	1622	n/a	n/a	1	n/a	n/a	n/a	n/a	n/a
649644	WORD	wordpools/wasnorm_wordpool_less_exclusions.txt	LTP161	ltpFR	2	5	1	CART	250	n/a	n/a	0	0.422607421875	0.5869140625	0	upper	amplitud.ttf
653655	WORD	wordpools/wasnorm_wordpool_less_exclusions.txt	LTP161	ltpFR	2	5	1	WALRUS	1585	n/a	n/a	1	0.422607421875	0.5869140625	0	upper	amplitud.ttf
657765	WORD	wordpools/wasnorm_wordpool_less_exclusions.txt	LTP161	ltpFR	2	5	0	PLANT	1083	n/a	n/a	0	0.57763671875	0.412841796875	1	lower	zerothre.ttf
661693	WORD	wordpools/wasnorm_wordpool_less_exclusions.txt	LTP161	ltpFR	2	5	0	LIZARD	834	n/a	n/a	0	0.57763671875	0.412841796875	1	lower	zerothre.ttf
665687	WORD	wordpools/wasnorm_wordpool_less_exclusions.txt	LTP161	ltpFR	2	5	0	STREAM	1392	n/a	n/a	1	0.57763671875	0.412841796875	1	lower	zerothre.ttf
669747	WORD	wordpools/wasnorm_wordpool_less_exclusions.txt	LTP161	ltpFR	2	5	1	CELERY	266	n/a	n/a	1	0.422607421875	0.5869140625	0	upper	amplitud.ttf
673791	WORD	wordpools/wasnorm_wordpool_less_exclusions.txt	LTP161	ltpFR	2	5	1	WORM	1623	n/a	n/a	1	0.422607421875	0.5869140625	0	upper	amplitud.ttf
677901	WORD	wordpools/wasnorm_wordpool_less_exclusions.txt	LTP161	ltpFR	2	5	0	TRACTOR	1493	n/a	n/a	1	0.57763671875	0.412841796875	1	lower	zerothre.ttf
682012	WORD	wordpools/wasnorm_wordpool_less_exclusions.txt	LTP161	ltpFR	2	5	0	BRIDGE	174	n/a	n/a	1	0.57763671875	0.412841796875	1	lower	zerothre.ttf
685939	WORD	wordpools/wasnorm_wordpool_less_exclusions.txt	LTP161	ltpFR	2	5	0	DAUGHTER	442	n/a	n/a	3	0.57763671875	0.412841796875	1	lower	zerothre.ttf
688052	KEY_MSG	n/a	LTP161	ltpFR	2	5	n/a	n/a	n/a	n/a	n/a	n/a	n/a	n/a	n/a	n/a	n/a
690783	WORD	wordpools/wasnorm_wordpool_less_exclusions.txt	LTP161	ltpFR	2	5	0	COD	340	n/a	n/a	1	0.57763671875	0.412841796875	1	lower	zerothre.ttf
694610	WORD	wordpools/wasnorm_wordpool_less_exclusions.txt	LTP161	ltpFR	2	5	0	MOSS	918	n/a	n/a	1	0.57763671875	0.412841796875	1	lower	zerothre.ttf
698721	WORD	wordpools/wasnorm_wordpool_less_exclusions.txt	LTP161	ltpFR	2	5	1	COSTUME	383	n/a	n/a	0	0.422607421875	0.5869140625	0	upper	amplitud.ttf
702864	WORD	wordpools/wasnorm_wordpool_less_exclusions.txt	LTP161	ltpFR	2	5	1	PARTY	1018	n/a	n/a	0	0.422607421875	0.5869140625	0	upper	amplitud.ttf
706726	WORD	wordpools/wasnorm_wordpool_less_exclusions.txt	LTP161	ltpFR	2	5	1	ARM	38	n/a	n/a	1	0.422607421875	0.5869140625	0	upper	amplitud.ttf
710570	WORD	wordpools/wasnorm_wordpool_less_exclusions.txt	LTP161	ltpFR	2	5	1	LIMB	822	n/a	n/a	0	0.422607421875	0.5869140625	0	upper	amplitud.ttf
716362	REC_START	n/a	LTP161	ltpFR	2	5	n/a	n/a	n/a	n/a	n/a	n/a	n/a	n/a	n/a	n/a	n/a
717604	REC_WORD	wordpools/wasnorm_wordpool_less_exclusions.txt	LTP161	ltpFR	2	5	1	COSTUME	383	n/a	n/a	0	n/a	n/a	n/a	n/a	n/a
718971	REC_WORD	wordpools/wasnorm_wordpool_less_exclusions.txt	LTP161	ltpFR	2	5	1	PARTY	1018	n/a	n/a	0	n/a	n/a	n/a	n/a	n/a
720737	REC_WORD	wordpools/wasnorm_wordpool_less_exclusions.txt	LTP161	ltpFR	2	5	1	ARM	38	n/a	n/a	1	n/a	n/a	n/a	n/a	n/a
722079	REC_WORD	wordpools/wasnorm_wordpool_less_exclusions.txt	LTP161	ltpFR	2	5	1	LIMB	822	n/a	n/a	0	n/a	n/a	n/a	n/a	n/a
737633	REC_WORD	wordpools/wasnorm_wordpool_less_exclusions.txt	LTP161	ltpFR	2	5	1	PIGEON	1065	n/a	n/a	0	n/a	n/a	n/a	n/a	n/a
739179	REC_WORD	wordpools/wasnorm_wordpool_less_exclusions.txt	LTP161	ltpFR	2	5	0	LIZARD	834	n/a	n/a	0	n/a	n/a	n/a	n/a	n/a
795941	WORD	wordpools/wasnorm_wordpool_less_exclusions.txt	LTP161	ltpFR	2	6	0	BONE	148	n/a	n/a	1	0.57763671875	0.412841796875	1	lower	zerothre.ttf
800168	WORD	wordpools/wasnorm_wordpool_less_exclusions.txt	LTP161	ltpFR	2	6	0	TROUT	1511	n/a	n/a	1	0.57763671875	0.412841796875	1	lower	zerothre.ttf
804079	WORD	wordpools/wasnorm_wordpool_less_exclusions.txt	LTP161	ltpFR	2	6	0	KNEE	784	n/a	n/a	1	0.57763671875	0.412841796875	1	lower	zerothre.ttf
808073	WORD	wordpools/wasnorm_wordpool_less_exclusions.txt	LTP161	ltpFR	2	6	0	GANG	619	n/a	n/a	1	0.57763671875	0.412841796875	1	lower	zerothre.ttf
811934	WORD	wordpools/wasnorm_wordpool_less_exclusions.txt	LTP161	ltpFR	2	6	0	ATMOSPHERE	54	n/a	n/a	1	0.57763671875	0.412841796875	1	lower	zerothre.ttf
815995	WORD	wordpools/wasnorm_wordpool_less_exclusions.txt	LTP161	ltpFR	2	6	0	DOG	480	n/a	n/a	1	0.57763671875	0.412841796875	1	lower	zerothre.ttf
819856	WORD	wordpools/wasnorm_wordpool_less_exclusions.txt	LTP161	ltpFR	2	6	1	CAFETERIA	217	n/a	n/a	0	0.422607421875	0.5869140625	0	upper	amplitud.ttf
823966	WORD	wordpools/wasnorm_wordpool_less_exclusions.txt	LTP161	ltpFR	2	6	1	SEAFOOD	1260	n/a	n/a	1	0.422607421875	0.5869140625	0	upper	amplitud.ttf
827894	WORD	wordpools/wasnorm_wordpool_less_exclusions.txt	LTP161	ltpFR	2	6	1	TURNIP	1521	n/a	n/a	0	0.422607421875	0.5869140625	0	upper	amplitud.ttf
831805	WORD	wordpools/wasnorm_wordpool_less_exclusions.txt	LTP161	ltpFR	2	6	1	BROCCOLI	176	n/a	n/a	0	0.422607421875	0.5869140625	0	upper	amplitud.ttf
835633	WORD	wordpools/wasnorm_wordpool_less_exclusions.txt	LTP161	ltpFR	2	6	1	THIMBLE	1458	n/a	n/a	0	0.422607421875	0.5869140625	0	upper	amplitud.ttf
839544	WORD	wordpools/wasnorm_wordpool_less_exclusions.txt	LTP161	ltpFR	2	6	1	HAYSTACK	694	n/a	n/a	0	0.422607421875	0.5869140625	0	upper	amplitud.ttf
843605	WORD	wordpools/wasnorm_wordpool_less_exclusions.txt	LTP161	ltpFR	2	6	0	POLE	1097	n/a	n/a	1	0.57763671875	0.412841796875	1	lower	zerothre.ttf
847797	WORD	wordpools/wasnorm_wordpool_less_exclusions.txt	LTP161	ltpFR	2	6	0	COYOTE	396	n/a	n/a	1	0.57763671875	0.412841796875	1	lower	zerothre.ttf
851858	WORD	wordpools/wasnorm_wordpool_less_exclusions.txt	LTP161	ltpFR	2	6	1	LOBSTER	837	n/a	n/a	0	0.422607421875	0.5869140625	0	upper	amplitud.ttf
856035	WORD	wordpools/wasnorm_wordpool_less_exclusions.txt	LTP161	ltpFR	2	6	1	OZONE	996	n/a	n/a	3	0.422607421875	0.5869140625	0	upper	amplitud.ttf
858265	KEY_MSG	n/a	LTP161	ltpFR	2	6	n/a	n/a	n/a	n/a	n/a	n/a	n/a	n/a	n/a	n/a	n/a
862510	REC_START	n/a	LTP161	ltpFR	2	6	n/a	n/a	n/a	n/a	n/a	n/a	n/a	n/a	n/a	n/a	n/a
864106	REC_WORD	wordpools/wasnorm_wordpool_less_exclusions.txt	LTP161	ltpFR	2	6	1	OZONE	996	n/a	n/a	3	n/a	n/a	n/a	n/a	n/a
865106	REC_WORD_VV	wordpools/wasnorm_wordpool_less_exclusions.txt	LTP161	ltpFR	2	6	n/a	<>	-1	n/a	n/a	n/a	n/a	n/a	n/a	n/a	n/a
865433	REC_WORD	wordpools/wasnorm_wordpool_less_exclusions.txt	LTP161	ltpFR	2	6	0	ATMOSPHERE	54	n/a	n/a	1	n/a	n/a	n/a	n/a	n/a
866433	REC_WORD_VV	wordpools/wasnorm_wordpool_less_exclusions.txt	LTP161	ltpFR	2	6	n/a	<>	-1	n/a	n/a	n/a	n/a	n/a	n/a	n/a	n/a
871045	REC_WORD	wordpools/wasnorm_wordpool_less_exclusions.txt	LTP161	ltpFR	2	6	0	COYOTE	396	n/a	n/a	1	n/a	n/a	n/a	n/a	n/a
872045	REC_WORD_VV	wordpools/wasnorm_wordpool_less_exclusions.txt	LTP161	ltpFR	2	6	n/a	<>	-1	n/a	n/a	n/a	n/a	n/a	n/a	n/a	n/a
952125	WORD	wordpools/wasnorm_wordpool_less_exclusions.txt	LTP161	ltpFR	2	7	-1	CITY	314	n/a	n/a	-1	1.0	1.0	1	upper	Verdana.ttf
956136	WORD	wordpools/wasnorm_wordpool_less_exclusions.txt	LTP161	ltpFR	2	7	-1	LAUNDRY	803	n/a	n/a	-1	1.0	1.0	1	upper	Verdana.ttf
960080	WORD	wordpools/wasnorm_wordpool_less_exclusions.txt	LTP161	ltpFR	2	7	-1	MUG	930	n/a	n/a	-1	1.0	1.0	1	upper	Verdana.ttf
964074	WORD	wordpools/wasnorm_wordpool_less_exclusions.txt	LTP161	ltpFR	2	7	-1	HOSE	720	n/a	n/a	-1	1.0	1.0	1	upper	Verdana.ttf
968034	WORD	wordpools/wasnorm_wordpool_less_exclusions.txt	LTP161	ltpFR	2	7	-1	EMPEROR	529	n/a	n/a	-1	1.0	1.0	1	upper	Verdana.ttf
972078	WORD	wordpools/wasnorm_wordpool_less_exclusions.txt	LTP161	ltpFR	2	7	-1	PUBLISHER	1137	n/a	n/a	-1	1.0	1.0	1	upper	Verdana.ttf
975923	WORD	wordpools/wasnorm_wordpool_less_exclusions.txt	LTP161	ltpFR	2	7	-1	WALNUT	1584	n/a	n/a	-1	1.0	1.0	1	upper	Verdana.ttf
979768	WORD	wordpools/wasnorm_wordpool_less_exclusions.txt	LTP161	ltpFR	2	7	-1	BLUEBERRY	140	n/a	n/a	-1	1.0	1.0	1	upper	Verdana.ttf
983762	WORD	wordpools/wasnorm_wordpool_less_exclusions.txt	LTP161	ltpFR	2	7	-1	COFFEE	341	n/a	n/a	-1	1.0	1.0	1	upper	Verdana.ttf
987789	WORD	wordpools/wasnorm_wordpool_less_exclusions.txt	LTP161	ltpFR	2	7	-1	CONTAINER	366	n/a	n/a	-1	1.0	1.0	1	upper	Verdana.ttf
991832	WORD	wordpools/wasnorm_wordpool_less_exclusions.txt	LTP161	ltpFR	2	7	-1	LITERATURE	831	n/a	n/a	-1	1.0	1.0	1	upper	Verdana.ttf
995711	WORD	wordpools/wasnorm_wordpool_less_exclusions.txt	LTP161	ltpFR	2	7	-1	JAR	750	n/a	n/a	-1	1.0	1.0	1	upper	Verdana.ttf
999605	WORD	wordpools/wasnorm_wordpool_less_exclusions.txt	LTP161	ltpFR	2	7	-1	PUMP	1141	n/a	n/a	-1	1.0	1.0	1	upper	Verdana.ttf
1003649	WORD	wordpools/wasnorm_wordpool_less_exclusions.txt	LTP161	ltpFR	2	7	-1	BLACKBERRY	132	n/a	n/a	-1	1.0	1.0	1	upper	Verdana.ttf
1007693	WORD	wordpools/wasnorm_wordpool_less_exclusions.txt	LTP161	ltpFR	2	7	-1	STRAWBERRY	1391	n/a	n/a	-1	1.0	1.0	1	upper	Verdana.ttf
1011554	WORD	wordpools/wasnorm_wordpool_less_exclusions.txt	LTP161	ltpFR	2	7	-1	ROOMMATE	1207	n/a	n/a	-1	1.0	1.0	1	upper	Verdana.ttf
1017178	REC_START	n/a	LTP161	ltpFR	2	7	n/a	n/a	n/a	n/a	n/a	n/a	n/a	n/a	n/a	n/a	n/a
1018964	REC_WORD	wordpools/wasnorm_wordpool_less_exclusions.txt	LTP161	ltpFR	2	7	-1	ROOMMATE	1207	n/a	n/a	-1	n/a	n/a	n/a	n/a	n/a
1019872	REC_WORD	wordpools/wasnorm_wordpool_less_exclusions.txt	LTP161	ltpFR	2	7	-1	BLACKBERRY	132	n/a	n/a	-1	n/a	n/a	n/a	n/a	n/a
1021493	REC_WORD	wordpools/wasnorm_wordpool_less_exclusions.txt	LTP161	ltpFR	2	7	-1	BLUEBERRY	140	n/a	n/a	-1	n/a	n/a	n/a	n/a	n/a
1022401	REC_WORD	wordpools/wasnorm_wordpool_less_exclusions.txt	LTP161	ltpFR	2	7	-1	STRAWBERRY	1391	n/a	n/a	-1	n/a	n/a	n/a	n/a	n/a
1023401	REC_WORD_VV	wordpools/wasnorm_wordpool_less_exclusions.txt	LTP161	ltpFR	2	7	n/a	<>	-1	n/a	n/a	n/a	n/a	n/a	n/a	n/a	n/a
1025594	REC_WORD	wordpools/wasnorm_wordpool_less_exclusions.txt	LTP161	ltpFR	2	7	-1	MUG	930	n/a	n/a	-1	n/a	n/a	n/a	n/a	n/a
1026591	REC_WORD	wordpools/wasnorm_wordpool_less_exclusions.txt	LTP161	ltpFR	2	7	-1	HOSE	720	n/a	n/a	-1	n/a	n/a	n/a	n/a	n/a
1031679	REC_WORD	wordpools/wasnorm_wordpool_less_exclusions.txt	LTP161	ltpFR	2	7	-1	CONTAINER	366	n/a	n/a	-1	n/a	n/a	n/a	n/a	n/a
1035890	REC_WORD	wordpools/wasnorm_wordpool_less_exclusions.txt	LTP161	ltpFR	2	7	-1	LITERATURE	831	n/a	n/a	-1	n/a	n/a	n/a	n/a	n/a
1039228	REC_WORD_VV	wordpools/wasnorm_wordpool_less_exclusions.txt	LTP161	ltpFR	2	7	n/a	<>	-1	n/a	n/a	n/a	n/a	n/a	n/a	n/a	n/a
1066690	REC_WORD	wordpools/wasnorm_wordpool_less_exclusions.txt	LTP161	ltpFR	2	7	-1	LAUNDRY	803	n/a	n/a	-1	n/a	n/a	n/a	n/a	n/a
1098624	WORD	wordpools/wasnorm_wordpool_less_exclusions.txt	LTP161	ltpFR	2	8	0	GREASE	660	n/a	n/a	0	0.57763671875	0.412841796875	1	lower	zerothre.ttf
1102634	WORD	wordpools/wasnorm_wordpool_less_exclusions.txt	LTP161	ltpFR	2	8	0	GLASSES	640	n/a	n/a	0	0.57763671875	0.412841796875	1	lower	zerothre.ttf
1106495	WORD	wordpools/wasnorm_wordpool_less_exclusions.txt	LTP161	ltpFR	2	8	0	LENS	811	n/a	n/a	0	0.57763671875	0.412841796875	1	lower	zerothre.ttf
1110356	WORD	wordpools/wasnorm_wordpool_less_exclusions.txt	LTP161	ltpFR	2	8	0	ICING	732	n/a	n/a	0	0.57763671875	0.412841796875	1	lower	zerothre.ttf
1114450	WORD	wordpools/wasnorm_wordpool_less_exclusions.txt	LTP161	ltpFR	2	8	0	TAPIOCA	1434	n/a	n/a	0	0.57763671875	0.412841796875	1	lower	zerothre.ttf
1118511	WORD	wordpools/wasnorm_wordpool_less_exclusions.txt	LTP161	ltpFR	2	8	0	HAMMER	680	n/a	n/a	1	0.57763671875	0.412841796875	1	lower	zerothre.ttf
1122471	WORD	wordpools/wasnorm_wordpool_less_exclusions.txt	LTP161	ltpFR	2	8	0	BEAVER	109	n/a	n/a	0	0.57763671875	0.412841796875	1	lower	zerothre.ttf
1126349	WORD	wordpools/wasnorm_wordpool_less_exclusions.txt	LTP161	ltpFR	2	8	0	CAKE	219	n/a	n/a	1	0.57763671875	0.412841796875	1	lower	zerothre.ttf
1130393	WORD	wordpools/wasnorm_wordpool_less_exclusions.txt	LTP161	ltpFR	2	8	0	SERGEANT	1269	n/a	n/a	1	0.57763671875	0.412841796875	1	lower	zerothre.ttf
1134387	WORD	wordpools/wasnorm_wordpool_less_exclusions.txt	LTP161	ltpFR	2	8	0	COMMANDER	354	n/a	n/a	1	0.57763671875	0.412841796875	1	lower	zerothre.ttf
1138214	WORD	wordpools/wasnorm_wordpool_less_exclusions.txt	LTP161	ltpFR	2	8	0	TREAD	1499	n/a	n/a	0	0.57763671875	0.412841796875	1	lower	zerothre.ttf
1142258	WORD	wordpools/wasnorm_wordpool_less_exclusions.txt	LTP161	ltpFR	2	8	0	LIST	830	n/a	n/a	1	0.57763671875	0.412841796875	1	lower	zerothre.ttf
1146202	WORD	wordpools/wasnorm_wordpool_less_exclusions.txt	LTP161	ltpFR	2	8	0	PAN	1008	n/a	n/a	1	0.57763671875	0.412841796875	1	lower	zerothre.ttf
1150363	WORD	wordpools/wasnorm_wordpool_less_exclusions.txt	LTP161	ltpFR	2	8	0	WATERFALL	1595	n/a	n/a	1	0.57763671875	0.412841796875	1	lower	zerothre.ttf
1154374	WORD	wordpools/wasnorm_wordpool_less_exclusions.txt	LTP161	ltpFR	2	8	0	BIOLOGIST	128	n/a	n/a	1	0.57763671875	0.412841796875	1	lower	zerothre.ttf
1158250	WORD	wordpools/wasnorm_wordpool_less_exclusions.txt	LTP161	ltpFR	2	8	0	WHEEL	1603	n/a	n/a	0	0.57763671875	0.412841796875	1	lower	zerothre.ttf
1164292	REC_START	n/a	LTP161	ltpFR	2	8	n/a	n/a	n/a	n/a	n/a	n/a	n/a	n/a	n/a	n/a	n/a
1167250	REC_WORD	wordpools/wasnorm_wordpool_less_exclusions.txt	LTP161	ltpFR	2	8	0	BIOLOGIST	128	n/a	n/a	1	n/a	n/a	n/a	n/a	n/a
1168250	REC_WORD_VV	wordpools/wasnorm_wordpool_less_exclusions.txt	LTP161	ltpFR	2	8	n/a	<>	-1	n/a	n/a	n/a	n/a	n/a	n/a	n/a	n/a
1200848	REC_WORD	wordpools/wasnorm_wordpool_less_exclusions.txt	LTP161	ltpFR	2	8	0	PAN	1008	n/a	n/a	1	n/a	n/a	n/a	n/a	n/a
1225278	REC_WORD	wordpools/wasnorm_wordpool_less_exclusions.txt	LTP161	ltpFR	2	8	0	LIST	830	n/a	n/a	1	n/a	n/a	n/a	n/a	n/a
1253292	WORD	wordpools/wasnorm_wordpool_less_exclusions.txt	LTP161	ltpFR	2	9	0	RELISH	1183	n/a	n/a	0	0.57763671875	0.412841796875	1	lower	zerothre.ttf
1257302	WORD	wordpools/wasnorm_wordpool_less_exclusions.txt	LTP161	ltpFR	2	9	0	DOUGH	489	n/a	n/a	0	0.57763671875	0.412841796875	1	lower	zerothre.ttf
1261414	WORD	wordpools/wasnorm_wordpool_less_exclusions.txt	LTP161	ltpFR	2	9	0	STICKER	1382	n/a	n/a	0	0.57763671875	0.412841796875	1	lower	zerothre.ttf
1265241	WORD	wordpools/wasnorm_wordpool_less_exclusions.txt	LTP161	ltpFR	2	9	0	PARROT	1015	n/a	n/a	1	0.57763671875	0.412841796875	1	lower	zerothre.ttf
1269068	WORD	wordpools/wasnorm_wordpool_less_exclusions.txt	LTP161	ltpFR	2	9	0	SAP	1233	n/a	n/a	0	0.57763671875	0.412841796875	1	lower	zerothre.ttf
1273029	WORD	wordpools/wasnorm_wordpool_less_exclusions.txt	LTP161	ltpFR	2	9	0	TILE	1468	n/a	n/a	0	0.57763671875	0.412841796875	1	lower	zerothre.ttf
1277239	WORD	wordpools/wasnorm_wordpool_less_exclusions.txt	LTP161	ltpFR	2	9	0	CHAUFFEUR	283	n/a	n/a	1	0.57763671875	0.412841796875	1	lower	zerothre.ttf
1281317	WORD	wordpools/wasnorm_wordpool_less_exclusions.txt	LTP161	ltpFR	2	9	0	BOOK	149	n/a	n/a	0	0.57763671875	0.412841796875	1	lower	zerothre.ttf
1285177	WORD	wordpools/wasnorm_wordpool_less_exclusions.txt	LTP161	ltpFR	2	9	0	ALMANAC	17	n/a	n/a	0	0.57763671875	0.412841796875	1	lower	zerothre.ttf
1289221	WORD	wordpools/wasnorm_wordpool_less_exclusions.txt	LTP161	ltpFR	2	9	0	HOME	712	n/a	n/a	0	0.57763671875	0.412841796875	1	lower	zerothre.ttf
1293099	WORD	wordpools/wasnorm_wordpool_less_exclusions.txt	LTP161	ltpFR	2	9	0	DORM	488	n/a	n/a	1	0.57763671875	0.412841796875	1	lower	zerothre.ttf
1296993	WORD	wordpools/wasnorm_wordpool_less_exclusions.txt	LTP161	ltpFR	2	9	0	PRAIRIE	1118	n/a	n/a	1	0.57763671875	0.412841796875	1	lower	zerothre.ttf
1300821	WORD	wordpools/wasnorm_wordpool_less_exclusions.txt	LTP161	ltpFR	2	9	0	KEEPER	769	n/a	n/a	1	0.57763671875	0.412841796875	1	lower	zerothre.ttf
1304831	WORD	wordpools/wasnorm_wordpool_less_exclusions.txt	LTP161	ltpFR	2	9	0	MUFFIN	929	n/a	n/a	0	0.57763671875	0.412841796875	1	lower	zerothre.ttf
1308959	WORD	wordpools/wasnorm_wordpool_less_exclusions.txt	LTP161	ltpFR	2	9	0	SANDWICH	1232	n/a	n/a	0	0.57763671875	0.412841796875	1	lower	zerothre.ttf
1313003	WORD	wordpools/wasnorm_wordpool_less_exclusions.txt	LTP161	ltpFR	2	9	0	DISHWASHER	475	n/a	n/a	1	0.57763671875	0.412841796875	1	lower	zerothre.ttf
1318679	REC_START	n/a	LTP161	ltpFR	2	9	n/a	n/a	n/a	n/a	n/a	n/a	n/a	n/a	n/a	n/a	n/a
1320614	REC_WORD	wordpools/wasnorm_wordpool_less_exclusions.txt	LTP161	ltpFR	2	9	0	MUFFIN	929	n/a	n/a	0	n/a	n/a	n/a	n/a	n/a
1322285	REC_WORD	wordpools/wasnorm_wordpool_less_exclusions.txt	LTP161	ltpFR	2	9	0	SANDWICH	1232	n/a	n/a	0	n/a	n/a	n/a	n/a	n/a
1324027	REC_WORD	wordpools/wasnorm_wordpool_less_exclusions.txt	LTP161	ltpFR	2	9	0	DOUGH	489	n/a	n/a	0	n/a	n/a	n/a	n/a	n/a
1337800	REC_WORD	wordpools/wasnorm_wordpool_less_exclusions.txt	LTP161	ltpFR	2	9	0	BOOK	149	n/a	n/a	0	n/a	n/a	n/a	n/a	n/a
1340692	REC_WORD_VV	wordpools/wasnorm_wordpool_less_exclusions.txt	LTP161	ltpFR	2	9	n/a	<>	-1	n/a	n/a	n/a	n/a	n/a	n/a	n/a	n/a
1351554	REC_WORD	wordpools/wasnorm_wordpool_less_exclusions.txt	LTP161	ltpFR	2	9	0	HOME	712	n/a	n/a	0	n/a	n/a	n/a	n/a	n/a
1353993	REC_WORD	wordpools/wasnorm_wordpool_less_exclusions.txt	LTP161	ltpFR	2	9	0	PRAIRIE	1118	n/a	n/a	1	n/a	n/a	n/a	n/a	n/a
1406714	WORD	wordpools/wasnorm_wordpool_less_exclusions.txt	LTP161	ltpFR	2	10	1	CHIPMUNK	304	n/a	n/a	0	0.422607421875	0.5869140625	0	upper	amplitud.ttf
1410708	WORD	wordpools/wasnorm_wordpool_less_exclusions.txt	LTP161	ltpFR	2	10	1	ELBOW	520	n/a	n/a	1	0.422607421875	0.5869140625	0	upper	amplitud.ttf
1414867	WORD	wordpools/wasnorm_wordpool_less_exclusions.txt	LTP161	ltpFR	2	10	1	SHED	1277	n/a	n/a	1	0.422607421875	0.5869140625	0	upper	amplitud.ttf
1418994	WORD	wordpools/wasnorm_wordpool_less_exclusions.txt	LTP161	ltpFR	2	10	1	SHORTS	1293	n/a	n/a	0	0.422607421875	0.5869140625	0	upper	amplitud.ttf
1422905	WORD	wordpools/wasnorm_wordpool_less_exclusions.txt	LTP161	ltpFR	2	10	1	VET	1560	n/a	n/a	1	0.422607421875	0.5869140625	0	upper	amplitud.ttf
1426849	WORD	wordpools/wasnorm_wordpool_less_exclusions.txt	LTP161	ltpFR	2	10	1	ATLAS	53	n/a	n/a	0	0.422607421875	0.5869140625	0	upper	amplitud.ttf
1430728	WORD	wordpools/wasnorm_wordpool_less_exclusions.txt	LTP161	ltpFR	2	10	1	NOTEBOOK	959	n/a	n/a	0	0.422607421875	0.5869140625	0	upper	amplitud.ttf
1434837	WORD	wordpools/wasnorm_wordpool_less_exclusions.txt	LTP161	ltpFR	2	10	1	ESSAY	540	n/a	n/a	0	0.422607421875	0.5869140625	0	upper	amplitud.ttf
1438848	WORD	wordpools/wasnorm_wordpool_less_exclusions.txt	LTP161	ltpFR	2	10	1	BANDANNA	80	n/a	n/a	0	0.422607421875	0.5869140625	0	upper	amplitud.ttf
1442875	WORD	wordpools/wasnorm_wordpool_less_exclusions.txt	LTP161	ltpFR	2	10	1	SQUIRREL	1362	n/a	n/a	1	0.422607421875	0.5869140625	0	upper	amplitud.ttf
1446853	WORD	wordpools/wasnorm_wordpool_less_exclusions.txt	LTP161	ltpFR	2	10	1	BUGGY	188	n/a	n/a	1	0.422607421875	0.5869140625	0	upper	amplitud.ttf
1450930	WORD	wordpools/wasnorm_wordpool_less_exclusions.txt	LTP161	ltpFR	2	10	1	COWBOY	395	n/a	n/a	1	0.422607421875	0.5869140625	0	upper	amplitud.ttf
1455041	WORD	wordpools/wasnorm_wordpool_less_exclusions.txt	LTP161	ltpFR	2	10	1	MULE	931	n/a	n/a	1	0.422607421875	0.5869140625	0	upper	amplitud.ttf
1459101	WORD	wordpools/wasnorm_wordpool_less_exclusions.txt	LTP161	ltpFR	2	10	1	SEAL	1262	n/a	n/a	1	0.422607421875	0.5869140625	0	upper	amplitud.ttf
1463045	WORD	wordpools/wasnorm_wordpool_less_exclusions.txt	LTP161	ltpFR	2	10	1	PATH	1023	n/a	n/a	0	0.422607421875	0.5869140625	0	upper	amplitud.ttf
1466889	WORD	wordpools/wasnorm_wordpool_less_exclusions.txt	LTP161	ltpFR	2	10	1	DOCK	477	n/a	n/a	0	0.422607421875	0.5869140625	0	upper	amplitud.ttf
1472699	REC_START	n/a	LTP161	ltpFR	2	10	n/a	n/a	n/a	n/a	n/a	n/a	n/a	n/a	n/a	n/a	n/a
1474719	REC_WORD	wordpools/wasnorm_wordpool_less_exclusions.txt	LTP161	ltpFR	2	10	1	DOCK	477	n/a	n/a	0	n/a	n/a	n/a	n/a	n/a
1476520	REC_WORD	wordpools/wasnorm_wordpool_less_exclusions.txt	LTP161	ltpFR	2	10	1	PATH	1023	n/a	n/a	0	n/a	n/a	n/a	n/a	n/a
1478261	REC_WORD	wordpools/wasnorm_wordpool_less_exclusions.txt	LTP161	ltpFR	2	10	1	BUGGY	188	n/a	n/a	1	n/a	n/a	n/a	n/a	n/a
1499886	REC_WORD	wordpools/wasnorm_wordpool_less_exclusions.txt	LTP161	ltpFR	2	10	1	CHIPMUNK	304	n/a	n/a	0	n/a	n/a	n/a	n/a	n/a
1507928	REC_WORD	wordpools/wasnorm_wordpool_less_exclusions.txt	LTP161	ltpFR	2	10	1	SEAL	1262	n/a	n/a	1	n/a	n/a	n/a	n/a	n/a
1526087	REC_WORD	wordpools/wasnorm_wordpool_less_exclusions.txt	LTP161	ltpFR	2	10	1	NOTEBOOK	959	n/a	n/a	0	n/a	n/a	n/a	n/a	n/a
1565243	WORD	wordpools/wasnorm_wordpool_less_exclusions.txt	LTP161	ltpFR	2	11	0	TIDE	1465	n/a	n/a	1	0.57763671875	0.412841796875	1	lower	zerothre.ttf
1569187	WORD	wordpools/wasnorm_wordpool_less_exclusions.txt	LTP161	ltpFR	2	11	0	CANAL	226	n/a	n/a	1	0.57763671875	0.412841796875	1	lower	zerothre.ttf
1573214	WORD	wordpools/wasnorm_wordpool_less_exclusions.txt	LTP161	ltpFR	2	11	0	POND	1101	n/a	n/a	1	0.57763671875	0.412841796875	1	lower	zerothre.ttf
1577208	WORD	wordpools/wasnorm_wordpool_less_exclusions.txt	LTP161	ltpFR	2	11	1	ONION	977	n/a	n/a	0	0.422607421875	0.5869140625	0	upper	amplitud.ttf
1581219	WORD	wordpools/wasnorm_wordpool_less_exclusions.txt	LTP161	ltpFR	2	11	1	GARLIC	624	n/a	n/a	0	0.422607421875	0.5869140625	0	upper	amplitud.ttf
1585229	WORD	wordpools/wasnorm_wordpool_less_exclusions.txt	LTP161	ltpFR	2	11	1	ALLIGATOR	16	n/a	n/a	1	0.422607421875	0.5869140625	0	upper	amplitud.ttf
1589240	WORD	wordpools/wasnorm_wordpool_less_exclusions.txt	LTP161	ltpFR	2	11	1	TEAPOT	1442	n/a	n/a	0	0.422607421875	0.5869140625	0	upper	amplitud.ttf
1593101	WORD	wordpools/wasnorm_wordpool_less_exclusions.txt	LTP161	ltpFR	2	11	0	KITTEN	780	n/a	n/a	1	0.57763671875	0.412841796875	1	lower	zerothre.ttf
1597045	WORD	wordpools/wasnorm_wordpool_less_exclusions.txt	LTP161	ltpFR	2	11	0	STOOL	1386	n/a	n/a	1	0.57763671875	0.412841796875	1	lower	zerothre.ttf
1601006	WORD	wordpools/wasnorm_wordpool_less_exclusions.txt	LTP161	ltpFR	2	11	1	TABLE	1426	n/a	n/a	0	0.422607421875	0.5869140625	0	upper	amplitud.ttf
1604933	WORD	wordpools/wasnorm_wordpool_less_exclusions.txt	LTP161	ltpFR	2	11	1	LAGOON	795	n/a	n/a	1	0.422607421875	0.5869140625	0	upper	amplitud.ttf
1608844	WORD	wordpools/wasnorm_wordpool_less_exclusions.txt	LTP161	ltpFR	2	11	1	RODENT	1204	n/a	n/a	0	0.422607421875	0.5869140625	0	upper	amplitud.ttf
1612838	WORD	wordpools/wasnorm_wordpool_less_exclusions.txt	LTP161	ltpFR	2	11	1	COP	376	n/a	n/a	1	0.422607421875	0.5869140625	0	upper	amplitud.ttf
1616982	WORD	wordpools/wasnorm_wordpool_less_exclusions.txt	LTP161	ltpFR	2	11	0	HERB	704	n/a	n/a	1	0.57763671875	0.412841796875	1	lower	zerothre.ttf
1620943	WORD	wordpools/wasnorm_wordpool_less_exclusions.txt	LTP161	ltpFR	2	11	0	KANGAROO	768	n/a	n/a	1	0.57763671875	0.412841796875	1	lower	zerothre.ttf
1625037	WORD	wordpools/wasnorm_wordpool_less_exclusions.txt	LTP161	ltpFR	2	11	0	DIAPER	459	n/a	n/a	0	0.57763671875	0.412841796875	1	lower	zerothre.ttf
1630713	REC_START	n/a	LTP161	ltpFR	2	11	n/a	n/a	n/a	n/a	n/a	n/a	n/a	n/a	n/a	n/a	n/a
1632134	REC_WORD	wordpools/wasnorm_wordpool_less_exclusions.txt	LTP161	ltpFR	2	11	0	KANGAROO	768	n/a	n/a	1	n/a	n/a	n/a	n/a	n/a
1634025	REC_WORD	wordpools/wasnorm_wordpool_less_exclusions.txt	LTP161	ltpFR	2	11	0	DIAPER	459	n/a	n/a	0	n/a	n/a	n/a	n/a	n/a
1642226	REC_WORD	wordpools/wasnorm_wordpool_less_exclusions.txt	LTP161	ltpFR	2	11	1	VET	1560	n/a	n/a	1	n/a	n/a	n/a	n/a	n/a
1704495	REC_WORD	wordpools/wasnorm_wordpool_less_exclusions.txt	LTP161	ltpFR	2	11	1	ALLIGATOR	16	n/a	n/a	1	n/a	n/a	n/a	n/a	n/a
1717333	WORD	wordpools/wasnorm_wordpool_less_exclusions.txt	LTP161	ltpFR	2	12	-1	FREEZER	604	n/a	n/a	-1	1.0	1.0	1	upper	Verdana.ttf
1721444	WORD	wordpools/wasnorm_wordpool_less_exclusions.txt	LTP161	ltpFR	2	12	-1	COOK	372	n/a	n/a	-1	1.0	1.0	1	upper	Verdana.ttf
1725637	WORD	wordpools/wasnorm_wordpool_less_exclusions.txt	LTP161	ltpFR	2	12	-1	RING	1193	n/a	n/a	-1	1.0	1.0	1	upper	Verdana.ttf
1729830	WORD	wordpools/wasnorm_wordpool_less_exclusions.txt	LTP161	ltpFR	2	12	-1	BACON	67	n/a	n/a	-1	1.0	1.0	1	upper	Verdana.ttf
1733759	WORD	wordpools/wasnorm_wordpool_less_exclusions.txt	LTP161	ltpFR	2	12	-1	MECHANIC	884	n/a	n/a	-1	1.0	1.0	1	upper	Verdana.ttf
1737719	WORD	wordpools/wasnorm_wordpool_less_exclusions.txt	LTP161	ltpFR	2	12	-1	HOOD	714	n/a	n/a	-1	1.0	1.0	1	upper	Verdana.ttf
1741895	WORD	wordpools/wasnorm_wordpool_less_exclusions.txt	LTP161	ltpFR	2	12	-1	CAB	209	n/a	n/a	-1	1.0	1.0	1	upper	Verdana.ttf
1745724	WORD	wordpools/wasnorm_wordpool_less_exclusions.txt	LTP161	ltpFR	2	12	-1	RESTAURANT	1187	n/a	n/a	-1	1.0	1.0	1	upper	Verdana.ttf
1749834	WORD	wordpools/wasnorm_wordpool_less_exclusions.txt	LTP161	ltpFR	2	12	-1	PARSLEY	1016	n/a	n/a	-1	1.0	1.0	1	upper	Verdana.ttf
1753878	WORD	wordpools/wasnorm_wordpool_less_exclusions.txt	LTP161	ltpFR	2	12	-1	TRAY	1498	n/a	n/a	-1	1.0	1.0	1	upper	Verdana.ttf
1758055	WORD	wordpools/wasnorm_wordpool_less_exclusions.txt	LTP161	ltpFR	2	12	-1	ICE	730	n/a	n/a	-1	1.0	1.0	1	upper	Verdana.ttf
1761916	WORD	wordpools/wasnorm_wordpool_less_exclusions.txt	LTP161	ltpFR	2	12	-1	IGLOO	734	n/a	n/a	-1	1.0	1.0	1	upper	Verdana.ttf
1765993	WORD	wordpools/wasnorm_wordpool_less_exclusions.txt	LTP161	ltpFR	2	12	-1	COOLER	375	n/a	n/a	-1	1.0	1.0	1	upper	Verdana.ttf
1769821	WORD	wordpools/wasnorm_wordpool_less_exclusions.txt	LTP161	ltpFR	2	12	-1	SERVANT	1271	n/a	n/a	-1	1.0	1.0	1	upper	Verdana.ttf
1773649	WORD	wordpools/wasnorm_wordpool_less_exclusions.txt	LTP161	ltpFR	2	12	-1	RULER	1216	n/a	n/a	-1	1.0	1.0	1	upper	Verdana.ttf
1777577	WORD	wordpools/wasnorm_wordpool_less_exclusions.txt	LTP161	ltpFR	2	12	-1	VALVE	1546	n/a	n/a	-1	1.0	1.0	1	upper	Verdana.ttf
1783284	REC_START	n/a	LTP161	ltpFR	2	12	n/a	n/a	n/a	n/a	n/a	n/a	n/a	n/a	n/a	n/a	n/a
1786230	REC_WORD_VV	wordpools/wasnorm_wordpool_less_exclusions.txt	LTP161	ltpFR	2	12	n/a	<>	-1	n/a	n/a	n/a	n/a	n/a	n/a	n/a	n/a
1786575	REC_WORD	wordpools/wasnorm_wordpool_less_exclusions.txt	LTP161	ltpFR	2	12	n/a	REFRIGERATOR	1179	n/a	n/a	n/a	n/a	n/a	n/a	n/a	n/a
1788901	REC_WORD	wordpools/wasnorm_wordpool_less_exclusions.txt	LTP161	ltpFR	2	12	n/a	ICECUBES	-1	n/a	n/a	n/a	n/a	n/a	n/a	n/a	n/a
1789901	REC_WORD_VV	wordpools/wasnorm_wordpool_less_exclusions.txt	LTP161	ltpFR	2	12	n/a	<>	-1	n/a	n/a	n/a	n/a	n/a	n/a	n/a	n/a
1790477	REC_WORD	wordpools/wasnorm_wordpool_less_exclusions.txt	LTP161	ltpFR	2	12	-1	TRAY	1498	n/a	n/a	-1	n/a	n/a	n/a	n/a	n/a
1791635	REC_WORD	wordpools/wasnorm_wordpool_less_exclusions.txt	LTP161	ltpFR	2	12	n/a	CHEF	290	n/a	n/a	n/a	n/a	n/a	n/a	n/a	n/a
1793788	REC_WORD_VV	wordpools/wasnorm_wordpool_less_exclusions.txt	LTP161	ltpFR	2	12	n/a	<>	-1	n/a	n/a	n/a	n/a	n/a	n/a	n/a	n/a
1858871	REST_REWET	n/a	LTP161	ltpFR	2	12	n/a	n/a	n/a	n/a	n/a	n/a	n/a	n/a	n/a	n/a	n/a
2222479	WORD	wordpools/wasnorm_wordpool_less_exclusions.txt	LTP161	ltpFR	2	13	-1	LIVER	833	n/a	n/a	-1	1.0	1.0	1	upper	Verdana.ttf
2226539	WORD	wordpools/wasnorm_wordpool_less_exclusions.txt	LTP161	ltpFR	2	13	-1	BANKER	84	n/a	n/a	-1	1.0	1.0	1	upper	Verdana.ttf
2230417	WORD	wordpools/wasnorm_wordpool_less_exclusions.txt	LTP161	ltpFR	2	13	-1	COTTAGE	384	n/a	n/a	-1	1.0	1.0	1	upper	Verdana.ttf
2234310	WORD	wordpools/wasnorm_wordpool_less_exclusions.txt	LTP161	ltpFR	2	13	-1	BASEMENT	94	n/a	n/a	-1	1.0	1.0	1	upper	Verdana.ttf
2238472	WORD	wordpools/wasnorm_wordpool_less_exclusions.txt	LTP161	ltpFR	2	13	-1	MEADOW	881	n/a	n/a	-1	1.0	1.0	1	upper	Verdana.ttf
2242449	WORD	wordpools/wasnorm_wordpool_less_exclusions.txt	LTP161	ltpFR	2	13	-1	BILL	126	n/a	n/a	-1	1.0	1.0	1	upper	Verdana.ttf
2246643	WORD	wordpools/wasnorm_wordpool_less_exclusions.txt	LTP161	ltpFR	2	13	-1	VAULT	1550	n/a	n/a	-1	1.0	1.0	1	upper	Verdana.ttf
2250537	WORD	wordpools/wasnorm_wordpool_less_exclusions.txt	LTP161	ltpFR	2	13	-1	ROCK	1201	n/a	n/a	-1	1.0	1.0	1	upper	Verdana.ttf
2254664	WORD	wordpools/wasnorm_wordpool_less_exclusions.txt	LTP161	ltpFR	2	13	-1	FORT	595	n/a	n/a	-1	1.0	1.0	1	upper	Verdana.ttf
2258625	WORD	wordpools/wasnorm_wordpool_less_exclusions.txt	LTP161	ltpFR	2	13	-1	NEWSSTAND	949	n/a	n/a	-1	1.0	1.0	1	upper	Verdana.ttf
2262719	WORD	wordpools/wasnorm_wordpool_less_exclusions.txt	LTP161	ltpFR	2	13	-1	ARTICLE	42	n/a	n/a	-1	1.0	1.0	1	upper	Verdana.ttf
2266746	WORD	wordpools/wasnorm_wordpool_less_exclusions.txt	LTP161	ltpFR	2	13	-1	YARD	1630	n/a	n/a	-1	1.0	1.0	1	upper	Verdana.ttf
2270955	WORD	wordpools/wasnorm_wordpool_less_exclusions.txt	LTP161	ltpFR	2	13	-1	DINNER	468	n/a	n/a	-1	1.0	1.0	1	upper	Verdana.ttf
2274966	WORD	wordpools/wasnorm_wordpool_less_exclusions.txt	LTP161	ltpFR	2	13	-1	FRIAR	605	n/a	n/a	-1	1.0	1.0	1	upper	Verdana.ttf
2279177	WORD	wordpools/wasnorm_wordpool_less_exclusions.txt	LTP161	ltpFR	2	13	-1	HIGHWAY	707	n/a	n/a	-1	1.0	1.0	1	upper	Verdana.ttf
2283338	WORD	wordpools/wasnorm_wordpool_less_exclusions.txt	LTP161	ltpFR	2	13	-1	BOULEVARD	156	n/a	n/a	-1	1.0	1.0	1	upper	Verdana.ttf
2289212	REC_START	n/a	LTP161	ltpFR	2	13	n/a	n/a	n/a	n/a	n/a	n/a	n/a	n/a	n/a	n/a	n/a
2290579	REC_WORD	wordpools/wasnorm_wordpool_less_exclusions.txt	LTP161	ltpFR	2	13	-1	BOULEVARD	156	n/a	n/a	-1	n/a	n/a	n/a	n/a	n/a
2292724	REC_WORD	wordpools/wasnorm_wordpool_less_exclusions.txt	LTP161	ltpFR	2	13	-1	ARTICLE	42	n/a	n/a	-1	n/a	n/a	n/a	n/a	n/a
2293724	REC_WORD_VV	wordpools/wasnorm_wordpool_less_exclusions.txt	LTP161	ltpFR	2	13	n/a	<>	-1	n/a	n/a	n/a	n/a	n/a	n/a	n/a	n/a
2295348	REC_WORD	wordpools/wasnorm_wordpool_less_exclusions.txt	LTP161	ltpFR	2	13	-1	DINNER	468	n/a	n/a	-1	n/a	n/a	n/a	n/a	n/a
2297079	REC_WORD	wordpools/wasnorm_wordpool_less_exclusions.txt	LTP161	ltpFR	2	13	-1	YARD	1630	n/a	n/a	-1	n/a	n/a	n/a	n/a	n/a
2299578	REC_WORD	wordpools/wasnorm_wordpool_less_exclusions.txt	LTP161	ltpFR	2	13	-1	BASEMENT	94	n/a	n/a	-1	n/a	n/a	n/a	n/a	n/a
2302018	REC_WORD	wordpools/wasnorm_wordpool_less_exclusions.txt	LTP161	ltpFR	2	13	-1	VAULT	1550	n/a	n/a	-1	n/a	n/a	n/a	n/a	n/a
2316240	REC_WORD	wordpools/wasnorm_wordpool_less_exclusions.txt	LTP161	ltpFR	2	13	-1	HIGHWAY	707	n/a	n/a	-1	n/a	n/a	n/a	n/a	n/a
2321323	REC_WORD	wordpools/wasnorm_wordpool_less_exclusions.txt	LTP161	ltpFR	2	13	-1	FORT	595	n/a	n/a	-1	n/a	n/a	n/a	n/a	n/a
2323489	REC_WORD	wordpools/wasnorm_wordpool_less_exclusions.txt	LTP161	ltpFR	2	13	-1	MEADOW	881	n/a	n/a	-1	n/a	n/a	n/a	n/a	n/a
2336604	REC_WORD	wordpools/wasnorm_wordpool_less_exclusions.txt	LTP161	ltpFR	2	13	-1	FRIAR	605	n/a	n/a	-1	n/a	n/a	n/a	n/a	n/a
2374568	WORD	wordpools/wasnorm_wordpool_less_exclusions.txt	LTP161	ltpFR	2	14	-1	BUILDER	190	n/a	n/a	-1	1.0	1.0	1	upper	Verdana.ttf
2378513	WORD	wordpools/wasnorm_wordpool_less_exclusions.txt	LTP161	ltpFR	2	14	-1	OX	994	n/a	n/a	-1	1.0	1.0	1	upper	Verdana.ttf
2382357	WORD	wordpools/wasnorm_wordpool_less_exclusions.txt	LTP161	ltpFR	2	14	-1	PANTHER	1009	n/a	n/a	-1	1.0	1.0	1	upper	Verdana.ttf
2386283	WORD	wordpools/wasnorm_wordpool_less_exclusions.txt	LTP161	ltpFR	2	14	-1	SUPERMARKET	1409	n/a	n/a	-1	1.0	1.0	1	upper	Verdana.ttf
2390495	WORD	wordpools/wasnorm_wordpool_less_exclusions.txt	LTP161	ltpFR	2	14	-1	ANKLE	24	n/a	n/a	-1	1.0	1.0	1	upper	Verdana.ttf
2394322	WORD	wordpools/wasnorm_wordpool_less_exclusions.txt	LTP161	ltpFR	2	14	-1	TELEVISION	1447	n/a	n/a	-1	1.0	1.0	1	upper	Verdana.ttf
2398483	WORD	wordpools/wasnorm_wordpool_less_exclusions.txt	LTP161	ltpFR	2	14	-1	CHEEK	287	n/a	n/a	-1	1.0	1.0	1	upper	Verdana.ttf
2402443	WORD	wordpools/wasnorm_wordpool_less_exclusions.txt	LTP161	ltpFR	2	14	-1	COMB	351	n/a	n/a	-1	1.0	1.0	1	upper	Verdana.ttf
2406287	WORD	wordpools/wasnorm_wordpool_less_exclusions.txt	LTP161	ltpFR	2	14	-1	RIBBON	1189	n/a	n/a	-1	1.0	1.0	1	upper	Verdana.ttf
2410348	WORD	wordpools/wasnorm_wordpool_less_exclusions.txt	LTP161	ltpFR	2	14	-1	SPONGE	1355	n/a	n/a	-1	1.0	1.0	1	upper	Verdana.ttf
2414241	WORD	wordpools/wasnorm_wordpool_less_exclusions.txt	LTP161	ltpFR	2	14	-1	PUB	1135	n/a	n/a	-1	1.0	1.0	1	upper	Verdana.ttf
2418370	WORD	wordpools/wasnorm_wordpool_less_exclusions.txt	LTP161	ltpFR	2	14	-1	BROOK	177	n/a	n/a	-1	1.0	1.0	1	upper	Verdana.ttf
2422464	WORD	wordpools/wasnorm_wordpool_less_exclusions.txt	LTP161	ltpFR	2	14	-1	LAKE	796	n/a	n/a	-1	1.0	1.0	1	upper	Verdana.ttf
2426408	WORD	wordpools/wasnorm_wordpool_less_exclusions.txt	LTP161	ltpFR	2	14	-1	PASTRY	1022	n/a	n/a	-1	1.0	1.0	1	upper	Verdana.ttf
2430317	WORD	wordpools/wasnorm_wordpool_less_exclusions.txt	LTP161	ltpFR	2	14	-1	TANK	1432	n/a	n/a	-1	1.0	1.0	1	upper	Verdana.ttf
2434529	WORD	wordpools/wasnorm_wordpool_less_exclusions.txt	LTP161	ltpFR	2	14	-1	BUILDING	191	n/a	n/a	-1	1.0	1.0	1	upper	Verdana.ttf
2440570	REC_START	n/a	LTP161	ltpFR	2	14	n/a	n/a	n/a	n/a	n/a	n/a	n/a	n/a	n/a	n/a	n/a
2441912	REC_WORD	wordpools/wasnorm_wordpool_less_exclusions.txt	LTP161	ltpFR	2	14	-1	BUILDING	191	n/a	n/a	-1	n/a	n/a	n/a	n/a	n/a
2443209	REC_WORD	wordpools/wasnorm_wordpool_less_exclusions.txt	LTP161	ltpFR	2	14	-1	TANK	1432	n/a	n/a	-1	n/a	n/a	n/a	n/a	n/a
2444845	REC_WORD	wordpools/wasnorm_wordpool_less_exclusions.txt	LTP161	ltpFR	2	14	-1	BROOK	177	n/a	n/a	-1	n/a	n/a	n/a	n/a	n/a
2447040	REC_WORD	wordpools/wasnorm_wordpool_less_exclusions.txt	LTP161	ltpFR	2	14	-1	PASTRY	1022	n/a	n/a	-1	n/a	n/a	n/a	n/a	n/a
2449544	REC_WORD	wordpools/wasnorm_wordpool_less_exclusions.txt	LTP161	ltpFR	2	14	-1	SUPERMARKET	1409	n/a	n/a	-1	n/a	n/a	n/a	n/a	n/a
2450544	REC_WORD_VV	wordpools/wasnorm_wordpool_less_exclusions.txt	LTP161	ltpFR	2	14	n/a	<>	-1	n/a	n/a	n/a	n/a	n/a	n/a	n/a	n/a
2466680	REC_WORD	wordpools/wasnorm_wordpool_less_exclusions.txt	LTP161	ltpFR	2	14	-1	ANKLE	24	n/a	n/a	-1	n/a	n/a	n/a	n/a	n/a
2470342	REC_WORD	wordpools/wasnorm_wordpool_less_exclusions.txt	LTP161	ltpFR	2	14	-1	CHEEK	287	n/a	n/a	-1	n/a	n/a	n/a	n/a	n/a
2472512	REC_WORD	wordpools/wasnorm_wordpool_less_exclusions.txt	LTP161	ltpFR	2	14	-1	TELEVISION	1447	n/a	n/a	-1	n/a	n/a	n/a	n/a	n/a
2520133	WORD	wordpools/wasnorm_wordpool_less_exclusions.txt	LTP161	ltpFR	2	15	0	CAMERA	224	n/a	n/a	0	0.57763671875	0.412841796875	1	lower	zerothre.ttf
2524044	WORD	wordpools/wasnorm_wordpool_less_exclusions.txt	LTP161	ltpFR	2	15	0	WHIP	1604	n/a	n/a	0	0.57763671875	0.412841796875	1	lower	zerothre.ttf
2528005	WORD	wordpools/wasnorm_wordpool_less_exclusions.txt	LTP161	ltpFR	2	15	0	REINDEER	1181	n/a	n/a	1	0.57763671875	0.412841796875	1	lower	zerothre.ttf
2532065	WORD	wordpools/wasnorm_wordpool_less_exclusions.txt	LTP161	ltpFR	2	15	0	ANTELOPE	27	n/a	n/a	1	0.57763671875	0.412841796875	1	lower	zerothre.ttf
2536193	WORD	wordpools/wasnorm_wordpool_less_exclusions.txt	LTP161	ltpFR	2	15	0	HERD	705	n/a	n/a	1	0.57763671875	0.412841796875	1	lower	zerothre.ttf
2540253	WORD	wordpools/wasnorm_wordpool_less_exclusions.txt	LTP161	ltpFR	2	15	0	RAM	1165	n/a	n/a	1	0.57763671875	0.412841796875	1	lower	zerothre.ttf
2544431	WORD	wordpools/wasnorm_wordpool_less_exclusions.txt	LTP161	ltpFR	2	15	0	BOYFRIEND	162	n/a	n/a	1	0.57763671875	0.412841796875	1	lower	zerothre.ttf
2548658	WORD	wordpools/wasnorm_wordpool_less_exclusions.txt	LTP161	ltpFR	2	15	0	FIDDLE	561	n/a	n/a	1	0.57763671875	0.412841796875	1	lower	zerothre.ttf
2552702	WORD	wordpools/wasnorm_wordpool_less_exclusions.txt	LTP161	ltpFR	2	15	0	VENUS	1557	n/a	n/a	1	0.57763671875	0.412841796875	1	lower	zerothre.ttf
2556763	WORD	wordpools/wasnorm_wordpool_less_exclusions.txt	LTP161	ltpFR	2	15	0	REFRIGERATOR	1179	n/a	n/a	1	0.57763671875	0.412841796875	1	lower	zerothre.ttf
2560790	WORD	wordpools/wasnorm_wordpool_less_exclusions.txt	LTP161	ltpFR	2	15	0	SAUSAGE	1238	n/a	n/a	1	0.57763671875	0.412841796875	1	lower	zerothre.ttf
2564668	WORD	wordpools/wasnorm_wordpool_less_exclusions.txt	LTP161	ltpFR	2	15	0	SLEEVE	1324	n/a	n/a	0	0.57763671875	0.412841796875	1	lower	zerothre.ttf
2568662	WORD	wordpools/wasnorm_wordpool_less_exclusions.txt	LTP161	ltpFR	2	15	0	VEST	1559	n/a	n/a	1	0.57763671875	0.412841796875	1	lower	zerothre.ttf
2572489	WORD	wordpools/wasnorm_wordpool_less_exclusions.txt	LTP161	ltpFR	2	15	0	MICROWAVE	892	n/a	n/a	1	0.57763671875	0.412841796875	1	lower	zerothre.ttf
2576550	WORD	wordpools/wasnorm_wordpool_less_exclusions.txt	LTP161	ltpFR	2	15	0	CARNIVAL	245	n/a	n/a	1	0.57763671875	0.412841796875	1	lower	zerothre.ttf
2580661	WORD	wordpools/wasnorm_wordpool_less_exclusions.txt	LTP161	ltpFR	2	15	0	SATURN	1236	n/a	n/a	1	0.57763671875	0.412841796875	1	lower	zerothre.ttf
2586536	REC_START	n/a	LTP161	ltpFR	2	15	n/a	n/a	n/a	n/a	n/a	n/a	n/a	n/a	n/a	n/a	n/a
2587648	REC_WORD	wordpools/wasnorm_wordpool_less_exclusions.txt	LTP161	ltpFR	2	15	0	SATURN	1236	n/a	n/a	1	n/a	n/a	n/a	n/a	n/a
2588531	REC_WORD	wordpools/wasnorm_wordpool_less_exclusions.txt	LTP161	ltpFR	2	15	0	VENUS	1557	n/a	n/a	1	n/a	n/a	n/a	n/a	n/a
2589459	REC_WORD	wordpools/wasnorm_wordpool_less_exclusions.txt	LTP161	ltpFR	2	15	0	CARNIVAL	245	n/a	n/a	1	n/a	n/a	n/a	n/a	n/a
2594513	REC_WORD	wordpools/wasnorm_wordpool_less_exclusions.txt	LTP161	ltpFR	2	15	0	MICROWAVE	892	n/a	n/a	1	n/a	n/a	n/a	n/a	n/a
2595520	REC_WORD	wordpools/wasnorm_wordpool_less_exclusions.txt	LTP161	ltpFR	2	15	0	REFRIGERATOR	1179	n/a	n/a	1	n/a	n/a	n/a	n/a	n/a
2596520	REC_WORD_VV	wordpools/wasnorm_wordpool_less_exclusions.txt	LTP161	ltpFR	2	15	n/a	<>	-1	n/a	n/a	n/a	n/a	n/a	n/a	n/a	n/a
2598628	REC_WORD	wordpools/wasnorm_wordpool_less_exclusions.txt	LTP161	ltpFR	2	15	0	REINDEER	1181	n/a	n/a	1	n/a	n/a	n/a	n/a	n/a
2599628	REC_WORD_VV	wordpools/wasnorm_wordpool_less_exclusions.txt	LTP161	ltpFR	2	15	n/a	<>	-1	n/a	n/a	n/a	n/a	n/a	n/a	n/a	n/a
2606401	REC_WORD	wordpools/wasnorm_wordpool_less_exclusions.txt	LTP161	ltpFR	2	15	0	VEST	1559	n/a	n/a	1	n/a	n/a	n/a	n/a	n/a
2607138	REC_WORD	wordpools/wasnorm_wordpool_less_exclusions.txt	LTP161	ltpFR	2	15	0	SLEEVE	1324	n/a	n/a	0	n/a	n/a	n/a	n/a	n/a
2641705	REC_WORD	wordpools/wasnorm_wordpool_less_exclusions.txt	LTP161	ltpFR	2	15	0	SAUSAGE	1238	n/a	n/a	1	n/a	n/a	n/a	n/a	n/a
2651393	REC_WORD	wordpools/wasnorm_wordpool_less_exclusions.txt	LTP161	ltpFR	2	15	0	BOYFRIEND	162	n/a	n/a	1	n/a	n/a	n/a	n/a	n/a
2679129	WORD	wordpools/wasnorm_wordpool_less_exclusions.txt	LTP161	ltpFR	2	16	1	CONSOLE	364	n/a	n/a	1	0.422607421875	0.5869140625	0	upper	amplitud.ttf
2683057	WORD	wordpools/wasnorm_wordpool_less_exclusions.txt	LTP161	ltpFR	2	16	1	PRINTER	1126	n/a	n/a	0	0.422607421875	0.5869140625	0	upper	amplitud.ttf
2687234	WORD	wordpools/wasnorm_wordpool_less_exclusions.txt	LTP161	ltpFR	2	16	1	MAN	862	n/a	n/a	1	0.422607421875	0.5869140625	0	upper	amplitud.ttf
2691095	WORD	wordpools/wasnorm_wordpool_less_exclusions.txt	LTP161	ltpFR	2	16	1	FELLOW	558	n/a	n/a	1	0.422607421875	0.5869140625	0	upper	amplitud.ttf
2695055	WORD	wordpools/wasnorm_wordpool_less_exclusions.txt	LTP161	ltpFR	2	16	1	YACHT	1629	n/a	n/a	0	0.422607421875	0.5869140625	0	upper	amplitud.ttf
2699166	WORD	wordpools/wasnorm_wordpool_less_exclusions.txt	LTP161	ltpFR	2	16	1	HAY	693	n/a	n/a	0	0.422607421875	0.5869140625	0	upper	amplitud.ttf
2703093	WORD	wordpools/wasnorm_wordpool_less_exclusions.txt	LTP161	ltpFR	2	16	1	DYNAMITE	511	n/a	n/a	0	0.422607421875	0.5869140625	0	upper	amplitud.ttf
2707254	WORD	wordpools/wasnorm_wordpool_less_exclusions.txt	LTP161	ltpFR	2	16	1	VINEGAR	1569	n/a	n/a	0	0.422607421875	0.5869140625	0	upper	amplitud.ttf
2711131	WORD	wordpools/wasnorm_wordpool_less_exclusions.txt	LTP161	ltpFR	2	16	1	STORE	1387	n/a	n/a	0	0.422607421875	0.5869140625	0	upper	amplitud.ttf
2715126	WORD	wordpools/wasnorm_wordpool_less_exclusions.txt	LTP161	ltpFR	2	16	1	WELL	1600	n/a	n/a	0	0.422607421875	0.5869140625	0	upper	amplitud.ttf
2718970	WORD	wordpools/wasnorm_wordpool_less_exclusions.txt	LTP161	ltpFR	2	16	1	TUNA	1518	n/a	n/a	1	0.422607421875	0.5869140625	0	upper	amplitud.ttf
2722964	WORD	wordpools/wasnorm_wordpool_less_exclusions.txt	LTP161	ltpFR	2	16	1	SHRIMP	1297	n/a	n/a	1	0.422607421875	0.5869140625	0	upper	amplitud.ttf
2726808	WORD	wordpools/wasnorm_wordpool_less_exclusions.txt	LTP161	ltpFR	2	16	1	SEA	1259	n/a	n/a	0	0.422607421875	0.5869140625	0	upper	amplitud.ttf
2730637	WORD	wordpools/wasnorm_wordpool_less_exclusions.txt	LTP161	ltpFR	2	16	1	POOL	1103	n/a	n/a	0	0.422607421875	0.5869140625	0	upper	amplitud.ttf
2734597	WORD	wordpools/wasnorm_wordpool_less_exclusions.txt	LTP161	ltpFR	2	16	1	PAWN	1030	n/a	n/a	0	0.422607421875	0.5869140625	0	upper	amplitud.ttf
2738741	WORD	wordpools/wasnorm_wordpool_less_exclusions.txt	LTP161	ltpFR	2	16	1	GORILLA	650	n/a	n/a	1	0.422607421875	0.5869140625	0	upper	amplitud.ttf
2744383	REC_START	n/a	LTP161	ltpFR	2	16	n/a	n/a	n/a	n/a	n/a	n/a	n/a	n/a	n/a	n/a	n/a
2746089	REC_WORD	wordpools/wasnorm_wordpool_less_exclusions.txt	LTP161	ltpFR	2	16	1	GORILLA	650	n/a	n/a	1	n/a	n/a	n/a	n/a	n/a
2747147	REC_WORD	wordpools/wasnorm_wordpool_less_exclusions.txt	LTP161	ltpFR	2	16	1	PAWN	1030	n/a	n/a	0	n/a	n/a	n/a	n/a	n/a
2748628	REC_WORD	wordpools/wasnorm_wordpool_less_exclusions.txt	LTP161	ltpFR	2	16	1	TUNA	1518	n/a	n/a	1	n/a	n/a	n/a	n/a	n/a
2749655	REC_WORD	wordpools/wasnorm_wordpool_less_exclusions.txt	LTP161	ltpFR	2	16	1	SHRIMP	1297	n/a	n/a	1	n/a	n/a	n/a	n/a	n/a
2751487	REC_WORD	wordpools/wasnorm_wordpool_less_exclusions.txt	LTP161	ltpFR	2	16	1	WELL	1600	n/a	n/a	0	n/a	n/a	n/a	n/a	n/a
2755567	REC_WORD	wordpools/wasnorm_wordpool_less_exclusions.txt	LTP161	ltpFR	2	16	1	MAN	862	n/a	n/a	1	n/a	n/a	n/a	n/a	n/a
2756111	REC_WORD	wordpools/wasnorm_wordpool_less_exclusions.txt	LTP161	ltpFR	2	16	1	FELLOW	558	n/a	n/a	1	n/a	n/a	n/a	n/a	n/a
2757892	REC_WORD	wordpools/wasnorm_wordpool_less_exclusions.txt	LTP161	ltpFR	2	16	1	PRINTER	1126	n/a	n/a	0	n/a	n/a	n/a	n/a	n/a
2758436	REC_WORD	wordpools/wasnorm_wordpool_less_exclusions.txt	LTP161	ltpFR	2	16	1	CONSOLE	364	n/a	n/a	1	n/a	n/a	n/a	n/a	n/a
2765151	REC_WORD	wordpools/wasnorm_wordpool_less_exclusions.txt	LTP161	ltpFR	2	16	1	DYNAMITE	511	n/a	n/a	0	n/a	n/a	n/a	n/a	n/a
2857631	REC_START	n/a	LTP161	ltpFR	2	1	n/a	n/a	n/a	n/a	n/a	n/a	n/a	n/a	n/a	n/a	n/a
2857664	RECOG_TARGET	n/a	LTP161	ltpFR	2	1	-1	COMB	351	1	3	-1	n/a	n/a	n/a	n/a	n/a
2860369	RECOG_RESP	n/a	LTP161	ltpFR	2	1	-1	COMB	351	1	n/a	-1	n/a	n/a	n/a	n/a	n/a
2862914	RECOG_CONF	n/a	LTP161	ltpFR	2	1	-1	COMB	351	n/a	3	-1	n/a	n/a	n/a	n/a	n/a
2864835	RECOG_TARGET	n/a	LTP161	ltpFR	2	1	-1	PASTRY	1022	1	5	-1	n/a	n/a	n/a	n/a	n/a
2865642	RECOG_RESP	n/a	LTP161	ltpFR	2	1	-1	PASTRY	1022	1	n/a	-1	n/a	n/a	n/a	n/a	n/a
2867084	RECOG_CONF	n/a	LTP161	ltpFR	2	1	-1	PASTRY	1022	n/a	5	-1	n/a	n/a	n/a	n/a	n/a
2868979	RECOG_LURE	n/a	LTP161	ltpFR	2	1	n/a	TAXI	1438	0	4	n/a	n/a	n/a	n/a	n/a	n/a
2871594	RECOG_RESP	n/a	LTP161	ltpFR	2	1	n/a	TAXI	1438	0	n/a	n/a	n/a	n/a	n/a	n/a	n/a
2872810	RECOG_CONF	n/a	LTP161	ltpFR	2	1	n/a	TAXI	1438	n/a	4	n/a	n/a	n/a	n/a	n/a	n/a
2874721	RECOG_LURE	n/a	LTP161	ltpFR	2	1	n/a	FLEA	577	0	1	n/a	n/a	n/a	n/a	n/a	n/a
2875786	RECOG_RESP	n/a	LTP161	ltpFR	2	1	n/a	FLEA	577	0	n/a	n/a	n/a	n/a	n/a	n/a	n/a
2877325	RECOG_CONF	n/a	LTP161	ltpFR	2	1	n/a	FLEA	577	n/a	1	n/a	n/a	n/a	n/a	n/a	n/a
2879631	RECOG_TARGET	n/a	LTP161	ltpFR	2	1	-1	VALVE	1546	0	2	-1	n/a	n/a	n/a	n/a	n/a
2880593	RECOG_RESP	n/a	LTP161	ltpFR	2	1	-1	VALVE	1546	0	n/a	-1	n/a	n/a	n/a	n/a	n/a
2881990	RECOG_CONF	n/a	LTP161	ltpFR	2	1	-1	VALVE	1546	n/a	2	-1	n/a	n/a	n/a	n/a	n/a
2883824	RECOG_LURE	n/a	LTP161	ltpFR	2	1	n/a	TAR	1435	0	2	n/a	n/a	n/a	n/a	n/a	n/a
2884779	RECOG_RESP	n/a	LTP161	ltpFR	2	1	n/a	TAR	1435	0	n/a	n/a	n/a	n/a	n/a	n/a	n/a
2886145	RECOG_CONF	n/a	LTP161	ltpFR	2	1	n/a	TAR	1435	n/a	2	n/a	n/a	n/a	n/a	n/a	n/a
2888017	RECOG_TARGET	n/a	LTP161	ltpFR	2	1	1	LOBSTER	837	1	5	0	n/a	n/a	n/a	n/a	n/a
2888815	RECOG_RESP	n/a	LTP161	ltpFR	2	1	1	LOBSTER	837	1	n/a	0	n/a	n/a	n/a	n/a	n/a
2889969	RECOG_CONF	n/a	LTP161	ltpFR	2	1	1	LOBSTER	837	n/a	5	0	n/a	n/a	n/a	n/a	n/a
2891845	RECOG_TARGET	n/a	LTP161	ltpFR	2	1	1	BEAN	105	1	5	0	n/a	n/a	n/a	n/a	n/a
2895195	RECOG_RESP	n/a	LTP161	ltpFR	2	1	1	BEAN	105	1	n/a	0	n/a	n/a	n/a	n/a	n/a
2896398	RECOG_CONF	n/a	LTP161	ltpFR	2	1	1	BEAN	105	n/a	5	0	n/a	n/a	n/a	n/a	n/a
2898302	RECOG_TARGET	n/a	LTP161	ltpFR	2	1	1	BAY	102	1	4	0	n/a	n/a	n/a	n/a	n/a
2903327	RECOG_RESP	n/a	LTP161	ltpFR	2	1	1	BAY	102	1	n/a	0	n/a	n/a	n/a	n/a	n/a
2904504	RECOG_CONF	n/a	LTP161	ltpFR	2	1	1	BAY	102	n/a	4	0	n/a	n/a	n/a	n/a	n/a
2906724	RECOG_LURE	n/a	LTP161	ltpFR	2	1	n/a	PEBBLE	1035	0	3	n/a	n/a	n/a	n/a	n/a	n/a
2909278	RECOG_RESP	n/a	LTP161	ltpFR	2	1	n/a	PEBBLE	1035	0	n/a	n/a	n/a	n/a	n/a	n/a	n/a
2910323	RECOG_CONF	n/a	LTP161	ltpFR	2	1	n/a	PEBBLE	1035	n/a	3	n/a	n/a	n/a	n/a	n/a	n/a
2912349	RECOG_TARGET	n/a	LTP161	ltpFR	2	1	1	WELL	1600	1	5	0	n/a	n/a	n/a	n/a	n/a
2913154	RECOG_RESP	n/a	LTP161	ltpFR	2	1	1	WELL	1600	1	n/a	0	n/a	n/a	n/a	n/a	n/a
2914167	RECOG_CONF	n/a	LTP161	ltpFR	2	1	1	WELL	1600	n/a	5	0	n/a	n/a	n/a	n/a	n/a
2915976	RECOG_TARGET	n/a	LTP161	ltpFR	2	1	1	BANDANNA	80	1	5	0	n/a	n/a	n/a	n/a	n/a
2920124	RECOG_RESP	n/a	LTP161	ltpFR	2	1	1	BANDANNA	80	1	n/a	0	n/a	n/a	n/a	n/a	n/a
2921201	RECOG_CONF	n/a	LTP161	ltpFR	2	1	1	BANDANNA	80	n/a	5	0	n/a	n/a	n/a	n/a	n/a
2923215	RECOG_TARGET	n/a	LTP161	ltpFR	2	1	1	SQUIRREL	1362	1	5	1	n/a	n/a	n/a	n/a	n/a
2924095	RECOG_RESP	n/a	LTP161	ltpFR	2	1	1	SQUIRREL	1362	1	n/a	1	n/a	n/a	n/a	n/a	n/a
2925115	RECOG_CONF	n/a	LTP161	ltpFR	2	1	1	SQUIRREL	1362	n/a	5	1	n/a	n/a	n/a	n/a	n/a
2926976	RECOG_TARGET	n/a	LTP161	ltpFR	2	1	1	PARTY	1018	1	4	0	n/a	n/a	n/a	n/a	n/a
2928353	RECOG_RESP	n/a	LTP161	ltpFR	2	1	1	PARTY	1018	1	n/a	0	n/a	n/a	n/a	n/a	n/a
2929308	RECOG_CONF	n/a	LTP161	ltpFR	2	1	1	PARTY	1018	n/a	4	0	n/a	n/a	n/a	n/a	n/a
2931236	RECOG_LURE	n/a	LTP161	ltpFR	2	1	n/a	TEENAGER	1444	0	3	n/a	n/a	n/a	n/a	n/a	n/a
2932129	RECOG_RESP	n/a	LTP161	ltpFR	2	1	n/a	TEENAGER	1444	0	n/a	n/a	n/a	n/a	n/a	n/a	n/a
2933104	RECOG_CONF	n/a	LTP161	ltpFR	2	1	n/a	TEENAGER	1444	n/a	3	n/a	n/a	n/a	n/a	n/a	n/a
2934964	RECOG_TARGET	n/a	LTP161	ltpFR	2	1	1	ALLIGATOR	16	1	4	1	n/a	n/a	n/a	n/a	n/a
2935858	RECOG_RESP	n/a	LTP161	ltpFR	2	1	1	ALLIGATOR	16	1	n/a	1	n/a	n/a	n/a	n/a	n/a
2936815	RECOG_CONF	n/a	LTP161	ltpFR	2	1	1	ALLIGATOR	16	n/a	4	1	n/a	n/a	n/a	n/a	n/a
2938676	RECOG_TARGET	n/a	LTP161	ltpFR	2	1	1	FIST	572	1	3	0	n/a	n/a	n/a	n/a	n/a
2942382	RECOG_RESP	n/a	LTP161	ltpFR	2	1	1	FIST	572	1	n/a	0	n/a	n/a	n/a	n/a	n/a
2943271	RECOG_CONF	n/a	LTP161	ltpFR	2	1	1	FIST	572	n/a	3	0	n/a	n/a	n/a	n/a	n/a
2945082	RECOG_TARGET	n/a	LTP161	ltpFR	2	1	1	MISTER	901	1	5	1	n/a	n/a	n/a	n/a	n/a
2945830	RECOG_RESP	n/a	LTP161	ltpFR	2	1	1	MISTER	901	1	n/a	1	n/a	n/a	n/a	n/a	n/a
2946723	RECOG_CONF	n/a	LTP161	ltpFR	2	1	1	MISTER	901	n/a	5	1	n/a	n/a	n/a	n/a	n/a
2948661	RECOG_LURE	n/a	LTP161	ltpFR	2	1	n/a	WOLF	1619	1	3	n/a	n/a	n/a	n/a	n/a	n/a
2950043	RECOG_RESP	n/a	LTP161	ltpFR	2	1	n/a	WOLF	1619	1	n/a	n/a	n/a	n/a	n/a	n/a	n/a
2950859	RECOG_CONF	n/a	LTP161	ltpFR	2	1	n/a	WOLF	1619	n/a	3	n/a	n/a	n/a	n/a	n/a	n/a
2952605	RECOG_TARGET	n/a	LTP161	ltpFR	2	1	-1	OX	994	1	4	-1	n/a	n/a	n/a	n/a	n/a
2954187	RECOG_RESP	n/a	LTP161	ltpFR	2	1	-1	OX	994	1	n/a	-1	n/a	n/a	n/a	n/a	n/a
2955045	RECOG_CONF	n/a	LTP161	ltpFR	2	1	-1	OX	994	n/a	4	-1	n/a	n/a	n/a	n/a	n/a
3070042	REC_START	n/a	LTP161	ltpFR	2	2	n/a	n/a	n/a	n/a	n/a	n/a	n/a	n/a	n/a	n/a	n/a
3070079	RECOG_TARGET	n/a	LTP161	ltpFR	2	2	0	WHEAT	1602	1	4	1	n/a	n/a	n/a	n/a	n/a
3072849	RECOG_RESP	n/a	LTP161	ltpFR	2	2	0	WHEAT	1602	1	n/a	1	n/a	n/a	n/a	n/a	n/a
3073998	RECOG_CONF	n/a	LTP161	ltpFR	2	2	0	WHEAT	1602	n/a	4	1	n/a	n/a	n/a	n/a	n/a
3075903	RECOG_LURE	n/a	LTP161	ltpFR	2	2	n/a	BRUSH	182	0	3	n/a	n/a	n/a	n/a	n/a	n/a
3077766	RECOG_RESP	n/a	LTP161	ltpFR	2	2	n/a	BRUSH	182	0	n/a	n/a	n/a	n/a	n/a	n/a	n/a
3078951	RECOG_CONF	n/a	LTP161	ltpFR	2	2	n/a	BRUSH	182	n/a	3	n/a	n/a	n/a	n/a	n/a	n/a
3080829	RECOG_TARGET	n/a	LTP161	ltpFR	2	2	1	BASKET	95	0	1	0	n/a	n/a	n/a	n/a	n/a
3082261	RECOG_RESP	n/a	LTP161	ltpFR	2	2	1	BASKET	95	0	n/a	0	n/a	n/a	n/a	n/a	n/a
3083692	RECOG_CONF	n/a	LTP161	ltpFR	2	2	1	BASKET	95	n/a	1	0	n/a	n/a	n/a	n/a	n/a
3085623	RECOG_TARGET	n/a	LTP161	ltpFR	2	2	1	NOTEBOOK	959	1	4	0	n/a	n/a	n/a	n/a	n/a
3086414	RECOG_RESP	n/a	LTP161	ltpFR	2	2	1	NOTEBOOK	959	1	n/a	0	n/a	n/a	n/a	n/a	n/a
3087546	RECOG_CONF	n/a	LTP161	ltpFR	2	2	1	NOTEBOOK	959	n/a	4	0	n/a	n/a	n/a	n/a	n/a
3089418	RECOG_TARGET	n/a	LTP161	ltpFR	2	2	-1	COTTAGE	384	1	5	-1	n/a	n/a	n/a	n/a	n/a
3090203	RECOG_RESP	n/a	LTP161	ltpFR	2	2	-1	COTTAGE	384	1	n/a	-1	n/a	n/a	n/a	n/a	n/a
3091338	RECOG_CONF	n/a	LTP161	ltpFR	2	2	-1	COTTAGE	384	n/a	5	-1	n/a	n/a	n/a	n/a	n/a
3093178	RECOG_LURE	n/a	LTP161	ltpFR	2	2	n/a	MARGARINE	868	0	3	n/a	n/a	n/a	n/a	n/a	n/a
3094107	RECOG_RESP	n/a	LTP161	ltpFR	2	2	n/a	MARGARINE	868	0	n/a	n/a	n/a	n/a	n/a	n/a	n/a
3095565	RECOG_CONF	n/a	LTP161	ltpFR	2	2	n/a	MARGARINE	868	n/a	3	n/a	n/a	n/a	n/a	n/a	n/a
3097356	RECOG_TARGET	n/a	LTP161	ltpFR	2	2	0	BOYFRIEND	162	1	5	1	n/a	n/a	n/a	n/a	n/a
3098124	RECOG_RESP	n/a	LTP161	ltpFR	2	2	0	BOYFRIEND	162	1	n/a	1	n/a	n/a	n/a	n/a	n/a
3099280	RECOG_CONF	n/a	LTP161	ltpFR	2	2	0	BOYFRIEND	162	n/a	5	1	n/a	n/a	n/a	n/a	n/a
3100999	RECOG_TARGET	n/a	LTP161	ltpFR	2	2	0	JOURNAL	760	0	1	0	n/a	n/a	n/a	n/a	n/a
3101750	RECOG_RESP	n/a	LTP161	ltpFR	2	2	0	JOURNAL	760	0	n/a	0	n/a	n/a	n/a	n/a	n/a
3103560	RECOG_CONF	n/a	LTP161	ltpFR	2	2	0	JOURNAL	760	n/a	1	0	n/a	n/a	n/a	n/a	n/a
3105276	RECOG_LURE	n/a	LTP161	ltpFR	2	2	n/a	CRITIC	410	0	1	n/a	n/a	n/a	n/a	n/a	n/a
3106160	RECOG_RESP	n/a	LTP161	ltpFR	2	2	n/a	CRITIC	410	0	n/a	n/a	n/a	n/a	n/a	n/a	n/a
3107626	RECOG_CONF	n/a	LTP161	ltpFR	2	2	n/a	CRITIC	410	n/a	1	n/a	n/a	n/a	n/a	n/a	n/a
3109321	RECOG_LURE	n/a	LTP161	ltpFR	2	2	n/a	GARDEN	623	0	1	n/a	n/a	n/a	n/a	n/a	n/a
3111168	RECOG_RESP	n/a	LTP161	ltpFR	2	2	n/a	GARDEN	623	0	n/a	n/a	n/a	n/a	n/a	n/a	n/a
3112565	RECOG_CONF	n/a	LTP161	ltpFR	2	2	n/a	GARDEN	623	n/a	1	n/a	n/a	n/a	n/a	n/a	n/a
3114347	RECOG_LURE	n/a	LTP161	ltpFR	2	2	n/a	SMOG	1330	0	4	n/a	n/a	n/a	n/a	n/a	n/a
3115593	RECOG_RESP	n/a	LTP161	ltpFR	2	2	n/a	SMOG	1330	0	n/a	n/a	n/a	n/a	n/a	n/a	n/a
3116943	RECOG_CONF	n/a	LTP161	ltpFR	2	2	n/a	SMOG	1330	n/a	4	n/a	n/a	n/a	n/a	n/a	n/a
3118707	RECOG_TARGET	n/a	LTP161	ltpFR	2	2	0	CANAL	226	1	5	1	n/a	n/a	n/a	n/a	n/a
3119978	RECOG_RESP	n/a	LTP161	ltpFR	2	2	0	CANAL	226	1	n/a	1	n/a	n/a	n/a	n/a	n/a
3121410	RECOG_CONF	n/a	LTP161	ltpFR	2	2	0	CANAL	226	n/a	5	1	n/a	n/a	n/a	n/a	n/a
3123166	RECOG_TARGET	n/a	LTP161	ltpFR	2	2	-1	MUG	930	1	4	-1	n/a	n/a	n/a	n/a	n/a
3123994	RECOG_RESP	n/a	LTP161	ltpFR	2	2	-1	MUG	930	1	n/a	-1	n/a	n/a	n/a	n/a	n/a
3125349	RECOG_CONF	n/a	LTP161	ltpFR	2	2	-1	MUG	930	n/a	4	-1	n/a	n/a	n/a	n/a	n/a
3127194	RECOG_TARGET	n/a	LTP161	ltpFR	2	2	-1	ARTICLE	42	1	5	-1	n/a	n/a	n/a	n/a	n/a
3129741	RECOG_RESP	n/a	LTP161	ltpFR	2	2	-1	ARTICLE	42	1	n/a	-1	n/a	n/a	n/a	n/a	n/a
3130893	RECOG_RESP_VV	n/a	LTP161	ltpFR	2	2	-1	ARTICLE	42	n/a	5	-1	n/a	n/a	n/a	n/a	n/a
3133393	RECOG_CONF	n/a	LTP161	ltpFR	2	2	-1	ARTICLE	42	n/a	5	-1	n/a	n/a	n/a	n/a	n/a
3135366	RECOG_TARGET	n/a	LTP161	ltpFR	2	2	-1	MEADOW	881	1	5	-1	n/a	n/a	n/a	n/a	n/a
3136131	RECOG_RESP	n/a	LTP161	ltpFR	2	2	-1	MEADOW	881	1	n/a	-1	n/a	n/a	n/a	n/a	n/a
3137538	RECOG_CONF	n/a	LTP161	ltpFR	2	2	-1	MEADOW	881	n/a	5	-1	n/a	n/a	n/a	n/a	n/a
3139841	RECOG_TARGET	n/a	LTP161	ltpFR	2	2	0	MICROWAVE	892	1	5	1	n/a	n/a	n/a	n/a	n/a
3140498	RECOG_RESP	n/a	LTP161	ltpFR	2	2	0	MICROWAVE	892	1	n/a	1	n/a	n/a	n/a	n/a	n/a
3141662	RECOG_CONF	n/a	LTP161	ltpFR	2	2	0	MICROWAVE	892	n/a	5	1	n/a	n/a	n/a	n/a	n/a
3143503	RECOG_LURE	n/a	LTP161	ltpFR	2	2	n/a	RAIL	1161	1	3	n/a	n/a	n/a	n/a	n/a	n/a
3144697	RECOG_RESP	n/a	LTP161	ltpFR	2	2	n/a	RAIL	1161	1	n/a	n/a	n/a	n/a	n/a	n/a	n/a
3146134	RECOG_CONF	n/a	LTP161	ltpFR	2	2	n/a	RAIL	1161	n/a	3	n/a	n/a	n/a	n/a	n/a	n/a
3147896	RECOG_LURE	n/a	LTP161	ltpFR	2	2	n/a	LIPSTICK	829	0	4	n/a	n/a	n/a	n/a	n/a	n/a
3148733	RECOG_RESP	n/a	LTP161	ltpFR	2	2	n/a	LIPSTICK	829	0	n/a	n/a	n/a	n/a	n/a	n/a	n/a
3149903	RECOG_CONF	n/a	LTP161	ltpFR	2	2	n/a	LIPSTICK	829	n/a	4	n/a	n/a	n/a	n/a	n/a	n/a
3151758	RECOG_TARGET	n/a	LTP161	ltpFR	2	2	-1	PUMP	1141	0	2	-1	n/a	n/a	n/a	n/a	n/a
3152968	RECOG_RESP	n/a	LTP161	ltpFR	2	2	-1	PUMP	1141	0	n/a	-1	n/a	n/a	n/a	n/a	n/a
3154175	RECOG_CONF	n/a	LTP161	ltpFR	2	2	-1	PUMP	1141	n/a	2	-1	n/a	n/a	n/a	n/a	n/a
3156134	RECOG_LURE	n/a	LTP161	ltpFR	2	2	n/a	SUNRISE	1407	0	4	n/a	n/a	n/a	n/a	n/a	n/a
3156949	RECOG_RESP	n/a	LTP161	ltpFR	2	2	n/a	SUNRISE	1407	0	n/a	n/a	n/a	n/a	n/a	n/a	n/a
3158147	RECOG_CONF	n/a	LTP161	ltpFR	2	2	n/a	SUNRISE	1407	n/a	4	n/a	n/a	n/a	n/a	n/a	n/a
3168176	REC_START	n/a	LTP161	ltpFR	2	3	n/a	n/a	n/a	n/a	n/a	n/a	n/a	n/a	n/a	n/a	n/a
3168199	RECOG_LURE	n/a	LTP161	ltpFR	2	3	n/a	OVAL	990	0	3	n/a	n/a	n/a	n/a	n/a	n/a
3169622	RECOG_RESP	n/a	LTP161	ltpFR	2	3	n/a	OVAL	990	0	n/a	n/a	n/a	n/a	n/a	n/a	n/a
3170530	RECOG_CONF	n/a	LTP161	ltpFR	2	3	n/a	OVAL	990	n/a	3	n/a	n/a	n/a	n/a	n/a	n/a
3172560	RECOG_TARGET	n/a	LTP161	ltpFR	2	3	0	BONE	148	1	4	1	n/a	n/a	n/a	n/a	n/a
3173464	RECOG_RESP	n/a	LTP161	ltpFR	2	3	0	BONE	148	1	n/a	1	n/a	n/a	n/a	n/a	n/a
3174489	RECOG_CONF	n/a	LTP161	ltpFR	2	3	0	BONE	148	n/a	4	1	n/a	n/a	n/a	n/a	n/a
3176304	RECOG_LURE	n/a	LTP161	ltpFR	2	3	n/a	WOUND	1624	0	4	n/a	n/a	n/a	n/a	n/a	n/a
3177100	RECOG_RESP	n/a	LTP161	ltpFR	2	3	n/a	WOUND	1624	0	n/a	n/a	n/a	n/a	n/a	n/a	n/a
3178228	RECOG_CONF	n/a	LTP161	ltpFR	2	3	n/a	WOUND	1624	n/a	4	n/a	n/a	n/a	n/a	n/a	n/a
3179981	RECOG_LURE	n/a	LTP161	ltpFR	2	3	n/a	PAW	1029	0	5	n/a	n/a	n/a	n/a	n/a	n/a
3180857	RECOG_RESP	n/a	LTP161	ltpFR	2	3	n/a	PAW	1029	0	n/a	n/a	n/a	n/a	n/a	n/a	n/a
3182119	RECOG_CONF	n/a	LTP161	ltpFR	2	3	n/a	PAW	1029	n/a	5	n/a	n/a	n/a	n/a	n/a	n/a
3183876	RECOG_TARGET	n/a	LTP161	ltpFR	2	3	0	HERD	705	1	5	1	n/a	n/a	n/a	n/a	n/a
3185026	RECOG_RESP	n/a	LTP161	ltpFR	2	3	0	HERD	705	1	n/a	1	n/a	n/a	n/a	n/a	n/a
3186270	RECOG_CONF	n/a	LTP161	ltpFR	2	3	0	HERD	705	n/a	5	1	n/a	n/a	n/a	n/a	n/a
3188119	RECOG_TARGET	n/a	LTP161	ltpFR	2	3	0	COYOTE	396	1	5	1	n/a	n/a	n/a	n/a	n/a
3188869	RECOG_RESP	n/a	LTP161	ltpFR	2	3	0	COYOTE	396	1	n/a	1	n/a	n/a	n/a	n/a	n/a
3190101	RECOG_CONF	n/a	LTP161	ltpFR	2	3	0	COYOTE	396	n/a	5	1	n/a	n/a	n/a	n/a	n/a
3191963	RECOG_TARGET	n/a	LTP161	ltpFR	2	3	0	LIST	830	1	5	1	n/a	n/a	n/a	n/a	n/a
3193829	RECOG_RESP	n/a	LTP161	ltpFR	2	3	0	LIST	830	1	n/a	1	n/a	n/a	n/a	n/a	n/a
3194980	RECOG_CONF	n/a	LTP161	ltpFR	2	3	0	LIST	830	n/a	5	1	n/a	n/a	n/a	n/a	n/a
3197039	RECOG_TARGET	n/a	LTP161	ltpFR	2	3	-1	CITY	314	0	2	-1	n/a	n/a	n/a	n/a	n/a
3197863	RECOG_RESP	n/a	LTP161	ltpFR	2	3	-1	CITY	314	0	n/a	-1	n/a	n/a	n/a	n/a	n/a
3199288	RECOG_CONF	n/a	LTP161	ltpFR	2	3	-1	CITY	314	n/a	2	-1	n/a	n/a	n/a	n/a	n/a
3201100	RECOG_TARGET	n/a	LTP161	ltpFR	2	3	0	MUFFIN	929	1	4	0	n/a	n/a	n/a	n/a	n/a
3201789	RECOG_RESP	n/a	LTP161	ltpFR	2	3	0	MUFFIN	929	1	n/a	0	n/a	n/a	n/a	n/a	n/a
3203019	RECOG_CONF	n/a	LTP161	ltpFR	2	3	0	MUFFIN	929	n/a	4	0	n/a	n/a	n/a	n/a	n/a
3204745	RECOG_TARGET	n/a	LTP161	ltpFR	2	3	1	COP	376	1	3	1	n/a	n/a	n/a	n/a	n/a
3205486	RECOG_RESP	n/a	LTP161	ltpFR	2	3	1	COP	376	1	n/a	1	n/a	n/a	n/a	n/a	n/a
3206793	RECOG_CONF	n/a	LTP161	ltpFR	2	3	1	COP	376	n/a	3	1	n/a	n/a	n/a	n/a	n/a
3208640	RECOG_LURE	n/a	LTP161	ltpFR	2	3	n/a	SCREWDRIVER	1255	0	1	n/a	n/a	n/a	n/a	n/a	n/a
3210679	RECOG_RESP	n/a	LTP161	ltpFR	2	3	n/a	SCREWDRIVER	1255	0	n/a	n/a	n/a	n/a	n/a	n/a	n/a
3211828	RECOG_CONF	n/a	LTP161	ltpFR	2	3	n/a	SCREWDRIVER	1255	n/a	1	n/a	n/a	n/a	n/a	n/a	n/a
3213599	RECOG_TARGET	n/a	LTP161	ltpFR	2	3	-1	ROCK	1201	1	5	-1	n/a	n/a	n/a	n/a	n/a
3214186	RECOG_RESP	n/a	LTP161	ltpFR	2	3	-1	ROCK	1201	1	n/a	-1	n/a	n/a	n/a	n/a	n/a
3215254	RECOG_CONF	n/a	LTP161	ltpFR	2	3	-1	ROCK	1201	n/a	5	-1	n/a	n/a	n/a	n/a	n/a
3217059	RECOG_LURE	n/a	LTP161	ltpFR	2	3	n/a	SPICE	1350	0	4	n/a	n/a	n/a	n/a	n/a	n/a
3217923	RECOG_RESP	n/a	LTP161	ltpFR	2	3	n/a	SPICE	1350	0	n/a	n/a	n/a	n/a	n/a	n/a	n/a
3218957	RECOG_CONF	n/a	LTP161	ltpFR	2	3	n/a	SPICE	1350	n/a	4	n/a	n/a	n/a	n/a	n/a	n/a
3220638	RECOG_TARGET	n/a	LTP161	ltpFR	2	3	0	CHAUFFEUR	283	1	5	1	n/a	n/a	n/a	n/a	n/a
3221474	RECOG_RESP	n/a	LTP161	ltpFR	2	3	0	CHAUFFEUR	283	1	n/a	1	n/a	n/a	n/a	n/a	n/a
3222837	RECOG_CONF	n/a	LTP161	ltpFR	2	3	0	CHAUFFEUR	283	n/a	5	1	n/a	n/a	n/a	n/a	n/a
3224765	RECOG_LURE	n/a	LTP161	ltpFR	2	3	n/a	RUNNER	1218	0	2	n/a	n/a	n/a	n/a	n/a	n/a
3225565	RECOG_RESP	n/a	LTP161	ltpFR	2	3	n/a	RUNNER	1218	0	n/a	n/a	n/a	n/a	n/a	n/a	n/a
3226588	RECOG_CONF	n/a	LTP161	ltpFR	2	3	n/a	RUNNER	1218	n/a	2	n/a	n/a	n/a	n/a	n/a	n/a
3228360	RECOG_TARGET	n/a	LTP161	ltpFR	2	3	0	BURGLAR	200	0	3	1	n/a	n/a	n/a	n/a	n/a
3229172	RECOG_RESP	n/a	LTP161	ltpFR	2	3	0	BURGLAR	200	0	n/a	1	n/a	n/a	n/a	n/a	n/a
3230200	RECOG_CONF	n/a	LTP161	ltpFR	2	3	0	BURGLAR	200	n/a	3	1	n/a	n/a	n/a	n/a	n/a
3232070	RECOG_LURE	n/a	LTP161	ltpFR	2	3	n/a	ESCALATOR	539	0	3	n/a	n/a	n/a	n/a	n/a	n/a
3233557	RECOG_RESP	n/a	LTP161	ltpFR	2	3	n/a	ESCALATOR	539	0	n/a	n/a	n/a	n/a	n/a	n/a	n/a
3234530	RECOG_CONF	n/a	LTP161	ltpFR	2	3	n/a	ESCALATOR	539	n/a	3	n/a	n/a	n/a	n/a	n/a	n/a
3236214	RECOG_TARGET	n/a	LTP161	ltpFR	2	3	0	KNEE	784	1	2	1	n/a	n/a	n/a	n/a	n/a
3237942	RECOG_RESP	n/a	LTP161	ltpFR	2	3	0	KNEE	784	1	n/a	1	n/a	n/a	n/a	n/a	n/a
3239218	RECOG_CONF	n/a	LTP161	ltpFR	2	3	0	KNEE	784	n/a	2	1	n/a	n/a	n/a	n/a	n/a
3240957	RECOG_TARGET	n/a	LTP161	ltpFR	2	3	-1	BLACKBERRY	132	1	5	-1	n/a	n/a	n/a	n/a	n/a
3241604	RECOG_RESP	n/a	LTP161	ltpFR	2	3	-1	BLACKBERRY	132	1	n/a	-1	n/a	n/a	n/a	n/a	n/a
3242802	RECOG_CONF	n/a	LTP161	ltpFR	2	3	-1	BLACKBERRY	132	n/a	5	-1	n/a	n/a	n/a	n/a	n/a
3244652	RECOG_LURE	n/a	LTP161	ltpFR	2	3	n/a	FOOT	590	0	2	n/a	n/a	n/a	n/a	n/a	n/a
3246682	RECOG_RESP	n/a	LTP161	ltpFR	2	3	n/a	FOOT	590	0	n/a	n/a	n/a	n/a	n/a	n/a	n/a
3248088	RECOG_CONF	n/a	LTP161	ltpFR	2	3	n/a	FOOT	590	n/a	2	n/a	n/a	n/a	n/a	n/a	n/a
3254537	REC_START	n/a	LTP161	ltpFR	2	4	n/a	n/a	n/a	n/a	n/a	n/a	n/a	n/a	n/a	n/a	n/a
3254571	RECOG_LURE	n/a	LTP161	ltpFR	2	4	n/a	HEART	697	1	2	n/a	n/a	n/a	n/a	n/a	n/a
3255710	RECOG_RESP	n/a	LTP161	ltpFR	2	4	n/a	HEART	697	1	n/a	n/a	n/a	n/a	n/a	n/a	n/a
3256785	RECOG_CONF	n/a	LTP161	ltpFR	2	4	n/a	HEART	697	n/a	2	n/a	n/a	n/a	n/a	n/a	n/a
3258615	RECOG_LURE	n/a	LTP161	ltpFR	2	4	n/a	ROAD	1196	1	1	n/a	n/a	n/a	n/a	n/a	n/a
3259520	RECOG_RESP	n/a	LTP161	ltpFR	2	4	n/a	ROAD	1196	1	n/a	n/a	n/a	n/a	n/a	n/a	n/a
3260507	RECOG_CONF	n/a	LTP161	ltpFR	2	4	n/a	ROAD	1196	n/a	1	n/a	n/a	n/a	n/a	n/a	n/a
3262308	RECOG_TARGET	n/a	LTP161	ltpFR	2	4	0	CARNIVAL	245	1	5	1	n/a	n/a	n/a	n/a	n/a
3263321	RECOG_RESP	n/a	LTP161	ltpFR	2	4	0	CARNIVAL	245	1	n/a	1	n/a	n/a	n/a	n/a	n/a
3264542	RECOG_CONF	n/a	LTP161	ltpFR	2	4	0	CARNIVAL	245	n/a	5	1	n/a	n/a	n/a	n/a	n/a
3266536	RECOG_LURE	n/a	LTP161	ltpFR	2	4	n/a	JOKER	759	0	3	n/a	n/a	n/a	n/a	n/a	n/a
3267460	RECOG_RESP	n/a	LTP161	ltpFR	2	4	n/a	JOKER	759	0	n/a	n/a	n/a	n/a	n/a	n/a	n/a
3268700	RECOG_CONF	n/a	LTP161	ltpFR	2	4	n/a	JOKER	759	n/a	3	n/a	n/a	n/a	n/a	n/a	n/a
3270597	RECOG_LURE	n/a	LTP161	ltpFR	2	4	n/a	VENT	1556	0	3	n/a	n/a	n/a	n/a	n/a	n/a
3271488	RECOG_RESP	n/a	LTP161	ltpFR	2	4	n/a	VENT	1556	0	n/a	n/a	n/a	n/a	n/a	n/a	n/a
3272541	RECOG_CONF	n/a	LTP161	ltpFR	2	4	n/a	VENT	1556	n/a	3	n/a	n/a	n/a	n/a	n/a	n/a
3274408	RECOG_TARGET	n/a	LTP161	ltpFR	2	4	0	WATERFALL	1595	1	4	1	n/a	n/a	n/a	n/a	n/a
3275230	RECOG_RESP	n/a	LTP161	ltpFR	2	4	0	WATERFALL	1595	1	n/a	1	n/a	n/a	n/a	n/a	n/a
3276358	RECOG_CONF	n/a	LTP161	ltpFR	2	4	0	WATERFALL	1595	n/a	4	1	n/a	n/a	n/a	n/a	n/a
3278235	RECOG_TARGET	n/a	LTP161	ltpFR	2	4	1	COSTUME	383	1	5	0	n/a	n/a	n/a	n/a	n/a
3278881	RECOG_RESP	n/a	LTP161	ltpFR	2	4	1	COSTUME	383	1	n/a	0	n/a	n/a	n/a	n/a	n/a
3280279	RECOG_CONF	n/a	LTP161	ltpFR	2	4	1	COSTUME	383	n/a	5	0	n/a	n/a	n/a	n/a	n/a
3282229	RECOG_LURE	n/a	LTP161	ltpFR	2	4	n/a	PIG	1064	0	3	n/a	n/a	n/a	n/a	n/a	n/a
3283042	RECOG_RESP	n/a	LTP161	ltpFR	2	4	n/a	PIG	1064	0	n/a	n/a	n/a	n/a	n/a	n/a	n/a
3284224	RECOG_CONF	n/a	LTP161	ltpFR	2	4	n/a	PIG	1064	n/a	3	n/a	n/a	n/a	n/a	n/a	n/a
3286056	RECOG_LURE	n/a	LTP161	ltpFR	2	4	n/a	TIGER	1467	0	4	n/a	n/a	n/a	n/a	n/a	n/a
3286933	RECOG_RESP	n/a	LTP161	ltpFR	2	4	n/a	TIGER	1467	0	n/a	n/a	n/a	n/a	n/a	n/a	n/a
3288147	RECOG_CONF	n/a	LTP161	ltpFR	2	4	n/a	TIGER	1467	n/a	4	n/a	n/a	n/a	n/a	n/a	n/a
3289834	RECOG_TARGET	n/a	LTP161	ltpFR	2	4	1	LAGOON	795	1	2	1	n/a	n/a	n/a	n/a	n/a
3290792	RECOG_RESP	n/a	LTP161	ltpFR	2	4	1	LAGOON	795	1	n/a	1	n/a	n/a	n/a	n/a	n/a
3291871	RECOG_CONF	n/a	LTP161	ltpFR	2	4	1	LAGOON	795	n/a	2	1	n/a	n/a	n/a	n/a	n/a
3293746	RECOG_TARGET	n/a	LTP161	ltpFR	2	4	-1	COFFEE	341	1	5	-1	n/a	n/a	n/a	n/a	n/a
3295965	RECOG_RESP	n/a	LTP161	ltpFR	2	4	-1	COFFEE	341	1	n/a	-1	n/a	n/a	n/a	n/a	n/a
3297428	RECOG_CONF	n/a	LTP161	ltpFR	2	4	-1	COFFEE	341	n/a	5	-1	n/a	n/a	n/a	n/a	n/a
3299371	RECOG_TARGET	n/a	LTP161	ltpFR	2	4	0	VEST	1559	1	5	1	n/a	n/a	n/a	n/a	n/a
3300098	RECOG_RESP	n/a	LTP161	ltpFR	2	4	0	VEST	1559	1	n/a	1	n/a	n/a	n/a	n/a	n/a
3301279	RECOG_CONF	n/a	LTP161	ltpFR	2	4	0	VEST	1559	n/a	5	1	n/a	n/a	n/a	n/a	n/a
3303081	RECOG_LURE	n/a	LTP161	ltpFR	2	4	n/a	OWL	992	0	2	n/a	n/a	n/a	n/a	n/a	n/a
3303885	RECOG_RESP	n/a	LTP161	ltpFR	2	4	n/a	OWL	992	0	n/a	n/a	n/a	n/a	n/a	n/a	n/a
3304991	RECOG_CONF	n/a	LTP161	ltpFR	2	4	n/a	OWL	992	n/a	2	n/a	n/a	n/a	n/a	n/a	n/a
3306859	RECOG_LURE	n/a	LTP161	ltpFR	2	4	n/a	CAPE	237	1	2	n/a	n/a	n/a	n/a	n/a	n/a
3308299	RECOG_RESP	n/a	LTP161	ltpFR	2	4	n/a	CAPE	237	1	n/a	n/a	n/a	n/a	n/a	n/a	n/a
3309882	RECOG_CONF	n/a	LTP161	ltpFR	2	4	n/a	CAPE	237	n/a	2	n/a	n/a	n/a	n/a	n/a	n/a
3311619	RECOG_LURE	n/a	LTP161	ltpFR	2	4	n/a	LOBBY	836	1	1	n/a	n/a	n/a	n/a	n/a	n/a
3314236	RECOG_RESP	n/a	LTP161	ltpFR	2	4	n/a	LOBBY	836	1	n/a	n/a	n/a	n/a	n/a	n/a	n/a
3315545	RECOG_CONF	n/a	LTP161	ltpFR	2	4	n/a	LOBBY	836	n/a	1	n/a	n/a	n/a	n/a	n/a	n/a
3317377	RECOG_TARGET	n/a	LTP161	ltpFR	2	4	0	KEEPER	769	1	5	1	n/a	n/a	n/a	n/a	n/a
3318431	RECOG_RESP	n/a	LTP161	ltpFR	2	4	0	KEEPER	769	1	n/a	1	n/a	n/a	n/a	n/a	n/a
3319664	RECOG_CONF	n/a	LTP161	ltpFR	2	4	0	KEEPER	769	n/a	5	1	n/a	n/a	n/a	n/a	n/a
3321421	RECOG_TARGET	n/a	LTP161	ltpFR	2	4	0	SLEEVE	1324	1	5	0	n/a	n/a	n/a	n/a	n/a
3322153	RECOG_RESP	n/a	LTP161	ltpFR	2	4	0	SLEEVE	1324	1	n/a	0	n/a	n/a	n/a	n/a	n/a
3323331	RECOG_CONF	n/a	LTP161	ltpFR	2	4	0	SLEEVE	1324	n/a	5	0	n/a	n/a	n/a	n/a	n/a
3325081	RECOG_TARGET	n/a	LTP161	ltpFR	2	4	0	DOG	480	1	4	1	n/a	n/a	n/a	n/a	n/a
3326084	RECOG_RESP	n/a	LTP161	ltpFR	2	4	0	DOG	480	1	n/a	1	n/a	n/a	n/a	n/a	n/a
3327227	RECOG_CONF	n/a	LTP161	ltpFR	2	4	0	DOG	480	n/a	4	1	n/a	n/a	n/a	n/a	n/a
3328959	RECOG_LURE	n/a	LTP161	ltpFR	2	4	n/a	TELESCOPE	1446	1	2	n/a	n/a	n/a	n/a	n/a	n/a
3329875	RECOG_RESP	n/a	LTP161	ltpFR	2	4	n/a	TELESCOPE	1446	1	n/a	n/a	n/a	n/a	n/a	n/a	n/a
3331264	RECOG_CONF	n/a	LTP161	ltpFR	2	4	n/a	TELESCOPE	1446	n/a	2	n/a	n/a	n/a	n/a	n/a	n/a
3333069	RECOG_LURE	n/a	LTP161	ltpFR	2	4	n/a	WART	1590	0	4	n/a	n/a	n/a	n/a	n/a	n/a
3333946	RECOG_RESP	n/a	LTP161	ltpFR	2	4	n/a	WART	1590	0	n/a	n/a	n/a	n/a	n/a	n/a	n/a
3335100	RECOG_CONF	n/a	LTP161	ltpFR	2	4	n/a	WART	1590	n/a	4	n/a	n/a	n/a	n/a	n/a	n/a
3339577	REC_START	n/a	LTP161	ltpFR	2	5	n/a	n/a	n/a	n/a	n/a	n/a	n/a	n/a	n/a	n/a	n/a
3339611	RECOG_LURE	n/a	LTP161	ltpFR	2	5	n/a	DAM	436	1	4	n/a	n/a	n/a	n/a	n/a	n/a
3340589	RECOG_RESP	n/a	LTP161	ltpFR	2	5	n/a	DAM	436	1	n/a	n/a	n/a	n/a	n/a	n/a	n/a
3341712	RECOG_CONF	n/a	LTP161	ltpFR	2	5	n/a	DAM	436	n/a	4	n/a	n/a	n/a	n/a	n/a	n/a
3343555	RECOG_TARGET	n/a	LTP161	ltpFR	2	5	0	DISHWASHER	475	1	4	1	n/a	n/a	n/a	n/a	n/a
3344456	RECOG_RESP	n/a	LTP161	ltpFR	2	5	0	DISHWASHER	475	1	n/a	1	n/a	n/a	n/a	n/a	n/a
3345608	RECOG_CONF	n/a	LTP161	ltpFR	2	5	0	DISHWASHER	475	n/a	4	1	n/a	n/a	n/a	n/a	n/a
3347549	RECOG_TARGET	n/a	LTP161	ltpFR	2	5	1	HAYSTACK	694	0	3	0	n/a	n/a	n/a	n/a	n/a
3348781	RECOG_RESP	n/a	LTP161	ltpFR	2	5	1	HAYSTACK	694	0	n/a	0	n/a	n/a	n/a	n/a	n/a
3349665	RECOG_CONF	n/a	LTP161	ltpFR	2	5	1	HAYSTACK	694	n/a	3	0	n/a	n/a	n/a	n/a	n/a
3351510	RECOG_TARGET	n/a	LTP161	ltpFR	2	5	1	TUNA	1518	1	5	1	n/a	n/a	n/a	n/a	n/a
3352258	RECOG_RESP	n/a	LTP161	ltpFR	2	5	1	TUNA	1518	1	n/a	1	n/a	n/a	n/a	n/a	n/a
3353360	RECOG_CONF	n/a	LTP161	ltpFR	2	5	1	TUNA	1518	n/a	5	1	n/a	n/a	n/a	n/a	n/a
3355070	RECOG_TARGET	n/a	LTP161	ltpFR	2	5	1	BROCCOLI	176	1	5	0	n/a	n/a	n/a	n/a	n/a
3355895	RECOG_RESP	n/a	LTP161	ltpFR	2	5	1	BROCCOLI	176	1	n/a	0	n/a	n/a	n/a	n/a	n/a
3357262	RECOG_CONF	n/a	LTP161	ltpFR	2	5	1	BROCCOLI	176	n/a	5	0	n/a	n/a	n/a	n/a	n/a
3359197	RECOG_LURE	n/a	LTP161	ltpFR	2	5	n/a	LEG	809	0	4	n/a	n/a	n/a	n/a	n/a	n/a
3360429	RECOG_RESP	n/a	LTP161	ltpFR	2	5	n/a	LEG	809	0	n/a	n/a	n/a	n/a	n/a	n/a	n/a
3361489	RECOG_CONF	n/a	LTP161	ltpFR	2	5	n/a	LEG	809	n/a	4	n/a	n/a	n/a	n/a	n/a	n/a
3363492	RECOG_TARGET	n/a	LTP161	ltpFR	2	5	-1	FREEZER	604	1	4	-1	n/a	n/a	n/a	n/a	n/a
3364719	RECOG_RESP	n/a	LTP161	ltpFR	2	5	-1	FREEZER	604	1	n/a	-1	n/a	n/a	n/a	n/a	n/a
3365826	RECOG_CONF	n/a	LTP161	ltpFR	2	5	-1	FREEZER	604	n/a	4	-1	n/a	n/a	n/a	n/a	n/a
3367602	RECOG_LURE	n/a	LTP161	ltpFR	2	5	n/a	FLUTE	585	0	2	n/a	n/a	n/a	n/a	n/a	n/a
3368646	RECOG_RESP	n/a	LTP161	ltpFR	2	5	n/a	FLUTE	585	0	n/a	n/a	n/a	n/a	n/a	n/a	n/a
3369718	RECOG_CONF	n/a	LTP161	ltpFR	2	5	n/a	FLUTE	585	n/a	2	n/a	n/a	n/a	n/a	n/a	n/a
3371580	RECOG_TARGET	n/a	LTP161	ltpFR	2	5	1	SEAL	1262	1	3	1	n/a	n/a	n/a	n/a	n/a
3372367	RECOG_RESP	n/a	LTP161	ltpFR	2	5	1	SEAL	1262	1	n/a	1	n/a	n/a	n/a	n/a	n/a
3373859	RECOG_CONF	n/a	LTP161	ltpFR	2	5	1	SEAL	1262	n/a	3	1	n/a	n/a	n/a	n/a	n/a
3375690	RECOG_LURE	n/a	LTP161	ltpFR	2	5	n/a	DOCTOR	478	0	2	n/a	n/a	n/a	n/a	n/a	n/a
3376483	RECOG_RESP_VV	n/a	LTP161	ltpFR	2	5	n/a	DOCTOR	478	1	n/a	n/a	n/a	n/a	n/a	n/a	n/a
3378289	RECOG_RESP	n/a	LTP161	ltpFR	2	5	n/a	DOCTOR	478	0	n/a	n/a	n/a	n/a	n/a	n/a	n/a
3379672	RECOG_CONF	n/a	LTP161	ltpFR	2	5	n/a	DOCTOR	478	n/a	2	n/a	n/a	n/a	n/a	n/a	n/a
3381797	RECOG_LURE	n/a	LTP161	ltpFR	2	5	n/a	FAIRY	549	0	3	n/a	n/a	n/a	n/a	n/a	n/a
3382763	RECOG_RESP	n/a	LTP161	ltpFR	2	5	n/a	FAIRY	549	0	n/a	n/a	n/a	n/a	n/a	n/a	n/a
3383961	RECOG_CONF	n/a	LTP161	ltpFR	2	5	n/a	FAIRY	549	n/a	3	n/a	n/a	n/a	n/a	n/a	n/a
3385857	RECOG_LURE	n/a	LTP161	ltpFR	2	5	n/a	RAKE	1164	0	4	n/a	n/a	n/a	n/a	n/a	n/a
3386769	RECOG_RESP	n/a	LTP161	ltpFR	2	5	n/a	RAKE	1164	0	n/a	n/a	n/a	n/a	n/a	n/a	n/a
3387978	RECOG_CONF	n/a	LTP161	ltpFR	2	5	n/a	RAKE	1164	n/a	4	n/a	n/a	n/a	n/a	n/a	n/a
3389769	RECOG_TARGET	n/a	LTP161	ltpFR	2	5	1	COOKBOOK	373	1	4	0	n/a	n/a	n/a	n/a	n/a
3390671	RECOG_RESP	n/a	LTP161	ltpFR	2	5	1	COOKBOOK	373	1	n/a	0	n/a	n/a	n/a	n/a	n/a
3391837	RECOG_CONF	n/a	LTP161	ltpFR	2	5	1	COOKBOOK	373	n/a	4	0	n/a	n/a	n/a	n/a	n/a
3393780	RECOG_TARGET	n/a	LTP161	ltpFR	2	5	-1	HOSE	720	1	5	-1	n/a	n/a	n/a	n/a	n/a
3394666	RECOG_RESP	n/a	LTP161	ltpFR	2	5	-1	HOSE	720	1	n/a	-1	n/a	n/a	n/a	n/a	n/a
3395844	RECOG_CONF	n/a	LTP161	ltpFR	2	5	-1	HOSE	720	n/a	5	-1	n/a	n/a	n/a	n/a	n/a
3397740	RECOG_LURE	n/a	LTP161	ltpFR	2	5	n/a	LAWN	805	1	1	n/a	n/a	n/a	n/a	n/a	n/a
3399725	RECOG_RESP	n/a	LTP161	ltpFR	2	5	n/a	LAWN	805	1	n/a	n/a	n/a	n/a	n/a	n/a	n/a
3400848	RECOG_CONF	n/a	LTP161	ltpFR	2	5	n/a	LAWN	805	n/a	1	n/a	n/a	n/a	n/a	n/a	n/a
3402500	RECOG_LURE	n/a	LTP161	ltpFR	2	5	n/a	QUILT	1151	0	4	n/a	n/a	n/a	n/a	n/a	n/a
3403272	RECOG_RESP	n/a	LTP161	ltpFR	2	5	n/a	QUILT	1151	0	n/a	n/a	n/a	n/a	n/a	n/a	n/a
3404408	RECOG_CONF	n/a	LTP161	ltpFR	2	5	n/a	QUILT	1151	n/a	4	n/a	n/a	n/a	n/a	n/a	n/a
3406160	RECOG_TARGET	n/a	LTP161	ltpFR	2	5	-1	BOULEVARD	156	1	5	-1	n/a	n/a	n/a	n/a	n/a
3407043	RECOG_RESP	n/a	LTP161	ltpFR	2	5	-1	BOULEVARD	156	1	n/a	-1	n/a	n/a	n/a	n/a	n/a
3408346	RECOG_CONF	n/a	LTP161	ltpFR	2	5	-1	BOULEVARD	156	n/a	5	-1	n/a	n/a	n/a	n/a	n/a
3410221	RECOG_TARGET	n/a	LTP161	ltpFR	2	5	1	STRING	1394	1	3	0	n/a	n/a	n/a	n/a	n/a
3411049	RECOG_RESP	n/a	LTP161	ltpFR	2	5	1	STRING	1394	1	n/a	0	n/a	n/a	n/a	n/a	n/a
3412346	RECOG_CONF	n/a	LTP161	ltpFR	2	5	1	STRING	1394	n/a	3	0	n/a	n/a	n/a	n/a	n/a
3414198	RECOG_TARGET	n/a	LTP161	ltpFR	2	5	1	TEAPOT	1442	0	2	0	n/a	n/a	n/a	n/a	n/a
3415035	RECOG_RESP	n/a	LTP161	ltpFR	2	5	1	TEAPOT	1442	0	n/a	0	n/a	n/a	n/a	n/a	n/a
3416243	RECOG_CONF	n/a	LTP161	ltpFR	2	5	1	TEAPOT	1442	n/a	2	0	n/a	n/a	n/a	n/a	n/a
3418476	RECOG_TARGET	n/a	LTP161	ltpFR	2	5	-1	BASEMENT	94	1	5	-1	n/a	n/a	n/a	n/a	n/a
3419181	RECOG_RESP	n/a	LTP161	ltpFR	2	5	-1	BASEMENT	94	1	n/a	-1	n/a	n/a	n/a	n/a	n/a
3420598	RECOG_CONF	n/a	LTP161	ltpFR	2	5	-1	BASEMENT	94	n/a	5	-1	n/a	n/a	n/a	n/a	n/a
3425440	REC_START	n/a	LTP161	ltpFR	2	6	n/a	n/a	n/a	n/a	n/a	n/a	n/a	n/a	n/a	n/a	n/a
3425466	RECOG_TARGET	n/a	LTP161	ltpFR	2	6	-1	TRAY	1498	1	5	-1	n/a	n/a	n/a	n/a	n/a
3427573	RECOG_RESP	n/a	LTP161	ltpFR	2	6	-1	TRAY	1498	1	n/a	-1	n/a	n/a	n/a	n/a	n/a
3428652	RECOG_CONF	n/a	LTP161	ltpFR	2	6	-1	TRAY	1498	n/a	5	-1	n/a	n/a	n/a	n/a	n/a
3430508	RECOG_TARGET	n/a	LTP161	ltpFR	2	6	1	COLESLAW	344	1	5	0	n/a	n/a	n/a	n/a	n/a
3431648	RECOG_RESP	n/a	LTP161	ltpFR	2	6	1	COLESLAW	344	1	n/a	0	n/a	n/a	n/a	n/a	n/a
3432988	RECOG_CONF	n/a	LTP161	ltpFR	2	6	1	COLESLAW	344	n/a	5	0	n/a	n/a	n/a	n/a	n/a
3434934	RECOG_LURE	n/a	LTP161	ltpFR	2	6	n/a	BRACES	164	0	4	n/a	n/a	n/a	n/a	n/a	n/a
3435711	RECOG_RESP	n/a	LTP161	ltpFR	2	6	n/a	BRACES	164	0	n/a	n/a	n/a	n/a	n/a	n/a	n/a
3436864	RECOG_CONF	n/a	LTP161	ltpFR	2	6	n/a	BRACES	164	n/a	4	n/a	n/a	n/a	n/a	n/a	n/a
3438679	RECOG_TARGET	n/a	LTP161	ltpFR	2	6	1	PELICAN	1039	1	4	1	n/a	n/a	n/a	n/a	n/a
3442147	RECOG_RESP	n/a	LTP161	ltpFR	2	6	1	PELICAN	1039	1	n/a	1	n/a	n/a	n/a	n/a	n/a
3443763	RECOG_CONF	n/a	LTP161	ltpFR	2	6	1	PELICAN	1039	n/a	4	1	n/a	n/a	n/a	n/a	n/a
3445602	RECOG_LURE	n/a	LTP161	ltpFR	2	6	n/a	FUNGUS	614	0	3	n/a	n/a	n/a	n/a	n/a	n/a
3446861	RECOG_RESP	n/a	LTP161	ltpFR	2	6	n/a	FUNGUS	614	0	n/a	n/a	n/a	n/a	n/a	n/a	n/a
3447871	RECOG_CONF	n/a	LTP161	ltpFR	2	6	n/a	FUNGUS	614	n/a	3	n/a	n/a	n/a	n/a	n/a	n/a
3449962	RECOG_LURE	n/a	LTP161	ltpFR	2	6	n/a	FROG	608	0	2	n/a	n/a	n/a	n/a	n/a	n/a
3451226	RECOG_RESP	n/a	LTP161	ltpFR	2	6	n/a	FROG	608	0	n/a	n/a	n/a	n/a	n/a	n/a	n/a
3452518	RECOG_CONF	n/a	LTP161	ltpFR	2	6	n/a	FROG	608	n/a	2	n/a	n/a	n/a	n/a	n/a	n/a
3454406	RECOG_TARGET	n/a	LTP161	ltpFR	2	6	-1	BACON	67	0	4	-1	n/a	n/a	n/a	n/a	n/a
3455392	RECOG_RESP	n/a	LTP161	ltpFR	2	6	-1	BACON	67	0	n/a	-1	n/a	n/a	n/a	n/a	n/a
3456524	RECOG_CONF	n/a	LTP161	ltpFR	2	6	-1	BACON	67	n/a	4	-1	n/a	n/a	n/a	n/a	n/a
3458299	RECOG_TARGET	n/a	LTP161	ltpFR	2	6	0	DIAPER	459	1	5	0	n/a	n/a	n/a	n/a	n/a
3459682	RECOG_RESP	n/a	LTP161	ltpFR	2	6	0	DIAPER	459	1	n/a	0	n/a	n/a	n/a	n/a	n/a
3460844	RECOG_CONF	n/a	LTP161	ltpFR	2	6	0	DIAPER	459	n/a	5	0	n/a	n/a	n/a	n/a	n/a
3462477	RECOG_TARGET	n/a	LTP161	ltpFR	2	6	1	SHORTS	1293	1	5	0	n/a	n/a	n/a	n/a	n/a
3463194	RECOG_RESP	n/a	LTP161	ltpFR	2	6	1	SHORTS	1293	1	n/a	0	n/a	n/a	n/a	n/a	n/a
3464428	RECOG_CONF	n/a	LTP161	ltpFR	2	6	1	SHORTS	1293	n/a	5	0	n/a	n/a	n/a	n/a	n/a
3465971	RECOG_TARGET	n/a	LTP161	ltpFR	2	6	1	SHED	1277	0	1	1	n/a	n/a	n/a	n/a	n/a
3468505	RECOG_RESP	n/a	LTP161	ltpFR	2	6	1	SHED	1277	0	n/a	1	n/a	n/a	n/a	n/a	n/a
3469526	RECOG_CONF	n/a	LTP161	ltpFR	2	6	1	SHED	1277	n/a	1	1	n/a	n/a	n/a	n/a	n/a
3471430	RECOG_LURE	n/a	LTP161	ltpFR	2	6	n/a	GRASS	655	0	1	n/a	n/a	n/a	n/a	n/a	n/a
3472657	RECOG_RESP	n/a	LTP161	ltpFR	2	6	n/a	GRASS	655	0	n/a	n/a	n/a	n/a	n/a	n/a	n/a
3473737	RECOG_CONF	n/a	LTP161	ltpFR	2	6	n/a	GRASS	655	n/a	1	n/a	n/a	n/a	n/a	n/a	n/a
3475541	RECOG_TARGET	n/a	LTP161	ltpFR	2	6	0	SHERIFF	1284	1	5	3	n/a	n/a	n/a	n/a	n/a
3476354	RECOG_RESP	n/a	LTP161	ltpFR	2	6	0	SHERIFF	1284	1	n/a	3	n/a	n/a	n/a	n/a	n/a
3477397	RECOG_CONF	n/a	LTP161	ltpFR	2	6	0	SHERIFF	1284	n/a	5	3	n/a	n/a	n/a	n/a	n/a
3479185	RECOG_TARGET	n/a	LTP161	ltpFR	2	6	1	PAWN	1030	1	5	0	n/a	n/a	n/a	n/a	n/a
3479916	RECOG_RESP	n/a	LTP161	ltpFR	2	6	1	PAWN	1030	1	n/a	0	n/a	n/a	n/a	n/a	n/a
3481058	RECOG_CONF	n/a	LTP161	ltpFR	2	6	1	PAWN	1030	n/a	5	0	n/a	n/a	n/a	n/a	n/a
3482780	RECOG_TARGET	n/a	LTP161	ltpFR	2	6	1	CONSOLE	364	1	5	1	n/a	n/a	n/a	n/a	n/a
3483637	RECOG_RESP	n/a	LTP161	ltpFR	2	6	1	CONSOLE	364	1	n/a	1	n/a	n/a	n/a	n/a	n/a
3484849	RECOG_CONF	n/a	LTP161	ltpFR	2	6	1	CONSOLE	364	n/a	5	1	n/a	n/a	n/a	n/a	n/a
3486608	RECOG_TARGET	n/a	LTP161	ltpFR	2	6	0	HAMMER	680	1	5	1	n/a	n/a	n/a	n/a	n/a
3487543	RECOG_RESP	n/a	LTP161	ltpFR	2	6	0	HAMMER	680	1	n/a	1	n/a	n/a	n/a	n/a	n/a
3488671	RECOG_CONF	n/a	LTP161	ltpFR	2	6	0	HAMMER	680	n/a	5	1	n/a	n/a	n/a	n/a	n/a
3490435	RECOG_TARGET	n/a	LTP161	ltpFR	2	6	0	TIDE	1465	1	5	1	n/a	n/a	n/a	n/a	n/a
3491065	RECOG_RESP	n/a	LTP161	ltpFR	2	6	0	TIDE	1465	1	n/a	1	n/a	n/a	n/a	n/a	n/a
3492554	RECOG_CONF	n/a	LTP161	ltpFR	2	6	0	TIDE	1465	n/a	5	1	n/a	n/a	n/a	n/a	n/a
3494363	RECOG_LURE	n/a	LTP161	ltpFR	2	6	n/a	MAGAZINE	853	0	3	n/a	n/a	n/a	n/a	n/a	n/a
3495136	RECOG_RESP	n/a	LTP161	ltpFR	2	6	n/a	MAGAZINE	853	0	n/a	n/a	n/a	n/a	n/a	n/a	n/a
3496336	RECOG_CONF	n/a	LTP161	ltpFR	2	6	n/a	MAGAZINE	853	n/a	3	n/a	n/a	n/a	n/a	n/a	n/a
3498140	RECOG_TARGET	n/a	LTP161	ltpFR	2	6	1	CELERY	266	1	2	1	n/a	n/a	n/a	n/a	n/a
3499222	RECOG_RESP	n/a	LTP161	ltpFR	2	6	1	CELERY	266	1	n/a	1	n/a	n/a	n/a	n/a	n/a
3500239	RECOG_CONF	n/a	LTP161	ltpFR	2	6	1	CELERY	266	n/a	2	1	n/a	n/a	n/a	n/a	n/a
3502117	RECOG_LURE	n/a	LTP161	ltpFR	2	6	n/a	DIRT	472	0	3	n/a	n/a	n/a	n/a	n/a	n/a
3503756	RECOG_RESP	n/a	LTP161	ltpFR	2	6	n/a	DIRT	472	0	n/a	n/a	n/a	n/a	n/a	n/a	n/a
3504804	RECOG_CONF	n/a	LTP161	ltpFR	2	6	n/a	DIRT	472	n/a	3	n/a	n/a	n/a	n/a	n/a	n/a
3506611	RECOG_TARGET	n/a	LTP161	ltpFR	2	6	1	COMMITTEE	355	1	5	1	n/a	n/a	n/a	n/a	n/a
3507478	RECOG_RESP	n/a	LTP161	ltpFR	2	6	1	COMMITTEE	355	1	n/a	1	n/a	n/a	n/a	n/a	n/a
3508647	RECOG_CONF	n/a	LTP161	ltpFR	2	6	1	COMMITTEE	355	n/a	5	1	n/a	n/a	n/a	n/a	n/a
3545110	REC_START	n/a	LTP161	ltpFR	2	7	n/a	n/a	n/a	n/a	n/a	n/a	n/a	n/a	n/a	n/a	n/a
3545136	RECOG_LURE	n/a	LTP161	ltpFR	2	7	n/a	WIRE	1616	n/a	n/a	n/a	n/a	n/a	n/a	n/a	n/a
3548930	RECOG_TARGET	n/a	LTP161	ltpFR	2	7	1	CIGAR	308	1	4	0	n/a	n/a	n/a	n/a	n/a
3550253	RECOG_RESP	n/a	LTP161	ltpFR	2	7	1	CIGAR	308	1	n/a	0	n/a	n/a	n/a	n/a	n/a
3551421	RECOG_CONF	n/a	LTP161	ltpFR	2	7	1	CIGAR	308	n/a	4	0	n/a	n/a	n/a	n/a	n/a
3553291	RECOG_TARGET	n/a	LTP161	ltpFR	2	7	1	YACHT	1629	1	5	0	n/a	n/a	n/a	n/a	n/a
3553940	RECOG_RESP	n/a	LTP161	ltpFR	2	7	1	YACHT	1629	1	n/a	0	n/a	n/a	n/a	n/a	n/a
3555182	RECOG_CONF	n/a	LTP161	ltpFR	2	7	1	YACHT	1629	n/a	5	0	n/a	n/a	n/a	n/a	n/a
3556985	RECOG_LURE	n/a	LTP161	ltpFR	2	7	n/a	ROD	1203	1	2	n/a	n/a	n/a	n/a	n/a	n/a
3558100	RECOG_RESP	n/a	LTP161	ltpFR	2	7	n/a	ROD	1203	1	n/a	n/a	n/a	n/a	n/a	n/a	n/a
3559358	RECOG_CONF	n/a	LTP161	ltpFR	2	7	n/a	ROD	1203	n/a	2	n/a	n/a	n/a	n/a	n/a	n/a
3561046	RECOG_TARGET	n/a	LTP161	ltpFR	2	7	-1	WALNUT	1584	1	5	-1	n/a	n/a	n/a	n/a	n/a
3562325	RECOG_RESP	n/a	LTP161	ltpFR	2	7	-1	WALNUT	1584	1	n/a	-1	n/a	n/a	n/a	n/a	n/a
3563886	RECOG_CONF	n/a	LTP161	ltpFR	2	7	-1	WALNUT	1584	n/a	5	-1	n/a	n/a	n/a	n/a	n/a
3565690	RECOG_TARGET	n/a	LTP161	ltpFR	2	7	1	TURNIP	1521	1	3	0	n/a	n/a	n/a	n/a	n/a
3566956	RECOG_RESP	n/a	LTP161	ltpFR	2	7	1	TURNIP	1521	1	n/a	0	n/a	n/a	n/a	n/a	n/a
3568132	RECOG_CONF	n/a	LTP161	ltpFR	2	7	1	TURNIP	1521	n/a	3	0	n/a	n/a	n/a	n/a	n/a
3569816	RECOG_TARGET	n/a	LTP161	ltpFR	2	7	0	IRON	744	1	5	1	n/a	n/a	n/a	n/a	n/a
3570492	RECOG_RESP	n/a	LTP161	ltpFR	2	7	0	IRON	744	1	n/a	1	n/a	n/a	n/a	n/a	n/a
3571655	RECOG_CONF	n/a	LTP161	ltpFR	2	7	0	IRON	744	n/a	5	1	n/a	n/a	n/a	n/a	n/a
3573395	RECOG_TARGET	n/a	LTP161	ltpFR	2	7	0	BAND	78	1	4	1	n/a	n/a	n/a	n/a	n/a
3574692	RECOG_RESP	n/a	LTP161	ltpFR	2	7	0	BAND	78	1	n/a	1	n/a	n/a	n/a	n/a	n/a
3575835	RECOG_CONF	n/a	LTP161	ltpFR	2	7	0	BAND	78	n/a	4	1	n/a	n/a	n/a	n/a	n/a
3577389	RECOG_LURE	n/a	LTP161	ltpFR	2	7	n/a	SAILOR	1223	0	2	n/a	n/a	n/a	n/a	n/a	n/a
3578494	RECOG_RESP	n/a	LTP161	ltpFR	2	7	n/a	SAILOR	1223	0	n/a	n/a	n/a	n/a	n/a	n/a	n/a
3579684	RECOG_CONF	n/a	LTP161	ltpFR	2	7	n/a	SAILOR	1223	n/a	2	n/a	n/a	n/a	n/a	n/a	n/a
3581416	RECOG_TARGET	n/a	LTP161	ltpFR	2	7	-1	EMPEROR	529	1	5	-1	n/a	n/a	n/a	n/a	n/a
3581991	RECOG_RESP	n/a	LTP161	ltpFR	2	7	-1	EMPEROR	529	1	n/a	-1	n/a	n/a	n/a	n/a	n/a
3583284	RECOG_CONF	n/a	LTP161	ltpFR	2	7	-1	EMPEROR	529	n/a	5	-1	n/a	n/a	n/a	n/a	n/a
3585093	RECOG_TARGET	n/a	LTP161	ltpFR	2	7	0	SAUSAGE	1238	1	5	1	n/a	n/a	n/a	n/a	n/a
3585672	RECOG_RESP	n/a	LTP161	ltpFR	2	7	0	SAUSAGE	1238	1	n/a	1	n/a	n/a	n/a	n/a	n/a
3586885	RECOG_CONF	n/a	LTP161	ltpFR	2	7	0	SAUSAGE	1238	n/a	5	1	n/a	n/a	n/a	n/a	n/a
3588672	RECOG_TARGET	n/a	LTP161	ltpFR	2	7	1	WALRUS	1585	1	3	1	n/a	n/a	n/a	n/a	n/a
3589863	RECOG_RESP	n/a	LTP161	ltpFR	2	7	1	WALRUS	1585	1	n/a	1	n/a	n/a	n/a	n/a	n/a
3590941	RECOG_CONF	n/a	LTP161	ltpFR	2	7	1	WALRUS	1585	n/a	3	1	n/a	n/a	n/a	n/a	n/a
3592783	RECOG_LURE	n/a	LTP161	ltpFR	2	7	n/a	HEAD	695	1	2	n/a	n/a	n/a	n/a	n/a	n/a
3593390	RECOG_RESP	n/a	LTP161	ltpFR	2	7	n/a	HEAD	695	1	n/a	n/a	n/a	n/a	n/a	n/a	n/a
3594693	RECOG_CONF	n/a	LTP161	ltpFR	2	7	n/a	HEAD	695	n/a	2	n/a	n/a	n/a	n/a	n/a	n/a
3596411	RECOG_TARGET	n/a	LTP161	ltpFR	2	7	-1	DINNER	468	1	5	-1	n/a	n/a	n/a	n/a	n/a
3597146	RECOG_RESP	n/a	LTP161	ltpFR	2	7	-1	DINNER	468	1	n/a	-1	n/a	n/a	n/a	n/a	n/a
3598501	RECOG_CONF	n/a	LTP161	ltpFR	2	7	-1	DINNER	468	n/a	5	-1	n/a	n/a	n/a	n/a	n/a
3600554	RECOG_TARGET	n/a	LTP161	ltpFR	2	7	1	CART	250	0	3	0	n/a	n/a	n/a	n/a	n/a
3601826	RECOG_RESP	n/a	LTP161	ltpFR	2	7	1	CART	250	0	n/a	0	n/a	n/a	n/a	n/a	n/a
3602983	RECOG_CONF	n/a	LTP161	ltpFR	2	7	1	CART	250	n/a	3	0	n/a	n/a	n/a	n/a	n/a
3604748	RECOG_TARGET	n/a	LTP161	ltpFR	2	7	0	ALMANAC	17	1	3	0	n/a	n/a	n/a	n/a	n/a
3605368	RECOG_RESP	n/a	LTP161	ltpFR	2	7	0	ALMANAC	17	1	n/a	0	n/a	n/a	n/a	n/a	n/a
3606438	RECOG_CONF	n/a	LTP161	ltpFR	2	7	0	ALMANAC	17	n/a	3	0	n/a	n/a	n/a	n/a	n/a
3608359	RECOG_TARGET	n/a	LTP161	ltpFR	2	7	0	POLE	1097	1	3	1	n/a	n/a	n/a	n/a	n/a
3609154	RECOG_RESP	n/a	LTP161	ltpFR	2	7	0	POLE	1097	1	n/a	1	n/a	n/a	n/a	n/a	n/a
3610402	RECOG_CONF	n/a	LTP161	ltpFR	2	7	0	POLE	1097	n/a	3	1	n/a	n/a	n/a	n/a	n/a
3612269	RECOG_LURE	n/a	LTP161	ltpFR	2	7	n/a	MUMMY	932	0	4	n/a	n/a	n/a	n/a	n/a	n/a
3613320	RECOG_RESP	n/a	LTP161	ltpFR	2	7	n/a	MUMMY	932	0	n/a	n/a	n/a	n/a	n/a	n/a	n/a
3614500	RECOG_CONF	n/a	LTP161	ltpFR	2	7	n/a	MUMMY	932	n/a	4	n/a	n/a	n/a	n/a	n/a	n/a
3616331	RECOG_TARGET	n/a	LTP161	ltpFR	2	7	0	MOSS	918	0	2	1	n/a	n/a	n/a	n/a	n/a
3617585	RECOG_RESP	n/a	LTP161	ltpFR	2	7	0	MOSS	918	0	n/a	1	n/a	n/a	n/a	n/a	n/a
3618663	RECOG_CONF	n/a	LTP161	ltpFR	2	7	0	MOSS	918	n/a	2	1	n/a	n/a	n/a	n/a	n/a
3620574	RECOG_TARGET	n/a	LTP161	ltpFR	2	7	-1	FORT	595	1	5	-1	n/a	n/a	n/a	n/a	n/a
3621486	RECOG_RESP	n/a	LTP161	ltpFR	2	7	-1	FORT	595	1	n/a	-1	n/a	n/a	n/a	n/a	n/a
3622858	RECOG_CONF	n/a	LTP161	ltpFR	2	7	-1	FORT	595	n/a	5	-1	n/a	n/a	n/a	n/a	n/a
3628141	REC_START	n/a	LTP161	ltpFR	2	8	n/a	n/a	n/a	n/a	n/a	n/a	n/a	n/a	n/a	n/a	n/a
3628179	RECOG_LURE	n/a	LTP161	ltpFR	2	8	n/a	FOE	587	0	4	n/a	n/a	n/a	n/a	n/a	n/a
3629667	RECOG_RESP	n/a	LTP161	ltpFR	2	8	n/a	FOE	587	0	n/a	n/a	n/a	n/a	n/a	n/a	n/a
3631150	RECOG_CONF	n/a	LTP161	ltpFR	2	8	n/a	FOE	587	n/a	4	n/a	n/a	n/a	n/a	n/a	n/a
3633038	RECOG_TARGET	n/a	LTP161	ltpFR	2	8	1	ESSAY	540	1	4	0	n/a	n/a	n/a	n/a	n/a
3633733	RECOG_RESP	n/a	LTP161	ltpFR	2	8	1	ESSAY	540	1	n/a	0	n/a	n/a	n/a	n/a	n/a
3634910	RECOG_CONF	n/a	LTP161	ltpFR	2	8	1	ESSAY	540	n/a	4	0	n/a	n/a	n/a	n/a	n/a
3636816	RECOG_LURE	n/a	LTP161	ltpFR	2	8	n/a	CONCRETE	361	1	4	n/a	n/a	n/a	n/a	n/a	n/a
3637634	RECOG_RESP	n/a	LTP161	ltpFR	2	8	n/a	CONCRETE	361	1	n/a	n/a	n/a	n/a	n/a	n/a	n/a
3638755	RECOG_CONF	n/a	LTP161	ltpFR	2	8	n/a	CONCRETE	361	n/a	4	n/a	n/a	n/a	n/a	n/a	n/a
3640461	RECOG_LURE	n/a	LTP161	ltpFR	2	8	n/a	TIMBER	1469	0	3	n/a	n/a	n/a	n/a	n/a	n/a
3641216	RECOG_RESP	n/a	LTP161	ltpFR	2	8	n/a	TIMBER	1469	0	n/a	n/a	n/a	n/a	n/a	n/a	n/a
3642324	RECOG_CONF	n/a	LTP161	ltpFR	2	8	n/a	TIMBER	1469	n/a	3	n/a	n/a	n/a	n/a	n/a	n/a
3644188	RECOG_TARGET	n/a	LTP161	ltpFR	2	8	1	THIMBLE	1458	1	5	0	n/a	n/a	n/a	n/a	n/a
3645427	RECOG_RESP	n/a	LTP161	ltpFR	2	8	1	THIMBLE	1458	1	n/a	0	n/a	n/a	n/a	n/a	n/a
3646557	RECOG_CONF	n/a	LTP161	ltpFR	2	8	1	THIMBLE	1458	n/a	5	0	n/a	n/a	n/a	n/a	n/a
3648433	RECOG_LURE	n/a	LTP161	ltpFR	2	8	n/a	POSSUM	1112	0	2	n/a	n/a	n/a	n/a	n/a	n/a
3649357	RECOG_RESP	n/a	LTP161	ltpFR	2	8	n/a	POSSUM	1112	0	n/a	n/a	n/a	n/a	n/a	n/a	n/a
3650363	RECOG_CONF	n/a	LTP161	ltpFR	2	8	n/a	POSSUM	1112	n/a	2	n/a	n/a	n/a	n/a	n/a	n/a
3652160	RECOG_LURE	n/a	LTP161	ltpFR	2	8	n/a	WITNESS	1618	1	4	n/a	n/a	n/a	n/a	n/a	n/a
3652952	RECOG_RESP	n/a	LTP161	ltpFR	2	8	n/a	WITNESS	1618	1	n/a	n/a	n/a	n/a	n/a	n/a	n/a
3654038	RECOG_CONF	n/a	LTP161	ltpFR	2	8	n/a	WITNESS	1618	n/a	4	n/a	n/a	n/a	n/a	n/a	n/a
3656104	RECOG_LURE	n/a	LTP161	ltpFR	2	8	n/a	KITCHEN	778	0	3	n/a	n/a	n/a	n/a	n/a	n/a
3657080	RECOG_RESP	n/a	LTP161	ltpFR	2	8	n/a	KITCHEN	778	0	n/a	n/a	n/a	n/a	n/a	n/a	n/a
3658068	RECOG_CONF	n/a	LTP161	ltpFR	2	8	n/a	KITCHEN	778	n/a	3	n/a	n/a	n/a	n/a	n/a	n/a
3660081	RECOG_LURE	n/a	LTP161	ltpFR	2	8	n/a	GYM	674	0	2	n/a	n/a	n/a	n/a	n/a	n/a
3661293	RECOG_RESP	n/a	LTP161	ltpFR	2	8	n/a	GYM	674	0	n/a	n/a	n/a	n/a	n/a	n/a	n/a
3662265	RECOG_CONF	n/a	LTP161	ltpFR	2	8	n/a	GYM	674	n/a	2	n/a	n/a	n/a	n/a	n/a	n/a
3664659	RECOG_LURE	n/a	LTP161	ltpFR	2	8	n/a	BARLEY	88	0	3	n/a	n/a	n/a	n/a	n/a	n/a
3665437	RECOG_RESP	n/a	LTP161	ltpFR	2	8	n/a	BARLEY	88	0	n/a	n/a	n/a	n/a	n/a	n/a	n/a
3666455	RECOG_CONF	n/a	LTP161	ltpFR	2	8	n/a	BARLEY	88	n/a	3	n/a	n/a	n/a	n/a	n/a	n/a
3668420	RECOG_LURE	n/a	LTP161	ltpFR	2	8	n/a	HOSPITAL	721	0	4	n/a	n/a	n/a	n/a	n/a	n/a
3669213	RECOG_RESP	n/a	LTP161	ltpFR	2	8	n/a	HOSPITAL	721	0	n/a	n/a	n/a	n/a	n/a	n/a	n/a
3670235	RECOG_CONF	n/a	LTP161	ltpFR	2	8	n/a	HOSPITAL	721	n/a	4	n/a	n/a	n/a	n/a	n/a	n/a
3672030	RECOG_LURE	n/a	LTP161	ltpFR	2	8	n/a	KEY	773	0	4	n/a	n/a	n/a	n/a	n/a	n/a
3672904	RECOG_RESP	n/a	LTP161	ltpFR	2	8	n/a	KEY	773	0	n/a	n/a	n/a	n/a	n/a	n/a	n/a
3674126	RECOG_CONF	n/a	LTP161	ltpFR	2	8	n/a	KEY	773	n/a	4	n/a	n/a	n/a	n/a	n/a	n/a
3675907	RECOG_TARGET	n/a	LTP161	ltpFR	2	8	-1	SPONGE	1355	1	5	-1	n/a	n/a	n/a	n/a	n/a
3676561	RECOG_RESP	n/a	LTP161	ltpFR	2	8	-1	SPONGE	1355	1	n/a	-1	n/a	n/a	n/a	n/a	n/a
3677748	RECOG_CONF	n/a	LTP161	ltpFR	2	8	-1	SPONGE	1355	n/a	5	-1	n/a	n/a	n/a	n/a	n/a
3679769	RECOG_LURE	n/a	LTP161	ltpFR	2	8	n/a	FLEET	578	0	3	n/a	n/a	n/a	n/a	n/a	n/a
3681350	RECOG_RESP	n/a	LTP161	ltpFR	2	8	n/a	FLEET	578	0	n/a	n/a	n/a	n/a	n/a	n/a	n/a
3682467	RECOG_CONF	n/a	LTP161	ltpFR	2	8	n/a	FLEET	578	n/a	3	n/a	n/a	n/a	n/a	n/a	n/a
3684245	RECOG_LURE	n/a	LTP161	ltpFR	2	8	n/a	CLOCK	325	0	4	n/a	n/a	n/a	n/a	n/a	n/a
3685081	RECOG_RESP	n/a	LTP161	ltpFR	2	8	n/a	CLOCK	325	0	n/a	n/a	n/a	n/a	n/a	n/a	n/a
3686157	RECOG_CONF	n/a	LTP161	ltpFR	2	8	n/a	CLOCK	325	n/a	4	n/a	n/a	n/a	n/a	n/a	n/a
3687791	RECOG_TARGET	n/a	LTP161	ltpFR	2	8	-1	COOK	372	0	2	-1	n/a	n/a	n/a	n/a	n/a
3688937	RECOG_RESP	n/a	LTP161	ltpFR	2	8	-1	COOK	372	0	n/a	-1	n/a	n/a	n/a	n/a	n/a
3689924	RECOG_CONF	n/a	LTP161	ltpFR	2	8	-1	COOK	372	n/a	2	-1	n/a	n/a	n/a	n/a	n/a
3691800	RECOG_LURE	n/a	LTP161	ltpFR	2	8	n/a	EGYPT	519	0	3	n/a	n/a	n/a	n/a	n/a	n/a
3692649	RECOG_RESP	n/a	LTP161	ltpFR	2	8	n/a	EGYPT	519	0	n/a	n/a	n/a	n/a	n/a	n/a	n/a
3693657	RECOG_CONF	n/a	LTP161	ltpFR	2	8	n/a	EGYPT	519	n/a	3	n/a	n/a	n/a	n/a	n/a	n/a
3695596	RECOG_TARGET	n/a	LTP161	ltpFR	2	8	-1	YARD	1630	1	5	-1	n/a	n/a	n/a	n/a	n/a
3696684	RECOG_RESP	n/a	LTP161	ltpFR	2	8	-1	YARD	1630	1	n/a	-1	n/a	n/a	n/a	n/a	n/a
3697987	RECOG_CONF	n/a	LTP161	ltpFR	2	8	-1	YARD	1630	n/a	5	-1	n/a	n/a	n/a	n/a	n/a
3699822	RECOG_TARGET	n/a	LTP161	ltpFR	2	8	-1	PARSLEY	1016	0	1	-1	n/a	n/a	n/a	n/a	n/a
3704028	RECOG_RESP	n/a	LTP161	ltpFR	2	8	-1	PARSLEY	1016	0	n/a	-1	n/a	n/a	n/a	n/a	n/a
3705670	RECOG_CONF	n/a	LTP161	ltpFR	2	8	-1	PARSLEY	1016	n/a	1	-1	n/a	n/a	n/a	n/a	n/a
3707661	RECOG_LURE	n/a	LTP161	ltpFR	2	8	n/a	LOCK	838	0	2	n/a	n/a	n/a	n/a	n/a	n/a
3709396	RECOG_RESP	n/a	LTP161	ltpFR	2	8	n/a	LOCK	838	0	n/a	n/a	n/a	n/a	n/a	n/a	n/a
3710437	RECOG_CONF	n/a	LTP161	ltpFR	2	8	n/a	LOCK	838	n/a	2	n/a	n/a	n/a	n/a	n/a	n/a
3717933	REC_START	n/a	LTP161	ltpFR	2	9	n/a	n/a	n/a	n/a	n/a	n/a	n/a	n/a	n/a	n/a	n/a
3717961	RECOG_TARGET	n/a	LTP161	ltpFR	2	9	0	WHEEL	1603	1	4	0	n/a	n/a	n/a	n/a	n/a
3718880	RECOG_RESP	n/a	LTP161	ltpFR	2	9	0	WHEEL	1603	1	n/a	0	n/a	n/a	n/a	n/a	n/a
3719986	RECOG_CONF	n/a	LTP161	ltpFR	2	9	0	WHEEL	1603	n/a	4	0	n/a	n/a	n/a	n/a	n/a
3721806	RECOG_LURE	n/a	LTP161	ltpFR	2	9	n/a	LAMP	798	0	3	n/a	n/a	n/a	n/a	n/a	n/a
3722822	RECOG_RESP	n/a	LTP161	ltpFR	2	9	n/a	LAMP	798	0	n/a	n/a	n/a	n/a	n/a	n/a	n/a
3723854	RECOG_CONF	n/a	LTP161	ltpFR	2	9	n/a	LAMP	798	n/a	3	n/a	n/a	n/a	n/a	n/a	n/a
3725734	RECOG_TARGET	n/a	LTP161	ltpFR	2	9	0	STICKER	1382	1	5	0	n/a	n/a	n/a	n/a	n/a
3730114	RECOG_RESP	n/a	LTP161	ltpFR	2	9	0	STICKER	1382	1	n/a	0	n/a	n/a	n/a	n/a	n/a
3731368	RECOG_CONF	n/a	LTP161	ltpFR	2	9	0	STICKER	1382	n/a	5	0	n/a	n/a	n/a	n/a	n/a
3733222	RECOG_LURE	n/a	LTP161	ltpFR	2	9	n/a	DART	440	0	4	n/a	n/a	n/a	n/a	n/a	n/a
3734125	RECOG_RESP	n/a	LTP161	ltpFR	2	9	n/a	DART	440	0	n/a	n/a	n/a	n/a	n/a	n/a	n/a
3735358	RECOG_CONF	n/a	LTP161	ltpFR	2	9	n/a	DART	440	n/a	4	n/a	n/a	n/a	n/a	n/a	n/a
3737616	RECOG_TARGET	n/a	LTP161	ltpFR	2	9	0	HOME	712	1	5	0	n/a	n/a	n/a	n/a	n/a
3738392	RECOG_RESP	n/a	LTP161	ltpFR	2	9	0	HOME	712	1	n/a	0	n/a	n/a	n/a	n/a	n/a
3739484	RECOG_CONF	n/a	LTP161	ltpFR	2	9	0	HOME	712	n/a	5	0	n/a	n/a	n/a	n/a	n/a
3741193	RECOG_LURE	n/a	LTP161	ltpFR	2	9	n/a	TART	1436	0	4	n/a	n/a	n/a	n/a	n/a	n/a
3742173	RECOG_RESP	n/a	LTP161	ltpFR	2	9	n/a	TART	1436	0	n/a	n/a	n/a	n/a	n/a	n/a	n/a
3743839	RECOG_CONF	n/a	LTP161	ltpFR	2	9	n/a	TART	1436	n/a	4	n/a	n/a	n/a	n/a	n/a	n/a
3745654	RECOG_TARGET	n/a	LTP161	ltpFR	2	9	1	GARLIC	624	1	5	0	n/a	n/a	n/a	n/a	n/a
3746300	RECOG_RESP	n/a	LTP161	ltpFR	2	9	1	GARLIC	624	1	n/a	0	n/a	n/a	n/a	n/a	n/a
3747381	RECOG_CONF	n/a	LTP161	ltpFR	2	9	1	GARLIC	624	n/a	5	0	n/a	n/a	n/a	n/a	n/a
3749131	RECOG_LURE	n/a	LTP161	ltpFR	2	9	n/a	GRATE	657	1	4	n/a	n/a	n/a	n/a	n/a	n/a
3754095	RECOG_RESP	n/a	LTP161	ltpFR	2	9	n/a	GRATE	657	1	n/a	n/a	n/a	n/a	n/a	n/a	n/a
3755115	RECOG_CONF	n/a	LTP161	ltpFR	2	9	n/a	GRATE	657	n/a	4	n/a	n/a	n/a	n/a	n/a	n/a
3756903	RECOG_TARGET	n/a	LTP161	ltpFR	2	9	1	DASHBOARD	441	1	4	0	n/a	n/a	n/a	n/a	n/a
3757926	RECOG_RESP	n/a	LTP161	ltpFR	2	9	1	DASHBOARD	441	1	n/a	0	n/a	n/a	n/a	n/a	n/a
3758983	RECOG_CONF	n/a	LTP161	ltpFR	2	9	1	DASHBOARD	441	n/a	4	0	n/a	n/a	n/a	n/a	n/a
3760665	RECOG_LURE	n/a	LTP161	ltpFR	2	9	n/a	CUSTARD	429	0	4	n/a	n/a	n/a	n/a	n/a	n/a
3761454	RECOG_RESP	n/a	LTP161	ltpFR	2	9	n/a	CUSTARD	429	0	n/a	n/a	n/a	n/a	n/a	n/a	n/a
3762577	RECOG_CONF	n/a	LTP161	ltpFR	2	9	n/a	CUSTARD	429	n/a	4	n/a	n/a	n/a	n/a	n/a	n/a
3764176	RECOG_TARGET	n/a	LTP161	ltpFR	2	9	1	LIMB	822	1	5	0	n/a	n/a	n/a	n/a	n/a
3767032	RECOG_RESP	n/a	LTP161	ltpFR	2	9	1	LIMB	822	1	n/a	0	n/a	n/a	n/a	n/a	n/a
3768044	RECOG_CONF	n/a	LTP161	ltpFR	2	9	1	LIMB	822	n/a	5	0	n/a	n/a	n/a	n/a	n/a
3769834	RECOG_TARGET	n/a	LTP161	ltpFR	2	9	0	STREAM	1392	1	3	1	n/a	n/a	n/a	n/a	n/a
3770852	RECOG_RESP	n/a	LTP161	ltpFR	2	9	0	STREAM	1392	1	n/a	1	n/a	n/a	n/a	n/a	n/a
3772037	RECOG_CONF	n/a	LTP161	ltpFR	2	9	0	STREAM	1392	n/a	3	1	n/a	n/a	n/a	n/a	n/a
3773662	RECOG_TARGET	n/a	LTP161	ltpFR	2	9	1	HAY	693	1	5	0	n/a	n/a	n/a	n/a	n/a
3774295	RECOG_RESP	n/a	LTP161	ltpFR	2	9	1	HAY	693	1	n/a	0	n/a	n/a	n/a	n/a	n/a
3775289	RECOG_CONF	n/a	LTP161	ltpFR	2	9	1	HAY	693	n/a	5	0	n/a	n/a	n/a	n/a	n/a
3776890	RECOG_TARGET	n/a	LTP161	ltpFR	2	9	1	WAX	1597	1	5	0	n/a	n/a	n/a	n/a	n/a
3777702	RECOG_RESP	n/a	LTP161	ltpFR	2	9	1	WAX	1597	1	n/a	0	n/a	n/a	n/a	n/a	n/a
3778720	RECOG_CONF	n/a	LTP161	ltpFR	2	9	1	WAX	1597	n/a	5	0	n/a	n/a	n/a	n/a	n/a
3780569	RECOG_TARGET	n/a	LTP161	ltpFR	2	9	0	SAP	1233	1	5	0	n/a	n/a	n/a	n/a	n/a
3781394	RECOG_RESP	n/a	LTP161	ltpFR	2	9	0	SAP	1233	1	n/a	0	n/a	n/a	n/a	n/a	n/a
3782408	RECOG_CONF	n/a	LTP161	ltpFR	2	9	0	SAP	1233	n/a	5	0	n/a	n/a	n/a	n/a	n/a
3784262	RECOG_TARGET	n/a	LTP161	ltpFR	2	9	1	SLUG	1329	1	2	1	n/a	n/a	n/a	n/a	n/a
3786966	RECOG_RESP	n/a	LTP161	ltpFR	2	9	1	SLUG	1329	1	n/a	1	n/a	n/a	n/a	n/a	n/a
3788159	RECOG_CONF	n/a	LTP161	ltpFR	2	9	1	SLUG	1329	n/a	2	1	n/a	n/a	n/a	n/a	n/a
3790004	RECOG_TARGET	n/a	LTP161	ltpFR	2	9	1	ONION	977	1	5	0	n/a	n/a	n/a	n/a	n/a
3794573	RECOG_RESP	n/a	LTP161	ltpFR	2	9	1	ONION	977	1	n/a	0	n/a	n/a	n/a	n/a	n/a
3795545	RECOG_CONF	n/a	LTP161	ltpFR	2	9	1	ONION	977	n/a	5	0	n/a	n/a	n/a	n/a	n/a
3797377	RECOG_LURE	n/a	LTP161	ltpFR	2	9	n/a	CANDY	230	0	3	n/a	n/a	n/a	n/a	n/a	n/a
3800246	RECOG_RESP	n/a	LTP161	ltpFR	2	9	n/a	CANDY	230	0	n/a	n/a	n/a	n/a	n/a	n/a	n/a
3801258	RECOG_CONF	n/a	LTP161	ltpFR	2	9	n/a	CANDY	230	n/a	3	n/a	n/a	n/a	n/a	n/a	n/a
3803084	RECOG_LURE	n/a	LTP161	ltpFR	2	9	n/a	OMELET	976	0	5	n/a	n/a	n/a	n/a	n/a	n/a
3803957	RECOG_RESP	n/a	LTP161	ltpFR	2	9	n/a	OMELET	976	0	n/a	n/a	n/a	n/a	n/a	n/a	n/a
3804950	RECOG_CONF	n/a	LTP161	ltpFR	2	9	n/a	OMELET	976	n/a	5	n/a	n/a	n/a	n/a	n/a	n/a
3806746	RECOG_TARGET	n/a	LTP161	ltpFR	2	9	0	VENUS	1557	1	5	1	n/a	n/a	n/a	n/a	n/a
3807466	RECOG_RESP	n/a	LTP161	ltpFR	2	9	0	VENUS	1557	1	n/a	1	n/a	n/a	n/a	n/a	n/a
3808582	RECOG_CONF	n/a	LTP161	ltpFR	2	9	0	VENUS	1557	n/a	5	1	n/a	n/a	n/a	n/a	n/a
3812234	REC_START	n/a	LTP161	ltpFR	2	10	n/a	n/a	n/a	n/a	n/a	n/a	n/a	n/a	n/a	n/a	n/a
3812270	RECOG_TARGET	n/a	LTP161	ltpFR	2	10	1	BUGGY	188	1	5	1	n/a	n/a	n/a	n/a	n/a
3813102	RECOG_RESP	n/a	LTP161	ltpFR	2	10	1	BUGGY	188	1	n/a	1	n/a	n/a	n/a	n/a	n/a
3814189	RECOG_CONF	n/a	LTP161	ltpFR	2	10	1	BUGGY	188	n/a	5	1	n/a	n/a	n/a	n/a	n/a
3815882	RECOG_TARGET	n/a	LTP161	ltpFR	2	10	1	KNUCKLE	789	1	4	0	n/a	n/a	n/a	n/a	n/a
3817078	RECOG_RESP	n/a	LTP161	ltpFR	2	10	1	KNUCKLE	789	1	n/a	0	n/a	n/a	n/a	n/a	n/a
3818178	RECOG_CONF	n/a	LTP161	ltpFR	2	10	1	KNUCKLE	789	n/a	4	0	n/a	n/a	n/a	n/a	n/a
3819992	RECOG_TARGET	n/a	LTP161	ltpFR	2	10	0	POPE	1105	1	5	0	n/a	n/a	n/a	n/a	n/a
3821811	RECOG_RESP	n/a	LTP161	ltpFR	2	10	0	POPE	1105	1	n/a	0	n/a	n/a	n/a	n/a	n/a
