mstime	trial_type	stim_file	subject	experiment	session	trial	item_name	item_num	list	answer	test_x	test_y	test_z
0	SESS_START	n/a	LTP391	ltpFR2	0	n/a	n/a	n/a	n/a	n/a	0	0	0
153333	START	n/a	LTP391	ltpFR2	0	n/a	n/a	n/a	-1	n/a	n/a	n/a	n/a
153347	PROB	n/a	LTP391	ltpFR2	0	n/a	n/a	n/a	-1	19	5	6	8
157696	PROB	n/a	LTP391	ltpFR2	0	n/a	n/a	n/a	-1	24	7	8	9
164115	STOP	n/a	LTP391	ltpFR2	0	n/a	n/a	n/a	-1	n/a	n/a	n/a	n/a
240262	DISTRACTOR	n/a	LTP391	ltpFR2	0	1	n/a	n/a	n/a	n/a	0	0	0
240262	START	n/a	LTP391	ltpFR2	0	n/a	n/a	n/a	1	n/a	n/a	n/a	n/a
240279	PROB	n/a	LTP391	ltpFR2	0	n/a	n/a	n/a	1	14	3	5	6
243861	PROB	n/a	LTP391	ltpFR2	0	n/a	n/a	n/a	1	17	6	7	6
246661	PROB	n/a	LTP391	ltpFR2	0	n/a	n/a	n/a	1	21	8	4	9
253978	PROB	n/a	LTP391	ltpFR2	0	n/a	n/a	n/a	1	24	6	9	9
258677	PROB	n/a	LTP391	ltpFR2	0	n/a	n/a	n/a	1	15	1	5	9
261928	PROB	n/a	LTP391	ltpFR2	0	n/a	n/a	n/a	1	18	9	5	4
264030	STOP	n/a	LTP391	ltpFR2	0	n/a	n/a	n/a	1	n/a	n/a	n/a	n/a
265212	WORD	wordpools/wasnorm_wordpool_576.txt	LTP391	ltpFR2	0	1	BIKE	125	n/a	n/a	0	0	0
267827	WORD	wordpools/wasnorm_wordpool_576.txt	LTP391	ltpFR2	0	1	TOMBSTONE	1478	n/a	n/a	0	0	0
270595	WORD	wordpools/wasnorm_wordpool_576.txt	LTP391	ltpFR2	0	1	TUBA	1515	n/a	n/a	0	0	0
273412	WORD	wordpools/wasnorm_wordpool_576.txt	LTP391	ltpFR2	0	1	BANQUET	86	n/a	n/a	0	0	0
276028	WORD	wordpools/wasnorm_wordpool_576.txt	LTP391	ltpFR2	0	1	BANKER	84	n/a	n/a	0	0	0
278777	WORD	wordpools/wasnorm_wordpool_576.txt	LTP391	ltpFR2	0	1	QUARTER	1148	n/a	n/a	0	0	0
281411	WORD	wordpools/wasnorm_wordpool_576.txt	LTP391	ltpFR2	0	1	AWARD	63	n/a	n/a	0	0	0
283910	WORD	wordpools/wasnorm_wordpool_576.txt	LTP391	ltpFR2	0	1	CRATER	400	n/a	n/a	0	0	0
286694	WORD	wordpools/wasnorm_wordpool_576.txt	LTP391	ltpFR2	0	1	DONKEY	484	n/a	n/a	0	0	0
289478	WORD	wordpools/wasnorm_wordpool_576.txt	LTP391	ltpFR2	0	1	PRINCE	1124	n/a	n/a	0	0	0
292245	WORD	wordpools/wasnorm_wordpool_576.txt	LTP391	ltpFR2	0	1	PARTNER	1017	n/a	n/a	0	0	0
294744	WORD	wordpools/wasnorm_wordpool_576.txt	LTP391	ltpFR2	0	1	BOYFRIEND	162	n/a	n/a	0	0	0
297178	WORD	wordpools/wasnorm_wordpool_576.txt	LTP391	ltpFR2	0	1	CRICKET	408	n/a	n/a	0	0	0
299760	WORD	wordpools/wasnorm_wordpool_576.txt	LTP391	ltpFR2	0	1	LOFT	840	n/a	n/a	0	0	0
302244	WORD	wordpools/wasnorm_wordpool_576.txt	LTP391	ltpFR2	0	1	STAKE	1368	n/a	n/a	0	0	0
304793	WORD	wordpools/wasnorm_wordpool_576.txt	LTP391	ltpFR2	0	1	COUNTY	389	n/a	n/a	0	0	0
307578	WORD	wordpools/wasnorm_wordpool_576.txt	LTP391	ltpFR2	0	1	JELLY	755	n/a	n/a	0	0	0
310061	WORD	wordpools/wasnorm_wordpool_576.txt	LTP391	ltpFR2	0	1	KNIFE	785	n/a	n/a	0	0	0
312660	WORD	wordpools/wasnorm_wordpool_576.txt	LTP391	ltpFR2	0	1	CREATURE	403	n/a	n/a	0	0	0
315227	WORD	wordpools/wasnorm_wordpool_576.txt	LTP391	ltpFR2	0	1	FLUTE	585	n/a	n/a	0	0	0
317961	WORD	wordpools/wasnorm_wordpool_576.txt	LTP391	ltpFR2	0	1	PALACE	1006	n/a	n/a	0	0	0
320411	WORD	wordpools/wasnorm_wordpool_576.txt	LTP391	ltpFR2	0	1	COUSIN	392	n/a	n/a	0	0	0
323194	WORD	wordpools/wasnorm_wordpool_576.txt	LTP391	ltpFR2	0	1	SEAGULL	1261	n/a	n/a	0	0	0
325977	WORD	wordpools/wasnorm_wordpool_576.txt	LTP391	ltpFR2	0	1	PEDAL	1037	n/a	n/a	0	0	0
327594	START	n/a	LTP391	ltpFR2	0	n/a	n/a	n/a	2	n/a	n/a	n/a	n/a
328544	DISTRACTOR	n/a	LTP391	ltpFR2	0	1	n/a	n/a	n/a	n/a	0	0	0
328561	PROB	n/a	LTP391	ltpFR2	0	n/a	n/a	n/a	2	11	1	7	3
331793	PROB	n/a	LTP391	ltpFR2	0	n/a	n/a	n/a	2	20	5	8	7
334944	PROB	n/a	LTP391	ltpFR2	0	n/a	n/a	n/a	2	18	8	8	2
337110	PROB	n/a	LTP391	ltpFR2	0	n/a	n/a	n/a	2	15	8	6	1
339294	PROB	n/a	LTP391	ltpFR2	0	n/a	n/a	n/a	2	6	1	4	1
341177	PROB	n/a	LTP391	ltpFR2	0	n/a	n/a	n/a	2	13	1	4	8
344177	PROB	n/a	LTP391	ltpFR2	0	n/a	n/a	n/a	2	14	7	6	3
346444	PROB	n/a	LTP391	ltpFR2	0	n/a	n/a	n/a	2	12	3	5	4
351594	STOP	n/a	LTP391	ltpFR2	0	n/a	n/a	n/a	2	n/a	n/a	n/a	n/a
353477	REC_START	n/a	LTP391	ltpFR2	0	1	n/a	n/a	n/a	n/a	0	0	0
354627	REC_WORD	wordpools/wasnorm_wordpool_576.txt	LTP391	ltpFR2	0	1	BIKE	125	n/a	n/a	0	0	0
355478	REC_WORD	wordpools/wasnorm_wordpool_576.txt	LTP391	ltpFR2	0	1	PEDAL	1037	n/a	n/a	0	0	0
356151	REC_WORD	wordpools/wasnorm_wordpool_576.txt	LTP391	ltpFR2	0	1	CRATER	400	n/a	n/a	0	0	0
357222	REC_WORD	wordpools/wasnorm_wordpool_576.txt	LTP391	ltpFR2	0	1	TOMBSTONE	1478	n/a	n/a	0	0	0
358259	REC_WORD	wordpools/wasnorm_wordpool_576.txt	LTP391	ltpFR2	0	1	TUBA	1515	n/a	n/a	0	0	0
359261	REC_WORD	wordpools/wasnorm_wordpool_576.txt	LTP391	ltpFR2	0	1	FLUTE	585	n/a	n/a	0	0	0
360573	REC_WORD	wordpools/wasnorm_wordpool_576.txt	LTP391	ltpFR2	0	1	BOYFRIEND	162	n/a	n/a	0	0	0
362561	REC_WORD	wordpools/wasnorm_wordpool_576.txt	LTP391	ltpFR2	0	1	JELLY	755	n/a	n/a	0	0	0
366376	REC_WORD	wordpools/wasnorm_wordpool_576.txt	LTP391	ltpFR2	0	1	CREATURE	403	n/a	n/a	0	0	0
370366	REC_WORD	wordpools/wasnorm_wordpool_576.txt	LTP391	ltpFR2	0	1	BANQUET	86	n/a	n/a	0	0	0
371816	REC_WORD	wordpools/wasnorm_wordpool_576.txt	LTP391	ltpFR2	0	1	AWARD	63	n/a	n/a	0	0	0
373576	REC_WORD	wordpools/wasnorm_wordpool_576.txt	LTP391	ltpFR2	0	1	PALACE	1006	n/a	n/a	0	0	0
383631	REC_WORD	wordpools/wasnorm_wordpool_576.txt	LTP391	ltpFR2	0	1	KNIFE	785	n/a	n/a	0	0	0
396901	REC_WORD	wordpools/wasnorm_wordpool_576.txt	LTP391	ltpFR2	0	1	SEAGULL	1261	n/a	n/a	0	0	0
414856	REC_WORD	wordpools/wasnorm_wordpool_576.txt	LTP391	ltpFR2	0	1	STAKE	1368	n/a	n/a	0	0	0
491807	DISTRACTOR	n/a	LTP391	ltpFR2	0	2	n/a	n/a	n/a	n/a	0	0	0
491807	START	n/a	LTP391	ltpFR2	0	n/a	n/a	n/a	3	n/a	n/a	n/a	n/a
491823	PROB	n/a	LTP391	ltpFR2	0	n/a	n/a	n/a	3	19	1	9	9
494108	PROB	n/a	LTP391	ltpFR2	0	n/a	n/a	n/a	3	10	2	6	2
496124	PROB	n/a	LTP391	ltpFR2	0	n/a	n/a	n/a	3	27	9	9	9
498224	PROB	n/a	LTP391	ltpFR2	0	n/a	n/a	n/a	3	19	8	2	9
500124	PROB	n/a	LTP391	ltpFR2	0	n/a	n/a	n/a	3	14	5	5	4
501840	PROB	n/a	LTP391	ltpFR2	0	n/a	n/a	n/a	3	14	5	8	1
504157	PROB	n/a	LTP391	ltpFR2	0	n/a	n/a	n/a	3	9	2	2	5
506441	PROB	n/a	LTP391	ltpFR2	0	n/a	n/a	n/a	3	15	2	4	9
508740	PROB	n/a	LTP391	ltpFR2	0	n/a	n/a	n/a	3	20	8	5	7
511873	PROB	n/a	LTP391	ltpFR2	0	n/a	n/a	n/a	3	13	2	6	5
515807	STOP	n/a	LTP391	ltpFR2	0	n/a	n/a	n/a	3	n/a	n/a	n/a	n/a
516806	WORD	wordpools/wasnorm_wordpool_576.txt	LTP391	ltpFR2	0	2	DRUG	501	n/a	n/a	0	0	0
519557	WORD	wordpools/wasnorm_wordpool_576.txt	LTP391	ltpFR2	0	2	DAUGHTER	442	n/a	n/a	0	0	0
522057	WORD	wordpools/wasnorm_wordpool_576.txt	LTP391	ltpFR2	0	2	SALT	1229	n/a	n/a	0	0	0
524740	WORD	wordpools/wasnorm_wordpool_576.txt	LTP391	ltpFR2	0	2	HUMAN	726	n/a	n/a	0	0	0
527174	WORD	wordpools/wasnorm_wordpool_576.txt	LTP391	ltpFR2	0	2	BLENDER	136	n/a	n/a	0	0	0
529974	WORD	wordpools/wasnorm_wordpool_576.txt	LTP391	ltpFR2	0	2	WASP	1593	n/a	n/a	0	0	0
532440	WORD	wordpools/wasnorm_wordpool_576.txt	LTP391	ltpFR2	0	2	CONTRACT	368	n/a	n/a	0	0	0
535240	WORD	wordpools/wasnorm_wordpool_576.txt	LTP391	ltpFR2	0	2	DONOR	485	n/a	n/a	0	0	0
537756	WORD	wordpools/wasnorm_wordpool_576.txt	LTP391	ltpFR2	0	2	MEAT	883	n/a	n/a	0	0	0
540374	WORD	wordpools/wasnorm_wordpool_576.txt	LTP391	ltpFR2	0	2	DANCER	437	n/a	n/a	0	0	0
542974	WORD	wordpools/wasnorm_wordpool_576.txt	LTP391	ltpFR2	0	2	CHILD	299	n/a	n/a	0	0	0
545440	WORD	wordpools/wasnorm_wordpool_576.txt	LTP391	ltpFR2	0	2	CHIPMUNK	304	n/a	n/a	0	0	0
548090	WORD	wordpools/wasnorm_wordpool_576.txt	LTP391	ltpFR2	0	2	BUBBLE	183	n/a	n/a	0	0	0
550906	WORD	wordpools/wasnorm_wordpool_576.txt	LTP391	ltpFR2	0	2	DINER	467	n/a	n/a	0	0	0
553457	WORD	wordpools/wasnorm_wordpool_576.txt	LTP391	ltpFR2	0	2	PLATE	1086	n/a	n/a	0	0	0
555923	WORD	wordpools/wasnorm_wordpool_576.txt	LTP391	ltpFR2	0	2	SPHINX	1349	n/a	n/a	0	0	0
558623	WORD	wordpools/wasnorm_wordpool_576.txt	LTP391	ltpFR2	0	2	TILE	1468	n/a	n/a	0	0	0
561307	WORD	wordpools/wasnorm_wordpool_576.txt	LTP391	ltpFR2	0	2	FLESH	579	n/a	n/a	0	0	0
564107	WORD	wordpools/wasnorm_wordpool_576.txt	LTP391	ltpFR2	0	2	FLASK	576	n/a	n/a	0	0	0
566556	WORD	wordpools/wasnorm_wordpool_576.txt	LTP391	ltpFR2	0	2	COCKTAIL	338	n/a	n/a	0	0	0
569290	WORD	wordpools/wasnorm_wordpool_576.txt	LTP391	ltpFR2	0	2	BEAST	108	n/a	n/a	0	0	0
571889	WORD	wordpools/wasnorm_wordpool_576.txt	LTP391	ltpFR2	0	2	SILK	1307	n/a	n/a	0	0	0
574340	WORD	wordpools/wasnorm_wordpool_576.txt	LTP391	ltpFR2	0	2	RUG	1215	n/a	n/a	0	0	0
577006	WORD	wordpools/wasnorm_wordpool_576.txt	LTP391	ltpFR2	0	2	DANDRUFF	439	n/a	n/a	0	0	0
578623	START	n/a	LTP391	ltpFR2	0	n/a	n/a	n/a	4	n/a	n/a	n/a	n/a
579603	DISTRACTOR	n/a	LTP391	ltpFR2	0	2	n/a	n/a	n/a	n/a	0	0	0
579606	PROB	n/a	LTP391	ltpFR2	0	n/a	n/a	n/a	4	15	3	6	6
583240	PROB	n/a	LTP391	ltpFR2	0	n/a	n/a	n/a	4	17	5	4	8
585556	PROB	n/a	LTP391	ltpFR2	0	n/a	n/a	n/a	4	14	7	5	2
588156	PROB	n/a	LTP391	ltpFR2	0	n/a	n/a	n/a	4	14	2	3	9
590473	PROB	n/a	LTP391	ltpFR2	0	n/a	n/a	n/a	4	16	4	4	7
593523	PROB	n/a	LTP391	ltpFR2	0	n/a	n/a	n/a	4	16	5	9	2
596323	PROB	n/a	LTP391	ltpFR2	0	n/a	n/a	n/a	4	16	7	2	7
598589	PROB	n/a	LTP391	ltpFR2	0	n/a	n/a	n/a	4	17	6	2	9
602623	STOP	n/a	LTP391	ltpFR2	0	n/a	n/a	n/a	4	n/a	n/a	n/a	n/a
604456	REC_START	n/a	LTP391	ltpFR2	0	2	n/a	n/a	n/a	n/a	0	0	0
605066	REC_WORD	wordpools/wasnorm_wordpool_576.txt	LTP391	ltpFR2	0	2	DRUG	501	n/a	n/a	0	0	0
605926	REC_WORD	wordpools/wasnorm_wordpool_576.txt	LTP391	ltpFR2	0	2	RUG	1215	n/a	n/a	0	0	0
606841	REC_WORD	wordpools/wasnorm_wordpool_576.txt	LTP391	ltpFR2	0	2	TILE	1468	n/a	n/a	0	0	0
610481	REC_WORD	wordpools/wasnorm_wordpool_576.txt	LTP391	ltpFR2	0	2	CHILD	299	n/a	n/a	0	0	0
611336	REC_WORD	wordpools/wasnorm_wordpool_576.txt	LTP391	ltpFR2	0	2	DAUGHTER	442	n/a	n/a	0	0	0
613931	REC_WORD	wordpools/wasnorm_wordpool_576.txt	LTP391	ltpFR2	0	2	DANDRUFF	439	n/a	n/a	0	0	0
618766	REC_WORD	wordpools/wasnorm_wordpool_576.txt	LTP391	ltpFR2	0	2	FLESH	579	n/a	n/a	0	0	0
622726	REC_WORD	wordpools/wasnorm_wordpool_576.txt	LTP391	ltpFR2	0	2	HUMAN	726	n/a	n/a	0	0	0
632546	REC_WORD	wordpools/wasnorm_wordpool_576.txt	LTP391	ltpFR2	0	2	BUBBLE	183	n/a	n/a	0	0	0
651543	REC_WORD	wordpools/wasnorm_wordpool_576.txt	LTP391	ltpFR2	0	2	FLASK	576	n/a	n/a	0	0	0
652533	REC_WORD	wordpools/wasnorm_wordpool_576.txt	LTP391	ltpFR2	0	2	COCKTAIL	338	n/a	n/a	0	0	0
660853	REC_WORD	wordpools/wasnorm_wordpool_576.txt	LTP391	ltpFR2	0	2	SPHINX	1349	n/a	n/a	0	0	0
665653	REC_WORD	wordpools/wasnorm_wordpool_576.txt	LTP391	ltpFR2	0	2	MEAT	883	n/a	n/a	0	0	0
667079	REC_WORD	wordpools/wasnorm_wordpool_576.txt	LTP391	ltpFR2	0	2	BEAST	108	n/a	n/a	0	0	0
676143	REC_WORD	wordpools/wasnorm_wordpool_576.txt	LTP391	ltpFR2	0	2	TILE	1468	n/a	n/a	0	0	0
694921	WORD	wordpools/wasnorm_wordpool_576.txt	LTP391	ltpFR2	0	3	LAPEL	800	n/a	n/a	0	0	0
697654	WORD	wordpools/wasnorm_wordpool_576.txt	LTP391	ltpFR2	0	3	SCARECROW	1245	n/a	n/a	0	0	0
700437	WORD	wordpools/wasnorm_wordpool_576.txt	LTP391	ltpFR2	0	3	BUREAU	199	n/a	n/a	0	0	0
703187	WORD	wordpools/wasnorm_wordpool_576.txt	LTP391	ltpFR2	0	3	APPLE	33	n/a	n/a	0	0	0
705886	WORD	wordpools/wasnorm_wordpool_576.txt	LTP391	ltpFR2	0	3	PISTON	1076	n/a	n/a	0	0	0
708654	WORD	wordpools/wasnorm_wordpool_576.txt	LTP391	ltpFR2	0	3	GAZELLE	628	n/a	n/a	0	0	0
711471	WORD	wordpools/wasnorm_wordpool_576.txt	LTP391	ltpFR2	0	3	THIEF	1456	n/a	n/a	0	0	0
714121	WORD	wordpools/wasnorm_wordpool_576.txt	LTP391	ltpFR2	0	3	SWAMP	1416	n/a	n/a	0	0	0
716720	WORD	wordpools/wasnorm_wordpool_576.txt	LTP391	ltpFR2	0	3	MARSH	874	n/a	n/a	0	0	0
719387	WORD	wordpools/wasnorm_wordpool_576.txt	LTP391	ltpFR2	0	3	PAPER	1011	n/a	n/a	0	0	0
722070	WORD	wordpools/wasnorm_wordpool_576.txt	LTP391	ltpFR2	0	3	MEDAL	885	n/a	n/a	0	0	0
724654	WORD	wordpools/wasnorm_wordpool_576.txt	LTP391	ltpFR2	0	3	APRON	35	n/a	n/a	0	0	0
727120	WORD	wordpools/wasnorm_wordpool_576.txt	LTP391	ltpFR2	0	3	OZONE	996	n/a	n/a	0	0	0
729570	WORD	wordpools/wasnorm_wordpool_576.txt	LTP391	ltpFR2	0	3	TOASTER	1472	n/a	n/a	0	0	0
732070	WORD	wordpools/wasnorm_wordpool_576.txt	LTP391	ltpFR2	0	3	SALAD	1224	n/a	n/a	0	0	0
734819	WORD	wordpools/wasnorm_wordpool_576.txt	LTP391	ltpFR2	0	3	COOKBOOK	373	n/a	n/a	0	0	0
737320	WORD	wordpools/wasnorm_wordpool_576.txt	LTP391	ltpFR2	0	3	HOOD	714	n/a	n/a	0	0	0
739920	WORD	wordpools/wasnorm_wordpool_576.txt	LTP391	ltpFR2	0	3	STICKER	1382	n/a	n/a	0	0	0
742553	WORD	wordpools/wasnorm_wordpool_576.txt	LTP391	ltpFR2	0	3	SPACE	1345	n/a	n/a	0	0	0
745120	WORD	wordpools/wasnorm_wordpool_576.txt	LTP391	ltpFR2	0	3	VALVE	1546	n/a	n/a	0	0	0
747553	WORD	wordpools/wasnorm_wordpool_576.txt	LTP391	ltpFR2	0	3	BUGGY	188	n/a	n/a	0	0	0
750320	WORD	wordpools/wasnorm_wordpool_576.txt	LTP391	ltpFR2	0	3	SALMON	1227	n/a	n/a	0	0	0
752937	WORD	wordpools/wasnorm_wordpool_576.txt	LTP391	ltpFR2	0	3	GHETTO	633	n/a	n/a	0	0	0
755735	WORD	wordpools/wasnorm_wordpool_576.txt	LTP391	ltpFR2	0	3	STAPLE	1371	n/a	n/a	0	0	0
757337	START	n/a	LTP391	ltpFR2	0	n/a	n/a	n/a	5	n/a	n/a	n/a	n/a
758394	DISTRACTOR	n/a	LTP391	ltpFR2	0	3	n/a	n/a	n/a	n/a	0	0	0
758403	PROB	n/a	LTP391	ltpFR2	0	n/a	n/a	n/a	5	9	3	5	1
761353	PROB	n/a	LTP391	ltpFR2	0	n/a	n/a	n/a	5	17	7	2	8
763270	PROB	n/a	LTP391	ltpFR2	0	n/a	n/a	n/a	5	21	5	8	8
766236	PROB	n/a	LTP391	ltpFR2	0	n/a	n/a	n/a	5	15	3	5	7
768270	PROB	n/a	LTP391	ltpFR2	0	n/a	n/a	n/a	5	17	9	4	4
770353	PROB	n/a	LTP391	ltpFR2	0	n/a	n/a	n/a	5	19	9	1	9
772120	PROB	n/a	LTP391	ltpFR2	0	n/a	n/a	n/a	5	17	6	4	7
774019	PROB	n/a	LTP391	ltpFR2	0	n/a	n/a	n/a	5	14	3	2	9
776169	PROB	n/a	LTP391	ltpFR2	0	n/a	n/a	n/a	5	20	7	5	8
778669	PROB	n/a	LTP391	ltpFR2	0	n/a	n/a	n/a	5	17	8	4	5
780804	STOP	n/a	LTP391	ltpFR2	0	n/a	n/a	n/a	5	n/a	n/a	n/a	n/a
783253	REC_START	n/a	LTP391	ltpFR2	0	3	n/a	n/a	n/a	n/a	0	0	0
783929	REC_WORD	wordpools/wasnorm_wordpool_576.txt	LTP391	ltpFR2	0	3	LAPEL	800	n/a	n/a	0	0	0
785103	REC_WORD	wordpools/wasnorm_wordpool_576.txt	LTP391	ltpFR2	0	3	STAPLE	1371	n/a	n/a	0	0	0
786728	REC_WORD	wordpools/wasnorm_wordpool_576.txt	LTP391	ltpFR2	0	3	AWARD	63	n/a	n/a	0	0	0
789213	REC_WORD	wordpools/wasnorm_wordpool_576.txt	LTP391	ltpFR2	0	3	HOOD	714	n/a	n/a	0	0	0
797283	REC_WORD	wordpools/wasnorm_wordpool_576.txt	LTP391	ltpFR2	0	3	COOKBOOK	373	n/a	n/a	0	0	0
797971	REC_WORD	wordpools/wasnorm_wordpool_576.txt	LTP391	ltpFR2	0	3	SALAD	1224	n/a	n/a	0	0	0
806641	REC_WORD	wordpools/wasnorm_wordpool_576.txt	LTP391	ltpFR2	0	3	MEDAL	885	n/a	n/a	0	0	0
809161	REC_WORD	wordpools/wasnorm_wordpool_576.txt	LTP391	ltpFR2	0	3	PAPER	1011	n/a	n/a	0	0	0
817576	REC_WORD	wordpools/wasnorm_wordpool_576.txt	LTP391	ltpFR2	0	3	BUREAU	199	n/a	n/a	0	0	0
821346	REC_WORD	wordpools/wasnorm_wordpool_576.txt	LTP391	ltpFR2	0	3	SWAMP	1416	n/a	n/a	0	0	0
822236	REC_WORD	wordpools/wasnorm_wordpool_576.txt	LTP391	ltpFR2	0	3	MARSH	874	n/a	n/a	0	0	0
823251	REC_WORD	wordpools/wasnorm_wordpool_576.txt	LTP391	ltpFR2	0	3	GAZELLE	628	n/a	n/a	0	0	0
831211	REC_WORD	wordpools/wasnorm_wordpool_576.txt	LTP391	ltpFR2	0	3	PISTON	1076	n/a	n/a	0	0	0
873717	DISTRACTOR	n/a	LTP391	ltpFR2	0	4	n/a	n/a	n/a	n/a	0	0	0
873717	START	n/a	LTP391	ltpFR2	0	n/a	n/a	n/a	6	n/a	n/a	n/a	n/a
873733	PROB	n/a	LTP391	ltpFR2	0	n/a	n/a	n/a	6	11	4	3	4
876084	PROB	n/a	LTP391	ltpFR2	0	n/a	n/a	n/a	6	16	5	2	9
878151	PROB	n/a	LTP391	ltpFR2	0	n/a	n/a	n/a	6	13	5	6	2
880518	PROB	n/a	LTP391	ltpFR2	0	n/a	n/a	n/a	6	10	5	2	3
882518	PROB	n/a	LTP391	ltpFR2	0	n/a	n/a	n/a	6	18	6	8	4
884501	PROB	n/a	LTP391	ltpFR2	0	n/a	n/a	n/a	6	8	5	1	2
886783	PROB	n/a	LTP391	ltpFR2	0	n/a	n/a	n/a	6	13	2	5	6
888468	PROB	n/a	LTP391	ltpFR2	0	n/a	n/a	n/a	6	26	9	9	8
892401	PROB	n/a	LTP391	ltpFR2	0	n/a	n/a	n/a	6	14	2	7	5
894916	PROB	n/a	LTP391	ltpFR2	0	n/a	n/a	n/a	6	16	6	6	4
897264	STOP	n/a	LTP391	ltpFR2	0	n/a	n/a	n/a	6	n/a	n/a	n/a	n/a
898733	WORD	wordpools/wasnorm_wordpool_576.txt	LTP391	ltpFR2	0	4	PLIERS	1089	n/a	n/a	0	0	0
901234	WORD	wordpools/wasnorm_wordpool_576.txt	LTP391	ltpFR2	0	4	BACON	67	n/a	n/a	0	0	0
903951	WORD	wordpools/wasnorm_wordpool_576.txt	LTP391	ltpFR2	0	4	WITNESS	1618	n/a	n/a	0	0	0
906484	WORD	wordpools/wasnorm_wordpool_576.txt	LTP391	ltpFR2	0	4	SISTER	1312	n/a	n/a	0	0	0
909301	WORD	wordpools/wasnorm_wordpool_576.txt	LTP391	ltpFR2	0	4	GRIZZLY	662	n/a	n/a	0	0	0
912117	WORD	wordpools/wasnorm_wordpool_576.txt	LTP391	ltpFR2	0	4	PEACH	1031	n/a	n/a	0	0	0
914816	WORD	wordpools/wasnorm_wordpool_576.txt	LTP391	ltpFR2	0	4	TOURIST	1488	n/a	n/a	0	0	0
917317	WORD	wordpools/wasnorm_wordpool_576.txt	LTP391	ltpFR2	0	4	ROCKET	1202	n/a	n/a	0	0	0
920134	WORD	wordpools/wasnorm_wordpool_576.txt	LTP391	ltpFR2	0	4	DENIM	446	n/a	n/a	0	0	0
922733	WORD	wordpools/wasnorm_wordpool_576.txt	LTP391	ltpFR2	0	4	PERMIT	1051	n/a	n/a	0	0	0
925317	WORD	wordpools/wasnorm_wordpool_576.txt	LTP391	ltpFR2	0	4	PORTRAIT	1111	n/a	n/a	0	0	0
927866	WORD	wordpools/wasnorm_wordpool_576.txt	LTP391	ltpFR2	0	4	PLUTO	1092	n/a	n/a	0	0	0
930650	WORD	wordpools/wasnorm_wordpool_576.txt	LTP391	ltpFR2	0	4	WAITRESS	1581	n/a	n/a	0	0	0
933317	WORD	wordpools/wasnorm_wordpool_576.txt	LTP391	ltpFR2	0	4	PICNIC	1060	n/a	n/a	0	0	0
935983	WORD	wordpools/wasnorm_wordpool_576.txt	LTP391	ltpFR2	0	4	OMELET	976	n/a	n/a	0	0	0
938583	WORD	wordpools/wasnorm_wordpool_576.txt	LTP391	ltpFR2	0	4	TROMBONE	1508	n/a	n/a	0	0	0
941117	WORD	wordpools/wasnorm_wordpool_576.txt	LTP391	ltpFR2	0	4	WHISTLE	1606	n/a	n/a	0	0	0
943617	WORD	wordpools/wasnorm_wordpool_576.txt	LTP391	ltpFR2	0	4	EUROPE	541	n/a	n/a	0	0	0
946083	WORD	wordpools/wasnorm_wordpool_576.txt	LTP391	ltpFR2	0	4	JEANS	752	n/a	n/a	0	0	0
948699	WORD	wordpools/wasnorm_wordpool_576.txt	LTP391	ltpFR2	0	4	SANDWICH	1232	n/a	n/a	0	0	0
951483	WORD	wordpools/wasnorm_wordpool_576.txt	LTP391	ltpFR2	0	4	BURGLAR	200	n/a	n/a	0	0	0
954133	WORD	wordpools/wasnorm_wordpool_576.txt	LTP391	ltpFR2	0	4	OUTLAW	989	n/a	n/a	0	0	0
956699	WORD	wordpools/wasnorm_wordpool_576.txt	LTP391	ltpFR2	0	4	WHISKERS	1605	n/a	n/a	0	0	0
959283	WORD	wordpools/wasnorm_wordpool_576.txt	LTP391	ltpFR2	0	4	JAPAN	749	n/a	n/a	0	0	0
960899	START	n/a	LTP391	ltpFR2	0	n/a	n/a	n/a	7	n/a	n/a	n/a	n/a
961733	DISTRACTOR	n/a	LTP391	ltpFR2	0	4	n/a	n/a	n/a	n/a	0	0	0
961749	PROB	n/a	LTP391	ltpFR2	0	n/a	n/a	n/a	7	23	7	8	8
969915	PROB	n/a	LTP391	ltpFR2	0	n/a	n/a	n/a	7	8	2	1	5
971316	PROB	n/a	LTP391	ltpFR2	0	n/a	n/a	n/a	7	9	3	3	3
972649	PROB	n/a	LTP391	ltpFR2	0	n/a	n/a	n/a	7	12	1	4	7
974383	PROB	n/a	LTP391	ltpFR2	0	n/a	n/a	n/a	7	14	7	6	1
976399	PROB	n/a	LTP391	ltpFR2	0	n/a	n/a	n/a	7	13	7	3	3
978765	PROB	n/a	LTP391	ltpFR2	0	n/a	n/a	n/a	7	12	4	7	1
984899	STOP	n/a	LTP391	ltpFR2	0	n/a	n/a	n/a	7	n/a	n/a	n/a	n/a
986832	REC_START	n/a	LTP391	ltpFR2	0	4	n/a	n/a	n/a	n/a	0	0	0
987340	REC_WORD	wordpools/wasnorm_wordpool_576.txt	LTP391	ltpFR2	0	4	BURGLAR	200	n/a	n/a	0	0	0
988612	REC_WORD	wordpools/wasnorm_wordpool_576.txt	LTP391	ltpFR2	0	4	OUTLAW	989	n/a	n/a	0	0	0
989683	REC_WORD	wordpools/wasnorm_wordpool_576.txt	LTP391	ltpFR2	0	4	OMELET	976	n/a	n/a	0	0	0
990593	REC_WORD	wordpools/wasnorm_wordpool_576.txt	LTP391	ltpFR2	0	4	SANDWICH	1232	n/a	n/a	0	0	0
992353	REC_WORD	wordpools/wasnorm_wordpool_576.txt	LTP391	ltpFR2	0	4	JAPAN	749	n/a	n/a	0	0	0
993410	REC_WORD	wordpools/wasnorm_wordpool_576.txt	LTP391	ltpFR2	0	4	EUROPE	541	n/a	n/a	0	0	0
994855	REC_WORD	wordpools/wasnorm_wordpool_576.txt	LTP391	ltpFR2	0	4	TOURIST	1488	n/a	n/a	0	0	0
1003140	REC_WORD	wordpools/wasnorm_wordpool_576.txt	LTP391	ltpFR2	0	4	WHISKERS	1605	n/a	n/a	0	0	0
1004132	REC_WORD	wordpools/wasnorm_wordpool_576.txt	LTP391	ltpFR2	0	4	TROMBONE	1508	n/a	n/a	0	0	0
1005272	REC_WORD	wordpools/wasnorm_wordpool_576.txt	LTP391	ltpFR2	0	4	WHISTLE	1606	n/a	n/a	0	0	0
1006382	REC_WORD	wordpools/wasnorm_wordpool_576.txt	LTP391	ltpFR2	0	4	DENIM	446	n/a	n/a	0	0	0
1007327	REC_WORD	wordpools/wasnorm_wordpool_576.txt	LTP391	ltpFR2	0	4	JEANS	752	n/a	n/a	0	0	0
1008657	REC_WORD	wordpools/wasnorm_wordpool_576.txt	LTP391	ltpFR2	0	4	GRIZZLY	662	n/a	n/a	0	0	0
1030312	REC_WORD	wordpools/wasnorm_wordpool_576.txt	LTP391	ltpFR2	0	4	BACON	67	n/a	n/a	0	0	0
1077264	DISTRACTOR	n/a	LTP391	ltpFR2	0	5	n/a	n/a	n/a	n/a	0	0	0
1077265	START	n/a	LTP391	ltpFR2	0	n/a	n/a	n/a	8	n/a	n/a	n/a	n/a
1077281	PROB	n/a	LTP391	ltpFR2	0	n/a	n/a	n/a	8	17	5	7	4
1080048	PROB	n/a	LTP391	ltpFR2	0	n/a	n/a	n/a	8	21	9	6	7
1082780	PROB	n/a	LTP391	ltpFR2	0	n/a	n/a	n/a	8	19	4	9	6
1090846	PROB	n/a	LTP391	ltpFR2	0	n/a	n/a	n/a	8	24	7	9	8
1094964	PROB	n/a	LTP391	ltpFR2	0	n/a	n/a	n/a	8	26	9	8	9
1101265	STOP	n/a	LTP391	ltpFR2	0	n/a	n/a	n/a	8	n/a	n/a	n/a	n/a
1102347	WORD	wordpools/wasnorm_wordpool_576.txt	LTP391	ltpFR2	0	5	IDOL	733	n/a	n/a	0	0	0
1104796	WORD	wordpools/wasnorm_wordpool_576.txt	LTP391	ltpFR2	0	5	CONVICT	371	n/a	n/a	0	0	0
1107314	WORD	wordpools/wasnorm_wordpool_576.txt	LTP391	ltpFR2	0	5	CAPTIVE	240	n/a	n/a	0	0	0
1110131	WORD	wordpools/wasnorm_wordpool_576.txt	LTP391	ltpFR2	0	5	DRAGON	492	n/a	n/a	0	0	0
1112829	WORD	wordpools/wasnorm_wordpool_576.txt	LTP391	ltpFR2	0	5	DRESSER	496	n/a	n/a	0	0	0
1115514	WORD	wordpools/wasnorm_wordpool_576.txt	LTP391	ltpFR2	0	5	PIZZA	1079	n/a	n/a	0	0	0
1118247	WORD	wordpools/wasnorm_wordpool_576.txt	LTP391	ltpFR2	0	5	SHORTCAKE	1292	n/a	n/a	0	0	0
1120964	WORD	wordpools/wasnorm_wordpool_576.txt	LTP391	ltpFR2	0	5	TUTU	1524	n/a	n/a	0	0	0
1123580	WORD	wordpools/wasnorm_wordpool_576.txt	LTP391	ltpFR2	0	5	MAILMAN	858	n/a	n/a	0	0	0
1126347	WORD	wordpools/wasnorm_wordpool_576.txt	LTP391	ltpFR2	0	5	WIDOW	1608	n/a	n/a	0	0	0
1129147	WORD	wordpools/wasnorm_wordpool_576.txt	LTP391	ltpFR2	0	5	PIANO	1057	n/a	n/a	0	0	0
1131647	WORD	wordpools/wasnorm_wordpool_576.txt	LTP391	ltpFR2	0	5	ULCER	1533	n/a	n/a	0	0	0
1134163	WORD	wordpools/wasnorm_wordpool_576.txt	LTP391	ltpFR2	0	5	ARMY	39	n/a	n/a	0	0	0
1136879	WORD	wordpools/wasnorm_wordpool_576.txt	LTP391	ltpFR2	0	5	CRUTCH	417	n/a	n/a	0	0	0
1139463	WORD	wordpools/wasnorm_wordpool_576.txt	LTP391	ltpFR2	0	5	TABLE	1426	n/a	n/a	0	0	0
1142197	WORD	wordpools/wasnorm_wordpool_576.txt	LTP391	ltpFR2	0	5	BARREL	91	n/a	n/a	0	0	0
1144729	WORD	wordpools/wasnorm_wordpool_576.txt	LTP391	ltpFR2	0	5	FIREMAN	569	n/a	n/a	0	0	0
1147180	WORD	wordpools/wasnorm_wordpool_576.txt	LTP391	ltpFR2	0	5	STAR	1373	n/a	n/a	0	0	0
1149997	WORD	wordpools/wasnorm_wordpool_576.txt	LTP391	ltpFR2	0	5	OX	994	n/a	n/a	0	0	0
1152446	WORD	wordpools/wasnorm_wordpool_576.txt	LTP391	ltpFR2	0	5	BEEF	113	n/a	n/a	0	0	0
1155063	WORD	wordpools/wasnorm_wordpool_576.txt	LTP391	ltpFR2	0	5	BLACKBOARD	133	n/a	n/a	0	0	0
1157829	WORD	wordpools/wasnorm_wordpool_576.txt	LTP391	ltpFR2	0	5	YARN	1631	n/a	n/a	0	0	0
1160396	WORD	wordpools/wasnorm_wordpool_576.txt	LTP391	ltpFR2	0	5	ELBOW	520	n/a	n/a	0	0	0
1163180	WORD	wordpools/wasnorm_wordpool_576.txt	LTP391	ltpFR2	0	5	SEAL	1262	n/a	n/a	0	0	0
1164795	START	n/a	LTP391	ltpFR2	0	n/a	n/a	n/a	9	n/a	n/a	n/a	n/a
1165673	DISTRACTOR	n/a	LTP391	ltpFR2	0	5	n/a	n/a	n/a	n/a	0	0	0
1165679	PROB	n/a	LTP391	ltpFR2	0	n/a	n/a	n/a	9	9	1	7	1
1167563	PROB	n/a	LTP391	ltpFR2	0	n/a	n/a	n/a	9	16	7	7	2
1169213	PROB	n/a	LTP391	ltpFR2	0	n/a	n/a	n/a	9	3	1	1	1
1170496	PROB	n/a	LTP391	ltpFR2	0	n/a	n/a	n/a	9	14	6	4	4
1172013	PROB	n/a	LTP391	ltpFR2	0	n/a	n/a	n/a	9	21	8	8	5
1175678	PROB	n/a	LTP391	ltpFR2	0	n/a	n/a	n/a	9	21	4	9	8
1178346	PROB	n/a	LTP391	ltpFR2	0	n/a	n/a	n/a	9	14	1	8	5
1183596	PROB	n/a	LTP391	ltpFR2	0	n/a	n/a	n/a	9	17	8	3	6
1186728	PROB	n/a	LTP391	ltpFR2	0	n/a	n/a	n/a	9	15	5	1	9
1188329	STOP	n/a	LTP391	ltpFR2	0	n/a	n/a	n/a	9	n/a	n/a	n/a	n/a
1190563	REC_START	n/a	LTP391	ltpFR2	0	5	n/a	n/a	n/a	n/a	0	0	0
1191036	REC_WORD	wordpools/wasnorm_wordpool_576.txt	LTP391	ltpFR2	0	5	YARN	1631	n/a	n/a	0	0	0
1191866	REC_WORD	wordpools/wasnorm_wordpool_576.txt	LTP391	ltpFR2	0	5	ARMY	39	n/a	n/a	0	0	0
1192571	REC_WORD	wordpools/wasnorm_wordpool_576.txt	LTP391	ltpFR2	0	5	SEAL	1262	n/a	n/a	0	0	0
1193965	REC_WORD	wordpools/wasnorm_wordpool_576.txt	LTP391	ltpFR2	0	5	DRESSER	496	n/a	n/a	0	0	0
1200341	REC_WORD	wordpools/wasnorm_wordpool_576.txt	LTP391	ltpFR2	0	5	CONVICT	371	n/a	n/a	0	0	0
1205426	REC_WORD	wordpools/wasnorm_wordpool_576.txt	LTP391	ltpFR2	0	5	TUTU	1524	n/a	n/a	0	0	0
1216961	REC_WORD	wordpools/wasnorm_wordpool_576.txt	LTP391	ltpFR2	0	5	ELBOW	520	n/a	n/a	0	0	0
1231841	REC_WORD	wordpools/wasnorm_wordpool_576.txt	LTP391	ltpFR2	0	5	PIZZA	1079	n/a	n/a	0	0	0
1238471	REC_WORD	wordpools/wasnorm_wordpool_576.txt	LTP391	ltpFR2	0	5	MAILMAN	858	n/a	n/a	0	0	0
1239506	REC_WORD	wordpools/wasnorm_wordpool_576.txt	LTP391	ltpFR2	0	5	FIREMAN	569	n/a	n/a	0	0	0
1241456	REC_WORD	wordpools/wasnorm_wordpool_576.txt	LTP391	ltpFR2	0	5	STAR	1373	n/a	n/a	0	0	0
1281011	DISTRACTOR	n/a	LTP391	ltpFR2	0	6	n/a	n/a	n/a	n/a	0	0	0
1281011	START	n/a	LTP391	ltpFR2	0	n/a	n/a	n/a	10	n/a	n/a	n/a	n/a
1281028	PROB	n/a	LTP391	ltpFR2	0	n/a	n/a	n/a	10	12	2	4	6
1282777	PROB	n/a	LTP391	ltpFR2	0	n/a	n/a	n/a	10	22	8	6	8
1286726	PROB	n/a	LTP391	ltpFR2	0	n/a	n/a	n/a	10	11	1	2	8
1288194	PROB	n/a	LTP391	ltpFR2	0	n/a	n/a	n/a	10	16	7	2	7
1290676	PROB	n/a	LTP391	ltpFR2	0	n/a	n/a	n/a	10	19	9	3	7
1293726	PROB	n/a	LTP391	ltpFR2	0	n/a	n/a	n/a	10	17	6	6	5
1296743	PROB	n/a	LTP391	ltpFR2	0	n/a	n/a	n/a	10	6	4	1	1
1298311	PROB	n/a	LTP391	ltpFR2	0	n/a	n/a	n/a	10	21	7	7	7
1300277	PROB	n/a	LTP391	ltpFR2	0	n/a	n/a	n/a	10	20	6	8	6
1305011	STOP	n/a	LTP391	ltpFR2	0	n/a	n/a	n/a	10	n/a	n/a	n/a	n/a
1306094	WORD	wordpools/wasnorm_wordpool_576.txt	LTP391	ltpFR2	0	6	JUNGLE	764	n/a	n/a	0	0	0
1308577	WORD	wordpools/wasnorm_wordpool_576.txt	LTP391	ltpFR2	0	6	PANTHER	1009	n/a	n/a	0	0	0
1311310	WORD	wordpools/wasnorm_wordpool_576.txt	LTP391	ltpFR2	0	6	HOSTESS	723	n/a	n/a	0	0	0
1314110	WORD	wordpools/wasnorm_wordpool_576.txt	LTP391	ltpFR2	0	6	ORCHID	982	n/a	n/a	0	0	0
1316743	WORD	wordpools/wasnorm_wordpool_576.txt	LTP391	ltpFR2	0	6	SEAFOOD	1260	n/a	n/a	0	0	0
1319527	WORD	wordpools/wasnorm_wordpool_576.txt	LTP391	ltpFR2	0	6	FEMALE	559	n/a	n/a	0	0	0
1322244	WORD	wordpools/wasnorm_wordpool_576.txt	LTP391	ltpFR2	0	6	SHELTER	1282	n/a	n/a	0	0	0
1324843	WORD	wordpools/wasnorm_wordpool_576.txt	LTP391	ltpFR2	0	6	WOMAN	1620	n/a	n/a	0	0	0
1327310	WORD	wordpools/wasnorm_wordpool_576.txt	LTP391	ltpFR2	0	6	CREVICE	405	n/a	n/a	0	0	0
1330043	WORD	wordpools/wasnorm_wordpool_576.txt	LTP391	ltpFR2	0	6	VENUS	1557	n/a	n/a	0	0	0
1332659	WORD	wordpools/wasnorm_wordpool_576.txt	LTP391	ltpFR2	0	6	COUNTRY	388	n/a	n/a	0	0	0
1335293	WORD	wordpools/wasnorm_wordpool_576.txt	LTP391	ltpFR2	0	6	ASIA	46	n/a	n/a	0	0	0
1337859	WORD	wordpools/wasnorm_wordpool_576.txt	LTP391	ltpFR2	0	6	GREASE	660	n/a	n/a	0	0	0
1340627	WORD	wordpools/wasnorm_wordpool_576.txt	LTP391	ltpFR2	0	6	LACE	792	n/a	n/a	0	0	0
1343210	WORD	wordpools/wasnorm_wordpool_576.txt	LTP391	ltpFR2	0	6	DAISY	435	n/a	n/a	0	0	0
1345892	WORD	wordpools/wasnorm_wordpool_576.txt	LTP391	ltpFR2	0	6	FRIEND	606	n/a	n/a	0	0	0
1348493	WORD	wordpools/wasnorm_wordpool_576.txt	LTP391	ltpFR2	0	6	LADY	794	n/a	n/a	0	0	0
1350943	WORD	wordpools/wasnorm_wordpool_576.txt	LTP391	ltpFR2	0	6	OYSTER	995	n/a	n/a	0	0	0
1353493	WORD	wordpools/wasnorm_wordpool_576.txt	LTP391	ltpFR2	0	6	NECKLACE	940	n/a	n/a	0	0	0
1356176	WORD	wordpools/wasnorm_wordpool_576.txt	LTP391	ltpFR2	0	6	CHAMPAGNE	278	n/a	n/a	0	0	0
1358725	WORD	wordpools/wasnorm_wordpool_576.txt	LTP391	ltpFR2	0	6	RIFLE	1192	n/a	n/a	0	0	0
1361426	WORD	wordpools/wasnorm_wordpool_576.txt	LTP391	ltpFR2	0	6	POPCORN	1104	n/a	n/a	0	0	0
1364110	WORD	wordpools/wasnorm_wordpool_576.txt	LTP391	ltpFR2	0	6	ACTRESS	6	n/a	n/a	0	0	0
1366926	WORD	wordpools/wasnorm_wordpool_576.txt	LTP391	ltpFR2	0	6	SODA	1341	n/a	n/a	0	0	0
1368543	START	n/a	LTP391	ltpFR2	0	n/a	n/a	n/a	11	n/a	n/a	n/a	n/a
1369609	DISTRACTOR	n/a	LTP391	ltpFR2	0	6	n/a	n/a	n/a	n/a	0	0	0
1369626	PROB	n/a	LTP391	ltpFR2	0	n/a	n/a	n/a	11	12	6	3	3
1372076	PROB	n/a	LTP391	ltpFR2	0	n/a	n/a	n/a	11	6	4	1	1
1373459	PROB	n/a	LTP391	ltpFR2	0	n/a	n/a	n/a	11	6	2	1	3
1375026	PROB	n/a	LTP391	ltpFR2	0	n/a	n/a	n/a	11	19	4	8	7
1377725	PROB	n/a	LTP391	ltpFR2	0	n/a	n/a	n/a	11	13	9	3	1
1379926	PROB	n/a	LTP391	ltpFR2	0	n/a	n/a	n/a	11	15	7	1	7
1381725	PROB	n/a	LTP391	ltpFR2	0	n/a	n/a	n/a	11	19	6	7	6
1384725	PROB	n/a	LTP391	ltpFR2	0	n/a	n/a	n/a	11	17	9	3	5
1387658	PROB	n/a	LTP391	ltpFR2	0	n/a	n/a	n/a	11	13	8	2	3
1389626	PROB	n/a	LTP391	ltpFR2	0	n/a	n/a	n/a	11	18	5	5	8
1391199	STOP	n/a	LTP391	ltpFR2	0	n/a	n/a	n/a	11	n/a	n/a	n/a	n/a
1394410	REC_START	n/a	LTP391	ltpFR2	0	6	n/a	n/a	n/a	n/a	0	0	0
1394839	REC_WORD	wordpools/wasnorm_wordpool_576.txt	LTP391	ltpFR2	0	6	JUNGLE	764	n/a	n/a	0	0	0
1395570	REC_WORD	wordpools/wasnorm_wordpool_576.txt	LTP391	ltpFR2	0	6	PANTHER	1009	n/a	n/a	0	0	0
1396387	REC_WORD	wordpools/wasnorm_wordpool_576.txt	LTP391	ltpFR2	0	6	HOSTESS	723	n/a	n/a	0	0	0
1398217	REC_WORD	wordpools/wasnorm_wordpool_576.txt	LTP391	ltpFR2	0	6	FEMALE	559	n/a	n/a	0	0	0
1399108	REC_WORD	wordpools/wasnorm_wordpool_576.txt	LTP391	ltpFR2	0	6	WOMAN	1620	n/a	n/a	0	0	0
1401737	REC_WORD	wordpools/wasnorm_wordpool_576.txt	LTP391	ltpFR2	0	6	LADY	794	n/a	n/a	0	0	0
1403191	REC_WORD	wordpools/wasnorm_wordpool_576.txt	LTP391	ltpFR2	0	6	POPCORN	1104	n/a	n/a	0	0	0
1405866	REC_WORD	wordpools/wasnorm_wordpool_576.txt	LTP391	ltpFR2	0	6	RIFLE	1192	n/a	n/a	0	0	0
1407595	REC_WORD	wordpools/wasnorm_wordpool_576.txt	LTP391	ltpFR2	0	6	NECKLACE	940	n/a	n/a	0	0	0
1428585	REC_WORD	wordpools/wasnorm_wordpool_576.txt	LTP391	ltpFR2	0	6	SEAFOOD	1260	n/a	n/a	0	0	0
1456844	REC_WORD	wordpools/wasnorm_wordpool_576.txt	LTP391	ltpFR2	0	6	VENUS	1557	n/a	n/a	0	0	0
1497241	DISTRACTOR	n/a	LTP391	ltpFR2	0	7	n/a	n/a	n/a	n/a	0	0	0
1497241	START	n/a	LTP391	ltpFR2	0	n/a	n/a	n/a	12	n/a	n/a	n/a	n/a
1497257	PROB	n/a	LTP391	ltpFR2	0	n/a	n/a	n/a	12	27	9	9	9
1499241	PROB	n/a	LTP391	ltpFR2	0	n/a	n/a	n/a	12	13	3	9	1
1501941	PROB	n/a	LTP391	ltpFR2	0	n/a	n/a	n/a	12	10	1	1	8
1503624	PROB	n/a	LTP391	ltpFR2	0	n/a	n/a	n/a	12	13	2	2	9
1505390	PROB	n/a	LTP391	ltpFR2	0	n/a	n/a	n/a	12	20	9	8	3
1507324	PROB	n/a	LTP391	ltpFR2	0	n/a	n/a	n/a	12	22	7	7	8
1510574	PROB	n/a	LTP391	ltpFR2	0	n/a	n/a	n/a	12	8	3	3	2
1513440	PROB	n/a	LTP391	ltpFR2	0	n/a	n/a	n/a	12	20	7	9	4
1516524	PROB	n/a	LTP391	ltpFR2	0	n/a	n/a	n/a	12	4	2	1	1
1518190	PROB	n/a	LTP391	ltpFR2	0	n/a	n/a	n/a	12	15	5	4	6
1521074	STOP	n/a	LTP391	ltpFR2	0	n/a	n/a	n/a	12	n/a	n/a	n/a	n/a
1522224	WORD	wordpools/wasnorm_wordpool_576.txt	LTP391	ltpFR2	0	7	HAWK	692	n/a	n/a	0	0	0
1524806	WORD	wordpools/wasnorm_wordpool_576.txt	LTP391	ltpFR2	0	7	PACKAGE	997	n/a	n/a	0	0	0
1527440	WORD	wordpools/wasnorm_wordpool_576.txt	LTP391	ltpFR2	0	7	POSTAGE	1113	n/a	n/a	0	0	0
1529906	WORD	wordpools/wasnorm_wordpool_576.txt	LTP391	ltpFR2	0	7	SCALPEL	1243	n/a	n/a	0	0	0
1532523	WORD	wordpools/wasnorm_wordpool_576.txt	LTP391	ltpFR2	0	7	CUPBOARD	425	n/a	n/a	0	0	0
1534973	WORD	wordpools/wasnorm_wordpool_576.txt	LTP391	ltpFR2	0	7	WORLD	1622	n/a	n/a	0	0	0
1537789	WORD	wordpools/wasnorm_wordpool_576.txt	LTP391	ltpFR2	0	7	GLOBE	641	n/a	n/a	0	0	0
1540257	WORD	wordpools/wasnorm_wordpool_576.txt	LTP391	ltpFR2	0	7	ATOM	55	n/a	n/a	0	0	0
1542889	WORD	wordpools/wasnorm_wordpool_576.txt	LTP391	ltpFR2	0	7	MISSILE	900	n/a	n/a	0	0	0
1545722	WORD	wordpools/wasnorm_wordpool_576.txt	LTP391	ltpFR2	0	7	STAMP	1370	n/a	n/a	0	0	0
1548390	WORD	wordpools/wasnorm_wordpool_576.txt	LTP391	ltpFR2	0	7	EAGLE	512	n/a	n/a	0	0	0
1551140	WORD	wordpools/wasnorm_wordpool_576.txt	LTP391	ltpFR2	0	7	PREACHER	1119	n/a	n/a	0	0	0
1553872	WORD	wordpools/wasnorm_wordpool_576.txt	LTP391	ltpFR2	0	7	SCISSORS	1250	n/a	n/a	0	0	0
1556556	WORD	wordpools/wasnorm_wordpool_576.txt	LTP391	ltpFR2	0	7	TRUCK	1512	n/a	n/a	0	0	0
1559223	WORD	wordpools/wasnorm_wordpool_576.txt	LTP391	ltpFR2	0	7	FOX	598	n/a	n/a	0	0	0
1561956	WORD	wordpools/wasnorm_wordpool_576.txt	LTP391	ltpFR2	0	7	PIGMENT	1066	n/a	n/a	0	0	0
1564390	WORD	wordpools/wasnorm_wordpool_576.txt	LTP391	ltpFR2	0	7	COFFEE	341	n/a	n/a	0	0	0
1566923	WORD	wordpools/wasnorm_wordpool_576.txt	LTP391	ltpFR2	0	7	FINGER	567	n/a	n/a	0	0	0
1569373	WORD	wordpools/wasnorm_wordpool_576.txt	LTP391	ltpFR2	0	7	VELVET	1555	n/a	n/a	0	0	0
1571956	WORD	wordpools/wasnorm_wordpool_576.txt	LTP391	ltpFR2	0	7	MOP	916	n/a	n/a	0	0	0
1574705	WORD	wordpools/wasnorm_wordpool_576.txt	LTP391	ltpFR2	0	7	PICTURE	1061	n/a	n/a	0	0	0
1577289	WORD	wordpools/wasnorm_wordpool_576.txt	LTP391	ltpFR2	0	7	RECORD	1176	n/a	n/a	0	0	0
1580073	WORD	wordpools/wasnorm_wordpool_576.txt	LTP391	ltpFR2	0	7	SNAKE	1333	n/a	n/a	0	0	0
1582755	WORD	wordpools/wasnorm_wordpool_576.txt	LTP391	ltpFR2	0	7	CHURCH	307	n/a	n/a	0	0	0
1584373	START	n/a	LTP391	ltpFR2	0	n/a	n/a	n/a	13	n/a	n/a	n/a	n/a
1585274	DISTRACTOR	n/a	LTP391	ltpFR2	0	7	n/a	n/a	n/a	n/a	0	0	0
1585289	PROB	n/a	LTP391	ltpFR2	0	n/a	n/a	n/a	13	10	1	3	6
1587189	PROB	n/a	LTP391	ltpFR2	0	n/a	n/a	n/a	13	8	2	1	5
1589222	PROB	n/a	LTP391	ltpFR2	0	n/a	n/a	n/a	13	10	2	1	7
1590821	PROB	n/a	LTP391	ltpFR2	0	n/a	n/a	n/a	13	13	5	3	5
1593106	PROB	n/a	LTP391	ltpFR2	0	n/a	n/a	n/a	13	23	8	9	6
1598122	PROB	n/a	LTP391	ltpFR2	0	n/a	n/a	n/a	13	14	3	2	9
1600106	PROB	n/a	LTP391	ltpFR2	0	n/a	n/a	n/a	13	8	1	6	1
1601489	PROB	n/a	LTP391	ltpFR2	0	n/a	n/a	n/a	13	20	9	8	3
1603206	PROB	n/a	LTP391	ltpFR2	0	n/a	n/a	n/a	13	5	2	1	2
1604888	PROB	n/a	LTP391	ltpFR2	0	n/a	n/a	n/a	13	15	5	1	9
1608373	STOP	n/a	LTP391	ltpFR2	0	n/a	n/a	n/a	13	n/a	n/a	n/a	n/a
1610290	REC_START	n/a	LTP391	ltpFR2	0	7	n/a	n/a	n/a	n/a	0	0	0
1610945	REC_WORD	wordpools/wasnorm_wordpool_576.txt	LTP391	ltpFR2	0	7	MOP	916	n/a	n/a	0	0	0
1612722	REC_WORD	wordpools/wasnorm_wordpool_576.txt	LTP391	ltpFR2	0	7	CHURCH	307	n/a	n/a	0	0	0
1614192	REC_WORD	wordpools/wasnorm_wordpool_576.txt	LTP391	ltpFR2	0	7	PACKAGE	997	n/a	n/a	0	0	0
1615447	REC_WORD	wordpools/wasnorm_wordpool_576.txt	LTP391	ltpFR2	0	7	POSTAL	-1	n/a	n/a	0	0	0
1616490	REC_WORD	wordpools/wasnorm_wordpool_576.txt	LTP391	ltpFR2	0	7	STAMP	1370	n/a	n/a	0	0	0
1617755	REC_WORD	wordpools/wasnorm_wordpool_576.txt	LTP391	ltpFR2	0	7	ATOM	55	n/a	n/a	0	0	0
1618660	REC_WORD	wordpools/wasnorm_wordpool_576.txt	LTP391	ltpFR2	0	7	WORLD	1622	n/a	n/a	0	0	0
1619425	REC_WORD	wordpools/wasnorm_wordpool_576.txt	LTP391	ltpFR2	0	7	GLOBE	641	n/a	n/a	0	0	0
1622305	REC_WORD	wordpools/wasnorm_wordpool_576.txt	LTP391	ltpFR2	0	7	FOX	598	n/a	n/a	0	0	0
1624450	REC_WORD	wordpools/wasnorm_wordpool_576.txt	LTP391	ltpFR2	0	7	FINGER	567	n/a	n/a	0	0	0
1628645	REC_WORD	wordpools/wasnorm_wordpool_576.txt	LTP391	ltpFR2	0	7	HAWK	692	n/a	n/a	0	0	0
1629675	REC_WORD	wordpools/wasnorm_wordpool_576.txt	LTP391	ltpFR2	0	7	EAGLE	512	n/a	n/a	0	0	0
1631063	REC_WORD	wordpools/wasnorm_wordpool_576.txt	LTP391	ltpFR2	0	7	PREACHER	1119	n/a	n/a	0	0	0
1641668	REC_WORD	wordpools/wasnorm_wordpool_576.txt	LTP391	ltpFR2	0	7	SCALPEL	1243	n/a	n/a	0	0	0
1642763	REC_WORD	wordpools/wasnorm_wordpool_576.txt	LTP391	ltpFR2	0	7	SCISSORS	1250	n/a	n/a	0	0	0
1724220	DISTRACTOR	n/a	LTP391	ltpFR2	0	8	n/a	n/a	n/a	n/a	0	0	0
1724220	START	n/a	LTP391	ltpFR2	0	n/a	n/a	n/a	14	n/a	n/a	n/a	n/a
1724237	PROB	n/a	LTP391	ltpFR2	0	n/a	n/a	n/a	14	12	2	6	4
1726020	PROB	n/a	LTP391	ltpFR2	0	n/a	n/a	n/a	14	16	2	8	6
1728203	PROB	n/a	LTP391	ltpFR2	0	n/a	n/a	n/a	14	17	3	5	9
1730287	PROB	n/a	LTP391	ltpFR2	0	n/a	n/a	n/a	14	14	5	1	8
1732270	PROB	n/a	LTP391	ltpFR2	0	n/a	n/a	n/a	14	13	3	1	9
1734553	PROB	n/a	LTP391	ltpFR2	0	n/a	n/a	n/a	14	19	5	6	8
1737120	PROB	n/a	LTP391	ltpFR2	0	n/a	n/a	n/a	14	10	2	7	1
1738852	PROB	n/a	LTP391	ltpFR2	0	n/a	n/a	n/a	14	15	7	5	3
1741020	PROB	n/a	LTP391	ltpFR2	0	n/a	n/a	n/a	14	8	1	3	4
1742470	PROB	n/a	LTP391	ltpFR2	0	n/a	n/a	n/a	14	20	7	7	6
1744553	PROB	n/a	LTP391	ltpFR2	0	n/a	n/a	n/a	14	14	3	8	3
1746470	PROB	n/a	LTP391	ltpFR2	0	n/a	n/a	n/a	14	17	6	4	7
1748041	STOP	n/a	LTP391	ltpFR2	0	n/a	n/a	n/a	14	n/a	n/a	n/a	n/a
1749303	WORD	wordpools/wasnorm_wordpool_576.txt	LTP391	ltpFR2	0	8	BINDER	127	n/a	n/a	0	0	0
1752070	WORD	wordpools/wasnorm_wordpool_576.txt	LTP391	ltpFR2	0	8	SHELF	1280	n/a	n/a	0	0	0
1754620	WORD	wordpools/wasnorm_wordpool_576.txt	LTP391	ltpFR2	0	8	CURTAIN	427	n/a	n/a	0	0	0
1757270	WORD	wordpools/wasnorm_wordpool_576.txt	LTP391	ltpFR2	0	8	TUNNEL	1519	n/a	n/a	0	0	0
1759735	WORD	wordpools/wasnorm_wordpool_576.txt	LTP391	ltpFR2	0	8	OUTDOORS	987	n/a	n/a	0	0	0
1762536	WORD	wordpools/wasnorm_wordpool_576.txt	LTP391	ltpFR2	0	8	PLASTER	1085	n/a	n/a	0	0	0
1765053	WORD	wordpools/wasnorm_wordpool_576.txt	LTP391	ltpFR2	0	8	WINDOW	1611	n/a	n/a	0	0	0
1767486	WORD	wordpools/wasnorm_wordpool_576.txt	LTP391	ltpFR2	0	8	CHEMIST	292	n/a	n/a	0	0	0
1770219	WORD	wordpools/wasnorm_wordpool_576.txt	LTP391	ltpFR2	0	8	PIGEON	1065	n/a	n/a	0	0	0
1772953	WORD	wordpools/wasnorm_wordpool_576.txt	LTP391	ltpFR2	0	8	LETTUCE	814	n/a	n/a	0	0	0
1775503	WORD	wordpools/wasnorm_wordpool_576.txt	LTP391	ltpFR2	0	8	GLOVE	642	n/a	n/a	0	0	0
1777936	WORD	wordpools/wasnorm_wordpool_576.txt	LTP391	ltpFR2	0	8	BEAKER	104	n/a	n/a	0	0	0
1780569	WORD	wordpools/wasnorm_wordpool_576.txt	LTP391	ltpFR2	0	8	CRAYON	401	n/a	n/a	0	0	0
1783119	WORD	wordpools/wasnorm_wordpool_576.txt	LTP391	ltpFR2	0	8	GLASS	639	n/a	n/a	0	0	0
1785569	WORD	wordpools/wasnorm_wordpool_576.txt	LTP391	ltpFR2	0	8	PUPIL	1143	n/a	n/a	0	0	0
1788036	WORD	wordpools/wasnorm_wordpool_576.txt	LTP391	ltpFR2	0	8	CORAL	378	n/a	n/a	0	0	0
1790552	WORD	wordpools/wasnorm_wordpool_576.txt	LTP391	ltpFR2	0	8	HUSBAND	728	n/a	n/a	0	0	0
1793002	WORD	wordpools/wasnorm_wordpool_576.txt	LTP391	ltpFR2	0	8	LOVER	846	n/a	n/a	0	0	0
1795801	WORD	wordpools/wasnorm_wordpool_576.txt	LTP391	ltpFR2	0	8	PARENT	1013	n/a	n/a	0	0	0
1798569	WORD	wordpools/wasnorm_wordpool_576.txt	LTP391	ltpFR2	0	8	KEEPER	769	n/a	n/a	0	0	0
1801336	WORD	wordpools/wasnorm_wordpool_576.txt	LTP391	ltpFR2	0	8	LAMP	798	n/a	n/a	0	0	0
1804136	WORD	wordpools/wasnorm_wordpool_576.txt	LTP391	ltpFR2	0	8	GARBAGE	622	n/a	n/a	0	0	0
1806684	WORD	wordpools/wasnorm_wordpool_576.txt	LTP391	ltpFR2	0	8	POET	1095	n/a	n/a	0	0	0
1809402	WORD	wordpools/wasnorm_wordpool_576.txt	LTP391	ltpFR2	0	8	BLADE	134	n/a	n/a	0	0	0
1811019	START	n/a	LTP391	ltpFR2	0	n/a	n/a	n/a	15	n/a	n/a	n/a	n/a
1811885	DISTRACTOR	n/a	LTP391	ltpFR2	0	8	n/a	n/a	n/a	n/a	0	0	0
1811901	PROB	n/a	LTP391	ltpFR2	0	n/a	n/a	n/a	15	9	4	3	2
1814718	PROB	n/a	LTP391	ltpFR2	0	n/a	n/a	n/a	15	16	9	6	1
1818285	PROB	n/a	LTP391	ltpFR2	0	n/a	n/a	n/a	15	12	2	9	1
1819784	PROB	n/a	LTP391	ltpFR2	0	n/a	n/a	n/a	15	16	6	1	9
1821619	PROB	n/a	LTP391	ltpFR2	0	n/a	n/a	n/a	15	21	6	7	6
1825019	PROB	n/a	LTP391	ltpFR2	0	n/a	n/a	n/a	15	18	9	5	4
1828252	PROB	n/a	LTP391	ltpFR2	0	n/a	n/a	n/a	15	24	9	8	7
1832368	PROB	n/a	LTP391	ltpFR2	0	n/a	n/a	n/a	15	11	3	6	2
1834604	STOP	n/a	LTP391	ltpFR2	0	n/a	n/a	n/a	15	n/a	n/a	n/a	n/a
1836918	REC_START	n/a	LTP391	ltpFR2	0	8	n/a	n/a	n/a	n/a	0	0	0
1837817	REC_WORD	wordpools/wasnorm_wordpool_576.txt	LTP391	ltpFR2	0	8	HUSBAND	728	n/a	n/a	0	0	0
1838587	REC_WORD	wordpools/wasnorm_wordpool_576.txt	LTP391	ltpFR2	0	8	LOVER	846	n/a	n/a	0	0	0
1839285	REC_WORD	wordpools/wasnorm_wordpool_576.txt	LTP391	ltpFR2	0	8	PARENT	1013	n/a	n/a	0	0	0
1840010	REC_WORD	wordpools/wasnorm_wordpool_576.txt	LTP391	ltpFR2	0	8	KEEPER	769	n/a	n/a	0	0	0
1841162	REC_WORD	wordpools/wasnorm_wordpool_576.txt	LTP391	ltpFR2	0	8	BLADE	134	n/a	n/a	0	0	0
1842342	REC_WORD	wordpools/wasnorm_wordpool_576.txt	LTP391	ltpFR2	0	8	PIGEON	1065	n/a	n/a	0	0	0
1843753	REC_WORD	wordpools/wasnorm_wordpool_576.txt	LTP391	ltpFR2	0	8	LETTUCE	814	n/a	n/a	0	0	0
1848173	REC_WORD	wordpools/wasnorm_wordpool_576.txt	LTP391	ltpFR2	0	8	GLOVE	642	n/a	n/a	0	0	0
1850288	REC_WORD	wordpools/wasnorm_wordpool_576.txt	LTP391	ltpFR2	0	8	WINDOW	1611	n/a	n/a	0	0	0
1850972	REC_WORD	wordpools/wasnorm_wordpool_576.txt	LTP391	ltpFR2	0	8	SHELF	1280	n/a	n/a	0	0	0
1851874	REC_WORD	wordpools/wasnorm_wordpool_576.txt	LTP391	ltpFR2	0	8	PLASTER	1085	n/a	n/a	0	0	0
1853565	REC_WORD	wordpools/wasnorm_wordpool_576.txt	LTP391	ltpFR2	0	8	GARBAGE	622	n/a	n/a	0	0	0
1856608	REC_WORD	wordpools/wasnorm_wordpool_576.txt	LTP391	ltpFR2	0	8	BEAKER	104	n/a	n/a	0	0	0
1857257	REC_WORD	wordpools/wasnorm_wordpool_576.txt	LTP391	ltpFR2	0	8	CHEMIST	292	n/a	n/a	0	0	0
1858060	REC_WORD	wordpools/wasnorm_wordpool_576.txt	LTP391	ltpFR2	0	8	GLASS	639	n/a	n/a	0	0	0
1867320	REC_WORD	wordpools/wasnorm_wordpool_576.txt	LTP391	ltpFR2	0	8	OUTDOORS	987	n/a	n/a	0	0	0
1884341	REC_WORD	wordpools/wasnorm_wordpool_576.txt	LTP391	ltpFR2	0	8	POET	1095	n/a	n/a	0	0	0
1913450	REST_REWET	n/a	LTP391	ltpFR2	0	8	n/a	n/a	n/a	n/a	0	0	0
2028049	WORD	wordpools/wasnorm_wordpool_576.txt	LTP391	ltpFR2	0	9	BOARD	143	n/a	n/a	0	0	0
2030499	WORD	wordpools/wasnorm_wordpool_576.txt	LTP391	ltpFR2	0	9	VAGRANT	1544	n/a	n/a	0	0	0
2033199	WORD	wordpools/wasnorm_wordpool_576.txt	LTP391	ltpFR2	0	9	WASHER	1592	n/a	n/a	0	0	0
2035681	WORD	wordpools/wasnorm_wordpool_576.txt	LTP391	ltpFR2	0	9	MATTRESS	879	n/a	n/a	0	0	0
2038198	WORD	wordpools/wasnorm_wordpool_576.txt	LTP391	ltpFR2	0	9	TURKEY	1520	n/a	n/a	0	0	0
2040632	WORD	wordpools/wasnorm_wordpool_576.txt	LTP391	ltpFR2	0	9	CHAPEL	280	n/a	n/a	0	0	0
2043448	WORD	wordpools/wasnorm_wordpool_576.txt	LTP391	ltpFR2	0	9	DORM	488	n/a	n/a	0	0	0
2046215	WORD	wordpools/wasnorm_wordpool_576.txt	LTP391	ltpFR2	0	9	TURTLE	1522	n/a	n/a	0	0	0
2048714	WORD	wordpools/wasnorm_wordpool_576.txt	LTP391	ltpFR2	0	9	TORTOISE	1486	n/a	n/a	0	0	0
2051332	WORD	wordpools/wasnorm_wordpool_576.txt	LTP391	ltpFR2	0	9	CASHEW	253	n/a	n/a	0	0	0
2054148	WORD	wordpools/wasnorm_wordpool_576.txt	LTP391	ltpFR2	0	9	DASHBOARD	441	n/a	n/a	0	0	0
2056814	WORD	wordpools/wasnorm_wordpool_576.txt	LTP391	ltpFR2	0	9	TEMPLE	1448	n/a	n/a	0	0	0
2059548	WORD	wordpools/wasnorm_wordpool_576.txt	LTP391	ltpFR2	0	9	TWISTER	1530	n/a	n/a	0	0	0
2062365	WORD	wordpools/wasnorm_wordpool_576.txt	LTP391	ltpFR2	0	9	KLEENEX	782	n/a	n/a	0	0	0
2064914	WORD	wordpools/wasnorm_wordpool_576.txt	LTP391	ltpFR2	0	9	PATIENT	1024	n/a	n/a	0	0	0
2067515	WORD	wordpools/wasnorm_wordpool_576.txt	LTP391	ltpFR2	0	9	CHEST	295	n/a	n/a	0	0	0
2070081	WORD	wordpools/wasnorm_wordpool_576.txt	LTP391	ltpFR2	0	9	REBEL	1172	n/a	n/a	0	0	0
2072648	WORD	wordpools/wasnorm_wordpool_576.txt	LTP391	ltpFR2	0	9	BRANCH	168	n/a	n/a	0	0	0
2075231	WORD	wordpools/wasnorm_wordpool_576.txt	LTP391	ltpFR2	0	9	MAPLE	866	n/a	n/a	0	0	0
2078014	WORD	wordpools/wasnorm_wordpool_576.txt	LTP391	ltpFR2	0	9	MAILBOX	857	n/a	n/a	0	0	0
2080564	WORD	wordpools/wasnorm_wordpool_576.txt	LTP391	ltpFR2	0	9	PADDING	999	n/a	n/a	0	0	0
2083031	WORD	wordpools/wasnorm_wordpool_576.txt	LTP391	ltpFR2	0	9	FOOTBALL	591	n/a	n/a	0	0	0
2085763	WORD	wordpools/wasnorm_wordpool_576.txt	LTP391	ltpFR2	0	9	RIVER	1194	n/a	n/a	0	0	0
2088331	WORD	wordpools/wasnorm_wordpool_576.txt	LTP391	ltpFR2	0	9	COTTAGE	384	n/a	n/a	0	0	0
2089948	START	n/a	LTP391	ltpFR2	0	n/a	n/a	n/a	16	n/a	n/a	n/a	n/a
2090952	DISTRACTOR	n/a	LTP391	ltpFR2	0	9	n/a	n/a	n/a	n/a	0	0	0
2090964	PROB	n/a	LTP391	ltpFR2	0	n/a	n/a	n/a	16	12	9	1	2
2093281	PROB	n/a	LTP391	ltpFR2	0	n/a	n/a	n/a	16	23	8	7	8
2100064	PROB	n/a	LTP391	ltpFR2	0	n/a	n/a	n/a	16	21	4	8	9
2102531	PROB	n/a	LTP391	ltpFR2	0	n/a	n/a	n/a	16	18	8	4	6
2104614	PROB	n/a	LTP391	ltpFR2	0	n/a	n/a	n/a	16	20	9	3	8
2107713	PROB	n/a	LTP391	ltpFR2	0	n/a	n/a	n/a	16	18	6	8	4
2109830	PROB	n/a	LTP391	ltpFR2	0	n/a	n/a	n/a	16	7	1	2	4
2111414	PROB	n/a	LTP391	ltpFR2	0	n/a	n/a	n/a	16	13	6	2	5
2113444	STOP	n/a	LTP391	ltpFR2	0	n/a	n/a	n/a	16	n/a	n/a	n/a	n/a
2115747	REC_START	n/a	LTP391	ltpFR2	0	9	n/a	n/a	n/a	n/a	0	0	0
2116304	REC_WORD	wordpools/wasnorm_wordpool_576.txt	LTP391	ltpFR2	0	9	BOARD	143	n/a	n/a	0	0	0
2116926	REC_WORD	wordpools/wasnorm_wordpool_576.txt	LTP391	ltpFR2	0	9	DASHBOARD	441	n/a	n/a	0	0	0
2118076	REC_WORD	wordpools/wasnorm_wordpool_576.txt	LTP391	ltpFR2	0	9	FOOTBALL	591	n/a	n/a	0	0	0
2118823	REC_WORD	wordpools/wasnorm_wordpool_576.txt	LTP391	ltpFR2	0	9	MAILBOX	857	n/a	n/a	0	0	0
2122153	REC_WORD	wordpools/wasnorm_wordpool_576.txt	LTP391	ltpFR2	0	9	CHAPEL	280	n/a	n/a	0	0	0
2122908	REC_WORD	wordpools/wasnorm_wordpool_576.txt	LTP391	ltpFR2	0	9	TEMPLE	1448	n/a	n/a	0	0	0
2126908	REC_WORD	wordpools/wasnorm_wordpool_576.txt	LTP391	ltpFR2	0	9	RIVER	1194	n/a	n/a	0	0	0
2130123	REC_WORD	wordpools/wasnorm_wordpool_576.txt	LTP391	ltpFR2	0	9	TURKEY	1520	n/a	n/a	0	0	0
2131888	REC_WORD	wordpools/wasnorm_wordpool_576.txt	LTP391	ltpFR2	0	9	TABLE	1426	n/a	n/a	0	0	0
2141118	REC_WORD	wordpools/wasnorm_wordpool_576.txt	LTP391	ltpFR2	0	9	KLEENEX	782	n/a	n/a	0	0	0
2143433	REC_WORD	wordpools/wasnorm_wordpool_576.txt	LTP391	ltpFR2	0	9	PLASTER	1085	n/a	n/a	0	0	0
2206196	WORD	wordpools/wasnorm_wordpool_576.txt	LTP391	ltpFR2	0	10	CARRIAGE	248	n/a	n/a	0	0	0
2208761	WORD	wordpools/wasnorm_wordpool_576.txt	LTP391	ltpFR2	0	10	LIZARD	834	n/a	n/a	0	0	0
2211262	WORD	wordpools/wasnorm_wordpool_576.txt	LTP391	ltpFR2	0	10	TRENCH	1503	n/a	n/a	0	0	0
2213895	WORD	wordpools/wasnorm_wordpool_576.txt	LTP391	ltpFR2	0	10	POCKET	1093	n/a	n/a	0	0	0
2216562	WORD	wordpools/wasnorm_wordpool_576.txt	LTP391	ltpFR2	0	10	HANDBAG	684	n/a	n/a	0	0	0
2219329	WORD	wordpools/wasnorm_wordpool_576.txt	LTP391	ltpFR2	0	10	SUITCASE	1403	n/a	n/a	0	0	0
2221861	WORD	wordpools/wasnorm_wordpool_576.txt	LTP391	ltpFR2	0	10	LASER	801	n/a	n/a	0	0	0
2224545	WORD	wordpools/wasnorm_wordpool_576.txt	LTP391	ltpFR2	0	10	LAGOON	795	n/a	n/a	0	0	0
2227362	WORD	wordpools/wasnorm_wordpool_576.txt	LTP391	ltpFR2	0	10	MUFFIN	929	n/a	n/a	0	0	0
2229811	WORD	wordpools/wasnorm_wordpool_576.txt	LTP391	ltpFR2	0	10	BLOUSE	139	n/a	n/a	0	0	0
2232295	WORD	wordpools/wasnorm_wordpool_576.txt	LTP391	ltpFR2	0	10	RADISH	1158	n/a	n/a	0	0	0
2234794	WORD	wordpools/wasnorm_wordpool_576.txt	LTP391	ltpFR2	0	10	GALLON	618	n/a	n/a	0	0	0
2237295	WORD	wordpools/wasnorm_wordpool_576.txt	LTP391	ltpFR2	0	10	MILK	895	n/a	n/a	0	0	0
2239761	WORD	wordpools/wasnorm_wordpool_576.txt	LTP391	ltpFR2	0	10	CRITIC	410	n/a	n/a	0	0	0
2242262	WORD	wordpools/wasnorm_wordpool_576.txt	LTP391	ltpFR2	0	10	FLASHLIGHT	575	n/a	n/a	0	0	0
2244727	WORD	wordpools/wasnorm_wordpool_576.txt	LTP391	ltpFR2	0	10	MESSAGE	888	n/a	n/a	0	0	0
2247262	WORD	wordpools/wasnorm_wordpool_576.txt	LTP391	ltpFR2	0	10	GARLIC	624	n/a	n/a	0	0	0
2249945	WORD	wordpools/wasnorm_wordpool_576.txt	LTP391	ltpFR2	0	10	SADDLE	1221	n/a	n/a	0	0	0
2252595	WORD	wordpools/wasnorm_wordpool_576.txt	LTP391	ltpFR2	0	10	CATTLE	261	n/a	n/a	0	0	0
2255245	WORD	wordpools/wasnorm_wordpool_576.txt	LTP391	ltpFR2	0	10	MAMMAL	861	n/a	n/a	0	0	0
2258011	WORD	wordpools/wasnorm_wordpool_576.txt	LTP391	ltpFR2	0	10	CANAL	226	n/a	n/a	0	0	0
2260827	WORD	wordpools/wasnorm_wordpool_576.txt	LTP391	ltpFR2	0	10	SKILLET	1317	n/a	n/a	0	0	0
2263528	WORD	wordpools/wasnorm_wordpool_576.txt	LTP391	ltpFR2	0	10	GOBLIN	645	n/a	n/a	0	0	0
2266111	WORD	wordpools/wasnorm_wordpool_576.txt	LTP391	ltpFR2	0	10	SLIME	1327	n/a	n/a	0	0	0
2267727	START	n/a	LTP391	ltpFR2	0	n/a	n/a	n/a	17	n/a	n/a	n/a	n/a
2268574	DISTRACTOR	n/a	LTP391	ltpFR2	0	10	n/a	n/a	n/a	n/a	0	0	0
2268578	PROB	n/a	LTP391	ltpFR2	0	n/a	n/a	n/a	17	11	1	9	1
2270528	PROB	n/a	LTP391	ltpFR2	0	n/a	n/a	n/a	17	12	3	2	7
2272095	PROB	n/a	LTP391	ltpFR2	0	n/a	n/a	n/a	17	14	3	7	4
2274727	PROB	n/a	LTP391	ltpFR2	0	n/a	n/a	n/a	17	19	4	6	9
2277078	PROB	n/a	LTP391	ltpFR2	0	n/a	n/a	n/a	17	11	4	3	4
2279128	PROB	n/a	LTP391	ltpFR2	0	n/a	n/a	n/a	17	20	6	7	7
2281877	PROB	n/a	LTP391	ltpFR2	0	n/a	n/a	n/a	17	15	5	8	2
2283344	PROB	n/a	LTP391	ltpFR2	0	n/a	n/a	n/a	17	13	1	9	3
2284793	PROB	n/a	LTP391	ltpFR2	0	n/a	n/a	n/a	17	14	7	5	2
2288494	PROB	n/a	LTP391	ltpFR2	0	n/a	n/a	n/a	17	11	7	2	2
2290290	STOP	n/a	LTP391	ltpFR2	0	n/a	n/a	n/a	17	n/a	n/a	n/a	n/a
2293595	REC_START	n/a	LTP391	ltpFR2	0	10	n/a	n/a	n/a	n/a	0	0	0
2294068	REC_WORD	wordpools/wasnorm_wordpool_576.txt	LTP391	ltpFR2	0	10	CARRIAGE	248	n/a	n/a	0	0	0
2294778	REC_WORD	wordpools/wasnorm_wordpool_576.txt	LTP391	ltpFR2	0	10	CRITIC	410	n/a	n/a	0	0	0
2296148	REC_WORD	wordpools/wasnorm_wordpool_576.txt	LTP391	ltpFR2	0	10	RADISH	1158	n/a	n/a	0	0	0
2296935	REC_WORD	wordpools/wasnorm_wordpool_576.txt	LTP391	ltpFR2	0	10	MILK	895	n/a	n/a	0	0	0
2297696	REC_WORD	wordpools/wasnorm_wordpool_576.txt	LTP391	ltpFR2	0	10	GALLON	618	n/a	n/a	0	0	0
2298398	REC_WORD	wordpools/wasnorm_wordpool_576.txt	LTP391	ltpFR2	0	10	GARLIC	624	n/a	n/a	0	0	0
2298931	REC_WORD	wordpools/wasnorm_wordpool_576.txt	LTP391	ltpFR2	0	10	SKILLET	1317	n/a	n/a	0	0	0
2309286	REC_WORD	wordpools/wasnorm_wordpool_576.txt	LTP391	ltpFR2	0	10	HANDBAG	684	n/a	n/a	0	0	0
2310111	REC_WORD	wordpools/wasnorm_wordpool_576.txt	LTP391	ltpFR2	0	10	BLOUSE	139	n/a	n/a	0	0	0
2343782	REC_WORD	wordpools/wasnorm_wordpool_576.txt	LTP391	ltpFR2	0	10	MUFFIN	929	n/a	n/a	0	0	0
2384026	DISTRACTOR	n/a	LTP391	ltpFR2	0	11	n/a	n/a	n/a	n/a	0	0	0
2384026	START	n/a	LTP391	ltpFR2	0	n/a	n/a	n/a	18	n/a	n/a	n/a	n/a
2384043	PROB	n/a	LTP391	ltpFR2	0	n/a	n/a	n/a	18	17	3	8	6
2387009	PROB	n/a	LTP391	ltpFR2	0	n/a	n/a	n/a	18	18	7	3	8
2388376	PROB	n/a	LTP391	ltpFR2	0	n/a	n/a	n/a	18	13	7	1	5
2390343	PROB	n/a	LTP391	ltpFR2	0	n/a	n/a	n/a	18	16	5	9	2
2393908	PROB	n/a	LTP391	ltpFR2	0	n/a	n/a	n/a	18	21	6	6	9
2397825	PROB	n/a	LTP391	ltpFR2	0	n/a	n/a	n/a	18	17	3	8	6
2400459	PROB	n/a	LTP391	ltpFR2	0	n/a	n/a	n/a	18	10	4	4	2
2402542	PROB	n/a	LTP391	ltpFR2	0	n/a	n/a	n/a	18	21	8	4	9
2406549	STOP	n/a	LTP391	ltpFR2	0	n/a	n/a	n/a	18	n/a	n/a	n/a	n/a
2409009	WORD	wordpools/wasnorm_wordpool_576.txt	LTP391	ltpFR2	0	11	LODGE	839	n/a	n/a	0	0	0
2411775	WORD	wordpools/wasnorm_wordpool_576.txt	LTP391	ltpFR2	0	11	DUST	508	n/a	n/a	0	0	0
2414426	WORD	wordpools/wasnorm_wordpool_576.txt	LTP391	ltpFR2	0	11	LEOPARD	812	n/a	n/a	0	0	0
2417125	WORD	wordpools/wasnorm_wordpool_576.txt	LTP391	ltpFR2	0	11	COMPASS	358	n/a	n/a	0	0	0
2419841	WORD	wordpools/wasnorm_wordpool_576.txt	LTP391	ltpFR2	0	11	COMET	353	n/a	n/a	0	0	0
2422392	WORD	wordpools/wasnorm_wordpool_576.txt	LTP391	ltpFR2	0	11	CRAB	397	n/a	n/a	0	0	0
2424874	WORD	wordpools/wasnorm_wordpool_576.txt	LTP391	ltpFR2	0	11	TERMITE	1451	n/a	n/a	0	0	0
2427609	WORD	wordpools/wasnorm_wordpool_576.txt	LTP391	ltpFR2	0	11	SPIDER	1351	n/a	n/a	0	0	0
2430342	WORD	wordpools/wasnorm_wordpool_576.txt	LTP391	ltpFR2	0	11	LION	827	n/a	n/a	0	0	0
2432792	WORD	wordpools/wasnorm_wordpool_576.txt	LTP391	ltpFR2	0	11	VALLEY	1545	n/a	n/a	0	0	0
2435525	WORD	wordpools/wasnorm_wordpool_576.txt	LTP391	ltpFR2	0	11	JURY	766	n/a	n/a	0	0	0
2438292	WORD	wordpools/wasnorm_wordpool_576.txt	LTP391	ltpFR2	0	11	RACKET	1155	n/a	n/a	0	0	0
2441075	WORD	wordpools/wasnorm_wordpool_576.txt	LTP391	ltpFR2	0	11	PECAN	1036	n/a	n/a	0	0	0
2443608	WORD	wordpools/wasnorm_wordpool_576.txt	LTP391	ltpFR2	0	11	GUITAR	670	n/a	n/a	0	0	0
2446375	WORD	wordpools/wasnorm_wordpool_576.txt	LTP391	ltpFR2	0	11	SOFTBALL	1343	n/a	n/a	0	0	0
2449075	WORD	wordpools/wasnorm_wordpool_576.txt	LTP391	ltpFR2	0	11	EXPERT	543	n/a	n/a	0	0	0
2451891	WORD	wordpools/wasnorm_wordpool_576.txt	LTP391	ltpFR2	0	11	FLIPPER	580	n/a	n/a	0	0	0
2454441	WORD	wordpools/wasnorm_wordpool_576.txt	LTP391	ltpFR2	0	11	MARINE	869	n/a	n/a	0	0	0
2457008	WORD	wordpools/wasnorm_wordpool_576.txt	LTP391	ltpFR2	0	11	TROUT	1511	n/a	n/a	0	0	0
2459642	WORD	wordpools/wasnorm_wordpool_576.txt	LTP391	ltpFR2	0	11	TREAT	1501	n/a	n/a	0	0	0
2462408	WORD	wordpools/wasnorm_wordpool_576.txt	LTP391	ltpFR2	0	11	TART	1436	n/a	n/a	0	0	0
2465075	WORD	wordpools/wasnorm_wordpool_576.txt	LTP391	ltpFR2	0	11	HIKER	708	n/a	n/a	0	0	0
2467707	WORD	wordpools/wasnorm_wordpool_576.txt	LTP391	ltpFR2	0	11	BULLET	194	n/a	n/a	0	0	0
2470391	WORD	wordpools/wasnorm_wordpool_576.txt	LTP391	ltpFR2	0	11	LABEL	790	n/a	n/a	0	0	0
2472008	START	n/a	LTP391	ltpFR2	0	n/a	n/a	n/a	19	n/a	n/a	n/a	n/a
2472988	DISTRACTOR	n/a	LTP391	ltpFR2	0	11	n/a	n/a	n/a	n/a	0	0	0
2472991	PROB	n/a	LTP391	ltpFR2	0	n/a	n/a	n/a	19	21	6	7	8
2479341	PROB	n/a	LTP391	ltpFR2	0	n/a	n/a	n/a	19	9	4	1	4
2482941	PROB	n/a	LTP391	ltpFR2	0	n/a	n/a	n/a	19	14	3	9	2
2485258	PROB	n/a	LTP391	ltpFR2	0	n/a	n/a	n/a	19	16	2	8	6
2486740	PROB	n/a	LTP391	ltpFR2	0	n/a	n/a	n/a	19	12	6	3	3
2488840	PROB	n/a	LTP391	ltpFR2	0	n/a	n/a	n/a	19	15	8	2	5
2490541	PROB	n/a	LTP391	ltpFR2	0	n/a	n/a	n/a	19	16	8	3	5
2496008	STOP	n/a	LTP391	ltpFR2	0	n/a	n/a	n/a	19	n/a	n/a	n/a	n/a
2497907	REC_START	n/a	LTP391	ltpFR2	0	11	n/a	n/a	n/a	n/a	0	0	0
2500475	REC_WORD	wordpools/wasnorm_wordpool_576.txt	LTP391	ltpFR2	0	11	JURY	766	n/a	n/a	0	0	0
2501118	REC_WORD	wordpools/wasnorm_wordpool_576.txt	LTP391	ltpFR2	0	11	EXPERT	543	n/a	n/a	0	0	0
2501843	REC_WORD	wordpools/wasnorm_wordpool_576.txt	LTP391	ltpFR2	0	11	SOFTBALL	1343	n/a	n/a	0	0	0
2509750	REC_WORD	wordpools/wasnorm_wordpool_576.txt	LTP391	ltpFR2	0	11	HIKER	708	n/a	n/a	0	0	0
2514084	REC_WORD	wordpools/wasnorm_wordpool_576.txt	LTP391	ltpFR2	0	11	LODGE	839	n/a	n/a	0	0	0
2516184	REC_WORD	wordpools/wasnorm_wordpool_576.txt	LTP391	ltpFR2	0	11	TERMITE	1451	n/a	n/a	0	0	0
2516949	REC_WORD	wordpools/wasnorm_wordpool_576.txt	LTP391	ltpFR2	0	11	DUST	508	n/a	n/a	0	0	0
2517654	REC_WORD	wordpools/wasnorm_wordpool_576.txt	LTP391	ltpFR2	0	11	SPIDER	1351	n/a	n/a	0	0	0
2522175	REC_WORD	wordpools/wasnorm_wordpool_576.txt	LTP391	ltpFR2	0	11	CRAB	397	n/a	n/a	0	0	0
2524070	REC_WORD	wordpools/wasnorm_wordpool_576.txt	LTP391	ltpFR2	0	11	MARINE	869	n/a	n/a	0	0	0
2524985	REC_WORD	wordpools/wasnorm_wordpool_576.txt	LTP391	ltpFR2	0	11	TROUT	1511	n/a	n/a	0	0	0
2530526	REC_WORD	wordpools/wasnorm_wordpool_576.txt	LTP391	ltpFR2	0	11	FLIPPER	580	n/a	n/a	0	0	0
2571726	REC_WORD	wordpools/wasnorm_wordpool_576.txt	LTP391	ltpFR2	0	11	TREAT	1501	n/a	n/a	0	0	0
2572542	REC_WORD	wordpools/wasnorm_wordpool_576.txt	LTP391	ltpFR2	0	11	TART	1436	n/a	n/a	0	0	0
2588356	WORD	wordpools/wasnorm_wordpool_576.txt	LTP391	ltpFR2	0	12	SCULPTURE	1258	n/a	n/a	0	0	0
2590989	WORD	wordpools/wasnorm_wordpool_576.txt	LTP391	ltpFR2	0	12	GAVEL	627	n/a	n/a	0	0	0
2593623	WORD	wordpools/wasnorm_wordpool_576.txt	LTP391	ltpFR2	0	12	JUDGE	761	n/a	n/a	0	0	0
2596322	WORD	wordpools/wasnorm_wordpool_576.txt	LTP391	ltpFR2	0	12	MOTOR	922	n/a	n/a	0	0	0
2598805	WORD	wordpools/wasnorm_wordpool_576.txt	LTP391	ltpFR2	0	12	BADGE	68	n/a	n/a	0	0	0
2601272	WORD	wordpools/wasnorm_wordpool_576.txt	LTP391	ltpFR2	0	12	FARMER	553	n/a	n/a	0	0	0
2603888	WORD	wordpools/wasnorm_wordpool_576.txt	LTP391	ltpFR2	0	12	CARROT	249	n/a	n/a	0	0	0
2606705	WORD	wordpools/wasnorm_wordpool_576.txt	LTP391	ltpFR2	0	12	CHAUFFEUR	283	n/a	n/a	0	0	0
2609339	WORD	wordpools/wasnorm_wordpool_576.txt	LTP391	ltpFR2	0	12	SUBWAY	1400	n/a	n/a	0	0	0
2611939	WORD	wordpools/wasnorm_wordpool_576.txt	LTP391	ltpFR2	0	12	BLUEPRINT	142	n/a	n/a	0	0	0
2614506	WORD	wordpools/wasnorm_wordpool_576.txt	LTP391	ltpFR2	0	12	ROBIN	1199	n/a	n/a	0	0	0
2616939	WORD	wordpools/wasnorm_wordpool_576.txt	LTP391	ltpFR2	0	12	BUCKET	184	n/a	n/a	0	0	0
2619705	WORD	wordpools/wasnorm_wordpool_576.txt	LTP391	ltpFR2	0	12	COCOON	339	n/a	n/a	0	0	0
2622205	WORD	wordpools/wasnorm_wordpool_576.txt	LTP391	ltpFR2	0	12	MISTER	901	n/a	n/a	0	0	0
2625022	WORD	wordpools/wasnorm_wordpool_576.txt	LTP391	ltpFR2	0	12	SERVANT	1271	n/a	n/a	0	0	0
2627505	WORD	wordpools/wasnorm_wordpool_576.txt	LTP391	ltpFR2	0	12	ORANGE	980	n/a	n/a	0	0	0
2630139	WORD	wordpools/wasnorm_wordpool_576.txt	LTP391	ltpFR2	0	12	THRONE	1461	n/a	n/a	0	0	0
2632939	WORD	wordpools/wasnorm_wordpool_576.txt	LTP391	ltpFR2	0	12	PRINCESS	1125	n/a	n/a	0	0	0
2635655	WORD	wordpools/wasnorm_wordpool_576.txt	LTP391	ltpFR2	0	12	PASTA	1021	n/a	n/a	0	0	0
2638139	WORD	wordpools/wasnorm_wordpool_576.txt	LTP391	ltpFR2	0	12	UNCLE	1536	n/a	n/a	0	0	0
2640804	WORD	wordpools/wasnorm_wordpool_576.txt	LTP391	ltpFR2	0	12	SUSPECT	1415	n/a	n/a	0	0	0
2643538	WORD	wordpools/wasnorm_wordpool_576.txt	LTP391	ltpFR2	0	12	FOREHEAD	592	n/a	n/a	0	0	0
2645988	WORD	wordpools/wasnorm_wordpool_576.txt	LTP391	ltpFR2	0	12	CLIMBER	323	n/a	n/a	0	0	0
2648671	WORD	wordpools/wasnorm_wordpool_576.txt	LTP391	ltpFR2	0	12	PUDDLE	1140	n/a	n/a	0	0	0
2650288	START	n/a	LTP391	ltpFR2	0	n/a	n/a	n/a	20	n/a	n/a	n/a	n/a
2651253	DISTRACTOR	n/a	LTP391	ltpFR2	0	12	n/a	n/a	n/a	n/a	0	0	0
2651255	PROB	n/a	LTP391	ltpFR2	0	n/a	n/a	n/a	20	16	7	1	8
2654005	PROB	n/a	LTP391	ltpFR2	0	n/a	n/a	n/a	20	20	8	4	8
2659305	PROB	n/a	LTP391	ltpFR2	0	n/a	n/a	n/a	20	20	4	9	7
2662471	PROB	n/a	LTP391	ltpFR2	0	n/a	n/a	n/a	20	18	7	3	8
2664371	PROB	n/a	LTP391	ltpFR2	0	n/a	n/a	n/a	20	19	7	8	4
2667737	PROB	n/a	LTP391	ltpFR2	0	n/a	n/a	n/a	20	14	8	4	2
2669455	PROB	n/a	LTP391	ltpFR2	0	n/a	n/a	n/a	20	20	7	4	9
2673213	STOP	n/a	LTP391	ltpFR2	0	n/a	n/a	n/a	20	n/a	n/a	n/a	n/a
2676122	REC_START	n/a	LTP391	ltpFR2	0	12	n/a	n/a	n/a	n/a	0	0	0
2676789	REC_WORD	wordpools/wasnorm_wordpool_576.txt	LTP391	ltpFR2	0	12	PRINCESS	1125	n/a	n/a	0	0	0
2677562	REC_WORD	wordpools/wasnorm_wordpool_576.txt	LTP391	ltpFR2	0	12	THRONE	1461	n/a	n/a	0	0	0
2679651	REC_WORD	wordpools/wasnorm_wordpool_576.txt	LTP391	ltpFR2	0	12	JUDGE	761	n/a	n/a	0	0	0
2680461	REC_WORD	wordpools/wasnorm_wordpool_576.txt	LTP391	ltpFR2	0	12	GAVEL	627	n/a	n/a	0	0	0
2683001	REC_WORD	wordpools/wasnorm_wordpool_576.txt	LTP391	ltpFR2	0	12	CARROT	249	n/a	n/a	0	0	0
2683556	REC_WORD	wordpools/wasnorm_wordpool_576.txt	LTP391	ltpFR2	0	12	FARMER	553	n/a	n/a	0	0	0
2684707	REC_WORD	wordpools/wasnorm_wordpool_576.txt	LTP391	ltpFR2	0	12	ORANGE	980	n/a	n/a	0	0	0
2685349	REC_WORD	wordpools/wasnorm_wordpool_576.txt	LTP391	ltpFR2	0	12	SERVANT	1271	n/a	n/a	0	0	0
2686517	REC_WORD	wordpools/wasnorm_wordpool_576.txt	LTP391	ltpFR2	0	12	ROBIN	1199	n/a	n/a	0	0	0
2690922	REC_WORD	wordpools/wasnorm_wordpool_576.txt	LTP391	ltpFR2	0	12	CLIMBER	323	n/a	n/a	0	0	0
2701967	REC_WORD	wordpools/wasnorm_wordpool_576.txt	LTP391	ltpFR2	0	12	PASTA	1021	n/a	n/a	0	0	0
2710867	REC_WORD	wordpools/wasnorm_wordpool_576.txt	LTP391	ltpFR2	0	12	COCOON	339	n/a	n/a	0	0	0
2726262	REC_WORD	wordpools/wasnorm_wordpool_576.txt	LTP391	ltpFR2	0	12	BUS	201	n/a	n/a	0	0	0
2726939	REC_WORD	wordpools/wasnorm_wordpool_576.txt	LTP391	ltpFR2	0	12	CHAUFFEUR	283	n/a	n/a	0	0	0
2728844	REC_WORD	wordpools/wasnorm_wordpool_576.txt	LTP391	ltpFR2	0	12	SUBWAY	1400	n/a	n/a	0	0	0
2730874	REC_WORD	wordpools/wasnorm_wordpool_576.txt	LTP391	ltpFR2	0	12	BLUEPRINT	142	n/a	n/a	0	0	0
2732409	REC_WORD	wordpools/wasnorm_wordpool_576.txt	LTP391	ltpFR2	0	12	BUCKET	184	n/a	n/a	0	0	0
2766586	WORD	wordpools/wasnorm_wordpool_576.txt	LTP391	ltpFR2	0	13	CASHIER	254	n/a	n/a	0	0	0
2769320	WORD	wordpools/wasnorm_wordpool_576.txt	LTP391	ltpFR2	0	13	SLOPE	1328	n/a	n/a	0	0	0
2772103	WORD	wordpools/wasnorm_wordpool_576.txt	LTP391	ltpFR2	0	13	CELLAR	267	n/a	n/a	0	0	0
2774769	WORD	wordpools/wasnorm_wordpool_576.txt	LTP391	ltpFR2	0	13	BUG	187	n/a	n/a	0	0	0
2777286	WORD	wordpools/wasnorm_wordpool_576.txt	LTP391	ltpFR2	0	13	FRIAR	605	n/a	n/a	0	0	0
2780003	WORD	wordpools/wasnorm_wordpool_576.txt	LTP391	ltpFR2	0	13	CROSS	413	n/a	n/a	0	0	0
2782768	WORD	wordpools/wasnorm_wordpool_576.txt	LTP391	ltpFR2	0	13	STOMACH	1384	n/a	n/a	0	0	0
2785486	WORD	wordpools/wasnorm_wordpool_576.txt	LTP391	ltpFR2	0	13	BUNNY	198	n/a	n/a	0	0	0
2788286	WORD	wordpools/wasnorm_wordpool_576.txt	LTP391	ltpFR2	0	13	TWIG	1527	n/a	n/a	0	0	0
2791019	WORD	wordpools/wasnorm_wordpool_576.txt	LTP391	ltpFR2	0	13	BRANDY	169	n/a	n/a	0	0	0
2793768	WORD	wordpools/wasnorm_wordpool_576.txt	LTP391	ltpFR2	0	13	SCOTCH	1251	n/a	n/a	0	0	0
2796519	WORD	wordpools/wasnorm_wordpool_576.txt	LTP391	ltpFR2	0	13	COLONEL	348	n/a	n/a	0	0	0
2799286	WORD	wordpools/wasnorm_wordpool_576.txt	LTP391	ltpFR2	0	13	TRACTOR	1493	n/a	n/a	0	0	0
2802019	WORD	wordpools/wasnorm_wordpool_576.txt	LTP391	ltpFR2	0	13	GIRL	637	n/a	n/a	0	0	0
2804602	WORD	wordpools/wasnorm_wordpool_576.txt	LTP391	ltpFR2	0	13	EYELASH	546	n/a	n/a	0	0	0
2807119	WORD	wordpools/wasnorm_wordpool_576.txt	LTP391	ltpFR2	0	13	LEADER	807	n/a	n/a	0	0	0
2809918	WORD	wordpools/wasnorm_wordpool_576.txt	LTP391	ltpFR2	0	13	BASEMENT	94	n/a	n/a	0	0	0
2812569	WORD	wordpools/wasnorm_wordpool_576.txt	LTP391	ltpFR2	0	13	FIREPLACE	570	n/a	n/a	0	0	0
2815069	WORD	wordpools/wasnorm_wordpool_576.txt	LTP391	ltpFR2	0	13	FLAG	573	n/a	n/a	0	0	0
2817735	WORD	wordpools/wasnorm_wordpool_576.txt	LTP391	ltpFR2	0	13	CANDY	230	n/a	n/a	0	0	0
2820419	WORD	wordpools/wasnorm_wordpool_576.txt	LTP391	ltpFR2	0	13	FOREST	593	n/a	n/a	0	0	0
2823135	WORD	wordpools/wasnorm_wordpool_576.txt	LTP391	ltpFR2	0	13	YOLK	1633	n/a	n/a	0	0	0
2825619	WORD	wordpools/wasnorm_wordpool_576.txt	LTP391	ltpFR2	0	13	STUDENT	1395	n/a	n/a	0	0	0
2828102	WORD	wordpools/wasnorm_wordpool_576.txt	LTP391	ltpFR2	0	13	COURSE	390	n/a	n/a	0	0	0
2829718	START	n/a	LTP391	ltpFR2	0	n/a	n/a	n/a	21	n/a	n/a	n/a	n/a
2830644	DISTRACTOR	n/a	LTP391	ltpFR2	0	13	n/a	n/a	n/a	n/a	0	0	0
2830652	PROB	n/a	LTP391	ltpFR2	0	n/a	n/a	n/a	21	9	3	1	5
2835385	PROB	n/a	LTP391	ltpFR2	0	n/a	n/a	n/a	21	9	3	3	3
2836768	PROB	n/a	LTP391	ltpFR2	0	n/a	n/a	n/a	21	11	1	4	6
2838435	PROB	n/a	LTP391	ltpFR2	0	n/a	n/a	n/a	21	11	2	4	5
2840235	PROB	n/a	LTP391	ltpFR2	0	n/a	n/a	n/a	21	17	4	6	7
2841751	PROB	n/a	LTP391	ltpFR2	0	n/a	n/a	n/a	21	14	1	7	6
2843635	PROB	n/a	LTP391	ltpFR2	0	n/a	n/a	n/a	21	8	4	3	1
2845118	PROB	n/a	LTP391	ltpFR2	0	n/a	n/a	n/a	21	13	6	4	3
2846535	PROB	n/a	LTP391	ltpFR2	0	n/a	n/a	n/a	21	19	9	9	1
2848418	PROB	n/a	LTP391	ltpFR2	0	n/a	n/a	n/a	21	13	8	4	1
2850452	PROB	n/a	LTP391	ltpFR2	0	n/a	n/a	n/a	21	10	3	5	2
2852418	STOP	n/a	LTP391	ltpFR2	0	n/a	n/a	n/a	21	n/a	n/a	n/a	n/a
2855635	REC_START	n/a	LTP391	ltpFR2	0	13	n/a	n/a	n/a	n/a	0	0	0
2856175	REC_WORD	wordpools/wasnorm_wordpool_576.txt	LTP391	ltpFR2	0	13	GIRL	637	n/a	n/a	0	0	0
2856806	REC_WORD	wordpools/wasnorm_wordpool_576.txt	LTP391	ltpFR2	0	13	LEADER	807	n/a	n/a	0	0	0
2857270	REC_WORD	wordpools/wasnorm_wordpool_576.txt	LTP391	ltpFR2	0	13	STUDENT	1395	n/a	n/a	0	0	0
2865286	REC_WORD	wordpools/wasnorm_wordpool_576.txt	LTP391	ltpFR2	0	13	CASHIER	254	n/a	n/a	0	0	0
2871234	REC_WORD	wordpools/wasnorm_wordpool_576.txt	LTP391	ltpFR2	0	13	BRANDY	169	n/a	n/a	0	0	0
2871773	REC_WORD	wordpools/wasnorm_wordpool_576.txt	LTP391	ltpFR2	0	13	SCOTCH	1251	n/a	n/a	0	0	0
2881233	REC_WORD	wordpools/wasnorm_wordpool_576.txt	LTP391	ltpFR2	0	13	STOMACH	1384	n/a	n/a	0	0	0
2896628	REC_WORD	wordpools/wasnorm_wordpool_576.txt	LTP391	ltpFR2	0	13	CANDY	230	n/a	n/a	0	0	0
2902319	REC_WORD	wordpools/wasnorm_wordpool_576.txt	LTP391	ltpFR2	0	13	FOREST	593	n/a	n/a	0	0	0
2915779	REC_WORD	wordpools/wasnorm_wordpool_576.txt	LTP391	ltpFR2	0	13	RACKET	1155	n/a	n/a	0	0	0
2946084	DISTRACTOR	n/a	LTP391	ltpFR2	0	14	n/a	n/a	n/a	n/a	0	0	0
2946084	START	n/a	LTP391	ltpFR2	0	n/a	n/a	n/a	22	n/a	n/a	n/a	n/a
2946100	PROB	n/a	LTP391	ltpFR2	0	n/a	n/a	n/a	22	21	7	9	5
2949716	PROB	n/a	LTP391	ltpFR2	0	n/a	n/a	n/a	22	15	5	1	9
2951682	PROB	n/a	LTP391	ltpFR2	0	n/a	n/a	n/a	22	11	1	5	5
2953167	PROB	n/a	LTP391	ltpFR2	0	n/a	n/a	n/a	22	23	8	7	8
2956682	PROB	n/a	LTP391	ltpFR2	0	n/a	n/a	n/a	22	11	9	1	1
2958117	PROB	n/a	LTP391	ltpFR2	0	n/a	n/a	n/a	22	18	2	8	8
2959666	PROB	n/a	LTP391	ltpFR2	0	n/a	n/a	n/a	22	18	6	5	7
2961816	PROB	n/a	LTP391	ltpFR2	0	n/a	n/a	n/a	22	25	9	8	8
2965616	PROB	n/a	LTP391	ltpFR2	0	n/a	n/a	n/a	22	10	5	3	2
2967633	PROB	n/a	LTP391	ltpFR2	0	n/a	n/a	n/a	22	10	7	1	2
2969246	STOP	n/a	LTP391	ltpFR2	0	n/a	n/a	n/a	22	n/a	n/a	n/a	n/a
2971266	WORD	wordpools/wasnorm_wordpool_576.txt	LTP391	ltpFR2	0	14	SUNSET	1408	n/a	n/a	0	0	0
2974050	WORD	wordpools/wasnorm_wordpool_576.txt	LTP391	ltpFR2	0	14	FRUIT	610	n/a	n/a	0	0	0
2976566	WORD	wordpools/wasnorm_wordpool_576.txt	LTP391	ltpFR2	0	14	WRENCH	1625	n/a	n/a	0	0	0
2979016	WORD	wordpools/wasnorm_wordpool_576.txt	LTP391	ltpFR2	0	14	BUTCHER	203	n/a	n/a	0	0	0
2981616	WORD	wordpools/wasnorm_wordpool_576.txt	LTP391	ltpFR2	0	14	SWIMMER	1420	n/a	n/a	0	0	0
2984099	WORD	wordpools/wasnorm_wordpool_576.txt	LTP391	ltpFR2	0	14	HONEY	713	n/a	n/a	0	0	0
2986732	WORD	wordpools/wasnorm_wordpool_576.txt	LTP391	ltpFR2	0	14	KETCHUP	771	n/a	n/a	0	0	0
2989399	WORD	wordpools/wasnorm_wordpool_576.txt	LTP391	ltpFR2	0	14	WAGON	1578	n/a	n/a	0	0	0
2991933	WORD	wordpools/wasnorm_wordpool_576.txt	LTP391	ltpFR2	0	14	STALLION	1369	n/a	n/a	0	0	0
2994748	WORD	wordpools/wasnorm_wordpool_576.txt	LTP391	ltpFR2	0	14	XEROX	1628	n/a	n/a	0	0	0
2997499	WORD	wordpools/wasnorm_wordpool_576.txt	LTP391	ltpFR2	0	14	CAMEL	223	n/a	n/a	0	0	0
2999966	WORD	wordpools/wasnorm_wordpool_576.txt	LTP391	ltpFR2	0	14	ONION	977	n/a	n/a	0	0	0
3002782	WORD	wordpools/wasnorm_wordpool_576.txt	LTP391	ltpFR2	0	14	LIVER	833	n/a	n/a	0	0	0
3005582	WORD	wordpools/wasnorm_wordpool_576.txt	LTP391	ltpFR2	0	14	BROTHER	179	n/a	n/a	0	0	0
3008316	WORD	wordpools/wasnorm_wordpool_576.txt	LTP391	ltpFR2	0	14	GIFT	635	n/a	n/a	0	0	0
3010748	WORD	wordpools/wasnorm_wordpool_576.txt	LTP391	ltpFR2	0	14	SCALLOP	1242	n/a	n/a	0	0	0
3013382	WORD	wordpools/wasnorm_wordpool_576.txt	LTP391	ltpFR2	0	14	HELMET	702	n/a	n/a	0	0	0
3015999	WORD	wordpools/wasnorm_wordpool_576.txt	LTP391	ltpFR2	0	14	SUNRISE	1407	n/a	n/a	0	0	0
3018748	WORD	wordpools/wasnorm_wordpool_576.txt	LTP391	ltpFR2	0	14	THREAD	1460	n/a	n/a	0	0	0
3021466	WORD	wordpools/wasnorm_wordpool_576.txt	LTP391	ltpFR2	0	14	ISLAND	745	n/a	n/a	0	0	0
3024049	WORD	wordpools/wasnorm_wordpool_576.txt	LTP391	ltpFR2	0	14	COIN	343	n/a	n/a	0	0	0
3026731	WORD	wordpools/wasnorm_wordpool_576.txt	LTP391	ltpFR2	0	14	DIME	466	n/a	n/a	0	0	0
3029532	WORD	wordpools/wasnorm_wordpool_576.txt	LTP391	ltpFR2	0	14	BALLOON	75	n/a	n/a	0	0	0
3032282	WORD	wordpools/wasnorm_wordpool_576.txt	LTP391	ltpFR2	0	14	NAPKIN	937	n/a	n/a	0	0	0
3033898	START	n/a	LTP391	ltpFR2	0	n/a	n/a	n/a	23	n/a	n/a	n/a	n/a
3034721	DISTRACTOR	n/a	LTP391	ltpFR2	0	14	n/a	n/a	n/a	n/a	0	0	0
3034731	PROB	n/a	LTP391	ltpFR2	0	n/a	n/a	n/a	23	16	6	8	2
3036632	PROB	n/a	LTP391	ltpFR2	0	n/a	n/a	n/a	23	12	2	5	5
3038199	PROB	n/a	LTP391	ltpFR2	0	n/a	n/a	n/a	23	17	7	5	5
3040165	PROB	n/a	LTP391	ltpFR2	0	n/a	n/a	n/a	23	12	2	6	3
3043548	PROB	n/a	LTP391	ltpFR2	0	n/a	n/a	n/a	23	12	4	3	5
3045881	PROB	n/a	LTP391	ltpFR2	0	n/a	n/a	n/a	23	21	9	7	5
3051764	PROB	n/a	LTP391	ltpFR2	0	n/a	n/a	n/a	23	20	2	9	9
3053998	PROB	n/a	LTP391	ltpFR2	0	n/a	n/a	n/a	23	13	4	5	4
3056417	STOP	n/a	LTP391	ltpFR2	0	n/a	n/a	n/a	23	n/a	n/a	n/a	n/a
3059781	REC_START	n/a	LTP391	ltpFR2	0	14	n/a	n/a	n/a	n/a	0	0	0
3060138	REC_WORD	wordpools/wasnorm_wordpool_576.txt	LTP391	ltpFR2	0	14	SUNRISE	1407	n/a	n/a	0	0	0
3060786	REC_WORD	wordpools/wasnorm_wordpool_576.txt	LTP391	ltpFR2	0	14	SUNSET	1408	n/a	n/a	0	0	0
3061589	REC_WORD	wordpools/wasnorm_wordpool_576.txt	LTP391	ltpFR2	0	14	THREAD	1460	n/a	n/a	0	0	0
3062375	REC_WORD	wordpools/wasnorm_wordpool_576.txt	LTP391	ltpFR2	0	14	BROTHER	179	n/a	n/a	0	0	0
3063505	REC_WORD	wordpools/wasnorm_wordpool_576.txt	LTP391	ltpFR2	0	14	COIN	343	n/a	n/a	0	0	0
3064216	REC_WORD	wordpools/wasnorm_wordpool_576.txt	LTP391	ltpFR2	0	14	DIME	466	n/a	n/a	0	0	0
3065774	REC_WORD	wordpools/wasnorm_wordpool_576.txt	LTP391	ltpFR2	0	14	LIVER	833	n/a	n/a	0	0	0
3066329	REC_WORD	wordpools/wasnorm_wordpool_576.txt	LTP391	ltpFR2	0	14	HONEY	713	n/a	n/a	0	0	0
3067003	REC_WORD	wordpools/wasnorm_wordpool_576.txt	LTP391	ltpFR2	0	14	ONION	977	n/a	n/a	0	0	0
3067488	REC_WORD	wordpools/wasnorm_wordpool_576.txt	LTP391	ltpFR2	0	14	SCALLOP	1242	n/a	n/a	0	0	0
3095868	REC_WORD	wordpools/wasnorm_wordpool_576.txt	LTP391	ltpFR2	0	14	ISLAND	745	n/a	n/a	0	0	0
3104545	REC_WORD	wordpools/wasnorm_wordpool_576.txt	LTP391	ltpFR2	0	14	GIFT	635	n/a	n/a	0	0	0
3106007	REC_WORD	wordpools/wasnorm_wordpool_576.txt	LTP391	ltpFR2	0	14	HELMET	702	n/a	n/a	0	0	0
3150230	WORD	wordpools/wasnorm_wordpool_576.txt	LTP391	ltpFR2	0	15	CONCERT	360	n/a	n/a	0	0	0
3152947	WORD	wordpools/wasnorm_wordpool_576.txt	LTP391	ltpFR2	0	15	SKIRT	1319	n/a	n/a	0	0	0
3155662	WORD	wordpools/wasnorm_wordpool_576.txt	LTP391	ltpFR2	0	15	ARM	38	n/a	n/a	0	0	0
3158147	WORD	wordpools/wasnorm_wordpool_576.txt	LTP391	ltpFR2	0	15	TEACHER	1440	n/a	n/a	0	0	0
3160679	WORD	wordpools/wasnorm_wordpool_576.txt	LTP391	ltpFR2	0	15	FRECKLE	602	n/a	n/a	0	0	0
3163347	WORD	wordpools/wasnorm_wordpool_576.txt	LTP391	ltpFR2	0	15	FUNGUS	614	n/a	n/a	0	0	0
3165829	WORD	wordpools/wasnorm_wordpool_576.txt	LTP391	ltpFR2	0	15	DIVER	476	n/a	n/a	0	0	0
3168596	WORD	wordpools/wasnorm_wordpool_576.txt	LTP391	ltpFR2	0	15	VIRUS	1572	n/a	n/a	0	0	0
3171180	WORD	wordpools/wasnorm_wordpool_576.txt	LTP391	ltpFR2	0	15	BANK	83	n/a	n/a	0	0	0
3173912	WORD	wordpools/wasnorm_wordpool_576.txt	LTP391	ltpFR2	0	15	FIDDLE	561	n/a	n/a	0	0	0
3176530	WORD	wordpools/wasnorm_wordpool_576.txt	LTP391	ltpFR2	0	15	HARP	689	n/a	n/a	0	0	0
3179013	WORD	wordpools/wasnorm_wordpool_576.txt	LTP391	ltpFR2	0	15	RECEIPT	1173	n/a	n/a	0	0	0
3181679	WORD	wordpools/wasnorm_wordpool_576.txt	LTP391	ltpFR2	0	15	FOOT	590	n/a	n/a	0	0	0
3184363	WORD	wordpools/wasnorm_wordpool_576.txt	LTP391	ltpFR2	0	15	SWITCH	1422	n/a	n/a	0	0	0
3187146	WORD	wordpools/wasnorm_wordpool_576.txt	LTP391	ltpFR2	0	15	ZEBRA	1635	n/a	n/a	0	0	0
3189946	WORD	wordpools/wasnorm_wordpool_576.txt	LTP391	ltpFR2	0	15	COWBOY	395	n/a	n/a	0	0	0
3192596	WORD	wordpools/wasnorm_wordpool_576.txt	LTP391	ltpFR2	0	15	BACKBONE	66	n/a	n/a	0	0	0
3195113	WORD	wordpools/wasnorm_wordpool_576.txt	LTP391	ltpFR2	0	15	SLUG	1329	n/a	n/a	0	0	0
3197845	WORD	wordpools/wasnorm_wordpool_576.txt	LTP391	ltpFR2	0	15	CLAM	315	n/a	n/a	0	0	0
3200563	WORD	wordpools/wasnorm_wordpool_576.txt	LTP391	ltpFR2	0	15	MARS	873	n/a	n/a	0	0	0
3203029	WORD	wordpools/wasnorm_wordpool_576.txt	LTP391	ltpFR2	0	15	DRESS	495	n/a	n/a	0	0	0
3205646	WORD	wordpools/wasnorm_wordpool_576.txt	LTP391	ltpFR2	0	15	DRILL	497	n/a	n/a	0	0	0
3208279	WORD	wordpools/wasnorm_wordpool_576.txt	LTP391	ltpFR2	0	15	AIRPLANE	12	n/a	n/a	0	0	0
3210946	WORD	wordpools/wasnorm_wordpool_576.txt	LTP391	ltpFR2	0	15	SHORTS	1293	n/a	n/a	0	0	0
3212563	START	n/a	LTP391	ltpFR2	0	n/a	n/a	n/a	24	n/a	n/a	n/a	n/a
3213418	DISTRACTOR	n/a	LTP391	ltpFR2	0	15	n/a	n/a	n/a	n/a	0	0	0
3213429	PROB	n/a	LTP391	ltpFR2	0	n/a	n/a	n/a	24	15	6	6	3
3216396	PROB	n/a	LTP391	ltpFR2	0	n/a	n/a	n/a	24	17	7	6	4
3218546	PROB	n/a	LTP391	ltpFR2	0	n/a	n/a	n/a	24	13	4	1	8
3220612	PROB	n/a	LTP391	ltpFR2	0	n/a	n/a	n/a	24	9	2	2	5
3222512	PROB	n/a	LTP391	ltpFR2	0	n/a	n/a	n/a	24	8	3	4	1
3224246	PROB	n/a	LTP391	ltpFR2	0	n/a	n/a	n/a	24	16	5	7	4
3227778	PROB	n/a	LTP391	ltpFR2	0	n/a	n/a	n/a	24	11	4	1	6
3229345	PROB	n/a	LTP391	ltpFR2	0	n/a	n/a	n/a	24	15	1	9	5
3230861	PROB	n/a	LTP391	ltpFR2	0	n/a	n/a	n/a	24	13	3	8	1
3232694	PROB	n/a	LTP391	ltpFR2	0	n/a	n/a	n/a	24	19	8	8	3
3236562	STOP	n/a	LTP391	ltpFR2	0	n/a	n/a	n/a	24	n/a	n/a	n/a	n/a
3238346	REC_START	n/a	LTP391	ltpFR2	0	15	n/a	n/a	n/a	n/a	0	0	0
3238874	REC_WORD	wordpools/wasnorm_wordpool_576.txt	LTP391	ltpFR2	0	15	CONCERT	360	n/a	n/a	0	0	0
3239501	REC_WORD	wordpools/wasnorm_wordpool_576.txt	LTP391	ltpFR2	0	15	SKIRT	1319	n/a	n/a	0	0	0
3240296	REC_WORD	wordpools/wasnorm_wordpool_576.txt	LTP391	ltpFR2	0	15	DRESS	495	n/a	n/a	0	0	0
3241569	REC_WORD	wordpools/wasnorm_wordpool_576.txt	LTP391	ltpFR2	0	15	SHORTS	1293	n/a	n/a	0	0	0
3243761	REC_WORD	wordpools/wasnorm_wordpool_576.txt	LTP391	ltpFR2	0	15	FUNGUS	614	n/a	n/a	0	0	0
3244366	REC_WORD	wordpools/wasnorm_wordpool_576.txt	LTP391	ltpFR2	0	15	FOOT	590	n/a	n/a	0	0	0
3246138	REC_WORD	wordpools/wasnorm_wordpool_576.txt	LTP391	ltpFR2	0	15	DIVER	476	n/a	n/a	0	0	0
3248303	REC_WORD	wordpools/wasnorm_wordpool_576.txt	LTP391	ltpFR2	0	15	CLAM	315	n/a	n/a	0	0	0
3248988	REC_WORD	wordpools/wasnorm_wordpool_576.txt	LTP391	ltpFR2	0	15	SLUG	1329	n/a	n/a	0	0	0
3257264	REC_WORD	wordpools/wasnorm_wordpool_576.txt	LTP391	ltpFR2	0	15	SWITCH	1422	n/a	n/a	0	0	0
3258081	REC_WORD	wordpools/wasnorm_wordpool_576.txt	LTP391	ltpFR2	0	15	BANKER	84	n/a	n/a	0	0	0
3341726	WORD	wordpools/wasnorm_wordpool_576.txt	LTP391	ltpFR2	0	16	PUPPY	1144	n/a	n/a	0	0	0
3344160	WORD	wordpools/wasnorm_wordpool_576.txt	LTP391	ltpFR2	0	16	TYPIST	1532	n/a	n/a	0	0	0
3346709	WORD	wordpools/wasnorm_wordpool_576.txt	LTP391	ltpFR2	0	16	VIKING	1565	n/a	n/a	0	0	0
3349327	WORD	wordpools/wasnorm_wordpool_576.txt	LTP391	ltpFR2	0	16	YACHT	1629	n/a	n/a	0	0	0
3351927	WORD	wordpools/wasnorm_wordpool_576.txt	LTP391	ltpFR2	0	16	INFANT	737	n/a	n/a	0	0	0
3354742	WORD	wordpools/wasnorm_wordpool_576.txt	LTP391	ltpFR2	0	16	MASK	876	n/a	n/a	0	0	0
3357460	WORD	wordpools/wasnorm_wordpool_576.txt	LTP391	ltpFR2	0	16	LIPSTICK	829	n/a	n/a	0	0	0
3360227	WORD	wordpools/wasnorm_wordpool_576.txt	LTP391	ltpFR2	0	16	JELLO	754	n/a	n/a	0	0	0
3362826	WORD	wordpools/wasnorm_wordpool_576.txt	LTP391	ltpFR2	0	16	PERCH	1048	n/a	n/a	0	0	0
3365410	WORD	wordpools/wasnorm_wordpool_576.txt	LTP391	ltpFR2	0	16	FREEZER	604	n/a	n/a	0	0	0
3368177	WORD	wordpools/wasnorm_wordpool_576.txt	LTP391	ltpFR2	0	16	SNACK	1331	n/a	n/a	0	0	0
3370792	WORD	wordpools/wasnorm_wordpool_576.txt	LTP391	ltpFR2	0	16	OFFICE	972	n/a	n/a	0	0	0
3373393	WORD	wordpools/wasnorm_wordpool_576.txt	LTP391	ltpFR2	0	16	CANYON	235	n/a	n/a	0	0	0
3375892	WORD	wordpools/wasnorm_wordpool_576.txt	LTP391	ltpFR2	0	16	BOX	159	n/a	n/a	0	0	0
3378476	WORD	wordpools/wasnorm_wordpool_576.txt	LTP391	ltpFR2	0	16	NOMAD	955	n/a	n/a	0	0	0
3380960	WORD	wordpools/wasnorm_wordpool_576.txt	LTP391	ltpFR2	0	16	TRIBE	1505	n/a	n/a	0	0	0
3383709	WORD	wordpools/wasnorm_wordpool_576.txt	LTP391	ltpFR2	0	16	HEART	697	n/a	n/a	0	0	0
3386510	WORD	wordpools/wasnorm_wordpool_576.txt	LTP391	ltpFR2	0	16	DUSTPAN	509	n/a	n/a	0	0	0
3389043	WORD	wordpools/wasnorm_wordpool_576.txt	LTP391	ltpFR2	0	16	GROUND	666	n/a	n/a	0	0	0
3391576	WORD	wordpools/wasnorm_wordpool_576.txt	LTP391	ltpFR2	0	16	FRANCE	601	n/a	n/a	0	0	0
3394243	WORD	wordpools/wasnorm_wordpool_576.txt	LTP391	ltpFR2	0	16	MONSTER	912	n/a	n/a	0	0	0
3396875	WORD	wordpools/wasnorm_wordpool_576.txt	LTP391	ltpFR2	0	16	PRIMATE	1123	n/a	n/a	0	0	0
3399659	WORD	wordpools/wasnorm_wordpool_576.txt	LTP391	ltpFR2	0	16	SUMMIT	1405	n/a	n/a	0	0	0
3402376	WORD	wordpools/wasnorm_wordpool_576.txt	LTP391	ltpFR2	0	16	PAIL	1002	n/a	n/a	0	0	0
3403993	START	n/a	LTP391	ltpFR2	0	n/a	n/a	n/a	25	n/a	n/a	n/a	n/a
3404991	DISTRACTOR	n/a	LTP391	ltpFR2	0	16	n/a	n/a	n/a	n/a	0	0	0
3405009	PROB	n/a	LTP391	ltpFR2	0	n/a	n/a	n/a	25	19	7	6	6
3409626	PROB	n/a	LTP391	ltpFR2	0	n/a	n/a	n/a	25	16	4	4	8
3411543	PROB	n/a	LTP391	ltpFR2	0	n/a	n/a	n/a	25	13	7	4	2
3414176	PROB	n/a	LTP391	ltpFR2	0	n/a	n/a	n/a	25	15	7	6	2
3416858	PROB	n/a	LTP391	ltpFR2	0	n/a	n/a	n/a	25	19	7	6	6
3419242	PROB	n/a	LTP391	ltpFR2	0	n/a	n/a	n/a	25	15	4	8	3
3422926	PROB	n/a	LTP391	ltpFR2	0	n/a	n/a	n/a	25	22	6	8	8
3426209	PROB	n/a	LTP391	ltpFR2	0	n/a	n/a	n/a	25	12	2	5	5
3427699	STOP	n/a	LTP391	ltpFR2	0	n/a	n/a	n/a	25	n/a	n/a	n/a	n/a
3429858	REC_START	n/a	LTP391	ltpFR2	0	16	n/a	n/a	n/a	n/a	0	0	0
3431102	REC_WORD	wordpools/wasnorm_wordpool_576.txt	LTP391	ltpFR2	0	16	FRANCE	601	n/a	n/a	0	0	0
3431942	REC_WORD	wordpools/wasnorm_wordpool_576.txt	LTP391	ltpFR2	0	16	PRIMATE	1123	n/a	n/a	0	0	0
3433576	REC_WORD	wordpools/wasnorm_wordpool_576.txt	LTP391	ltpFR2	0	16	MONSTER	912	n/a	n/a	0	0	0
3435766	REC_WORD	wordpools/wasnorm_wordpool_576.txt	LTP391	ltpFR2	0	16	PAIL	1002	n/a	n/a	0	0	0
3437166	REC_WORD	wordpools/wasnorm_wordpool_576.txt	LTP391	ltpFR2	0	16	CANYON	235	n/a	n/a	0	0	0
3438796	REC_WORD	wordpools/wasnorm_wordpool_576.txt	LTP391	ltpFR2	0	16	SUMMIT	1405	n/a	n/a	0	0	0
3439836	REC_WORD	wordpools/wasnorm_wordpool_576.txt	LTP391	ltpFR2	0	16	VIKING	1565	n/a	n/a	0	0	0
3440671	REC_WORD	wordpools/wasnorm_wordpool_576.txt	LTP391	ltpFR2	0	16	NOMAD	955	n/a	n/a	0	0	0
3441431	REC_WORD	wordpools/wasnorm_wordpool_576.txt	LTP391	ltpFR2	0	16	TRIBE	1505	n/a	n/a	0	0	0
3442247	REC_WORD	wordpools/wasnorm_wordpool_576.txt	LTP391	ltpFR2	0	16	YACHT	1629	n/a	n/a	0	0	0
3443557	REC_WORD	wordpools/wasnorm_wordpool_576.txt	LTP391	ltpFR2	0	16	PUPPY	1144	n/a	n/a	0	0	0
3444212	REC_WORD	wordpools/wasnorm_wordpool_576.txt	LTP391	ltpFR2	0	16	INFANT	737	n/a	n/a	0	0	0
3455837	REC_WORD	wordpools/wasnorm_wordpool_576.txt	LTP391	ltpFR2	0	16	LIPSTICK	829	n/a	n/a	0	0	0
3456433	REC_WORD	wordpools/wasnorm_wordpool_576.txt	LTP391	ltpFR2	0	16	FREEZER	604	n/a	n/a	0	0	0
3457870	REC_WORD	wordpools/wasnorm_wordpool_576.txt	LTP391	ltpFR2	0	16	SNACK	1331	n/a	n/a	0	0	0
3458716	REC_WORD	wordpools/wasnorm_wordpool_576.txt	LTP391	ltpFR2	0	16	JELLO	754	n/a	n/a	0	0	0
3506391	REST_REWET	n/a	LTP391	ltpFR2	0	16	n/a	n/a	n/a	n/a	0	0	0
3643888	WORD	wordpools/wasnorm_wordpool_576.txt	LTP391	ltpFR2	0	17	TABLET	1427	n/a	n/a	0	0	0
3646639	WORD	wordpools/wasnorm_wordpool_576.txt	LTP391	ltpFR2	0	17	MUSTARD	935	n/a	n/a	0	0	0
3649139	WORD	wordpools/wasnorm_wordpool_576.txt	LTP391	ltpFR2	0	17	COD	340	n/a	n/a	0	0	0
3651787	WORD	wordpools/wasnorm_wordpool_576.txt	LTP391	ltpFR2	0	17	OINTMENT	974	n/a	n/a	0	0	0
3654555	WORD	wordpools/wasnorm_wordpool_576.txt	LTP391	ltpFR2	0	17	TAXI	1438	n/a	n/a	0	0	0
3657372	WORD	wordpools/wasnorm_wordpool_576.txt	LTP391	ltpFR2	0	17	RUST	1219	n/a	n/a	0	0	0
3660022	WORD	wordpools/wasnorm_wordpool_576.txt	LTP391	ltpFR2	0	17	AIRPORT	13	n/a	n/a	0	0	0
3662655	WORD	wordpools/wasnorm_wordpool_576.txt	LTP391	ltpFR2	0	17	NURSE	963	n/a	n/a	0	0	0
3665288	WORD	wordpools/wasnorm_wordpool_576.txt	LTP391	ltpFR2	0	17	CIGAR	308	n/a	n/a	0	0	0
3667821	WORD	wordpools/wasnorm_wordpool_576.txt	LTP391	ltpFR2	0	17	RELISH	1183	n/a	n/a	0	0	0
3670572	WORD	wordpools/wasnorm_wordpool_576.txt	LTP391	ltpFR2	0	17	PARSLEY	1016	n/a	n/a	0	0	0
3673055	WORD	wordpools/wasnorm_wordpool_576.txt	LTP391	ltpFR2	0	17	QUEEN	1149	n/a	n/a	0	0	0
3675854	WORD	wordpools/wasnorm_wordpool_576.txt	LTP391	ltpFR2	0	17	CEILING	265	n/a	n/a	0	0	0
3678638	WORD	wordpools/wasnorm_wordpool_576.txt	LTP391	ltpFR2	0	17	BISON	131	n/a	n/a	0	0	0
3681321	WORD	wordpools/wasnorm_wordpool_576.txt	LTP391	ltpFR2	0	17	SHOULDER	1294	n/a	n/a	0	0	0
3683870	WORD	wordpools/wasnorm_wordpool_576.txt	LTP391	ltpFR2	0	17	PEANUT	1032	n/a	n/a	0	0	0
3686638	WORD	wordpools/wasnorm_wordpool_576.txt	LTP391	ltpFR2	0	17	HIGHWAY	707	n/a	n/a	0	0	0
3689304	WORD	wordpools/wasnorm_wordpool_576.txt	LTP391	ltpFR2	0	17	SIDEWALK	1303	n/a	n/a	0	0	0
3691770	WORD	wordpools/wasnorm_wordpool_576.txt	LTP391	ltpFR2	0	17	TRANSPLANT	1496	n/a	n/a	0	0	0
3694554	WORD	wordpools/wasnorm_wordpool_576.txt	LTP391	ltpFR2	0	17	SPOUSE	1358	n/a	n/a	0	0	0
3697354	WORD	wordpools/wasnorm_wordpool_576.txt	LTP391	ltpFR2	0	17	PEPPER	1047	n/a	n/a	0	0	0
3699971	WORD	wordpools/wasnorm_wordpool_576.txt	LTP391	ltpFR2	0	17	PILOT	1070	n/a	n/a	0	0	0
3702621	WORD	wordpools/wasnorm_wordpool_576.txt	LTP391	ltpFR2	0	17	LUGGAGE	847	n/a	n/a	0	0	0
3705338	WORD	wordpools/wasnorm_wordpool_576.txt	LTP391	ltpFR2	0	17	STONE	1385	n/a	n/a	0	0	0
3706954	START	n/a	LTP391	ltpFR2	0	n/a	n/a	n/a	26	n/a	n/a	n/a	n/a
3708058	DISTRACTOR	n/a	LTP391	ltpFR2	0	17	n/a	n/a	n/a	n/a	0	0	0
3708071	PROB	n/a	LTP391	ltpFR2	0	n/a	n/a	n/a	26	18	7	9	2
3711187	PROB	n/a	LTP391	ltpFR2	0	n/a	n/a	n/a	26	9	3	4	2
3712921	PROB	n/a	LTP391	ltpFR2	0	n/a	n/a	n/a	26	18	4	6	8
3714571	PROB	n/a	LTP391	ltpFR2	0	n/a	n/a	n/a	26	23	9	5	9
3718753	PROB	n/a	LTP391	ltpFR2	0	n/a	n/a	n/a	26	16	9	2	5
3720621	PROB	n/a	LTP391	ltpFR2	0	n/a	n/a	n/a	26	16	5	3	8
3723354	PROB	n/a	LTP391	ltpFR2	0	n/a	n/a	n/a	26	16	7	8	1
3725736	PROB	n/a	LTP391	ltpFR2	0	n/a	n/a	n/a	26	18	9	3	6
3727521	PROB	n/a	LTP391	ltpFR2	0	n/a	n/a	n/a	26	16	6	3	7
3730954	STOP	n/a	LTP391	ltpFR2	0	n/a	n/a	n/a	26	n/a	n/a	n/a	n/a
3732870	REC_START	n/a	LTP391	ltpFR2	0	17	n/a	n/a	n/a	n/a	0	0	0
3733347	REC_WORD	wordpools/wasnorm_wordpool_576.txt	LTP391	ltpFR2	0	17	TABLET	1427	n/a	n/a	0	0	0
3733936	REC_WORD	wordpools/wasnorm_wordpool_576.txt	LTP391	ltpFR2	0	17	STONE	1385	n/a	n/a	0	0	0
3734851	REC_WORD	wordpools/wasnorm_wordpool_576.txt	LTP391	ltpFR2	0	17	OINTMENT	974	n/a	n/a	0	0	0
3735465	REC_WORD	wordpools/wasnorm_wordpool_576.txt	LTP391	ltpFR2	0	17	RUST	1219	n/a	n/a	0	0	0
3736111	REC_WORD	wordpools/wasnorm_wordpool_576.txt	LTP391	ltpFR2	0	17	QUEEN	1149	n/a	n/a	0	0	0
3737263	REC_WORD	wordpools/wasnorm_wordpool_576.txt	LTP391	ltpFR2	0	17	AIRPORT	13	n/a	n/a	0	0	0
3738068	REC_WORD	wordpools/wasnorm_wordpool_576.txt	LTP391	ltpFR2	0	17	PILOT	1070	n/a	n/a	0	0	0
3738733	REC_WORD	wordpools/wasnorm_wordpool_576.txt	LTP391	ltpFR2	0	17	LUGGAGE	847	n/a	n/a	0	0	0
3740763	REC_WORD	wordpools/wasnorm_wordpool_576.txt	LTP391	ltpFR2	0	17	PARSLEY	1016	n/a	n/a	0	0	0
3742014	REC_WORD	wordpools/wasnorm_wordpool_576.txt	LTP391	ltpFR2	0	17	RELISH	1183	n/a	n/a	0	0	0
3742619	REC_WORD	wordpools/wasnorm_wordpool_576.txt	LTP391	ltpFR2	0	17	MUSTARD	935	n/a	n/a	0	0	0
3743419	REC_WORD	wordpools/wasnorm_wordpool_576.txt	LTP391	ltpFR2	0	17	PEPPER	1047	n/a	n/a	0	0	0
3758473	REC_WORD	wordpools/wasnorm_wordpool_576.txt	LTP391	ltpFR2	0	17	SHOULDER	1294	n/a	n/a	0	0	0
3781813	REC_WORD	wordpools/wasnorm_wordpool_576.txt	LTP391	ltpFR2	0	17	TAXI	1438	n/a	n/a	0	0	0
3782426	REC_WORD	wordpools/wasnorm_wordpool_576.txt	LTP391	ltpFR2	0	17	HIGHWAY	707	n/a	n/a	0	0	0
3783032	REC_WORD	wordpools/wasnorm_wordpool_576.txt	LTP391	ltpFR2	0	17	SIDEWALK	1303	n/a	n/a	0	0	0
3783662	REC_WORD	wordpools/wasnorm_wordpool_576.txt	LTP391	ltpFR2	0	17	CIGAR	308	n/a	n/a	0	0	0
3823319	WORD	wordpools/wasnorm_wordpool_576.txt	LTP391	ltpFR2	0	18	HEDGE	699	n/a	n/a	0	0	0
3825801	WORD	wordpools/wasnorm_wordpool_576.txt	LTP391	ltpFR2	0	18	PASTRY	1022	n/a	n/a	0	0	0
3828486	WORD	wordpools/wasnorm_wordpool_576.txt	LTP391	ltpFR2	0	18	ICING	732	n/a	n/a	0	0	0
3831302	WORD	wordpools/wasnorm_wordpool_576.txt	LTP391	ltpFR2	0	18	FRAME	600	n/a	n/a	0	0	0
3833935	WORD	wordpools/wasnorm_wordpool_576.txt	LTP391	ltpFR2	0	18	DRAWING	494	n/a	n/a	0	0	0
3836502	WORD	wordpools/wasnorm_wordpool_576.txt	LTP391	ltpFR2	0	18	LILY	821	n/a	n/a	0	0	0
3839052	WORD	wordpools/wasnorm_wordpool_576.txt	LTP391	ltpFR2	0	18	BATHTUB	100	n/a	n/a	0	0	0
3841834	WORD	wordpools/wasnorm_wordpool_576.txt	LTP391	ltpFR2	0	18	MILDEW	893	n/a	n/a	0	0	0
3844435	WORD	wordpools/wasnorm_wordpool_576.txt	LTP391	ltpFR2	0	18	SIBLING	1301	n/a	n/a	0	0	0
3847235	WORD	wordpools/wasnorm_wordpool_576.txt	LTP391	ltpFR2	0	18	HAMPER	682	n/a	n/a	0	0	0
3849751	WORD	wordpools/wasnorm_wordpool_576.txt	LTP391	ltpFR2	0	18	HORSE	719	n/a	n/a	0	0	0
3852219	WORD	wordpools/wasnorm_wordpool_576.txt	LTP391	ltpFR2	0	18	DOUGHNUT	490	n/a	n/a	0	0	0
3854667	WORD	wordpools/wasnorm_wordpool_576.txt	LTP391	ltpFR2	0	18	GYMNAST	675	n/a	n/a	0	0	0
3857119	WORD	wordpools/wasnorm_wordpool_576.txt	LTP391	ltpFR2	0	18	COLLEGE	346	n/a	n/a	0	0	0
3859884	WORD	wordpools/wasnorm_wordpool_576.txt	LTP391	ltpFR2	0	18	SHRUB	1299	n/a	n/a	0	0	0
3862435	WORD	wordpools/wasnorm_wordpool_576.txt	LTP391	ltpFR2	0	18	NOVEL	960	n/a	n/a	0	0	0
3865202	WORD	wordpools/wasnorm_wordpool_576.txt	LTP391	ltpFR2	0	18	LEG	809	n/a	n/a	0	0	0
3867917	WORD	wordpools/wasnorm_wordpool_576.txt	LTP391	ltpFR2	0	18	EGYPT	519	n/a	n/a	0	0	0
3870402	WORD	wordpools/wasnorm_wordpool_576.txt	LTP391	ltpFR2	0	18	REPORT	1184	n/a	n/a	0	0	0
3873035	WORD	wordpools/wasnorm_wordpool_576.txt	LTP391	ltpFR2	0	18	SHARK	1275	n/a	n/a	0	0	0
3875635	WORD	wordpools/wasnorm_wordpool_576.txt	LTP391	ltpFR2	0	18	BROOK	177	n/a	n/a	0	0	0
3878302	WORD	wordpools/wasnorm_wordpool_576.txt	LTP391	ltpFR2	0	18	PASSAGE	1019	n/a	n/a	0	0	0
3880917	WORD	wordpools/wasnorm_wordpool_576.txt	LTP391	ltpFR2	0	18	CLAMP	316	n/a	n/a	0	0	0
3883385	WORD	wordpools/wasnorm_wordpool_576.txt	LTP391	ltpFR2	0	18	PADDLE	1000	n/a	n/a	0	0	0
3885002	START	n/a	LTP391	ltpFR2	0	n/a	n/a	n/a	27	n/a	n/a	n/a	n/a
3885977	DISTRACTOR	n/a	LTP391	ltpFR2	0	18	n/a	n/a	n/a	n/a	0	0	0
3885985	PROB	n/a	LTP391	ltpFR2	0	n/a	n/a	n/a	27	13	6	2	5
3888235	PROB	n/a	LTP391	ltpFR2	0	n/a	n/a	n/a	27	26	9	8	9
3890784	PROB	n/a	LTP391	ltpFR2	0	n/a	n/a	n/a	27	12	6	5	1
3892717	PROB	n/a	LTP391	ltpFR2	0	n/a	n/a	n/a	27	15	9	3	3
3895900	PROB	n/a	LTP391	ltpFR2	0	n/a	n/a	n/a	27	16	7	5	4
3899418	PROB	n/a	LTP391	ltpFR2	0	n/a	n/a	n/a	27	20	5	7	8
3903717	PROB	n/a	LTP391	ltpFR2	0	n/a	n/a	n/a	27	13	7	5	1
3905534	PROB	n/a	LTP391	ltpFR2	0	n/a	n/a	n/a	27	12	7	4	1
3907626	STOP	n/a	LTP391	ltpFR2	0	n/a	n/a	n/a	27	n/a	n/a	n/a	n/a
3910850	REC_START	n/a	LTP391	ltpFR2	0	18	n/a	n/a	n/a	n/a	0	0	0
3911328	REC_WORD	wordpools/wasnorm_wordpool_576.txt	LTP391	ltpFR2	0	18	MILDEW	893	n/a	n/a	0	0	0
3912009	REC_WORD	wordpools/wasnorm_wordpool_576.txt	LTP391	ltpFR2	0	18	BATHTUB	100	n/a	n/a	0	0	0
3913061	REC_WORD	wordpools/wasnorm_wordpool_576.txt	LTP391	ltpFR2	0	18	SIBLING	1301	n/a	n/a	0	0	0
3913691	REC_WORD	wordpools/wasnorm_wordpool_576.txt	LTP391	ltpFR2	0	18	HAMPER	682	n/a	n/a	0	0	0
3915601	REC_WORD	wordpools/wasnorm_wordpool_576.txt	LTP391	ltpFR2	0	18	COLLEGE	346	n/a	n/a	0	0	0
3916290	REC_WORD	wordpools/wasnorm_wordpool_576.txt	LTP391	ltpFR2	0	18	PASSAGE	1019	n/a	n/a	0	0	0
3917019	REC_WORD	wordpools/wasnorm_wordpool_576.txt	LTP391	ltpFR2	0	18	SHARK	1275	n/a	n/a	0	0	0
3918502	REC_WORD	wordpools/wasnorm_wordpool_576.txt	LTP391	ltpFR2	0	18	BROOK	177	n/a	n/a	0	0	0
3919401	REC_WORD	wordpools/wasnorm_wordpool_576.txt	LTP391	ltpFR2	0	18	PADDLE	1000	n/a	n/a	0	0	0
3927761	REC_WORD	wordpools/wasnorm_wordpool_576.txt	LTP391	ltpFR2	0	18	HEDGE	699	n/a	n/a	0	0	0
3928511	REC_WORD	wordpools/wasnorm_wordpool_576.txt	LTP391	ltpFR2	0	18	LILY	821	n/a	n/a	0	0	0
3929557	REC_WORD	wordpools/wasnorm_wordpool_576.txt	LTP391	ltpFR2	0	18	CLAMP	316	n/a	n/a	0	0	0
3932665	REC_WORD	wordpools/wasnorm_wordpool_576.txt	LTP391	ltpFR2	0	18	SHRUB	1299	n/a	n/a	0	0	0
3934049	REC_WORD	wordpools/wasnorm_wordpool_576.txt	LTP391	ltpFR2	0	18	DRAWING	494	n/a	n/a	0	0	0
3935117	REC_WORD	wordpools/wasnorm_wordpool_576.txt	LTP391	ltpFR2	0	18	FRAME	600	n/a	n/a	0	0	0
3962345	REC_WORD	wordpools/wasnorm_wordpool_576.txt	LTP391	ltpFR2	0	18	GYMNAST	675	n/a	n/a	0	0	0
4001266	DISTRACTOR	n/a	LTP391	ltpFR2	0	19	n/a	n/a	n/a	n/a	0	0	0
4001266	START	n/a	LTP391	ltpFR2	0	n/a	n/a	n/a	28	n/a	n/a	n/a	n/a
4001283	PROB	n/a	LTP391	ltpFR2	0	n/a	n/a	n/a	28	5	3	1	1
4003233	PROB	n/a	LTP391	ltpFR2	0	n/a	n/a	n/a	28	21	9	6	7
4006099	PROB	n/a	LTP391	ltpFR2	0	n/a	n/a	n/a	28	10	6	3	1
4007933	PROB	n/a	LTP391	ltpFR2	0	n/a	n/a	n/a	28	10	2	2	6
4009399	PROB	n/a	LTP391	ltpFR2	0	n/a	n/a	n/a	28	15	6	8	1
4011366	PROB	n/a	LTP391	ltpFR2	0	n/a	n/a	n/a	28	11	4	6	1
4012898	PROB	n/a	LTP391	ltpFR2	0	n/a	n/a	n/a	28	20	7	5	8
4017299	PROB	n/a	LTP391	ltpFR2	0	n/a	n/a	n/a	28	11	5	2	4
4019049	PROB	n/a	LTP391	ltpFR2	0	n/a	n/a	n/a	28	23	8	9	5
4021449	PROB	n/a	LTP391	ltpFR2	0	n/a	n/a	n/a	28	11	6	2	3
4025266	STOP	n/a	LTP391	ltpFR2	0	n/a	n/a	n/a	28	n/a	n/a	n/a	n/a
4026466	WORD	wordpools/wasnorm_wordpool_576.txt	LTP391	ltpFR2	0	19	QUAIL	1147	n/a	n/a	0	0	0
4029016	WORD	wordpools/wasnorm_wordpool_576.txt	LTP391	ltpFR2	0	19	PORK	1108	n/a	n/a	0	0	0
4031516	WORD	wordpools/wasnorm_wordpool_576.txt	LTP391	ltpFR2	0	19	LADDER	793	n/a	n/a	0	0	0
4034066	WORD	wordpools/wasnorm_wordpool_576.txt	LTP391	ltpFR2	0	19	LUMBER	848	n/a	n/a	0	0	0
4036566	WORD	wordpools/wasnorm_wordpool_576.txt	LTP391	ltpFR2	0	19	CROWN	415	n/a	n/a	0	0	0
4039099	WORD	wordpools/wasnorm_wordpool_576.txt	LTP391	ltpFR2	0	19	ROBBER	1197	n/a	n/a	0	0	0
4041764	WORD	wordpools/wasnorm_wordpool_576.txt	LTP391	ltpFR2	0	19	CUSTARD	429	n/a	n/a	0	0	0
4044415	WORD	wordpools/wasnorm_wordpool_576.txt	LTP391	ltpFR2	0	19	PROTON	1132	n/a	n/a	0	0	0
4047115	WORD	wordpools/wasnorm_wordpool_576.txt	LTP391	ltpFR2	0	19	STREAM	1392	n/a	n/a	0	0	0
4049831	WORD	wordpools/wasnorm_wordpool_576.txt	LTP391	ltpFR2	0	19	GRAPE	654	n/a	n/a	0	0	0
4052432	WORD	wordpools/wasnorm_wordpool_576.txt	LTP391	ltpFR2	0	19	BRAKE	166	n/a	n/a	0	0	0
4055149	WORD	wordpools/wasnorm_wordpool_576.txt	LTP391	ltpFR2	0	19	DOLPHIN	483	n/a	n/a	0	0	0
4057698	WORD	wordpools/wasnorm_wordpool_576.txt	LTP391	ltpFR2	0	19	POLICE	1098	n/a	n/a	0	0	0
4060182	WORD	wordpools/wasnorm_wordpool_576.txt	LTP391	ltpFR2	0	19	LAKE	796	n/a	n/a	0	0	0
4062615	WORD	wordpools/wasnorm_wordpool_576.txt	LTP391	ltpFR2	0	19	WORKER	1621	n/a	n/a	0	0	0
4065415	WORD	wordpools/wasnorm_wordpool_576.txt	LTP391	ltpFR2	0	19	SWORD	1423	n/a	n/a	0	0	0
4068132	WORD	wordpools/wasnorm_wordpool_576.txt	LTP391	ltpFR2	0	19	HATCHET	691	n/a	n/a	0	0	0
4070747	WORD	wordpools/wasnorm_wordpool_576.txt	LTP391	ltpFR2	0	19	HORNET	718	n/a	n/a	0	0	0
4073332	WORD	wordpools/wasnorm_wordpool_576.txt	LTP391	ltpFR2	0	19	PIMPLE	1071	n/a	n/a	0	0	0
4076148	WORD	wordpools/wasnorm_wordpool_576.txt	LTP391	ltpFR2	0	19	GUARD	667	n/a	n/a	0	0	0
4078664	WORD	wordpools/wasnorm_wordpool_576.txt	LTP391	ltpFR2	0	19	LUNCH	849	n/a	n/a	0	0	0
4081181	WORD	wordpools/wasnorm_wordpool_576.txt	LTP391	ltpFR2	0	19	SUPPER	1411	n/a	n/a	0	0	0
4083965	WORD	wordpools/wasnorm_wordpool_576.txt	LTP391	ltpFR2	0	19	SHIRT	1287	n/a	n/a	0	0	0
4086631	WORD	wordpools/wasnorm_wordpool_576.txt	LTP391	ltpFR2	0	19	NIGHTGOWN	953	n/a	n/a	0	0	0
4088248	START	n/a	LTP391	ltpFR2	0	n/a	n/a	n/a	29	n/a	n/a	n/a	n/a
4089411	DISTRACTOR	n/a	LTP391	ltpFR2	0	19	n/a	n/a	n/a	n/a	0	0	0
4089415	PROB	n/a	LTP391	ltpFR2	0	n/a	n/a	n/a	29	19	5	8	6
4091948	PROB	n/a	LTP391	ltpFR2	0	n/a	n/a	n/a	29	12	9	2	1
4093431	PROB	n/a	LTP391	ltpFR2	0	n/a	n/a	n/a	29	11	1	1	9
4095048	PROB	n/a	LTP391	ltpFR2	0	n/a	n/a	n/a	29	13	6	6	1
4096598	PROB	n/a	LTP391	ltpFR2	0	n/a	n/a	n/a	29	17	2	9	6
4098414	PROB	n/a	LTP391	ltpFR2	0	n/a	n/a	n/a	29	11	1	5	5
4099880	PROB	n/a	LTP391	ltpFR2	0	n/a	n/a	n/a	29	20	9	2	9
4102014	PROB	n/a	LTP391	ltpFR2	0	n/a	n/a	n/a	29	11	6	1	4
4104014	PROB	n/a	LTP391	ltpFR2	0	n/a	n/a	n/a	29	6	2	2	2
4105248	PROB	n/a	LTP391	ltpFR2	0	n/a	n/a	n/a	29	14	9	4	1
4107813	PROB	n/a	LTP391	ltpFR2	0	n/a	n/a	n/a	29	15	5	1	9
4109581	PROB	n/a	LTP391	ltpFR2	0	n/a	n/a	n/a	29	15	8	3	4
4111520	STOP	n/a	LTP391	ltpFR2	0	n/a	n/a	n/a	29	n/a	n/a	n/a	n/a
4114181	REC_START	n/a	LTP391	ltpFR2	0	19	n/a	n/a	n/a	n/a	0	0	0
4114646	REC_WORD	wordpools/wasnorm_wordpool_576.txt	LTP391	ltpFR2	0	19	QUAIL	1147	n/a	n/a	0	0	0
4116086	REC_WORD	wordpools/wasnorm_wordpool_576.txt	LTP391	ltpFR2	0	19	POLICE	1098	n/a	n/a	0	0	0
4117158	REC_WORD	wordpools/wasnorm_wordpool_576.txt	LTP391	ltpFR2	0	19	ROBBER	1197	n/a	n/a	0	0	0
4118009	REC_WORD	wordpools/wasnorm_wordpool_576.txt	LTP391	ltpFR2	0	19	SHIRT	1287	n/a	n/a	0	0	0
4118972	REC_WORD	wordpools/wasnorm_wordpool_576.txt	LTP391	ltpFR2	0	19	NIGHTGOWN	953	n/a	n/a	0	0	0
4121176	REC_WORD	wordpools/wasnorm_wordpool_576.txt	LTP391	ltpFR2	0	19	CROWN	415	n/a	n/a	0	0	0
4122131	REC_WORD	wordpools/wasnorm_wordpool_576.txt	LTP391	ltpFR2	0	19	SWORD	1423	n/a	n/a	0	0	0
4129952	REC_WORD	wordpools/wasnorm_wordpool_576.txt	LTP391	ltpFR2	0	19	DOLPHIN	483	n/a	n/a	0	0	0
4130658	REC_WORD	wordpools/wasnorm_wordpool_576.txt	LTP391	ltpFR2	0	19	STREAM	1392	n/a	n/a	0	0	0
4131488	REC_WORD	wordpools/wasnorm_wordpool_576.txt	LTP391	ltpFR2	0	19	LAKE	796	n/a	n/a	0	0	0
4135277	REC_WORD	wordpools/wasnorm_wordpool_576.txt	LTP391	ltpFR2	0	19	GRAPE	654	n/a	n/a	0	0	0
4204662	WORD	wordpools/wasnorm_wordpool_576.txt	LTP391	ltpFR2	0	20	BANJO	82	n/a	n/a	0	0	0
4207296	WORD	wordpools/wasnorm_wordpool_576.txt	LTP391	ltpFR2	0	20	ROD	1203	n/a	n/a	0	0	0
4209828	WORD	wordpools/wasnorm_wordpool_576.txt	LTP391	ltpFR2	0	20	LIGHTNING	820	n/a	n/a	0	0	0
4212529	WORD	wordpools/wasnorm_wordpool_576.txt	LTP391	ltpFR2	0	20	IGLOO	734	n/a	n/a	0	0	0
4215096	WORD	wordpools/wasnorm_wordpool_576.txt	LTP391	ltpFR2	0	20	HEADBAND	696	n/a	n/a	0	0	0
4217828	WORD	wordpools/wasnorm_wordpool_576.txt	LTP391	ltpFR2	0	20	MUMMY	932	n/a	n/a	0	0	0
4220429	WORD	wordpools/wasnorm_wordpool_576.txt	LTP391	ltpFR2	0	20	MACHINE	852	n/a	n/a	0	0	0
4223062	WORD	wordpools/wasnorm_wordpool_576.txt	LTP391	ltpFR2	0	20	ROBOT	1200	n/a	n/a	0	0	0
4225562	WORD	wordpools/wasnorm_wordpool_576.txt	LTP391	ltpFR2	0	20	FILM	565	n/a	n/a	0	0	0
4228062	WORD	wordpools/wasnorm_wordpool_576.txt	LTP391	ltpFR2	0	20	PEBBLE	1035	n/a	n/a	0	0	0
4230579	WORD	wordpools/wasnorm_wordpool_576.txt	LTP391	ltpFR2	0	20	STATUE	1374	n/a	n/a	0	0	0
4233029	WORD	wordpools/wasnorm_wordpool_576.txt	LTP391	ltpFR2	0	20	SPOON	1357	n/a	n/a	0	0	0
4235496	WORD	wordpools/wasnorm_wordpool_576.txt	LTP391	ltpFR2	0	20	SERVER	1272	n/a	n/a	0	0	0
4237979	WORD	wordpools/wasnorm_wordpool_576.txt	LTP391	ltpFR2	0	20	SPARROW	1347	n/a	n/a	0	0	0
4240629	WORD	wordpools/wasnorm_wordpool_576.txt	LTP391	ltpFR2	0	20	TWEEZERS	1526	n/a	n/a	0	0	0
4243062	WORD	wordpools/wasnorm_wordpool_576.txt	LTP391	ltpFR2	0	20	ANTLER	29	n/a	n/a	0	0	0
4245744	WORD	wordpools/wasnorm_wordpool_576.txt	LTP391	ltpFR2	0	20	BEAVER	109	n/a	n/a	0	0	0
4248295	WORD	wordpools/wasnorm_wordpool_576.txt	LTP391	ltpFR2	0	20	KIDNEY	776	n/a	n/a	0	0	0
4250894	WORD	wordpools/wasnorm_wordpool_576.txt	LTP391	ltpFR2	0	20	ICEBERG	731	n/a	n/a	0	0	0
4253345	WORD	wordpools/wasnorm_wordpool_576.txt	LTP391	ltpFR2	0	20	BOUQUET	157	n/a	n/a	0	0	0
4255911	WORD	wordpools/wasnorm_wordpool_576.txt	LTP391	ltpFR2	0	20	SLIDE	1326	n/a	n/a	0	0	0
4258545	WORD	wordpools/wasnorm_wordpool_576.txt	LTP391	ltpFR2	0	20	RAFT	1159	n/a	n/a	0	0	0
4261195	WORD	wordpools/wasnorm_wordpool_576.txt	LTP391	ltpFR2	0	20	SPONGE	1355	n/a	n/a	0	0	0
4263628	WORD	wordpools/wasnorm_wordpool_576.txt	LTP391	ltpFR2	0	20	PUDDING	1139	n/a	n/a	0	0	0
4265245	START	n/a	LTP391	ltpFR2	0	n/a	n/a	n/a	30	n/a	n/a	n/a	n/a
4266276	DISTRACTOR	n/a	LTP391	ltpFR2	0	20	n/a	n/a	n/a	n/a	0	0	0
4266278	PROB	n/a	LTP391	ltpFR2	0	n/a	n/a	n/a	30	10	7	2	1
4268045	PROB	n/a	LTP391	ltpFR2	0	n/a	n/a	n/a	30	22	5	8	9
4271178	PROB	n/a	LTP391	ltpFR2	0	n/a	n/a	n/a	30	12	1	9	2
4272628	PROB	n/a	LTP391	ltpFR2	0	n/a	n/a	n/a	30	20	9	9	2
4274028	PROB	n/a	LTP391	ltpFR2	0	n/a	n/a	n/a	30	23	7	7	9
4277128	PROB	n/a	LTP391	ltpFR2	0	n/a	n/a	n/a	30	19	2	9	8
4279161	PROB	n/a	LTP391	ltpFR2	0	n/a	n/a	n/a	30	18	6	5	7
4281361	PROB	n/a	LTP391	ltpFR2	0	n/a	n/a	n/a	30	24	9	7	8
4285561	PROB	n/a	LTP391	ltpFR2	0	n/a	n/a	n/a	30	8	2	5	1
4289245	STOP	n/a	LTP391	ltpFR2	0	n/a	n/a	n/a	30	n/a	n/a	n/a	n/a
4291128	REC_START	n/a	LTP391	ltpFR2	0	20	n/a	n/a	n/a	n/a	0	0	0
4291573	REC_WORD	wordpools/wasnorm_wordpool_576.txt	LTP391	ltpFR2	0	20	SERVER	1272	n/a	n/a	0	0	0
4292212	REC_WORD	wordpools/wasnorm_wordpool_576.txt	LTP391	ltpFR2	0	20	SPOON	1357	n/a	n/a	0	0	0
4292953	REC_WORD	wordpools/wasnorm_wordpool_576.txt	LTP391	ltpFR2	0	20	SPARROW	1347	n/a	n/a	0	0	0
4294267	REC_WORD	wordpools/wasnorm_wordpool_576.txt	LTP391	ltpFR2	0	20	PUDDING	1139	n/a	n/a	0	0	0
4296162	REC_WORD	wordpools/wasnorm_wordpool_576.txt	LTP391	ltpFR2	0	20	RAFT	1159	n/a	n/a	0	0	0
4297547	REC_WORD	wordpools/wasnorm_wordpool_576.txt	LTP391	ltpFR2	0	20	BEAVER	109	n/a	n/a	0	0	0
4298171	REC_WORD	wordpools/wasnorm_wordpool_576.txt	LTP391	ltpFR2	0	20	ANTLER	29	n/a	n/a	0	0	0
4309926	REC_WORD	wordpools/wasnorm_wordpool_576.txt	LTP391	ltpFR2	0	20	MACHINE	852	n/a	n/a	0	0	0
4310734	REC_WORD	wordpools/wasnorm_wordpool_576.txt	LTP391	ltpFR2	0	20	ROBOT	1200	n/a	n/a	0	0	0
4320699	REC_WORD	wordpools/wasnorm_wordpool_576.txt	LTP391	ltpFR2	0	20	TWEEZERS	1526	n/a	n/a	0	0	0
4349212	REC_WORD	wordpools/wasnorm_wordpool_576.txt	LTP391	ltpFR2	0	20	BANJO	82	n/a	n/a	0	0	0
4350462	REC_WORD	wordpools/wasnorm_wordpool_576.txt	LTP391	ltpFR2	0	20	BANQUET	86	n/a	n/a	0	0	0
4391493	WORD	wordpools/wasnorm_wordpool_576.txt	LTP391	ltpFR2	0	21	CABIN	211	n/a	n/a	0	0	0
4394126	WORD	wordpools/wasnorm_wordpool_576.txt	LTP391	ltpFR2	0	21	INMATE	738	n/a	n/a	0	0	0
4396792	WORD	wordpools/wasnorm_wordpool_576.txt	LTP391	ltpFR2	0	21	JOURNAL	760	n/a	n/a	0	0	0
4399593	WORD	wordpools/wasnorm_wordpool_576.txt	LTP391	ltpFR2	0	21	BRICK	172	n/a	n/a	0	0	0
4402226	WORD	wordpools/wasnorm_wordpool_576.txt	LTP391	ltpFR2	0	21	GRAVE	658	n/a	n/a	0	0	0
4404675	WORD	wordpools/wasnorm_wordpool_576.txt	LTP391	ltpFR2	0	21	EMPIRE	530	n/a	n/a	0	0	0
4407476	WORD	wordpools/wasnorm_wordpool_576.txt	LTP391	ltpFR2	0	21	NOTEBOOK	959	n/a	n/a	0	0	0
4410109	WORD	wordpools/wasnorm_wordpool_576.txt	LTP391	ltpFR2	0	21	DRINK	498	n/a	n/a	0	0	0
4412775	WORD	wordpools/wasnorm_wordpool_576.txt	LTP391	ltpFR2	0	21	HAND	683	n/a	n/a	0	0	0
4415293	WORD	wordpools/wasnorm_wordpool_576.txt	LTP391	ltpFR2	0	21	WRIST	1626	n/a	n/a	0	0	0
4417875	WORD	wordpools/wasnorm_wordpool_576.txt	LTP391	ltpFR2	0	21	BELLY	119	n/a	n/a	0	0	0
4420359	WORD	wordpools/wasnorm_wordpool_576.txt	LTP391	ltpFR2	0	21	PLAID	1080	n/a	n/a	0	0	0
4422808	WORD	wordpools/wasnorm_wordpool_576.txt	LTP391	ltpFR2	0	21	ATLAS	53	n/a	n/a	0	0	0
4425459	WORD	wordpools/wasnorm_wordpool_576.txt	LTP391	ltpFR2	0	21	CRIB	407	n/a	n/a	0	0	0
4427976	WORD	wordpools/wasnorm_wordpool_576.txt	LTP391	ltpFR2	0	21	BABY	64	n/a	n/a	0	0	0
4430675	WORD	wordpools/wasnorm_wordpool_576.txt	LTP391	ltpFR2	0	21	BLOCKADE	137	n/a	n/a	0	0	0
4433409	WORD	wordpools/wasnorm_wordpool_576.txt	LTP391	ltpFR2	0	21	SURVEY	1414	n/a	n/a	0	0	0
4436059	WORD	wordpools/wasnorm_wordpool_576.txt	LTP391	ltpFR2	0	21	PENGUIN	1044	n/a	n/a	0	0	0
4438626	WORD	wordpools/wasnorm_wordpool_576.txt	LTP391	ltpFR2	0	21	ROOSTER	1209	n/a	n/a	0	0	0
4441059	WORD	wordpools/wasnorm_wordpool_576.txt	LTP391	ltpFR2	0	21	MATCH	878	n/a	n/a	0	0	0
4443741	WORD	wordpools/wasnorm_wordpool_576.txt	LTP391	ltpFR2	0	21	COSTUME	383	n/a	n/a	0	0	0
4446325	WORD	wordpools/wasnorm_wordpool_576.txt	LTP391	ltpFR2	0	21	COUCH	386	n/a	n/a	0	0	0
4449075	WORD	wordpools/wasnorm_wordpool_576.txt	LTP391	ltpFR2	0	21	SMOG	1330	n/a	n/a	0	0	0
4451841	WORD	wordpools/wasnorm_wordpool_576.txt	LTP391	ltpFR2	0	21	WARDROBE	1587	n/a	n/a	0	0	0
4453459	START	n/a	LTP391	ltpFR2	0	n/a	n/a	n/a	31	n/a	n/a	n/a	n/a
4454626	DISTRACTOR	n/a	LTP391	ltpFR2	0	21	n/a	n/a	n/a	n/a	0	0	0
4454642	PROB	n/a	LTP391	ltpFR2	0	n/a	n/a	n/a	31	16	7	7	2
4456592	PROB	n/a	LTP391	ltpFR2	0	n/a	n/a	n/a	31	19	1	9	9
4459325	PROB	n/a	LTP391	ltpFR2	0	n/a	n/a	n/a	31	20	9	3	8
4463525	PROB	n/a	LTP391	ltpFR2	0	n/a	n/a	n/a	31	16	7	3	6
4465575	PROB	n/a	LTP391	ltpFR2	0	n/a	n/a	n/a	31	12	2	2	8
4467525	PROB	n/a	LTP391	ltpFR2	0	n/a	n/a	n/a	31	14	1	7	6
4469558	PROB	n/a	LTP391	ltpFR2	0	n/a	n/a	n/a	31	8	3	1	4
4471342	PROB	n/a	LTP391	ltpFR2	0	n/a	n/a	n/a	31	9	5	2	2
4472891	PROB	n/a	LTP391	ltpFR2	0	n/a	n/a	n/a	31	9	3	2	4
4475025	PROB	n/a	LTP391	ltpFR2	0	n/a	n/a	n/a	31	16	6	6	4
4476547	STOP	n/a	LTP391	ltpFR2	0	n/a	n/a	n/a	31	n/a	n/a	n/a	n/a
4479325	REC_START	n/a	LTP391	ltpFR2	0	21	n/a	n/a	n/a	n/a	0	0	0
4479866	REC_WORD	wordpools/wasnorm_wordpool_576.txt	LTP391	ltpFR2	0	21	CABIN	211	n/a	n/a	0	0	0
4480876	REC_WORD	wordpools/wasnorm_wordpool_576.txt	LTP391	ltpFR2	0	21	PLAID	1080	n/a	n/a	0	0	0
4481639	REC_WORD	wordpools/wasnorm_wordpool_576.txt	LTP391	ltpFR2	0	21	BRICK	172	n/a	n/a	0	0	0
4482654	REC_WORD	wordpools/wasnorm_wordpool_576.txt	LTP391	ltpFR2	0	21	GRAVE	658	n/a	n/a	0	0	0
4486789	REC_WORD	wordpools/wasnorm_wordpool_576.txt	LTP391	ltpFR2	0	21	BABY	64	n/a	n/a	0	0	0
4487372	REC_WORD	wordpools/wasnorm_wordpool_576.txt	LTP391	ltpFR2	0	21	CRIB	407	n/a	n/a	0	0	0
4490157	REC_WORD	wordpools/wasnorm_wordpool_576.txt	LTP391	ltpFR2	0	21	INFANT	737	n/a	n/a	0	0	0
4510933	REC_WORD	wordpools/wasnorm_wordpool_576.txt	LTP391	ltpFR2	0	21	HAND	683	n/a	n/a	0	0	0
4511555	REC_WORD	wordpools/wasnorm_wordpool_576.txt	LTP391	ltpFR2	0	21	WRIST	1626	n/a	n/a	0	0	0
4513800	REC_WORD	wordpools/wasnorm_wordpool_576.txt	LTP391	ltpFR2	0	21	BELLY	119	n/a	n/a	0	0	0
4517985	REC_WORD	wordpools/wasnorm_wordpool_576.txt	LTP391	ltpFR2	0	21	BLOCKAGE	-1	n/a	n/a	0	0	0
4521360	REC_WORD	wordpools/wasnorm_wordpool_576.txt	LTP391	ltpFR2	0	21	BLOCKADE	137	n/a	n/a	0	0	0
4524643	REC_WORD	wordpools/wasnorm_wordpool_576.txt	LTP391	ltpFR2	0	21	SURVEY	1414	n/a	n/a	0	0	0
4525299	REC_WORD	wordpools/wasnorm_wordpool_576.txt	LTP391	ltpFR2	0	21	PENGUIN	1044	n/a	n/a	0	0	0
4527064	REC_WORD	wordpools/wasnorm_wordpool_576.txt	LTP391	ltpFR2	0	21	ROOSTER	1209	n/a	n/a	0	0	0
4569756	DISTRACTOR	n/a	LTP391	ltpFR2	0	22	n/a	n/a	n/a	n/a	0	0	0
4569756	START	n/a	LTP391	ltpFR2	0	n/a	n/a	n/a	32	n/a	n/a	n/a	n/a
4569772	PROB	n/a	LTP391	ltpFR2	0	n/a	n/a	n/a	32	11	1	9	1
4571440	PROB	n/a	LTP391	ltpFR2	0	n/a	n/a	n/a	32	17	3	8	5
4576423	PROB	n/a	LTP391	ltpFR2	0	n/a	n/a	n/a	32	16	4	7	5
4579923	PROB	n/a	LTP391	ltpFR2	0	n/a	n/a	n/a	32	15	1	8	6
4582140	PROB	n/a	LTP391	ltpFR2	0	n/a	n/a	n/a	32	17	8	1	8
4584490	PROB	n/a	LTP391	ltpFR2	0	n/a	n/a	n/a	32	15	8	1	6
4588406	PROB	n/a	LTP391	ltpFR2	0	n/a	n/a	n/a	32	16	5	4	7
4591023	PROB	n/a	LTP391	ltpFR2	0	n/a	n/a	n/a	32	10	2	6	2
4592750	STOP	n/a	LTP391	ltpFR2	0	n/a	n/a	n/a	32	n/a	n/a	n/a	n/a
4594623	WORD	wordpools/wasnorm_wordpool_576.txt	LTP391	ltpFR2	0	22	CASKET	255	n/a	n/a	0	0	0
4597256	WORD	wordpools/wasnorm_wordpool_576.txt	LTP391	ltpFR2	0	22	BODY	145	n/a	n/a	0	0	0
4599755	WORD	wordpools/wasnorm_wordpool_576.txt	LTP391	ltpFR2	0	22	COOK	372	n/a	n/a	0	0	0
4602273	WORD	wordpools/wasnorm_wordpool_576.txt	LTP391	ltpFR2	0	22	WAITER	1580	n/a	n/a	0	0	0
4604923	WORD	wordpools/wasnorm_wordpool_576.txt	LTP391	ltpFR2	0	22	SAUSAGE	1238	n/a	n/a	0	0	0
4607738	WORD	wordpools/wasnorm_wordpool_576.txt	LTP391	ltpFR2	0	22	SCARF	1246	n/a	n/a	0	0	0
4610373	WORD	wordpools/wasnorm_wordpool_576.txt	LTP391	ltpFR2	0	22	VICTIM	1562	n/a	n/a	0	0	0
4613006	WORD	wordpools/wasnorm_wordpool_576.txt	LTP391	ltpFR2	0	22	UMPIRE	1535	n/a	n/a	0	0	0
4615523	WORD	wordpools/wasnorm_wordpool_576.txt	LTP391	ltpFR2	0	22	LAVA	804	n/a	n/a	0	0	0
4617956	WORD	wordpools/wasnorm_wordpool_576.txt	LTP391	ltpFR2	0	22	DENTIST	447	n/a	n/a	0	0	0
4620439	WORD	wordpools/wasnorm_wordpool_576.txt	LTP391	ltpFR2	0	22	BRACES	164	n/a	n/a	0	0	0
4622939	WORD	wordpools/wasnorm_wordpool_576.txt	LTP391	ltpFR2	0	22	PLAZA	1088	n/a	n/a	0	0	0
4625721	WORD	wordpools/wasnorm_wordpool_576.txt	LTP391	ltpFR2	0	22	POWDER	1117	n/a	n/a	0	0	0
4628422	WORD	wordpools/wasnorm_wordpool_576.txt	LTP391	ltpFR2	0	22	SHERIFF	1284	n/a	n/a	0	0	0
4631206	WORD	wordpools/wasnorm_wordpool_576.txt	LTP391	ltpFR2	0	22	MARROW	872	n/a	n/a	0	0	0
4633705	WORD	wordpools/wasnorm_wordpool_576.txt	LTP391	ltpFR2	0	22	MOTEL	919	n/a	n/a	0	0	0
4636456	WORD	wordpools/wasnorm_wordpool_576.txt	LTP391	ltpFR2	0	22	AUTHOR	61	n/a	n/a	0	0	0
4639172	WORD	wordpools/wasnorm_wordpool_576.txt	LTP391	ltpFR2	0	22	STOVE	1388	n/a	n/a	0	0	0
4641821	WORD	wordpools/wasnorm_wordpool_576.txt	LTP391	ltpFR2	0	22	MONEY	908	n/a	n/a	0	0	0
4644622	WORD	wordpools/wasnorm_wordpool_576.txt	LTP391	ltpFR2	0	22	HERO	706	n/a	n/a	0	0	0
4647222	WORD	wordpools/wasnorm_wordpool_576.txt	LTP391	ltpFR2	0	22	CITRUS	313	n/a	n/a	0	0	0
4649738	WORD	wordpools/wasnorm_wordpool_576.txt	LTP391	ltpFR2	0	22	CATCHER	258	n/a	n/a	0	0	0
4652405	WORD	wordpools/wasnorm_wordpool_576.txt	LTP391	ltpFR2	0	22	KNAPSACK	783	n/a	n/a	0	0	0
4655022	WORD	wordpools/wasnorm_wordpool_576.txt	LTP391	ltpFR2	0	22	BRIEFCASE	175	n/a	n/a	0	0	0
4656639	START	n/a	LTP391	ltpFR2	0	n/a	n/a	n/a	33	n/a	n/a	n/a	n/a
4657707	DISTRACTOR	n/a	LTP391	ltpFR2	0	22	n/a	n/a	n/a	n/a	0	0	0
4657721	PROB	n/a	LTP391	ltpFR2	0	n/a	n/a	n/a	33	10	1	7	2
4659439	PROB	n/a	LTP391	ltpFR2	0	n/a	n/a	n/a	33	12	5	1	6
4660938	PROB	n/a	LTP391	ltpFR2	0	n/a	n/a	n/a	33	16	5	3	8
4665405	PROB	n/a	LTP391	ltpFR2	0	n/a	n/a	n/a	33	13	1	8	4
4667472	PROB	n/a	LTP391	ltpFR2	0	n/a	n/a	n/a	33	14	5	8	1
