onset	duration	trial_type	sample	stim_file	subject	experiment	session	trial	task	item_name	item_num	recog_conf	resp	answer	test_x	test_y	test_z	color_b	color_g	color_r	case	font
373.924	n/a	SESS_START	186962	n/a	LTP269	ltpFR	14	n/a	n/a	n/a	n/a	n/a	n/a	n/a	0	0	0	n/a	n/a	n/a	n/a	n/a
402.352	n/a	START	201176	n/a	LTP269	ltpFR	14	n/a	n/a	n/a	n/a	n/a	n/a	n/a	n/a	n/a	n/a	n/a	n/a	n/a	n/a	n/a
402.404	n/a	PROB	201202	n/a	LTP269	ltpFR	14	n/a	n/a	n/a	n/a	n/a	n/a	22	6	9	7	n/a	n/a	n/a	n/a	n/a
406.068	n/a	PROB	203034	n/a	LTP269	ltpFR	14	n/a	n/a	n/a	n/a	n/a	n/a	21	8	9	5	n/a	n/a	n/a	n/a	n/a
408.526	n/a	PROB	204263	n/a	LTP269	ltpFR	14	n/a	n/a	n/a	n/a	n/a	n/a	16	5	3	8	n/a	n/a	n/a	n/a	n/a
410.568	n/a	PROB	205284	n/a	LTP269	ltpFR	14	n/a	n/a	n/a	n/a	n/a	n/a	12	5	2	5	n/a	n/a	n/a	n/a	n/a
412.058	n/a	PROB	206029	n/a	LTP269	ltpFR	14	n/a	n/a	n/a	n/a	n/a	n/a	12	3	2	7	n/a	n/a	n/a	n/a	n/a
413.946	n/a	PROB	206973	n/a	LTP269	ltpFR	14	n/a	n/a	n/a	n/a	n/a	n/a	18	5	5	8	n/a	n/a	n/a	n/a	n/a
415.554	n/a	PROB	207777	n/a	LTP269	ltpFR	14	n/a	n/a	n/a	n/a	n/a	n/a	13	1	3	9	n/a	n/a	n/a	n/a	n/a
417.66	n/a	PROB	208830	n/a	LTP269	ltpFR	14	n/a	n/a	n/a	n/a	n/a	n/a	9	4	3	2	n/a	n/a	n/a	n/a	n/a
420.338	n/a	PROB	210169	n/a	LTP269	ltpFR	14	n/a	n/a	n/a	n/a	n/a	n/a	17	7	1	9	n/a	n/a	n/a	n/a	n/a
421.97	n/a	STOP	210985	n/a	LTP269	ltpFR	14	n/a	n/a	n/a	n/a	n/a	n/a	n/a	n/a	n/a	n/a	n/a	n/a	n/a	n/a	n/a
445.87	n/a	WORD	222935	wordpools/wasnorm_wordpool_less_exclusions.txt	LTP269	ltpFR	14	1	1	MUSHROOM	934	n/a	1	n/a	0	0	0	0	0.5869140625	0.422607421875	lower	../fonts/zerothre.ttf
450.07	n/a	WORD	225035	wordpools/wasnorm_wordpool_less_exclusions.txt	LTP269	ltpFR	14	1	1	SLUG	1329	n/a	1	n/a	0	0	0	0	0.5869140625	0.422607421875	lower	../fonts/zerothre.ttf
454.002	n/a	WORD	227001	wordpools/wasnorm_wordpool_less_exclusions.txt	LTP269	ltpFR	14	1	0	MOTH	920	n/a	0	n/a	0	0	0	1	0.412841796875	0.57763671875	upper	../fonts/amplitud.ttf
458.0	n/a	WORD	229000	wordpools/wasnorm_wordpool_less_exclusions.txt	LTP269	ltpFR	14	1	0	SKYSCRAPER	1322	n/a	1	n/a	0	0	0	1	0.412841796875	0.57763671875	upper	../fonts/amplitud.ttf
462.066	n/a	WORD	231033	wordpools/wasnorm_wordpool_less_exclusions.txt	LTP269	ltpFR	14	1	0	CONTRACTOR	369	n/a	1	n/a	0	0	0	1	0.412841796875	0.57763671875	upper	../fonts/amplitud.ttf
466.248	n/a	WORD	233124	wordpools/wasnorm_wordpool_less_exclusions.txt	LTP269	ltpFR	14	1	0	FURNITURE	616	n/a	1	n/a	0	0	0	1	0.412841796875	0.57763671875	upper	../fonts/amplitud.ttf
470.296	n/a	WORD	235148	wordpools/wasnorm_wordpool_less_exclusions.txt	LTP269	ltpFR	14	1	0	HAND	683	n/a	0	n/a	0	0	0	1	0.412841796875	0.57763671875	upper	../fonts/amplitud.ttf
474.128	n/a	WORD	237064	wordpools/wasnorm_wordpool_less_exclusions.txt	LTP269	ltpFR	14	1	0	WAIST	1579	n/a	1	n/a	0	0	0	1	0.412841796875	0.57763671875	upper	../fonts/amplitud.ttf
478.31	n/a	WORD	239155	wordpools/wasnorm_wordpool_less_exclusions.txt	LTP269	ltpFR	14	1	1	SOAP	1337	n/a	0	n/a	0	0	0	0	0.5869140625	0.422607421875	lower	../fonts/zerothre.ttf
482.39	n/a	WORD	241195	wordpools/wasnorm_wordpool_less_exclusions.txt	LTP269	ltpFR	14	1	1	MONEY	908	n/a	0	n/a	0	0	0	0	0.5869140625	0.422607421875	lower	../fonts/zerothre.ttf
486.39	n/a	WORD	243195	wordpools/wasnorm_wordpool_less_exclusions.txt	LTP269	ltpFR	14	1	0	TOASTER	1472	n/a	1	n/a	0	0	0	1	0.412841796875	0.57763671875	upper	../fonts/amplitud.ttf
490.44	n/a	WORD	245220	wordpools/wasnorm_wordpool_less_exclusions.txt	LTP269	ltpFR	14	1	0	CHEF	290	n/a	1	n/a	0	0	0	1	0.412841796875	0.57763671875	upper	../fonts/amplitud.ttf
494.422	n/a	WORD	247211	wordpools/wasnorm_wordpool_less_exclusions.txt	LTP269	ltpFR	14	1	1	RIB	1188	n/a	0	n/a	0	0	0	0	0.5869140625	0.422607421875	lower	../fonts/zerothre.ttf
498.304	n/a	WORD	249152	wordpools/wasnorm_wordpool_less_exclusions.txt	LTP269	ltpFR	14	1	1	SERVANT	1271	n/a	1	n/a	0	0	0	0	0.5869140625	0.422607421875	lower	../fonts/zerothre.ttf
502.152	n/a	WORD	251076	wordpools/wasnorm_wordpool_less_exclusions.txt	LTP269	ltpFR	14	1	1	CHECK	284	n/a	0	n/a	0	0	0	0	0.5869140625	0.422607421875	lower	../fonts/zerothre.ttf
506.218	n/a	WORD	253109	wordpools/wasnorm_wordpool_less_exclusions.txt	LTP269	ltpFR	14	1	1	DISH	474	n/a	0	n/a	0	0	0	0	0.5869140625	0.422607421875	lower	../fonts/zerothre.ttf
509.23	n/a	START	254615	n/a	LTP269	ltpFR	14	n/a	n/a	n/a	n/a	n/a	n/a	n/a	n/a	n/a	n/a	n/a	n/a	n/a	n/a	n/a
510.134	n/a	PROB	255067	n/a	LTP269	ltpFR	14	n/a	n/a	n/a	n/a	n/a	n/a	13	5	7	1	n/a	n/a	n/a	n/a	n/a
511.906	n/a	PROB	255953	n/a	LTP269	ltpFR	14	n/a	n/a	n/a	n/a	n/a	n/a	12	1	7	4	n/a	n/a	n/a	n/a	n/a
514.132	n/a	PROB	257066	n/a	LTP269	ltpFR	14	n/a	n/a	n/a	n/a	n/a	n/a	20	9	7	4	n/a	n/a	n/a	n/a	n/a
516.376	n/a	STOP	258188	n/a	LTP269	ltpFR	14	n/a	n/a	n/a	n/a	n/a	n/a	n/a	n/a	n/a	n/a	n/a	n/a	n/a	n/a	n/a
519.0	n/a	REC_START	259500	n/a	LTP269	ltpFR	14	1	n/a	n/a	n/a	n/a	n/a	n/a	0	0	0	n/a	n/a	n/a	n/a	n/a
520.526	n/a	REC_WORD	260263	wordpools/wasnorm_wordpool_less_exclusions.txt	LTP269	ltpFR	14	1	1	MUSHROOM	934	n/a	1	n/a	0	0	0	n/a	n/a	n/a	n/a	n/a
521.414	n/a	REC_WORD	260707	wordpools/wasnorm_wordpool_less_exclusions.txt	LTP269	ltpFR	14	1	1	SLUG	1329	n/a	1	n/a	0	0	0	n/a	n/a	n/a	n/a	n/a
522.484	n/a	REC_WORD	261242	wordpools/wasnorm_wordpool_less_exclusions.txt	LTP269	ltpFR	14	1	0	MOTH	920	n/a	0	n/a	0	0	0	n/a	n/a	n/a	n/a	n/a
523.478	n/a	REC_WORD	261739	wordpools/wasnorm_wordpool_less_exclusions.txt	LTP269	ltpFR	14	1	0	SKYSCRAPER	1322	n/a	1	n/a	0	0	0	n/a	n/a	n/a	n/a	n/a
524.758	n/a	REC_WORD	262379	wordpools/wasnorm_wordpool_less_exclusions.txt	LTP269	ltpFR	14	1	0	CONTRACTOR	369	n/a	1	n/a	0	0	0	n/a	n/a	n/a	n/a	n/a
527.564	n/a	REC_WORD	263782	wordpools/wasnorm_wordpool_less_exclusions.txt	LTP269	ltpFR	14	1	0	HAND	683	n/a	0	n/a	0	0	0	n/a	n/a	n/a	n/a	n/a
528.82	n/a	REC_WORD	264410	wordpools/wasnorm_wordpool_less_exclusions.txt	LTP269	ltpFR	14	1	0	WAIST	1579	n/a	1	n/a	0	0	0	n/a	n/a	n/a	n/a	n/a
532.32	n/a	REC_WORD	266160	wordpools/wasnorm_wordpool_less_exclusions.txt	LTP269	ltpFR	14	1	0	TOASTER	1472	n/a	1	n/a	0	0	0	n/a	n/a	n/a	n/a	n/a
533.368	n/a	REC_WORD	266684	wordpools/wasnorm_wordpool_less_exclusions.txt	LTP269	ltpFR	14	1	0	CHEF	290	n/a	1	n/a	0	0	0	n/a	n/a	n/a	n/a	n/a
545.134	n/a	REC_WORD	272567	wordpools/wasnorm_wordpool_less_exclusions.txt	LTP269	ltpFR	14	1	1	RIB	1188	n/a	0	n/a	0	0	0	n/a	n/a	n/a	n/a	n/a
546.564	n/a	REC_WORD	273282	wordpools/wasnorm_wordpool_less_exclusions.txt	LTP269	ltpFR	14	1	1	SERVANT	1271	n/a	1	n/a	0	0	0	n/a	n/a	n/a	n/a	n/a
548.508	n/a	REC_WORD	274254	wordpools/wasnorm_wordpool_less_exclusions.txt	LTP269	ltpFR	14	1	1	DISH	474	n/a	0	n/a	0	0	0	n/a	n/a	n/a	n/a	n/a
550.356	n/a	REC_WORD	275178	wordpools/wasnorm_wordpool_less_exclusions.txt	LTP269	ltpFR	14	1	1	CHECK	284	n/a	0	n/a	0	0	0	n/a	n/a	n/a	n/a	n/a
556.452	n/a	REC_WORD	278226	wordpools/wasnorm_wordpool_less_exclusions.txt	LTP269	ltpFR	14	1	1	SOAP	1337	n/a	0	n/a	0	0	0	n/a	n/a	n/a	n/a	n/a
596.612	n/a	START	298306	n/a	LTP269	ltpFR	14	n/a	n/a	n/a	n/a	n/a	n/a	n/a	n/a	n/a	n/a	n/a	n/a	n/a	n/a	n/a
598.118	n/a	PROB	299059	n/a	LTP269	ltpFR	14	n/a	n/a	n/a	n/a	n/a	n/a	15	4	6	5	n/a	n/a	n/a	n/a	n/a
599.708	n/a	PROB	299854	n/a	LTP269	ltpFR	14	n/a	n/a	n/a	n/a	n/a	n/a	18	8	7	3	n/a	n/a	n/a	n/a	n/a
601.012	n/a	PROB	300506	n/a	LTP269	ltpFR	14	n/a	n/a	n/a	n/a	n/a	n/a	14	7	1	6	n/a	n/a	n/a	n/a	n/a
604.614	n/a	STOP	302307	n/a	LTP269	ltpFR	14	n/a	n/a	n/a	n/a	n/a	n/a	n/a	n/a	n/a	n/a	n/a	n/a	n/a	n/a	n/a
605.812	n/a	WORD	302906	wordpools/wasnorm_wordpool_less_exclusions.txt	LTP269	ltpFR	14	2	1	CUFF	423	n/a	0	n/a	0	0	0	0	0.5869140625	0.422607421875	lower	../fonts/zerothre.ttf
608.826	n/a	START	304413	n/a	LTP269	ltpFR	14	n/a	n/a	n/a	n/a	n/a	n/a	n/a	n/a	n/a	n/a	n/a	n/a	n/a	n/a	n/a
609.796	n/a	PROB	304898	n/a	LTP269	ltpFR	14	n/a	n/a	n/a	n/a	n/a	n/a	17	9	2	6	n/a	n/a	n/a	n/a	n/a
612.958	n/a	PROB	306479	n/a	LTP269	ltpFR	14	n/a	n/a	n/a	n/a	n/a	n/a	13	4	3	6	n/a	n/a	n/a	n/a	n/a
614.814	n/a	PROB	307407	n/a	LTP269	ltpFR	14	n/a	n/a	n/a	n/a	n/a	n/a	15	6	6	3	n/a	n/a	n/a	n/a	n/a
616.276	n/a	STOP	308138	n/a	LTP269	ltpFR	14	n/a	n/a	n/a	n/a	n/a	n/a	n/a	n/a	n/a	n/a	n/a	n/a	n/a	n/a	n/a
618.028	n/a	WORD	309014	wordpools/wasnorm_wordpool_less_exclusions.txt	LTP269	ltpFR	14	2	1	BUSH	202	n/a	1	n/a	0	0	0	0	0.5869140625	0.422607421875	lower	../fonts/zerothre.ttf
621.04	n/a	START	310520	n/a	LTP269	ltpFR	14	n/a	n/a	n/a	n/a	n/a	n/a	n/a	n/a	n/a	n/a	n/a	n/a	n/a	n/a	n/a
621.942	n/a	PROB	310971	n/a	LTP269	ltpFR	14	n/a	n/a	n/a	n/a	n/a	n/a	21	4	8	9	n/a	n/a	n/a	n/a	n/a
624.05	n/a	PROB	312025	n/a	LTP269	ltpFR	14	n/a	n/a	n/a	n/a	n/a	n/a	18	8	8	2	n/a	n/a	n/a	n/a	n/a
625.958	n/a	PROB	312979	n/a	LTP269	ltpFR	14	n/a	n/a	n/a	n/a	n/a	n/a	18	1	9	8	n/a	n/a	n/a	n/a	n/a
627.678	n/a	STOP	313839	n/a	LTP269	ltpFR	14	n/a	n/a	n/a	n/a	n/a	n/a	n/a	n/a	n/a	n/a	n/a	n/a	n/a	n/a	n/a
629.956	n/a	WORD	314978	wordpools/wasnorm_wordpool_less_exclusions.txt	LTP269	ltpFR	14	2	1	POLITICIAN	1099	n/a	1	n/a	0	0	0	0	0.5869140625	0.422607421875	lower	../fonts/zerothre.ttf
632.968	n/a	START	316484	n/a	LTP269	ltpFR	14	n/a	n/a	n/a	n/a	n/a	n/a	n/a	n/a	n/a	n/a	n/a	n/a	n/a	n/a	n/a
634.106	n/a	PROB	317053	n/a	LTP269	ltpFR	14	n/a	n/a	n/a	n/a	n/a	n/a	21	9	8	4	n/a	n/a	n/a	n/a	n/a
636.798	n/a	PROB	318399	n/a	LTP269	ltpFR	14	n/a	n/a	n/a	n/a	n/a	n/a	15	6	6	3	n/a	n/a	n/a	n/a	n/a
640.958	n/a	STOP	320479	n/a	LTP269	ltpFR	14	n/a	n/a	n/a	n/a	n/a	n/a	n/a	n/a	n/a	n/a	n/a	n/a	n/a	n/a	n/a
642.186	n/a	WORD	321093	wordpools/wasnorm_wordpool_less_exclusions.txt	LTP269	ltpFR	14	2	1	CORPORATION	382	n/a	0	n/a	0	0	0	0	0.5869140625	0.422607421875	lower	../fonts/zerothre.ttf
645.2	n/a	START	322600	n/a	LTP269	ltpFR	14	n/a	n/a	n/a	n/a	n/a	n/a	n/a	n/a	n/a	n/a	n/a	n/a	n/a	n/a	n/a
646.102	n/a	PROB	323051	n/a	LTP269	ltpFR	14	n/a	n/a	n/a	n/a	n/a	n/a	18	9	2	7	n/a	n/a	n/a	n/a	n/a
648.074	n/a	PROB	324037	n/a	LTP269	ltpFR	14	n/a	n/a	n/a	n/a	n/a	n/a	13	3	8	2	n/a	n/a	n/a	n/a	n/a
649.78	n/a	PROB	324890	n/a	LTP269	ltpFR	14	n/a	n/a	n/a	n/a	n/a	n/a	21	7	6	8	n/a	n/a	n/a	n/a	n/a
653.2	n/a	STOP	326600	n/a	LTP269	ltpFR	14	n/a	n/a	n/a	n/a	n/a	n/a	n/a	n/a	n/a	n/a	n/a	n/a	n/a	n/a	n/a
654.082	n/a	WORD	327041	wordpools/wasnorm_wordpool_less_exclusions.txt	LTP269	ltpFR	14	2	0	WORKER	1621	n/a	1	n/a	0	0	0	1	0.412841796875	0.57763671875	upper	../fonts/amplitud.ttf
657.094	n/a	START	328547	n/a	LTP269	ltpFR	14	n/a	n/a	n/a	n/a	n/a	n/a	n/a	n/a	n/a	n/a	n/a	n/a	n/a	n/a	n/a
658.28	n/a	PROB	329140	n/a	LTP269	ltpFR	14	n/a	n/a	n/a	n/a	n/a	n/a	6	4	1	1	n/a	n/a	n/a	n/a	n/a
660.306	n/a	PROB	330153	n/a	LTP269	ltpFR	14	n/a	n/a	n/a	n/a	n/a	n/a	14	4	8	2	n/a	n/a	n/a	n/a	n/a
661.996	n/a	PROB	330998	n/a	LTP269	ltpFR	14	n/a	n/a	n/a	n/a	n/a	n/a	14	2	9	3	n/a	n/a	n/a	n/a	n/a
663.864	n/a	STOP	331932	n/a	LTP269	ltpFR	14	n/a	n/a	n/a	n/a	n/a	n/a	n/a	n/a	n/a	n/a	n/a	n/a	n/a	n/a	n/a
666.278	n/a	WORD	333139	wordpools/wasnorm_wordpool_less_exclusions.txt	LTP269	ltpFR	14	2	0	CEILING	265	n/a	1	n/a	0	0	0	1	0.412841796875	0.57763671875	upper	../fonts/amplitud.ttf
669.29	n/a	START	334645	n/a	LTP269	ltpFR	14	n/a	n/a	n/a	n/a	n/a	n/a	n/a	n/a	n/a	n/a	n/a	n/a	n/a	n/a	n/a
670.26	n/a	PROB	335130	n/a	LTP269	ltpFR	14	n/a	n/a	n/a	n/a	n/a	n/a	9	5	2	2	n/a	n/a	n/a	n/a	n/a
672.016	n/a	PROB	336008	n/a	LTP269	ltpFR	14	n/a	n/a	n/a	n/a	n/a	n/a	13	4	4	5	n/a	n/a	n/a	n/a	n/a
674.36	n/a	PROB	337180	n/a	LTP269	ltpFR	14	n/a	n/a	n/a	n/a	n/a	n/a	17	2	7	8	n/a	n/a	n/a	n/a	n/a
676.344	n/a	STOP	338172	n/a	LTP269	ltpFR	14	n/a	n/a	n/a	n/a	n/a	n/a	n/a	n/a	n/a	n/a	n/a	n/a	n/a	n/a	n/a
678.426	n/a	WORD	339213	wordpools/wasnorm_wordpool_less_exclusions.txt	LTP269	ltpFR	14	2	0	POLICE	1098	n/a	1	n/a	0	0	0	1	0.412841796875	0.57763671875	upper	../fonts/amplitud.ttf
681.438	n/a	START	340719	n/a	LTP269	ltpFR	14	n/a	n/a	n/a	n/a	n/a	n/a	n/a	n/a	n/a	n/a	n/a	n/a	n/a	n/a	n/a
682.324	n/a	PROB	341162	n/a	LTP269	ltpFR	14	n/a	n/a	n/a	n/a	n/a	n/a	21	9	3	9	n/a	n/a	n/a	n/a	n/a
684.182	n/a	PROB	342091	n/a	LTP269	ltpFR	14	n/a	n/a	n/a	n/a	n/a	n/a	13	5	4	4	n/a	n/a	n/a	n/a	n/a
686.138	n/a	PROB	343069	n/a	LTP269	ltpFR	14	n/a	n/a	n/a	n/a	n/a	n/a	8	2	2	4	n/a	n/a	n/a	n/a	n/a
687.936	n/a	STOP	343968	n/a	LTP269	ltpFR	14	n/a	n/a	n/a	n/a	n/a	n/a	n/a	n/a	n/a	n/a	n/a	n/a	n/a	n/a	n/a
690.522	n/a	WORD	345261	wordpools/wasnorm_wordpool_less_exclusions.txt	LTP269	ltpFR	14	2	0	SPATULA	1348	n/a	0	n/a	0	0	0	1	0.412841796875	0.57763671875	upper	../fonts/amplitud.ttf
693.534	n/a	START	346767	n/a	LTP269	ltpFR	14	n/a	n/a	n/a	n/a	n/a	n/a	n/a	n/a	n/a	n/a	n/a	n/a	n/a	n/a	n/a
694.704	n/a	PROB	347352	n/a	LTP269	ltpFR	14	n/a	n/a	n/a	n/a	n/a	n/a	13	7	5	1	n/a	n/a	n/a	n/a	n/a
696.242	n/a	PROB	348121	n/a	LTP269	ltpFR	14	n/a	n/a	n/a	n/a	n/a	n/a	13	4	5	4	n/a	n/a	n/a	n/a	n/a
697.934	n/a	PROB	348967	n/a	LTP269	ltpFR	14	n/a	n/a	n/a	n/a	n/a	n/a	13	1	9	3	n/a	n/a	n/a	n/a	n/a
701.202	n/a	STOP	350601	n/a	LTP269	ltpFR	14	n/a	n/a	n/a	n/a	n/a	n/a	n/a	n/a	n/a	n/a	n/a	n/a	n/a	n/a	n/a
702.55	n/a	WORD	351275	wordpools/wasnorm_wordpool_less_exclusions.txt	LTP269	ltpFR	14	2	0	SCRIBBLE	1256	n/a	0	n/a	0	0	0	1	0.412841796875	0.57763671875	upper	../fonts/amplitud.ttf
705.562	n/a	START	352781	n/a	LTP269	ltpFR	14	n/a	n/a	n/a	n/a	n/a	n/a	n/a	n/a	n/a	n/a	n/a	n/a	n/a	n/a	n/a
706.548	n/a	PROB	353274	n/a	LTP269	ltpFR	14	n/a	n/a	n/a	n/a	n/a	n/a	15	2	6	7	n/a	n/a	n/a	n/a	n/a
707.986	n/a	PROB	353993	n/a	LTP269	ltpFR	14	n/a	n/a	n/a	n/a	n/a	n/a	19	9	7	3	n/a	n/a	n/a	n/a	n/a
709.36	n/a	PROB	354680	n/a	LTP269	ltpFR	14	n/a	n/a	n/a	n/a	n/a	n/a	16	2	7	7	n/a	n/a	n/a	n/a	n/a
713.562	n/a	STOP	356781	n/a	LTP269	ltpFR	14	n/a	n/a	n/a	n/a	n/a	n/a	n/a	n/a	n/a	n/a	n/a	n/a	n/a	n/a	n/a
714.746	n/a	WORD	357373	wordpools/wasnorm_wordpool_less_exclusions.txt	LTP269	ltpFR	14	2	1	SAW	1239	n/a	0	n/a	0	0	0	0	0.5869140625	0.422607421875	lower	../fonts/zerothre.ttf
717.76	n/a	START	358880	n/a	LTP269	ltpFR	14	n/a	n/a	n/a	n/a	n/a	n/a	n/a	n/a	n/a	n/a	n/a	n/a	n/a	n/a	n/a
718.762	n/a	PROB	359381	n/a	LTP269	ltpFR	14	n/a	n/a	n/a	n/a	n/a	n/a	15	6	8	1	n/a	n/a	n/a	n/a	n/a
720.804	n/a	PROB	360402	n/a	LTP269	ltpFR	14	n/a	n/a	n/a	n/a	n/a	n/a	16	3	6	7	n/a	n/a	n/a	n/a	n/a
722.526	n/a	PROB	361263	n/a	LTP269	ltpFR	14	n/a	n/a	n/a	n/a	n/a	n/a	17	8	3	6	n/a	n/a	n/a	n/a	n/a
724.794	n/a	STOP	362397	n/a	LTP269	ltpFR	14	n/a	n/a	n/a	n/a	n/a	n/a	n/a	n/a	n/a	n/a	n/a	n/a	n/a	n/a	n/a
726.676	n/a	WORD	363338	wordpools/wasnorm_wordpool_less_exclusions.txt	LTP269	ltpFR	14	2	1	LAPEL	800	n/a	0	n/a	0	0	0	0	0.5869140625	0.422607421875	lower	../fonts/zerothre.ttf
729.688	n/a	START	364844	n/a	LTP269	ltpFR	14	n/a	n/a	n/a	n/a	n/a	n/a	n/a	n/a	n/a	n/a	n/a	n/a	n/a	n/a	n/a
730.706	n/a	PROB	365353	n/a	LTP269	ltpFR	14	n/a	n/a	n/a	n/a	n/a	n/a	19	5	7	7	n/a	n/a	n/a	n/a	n/a
732.782	n/a	PROB	366391	n/a	LTP269	ltpFR	14	n/a	n/a	n/a	n/a	n/a	n/a	17	4	8	5	n/a	n/a	n/a	n/a	n/a
737.688	n/a	STOP	368844	n/a	LTP269	ltpFR	14	n/a	n/a	n/a	n/a	n/a	n/a	n/a	n/a	n/a	n/a	n/a	n/a	n/a	n/a	n/a
738.672	n/a	WORD	369336	wordpools/wasnorm_wordpool_less_exclusions.txt	LTP269	ltpFR	14	2	1	PEN	1041	n/a	0	n/a	0	0	0	0	0.5869140625	0.422607421875	lower	../fonts/zerothre.ttf
741.684	n/a	START	370842	n/a	LTP269	ltpFR	14	n/a	n/a	n/a	n/a	n/a	n/a	n/a	n/a	n/a	n/a	n/a	n/a	n/a	n/a	n/a
742.586	n/a	PROB	371293	n/a	LTP269	ltpFR	14	n/a	n/a	n/a	n/a	n/a	n/a	8	1	6	1	n/a	n/a	n/a	n/a	n/a
743.958	n/a	PROB	371979	n/a	LTP269	ltpFR	14	n/a	n/a	n/a	n/a	n/a	n/a	14	4	7	3	n/a	n/a	n/a	n/a	n/a
745.414	n/a	PROB	372707	n/a	LTP269	ltpFR	14	n/a	n/a	n/a	n/a	n/a	n/a	21	6	8	7	n/a	n/a	n/a	n/a	n/a
748.356	n/a	STOP	374178	n/a	LTP269	ltpFR	14	n/a	n/a	n/a	n/a	n/a	n/a	n/a	n/a	n/a	n/a	n/a	n/a	n/a	n/a	n/a
750.818	n/a	WORD	375409	wordpools/wasnorm_wordpool_less_exclusions.txt	LTP269	ltpFR	14	2	1	JUNGLE	764	n/a	1	n/a	0	0	0	0	0.5869140625	0.422607421875	lower	../fonts/zerothre.ttf
753.83	n/a	START	376915	n/a	LTP269	ltpFR	14	n/a	n/a	n/a	n/a	n/a	n/a	n/a	n/a	n/a	n/a	n/a	n/a	n/a	n/a	n/a
754.65	n/a	PROB	377325	n/a	LTP269	ltpFR	14	n/a	n/a	n/a	n/a	n/a	n/a	12	4	5	3	n/a	n/a	n/a	n/a	n/a
757.444	n/a	PROB	378722	n/a	LTP269	ltpFR	14	n/a	n/a	n/a	n/a	n/a	n/a	13	1	7	5	n/a	n/a	n/a	n/a	n/a
759.2	n/a	PROB	379600	n/a	LTP269	ltpFR	14	n/a	n/a	n/a	n/a	n/a	n/a	9	5	1	3	n/a	n/a	n/a	n/a	n/a
760.588	n/a	STOP	380294	n/a	LTP269	ltpFR	14	n/a	n/a	n/a	n/a	n/a	n/a	n/a	n/a	n/a	n/a	n/a	n/a	n/a	n/a	n/a
763.016	n/a	WORD	381508	wordpools/wasnorm_wordpool_less_exclusions.txt	LTP269	ltpFR	14	2	0	GORILLA	650	n/a	1	n/a	0	0	0	1	0.412841796875	0.57763671875	upper	../fonts/amplitud.ttf
766.028	n/a	START	383014	n/a	LTP269	ltpFR	14	n/a	n/a	n/a	n/a	n/a	n/a	n/a	n/a	n/a	n/a	n/a	n/a	n/a	n/a	n/a
766.964	n/a	PROB	383482	n/a	LTP269	ltpFR	14	n/a	n/a	n/a	n/a	n/a	n/a	13	1	4	8	n/a	n/a	n/a	n/a	n/a
768.954	n/a	PROB	384477	n/a	LTP269	ltpFR	14	n/a	n/a	n/a	n/a	n/a	n/a	9	2	2	5	n/a	n/a	n/a	n/a	n/a
770.494	n/a	PROB	385247	n/a	LTP269	ltpFR	14	n/a	n/a	n/a	n/a	n/a	n/a	6	2	3	1	n/a	n/a	n/a	n/a	n/a
772.526	n/a	STOP	386263	n/a	LTP269	ltpFR	14	n/a	n/a	n/a	n/a	n/a	n/a	n/a	n/a	n/a	n/a	n/a	n/a	n/a	n/a	n/a
774.942	n/a	WORD	387471	wordpools/wasnorm_wordpool_less_exclusions.txt	LTP269	ltpFR	14	2	0	SILVERWARE	1308	n/a	0	n/a	0	0	0	1	0.412841796875	0.57763671875	upper	../fonts/amplitud.ttf
777.956	n/a	START	388978	n/a	LTP269	ltpFR	14	n/a	n/a	n/a	n/a	n/a	n/a	n/a	n/a	n/a	n/a	n/a	n/a	n/a	n/a	n/a
778.826	n/a	PROB	389413	n/a	LTP269	ltpFR	14	n/a	n/a	n/a	n/a	n/a	n/a	21	5	9	7	n/a	n/a	n/a	n/a	n/a
785.278	n/a	STOP	392639	n/a	LTP269	ltpFR	14	n/a	n/a	n/a	n/a	n/a	n/a	n/a	n/a	n/a	n/a	n/a	n/a	n/a	n/a	n/a
787.142	n/a	WORD	393571	wordpools/wasnorm_wordpool_less_exclusions.txt	LTP269	ltpFR	14	2	0	ELBOW	520	n/a	0	n/a	0	0	0	1	0.412841796875	0.57763671875	upper	../fonts/amplitud.ttf
790.152	n/a	START	395076	n/a	LTP269	ltpFR	14	n/a	n/a	n/a	n/a	n/a	n/a	n/a	n/a	n/a	n/a	n/a	n/a	n/a	n/a	n/a
791.224	n/a	PROB	395612	n/a	LTP269	ltpFR	14	n/a	n/a	n/a	n/a	n/a	n/a	12	2	7	3	n/a	n/a	n/a	n/a	n/a
792.444	n/a	PROB	396222	n/a	LTP269	ltpFR	14	n/a	n/a	n/a	n/a	n/a	n/a	21	5	7	9	n/a	n/a	n/a	n/a	n/a
794.452	n/a	PROB	397226	n/a	LTP269	ltpFR	14	n/a	n/a	n/a	n/a	n/a	n/a	6	2	3	1	n/a	n/a	n/a	n/a	n/a
795.974	n/a	PROB	397987	n/a	LTP269	ltpFR	14	n/a	n/a	n/a	n/a	n/a	n/a	18	9	7	2	n/a	n/a	n/a	n/a	n/a
797.766	n/a	STOP	398883	n/a	LTP269	ltpFR	14	n/a	n/a	n/a	n/a	n/a	n/a	n/a	n/a	n/a	n/a	n/a	n/a	n/a	n/a	n/a
800.008	n/a	REC_START	400004	n/a	LTP269	ltpFR	14	2	n/a	n/a	n/a	n/a	n/a	n/a	0	0	0	n/a	n/a	n/a	n/a	n/a
807.618	n/a	REC_WORD	403809	wordpools/wasnorm_wordpool_less_exclusions.txt	LTP269	ltpFR	14	2	0	SILVERWARE	1308	n/a	0	n/a	0	0	0	n/a	n/a	n/a	n/a	n/a
811.986	n/a	REC_WORD	405993	wordpools/wasnorm_wordpool_less_exclusions.txt	LTP269	ltpFR	14	2	0	GORILLA	650	n/a	1	n/a	0	0	0	n/a	n/a	n/a	n/a	n/a
813.19	n/a	REC_WORD	406595	wordpools/wasnorm_wordpool_less_exclusions.txt	LTP269	ltpFR	14	2	1	JUNGLE	764	n/a	1	n/a	0	0	0	n/a	n/a	n/a	n/a	n/a
814.964	n/a	REC_WORD	407482	wordpools/wasnorm_wordpool_less_exclusions.txt	LTP269	ltpFR	14	2	1	CUFF	423	n/a	0	n/a	0	0	0	n/a	n/a	n/a	n/a	n/a
815.686	n/a	REC_WORD	407843	wordpools/wasnorm_wordpool_less_exclusions.txt	LTP269	ltpFR	14	2	1	BUSH	202	n/a	1	n/a	0	0	0	n/a	n/a	n/a	n/a	n/a
818.106	n/a	REC_WORD	409053	wordpools/wasnorm_wordpool_less_exclusions.txt	LTP269	ltpFR	14	2	1	POLITICIAN	1099	n/a	1	n/a	0	0	0	n/a	n/a	n/a	n/a	n/a
821.102	n/a	REC_WORD	410551	wordpools/wasnorm_wordpool_less_exclusions.txt	LTP269	ltpFR	14	2	1	CORPORATION	382	n/a	0	n/a	0	0	0	n/a	n/a	n/a	n/a	n/a
823.272	n/a	REC_WORD	411636	wordpools/wasnorm_wordpool_less_exclusions.txt	LTP269	ltpFR	14	2	0	WORKER	1621	n/a	1	n/a	0	0	0	n/a	n/a	n/a	n/a	n/a
828.18	n/a	REC_WORD	414090	wordpools/wasnorm_wordpool_less_exclusions.txt	LTP269	ltpFR	14	2	0	CEILING	265	n/a	1	n/a	0	0	0	n/a	n/a	n/a	n/a	n/a
830.418	n/a	REC_WORD	415209	wordpools/wasnorm_wordpool_less_exclusions.txt	LTP269	ltpFR	14	2	0	POLICE	1098	n/a	1	n/a	0	0	0	n/a	n/a	n/a	n/a	n/a
834.526	n/a	REC_WORD	417263	wordpools/wasnorm_wordpool_less_exclusions.txt	LTP269	ltpFR	14	2	1	LAPEL	800	n/a	0	n/a	0	0	0	n/a	n/a	n/a	n/a	n/a
835.292	n/a	REC_WORD	417646	wordpools/wasnorm_wordpool_less_exclusions.txt	LTP269	ltpFR	14	2	0	SCRIBBLE	1256	n/a	0	n/a	0	0	0	n/a	n/a	n/a	n/a	n/a
836.85	n/a	REC_WORD	418425	wordpools/wasnorm_wordpool_less_exclusions.txt	LTP269	ltpFR	14	2	0	SPATULA	1348	n/a	0	n/a	0	0	0	n/a	n/a	n/a	n/a	n/a
840.858	n/a	REC_WORD	420429	wordpools/wasnorm_wordpool_less_exclusions.txt	LTP269	ltpFR	14	2	1	PEN	1041	n/a	0	n/a	0	0	0	n/a	n/a	n/a	n/a	n/a
846.408	n/a	REC_WORD	423204	wordpools/wasnorm_wordpool_less_exclusions.txt	LTP269	ltpFR	14	2	1	LAPEL	800	n/a	0	n/a	0	0	0	n/a	n/a	n/a	n/a	n/a
879.978	n/a	WORD	439989	wordpools/wasnorm_wordpool_less_exclusions.txt	LTP269	ltpFR	14	3	0	ORANGE	980	n/a	0	n/a	0	0	0	1	0.412841796875	0.57763671875	upper	../fonts/amplitud.ttf
884.126	n/a	WORD	442063	wordpools/wasnorm_wordpool_less_exclusions.txt	LTP269	ltpFR	14	3	0	JAR	750	n/a	0	n/a	0	0	0	1	0.412841796875	0.57763671875	upper	../fonts/amplitud.ttf
888.094	n/a	WORD	444047	wordpools/wasnorm_wordpool_less_exclusions.txt	LTP269	ltpFR	14	3	1	CARTON	251	n/a	0	n/a	0	0	0	0	0.5869140625	0.422607421875	lower	../fonts/zerothre.ttf
892.026	n/a	WORD	446013	wordpools/wasnorm_wordpool_less_exclusions.txt	LTP269	ltpFR	14	3	1	BLUEBERRY	140	n/a	1	n/a	0	0	0	0	0.5869140625	0.422607421875	lower	../fonts/zerothre.ttf
896.024	n/a	WORD	448012	wordpools/wasnorm_wordpool_less_exclusions.txt	LTP269	ltpFR	14	3	1	SNOB	1335	n/a	1	n/a	0	0	0	0	0.5869140625	0.422607421875	lower	../fonts/zerothre.ttf
899.988	n/a	WORD	449994	wordpools/wasnorm_wordpool_less_exclusions.txt	LTP269	ltpFR	14	3	1	KNUCKLE	789	n/a	0	n/a	0	0	0	0	0.5869140625	0.422607421875	lower	../fonts/zerothre.ttf
904.038	n/a	WORD	452019	wordpools/wasnorm_wordpool_less_exclusions.txt	LTP269	ltpFR	14	3	0	MOUNTAIN	924	n/a	1	n/a	0	0	0	1	0.412841796875	0.57763671875	upper	../fonts/amplitud.ttf
908.154	n/a	WORD	454077	wordpools/wasnorm_wordpool_less_exclusions.txt	LTP269	ltpFR	14	3	0	CLIFF	322	n/a	1	n/a	0	0	0	1	0.412841796875	0.57763671875	upper	../fonts/amplitud.ttf
912.17	n/a	WORD	456085	wordpools/wasnorm_wordpool_less_exclusions.txt	LTP269	ltpFR	14	3	0	METEOR	889	n/a	1	n/a	0	0	0	1	0.412841796875	0.57763671875	upper	../fonts/amplitud.ttf
916.018	n/a	WORD	458009	wordpools/wasnorm_wordpool_less_exclusions.txt	LTP269	ltpFR	14	3	0	ASTRONAUT	51	n/a	1	n/a	0	0	0	1	0.412841796875	0.57763671875	upper	../fonts/amplitud.ttf
920.1	n/a	WORD	460050	wordpools/wasnorm_wordpool_less_exclusions.txt	LTP269	ltpFR	14	3	0	BARTENDER	92	n/a	1	n/a	0	0	0	1	0.412841796875	0.57763671875	upper	../fonts/amplitud.ttf
924.132	n/a	WORD	462066	wordpools/wasnorm_wordpool_less_exclusions.txt	LTP269	ltpFR	14	3	0	FOUNTAIN	597	n/a	1	n/a	0	0	0	1	0.412841796875	0.57763671875	upper	../fonts/amplitud.ttf
928.148	n/a	WORD	464074	wordpools/wasnorm_wordpool_less_exclusions.txt	LTP269	ltpFR	14	3	1	THUMB	1462	n/a	0	n/a	0	0	0	0	0.5869140625	0.422607421875	lower	../fonts/zerothre.ttf
932.246	n/a	WORD	466123	wordpools/wasnorm_wordpool_less_exclusions.txt	LTP269	ltpFR	14	3	1	JAW	751	n/a	0	n/a	0	0	0	0	0.5869140625	0.422607421875	lower	../fonts/zerothre.ttf
936.276	n/a	WORD	468138	wordpools/wasnorm_wordpool_less_exclusions.txt	LTP269	ltpFR	14	3	1	KNEE	784	n/a	0	n/a	0	0	0	0	0.5869140625	0.422607421875	lower	../fonts/zerothre.ttf
940.226	n/a	WORD	470113	wordpools/wasnorm_wordpool_less_exclusions.txt	LTP269	ltpFR	14	3	1	RAM	1165	n/a	1	n/a	0	0	0	0	0.5869140625	0.422607421875	lower	../fonts/zerothre.ttf
943.238	n/a	START	471619	n/a	LTP269	ltpFR	14	n/a	n/a	n/a	n/a	n/a	n/a	n/a	n/a	n/a	n/a	n/a	n/a	n/a	n/a	n/a
944.258	n/a	PROB	472129	n/a	LTP269	ltpFR	14	n/a	n/a	n/a	n/a	n/a	n/a	12	7	4	1	n/a	n/a	n/a	n/a	n/a
946.4	n/a	PROB	473200	n/a	LTP269	ltpFR	14	n/a	n/a	n/a	n/a	n/a	n/a	23	8	8	7	n/a	n/a	n/a	n/a	n/a
949.492	n/a	PROB	474746	n/a	LTP269	ltpFR	14	n/a	n/a	n/a	n/a	n/a	n/a	16	1	9	5	n/a	n/a	n/a	n/a	n/a
951.486	n/a	PROB	475743	n/a	LTP269	ltpFR	14	n/a	n/a	n/a	n/a	n/a	n/a	18	6	4	8	n/a	n/a	n/a	n/a	n/a
953.592	n/a	PROB	476796	n/a	LTP269	ltpFR	14	n/a	n/a	n/a	n/a	n/a	n/a	9	7	1	1	n/a	n/a	n/a	n/a	n/a
954.864	n/a	PROB	477432	n/a	LTP269	ltpFR	14	n/a	n/a	n/a	n/a	n/a	n/a	20	5	8	7	n/a	n/a	n/a	n/a	n/a
956.438	n/a	PROB	478219	n/a	LTP269	ltpFR	14	n/a	n/a	n/a	n/a	n/a	n/a	10	1	1	8	n/a	n/a	n/a	n/a	n/a
957.646	n/a	STOP	478823	n/a	LTP269	ltpFR	14	n/a	n/a	n/a	n/a	n/a	n/a	n/a	n/a	n/a	n/a	n/a	n/a	n/a	n/a	n/a
961.108	n/a	REC_START	480554	n/a	LTP269	ltpFR	14	3	n/a	n/a	n/a	n/a	n/a	n/a	0	0	0	n/a	n/a	n/a	n/a	n/a
969.97	n/a	REC_WORD	484985	wordpools/wasnorm_wordpool_less_exclusions.txt	LTP269	ltpFR	14	3	0	ORANGE	980	n/a	0	n/a	0	0	0	n/a	n/a	n/a	n/a	n/a
971.694	n/a	REC_WORD	485847	wordpools/wasnorm_wordpool_less_exclusions.txt	LTP269	ltpFR	14	3	0	JAR	750	n/a	0	n/a	0	0	0	n/a	n/a	n/a	n/a	n/a
972.97	n/a	REC_WORD	486485	wordpools/wasnorm_wordpool_less_exclusions.txt	LTP269	ltpFR	14	3	1	CARTON	251	n/a	0	n/a	0	0	0	n/a	n/a	n/a	n/a	n/a
974.05	n/a	REC_WORD	487025	wordpools/wasnorm_wordpool_less_exclusions.txt	LTP269	ltpFR	14	3	1	BLUEBERRY	140	n/a	1	n/a	0	0	0	n/a	n/a	n/a	n/a	n/a
975.048	n/a	REC_WORD	487524	wordpools/wasnorm_wordpool_less_exclusions.txt	LTP269	ltpFR	14	3	1	SNOB	1335	n/a	1	n/a	0	0	0	n/a	n/a	n/a	n/a	n/a
986.846	n/a	REC_WORD	493423	wordpools/wasnorm_wordpool_less_exclusions.txt	LTP269	ltpFR	14	3	0	ELBOW	520	n/a	0	n/a	0	0	0	n/a	n/a	n/a	n/a	n/a
987.678	n/a	REC_WORD	493839	wordpools/wasnorm_wordpool_less_exclusions.txt	LTP269	ltpFR	14	3	0	MOUNTAIN	924	n/a	1	n/a	0	0	0	n/a	n/a	n/a	n/a	n/a
991.016	n/a	REC_WORD	495508	wordpools/wasnorm_wordpool_less_exclusions.txt	LTP269	ltpFR	14	3	0	CLIFF	322	n/a	1	n/a	0	0	0	n/a	n/a	n/a	n/a	n/a
992.062	n/a	REC_WORD	496031	wordpools/wasnorm_wordpool_less_exclusions.txt	LTP269	ltpFR	14	3	0	METEOR	889	n/a	1	n/a	0	0	0	n/a	n/a	n/a	n/a	n/a
993.392	n/a	REC_WORD	496696	wordpools/wasnorm_wordpool_less_exclusions.txt	LTP269	ltpFR	14	3	0	ASTRONAUT	51	n/a	1	n/a	0	0	0	n/a	n/a	n/a	n/a	n/a
994.692	n/a	REC_WORD	497346	wordpools/wasnorm_wordpool_less_exclusions.txt	LTP269	ltpFR	14	3	0	BARTENDER	92	n/a	1	n/a	0	0	0	n/a	n/a	n/a	n/a	n/a
995.962	n/a	REC_WORD	497981	wordpools/wasnorm_wordpool_less_exclusions.txt	LTP269	ltpFR	14	3	1	THUMB	1462	n/a	0	n/a	0	0	0	n/a	n/a	n/a	n/a	n/a
997.174	n/a	REC_WORD	498587	wordpools/wasnorm_wordpool_less_exclusions.txt	LTP269	ltpFR	14	3	0	FOUNTAIN	597	n/a	1	n/a	0	0	0	n/a	n/a	n/a	n/a	n/a
1000.492	n/a	REC_WORD	500246	wordpools/wasnorm_wordpool_less_exclusions.txt	LTP269	ltpFR	14	3	1	JAW	751	n/a	0	n/a	0	0	0	n/a	n/a	n/a	n/a	n/a
1002.138	n/a	REC_WORD	501069	wordpools/wasnorm_wordpool_less_exclusions.txt	LTP269	ltpFR	14	3	1	KNEE	784	n/a	0	n/a	0	0	0	n/a	n/a	n/a	n/a	n/a
1003.644	n/a	REC_WORD	501822	wordpools/wasnorm_wordpool_less_exclusions.txt	LTP269	ltpFR	14	3	1	RAM	1165	n/a	1	n/a	0	0	0	n/a	n/a	n/a	n/a	n/a
1040.96	n/a	WORD	520480	wordpools/wasnorm_wordpool_less_exclusions.txt	LTP269	ltpFR	14	4	0	CROSS	413	n/a	0	n/a	0	0	0	1	0.412841796875	0.57763671875	upper	../fonts/amplitud.ttf
1044.842	n/a	WORD	522421	wordpools/wasnorm_wordpool_less_exclusions.txt	LTP269	ltpFR	14	4	0	LEAF	808	n/a	0	n/a	0	0	0	1	0.412841796875	0.57763671875	upper	../fonts/amplitud.ttf
1048.774	n/a	WORD	524387	wordpools/wasnorm_wordpool_less_exclusions.txt	LTP269	ltpFR	14	4	0	VICTOR	1563	n/a	1	n/a	0	0	0	1	0.412841796875	0.57763671875	upper	../fonts/amplitud.ttf
1052.838	n/a	WORD	526419	wordpools/wasnorm_wordpool_less_exclusions.txt	LTP269	ltpFR	14	4	0	SPIT	1354	n/a	0	n/a	0	0	0	1	0.412841796875	0.57763671875	upper	../fonts/amplitud.ttf
1057.056	n/a	WORD	528528	wordpools/wasnorm_wordpool_less_exclusions.txt	LTP269	ltpFR	14	4	1	PUPPY	1144	n/a	1	n/a	0	0	0	0	0.5869140625	0.422607421875	lower	../fonts/zerothre.ttf
1060.938	n/a	WORD	530469	wordpools/wasnorm_wordpool_less_exclusions.txt	LTP269	ltpFR	14	4	1	SOCKET	1340	n/a	0	n/a	0	0	0	0	0.5869140625	0.422607421875	lower	../fonts/zerothre.ttf
1065.088	n/a	WORD	532544	wordpools/wasnorm_wordpool_less_exclusions.txt	LTP269	ltpFR	14	4	1	ORNAMENT	985	n/a	0	n/a	0	0	0	0	0.5869140625	0.422607421875	lower	../fonts/zerothre.ttf
1069.134	n/a	WORD	534567	wordpools/wasnorm_wordpool_less_exclusions.txt	LTP269	ltpFR	14	4	1	SHRUB	1299	n/a	1	n/a	0	0	0	0	0.5869140625	0.422607421875	lower	../fonts/zerothre.ttf
1073.282	n/a	WORD	536641	wordpools/wasnorm_wordpool_less_exclusions.txt	LTP269	ltpFR	14	4	0	LASER	801	n/a	1	n/a	0	0	0	1	0.412841796875	0.57763671875	upper	../fonts/amplitud.ttf
1077.5	n/a	WORD	538750	wordpools/wasnorm_wordpool_less_exclusions.txt	LTP269	ltpFR	14	4	0	JOURNAL	760	n/a	0	n/a	0	0	0	1	0.412841796875	0.57763671875	upper	../fonts/amplitud.ttf
1081.716	n/a	WORD	540858	wordpools/wasnorm_wordpool_less_exclusions.txt	LTP269	ltpFR	14	4	0	FREEWAY	603	n/a	1	n/a	0	0	0	1	0.412841796875	0.57763671875	upper	../fonts/amplitud.ttf
1085.732	n/a	WORD	542866	wordpools/wasnorm_wordpool_less_exclusions.txt	LTP269	ltpFR	14	4	0	VOLUNTEER	1577	n/a	1	n/a	0	0	0	1	0.412841796875	0.57763671875	upper	../fonts/amplitud.ttf
1089.68	n/a	WORD	544840	wordpools/wasnorm_wordpool_less_exclusions.txt	LTP269	ltpFR	14	4	1	FOLLOWER	589	n/a	1	n/a	0	0	0	0	0.5869140625	0.422607421875	lower	../fonts/zerothre.ttf
1093.878	n/a	WORD	546939	wordpools/wasnorm_wordpool_less_exclusions.txt	LTP269	ltpFR	14	4	1	CHAMPION	279	n/a	1	n/a	0	0	0	0	0.5869140625	0.422607421875	lower	../fonts/zerothre.ttf
1097.962	n/a	WORD	548981	wordpools/wasnorm_wordpool_less_exclusions.txt	LTP269	ltpFR	14	4	1	PLAZA	1088	n/a	0	n/a	0	0	0	0	0.5869140625	0.422607421875	lower	../fonts/zerothre.ttf
1101.826	n/a	WORD	550913	wordpools/wasnorm_wordpool_less_exclusions.txt	LTP269	ltpFR	14	4	1	DEPARTMENT	449	n/a	0	n/a	0	0	0	0	0.5869140625	0.422607421875	lower	../fonts/zerothre.ttf
1107.516	n/a	REC_START	553758	n/a	LTP269	ltpFR	14	4	n/a	n/a	n/a	n/a	n/a	n/a	0	0	0	n/a	n/a	n/a	n/a	n/a
1111.798	n/a	REC_WORD	555899	wordpools/wasnorm_wordpool_less_exclusions.txt	LTP269	ltpFR	14	4	0	VICTOR	1563	n/a	1	n/a	0	0	0	n/a	n/a	n/a	n/a	n/a
1113.872	n/a	REC_WORD	556936	wordpools/wasnorm_wordpool_less_exclusions.txt	LTP269	ltpFR	14	4	0	LEAF	808	n/a	0	n/a	0	0	0	n/a	n/a	n/a	n/a	n/a
1114.906	n/a	REC_WORD	557453	wordpools/wasnorm_wordpool_less_exclusions.txt	LTP269	ltpFR	14	4	0	CROSS	413	n/a	0	n/a	0	0	0	n/a	n/a	n/a	n/a	n/a
1117.34	n/a	REC_WORD	558670	wordpools/wasnorm_wordpool_less_exclusions.txt	LTP269	ltpFR	14	4	0	SPIT	1354	n/a	0	n/a	0	0	0	n/a	n/a	n/a	n/a	n/a
1118.52	n/a	REC_WORD	559260	wordpools/wasnorm_wordpool_less_exclusions.txt	LTP269	ltpFR	14	4	1	PUPPY	1144	n/a	1	n/a	0	0	0	n/a	n/a	n/a	n/a	n/a
1119.306	n/a	REC_WORD	559653	wordpools/wasnorm_wordpool_less_exclusions.txt	LTP269	ltpFR	14	4	1	SOCKET	1340	n/a	0	n/a	0	0	0	n/a	n/a	n/a	n/a	n/a
1129.222	n/a	REC_WORD	564611	wordpools/wasnorm_wordpool_less_exclusions.txt	LTP269	ltpFR	14	4	0	JOURNAL	760	n/a	0	n/a	0	0	0	n/a	n/a	n/a	n/a	n/a
1131.19	n/a	REC_WORD	565595	wordpools/wasnorm_wordpool_less_exclusions.txt	LTP269	ltpFR	14	4	0	FREEWAY	603	n/a	1	n/a	0	0	0	n/a	n/a	n/a	n/a	n/a
1137.528	n/a	REC_WORD	568764	wordpools/wasnorm_wordpool_less_exclusions.txt	LTP269	ltpFR	14	4	0	VOLUNTEER	1577	n/a	1	n/a	0	0	0	n/a	n/a	n/a	n/a	n/a
1138.89	n/a	REC_WORD	569445	wordpools/wasnorm_wordpool_less_exclusions.txt	LTP269	ltpFR	14	4	1	FOLLOWER	589	n/a	1	n/a	0	0	0	n/a	n/a	n/a	n/a	n/a
1141.346	n/a	REC_WORD	570673	wordpools/wasnorm_wordpool_less_exclusions.txt	LTP269	ltpFR	14	4	1	CHAMPION	279	n/a	1	n/a	0	0	0	n/a	n/a	n/a	n/a	n/a
1142.378	n/a	REC_WORD	571189	wordpools/wasnorm_wordpool_less_exclusions.txt	LTP269	ltpFR	14	4	1	PLAZA	1088	n/a	0	n/a	0	0	0	n/a	n/a	n/a	n/a	n/a
1185.88	n/a	START	592940	n/a	LTP269	ltpFR	14	n/a	n/a	n/a	n/a	n/a	n/a	n/a	n/a	n/a	n/a	n/a	n/a	n/a	n/a	n/a
1187.388	n/a	PROB	593694	n/a	LTP269	ltpFR	14	n/a	n/a	n/a	n/a	n/a	n/a	20	8	6	6	n/a	n/a	n/a	n/a	n/a
1190.75	n/a	PROB	595375	n/a	LTP269	ltpFR	14	n/a	n/a	n/a	n/a	n/a	n/a	8	3	1	4	n/a	n/a	n/a	n/a	n/a
1192.874	n/a	PROB	596437	n/a	LTP269	ltpFR	14	n/a	n/a	n/a	n/a	n/a	n/a	6	1	3	2	n/a	n/a	n/a	n/a	n/a
1194.43	n/a	PROB	597215	n/a	LTP269	ltpFR	14	n/a	n/a	n/a	n/a	n/a	n/a	20	8	4	8	n/a	n/a	n/a	n/a	n/a
1196.338	n/a	PROB	598169	n/a	LTP269	ltpFR	14	n/a	n/a	n/a	n/a	n/a	n/a	18	4	7	7	n/a	n/a	n/a	n/a	n/a
1198.028	n/a	PROB	599014	n/a	LTP269	ltpFR	14	n/a	n/a	n/a	n/a	n/a	n/a	9	2	2	5	n/a	n/a	n/a	n/a	n/a
1201.88	n/a	STOP	600940	n/a	LTP269	ltpFR	14	n/a	n/a	n/a	n/a	n/a	n/a	n/a	n/a	n/a	n/a	n/a	n/a	n/a	n/a	n/a
1202.762	n/a	WORD	601381	wordpools/wasnorm_wordpool_less_exclusions.txt	LTP269	ltpFR	14	5	1	BLOUSE	139	n/a	0	n/a	0	0	0	0	0.5869140625	0.422607421875	lower	../fonts/zerothre.ttf
1205.774	n/a	START	602887	n/a	LTP269	ltpFR	14	n/a	n/a	n/a	n/a	n/a	n/a	n/a	n/a	n/a	n/a	n/a	n/a	n/a	n/a	n/a
1206.828	n/a	PROB	603414	n/a	LTP269	ltpFR	14	n/a	n/a	n/a	n/a	n/a	n/a	14	3	3	8	n/a	n/a	n/a	n/a	n/a
1209.272	n/a	PROB	604636	n/a	LTP269	ltpFR	14	n/a	n/a	n/a	n/a	n/a	n/a	12	9	1	2	n/a	n/a	n/a	n/a	n/a
1210.844	n/a	PROB	605422	n/a	LTP269	ltpFR	14	n/a	n/a	n/a	n/a	n/a	n/a	18	7	2	9	n/a	n/a	n/a	n/a	n/a
1213.302	n/a	PROB	606651	n/a	LTP269	ltpFR	14	n/a	n/a	n/a	n/a	n/a	n/a	23	7	8	8	n/a	n/a	n/a	n/a	n/a
1215.528	n/a	PROB	607764	n/a	LTP269	ltpFR	14	n/a	n/a	n/a	n/a	n/a	n/a	25	4	5	6	n/a	n/a	n/a	n/a	n/a
1218.172	n/a	PROB	609086	n/a	LTP269	ltpFR	14	n/a	n/a	n/a	n/a	n/a	n/a	18	9	2	7	n/a	n/a	n/a	n/a	n/a
1221.676	n/a	STOP	610838	n/a	LTP269	ltpFR	14	n/a	n/a	n/a	n/a	n/a	n/a	n/a	n/a	n/a	n/a	n/a	n/a	n/a	n/a	n/a
1222.972	n/a	WORD	611486	wordpools/wasnorm_wordpool_less_exclusions.txt	LTP269	ltpFR	14	5	1	ZIPPER	1636	n/a	0	n/a	0	0	0	0	0.5869140625	0.422607421875	lower	../fonts/zerothre.ttf
1225.986	n/a	START	612993	n/a	LTP269	ltpFR	14	n/a	n/a	n/a	n/a	n/a	n/a	n/a	n/a	n/a	n/a	n/a	n/a	n/a	n/a	n/a
1227.022	n/a	PROB	613511	n/a	LTP269	ltpFR	14	n/a	n/a	n/a	n/a	n/a	n/a	12	3	6	3	n/a	n/a	n/a	n/a	n/a
1231.606	n/a	PROB	615803	n/a	LTP269	ltpFR	14	n/a	n/a	n/a	n/a	n/a	n/a	16	3	5	8	n/a	n/a	n/a	n/a	n/a
1233.998	n/a	PROB	616999	n/a	LTP269	ltpFR	14	n/a	n/a	n/a	n/a	n/a	n/a	20	9	6	5	n/a	n/a	n/a	n/a	n/a
1235.938	n/a	PROB	617969	n/a	LTP269	ltpFR	14	n/a	n/a	n/a	n/a	n/a	n/a	11	4	4	3	n/a	n/a	n/a	n/a	n/a
1238.348	n/a	PROB	619174	n/a	LTP269	ltpFR	14	n/a	n/a	n/a	n/a	n/a	n/a	8	3	2	3	n/a	n/a	n/a	n/a	n/a
1240.726	n/a	STOP	620363	n/a	LTP269	ltpFR	14	n/a	n/a	n/a	n/a	n/a	n/a	n/a	n/a	n/a	n/a	n/a	n/a	n/a	n/a	n/a
1243.068	n/a	WORD	621534	wordpools/wasnorm_wordpool_less_exclusions.txt	LTP269	ltpFR	14	5	1	ANT	25	n/a	1	n/a	0	0	0	0	0.5869140625	0.422607421875	lower	../fonts/zerothre.ttf
1246.08	n/a	START	623040	n/a	LTP269	ltpFR	14	n/a	n/a	n/a	n/a	n/a	n/a	n/a	n/a	n/a	n/a	n/a	n/a	n/a	n/a	n/a
1247.082	n/a	PROB	623541	n/a	LTP269	ltpFR	14	n/a	n/a	n/a	n/a	n/a	n/a	8	1	6	1	n/a	n/a	n/a	n/a	n/a
1248.404	n/a	PROB	624202	n/a	LTP269	ltpFR	14	n/a	n/a	n/a	n/a	n/a	n/a	10	6	2	2	n/a	n/a	n/a	n/a	n/a
1250.06	n/a	PROB	625030	n/a	LTP269	ltpFR	14	n/a	n/a	n/a	n/a	n/a	n/a	18	4	9	5	n/a	n/a	n/a	n/a	n/a
1252.168	n/a	PROB	626084	n/a	LTP269	ltpFR	14	n/a	n/a	n/a	n/a	n/a	n/a	21	8	6	7	n/a	n/a	n/a	n/a	n/a
1253.94	n/a	PROB	626970	n/a	LTP269	ltpFR	14	n/a	n/a	n/a	n/a	n/a	n/a	8	2	1	5	n/a	n/a	n/a	n/a	n/a
1256.418	n/a	PROB	628209	n/a	LTP269	ltpFR	14	n/a	n/a	n/a	n/a	n/a	n/a	15	7	6	2	n/a	n/a	n/a	n/a	n/a
1258.108	n/a	PROB	629054	n/a	LTP269	ltpFR	14	n/a	n/a	n/a	n/a	n/a	n/a	16	3	6	7	n/a	n/a	n/a	n/a	n/a
1262.08	n/a	STOP	631040	n/a	LTP269	ltpFR	14	n/a	n/a	n/a	n/a	n/a	n/a	n/a	n/a	n/a	n/a	n/a	n/a	n/a	n/a	n/a
1263.194	n/a	WORD	631597	wordpools/wasnorm_wordpool_less_exclusions.txt	LTP269	ltpFR	14	5	1	PLAID	1080	n/a	0	n/a	0	0	0	0	0.5869140625	0.422607421875	lower	../fonts/zerothre.ttf
1266.206	n/a	START	633103	n/a	LTP269	ltpFR	14	n/a	n/a	n/a	n/a	n/a	n/a	n/a	n/a	n/a	n/a	n/a	n/a	n/a	n/a	n/a
1267.276	n/a	PROB	633638	n/a	LTP269	ltpFR	14	n/a	n/a	n/a	n/a	n/a	n/a	12	7	3	2	n/a	n/a	n/a	n/a	n/a
1269.918	n/a	PROB	634959	n/a	LTP269	ltpFR	14	n/a	n/a	n/a	n/a	n/a	n/a	12	1	9	2	n/a	n/a	n/a	n/a	n/a
1272.11	n/a	PROB	636055	n/a	LTP269	ltpFR	14	n/a	n/a	n/a	n/a	n/a	n/a	14	8	2	4	n/a	n/a	n/a	n/a	n/a
1274.152	n/a	PROB	637076	n/a	LTP269	ltpFR	14	n/a	n/a	n/a	n/a	n/a	n/a	15	2	6	7	n/a	n/a	n/a	n/a	n/a
1277.114	n/a	PROB	638557	n/a	LTP269	ltpFR	14	n/a	n/a	n/a	n/a	n/a	n/a	18	6	5	7	n/a	n/a	n/a	n/a	n/a
1279.89	n/a	PROB	639945	n/a	LTP269	ltpFR	14	n/a	n/a	n/a	n/a	n/a	n/a	20	6	6	8	n/a	n/a	n/a	n/a	n/a
1281.968	n/a	STOP	640984	n/a	LTP269	ltpFR	14	n/a	n/a	n/a	n/a	n/a	n/a	n/a	n/a	n/a	n/a	n/a	n/a	n/a	n/a	n/a
1283.354	n/a	WORD	641677	wordpools/wasnorm_wordpool_less_exclusions.txt	LTP269	ltpFR	14	5	1	HAWK	692	n/a	1	n/a	0	0	0	0	0.5869140625	0.422607421875	lower	../fonts/zerothre.ttf
1286.366	n/a	START	643183	n/a	LTP269	ltpFR	14	n/a	n/a	n/a	n/a	n/a	n/a	n/a	n/a	n/a	n/a	n/a	n/a	n/a	n/a	n/a
1287.57	n/a	PROB	643785	n/a	LTP269	ltpFR	14	n/a	n/a	n/a	n/a	n/a	n/a	20	5	6	9	n/a	n/a	n/a	n/a	n/a
1289.778	n/a	PROB	644889	n/a	LTP269	ltpFR	14	n/a	n/a	n/a	n/a	n/a	n/a	11	2	8	1	n/a	n/a	n/a	n/a	n/a
1291.768	n/a	PROB	645884	n/a	LTP269	ltpFR	14	n/a	n/a	n/a	n/a	n/a	n/a	15	5	3	7	n/a	n/a	n/a	n/a	n/a
1293.358	n/a	PROB	646679	n/a	LTP269	ltpFR	14	n/a	n/a	n/a	n/a	n/a	n/a	15	4	2	9	n/a	n/a	n/a	n/a	n/a
1295.198	n/a	PROB	647599	n/a	LTP269	ltpFR	14	n/a	n/a	n/a	n/a	n/a	n/a	19	5	5	9	n/a	n/a	n/a	n/a	n/a
1296.936	n/a	PROB	648468	n/a	LTP269	ltpFR	14	n/a	n/a	n/a	n/a	n/a	n/a	15	2	7	6	n/a	n/a	n/a	n/a	n/a
1302.366	n/a	STOP	651183	n/a	LTP269	ltpFR	14	n/a	n/a	n/a	n/a	n/a	n/a	n/a	n/a	n/a	n/a	n/a	n/a	n/a	n/a	n/a
1303.214	n/a	WORD	651607	wordpools/wasnorm_wordpool_less_exclusions.txt	LTP269	ltpFR	14	5	1	ELEPHANT	523	n/a	1	n/a	0	0	0	0	0.5869140625	0.422607421875	lower	../fonts/zerothre.ttf
1306.226	n/a	START	653113	n/a	LTP269	ltpFR	14	n/a	n/a	n/a	n/a	n/a	n/a	n/a	n/a	n/a	n/a	n/a	n/a	n/a	n/a	n/a
1307.28	n/a	PROB	653640	n/a	LTP269	ltpFR	14	n/a	n/a	n/a	n/a	n/a	n/a	18	9	4	5	n/a	n/a	n/a	n/a	n/a
1309.788	n/a	PROB	654894	n/a	LTP269	ltpFR	14	n/a	n/a	n/a	n/a	n/a	n/a	18	2	7	9	n/a	n/a	n/a	n/a	n/a
1312.914	n/a	PROB	656457	n/a	LTP269	ltpFR	14	n/a	n/a	n/a	n/a	n/a	n/a	25	7	9	9	n/a	n/a	n/a	n/a	n/a
1315.174	n/a	PROB	657587	n/a	LTP269	ltpFR	14	n/a	n/a	n/a	n/a	n/a	n/a	21	6	8	7	n/a	n/a	n/a	n/a	n/a
1317.718	n/a	PROB	658859	n/a	LTP269	ltpFR	14	n/a	n/a	n/a	n/a	n/a	n/a	5	2	1	2	n/a	n/a	n/a	n/a	n/a
1320.328	n/a	PROB	660164	n/a	LTP269	ltpFR	14	n/a	n/a	n/a	n/a	n/a	n/a	11	2	4	5	n/a	n/a	n/a	n/a	n/a
1322.124	n/a	STOP	661062	n/a	LTP269	ltpFR	14	n/a	n/a	n/a	n/a	n/a	n/a	n/a	n/a	n/a	n/a	n/a	n/a	n/a	n/a	n/a
1323.406	n/a	WORD	661703	wordpools/wasnorm_wordpool_less_exclusions.txt	LTP269	ltpFR	14	5	1	SEAL	1262	n/a	1	n/a	0	0	0	0	0.5869140625	0.422607421875	lower	../fonts/zerothre.ttf
1326.418	n/a	START	663209	n/a	LTP269	ltpFR	14	n/a	n/a	n/a	n/a	n/a	n/a	n/a	n/a	n/a	n/a	n/a	n/a	n/a	n/a	n/a
1327.238	n/a	PROB	663619	n/a	LTP269	ltpFR	14	n/a	n/a	n/a	n/a	n/a	n/a	18	5	8	5	n/a	n/a	n/a	n/a	n/a
1329.714	n/a	PROB	664857	n/a	LTP269	ltpFR	14	n/a	n/a	n/a	n/a	n/a	n/a	25	8	8	9	n/a	n/a	n/a	n/a	n/a
1332.976	n/a	PROB	666488	n/a	LTP269	ltpFR	14	n/a	n/a	n/a	n/a	n/a	n/a	14	4	3	7	n/a	n/a	n/a	n/a	n/a
1335.5	n/a	PROB	667750	n/a	LTP269	ltpFR	14	n/a	n/a	n/a	n/a	n/a	n/a	18	9	8	1	n/a	n/a	n/a	n/a	n/a
1337.962	n/a	PROB	668981	n/a	LTP269	ltpFR	14	n/a	n/a	n/a	n/a	n/a	n/a	12	7	3	2	n/a	n/a	n/a	n/a	n/a
1339.352	n/a	PROB	669676	n/a	LTP269	ltpFR	14	n/a	n/a	n/a	n/a	n/a	n/a	14	5	7	2	n/a	n/a	n/a	n/a	n/a
1341.308	n/a	STOP	670654	n/a	LTP269	ltpFR	14	n/a	n/a	n/a	n/a	n/a	n/a	n/a	n/a	n/a	n/a	n/a	n/a	n/a	n/a	n/a
1343.35	n/a	WORD	671675	wordpools/wasnorm_wordpool_less_exclusions.txt	LTP269	ltpFR	14	5	1	FEAST	556	n/a	0	n/a	0	0	0	0	0.5869140625	0.422607421875	lower	../fonts/zerothre.ttf
1346.362	n/a	START	673181	n/a	LTP269	ltpFR	14	n/a	n/a	n/a	n/a	n/a	n/a	n/a	n/a	n/a	n/a	n/a	n/a	n/a	n/a	n/a
1347.432	n/a	PROB	673716	n/a	LTP269	ltpFR	14	n/a	n/a	n/a	n/a	n/a	n/a	17	4	5	8	n/a	n/a	n/a	n/a	n/a
1350.444	n/a	PROB	675222	n/a	LTP269	ltpFR	14	n/a	n/a	n/a	n/a	n/a	n/a	19	3	7	9	n/a	n/a	n/a	n/a	n/a
1352.634	n/a	PROB	676317	n/a	LTP269	ltpFR	14	n/a	n/a	n/a	n/a	n/a	n/a	11	4	4	3	n/a	n/a	n/a	n/a	n/a
1355.076	n/a	PROB	677538	n/a	LTP269	ltpFR	14	n/a	n/a	n/a	n/a	n/a	n/a	10	4	5	1	n/a	n/a	n/a	n/a	n/a
1356.986	n/a	PROB	678493	n/a	LTP269	ltpFR	14	n/a	n/a	n/a	n/a	n/a	n/a	18	8	5	5	n/a	n/a	n/a	n/a	n/a
1358.408	n/a	PROB	679204	n/a	LTP269	ltpFR	14	n/a	n/a	n/a	n/a	n/a	n/a	8	2	5	1	n/a	n/a	n/a	n/a	n/a
1362.364	n/a	STOP	681182	n/a	LTP269	ltpFR	14	n/a	n/a	n/a	n/a	n/a	n/a	n/a	n/a	n/a	n/a	n/a	n/a	n/a	n/a	n/a
1363.444	n/a	WORD	681722	wordpools/wasnorm_wordpool_less_exclusions.txt	LTP269	ltpFR	14	5	1	POPCORN	1104	n/a	0	n/a	0	0	0	0	0.5869140625	0.422607421875	lower	../fonts/zerothre.ttf
1366.456	n/a	START	683228	n/a	LTP269	ltpFR	14	n/a	n/a	n/a	n/a	n/a	n/a	n/a	n/a	n/a	n/a	n/a	n/a	n/a	n/a	n/a
1367.424	n/a	PROB	683712	n/a	LTP269	ltpFR	14	n/a	n/a	n/a	n/a	n/a	n/a	20	2	9	9	n/a	n/a	n/a	n/a	n/a
1369.498	n/a	PROB	684749	n/a	LTP269	ltpFR	14	n/a	n/a	n/a	n/a	n/a	n/a	15	8	3	4	n/a	n/a	n/a	n/a	n/a
1373.312	n/a	PROB	686656	n/a	LTP269	ltpFR	14	n/a	n/a	n/a	n/a	n/a	n/a	17	6	4	7	n/a	n/a	n/a	n/a	n/a
1375.322	n/a	PROB	687661	n/a	LTP269	ltpFR	14	n/a	n/a	n/a	n/a	n/a	n/a	18	8	6	4	n/a	n/a	n/a	n/a	n/a
1376.894	n/a	PROB	688447	n/a	LTP269	ltpFR	14	n/a	n/a	n/a	n/a	n/a	n/a	20	6	7	7	n/a	n/a	n/a	n/a	n/a
1378.952	n/a	PROB	689476	n/a	LTP269	ltpFR	14	n/a	n/a	n/a	n/a	n/a	n/a	13	3	3	7	n/a	n/a	n/a	n/a	n/a
1381.062	n/a	STOP	690531	n/a	LTP269	ltpFR	14	n/a	n/a	n/a	n/a	n/a	n/a	n/a	n/a	n/a	n/a	n/a	n/a	n/a	n/a	n/a
1383.554	n/a	WORD	691777	wordpools/wasnorm_wordpool_less_exclusions.txt	LTP269	ltpFR	14	5	1	LIMOUSINE	824	n/a	0	n/a	0	0	0	0	0.5869140625	0.422607421875	lower	../fonts/zerothre.ttf
1386.566	n/a	START	693283	n/a	LTP269	ltpFR	14	n/a	n/a	n/a	n/a	n/a	n/a	n/a	n/a	n/a	n/a	n/a	n/a	n/a	n/a	n/a
1387.586	n/a	PROB	693793	n/a	LTP269	ltpFR	14	n/a	n/a	n/a	n/a	n/a	n/a	22	8	5	9	n/a	n/a	n/a	n/a	n/a
1389.726	n/a	PROB	694863	n/a	LTP269	ltpFR	14	n/a	n/a	n/a	n/a	n/a	n/a	25	8	8	9	n/a	n/a	n/a	n/a	n/a
1392.906	n/a	PROB	696453	n/a	LTP269	ltpFR	14	n/a	n/a	n/a	n/a	n/a	n/a	14	2	3	9	n/a	n/a	n/a	n/a	n/a
1396.636	n/a	PROB	698318	n/a	LTP269	ltpFR	14	n/a	n/a	n/a	n/a	n/a	n/a	23	8	7	8	n/a	n/a	n/a	n/a	n/a
1402.566	n/a	STOP	701283	n/a	LTP269	ltpFR	14	n/a	n/a	n/a	n/a	n/a	n/a	n/a	n/a	n/a	n/a	n/a	n/a	n/a	n/a	n/a
1403.814	n/a	WORD	701907	wordpools/wasnorm_wordpool_less_exclusions.txt	LTP269	ltpFR	14	5	1	RADIATOR	1156	n/a	0	n/a	0	0	0	0	0.5869140625	0.422607421875	lower	../fonts/zerothre.ttf
1406.826	n/a	START	703413	n/a	LTP269	ltpFR	14	n/a	n/a	n/a	n/a	n/a	n/a	n/a	n/a	n/a	n/a	n/a	n/a	n/a	n/a	n/a
1407.946	n/a	PROB	703973	n/a	LTP269	ltpFR	14	n/a	n/a	n/a	n/a	n/a	n/a	14	7	5	2	n/a	n/a	n/a	n/a	n/a
1410.806	n/a	PROB	705403	n/a	LTP269	ltpFR	14	n/a	n/a	n/a	n/a	n/a	n/a	19	8	3	8	n/a	n/a	n/a	n/a	n/a
1414.688	n/a	PROB	707344	n/a	LTP269	ltpFR	14	n/a	n/a	n/a	n/a	n/a	n/a	12	5	3	4	n/a	n/a	n/a	n/a	n/a
1416.864	n/a	PROB	708432	n/a	LTP269	ltpFR	14	n/a	n/a	n/a	n/a	n/a	n/a	18	8	6	4	n/a	n/a	n/a	n/a	n/a
1418.652	n/a	PROB	709326	n/a	LTP269	ltpFR	14	n/a	n/a	n/a	n/a	n/a	n/a	11	6	1	4	n/a	n/a	n/a	n/a	n/a
1420.21	n/a	PROB	710105	n/a	LTP269	ltpFR	14	n/a	n/a	n/a	n/a	n/a	n/a	18	7	7	4	n/a	n/a	n/a	n/a	n/a
1422.278	n/a	STOP	711139	n/a	LTP269	ltpFR	14	n/a	n/a	n/a	n/a	n/a	n/a	n/a	n/a	n/a	n/a	n/a	n/a	n/a	n/a	n/a
1423.89	n/a	WORD	711945	wordpools/wasnorm_wordpool_less_exclusions.txt	LTP269	ltpFR	14	5	1	HEATER	698	n/a	0	n/a	0	0	0	0	0.5869140625	0.422607421875	lower	../fonts/zerothre.ttf
1426.902	n/a	START	713451	n/a	LTP269	ltpFR	14	n/a	n/a	n/a	n/a	n/a	n/a	n/a	n/a	n/a	n/a	n/a	n/a	n/a	n/a	n/a
1427.738	n/a	PROB	713869	n/a	LTP269	ltpFR	14	n/a	n/a	n/a	n/a	n/a	n/a	14	8	5	1	n/a	n/a	n/a	n/a	n/a
1429.578	n/a	PROB	714789	n/a	LTP269	ltpFR	14	n/a	n/a	n/a	n/a	n/a	n/a	19	3	8	8	n/a	n/a	n/a	n/a	n/a
1431.786	n/a	PROB	715893	n/a	LTP269	ltpFR	14	n/a	n/a	n/a	n/a	n/a	n/a	15	4	8	3	n/a	n/a	n/a	n/a	n/a
1434.482	n/a	PROB	717241	n/a	LTP269	ltpFR	14	n/a	n/a	n/a	n/a	n/a	n/a	9	3	3	3	n/a	n/a	n/a	n/a	n/a
1436.02	n/a	PROB	718010	n/a	LTP269	ltpFR	14	n/a	n/a	n/a	n/a	n/a	n/a	18	3	9	6	n/a	n/a	n/a	n/a	n/a
1438.864	n/a	PROB	719432	n/a	LTP269	ltpFR	14	n/a	n/a	n/a	n/a	n/a	n/a	8	1	2	5	n/a	n/a	n/a	n/a	n/a
1441.4	n/a	STOP	720700	n/a	LTP269	ltpFR	14	n/a	n/a	n/a	n/a	n/a	n/a	n/a	n/a	n/a	n/a	n/a	n/a	n/a	n/a	n/a
1443.732	n/a	WORD	721866	wordpools/wasnorm_wordpool_less_exclusions.txt	LTP269	ltpFR	14	5	1	MOUSE	925	n/a	1	n/a	0	0	0	0	0.5869140625	0.422607421875	lower	../fonts/zerothre.ttf
1446.744	n/a	START	723372	n/a	LTP269	ltpFR	14	n/a	n/a	n/a	n/a	n/a	n/a	n/a	n/a	n/a	n/a	n/a	n/a	n/a	n/a	n/a
1447.782	n/a	PROB	723891	n/a	LTP269	ltpFR	14	n/a	n/a	n/a	n/a	n/a	n/a	19	3	7	9	n/a	n/a	n/a	n/a	n/a
1450.526	n/a	PROB	725263	n/a	LTP269	ltpFR	14	n/a	n/a	n/a	n/a	n/a	n/a	16	5	2	9	n/a	n/a	n/a	n/a	n/a
1452.416	n/a	PROB	726208	n/a	LTP269	ltpFR	14	n/a	n/a	n/a	n/a	n/a	n/a	14	1	8	5	n/a	n/a	n/a	n/a	n/a
1454.458	n/a	PROB	727229	n/a	LTP269	ltpFR	14	n/a	n/a	n/a	n/a	n/a	n/a	19	3	7	9	n/a	n/a	n/a	n/a	n/a
1456.164	n/a	PROB	728082	n/a	LTP269	ltpFR	14	n/a	n/a	n/a	n/a	n/a	n/a	7	3	3	1	n/a	n/a	n/a	n/a	n/a
1459.476	n/a	PROB	729738	n/a	LTP269	ltpFR	14	n/a	n/a	n/a	n/a	n/a	n/a	18	7	3	8	n/a	n/a	n/a	n/a	n/a
1462.746	n/a	STOP	731373	n/a	LTP269	ltpFR	14	n/a	n/a	n/a	n/a	n/a	n/a	n/a	n/a	n/a	n/a	n/a	n/a	n/a	n/a	n/a
1463.894	n/a	WORD	731947	wordpools/wasnorm_wordpool_less_exclusions.txt	LTP269	ltpFR	14	5	1	SPARROW	1347	n/a	1	n/a	0	0	0	0	0.5869140625	0.422607421875	lower	../fonts/zerothre.ttf
1466.906	n/a	START	733453	n/a	LTP269	ltpFR	14	n/a	n/a	n/a	n/a	n/a	n/a	n/a	n/a	n/a	n/a	n/a	n/a	n/a	n/a	n/a
1467.99	n/a	PROB	733995	n/a	LTP269	ltpFR	14	n/a	n/a	n/a	n/a	n/a	n/a	13	6	1	6	n/a	n/a	n/a	n/a	n/a
1470.686	n/a	PROB	735343	n/a	LTP269	ltpFR	14	n/a	n/a	n/a	n/a	n/a	n/a	18	3	7	8	n/a	n/a	n/a	n/a	n/a
1472.71	n/a	PROB	736355	n/a	LTP269	ltpFR	14	n/a	n/a	n/a	n/a	n/a	n/a	12	3	7	2	n/a	n/a	n/a	n/a	n/a
1474.7	n/a	PROB	737350	n/a	LTP269	ltpFR	14	n/a	n/a	n/a	n/a	n/a	n/a	14	1	5	8	n/a	n/a	n/a	n/a	n/a
1476.592	n/a	PROB	738296	n/a	LTP269	ltpFR	14	n/a	n/a	n/a	n/a	n/a	n/a	20	7	2	9	n/a	n/a	n/a	n/a	n/a
1482.906	n/a	STOP	741453	n/a	LTP269	ltpFR	14	n/a	n/a	n/a	n/a	n/a	n/a	n/a	n/a	n/a	n/a	n/a	n/a	n/a	n/a	n/a
1483.986	n/a	WORD	741993	wordpools/wasnorm_wordpool_less_exclusions.txt	LTP269	ltpFR	14	5	1	POLYESTER	1100	n/a	0	n/a	0	0	0	0	0.5869140625	0.422607421875	lower	../fonts/zerothre.ttf
1486.998	n/a	START	743499	n/a	LTP269	ltpFR	14	n/a	n/a	n/a	n/a	n/a	n/a	n/a	n/a	n/a	n/a	n/a	n/a	n/a	n/a	n/a
1487.868	n/a	PROB	743934	n/a	LTP269	ltpFR	14	n/a	n/a	n/a	n/a	n/a	n/a	21	9	8	4	n/a	n/a	n/a	n/a	n/a
1489.874	n/a	PROB	744937	n/a	LTP269	ltpFR	14	n/a	n/a	n/a	n/a	n/a	n/a	9	1	7	1	n/a	n/a	n/a	n/a	n/a
1491.582	n/a	PROB	745791	n/a	LTP269	ltpFR	14	n/a	n/a	n/a	n/a	n/a	n/a	11	5	5	1	n/a	n/a	n/a	n/a	n/a
1493.04	n/a	PROB	746520	n/a	LTP269	ltpFR	14	n/a	n/a	n/a	n/a	n/a	n/a	21	9	7	5	n/a	n/a	n/a	n/a	n/a
1495.598	n/a	PROB	747799	n/a	LTP269	ltpFR	14	n/a	n/a	n/a	n/a	n/a	n/a	22	9	4	9	n/a	n/a	n/a	n/a	n/a
1498.91	n/a	PROB	749455	n/a	LTP269	ltpFR	14	n/a	n/a	n/a	n/a	n/a	n/a	9	1	4	4	n/a	n/a	n/a	n/a	n/a
1502.998	n/a	STOP	751499	n/a	LTP269	ltpFR	14	n/a	n/a	n/a	n/a	n/a	n/a	n/a	n/a	n/a	n/a	n/a	n/a	n/a	n/a	n/a
1503.83	n/a	WORD	751915	wordpools/wasnorm_wordpool_less_exclusions.txt	LTP269	ltpFR	14	5	1	PREACHER	1119	n/a	1	n/a	0	0	0	0	0.5869140625	0.422607421875	lower	../fonts/zerothre.ttf
1506.842	n/a	START	753421	n/a	LTP269	ltpFR	14	n/a	n/a	n/a	n/a	n/a	n/a	n/a	n/a	n/a	n/a	n/a	n/a	n/a	n/a	n/a
1507.996	n/a	PROB	753998	n/a	LTP269	ltpFR	14	n/a	n/a	n/a	n/a	n/a	n/a	11	1	3	7	n/a	n/a	n/a	n/a	n/a
1509.382	n/a	PROB	754691	n/a	LTP269	ltpFR	14	n/a	n/a	n/a	n/a	n/a	n/a	12	7	3	2	n/a	n/a	n/a	n/a	n/a
1510.856	n/a	PROB	755428	n/a	LTP269	ltpFR	14	n/a	n/a	n/a	n/a	n/a	n/a	7	3	1	3	n/a	n/a	n/a	n/a	n/a
1512.462	n/a	PROB	756231	n/a	LTP269	ltpFR	14	n/a	n/a	n/a	n/a	n/a	n/a	11	8	2	1	n/a	n/a	n/a	n/a	n/a
1514.454	n/a	PROB	757227	n/a	LTP269	ltpFR	14	n/a	n/a	n/a	n/a	n/a	n/a	11	5	4	2	n/a	n/a	n/a	n/a	n/a
1517.33	n/a	PROB	758665	n/a	LTP269	ltpFR	14	n/a	n/a	n/a	n/a	n/a	n/a	14	3	4	7	n/a	n/a	n/a	n/a	n/a
1519.37	n/a	PROB	759685	n/a	LTP269	ltpFR	14	n/a	n/a	n/a	n/a	n/a	n/a	14	3	4	7	n/a	n/a	n/a	n/a	n/a
1522.842	n/a	STOP	761421	n/a	LTP269	ltpFR	14	n/a	n/a	n/a	n/a	n/a	n/a	n/a	n/a	n/a	n/a	n/a	n/a	n/a	n/a	n/a
1524.592	n/a	REC_START	762296	n/a	LTP269	ltpFR	14	5	n/a	n/a	n/a	n/a	n/a	n/a	0	0	0	n/a	n/a	n/a	n/a	n/a
1527.24	n/a	REC_WORD	763620	wordpools/wasnorm_wordpool_less_exclusions.txt	LTP269	ltpFR	14	5	1	BLOUSE	139	n/a	0	n/a	0	0	0	n/a	n/a	n/a	n/a	n/a
1528.422	n/a	REC_WORD	764211	wordpools/wasnorm_wordpool_less_exclusions.txt	LTP269	ltpFR	14	5	1	ZIPPER	1636	n/a	0	n/a	0	0	0	n/a	n/a	n/a	n/a	n/a
1529.408	n/a	REC_WORD	764704	wordpools/wasnorm_wordpool_less_exclusions.txt	LTP269	ltpFR	14	5	1	PLAID	1080	n/a	0	n/a	0	0	0	n/a	n/a	n/a	n/a	n/a
1530.394	n/a	REC_WORD	765197	wordpools/wasnorm_wordpool_less_exclusions.txt	LTP269	ltpFR	14	5	1	ANT	25	n/a	1	n/a	0	0	0	n/a	n/a	n/a	n/a	n/a
1534.95	n/a	REC_WORD	767475	wordpools/wasnorm_wordpool_less_exclusions.txt	LTP269	ltpFR	14	5	1	HAWK	692	n/a	1	n/a	0	0	0	n/a	n/a	n/a	n/a	n/a
1536.83	n/a	REC_WORD	768415	wordpools/wasnorm_wordpool_less_exclusions.txt	LTP269	ltpFR	14	5	1	ELEPHANT	523	n/a	1	n/a	0	0	0	n/a	n/a	n/a	n/a	n/a
1538.756	n/a	REC_WORD	769378	wordpools/wasnorm_wordpool_less_exclusions.txt	LTP269	ltpFR	14	5	1	SPARROW	1347	n/a	1	n/a	0	0	0	n/a	n/a	n/a	n/a	n/a
1539.326	n/a	REC_WORD	769663	wordpools/wasnorm_wordpool_less_exclusions.txt	LTP269	ltpFR	14	5	1	SEAL	1262	n/a	1	n/a	0	0	0	n/a	n/a	n/a	n/a	n/a
1540.618	n/a	REC_WORD	770309	wordpools/wasnorm_wordpool_less_exclusions.txt	LTP269	ltpFR	14	5	1	FEAST	556	n/a	0	n/a	0	0	0	n/a	n/a	n/a	n/a	n/a
1541.598	n/a	REC_WORD	770799	wordpools/wasnorm_wordpool_less_exclusions.txt	LTP269	ltpFR	14	5	1	LIMOUSINE	824	n/a	0	n/a	0	0	0	n/a	n/a	n/a	n/a	n/a
1544.504	n/a	REC_WORD	772252	wordpools/wasnorm_wordpool_less_exclusions.txt	LTP269	ltpFR	14	5	1	RADIATOR	1156	n/a	0	n/a	0	0	0	n/a	n/a	n/a	n/a	n/a
1545.898	n/a	REC_WORD	772949	wordpools/wasnorm_wordpool_less_exclusions.txt	LTP269	ltpFR	14	5	1	HEATER	698	n/a	0	n/a	0	0	0	n/a	n/a	n/a	n/a	n/a
1567.56	n/a	REC_WORD	783780	wordpools/wasnorm_wordpool_less_exclusions.txt	LTP269	ltpFR	14	5	1	MOUSE	925	n/a	1	n/a	0	0	0	n/a	n/a	n/a	n/a	n/a
1571.102	n/a	REC_WORD	785551	wordpools/wasnorm_wordpool_less_exclusions.txt	LTP269	ltpFR	14	5	1	POPCORN	1104	n/a	0	n/a	0	0	0	n/a	n/a	n/a	n/a	n/a
1572.158	n/a	REC_WORD	786079	wordpools/wasnorm_wordpool_less_exclusions.txt	LTP269	ltpFR	14	5	1	POLYESTER	1100	n/a	0	n/a	0	0	0	n/a	n/a	n/a	n/a	n/a
1575.168	n/a	REC_WORD	787584	wordpools/wasnorm_wordpool_less_exclusions.txt	LTP269	ltpFR	14	5	1	PREACHER	1119	n/a	1	n/a	0	0	0	n/a	n/a	n/a	n/a	n/a
1602.692	n/a	START	801346	n/a	LTP269	ltpFR	14	n/a	n/a	n/a	n/a	n/a	n/a	n/a	n/a	n/a	n/a	n/a	n/a	n/a	n/a	n/a
1604.198	n/a	PROB	802099	n/a	LTP269	ltpFR	14	n/a	n/a	n/a	n/a	n/a	n/a	15	4	6	5	n/a	n/a	n/a	n/a	n/a
1605.87	n/a	PROB	802935	n/a	LTP269	ltpFR	14	n/a	n/a	n/a	n/a	n/a	n/a	14	2	4	8	n/a	n/a	n/a	n/a	n/a
1607.524	n/a	PROB	803762	n/a	LTP269	ltpFR	14	n/a	n/a	n/a	n/a	n/a	n/a	19	8	7	4	n/a	n/a	n/a	n/a	n/a
1609.338	n/a	STOP	804669	n/a	LTP269	ltpFR	14	n/a	n/a	n/a	n/a	n/a	n/a	n/a	n/a	n/a	n/a	n/a	n/a	n/a	n/a	n/a
1611.542	n/a	WORD	805771	wordpools/wasnorm_wordpool_less_exclusions.txt	LTP269	ltpFR	14	6	0	FRIEND	606	n/a	1	n/a	0	0	0	1	0.412841796875	0.57763671875	upper	../fonts/amplitud.ttf
1614.554	n/a	START	807277	n/a	LTP269	ltpFR	14	n/a	n/a	n/a	n/a	n/a	n/a	n/a	n/a	n/a	n/a	n/a	n/a	n/a	n/a	n/a
1615.756	n/a	PROB	807878	n/a	LTP269	ltpFR	14	n/a	n/a	n/a	n/a	n/a	n/a	18	8	7	3	n/a	n/a	n/a	n/a	n/a
1617.512	n/a	PROB	808756	n/a	LTP269	ltpFR	14	n/a	n/a	n/a	n/a	n/a	n/a	16	1	8	7	n/a	n/a	n/a	n/a	n/a
1619.488	n/a	PROB	809744	n/a	LTP269	ltpFR	14	n/a	n/a	n/a	n/a	n/a	n/a	20	8	3	9	n/a	n/a	n/a	n/a	n/a
1621.442	n/a	STOP	810721	n/a	LTP269	ltpFR	14	n/a	n/a	n/a	n/a	n/a	n/a	n/a	n/a	n/a	n/a	n/a	n/a	n/a	n/a	n/a
1623.702	n/a	WORD	811851	wordpools/wasnorm_wordpool_less_exclusions.txt	LTP269	ltpFR	14	6	0	TOURIST	1488	n/a	1	n/a	0	0	0	1	0.412841796875	0.57763671875	upper	../fonts/amplitud.ttf
1626.716	n/a	START	813358	n/a	LTP269	ltpFR	14	n/a	n/a	n/a	n/a	n/a	n/a	n/a	n/a	n/a	n/a	n/a	n/a	n/a	n/a	n/a
1627.802	n/a	PROB	813901	n/a	LTP269	ltpFR	14	n/a	n/a	n/a	n/a	n/a	n/a	17	8	8	1	n/a	n/a	n/a	n/a	n/a
1629.524	n/a	PROB	814762	n/a	LTP269	ltpFR	14	n/a	n/a	n/a	n/a	n/a	n/a	21	7	6	8	n/a	n/a	n/a	n/a	n/a
1631.518	n/a	PROB	815759	n/a	LTP269	ltpFR	14	n/a	n/a	n/a	n/a	n/a	n/a	14	1	7	6	n/a	n/a	n/a	n/a	n/a
1634.716	n/a	STOP	817358	n/a	LTP269	ltpFR	14	n/a	n/a	n/a	n/a	n/a	n/a	n/a	n/a	n/a	n/a	n/a	n/a	n/a	n/a	n/a
1635.582	n/a	WORD	817791	wordpools/wasnorm_wordpool_less_exclusions.txt	LTP269	ltpFR	14	6	0	ENGINE	535	n/a	1	n/a	0	0	0	1	0.412841796875	0.57763671875	upper	../fonts/amplitud.ttf
1638.596	n/a	START	819298	n/a	LTP269	ltpFR	14	n/a	n/a	n/a	n/a	n/a	n/a	n/a	n/a	n/a	n/a	n/a	n/a	n/a	n/a	n/a
1639.648	n/a	PROB	819824	n/a	LTP269	ltpFR	14	n/a	n/a	n/a	n/a	n/a	n/a	19	9	8	2	n/a	n/a	n/a	n/a	n/a
1642.708	n/a	PROB	821354	n/a	LTP269	ltpFR	14	n/a	n/a	n/a	n/a	n/a	n/a	16	4	3	9	n/a	n/a	n/a	n/a	n/a
1646.596	n/a	STOP	823298	n/a	LTP269	ltpFR	14	n/a	n/a	n/a	n/a	n/a	n/a	n/a	n/a	n/a	n/a	n/a	n/a	n/a	n/a	n/a
1647.814	n/a	WORD	823907	wordpools/wasnorm_wordpool_less_exclusions.txt	LTP269	ltpFR	14	6	0	MUFFIN	929	n/a	0	n/a	0	0	0	1	0.412841796875	0.57763671875	upper	../fonts/amplitud.ttf
1650.826	n/a	START	825413	n/a	LTP269	ltpFR	14	n/a	n/a	n/a	n/a	n/a	n/a	n/a	n/a	n/a	n/a	n/a	n/a	n/a	n/a	n/a
1651.694	n/a	PROB	825847	n/a	LTP269	ltpFR	14	n/a	n/a	n/a	n/a	n/a	n/a	17	3	6	8	n/a	n/a	n/a	n/a	n/a
1654.034	n/a	PROB	827017	n/a	LTP269	ltpFR	14	n/a	n/a	n/a	n/a	n/a	n/a	11	6	3	2	n/a	n/a	n/a	n/a	n/a
1656.228	n/a	PROB	828114	n/a	LTP269	ltpFR	14	n/a	n/a	n/a	n/a	n/a	n/a	18	6	8	4	n/a	n/a	n/a	n/a	n/a
1658.404	n/a	STOP	829202	n/a	LTP269	ltpFR	14	n/a	n/a	n/a	n/a	n/a	n/a	n/a	n/a	n/a	n/a	n/a	n/a	n/a	n/a	n/a
1659.81	n/a	WORD	829905	wordpools/wasnorm_wordpool_less_exclusions.txt	LTP269	ltpFR	14	6	0	PELT	1040	n/a	0	n/a	0	0	0	1	0.412841796875	0.57763671875	upper	../fonts/amplitud.ttf
1662.822	n/a	START	831411	n/a	LTP269	ltpFR	14	n/a	n/a	n/a	n/a	n/a	n/a	n/a	n/a	n/a	n/a	n/a	n/a	n/a	n/a	n/a
1663.874	n/a	PROB	831937	n/a	LTP269	ltpFR	14	n/a	n/a	n/a	n/a	n/a	n/a	8	1	4	4	n/a	n/a	n/a	n/a	n/a
1666.184	n/a	PROB	833092	n/a	LTP269	ltpFR	14	n/a	n/a	n/a	n/a	n/a	n/a	9	6	1	2	n/a	n/a	n/a	n/a	n/a
1670.822	n/a	STOP	835411	n/a	LTP269	ltpFR	14	n/a	n/a	n/a	n/a	n/a	n/a	n/a	n/a	n/a	n/a	n/a	n/a	n/a	n/a	n/a
1671.922	n/a	WORD	835961	wordpools/wasnorm_wordpool_less_exclusions.txt	LTP269	ltpFR	14	6	0	MOAT	903	n/a	1	n/a	0	0	0	1	0.412841796875	0.57763671875	upper	../fonts/amplitud.ttf
1674.934	n/a	START	837467	n/a	LTP269	ltpFR	14	n/a	n/a	n/a	n/a	n/a	n/a	n/a	n/a	n/a	n/a	n/a	n/a	n/a	n/a	n/a
1675.888	n/a	PROB	837944	n/a	LTP269	ltpFR	14	n/a	n/a	n/a	n/a	n/a	n/a	14	3	3	8	n/a	n/a	n/a	n/a	n/a
1677.744	n/a	PROB	838872	n/a	LTP269	ltpFR	14	n/a	n/a	n/a	n/a	n/a	n/a	9	5	1	3	n/a	n/a	n/a	n/a	n/a
1679.418	n/a	PROB	839709	n/a	LTP269	ltpFR	14	n/a	n/a	n/a	n/a	n/a	n/a	12	4	1	7	n/a	n/a	n/a	n/a	n/a
1682.934	n/a	STOP	841467	n/a	LTP269	ltpFR	14	n/a	n/a	n/a	n/a	n/a	n/a	n/a	n/a	n/a	n/a	n/a	n/a	n/a	n/a	n/a
1683.918	n/a	WORD	841959	wordpools/wasnorm_wordpool_less_exclusions.txt	LTP269	ltpFR	14	6	0	PEANUT	1032	n/a	0	n/a	0	0	0	1	0.412841796875	0.57763671875	upper	../fonts/amplitud.ttf
1686.93	n/a	START	843465	n/a	LTP269	ltpFR	14	n/a	n/a	n/a	n/a	n/a	n/a	n/a	n/a	n/a	n/a	n/a	n/a	n/a	n/a	n/a
1688.0	n/a	PROB	844000	n/a	LTP269	ltpFR	14	n/a	n/a	n/a	n/a	n/a	n/a	16	7	6	3	n/a	n/a	n/a	n/a	n/a
1690.292	n/a	PROB	845146	n/a	LTP269	ltpFR	14	n/a	n/a	n/a	n/a	n/a	n/a	17	4	9	5	n/a	n/a	n/a	n/a	n/a
1694.93	n/a	STOP	847465	n/a	LTP269	ltpFR	14	n/a	n/a	n/a	n/a	n/a	n/a	n/a	n/a	n/a	n/a	n/a	n/a	n/a	n/a	n/a
1696.15	n/a	WORD	848075	wordpools/wasnorm_wordpool_less_exclusions.txt	LTP269	ltpFR	14	6	0	CHERRY	293	n/a	0	n/a	0	0	0	1	0.412841796875	0.57763671875	upper	../fonts/amplitud.ttf
1699.162	n/a	START	849581	n/a	LTP269	ltpFR	14	n/a	n/a	n/a	n/a	n/a	n/a	n/a	n/a	n/a	n/a	n/a	n/a	n/a	n/a	n/a
1700.248	n/a	PROB	850124	n/a	LTP269	ltpFR	14	n/a	n/a	n/a	n/a	n/a	n/a	16	5	4	7	n/a	n/a	n/a	n/a	n/a
1701.954	n/a	PROB	850977	n/a	LTP269	ltpFR	14	n/a	n/a	n/a	n/a	n/a	n/a	13	3	4	6	n/a	n/a	n/a	n/a	n/a
1707.16	n/a	STOP	853580	n/a	LTP269	ltpFR	14	n/a	n/a	n/a	n/a	n/a	n/a	n/a	n/a	n/a	n/a	n/a	n/a	n/a	n/a	n/a
1708.194	n/a	WORD	854097	wordpools/wasnorm_wordpool_less_exclusions.txt	LTP269	ltpFR	14	6	0	TANGERINE	1431	n/a	0	n/a	0	0	0	1	0.412841796875	0.57763671875	upper	../fonts/amplitud.ttf
1711.206	n/a	START	855603	n/a	LTP269	ltpFR	14	n/a	n/a	n/a	n/a	n/a	n/a	n/a	n/a	n/a	n/a	n/a	n/a	n/a	n/a	n/a
1712.21	n/a	PROB	856105	n/a	LTP269	ltpFR	14	n/a	n/a	n/a	n/a	n/a	n/a	15	5	6	4	n/a	n/a	n/a	n/a	n/a
1713.464	n/a	PROB	856732	n/a	LTP269	ltpFR	14	n/a	n/a	n/a	n/a	n/a	n/a	13	9	3	1	n/a	n/a	n/a	n/a	n/a
1715.238	n/a	PROB	857619	n/a	LTP269	ltpFR	14	n/a	n/a	n/a	n/a	n/a	n/a	11	3	3	5	n/a	n/a	n/a	n/a	n/a
1717.832	n/a	STOP	858916	n/a	LTP269	ltpFR	14	n/a	n/a	n/a	n/a	n/a	n/a	n/a	n/a	n/a	n/a	n/a	n/a	n/a	n/a	n/a
1720.172	n/a	WORD	860086	wordpools/wasnorm_wordpool_less_exclusions.txt	LTP269	ltpFR	14	6	0	SUITE	1404	n/a	1	n/a	0	0	0	1	0.412841796875	0.57763671875	upper	../fonts/amplitud.ttf
1723.186	n/a	START	861593	n/a	LTP269	ltpFR	14	n/a	n/a	n/a	n/a	n/a	n/a	n/a	n/a	n/a	n/a	n/a	n/a	n/a	n/a	n/a
1724.272	n/a	PROB	862136	n/a	LTP269	ltpFR	14	n/a	n/a	n/a	n/a	n/a	n/a	15	7	2	6	n/a	n/a	n/a	n/a	n/a
1727.098	n/a	PROB	863549	n/a	LTP269	ltpFR	14	n/a	n/a	n/a	n/a	n/a	n/a	13	5	1	7	n/a	n/a	n/a	n/a	n/a
1731.186	n/a	STOP	865593	n/a	LTP269	ltpFR	14	n/a	n/a	n/a	n/a	n/a	n/a	n/a	n/a	n/a	n/a	n/a	n/a	n/a	n/a	n/a
1732.186	n/a	WORD	866093	wordpools/wasnorm_wordpool_less_exclusions.txt	LTP269	ltpFR	14	6	0	RESORT	1186	n/a	1	n/a	0	0	0	1	0.412841796875	0.57763671875	upper	../fonts/amplitud.ttf
1735.2	n/a	START	867600	n/a	LTP269	ltpFR	14	n/a	n/a	n/a	n/a	n/a	n/a	n/a	n/a	n/a	n/a	n/a	n/a	n/a	n/a	n/a
1736.27	n/a	PROB	868135	n/a	LTP269	ltpFR	14	n/a	n/a	n/a	n/a	n/a	n/a	21	7	5	9	n/a	n/a	n/a	n/a	n/a
1739.212	n/a	PROB	869606	n/a	LTP269	ltpFR	14	n/a	n/a	n/a	n/a	n/a	n/a	10	1	6	3	n/a	n/a	n/a	n/a	n/a
1743.2	n/a	STOP	871600	n/a	LTP269	ltpFR	14	n/a	n/a	n/a	n/a	n/a	n/a	n/a	n/a	n/a	n/a	n/a	n/a	n/a	n/a	n/a
1744.03	n/a	WORD	872015	wordpools/wasnorm_wordpool_less_exclusions.txt	LTP269	ltpFR	14	6	0	PORCH	1106	n/a	1	n/a	0	0	0	1	0.412841796875	0.57763671875	upper	../fonts/amplitud.ttf
1747.042	n/a	START	873521	n/a	LTP269	ltpFR	14	n/a	n/a	n/a	n/a	n/a	n/a	n/a	n/a	n/a	n/a	n/a	n/a	n/a	n/a	n/a
1748.112	n/a	PROB	874056	n/a	LTP269	ltpFR	14	n/a	n/a	n/a	n/a	n/a	n/a	7	3	1	3	n/a	n/a	n/a	n/a	n/a
1750.422	n/a	PROB	875211	n/a	LTP269	ltpFR	14	n/a	n/a	n/a	n/a	n/a	n/a	16	7	1	8	n/a	n/a	n/a	n/a	n/a
1752.298	n/a	PROB	876149	n/a	LTP269	ltpFR	14	n/a	n/a	n/a	n/a	n/a	n/a	7	3	1	3	n/a	n/a	n/a	n/a	n/a
1754.81	n/a	STOP	877405	n/a	LTP269	ltpFR	14	n/a	n/a	n/a	n/a	n/a	n/a	n/a	n/a	n/a	n/a	n/a	n/a	n/a	n/a	n/a
1755.876	n/a	WORD	877938	wordpools/wasnorm_wordpool_less_exclusions.txt	LTP269	ltpFR	14	6	0	GIRAFFE	636	n/a	1	n/a	0	0	0	1	0.412841796875	0.57763671875	upper	../fonts/amplitud.ttf
1758.888	n/a	START	879444	n/a	LTP269	ltpFR	14	n/a	n/a	n/a	n/a	n/a	n/a	n/a	n/a	n/a	n/a	n/a	n/a	n/a	n/a	n/a
1759.74	n/a	PROB	879870	n/a	LTP269	ltpFR	14	n/a	n/a	n/a	n/a	n/a	n/a	14	4	7	3	n/a	n/a	n/a	n/a	n/a
1761.414	n/a	PROB	880707	n/a	LTP269	ltpFR	14	n/a	n/a	n/a	n/a	n/a	n/a	16	7	2	7	n/a	n/a	n/a	n/a	n/a
1764.174	n/a	PROB	882087	n/a	LTP269	ltpFR	14	n/a	n/a	n/a	n/a	n/a	n/a	10	2	3	5	n/a	n/a	n/a	n/a	n/a
1766.162	n/a	STOP	883081	n/a	LTP269	ltpFR	14	n/a	n/a	n/a	n/a	n/a	n/a	n/a	n/a	n/a	n/a	n/a	n/a	n/a	n/a	n/a
1767.788	n/a	WORD	883894	wordpools/wasnorm_wordpool_less_exclusions.txt	LTP269	ltpFR	14	6	0	CREEK	404	n/a	1	n/a	0	0	0	1	0.412841796875	0.57763671875	upper	../fonts/amplitud.ttf
1770.8	n/a	START	885400	n/a	LTP269	ltpFR	14	n/a	n/a	n/a	n/a	n/a	n/a	n/a	n/a	n/a	n/a	n/a	n/a	n/a	n/a	n/a
1771.72	n/a	PROB	885860	n/a	LTP269	ltpFR	14	n/a	n/a	n/a	n/a	n/a	n/a	20	7	8	5	n/a	n/a	n/a	n/a	n/a
1775.35	n/a	PROB	887675	n/a	LTP269	ltpFR	14	n/a	n/a	n/a	n/a	n/a	n/a	9	2	6	1	n/a	n/a	n/a	n/a	n/a
1777.226	n/a	PROB	888613	n/a	LTP269	ltpFR	14	n/a	n/a	n/a	n/a	n/a	n/a	11	3	7	1	n/a	n/a	n/a	n/a	n/a
1778.546	n/a	STOP	889273	n/a	LTP269	ltpFR	14	n/a	n/a	n/a	n/a	n/a	n/a	n/a	n/a	n/a	n/a	n/a	n/a	n/a	n/a	n/a
1779.718	n/a	WORD	889859	wordpools/wasnorm_wordpool_less_exclusions.txt	LTP269	ltpFR	14	6	0	TICKET	1464	n/a	0	n/a	0	0	0	1	0.412841796875	0.57763671875	upper	../fonts/amplitud.ttf
1782.73	n/a	START	891365	n/a	LTP269	ltpFR	14	n/a	n/a	n/a	n/a	n/a	n/a	n/a	n/a	n/a	n/a	n/a	n/a	n/a	n/a	n/a
1783.648	n/a	PROB	891824	n/a	LTP269	ltpFR	14	n/a	n/a	n/a	n/a	n/a	n/a	14	3	5	6	n/a	n/a	n/a	n/a	n/a
1785.372	n/a	PROB	892686	n/a	LTP269	ltpFR	14	n/a	n/a	n/a	n/a	n/a	n/a	19	4	9	6	n/a	n/a	n/a	n/a	n/a
1790.73	n/a	STOP	895365	n/a	LTP269	ltpFR	14	n/a	n/a	n/a	n/a	n/a	n/a	n/a	n/a	n/a	n/a	n/a	n/a	n/a	n/a	n/a
1791.948	n/a	WORD	895974	wordpools/wasnorm_wordpool_less_exclusions.txt	LTP269	ltpFR	14	6	0	DIVER	476	n/a	1	n/a	0	0	0	1	0.412841796875	0.57763671875	upper	../fonts/amplitud.ttf
1794.96	n/a	START	897480	n/a	LTP269	ltpFR	14	n/a	n/a	n/a	n/a	n/a	n/a	n/a	n/a	n/a	n/a	n/a	n/a	n/a	n/a	n/a
1796.098	n/a	PROB	898049	n/a	LTP269	ltpFR	14	n/a	n/a	n/a	n/a	n/a	n/a	25	9	7	9	n/a	n/a	n/a	n/a	n/a
1800.062	n/a	PROB	900031	n/a	LTP269	ltpFR	14	n/a	n/a	n/a	n/a	n/a	n/a	8	3	3	2	n/a	n/a	n/a	n/a	n/a
1802.812	n/a	STOP	901406	n/a	LTP269	ltpFR	14	n/a	n/a	n/a	n/a	n/a	n/a	n/a	n/a	n/a	n/a	n/a	n/a	n/a	n/a	n/a
1804.78	n/a	REC_START	902390	n/a	LTP269	ltpFR	14	6	n/a	n/a	n/a	n/a	n/a	n/a	0	0	0	n/a	n/a	n/a	n/a	n/a
1809.996	n/a	REC_WORD	904998	wordpools/wasnorm_wordpool_less_exclusions.txt	LTP269	ltpFR	14	6	0	FRIEND	606	n/a	1	n/a	0	0	0	n/a	n/a	n/a	n/a	n/a
1811.304	n/a	REC_WORD	905652	wordpools/wasnorm_wordpool_less_exclusions.txt	LTP269	ltpFR	14	6	0	TOURIST	1488	n/a	1	n/a	0	0	0	n/a	n/a	n/a	n/a	n/a
1813.188	n/a	REC_WORD	906594	wordpools/wasnorm_wordpool_less_exclusions.txt	LTP269	ltpFR	14	6	0	ENGINE	535	n/a	1	n/a	0	0	0	n/a	n/a	n/a	n/a	n/a
1816.158	n/a	REC_WORD	908079	wordpools/wasnorm_wordpool_less_exclusions.txt	LTP269	ltpFR	14	6	0	MUFFIN	929	n/a	0	n/a	0	0	0	n/a	n/a	n/a	n/a	n/a
1824.732	n/a	REC_WORD	912366	wordpools/wasnorm_wordpool_less_exclusions.txt	LTP269	ltpFR	14	6	0	TANGERINE	1431	n/a	0	n/a	0	0	0	n/a	n/a	n/a	n/a	n/a
1825.676	n/a	REC_WORD	912838	wordpools/wasnorm_wordpool_less_exclusions.txt	LTP269	ltpFR	14	6	0	PEANUT	1032	n/a	0	n/a	0	0	0	n/a	n/a	n/a	n/a	n/a
1834.0	n/a	REC_WORD	917000	wordpools/wasnorm_wordpool_less_exclusions.txt	LTP269	ltpFR	14	6	0	SUITE	1404	n/a	1	n/a	0	0	0	n/a	n/a	n/a	n/a	n/a
1834.988	n/a	REC_WORD	917494	wordpools/wasnorm_wordpool_less_exclusions.txt	LTP269	ltpFR	14	6	0	RESORT	1186	n/a	1	n/a	0	0	0	n/a	n/a	n/a	n/a	n/a
1839.06	n/a	REC_WORD	919530	wordpools/wasnorm_wordpool_less_exclusions.txt	LTP269	ltpFR	14	6	0	PORCH	1106	n/a	1	n/a	0	0	0	n/a	n/a	n/a	n/a	n/a
1840.028	n/a	REC_WORD	920014	wordpools/wasnorm_wordpool_less_exclusions.txt	LTP269	ltpFR	14	6	0	GIRAFFE	636	n/a	1	n/a	0	0	0	n/a	n/a	n/a	n/a	n/a
1840.822	n/a	REC_WORD	920411	wordpools/wasnorm_wordpool_less_exclusions.txt	LTP269	ltpFR	14	6	n/a	STREAM	1392	n/a	n/a	n/a	0	0	0	n/a	n/a	n/a	n/a	n/a
1841.832	n/a	REC_WORD	920916	wordpools/wasnorm_wordpool_less_exclusions.txt	LTP269	ltpFR	14	6	0	TICKET	1464	n/a	0	n/a	0	0	0	n/a	n/a	n/a	n/a	n/a
1842.558	n/a	REC_WORD	921279	wordpools/wasnorm_wordpool_less_exclusions.txt	LTP269	ltpFR	14	6	0	DIVER	476	n/a	1	n/a	0	0	0	n/a	n/a	n/a	n/a	n/a
1880.418	n/a	REST_REWET	940209	n/a	LTP269	ltpFR	14	6	n/a	n/a	n/a	n/a	n/a	n/a	0	0	0	n/a	n/a	n/a	n/a	n/a
2177.672	n/a	WORD	1088836	wordpools/wasnorm_wordpool_less_exclusions.txt	LTP269	ltpFR	14	7	1	SPINACH	1352	n/a	1	n/a	0	0	0	0	0.5869140625	0.422607421875	lower	../fonts/zerothre.ttf
2181.586	n/a	WORD	1090793	wordpools/wasnorm_wordpool_less_exclusions.txt	LTP269	ltpFR	14	7	1	ATMOSPHERE	54	n/a	0	n/a	0	0	0	0	0.5869140625	0.422607421875	lower	../fonts/zerothre.ttf
2185.802	n/a	WORD	1092901	wordpools/wasnorm_wordpool_less_exclusions.txt	LTP269	ltpFR	14	7	0	GALAXY	617	n/a	1	n/a	0	0	0	1	0.412841796875	0.57763671875	upper	../fonts/amplitud.ttf
2189.968	n/a	WORD	1094984	wordpools/wasnorm_wordpool_less_exclusions.txt	LTP269	ltpFR	14	7	0	WINDSHIELD	1612	n/a	1	n/a	0	0	0	1	0.412841796875	0.57763671875	upper	../fonts/amplitud.ttf
2194.118	n/a	WORD	1097059	wordpools/wasnorm_wordpool_less_exclusions.txt	LTP269	ltpFR	14	7	1	VAN	1548	n/a	0	n/a	0	0	0	0	0.5869140625	0.422607421875	lower	../fonts/zerothre.ttf
2198.334	n/a	WORD	1099167	wordpools/wasnorm_wordpool_less_exclusions.txt	LTP269	ltpFR	14	7	1	GLASS	639	n/a	0	n/a	0	0	0	0	0.5869140625	0.422607421875	lower	../fonts/zerothre.ttf
2202.316	n/a	WORD	1101158	wordpools/wasnorm_wordpool_less_exclusions.txt	LTP269	ltpFR	14	7	1	POSSUM	1112	n/a	1	n/a	0	0	0	0	0.5869140625	0.422607421875	lower	../fonts/zerothre.ttf
2206.498	n/a	WORD	1103249	wordpools/wasnorm_wordpool_less_exclusions.txt	LTP269	ltpFR	14	7	1	PORCUPINE	1107	n/a	1	n/a	0	0	0	0	0.5869140625	0.422607421875	lower	../fonts/zerothre.ttf
2210.68	n/a	WORD	1105340	wordpools/wasnorm_wordpool_less_exclusions.txt	LTP269	ltpFR	14	7	1	BUCKET	184	n/a	0	n/a	0	0	0	0	0.5869140625	0.422607421875	lower	../fonts/zerothre.ttf
2214.864	n/a	WORD	1107432	wordpools/wasnorm_wordpool_less_exclusions.txt	LTP269	ltpFR	14	7	1	LIME	823	n/a	1	n/a	0	0	0	0	0.5869140625	0.422607421875	lower	../fonts/zerothre.ttf
2218.978	n/a	WORD	1109489	wordpools/wasnorm_wordpool_less_exclusions.txt	LTP269	ltpFR	14	7	0	CURTAIN	427	n/a	1	n/a	0	0	0	1	0.412841796875	0.57763671875	upper	../fonts/amplitud.ttf
2222.812	n/a	WORD	1111406	wordpools/wasnorm_wordpool_less_exclusions.txt	LTP269	ltpFR	14	7	0	SALAD	1224	n/a	0	n/a	0	0	0	1	0.412841796875	0.57763671875	upper	../fonts/amplitud.ttf
2226.876	n/a	WORD	1113438	wordpools/wasnorm_wordpool_less_exclusions.txt	LTP269	ltpFR	14	7	0	RUST	1219	n/a	1	n/a	0	0	0	1	0.412841796875	0.57763671875	upper	../fonts/amplitud.ttf
2230.958	n/a	WORD	1115479	wordpools/wasnorm_wordpool_less_exclusions.txt	LTP269	ltpFR	14	7	0	STALLION	1369	n/a	1	n/a	0	0	0	1	0.412841796875	0.57763671875	upper	../fonts/amplitud.ttf
2234.824	n/a	WORD	1117412	wordpools/wasnorm_wordpool_less_exclusions.txt	LTP269	ltpFR	14	7	0	PIKE	1067	n/a	1	n/a	0	0	0	1	0.412841796875	0.57763671875	upper	../fonts/amplitud.ttf
2239.038	n/a	WORD	1119519	wordpools/wasnorm_wordpool_less_exclusions.txt	LTP269	ltpFR	14	7	0	WOMAN	1620	n/a	1	n/a	0	0	0	1	0.412841796875	0.57763671875	upper	../fonts/amplitud.ttf
2242.052	n/a	START	1121026	n/a	LTP269	ltpFR	14	n/a	n/a	n/a	n/a	n/a	n/a	n/a	n/a	n/a	n/a	n/a	n/a	n/a	n/a	n/a
2243.07	n/a	PROB	1121535	n/a	LTP269	ltpFR	14	n/a	n/a	n/a	n/a	n/a	n/a	13	3	3	4	n/a	n/a	n/a	n/a	n/a
2245.298	n/a	PROB	1122649	n/a	LTP269	ltpFR	14	n/a	n/a	n/a	n/a	n/a	n/a	23	8	7	8	n/a	n/a	n/a	n/a	n/a
2249.716	n/a	STOP	1124858	n/a	LTP269	ltpFR	14	n/a	n/a	n/a	n/a	n/a	n/a	n/a	n/a	n/a	n/a	n/a	n/a	n/a	n/a	n/a
2251.922	n/a	REC_START	1125961	n/a	LTP269	ltpFR	14	7	n/a	n/a	n/a	n/a	n/a	n/a	0	0	0	n/a	n/a	n/a	n/a	n/a
2255.234	n/a	REC_WORD	1127617	wordpools/wasnorm_wordpool_less_exclusions.txt	LTP269	ltpFR	14	7	1	SPINACH	1352	n/a	1	n/a	0	0	0	n/a	n/a	n/a	n/a	n/a
2256.038	n/a	REC_WORD	1128019	wordpools/wasnorm_wordpool_less_exclusions.txt	LTP269	ltpFR	14	7	1	ATMOSPHERE	54	n/a	0	n/a	0	0	0	n/a	n/a	n/a	n/a	n/a
2258.162	n/a	REC_WORD	1129081	wordpools/wasnorm_wordpool_less_exclusions.txt	LTP269	ltpFR	14	7	0	GALAXY	617	n/a	1	n/a	0	0	0	n/a	n/a	n/a	n/a	n/a
2260.04	n/a	REC_WORD	1130020	wordpools/wasnorm_wordpool_less_exclusions.txt	LTP269	ltpFR	14	7	0	WINDSHIELD	1612	n/a	1	n/a	0	0	0	n/a	n/a	n/a	n/a	n/a
2260.798	n/a	REC_WORD	1130399	wordpools/wasnorm_wordpool_less_exclusions.txt	LTP269	ltpFR	14	7	1	VAN	1548	n/a	0	n/a	0	0	0	n/a	n/a	n/a	n/a	n/a
2261.542	n/a	REC_WORD	1130771	wordpools/wasnorm_wordpool_less_exclusions.txt	LTP269	ltpFR	14	7	1	GLASS	639	n/a	0	n/a	0	0	0	n/a	n/a	n/a	n/a	n/a
2265.92	n/a	REC_WORD	1132960	wordpools/wasnorm_wordpool_less_exclusions.txt	LTP269	ltpFR	14	7	0	RUST	1219	n/a	1	n/a	0	0	0	n/a	n/a	n/a	n/a	n/a
2267.008	n/a	REC_WORD	1133504	wordpools/wasnorm_wordpool_less_exclusions.txt	LTP269	ltpFR	14	7	1	POSSUM	1112	n/a	1	n/a	0	0	0	n/a	n/a	n/a	n/a	n/a
2267.606	n/a	REC_WORD	1133803	wordpools/wasnorm_wordpool_less_exclusions.txt	LTP269	ltpFR	14	7	1	PORCUPINE	1107	n/a	1	n/a	0	0	0	n/a	n/a	n/a	n/a	n/a
2271.316	n/a	REC_WORD	1135658	wordpools/wasnorm_wordpool_less_exclusions.txt	LTP269	ltpFR	14	7	1	BUCKET	184	n/a	0	n/a	0	0	0	n/a	n/a	n/a	n/a	n/a
2272.876	n/a	REC_WORD	1136438	wordpools/wasnorm_wordpool_less_exclusions.txt	LTP269	ltpFR	14	7	1	LIME	823	n/a	1	n/a	0	0	0	n/a	n/a	n/a	n/a	n/a
2278.168	n/a	REC_WORD	1139084	wordpools/wasnorm_wordpool_less_exclusions.txt	LTP269	ltpFR	14	7	0	CURTAIN	427	n/a	1	n/a	0	0	0	n/a	n/a	n/a	n/a	n/a
2302.91	n/a	REC_WORD	1151455	wordpools/wasnorm_wordpool_less_exclusions.txt	LTP269	ltpFR	14	7	0	STALLION	1369	n/a	1	n/a	0	0	0	n/a	n/a	n/a	n/a	n/a
2329.218	n/a	START	1164609	n/a	LTP269	ltpFR	14	n/a	n/a	n/a	n/a	n/a	n/a	n/a	n/a	n/a	n/a	n/a	n/a	n/a	n/a	n/a
2330.722	n/a	PROB	1165361	n/a	LTP269	ltpFR	14	n/a	n/a	n/a	n/a	n/a	n/a	18	8	9	1	n/a	n/a	n/a	n/a	n/a
2332.746	n/a	PROB	1166373	n/a	LTP269	ltpFR	14	n/a	n/a	n/a	n/a	n/a	n/a	14	4	6	4	n/a	n/a	n/a	n/a	n/a
2334.334	n/a	PROB	1167167	n/a	LTP269	ltpFR	14	n/a	n/a	n/a	n/a	n/a	n/a	15	7	1	7	n/a	n/a	n/a	n/a	n/a
2335.776	n/a	STOP	1167888	n/a	LTP269	ltpFR	14	n/a	n/a	n/a	n/a	n/a	n/a	n/a	n/a	n/a	n/a	n/a	n/a	n/a	n/a	n/a
2338.286	n/a	WORD	1169143	wordpools/wasnorm_wordpool_less_exclusions.txt	LTP269	ltpFR	14	8	1	FLANNEL	574	n/a	1	n/a	0	0	0	0	0.5869140625	0.422607421875	lower	../fonts/zerothre.ttf
2341.298	n/a	START	1170649	n/a	LTP269	ltpFR	14	n/a	n/a	n/a	n/a	n/a	n/a	n/a	n/a	n/a	n/a	n/a	n/a	n/a	n/a	n/a
2342.302	n/a	PROB	1171151	n/a	LTP269	ltpFR	14	n/a	n/a	n/a	n/a	n/a	n/a	14	6	6	2	n/a	n/a	n/a	n/a	n/a
2344.892	n/a	PROB	1172446	n/a	LTP269	ltpFR	14	n/a	n/a	n/a	n/a	n/a	n/a	17	4	7	6	n/a	n/a	n/a	n/a	n/a
2349.298	n/a	STOP	1174649	n/a	LTP269	ltpFR	14	n/a	n/a	n/a	n/a	n/a	n/a	n/a	n/a	n/a	n/a	n/a	n/a	n/a	n/a	n/a
2350.482	n/a	WORD	1175241	wordpools/wasnorm_wordpool_less_exclusions.txt	LTP269	ltpFR	14	8	1	PADDING	999	n/a	0	n/a	0	0	0	0	0.5869140625	0.422607421875	lower	../fonts/zerothre.ttf
2353.494	n/a	START	1176747	n/a	LTP269	ltpFR	14	n/a	n/a	n/a	n/a	n/a	n/a	n/a	n/a	n/a	n/a	n/a	n/a	n/a	n/a	n/a
2354.698	n/a	PROB	1177349	n/a	LTP269	ltpFR	14	n/a	n/a	n/a	n/a	n/a	n/a	17	9	5	4	n/a	n/a	n/a	n/a	n/a
2361.494	n/a	STOP	1180747	n/a	LTP269	ltpFR	14	n/a	n/a	n/a	n/a	n/a	n/a	n/a	n/a	n/a	n/a	n/a	n/a	n/a	n/a	n/a
2362.41	n/a	WORD	1181205	wordpools/wasnorm_wordpool_less_exclusions.txt	LTP269	ltpFR	14	8	1	SEAT	1264	n/a	0	n/a	0	0	0	0	0.5869140625	0.422607421875	lower	../fonts/zerothre.ttf
2365.422	n/a	START	1182711	n/a	LTP269	ltpFR	14	n/a	n/a	n/a	n/a	n/a	n/a	n/a	n/a	n/a	n/a	n/a	n/a	n/a	n/a	n/a
2366.51	n/a	PROB	1183255	n/a	LTP269	ltpFR	14	n/a	n/a	n/a	n/a	n/a	n/a	14	3	4	7	n/a	n/a	n/a	n/a	n/a
2368.65	n/a	PROB	1184325	n/a	LTP269	ltpFR	14	n/a	n/a	n/a	n/a	n/a	n/a	12	9	1	2	n/a	n/a	n/a	n/a	n/a
2370.976	n/a	PROB	1185488	n/a	LTP269	ltpFR	14	n/a	n/a	n/a	n/a	n/a	n/a	16	8	1	7	n/a	n/a	n/a	n/a	n/a
2373.018	n/a	STOP	1186509	n/a	LTP269	ltpFR	14	n/a	n/a	n/a	n/a	n/a	n/a	n/a	n/a	n/a	n/a	n/a	n/a	n/a	n/a	n/a
2374.608	n/a	WORD	1187304	wordpools/wasnorm_wordpool_less_exclusions.txt	LTP269	ltpFR	14	8	1	THESAURUS	1454	n/a	0	n/a	0	0	0	0	0.5869140625	0.422607421875	lower	../fonts/zerothre.ttf
2377.62	n/a	START	1188810	n/a	LTP269	ltpFR	14	n/a	n/a	n/a	n/a	n/a	n/a	n/a	n/a	n/a	n/a	n/a	n/a	n/a	n/a	n/a
2378.622	n/a	PROB	1189311	n/a	LTP269	ltpFR	14	n/a	n/a	n/a	n/a	n/a	n/a	13	2	8	3	n/a	n/a	n/a	n/a	n/a
2381.03	n/a	PROB	1190515	n/a	LTP269	ltpFR	14	n/a	n/a	n/a	n/a	n/a	n/a	8	5	1	2	n/a	n/a	n/a	n/a	n/a
2382.94	n/a	PROB	1191470	n/a	LTP269	ltpFR	14	n/a	n/a	n/a	n/a	n/a	n/a	13	3	5	5	n/a	n/a	n/a	n/a	n/a
2385.084	n/a	STOP	1192542	n/a	LTP269	ltpFR	14	n/a	n/a	n/a	n/a	n/a	n/a	n/a	n/a	n/a	n/a	n/a	n/a	n/a	n/a	n/a
2386.452	n/a	WORD	1193226	wordpools/wasnorm_wordpool_less_exclusions.txt	LTP269	ltpFR	14	8	1	STAGE	1366	n/a	0	n/a	0	0	0	0	0.5869140625	0.422607421875	lower	../fonts/zerothre.ttf
2389.464	n/a	START	1194732	n/a	LTP269	ltpFR	14	n/a	n/a	n/a	n/a	n/a	n/a	n/a	n/a	n/a	n/a	n/a	n/a	n/a	n/a	n/a
2390.666	n/a	PROB	1195333	n/a	LTP269	ltpFR	14	n/a	n/a	n/a	n/a	n/a	n/a	11	7	3	1	n/a	n/a	n/a	n/a	n/a
2392.192	n/a	PROB	1196096	n/a	LTP269	ltpFR	14	n/a	n/a	n/a	n/a	n/a	n/a	13	5	7	1	n/a	n/a	n/a	n/a	n/a
2393.914	n/a	PROB	1196957	n/a	LTP269	ltpFR	14	n/a	n/a	n/a	n/a	n/a	n/a	9	4	4	1	n/a	n/a	n/a	n/a	n/a
2395.47	n/a	PROB	1197735	n/a	LTP269	ltpFR	14	n/a	n/a	n/a	n/a	n/a	n/a	19	2	8	9	n/a	n/a	n/a	n/a	n/a
2396.932	n/a	STOP	1198466	n/a	LTP269	ltpFR	14	n/a	n/a	n/a	n/a	n/a	n/a	n/a	n/a	n/a	n/a	n/a	n/a	n/a	n/a	n/a
2398.482	n/a	WORD	1199241	wordpools/wasnorm_wordpool_less_exclusions.txt	LTP269	ltpFR	14	8	1	KEEPER	769	n/a	1	n/a	0	0	0	0	0.5869140625	0.422607421875	lower	../fonts/zerothre.ttf
2401.494	n/a	START	1200747	n/a	LTP269	ltpFR	14	n/a	n/a	n/a	n/a	n/a	n/a	n/a	n/a	n/a	n/a	n/a	n/a	n/a	n/a	n/a
2402.478	n/a	PROB	1201239	n/a	LTP269	ltpFR	14	n/a	n/a	n/a	n/a	n/a	n/a	8	2	4	2	n/a	n/a	n/a	n/a	n/a
2404.304	n/a	PROB	1202152	n/a	LTP269	ltpFR	14	n/a	n/a	n/a	n/a	n/a	n/a	15	8	2	5	n/a	n/a	n/a	n/a	n/a
2405.842	n/a	PROB	1202921	n/a	LTP269	ltpFR	14	n/a	n/a	n/a	n/a	n/a	n/a	9	1	1	7	n/a	n/a	n/a	n/a	n/a
2407.214	n/a	PROB	1203607	n/a	LTP269	ltpFR	14	n/a	n/a	n/a	n/a	n/a	n/a	21	6	8	7	n/a	n/a	n/a	n/a	n/a
2409.388	n/a	STOP	1204694	n/a	LTP269	ltpFR	14	n/a	n/a	n/a	n/a	n/a	n/a	n/a	n/a	n/a	n/a	n/a	n/a	n/a	n/a	n/a
2410.544	n/a	WORD	1205272	wordpools/wasnorm_wordpool_less_exclusions.txt	LTP269	ltpFR	14	8	1	GUEST	669	n/a	1	n/a	0	0	0	0	0.5869140625	0.422607421875	lower	../fonts/zerothre.ttf
2413.558	n/a	START	1206779	n/a	LTP269	ltpFR	14	n/a	n/a	n/a	n/a	n/a	n/a	n/a	n/a	n/a	n/a	n/a	n/a	n/a	n/a	n/a
2414.376	n/a	PROB	1207188	n/a	LTP269	ltpFR	14	n/a	n/a	n/a	n/a	n/a	n/a	17	6	5	6	n/a	n/a	n/a	n/a	n/a
2418.576	n/a	PROB	1209288	n/a	LTP269	ltpFR	14	n/a	n/a	n/a	n/a	n/a	n/a	13	6	1	6	n/a	n/a	n/a	n/a	n/a
2421.558	n/a	STOP	1210779	n/a	LTP269	ltpFR	14	n/a	n/a	n/a	n/a	n/a	n/a	n/a	n/a	n/a	n/a	n/a	n/a	n/a	n/a	n/a
2422.59	n/a	WORD	1211295	wordpools/wasnorm_wordpool_less_exclusions.txt	LTP269	ltpFR	14	8	1	ACTRESS	6	n/a	1	n/a	0	0	0	0	0.5869140625	0.422607421875	lower	../fonts/zerothre.ttf
2425.602	n/a	START	1212801	n/a	LTP269	ltpFR	14	n/a	n/a	n/a	n/a	n/a	n/a	n/a	n/a	n/a	n/a	n/a	n/a	n/a	n/a	n/a
2426.722	n/a	PROB	1213361	n/a	LTP269	ltpFR	14	n/a	n/a	n/a	n/a	n/a	n/a	22	5	9	8	n/a	n/a	n/a	n/a	n/a
2432.422	n/a	STOP	1216211	n/a	LTP269	ltpFR	14	n/a	n/a	n/a	n/a	n/a	n/a	n/a	n/a	n/a	n/a	n/a	n/a	n/a	n/a	n/a
2434.754	n/a	WORD	1217377	wordpools/wasnorm_wordpool_less_exclusions.txt	LTP269	ltpFR	14	8	1	CAVE	263	n/a	0	n/a	0	0	0	0	0.5869140625	0.422607421875	lower	../fonts/zerothre.ttf
2437.766	n/a	START	1218883	n/a	LTP269	ltpFR	14	n/a	n/a	n/a	n/a	n/a	n/a	n/a	n/a	n/a	n/a	n/a	n/a	n/a	n/a	n/a
2438.602	n/a	PROB	1219301	n/a	LTP269	ltpFR	14	n/a	n/a	n/a	n/a	n/a	n/a	11	5	4	2	n/a	n/a	n/a	n/a	n/a
2440.292	n/a	PROB	1220146	n/a	LTP269	ltpFR	14	n/a	n/a	n/a	n/a	n/a	n/a	13	5	7	1	n/a	n/a	n/a	n/a	n/a
2441.946	n/a	PROB	1220973	n/a	LTP269	ltpFR	14	n/a	n/a	n/a	n/a	n/a	n/a	14	8	2	4	n/a	n/a	n/a	n/a	n/a
2443.788	n/a	PROB	1221894	n/a	LTP269	ltpFR	14	n/a	n/a	n/a	n/a	n/a	n/a	12	4	4	4	n/a	n/a	n/a	n/a	n/a
2445.262	n/a	STOP	1222631	n/a	LTP269	ltpFR	14	n/a	n/a	n/a	n/a	n/a	n/a	n/a	n/a	n/a	n/a	n/a	n/a	n/a	n/a	n/a
2446.816	n/a	WORD	1223408	wordpools/wasnorm_wordpool_less_exclusions.txt	LTP269	ltpFR	14	8	1	CUB	419	n/a	1	n/a	0	0	0	0	0.5869140625	0.422607421875	lower	../fonts/zerothre.ttf
2449.83	n/a	START	1224915	n/a	LTP269	ltpFR	14	n/a	n/a	n/a	n/a	n/a	n/a	n/a	n/a	n/a	n/a	n/a	n/a	n/a	n/a	n/a
2450.916	n/a	PROB	1225458	n/a	LTP269	ltpFR	14	n/a	n/a	n/a	n/a	n/a	n/a	12	1	2	9	n/a	n/a	n/a	n/a	n/a
2453.942	n/a	PROB	1226971	n/a	LTP269	ltpFR	14	n/a	n/a	n/a	n/a	n/a	n/a	11	2	4	5	n/a	n/a	n/a	n/a	n/a
2457.83	n/a	STOP	1228915	n/a	LTP269	ltpFR	14	n/a	n/a	n/a	n/a	n/a	n/a	n/a	n/a	n/a	n/a	n/a	n/a	n/a	n/a	n/a
2458.912	n/a	WORD	1229456	wordpools/wasnorm_wordpool_less_exclusions.txt	LTP269	ltpFR	14	8	1	AUTHOR	61	n/a	1	n/a	0	0	0	0	0.5869140625	0.422607421875	lower	../fonts/zerothre.ttf
2461.924	n/a	START	1230962	n/a	LTP269	ltpFR	14	n/a	n/a	n/a	n/a	n/a	n/a	n/a	n/a	n/a	n/a	n/a	n/a	n/a	n/a	n/a
2462.81	n/a	PROB	1231405	n/a	LTP269	ltpFR	14	n/a	n/a	n/a	n/a	n/a	n/a	20	5	6	9	n/a	n/a	n/a	n/a	n/a
2464.734	n/a	PROB	1232367	n/a	LTP269	ltpFR	14	n/a	n/a	n/a	n/a	n/a	n/a	18	5	8	5	n/a	n/a	n/a	n/a	n/a
2467.044	n/a	PROB	1233522	n/a	LTP269	ltpFR	14	n/a	n/a	n/a	n/a	n/a	n/a	15	7	1	7	n/a	n/a	n/a	n/a	n/a
2468.432	n/a	STOP	1234216	n/a	LTP269	ltpFR	14	n/a	n/a	n/a	n/a	n/a	n/a	n/a	n/a	n/a	n/a	n/a	n/a	n/a	n/a	n/a
2470.758	n/a	WORD	1235379	wordpools/wasnorm_wordpool_less_exclusions.txt	LTP269	ltpFR	14	8	1	LITERATURE	831	n/a	0	n/a	0	0	0	0	0.5869140625	0.422607421875	lower	../fonts/zerothre.ttf
2473.77	n/a	START	1236885	n/a	LTP269	ltpFR	14	n/a	n/a	n/a	n/a	n/a	n/a	n/a	n/a	n/a	n/a	n/a	n/a	n/a	n/a	n/a
2474.69	n/a	PROB	1237345	n/a	LTP269	ltpFR	14	n/a	n/a	n/a	n/a	n/a	n/a	8	1	1	6	n/a	n/a	n/a	n/a	n/a
2476.062	n/a	PROB	1238031	n/a	LTP269	ltpFR	14	n/a	n/a	n/a	n/a	n/a	n/a	12	6	5	1	n/a	n/a	n/a	n/a	n/a
2479.242	n/a	PROB	1239621	n/a	LTP269	ltpFR	14	n/a	n/a	n/a	n/a	n/a	n/a	17	7	3	7	n/a	n/a	n/a	n/a	n/a
2480.936	n/a	STOP	1240468	n/a	LTP269	ltpFR	14	n/a	n/a	n/a	n/a	n/a	n/a	n/a	n/a	n/a	n/a	n/a	n/a	n/a	n/a	n/a
2482.954	n/a	WORD	1241477	wordpools/wasnorm_wordpool_less_exclusions.txt	LTP269	ltpFR	14	8	1	PIT	1077	n/a	0	n/a	0	0	0	0	0.5869140625	0.422607421875	lower	../fonts/zerothre.ttf
2485.968	n/a	START	1242984	n/a	LTP269	ltpFR	14	n/a	n/a	n/a	n/a	n/a	n/a	n/a	n/a	n/a	n/a	n/a	n/a	n/a	n/a	n/a
2486.938	n/a	PROB	1243469	n/a	LTP269	ltpFR	14	n/a	n/a	n/a	n/a	n/a	n/a	18	7	3	8	n/a	n/a	n/a	n/a	n/a
2488.458	n/a	PROB	1244229	n/a	LTP269	ltpFR	14	n/a	n/a	n/a	n/a	n/a	n/a	14	3	6	5	n/a	n/a	n/a	n/a	n/a
2492.056	n/a	PROB	1246028	n/a	LTP269	ltpFR	14	n/a	n/a	n/a	n/a	n/a	n/a	18	6	6	6	n/a	n/a	n/a	n/a	n/a
2493.432	n/a	STOP	1246716	n/a	LTP269	ltpFR	14	n/a	n/a	n/a	n/a	n/a	n/a	n/a	n/a	n/a	n/a	n/a	n/a	n/a	n/a	n/a
2494.8	n/a	WORD	1247400	wordpools/wasnorm_wordpool_less_exclusions.txt	LTP269	ltpFR	14	8	1	TRENCH	1503	n/a	0	n/a	0	0	0	0	0.5869140625	0.422607421875	lower	../fonts/zerothre.ttf
2497.812	n/a	START	1248906	n/a	LTP269	ltpFR	14	n/a	n/a	n/a	n/a	n/a	n/a	n/a	n/a	n/a	n/a	n/a	n/a	n/a	n/a	n/a
2498.764	n/a	PROB	1249382	n/a	LTP269	ltpFR	14	n/a	n/a	n/a	n/a	n/a	n/a	10	1	1	8	n/a	n/a	n/a	n/a	n/a
2500.222	n/a	PROB	1250111	n/a	LTP269	ltpFR	14	n/a	n/a	n/a	n/a	n/a	n/a	21	8	7	6	n/a	n/a	n/a	n/a	n/a
2501.994	n/a	PROB	1250997	n/a	LTP269	ltpFR	14	n/a	n/a	n/a	n/a	n/a	n/a	9	2	3	4	n/a	n/a	n/a	n/a	n/a
2504.85	n/a	STOP	1252425	n/a	LTP269	ltpFR	14	n/a	n/a	n/a	n/a	n/a	n/a	n/a	n/a	n/a	n/a	n/a	n/a	n/a	n/a	n/a
2506.93	n/a	WORD	1253465	wordpools/wasnorm_wordpool_less_exclusions.txt	LTP269	ltpFR	14	8	1	AUTOMOBILE	62	n/a	0	n/a	0	0	0	0	0.5869140625	0.422607421875	lower	../fonts/zerothre.ttf
2509.942	n/a	START	1254971	n/a	LTP269	ltpFR	14	n/a	n/a	n/a	n/a	n/a	n/a	n/a	n/a	n/a	n/a	n/a	n/a	n/a	n/a	n/a
2511.062	n/a	PROB	1255531	n/a	LTP269	ltpFR	14	n/a	n/a	n/a	n/a	n/a	n/a	18	6	5	7	n/a	n/a	n/a	n/a	n/a
2513.288	n/a	PROB	1256644	n/a	LTP269	ltpFR	14	n/a	n/a	n/a	n/a	n/a	n/a	21	6	9	6	n/a	n/a	n/a	n/a	n/a
2516.658	n/a	STOP	1258329	n/a	LTP269	ltpFR	14	n/a	n/a	n/a	n/a	n/a	n/a	n/a	n/a	n/a	n/a	n/a	n/a	n/a	n/a	n/a
2518.892	n/a	WORD	1259446	wordpools/wasnorm_wordpool_less_exclusions.txt	LTP269	ltpFR	14	8	1	VEGETABLE	1552	n/a	1	n/a	0	0	0	0	0.5869140625	0.422607421875	lower	../fonts/zerothre.ttf
2521.904	n/a	START	1260952	n/a	LTP269	ltpFR	14	n/a	n/a	n/a	n/a	n/a	n/a	n/a	n/a	n/a	n/a	n/a	n/a	n/a	n/a	n/a
2522.756	n/a	PROB	1261378	n/a	LTP269	ltpFR	14	n/a	n/a	n/a	n/a	n/a	n/a	7	1	5	1	n/a	n/a	n/a	n/a	n/a
2524.514	n/a	PROB	1262257	n/a	LTP269	ltpFR	14	n/a	n/a	n/a	n/a	n/a	n/a	21	9	3	9	n/a	n/a	n/a	n/a	n/a
2526.856	n/a	PROB	1263428	n/a	LTP269	ltpFR	14	n/a	n/a	n/a	n/a	n/a	n/a	12	8	1	3	n/a	n/a	n/a	n/a	n/a
2529.196	n/a	STOP	1264598	n/a	LTP269	ltpFR	14	n/a	n/a	n/a	n/a	n/a	n/a	n/a	n/a	n/a	n/a	n/a	n/a	n/a	n/a	n/a
2531.676	n/a	REC_START	1265838	n/a	LTP269	ltpFR	14	8	n/a	n/a	n/a	n/a	n/a	n/a	0	0	0	n/a	n/a	n/a	n/a	n/a
2537.742	n/a	REC_WORD	1268871	wordpools/wasnorm_wordpool_less_exclusions.txt	LTP269	ltpFR	14	8	1	PIT	1077	n/a	0	n/a	0	0	0	n/a	n/a	n/a	n/a	n/a
2538.402	n/a	REC_WORD	1269201	wordpools/wasnorm_wordpool_less_exclusions.txt	LTP269	ltpFR	14	8	1	TRENCH	1503	n/a	0	n/a	0	0	0	n/a	n/a	n/a	n/a	n/a
2542.386	n/a	REC_WORD	1271193	wordpools/wasnorm_wordpool_less_exclusions.txt	LTP269	ltpFR	14	8	1	STAGE	1366	n/a	0	n/a	0	0	0	n/a	n/a	n/a	n/a	n/a
2545.448	n/a	REC_WORD	1272724	wordpools/wasnorm_wordpool_less_exclusions.txt	LTP269	ltpFR	14	8	n/a	CAR	241	n/a	n/a	n/a	0	0	0	n/a	n/a	n/a	n/a	n/a
2546.368	n/a	REC_WORD	1273184	wordpools/wasnorm_wordpool_less_exclusions.txt	LTP269	ltpFR	14	8	1	CAVE	263	n/a	0	n/a	0	0	0	n/a	n/a	n/a	n/a	n/a
2547.034	n/a	REC_WORD	1273517	wordpools/wasnorm_wordpool_less_exclusions.txt	LTP269	ltpFR	14	8	1	CUB	419	n/a	1	n/a	0	0	0	n/a	n/a	n/a	n/a	n/a
2550.834	n/a	REC_WORD_VV	1275417	wordpools/wasnorm_wordpool_less_exclusions.txt	LTP269	ltpFR	14	8	n/a	<>	-1	n/a	n/a	n/a	0	0	0	n/a	n/a	n/a	n/a	n/a
2551.398	n/a	REC_WORD	1275699	wordpools/wasnorm_wordpool_less_exclusions.txt	LTP269	ltpFR	14	8	1	AUTOMOBILE	62	n/a	0	n/a	0	0	0	n/a	n/a	n/a	n/a	n/a
2560.306	n/a	REC_WORD	1280153	wordpools/wasnorm_wordpool_less_exclusions.txt	LTP269	ltpFR	14	8	1	ACTRESS	6	n/a	1	n/a	0	0	0	n/a	n/a	n/a	n/a	n/a
2560.944	n/a	REC_WORD	1280472	wordpools/wasnorm_wordpool_less_exclusions.txt	LTP269	ltpFR	14	8	1	GUEST	669	n/a	1	n/a	0	0	0	n/a	n/a	n/a	n/a	n/a
2561.796	n/a	REC_WORD	1280898	wordpools/wasnorm_wordpool_less_exclusions.txt	LTP269	ltpFR	14	8	1	KEEPER	769	n/a	1	n/a	0	0	0	n/a	n/a	n/a	n/a	n/a
2568.72	n/a	REC_WORD	1284360	wordpools/wasnorm_wordpool_less_exclusions.txt	LTP269	ltpFR	14	8	1	PADDING	999	n/a	0	n/a	0	0	0	n/a	n/a	n/a	n/a	n/a
2570.322	n/a	REC_WORD	1285161	wordpools/wasnorm_wordpool_less_exclusions.txt	LTP269	ltpFR	14	8	n/a	CHAIR	274	n/a	n/a	n/a	0	0	0	n/a	n/a	n/a	n/a	n/a
2575.1	n/a	REC_WORD	1287550	wordpools/wasnorm_wordpool_less_exclusions.txt	LTP269	ltpFR	14	8	1	FLANNEL	574	n/a	1	n/a	0	0	0	n/a	n/a	n/a	n/a	n/a
2577.244	n/a	REC_WORD	1288622	wordpools/wasnorm_wordpool_less_exclusions.txt	LTP269	ltpFR	14	8	1	THESAURUS	1454	n/a	0	n/a	0	0	0	n/a	n/a	n/a	n/a	n/a
2582.564	n/a	REC_WORD	1291282	wordpools/wasnorm_wordpool_less_exclusions.txt	LTP269	ltpFR	14	8	1	LITERATURE	831	n/a	0	n/a	0	0	0	n/a	n/a	n/a	n/a	n/a
2585.092	n/a	REC_WORD	1292546	wordpools/wasnorm_wordpool_less_exclusions.txt	LTP269	ltpFR	14	8	1	AUTHOR	61	n/a	1	n/a	0	0	0	n/a	n/a	n/a	n/a	n/a
2610.71	n/a	WORD	1305355	wordpools/wasnorm_wordpool_less_exclusions.txt	LTP269	ltpFR	14	9	0	COTTAGE	384	n/a	1	n/a	0	0	0	1	0.412841796875	0.57763671875	upper	../fonts/amplitud.ttf
2614.724	n/a	WORD	1307362	wordpools/wasnorm_wordpool_less_exclusions.txt	LTP269	ltpFR	14	9	0	PERFUME	1049	n/a	0	n/a	0	0	0	1	0.412841796875	0.57763671875	upper	../fonts/amplitud.ttf
2618.842	n/a	WORD	1309421	wordpools/wasnorm_wordpool_less_exclusions.txt	LTP269	ltpFR	14	9	0	TUBA	1515	n/a	1	n/a	0	0	0	1	0.412841796875	0.57763671875	upper	../fonts/amplitud.ttf
2622.806	n/a	WORD	1311403	wordpools/wasnorm_wordpool_less_exclusions.txt	LTP269	ltpFR	14	9	0	SATURN	1236	n/a	1	n/a	0	0	0	1	0.412841796875	0.57763671875	upper	../fonts/amplitud.ttf
2626.704	n/a	WORD	1313352	wordpools/wasnorm_wordpool_less_exclusions.txt	LTP269	ltpFR	14	9	0	SCREWDRIVER	1255	n/a	0	n/a	0	0	0	1	0.412841796875	0.57763671875	upper	../fonts/amplitud.ttf
2630.636	n/a	WORD	1315318	wordpools/wasnorm_wordpool_less_exclusions.txt	LTP269	ltpFR	14	9	0	VIOLA	1570	n/a	1	n/a	0	0	0	1	0.412841796875	0.57763671875	upper	../fonts/amplitud.ttf
2634.634	n/a	WORD	1317317	wordpools/wasnorm_wordpool_less_exclusions.txt	LTP269	ltpFR	14	9	0	CREW	406	n/a	1	n/a	0	0	0	1	0.412841796875	0.57763671875	upper	../fonts/amplitud.ttf
2638.5	n/a	WORD	1319250	wordpools/wasnorm_wordpool_less_exclusions.txt	LTP269	ltpFR	14	9	0	CHAUFFEUR	283	n/a	1	n/a	0	0	0	1	0.412841796875	0.57763671875	upper	../fonts/amplitud.ttf
2642.514	n/a	WORD	1321257	wordpools/wasnorm_wordpool_less_exclusions.txt	LTP269	ltpFR	14	9	0	AGENT	10	n/a	1	n/a	0	0	0	1	0.412841796875	0.57763671875	upper	../fonts/amplitud.ttf
2646.33	n/a	WORD	1323165	wordpools/wasnorm_wordpool_less_exclusions.txt	LTP269	ltpFR	14	9	0	BUGGY	188	n/a	1	n/a	0	0	0	1	0.412841796875	0.57763671875	upper	../fonts/amplitud.ttf
2650.376	n/a	WORD	1325188	wordpools/wasnorm_wordpool_less_exclusions.txt	LTP269	ltpFR	14	9	0	WAX	1597	n/a	0	n/a	0	0	0	1	0.412841796875	0.57763671875	upper	../fonts/amplitud.ttf
2654.526	n/a	WORD	1327263	wordpools/wasnorm_wordpool_less_exclusions.txt	LTP269	ltpFR	14	9	0	PIE	1062	n/a	0	n/a	0	0	0	1	0.412841796875	0.57763671875	upper	../fonts/amplitud.ttf
2658.41	n/a	WORD	1329205	wordpools/wasnorm_wordpool_less_exclusions.txt	LTP269	ltpFR	14	9	0	SHORTCAKE	1292	n/a	0	n/a	0	0	0	1	0.412841796875	0.57763671875	upper	../fonts/amplitud.ttf
2662.44	n/a	WORD	1331220	wordpools/wasnorm_wordpool_less_exclusions.txt	LTP269	ltpFR	14	9	0	PATROL	1027	n/a	1	n/a	0	0	0	1	0.412841796875	0.57763671875	upper	../fonts/amplitud.ttf
2666.356	n/a	WORD	1333178	wordpools/wasnorm_wordpool_less_exclusions.txt	LTP269	ltpFR	14	9	0	CORD	379	n/a	1	n/a	0	0	0	1	0.412841796875	0.57763671875	upper	../fonts/amplitud.ttf
2670.522	n/a	WORD	1335261	wordpools/wasnorm_wordpool_less_exclusions.txt	LTP269	ltpFR	14	9	0	DIAL	457	n/a	0	n/a	0	0	0	1	0.412841796875	0.57763671875	upper	../fonts/amplitud.ttf
2673.532	n/a	START	1336766	n/a	LTP269	ltpFR	14	n/a	n/a	n/a	n/a	n/a	n/a	n/a	n/a	n/a	n/a	n/a	n/a	n/a	n/a	n/a
2674.688	n/a	PROB	1337344	n/a	LTP269	ltpFR	14	n/a	n/a	n/a	n/a	n/a	n/a	11	2	3	6	n/a	n/a	n/a	n/a	n/a
2676.612	n/a	PROB	1338306	n/a	LTP269	ltpFR	14	n/a	n/a	n/a	n/a	n/a	n/a	16	5	8	3	n/a	n/a	n/a	n/a	n/a
2678.218	n/a	PROB	1339109	n/a	LTP269	ltpFR	14	n/a	n/a	n/a	n/a	n/a	n/a	14	3	4	7	n/a	n/a	n/a	n/a	n/a
2681.534	n/a	STOP	1340767	n/a	LTP269	ltpFR	14	n/a	n/a	n/a	n/a	n/a	n/a	n/a	n/a	n/a	n/a	n/a	n/a	n/a	n/a	n/a
2683.422	n/a	REC_START	1341711	n/a	LTP269	ltpFR	14	9	n/a	n/a	n/a	n/a	n/a	n/a	0	0	0	n/a	n/a	n/a	n/a	n/a
2685.344	n/a	REC_WORD	1342672	wordpools/wasnorm_wordpool_less_exclusions.txt	LTP269	ltpFR	14	9	0	COTTAGE	384	n/a	1	n/a	0	0	0	n/a	n/a	n/a	n/a	n/a
2686.388	n/a	REC_WORD	1343194	wordpools/wasnorm_wordpool_less_exclusions.txt	LTP269	ltpFR	14	9	0	PERFUME	1049	n/a	0	n/a	0	0	0	n/a	n/a	n/a	n/a	n/a
2688.234	n/a	REC_WORD	1344117	wordpools/wasnorm_wordpool_less_exclusions.txt	LTP269	ltpFR	14	9	0	TUBA	1515	n/a	1	n/a	0	0	0	n/a	n/a	n/a	n/a	n/a
2689.28	n/a	REC_WORD	1344640	wordpools/wasnorm_wordpool_less_exclusions.txt	LTP269	ltpFR	14	9	0	SATURN	1236	n/a	1	n/a	0	0	0	n/a	n/a	n/a	n/a	n/a
2690.226	n/a	REC_WORD	1345113	wordpools/wasnorm_wordpool_less_exclusions.txt	LTP269	ltpFR	14	9	0	VIOLA	1570	n/a	1	n/a	0	0	0	n/a	n/a	n/a	n/a	n/a
2706.38	n/a	REC_WORD	1353190	wordpools/wasnorm_wordpool_less_exclusions.txt	LTP269	ltpFR	14	9	0	CREW	406	n/a	1	n/a	0	0	0	n/a	n/a	n/a	n/a	n/a
2708.01	n/a	REC_WORD	1354005	wordpools/wasnorm_wordpool_less_exclusions.txt	LTP269	ltpFR	14	9	0	CHAUFFEUR	283	n/a	1	n/a	0	0	0	n/a	n/a	n/a	n/a	n/a
2709.22	n/a	REC_WORD	1354610	wordpools/wasnorm_wordpool_less_exclusions.txt	LTP269	ltpFR	14	9	0	AGENT	10	n/a	1	n/a	0	0	0	n/a	n/a	n/a	n/a	n/a
2710.022	n/a	REC_WORD	1355011	wordpools/wasnorm_wordpool_less_exclusions.txt	LTP269	ltpFR	14	9	0	BUGGY	188	n/a	1	n/a	0	0	0	n/a	n/a	n/a	n/a	n/a
2711.914	n/a	REC_WORD	1355957	wordpools/wasnorm_wordpool_less_exclusions.txt	LTP269	ltpFR	14	9	0	WAX	1597	n/a	0	n/a	0	0	0	n/a	n/a	n/a	n/a	n/a
2712.828	n/a	REC_WORD	1356414	wordpools/wasnorm_wordpool_less_exclusions.txt	LTP269	ltpFR	14	9	0	PIE	1062	n/a	0	n/a	0	0	0	n/a	n/a	n/a	n/a	n/a
2713.528	n/a	REC_WORD	1356764	wordpools/wasnorm_wordpool_less_exclusions.txt	LTP269	ltpFR	14	9	0	SHORTCAKE	1292	n/a	0	n/a	0	0	0	n/a	n/a	n/a	n/a	n/a
2716.01	n/a	REC_WORD	1358005	wordpools/wasnorm_wordpool_less_exclusions.txt	LTP269	ltpFR	14	9	0	CORD	379	n/a	1	n/a	0	0	0	n/a	n/a	n/a	n/a	n/a
2718.764	n/a	REC_WORD	1359382	wordpools/wasnorm_wordpool_less_exclusions.txt	LTP269	ltpFR	14	9	0	DIAL	457	n/a	0	n/a	0	0	0	n/a	n/a	n/a	n/a	n/a
2763.476	n/a	WORD	1381738	wordpools/wasnorm_wordpool_less_exclusions.txt	LTP269	ltpFR	14	10	0	MONSTER	912	n/a	1	n/a	0	0	0	1	0.412841796875	0.57763671875	upper	../fonts/amplitud.ttf
2767.692	n/a	WORD	1383846	wordpools/wasnorm_wordpool_less_exclusions.txt	LTP269	ltpFR	14	10	0	MACARONI	851	n/a	0	n/a	0	0	0	1	0.412841796875	0.57763671875	upper	../fonts/amplitud.ttf
2771.74	n/a	WORD	1385870	wordpools/wasnorm_wordpool_less_exclusions.txt	LTP269	ltpFR	14	10	1	BEER	114	n/a	0	n/a	0	0	0	0	0.5869140625	0.422607421875	lower	../fonts/zerothre.ttf
2775.874	n/a	WORD	1387937	wordpools/wasnorm_wordpool_less_exclusions.txt	LTP269	ltpFR	14	10	1	PUDDLE	1140	n/a	0	n/a	0	0	0	0	0.5869140625	0.422607421875	lower	../fonts/zerothre.ttf
2780.006	n/a	WORD	1390003	wordpools/wasnorm_wordpool_less_exclusions.txt	LTP269	ltpFR	14	10	1	OATS	968	n/a	1	n/a	0	0	0	0	0.5869140625	0.422607421875	lower	../fonts/zerothre.ttf
2783.988	n/a	WORD	1391994	wordpools/wasnorm_wordpool_less_exclusions.txt	LTP269	ltpFR	14	10	1	CORN	381	n/a	1	n/a	0	0	0	0	0.5869140625	0.422607421875	lower	../fonts/zerothre.ttf
2788.122	n/a	WORD	1394061	wordpools/wasnorm_wordpool_less_exclusions.txt	LTP269	ltpFR	14	10	0	LION	827	n/a	1	n/a	0	0	0	1	0.412841796875	0.57763671875	upper	../fonts/amplitud.ttf
2792.07	n/a	WORD	1396035	wordpools/wasnorm_wordpool_less_exclusions.txt	LTP269	ltpFR	14	10	0	AFRICA	9	n/a	1	n/a	0	0	0	1	0.412841796875	0.57763671875	upper	../fonts/amplitud.ttf
2795.9	n/a	WORD	1397950	wordpools/wasnorm_wordpool_less_exclusions.txt	LTP269	ltpFR	14	10	0	COLT	349	n/a	1	n/a	0	0	0	1	0.412841796875	0.57763671875	upper	../fonts/amplitud.ttf
2800.05	n/a	WORD	1400025	wordpools/wasnorm_wordpool_less_exclusions.txt	LTP269	ltpFR	14	10	1	PORT	1110	n/a	0	n/a	0	0	0	0	0.5869140625	0.422607421875	lower	../fonts/zerothre.ttf
2803.93	n/a	WORD	1401965	wordpools/wasnorm_wordpool_less_exclusions.txt	LTP269	ltpFR	14	10	1	VESSEL	1558	n/a	0	n/a	0	0	0	0	0.5869140625	0.422607421875	lower	../fonts/zerothre.ttf
2808.116	n/a	WORD	1404058	wordpools/wasnorm_wordpool_less_exclusions.txt	LTP269	ltpFR	14	10	1	HORSE	719	n/a	1	n/a	0	0	0	0	0.5869140625	0.422607421875	lower	../fonts/zerothre.ttf
2812.062	n/a	WORD	1406031	wordpools/wasnorm_wordpool_less_exclusions.txt	LTP269	ltpFR	14	10	1	HOUSE	725	n/a	0	n/a	0	0	0	0	0.5869140625	0.422607421875	lower	../fonts/zerothre.ttf
2816.078	n/a	WORD	1408039	wordpools/wasnorm_wordpool_less_exclusions.txt	LTP269	ltpFR	14	10	0	FIREMAN	569	n/a	1	n/a	0	0	0	1	0.412841796875	0.57763671875	upper	../fonts/amplitud.ttf
2820.092	n/a	WORD	1410046	wordpools/wasnorm_wordpool_less_exclusions.txt	LTP269	ltpFR	14	10	0	BOWL	158	n/a	0	n/a	0	0	0	1	0.412841796875	0.57763671875	upper	../fonts/amplitud.ttf
2824.176	n/a	WORD	1412088	wordpools/wasnorm_wordpool_less_exclusions.txt	LTP269	ltpFR	14	10	0	PRAIRIE	1118	n/a	1	n/a	0	0	0	1	0.412841796875	0.57763671875	upper	../fonts/amplitud.ttf
2830.3	n/a	REC_START	1415150	n/a	LTP269	ltpFR	14	10	n/a	n/a	n/a	n/a	n/a	n/a	0	0	0	n/a	n/a	n/a	n/a	n/a
2832.22	n/a	REC_WORD	1416110	wordpools/wasnorm_wordpool_less_exclusions.txt	LTP269	ltpFR	14	10	0	MONSTER	912	n/a	1	n/a	0	0	0	n/a	n/a	n/a	n/a	n/a
2834.022	n/a	REC_WORD	1417011	wordpools/wasnorm_wordpool_less_exclusions.txt	LTP269	ltpFR	14	10	0	MACARONI	851	n/a	0	n/a	0	0	0	n/a	n/a	n/a	n/a	n/a
2835.6	n/a	REC_WORD	1417800	wordpools/wasnorm_wordpool_less_exclusions.txt	LTP269	ltpFR	14	10	1	BEER	114	n/a	0	n/a	0	0	0	n/a	n/a	n/a	n/a	n/a
2836.776	n/a	REC_WORD	1418388	wordpools/wasnorm_wordpool_less_exclusions.txt	LTP269	ltpFR	14	10	1	PUDDLE	1140	n/a	0	n/a	0	0	0	n/a	n/a	n/a	n/a	n/a
2837.756	n/a	REC_WORD	1418878	wordpools/wasnorm_wordpool_less_exclusions.txt	LTP269	ltpFR	14	10	1	OATS	968	n/a	1	n/a	0	0	0	n/a	n/a	n/a	n/a	n/a
2838.394	n/a	REC_WORD	1419197	wordpools/wasnorm_wordpool_less_exclusions.txt	LTP269	ltpFR	14	10	1	CORN	381	n/a	1	n/a	0	0	0	n/a	n/a	n/a	n/a	n/a
2839.176	n/a	REC_WORD	1419588	wordpools/wasnorm_wordpool_less_exclusions.txt	LTP269	ltpFR	14	10	0	LION	827	n/a	1	n/a	0	0	0	n/a	n/a	n/a	n/a	n/a
2840.302	n/a	REC_WORD	1420151	wordpools/wasnorm_wordpool_less_exclusions.txt	LTP269	ltpFR	14	10	0	COLT	349	n/a	1	n/a	0	0	0	n/a	n/a	n/a	n/a	n/a
2849.776	n/a	REC_WORD	1424888	wordpools/wasnorm_wordpool_less_exclusions.txt	LTP269	ltpFR	14	10	1	PORT	1110	n/a	0	n/a	0	0	0	n/a	n/a	n/a	n/a	n/a
2851.176	n/a	REC_WORD	1425588	wordpools/wasnorm_wordpool_less_exclusions.txt	LTP269	ltpFR	14	10	1	VESSEL	1558	n/a	0	n/a	0	0	0	n/a	n/a	n/a	n/a	n/a
2857.864	n/a	REC_WORD	1428932	wordpools/wasnorm_wordpool_less_exclusions.txt	LTP269	ltpFR	14	10	1	HORSE	719	n/a	1	n/a	0	0	0	n/a	n/a	n/a	n/a	n/a
2858.406	n/a	REC_WORD	1429203	wordpools/wasnorm_wordpool_less_exclusions.txt	LTP269	ltpFR	14	10	1	HOUSE	725	n/a	0	n/a	0	0	0	n/a	n/a	n/a	n/a	n/a
2860.964	n/a	REC_WORD	1430482	wordpools/wasnorm_wordpool_less_exclusions.txt	LTP269	ltpFR	14	10	0	PRAIRIE	1118	n/a	1	n/a	0	0	0	n/a	n/a	n/a	n/a	n/a
2869.398	n/a	REC_WORD	1434699	wordpools/wasnorm_wordpool_less_exclusions.txt	LTP269	ltpFR	14	10	0	AFRICA	9	n/a	1	n/a	0	0	0	n/a	n/a	n/a	n/a	n/a
2871.544	n/a	REC_WORD	1435772	wordpools/wasnorm_wordpool_less_exclusions.txt	LTP269	ltpFR	14	10	0	BOWL	158	n/a	0	n/a	0	0	0	n/a	n/a	n/a	n/a	n/a
2909.77	n/a	WORD	1454885	wordpools/wasnorm_wordpool_less_exclusions.txt	LTP269	ltpFR	14	11	1	STEREO	1378	n/a	0	n/a	0	0	0	0	0.5869140625	0.422607421875	lower	../fonts/zerothre.ttf
2913.934	n/a	WORD	1456967	wordpools/wasnorm_wordpool_less_exclusions.txt	LTP269	ltpFR	14	11	1	BREAST	171	n/a	0	n/a	0	0	0	0	0.5869140625	0.422607421875	lower	../fonts/zerothre.ttf
2917.816	n/a	WORD	1458908	wordpools/wasnorm_wordpool_less_exclusions.txt	LTP269	ltpFR	14	11	1	TOMATO	1476	n/a	1	n/a	0	0	0	0	0.5869140625	0.422607421875	lower	../fonts/zerothre.ttf
2921.9	n/a	WORD	1460950	wordpools/wasnorm_wordpool_less_exclusions.txt	LTP269	ltpFR	14	11	1	NOTE	958	n/a	0	n/a	0	0	0	0	0.5869140625	0.422607421875	lower	../fonts/zerothre.ttf
2926.048	n/a	WORD	1463024	wordpools/wasnorm_wordpool_less_exclusions.txt	LTP269	ltpFR	14	11	1	ENVELOPE	537	n/a	0	n/a	0	0	0	0	0.5869140625	0.422607421875	lower	../fonts/zerothre.ttf
2930.232	n/a	WORD	1465116	wordpools/wasnorm_wordpool_less_exclusions.txt	LTP269	ltpFR	14	11	1	KEYBOARD	774	n/a	0	n/a	0	0	0	0	0.5869140625	0.422607421875	lower	../fonts/zerothre.ttf
2934.078	n/a	WORD	1467039	wordpools/wasnorm_wordpool_less_exclusions.txt	LTP269	ltpFR	14	11	1	DEPUTY	450	n/a	1	n/a	0	0	0	0	0.5869140625	0.422607421875	lower	../fonts/zerothre.ttf
2937.994	n/a	WORD	1468997	wordpools/wasnorm_wordpool_less_exclusions.txt	LTP269	ltpFR	14	11	1	COSTUME	383	n/a	0	n/a	0	0	0	0	0.5869140625	0.422607421875	lower	../fonts/zerothre.ttf
2941.876	n/a	WORD	1470938	wordpools/wasnorm_wordpool_less_exclusions.txt	LTP269	ltpFR	14	11	1	ROBE	1198	n/a	0	n/a	0	0	0	0	0.5869140625	0.422607421875	lower	../fonts/zerothre.ttf
2945.958	n/a	WORD	1472979	wordpools/wasnorm_wordpool_less_exclusions.txt	LTP269	ltpFR	14	11	1	BOY	161	n/a	1	n/a	0	0	0	0	0.5869140625	0.422607421875	lower	../fonts/zerothre.ttf
2949.89	n/a	WORD	1474945	wordpools/wasnorm_wordpool_less_exclusions.txt	LTP269	ltpFR	14	11	1	COURSE	390	n/a	0	n/a	0	0	0	0	0.5869140625	0.422607421875	lower	../fonts/zerothre.ttf
2953.972	n/a	WORD	1476986	wordpools/wasnorm_wordpool_less_exclusions.txt	LTP269	ltpFR	14	11	1	ENEMY	534	n/a	0	n/a	0	0	0	0	0.5869140625	0.422607421875	lower	../fonts/zerothre.ttf
2958.036	n/a	WORD	1479018	wordpools/wasnorm_wordpool_less_exclusions.txt	LTP269	ltpFR	14	11	1	SEAFOOD	1260	n/a	0	n/a	0	0	0	0	0.5869140625	0.422607421875	lower	../fonts/zerothre.ttf
2962.12	n/a	WORD	1481060	wordpools/wasnorm_wordpool_less_exclusions.txt	LTP269	ltpFR	14	11	1	RODENT	1204	n/a	1	n/a	0	0	0	0	0.5869140625	0.422607421875	lower	../fonts/zerothre.ttf
2966.136	n/a	WORD	1483068	wordpools/wasnorm_wordpool_less_exclusions.txt	LTP269	ltpFR	14	11	1	SCOUT	1252	n/a	1	n/a	0	0	0	0	0.5869140625	0.422607421875	lower	../fonts/zerothre.ttf
2970.2	n/a	WORD	1485100	wordpools/wasnorm_wordpool_less_exclusions.txt	LTP269	ltpFR	14	11	1	CORAL	378	n/a	1	n/a	0	0	0	0	0.5869140625	0.422607421875	lower	../fonts/zerothre.ttf
2973.212	n/a	START	1486606	n/a	LTP269	ltpFR	14	n/a	n/a	n/a	n/a	n/a	n/a	n/a	n/a	n/a	n/a	n/a	n/a	n/a	n/a	n/a
2974.25	n/a	PROB	1487125	n/a	LTP269	ltpFR	14	n/a	n/a	n/a	n/a	n/a	n/a	17	6	3	8	n/a	n/a	n/a	n/a	n/a
2977.31	n/a	PROB	1488655	n/a	LTP269	ltpFR	14	n/a	n/a	n/a	n/a	n/a	n/a	13	4	4	5	n/a	n/a	n/a	n/a	n/a
2979.52	n/a	PROB	1489760	n/a	LTP269	ltpFR	14	n/a	n/a	n/a	n/a	n/a	n/a	16	9	1	6	n/a	n/a	n/a	n/a	n/a
2981.158	n/a	PROB	1490579	n/a	LTP269	ltpFR	14	n/a	n/a	n/a	n/a	n/a	n/a	8	3	4	1	n/a	n/a	n/a	n/a	n/a
2982.796	n/a	PROB	1491398	n/a	LTP269	ltpFR	14	n/a	n/a	n/a	n/a	n/a	n/a	25	7	9	9	n/a	n/a	n/a	n/a	n/a
2985.24	n/a	PROB	1492620	n/a	LTP269	ltpFR	14	n/a	n/a	n/a	n/a	n/a	n/a	9	6	1	2	n/a	n/a	n/a	n/a	n/a
2989.212	n/a	STOP	1494606	n/a	LTP269	ltpFR	14	n/a	n/a	n/a	n/a	n/a	n/a	n/a	n/a	n/a	n/a	n/a	n/a	n/a	n/a	n/a
2991.08	n/a	REC_START	1495540	n/a	LTP269	ltpFR	14	11	n/a	n/a	n/a	n/a	n/a	n/a	0	0	0	n/a	n/a	n/a	n/a	n/a
2992.782	n/a	REC_WORD	1496391	wordpools/wasnorm_wordpool_less_exclusions.txt	LTP269	ltpFR	14	11	1	STEREO	1378	n/a	0	n/a	0	0	0	n/a	n/a	n/a	n/a	n/a
2993.784	n/a	REC_WORD	1496892	wordpools/wasnorm_wordpool_less_exclusions.txt	LTP269	ltpFR	14	11	1	BREAST	171	n/a	0	n/a	0	0	0	n/a	n/a	n/a	n/a	n/a
2994.456	n/a	REC_WORD	1497228	wordpools/wasnorm_wordpool_less_exclusions.txt	LTP269	ltpFR	14	11	1	TOMATO	1476	n/a	1	n/a	0	0	0	n/a	n/a	n/a	n/a	n/a
2996.228	n/a	REC_WORD	1498114	wordpools/wasnorm_wordpool_less_exclusions.txt	LTP269	ltpFR	14	11	1	NOTE	958	n/a	0	n/a	0	0	0	n/a	n/a	n/a	n/a	n/a
2997.082	n/a	REC_WORD	1498541	wordpools/wasnorm_wordpool_less_exclusions.txt	LTP269	ltpFR	14	11	1	ENVELOPE	537	n/a	0	n/a	0	0	0	n/a	n/a	n/a	n/a	n/a
2998.194	n/a	REC_WORD	1499097	wordpools/wasnorm_wordpool_less_exclusions.txt	LTP269	ltpFR	14	11	1	DEPUTY	450	n/a	1	n/a	0	0	0	n/a	n/a	n/a	n/a	n/a
3000.096	n/a	REC_WORD	1500048	wordpools/wasnorm_wordpool_less_exclusions.txt	LTP269	ltpFR	14	11	1	COSTUME	383	n/a	0	n/a	0	0	0	n/a	n/a	n/a	n/a	n/a
3001.128	n/a	REC_WORD	1500564	wordpools/wasnorm_wordpool_less_exclusions.txt	LTP269	ltpFR	14	11	1	ROBE	1198	n/a	0	n/a	0	0	0	n/a	n/a	n/a	n/a	n/a
3002.93	n/a	REC_WORD	1501465	wordpools/wasnorm_wordpool_less_exclusions.txt	LTP269	ltpFR	14	11	1	BOY	161	n/a	1	n/a	0	0	0	n/a	n/a	n/a	n/a	n/a
3005.086	n/a	REC_WORD	1502543	wordpools/wasnorm_wordpool_less_exclusions.txt	LTP269	ltpFR	14	11	1	COURSE	390	n/a	0	n/a	0	0	0	n/a	n/a	n/a	n/a	n/a
3006.358	n/a	REC_WORD	1503179	wordpools/wasnorm_wordpool_less_exclusions.txt	LTP269	ltpFR	14	11	1	ENEMY	534	n/a	0	n/a	0	0	0	n/a	n/a	n/a	n/a	n/a
3009.136	n/a	REC_WORD	1504568	wordpools/wasnorm_wordpool_less_exclusions.txt	LTP269	ltpFR	14	11	1	SEAFOOD	1260	n/a	0	n/a	0	0	0	n/a	n/a	n/a	n/a	n/a
3016.42	n/a	REC_WORD	1508210	wordpools/wasnorm_wordpool_less_exclusions.txt	LTP269	ltpFR	14	11	1	RODENT	1204	n/a	1	n/a	0	0	0	n/a	n/a	n/a	n/a	n/a
3068.694	n/a	START	1534347	n/a	LTP269	ltpFR	14	n/a	n/a	n/a	n/a	n/a	n/a	n/a	n/a	n/a	n/a	n/a	n/a	n/a	n/a	n/a
3070.2	n/a	PROB	1535100	n/a	LTP269	ltpFR	14	n/a	n/a	n/a	n/a	n/a	n/a	16	5	9	2	n/a	n/a	n/a	n/a	n/a
3074.198	n/a	PROB	1537099	n/a	LTP269	ltpFR	14	n/a	n/a	n/a	n/a	n/a	n/a	10	6	2	2	n/a	n/a	n/a	n/a	n/a
3075.704	n/a	PROB	1537852	n/a	LTP269	ltpFR	14	n/a	n/a	n/a	n/a	n/a	n/a	20	2	9	9	n/a	n/a	n/a	n/a	n/a
3077.158	n/a	PROB	1538579	n/a	LTP269	ltpFR	14	n/a	n/a	n/a	n/a	n/a	n/a	21	9	5	7	n/a	n/a	n/a	n/a	n/a
3080.488	n/a	PROB	1540244	n/a	LTP269	ltpFR	14	n/a	n/a	n/a	n/a	n/a	n/a	16	2	6	8	n/a	n/a	n/a	n/a	n/a
3082.18	n/a	PROB	1541090	n/a	LTP269	ltpFR	14	n/a	n/a	n/a	n/a	n/a	n/a	16	6	8	4	n/a	n/a	n/a	n/a	n/a
3083.88	n/a	STOP	1541940	n/a	LTP269	ltpFR	14	n/a	n/a	n/a	n/a	n/a	n/a	n/a	n/a	n/a	n/a	n/a	n/a	n/a	n/a	n/a
3085.808	n/a	WORD	1542904	wordpools/wasnorm_wordpool_less_exclusions.txt	LTP269	ltpFR	14	12	0	BEGGAR	117	n/a	1	n/a	0	0	0	1	0.412841796875	0.57763671875	upper	../fonts/amplitud.ttf
3088.822	n/a	START	1544411	n/a	LTP269	ltpFR	14	n/a	n/a	n/a	n/a	n/a	n/a	n/a	n/a	n/a	n/a	n/a	n/a	n/a	n/a	n/a
3089.924	n/a	PROB	1544962	n/a	LTP269	ltpFR	14	n/a	n/a	n/a	n/a	n/a	n/a	16	3	5	8	n/a	n/a	n/a	n/a	n/a
3092.92	n/a	PROB	1546460	n/a	LTP269	ltpFR	14	n/a	n/a	n/a	n/a	n/a	n/a	14	4	9	1	n/a	n/a	n/a	n/a	n/a
3094.978	n/a	PROB	1547489	n/a	LTP269	ltpFR	14	n/a	n/a	n/a	n/a	n/a	n/a	15	2	9	3	n/a	n/a	n/a	n/a	n/a
3096.684	n/a	PROB	1548342	n/a	LTP269	ltpFR	14	n/a	n/a	n/a	n/a	n/a	n/a	13	4	8	1	n/a	n/a	n/a	n/a	n/a
3101.134	n/a	PROB	1550567	n/a	LTP269	ltpFR	14	n/a	n/a	n/a	n/a	n/a	n/a	18	6	3	9	n/a	n/a	n/a	n/a	n/a
3104.822	n/a	STOP	1552411	n/a	LTP269	ltpFR	14	n/a	n/a	n/a	n/a	n/a	n/a	n/a	n/a	n/a	n/a	n/a	n/a	n/a	n/a	n/a
3105.952	n/a	WORD	1552976	wordpools/wasnorm_wordpool_less_exclusions.txt	LTP269	ltpFR	14	12	0	SHOVEL	1295	n/a	1	n/a	0	0	0	1	0.412841796875	0.57763671875	upper	../fonts/amplitud.ttf
3108.964	n/a	START	1554482	n/a	LTP269	ltpFR	14	n/a	n/a	n/a	n/a	n/a	n/a	n/a	n/a	n/a	n/a	n/a	n/a	n/a	n/a	n/a
3109.816	n/a	PROB	1554908	n/a	LTP269	ltpFR	14	n/a	n/a	n/a	n/a	n/a	n/a	14	2	9	3	n/a	n/a	n/a	n/a	n/a
3112.392	n/a	PROB	1556196	n/a	LTP269	ltpFR	14	n/a	n/a	n/a	n/a	n/a	n/a	15	3	9	3	n/a	n/a	n/a	n/a	n/a
3113.83	n/a	PROB	1556915	n/a	LTP269	ltpFR	14	n/a	n/a	n/a	n/a	n/a	n/a	19	5	6	8	n/a	n/a	n/a	n/a	n/a
3116.46	n/a	PROB	1558230	n/a	LTP269	ltpFR	14	n/a	n/a	n/a	n/a	n/a	n/a	16	6	5	5	n/a	n/a	n/a	n/a	n/a
3117.998	n/a	PROB	1558999	n/a	LTP269	ltpFR	14	n/a	n/a	n/a	n/a	n/a	n/a	14	4	6	4	n/a	n/a	n/a	n/a	n/a
3119.538	n/a	PROB	1559769	n/a	LTP269	ltpFR	14	n/a	n/a	n/a	n/a	n/a	n/a	15	3	5	7	n/a	n/a	n/a	n/a	n/a
3121.394	n/a	PROB	1560697	n/a	LTP269	ltpFR	14	n/a	n/a	n/a	n/a	n/a	n/a	19	8	8	3	n/a	n/a	n/a	n/a	n/a
3123.37	n/a	PROB	1561685	n/a	LTP269	ltpFR	14	n/a	n/a	n/a	n/a	n/a	n/a	19	2	8	9	n/a	n/a	n/a	n/a	n/a
