onset	duration	trial_type	sample	stim_file	subject	experiment	session	trial	task	item_name	item_num	recog_conf	resp	answer	test_x	test_y	test_z	color_b	color_g	color_r	case	font
240.992	n/a	SESS_START	120496	n/a	LTP258	ltpFR	15	n/a	n/a	n/a	n/a	2	n/a	n/a	0	0	0	n/a	n/a	n/a	n/a	n/a
258.98	n/a	START	129490	n/a	LTP258	ltpFR	15	n/a	n/a	n/a	n/a	n/a	n/a	n/a	n/a	n/a	n/a	n/a	n/a	n/a	n/a	n/a
259.03	n/a	PROB	129515	n/a	LTP258	ltpFR	15	n/a	n/a	n/a	n/a	n/a	n/a	23	9	8	8	n/a	n/a	n/a	n/a	n/a
261.004	n/a	PROB	130502	n/a	LTP258	ltpFR	15	n/a	n/a	n/a	n/a	n/a	n/a	15	5	3	7	n/a	n/a	n/a	n/a	n/a
262.778	n/a	PROB	131389	n/a	LTP258	ltpFR	15	n/a	n/a	n/a	n/a	n/a	n/a	11	1	6	4	n/a	n/a	n/a	n/a	n/a
263.882	n/a	PROB	131941	n/a	LTP258	ltpFR	15	n/a	n/a	n/a	n/a	n/a	n/a	20	5	2	9	n/a	n/a	n/a	n/a	n/a
265.136	n/a	PROB	132568	n/a	LTP258	ltpFR	15	n/a	n/a	n/a	n/a	n/a	n/a	18	6	4	8	n/a	n/a	n/a	n/a	n/a
266.124	n/a	PROB	133062	n/a	LTP258	ltpFR	15	n/a	n/a	n/a	n/a	n/a	n/a	15	2	8	5	n/a	n/a	n/a	n/a	n/a
267.68	n/a	PROB	133840	n/a	LTP258	ltpFR	15	n/a	n/a	n/a	n/a	n/a	n/a	17	3	8	6	n/a	n/a	n/a	n/a	n/a
269.304	n/a	PROB	134652	n/a	LTP258	ltpFR	15	n/a	n/a	n/a	n/a	n/a	n/a	14	5	7	2	n/a	n/a	n/a	n/a	n/a
270.574	n/a	PROB	135287	n/a	LTP258	ltpFR	15	n/a	n/a	n/a	n/a	n/a	n/a	8	2	2	4	n/a	n/a	n/a	n/a	n/a
272.314	n/a	PROB	136157	n/a	LTP258	ltpFR	15	n/a	n/a	n/a	n/a	n/a	n/a	15	9	3	3	n/a	n/a	n/a	n/a	n/a
273.832	n/a	PROB	136916	n/a	LTP258	ltpFR	15	n/a	n/a	n/a	n/a	n/a	n/a	17	5	3	7	n/a	n/a	n/a	n/a	n/a
275.024	n/a	PROB	137512	n/a	LTP258	ltpFR	15	n/a	n/a	n/a	n/a	n/a	n/a	16	4	7	5	n/a	n/a	n/a	n/a	n/a
277.67	n/a	STOP	138835	n/a	LTP258	ltpFR	15	n/a	n/a	n/a	n/a	n/a	n/a	n/a	n/a	n/a	n/a	n/a	n/a	n/a	n/a	n/a
304.036	n/a	WORD	152018	wordpools/wasnorm_wordpool_less_exclusions.txt	LTP258	ltpFR	15	1	1	AIRPORT	13	n/a	0	n/a	0	0	0	0	0.5869140625	0.422607421875	upper	../fonts/amplitud.ttf
308.034	n/a	WORD	154017	wordpools/wasnorm_wordpool_less_exclusions.txt	LTP258	ltpFR	15	1	1	COW	393	n/a	1	n/a	0	0	0	0	0.5869140625	0.422607421875	upper	../fonts/amplitud.ttf
312.028	n/a	WORD	156014	wordpools/wasnorm_wordpool_less_exclusions.txt	LTP258	ltpFR	15	1	1	FRAME	600	n/a	0	n/a	0	0	0	0	0.5869140625	0.422607421875	upper	../fonts/amplitud.ttf
316.182	n/a	WORD	158091	wordpools/wasnorm_wordpool_less_exclusions.txt	LTP258	ltpFR	15	1	1	GIRL	637	n/a	1	n/a	0	0	0	0	0.5869140625	0.422607421875	upper	../fonts/amplitud.ttf
320.198	n/a	WORD	160099	wordpools/wasnorm_wordpool_less_exclusions.txt	LTP258	ltpFR	15	1	1	DISH	474	n/a	0	n/a	0	0	0	0	0.5869140625	0.422607421875	upper	../fonts/amplitud.ttf
324.096	n/a	WORD	162048	wordpools/wasnorm_wordpool_less_exclusions.txt	LTP258	ltpFR	15	1	1	TERMINAL	1450	n/a	0	n/a	0	0	0	0	0.5869140625	0.422607421875	upper	../fonts/amplitud.ttf
328.228	n/a	WORD	164114	wordpools/wasnorm_wordpool_less_exclusions.txt	LTP258	ltpFR	15	1	1	CHEMICAL	291	n/a	0	n/a	0	0	0	0	0.5869140625	0.422607421875	upper	../fonts/amplitud.ttf
332.19	n/a	WORD	166095	wordpools/wasnorm_wordpool_less_exclusions.txt	LTP258	ltpFR	15	1	1	FARMER	553	n/a	1	n/a	0	0	0	0	0.5869140625	0.422607421875	upper	../fonts/amplitud.ttf
336.322	n/a	WORD	168161	wordpools/wasnorm_wordpool_less_exclusions.txt	LTP258	ltpFR	15	1	1	TART	1436	n/a	0	n/a	0	0	0	0	0.5869140625	0.422607421875	upper	../fonts/amplitud.ttf
340.358	n/a	WORD	170179	wordpools/wasnorm_wordpool_less_exclusions.txt	LTP258	ltpFR	15	1	1	TUBA	1515	n/a	0	n/a	0	0	0	0	0.5869140625	0.422607421875	upper	../fonts/amplitud.ttf
344.54	n/a	WORD	172270	wordpools/wasnorm_wordpool_less_exclusions.txt	LTP258	ltpFR	15	1	1	CONCERT	360	n/a	0	n/a	0	0	0	0	0.5869140625	0.422607421875	upper	../fonts/amplitud.ttf
348.74	n/a	WORD	174370	wordpools/wasnorm_wordpool_less_exclusions.txt	LTP258	ltpFR	15	1	1	MAGICIAN	854	n/a	1	n/a	0	0	0	0	0.5869140625	0.422607421875	upper	../fonts/amplitud.ttf
352.938	n/a	WORD	176469	wordpools/wasnorm_wordpool_less_exclusions.txt	LTP258	ltpFR	15	1	1	FAIRY	549	n/a	1	n/a	0	0	0	0	0.5869140625	0.422607421875	upper	../fonts/amplitud.ttf
357.036	n/a	WORD	178518	wordpools/wasnorm_wordpool_less_exclusions.txt	LTP258	ltpFR	15	1	1	CYLINDER	432	n/a	0	n/a	0	0	0	0	0.5869140625	0.422607421875	upper	../fonts/amplitud.ttf
360.998	n/a	WORD	180499	wordpools/wasnorm_wordpool_less_exclusions.txt	LTP258	ltpFR	15	1	1	WORLD	1622	n/a	1	n/a	0	0	0	0	0.5869140625	0.422607421875	upper	../fonts/amplitud.ttf
364.918	n/a	WORD	182459	wordpools/wasnorm_wordpool_less_exclusions.txt	LTP258	ltpFR	15	1	1	MOLECULE	905	n/a	0	n/a	0	0	0	0	0.5869140625	0.422607421875	upper	../fonts/amplitud.ttf
367.93	n/a	START	183965	n/a	LTP258	ltpFR	15	n/a	n/a	n/a	n/a	n/a	n/a	n/a	n/a	n/a	n/a	n/a	n/a	n/a	n/a	n/a
368.866	n/a	PROB	184433	n/a	LTP258	ltpFR	15	n/a	n/a	n/a	n/a	n/a	n/a	10	2	7	1	n/a	n/a	n/a	n/a	n/a
370.606	n/a	PROB	185303	n/a	LTP258	ltpFR	15	n/a	n/a	n/a	n/a	n/a	n/a	17	4	4	9	n/a	n/a	n/a	n/a	n/a
372.696	n/a	PROB	186348	n/a	LTP258	ltpFR	15	n/a	n/a	n/a	n/a	n/a	n/a	9	4	3	2	n/a	n/a	n/a	n/a	n/a
375.508	n/a	STOP	187754	n/a	LTP258	ltpFR	15	n/a	n/a	n/a	n/a	n/a	n/a	n/a	n/a	n/a	n/a	n/a	n/a	n/a	n/a	n/a
377.868	n/a	REC_START	188934	n/a	LTP258	ltpFR	15	1	n/a	n/a	n/a	n/a	n/a	n/a	0	0	0	n/a	n/a	n/a	n/a	n/a
379.974	n/a	REC_WORD	189987	wordpools/wasnorm_wordpool_less_exclusions.txt	LTP258	ltpFR	15	1	1	MOLECULE	905	n/a	0	n/a	0	0	0	n/a	n/a	n/a	n/a	n/a
382.568	n/a	REC_WORD	191284	wordpools/wasnorm_wordpool_less_exclusions.txt	LTP258	ltpFR	15	1	1	CHEMICAL	291	n/a	0	n/a	0	0	0	n/a	n/a	n/a	n/a	n/a
385.54	n/a	REC_WORD	192770	wordpools/wasnorm_wordpool_less_exclusions.txt	LTP258	ltpFR	15	1	1	MAGICIAN	854	n/a	1	n/a	0	0	0	n/a	n/a	n/a	n/a	n/a
386.968	n/a	REC_WORD	193484	wordpools/wasnorm_wordpool_less_exclusions.txt	LTP258	ltpFR	15	1	1	FAIRY	549	n/a	1	n/a	0	0	0	n/a	n/a	n/a	n/a	n/a
388.254	n/a	REC_WORD	194127	wordpools/wasnorm_wordpool_less_exclusions.txt	LTP258	ltpFR	15	1	1	TUBA	1515	n/a	0	n/a	0	0	0	n/a	n/a	n/a	n/a	n/a
389.504	n/a	REC_WORD	194752	wordpools/wasnorm_wordpool_less_exclusions.txt	LTP258	ltpFR	15	1	1	TART	1436	n/a	0	n/a	0	0	0	n/a	n/a	n/a	n/a	n/a
390.642	n/a	REC_WORD	195321	wordpools/wasnorm_wordpool_less_exclusions.txt	LTP258	ltpFR	15	1	1	CONCERT	360	n/a	0	n/a	0	0	0	n/a	n/a	n/a	n/a	n/a
394.13	n/a	REC_WORD	197065	wordpools/wasnorm_wordpool_less_exclusions.txt	LTP258	ltpFR	15	1	1	GIRL	637	n/a	1	n/a	0	0	0	n/a	n/a	n/a	n/a	n/a
395.158	n/a	REC_WORD	197579	wordpools/wasnorm_wordpool_less_exclusions.txt	LTP258	ltpFR	15	1	1	COW	393	n/a	1	n/a	0	0	0	n/a	n/a	n/a	n/a	n/a
396.04	n/a	REC_WORD	198020	wordpools/wasnorm_wordpool_less_exclusions.txt	LTP258	ltpFR	15	1	1	FARMER	553	n/a	1	n/a	0	0	0	n/a	n/a	n/a	n/a	n/a
399.426	n/a	REC_WORD	199713	wordpools/wasnorm_wordpool_less_exclusions.txt	LTP258	ltpFR	15	1	1	AIRPORT	13	n/a	0	n/a	0	0	0	n/a	n/a	n/a	n/a	n/a
400.294	n/a	REC_WORD	200147	wordpools/wasnorm_wordpool_less_exclusions.txt	LTP258	ltpFR	15	1	1	TERMINAL	1450	n/a	0	n/a	0	0	0	n/a	n/a	n/a	n/a	n/a
456.386	n/a	START	228193	n/a	LTP258	ltpFR	15	n/a	n/a	n/a	n/a	n/a	n/a	n/a	n/a	n/a	n/a	n/a	n/a	n/a	n/a	n/a
457.906	n/a	PROB	228953	n/a	LTP258	ltpFR	15	n/a	n/a	n/a	n/a	n/a	n/a	14	7	4	3	n/a	n/a	n/a	n/a	n/a
459.562	n/a	PROB	229781	n/a	LTP258	ltpFR	15	n/a	n/a	n/a	n/a	n/a	n/a	14	8	3	3	n/a	n/a	n/a	n/a	n/a
461.604	n/a	PROB	230802	n/a	LTP258	ltpFR	15	n/a	n/a	n/a	n/a	n/a	n/a	18	6	7	5	n/a	n/a	n/a	n/a	n/a
464.008	n/a	STOP	232004	n/a	LTP258	ltpFR	15	n/a	n/a	n/a	n/a	n/a	n/a	n/a	n/a	n/a	n/a	n/a	n/a	n/a	n/a	n/a
465.386	n/a	WORD	232693	wordpools/wasnorm_wordpool_less_exclusions.txt	LTP258	ltpFR	15	2	0	REFRIGERATOR	1179	n/a	0	n/a	0	0	0	1	0.412841796875	0.57763671875	lower	../fonts/zerothre.ttf
468.396	n/a	START	234198	n/a	LTP258	ltpFR	15	n/a	n/a	n/a	n/a	n/a	n/a	n/a	n/a	n/a	n/a	n/a	n/a	n/a	n/a	n/a
469.484	n/a	PROB	234742	n/a	LTP258	ltpFR	15	n/a	n/a	n/a	n/a	n/a	n/a	14	4	6	4	n/a	n/a	n/a	n/a	n/a
471.106	n/a	PROB	235553	n/a	LTP258	ltpFR	15	n/a	n/a	n/a	n/a	n/a	n/a	17	4	8	5	n/a	n/a	n/a	n/a	n/a
472.894	n/a	PROB	236447	n/a	LTP258	ltpFR	15	n/a	n/a	n/a	n/a	n/a	n/a	22	9	8	4	n/a	n/a	n/a	n/a	n/a
474.834	n/a	STOP	237417	n/a	LTP258	ltpFR	15	n/a	n/a	n/a	n/a	n/a	n/a	n/a	n/a	n/a	n/a	n/a	n/a	n/a	n/a	n/a
477.314	n/a	WORD	238657	wordpools/wasnorm_wordpool_less_exclusions.txt	LTP258	ltpFR	15	2	0	LAKE	796	n/a	1	n/a	0	0	0	1	0.412841796875	0.57763671875	lower	../fonts/zerothre.ttf
480.326	n/a	START	240163	n/a	LTP258	ltpFR	15	n/a	n/a	n/a	n/a	n/a	n/a	n/a	n/a	n/a	n/a	n/a	n/a	n/a	n/a	n/a
481.146	n/a	PROB	240573	n/a	LTP258	ltpFR	15	n/a	n/a	n/a	n/a	n/a	n/a	13	7	3	3	n/a	n/a	n/a	n/a	n/a
482.334	n/a	PROB	241167	n/a	LTP258	ltpFR	15	n/a	n/a	n/a	n/a	n/a	n/a	19	8	6	5	n/a	n/a	n/a	n/a	n/a
483.888	n/a	PROB	241944	n/a	LTP258	ltpFR	15	n/a	n/a	n/a	n/a	n/a	n/a	19	4	8	7	n/a	n/a	n/a	n/a	n/a
485.528	n/a	PROB	242764	n/a	LTP258	ltpFR	15	n/a	n/a	n/a	n/a	n/a	n/a	19	4	9	6	n/a	n/a	n/a	n/a	n/a
486.746	n/a	PROB	243373	n/a	LTP258	ltpFR	15	n/a	n/a	n/a	n/a	n/a	n/a	16	8	4	4	n/a	n/a	n/a	n/a	n/a
488.13	n/a	STOP	244065	n/a	LTP258	ltpFR	15	n/a	n/a	n/a	n/a	n/a	n/a	n/a	n/a	n/a	n/a	n/a	n/a	n/a	n/a	n/a
489.526	n/a	WORD	244763	wordpools/wasnorm_wordpool_less_exclusions.txt	LTP258	ltpFR	15	2	0	BRACELET	163	n/a	0	n/a	0	0	0	1	0.412841796875	0.57763671875	lower	../fonts/zerothre.ttf
492.54	n/a	START	246270	n/a	LTP258	ltpFR	15	n/a	n/a	n/a	n/a	n/a	n/a	n/a	n/a	n/a	n/a	n/a	n/a	n/a	n/a	n/a
493.644	n/a	PROB	246822	n/a	LTP258	ltpFR	15	n/a	n/a	n/a	n/a	n/a	n/a	11	3	6	2	n/a	n/a	n/a	n/a	n/a
494.994	n/a	PROB	247497	n/a	LTP258	ltpFR	15	n/a	n/a	n/a	n/a	n/a	n/a	18	8	8	2	n/a	n/a	n/a	n/a	n/a
496.388	n/a	PROB	248194	n/a	LTP258	ltpFR	15	n/a	n/a	n/a	n/a	n/a	n/a	19	1	3	5	n/a	n/a	n/a	n/a	n/a
498.962	n/a	STOP	249481	n/a	LTP258	ltpFR	15	n/a	n/a	n/a	n/a	n/a	n/a	n/a	n/a	n/a	n/a	n/a	n/a	n/a	n/a	n/a
501.736	n/a	WORD	250868	wordpools/wasnorm_wordpool_less_exclusions.txt	LTP258	ltpFR	15	2	0	TABLE	1426	n/a	1	n/a	0	0	0	1	0.412841796875	0.57763671875	lower	../fonts/zerothre.ttf
504.752	n/a	START	252376	n/a	LTP258	ltpFR	15	n/a	n/a	n/a	n/a	n/a	n/a	n/a	n/a	n/a	n/a	n/a	n/a	n/a	n/a	n/a
505.84	n/a	PROB	252920	n/a	LTP258	ltpFR	15	n/a	n/a	n/a	n/a	n/a	n/a	17	5	8	4	n/a	n/a	n/a	n/a	n/a
507.324	n/a	PROB	253662	n/a	LTP258	ltpFR	15	n/a	n/a	n/a	n/a	n/a	n/a	18	7	7	4	n/a	n/a	n/a	n/a	n/a
509.046	n/a	PROB	254523	n/a	LTP258	ltpFR	15	n/a	n/a	n/a	n/a	n/a	n/a	16	2	6	8	n/a	n/a	n/a	n/a	n/a
510.654	n/a	PROB	255327	n/a	LTP258	ltpFR	15	n/a	n/a	n/a	n/a	n/a	n/a	18	7	7	2	n/a	n/a	n/a	n/a	n/a
512.14	n/a	STOP	256070	n/a	LTP258	ltpFR	15	n/a	n/a	n/a	n/a	n/a	n/a	n/a	n/a	n/a	n/a	n/a	n/a	n/a	n/a	n/a
513.938	n/a	WORD	256969	wordpools/wasnorm_wordpool_less_exclusions.txt	LTP258	ltpFR	15	2	0	CHIP	303	n/a	0	n/a	0	0	0	1	0.412841796875	0.57763671875	lower	../fonts/zerothre.ttf
516.95	n/a	START	258475	n/a	LTP258	ltpFR	15	n/a	n/a	n/a	n/a	n/a	n/a	n/a	n/a	n/a	n/a	n/a	n/a	n/a	n/a	n/a
517.818	n/a	PROB	258909	n/a	LTP258	ltpFR	15	n/a	n/a	n/a	n/a	n/a	n/a	13	5	3	5	n/a	n/a	n/a	n/a	n/a
519.838	n/a	PROB	259919	n/a	LTP258	ltpFR	15	n/a	n/a	n/a	n/a	n/a	n/a	14	4	6	4	n/a	n/a	n/a	n/a	n/a
521.296	n/a	PROB	260648	n/a	LTP258	ltpFR	15	n/a	n/a	n/a	n/a	n/a	n/a	14	9	4	1	n/a	n/a	n/a	n/a	n/a
522.52	n/a	PROB	261260	n/a	LTP258	ltpFR	15	n/a	n/a	n/a	n/a	n/a	n/a	18	7	4	7	n/a	n/a	n/a	n/a	n/a
524.34	n/a	STOP	262170	n/a	LTP258	ltpFR	15	n/a	n/a	n/a	n/a	n/a	n/a	n/a	n/a	n/a	n/a	n/a	n/a	n/a	n/a	n/a
526.046	n/a	WORD	263023	wordpools/wasnorm_wordpool_less_exclusions.txt	LTP258	ltpFR	15	2	0	KLEENEX	782	n/a	0	n/a	0	0	0	1	0.412841796875	0.57763671875	lower	../fonts/zerothre.ttf
529.062	n/a	START	264531	n/a	LTP258	ltpFR	15	n/a	n/a	n/a	n/a	n/a	n/a	n/a	n/a	n/a	n/a	n/a	n/a	n/a	n/a	n/a
530.112	n/a	PROB	265056	n/a	LTP258	ltpFR	15	n/a	n/a	n/a	n/a	n/a	n/a	11	9	1	1	n/a	n/a	n/a	n/a	n/a
531.116	n/a	PROB	265558	n/a	LTP258	ltpFR	15	n/a	n/a	n/a	n/a	n/a	n/a	15	5	8	2	n/a	n/a	n/a	n/a	n/a
533.04	n/a	PROB	266520	n/a	LTP258	ltpFR	15	n/a	n/a	n/a	n/a	n/a	n/a	11	1	9	1	n/a	n/a	n/a	n/a	n/a
537.062	n/a	STOP	268531	n/a	LTP258	ltpFR	15	n/a	n/a	n/a	n/a	n/a	n/a	n/a	n/a	n/a	n/a	n/a	n/a	n/a	n/a	n/a
538.012	n/a	WORD	269006	wordpools/wasnorm_wordpool_less_exclusions.txt	LTP258	ltpFR	15	2	0	ARTERY	41	n/a	0	n/a	0	0	0	1	0.412841796875	0.57763671875	lower	../fonts/zerothre.ttf
541.024	n/a	START	270512	n/a	LTP258	ltpFR	15	n/a	n/a	n/a	n/a	n/a	n/a	n/a	n/a	n/a	n/a	n/a	n/a	n/a	n/a	n/a
541.928	n/a	PROB	270964	n/a	LTP258	ltpFR	15	n/a	n/a	n/a	n/a	n/a	n/a	13	3	3	7	n/a	n/a	n/a	n/a	n/a
543.078	n/a	PROB	271539	n/a	LTP258	ltpFR	15	n/a	n/a	n/a	n/a	n/a	n/a	13	2	6	5	n/a	n/a	n/a	n/a	n/a
544.884	n/a	PROB	272442	n/a	LTP258	ltpFR	15	n/a	n/a	n/a	n/a	n/a	n/a	8	4	3	1	n/a	n/a	n/a	n/a	n/a
546.088	n/a	PROB	273044	n/a	LTP258	ltpFR	15	n/a	n/a	n/a	n/a	n/a	n/a	19	3	9	7	n/a	n/a	n/a	n/a	n/a
549.024	n/a	STOP	274512	n/a	LTP258	ltpFR	15	n/a	n/a	n/a	n/a	n/a	n/a	n/a	n/a	n/a	n/a	n/a	n/a	n/a	n/a	n/a
550.206	n/a	WORD	275103	wordpools/wasnorm_wordpool_less_exclusions.txt	LTP258	ltpFR	15	2	0	GOLD	647	n/a	0	n/a	0	0	0	1	0.412841796875	0.57763671875	lower	../fonts/zerothre.ttf
553.222	n/a	START	276611	n/a	LTP258	ltpFR	15	n/a	n/a	n/a	n/a	n/a	n/a	n/a	n/a	n/a	n/a	n/a	n/a	n/a	n/a	n/a
554.09	n/a	PROB	277045	n/a	LTP258	ltpFR	15	n/a	n/a	n/a	n/a	n/a	n/a	12	2	8	2	n/a	n/a	n/a	n/a	n/a
555.174	n/a	PROB	277587	n/a	LTP258	ltpFR	15	n/a	n/a	n/a	n/a	n/a	n/a	15	1	6	8	n/a	n/a	n/a	n/a	n/a
557.67	n/a	PROB	278835	n/a	LTP258	ltpFR	15	n/a	n/a	n/a	n/a	n/a	n/a	24	8	9	8	n/a	n/a	n/a	n/a	n/a
559.39	n/a	PROB	279695	n/a	LTP258	ltpFR	15	n/a	n/a	n/a	n/a	n/a	n/a	12	2	7	3	n/a	n/a	n/a	n/a	n/a
560.846	n/a	STOP	280423	n/a	LTP258	ltpFR	15	n/a	n/a	n/a	n/a	n/a	n/a	n/a	n/a	n/a	n/a	n/a	n/a	n/a	n/a	n/a
562.222	n/a	WORD	281111	wordpools/wasnorm_wordpool_less_exclusions.txt	LTP258	ltpFR	15	2	0	MEDAL	885	n/a	0	n/a	0	0	0	1	0.412841796875	0.57763671875	lower	../fonts/zerothre.ttf
565.234	n/a	START	282617	n/a	LTP258	ltpFR	15	n/a	n/a	n/a	n/a	n/a	n/a	n/a	n/a	n/a	n/a	n/a	n/a	n/a	n/a	n/a
566.304	n/a	PROB	283152	n/a	LTP258	ltpFR	15	n/a	n/a	n/a	n/a	n/a	n/a	196	9	9	1	n/a	n/a	n/a	n/a	n/a
568.078	n/a	PROB	284039	n/a	LTP258	ltpFR	15	n/a	n/a	n/a	n/a	n/a	n/a	12	2	8	2	n/a	n/a	n/a	n/a	n/a
569.896	n/a	PROB	284948	n/a	LTP258	ltpFR	15	n/a	n/a	n/a	n/a	n/a	n/a	11	3	1	7	n/a	n/a	n/a	n/a	n/a
570.884	n/a	PROB	285442	n/a	LTP258	ltpFR	15	n/a	n/a	n/a	n/a	n/a	n/a	14	7	1	6	n/a	n/a	n/a	n/a	n/a
572.726	n/a	STOP	286363	n/a	LTP258	ltpFR	15	n/a	n/a	n/a	n/a	n/a	n/a	n/a	n/a	n/a	n/a	n/a	n/a	n/a	n/a	n/a
574.168	n/a	WORD	287084	wordpools/wasnorm_wordpool_less_exclusions.txt	LTP258	ltpFR	15	2	0	MARS	873	n/a	1	n/a	0	0	0	1	0.412841796875	0.57763671875	lower	../fonts/zerothre.ttf
577.18	n/a	START	288590	n/a	LTP258	ltpFR	15	n/a	n/a	n/a	n/a	n/a	n/a	n/a	n/a	n/a	n/a	n/a	n/a	n/a	n/a	n/a
578.25	n/a	PROB	289125	n/a	LTP258	ltpFR	15	n/a	n/a	n/a	n/a	n/a	n/a	247	9	9	9	n/a	n/a	n/a	n/a	n/a
579.852	n/a	PROB	289926	n/a	LTP258	ltpFR	15	n/a	n/a	n/a	n/a	n/a	n/a	14	4	4	6	n/a	n/a	n/a	n/a	n/a
581.178	n/a	PROB	290589	n/a	LTP258	ltpFR	15	n/a	n/a	n/a	n/a	n/a	n/a	14	6	6	2	n/a	n/a	n/a	n/a	n/a
582.846	n/a	PROB	291423	n/a	LTP258	ltpFR	15	n/a	n/a	n/a	n/a	n/a	n/a	7	2	4	1	n/a	n/a	n/a	n/a	n/a
584.328	n/a	STOP	292164	n/a	LTP258	ltpFR	15	n/a	n/a	n/a	n/a	n/a	n/a	n/a	n/a	n/a	n/a	n/a	n/a	n/a	n/a	n/a
586.278	n/a	WORD	293139	wordpools/wasnorm_wordpool_less_exclusions.txt	LTP258	ltpFR	15	2	0	LIVER	833	n/a	0	n/a	0	0	0	1	0.412841796875	0.57763671875	lower	../fonts/zerothre.ttf
589.294	n/a	START	294647	n/a	LTP258	ltpFR	15	n/a	n/a	n/a	n/a	n/a	n/a	n/a	n/a	n/a	n/a	n/a	n/a	n/a	n/a	n/a
590.296	n/a	PROB	295148	n/a	LTP258	ltpFR	15	n/a	n/a	n/a	n/a	n/a	n/a	24	8	8	8	n/a	n/a	n/a	n/a	n/a
592.8	n/a	PROB	296400	n/a	LTP258	ltpFR	15	n/a	n/a	n/a	n/a	n/a	n/a	19	8	6	3	n/a	n/a	n/a	n/a	n/a
595.992	n/a	STOP	297996	n/a	LTP258	ltpFR	15	n/a	n/a	n/a	n/a	n/a	n/a	n/a	n/a	n/a	n/a	n/a	n/a	n/a	n/a	n/a
598.21	n/a	WORD	299105	wordpools/wasnorm_wordpool_less_exclusions.txt	LTP258	ltpFR	15	2	0	KEG	770	n/a	1	n/a	0	0	0	1	0.412841796875	0.57763671875	lower	../fonts/zerothre.ttf
601.222	n/a	START	300611	n/a	LTP258	ltpFR	15	n/a	n/a	n/a	n/a	n/a	n/a	n/a	n/a	n/a	n/a	n/a	n/a	n/a	n/a	n/a
602.424	n/a	PROB	301212	n/a	LTP258	ltpFR	15	n/a	n/a	n/a	n/a	n/a	n/a	20	7	6	7	n/a	n/a	n/a	n/a	n/a
604.296	n/a	PROB	302148	n/a	LTP258	ltpFR	15	n/a	n/a	n/a	n/a	n/a	n/a	13	9	2	1	n/a	n/a	n/a	n/a	n/a
605.704	n/a	PROB	302852	n/a	LTP258	ltpFR	15	n/a	n/a	n/a	n/a	n/a	n/a	16	5	8	3	n/a	n/a	n/a	n/a	n/a
608.736	n/a	STOP	304368	n/a	LTP258	ltpFR	15	n/a	n/a	n/a	n/a	n/a	n/a	n/a	n/a	n/a	n/a	n/a	n/a	n/a	n/a	n/a
610.138	n/a	WORD	305069	wordpools/wasnorm_wordpool_less_exclusions.txt	LTP258	ltpFR	15	2	0	LOUNGE	845	n/a	1	n/a	0	0	0	1	0.412841796875	0.57763671875	lower	../fonts/zerothre.ttf
613.15	n/a	START	306575	n/a	LTP258	ltpFR	15	n/a	n/a	n/a	n/a	n/a	n/a	n/a	n/a	n/a	n/a	n/a	n/a	n/a	n/a	n/a
614.304	n/a	PROB	307152	n/a	LTP258	ltpFR	15	n/a	n/a	n/a	n/a	n/a	n/a	8	1	1	7	n/a	n/a	n/a	n/a	n/a
615.642	n/a	PROB	307821	n/a	LTP258	ltpFR	15	n/a	n/a	n/a	n/a	n/a	n/a	17	1	7	9	n/a	n/a	n/a	n/a	n/a
618.186	n/a	PROB	309093	n/a	LTP258	ltpFR	15	n/a	n/a	n/a	n/a	n/a	n/a	10	4	5	1	n/a	n/a	n/a	n/a	n/a
620.6	n/a	STOP	310300	n/a	LTP258	ltpFR	15	n/a	n/a	n/a	n/a	n/a	n/a	n/a	n/a	n/a	n/a	n/a	n/a	n/a	n/a	n/a
622.286	n/a	WORD	311143	wordpools/wasnorm_wordpool_less_exclusions.txt	LTP258	ltpFR	15	2	0	VAMPIRE	1547	n/a	1	n/a	0	0	0	1	0.412841796875	0.57763671875	lower	../fonts/zerothre.ttf
625.298	n/a	START	312649	n/a	LTP258	ltpFR	15	n/a	n/a	n/a	n/a	n/a	n/a	n/a	n/a	n/a	n/a	n/a	n/a	n/a	n/a	n/a
626.484	n/a	PROB	313242	n/a	LTP258	ltpFR	15	n/a	n/a	n/a	n/a	n/a	n/a	12	1	2	9	n/a	n/a	n/a	n/a	n/a
628.442	n/a	PROB	314221	n/a	LTP258	ltpFR	15	n/a	n/a	n/a	n/a	n/a	n/a	17	8	5	4	n/a	n/a	n/a	n/a	n/a
629.81	n/a	PROB	314905	n/a	LTP258	ltpFR	15	n/a	n/a	n/a	n/a	n/a	n/a	18777	8	3	6	n/a	n/a	n/a	n/a	n/a
632.834	n/a	STOP	316417	n/a	LTP258	ltpFR	15	n/a	n/a	n/a	n/a	n/a	n/a	n/a	n/a	n/a	n/a	n/a	n/a	n/a	n/a	n/a
634.41	n/a	WORD	317205	wordpools/wasnorm_wordpool_less_exclusions.txt	LTP258	ltpFR	15	2	0	WRIST	1626	n/a	0	n/a	0	0	0	1	0.412841796875	0.57763671875	lower	../fonts/zerothre.ttf
637.426	n/a	START	318713	n/a	LTP258	ltpFR	15	n/a	n/a	n/a	n/a	n/a	n/a	n/a	n/a	n/a	n/a	n/a	n/a	n/a	n/a	n/a
638.342	n/a	PROB	319171	n/a	LTP258	ltpFR	15	n/a	n/a	n/a	n/a	n/a	n/a	18	8	3	7	n/a	n/a	n/a	n/a	n/a
640.148	n/a	PROB	320074	n/a	LTP258	ltpFR	15	n/a	n/a	n/a	n/a	n/a	n/a	14	5	2	7	n/a	n/a	n/a	n/a	n/a
642.976	n/a	PROB	321488	n/a	LTP258	ltpFR	15	n/a	n/a	n/a	n/a	n/a	n/a	20	8	7	5	n/a	n/a	n/a	n/a	n/a
645.01	n/a	STOP	322505	n/a	LTP258	ltpFR	15	n/a	n/a	n/a	n/a	n/a	n/a	n/a	n/a	n/a	n/a	n/a	n/a	n/a	n/a	n/a
646.51	n/a	WORD	323255	wordpools/wasnorm_wordpool_less_exclusions.txt	LTP258	ltpFR	15	2	0	REINDEER	1181	n/a	1	n/a	0	0	0	1	0.412841796875	0.57763671875	lower	../fonts/zerothre.ttf
649.522	n/a	START	324761	n/a	LTP258	ltpFR	15	n/a	n/a	n/a	n/a	n/a	n/a	n/a	n/a	n/a	n/a	n/a	n/a	n/a	n/a	n/a
650.554	n/a	PROB	325277	n/a	LTP258	ltpFR	15	n/a	n/a	n/a	n/a	n/a	n/a	27	9	6	9	n/a	n/a	n/a	n/a	n/a
654.018	n/a	PROB	327009	n/a	LTP258	ltpFR	15	n/a	n/a	n/a	n/a	n/a	n/a	6	2	2	2	n/a	n/a	n/a	n/a	n/a
655.658	n/a	PROB	327829	n/a	LTP258	ltpFR	15	n/a	n/a	n/a	n/a	n/a	n/a	12	4	1	7	n/a	n/a	n/a	n/a	n/a
656.97	n/a	STOP	328485	n/a	LTP258	ltpFR	15	n/a	n/a	n/a	n/a	n/a	n/a	n/a	n/a	n/a	n/a	n/a	n/a	n/a	n/a	n/a
659.456	n/a	REC_START	329728	n/a	LTP258	ltpFR	15	2	n/a	n/a	n/a	n/a	n/a	n/a	0	0	0	n/a	n/a	n/a	n/a	n/a
661.516	n/a	REC_WORD	330758	wordpools/wasnorm_wordpool_less_exclusions.txt	LTP258	ltpFR	15	2	0	REINDEER	1181	n/a	1	n/a	0	0	0	n/a	n/a	n/a	n/a	n/a
662.452	n/a	REC_WORD	331226	wordpools/wasnorm_wordpool_less_exclusions.txt	LTP258	ltpFR	15	2	0	WRIST	1626	n/a	0	n/a	0	0	0	n/a	n/a	n/a	n/a	n/a
663.396	n/a	REC_WORD	331698	wordpools/wasnorm_wordpool_less_exclusions.txt	LTP258	ltpFR	15	2	0	LOUNGE	845	n/a	1	n/a	0	0	0	n/a	n/a	n/a	n/a	n/a
668.86	n/a	REC_WORD	334430	wordpools/wasnorm_wordpool_less_exclusions.txt	LTP258	ltpFR	15	2	0	MARS	873	n/a	1	n/a	0	0	0	n/a	n/a	n/a	n/a	n/a
673.486	n/a	REC_WORD	336743	wordpools/wasnorm_wordpool_less_exclusions.txt	LTP258	ltpFR	15	2	0	BRACELET	163	n/a	0	n/a	0	0	0	n/a	n/a	n/a	n/a	n/a
676.3	n/a	REC_WORD	338150	wordpools/wasnorm_wordpool_less_exclusions.txt	LTP258	ltpFR	15	2	0	REFRIGERATOR	1179	n/a	0	n/a	0	0	0	n/a	n/a	n/a	n/a	n/a
693.786	n/a	REC_WORD	346893	wordpools/wasnorm_wordpool_less_exclusions.txt	LTP258	ltpFR	15	2	0	LIVER	833	n/a	0	n/a	0	0	0	n/a	n/a	n/a	n/a	n/a
742.824	n/a	WORD	371412	wordpools/wasnorm_wordpool_less_exclusions.txt	LTP258	ltpFR	15	3	1	BATTERY	101	n/a	0	n/a	0	0	0	0	0.5869140625	0.422607421875	upper	../fonts/amplitud.ttf
746.878	n/a	WORD	373439	wordpools/wasnorm_wordpool_less_exclusions.txt	LTP258	ltpFR	15	3	1	DRIVER	499	n/a	1	n/a	0	0	0	0	0.5869140625	0.422607421875	upper	../fonts/amplitud.ttf
750.822	n/a	WORD	375411	wordpools/wasnorm_wordpool_less_exclusions.txt	LTP258	ltpFR	15	3	1	BULL	193	n/a	1	n/a	0	0	0	0	0.5869140625	0.422607421875	upper	../fonts/amplitud.ttf
754.674	n/a	WORD	377337	wordpools/wasnorm_wordpool_less_exclusions.txt	LTP258	ltpFR	15	3	1	MICROWAVE	892	n/a	0	n/a	0	0	0	0	0.5869140625	0.422607421875	upper	../fonts/amplitud.ttf
758.572	n/a	WORD	379286	wordpools/wasnorm_wordpool_less_exclusions.txt	LTP258	ltpFR	15	3	0	CARROT	249	n/a	0	n/a	0	0	0	1	0.412841796875	0.57763671875	lower	../fonts/zerothre.ttf
762.486	n/a	WORD	381243	wordpools/wasnorm_wordpool_less_exclusions.txt	LTP258	ltpFR	15	3	0	EXPERT	543	n/a	1	n/a	0	0	0	1	0.412841796875	0.57763671875	lower	../fonts/zerothre.ttf
766.336	n/a	WORD	383168	wordpools/wasnorm_wordpool_less_exclusions.txt	LTP258	ltpFR	15	3	0	MOOSE	915	n/a	1	n/a	0	0	0	1	0.412841796875	0.57763671875	lower	../fonts/zerothre.ttf
770.284	n/a	WORD	385142	wordpools/wasnorm_wordpool_less_exclusions.txt	LTP258	ltpFR	15	3	0	CELERY	266	n/a	0	n/a	0	0	0	1	0.412841796875	0.57763671875	lower	../fonts/zerothre.ttf
774.262	n/a	WORD	387131	wordpools/wasnorm_wordpool_less_exclusions.txt	LTP258	ltpFR	15	3	0	CARNIVAL	245	n/a	1	n/a	0	0	0	1	0.412841796875	0.57763671875	lower	../fonts/zerothre.ttf
778.096	n/a	WORD	389048	wordpools/wasnorm_wordpool_less_exclusions.txt	LTP258	ltpFR	15	3	0	ACROBAT	4	n/a	1	n/a	0	0	0	1	0.412841796875	0.57763671875	lower	../fonts/zerothre.ttf
782.012	n/a	WORD	391006	wordpools/wasnorm_wordpool_less_exclusions.txt	LTP258	ltpFR	15	3	1	BLACKBERRY	132	n/a	0	n/a	0	0	0	0	0.5869140625	0.422607421875	upper	../fonts/amplitud.ttf
786.06	n/a	WORD	393030	wordpools/wasnorm_wordpool_less_exclusions.txt	LTP258	ltpFR	15	3	1	POTATO	1115	n/a	1	n/a	0	0	0	0	0.5869140625	0.422607421875	upper	../fonts/amplitud.ttf
790.176	n/a	WORD	395088	wordpools/wasnorm_wordpool_less_exclusions.txt	LTP258	ltpFR	15	3	0	TRACTOR	1493	n/a	1	n/a	0	0	0	1	0.412841796875	0.57763671875	lower	../fonts/zerothre.ttf
794.342	n/a	WORD	397171	wordpools/wasnorm_wordpool_less_exclusions.txt	LTP258	ltpFR	15	3	0	PAINTER	1004	n/a	1	n/a	0	0	0	1	0.412841796875	0.57763671875	lower	../fonts/zerothre.ttf
798.242	n/a	WORD	399121	wordpools/wasnorm_wordpool_less_exclusions.txt	LTP258	ltpFR	15	3	1	LOG	841	n/a	1	n/a	0	0	0	0	0.5869140625	0.422607421875	upper	../fonts/amplitud.ttf
802.172	n/a	WORD	401086	wordpools/wasnorm_wordpool_less_exclusions.txt	LTP258	ltpFR	15	3	1	SUPERMARKET	1409	n/a	0	n/a	0	0	0	0	0.5869140625	0.422607421875	upper	../fonts/amplitud.ttf
808.008	n/a	REC_START	404004	n/a	LTP258	ltpFR	15	3	n/a	n/a	n/a	n/a	n/a	n/a	0	0	0	n/a	n/a	n/a	n/a	n/a
810.498	n/a	REC_WORD	405249	wordpools/wasnorm_wordpool_less_exclusions.txt	LTP258	ltpFR	15	3	1	SUPERMARKET	1409	n/a	0	n/a	0	0	0	n/a	n/a	n/a	n/a	n/a
811.662	n/a	REC_WORD	405831	wordpools/wasnorm_wordpool_less_exclusions.txt	LTP258	ltpFR	15	3	1	LOG	841	n/a	1	n/a	0	0	0	n/a	n/a	n/a	n/a	n/a
813.272	n/a	REC_WORD	406636	wordpools/wasnorm_wordpool_less_exclusions.txt	LTP258	ltpFR	15	3	0	PAINTER	1004	n/a	1	n/a	0	0	0	n/a	n/a	n/a	n/a	n/a
814.2	n/a	REC_WORD	407100	wordpools/wasnorm_wordpool_less_exclusions.txt	LTP258	ltpFR	15	3	0	TRACTOR	1493	n/a	1	n/a	0	0	0	n/a	n/a	n/a	n/a	n/a
815.604	n/a	REC_WORD	407802	wordpools/wasnorm_wordpool_less_exclusions.txt	LTP258	ltpFR	15	3	0	EXPERT	543	n/a	1	n/a	0	0	0	n/a	n/a	n/a	n/a	n/a
816.79	n/a	REC_WORD	408395	wordpools/wasnorm_wordpool_less_exclusions.txt	LTP258	ltpFR	15	3	0	MOOSE	915	n/a	1	n/a	0	0	0	n/a	n/a	n/a	n/a	n/a
817.856	n/a	REC_WORD	408928	wordpools/wasnorm_wordpool_less_exclusions.txt	LTP258	ltpFR	15	3	1	BULL	193	n/a	1	n/a	0	0	0	n/a	n/a	n/a	n/a	n/a
822.478	n/a	REC_WORD	411239	wordpools/wasnorm_wordpool_less_exclusions.txt	LTP258	ltpFR	15	3	0	CARNIVAL	245	n/a	1	n/a	0	0	0	n/a	n/a	n/a	n/a	n/a
832.654	n/a	REC_WORD	416327	wordpools/wasnorm_wordpool_less_exclusions.txt	LTP258	ltpFR	15	3	0	ACROBAT	4	n/a	1	n/a	0	0	0	n/a	n/a	n/a	n/a	n/a
861.502	n/a	REC_WORD	430751	wordpools/wasnorm_wordpool_less_exclusions.txt	LTP258	ltpFR	15	3	1	BLACKBERRY	132	n/a	0	n/a	0	0	0	n/a	n/a	n/a	n/a	n/a
887.298	n/a	WORD	443649	wordpools/wasnorm_wordpool_less_exclusions.txt	LTP258	ltpFR	15	4	1	STEM	1376	n/a	1	n/a	0	0	0	0	0.5869140625	0.422607421875	upper	../fonts/amplitud.ttf
891.26	n/a	WORD	445630	wordpools/wasnorm_wordpool_less_exclusions.txt	LTP258	ltpFR	15	4	1	CONE	363	n/a	0	n/a	0	0	0	0	0.5869140625	0.422607421875	upper	../fonts/amplitud.ttf
895.228	n/a	WORD	447614	wordpools/wasnorm_wordpool_less_exclusions.txt	LTP258	ltpFR	15	4	1	PEOPLE	1046	n/a	1	n/a	0	0	0	0	0.5869140625	0.422607421875	upper	../fonts/amplitud.ttf
899.142	n/a	WORD	449571	wordpools/wasnorm_wordpool_less_exclusions.txt	LTP258	ltpFR	15	4	0	VILLAGE	1566	n/a	1	n/a	0	0	0	1	0.412841796875	0.57763671875	lower	../fonts/zerothre.ttf
903.09	n/a	WORD	451545	wordpools/wasnorm_wordpool_less_exclusions.txt	LTP258	ltpFR	15	4	0	TRENCH	1503	n/a	0	n/a	0	0	0	1	0.412841796875	0.57763671875	lower	../fonts/zerothre.ttf
907.29	n/a	WORD	453645	wordpools/wasnorm_wordpool_less_exclusions.txt	LTP258	ltpFR	15	4	0	GANG	619	n/a	1	n/a	0	0	0	1	0.412841796875	0.57763671875	lower	../fonts/zerothre.ttf
911.286	n/a	WORD	455643	wordpools/wasnorm_wordpool_less_exclusions.txt	LTP258	ltpFR	15	4	1	DIPLOMA	470	n/a	0	n/a	0	0	0	0	0.5869140625	0.422607421875	upper	../fonts/amplitud.ttf
915.372	n/a	WORD	457686	wordpools/wasnorm_wordpool_less_exclusions.txt	LTP258	ltpFR	15	4	1	TIMBER	1469	n/a	1	n/a	0	0	0	0	0.5869140625	0.422607421875	upper	../fonts/amplitud.ttf
919.288	n/a	WORD	459644	wordpools/wasnorm_wordpool_less_exclusions.txt	LTP258	ltpFR	15	4	1	MOSS	918	n/a	1	n/a	0	0	0	0	0.5869140625	0.422607421875	upper	../fonts/amplitud.ttf
923.18	n/a	WORD	461590	wordpools/wasnorm_wordpool_less_exclusions.txt	LTP258	ltpFR	15	4	1	BERRY	122	n/a	1	n/a	0	0	0	0	0.5869140625	0.422607421875	upper	../fonts/amplitud.ttf
927.148	n/a	WORD	463574	wordpools/wasnorm_wordpool_less_exclusions.txt	LTP258	ltpFR	15	4	1	GOO	648	n/a	0	n/a	0	0	0	0	0.5869140625	0.422607421875	upper	../fonts/amplitud.ttf
931.284	n/a	WORD	465642	wordpools/wasnorm_wordpool_less_exclusions.txt	LTP258	ltpFR	15	4	0	LAPEL	800	n/a	0	n/a	0	0	0	1	0.412841796875	0.57763671875	lower	../fonts/zerothre.ttf
935.146	n/a	WORD	467573	wordpools/wasnorm_wordpool_less_exclusions.txt	LTP258	ltpFR	15	4	0	CREATURE	403	n/a	1	n/a	0	0	0	1	0.412841796875	0.57763671875	lower	../fonts/zerothre.ttf
938.978	n/a	WORD	469489	wordpools/wasnorm_wordpool_less_exclusions.txt	LTP258	ltpFR	15	4	0	MONGOOSE	909	n/a	1	n/a	0	0	0	1	0.412841796875	0.57763671875	lower	../fonts/zerothre.ttf
943.126	n/a	WORD	471563	wordpools/wasnorm_wordpool_less_exclusions.txt	LTP258	ltpFR	15	4	0	BABY	64	n/a	1	n/a	0	0	0	1	0.412841796875	0.57763671875	lower	../fonts/zerothre.ttf
947.042	n/a	WORD	473521	wordpools/wasnorm_wordpool_less_exclusions.txt	LTP258	ltpFR	15	4	0	SOCKET	1340	n/a	0	n/a	0	0	0	1	0.412841796875	0.57763671875	lower	../fonts/zerothre.ttf
950.054	n/a	START	475027	n/a	LTP258	ltpFR	15	n/a	n/a	n/a	n/a	n/a	n/a	n/a	n/a	n/a	n/a	n/a	n/a	n/a	n/a	n/a
951.26	n/a	PROB	475630	n/a	LTP258	ltpFR	15	n/a	n/a	n/a	n/a	n/a	n/a	23	8	4	9	n/a	n/a	n/a	n/a	n/a
954.064	n/a	PROB	477032	n/a	LTP258	ltpFR	15	n/a	n/a	n/a	n/a	n/a	n/a	10	5	1	4	n/a	n/a	n/a	n/a	n/a
955.42	n/a	PROB	477710	n/a	LTP258	ltpFR	15	n/a	n/a	n/a	n/a	n/a	n/a	16	9	5	2	n/a	n/a	n/a	n/a	n/a
957.074	n/a	STOP	478537	n/a	LTP258	ltpFR	15	n/a	n/a	n/a	n/a	n/a	n/a	n/a	n/a	n/a	n/a	n/a	n/a	n/a	n/a	n/a
959.904	n/a	REC_START	479952	n/a	LTP258	ltpFR	15	4	n/a	n/a	n/a	n/a	n/a	n/a	0	0	0	n/a	n/a	n/a	n/a	n/a
962.276	n/a	REC_WORD	481138	wordpools/wasnorm_wordpool_less_exclusions.txt	LTP258	ltpFR	15	4	0	MONGOOSE	909	n/a	1	n/a	0	0	0	n/a	n/a	n/a	n/a	n/a
963.374	n/a	REC_WORD	481687	wordpools/wasnorm_wordpool_less_exclusions.txt	LTP258	ltpFR	15	4	0	CREATURE	403	n/a	1	n/a	0	0	0	n/a	n/a	n/a	n/a	n/a
964.504	n/a	REC_WORD	482252	wordpools/wasnorm_wordpool_less_exclusions.txt	LTP258	ltpFR	15	4	0	BABY	64	n/a	1	n/a	0	0	0	n/a	n/a	n/a	n/a	n/a
967.338	n/a	REC_WORD	483669	wordpools/wasnorm_wordpool_less_exclusions.txt	LTP258	ltpFR	15	4	1	MOSS	918	n/a	1	n/a	0	0	0	n/a	n/a	n/a	n/a	n/a
969.22	n/a	REC_WORD	484610	wordpools/wasnorm_wordpool_less_exclusions.txt	LTP258	ltpFR	15	4	1	TIMBER	1469	n/a	1	n/a	0	0	0	n/a	n/a	n/a	n/a	n/a
971.032	n/a	REC_WORD	485516	wordpools/wasnorm_wordpool_less_exclusions.txt	LTP258	ltpFR	15	4	1	GOO	648	n/a	0	n/a	0	0	0	n/a	n/a	n/a	n/a	n/a
980.878	n/a	REC_WORD	490439	wordpools/wasnorm_wordpool_less_exclusions.txt	LTP258	ltpFR	15	4	1	CONE	363	n/a	0	n/a	0	0	0	n/a	n/a	n/a	n/a	n/a
1046.054	n/a	WORD	523027	wordpools/wasnorm_wordpool_less_exclusions.txt	LTP258	ltpFR	15	5	0	COFFEE	341	n/a	0	n/a	0	0	0	1	0.412841796875	0.57763671875	lower	../fonts/zerothre.ttf
1049.914	n/a	WORD	524957	wordpools/wasnorm_wordpool_less_exclusions.txt	LTP258	ltpFR	15	5	0	SUPERVISOR	1410	n/a	1	n/a	0	0	0	1	0.412841796875	0.57763671875	lower	../fonts/zerothre.ttf
1053.934	n/a	WORD	526967	wordpools/wasnorm_wordpool_less_exclusions.txt	LTP258	ltpFR	15	5	0	COSTUME	383	n/a	0	n/a	0	0	0	1	0.412841796875	0.57763671875	lower	../fonts/zerothre.ttf
1057.882	n/a	WORD	528941	wordpools/wasnorm_wordpool_less_exclusions.txt	LTP258	ltpFR	15	5	1	DESIGNER	451	n/a	1	n/a	0	0	0	0	0.5869140625	0.422607421875	upper	../fonts/amplitud.ttf
1061.882	n/a	WORD	530941	wordpools/wasnorm_wordpool_less_exclusions.txt	LTP258	ltpFR	15	5	1	TECHNICIAN	1443	n/a	1	n/a	0	0	0	0	0.5869140625	0.422607421875	upper	../fonts/amplitud.ttf
1065.964	n/a	WORD	532982	wordpools/wasnorm_wordpool_less_exclusions.txt	LTP258	ltpFR	15	5	1	POOL	1103	n/a	0	n/a	0	0	0	0	0.5869140625	0.422607421875	upper	../fonts/amplitud.ttf
1069.928	n/a	WORD	534964	wordpools/wasnorm_wordpool_less_exclusions.txt	LTP258	ltpFR	15	5	1	DRUM	502	n/a	0	n/a	0	0	0	0	0.5869140625	0.422607421875	upper	../fonts/amplitud.ttf
1073.792	n/a	WORD	536896	wordpools/wasnorm_wordpool_less_exclusions.txt	LTP258	ltpFR	15	5	1	PUCK	1138	n/a	0	n/a	0	0	0	0	0.5869140625	0.422607421875	upper	../fonts/amplitud.ttf
1078.008	n/a	WORD	539004	wordpools/wasnorm_wordpool_less_exclusions.txt	LTP258	ltpFR	15	5	0	SLACKS	1323	n/a	0	n/a	0	0	0	1	0.412841796875	0.57763671875	lower	../fonts/zerothre.ttf
1082.108	n/a	WORD	541054	wordpools/wasnorm_wordpool_less_exclusions.txt	LTP258	ltpFR	15	5	0	HORNET	718	n/a	0	n/a	0	0	0	1	0.412841796875	0.57763671875	lower	../fonts/zerothre.ttf
1086.124	n/a	WORD	543062	wordpools/wasnorm_wordpool_less_exclusions.txt	LTP258	ltpFR	15	5	0	WASP	1593	n/a	0	n/a	0	0	0	1	0.412841796875	0.57763671875	lower	../fonts/zerothre.ttf
1090.006	n/a	WORD	545003	wordpools/wasnorm_wordpool_less_exclusions.txt	LTP258	ltpFR	15	5	0	CONTAINER	366	n/a	0	n/a	0	0	0	1	0.412841796875	0.57763671875	lower	../fonts/zerothre.ttf
1093.852	n/a	WORD	546926	wordpools/wasnorm_wordpool_less_exclusions.txt	LTP258	ltpFR	15	5	0	ZIPPER	1636	n/a	0	n/a	0	0	0	1	0.412841796875	0.57763671875	lower	../fonts/zerothre.ttf
1098.052	n/a	WORD	549026	wordpools/wasnorm_wordpool_less_exclusions.txt	LTP258	ltpFR	15	5	1	JACKET	747	n/a	0	n/a	0	0	0	0	0.5869140625	0.422607421875	upper	../fonts/amplitud.ttf
1102.22	n/a	WORD	551110	wordpools/wasnorm_wordpool_less_exclusions.txt	LTP258	ltpFR	15	5	1	MOB	904	n/a	1	n/a	0	0	0	0	0.5869140625	0.422607421875	upper	../fonts/amplitud.ttf
1106.218	n/a	WORD	553109	wordpools/wasnorm_wordpool_less_exclusions.txt	LTP258	ltpFR	15	5	1	NICKEL	950	n/a	0	n/a	0	0	0	0	0.5869140625	0.422607421875	upper	../fonts/amplitud.ttf
1109.23	n/a	START	554615	n/a	LTP258	ltpFR	15	n/a	n/a	n/a	n/a	n/a	n/a	n/a	n/a	n/a	n/a	n/a	n/a	n/a	n/a	n/a
1110.284	n/a	PROB	555142	n/a	LTP258	ltpFR	15	n/a	n/a	n/a	n/a	n/a	n/a	110	6	2	2	n/a	n/a	n/a	n/a	n/a
1112.822	n/a	PROB	556411	n/a	LTP258	ltpFR	15	n/a	n/a	n/a	n/a	n/a	n/a	20	9	2	9	n/a	n/a	n/a	n/a	n/a
1116.066	n/a	PROB	558033	n/a	LTP258	ltpFR	15	n/a	n/a	n/a	n/a	n/a	n/a	19	9	3	7	n/a	n/a	n/a	n/a	n/a
1117.66	n/a	PROB	558830	n/a	LTP258	ltpFR	15	n/a	n/a	n/a	n/a	n/a	n/a	13	3	1	9	n/a	n/a	n/a	n/a	n/a
1119.564	n/a	PROB	559782	n/a	LTP258	ltpFR	15	n/a	n/a	n/a	n/a	n/a	n/a	14	8	1	5	n/a	n/a	n/a	n/a	n/a
1121.158	n/a	PROB	560579	n/a	LTP258	ltpFR	15	n/a	n/a	n/a	n/a	n/a	n/a	15	5	1	9	n/a	n/a	n/a	n/a	n/a
1122.508	n/a	PROB	561254	n/a	LTP258	ltpFR	15	n/a	n/a	n/a	n/a	n/a	n/a	11	9	1	1	n/a	n/a	n/a	n/a	n/a
1125.23	n/a	STOP	562615	n/a	LTP258	ltpFR	15	n/a	n/a	n/a	n/a	n/a	n/a	n/a	n/a	n/a	n/a	n/a	n/a	n/a	n/a	n/a
1127.16	n/a	REC_START	563580	n/a	LTP258	ltpFR	15	5	n/a	n/a	n/a	n/a	n/a	n/a	0	0	0	n/a	n/a	n/a	n/a	n/a
1129.54	n/a	REC_WORD	564770	wordpools/wasnorm_wordpool_less_exclusions.txt	LTP258	ltpFR	15	5	0	HORNET	718	n/a	0	n/a	0	0	0	n/a	n/a	n/a	n/a	n/a
1130.372	n/a	REC_WORD	565186	wordpools/wasnorm_wordpool_less_exclusions.txt	LTP258	ltpFR	15	5	0	WASP	1593	n/a	0	n/a	0	0	0	n/a	n/a	n/a	n/a	n/a
1131.274	n/a	REC_WORD	565637	wordpools/wasnorm_wordpool_less_exclusions.txt	LTP258	ltpFR	15	5	1	NICKEL	950	n/a	0	n/a	0	0	0	n/a	n/a	n/a	n/a	n/a
1132.674	n/a	REC_WORD	566337	wordpools/wasnorm_wordpool_less_exclusions.txt	LTP258	ltpFR	15	5	0	SLACKS	1323	n/a	0	n/a	0	0	0	n/a	n/a	n/a	n/a	n/a
1143.394	n/a	REC_WORD	571697	wordpools/wasnorm_wordpool_less_exclusions.txt	LTP258	ltpFR	15	5	1	TECHNICIAN	1443	n/a	1	n/a	0	0	0	n/a	n/a	n/a	n/a	n/a
1145.186	n/a	REC_WORD	572593	wordpools/wasnorm_wordpool_less_exclusions.txt	LTP258	ltpFR	15	5	1	DESIGNER	451	n/a	1	n/a	0	0	0	n/a	n/a	n/a	n/a	n/a
1206.914	n/a	START	603457	n/a	LTP258	ltpFR	15	n/a	n/a	n/a	n/a	n/a	n/a	n/a	n/a	n/a	n/a	n/a	n/a	n/a	n/a	n/a
1208.424	n/a	PROB	604212	n/a	LTP258	ltpFR	15	n/a	n/a	n/a	n/a	n/a	n/a	5	3	1	1	n/a	n/a	n/a	n/a	n/a
1209.528	n/a	PROB	604764	n/a	LTP258	ltpFR	15	n/a	n/a	n/a	n/a	n/a	n/a	7	1	1	5	n/a	n/a	n/a	n/a	n/a
1210.628	n/a	PROB	605314	n/a	LTP258	ltpFR	15	n/a	n/a	n/a	n/a	n/a	n/a	11	9	1	1	n/a	n/a	n/a	n/a	n/a
1212.988	n/a	PROB	606494	n/a	LTP258	ltpFR	15	n/a	n/a	n/a	n/a	n/a	n/a	17	5	5	7	n/a	n/a	n/a	n/a	n/a
1214.026	n/a	PROB	607013	n/a	LTP258	ltpFR	15	n/a	n/a	n/a	n/a	n/a	n/a	17	2	6	9	n/a	n/a	n/a	n/a	n/a
1215.95	n/a	PROB	607975	n/a	LTP258	ltpFR	15	n/a	n/a	n/a	n/a	n/a	n/a	11	3	1	7	n/a	n/a	n/a	n/a	n/a
1217.04	n/a	PROB	608520	n/a	LTP258	ltpFR	15	n/a	n/a	n/a	n/a	n/a	n/a	17	6	9	2	n/a	n/a	n/a	n/a	n/a
1218.514	n/a	PROB	609257	n/a	LTP258	ltpFR	15	n/a	n/a	n/a	n/a	n/a	n/a	14	2	5	7	n/a	n/a	n/a	n/a	n/a
1221.56	n/a	STOP	610780	n/a	LTP258	ltpFR	15	n/a	n/a	n/a	n/a	n/a	n/a	n/a	n/a	n/a	n/a	n/a	n/a	n/a	n/a	n/a
1224.068	n/a	WORD	612034	wordpools/wasnorm_wordpool_less_exclusions.txt	LTP258	ltpFR	15	6	1	SENATOR	1268	n/a	1	n/a	0	0	0	0	0.5869140625	0.422607421875	upper	../fonts/amplitud.ttf
1227.08	n/a	START	613540	n/a	LTP258	ltpFR	15	n/a	n/a	n/a	n/a	n/a	n/a	n/a	n/a	n/a	n/a	n/a	n/a	n/a	n/a	n/a
1227.982	n/a	PROB	613991	n/a	LTP258	ltpFR	15	n/a	n/a	n/a	n/a	n/a	n/a	11	2	1	8	n/a	n/a	n/a	n/a	n/a
1229.02	n/a	PROB	614510	n/a	LTP258	ltpFR	15	n/a	n/a	n/a	n/a	n/a	n/a	121	8	6	7	n/a	n/a	n/a	n/a	n/a
1231.208	n/a	PROB	615604	n/a	LTP258	ltpFR	15	n/a	n/a	n/a	n/a	n/a	n/a	13	5	7	1	n/a	n/a	n/a	n/a	n/a
1234.102	n/a	PROB	617051	n/a	LTP258	ltpFR	15	n/a	n/a	n/a	n/a	n/a	n/a	16	6	1	9	n/a	n/a	n/a	n/a	n/a
1236.494	n/a	PROB	618247	n/a	LTP258	ltpFR	15	n/a	n/a	n/a	n/a	n/a	n/a	16	5	6	5	n/a	n/a	n/a	n/a	n/a
1237.552	n/a	PROB	618776	n/a	LTP258	ltpFR	15	n/a	n/a	n/a	n/a	n/a	n/a	14	3	2	9	n/a	n/a	n/a	n/a	n/a
1238.908	n/a	PROB	619454	n/a	LTP258	ltpFR	15	n/a	n/a	n/a	n/a	n/a	n/a	12	1	8	3	n/a	n/a	n/a	n/a	n/a
1240.86	n/a	PROB	620430	n/a	LTP258	ltpFR	15	n/a	n/a	n/a	n/a	n/a	n/a	15	8	1	6	n/a	n/a	n/a	n/a	n/a
1242.426	n/a	STOP	621213	n/a	LTP258	ltpFR	15	n/a	n/a	n/a	n/a	n/a	n/a	n/a	n/a	n/a	n/a	n/a	n/a	n/a	n/a	n/a
1244.296	n/a	WORD	622148	wordpools/wasnorm_wordpool_less_exclusions.txt	LTP258	ltpFR	15	6	1	CUB	419	n/a	1	n/a	0	0	0	0	0.5869140625	0.422607421875	upper	../fonts/amplitud.ttf
1247.308	n/a	START	623654	n/a	LTP258	ltpFR	15	n/a	n/a	n/a	n/a	n/a	n/a	n/a	n/a	n/a	n/a	n/a	n/a	n/a	n/a	n/a
1248.494	n/a	PROB	624247	n/a	LTP258	ltpFR	15	n/a	n/a	n/a	n/a	n/a	n/a	18	3	9	6	n/a	n/a	n/a	n/a	n/a
1249.778	n/a	PROB	624889	n/a	LTP258	ltpFR	15	n/a	n/a	n/a	n/a	n/a	n/a	20	9	9	2	n/a	n/a	n/a	n/a	n/a
1251.2	n/a	PROB	625600	n/a	LTP258	ltpFR	15	n/a	n/a	n/a	n/a	n/a	n/a	7	3	1	3	n/a	n/a	n/a	n/a	n/a
1252.46	n/a	PROB	626230	n/a	LTP258	ltpFR	15	n/a	n/a	n/a	n/a	n/a	n/a	15	5	9	1	n/a	n/a	n/a	n/a	n/a
1253.726	n/a	PROB	626863	n/a	LTP258	ltpFR	15	n/a	n/a	n/a	n/a	n/a	n/a	14	9	4	1	n/a	n/a	n/a	n/a	n/a
1255.788	n/a	PROB	627894	n/a	LTP258	ltpFR	15	n/a	n/a	n/a	n/a	n/a	n/a	12	7	3	2	n/a	n/a	n/a	n/a	n/a
1257.206	n/a	PROB	628603	n/a	LTP258	ltpFR	15	n/a	n/a	n/a	n/a	n/a	n/a	12	6	5	1	n/a	n/a	n/a	n/a	n/a
1258.65	n/a	PROB	629325	n/a	LTP258	ltpFR	15	n/a	n/a	n/a	n/a	n/a	n/a	16	6	1	9	n/a	n/a	n/a	n/a	n/a
1260.172	n/a	PROB	630086	n/a	LTP258	ltpFR	15	n/a	n/a	n/a	n/a	n/a	n/a	14	9	1	4	n/a	n/a	n/a	n/a	n/a
1261.74	n/a	PROB	630870	n/a	LTP258	ltpFR	15	n/a	n/a	n/a	n/a	n/a	n/a	17	2	7	8	n/a	n/a	n/a	n/a	n/a
1262.906	n/a	STOP	631453	n/a	LTP258	ltpFR	15	n/a	n/a	n/a	n/a	n/a	n/a	n/a	n/a	n/a	n/a	n/a	n/a	n/a	n/a	n/a
1264.154	n/a	WORD	632077	wordpools/wasnorm_wordpool_less_exclusions.txt	LTP258	ltpFR	15	6	1	TRAY	1498	n/a	0	n/a	0	0	0	0	0.5869140625	0.422607421875	upper	../fonts/amplitud.ttf
1267.166	n/a	START	633583	n/a	LTP258	ltpFR	15	n/a	n/a	n/a	n/a	n/a	n/a	n/a	n/a	n/a	n/a	n/a	n/a	n/a	n/a	n/a
1268.254	n/a	PROB	634127	n/a	LTP258	ltpFR	15	n/a	n/a	n/a	n/a	n/a	n/a	22	9	9	4	n/a	n/a	n/a	n/a	n/a
1269.956	n/a	PROB	634978	n/a	LTP258	ltpFR	15	n/a	n/a	n/a	n/a	n/a	n/a	16	5	8	3	n/a	n/a	n/a	n/a	n/a
1271.812	n/a	PROB	635906	n/a	LTP258	ltpFR	15	n/a	n/a	n/a	n/a	n/a	n/a	14	4	3	7	n/a	n/a	n/a	n/a	n/a
1273.59	n/a	PROB	636795	n/a	LTP258	ltpFR	15	n/a	n/a	n/a	n/a	n/a	n/a	23	7	8	7	n/a	n/a	n/a	n/a	n/a
1275.594	n/a	PROB	637797	n/a	LTP258	ltpFR	15	n/a	n/a	n/a	n/a	n/a	n/a	21	8	8	5	n/a	n/a	n/a	n/a	n/a
1277.584	n/a	PROB	638792	n/a	LTP258	ltpFR	15	n/a	n/a	n/a	n/a	n/a	n/a	15	2	6	7	n/a	n/a	n/a	n/a	n/a
1279.524	n/a	PROB	639762	n/a	LTP258	ltpFR	15	n/a	n/a	n/a	n/a	n/a	n/a	15	5	4	6	n/a	n/a	n/a	n/a	n/a
1281.366	n/a	PROB	640683	n/a	LTP258	ltpFR	15	n/a	n/a	n/a	n/a	n/a	n/a	15	4	9	2	n/a	n/a	n/a	n/a	n/a
1283.028	n/a	STOP	641514	n/a	LTP258	ltpFR	15	n/a	n/a	n/a	n/a	n/a	n/a	n/a	n/a	n/a	n/a	n/a	n/a	n/a	n/a	n/a
1284.298	n/a	WORD	642149	wordpools/wasnorm_wordpool_less_exclusions.txt	LTP258	ltpFR	15	6	1	COOKBOOK	373	n/a	0	n/a	0	0	0	0	0.5869140625	0.422607421875	upper	../fonts/amplitud.ttf
1287.31	n/a	START	643655	n/a	LTP258	ltpFR	15	n/a	n/a	n/a	n/a	n/a	n/a	n/a	n/a	n/a	n/a	n/a	n/a	n/a	n/a	n/a
1288.246	n/a	PROB	644123	n/a	LTP258	ltpFR	15	n/a	n/a	n/a	n/a	n/a	n/a	10	1	1	8	n/a	n/a	n/a	n/a	n/a
1290.036	n/a	PROB	645018	n/a	LTP258	ltpFR	15	n/a	n/a	n/a	n/a	n/a	n/a	14	4	8	2	n/a	n/a	n/a	n/a	n/a
1291.292	n/a	PROB	645646	n/a	LTP258	ltpFR	15	n/a	n/a	n/a	n/a	n/a	n/a	11	3	4	4	n/a	n/a	n/a	n/a	n/a
1292.81	n/a	PROB	646405	n/a	LTP258	ltpFR	15	n/a	n/a	n/a	n/a	n/a	n/a	9	3	2	4	n/a	n/a	n/a	n/a	n/a
1294.72	n/a	PROB	647360	n/a	LTP258	ltpFR	15	n/a	n/a	n/a	n/a	n/a	n/a	15	6	3	6	n/a	n/a	n/a	n/a	n/a
1296.24	n/a	PROB	648120	n/a	LTP258	ltpFR	15	n/a	n/a	n/a	n/a	n/a	n/a	13	1	7	5	n/a	n/a	n/a	n/a	n/a
1297.962	n/a	PROB	648981	n/a	LTP258	ltpFR	15	n/a	n/a	n/a	n/a	n/a	n/a	11	2	3	6	n/a	n/a	n/a	n/a	n/a
1299.54	n/a	PROB	649770	n/a	LTP258	ltpFR	15	n/a	n/a	n/a	n/a	n/a	n/a	13	2	9	2	n/a	n/a	n/a	n/a	n/a
1303.312	n/a	STOP	651656	n/a	LTP258	ltpFR	15	n/a	n/a	n/a	n/a	n/a	n/a	n/a	n/a	n/a	n/a	n/a	n/a	n/a	n/a	n/a
1304.458	n/a	WORD	652229	wordpools/wasnorm_wordpool_less_exclusions.txt	LTP258	ltpFR	15	6	1	PALACE	1006	n/a	0	n/a	0	0	0	0	0.5869140625	0.422607421875	upper	../fonts/amplitud.ttf
1307.47	n/a	START	653735	n/a	LTP258	ltpFR	15	n/a	n/a	n/a	n/a	n/a	n/a	n/a	n/a	n/a	n/a	n/a	n/a	n/a	n/a	n/a
1308.29	n/a	PROB	654145	n/a	LTP258	ltpFR	15	n/a	n/a	n/a	n/a	n/a	n/a	18	9	1	8	n/a	n/a	n/a	n/a	n/a
1309.992	n/a	PROB	654996	n/a	LTP258	ltpFR	15	n/a	n/a	n/a	n/a	n/a	n/a	8	2	2	4	n/a	n/a	n/a	n/a	n/a
1311.382	n/a	PROB	655691	n/a	LTP258	ltpFR	15	n/a	n/a	n/a	n/a	n/a	n/a	15	2	8	5	n/a	n/a	n/a	n/a	n/a
1312.92	n/a	PROB	656460	n/a	LTP258	ltpFR	15	n/a	n/a	n/a	n/a	n/a	n/a	27	7	9	9	n/a	n/a	n/a	n/a	n/a
1315.094	n/a	PROB	657547	n/a	LTP258	ltpFR	15	n/a	n/a	n/a	n/a	n/a	n/a	16	6	9	1	n/a	n/a	n/a	n/a	n/a
1316.688	n/a	PROB	658344	n/a	LTP258	ltpFR	15	n/a	n/a	n/a	n/a	n/a	n/a	14	2	7	5	n/a	n/a	n/a	n/a	n/a
1318.24	n/a	PROB	659120	n/a	LTP258	ltpFR	15	n/a	n/a	n/a	n/a	n/a	n/a	8	5	1	2	n/a	n/a	n/a	n/a	n/a
1319.712	n/a	PROB	659856	n/a	LTP258	ltpFR	15	n/a	n/a	n/a	n/a	n/a	n/a	8	3	3	2	n/a	n/a	n/a	n/a	n/a
1320.916	n/a	PROB	660458	n/a	LTP258	ltpFR	15	n/a	n/a	n/a	n/a	n/a	n/a	16	4	7	5	n/a	n/a	n/a	n/a	n/a
1322.43	n/a	STOP	661215	n/a	LTP258	ltpFR	15	n/a	n/a	n/a	n/a	n/a	n/a	n/a	n/a	n/a	n/a	n/a	n/a	n/a	n/a	n/a
1324.568	n/a	WORD	662284	wordpools/wasnorm_wordpool_less_exclusions.txt	LTP258	ltpFR	15	6	1	MILITARY	894	n/a	1	n/a	0	0	0	0	0.5869140625	0.422607421875	upper	../fonts/amplitud.ttf
1327.58	n/a	START	663790	n/a	LTP258	ltpFR	15	n/a	n/a	n/a	n/a	n/a	n/a	n/a	n/a	n/a	n/a	n/a	n/a	n/a	n/a	n/a
1328.646	n/a	PROB	664323	n/a	LTP258	ltpFR	15	n/a	n/a	n/a	n/a	n/a	n/a	96	3	3	3	n/a	n/a	n/a	n/a	n/a
1330.554	n/a	PROB	665277	n/a	LTP258	ltpFR	15	n/a	n/a	n/a	n/a	n/a	n/a	14	1	9	4	n/a	n/a	n/a	n/a	n/a
1332.544	n/a	PROB	666272	n/a	LTP258	ltpFR	15	n/a	n/a	n/a	n/a	n/a	n/a	12	9	1	2	n/a	n/a	n/a	n/a	n/a
1333.566	n/a	PROB	666783	n/a	LTP258	ltpFR	15	n/a	n/a	n/a	n/a	n/a	n/a	14	2	7	7	n/a	n/a	n/a	n/a	n/a
1334.854	n/a	PROB	667427	n/a	LTP258	ltpFR	15	n/a	n/a	n/a	n/a	n/a	n/a	13	7	2	4	n/a	n/a	n/a	n/a	n/a
1337.196	n/a	PROB	668598	n/a	LTP258	ltpFR	15	n/a	n/a	n/a	n/a	n/a	n/a	16	5	2	9	n/a	n/a	n/a	n/a	n/a
1338.638	n/a	PROB	669319	n/a	LTP258	ltpFR	15	n/a	n/a	n/a	n/a	n/a	n/a	13	5	6	2	n/a	n/a	n/a	n/a	n/a
1340.006	n/a	PROB	670003	n/a	LTP258	ltpFR	15	n/a	n/a	n/a	n/a	n/a	n/a	11	1	8	2	n/a	n/a	n/a	n/a	n/a
1341.396	n/a	PROB	670698	n/a	LTP258	ltpFR	15	n/a	n/a	n/a	n/a	n/a	n/a	13	3	4	6	n/a	n/a	n/a	n/a	n/a
1343.32	n/a	STOP	671660	n/a	LTP258	ltpFR	15	n/a	n/a	n/a	n/a	n/a	n/a	n/a	n/a	n/a	n/a	n/a	n/a	n/a	n/a	n/a
1344.694	n/a	WORD	672347	wordpools/wasnorm_wordpool_less_exclusions.txt	LTP258	ltpFR	15	6	1	ARCHITECT	36	n/a	1	n/a	0	0	0	0	0.5869140625	0.422607421875	upper	../fonts/amplitud.ttf
1347.708	n/a	START	673854	n/a	LTP258	ltpFR	15	n/a	n/a	n/a	n/a	n/a	n/a	n/a	n/a	n/a	n/a	n/a	n/a	n/a	n/a	n/a
1348.526	n/a	PROB	674263	n/a	LTP258	ltpFR	15	n/a	n/a	n/a	n/a	n/a	n/a	13	5	4	4	n/a	n/a	n/a	n/a	n/a
1350.346	n/a	PROB	675173	n/a	LTP258	ltpFR	15	n/a	n/a	n/a	n/a	n/a	n/a	16	8	5	3	n/a	n/a	n/a	n/a	n/a
1351.89	n/a	PROB	675945	n/a	LTP258	ltpFR	15	n/a	n/a	n/a	n/a	n/a	n/a	11	4	2	5	n/a	n/a	n/a	n/a	n/a
1353.292	n/a	PROB	676646	n/a	LTP258	ltpFR	15	n/a	n/a	n/a	n/a	n/a	n/a	12	3	6	3	n/a	n/a	n/a	n/a	n/a
1355.438	n/a	PROB	677719	n/a	LTP258	ltpFR	15	n/a	n/a	n/a	n/a	n/a	n/a	26	7	8	7	n/a	n/a	n/a	n/a	n/a
1357.374	n/a	PROB	678687	n/a	LTP258	ltpFR	15	n/a	n/a	n/a	n/a	n/a	n/a	13	2	4	7	n/a	n/a	n/a	n/a	n/a
1360.818	n/a	PROB	680409	n/a	LTP258	ltpFR	15	n/a	n/a	n/a	n/a	n/a	n/a	11	3	1	7	n/a	n/a	n/a	n/a	n/a
1362.074	n/a	PROB	681037	n/a	LTP258	ltpFR	15	n/a	n/a	n/a	n/a	n/a	n/a	14	5	4	4	n/a	n/a	n/a	n/a	n/a
1363.536	n/a	STOP	681768	n/a	LTP258	ltpFR	15	n/a	n/a	n/a	n/a	n/a	n/a	n/a	n/a	n/a	n/a	n/a	n/a	n/a	n/a	n/a
1364.738	n/a	WORD	682369	wordpools/wasnorm_wordpool_less_exclusions.txt	LTP258	ltpFR	15	6	1	SNORKEL	1336	n/a	0	n/a	0	0	0	0	0.5869140625	0.422607421875	upper	../fonts/amplitud.ttf
1367.75	n/a	START	683875	n/a	LTP258	ltpFR	15	n/a	n/a	n/a	n/a	n/a	n/a	n/a	n/a	n/a	n/a	n/a	n/a	n/a	n/a	n/a
1368.888	n/a	PROB	684444	n/a	LTP258	ltpFR	15	n/a	n/a	n/a	n/a	n/a	n/a	12	5	3	4	n/a	n/a	n/a	n/a	n/a
1370.39	n/a	PROB	685195	n/a	LTP258	ltpFR	15	n/a	n/a	n/a	n/a	n/a	n/a	12	3	5	4	n/a	n/a	n/a	n/a	n/a
1371.794	n/a	PROB	685897	n/a	LTP258	ltpFR	15	n/a	n/a	n/a	n/a	n/a	n/a	193	8	4	7	n/a	n/a	n/a	n/a	n/a
1374.99	n/a	PROB	687495	n/a	LTP258	ltpFR	15	n/a	n/a	n/a	n/a	n/a	n/a	11	1	7	3	n/a	n/a	n/a	n/a	n/a
1376.128	n/a	PROB	688064	n/a	LTP258	ltpFR	15	n/a	n/a	n/a	n/a	n/a	n/a	154	8	8	5	n/a	n/a	n/a	n/a	n/a
1377.5	n/a	PROB	688750	n/a	LTP258	ltpFR	15	n/a	n/a	n/a	n/a	n/a	n/a	14	8	4	2	n/a	n/a	n/a	n/a	n/a
1380.03	n/a	PROB	690015	n/a	LTP258	ltpFR	15	n/a	n/a	n/a	n/a	n/a	n/a	11	2	8	1	n/a	n/a	n/a	n/a	n/a
1381.03	n/a	PROB	690515	n/a	LTP258	ltpFR	15	n/a	n/a	n/a	n/a	n/a	n/a	6	2	1	3	n/a	n/a	n/a	n/a	n/a
1383.75	n/a	STOP	691875	n/a	LTP258	ltpFR	15	n/a	n/a	n/a	n/a	n/a	n/a	n/a	n/a	n/a	n/a	n/a	n/a	n/a	n/a	n/a
1384.916	n/a	WORD	692458	wordpools/wasnorm_wordpool_less_exclusions.txt	LTP258	ltpFR	15	6	1	CEILING	265	n/a	0	n/a	0	0	0	0	0.5869140625	0.422607421875	upper	../fonts/amplitud.ttf
1387.928	n/a	START	693964	n/a	LTP258	ltpFR	15	n/a	n/a	n/a	n/a	n/a	n/a	n/a	n/a	n/a	n/a	n/a	n/a	n/a	n/a	n/a
1389.132	n/a	PROB	694566	n/a	LTP258	ltpFR	15	n/a	n/a	n/a	n/a	n/a	n/a	22	9	8	5	n/a	n/a	n/a	n/a	n/a
1392.424	n/a	PROB	696212	n/a	LTP258	ltpFR	15	n/a	n/a	n/a	n/a	n/a	n/a	17	8	5	4	n/a	n/a	n/a	n/a	n/a
1394.214	n/a	PROB	697107	n/a	LTP258	ltpFR	15	n/a	n/a	n/a	n/a	n/a	n/a	21	7	5	9	n/a	n/a	n/a	n/a	n/a
1395.89	n/a	PROB	697945	n/a	LTP258	ltpFR	15	n/a	n/a	n/a	n/a	n/a	n/a	17	8	6	3	n/a	n/a	n/a	n/a	n/a
1397.914	n/a	PROB	698957	n/a	LTP258	ltpFR	15	n/a	n/a	n/a	n/a	n/a	n/a	26	9	9	7	n/a	n/a	n/a	n/a	n/a
1399.884	n/a	PROB	699942	n/a	LTP258	ltpFR	15	n/a	n/a	n/a	n/a	n/a	n/a	17	8	1	8	n/a	n/a	n/a	n/a	n/a
1401.628	n/a	PROB	700814	n/a	LTP258	ltpFR	15	n/a	n/a	n/a	n/a	n/a	n/a	16	7	4	5	n/a	n/a	n/a	n/a	n/a
1403.074	n/a	STOP	701537	n/a	LTP258	ltpFR	15	n/a	n/a	n/a	n/a	n/a	n/a	n/a	n/a	n/a	n/a	n/a	n/a	n/a	n/a	n/a
1404.792	n/a	WORD	702396	wordpools/wasnorm_wordpool_less_exclusions.txt	LTP258	ltpFR	15	6	1	SHACK	1273	n/a	0	n/a	0	0	0	0	0.5869140625	0.422607421875	upper	../fonts/amplitud.ttf
1407.804	n/a	START	703902	n/a	LTP258	ltpFR	15	n/a	n/a	n/a	n/a	n/a	n/a	n/a	n/a	n/a	n/a	n/a	n/a	n/a	n/a	n/a
1408.886	n/a	PROB	704443	n/a	LTP258	ltpFR	15	n/a	n/a	n/a	n/a	n/a	n/a	17	6	2	9	n/a	n/a	n/a	n/a	n/a
1410.208	n/a	PROB	705104	n/a	LTP258	ltpFR	15	n/a	n/a	n/a	n/a	n/a	n/a	17	7	7	3	n/a	n/a	n/a	n/a	n/a
1411.414	n/a	PROB	705707	n/a	LTP258	ltpFR	15	n/a	n/a	n/a	n/a	n/a	n/a	14	4	8	2	n/a	n/a	n/a	n/a	n/a
1412.8	n/a	PROB	706400	n/a	LTP258	ltpFR	15	n/a	n/a	n/a	n/a	n/a	n/a	18	7	4	7	n/a	n/a	n/a	n/a	n/a
1414.512	n/a	PROB	707256	n/a	LTP258	ltpFR	15	n/a	n/a	n/a	n/a	n/a	n/a	18	9	1	8	n/a	n/a	n/a	n/a	n/a
1415.498	n/a	PROB	707749	n/a	LTP258	ltpFR	15	n/a	n/a	n/a	n/a	n/a	n/a	14	9	4	1	n/a	n/a	n/a	n/a	n/a
1417.022	n/a	PROB	708511	n/a	LTP258	ltpFR	15	n/a	n/a	n/a	n/a	n/a	n/a	8	4	2	2	n/a	n/a	n/a	n/a	n/a
1418.406	n/a	PROB	709203	n/a	LTP258	ltpFR	15	n/a	n/a	n/a	n/a	n/a	n/a	20	9	6	5	n/a	n/a	n/a	n/a	n/a
1420.212	n/a	PROB	710106	n/a	LTP258	ltpFR	15	n/a	n/a	n/a	n/a	n/a	n/a	16	5	6	5	n/a	n/a	n/a	n/a	n/a
1421.534	n/a	PROB	710767	n/a	LTP258	ltpFR	15	n/a	n/a	n/a	n/a	n/a	n/a	24	8	9	9	n/a	n/a	n/a	n/a	n/a
1423.596	n/a	STOP	711798	n/a	LTP258	ltpFR	15	n/a	n/a	n/a	n/a	n/a	n/a	n/a	n/a	n/a	n/a	n/a	n/a	n/a	n/a	n/a
1424.852	n/a	WORD	712426	wordpools/wasnorm_wordpool_less_exclusions.txt	LTP258	ltpFR	15	6	1	GOVERNOR	651	n/a	1	n/a	0	0	0	0	0.5869140625	0.422607421875	upper	../fonts/amplitud.ttf
1427.864	n/a	START	713932	n/a	LTP258	ltpFR	15	n/a	n/a	n/a	n/a	n/a	n/a	n/a	n/a	n/a	n/a	n/a	n/a	n/a	n/a	n/a
1428.862	n/a	PROB	714431	n/a	LTP258	ltpFR	15	n/a	n/a	n/a	n/a	n/a	n/a	16	8	1	7	n/a	n/a	n/a	n/a	n/a
1430.954	n/a	PROB	715477	n/a	LTP258	ltpFR	15	n/a	n/a	n/a	n/a	n/a	n/a	17	8	8	1	n/a	n/a	n/a	n/a	n/a
1433.514	n/a	PROB	716757	n/a	LTP258	ltpFR	15	n/a	n/a	n/a	n/a	n/a	n/a	18	8	5	2	n/a	n/a	n/a	n/a	n/a
1435.208	n/a	PROB	717604	n/a	LTP258	ltpFR	15	n/a	n/a	n/a	n/a	n/a	n/a	6	1	4	1	n/a	n/a	n/a	n/a	n/a
1436.408	n/a	PROB	718204	n/a	LTP258	ltpFR	15	n/a	n/a	n/a	n/a	n/a	n/a	3	1	1	1	n/a	n/a	n/a	n/a	n/a
1437.462	n/a	PROB	718731	n/a	LTP258	ltpFR	15	n/a	n/a	n/a	n/a	n/a	n/a	20	9	8	2	n/a	n/a	n/a	n/a	n/a
1439.102	n/a	PROB	719551	n/a	LTP258	ltpFR	15	n/a	n/a	n/a	n/a	n/a	n/a	26	9	9	7	n/a	n/a	n/a	n/a	n/a
1443.864	n/a	STOP	721932	n/a	LTP258	ltpFR	15	n/a	n/a	n/a	n/a	n/a	n/a	n/a	n/a	n/a	n/a	n/a	n/a	n/a	n/a	n/a
1444.824	n/a	WORD	722412	wordpools/wasnorm_wordpool_less_exclusions.txt	LTP258	ltpFR	15	6	1	PASSENGER	1020	n/a	1	n/a	0	0	0	0	0.5869140625	0.422607421875	upper	../fonts/amplitud.ttf
1447.84	n/a	START	723920	n/a	LTP258	ltpFR	15	n/a	n/a	n/a	n/a	n/a	n/a	n/a	n/a	n/a	n/a	n/a	n/a	n/a	n/a	n/a
1449.044	n/a	PROB	724522	n/a	LTP258	ltpFR	15	n/a	n/a	n/a	n/a	n/a	n/a	11	7	3	1	n/a	n/a	n/a	n/a	n/a
1450.178	n/a	PROB	725089	n/a	LTP258	ltpFR	15	n/a	n/a	n/a	n/a	n/a	n/a	13	6	2	5	n/a	n/a	n/a	n/a	n/a
1451.968	n/a	PROB	725984	n/a	LTP258	ltpFR	15	n/a	n/a	n/a	n/a	n/a	n/a	7888	1	3	4	n/a	n/a	n/a	n/a	n/a
1453.812	n/a	PROB	726906	n/a	LTP258	ltpFR	15	n/a	n/a	n/a	n/a	n/a	n/a	11	2	1	8	n/a	n/a	n/a	n/a	n/a
1455.936	n/a	PROB	727968	n/a	LTP258	ltpFR	15	n/a	n/a	n/a	n/a	n/a	n/a	14	9	2	3	n/a	n/a	n/a	n/a	n/a
1457.504	n/a	PROB	728752	n/a	LTP258	ltpFR	15	n/a	n/a	n/a	n/a	n/a	n/a	13	3	7	3	n/a	n/a	n/a	n/a	n/a
1458.676	n/a	PROB	729338	n/a	LTP258	ltpFR	15	n/a	n/a	n/a	n/a	n/a	n/a	1	2	9	6	n/a	n/a	n/a	n/a	n/a
1460.372	n/a	PROB	730186	n/a	LTP258	ltpFR	15	n/a	n/a	n/a	n/a	n/a	n/a	5	1	2	2	n/a	n/a	n/a	n/a	n/a
1461.604	n/a	PROB	730802	n/a	LTP258	ltpFR	15	n/a	n/a	n/a	n/a	n/a	n/a	23	9	7	7	n/a	n/a	n/a	n/a	n/a
1463.518	n/a	STOP	731759	n/a	LTP258	ltpFR	15	n/a	n/a	n/a	n/a	n/a	n/a	n/a	n/a	n/a	n/a	n/a	n/a	n/a	n/a	n/a
1464.904	n/a	WORD	732452	wordpools/wasnorm_wordpool_less_exclusions.txt	LTP258	ltpFR	15	6	1	BEAST	108	n/a	1	n/a	0	0	0	0	0.5869140625	0.422607421875	upper	../fonts/amplitud.ttf
1467.916	n/a	START	733958	n/a	LTP258	ltpFR	15	n/a	n/a	n/a	n/a	n/a	n/a	n/a	n/a	n/a	n/a	n/a	n/a	n/a	n/a	n/a
1468.866	n/a	PROB	734433	n/a	LTP258	ltpFR	15	n/a	n/a	n/a	n/a	n/a	n/a	26	9	7	9	n/a	n/a	n/a	n/a	n/a
1471.108	n/a	PROB	735554	n/a	LTP258	ltpFR	15	n/a	n/a	n/a	n/a	n/a	n/a	17	8	4	5	n/a	n/a	n/a	n/a	n/a
1473.434	n/a	PROB	736717	n/a	LTP258	ltpFR	15	n/a	n/a	n/a	n/a	n/a	n/a	9	1	6	2	n/a	n/a	n/a	n/a	n/a
1474.688	n/a	PROB	737344	n/a	LTP258	ltpFR	15	n/a	n/a	n/a	n/a	n/a	n/a	15	9	5	1	n/a	n/a	n/a	n/a	n/a
1475.926	n/a	PROB	737963	n/a	LTP258	ltpFR	15	n/a	n/a	n/a	n/a	n/a	n/a	15	2	5	8	n/a	n/a	n/a	n/a	n/a
1477.502	n/a	PROB	738751	n/a	LTP258	ltpFR	15	n/a	n/a	n/a	n/a	n/a	n/a	22	7	6	9	n/a	n/a	n/a	n/a	n/a
1479.088	n/a	PROB	739544	n/a	LTP258	ltpFR	15	n/a	n/a	n/a	n/a	n/a	n/a	18	8	6	4	n/a	n/a	n/a	n/a	n/a
1480.176	n/a	PROB	740088	n/a	LTP258	ltpFR	15	n/a	n/a	n/a	n/a	n/a	n/a	16	1	7	8	n/a	n/a	n/a	n/a	n/a
1483.916	n/a	STOP	741958	n/a	LTP258	ltpFR	15	n/a	n/a	n/a	n/a	n/a	n/a	n/a	n/a	n/a	n/a	n/a	n/a	n/a	n/a	n/a
1485.014	n/a	WORD	742507	wordpools/wasnorm_wordpool_less_exclusions.txt	LTP258	ltpFR	15	6	1	SHORE	1291	n/a	0	n/a	0	0	0	0	0.5869140625	0.422607421875	upper	../fonts/amplitud.ttf
1488.026	n/a	START	744013	n/a	LTP258	ltpFR	15	n/a	n/a	n/a	n/a	n/a	n/a	n/a	n/a	n/a	n/a	n/a	n/a	n/a	n/a	n/a
1488.846	n/a	PROB	744423	n/a	LTP258	ltpFR	15	n/a	n/a	n/a	n/a	n/a	n/a	20	5	6	9	n/a	n/a	n/a	n/a	n/a
1490.982	n/a	PROB	745491	n/a	LTP258	ltpFR	15	n/a	n/a	n/a	n/a	n/a	n/a	13	5	3	5	n/a	n/a	n/a	n/a	n/a
1491.954	n/a	PROB	745977	n/a	LTP258	ltpFR	15	n/a	n/a	n/a	n/a	n/a	n/a	13	5	4	4	n/a	n/a	n/a	n/a	n/a
1493.426	n/a	PROB	746713	n/a	LTP258	ltpFR	15	n/a	n/a	n/a	n/a	n/a	n/a	12	5	3	4	n/a	n/a	n/a	n/a	n/a
1495.014	n/a	PROB	747507	n/a	LTP258	ltpFR	15	n/a	n/a	n/a	n/a	n/a	n/a	16	6	2	8	n/a	n/a	n/a	n/a	n/a
1496.504	n/a	PROB	748252	n/a	LTP258	ltpFR	15	n/a	n/a	n/a	n/a	n/a	n/a	22	6	7	8	n/a	n/a	n/a	n/a	n/a
1499.354	n/a	PROB	749677	n/a	LTP258	ltpFR	15	n/a	n/a	n/a	n/a	n/a	n/a	15	5	4	6	n/a	n/a	n/a	n/a	n/a
1504.028	n/a	STOP	752014	n/a	LTP258	ltpFR	15	n/a	n/a	n/a	n/a	n/a	n/a	n/a	n/a	n/a	n/a	n/a	n/a	n/a	n/a	n/a
1504.904	n/a	WORD	752452	wordpools/wasnorm_wordpool_less_exclusions.txt	LTP258	ltpFR	15	6	1	MINER	896	n/a	1	n/a	0	0	0	0	0.5869140625	0.422607421875	upper	../fonts/amplitud.ttf
1507.92	n/a	START	753960	n/a	LTP258	ltpFR	15	n/a	n/a	n/a	n/a	n/a	n/a	n/a	n/a	n/a	n/a	n/a	n/a	n/a	n/a	n/a
1508.872	n/a	PROB	754436	n/a	LTP258	ltpFR	15	n/a	n/a	n/a	n/a	n/a	n/a	1	5	6	2	n/a	n/a	n/a	n/a	n/a
1511.378	n/a	PROB	755689	n/a	LTP258	ltpFR	15	n/a	n/a	n/a	n/a	n/a	n/a	19	8	5	6	n/a	n/a	n/a	n/a	n/a
1513.268	n/a	PROB	756634	n/a	LTP258	ltpFR	15	n/a	n/a	n/a	n/a	n/a	n/a	9	4	1	4	n/a	n/a	n/a	n/a	n/a
1514.824	n/a	PROB	757412	n/a	LTP258	ltpFR	15	n/a	n/a	n/a	n/a	n/a	n/a	2233	7	7	9	n/a	n/a	n/a	n/a	n/a
1520.112	n/a	PROB	760056	n/a	LTP258	ltpFR	15	n/a	n/a	n/a	n/a	n/a	n/a	13	9	6	7	n/a	n/a	n/a	n/a	n/a
1521.182	n/a	PROB	760591	n/a	LTP258	ltpFR	15	n/a	n/a	n/a	n/a	n/a	n/a	12	3	8	2	n/a	n/a	n/a	n/a	n/a
1522.338	n/a	PROB	761169	n/a	LTP258	ltpFR	15	n/a	n/a	n/a	n/a	n/a	n/a	18	7	2	9	n/a	n/a	n/a	n/a	n/a
1523.88	n/a	STOP	761940	n/a	LTP258	ltpFR	15	n/a	n/a	n/a	n/a	n/a	n/a	n/a	n/a	n/a	n/a	n/a	n/a	n/a	n/a	n/a
1524.962	n/a	WORD	762481	wordpools/wasnorm_wordpool_less_exclusions.txt	LTP258	ltpFR	15	6	1	BEAD	103	n/a	0	n/a	0	0	0	0	0.5869140625	0.422607421875	upper	../fonts/amplitud.ttf
1527.978	n/a	START	763989	n/a	LTP258	ltpFR	15	n/a	n/a	n/a	n/a	n/a	n/a	n/a	n/a	n/a	n/a	n/a	n/a	n/a	n/a	n/a
1529.0	n/a	PROB	764500	n/a	LTP258	ltpFR	15	n/a	n/a	n/a	n/a	n/a	n/a	18	5	8	5	n/a	n/a	n/a	n/a	n/a
1530.132	n/a	PROB	765066	n/a	LTP258	ltpFR	15	n/a	n/a	n/a	n/a	n/a	n/a	21	7	5	9	n/a	n/a	n/a	n/a	n/a
1532.144	n/a	PROB	766072	n/a	LTP258	ltpFR	15	n/a	n/a	n/a	n/a	n/a	n/a	17	2	6	9	n/a	n/a	n/a	n/a	n/a
1533.98	n/a	PROB	766990	n/a	LTP258	ltpFR	15	n/a	n/a	n/a	n/a	n/a	n/a	17	4	4	9	n/a	n/a	n/a	n/a	n/a
1535.57	n/a	PROB	767785	n/a	LTP258	ltpFR	15	n/a	n/a	n/a	n/a	n/a	n/a	8	2	4	2	n/a	n/a	n/a	n/a	n/a
1537.312	n/a	PROB	768656	n/a	LTP258	ltpFR	15	n/a	n/a	n/a	n/a	n/a	n/a	18	4	5	9	n/a	n/a	n/a	n/a	n/a
1538.432	n/a	PROB	769216	n/a	LTP258	ltpFR	15	n/a	n/a	n/a	n/a	n/a	n/a	16	8	1	6	n/a	n/a	n/a	n/a	n/a
1540.328	n/a	PROB	770164	n/a	LTP258	ltpFR	15	n/a	n/a	n/a	n/a	n/a	n/a	15	7	1	7	n/a	n/a	n/a	n/a	n/a
1541.51	n/a	PROB	770755	n/a	LTP258	ltpFR	15	n/a	n/a	n/a	n/a	n/a	n/a	22	9	4	9	n/a	n/a	n/a	n/a	n/a
1543.314	n/a	STOP	771657	n/a	LTP258	ltpFR	15	n/a	n/a	n/a	n/a	n/a	n/a	n/a	n/a	n/a	n/a	n/a	n/a	n/a	n/a	n/a
1545.844	n/a	REC_START	772922	n/a	LTP258	ltpFR	15	6	n/a	n/a	n/a	n/a	n/a	n/a	0	0	0	n/a	n/a	n/a	n/a	n/a
1551.956	n/a	REC_WORD	775978	wordpools/wasnorm_wordpool_less_exclusions.txt	LTP258	ltpFR	15	6	1	BEAST	108	n/a	1	n/a	0	0	0	n/a	n/a	n/a	n/a	n/a
1584.372	n/a	REC_WORD	792186	wordpools/wasnorm_wordpool_less_exclusions.txt	LTP258	ltpFR	15	6	1	BEAD	103	n/a	0	n/a	0	0	0	n/a	n/a	n/a	n/a	n/a
1587.382	n/a	REC_WORD	793691	wordpools/wasnorm_wordpool_less_exclusions.txt	LTP258	ltpFR	15	6	1	SHORE	1291	n/a	0	n/a	0	0	0	n/a	n/a	n/a	n/a	n/a
1608.322	n/a	REC_WORD	804161	wordpools/wasnorm_wordpool_less_exclusions.txt	LTP258	ltpFR	15	6	1	CUB	419	n/a	1	n/a	0	0	0	n/a	n/a	n/a	n/a	n/a
1625.062	n/a	START	812531	n/a	LTP258	ltpFR	15	n/a	n/a	n/a	n/a	n/a	n/a	n/a	n/a	n/a	n/a	n/a	n/a	n/a	n/a	n/a
1626.572	n/a	PROB	813286	n/a	LTP258	ltpFR	15	n/a	n/a	n/a	n/a	n/a	n/a	16	5	5	6	n/a	n/a	n/a	n/a	n/a
1627.872	n/a	PROB	813936	n/a	LTP258	ltpFR	15	n/a	n/a	n/a	n/a	n/a	n/a	14	4	8	2	n/a	n/a	n/a	n/a	n/a
1629.964	n/a	PROB	814982	n/a	LTP258	ltpFR	15	n/a	n/a	n/a	n/a	n/a	n/a	24	7	9	9	n/a	n/a	n/a	n/a	n/a
1632.998	n/a	STOP	816499	n/a	LTP258	ltpFR	15	n/a	n/a	n/a	n/a	n/a	n/a	n/a	n/a	n/a	n/a	n/a	n/a	n/a	n/a	n/a
1634.014	n/a	WORD	817007	wordpools/wasnorm_wordpool_less_exclusions.txt	LTP258	ltpFR	15	7	0	SAGE	1222	n/a	0	n/a	0	0	0	1	0.412841796875	0.57763671875	lower	../fonts/zerothre.ttf
1637.03	n/a	START	818515	n/a	LTP258	ltpFR	15	n/a	n/a	n/a	n/a	n/a	n/a	n/a	n/a	n/a	n/a	n/a	n/a	n/a	n/a	n/a
1637.866	n/a	PROB	818933	n/a	LTP258	ltpFR	15	n/a	n/a	n/a	n/a	n/a	n/a	16	1	8	7	n/a	n/a	n/a	n/a	n/a
1638.97	n/a	PROB	819485	n/a	LTP258	ltpFR	15	n/a	n/a	n/a	n/a	n/a	n/a	27	8	9	8	n/a	n/a	n/a	n/a	n/a
1640.47	n/a	PROB	820235	n/a	LTP258	ltpFR	15	n/a	n/a	n/a	n/a	n/a	n/a	13	3	5	5	n/a	n/a	n/a	n/a	n/a
1641.726	n/a	PROB	820863	n/a	LTP258	ltpFR	15	n/a	n/a	n/a	n/a	n/a	n/a	11	2	3	6	n/a	n/a	n/a	n/a	n/a
1643.52	n/a	PROB	821760	n/a	LTP258	ltpFR	15	n/a	n/a	n/a	n/a	n/a	n/a	12	2	6	4	n/a	n/a	n/a	n/a	n/a
1644.566	n/a	STOP	822283	n/a	LTP258	ltpFR	15	n/a	n/a	n/a	n/a	n/a	n/a	n/a	n/a	n/a	n/a	n/a	n/a	n/a	n/a	n/a
1645.88	n/a	WORD	822940	wordpools/wasnorm_wordpool_less_exclusions.txt	LTP258	ltpFR	15	7	0	RELISH	1183	n/a	0	n/a	0	0	0	1	0.412841796875	0.57763671875	lower	../fonts/zerothre.ttf
1648.892	n/a	START	824446	n/a	LTP258	ltpFR	15	n/a	n/a	n/a	n/a	n/a	n/a	n/a	n/a	n/a	n/a	n/a	n/a	n/a	n/a	n/a
1649.974	n/a	PROB	824987	n/a	LTP258	ltpFR	15	n/a	n/a	n/a	n/a	n/a	n/a	7	2	2	3	n/a	n/a	n/a	n/a	n/a
1651.732	n/a	PROB	825866	n/a	LTP258	ltpFR	15	n/a	n/a	n/a	n/a	n/a	n/a	23	7	7	9	n/a	n/a	n/a	n/a	n/a
1655.776	n/a	STOP	827888	n/a	LTP258	ltpFR	15	n/a	n/a	n/a	n/a	n/a	n/a	n/a	n/a	n/a	n/a	n/a	n/a	n/a	n/a	n/a
1657.926	n/a	WORD	828963	wordpools/wasnorm_wordpool_less_exclusions.txt	LTP258	ltpFR	15	7	1	ROCKET	1202	n/a	1	n/a	0	0	0	0	0.5869140625	0.422607421875	upper	../fonts/amplitud.ttf
1660.938	n/a	START	830469	n/a	LTP258	ltpFR	15	n/a	n/a	n/a	n/a	n/a	n/a	n/a	n/a	n/a	n/a	n/a	n/a	n/a	n/a	n/a
1661.786	n/a	PROB	830893	n/a	LTP258	ltpFR	15	n/a	n/a	n/a	n/a	n/a	n/a	10	4	1	5	n/a	n/a	n/a	n/a	n/a
1663.296	n/a	PROB	831648	n/a	LTP258	ltpFR	15	n/a	n/a	n/a	n/a	n/a	n/a	18	7	9	2	n/a	n/a	n/a	n/a	n/a
1664.83	n/a	PROB	832415	n/a	LTP258	ltpFR	15	n/a	n/a	n/a	n/a	n/a	n/a	12	3	2	7	n/a	n/a	n/a	n/a	n/a
1665.934	n/a	PROB	832967	n/a	LTP258	ltpFR	15	n/a	n/a	n/a	n/a	n/a	n/a	14	8	1	5	n/a	n/a	n/a	n/a	n/a
1667.784	n/a	STOP	833892	n/a	LTP258	ltpFR	15	n/a	n/a	n/a	n/a	n/a	n/a	n/a	n/a	n/a	n/a	n/a	n/a	n/a	n/a	n/a
1670.118	n/a	WORD	835059	wordpools/wasnorm_wordpool_less_exclusions.txt	LTP258	ltpFR	15	7	1	TERMITE	1451	n/a	1	n/a	0	0	0	0	0.5869140625	0.422607421875	upper	../fonts/amplitud.ttf
1673.134	n/a	START	836567	n/a	LTP258	ltpFR	15	n/a	n/a	n/a	n/a	n/a	n/a	n/a	n/a	n/a	n/a	n/a	n/a	n/a	n/a	n/a
1674.34	n/a	PROB	837170	n/a	LTP258	ltpFR	15	n/a	n/a	n/a	n/a	n/a	n/a	17	9	6	2	n/a	n/a	n/a	n/a	n/a
1675.878	n/a	PROB	837939	n/a	LTP258	ltpFR	15	n/a	n/a	n/a	n/a	n/a	n/a	19	5	5	9	n/a	n/a	n/a	n/a	n/a
1677.262	n/a	PROB	838631	n/a	LTP258	ltpFR	15	n/a	n/a	n/a	n/a	n/a	n/a	15	6	4	5	n/a	n/a	n/a	n/a	n/a
1679.584	n/a	STOP	839792	n/a	LTP258	ltpFR	15	n/a	n/a	n/a	n/a	n/a	n/a	n/a	n/a	n/a	n/a	n/a	n/a	n/a	n/a	n/a
1682.146	n/a	WORD	841073	wordpools/wasnorm_wordpool_less_exclusions.txt	LTP258	ltpFR	15	7	1	VACUUM	1543	n/a	0	n/a	0	0	0	0	0.5869140625	0.422607421875	upper	../fonts/amplitud.ttf
1685.164	n/a	START	842582	n/a	LTP258	ltpFR	15	n/a	n/a	n/a	n/a	n/a	n/a	n/a	n/a	n/a	n/a	n/a	n/a	n/a	n/a	n/a
1686.078	n/a	PROB	843039	n/a	LTP258	ltpFR	15	n/a	n/a	n/a	n/a	n/a	n/a	17	6	9	2	n/a	n/a	n/a	n/a	n/a
1687.604	n/a	PROB	843802	n/a	LTP258	ltpFR	15	n/a	n/a	n/a	n/a	n/a	n/a	13	3	5	5	n/a	n/a	n/a	n/a	n/a
1688.672	n/a	PROB	844336	n/a	LTP258	ltpFR	15	n/a	n/a	n/a	n/a	n/a	n/a	21	3	9	9	n/a	n/a	n/a	n/a	n/a
1690.562	n/a	PROB	845281	n/a	LTP258	ltpFR	15	n/a	n/a	n/a	n/a	n/a	n/a	12	5	2	5	n/a	n/a	n/a	n/a	n/a
1693.164	n/a	STOP	846582	n/a	LTP258	ltpFR	15	n/a	n/a	n/a	n/a	n/a	n/a	n/a	n/a	n/a	n/a	n/a	n/a	n/a	n/a	n/a
1694.13	n/a	WORD	847065	wordpools/wasnorm_wordpool_less_exclusions.txt	LTP258	ltpFR	15	7	0	WRITER	1627	n/a	1	n/a	0	0	0	1	0.412841796875	0.57763671875	lower	../fonts/zerothre.ttf
1697.142	n/a	START	848571	n/a	LTP258	ltpFR	15	n/a	n/a	n/a	n/a	n/a	n/a	n/a	n/a	n/a	n/a	n/a	n/a	n/a	n/a	n/a
1698.33	n/a	PROB	849165	n/a	LTP258	ltpFR	15	n/a	n/a	n/a	n/a	n/a	n/a	15	1	7	7	n/a	n/a	n/a	n/a	n/a
1699.518	n/a	PROB	849759	n/a	LTP258	ltpFR	15	n/a	n/a	n/a	n/a	n/a	n/a	8	1	4	4	n/a	n/a	n/a	n/a	n/a
1700.784	n/a	PROB	850392	n/a	LTP258	ltpFR	15	n/a	n/a	n/a	n/a	n/a	n/a	14	9	2	3	n/a	n/a	n/a	n/a	n/a
1705.142	n/a	STOP	852571	n/a	LTP258	ltpFR	15	n/a	n/a	n/a	n/a	n/a	n/a	n/a	n/a	n/a	n/a	n/a	n/a	n/a	n/a	n/a
1706.31	n/a	WORD	853155	wordpools/wasnorm_wordpool_less_exclusions.txt	LTP258	ltpFR	15	7	0	FLY	586	n/a	0	n/a	0	0	0	1	0.412841796875	0.57763671875	lower	../fonts/zerothre.ttf
1709.324	n/a	START	854662	n/a	LTP258	ltpFR	15	n/a	n/a	n/a	n/a	n/a	n/a	n/a	n/a	n/a	n/a	n/a	n/a	n/a	n/a	n/a
1710.428	n/a	PROB	855214	n/a	LTP258	ltpFR	15	n/a	n/a	n/a	n/a	n/a	n/a	24	7	9	8	n/a	n/a	n/a	n/a	n/a
1712.668	n/a	PROB	856334	n/a	LTP258	ltpFR	15	n/a	n/a	n/a	n/a	n/a	n/a	17	3	8	6	n/a	n/a	n/a	n/a	n/a
1715.624	n/a	PROB	857812	n/a	LTP258	ltpFR	15	n/a	n/a	n/a	n/a	n/a	n/a	13	4	7	2	n/a	n/a	n/a	n/a	n/a
1717.162	n/a	STOP	858581	n/a	LTP258	ltpFR	15	n/a	n/a	n/a	n/a	n/a	n/a	n/a	n/a	n/a	n/a	n/a	n/a	n/a	n/a	n/a
1718.222	n/a	WORD	859111	wordpools/wasnorm_wordpool_less_exclusions.txt	LTP258	ltpFR	15	7	0	CREW	406	n/a	1	n/a	0	0	0	1	0.412841796875	0.57763671875	lower	../fonts/zerothre.ttf
1721.236	n/a	START	860618	n/a	LTP258	ltpFR	15	n/a	n/a	n/a	n/a	n/a	n/a	n/a	n/a	n/a	n/a	n/a	n/a	n/a	n/a	n/a
1722.322	n/a	PROB	861161	n/a	LTP258	ltpFR	15	n/a	n/a	n/a	n/a	n/a	n/a	17	9	3	5	n/a	n/a	n/a	n/a	n/a
1723.542	n/a	PROB	861771	n/a	LTP258	ltpFR	15	n/a	n/a	n/a	n/a	n/a	n/a	16	3	5	8	n/a	n/a	n/a	n/a	n/a
1725.366	n/a	PROB	862683	n/a	LTP258	ltpFR	15	n/a	n/a	n/a	n/a	n/a	n/a	17	6	2	9	n/a	n/a	n/a	n/a	n/a
1726.55	n/a	PROB	863275	n/a	LTP258	ltpFR	15	n/a	n/a	n/a	n/a	n/a	n/a	22	9	9	4	n/a	n/a	n/a	n/a	n/a
1728.004	n/a	STOP	864002	n/a	LTP258	ltpFR	15	n/a	n/a	n/a	n/a	n/a	n/a	n/a	n/a	n/a	n/a	n/a	n/a	n/a	n/a	n/a
1730.37	n/a	WORD	865185	wordpools/wasnorm_wordpool_less_exclusions.txt	LTP258	ltpFR	15	7	0	SHERIFF	1284	n/a	1	n/a	0	0	0	1	0.412841796875	0.57763671875	lower	../fonts/zerothre.ttf
1733.382	n/a	START	866691	n/a	LTP258	ltpFR	15	n/a	n/a	n/a	n/a	n/a	n/a	n/a	n/a	n/a	n/a	n/a	n/a	n/a	n/a	n/a
1734.252	n/a	PROB	867126	n/a	LTP258	ltpFR	15	n/a	n/a	n/a	n/a	n/a	n/a	22	9	6	7	n/a	n/a	n/a	n/a	n/a
1736.922	n/a	PROB	868461	n/a	LTP258	ltpFR	15	n/a	n/a	n/a	n/a	n/a	n/a	197	8	3	6	n/a	n/a	n/a	n/a	n/a
1739.82	n/a	STOP	869910	n/a	LTP258	ltpFR	15	n/a	n/a	n/a	n/a	n/a	n/a	n/a	n/a	n/a	n/a	n/a	n/a	n/a	n/a	n/a
1742.398	n/a	WORD	871199	wordpools/wasnorm_wordpool_less_exclusions.txt	LTP258	ltpFR	15	7	1	BADGE	68	n/a	0	n/a	0	0	0	0	0.5869140625	0.422607421875	upper	../fonts/amplitud.ttf
1745.412	n/a	START	872706	n/a	LTP258	ltpFR	15	n/a	n/a	n/a	n/a	n/a	n/a	n/a	n/a	n/a	n/a	n/a	n/a	n/a	n/a	n/a
1746.614	n/a	PROB	873307	n/a	LTP258	ltpFR	15	n/a	n/a	n/a	n/a	n/a	n/a	13	5	2	6	n/a	n/a	n/a	n/a	n/a
1748.116	n/a	PROB	874058	n/a	LTP258	ltpFR	15	n/a	n/a	n/a	n/a	n/a	n/a	13	5	1	7	n/a	n/a	n/a	n/a	n/a
1749.304	n/a	PROB	874652	n/a	LTP258	ltpFR	15	n/a	n/a	n/a	n/a	n/a	n/a	17	5	8	4	n/a	n/a	n/a	n/a	n/a
1751.06	n/a	PROB	875530	n/a	LTP258	ltpFR	15	n/a	n/a	n/a	n/a	n/a	n/a	16	5	2	9	n/a	n/a	n/a	n/a	n/a
1752.492	n/a	STOP	876246	n/a	LTP258	ltpFR	15	n/a	n/a	n/a	n/a	n/a	n/a	n/a	n/a	n/a	n/a	n/a	n/a	n/a	n/a	n/a
1754.244	n/a	WORD	877122	wordpools/wasnorm_wordpool_less_exclusions.txt	LTP258	ltpFR	15	7	1	BLANKET	135	n/a	0	n/a	0	0	0	0	0.5869140625	0.422607421875	upper	../fonts/amplitud.ttf
1757.256	n/a	START	878628	n/a	LTP258	ltpFR	15	n/a	n/a	n/a	n/a	n/a	n/a	n/a	n/a	n/a	n/a	n/a	n/a	n/a	n/a	n/a
1758.192	n/a	PROB	879096	n/a	LTP258	ltpFR	15	n/a	n/a	n/a	n/a	n/a	n/a	17	5	3	9	n/a	n/a	n/a	n/a	n/a
1759.38	n/a	PROB	879690	n/a	LTP258	ltpFR	15	n/a	n/a	n/a	n/a	n/a	n/a	11	1	8	2	n/a	n/a	n/a	n/a	n/a
1760.63	n/a	PROB	880315	n/a	LTP258	ltpFR	15	n/a	n/a	n/a	n/a	n/a	n/a	17	5	4	8	n/a	n/a	n/a	n/a	n/a
1762.102	n/a	PROB	881051	n/a	LTP258	ltpFR	15	n/a	n/a	n/a	n/a	n/a	n/a	12	5	3	4	n/a	n/a	n/a	n/a	n/a
1763.624	n/a	PROB	881812	n/a	LTP258	ltpFR	15	n/a	n/a	n/a	n/a	n/a	n/a	10	1	5	4	n/a	n/a	n/a	n/a	n/a
1764.686	n/a	STOP	882343	n/a	LTP258	ltpFR	15	n/a	n/a	n/a	n/a	n/a	n/a	n/a	n/a	n/a	n/a	n/a	n/a	n/a	n/a	n/a
1766.274	n/a	WORD	883137	wordpools/wasnorm_wordpool_less_exclusions.txt	LTP258	ltpFR	15	7	1	TUB	1514	n/a	0	n/a	0	0	0	0	0.5869140625	0.422607421875	upper	../fonts/amplitud.ttf
1769.286	n/a	START	884643	n/a	LTP258	ltpFR	15	n/a	n/a	n/a	n/a	n/a	n/a	n/a	n/a	n/a	n/a	n/a	n/a	n/a	n/a	n/a
1770.44	n/a	PROB	885220	n/a	LTP258	ltpFR	15	n/a	n/a	n/a	n/a	n/a	n/a	869	1	6	2	n/a	n/a	n/a	n/a	n/a
1772.392	n/a	PROB	886196	n/a	LTP258	ltpFR	15	n/a	n/a	n/a	n/a	n/a	n/a	13	4	3	6	n/a	n/a	n/a	n/a	n/a
1773.568	n/a	PROB	886784	n/a	LTP258	ltpFR	15	n/a	n/a	n/a	n/a	n/a	n/a	12	7	3	2	n/a	n/a	n/a	n/a	n/a
1774.516	n/a	PROB	887258	n/a	LTP258	ltpFR	15	n/a	n/a	n/a	n/a	n/a	n/a	11	6	1	4	n/a	n/a	n/a	n/a	n/a
1775.558	n/a	PROB	887779	n/a	LTP258	ltpFR	15	n/a	n/a	n/a	n/a	n/a	n/a	24	8	8	8	n/a	n/a	n/a	n/a	n/a
1776.694	n/a	STOP	888347	n/a	LTP258	ltpFR	15	n/a	n/a	n/a	n/a	n/a	n/a	n/a	n/a	n/a	n/a	n/a	n/a	n/a	n/a	n/a
1778.164	n/a	WORD	889082	wordpools/wasnorm_wordpool_less_exclusions.txt	LTP258	ltpFR	15	7	1	AUTHOR	61	n/a	0	n/a	0	0	0	0	0.5869140625	0.422607421875	upper	../fonts/amplitud.ttf
1781.18	n/a	START	890590	n/a	LTP258	ltpFR	15	n/a	n/a	n/a	n/a	n/a	n/a	n/a	n/a	n/a	n/a	n/a	n/a	n/a	n/a	n/a
1782.132	n/a	PROB	891066	n/a	LTP258	ltpFR	15	n/a	n/a	n/a	n/a	n/a	n/a	17	6	8	3	n/a	n/a	n/a	n/a	n/a
1784.706	n/a	PROB	892353	n/a	LTP258	ltpFR	15	n/a	n/a	n/a	n/a	n/a	n/a	2	5	7	6	n/a	n/a	n/a	n/a	n/a
1789.18	n/a	STOP	894590	n/a	LTP258	ltpFR	15	n/a	n/a	n/a	n/a	n/a	n/a	n/a	n/a	n/a	n/a	n/a	n/a	n/a	n/a	n/a
1790.382	n/a	WORD	895191	wordpools/wasnorm_wordpool_less_exclusions.txt	LTP258	ltpFR	15	7	1	RAISIN	1163	n/a	0	n/a	0	0	0	0	0.5869140625	0.422607421875	upper	../fonts/amplitud.ttf
1793.394	n/a	START	896697	n/a	LTP258	ltpFR	15	n/a	n/a	n/a	n/a	n/a	n/a	n/a	n/a	n/a	n/a	n/a	n/a	n/a	n/a	n/a
1794.264	n/a	PROB	897132	n/a	LTP258	ltpFR	15	n/a	n/a	n/a	n/a	n/a	n/a	36	3	1	2	n/a	n/a	n/a	n/a	n/a
1796.154	n/a	PROB	898077	n/a	LTP258	ltpFR	15	n/a	n/a	n/a	n/a	n/a	n/a	18	2	9	7	n/a	n/a	n/a	n/a	n/a
1799.494	n/a	PROB	899747	n/a	LTP258	ltpFR	15	n/a	n/a	n/a	n/a	n/a	n/a	8	4	2	4	n/a	n/a	n/a	n/a	n/a
1800.4	n/a	STOP	900200	n/a	LTP258	ltpFR	15	n/a	n/a	n/a	n/a	n/a	n/a	n/a	n/a	n/a	n/a	n/a	n/a	n/a	n/a	n/a
1802.308	n/a	WORD	901154	wordpools/wasnorm_wordpool_less_exclusions.txt	LTP258	ltpFR	15	7	0	STRAWBERRY	1391	n/a	1	n/a	0	0	0	1	0.412841796875	0.57763671875	lower	../fonts/zerothre.ttf
1805.324	n/a	START	902662	n/a	LTP258	ltpFR	15	n/a	n/a	n/a	n/a	n/a	n/a	n/a	n/a	n/a	n/a	n/a	n/a	n/a	n/a	n/a
1806.158	n/a	PROB	903079	n/a	LTP258	ltpFR	15	n/a	n/a	n/a	n/a	n/a	n/a	24	9	8	7	n/a	n/a	n/a	n/a	n/a
1807.778	n/a	PROB	903889	n/a	LTP258	ltpFR	15	n/a	n/a	n/a	n/a	n/a	n/a	11	5	6	1	n/a	n/a	n/a	n/a	n/a
1808.936	n/a	PROB	904468	n/a	LTP258	ltpFR	15	n/a	n/a	n/a	n/a	n/a	n/a	16	6	6	3	n/a	n/a	n/a	n/a	n/a
1811.952	n/a	STOP	905976	n/a	LTP258	ltpFR	15	n/a	n/a	n/a	n/a	n/a	n/a	n/a	n/a	n/a	n/a	n/a	n/a	n/a	n/a	n/a
1814.374	n/a	WORD	907187	wordpools/wasnorm_wordpool_less_exclusions.txt	LTP258	ltpFR	15	7	0	GRATE	657	n/a	0	n/a	0	0	0	1	0.412841796875	0.57763671875	lower	../fonts/zerothre.ttf
1817.386	n/a	START	908693	n/a	LTP258	ltpFR	15	n/a	n/a	n/a	n/a	n/a	n/a	n/a	n/a	n/a	n/a	n/a	n/a	n/a	n/a	n/a
1818.352	n/a	PROB	909176	n/a	LTP258	ltpFR	15	n/a	n/a	n/a	n/a	n/a	n/a	23	6	8	9	n/a	n/a	n/a	n/a	n/a
1820.86	n/a	PROB	910430	n/a	LTP258	ltpFR	15	n/a	n/a	n/a	n/a	n/a	n/a	11	1	7	3	n/a	n/a	n/a	n/a	n/a
1821.936	n/a	PROB	910968	n/a	LTP258	ltpFR	15	n/a	n/a	n/a	n/a	n/a	n/a	23	6	8	9	n/a	n/a	n/a	n/a	n/a
1825.386	n/a	STOP	912693	n/a	LTP258	ltpFR	15	n/a	n/a	n/a	n/a	n/a	n/a	n/a	n/a	n/a	n/a	n/a	n/a	n/a	n/a	n/a
1827.274	n/a	REC_START	913637	n/a	LTP258	ltpFR	15	7	n/a	n/a	n/a	n/a	n/a	n/a	0	0	0	n/a	n/a	n/a	n/a	n/a
1828.89	n/a	REC_WORD	914445	wordpools/wasnorm_wordpool_less_exclusions.txt	LTP258	ltpFR	15	7	0	GRATE	657	n/a	0	n/a	0	0	0	n/a	n/a	n/a	n/a	n/a
1829.666	n/a	REC_WORD	914833	wordpools/wasnorm_wordpool_less_exclusions.txt	LTP258	ltpFR	15	7	1	RAISIN	1163	n/a	0	n/a	0	0	0	n/a	n/a	n/a	n/a	n/a
1833.348	n/a	REC_WORD	916674	wordpools/wasnorm_wordpool_less_exclusions.txt	LTP258	ltpFR	15	7	0	FLY	586	n/a	0	n/a	0	0	0	n/a	n/a	n/a	n/a	n/a
1834.584	n/a	REC_WORD	917292	wordpools/wasnorm_wordpool_less_exclusions.txt	LTP258	ltpFR	15	7	0	CREW	406	n/a	1	n/a	0	0	0	n/a	n/a	n/a	n/a	n/a
1900.496	n/a	REC_WORD	950248	wordpools/wasnorm_wordpool_less_exclusions.txt	LTP258	ltpFR	15	7	0	STRAWBERRY	1391	n/a	1	n/a	0	0	0	n/a	n/a	n/a	n/a	n/a
1905.384	n/a	START	952692	n/a	LTP258	ltpFR	15	n/a	n/a	n/a	n/a	n/a	n/a	n/a	n/a	n/a	n/a	n/a	n/a	n/a	n/a	n/a
1906.894	n/a	PROB	953447	n/a	LTP258	ltpFR	15	n/a	n/a	n/a	n/a	n/a	n/a	8	2	4	2	n/a	n/a	n/a	n/a	n/a
1908.214	n/a	PROB	954107	n/a	LTP258	ltpFR	15	n/a	n/a	n/a	n/a	n/a	n/a	133	4	6	3	n/a	n/a	n/a	n/a	n/a
1909.968	n/a	PROB	954984	n/a	LTP258	ltpFR	15	n/a	n/a	n/a	n/a	n/a	n/a	16	2	6	8	n/a	n/a	n/a	n/a	n/a
1912.298	n/a	PROB	956149	n/a	LTP258	ltpFR	15	n/a	n/a	n/a	n/a	n/a	n/a	14	5	4	7	n/a	n/a	n/a	n/a	n/a
1914.92	n/a	PROB	957460	n/a	LTP258	ltpFR	15	n/a	n/a	n/a	n/a	n/a	n/a	1	2	6	5	n/a	n/a	n/a	n/a	n/a
1921.386	n/a	STOP	960693	n/a	LTP258	ltpFR	15	n/a	n/a	n/a	n/a	n/a	n/a	n/a	n/a	n/a	n/a	n/a	n/a	n/a	n/a	n/a
1922.586	n/a	WORD	961293	wordpools/wasnorm_wordpool_less_exclusions.txt	LTP258	ltpFR	15	8	0	HOOK	715	n/a	1	n/a	0	0	0	1	0.412841796875	0.57763671875	lower	../fonts/zerothre.ttf
1925.598	n/a	START	962799	n/a	LTP258	ltpFR	15	n/a	n/a	n/a	n/a	n/a	n/a	n/a	n/a	n/a	n/a	n/a	n/a	n/a	n/a	n/a
1926.618	n/a	PROB	963309	n/a	LTP258	ltpFR	15	n/a	n/a	n/a	n/a	n/a	n/a	17	1	9	7	n/a	n/a	n/a	n/a	n/a
1928.426	n/a	PROB	964213	n/a	LTP258	ltpFR	15	n/a	n/a	n/a	n/a	n/a	n/a	19	5	9	5	n/a	n/a	n/a	n/a	n/a
1929.68	n/a	PROB	964840	n/a	LTP258	ltpFR	15	n/a	n/a	n/a	n/a	n/a	n/a	7	2	2	3	n/a	n/a	n/a	n/a	n/a
1931.282	n/a	PROB	965641	n/a	LTP258	ltpFR	15	n/a	n/a	n/a	n/a	n/a	n/a	9	3	1	5	n/a	n/a	n/a	n/a	n/a
1933.442	n/a	PROB	966721	n/a	LTP258	ltpFR	15	n/a	n/a	n/a	n/a	n/a	n/a	19	6	8	5	n/a	n/a	n/a	n/a	n/a
1935.148	n/a	PROB	967574	n/a	LTP258	ltpFR	15	n/a	n/a	n/a	n/a	n/a	n/a	12	4	4	4	n/a	n/a	n/a	n/a	n/a
1936.854	n/a	PROB	968427	n/a	LTP258	ltpFR	15	n/a	n/a	n/a	n/a	n/a	n/a	17	9	2	6	n/a	n/a	n/a	n/a	n/a
1938.632	n/a	PROB	969316	n/a	LTP258	ltpFR	15	n/a	n/a	n/a	n/a	n/a	n/a	16	2	6	8	n/a	n/a	n/a	n/a	n/a
1941.542	n/a	STOP	970771	n/a	LTP258	ltpFR	15	n/a	n/a	n/a	n/a	n/a	n/a	n/a	n/a	n/a	n/a	n/a	n/a	n/a	n/a	n/a
1942.826	n/a	WORD	971413	wordpools/wasnorm_wordpool_less_exclusions.txt	LTP258	ltpFR	15	8	0	LEOPARD	812	n/a	1	n/a	0	0	0	1	0.412841796875	0.57763671875	lower	../fonts/zerothre.ttf
1945.842	n/a	START	972921	n/a	LTP258	ltpFR	15	n/a	n/a	n/a	n/a	n/a	n/a	n/a	n/a	n/a	n/a	n/a	n/a	n/a	n/a	n/a
1946.696	n/a	PROB	973348	n/a	LTP258	ltpFR	15	n/a	n/a	n/a	n/a	n/a	n/a	8	2	3	3	n/a	n/a	n/a	n/a	n/a
1947.884	n/a	PROB	973942	n/a	LTP258	ltpFR	15	n/a	n/a	n/a	n/a	n/a	n/a	4	2	1	1	n/a	n/a	n/a	n/a	n/a
1948.866	n/a	PROB	974433	n/a	LTP258	ltpFR	15	n/a	n/a	n/a	n/a	n/a	n/a	13	3	5	3	n/a	n/a	n/a	n/a	n/a
1950.844	n/a	PROB	975422	n/a	LTP258	ltpFR	15	n/a	n/a	n/a	n/a	n/a	n/a	20	6	5	9	n/a	n/a	n/a	n/a	n/a
1952.814	n/a	PROB	976407	n/a	LTP258	ltpFR	15	n/a	n/a	n/a	n/a	n/a	n/a	14	3	7	4	n/a	n/a	n/a	n/a	n/a
1954.02	n/a	PROB	977010	n/a	LTP258	ltpFR	15	n/a	n/a	n/a	n/a	n/a	n/a	10	4	1	5	n/a	n/a	n/a	n/a	n/a
1955.258	n/a	PROB	977629	n/a	LTP258	ltpFR	15	n/a	n/a	n/a	n/a	n/a	n/a	15	7	4	4	n/a	n/a	n/a	n/a	n/a
1957.132	n/a	PROB	978566	n/a	LTP258	ltpFR	15	n/a	n/a	n/a	n/a	n/a	n/a	16	3	8	5	n/a	n/a	n/a	n/a	n/a
1958.49	n/a	PROB	979245	n/a	LTP258	ltpFR	15	n/a	n/a	n/a	n/a	n/a	n/a	18	7	4	7	n/a	n/a	n/a	n/a	n/a
1960.384	n/a	STOP	980192	n/a	LTP258	ltpFR	15	n/a	n/a	n/a	n/a	n/a	n/a	n/a	n/a	n/a	n/a	n/a	n/a	n/a	n/a	n/a
1962.986	n/a	WORD	981493	wordpools/wasnorm_wordpool_less_exclusions.txt	LTP258	ltpFR	15	8	0	LADDER	793	n/a	1	n/a	0	0	0	1	0.412841796875	0.57763671875	lower	../fonts/zerothre.ttf
1966.002	n/a	START	983001	n/a	LTP258	ltpFR	15	n/a	n/a	n/a	n/a	n/a	n/a	n/a	n/a	n/a	n/a	n/a	n/a	n/a	n/a	n/a
1967.118	n/a	PROB	983559	n/a	LTP258	ltpFR	15	n/a	n/a	n/a	n/a	n/a	n/a	20	6	6	7	n/a	n/a	n/a	n/a	n/a
1969.816	n/a	PROB	984908	n/a	LTP258	ltpFR	15	n/a	n/a	n/a	n/a	n/a	n/a	8	1	5	2	n/a	n/a	n/a	n/a	n/a
1972.004	n/a	PROB	986002	n/a	LTP258	ltpFR	15	n/a	n/a	n/a	n/a	n/a	n/a	20	8	8	6	n/a	n/a	n/a	n/a	n/a
1973.946	n/a	PROB	986973	n/a	LTP258	ltpFR	15	n/a	n/a	n/a	n/a	n/a	n/a	12	2	4	6	n/a	n/a	n/a	n/a	n/a
1975.034	n/a	PROB	987517	n/a	LTP258	ltpFR	15	n/a	n/a	n/a	n/a	n/a	n/a	10	1	1	8	n/a	n/a	n/a	n/a	n/a
1976.142	n/a	PROB	988071	n/a	LTP258	ltpFR	15	n/a	n/a	n/a	n/a	n/a	n/a	12	5	6	1	n/a	n/a	n/a	n/a	n/a
1977.476	n/a	PROB	988738	n/a	LTP258	ltpFR	15	n/a	n/a	n/a	n/a	n/a	n/a	5	2	1	2	n/a	n/a	n/a	n/a	n/a
1978.684	n/a	PROB	989342	n/a	LTP258	ltpFR	15	n/a	n/a	n/a	n/a	n/a	n/a	20	1	9	9	n/a	n/a	n/a	n/a	n/a
1980.068	n/a	PROB	990034	n/a	LTP258	ltpFR	15	n/a	n/a	n/a	n/a	n/a	n/a	17	7	3	7	n/a	n/a	n/a	n/a	n/a
1981.346	n/a	STOP	990673	n/a	LTP258	ltpFR	15	n/a	n/a	n/a	n/a	n/a	n/a	n/a	n/a	n/a	n/a	n/a	n/a	n/a	n/a	n/a
1983.114	n/a	WORD	991557	wordpools/wasnorm_wordpool_less_exclusions.txt	LTP258	ltpFR	15	8	0	BANJO	82	n/a	1	n/a	0	0	0	1	0.412841796875	0.57763671875	lower	../fonts/zerothre.ttf
1986.13	n/a	START	993065	n/a	LTP258	ltpFR	15	n/a	n/a	n/a	n/a	n/a	n/a	n/a	n/a	n/a	n/a	n/a	n/a	n/a	n/a	n/a
1987.246	n/a	PROB	993623	n/a	LTP258	ltpFR	15	n/a	n/a	n/a	n/a	n/a	n/a	21	4	8	9	n/a	n/a	n/a	n/a	n/a
1989.372	n/a	PROB	994686	n/a	LTP258	ltpFR	15	n/a	n/a	n/a	n/a	n/a	n/a	12	9	4	3	n/a	n/a	n/a	n/a	n/a
1991.396	n/a	PROB	995698	n/a	LTP258	ltpFR	15	n/a	n/a	n/a	n/a	n/a	n/a	17	4	9	4	n/a	n/a	n/a	n/a	n/a
1993.018	n/a	PROB	996509	n/a	LTP258	ltpFR	15	n/a	n/a	n/a	n/a	n/a	n/a	14	9	4	1	n/a	n/a	n/a	n/a	n/a
1994.446	n/a	PROB	997223	n/a	LTP258	ltpFR	15	n/a	n/a	n/a	n/a	n/a	n/a	16	6	6	4	n/a	n/a	n/a	n/a	n/a
1995.862	n/a	PROB	997931	n/a	LTP258	ltpFR	15	n/a	n/a	n/a	n/a	n/a	n/a	17	9	3	5	n/a	n/a	n/a	n/a	n/a
1997.172	n/a	PROB	998586	n/a	LTP258	ltpFR	15	n/a	n/a	n/a	n/a	n/a	n/a	13	8	3	2	n/a	n/a	n/a	n/a	n/a
1998.908	n/a	PROB	999454	n/a	LTP258	ltpFR	15	n/a	n/a	n/a	n/a	n/a	n/a	10	1	5	4	n/a	n/a	n/a	n/a	n/a
2000.5	n/a	PROB	1000250	n/a	LTP258	ltpFR	15	n/a	n/a	n/a	n/a	n/a	n/a	4	1	1	2	n/a	n/a	n/a	n/a	n/a
2001.45	n/a	STOP	1000725	n/a	LTP258	ltpFR	15	n/a	n/a	n/a	n/a	n/a	n/a	n/a	n/a	n/a	n/a	n/a	n/a	n/a	n/a	n/a
2003.244	n/a	WORD	1001622	wordpools/wasnorm_wordpool_less_exclusions.txt	LTP258	ltpFR	15	8	0	WILDERNESS	1610	n/a	1	n/a	0	0	0	1	0.412841796875	0.57763671875	lower	../fonts/zerothre.ttf
2006.258	n/a	START	1003129	n/a	LTP258	ltpFR	15	n/a	n/a	n/a	n/a	n/a	n/a	n/a	n/a	n/a	n/a	n/a	n/a	n/a	n/a	n/a
2007.428	n/a	PROB	1003714	n/a	LTP258	ltpFR	15	n/a	n/a	n/a	n/a	n/a	n/a	16	6	4	6	n/a	n/a	n/a	n/a	n/a
2008.514	n/a	PROB	1004257	n/a	LTP258	ltpFR	15	n/a	n/a	n/a	n/a	n/a	n/a	14	4	8	2	n/a	n/a	n/a	n/a	n/a
2011.126	n/a	PROB	1005563	n/a	LTP258	ltpFR	15	n/a	n/a	n/a	n/a	n/a	n/a	12	4	2	5	n/a	n/a	n/a	n/a	n/a
2012.444	n/a	PROB	1006222	n/a	LTP258	ltpFR	15	n/a	n/a	n/a	n/a	n/a	n/a	19	9	7	3	n/a	n/a	n/a	n/a	n/a
2014.656	n/a	PROB	1007328	n/a	LTP258	ltpFR	15	n/a	n/a	n/a	n/a	n/a	n/a	14	9	1	4	n/a	n/a	n/a	n/a	n/a
2015.772	n/a	PROB	1007886	n/a	LTP258	ltpFR	15	n/a	n/a	n/a	n/a	n/a	n/a	16	6	2	8	n/a	n/a	n/a	n/a	n/a
2017.346	n/a	PROB	1008673	n/a	LTP258	ltpFR	15	n/a	n/a	n/a	n/a	n/a	n/a	13	1	7	5	n/a	n/a	n/a	n/a	n/a
2018.766	n/a	PROB	1009383	n/a	LTP258	ltpFR	15	n/a	n/a	n/a	n/a	n/a	n/a	17	9	4	4	n/a	n/a	n/a	n/a	n/a
2022.258	n/a	STOP	1011129	n/a	LTP258	ltpFR	15	n/a	n/a	n/a	n/a	n/a	n/a	n/a	n/a	n/a	n/a	n/a	n/a	n/a	n/a	n/a
2023.302	n/a	WORD	1011651	wordpools/wasnorm_wordpool_less_exclusions.txt	LTP258	ltpFR	15	8	0	OATMEAL	967	n/a	0	n/a	0	0	0	1	0.412841796875	0.57763671875	lower	../fonts/zerothre.ttf
2026.318	n/a	START	1013159	n/a	LTP258	ltpFR	15	n/a	n/a	n/a	n/a	n/a	n/a	n/a	n/a	n/a	n/a	n/a	n/a	n/a	n/a	n/a
2027.22	n/a	PROB	1013610	n/a	LTP258	ltpFR	15	n/a	n/a	n/a	n/a	n/a	n/a	1	6	7	6	n/a	n/a	n/a	n/a	n/a
2029.274	n/a	PROB	1014637	n/a	LTP258	ltpFR	15	n/a	n/a	n/a	n/a	n/a	n/a	19	5	5	9	n/a	n/a	n/a	n/a	n/a
2030.228	n/a	PROB	1015114	n/a	LTP258	ltpFR	15	n/a	n/a	n/a	n/a	n/a	n/a	20	6	9	5	n/a	n/a	n/a	n/a	n/a
2031.7	n/a	PROB	1015850	n/a	LTP258	ltpFR	15	n/a	n/a	n/a	n/a	n/a	n/a	17	2	9	6	n/a	n/a	n/a	n/a	n/a
2033.762	n/a	PROB	1016881	n/a	LTP258	ltpFR	15	n/a	n/a	n/a	n/a	n/a	n/a	9	7	1	1	n/a	n/a	n/a	n/a	n/a
2034.762	n/a	PROB	1017381	n/a	LTP258	ltpFR	15	n/a	n/a	n/a	n/a	n/a	n/a	12	1	2	9	n/a	n/a	n/a	n/a	n/a
2035.882	n/a	PROB	1017941	n/a	LTP258	ltpFR	15	n/a	n/a	n/a	n/a	n/a	n/a	27	9	9	9	n/a	n/a	n/a	n/a	n/a
2037.322	n/a	PROB	1018661	n/a	LTP258	ltpFR	15	n/a	n/a	n/a	n/a	n/a	n/a	11	4	3	4	n/a	n/a	n/a	n/a	n/a
2039.796	n/a	PROB	1019898	n/a	LTP258	ltpFR	15	n/a	n/a	n/a	n/a	n/a	n/a	9	6	1	2	n/a	n/a	n/a	n/a	n/a
2041.508	n/a	STOP	1020754	n/a	LTP258	ltpFR	15	n/a	n/a	n/a	n/a	n/a	n/a	n/a	n/a	n/a	n/a	n/a	n/a	n/a	n/a	n/a
2043.466	n/a	WORD	1021733	wordpools/wasnorm_wordpool_less_exclusions.txt	LTP258	ltpFR	15	8	0	TURNIP	1521	n/a	0	n/a	0	0	0	1	0.412841796875	0.57763671875	lower	../fonts/zerothre.ttf
2046.478	n/a	START	1023239	n/a	LTP258	ltpFR	15	n/a	n/a	n/a	n/a	n/a	n/a	n/a	n/a	n/a	n/a	n/a	n/a	n/a	n/a	n/a
2047.43	n/a	PROB	1023715	n/a	LTP258	ltpFR	15	n/a	n/a	n/a	n/a	n/a	n/a	25	9	9	6	n/a	n/a	n/a	n/a	n/a
2050.744	n/a	PROB	1025372	n/a	LTP258	ltpFR	15	n/a	n/a	n/a	n/a	n/a	n/a	17	3	5	9	n/a	n/a	n/a	n/a	n/a
2052.596	n/a	PROB	1026298	n/a	LTP258	ltpFR	15	n/a	n/a	n/a	n/a	n/a	n/a	9	3	2	4	n/a	n/a	n/a	n/a	n/a
2056.164	n/a	PROB	1028082	n/a	LTP258	ltpFR	15	n/a	n/a	n/a	n/a	n/a	n/a	17	3	7	7	n/a	n/a	n/a	n/a	n/a
2057.246	n/a	PROB	1028623	n/a	LTP258	ltpFR	15	n/a	n/a	n/a	n/a	n/a	n/a	12	2	8	2	n/a	n/a	n/a	n/a	n/a
2058.436	n/a	PROB	1029218	n/a	LTP258	ltpFR	15	n/a	n/a	n/a	n/a	n/a	n/a	17	1	9	7	n/a	n/a	n/a	n/a	n/a
2059.59	n/a	PROB	1029795	n/a	LTP258	ltpFR	15	n/a	n/a	n/a	n/a	n/a	n/a	16	4	8	4	n/a	n/a	n/a	n/a	n/a
2061.302	n/a	STOP	1030651	n/a	LTP258	ltpFR	15	n/a	n/a	n/a	n/a	n/a	n/a	n/a	n/a	n/a	n/a	n/a	n/a	n/a	n/a	n/a
2063.508	n/a	WORD	1031754	wordpools/wasnorm_wordpool_less_exclusions.txt	LTP258	ltpFR	15	8	0	CAULIFLOWER	262	n/a	0	n/a	0	0	0	1	0.412841796875	0.57763671875	lower	../fonts/zerothre.ttf
2066.52	n/a	START	1033260	n/a	LTP258	ltpFR	15	n/a	n/a	n/a	n/a	n/a	n/a	n/a	n/a	n/a	n/a	n/a	n/a	n/a	n/a	n/a
2067.49	n/a	PROB	1033745	n/a	LTP258	ltpFR	15	n/a	n/a	n/a	n/a	n/a	n/a	9	1	7	1	n/a	n/a	n/a	n/a	n/a
2068.508	n/a	PROB	1034254	n/a	LTP258	ltpFR	15	n/a	n/a	n/a	n/a	n/a	n/a	11	3	5	3	n/a	n/a	n/a	n/a	n/a
2070.42	n/a	PROB	1035210	n/a	LTP258	ltpFR	15	n/a	n/a	n/a	n/a	n/a	n/a	12	1	4	7	n/a	n/a	n/a	n/a	n/a
2072.672	n/a	PROB	1036336	n/a	LTP258	ltpFR	15	n/a	n/a	n/a	n/a	n/a	n/a	10	5	2	3	n/a	n/a	n/a	n/a	n/a
2074.196	n/a	PROB	1037098	n/a	LTP258	ltpFR	15	n/a	n/a	n/a	n/a	n/a	n/a	15	7	4	4	n/a	n/a	n/a	n/a	n/a
2076.308	n/a	PROB	1038154	n/a	LTP258	ltpFR	15	n/a	n/a	n/a	n/a	n/a	n/a	18	4	9	5	n/a	n/a	n/a	n/a	n/a
2077.508	n/a	PROB	1038754	n/a	LTP258	ltpFR	15	n/a	n/a	n/a	n/a	n/a	n/a	19	4	7	8	n/a	n/a	n/a	n/a	n/a
2079.866	n/a	PROB	1039933	n/a	LTP258	ltpFR	15	n/a	n/a	n/a	n/a	n/a	n/a	8	2	3	3	n/a	n/a	n/a	n/a	n/a
2081.134	n/a	STOP	1040567	n/a	LTP258	ltpFR	15	n/a	n/a	n/a	n/a	n/a	n/a	n/a	n/a	n/a	n/a	n/a	n/a	n/a	n/a	n/a
2083.686	n/a	WORD	1041843	wordpools/wasnorm_wordpool_less_exclusions.txt	LTP258	ltpFR	15	8	0	CORAL	378	n/a	0	n/a	0	0	0	1	0.412841796875	0.57763671875	lower	../fonts/zerothre.ttf
2086.698	n/a	START	1043349	n/a	LTP258	ltpFR	15	n/a	n/a	n/a	n/a	n/a	n/a	n/a	n/a	n/a	n/a	n/a	n/a	n/a	n/a	n/a
2087.748	n/a	PROB	1043874	n/a	LTP258	ltpFR	15	n/a	n/a	n/a	n/a	n/a	n/a	5	3	1	1	n/a	n/a	n/a	n/a	n/a
2088.818	n/a	PROB	1044409	n/a	LTP258	ltpFR	15	n/a	n/a	n/a	n/a	n/a	n/a	13	7	1	5	n/a	n/a	n/a	n/a	n/a
2090.106	n/a	PROB	1045053	n/a	LTP258	ltpFR	15	n/a	n/a	n/a	n/a	n/a	n/a	15	2	4	9	n/a	n/a	n/a	n/a	n/a
2091.512	n/a	PROB	1045756	n/a	LTP258	ltpFR	15	n/a	n/a	n/a	n/a	n/a	n/a	20	8	3	9	n/a	n/a	n/a	n/a	n/a
2092.934	n/a	PROB	1046467	n/a	LTP258	ltpFR	15	n/a	n/a	n/a	n/a	n/a	n/a	96	3	5	1	n/a	n/a	n/a	n/a	n/a
2094.428	n/a	PROB	1047214	n/a	LTP258	ltpFR	15	n/a	n/a	n/a	n/a	n/a	n/a	10	2	5	3	n/a	n/a	n/a	n/a	n/a
2096.514	n/a	PROB	1048257	n/a	LTP258	ltpFR	15	n/a	n/a	n/a	n/a	n/a	n/a	199	6	1	2	n/a	n/a	n/a	n/a	n/a
2098.592	n/a	PROB	1049296	n/a	LTP258	ltpFR	15	n/a	n/a	n/a	n/a	n/a	n/a	19	7	5	7	n/a	n/a	n/a	n/a	n/a
2102.206	n/a	STOP	1051103	n/a	LTP258	ltpFR	15	n/a	n/a	n/a	n/a	n/a	n/a	n/a	n/a	n/a	n/a	n/a	n/a	n/a	n/a	n/a
2103.678	n/a	WORD	1051839	wordpools/wasnorm_wordpool_less_exclusions.txt	LTP258	ltpFR	15	8	0	RIBBON	1189	n/a	0	n/a	0	0	0	1	0.412841796875	0.57763671875	lower	../fonts/zerothre.ttf
2106.692	n/a	START	1053346	n/a	LTP258	ltpFR	15	n/a	n/a	n/a	n/a	n/a	n/a	n/a	n/a	n/a	n/a	n/a	n/a	n/a	n/a	n/a
2107.812	n/a	PROB	1053906	n/a	LTP258	ltpFR	15	n/a	n/a	n/a	n/a	n/a	n/a	13	4	1	8	n/a	n/a	n/a	n/a	n/a
2109.146	n/a	PROB	1054573	n/a	LTP258	ltpFR	15	n/a	n/a	n/a	n/a	n/a	n/a	15	2	6	7	n/a	n/a	n/a	n/a	n/a
2110.772	n/a	PROB	1055386	n/a	LTP258	ltpFR	15	n/a	n/a	n/a	n/a	n/a	n/a	21	6	6	9	n/a	n/a	n/a	n/a	n/a
2112.726	n/a	PROB	1056363	n/a	LTP258	ltpFR	15	n/a	n/a	n/a	n/a	n/a	n/a	50	8	4	8	n/a	n/a	n/a	n/a	n/a
2114.918	n/a	PROB	1057459	n/a	LTP258	ltpFR	15	n/a	n/a	n/a	n/a	n/a	n/a	20	6	7	7	n/a	n/a	n/a	n/a	n/a
2118.752	n/a	PROB	1059376	n/a	LTP258	ltpFR	15	n/a	n/a	n/a	n/a	n/a	n/a	15	2	4	7	n/a	n/a	n/a	n/a	n/a
2121.112	n/a	PROB	1060556	n/a	LTP258	ltpFR	15	n/a	n/a	n/a	n/a	n/a	n/a	12	1	9	2	n/a	n/a	n/a	n/a	n/a
2122.08	n/a	STOP	1061040	n/a	LTP258	ltpFR	15	n/a	n/a	n/a	n/a	n/a	n/a	n/a	n/a	n/a	n/a	n/a	n/a	n/a	n/a	n/a
2123.906	n/a	WORD	1061953	wordpools/wasnorm_wordpool_less_exclusions.txt	LTP258	ltpFR	15	8	0	AWARD	63	n/a	0	n/a	0	0	0	1	0.412841796875	0.57763671875	lower	../fonts/zerothre.ttf
2126.918	n/a	START	1063459	n/a	LTP258	ltpFR	15	n/a	n/a	n/a	n/a	n/a	n/a	n/a	n/a	n/a	n/a	n/a	n/a	n/a	n/a	n/a
2127.984	n/a	PROB	1063992	n/a	LTP258	ltpFR	15	n/a	n/a	n/a	n/a	n/a	n/a	15	6	4	5	n/a	n/a	n/a	n/a	n/a
2129.172	n/a	PROB	1064586	n/a	LTP258	ltpFR	15	n/a	n/a	n/a	n/a	n/a	n/a	6	1	3	2	n/a	n/a	n/a	n/a	n/a
2130.878	n/a	PROB	1065439	n/a	LTP258	ltpFR	15	n/a	n/a	n/a	n/a	n/a	n/a	12	5	6	1	n/a	n/a	n/a	n/a	n/a
2131.87	n/a	PROB	1065935	n/a	LTP258	ltpFR	15	n/a	n/a	n/a	n/a	n/a	n/a	14	4	1	9	n/a	n/a	n/a	n/a	n/a
2133.326	n/a	PROB	1066663	n/a	LTP258	ltpFR	15	n/a	n/a	n/a	n/a	n/a	n/a	20	9	6	5	n/a	n/a	n/a	n/a	n/a
2135.534	n/a	PROB	1067767	n/a	LTP258	ltpFR	15	n/a	n/a	n/a	n/a	n/a	n/a	13	5	7	1	n/a	n/a	n/a	n/a	n/a
2137.14	n/a	PROB	1068570	n/a	LTP258	ltpFR	15	n/a	n/a	n/a	n/a	n/a	n/a	11	3	7	1	n/a	n/a	n/a	n/a	n/a
2138.578	n/a	PROB	1069289	n/a	LTP258	ltpFR	15	n/a	n/a	n/a	n/a	n/a	n/a	14	1	7	6	n/a	n/a	n/a	n/a	n/a
2140.252	n/a	PROB	1070126	n/a	LTP258	ltpFR	15	n/a	n/a	n/a	n/a	n/a	n/a	10	4	4	2	n/a	n/a	n/a	n/a	n/a
2142.016	n/a	STOP	1071008	n/a	LTP258	ltpFR	15	n/a	n/a	n/a	n/a	n/a	n/a	n/a	n/a	n/a	n/a	n/a	n/a	n/a	n/a	n/a
2143.864	n/a	WORD	1071932	wordpools/wasnorm_wordpool_less_exclusions.txt	LTP258	ltpFR	15	8	0	CAMERA	224	n/a	0	n/a	0	0	0	1	0.412841796875	0.57763671875	lower	../fonts/zerothre.ttf
2146.878	n/a	START	1073439	n/a	LTP258	ltpFR	15	n/a	n/a	n/a	n/a	n/a	n/a	n/a	n/a	n/a	n/a	n/a	n/a	n/a	n/a	n/a
2148.048	n/a	PROB	1074024	n/a	LTP258	ltpFR	15	n/a	n/a	n/a	n/a	n/a	n/a	12	4	7	4	n/a	n/a	n/a	n/a	n/a
2149.45	n/a	PROB	1074725	n/a	LTP258	ltpFR	15	n/a	n/a	n/a	n/a	n/a	n/a	6	2	2	2	n/a	n/a	n/a	n/a	n/a
2151.222	n/a	PROB	1075611	n/a	LTP258	ltpFR	15	n/a	n/a	n/a	n/a	n/a	n/a	14	6	5	3	n/a	n/a	n/a	n/a	n/a
2152.728	n/a	PROB	1076364	n/a	LTP258	ltpFR	15	n/a	n/a	n/a	n/a	n/a	n/a	14	9	1	4	n/a	n/a	n/a	n/a	n/a
2153.966	n/a	PROB	1076983	n/a	LTP258	ltpFR	15	n/a	n/a	n/a	n/a	n/a	n/a	14	4	9	4	n/a	n/a	n/a	n/a	n/a
2155.672	n/a	PROB	1077836	n/a	LTP258	ltpFR	15	n/a	n/a	n/a	n/a	n/a	n/a	16	6	9	1	n/a	n/a	n/a	n/a	n/a
2158.334	n/a	PROB	1079167	n/a	LTP258	ltpFR	15	n/a	n/a	n/a	n/a	n/a	n/a	18	6	3	9	n/a	n/a	n/a	n/a	n/a
2161.762	n/a	STOP	1080881	n/a	LTP258	ltpFR	15	n/a	n/a	n/a	n/a	n/a	n/a	n/a	n/a	n/a	n/a	n/a	n/a	n/a	n/a	n/a
2163.926	n/a	WORD	1081963	wordpools/wasnorm_wordpool_less_exclusions.txt	LTP258	ltpFR	15	8	0	PICTURE	1061	n/a	0	n/a	0	0	0	1	0.412841796875	0.57763671875	lower	../fonts/zerothre.ttf
2166.938	n/a	START	1083469	n/a	LTP258	ltpFR	15	n/a	n/a	n/a	n/a	n/a	n/a	n/a	n/a	n/a	n/a	n/a	n/a	n/a	n/a	n/a
2167.77	n/a	PROB	1083885	n/a	LTP258	ltpFR	15	n/a	n/a	n/a	n/a	n/a	n/a	13	6	6	1	n/a	n/a	n/a	n/a	n/a
2169.61	n/a	PROB	1084805	n/a	LTP258	ltpFR	15	n/a	n/a	n/a	n/a	n/a	n/a	15	6	4	5	n/a	n/a	n/a	n/a	n/a
2172.006	n/a	PROB	1086003	n/a	LTP258	ltpFR	15	n/a	n/a	n/a	n/a	n/a	n/a	13	4	4	5	n/a	n/a	n/a	n/a	n/a
2173.542	n/a	PROB	1086771	n/a	LTP258	ltpFR	15	n/a	n/a	n/a	n/a	n/a	n/a	11	4	4	3	n/a	n/a	n/a	n/a	n/a
2175.554	n/a	PROB	1087777	n/a	LTP258	ltpFR	15	n/a	n/a	n/a	n/a	n/a	n/a	11	5	3	3	n/a	n/a	n/a	n/a	n/a
2178.444	n/a	PROB	1089222	n/a	LTP258	ltpFR	15	n/a	n/a	n/a	n/a	n/a	n/a	20	8	8	4	n/a	n/a	n/a	n/a	n/a
2181.236	n/a	PROB	1090618	n/a	LTP258	ltpFR	15	n/a	n/a	n/a	n/a	n/a	n/a	7	1	5	1	n/a	n/a	n/a	n/a	n/a
2182.148	n/a	STOP	1091074	n/a	LTP258	ltpFR	15	n/a	n/a	n/a	n/a	n/a	n/a	n/a	n/a	n/a	n/a	n/a	n/a	n/a	n/a	n/a
2184.148	n/a	WORD	1092074	wordpools/wasnorm_wordpool_less_exclusions.txt	LTP258	ltpFR	15	8	0	CELLO	268	n/a	1	n/a	0	0	0	1	0.412841796875	0.57763671875	lower	../fonts/zerothre.ttf
2187.166	n/a	START	1093583	n/a	LTP258	ltpFR	15	n/a	n/a	n/a	n/a	n/a	n/a	n/a	n/a	n/a	n/a	n/a	n/a	n/a	n/a	n/a
2188.102	n/a	PROB	1094051	n/a	LTP258	ltpFR	15	n/a	n/a	n/a	n/a	n/a	n/a	21	6	6	9	n/a	n/a	n/a	n/a	n/a
2190.774	n/a	PROB	1095387	n/a	LTP258	ltpFR	15	n/a	n/a	n/a	n/a	n/a	n/a	15	8	2	5	n/a	n/a	n/a	n/a	n/a
2192.352	n/a	PROB	1096176	n/a	LTP258	ltpFR	15	n/a	n/a	n/a	n/a	n/a	n/a	20	6	9	5	n/a	n/a	n/a	n/a	n/a
2193.634	n/a	PROB	1096817	n/a	LTP258	ltpFR	15	n/a	n/a	n/a	n/a	n/a	n/a	10	4	5	1	n/a	n/a	n/a	n/a	n/a
2195.43	n/a	PROB	1097715	n/a	LTP258	ltpFR	15	n/a	n/a	n/a	n/a	n/a	n/a	16	9	4	6	n/a	n/a	n/a	n/a	n/a
2196.612	n/a	PROB	1098306	n/a	LTP258	ltpFR	15	n/a	n/a	n/a	n/a	n/a	n/a	185	5	5	8	n/a	n/a	n/a	n/a	n/a
2197.784	n/a	PROB	1098892	n/a	LTP258	ltpFR	15	n/a	n/a	n/a	n/a	n/a	n/a	19	9	5	5	n/a	n/a	n/a	n/a	n/a
2199.59	n/a	PROB	1099795	n/a	LTP258	ltpFR	15	n/a	n/a	n/a	n/a	n/a	n/a	20	9	9	2	n/a	n/a	n/a	n/a	n/a
2201.168	n/a	PROB	1100584	n/a	LTP258	ltpFR	15	n/a	n/a	n/a	n/a	n/a	n/a	6	4	1	1	n/a	n/a	n/a	n/a	n/a
2202.076	n/a	STOP	1101038	n/a	LTP258	ltpFR	15	n/a	n/a	n/a	n/a	n/a	n/a	n/a	n/a	n/a	n/a	n/a	n/a	n/a	n/a	n/a
2204.112	n/a	WORD	1102056	wordpools/wasnorm_wordpool_less_exclusions.txt	LTP258	ltpFR	15	8	0	RACCOON	1153	n/a	1	n/a	0	0	0	1	0.412841796875	0.57763671875	lower	../fonts/zerothre.ttf
2207.124	n/a	START	1103562	n/a	LTP258	ltpFR	15	n/a	n/a	n/a	n/a	n/a	n/a	n/a	n/a	n/a	n/a	n/a	n/a	n/a	n/a	n/a
2208.292	n/a	PROB	1104146	n/a	LTP258	ltpFR	15	n/a	n/a	n/a	n/a	n/a	n/a	19	5	6	8	n/a	n/a	n/a	n/a	n/a
2209.612	n/a	PROB	1104806	n/a	LTP258	ltpFR	15	n/a	n/a	n/a	n/a	n/a	n/a	24	9	8	7	n/a	n/a	n/a	n/a	n/a
2211.018	n/a	PROB	1105509	n/a	LTP258	ltpFR	15	n/a	n/a	n/a	n/a	n/a	n/a	9	7	1	1	n/a	n/a	n/a	n/a	n/a
2212.072	n/a	PROB	1106036	n/a	LTP258	ltpFR	15	n/a	n/a	n/a	n/a	n/a	n/a	17	8	7	2	n/a	n/a	n/a	n/a	n/a
2213.828	n/a	PROB	1106914	n/a	LTP258	ltpFR	15	n/a	n/a	n/a	n/a	n/a	n/a	5	1	2	2	n/a	n/a	n/a	n/a	n/a
2214.716	n/a	PROB	1107358	n/a	LTP258	ltpFR	15	n/a	n/a	n/a	n/a	n/a	n/a	276	9	9	8	n/a	n/a	n/a	n/a	n/a
2216.71	n/a	PROB	1108355	n/a	LTP258	ltpFR	15	n/a	n/a	n/a	n/a	n/a	n/a	18	6	6	6	n/a	n/a	n/a	n/a	n/a
2219.8	n/a	PROB	1109900	n/a	LTP258	ltpFR	15	n/a	n/a	n/a	n/a	n/a	n/a	1	3	9	6	n/a	n/a	n/a	n/a	n/a
2222.686	n/a	STOP	1111343	n/a	LTP258	ltpFR	15	n/a	n/a	n/a	n/a	n/a	n/a	n/a	n/a	n/a	n/a	n/a	n/a	n/a	n/a	n/a
2223.972	n/a	WORD	1111986	wordpools/wasnorm_wordpool_less_exclusions.txt	LTP258	ltpFR	15	8	0	OWL	992	n/a	1	n/a	0	0	0	1	0.412841796875	0.57763671875	lower	../fonts/zerothre.ttf
2226.984	n/a	START	1113492	n/a	LTP258	ltpFR	15	n/a	n/a	n/a	n/a	n/a	n/a	n/a	n/a	n/a	n/a	n/a	n/a	n/a	n/a	n/a
2228.154	n/a	PROB	1114077	n/a	LTP258	ltpFR	15	n/a	n/a	n/a	n/a	n/a	n/a	11	8	2	1	n/a	n/a	n/a	n/a	n/a
2229.254	n/a	PROB	1114627	n/a	LTP258	ltpFR	15	n/a	n/a	n/a	n/a	n/a	n/a	14	3	4	7	n/a	n/a	n/a	n/a	n/a
2230.442	n/a	PROB	1115221	n/a	LTP258	ltpFR	15	n/a	n/a	n/a	n/a	n/a	n/a	4	1	2	1	n/a	n/a	n/a	n/a	n/a
2231.798	n/a	PROB	1115899	n/a	LTP258	ltpFR	15	n/a	n/a	n/a	n/a	n/a	n/a	4	2	2	1	n/a	n/a	n/a	n/a	n/a
2232.616	n/a	PROB	1116308	n/a	LTP258	ltpFR	15	n/a	n/a	n/a	n/a	n/a	n/a	11	1	2	8	n/a	n/a	n/a	n/a	n/a
2233.91	n/a	PROB	1116955	n/a	LTP258	ltpFR	15	n/a	n/a	n/a	n/a	n/a	n/a	13	2	7	4	n/a	n/a	n/a	n/a	n/a
2235.312	n/a	PROB	1117656	n/a	LTP258	ltpFR	15	n/a	n/a	n/a	n/a	n/a	n/a	18	6	5	7	n/a	n/a	n/a	n/a	n/a
2237.324	n/a	PROB	1118662	n/a	LTP258	ltpFR	15	n/a	n/a	n/a	n/a	n/a	n/a	18	2	7	9	n/a	n/a	n/a	n/a	n/a
2239.108	n/a	PROB	1119554	n/a	LTP258	ltpFR	15	n/a	n/a	n/a	n/a	n/a	n/a	11	5	2	4	n/a	n/a	n/a	n/a	n/a
2240.614	n/a	PROB	1120307	n/a	LTP258	ltpFR	15	n/a	n/a	n/a	n/a	n/a	n/a	9	3	3	3	n/a	n/a	n/a	n/a	n/a
2242.95	n/a	STOP	1121475	n/a	LTP258	ltpFR	15	n/a	n/a	n/a	n/a	n/a	n/a	n/a	n/a	n/a	n/a	n/a	n/a	n/a	n/a	n/a
2244.916	n/a	REC_START	1122458	n/a	LTP258	ltpFR	15	8	n/a	n/a	n/a	n/a	n/a	n/a	0	0	0	n/a	n/a	n/a	n/a	n/a
2252.04	n/a	REC_WORD	1126020	wordpools/wasnorm_wordpool_less_exclusions.txt	LTP258	ltpFR	15	8	0	BANJO	82	n/a	1	n/a	0	0	0	n/a	n/a	n/a	n/a	n/a
2252.852	n/a	REC_WORD	1126426	wordpools/wasnorm_wordpool_less_exclusions.txt	LTP258	ltpFR	15	8	0	WILDERNESS	1610	n/a	1	n/a	0	0	0	n/a	n/a	n/a	n/a	n/a
2254.006	n/a	REC_WORD	1127003	wordpools/wasnorm_wordpool_less_exclusions.txt	LTP258	ltpFR	15	8	0	CELLO	268	n/a	1	n/a	0	0	0	n/a	n/a	n/a	n/a	n/a
2298.194	n/a	REC_WORD	1149097	wordpools/wasnorm_wordpool_less_exclusions.txt	LTP258	ltpFR	15	8	0	OATMEAL	967	n/a	0	n/a	0	0	0	n/a	n/a	n/a	n/a	n/a
2323.92	n/a	WORD	1161960	wordpools/wasnorm_wordpool_less_exclusions.txt	LTP258	ltpFR	15	9	0	CUSHION	428	n/a	1	n/a	0	0	0	1	0.412841796875	0.57763671875	lower	../fonts/zerothre.ttf
2328.018	n/a	WORD	1164009	wordpools/wasnorm_wordpool_less_exclusions.txt	LTP258	ltpFR	15	9	0	SOFA	1342	n/a	1	n/a	0	0	0	1	0.412841796875	0.57763671875	lower	../fonts/zerothre.ttf
2332.018	n/a	WORD	1166009	wordpools/wasnorm_wordpool_less_exclusions.txt	LTP258	ltpFR	15	9	0	SCULPTURE	1258	n/a	1	n/a	0	0	0	1	0.412841796875	0.57763671875	lower	../fonts/zerothre.ttf
2336.084	n/a	WORD	1168042	wordpools/wasnorm_wordpool_less_exclusions.txt	LTP258	ltpFR	15	9	0	BEVERAGE	123	n/a	0	n/a	0	0	0	1	0.412841796875	0.57763671875	lower	../fonts/zerothre.ttf
2340.032	n/a	WORD	1170016	wordpools/wasnorm_wordpool_less_exclusions.txt	LTP258	ltpFR	15	9	0	DOUGHNUT	490	n/a	0	n/a	0	0	0	1	0.412841796875	0.57763671875	lower	../fonts/zerothre.ttf
2343.862	n/a	WORD	1171931	wordpools/wasnorm_wordpool_less_exclusions.txt	LTP258	ltpFR	15	9	0	SUGAR	1401	n/a	0	n/a	0	0	0	1	0.412841796875	0.57763671875	lower	../fonts/zerothre.ttf
2347.874	n/a	WORD	1173937	wordpools/wasnorm_wordpool_less_exclusions.txt	LTP258	ltpFR	15	9	0	ROD	1203	n/a	0	n/a	0	0	0	1	0.412841796875	0.57763671875	lower	../fonts/zerothre.ttf
2351.726	n/a	WORD	1175863	wordpools/wasnorm_wordpool_less_exclusions.txt	LTP258	ltpFR	15	9	0	PEDAL	1037	n/a	0	n/a	0	0	0	1	0.412841796875	0.57763671875	lower	../fonts/zerothre.ttf
2355.708	n/a	WORD	1177854	wordpools/wasnorm_wordpool_less_exclusions.txt	LTP258	ltpFR	15	9	0	BOWL	158	n/a	0	n/a	0	0	0	1	0.412841796875	0.57763671875	lower	../fonts/zerothre.ttf
2359.59	n/a	WORD	1179795	wordpools/wasnorm_wordpool_less_exclusions.txt	LTP258	ltpFR	15	9	0	BATHTUB	100	n/a	1	n/a	0	0	0	1	0.412841796875	0.57763671875	lower	../fonts/zerothre.ttf
2363.706	n/a	WORD	1181853	wordpools/wasnorm_wordpool_less_exclusions.txt	LTP258	ltpFR	15	9	0	JUG	762	n/a	0	n/a	0	0	0	1	0.412841796875	0.57763671875	lower	../fonts/zerothre.ttf
2367.566	n/a	WORD	1183783	wordpools/wasnorm_wordpool_less_exclusions.txt	LTP258	ltpFR	15	9	0	OPERA	978	n/a	1	n/a	0	0	0	1	0.412841796875	0.57763671875	lower	../fonts/zerothre.ttf
2371.514	n/a	WORD	1185757	wordpools/wasnorm_wordpool_less_exclusions.txt	LTP258	ltpFR	15	9	0	MOTORCYCLE	923	n/a	1	n/a	0	0	0	1	0.412841796875	0.57763671875	lower	../fonts/zerothre.ttf
2375.718	n/a	WORD	1187859	wordpools/wasnorm_wordpool_less_exclusions.txt	LTP258	ltpFR	15	9	0	MOVIE	927	n/a	1	n/a	0	0	0	1	0.412841796875	0.57763671875	lower	../fonts/zerothre.ttf
2379.9	n/a	WORD	1189950	wordpools/wasnorm_wordpool_less_exclusions.txt	LTP258	ltpFR	15	9	0	TAPE	1433	n/a	0	n/a	0	0	0	1	0.412841796875	0.57763671875	lower	../fonts/zerothre.ttf
2383.928	n/a	WORD	1191964	wordpools/wasnorm_wordpool_less_exclusions.txt	LTP258	ltpFR	15	9	0	CAT	257	n/a	1	n/a	0	0	0	1	0.412841796875	0.57763671875	lower	../fonts/zerothre.ttf
2386.944	n/a	START	1193472	n/a	LTP258	ltpFR	15	n/a	n/a	n/a	n/a	n/a	n/a	n/a	n/a	n/a	n/a	n/a	n/a	n/a	n/a	n/a
2387.798	n/a	PROB	1193899	n/a	LTP258	ltpFR	15	n/a	n/a	n/a	n/a	n/a	n/a	15	5	3	7	n/a	n/a	n/a	n/a	n/a
2390.388	n/a	PROB	1195194	n/a	LTP258	ltpFR	15	n/a	n/a	n/a	n/a	n/a	n/a	18	4	9	5	n/a	n/a	n/a	n/a	n/a
2391.976	n/a	PROB	1195988	n/a	LTP258	ltpFR	15	n/a	n/a	n/a	n/a	n/a	n/a	10	3	2	5	n/a	n/a	n/a	n/a	n/a
2393.934	n/a	STOP	1196967	n/a	LTP258	ltpFR	15	n/a	n/a	n/a	n/a	n/a	n/a	n/a	n/a	n/a	n/a	n/a	n/a	n/a	n/a	n/a
2396.712	n/a	REC_START	1198356	n/a	LTP258	ltpFR	15	9	n/a	n/a	n/a	n/a	n/a	n/a	0	0	0	n/a	n/a	n/a	n/a	n/a
2401.104	n/a	REC_WORD	1200552	wordpools/wasnorm_wordpool_less_exclusions.txt	LTP258	ltpFR	15	9	0	MOVIE	927	n/a	1	n/a	0	0	0	n/a	n/a	n/a	n/a	n/a
2402.05	n/a	REC_WORD	1201025	wordpools/wasnorm_wordpool_less_exclusions.txt	LTP258	ltpFR	15	9	0	TAPE	1433	n/a	0	n/a	0	0	0	n/a	n/a	n/a	n/a	n/a
2402.982	n/a	REC_WORD	1201491	wordpools/wasnorm_wordpool_less_exclusions.txt	LTP258	ltpFR	15	9	0	OPERA	978	n/a	1	n/a	0	0	0	n/a	n/a	n/a	n/a	n/a
2403.912	n/a	REC_WORD	1201956	wordpools/wasnorm_wordpool_less_exclusions.txt	LTP258	ltpFR	15	9	0	CAT	257	n/a	1	n/a	0	0	0	n/a	n/a	n/a	n/a	n/a
2405.154	n/a	REC_WORD	1202577	wordpools/wasnorm_wordpool_less_exclusions.txt	LTP258	ltpFR	15	9	0	CUSHION	428	n/a	1	n/a	0	0	0	n/a	n/a	n/a	n/a	n/a
2405.94	n/a	REC_WORD	1202970	wordpools/wasnorm_wordpool_less_exclusions.txt	LTP258	ltpFR	15	9	0	SOFA	1342	n/a	1	n/a	0	0	0	n/a	n/a	n/a	n/a	n/a
2406.986	n/a	REC_WORD	1203493	wordpools/wasnorm_wordpool_less_exclusions.txt	LTP258	ltpFR	15	9	0	SCULPTURE	1258	n/a	1	n/a	0	0	0	n/a	n/a	n/a	n/a	n/a
2411.138	n/a	REC_WORD	1205569	wordpools/wasnorm_wordpool_less_exclusions.txt	LTP258	ltpFR	15	9	0	BATHTUB	100	n/a	1	n/a	0	0	0	n/a	n/a	n/a	n/a	n/a
2412.146	n/a	REC_WORD	1206073	wordpools/wasnorm_wordpool_less_exclusions.txt	LTP258	ltpFR	15	9	0	JUG	762	n/a	0	n/a	0	0	0	n/a	n/a	n/a	n/a	n/a
2414.2	n/a	REC_WORD	1207100	wordpools/wasnorm_wordpool_less_exclusions.txt	LTP258	ltpFR	15	9	0	BEVERAGE	123	n/a	0	n/a	0	0	0	n/a	n/a	n/a	n/a	n/a
2440.236	n/a	REC_WORD	1220118	wordpools/wasnorm_wordpool_less_exclusions.txt	LTP258	ltpFR	15	9	0	DOUGHNUT	490	n/a	0	n/a	0	0	0	n/a	n/a	n/a	n/a	n/a
2441.51	n/a	REC_WORD	1220755	wordpools/wasnorm_wordpool_less_exclusions.txt	LTP258	ltpFR	15	9	0	SUGAR	1401	n/a	0	n/a	0	0	0	n/a	n/a	n/a	n/a	n/a
2442.614	n/a	REC_WORD	1221307	wordpools/wasnorm_wordpool_less_exclusions.txt	LTP258	ltpFR	15	9	0	BOWL	158	n/a	0	n/a	0	0	0	n/a	n/a	n/a	n/a	n/a
2468.928	n/a	REC_WORD	1234464	wordpools/wasnorm_wordpool_less_exclusions.txt	LTP258	ltpFR	15	9	0	ROD	1203	n/a	0	n/a	0	0	0	n/a	n/a	n/a	n/a	n/a
2476.338	n/a	START	1238169	n/a	LTP258	ltpFR	15	n/a	n/a	n/a	n/a	n/a	n/a	n/a	n/a	n/a	n/a	n/a	n/a	n/a	n/a	n/a
2477.854	n/a	PROB	1238927	n/a	LTP258	ltpFR	15	n/a	n/a	n/a	n/a	n/a	n/a	8	4	1	3	n/a	n/a	n/a	n/a	n/a
2480.218	n/a	PROB	1240109	n/a	LTP258	ltpFR	15	n/a	n/a	n/a	n/a	n/a	n/a	14	8	5	1	n/a	n/a	n/a	n/a	n/a
2482.158	n/a	PROB	1241079	n/a	LTP258	ltpFR	15	n/a	n/a	n/a	n/a	n/a	n/a	10	1	1	8	n/a	n/a	n/a	n/a	n/a
2483.122	n/a	STOP	1241561	n/a	LTP258	ltpFR	15	n/a	n/a	n/a	n/a	n/a	n/a	n/a	n/a	n/a	n/a	n/a	n/a	n/a	n/a	n/a
2485.354	n/a	WORD	1242677	wordpools/wasnorm_wordpool_less_exclusions.txt	LTP258	ltpFR	15	10	1	GUARD	667	n/a	1	n/a	0	0	0	0	0.5869140625	0.422607421875	upper	../fonts/amplitud.ttf
2488.368	n/a	START	1244184	n/a	LTP258	ltpFR	15	n/a	n/a	n/a	n/a	n/a	n/a	n/a	n/a	n/a	n/a	n/a	n/a	n/a	n/a	n/a
2489.488	n/a	PROB	1244744	n/a	LTP258	ltpFR	15	n/a	n/a	n/a	n/a	n/a	n/a	9	6	2	1	n/a	n/a	n/a	n/a	n/a
2491.256	n/a	PROB	1245628	n/a	LTP258	ltpFR	15	n/a	n/a	n/a	n/a	n/a	n/a	24	7	8	7	n/a	n/a	n/a	n/a	n/a
2496.368	n/a	STOP	1248184	n/a	LTP258	ltpFR	15	n/a	n/a	n/a	n/a	n/a	n/a	n/a	n/a	n/a	n/a	n/a	n/a	n/a	n/a	n/a
2497.368	n/a	WORD	1248684	wordpools/wasnorm_wordpool_less_exclusions.txt	LTP258	ltpFR	15	10	1	PATROL	1027	n/a	1	n/a	0	0	0	0	0.5869140625	0.422607421875	upper	../fonts/amplitud.ttf
2500.38	n/a	START	1250190	n/a	LTP258	ltpFR	15	n/a	n/a	n/a	n/a	n/a	n/a	n/a	n/a	n/a	n/a	n/a	n/a	n/a	n/a	n/a
2501.412	n/a	PROB	1250706	n/a	LTP258	ltpFR	15	n/a	n/a	n/a	n/a	n/a	n/a	11	5	4	2	n/a	n/a	n/a	n/a	n/a
2502.686	n/a	PROB	1251343	n/a	LTP258	ltpFR	15	n/a	n/a	n/a	n/a	n/a	n/a	23	8	7	8	n/a	n/a	n/a	n/a	n/a
2504.59	n/a	PROB	1252295	n/a	LTP258	ltpFR	15	n/a	n/a	n/a	n/a	n/a	n/a	12	5	2	5	n/a	n/a	n/a	n/a	n/a
2505.66	n/a	PROB	1252830	n/a	LTP258	ltpFR	15	n/a	n/a	n/a	n/a	n/a	n/a	18	2	8	8	n/a	n/a	n/a	n/a	n/a
2507.26	n/a	STOP	1253630	n/a	LTP258	ltpFR	15	n/a	n/a	n/a	n/a	n/a	n/a	n/a	n/a	n/a	n/a	n/a	n/a	n/a	n/a	n/a
2509.296	n/a	WORD	1254648	wordpools/wasnorm_wordpool_less_exclusions.txt	LTP258	ltpFR	15	10	1	CABINET	212	n/a	0	n/a	0	0	0	0	0.5869140625	0.422607421875	upper	../fonts/amplitud.ttf
2512.308	n/a	START	1256154	n/a	LTP258	ltpFR	15	n/a	n/a	n/a	n/a	n/a	n/a	n/a	n/a	n/a	n/a	n/a	n/a	n/a	n/a	n/a
2513.194	n/a	PROB	1256597	n/a	LTP258	ltpFR	15	n/a	n/a	n/a	n/a	n/a	n/a	9	1	1	7	n/a	n/a	n/a	n/a	n/a
2514.496	n/a	PROB	1257248	n/a	LTP258	ltpFR	15	n/a	n/a	n/a	n/a	n/a	n/a	14	4	4	6	n/a	n/a	n/a	n/a	n/a
2515.518	n/a	PROB	1257759	n/a	LTP258	ltpFR	15	n/a	n/a	n/a	n/a	n/a	n/a	8	3	4	1	n/a	n/a	n/a	n/a	n/a
2516.568	n/a	PROB	1258284	n/a	LTP258	ltpFR	15	n/a	n/a	n/a	n/a	n/a	n/a	7	2	3	2	n/a	n/a	n/a	n/a	n/a
2518.426	n/a	PROB	1259213	n/a	LTP258	ltpFR	15	n/a	n/a	n/a	n/a	n/a	n/a	11	7	1	3	n/a	n/a	n/a	n/a	n/a
2520.26	n/a	STOP	1260130	n/a	LTP258	ltpFR	15	n/a	n/a	n/a	n/a	n/a	n/a	n/a	n/a	n/a	n/a	n/a	n/a	n/a	n/a	n/a
2521.576	n/a	WORD	1260788	wordpools/wasnorm_wordpool_less_exclusions.txt	LTP258	ltpFR	15	10	0	SUPPER	1411	n/a	0	n/a	0	0	0	1	0.412841796875	0.57763671875	lower	../fonts/zerothre.ttf
2524.588	n/a	START	1262294	n/a	LTP258	ltpFR	15	n/a	n/a	n/a	n/a	n/a	n/a	n/a	n/a	n/a	n/a	n/a	n/a	n/a	n/a	n/a
2525.524	n/a	PROB	1262762	n/a	LTP258	ltpFR	15	n/a	n/a	n/a	n/a	n/a	n/a	16	6	8	2	n/a	n/a	n/a	n/a	n/a
2529.456	n/a	PROB	1264728	n/a	LTP258	ltpFR	15	n/a	n/a	n/a	n/a	n/a	n/a	16	9	5	2	n/a	n/a	n/a	n/a	n/a
2530.928	n/a	PROB	1265464	n/a	LTP258	ltpFR	15	n/a	n/a	n/a	n/a	n/a	n/a	12	6	1	5	n/a	n/a	n/a	n/a	n/a
2532.214	n/a	STOP	1266107	n/a	LTP258	ltpFR	15	n/a	n/a	n/a	n/a	n/a	n/a	n/a	n/a	n/a	n/a	n/a	n/a	n/a	n/a	n/a
2533.456	n/a	WORD	1266728	wordpools/wasnorm_wordpool_less_exclusions.txt	LTP258	ltpFR	15	10	0	RUBY	1214	n/a	0	n/a	0	0	0	1	0.412841796875	0.57763671875	lower	../fonts/zerothre.ttf
2536.468	n/a	START	1268234	n/a	LTP258	ltpFR	15	n/a	n/a	n/a	n/a	n/a	n/a	n/a	n/a	n/a	n/a	n/a	n/a	n/a	n/a	n/a
2537.436	n/a	PROB	1268718	n/a	LTP258	ltpFR	15	n/a	n/a	n/a	n/a	n/a	n/a	12	2	4	5	n/a	n/a	n/a	n/a	n/a
2538.754	n/a	PROB	1269377	n/a	LTP258	ltpFR	15	n/a	n/a	n/a	n/a	n/a	n/a	15	6	7	2	n/a	n/a	n/a	n/a	n/a
2542.306	n/a	PROB	1271153	n/a	LTP258	ltpFR	15	n/a	n/a	n/a	n/a	n/a	n/a	18	9	7	2	n/a	n/a	n/a	n/a	n/a
2543.942	n/a	STOP	1271971	n/a	LTP258	ltpFR	15	n/a	n/a	n/a	n/a	n/a	n/a	n/a	n/a	n/a	n/a	n/a	n/a	n/a	n/a	n/a
2545.334	n/a	WORD	1272667	wordpools/wasnorm_wordpool_less_exclusions.txt	LTP258	ltpFR	15	10	1	ELEPHANT	523	n/a	1	n/a	0	0	0	0	0.5869140625	0.422607421875	upper	../fonts/amplitud.ttf
2548.346	n/a	START	1274173	n/a	LTP258	ltpFR	15	n/a	n/a	n/a	n/a	n/a	n/a	n/a	n/a	n/a	n/a	n/a	n/a	n/a	n/a	n/a
2549.316	n/a	PROB	1274658	n/a	LTP258	ltpFR	15	n/a	n/a	n/a	n/a	n/a	n/a	13	6	6	1	n/a	n/a	n/a	n/a	n/a
2550.654	n/a	PROB	1275327	n/a	LTP258	ltpFR	15	n/a	n/a	n/a	n/a	n/a	n/a	12	2	1	9	n/a	n/a	n/a	n/a	n/a
2551.808	n/a	PROB	1275904	n/a	LTP258	ltpFR	15	n/a	n/a	n/a	n/a	n/a	n/a	11	2	2	7	n/a	n/a	n/a	n/a	n/a
2553.162	n/a	PROB	1276581	n/a	LTP258	ltpFR	15	n/a	n/a	n/a	n/a	n/a	n/a	14	5	6	3	n/a	n/a	n/a	n/a	n/a
2554.686	n/a	PROB	1277343	n/a	LTP258	ltpFR	15	n/a	n/a	n/a	n/a	n/a	n/a	11	3	7	1	n/a	n/a	n/a	n/a	n/a
2555.822	n/a	STOP	1277911	n/a	LTP258	ltpFR	15	n/a	n/a	n/a	n/a	n/a	n/a	n/a	n/a	n/a	n/a	n/a	n/a	n/a	n/a	n/a
2557.508	n/a	WORD	1278754	wordpools/wasnorm_wordpool_less_exclusions.txt	LTP258	ltpFR	15	10	1	FIST	572	n/a	0	n/a	0	0	0	0	0.5869140625	0.422607421875	upper	../fonts/amplitud.ttf
2560.524	n/a	START	1280262	n/a	LTP258	ltpFR	15	n/a	n/a	n/a	n/a	n/a	n/a	n/a	n/a	n/a	n/a	n/a	n/a	n/a	n/a	n/a
2561.446	n/a	PROB	1280723	n/a	LTP258	ltpFR	15	n/a	n/a	n/a	n/a	n/a	n/a	20	2	9	9	n/a	n/a	n/a	n/a	n/a
2562.866	n/a	PROB	1281433	n/a	LTP258	ltpFR	15	n/a	n/a	n/a	n/a	n/a	n/a	132	5	6	2	n/a	n/a	n/a	n/a	n/a
2565.092	n/a	PROB	1282546	n/a	LTP258	ltpFR	15	n/a	n/a	n/a	n/a	n/a	n/a	13	4	1	8	n/a	n/a	n/a	n/a	n/a
2567.408	n/a	STOP	1283704	n/a	LTP258	ltpFR	15	n/a	n/a	n/a	n/a	n/a	n/a	n/a	n/a	n/a	n/a	n/a	n/a	n/a	n/a	n/a
2569.41	n/a	WORD	1284705	wordpools/wasnorm_wordpool_less_exclusions.txt	LTP258	ltpFR	15	10	1	BALL	73	n/a	1	n/a	0	0	0	0	0.5869140625	0.422607421875	upper	../fonts/amplitud.ttf
2572.422	n/a	START	1286211	n/a	LTP258	ltpFR	15	n/a	n/a	n/a	n/a	n/a	n/a	n/a	n/a	n/a	n/a	n/a	n/a	n/a	n/a	n/a
2573.574	n/a	PROB	1286787	n/a	LTP258	ltpFR	15	n/a	n/a	n/a	n/a	n/a	n/a	18	4	6	8	n/a	n/a	n/a	n/a	n/a
2574.758	n/a	PROB	1287379	n/a	LTP258	ltpFR	15	n/a	n/a	n/a	n/a	n/a	n/a	18	8	1	9	n/a	n/a	n/a	n/a	n/a
2575.962	n/a	PROB	1287981	n/a	LTP258	ltpFR	15	n/a	n/a	n/a	n/a	n/a	n/a	7	1	3	3	n/a	n/a	n/a	n/a	n/a
2577.268	n/a	PROB	1288634	n/a	LTP258	ltpFR	15	n/a	n/a	n/a	n/a	n/a	n/a	10	1	6	3	n/a	n/a	n/a	n/a	n/a
2580.422	n/a	STOP	1290211	n/a	LTP258	ltpFR	15	n/a	n/a	n/a	n/a	n/a	n/a	n/a	n/a	n/a	n/a	n/a	n/a	n/a	n/a	n/a
2581.422	n/a	WORD	1290711	wordpools/wasnorm_wordpool_less_exclusions.txt	LTP258	ltpFR	15	10	0	EMERALD	528	n/a	0	n/a	0	0	0	1	0.412841796875	0.57763671875	lower	../fonts/zerothre.ttf
2584.434	n/a	START	1292217	n/a	LTP258	ltpFR	15	n/a	n/a	n/a	n/a	n/a	n/a	n/a	n/a	n/a	n/a	n/a	n/a	n/a	n/a	n/a
