mstime	trial_type	stim_file	subject	experiment	session	trial	task	item_name	item_num	recog_resp	recog_conf	resp	answer	test_x	test_y	test_z	color_r	color_g	color_b	case	font
0	SESS_START	n/a	LTP118	ltpFR	7	n/a	n/a	n/a	n/a	1	3	n/a	n/a	0	0	0	n/a	n/a	n/a	n/a	n/a
216652	START	n/a	LTP118	ltpFR	7	n/a	n/a	n/a	n/a	n/a	n/a	n/a	n/a	n/a	n/a	n/a	n/a	n/a	n/a	n/a	n/a
216677	PROB	n/a	LTP118	ltpFR	7	n/a	n/a	n/a	n/a	n/a	n/a	n/a	10	6	3	1	n/a	n/a	n/a	n/a	n/a
219401	PROB	n/a	LTP118	ltpFR	7	n/a	n/a	n/a	n/a	n/a	n/a	n/a	13	6	7	4	n/a	n/a	n/a	n/a	n/a
222433	PROB	n/a	LTP118	ltpFR	7	n/a	n/a	n/a	n/a	n/a	n/a	n/a	11	3	6	2	n/a	n/a	n/a	n/a	n/a
225200	PROB	n/a	LTP118	ltpFR	7	n/a	n/a	n/a	n/a	n/a	n/a	n/a	8	1	5	2	n/a	n/a	n/a	n/a	n/a
227365	PROB	n/a	LTP118	ltpFR	7	n/a	n/a	n/a	n/a	n/a	n/a	n/a	20	8	9	3	n/a	n/a	n/a	n/a	n/a
230547	PROB	n/a	LTP118	ltpFR	7	n/a	n/a	n/a	n/a	n/a	n/a	n/a	17	3	9	5	n/a	n/a	n/a	n/a	n/a
233955	PROB	n/a	LTP118	ltpFR	7	n/a	n/a	n/a	n/a	n/a	n/a	n/a	22	8	9	6	n/a	n/a	n/a	n/a	n/a
236510	STOP	n/a	LTP118	ltpFR	7	n/a	n/a	n/a	n/a	n/a	n/a	n/a	n/a	n/a	n/a	n/a	n/a	n/a	n/a	n/a	n/a
350922	START	n/a	LTP118	ltpFR	7	n/a	n/a	n/a	n/a	n/a	n/a	n/a	n/a	n/a	n/a	n/a	n/a	n/a	n/a	n/a	n/a
352428	PROB	n/a	LTP118	ltpFR	7	n/a	n/a	n/a	n/a	n/a	n/a	n/a	12	3	9	2	n/a	n/a	n/a	n/a	n/a
354636	PROB	n/a	LTP118	ltpFR	7	n/a	n/a	n/a	n/a	n/a	n/a	n/a	15	4	1	9	n/a	n/a	n/a	n/a	n/a
358374	STOP	n/a	LTP118	ltpFR	7	n/a	n/a	n/a	n/a	n/a	n/a	n/a	n/a	n/a	n/a	n/a	n/a	n/a	n/a	n/a	n/a
359893	WORD	wordpools/wasnorm_wordpool.txt	LTP118	ltpFR	7	1	0	NOVEL	960	0	n/a	0	n/a	0	0	0	0.422607421875	0.5869140625	0	lower	zerothre.ttf
362901	START	n/a	LTP118	ltpFR	7	n/a	n/a	n/a	n/a	n/a	n/a	n/a	n/a	n/a	n/a	n/a	n/a	n/a	n/a	n/a	n/a
363859	PROB	n/a	LTP118	ltpFR	7	n/a	n/a	n/a	n/a	n/a	n/a	n/a	10	2	4	6	n/a	n/a	n/a	n/a	n/a
365808	PROB	n/a	LTP118	ltpFR	7	n/a	n/a	n/a	n/a	n/a	n/a	n/a	21	8	7	7	n/a	n/a	n/a	n/a	n/a
369927	STOP	n/a	LTP118	ltpFR	7	n/a	n/a	n/a	n/a	n/a	n/a	n/a	n/a	n/a	n/a	n/a	n/a	n/a	n/a	n/a	n/a
372056	WORD	wordpools/wasnorm_wordpool.txt	LTP118	ltpFR	7	1	0	WAGON	1578	n/a	n/a	0	n/a	0	0	0	0.422607421875	0.5869140625	0	lower	zerothre.ttf
375064	START	n/a	LTP118	ltpFR	7	n/a	n/a	n/a	n/a	n/a	n/a	n/a	n/a	n/a	n/a	n/a	n/a	n/a	n/a	n/a	n/a
375996	PROB	n/a	LTP118	ltpFR	7	n/a	n/a	n/a	n/a	n/a	n/a	n/a	19	9	1	9	n/a	n/a	n/a	n/a	n/a
378303	PROB	n/a	LTP118	ltpFR	7	n/a	n/a	n/a	n/a	n/a	n/a	n/a	11	1	3	7	n/a	n/a	n/a	n/a	n/a
380195	PROB	n/a	LTP118	ltpFR	7	n/a	n/a	n/a	n/a	n/a	n/a	n/a	10	2	1	7	n/a	n/a	n/a	n/a	n/a
382023	STOP	n/a	LTP118	ltpFR	7	n/a	n/a	n/a	n/a	n/a	n/a	n/a	n/a	n/a	n/a	n/a	n/a	n/a	n/a	n/a	n/a
383893	WORD	wordpools/wasnorm_wordpool.txt	LTP118	ltpFR	7	1	0	PUDDING	1139	n/a	n/a	0	n/a	0	0	0	0.422607421875	0.5869140625	0	lower	zerothre.ttf
386901	START	n/a	LTP118	ltpFR	7	n/a	n/a	n/a	n/a	n/a	n/a	n/a	n/a	n/a	n/a	n/a	n/a	n/a	n/a	n/a	n/a
387834	PROB	n/a	LTP118	ltpFR	7	n/a	n/a	n/a	n/a	n/a	n/a	n/a	12	8	3	1	n/a	n/a	n/a	n/a	n/a
389808	PROB	n/a	LTP118	ltpFR	7	n/a	n/a	n/a	n/a	n/a	n/a	n/a	12	4	2	6	n/a	n/a	n/a	n/a	n/a
394901	STOP	n/a	LTP118	ltpFR	7	n/a	n/a	n/a	n/a	n/a	n/a	n/a	n/a	n/a	n/a	n/a	n/a	n/a	n/a	n/a	n/a
396047	WORD	wordpools/wasnorm_wordpool.txt	LTP118	ltpFR	7	1	0	SWIMMER	1420	n/a	n/a	1	n/a	0	0	0	0.422607421875	0.5869140625	0	lower	zerothre.ttf
399055	START	n/a	LTP118	ltpFR	7	n/a	n/a	n/a	n/a	n/a	n/a	n/a	n/a	n/a	n/a	n/a	n/a	n/a	n/a	n/a	n/a
399979	PROB	n/a	LTP118	ltpFR	7	n/a	n/a	n/a	n/a	n/a	n/a	n/a	24	9	6	9	n/a	n/a	n/a	n/a	n/a
407055	STOP	n/a	LTP118	ltpFR	7	n/a	n/a	n/a	n/a	n/a	n/a	n/a	n/a	n/a	n/a	n/a	n/a	n/a	n/a	n/a	n/a
408201	WORD	wordpools/wasnorm_wordpool.txt	LTP118	ltpFR	7	1	0	CORAL	378	n/a	n/a	1	n/a	0	0	0	0.422607421875	0.5869140625	0	lower	zerothre.ttf
411209	START	n/a	LTP118	ltpFR	7	n/a	n/a	n/a	n/a	n/a	n/a	n/a	n/a	n/a	n/a	n/a	n/a	n/a	n/a	n/a	n/a
412242	PROB	n/a	LTP118	ltpFR	7	n/a	n/a	n/a	n/a	n/a	n/a	n/a	11	5	5	1	n/a	n/a	n/a	n/a	n/a
413648	PROB	n/a	LTP118	ltpFR	7	n/a	n/a	n/a	n/a	n/a	n/a	n/a	12	3	5	6	n/a	n/a	n/a	n/a	n/a
419209	STOP	n/a	LTP118	ltpFR	7	n/a	n/a	n/a	n/a	n/a	n/a	n/a	n/a	n/a	n/a	n/a	n/a	n/a	n/a	n/a	n/a
420022	WORD	wordpools/wasnorm_wordpool.txt	LTP118	ltpFR	7	1	0	CHAUFFEUR	283	n/a	n/a	1	n/a	0	0	0	0.422607421875	0.5869140625	0	lower	zerothre.ttf
423030	START	n/a	LTP118	ltpFR	7	n/a	n/a	n/a	n/a	n/a	n/a	n/a	n/a	n/a	n/a	n/a	n/a	n/a	n/a	n/a	n/a
424062	PROB	n/a	LTP118	ltpFR	7	n/a	n/a	n/a	n/a	n/a	n/a	n/a	15	1	9	5	n/a	n/a	n/a	n/a	n/a
426427	PROB	n/a	LTP118	ltpFR	7	n/a	n/a	n/a	n/a	n/a	n/a	n/a	10	1	1	8	n/a	n/a	n/a	n/a	n/a
428203	PROB	n/a	LTP118	ltpFR	7	n/a	n/a	n/a	n/a	n/a	n/a	n/a	19	4	6	9	n/a	n/a	n/a	n/a	n/a
430231	STOP	n/a	LTP118	ltpFR	7	n/a	n/a	n/a	n/a	n/a	n/a	n/a	n/a	n/a	n/a	n/a	n/a	n/a	n/a	n/a	n/a
432110	WORD	wordpools/wasnorm_wordpool.txt	LTP118	ltpFR	7	1	0	DIVER	476	n/a	n/a	2	n/a	0	0	0	0.422607421875	0.5869140625	0	lower	zerothre.ttf
433276	KEY_MSG	n/a	LTP118	ltpFR	7	1	n/a	n/a	n/a	n/a	n/a	n/a	n/a	0	0	0	n/a	n/a	n/a	n/a	n/a
435117	START	n/a	LTP118	ltpFR	7	n/a	n/a	n/a	n/a	n/a	n/a	n/a	n/a	n/a	n/a	n/a	n/a	n/a	n/a	n/a	n/a
436291	PROB	n/a	LTP118	ltpFR	7	n/a	n/a	n/a	n/a	n/a	n/a	n/a	17	8	4	5	n/a	n/a	n/a	n/a	n/a
439207	PROB	n/a	LTP118	ltpFR	7	n/a	n/a	n/a	n/a	n/a	n/a	n/a	24	9	6	9	n/a	n/a	n/a	n/a	n/a
442590	STOP	n/a	LTP118	ltpFR	7	n/a	n/a	n/a	n/a	n/a	n/a	n/a	n/a	n/a	n/a	n/a	n/a	n/a	n/a	n/a	n/a
444014	WORD	wordpools/wasnorm_wordpool.txt	LTP118	ltpFR	7	1	0	TAPIOCA	1434	n/a	n/a	0	n/a	0	0	0	0.422607421875	0.5869140625	0	lower	zerothre.ttf
447021	START	n/a	LTP118	ltpFR	7	n/a	n/a	n/a	n/a	n/a	n/a	n/a	n/a	n/a	n/a	n/a	n/a	n/a	n/a	n/a	n/a
447846	PROB	n/a	LTP118	ltpFR	7	n/a	n/a	n/a	n/a	n/a	n/a	n/a	11	7	2	2	n/a	n/a	n/a	n/a	n/a
449862	PROB	n/a	LTP118	ltpFR	7	n/a	n/a	n/a	n/a	n/a	n/a	n/a	18	5	9	4	n/a	n/a	n/a	n/a	n/a
455020	STOP	n/a	LTP118	ltpFR	7	n/a	n/a	n/a	n/a	n/a	n/a	n/a	n/a	n/a	n/a	n/a	n/a	n/a	n/a	n/a	n/a
456001	WORD	wordpools/wasnorm_wordpool.txt	LTP118	ltpFR	7	1	0	FEATHER	557	n/a	n/a	0	n/a	0	0	0	0.422607421875	0.5869140625	0	lower	zerothre.ttf
459009	START	n/a	LTP118	ltpFR	7	n/a	n/a	n/a	n/a	n/a	n/a	n/a	n/a	n/a	n/a	n/a	n/a	n/a	n/a	n/a	n/a
459883	PROB	n/a	LTP118	ltpFR	7	n/a	n/a	n/a	n/a	n/a	n/a	n/a	11	6	2	3	n/a	n/a	n/a	n/a	n/a
462606	PROB	n/a	LTP118	ltpFR	7	n/a	n/a	n/a	n/a	n/a	n/a	n/a	13	6	3	4	n/a	n/a	n/a	n/a	n/a
465526	STOP	n/a	LTP118	ltpFR	7	n/a	n/a	n/a	n/a	n/a	n/a	n/a	n/a	n/a	n/a	n/a	n/a	n/a	n/a	n/a	n/a
467847	WORD	wordpools/wasnorm_wordpool.txt	LTP118	ltpFR	7	1	0	WINGS	1614	n/a	n/a	0	n/a	0	0	0	0.422607421875	0.5869140625	0	lower	zerothre.ttf
470854	START	n/a	LTP118	ltpFR	7	n/a	n/a	n/a	n/a	n/a	n/a	n/a	n/a	n/a	n/a	n/a	n/a	n/a	n/a	n/a	n/a
471704	PROB	n/a	LTP118	ltpFR	7	n/a	n/a	n/a	n/a	n/a	n/a	n/a	7	3	1	3	n/a	n/a	n/a	n/a	n/a
475736	PROB	n/a	LTP118	ltpFR	7	n/a	n/a	n/a	n/a	n/a	n/a	n/a	11	5	6	6	n/a	n/a	n/a	n/a	n/a
477927	STOP	n/a	LTP118	ltpFR	7	n/a	n/a	n/a	n/a	n/a	n/a	n/a	n/a	n/a	n/a	n/a	n/a	n/a	n/a	n/a	n/a
479968	WORD	wordpools/wasnorm_wordpool.txt	LTP118	ltpFR	7	1	0	KNUCKLE	789	n/a	n/a	0	n/a	0	0	0	0.422607421875	0.5869140625	0	lower	zerothre.ttf
482975	START	n/a	LTP118	ltpFR	7	n/a	n/a	n/a	n/a	n/a	n/a	n/a	n/a	n/a	n/a	n/a	n/a	n/a	n/a	n/a	n/a
483983	PROB	n/a	LTP118	ltpFR	7	n/a	n/a	n/a	n/a	n/a	n/a	n/a	20	7	5	8	n/a	n/a	n/a	n/a	n/a
487981	PROB	n/a	LTP118	ltpFR	7	n/a	n/a	n/a	n/a	n/a	n/a	n/a	16	8	4	4	n/a	n/a	n/a	n/a	n/a
490526	STOP	n/a	LTP118	ltpFR	7	n/a	n/a	n/a	n/a	n/a	n/a	n/a	n/a	n/a	n/a	n/a	n/a	n/a	n/a	n/a	n/a
492013	WORD	wordpools/wasnorm_wordpool.txt	LTP118	ltpFR	7	1	0	SAUCER	1237	n/a	n/a	0	n/a	0	0	0	0.422607421875	0.5869140625	0	lower	zerothre.ttf
495021	START	n/a	LTP118	ltpFR	7	n/a	n/a	n/a	n/a	n/a	n/a	n/a	n/a	n/a	n/a	n/a	n/a	n/a	n/a	n/a	n/a
495829	PROB	n/a	LTP118	ltpFR	7	n/a	n/a	n/a	n/a	n/a	n/a	n/a	14	3	4	6	n/a	n/a	n/a	n/a	n/a
498685	PROB	n/a	LTP118	ltpFR	7	n/a	n/a	n/a	n/a	n/a	n/a	n/a	12	9	9	1	n/a	n/a	n/a	n/a	n/a
502855	STOP	n/a	LTP118	ltpFR	7	n/a	n/a	n/a	n/a	n/a	n/a	n/a	n/a	n/a	n/a	n/a	n/a	n/a	n/a	n/a	n/a
504009	WORD	wordpools/wasnorm_wordpool.txt	LTP118	ltpFR	7	1	0	COWBOY	395	n/a	n/a	0	n/a	0	0	0	0.422607421875	0.5869140625	0	lower	zerothre.ttf
507017	START	n/a	LTP118	ltpFR	7	n/a	n/a	n/a	n/a	n/a	n/a	n/a	n/a	n/a	n/a	n/a	n/a	n/a	n/a	n/a	n/a
508066	PROB	n/a	LTP118	ltpFR	7	n/a	n/a	n/a	n/a	n/a	n/a	n/a	19	9	2	8	n/a	n/a	n/a	n/a	n/a
511007	PROB	n/a	LTP118	ltpFR	7	n/a	n/a	n/a	n/a	n/a	n/a	n/a	14	1	8	5	n/a	n/a	n/a	n/a	n/a
513197	PROB	n/a	LTP118	ltpFR	7	n/a	n/a	n/a	n/a	n/a	n/a	n/a	14	6	2	8	n/a	n/a	n/a	n/a	n/a
514919	STOP	n/a	LTP118	ltpFR	7	n/a	n/a	n/a	n/a	n/a	n/a	n/a	n/a	n/a	n/a	n/a	n/a	n/a	n/a	n/a	n/a
516213	WORD	wordpools/wasnorm_wordpool.txt	LTP118	ltpFR	7	1	0	ELBOW	520	n/a	n/a	0	n/a	0	0	0	0.422607421875	0.5869140625	0	lower	zerothre.ttf
519221	START	n/a	LTP118	ltpFR	7	n/a	n/a	n/a	n/a	n/a	n/a	n/a	n/a	n/a	n/a	n/a	n/a	n/a	n/a	n/a	n/a
520070	PROB	n/a	LTP118	ltpFR	7	n/a	n/a	n/a	n/a	n/a	n/a	n/a	6	1	3	2	n/a	n/a	n/a	n/a	n/a
522852	PROB	n/a	LTP118	ltpFR	7	n/a	n/a	n/a	n/a	n/a	n/a	n/a	22	9	7	7	n/a	n/a	n/a	n/a	n/a
525983	STOP	n/a	LTP118	ltpFR	7	n/a	n/a	n/a	n/a	n/a	n/a	n/a	n/a	n/a	n/a	n/a	n/a	n/a	n/a	n/a	n/a
528126	WORD	wordpools/wasnorm_wordpool.txt	LTP118	ltpFR	7	1	0	VACUUM	1543	n/a	n/a	0	n/a	0	0	0	0.422607421875	0.5869140625	0	lower	zerothre.ttf
531133	START	n/a	LTP118	ltpFR	7	n/a	n/a	n/a	n/a	n/a	n/a	n/a	n/a	n/a	n/a	n/a	n/a	n/a	n/a	n/a	n/a
532306	PROB	n/a	LTP118	ltpFR	7	n/a	n/a	n/a	n/a	n/a	n/a	n/a	9	3	3	3	n/a	n/a	n/a	n/a	n/a
533673	PROB	n/a	LTP118	ltpFR	7	n/a	n/a	n/a	n/a	n/a	n/a	n/a	14	8	3	3	n/a	n/a	n/a	n/a	n/a
535672	PROB	n/a	LTP118	ltpFR	7	n/a	n/a	n/a	n/a	n/a	n/a	n/a	16	3	7	5	n/a	n/a	n/a	n/a	n/a
538999	STOP	n/a	LTP118	ltpFR	7	n/a	n/a	n/a	n/a	n/a	n/a	n/a	n/a	n/a	n/a	n/a	n/a	n/a	n/a	n/a	n/a
539996	WORD	wordpools/wasnorm_wordpool.txt	LTP118	ltpFR	7	1	0	APRON	35	n/a	n/a	1	n/a	0	0	0	0.422607421875	0.5869140625	0	lower	zerothre.ttf
543004	START	n/a	LTP118	ltpFR	7	n/a	n/a	n/a	n/a	n/a	n/a	n/a	n/a	n/a	n/a	n/a	n/a	n/a	n/a	n/a	n/a
543886	PROB	n/a	LTP118	ltpFR	7	n/a	n/a	n/a	n/a	n/a	n/a	n/a	14	6	4	4	n/a	n/a	n/a	n/a	n/a
545543	PROB	n/a	LTP118	ltpFR	7	n/a	n/a	n/a	n/a	n/a	n/a	n/a	17	7	3	7	n/a	n/a	n/a	n/a	n/a
547227	PROB	n/a	LTP118	ltpFR	7	n/a	n/a	n/a	n/a	n/a	n/a	n/a	16	5	7	4	n/a	n/a	n/a	n/a	n/a
549951	STOP	n/a	LTP118	ltpFR	7	n/a	n/a	n/a	n/a	n/a	n/a	n/a	n/a	n/a	n/a	n/a	n/a	n/a	n/a	n/a	n/a
552751	REC_START	n/a	LTP118	ltpFR	7	1	n/a	n/a	n/a	n/a	n/a	n/a	n/a	0	0	0	n/a	n/a	n/a	n/a	n/a
554083	REC_WORD	wordpools/wasnorm_wordpool.txt	LTP118	ltpFR	7	1	0	NOVEL	960	n/a	n/a	0	n/a	0	0	0	n/a	n/a	n/a	n/a	n/a
555629	REC_WORD	wordpools/wasnorm_wordpool.txt	LTP118	ltpFR	7	1	0	TAPIOCA	1434	n/a	n/a	0	n/a	0	0	0	n/a	n/a	n/a	n/a	n/a
558508	REC_WORD	wordpools/wasnorm_wordpool.txt	LTP118	ltpFR	7	1	0	CHAUFFEUR	283	n/a	n/a	1	n/a	0	0	0	n/a	n/a	n/a	n/a	n/a
561112	REC_WORD	wordpools/wasnorm_wordpool.txt	LTP118	ltpFR	7	1	0	WAGON	1578	n/a	n/a	0	n/a	0	0	0	n/a	n/a	n/a	n/a	n/a
564514	REC_WORD	wordpools/wasnorm_wordpool.txt	LTP118	ltpFR	7	1	0	VACUUM	1543	n/a	n/a	0	n/a	0	0	0	n/a	n/a	n/a	n/a	n/a
567527	REC_WORD	wordpools/wasnorm_wordpool.txt	LTP118	ltpFR	7	1	0	KNUCKLE	789	n/a	n/a	0	n/a	0	0	0	n/a	n/a	n/a	n/a	n/a
578263	REC_WORD	wordpools/wasnorm_wordpool.txt	LTP118	ltpFR	7	1	0	FEATHER	557	n/a	n/a	0	n/a	0	0	0	n/a	n/a	n/a	n/a	n/a
644068	WORD	wordpools/wasnorm_wordpool.txt	LTP118	ltpFR	7	2	1	PLANET	1082	n/a	n/a	0	n/a	0	0	0	0.57763671875	0.412841796875	1	upper	amplitud.ttf
648125	WORD	wordpools/wasnorm_wordpool.txt	LTP118	ltpFR	7	2	1	HAIL	676	n/a	n/a	0	n/a	0	0	0	0.57763671875	0.412841796875	1	upper	amplitud.ttf
652123	WORD	wordpools/wasnorm_wordpool.txt	LTP118	ltpFR	7	2	1	SAND	1230	n/a	n/a	0	n/a	0	0	0	0.57763671875	0.412841796875	1	upper	amplitud.ttf
656222	WORD	wordpools/wasnorm_wordpool.txt	LTP118	ltpFR	7	2	1	BLUEJAY	141	n/a	n/a	1	n/a	0	0	0	0.57763671875	0.412841796875	1	upper	amplitud.ttf
660054	WORD	wordpools/wasnorm_wordpool.txt	LTP118	ltpFR	7	2	1	CANARY	227	n/a	n/a	1	n/a	0	0	0	0.57763671875	0.412841796875	1	upper	amplitud.ttf
663977	WORD	wordpools/wasnorm_wordpool.txt	LTP118	ltpFR	7	2	1	PARSLEY	1016	n/a	n/a	0	n/a	0	0	0	0.57763671875	0.412841796875	1	upper	amplitud.ttf
668159	WORD	wordpools/wasnorm_wordpool.txt	LTP118	ltpFR	7	2	1	SERGEANT	1269	n/a	n/a	1	n/a	0	0	0	0.57763671875	0.412841796875	1	upper	amplitud.ttf
672091	WORD	wordpools/wasnorm_wordpool.txt	LTP118	ltpFR	7	2	1	CHIEF	298	n/a	n/a	1	n/a	0	0	0	0.57763671875	0.412841796875	1	upper	amplitud.ttf
676065	WORD	wordpools/wasnorm_wordpool.txt	LTP118	ltpFR	7	2	1	GAVEL	627	n/a	n/a	0	n/a	0	0	0	0.57763671875	0.412841796875	1	upper	amplitud.ttf
680072	WORD	wordpools/wasnorm_wordpool.txt	LTP118	ltpFR	7	2	1	CHEMIST	292	n/a	n/a	1	n/a	0	0	0	0.57763671875	0.412841796875	1	upper	amplitud.ttf
684020	WORD	wordpools/wasnorm_wordpool.txt	LTP118	ltpFR	7	2	1	PICKLE	1059	n/a	n/a	1	n/a	0	0	0	0.57763671875	0.412841796875	1	upper	amplitud.ttf
687877	WORD	wordpools/wasnorm_wordpool.txt	LTP118	ltpFR	7	2	1	MARS	873	n/a	n/a	0	n/a	0	0	0	0.57763671875	0.412841796875	1	upper	amplitud.ttf
691976	WORD	wordpools/wasnorm_wordpool.txt	LTP118	ltpFR	7	2	1	TIMBER	1469	n/a	n/a	0	n/a	0	0	0	0.57763671875	0.412841796875	1	upper	amplitud.ttf
696074	WORD	wordpools/wasnorm_wordpool.txt	LTP118	ltpFR	7	2	1	ORNAMENT	985	n/a	n/a	0	n/a	0	0	0	0.57763671875	0.412841796875	1	upper	amplitud.ttf
700081	WORD	wordpools/wasnorm_wordpool.txt	LTP118	ltpFR	7	2	1	TOWEL	1489	n/a	n/a	0	n/a	0	0	0	0.57763671875	0.412841796875	1	upper	amplitud.ttf
704171	WORD	wordpools/wasnorm_wordpool.txt	LTP118	ltpFR	7	2	1	TAPE	1433	n/a	n/a	0	n/a	0	0	0	0.57763671875	0.412841796875	1	upper	amplitud.ttf
707179	START	n/a	LTP118	ltpFR	7	n/a	n/a	n/a	n/a	n/a	n/a	n/a	n/a	n/a	n/a	n/a	n/a	n/a	n/a	n/a	n/a
708195	PROB	n/a	LTP118	ltpFR	7	n/a	n/a	n/a	n/a	n/a	n/a	n/a	15	6	6	3	n/a	n/a	n/a	n/a	n/a
710477	PROB	n/a	LTP118	ltpFR	7	n/a	n/a	n/a	n/a	n/a	n/a	n/a	17	5	2	8	n/a	n/a	n/a	n/a	n/a
715178	STOP	n/a	LTP118	ltpFR	7	n/a	n/a	n/a	n/a	n/a	n/a	n/a	n/a	n/a	n/a	n/a	n/a	n/a	n/a	n/a	n/a
716951	REC_START	n/a	LTP118	ltpFR	7	2	n/a	n/a	n/a	n/a	n/a	n/a	n/a	0	0	0	n/a	n/a	n/a	n/a	n/a
719281	REC_WORD	wordpools/wasnorm_wordpool.txt	LTP118	ltpFR	7	2	1	MARS	873	n/a	n/a	0	n/a	0	0	0	n/a	n/a	n/a	n/a	n/a
720917	REC_WORD	wordpools/wasnorm_wordpool.txt	LTP118	ltpFR	7	2	1	PLANET	1082	n/a	n/a	0	n/a	0	0	0	n/a	n/a	n/a	n/a	n/a
723207	REC_WORD	wordpools/wasnorm_wordpool.txt	LTP118	ltpFR	7	2	1	GAVEL	627	n/a	n/a	0	n/a	0	0	0	n/a	n/a	n/a	n/a	n/a
724983	REC_WORD	wordpools/wasnorm_wordpool.txt	LTP118	ltpFR	7	2	1	CHEMIST	292	n/a	n/a	1	n/a	0	0	0	n/a	n/a	n/a	n/a	n/a
726679	REC_WORD	wordpools/wasnorm_wordpool.txt	LTP118	ltpFR	7	2	1	SERGEANT	1269	n/a	n/a	1	n/a	0	0	0	n/a	n/a	n/a	n/a	n/a
730480	REC_WORD	wordpools/wasnorm_wordpool.txt	LTP118	ltpFR	7	2	1	PICKLE	1059	n/a	n/a	1	n/a	0	0	0	n/a	n/a	n/a	n/a	n/a
733817	REC_WORD	wordpools/wasnorm_wordpool.txt	LTP118	ltpFR	7	2	1	SAND	1230	n/a	n/a	0	n/a	0	0	0	n/a	n/a	n/a	n/a	n/a
735598	REC_WORD	wordpools/wasnorm_wordpool.txt	LTP118	ltpFR	7	2	1	HAIL	676	n/a	n/a	0	n/a	0	0	0	n/a	n/a	n/a	n/a	n/a
741530	REC_WORD	wordpools/wasnorm_wordpool.txt	LTP118	ltpFR	7	2	1	ORNAMENT	985	n/a	n/a	0	n/a	0	0	0	n/a	n/a	n/a	n/a	n/a
777663	REC_WORD	wordpools/wasnorm_wordpool.txt	LTP118	ltpFR	7	2	1	BLUEJAY	141	n/a	n/a	1	n/a	0	0	0	n/a	n/a	n/a	n/a	n/a
779613	REC_WORD	wordpools/wasnorm_wordpool.txt	LTP118	ltpFR	7	2	1	CANARY	227	n/a	n/a	1	n/a	0	0	0	n/a	n/a	n/a	n/a	n/a
806684	WORD	wordpools/wasnorm_wordpool.txt	LTP118	ltpFR	7	3	0	PLAQUE	1084	n/a	n/a	0	n/a	0	0	0	0.422607421875	0.5869140625	0	lower	zerothre.ttf
810817	WORD	wordpools/wasnorm_wordpool.txt	LTP118	ltpFR	7	3	0	SAP	1233	n/a	n/a	0	n/a	0	0	0	0.422607421875	0.5869140625	0	lower	zerothre.ttf
815015	WORD	wordpools/wasnorm_wordpool.txt	LTP118	ltpFR	7	3	0	LEAF	808	n/a	n/a	0	n/a	0	0	0	0.422607421875	0.5869140625	0	lower	zerothre.ttf
819031	WORD	wordpools/wasnorm_wordpool.txt	LTP118	ltpFR	7	3	0	ROAD	1196	n/a	n/a	1	n/a	0	0	0	0.422607421875	0.5869140625	0	lower	zerothre.ttf
823079	WORD	wordpools/wasnorm_wordpool.txt	LTP118	ltpFR	7	3	0	OUTFIT	988	n/a	n/a	1	n/a	0	0	0	0.422607421875	0.5869140625	0	lower	zerothre.ttf
826945	WORD	wordpools/wasnorm_wordpool.txt	LTP118	ltpFR	7	3	0	TOAST	1471	n/a	n/a	0	n/a	0	0	0	0.422607421875	0.5869140625	0	lower	zerothre.ttf
830926	WORD	wordpools/wasnorm_wordpool.txt	LTP118	ltpFR	7	3	0	SANDWICH	1232	n/a	n/a	0	n/a	0	0	0	0.422607421875	0.5869140625	0	lower	zerothre.ttf
834858	WORD	wordpools/wasnorm_wordpool.txt	LTP118	ltpFR	7	3	0	BRIEFCASE	175	n/a	n/a	1	n/a	0	0	0	0.422607421875	0.5869140625	0	lower	zerothre.ttf
839032	WORD	wordpools/wasnorm_wordpool.txt	LTP118	ltpFR	7	3	0	TREASURE	1500	n/a	n/a	1	n/a	0	0	0	0.422607421875	0.5869140625	0	lower	zerothre.ttf
843089	WORD	wordpools/wasnorm_wordpool.txt	LTP118	ltpFR	7	3	0	DIME	466	n/a	n/a	0	n/a	0	0	0	0.422607421875	0.5869140625	0	lower	zerothre.ttf
847262	WORD	wordpools/wasnorm_wordpool.txt	LTP118	ltpFR	7	3	0	CHICKEN	297	n/a	n/a	1	n/a	0	0	0	0.422607421875	0.5869140625	0	lower	zerothre.ttf
851360	WORD	wordpools/wasnorm_wordpool.txt	LTP118	ltpFR	7	3	0	ALLEY	15	n/a	n/a	1	n/a	0	0	0	0.422607421875	0.5869140625	0	lower	zerothre.ttf
855392	WORD	wordpools/wasnorm_wordpool.txt	LTP118	ltpFR	7	3	0	SPIT	1354	n/a	n/a	0	n/a	0	0	0	0.422607421875	0.5869140625	0	lower	zerothre.ttf
859374	WORD	wordpools/wasnorm_wordpool.txt	LTP118	ltpFR	7	3	0	RAG	1160	n/a	n/a	0	n/a	0	0	0	0.422607421875	0.5869140625	0	lower	zerothre.ttf
863314	WORD	wordpools/wasnorm_wordpool.txt	LTP118	ltpFR	7	3	0	CLERK	321	n/a	n/a	1	n/a	0	0	0	0.422607421875	0.5869140625	0	lower	zerothre.ttf
867289	WORD	wordpools/wasnorm_wordpool.txt	LTP118	ltpFR	7	3	0	CRICKET	408	n/a	n/a	0	n/a	0	0	0	0.422607421875	0.5869140625	0	lower	zerothre.ttf
870295	START	n/a	LTP118	ltpFR	7	n/a	n/a	n/a	n/a	n/a	n/a	n/a	n/a	n/a	n/a	n/a	n/a	n/a	n/a	n/a	n/a
871212	PROB	n/a	LTP118	ltpFR	7	n/a	n/a	n/a	n/a	n/a	n/a	n/a	11	3	5	1	n/a	n/a	n/a	n/a	n/a
874136	PROB	n/a	LTP118	ltpFR	7	n/a	n/a	n/a	n/a	n/a	n/a	n/a	21	9	7	5	n/a	n/a	n/a	n/a	n/a
877542	STOP	n/a	LTP118	ltpFR	7	n/a	n/a	n/a	n/a	n/a	n/a	n/a	n/a	n/a	n/a	n/a	n/a	n/a	n/a	n/a	n/a
880151	REC_START	n/a	LTP118	ltpFR	7	3	n/a	n/a	n/a	n/a	n/a	n/a	n/a	0	0	0	n/a	n/a	n/a	n/a	n/a
896409	REC_WORD	wordpools/wasnorm_wordpool.txt	LTP118	ltpFR	7	3	0	LEAF	808	n/a	n/a	0	n/a	0	0	0	n/a	n/a	n/a	n/a	n/a
897990	REC_WORD	wordpools/wasnorm_wordpool.txt	LTP118	ltpFR	7	3	0	SAP	1233	n/a	n/a	0	n/a	0	0	0	n/a	n/a	n/a	n/a	n/a
900744	REC_WORD	wordpools/wasnorm_wordpool.txt	LTP118	ltpFR	7	3	0	ROAD	1196	n/a	n/a	1	n/a	0	0	0	n/a	n/a	n/a	n/a	n/a
902764	REC_WORD	wordpools/wasnorm_wordpool.txt	LTP118	ltpFR	7	3	0	ALLEY	15	n/a	n/a	1	n/a	0	0	0	n/a	n/a	n/a	n/a	n/a
910846	REC_WORD	wordpools/wasnorm_wordpool.txt	LTP118	ltpFR	7	3	0	OUTFIT	988	n/a	n/a	1	n/a	0	0	0	n/a	n/a	n/a	n/a	n/a
930017	REC_WORD	wordpools/wasnorm_wordpool.txt	LTP118	ltpFR	7	3	0	SANDWICH	1232	n/a	n/a	0	n/a	0	0	0	n/a	n/a	n/a	n/a	n/a
931669	REC_WORD	wordpools/wasnorm_wordpool.txt	LTP118	ltpFR	7	3	0	TOAST	1471	n/a	n/a	0	n/a	0	0	0	n/a	n/a	n/a	n/a	n/a
950206	REC_WORD	wordpools/wasnorm_wordpool.txt	LTP118	ltpFR	7	3	0	PLAQUE	1084	n/a	n/a	0	n/a	0	0	0	n/a	n/a	n/a	n/a	n/a
981823	START	n/a	LTP118	ltpFR	7	n/a	n/a	n/a	n/a	n/a	n/a	n/a	n/a	n/a	n/a	n/a	n/a	n/a	n/a	n/a	n/a
983330	PROB	n/a	LTP118	ltpFR	7	n/a	n/a	n/a	n/a	n/a	n/a	n/a	19	8	6	5	n/a	n/a	n/a	n/a	n/a
985537	PROB	n/a	LTP118	ltpFR	7	n/a	n/a	n/a	n/a	n/a	n/a	n/a	5	3	1	1	n/a	n/a	n/a	n/a	n/a
987113	PROB	n/a	LTP118	ltpFR	7	n/a	n/a	n/a	n/a	n/a	n/a	n/a	17	2	6	9	n/a	n/a	n/a	n/a	n/a
989151	STOP	n/a	LTP118	ltpFR	7	n/a	n/a	n/a	n/a	n/a	n/a	n/a	n/a	n/a	n/a	n/a	n/a	n/a	n/a	n/a	n/a
990795	WORD	wordpools/wasnorm_wordpool.txt	LTP118	ltpFR	7	4	1	ROCK	1201	n/a	n/a	0	n/a	0	0	0	0.57763671875	0.412841796875	1	upper	amplitud.ttf
993803	START	n/a	LTP118	ltpFR	7	n/a	n/a	n/a	n/a	n/a	n/a	n/a	n/a	n/a	n/a	n/a	n/a	n/a	n/a	n/a	n/a
994777	PROB	n/a	LTP118	ltpFR	7	n/a	n/a	n/a	n/a	n/a	n/a	n/a	15	5	7	3	n/a	n/a	n/a	n/a	n/a
997383	PROB	n/a	LTP118	ltpFR	7	n/a	n/a	n/a	n/a	n/a	n/a	n/a	11	4	4	3	n/a	n/a	n/a	n/a	n/a
999441	PROB	n/a	LTP118	ltpFR	7	n/a	n/a	n/a	n/a	n/a	n/a	n/a	9	4	3	1	n/a	n/a	n/a	n/a	n/a
1000847	STOP	n/a	LTP118	ltpFR	7	n/a	n/a	n/a	n/a	n/a	n/a	n/a	n/a	n/a	n/a	n/a	n/a	n/a	n/a	n/a	n/a
1002841	WORD	wordpools/wasnorm_wordpool.txt	LTP118	ltpFR	7	4	1	PLANE	1081	n/a	n/a	0	n/a	0	0	0	0.57763671875	0.412841796875	1	upper	amplitud.ttf
1005848	START	n/a	LTP118	ltpFR	7	n/a	n/a	n/a	n/a	n/a	n/a	n/a	n/a	n/a	n/a	n/a	n/a	n/a	n/a	n/a	n/a
1006764	PROB	n/a	LTP118	ltpFR	7	n/a	n/a	n/a	n/a	n/a	n/a	n/a	18	3	1	7	n/a	n/a	n/a	n/a	n/a
1013847	STOP	n/a	LTP118	ltpFR	7	n/a	n/a	n/a	n/a	n/a	n/a	n/a	n/a	n/a	n/a	n/a	n/a	n/a	n/a	n/a	n/a
1014720	WORD	wordpools/wasnorm_wordpool.txt	LTP118	ltpFR	7	4	1	BLOUSE	139	n/a	n/a	0	n/a	0	0	0	0.57763671875	0.412841796875	1	upper	amplitud.ttf
1017727	START	n/a	LTP118	ltpFR	7	n/a	n/a	n/a	n/a	n/a	n/a	n/a	n/a	n/a	n/a	n/a	n/a	n/a	n/a	n/a	n/a
1018718	PROB	n/a	LTP118	ltpFR	7	n/a	n/a	n/a	n/a	n/a	n/a	n/a	23	8	7	8	n/a	n/a	n/a	n/a	n/a
1021341	PROB	n/a	LTP118	ltpFR	7	n/a	n/a	n/a	n/a	n/a	n/a	n/a	8	1	1	6	n/a	n/a	n/a	n/a	n/a
1022842	PROB	n/a	LTP118	ltpFR	7	n/a	n/a	n/a	n/a	n/a	n/a	n/a	15	3	5	7	n/a	n/a	n/a	n/a	n/a
1024823	STOP	n/a	LTP118	ltpFR	7	n/a	n/a	n/a	n/a	n/a	n/a	n/a	n/a	n/a	n/a	n/a	n/a	n/a	n/a	n/a	n/a
1026857	WORD	wordpools/wasnorm_wordpool.txt	LTP118	ltpFR	7	4	1	CLIMBER	323	n/a	n/a	1	n/a	0	0	0	0.57763671875	0.412841796875	1	upper	amplitud.ttf
1029865	START	n/a	LTP118	ltpFR	7	n/a	n/a	n/a	n/a	n/a	n/a	n/a	n/a	n/a	n/a	n/a	n/a	n/a	n/a	n/a	n/a
1030989	PROB	n/a	LTP118	ltpFR	7	n/a	n/a	n/a	n/a	n/a	n/a	n/a	15	1	9	5	n/a	n/a	n/a	n/a	n/a
1032847	PROB	n/a	LTP118	ltpFR	7	n/a	n/a	n/a	n/a	n/a	n/a	n/a	15	2	4	9	n/a	n/a	n/a	n/a	n/a
1035037	PROB	n/a	LTP118	ltpFR	7	n/a	n/a	n/a	n/a	n/a	n/a	n/a	11	4	3	7	n/a	n/a	n/a	n/a	n/a
1036743	STOP	n/a	LTP118	ltpFR	7	n/a	n/a	n/a	n/a	n/a	n/a	n/a	n/a	n/a	n/a	n/a	n/a	n/a	n/a	n/a	n/a
1039036	WORD	wordpools/wasnorm_wordpool.txt	LTP118	ltpFR	7	4	1	COLLAR	345	n/a	n/a	1	n/a	0	0	0	0.57763671875	0.412841796875	1	upper	amplitud.ttf
1042044	START	n/a	LTP118	ltpFR	7	n/a	n/a	n/a	n/a	n/a	n/a	n/a	n/a	n/a	n/a	n/a	n/a	n/a	n/a	n/a	n/a
1043201	PROB	n/a	LTP118	ltpFR	7	n/a	n/a	n/a	n/a	n/a	n/a	n/a	8	2	5	1	n/a	n/a	n/a	n/a	n/a
1045142	PROB	n/a	LTP118	ltpFR	7	n/a	n/a	n/a	n/a	n/a	n/a	n/a	11	8	1	2	n/a	n/a	n/a	n/a	n/a
1047008	PROB	n/a	LTP118	ltpFR	7	n/a	n/a	n/a	n/a	n/a	n/a	n/a	17	5	7	5	n/a	n/a	n/a	n/a	n/a
1048919	STOP	n/a	LTP118	ltpFR	7	n/a	n/a	n/a	n/a	n/a	n/a	n/a	n/a	n/a	n/a	n/a	n/a	n/a	n/a	n/a	n/a
1051057	WORD	wordpools/wasnorm_wordpool.txt	LTP118	ltpFR	7	4	1	SHORTS	1293	n/a	n/a	1	n/a	0	0	0	0.57763671875	0.412841796875	1	upper	amplitud.ttf
1054065	START	n/a	LTP118	ltpFR	7	n/a	n/a	n/a	n/a	n/a	n/a	n/a	n/a	n/a	n/a	n/a	n/a	n/a	n/a	n/a	n/a
1054914	PROB	n/a	LTP118	ltpFR	7	n/a	n/a	n/a	n/a	n/a	n/a	n/a	23	6	9	8	n/a	n/a	n/a	n/a	n/a
1057788	PROB	n/a	LTP118	ltpFR	7	n/a	n/a	n/a	n/a	n/a	n/a	n/a	18	5	4	9	n/a	n/a	n/a	n/a	n/a
1062065	STOP	n/a	LTP118	ltpFR	7	n/a	n/a	n/a	n/a	n/a	n/a	n/a	n/a	n/a	n/a	n/a	n/a	n/a	n/a	n/a	n/a
1062878	WORD	wordpools/wasnorm_wordpool.txt	LTP118	ltpFR	7	4	1	HOSE	720	n/a	n/a	1	n/a	0	0	0	0.57763671875	0.412841796875	1	upper	amplitud.ttf
1065885	START	n/a	LTP118	ltpFR	7	n/a	n/a	n/a	n/a	n/a	n/a	n/a	n/a	n/a	n/a	n/a	n/a	n/a	n/a	n/a	n/a
1067018	PROB	n/a	LTP118	ltpFR	7	n/a	n/a	n/a	n/a	n/a	n/a	n/a	18	7	7	4	n/a	n/a	n/a	n/a	n/a
1069159	PROB	n/a	LTP118	ltpFR	7	n/a	n/a	n/a	n/a	n/a	n/a	n/a	6	2	2	2	n/a	n/a	n/a	n/a	n/a
1070341	PROB	n/a	LTP118	ltpFR	7	n/a	n/a	n/a	n/a	n/a	n/a	n/a	14	3	6	5	n/a	n/a	n/a	n/a	n/a
1072614	STOP	n/a	LTP118	ltpFR	7	n/a	n/a	n/a	n/a	n/a	n/a	n/a	n/a	n/a	n/a	n/a	n/a	n/a	n/a	n/a	n/a
1074948	WORD	wordpools/wasnorm_wordpool.txt	LTP118	ltpFR	7	4	1	BRIDGE	174	n/a	n/a	1	n/a	0	0	0	0.57763671875	0.412841796875	1	upper	amplitud.ttf
1077956	START	n/a	LTP118	ltpFR	7	n/a	n/a	n/a	n/a	n/a	n/a	n/a	n/a	n/a	n/a	n/a	n/a	n/a	n/a	n/a	n/a
1078980	PROB	n/a	LTP118	ltpFR	7	n/a	n/a	n/a	n/a	n/a	n/a	n/a	14	6	4	4	n/a	n/a	n/a	n/a	n/a
1080713	PROB	n/a	LTP118	ltpFR	7	n/a	n/a	n/a	n/a	n/a	n/a	n/a	18	6	9	3	n/a	n/a	n/a	n/a	n/a
1083029	PROB	n/a	LTP118	ltpFR	7	n/a	n/a	n/a	n/a	n/a	n/a	n/a	8	1	6	1	n/a	n/a	n/a	n/a	n/a
1084294	PROB	n/a	LTP118	ltpFR	7	n/a	n/a	n/a	n/a	n/a	n/a	n/a	8	1	5	2	n/a	n/a	n/a	n/a	n/a
1085703	STOP	n/a	LTP118	ltpFR	7	n/a	n/a	n/a	n/a	n/a	n/a	n/a	n/a	n/a	n/a	n/a	n/a	n/a	n/a	n/a	n/a
1087011	WORD	wordpools/wasnorm_wordpool.txt	LTP118	ltpFR	7	4	1	ROACH	1195	n/a	n/a	n/a	n/a	0	0	0	0.57763671875	0.412841796875	1	upper	amplitud.ttf
1090035	SLOW_MSG	n/a	LTP118	ltpFR	7	4	n/a	n/a	n/a	n/a	n/a	n/a	n/a	0	0	0	n/a	n/a	n/a	n/a	n/a
1091550	START	n/a	LTP118	ltpFR	7	n/a	n/a	n/a	n/a	n/a	n/a	n/a	n/a	n/a	n/a	n/a	n/a	n/a	n/a	n/a	n/a
1092608	PROB	n/a	LTP118	ltpFR	7	n/a	n/a	n/a	n/a	n/a	n/a	n/a	12	3	4	5	n/a	n/a	n/a	n/a	n/a
1098438	STOP	n/a	LTP118	ltpFR	7	n/a	n/a	n/a	n/a	n/a	n/a	n/a	n/a	n/a	n/a	n/a	n/a	n/a	n/a	n/a	n/a
1100597	WORD	wordpools/wasnorm_wordpool.txt	LTP118	ltpFR	7	4	1	PILOT	1070	n/a	n/a	1	n/a	0	0	0	0.57763671875	0.412841796875	1	upper	amplitud.ttf
1103604	START	n/a	LTP118	ltpFR	7	n/a	n/a	n/a	n/a	n/a	n/a	n/a	n/a	n/a	n/a	n/a	n/a	n/a	n/a	n/a	n/a
1104470	PROB	n/a	LTP118	ltpFR	7	n/a	n/a	n/a	n/a	n/a	n/a	n/a	8	4	2	2	n/a	n/a	n/a	n/a	n/a
1106361	PROB	n/a	LTP118	ltpFR	7	n/a	n/a	n/a	n/a	n/a	n/a	n/a	10	5	2	3	n/a	n/a	n/a	n/a	n/a
1108253	PROB	n/a	LTP118	ltpFR	7	n/a	n/a	n/a	n/a	n/a	n/a	n/a	11	5	5	1	n/a	n/a	n/a	n/a	n/a
1109418	PROB	n/a	LTP118	ltpFR	7	n/a	n/a	n/a	n/a	n/a	n/a	n/a	15	1	8	6	n/a	n/a	n/a	n/a	n/a
1110967	STOP	n/a	LTP118	ltpFR	7	n/a	n/a	n/a	n/a	n/a	n/a	n/a	n/a	n/a	n/a	n/a	n/a	n/a	n/a	n/a	n/a
1112718	WORD	wordpools/wasnorm_wordpool.txt	LTP118	ltpFR	7	4	1	SKETCH	1315	n/a	n/a	0	n/a	0	0	0	0.57763671875	0.412841796875	1	upper	amplitud.ttf
1115726	START	n/a	LTP118	ltpFR	7	n/a	n/a	n/a	n/a	n/a	n/a	n/a	n/a	n/a	n/a	n/a	n/a	n/a	n/a	n/a	n/a
1116658	PROB	n/a	LTP118	ltpFR	7	n/a	n/a	n/a	n/a	n/a	n/a	n/a	11	4	3	4	n/a	n/a	n/a	n/a	n/a
1118758	PROB	n/a	LTP118	ltpFR	7	n/a	n/a	n/a	n/a	n/a	n/a	n/a	9	1	1	7	n/a	n/a	n/a	n/a	n/a
1120849	PROB	n/a	LTP118	ltpFR	7	n/a	n/a	n/a	n/a	n/a	n/a	n/a	18	4	7	7	n/a	n/a	n/a	n/a	n/a
1122502	STOP	n/a	LTP118	ltpFR	7	n/a	n/a	n/a	n/a	n/a	n/a	n/a	n/a	n/a	n/a	n/a	n/a	n/a	n/a	n/a	n/a
1124756	WORD	wordpools/wasnorm_wordpool.txt	LTP118	ltpFR	7	4	1	BURGLAR	200	n/a	n/a	1	n/a	0	0	0	0.57763671875	0.412841796875	1	upper	amplitud.ttf
1127763	START	n/a	LTP118	ltpFR	7	n/a	n/a	n/a	n/a	n/a	n/a	n/a	n/a	n/a	n/a	n/a	n/a	n/a	n/a	n/a	n/a
1128729	PROB	n/a	LTP118	ltpFR	7	n/a	n/a	n/a	n/a	n/a	n/a	n/a	13	6	6	1	n/a	n/a	n/a	n/a	n/a
1130220	PROB	n/a	LTP118	ltpFR	7	n/a	n/a	n/a	n/a	n/a	n/a	n/a	15	9	4	2	n/a	n/a	n/a	n/a	n/a
1132045	PROB	n/a	LTP118	ltpFR	7	n/a	n/a	n/a	n/a	n/a	n/a	n/a	23	8	6	9	n/a	n/a	n/a	n/a	n/a
1135598	STOP	n/a	LTP118	ltpFR	7	n/a	n/a	n/a	n/a	n/a	n/a	n/a	n/a	n/a	n/a	n/a	n/a	n/a	n/a	n/a	n/a
1136735	WORD	wordpools/wasnorm_wordpool.txt	LTP118	ltpFR	7	4	1	TUXEDO	1525	n/a	n/a	0	n/a	0	0	0	0.57763671875	0.412841796875	1	upper	amplitud.ttf
1139742	START	n/a	LTP118	ltpFR	7	n/a	n/a	n/a	n/a	n/a	n/a	n/a	n/a	n/a	n/a	n/a	n/a	n/a	n/a	n/a	n/a
1140666	PROB	n/a	LTP118	ltpFR	7	n/a	n/a	n/a	n/a	n/a	n/a	n/a	16	5	3	8	n/a	n/a	n/a	n/a	n/a
1142507	PROB	n/a	LTP118	ltpFR	7	n/a	n/a	n/a	n/a	n/a	n/a	n/a	23	8	7	6	n/a	n/a	n/a	n/a	n/a
1147742	STOP	n/a	LTP118	ltpFR	7	n/a	n/a	n/a	n/a	n/a	n/a	n/a	n/a	n/a	n/a	n/a	n/a	n/a	n/a	n/a	n/a
1148764	WORD	wordpools/wasnorm_wordpool.txt	LTP118	ltpFR	7	4	1	DILL	465	n/a	n/a	0	n/a	0	0	0	0.57763671875	0.412841796875	1	upper	amplitud.ttf
1151772	START	n/a	LTP118	ltpFR	7	n/a	n/a	n/a	n/a	n/a	n/a	n/a	n/a	n/a	n/a	n/a	n/a	n/a	n/a	n/a	n/a
1152846	PROB	n/a	LTP118	ltpFR	7	n/a	n/a	n/a	n/a	n/a	n/a	n/a	22	8	7	6	n/a	n/a	n/a	n/a	n/a
1156643	PROB	n/a	LTP118	ltpFR	7	n/a	n/a	n/a	n/a	n/a	n/a	n/a	21	9	7	6	n/a	n/a	n/a	n/a	n/a
1159039	STOP	n/a	LTP118	ltpFR	7	n/a	n/a	n/a	n/a	n/a	n/a	n/a	n/a	n/a	n/a	n/a	n/a	n/a	n/a	n/a	n/a
1160835	WORD	wordpools/wasnorm_wordpool.txt	LTP118	ltpFR	7	4	1	MOLECULE	905	n/a	n/a	0	n/a	0	0	0	0.57763671875	0.412841796875	1	upper	amplitud.ttf
1163842	START	n/a	LTP118	ltpFR	7	n/a	n/a	n/a	n/a	n/a	n/a	n/a	n/a	n/a	n/a	n/a	n/a	n/a	n/a	n/a	n/a
1164741	PROB	n/a	LTP118	ltpFR	7	n/a	n/a	n/a	n/a	n/a	n/a	n/a	13	3	9	1	n/a	n/a	n/a	n/a	n/a
1166749	PROB	n/a	LTP118	ltpFR	7	n/a	n/a	n/a	n/a	n/a	n/a	n/a	20	7	8	5	n/a	n/a	n/a	n/a	n/a
1171842	STOP	n/a	LTP118	ltpFR	7	n/a	n/a	n/a	n/a	n/a	n/a	n/a	n/a	n/a	n/a	n/a	n/a	n/a	n/a	n/a	n/a
1172955	WORD	wordpools/wasnorm_wordpool.txt	LTP118	ltpFR	7	4	1	BRAIN	165	n/a	n/a	0	n/a	0	0	0	0.57763671875	0.412841796875	1	upper	amplitud.ttf
1175963	START	n/a	LTP118	ltpFR	7	n/a	n/a	n/a	n/a	n/a	n/a	n/a	n/a	n/a	n/a	n/a	n/a	n/a	n/a	n/a	n/a
1176970	PROB	n/a	LTP118	ltpFR	7	n/a	n/a	n/a	n/a	n/a	n/a	n/a	5	2	1	5	n/a	n/a	n/a	n/a	n/a
1183963	STOP	n/a	LTP118	ltpFR	7	n/a	n/a	n/a	n/a	n/a	n/a	n/a	n/a	n/a	n/a	n/a	n/a	n/a	n/a	n/a	n/a
1185851	REC_START	n/a	LTP118	ltpFR	7	4	n/a	n/a	n/a	n/a	n/a	n/a	n/a	0	0	0	n/a	n/a	n/a	n/a	n/a
1187542	REC_WORD	wordpools/wasnorm_wordpool.txt	LTP118	ltpFR	7	4	1	BRAIN	165	n/a	n/a	0	n/a	0	0	0	n/a	n/a	n/a	n/a	n/a
1188954	REC_WORD	wordpools/wasnorm_wordpool.txt	LTP118	ltpFR	7	4	1	MOLECULE	905	n/a	n/a	0	n/a	0	0	0	n/a	n/a	n/a	n/a	n/a
1192171	REC_WORD	wordpools/wasnorm_wordpool.txt	LTP118	ltpFR	7	4	1	DILL	465	n/a	n/a	0	n/a	0	0	0	n/a	n/a	n/a	n/a	n/a
1202812	REC_WORD	wordpools/wasnorm_wordpool.txt	LTP118	ltpFR	7	4	1	PILOT	1070	n/a	n/a	1	n/a	0	0	0	n/a	n/a	n/a	n/a	n/a
1218901	REC_WORD	wordpools/wasnorm_wordpool.txt	LTP118	ltpFR	7	4	1	HOSE	720	n/a	n/a	1	n/a	0	0	0	n/a	n/a	n/a	n/a	n/a
1331298	WORD	wordpools/wasnorm_wordpool.txt	LTP118	ltpFR	7	5	1	ARMY	39	n/a	n/a	0	n/a	0	0	0	0.57763671875	0.412841796875	1	upper	amplitud.ttf
1335380	WORD	wordpools/wasnorm_wordpool.txt	LTP118	ltpFR	7	5	1	PERSON	1052	n/a	n/a	1	n/a	0	0	0	0.57763671875	0.412841796875	1	upper	amplitud.ttf
1339221	WORD	wordpools/wasnorm_wordpool.txt	LTP118	ltpFR	7	5	1	CLOSET	326	n/a	n/a	0	n/a	0	0	0	0.57763671875	0.412841796875	1	upper	amplitud.ttf
1343153	WORD	wordpools/wasnorm_wordpool.txt	LTP118	ltpFR	7	5	1	SEAL	1262	n/a	n/a	1	n/a	0	0	0	0.57763671875	0.412841796875	1	upper	amplitud.ttf
1347277	WORD	wordpools/wasnorm_wordpool.txt	LTP118	ltpFR	7	5	1	PARCEL	1012	n/a	n/a	0	n/a	0	0	0	0.57763671875	0.412841796875	1	upper	amplitud.ttf
1351374	WORD	wordpools/wasnorm_wordpool.txt	LTP118	ltpFR	7	5	1	DANCER	437	n/a	n/a	0	n/a	0	0	0	0.57763671875	0.412841796875	1	upper	amplitud.ttf
1355298	WORD	wordpools/wasnorm_wordpool.txt	LTP118	ltpFR	7	5	1	HOOP	716	n/a	n/a	0	n/a	0	0	0	0.57763671875	0.412841796875	1	upper	amplitud.ttf
1359148	WORD	wordpools/wasnorm_wordpool.txt	LTP118	ltpFR	7	5	1	CUP	424	n/a	n/a	0	n/a	0	0	0	0.57763671875	0.412841796875	1	upper	amplitud.ttf
1363130	WORD	wordpools/wasnorm_wordpool.txt	LTP118	ltpFR	7	5	1	FOSSIL	596	n/a	n/a	0	n/a	0	0	0	0.57763671875	0.412841796875	1	upper	amplitud.ttf
1367153	WORD	wordpools/wasnorm_wordpool.txt	LTP118	ltpFR	7	5	1	ELF	525	n/a	n/a	0	n/a	0	0	0	0.57763671875	0.412841796875	1	upper	amplitud.ttf
1371035	WORD	wordpools/wasnorm_wordpool.txt	LTP118	ltpFR	7	5	1	LAUNDRY	803	n/a	n/a	0	n/a	0	0	0	0.57763671875	0.412841796875	1	upper	amplitud.ttf
1374984	WORD	wordpools/wasnorm_wordpool.txt	LTP118	ltpFR	7	5	1	UNIFORM	1539	n/a	n/a	0	n/a	0	0	0	0.57763671875	0.412841796875	1	upper	amplitud.ttf
1378966	WORD	wordpools/wasnorm_wordpool.txt	LTP118	ltpFR	7	5	1	SCOTCH	1251	n/a	n/a	0	n/a	0	0	0	0.57763671875	0.412841796875	1	upper	amplitud.ttf
1383156	WORD	wordpools/wasnorm_wordpool.txt	LTP118	ltpFR	7	5	1	BEER	114	n/a	n/a	0	n/a	0	0	0	0.57763671875	0.412841796875	1	upper	amplitud.ttf
1387213	WORD	wordpools/wasnorm_wordpool.txt	LTP118	ltpFR	7	5	1	COMMUNITY	356	n/a	n/a	1	n/a	0	0	0	0.57763671875	0.412841796875	1	upper	amplitud.ttf
1391028	WORD	wordpools/wasnorm_wordpool.txt	LTP118	ltpFR	7	5	1	CUSTOMER	430	n/a	n/a	1	n/a	0	0	0	0.57763671875	0.412841796875	1	upper	amplitud.ttf
1394036	START	n/a	LTP118	ltpFR	7	n/a	n/a	n/a	n/a	n/a	n/a	n/a	n/a	n/a	n/a	n/a	n/a	n/a	n/a	n/a	n/a
1394902	PROB	n/a	LTP118	ltpFR	7	n/a	n/a	n/a	n/a	n/a	n/a	n/a	15	6	8	7	n/a	n/a	n/a	n/a	n/a
1397051	PROB	n/a	LTP118	ltpFR	7	n/a	n/a	n/a	n/a	n/a	n/a	n/a	19	3	9	7	n/a	n/a	n/a	n/a	n/a
1402036	STOP	n/a	LTP118	ltpFR	7	n/a	n/a	n/a	n/a	n/a	n/a	n/a	n/a	n/a	n/a	n/a	n/a	n/a	n/a	n/a	n/a
1403874	REC_START	n/a	LTP118	ltpFR	7	5	n/a	n/a	n/a	n/a	n/a	n/a	n/a	0	0	0	n/a	n/a	n/a	n/a	n/a
1405156	REC_WORD	wordpools/wasnorm_wordpool.txt	LTP118	ltpFR	7	5	1	DANCER	437	n/a	n/a	0	n/a	0	0	0	n/a	n/a	n/a	n/a	n/a
1406588	REC_WORD	wordpools/wasnorm_wordpool.txt	LTP118	ltpFR	7	5	1	PARCEL	1012	n/a	n/a	0	n/a	0	0	0	n/a	n/a	n/a	n/a	n/a
1411482	REC_WORD	wordpools/wasnorm_wordpool.txt	LTP118	ltpFR	7	5	1	ARMY	39	n/a	n/a	0	n/a	0	0	0	n/a	n/a	n/a	n/a	n/a
1412614	REC_WORD	wordpools/wasnorm_wordpool.txt	LTP118	ltpFR	7	5	1	COMMUNITY	356	n/a	n/a	1	n/a	0	0	0	n/a	n/a	n/a	n/a	n/a
1414345	REC_WORD	wordpools/wasnorm_wordpool.txt	LTP118	ltpFR	7	5	1	CUSTOMER	430	n/a	n/a	1	n/a	0	0	0	n/a	n/a	n/a	n/a	n/a
1416296	REC_WORD	wordpools/wasnorm_wordpool.txt	LTP118	ltpFR	7	5	1	PERSON	1052	n/a	n/a	1	n/a	0	0	0	n/a	n/a	n/a	n/a	n/a
1424881	REC_WORD	wordpools/wasnorm_wordpool.txt	LTP118	ltpFR	7	5	1	CLOSET	326	n/a	n/a	0	n/a	0	0	0	n/a	n/a	n/a	n/a	n/a
1528304	START	n/a	LTP118	ltpFR	7	n/a	n/a	n/a	n/a	n/a	n/a	n/a	n/a	n/a	n/a	n/a	n/a	n/a	n/a	n/a	n/a
1529812	PROB	n/a	LTP118	ltpFR	7	n/a	n/a	n/a	n/a	n/a	n/a	n/a	18	4	8	5	n/a	n/a	n/a	n/a	n/a
1533103	PROB	n/a	LTP118	ltpFR	7	n/a	n/a	n/a	n/a	n/a	n/a	n/a	19	8	7	4	n/a	n/a	n/a	n/a	n/a
1535793	PROB	n/a	LTP118	ltpFR	7	n/a	n/a	n/a	n/a	n/a	n/a	n/a	15	6	1	8	n/a	n/a	n/a	n/a	n/a
1537968	PROB	n/a	LTP118	ltpFR	7	n/a	n/a	n/a	n/a	n/a	n/a	n/a	19	6	8	3	n/a	n/a	n/a	n/a	n/a
1539925	PROB	n/a	LTP118	ltpFR	7	n/a	n/a	n/a	n/a	n/a	n/a	n/a	11	1	4	6	n/a	n/a	n/a	n/a	n/a
1544304	STOP	n/a	LTP118	ltpFR	7	n/a	n/a	n/a	n/a	n/a	n/a	n/a	n/a	n/a	n/a	n/a	n/a	n/a	n/a	n/a	n/a
1545431	WORD	wordpools/wasnorm_wordpool.txt	LTP118	ltpFR	7	6	1	DOG	480	n/a	n/a	1	n/a	0	0	0	0.57763671875	0.412841796875	1	upper	amplitud.ttf
1548438	START	n/a	LTP118	ltpFR	7	n/a	n/a	n/a	n/a	n/a	n/a	n/a	n/a	n/a	n/a	n/a	n/a	n/a	n/a	n/a	n/a
1549521	PROB	n/a	LTP118	ltpFR	7	n/a	n/a	n/a	n/a	n/a	n/a	n/a	14	7	5	2	n/a	n/a	n/a	n/a	n/a
1552704	PROB	n/a	LTP118	ltpFR	7	n/a	n/a	n/a	n/a	n/a	n/a	n/a	20	7	9	4	n/a	n/a	n/a	n/a	n/a
1555095	PROB	n/a	LTP118	ltpFR	7	n/a	n/a	n/a	n/a	n/a	n/a	n/a	25	7	9	9	n/a	n/a	n/a	n/a	n/a
1559210	PROB	n/a	LTP118	ltpFR	7	n/a	n/a	n/a	n/a	n/a	n/a	n/a	14	9	4	1	n/a	n/a	n/a	n/a	n/a
1564438	STOP	n/a	LTP118	ltpFR	7	n/a	n/a	n/a	n/a	n/a	n/a	n/a	n/a	n/a	n/a	n/a	n/a	n/a	n/a	n/a	n/a
1565283	WORD	wordpools/wasnorm_wordpool.txt	LTP118	ltpFR	7	6	1	PIE	1062	n/a	n/a	0	n/a	0	0	0	0.57763671875	0.412841796875	1	upper	amplitud.ttf
1568291	START	n/a	LTP118	ltpFR	7	n/a	n/a	n/a	n/a	n/a	n/a	n/a	n/a	n/a	n/a	n/a	n/a	n/a	n/a	n/a	n/a
1569489	PROB	n/a	LTP118	ltpFR	7	n/a	n/a	n/a	n/a	n/a	n/a	n/a	120	4	2	4	n/a	n/a	n/a	n/a	n/a
1572913	PROB	n/a	LTP118	ltpFR	7	n/a	n/a	n/a	n/a	n/a	n/a	n/a	8	3	4	1	n/a	n/a	n/a	n/a	n/a
1575595	PROB	n/a	LTP118	ltpFR	7	n/a	n/a	n/a	n/a	n/a	n/a	n/a	20	7	5	8	n/a	n/a	n/a	n/a	n/a
1581651	PROB	n/a	LTP118	ltpFR	7	n/a	n/a	n/a	n/a	n/a	n/a	n/a	8	1	1	7	n/a	n/a	n/a	n/a	n/a
1584263	STOP	n/a	LTP118	ltpFR	7	n/a	n/a	n/a	n/a	n/a	n/a	n/a	n/a	n/a	n/a	n/a	n/a	n/a	n/a	n/a	n/a
1585218	WORD	wordpools/wasnorm_wordpool.txt	LTP118	ltpFR	7	6	1	NOTE	958	n/a	n/a	0	n/a	0	0	0	0.57763671875	0.412841796875	1	upper	amplitud.ttf
1588225	START	n/a	LTP118	ltpFR	7	n/a	n/a	n/a	n/a	n/a	n/a	n/a	n/a	n/a	n/a	n/a	n/a	n/a	n/a	n/a	n/a
1589291	PROB	n/a	LTP118	ltpFR	7	n/a	n/a	n/a	n/a	n/a	n/a	n/a	11	5	4	2	n/a	n/a	n/a	n/a	n/a
1591598	PROB	n/a	LTP118	ltpFR	7	n/a	n/a	n/a	n/a	n/a	n/a	n/a	11	2	3	6	n/a	n/a	n/a	n/a	n/a
1593455	PROB	n/a	LTP118	ltpFR	7	n/a	n/a	n/a	n/a	n/a	n/a	n/a	18	9	3	6	n/a	n/a	n/a	n/a	n/a
1596813	PROB	n/a	LTP118	ltpFR	7	n/a	n/a	n/a	n/a	n/a	n/a	n/a	16	6	3	7	n/a	n/a	n/a	n/a	n/a
1599179	PROB	n/a	LTP118	ltpFR	7	n/a	n/a	n/a	n/a	n/a	n/a	n/a	15	4	2	9	n/a	n/a	n/a	n/a	n/a
1604225	STOP	n/a	LTP118	ltpFR	7	n/a	n/a	n/a	n/a	n/a	n/a	n/a	n/a	n/a	n/a	n/a	n/a	n/a	n/a	n/a	n/a
1605219	WORD	wordpools/wasnorm_wordpool.txt	LTP118	ltpFR	7	6	1	SUPERMARKET	1409	n/a	n/a	0	n/a	0	0	0	0.57763671875	0.412841796875	1	upper	amplitud.ttf
1608226	START	n/a	LTP118	ltpFR	7	n/a	n/a	n/a	n/a	n/a	n/a	n/a	n/a	n/a	n/a	n/a	n/a	n/a	n/a	n/a	n/a
1609284	PROB	n/a	LTP118	ltpFR	7	n/a	n/a	n/a	n/a	n/a	n/a	n/a	13	6	1	6	n/a	n/a	n/a	n/a	n/a
1611008	PROB	n/a	LTP118	ltpFR	7	n/a	n/a	n/a	n/a	n/a	n/a	n/a	19	9	4	6	n/a	n/a	n/a	n/a	n/a
1613540	PROB	n/a	LTP118	ltpFR	7	n/a	n/a	n/a	n/a	n/a	n/a	n/a	6	1	2	3	n/a	n/a	n/a	n/a	n/a
1615614	PROB	n/a	LTP118	ltpFR	7	n/a	n/a	n/a	n/a	n/a	n/a	n/a	13	2	6	5	n/a	n/a	n/a	n/a	n/a
1618139	PROB	n/a	LTP118	ltpFR	7	n/a	n/a	n/a	n/a	n/a	n/a	n/a	11	8	2	1	n/a	n/a	n/a	n/a	n/a
1619747	PROB	n/a	LTP118	ltpFR	7	n/a	n/a	n/a	n/a	n/a	n/a	n/a	23	5	9	9	n/a	n/a	n/a	n/a	n/a
1622004	PROB	n/a	LTP118	ltpFR	7	n/a	n/a	n/a	n/a	n/a	n/a	n/a	13	3	3	7	n/a	n/a	n/a	n/a	n/a
1623703	STOP	n/a	LTP118	ltpFR	7	n/a	n/a	n/a	n/a	n/a	n/a	n/a	n/a	n/a	n/a	n/a	n/a	n/a	n/a	n/a	n/a
1625053	WORD	wordpools/wasnorm_wordpool.txt	LTP118	ltpFR	7	6	1	FREEZER	604	n/a	n/a	0	n/a	0	0	0	0.57763671875	0.412841796875	1	upper	amplitud.ttf
1628061	START	n/a	LTP118	ltpFR	7	n/a	n/a	n/a	n/a	n/a	n/a	n/a	n/a	n/a	n/a	n/a	n/a	n/a	n/a	n/a	n/a
1629144	PROB	n/a	LTP118	ltpFR	7	n/a	n/a	n/a	n/a	n/a	n/a	n/a	19	4	6	9	n/a	n/a	n/a	n/a	n/a
1631234	PROB	n/a	LTP118	ltpFR	7	n/a	n/a	n/a	n/a	n/a	n/a	n/a	11	9	1	1	n/a	n/a	n/a	n/a	n/a
1632316	PROB	n/a	LTP118	ltpFR	7	n/a	n/a	n/a	n/a	n/a	n/a	n/a	7	1	4	2	n/a	n/a	n/a	n/a	n/a
1634357	PROB	n/a	LTP118	ltpFR	7	n/a	n/a	n/a	n/a	n/a	n/a	n/a	17	9	3	5	n/a	n/a	n/a	n/a	n/a
1636699	PROB	n/a	LTP118	ltpFR	7	n/a	n/a	n/a	n/a	n/a	n/a	n/a	13	3	9	1	n/a	n/a	n/a	n/a	n/a
1639715	PROB	n/a	LTP118	ltpFR	7	n/a	n/a	n/a	n/a	n/a	n/a	n/a	23	7	6	9	n/a	n/a	n/a	n/a	n/a
1642530	PROB	n/a	LTP118	ltpFR	7	n/a	n/a	n/a	n/a	n/a	n/a	n/a	11	3	7	1	n/a	n/a	n/a	n/a	n/a
1643831	STOP	n/a	LTP118	ltpFR	7	n/a	n/a	n/a	n/a	n/a	n/a	n/a	n/a	n/a	n/a	n/a	n/a	n/a	n/a	n/a	n/a
1645046	WORD	wordpools/wasnorm_wordpool.txt	LTP118	ltpFR	7	6	1	SIRLOIN	1311	n/a	n/a	0	n/a	0	0	0	0.57763671875	0.412841796875	1	upper	amplitud.ttf
1648054	START	n/a	LTP118	ltpFR	7	n/a	n/a	n/a	n/a	n/a	n/a	n/a	n/a	n/a	n/a	n/a	n/a	n/a	n/a	n/a	n/a
1649086	PROB	n/a	LTP118	ltpFR	7	n/a	n/a	n/a	n/a	n/a	n/a	n/a	8	4	1	3	n/a	n/a	n/a	n/a	n/a
1651418	PROB	n/a	LTP118	ltpFR	7	n/a	n/a	n/a	n/a	n/a	n/a	n/a	15	5	2	8	n/a	n/a	n/a	n/a	n/a
1653426	PROB	n/a	LTP118	ltpFR	7	n/a	n/a	n/a	n/a	n/a	n/a	n/a	10	2	7	1	n/a	n/a	n/a	n/a	n/a
1655276	PROB	n/a	LTP118	ltpFR	7	n/a	n/a	n/a	n/a	n/a	n/a	n/a	20	6	5	9	n/a	n/a	n/a	n/a	n/a
1657558	PROB	n/a	LTP118	ltpFR	7	n/a	n/a	n/a	n/a	n/a	n/a	n/a	13	8	1	4	n/a	n/a	n/a	n/a	n/a
1659682	PROB	n/a	LTP118	ltpFR	7	n/a	n/a	n/a	n/a	n/a	n/a	n/a	11	2	1	8	n/a	n/a	n/a	n/a	n/a
1661323	PROB	n/a	LTP118	ltpFR	7	n/a	n/a	n/a	n/a	n/a	n/a	n/a	15	9	2	4	n/a	n/a	n/a	n/a	n/a
1663271	STOP	n/a	LTP118	ltpFR	7	n/a	n/a	n/a	n/a	n/a	n/a	n/a	n/a	n/a	n/a	n/a	n/a	n/a	n/a	n/a	n/a
1664981	WORD	wordpools/wasnorm_wordpool.txt	LTP118	ltpFR	7	6	1	STOMACH	1384	n/a	n/a	0	n/a	0	0	0	0.57763671875	0.412841796875	1	upper	amplitud.ttf
1667989	START	n/a	LTP118	ltpFR	7	n/a	n/a	n/a	n/a	n/a	n/a	n/a	n/a	n/a	n/a	n/a	n/a	n/a	n/a	n/a	n/a
1669179	PROB	n/a	LTP118	ltpFR	7	n/a	n/a	n/a	n/a	n/a	n/a	n/a	6	2	1	3	n/a	n/a	n/a	n/a	n/a
1670645	PROB	n/a	LTP118	ltpFR	7	n/a	n/a	n/a	n/a	n/a	n/a	n/a	18	1	9	8	n/a	n/a	n/a	n/a	n/a
1673319	PROB	n/a	LTP118	ltpFR	7	n/a	n/a	n/a	n/a	n/a	n/a	n/a	15	3	5	7	n/a	n/a	n/a	n/a	n/a
1675186	PROB	n/a	LTP118	ltpFR	7	n/a	n/a	n/a	n/a	n/a	n/a	n/a	12	2	4	6	n/a	n/a	n/a	n/a	n/a
1677243	PROB	n/a	LTP118	ltpFR	7	n/a	n/a	n/a	n/a	n/a	n/a	n/a	17	1	7	9	n/a	n/a	n/a	n/a	n/a
1683988	STOP	n/a	LTP118	ltpFR	7	n/a	n/a	n/a	n/a	n/a	n/a	n/a	n/a	n/a	n/a	n/a	n/a	n/a	n/a	n/a	n/a
1685082	WORD	wordpools/wasnorm_wordpool.txt	LTP118	ltpFR	7	6	1	VEAL	1551	n/a	n/a	0	n/a	0	0	0	0.57763671875	0.412841796875	1	upper	amplitud.ttf
1688090	START	n/a	LTP118	ltpFR	7	n/a	n/a	n/a	n/a	n/a	n/a	n/a	n/a	n/a	n/a	n/a	n/a	n/a	n/a	n/a	n/a
1689064	PROB	n/a	LTP118	ltpFR	7	n/a	n/a	n/a	n/a	n/a	n/a	n/a	15	9	2	4	n/a	n/a	n/a	n/a	n/a
1692013	PROB	n/a	LTP118	ltpFR	7	n/a	n/a	n/a	n/a	n/a	n/a	n/a	18	3	6	9	n/a	n/a	n/a	n/a	n/a
1694970	PROB	n/a	LTP118	ltpFR	7	n/a	n/a	n/a	n/a	n/a	n/a	n/a	17	3	8	6	n/a	n/a	n/a	n/a	n/a
1698560	PROB	n/a	LTP118	ltpFR	7	n/a	n/a	n/a	n/a	n/a	n/a	n/a	18	3	6	9	n/a	n/a	n/a	n/a	n/a
1701101	PROB	n/a	LTP118	ltpFR	7	n/a	n/a	n/a	n/a	n/a	n/a	n/a	16	4	8	4	n/a	n/a	n/a	n/a	n/a
1702855	STOP	n/a	LTP118	ltpFR	7	n/a	n/a	n/a	n/a	n/a	n/a	n/a	n/a	n/a	n/a	n/a	n/a	n/a	n/a	n/a	n/a
1705033	WORD	wordpools/wasnorm_wordpool.txt	LTP118	ltpFR	7	6	1	WHIP	1604	n/a	n/a	0	n/a	0	0	0	0.57763671875	0.412841796875	1	upper	amplitud.ttf
1708041	START	n/a	LTP118	ltpFR	7	n/a	n/a	n/a	n/a	n/a	n/a	n/a	n/a	n/a	n/a	n/a	n/a	n/a	n/a	n/a	n/a
1708924	PROB	n/a	LTP118	ltpFR	7	n/a	n/a	n/a	n/a	n/a	n/a	n/a	9	2	3	4	n/a	n/a	n/a	n/a	n/a
1713164	PROB	n/a	LTP118	ltpFR	7	n/a	n/a	n/a	n/a	n/a	n/a	n/a	16	6	2	8	n/a	n/a	n/a	n/a	n/a
1715255	PROB	n/a	LTP118	ltpFR	7	n/a	n/a	n/a	n/a	n/a	n/a	n/a	17	6	3	8	n/a	n/a	n/a	n/a	n/a
1717795	PROB	n/a	LTP118	ltpFR	7	n/a	n/a	n/a	n/a	n/a	n/a	n/a	16	4	3	9	n/a	n/a	n/a	n/a	n/a
1722119	PROB	n/a	LTP118	ltpFR	7	n/a	n/a	n/a	n/a	n/a	n/a	n/a	18	8	8	2	n/a	n/a	n/a	n/a	n/a
1723735	STOP	n/a	LTP118	ltpFR	7	n/a	n/a	n/a	n/a	n/a	n/a	n/a	n/a	n/a	n/a	n/a	n/a	n/a	n/a	n/a	n/a
1724876	WORD	wordpools/wasnorm_wordpool.txt	LTP118	ltpFR	7	6	1	LASH	802	n/a	n/a	0	n/a	0	0	0	0.57763671875	0.412841796875	1	upper	amplitud.ttf
1727884	START	n/a	LTP118	ltpFR	7	n/a	n/a	n/a	n/a	n/a	n/a	n/a	n/a	n/a	n/a	n/a	n/a	n/a	n/a	n/a	n/a
1728983	PROB	n/a	LTP118	ltpFR	7	n/a	n/a	n/a	n/a	n/a	n/a	n/a	18	7	9	2	n/a	n/a	n/a	n/a	n/a
1731782	PROB	n/a	LTP118	ltpFR	7	n/a	n/a	n/a	n/a	n/a	n/a	n/a	9	2	2	5	n/a	n/a	n/a	n/a	n/a
1734065	PROB	n/a	LTP118	ltpFR	7	n/a	n/a	n/a	n/a	n/a	n/a	n/a	17	2	8	7	n/a	n/a	n/a	n/a	n/a
1735555	PROB	n/a	LTP118	ltpFR	7	n/a	n/a	n/a	n/a	n/a	n/a	n/a	8	5	2	1	n/a	n/a	n/a	n/a	n/a
1737105	PROB	n/a	LTP118	ltpFR	7	n/a	n/a	n/a	n/a	n/a	n/a	n/a	20	5	6	9	n/a	n/a	n/a	n/a	n/a
1739913	PROB	n/a	LTP118	ltpFR	7	n/a	n/a	n/a	n/a	n/a	n/a	n/a	23	9	7	7	n/a	n/a	n/a	n/a	n/a
1743883	STOP	n/a	LTP118	ltpFR	7	n/a	n/a	n/a	n/a	n/a	n/a	n/a	n/a	n/a	n/a	n/a	n/a	n/a	n/a	n/a	n/a
1744986	WORD	wordpools/wasnorm_wordpool.txt	LTP118	ltpFR	7	6	1	HOUND	724	n/a	n/a	1	n/a	0	0	0	0.57763671875	0.412841796875	1	upper	amplitud.ttf
1747994	START	n/a	LTP118	ltpFR	7	n/a	n/a	n/a	n/a	n/a	n/a	n/a	n/a	n/a	n/a	n/a	n/a	n/a	n/a	n/a	n/a
1748801	PROB	n/a	LTP118	ltpFR	7	n/a	n/a	n/a	n/a	n/a	n/a	n/a	14	9	1	4	n/a	n/a	n/a	n/a	n/a
1750709	PROB	n/a	LTP118	ltpFR	7	n/a	n/a	n/a	n/a	n/a	n/a	n/a	17	7	8	2	n/a	n/a	n/a	n/a	n/a
1752900	PROB	n/a	LTP118	ltpFR	7	n/a	n/a	n/a	n/a	n/a	n/a	n/a	14	5	7	2	n/a	n/a	n/a	n/a	n/a
1755174	PROB	n/a	LTP118	ltpFR	7	n/a	n/a	n/a	n/a	n/a	n/a	n/a	23	8	7	7	n/a	n/a	n/a	n/a	n/a
1760022	PROB	n/a	LTP118	ltpFR	7	n/a	n/a	n/a	n/a	n/a	n/a	n/a	17	2	6	9	n/a	n/a	n/a	n/a	n/a
1763087	STOP	n/a	LTP118	ltpFR	7	n/a	n/a	n/a	n/a	n/a	n/a	n/a	n/a	n/a	n/a	n/a	n/a	n/a	n/a	n/a	n/a
1765104	WORD	wordpools/wasnorm_wordpool.txt	LTP118	ltpFR	7	6	1	ROOT	1210	n/a	n/a	1	n/a	0	0	0	0.57763671875	0.412841796875	1	upper	amplitud.ttf
1768111	START	n/a	LTP118	ltpFR	7	n/a	n/a	n/a	n/a	n/a	n/a	n/a	n/a	n/a	n/a	n/a	n/a	n/a	n/a	n/a	n/a
1769027	PROB	n/a	LTP118	ltpFR	7	n/a	n/a	n/a	n/a	n/a	n/a	n/a	11	2	8	1	n/a	n/a	n/a	n/a	n/a
1770368	PROB	n/a	LTP118	ltpFR	7	n/a	n/a	n/a	n/a	n/a	n/a	n/a	21	8	9	4	n/a	n/a	n/a	n/a	n/a
1773226	PROB	n/a	LTP118	ltpFR	7	n/a	n/a	n/a	n/a	n/a	n/a	n/a	13	5	7	1	n/a	n/a	n/a	n/a	n/a
1776158	PROB	n/a	LTP118	ltpFR	7	n/a	n/a	n/a	n/a	n/a	n/a	n/a	9	6	1	2	n/a	n/a	n/a	n/a	n/a
1778857	PROB	n/a	LTP118	ltpFR	7	n/a	n/a	n/a	n/a	n/a	n/a	n/a	18	4	6	8	n/a	n/a	n/a	n/a	n/a
1781048	PROB	n/a	LTP118	ltpFR	7	n/a	n/a	n/a	n/a	n/a	n/a	n/a	5	2	2	1	n/a	n/a	n/a	n/a	n/a
1784111	STOP	n/a	LTP118	ltpFR	7	n/a	n/a	n/a	n/a	n/a	n/a	n/a	n/a	n/a	n/a	n/a	n/a	n/a	n/a	n/a	n/a
1785005	WORD	wordpools/wasnorm_wordpool.txt	LTP118	ltpFR	7	6	1	PALM	1007	n/a	n/a	2	n/a	0	0	0	0.57763671875	0.412841796875	1	upper	amplitud.ttf
1787837	KEY_MSG	n/a	LTP118	ltpFR	7	6	n/a	n/a	n/a	n/a	n/a	n/a	n/a	0	0	0	n/a	n/a	n/a	n/a	n/a
1789353	START	n/a	LTP118	ltpFR	7	n/a	n/a	n/a	n/a	n/a	n/a	n/a	n/a	n/a	n/a	n/a	n/a	n/a	n/a	n/a	n/a
1790427	PROB	n/a	LTP118	ltpFR	7	n/a	n/a	n/a	n/a	n/a	n/a	n/a	16	7	3	6	n/a	n/a	n/a	n/a	n/a
1792626	PROB	n/a	LTP118	ltpFR	7	n/a	n/a	n/a	n/a	n/a	n/a	n/a	16	7	4	5	n/a	n/a	n/a	n/a	n/a
1796084	PROB	n/a	LTP118	ltpFR	7	n/a	n/a	n/a	n/a	n/a	n/a	n/a	11	8	2	1	n/a	n/a	n/a	n/a	n/a
1797433	PROB	n/a	LTP118	ltpFR	7	n/a	n/a	n/a	n/a	n/a	n/a	n/a	24	7	8	7	n/a	n/a	n/a	n/a	n/a
1805353	STOP	n/a	LTP118	ltpFR	7	n/a	n/a	n/a	n/a	n/a	n/a	n/a	n/a	n/a	n/a	n/a	n/a	n/a	n/a	n/a	n/a
1806346	WORD	wordpools/wasnorm_wordpool.txt	LTP118	ltpFR	7	6	1	CUSHION	428	n/a	n/a	0	n/a	0	0	0	0.57763671875	0.412841796875	1	upper	amplitud.ttf
1809354	START	n/a	LTP118	ltpFR	7	n/a	n/a	n/a	n/a	n/a	n/a	n/a	n/a	n/a	n/a	n/a	n/a	n/a	n/a	n/a	n/a
1810254	PROB	n/a	LTP118	ltpFR	7	n/a	n/a	n/a	n/a	n/a	n/a	n/a	15	8	6	1	n/a	n/a	n/a	n/a	n/a
1812145	PROB	n/a	LTP118	ltpFR	7	n/a	n/a	n/a	n/a	n/a	n/a	n/a	18	1	9	8	n/a	n/a	n/a	n/a	n/a
1814485	PROB	n/a	LTP118	ltpFR	7	n/a	n/a	n/a	n/a	n/a	n/a	n/a	12	2	3	7	n/a	n/a	n/a	n/a	n/a
1817777	PROB	n/a	LTP118	ltpFR	7	n/a	n/a	n/a	n/a	n/a	n/a	n/a	15	8	1	6	n/a	n/a	n/a	n/a	n/a
1825354	STOP	n/a	LTP118	ltpFR	7	n/a	n/a	n/a	n/a	n/a	n/a	n/a	n/a	n/a	n/a	n/a	n/a	n/a	n/a	n/a	n/a
1826331	WORD	wordpools/wasnorm_wordpool.txt	LTP118	ltpFR	7	6	1	BAKER	71	n/a	n/a	1	n/a	0	0	0	0.57763671875	0.412841796875	1	upper	amplitud.ttf
1829339	START	n/a	LTP118	ltpFR	7	n/a	n/a	n/a	n/a	n/a	n/a	n/a	n/a	n/a	n/a	n/a	n/a	n/a	n/a	n/a	n/a
1830256	PROB	n/a	LTP118	ltpFR	7	n/a	n/a	n/a	n/a	n/a	n/a	n/a	17	9	1	7	n/a	n/a	n/a	n/a	n/a
1832038	PROB	n/a	LTP118	ltpFR	7	n/a	n/a	n/a	n/a	n/a	n/a	n/a	14	5	8	1	n/a	n/a	n/a	n/a	n/a
1835544	PROB	n/a	LTP118	ltpFR	7	n/a	n/a	n/a	n/a	n/a	n/a	n/a	14	2	4	8	n/a	n/a	n/a	n/a	n/a
1837961	PROB	n/a	LTP118	ltpFR	7	n/a	n/a	n/a	n/a	n/a	n/a	n/a	10	1	7	2	n/a	n/a	n/a	n/a	n/a
1839877	PROB	n/a	LTP118	ltpFR	7	n/a	n/a	n/a	n/a	n/a	n/a	n/a	11	7	1	4	n/a	n/a	n/a	n/a	n/a
1845339	STOP	n/a	LTP118	ltpFR	7	n/a	n/a	n/a	n/a	n/a	n/a	n/a	n/a	n/a	n/a	n/a	n/a	n/a	n/a	n/a	n/a
1846374	WORD	wordpools/wasnorm_wordpool.txt	LTP118	ltpFR	7	6	1	LAMB	797	n/a	n/a	1	n/a	0	0	0	0.57763671875	0.412841796875	1	upper	amplitud.ttf
1849381	START	n/a	LTP118	ltpFR	7	n/a	n/a	n/a	n/a	n/a	n/a	n/a	n/a	n/a	n/a	n/a	n/a	n/a	n/a	n/a	n/a
1850356	PROB	n/a	LTP118	ltpFR	7	n/a	n/a	n/a	n/a	n/a	n/a	n/a	13	9	2	2	n/a	n/a	n/a	n/a	n/a
1852413	PROB	n/a	LTP118	ltpFR	7	n/a	n/a	n/a	n/a	n/a	n/a	n/a	19	6	9	4	n/a	n/a	n/a	n/a	n/a
1855412	PROB	n/a	LTP118	ltpFR	7	n/a	n/a	n/a	n/a	n/a	n/a	n/a	14	8	5	1	n/a	n/a	n/a	n/a	n/a
1859328	PROB	n/a	LTP118	ltpFR	7	n/a	n/a	n/a	n/a	n/a	n/a	n/a	16	7	3	6	n/a	n/a	n/a	n/a	n/a
1861136	PROB	n/a	LTP118	ltpFR	7	n/a	n/a	n/a	n/a	n/a	n/a	n/a	13	3	6	4	n/a	n/a	n/a	n/a	n/a
1865350	STOP	n/a	LTP118	ltpFR	7	n/a	n/a	n/a	n/a	n/a	n/a	n/a	n/a	n/a	n/a	n/a	n/a	n/a	n/a	n/a	n/a
1867118	REC_START	n/a	LTP118	ltpFR	7	6	n/a	n/a	n/a	n/a	n/a	n/a	n/a	0	0	0	n/a	n/a	n/a	n/a	n/a
1870435	REC_WORD	wordpools/wasnorm_wordpool.txt	LTP118	ltpFR	7	6	1	SIRLOIN	1311	n/a	n/a	0	n/a	0	0	0	n/a	n/a	n/a	n/a	n/a
1873084	REC_WORD	wordpools/wasnorm_wordpool.txt	LTP118	ltpFR	7	6	1	HOUND	724	n/a	n/a	1	n/a	0	0	0	n/a	n/a	n/a	n/a	n/a
1874366	REC_WORD	wordpools/wasnorm_wordpool.txt	LTP118	ltpFR	7	6	1	SUPERMARKET	1409	n/a	n/a	0	n/a	0	0	0	n/a	n/a	n/a	n/a	n/a
1876371	REC_WORD	wordpools/wasnorm_wordpool.txt	LTP118	ltpFR	7	6	1	FREEZER	604	n/a	n/a	0	n/a	0	0	0	n/a	n/a	n/a	n/a	n/a
1881101	REC_WORD	wordpools/wasnorm_wordpool.txt	LTP118	ltpFR	7	6	1	CUSHION	428	n/a	n/a	0	n/a	0	0	0	n/a	n/a	n/a	n/a	n/a
1883451	REC_WORD	wordpools/wasnorm_wordpool.txt	LTP118	ltpFR	7	6	1	PALM	1007	n/a	n/a	2	n/a	0	0	0	n/a	n/a	n/a	n/a	n/a
1907282	REC_WORD	wordpools/wasnorm_wordpool.txt	LTP118	ltpFR	7	6	1	CLIMBER	323	n/a	n/a	1	n/a	0	0	0	n/a	n/a	n/a	n/a	n/a
1974080	WORD	wordpools/wasnorm_wordpool.txt	LTP118	ltpFR	7	7	0	NEST	945	n/a	n/a	0	n/a	0	0	0	0.422607421875	0.5869140625	0	lower	zerothre.ttf
1978037	WORD	wordpools/wasnorm_wordpool.txt	LTP118	ltpFR	7	7	0	CATCHER	258	n/a	n/a	1	n/a	0	0	0	0.422607421875	0.5869140625	0	lower	zerothre.ttf
1981902	WORD	wordpools/wasnorm_wordpool.txt	LTP118	ltpFR	7	7	0	DRIVEWAY	500	n/a	n/a	1	n/a	0	0	0	0.422607421875	0.5869140625	0	lower	zerothre.ttf
1985942	WORD	wordpools/wasnorm_wordpool.txt	LTP118	ltpFR	7	7	0	BUS	201	n/a	n/a	1	n/a	0	0	0	0.422607421875	0.5869140625	0	lower	zerothre.ttf
1990066	WORD	wordpools/wasnorm_wordpool.txt	LTP118	ltpFR	7	7	0	RELATIVE	1182	n/a	n/a	0	n/a	0	0	0	0.422607421875	0.5869140625	0	lower	zerothre.ttf
1994206	WORD	wordpools/wasnorm_wordpool.txt	LTP118	ltpFR	7	7	0	ENGINE	535	n/a	n/a	0	n/a	0	0	0	0.422607421875	0.5869140625	0	lower	zerothre.ttf
1998154	WORD	wordpools/wasnorm_wordpool.txt	LTP118	ltpFR	7	7	0	MAYONNAISE	880	n/a	n/a	1	n/a	0	0	0	0.422607421875	0.5869140625	0	lower	zerothre.ttf
2002270	WORD	wordpools/wasnorm_wordpool.txt	LTP118	ltpFR	7	7	0	DUSTPAN	509	n/a	n/a	1	n/a	0	0	0	0.422607421875	0.5869140625	0	lower	zerothre.ttf
2006351	WORD	wordpools/wasnorm_wordpool.txt	LTP118	ltpFR	7	7	0	WITCH	1617	n/a	n/a	1	n/a	0	0	0	0.422607421875	0.5869140625	0	lower	zerothre.ttf
2010399	WORD	wordpools/wasnorm_wordpool.txt	LTP118	ltpFR	7	7	0	CORPORATION	382	n/a	n/a	0	n/a	0	0	0	0.422607421875	0.5869140625	0	lower	zerothre.ttf
2014373	WORD	wordpools/wasnorm_wordpool.txt	LTP118	ltpFR	7	7	0	MONGOOSE	909	n/a	n/a	1	n/a	0	0	0	0.422607421875	0.5869140625	0	lower	zerothre.ttf
2018446	WORD	wordpools/wasnorm_wordpool.txt	LTP118	ltpFR	7	7	0	COTTAGE	384	n/a	n/a	1	n/a	0	0	0	0.422607421875	0.5869140625	0	lower	zerothre.ttf
2022561	WORD	wordpools/wasnorm_wordpool.txt	LTP118	ltpFR	7	7	0	HEN	703	n/a	n/a	n/a	n/a	0	0	0	0.422607421875	0.5869140625	0	lower	zerothre.ttf
2025585	SLOW_MSG	n/a	LTP118	ltpFR	7	7	n/a	n/a	n/a	n/a	n/a	n/a	n/a	0	0	0	n/a	n/a	n/a	n/a	n/a
2028002	WORD	wordpools/wasnorm_wordpool.txt	LTP118	ltpFR	7	7	0	BOUILLON	154	n/a	n/a	0	n/a	0	0	0	0.422607421875	0.5869140625	0	lower	zerothre.ttf
2032167	WORD	wordpools/wasnorm_wordpool.txt	LTP118	ltpFR	7	7	0	KETCHUP	771	n/a	n/a	0	n/a	0	0	0	0.422607421875	0.5869140625	0	lower	zerothre.ttf
2036291	WORD	wordpools/wasnorm_wordpool.txt	LTP118	ltpFR	7	7	0	FACTORY	548	n/a	n/a	1	n/a	0	0	0	0.422607421875	0.5869140625	0	lower	zerothre.ttf
2042123	REC_START	n/a	LTP118	ltpFR	7	7	n/a	n/a	n/a	n/a	n/a	n/a	n/a	0	0	0	n/a	n/a	n/a	n/a	n/a
2043913	REC_WORD	wordpools/wasnorm_wordpool.txt	LTP118	ltpFR	7	7	0	FACTORY	548	n/a	n/a	1	n/a	0	0	0	n/a	n/a	n/a	n/a	n/a
2045740	REC_WORD	wordpools/wasnorm_wordpool.txt	LTP118	ltpFR	7	7	0	BOUILLON	154	n/a	n/a	0	n/a	0	0	0	n/a	n/a	n/a	n/a	n/a
2047880	REC_WORD	wordpools/wasnorm_wordpool.txt	LTP118	ltpFR	7	7	0	NEST	945	n/a	n/a	0	n/a	0	0	0	n/a	n/a	n/a	n/a	n/a
2070857	REC_WORD	wordpools/wasnorm_wordpool.txt	LTP118	ltpFR	7	7	0	MAYONNAISE	880	n/a	n/a	1	n/a	0	0	0	n/a	n/a	n/a	n/a	n/a
2089944	REC_WORD	wordpools/wasnorm_wordpool.txt	LTP118	ltpFR	7	7	0	BUS	201	n/a	n/a	1	n/a	0	0	0	n/a	n/a	n/a	n/a	n/a
2209280	START	n/a	LTP118	ltpFR	7	n/a	n/a	n/a	n/a	n/a	n/a	n/a	n/a	n/a	n/a	n/a	n/a	n/a	n/a	n/a	n/a
2210787	PROB	n/a	LTP118	ltpFR	7	n/a	n/a	n/a	n/a	n/a	n/a	n/a	14	4	6	4	n/a	n/a	n/a	n/a	n/a
2212511	PROB	n/a	LTP118	ltpFR	7	n/a	n/a	n/a	n/a	n/a	n/a	n/a	19	9	7	3	n/a	n/a	n/a	n/a	n/a
2214753	PROB	n/a	LTP118	ltpFR	7	n/a	n/a	n/a	n/a	n/a	n/a	n/a	18	3	5	9	n/a	n/a	n/a	n/a	n/a
2217175	STOP	n/a	LTP118	ltpFR	7	n/a	n/a	n/a	n/a	n/a	n/a	n/a	n/a	n/a	n/a	n/a	n/a	n/a	n/a	n/a	n/a
2218260	WORD	wordpools/wasnorm_wordpool.txt	LTP118	ltpFR	7	8	1	KNEE	784	n/a	n/a	0	n/a	0	0	0	0.57763671875	0.412841796875	1	upper	amplitud.ttf
2221267	START	n/a	LTP118	ltpFR	7	n/a	n/a	n/a	n/a	n/a	n/a	n/a	n/a	n/a	n/a	n/a	n/a	n/a	n/a	n/a	n/a
2222449	PROB	n/a	LTP118	ltpFR	7	n/a	n/a	n/a	n/a	n/a	n/a	n/a	14	1	5	8	n/a	n/a	n/a	n/a	n/a
2225581	PROB	n/a	LTP118	ltpFR	7	n/a	n/a	n/a	n/a	n/a	n/a	n/a	13	3	8	2	n/a	n/a	n/a	n/a	n/a
2228759	STOP	n/a	LTP118	ltpFR	7	n/a	n/a	n/a	n/a	n/a	n/a	n/a	n/a	n/a	n/a	n/a	n/a	n/a	n/a	n/a	n/a
2230289	WORD	wordpools/wasnorm_wordpool.txt	LTP118	ltpFR	7	8	1	VEIN	1554	n/a	n/a	0	n/a	0	0	0	0.57763671875	0.412841796875	1	upper	amplitud.ttf
2233295	START	n/a	LTP118	ltpFR	7	n/a	n/a	n/a	n/a	n/a	n/a	n/a	n/a	n/a	n/a	n/a	n/a	n/a	n/a	n/a	n/a
2234196	PROB	n/a	LTP118	ltpFR	7	n/a	n/a	n/a	n/a	n/a	n/a	n/a	10	5	3	2	n/a	n/a	n/a	n/a	n/a
2236427	PROB	n/a	LTP118	ltpFR	7	n/a	n/a	n/a	n/a	n/a	n/a	n/a	6	1	3	2	n/a	n/a	n/a	n/a	n/a
2238244	PROB	n/a	LTP118	ltpFR	7	n/a	n/a	n/a	n/a	n/a	n/a	n/a	15	8	1	6	n/a	n/a	n/a	n/a	n/a
2239839	STOP	n/a	LTP118	ltpFR	7	n/a	n/a	n/a	n/a	n/a	n/a	n/a	n/a	n/a	n/a	n/a	n/a	n/a	n/a	n/a	n/a
2242259	WORD	wordpools/wasnorm_wordpool.txt	LTP118	ltpFR	7	8	1	YARN	1631	n/a	n/a	0	n/a	0	0	0	0.57763671875	0.412841796875	1	upper	amplitud.ttf
2245267	START	n/a	LTP118	ltpFR	7	n/a	n/a	n/a	n/a	n/a	n/a	n/a	n/a	n/a	n/a	n/a	n/a	n/a	n/a	n/a	n/a
2246125	PROB	n/a	LTP118	ltpFR	7	n/a	n/a	n/a	n/a	n/a	n/a	n/a	15	5	9	1	n/a	n/a	n/a	n/a	n/a
2248940	PROB	n/a	LTP118	ltpFR	7	n/a	n/a	n/a	n/a	n/a	n/a	n/a	18	7	4	7	n/a	n/a	n/a	n/a	n/a
2251983	STOP	n/a	LTP118	ltpFR	7	n/a	n/a	n/a	n/a	n/a	n/a	n/a	n/a	n/a	n/a	n/a	n/a	n/a	n/a	n/a	n/a
2254296	WORD	wordpools/wasnorm_wordpool.txt	LTP118	ltpFR	7	8	1	RACCOON	1153	n/a	n/a	1	n/a	0	0	0	0.57763671875	0.412841796875	1	upper	amplitud.ttf
2257304	START	n/a	LTP118	ltpFR	7	n/a	n/a	n/a	n/a	n/a	n/a	n/a	n/a	n/a	n/a	n/a	n/a	n/a	n/a	n/a	n/a
2258419	PROB	n/a	LTP118	ltpFR	7	n/a	n/a	n/a	n/a	n/a	n/a	n/a	17	6	7	4	n/a	n/a	n/a	n/a	n/a
2260369	PROB	n/a	LTP118	ltpFR	7	n/a	n/a	n/a	n/a	n/a	n/a	n/a	14	5	3	6	n/a	n/a	n/a	n/a	n/a
2262551	PROB	n/a	LTP118	ltpFR	7	n/a	n/a	n/a	n/a	n/a	n/a	n/a	21	9	4	8	n/a	n/a	n/a	n/a	n/a
2265015	STOP	n/a	LTP118	ltpFR	7	n/a	n/a	n/a	n/a	n/a	n/a	n/a	n/a	n/a	n/a	n/a	n/a	n/a	n/a	n/a	n/a
2266276	WORD	wordpools/wasnorm_wordpool.txt	LTP118	ltpFR	7	8	1	PAW	1029	n/a	n/a	0	n/a	0	0	0	0.57763671875	0.412841796875	1	upper	amplitud.ttf
2269284	START	n/a	LTP118	ltpFR	7	n/a	n/a	n/a	n/a	n/a	n/a	n/a	n/a	n/a	n/a	n/a	n/a	n/a	n/a	n/a	n/a
2270133	PROB	n/a	LTP118	ltpFR	7	n/a	n/a	n/a	n/a	n/a	n/a	n/a	11	4	4	3	n/a	n/a	n/a	n/a	n/a
2272456	PROB	n/a	LTP118	ltpFR	7	n/a	n/a	n/a	n/a	n/a	n/a	n/a	3	9	5	9	n/a	n/a	n/a	n/a	n/a
2277284	STOP	n/a	LTP118	ltpFR	7	n/a	n/a	n/a	n/a	n/a	n/a	n/a	n/a	n/a	n/a	n/a	n/a	n/a	n/a	n/a	n/a
2278105	WORD	wordpools/wasnorm_wordpool.txt	LTP118	ltpFR	7	8	1	LOUNGE	845	n/a	n/a	0	n/a	0	0	0	0.57763671875	0.412841796875	1	upper	amplitud.ttf
2281113	START	n/a	LTP118	ltpFR	7	n/a	n/a	n/a	n/a	n/a	n/a	n/a	n/a	n/a	n/a	n/a	n/a	n/a	n/a	n/a	n/a
2281987	PROB	n/a	LTP118	ltpFR	7	n/a	n/a	n/a	n/a	n/a	n/a	n/a	15	1	9	5	n/a	n/a	n/a	n/a	n/a
2284803	PROB	n/a	LTP118	ltpFR	7	n/a	n/a	n/a	n/a	n/a	n/a	n/a	11	9	9	2	n/a	n/a	n/a	n/a	n/a
2287767	STOP	n/a	LTP118	ltpFR	7	n/a	n/a	n/a	n/a	n/a	n/a	n/a	n/a	n/a	n/a	n/a	n/a	n/a	n/a	n/a	n/a
2290109	WORD	wordpools/wasnorm_wordpool.txt	LTP118	ltpFR	7	8	1	GROOM	665	n/a	n/a	1	n/a	0	0	0	0.57763671875	0.412841796875	1	upper	amplitud.ttf
2293117	START	n/a	LTP118	ltpFR	7	n/a	n/a	n/a	n/a	n/a	n/a	n/a	n/a	n/a	n/a	n/a	n/a	n/a	n/a	n/a	n/a
2294183	PROB	n/a	LTP118	ltpFR	7	n/a	n/a	n/a	n/a	n/a	n/a	n/a	12	3	8	1	n/a	n/a	n/a	n/a	n/a
2296249	PROB	n/a	LTP118	ltpFR	7	n/a	n/a	n/a	n/a	n/a	n/a	n/a	17	9	3	6	n/a	n/a	n/a	n/a	n/a
2301117	STOP	n/a	LTP118	ltpFR	7	n/a	n/a	n/a	n/a	n/a	n/a	n/a	n/a	n/a	n/a	n/a	n/a	n/a	n/a	n/a	n/a
2302013	WORD	wordpools/wasnorm_wordpool.txt	LTP118	ltpFR	7	8	1	CARD	243	n/a	n/a	0	n/a	0	0	0	0.57763671875	0.412841796875	1	upper	amplitud.ttf
2305021	START	n/a	LTP118	ltpFR	7	n/a	n/a	n/a	n/a	n/a	n/a	n/a	n/a	n/a	n/a	n/a	n/a	n/a	n/a	n/a	n/a
2305895	PROB	n/a	LTP118	ltpFR	7	n/a	n/a	n/a	n/a	n/a	n/a	n/a	20	4	8	8	n/a	n/a	n/a	n/a	n/a
2308819	PROB	n/a	LTP118	ltpFR	7	n/a	n/a	n/a	n/a	n/a	n/a	n/a	14	8	2	4	n/a	n/a	n/a	n/a	n/a
2311292	PROB	n/a	LTP118	ltpFR	7	n/a	n/a	n/a	n/a	n/a	n/a	n/a	15	4	8	3	n/a	n/a	n/a	n/a	n/a
2312887	STOP	n/a	LTP118	ltpFR	7	n/a	n/a	n/a	n/a	n/a	n/a	n/a	n/a	n/a	n/a	n/a	n/a	n/a	n/a	n/a	n/a
2313892	WORD	wordpools/wasnorm_wordpool.txt	LTP118	ltpFR	7	8	1	CONTAINER	366	n/a	n/a	0	n/a	0	0	0	0.57763671875	0.412841796875	1	upper	amplitud.ttf
2316900	START	n/a	LTP118	ltpFR	7	n/a	n/a	n/a	n/a	n/a	n/a	n/a	n/a	n/a	n/a	n/a	n/a	n/a	n/a	n/a	n/a
2317991	PROB	n/a	LTP118	ltpFR	7	n/a	n/a	n/a	n/a	n/a	n/a	n/a	25	7	7	8	n/a	n/a	n/a	n/a	n/a
2324900	STOP	n/a	LTP118	ltpFR	7	n/a	n/a	n/a	n/a	n/a	n/a	n/a	n/a	n/a	n/a	n/a	n/a	n/a	n/a	n/a	n/a
2326071	WORD	wordpools/wasnorm_wordpool.txt	LTP118	ltpFR	7	8	1	CAFE	216	n/a	n/a	0	n/a	0	0	0	0.57763671875	0.412841796875	1	upper	amplitud.ttf
2329079	START	n/a	LTP118	ltpFR	7	n/a	n/a	n/a	n/a	n/a	n/a	n/a	n/a	n/a	n/a	n/a	n/a	n/a	n/a	n/a	n/a
2330053	PROB	n/a	LTP118	ltpFR	7	n/a	n/a	n/a	n/a	n/a	n/a	n/a	18	9	5	4	n/a	n/a	n/a	n/a	n/a
2333069	PROB	n/a	LTP118	ltpFR	7	n/a	n/a	n/a	n/a	n/a	n/a	n/a	13	8	2	3	n/a	n/a	n/a	n/a	n/a
2334317	PROB	n/a	LTP118	ltpFR	7	n/a	n/a	n/a	n/a	n/a	n/a	n/a	8	4	1	3	n/a	n/a	n/a	n/a	n/a
2336975	STOP	n/a	LTP118	ltpFR	7	n/a	n/a	n/a	n/a	n/a	n/a	n/a	n/a	n/a	n/a	n/a	n/a	n/a	n/a	n/a	n/a
2338184	WORD	wordpools/wasnorm_wordpool.txt	LTP118	ltpFR	7	8	1	WINE	1613	n/a	n/a	0	n/a	0	0	0	0.57763671875	0.412841796875	1	upper	amplitud.ttf
2341191	START	n/a	LTP118	ltpFR	7	n/a	n/a	n/a	n/a	n/a	n/a	n/a	n/a	n/a	n/a	n/a	n/a	n/a	n/a	n/a	n/a
2342216	PROB	n/a	LTP118	ltpFR	7	n/a	n/a	n/a	n/a	n/a	n/a	n/a	13	1	2	9	n/a	n/a	n/a	n/a	n/a
2344456	PROB	n/a	LTP118	ltpFR	7	n/a	n/a	n/a	n/a	n/a	n/a	n/a	11	1	2	8	n/a	n/a	n/a	n/a	n/a
2349191	STOP	n/a	LTP118	ltpFR	7	n/a	n/a	n/a	n/a	n/a	n/a	n/a	n/a	n/a	n/a	n/a	n/a	n/a	n/a	n/a	n/a
2350395	WORD	wordpools/wasnorm_wordpool.txt	LTP118	ltpFR	7	8	1	EWE	542	n/a	n/a	1	n/a	0	0	0	0.57763671875	0.412841796875	1	upper	amplitud.ttf
2353403	START	n/a	LTP118	ltpFR	7	n/a	n/a	n/a	n/a	n/a	n/a	n/a	n/a	n/a	n/a	n/a	n/a	n/a	n/a	n/a	n/a
2354519	PROB	n/a	LTP118	ltpFR	7	n/a	n/a	n/a	n/a	n/a	n/a	n/a	19	8	7	4	n/a	n/a	n/a	n/a	n/a
2361403	STOP	n/a	LTP118	ltpFR	7	n/a	n/a	n/a	n/a	n/a	n/a	n/a	n/a	n/a	n/a	n/a	n/a	n/a	n/a	n/a	n/a
2362457	WORD	wordpools/wasnorm_wordpool.txt	LTP118	ltpFR	7	8	1	LOBSTER	837	n/a	n/a	1	n/a	0	0	0	0.57763671875	0.412841796875	1	upper	amplitud.ttf
2365465	START	n/a	LTP118	ltpFR	7	n/a	n/a	n/a	n/a	n/a	n/a	n/a	n/a	n/a	n/a	n/a	n/a	n/a	n/a	n/a	n/a
2366598	PROB	n/a	LTP118	ltpFR	7	n/a	n/a	n/a	n/a	n/a	n/a	n/a	12	5	2	5	n/a	n/a	n/a	n/a	n/a
2368614	PROB	n/a	LTP118	ltpFR	7	n/a	n/a	n/a	n/a	n/a	n/a	n/a	23	9	9	7	n/a	n/a	n/a	n/a	n/a
2372470	STOP	n/a	LTP118	ltpFR	7	n/a	n/a	n/a	n/a	n/a	n/a	n/a	n/a	n/a	n/a	n/a	n/a	n/a	n/a	n/a	n/a
2374487	WORD	wordpools/wasnorm_wordpool.txt	LTP118	ltpFR	7	8	1	SARDINE	1235	n/a	n/a	0	n/a	0	0	0	0.57763671875	0.412841796875	1	upper	amplitud.ttf
2377494	START	n/a	LTP118	ltpFR	7	n/a	n/a	n/a	n/a	n/a	n/a	n/a	n/a	n/a	n/a	n/a	n/a	n/a	n/a	n/a	n/a
2378577	PROB	n/a	LTP118	ltpFR	7	n/a	n/a	n/a	n/a	n/a	n/a	n/a	10	5	4	1	n/a	n/a	n/a	n/a	n/a
2380568	PROB	n/a	LTP118	ltpFR	7	n/a	n/a	n/a	n/a	n/a	n/a	n/a	18	3	8	7	n/a	n/a	n/a	n/a	n/a
2385493	STOP	n/a	LTP118	ltpFR	7	n/a	n/a	n/a	n/a	n/a	n/a	n/a	n/a	n/a	n/a	n/a	n/a	n/a	n/a	n/a	n/a
2386524	WORD	wordpools/wasnorm_wordpool.txt	LTP118	ltpFR	7	8	1	ARTERY	41	n/a	n/a	1	n/a	0	0	0	0.57763671875	0.412841796875	1	upper	amplitud.ttf
2389532	START	n/a	LTP118	ltpFR	7	n/a	n/a	n/a	n/a	n/a	n/a	n/a	n/a	n/a	n/a	n/a	n/a	n/a	n/a	n/a	n/a
2390497	PROB	n/a	LTP118	ltpFR	7	n/a	n/a	n/a	n/a	n/a	n/a	n/a	13	7	4	2	n/a	n/a	n/a	n/a	n/a
2392206	PROB	n/a	LTP118	ltpFR	7	n/a	n/a	n/a	n/a	n/a	n/a	n/a	6	3	1	5	n/a	n/a	n/a	n/a	n/a
2397532	STOP	n/a	LTP118	ltpFR	7	n/a	n/a	n/a	n/a	n/a	n/a	n/a	n/a	n/a	n/a	n/a	n/a	n/a	n/a	n/a	n/a
2398620	WORD	wordpools/wasnorm_wordpool.txt	LTP118	ltpFR	7	8	1	CREVICE	405	n/a	n/a	0	n/a	0	0	0	0.57763671875	0.412841796875	1	upper	amplitud.ttf
2401627	START	n/a	LTP118	ltpFR	7	n/a	n/a	n/a	n/a	n/a	n/a	n/a	n/a	n/a	n/a	n/a	n/a	n/a	n/a	n/a	n/a
2402651	PROB	n/a	LTP118	ltpFR	7	n/a	n/a	n/a	n/a	n/a	n/a	n/a	8	3	1	4	n/a	n/a	n/a	n/a	n/a
2404334	PROB	n/a	LTP118	ltpFR	7	n/a	n/a	n/a	n/a	n/a	n/a	n/a	16	7	4	5	n/a	n/a	n/a	n/a	n/a
2409627	STOP	n/a	LTP118	ltpFR	7	n/a	n/a	n/a	n/a	n/a	n/a	n/a	n/a	n/a	n/a	n/a	n/a	n/a	n/a	n/a	n/a
2411499	REC_START	n/a	LTP118	ltpFR	7	8	n/a	n/a	n/a	n/a	n/a	n/a	n/a	0	0	0	n/a	n/a	n/a	n/a	n/a
2412960	REC_WORD	wordpools/wasnorm_wordpool.txt	LTP118	ltpFR	7	8	1	SARDINE	1235	n/a	n/a	0	n/a	0	0	0	n/a	n/a	n/a	n/a	n/a
2425856	REC_WORD	wordpools/wasnorm_wordpool.txt	LTP118	ltpFR	7	8	1	ARTERY	41	n/a	n/a	1	n/a	0	0	0	n/a	n/a	n/a	n/a	n/a
2428620	REC_WORD	wordpools/wasnorm_wordpool.txt	LTP118	ltpFR	7	8	1	VEIN	1554	n/a	n/a	0	n/a	0	0	0	n/a	n/a	n/a	n/a	n/a
2468055	REC_WORD	wordpools/wasnorm_wordpool.txt	LTP118	ltpFR	7	8	1	CAFE	216	n/a	n/a	0	n/a	0	0	0	n/a	n/a	n/a	n/a	n/a
2472171	REC_WORD	wordpools/wasnorm_wordpool.txt	LTP118	ltpFR	7	8	1	CARD	243	n/a	n/a	0	n/a	0	0	0	n/a	n/a	n/a	n/a	n/a
2480312	REC_WORD	wordpools/wasnorm_wordpool.txt	LTP118	ltpFR	7	8	1	WINE	1613	n/a	n/a	0	n/a	0	0	0	n/a	n/a	n/a	n/a	n/a
2482168	REC_WORD	wordpools/wasnorm_wordpool.txt	LTP118	ltpFR	7	8	1	BEER	114	n/a	n/a	0	n/a	0	0	0	n/a	n/a	n/a	n/a	n/a
2549109	WORD	wordpools/wasnorm_wordpool.txt	LTP118	ltpFR	7	9	0	PUBLISHER	1137	n/a	n/a	1	n/a	0	0	0	0.422607421875	0.5869140625	0	lower	zerothre.ttf
2553049	WORD	wordpools/wasnorm_wordpool.txt	LTP118	ltpFR	7	9	0	MAILMAN	858	n/a	n/a	1	n/a	0	0	0	0.422607421875	0.5869140625	0	lower	zerothre.ttf
2557114	WORD	wordpools/wasnorm_wordpool.txt	LTP118	ltpFR	7	9	0	GUITAR	670	n/a	n/a	1	n/a	0	0	0	0.422607421875	0.5869140625	0	lower	zerothre.ttf
2561121	WORD	wordpools/wasnorm_wordpool.txt	LTP118	ltpFR	7	9	0	EMERALD	528	n/a	n/a	1	n/a	0	0	0	0.422607421875	0.5869140625	0	lower	zerothre.ttf
2565061	WORD	wordpools/wasnorm_wordpool.txt	LTP118	ltpFR	7	9	0	ROBBER	1197	n/a	n/a	1	n/a	0	0	0	0.422607421875	0.5869140625	0	lower	zerothre.ttf
2569118	WORD	wordpools/wasnorm_wordpool.txt	LTP118	ltpFR	7	9	0	DINNER	468	n/a	n/a	1	n/a	0	0	0	0.422607421875	0.5869140625	0	lower	zerothre.ttf
2572934	WORD	wordpools/wasnorm_wordpool.txt	LTP118	ltpFR	7	9	0	SALAD	1224	n/a	n/a	0	n/a	0	0	0	0.422607421875	0.5869140625	0	lower	zerothre.ttf
2576924	WORD	wordpools/wasnorm_wordpool.txt	LTP118	ltpFR	7	9	0	BARK	87	n/a	n/a	0	n/a	0	0	0	0.422607421875	0.5869140625	0	lower	zerothre.ttf
2580856	WORD	wordpools/wasnorm_wordpool.txt	LTP118	ltpFR	7	9	0	WOLF	1619	n/a	n/a	1	n/a	0	0	0	0.422607421875	0.5869140625	0	lower	zerothre.ttf
2584913	WORD	wordpools/wasnorm_wordpool.txt	LTP118	ltpFR	7	9	0	FOLDER	588	n/a	n/a	0	n/a	0	0	0	0.422607421875	0.5869140625	0	lower	zerothre.ttf
2588845	WORD	wordpools/wasnorm_wordpool.txt	LTP118	ltpFR	7	9	0	LITERATURE	831	n/a	n/a	0	n/a	0	0	0	0.422607421875	0.5869140625	0	lower	zerothre.ttf
2592684	WORD	wordpools/wasnorm_wordpool.txt	LTP118	ltpFR	7	9	0	SAPPHIRE	1234	n/a	n/a	n/a	n/a	0	0	0	0.422607421875	0.5869140625	0	lower	zerothre.ttf
2595709	SLOW_MSG	n/a	LTP118	ltpFR	7	9	n/a	n/a	n/a	n/a	n/a	n/a	n/a	0	0	0	n/a	n/a	n/a	n/a	n/a
2598166	WORD	wordpools/wasnorm_wordpool.txt	LTP118	ltpFR	7	9	0	SAUSAGE	1238	n/a	n/a	1	n/a	0	0	0	0.422607421875	0.5869140625	0	lower	zerothre.ttf
2602339	WORD	wordpools/wasnorm_wordpool.txt	LTP118	ltpFR	7	9	0	MUMMY	932	n/a	n/a	1	n/a	0	0	0	0.422607421875	0.5869140625	0	lower	zerothre.ttf
2606304	WORD	wordpools/wasnorm_wordpool.txt	LTP118	ltpFR	7	9	0	TRIANGLE	1504	n/a	n/a	0	n/a	0	0	0	0.422607421875	0.5869140625	0	lower	zerothre.ttf
2610262	WORD	wordpools/wasnorm_wordpool.txt	LTP118	ltpFR	7	9	0	BACON	67	n/a	n/a	0	n/a	0	0	0	0.422607421875	0.5869140625	0	lower	zerothre.ttf
2613270	START	n/a	LTP118	ltpFR	7	n/a	n/a	n/a	n/a	n/a	n/a	n/a	n/a	n/a	n/a	n/a	n/a	n/a	n/a	n/a	n/a
2614418	PROB	n/a	LTP118	ltpFR	7	n/a	n/a	n/a	n/a	n/a	n/a	n/a	10	1	1	8	n/a	n/a	n/a	n/a	n/a
2616285	PROB	n/a	LTP118	ltpFR	7	n/a	n/a	n/a	n/a	n/a	n/a	n/a	16	2	6	9	n/a	n/a	n/a	n/a	n/a
2618909	PROB	n/a	LTP118	ltpFR	7	n/a	n/a	n/a	n/a	n/a	n/a	n/a	19	7	5	7	n/a	n/a	n/a	n/a	n/a
2622041	PROB	n/a	LTP118	ltpFR	7	n/a	n/a	n/a	n/a	n/a	n/a	n/a	21	9	6	6	n/a	n/a	n/a	n/a	n/a
2626322	PROB	n/a	LTP118	ltpFR	7	n/a	n/a	n/a	n/a	n/a	n/a	n/a	16	5	3	8	n/a	n/a	n/a	n/a	n/a
2628167	STOP	n/a	LTP118	ltpFR	7	n/a	n/a	n/a	n/a	n/a	n/a	n/a	n/a	n/a	n/a	n/a	n/a	n/a	n/a	n/a	n/a
2631122	REC_START	n/a	LTP118	ltpFR	7	9	n/a	n/a	n/a	n/a	n/a	n/a	n/a	0	0	0	n/a	n/a	n/a	n/a	n/a
2633591	REC_WORD	wordpools/wasnorm_wordpool.txt	LTP118	ltpFR	7	9	0	PUBLISHER	1137	n/a	n/a	1	n/a	0	0	0	n/a	n/a	n/a	n/a	n/a
2638355	REC_WORD	wordpools/wasnorm_wordpool.txt	LTP118	ltpFR	7	9	0	SAUSAGE	1238	n/a	n/a	1	n/a	0	0	0	n/a	n/a	n/a	n/a	n/a
2639872	REC_WORD	wordpools/wasnorm_wordpool.txt	LTP118	ltpFR	7	9	0	MAILMAN	858	n/a	n/a	1	n/a	0	0	0	n/a	n/a	n/a	n/a	n/a
2733777	START	n/a	LTP118	ltpFR	7	n/a	n/a	n/a	n/a	n/a	n/a	n/a	n/a	n/a	n/a	n/a	n/a	n/a	n/a	n/a	n/a
2735284	PROB	n/a	LTP118	ltpFR	7	n/a	n/a	n/a	n/a	n/a	n/a	n/a	17	3	5	9	n/a	n/a	n/a	n/a	n/a
2739883	PROB	n/a	LTP118	ltpFR	7	n/a	n/a	n/a	n/a	n/a	n/a	n/a	15	5	4	6	n/a	n/a	n/a	n/a	n/a
2742082	PROB	n/a	LTP118	ltpFR	7	n/a	n/a	n/a	n/a	n/a	n/a	n/a	19	5	6	8	n/a	n/a	n/a	n/a	n/a
2745181	PROB	n/a	LTP118	ltpFR	7	n/a	n/a	n/a	n/a	n/a	n/a	n/a	19	6	6	7	n/a	n/a	n/a	n/a	n/a
2749777	STOP	n/a	LTP118	ltpFR	7	n/a	n/a	n/a	n/a	n/a	n/a	n/a	n/a	n/a	n/a	n/a	n/a	n/a	n/a	n/a	n/a
2750603	WORD	wordpools/wasnorm_wordpool.txt	LTP118	ltpFR	7	10	0	SUPERVISOR	1410	n/a	n/a	1	n/a	0	0	0	0.422607421875	0.5869140625	0	lower	zerothre.ttf
2753611	START	n/a	LTP118	ltpFR	7	n/a	n/a	n/a	n/a	n/a	n/a	n/a	n/a	n/a	n/a	n/a	n/a	n/a	n/a	n/a	n/a
2754761	PROB	n/a	LTP118	ltpFR	7	n/a	n/a	n/a	n/a	n/a	n/a	n/a	15	2	6	7	n/a	n/a	n/a	n/a	n/a
2758093	PROB	n/a	LTP118	ltpFR	7	n/a	n/a	n/a	n/a	n/a	n/a	n/a	14	1	9	4	n/a	n/a	n/a	n/a	n/a
2759959	PROB	n/a	LTP118	ltpFR	7	n/a	n/a	n/a	n/a	n/a	n/a	n/a	8	2	3	3	n/a	n/a	n/a	n/a	n/a
2761975	PROB	n/a	LTP118	ltpFR	7	n/a	n/a	n/a	n/a	n/a	n/a	n/a	15	8	9	9	n/a	n/a	n/a	n/a	n/a
2768398	STOP	n/a	LTP118	ltpFR	7	n/a	n/a	n/a	n/a	n/a	n/a	n/a	n/a	n/a	n/a	n/a	n/a	n/a	n/a	n/a	n/a
2770421	WORD	wordpools/wasnorm_wordpool.txt	LTP118	ltpFR	7	10	0	APPLICATION	34	n/a	n/a	0	n/a	0	0	0	0.422607421875	0.5869140625	0	lower	zerothre.ttf
2773429	START	n/a	LTP118	ltpFR	7	n/a	n/a	n/a	n/a	n/a	n/a	n/a	n/a	n/a	n/a	n/a	n/a	n/a	n/a	n/a	n/a
2774570	PROB	n/a	LTP118	ltpFR	7	n/a	n/a	n/a	n/a	n/a	n/a	n/a	11	3	7	1	n/a	n/a	n/a	n/a	n/a
2776237	PROB	n/a	LTP118	ltpFR	7	n/a	n/a	n/a	n/a	n/a	n/a	n/a	17	5	7	5	n/a	n/a	n/a	n/a	n/a
2778493	PROB	n/a	LTP118	ltpFR	7	n/a	n/a	n/a	n/a	n/a	n/a	n/a	14	2	4	8	n/a	n/a	n/a	n/a	n/a
2780885	PROB	n/a	LTP118	ltpFR	7	n/a	n/a	n/a	n/a	n/a	n/a	n/a	19	4	5	8	n/a	n/a	n/a	n/a	n/a
2783751	PROB	n/a	LTP118	ltpFR	7	n/a	n/a	n/a	n/a	n/a	n/a	n/a	17	2	3	9	n/a	n/a	n/a	n/a	n/a
2788855	STOP	n/a	LTP118	ltpFR	7	n/a	n/a	n/a	n/a	n/a	n/a	n/a	n/a	n/a	n/a	n/a	n/a	n/a	n/a	n/a	n/a
2790622	WORD	wordpools/wasnorm_wordpool.txt	LTP118	ltpFR	7	10	0	GULL	671	n/a	n/a	1	n/a	0	0	0	0.422607421875	0.5869140625	0	lower	zerothre.ttf
2793630	START	n/a	LTP118	ltpFR	7	n/a	n/a	n/a	n/a	n/a	n/a	n/a	n/a	n/a	n/a	n/a	n/a	n/a	n/a	n/a	n/a
2794697	PROB	n/a	LTP118	ltpFR	7	n/a	n/a	n/a	n/a	n/a	n/a	n/a	13	6	2	5	n/a	n/a	n/a	n/a	n/a
2798021	PROB	n/a	LTP118	ltpFR	7	n/a	n/a	n/a	n/a	n/a	n/a	n/a	11	6	4	1	n/a	n/a	n/a	n/a	n/a
2799486	PROB	n/a	LTP118	ltpFR	7	n/a	n/a	n/a	n/a	n/a	n/a	n/a	15	4	7	8	n/a	n/a	n/a	n/a	n/a
2809630	STOP	n/a	LTP118	ltpFR	7	n/a	n/a	n/a	n/a	n/a	n/a	n/a	n/a	n/a	n/a	n/a	n/a	n/a	n/a	n/a	n/a
2810648	WORD	wordpools/wasnorm_wordpool.txt	LTP118	ltpFR	7	10	0	BIRD	129	n/a	n/a	0	n/a	0	0	0	0.422607421875	0.5869140625	0	lower	zerothre.ttf
2813656	START	n/a	LTP118	ltpFR	7	n/a	n/a	n/a	n/a	n/a	n/a	n/a	n/a	n/a	n/a	n/a	n/a	n/a	n/a	n/a	n/a
2814848	PROB	n/a	LTP118	ltpFR	7	n/a	n/a	n/a	n/a	n/a	n/a	n/a	14	9	3	6	n/a	n/a	n/a	n/a	n/a
2817747	PROB	n/a	LTP118	ltpFR	7	n/a	n/a	n/a	n/a	n/a	n/a	n/a	17	4	9	4	n/a	n/a	n/a	n/a	n/a
2820528	PROB	n/a	LTP118	ltpFR	7	n/a	n/a	n/a	n/a	n/a	n/a	n/a	12	4	5	3	n/a	n/a	n/a	n/a	n/a
2822436	PROB	n/a	LTP118	ltpFR	7	n/a	n/a	n/a	n/a	n/a	n/a	n/a	21	7	8	6	n/a	n/a	n/a	n/a	n/a
2824911	PROB	n/a	LTP118	ltpFR	7	n/a	n/a	n/a	n/a	n/a	n/a	n/a	17	8	7	2	n/a	n/a	n/a	n/a	n/a
2829656	STOP	n/a	LTP118	ltpFR	7	n/a	n/a	n/a	n/a	n/a	n/a	n/a	n/a	n/a	n/a	n/a	n/a	n/a	n/a	n/a	n/a
2830851	WORD	wordpools/wasnorm_wordpool.txt	LTP118	ltpFR	7	10	0	QUILT	1151	n/a	n/a	1	n/a	0	0	0	0.422607421875	0.5869140625	0	lower	zerothre.ttf
2833858	START	n/a	LTP118	ltpFR	7	n/a	n/a	n/a	n/a	n/a	n/a	n/a	n/a	n/a	n/a	n/a	n/a	n/a	n/a	n/a	n/a
2835007	PROB	n/a	LTP118	ltpFR	7	n/a	n/a	n/a	n/a	n/a	n/a	n/a	20	9	6	5	n/a	n/a	n/a	n/a	n/a
2838731	PROB	n/a	LTP118	ltpFR	7	n/a	n/a	n/a	n/a	n/a	n/a	n/a	20	7	4	9	n/a	n/a	n/a	n/a	n/a
2843071	PROB	n/a	LTP118	ltpFR	7	n/a	n/a	n/a	n/a	n/a	n/a	n/a	18	9	4	5	n/a	n/a	n/a	n/a	n/a
2849858	STOP	n/a	LTP118	ltpFR	7	n/a	n/a	n/a	n/a	n/a	n/a	n/a	n/a	n/a	n/a	n/a	n/a	n/a	n/a	n/a	n/a
2850777	WORD	wordpools/wasnorm_wordpool.txt	LTP118	ltpFR	7	10	0	TEAM	1441	n/a	n/a	1	n/a	0	0	0	0.422607421875	0.5869140625	0	lower	zerothre.ttf
2853785	START	n/a	LTP118	ltpFR	7	n/a	n/a	n/a	n/a	n/a	n/a	n/a	n/a	n/a	n/a	n/a	n/a	n/a	n/a	n/a	n/a
2854917	PROB	n/a	LTP118	ltpFR	7	n/a	n/a	n/a	n/a	n/a	n/a	n/a	12	3	8	1	n/a	n/a	n/a	n/a	n/a
2857249	PROB	n/a	LTP118	ltpFR	7	n/a	n/a	n/a	n/a	n/a	n/a	n/a	15	6	2	7	n/a	n/a	n/a	n/a	n/a
2859249	PROB	n/a	LTP118	ltpFR	7	n/a	n/a	n/a	n/a	n/a	n/a	n/a	14	2	3	9	n/a	n/a	n/a	n/a	n/a
2861380	PROB	n/a	LTP118	ltpFR	7	n/a	n/a	n/a	n/a	n/a	n/a	n/a	158	6	2	9	n/a	n/a	n/a	n/a	n/a
2866246	PROB	n/a	LTP118	ltpFR	7	n/a	n/a	n/a	n/a	n/a	n/a	n/a	10	7	2	1	n/a	n/a	n/a	n/a	n/a
2869446	STOP	n/a	LTP118	ltpFR	7	n/a	n/a	n/a	n/a	n/a	n/a	n/a	n/a	n/a	n/a	n/a	n/a	n/a	n/a	n/a	n/a
2870669	WORD	wordpools/wasnorm_wordpool.txt	LTP118	ltpFR	7	10	0	CUBE	420	n/a	n/a	0	n/a	0	0	0	0.422607421875	0.5869140625	0	lower	zerothre.ttf
2873677	START	n/a	LTP118	ltpFR	7	n/a	n/a	n/a	n/a	n/a	n/a	n/a	n/a	n/a	n/a	n/a	n/a	n/a	n/a	n/a	n/a
2874659	PROB	n/a	LTP118	ltpFR	7	n/a	n/a	n/a	n/a	n/a	n/a	n/a	18	5	5	8	n/a	n/a	n/a	n/a	n/a
2876876	PROB	n/a	LTP118	ltpFR	7	n/a	n/a	n/a	n/a	n/a	n/a	n/a	20	8	6	8	n/a	n/a	n/a	n/a	n/a
2879883	PROB	n/a	LTP118	ltpFR	7	n/a	n/a	n/a	n/a	n/a	n/a	n/a	15	1	9	5	n/a	n/a	n/a	n/a	n/a
2882049	PROB	n/a	LTP118	ltpFR	7	n/a	n/a	n/a	n/a	n/a	n/a	n/a	15	7	1	7	n/a	n/a	n/a	n/a	n/a
2888526	STOP	n/a	LTP118	ltpFR	7	n/a	n/a	n/a	n/a	n/a	n/a	n/a	n/a	n/a	n/a	n/a	n/a	n/a	n/a	n/a	n/a
2890678	WORD	wordpools/wasnorm_wordpool.txt	LTP118	ltpFR	7	10	0	TART	1436	n/a	n/a	0	n/a	0	0	0	0.422607421875	0.5869140625	0	lower	zerothre.ttf
2893686	START	n/a	LTP118	ltpFR	7	n/a	n/a	n/a	n/a	n/a	n/a	n/a	n/a	n/a	n/a	n/a	n/a	n/a	n/a	n/a	n/a
2894677	PROB	n/a	LTP118	ltpFR	7	n/a	n/a	n/a	n/a	n/a	n/a	n/a	16	8	7	1	n/a	n/a	n/a	n/a	n/a
2897567	PROB	n/a	LTP118	ltpFR	7	n/a	n/a	n/a	n/a	n/a	n/a	n/a	20	5	5	6	n/a	n/a	n/a	n/a	n/a
2906323	PROB	n/a	LTP118	ltpFR	7	n/a	n/a	n/a	n/a	n/a	n/a	n/a	33	9	4	9	n/a	n/a	n/a	n/a	n/a
2908719	STOP	n/a	LTP118	ltpFR	7	n/a	n/a	n/a	n/a	n/a	n/a	n/a	n/a	n/a	n/a	n/a	n/a	n/a	n/a	n/a	n/a
2910621	WORD	wordpools/wasnorm_wordpool.txt	LTP118	ltpFR	7	10	0	FIDDLE	561	n/a	n/a	1	n/a	0	0	0	0.422607421875	0.5869140625	0	lower	zerothre.ttf
2913629	START	n/a	LTP118	ltpFR	7	n/a	n/a	n/a	n/a	n/a	n/a	n/a	n/a	n/a	n/a	n/a	n/a	n/a	n/a	n/a	n/a
2914453	PROB	n/a	LTP118	ltpFR	7	n/a	n/a	n/a	n/a	n/a	n/a	n/a	18	3	7	8	n/a	n/a	n/a	n/a	n/a
2916212	PROB	n/a	LTP118	ltpFR	7	n/a	n/a	n/a	n/a	n/a	n/a	n/a	15	6	4	5	n/a	n/a	n/a	n/a	n/a
2917761	PROB	n/a	LTP118	ltpFR	7	n/a	n/a	n/a	n/a	n/a	n/a	n/a	19	7	7	5	n/a	n/a	n/a	n/a	n/a
2919643	PROB	n/a	LTP118	ltpFR	7	n/a	n/a	n/a	n/a	n/a	n/a	n/a	12	9	1	2	n/a	n/a	n/a	n/a	n/a
2921960	PROB	n/a	LTP118	ltpFR	7	n/a	n/a	n/a	n/a	n/a	n/a	n/a	18	6	8	3	n/a	n/a	n/a	n/a	n/a
2926225	PROB	n/a	LTP118	ltpFR	7	n/a	n/a	n/a	n/a	n/a	n/a	n/a	17	5	7	5	n/a	n/a	n/a	n/a	n/a
2928119	STOP	n/a	LTP118	ltpFR	7	n/a	n/a	n/a	n/a	n/a	n/a	n/a	n/a	n/a	n/a	n/a	n/a	n/a	n/a	n/a	n/a
2930481	WORD	wordpools/wasnorm_wordpool.txt	LTP118	ltpFR	7	10	0	STRING	1394	n/a	n/a	0	n/a	0	0	0	0.422607421875	0.5869140625	0	lower	zerothre.ttf
2933489	START	n/a	LTP118	ltpFR	7	n/a	n/a	n/a	n/a	n/a	n/a	n/a	n/a	n/a	n/a	n/a	n/a	n/a	n/a	n/a	n/a
2934479	PROB	n/a	LTP118	ltpFR	7	n/a	n/a	n/a	n/a	n/a	n/a	n/a	17	8	5	4	n/a	n/a	n/a	n/a	n/a
2937653	PROB	n/a	LTP118	ltpFR	7	n/a	n/a	n/a	n/a	n/a	n/a	n/a	21	9	9	3	n/a	n/a	n/a	n/a	n/a
2949489	STOP	n/a	LTP118	ltpFR	7	n/a	n/a	n/a	n/a	n/a	n/a	n/a	n/a	n/a	n/a	n/a	n/a	n/a	n/a	n/a	n/a
2950532	WORD	wordpools/wasnorm_wordpool.txt	LTP118	ltpFR	7	10	0	TOAD	1470	n/a	n/a	1	n/a	0	0	0	0.422607421875	0.5869140625	0	lower	zerothre.ttf
2953540	START	n/a	LTP118	ltpFR	7	n/a	n/a	n/a	n/a	n/a	n/a	n/a	n/a	n/a	n/a	n/a	n/a	n/a	n/a	n/a	n/a
2954732	PROB	n/a	LTP118	ltpFR	7	n/a	n/a	n/a	n/a	n/a	n/a	n/a	17	8	6	3	n/a	n/a	n/a	n/a	n/a
2957496	PROB	n/a	LTP118	ltpFR	7	n/a	n/a	n/a	n/a	n/a	n/a	n/a	21	8	5	8	n/a	n/a	n/a	n/a	n/a
2961246	PROB	n/a	LTP118	ltpFR	7	n/a	n/a	n/a	n/a	n/a	n/a	n/a	23	5	9	8	n/a	n/a	n/a	n/a	n/a
2968350	STOP	n/a	LTP118	ltpFR	7	n/a	n/a	n/a	n/a	n/a	n/a	n/a	n/a	n/a	n/a	n/a	n/a	n/a	n/a	n/a	n/a
2970567	WORD	wordpools/wasnorm_wordpool.txt	LTP118	ltpFR	7	10	0	PASTRY	1022	n/a	n/a	1	n/a	0	0	0	0.422607421875	0.5869140625	0	lower	zerothre.ttf
2973574	START	n/a	LTP118	ltpFR	7	n/a	n/a	n/a	n/a	n/a	n/a	n/a	n/a	n/a	n/a	n/a	n/a	n/a	n/a	n/a	n/a
2974657	PROB	n/a	LTP118	ltpFR	7	n/a	n/a	n/a	n/a	n/a	n/a	n/a	9	2	5	2	n/a	n/a	n/a	n/a	n/a
2976473	PROB	n/a	LTP118	ltpFR	7	n/a	n/a	n/a	n/a	n/a	n/a	n/a	10	2	6	2	n/a	n/a	n/a	n/a	n/a
2978781	PROB	n/a	LTP118	ltpFR	7	n/a	n/a	n/a	n/a	n/a	n/a	n/a	15	3	5	6	n/a	n/a	n/a	n/a	n/a
2985879	PROB	n/a	LTP118	ltpFR	7	n/a	n/a	n/a	n/a	n/a	n/a	n/a	9	1	6	2	n/a	n/a	n/a	n/a	n/a
2989574	STOP	n/a	LTP118	ltpFR	7	n/a	n/a	n/a	n/a	n/a	n/a	n/a	n/a	n/a	n/a	n/a	n/a	n/a	n/a	n/a	n/a
2990543	WORD	wordpools/wasnorm_wordpool.txt	LTP118	ltpFR	7	10	0	BOX	159	n/a	n/a	0	n/a	0	0	0	0.422607421875	0.5869140625	0	lower	zerothre.ttf
2993550	START	n/a	LTP118	ltpFR	7	n/a	n/a	n/a	n/a	n/a	n/a	n/a	n/a	n/a	n/a	n/a	n/a	n/a	n/a	n/a	n/a
2994692	PROB	n/a	LTP118	ltpFR	7	n/a	n/a	n/a	n/a	n/a	n/a	n/a	10	3	4	3	n/a	n/a	n/a	n/a	n/a
2998066	PROB	n/a	LTP118	ltpFR	7	n/a	n/a	n/a	n/a	n/a	n/a	n/a	16	5	8	3	n/a	n/a	n/a	n/a	n/a
3001098	PROB	n/a	LTP118	ltpFR	7	n/a	n/a	n/a	n/a	n/a	n/a	n/a	1	7	6	2	n/a	n/a	n/a	n/a	n/a
3005546	PROB	n/a	LTP118	ltpFR	7	n/a	n/a	n/a	n/a	n/a	n/a	n/a	14	7	2	5	n/a	n/a	n/a	n/a	n/a
3008703	STOP	n/a	LTP118	ltpFR	7	n/a	n/a	n/a	n/a	n/a	n/a	n/a	n/a	n/a	n/a	n/a	n/a	n/a	n/a	n/a	n/a
3010427	WORD	wordpools/wasnorm_wordpool.txt	LTP118	ltpFR	7	10	0	CEMETERY	269	n/a	n/a	1	n/a	0	0	0	0.422607421875	0.5869140625	0	lower	zerothre.ttf
3013435	START	n/a	LTP118	ltpFR	7	n/a	n/a	n/a	n/a	n/a	n/a	n/a	n/a	n/a	n/a	n/a	n/a	n/a	n/a	n/a	n/a
3014534	PROB	n/a	LTP118	ltpFR	7	n/a	n/a	n/a	n/a	n/a	n/a	n/a	18	6	3	9	n/a	n/a	n/a	n/a	n/a
3021175	PROB	n/a	LTP118	ltpFR	7	n/a	n/a	n/a	n/a	n/a	n/a	n/a	15	4	6	5	n/a	n/a	n/a	n/a	n/a
3022716	PROB	n/a	LTP118	ltpFR	7	n/a	n/a	n/a	n/a	n/a	n/a	n/a	19	8	5	6	n/a	n/a	n/a	n/a	n/a
3025240	PROB	n/a	LTP118	ltpFR	7	n/a	n/a	n/a	n/a	n/a	n/a	n/a	16	7	2	7	n/a	n/a	n/a	n/a	n/a
3026638	PROB	n/a	LTP118	ltpFR	7	n/a	n/a	n/a	n/a	n/a	n/a	n/a	9	4	3	2	n/a	n/a	n/a	n/a	n/a
3028231	STOP	n/a	LTP118	ltpFR	7	n/a	n/a	n/a	n/a	n/a	n/a	n/a	n/a	n/a	n/a	n/a	n/a	n/a	n/a	n/a	n/a
3030320	WORD	wordpools/wasnorm_wordpool.txt	LTP118	ltpFR	7	10	0	MITTEN	902	n/a	n/a	0	n/a	0	0	0	0.422607421875	0.5869140625	0	lower	zerothre.ttf
3033328	START	n/a	LTP118	ltpFR	7	n/a	n/a	n/a	n/a	n/a	n/a	n/a	n/a	n/a	n/a	n/a	n/a	n/a	n/a	n/a	n/a
3034178	PROB	n/a	LTP118	ltpFR	7	n/a	n/a	n/a	n/a	n/a	n/a	n/a	16	7	2	7	n/a	n/a	n/a	n/a	n/a
3035569	PROB	n/a	LTP118	ltpFR	7	n/a	n/a	n/a	n/a	n/a	n/a	n/a	16	3	9	4	n/a	n/a	n/a	n/a	n/a
3038035	PROB	n/a	LTP118	ltpFR	7	n/a	n/a	n/a	n/a	n/a	n/a	n/a	15	3	7	5	n/a	n/a	n/a	n/a	n/a
3044941	PROB	n/a	LTP118	ltpFR	7	n/a	n/a	n/a	n/a	n/a	n/a	n/a	8	3	5	1	n/a	n/a	n/a	n/a	n/a
3046241	PROB	n/a	LTP118	ltpFR	7	n/a	n/a	n/a	n/a	n/a	n/a	n/a	15	6	6	3	n/a	n/a	n/a	n/a	n/a
3048919	STOP	n/a	LTP118	ltpFR	7	n/a	n/a	n/a	n/a	n/a	n/a	n/a	n/a	n/a	n/a	n/a	n/a	n/a	n/a	n/a	n/a
3050322	WORD	wordpools/wasnorm_wordpool.txt	LTP118	ltpFR	7	10	0	COACH	331	n/a	n/a	n/a	n/a	0	0	0	0.422607421875	0.5869140625	0	lower	zerothre.ttf
3053346	SLOW_MSG	n/a	LTP118	ltpFR	7	10	n/a	n/a	n/a	n/a	n/a	n/a	n/a	0	0	0	n/a	n/a	n/a	n/a	n/a
3054863	START	n/a	LTP118	ltpFR	7	n/a	n/a	n/a	n/a	n/a	n/a	n/a	n/a	n/a	n/a	n/a	n/a	n/a	n/a	n/a	n/a
3055979	PROB	n/a	LTP118	ltpFR	7	n/a	n/a	n/a	n/a	n/a	n/a	n/a	12	2	1	9	n/a	n/a	n/a	n/a	n/a
3059293	PROB	n/a	LTP118	ltpFR	7	n/a	n/a	n/a	n/a	n/a	n/a	n/a	12	1	6	5	n/a	n/a	n/a	n/a	n/a
3061060	PROB	n/a	LTP118	ltpFR	7	n/a	n/a	n/a	n/a	n/a	n/a	n/a	17	9	5	3	n/a	n/a	n/a	n/a	n/a
3063650	PROB	n/a	LTP118	ltpFR	7	n/a	n/a	n/a	n/a	n/a	n/a	n/a	7	3	1	3	n/a	n/a	n/a	n/a	n/a
3066574	PROB	n/a	LTP118	ltpFR	7	n/a	n/a	n/a	n/a	n/a	n/a	n/a	16	7	5	4	n/a	n/a	n/a	n/a	n/a
3070422	STOP	n/a	LTP118	ltpFR	7	n/a	n/a	n/a	n/a	n/a	n/a	n/a	n/a	n/a	n/a	n/a	n/a	n/a	n/a	n/a	n/a
3072589	REC_START	n/a	LTP118	ltpFR	7	10	n/a	n/a	n/a	n/a	n/a	n/a	n/a	0	0	0	n/a	n/a	n/a	n/a	n/a
3074255	REC_WORD	wordpools/wasnorm_wordpool.txt	LTP118	ltpFR	7	10	0	BOX	159	n/a	n/a	0	n/a	0	0	0	n/a	n/a	n/a	n/a	n/a
3075981	REC_WORD	wordpools/wasnorm_wordpool.txt	LTP118	ltpFR	7	10	0	PASTRY	1022	n/a	n/a	1	n/a	0	0	0	n/a	n/a	n/a	n/a	n/a
3079568	REC_WORD	wordpools/wasnorm_wordpool.txt	LTP118	ltpFR	7	10	0	TART	1436	n/a	n/a	0	n/a	0	0	0	n/a	n/a	n/a	n/a	n/a
3148171	REST_REWET	n/a	LTP118	ltpFR	7	10	n/a	n/a	n/a	n/a	n/a	n/a	n/a	0	0	0	n/a	n/a	n/a	n/a	n/a
3424956	WORD	wordpools/wasnorm_wordpool.txt	LTP118	ltpFR	7	11	0	AIRPORT	13	n/a	n/a	0	n/a	0	0	0	0.422607421875	0.5869140625	0	lower	zerothre.ttf
3428947	WORD	wordpools/wasnorm_wordpool.txt	LTP118	ltpFR	7	11	0	HELICOPTER	701	n/a	n/a	1	n/a	0	0	0	0.422607421875	0.5869140625	0	lower	zerothre.ttf
3432854	WORD	wordpools/wasnorm_wordpool.txt	LTP118	ltpFR	7	11	0	TEACHER	1440	n/a	n/a	1	n/a	0	0	0	0.422607421875	0.5869140625	0	lower	zerothre.ttf
3437019	WORD	wordpools/wasnorm_wordpool.txt	LTP118	ltpFR	7	11	0	VOLUNTEER	1577	n/a	n/a	1	n/a	0	0	0	0.422607421875	0.5869140625	0	lower	zerothre.ttf
3441142	WORD	wordpools/wasnorm_wordpool.txt	LTP118	ltpFR	7	11	0	BUILDER	190	n/a	n/a	1	n/a	0	0	0	0.422607421875	0.5869140625	0	lower	zerothre.ttf
3445058	WORD	wordpools/wasnorm_wordpool.txt	LTP118	ltpFR	7	11	0	LUNCH	849	n/a	n/a	1	n/a	0	0	0	0.422607421875	0.5869140625	0	lower	zerothre.ttf
3448881	WORD	wordpools/wasnorm_wordpool.txt	LTP118	ltpFR	7	11	0	CEREAL	272	n/a	n/a	1	n/a	0	0	0	0.422607421875	0.5869140625	0	lower	zerothre.ttf
3452846	WORD	wordpools/wasnorm_wordpool.txt	LTP118	ltpFR	7	11	0	CIRCUS	311	n/a	n/a	1	n/a	0	0	0	0.422607421875	0.5869140625	0	lower	zerothre.ttf
3456837	WORD	wordpools/wasnorm_wordpool.txt	LTP118	ltpFR	7	11	0	CLAMP	316	n/a	n/a	n/a	n/a	0	0	0	0.422607421875	0.5869140625	0	lower	zerothre.ttf
3459861	SLOW_MSG	n/a	LTP118	ltpFR	7	11	n/a	n/a	n/a	n/a	n/a	n/a	n/a	0	0	0	n/a	n/a	n/a	n/a	n/a
3462300	WORD	wordpools/wasnorm_wordpool.txt	LTP118	ltpFR	7	11	0	RADIATOR	1156	n/a	n/a	1	n/a	0	0	0	0.422607421875	0.5869140625	0	lower	zerothre.ttf
3466499	WORD	wordpools/wasnorm_wordpool.txt	LTP118	ltpFR	7	11	0	AGENT	10	n/a	n/a	1	n/a	0	0	0	0.422607421875	0.5869140625	0	lower	zerothre.ttf
3470489	WORD	wordpools/wasnorm_wordpool.txt	LTP118	ltpFR	7	11	0	DINER	467	n/a	n/a	1	n/a	0	0	0	0.422607421875	0.5869140625	0	lower	zerothre.ttf
3474463	WORD	wordpools/wasnorm_wordpool.txt	LTP118	ltpFR	7	11	0	BUTTON	207	n/a	n/a	0	n/a	0	0	0	0.422607421875	0.5869140625	0	lower	zerothre.ttf
3478320	WORD	wordpools/wasnorm_wordpool.txt	LTP118	ltpFR	7	11	0	HOUSE	725	n/a	n/a	1	n/a	0	0	0	0.422607421875	0.5869140625	0	lower	zerothre.ttf
3482510	WORD	wordpools/wasnorm_wordpool.txt	LTP118	ltpFR	7	11	0	RADISH	1158	n/a	n/a	0	n/a	0	0	0	0.422607421875	0.5869140625	0	lower	zerothre.ttf
3486484	WORD	wordpools/wasnorm_wordpool.txt	LTP118	ltpFR	7	11	0	CUFF	423	n/a	n/a	0	n/a	0	0	0	0.422607421875	0.5869140625	0	lower	zerothre.ttf
3492250	REC_START	n/a	LTP118	ltpFR	7	11	n/a	n/a	n/a	n/a	n/a	n/a	n/a	0	0	0	n/a	n/a	n/a	n/a	n/a
3494185	REC_WORD	wordpools/wasnorm_wordpool.txt	LTP118	ltpFR	7	11	0	RADIATOR	1156	n/a	n/a	1	n/a	0	0	0	n/a	n/a	n/a	n/a	n/a
3496799	REC_WORD	wordpools/wasnorm_wordpool.txt	LTP118	ltpFR	7	11	0	HELICOPTER	701	n/a	n/a	1	n/a	0	0	0	n/a	n/a	n/a	n/a	n/a
3498436	REC_WORD	wordpools/wasnorm_wordpool.txt	LTP118	ltpFR	7	11	0	AIRPORT	13	n/a	n/a	0	n/a	0	0	0	n/a	n/a	n/a	n/a	n/a
3500800	REC_WORD	wordpools/wasnorm_wordpool.txt	LTP118	ltpFR	7	11	0	BUTTON	207	n/a	n/a	0	n/a	0	0	0	n/a	n/a	n/a	n/a	n/a
3512145	REC_WORD	wordpools/wasnorm_wordpool.txt	LTP118	ltpFR	7	11	0	RADISH	1158	n/a	n/a	0	n/a	0	0	0	n/a	n/a	n/a	n/a	n/a
3523224	REC_WORD	wordpools/wasnorm_wordpool.txt	LTP118	ltpFR	7	11	0	DINER	467	n/a	n/a	1	n/a	0	0	0	n/a	n/a	n/a	n/a	n/a
3621936	WORD	wordpools/wasnorm_wordpool.txt	LTP118	ltpFR	7	12	0	GANGSTER	620	n/a	n/a	1	n/a	0	0	0	0.422607421875	0.5869140625	0	lower	zerothre.ttf
3625843	WORD	wordpools/wasnorm_wordpool.txt	LTP118	ltpFR	7	12	0	WORM	1623	n/a	n/a	0	n/a	0	0	0	0.422607421875	0.5869140625	0	lower	zerothre.ttf
3630034	WORD	wordpools/wasnorm_wordpool.txt	LTP118	ltpFR	7	12	0	MULE	931	n/a	n/a	1	n/a	0	0	0	0.422607421875	0.5869140625	0	lower	zerothre.ttf
3634240	WORD	wordpools/wasnorm_wordpool.txt	LTP118	ltpFR	7	12	0	STALLION	1369	n/a	n/a	1	n/a	0	0	0	0.422607421875	0.5869140625	0	lower	zerothre.ttf
3638214	WORD	wordpools/wasnorm_wordpool.txt	LTP118	ltpFR	7	12	0	ROOF	1205	n/a	n/a	1	n/a	0	0	0	0.422607421875	0.5869140625	0	lower	zerothre.ttf
3642345	WORD	wordpools/wasnorm_wordpool.txt	LTP118	ltpFR	7	12	0	COD	340	n/a	n/a	0	n/a	0	0	0	0.422607421875	0.5869140625	0	lower	zerothre.ttf
3646435	WORD	wordpools/wasnorm_wordpool.txt	LTP118	ltpFR	7	12	0	CLAM	315	n/a	n/a	0	n/a	0	0	0	0.422607421875	0.5869140625	0	lower	zerothre.ttf
3650334	WORD	wordpools/wasnorm_wordpool.txt	LTP118	ltpFR	7	12	0	CHEESE	289	n/a	n/a	0	n/a	0	0	0	0.422607421875	0.5869140625	0	lower	zerothre.ttf
3654482	WORD	wordpools/wasnorm_wordpool.txt	LTP118	ltpFR	7	12	0	SAGE	1222	n/a	n/a	0	n/a	0	0	0	0.422607421875	0.5869140625	0	lower	zerothre.ttf
3658689	WORD	wordpools/wasnorm_wordpool.txt	LTP118	ltpFR	7	12	0	PLUMBER	1091	n/a	n/a	1	n/a	0	0	0	0.422607421875	0.5869140625	0	lower	zerothre.ttf
3662563	WORD	wordpools/wasnorm_wordpool.txt	LTP118	ltpFR	7	12	0	AUTHOR	61	n/a	n/a	1	n/a	0	0	0	0.422607421875	0.5869140625	0	lower	zerothre.ttf
3666762	WORD	wordpools/wasnorm_wordpool.txt	LTP118	ltpFR	7	12	0	BINDER	127	n/a	n/a	0	n/a	0	0	0	0.422607421875	0.5869140625	0	lower	zerothre.ttf
3670836	WORD	wordpools/wasnorm_wordpool.txt	LTP118	ltpFR	7	12	0	TERMITE	1451	n/a	n/a	0	n/a	0	0	0	0.422607421875	0.5869140625	0	lower	zerothre.ttf
3674709	WORD	wordpools/wasnorm_wordpool.txt	LTP118	ltpFR	7	12	0	PRIEST	1122	n/a	n/a	0	n/a	0	0	0	0.422607421875	0.5869140625	0	lower	zerothre.ttf
3678900	WORD	wordpools/wasnorm_wordpool.txt	LTP118	ltpFR	7	12	0	BATHROOM	99	n/a	n/a	1	n/a	0	0	0	0.422607421875	0.5869140625	0	lower	zerothre.ttf
3683015	WORD	wordpools/wasnorm_wordpool.txt	LTP118	ltpFR	7	12	0	ATTIC	56	n/a	n/a	1	n/a	0	0	0	0.422607421875	0.5869140625	0	lower	zerothre.ttf
3686022	START	n/a	LTP118	ltpFR	7	n/a	n/a	n/a	n/a	n/a	n/a	n/a	n/a	n/a	n/a	n/a	n/a	n/a	n/a	n/a	n/a
3686830	PROB	n/a	LTP118	ltpFR	7	n/a	n/a	n/a	n/a	n/a	n/a	n/a	10	2	4	4	n/a	n/a	n/a	n/a	n/a
3688813	PROB	n/a	LTP118	ltpFR	7	n/a	n/a	n/a	n/a	n/a	n/a	n/a	19	8	8	3	n/a	n/a	n/a	n/a	n/a
3690619	PROB	n/a	LTP118	ltpFR	7	n/a	n/a	n/a	n/a	n/a	n/a	n/a	15	7	4	4	n/a	n/a	n/a	n/a	n/a
3692377	PROB	n/a	LTP118	ltpFR	7	n/a	n/a	n/a	n/a	n/a	n/a	n/a	17	5	6	6	n/a	n/a	n/a	n/a	n/a
3694360	PROB	n/a	LTP118	ltpFR	7	n/a	n/a	n/a	n/a	n/a	n/a	n/a	20	7	9	4	n/a	n/a	n/a	n/a	n/a
3696651	PROB	n/a	LTP118	ltpFR	7	n/a	n/a	n/a	n/a	n/a	n/a	n/a	10	5	2	3	n/a	n/a	n/a	n/a	n/a
3698425	PROB	n/a	LTP118	ltpFR	7	n/a	n/a	n/a	n/a	n/a	n/a	n/a	13	4	3	6	n/a	n/a	n/a	n/a	n/a
3700391	PROB	n/a	LTP118	ltpFR	7	n/a	n/a	n/a	n/a	n/a	n/a	n/a	5	2	2	1	n/a	n/a	n/a	n/a	n/a
3701454	STOP	n/a	LTP118	ltpFR	7	n/a	n/a	n/a	n/a	n/a	n/a	n/a	n/a	n/a	n/a	n/a	n/a	n/a	n/a	n/a	n/a
3703783	REC_START	n/a	LTP118	ltpFR	7	12	n/a	n/a	n/a	n/a	n/a	n/a	n/a	0	0	0	n/a	n/a	n/a	n/a	n/a
3706492	REC_WORD	wordpools/wasnorm_wordpool.txt	LTP118	ltpFR	7	12	0	PRIEST	1122	n/a	n/a	0	n/a	0	0	0	n/a	n/a	n/a	n/a	n/a
3708018	REC_WORD	wordpools/wasnorm_wordpool.txt	LTP118	ltpFR	7	12	0	SAGE	1222	n/a	n/a	0	n/a	0	0	0	n/a	n/a	n/a	n/a	n/a
3714304	REC_WORD	wordpools/wasnorm_wordpool.txt	LTP118	ltpFR	7	12	0	AUTHOR	61	n/a	n/a	1	n/a	0	0	0	n/a	n/a	n/a	n/a	n/a
3743393	REC_WORD	wordpools/wasnorm_wordpool.txt	LTP118	ltpFR	7	12	0	ATTIC	56	n/a	n/a	1	n/a	0	0	0	n/a	n/a	n/a	n/a	n/a
3745433	REC_WORD	wordpools/wasnorm_wordpool.txt	LTP118	ltpFR	7	12	0	BATHROOM	99	n/a	n/a	1	n/a	0	0	0	n/a	n/a	n/a	n/a	n/a
3810286	WORD	wordpools/wasnorm_wordpool.txt	LTP118	ltpFR	7	13	1	WARDROBE	1587	n/a	n/a	0	n/a	0	0	0	0.57763671875	0.412841796875	1	upper	amplitud.ttf
3814392	WORD	wordpools/wasnorm_wordpool.txt	LTP118	ltpFR	7	13	1	POPE	1105	n/a	n/a	1	n/a	0	0	0	0.57763671875	0.412841796875	1	upper	amplitud.ttf
3818458	WORD	wordpools/wasnorm_wordpool.txt	LTP118	ltpFR	7	13	1	FRIAR	605	n/a	n/a	1	n/a	0	0	0	0.57763671875	0.412841796875	1	upper	amplitud.ttf
3822448	WORD	wordpools/wasnorm_wordpool.txt	LTP118	ltpFR	7	13	1	WASHER	1592	n/a	n/a	0	n/a	0	0	0	0.57763671875	0.412841796875	1	upper	amplitud.ttf
3826571	WORD	wordpools/wasnorm_wordpool.txt	LTP118	ltpFR	7	13	1	JOINT	758	n/a	n/a	0	n/a	0	0	0	0.57763671875	0.412841796875	1	upper	amplitud.ttf
3830470	WORD	wordpools/wasnorm_wordpool.txt	LTP118	ltpFR	7	13	1	CHILD	299	n/a	n/a	n/a	n/a	0	0	0	0.57763671875	0.412841796875	1	upper	amplitud.ttf
3833502	SLOW_MSG	n/a	LTP118	ltpFR	7	13	n/a	n/a	n/a	n/a	n/a	n/a	n/a	0	0	0	n/a	n/a	n/a	n/a	n/a
3836169	WORD	wordpools/wasnorm_wordpool.txt	LTP118	ltpFR	7	13	1	MOSS	918	n/a	n/a	0	n/a	0	0	0	0.57763671875	0.412841796875	1	upper	amplitud.ttf
3840117	WORD	wordpools/wasnorm_wordpool.txt	LTP118	ltpFR	7	13	1	SEED	1266	n/a	n/a	1	n/a	0	0	0	0.57763671875	0.412841796875	1	upper	amplitud.ttf
3844016	WORD	wordpools/wasnorm_wordpool.txt	LTP118	ltpFR	7	13	1	TAG	1429	n/a	n/a	0	n/a	0	0	0	0.57763671875	0.412841796875	1	upper	amplitud.ttf
3848148	WORD	wordpools/wasnorm_wordpool.txt	LTP118	ltpFR	7	13	1	PUMP	1141	n/a	n/a	1	n/a	0	0	0	0.57763671875	0.412841796875	1	upper	amplitud.ttf
3852138	WORD	wordpools/wasnorm_wordpool.txt	LTP118	ltpFR	7	13	1	BOSS	152	n/a	n/a	1	n/a	0	0	0	0.57763671875	0.412841796875	1	upper	amplitud.ttf
3856278	WORD	wordpools/wasnorm_wordpool.txt	LTP118	ltpFR	7	13	1	LIEUTENANT	818	n/a	n/a	1	n/a	0	0	0	0.57763671875	0.412841796875	1	upper	amplitud.ttf
3860135	WORD	wordpools/wasnorm_wordpool.txt	LTP118	ltpFR	7	13	1	INFANT	737	n/a	n/a	1	n/a	0	0	0	0.57763671875	0.412841796875	1	upper	amplitud.ttf
3864101	WORD	wordpools/wasnorm_wordpool.txt	LTP118	ltpFR	7	13	1	LIMOUSINE	824	n/a	n/a	1	n/a	0	0	0	0.57763671875	0.412841796875	1	upper	amplitud.ttf
3867974	WORD	wordpools/wasnorm_wordpool.txt	LTP118	ltpFR	7	13	1	GOWN	652	n/a	n/a	0	n/a	0	0	0	0.57763671875	0.412841796875	1	upper	amplitud.ttf
3872156	WORD	wordpools/wasnorm_wordpool.txt	LTP118	ltpFR	7	13	1	SUIT	1402	n/a	n/a	0	n/a	0	0	0	0.57763671875	0.412841796875	1	upper	amplitud.ttf
3875164	START	n/a	LTP118	ltpFR	7	n/a	n/a	n/a	n/a	n/a	n/a	n/a	n/a	n/a	n/a	n/a	n/a	n/a	n/a	n/a	n/a
3875996	PROB	n/a	LTP118	ltpFR	7	n/a	n/a	n/a	n/a	n/a	n/a	n/a	26	9	9	7	n/a	n/a	n/a	n/a	n/a
3880302	PROB	n/a	LTP118	ltpFR	7	n/a	n/a	n/a	n/a	n/a	n/a	n/a	21	5	8	8	n/a	n/a	n/a	n/a	n/a
3882703	STOP	n/a	LTP118	ltpFR	7	n/a	n/a	n/a	n/a	n/a	n/a	n/a	n/a	n/a	n/a	n/a	n/a	n/a	n/a	n/a	n/a
3884960	REC_START	n/a	LTP118	ltpFR	7	13	n/a	n/a	n/a	n/a	n/a	n/a	n/a	0	0	0	n/a	n/a	n/a	n/a	n/a
3886282	REC_WORD	wordpools/wasnorm_wordpool.txt	LTP118	ltpFR	7	13	1	SUIT	1402	n/a	n/a	0	n/a	0	0	0	n/a	n/a	n/a	n/a	n/a
3887734	REC_WORD	wordpools/wasnorm_wordpool.txt	LTP118	ltpFR	7	13	1	GOWN	652	n/a	n/a	0	n/a	0	0	0	n/a	n/a	n/a	n/a	n/a
3889016	REC_WORD	wordpools/wasnorm_wordpool.txt	LTP118	ltpFR	7	13	1	WARDROBE	1587	n/a	n/a	0	n/a	0	0	0	n/a	n/a	n/a	n/a	n/a
3891794	REC_WORD	wordpools/wasnorm_wordpool.txt	LTP118	ltpFR	7	13	1	POPE	1105	n/a	n/a	1	n/a	0	0	0	n/a	n/a	n/a	n/a	n/a
3893086	REC_WORD	wordpools/wasnorm_wordpool.txt	LTP118	ltpFR	7	13	1	FRIAR	605	n/a	n/a	1	n/a	0	0	0	n/a	n/a	n/a	n/a	n/a
3925493	REC_WORD	wordpools/wasnorm_wordpool.txt	LTP118	ltpFR	7	13	1	SEED	1266	n/a	n/a	1	n/a	0	0	0	n/a	n/a	n/a	n/a	n/a
4004417	START	n/a	LTP118	ltpFR	7	n/a	n/a	n/a	n/a	n/a	n/a	n/a	n/a	n/a	n/a	n/a	n/a	n/a	n/a	n/a	n/a
4005925	PROB	n/a	LTP118	ltpFR	7	n/a	n/a	n/a	n/a	n/a	n/a	n/a	17	9	5	3	n/a	n/a	n/a	n/a	n/a
4008473	PROB	n/a	LTP118	ltpFR	7	n/a	n/a	n/a	n/a	n/a	n/a	n/a	17	6	4	7	n/a	n/a	n/a	n/a	n/a
4009932	PROB	n/a	LTP118	ltpFR	7	n/a	n/a	n/a	n/a	n/a	n/a	n/a	15	6	8	1	n/a	n/a	n/a	n/a	n/a
4011782	STOP	n/a	LTP118	ltpFR	7	n/a	n/a	n/a	n/a	n/a	n/a	n/a	n/a	n/a	n/a	n/a	n/a	n/a	n/a	n/a	n/a
4013597	WORD	wordpools/wasnorm_wordpool.txt	LTP118	ltpFR	7	14	1	CHECK	284	n/a	n/a	0	n/a	0	0	0	0.57763671875	0.412841796875	1	upper	amplitud.ttf
4016604	START	n/a	LTP118	ltpFR	7	n/a	n/a	n/a	n/a	n/a	n/a	n/a	n/a	n/a	n/a	n/a	n/a	n/a	n/a	n/a	n/a
4017713	PROB	n/a	LTP118	ltpFR	7	n/a	n/a	n/a	n/a	n/a	n/a	n/a	14	5	8	1	n/a	n/a	n/a	n/a	n/a
4020245	PROB	n/a	LTP118	ltpFR	7	n/a	n/a	n/a	n/a	n/a	n/a	n/a	5	1	1	3	n/a	n/a	n/a	n/a	n/a
4021569	PROB	n/a	LTP118	ltpFR	7	n/a	n/a	n/a	n/a	n/a	n/a	n/a	21	9	9	3	n/a	n/a	n/a	n/a	n/a
4023526	STOP	n/a	LTP118	ltpFR	7	n/a	n/a	n/a	n/a	n/a	n/a	n/a	n/a	n/a	n/a	n/a	n/a	n/a	n/a	n/a	n/a
4025810	WORD	wordpools/wasnorm_wordpool.txt	LTP118	ltpFR	7	14	1	ASTEROID	50	n/a	n/a	0	n/a	0	0	0	0.57763671875	0.412841796875	1	upper	amplitud.ttf
4028818	START	n/a	LTP118	ltpFR	7	n/a	n/a	n/a	n/a	n/a	n/a	n/a	n/a	n/a	n/a	n/a	n/a	n/a	n/a	n/a	n/a
4029892	PROB	n/a	LTP118	ltpFR	7	n/a	n/a	n/a	n/a	n/a	n/a	n/a	2	7	7	4	n/a	n/a	n/a	n/a	n/a
4036818	STOP	n/a	LTP118	ltpFR	7	n/a	n/a	n/a	n/a	n/a	n/a	n/a	n/a	n/a	n/a	n/a	n/a	n/a	n/a	n/a	n/a
4037881	WORD	wordpools/wasnorm_wordpool.txt	LTP118	ltpFR	7	14	1	VENUS	1557	n/a	n/a	0	n/a	0	0	0	0.57763671875	0.412841796875	1	upper	amplitud.ttf
4040888	START	n/a	LTP118	ltpFR	7	n/a	n/a	n/a	n/a	n/a	n/a	n/a	n/a	n/a	n/a	n/a	n/a	n/a	n/a	n/a	n/a
4042004	PROB	n/a	LTP118	ltpFR	7	n/a	n/a	n/a	n/a	n/a	n/a	n/a	14	2	3	9	n/a	n/a	n/a	n/a	n/a
4045278	PROB	n/a	LTP118	ltpFR	7	n/a	n/a	n/a	n/a	n/a	n/a	n/a	13	9	2	2	n/a	n/a	n/a	n/a	n/a
4048887	STOP	n/a	LTP118	ltpFR	7	n/a	n/a	n/a	n/a	n/a	n/a	n/a	n/a	n/a	n/a	n/a	n/a	n/a	n/a	n/a	n/a
4049727	WORD	wordpools/wasnorm_wordpool.txt	LTP118	ltpFR	7	14	1	RULER	1216	n/a	n/a	0	n/a	0	0	0	0.57763671875	0.412841796875	1	upper	amplitud.ttf
4052734	START	n/a	LTP118	ltpFR	7	n/a	n/a	n/a	n/a	n/a	n/a	n/a	n/a	n/a	n/a	n/a	n/a	n/a	n/a	n/a	n/a
4053632	PROB	n/a	LTP118	ltpFR	7	n/a	n/a	n/a	n/a	n/a	n/a	n/a	20	7	8	5	n/a	n/a	n/a	n/a	n/a
4060734	STOP	n/a	LTP118	ltpFR	7	n/a	n/a	n/a	n/a	n/a	n/a	n/a	n/a	n/a	n/a	n/a	n/a	n/a	n/a	n/a	n/a
4061621	WORD	wordpools/wasnorm_wordpool.txt	LTP118	ltpFR	7	14	1	BANANA	77	n/a	n/a	1	n/a	0	0	0	0.57763671875	0.412841796875	1	upper	amplitud.ttf
4064629	START	n/a	LTP118	ltpFR	7	n/a	n/a	n/a	n/a	n/a	n/a	n/a	n/a	n/a	n/a	n/a	n/a	n/a	n/a	n/a	n/a
4065620	PROB	n/a	LTP118	ltpFR	7	n/a	n/a	n/a	n/a	n/a	n/a	n/a	14	4	9	1	n/a	n/a	n/a	n/a	n/a
4067527	PROB	n/a	LTP118	ltpFR	7	n/a	n/a	n/a	n/a	n/a	n/a	n/a	12	2	9	1	n/a	n/a	n/a	n/a	n/a
4069953	PROB	n/a	LTP118	ltpFR	7	n/a	n/a	n/a	n/a	n/a	n/a	n/a	11	3	5	3	n/a	n/a	n/a	n/a	n/a
4072071	STOP	n/a	LTP118	ltpFR	7	n/a	n/a	n/a	n/a	n/a	n/a	n/a	n/a	n/a	n/a	n/a	n/a	n/a	n/a	n/a	n/a
4073735	WORD	wordpools/wasnorm_wordpool.txt	LTP118	ltpFR	7	14	1	PRIMATE	1123	n/a	n/a	1	n/a	0	0	0	0.57763671875	0.412841796875	1	upper	amplitud.ttf
4076742	START	n/a	LTP118	ltpFR	7	n/a	n/a	n/a	n/a	n/a	n/a	n/a	n/a	n/a	n/a	n/a	n/a	n/a	n/a	n/a	n/a
4077783	PROB	n/a	LTP118	ltpFR	7	n/a	n/a	n/a	n/a	n/a	n/a	n/a	13	8	3	2	n/a	n/a	n/a	n/a	n/a
4081757	PROB	n/a	LTP118	ltpFR	7	n/a	n/a	n/a	n/a	n/a	n/a	n/a	15	3	8	4	n/a	n/a	n/a	n/a	n/a
4084614	STOP	n/a	LTP118	ltpFR	7	n/a	n/a	n/a	n/a	n/a	n/a	n/a	n/a	n/a	n/a	n/a	n/a	n/a	n/a	n/a	n/a
4085872	WORD	wordpools/wasnorm_wordpool.txt	LTP118	ltpFR	7	14	1	TURKEY	1520	n/a	n/a	1	n/a	0	0	0	0.57763671875	0.412841796875	1	upper	amplitud.ttf
4088880	START	n/a	LTP118	ltpFR	7	n/a	n/a	n/a	n/a	n/a	n/a	n/a	n/a	n/a	n/a	n/a	n/a	n/a	n/a	n/a	n/a
4089787	PROB	n/a	LTP118	ltpFR	7	n/a	n/a	n/a	n/a	n/a	n/a	n/a	17	4	7	6	n/a	n/a	n/a	n/a	n/a
4093153	PROB	n/a	LTP118	ltpFR	7	n/a	n/a	n/a	n/a	n/a	n/a	n/a	16	6	3	7	n/a	n/a	n/a	n/a	n/a
4096880	STOP	n/a	LTP118	ltpFR	7	n/a	n/a	n/a	n/a	n/a	n/a	n/a	n/a	n/a	n/a	n/a	n/a	n/a	n/a	n/a	n/a
4097693	WORD	wordpools/wasnorm_wordpool.txt	LTP118	ltpFR	7	14	1	FEAST	556	n/a	n/a	1	n/a	0	0	0	0.57763671875	0.412841796875	1	upper	amplitud.ttf
4100701	START	n/a	LTP118	ltpFR	7	n/a	n/a	n/a	n/a	n/a	n/a	n/a	n/a	n/a	n/a	n/a	n/a	n/a	n/a	n/a	n/a
4101649	PROB	n/a	LTP118	ltpFR	7	n/a	n/a	n/a	n/a	n/a	n/a	n/a	17	5	7	5	n/a	n/a	n/a	n/a	n/a
4103298	PROB	n/a	LTP118	ltpFR	7	n/a	n/a	n/a	n/a	n/a	n/a	n/a	14	2	3	9	n/a	n/a	n/a	n/a	n/a
4105074	PROB	n/a	LTP118	ltpFR	7	n/a	n/a	n/a	n/a	n/a	n/a	n/a	15	5	4	6	n/a	n/a	n/a	n/a	n/a
4107199	STOP	n/a	LTP118	ltpFR	7	n/a	n/a	n/a	n/a	n/a	n/a	n/a	n/a	n/a	n/a	n/a	n/a	n/a	n/a	n/a	n/a
4109755	WORD	wordpools/wasnorm_wordpool.txt	LTP118	ltpFR	7	14	1	GENTLEMAN	631	n/a	n/a	1	n/a	0	0	0	0.57763671875	0.412841796875	1	upper	amplitud.ttf
4112763	START	n/a	LTP118	ltpFR	7	n/a	n/a	n/a	n/a	n/a	n/a	n/a	n/a	n/a	n/a	n/a	n/a	n/a	n/a	n/a	n/a
4113653	PROB	n/a	LTP118	ltpFR	7	n/a	n/a	n/a	n/a	n/a	n/a	n/a	13	7	2	4	n/a	n/a	n/a	n/a	n/a
4117936	PROB	n/a	LTP118	ltpFR	7	n/a	n/a	n/a	n/a	n/a	n/a	n/a	20	6	6	8	n/a	n/a	n/a	n/a	n/a
4120574	STOP	n/a	LTP118	ltpFR	7	n/a	n/a	n/a	n/a	n/a	n/a	n/a	n/a	n/a	n/a	n/a	n/a	n/a	n/a	n/a	n/a
4121818	WORD	wordpools/wasnorm_wordpool.txt	LTP118	ltpFR	7	14	1	RICE	1190	n/a	n/a	1	n/a	0	0	0	0.57763671875	0.412841796875	1	upper	amplitud.ttf
4124825	START	n/a	LTP118	ltpFR	7	n/a	n/a	n/a	n/a	n/a	n/a	n/a	n/a	n/a	n/a	n/a	n/a	n/a	n/a	n/a	n/a
4125958	PROB	n/a	LTP118	ltpFR	7	n/a	n/a	n/a	n/a	n/a	n/a	n/a	11	4	1	6	n/a	n/a	n/a	n/a	n/a
4127857	PROB	n/a	LTP118	ltpFR	7	n/a	n/a	n/a	n/a	n/a	n/a	n/a	12	5	4	3	n/a	n/a	n/a	n/a	n/a
4129547	PROB	n/a	LTP118	ltpFR	7	n/a	n/a	n/a	n/a	n/a	n/a	n/a	14	5	8	1	n/a	n/a	n/a	n/a	n/a
4131430	STOP	n/a	LTP118	ltpFR	7	n/a	n/a	n/a	n/a	n/a	n/a	n/a	n/a	n/a	n/a	n/a	n/a	n/a	n/a	n/a	n/a
4134005	WORD	wordpools/wasnorm_wordpool.txt	LTP118	ltpFR	7	14	1	CUE	422	n/a	n/a	0	n/a	0	0	0	0.57763671875	0.412841796875	1	upper	amplitud.ttf
4137013	START	n/a	LTP118	ltpFR	7	n/a	n/a	n/a	n/a	n/a	n/a	n/a	n/a	n/a	n/a	n/a	n/a	n/a	n/a	n/a	n/a
4137995	PROB	n/a	LTP118	ltpFR	7	n/a	n/a	n/a	n/a	n/a	n/a	n/a	10	5	4	1	n/a	n/a	n/a	n/a	n/a
4139377	PROB	n/a	LTP118	ltpFR	7	n/a	n/a	n/a	n/a	n/a	n/a	n/a	18	9	7	2	n/a	n/a	n/a	n/a	n/a
4141860	PROB	n/a	LTP118	ltpFR	7	n/a	n/a	n/a	n/a	n/a	n/a	n/a	11	6	4	1	n/a	n/a	n/a	n/a	n/a
4143043	PROB	n/a	LTP118	ltpFR	7	n/a	n/a	n/a	n/a	n/a	n/a	n/a	17	8	6	3	n/a	n/a	n/a	n/a	n/a
4144719	STOP	n/a	LTP118	ltpFR	7	n/a	n/a	n/a	n/a	n/a	n/a	n/a	n/a	n/a	n/a	n/a	n/a	n/a	n/a	n/a	n/a
4146109	WORD	wordpools/wasnorm_wordpool.txt	LTP118	ltpFR	7	14	1	CENT	270	n/a	n/a	0	n/a	0	0	0	0.57763671875	0.412841796875	1	upper	amplitud.ttf
4149117	START	n/a	LTP118	ltpFR	7	n/a	n/a	n/a	n/a	n/a	n/a	n/a	n/a	n/a	n/a	n/a	n/a	n/a	n/a	n/a	n/a
4150033	PROB	n/a	LTP118	ltpFR	7	n/a	n/a	n/a	n/a	n/a	n/a	n/a	20	7	4	9	n/a	n/a	n/a	n/a	n/a
4157117	STOP	n/a	LTP118	ltpFR	7	n/a	n/a	n/a	n/a	n/a	n/a	n/a	n/a	n/a	n/a	n/a	n/a	n/a	n/a	n/a	n/a
4158038	WORD	wordpools/wasnorm_wordpool.txt	LTP118	ltpFR	7	14	1	BANQUET	86	n/a	n/a	0	n/a	0	0	0	0.57763671875	0.412841796875	1	upper	amplitud.ttf
4161046	START	n/a	LTP118	ltpFR	7	n/a	n/a	n/a	n/a	n/a	n/a	n/a	n/a	n/a	n/a	n/a	n/a	n/a	n/a	n/a	n/a
4162037	PROB	n/a	LTP118	ltpFR	7	n/a	n/a	n/a	n/a	n/a	n/a	n/a	15	4	3	8	n/a	n/a	n/a	n/a	n/a
4165152	PROB	n/a	LTP118	ltpFR	7	n/a	n/a	n/a	n/a	n/a	n/a	n/a	10	6	3	1	n/a	n/a	n/a	n/a	n/a
4167534	STOP	n/a	LTP118	ltpFR	7	n/a	n/a	n/a	n/a	n/a	n/a	n/a	n/a	n/a	n/a	n/a	n/a	n/a	n/a	n/a	n/a
4170150	WORD	wordpools/wasnorm_wordpool.txt	LTP118	ltpFR	7	14	1	ACTRESS	6	n/a	n/a	0	n/a	0	0	0	0.57763671875	0.412841796875	1	upper	amplitud.ttf
4173158	START	n/a	LTP118	ltpFR	7	n/a	n/a	n/a	n/a	n/a	n/a	n/a	n/a	n/a	n/a	n/a	n/a	n/a	n/a	n/a	n/a
4174149	PROB	n/a	LTP118	ltpFR	7	n/a	n/a	n/a	n/a	n/a	n/a	n/a	18	8	9	1	n/a	n/a	n/a	n/a	n/a
4176297	PROB	n/a	LTP118	ltpFR	7	n/a	n/a	n/a	n/a	n/a	n/a	n/a	20	5	6	9	n/a	n/a	n/a	n/a	n/a
4180207	STOP	n/a	LTP118	ltpFR	7	n/a	n/a	n/a	n/a	n/a	n/a	n/a	n/a	n/a	n/a	n/a	n/a	n/a	n/a	n/a	n/a
4182196	WORD	wordpools/wasnorm_wordpool.txt	LTP118	ltpFR	7	14	1	OWNER	993	n/a	n/a	1	n/a	0	0	0	0.57763671875	0.412841796875	1	upper	amplitud.ttf
4185204	START	n/a	LTP118	ltpFR	7	n/a	n/a	n/a	n/a	n/a	n/a	n/a	n/a	n/a	n/a	n/a	n/a	n/a	n/a	n/a	n/a
4186178	PROB	n/a	LTP118	ltpFR	7	n/a	n/a	n/a	n/a	n/a	n/a	n/a	20	9	9	2	n/a	n/a	n/a	n/a	n/a
4189309	PROB	n/a	LTP118	ltpFR	7	n/a	n/a	n/a	n/a	n/a	n/a	n/a	14	7	5	2	n/a	n/a	n/a	n/a	n/a
4193204	STOP	n/a	LTP118	ltpFR	7	n/a	n/a	n/a	n/a	n/a	n/a	n/a	n/a	n/a	n/a	n/a	n/a	n/a	n/a	n/a	n/a
4194324	WORD	wordpools/wasnorm_wordpool.txt	LTP118	ltpFR	7	14	1	JELLY	755	n/a	n/a	0	n/a	0	0	0	0.57763671875	0.412841796875	1	upper	amplitud.ttf
4197332	START	n/a	LTP118	ltpFR	7	n/a	n/a	n/a	n/a	n/a	n/a	n/a	n/a	n/a	n/a	n/a	n/a	n/a	n/a	n/a	n/a
4198174	PROB	n/a	LTP118	ltpFR	7	n/a	n/a	n/a	n/a	n/a	n/a	n/a	19	3	9	7	n/a	n/a	n/a	n/a	n/a
4201156	PROB	n/a	LTP118	ltpFR	7	n/a	n/a	n/a	n/a	n/a	n/a	n/a	20	9	8	3	n/a	n/a	n/a	n/a	n/a
4205331	STOP	n/a	LTP118	ltpFR	7	n/a	n/a	n/a	n/a	n/a	n/a	n/a	n/a	n/a	n/a	n/a	n/a	n/a	n/a	n/a	n/a
4207146	REC_START	n/a	LTP118	ltpFR	7	14	n/a	n/a	n/a	n/a	n/a	n/a	n/a	0	0	0	n/a	n/a	n/a	n/a	n/a
4208553	REC_WORD	wordpools/wasnorm_wordpool.txt	LTP118	ltpFR	7	14	1	OWNER	993	n/a	n/a	1	n/a	0	0	0	n/a	n/a	n/a	n/a	n/a
4211371	REC_WORD	wordpools/wasnorm_wordpool.txt	LTP118	ltpFR	7	14	1	ASTEROID	50	n/a	n/a	0	n/a	0	0	0	n/a	n/a	n/a	n/a	n/a
4213182	REC_WORD	wordpools/wasnorm_wordpool.txt	LTP118	ltpFR	7	14	1	MARS	873	n/a	n/a	0	n/a	0	0	0	n/a	n/a	n/a	n/a	n/a
4215746	REC_WORD	wordpools/wasnorm_wordpool.txt	LTP118	ltpFR	7	14	1	VENUS	1557	n/a	n/a	0	n/a	0	0	0	n/a	n/a	n/a	n/a	n/a
4223544	REC_WORD	wordpools/wasnorm_wordpool.txt	LTP118	ltpFR	7	14	1	CHECK	284	n/a	n/a	0	n/a	0	0	0	n/a	n/a	n/a	n/a	n/a
4241872	REC_WORD	wordpools/wasnorm_wordpool.txt	LTP118	ltpFR	7	14	1	ACTRESS	6	n/a	n/a	0	n/a	0	0	0	n/a	n/a	n/a	n/a	n/a
4249834	REC_WORD	wordpools/wasnorm_wordpool.txt	LTP118	ltpFR	7	14	1	CUE	422	n/a	n/a	0	n/a	0	0	0	n/a	n/a	n/a	n/a	n/a
4309492	REC_START	n/a	LTP118	ltpFR	7	n/a	n/a	n/a	n/a	n/a	n/a	n/a	n/a	0	0	0	n/a	n/a	n/a	n/a	n/a
4310215	FFR_REC_WORD	wordpools/wasnorm_wordpool.txt	LTP118	ltpFR	7	n/a	1	ACTRESS	6	n/a	n/a	0	n/a	0	0	0	n/a	n/a	n/a	n/a	n/a
4311552	FFR_REC_WORD	wordpools/wasnorm_wordpool.txt	LTP118	ltpFR	7	n/a	0	RADIATOR	1156	n/a	n/a	1	n/a	0	0	0	n/a	n/a	n/a	n/a	n/a
4313338	FFR_REC_WORD	wordpools/wasnorm_wordpool.txt	LTP118	ltpFR	7	n/a	n/a	ASTRONAUT	51	n/a	n/a	n/a	n/a	0	0	0	n/a	n/a	n/a	n/a	n/a
4315194	FFR_REC_WORD	wordpools/wasnorm_wordpool.txt	LTP118	ltpFR	7	n/a	1	ASTEROID	50	n/a	n/a	0	n/a	0	0	0	n/a	n/a	n/a	n/a	n/a
4317424	FFR_REC_WORD	wordpools/wasnorm_wordpool.txt	LTP118	ltpFR	7	n/a	1	CHECK	284	n/a	n/a	0	n/a	0	0	0	n/a	n/a	n/a	n/a	n/a
4321704	FFR_REC_WORD	wordpools/wasnorm_wordpool.txt	LTP118	ltpFR	7	n/a	0	ATTIC	56	n/a	n/a	1	n/a	0	0	0	n/a	n/a	n/a	n/a	n/a
4323300	FFR_REC_WORD	wordpools/wasnorm_wordpool.txt	LTP118	ltpFR	7	n/a	0	OUTFIT	988	n/a	n/a	1	n/a	0	0	0	n/a	n/a	n/a	n/a	n/a
4324727	FFR_REC_WORD	wordpools/wasnorm_wordpool.txt	LTP118	ltpFR	7	n/a	1	SUIT	1402	n/a	n/a	0	n/a	0	0	0	n/a	n/a	n/a	n/a	n/a
4326388	FFR_REC_WORD	wordpools/wasnorm_wordpool.txt	LTP118	ltpFR	7	n/a	1	SERGEANT	1269	n/a	n/a	1	n/a	0	0	0	n/a	n/a	n/a	n/a	n/a
4328134	FFR_REC_WORD	wordpools/wasnorm_wordpool.txt	LTP118	ltpFR	7	n/a	1	LIEUTENANT	818	n/a	n/a	1	n/a	0	0	0	n/a	n/a	n/a	n/a	n/a
4334600	FFR_REC_WORD	wordpools/wasnorm_wordpool.txt	LTP118	ltpFR	7	n/a	1	MARS	873	n/a	n/a	0	n/a	0	0	0	n/a	n/a	n/a	n/a	n/a
4336251	FFR_REC_WORD	wordpools/wasnorm_wordpool.txt	LTP118	ltpFR	7	n/a	1	VENUS	1557	n/a	n/a	0	n/a	0	0	0	n/a	n/a	n/a	n/a	n/a
4337862	FFR_REC_WORD	wordpools/wasnorm_wordpool.txt	LTP118	ltpFR	7	n/a	1	RICE	1190	n/a	n/a	1	n/a	0	0	0	n/a	n/a	n/a	n/a	n/a
4339788	FFR_REC_WORD	wordpools/wasnorm_wordpool.txt	LTP118	ltpFR	7	n/a	1	CUE	422	n/a	n/a	0	n/a	0	0	0	n/a	n/a	n/a	n/a	n/a
4341639	FFR_REC_WORD	wordpools/wasnorm_wordpool.txt	LTP118	ltpFR	7	n/a	0	PUBLISHER	1137	n/a	n/a	1	n/a	0	0	0	n/a	n/a	n/a	n/a	n/a
4343500	FFR_REC_WORD	wordpools/wasnorm_wordpool.txt	LTP118	ltpFR	7	n/a	0	AUTHOR	61	n/a	n/a	1	n/a	0	0	0	n/a	n/a	n/a	n/a	n/a
4380106	FFR_REC_WORD	wordpools/wasnorm_wordpool.txt	LTP118	ltpFR	7	n/a	1	BANANA	77	n/a	n/a	1	n/a	0	0	0	n/a	n/a	n/a	n/a	n/a
4381897	FFR_REC_WORD	wordpools/wasnorm_wordpool.txt	LTP118	ltpFR	7	n/a	1	DILL	465	n/a	n/a	0	n/a	0	0	0	n/a	n/a	n/a	n/a	n/a
4383673	FFR_REC_WORD	wordpools/wasnorm_wordpool.txt	LTP118	ltpFR	7	n/a	1	PICKLE	1059	n/a	n/a	1	n/a	0	0	0	n/a	n/a	n/a	n/a	n/a
4386557	FFR_REC_WORD	wordpools/wasnorm_wordpool.txt	LTP118	ltpFR	7	n/a	1	SEED	1266	n/a	n/a	1	n/a	0	0	0	n/a	n/a	n/a	n/a	n/a
4387557	FFR_REC_WORD_VV	wordpools/wasnorm_wordpool.txt	LTP118	ltpFR	7	n/a	n/a	<>	-1	n/a	n/a	n/a	n/a	0	0	0	n/a	n/a	n/a	n/a	n/a
4388797	FFR_REC_WORD	wordpools/wasnorm_wordpool.txt	LTP118	ltpFR	7	n/a	0	LEAF	808	n/a	n/a	0	n/a	0	0	0	n/a	n/a	n/a	n/a	n/a
4390568	FFR_REC_WORD	wordpools/wasnorm_wordpool.txt	LTP118	ltpFR	7	n/a	0	SAP	1233	n/a	n/a	0	n/a	0	0	0	n/a	n/a	n/a	n/a	n/a
4398085	FFR_REC_WORD	wordpools/wasnorm_wordpool.txt	LTP118	ltpFR	7	n/a	1	JELLY	755	n/a	n/a	0	n/a	0	0	0	n/a	n/a	n/a	n/a	n/a
4444879	FFR_REC_WORD	wordpools/wasnorm_wordpool.txt	LTP118	ltpFR	7	n/a	1	CAFE	216	n/a	n/a	0	n/a	0	0	0	n/a	n/a	n/a	n/a	n/a
4450267	FFR_REC_WORD	wordpools/wasnorm_wordpool.txt	LTP118	ltpFR	7	n/a	0	COACH	331	n/a	n/a	n/a	n/a	0	0	0	n/a	n/a	n/a	n/a	n/a
4459636	FFR_REC_WORD	wordpools/wasnorm_wordpool.txt	LTP118	ltpFR	7	n/a	n/a	BUSINESS	-1	n/a	n/a	n/a	n/a	0	0	0	n/a	n/a	n/a	n/a	n/a
4461691	FFR_REC_WORD	wordpools/wasnorm_wordpool.txt	LTP118	ltpFR	7	n/a	0	FACTORY	548	n/a	n/a	1	n/a	0	0	0	n/a	n/a	n/a	n/a	n/a
