mstime	trial_type	stim_file	subject	experiment	session	trial	item_name	item_num	list	answer	test_x	test_y	test_z
0	SESS_START	n/a	LTP246	ltpFR2	21	n/a	n/a	n/a	n/a	n/a	0	0	0
27573	START	n/a	LTP246	ltpFR2	21	n/a	n/a	n/a	-1	n/a	n/a	n/a	n/a
27605	PROB	n/a	LTP246	ltpFR2	21	n/a	n/a	n/a	-1	23	5	9	9
29389	PROB	n/a	LTP246	ltpFR2	21	n/a	n/a	n/a	-1	18	8	4	6
30658	PROB	n/a	LTP246	ltpFR2	21	n/a	n/a	n/a	-1	21	8	6	7
32325	PROB	n/a	LTP246	ltpFR2	21	n/a	n/a	n/a	-1	24	8	8	8
33392	PROB	n/a	LTP246	ltpFR2	21	n/a	n/a	n/a	-1	21	4	8	9
35144	PROB	n/a	LTP246	ltpFR2	21	n/a	n/a	n/a	-1	17	5	6	6
36646	PROB	n/a	LTP246	ltpFR2	21	n/a	n/a	n/a	-1	15	8	1	6
38320	STOP	n/a	LTP246	ltpFR2	21	n/a	n/a	n/a	-1	n/a	n/a	n/a	n/a
88854	WORD	wordpools/wasnorm_wordpool_576.txt	LTP246	ltpFR2	21	1	IGLOO	734	n/a	n/a	0	0	0
91606	WORD	wordpools/wasnorm_wordpool_576.txt	LTP246	ltpFR2	21	1	GRAVE	658	n/a	n/a	0	0	0
94191	WORD	wordpools/wasnorm_wordpool_576.txt	LTP246	ltpFR2	21	1	TREAT	1501	n/a	n/a	0	0	0
96844	WORD	wordpools/wasnorm_wordpool_576.txt	LTP246	ltpFR2	21	1	SEAGULL	1261	n/a	n/a	0	0	0
99445	WORD	wordpools/wasnorm_wordpool_576.txt	LTP246	ltpFR2	21	1	POISON	1096	n/a	n/a	0	0	0
102181	WORD	wordpools/wasnorm_wordpool_576.txt	LTP246	ltpFR2	21	1	ACTRESS	6	n/a	n/a	0	0	0
104667	WORD	wordpools/wasnorm_wordpool_576.txt	LTP246	ltpFR2	21	1	CRITIC	410	n/a	n/a	0	0	0
107451	WORD	wordpools/wasnorm_wordpool_576.txt	LTP246	ltpFR2	21	1	FLUTE	585	n/a	n/a	0	0	0
110204	WORD	wordpools/wasnorm_wordpool_576.txt	LTP246	ltpFR2	21	1	PERCH	1048	n/a	n/a	0	0	0
112957	WORD	wordpools/wasnorm_wordpool_576.txt	LTP246	ltpFR2	21	1	FRAGRANCE	599	n/a	n/a	0	0	0
115525	WORD	wordpools/wasnorm_wordpool_576.txt	LTP246	ltpFR2	21	1	PERFUME	1049	n/a	n/a	0	0	0
117978	WORD	wordpools/wasnorm_wordpool_576.txt	LTP246	ltpFR2	21	1	SWORD	1423	n/a	n/a	0	0	0
120796	WORD	wordpools/wasnorm_wordpool_576.txt	LTP246	ltpFR2	21	1	WRIST	1626	n/a	n/a	0	0	0
123248	WORD	wordpools/wasnorm_wordpool_576.txt	LTP246	ltpFR2	21	1	ORANGE	980	n/a	n/a	0	0	0
125967	WORD	wordpools/wasnorm_wordpool_576.txt	LTP246	ltpFR2	21	1	FLOWER	584	n/a	n/a	0	0	0
128736	WORD	wordpools/wasnorm_wordpool_576.txt	LTP246	ltpFR2	21	1	MATCH	878	n/a	n/a	0	0	0
131504	WORD	wordpools/wasnorm_wordpool_576.txt	LTP246	ltpFR2	21	1	ROCKET	1202	n/a	n/a	0	0	0
134240	WORD	wordpools/wasnorm_wordpool_576.txt	LTP246	ltpFR2	21	1	TURNIP	1521	n/a	n/a	0	0	0
137075	WORD	wordpools/wasnorm_wordpool_576.txt	LTP246	ltpFR2	21	1	JUGGLER	763	n/a	n/a	0	0	0
139728	WORD	wordpools/wasnorm_wordpool_576.txt	LTP246	ltpFR2	21	1	THREAD	1460	n/a	n/a	0	0	0
142363	WORD	wordpools/wasnorm_wordpool_576.txt	LTP246	ltpFR2	21	1	SUNRISE	1407	n/a	n/a	0	0	0
144966	WORD	wordpools/wasnorm_wordpool_576.txt	LTP246	ltpFR2	21	1	SHOULDER	1294	n/a	n/a	0	0	0
147785	WORD	wordpools/wasnorm_wordpool_576.txt	LTP246	ltpFR2	21	1	ROBIN	1199	n/a	n/a	0	0	0
150553	WORD	wordpools/wasnorm_wordpool_576.txt	LTP246	ltpFR2	21	1	KLEENEX	782	n/a	n/a	0	0	0
152171	START	n/a	LTP246	ltpFR2	21	n/a	n/a	n/a	1	n/a	n/a	n/a	n/a
153021	DISTRACTOR	n/a	LTP246	ltpFR2	21	1	n/a	n/a	n/a	n/a	0	0	0
153038	PROB	n/a	LTP246	ltpFR2	21	n/a	n/a	n/a	1	23	9	6	8
155390	PROB	n/a	LTP246	ltpFR2	21	n/a	n/a	n/a	1	20	2	9	9
158442	PROB	n/a	LTP246	ltpFR2	21	n/a	n/a	n/a	1	19	8	9	2
160260	PROB	n/a	LTP246	ltpFR2	21	n/a	n/a	n/a	1	22	9	9	4
161779	PROB	n/a	LTP246	ltpFR2	21	n/a	n/a	n/a	1	6	1	1	4
162947	PROB	n/a	LTP246	ltpFR2	21	n/a	n/a	n/a	1	12	6	1	5
163998	PROB	n/a	LTP246	ltpFR2	21	n/a	n/a	n/a	1	17	6	8	3
166565	PROB	n/a	LTP246	ltpFR2	21	n/a	n/a	n/a	1	14	9	4	1
168267	PROB	n/a	LTP246	ltpFR2	21	n/a	n/a	n/a	1	25	8	9	8
170085	PROB	n/a	LTP246	ltpFR2	21	n/a	n/a	n/a	1	21	9	6	7
173071	PROB	n/a	LTP246	ltpFR2	21	n/a	n/a	n/a	1	20	4	7	8
176134	STOP	n/a	LTP246	ltpFR2	21	n/a	n/a	n/a	1	n/a	n/a	n/a	n/a
178042	REC_START	n/a	LTP246	ltpFR2	21	1	n/a	n/a	n/a	n/a	0	0	0
181169	REC_WORD	wordpools/wasnorm_wordpool_576.txt	LTP246	ltpFR2	21	1	IGLOO	734	n/a	n/a	0	0	0
182890	REC_WORD	wordpools/wasnorm_wordpool_576.txt	LTP246	ltpFR2	21	1	GRAVE	658	n/a	n/a	0	0	0
187445	REC_WORD	wordpools/wasnorm_wordpool_576.txt	LTP246	ltpFR2	21	1	TREAT	1501	n/a	n/a	0	0	0
188722	REC_WORD	wordpools/wasnorm_wordpool_576.txt	LTP246	ltpFR2	21	1	SEAGULL	1261	n/a	n/a	0	0	0
190130	REC_WORD	wordpools/wasnorm_wordpool_576.txt	LTP246	ltpFR2	21	1	POISON	1096	n/a	n/a	0	0	0
191408	REC_WORD	wordpools/wasnorm_wordpool_576.txt	LTP246	ltpFR2	21	1	ACTRESS	6	n/a	n/a	0	0	0
192704	REC_WORD	wordpools/wasnorm_wordpool_576.txt	LTP246	ltpFR2	21	1	CRITIC	410	n/a	n/a	0	0	0
193848	REC_WORD	wordpools/wasnorm_wordpool_576.txt	LTP246	ltpFR2	21	1	FLUTE	585	n/a	n/a	0	0	0
195312	REC_WORD	wordpools/wasnorm_wordpool_576.txt	LTP246	ltpFR2	21	1	PERCH	1048	n/a	n/a	0	0	0
199937	REC_WORD	wordpools/wasnorm_wordpool_576.txt	LTP246	ltpFR2	21	1	FRAGRANCE	599	n/a	n/a	0	0	0
203365	REC_WORD	wordpools/wasnorm_wordpool_576.txt	LTP246	ltpFR2	21	1	PERFUME	1049	n/a	n/a	0	0	0
206624	REC_WORD	wordpools/wasnorm_wordpool_576.txt	LTP246	ltpFR2	21	1	SWORD	1423	n/a	n/a	0	0	0
208143	REC_WORD	wordpools/wasnorm_wordpool_576.txt	LTP246	ltpFR2	21	1	WRIST	1626	n/a	n/a	0	0	0
210142	REC_WORD	wordpools/wasnorm_wordpool_576.txt	LTP246	ltpFR2	21	1	ORANGE	980	n/a	n/a	0	0	0
212392	REC_WORD	wordpools/wasnorm_wordpool_576.txt	LTP246	ltpFR2	21	1	FLOWER	584	n/a	n/a	0	0	0
219053	REC_WORD	wordpools/wasnorm_wordpool_576.txt	LTP246	ltpFR2	21	1	MATCH	878	n/a	n/a	0	0	0
221736	REC_WORD	wordpools/wasnorm_wordpool_576.txt	LTP246	ltpFR2	21	1	ROCKET	1202	n/a	n/a	0	0	0
222855	REC_WORD	wordpools/wasnorm_wordpool_576.txt	LTP246	ltpFR2	21	1	TURNIP	1521	n/a	n/a	0	0	0
223995	REC_WORD	wordpools/wasnorm_wordpool_576.txt	LTP246	ltpFR2	21	1	JUGGLER	763	n/a	n/a	0	0	0
225049	REC_WORD	wordpools/wasnorm_wordpool_576.txt	LTP246	ltpFR2	21	1	THREAD	1460	n/a	n/a	0	0	0
228720	REC_WORD	wordpools/wasnorm_wordpool_576.txt	LTP246	ltpFR2	21	1	ROBIN	1199	n/a	n/a	0	0	0
230127	REC_WORD	wordpools/wasnorm_wordpool_576.txt	LTP246	ltpFR2	21	1	KLEENEX	782	n/a	n/a	0	0	0
268682	DISTRACTOR	n/a	LTP246	ltpFR2	21	2	n/a	n/a	n/a	n/a	0	0	0
268682	START	n/a	LTP246	ltpFR2	21	n/a	n/a	n/a	2	n/a	n/a	n/a	n/a
268715	PROB	n/a	LTP246	ltpFR2	21	n/a	n/a	n/a	2	16	6	9	1
270165	PROB	n/a	LTP246	ltpFR2	21	n/a	n/a	n/a	2	18	6	5	7
272083	PROB	n/a	LTP246	ltpFR2	21	n/a	n/a	n/a	2	21	4	7	8
273869	PROB	n/a	LTP246	ltpFR2	21	n/a	n/a	n/a	2	13	3	7	3
275219	PROB	n/a	LTP246	ltpFR2	21	n/a	n/a	n/a	2	17	7	3	7
276404	PROB	n/a	LTP246	ltpFR2	21	n/a	n/a	n/a	2	17	6	3	8
278205	PROB	n/a	LTP246	ltpFR2	21	n/a	n/a	n/a	2	20	5	7	8
280190	PROB	n/a	LTP246	ltpFR2	21	n/a	n/a	n/a	2	19	4	6	9
281441	PROB	n/a	LTP246	ltpFR2	21	n/a	n/a	n/a	2	9	4	4	1
282558	PROB	n/a	LTP246	ltpFR2	21	n/a	n/a	n/a	2	19	2	8	9
283877	PROB	n/a	LTP246	ltpFR2	21	n/a	n/a	n/a	2	25	9	8	8
285879	PROB	n/a	LTP246	ltpFR2	21	n/a	n/a	n/a	2	9	1	4	4
287680	PROB	n/a	LTP246	ltpFR2	21	n/a	n/a	n/a	2	1	8	1	3
289749	PROB	n/a	LTP246	ltpFR2	21	n/a	n/a	n/a	2	22	8	8	6
292346	STOP	n/a	LTP246	ltpFR2	21	n/a	n/a	n/a	2	n/a	n/a	n/a	n/a
293602	WORD	wordpools/wasnorm_wordpool_576.txt	LTP246	ltpFR2	21	2	LEADER	807	n/a	n/a	0	0	0
296052	WORD	wordpools/wasnorm_wordpool_576.txt	LTP246	ltpFR2	21	2	SCARF	1246	n/a	n/a	0	0	0
298656	WORD	wordpools/wasnorm_wordpool_576.txt	LTP246	ltpFR2	21	2	PUPPY	1144	n/a	n/a	0	0	0
301190	WORD	wordpools/wasnorm_wordpool_576.txt	LTP246	ltpFR2	21	2	WRENCH	1625	n/a	n/a	0	0	0
303810	WORD	wordpools/wasnorm_wordpool_576.txt	LTP246	ltpFR2	21	2	LAPEL	800	n/a	n/a	0	0	0
306344	WORD	wordpools/wasnorm_wordpool_576.txt	LTP246	ltpFR2	21	2	TRANSPLANT	1496	n/a	n/a	0	0	0
309113	WORD	wordpools/wasnorm_wordpool_576.txt	LTP246	ltpFR2	21	2	LADY	794	n/a	n/a	0	0	0
311900	WORD	wordpools/wasnorm_wordpool_576.txt	LTP246	ltpFR2	21	2	WOMAN	1620	n/a	n/a	0	0	0
314501	WORD	wordpools/wasnorm_wordpool_576.txt	LTP246	ltpFR2	21	2	RACKET	1155	n/a	n/a	0	0	0
317269	WORD	wordpools/wasnorm_wordpool_576.txt	LTP246	ltpFR2	21	2	HORSE	719	n/a	n/a	0	0	0
319739	WORD	wordpools/wasnorm_wordpool_576.txt	LTP246	ltpFR2	21	2	RATTLE	1170	n/a	n/a	0	0	0
322424	WORD	wordpools/wasnorm_wordpool_576.txt	LTP246	ltpFR2	21	2	SERVER	1272	n/a	n/a	0	0	0
325226	WORD	wordpools/wasnorm_wordpool_576.txt	LTP246	ltpFR2	21	2	BLENDER	136	n/a	n/a	0	0	0
327812	WORD	wordpools/wasnorm_wordpool_576.txt	LTP246	ltpFR2	21	2	SEAFOOD	1260	n/a	n/a	0	0	0
330280	WORD	wordpools/wasnorm_wordpool_576.txt	LTP246	ltpFR2	21	2	HEADBAND	696	n/a	n/a	0	0	0
333082	WORD	wordpools/wasnorm_wordpool_576.txt	LTP246	ltpFR2	21	2	GANGSTER	620	n/a	n/a	0	0	0
335852	WORD	wordpools/wasnorm_wordpool_576.txt	LTP246	ltpFR2	21	2	KETCHUP	771	n/a	n/a	0	0	0
338370	WORD	wordpools/wasnorm_wordpool_576.txt	LTP246	ltpFR2	21	2	FOOT	590	n/a	n/a	0	0	0
341205	WORD	wordpools/wasnorm_wordpool_576.txt	LTP246	ltpFR2	21	2	SHARK	1275	n/a	n/a	0	0	0
343775	WORD	wordpools/wasnorm_wordpool_576.txt	LTP246	ltpFR2	21	2	HEART	697	n/a	n/a	0	0	0
346360	WORD	wordpools/wasnorm_wordpool_576.txt	LTP246	ltpFR2	21	2	TOMBSTONE	1478	n/a	n/a	0	0	0
348979	WORD	wordpools/wasnorm_wordpool_576.txt	LTP246	ltpFR2	21	2	PIZZA	1079	n/a	n/a	0	0	0
351463	WORD	wordpools/wasnorm_wordpool_576.txt	LTP246	ltpFR2	21	2	DRAGON	492	n/a	n/a	0	0	0
353917	WORD	wordpools/wasnorm_wordpool_576.txt	LTP246	ltpFR2	21	2	TERMITE	1451	n/a	n/a	0	0	0
355550	START	n/a	LTP246	ltpFR2	21	n/a	n/a	n/a	3	n/a	n/a	n/a	n/a
356470	DISTRACTOR	n/a	LTP246	ltpFR2	21	2	n/a	n/a	n/a	n/a	0	0	0
356501	PROB	n/a	LTP246	ltpFR2	21	n/a	n/a	n/a	3	12	1	8	5
358553	PROB	n/a	LTP246	ltpFR2	21	n/a	n/a	n/a	3	6	2	1	3
359638	PROB	n/a	LTP246	ltpFR2	21	n/a	n/a	n/a	3	9	1	4	4
360655	PROB	n/a	LTP246	ltpFR2	21	n/a	n/a	n/a	3	19	9	2	8
361773	PROB	n/a	LTP246	ltpFR2	21	n/a	n/a	n/a	3	17	8	1	8
363123	PROB	n/a	LTP246	ltpFR2	21	n/a	n/a	n/a	3	16	9	5	2
364692	PROB	n/a	LTP246	ltpFR2	21	n/a	n/a	n/a	3	20	6	6	8
367143	PROB	n/a	LTP246	ltpFR2	21	n/a	n/a	n/a	3	15	8	4	3
368577	PROB	n/a	LTP246	ltpFR2	21	n/a	n/a	n/a	3	7	1	4	2
369896	PROB	n/a	LTP246	ltpFR2	21	n/a	n/a	n/a	3	21	5	8	8
371480	PROB	n/a	LTP246	ltpFR2	21	n/a	n/a	n/a	3	12	6	5	1
372598	PROB	n/a	LTP246	ltpFR2	21	n/a	n/a	n/a	3	22	9	8	5
375684	PROB	n/a	LTP246	ltpFR2	21	n/a	n/a	n/a	3	18	3	7	8
376835	PROB	n/a	LTP246	ltpFR2	21	n/a	n/a	n/a	3	14	9	3	2
378799	STOP	n/a	LTP246	ltpFR2	21	n/a	n/a	n/a	3	n/a	n/a	n/a	n/a
381489	REC_START	n/a	LTP246	ltpFR2	21	2	n/a	n/a	n/a	n/a	0	0	0
391824	REC_WORD	wordpools/wasnorm_wordpool_576.txt	LTP246	ltpFR2	21	2	TERMITE	1451	n/a	n/a	0	0	0
394418	REC_WORD	wordpools/wasnorm_wordpool_576.txt	LTP246	ltpFR2	21	2	DRAGON	492	n/a	n/a	0	0	0
395609	REC_WORD	wordpools/wasnorm_wordpool_576.txt	LTP246	ltpFR2	21	2	PIZZA	1079	n/a	n/a	0	0	0
396729	REC_WORD	wordpools/wasnorm_wordpool_576.txt	LTP246	ltpFR2	21	2	TOMBSTONE	1478	n/a	n/a	0	0	0
397899	REC_WORD	wordpools/wasnorm_wordpool_576.txt	LTP246	ltpFR2	21	2	SHARK	1275	n/a	n/a	0	0	0
399045	REC_WORD	wordpools/wasnorm_wordpool_576.txt	LTP246	ltpFR2	21	2	GANGSTER	620	n/a	n/a	0	0	0
400064	REC_WORD	wordpools/wasnorm_wordpool_576.txt	LTP246	ltpFR2	21	2	HEART	697	n/a	n/a	0	0	0
404112	REC_WORD	wordpools/wasnorm_wordpool_576.txt	LTP246	ltpFR2	21	2	FOOT	590	n/a	n/a	0	0	0
417803	REC_WORD	wordpools/wasnorm_wordpool_576.txt	LTP246	ltpFR2	21	2	LADY	794	n/a	n/a	0	0	0
419323	REC_WORD	wordpools/wasnorm_wordpool_576.txt	LTP246	ltpFR2	21	2	WOMAN	1620	n/a	n/a	0	0	0
420341	REC_WORD	wordpools/wasnorm_wordpool_576.txt	LTP246	ltpFR2	21	2	RACKET	1155	n/a	n/a	0	0	0
421297	REC_WORD	wordpools/wasnorm_wordpool_576.txt	LTP246	ltpFR2	21	2	HORSE	719	n/a	n/a	0	0	0
422336	REC_WORD	wordpools/wasnorm_wordpool_576.txt	LTP246	ltpFR2	21	2	TRANSPLANT	1496	n/a	n/a	0	0	0
424965	REC_WORD	wordpools/wasnorm_wordpool_576.txt	LTP246	ltpFR2	21	2	LEADER	807	n/a	n/a	0	0	0
425953	REC_WORD	wordpools/wasnorm_wordpool_576.txt	LTP246	ltpFR2	21	2	SCARF	1246	n/a	n/a	0	0	0
427205	REC_WORD	wordpools/wasnorm_wordpool_576.txt	LTP246	ltpFR2	21	2	PUPPY	1144	n/a	n/a	0	0	0
429074	REC_WORD	wordpools/wasnorm_wordpool_576.txt	LTP246	ltpFR2	21	2	LAPEL	800	n/a	n/a	0	0	0
430577	REC_WORD	wordpools/wasnorm_wordpool_576.txt	LTP246	ltpFR2	21	2	WRENCH	1625	n/a	n/a	0	0	0
472144	WORD	wordpools/wasnorm_wordpool_576.txt	LTP246	ltpFR2	21	3	TABLET	1427	n/a	n/a	0	0	0
474597	WORD	wordpools/wasnorm_wordpool_576.txt	LTP246	ltpFR2	21	3	WHISKERS	1605	n/a	n/a	0	0	0
477298	WORD	wordpools/wasnorm_wordpool_576.txt	LTP246	ltpFR2	21	3	HOSTESS	723	n/a	n/a	0	0	0
480067	WORD	wordpools/wasnorm_wordpool_576.txt	LTP246	ltpFR2	21	3	BODY	145	n/a	n/a	0	0	0
482770	WORD	wordpools/wasnorm_wordpool_576.txt	LTP246	ltpFR2	21	3	DIVER	476	n/a	n/a	0	0	0
485221	WORD	wordpools/wasnorm_wordpool_576.txt	LTP246	ltpFR2	21	3	FRIEND	606	n/a	n/a	0	0	0
487790	WORD	wordpools/wasnorm_wordpool_576.txt	LTP246	ltpFR2	21	3	STAR	1373	n/a	n/a	0	0	0
490626	WORD	wordpools/wasnorm_wordpool_576.txt	LTP246	ltpFR2	21	3	BUG	187	n/a	n/a	0	0	0
493110	WORD	wordpools/wasnorm_wordpool_576.txt	LTP246	ltpFR2	21	3	COCOON	339	n/a	n/a	0	0	0
495864	WORD	wordpools/wasnorm_wordpool_576.txt	LTP246	ltpFR2	21	3	HOUND	724	n/a	n/a	0	0	0
498498	WORD	wordpools/wasnorm_wordpool_576.txt	LTP246	ltpFR2	21	3	LEOPARD	812	n/a	n/a	0	0	0
501334	WORD	wordpools/wasnorm_wordpool_576.txt	LTP246	ltpFR2	21	3	WORLD	1622	n/a	n/a	0	0	0
503803	WORD	wordpools/wasnorm_wordpool_576.txt	LTP246	ltpFR2	21	3	FILM	565	n/a	n/a	0	0	0
506538	WORD	wordpools/wasnorm_wordpool_576.txt	LTP246	ltpFR2	21	3	MEAT	883	n/a	n/a	0	0	0
509357	WORD	wordpools/wasnorm_wordpool_576.txt	LTP246	ltpFR2	21	3	MARS	873	n/a	n/a	0	0	0
512126	WORD	wordpools/wasnorm_wordpool_576.txt	LTP246	ltpFR2	21	3	SHRUB	1299	n/a	n/a	0	0	0
514662	WORD	wordpools/wasnorm_wordpool_576.txt	LTP246	ltpFR2	21	3	FOREST	593	n/a	n/a	0	0	0
517346	WORD	wordpools/wasnorm_wordpool_576.txt	LTP246	ltpFR2	21	3	PARSLEY	1016	n/a	n/a	0	0	0
520165	WORD	wordpools/wasnorm_wordpool_576.txt	LTP246	ltpFR2	21	3	GREASE	660	n/a	n/a	0	0	0
522652	WORD	wordpools/wasnorm_wordpool_576.txt	LTP246	ltpFR2	21	3	CRUTCH	417	n/a	n/a	0	0	0
525370	WORD	wordpools/wasnorm_wordpool_576.txt	LTP246	ltpFR2	21	3	PENGUIN	1044	n/a	n/a	0	0	0
527956	WORD	wordpools/wasnorm_wordpool_576.txt	LTP246	ltpFR2	21	3	FREEZER	604	n/a	n/a	0	0	0
530474	WORD	wordpools/wasnorm_wordpool_576.txt	LTP246	ltpFR2	21	3	TAXI	1438	n/a	n/a	0	0	0
533076	WORD	wordpools/wasnorm_wordpool_576.txt	LTP246	ltpFR2	21	3	BUTCHER	203	n/a	n/a	0	0	0
534695	START	n/a	LTP246	ltpFR2	21	n/a	n/a	n/a	4	n/a	n/a	n/a	n/a
535658	DISTRACTOR	n/a	LTP246	ltpFR2	21	3	n/a	n/a	n/a	n/a	0	0	0
535679	PROB	n/a	LTP246	ltpFR2	21	n/a	n/a	n/a	4	9	1	6	2
537079	PROB	n/a	LTP246	ltpFR2	21	n/a	n/a	n/a	4	17	5	7	5
538347	PROB	n/a	LTP246	ltpFR2	21	n/a	n/a	n/a	4	16	4	4	8
539665	PROB	n/a	LTP246	ltpFR2	21	n/a	n/a	n/a	4	17	3	7	7
540850	PROB	n/a	LTP246	ltpFR2	21	n/a	n/a	n/a	4	15	5	2	8
542517	PROB	n/a	LTP246	ltpFR2	21	n/a	n/a	n/a	4	10	4	5	1
543985	PROB	n/a	LTP246	ltpFR2	21	n/a	n/a	n/a	4	8	1	3	4
545169	PROB	n/a	LTP246	ltpFR2	21	n/a	n/a	n/a	4	12	6	5	1
546203	PROB	n/a	LTP246	ltpFR2	21	n/a	n/a	n/a	4	18	3	9	6
547421	PROB	n/a	LTP246	ltpFR2	21	n/a	n/a	n/a	4	17	1	6	8
549105	PROB	n/a	LTP246	ltpFR2	21	n/a	n/a	n/a	4	15	6	1	8
550306	PROB	n/a	LTP246	ltpFR2	21	n/a	n/a	n/a	4	18	3	9	6
551708	PROB	n/a	LTP246	ltpFR2	21	n/a	n/a	n/a	4	15	5	6	4
553910	PROB	n/a	LTP246	ltpFR2	21	n/a	n/a	n/a	4	18	7	9	2
555043	PROB	n/a	LTP246	ltpFR2	21	n/a	n/a	n/a	4	14	6	6	2
556444	PROB	n/a	LTP246	ltpFR2	21	n/a	n/a	n/a	4	16	7	7	2
557661	STOP	n/a	LTP246	ltpFR2	21	n/a	n/a	n/a	4	n/a	n/a	n/a	n/a
560666	REC_START	n/a	LTP246	ltpFR2	21	3	n/a	n/a	n/a	n/a	0	0	0
579436	REC_WORD	wordpools/wasnorm_wordpool_576.txt	LTP246	ltpFR2	21	3	MARS	873	n/a	n/a	0	0	0
581434	REC_WORD	wordpools/wasnorm_wordpool_576.txt	LTP246	ltpFR2	21	3	MEAT	883	n/a	n/a	0	0	0
583028	REC_WORD	wordpools/wasnorm_wordpool_576.txt	LTP246	ltpFR2	21	3	SHRUB	1299	n/a	n/a	0	0	0
584507	REC_WORD	wordpools/wasnorm_wordpool_576.txt	LTP246	ltpFR2	21	3	FOREST	593	n/a	n/a	0	0	0
586044	REC_WORD	wordpools/wasnorm_wordpool_576.txt	LTP246	ltpFR2	21	3	PARSLEY	1016	n/a	n/a	0	0	0
590996	REC_WORD	wordpools/wasnorm_wordpool_576.txt	LTP246	ltpFR2	21	3	GREASE	660	n/a	n/a	0	0	0
597232	REC_WORD	wordpools/wasnorm_wordpool_576.txt	LTP246	ltpFR2	21	3	TABLET	1427	n/a	n/a	0	0	0
598966	REC_WORD	wordpools/wasnorm_wordpool_576.txt	LTP246	ltpFR2	21	3	WHISKERS	1605	n/a	n/a	0	0	0
601531	REC_WORD	wordpools/wasnorm_wordpool_576.txt	LTP246	ltpFR2	21	3	HOSTESS	723	n/a	n/a	0	0	0
602858	REC_WORD	wordpools/wasnorm_wordpool_576.txt	LTP246	ltpFR2	21	3	BODY	145	n/a	n/a	0	0	0
603920	REC_WORD	wordpools/wasnorm_wordpool_576.txt	LTP246	ltpFR2	21	3	DIVER	476	n/a	n/a	0	0	0
604910	REC_WORD	wordpools/wasnorm_wordpool_576.txt	LTP246	ltpFR2	21	3	FRIEND	606	n/a	n/a	0	0	0
605985	REC_WORD	wordpools/wasnorm_wordpool_576.txt	LTP246	ltpFR2	21	3	STAR	1373	n/a	n/a	0	0	0
608551	REC_WORD	wordpools/wasnorm_wordpool_576.txt	LTP246	ltpFR2	21	3	COCOON	339	n/a	n/a	0	0	0
609835	REC_WORD	wordpools/wasnorm_wordpool_576.txt	LTP246	ltpFR2	21	3	BUG	187	n/a	n/a	0	0	0
610632	REC_WORD	wordpools/wasnorm_wordpool_576.txt	LTP246	ltpFR2	21	3	HOUND	724	n/a	n/a	0	0	0
611619	REC_WORD	wordpools/wasnorm_wordpool_576.txt	LTP246	ltpFR2	21	3	LEOPARD	812	n/a	n/a	0	0	0
651321	DISTRACTOR	n/a	LTP246	ltpFR2	21	4	n/a	n/a	n/a	n/a	0	0	0
651321	START	n/a	LTP246	ltpFR2	21	n/a	n/a	n/a	5	n/a	n/a	n/a	n/a
651354	PROB	n/a	LTP246	ltpFR2	21	n/a	n/a	n/a	5	16	8	1	7
652522	PROB	n/a	LTP246	ltpFR2	21	n/a	n/a	n/a	5	15	5	4	6
653657	PROB	n/a	LTP246	ltpFR2	21	n/a	n/a	n/a	5	20	9	7	4
658193	PROB	n/a	LTP246	ltpFR2	21	n/a	n/a	n/a	5	19	7	9	3
659945	PROB	n/a	LTP246	ltpFR2	21	n/a	n/a	n/a	5	11	4	3	4
662313	PROB	n/a	LTP246	ltpFR2	21	n/a	n/a	n/a	5	14	6	4	4
663464	PROB	n/a	LTP246	ltpFR2	21	n/a	n/a	n/a	5	19	8	6	5
664749	PROB	n/a	LTP246	ltpFR2	21	n/a	n/a	n/a	5	14	2	5	7
666516	PROB	n/a	LTP246	ltpFR2	21	n/a	n/a	n/a	5	17	2	6	9
668584	PROB	n/a	LTP246	ltpFR2	21	n/a	n/a	n/a	5	23	6	8	9
671020	PROB	n/a	LTP246	ltpFR2	21	n/a	n/a	n/a	5	19	6	4	9
672371	PROB	n/a	LTP246	ltpFR2	21	n/a	n/a	n/a	5	11	3	1	7
673572	PROB	n/a	LTP246	ltpFR2	21	n/a	n/a	n/a	5	12	2	5	5
674602	STOP	n/a	LTP246	ltpFR2	21	n/a	n/a	n/a	5	n/a	n/a	n/a	n/a
676190	WORD	wordpools/wasnorm_wordpool_576.txt	LTP246	ltpFR2	21	4	COURSE	390	n/a	n/a	0	0	0
678660	WORD	wordpools/wasnorm_wordpool_576.txt	LTP246	ltpFR2	21	4	PICNIC	1060	n/a	n/a	0	0	0
681178	WORD	wordpools/wasnorm_wordpool_576.txt	LTP246	ltpFR2	21	4	NIGHTGOWN	953	n/a	n/a	0	0	0
683897	WORD	wordpools/wasnorm_wordpool_576.txt	LTP246	ltpFR2	21	4	SUBWAY	1400	n/a	n/a	0	0	0
686549	WORD	wordpools/wasnorm_wordpool_576.txt	LTP246	ltpFR2	21	4	ARMY	39	n/a	n/a	0	0	0
689184	WORD	wordpools/wasnorm_wordpool_576.txt	LTP246	ltpFR2	21	4	PRIMATE	1123	n/a	n/a	0	0	0
691771	WORD	wordpools/wasnorm_wordpool_576.txt	LTP246	ltpFR2	21	4	MILDEW	893	n/a	n/a	0	0	0
694488	WORD	wordpools/wasnorm_wordpool_576.txt	LTP246	ltpFR2	21	4	SALMON	1227	n/a	n/a	0	0	0
697107	WORD	wordpools/wasnorm_wordpool_576.txt	LTP246	ltpFR2	21	4	COFFEE	341	n/a	n/a	0	0	0
699576	WORD	wordpools/wasnorm_wordpool_576.txt	LTP246	ltpFR2	21	4	SUPPER	1411	n/a	n/a	0	0	0
702361	WORD	wordpools/wasnorm_wordpool_576.txt	LTP246	ltpFR2	21	4	PUDDLE	1140	n/a	n/a	0	0	0
705080	WORD	wordpools/wasnorm_wordpool_576.txt	LTP246	ltpFR2	21	4	BLACKBOARD	133	n/a	n/a	0	0	0
707717	WORD	wordpools/wasnorm_wordpool_576.txt	LTP246	ltpFR2	21	4	LASER	801	n/a	n/a	0	0	0
710334	WORD	wordpools/wasnorm_wordpool_576.txt	LTP246	ltpFR2	21	4	LUMBER	848	n/a	n/a	0	0	0
712904	WORD	wordpools/wasnorm_wordpool_576.txt	LTP246	ltpFR2	21	4	HEDGE	699	n/a	n/a	0	0	0
715422	WORD	wordpools/wasnorm_wordpool_576.txt	LTP246	ltpFR2	21	4	PLAYGROUND	1087	n/a	n/a	0	0	0
718174	WORD	wordpools/wasnorm_wordpool_576.txt	LTP246	ltpFR2	21	4	BRACES	164	n/a	n/a	0	0	0
720944	WORD	wordpools/wasnorm_wordpool_576.txt	LTP246	ltpFR2	21	4	WAGON	1578	n/a	n/a	0	0	0
723713	WORD	wordpools/wasnorm_wordpool_576.txt	LTP246	ltpFR2	21	4	WHISTLE	1606	n/a	n/a	0	0	0
726531	WORD	wordpools/wasnorm_wordpool_576.txt	LTP246	ltpFR2	21	4	EUROPE	541	n/a	n/a	0	0	0
728984	WORD	wordpools/wasnorm_wordpool_576.txt	LTP246	ltpFR2	21	4	WIFE	1609	n/a	n/a	0	0	0
731585	WORD	wordpools/wasnorm_wordpool_576.txt	LTP246	ltpFR2	21	4	SPOUSE	1358	n/a	n/a	0	0	0
734320	WORD	wordpools/wasnorm_wordpool_576.txt	LTP246	ltpFR2	21	4	PEBBLE	1035	n/a	n/a	0	0	0
736973	WORD	wordpools/wasnorm_wordpool_576.txt	LTP246	ltpFR2	21	4	LAVA	804	n/a	n/a	0	0	0
738592	START	n/a	LTP246	ltpFR2	21	n/a	n/a	n/a	6	n/a	n/a	n/a	n/a
739405	DISTRACTOR	n/a	LTP246	ltpFR2	21	4	n/a	n/a	n/a	n/a	0	0	0
739424	PROB	n/a	LTP246	ltpFR2	21	n/a	n/a	n/a	6	18	7	7	4
740927	PROB	n/a	LTP246	ltpFR2	21	n/a	n/a	n/a	6	18	9	2	7
742243	PROB	n/a	LTP246	ltpFR2	21	n/a	n/a	n/a	6	14	9	1	4
743612	PROB	n/a	LTP246	ltpFR2	21	n/a	n/a	n/a	6	9	2	3	4
745079	PROB	n/a	LTP246	ltpFR2	21	n/a	n/a	n/a	6	7	2	1	4
746547	PROB	n/a	LTP246	ltpFR2	21	n/a	n/a	n/a	6	7	1	4	2
747564	PROB	n/a	LTP246	ltpFR2	21	n/a	n/a	n/a	6	5	1	2	2
749000	PROB	n/a	LTP246	ltpFR2	21	n/a	n/a	n/a	6	22	5	8	9
751334	PROB	n/a	LTP246	ltpFR2	21	n/a	n/a	n/a	6	19	9	7	3
752485	PROB	n/a	LTP246	ltpFR2	21	n/a	n/a	n/a	6	19	8	5	6
754086	PROB	n/a	LTP246	ltpFR2	21	n/a	n/a	n/a	6	12	3	1	8
755571	PROB	n/a	LTP246	ltpFR2	21	n/a	n/a	n/a	6	10	5	1	4
757072	PROB	n/a	LTP246	ltpFR2	21	n/a	n/a	n/a	6	15	9	3	3
761580	STOP	n/a	LTP246	ltpFR2	21	n/a	n/a	n/a	6	n/a	n/a	n/a	n/a
764596	REC_START	n/a	LTP246	ltpFR2	21	4	n/a	n/a	n/a	n/a	0	0	0
766904	REC_WORD	wordpools/wasnorm_wordpool_576.txt	LTP246	ltpFR2	21	4	COURSE	390	n/a	n/a	0	0	0
768138	REC_WORD	wordpools/wasnorm_wordpool_576.txt	LTP246	ltpFR2	21	4	PICNIC	1060	n/a	n/a	0	0	0
769210	REC_WORD	wordpools/wasnorm_wordpool_576.txt	LTP246	ltpFR2	21	4	NIGHTGOWN	953	n/a	n/a	0	0	0
771255	REC_WORD	wordpools/wasnorm_wordpool_576.txt	LTP246	ltpFR2	21	4	SUBWAY	1400	n/a	n/a	0	0	0
773325	REC_WORD	wordpools/wasnorm_wordpool_576.txt	LTP246	ltpFR2	21	4	ARMY	39	n/a	n/a	0	0	0
774432	REC_WORD	wordpools/wasnorm_wordpool_576.txt	LTP246	ltpFR2	21	4	PRIMATE	1123	n/a	n/a	0	0	0
775726	REC_WORD	wordpools/wasnorm_wordpool_576.txt	LTP246	ltpFR2	21	4	MILDEW	893	n/a	n/a	0	0	0
776847	REC_WORD	wordpools/wasnorm_wordpool_576.txt	LTP246	ltpFR2	21	4	SALMON	1227	n/a	n/a	0	0	0
779859	REC_WORD	wordpools/wasnorm_wordpool_576.txt	LTP246	ltpFR2	21	4	COFFEE	341	n/a	n/a	0	0	0
780833	REC_WORD	wordpools/wasnorm_wordpool_576.txt	LTP246	ltpFR2	21	4	SUPPER	1411	n/a	n/a	0	0	0
782039	REC_WORD	wordpools/wasnorm_wordpool_576.txt	LTP246	ltpFR2	21	4	PUDDLE	1140	n/a	n/a	0	0	0
783277	REC_WORD	wordpools/wasnorm_wordpool_576.txt	LTP246	ltpFR2	21	4	BLACKBOARD	133	n/a	n/a	0	0	0
790211	REC_WORD	wordpools/wasnorm_wordpool_576.txt	LTP246	ltpFR2	21	4	LASER	801	n/a	n/a	0	0	0
791463	REC_WORD	wordpools/wasnorm_wordpool_576.txt	LTP246	ltpFR2	21	4	LUMBER	848	n/a	n/a	0	0	0
793154	REC_WORD	wordpools/wasnorm_wordpool_576.txt	LTP246	ltpFR2	21	4	HEDGE	699	n/a	n/a	0	0	0
794230	REC_WORD	wordpools/wasnorm_wordpool_576.txt	LTP246	ltpFR2	21	4	PLAYGROUND	1087	n/a	n/a	0	0	0
795533	REC_WORD	wordpools/wasnorm_wordpool_576.txt	LTP246	ltpFR2	21	4	BRACES	164	n/a	n/a	0	0	0
798338	REC_WORD	wordpools/wasnorm_wordpool_576.txt	LTP246	ltpFR2	21	4	WAGON	1578	n/a	n/a	0	0	0
803038	REC_WORD	wordpools/wasnorm_wordpool_576.txt	LTP246	ltpFR2	21	4	EUROPE	541	n/a	n/a	0	0	0
804165	REC_WORD	wordpools/wasnorm_wordpool_576.txt	LTP246	ltpFR2	21	4	WIFE	1609	n/a	n/a	0	0	0
805074	REC_WORD	wordpools/wasnorm_wordpool_576.txt	LTP246	ltpFR2	21	4	SPOUSE	1358	n/a	n/a	0	0	0
806370	REC_WORD	wordpools/wasnorm_wordpool_576.txt	LTP246	ltpFR2	21	4	LAVA	804	n/a	n/a	0	0	0
855267	WORD	wordpools/wasnorm_wordpool_576.txt	LTP246	ltpFR2	21	5	ATLAS	53	n/a	n/a	0	0	0
857787	WORD	wordpools/wasnorm_wordpool_576.txt	LTP246	ltpFR2	21	5	COMPASS	358	n/a	n/a	0	0	0
860288	WORD	wordpools/wasnorm_wordpool_576.txt	LTP246	ltpFR2	21	5	BIKE	125	n/a	n/a	0	0	0
862941	WORD	wordpools/wasnorm_wordpool_576.txt	LTP246	ltpFR2	21	5	FLIPPER	580	n/a	n/a	0	0	0
865610	WORD	wordpools/wasnorm_wordpool_576.txt	LTP246	ltpFR2	21	5	PILOT	1070	n/a	n/a	0	0	0
868061	WORD	wordpools/wasnorm_wordpool_576.txt	LTP246	ltpFR2	21	5	SPOOL	1356	n/a	n/a	0	0	0
870714	WORD	wordpools/wasnorm_wordpool_576.txt	LTP246	ltpFR2	21	5	SCALLOP	1242	n/a	n/a	0	0	0
873232	WORD	wordpools/wasnorm_wordpool_576.txt	LTP246	ltpFR2	21	5	RELISH	1183	n/a	n/a	0	0	0
875851	WORD	wordpools/wasnorm_wordpool_576.txt	LTP246	ltpFR2	21	5	SLOPE	1328	n/a	n/a	0	0	0
878569	WORD	wordpools/wasnorm_wordpool_576.txt	LTP246	ltpFR2	21	5	PORK	1108	n/a	n/a	0	0	0
881221	WORD	wordpools/wasnorm_wordpool_576.txt	LTP246	ltpFR2	21	5	SPARROW	1347	n/a	n/a	0	0	0
883791	WORD	wordpools/wasnorm_wordpool_576.txt	LTP246	ltpFR2	21	5	LADDER	793	n/a	n/a	0	0	0
886325	WORD	wordpools/wasnorm_wordpool_576.txt	LTP246	ltpFR2	21	5	SNAKE	1333	n/a	n/a	0	0	0
889161	WORD	wordpools/wasnorm_wordpool_576.txt	LTP246	ltpFR2	21	5	COBRA	336	n/a	n/a	0	0	0
891714	WORD	wordpools/wasnorm_wordpool_576.txt	LTP246	ltpFR2	21	5	BRIEFCASE	175	n/a	n/a	0	0	0
894365	WORD	wordpools/wasnorm_wordpool_576.txt	LTP246	ltpFR2	21	5	TROUT	1511	n/a	n/a	0	0	0
896935	WORD	wordpools/wasnorm_wordpool_576.txt	LTP246	ltpFR2	21	5	EMPIRE	530	n/a	n/a	0	0	0
899704	WORD	wordpools/wasnorm_wordpool_576.txt	LTP246	ltpFR2	21	5	ZEBRA	1635	n/a	n/a	0	0	0
902322	WORD	wordpools/wasnorm_wordpool_576.txt	LTP246	ltpFR2	21	5	BANJO	82	n/a	n/a	0	0	0
904875	WORD	wordpools/wasnorm_wordpool_576.txt	LTP246	ltpFR2	21	5	RECORD	1176	n/a	n/a	0	0	0
907459	WORD	wordpools/wasnorm_wordpool_576.txt	LTP246	ltpFR2	21	5	WASP	1593	n/a	n/a	0	0	0
909979	WORD	wordpools/wasnorm_wordpool_576.txt	LTP246	ltpFR2	21	5	BEEF	113	n/a	n/a	0	0	0
912714	WORD	wordpools/wasnorm_wordpool_576.txt	LTP246	ltpFR2	21	5	VIKING	1565	n/a	n/a	0	0	0
915198	WORD	wordpools/wasnorm_wordpool_576.txt	LTP246	ltpFR2	21	5	MUSTARD	935	n/a	n/a	0	0	0
916818	START	n/a	LTP246	ltpFR2	21	n/a	n/a	n/a	7	n/a	n/a	n/a	n/a
917856	DISTRACTOR	n/a	LTP246	ltpFR2	21	5	n/a	n/a	n/a	n/a	0	0	0
917885	PROB	n/a	LTP246	ltpFR2	21	n/a	n/a	n/a	7	7	1	4	2
919052	PROB	n/a	LTP246	ltpFR2	21	n/a	n/a	n/a	7	19	7	4	8
922037	PROB	n/a	LTP246	ltpFR2	21	n/a	n/a	n/a	7	10	3	5	2
923388	PROB	n/a	LTP246	ltpFR2	21	n/a	n/a	n/a	7	10	5	2	3
924573	PROB	n/a	LTP246	ltpFR2	21	n/a	n/a	n/a	7	21	9	5	7
926008	PROB	n/a	LTP246	ltpFR2	21	n/a	n/a	n/a	7	14	7	2	5
927676	PROB	n/a	LTP246	ltpFR2	21	n/a	n/a	n/a	7	16	3	9	4
928994	PROB	n/a	LTP246	ltpFR2	21	n/a	n/a	n/a	7	17	1	9	7
930394	PROB	n/a	LTP246	ltpFR2	21	n/a	n/a	n/a	7	12	3	3	6
931562	PROB	n/a	LTP246	ltpFR2	21	n/a	n/a	n/a	7	13	3	9	1
933530	PROB	n/a	LTP246	ltpFR2	21	n/a	n/a	n/a	7	13	2	3	8
935131	PROB	n/a	LTP246	ltpFR2	21	n/a	n/a	n/a	7	4	2	1	1
936265	PROB	n/a	LTP246	ltpFR2	21	n/a	n/a	n/a	7	15	8	5	2
940818	STOP	n/a	LTP246	ltpFR2	21	n/a	n/a	n/a	7	n/a	n/a	n/a	n/a
942705	REC_START	n/a	LTP246	ltpFR2	21	5	n/a	n/a	n/a	n/a	0	0	0
953240	REC_WORD	wordpools/wasnorm_wordpool_576.txt	LTP246	ltpFR2	21	5	RELISH	1183	n/a	n/a	0	0	0
955031	REC_WORD	wordpools/wasnorm_wordpool_576.txt	LTP246	ltpFR2	21	5	SPARROW	1347	n/a	n/a	0	0	0
957075	REC_WORD	wordpools/wasnorm_wordpool_576.txt	LTP246	ltpFR2	21	5	PORK	1108	n/a	n/a	0	0	0
958096	REC_WORD	wordpools/wasnorm_wordpool_576.txt	LTP246	ltpFR2	21	5	LADDER	793	n/a	n/a	0	0	0
959004	REC_WORD	wordpools/wasnorm_wordpool_576.txt	LTP246	ltpFR2	21	5	SNAKE	1333	n/a	n/a	0	0	0
960133	REC_WORD	wordpools/wasnorm_wordpool_576.txt	LTP246	ltpFR2	21	5	COBRA	336	n/a	n/a	0	0	0
961246	REC_WORD	wordpools/wasnorm_wordpool_576.txt	LTP246	ltpFR2	21	5	BRIEFCASE	175	n/a	n/a	0	0	0
964048	REC_WORD	wordpools/wasnorm_wordpool_576.txt	LTP246	ltpFR2	21	5	ZEBRA	1635	n/a	n/a	0	0	0
965276	REC_WORD	wordpools/wasnorm_wordpool_576.txt	LTP246	ltpFR2	21	5	EMPIRE	530	n/a	n/a	0	0	0
966350	REC_WORD	wordpools/wasnorm_wordpool_576.txt	LTP246	ltpFR2	21	5	BANJO	82	n/a	n/a	0	0	0
967335	REC_WORD	wordpools/wasnorm_wordpool_576.txt	LTP246	ltpFR2	21	5	RECORD	1176	n/a	n/a	0	0	0
968405	REC_WORD	wordpools/wasnorm_wordpool_576.txt	LTP246	ltpFR2	21	5	WASP	1593	n/a	n/a	0	0	0
969620	REC_WORD	wordpools/wasnorm_wordpool_576.txt	LTP246	ltpFR2	21	5	BEEF	113	n/a	n/a	0	0	0
1033377	DISTRACTOR	n/a	LTP246	ltpFR2	21	6	n/a	n/a	n/a	n/a	0	0	0
1033377	START	n/a	LTP246	ltpFR2	21	n/a	n/a	n/a	8	n/a	n/a	n/a	n/a
1033410	PROB	n/a	LTP246	ltpFR2	21	n/a	n/a	n/a	8	4	1	1	2
1034544	PROB	n/a	LTP246	ltpFR2	21	n/a	n/a	n/a	8	7	3	1	3
1035746	PROB	n/a	LTP246	ltpFR2	21	n/a	n/a	n/a	8	11	4	4	3
1037413	PROB	n/a	LTP246	ltpFR2	21	n/a	n/a	n/a	8	12	3	3	6
1038615	PROB	n/a	LTP246	ltpFR2	21	n/a	n/a	n/a	8	19	6	4	9
1039949	PROB	n/a	LTP246	ltpFR2	21	n/a	n/a	n/a	8	20	8	5	7
1044252	PROB	n/a	LTP246	ltpFR2	21	n/a	n/a	n/a	8	15	4	4	7
1046354	PROB	n/a	LTP246	ltpFR2	21	n/a	n/a	n/a	8	19	3	9	7
1048055	PROB	n/a	LTP246	ltpFR2	21	n/a	n/a	n/a	8	22	8	6	8
1049841	PROB	n/a	LTP246	ltpFR2	21	n/a	n/a	n/a	8	15	6	6	3
1051926	PROB	n/a	LTP246	ltpFR2	21	n/a	n/a	n/a	8	16	4	6	6
1053459	PROB	n/a	LTP246	ltpFR2	21	n/a	n/a	n/a	8	15	9	5	1
1057344	STOP	n/a	LTP246	ltpFR2	21	n/a	n/a	n/a	8	n/a	n/a	n/a	n/a
1058363	WORD	wordpools/wasnorm_wordpool_576.txt	LTP246	ltpFR2	21	6	ICING	732	n/a	n/a	0	0	0
1060816	WORD	wordpools/wasnorm_wordpool_576.txt	LTP246	ltpFR2	21	6	SHELF	1280	n/a	n/a	0	0	0
1063384	WORD	wordpools/wasnorm_wordpool_576.txt	LTP246	ltpFR2	21	6	STOVE	1388	n/a	n/a	0	0	0
1066053	WORD	wordpools/wasnorm_wordpool_576.txt	LTP246	ltpFR2	21	6	COIN	343	n/a	n/a	0	0	0
1068606	WORD	wordpools/wasnorm_wordpool_576.txt	LTP246	ltpFR2	21	6	BULLET	194	n/a	n/a	0	0	0
1071390	WORD	wordpools/wasnorm_wordpool_576.txt	LTP246	ltpFR2	21	6	LAKE	796	n/a	n/a	0	0	0
1074109	WORD	wordpools/wasnorm_wordpool_576.txt	LTP246	ltpFR2	21	6	HUMAN	726	n/a	n/a	0	0	0
1076596	WORD	wordpools/wasnorm_wordpool_576.txt	LTP246	ltpFR2	21	6	FINGER	567	n/a	n/a	0	0	0
1079313	WORD	wordpools/wasnorm_wordpool_576.txt	LTP246	ltpFR2	21	6	MARKET	871	n/a	n/a	0	0	0
1082000	WORD	wordpools/wasnorm_wordpool_576.txt	LTP246	ltpFR2	21	6	PLUTO	1092	n/a	n/a	0	0	0
1084702	WORD	wordpools/wasnorm_wordpool_576.txt	LTP246	ltpFR2	21	6	POET	1095	n/a	n/a	0	0	0
1087336	WORD	wordpools/wasnorm_wordpool_576.txt	LTP246	ltpFR2	21	6	CONTRACT	368	n/a	n/a	0	0	0
1089990	WORD	wordpools/wasnorm_wordpool_576.txt	LTP246	ltpFR2	21	6	COLONEL	348	n/a	n/a	0	0	0
1092507	WORD	wordpools/wasnorm_wordpool_576.txt	LTP246	ltpFR2	21	6	FLEET	578	n/a	n/a	0	0	0
1095026	WORD	wordpools/wasnorm_wordpool_576.txt	LTP246	ltpFR2	21	6	MUMMY	932	n/a	n/a	0	0	0
1097578	WORD	wordpools/wasnorm_wordpool_576.txt	LTP246	ltpFR2	21	6	MARINE	869	n/a	n/a	0	0	0
1100397	WORD	wordpools/wasnorm_wordpool_576.txt	LTP246	ltpFR2	21	6	CRAB	397	n/a	n/a	0	0	0
1103132	WORD	wordpools/wasnorm_wordpool_576.txt	LTP246	ltpFR2	21	6	SPHINX	1349	n/a	n/a	0	0	0
1105685	WORD	wordpools/wasnorm_wordpool_576.txt	LTP246	ltpFR2	21	6	PEDAL	1037	n/a	n/a	0	0	0
1108420	WORD	wordpools/wasnorm_wordpool_576.txt	LTP246	ltpFR2	21	6	VENUS	1557	n/a	n/a	0	0	0
1111239	WORD	wordpools/wasnorm_wordpool_576.txt	LTP246	ltpFR2	21	6	CAFE	216	n/a	n/a	0	0	0
1113775	WORD	wordpools/wasnorm_wordpool_576.txt	LTP246	ltpFR2	21	6	RAZOR	1171	n/a	n/a	0	0	0
1116276	WORD	wordpools/wasnorm_wordpool_576.txt	LTP246	ltpFR2	21	6	HATCHET	691	n/a	n/a	0	0	0
1119078	WORD	wordpools/wasnorm_wordpool_576.txt	LTP246	ltpFR2	21	6	BATHTUB	100	n/a	n/a	0	0	0
1120698	START	n/a	LTP246	ltpFR2	21	n/a	n/a	n/a	9	n/a	n/a	n/a	n/a
1121839	DISTRACTOR	n/a	LTP246	ltpFR2	21	6	n/a	n/a	n/a	n/a	0	0	0
1121865	PROB	n/a	LTP246	ltpFR2	21	n/a	n/a	n/a	9	16	8	6	2
1123265	PROB	n/a	LTP246	ltpFR2	21	n/a	n/a	n/a	9	24	8	8	8
1124399	PROB	n/a	LTP246	ltpFR2	21	n/a	n/a	n/a	9	12	5	3	4
1126218	PROB	n/a	LTP246	ltpFR2	21	n/a	n/a	n/a	9	16	6	6	4
1127268	PROB	n/a	LTP246	ltpFR2	21	n/a	n/a	n/a	9	9	6	2	1
1128269	PROB	n/a	LTP246	ltpFR2	21	n/a	n/a	n/a	9	17	7	4	6
1129270	PROB	n/a	LTP246	ltpFR2	21	n/a	n/a	n/a	9	21	7	8	6
1130722	PROB	n/a	LTP246	ltpFR2	21	n/a	n/a	n/a	9	16	4	3	9
1132439	PROB	n/a	LTP246	ltpFR2	21	n/a	n/a	n/a	9	19	8	2	9
1133591	PROB	n/a	LTP246	ltpFR2	21	n/a	n/a	n/a	9	21	8	8	5
1135091	PROB	n/a	LTP246	ltpFR2	21	n/a	n/a	n/a	9	18	5	6	7
1136760	PROB	n/a	LTP246	ltpFR2	21	n/a	n/a	n/a	9	17	9	3	5
1138210	PROB	n/a	LTP246	ltpFR2	21	n/a	n/a	n/a	9	16	3	8	5
1139779	PROB	n/a	LTP246	ltpFR2	21	n/a	n/a	n/a	9	10	5	1	4
1141046	PROB	n/a	LTP246	ltpFR2	21	n/a	n/a	n/a	9	10	7	1	2
1143147	STOP	n/a	LTP246	ltpFR2	21	n/a	n/a	n/a	9	n/a	n/a	n/a	n/a
1146602	REC_START	n/a	LTP246	ltpFR2	21	6	n/a	n/a	n/a	n/a	0	0	0
1177091	REC_WORD	wordpools/wasnorm_wordpool_576.txt	LTP246	ltpFR2	21	6	PLUTO	1092	n/a	n/a	0	0	0
1178774	REC_WORD	wordpools/wasnorm_wordpool_576.txt	LTP246	ltpFR2	21	6	VENUS	1557	n/a	n/a	0	0	0
1180308	REC_WORD	wordpools/wasnorm_wordpool_576.txt	LTP246	ltpFR2	21	6	BATHTUB	100	n/a	n/a	0	0	0
1181521	REC_WORD	wordpools/wasnorm_wordpool_576.txt	LTP246	ltpFR2	21	6	SPHINX	1349	n/a	n/a	0	0	0
1182835	REC_WORD	wordpools/wasnorm_wordpool_576.txt	LTP246	ltpFR2	21	6	PEDAL	1037	n/a	n/a	0	0	0
1184521	REC_WORD	wordpools/wasnorm_wordpool_576.txt	LTP246	ltpFR2	21	6	CAFE	216	n/a	n/a	0	0	0
1188270	REC_WORD	wordpools/wasnorm_wordpool_576.txt	LTP246	ltpFR2	21	6	ICING	732	n/a	n/a	0	0	0
1189208	REC_WORD	wordpools/wasnorm_wordpool_576.txt	LTP246	ltpFR2	21	6	SHELF	1280	n/a	n/a	0	0	0
1190361	REC_WORD	wordpools/wasnorm_wordpool_576.txt	LTP246	ltpFR2	21	6	STOVE	1388	n/a	n/a	0	0	0
1191756	REC_WORD	wordpools/wasnorm_wordpool_576.txt	LTP246	ltpFR2	21	6	COIN	343	n/a	n/a	0	0	0
1193101	REC_WORD	wordpools/wasnorm_wordpool_576.txt	LTP246	ltpFR2	21	6	BULLET	194	n/a	n/a	0	0	0
1194413	REC_WORD	wordpools/wasnorm_wordpool_576.txt	LTP246	ltpFR2	21	6	LAKE	796	n/a	n/a	0	0	0
1195458	REC_WORD	wordpools/wasnorm_wordpool_576.txt	LTP246	ltpFR2	21	6	HUMAN	726	n/a	n/a	0	0	0
1196725	REC_WORD	wordpools/wasnorm_wordpool_576.txt	LTP246	ltpFR2	21	6	FINGER	567	n/a	n/a	0	0	0
1198261	REC_WORD	wordpools/wasnorm_wordpool_576.txt	LTP246	ltpFR2	21	6	MARKET	871	n/a	n/a	0	0	0
1203451	REC_WORD	wordpools/wasnorm_wordpool_576.txt	LTP246	ltpFR2	21	6	COLONEL	348	n/a	n/a	0	0	0
1206563	REC_WORD	wordpools/wasnorm_wordpool_576.txt	LTP246	ltpFR2	21	6	FLEET	578	n/a	n/a	0	0	0
1208210	REC_WORD	wordpools/wasnorm_wordpool_576.txt	LTP246	ltpFR2	21	6	MUMMY	932	n/a	n/a	0	0	0
1209300	REC_WORD	wordpools/wasnorm_wordpool_576.txt	LTP246	ltpFR2	21	6	MARINE	869	n/a	n/a	0	0	0
1210508	REC_WORD	wordpools/wasnorm_wordpool_576.txt	LTP246	ltpFR2	21	6	CRAB	397	n/a	n/a	0	0	0
1237273	DISTRACTOR	n/a	LTP246	ltpFR2	21	7	n/a	n/a	n/a	n/a	0	0	0
1237273	START	n/a	LTP246	ltpFR2	21	n/a	n/a	n/a	10	n/a	n/a	n/a	n/a
1237307	PROB	n/a	LTP246	ltpFR2	21	n/a	n/a	n/a	10	15	9	2	4
1239508	PROB	n/a	LTP246	ltpFR2	21	n/a	n/a	n/a	10	12	4	4	4
1240543	PROB	n/a	LTP246	ltpFR2	21	n/a	n/a	n/a	10	20	7	8	5
1243328	PROB	n/a	LTP246	ltpFR2	21	n/a	n/a	n/a	10	10	3	6	1
1244847	PROB	n/a	LTP246	ltpFR2	21	n/a	n/a	n/a	10	12	8	1	3
1246180	PROB	n/a	LTP246	ltpFR2	21	n/a	n/a	n/a	10	14	8	5	1
1248617	PROB	n/a	LTP246	ltpFR2	21	n/a	n/a	n/a	10	19	8	9	2
1250117	PROB	n/a	LTP246	ltpFR2	21	n/a	n/a	n/a	10	15	5	7	3
1252637	PROB	n/a	LTP246	ltpFR2	21	n/a	n/a	n/a	10	15	7	5	3
1253637	PROB	n/a	LTP246	ltpFR2	21	n/a	n/a	n/a	10	18	9	6	3
1255438	PROB	n/a	LTP246	ltpFR2	21	n/a	n/a	n/a	10	20	7	4	9
1258290	PROB	n/a	LTP246	ltpFR2	21	n/a	n/a	n/a	10	17	7	6	4
1261072	STOP	n/a	LTP246	ltpFR2	21	n/a	n/a	n/a	10	n/a	n/a	n/a	n/a
1262310	WORD	wordpools/wasnorm_wordpool_576.txt	LTP246	ltpFR2	21	7	AIRPLANE	12	n/a	n/a	0	0	0
1264980	WORD	wordpools/wasnorm_wordpool_576.txt	LTP246	ltpFR2	21	7	SHOVEL	1295	n/a	n/a	0	0	0
1267832	WORD	wordpools/wasnorm_wordpool_576.txt	LTP246	ltpFR2	21	7	EYELASH	546	n/a	n/a	0	0	0
1270668	WORD	wordpools/wasnorm_wordpool_576.txt	LTP246	ltpFR2	21	7	CASHEW	253	n/a	n/a	0	0	0
1273302	WORD	wordpools/wasnorm_wordpool_576.txt	LTP246	ltpFR2	21	7	MISTER	901	n/a	n/a	0	0	0
1275822	WORD	wordpools/wasnorm_wordpool_576.txt	LTP246	ltpFR2	21	7	FEMALE	559	n/a	n/a	0	0	0
1278289	WORD	wordpools/wasnorm_wordpool_576.txt	LTP246	ltpFR2	21	7	BEAST	108	n/a	n/a	0	0	0
1281075	WORD	wordpools/wasnorm_wordpool_576.txt	LTP246	ltpFR2	21	7	GUARD	667	n/a	n/a	0	0	0
1283845	WORD	wordpools/wasnorm_wordpool_576.txt	LTP246	ltpFR2	21	7	BEAKER	104	n/a	n/a	0	0	0
1286630	WORD	wordpools/wasnorm_wordpool_576.txt	LTP246	ltpFR2	21	7	GARBAGE	622	n/a	n/a	0	0	0
1289198	WORD	wordpools/wasnorm_wordpool_576.txt	LTP246	ltpFR2	21	7	SUMMIT	1405	n/a	n/a	0	0	0
1292034	WORD	wordpools/wasnorm_wordpool_576.txt	LTP246	ltpFR2	21	7	ELBOW	520	n/a	n/a	0	0	0
1294620	WORD	wordpools/wasnorm_wordpool_576.txt	LTP246	ltpFR2	21	7	ITEM	746	n/a	n/a	0	0	0
1297288	WORD	wordpools/wasnorm_wordpool_576.txt	LTP246	ltpFR2	21	7	CLIMBER	323	n/a	n/a	0	0	0
1299808	WORD	wordpools/wasnorm_wordpool_576.txt	LTP246	ltpFR2	21	7	COLLEGE	346	n/a	n/a	0	0	0
1302442	WORD	wordpools/wasnorm_wordpool_576.txt	LTP246	ltpFR2	21	7	TEACHER	1440	n/a	n/a	0	0	0
1304945	WORD	wordpools/wasnorm_wordpool_576.txt	LTP246	ltpFR2	21	7	NECKLACE	940	n/a	n/a	0	0	0
1307614	WORD	wordpools/wasnorm_wordpool_576.txt	LTP246	ltpFR2	21	7	WAITRESS	1581	n/a	n/a	0	0	0
1310248	WORD	wordpools/wasnorm_wordpool_576.txt	LTP246	ltpFR2	21	7	CAMEL	223	n/a	n/a	0	0	0
1312768	WORD	wordpools/wasnorm_wordpool_576.txt	LTP246	ltpFR2	21	7	PEACH	1031	n/a	n/a	0	0	0
1315486	WORD	wordpools/wasnorm_wordpool_576.txt	LTP246	ltpFR2	21	7	LEG	809	n/a	n/a	0	0	0
1318255	WORD	wordpools/wasnorm_wordpool_576.txt	LTP246	ltpFR2	21	7	SALT	1229	n/a	n/a	0	0	0
1320891	WORD	wordpools/wasnorm_wordpool_576.txt	LTP246	ltpFR2	21	7	FOREHEAD	592	n/a	n/a	0	0	0
1323710	WORD	wordpools/wasnorm_wordpool_576.txt	LTP246	ltpFR2	21	7	FRECKLE	602	n/a	n/a	0	0	0
1325327	START	n/a	LTP246	ltpFR2	21	n/a	n/a	n/a	11	n/a	n/a	n/a	n/a
1326501	DISTRACTOR	n/a	LTP246	ltpFR2	21	7	n/a	n/a	n/a	n/a	0	0	0
1326528	PROB	n/a	LTP246	ltpFR2	21	n/a	n/a	n/a	11	10	6	3	1
1328163	PROB	n/a	LTP246	ltpFR2	21	n/a	n/a	n/a	11	20	9	5	6
1329414	PROB	n/a	LTP246	ltpFR2	21	n/a	n/a	n/a	11	21	8	7	6
1330983	PROB	n/a	LTP246	ltpFR2	21	n/a	n/a	n/a	11	14	3	6	5
1332466	PROB	n/a	LTP246	ltpFR2	21	n/a	n/a	n/a	11	12	4	2	6
1334217	PROB	n/a	LTP246	ltpFR2	21	n/a	n/a	n/a	11	10	5	2	3
1335369	PROB	n/a	LTP246	ltpFR2	21	n/a	n/a	n/a	11	15	7	5	3
1337053	PROB	n/a	LTP246	ltpFR2	21	n/a	n/a	n/a	11	22	9	9	6
1339790	PROB	n/a	LTP246	ltpFR2	21	n/a	n/a	n/a	11	9	2	4	3
1342341	PROB	n/a	LTP246	ltpFR2	21	n/a	n/a	n/a	11	20	9	9	2
1343876	PROB	n/a	LTP246	ltpFR2	21	n/a	n/a	n/a	11	18	3	6	9
1345176	PROB	n/a	LTP246	ltpFR2	21	n/a	n/a	n/a	11	16	4	5	7
1349327	STOP	n/a	LTP246	ltpFR2	21	n/a	n/a	n/a	11	n/a	n/a	n/a	n/a
1351282	REC_START	n/a	LTP246	ltpFR2	21	7	n/a	n/a	n/a	n/a	0	0	0
1355772	REC_WORD	wordpools/wasnorm_wordpool_576.txt	LTP246	ltpFR2	21	7	FOREHEAD	592	n/a	n/a	0	0	0
1357742	REC_WORD	wordpools/wasnorm_wordpool_576.txt	LTP246	ltpFR2	21	7	LEG	809	n/a	n/a	0	0	0
1361411	REC_WORD	wordpools/wasnorm_wordpool_576.txt	LTP246	ltpFR2	21	7	AIRPLANE	12	n/a	n/a	0	0	0
1362651	REC_WORD	wordpools/wasnorm_wordpool_576.txt	LTP246	ltpFR2	21	7	SHOVEL	1295	n/a	n/a	0	0	0
1364231	REC_WORD	wordpools/wasnorm_wordpool_576.txt	LTP246	ltpFR2	21	7	EYELASH	546	n/a	n/a	0	0	0
1365574	REC_WORD	wordpools/wasnorm_wordpool_576.txt	LTP246	ltpFR2	21	7	CASHEW	253	n/a	n/a	0	0	0
1369943	REC_WORD	wordpools/wasnorm_wordpool_576.txt	LTP246	ltpFR2	21	7	MISTER	901	n/a	n/a	0	0	0
1372569	REC_WORD	wordpools/wasnorm_wordpool_576.txt	LTP246	ltpFR2	21	7	FEMALE	559	n/a	n/a	0	0	0
1375647	REC_WORD	wordpools/wasnorm_wordpool_576.txt	LTP246	ltpFR2	21	7	BEAST	108	n/a	n/a	0	0	0
1378025	REC_WORD	wordpools/wasnorm_wordpool_576.txt	LTP246	ltpFR2	21	7	GUARD	667	n/a	n/a	0	0	0
1386392	REC_WORD	wordpools/wasnorm_wordpool_576.txt	LTP246	ltpFR2	21	7	SUMMIT	1405	n/a	n/a	0	0	0
1387696	REC_WORD	wordpools/wasnorm_wordpool_576.txt	LTP246	ltpFR2	21	7	ELBOW	520	n/a	n/a	0	0	0
1388862	REC_WORD	wordpools/wasnorm_wordpool_576.txt	LTP246	ltpFR2	21	7	ITEM	746	n/a	n/a	0	0	0
1389831	REC_WORD	wordpools/wasnorm_wordpool_576.txt	LTP246	ltpFR2	21	7	CLIMBER	323	n/a	n/a	0	0	0
1391132	REC_WORD	wordpools/wasnorm_wordpool_576.txt	LTP246	ltpFR2	21	7	COLLEGE	346	n/a	n/a	0	0	0
1392666	REC_WORD	wordpools/wasnorm_wordpool_576.txt	LTP246	ltpFR2	21	7	TEACHER	1440	n/a	n/a	0	0	0
1393921	REC_WORD	wordpools/wasnorm_wordpool_576.txt	LTP246	ltpFR2	21	7	NECKLACE	940	n/a	n/a	0	0	0
1394982	REC_WORD	wordpools/wasnorm_wordpool_576.txt	LTP246	ltpFR2	21	7	WAITRESS	1581	n/a	n/a	0	0	0
1396246	REC_WORD	wordpools/wasnorm_wordpool_576.txt	LTP246	ltpFR2	21	7	PEACH	1031	n/a	n/a	0	0	0
1398385	REC_WORD	wordpools/wasnorm_wordpool_576.txt	LTP246	ltpFR2	21	7	CAMEL	223	n/a	n/a	0	0	0
1500050	DISTRACTOR	n/a	LTP246	ltpFR2	21	8	n/a	n/a	n/a	n/a	0	0	0
1500051	START	n/a	LTP246	ltpFR2	21	n/a	n/a	n/a	12	n/a	n/a	n/a	n/a
1500084	PROB	n/a	LTP246	ltpFR2	21	n/a	n/a	n/a	12	11	2	5	4
1503738	PROB	n/a	LTP246	ltpFR2	21	n/a	n/a	n/a	12	8	1	3	4
1504989	PROB	n/a	LTP246	ltpFR2	21	n/a	n/a	n/a	12	23	8	9	6
1509843	PROB	n/a	LTP246	ltpFR2	21	n/a	n/a	n/a	12	13	4	6	3
1511109	PROB	n/a	LTP246	ltpFR2	21	n/a	n/a	n/a	12	17	9	3	5
1512678	PROB	n/a	LTP246	ltpFR2	21	n/a	n/a	n/a	12	22	5	8	9
1515162	PROB	n/a	LTP246	ltpFR2	21	n/a	n/a	n/a	12	21	7	5	9
1517314	PROB	n/a	LTP246	ltpFR2	21	n/a	n/a	n/a	12	14	4	3	7
1519199	PROB	n/a	LTP246	ltpFR2	21	n/a	n/a	n/a	12	16	8	7	1
1520835	PROB	n/a	LTP246	ltpFR2	21	n/a	n/a	n/a	12	26	9	8	9
1524051	STOP	n/a	LTP246	ltpFR2	21	n/a	n/a	n/a	12	n/a	n/a	n/a	n/a
1525070	WORD	wordpools/wasnorm_wordpool_576.txt	LTP246	ltpFR2	21	8	LONDON	843	n/a	n/a	0	0	0
1527807	WORD	wordpools/wasnorm_wordpool_576.txt	LTP246	ltpFR2	21	8	CONCERT	360	n/a	n/a	0	0	0
1530575	WORD	wordpools/wasnorm_wordpool_576.txt	LTP246	ltpFR2	21	8	HAMPER	682	n/a	n/a	0	0	0
1533194	WORD	wordpools/wasnorm_wordpool_576.txt	LTP246	ltpFR2	21	8	ARM	38	n/a	n/a	0	0	0
1535930	WORD	wordpools/wasnorm_wordpool_576.txt	LTP246	ltpFR2	21	8	ANKLE	24	n/a	n/a	0	0	0
1538716	WORD	wordpools/wasnorm_wordpool_576.txt	LTP246	ltpFR2	21	8	PLAID	1080	n/a	n/a	0	0	0
1541517	WORD	wordpools/wasnorm_wordpool_576.txt	LTP246	ltpFR2	21	8	GOBLIN	645	n/a	n/a	0	0	0
1544169	WORD	wordpools/wasnorm_wordpool_576.txt	LTP246	ltpFR2	21	8	XEROX	1628	n/a	n/a	0	0	0
1546806	WORD	wordpools/wasnorm_wordpool_576.txt	LTP246	ltpFR2	21	8	DINER	467	n/a	n/a	0	0	0
1549390	WORD	wordpools/wasnorm_wordpool_576.txt	LTP246	ltpFR2	21	8	DRUG	501	n/a	n/a	0	0	0
1551876	WORD	wordpools/wasnorm_wordpool_576.txt	LTP246	ltpFR2	21	8	FLAG	573	n/a	n/a	0	0	0
1554712	WORD	wordpools/wasnorm_wordpool_576.txt	LTP246	ltpFR2	21	8	DRINK	498	n/a	n/a	0	0	0
1557396	WORD	wordpools/wasnorm_wordpool_576.txt	LTP246	ltpFR2	21	8	CHEST	295	n/a	n/a	0	0	0
1560232	WORD	wordpools/wasnorm_wordpool_576.txt	LTP246	ltpFR2	21	8	EAGLE	512	n/a	n/a	0	0	0
1562735	WORD	wordpools/wasnorm_wordpool_576.txt	LTP246	ltpFR2	21	8	AIRPORT	13	n/a	n/a	0	0	0
1565469	WORD	wordpools/wasnorm_wordpool_576.txt	LTP246	ltpFR2	21	8	LUGGAGE	847	n/a	n/a	0	0	0
1567939	WORD	wordpools/wasnorm_wordpool_576.txt	LTP246	ltpFR2	21	8	FRAME	600	n/a	n/a	0	0	0
1570523	WORD	wordpools/wasnorm_wordpool_576.txt	LTP246	ltpFR2	21	8	GLASS	639	n/a	n/a	0	0	0
1573059	WORD	wordpools/wasnorm_wordpool_576.txt	LTP246	ltpFR2	21	8	SCULPTURE	1258	n/a	n/a	0	0	0
1575762	WORD	wordpools/wasnorm_wordpool_576.txt	LTP246	ltpFR2	21	8	DRAWING	494	n/a	n/a	0	0	0
1578313	WORD	wordpools/wasnorm_wordpool_576.txt	LTP246	ltpFR2	21	8	POSSUM	1112	n/a	n/a	0	0	0
1581082	WORD	wordpools/wasnorm_wordpool_576.txt	LTP246	ltpFR2	21	8	BUREAU	199	n/a	n/a	0	0	0
1583602	WORD	wordpools/wasnorm_wordpool_576.txt	LTP246	ltpFR2	21	8	MARROW	872	n/a	n/a	0	0	0
1586069	WORD	wordpools/wasnorm_wordpool_576.txt	LTP246	ltpFR2	21	8	SCOTCH	1251	n/a	n/a	0	0	0
1587688	START	n/a	LTP246	ltpFR2	21	n/a	n/a	n/a	13	n/a	n/a	n/a	n/a
1588867	DISTRACTOR	n/a	LTP246	ltpFR2	21	8	n/a	n/a	n/a	n/a	0	0	0
1588889	PROB	n/a	LTP246	ltpFR2	21	n/a	n/a	n/a	13	10	2	6	2
1590323	PROB	n/a	LTP246	ltpFR2	21	n/a	n/a	n/a	13	12	1	3	8
1591540	PROB	n/a	LTP246	ltpFR2	21	n/a	n/a	n/a	13	19	4	8	7
1596194	PROB	n/a	LTP246	ltpFR2	21	n/a	n/a	n/a	13	17	4	5	8
1599046	PROB	n/a	LTP246	ltpFR2	21	n/a	n/a	n/a	13	16	7	8	1
1600281	PROB	n/a	LTP246	ltpFR2	21	n/a	n/a	n/a	13	6	5	2	1
1601750	PROB	n/a	LTP246	ltpFR2	21	n/a	n/a	n/a	13	18	4	5	9
1603483	PROB	n/a	LTP246	ltpFR2	21	n/a	n/a	n/a	13	9	2	3	4
1604702	PROB	n/a	LTP246	ltpFR2	21	n/a	n/a	n/a	13	12	2	5	5
1605819	PROB	n/a	LTP246	ltpFR2	21	n/a	n/a	n/a	13	15	8	4	3
1609889	PROB	n/a	LTP246	ltpFR2	21	n/a	n/a	n/a	13	17	6	1	7
1611149	STOP	n/a	LTP246	ltpFR2	21	n/a	n/a	n/a	13	n/a	n/a	n/a	n/a
1613643	REC_START	n/a	LTP246	ltpFR2	21	8	n/a	n/a	n/a	n/a	0	0	0
1617159	REC_WORD	wordpools/wasnorm_wordpool_576.txt	LTP246	ltpFR2	21	8	LONDON	843	n/a	n/a	0	0	0
1618661	REC_WORD	wordpools/wasnorm_wordpool_576.txt	LTP246	ltpFR2	21	8	CONCERT	360	n/a	n/a	0	0	0
1620068	REC_WORD	wordpools/wasnorm_wordpool_576.txt	LTP246	ltpFR2	21	8	HAMPER	682	n/a	n/a	0	0	0
1622177	REC_WORD	wordpools/wasnorm_wordpool_576.txt	LTP246	ltpFR2	21	8	ARM	38	n/a	n/a	0	0	0
1623896	REC_WORD	wordpools/wasnorm_wordpool_576.txt	LTP246	ltpFR2	21	8	ANKLE	24	n/a	n/a	0	0	0
1625682	REC_WORD	wordpools/wasnorm_wordpool_576.txt	LTP246	ltpFR2	21	8	PLAID	1080	n/a	n/a	0	0	0
1627480	REC_WORD	wordpools/wasnorm_wordpool_576.txt	LTP246	ltpFR2	21	8	GOBLIN	645	n/a	n/a	0	0	0
1628632	REC_WORD	wordpools/wasnorm_wordpool_576.txt	LTP246	ltpFR2	21	8	XEROX	1628	n/a	n/a	0	0	0
1630137	REC_WORD	wordpools/wasnorm_wordpool_576.txt	LTP246	ltpFR2	21	8	DINER	467	n/a	n/a	0	0	0
1631242	REC_WORD	wordpools/wasnorm_wordpool_576.txt	LTP246	ltpFR2	21	8	DRUG	501	n/a	n/a	0	0	0
1632336	REC_WORD	wordpools/wasnorm_wordpool_576.txt	LTP246	ltpFR2	21	8	FLAG	573	n/a	n/a	0	0	0
1633936	REC_WORD	wordpools/wasnorm_wordpool_576.txt	LTP246	ltpFR2	21	8	DRINK	498	n/a	n/a	0	0	0
1635119	REC_WORD	wordpools/wasnorm_wordpool_576.txt	LTP246	ltpFR2	21	8	CHEST	295	n/a	n/a	0	0	0
1636521	REC_WORD	wordpools/wasnorm_wordpool_576.txt	LTP246	ltpFR2	21	8	EAGLE	512	n/a	n/a	0	0	0
1643200	REC_WORD	wordpools/wasnorm_wordpool_576.txt	LTP246	ltpFR2	21	8	AIRPORT	13	n/a	n/a	0	0	0
1644474	REC_WORD	wordpools/wasnorm_wordpool_576.txt	LTP246	ltpFR2	21	8	LUGGAGE	847	n/a	n/a	0	0	0
1646142	REC_WORD	wordpools/wasnorm_wordpool_576.txt	LTP246	ltpFR2	21	8	FRAME	600	n/a	n/a	0	0	0
1647245	REC_WORD	wordpools/wasnorm_wordpool_576.txt	LTP246	ltpFR2	21	8	GLASS	639	n/a	n/a	0	0	0
1648181	REC_WORD	wordpools/wasnorm_wordpool_576.txt	LTP246	ltpFR2	21	8	SCULPTURE	1258	n/a	n/a	0	0	0
1649493	REC_WORD	wordpools/wasnorm_wordpool_576.txt	LTP246	ltpFR2	21	8	DRAWING	494	n/a	n/a	0	0	0
1650589	REC_WORD	wordpools/wasnorm_wordpool_576.txt	LTP246	ltpFR2	21	8	POSSUM	1112	n/a	n/a	0	0	0
1654014	REC_WORD	wordpools/wasnorm_wordpool_576.txt	LTP246	ltpFR2	21	8	BUREAU	199	n/a	n/a	0	0	0
1656356	REC_WORD	wordpools/wasnorm_wordpool_576.txt	LTP246	ltpFR2	21	8	MARROW	872	n/a	n/a	0	0	0
1657759	REC_WORD	wordpools/wasnorm_wordpool_576.txt	LTP246	ltpFR2	21	8	SCOTCH	1251	n/a	n/a	0	0	0
1690203	REST_REWET	n/a	LTP246	ltpFR2	21	8	n/a	n/a	n/a	n/a	0	0	0
1971863	WORD	wordpools/wasnorm_wordpool_576.txt	LTP246	ltpFR2	21	9	CABBAGE	210	n/a	n/a	0	0	0
1974497	WORD	wordpools/wasnorm_wordpool_576.txt	LTP246	ltpFR2	21	9	CITRUS	313	n/a	n/a	0	0	0
1976950	WORD	wordpools/wasnorm_wordpool_576.txt	LTP246	ltpFR2	21	9	NOMAD	955	n/a	n/a	0	0	0
1979669	WORD	wordpools/wasnorm_wordpool_576.txt	LTP246	ltpFR2	21	9	SLIDE	1326	n/a	n/a	0	0	0
1982270	WORD	wordpools/wasnorm_wordpool_576.txt	LTP246	ltpFR2	21	9	PACKAGE	997	n/a	n/a	0	0	0
1984740	WORD	wordpools/wasnorm_wordpool_576.txt	LTP246	ltpFR2	21	9	PLIERS	1089	n/a	n/a	0	0	0
1987341	WORD	wordpools/wasnorm_wordpool_576.txt	LTP246	ltpFR2	21	9	LAMP	798	n/a	n/a	0	0	0
1989861	WORD	wordpools/wasnorm_wordpool_576.txt	LTP246	ltpFR2	21	9	PIGMENT	1066	n/a	n/a	0	0	0
1992445	WORD	wordpools/wasnorm_wordpool_576.txt	LTP246	ltpFR2	21	9	THRONE	1461	n/a	n/a	0	0	0
1995280	WORD	wordpools/wasnorm_wordpool_576.txt	LTP246	ltpFR2	21	9	VALLEY	1545	n/a	n/a	0	0	0
1997783	WORD	wordpools/wasnorm_wordpool_576.txt	LTP246	ltpFR2	21	9	GLOVE	642	n/a	n/a	0	0	0
2000518	WORD	wordpools/wasnorm_wordpool_576.txt	LTP246	ltpFR2	21	9	NOVEL	960	n/a	n/a	0	0	0
2003337	WORD	wordpools/wasnorm_wordpool_576.txt	LTP246	ltpFR2	21	9	PRINCE	1124	n/a	n/a	0	0	0
2006007	WORD	wordpools/wasnorm_wordpool_576.txt	LTP246	ltpFR2	21	9	MUFFIN	929	n/a	n/a	0	0	0
2008659	WORD	wordpools/wasnorm_wordpool_576.txt	LTP246	ltpFR2	21	9	FRIAR	605	n/a	n/a	0	0	0
2011377	WORD	wordpools/wasnorm_wordpool_576.txt	LTP246	ltpFR2	21	9	BOUQUET	157	n/a	n/a	0	0	0
2013846	WORD	wordpools/wasnorm_wordpool_576.txt	LTP246	ltpFR2	21	9	TRIBE	1505	n/a	n/a	0	0	0
2016464	WORD	wordpools/wasnorm_wordpool_576.txt	LTP246	ltpFR2	21	9	PISTOL	1075	n/a	n/a	0	0	0
2019116	WORD	wordpools/wasnorm_wordpool_576.txt	LTP246	ltpFR2	21	9	RIFLE	1192	n/a	n/a	0	0	0
2021953	WORD	wordpools/wasnorm_wordpool_576.txt	LTP246	ltpFR2	21	9	BUNNY	198	n/a	n/a	0	0	0
2024605	WORD	wordpools/wasnorm_wordpool_576.txt	LTP246	ltpFR2	21	9	PEANUT	1032	n/a	n/a	0	0	0
2027256	WORD	wordpools/wasnorm_wordpool_576.txt	LTP246	ltpFR2	21	9	AUTHOR	61	n/a	n/a	0	0	0
2029926	WORD	wordpools/wasnorm_wordpool_576.txt	LTP246	ltpFR2	21	9	POWDER	1117	n/a	n/a	0	0	0
2032678	WORD	wordpools/wasnorm_wordpool_576.txt	LTP246	ltpFR2	21	9	CRIB	407	n/a	n/a	0	0	0
2034295	START	n/a	LTP246	ltpFR2	21	n/a	n/a	n/a	14	n/a	n/a	n/a	n/a
2035437	DISTRACTOR	n/a	LTP246	ltpFR2	21	9	n/a	n/a	n/a	n/a	0	0	0
2035463	PROB	n/a	LTP246	ltpFR2	21	n/a	n/a	n/a	14	9	2	4	3
2037164	PROB	n/a	LTP246	ltpFR2	21	n/a	n/a	n/a	14	24	9	9	6
2039549	PROB	n/a	LTP246	ltpFR2	21	n/a	n/a	n/a	14	11	4	3	4
2042135	PROB	n/a	LTP246	ltpFR2	21	n/a	n/a	n/a	14	15	3	4	8
2044070	PROB	n/a	LTP246	ltpFR2	21	n/a	n/a	n/a	14	1	1	5	6
2045087	PROB	n/a	LTP246	ltpFR2	21	n/a	n/a	n/a	14	20	9	6	5
2047122	PROB	n/a	LTP246	ltpFR2	21	n/a	n/a	n/a	14	18	8	5	5
2048256	PROB	n/a	LTP246	ltpFR2	21	n/a	n/a	n/a	14	13	8	3	2
2049792	PROB	n/a	LTP246	ltpFR2	21	n/a	n/a	n/a	14	23	9	6	8
2052644	PROB	n/a	LTP246	ltpFR2	21	n/a	n/a	n/a	14	14	6	6	2
2054011	PROB	n/a	LTP246	ltpFR2	21	n/a	n/a	n/a	14	20	5	9	6
2058294	STOP	n/a	LTP246	ltpFR2	21	n/a	n/a	n/a	14	n/a	n/a	n/a	n/a
2060316	REC_START	n/a	LTP246	ltpFR2	21	9	n/a	n/a	n/a	n/a	0	0	0
2073459	REC_WORD	wordpools/wasnorm_wordpool_576.txt	LTP246	ltpFR2	21	9	CABBAGE	210	n/a	n/a	0	0	0
2114085	REC_WORD	wordpools/wasnorm_wordpool_576.txt	LTP246	ltpFR2	21	9	FRIAR	605	n/a	n/a	0	0	0
2116257	REC_WORD	wordpools/wasnorm_wordpool_576.txt	LTP246	ltpFR2	21	9	BUNNY	198	n/a	n/a	0	0	0
2116996	REC_WORD	wordpools/wasnorm_wordpool_576.txt	LTP246	ltpFR2	21	9	TRIBE	1505	n/a	n/a	0	0	0
2117872	REC_WORD	wordpools/wasnorm_wordpool_576.txt	LTP246	ltpFR2	21	9	PISTOL	1075	n/a	n/a	0	0	0
2118647	REC_WORD	wordpools/wasnorm_wordpool_576.txt	LTP246	ltpFR2	21	9	RIFLE	1192	n/a	n/a	0	0	0
2151006	WORD	wordpools/wasnorm_wordpool_576.txt	LTP246	ltpFR2	21	10	CLOTHES	327	n/a	n/a	0	0	0
2153524	WORD	wordpools/wasnorm_wordpool_576.txt	LTP246	ltpFR2	21	10	MARKER	870	n/a	n/a	0	0	0
2156092	WORD	wordpools/wasnorm_wordpool_576.txt	LTP246	ltpFR2	21	10	PUDDING	1139	n/a	n/a	0	0	0
2158812	WORD	wordpools/wasnorm_wordpool_576.txt	LTP246	ltpFR2	21	10	JELLO	754	n/a	n/a	0	0	0
2161631	WORD	wordpools/wasnorm_wordpool_576.txt	LTP246	ltpFR2	21	10	TRUCK	1512	n/a	n/a	0	0	0
2164132	WORD	wordpools/wasnorm_wordpool_576.txt	LTP246	ltpFR2	21	10	CLAMP	316	n/a	n/a	0	0	0
2166619	WORD	wordpools/wasnorm_wordpool_576.txt	LTP246	ltpFR2	21	10	CASHIER	254	n/a	n/a	0	0	0
2169136	WORD	wordpools/wasnorm_wordpool_576.txt	LTP246	ltpFR2	21	10	YARN	1631	n/a	n/a	0	0	0
2171673	WORD	wordpools/wasnorm_wordpool_576.txt	LTP246	ltpFR2	21	10	SOFTBALL	1343	n/a	n/a	0	0	0
2174157	WORD	wordpools/wasnorm_wordpool_576.txt	LTP246	ltpFR2	21	10	STAPLE	1371	n/a	n/a	0	0	0
2176610	WORD	wordpools/wasnorm_wordpool_576.txt	LTP246	ltpFR2	21	10	BRANDY	169	n/a	n/a	0	0	0
2179161	WORD	wordpools/wasnorm_wordpool_576.txt	LTP246	ltpFR2	21	10	PAPER	1011	n/a	n/a	0	0	0
2181814	WORD	wordpools/wasnorm_wordpool_576.txt	LTP246	ltpFR2	21	10	OUTDOORS	987	n/a	n/a	0	0	0
2184365	WORD	wordpools/wasnorm_wordpool_576.txt	LTP246	ltpFR2	21	10	CREVICE	405	n/a	n/a	0	0	0
2186852	WORD	wordpools/wasnorm_wordpool_576.txt	LTP246	ltpFR2	21	10	COCKTAIL	338	n/a	n/a	0	0	0
2189453	WORD	wordpools/wasnorm_wordpool_576.txt	LTP246	ltpFR2	21	10	SKIRT	1319	n/a	n/a	0	0	0
2192071	WORD	wordpools/wasnorm_wordpool_576.txt	LTP246	ltpFR2	21	10	COUNTY	389	n/a	n/a	0	0	0
2194858	WORD	wordpools/wasnorm_wordpool_576.txt	LTP246	ltpFR2	21	10	BRANCH	168	n/a	n/a	0	0	0
2197644	WORD	wordpools/wasnorm_wordpool_576.txt	LTP246	ltpFR2	21	10	MAPLE	866	n/a	n/a	0	0	0
2200145	WORD	wordpools/wasnorm_wordpool_576.txt	LTP246	ltpFR2	21	10	BOX	159	n/a	n/a	0	0	0
2202731	WORD	wordpools/wasnorm_wordpool_576.txt	LTP246	ltpFR2	21	10	RUG	1215	n/a	n/a	0	0	0
2205482	WORD	wordpools/wasnorm_wordpool_576.txt	LTP246	ltpFR2	21	10	COSTUME	383	n/a	n/a	0	0	0
2208118	WORD	wordpools/wasnorm_wordpool_576.txt	LTP246	ltpFR2	21	10	TEMPLE	1448	n/a	n/a	0	0	0
2210621	WORD	wordpools/wasnorm_wordpool_576.txt	LTP246	ltpFR2	21	10	SNAIL	1332	n/a	n/a	0	0	0
2212255	START	n/a	LTP246	ltpFR2	21	n/a	n/a	n/a	15	n/a	n/a	n/a	n/a
2213413	DISTRACTOR	n/a	LTP246	ltpFR2	21	10	n/a	n/a	n/a	n/a	0	0	0
2213438	PROB	n/a	LTP246	ltpFR2	21	n/a	n/a	n/a	15	17	1	8	8
2214891	PROB	n/a	LTP246	ltpFR2	21	n/a	n/a	n/a	15	19	9	4	6
2216091	PROB	n/a	LTP246	ltpFR2	21	n/a	n/a	n/a	15	11	4	3	4
2217826	PROB	n/a	LTP246	ltpFR2	21	n/a	n/a	n/a	15	14	5	8	1
2224064	PROB	n/a	LTP246	ltpFR2	21	n/a	n/a	n/a	15	13	7	1	5
2227083	PROB	n/a	LTP246	ltpFR2	21	n/a	n/a	n/a	15	8	3	3	2
2229351	PROB	n/a	LTP246	ltpFR2	21	n/a	n/a	n/a	15	15	4	6	5
2231186	PROB	n/a	LTP246	ltpFR2	21	n/a	n/a	n/a	15	8	2	4	2
2232655	PROB	n/a	LTP246	ltpFR2	21	n/a	n/a	n/a	15	7	3	3	1
2233873	PROB	n/a	LTP246	ltpFR2	21	n/a	n/a	n/a	15	20	8	8	4
2235838	STOP	n/a	LTP246	ltpFR2	21	n/a	n/a	n/a	15	n/a	n/a	n/a	n/a
2238209	REC_START	n/a	LTP246	ltpFR2	21	10	n/a	n/a	n/a	n/a	0	0	0
2242383	REC_WORD	wordpools/wasnorm_wordpool_576.txt	LTP246	ltpFR2	21	10	CLOTHES	327	n/a	n/a	0	0	0
2243645	REC_WORD	wordpools/wasnorm_wordpool_576.txt	LTP246	ltpFR2	21	10	MARKER	870	n/a	n/a	0	0	0
2244648	REC_WORD	wordpools/wasnorm_wordpool_576.txt	LTP246	ltpFR2	21	10	PUDDING	1139	n/a	n/a	0	0	0
2245723	REC_WORD	wordpools/wasnorm_wordpool_576.txt	LTP246	ltpFR2	21	10	JELLO	754	n/a	n/a	0	0	0
2247167	REC_WORD	wordpools/wasnorm_wordpool_576.txt	LTP246	ltpFR2	21	10	TRUCK	1512	n/a	n/a	0	0	0
2248182	REC_WORD	wordpools/wasnorm_wordpool_576.txt	LTP246	ltpFR2	21	10	CLAMP	316	n/a	n/a	0	0	0
2249359	REC_WORD	wordpools/wasnorm_wordpool_576.txt	LTP246	ltpFR2	21	10	CASHIER	254	n/a	n/a	0	0	0
2250764	REC_WORD	wordpools/wasnorm_wordpool_576.txt	LTP246	ltpFR2	21	10	YARN	1631	n/a	n/a	0	0	0
2251740	REC_WORD	wordpools/wasnorm_wordpool_576.txt	LTP246	ltpFR2	21	10	SOFTBALL	1343	n/a	n/a	0	0	0
2253043	REC_WORD	wordpools/wasnorm_wordpool_576.txt	LTP246	ltpFR2	21	10	STAPLE	1371	n/a	n/a	0	0	0
2254352	REC_WORD	wordpools/wasnorm_wordpool_576.txt	LTP246	ltpFR2	21	10	BRANDY	169	n/a	n/a	0	0	0
2255487	REC_WORD	wordpools/wasnorm_wordpool_576.txt	LTP246	ltpFR2	21	10	OUTDOORS	987	n/a	n/a	0	0	0
2256648	REC_WORD	wordpools/wasnorm_wordpool_576.txt	LTP246	ltpFR2	21	10	PAPER	1011	n/a	n/a	0	0	0
2257585	REC_WORD	wordpools/wasnorm_wordpool_576.txt	LTP246	ltpFR2	21	10	CREVICE	405	n/a	n/a	0	0	0
2258574	REC_WORD	wordpools/wasnorm_wordpool_576.txt	LTP246	ltpFR2	21	10	SKIRT	1319	n/a	n/a	0	0	0
2260248	REC_WORD	wordpools/wasnorm_wordpool_576.txt	LTP246	ltpFR2	21	10	BRANCH	168	n/a	n/a	0	0	0
2328849	DISTRACTOR	n/a	LTP246	ltpFR2	21	11	n/a	n/a	n/a	n/a	0	0	0
2328849	START	n/a	LTP246	ltpFR2	21	n/a	n/a	n/a	16	n/a	n/a	n/a	n/a
2328882	PROB	n/a	LTP246	ltpFR2	21	n/a	n/a	n/a	16	12	7	4	1
2330817	PROB	n/a	LTP246	ltpFR2	21	n/a	n/a	n/a	16	11	3	2	6
2332952	PROB	n/a	LTP246	ltpFR2	21	n/a	n/a	n/a	16	20	6	7	7
2334536	PROB	n/a	LTP246	ltpFR2	21	n/a	n/a	n/a	16	16	3	7	6
2336738	PROB	n/a	LTP246	ltpFR2	21	n/a	n/a	n/a	16	9	5	2	2
2337989	PROB	n/a	LTP246	ltpFR2	21	n/a	n/a	n/a	16	16	6	7	3
2339173	PROB	n/a	LTP246	ltpFR2	21	n/a	n/a	n/a	16	11	8	2	1
2340257	PROB	n/a	LTP246	ltpFR2	21	n/a	n/a	n/a	16	12	2	4	6
2341291	PROB	n/a	LTP246	ltpFR2	21	n/a	n/a	n/a	16	14	5	1	8
2342593	PROB	n/a	LTP246	ltpFR2	21	n/a	n/a	n/a	16	16	1	9	6
2343894	PROB	n/a	LTP246	ltpFR2	21	n/a	n/a	n/a	16	14	8	5	1
2345127	PROB	n/a	LTP246	ltpFR2	21	n/a	n/a	n/a	16	8	5	2	1
2347196	PROB	n/a	LTP246	ltpFR2	21	n/a	n/a	n/a	16	9	6	1	2
2348330	PROB	n/a	LTP246	ltpFR2	21	n/a	n/a	n/a	16	19	6	7	6
2350181	PROB	n/a	LTP246	ltpFR2	21	n/a	n/a	n/a	16	10	2	2	6
2351394	STOP	n/a	LTP246	ltpFR2	21	n/a	n/a	n/a	16	n/a	n/a	n/a	n/a
2353719	WORD	wordpools/wasnorm_wordpool_576.txt	LTP246	ltpFR2	21	11	HERO	706	n/a	n/a	0	0	0
2356353	WORD	wordpools/wasnorm_wordpool_576.txt	LTP246	ltpFR2	21	11	PANTHER	1009	n/a	n/a	0	0	0
2359089	WORD	wordpools/wasnorm_wordpool_576.txt	LTP246	ltpFR2	21	11	ACTOR	5	n/a	n/a	0	0	0
2361708	WORD	wordpools/wasnorm_wordpool_576.txt	LTP246	ltpFR2	21	11	KIDNEY	776	n/a	n/a	0	0	0
2364226	WORD	wordpools/wasnorm_wordpool_576.txt	LTP246	ltpFR2	21	11	SURVEY	1414	n/a	n/a	0	0	0
2366696	WORD	wordpools/wasnorm_wordpool_576.txt	LTP246	ltpFR2	21	11	VIRUS	1572	n/a	n/a	0	0	0
2369263	WORD	wordpools/wasnorm_wordpool_576.txt	LTP246	ltpFR2	21	11	CHAUFFEUR	283	n/a	n/a	0	0	0
2372066	WORD	wordpools/wasnorm_wordpool_576.txt	LTP246	ltpFR2	21	11	FLASHLIGHT	575	n/a	n/a	0	0	0
2374886	WORD	wordpools/wasnorm_wordpool_576.txt	LTP246	ltpFR2	21	11	TUNNEL	1519	n/a	n/a	0	0	0
2377537	WORD	wordpools/wasnorm_wordpool_576.txt	LTP246	ltpFR2	21	11	INFANT	737	n/a	n/a	0	0	0
2380006	WORD	wordpools/wasnorm_wordpool_576.txt	LTP246	ltpFR2	21	11	BACKBONE	66	n/a	n/a	0	0	0
2382541	WORD	wordpools/wasnorm_wordpool_576.txt	LTP246	ltpFR2	21	11	ROBBER	1197	n/a	n/a	0	0	0
2385326	WORD	wordpools/wasnorm_wordpool_576.txt	LTP246	ltpFR2	21	11	WARDROBE	1587	n/a	n/a	0	0	0
2388078	WORD	wordpools/wasnorm_wordpool_576.txt	LTP246	ltpFR2	21	11	COMET	353	n/a	n/a	0	0	0
2390898	WORD	wordpools/wasnorm_wordpool_576.txt	LTP246	ltpFR2	21	11	VICTIM	1562	n/a	n/a	0	0	0
2393617	WORD	wordpools/wasnorm_wordpool_576.txt	LTP246	ltpFR2	21	11	DORM	488	n/a	n/a	0	0	0
2396368	WORD	wordpools/wasnorm_wordpool_576.txt	LTP246	ltpFR2	21	11	HIKER	708	n/a	n/a	0	0	0
2399005	WORD	wordpools/wasnorm_wordpool_576.txt	LTP246	ltpFR2	21	11	CANYON	235	n/a	n/a	0	0	0
2401489	WORD	wordpools/wasnorm_wordpool_576.txt	LTP246	ltpFR2	21	11	DONOR	485	n/a	n/a	0	0	0
2404075	WORD	wordpools/wasnorm_wordpool_576.txt	LTP246	ltpFR2	21	11	DASHBOARD	441	n/a	n/a	0	0	0
2406711	WORD	wordpools/wasnorm_wordpool_576.txt	LTP246	ltpFR2	21	11	HOOD	714	n/a	n/a	0	0	0
2409179	WORD	wordpools/wasnorm_wordpool_576.txt	LTP246	ltpFR2	21	11	BABY	64	n/a	n/a	0	0	0
2411965	WORD	wordpools/wasnorm_wordpool_576.txt	LTP246	ltpFR2	21	11	NURSE	963	n/a	n/a	0	0	0
2414533	WORD	wordpools/wasnorm_wordpool_576.txt	LTP246	ltpFR2	21	11	SHORTCAKE	1292	n/a	n/a	0	0	0
2416151	START	n/a	LTP246	ltpFR2	21	n/a	n/a	n/a	17	n/a	n/a	n/a	n/a
2417317	DISTRACTOR	n/a	LTP246	ltpFR2	21	11	n/a	n/a	n/a	n/a	0	0	0
2417335	PROB	n/a	LTP246	ltpFR2	21	n/a	n/a	n/a	17	20	6	7	7
2419020	PROB	n/a	LTP246	ltpFR2	21	n/a	n/a	n/a	17	23	8	7	8
2421539	PROB	n/a	LTP246	ltpFR2	21	n/a	n/a	n/a	17	11	5	2	4
2424909	PROB	n/a	LTP246	ltpFR2	21	n/a	n/a	n/a	17	20	5	8	7
2426961	PROB	n/a	LTP246	ltpFR2	21	n/a	n/a	n/a	17	9	1	4	4
2428010	PROB	n/a	LTP246	ltpFR2	21	n/a	n/a	n/a	17	22	4	9	9
2429746	PROB	n/a	LTP246	ltpFR2	21	n/a	n/a	n/a	17	8	2	3	3
2431764	PROB	n/a	LTP246	ltpFR2	21	n/a	n/a	n/a	17	15	9	4	2
2434149	PROB	n/a	LTP246	ltpFR2	21	n/a	n/a	n/a	17	11	1	9	1
2435216	PROB	n/a	LTP246	ltpFR2	21	n/a	n/a	n/a	17	16	4	8	4
2436384	PROB	n/a	LTP246	ltpFR2	21	n/a	n/a	n/a	17	14	6	6	2
2438352	PROB	n/a	LTP246	ltpFR2	21	n/a	n/a	n/a	17	19	9	6	4
2439413	STOP	n/a	LTP246	ltpFR2	21	n/a	n/a	n/a	17	n/a	n/a	n/a	n/a
2442122	REC_START	n/a	LTP246	ltpFR2	21	11	n/a	n/a	n/a	n/a	0	0	0
2446017	REC_WORD	wordpools/wasnorm_wordpool_576.txt	LTP246	ltpFR2	21	11	DASHBOARD	441	n/a	n/a	0	0	0
2447485	REC_WORD	wordpools/wasnorm_wordpool_576.txt	LTP246	ltpFR2	21	11	HOOD	714	n/a	n/a	0	0	0
2448736	REC_WORD	wordpools/wasnorm_wordpool_576.txt	LTP246	ltpFR2	21	11	BABY	64	n/a	n/a	0	0	0
2449714	REC_WORD	wordpools/wasnorm_wordpool_576.txt	LTP246	ltpFR2	21	11	NURSE	963	n/a	n/a	0	0	0
2450836	REC_WORD	wordpools/wasnorm_wordpool_576.txt	LTP246	ltpFR2	21	11	SHORTCAKE	1292	n/a	n/a	0	0	0
2498613	REC_WORD	wordpools/wasnorm_wordpool_576.txt	LTP246	ltpFR2	21	11	HERO	706	n/a	n/a	0	0	0
2499458	REC_WORD	wordpools/wasnorm_wordpool_576.txt	LTP246	ltpFR2	21	11	PANTHER	1009	n/a	n/a	0	0	0
2575245	DISTRACTOR	n/a	LTP246	ltpFR2	21	12	n/a	n/a	n/a	n/a	0	0	0
2575245	START	n/a	LTP246	ltpFR2	21	n/a	n/a	n/a	18	n/a	n/a	n/a	n/a
2575278	PROB	n/a	LTP246	ltpFR2	21	n/a	n/a	n/a	18	15	4	2	9
2576931	PROB	n/a	LTP246	ltpFR2	21	n/a	n/a	n/a	18	19	7	7	5
2578264	PROB	n/a	LTP246	ltpFR2	21	n/a	n/a	n/a	18	17	3	5	9
2581517	PROB	n/a	LTP246	ltpFR2	21	n/a	n/a	n/a	18	10	4	2	4
2584352	PROB	n/a	LTP246	ltpFR2	21	n/a	n/a	n/a	18	12	5	6	1
2585386	PROB	n/a	LTP246	ltpFR2	21	n/a	n/a	n/a	18	13	2	9	2
2587238	PROB	n/a	LTP246	ltpFR2	21	n/a	n/a	n/a	18	8	1	2	5
2588389	PROB	n/a	LTP246	ltpFR2	21	n/a	n/a	n/a	18	14	1	7	6
2589958	PROB	n/a	LTP246	ltpFR2	21	n/a	n/a	n/a	18	8	2	4	2
2591174	PROB	n/a	LTP246	ltpFR2	21	n/a	n/a	n/a	18	18	7	5	6
2592894	PROB	n/a	LTP246	ltpFR2	21	n/a	n/a	n/a	18	24	8	9	8
2599245	STOP	n/a	LTP246	ltpFR2	21	n/a	n/a	n/a	18	n/a	n/a	n/a	n/a
2600182	WORD	wordpools/wasnorm_wordpool_576.txt	LTP246	ltpFR2	21	12	MILK	895	n/a	n/a	0	0	0
2602918	WORD	wordpools/wasnorm_wordpool_576.txt	LTP246	ltpFR2	21	12	SUITCASE	1403	n/a	n/a	0	0	0
2605720	WORD	wordpools/wasnorm_wordpool_576.txt	LTP246	ltpFR2	21	12	DENIM	446	n/a	n/a	0	0	0
2608438	WORD	wordpools/wasnorm_wordpool_576.txt	LTP246	ltpFR2	21	12	PLAZA	1088	n/a	n/a	0	0	0
2611174	WORD	wordpools/wasnorm_wordpool_576.txt	LTP246	ltpFR2	21	12	CHEMIST	292	n/a	n/a	0	0	0
2613877	WORD	wordpools/wasnorm_wordpool_576.txt	LTP246	ltpFR2	21	12	SMOG	1330	n/a	n/a	0	0	0
2616428	WORD	wordpools/wasnorm_wordpool_576.txt	LTP246	ltpFR2	21	12	SIBLING	1301	n/a	n/a	0	0	0
2619097	WORD	wordpools/wasnorm_wordpool_576.txt	LTP246	ltpFR2	21	12	BURGLAR	200	n/a	n/a	0	0	0
2621800	WORD	wordpools/wasnorm_wordpool_576.txt	LTP246	ltpFR2	21	12	ROD	1203	n/a	n/a	0	0	0
2624251	WORD	wordpools/wasnorm_wordpool_576.txt	LTP246	ltpFR2	21	12	CEILING	265	n/a	n/a	0	0	0
2626871	WORD	wordpools/wasnorm_wordpool_576.txt	LTP246	ltpFR2	21	12	CLOUD	328	n/a	n/a	0	0	0
2629690	WORD	wordpools/wasnorm_wordpool_576.txt	LTP246	ltpFR2	21	12	COUNTRY	388	n/a	n/a	0	0	0
2632391	WORD	wordpools/wasnorm_wordpool_576.txt	LTP246	ltpFR2	21	12	VALVE	1546	n/a	n/a	0	0	0
2635143	WORD	wordpools/wasnorm_wordpool_576.txt	LTP246	ltpFR2	21	12	OUTFIT	988	n/a	n/a	0	0	0
2637963	WORD	wordpools/wasnorm_wordpool_576.txt	LTP246	ltpFR2	21	12	SODA	1341	n/a	n/a	0	0	0
2640632	WORD	wordpools/wasnorm_wordpool_576.txt	LTP246	ltpFR2	21	12	BALLOON	75	n/a	n/a	0	0	0
2643416	WORD	wordpools/wasnorm_wordpool_576.txt	LTP246	ltpFR2	21	12	TART	1436	n/a	n/a	0	0	0
2646003	WORD	wordpools/wasnorm_wordpool_576.txt	LTP246	ltpFR2	21	12	BUBBLE	183	n/a	n/a	0	0	0
2648822	WORD	wordpools/wasnorm_wordpool_576.txt	LTP246	ltpFR2	21	12	TURKEY	1520	n/a	n/a	0	0	0
2651556	WORD	wordpools/wasnorm_wordpool_576.txt	LTP246	ltpFR2	21	12	APRON	35	n/a	n/a	0	0	0
2654158	WORD	wordpools/wasnorm_wordpool_576.txt	LTP246	ltpFR2	21	12	FOX	598	n/a	n/a	0	0	0
2656795	WORD	wordpools/wasnorm_wordpool_576.txt	LTP246	ltpFR2	21	12	GALLON	618	n/a	n/a	0	0	0
2659312	WORD	wordpools/wasnorm_wordpool_576.txt	LTP246	ltpFR2	21	12	STALLION	1369	n/a	n/a	0	0	0
2662081	WORD	wordpools/wasnorm_wordpool_576.txt	LTP246	ltpFR2	21	12	SADDLE	1221	n/a	n/a	0	0	0
2663700	START	n/a	LTP246	ltpFR2	21	n/a	n/a	n/a	19	n/a	n/a	n/a	n/a
2664773	DISTRACTOR	n/a	LTP246	ltpFR2	21	12	n/a	n/a	n/a	n/a	0	0	0
2664801	PROB	n/a	LTP246	ltpFR2	21	n/a	n/a	n/a	19	11	7	1	3
2665935	PROB	n/a	LTP246	ltpFR2	21	n/a	n/a	n/a	19	12	3	2	7
2667502	PROB	n/a	LTP246	ltpFR2	21	n/a	n/a	n/a	19	12	9	2	1
2668888	PROB	n/a	LTP246	ltpFR2	21	n/a	n/a	n/a	19	11	6	2	3
2671690	PROB	n/a	LTP246	ltpFR2	21	n/a	n/a	n/a	19	14	9	2	3
2674241	PROB	n/a	LTP246	ltpFR2	21	n/a	n/a	n/a	19	14	6	3	5
2676827	PROB	n/a	LTP246	ltpFR2	21	n/a	n/a	n/a	19	17	5	8	4
2678478	PROB	n/a	LTP246	ltpFR2	21	n/a	n/a	n/a	19	14	2	4	8
2680046	PROB	n/a	LTP246	ltpFR2	21	n/a	n/a	n/a	19	13	1	4	8
2682197	PROB	n/a	LTP246	ltpFR2	21	n/a	n/a	n/a	19	15	4	3	8
2685216	PROB	n/a	LTP246	ltpFR2	21	n/a	n/a	n/a	19	11	1	1	9
2686143	STOP	n/a	LTP246	ltpFR2	21	n/a	n/a	n/a	19	n/a	n/a	n/a	n/a
2689570	REC_START	n/a	LTP246	ltpFR2	21	12	n/a	n/a	n/a	n/a	0	0	0
2694495	REC_WORD	wordpools/wasnorm_wordpool_576.txt	LTP246	ltpFR2	21	12	BRIEFCASE	175	n/a	n/a	0	0	0
2697641	REC_WORD	wordpools/wasnorm_wordpool_576.txt	LTP246	ltpFR2	21	12	MILK	895	n/a	n/a	0	0	0
2699324	REC_WORD	wordpools/wasnorm_wordpool_576.txt	LTP246	ltpFR2	21	12	DENIM	446	n/a	n/a	0	0	0
2700915	REC_WORD	wordpools/wasnorm_wordpool_576.txt	LTP246	ltpFR2	21	12	PLAZA	1088	n/a	n/a	0	0	0
2702172	REC_WORD	wordpools/wasnorm_wordpool_576.txt	LTP246	ltpFR2	21	12	CHEMIST	292	n/a	n/a	0	0	0
2703310	REC_WORD	wordpools/wasnorm_wordpool_576.txt	LTP246	ltpFR2	21	12	SMOG	1330	n/a	n/a	0	0	0
2704891	REC_WORD	wordpools/wasnorm_wordpool_576.txt	LTP246	ltpFR2	21	12	SIBLING	1301	n/a	n/a	0	0	0
2706475	REC_WORD	wordpools/wasnorm_wordpool_576.txt	LTP246	ltpFR2	21	12	BURGLAR	200	n/a	n/a	0	0	0
2707625	REC_WORD	wordpools/wasnorm_wordpool_576.txt	LTP246	ltpFR2	21	12	ROD	1203	n/a	n/a	0	0	0
2708871	REC_WORD	wordpools/wasnorm_wordpool_576.txt	LTP246	ltpFR2	21	12	CEILING	265	n/a	n/a	0	0	0
2780259	WORD	wordpools/wasnorm_wordpool_576.txt	LTP246	ltpFR2	21	13	PAIL	1002	n/a	n/a	0	0	0
2782796	WORD	wordpools/wasnorm_wordpool_576.txt	LTP246	ltpFR2	21	13	RABBIT	1152	n/a	n/a	0	0	0
2785648	WORD	wordpools/wasnorm_wordpool_576.txt	LTP246	ltpFR2	21	13	JELLY	755	n/a	n/a	0	0	0
2788182	WORD	wordpools/wasnorm_wordpool_576.txt	LTP246	ltpFR2	21	13	CONVICT	371	n/a	n/a	0	0	0
2790652	WORD	wordpools/wasnorm_wordpool_576.txt	LTP246	ltpFR2	21	13	TUBA	1515	n/a	n/a	0	0	0
2793286	WORD	wordpools/wasnorm_wordpool_576.txt	LTP246	ltpFR2	21	13	GIRL	637	n/a	n/a	0	0	0
2795856	WORD	wordpools/wasnorm_wordpool_576.txt	LTP246	ltpFR2	21	13	OUTLAW	989	n/a	n/a	0	0	0
2798692	WORD	wordpools/wasnorm_wordpool_576.txt	LTP246	ltpFR2	21	13	BOARD	143	n/a	n/a	0	0	0
2801193	WORD	wordpools/wasnorm_wordpool_576.txt	LTP246	ltpFR2	21	13	RADISH	1158	n/a	n/a	0	0	0
2803946	WORD	wordpools/wasnorm_wordpool_576.txt	LTP246	ltpFR2	21	13	ROBOT	1200	n/a	n/a	0	0	0
2806648	WORD	wordpools/wasnorm_wordpool_576.txt	LTP246	ltpFR2	21	13	REPORT	1184	n/a	n/a	0	0	0
2809132	WORD	wordpools/wasnorm_wordpool_576.txt	LTP246	ltpFR2	21	13	CARROT	249	n/a	n/a	0	0	0
2811652	WORD	wordpools/wasnorm_wordpool_576.txt	LTP246	ltpFR2	21	13	GARDEN	623	n/a	n/a	0	0	0
2814270	WORD	wordpools/wasnorm_wordpool_576.txt	LTP246	ltpFR2	21	13	DUSTPAN	509	n/a	n/a	0	0	0
2817022	WORD	wordpools/wasnorm_wordpool_576.txt	LTP246	ltpFR2	21	13	THIEF	1456	n/a	n/a	0	0	0
2819541	WORD	wordpools/wasnorm_wordpool_576.txt	LTP246	ltpFR2	21	13	BASEMENT	94	n/a	n/a	0	0	0
2822243	WORD	wordpools/wasnorm_wordpool_576.txt	LTP246	ltpFR2	21	13	SWAMP	1416	n/a	n/a	0	0	0
2824980	WORD	wordpools/wasnorm_wordpool_576.txt	LTP246	ltpFR2	21	13	FRUIT	610	n/a	n/a	0	0	0
2827581	WORD	wordpools/wasnorm_wordpool_576.txt	LTP246	ltpFR2	21	13	TRENCH	1503	n/a	n/a	0	0	0
2830049	WORD	wordpools/wasnorm_wordpool_576.txt	LTP246	ltpFR2	21	13	GIFT	635	n/a	n/a	0	0	0
2832802	WORD	wordpools/wasnorm_wordpool_576.txt	LTP246	ltpFR2	21	13	NOTEBOOK	959	n/a	n/a	0	0	0
2835437	WORD	wordpools/wasnorm_wordpool_576.txt	LTP246	ltpFR2	21	13	JOURNAL	760	n/a	n/a	0	0	0
2838039	WORD	wordpools/wasnorm_wordpool_576.txt	LTP246	ltpFR2	21	13	COD	340	n/a	n/a	0	0	0
2840659	WORD	wordpools/wasnorm_wordpool_576.txt	LTP246	ltpFR2	21	13	HOOK	715	n/a	n/a	0	0	0
2842293	START	n/a	LTP246	ltpFR2	21	n/a	n/a	n/a	20	n/a	n/a	n/a	n/a
2843189	DISTRACTOR	n/a	LTP246	ltpFR2	21	13	n/a	n/a	n/a	n/a	0	0	0
2843210	PROB	n/a	LTP246	ltpFR2	21	n/a	n/a	n/a	20	16	7	7	2
2844561	PROB	n/a	LTP246	ltpFR2	21	n/a	n/a	n/a	20	15	6	7	2
2846747	PROB	n/a	LTP246	ltpFR2	21	n/a	n/a	n/a	20	17	9	1	7
2847864	PROB	n/a	LTP246	ltpFR2	21	n/a	n/a	n/a	20	16	7	5	4
2849683	PROB	n/a	LTP246	ltpFR2	21	n/a	n/a	n/a	20	16	5	7	4
2851183	PROB	n/a	LTP246	ltpFR2	21	n/a	n/a	n/a	20	18	9	1	8
2852652	PROB	n/a	LTP246	ltpFR2	21	n/a	n/a	n/a	20	16	4	5	7
2854152	PROB	n/a	LTP246	ltpFR2	21	n/a	n/a	n/a	20	17	8	8	1
2855704	PROB	n/a	LTP246	ltpFR2	21	n/a	n/a	n/a	20	8	2	3	3
2856972	PROB	n/a	LTP246	ltpFR2	21	n/a	n/a	n/a	20	18	4	6	8
2858338	PROB	n/a	LTP246	ltpFR2	21	n/a	n/a	n/a	20	24	7	9	8
2860107	PROB	n/a	LTP246	ltpFR2	21	n/a	n/a	n/a	20	20	3	8	9
2861826	PROB	n/a	LTP246	ltpFR2	21	n/a	n/a	n/a	20	24	9	6	9
2863777	PROB	n/a	LTP246	ltpFR2	21	n/a	n/a	n/a	20	19	9	4	6
2864943	STOP	n/a	LTP246	ltpFR2	21	n/a	n/a	n/a	20	n/a	n/a	n/a	n/a
2868164	REC_START	n/a	LTP246	ltpFR2	21	13	n/a	n/a	n/a	n/a	0	0	0
2878235	REC_WORD	wordpools/wasnorm_wordpool_576.txt	LTP246	ltpFR2	21	13	GIFT	635	n/a	n/a	0	0	0
2886076	REC_WORD	wordpools/wasnorm_wordpool_576.txt	LTP246	ltpFR2	21	13	ROBOT	1200	n/a	n/a	0	0	0
2888476	REC_WORD	wordpools/wasnorm_wordpool_576.txt	LTP246	ltpFR2	21	13	REPORT	1184	n/a	n/a	0	0	0
2895000	REC_WORD	wordpools/wasnorm_wordpool_576.txt	LTP246	ltpFR2	21	13	CARROT	249	n/a	n/a	0	0	0
2898097	REC_WORD	wordpools/wasnorm_wordpool_576.txt	LTP246	ltpFR2	21	13	DUSTPAN	509	n/a	n/a	0	0	0
2899915	REC_WORD	wordpools/wasnorm_wordpool_576.txt	LTP246	ltpFR2	21	13	JOURNAL	760	n/a	n/a	0	0	0
2901028	REC_WORD	wordpools/wasnorm_wordpool_576.txt	LTP246	ltpFR2	21	13	NOTEBOOK	959	n/a	n/a	0	0	0
2902263	REC_WORD	wordpools/wasnorm_wordpool_576.txt	LTP246	ltpFR2	21	13	COD	340	n/a	n/a	0	0	0
2903435	REC_WORD	wordpools/wasnorm_wordpool_576.txt	LTP246	ltpFR2	21	13	HOOK	715	n/a	n/a	0	0	0
2958820	WORD	wordpools/wasnorm_wordpool_576.txt	LTP246	ltpFR2	21	14	PIGEON	1065	n/a	n/a	0	0	0
2961371	WORD	wordpools/wasnorm_wordpool_576.txt	LTP246	ltpFR2	21	14	WAITER	1580	n/a	n/a	0	0	0
2963974	WORD	wordpools/wasnorm_wordpool_576.txt	LTP246	ltpFR2	21	14	ORCHID	982	n/a	n/a	0	0	0
2966693	WORD	wordpools/wasnorm_wordpool_576.txt	LTP246	ltpFR2	21	14	GRIZZLY	662	n/a	n/a	0	0	0
2969294	WORD	wordpools/wasnorm_wordpool_576.txt	LTP246	ltpFR2	21	14	PREACHER	1119	n/a	n/a	0	0	0
2972013	WORD	wordpools/wasnorm_wordpool_576.txt	LTP246	ltpFR2	21	14	BEAVER	109	n/a	n/a	0	0	0
2974666	WORD	wordpools/wasnorm_wordpool_576.txt	LTP246	ltpFR2	21	14	BLUEPRINT	142	n/a	n/a	0	0	0
2977401	WORD	wordpools/wasnorm_wordpool_576.txt	LTP246	ltpFR2	21	14	INMATE	738	n/a	n/a	0	0	0
2980053	WORD	wordpools/wasnorm_wordpool_576.txt	LTP246	ltpFR2	21	14	REBEL	1172	n/a	n/a	0	0	0
2982873	WORD	wordpools/wasnorm_wordpool_576.txt	LTP246	ltpFR2	21	14	COTTAGE	384	n/a	n/a	0	0	0
2985524	WORD	wordpools/wasnorm_wordpool_576.txt	LTP246	ltpFR2	21	14	KEEPER	769	n/a	n/a	0	0	0
2988076	WORD	wordpools/wasnorm_wordpool_576.txt	LTP246	ltpFR2	21	14	SUSPECT	1415	n/a	n/a	0	0	0
2990679	WORD	wordpools/wasnorm_wordpool_576.txt	LTP246	ltpFR2	21	14	PASSAGE	1019	n/a	n/a	0	0	0
2993463	WORD	wordpools/wasnorm_wordpool_576.txt	LTP246	ltpFR2	21	14	BADGE	68	n/a	n/a	0	0	0
2996182	WORD	wordpools/wasnorm_wordpool_576.txt	LTP246	ltpFR2	21	14	PATROL	1027	n/a	n/a	0	0	0
2998802	WORD	wordpools/wasnorm_wordpool_576.txt	LTP246	ltpFR2	21	14	CHIPMUNK	304	n/a	n/a	0	0	0
3001570	WORD	wordpools/wasnorm_wordpool_576.txt	LTP246	ltpFR2	21	14	BISON	131	n/a	n/a	0	0	0
3004189	WORD	wordpools/wasnorm_wordpool_576.txt	LTP246	ltpFR2	21	14	SPONGE	1355	n/a	n/a	0	0	0
3006658	WORD	wordpools/wasnorm_wordpool_576.txt	LTP246	ltpFR2	21	14	SHELTER	1282	n/a	n/a	0	0	0
3009359	WORD	wordpools/wasnorm_wordpool_576.txt	LTP246	ltpFR2	21	14	CELLAR	267	n/a	n/a	0	0	0
3012078	WORD	wordpools/wasnorm_wordpool_576.txt	LTP246	ltpFR2	21	14	HELMET	702	n/a	n/a	0	0	0
3014580	WORD	wordpools/wasnorm_wordpool_576.txt	LTP246	ltpFR2	21	14	LIZARD	834	n/a	n/a	0	0	0
3017149	WORD	wordpools/wasnorm_wordpool_576.txt	LTP246	ltpFR2	21	14	FRANCE	601	n/a	n/a	0	0	0
3019619	WORD	wordpools/wasnorm_wordpool_576.txt	LTP246	ltpFR2	21	14	FOOTBALL	591	n/a	n/a	0	0	0
3021253	START	n/a	LTP246	ltpFR2	21	n/a	n/a	n/a	21	n/a	n/a	n/a	n/a
3022273	DISTRACTOR	n/a	LTP246	ltpFR2	21	14	n/a	n/a	n/a	n/a	0	0	0
3022303	PROB	n/a	LTP246	ltpFR2	21	n/a	n/a	n/a	21	19	9	3	7
3023639	PROB	n/a	LTP246	ltpFR2	21	n/a	n/a	n/a	21	15	4	3	8
3025472	PROB	n/a	LTP246	ltpFR2	21	n/a	n/a	n/a	21	12	2	8	2
3026691	PROB	n/a	LTP246	ltpFR2	21	n/a	n/a	n/a	21	10	4	3	3
3028575	PROB	n/a	LTP246	ltpFR2	21	n/a	n/a	n/a	21	12	1	6	3
3031612	PROB	n/a	LTP246	ltpFR2	21	n/a	n/a	n/a	21	9	1	2	6
3033295	PROB	n/a	LTP246	ltpFR2	21	n/a	n/a	n/a	21	15	7	4	4
3037198	PROB	n/a	LTP246	ltpFR2	21	n/a	n/a	n/a	21	10	3	6	1
3038499	PROB	n/a	LTP246	ltpFR2	21	n/a	n/a	n/a	21	16	4	3	9
3039735	PROB	n/a	LTP246	ltpFR2	21	n/a	n/a	n/a	21	17	5	4	8
3042152	PROB	n/a	LTP246	ltpFR2	21	n/a	n/a	n/a	21	21	6	9	6
3044709	STOP	n/a	LTP246	ltpFR2	21	n/a	n/a	n/a	21	n/a	n/a	n/a	n/a
3047107	REC_START	n/a	LTP246	ltpFR2	21	14	n/a	n/a	n/a	n/a	0	0	0
3069824	REC_WORD	wordpools/wasnorm_wordpool_576.txt	LTP246	ltpFR2	21	14	INMATE	738	n/a	n/a	0	0	0
3072679	REC_WORD	wordpools/wasnorm_wordpool_576.txt	LTP246	ltpFR2	21	14	REBEL	1172	n/a	n/a	0	0	0
3073941	REC_WORD	wordpools/wasnorm_wordpool_576.txt	LTP246	ltpFR2	21	14	COTTAGE	384	n/a	n/a	0	0	0
3074967	REC_WORD	wordpools/wasnorm_wordpool_576.txt	LTP246	ltpFR2	21	14	BEAVER	109	n/a	n/a	0	0	0
3075934	REC_WORD	wordpools/wasnorm_wordpool_576.txt	LTP246	ltpFR2	21	14	BLUEPRINT	142	n/a	n/a	0	0	0
3077026	REC_WORD	wordpools/wasnorm_wordpool_576.txt	LTP246	ltpFR2	21	14	GRIZZLY	662	n/a	n/a	0	0	0
3078038	REC_WORD	wordpools/wasnorm_wordpool_576.txt	LTP246	ltpFR2	21	14	ORCHID	982	n/a	n/a	0	0	0
3078977	REC_WORD	wordpools/wasnorm_wordpool_576.txt	LTP246	ltpFR2	21	14	PREACHER	1119	n/a	n/a	0	0	0
3137747	DISTRACTOR	n/a	LTP246	ltpFR2	21	15	n/a	n/a	n/a	n/a	0	0	0
3137747	START	n/a	LTP246	ltpFR2	21	n/a	n/a	n/a	22	n/a	n/a	n/a	n/a
3137780	PROB	n/a	LTP246	ltpFR2	21	n/a	n/a	n/a	22	16	7	2	7
3139380	PROB	n/a	LTP246	ltpFR2	21	n/a	n/a	n/a	22	16	4	5	7
3142817	PROB	n/a	LTP246	ltpFR2	21	n/a	n/a	n/a	22	12	5	6	1
3143868	PROB	n/a	LTP246	ltpFR2	21	n/a	n/a	n/a	22	12	4	4	4
3144869	PROB	n/a	LTP246	ltpFR2	21	n/a	n/a	n/a	22	12	4	3	5
3146754	PROB	n/a	LTP246	ltpFR2	21	n/a	n/a	n/a	22	24	9	9	6
3149673	PROB	n/a	LTP246	ltpFR2	21	n/a	n/a	n/a	22	15	8	5	2
3151023	PROB	n/a	LTP246	ltpFR2	21	n/a	n/a	n/a	22	16	5	5	6
3152609	PROB	n/a	LTP246	ltpFR2	21	n/a	n/a	n/a	22	16	3	5	8
3154309	PROB	n/a	LTP246	ltpFR2	21	n/a	n/a	n/a	22	14	5	5	4
3156311	PROB	n/a	LTP246	ltpFR2	21	n/a	n/a	n/a	22	17	8	2	7
3157562	PROB	n/a	LTP246	ltpFR2	21	n/a	n/a	n/a	22	14	7	2	5
3159313	PROB	n/a	LTP246	ltpFR2	21	n/a	n/a	n/a	22	19	9	3	7
3161153	STOP	n/a	LTP246	ltpFR2	21	n/a	n/a	n/a	22	n/a	n/a	n/a	n/a
3162817	WORD	wordpools/wasnorm_wordpool_576.txt	LTP246	ltpFR2	21	15	LETTUCE	814	n/a	n/a	0	0	0
3165334	WORD	wordpools/wasnorm_wordpool_576.txt	LTP246	ltpFR2	21	15	PIANO	1057	n/a	n/a	0	0	0
3167904	WORD	wordpools/wasnorm_wordpool_576.txt	LTP246	ltpFR2	21	15	TROMBONE	1508	n/a	n/a	0	0	0
3170690	WORD	wordpools/wasnorm_wordpool_576.txt	LTP246	ltpFR2	21	15	DANDRUFF	439	n/a	n/a	0	0	0
3173141	WORD	wordpools/wasnorm_wordpool_576.txt	LTP246	ltpFR2	21	15	SLIME	1327	n/a	n/a	0	0	0
3175777	WORD	wordpools/wasnorm_wordpool_576.txt	LTP246	ltpFR2	21	15	PEPPER	1047	n/a	n/a	0	0	0
3178545	WORD	wordpools/wasnorm_wordpool_576.txt	LTP246	ltpFR2	21	15	AGENT	10	n/a	n/a	0	0	0
3181080	WORD	wordpools/wasnorm_wordpool_576.txt	LTP246	ltpFR2	21	15	SWIMMER	1420	n/a	n/a	0	0	0
3183633	WORD	wordpools/wasnorm_wordpool_576.txt	LTP246	ltpFR2	21	15	ATOM	55	n/a	n/a	0	0	0
3186401	WORD	wordpools/wasnorm_wordpool_576.txt	LTP246	ltpFR2	21	15	DIME	466	n/a	n/a	0	0	0
3188971	WORD	wordpools/wasnorm_wordpool_576.txt	LTP246	ltpFR2	21	15	CYCLONE	431	n/a	n/a	0	0	0
3191539	WORD	wordpools/wasnorm_wordpool_576.txt	LTP246	ltpFR2	21	15	LOFT	840	n/a	n/a	0	0	0
3194224	WORD	wordpools/wasnorm_wordpool_576.txt	LTP246	ltpFR2	21	15	BLADE	134	n/a	n/a	0	0	0
3196711	WORD	wordpools/wasnorm_wordpool_576.txt	LTP246	ltpFR2	21	15	OINTMENT	974	n/a	n/a	0	0	0
3199178	WORD	wordpools/wasnorm_wordpool_576.txt	LTP246	ltpFR2	21	15	LAGOON	795	n/a	n/a	0	0	0
3201881	WORD	wordpools/wasnorm_wordpool_576.txt	LTP246	ltpFR2	21	15	CASKET	255	n/a	n/a	0	0	0
3204466	WORD	wordpools/wasnorm_wordpool_576.txt	LTP246	ltpFR2	21	15	CROWN	415	n/a	n/a	0	0	0
3207068	WORD	wordpools/wasnorm_wordpool_576.txt	LTP246	ltpFR2	21	15	TUTU	1524	n/a	n/a	0	0	0
3209788	WORD	wordpools/wasnorm_wordpool_576.txt	LTP246	ltpFR2	21	15	OFFICE	972	n/a	n/a	0	0	0
3212405	WORD	wordpools/wasnorm_wordpool_576.txt	LTP246	ltpFR2	21	15	SERVANT	1271	n/a	n/a	0	0	0
3215241	WORD	wordpools/wasnorm_wordpool_576.txt	LTP246	ltpFR2	21	15	HAWK	692	n/a	n/a	0	0	0
3217861	WORD	wordpools/wasnorm_wordpool_576.txt	LTP246	ltpFR2	21	15	GARLIC	624	n/a	n/a	0	0	0
3220529	WORD	wordpools/wasnorm_wordpool_576.txt	LTP246	ltpFR2	21	15	ONION	977	n/a	n/a	0	0	0
3223364	WORD	wordpools/wasnorm_wordpool_576.txt	LTP246	ltpFR2	21	15	CATTLE	261	n/a	n/a	0	0	0
3224983	START	n/a	LTP246	ltpFR2	21	n/a	n/a	n/a	23	n/a	n/a	n/a	n/a
3226053	DISTRACTOR	n/a	LTP246	ltpFR2	21	15	n/a	n/a	n/a	n/a	0	0	0
3226083	PROB	n/a	LTP246	ltpFR2	21	n/a	n/a	n/a	23	16	6	6	4
3228035	PROB	n/a	LTP246	ltpFR2	21	n/a	n/a	n/a	23	18	4	6	8
3229336	PROB	n/a	LTP246	ltpFR2	21	n/a	n/a	n/a	23	14	8	2	4
3230855	PROB	n/a	LTP246	ltpFR2	21	n/a	n/a	n/a	23	15	1	7	7
3232071	PROB	n/a	LTP246	ltpFR2	21	n/a	n/a	n/a	23	11	1	3	7
3233456	PROB	n/a	LTP246	ltpFR2	21	n/a	n/a	n/a	23	12	1	8	3
3234624	PROB	n/a	LTP246	ltpFR2	21	n/a	n/a	n/a	23	13	8	1	4
3236291	PROB	n/a	LTP246	ltpFR2	21	n/a	n/a	n/a	23	13	2	4	7
3239010	PROB	n/a	LTP246	ltpFR2	21	n/a	n/a	n/a	23	13	3	4	6
3240295	PROB	n/a	LTP246	ltpFR2	21	n/a	n/a	n/a	23	16	1	7	8
3241647	PROB	n/a	LTP246	ltpFR2	21	n/a	n/a	n/a	23	20	8	6	6
3243497	PROB	n/a	LTP246	ltpFR2	21	n/a	n/a	n/a	23	16	9	5	2
3245633	PROB	n/a	LTP246	ltpFR2	21	n/a	n/a	n/a	23	14	1	8	5
3247452	STOP	n/a	LTP246	ltpFR2	21	n/a	n/a	n/a	23	n/a	n/a	n/a	n/a
3250788	REC_START	n/a	LTP246	ltpFR2	21	15	n/a	n/a	n/a	n/a	0	0	0
3254916	REC_WORD	wordpools/wasnorm_wordpool_576.txt	LTP246	ltpFR2	21	15	LETTUCE	814	n/a	n/a	0	0	0
3257808	REC_WORD	wordpools/wasnorm_wordpool_576.txt	LTP246	ltpFR2	21	15	TROMBONE	1508	n/a	n/a	0	0	0
3260138	REC_WORD	wordpools/wasnorm_wordpool_576.txt	LTP246	ltpFR2	21	15	DANDRUFF	439	n/a	n/a	0	0	0
3261583	REC_WORD	wordpools/wasnorm_wordpool_576.txt	LTP246	ltpFR2	21	15	SLIME	1327	n/a	n/a	0	0	0
3265234	REC_WORD	wordpools/wasnorm_wordpool_576.txt	LTP246	ltpFR2	21	15	PEPPER	1047	n/a	n/a	0	0	0
3286408	REC_WORD	wordpools/wasnorm_wordpool_576.txt	LTP246	ltpFR2	21	15	SWIMMER	1420	n/a	n/a	0	0	0
3288141	REC_WORD	wordpools/wasnorm_wordpool_576.txt	LTP246	ltpFR2	21	15	ATOM	55	n/a	n/a	0	0	0
3289688	REC_WORD	wordpools/wasnorm_wordpool_576.txt	LTP246	ltpFR2	21	15	AGENT	10	n/a	n/a	0	0	0
3292255	REC_WORD	wordpools/wasnorm_wordpool_576.txt	LTP246	ltpFR2	21	15	DIME	466	n/a	n/a	0	0	0
3293601	REC_WORD	wordpools/wasnorm_wordpool_576.txt	LTP246	ltpFR2	21	15	CYCLONE	431	n/a	n/a	0	0	0
3341442	DISTRACTOR	n/a	LTP246	ltpFR2	21	16	n/a	n/a	n/a	n/a	0	0	0
3341442	START	n/a	LTP246	ltpFR2	21	n/a	n/a	n/a	24	n/a	n/a	n/a	n/a
3341476	PROB	n/a	LTP246	ltpFR2	21	n/a	n/a	n/a	24	23	9	6	8
3343945	PROB	n/a	LTP246	ltpFR2	21	n/a	n/a	n/a	24	17	7	5	5
3345128	PROB	n/a	LTP246	ltpFR2	21	n/a	n/a	n/a	24	18	9	3	6
3346413	PROB	n/a	LTP246	ltpFR2	21	n/a	n/a	n/a	24	16	8	3	5
3347782	PROB	n/a	LTP246	ltpFR2	21	n/a	n/a	n/a	24	20	5	9	6
3349448	PROB	n/a	LTP246	ltpFR2	21	n/a	n/a	n/a	24	10	1	7	2
3350617	PROB	n/a	LTP246	ltpFR2	21	n/a	n/a	n/a	24	14	5	2	7
3352686	PROB	n/a	LTP246	ltpFR2	21	n/a	n/a	n/a	24	14	8	1	5
3355170	PROB	n/a	LTP246	ltpFR2	21	n/a	n/a	n/a	24	17	2	8	7
3356421	PROB	n/a	LTP246	ltpFR2	21	n/a	n/a	n/a	24	17	7	7	3
3357472	PROB	n/a	LTP246	ltpFR2	21	n/a	n/a	n/a	24	13	6	1	6
3358607	PROB	n/a	LTP246	ltpFR2	21	n/a	n/a	n/a	24	8	3	3	2
3360696	PROB	n/a	LTP246	ltpFR2	21	n/a	n/a	n/a	24	18	1	8	9
3361913	PROB	n/a	LTP246	ltpFR2	21	n/a	n/a	n/a	24	8	3	4	1
3364321	STOP	n/a	LTP246	ltpFR2	21	n/a	n/a	n/a	24	n/a	n/a	n/a	n/a
3366532	WORD	wordpools/wasnorm_wordpool_576.txt	LTP246	ltpFR2	21	16	CORAL	378	n/a	n/a	0	0	0
3369351	WORD	wordpools/wasnorm_wordpool_576.txt	LTP246	ltpFR2	21	16	CRAYON	401	n/a	n/a	0	0	0
3372170	WORD	wordpools/wasnorm_wordpool_576.txt	LTP246	ltpFR2	21	16	BRICK	172	n/a	n/a	0	0	0
3374989	WORD	wordpools/wasnorm_wordpool_576.txt	LTP246	ltpFR2	21	16	ULCER	1533	n/a	n/a	0	0	0
3377725	WORD	wordpools/wasnorm_wordpool_576.txt	LTP246	ltpFR2	21	16	PADDING	999	n/a	n/a	0	0	0
3380443	WORD	wordpools/wasnorm_wordpool_576.txt	LTP246	ltpFR2	21	16	CHAPEL	280	n/a	n/a	0	0	0
3382929	WORD	wordpools/wasnorm_wordpool_576.txt	LTP246	ltpFR2	21	16	JAPAN	749	n/a	n/a	0	0	0
3385430	WORD	wordpools/wasnorm_wordpool_576.txt	LTP246	ltpFR2	21	16	PICTURE	1061	n/a	n/a	0	0	0
3387900	WORD	wordpools/wasnorm_wordpool_576.txt	LTP246	ltpFR2	21	16	PALACE	1006	n/a	n/a	0	0	0
3390334	WORD	wordpools/wasnorm_wordpool_576.txt	LTP246	ltpFR2	21	16	LILY	821	n/a	n/a	0	0	0
3393137	WORD	wordpools/wasnorm_wordpool_576.txt	LTP246	ltpFR2	21	16	CATCHER	258	n/a	n/a	0	0	0
3395973	WORD	wordpools/wasnorm_wordpool_576.txt	LTP246	ltpFR2	21	16	UMPIRE	1535	n/a	n/a	0	0	0
3398457	WORD	wordpools/wasnorm_wordpool_576.txt	LTP246	ltpFR2	21	16	LUNCH	849	n/a	n/a	0	0	0
3401043	WORD	wordpools/wasnorm_wordpool_576.txt	LTP246	ltpFR2	21	16	RUST	1219	n/a	n/a	0	0	0
3403779	WORD	wordpools/wasnorm_wordpool_576.txt	LTP246	ltpFR2	21	16	APPLE	33	n/a	n/a	0	0	0
3406481	WORD	wordpools/wasnorm_wordpool_576.txt	LTP246	ltpFR2	21	16	EGYPT	519	n/a	n/a	0	0	0
3409233	WORD	wordpools/wasnorm_wordpool_576.txt	LTP246	ltpFR2	21	16	STATUE	1374	n/a	n/a	0	0	0
3411869	WORD	wordpools/wasnorm_wordpool_576.txt	LTP246	ltpFR2	21	16	BUCKET	184	n/a	n/a	0	0	0
3414420	WORD	wordpools/wasnorm_wordpool_576.txt	LTP246	ltpFR2	21	16	QUAIL	1147	n/a	n/a	0	0	0
3417173	WORD	wordpools/wasnorm_wordpool_576.txt	LTP246	ltpFR2	21	16	PASTRY	1022	n/a	n/a	0	0	0
3419942	WORD	wordpools/wasnorm_wordpool_576.txt	LTP246	ltpFR2	21	16	FUNGUS	614	n/a	n/a	0	0	0
3422678	WORD	wordpools/wasnorm_wordpool_576.txt	LTP246	ltpFR2	21	16	SALAD	1224	n/a	n/a	0	0	0
3425229	WORD	wordpools/wasnorm_wordpool_576.txt	LTP246	ltpFR2	21	16	SANDWICH	1232	n/a	n/a	0	0	0
3427915	WORD	wordpools/wasnorm_wordpool_576.txt	LTP246	ltpFR2	21	16	CABIN	211	n/a	n/a	0	0	0
3429534	START	n/a	LTP246	ltpFR2	21	n/a	n/a	n/a	25	n/a	n/a	n/a	n/a
3430465	DISTRACTOR	n/a	LTP246	ltpFR2	21	16	n/a	n/a	n/a	n/a	0	0	0
3430483	PROB	n/a	LTP246	ltpFR2	21	n/a	n/a	n/a	25	7	2	1	4
3431669	PROB	n/a	LTP246	ltpFR2	21	n/a	n/a	n/a	25	16	7	3	6
3433938	PROB	n/a	LTP246	ltpFR2	21	n/a	n/a	n/a	25	11	2	8	1
3434987	PROB	n/a	LTP246	ltpFR2	21	n/a	n/a	n/a	25	19	4	6	9
3436387	PROB	n/a	LTP246	ltpFR2	21	n/a	n/a	n/a	25	1	3	7	9
3437588	PROB	n/a	LTP246	ltpFR2	21	n/a	n/a	n/a	25	15	9	5	1
3439089	PROB	n/a	LTP246	ltpFR2	21	n/a	n/a	n/a	25	23	9	8	6
3440944	PROB	n/a	LTP246	ltpFR2	21	n/a	n/a	n/a	25	14	2	5	7
3442525	PROB	n/a	LTP246	ltpFR2	21	n/a	n/a	n/a	25	17	7	2	8
3443961	PROB	n/a	LTP246	ltpFR2	21	n/a	n/a	n/a	25	24	9	7	8
3445511	PROB	n/a	LTP246	ltpFR2	21	n/a	n/a	n/a	25	19	6	4	9
3446613	PROB	n/a	LTP246	ltpFR2	21	n/a	n/a	n/a	25	17	4	9	4
3448582	PROB	n/a	LTP246	ltpFR2	21	n/a	n/a	n/a	25	13	8	1	4
3453534	STOP	n/a	LTP246	ltpFR2	21	n/a	n/a	n/a	25	n/a	n/a	n/a	n/a
3455471	REC_START	n/a	LTP246	ltpFR2	21	16	n/a	n/a	n/a	n/a	0	0	0
3458627	REC_WORD	wordpools/wasnorm_wordpool_576.txt	LTP246	ltpFR2	21	16	CORAL	378	n/a	n/a	0	0	0
3460375	REC_WORD	wordpools/wasnorm_wordpool_576.txt	LTP246	ltpFR2	21	16	CRAYON	401	n/a	n/a	0	0	0
3467057	REC_WORD	wordpools/wasnorm_wordpool_576.txt	LTP246	ltpFR2	21	16	BRICK	172	n/a	n/a	0	0	0
3468353	REC_WORD	wordpools/wasnorm_wordpool_576.txt	LTP246	ltpFR2	21	16	ULCER	1533	n/a	n/a	0	0	0
3469616	REC_WORD	wordpools/wasnorm_wordpool_576.txt	LTP246	ltpFR2	21	16	PADDING	999	n/a	n/a	0	0	0
3470740	REC_WORD	wordpools/wasnorm_wordpool_576.txt	LTP246	ltpFR2	21	16	CHAPEL	280	n/a	n/a	0	0	0
3472077	REC_WORD	wordpools/wasnorm_wordpool_576.txt	LTP246	ltpFR2	21	16	JAPAN	749	n/a	n/a	0	0	0
3473394	REC_WORD	wordpools/wasnorm_wordpool_576.txt	LTP246	ltpFR2	21	16	PICTURE	1061	n/a	n/a	0	0	0
3474481	REC_WORD	wordpools/wasnorm_wordpool_576.txt	LTP246	ltpFR2	21	16	PALACE	1006	n/a	n/a	0	0	0
3475612	REC_WORD	wordpools/wasnorm_wordpool_576.txt	LTP246	ltpFR2	21	16	LILY	821	n/a	n/a	0	0	0
3476684	REC_WORD	wordpools/wasnorm_wordpool_576.txt	LTP246	ltpFR2	21	16	CATCHER	258	n/a	n/a	0	0	0
3477855	REC_WORD	wordpools/wasnorm_wordpool_576.txt	LTP246	ltpFR2	21	16	UMPIRE	1535	n/a	n/a	0	0	0
3478924	REC_WORD	wordpools/wasnorm_wordpool_576.txt	LTP246	ltpFR2	21	16	LUNCH	849	n/a	n/a	0	0	0
3479993	REC_WORD	wordpools/wasnorm_wordpool_576.txt	LTP246	ltpFR2	21	16	APPLE	33	n/a	n/a	0	0	0
3481041	REC_WORD	wordpools/wasnorm_wordpool_576.txt	LTP246	ltpFR2	21	16	RUST	1219	n/a	n/a	0	0	0
3532047	REST_REWET	n/a	LTP246	ltpFR2	21	16	n/a	n/a	n/a	n/a	0	0	0
3851137	DISTRACTOR	n/a	LTP246	ltpFR2	21	17	n/a	n/a	n/a	n/a	0	0	0
3851137	START	n/a	LTP246	ltpFR2	21	n/a	n/a	n/a	26	n/a	n/a	n/a	n/a
3851153	PROB	n/a	LTP246	ltpFR2	21	n/a	n/a	n/a	26	19	5	8	6
3852805	PROB	n/a	LTP246	ltpFR2	21	n/a	n/a	n/a	26	7	2	4	1
3853939	PROB	n/a	LTP246	ltpFR2	21	n/a	n/a	n/a	26	17	6	2	9
3855340	PROB	n/a	LTP246	ltpFR2	21	n/a	n/a	n/a	26	8	2	1	5
3856307	PROB	n/a	LTP246	ltpFR2	21	n/a	n/a	n/a	26	21	6	8	7
3857692	PROB	n/a	LTP246	ltpFR2	21	n/a	n/a	n/a	26	19	8	8	3
3859060	PROB	n/a	LTP246	ltpFR2	21	n/a	n/a	n/a	26	22	7	8	7
3861213	PROB	n/a	LTP246	ltpFR2	21	n/a	n/a	n/a	26	9	6	1	2
3862247	PROB	n/a	LTP246	ltpFR2	21	n/a	n/a	n/a	26	16	5	9	2
3863865	PROB	n/a	LTP246	ltpFR2	21	n/a	n/a	n/a	26	16	2	5	8
3866033	PROB	n/a	LTP246	ltpFR2	21	n/a	n/a	n/a	26	20	7	5	8
3868685	PROB	n/a	LTP246	ltpFR2	21	n/a	n/a	n/a	26	20	9	5	6
3870351	PROB	n/a	LTP246	ltpFR2	21	n/a	n/a	n/a	26	14	4	5	5
3871705	PROB	n/a	LTP246	ltpFR2	21	n/a	n/a	n/a	26	11	7	3	1
3873122	PROB	n/a	LTP246	ltpFR2	21	n/a	n/a	n/a	26	16	5	4	7
3874429	STOP	n/a	LTP246	ltpFR2	21	n/a	n/a	n/a	26	n/a	n/a	n/a	n/a
3876274	WORD	wordpools/wasnorm_wordpool_576.txt	LTP246	ltpFR2	21	17	GHETTO	633	n/a	n/a	0	0	0
3878960	WORD	wordpools/wasnorm_wordpool_576.txt	LTP246	ltpFR2	21	17	WORKER	1621	n/a	n/a	0	0	0
3881729	WORD	wordpools/wasnorm_wordpool_576.txt	LTP246	ltpFR2	21	17	OYSTER	995	n/a	n/a	0	0	0
3884546	WORD	wordpools/wasnorm_wordpool_576.txt	LTP246	ltpFR2	21	17	MACHINE	852	n/a	n/a	0	0	0
3887265	WORD	wordpools/wasnorm_wordpool_576.txt	LTP246	ltpFR2	21	17	WIDOW	1608	n/a	n/a	0	0	0
3889752	WORD	wordpools/wasnorm_wordpool_576.txt	LTP246	ltpFR2	21	17	PUPIL	1143	n/a	n/a	0	0	0
3892370	WORD	wordpools/wasnorm_wordpool_576.txt	LTP246	ltpFR2	21	17	STAKE	1368	n/a	n/a	0	0	0
3895072	WORD	wordpools/wasnorm_wordpool_576.txt	LTP246	ltpFR2	21	17	UNCLE	1536	n/a	n/a	0	0	0
3897609	WORD	wordpools/wasnorm_wordpool_576.txt	LTP246	ltpFR2	21	17	COUSIN	392	n/a	n/a	0	0	0
3900209	WORD	wordpools/wasnorm_wordpool_576.txt	LTP246	ltpFR2	21	17	SIDEWALK	1303	n/a	n/a	0	0	0
3902963	WORD	wordpools/wasnorm_wordpool_576.txt	LTP246	ltpFR2	21	17	BARLEY	88	n/a	n/a	0	0	0
3905681	WORD	wordpools/wasnorm_wordpool_576.txt	LTP246	ltpFR2	21	17	SCARECROW	1245	n/a	n/a	0	0	0
3908182	WORD	wordpools/wasnorm_wordpool_576.txt	LTP246	ltpFR2	21	17	CRICKET	408	n/a	n/a	0	0	0
3910852	WORD	wordpools/wasnorm_wordpool_576.txt	LTP246	ltpFR2	21	17	LACE	792	n/a	n/a	0	0	0
3913369	WORD	wordpools/wasnorm_wordpool_576.txt	LTP246	ltpFR2	21	17	DANCER	437	n/a	n/a	0	0	0
3916055	WORD	wordpools/wasnorm_wordpool_576.txt	LTP246	ltpFR2	21	17	FLASK	576	n/a	n/a	0	0	0
3918592	WORD	wordpools/wasnorm_wordpool_576.txt	LTP246	ltpFR2	21	17	STREAM	1392	n/a	n/a	0	0	0
3921242	WORD	wordpools/wasnorm_wordpool_576.txt	LTP246	ltpFR2	21	17	MAILBOX	857	n/a	n/a	0	0	0
3924045	WORD	wordpools/wasnorm_wordpool_576.txt	LTP246	ltpFR2	21	17	TOURIST	1488	n/a	n/a	0	0	0
3926681	WORD	wordpools/wasnorm_wordpool_576.txt	LTP246	ltpFR2	21	17	CLAM	315	n/a	n/a	0	0	0
3929483	WORD	wordpools/wasnorm_wordpool_576.txt	LTP246	ltpFR2	21	17	HORNET	718	n/a	n/a	0	0	0
3932152	WORD	wordpools/wasnorm_wordpool_576.txt	LTP246	ltpFR2	21	17	EXPERT	543	n/a	n/a	0	0	0
3934586	WORD	wordpools/wasnorm_wordpool_576.txt	LTP246	ltpFR2	21	17	WASHER	1592	n/a	n/a	0	0	0
3937323	WORD	wordpools/wasnorm_wordpool_576.txt	LTP246	ltpFR2	21	17	DOUGHNUT	490	n/a	n/a	0	0	0
3938942	START	n/a	LTP246	ltpFR2	21	n/a	n/a	n/a	27	n/a	n/a	n/a	n/a
3940034	DISTRACTOR	n/a	LTP246	ltpFR2	21	17	n/a	n/a	n/a	n/a	0	0	0
3940042	PROB	n/a	LTP246	ltpFR2	21	n/a	n/a	n/a	27	18	8	9	1
3941342	PROB	n/a	LTP246	ltpFR2	21	n/a	n/a	n/a	27	15	4	9	2
3943244	PROB	n/a	LTP246	ltpFR2	21	n/a	n/a	n/a	27	12	2	6	4
3944310	PROB	n/a	LTP246	ltpFR2	21	n/a	n/a	n/a	27	18	7	5	6
3946096	PROB	n/a	LTP246	ltpFR2	21	n/a	n/a	n/a	27	13	1	3	9
3947229	PROB	n/a	LTP246	ltpFR2	21	n/a	n/a	n/a	27	20	8	5	7
3948982	PROB	n/a	LTP246	ltpFR2	21	n/a	n/a	n/a	27	15	6	1	8
3951116	PROB	n/a	LTP246	ltpFR2	21	n/a	n/a	n/a	27	11	5	2	4
3953484	PROB	n/a	LTP246	ltpFR2	21	n/a	n/a	n/a	27	17	2	8	7
3954655	PROB	n/a	LTP246	ltpFR2	21	n/a	n/a	n/a	27	17	7	1	9
3956087	PROB	n/a	LTP246	ltpFR2	21	n/a	n/a	n/a	27	16	5	3	9
3959189	PROB	n/a	LTP246	ltpFR2	21	n/a	n/a	n/a	27	18	6	3	9
3960841	PROB	n/a	LTP246	ltpFR2	21	n/a	n/a	n/a	27	13	7	5	1
3962705	STOP	n/a	LTP246	ltpFR2	21	n/a	n/a	n/a	27	n/a	n/a	n/a	n/a
3964830	REC_START	n/a	LTP246	ltpFR2	21	17	n/a	n/a	n/a	n/a	0	0	0
3973193	REC_WORD	wordpools/wasnorm_wordpool_576.txt	LTP246	ltpFR2	21	17	GHETTO	633	n/a	n/a	0	0	0
3974609	REC_WORD	wordpools/wasnorm_wordpool_576.txt	LTP246	ltpFR2	21	17	WORKER	1621	n/a	n/a	0	0	0
3976014	REC_WORD	wordpools/wasnorm_wordpool_576.txt	LTP246	ltpFR2	21	17	OYSTER	995	n/a	n/a	0	0	0
3977484	REC_WORD	wordpools/wasnorm_wordpool_576.txt	LTP246	ltpFR2	21	17	MACHINE	852	n/a	n/a	0	0	0
3979869	REC_WORD	wordpools/wasnorm_wordpool_576.txt	LTP246	ltpFR2	21	17	WIDOW	1608	n/a	n/a	0	0	0
3981178	REC_WORD	wordpools/wasnorm_wordpool_576.txt	LTP246	ltpFR2	21	17	PUPIL	1143	n/a	n/a	0	0	0
3982301	REC_WORD	wordpools/wasnorm_wordpool_576.txt	LTP246	ltpFR2	21	17	STAKE	1368	n/a	n/a	0	0	0
3983747	REC_WORD	wordpools/wasnorm_wordpool_576.txt	LTP246	ltpFR2	21	17	UNCLE	1536	n/a	n/a	0	0	0
3984955	REC_WORD	wordpools/wasnorm_wordpool_576.txt	LTP246	ltpFR2	21	17	COUSIN	392	n/a	n/a	0	0	0
3986260	REC_WORD	wordpools/wasnorm_wordpool_576.txt	LTP246	ltpFR2	21	17	DANCER	437	n/a	n/a	0	0	0
3987443	REC_WORD	wordpools/wasnorm_wordpool_576.txt	LTP246	ltpFR2	21	17	LACE	792	n/a	n/a	0	0	0
4055284	DISTRACTOR	n/a	LTP246	ltpFR2	21	18	n/a	n/a	n/a	n/a	0	0	0
4055284	START	n/a	LTP246	ltpFR2	21	n/a	n/a	n/a	28	n/a	n/a	n/a	n/a
4055300	PROB	n/a	LTP246	ltpFR2	21	n/a	n/a	n/a	28	21	9	3	9
4057201	PROB	n/a	LTP246	ltpFR2	21	n/a	n/a	n/a	28	20	3	8	9
4058688	PROB	n/a	LTP246	ltpFR2	21	n/a	n/a	n/a	28	16	6	1	9
4061523	PROB	n/a	LTP246	ltpFR2	21	n/a	n/a	n/a	28	7	2	4	1
4062708	PROB	n/a	LTP246	ltpFR2	21	n/a	n/a	n/a	28	10	1	7	2
4063957	PROB	n/a	LTP246	ltpFR2	21	n/a	n/a	n/a	28	13	5	4	4
4065744	PROB	n/a	LTP246	ltpFR2	21	n/a	n/a	n/a	28	13	2	9	2
4067027	PROB	n/a	LTP246	ltpFR2	21	n/a	n/a	n/a	28	15	1	8	6
4069294	PROB	n/a	LTP246	ltpFR2	21	n/a	n/a	n/a	28	22	4	9	9
4071195	PROB	n/a	LTP246	ltpFR2	21	n/a	n/a	n/a	28	23	6	9	8
4073982	PROB	n/a	LTP246	ltpFR2	21	n/a	n/a	n/a	28	15	3	3	9
4076550	PROB	n/a	LTP246	ltpFR2	21	n/a	n/a	n/a	28	17	8	8	1
4077909	STOP	n/a	LTP246	ltpFR2	21	n/a	n/a	n/a	28	n/a	n/a	n/a	n/a
4080170	WORD	wordpools/wasnorm_wordpool_576.txt	LTP246	ltpFR2	21	18	YOLK	1633	n/a	n/a	0	0	0
4082774	WORD	wordpools/wasnorm_wordpool_576.txt	LTP246	ltpFR2	21	18	ISLAND	745	n/a	n/a	0	0	0
4085474	WORD	wordpools/wasnorm_wordpool_576.txt	LTP246	ltpFR2	21	18	RIVER	1194	n/a	n/a	0	0	0
4088059	WORD	wordpools/wasnorm_wordpool_576.txt	LTP246	ltpFR2	21	18	MESSAGE	888	n/a	n/a	0	0	0
4090730	WORD	wordpools/wasnorm_wordpool_576.txt	LTP246	ltpFR2	21	18	NAPKIN	937	n/a	n/a	0	0	0
4093380	WORD	wordpools/wasnorm_wordpool_576.txt	LTP246	ltpFR2	21	18	PECAN	1036	n/a	n/a	0	0	0
4096067	WORD	wordpools/wasnorm_wordpool_576.txt	LTP246	ltpFR2	21	18	MATTRESS	879	n/a	n/a	0	0	0
4098686	WORD	wordpools/wasnorm_wordpool_576.txt	LTP246	ltpFR2	21	18	LIGHTNING	820	n/a	n/a	0	0	0
4101186	WORD	wordpools/wasnorm_wordpool_576.txt	LTP246	ltpFR2	21	18	SISTER	1312	n/a	n/a	0	0	0
4103857	WORD	wordpools/wasnorm_wordpool_576.txt	LTP246	ltpFR2	21	18	CUSTARD	429	n/a	n/a	0	0	0
4106558	WORD	wordpools/wasnorm_wordpool_576.txt	LTP246	ltpFR2	21	18	PASTA	1021	n/a	n/a	0	0	0
4109277	WORD	wordpools/wasnorm_wordpool_576.txt	LTP246	ltpFR2	21	18	PERMIT	1051	n/a	n/a	0	0	0
4112012	WORD	wordpools/wasnorm_wordpool_576.txt	LTP246	ltpFR2	21	18	FIREPLACE	570	n/a	n/a	0	0	0
4114699	WORD	wordpools/wasnorm_wordpool_576.txt	LTP246	ltpFR2	21	18	DRIVER	499	n/a	n/a	0	0	0
4117384	WORD	wordpools/wasnorm_wordpool_576.txt	LTP246	ltpFR2	21	18	CANDY	230	n/a	n/a	0	0	0
4120185	WORD	wordpools/wasnorm_wordpool_576.txt	LTP246	ltpFR2	21	18	DOLPHIN	483	n/a	n/a	0	0	0
4122756	WORD	wordpools/wasnorm_wordpool_576.txt	LTP246	ltpFR2	21	18	MONEY	908	n/a	n/a	0	0	0
4125473	WORD	wordpools/wasnorm_wordpool_576.txt	LTP246	ltpFR2	21	18	DRESSER	496	n/a	n/a	0	0	0
4128109	WORD	wordpools/wasnorm_wordpool_576.txt	LTP246	ltpFR2	21	18	GUITAR	670	n/a	n/a	0	0	0
4130745	WORD	wordpools/wasnorm_wordpool_576.txt	LTP246	ltpFR2	21	18	BANKER	84	n/a	n/a	0	0	0
4133213	WORD	wordpools/wasnorm_wordpool_576.txt	LTP246	ltpFR2	21	18	KNIFE	785	n/a	n/a	0	0	0
4136031	WORD	wordpools/wasnorm_wordpool_576.txt	LTP246	ltpFR2	21	18	SPOON	1357	n/a	n/a	0	0	0
4138785	WORD	wordpools/wasnorm_wordpool_576.txt	LTP246	ltpFR2	21	18	TWISTER	1530	n/a	n/a	0	0	0
4141319	WORD	wordpools/wasnorm_wordpool_576.txt	LTP246	ltpFR2	21	18	ROOSTER	1209	n/a	n/a	0	0	0
4142939	START	n/a	LTP246	ltpFR2	21	n/a	n/a	n/a	29	n/a	n/a	n/a	n/a
4143745	DISTRACTOR	n/a	LTP246	ltpFR2	21	18	n/a	n/a	n/a	n/a	0	0	0
4143756	PROB	n/a	LTP246	ltpFR2	21	n/a	n/a	n/a	29	9	2	1	6
4145438	PROB	n/a	LTP246	ltpFR2	21	n/a	n/a	n/a	29	22	8	8	6
4147525	PROB	n/a	LTP246	ltpFR2	21	n/a	n/a	n/a	29	19	2	8	9
4149077	PROB	n/a	LTP246	ltpFR2	21	n/a	n/a	n/a	29	20	7	8	5
4150994	PROB	n/a	LTP246	ltpFR2	21	n/a	n/a	n/a	29	17	7	8	2
4152696	PROB	n/a	LTP246	ltpFR2	21	n/a	n/a	n/a	29	16	6	9	1
4153698	PROB	n/a	LTP246	ltpFR2	21	n/a	n/a	n/a	29	13	3	1	9
4154915	PROB	n/a	LTP246	ltpFR2	21	n/a	n/a	n/a	29	15	8	5	2
4156064	PROB	n/a	LTP246	ltpFR2	21	n/a	n/a	n/a	29	8	3	4	1
4157298	PROB	n/a	LTP246	ltpFR2	21	n/a	n/a	n/a	29	16	2	7	7
4158482	PROB	n/a	LTP246	ltpFR2	21	n/a	n/a	n/a	29	14	7	2	5
4160502	PROB	n/a	LTP246	ltpFR2	21	n/a	n/a	n/a	29	21	5	8	8
4162621	PROB	n/a	LTP246	ltpFR2	21	n/a	n/a	n/a	29	18	3	7	8
4163788	PROB	n/a	LTP246	ltpFR2	21	n/a	n/a	n/a	29	14	7	5	2
4165172	PROB	n/a	LTP246	ltpFR2	21	n/a	n/a	n/a	29	18	6	4	8
4166176	STOP	n/a	LTP246	ltpFR2	21	n/a	n/a	n/a	29	n/a	n/a	n/a	n/a
4168742	REC_START	n/a	LTP246	ltpFR2	21	18	n/a	n/a	n/a	n/a	0	0	0
4171544	REC_WORD	wordpools/wasnorm_wordpool_576.txt	LTP246	ltpFR2	21	18	TWISTER	1530	n/a	n/a	0	0	0
4172929	REC_WORD	wordpools/wasnorm_wordpool_576.txt	LTP246	ltpFR2	21	18	ROOSTER	1209	n/a	n/a	0	0	0
4174143	REC_WORD	wordpools/wasnorm_wordpool_576.txt	LTP246	ltpFR2	21	18	ISLAND	745	n/a	n/a	0	0	0
4175261	REC_WORD	wordpools/wasnorm_wordpool_576.txt	LTP246	ltpFR2	21	18	RIVER	1194	n/a	n/a	0	0	0
4176328	REC_WORD	wordpools/wasnorm_wordpool_576.txt	LTP246	ltpFR2	21	18	MESSAGE	888	n/a	n/a	0	0	0
4177361	REC_WORD	wordpools/wasnorm_wordpool_576.txt	LTP246	ltpFR2	21	18	NAPKIN	937	n/a	n/a	0	0	0
4178585	REC_WORD	wordpools/wasnorm_wordpool_576.txt	LTP246	ltpFR2	21	18	PECAN	1036	n/a	n/a	0	0	0
4179632	REC_WORD	wordpools/wasnorm_wordpool_576.txt	LTP246	ltpFR2	21	18	LIGHTNING	820	n/a	n/a	0	0	0
4259213	WORD	wordpools/wasnorm_wordpool_576.txt	LTP246	ltpFR2	21	19	PARROT	1015	n/a	n/a	0	0	0
4261650	WORD	wordpools/wasnorm_wordpool_576.txt	LTP246	ltpFR2	21	19	KITCHEN	778	n/a	n/a	0	0	0
4264334	WORD	wordpools/wasnorm_wordpool_576.txt	LTP246	ltpFR2	21	19	OX	994	n/a	n/a	0	0	0
4266787	WORD	wordpools/wasnorm_wordpool_576.txt	LTP246	ltpFR2	21	19	LABEL	790	n/a	n/a	0	0	0
4269489	WORD	wordpools/wasnorm_wordpool_576.txt	LTP246	ltpFR2	21	19	TWEEZERS	1526	n/a	n/a	0	0	0
4272157	WORD	wordpools/wasnorm_wordpool_576.txt	LTP246	ltpFR2	21	19	TRACTOR	1493	n/a	n/a	0	0	0
4274827	WORD	wordpools/wasnorm_wordpool_576.txt	LTP246	ltpFR2	21	19	NEUTRON	947	n/a	n/a	0	0	0
4277411	WORD	wordpools/wasnorm_wordpool_576.txt	LTP246	ltpFR2	21	19	OZONE	996	n/a	n/a	0	0	0
4280214	WORD	wordpools/wasnorm_wordpool_576.txt	LTP246	ltpFR2	21	19	COWBOY	395	n/a	n/a	0	0	0
4282666	WORD	wordpools/wasnorm_wordpool_576.txt	LTP246	ltpFR2	21	19	ICEBERG	731	n/a	n/a	0	0	0
4285385	WORD	wordpools/wasnorm_wordpool_576.txt	LTP246	ltpFR2	21	19	HIGHWAY	707	n/a	n/a	0	0	0
4288137	WORD	wordpools/wasnorm_wordpool_576.txt	LTP246	ltpFR2	21	19	GRAVEL	659	n/a	n/a	0	0	0
4290956	WORD	wordpools/wasnorm_wordpool_576.txt	LTP246	ltpFR2	21	19	PLATE	1086	n/a	n/a	0	0	0
4293792	WORD	wordpools/wasnorm_wordpool_576.txt	LTP246	ltpFR2	21	19	MASK	876	n/a	n/a	0	0	0
4296376	WORD	wordpools/wasnorm_wordpool_576.txt	LTP246	ltpFR2	21	19	TURTLE	1522	n/a	n/a	0	0	0
4299145	WORD	wordpools/wasnorm_wordpool_576.txt	LTP246	ltpFR2	21	19	CHILD	299	n/a	n/a	0	0	0
4301781	WORD	wordpools/wasnorm_wordpool_576.txt	LTP246	ltpFR2	21	19	DAUGHTER	442	n/a	n/a	0	0	0
4304400	WORD	wordpools/wasnorm_wordpool_576.txt	LTP246	ltpFR2	21	19	MOTEL	919	n/a	n/a	0	0	0
4307119	WORD	wordpools/wasnorm_wordpool_576.txt	LTP246	ltpFR2	21	19	TABLE	1426	n/a	n/a	0	0	0
4309939	WORD	wordpools/wasnorm_wordpool_576.txt	LTP246	ltpFR2	21	19	COUCH	386	n/a	n/a	0	0	0
4312540	WORD	wordpools/wasnorm_wordpool_576.txt	LTP246	ltpFR2	21	19	VAGRANT	1544	n/a	n/a	0	0	0
4315359	WORD	wordpools/wasnorm_wordpool_576.txt	LTP246	ltpFR2	21	19	HUSBAND	728	n/a	n/a	0	0	0
4318127	WORD	wordpools/wasnorm_wordpool_576.txt	LTP246	ltpFR2	21	19	STICKER	1382	n/a	n/a	0	0	0
4320697	WORD	wordpools/wasnorm_wordpool_576.txt	LTP246	ltpFR2	21	19	TORTOISE	1486	n/a	n/a	0	0	0
4322315	START	n/a	LTP246	ltpFR2	21	n/a	n/a	n/a	30	n/a	n/a	n/a	n/a
4323328	DISTRACTOR	n/a	LTP246	ltpFR2	21	19	n/a	n/a	n/a	n/a	0	0	0
4323333	PROB	n/a	LTP246	ltpFR2	21	n/a	n/a	n/a	30	6	1	1	4
4324617	PROB	n/a	LTP246	ltpFR2	21	n/a	n/a	n/a	30	14	8	4	2
4325917	PROB	n/a	LTP246	ltpFR2	21	n/a	n/a	n/a	30	19	6	5	8
4327134	PROB	n/a	LTP246	ltpFR2	21	n/a	n/a	n/a	30	19	7	4	8
4328571	PROB	n/a	LTP246	ltpFR2	21	n/a	n/a	n/a	30	9	2	2	5
4329670	PROB	n/a	LTP246	ltpFR2	21	n/a	n/a	n/a	30	15	4	4	7
4331372	PROB	n/a	LTP246	ltpFR2	21	n/a	n/a	n/a	30	13	7	2	5
4333241	PROB	n/a	LTP246	ltpFR2	21	n/a	n/a	n/a	30	14	9	2	3
4336960	PROB	n/a	LTP246	ltpFR2	21	n/a	n/a	n/a	30	10	5	4	1
4338111	PROB	n/a	LTP246	ltpFR2	21	n/a	n/a	n/a	30	16	7	3	6
4339829	PROB	n/a	LTP246	ltpFR2	21	n/a	n/a	n/a	30	17	7	2	8
4341130	PROB	n/a	LTP246	ltpFR2	21	n/a	n/a	n/a	30	14	4	1	9
4342966	PROB	n/a	LTP246	ltpFR2	21	n/a	n/a	n/a	30	12	1	5	6
4344032	PROB	n/a	LTP246	ltpFR2	21	n/a	n/a	n/a	30	19	1	9	9
4345696	STOP	n/a	LTP246	ltpFR2	21	n/a	n/a	n/a	30	n/a	n/a	n/a	n/a
4348170	REC_START	n/a	LTP246	ltpFR2	21	19	n/a	n/a	n/a	n/a	0	0	0
4352050	REC_WORD	wordpools/wasnorm_wordpool_576.txt	LTP246	ltpFR2	21	19	TURTLE	1522	n/a	n/a	0	0	0
4353383	REC_WORD	wordpools/wasnorm_wordpool_576.txt	LTP246	ltpFR2	21	19	MASK	876	n/a	n/a	0	0	0
4354668	REC_WORD	wordpools/wasnorm_wordpool_576.txt	LTP246	ltpFR2	21	19	CHILD	299	n/a	n/a	0	0	0
4356022	REC_WORD	wordpools/wasnorm_wordpool_576.txt	LTP246	ltpFR2	21	19	DAUGHTER	442	n/a	n/a	0	0	0
4357053	REC_WORD	wordpools/wasnorm_wordpool_576.txt	LTP246	ltpFR2	21	19	VAGRANT	1544	n/a	n/a	0	0	0
4358173	REC_WORD	wordpools/wasnorm_wordpool_576.txt	LTP246	ltpFR2	21	19	COUCH	386	n/a	n/a	0	0	0
4359370	REC_WORD	wordpools/wasnorm_wordpool_576.txt	LTP246	ltpFR2	21	19	TABLE	1426	n/a	n/a	0	0	0
4360489	REC_WORD	wordpools/wasnorm_wordpool_576.txt	LTP246	ltpFR2	21	19	HUSBAND	728	n/a	n/a	0	0	0
4361613	REC_WORD	wordpools/wasnorm_wordpool_576.txt	LTP246	ltpFR2	21	19	LABEL	790	n/a	n/a	0	0	0
4362817	REC_WORD	wordpools/wasnorm_wordpool_576.txt	LTP246	ltpFR2	21	19	TORTOISE	1486	n/a	n/a	0	0	0
4364082	REC_WORD	wordpools/wasnorm_wordpool_576.txt	LTP246	ltpFR2	21	19	OX	994	n/a	n/a	0	0	0
4370261	REC_WORD	wordpools/wasnorm_wordpool_576.txt	LTP246	ltpFR2	21	19	STICKER	1382	n/a	n/a	0	0	0
4372870	REC_WORD	wordpools/wasnorm_wordpool_576.txt	LTP246	ltpFR2	21	19	TWEEZERS	1526	n/a	n/a	0	0	0
4378233	REC_WORD	wordpools/wasnorm_wordpool_576.txt	LTP246	ltpFR2	21	19	MOTEL	919	n/a	n/a	0	0	0
4438642	WORD	wordpools/wasnorm_wordpool_576.txt	LTP246	ltpFR2	21	20	CANAL	226	n/a	n/a	0	0	0
4441293	WORD	wordpools/wasnorm_wordpool_576.txt	LTP246	ltpFR2	21	20	YACHT	1629	n/a	n/a	0	0	0
4443745	WORD	wordpools/wasnorm_wordpool_576.txt	LTP246	ltpFR2	21	20	MARSH	874	n/a	n/a	0	0	0
4446513	WORD	wordpools/wasnorm_wordpool_576.txt	LTP246	ltpFR2	21	20	PATIENT	1024	n/a	n/a	0	0	0
4449299	WORD	wordpools/wasnorm_wordpool_576.txt	LTP246	ltpFR2	21	20	CREATURE	403	n/a	n/a	0	0	0
4452051	WORD	wordpools/wasnorm_wordpool_576.txt	LTP246	ltpFR2	21	20	GYMNAST	675	n/a	n/a	0	0	0
4454638	WORD	wordpools/wasnorm_wordpool_576.txt	LTP246	ltpFR2	21	20	TOASTER	1472	n/a	n/a	0	0	0
4457255	WORD	wordpools/wasnorm_wordpool_576.txt	LTP246	ltpFR2	21	20	MOTOR	922	n/a	n/a	0	0	0
4459991	WORD	wordpools/wasnorm_wordpool_576.txt	LTP246	ltpFR2	21	20	MEDAL	885	n/a	n/a	0	0	0
4462694	WORD	wordpools/wasnorm_wordpool_576.txt	LTP246	ltpFR2	21	20	STAMP	1370	n/a	n/a	0	0	0
4465212	WORD	wordpools/wasnorm_wordpool_576.txt	LTP246	ltpFR2	21	20	JUNGLE	764	n/a	n/a	0	0	0
4467864	WORD	wordpools/wasnorm_wordpool_576.txt	LTP246	ltpFR2	21	20	PARENT	1013	n/a	n/a	0	0	0
4470332	WORD	wordpools/wasnorm_wordpool_576.txt	LTP246	ltpFR2	21	20	AWARD	63	n/a	n/a	0	0	0
4472969	WORD	wordpools/wasnorm_wordpool_576.txt	LTP246	ltpFR2	21	20	POPCORN	1104	n/a	n/a	0	0	0
4475738	WORD	wordpools/wasnorm_wordpool_576.txt	LTP246	ltpFR2	21	20	CUPBOARD	425	n/a	n/a	0	0	0
4478356	WORD	wordpools/wasnorm_wordpool_576.txt	LTP246	ltpFR2	21	20	SILK	1307	n/a	n/a	0	0	0
4481024	WORD	wordpools/wasnorm_wordpool_576.txt	LTP246	ltpFR2	21	20	SCRIBBLE	1256	n/a	n/a	0	0	0
4483761	WORD	wordpools/wasnorm_wordpool_576.txt	LTP246	ltpFR2	21	20	SKETCH	1315	n/a	n/a	0	0	0
4486429	WORD	wordpools/wasnorm_wordpool_576.txt	LTP246	ltpFR2	21	20	SHIRT	1287	n/a	n/a	0	0	0
4489148	WORD	wordpools/wasnorm_wordpool_576.txt	LTP246	ltpFR2	21	20	BUGGY	188	n/a	n/a	0	0	0
4491835	WORD	wordpools/wasnorm_wordpool_576.txt	LTP246	ltpFR2	21	20	WINDOW	1611	n/a	n/a	0	0	0
