onset	duration	trial_type	sample	stim_file	subject	experiment	session	trial	task	item_name	item_num	recog_resp	recog_conf	resp	answer	test_x	test_y	test_z	color_r	color_g	color_b	case	font
236.164	n/a	SESS_START	118082	n/a	LTP074	ltpFR	7	n/a	n/a	n/a	n/a	1	4	n/a	n/a	0	0	0	n/a	n/a	n/a	n/a	n/a
296.928	n/a	START	148464	n/a	LTP074	ltpFR	7	n/a	n/a	n/a	n/a	n/a	n/a	n/a	n/a	n/a	n/a	n/a	n/a	n/a	n/a	n/a	n/a
296.952	n/a	PROB	148476	n/a	LTP074	ltpFR	7	n/a	n/a	n/a	n/a	n/a	n/a	n/a	9	4	2	3	n/a	n/a	n/a	n/a	n/a
299.392	n/a	PROB	149696	n/a	LTP074	ltpFR	7	n/a	n/a	n/a	n/a	n/a	n/a	n/a	22	7	9	6	n/a	n/a	n/a	n/a	n/a
303.986	n/a	PROB	151993	n/a	LTP074	ltpFR	7	n/a	n/a	n/a	n/a	n/a	n/a	n/a	11	4	1	6	n/a	n/a	n/a	n/a	n/a
305.794	n/a	PROB	152897	n/a	LTP074	ltpFR	7	n/a	n/a	n/a	n/a	n/a	n/a	n/a	12	3	3	6	n/a	n/a	n/a	n/a	n/a
307.144	n/a	PROB	153572	n/a	LTP074	ltpFR	7	n/a	n/a	n/a	n/a	n/a	n/a	n/a	16	3	5	8	n/a	n/a	n/a	n/a	n/a
309.26	n/a	PROB	154630	n/a	LTP074	ltpFR	7	n/a	n/a	n/a	n/a	n/a	n/a	n/a	18	8	5	5	n/a	n/a	n/a	n/a	n/a
311.026	n/a	PROB	155513	n/a	LTP074	ltpFR	7	n/a	n/a	n/a	n/a	n/a	n/a	n/a	7	2	4	1	n/a	n/a	n/a	n/a	n/a
312.852	n/a	PROB	156426	n/a	LTP074	ltpFR	7	n/a	n/a	n/a	n/a	n/a	n/a	n/a	16	2	6	8	n/a	n/a	n/a	n/a	n/a
316.928	n/a	STOP	158464	n/a	LTP074	ltpFR	7	n/a	n/a	n/a	n/a	n/a	n/a	n/a	n/a	n/a	n/a	n/a	n/a	n/a	n/a	n/a	n/a
389.426	n/a	START	194713	n/a	LTP074	ltpFR	7	n/a	n/a	n/a	n/a	n/a	n/a	n/a	n/a	n/a	n/a	n/a	n/a	n/a	n/a	n/a	n/a
390.926	n/a	PROB	195463	n/a	LTP074	ltpFR	7	n/a	n/a	n/a	n/a	n/a	n/a	n/a	12	1	4	7	n/a	n/a	n/a	n/a	n/a
394.082	n/a	PROB	197041	n/a	LTP074	ltpFR	7	n/a	n/a	n/a	n/a	n/a	n/a	n/a	17	6	4	7	n/a	n/a	n/a	n/a	n/a
396.168	n/a	STOP	198084	n/a	LTP074	ltpFR	7	n/a	n/a	n/a	n/a	n/a	n/a	n/a	n/a	n/a	n/a	n/a	n/a	n/a	n/a	n/a	n/a
398.316	n/a	WORD	199158	wordpools/wasnorm_wordpool.txt	LTP074	ltpFR	7	1	1	AGENT	10	0	n/a	1	n/a	0	0	0	0.57763671875	0.412841796875	1	upper	amplitud.ttf
401.324	n/a	START	200662	n/a	LTP074	ltpFR	7	n/a	n/a	n/a	n/a	n/a	n/a	n/a	n/a	n/a	n/a	n/a	n/a	n/a	n/a	n/a	n/a
402.248	n/a	PROB	201124	n/a	LTP074	ltpFR	7	n/a	n/a	n/a	n/a	n/a	n/a	n/a	11	5	4	2	n/a	n/a	n/a	n/a	n/a
404.432	n/a	PROB	202216	n/a	LTP074	ltpFR	7	n/a	n/a	n/a	n/a	n/a	n/a	n/a	14	4	2	8	n/a	n/a	n/a	n/a	n/a
406.448	n/a	PROB	203224	n/a	LTP074	ltpFR	7	n/a	n/a	n/a	n/a	n/a	n/a	n/a	9	2	6	1	n/a	n/a	n/a	n/a	n/a
408.104	n/a	STOP	204052	n/a	LTP074	ltpFR	7	n/a	n/a	n/a	n/a	n/a	n/a	n/a	n/a	n/a	n/a	n/a	n/a	n/a	n/a	n/a	n/a
410.35	n/a	WORD	205175	wordpools/wasnorm_wordpool.txt	LTP074	ltpFR	7	1	1	PIANO	1057	n/a	n/a	0	n/a	0	0	0	0.57763671875	0.412841796875	1	upper	amplitud.ttf
413.358	n/a	START	206679	n/a	LTP074	ltpFR	7	n/a	n/a	n/a	n/a	n/a	n/a	n/a	n/a	n/a	n/a	n/a	n/a	n/a	n/a	n/a	n/a
414.266	n/a	PROB	207133	n/a	LTP074	ltpFR	7	n/a	n/a	n/a	n/a	n/a	n/a	n/a	12	3	8	1	n/a	n/a	n/a	n/a	n/a
415.79	n/a	PROB	207895	n/a	LTP074	ltpFR	7	n/a	n/a	n/a	n/a	n/a	n/a	n/a	24	9	5	9	n/a	n/a	n/a	n/a	n/a
421.358	n/a	STOP	210679	n/a	LTP074	ltpFR	7	n/a	n/a	n/a	n/a	n/a	n/a	n/a	n/a	n/a	n/a	n/a	n/a	n/a	n/a	n/a	n/a
422.232	n/a	WORD	211116	wordpools/wasnorm_wordpool.txt	LTP074	ltpFR	7	1	1	CHECKERS	285	n/a	n/a	0	n/a	0	0	0	0.57763671875	0.412841796875	1	upper	amplitud.ttf
425.24	n/a	START	212620	n/a	LTP074	ltpFR	7	n/a	n/a	n/a	n/a	n/a	n/a	n/a	n/a	n/a	n/a	n/a	n/a	n/a	n/a	n/a	n/a
426.114	n/a	PROB	213057	n/a	LTP074	ltpFR	7	n/a	n/a	n/a	n/a	n/a	n/a	n/a	17	8	1	8	n/a	n/a	n/a	n/a	n/a
428.932	n/a	PROB	214466	n/a	LTP074	ltpFR	7	n/a	n/a	n/a	n/a	n/a	n/a	n/a	21	5	8	8	n/a	n/a	n/a	n/a	n/a
430.982	n/a	PROB	215491	n/a	LTP074	ltpFR	7	n/a	n/a	n/a	n/a	n/a	n/a	n/a	22	9	4	9	n/a	n/a	n/a	n/a	n/a
433.194	n/a	STOP	216597	n/a	LTP074	ltpFR	7	n/a	n/a	n/a	n/a	n/a	n/a	n/a	n/a	n/a	n/a	n/a	n/a	n/a	n/a	n/a	n/a
434.232	n/a	WORD	217116	wordpools/wasnorm_wordpool.txt	LTP074	ltpFR	7	1	1	AIRCRAFT	11	n/a	n/a	0	n/a	0	0	0	0.57763671875	0.412841796875	1	upper	amplitud.ttf
437.24	n/a	START	218620	n/a	LTP074	ltpFR	7	n/a	n/a	n/a	n/a	n/a	n/a	n/a	n/a	n/a	n/a	n/a	n/a	n/a	n/a	n/a	n/a
438.074	n/a	PROB	219037	n/a	LTP074	ltpFR	7	n/a	n/a	n/a	n/a	n/a	n/a	n/a	17	3	8	6	n/a	n/a	n/a	n/a	n/a
441.256	n/a	PROB	220628	n/a	LTP074	ltpFR	7	n/a	n/a	n/a	n/a	n/a	n/a	n/a	14	3	9	2	n/a	n/a	n/a	n/a	n/a
443.172	n/a	PROB	221586	n/a	LTP074	ltpFR	7	n/a	n/a	n/a	n/a	n/a	n/a	n/a	7	1	2	4	n/a	n/a	n/a	n/a	n/a
444.378	n/a	STOP	222189	n/a	LTP074	ltpFR	7	n/a	n/a	n/a	n/a	n/a	n/a	n/a	n/a	n/a	n/a	n/a	n/a	n/a	n/a	n/a	n/a
446.072	n/a	WORD	223036	wordpools/wasnorm_wordpool.txt	LTP074	ltpFR	7	1	1	TRAITOR	1495	n/a	n/a	1	n/a	0	0	0	0.57763671875	0.412841796875	1	upper	amplitud.ttf
449.082	n/a	START	224541	n/a	LTP074	ltpFR	7	n/a	n/a	n/a	n/a	n/a	n/a	n/a	n/a	n/a	n/a	n/a	n/a	n/a	n/a	n/a	n/a
450.256	n/a	PROB	225128	n/a	LTP074	ltpFR	7	n/a	n/a	n/a	n/a	n/a	n/a	n/a	6	1	1	4	n/a	n/a	n/a	n/a	n/a
451.448	n/a	PROB	225724	n/a	LTP074	ltpFR	7	n/a	n/a	n/a	n/a	n/a	n/a	n/a	19	8	8	3	n/a	n/a	n/a	n/a	n/a
453.098	n/a	PROB	226549	n/a	LTP074	ltpFR	7	n/a	n/a	n/a	n/a	n/a	n/a	n/a	10	2	3	5	n/a	n/a	n/a	n/a	n/a
454.74	n/a	PROB	227370	n/a	LTP074	ltpFR	7	n/a	n/a	n/a	n/a	n/a	n/a	n/a	21	4	9	8	n/a	n/a	n/a	n/a	n/a
457.026	n/a	STOP	228513	n/a	LTP074	ltpFR	7	n/a	n/a	n/a	n/a	n/a	n/a	n/a	n/a	n/a	n/a	n/a	n/a	n/a	n/a	n/a	n/a
458.048	n/a	WORD	229024	wordpools/wasnorm_wordpool.txt	LTP074	ltpFR	7	1	1	CROCODILE	411	n/a	n/a	1	n/a	0	0	0	0.57763671875	0.412841796875	1	upper	amplitud.ttf
461.056	n/a	START	230528	n/a	LTP074	ltpFR	7	n/a	n/a	n/a	n/a	n/a	n/a	n/a	n/a	n/a	n/a	n/a	n/a	n/a	n/a	n/a	n/a
462.23	n/a	PROB	231115	n/a	LTP074	ltpFR	7	n/a	n/a	n/a	n/a	n/a	n/a	n/a	10	3	1	6	n/a	n/a	n/a	n/a	n/a
463.848	n/a	PROB	231924	n/a	LTP074	ltpFR	7	n/a	n/a	n/a	n/a	n/a	n/a	n/a	19	6	8	5	n/a	n/a	n/a	n/a	n/a
466.106	n/a	PROB	233053	n/a	LTP074	ltpFR	7	n/a	n/a	n/a	n/a	n/a	n/a	n/a	15	7	6	2	n/a	n/a	n/a	n/a	n/a
468.162	n/a	STOP	234081	n/a	LTP074	ltpFR	7	n/a	n/a	n/a	n/a	n/a	n/a	n/a	n/a	n/a	n/a	n/a	n/a	n/a	n/a	n/a	n/a
469.906	n/a	WORD	234953	wordpools/wasnorm_wordpool.txt	LTP074	ltpFR	7	1	1	BUFFALO	186	n/a	n/a	1	n/a	0	0	0	0.57763671875	0.412841796875	1	upper	amplitud.ttf
472.914	n/a	START	236457	n/a	LTP074	ltpFR	7	n/a	n/a	n/a	n/a	n/a	n/a	n/a	n/a	n/a	n/a	n/a	n/a	n/a	n/a	n/a	n/a
473.89	n/a	PROB	236945	n/a	LTP074	ltpFR	7	n/a	n/a	n/a	n/a	n/a	n/a	n/a	17	2	9	6	n/a	n/a	n/a	n/a	n/a
476.03	n/a	PROB	238015	n/a	LTP074	ltpFR	7	n/a	n/a	n/a	n/a	n/a	n/a	n/a	16	6	7	3	n/a	n/a	n/a	n/a	n/a
477.522	n/a	PROB	238761	n/a	LTP074	ltpFR	7	n/a	n/a	n/a	n/a	n/a	n/a	n/a	15	5	4	6	n/a	n/a	n/a	n/a	n/a
480.916	n/a	STOP	240458	n/a	LTP074	ltpFR	7	n/a	n/a	n/a	n/a	n/a	n/a	n/a	n/a	n/a	n/a	n/a	n/a	n/a	n/a	n/a	n/a
481.822	n/a	WORD	240911	wordpools/wasnorm_wordpool.txt	LTP074	ltpFR	7	1	1	PORTRAIT	1111	n/a	n/a	0	n/a	0	0	0	0.57763671875	0.412841796875	1	upper	amplitud.ttf
484.832	n/a	START	242416	n/a	LTP074	ltpFR	7	n/a	n/a	n/a	n/a	n/a	n/a	n/a	n/a	n/a	n/a	n/a	n/a	n/a	n/a	n/a	n/a
485.722	n/a	PROB	242861	n/a	LTP074	ltpFR	7	n/a	n/a	n/a	n/a	n/a	n/a	n/a	23	6	9	8	n/a	n/a	n/a	n/a	n/a
488.622	n/a	PROB	244311	n/a	LTP074	ltpFR	7	n/a	n/a	n/a	n/a	n/a	n/a	n/a	17	8	3	6	n/a	n/a	n/a	n/a	n/a
490.738	n/a	PROB	245369	n/a	LTP074	ltpFR	7	n/a	n/a	n/a	n/a	n/a	n/a	n/a	9	1	3	5	n/a	n/a	n/a	n/a	n/a
492.044	n/a	STOP	246022	n/a	LTP074	ltpFR	7	n/a	n/a	n/a	n/a	n/a	n/a	n/a	n/a	n/a	n/a	n/a	n/a	n/a	n/a	n/a	n/a
493.98	n/a	WORD	246990	wordpools/wasnorm_wordpool.txt	LTP074	ltpFR	7	1	1	CUPBOARD	425	n/a	n/a	0	n/a	0	0	0	0.57763671875	0.412841796875	1	upper	amplitud.ttf
496.988	n/a	START	248494	n/a	LTP074	ltpFR	7	n/a	n/a	n/a	n/a	n/a	n/a	n/a	n/a	n/a	n/a	n/a	n/a	n/a	n/a	n/a	n/a
497.84	n/a	PROB	248920	n/a	LTP074	ltpFR	7	n/a	n/a	n/a	n/a	n/a	n/a	n/a	16	3	5	8	n/a	n/a	n/a	n/a	n/a
500.014	n/a	PROB	250007	n/a	LTP074	ltpFR	7	n/a	n/a	n/a	n/a	n/a	n/a	n/a	9	3	5	1	n/a	n/a	n/a	n/a	n/a
501.496	n/a	PROB	250748	n/a	LTP074	ltpFR	7	n/a	n/a	n/a	n/a	n/a	n/a	n/a	21	9	9	3	n/a	n/a	n/a	n/a	n/a
503.322	n/a	PROB	251661	n/a	LTP074	ltpFR	7	n/a	n/a	n/a	n/a	n/a	n/a	n/a	17	7	2	8	n/a	n/a	n/a	n/a	n/a
504.854	n/a	STOP	252427	n/a	LTP074	ltpFR	7	n/a	n/a	n/a	n/a	n/a	n/a	n/a	n/a	n/a	n/a	n/a	n/a	n/a	n/a	n/a	n/a
506.038	n/a	WORD	253019	wordpools/wasnorm_wordpool.txt	LTP074	ltpFR	7	1	1	COLESLAW	344	n/a	n/a	0	n/a	0	0	0	0.57763671875	0.412841796875	1	upper	amplitud.ttf
509.038	n/a	START	254519	n/a	LTP074	ltpFR	7	n/a	n/a	n/a	n/a	n/a	n/a	n/a	n/a	n/a	n/a	n/a	n/a	n/a	n/a	n/a	n/a
509.864	n/a	PROB	254932	n/a	LTP074	ltpFR	7	n/a	n/a	n/a	n/a	n/a	n/a	n/a	21	3	9	9	n/a	n/a	n/a	n/a	n/a
511.32	n/a	PROB	255660	n/a	LTP074	ltpFR	7	n/a	n/a	n/a	n/a	n/a	n/a	n/a	8	3	2	3	n/a	n/a	n/a	n/a	n/a
512.822	n/a	PROB	256411	n/a	LTP074	ltpFR	7	n/a	n/a	n/a	n/a	n/a	n/a	n/a	9	2	4	3	n/a	n/a	n/a	n/a	n/a
514.578	n/a	PROB	257289	n/a	LTP074	ltpFR	7	n/a	n/a	n/a	n/a	n/a	n/a	n/a	13	5	1	7	n/a	n/a	n/a	n/a	n/a
516.67	n/a	STOP	258335	n/a	LTP074	ltpFR	7	n/a	n/a	n/a	n/a	n/a	n/a	n/a	n/a	n/a	n/a	n/a	n/a	n/a	n/a	n/a	n/a
517.972	n/a	WORD	258986	wordpools/wasnorm_wordpool.txt	LTP074	ltpFR	7	1	1	BAND	78	n/a	n/a	0	n/a	0	0	0	0.57763671875	0.412841796875	1	upper	amplitud.ttf
520.98	n/a	START	260490	n/a	LTP074	ltpFR	7	n/a	n/a	n/a	n/a	n/a	n/a	n/a	n/a	n/a	n/a	n/a	n/a	n/a	n/a	n/a	n/a
522.112	n/a	PROB	261056	n/a	LTP074	ltpFR	7	n/a	n/a	n/a	n/a	n/a	n/a	n/a	18	9	6	3	n/a	n/a	n/a	n/a	n/a
523.788	n/a	PROB	261894	n/a	LTP074	ltpFR	7	n/a	n/a	n/a	n/a	n/a	n/a	n/a	16	9	4	3	n/a	n/a	n/a	n/a	n/a
525.72	n/a	PROB	262860	n/a	LTP074	ltpFR	7	n/a	n/a	n/a	n/a	n/a	n/a	n/a	13	8	4	1	n/a	n/a	n/a	n/a	n/a
528.98	n/a	STOP	264490	n/a	LTP074	ltpFR	7	n/a	n/a	n/a	n/a	n/a	n/a	n/a	n/a	n/a	n/a	n/a	n/a	n/a	n/a	n/a	n/a
529.964	n/a	WORD	264982	wordpools/wasnorm_wordpool.txt	LTP074	ltpFR	7	1	1	TAG	1429	n/a	n/a	0	n/a	0	0	0	0.57763671875	0.412841796875	1	upper	amplitud.ttf
532.97	n/a	START	266485	n/a	LTP074	ltpFR	7	n/a	n/a	n/a	n/a	n/a	n/a	n/a	n/a	n/a	n/a	n/a	n/a	n/a	n/a	n/a	n/a
533.888	n/a	PROB	266944	n/a	LTP074	ltpFR	7	n/a	n/a	n/a	n/a	n/a	n/a	n/a	15	1	5	9	n/a	n/a	n/a	n/a	n/a
540.97	n/a	STOP	270485	n/a	LTP074	ltpFR	7	n/a	n/a	n/a	n/a	n/a	n/a	n/a	n/a	n/a	n/a	n/a	n/a	n/a	n/a	n/a	n/a
541.904	n/a	WORD	270952	wordpools/wasnorm_wordpool.txt	LTP074	ltpFR	7	1	1	CAVITY	264	n/a	n/a	0	n/a	0	0	0	0.57763671875	0.412841796875	1	upper	amplitud.ttf
544.906	n/a	START	272453	n/a	LTP074	ltpFR	7	n/a	n/a	n/a	n/a	n/a	n/a	n/a	n/a	n/a	n/a	n/a	n/a	n/a	n/a	n/a	n/a
545.972	n/a	PROB	272986	n/a	LTP074	ltpFR	7	n/a	n/a	n/a	n/a	n/a	n/a	n/a	8	1	5	2	n/a	n/a	n/a	n/a	n/a
547.396	n/a	PROB	273698	n/a	LTP074	ltpFR	7	n/a	n/a	n/a	n/a	n/a	n/a	n/a	15	6	6	3	n/a	n/a	n/a	n/a	n/a
548.822	n/a	PROB	274411	n/a	LTP074	ltpFR	7	n/a	n/a	n/a	n/a	n/a	n/a	n/a	17	2	7	8	n/a	n/a	n/a	n/a	n/a
550.294	n/a	PROB	275147	n/a	LTP074	ltpFR	7	n/a	n/a	n/a	n/a	n/a	n/a	n/a	16	5	5	6	n/a	n/a	n/a	n/a	n/a
551.462	n/a	STOP	275731	n/a	LTP074	ltpFR	7	n/a	n/a	n/a	n/a	n/a	n/a	n/a	n/a	n/a	n/a	n/a	n/a	n/a	n/a	n/a	n/a
554.02	n/a	WORD	277010	wordpools/wasnorm_wordpool.txt	LTP074	ltpFR	7	1	1	OFFICER	973	n/a	n/a	1	n/a	0	0	0	0.57763671875	0.412841796875	1	upper	amplitud.ttf
557.028	n/a	START	278514	n/a	LTP074	ltpFR	7	n/a	n/a	n/a	n/a	n/a	n/a	n/a	n/a	n/a	n/a	n/a	n/a	n/a	n/a	n/a	n/a
558.004	n/a	PROB	279002	n/a	LTP074	ltpFR	7	n/a	n/a	n/a	n/a	n/a	n/a	n/a	11	6	4	1	n/a	n/a	n/a	n/a	n/a
559.096	n/a	PROB	279548	n/a	LTP074	ltpFR	7	n/a	n/a	n/a	n/a	n/a	n/a	n/a	13	6	5	2	n/a	n/a	n/a	n/a	n/a
560.896	n/a	PROB	280448	n/a	LTP074	ltpFR	7	n/a	n/a	n/a	n/a	n/a	n/a	n/a	15	7	7	1	n/a	n/a	n/a	n/a	n/a
562.212	n/a	PROB	281106	n/a	LTP074	ltpFR	7	n/a	n/a	n/a	n/a	n/a	n/a	n/a	21	8	7	5	n/a	n/a	n/a	n/a	n/a
564.416	n/a	STOP	282208	n/a	LTP074	ltpFR	7	n/a	n/a	n/a	n/a	n/a	n/a	n/a	n/a	n/a	n/a	n/a	n/a	n/a	n/a	n/a	n/a
565.888	n/a	WORD	282944	wordpools/wasnorm_wordpool.txt	LTP074	ltpFR	7	1	1	NOVEL	960	n/a	n/a	0	n/a	0	0	0	0.57763671875	0.412841796875	1	upper	amplitud.ttf
568.896	n/a	START	284448	n/a	LTP074	ltpFR	7	n/a	n/a	n/a	n/a	n/a	n/a	n/a	n/a	n/a	n/a	n/a	n/a	n/a	n/a	n/a	n/a
569.888	n/a	PROB	284944	n/a	LTP074	ltpFR	7	n/a	n/a	n/a	n/a	n/a	n/a	n/a	10	2	4	4	n/a	n/a	n/a	n/a	n/a
571.67	n/a	PROB	285835	n/a	LTP074	ltpFR	7	n/a	n/a	n/a	n/a	n/a	n/a	n/a	16	7	5	4	n/a	n/a	n/a	n/a	n/a
573.702	n/a	PROB	286851	n/a	LTP074	ltpFR	7	n/a	n/a	n/a	n/a	n/a	n/a	n/a	15	2	6	7	n/a	n/a	n/a	n/a	n/a
575.968	n/a	STOP	287984	n/a	LTP074	ltpFR	7	n/a	n/a	n/a	n/a	n/a	n/a	n/a	n/a	n/a	n/a	n/a	n/a	n/a	n/a	n/a	n/a
577.768	n/a	WORD	288884	wordpools/wasnorm_wordpool.txt	LTP074	ltpFR	7	1	1	SHELF	1280	n/a	n/a	0	n/a	0	0	0	0.57763671875	0.412841796875	1	upper	amplitud.ttf
580.77	n/a	START	290385	n/a	LTP074	ltpFR	7	n/a	n/a	n/a	n/a	n/a	n/a	n/a	n/a	n/a	n/a	n/a	n/a	n/a	n/a	n/a	n/a
581.712	n/a	PROB	290856	n/a	LTP074	ltpFR	7	n/a	n/a	n/a	n/a	n/a	n/a	n/a	11	3	6	2	n/a	n/a	n/a	n/a	n/a
583.178	n/a	PROB	291589	n/a	LTP074	ltpFR	7	n/a	n/a	n/a	n/a	n/a	n/a	n/a	22	8	6	8	n/a	n/a	n/a	n/a	n/a
586.136	n/a	PROB	293068	n/a	LTP074	ltpFR	7	n/a	n/a	n/a	n/a	n/a	n/a	n/a	22	9	7	6	n/a	n/a	n/a	n/a	n/a
587.776	n/a	STOP	293888	n/a	LTP074	ltpFR	7	n/a	n/a	n/a	n/a	n/a	n/a	n/a	n/a	n/a	n/a	n/a	n/a	n/a	n/a	n/a	n/a
590.662	n/a	REC_START	295331	n/a	LTP074	ltpFR	7	1	n/a	n/a	n/a	n/a	n/a	n/a	n/a	0	0	0	n/a	n/a	n/a	n/a	n/a
592.656	n/a	REC_WORD	296328	wordpools/wasnorm_wordpool.txt	LTP074	ltpFR	7	1	1	AIRCRAFT	11	n/a	n/a	0	n/a	0	0	0	n/a	n/a	n/a	n/a	n/a
593.464	n/a	REC_WORD	296732	wordpools/wasnorm_wordpool.txt	LTP074	ltpFR	7	1	1	CROCODILE	411	n/a	n/a	1	n/a	0	0	0	n/a	n/a	n/a	n/a	n/a
594.738	n/a	REC_WORD	297369	wordpools/wasnorm_wordpool.txt	LTP074	ltpFR	7	1	1	BUFFALO	186	n/a	n/a	1	n/a	0	0	0	n/a	n/a	n/a	n/a	n/a
596.768	n/a	REC_WORD	298384	wordpools/wasnorm_wordpool.txt	LTP074	ltpFR	7	1	1	COLESLAW	344	n/a	n/a	0	n/a	0	0	0	n/a	n/a	n/a	n/a	n/a
597.64	n/a	REC_WORD	298820	wordpools/wasnorm_wordpool.txt	LTP074	ltpFR	7	1	1	CUPBOARD	425	n/a	n/a	0	n/a	0	0	0	n/a	n/a	n/a	n/a	n/a
598.782	n/a	REC_WORD	299391	wordpools/wasnorm_wordpool.txt	LTP074	ltpFR	7	1	1	BAND	78	n/a	n/a	0	n/a	0	0	0	n/a	n/a	n/a	n/a	n/a
600.416	n/a	REC_WORD	300208	wordpools/wasnorm_wordpool.txt	LTP074	ltpFR	7	1	1	OFFICER	973	n/a	n/a	1	n/a	0	0	0	n/a	n/a	n/a	n/a	n/a
602.316	n/a	REC_WORD	301158	wordpools/wasnorm_wordpool.txt	LTP074	ltpFR	7	1	1	PIANO	1057	n/a	n/a	0	n/a	0	0	0	n/a	n/a	n/a	n/a	n/a
603.04	n/a	REC_WORD	301520	wordpools/wasnorm_wordpool.txt	LTP074	ltpFR	7	1	1	CHECKERS	285	n/a	n/a	0	n/a	0	0	0	n/a	n/a	n/a	n/a	n/a
603.842	n/a	REC_WORD	301921	wordpools/wasnorm_wordpool.txt	LTP074	ltpFR	7	1	1	AGENT	10	n/a	n/a	1	n/a	0	0	0	n/a	n/a	n/a	n/a	n/a
605.454	n/a	REC_WORD	302727	wordpools/wasnorm_wordpool.txt	LTP074	ltpFR	7	1	1	SHELF	1280	n/a	n/a	0	n/a	0	0	0	n/a	n/a	n/a	n/a	n/a
707.408	n/a	WORD	353704	wordpools/wasnorm_wordpool.txt	LTP074	ltpFR	7	2	0	SUN	1406	n/a	n/a	1	n/a	0	0	0	0.422607421875	0.5869140625	0	lower	zerothre.ttf
711.466	n/a	WORD	355733	wordpools/wasnorm_wordpool.txt	LTP074	ltpFR	7	2	0	BATHTUB	100	n/a	n/a	1	n/a	0	0	0	0.422607421875	0.5869140625	0	lower	zerothre.ttf
715.508	n/a	WORD	357754	wordpools/wasnorm_wordpool.txt	LTP074	ltpFR	7	2	0	LOG	841	n/a	n/a	1	n/a	0	0	0	0.422607421875	0.5869140625	0	lower	zerothre.ttf
719.482	n/a	WORD	359741	wordpools/wasnorm_wordpool.txt	LTP074	ltpFR	7	2	0	BONE	148	n/a	n/a	0	n/a	0	0	0	0.422607421875	0.5869140625	0	lower	zerothre.ttf
723.408	n/a	WORD	361704	wordpools/wasnorm_wordpool.txt	LTP074	ltpFR	7	2	0	RIB	1188	n/a	n/a	0	n/a	0	0	0	0.422607421875	0.5869140625	0	lower	zerothre.ttf
727.482	n/a	WORD	363741	wordpools/wasnorm_wordpool.txt	LTP074	ltpFR	7	2	0	MOTOR	922	n/a	n/a	1	n/a	0	0	0	0.422607421875	0.5869140625	0	lower	zerothre.ttf
731.458	n/a	WORD	365729	wordpools/wasnorm_wordpool.txt	LTP074	ltpFR	7	2	0	CART	250	n/a	n/a	1	n/a	0	0	0	0.422607421875	0.5869140625	0	lower	zerothre.ttf
735.566	n/a	WORD	367783	wordpools/wasnorm_wordpool.txt	LTP074	ltpFR	7	2	0	ALLEY	15	n/a	n/a	1	n/a	0	0	0	0.422607421875	0.5869140625	0	lower	zerothre.ttf
739.756	n/a	WORD	369878	wordpools/wasnorm_wordpool.txt	LTP074	ltpFR	7	2	0	PORCH	1106	n/a	n/a	1	n/a	0	0	0	0.422607421875	0.5869140625	0	lower	zerothre.ttf
743.566	n/a	WORD	371783	wordpools/wasnorm_wordpool.txt	LTP074	ltpFR	7	2	0	BRANDY	169	n/a	n/a	0	n/a	0	0	0	0.422607421875	0.5869140625	0	lower	zerothre.ttf
747.632	n/a	WORD	373816	wordpools/wasnorm_wordpool.txt	LTP074	ltpFR	7	2	0	PAVEMENT	1028	n/a	n/a	1	n/a	0	0	0	0.422607421875	0.5869140625	0	lower	zerothre.ttf
751.758	n/a	WORD	375879	wordpools/wasnorm_wordpool.txt	LTP074	ltpFR	7	2	0	TERMITE	1451	n/a	n/a	0	n/a	0	0	0	0.422607421875	0.5869140625	0	lower	zerothre.ttf
755.656	n/a	WORD	377828	wordpools/wasnorm_wordpool.txt	LTP074	ltpFR	7	2	0	FOREST	593	n/a	n/a	1	n/a	0	0	0	0.422607421875	0.5869140625	0	lower	zerothre.ttf
759.664	n/a	WORD	379832	wordpools/wasnorm_wordpool.txt	LTP074	ltpFR	7	2	0	SAP	1233	n/a	n/a	0	n/a	0	0	0	0.422607421875	0.5869140625	0	lower	zerothre.ttf
763.632	n/a	WORD	381816	wordpools/wasnorm_wordpool.txt	LTP074	ltpFR	7	2	0	FLASK	576	n/a	n/a	0	n/a	0	0	0	0.422607421875	0.5869140625	0	lower	zerothre.ttf
767.73	n/a	WORD	383865	wordpools/wasnorm_wordpool.txt	LTP074	ltpFR	7	2	0	COD	340	n/a	n/a	0	n/a	0	0	0	0.422607421875	0.5869140625	0	lower	zerothre.ttf
770.732	n/a	START	385366	n/a	LTP074	ltpFR	7	n/a	n/a	n/a	n/a	n/a	n/a	n/a	n/a	n/a	n/a	n/a	n/a	n/a	n/a	n/a	n/a
771.548	n/a	PROB	385774	n/a	LTP074	ltpFR	7	n/a	n/a	n/a	n/a	n/a	n/a	n/a	13	2	7	4	n/a	n/a	n/a	n/a	n/a
774.006	n/a	PROB	387003	n/a	LTP074	ltpFR	7	n/a	n/a	n/a	n/a	n/a	n/a	n/a	18	6	8	4	n/a	n/a	n/a	n/a	n/a
776.422	n/a	PROB	388211	n/a	LTP074	ltpFR	7	n/a	n/a	n/a	n/a	n/a	n/a	n/a	15	3	6	6	n/a	n/a	n/a	n/a	n/a
777.722	n/a	STOP	388861	n/a	LTP074	ltpFR	7	n/a	n/a	n/a	n/a	n/a	n/a	n/a	n/a	n/a	n/a	n/a	n/a	n/a	n/a	n/a	n/a
780.482	n/a	REC_START	390241	n/a	LTP074	ltpFR	7	2	n/a	n/a	n/a	n/a	n/a	n/a	n/a	0	0	0	n/a	n/a	n/a	n/a	n/a
781.794	n/a	REC_WORD	390897	wordpools/wasnorm_wordpool.txt	LTP074	ltpFR	7	2	0	SUN	1406	n/a	n/a	1	n/a	0	0	0	n/a	n/a	n/a	n/a	n/a
782.532	n/a	REC_WORD	391266	wordpools/wasnorm_wordpool.txt	LTP074	ltpFR	7	2	0	LOG	841	n/a	n/a	1	n/a	0	0	0	n/a	n/a	n/a	n/a	n/a
783.694	n/a	REC_WORD	391847	wordpools/wasnorm_wordpool.txt	LTP074	ltpFR	7	2	0	BATHTUB	100	n/a	n/a	1	n/a	0	0	0	n/a	n/a	n/a	n/a	n/a
786.288	n/a	REC_WORD	393144	wordpools/wasnorm_wordpool.txt	LTP074	ltpFR	7	2	0	RIB	1188	n/a	n/a	0	n/a	0	0	0	n/a	n/a	n/a	n/a	n/a
787.086	n/a	REC_WORD	393543	wordpools/wasnorm_wordpool.txt	LTP074	ltpFR	7	2	0	PORCH	1106	n/a	n/a	1	n/a	0	0	0	n/a	n/a	n/a	n/a	n/a
788.05	n/a	REC_WORD	394025	wordpools/wasnorm_wordpool.txt	LTP074	ltpFR	7	2	0	BONE	148	n/a	n/a	0	n/a	0	0	0	n/a	n/a	n/a	n/a	n/a
791.348	n/a	REC_WORD	395674	wordpools/wasnorm_wordpool.txt	LTP074	ltpFR	7	2	0	TERMITE	1451	n/a	n/a	0	n/a	0	0	0	n/a	n/a	n/a	n/a	n/a
792.55	n/a	REC_WORD	396275	wordpools/wasnorm_wordpool.txt	LTP074	ltpFR	7	2	0	BRANDY	169	n/a	n/a	0	n/a	0	0	0	n/a	n/a	n/a	n/a	n/a
793.692	n/a	REC_WORD	396846	wordpools/wasnorm_wordpool.txt	LTP074	ltpFR	7	2	0	PAVEMENT	1028	n/a	n/a	1	n/a	0	0	0	n/a	n/a	n/a	n/a	n/a
795.318	n/a	REC_WORD	397659	wordpools/wasnorm_wordpool.txt	LTP074	ltpFR	7	2	0	FOREST	593	n/a	n/a	1	n/a	0	0	0	n/a	n/a	n/a	n/a	n/a
796.296	n/a	REC_WORD	398148	wordpools/wasnorm_wordpool.txt	LTP074	ltpFR	7	2	0	SAP	1233	n/a	n/a	0	n/a	0	0	0	n/a	n/a	n/a	n/a	n/a
797.298	n/a	REC_WORD	398649	wordpools/wasnorm_wordpool.txt	LTP074	ltpFR	7	2	0	FLASK	576	n/a	n/a	0	n/a	0	0	0	n/a	n/a	n/a	n/a	n/a
802.812	n/a	REC_WORD	401406	wordpools/wasnorm_wordpool.txt	LTP074	ltpFR	7	2	0	COD	340	n/a	n/a	0	n/a	0	0	0	n/a	n/a	n/a	n/a	n/a
812.57	n/a	REC_WORD	406285	wordpools/wasnorm_wordpool.txt	LTP074	ltpFR	7	2	0	MOTOR	922	n/a	n/a	1	n/a	0	0	0	n/a	n/a	n/a	n/a	n/a
813.352	n/a	REC_WORD	406676	wordpools/wasnorm_wordpool.txt	LTP074	ltpFR	7	2	0	CART	250	n/a	n/a	1	n/a	0	0	0	n/a	n/a	n/a	n/a	n/a
813.882	n/a	REC_WORD	406941	wordpools/wasnorm_wordpool.txt	LTP074	ltpFR	7	2	0	ALLEY	15	n/a	n/a	1	n/a	0	0	0	n/a	n/a	n/a	n/a	n/a
865.762	n/a	START	432881	n/a	LTP074	ltpFR	7	n/a	n/a	n/a	n/a	n/a	n/a	n/a	n/a	n/a	n/a	n/a	n/a	n/a	n/a	n/a	n/a
867.27	n/a	PROB	433635	n/a	LTP074	ltpFR	7	n/a	n/a	n/a	n/a	n/a	n/a	n/a	18	7	6	5	n/a	n/a	n/a	n/a	n/a
869.528	n/a	PROB	434764	n/a	LTP074	ltpFR	7	n/a	n/a	n/a	n/a	n/a	n/a	n/a	8	3	3	2	n/a	n/a	n/a	n/a	n/a
870.696	n/a	PROB	435348	n/a	LTP074	ltpFR	7	n/a	n/a	n/a	n/a	n/a	n/a	n/a	17	2	6	9	n/a	n/a	n/a	n/a	n/a
872.838	n/a	STOP	436419	n/a	LTP074	ltpFR	7	n/a	n/a	n/a	n/a	n/a	n/a	n/a	n/a	n/a	n/a	n/a	n/a	n/a	n/a	n/a	n/a
874.594	n/a	WORD	437297	wordpools/wasnorm_wordpool.txt	LTP074	ltpFR	7	3	1	SENATOR	1268	n/a	n/a	1	n/a	0	0	0	0.57763671875	0.412841796875	1	upper	amplitud.ttf
877.604	n/a	START	438802	n/a	LTP074	ltpFR	7	n/a	n/a	n/a	n/a	n/a	n/a	n/a	n/a	n/a	n/a	n/a	n/a	n/a	n/a	n/a	n/a
878.478	n/a	PROB	439239	n/a	LTP074	ltpFR	7	n/a	n/a	n/a	n/a	n/a	n/a	n/a	6	1	1	4	n/a	n/a	n/a	n/a	n/a
879.612	n/a	PROB	439806	n/a	LTP074	ltpFR	7	n/a	n/a	n/a	n/a	n/a	n/a	n/a	18	6	8	4	n/a	n/a	n/a	n/a	n/a
881.154	n/a	PROB	440577	n/a	LTP074	ltpFR	7	n/a	n/a	n/a	n/a	n/a	n/a	n/a	14	3	5	6	n/a	n/a	n/a	n/a	n/a
885.604	n/a	STOP	442802	n/a	LTP074	ltpFR	7	n/a	n/a	n/a	n/a	n/a	n/a	n/a	n/a	n/a	n/a	n/a	n/a	n/a	n/a	n/a	n/a
886.486	n/a	WORD	443243	wordpools/wasnorm_wordpool.txt	LTP074	ltpFR	7	3	1	PRINTER	1126	n/a	n/a	0	n/a	0	0	0	0.57763671875	0.412841796875	1	upper	amplitud.ttf
889.496	n/a	START	444748	n/a	LTP074	ltpFR	7	n/a	n/a	n/a	n/a	n/a	n/a	n/a	n/a	n/a	n/a	n/a	n/a	n/a	n/a	n/a	n/a
890.412	n/a	PROB	445206	n/a	LTP074	ltpFR	7	n/a	n/a	n/a	n/a	n/a	n/a	n/a	10	5	1	4	n/a	n/a	n/a	n/a	n/a
893.778	n/a	PROB	446889	n/a	LTP074	ltpFR	7	n/a	n/a	n/a	n/a	n/a	n/a	n/a	16	9	3	4	n/a	n/a	n/a	n/a	n/a
895.794	n/a	PROB	447897	n/a	LTP074	ltpFR	7	n/a	n/a	n/a	n/a	n/a	n/a	n/a	13	1	6	6	n/a	n/a	n/a	n/a	n/a
896.944	n/a	STOP	448472	n/a	LTP074	ltpFR	7	n/a	n/a	n/a	n/a	n/a	n/a	n/a	n/a	n/a	n/a	n/a	n/a	n/a	n/a	n/a	n/a
898.646	n/a	WORD	449323	wordpools/wasnorm_wordpool.txt	LTP074	ltpFR	7	3	1	MUFFIN	929	n/a	n/a	0	n/a	0	0	0	0.57763671875	0.412841796875	1	upper	amplitud.ttf
901.654	n/a	START	450827	n/a	LTP074	ltpFR	7	n/a	n/a	n/a	n/a	n/a	n/a	n/a	n/a	n/a	n/a	n/a	n/a	n/a	n/a	n/a	n/a
902.578	n/a	PROB	451289	n/a	LTP074	ltpFR	7	n/a	n/a	n/a	n/a	n/a	n/a	n/a	20	5	8	7	n/a	n/a	n/a	n/a	n/a
906.594	n/a	PROB	453297	n/a	LTP074	ltpFR	7	n/a	n/a	n/a	n/a	n/a	n/a	n/a	15	2	9	4	n/a	n/a	n/a	n/a	n/a
908.408	n/a	STOP	454204	n/a	LTP074	ltpFR	7	n/a	n/a	n/a	n/a	n/a	n/a	n/a	n/a	n/a	n/a	n/a	n/a	n/a	n/a	n/a	n/a
910.61	n/a	WORD	455305	wordpools/wasnorm_wordpool.txt	LTP074	ltpFR	7	3	1	BUILDER	190	n/a	n/a	1	n/a	0	0	0	0.57763671875	0.412841796875	1	upper	amplitud.ttf
913.62	n/a	START	456810	n/a	LTP074	ltpFR	7	n/a	n/a	n/a	n/a	n/a	n/a	n/a	n/a	n/a	n/a	n/a	n/a	n/a	n/a	n/a	n/a
914.694	n/a	PROB	457347	n/a	LTP074	ltpFR	7	n/a	n/a	n/a	n/a	n/a	n/a	n/a	21	7	7	7	n/a	n/a	n/a	n/a	n/a
916.036	n/a	PROB	458018	n/a	LTP074	ltpFR	7	n/a	n/a	n/a	n/a	n/a	n/a	n/a	14	8	4	2	n/a	n/a	n/a	n/a	n/a
918.22	n/a	PROB	459110	n/a	LTP074	ltpFR	7	n/a	n/a	n/a	n/a	n/a	n/a	n/a	20	5	9	6	n/a	n/a	n/a	n/a	n/a
920.168	n/a	STOP	460084	n/a	LTP074	ltpFR	7	n/a	n/a	n/a	n/a	n/a	n/a	n/a	n/a	n/a	n/a	n/a	n/a	n/a	n/a	n/a	n/a
922.628	n/a	WORD	461314	wordpools/wasnorm_wordpool.txt	LTP074	ltpFR	7	3	1	WINDSHIELD	1612	n/a	n/a	0	n/a	0	0	0	0.57763671875	0.412841796875	1	upper	amplitud.ttf
925.636	n/a	START	462818	n/a	LTP074	ltpFR	7	n/a	n/a	n/a	n/a	n/a	n/a	n/a	n/a	n/a	n/a	n/a	n/a	n/a	n/a	n/a	n/a
926.47	n/a	PROB	463235	n/a	LTP074	ltpFR	7	n/a	n/a	n/a	n/a	n/a	n/a	n/a	6	1	3	2	n/a	n/a	n/a	n/a	n/a
927.652	n/a	PROB	463826	n/a	LTP074	ltpFR	7	n/a	n/a	n/a	n/a	n/a	n/a	n/a	18	1	8	9	n/a	n/a	n/a	n/a	n/a
929.052	n/a	PROB	464526	n/a	LTP074	ltpFR	7	n/a	n/a	n/a	n/a	n/a	n/a	n/a	20	3	9	8	n/a	n/a	n/a	n/a	n/a
930.778	n/a	PROB	465389	n/a	LTP074	ltpFR	7	n/a	n/a	n/a	n/a	n/a	n/a	n/a	16	4	3	9	n/a	n/a	n/a	n/a	n/a
932.352	n/a	STOP	466176	n/a	LTP074	ltpFR	7	n/a	n/a	n/a	n/a	n/a	n/a	n/a	n/a	n/a	n/a	n/a	n/a	n/a	n/a	n/a	n/a
934.776	n/a	WORD	467388	wordpools/wasnorm_wordpool.txt	LTP074	ltpFR	7	3	1	FARMER	553	n/a	n/a	1	n/a	0	0	0	0.57763671875	0.412841796875	1	upper	amplitud.ttf
937.778	n/a	START	468889	n/a	LTP074	ltpFR	7	n/a	n/a	n/a	n/a	n/a	n/a	n/a	n/a	n/a	n/a	n/a	n/a	n/a	n/a	n/a	n/a
938.946	n/a	PROB	469473	n/a	LTP074	ltpFR	7	n/a	n/a	n/a	n/a	n/a	n/a	n/a	18	2	8	8	n/a	n/a	n/a	n/a	n/a
940.71	n/a	PROB	470355	n/a	LTP074	ltpFR	7	n/a	n/a	n/a	n/a	n/a	n/a	n/a	15	8	6	1	n/a	n/a	n/a	n/a	n/a
942.928	n/a	PROB	471464	n/a	LTP074	ltpFR	7	n/a	n/a	n/a	n/a	n/a	n/a	n/a	22	9	6	7	n/a	n/a	n/a	n/a	n/a
945.122	n/a	STOP	472561	n/a	LTP074	ltpFR	7	n/a	n/a	n/a	n/a	n/a	n/a	n/a	n/a	n/a	n/a	n/a	n/a	n/a	n/a	n/a	n/a
946.602	n/a	WORD	473301	wordpools/wasnorm_wordpool.txt	LTP074	ltpFR	7	3	1	HAYSTACK	694	n/a	n/a	0	n/a	0	0	0	0.57763671875	0.412841796875	1	upper	amplitud.ttf
949.602	n/a	START	474801	n/a	LTP074	ltpFR	7	n/a	n/a	n/a	n/a	n/a	n/a	n/a	n/a	n/a	n/a	n/a	n/a	n/a	n/a	n/a	n/a
950.676	n/a	PROB	475338	n/a	LTP074	ltpFR	7	n/a	n/a	n/a	n/a	n/a	n/a	n/a	10	3	1	6	n/a	n/a	n/a	n/a	n/a
952.234	n/a	PROB	476117	n/a	LTP074	ltpFR	7	n/a	n/a	n/a	n/a	n/a	n/a	n/a	12	2	4	6	n/a	n/a	n/a	n/a	n/a
953.568	n/a	PROB	476784	n/a	LTP074	ltpFR	7	n/a	n/a	n/a	n/a	n/a	n/a	n/a	13	5	4	4	n/a	n/a	n/a	n/a	n/a
956.218	n/a	STOP	478109	n/a	LTP074	ltpFR	7	n/a	n/a	n/a	n/a	n/a	n/a	n/a	n/a	n/a	n/a	n/a	n/a	n/a	n/a	n/a	n/a
958.542	n/a	WORD	479271	wordpools/wasnorm_wordpool.txt	LTP074	ltpFR	7	3	1	PEN	1041	n/a	n/a	0	n/a	0	0	0	0.57763671875	0.412841796875	1	upper	amplitud.ttf
961.552	n/a	START	480776	n/a	LTP074	ltpFR	7	n/a	n/a	n/a	n/a	n/a	n/a	n/a	n/a	n/a	n/a	n/a	n/a	n/a	n/a	n/a	n/a
962.526	n/a	PROB	481263	n/a	LTP074	ltpFR	7	n/a	n/a	n/a	n/a	n/a	n/a	n/a	6	1	2	3	n/a	n/a	n/a	n/a	n/a
963.594	n/a	PROB	481797	n/a	LTP074	ltpFR	7	n/a	n/a	n/a	n/a	n/a	n/a	n/a	14	1	7	6	n/a	n/a	n/a	n/a	n/a
965.11	n/a	PROB	482555	n/a	LTP074	ltpFR	7	n/a	n/a	n/a	n/a	n/a	n/a	n/a	7	4	1	2	n/a	n/a	n/a	n/a	n/a
966.776	n/a	PROB	483388	n/a	LTP074	ltpFR	7	n/a	n/a	n/a	n/a	n/a	n/a	n/a	12	6	3	3	n/a	n/a	n/a	n/a	n/a
968.05	n/a	STOP	484025	n/a	LTP074	ltpFR	7	n/a	n/a	n/a	n/a	n/a	n/a	n/a	n/a	n/a	n/a	n/a	n/a	n/a	n/a	n/a	n/a
970.742	n/a	WORD	485371	wordpools/wasnorm_wordpool.txt	LTP074	ltpFR	7	3	1	FOX	598	n/a	n/a	1	n/a	0	0	0	0.57763671875	0.412841796875	1	upper	amplitud.ttf
973.744	n/a	START	486872	n/a	LTP074	ltpFR	7	n/a	n/a	n/a	n/a	n/a	n/a	n/a	n/a	n/a	n/a	n/a	n/a	n/a	n/a	n/a	n/a
974.86	n/a	PROB	487430	n/a	LTP074	ltpFR	7	n/a	n/a	n/a	n/a	n/a	n/a	n/a	8	3	3	2	n/a	n/a	n/a	n/a	n/a
976.084	n/a	PROB	488042	n/a	LTP074	ltpFR	7	n/a	n/a	n/a	n/a	n/a	n/a	n/a	14	7	3	4	n/a	n/a	n/a	n/a	n/a
977.492	n/a	PROB	488746	n/a	LTP074	ltpFR	7	n/a	n/a	n/a	n/a	n/a	n/a	n/a	20	9	6	5	n/a	n/a	n/a	n/a	n/a
981.044	n/a	STOP	490522	n/a	LTP074	ltpFR	7	n/a	n/a	n/a	n/a	n/a	n/a	n/a	n/a	n/a	n/a	n/a	n/a	n/a	n/a	n/a	n/a
982.818	n/a	WORD	491409	wordpools/wasnorm_wordpool.txt	LTP074	ltpFR	7	3	1	LEAF	808	n/a	n/a	0	n/a	0	0	0	0.57763671875	0.412841796875	1	upper	amplitud.ttf
985.826	n/a	START	492913	n/a	LTP074	ltpFR	7	n/a	n/a	n/a	n/a	n/a	n/a	n/a	n/a	n/a	n/a	n/a	n/a	n/a	n/a	n/a	n/a
986.944	n/a	PROB	493472	n/a	LTP074	ltpFR	7	n/a	n/a	n/a	n/a	n/a	n/a	n/a	11	7	2	2	n/a	n/a	n/a	n/a	n/a
988.51	n/a	PROB	494255	n/a	LTP074	ltpFR	7	n/a	n/a	n/a	n/a	n/a	n/a	n/a	23	9	5	9	n/a	n/a	n/a	n/a	n/a
990.26	n/a	PROB	495130	n/a	LTP074	ltpFR	7	n/a	n/a	n/a	n/a	n/a	n/a	n/a	18	4	9	5	n/a	n/a	n/a	n/a	n/a
992.084	n/a	PROB	496042	n/a	LTP074	ltpFR	7	n/a	n/a	n/a	n/a	n/a	n/a	n/a	11	9	1	1	n/a	n/a	n/a	n/a	n/a
993.092	n/a	STOP	496546	n/a	LTP074	ltpFR	7	n/a	n/a	n/a	n/a	n/a	n/a	n/a	n/a	n/a	n/a	n/a	n/a	n/a	n/a	n/a	n/a
994.968	n/a	WORD	497484	wordpools/wasnorm_wordpool.txt	LTP074	ltpFR	7	3	1	SHRUB	1299	n/a	n/a	1	n/a	0	0	0	0.57763671875	0.412841796875	1	upper	amplitud.ttf
997.976	n/a	START	498988	n/a	LTP074	ltpFR	7	n/a	n/a	n/a	n/a	n/a	n/a	n/a	n/a	n/a	n/a	n/a	n/a	n/a	n/a	n/a	n/a
999.116	n/a	PROB	499558	n/a	LTP074	ltpFR	7	n/a	n/a	n/a	n/a	n/a	n/a	n/a	20	6	5	9	n/a	n/a	n/a	n/a	n/a
1000.984	n/a	PROB	500492	n/a	LTP074	ltpFR	7	n/a	n/a	n/a	n/a	n/a	n/a	n/a	24	9	7	8	n/a	n/a	n/a	n/a	n/a
1003.768	n/a	PROB	501884	n/a	LTP074	ltpFR	7	n/a	n/a	n/a	n/a	n/a	n/a	n/a	9	2	5	2	n/a	n/a	n/a	n/a	n/a
1004.918	n/a	STOP	502459	n/a	LTP074	ltpFR	7	n/a	n/a	n/a	n/a	n/a	n/a	n/a	n/a	n/a	n/a	n/a	n/a	n/a	n/a	n/a	n/a
1007.018	n/a	WORD	503509	wordpools/wasnorm_wordpool.txt	LTP074	ltpFR	7	3	1	MEAT	883	n/a	n/a	0	n/a	0	0	0	0.57763671875	0.412841796875	1	upper	amplitud.ttf
1010.026	n/a	START	505013	n/a	LTP074	ltpFR	7	n/a	n/a	n/a	n/a	n/a	n/a	n/a	n/a	n/a	n/a	n/a	n/a	n/a	n/a	n/a	n/a
1011.076	n/a	PROB	505538	n/a	LTP074	ltpFR	7	n/a	n/a	n/a	n/a	n/a	n/a	n/a	13	3	3	7	n/a	n/a	n/a	n/a	n/a
1012.576	n/a	PROB	506288	n/a	LTP074	ltpFR	7	n/a	n/a	n/a	n/a	n/a	n/a	n/a	14	8	2	4	n/a	n/a	n/a	n/a	n/a
1014.6	n/a	PROB	507300	n/a	LTP074	ltpFR	7	n/a	n/a	n/a	n/a	n/a	n/a	n/a	18	8	5	5	n/a	n/a	n/a	n/a	n/a
1016.084	n/a	PROB	508042	n/a	LTP074	ltpFR	7	n/a	n/a	n/a	n/a	n/a	n/a	n/a	16	7	5	4	n/a	n/a	n/a	n/a	n/a
1017.886	n/a	STOP	508943	n/a	LTP074	ltpFR	7	n/a	n/a	n/a	n/a	n/a	n/a	n/a	n/a	n/a	n/a	n/a	n/a	n/a	n/a	n/a	n/a
1019.1	n/a	WORD	509550	wordpools/wasnorm_wordpool.txt	LTP074	ltpFR	7	3	1	STEW	1380	n/a	n/a	0	n/a	0	0	0	0.57763671875	0.412841796875	1	upper	amplitud.ttf
1022.1	n/a	START	511050	n/a	LTP074	ltpFR	7	n/a	n/a	n/a	n/a	n/a	n/a	n/a	n/a	n/a	n/a	n/a	n/a	n/a	n/a	n/a	n/a
1023.076	n/a	PROB	511538	n/a	LTP074	ltpFR	7	n/a	n/a	n/a	n/a	n/a	n/a	n/a	14	8	3	3	n/a	n/a	n/a	n/a	n/a
1024.368	n/a	PROB	512184	n/a	LTP074	ltpFR	7	n/a	n/a	n/a	n/a	n/a	n/a	n/a	17	8	6	3	n/a	n/a	n/a	n/a	n/a
1026.376	n/a	PROB	513188	n/a	LTP074	ltpFR	7	n/a	n/a	n/a	n/a	n/a	n/a	n/a	15	3	9	3	n/a	n/a	n/a	n/a	n/a
1027.852	n/a	PROB	513926	n/a	LTP074	ltpFR	7	n/a	n/a	n/a	n/a	n/a	n/a	n/a	9	2	2	5	n/a	n/a	n/a	n/a	n/a
1029.998	n/a	STOP	514999	n/a	LTP074	ltpFR	7	n/a	n/a	n/a	n/a	n/a	n/a	n/a	n/a	n/a	n/a	n/a	n/a	n/a	n/a	n/a	n/a
1031.008	n/a	WORD	515504	wordpools/wasnorm_wordpool.txt	LTP074	ltpFR	7	3	1	COTTAGE	384	n/a	n/a	0	n/a	0	0	0	0.57763671875	0.412841796875	1	upper	amplitud.ttf
1034.016	n/a	START	517008	n/a	LTP074	ltpFR	7	n/a	n/a	n/a	n/a	n/a	n/a	n/a	n/a	n/a	n/a	n/a	n/a	n/a	n/a	n/a	n/a
1034.85	n/a	PROB	517425	n/a	LTP074	ltpFR	7	n/a	n/a	n/a	n/a	n/a	n/a	n/a	14	4	3	7	n/a	n/a	n/a	n/a	n/a
1036.166	n/a	PROB	518083	n/a	LTP074	ltpFR	7	n/a	n/a	n/a	n/a	n/a	n/a	n/a	11	2	8	1	n/a	n/a	n/a	n/a	n/a
1038.074	n/a	PROB	519037	n/a	LTP074	ltpFR	7	n/a	n/a	n/a	n/a	n/a	n/a	n/a	18	4	8	6	n/a	n/a	n/a	n/a	n/a
1042.016	n/a	STOP	521008	n/a	LTP074	ltpFR	7	n/a	n/a	n/a	n/a	n/a	n/a	n/a	n/a	n/a	n/a	n/a	n/a	n/a	n/a	n/a	n/a
1043.082	n/a	WORD	521541	wordpools/wasnorm_wordpool.txt	LTP074	ltpFR	7	3	1	CRUMB	416	n/a	n/a	0	n/a	0	0	0	0.57763671875	0.412841796875	1	upper	amplitud.ttf
1046.092	n/a	START	523046	n/a	LTP074	ltpFR	7	n/a	n/a	n/a	n/a	n/a	n/a	n/a	n/a	n/a	n/a	n/a	n/a	n/a	n/a	n/a	n/a
1047.008	n/a	PROB	523504	n/a	LTP074	ltpFR	7	n/a	n/a	n/a	n/a	n/a	n/a	n/a	21	8	8	5	n/a	n/a	n/a	n/a	n/a
1048.616	n/a	PROB	524308	n/a	LTP074	ltpFR	7	n/a	n/a	n/a	n/a	n/a	n/a	n/a	19	9	8	2	n/a	n/a	n/a	n/a	n/a
1050.616	n/a	PROB	525308	n/a	LTP074	ltpFR	7	n/a	n/a	n/a	n/a	n/a	n/a	n/a	18	2	9	7	n/a	n/a	n/a	n/a	n/a
1053.094	n/a	STOP	526547	n/a	LTP074	ltpFR	7	n/a	n/a	n/a	n/a	n/a	n/a	n/a	n/a	n/a	n/a	n/a	n/a	n/a	n/a	n/a	n/a
1055.04	n/a	WORD	527520	wordpools/wasnorm_wordpool.txt	LTP074	ltpFR	7	3	1	SCREEN	1253	n/a	n/a	0	n/a	0	0	0	0.57763671875	0.412841796875	1	upper	amplitud.ttf
1058.04	n/a	START	529020	n/a	LTP074	ltpFR	7	n/a	n/a	n/a	n/a	n/a	n/a	n/a	n/a	n/a	n/a	n/a	n/a	n/a	n/a	n/a	n/a
1058.866	n/a	PROB	529433	n/a	LTP074	ltpFR	7	n/a	n/a	n/a	n/a	n/a	n/a	n/a	14	2	7	5	n/a	n/a	n/a	n/a	n/a
1060.84	n/a	PROB	530420	n/a	LTP074	ltpFR	7	n/a	n/a	n/a	n/a	n/a	n/a	n/a	11	1	6	4	n/a	n/a	n/a	n/a	n/a
1062.366	n/a	PROB	531183	n/a	LTP074	ltpFR	7	n/a	n/a	n/a	n/a	n/a	n/a	n/a	6	4	1	1	n/a	n/a	n/a	n/a	n/a
1063.59	n/a	PROB	531795	n/a	LTP074	ltpFR	7	n/a	n/a	n/a	n/a	n/a	n/a	n/a	15	6	6	3	n/a	n/a	n/a	n/a	n/a
1065.152	n/a	STOP	532576	n/a	LTP074	ltpFR	7	n/a	n/a	n/a	n/a	n/a	n/a	n/a	n/a	n/a	n/a	n/a	n/a	n/a	n/a	n/a	n/a
1067.792	n/a	REC_START	533896	n/a	LTP074	ltpFR	7	3	n/a	n/a	n/a	n/a	n/a	n/a	n/a	0	0	0	n/a	n/a	n/a	n/a	n/a
1069.872	n/a	REC_WORD	534936	wordpools/wasnorm_wordpool.txt	LTP074	ltpFR	7	3	1	MUFFIN	929	n/a	n/a	0	n/a	0	0	0	n/a	n/a	n/a	n/a	n/a
1070.442	n/a	REC_WORD	535221	wordpools/wasnorm_wordpool.txt	LTP074	ltpFR	7	3	1	CRUMB	416	n/a	n/a	0	n/a	0	0	0	n/a	n/a	n/a	n/a	n/a
1071.078	n/a	REC_WORD	535539	wordpools/wasnorm_wordpool.txt	LTP074	ltpFR	7	3	1	COTTAGE	384	n/a	n/a	0	n/a	0	0	0	n/a	n/a	n/a	n/a	n/a
1071.628	n/a	REC_WORD	535814	wordpools/wasnorm_wordpool.txt	LTP074	ltpFR	7	3	1	SHRUB	1299	n/a	n/a	1	n/a	0	0	0	n/a	n/a	n/a	n/a	n/a
1072.716	n/a	REC_WORD	536358	wordpools/wasnorm_wordpool.txt	LTP074	ltpFR	7	3	1	LEAF	808	n/a	n/a	0	n/a	0	0	0	n/a	n/a	n/a	n/a	n/a
1074.346	n/a	REC_WORD	537173	wordpools/wasnorm_wordpool.txt	LTP074	ltpFR	7	3	1	SENATOR	1268	n/a	n/a	1	n/a	0	0	0	n/a	n/a	n/a	n/a	n/a
1075.072	n/a	REC_WORD	537536	wordpools/wasnorm_wordpool.txt	LTP074	ltpFR	7	3	1	PRINTER	1126	n/a	n/a	0	n/a	0	0	0	n/a	n/a	n/a	n/a	n/a
1077.504	n/a	REC_WORD	538752	wordpools/wasnorm_wordpool.txt	LTP074	ltpFR	7	3	1	BUILDER	190	n/a	n/a	1	n/a	0	0	0	n/a	n/a	n/a	n/a	n/a
1080.018	n/a	REC_WORD	540009	wordpools/wasnorm_wordpool.txt	LTP074	ltpFR	7	3	1	WINDSHIELD	1612	n/a	n/a	0	n/a	0	0	0	n/a	n/a	n/a	n/a	n/a
1081.21	n/a	REC_WORD	540605	wordpools/wasnorm_wordpool.txt	LTP074	ltpFR	7	3	1	PEN	1041	n/a	n/a	0	n/a	0	0	0	n/a	n/a	n/a	n/a	n/a
1082.852	n/a	REC_WORD	541426	wordpools/wasnorm_wordpool.txt	LTP074	ltpFR	7	3	1	FOX	598	n/a	n/a	1	n/a	0	0	0	n/a	n/a	n/a	n/a	n/a
1089.028	n/a	REC_WORD	544514	wordpools/wasnorm_wordpool.txt	LTP074	ltpFR	7	3	1	HAYSTACK	694	n/a	n/a	0	n/a	0	0	0	n/a	n/a	n/a	n/a	n/a
1150.672	n/a	WORD	575336	wordpools/wasnorm_wordpool.txt	LTP074	ltpFR	7	4	0	FROST	609	n/a	n/a	0	n/a	0	0	0	0.422607421875	0.5869140625	0	lower	zerothre.ttf
1154.764	n/a	WORD	577382	wordpools/wasnorm_wordpool.txt	LTP074	ltpFR	7	4	0	ROBBER	1197	n/a	n/a	1	n/a	0	0	0	0.422607421875	0.5869140625	0	lower	zerothre.ttf
1158.706	n/a	WORD	579353	wordpools/wasnorm_wordpool.txt	LTP074	ltpFR	7	4	0	BALLERINA	74	n/a	n/a	1	n/a	0	0	0	0.422607421875	0.5869140625	0	lower	zerothre.ttf
1162.604	n/a	WORD	581302	wordpools/wasnorm_wordpool.txt	LTP074	ltpFR	7	4	0	LEMON	810	n/a	n/a	0	n/a	0	0	0	0.422607421875	0.5869140625	0	lower	zerothre.ttf
1166.522	n/a	WORD	583261	wordpools/wasnorm_wordpool.txt	LTP074	ltpFR	7	4	0	DOCUMENT	479	n/a	n/a	0	n/a	0	0	0	0.422607421875	0.5869140625	0	lower	zerothre.ttf
1170.688	n/a	WORD	585344	wordpools/wasnorm_wordpool.txt	LTP074	ltpFR	7	4	0	FOLDER	588	n/a	n/a	0	n/a	0	0	0	0.422607421875	0.5869140625	0	lower	zerothre.ttf
1174.588	n/a	WORD	587294	wordpools/wasnorm_wordpool.txt	LTP074	ltpFR	7	4	0	SIGNATURE	1306	n/a	n/a	0	n/a	0	0	0	0.422607421875	0.5869140625	0	lower	zerothre.ttf
1178.564	n/a	WORD	589282	wordpools/wasnorm_wordpool.txt	LTP074	ltpFR	7	4	0	NOTEBOOK	959	n/a	n/a	0	n/a	0	0	0	0.422607421875	0.5869140625	0	lower	zerothre.ttf
1182.396	n/a	WORD	591198	wordpools/wasnorm_wordpool.txt	LTP074	ltpFR	7	4	0	GRASSHOPPER	656	n/a	n/a	0	n/a	0	0	0	0.422607421875	0.5869140625	0	lower	zerothre.ttf
1186.554	n/a	WORD	593277	wordpools/wasnorm_wordpool.txt	LTP074	ltpFR	7	4	0	CUCUMBER	421	n/a	n/a	0	n/a	0	0	0	0.422607421875	0.5869140625	0	lower	zerothre.ttf
1190.378	n/a	WORD	595189	wordpools/wasnorm_wordpool.txt	LTP074	ltpFR	7	4	0	CAFETERIA	217	n/a	n/a	0	n/a	0	0	0	0.422607421875	0.5869140625	0	lower	zerothre.ttf
1194.404	n/a	WORD	597202	wordpools/wasnorm_wordpool.txt	LTP074	ltpFR	7	4	0	PILOT	1070	n/a	n/a	1	n/a	0	0	0	0.422607421875	0.5869140625	0	lower	zerothre.ttf
1198.27	n/a	WORD	599135	wordpools/wasnorm_wordpool.txt	LTP074	ltpFR	7	4	0	BASKETBALL	96	n/a	n/a	1	n/a	0	0	0	0.422607421875	0.5869140625	0	lower	zerothre.ttf
1202.362	n/a	WORD	601181	wordpools/wasnorm_wordpool.txt	LTP074	ltpFR	7	4	0	IGLOO	734	n/a	n/a	1	n/a	0	0	0	0.422607421875	0.5869140625	0	lower	zerothre.ttf
1206.362	n/a	WORD	603181	wordpools/wasnorm_wordpool.txt	LTP074	ltpFR	7	4	0	HANDCUFFS	685	n/a	n/a	0	n/a	0	0	0	0.422607421875	0.5869140625	0	lower	zerothre.ttf
1210.304	n/a	WORD	605152	wordpools/wasnorm_wordpool.txt	LTP074	ltpFR	7	4	0	CONVICT	371	n/a	n/a	1	n/a	0	0	0	0.422607421875	0.5869140625	0	lower	zerothre.ttf
1213.312	n/a	START	606656	n/a	LTP074	ltpFR	7	n/a	n/a	n/a	n/a	n/a	n/a	n/a	n/a	n/a	n/a	n/a	n/a	n/a	n/a	n/a	n/a
1214.138	n/a	PROB	607069	n/a	LTP074	ltpFR	7	n/a	n/a	n/a	n/a	n/a	n/a	n/a	12	6	3	3	n/a	n/a	n/a	n/a	n/a
1215.33	n/a	PROB	607665	n/a	LTP074	ltpFR	7	n/a	n/a	n/a	n/a	n/a	n/a	n/a	22	8	6	6	n/a	n/a	n/a	n/a	n/a
1217.362	n/a	PROB	608681	n/a	LTP074	ltpFR	7	n/a	n/a	n/a	n/a	n/a	n/a	n/a	18	3	8	7	n/a	n/a	n/a	n/a	n/a
1220.006	n/a	STOP	610003	n/a	LTP074	ltpFR	7	n/a	n/a	n/a	n/a	n/a	n/a	n/a	n/a	n/a	n/a	n/a	n/a	n/a	n/a	n/a	n/a
1223.062	n/a	REC_START	611531	n/a	LTP074	ltpFR	7	4	n/a	n/a	n/a	n/a	n/a	n/a	n/a	0	0	0	n/a	n/a	n/a	n/a	n/a
1224.15	n/a	REC_WORD	612075	wordpools/wasnorm_wordpool.txt	LTP074	ltpFR	7	4	0	BASKETBALL	96	n/a	n/a	1	n/a	0	0	0	n/a	n/a	n/a	n/a	n/a
1224.932	n/a	REC_WORD	612466	wordpools/wasnorm_wordpool.txt	LTP074	ltpFR	7	4	0	CONVICT	371	n/a	n/a	1	n/a	0	0	0	n/a	n/a	n/a	n/a	n/a
1225.762	n/a	REC_WORD	612881	wordpools/wasnorm_wordpool.txt	LTP074	ltpFR	7	4	0	IGLOO	734	n/a	n/a	1	n/a	0	0	0	n/a	n/a	n/a	n/a	n/a
1226.556	n/a	REC_WORD	613278	wordpools/wasnorm_wordpool.txt	LTP074	ltpFR	7	4	0	HANDCUFFS	685	n/a	n/a	0	n/a	0	0	0	n/a	n/a	n/a	n/a	n/a
1231.128	n/a	REC_WORD	615564	wordpools/wasnorm_wordpool.txt	LTP074	ltpFR	7	4	0	SIGNATURE	1306	n/a	n/a	0	n/a	0	0	0	n/a	n/a	n/a	n/a	n/a
1232.006	n/a	REC_WORD	616003	wordpools/wasnorm_wordpool.txt	LTP074	ltpFR	7	4	0	GRASSHOPPER	656	n/a	n/a	0	n/a	0	0	0	n/a	n/a	n/a	n/a	n/a
1232.986	n/a	REC_WORD	616493	wordpools/wasnorm_wordpool.txt	LTP074	ltpFR	7	4	0	NOTEBOOK	959	n/a	n/a	0	n/a	0	0	0	n/a	n/a	n/a	n/a	n/a
1235.066	n/a	REC_WORD	617533	wordpools/wasnorm_wordpool.txt	LTP074	ltpFR	7	4	0	LEMON	810	n/a	n/a	0	n/a	0	0	0	n/a	n/a	n/a	n/a	n/a
1236.258	n/a	REC_WORD	618129	wordpools/wasnorm_wordpool.txt	LTP074	ltpFR	7	4	0	DOCUMENT	479	n/a	n/a	0	n/a	0	0	0	n/a	n/a	n/a	n/a	n/a
1236.966	n/a	REC_WORD	618483	wordpools/wasnorm_wordpool.txt	LTP074	ltpFR	7	4	0	FOLDER	588	n/a	n/a	0	n/a	0	0	0	n/a	n/a	n/a	n/a	n/a
1240.154	n/a	REC_WORD	620077	wordpools/wasnorm_wordpool.txt	LTP074	ltpFR	7	4	0	ROBBER	1197	n/a	n/a	1	n/a	0	0	0	n/a	n/a	n/a	n/a	n/a
1240.848	n/a	REC_WORD	620424	wordpools/wasnorm_wordpool.txt	LTP074	ltpFR	7	4	0	FROST	609	n/a	n/a	0	n/a	0	0	0	n/a	n/a	n/a	n/a	n/a
1241.716	n/a	REC_WORD	620858	wordpools/wasnorm_wordpool.txt	LTP074	ltpFR	7	4	0	BALLERINA	74	n/a	n/a	1	n/a	0	0	0	n/a	n/a	n/a	n/a	n/a
1247.552	n/a	REC_WORD	623776	wordpools/wasnorm_wordpool.txt	LTP074	ltpFR	7	4	0	CUCUMBER	421	n/a	n/a	0	n/a	0	0	0	n/a	n/a	n/a	n/a	n/a
1248.328	n/a	REC_WORD	624164	wordpools/wasnorm_wordpool.txt	LTP074	ltpFR	7	4	0	PILOT	1070	n/a	n/a	1	n/a	0	0	0	n/a	n/a	n/a	n/a	n/a
1248.872	n/a	REC_WORD	624436	wordpools/wasnorm_wordpool.txt	LTP074	ltpFR	7	4	0	CAFETERIA	217	n/a	n/a	0	n/a	0	0	0	n/a	n/a	n/a	n/a	n/a
1304.502	n/a	WORD	652251	wordpools/wasnorm_wordpool.txt	LTP074	ltpFR	7	5	0	SERGEANT	1269	n/a	n/a	1	n/a	0	0	0	0.422607421875	0.5869140625	0	lower	zerothre.ttf
1308.692	n/a	WORD	654346	wordpools/wasnorm_wordpool.txt	LTP074	ltpFR	7	5	0	MANSION	864	n/a	n/a	1	n/a	0	0	0	0.422607421875	0.5869140625	0	lower	zerothre.ttf
1312.752	n/a	WORD	656376	wordpools/wasnorm_wordpool.txt	LTP074	ltpFR	7	5	0	COLOGNE	347	n/a	n/a	0	n/a	0	0	0	0.422607421875	0.5869140625	0	lower	zerothre.ttf
1316.918	n/a	WORD	658459	wordpools/wasnorm_wordpool.txt	LTP074	ltpFR	7	5	0	CORPORATION	382	n/a	n/a	1	n/a	0	0	0	0.422607421875	0.5869140625	0	lower	zerothre.ttf
1320.902	n/a	WORD	660451	wordpools/wasnorm_wordpool.txt	LTP074	ltpFR	7	5	0	ARCHITECT	36	n/a	n/a	1	n/a	0	0	0	0.422607421875	0.5869140625	0	lower	zerothre.ttf
1325.06	n/a	WORD	662530	wordpools/wasnorm_wordpool.txt	LTP074	ltpFR	7	5	0	JAW	751	n/a	n/a	0	n/a	0	0	0	0.422607421875	0.5869140625	0	lower	zerothre.ttf
1329.21	n/a	WORD	664605	wordpools/wasnorm_wordpool.txt	LTP074	ltpFR	7	5	0	FIN	566	n/a	n/a	0	n/a	0	0	0	0.422607421875	0.5869140625	0	lower	zerothre.ttf
1333.242	n/a	WORD	666621	wordpools/wasnorm_wordpool.txt	LTP074	ltpFR	7	5	0	SICKLE	1302	n/a	n/a	0	n/a	0	0	0	0.422607421875	0.5869140625	0	lower	zerothre.ttf
1337.326	n/a	WORD	668663	wordpools/wasnorm_wordpool.txt	LTP074	ltpFR	7	5	0	LAKE	796	n/a	n/a	1	n/a	0	0	0	0.422607421875	0.5869140625	0	lower	zerothre.ttf
1341.526	n/a	WORD	670763	wordpools/wasnorm_wordpool.txt	LTP074	ltpFR	7	5	0	CANAL	226	n/a	n/a	1	n/a	0	0	0	0.422607421875	0.5869140625	0	lower	zerothre.ttf
1345.726	n/a	WORD	672863	wordpools/wasnorm_wordpool.txt	LTP074	ltpFR	7	5	0	CUSTARD	429	n/a	n/a	0	n/a	0	0	0	0.422607421875	0.5869140625	0	lower	zerothre.ttf
1349.918	n/a	WORD	674959	wordpools/wasnorm_wordpool.txt	LTP074	ltpFR	7	5	0	PIG	1064	n/a	n/a	0	n/a	0	0	0	0.422607421875	0.5869140625	0	lower	zerothre.ttf
1354.066	n/a	WORD	677033	wordpools/wasnorm_wordpool.txt	LTP074	ltpFR	7	5	0	PATIO	1025	n/a	n/a	1	n/a	0	0	0	0.422607421875	0.5869140625	0	lower	zerothre.ttf
1358.024	n/a	WORD	679012	wordpools/wasnorm_wordpool.txt	LTP074	ltpFR	7	5	0	FLEET	578	n/a	n/a	1	n/a	0	0	0	0.422607421875	0.5869140625	0	lower	zerothre.ttf
1362.192	n/a	WORD	681096	wordpools/wasnorm_wordpool.txt	LTP074	ltpFR	7	5	0	TRANSPLANT	1496	n/a	n/a	1	n/a	0	0	0	0.422607421875	0.5869140625	0	lower	zerothre.ttf
1366.234	n/a	WORD	683117	wordpools/wasnorm_wordpool.txt	LTP074	ltpFR	7	5	0	SNEAKER	1334	n/a	n/a	0	n/a	0	0	0	0.422607421875	0.5869140625	0	lower	zerothre.ttf
1372.15	n/a	REC_START	686075	n/a	LTP074	ltpFR	7	5	n/a	n/a	n/a	n/a	n/a	n/a	n/a	0	0	0	n/a	n/a	n/a	n/a	n/a
1373.622	n/a	REC_WORD	686811	wordpools/wasnorm_wordpool.txt	LTP074	ltpFR	7	5	0	FLEET	578	n/a	n/a	1	n/a	0	0	0	n/a	n/a	n/a	n/a	n/a
1374.2	n/a	REC_WORD	687100	wordpools/wasnorm_wordpool.txt	LTP074	ltpFR	7	5	0	PATIO	1025	n/a	n/a	1	n/a	0	0	0	n/a	n/a	n/a	n/a	n/a
1374.848	n/a	REC_WORD	687424	wordpools/wasnorm_wordpool.txt	LTP074	ltpFR	7	5	0	TRANSPLANT	1496	n/a	n/a	1	n/a	0	0	0	n/a	n/a	n/a	n/a	n/a
1375.598	n/a	REC_WORD	687799	wordpools/wasnorm_wordpool.txt	LTP074	ltpFR	7	5	0	SNEAKER	1334	n/a	n/a	0	n/a	0	0	0	n/a	n/a	n/a	n/a	n/a
1378.96	n/a	REC_WORD	689480	wordpools/wasnorm_wordpool.txt	LTP074	ltpFR	7	5	0	ARCHITECT	36	n/a	n/a	1	n/a	0	0	0	n/a	n/a	n/a	n/a	n/a
1379.942	n/a	REC_WORD	689971	wordpools/wasnorm_wordpool.txt	LTP074	ltpFR	7	5	0	CORPORATION	382	n/a	n/a	1	n/a	0	0	0	n/a	n/a	n/a	n/a	n/a
1380.744	n/a	REC_WORD	690372	wordpools/wasnorm_wordpool.txt	LTP074	ltpFR	7	5	0	JAW	751	n/a	n/a	0	n/a	0	0	0	n/a	n/a	n/a	n/a	n/a
1383.022	n/a	REC_WORD	691511	wordpools/wasnorm_wordpool.txt	LTP074	ltpFR	7	5	0	FIN	566	n/a	n/a	0	n/a	0	0	0	n/a	n/a	n/a	n/a	n/a
1383.608	n/a	REC_WORD	691804	wordpools/wasnorm_wordpool.txt	LTP074	ltpFR	7	5	0	SICKLE	1302	n/a	n/a	0	n/a	0	0	0	n/a	n/a	n/a	n/a	n/a
1384.222	n/a	REC_WORD	692111	wordpools/wasnorm_wordpool.txt	LTP074	ltpFR	7	5	0	LAKE	796	n/a	n/a	1	n/a	0	0	0	n/a	n/a	n/a	n/a	n/a
1386.094	n/a	REC_WORD	693047	wordpools/wasnorm_wordpool.txt	LTP074	ltpFR	7	5	0	PIG	1064	n/a	n/a	0	n/a	0	0	0	n/a	n/a	n/a	n/a	n/a
1386.608	n/a	REC_WORD	693304	wordpools/wasnorm_wordpool.txt	LTP074	ltpFR	7	5	0	CUSTARD	429	n/a	n/a	0	n/a	0	0	0	n/a	n/a	n/a	n/a	n/a
1387.452	n/a	REC_WORD	693726	wordpools/wasnorm_wordpool.txt	LTP074	ltpFR	7	5	0	CANAL	226	n/a	n/a	1	n/a	0	0	0	n/a	n/a	n/a	n/a	n/a
1393.762	n/a	REC_WORD	696881	wordpools/wasnorm_wordpool.txt	LTP074	ltpFR	7	5	n/a	LIEUTENANT	818	n/a	n/a	n/a	n/a	0	0	0	n/a	n/a	n/a	n/a	n/a
1394.41	n/a	REC_WORD	697205	wordpools/wasnorm_wordpool.txt	LTP074	ltpFR	7	5	0	COLOGNE	347	n/a	n/a	0	n/a	0	0	0	n/a	n/a	n/a	n/a	n/a
1395.036	n/a	REC_WORD	697518	wordpools/wasnorm_wordpool.txt	LTP074	ltpFR	7	5	0	MANSION	864	n/a	n/a	1	n/a	0	0	0	n/a	n/a	n/a	n/a	n/a
1461.772	n/a	START	730886	n/a	LTP074	ltpFR	7	n/a	n/a	n/a	n/a	n/a	n/a	n/a	n/a	n/a	n/a	n/a	n/a	n/a	n/a	n/a	n/a
1463.28	n/a	PROB	731640	n/a	LTP074	ltpFR	7	n/a	n/a	n/a	n/a	n/a	n/a	n/a	14	2	9	3	n/a	n/a	n/a	n/a	n/a
1464.882	n/a	PROB	732441	n/a	LTP074	ltpFR	7	n/a	n/a	n/a	n/a	n/a	n/a	n/a	16	1	7	8	n/a	n/a	n/a	n/a	n/a
1466.172	n/a	PROB	733086	n/a	LTP074	ltpFR	7	n/a	n/a	n/a	n/a	n/a	n/a	n/a	19	5	7	7	n/a	n/a	n/a	n/a	n/a
1470.016	n/a	PROB	735008	n/a	LTP074	ltpFR	7	n/a	n/a	n/a	n/a	n/a	n/a	n/a	9	1	3	5	n/a	n/a	n/a	n/a	n/a
1471.572	n/a	PROB	735786	n/a	LTP074	ltpFR	7	n/a	n/a	n/a	n/a	n/a	n/a	n/a	18	3	8	7	n/a	n/a	n/a	n/a	n/a
1473.18	n/a	PROB	736590	n/a	LTP074	ltpFR	7	n/a	n/a	n/a	n/a	n/a	n/a	n/a	18	7	4	7	n/a	n/a	n/a	n/a	n/a
1477.774	n/a	STOP	738887	n/a	LTP074	ltpFR	7	n/a	n/a	n/a	n/a	n/a	n/a	n/a	n/a	n/a	n/a	n/a	n/a	n/a	n/a	n/a	n/a
1478.748	n/a	WORD	739374	wordpools/wasnorm_wordpool.txt	LTP074	ltpFR	7	6	0	SHORTCAKE	1292	n/a	n/a	0	n/a	0	0	0	0.422607421875	0.5869140625	0	lower	zerothre.ttf
1481.756	n/a	START	740878	n/a	LTP074	ltpFR	7	n/a	n/a	n/a	n/a	n/a	n/a	n/a	n/a	n/a	n/a	n/a	n/a	n/a	n/a	n/a	n/a
1482.588	n/a	PROB	741294	n/a	LTP074	ltpFR	7	n/a	n/a	n/a	n/a	n/a	n/a	n/a	14	5	4	5	n/a	n/a	n/a	n/a	n/a
1483.89	n/a	PROB	741945	n/a	LTP074	ltpFR	7	n/a	n/a	n/a	n/a	n/a	n/a	n/a	18	2	8	8	n/a	n/a	n/a	n/a	n/a
1485.296	n/a	PROB	742648	n/a	LTP074	ltpFR	7	n/a	n/a	n/a	n/a	n/a	n/a	n/a	16	7	4	5	n/a	n/a	n/a	n/a	n/a
1486.854	n/a	PROB	743427	n/a	LTP074	ltpFR	7	n/a	n/a	n/a	n/a	n/a	n/a	n/a	11	3	4	4	n/a	n/a	n/a	n/a	n/a
1488.256	n/a	PROB	744128	n/a	LTP074	ltpFR	7	n/a	n/a	n/a	n/a	n/a	n/a	n/a	15	4	2	9	n/a	n/a	n/a	n/a	n/a
1489.606	n/a	PROB	744803	n/a	LTP074	ltpFR	7	n/a	n/a	n/a	n/a	n/a	n/a	n/a	18	2	8	8	n/a	n/a	n/a	n/a	n/a
1490.948	n/a	PROB	745474	n/a	LTP074	ltpFR	7	n/a	n/a	n/a	n/a	n/a	n/a	n/a	14	8	2	4	n/a	n/a	n/a	n/a	n/a
1492.18	n/a	PROB	746090	n/a	LTP074	ltpFR	7	n/a	n/a	n/a	n/a	n/a	n/a	n/a	17	4	8	5	n/a	n/a	n/a	n/a	n/a
1494.222	n/a	PROB	747111	n/a	LTP074	ltpFR	7	n/a	n/a	n/a	n/a	n/a	n/a	n/a	1	5	7	4	n/a	n/a	n/a	n/a	n/a
1497.756	n/a	STOP	748878	n/a	LTP074	ltpFR	7	n/a	n/a	n/a	n/a	n/a	n/a	n/a	n/a	n/a	n/a	n/a	n/a	n/a	n/a	n/a	n/a
1498.78	n/a	WORD	749390	wordpools/wasnorm_wordpool.txt	LTP074	ltpFR	7	6	0	COMMUNITY	356	n/a	n/a	1	n/a	0	0	0	0.422607421875	0.5869140625	0	lower	zerothre.ttf
1501.78	n/a	START	750890	n/a	LTP074	ltpFR	7	n/a	n/a	n/a	n/a	n/a	n/a	n/a	n/a	n/a	n/a	n/a	n/a	n/a	n/a	n/a	n/a
1502.622	n/a	PROB	751311	n/a	LTP074	ltpFR	7	n/a	n/a	n/a	n/a	n/a	n/a	n/a	11	1	9	1	n/a	n/a	n/a	n/a	n/a
1504.28	n/a	PROB	752140	n/a	LTP074	ltpFR	7	n/a	n/a	n/a	n/a	n/a	n/a	n/a	20	7	8	5	n/a	n/a	n/a	n/a	n/a
1505.956	n/a	PROB	752978	n/a	LTP074	ltpFR	7	n/a	n/a	n/a	n/a	n/a	n/a	n/a	8	6	1	1	n/a	n/a	n/a	n/a	n/a
1507.212	n/a	PROB	753606	n/a	LTP074	ltpFR	7	n/a	n/a	n/a	n/a	n/a	n/a	n/a	9	2	3	4	n/a	n/a	n/a	n/a	n/a
1509.94	n/a	PROB	754970	n/a	LTP074	ltpFR	7	n/a	n/a	n/a	n/a	n/a	n/a	n/a	17	5	5	7	n/a	n/a	n/a	n/a	n/a
1511.206	n/a	PROB	755603	n/a	LTP074	ltpFR	7	n/a	n/a	n/a	n/a	n/a	n/a	n/a	20	8	9	3	n/a	n/a	n/a	n/a	n/a
1513.304	n/a	PROB	756652	n/a	LTP074	ltpFR	7	n/a	n/a	n/a	n/a	n/a	n/a	n/a	15	5	4	6	n/a	n/a	n/a	n/a	n/a
1515.53	n/a	PROB	757765	n/a	LTP074	ltpFR	7	n/a	n/a	n/a	n/a	n/a	n/a	n/a	14	4	9	1	n/a	n/a	n/a	n/a	n/a
1516.7	n/a	STOP	758350	n/a	LTP074	ltpFR	7	n/a	n/a	n/a	n/a	n/a	n/a	n/a	n/a	n/a	n/a	n/a	n/a	n/a	n/a	n/a	n/a
1518.956	n/a	WORD	759478	wordpools/wasnorm_wordpool.txt	LTP074	ltpFR	7	6	0	INSTRUCTOR	741	n/a	n/a	1	n/a	0	0	0	0.422607421875	0.5869140625	0	lower	zerothre.ttf
1521.964	n/a	START	760982	n/a	LTP074	ltpFR	7	n/a	n/a	n/a	n/a	n/a	n/a	n/a	n/a	n/a	n/a	n/a	n/a	n/a	n/a	n/a	n/a
1523.13	n/a	PROB	761565	n/a	LTP074	ltpFR	7	n/a	n/a	n/a	n/a	n/a	n/a	n/a	11	2	2	7	n/a	n/a	n/a	n/a	n/a
1524.972	n/a	PROB	762486	n/a	LTP074	ltpFR	7	n/a	n/a	n/a	n/a	n/a	n/a	n/a	16	8	7	1	n/a	n/a	n/a	n/a	n/a
1526.396	n/a	PROB	763198	n/a	LTP074	ltpFR	7	n/a	n/a	n/a	n/a	n/a	n/a	n/a	15	3	5	7	n/a	n/a	n/a	n/a	n/a
1528.554	n/a	PROB	764277	n/a	LTP074	ltpFR	7	n/a	n/a	n/a	n/a	n/a	n/a	n/a	16	6	1	9	n/a	n/a	n/a	n/a	n/a
1530.212	n/a	PROB	765106	n/a	LTP074	ltpFR	7	n/a	n/a	n/a	n/a	n/a	n/a	n/a	22	5	8	9	n/a	n/a	n/a	n/a	n/a
1533.572	n/a	PROB	766786	n/a	LTP074	ltpFR	7	n/a	n/a	n/a	n/a	n/a	n/a	n/a	17	9	1	7	n/a	n/a	n/a	n/a	n/a
1535.006	n/a	PROB	767503	n/a	LTP074	ltpFR	7	n/a	n/a	n/a	n/a	n/a	n/a	n/a	16	7	6	3	n/a	n/a	n/a	n/a	n/a
1537.964	n/a	STOP	768982	n/a	LTP074	ltpFR	7	n/a	n/a	n/a	n/a	n/a	n/a	n/a	n/a	n/a	n/a	n/a	n/a	n/a	n/a	n/a	n/a
1538.914	n/a	WORD	769457	wordpools/wasnorm_wordpool.txt	LTP074	ltpFR	7	6	0	SCHOOL	1248	n/a	n/a	1	n/a	0	0	0	0.422607421875	0.5869140625	0	lower	zerothre.ttf
1541.922	n/a	START	770961	n/a	LTP074	ltpFR	7	n/a	n/a	n/a	n/a	n/a	n/a	n/a	n/a	n/a	n/a	n/a	n/a	n/a	n/a	n/a	n/a
1542.838	n/a	PROB	771419	n/a	LTP074	ltpFR	7	n/a	n/a	n/a	n/a	n/a	n/a	n/a	15	4	8	3	n/a	n/a	n/a	n/a	n/a
1545.796	n/a	PROB	772898	n/a	LTP074	ltpFR	7	n/a	n/a	n/a	n/a	n/a	n/a	n/a	14	3	3	8	n/a	n/a	n/a	n/a	n/a
1547.954	n/a	PROB	773977	n/a	LTP074	ltpFR	7	n/a	n/a	n/a	n/a	n/a	n/a	n/a	23	5	9	9	n/a	n/a	n/a	n/a	n/a
1549.596	n/a	PROB	774798	n/a	LTP074	ltpFR	7	n/a	n/a	n/a	n/a	n/a	n/a	n/a	19	2	9	8	n/a	n/a	n/a	n/a	n/a
1551.378	n/a	PROB	775689	n/a	LTP074	ltpFR	7	n/a	n/a	n/a	n/a	n/a	n/a	n/a	16	5	4	7	n/a	n/a	n/a	n/a	n/a
1553.588	n/a	PROB	776794	n/a	LTP074	ltpFR	7	n/a	n/a	n/a	n/a	n/a	n/a	n/a	19	8	8	3	n/a	n/a	n/a	n/a	n/a
1554.98	n/a	PROB	777490	n/a	LTP074	ltpFR	7	n/a	n/a	n/a	n/a	n/a	n/a	n/a	21	4	8	9	n/a	n/a	n/a	n/a	n/a
1556.814	n/a	STOP	778407	n/a	LTP074	ltpFR	7	n/a	n/a	n/a	n/a	n/a	n/a	n/a	n/a	n/a	n/a	n/a	n/a	n/a	n/a	n/a	n/a
1558.812	n/a	WORD	779406	wordpools/wasnorm_wordpool.txt	LTP074	ltpFR	7	6	0	HALL	677	n/a	n/a	1	n/a	0	0	0	0.422607421875	0.5869140625	0	lower	zerothre.ttf
1561.82	n/a	START	780910	n/a	LTP074	ltpFR	7	n/a	n/a	n/a	n/a	n/a	n/a	n/a	n/a	n/a	n/a	n/a	n/a	n/a	n/a	n/a	n/a
1562.836	n/a	PROB	781418	n/a	LTP074	ltpFR	7	n/a	n/a	n/a	n/a	n/a	n/a	n/a	20	9	7	4	n/a	n/a	n/a	n/a	n/a
1565.678	n/a	PROB	782839	n/a	LTP074	ltpFR	7	n/a	n/a	n/a	n/a	n/a	n/a	n/a	13	1	7	5	n/a	n/a	n/a	n/a	n/a
1567.996	n/a	PROB	783998	n/a	LTP074	ltpFR	7	n/a	n/a	n/a	n/a	n/a	n/a	n/a	13	1	3	9	n/a	n/a	n/a	n/a	n/a
1569.77	n/a	PROB	784885	n/a	LTP074	ltpFR	7	n/a	n/a	n/a	n/a	n/a	n/a	n/a	10	2	4	6	n/a	n/a	n/a	n/a	n/a
1571.386	n/a	PROB	785693	n/a	LTP074	ltpFR	7	n/a	n/a	n/a	n/a	n/a	n/a	n/a	23	8	6	9	n/a	n/a	n/a	n/a	n/a
1575.228	n/a	PROB	787614	n/a	LTP074	ltpFR	7	n/a	n/a	n/a	n/a	n/a	n/a	n/a	10	3	1	6	n/a	n/a	n/a	n/a	n/a
1576.432	n/a	STOP	788216	n/a	LTP074	ltpFR	7	n/a	n/a	n/a	n/a	n/a	n/a	n/a	n/a	n/a	n/a	n/a	n/a	n/a	n/a	n/a	n/a
1578.636	n/a	WORD	789318	wordpools/wasnorm_wordpool.txt	LTP074	ltpFR	7	6	0	PIN	1072	n/a	n/a	0	n/a	0	0	0	0.422607421875	0.5869140625	0	lower	zerothre.ttf
1581.646	n/a	START	790823	n/a	LTP074	ltpFR	7	n/a	n/a	n/a	n/a	n/a	n/a	n/a	n/a	n/a	n/a	n/a	n/a	n/a	n/a	n/a	n/a
1582.762	n/a	PROB	791381	n/a	LTP074	ltpFR	7	n/a	n/a	n/a	n/a	n/a	n/a	n/a	12	8	2	2	n/a	n/a	n/a	n/a	n/a
1584.17	n/a	PROB	792085	n/a	LTP074	ltpFR	7	n/a	n/a	n/a	n/a	n/a	n/a	n/a	15	7	1	7	n/a	n/a	n/a	n/a	n/a
1585.352	n/a	PROB	792676	n/a	LTP074	ltpFR	7	n/a	n/a	n/a	n/a	n/a	n/a	n/a	13	2	6	5	n/a	n/a	n/a	n/a	n/a
1586.928	n/a	PROB	793464	n/a	LTP074	ltpFR	7	n/a	n/a	n/a	n/a	n/a	n/a	n/a	20	4	7	9	n/a	n/a	n/a	n/a	n/a
1590.186	n/a	PROB	795093	n/a	LTP074	ltpFR	7	n/a	n/a	n/a	n/a	n/a	n/a	n/a	12	3	2	7	n/a	n/a	n/a	n/a	n/a
1591.652	n/a	PROB	795826	n/a	LTP074	ltpFR	7	n/a	n/a	n/a	n/a	n/a	n/a	n/a	23	6	9	8	n/a	n/a	n/a	n/a	n/a
1597.646	n/a	STOP	798823	n/a	LTP074	ltpFR	7	n/a	n/a	n/a	n/a	n/a	n/a	n/a	n/a	n/a	n/a	n/a	n/a	n/a	n/a	n/a	n/a
1598.652	n/a	WORD	799326	wordpools/wasnorm_wordpool.txt	LTP074	ltpFR	7	6	0	EDITOR	516	n/a	n/a	1	n/a	0	0	0	0.422607421875	0.5869140625	0	lower	zerothre.ttf
1601.654	n/a	START	800827	n/a	LTP074	ltpFR	7	n/a	n/a	n/a	n/a	n/a	n/a	n/a	n/a	n/a	n/a	n/a	n/a	n/a	n/a	n/a	n/a
1602.844	n/a	PROB	801422	n/a	LTP074	ltpFR	7	n/a	n/a	n/a	n/a	n/a	n/a	n/a	24	9	7	6	n/a	n/a	n/a	n/a	n/a
1605.06	n/a	PROB	802530	n/a	LTP074	ltpFR	7	n/a	n/a	n/a	n/a	n/a	n/a	n/a	21	8	4	9	n/a	n/a	n/a	n/a	n/a
1609.21	n/a	PROB	804605	n/a	LTP074	ltpFR	7	n/a	n/a	n/a	n/a	n/a	n/a	n/a	15	2	5	8	n/a	n/a	n/a	n/a	n/a
1610.76	n/a	PROB	805380	n/a	LTP074	ltpFR	7	n/a	n/a	n/a	n/a	n/a	n/a	n/a	7	3	1	3	n/a	n/a	n/a	n/a	n/a
1612.752	n/a	PROB	806376	n/a	LTP074	ltpFR	7	n/a	n/a	n/a	n/a	n/a	n/a	n/a	19	5	8	6	n/a	n/a	n/a	n/a	n/a
1614.936	n/a	PROB	807468	n/a	LTP074	ltpFR	7	n/a	n/a	n/a	n/a	n/a	n/a	n/a	18	5	9	7	n/a	n/a	n/a	n/a	n/a
1616.426	n/a	STOP	808213	n/a	LTP074	ltpFR	7	n/a	n/a	n/a	n/a	n/a	n/a	n/a	n/a	n/a	n/a	n/a	n/a	n/a	n/a	n/a	n/a
1618.544	n/a	WORD	809272	wordpools/wasnorm_wordpool.txt	LTP074	ltpFR	7	6	0	FIREPLACE	570	n/a	n/a	1	n/a	0	0	0	0.422607421875	0.5869140625	0	lower	zerothre.ttf
1621.552	n/a	START	810776	n/a	LTP074	ltpFR	7	n/a	n/a	n/a	n/a	n/a	n/a	n/a	n/a	n/a	n/a	n/a	n/a	n/a	n/a	n/a	n/a
1622.378	n/a	PROB	811189	n/a	LTP074	ltpFR	7	n/a	n/a	n/a	n/a	n/a	n/a	n/a	19	2	9	8	n/a	n/a	n/a	n/a	n/a
1623.962	n/a	PROB	811981	n/a	LTP074	ltpFR	7	n/a	n/a	n/a	n/a	n/a	n/a	n/a	16	5	2	9	n/a	n/a	n/a	n/a	n/a
1625.952	n/a	PROB	812976	n/a	LTP074	ltpFR	7	n/a	n/a	n/a	n/a	n/a	n/a	n/a	13	4	5	4	n/a	n/a	n/a	n/a	n/a
1627.744	n/a	PROB	813872	n/a	LTP074	ltpFR	7	n/a	n/a	n/a	n/a	n/a	n/a	n/a	9	2	5	2	n/a	n/a	n/a	n/a	n/a
1629.444	n/a	PROB	814722	n/a	LTP074	ltpFR	7	n/a	n/a	n/a	n/a	n/a	n/a	n/a	17	5	7	5	n/a	n/a	n/a	n/a	n/a
1631.144	n/a	PROB	815572	n/a	LTP074	ltpFR	7	n/a	n/a	n/a	n/a	n/a	n/a	n/a	16	7	3	6	n/a	n/a	n/a	n/a	n/a
1633.06	n/a	PROB	816530	n/a	LTP074	ltpFR	7	n/a	n/a	n/a	n/a	n/a	n/a	n/a	14	4	4	6	n/a	n/a	n/a	n/a	n/a
1635.018	n/a	PROB	817509	n/a	LTP074	ltpFR	7	n/a	n/a	n/a	n/a	n/a	n/a	n/a	11	2	4	5	n/a	n/a	n/a	n/a	n/a
1636.77	n/a	STOP	818385	n/a	LTP074	ltpFR	7	n/a	n/a	n/a	n/a	n/a	n/a	n/a	n/a	n/a	n/a	n/a	n/a	n/a	n/a	n/a	n/a
1638.726	n/a	WORD	819363	wordpools/wasnorm_wordpool.txt	LTP074	ltpFR	7	6	0	TREE	1502	n/a	n/a	1	n/a	0	0	0	0.422607421875	0.5869140625	0	lower	zerothre.ttf
1641.736	n/a	START	820868	n/a	LTP074	ltpFR	7	n/a	n/a	n/a	n/a	n/a	n/a	n/a	n/a	n/a	n/a	n/a	n/a	n/a	n/a	n/a	n/a
1642.902	n/a	PROB	821451	n/a	LTP074	ltpFR	7	n/a	n/a	n/a	n/a	n/a	n/a	n/a	4	1	1	2	n/a	n/a	n/a	n/a	n/a
1644.06	n/a	PROB	822030	n/a	LTP074	ltpFR	7	n/a	n/a	n/a	n/a	n/a	n/a	n/a	21	4	9	8	n/a	n/a	n/a	n/a	n/a
1646.268	n/a	PROB	823134	n/a	LTP074	ltpFR	7	n/a	n/a	n/a	n/a	n/a	n/a	n/a	11	2	3	6	n/a	n/a	n/a	n/a	n/a
1647.668	n/a	PROB	823834	n/a	LTP074	ltpFR	7	n/a	n/a	n/a	n/a	n/a	n/a	n/a	15	5	1	9	n/a	n/a	n/a	n/a	n/a
1649.16	n/a	PROB	824580	n/a	LTP074	ltpFR	7	n/a	n/a	n/a	n/a	n/a	n/a	n/a	16	9	4	3	n/a	n/a	n/a	n/a	n/a
1651.234	n/a	PROB	825617	n/a	LTP074	ltpFR	7	n/a	n/a	n/a	n/a	n/a	n/a	n/a	22	8	5	9	n/a	n/a	n/a	n/a	n/a
1653.068	n/a	PROB	826534	n/a	LTP074	ltpFR	7	n/a	n/a	n/a	n/a	n/a	n/a	n/a	10	2	1	7	n/a	n/a	n/a	n/a	n/a
1655.16	n/a	PROB	827580	n/a	LTP074	ltpFR	7	n/a	n/a	n/a	n/a	n/a	n/a	n/a	16	1	9	6	n/a	n/a	n/a	n/a	n/a
1657.05	n/a	STOP	828525	n/a	LTP074	ltpFR	7	n/a	n/a	n/a	n/a	n/a	n/a	n/a	n/a	n/a	n/a	n/a	n/a	n/a	n/a	n/a	n/a
1658.92	n/a	WORD	829460	wordpools/wasnorm_wordpool.txt	LTP074	ltpFR	7	6	0	TOOTHPASTE	1483	n/a	n/a	0	n/a	0	0	0	0.422607421875	0.5869140625	0	lower	zerothre.ttf
1661.928	n/a	START	830964	n/a	LTP074	ltpFR	7	n/a	n/a	n/a	n/a	n/a	n/a	n/a	n/a	n/a	n/a	n/a	n/a	n/a	n/a	n/a	n/a
1663.068	n/a	PROB	831534	n/a	LTP074	ltpFR	7	n/a	n/a	n/a	n/a	n/a	n/a	n/a	15	3	9	3	n/a	n/a	n/a	n/a	n/a
1664.468	n/a	PROB	832234	n/a	LTP074	ltpFR	7	n/a	n/a	n/a	n/a	n/a	n/a	n/a	10	4	2	4	n/a	n/a	n/a	n/a	n/a
1666.018	n/a	PROB	833009	n/a	LTP074	ltpFR	7	n/a	n/a	n/a	n/a	n/a	n/a	n/a	20	6	8	6	n/a	n/a	n/a	n/a	n/a
1667.6	n/a	PROB	833800	n/a	LTP074	ltpFR	7	n/a	n/a	n/a	n/a	n/a	n/a	n/a	20	9	2	9	n/a	n/a	n/a	n/a	n/a
1669.218	n/a	PROB	834609	n/a	LTP074	ltpFR	7	n/a	n/a	n/a	n/a	n/a	n/a	n/a	16	7	3	6	n/a	n/a	n/a	n/a	n/a
1671.458	n/a	PROB	835729	n/a	LTP074	ltpFR	7	n/a	n/a	n/a	n/a	n/a	n/a	n/a	12	6	1	5	n/a	n/a	n/a	n/a	n/a
1677.926	n/a	STOP	838963	n/a	LTP074	ltpFR	7	n/a	n/a	n/a	n/a	n/a	n/a	n/a	n/a	n/a	n/a	n/a	n/a	n/a	n/a	n/a	n/a
1678.842	n/a	WORD	839421	wordpools/wasnorm_wordpool.txt	LTP074	ltpFR	7	6	0	BASKET	95	n/a	n/a	1	n/a	0	0	0	0.422607421875	0.5869140625	0	lower	zerothre.ttf
1681.852	n/a	START	840926	n/a	LTP074	ltpFR	7	n/a	n/a	n/a	n/a	n/a	n/a	n/a	n/a	n/a	n/a	n/a	n/a	n/a	n/a	n/a	n/a
1682.7	n/a	PROB	841350	n/a	LTP074	ltpFR	7	n/a	n/a	n/a	n/a	n/a	n/a	n/a	8	5	2	1	n/a	n/a	n/a	n/a	n/a
1684.126	n/a	PROB	842063	n/a	LTP074	ltpFR	7	n/a	n/a	n/a	n/a	n/a	n/a	n/a	17	4	4	9	n/a	n/a	n/a	n/a	n/a
1686.068	n/a	PROB	843034	n/a	LTP074	ltpFR	7	n/a	n/a	n/a	n/a	n/a	n/a	n/a	8	1	5	2	n/a	n/a	n/a	n/a	n/a
1687.668	n/a	PROB	843834	n/a	LTP074	ltpFR	7	n/a	n/a	n/a	n/a	n/a	n/a	n/a	15	3	9	3	n/a	n/a	n/a	n/a	n/a
1689.234	n/a	PROB	844617	n/a	LTP074	ltpFR	7	n/a	n/a	n/a	n/a	n/a	n/a	n/a	9	5	1	3	n/a	n/a	n/a	n/a	n/a
1690.476	n/a	PROB	845238	n/a	LTP074	ltpFR	7	n/a	n/a	n/a	n/a	n/a	n/a	n/a	18	9	1	8	n/a	n/a	n/a	n/a	n/a
1692.434	n/a	PROB	846217	n/a	LTP074	ltpFR	7	n/a	n/a	n/a	n/a	n/a	n/a	n/a	20	4	8	8	n/a	n/a	n/a	n/a	n/a
1694.242	n/a	PROB	847121	n/a	LTP074	ltpFR	7	n/a	n/a	n/a	n/a	n/a	n/a	n/a	13	7	1	5	n/a	n/a	n/a	n/a	n/a
1697.85	n/a	STOP	848925	n/a	LTP074	ltpFR	7	n/a	n/a	n/a	n/a	n/a	n/a	n/a	n/a	n/a	n/a	n/a	n/a	n/a	n/a	n/a	n/a
1698.682	n/a	WORD	849341	wordpools/wasnorm_wordpool.txt	LTP074	ltpFR	7	6	0	FEATHER	557	n/a	n/a	0	n/a	0	0	0	0.422607421875	0.5869140625	0	lower	zerothre.ttf
1701.684	n/a	START	850842	n/a	LTP074	ltpFR	7	n/a	n/a	n/a	n/a	n/a	n/a	n/a	n/a	n/a	n/a	n/a	n/a	n/a	n/a	n/a	n/a
1702.526	n/a	PROB	851263	n/a	LTP074	ltpFR	7	n/a	n/a	n/a	n/a	n/a	n/a	n/a	18	8	8	2	n/a	n/a	n/a	n/a	n/a
1703.984	n/a	PROB	851992	n/a	LTP074	ltpFR	7	n/a	n/a	n/a	n/a	n/a	n/a	n/a	22	9	4	9	n/a	n/a	n/a	n/a	n/a
1705.784	n/a	PROB	852892	n/a	LTP074	ltpFR	7	n/a	n/a	n/a	n/a	n/a	n/a	n/a	13	5	7	1	n/a	n/a	n/a	n/a	n/a
1707.666	n/a	PROB	853833	n/a	LTP074	ltpFR	7	n/a	n/a	n/a	n/a	n/a	n/a	n/a	14	4	6	4	n/a	n/a	n/a	n/a	n/a
1709.258	n/a	PROB	854629	n/a	LTP074	ltpFR	7	n/a	n/a	n/a	n/a	n/a	n/a	n/a	19	3	8	8	n/a	n/a	n/a	n/a	n/a
1711.066	n/a	PROB	855533	n/a	LTP074	ltpFR	7	n/a	n/a	n/a	n/a	n/a	n/a	n/a	22	9	8	5	n/a	n/a	n/a	n/a	n/a
1713.466	n/a	PROB	856733	n/a	LTP074	ltpFR	7	n/a	n/a	n/a	n/a	n/a	n/a	n/a	22	7	9	6	n/a	n/a	n/a	n/a	n/a
1715.918	n/a	PROB	857959	n/a	LTP074	ltpFR	7	n/a	n/a	n/a	n/a	n/a	n/a	n/a	8	4	1	1	n/a	n/a	n/a	n/a	n/a
1717.446	n/a	STOP	858723	n/a	LTP074	ltpFR	7	n/a	n/a	n/a	n/a	n/a	n/a	n/a	n/a	n/a	n/a	n/a	n/a	n/a	n/a	n/a	n/a
1718.84	n/a	WORD	859420	wordpools/wasnorm_wordpool.txt	LTP074	ltpFR	7	6	0	DOCTOR	478	n/a	n/a	1	n/a	0	0	0	0.422607421875	0.5869140625	0	lower	zerothre.ttf
1721.842	n/a	START	860921	n/a	LTP074	ltpFR	7	n/a	n/a	n/a	n/a	n/a	n/a	n/a	n/a	n/a	n/a	n/a	n/a	n/a	n/a	n/a	n/a
1722.96	n/a	PROB	861480	n/a	LTP074	ltpFR	7	n/a	n/a	n/a	n/a	n/a	n/a	n/a	20	8	6	6	n/a	n/a	n/a	n/a	n/a
1726.134	n/a	PROB	863067	n/a	LTP074	ltpFR	7	n/a	n/a	n/a	n/a	n/a	n/a	n/a	7	1	3	3	n/a	n/a	n/a	n/a	n/a
1727.458	n/a	PROB	863729	n/a	LTP074	ltpFR	7	n/a	n/a	n/a	n/a	n/a	n/a	n/a	13	2	9	2	n/a	n/a	n/a	n/a	n/a
1730.124	n/a	PROB	865062	n/a	LTP074	ltpFR	7	n/a	n/a	n/a	n/a	n/a	n/a	n/a	19	8	2	9	n/a	n/a	n/a	n/a	n/a
1732.69	n/a	PROB	866345	n/a	LTP074	ltpFR	7	n/a	n/a	n/a	n/a	n/a	n/a	n/a	13	4	1	8	n/a	n/a	n/a	n/a	n/a
1734.674	n/a	PROB	867337	n/a	LTP074	ltpFR	7	n/a	n/a	n/a	n/a	n/a	n/a	n/a	8	5	1	2	n/a	n/a	n/a	n/a	n/a
1737.842	n/a	STOP	868921	n/a	LTP074	ltpFR	7	n/a	n/a	n/a	n/a	n/a	n/a	n/a	n/a	n/a	n/a	n/a	n/a	n/a	n/a	n/a	n/a
1738.766	n/a	WORD	869383	wordpools/wasnorm_wordpool.txt	LTP074	ltpFR	7	6	0	PHYSICIAN	1056	n/a	n/a	1	n/a	0	0	0	0.422607421875	0.5869140625	0	lower	zerothre.ttf
1741.774	n/a	START	870887	n/a	LTP074	ltpFR	7	n/a	n/a	n/a	n/a	n/a	n/a	n/a	n/a	n/a	n/a	n/a	n/a	n/a	n/a	n/a	n/a
1742.642	n/a	PROB	871321	n/a	LTP074	ltpFR	7	n/a	n/a	n/a	n/a	n/a	n/a	n/a	10	4	1	5	n/a	n/a	n/a	n/a	n/a
1743.976	n/a	PROB	871988	n/a	LTP074	ltpFR	7	n/a	n/a	n/a	n/a	n/a	n/a	n/a	12	4	1	7	n/a	n/a	n/a	n/a	n/a
1746.308	n/a	PROB	873154	n/a	LTP074	ltpFR	7	n/a	n/a	n/a	n/a	n/a	n/a	n/a	23	9	6	8	n/a	n/a	n/a	n/a	n/a
1748.55	n/a	PROB	874275	n/a	LTP074	ltpFR	7	n/a	n/a	n/a	n/a	n/a	n/a	n/a	9	5	1	3	n/a	n/a	n/a	n/a	n/a
1750.058	n/a	PROB	875029	n/a	LTP074	ltpFR	7	n/a	n/a	n/a	n/a	n/a	n/a	n/a	14	4	9	1	n/a	n/a	n/a	n/a	n/a
1751.348	n/a	PROB	875674	n/a	LTP074	ltpFR	7	n/a	n/a	n/a	n/a	n/a	n/a	n/a	17	5	8	4	n/a	n/a	n/a	n/a	n/a
1752.992	n/a	PROB	876496	n/a	LTP074	ltpFR	7	n/a	n/a	n/a	n/a	n/a	n/a	n/a	6	1	3	2	n/a	n/a	n/a	n/a	n/a
1754.124	n/a	PROB	877062	n/a	LTP074	ltpFR	7	n/a	n/a	n/a	n/a	n/a	n/a	n/a	11	5	5	1	n/a	n/a	n/a	n/a	n/a
1755.116	n/a	PROB	877558	n/a	LTP074	ltpFR	7	n/a	n/a	n/a	n/a	n/a	n/a	n/a	12	7	1	3	n/a	n/a	n/a	n/a	n/a
1757.232	n/a	STOP	878616	n/a	LTP074	ltpFR	7	n/a	n/a	n/a	n/a	n/a	n/a	n/a	n/a	n/a	n/a	n/a	n/a	n/a	n/a	n/a	n/a
1758.774	n/a	WORD	879387	wordpools/wasnorm_wordpool.txt	LTP074	ltpFR	7	6	0	EAGLE	512	n/a	n/a	1	n/a	0	0	0	0.422607421875	0.5869140625	0	lower	zerothre.ttf
1761.782	n/a	START	880891	n/a	LTP074	ltpFR	7	n/a	n/a	n/a	n/a	n/a	n/a	n/a	n/a	n/a	n/a	n/a	n/a	n/a	n/a	n/a	n/a
1762.782	n/a	PROB	881391	n/a	LTP074	ltpFR	7	n/a	n/a	n/a	n/a	n/a	n/a	n/a	6	2	2	2	n/a	n/a	n/a	n/a	n/a
1763.908	n/a	PROB	881954	n/a	LTP074	ltpFR	7	n/a	n/a	n/a	n/a	n/a	n/a	n/a	19	5	6	8	n/a	n/a	n/a	n/a	n/a
1766.316	n/a	PROB	883158	n/a	LTP074	ltpFR	7	n/a	n/a	n/a	n/a	n/a	n/a	n/a	16	8	4	4	n/a	n/a	n/a	n/a	n/a
1768.942	n/a	PROB	884471	n/a	LTP074	ltpFR	7	n/a	n/a	n/a	n/a	n/a	n/a	n/a	19	8	5	6	n/a	n/a	n/a	n/a	n/a
1771.156	n/a	PROB	885578	n/a	LTP074	ltpFR	7	n/a	n/a	n/a	n/a	n/a	n/a	n/a	13	7	5	1	n/a	n/a	n/a	n/a	n/a
1773.882	n/a	PROB	886941	n/a	LTP074	ltpFR	7	n/a	n/a	n/a	n/a	n/a	n/a	n/a	10	6	2	2	n/a	n/a	n/a	n/a	n/a
1776.132	n/a	PROB	888066	n/a	LTP074	ltpFR	7	n/a	n/a	n/a	n/a	n/a	n/a	n/a	12	6	2	4	n/a	n/a	n/a	n/a	n/a
1777.424	n/a	STOP	888712	n/a	LTP074	ltpFR	7	n/a	n/a	n/a	n/a	n/a	n/a	n/a	n/a	n/a	n/a	n/a	n/a	n/a	n/a	n/a	n/a
1778.948	n/a	WORD	889474	wordpools/wasnorm_wordpool.txt	LTP074	ltpFR	7	6	0	KNOB	787	n/a	n/a	0	n/a	0	0	0	0.422607421875	0.5869140625	0	lower	zerothre.ttf
1781.958	n/a	START	890979	n/a	LTP074	ltpFR	7	n/a	n/a	n/a	n/a	n/a	n/a	n/a	n/a	n/a	n/a	n/a	n/a	n/a	n/a	n/a	n/a
1782.806	n/a	PROB	891403	n/a	LTP074	ltpFR	7	n/a	n/a	n/a	n/a	n/a	n/a	n/a	16	6	5	5	n/a	n/a	n/a	n/a	n/a
1784.732	n/a	PROB	892366	n/a	LTP074	ltpFR	7	n/a	n/a	n/a	n/a	n/a	n/a	n/a	18	8	3	7	n/a	n/a	n/a	n/a	n/a
1786.174	n/a	PROB	893087	n/a	LTP074	ltpFR	7	n/a	n/a	n/a	n/a	n/a	n/a	n/a	16	2	8	6	n/a	n/a	n/a	n/a	n/a
1788.274	n/a	PROB	894137	n/a	LTP074	ltpFR	7	n/a	n/a	n/a	n/a	n/a	n/a	n/a	15	6	3	8	n/a	n/a	n/a	n/a	n/a
1792.248	n/a	PROB	896124	n/a	LTP074	ltpFR	7	n/a	n/a	n/a	n/a	n/a	n/a	n/a	11	1	7	3	n/a	n/a	n/a	n/a	n/a
1794.872	n/a	PROB	897436	n/a	LTP074	ltpFR	7	n/a	n/a	n/a	n/a	n/a	n/a	n/a	15	7	2	6	n/a	n/a	n/a	n/a	n/a
1797.538	n/a	STOP	898769	n/a	LTP074	ltpFR	7	n/a	n/a	n/a	n/a	n/a	n/a	n/a	n/a	n/a	n/a	n/a	n/a	n/a	n/a	n/a	n/a
1799.756	n/a	REC_START	899878	n/a	LTP074	ltpFR	7	6	n/a	n/a	n/a	n/a	n/a	n/a	n/a	0	0	0	n/a	n/a	n/a	n/a	n/a
1801.588	n/a	REC_WORD	900794	wordpools/wasnorm_wordpool.txt	LTP074	ltpFR	7	6	0	KNOB	787	n/a	n/a	0	n/a	0	0	0	n/a	n/a	n/a	n/a	n/a
1803.068	n/a	REC_WORD	901534	wordpools/wasnorm_wordpool.txt	LTP074	ltpFR	7	6	0	PIN	1072	n/a	n/a	0	n/a	0	0	0	n/a	n/a	n/a	n/a	n/a
1803.762	n/a	REC_WORD	901881	wordpools/wasnorm_wordpool.txt	LTP074	ltpFR	7	6	0	EDITOR	516	n/a	n/a	1	n/a	0	0	0	n/a	n/a	n/a	n/a	n/a
1804.744	n/a	REC_WORD	902372	wordpools/wasnorm_wordpool.txt	LTP074	ltpFR	7	6	0	FEATHER	557	n/a	n/a	0	n/a	0	0	0	n/a	n/a	n/a	n/a	n/a
1805.434	n/a	REC_WORD	902717	wordpools/wasnorm_wordpool.txt	LTP074	ltpFR	7	6	0	EAGLE	512	n/a	n/a	1	n/a	0	0	0	n/a	n/a	n/a	n/a	n/a
1807.424	n/a	REC_WORD	903712	wordpools/wasnorm_wordpool.txt	LTP074	ltpFR	7	6	0	DOCTOR	478	n/a	n/a	1	n/a	0	0	0	n/a	n/a	n/a	n/a	n/a
1807.884	n/a	REC_WORD	903942	wordpools/wasnorm_wordpool.txt	LTP074	ltpFR	7	6	0	PHYSICIAN	1056	n/a	n/a	1	n/a	0	0	0	n/a	n/a	n/a	n/a	n/a
1810.234	n/a	REC_WORD	905117	wordpools/wasnorm_wordpool.txt	LTP074	ltpFR	7	6	0	SCHOOL	1248	n/a	n/a	1	n/a	0	0	0	n/a	n/a	n/a	n/a	n/a
1811.008	n/a	REC_WORD	905504	wordpools/wasnorm_wordpool.txt	LTP074	ltpFR	7	6	0	COMMUNITY	356	n/a	n/a	1	n/a	0	0	0	n/a	n/a	n/a	n/a	n/a
1811.824	n/a	REC_WORD	905912	wordpools/wasnorm_wordpool.txt	LTP074	ltpFR	7	6	0	SHORTCAKE	1292	n/a	n/a	0	n/a	0	0	0	n/a	n/a	n/a	n/a	n/a
1823.762	n/a	REC_WORD	911881	wordpools/wasnorm_wordpool.txt	LTP074	ltpFR	7	6	0	BASKET	95	n/a	n/a	1	n/a	0	0	0	n/a	n/a	n/a	n/a	n/a
1883.604	n/a	WORD	941802	wordpools/wasnorm_wordpool.txt	LTP074	ltpFR	7	7	1	ALLIGATOR	16	n/a	n/a	1	n/a	0	0	0	0.57763671875	0.412841796875	1	upper	amplitud.ttf
1887.454	n/a	WORD	943727	wordpools/wasnorm_wordpool.txt	LTP074	ltpFR	7	7	1	POLE	1097	n/a	n/a	0	n/a	0	0	0	0.57763671875	0.412841796875	1	upper	amplitud.ttf
1891.28	n/a	WORD	945640	wordpools/wasnorm_wordpool.txt	LTP074	ltpFR	7	7	1	WALRUS	1585	n/a	n/a	1	n/a	0	0	0	0.57763671875	0.412841796875	1	upper	amplitud.ttf
1895.288	n/a	WORD	947644	wordpools/wasnorm_wordpool.txt	LTP074	ltpFR	7	7	1	TERMINAL	1450	n/a	n/a	0	n/a	0	0	0	0.57763671875	0.412841796875	1	upper	amplitud.ttf
1899.446	n/a	WORD	949723	wordpools/wasnorm_wordpool.txt	LTP074	ltpFR	7	7	1	RAM	1165	n/a	n/a	1	n/a	0	0	0	0.57763671875	0.412841796875	1	upper	amplitud.ttf
1903.628	n/a	WORD	951814	wordpools/wasnorm_wordpool.txt	LTP074	ltpFR	7	7	1	TWINE	1529	n/a	n/a	0	n/a	0	0	0	0.57763671875	0.412841796875	1	upper	amplitud.ttf
1907.512	n/a	WORD	953756	wordpools/wasnorm_wordpool.txt	LTP074	ltpFR	7	7	1	ICE	730	n/a	n/a	0	n/a	0	0	0	0.57763671875	0.412841796875	1	upper	amplitud.ttf
1911.536	n/a	WORD	955768	wordpools/wasnorm_wordpool.txt	LTP074	ltpFR	7	7	1	CREATURE	403	n/a	n/a	1	n/a	0	0	0	0.57763671875	0.412841796875	1	upper	amplitud.ttf
1915.628	n/a	WORD	957814	wordpools/wasnorm_wordpool.txt	LTP074	ltpFR	7	7	1	VET	1560	n/a	n/a	1	n/a	0	0	0	0.57763671875	0.412841796875	1	upper	amplitud.ttf
1919.504	n/a	WORD	959752	wordpools/wasnorm_wordpool.txt	LTP074	ltpFR	7	7	1	ATMOSPHERE	54	n/a	n/a	0	n/a	0	0	0	0.57763671875	0.412841796875	1	upper	amplitud.ttf
1923.612	n/a	WORD	961806	wordpools/wasnorm_wordpool.txt	LTP074	ltpFR	7	7	1	GALAXY	617	n/a	n/a	0	n/a	0	0	0	0.57763671875	0.412841796875	1	upper	amplitud.ttf
1927.728	n/a	WORD	963864	wordpools/wasnorm_wordpool.txt	LTP074	ltpFR	7	7	1	SAILOR	1223	n/a	n/a	1	n/a	0	0	0	0.57763671875	0.412841796875	1	upper	amplitud.ttf
1931.894	n/a	WORD	965947	wordpools/wasnorm_wordpool.txt	LTP074	ltpFR	7	7	1	ANCHOR	21	n/a	n/a	0	n/a	0	0	0	0.57763671875	0.412841796875	1	upper	amplitud.ttf
1936.062	n/a	WORD	968031	wordpools/wasnorm_wordpool.txt	LTP074	ltpFR	7	7	1	BANNER	85	n/a	n/a	0	n/a	0	0	0	0.57763671875	0.412841796875	1	upper	amplitud.ttf
1939.878	n/a	WORD	969939	wordpools/wasnorm_wordpool.txt	LTP074	ltpFR	7	7	1	ELBOW	520	n/a	n/a	0	n/a	0	0	0	0.57763671875	0.412841796875	1	upper	amplitud.ttf
1943.76	n/a	WORD	971880	wordpools/wasnorm_wordpool.txt	LTP074	ltpFR	7	7	1	SEAL	1262	n/a	n/a	1	n/a	0	0	0	0.57763671875	0.412841796875	1	upper	amplitud.ttf
1946.768	n/a	START	973384	n/a	LTP074	ltpFR	7	n/a	n/a	n/a	n/a	n/a	n/a	n/a	n/a	n/a	n/a	n/a	n/a	n/a	n/a	n/a	n/a
1947.894	n/a	PROB	973947	n/a	LTP074	ltpFR	7	n/a	n/a	n/a	n/a	n/a	n/a	n/a	19	5	5	9	n/a	n/a	n/a	n/a	n/a
1949.802	n/a	PROB	974901	n/a	LTP074	ltpFR	7	n/a	n/a	n/a	n/a	n/a	n/a	n/a	22	9	8	5	n/a	n/a	n/a	n/a	n/a
1952.276	n/a	PROB	976138	n/a	LTP074	ltpFR	7	n/a	n/a	n/a	n/a	n/a	n/a	n/a	17	7	4	6	n/a	n/a	n/a	n/a	n/a
1953.778	n/a	PROB	976889	n/a	LTP074	ltpFR	7	n/a	n/a	n/a	n/a	n/a	n/a	n/a	22	7	6	9	n/a	n/a	n/a	n/a	n/a
1955.886	n/a	PROB	977943	n/a	LTP074	ltpFR	7	n/a	n/a	n/a	n/a	n/a	n/a	n/a	12	4	2	6	n/a	n/a	n/a	n/a	n/a
1957.744	n/a	PROB	978872	n/a	LTP074	ltpFR	7	n/a	n/a	n/a	n/a	n/a	n/a	n/a	13	5	5	3	n/a	n/a	n/a	n/a	n/a
1959.036	n/a	PROB	979518	n/a	LTP074	ltpFR	7	n/a	n/a	n/a	n/a	n/a	n/a	n/a	18	8	8	2	n/a	n/a	n/a	n/a	n/a
1960.328	n/a	PROB	980164	n/a	LTP074	ltpFR	7	n/a	n/a	n/a	n/a	n/a	n/a	n/a	15	4	3	8	n/a	n/a	n/a	n/a	n/a
1962.114	n/a	STOP	981057	n/a	LTP074	ltpFR	7	n/a	n/a	n/a	n/a	n/a	n/a	n/a	n/a	n/a	n/a	n/a	n/a	n/a	n/a	n/a	n/a
1964.544	n/a	REC_START	982272	n/a	LTP074	ltpFR	7	7	n/a	n/a	n/a	n/a	n/a	n/a	n/a	0	0	0	n/a	n/a	n/a	n/a	n/a
1967.358	n/a	REC_WORD	983679	wordpools/wasnorm_wordpool.txt	LTP074	ltpFR	7	7	1	ELBOW	520	n/a	n/a	0	n/a	0	0	0	n/a	n/a	n/a	n/a	n/a
1968.26	n/a	REC_WORD	984130	wordpools/wasnorm_wordpool.txt	LTP074	ltpFR	7	7	1	ANCHOR	21	n/a	n/a	0	n/a	0	0	0	n/a	n/a	n/a	n/a	n/a
1968.99	n/a	REC_WORD	984495	wordpools/wasnorm_wordpool.txt	LTP074	ltpFR	7	7	1	BANNER	85	n/a	n/a	0	n/a	0	0	0	n/a	n/a	n/a	n/a	n/a
1969.452	n/a	REC_WORD	984726	wordpools/wasnorm_wordpool.txt	LTP074	ltpFR	7	7	1	SEAL	1262	n/a	n/a	1	n/a	0	0	0	n/a	n/a	n/a	n/a	n/a
1971.678	n/a	REC_WORD	985839	wordpools/wasnorm_wordpool.txt	LTP074	ltpFR	7	7	1	SAILOR	1223	n/a	n/a	1	n/a	0	0	0	n/a	n/a	n/a	n/a	n/a
1972.558	n/a	REC_WORD	986279	wordpools/wasnorm_wordpool.txt	LTP074	ltpFR	7	7	1	ATMOSPHERE	54	n/a	n/a	0	n/a	0	0	0	n/a	n/a	n/a	n/a	n/a
1973.29	n/a	REC_WORD	986645	wordpools/wasnorm_wordpool.txt	LTP074	ltpFR	7	7	1	GALAXY	617	n/a	n/a	0	n/a	0	0	0	n/a	n/a	n/a	n/a	n/a
1975.82	n/a	REC_WORD	987910	wordpools/wasnorm_wordpool.txt	LTP074	ltpFR	7	7	1	ICE	730	n/a	n/a	0	n/a	0	0	0	n/a	n/a	n/a	n/a	n/a
1976.294	n/a	REC_WORD	988147	wordpools/wasnorm_wordpool.txt	LTP074	ltpFR	7	7	1	CREATURE	403	n/a	n/a	1	n/a	0	0	0	n/a	n/a	n/a	n/a	n/a
1976.87	n/a	REC_WORD	988435	wordpools/wasnorm_wordpool.txt	LTP074	ltpFR	7	7	1	VET	1560	n/a	n/a	1	n/a	0	0	0	n/a	n/a	n/a	n/a	n/a
1985.608	n/a	REC_WORD	992804	wordpools/wasnorm_wordpool.txt	LTP074	ltpFR	7	7	1	RAM	1165	n/a	n/a	1	n/a	0	0	0	n/a	n/a	n/a	n/a	n/a
1986.208	n/a	REC_WORD	993104	wordpools/wasnorm_wordpool.txt	LTP074	ltpFR	7	7	1	TERMINAL	1450	n/a	n/a	0	n/a	0	0	0	n/a	n/a	n/a	n/a	n/a
1986.76	n/a	REC_WORD	993380	wordpools/wasnorm_wordpool.txt	LTP074	ltpFR	7	7	1	TWINE	1529	n/a	n/a	0	n/a	0	0	0	n/a	n/a	n/a	n/a	n/a
1988.106	n/a	REC_WORD	994053	wordpools/wasnorm_wordpool.txt	LTP074	ltpFR	7	7	1	ALLIGATOR	16	n/a	n/a	1	n/a	0	0	0	n/a	n/a	n/a	n/a	n/a
1988.886	n/a	REC_WORD	994443	wordpools/wasnorm_wordpool.txt	LTP074	ltpFR	7	7	1	POLE	1097	n/a	n/a	0	n/a	0	0	0	n/a	n/a	n/a	n/a	n/a
1989.496	n/a	REC_WORD	994748	wordpools/wasnorm_wordpool.txt	LTP074	ltpFR	7	7	1	WALRUS	1585	n/a	n/a	1	n/a	0	0	0	n/a	n/a	n/a	n/a	n/a
2062.8	n/a	START	1031400	n/a	LTP074	ltpFR	7	n/a	n/a	n/a	n/a	n/a	n/a	n/a	n/a	n/a	n/a	n/a	n/a	n/a	n/a	n/a	n/a
2064.308	n/a	PROB	1032154	n/a	LTP074	ltpFR	7	n/a	n/a	n/a	n/a	n/a	n/a	n/a	13	6	6	1	n/a	n/a	n/a	n/a	n/a
2065.65	n/a	PROB	1032825	n/a	LTP074	ltpFR	7	n/a	n/a	n/a	n/a	n/a	n/a	n/a	22	7	9	6	n/a	n/a	n/a	n/a	n/a
2067.616	n/a	PROB	1033808	n/a	LTP074	ltpFR	7	n/a	n/a	n/a	n/a	n/a	n/a	n/a	18	2	7	9	n/a	n/a	n/a	n/a	n/a
2069.358	n/a	STOP	1034679	n/a	LTP074	ltpFR	7	n/a	n/a	n/a	n/a	n/a	n/a	n/a	n/a	n/a	n/a	n/a	n/a	n/a	n/a	n/a	n/a
2071.774	n/a	WORD	1035887	wordpools/wasnorm_wordpool.txt	LTP074	ltpFR	7	8	0	TWISTER	1530	n/a	n/a	1	n/a	0	0	0	0.422607421875	0.5869140625	0	lower	zerothre.ttf
2074.782	n/a	START	1037391	n/a	LTP074	ltpFR	7	n/a	n/a	n/a	n/a	n/a	n/a	n/a	n/a	n/a	n/a	n/a	n/a	n/a	n/a	n/a	n/a
2075.74	n/a	PROB	1037870	n/a	LTP074	ltpFR	7	n/a	n/a	n/a	n/a	n/a	n/a	n/a	12	8	3	1	n/a	n/a	n/a	n/a	n/a
2078.274	n/a	PROB	1039137	n/a	LTP074	ltpFR	7	n/a	n/a	n/a	n/a	n/a	n/a	n/a	25	8	9	8	n/a	n/a	n/a	n/a	n/a
2080.174	n/a	PROB	1040087	n/a	LTP074	ltpFR	7	n/a	n/a	n/a	n/a	n/a	n/a	n/a	9	4	2	3	n/a	n/a	n/a	n/a	n/a
2081.896	n/a	STOP	1040948	n/a	LTP074	ltpFR	7	n/a	n/a	n/a	n/a	n/a	n/a	n/a	n/a	n/a	n/a	n/a	n/a	n/a	n/a	n/a	n/a
2083.984	n/a	WORD	1041992	wordpools/wasnorm_wordpool.txt	LTP074	ltpFR	7	8	0	WAGON	1578	n/a	n/a	1	n/a	0	0	0	0.422607421875	0.5869140625	0	lower	zerothre.ttf
2086.992	n/a	START	1043496	n/a	LTP074	ltpFR	7	n/a	n/a	n/a	n/a	n/a	n/a	n/a	n/a	n/a	n/a	n/a	n/a	n/a	n/a	n/a	n/a
2087.992	n/a	PROB	1043996	n/a	LTP074	ltpFR	7	n/a	n/a	n/a	n/a	n/a	n/a	n/a	19	7	4	8	n/a	n/a	n/a	n/a	n/a
2089.934	n/a	PROB	1044967	n/a	LTP074	ltpFR	7	n/a	n/a	n/a	n/a	n/a	n/a	n/a	22	9	6	7	n/a	n/a	n/a	n/a	n/a
2091.574	n/a	PROB	1045787	n/a	LTP074	ltpFR	7	n/a	n/a	n/a	n/a	n/a	n/a	n/a	14	3	7	4	n/a	n/a	n/a	n/a	n/a
2094.992	n/a	STOP	1047496	n/a	LTP074	ltpFR	7	n/a	n/a	n/a	n/a	n/a	n/a	n/a	n/a	n/a	n/a	n/a	n/a	n/a	n/a	n/a	n/a
2096.174	n/a	WORD	1048087	wordpools/wasnorm_wordpool.txt	LTP074	ltpFR	7	8	0	RANCH	1166	n/a	n/a	1	n/a	0	0	0	0.422607421875	0.5869140625	0	lower	zerothre.ttf
2099.182	n/a	START	1049591	n/a	LTP074	ltpFR	7	n/a	n/a	n/a	n/a	n/a	n/a	n/a	n/a	n/a	n/a	n/a	n/a	n/a	n/a	n/a	n/a
2100.332	n/a	PROB	1050166	n/a	LTP074	ltpFR	7	n/a	n/a	n/a	n/a	n/a	n/a	n/a	13	8	4	1	n/a	n/a	n/a	n/a	n/a
2102.008	n/a	PROB	1051004	n/a	LTP074	ltpFR	7	n/a	n/a	n/a	n/a	n/a	n/a	n/a	19	9	8	2	n/a	n/a	n/a	n/a	n/a
2103.566	n/a	PROB	1051783	n/a	LTP074	ltpFR	7	n/a	n/a	n/a	n/a	n/a	n/a	n/a	12	8	1	3	n/a	n/a	n/a	n/a	n/a
2106.136	n/a	STOP	1053068	n/a	LTP074	ltpFR	7	n/a	n/a	n/a	n/a	n/a	n/a	n/a	n/a	n/a	n/a	n/a	n/a	n/a	n/a	n/a	n/a
2108.34	n/a	WORD	1054170	wordpools/wasnorm_wordpool.txt	LTP074	ltpFR	7	8	0	CYLINDER	432	n/a	n/a	0	n/a	0	0	0	0.422607421875	0.5869140625	0	lower	zerothre.ttf
2111.348	n/a	START	1055674	n/a	LTP074	ltpFR	7	n/a	n/a	n/a	n/a	n/a	n/a	n/a	n/a	n/a	n/a	n/a	n/a	n/a	n/a	n/a	n/a
2112.474	n/a	PROB	1056237	n/a	LTP074	ltpFR	7	n/a	n/a	n/a	n/a	n/a	n/a	n/a	15	4	7	4	n/a	n/a	n/a	n/a	n/a
2115.306	n/a	PROB	1057653	n/a	LTP074	ltpFR	7	n/a	n/a	n/a	n/a	n/a	n/a	n/a	13	1	9	3	n/a	n/a	n/a	n/a	n/a
2116.606	n/a	PROB	1058303	n/a	LTP074	ltpFR	7	n/a	n/a	n/a	n/a	n/a	n/a	n/a	12	5	3	4	n/a	n/a	n/a	n/a	n/a
2118.28	n/a	STOP	1059140	n/a	LTP074	ltpFR	7	n/a	n/a	n/a	n/a	n/a	n/a	n/a	n/a	n/a	n/a	n/a	n/a	n/a	n/a	n/a	n/a
2120.498	n/a	WORD	1060249	wordpools/wasnorm_wordpool.txt	LTP074	ltpFR	7	8	0	BUS	201	n/a	n/a	1	n/a	0	0	0	0.422607421875	0.5869140625	0	lower	zerothre.ttf
2123.508	n/a	START	1061754	n/a	LTP074	ltpFR	7	n/a	n/a	n/a	n/a	n/a	n/a	n/a	n/a	n/a	n/a	n/a	n/a	n/a	n/a	n/a	n/a
2124.59	n/a	PROB	1062295	n/a	LTP074	ltpFR	7	n/a	n/a	n/a	n/a	n/a	n/a	n/a	6	1	2	3	n/a	n/a	n/a	n/a	n/a
2125.648	n/a	PROB	1062824	n/a	LTP074	ltpFR	7	n/a	n/a	n/a	n/a	n/a	n/a	n/a	23	6	8	9	n/a	n/a	n/a	n/a	n/a
2127.948	n/a	PROB	1063974	n/a	LTP074	ltpFR	7	n/a	n/a	n/a	n/a	n/a	n/a	n/a	15	1	9	5	n/a	n/a	n/a	n/a	n/a
2131.506	n/a	STOP	1065753	n/a	LTP074	ltpFR	7	n/a	n/a	n/a	n/a	n/a	n/a	n/a	n/a	n/a	n/a	n/a	n/a	n/a	n/a	n/a	n/a
2132.73	n/a	WORD	1066365	wordpools/wasnorm_wordpool.txt	LTP074	ltpFR	7	8	0	TOURIST	1488	n/a	n/a	1	n/a	0	0	0	0.422607421875	0.5869140625	0	lower	zerothre.ttf
2135.732	n/a	START	1067866	n/a	LTP074	ltpFR	7	n/a	n/a	n/a	n/a	n/a	n/a	n/a	n/a	n/a	n/a	n/a	n/a	n/a	n/a	n/a	n/a
2136.614	n/a	PROB	1068307	n/a	LTP074	ltpFR	7	n/a	n/a	n/a	n/a	n/a	n/a	n/a	17	5	7	5	n/a	n/a	n/a	n/a	n/a
2137.83	n/a	PROB	1068915	n/a	LTP074	ltpFR	7	n/a	n/a	n/a	n/a	n/a	n/a	n/a	9	4	1	4	n/a	n/a	n/a	n/a	n/a
2138.888	n/a	PROB	1069444	n/a	LTP074	ltpFR	7	n/a	n/a	n/a	n/a	n/a	n/a	n/a	17	9	1	7	n/a	n/a	n/a	n/a	n/a
2140.588	n/a	PROB	1070294	n/a	LTP074	ltpFR	7	n/a	n/a	n/a	n/a	n/a	n/a	n/a	10	6	1	3	n/a	n/a	n/a	n/a	n/a
2143.732	n/a	STOP	1071866	n/a	LTP074	ltpFR	7	n/a	n/a	n/a	n/a	n/a	n/a	n/a	n/a	n/a	n/a	n/a	n/a	n/a	n/a	n/a	n/a
2144.548	n/a	WORD	1072274	wordpools/wasnorm_wordpool.txt	LTP074	ltpFR	7	8	0	COMPASS	358	n/a	n/a	0	n/a	0	0	0	0.422607421875	0.5869140625	0	lower	zerothre.ttf
2147.556	n/a	START	1073778	n/a	LTP074	ltpFR	7	n/a	n/a	n/a	n/a	n/a	n/a	n/a	n/a	n/a	n/a	n/a	n/a	n/a	n/a	n/a	n/a
2148.614	n/a	PROB	1074307	n/a	LTP074	ltpFR	7	n/a	n/a	n/a	n/a	n/a	n/a	n/a	13	1	5	7	n/a	n/a	n/a	n/a	n/a
2151.622	n/a	PROB	1075811	n/a	LTP074	ltpFR	7	n/a	n/a	n/a	n/a	n/a	n/a	n/a	18	5	6	7	n/a	n/a	n/a	n/a	n/a
2153.348	n/a	PROB	1076674	n/a	LTP074	ltpFR	7	n/a	n/a	n/a	n/a	n/a	n/a	n/a	24	9	9	6	n/a	n/a	n/a	n/a	n/a
2154.706	n/a	STOP	1077353	n/a	LTP074	ltpFR	7	n/a	n/a	n/a	n/a	n/a	n/a	n/a	n/a	n/a	n/a	n/a	n/a	n/a	n/a	n/a	n/a
2156.496	n/a	WORD	1078248	wordpools/wasnorm_wordpool.txt	LTP074	ltpFR	7	8	0	MUG	930	n/a	n/a	0	n/a	0	0	0	0.422607421875	0.5869140625	0	lower	zerothre.ttf
2159.506	n/a	START	1079753	n/a	LTP074	ltpFR	7	n/a	n/a	n/a	n/a	n/a	n/a	n/a	n/a	n/a	n/a	n/a	n/a	n/a	n/a	n/a	n/a
2160.638	n/a	PROB	1080319	n/a	LTP074	ltpFR	7	n/a	n/a	n/a	n/a	n/a	n/a	n/a	16	6	6	4	n/a	n/a	n/a	n/a	n/a
2162.388	n/a	PROB	1081194	n/a	LTP074	ltpFR	7	n/a	n/a	n/a	n/a	n/a	n/a	n/a	14	7	4	3	n/a	n/a	n/a	n/a	n/a
2163.98	n/a	PROB	1081990	n/a	LTP074	ltpFR	7	n/a	n/a	n/a	n/a	n/a	n/a	n/a	7	5	1	1	n/a	n/a	n/a	n/a	n/a
2166.412	n/a	STOP	1083206	n/a	LTP074	ltpFR	7	n/a	n/a	n/a	n/a	n/a	n/a	n/a	n/a	n/a	n/a	n/a	n/a	n/a	n/a	n/a	n/a
2168.53	n/a	WORD	1084265	wordpools/wasnorm_wordpool.txt	LTP074	ltpFR	7	8	0	JUGGLER	763	n/a	n/a	1	n/a	0	0	0	0.422607421875	0.5869140625	0	lower	zerothre.ttf
2171.538	n/a	START	1085769	n/a	LTP074	ltpFR	7	n/a	n/a	n/a	n/a	n/a	n/a	n/a	n/a	n/a	n/a	n/a	n/a	n/a	n/a	n/a	n/a
2172.688	n/a	PROB	1086344	n/a	LTP074	ltpFR	7	n/a	n/a	n/a	n/a	n/a	n/a	n/a	8	1	3	4	n/a	n/a	n/a	n/a	n/a
2173.94	n/a	PROB	1086970	n/a	LTP074	ltpFR	7	n/a	n/a	n/a	n/a	n/a	n/a	n/a	12	8	2	2	n/a	n/a	n/a	n/a	n/a
2175.064	n/a	PROB	1087532	n/a	LTP074	ltpFR	7	n/a	n/a	n/a	n/a	n/a	n/a	n/a	15	3	3	9	n/a	n/a	n/a	n/a	n/a
2176.472	n/a	PROB	1088236	n/a	LTP074	ltpFR	7	n/a	n/a	n/a	n/a	n/a	n/a	n/a	11	5	3	3	n/a	n/a	n/a	n/a	n/a
2177.822	n/a	PROB	1088911	n/a	LTP074	ltpFR	7	n/a	n/a	n/a	n/a	n/a	n/a	n/a	8	5	3	1	n/a	n/a	n/a	n/a	n/a
2178.804	n/a	STOP	1089402	n/a	LTP074	ltpFR	7	n/a	n/a	n/a	n/a	n/a	n/a	n/a	n/a	n/a	n/a	n/a	n/a	n/a	n/a	n/a	n/a
2180.696	n/a	WORD	1090348	wordpools/wasnorm_wordpool.txt	LTP074	ltpFR	7	8	0	ACROBAT	4	n/a	n/a	1	n/a	0	0	0	0.422607421875	0.5869140625	0	lower	zerothre.ttf
2183.704	n/a	START	1091852	n/a	LTP074	ltpFR	7	n/a	n/a	n/a	n/a	n/a	n/a	n/a	n/a	n/a	n/a	n/a	n/a	n/a	n/a	n/a	n/a
2184.796	n/a	PROB	1092398	n/a	LTP074	ltpFR	7	n/a	n/a	n/a	n/a	n/a	n/a	n/a	18	8	4	6	n/a	n/a	n/a	n/a	n/a
2186.256	n/a	PROB	1093128	n/a	LTP074	ltpFR	7	n/a	n/a	n/a	n/a	n/a	n/a	n/a	14	5	6	3	n/a	n/a	n/a	n/a	n/a
2187.73	n/a	PROB	1093865	n/a	LTP074	ltpFR	7	n/a	n/a	n/a	n/a	n/a	n/a	n/a	24	8	9	7	n/a	n/a	n/a	n/a	n/a
2190.412	n/a	STOP	1095206	n/a	LTP074	ltpFR	7	n/a	n/a	n/a	n/a	n/a	n/a	n/a	n/a	n/a	n/a	n/a	n/a	n/a	n/a	n/a	n/a
2192.662	n/a	WORD	1096331	wordpools/wasnorm_wordpool.txt	LTP074	ltpFR	7	8	0	BOYFRIEND	162	n/a	n/a	1	n/a	0	0	0	0.422607421875	0.5869140625	0	lower	zerothre.ttf
2195.664	n/a	START	1097832	n/a	LTP074	ltpFR	7	n/a	n/a	n/a	n/a	n/a	n/a	n/a	n/a	n/a	n/a	n/a	n/a	n/a	n/a	n/a	n/a
2196.538	n/a	PROB	1098269	n/a	LTP074	ltpFR	7	n/a	n/a	n/a	n/a	n/a	n/a	n/a	13	8	1	4	n/a	n/a	n/a	n/a	n/a
2198.638	n/a	PROB	1099319	n/a	LTP074	ltpFR	7	n/a	n/a	n/a	n/a	n/a	n/a	n/a	16	9	2	5	n/a	n/a	n/a	n/a	n/a
2200.52	n/a	PROB	1100260	n/a	LTP074	ltpFR	7	n/a	n/a	n/a	n/a	n/a	n/a	n/a	16	3	8	5	n/a	n/a	n/a	n/a	n/a
2202.332	n/a	STOP	1101166	n/a	LTP074	ltpFR	7	n/a	n/a	n/a	n/a	n/a	n/a	n/a	n/a	n/a	n/a	n/a	n/a	n/a	n/a	n/a	n/a
2204.828	n/a	WORD	1102414	wordpools/wasnorm_wordpool.txt	LTP074	ltpFR	7	8	0	VEST	1559	n/a	n/a	0	n/a	0	0	0	0.422607421875	0.5869140625	0	lower	zerothre.ttf
2207.838	n/a	START	1103919	n/a	LTP074	ltpFR	7	n/a	n/a	n/a	n/a	n/a	n/a	n/a	n/a	n/a	n/a	n/a	n/a	n/a	n/a	n/a	n/a
2208.988	n/a	PROB	1104494	n/a	LTP074	ltpFR	7	n/a	n/a	n/a	n/a	n/a	n/a	n/a	14	6	6	2	n/a	n/a	n/a	n/a	n/a
2210.52	n/a	PROB	1105260	n/a	LTP074	ltpFR	7	n/a	n/a	n/a	n/a	n/a	n/a	n/a	19	5	9	5	n/a	n/a	n/a	n/a	n/a
2212.196	n/a	PROB	1106098	n/a	LTP074	ltpFR	7	n/a	n/a	n/a	n/a	n/a	n/a	n/a	11	7	2	2	n/a	n/a	n/a	n/a	n/a
2213.996	n/a	PROB	1106998	n/a	LTP074	ltpFR	7	n/a	n/a	n/a	n/a	n/a	n/a	n/a	13	2	3	8	n/a	n/a	n/a	n/a	n/a
2215.43	n/a	STOP	1107715	n/a	LTP074	ltpFR	7	n/a	n/a	n/a	n/a	n/a	n/a	n/a	n/a	n/a	n/a	n/a	n/a	n/a	n/a	n/a	n/a
2216.662	n/a	WORD	1108331	wordpools/wasnorm_wordpool.txt	LTP074	ltpFR	7	8	0	ESSAY	540	n/a	n/a	0	n/a	0	0	0	0.422607421875	0.5869140625	0	lower	zerothre.ttf
2219.67	n/a	START	1109835	n/a	LTP074	ltpFR	7	n/a	n/a	n/a	n/a	n/a	n/a	n/a	n/a	n/a	n/a	n/a	n/a	n/a	n/a	n/a	n/a
2220.478	n/a	PROB	1110239	n/a	LTP074	ltpFR	7	n/a	n/a	n/a	n/a	n/a	n/a	n/a	11	6	2	3	n/a	n/a	n/a	n/a	n/a
2221.786	n/a	PROB	1110893	n/a	LTP074	ltpFR	7	n/a	n/a	n/a	n/a	n/a	n/a	n/a	19	6	8	5	n/a	n/a	n/a	n/a	n/a
2223.786	n/a	PROB	1111893	n/a	LTP074	ltpFR	7	n/a	n/a	n/a	n/a	n/a	n/a	n/a	15	8	5	2	n/a	n/a	n/a	n/a	n/a
2225.17	n/a	PROB	1112585	n/a	LTP074	ltpFR	7	n/a	n/a	n/a	n/a	n/a	n/a	n/a	16	6	8	2	n/a	n/a	n/a	n/a	n/a
2226.678	n/a	STOP	1113339	n/a	LTP074	ltpFR	7	n/a	n/a	n/a	n/a	n/a	n/a	n/a	n/a	n/a	n/a	n/a	n/a	n/a	n/a	n/a	n/a
2228.562	n/a	WORD	1114281	wordpools/wasnorm_wordpool.txt	LTP074	ltpFR	7	8	0	COMPANION	357	n/a	n/a	1	n/a	0	0	0	0.422607421875	0.5869140625	0	lower	zerothre.ttf
2231.57	n/a	START	1115785	n/a	LTP074	ltpFR	7	n/a	n/a	n/a	n/a	n/a	n/a	n/a	n/a	n/a	n/a	n/a	n/a	n/a	n/a	n/a	n/a
2232.412	n/a	PROB	1116206	n/a	LTP074	ltpFR	7	n/a	n/a	n/a	n/a	n/a	n/a	n/a	9	1	4	4	n/a	n/a	n/a	n/a	n/a
2233.962	n/a	PROB	1116981	n/a	LTP074	ltpFR	7	n/a	n/a	n/a	n/a	n/a	n/a	n/a	13	7	2	4	n/a	n/a	n/a	n/a	n/a
2236.504	n/a	PROB	1118252	n/a	LTP074	ltpFR	7	n/a	n/a	n/a	n/a	n/a	n/a	n/a	14	7	4	3	n/a	n/a	n/a	n/a	n/a
2238.39	n/a	STOP	1119195	n/a	LTP074	ltpFR	7	n/a	n/a	n/a	n/a	n/a	n/a	n/a	n/a	n/a	n/a	n/a	n/a	n/a	n/a	n/a	n/a
2240.778	n/a	WORD	1120389	wordpools/wasnorm_wordpool.txt	LTP074	ltpFR	7	8	0	LAPEL	800	n/a	n/a	0	n/a	0	0	0	0.422607421875	0.5869140625	0	lower	zerothre.ttf
2243.786	n/a	START	1121893	n/a	LTP074	ltpFR	7	n/a	n/a	n/a	n/a	n/a	n/a	n/a	n/a	n/a	n/a	n/a	n/a	n/a	n/a	n/a	n/a
2244.62	n/a	PROB	1122310	n/a	LTP074	ltpFR	7	n/a	n/a	n/a	n/a	n/a	n/a	n/a	13	3	4	6	n/a	n/a	n/a	n/a	n/a
2246.052	n/a	PROB	1123026	n/a	LTP074	ltpFR	7	n/a	n/a	n/a	n/a	n/a	n/a	n/a	14	2	3	9	n/a	n/a	n/a	n/a	n/a
2247.552	n/a	PROB	1123776	n/a	LTP074	ltpFR	7	n/a	n/a	n/a	n/a	n/a	n/a	n/a	11	4	1	6	n/a	n/a	n/a	n/a	n/a
2248.928	n/a	PROB	1124464	n/a	LTP074	ltpFR	7	n/a	n/a	n/a	n/a	n/a	n/a	n/a	18	8	2	8	n/a	n/a	n/a	n/a	n/a
2250.56	n/a	STOP	1125280	n/a	LTP074	ltpFR	7	n/a	n/a	n/a	n/a	n/a	n/a	n/a	n/a	n/a	n/a	n/a	n/a	n/a	n/a	n/a	n/a
2252.87	n/a	WORD	1126435	wordpools/wasnorm_wordpool.txt	LTP074	ltpFR	7	8	0	FILM	565	n/a	n/a	0	n/a	0	0	0	0.422607421875	0.5869140625	0	lower	zerothre.ttf
2255.878	n/a	START	1127939	n/a	LTP074	ltpFR	7	n/a	n/a	n/a	n/a	n/a	n/a	n/a	n/a	n/a	n/a	n/a	n/a	n/a	n/a	n/a	n/a
2256.77	n/a	PROB	1128385	n/a	LTP074	ltpFR	7	n/a	n/a	n/a	n/a	n/a	n/a	n/a	18	3	7	8	n/a	n/a	n/a	n/a	n/a
2258.42	n/a	PROB	1129210	n/a	LTP074	ltpFR	7	n/a	n/a	n/a	n/a	n/a	n/a	n/a	13	8	4	1	n/a	n/a	n/a	n/a	n/a
2261.344	n/a	PROB	1130672	n/a	LTP074	ltpFR	7	n/a	n/a	n/a	n/a	n/a	n/a	n/a	12	7	3	2	n/a	n/a	n/a	n/a	n/a
2262.72	n/a	STOP	1131360	n/a	LTP074	ltpFR	7	n/a	n/a	n/a	n/a	n/a	n/a	n/a	n/a	n/a	n/a	n/a	n/a	n/a	n/a	n/a	n/a
2265.72	n/a	REC_START	1132860	n/a	LTP074	ltpFR	7	8	n/a	n/a	n/a	n/a	n/a	n/a	n/a	0	0	0	n/a	n/a	n/a	n/a	n/a
2267.722	n/a	REC_WORD	1133861	wordpools/wasnorm_wordpool.txt	LTP074	ltpFR	7	8	0	LAPEL	800	n/a	n/a	0	n/a	0	0	0	n/a	n/a	n/a	n/a	n/a
2268.358	n/a	REC_WORD	1134179	wordpools/wasnorm_wordpool.txt	LTP074	ltpFR	7	8	0	FILM	565	n/a	n/a	0	n/a	0	0	0	n/a	n/a	n/a	n/a	n/a
2270.284	n/a	REC_WORD	1135142	wordpools/wasnorm_wordpool.txt	LTP074	ltpFR	7	8	0	ESSAY	540	n/a	n/a	0	n/a	0	0	0	n/a	n/a	n/a	n/a	n/a
2270.796	n/a	REC_WORD	1135398	wordpools/wasnorm_wordpool.txt	LTP074	ltpFR	7	8	0	COMPANION	357	n/a	n/a	1	n/a	0	0	0	n/a	n/a	n/a	n/a	n/a
2271.946	n/a	REC_WORD	1135973	wordpools/wasnorm_wordpool.txt	LTP074	ltpFR	7	8	0	VEST	1559	n/a	n/a	0	n/a	0	0	0	n/a	n/a	n/a	n/a	n/a
2277.728	n/a	REC_WORD	1138864	wordpools/wasnorm_wordpool.txt	LTP074	ltpFR	7	8	0	MUG	930	n/a	n/a	0	n/a	0	0	0	n/a	n/a	n/a	n/a	n/a
2278.098	n/a	REC_WORD	1139049	wordpools/wasnorm_wordpool.txt	LTP074	ltpFR	7	8	0	ACROBAT	4	n/a	n/a	1	n/a	0	0	0	n/a	n/a	n/a	n/a	n/a
2278.922	n/a	REC_WORD	1139461	wordpools/wasnorm_wordpool.txt	LTP074	ltpFR	7	8	0	JUGGLER	763	n/a	n/a	1	n/a	0	0	0	n/a	n/a	n/a	n/a	n/a
2280.782	n/a	REC_WORD	1140391	wordpools/wasnorm_wordpool.txt	LTP074	ltpFR	7	8	0	TOURIST	1488	n/a	n/a	1	n/a	0	0	0	n/a	n/a	n/a	n/a	n/a
2281.176	n/a	REC_WORD	1140588	wordpools/wasnorm_wordpool.txt	LTP074	ltpFR	7	8	0	CYLINDER	432	n/a	n/a	0	n/a	0	0	0	n/a	n/a	n/a	n/a	n/a
2281.968	n/a	REC_WORD	1140984	wordpools/wasnorm_wordpool.txt	LTP074	ltpFR	7	8	0	BUS	201	n/a	n/a	1	n/a	0	0	0	n/a	n/a	n/a	n/a	n/a
2284.108	n/a	REC_WORD	1142054	wordpools/wasnorm_wordpool.txt	LTP074	ltpFR	7	8	n/a	TORNADO	1485	n/a	n/a	n/a	n/a	0	0	0	n/a	n/a	n/a	n/a	n/a
2284.916	n/a	REC_WORD	1142458	wordpools/wasnorm_wordpool.txt	LTP074	ltpFR	7	8	0	WAGON	1578	n/a	n/a	1	n/a	0	0	0	n/a	n/a	n/a	n/a	n/a
2297.788	n/a	REC_WORD	1148894	wordpools/wasnorm_wordpool.txt	LTP074	ltpFR	7	8	0	RANCH	1166	n/a	n/a	1	n/a	0	0	0	n/a	n/a	n/a	n/a	n/a
2344.884	n/a	WORD	1172442	wordpools/wasnorm_wordpool.txt	LTP074	ltpFR	7	9	1	DOCK	477	n/a	n/a	0	n/a	0	0	0	0.57763671875	0.412841796875	1	upper	amplitud.ttf
2349.018	n/a	WORD	1174509	wordpools/wasnorm_wordpool.txt	LTP074	ltpFR	7	9	1	SLEIGH	1325	n/a	n/a	0	n/a	0	0	0	0.57763671875	0.412841796875	1	upper	amplitud.ttf
2352.926	n/a	WORD	1176463	wordpools/wasnorm_wordpool.txt	LTP074	ltpFR	7	9	1	SYRINGE	1424	n/a	n/a	0	n/a	0	0	0	0.57763671875	0.412841796875	1	upper	amplitud.ttf
2356.976	n/a	WORD	1178488	wordpools/wasnorm_wordpool.txt	LTP074	ltpFR	7	9	1	POLICE	1098	n/a	n/a	1	n/a	0	0	0	0.57763671875	0.412841796875	1	upper	amplitud.ttf
2360.944	n/a	WORD	1180472	wordpools/wasnorm_wordpool.txt	LTP074	ltpFR	7	9	1	PROFESSOR	1131	n/a	n/a	1	n/a	0	0	0	0.57763671875	0.412841796875	1	upper	amplitud.ttf
2364.9	n/a	WORD	1182450	wordpools/wasnorm_wordpool.txt	LTP074	ltpFR	7	9	1	SLIME	1327	n/a	n/a	0	n/a	0	0	0	0.57763671875	0.412841796875	1	upper	amplitud.ttf
2369.026	n/a	WORD	1184513	wordpools/wasnorm_wordpool.txt	LTP074	ltpFR	7	9	1	PROTRACTOR	1133	n/a	n/a	1	n/a	0	0	0	0.57763671875	0.412841796875	1	upper	amplitud.ttf
2372.908	n/a	WORD	1186454	wordpools/wasnorm_wordpool.txt	LTP074	ltpFR	7	9	1	RULER	1216	n/a	n/a	0	n/a	0	0	0	0.57763671875	0.412841796875	1	upper	amplitud.ttf
2376.766	n/a	WORD	1188383	wordpools/wasnorm_wordpool.txt	LTP074	ltpFR	7	9	1	DEER	444	n/a	n/a	1	n/a	0	0	0	0.57763671875	0.412841796875	1	upper	amplitud.ttf
2380.892	n/a	WORD	1190446	wordpools/wasnorm_wordpool.txt	LTP074	ltpFR	7	9	1	ANTLER	29	n/a	n/a	0	n/a	0	0	0	0.57763671875	0.412841796875	1	upper	amplitud.ttf
2384.984	n/a	WORD	1192492	wordpools/wasnorm_wordpool.txt	LTP074	ltpFR	7	9	1	BIKE	125	n/a	n/a	0	n/a	0	0	0	0.57763671875	0.412841796875	1	upper	amplitud.ttf
2389.082	n/a	WORD	1194541	wordpools/wasnorm_wordpool.txt	LTP074	ltpFR	7	9	1	DASHBOARD	441	n/a	n/a	0	n/a	0	0	0	0.57763671875	0.412841796875	1	upper	amplitud.ttf
2392.992	n/a	WORD	1196496	wordpools/wasnorm_wordpool.txt	LTP074	ltpFR	7	9	1	SENATE	1267	n/a	n/a	0	n/a	0	0	0	0.57763671875	0.412841796875	1	upper	amplitud.ttf
2397.116	n/a	WORD	1198558	wordpools/wasnorm_wordpool.txt	LTP074	ltpFR	7	9	1	PITCHFORK	1078	n/a	n/a	0	n/a	0	0	0	0.57763671875	0.412841796875	1	upper	amplitud.ttf
2401.232	n/a	WORD	1200616	wordpools/wasnorm_wordpool.txt	LTP074	ltpFR	7	9	1	GRADUATE	653	n/a	n/a	1	n/a	0	0	0	0.57763671875	0.412841796875	1	upper	amplitud.ttf
2405.316	n/a	WORD	1202658	wordpools/wasnorm_wordpool.txt	LTP074	ltpFR	7	9	1	PATROL	1027	n/a	n/a	1	n/a	0	0	0	0.57763671875	0.412841796875	1	upper	amplitud.ttf
2408.316	n/a	START	1204158	n/a	LTP074	ltpFR	7	n/a	n/a	n/a	n/a	n/a	n/a	n/a	n/a	n/a	n/a	n/a	n/a	n/a	n/a	n/a	n/a
2409.208	n/a	PROB	1204604	n/a	LTP074	ltpFR	7	n/a	n/a	n/a	n/a	n/a	n/a	n/a	9	5	3	1	n/a	n/a	n/a	n/a	n/a
2412.648	n/a	PROB	1206324	n/a	LTP074	ltpFR	7	n/a	n/a	n/a	n/a	n/a	n/a	n/a	7	4	1	2	n/a	n/a	n/a	n/a	n/a
2413.898	n/a	PROB	1206949	n/a	LTP074	ltpFR	7	n/a	n/a	n/a	n/a	n/a	n/a	n/a	14	7	4	3	n/a	n/a	n/a	n/a	n/a
2415.622	n/a	STOP	1207811	n/a	LTP074	ltpFR	7	n/a	n/a	n/a	n/a	n/a	n/a	n/a	n/a	n/a	n/a	n/a	n/a	n/a	n/a	n/a	n/a
2418.09	n/a	REC_START	1209045	n/a	LTP074	ltpFR	7	9	n/a	n/a	n/a	n/a	n/a	n/a	n/a	0	0	0	n/a	n/a	n/a	n/a	n/a
2418.81	n/a	REC_WORD	1209405	wordpools/wasnorm_wordpool.txt	LTP074	ltpFR	7	9	1	GRADUATE	653	n/a	n/a	1	n/a	0	0	0	n/a	n/a	n/a	n/a	n/a
2419.572	n/a	REC_WORD	1209786	wordpools/wasnorm_wordpool.txt	LTP074	ltpFR	7	9	1	PITCHFORK	1078	n/a	n/a	0	n/a	0	0	0	n/a	n/a	n/a	n/a	n/a
2420.278	n/a	REC_WORD	1210139	wordpools/wasnorm_wordpool.txt	LTP074	ltpFR	7	9	1	SENATE	1267	n/a	n/a	0	n/a	0	0	0	n/a	n/a	n/a	n/a	n/a
2420.904	n/a	REC_WORD	1210452	wordpools/wasnorm_wordpool.txt	LTP074	ltpFR	7	9	1	PATROL	1027	n/a	n/a	1	n/a	0	0	0	n/a	n/a	n/a	n/a	n/a
2422.118	n/a	REC_WORD	1211059	wordpools/wasnorm_wordpool.txt	LTP074	ltpFR	7	9	1	SLEIGH	1325	n/a	n/a	0	n/a	0	0	0	n/a	n/a	n/a	n/a	n/a
2423.036	n/a	REC_WORD	1211518	wordpools/wasnorm_wordpool.txt	LTP074	ltpFR	7	9	1	DOCK	477	n/a	n/a	0	n/a	0	0	0	n/a	n/a	n/a	n/a	n/a
2423.402	n/a	REC_WORD	1211701	wordpools/wasnorm_wordpool.txt	LTP074	ltpFR	7	9	1	SYRINGE	1424	n/a	n/a	0	n/a	0	0	0	n/a	n/a	n/a	n/a	n/a
2424.92	n/a	REC_WORD	1212460	wordpools/wasnorm_wordpool.txt	LTP074	ltpFR	7	9	1	BIKE	125	n/a	n/a	0	n/a	0	0	0	n/a	n/a	n/a	n/a	n/a
2425.47	n/a	REC_WORD	1212735	wordpools/wasnorm_wordpool.txt	LTP074	ltpFR	7	9	1	DASHBOARD	441	n/a	n/a	0	n/a	0	0	0	n/a	n/a	n/a	n/a	n/a
2426.188	n/a	REC_WORD	1213094	wordpools/wasnorm_wordpool.txt	LTP074	ltpFR	7	9	1	ANTLER	29	n/a	n/a	0	n/a	0	0	0	n/a	n/a	n/a	n/a	n/a
2446.728	n/a	REC_WORD	1223364	wordpools/wasnorm_wordpool.txt	LTP074	ltpFR	7	9	1	DEER	444	n/a	n/a	1	n/a	0	0	0	n/a	n/a	n/a	n/a	n/a
2447.242	n/a	REC_WORD	1223621	wordpools/wasnorm_wordpool.txt	LTP074	ltpFR	7	9	1	PROTRACTOR	1133	n/a	n/a	1	n/a	0	0	0	n/a	n/a	n/a	n/a	n/a
2448.066	n/a	REC_WORD	1224033	wordpools/wasnorm_wordpool.txt	LTP074	ltpFR	7	9	1	RULER	1216	n/a	n/a	0	n/a	0	0	0	n/a	n/a	n/a	n/a	n/a
2501.38	n/a	START	1250690	n/a	LTP074	ltpFR	7	n/a	n/a	n/a	n/a	n/a	n/a	n/a	n/a	n/a	n/a	n/a	n/a	n/a	n/a	n/a	n/a
2502.888	n/a	PROB	1251444	n/a	LTP074	ltpFR	7	n/a	n/a	n/a	n/a	n/a	n/a	n/a	17	4	5	8	n/a	n/a	n/a	n/a	n/a
2504.914	n/a	PROB	1252457	n/a	LTP074	ltpFR	7	n/a	n/a	n/a	n/a	n/a	n/a	n/a	16	6	6	4	n/a	n/a	n/a	n/a	n/a
2506.822	n/a	PROB	1253411	n/a	LTP074	ltpFR	7	n/a	n/a	n/a	n/a	n/a	n/a	n/a	16	8	3	5	n/a	n/a	n/a	n/a	n/a
2509.056	n/a	PROB	1254528	n/a	LTP074	ltpFR	7	n/a	n/a	n/a	n/a	n/a	n/a	n/a	15	7	2	6	n/a	n/a	n/a	n/a	n/a
2510.672	n/a	PROB	1255336	n/a	LTP074	ltpFR	7	n/a	n/a	n/a	n/a	n/a	n/a	n/a	21	9	7	5	n/a	n/a	n/a	n/a	n/a
2513.704	n/a	PROB	1256852	n/a	LTP074	ltpFR	7	n/a	n/a	n/a	n/a	n/a	n/a	n/a	21	8	5	8	n/a	n/a	n/a	n/a	n/a
2515.638	n/a	PROB	1257819	n/a	LTP074	ltpFR	7	n/a	n/a	n/a	n/a	n/a	n/a	n/a	18	1	9	8	n/a	n/a	n/a	n/a	n/a
2517.292	n/a	STOP	1258646	n/a	LTP074	ltpFR	7	n/a	n/a	n/a	n/a	n/a	n/a	n/a	n/a	n/a	n/a	n/a	n/a	n/a	n/a	n/a	n/a
2518.48	n/a	WORD	1259240	wordpools/wasnorm_wordpool.txt	LTP074	ltpFR	7	10	1	COMMANDER	354	n/a	n/a	1	n/a	0	0	0	0.57763671875	0.412841796875	1	upper	amplitud.ttf
2521.488	n/a	START	1260744	n/a	LTP074	ltpFR	7	n/a	n/a	n/a	n/a	n/a	n/a	n/a	n/a	n/a	n/a	n/a	n/a	n/a	n/a	n/a	n/a
2522.662	n/a	PROB	1261331	n/a	LTP074	ltpFR	7	n/a	n/a	n/a	n/a	n/a	n/a	n/a	14	3	9	2	n/a	n/a	n/a	n/a	n/a
2524.354	n/a	PROB	1262177	n/a	LTP074	ltpFR	7	n/a	n/a	n/a	n/a	n/a	n/a	n/a	10	7	2	1	n/a	n/a	n/a	n/a	n/a
2526.18	n/a	PROB	1263090	n/a	LTP074	ltpFR	7	n/a	n/a	n/a	n/a	n/a	n/a	n/a	22	9	6	7	n/a	n/a	n/a	n/a	n/a
2529.788	n/a	PROB	1264894	n/a	LTP074	ltpFR	7	n/a	n/a	n/a	n/a	n/a	n/a	n/a	13	6	3	4	n/a	n/a	n/a	n/a	n/a
2531.312	n/a	PROB	1265656	n/a	LTP074	ltpFR	7	n/a	n/a	n/a	n/a	n/a	n/a	n/a	25	9	9	7	n/a	n/a	n/a	n/a	n/a
2532.78	n/a	PROB	1266390	n/a	LTP074	ltpFR	7	n/a	n/a	n/a	n/a	n/a	n/a	n/a	11	3	5	3	n/a	n/a	n/a	n/a	n/a
2534.038	n/a	PROB	1267019	n/a	LTP074	ltpFR	7	n/a	n/a	n/a	n/a	n/a	n/a	n/a	11	3	4	4	n/a	n/a	n/a	n/a	n/a
2535.404	n/a	PROB	1267702	n/a	LTP074	ltpFR	7	n/a	n/a	n/a	n/a	n/a	n/a	n/a	18	7	9	2	n/a	n/a	n/a	n/a	n/a
2537.412	n/a	STOP	1268706	n/a	LTP074	ltpFR	7	n/a	n/a	n/a	n/a	n/a	n/a	n/a	n/a	n/a	n/a	n/a	n/a	n/a	n/a	n/a	n/a
2538.578	n/a	WORD	1269289	wordpools/wasnorm_wordpool.txt	LTP074	ltpFR	7	10	1	AUTHOR	61	n/a	n/a	1	n/a	0	0	0	0.57763671875	0.412841796875	1	upper	amplitud.ttf
2541.58	n/a	START	1270790	n/a	LTP074	ltpFR	7	n/a	n/a	n/a	n/a	n/a	n/a	n/a	n/a	n/a	n/a	n/a	n/a	n/a	n/a	n/a	n/a
2542.628	n/a	PROB	1271314	n/a	LTP074	ltpFR	7	n/a	n/a	n/a	n/a	n/a	n/a	n/a	13	1	8	4	n/a	n/a	n/a	n/a	n/a
2544.528	n/a	PROB	1272264	n/a	LTP074	ltpFR	7	n/a	n/a	n/a	n/a	n/a	n/a	n/a	14	4	2	8	n/a	n/a	n/a	n/a	n/a
2546.838	n/a	PROB	1273419	n/a	LTP074	ltpFR	7	n/a	n/a	n/a	n/a	n/a	n/a	n/a	21	7	6	8	n/a	n/a	n/a	n/a	n/a
2549.188	n/a	PROB	1274594	n/a	LTP074	ltpFR	7	n/a	n/a	n/a	n/a	n/a	n/a	n/a	22	9	4	9	n/a	n/a	n/a	n/a	n/a
2551.304	n/a	PROB	1275652	n/a	LTP074	ltpFR	7	n/a	n/a	n/a	n/a	n/a	n/a	n/a	15	2	5	9	n/a	n/a	n/a	n/a	n/a
2554.428	n/a	PROB	1277214	n/a	LTP074	ltpFR	7	n/a	n/a	n/a	n/a	n/a	n/a	n/a	13	2	5	6	n/a	n/a	n/a	n/a	n/a
2557.294	n/a	STOP	1278647	n/a	LTP074	ltpFR	7	n/a	n/a	n/a	n/a	n/a	n/a	n/a	n/a	n/a	n/a	n/a	n/a	n/a	n/a	n/a	n/a
2558.494	n/a	WORD	1279247	wordpools/wasnorm_wordpool.txt	LTP074	ltpFR	7	10	1	STOOL	1386	n/a	n/a	0	n/a	0	0	0	0.57763671875	0.412841796875	1	upper	amplitud.ttf
2561.496	n/a	START	1280748	n/a	LTP074	ltpFR	7	n/a	n/a	n/a	n/a	n/a	n/a	n/a	n/a	n/a	n/a	n/a	n/a	n/a	n/a	n/a	n/a
2562.462	n/a	PROB	1281231	n/a	LTP074	ltpFR	7	n/a	n/a	n/a	n/a	n/a	n/a	n/a	14	4	8	2	n/a	n/a	n/a	n/a	n/a
2563.996	n/a	PROB	1281998	n/a	LTP074	ltpFR	7	n/a	n/a	n/a	n/a	n/a	n/a	n/a	11	2	2	7	n/a	n/a	n/a	n/a	n/a
2566.402	n/a	PROB	1283201	n/a	LTP074	ltpFR	7	n/a	n/a	n/a	n/a	n/a	n/a	n/a	11	3	1	7	n/a	n/a	n/a	n/a	n/a
2568.312	n/a	PROB	1284156	n/a	LTP074	ltpFR	7	n/a	n/a	n/a	n/a	n/a	n/a	n/a	13	2	6	5	n/a	n/a	n/a	n/a	n/a
2569.854	n/a	PROB	1284927	n/a	LTP074	ltpFR	7	n/a	n/a	n/a	n/a	n/a	n/a	n/a	27	9	9	9	n/a	n/a	n/a	n/a	n/a
2571.77	n/a	PROB	1285885	n/a	LTP074	ltpFR	7	n/a	n/a	n/a	n/a	n/a	n/a	n/a	14	5	6	3	n/a	n/a	n/a	n/a	n/a
2573.554	n/a	PROB	1286777	n/a	LTP074	ltpFR	7	n/a	n/a	n/a	n/a	n/a	n/a	n/a	14	7	4	3	n/a	n/a	n/a	n/a	n/a
2575.27	n/a	PROB	1287635	n/a	LTP074	ltpFR	7	n/a	n/a	n/a	n/a	n/a	n/a	n/a	11	6	4	1	n/a	n/a	n/a	n/a	n/a
2576.446	n/a	STOP	1288223	n/a	LTP074	ltpFR	7	n/a	n/a	n/a	n/a	n/a	n/a	n/a	n/a	n/a	n/a	n/a	n/a	n/a	n/a	n/a	n/a
2578.57	n/a	WORD	1289285	wordpools/wasnorm_wordpool.txt	LTP074	ltpFR	7	10	1	FORT	595	n/a	n/a	0	n/a	0	0	0	0.57763671875	0.412841796875	1	upper	amplitud.ttf
2581.578	n/a	START	1290789	n/a	LTP074	ltpFR	7	n/a	n/a	n/a	n/a	n/a	n/a	n/a	n/a	n/a	n/a	n/a	n/a	n/a	n/a	n/a	n/a
2582.486	n/a	PROB	1291243	n/a	LTP074	ltpFR	7	n/a	n/a	n/a	n/a	n/a	n/a	n/a	26	9	8	9	n/a	n/a	n/a	n/a	n/a
2585.062	n/a	PROB	1292531	n/a	LTP074	ltpFR	7	n/a	n/a	n/a	n/a	n/a	n/a	n/a	11	5	5	1	n/a	n/a	n/a	n/a	n/a
2586.11	n/a	PROB	1293055	n/a	LTP074	ltpFR	7	n/a	n/a	n/a	n/a	n/a	n/a	n/a	15	5	7	3	n/a	n/a	n/a	n/a	n/a
2588.67	n/a	PROB	1294335	n/a	LTP074	ltpFR	7	n/a	n/a	n/a	n/a	n/a	n/a	n/a	14	1	8	4	n/a	n/a	n/a	n/a	n/a
2590.52	n/a	PROB	1295260	n/a	LTP074	ltpFR	7	n/a	n/a	n/a	n/a	n/a	n/a	n/a	13	3	6	4	n/a	n/a	n/a	n/a	n/a
2594.136	n/a	PROB	1297068	n/a	LTP074	ltpFR	7	n/a	n/a	n/a	n/a	n/a	n/a	n/a	19	5	6	8	n/a	n/a	n/a	n/a	n/a
2596.112	n/a	STOP	1298056	n/a	LTP074	ltpFR	7	n/a	n/a	n/a	n/a	n/a	n/a	n/a	n/a	n/a	n/a	n/a	n/a	n/a	n/a	n/a	n/a
2598.436	n/a	WORD	1299218	wordpools/wasnorm_wordpool.txt	LTP074	ltpFR	7	10	1	SUPERMARKET	1409	n/a	n/a	0	n/a	0	0	0	0.57763671875	0.412841796875	1	upper	amplitud.ttf
2601.444	n/a	START	1300722	n/a	LTP074	ltpFR	7	n/a	n/a	n/a	n/a	n/a	n/a	n/a	n/a	n/a	n/a	n/a	n/a	n/a	n/a	n/a	n/a
2602.252	n/a	PROB	1301126	n/a	LTP074	ltpFR	7	n/a	n/a	n/a	n/a	n/a	n/a	n/a	16	7	2	7	n/a	n/a	n/a	n/a	n/a
2604.794	n/a	PROB	1302397	n/a	LTP074	ltpFR	7	n/a	n/a	n/a	n/a	n/a	n/a	n/a	23	6	8	9	n/a	n/a	n/a	n/a	n/a
2607.344	n/a	PROB	1303672	n/a	LTP074	ltpFR	7	n/a	n/a	n/a	n/a	n/a	n/a	n/a	20	4	8	8	n/a	n/a	n/a	n/a	n/a
2608.996	n/a	PROB	1304498	n/a	LTP074	ltpFR	7	n/a	n/a	n/a	n/a	n/a	n/a	n/a	16	6	2	8	n/a	n/a	n/a	n/a	n/a
2612.62	n/a	PROB	1306310	n/a	LTP074	ltpFR	7	n/a	n/a	n/a	n/a	n/a	n/a	n/a	11	8	1	2	n/a	n/a	n/a	n/a	n/a
2613.936	n/a	PROB	1306968	n/a	LTP074	ltpFR	7	n/a	n/a	n/a	n/a	n/a	n/a	n/a	12	1	2	9	n/a	n/a	n/a	n/a	n/a
2615.278	n/a	PROB	1307639	n/a	LTP074	ltpFR	7	n/a	n/a	n/a	n/a	n/a	n/a	n/a	8	1	5	2	n/a	n/a	n/a	n/a	n/a
2616.68	n/a	STOP	1308340	n/a	LTP074	ltpFR	7	n/a	n/a	n/a	n/a	n/a	n/a	n/a	n/a	n/a	n/a	n/a	n/a	n/a	n/a	n/a	n/a
2618.268	n/a	WORD	1309134	wordpools/wasnorm_wordpool.txt	LTP074	ltpFR	7	10	1	OREGANO	983	n/a	n/a	0	n/a	0	0	0	0.57763671875	0.412841796875	1	upper	amplitud.ttf
2621.278	n/a	START	1310639	n/a	LTP074	ltpFR	7	n/a	n/a	n/a	n/a	n/a	n/a	n/a	n/a	n/a	n/a	n/a	n/a	n/a	n/a	n/a	n/a
2622.244	n/a	PROB	1311122	n/a	LTP074	ltpFR	7	n/a	n/a	n/a	n/a	n/a	n/a	n/a	16	3	6	7	n/a	n/a	n/a	n/a	n/a
2626.284	n/a	PROB	1313142	n/a	LTP074	ltpFR	7	n/a	n/a	n/a	n/a	n/a	n/a	n/a	12	4	6	2	n/a	n/a	n/a	n/a	n/a
2628.218	n/a	PROB	1314109	n/a	LTP074	ltpFR	7	n/a	n/a	n/a	n/a	n/a	n/a	n/a	15	7	7	1	n/a	n/a	n/a	n/a	n/a
2629.342	n/a	PROB	1314671	n/a	LTP074	ltpFR	7	n/a	n/a	n/a	n/a	n/a	n/a	n/a	10	6	3	1	n/a	n/a	n/a	n/a	n/a
2631.044	n/a	PROB	1315522	n/a	LTP074	ltpFR	7	n/a	n/a	n/a	n/a	n/a	n/a	n/a	11	4	3	4	n/a	n/a	n/a	n/a	n/a
2632.294	n/a	PROB	1316147	n/a	LTP074	ltpFR	7	n/a	n/a	n/a	n/a	n/a	n/a	n/a	10	3	1	6	n/a	n/a	n/a	n/a	n/a
2633.502	n/a	PROB	1316751	n/a	LTP074	ltpFR	7	n/a	n/a	n/a	n/a	n/a	n/a	n/a	13	5	7	1	n/a	n/a	n/a	n/a	n/a
2637.278	n/a	STOP	1318639	n/a	LTP074	ltpFR	7	n/a	n/a	n/a	n/a	n/a	n/a	n/a	n/a	n/a	n/a	n/a	n/a	n/a	n/a	n/a	n/a
2638.134	n/a	WORD	1319067	wordpools/wasnorm_wordpool.txt	LTP074	ltpFR	7	10	1	WRITER	1627	n/a	n/a	1	n/a	0	0	0	0.57763671875	0.412841796875	1	upper	amplitud.ttf
2641.144	n/a	START	1320572	n/a	LTP074	ltpFR	7	n/a	n/a	n/a	n/a	n/a	n/a	n/a	n/a	n/a	n/a	n/a	n/a	n/a	n/a	n/a	n/a
2642.252	n/a	PROB	1321126	n/a	LTP074	ltpFR	7	n/a	n/a	n/a	n/a	n/a	n/a	n/a	23	7	8	8	n/a	n/a	n/a	n/a	n/a
2644.76	n/a	PROB	1322380	n/a	LTP074	ltpFR	7	n/a	n/a	n/a	n/a	n/a	n/a	n/a	17	1	7	9	n/a	n/a	n/a	n/a	n/a
2646.976	n/a	PROB	1323488	n/a	LTP074	ltpFR	7	n/a	n/a	n/a	n/a	n/a	n/a	n/a	13	8	3	2	n/a	n/a	n/a	n/a	n/a
2648.442	n/a	PROB	1324221	n/a	LTP074	ltpFR	7	n/a	n/a	n/a	n/a	n/a	n/a	n/a	17	8	8	1	n/a	n/a	n/a	n/a	n/a
2650.368	n/a	PROB	1325184	n/a	LTP074	ltpFR	7	n/a	n/a	n/a	n/a	n/a	n/a	n/a	23	9	5	9	n/a	n/a	n/a	n/a	n/a
2652.652	n/a	PROB	1326326	n/a	LTP074	ltpFR	7	n/a	n/a	n/a	n/a	n/a	n/a	n/a	16	3	6	7	n/a	n/a	n/a	n/a	n/a
2654.518	n/a	PROB	1327259	n/a	LTP074	ltpFR	7	n/a	n/a	n/a	n/a	n/a	n/a	n/a	18	3	9	6	n/a	n/a	n/a	n/a	n/a
2656.266	n/a	STOP	1328133	n/a	LTP074	ltpFR	7	n/a	n/a	n/a	n/a	n/a	n/a	n/a	n/a	n/a	n/a	n/a	n/a	n/a	n/a	n/a	n/a
2658.202	n/a	WORD	1329101	wordpools/wasnorm_wordpool.txt	LTP074	ltpFR	7	10	1	BLACKBERRY	132	n/a	n/a	0	n/a	0	0	0	0.57763671875	0.412841796875	1	upper	amplitud.ttf
2661.21	n/a	START	1330605	n/a	LTP074	ltpFR	7	n/a	n/a	n/a	n/a	n/a	n/a	n/a	n/a	n/a	n/a	n/a	n/a	n/a	n/a	n/a	n/a
2662.068	n/a	PROB	1331034	n/a	LTP074	ltpFR	7	n/a	n/a	n/a	n/a	n/a	n/a	n/a	16	6	3	7	n/a	n/a	n/a	n/a	n/a
2663.85	n/a	PROB	1331925	n/a	LTP074	ltpFR	7	n/a	n/a	n/a	n/a	n/a	n/a	n/a	11	5	3	3	n/a	n/a	n/a	n/a	n/a
2665.108	n/a	PROB	1332554	n/a	LTP074	ltpFR	7	n/a	n/a	n/a	n/a	n/a	n/a	n/a	9	2	4	3	n/a	n/a	n/a	n/a	n/a
2667.242	n/a	PROB	1333621	n/a	LTP074	ltpFR	7	n/a	n/a	n/a	n/a	n/a	n/a	n/a	8	4	2	2	n/a	n/a	n/a	n/a	n/a
2668.284	n/a	PROB	1334142	n/a	LTP074	ltpFR	7	n/a	n/a	n/a	n/a	n/a	n/a	n/a	11	1	9	1	n/a	n/a	n/a	n/a	n/a
2669.584	n/a	PROB	1334792	n/a	LTP074	ltpFR	7	n/a	n/a	n/a	n/a	n/a	n/a	n/a	18	7	2	9	n/a	n/a	n/a	n/a	n/a
2671.426	n/a	PROB	1335713	n/a	LTP074	ltpFR	7	n/a	n/a	n/a	n/a	n/a	n/a	n/a	21	8	4	9	n/a	n/a	n/a	n/a	n/a
2674.1	n/a	PROB	1337050	n/a	LTP074	ltpFR	7	n/a	n/a	n/a	n/a	n/a	n/a	n/a	13	3	3	7	n/a	n/a	n/a	n/a	n/a
2675.534	n/a	PROB	1337767	n/a	LTP074	ltpFR	7	n/a	n/a	n/a	n/a	n/a	n/a	n/a	20	6	5	9	n/a	n/a	n/a	n/a	n/a
2677.132	n/a	STOP	1338566	n/a	LTP074	ltpFR	7	n/a	n/a	n/a	n/a	n/a	n/a	n/a	n/a	n/a	n/a	n/a	n/a	n/a	n/a	n/a	n/a
2678.026	n/a	WORD	1339013	wordpools/wasnorm_wordpool.txt	LTP074	ltpFR	7	10	1	BULLY	196	n/a	n/a	1	n/a	0	0	0	0.57763671875	0.412841796875	1	upper	amplitud.ttf
2681.036	n/a	START	1340518	n/a	LTP074	ltpFR	7	n/a	n/a	n/a	n/a	n/a	n/a	n/a	n/a	n/a	n/a	n/a	n/a	n/a	n/a	n/a	n/a
2682.108	n/a	PROB	1341054	n/a	LTP074	ltpFR	7	n/a	n/a	n/a	n/a	n/a	n/a	n/a	12	4	6	2	n/a	n/a	n/a	n/a	n/a
2683.358	n/a	PROB	1341679	n/a	LTP074	ltpFR	7	n/a	n/a	n/a	n/a	n/a	n/a	n/a	17	2	8	7	n/a	n/a	n/a	n/a	n/a
2685.792	n/a	PROB	1342896	n/a	LTP074	ltpFR	7	n/a	n/a	n/a	n/a	n/a	n/a	n/a	18	7	8	3	n/a	n/a	n/a	n/a	n/a
2687.326	n/a	PROB	1343663	n/a	LTP074	ltpFR	7	n/a	n/a	n/a	n/a	n/a	n/a	n/a	14	7	4	3	n/a	n/a	n/a	n/a	n/a
2689.516	n/a	PROB	1344758	n/a	LTP074	ltpFR	7	n/a	n/a	n/a	n/a	n/a	n/a	n/a	9	5	2	2	n/a	n/a	n/a	n/a	n/a
2691.026	n/a	PROB	1345513	n/a	LTP074	ltpFR	7	n/a	n/a	n/a	n/a	n/a	n/a	n/a	18	8	5	5	n/a	n/a	n/a	n/a	n/a
2692.408	n/a	PROB	1346204	n/a	LTP074	ltpFR	7	n/a	n/a	n/a	n/a	n/a	n/a	n/a	14	7	4	3	n/a	n/a	n/a	n/a	n/a
2694.158	n/a	PROB	1347079	n/a	LTP074	ltpFR	7	n/a	n/a	n/a	n/a	n/a	n/a	n/a	15	8	2	5	n/a	n/a	n/a	n/a	n/a
2696.054	n/a	STOP	1348027	n/a	LTP074	ltpFR	7	n/a	n/a	n/a	n/a	n/a	n/a	n/a	n/a	n/a	n/a	n/a	n/a	n/a	n/a	n/a	n/a
2697.858	n/a	WORD	1348929	wordpools/wasnorm_wordpool.txt	LTP074	ltpFR	7	10	1	COWARD	394	n/a	n/a	0	n/a	0	0	0	0.57763671875	0.412841796875	1	upper	amplitud.ttf
2700.868	n/a	START	1350434	n/a	LTP074	ltpFR	7	n/a	n/a	n/a	n/a	n/a	n/a	n/a	n/a	n/a	n/a	n/a	n/a	n/a	n/a	n/a	n/a
2701.816	n/a	PROB	1350908	n/a	LTP074	ltpFR	7	n/a	n/a	n/a	n/a	n/a	n/a	n/a	15	5	6	4	n/a	n/a	n/a	n/a	n/a
2703.684	n/a	PROB	1351842	n/a	LTP074	ltpFR	7	n/a	n/a	n/a	n/a	n/a	n/a	n/a	13	7	5	1	n/a	n/a	n/a	n/a	n/a
2706.282	n/a	PROB	1353141	n/a	LTP074	ltpFR	7	n/a	n/a	n/a	n/a	n/a	n/a	n/a	14	4	1	9	n/a	n/a	n/a	n/a	n/a
2708.25	n/a	PROB	1354125	n/a	LTP074	ltpFR	7	n/a	n/a	n/a	n/a	n/a	n/a	n/a	16	4	6	6	n/a	n/a	n/a	n/a	n/a
2710.424	n/a	PROB	1355212	n/a	LTP074	ltpFR	7	n/a	n/a	n/a	n/a	n/a	n/a	n/a	8	3	1	4	n/a	n/a	n/a	n/a	n/a
2712.174	n/a	PROB	1356087	n/a	LTP074	ltpFR	7	n/a	n/a	n/a	n/a	n/a	n/a	n/a	17	6	6	5	n/a	n/a	n/a	n/a	n/a
2713.74	n/a	PROB	1356870	n/a	LTP074	ltpFR	7	n/a	n/a	n/a	n/a	n/a	n/a	n/a	16	1	8	7	n/a	n/a	n/a	n/a	n/a
2715.518	n/a	STOP	1357759	n/a	LTP074	ltpFR	7	n/a	n/a	n/a	n/a	n/a	n/a	n/a	n/a	n/a	n/a	n/a	n/a	n/a	n/a	n/a	n/a
2717.708	n/a	WORD	1358854	wordpools/wasnorm_wordpool.txt	LTP074	ltpFR	7	10	1	BRANCH	168	n/a	n/a	0	n/a	0	0	0	0.57763671875	0.412841796875	1	upper	amplitud.ttf
2720.716	n/a	START	1360358	n/a	LTP074	ltpFR	7	n/a	n/a	n/a	n/a	n/a	n/a	n/a	n/a	n/a	n/a	n/a	n/a	n/a	n/a	n/a	n/a
2721.758	n/a	PROB	1360879	n/a	LTP074	ltpFR	7	n/a	n/a	n/a	n/a	n/a	n/a	n/a	14	1	4	9	n/a	n/a	n/a	n/a	n/a
2723.69	n/a	PROB	1361845	n/a	LTP074	ltpFR	7	n/a	n/a	n/a	n/a	n/a	n/a	n/a	13	5	1	7	n/a	n/a	n/a	n/a	n/a
2725.132	n/a	PROB	1362566	n/a	LTP074	ltpFR	7	n/a	n/a	n/a	n/a	n/a	n/a	n/a	11	1	6	4	n/a	n/a	n/a	n/a	n/a
2726.5	n/a	PROB	1363250	n/a	LTP074	ltpFR	7	n/a	n/a	n/a	n/a	n/a	n/a	n/a	19	3	7	9	n/a	n/a	n/a	n/a	n/a
2727.926	n/a	PROB	1363963	n/a	LTP074	ltpFR	7	n/a	n/a	n/a	n/a	n/a	n/a	n/a	12	1	4	7	n/a	n/a	n/a	n/a	n/a
