onset	duration	trial_type	sample	stim_file	subject	experiment	session	trial	task	item_name	item_num	recog_resp	recog_conf	resp	answer	test_x	test_y	test_z	color_r	color_g	color_b	case	font
342.744	n/a	SESS_START	171372	n/a	LTP263	ltpFR	13	n/a	n/a	n/a	n/a	1	n/a	n/a	n/a	0	0	0	n/a	n/a	n/a	n/a	n/a
357.652	n/a	START	178826	n/a	LTP263	ltpFR	13	n/a	n/a	n/a	n/a	n/a	n/a	n/a	n/a	n/a	n/a	n/a	n/a	n/a	n/a	n/a	n/a
357.702	n/a	PROB	178851	n/a	LTP263	ltpFR	13	n/a	n/a	n/a	n/a	n/a	n/a	n/a	11	4	4	3	n/a	n/a	n/a	n/a	n/a
359.744	n/a	PROB	179872	n/a	LTP263	ltpFR	13	n/a	n/a	n/a	n/a	n/a	n/a	n/a	22	8	6	9	n/a	n/a	n/a	n/a	n/a
361.918	n/a	PROB	180959	n/a	LTP263	ltpFR	13	n/a	n/a	n/a	n/a	n/a	n/a	n/a	18	9	2	6	n/a	n/a	n/a	n/a	n/a
364.038	n/a	PROB	182019	n/a	LTP263	ltpFR	13	n/a	n/a	n/a	n/a	n/a	n/a	n/a	12	5	5	2	n/a	n/a	n/a	n/a	n/a
366.052	n/a	PROB	183026	n/a	LTP263	ltpFR	13	n/a	n/a	n/a	n/a	n/a	n/a	n/a	20	9	5	6	n/a	n/a	n/a	n/a	n/a
368.352	n/a	PROB	184176	n/a	LTP263	ltpFR	13	n/a	n/a	n/a	n/a	n/a	n/a	n/a	9	5	3	1	n/a	n/a	n/a	n/a	n/a
369.574	n/a	PROB	184787	n/a	LTP263	ltpFR	13	n/a	n/a	n/a	n/a	n/a	n/a	n/a	6	2	2	2	n/a	n/a	n/a	n/a	n/a
370.678	n/a	PROB	185339	n/a	LTP263	ltpFR	13	n/a	n/a	n/a	n/a	n/a	n/a	n/a	13	3	8	2	n/a	n/a	n/a	n/a	n/a
372.102	n/a	PROB	186051	n/a	LTP263	ltpFR	13	n/a	n/a	n/a	n/a	n/a	n/a	n/a	18	8	6	2	n/a	n/a	n/a	n/a	n/a
377.652	n/a	STOP	188826	n/a	LTP263	ltpFR	13	n/a	n/a	n/a	n/a	n/a	n/a	n/a	n/a	n/a	n/a	n/a	n/a	n/a	n/a	n/a	n/a
388.938	n/a	WORD	194469	wordpools/wasnorm_wordpool_less_exclusions.txt	LTP263	ltpFR	13	1	0	FACTORY	548	n/a	n/a	1	n/a	0	0	0	0.422607421875	0.5869140625	0	lower	amplitud.ttf
393.038	n/a	WORD	196519	wordpools/wasnorm_wordpool_less_exclusions.txt	LTP263	ltpFR	13	1	0	CROCODILE	411	n/a	n/a	1	n/a	0	0	0	0.422607421875	0.5869140625	0	lower	amplitud.ttf
397.22	n/a	WORD	198610	wordpools/wasnorm_wordpool_less_exclusions.txt	LTP263	ltpFR	13	1	1	PUDDLE	1140	n/a	n/a	0	n/a	0	0	0	0.57763671875	0.412841796875	1	upper	zerothre.ttf
401.118	n/a	WORD	200559	wordpools/wasnorm_wordpool_less_exclusions.txt	LTP263	ltpFR	13	1	1	TOURIST	1488	n/a	n/a	1	n/a	0	0	0	0.57763671875	0.412841796875	1	upper	zerothre.ttf
405.15	n/a	WORD	202575	wordpools/wasnorm_wordpool_less_exclusions.txt	LTP263	ltpFR	13	1	1	BINDER	127	n/a	n/a	0	n/a	0	0	0	0.57763671875	0.412841796875	1	upper	zerothre.ttf
408.98	n/a	WORD	204490	wordpools/wasnorm_wordpool_less_exclusions.txt	LTP263	ltpFR	13	1	1	SCULPTURE	1258	n/a	n/a	0	n/a	0	0	0	0.57763671875	0.412841796875	1	upper	zerothre.ttf
412.864	n/a	WORD	206432	wordpools/wasnorm_wordpool_less_exclusions.txt	LTP263	ltpFR	13	1	0	ROOMMATE	1207	n/a	n/a	1	n/a	0	0	0	0.422607421875	0.5869140625	0	lower	amplitud.ttf
416.912	n/a	WORD	208456	wordpools/wasnorm_wordpool_less_exclusions.txt	LTP263	ltpFR	13	1	0	HAMPER	682	n/a	n/a	1	n/a	0	0	0	0.422607421875	0.5869140625	0	lower	amplitud.ttf
420.894	n/a	WORD	210447	wordpools/wasnorm_wordpool_less_exclusions.txt	LTP263	ltpFR	13	1	0	FLAG	573	n/a	n/a	1	n/a	0	0	0	0.422607421875	0.5869140625	0	lower	amplitud.ttf
424.724	n/a	WORD	212362	wordpools/wasnorm_wordpool_less_exclusions.txt	LTP263	ltpFR	13	1	0	FLY	586	n/a	n/a	0	n/a	0	0	0	0.422607421875	0.5869140625	0	lower	amplitud.ttf
428.566	n/a	WORD	214283	wordpools/wasnorm_wordpool_less_exclusions.txt	LTP263	ltpFR	13	1	0	BEETLE	116	n/a	n/a	0	n/a	0	0	0	0.422607421875	0.5869140625	0	lower	amplitud.ttf
432.538	n/a	WORD	216269	wordpools/wasnorm_wordpool_less_exclusions.txt	LTP263	ltpFR	13	1	0	WAREHOUSE	1588	n/a	n/a	1	n/a	0	0	0	0.422607421875	0.5869140625	0	lower	amplitud.ttf
436.688	n/a	WORD	218344	wordpools/wasnorm_wordpool_less_exclusions.txt	LTP263	ltpFR	13	1	1	HORSE	719	n/a	n/a	1	n/a	0	0	0	0.57763671875	0.412841796875	1	upper	zerothre.ttf
440.568	n/a	WORD	220284	wordpools/wasnorm_wordpool_less_exclusions.txt	LTP263	ltpFR	13	1	1	HAY	693	n/a	n/a	0	n/a	0	0	0	0.57763671875	0.412841796875	1	upper	zerothre.ttf
444.65	n/a	WORD	222325	wordpools/wasnorm_wordpool_less_exclusions.txt	LTP263	ltpFR	13	1	1	PAINT	1003	n/a	n/a	0	n/a	0	0	0	0.57763671875	0.412841796875	1	upper	zerothre.ttf
448.482	n/a	WORD	224241	wordpools/wasnorm_wordpool_less_exclusions.txt	LTP263	ltpFR	13	1	1	RADIATOR	1156	n/a	n/a	0	n/a	0	0	0	0.57763671875	0.412841796875	1	upper	zerothre.ttf
451.494	n/a	START	225747	n/a	LTP263	ltpFR	13	n/a	n/a	n/a	n/a	n/a	n/a	n/a	n/a	n/a	n/a	n/a	n/a	n/a	n/a	n/a	n/a
452.448	n/a	PROB	226224	n/a	LTP263	ltpFR	13	n/a	n/a	n/a	n/a	n/a	n/a	n/a	15	6	4	5	n/a	n/a	n/a	n/a	n/a
453.764	n/a	PROB	226882	n/a	LTP263	ltpFR	13	n/a	n/a	n/a	n/a	n/a	n/a	n/a	9	2	3	4	n/a	n/a	n/a	n/a	n/a
455.318	n/a	PROB	227659	n/a	LTP263	ltpFR	13	n/a	n/a	n/a	n/a	n/a	n/a	n/a	16	7	7	2	n/a	n/a	n/a	n/a	n/a
457.16	n/a	PROB	228580	n/a	LTP263	ltpFR	13	n/a	n/a	n/a	n/a	n/a	n/a	n/a	15	5	8	2	n/a	n/a	n/a	n/a	n/a
458.452	n/a	STOP	229226	n/a	LTP263	ltpFR	13	n/a	n/a	n/a	n/a	n/a	n/a	n/a	n/a	n/a	n/a	n/a	n/a	n/a	n/a	n/a	n/a
461.376	n/a	REC_START	230688	n/a	LTP263	ltpFR	13	1	n/a	n/a	n/a	n/a	n/a	n/a	n/a	0	0	0	n/a	n/a	n/a	n/a	n/a
462.178	n/a	REC_WORD	231089	wordpools/wasnorm_wordpool_less_exclusions.txt	LTP263	ltpFR	13	1	0	FACTORY	548	n/a	n/a	1	n/a	0	0	0	n/a	n/a	n/a	n/a	n/a
463.308	n/a	REC_WORD	231654	wordpools/wasnorm_wordpool_less_exclusions.txt	LTP263	ltpFR	13	1	0	WAREHOUSE	1588	n/a	n/a	1	n/a	0	0	0	n/a	n/a	n/a	n/a	n/a
464.404	n/a	REC_WORD	232202	wordpools/wasnorm_wordpool_less_exclusions.txt	LTP263	ltpFR	13	1	1	PUDDLE	1140	n/a	n/a	0	n/a	0	0	0	n/a	n/a	n/a	n/a	n/a
465.234	n/a	REC_WORD	232617	wordpools/wasnorm_wordpool_less_exclusions.txt	LTP263	ltpFR	13	1	0	CROCODILE	411	n/a	n/a	1	n/a	0	0	0	n/a	n/a	n/a	n/a	n/a
466.836	n/a	REC_WORD	233418	wordpools/wasnorm_wordpool_less_exclusions.txt	LTP263	ltpFR	13	1	1	SCULPTURE	1258	n/a	n/a	0	n/a	0	0	0	n/a	n/a	n/a	n/a	n/a
468.102	n/a	REC_WORD	234051	wordpools/wasnorm_wordpool_less_exclusions.txt	LTP263	ltpFR	13	1	1	BINDER	127	n/a	n/a	0	n/a	0	0	0	n/a	n/a	n/a	n/a	n/a
469.2	n/a	REC_WORD	234600	wordpools/wasnorm_wordpool_less_exclusions.txt	LTP263	ltpFR	13	1	1	TOURIST	1488	n/a	n/a	1	n/a	0	0	0	n/a	n/a	n/a	n/a	n/a
470.686	n/a	REC_WORD	235343	wordpools/wasnorm_wordpool_less_exclusions.txt	LTP263	ltpFR	13	1	0	ROOMMATE	1207	n/a	n/a	1	n/a	0	0	0	n/a	n/a	n/a	n/a	n/a
471.848	n/a	REC_WORD	235924	wordpools/wasnorm_wordpool_less_exclusions.txt	LTP263	ltpFR	13	1	0	FLY	586	n/a	n/a	0	n/a	0	0	0	n/a	n/a	n/a	n/a	n/a
473.31	n/a	REC_WORD	236655	wordpools/wasnorm_wordpool_less_exclusions.txt	LTP263	ltpFR	13	1	0	BEETLE	116	n/a	n/a	0	n/a	0	0	0	n/a	n/a	n/a	n/a	n/a
474.402	n/a	REC_WORD	237201	wordpools/wasnorm_wordpool_less_exclusions.txt	LTP263	ltpFR	13	1	0	FLAG	573	n/a	n/a	1	n/a	0	0	0	n/a	n/a	n/a	n/a	n/a
476.204	n/a	REC_WORD	238102	wordpools/wasnorm_wordpool_less_exclusions.txt	LTP263	ltpFR	13	1	0	HAMPER	682	n/a	n/a	1	n/a	0	0	0	n/a	n/a	n/a	n/a	n/a
478.052	n/a	REC_WORD	239026	wordpools/wasnorm_wordpool_less_exclusions.txt	LTP263	ltpFR	13	1	1	HORSE	719	n/a	n/a	1	n/a	0	0	0	n/a	n/a	n/a	n/a	n/a
480.432	n/a	REC_WORD	240216	wordpools/wasnorm_wordpool_less_exclusions.txt	LTP263	ltpFR	13	1	1	RADIATOR	1156	n/a	n/a	0	n/a	0	0	0	n/a	n/a	n/a	n/a	n/a
482.594	n/a	REC_WORD	241297	wordpools/wasnorm_wordpool_less_exclusions.txt	LTP263	ltpFR	13	1	1	PAINT	1003	n/a	n/a	0	n/a	0	0	0	n/a	n/a	n/a	n/a	n/a
491.812	n/a	REC_WORD	245906	wordpools/wasnorm_wordpool_less_exclusions.txt	LTP263	ltpFR	13	1	1	SCULPTURE	1258	n/a	n/a	0	n/a	0	0	0	n/a	n/a	n/a	n/a	n/a
537.372	n/a	START	268686	n/a	LTP263	ltpFR	13	n/a	n/a	n/a	n/a	n/a	n/a	n/a	n/a	n/a	n/a	n/a	n/a	n/a	n/a	n/a	n/a
538.888	n/a	PROB	269444	n/a	LTP263	ltpFR	13	n/a	n/a	n/a	n/a	n/a	n/a	n/a	9	2	5	2	n/a	n/a	n/a	n/a	n/a
540.7	n/a	PROB	270350	n/a	LTP263	ltpFR	13	n/a	n/a	n/a	n/a	n/a	n/a	n/a	24	9	5	9	n/a	n/a	n/a	n/a	n/a
543.506	n/a	PROB	271753	n/a	LTP263	ltpFR	13	n/a	n/a	n/a	n/a	n/a	n/a	n/a	10	7	1	2	n/a	n/a	n/a	n/a	n/a
545.218	n/a	STOP	272609	n/a	LTP263	ltpFR	13	n/a	n/a	n/a	n/a	n/a	n/a	n/a	n/a	n/a	n/a	n/a	n/a	n/a	n/a	n/a	n/a
546.418	n/a	WORD	273209	wordpools/wasnorm_wordpool_less_exclusions.txt	LTP263	ltpFR	13	2	0	HELICOPTER	701	n/a	n/a	1	n/a	0	0	0	0.422607421875	0.5869140625	0	lower	amplitud.ttf
549.43	n/a	START	274715	n/a	LTP263	ltpFR	13	n/a	n/a	n/a	n/a	n/a	n/a	n/a	n/a	n/a	n/a	n/a	n/a	n/a	n/a	n/a	n/a
550.59	n/a	PROB	275295	n/a	LTP263	ltpFR	13	n/a	n/a	n/a	n/a	n/a	n/a	n/a	19	8	9	2	n/a	n/a	n/a	n/a	n/a
553.518	n/a	PROB	276759	n/a	LTP263	ltpFR	13	n/a	n/a	n/a	n/a	n/a	n/a	n/a	18	3	3	9	n/a	n/a	n/a	n/a	n/a
555.384	n/a	PROB	277692	n/a	LTP263	ltpFR	13	n/a	n/a	n/a	n/a	n/a	n/a	n/a	11	6	1	4	n/a	n/a	n/a	n/a	n/a
556.978	n/a	STOP	278489	n/a	LTP263	ltpFR	13	n/a	n/a	n/a	n/a	n/a	n/a	n/a	n/a	n/a	n/a	n/a	n/a	n/a	n/a	n/a	n/a
558.386	n/a	WORD	279193	wordpools/wasnorm_wordpool_less_exclusions.txt	LTP263	ltpFR	13	2	0	COB	334	n/a	n/a	0	n/a	0	0	0	0.422607421875	0.5869140625	0	lower	amplitud.ttf
561.398	n/a	START	280699	n/a	LTP263	ltpFR	13	n/a	n/a	n/a	n/a	n/a	n/a	n/a	n/a	n/a	n/a	n/a	n/a	n/a	n/a	n/a	n/a
562.4	n/a	PROB	281200	n/a	LTP263	ltpFR	13	n/a	n/a	n/a	n/a	n/a	n/a	n/a	12	1	6	5	n/a	n/a	n/a	n/a	n/a
563.582	n/a	PROB	281791	n/a	LTP263	ltpFR	13	n/a	n/a	n/a	n/a	n/a	n/a	n/a	4	2	1	1	n/a	n/a	n/a	n/a	n/a
564.788	n/a	PROB	282394	n/a	LTP263	ltpFR	13	n/a	n/a	n/a	n/a	n/a	n/a	n/a	17	7	4	6	n/a	n/a	n/a	n/a	n/a
567.632	n/a	PROB	283816	n/a	LTP263	ltpFR	13	n/a	n/a	n/a	n/a	n/a	n/a	n/a	18	8	5	5	n/a	n/a	n/a	n/a	n/a
568.706	n/a	STOP	284353	n/a	LTP263	ltpFR	13	n/a	n/a	n/a	n/a	n/a	n/a	n/a	n/a	n/a	n/a	n/a	n/a	n/a	n/a	n/a	n/a
570.426	n/a	WORD	285213	wordpools/wasnorm_wordpool_less_exclusions.txt	LTP263	ltpFR	13	2	0	FARMER	553	n/a	n/a	1	n/a	0	0	0	0.422607421875	0.5869140625	0	lower	amplitud.ttf
573.438	n/a	START	286719	n/a	LTP263	ltpFR	13	n/a	n/a	n/a	n/a	n/a	n/a	n/a	n/a	n/a	n/a	n/a	n/a	n/a	n/a	n/a	n/a
574.63	n/a	PROB	287315	n/a	LTP263	ltpFR	13	n/a	n/a	n/a	n/a	n/a	n/a	n/a	24	8	6	8	n/a	n/a	n/a	n/a	n/a
576.666	n/a	PROB	288333	n/a	LTP263	ltpFR	13	n/a	n/a	n/a	n/a	n/a	n/a	n/a	19	4	7	8	n/a	n/a	n/a	n/a	n/a
578.58	n/a	PROB	289290	n/a	LTP263	ltpFR	13	n/a	n/a	n/a	n/a	n/a	n/a	n/a	18	6	5	7	n/a	n/a	n/a	n/a	n/a
580.29	n/a	STOP	290145	n/a	LTP263	ltpFR	13	n/a	n/a	n/a	n/a	n/a	n/a	n/a	n/a	n/a	n/a	n/a	n/a	n/a	n/a	n/a	n/a
582.522	n/a	WORD	291261	wordpools/wasnorm_wordpool_less_exclusions.txt	LTP263	ltpFR	13	2	1	HEART	697	n/a	n/a	1	n/a	0	0	0	0.57763671875	0.412841796875	1	upper	zerothre.ttf
585.54	n/a	START	292770	n/a	LTP263	ltpFR	13	n/a	n/a	n/a	n/a	n/a	n/a	n/a	n/a	n/a	n/a	n/a	n/a	n/a	n/a	n/a	n/a
586.404	n/a	PROB	293202	n/a	LTP263	ltpFR	13	n/a	n/a	n/a	n/a	n/a	n/a	n/a	14	8	1	5	n/a	n/a	n/a	n/a	n/a
589.03	n/a	PROB	294515	n/a	LTP263	ltpFR	13	n/a	n/a	n/a	n/a	n/a	n/a	n/a	18	9	7	2	n/a	n/a	n/a	n/a	n/a
590.552	n/a	PROB	295276	n/a	LTP263	ltpFR	13	n/a	n/a	n/a	n/a	n/a	n/a	n/a	20	6	7	7	n/a	n/a	n/a	n/a	n/a
593.54	n/a	STOP	296770	n/a	LTP263	ltpFR	13	n/a	n/a	n/a	n/a	n/a	n/a	n/a	n/a	n/a	n/a	n/a	n/a	n/a	n/a	n/a	n/a
594.658	n/a	WORD	297329	wordpools/wasnorm_wordpool_less_exclusions.txt	LTP263	ltpFR	13	2	1	ACTRESS	6	n/a	n/a	1	n/a	0	0	0	0.57763671875	0.412841796875	1	upper	zerothre.ttf
597.67	n/a	START	298835	n/a	LTP263	ltpFR	13	n/a	n/a	n/a	n/a	n/a	n/a	n/a	n/a	n/a	n/a	n/a	n/a	n/a	n/a	n/a	n/a
598.622	n/a	PROB	299311	n/a	LTP263	ltpFR	13	n/a	n/a	n/a	n/a	n/a	n/a	n/a	23	7	7	9	n/a	n/a	n/a	n/a	n/a
600.976	n/a	PROB	300488	n/a	LTP263	ltpFR	13	n/a	n/a	n/a	n/a	n/a	n/a	n/a	16	4	7	5	n/a	n/a	n/a	n/a	n/a
602.682	n/a	PROB	301341	n/a	LTP263	ltpFR	13	n/a	n/a	n/a	n/a	n/a	n/a	n/a	17	3	6	8	n/a	n/a	n/a	n/a	n/a
604.676	n/a	STOP	302338	n/a	LTP263	ltpFR	13	n/a	n/a	n/a	n/a	n/a	n/a	n/a	n/a	n/a	n/a	n/a	n/a	n/a	n/a	n/a	n/a
606.838	n/a	WORD	303419	wordpools/wasnorm_wordpool_less_exclusions.txt	LTP263	ltpFR	13	2	1	PARSLEY	1016	n/a	n/a	1	n/a	0	0	0	0.57763671875	0.412841796875	1	upper	zerothre.ttf
609.85	n/a	START	304925	n/a	LTP263	ltpFR	13	n/a	n/a	n/a	n/a	n/a	n/a	n/a	n/a	n/a	n/a	n/a	n/a	n/a	n/a	n/a	n/a
610.92	n/a	PROB	305460	n/a	LTP263	ltpFR	13	n/a	n/a	n/a	n/a	n/a	n/a	n/a	13	5	7	1	n/a	n/a	n/a	n/a	n/a
612.268	n/a	PROB	306134	n/a	LTP263	ltpFR	13	n/a	n/a	n/a	n/a	n/a	n/a	n/a	12	3	3	6	n/a	n/a	n/a	n/a	n/a
613.556	n/a	PROB	306778	n/a	LTP263	ltpFR	13	n/a	n/a	n/a	n/a	n/a	n/a	n/a	22	4	9	9	n/a	n/a	n/a	n/a	n/a
615.704	n/a	PROB	307852	n/a	LTP263	ltpFR	13	n/a	n/a	n/a	n/a	n/a	n/a	n/a	9	4	1	4	n/a	n/a	n/a	n/a	n/a
616.82	n/a	STOP	308410	n/a	LTP263	ltpFR	13	n/a	n/a	n/a	n/a	n/a	n/a	n/a	n/a	n/a	n/a	n/a	n/a	n/a	n/a	n/a	n/a
618.91	n/a	WORD	309455	wordpools/wasnorm_wordpool_less_exclusions.txt	LTP263	ltpFR	13	2	1	PERSONNEL	1053	n/a	n/a	1	n/a	0	0	0	0.57763671875	0.412841796875	1	upper	zerothre.ttf
621.924	n/a	START	310962	n/a	LTP263	ltpFR	13	n/a	n/a	n/a	n/a	n/a	n/a	n/a	n/a	n/a	n/a	n/a	n/a	n/a	n/a	n/a	n/a
623.032	n/a	PROB	311516	n/a	LTP263	ltpFR	13	n/a	n/a	n/a	n/a	n/a	n/a	n/a	22	9	8	6	n/a	n/a	n/a	n/a	n/a
626.206	n/a	PROB	313103	n/a	LTP263	ltpFR	13	n/a	n/a	n/a	n/a	n/a	n/a	n/a	8	6	1	1	n/a	n/a	n/a	n/a	n/a
629.924	n/a	STOP	314962	n/a	LTP263	ltpFR	13	n/a	n/a	n/a	n/a	n/a	n/a	n/a	n/a	n/a	n/a	n/a	n/a	n/a	n/a	n/a	n/a
630.962	n/a	WORD	315481	wordpools/wasnorm_wordpool_less_exclusions.txt	LTP263	ltpFR	13	2	1	CLASS	318	n/a	n/a	1	n/a	0	0	0	0.57763671875	0.412841796875	1	upper	zerothre.ttf
633.974	n/a	START	316987	n/a	LTP263	ltpFR	13	n/a	n/a	n/a	n/a	n/a	n/a	n/a	n/a	n/a	n/a	n/a	n/a	n/a	n/a	n/a	n/a
634.86	n/a	PROB	317430	n/a	LTP263	ltpFR	13	n/a	n/a	n/a	n/a	n/a	n/a	n/a	15	3	3	9	n/a	n/a	n/a	n/a	n/a
637.9	n/a	PROB	318950	n/a	LTP263	ltpFR	13	n/a	n/a	n/a	n/a	n/a	n/a	n/a	26	7	9	9	n/a	n/a	n/a	n/a	n/a
640.678	n/a	STOP	320339	n/a	LTP263	ltpFR	13	n/a	n/a	n/a	n/a	n/a	n/a	n/a	n/a	n/a	n/a	n/a	n/a	n/a	n/a	n/a	n/a
643.172	n/a	WORD	321586	wordpools/wasnorm_wordpool_less_exclusions.txt	LTP263	ltpFR	13	2	1	BEAVER	109	n/a	n/a	1	n/a	0	0	0	0.57763671875	0.412841796875	1	upper	zerothre.ttf
646.19	n/a	START	323095	n/a	LTP263	ltpFR	13	n/a	n/a	n/a	n/a	n/a	n/a	n/a	n/a	n/a	n/a	n/a	n/a	n/a	n/a	n/a	n/a
647.018	n/a	PROB	323509	n/a	LTP263	ltpFR	13	n/a	n/a	n/a	n/a	n/a	n/a	n/a	18	5	9	4	n/a	n/a	n/a	n/a	n/a
648.926	n/a	PROB	324463	n/a	LTP263	ltpFR	13	n/a	n/a	n/a	n/a	n/a	n/a	n/a	15	3	5	7	n/a	n/a	n/a	n/a	n/a
650.27	n/a	PROB	325135	n/a	LTP263	ltpFR	13	n/a	n/a	n/a	n/a	n/a	n/a	n/a	17	9	1	7	n/a	n/a	n/a	n/a	n/a
651.536	n/a	PROB	325768	n/a	LTP263	ltpFR	13	n/a	n/a	n/a	n/a	n/a	n/a	n/a	9	3	5	1	n/a	n/a	n/a	n/a	n/a
652.806	n/a	STOP	326403	n/a	LTP263	ltpFR	13	n/a	n/a	n/a	n/a	n/a	n/a	n/a	n/a	n/a	n/a	n/a	n/a	n/a	n/a	n/a	n/a
655.184	n/a	WORD	327592	wordpools/wasnorm_wordpool_less_exclusions.txt	LTP263	ltpFR	13	2	0	RUST	1219	n/a	n/a	0	n/a	0	0	0	0.422607421875	0.5869140625	0	lower	amplitud.ttf
658.196	n/a	START	329098	n/a	LTP263	ltpFR	13	n/a	n/a	n/a	n/a	n/a	n/a	n/a	n/a	n/a	n/a	n/a	n/a	n/a	n/a	n/a	n/a
659.15	n/a	PROB	329575	n/a	LTP263	ltpFR	13	n/a	n/a	n/a	n/a	n/a	n/a	n/a	7	3	1	3	n/a	n/a	n/a	n/a	n/a
660.308	n/a	PROB	330154	n/a	LTP263	ltpFR	13	n/a	n/a	n/a	n/a	n/a	n/a	n/a	22	9	5	8	n/a	n/a	n/a	n/a	n/a
661.998	n/a	PROB	330999	n/a	LTP263	ltpFR	13	n/a	n/a	n/a	n/a	n/a	n/a	n/a	19	9	9	1	n/a	n/a	n/a	n/a	n/a
663.182	n/a	PROB	331591	n/a	LTP263	ltpFR	13	n/a	n/a	n/a	n/a	n/a	n/a	n/a	16	4	3	9	n/a	n/a	n/a	n/a	n/a
664.792	n/a	STOP	332396	n/a	LTP263	ltpFR	13	n/a	n/a	n/a	n/a	n/a	n/a	n/a	n/a	n/a	n/a	n/a	n/a	n/a	n/a	n/a	n/a
667.17	n/a	WORD	333585	wordpools/wasnorm_wordpool_less_exclusions.txt	LTP263	ltpFR	13	2	0	TICKET	1464	n/a	n/a	0	n/a	0	0	0	0.422607421875	0.5869140625	0	lower	amplitud.ttf
670.18	n/a	START	335090	n/a	LTP263	ltpFR	13	n/a	n/a	n/a	n/a	n/a	n/a	n/a	n/a	n/a	n/a	n/a	n/a	n/a	n/a	n/a	n/a
671.328	n/a	PROB	335664	n/a	LTP263	ltpFR	13	n/a	n/a	n/a	n/a	n/a	n/a	n/a	14	4	1	9	n/a	n/a	n/a	n/a	n/a
672.756	n/a	PROB	336378	n/a	LTP263	ltpFR	13	n/a	n/a	n/a	n/a	n/a	n/a	n/a	9	3	3	3	n/a	n/a	n/a	n/a	n/a
673.826	n/a	PROB	336913	n/a	LTP263	ltpFR	13	n/a	n/a	n/a	n/a	n/a	n/a	n/a	13	5	1	7	n/a	n/a	n/a	n/a	n/a
675.326	n/a	PROB	337663	n/a	LTP263	ltpFR	13	n/a	n/a	n/a	n/a	n/a	n/a	n/a	10	1	6	3	n/a	n/a	n/a	n/a	n/a
677.376	n/a	STOP	338688	n/a	LTP263	ltpFR	13	n/a	n/a	n/a	n/a	n/a	n/a	n/a	n/a	n/a	n/a	n/a	n/a	n/a	n/a	n/a	n/a
679.03	n/a	WORD	339515	wordpools/wasnorm_wordpool_less_exclusions.txt	LTP263	ltpFR	13	2	0	SICKLE	1302	n/a	n/a	0	n/a	0	0	0	0.422607421875	0.5869140625	0	lower	amplitud.ttf
682.042	n/a	START	341021	n/a	LTP263	ltpFR	13	n/a	n/a	n/a	n/a	n/a	n/a	n/a	n/a	n/a	n/a	n/a	n/a	n/a	n/a	n/a	n/a
682.906	n/a	PROB	341453	n/a	LTP263	ltpFR	13	n/a	n/a	n/a	n/a	n/a	n/a	n/a	18	8	7	3	n/a	n/a	n/a	n/a	n/a
684.528	n/a	PROB	342264	n/a	LTP263	ltpFR	13	n/a	n/a	n/a	n/a	n/a	n/a	n/a	13	7	2	4	n/a	n/a	n/a	n/a	n/a
686.652	n/a	PROB	343326	n/a	LTP263	ltpFR	13	n/a	n/a	n/a	n/a	n/a	n/a	n/a	16	6	2	8	n/a	n/a	n/a	n/a	n/a
688.008	n/a	PROB	344004	n/a	LTP263	ltpFR	13	n/a	n/a	n/a	n/a	n/a	n/a	n/a	13	6	6	1	n/a	n/a	n/a	n/a	n/a
689.232	n/a	STOP	344616	n/a	LTP263	ltpFR	13	n/a	n/a	n/a	n/a	n/a	n/a	n/a	n/a	n/a	n/a	n/a	n/a	n/a	n/a	n/a	n/a
691.076	n/a	WORD	345538	wordpools/wasnorm_wordpool_less_exclusions.txt	LTP263	ltpFR	13	2	1	FAMILY	550	n/a	n/a	1	n/a	0	0	0	0.57763671875	0.412841796875	1	upper	zerothre.ttf
694.088	n/a	START	347044	n/a	LTP263	ltpFR	13	n/a	n/a	n/a	n/a	n/a	n/a	n/a	n/a	n/a	n/a	n/a	n/a	n/a	n/a	n/a	n/a
695.086	n/a	PROB	347543	n/a	LTP263	ltpFR	13	n/a	n/a	n/a	n/a	n/a	n/a	n/a	21	9	4	8	n/a	n/a	n/a	n/a	n/a
697.584	n/a	PROB	348792	n/a	LTP263	ltpFR	13	n/a	n/a	n/a	n/a	n/a	n/a	n/a	21	6	6	9	n/a	n/a	n/a	n/a	n/a
699.074	n/a	PROB	349537	n/a	LTP263	ltpFR	13	n/a	n/a	n/a	n/a	n/a	n/a	n/a	8	2	1	5	n/a	n/a	n/a	n/a	n/a
700.514	n/a	STOP	350257	n/a	LTP263	ltpFR	13	n/a	n/a	n/a	n/a	n/a	n/a	n/a	n/a	n/a	n/a	n/a	n/a	n/a	n/a	n/a	n/a
703.038	n/a	WORD	351519	wordpools/wasnorm_wordpool_less_exclusions.txt	LTP263	ltpFR	13	2	1	SNEAKER	1334	n/a	n/a	0	n/a	0	0	0	0.57763671875	0.412841796875	1	upper	zerothre.ttf
706.052	n/a	START	353026	n/a	LTP263	ltpFR	13	n/a	n/a	n/a	n/a	n/a	n/a	n/a	n/a	n/a	n/a	n/a	n/a	n/a	n/a	n/a	n/a
707.088	n/a	PROB	353544	n/a	LTP263	ltpFR	13	n/a	n/a	n/a	n/a	n/a	n/a	n/a	18	7	8	3	n/a	n/a	n/a	n/a	n/a
708.476	n/a	PROB	354238	n/a	LTP263	ltpFR	13	n/a	n/a	n/a	n/a	n/a	n/a	n/a	18	8	1	9	n/a	n/a	n/a	n/a	n/a
709.924	n/a	PROB	354962	n/a	LTP263	ltpFR	13	n/a	n/a	n/a	n/a	n/a	n/a	n/a	18	4	5	9	n/a	n/a	n/a	n/a	n/a
711.286	n/a	PROB	355643	n/a	LTP263	ltpFR	13	n/a	n/a	n/a	n/a	n/a	n/a	n/a	19	6	5	8	n/a	n/a	n/a	n/a	n/a
712.674	n/a	STOP	356337	n/a	LTP263	ltpFR	13	n/a	n/a	n/a	n/a	n/a	n/a	n/a	n/a	n/a	n/a	n/a	n/a	n/a	n/a	n/a	n/a
715.034	n/a	WORD	357517	wordpools/wasnorm_wordpool_less_exclusions.txt	LTP263	ltpFR	13	2	0	FOOT	590	n/a	n/a	0	n/a	0	0	0	0.422607421875	0.5869140625	0	lower	amplitud.ttf
718.046	n/a	START	359023	n/a	LTP263	ltpFR	13	n/a	n/a	n/a	n/a	n/a	n/a	n/a	n/a	n/a	n/a	n/a	n/a	n/a	n/a	n/a	n/a
719.118	n/a	PROB	359559	n/a	LTP263	ltpFR	13	n/a	n/a	n/a	n/a	n/a	n/a	n/a	21	9	3	9	n/a	n/a	n/a	n/a	n/a
720.466	n/a	PROB	360233	n/a	LTP263	ltpFR	13	n/a	n/a	n/a	n/a	n/a	n/a	n/a	19	5	5	9	n/a	n/a	n/a	n/a	n/a
721.56	n/a	PROB	360780	n/a	LTP263	ltpFR	13	n/a	n/a	n/a	n/a	n/a	n/a	n/a	18	8	4	6	n/a	n/a	n/a	n/a	n/a
723.1	n/a	PROB	361550	n/a	LTP263	ltpFR	13	n/a	n/a	n/a	n/a	n/a	n/a	n/a	18	8	5	5	n/a	n/a	n/a	n/a	n/a
724.296	n/a	PROB	362148	n/a	LTP263	ltpFR	13	n/a	n/a	n/a	n/a	n/a	n/a	n/a	13	1	7	5	n/a	n/a	n/a	n/a	n/a
725.61	n/a	STOP	362805	n/a	LTP263	ltpFR	13	n/a	n/a	n/a	n/a	n/a	n/a	n/a	n/a	n/a	n/a	n/a	n/a	n/a	n/a	n/a	n/a
727.258	n/a	WORD	363629	wordpools/wasnorm_wordpool_less_exclusions.txt	LTP263	ltpFR	13	2	0	STAGE	1366	n/a	n/a	1	n/a	0	0	0	0.422607421875	0.5869140625	0	lower	amplitud.ttf
730.27	n/a	START	365135	n/a	LTP263	ltpFR	13	n/a	n/a	n/a	n/a	n/a	n/a	n/a	n/a	n/a	n/a	n/a	n/a	n/a	n/a	n/a	n/a
731.196	n/a	PROB	365598	n/a	LTP263	ltpFR	13	n/a	n/a	n/a	n/a	n/a	n/a	n/a	5	3	1	1	n/a	n/a	n/a	n/a	n/a
732.2	n/a	PROB	366100	n/a	LTP263	ltpFR	13	n/a	n/a	n/a	n/a	n/a	n/a	n/a	11	3	6	2	n/a	n/a	n/a	n/a	n/a
733.5	n/a	PROB	366750	n/a	LTP263	ltpFR	13	n/a	n/a	n/a	n/a	n/a	n/a	n/a	10	3	3	4	n/a	n/a	n/a	n/a	n/a
735.19	n/a	PROB	367595	n/a	LTP263	ltpFR	13	n/a	n/a	n/a	n/a	n/a	n/a	n/a	19	8	5	6	n/a	n/a	n/a	n/a	n/a
736.694	n/a	PROB	368347	n/a	LTP263	ltpFR	13	n/a	n/a	n/a	n/a	n/a	n/a	n/a	10	2	5	3	n/a	n/a	n/a	n/a	n/a
738.188	n/a	STOP	369094	n/a	LTP263	ltpFR	13	n/a	n/a	n/a	n/a	n/a	n/a	n/a	n/a	n/a	n/a	n/a	n/a	n/a	n/a	n/a	n/a
740.116	n/a	REC_START	370058	n/a	LTP263	ltpFR	13	2	n/a	n/a	n/a	n/a	n/a	n/a	n/a	0	0	0	n/a	n/a	n/a	n/a	n/a
741.884	n/a	REC_WORD	370942	wordpools/wasnorm_wordpool_less_exclusions.txt	LTP263	ltpFR	13	2	0	HELICOPTER	701	n/a	n/a	1	n/a	0	0	0	n/a	n/a	n/a	n/a	n/a
743.346	n/a	REC_WORD	371673	wordpools/wasnorm_wordpool_less_exclusions.txt	LTP263	ltpFR	13	2	0	RUST	1219	n/a	n/a	0	n/a	0	0	0	n/a	n/a	n/a	n/a	n/a
747.628	n/a	REC_WORD	373814	wordpools/wasnorm_wordpool_less_exclusions.txt	LTP263	ltpFR	13	2	n/a	COBWEB	337	n/a	n/a	n/a	n/a	0	0	0	n/a	n/a	n/a	n/a	n/a
756.552	n/a	REC_WORD	378276	wordpools/wasnorm_wordpool_less_exclusions.txt	LTP263	ltpFR	13	2	1	FAMILY	550	n/a	n/a	1	n/a	0	0	0	n/a	n/a	n/a	n/a	n/a
767.994	n/a	REC_WORD	383997	wordpools/wasnorm_wordpool_less_exclusions.txt	LTP263	ltpFR	13	2	1	HAY	693	n/a	n/a	0	n/a	0	0	0	n/a	n/a	n/a	n/a	n/a
782.05	n/a	REC_WORD	391025	wordpools/wasnorm_wordpool_less_exclusions.txt	LTP263	ltpFR	13	2	0	SICKLE	1302	n/a	n/a	0	n/a	0	0	0	n/a	n/a	n/a	n/a	n/a
817.704	n/a	WORD	408852	wordpools/wasnorm_wordpool_less_exclusions.txt	LTP263	ltpFR	13	3	1	PHILOSOPHER	1054	n/a	n/a	1	n/a	0	0	0	0.57763671875	0.412841796875	1	upper	zerothre.ttf
821.558	n/a	WORD	410779	wordpools/wasnorm_wordpool_less_exclusions.txt	LTP263	ltpFR	13	3	1	STREAM	1392	n/a	n/a	1	n/a	0	0	0	0.57763671875	0.412841796875	1	upper	zerothre.ttf
825.388	n/a	WORD	412694	wordpools/wasnorm_wordpool_less_exclusions.txt	LTP263	ltpFR	13	3	1	SUSPECT	1415	n/a	n/a	1	n/a	0	0	0	0.57763671875	0.412841796875	1	upper	zerothre.ttf
829.488	n/a	WORD	414744	wordpools/wasnorm_wordpool_less_exclusions.txt	LTP263	ltpFR	13	3	1	MAT	877	n/a	n/a	0	n/a	0	0	0	0.57763671875	0.412841796875	1	upper	zerothre.ttf
833.414	n/a	WORD	416707	wordpools/wasnorm_wordpool_less_exclusions.txt	LTP263	ltpFR	13	3	1	BAY	102	n/a	n/a	1	n/a	0	0	0	0.57763671875	0.412841796875	1	upper	zerothre.ttf
837.352	n/a	WORD	418676	wordpools/wasnorm_wordpool_less_exclusions.txt	LTP263	ltpFR	13	3	1	CHAMBER	277	n/a	n/a	0	n/a	0	0	0	0.57763671875	0.412841796875	1	upper	zerothre.ttf
841.484	n/a	WORD	420742	wordpools/wasnorm_wordpool_less_exclusions.txt	LTP263	ltpFR	13	3	1	HOOP	716	n/a	n/a	0	n/a	0	0	0	0.57763671875	0.412841796875	1	upper	zerothre.ttf
845.432	n/a	WORD	422716	wordpools/wasnorm_wordpool_less_exclusions.txt	LTP263	ltpFR	13	3	1	CLOSET	326	n/a	n/a	0	n/a	0	0	0	0.57763671875	0.412841796875	1	upper	zerothre.ttf
849.592	n/a	WORD	424796	wordpools/wasnorm_wordpool_less_exclusions.txt	LTP263	ltpFR	13	3	1	CAPTAIN	239	n/a	n/a	1	n/a	0	0	0	0.57763671875	0.412841796875	1	upper	zerothre.ttf
853.474	n/a	WORD	426737	wordpools/wasnorm_wordpool_less_exclusions.txt	LTP263	ltpFR	13	3	1	BELL	118	n/a	n/a	0	n/a	0	0	0	0.57763671875	0.412841796875	1	upper	zerothre.ttf
857.528	n/a	WORD	428764	wordpools/wasnorm_wordpool_less_exclusions.txt	LTP263	ltpFR	13	3	1	EDITOR	516	n/a	n/a	1	n/a	0	0	0	0.57763671875	0.412841796875	1	upper	zerothre.ttf
861.544	n/a	WORD	430772	wordpools/wasnorm_wordpool_less_exclusions.txt	LTP263	ltpFR	13	3	1	EDITORIAL	517	n/a	n/a	0	n/a	0	0	0	0.57763671875	0.412841796875	1	upper	zerothre.ttf
865.76	n/a	WORD	432880	wordpools/wasnorm_wordpool_less_exclusions.txt	LTP263	ltpFR	13	3	1	DONKEY	484	n/a	n/a	1	n/a	0	0	0	0.57763671875	0.412841796875	1	upper	zerothre.ttf
869.892	n/a	WORD	434946	wordpools/wasnorm_wordpool_less_exclusions.txt	LTP263	ltpFR	13	3	1	CARRIAGE	248	n/a	n/a	0	n/a	0	0	0	0.57763671875	0.412841796875	1	upper	zerothre.ttf
873.784	n/a	WORD	436892	wordpools/wasnorm_wordpool_less_exclusions.txt	LTP263	ltpFR	13	3	1	PENNY	1045	n/a	n/a	0	n/a	0	0	0	0.57763671875	0.412841796875	1	upper	zerothre.ttf
877.924	n/a	WORD	438962	wordpools/wasnorm_wordpool_less_exclusions.txt	LTP263	ltpFR	13	3	1	POCKETBOOK	1094	n/a	n/a	0	n/a	0	0	0	0.57763671875	0.412841796875	1	upper	zerothre.ttf
880.934	n/a	START	440467	n/a	LTP263	ltpFR	13	n/a	n/a	n/a	n/a	n/a	n/a	n/a	n/a	n/a	n/a	n/a	n/a	n/a	n/a	n/a	n/a
881.888	n/a	PROB	440944	n/a	LTP263	ltpFR	13	n/a	n/a	n/a	n/a	n/a	n/a	n/a	14	2	5	7	n/a	n/a	n/a	n/a	n/a
884.308	n/a	PROB	442154	n/a	LTP263	ltpFR	13	n/a	n/a	n/a	n/a	n/a	n/a	n/a	11	4	3	4	n/a	n/a	n/a	n/a	n/a
885.932	n/a	PROB	442966	n/a	LTP263	ltpFR	13	n/a	n/a	n/a	n/a	n/a	n/a	n/a	16	1	7	8	n/a	n/a	n/a	n/a	n/a
887.484	n/a	STOP	443742	n/a	LTP263	ltpFR	13	n/a	n/a	n/a	n/a	n/a	n/a	n/a	n/a	n/a	n/a	n/a	n/a	n/a	n/a	n/a	n/a
890.75	n/a	REC_START	445375	n/a	LTP263	ltpFR	13	3	n/a	n/a	n/a	n/a	n/a	n/a	n/a	0	0	0	n/a	n/a	n/a	n/a	n/a
892.036	n/a	REC_WORD	446018	wordpools/wasnorm_wordpool_less_exclusions.txt	LTP263	ltpFR	13	3	1	PHILOSOPHER	1054	n/a	n/a	1	n/a	0	0	0	n/a	n/a	n/a	n/a	n/a
895.434	n/a	REC_WORD	447717	wordpools/wasnorm_wordpool_less_exclusions.txt	LTP263	ltpFR	13	3	1	STREAM	1392	n/a	n/a	1	n/a	0	0	0	n/a	n/a	n/a	n/a	n/a
896.802	n/a	REC_WORD	448401	wordpools/wasnorm_wordpool_less_exclusions.txt	LTP263	ltpFR	13	3	1	DONKEY	484	n/a	n/a	1	n/a	0	0	0	n/a	n/a	n/a	n/a	n/a
897.988	n/a	REC_WORD	448994	wordpools/wasnorm_wordpool_less_exclusions.txt	LTP263	ltpFR	13	3	1	CARRIAGE	248	n/a	n/a	0	n/a	0	0	0	n/a	n/a	n/a	n/a	n/a
899.326	n/a	REC_WORD	449663	wordpools/wasnorm_wordpool_less_exclusions.txt	LTP263	ltpFR	13	3	1	PENNY	1045	n/a	n/a	0	n/a	0	0	0	n/a	n/a	n/a	n/a	n/a
900.746	n/a	REC_WORD	450373	wordpools/wasnorm_wordpool_less_exclusions.txt	LTP263	ltpFR	13	3	1	POCKETBOOK	1094	n/a	n/a	0	n/a	0	0	0	n/a	n/a	n/a	n/a	n/a
902.094	n/a	REC_WORD	451047	wordpools/wasnorm_wordpool_less_exclusions.txt	LTP263	ltpFR	13	3	1	CHAMBER	277	n/a	n/a	0	n/a	0	0	0	n/a	n/a	n/a	n/a	n/a
903.496	n/a	REC_WORD	451748	wordpools/wasnorm_wordpool_less_exclusions.txt	LTP263	ltpFR	13	3	1	HOOP	716	n/a	n/a	0	n/a	0	0	0	n/a	n/a	n/a	n/a	n/a
917.104	n/a	REC_WORD	458552	wordpools/wasnorm_wordpool_less_exclusions.txt	LTP263	ltpFR	13	3	1	BAY	102	n/a	n/a	1	n/a	0	0	0	n/a	n/a	n/a	n/a	n/a
923.1	n/a	REC_WORD	461550	wordpools/wasnorm_wordpool_less_exclusions.txt	LTP263	ltpFR	13	3	1	SUSPECT	1415	n/a	n/a	1	n/a	0	0	0	n/a	n/a	n/a	n/a	n/a
925.98	n/a	REC_WORD	462990	wordpools/wasnorm_wordpool_less_exclusions.txt	LTP263	ltpFR	13	3	1	MAT	877	n/a	n/a	0	n/a	0	0	0	n/a	n/a	n/a	n/a	n/a
941.498	n/a	REC_WORD	470749	wordpools/wasnorm_wordpool_less_exclusions.txt	LTP263	ltpFR	13	3	1	EDITOR	516	n/a	n/a	1	n/a	0	0	0	n/a	n/a	n/a	n/a	n/a
942.444	n/a	REC_WORD	471222	wordpools/wasnorm_wordpool_less_exclusions.txt	LTP263	ltpFR	13	3	1	EDITORIAL	517	n/a	n/a	0	n/a	0	0	0	n/a	n/a	n/a	n/a	n/a
968.246	n/a	WORD	484123	wordpools/wasnorm_wordpool_less_exclusions.txt	LTP263	ltpFR	13	4	1	SODA	1341	n/a	n/a	0	n/a	0	0	0	0.57763671875	0.412841796875	1	upper	zerothre.ttf
972.202	n/a	WORD	486101	wordpools/wasnorm_wordpool_less_exclusions.txt	LTP263	ltpFR	13	4	1	LIBRARY	816	n/a	n/a	0	n/a	0	0	0	0.57763671875	0.412841796875	1	upper	zerothre.ttf
976.048	n/a	WORD	488024	wordpools/wasnorm_wordpool_less_exclusions.txt	LTP263	ltpFR	13	4	1	PIRATE	1074	n/a	n/a	1	n/a	0	0	0	0.57763671875	0.412841796875	1	upper	zerothre.ttf
980.132	n/a	WORD	490066	wordpools/wasnorm_wordpool_less_exclusions.txt	LTP263	ltpFR	13	4	1	OAR	966	n/a	n/a	0	n/a	0	0	0	0.57763671875	0.412841796875	1	upper	zerothre.ttf
984.348	n/a	WORD	492174	wordpools/wasnorm_wordpool_less_exclusions.txt	LTP263	ltpFR	13	4	1	MARKER	870	n/a	n/a	0	n/a	0	0	0	0.57763671875	0.412841796875	1	upper	zerothre.ttf
988.23	n/a	WORD	494115	wordpools/wasnorm_wordpool_less_exclusions.txt	LTP263	ltpFR	13	4	1	WRENCH	1625	n/a	n/a	0	n/a	0	0	0	0.57763671875	0.412841796875	1	upper	zerothre.ttf
992.428	n/a	WORD	496214	wordpools/wasnorm_wordpool_less_exclusions.txt	LTP263	ltpFR	13	4	1	PAD	998	n/a	n/a	0	n/a	0	0	0	0.57763671875	0.412841796875	1	upper	zerothre.ttf
996.402	n/a	WORD	498201	wordpools/wasnorm_wordpool_less_exclusions.txt	LTP263	ltpFR	13	4	1	XEROX	1628	n/a	n/a	0	n/a	0	0	0	0.57763671875	0.412841796875	1	upper	zerothre.ttf
1000.626	n/a	WORD	500313	wordpools/wasnorm_wordpool_less_exclusions.txt	LTP263	ltpFR	13	4	1	STALLION	1369	n/a	n/a	1	n/a	0	0	0	0.57763671875	0.412841796875	1	upper	zerothre.ttf
1004.484	n/a	WORD	502242	wordpools/wasnorm_wordpool_less_exclusions.txt	LTP263	ltpFR	13	4	1	HOUND	724	n/a	n/a	1	n/a	0	0	0	0.57763671875	0.412841796875	1	upper	zerothre.ttf
1008.656	n/a	WORD	504328	wordpools/wasnorm_wordpool_less_exclusions.txt	LTP263	ltpFR	13	4	1	TILE	1468	n/a	n/a	0	n/a	0	0	0	0.57763671875	0.412841796875	1	upper	zerothre.ttf
1012.654	n/a	WORD	506327	wordpools/wasnorm_wordpool_less_exclusions.txt	LTP263	ltpFR	13	4	1	POTTERY	1116	n/a	n/a	0	n/a	0	0	0	0.57763671875	0.412841796875	1	upper	zerothre.ttf
1016.704	n/a	WORD	508352	wordpools/wasnorm_wordpool_less_exclusions.txt	LTP263	ltpFR	13	4	1	BOOK	149	n/a	n/a	0	n/a	0	0	0	0.57763671875	0.412841796875	1	upper	zerothre.ttf
1020.568	n/a	WORD	510284	wordpools/wasnorm_wordpool_less_exclusions.txt	LTP263	ltpFR	13	4	1	BULLETIN	195	n/a	n/a	0	n/a	0	0	0	0.57763671875	0.412841796875	1	upper	zerothre.ttf
1024.416	n/a	WORD	512208	wordpools/wasnorm_wordpool_less_exclusions.txt	LTP263	ltpFR	13	4	1	FOX	598	n/a	n/a	0	n/a	0	0	0	0.57763671875	0.412841796875	1	upper	zerothre.ttf
1028.248	n/a	WORD	514124	wordpools/wasnorm_wordpool_less_exclusions.txt	LTP263	ltpFR	13	4	1	OX	994	n/a	n/a	0	n/a	0	0	0	0.57763671875	0.412841796875	1	upper	zerothre.ttf
1033.846	n/a	REC_START	516923	n/a	LTP263	ltpFR	13	4	n/a	n/a	n/a	n/a	n/a	n/a	n/a	0	0	0	n/a	n/a	n/a	n/a	n/a
1035.156	n/a	REC_WORD	517578	wordpools/wasnorm_wordpool_less_exclusions.txt	LTP263	ltpFR	13	4	1	HOUND	724	n/a	n/a	1	n/a	0	0	0	n/a	n/a	n/a	n/a	n/a
1036.196	n/a	REC_WORD	518098	wordpools/wasnorm_wordpool_less_exclusions.txt	LTP263	ltpFR	13	4	1	FOX	598	n/a	n/a	0	n/a	0	0	0	n/a	n/a	n/a	n/a	n/a
1037.3	n/a	REC_WORD	518650	wordpools/wasnorm_wordpool_less_exclusions.txt	LTP263	ltpFR	13	4	1	OX	994	n/a	n/a	0	n/a	0	0	0	n/a	n/a	n/a	n/a	n/a
1038.16	n/a	REC_WORD	519080	wordpools/wasnorm_wordpool_less_exclusions.txt	LTP263	ltpFR	13	4	1	STALLION	1369	n/a	n/a	1	n/a	0	0	0	n/a	n/a	n/a	n/a	n/a
1039.478	n/a	REC_WORD	519739	wordpools/wasnorm_wordpool_less_exclusions.txt	LTP263	ltpFR	13	4	1	BULLETIN	195	n/a	n/a	0	n/a	0	0	0	n/a	n/a	n/a	n/a	n/a
1041.068	n/a	REC_WORD	520534	wordpools/wasnorm_wordpool_less_exclusions.txt	LTP263	ltpFR	13	4	1	BOOK	149	n/a	n/a	0	n/a	0	0	0	n/a	n/a	n/a	n/a	n/a
1042.73	n/a	REC_WORD	521365	wordpools/wasnorm_wordpool_less_exclusions.txt	LTP263	ltpFR	13	4	1	TILE	1468	n/a	n/a	0	n/a	0	0	0	n/a	n/a	n/a	n/a	n/a
1044.034	n/a	REC_WORD	522017	wordpools/wasnorm_wordpool_less_exclusions.txt	LTP263	ltpFR	13	4	1	POTTERY	1116	n/a	n/a	0	n/a	0	0	0	n/a	n/a	n/a	n/a	n/a
1045.402	n/a	REC_WORD	522701	wordpools/wasnorm_wordpool_less_exclusions.txt	LTP263	ltpFR	13	4	1	PIRATE	1074	n/a	n/a	1	n/a	0	0	0	n/a	n/a	n/a	n/a	n/a
1046.71	n/a	REC_WORD	523355	wordpools/wasnorm_wordpool_less_exclusions.txt	LTP263	ltpFR	13	4	1	OAR	966	n/a	n/a	0	n/a	0	0	0	n/a	n/a	n/a	n/a	n/a
1048.1	n/a	REC_WORD	524050	wordpools/wasnorm_wordpool_less_exclusions.txt	LTP263	ltpFR	13	4	1	LIBRARY	816	n/a	n/a	0	n/a	0	0	0	n/a	n/a	n/a	n/a	n/a
1050.324	n/a	REC_WORD	525162	wordpools/wasnorm_wordpool_less_exclusions.txt	LTP263	ltpFR	13	4	1	WRENCH	1625	n/a	n/a	0	n/a	0	0	0	n/a	n/a	n/a	n/a	n/a
1051.662	n/a	REC_WORD	525831	wordpools/wasnorm_wordpool_less_exclusions.txt	LTP263	ltpFR	13	4	1	PAD	998	n/a	n/a	0	n/a	0	0	0	n/a	n/a	n/a	n/a	n/a
1053.034	n/a	REC_WORD	526517	wordpools/wasnorm_wordpool_less_exclusions.txt	LTP263	ltpFR	13	4	1	MARKER	870	n/a	n/a	0	n/a	0	0	0	n/a	n/a	n/a	n/a	n/a
1111.36	n/a	WORD	555680	wordpools/wasnorm_wordpool_less_exclusions.txt	LTP263	ltpFR	13	5	0	BRANCH	168	n/a	n/a	0	n/a	0	0	0	0.422607421875	0.5869140625	0	lower	amplitud.ttf
1115.516	n/a	WORD	557758	wordpools/wasnorm_wordpool_less_exclusions.txt	LTP263	ltpFR	13	5	0	VEAL	1551	n/a	n/a	0	n/a	0	0	0	0.422607421875	0.5869140625	0	lower	amplitud.ttf
1119.664	n/a	WORD	559832	wordpools/wasnorm_wordpool_less_exclusions.txt	LTP263	ltpFR	13	5	0	PELT	1040	n/a	n/a	0	n/a	0	0	0	0.422607421875	0.5869140625	0	lower	amplitud.ttf
1123.746	n/a	WORD	561873	wordpools/wasnorm_wordpool_less_exclusions.txt	LTP263	ltpFR	13	5	0	PLASTER	1085	n/a	n/a	0	n/a	0	0	0	0.422607421875	0.5869140625	0	lower	amplitud.ttf
1127.754	n/a	WORD	563877	wordpools/wasnorm_wordpool_less_exclusions.txt	LTP263	ltpFR	13	5	0	BRICK	172	n/a	n/a	0	n/a	0	0	0	0.422607421875	0.5869140625	0	lower	amplitud.ttf
1131.922	n/a	WORD	565961	wordpools/wasnorm_wordpool_less_exclusions.txt	LTP263	ltpFR	13	5	0	SAP	1233	n/a	n/a	0	n/a	0	0	0	0.422607421875	0.5869140625	0	lower	amplitud.ttf
1136.054	n/a	WORD	568027	wordpools/wasnorm_wordpool_less_exclusions.txt	LTP263	ltpFR	13	5	0	OCEAN	970	n/a	n/a	1	n/a	0	0	0	0.422607421875	0.5869140625	0	lower	amplitud.ttf
1140.052	n/a	WORD	570026	wordpools/wasnorm_wordpool_less_exclusions.txt	LTP263	ltpFR	13	5	0	ASHTRAY	45	n/a	n/a	0	n/a	0	0	0	0.422607421875	0.5869140625	0	lower	amplitud.ttf
1143.974	n/a	WORD	571987	wordpools/wasnorm_wordpool_less_exclusions.txt	LTP263	ltpFR	13	5	0	TORCH	1484	n/a	n/a	0	n/a	0	0	0	0.422607421875	0.5869140625	0	lower	amplitud.ttf
1147.882	n/a	WORD	573941	wordpools/wasnorm_wordpool_less_exclusions.txt	LTP263	ltpFR	13	5	0	WHIP	1604	n/a	n/a	0	n/a	0	0	0	0.422607421875	0.5869140625	0	lower	amplitud.ttf
1152.022	n/a	WORD	576011	wordpools/wasnorm_wordpool_less_exclusions.txt	LTP263	ltpFR	13	5	0	MUSTARD	935	n/a	n/a	0	n/a	0	0	0	0.422607421875	0.5869140625	0	lower	amplitud.ttf
1156.002	n/a	WORD	578001	wordpools/wasnorm_wordpool_less_exclusions.txt	LTP263	ltpFR	13	5	0	PASSENGER	1020	n/a	n/a	1	n/a	0	0	0	0.422607421875	0.5869140625	0	lower	amplitud.ttf
1160.046	n/a	WORD	580023	wordpools/wasnorm_wordpool_less_exclusions.txt	LTP263	ltpFR	13	5	0	AIRCRAFT	11	n/a	n/a	1	n/a	0	0	0	0.422607421875	0.5869140625	0	lower	amplitud.ttf
1164.228	n/a	WORD	582114	wordpools/wasnorm_wordpool_less_exclusions.txt	LTP263	ltpFR	13	5	0	STREET	1393	n/a	n/a	1	n/a	0	0	0	0.422607421875	0.5869140625	0	lower	amplitud.ttf
1168.368	n/a	WORD	584184	wordpools/wasnorm_wordpool_less_exclusions.txt	LTP263	ltpFR	13	5	0	BROTHER	179	n/a	n/a	1	n/a	0	0	0	0.422607421875	0.5869140625	0	lower	amplitud.ttf
1172.482	n/a	WORD	586241	wordpools/wasnorm_wordpool_less_exclusions.txt	LTP263	ltpFR	13	5	0	SUBWAY	1400	n/a	n/a	1	n/a	0	0	0	0.422607421875	0.5869140625	0	lower	amplitud.ttf
1175.494	n/a	START	587747	n/a	LTP263	ltpFR	13	n/a	n/a	n/a	n/a	n/a	n/a	n/a	n/a	n/a	n/a	n/a	n/a	n/a	n/a	n/a	n/a
1176.33	n/a	PROB	588165	n/a	LTP263	ltpFR	13	n/a	n/a	n/a	n/a	n/a	n/a	n/a	21	8	4	9	n/a	n/a	n/a	n/a	n/a
1181.1	n/a	PROB	590550	n/a	LTP263	ltpFR	13	n/a	n/a	n/a	n/a	n/a	n/a	n/a	1	1	5	5	n/a	n/a	n/a	n/a	n/a
1182.238	n/a	PROB	591119	n/a	LTP263	ltpFR	13	n/a	n/a	n/a	n/a	n/a	n/a	n/a	7	1	2	4	n/a	n/a	n/a	n/a	n/a
1183.718	n/a	PROB	591859	n/a	LTP263	ltpFR	13	n/a	n/a	n/a	n/a	n/a	n/a	n/a	16	1	9	6	n/a	n/a	n/a	n/a	n/a
1184.856	n/a	PROB	592428	n/a	LTP263	ltpFR	13	n/a	n/a	n/a	n/a	n/a	n/a	n/a	12	5	3	4	n/a	n/a	n/a	n/a	n/a
1187.34	n/a	PROB	593670	n/a	LTP263	ltpFR	13	n/a	n/a	n/a	n/a	n/a	n/a	n/a	11	4	5	2	n/a	n/a	n/a	n/a	n/a
1188.856	n/a	PROB	594428	n/a	LTP263	ltpFR	13	n/a	n/a	n/a	n/a	n/a	n/a	n/a	7	2	2	3	n/a	n/a	n/a	n/a	n/a
1189.996	n/a	STOP	594998	n/a	LTP263	ltpFR	13	n/a	n/a	n/a	n/a	n/a	n/a	n/a	n/a	n/a	n/a	n/a	n/a	n/a	n/a	n/a	n/a
1193.39	n/a	REC_START	596695	n/a	LTP263	ltpFR	13	5	n/a	n/a	n/a	n/a	n/a	n/a	n/a	0	0	0	n/a	n/a	n/a	n/a	n/a
1194.242	n/a	REC_WORD	597121	wordpools/wasnorm_wordpool_less_exclusions.txt	LTP263	ltpFR	13	5	0	BROTHER	179	n/a	n/a	1	n/a	0	0	0	n/a	n/a	n/a	n/a	n/a
1195.044	n/a	REC_WORD	597522	wordpools/wasnorm_wordpool_less_exclusions.txt	LTP263	ltpFR	13	5	0	SUBWAY	1400	n/a	n/a	1	n/a	0	0	0	n/a	n/a	n/a	n/a	n/a
1196.13	n/a	REC_WORD	598065	wordpools/wasnorm_wordpool_less_exclusions.txt	LTP263	ltpFR	13	5	0	AIRCRAFT	11	n/a	n/a	1	n/a	0	0	0	n/a	n/a	n/a	n/a	n/a
1197.686	n/a	REC_WORD	598843	wordpools/wasnorm_wordpool_less_exclusions.txt	LTP263	ltpFR	13	5	0	STREET	1393	n/a	n/a	1	n/a	0	0	0	n/a	n/a	n/a	n/a	n/a
1198.774	n/a	REC_WORD	599387	wordpools/wasnorm_wordpool_less_exclusions.txt	LTP263	ltpFR	13	5	0	PASSENGER	1020	n/a	n/a	1	n/a	0	0	0	n/a	n/a	n/a	n/a	n/a
1200.996	n/a	REC_WORD	600498	wordpools/wasnorm_wordpool_less_exclusions.txt	LTP263	ltpFR	13	5	0	PLASTER	1085	n/a	n/a	0	n/a	0	0	0	n/a	n/a	n/a	n/a	n/a
1202.548	n/a	REC_WORD	601274	wordpools/wasnorm_wordpool_less_exclusions.txt	LTP263	ltpFR	13	5	0	BRANCH	168	n/a	n/a	0	n/a	0	0	0	n/a	n/a	n/a	n/a	n/a
1203.586	n/a	REC_WORD	601793	wordpools/wasnorm_wordpool_less_exclusions.txt	LTP263	ltpFR	13	5	0	SAP	1233	n/a	n/a	0	n/a	0	0	0	n/a	n/a	n/a	n/a	n/a
1204.806	n/a	REC_WORD	602403	wordpools/wasnorm_wordpool_less_exclusions.txt	LTP263	ltpFR	13	5	0	ASHTRAY	45	n/a	n/a	0	n/a	0	0	0	n/a	n/a	n/a	n/a	n/a
1206.01	n/a	REC_WORD	603005	wordpools/wasnorm_wordpool_less_exclusions.txt	LTP263	ltpFR	13	5	0	TORCH	1484	n/a	n/a	0	n/a	0	0	0	n/a	n/a	n/a	n/a	n/a
1207.284	n/a	REC_WORD	603642	wordpools/wasnorm_wordpool_less_exclusions.txt	LTP263	ltpFR	13	5	0	WHIP	1604	n/a	n/a	0	n/a	0	0	0	n/a	n/a	n/a	n/a	n/a
1208.47	n/a	REC_WORD	604235	wordpools/wasnorm_wordpool_less_exclusions.txt	LTP263	ltpFR	13	5	0	MUSTARD	935	n/a	n/a	0	n/a	0	0	0	n/a	n/a	n/a	n/a	n/a
1209.804	n/a	REC_WORD	604902	wordpools/wasnorm_wordpool_less_exclusions.txt	LTP263	ltpFR	13	5	0	VEAL	1551	n/a	n/a	0	n/a	0	0	0	n/a	n/a	n/a	n/a	n/a
1211.164	n/a	REC_WORD	605582	wordpools/wasnorm_wordpool_less_exclusions.txt	LTP263	ltpFR	13	5	0	PELT	1040	n/a	n/a	0	n/a	0	0	0	n/a	n/a	n/a	n/a	n/a
1269.37	n/a	START	634685	n/a	LTP263	ltpFR	13	n/a	n/a	n/a	n/a	n/a	n/a	n/a	n/a	n/a	n/a	n/a	n/a	n/a	n/a	n/a	n/a
1270.886	n/a	PROB	635443	n/a	LTP263	ltpFR	13	n/a	n/a	n/a	n/a	n/a	n/a	n/a	14	7	1	6	n/a	n/a	n/a	n/a	n/a
1272.86	n/a	PROB	636430	n/a	LTP263	ltpFR	13	n/a	n/a	n/a	n/a	n/a	n/a	n/a	19	2	8	9	n/a	n/a	n/a	n/a	n/a
1274.03	n/a	PROB	637015	n/a	LTP263	ltpFR	13	n/a	n/a	n/a	n/a	n/a	n/a	n/a	12	1	4	7	n/a	n/a	n/a	n/a	n/a
1276.14	n/a	PROB	638070	n/a	LTP263	ltpFR	13	n/a	n/a	n/a	n/a	n/a	n/a	n/a	13	6	4	3	n/a	n/a	n/a	n/a	n/a
1277.166	n/a	PROB	638583	n/a	LTP263	ltpFR	13	n/a	n/a	n/a	n/a	n/a	n/a	n/a	12	3	4	6	n/a	n/a	n/a	n/a	n/a
1279.34	n/a	PROB	639670	n/a	LTP263	ltpFR	13	n/a	n/a	n/a	n/a	n/a	n/a	n/a	17	1	9	7	n/a	n/a	n/a	n/a	n/a
1280.674	n/a	PROB	640337	n/a	LTP263	ltpFR	13	n/a	n/a	n/a	n/a	n/a	n/a	n/a	19	5	8	6	n/a	n/a	n/a	n/a	n/a
1283.006	n/a	PROB	641503	n/a	LTP263	ltpFR	13	n/a	n/a	n/a	n/a	n/a	n/a	n/a	19	9	5	5	n/a	n/a	n/a	n/a	n/a
1284.8	n/a	STOP	642400	n/a	LTP263	ltpFR	13	n/a	n/a	n/a	n/a	n/a	n/a	n/a	n/a	n/a	n/a	n/a	n/a	n/a	n/a	n/a	n/a
1286.502	n/a	WORD	643251	wordpools/wasnorm_wordpool_less_exclusions.txt	LTP263	ltpFR	13	6	1	LEADER	807	n/a	n/a	1	n/a	0	0	0	0.57763671875	0.412841796875	1	upper	zerothre.ttf
1289.514	n/a	START	644757	n/a	LTP263	ltpFR	13	n/a	n/a	n/a	n/a	n/a	n/a	n/a	n/a	n/a	n/a	n/a	n/a	n/a	n/a	n/a	n/a
1290.668	n/a	PROB	645334	n/a	LTP263	ltpFR	13	n/a	n/a	n/a	n/a	n/a	n/a	n/a	21	9	3	8	n/a	n/a	n/a	n/a	n/a
1292.418	n/a	PROB	646209	n/a	LTP263	ltpFR	13	n/a	n/a	n/a	n/a	n/a	n/a	n/a	8	3	2	3	n/a	n/a	n/a	n/a	n/a
1294.114	n/a	PROB	647057	n/a	LTP263	ltpFR	13	n/a	n/a	n/a	n/a	n/a	n/a	n/a	10	2	4	4	n/a	n/a	n/a	n/a	n/a
1295.328	n/a	PROB	647664	n/a	LTP263	ltpFR	13	n/a	n/a	n/a	n/a	n/a	n/a	n/a	14	1	8	5	n/a	n/a	n/a	n/a	n/a
1296.69	n/a	PROB	648345	n/a	LTP263	ltpFR	13	n/a	n/a	n/a	n/a	n/a	n/a	n/a	13	2	9	2	n/a	n/a	n/a	n/a	n/a
1298.692	n/a	PROB	649346	n/a	LTP263	ltpFR	13	n/a	n/a	n/a	n/a	n/a	n/a	n/a	9	1	4	4	n/a	n/a	n/a	n/a	n/a
1299.802	n/a	PROB	649901	n/a	LTP263	ltpFR	13	n/a	n/a	n/a	n/a	n/a	n/a	n/a	14	6	7	1	n/a	n/a	n/a	n/a	n/a
1301.844	n/a	PROB	650922	n/a	LTP263	ltpFR	13	n/a	n/a	n/a	n/a	n/a	n/a	n/a	23	8	7	8	n/a	n/a	n/a	n/a	n/a
1305.426	n/a	STOP	652713	n/a	LTP263	ltpFR	13	n/a	n/a	n/a	n/a	n/a	n/a	n/a	n/a	n/a	n/a	n/a	n/a	n/a	n/a	n/a	n/a
1306.622	n/a	WORD	653311	wordpools/wasnorm_wordpool_less_exclusions.txt	LTP263	ltpFR	13	6	1	PICKLE	1059	n/a	n/a	0	n/a	0	0	0	0.57763671875	0.412841796875	1	upper	zerothre.ttf
1309.64	n/a	START	654820	n/a	LTP263	ltpFR	13	n/a	n/a	n/a	n/a	n/a	n/a	n/a	n/a	n/a	n/a	n/a	n/a	n/a	n/a	n/a	n/a
1310.76	n/a	PROB	655380	n/a	LTP263	ltpFR	13	n/a	n/a	n/a	n/a	n/a	n/a	n/a	12	8	1	3	n/a	n/a	n/a	n/a	n/a
1312.228	n/a	PROB	656114	n/a	LTP263	ltpFR	13	n/a	n/a	n/a	n/a	n/a	n/a	n/a	15	7	4	4	n/a	n/a	n/a	n/a	n/a
1314.486	n/a	PROB	657243	n/a	LTP263	ltpFR	13	n/a	n/a	n/a	n/a	n/a	n/a	n/a	22	8	5	9	n/a	n/a	n/a	n/a	n/a
1316.46	n/a	PROB	658230	n/a	LTP263	ltpFR	13	n/a	n/a	n/a	n/a	n/a	n/a	n/a	18	2	9	7	n/a	n/a	n/a	n/a	n/a
1318.418	n/a	PROB	659209	n/a	LTP263	ltpFR	13	n/a	n/a	n/a	n/a	n/a	n/a	n/a	17	2	7	8	n/a	n/a	n/a	n/a	n/a
1320.058	n/a	PROB	660029	n/a	LTP263	ltpFR	13	n/a	n/a	n/a	n/a	n/a	n/a	n/a	5	1	3	1	n/a	n/a	n/a	n/a	n/a
1322.116	n/a	PROB	661058	n/a	LTP263	ltpFR	13	n/a	n/a	n/a	n/a	n/a	n/a	n/a	8	2	5	2	n/a	n/a	n/a	n/a	n/a
1323.828	n/a	PROB	661914	n/a	LTP263	ltpFR	13	n/a	n/a	n/a	n/a	n/a	n/a	n/a	8	2	5	1	n/a	n/a	n/a	n/a	n/a
1325.474	n/a	STOP	662737	n/a	LTP263	ltpFR	13	n/a	n/a	n/a	n/a	n/a	n/a	n/a	n/a	n/a	n/a	n/a	n/a	n/a	n/a	n/a	n/a
1326.604	n/a	WORD	663302	wordpools/wasnorm_wordpool_less_exclusions.txt	LTP263	ltpFR	13	6	1	LIZARD	834	n/a	n/a	1	n/a	0	0	0	0.57763671875	0.412841796875	1	upper	zerothre.ttf
1329.616	n/a	START	664808	n/a	LTP263	ltpFR	13	n/a	n/a	n/a	n/a	n/a	n/a	n/a	n/a	n/a	n/a	n/a	n/a	n/a	n/a	n/a	n/a
1330.52	n/a	PROB	665260	n/a	LTP263	ltpFR	13	n/a	n/a	n/a	n/a	n/a	n/a	n/a	10	2	4	4	n/a	n/a	n/a	n/a	n/a
1331.942	n/a	PROB	665971	n/a	LTP263	ltpFR	13	n/a	n/a	n/a	n/a	n/a	n/a	n/a	13	4	5	4	n/a	n/a	n/a	n/a	n/a
1337.324	n/a	PROB	668662	n/a	LTP263	ltpFR	13	n/a	n/a	n/a	n/a	n/a	n/a	n/a	12	8	1	3	n/a	n/a	n/a	n/a	n/a
1338.762	n/a	PROB	669381	n/a	LTP263	ltpFR	13	n/a	n/a	n/a	n/a	n/a	n/a	n/a	13	2	3	8	n/a	n/a	n/a	n/a	n/a
1340.988	n/a	PROB	670494	n/a	LTP263	ltpFR	13	n/a	n/a	n/a	n/a	n/a	n/a	n/a	18	9	7	2	n/a	n/a	n/a	n/a	n/a
1342.526	n/a	PROB	671263	n/a	LTP263	ltpFR	13	n/a	n/a	n/a	n/a	n/a	n/a	n/a	14	6	1	7	n/a	n/a	n/a	n/a	n/a
1344.212	n/a	STOP	672106	n/a	LTP263	ltpFR	13	n/a	n/a	n/a	n/a	n/a	n/a	n/a	n/a	n/a	n/a	n/a	n/a	n/a	n/a	n/a	n/a
1346.832	n/a	WORD	673416	wordpools/wasnorm_wordpool_less_exclusions.txt	LTP263	ltpFR	13	6	1	DICTATOR	462	n/a	n/a	1	n/a	0	0	0	0.57763671875	0.412841796875	1	upper	zerothre.ttf
1349.844	n/a	START	674922	n/a	LTP263	ltpFR	13	n/a	n/a	n/a	n/a	n/a	n/a	n/a	n/a	n/a	n/a	n/a	n/a	n/a	n/a	n/a	n/a
1350.664	n/a	PROB	675332	n/a	LTP263	ltpFR	13	n/a	n/a	n/a	n/a	n/a	n/a	n/a	16	5	7	4	n/a	n/a	n/a	n/a	n/a
1352.404	n/a	PROB	676202	n/a	LTP263	ltpFR	13	n/a	n/a	n/a	n/a	n/a	n/a	n/a	14	9	4	1	n/a	n/a	n/a	n/a	n/a
1353.634	n/a	PROB	676817	n/a	LTP263	ltpFR	13	n/a	n/a	n/a	n/a	n/a	n/a	n/a	22	5	8	9	n/a	n/a	n/a	n/a	n/a
1355.198	n/a	PROB	677599	n/a	LTP263	ltpFR	13	n/a	n/a	n/a	n/a	n/a	n/a	n/a	18	7	9	2	n/a	n/a	n/a	n/a	n/a
1356.664	n/a	PROB	678332	n/a	LTP263	ltpFR	13	n/a	n/a	n/a	n/a	n/a	n/a	n/a	16	6	2	7	n/a	n/a	n/a	n/a	n/a
1358.956	n/a	PROB	679478	n/a	LTP263	ltpFR	13	n/a	n/a	n/a	n/a	n/a	n/a	n/a	19	4	8	7	n/a	n/a	n/a	n/a	n/a
1361.616	n/a	PROB	680808	n/a	LTP263	ltpFR	13	n/a	n/a	n/a	n/a	n/a	n/a	n/a	17	7	1	9	n/a	n/a	n/a	n/a	n/a
1363.222	n/a	PROB	681611	n/a	LTP263	ltpFR	13	n/a	n/a	n/a	n/a	n/a	n/a	n/a	13	7	5	1	n/a	n/a	n/a	n/a	n/a
1364.348	n/a	STOP	682174	n/a	LTP263	ltpFR	13	n/a	n/a	n/a	n/a	n/a	n/a	n/a	n/a	n/a	n/a	n/a	n/a	n/a	n/a	n/a	n/a
1366.684	n/a	WORD	683342	wordpools/wasnorm_wordpool_less_exclusions.txt	LTP263	ltpFR	13	6	1	RIB	1188	n/a	n/a	0	n/a	0	0	0	0.57763671875	0.412841796875	1	upper	zerothre.ttf
1369.698	n/a	START	684849	n/a	LTP263	ltpFR	13	n/a	n/a	n/a	n/a	n/a	n/a	n/a	n/a	n/a	n/a	n/a	n/a	n/a	n/a	n/a	n/a
1370.606	n/a	PROB	685303	n/a	LTP263	ltpFR	13	n/a	n/a	n/a	n/a	n/a	n/a	n/a	16	5	7	4	n/a	n/a	n/a	n/a	n/a
1373.578	n/a	PROB	686789	n/a	LTP263	ltpFR	13	n/a	n/a	n/a	n/a	n/a	n/a	n/a	13	1	9	3	n/a	n/a	n/a	n/a	n/a
1374.638	n/a	PROB	687319	n/a	LTP263	ltpFR	13	n/a	n/a	n/a	n/a	n/a	n/a	n/a	16	4	3	9	n/a	n/a	n/a	n/a	n/a
1376.106	n/a	PROB	688053	n/a	LTP263	ltpFR	13	n/a	n/a	n/a	n/a	n/a	n/a	n/a	16	5	5	6	n/a	n/a	n/a	n/a	n/a
1377.416	n/a	PROB	688708	n/a	LTP263	ltpFR	13	n/a	n/a	n/a	n/a	n/a	n/a	n/a	12	1	9	2	n/a	n/a	n/a	n/a	n/a
1378.554	n/a	PROB	689277	n/a	LTP263	ltpFR	13	n/a	n/a	n/a	n/a	n/a	n/a	n/a	19	2	9	8	n/a	n/a	n/a	n/a	n/a
1380.002	n/a	PROB	690001	n/a	LTP263	ltpFR	13	n/a	n/a	n/a	n/a	n/a	n/a	n/a	13	1	8	4	n/a	n/a	n/a	n/a	n/a
1381.258	n/a	PROB	690629	n/a	LTP263	ltpFR	13	n/a	n/a	n/a	n/a	n/a	n/a	n/a	13	3	7	3	n/a	n/a	n/a	n/a	n/a
1382.402	n/a	PROB	691201	n/a	LTP263	ltpFR	13	n/a	n/a	n/a	n/a	n/a	n/a	n/a	22	4	9	9	n/a	n/a	n/a	n/a	n/a
1385.698	n/a	STOP	692849	n/a	LTP263	ltpFR	13	n/a	n/a	n/a	n/a	n/a	n/a	n/a	n/a	n/a	n/a	n/a	n/a	n/a	n/a	n/a	n/a
1386.55	n/a	WORD	693275	wordpools/wasnorm_wordpool_less_exclusions.txt	LTP263	ltpFR	13	6	1	CHARCOAL	281	n/a	n/a	0	n/a	0	0	0	0.57763671875	0.412841796875	1	upper	zerothre.ttf
1389.562	n/a	START	694781	n/a	LTP263	ltpFR	13	n/a	n/a	n/a	n/a	n/a	n/a	n/a	n/a	n/a	n/a	n/a	n/a	n/a	n/a	n/a	n/a
1390.408	n/a	PROB	695204	n/a	LTP263	ltpFR	13	n/a	n/a	n/a	n/a	n/a	n/a	n/a	15	3	6	6	n/a	n/a	n/a	n/a	n/a
1391.77	n/a	PROB	695885	n/a	LTP263	ltpFR	13	n/a	n/a	n/a	n/a	n/a	n/a	n/a	9	4	4	1	n/a	n/a	n/a	n/a	n/a
1392.852	n/a	PROB	696426	n/a	LTP263	ltpFR	13	n/a	n/a	n/a	n/a	n/a	n/a	n/a	14	3	4	7	n/a	n/a	n/a	n/a	n/a
1394.66	n/a	PROB	697330	n/a	LTP263	ltpFR	13	n/a	n/a	n/a	n/a	n/a	n/a	n/a	15	5	3	7	n/a	n/a	n/a	n/a	n/a
1396.122	n/a	PROB	698061	n/a	LTP263	ltpFR	13	n/a	n/a	n/a	n/a	n/a	n/a	n/a	19	6	9	4	n/a	n/a	n/a	n/a	n/a
1398.792	n/a	PROB	699396	n/a	LTP263	ltpFR	13	n/a	n/a	n/a	n/a	n/a	n/a	n/a	17	2	9	6	n/a	n/a	n/a	n/a	n/a
1400.648	n/a	PROB	700324	n/a	LTP263	ltpFR	13	n/a	n/a	n/a	n/a	n/a	n/a	n/a	8	1	3	4	n/a	n/a	n/a	n/a	n/a
1402.212	n/a	PROB	701106	n/a	LTP263	ltpFR	13	n/a	n/a	n/a	n/a	n/a	n/a	n/a	19	5	7	9	n/a	n/a	n/a	n/a	n/a
1403.998	n/a	STOP	701999	n/a	LTP263	ltpFR	13	n/a	n/a	n/a	n/a	n/a	n/a	n/a	n/a	n/a	n/a	n/a	n/a	n/a	n/a	n/a	n/a
1406.554	n/a	WORD	703277	wordpools/wasnorm_wordpool_less_exclusions.txt	LTP263	ltpFR	13	6	1	RACKET	1155	n/a	n/a	3	n/a	0	0	0	0.57763671875	0.412841796875	1	upper	zerothre.ttf
1407.33	n/a	KEY_MSG	703665	n/a	LTP263	ltpFR	13	6	n/a	n/a	n/a	n/a	n/a	n/a	n/a	0	0	0	n/a	n/a	n/a	n/a	n/a
1409.566	n/a	START	704783	n/a	LTP263	ltpFR	13	n/a	n/a	n/a	n/a	n/a	n/a	n/a	n/a	n/a	n/a	n/a	n/a	n/a	n/a	n/a	n/a
1410.71	n/a	PROB	705355	n/a	LTP263	ltpFR	13	n/a	n/a	n/a	n/a	n/a	n/a	n/a	16	3	5	8	n/a	n/a	n/a	n/a	n/a
1413.42	n/a	PROB	706710	n/a	LTP263	ltpFR	13	n/a	n/a	n/a	n/a	n/a	n/a	n/a	4	1	1	2	n/a	n/a	n/a	n/a	n/a
1414.468	n/a	PROB	707234	n/a	LTP263	ltpFR	13	n/a	n/a	n/a	n/a	n/a	n/a	n/a	15	5	4	6	n/a	n/a	n/a	n/a	n/a
1415.578	n/a	PROB	707789	n/a	LTP263	ltpFR	13	n/a	n/a	n/a	n/a	n/a	n/a	n/a	9	2	4	3	n/a	n/a	n/a	n/a	n/a
1417.062	n/a	PROB	708531	n/a	LTP263	ltpFR	13	n/a	n/a	n/a	n/a	n/a	n/a	n/a	13	4	5	3	n/a	n/a	n/a	n/a	n/a
1421.98	n/a	PROB	710990	n/a	LTP263	ltpFR	13	n/a	n/a	n/a	n/a	n/a	n/a	n/a	9	4	4	1	n/a	n/a	n/a	n/a	n/a
1425.568	n/a	STOP	712784	n/a	LTP263	ltpFR	13	n/a	n/a	n/a	n/a	n/a	n/a	n/a	n/a	n/a	n/a	n/a	n/a	n/a	n/a	n/a	n/a
1426.764	n/a	WORD	713382	wordpools/wasnorm_wordpool_less_exclusions.txt	LTP263	ltpFR	13	6	1	CHEST	295	n/a	n/a	n/a	n/a	0	0	0	0.57763671875	0.412841796875	1	upper	zerothre.ttf
1429.816	n/a	SLOW_MSG	714908	n/a	LTP263	ltpFR	13	6	n/a	n/a	n/a	n/a	n/a	n/a	n/a	0	0	0	n/a	n/a	n/a	n/a	n/a
1431.35	n/a	START	715675	n/a	LTP263	ltpFR	13	n/a	n/a	n/a	n/a	n/a	n/a	n/a	n/a	n/a	n/a	n/a	n/a	n/a	n/a	n/a	n/a
1432.426	n/a	PROB	716213	n/a	LTP263	ltpFR	13	n/a	n/a	n/a	n/a	n/a	n/a	n/a	22	5	8	9	n/a	n/a	n/a	n/a	n/a
1434.684	n/a	PROB	717342	n/a	LTP263	ltpFR	13	n/a	n/a	n/a	n/a	n/a	n/a	n/a	18	2	7	9	n/a	n/a	n/a	n/a	n/a
1436.136	n/a	PROB	718068	n/a	LTP263	ltpFR	13	n/a	n/a	n/a	n/a	n/a	n/a	n/a	15	5	5	5	n/a	n/a	n/a	n/a	n/a
1437.156	n/a	PROB	718578	n/a	LTP263	ltpFR	13	n/a	n/a	n/a	n/a	n/a	n/a	n/a	7	1	5	2	n/a	n/a	n/a	n/a	n/a
1439.636	n/a	PROB	719818	n/a	LTP263	ltpFR	13	n/a	n/a	n/a	n/a	n/a	n/a	n/a	23	9	6	8	n/a	n/a	n/a	n/a	n/a
1441.176	n/a	PROB	720588	n/a	LTP263	ltpFR	13	n/a	n/a	n/a	n/a	n/a	n/a	n/a	8	1	3	4	n/a	n/a	n/a	n/a	n/a
1442.86	n/a	PROB	721430	n/a	LTP263	ltpFR	13	n/a	n/a	n/a	n/a	n/a	n/a	n/a	19	6	8	5	n/a	n/a	n/a	n/a	n/a
1444.682	n/a	PROB	722341	n/a	LTP263	ltpFR	13	n/a	n/a	n/a	n/a	n/a	n/a	n/a	7	4	1	2	n/a	n/a	n/a	n/a	n/a
1446.122	n/a	STOP	723061	n/a	LTP263	ltpFR	13	n/a	n/a	n/a	n/a	n/a	n/a	n/a	n/a	n/a	n/a	n/a	n/a	n/a	n/a	n/a	n/a
1448.52	n/a	WORD	724260	wordpools/wasnorm_wordpool_less_exclusions.txt	LTP263	ltpFR	13	6	1	NUCLEUS	961	n/a	n/a	0	n/a	0	0	0	0.57763671875	0.412841796875	1	upper	zerothre.ttf
1451.534	n/a	START	725767	n/a	LTP263	ltpFR	13	n/a	n/a	n/a	n/a	n/a	n/a	n/a	n/a	n/a	n/a	n/a	n/a	n/a	n/a	n/a	n/a
1452.714	n/a	PROB	726357	n/a	LTP263	ltpFR	13	n/a	n/a	n/a	n/a	n/a	n/a	n/a	15	5	1	9	n/a	n/a	n/a	n/a	n/a
1454.336	n/a	PROB	727168	n/a	LTP263	ltpFR	13	n/a	n/a	n/a	n/a	n/a	n/a	n/a	9	2	1	6	n/a	n/a	n/a	n/a	n/a
1455.86	n/a	PROB	727930	n/a	LTP263	ltpFR	13	n/a	n/a	n/a	n/a	n/a	n/a	n/a	11	3	3	5	n/a	n/a	n/a	n/a	n/a
1457.454	n/a	PROB	728727	n/a	LTP263	ltpFR	13	n/a	n/a	n/a	n/a	n/a	n/a	n/a	13	6	6	1	n/a	n/a	n/a	n/a	n/a
1458.542	n/a	PROB	729271	n/a	LTP263	ltpFR	13	n/a	n/a	n/a	n/a	n/a	n/a	n/a	17	9	1	7	n/a	n/a	n/a	n/a	n/a
1459.808	n/a	PROB	729904	n/a	LTP263	ltpFR	13	n/a	n/a	n/a	n/a	n/a	n/a	n/a	14	1	6	7	n/a	n/a	n/a	n/a	n/a
1461.614	n/a	PROB	730807	n/a	LTP263	ltpFR	13	n/a	n/a	n/a	n/a	n/a	n/a	n/a	16	4	7	5	n/a	n/a	n/a	n/a	n/a
1463.712	n/a	PROB	731856	n/a	LTP263	ltpFR	13	n/a	n/a	n/a	n/a	n/a	n/a	n/a	5	1	2	2	n/a	n/a	n/a	n/a	n/a
1464.698	n/a	PROB	732349	n/a	LTP263	ltpFR	13	n/a	n/a	n/a	n/a	n/a	n/a	n/a	12	3	4	5	n/a	n/a	n/a	n/a	n/a
1466.882	n/a	STOP	733441	n/a	LTP263	ltpFR	13	n/a	n/a	n/a	n/a	n/a	n/a	n/a	n/a	n/a	n/a	n/a	n/a	n/a	n/a	n/a	n/a
1468.38	n/a	WORD	734190	wordpools/wasnorm_wordpool_less_exclusions.txt	LTP263	ltpFR	13	6	1	CUE	422	n/a	n/a	0	n/a	0	0	0	0.57763671875	0.412841796875	1	upper	zerothre.ttf
1471.392	n/a	START	735696	n/a	LTP263	ltpFR	13	n/a	n/a	n/a	n/a	n/a	n/a	n/a	n/a	n/a	n/a	n/a	n/a	n/a	n/a	n/a	n/a
1472.356	n/a	PROB	736178	n/a	LTP263	ltpFR	13	n/a	n/a	n/a	n/a	n/a	n/a	n/a	18	4	6	8	n/a	n/a	n/a	n/a	n/a
1473.978	n/a	PROB	736989	n/a	LTP263	ltpFR	13	n/a	n/a	n/a	n/a	n/a	n/a	n/a	25	9	7	9	n/a	n/a	n/a	n/a	n/a
1477.214	n/a	PROB	738607	n/a	LTP263	ltpFR	13	n/a	n/a	n/a	n/a	n/a	n/a	n/a	13	1	9	3	n/a	n/a	n/a	n/a	n/a
1478.334	n/a	PROB	739167	n/a	LTP263	ltpFR	13	n/a	n/a	n/a	n/a	n/a	n/a	n/a	11	7	2	2	n/a	n/a	n/a	n/a	n/a
1479.9	n/a	PROB	739950	n/a	LTP263	ltpFR	13	n/a	n/a	n/a	n/a	n/a	n/a	n/a	17	7	1	9	n/a	n/a	n/a	n/a	n/a
1481.43	n/a	PROB	740715	n/a	LTP263	ltpFR	13	n/a	n/a	n/a	n/a	n/a	n/a	n/a	15	5	3	7	n/a	n/a	n/a	n/a	n/a
1483.304	n/a	PROB	741652	n/a	LTP263	ltpFR	13	n/a	n/a	n/a	n/a	n/a	n/a	n/a	13	3	3	7	n/a	n/a	n/a	n/a	n/a
1484.708	n/a	PROB	742354	n/a	LTP263	ltpFR	13	n/a	n/a	n/a	n/a	n/a	n/a	n/a	9	4	2	3	n/a	n/a	n/a	n/a	n/a
1486.866	n/a	STOP	743433	n/a	LTP263	ltpFR	13	n/a	n/a	n/a	n/a	n/a	n/a	n/a	n/a	n/a	n/a	n/a	n/a	n/a	n/a	n/a	n/a
1488.508	n/a	WORD	744254	wordpools/wasnorm_wordpool_less_exclusions.txt	LTP263	ltpFR	13	6	1	BUBBLE	183	n/a	n/a	0	n/a	0	0	0	0.57763671875	0.412841796875	1	upper	zerothre.ttf
1491.52	n/a	START	745760	n/a	LTP263	ltpFR	13	n/a	n/a	n/a	n/a	n/a	n/a	n/a	n/a	n/a	n/a	n/a	n/a	n/a	n/a	n/a	n/a
1492.366	n/a	PROB	746183	n/a	LTP263	ltpFR	13	n/a	n/a	n/a	n/a	n/a	n/a	n/a	13	1	7	5	n/a	n/a	n/a	n/a	n/a
1493.626	n/a	PROB	746813	n/a	LTP263	ltpFR	13	n/a	n/a	n/a	n/a	n/a	n/a	n/a	11	1	9	1	n/a	n/a	n/a	n/a	n/a
1494.708	n/a	PROB	747354	n/a	LTP263	ltpFR	13	n/a	n/a	n/a	n/a	n/a	n/a	n/a	5	1	4	1	n/a	n/a	n/a	n/a	n/a
1496.018	n/a	PROB	748009	n/a	LTP263	ltpFR	13	n/a	n/a	n/a	n/a	n/a	n/a	n/a	12	1	7	4	n/a	n/a	n/a	n/a	n/a
1497.434	n/a	PROB	748717	n/a	LTP263	ltpFR	13	n/a	n/a	n/a	n/a	n/a	n/a	n/a	14	7	6	1	n/a	n/a	n/a	n/a	n/a
1499.08	n/a	PROB	749540	n/a	LTP263	ltpFR	13	n/a	n/a	n/a	n/a	n/a	n/a	n/a	12	6	5	1	n/a	n/a	n/a	n/a	n/a
1500.212	n/a	PROB	750106	n/a	LTP263	ltpFR	13	n/a	n/a	n/a	n/a	n/a	n/a	n/a	15	5	4	6	n/a	n/a	n/a	n/a	n/a
1502.176	n/a	PROB	751088	n/a	LTP263	ltpFR	13	n/a	n/a	n/a	n/a	n/a	n/a	n/a	5	2	2	1	n/a	n/a	n/a	n/a	n/a
1503.592	n/a	PROB	751796	n/a	LTP263	ltpFR	13	n/a	n/a	n/a	n/a	n/a	n/a	n/a	12	2	4	6	n/a	n/a	n/a	n/a	n/a
1505.264	n/a	PROB	752632	n/a	LTP263	ltpFR	13	n/a	n/a	n/a	n/a	n/a	n/a	n/a	14	5	2	8	n/a	n/a	n/a	n/a	n/a
1507.254	n/a	STOP	753627	n/a	LTP263	ltpFR	13	n/a	n/a	n/a	n/a	n/a	n/a	n/a	n/a	n/a	n/a	n/a	n/a	n/a	n/a	n/a	n/a
1508.634	n/a	WORD	754317	wordpools/wasnorm_wordpool_less_exclusions.txt	LTP263	ltpFR	13	6	1	COUGAR	387	n/a	n/a	1	n/a	0	0	0	0.57763671875	0.412841796875	1	upper	zerothre.ttf
1511.646	n/a	START	755823	n/a	LTP263	ltpFR	13	n/a	n/a	n/a	n/a	n/a	n/a	n/a	n/a	n/a	n/a	n/a	n/a	n/a	n/a	n/a	n/a
1512.566	n/a	PROB	756283	n/a	LTP263	ltpFR	13	n/a	n/a	n/a	n/a	n/a	n/a	n/a	12	2	4	6	n/a	n/a	n/a	n/a	n/a
1513.586	n/a	PROB	756793	n/a	LTP263	ltpFR	13	n/a	n/a	n/a	n/a	n/a	n/a	n/a	9	4	2	3	n/a	n/a	n/a	n/a	n/a
1515.71	n/a	PROB	757855	n/a	LTP263	ltpFR	13	n/a	n/a	n/a	n/a	n/a	n/a	n/a	16	2	6	8	n/a	n/a	n/a	n/a	n/a
1518.866	n/a	PROB	759433	n/a	LTP263	ltpFR	13	n/a	n/a	n/a	n/a	n/a	n/a	n/a	15	5	9	1	n/a	n/a	n/a	n/a	n/a
1519.886	n/a	PROB	759943	n/a	LTP263	ltpFR	13	n/a	n/a	n/a	n/a	n/a	n/a	n/a	15	8	3	4	n/a	n/a	n/a	n/a	n/a
1521.442	n/a	PROB	760721	n/a	LTP263	ltpFR	13	n/a	n/a	n/a	n/a	n/a	n/a	n/a	12	4	2	6	n/a	n/a	n/a	n/a	n/a
1522.998	n/a	PROB	761499	n/a	LTP263	ltpFR	13	n/a	n/a	n/a	n/a	n/a	n/a	n/a	17	2	8	7	n/a	n/a	n/a	n/a	n/a
1526.146	n/a	PROB	763073	n/a	LTP263	ltpFR	13	n/a	n/a	n/a	n/a	n/a	n/a	n/a	13	2	3	8	n/a	n/a	n/a	n/a	n/a
1527.35	n/a	STOP	763675	n/a	LTP263	ltpFR	13	n/a	n/a	n/a	n/a	n/a	n/a	n/a	n/a	n/a	n/a	n/a	n/a	n/a	n/a	n/a	n/a
1528.526	n/a	WORD	764263	wordpools/wasnorm_wordpool_less_exclusions.txt	LTP263	ltpFR	13	6	1	RACCOON	1153	n/a	n/a	1	n/a	0	0	0	0.57763671875	0.412841796875	1	upper	zerothre.ttf
1531.538	n/a	START	765769	n/a	LTP263	ltpFR	13	n/a	n/a	n/a	n/a	n/a	n/a	n/a	n/a	n/a	n/a	n/a	n/a	n/a	n/a	n/a	n/a
1532.368	n/a	PROB	766184	n/a	LTP263	ltpFR	13	n/a	n/a	n/a	n/a	n/a	n/a	n/a	11	3	3	5	n/a	n/a	n/a	n/a	n/a
1533.706	n/a	PROB	766853	n/a	LTP263	ltpFR	13	n/a	n/a	n/a	n/a	n/a	n/a	n/a	16	3	8	5	n/a	n/a	n/a	n/a	n/a
1536.384	n/a	PROB	768192	n/a	LTP263	ltpFR	13	n/a	n/a	n/a	n/a	n/a	n/a	n/a	10	4	5	1	n/a	n/a	n/a	n/a	n/a
1537.862	n/a	PROB	768931	n/a	LTP263	ltpFR	13	n/a	n/a	n/a	n/a	n/a	n/a	n/a	23	9	6	7	n/a	n/a	n/a	n/a	n/a
1541.42	n/a	PROB	770710	n/a	LTP263	ltpFR	13	n/a	n/a	n/a	n/a	n/a	n/a	n/a	11	1	3	7	n/a	n/a	n/a	n/a	n/a
1542.68	n/a	PROB	771340	n/a	LTP263	ltpFR	13	n/a	n/a	n/a	n/a	n/a	n/a	n/a	15	5	2	8	n/a	n/a	n/a	n/a	n/a
1544.28	n/a	PROB	772140	n/a	LTP263	ltpFR	13	n/a	n/a	n/a	n/a	n/a	n/a	n/a	17	7	1	9	n/a	n/a	n/a	n/a	n/a
1545.982	n/a	STOP	772991	n/a	LTP263	ltpFR	13	n/a	n/a	n/a	n/a	n/a	n/a	n/a	n/a	n/a	n/a	n/a	n/a	n/a	n/a	n/a	n/a
1548.754	n/a	WORD	774377	wordpools/wasnorm_wordpool_less_exclusions.txt	LTP263	ltpFR	13	6	1	OTTER	986	n/a	n/a	1	n/a	0	0	0	0.57763671875	0.412841796875	1	upper	zerothre.ttf
1551.766	n/a	START	775883	n/a	LTP263	ltpFR	13	n/a	n/a	n/a	n/a	n/a	n/a	n/a	n/a	n/a	n/a	n/a	n/a	n/a	n/a	n/a	n/a
1552.852	n/a	PROB	776426	n/a	LTP263	ltpFR	13	n/a	n/a	n/a	n/a	n/a	n/a	n/a	18	8	1	9	n/a	n/a	n/a	n/a	n/a
1554.158	n/a	PROB	777079	n/a	LTP263	ltpFR	13	n/a	n/a	n/a	n/a	n/a	n/a	n/a	14	6	1	7	n/a	n/a	n/a	n/a	n/a
1556.048	n/a	PROB	778024	n/a	LTP263	ltpFR	13	n/a	n/a	n/a	n/a	n/a	n/a	n/a	13	8	4	1	n/a	n/a	n/a	n/a	n/a
1557.48	n/a	PROB	778740	n/a	LTP263	ltpFR	13	n/a	n/a	n/a	n/a	n/a	n/a	n/a	20	2	9	9	n/a	n/a	n/a	n/a	n/a
1559.02	n/a	PROB	779510	n/a	LTP263	ltpFR	13	n/a	n/a	n/a	n/a	n/a	n/a	n/a	13	3	6	4	n/a	n/a	n/a	n/a	n/a
1560.176	n/a	PROB	780088	n/a	LTP263	ltpFR	13	n/a	n/a	n/a	n/a	n/a	n/a	n/a	10	1	7	2	n/a	n/a	n/a	n/a	n/a
1562.298	n/a	PROB	781149	n/a	LTP263	ltpFR	13	n/a	n/a	n/a	n/a	n/a	n/a	n/a	14	4	7	3	n/a	n/a	n/a	n/a	n/a
1563.478	n/a	PROB	781739	n/a	LTP263	ltpFR	13	n/a	n/a	n/a	n/a	n/a	n/a	n/a	24	7	9	8	n/a	n/a	n/a	n/a	n/a
1564.982	n/a	PROB	782491	n/a	LTP263	ltpFR	13	n/a	n/a	n/a	n/a	n/a	n/a	n/a	11	5	2	4	n/a	n/a	n/a	n/a	n/a
1566.608	n/a	STOP	783304	n/a	LTP263	ltpFR	13	n/a	n/a	n/a	n/a	n/a	n/a	n/a	n/a	n/a	n/a	n/a	n/a	n/a	n/a	n/a	n/a
1568.646	n/a	WORD	784323	wordpools/wasnorm_wordpool_less_exclusions.txt	LTP263	ltpFR	13	6	1	SHOP	1290	n/a	n/a	0	n/a	0	0	0	0.57763671875	0.412841796875	1	upper	zerothre.ttf
1571.658	n/a	START	785829	n/a	LTP263	ltpFR	13	n/a	n/a	n/a	n/a	n/a	n/a	n/a	n/a	n/a	n/a	n/a	n/a	n/a	n/a	n/a	n/a
1572.74	n/a	PROB	786370	n/a	LTP263	ltpFR	13	n/a	n/a	n/a	n/a	n/a	n/a	n/a	12	8	1	3	n/a	n/a	n/a	n/a	n/a
1575.634	n/a	PROB	787817	n/a	LTP263	ltpFR	13	n/a	n/a	n/a	n/a	n/a	n/a	n/a	18	8	9	1	n/a	n/a	n/a	n/a	n/a
1577.006	n/a	PROB	788503	n/a	LTP263	ltpFR	13	n/a	n/a	n/a	n/a	n/a	n/a	n/a	14	1	8	5	n/a	n/a	n/a	n/a	n/a
1578.31	n/a	PROB	789155	n/a	LTP263	ltpFR	13	n/a	n/a	n/a	n/a	n/a	n/a	n/a	12	7	1	4	n/a	n/a	n/a	n/a	n/a
1579.832	n/a	PROB	789916	n/a	LTP263	ltpFR	13	n/a	n/a	n/a	n/a	n/a	n/a	n/a	5	2	2	1	n/a	n/a	n/a	n/a	n/a
1580.82	n/a	PROB	790410	n/a	LTP263	ltpFR	13	n/a	n/a	n/a	n/a	n/a	n/a	n/a	17	6	3	8	n/a	n/a	n/a	n/a	n/a
1582.282	n/a	PROB	791141	n/a	LTP263	ltpFR	13	n/a	n/a	n/a	n/a	n/a	n/a	n/a	9	1	4	4	n/a	n/a	n/a	n/a	n/a
1583.772	n/a	PROB	791886	n/a	LTP263	ltpFR	13	n/a	n/a	n/a	n/a	n/a	n/a	n/a	19	7	5	7	n/a	n/a	n/a	n/a	n/a
1585.538	n/a	PROB	792769	n/a	LTP263	ltpFR	13	n/a	n/a	n/a	n/a	n/a	n/a	n/a	23	8	6	9	n/a	n/a	n/a	n/a	n/a
1587.008	n/a	STOP	793504	n/a	LTP263	ltpFR	13	n/a	n/a	n/a	n/a	n/a	n/a	n/a	n/a	n/a	n/a	n/a	n/a	n/a	n/a	n/a	n/a
1588.55	n/a	WORD	794275	wordpools/wasnorm_wordpool_less_exclusions.txt	LTP263	ltpFR	13	6	1	STOMACH	1384	n/a	n/a	1	n/a	0	0	0	0.57763671875	0.412841796875	1	upper	zerothre.ttf
1591.562	n/a	START	795781	n/a	LTP263	ltpFR	13	n/a	n/a	n/a	n/a	n/a	n/a	n/a	n/a	n/a	n/a	n/a	n/a	n/a	n/a	n/a	n/a
1592.622	n/a	PROB	796311	n/a	LTP263	ltpFR	13	n/a	n/a	n/a	n/a	n/a	n/a	n/a	16	8	1	7	n/a	n/a	n/a	n/a	n/a
1594.488	n/a	PROB	797244	n/a	LTP263	ltpFR	13	n/a	n/a	n/a	n/a	n/a	n/a	n/a	21	9	5	8	n/a	n/a	n/a	n/a	n/a
1596.58	n/a	PROB	798290	n/a	LTP263	ltpFR	13	n/a	n/a	n/a	n/a	n/a	n/a	n/a	17	2	9	6	n/a	n/a	n/a	n/a	n/a
1598.404	n/a	PROB	799202	n/a	LTP263	ltpFR	13	n/a	n/a	n/a	n/a	n/a	n/a	n/a	10	2	5	3	n/a	n/a	n/a	n/a	n/a
1599.876	n/a	PROB	799938	n/a	LTP263	ltpFR	13	n/a	n/a	n/a	n/a	n/a	n/a	n/a	14	4	1	9	n/a	n/a	n/a	n/a	n/a
1601.188	n/a	PROB	800594	n/a	LTP263	ltpFR	13	n/a	n/a	n/a	n/a	n/a	n/a	n/a	21	8	3	9	n/a	n/a	n/a	n/a	n/a
1603.664	n/a	PROB	801832	n/a	LTP263	ltpFR	13	n/a	n/a	n/a	n/a	n/a	n/a	n/a	7	1	1	5	n/a	n/a	n/a	n/a	n/a
1604.778	n/a	PROB	802389	n/a	LTP263	ltpFR	13	n/a	n/a	n/a	n/a	n/a	n/a	n/a	9	3	3	3	n/a	n/a	n/a	n/a	n/a
1606.602	n/a	STOP	803301	n/a	LTP263	ltpFR	13	n/a	n/a	n/a	n/a	n/a	n/a	n/a	n/a	n/a	n/a	n/a	n/a	n/a	n/a	n/a	n/a
1609.47	n/a	REC_START	804735	n/a	LTP263	ltpFR	13	6	n/a	n/a	n/a	n/a	n/a	n/a	n/a	0	0	0	n/a	n/a	n/a	n/a	n/a
1610.65	n/a	REC_WORD	805325	wordpools/wasnorm_wordpool_less_exclusions.txt	LTP263	ltpFR	13	6	1	COUGAR	387	n/a	n/a	1	n/a	0	0	0	n/a	n/a	n/a	n/a	n/a
1614.424	n/a	REC_WORD	807212	wordpools/wasnorm_wordpool_less_exclusions.txt	LTP263	ltpFR	13	6	1	OTTER	986	n/a	n/a	1	n/a	0	0	0	n/a	n/a	n/a	n/a	n/a
1627.514	n/a	REC_WORD	813757	wordpools/wasnorm_wordpool_less_exclusions.txt	LTP263	ltpFR	13	6	1	LEADER	807	n/a	n/a	1	n/a	0	0	0	n/a	n/a	n/a	n/a	n/a
1629.762	n/a	REC_WORD	814881	wordpools/wasnorm_wordpool_less_exclusions.txt	LTP263	ltpFR	13	6	1	DICTATOR	462	n/a	n/a	1	n/a	0	0	0	n/a	n/a	n/a	n/a	n/a
1685.628	n/a	START	842814	n/a	LTP263	ltpFR	13	n/a	n/a	n/a	n/a	n/a	n/a	n/a	n/a	n/a	n/a	n/a	n/a	n/a	n/a	n/a	n/a
1687.144	n/a	PROB	843572	n/a	LTP263	ltpFR	13	n/a	n/a	n/a	n/a	n/a	n/a	n/a	21	9	9	3	n/a	n/a	n/a	n/a	n/a
1688.522	n/a	PROB	844261	n/a	LTP263	ltpFR	13	n/a	n/a	n/a	n/a	n/a	n/a	n/a	19	4	8	7	n/a	n/a	n/a	n/a	n/a
1693.094	n/a	STOP	846547	n/a	LTP263	ltpFR	13	n/a	n/a	n/a	n/a	n/a	n/a	n/a	n/a	n/a	n/a	n/a	n/a	n/a	n/a	n/a	n/a
1694.796	n/a	WORD	847398	wordpools/wasnorm_wordpool_less_exclusions.txt	LTP263	ltpFR	13	7	1	STAMP	1370	n/a	n/a	0	n/a	0	0	0	0.57763671875	0.412841796875	1	upper	zerothre.ttf
1697.808	n/a	START	848904	n/a	LTP263	ltpFR	13	n/a	n/a	n/a	n/a	n/a	n/a	n/a	n/a	n/a	n/a	n/a	n/a	n/a	n/a	n/a	n/a
1699.012	n/a	PROB	849506	n/a	LTP263	ltpFR	13	n/a	n/a	n/a	n/a	n/a	n/a	n/a	7	3	3	1	n/a	n/a	n/a	n/a	n/a
1700.116	n/a	PROB	850058	n/a	LTP263	ltpFR	13	n/a	n/a	n/a	n/a	n/a	n/a	n/a	13	1	3	9	n/a	n/a	n/a	n/a	n/a
1701.538	n/a	PROB	850769	n/a	LTP263	ltpFR	13	n/a	n/a	n/a	n/a	n/a	n/a	n/a	18	5	8	5	n/a	n/a	n/a	n/a	n/a
1702.676	n/a	PROB	851338	n/a	LTP263	ltpFR	13	n/a	n/a	n/a	n/a	n/a	n/a	n/a	18	3	8	7	n/a	n/a	n/a	n/a	n/a
1704.31	n/a	STOP	852155	n/a	LTP263	ltpFR	13	n/a	n/a	n/a	n/a	n/a	n/a	n/a	n/a	n/a	n/a	n/a	n/a	n/a	n/a	n/a	n/a
1706.886	n/a	WORD	853443	wordpools/wasnorm_wordpool_less_exclusions.txt	LTP263	ltpFR	13	7	1	GOWN	652	n/a	n/a	0	n/a	0	0	0	0.57763671875	0.412841796875	1	upper	zerothre.ttf
1709.904	n/a	START	854952	n/a	LTP263	ltpFR	13	n/a	n/a	n/a	n/a	n/a	n/a	n/a	n/a	n/a	n/a	n/a	n/a	n/a	n/a	n/a	n/a
1711.09	n/a	PROB	855545	n/a	LTP263	ltpFR	13	n/a	n/a	n/a	n/a	n/a	n/a	n/a	9	1	2	6	n/a	n/a	n/a	n/a	n/a
1712.824	n/a	PROB	856412	n/a	LTP263	ltpFR	13	n/a	n/a	n/a	n/a	n/a	n/a	n/a	13	2	4	7	n/a	n/a	n/a	n/a	n/a
1714.264	n/a	PROB	857132	n/a	LTP263	ltpFR	13	n/a	n/a	n/a	n/a	n/a	n/a	n/a	11	1	3	7	n/a	n/a	n/a	n/a	n/a
1715.474	n/a	PROB	857737	n/a	LTP263	ltpFR	13	n/a	n/a	n/a	n/a	n/a	n/a	n/a	23	9	6	7	n/a	n/a	n/a	n/a	n/a
1716.744	n/a	STOP	858372	n/a	LTP263	ltpFR	13	n/a	n/a	n/a	n/a	n/a	n/a	n/a	n/a	n/a	n/a	n/a	n/a	n/a	n/a	n/a	n/a
1718.954	n/a	WORD	859477	wordpools/wasnorm_wordpool_less_exclusions.txt	LTP263	ltpFR	13	7	1	OWNER	993	n/a	n/a	1	n/a	0	0	0	0.57763671875	0.412841796875	1	upper	zerothre.ttf
1721.966	n/a	START	860983	n/a	LTP263	ltpFR	13	n/a	n/a	n/a	n/a	n/a	n/a	n/a	n/a	n/a	n/a	n/a	n/a	n/a	n/a	n/a	n/a
1723.02	n/a	PROB	861510	n/a	LTP263	ltpFR	13	n/a	n/a	n/a	n/a	n/a	n/a	n/a	19	9	8	2	n/a	n/a	n/a	n/a	n/a
1724.586	n/a	PROB	862293	n/a	LTP263	ltpFR	13	n/a	n/a	n/a	n/a	n/a	n/a	n/a	18	8	4	6	n/a	n/a	n/a	n/a	n/a
1725.908	n/a	PROB	862954	n/a	LTP263	ltpFR	13	n/a	n/a	n/a	n/a	n/a	n/a	n/a	12	8	3	1	n/a	n/a	n/a	n/a	n/a
1727.386	n/a	PROB	863693	n/a	LTP263	ltpFR	13	n/a	n/a	n/a	n/a	n/a	n/a	n/a	23	9	7	6	n/a	n/a	n/a	n/a	n/a
1728.48	n/a	STOP	864240	n/a	LTP263	ltpFR	13	n/a	n/a	n/a	n/a	n/a	n/a	n/a	n/a	n/a	n/a	n/a	n/a	n/a	n/a	n/a	n/a
1731.05	n/a	WORD	865525	wordpools/wasnorm_wordpool_less_exclusions.txt	LTP263	ltpFR	13	7	1	SALMON	1227	n/a	n/a	1	n/a	0	0	0	0.57763671875	0.412841796875	1	upper	zerothre.ttf
1734.062	n/a	START	867031	n/a	LTP263	ltpFR	13	n/a	n/a	n/a	n/a	n/a	n/a	n/a	n/a	n/a	n/a	n/a	n/a	n/a	n/a	n/a	n/a
1735.15	n/a	PROB	867575	n/a	LTP263	ltpFR	13	n/a	n/a	n/a	n/a	n/a	n/a	n/a	10	1	8	1	n/a	n/a	n/a	n/a	n/a
1736.238	n/a	PROB	868119	n/a	LTP263	ltpFR	13	n/a	n/a	n/a	n/a	n/a	n/a	n/a	23	7	7	9	n/a	n/a	n/a	n/a	n/a
1739.176	n/a	PROB	869588	n/a	LTP263	ltpFR	13	n/a	n/a	n/a	n/a	n/a	n/a	n/a	3	1	1	1	n/a	n/a	n/a	n/a	n/a
1740.236	n/a	PROB	870118	n/a	LTP263	ltpFR	13	n/a	n/a	n/a	n/a	n/a	n/a	n/a	12	4	6	2	n/a	n/a	n/a	n/a	n/a
1741.318	n/a	STOP	870659	n/a	LTP263	ltpFR	13	n/a	n/a	n/a	n/a	n/a	n/a	n/a	n/a	n/a	n/a	n/a	n/a	n/a	n/a	n/a	n/a
1743.062	n/a	WORD	871531	wordpools/wasnorm_wordpool_less_exclusions.txt	LTP263	ltpFR	13	7	0	CAVE	263	n/a	n/a	1	n/a	0	0	0	0.422607421875	0.5869140625	0	lower	amplitud.ttf
1746.076	n/a	START	873038	n/a	LTP263	ltpFR	13	n/a	n/a	n/a	n/a	n/a	n/a	n/a	n/a	n/a	n/a	n/a	n/a	n/a	n/a	n/a	n/a
1747.072	n/a	PROB	873536	n/a	LTP263	ltpFR	13	n/a	n/a	n/a	n/a	n/a	n/a	n/a	12	2	6	4	n/a	n/a	n/a	n/a	n/a
1748.116	n/a	PROB	874058	n/a	LTP263	ltpFR	13	n/a	n/a	n/a	n/a	n/a	n/a	n/a	16	1	9	6	n/a	n/a	n/a	n/a	n/a
1749.286	n/a	PROB	874643	n/a	LTP263	ltpFR	13	n/a	n/a	n/a	n/a	n/a	n/a	n/a	15	7	4	4	n/a	n/a	n/a	n/a	n/a
1751.378	n/a	PROB	875689	n/a	LTP263	ltpFR	13	n/a	n/a	n/a	n/a	n/a	n/a	n/a	7	5	1	1	n/a	n/a	n/a	n/a	n/a
1754.076	n/a	STOP	877038	n/a	LTP263	ltpFR	13	n/a	n/a	n/a	n/a	n/a	n/a	n/a	n/a	n/a	n/a	n/a	n/a	n/a	n/a	n/a	n/a
1755.26	n/a	WORD	877630	wordpools/wasnorm_wordpool_less_exclusions.txt	LTP263	ltpFR	13	7	0	SLOPE	1328	n/a	n/a	1	n/a	0	0	0	0.422607421875	0.5869140625	0	lower	amplitud.ttf
1758.272	n/a	START	879136	n/a	LTP263	ltpFR	13	n/a	n/a	n/a	n/a	n/a	n/a	n/a	n/a	n/a	n/a	n/a	n/a	n/a	n/a	n/a	n/a
1759.342	n/a	PROB	879671	n/a	LTP263	ltpFR	13	n/a	n/a	n/a	n/a	n/a	n/a	n/a	23	6	7	8	n/a	n/a	n/a	n/a	n/a
1760.556	n/a	PROB	880278	n/a	LTP263	ltpFR	13	n/a	n/a	n/a	n/a	n/a	n/a	n/a	11	7	1	3	n/a	n/a	n/a	n/a	n/a
1761.902	n/a	PROB	880951	n/a	LTP263	ltpFR	13	n/a	n/a	n/a	n/a	n/a	n/a	n/a	26	9	6	9	n/a	n/a	n/a	n/a	n/a
1764.388	n/a	PROB	882194	n/a	LTP263	ltpFR	13	n/a	n/a	n/a	n/a	n/a	n/a	n/a	13	1	9	3	n/a	n/a	n/a	n/a	n/a
1765.378	n/a	STOP	882689	n/a	LTP263	ltpFR	13	n/a	n/a	n/a	n/a	n/a	n/a	n/a	n/a	n/a	n/a	n/a	n/a	n/a	n/a	n/a	n/a
1767.288	n/a	WORD	883644	wordpools/wasnorm_wordpool_less_exclusions.txt	LTP263	ltpFR	13	7	0	APRON	35	n/a	n/a	1	n/a	0	0	0	0.422607421875	0.5869140625	0	lower	amplitud.ttf
1770.302	n/a	START	885151	n/a	LTP263	ltpFR	13	n/a	n/a	n/a	n/a	n/a	n/a	n/a	n/a	n/a	n/a	n/a	n/a	n/a	n/a	n/a	n/a
1771.388	n/a	PROB	885694	n/a	LTP263	ltpFR	13	n/a	n/a	n/a	n/a	n/a	n/a	n/a	20	7	5	8	n/a	n/a	n/a	n/a	n/a
1773.078	n/a	PROB	886539	n/a	LTP263	ltpFR	13	n/a	n/a	n/a	n/a	n/a	n/a	n/a	12	1	6	5	n/a	n/a	n/a	n/a	n/a
1774.21	n/a	PROB	887105	n/a	LTP263	ltpFR	13	n/a	n/a	n/a	n/a	n/a	n/a	n/a	11	4	3	4	n/a	n/a	n/a	n/a	n/a
1776.978	n/a	STOP	888489	n/a	LTP263	ltpFR	13	n/a	n/a	n/a	n/a	n/a	n/a	n/a	n/a	n/a	n/a	n/a	n/a	n/a	n/a	n/a	n/a
1779.386	n/a	WORD	889693	wordpools/wasnorm_wordpool_less_exclusions.txt	LTP263	ltpFR	13	7	0	STRAW	1390	n/a	n/a	0	n/a	0	0	0	0.422607421875	0.5869140625	0	lower	amplitud.ttf
1782.398	n/a	START	891199	n/a	LTP263	ltpFR	13	n/a	n/a	n/a	n/a	n/a	n/a	n/a	n/a	n/a	n/a	n/a	n/a	n/a	n/a	n/a	n/a
1783.294	n/a	PROB	891647	n/a	LTP263	ltpFR	13	n/a	n/a	n/a	n/a	n/a	n/a	n/a	12	8	1	3	n/a	n/a	n/a	n/a	n/a
1785.202	n/a	PROB	892601	n/a	LTP263	ltpFR	13	n/a	n/a	n/a	n/a	n/a	n/a	n/a	9	4	1	4	n/a	n/a	n/a	n/a	n/a
1786.304	n/a	PROB	893152	n/a	LTP263	ltpFR	13	n/a	n/a	n/a	n/a	n/a	n/a	n/a	16	4	9	3	n/a	n/a	n/a	n/a	n/a
1790.398	n/a	STOP	895199	n/a	LTP263	ltpFR	13	n/a	n/a	n/a	n/a	n/a	n/a	n/a	n/a	n/a	n/a	n/a	n/a	n/a	n/a	n/a	n/a
1791.582	n/a	WORD	895791	wordpools/wasnorm_wordpool_less_exclusions.txt	LTP263	ltpFR	13	7	1	SALESMAN	1225	n/a	n/a	1	n/a	0	0	0	0.57763671875	0.412841796875	1	upper	zerothre.ttf
1794.594	n/a	START	897297	n/a	LTP263	ltpFR	13	n/a	n/a	n/a	n/a	n/a	n/a	n/a	n/a	n/a	n/a	n/a	n/a	n/a	n/a	n/a	n/a
1795.698	n/a	PROB	897849	n/a	LTP263	ltpFR	13	n/a	n/a	n/a	n/a	n/a	n/a	n/a	20	7	4	9	n/a	n/a	n/a	n/a	n/a
1799.63	n/a	PROB	899815	n/a	LTP263	ltpFR	13	n/a	n/a	n/a	n/a	n/a	n/a	n/a	20	4	7	9	n/a	n/a	n/a	n/a	n/a
1802.594	n/a	STOP	901297	n/a	LTP263	ltpFR	13	n/a	n/a	n/a	n/a	n/a	n/a	n/a	n/a	n/a	n/a	n/a	n/a	n/a	n/a	n/a	n/a
1803.756	n/a	WORD	901878	wordpools/wasnorm_wordpool_less_exclusions.txt	LTP263	ltpFR	13	7	1	KITCHEN	778	n/a	n/a	0	n/a	0	0	0	0.57763671875	0.412841796875	1	upper	zerothre.ttf
1806.774	n/a	START	903387	n/a	LTP263	ltpFR	13	n/a	n/a	n/a	n/a	n/a	n/a	n/a	n/a	n/a	n/a	n/a	n/a	n/a	n/a	n/a	n/a
1807.872	n/a	PROB	903936	n/a	LTP263	ltpFR	13	n/a	n/a	n/a	n/a	n/a	n/a	n/a	10	1	1	8	n/a	n/a	n/a	n/a	n/a
1808.982	n/a	PROB	904491	n/a	LTP263	ltpFR	13	n/a	n/a	n/a	n/a	n/a	n/a	n/a	10	5	4	1	n/a	n/a	n/a	n/a	n/a
1810.472	n/a	PROB	905236	n/a	LTP263	ltpFR	13	n/a	n/a	n/a	n/a	n/a	n/a	n/a	14	9	2	3	n/a	n/a	n/a	n/a	n/a
1812.272	n/a	PROB	906136	n/a	LTP263	ltpFR	13	n/a	n/a	n/a	n/a	n/a	n/a	n/a	15	3	8	3	n/a	n/a	n/a	n/a	n/a
1813.908	n/a	STOP	906954	n/a	LTP263	ltpFR	13	n/a	n/a	n/a	n/a	n/a	n/a	n/a	n/a	n/a	n/a	n/a	n/a	n/a	n/a	n/a	n/a
1815.724	n/a	WORD	907862	wordpools/wasnorm_wordpool_less_exclusions.txt	LTP263	ltpFR	13	7	1	WATER	1594	n/a	n/a	0	n/a	0	0	0	0.57763671875	0.412841796875	1	upper	zerothre.ttf
1818.736	n/a	START	909368	n/a	LTP263	ltpFR	13	n/a	n/a	n/a	n/a	n/a	n/a	n/a	n/a	n/a	n/a	n/a	n/a	n/a	n/a	n/a	n/a
1819.75	n/a	PROB	909875	n/a	LTP263	ltpFR	13	n/a	n/a	n/a	n/a	n/a	n/a	n/a	16	9	1	6	n/a	n/a	n/a	n/a	n/a
1820.894	n/a	PROB	910447	n/a	LTP263	ltpFR	13	n/a	n/a	n/a	n/a	n/a	n/a	n/a	21	6	7	6	n/a	n/a	n/a	n/a	n/a
1822.71	n/a	PROB	911355	n/a	LTP263	ltpFR	13	n/a	n/a	n/a	n/a	n/a	n/a	n/a	17	8	2	7	n/a	n/a	n/a	n/a	n/a
1824.992	n/a	PROB	912496	n/a	LTP263	ltpFR	13	n/a	n/a	n/a	n/a	n/a	n/a	n/a	16	2	9	5	n/a	n/a	n/a	n/a	n/a
1826.34	n/a	STOP	913170	n/a	LTP263	ltpFR	13	n/a	n/a	n/a	n/a	n/a	n/a	n/a	n/a	n/a	n/a	n/a	n/a	n/a	n/a	n/a	n/a
1827.954	n/a	WORD	913977	wordpools/wasnorm_wordpool_less_exclusions.txt	LTP263	ltpFR	13	7	1	ANTLER	29	n/a	n/a	0	n/a	0	0	0	0.57763671875	0.412841796875	1	upper	zerothre.ttf
1830.966	n/a	START	915483	n/a	LTP263	ltpFR	13	n/a	n/a	n/a	n/a	n/a	n/a	n/a	n/a	n/a	n/a	n/a	n/a	n/a	n/a	n/a	n/a
1831.92	n/a	PROB	915960	n/a	LTP263	ltpFR	13	n/a	n/a	n/a	n/a	n/a	n/a	n/a	20	6	5	9	n/a	n/a	n/a	n/a	n/a
1834.674	n/a	PROB	917337	n/a	LTP263	ltpFR	13	n/a	n/a	n/a	n/a	n/a	n/a	n/a	11	3	4	4	n/a	n/a	n/a	n/a	n/a
1836.154	n/a	PROB	918077	n/a	LTP263	ltpFR	13	n/a	n/a	n/a	n/a	n/a	n/a	n/a	14	7	5	2	n/a	n/a	n/a	n/a	n/a
1837.774	n/a	STOP	918887	n/a	LTP263	ltpFR	13	n/a	n/a	n/a	n/a	n/a	n/a	n/a	n/a	n/a	n/a	n/a	n/a	n/a	n/a	n/a	n/a
1839.8	n/a	WORD	919900	wordpools/wasnorm_wordpool_less_exclusions.txt	LTP263	ltpFR	13	7	0	ROSE	1212	n/a	n/a	0	n/a	0	0	0	0.422607421875	0.5869140625	0	lower	amplitud.ttf
1842.812	n/a	START	921406	n/a	LTP263	ltpFR	13	n/a	n/a	n/a	n/a	n/a	n/a	n/a	n/a	n/a	n/a	n/a	n/a	n/a	n/a	n/a	n/a
1843.964	n/a	PROB	921982	n/a	LTP263	ltpFR	13	n/a	n/a	n/a	n/a	n/a	n/a	n/a	14	3	5	6	n/a	n/a	n/a	n/a	n/a
1845.238	n/a	PROB	922619	n/a	LTP263	ltpFR	13	n/a	n/a	n/a	n/a	n/a	n/a	n/a	9	1	3	5	n/a	n/a	n/a	n/a	n/a
1846.352	n/a	PROB	923176	n/a	LTP263	ltpFR	13	n/a	n/a	n/a	n/a	n/a	n/a	n/a	17	8	2	7	n/a	n/a	n/a	n/a	n/a
1848.762	n/a	PROB	924381	n/a	LTP263	ltpFR	13	n/a	n/a	n/a	n/a	n/a	n/a	n/a	11	2	1	8	n/a	n/a	n/a	n/a	n/a
1850.03	n/a	STOP	925015	n/a	LTP263	ltpFR	13	n/a	n/a	n/a	n/a	n/a	n/a	n/a	n/a	n/a	n/a	n/a	n/a	n/a	n/a	n/a	n/a
1851.694	n/a	WORD	925847	wordpools/wasnorm_wordpool_less_exclusions.txt	LTP263	ltpFR	13	7	0	THORN	1459	n/a	n/a	0	n/a	0	0	0	0.422607421875	0.5869140625	0	lower	amplitud.ttf
1854.708	n/a	START	927354	n/a	LTP263	ltpFR	13	n/a	n/a	n/a	n/a	n/a	n/a	n/a	n/a	n/a	n/a	n/a	n/a	n/a	n/a	n/a	n/a
1855.594	n/a	PROB	927797	n/a	LTP263	ltpFR	13	n/a	n/a	n/a	n/a	n/a	n/a	n/a	21	7	7	7	n/a	n/a	n/a	n/a	n/a
1856.774	n/a	PROB	928387	n/a	LTP263	ltpFR	13	n/a	n/a	n/a	n/a	n/a	n/a	n/a	12	2	6	4	n/a	n/a	n/a	n/a	n/a
1858.03	n/a	PROB	929015	n/a	LTP263	ltpFR	13	n/a	n/a	n/a	n/a	n/a	n/a	n/a	14	3	9	2	n/a	n/a	n/a	n/a	n/a
1860.036	n/a	PROB	930018	n/a	LTP263	ltpFR	13	n/a	n/a	n/a	n/a	n/a	n/a	n/a	18	5	9	4	n/a	n/a	n/a	n/a	n/a
1861.742	n/a	STOP	930871	n/a	LTP263	ltpFR	13	n/a	n/a	n/a	n/a	n/a	n/a	n/a	n/a	n/a	n/a	n/a	n/a	n/a	n/a	n/a	n/a
1863.54	n/a	WORD	931770	wordpools/wasnorm_wordpool_less_exclusions.txt	LTP263	ltpFR	13	7	0	SLUG	1329	n/a	n/a	0	n/a	0	0	0	0.422607421875	0.5869140625	0	lower	amplitud.ttf
1866.552	n/a	START	933276	n/a	LTP263	ltpFR	13	n/a	n/a	n/a	n/a	n/a	n/a	n/a	n/a	n/a	n/a	n/a	n/a	n/a	n/a	n/a	n/a
1867.756	n/a	PROB	933878	n/a	LTP263	ltpFR	13	n/a	n/a	n/a	n/a	n/a	n/a	n/a	12	2	2	8	n/a	n/a	n/a	n/a	n/a
1870.194	n/a	PROB	935097	n/a	LTP263	ltpFR	13	n/a	n/a	n/a	n/a	n/a	n/a	n/a	20	7	8	5	n/a	n/a	n/a	n/a	n/a
1872.886	n/a	PROB	936443	n/a	LTP263	ltpFR	13	n/a	n/a	n/a	n/a	n/a	n/a	n/a	14	3	3	8	n/a	n/a	n/a	n/a	n/a
1874.344	n/a	STOP	937172	n/a	LTP263	ltpFR	13	n/a	n/a	n/a	n/a	n/a	n/a	n/a	n/a	n/a	n/a	n/a	n/a	n/a	n/a	n/a	n/a
1875.686	n/a	WORD	937843	wordpools/wasnorm_wordpool_less_exclusions.txt	LTP263	ltpFR	13	7	0	TURTLE	1522	n/a	n/a	0	n/a	0	0	0	0.422607421875	0.5869140625	0	lower	amplitud.ttf
1878.698	n/a	START	939349	n/a	LTP263	ltpFR	13	n/a	n/a	n/a	n/a	n/a	n/a	n/a	n/a	n/a	n/a	n/a	n/a	n/a	n/a	n/a	n/a
1879.634	n/a	PROB	939817	n/a	LTP263	ltpFR	13	n/a	n/a	n/a	n/a	n/a	n/a	n/a	9	4	3	2	n/a	n/a	n/a	n/a	n/a
1881.006	n/a	PROB	940503	n/a	LTP263	ltpFR	13	n/a	n/a	n/a	n/a	n/a	n/a	n/a	19	8	9	3	n/a	n/a	n/a	n/a	n/a
1884.114	n/a	PROB	942057	n/a	LTP263	ltpFR	13	n/a	n/a	n/a	n/a	n/a	n/a	n/a	7	1	4	2	n/a	n/a	n/a	n/a	n/a
1885.368	n/a	STOP	942684	n/a	LTP263	ltpFR	13	n/a	n/a	n/a	n/a	n/a	n/a	n/a	n/a	n/a	n/a	n/a	n/a	n/a	n/a	n/a	n/a
1888.62	n/a	REC_START	944310	n/a	LTP263	ltpFR	13	7	n/a	n/a	n/a	n/a	n/a	n/a	n/a	0	0	0	n/a	n/a	n/a	n/a	n/a
1890.126	n/a	REC_WORD	945063	wordpools/wasnorm_wordpool_less_exclusions.txt	LTP263	ltpFR	13	7	0	ROSE	1212	n/a	n/a	0	n/a	0	0	0	n/a	n/a	n/a	n/a	n/a
1891.034	n/a	REC_WORD	945517	wordpools/wasnorm_wordpool_less_exclusions.txt	LTP263	ltpFR	13	7	0	TURTLE	1522	n/a	n/a	0	n/a	0	0	0	n/a	n/a	n/a	n/a	n/a
1891.822	n/a	REC_WORD	945911	wordpools/wasnorm_wordpool_less_exclusions.txt	LTP263	ltpFR	13	7	0	THORN	1459	n/a	n/a	0	n/a	0	0	0	n/a	n/a	n/a	n/a	n/a
1892.914	n/a	REC_WORD	946457	wordpools/wasnorm_wordpool_less_exclusions.txt	LTP263	ltpFR	13	7	0	SLUG	1329	n/a	n/a	0	n/a	0	0	0	n/a	n/a	n/a	n/a	n/a
1894.628	n/a	REC_WORD	947314	wordpools/wasnorm_wordpool_less_exclusions.txt	LTP263	ltpFR	13	7	1	SALMON	1227	n/a	n/a	1	n/a	0	0	0	n/a	n/a	n/a	n/a	n/a
1964.822	n/a	START	982411	n/a	LTP263	ltpFR	13	n/a	n/a	n/a	n/a	n/a	n/a	n/a	n/a	n/a	n/a	n/a	n/a	n/a	n/a	n/a	n/a
1966.334	n/a	PROB	983167	n/a	LTP263	ltpFR	13	n/a	n/a	n/a	n/a	n/a	n/a	n/a	6	3	2	1	n/a	n/a	n/a	n/a	n/a
1967.666	n/a	PROB	983833	n/a	LTP263	ltpFR	13	n/a	n/a	n/a	n/a	n/a	n/a	n/a	18	9	3	6	n/a	n/a	n/a	n/a	n/a
1969.412	n/a	PROB	984706	n/a	LTP263	ltpFR	13	n/a	n/a	n/a	n/a	n/a	n/a	n/a	16	8	4	4	n/a	n/a	n/a	n/a	n/a
1970.944	n/a	PROB	985472	n/a	LTP263	ltpFR	13	n/a	n/a	n/a	n/a	n/a	n/a	n/a	21	4	9	8	n/a	n/a	n/a	n/a	n/a
1972.452	n/a	STOP	986226	n/a	LTP263	ltpFR	13	n/a	n/a	n/a	n/a	n/a	n/a	n/a	n/a	n/a	n/a	n/a	n/a	n/a	n/a	n/a	n/a
1973.894	n/a	WORD	986947	wordpools/wasnorm_wordpool_less_exclusions.txt	LTP263	ltpFR	13	8	0	TOY	1492	n/a	n/a	0	n/a	0	0	0	0.422607421875	0.5869140625	0	lower	amplitud.ttf
1976.908	n/a	START	988454	n/a	LTP263	ltpFR	13	n/a	n/a	n/a	n/a	n/a	n/a	n/a	n/a	n/a	n/a	n/a	n/a	n/a	n/a	n/a	n/a
1978.038	n/a	PROB	989019	n/a	LTP263	ltpFR	13	n/a	n/a	n/a	n/a	n/a	n/a	n/a	7	1	5	1	n/a	n/a	n/a	n/a	n/a
1979.116	n/a	PROB	989558	n/a	LTP263	ltpFR	13	n/a	n/a	n/a	n/a	n/a	n/a	n/a	13	2	2	9	n/a	n/a	n/a	n/a	n/a
1980.632	n/a	PROB	990316	n/a	LTP263	ltpFR	13	n/a	n/a	n/a	n/a	n/a	n/a	n/a	14	6	4	4	n/a	n/a	n/a	n/a	n/a
1982.036	n/a	PROB	991018	n/a	LTP263	ltpFR	13	n/a	n/a	n/a	n/a	n/a	n/a	n/a	21	8	3	9	n/a	n/a	n/a	n/a	n/a
1983.766	n/a	STOP	991883	n/a	LTP263	ltpFR	13	n/a	n/a	n/a	n/a	n/a	n/a	n/a	n/a	n/a	n/a	n/a	n/a	n/a	n/a	n/a	n/a
1985.818	n/a	WORD	992909	wordpools/wasnorm_wordpool_less_exclusions.txt	LTP263	ltpFR	13	8	0	VET	1560	n/a	n/a	1	n/a	0	0	0	0.422607421875	0.5869140625	0	lower	amplitud.ttf
1988.83	n/a	START	994415	n/a	LTP263	ltpFR	13	n/a	n/a	n/a	n/a	n/a	n/a	n/a	n/a	n/a	n/a	n/a	n/a	n/a	n/a	n/a	n/a
1989.974	n/a	PROB	994987	n/a	LTP263	ltpFR	13	n/a	n/a	n/a	n/a	n/a	n/a	n/a	18	8	4	6	n/a	n/a	n/a	n/a	n/a
1991.312	n/a	PROB	995656	n/a	LTP263	ltpFR	13	n/a	n/a	n/a	n/a	n/a	n/a	n/a	13	1	6	6	n/a	n/a	n/a	n/a	n/a
1992.416	n/a	PROB	996208	n/a	LTP263	ltpFR	13	n/a	n/a	n/a	n/a	n/a	n/a	n/a	14	6	4	4	n/a	n/a	n/a	n/a	n/a
1993.486	n/a	PROB	996743	n/a	LTP263	ltpFR	13	n/a	n/a	n/a	n/a	n/a	n/a	n/a	16	6	1	9	n/a	n/a	n/a	n/a	n/a
1994.792	n/a	PROB	997396	n/a	LTP263	ltpFR	13	n/a	n/a	n/a	n/a	n/a	n/a	n/a	20	6	6	8	n/a	n/a	n/a	n/a	n/a
1996.022	n/a	STOP	998011	n/a	LTP263	ltpFR	13	n/a	n/a	n/a	n/a	n/a	n/a	n/a	n/a	n/a	n/a	n/a	n/a	n/a	n/a	n/a	n/a
1997.964	n/a	WORD	998982	wordpools/wasnorm_wordpool_less_exclusions.txt	LTP263	ltpFR	13	8	0	THESAURUS	1454	n/a	n/a	0	n/a	0	0	0	0.422607421875	0.5869140625	0	lower	amplitud.ttf
2000.976	n/a	START	1000488	n/a	LTP263	ltpFR	13	n/a	n/a	n/a	n/a	n/a	n/a	n/a	n/a	n/a	n/a	n/a	n/a	n/a	n/a	n/a	n/a
2001.912	n/a	PROB	1000956	n/a	LTP263	ltpFR	13	n/a	n/a	n/a	n/a	n/a	n/a	n/a	20	7	8	5	n/a	n/a	n/a	n/a	n/a
2004.83	n/a	PROB	1002415	n/a	LTP263	ltpFR	13	n/a	n/a	n/a	n/a	n/a	n/a	n/a	19	8	9	2	n/a	n/a	n/a	n/a	n/a
2008.976	n/a	STOP	1004488	n/a	LTP263	ltpFR	13	n/a	n/a	n/a	n/a	n/a	n/a	n/a	n/a	n/a	n/a	n/a	n/a	n/a	n/a	n/a	n/a
2010.066	n/a	WORD	1005033	wordpools/wasnorm_wordpool_less_exclusions.txt	LTP263	ltpFR	13	8	0	PASSAGE	1019	n/a	n/a	1	n/a	0	0	0	0.422607421875	0.5869140625	0	lower	amplitud.ttf
2013.078	n/a	START	1006539	n/a	LTP263	ltpFR	13	n/a	n/a	n/a	n/a	n/a	n/a	n/a	n/a	n/a	n/a	n/a	n/a	n/a	n/a	n/a	n/a
2014.098	n/a	PROB	1007049	n/a	LTP263	ltpFR	13	n/a	n/a	n/a	n/a	n/a	n/a	n/a	25	9	7	9	n/a	n/a	n/a	n/a	n/a
2016.518	n/a	PROB	1008259	n/a	LTP263	ltpFR	13	n/a	n/a	n/a	n/a	n/a	n/a	n/a	12	4	5	4	n/a	n/a	n/a	n/a	n/a
2018.298	n/a	PROB	1009149	n/a	LTP263	ltpFR	13	n/a	n/a	n/a	n/a	n/a	n/a	n/a	21	5	8	8	n/a	n/a	n/a	n/a	n/a
2019.552	n/a	STOP	1009776	n/a	LTP263	ltpFR	13	n/a	n/a	n/a	n/a	n/a	n/a	n/a	n/a	n/a	n/a	n/a	n/a	n/a	n/a	n/a	n/a
2021.996	n/a	WORD	1010998	wordpools/wasnorm_wordpool_less_exclusions.txt	LTP263	ltpFR	13	8	0	CABOOSE	214	n/a	n/a	1	n/a	0	0	0	0.422607421875	0.5869140625	0	lower	amplitud.ttf
2025.008	n/a	START	1012504	n/a	LTP263	ltpFR	13	n/a	n/a	n/a	n/a	n/a	n/a	n/a	n/a	n/a	n/a	n/a	n/a	n/a	n/a	n/a	n/a
2026.19	n/a	PROB	1013095	n/a	LTP263	ltpFR	13	n/a	n/a	n/a	n/a	n/a	n/a	n/a	23	6	7	9	n/a	n/a	n/a	n/a	n/a
2027.566	n/a	PROB	1013783	n/a	LTP263	ltpFR	13	n/a	n/a	n/a	n/a	n/a	n/a	n/a	21	9	4	8	n/a	n/a	n/a	n/a	n/a
2029.134	n/a	PROB	1014567	n/a	LTP263	ltpFR	13	n/a	n/a	n/a	n/a	n/a	n/a	n/a	14	5	6	3	n/a	n/a	n/a	n/a	n/a
2033.006	n/a	STOP	1016503	n/a	LTP263	ltpFR	13	n/a	n/a	n/a	n/a	n/a	n/a	n/a	n/a	n/a	n/a	n/a	n/a	n/a	n/a	n/a	n/a
2034.192	n/a	WORD	1017096	wordpools/wasnorm_wordpool_less_exclusions.txt	LTP263	ltpFR	13	8	0	PILL	1068	n/a	n/a	0	n/a	0	0	0	0.422607421875	0.5869140625	0	lower	amplitud.ttf
2037.206	n/a	START	1018603	n/a	LTP263	ltpFR	13	n/a	n/a	n/a	n/a	n/a	n/a	n/a	n/a	n/a	n/a	n/a	n/a	n/a	n/a	n/a	n/a
2038.024	n/a	PROB	1019012	n/a	LTP263	ltpFR	13	n/a	n/a	n/a	n/a	n/a	n/a	n/a	20	7	7	6	n/a	n/a	n/a	n/a	n/a
2039.512	n/a	PROB	1019756	n/a	LTP263	ltpFR	13	n/a	n/a	n/a	n/a	n/a	n/a	n/a	17	9	3	5	n/a	n/a	n/a	n/a	n/a
2041.364	n/a	PROB	1020682	n/a	LTP263	ltpFR	13	n/a	n/a	n/a	n/a	n/a	n/a	n/a	5	2	2	1	n/a	n/a	n/a	n/a	n/a
2043.042	n/a	PROB	1021521	n/a	LTP263	ltpFR	13	n/a	n/a	n/a	n/a	n/a	n/a	n/a	14	1	5	8	n/a	n/a	n/a	n/a	n/a
2044.36	n/a	STOP	1022180	n/a	LTP263	ltpFR	13	n/a	n/a	n/a	n/a	n/a	n/a	n/a	n/a	n/a	n/a	n/a	n/a	n/a	n/a	n/a	n/a
2046.07	n/a	WORD	1023035	wordpools/wasnorm_wordpool_less_exclusions.txt	LTP263	ltpFR	13	8	0	QUILL	1150	n/a	n/a	0	n/a	0	0	0	0.422607421875	0.5869140625	0	lower	amplitud.ttf
2049.082	n/a	START	1024541	n/a	LTP263	ltpFR	13	n/a	n/a	n/a	n/a	n/a	n/a	n/a	n/a	n/a	n/a	n/a	n/a	n/a	n/a	n/a	n/a
2050.052	n/a	PROB	1025026	n/a	LTP263	ltpFR	13	n/a	n/a	n/a	n/a	n/a	n/a	n/a	16	3	5	8	n/a	n/a	n/a	n/a	n/a
2051.402	n/a	PROB	1025701	n/a	LTP263	ltpFR	13	n/a	n/a	n/a	n/a	n/a	n/a	n/a	14	2	6	6	n/a	n/a	n/a	n/a	n/a
2052.724	n/a	PROB	1026362	n/a	LTP263	ltpFR	13	n/a	n/a	n/a	n/a	n/a	n/a	n/a	25	8	8	9	n/a	n/a	n/a	n/a	n/a
2056.466	n/a	STOP	1028233	n/a	LTP263	ltpFR	13	n/a	n/a	n/a	n/a	n/a	n/a	n/a	n/a	n/a	n/a	n/a	n/a	n/a	n/a	n/a	n/a
2057.934	n/a	WORD	1028967	wordpools/wasnorm_wordpool_less_exclusions.txt	LTP263	ltpFR	13	8	0	ESSAY	540	n/a	n/a	0	n/a	0	0	0	0.422607421875	0.5869140625	0	lower	amplitud.ttf
2060.946	n/a	START	1030473	n/a	LTP263	ltpFR	13	n/a	n/a	n/a	n/a	n/a	n/a	n/a	n/a	n/a	n/a	n/a	n/a	n/a	n/a	n/a	n/a
2061.998	n/a	PROB	1030999	n/a	LTP263	ltpFR	13	n/a	n/a	n/a	n/a	n/a	n/a	n/a	14	4	1	9	n/a	n/a	n/a	n/a	n/a
2063.198	n/a	PROB	1031599	n/a	LTP263	ltpFR	13	n/a	n/a	n/a	n/a	n/a	n/a	n/a	10	1	6	3	n/a	n/a	n/a	n/a	n/a
2064.486	n/a	PROB	1032243	n/a	LTP263	ltpFR	13	n/a	n/a	n/a	n/a	n/a	n/a	n/a	6	2	1	3	n/a	n/a	n/a	n/a	n/a
2066.048	n/a	PROB	1033024	n/a	LTP263	ltpFR	13	n/a	n/a	n/a	n/a	n/a	n/a	n/a	11	2	5	4	n/a	n/a	n/a	n/a	n/a
2067.312	n/a	PROB	1033656	n/a	LTP263	ltpFR	13	n/a	n/a	n/a	n/a	n/a	n/a	n/a	3	1	1	1	n/a	n/a	n/a	n/a	n/a
2068.098	n/a	STOP	1034049	n/a	LTP263	ltpFR	13	n/a	n/a	n/a	n/a	n/a	n/a	n/a	n/a	n/a	n/a	n/a	n/a	n/a	n/a	n/a	n/a
2069.838	n/a	WORD	1034919	wordpools/wasnorm_wordpool_less_exclusions.txt	LTP263	ltpFR	13	8	0	STABLE	1363	n/a	n/a	1	n/a	0	0	0	0.422607421875	0.5869140625	0	lower	amplitud.ttf
2072.852	n/a	START	1036426	n/a	LTP263	ltpFR	13	n/a	n/a	n/a	n/a	n/a	n/a	n/a	n/a	n/a	n/a	n/a	n/a	n/a	n/a	n/a	n/a
2074.006	n/a	PROB	1037003	n/a	LTP263	ltpFR	13	n/a	n/a	n/a	n/a	n/a	n/a	n/a	13	5	7	1	n/a	n/a	n/a	n/a	n/a
2075.2	n/a	PROB	1037600	n/a	LTP263	ltpFR	13	n/a	n/a	n/a	n/a	n/a	n/a	n/a	20	7	4	9	n/a	n/a	n/a	n/a	n/a
2077.67	n/a	PROB	1038835	n/a	LTP263	ltpFR	13	n/a	n/a	n/a	n/a	n/a	n/a	n/a	19	1	7	9	n/a	n/a	n/a	n/a	n/a
2080.852	n/a	STOP	1040426	n/a	LTP263	ltpFR	13	n/a	n/a	n/a	n/a	n/a	n/a	n/a	n/a	n/a	n/a	n/a	n/a	n/a	n/a	n/a	n/a
2082.042	n/a	WORD	1041021	wordpools/wasnorm_wordpool_less_exclusions.txt	LTP263	ltpFR	13	8	0	STAFF	1365	n/a	n/a	1	n/a	0	0	0	0.422607421875	0.5869140625	0	lower	amplitud.ttf
2085.054	n/a	START	1042527	n/a	LTP263	ltpFR	13	n/a	n/a	n/a	n/a	n/a	n/a	n/a	n/a	n/a	n/a	n/a	n/a	n/a	n/a	n/a	n/a
2086.09	n/a	PROB	1043045	n/a	LTP263	ltpFR	13	n/a	n/a	n/a	n/a	n/a	n/a	n/a	8	3	4	1	n/a	n/a	n/a	n/a	n/a
2087.212	n/a	PROB	1043606	n/a	LTP263	ltpFR	13	n/a	n/a	n/a	n/a	n/a	n/a	n/a	18	5	4	9	n/a	n/a	n/a	n/a	n/a
2089.898	n/a	PROB	1044949	n/a	LTP263	ltpFR	13	n/a	n/a	n/a	n/a	n/a	n/a	n/a	13	2	6	5	n/a	n/a	n/a	n/a	n/a
2091.338	n/a	PROB	1045669	n/a	LTP263	ltpFR	13	n/a	n/a	n/a	n/a	n/a	n/a	n/a	7	3	3	1	n/a	n/a	n/a	n/a	n/a
2092.324	n/a	STOP	1046162	n/a	LTP263	ltpFR	13	n/a	n/a	n/a	n/a	n/a	n/a	n/a	n/a	n/a	n/a	n/a	n/a	n/a	n/a	n/a	n/a
2093.988	n/a	WORD	1046994	wordpools/wasnorm_wordpool_less_exclusions.txt	LTP263	ltpFR	13	8	0	GIRAFFE	636	n/a	n/a	1	n/a	0	0	0	0.422607421875	0.5869140625	0	lower	amplitud.ttf
2097.0	n/a	START	1048500	n/a	LTP263	ltpFR	13	n/a	n/a	n/a	n/a	n/a	n/a	n/a	n/a	n/a	n/a	n/a	n/a	n/a	n/a	n/a	n/a
2098.154	n/a	PROB	1049077	n/a	LTP263	ltpFR	13	n/a	n/a	n/a	n/a	n/a	n/a	n/a	17	7	4	6	n/a	n/a	n/a	n/a	n/a
2099.374	n/a	PROB	1049687	n/a	LTP263	ltpFR	13	n/a	n/a	n/a	n/a	n/a	n/a	n/a	25	8	9	8	n/a	n/a	n/a	n/a	n/a
2105.0	n/a	STOP	1052500	n/a	LTP263	ltpFR	13	n/a	n/a	n/a	n/a	n/a	n/a	n/a	n/a	n/a	n/a	n/a	n/a	n/a	n/a	n/a	n/a
2106.162	n/a	WORD	1053081	wordpools/wasnorm_wordpool_less_exclusions.txt	LTP263	ltpFR	13	8	0	DICE	461	n/a	n/a	0	n/a	0	0	0	0.422607421875	0.5869140625	0	lower	amplitud.ttf
2109.174	n/a	START	1054587	n/a	LTP263	ltpFR	13	n/a	n/a	n/a	n/a	n/a	n/a	n/a	n/a	n/a	n/a	n/a	n/a	n/a	n/a	n/a	n/a
2110.082	n/a	PROB	1055041	n/a	LTP263	ltpFR	13	n/a	n/a	n/a	n/a	n/a	n/a	n/a	16	2	5	9	n/a	n/a	n/a	n/a	n/a
2112.168	n/a	PROB	1056084	n/a	LTP263	ltpFR	13	n/a	n/a	n/a	n/a	n/a	n/a	n/a	16	1	7	8	n/a	n/a	n/a	n/a	n/a
2113.63	n/a	PROB	1056815	n/a	LTP263	ltpFR	13	n/a	n/a	n/a	n/a	n/a	n/a	n/a	21	5	8	8	n/a	n/a	n/a	n/a	n/a
2117.174	n/a	STOP	1058587	n/a	LTP263	ltpFR	13	n/a	n/a	n/a	n/a	n/a	n/a	n/a	n/a	n/a	n/a	n/a	n/a	n/a	n/a	n/a	n/a
2118.214	n/a	WORD	1059107	wordpools/wasnorm_wordpool_less_exclusions.txt	LTP263	ltpFR	13	8	0	TRAIN	1494	n/a	n/a	1	n/a	0	0	0	0.422607421875	0.5869140625	0	lower	amplitud.ttf
2121.226	n/a	START	1060613	n/a	LTP263	ltpFR	13	n/a	n/a	n/a	n/a	n/a	n/a	n/a	n/a	n/a	n/a	n/a	n/a	n/a	n/a	n/a	n/a
2122.296	n/a	PROB	1061148	n/a	LTP263	ltpFR	13	n/a	n/a	n/a	n/a	n/a	n/a	n/a	12	8	1	3	n/a	n/a	n/a	n/a	n/a
2123.65	n/a	PROB	1061825	n/a	LTP263	ltpFR	13	n/a	n/a	n/a	n/a	n/a	n/a	n/a	14	5	7	2	n/a	n/a	n/a	n/a	n/a
2125.306	n/a	PROB	1062653	n/a	LTP263	ltpFR	13	n/a	n/a	n/a	n/a	n/a	n/a	n/a	17	7	5	5	n/a	n/a	n/a	n/a	n/a
2126.638	n/a	PROB	1063319	n/a	LTP263	ltpFR	13	n/a	n/a	n/a	n/a	n/a	n/a	n/a	16	7	7	2	n/a	n/a	n/a	n/a	n/a
2127.836	n/a	STOP	1063918	n/a	LTP263	ltpFR	13	n/a	n/a	n/a	n/a	n/a	n/a	n/a	n/a	n/a	n/a	n/a	n/a	n/a	n/a	n/a	n/a
2130.138	n/a	WORD	1065069	wordpools/wasnorm_wordpool_less_exclusions.txt	LTP263	ltpFR	13	8	0	CUCUMBER	421	n/a	n/a	0	n/a	0	0	0	0.422607421875	0.5869140625	0	lower	amplitud.ttf
2133.15	n/a	START	1066575	n/a	LTP263	ltpFR	13	n/a	n/a	n/a	n/a	n/a	n/a	n/a	n/a	n/a	n/a	n/a	n/a	n/a	n/a	n/a	n/a
2133.984	n/a	PROB	1066992	n/a	LTP263	ltpFR	13	n/a	n/a	n/a	n/a	n/a	n/a	n/a	15	2	4	9	n/a	n/a	n/a	n/a	n/a
2136.066	n/a	PROB	1068033	n/a	LTP263	ltpFR	13	n/a	n/a	n/a	n/a	n/a	n/a	n/a	21	7	9	5	n/a	n/a	n/a	n/a	n/a
2140.99	n/a	STOP	1070495	n/a	LTP263	ltpFR	13	n/a	n/a	n/a	n/a	n/a	n/a	n/a	n/a	n/a	n/a	n/a	n/a	n/a	n/a	n/a	n/a
2142.02	n/a	WORD	1071010	wordpools/wasnorm_wordpool_less_exclusions.txt	LTP263	ltpFR	13	8	0	MUFFIN	929	n/a	n/a	0	n/a	0	0	0	0.422607421875	0.5869140625	0	lower	amplitud.ttf
2145.032	n/a	START	1072516	n/a	LTP263	ltpFR	13	n/a	n/a	n/a	n/a	n/a	n/a	n/a	n/a	n/a	n/a	n/a	n/a	n/a	n/a	n/a	n/a
2146.214	n/a	PROB	1073107	n/a	LTP263	ltpFR	13	n/a	n/a	n/a	n/a	n/a	n/a	n/a	10	3	2	5	n/a	n/a	n/a	n/a	n/a
2148.174	n/a	PROB	1074087	n/a	LTP263	ltpFR	13	n/a	n/a	n/a	n/a	n/a	n/a	n/a	14	1	6	7	n/a	n/a	n/a	n/a	n/a
2149.768	n/a	PROB	1074884	n/a	LTP263	ltpFR	13	n/a	n/a	n/a	n/a	n/a	n/a	n/a	17	8	6	3	n/a	n/a	n/a	n/a	n/a
2152.054	n/a	STOP	1076027	n/a	LTP263	ltpFR	13	n/a	n/a	n/a	n/a	n/a	n/a	n/a	n/a	n/a	n/a	n/a	n/a	n/a	n/a	n/a	n/a
2154.218	n/a	WORD	1077109	wordpools/wasnorm_wordpool_less_exclusions.txt	LTP263	ltpFR	13	8	0	TOASTER	1472	n/a	n/a	0	n/a	0	0	0	0.422607421875	0.5869140625	0	lower	amplitud.ttf
2157.23	n/a	START	1078615	n/a	LTP263	ltpFR	13	n/a	n/a	n/a	n/a	n/a	n/a	n/a	n/a	n/a	n/a	n/a	n/a	n/a	n/a	n/a	n/a
2158.1	n/a	PROB	1079050	n/a	LTP263	ltpFR	13	n/a	n/a	n/a	n/a	n/a	n/a	n/a	16	1	9	6	n/a	n/a	n/a	n/a	n/a
2159.272	n/a	PROB	1079636	n/a	LTP263	ltpFR	13	n/a	n/a	n/a	n/a	n/a	n/a	n/a	12	5	1	6	n/a	n/a	n/a	n/a	n/a
2160.67	n/a	PROB	1080335	n/a	LTP263	ltpFR	13	n/a	n/a	n/a	n/a	n/a	n/a	n/a	15	9	6	1	n/a	n/a	n/a	n/a	n/a
2162.358	n/a	PROB	1081179	n/a	LTP263	ltpFR	13	n/a	n/a	n/a	n/a	n/a	n/a	n/a	19	8	2	9	n/a	n/a	n/a	n/a	n/a
2163.714	n/a	PROB	1081857	n/a	LTP263	ltpFR	13	n/a	n/a	n/a	n/a	n/a	n/a	n/a	6	1	2	3	n/a	n/a	n/a	n/a	n/a
2164.862	n/a	STOP	1082431	n/a	LTP263	ltpFR	13	n/a	n/a	n/a	n/a	n/a	n/a	n/a	n/a	n/a	n/a	n/a	n/a	n/a	n/a	n/a	n/a
2167.13	n/a	REC_START	1083565	n/a	LTP263	ltpFR	13	8	n/a	n/a	n/a	n/a	n/a	n/a	n/a	0	0	0	n/a	n/a	n/a	n/a	n/a
2181.468	n/a	REC_WORD	1090734	wordpools/wasnorm_wordpool_less_exclusions.txt	LTP263	ltpFR	13	8	0	VET	1560	n/a	n/a	1	n/a	0	0	0	n/a	n/a	n/a	n/a	n/a
2184.082	n/a	REC_WORD_VV	1092041	wordpools/wasnorm_wordpool_less_exclusions.txt	LTP263	ltpFR	13	8	n/a	<>	-1	n/a	n/a	n/a	n/a	0	0	0	n/a	n/a	n/a	n/a	n/a
2244.926	n/a	WORD	1122463	wordpools/wasnorm_wordpool_less_exclusions.txt	LTP263	ltpFR	13	9	0	PIT	1077	n/a	n/a	0	n/a	0	0	0	0.422607421875	0.5869140625	0	lower	amplitud.ttf
2249.04	n/a	WORD	1124520	wordpools/wasnorm_wordpool_less_exclusions.txt	LTP263	ltpFR	13	9	0	NEWSSTAND	949	n/a	n/a	1	n/a	0	0	0	0.422607421875	0.5869140625	0	lower	amplitud.ttf
2253.122	n/a	WORD	1126561	wordpools/wasnorm_wordpool_less_exclusions.txt	LTP263	ltpFR	13	9	1	FOREST	593	n/a	n/a	1	n/a	0	0	0	0.57763671875	0.412841796875	1	upper	zerothre.ttf
2257.178	n/a	WORD	1128589	wordpools/wasnorm_wordpool_less_exclusions.txt	LTP263	ltpFR	13	9	1	HAND	683	n/a	n/a	1	n/a	0	0	0	0.57763671875	0.412841796875	1	upper	zerothre.ttf
2261.126	n/a	WORD	1130563	wordpools/wasnorm_wordpool_less_exclusions.txt	LTP263	ltpFR	13	9	1	VIDEO	1564	n/a	n/a	0	n/a	0	0	0	0.57763671875	0.412841796875	1	upper	zerothre.ttf
2265.186	n/a	WORD	1132593	wordpools/wasnorm_wordpool_less_exclusions.txt	LTP263	ltpFR	13	9	1	PRODUCER	1129	n/a	n/a	1	n/a	0	0	0	0.57763671875	0.412841796875	1	upper	zerothre.ttf
2269.158	n/a	WORD	1134579	wordpools/wasnorm_wordpool_less_exclusions.txt	LTP263	ltpFR	13	9	0	DIME	466	n/a	n/a	0	n/a	0	0	0	0.422607421875	0.5869140625	0	lower	amplitud.ttf
2273.216	n/a	WORD	1136608	wordpools/wasnorm_wordpool_less_exclusions.txt	LTP263	ltpFR	13	9	0	PAINTER	1004	n/a	n/a	1	n/a	0	0	0	0.422607421875	0.5869140625	0	lower	amplitud.ttf
2277.204	n/a	WORD	1138602	wordpools/wasnorm_wordpool_less_exclusions.txt	LTP263	ltpFR	13	9	0	LIMOUSINE	824	n/a	n/a	1	n/a	0	0	0	0.422607421875	0.5869140625	0	lower	amplitud.ttf
2281.282	n/a	WORD	1140641	wordpools/wasnorm_wordpool_less_exclusions.txt	LTP263	ltpFR	13	9	1	IDOL	733	n/a	n/a	1	n/a	0	0	0	0.57763671875	0.412841796875	1	upper	zerothre.ttf
2285.362	n/a	WORD	1142681	wordpools/wasnorm_wordpool_less_exclusions.txt	LTP263	ltpFR	13	9	1	DOUGHNUT	490	n/a	n/a	0	n/a	0	0	0	0.57763671875	0.412841796875	1	upper	zerothre.ttf
2289.512	n/a	WORD	1144756	wordpools/wasnorm_wordpool_less_exclusions.txt	LTP263	ltpFR	13	9	1	FINGER	567	n/a	n/a	1	n/a	0	0	0	0.57763671875	0.412841796875	1	upper	zerothre.ttf
2293.734	n/a	WORD	1146867	wordpools/wasnorm_wordpool_less_exclusions.txt	LTP263	ltpFR	13	9	1	BEAN	105	n/a	n/a	0	n/a	0	0	0	0.57763671875	0.412841796875	1	upper	zerothre.ttf
2297.776	n/a	WORD	1148888	wordpools/wasnorm_wordpool_less_exclusions.txt	LTP263	ltpFR	13	9	0	WINDOW	1611	n/a	n/a	1	n/a	0	0	0	0.422607421875	0.5869140625	0	lower	amplitud.ttf
2301.942	n/a	WORD	1150971	wordpools/wasnorm_wordpool_less_exclusions.txt	LTP263	ltpFR	13	9	0	PLANT	1083	n/a	n/a	0	n/a	0	0	0	0.422607421875	0.5869140625	0	lower	amplitud.ttf
2306.114	n/a	WORD	1153057	wordpools/wasnorm_wordpool_less_exclusions.txt	LTP263	ltpFR	13	9	0	DANDELION	438	n/a	n/a	0	n/a	0	0	0	0.422607421875	0.5869140625	0	lower	amplitud.ttf
2309.126	n/a	START	1154563	n/a	LTP263	ltpFR	13	n/a	n/a	n/a	n/a	n/a	n/a	n/a	n/a	n/a	n/a	n/a	n/a	n/a	n/a	n/a	n/a
2310.074	n/a	PROB	1155037	n/a	LTP263	ltpFR	13	n/a	n/a	n/a	n/a	n/a	n/a	n/a	7	1	4	2	n/a	n/a	n/a	n/a	n/a
2311.88	n/a	PROB	1155940	n/a	LTP263	ltpFR	13	n/a	n/a	n/a	n/a	n/a	n/a	n/a	16	7	4	5	n/a	n/a	n/a	n/a	n/a
2314.446	n/a	PROB	1157223	n/a	LTP263	ltpFR	13	n/a	n/a	n/a	n/a	n/a	n/a	n/a	25	9	8	8	n/a	n/a	n/a	n/a	n/a
2316.24	n/a	STOP	1158120	n/a	LTP263	ltpFR	13	n/a	n/a	n/a	n/a	n/a	n/a	n/a	n/a	n/a	n/a	n/a	n/a	n/a	n/a	n/a	n/a
2319.042	n/a	REC_START	1159521	n/a	LTP263	ltpFR	13	9	n/a	n/a	n/a	n/a	n/a	n/a	n/a	0	0	0	n/a	n/a	n/a	n/a	n/a
2320.358	n/a	REC_WORD	1160179	wordpools/wasnorm_wordpool_less_exclusions.txt	LTP263	ltpFR	13	9	0	NEWSSTAND	949	n/a	n/a	1	n/a	0	0	0	n/a	n/a	n/a	n/a	n/a
2321.55	n/a	REC_WORD	1160775	wordpools/wasnorm_wordpool_less_exclusions.txt	LTP263	ltpFR	13	9	0	PIT	1077	n/a	n/a	0	n/a	0	0	0	n/a	n/a	n/a	n/a	n/a
2323.778	n/a	REC_WORD	1161889	wordpools/wasnorm_wordpool_less_exclusions.txt	LTP263	ltpFR	13	9	1	FINGER	567	n/a	n/a	1	n/a	0	0	0	n/a	n/a	n/a	n/a	n/a
2324.77	n/a	REC_WORD	1162385	wordpools/wasnorm_wordpool_less_exclusions.txt	LTP263	ltpFR	13	9	1	DOUGHNUT	490	n/a	n/a	0	n/a	0	0	0	n/a	n/a	n/a	n/a	n/a
2325.772	n/a	REC_WORD	1162886	wordpools/wasnorm_wordpool_less_exclusions.txt	LTP263	ltpFR	13	9	1	BEAN	105	n/a	n/a	0	n/a	0	0	0	n/a	n/a	n/a	n/a	n/a
2327.122	n/a	REC_WORD	1163561	wordpools/wasnorm_wordpool_less_exclusions.txt	LTP263	ltpFR	13	9	0	LIMOUSINE	824	n/a	n/a	1	n/a	0	0	0	n/a	n/a	n/a	n/a	n/a
2328.344	n/a	REC_WORD	1164172	wordpools/wasnorm_wordpool_less_exclusions.txt	LTP263	ltpFR	13	9	0	PAINTER	1004	n/a	n/a	1	n/a	0	0	0	n/a	n/a	n/a	n/a	n/a
2329.148	n/a	REC_WORD	1164574	wordpools/wasnorm_wordpool_less_exclusions.txt	LTP263	ltpFR	13	9	1	FOREST	593	n/a	n/a	1	n/a	0	0	0	n/a	n/a	n/a	n/a	n/a
2330.672	n/a	REC_WORD	1165336	wordpools/wasnorm_wordpool_less_exclusions.txt	LTP263	ltpFR	13	9	1	IDOL	733	n/a	n/a	1	n/a	0	0	0	n/a	n/a	n/a	n/a	n/a
2332.546	n/a	REC_WORD	1166273	wordpools/wasnorm_wordpool_less_exclusions.txt	LTP263	ltpFR	13	9	0	DANDELION	438	n/a	n/a	0	n/a	0	0	0	n/a	n/a	n/a	n/a	n/a
2334.362	n/a	REC_WORD	1167181	wordpools/wasnorm_wordpool_less_exclusions.txt	LTP263	ltpFR	13	9	0	PLANT	1083	n/a	n/a	0	n/a	0	0	0	n/a	n/a	n/a	n/a	n/a
2342.774	n/a	REC_WORD	1171387	wordpools/wasnorm_wordpool_less_exclusions.txt	LTP263	ltpFR	13	9	1	PRODUCER	1129	n/a	n/a	1	n/a	0	0	0	n/a	n/a	n/a	n/a	n/a
2343.962	n/a	REC_WORD	1171981	wordpools/wasnorm_wordpool_less_exclusions.txt	LTP263	ltpFR	13	9	1	VIDEO	1564	n/a	n/a	0	n/a	0	0	0	n/a	n/a	n/a	n/a	n/a
2352.23	n/a	REC_WORD	1176115	wordpools/wasnorm_wordpool_less_exclusions.txt	LTP263	ltpFR	13	9	1	HAND	683	n/a	n/a	1	n/a	0	0	0	n/a	n/a	n/a	n/a	n/a
2359.724	n/a	REC_WORD	1179862	wordpools/wasnorm_wordpool_less_exclusions.txt	LTP263	ltpFR	13	9	0	WINDOW	1611	n/a	n/a	1	n/a	0	0	0	n/a	n/a	n/a	n/a	n/a
2396.94	n/a	WORD	1198470	wordpools/wasnorm_wordpool_less_exclusions.txt	LTP263	ltpFR	13	10	1	LIEUTENANT	818	n/a	n/a	1	n/a	0	0	0	0.57763671875	0.412841796875	1	upper	zerothre.ttf
2401.078	n/a	WORD	1200539	wordpools/wasnorm_wordpool_less_exclusions.txt	LTP263	ltpFR	13	10	1	SERGEANT	1269	n/a	n/a	1	n/a	0	0	0	0.57763671875	0.412841796875	1	upper	zerothre.ttf
2404.926	n/a	WORD	1202463	wordpools/wasnorm_wordpool_less_exclusions.txt	LTP263	ltpFR	13	10	1	TURKEY	1520	n/a	n/a	0	n/a	0	0	0	0.57763671875	0.412841796875	1	upper	zerothre.ttf
2408.756	n/a	WORD	1204378	wordpools/wasnorm_wordpool_less_exclusions.txt	LTP263	ltpFR	13	10	1	THRONE	1461	n/a	n/a	0	n/a	0	0	0	0.57763671875	0.412841796875	1	upper	zerothre.ttf
2412.706	n/a	WORD	1206353	wordpools/wasnorm_wordpool_less_exclusions.txt	LTP263	ltpFR	13	10	0	TAG	1429	n/a	n/a	0	n/a	0	0	0	0.422607421875	0.5869140625	0	lower	amplitud.ttf
2416.554	n/a	WORD	1208277	wordpools/wasnorm_wordpool_less_exclusions.txt	LTP263	ltpFR	13	10	0	KNUCKLE	789	n/a	n/a	0	n/a	0	0	0	0.422607421875	0.5869140625	0	lower	amplitud.ttf
2420.446	n/a	WORD	1210223	wordpools/wasnorm_wordpool_less_exclusions.txt	LTP263	ltpFR	13	10	0	CASTLE	256	n/a	n/a	1	n/a	0	0	0	0.422607421875	0.5869140625	0	lower	amplitud.ttf
2424.578	n/a	WORD	1212289	wordpools/wasnorm_wordpool_less_exclusions.txt	LTP263	ltpFR	13	10	0	HANGER	687	n/a	n/a	0	n/a	0	0	0	0.422607421875	0.5869140625	0	lower	amplitud.ttf
2428.794	n/a	WORD	1214397	wordpools/wasnorm_wordpool_less_exclusions.txt	LTP263	ltpFR	13	10	0	STONE	1385	n/a	n/a	0	n/a	0	0	0	0.422607421875	0.5869140625	0	lower	amplitud.ttf
2432.91	n/a	WORD	1216455	wordpools/wasnorm_wordpool_less_exclusions.txt	LTP263	ltpFR	13	10	1	HAMMER	680	n/a	n/a	0	n/a	0	0	0	0.57763671875	0.412841796875	1	upper	zerothre.ttf
2436.774	n/a	WORD	1218387	wordpools/wasnorm_wordpool_less_exclusions.txt	LTP263	ltpFR	13	10	1	JURY	766	n/a	n/a	1	n/a	0	0	0	0.57763671875	0.412841796875	1	upper	zerothre.ttf
2440.762	n/a	WORD	1220381	wordpools/wasnorm_wordpool_less_exclusions.txt	LTP263	ltpFR	13	10	0	LONDON	843	n/a	n/a	1	n/a	0	0	0	0.422607421875	0.5869140625	0	lower	amplitud.ttf
2444.872	n/a	WORD	1222436	wordpools/wasnorm_wordpool_less_exclusions.txt	LTP263	ltpFR	13	10	0	KNOB	787	n/a	n/a	0	n/a	0	0	0	0.422607421875	0.5869140625	0	lower	amplitud.ttf
2448.742	n/a	WORD	1224371	wordpools/wasnorm_wordpool_less_exclusions.txt	LTP263	ltpFR	13	10	0	KEEPER	769	n/a	n/a	1	n/a	0	0	0	0.422607421875	0.5869140625	0	lower	amplitud.ttf
2452.954	n/a	WORD	1226477	wordpools/wasnorm_wordpool_less_exclusions.txt	LTP263	ltpFR	13	10	1	SUITCASE	1403	n/a	n/a	0	n/a	0	0	0	0.57763671875	0.412841796875	1	upper	zerothre.ttf
2457.144	n/a	WORD	1228572	wordpools/wasnorm_wordpool_less_exclusions.txt	LTP263	ltpFR	13	10	1	KNAPSACK	783	n/a	n/a	0	n/a	0	0	0	0.57763671875	0.412841796875	1	upper	zerothre.ttf
2460.154	n/a	START	1230077	n/a	LTP263	ltpFR	13	n/a	n/a	n/a	n/a	n/a	n/a	n/a	n/a	n/a	n/a	n/a	n/a	n/a	n/a	n/a	n/a
2461.276	n/a	PROB	1230638	n/a	LTP263	ltpFR	13	n/a	n/a	n/a	n/a	n/a	n/a	n/a	7	2	4	1	n/a	n/a	n/a	n/a	n/a
2462.89	n/a	PROB	1231445	n/a	LTP263	ltpFR	13	n/a	n/a	n/a	n/a	n/a	n/a	n/a	24	7	8	8	n/a	n/a	n/a	n/a	n/a
2465.758	n/a	PROB	1232879	n/a	LTP263	ltpFR	13	n/a	n/a	n/a	n/a	n/a	n/a	n/a	15	4	7	4	n/a	n/a	n/a	n/a	n/a
2467.81	n/a	PROB	1233905	n/a	LTP263	ltpFR	13	n/a	n/a	n/a	n/a	n/a	n/a	n/a	11	6	1	4	n/a	n/a	n/a	n/a	n/a
2469.014	n/a	PROB	1234507	n/a	LTP263	ltpFR	13	n/a	n/a	n/a	n/a	n/a	n/a	n/a	13	1	7	5	n/a	n/a	n/a	n/a	n/a
2470.108	n/a	PROB	1235054	n/a	LTP263	ltpFR	13	n/a	n/a	n/a	n/a	n/a	n/a	n/a	14	9	1	4	n/a	n/a	n/a	n/a	n/a
2471.292	n/a	PROB	1235646	n/a	LTP263	ltpFR	13	n/a	n/a	n/a	n/a	n/a	n/a	n/a	9	3	3	3	n/a	n/a	n/a	n/a	n/a
2472.262	n/a	PROB	1236131	n/a	LTP263	ltpFR	13	n/a	n/a	n/a	n/a	n/a	n/a	n/a	23	5	9	9	n/a	n/a	n/a	n/a	n/a
2475.104	n/a	STOP	1237552	n/a	LTP263	ltpFR	13	n/a	n/a	n/a	n/a	n/a	n/a	n/a	n/a	n/a	n/a	n/a	n/a	n/a	n/a	n/a	n/a
2477.966	n/a	REC_START	1238983	n/a	LTP263	ltpFR	13	10	n/a	n/a	n/a	n/a	n/a	n/a	n/a	0	0	0	n/a	n/a	n/a	n/a	n/a
2479.738	n/a	REC_WORD	1239869	wordpools/wasnorm_wordpool_less_exclusions.txt	LTP263	ltpFR	13	10	1	SUITCASE	1403	n/a	n/a	0	n/a	0	0	0	n/a	n/a	n/a	n/a	n/a
2482.336	n/a	REC_WORD	1241168	wordpools/wasnorm_wordpool_less_exclusions.txt	LTP263	ltpFR	13	10	0	HANGER	687	n/a	n/a	0	n/a	0	0	0	n/a	n/a	n/a	n/a	n/a
2487.16	n/a	REC_WORD	1243580	wordpools/wasnorm_wordpool_less_exclusions.txt	LTP263	ltpFR	13	10	1	THRONE	1461	n/a	n/a	0	n/a	0	0	0	n/a	n/a	n/a	n/a	n/a
2488.162	n/a	REC_WORD	1244081	wordpools/wasnorm_wordpool_less_exclusions.txt	LTP263	ltpFR	13	10	0	CASTLE	256	n/a	n/a	1	n/a	0	0	0	n/a	n/a	n/a	n/a	n/a
2489.126	n/a	REC_WORD	1244563	wordpools/wasnorm_wordpool_less_exclusions.txt	LTP263	ltpFR	13	10	1	TURKEY	1520	n/a	n/a	0	n/a	0	0	0	n/a	n/a	n/a	n/a	n/a
2489.96	n/a	REC_WORD	1244980	wordpools/wasnorm_wordpool_less_exclusions.txt	LTP263	ltpFR	13	10	0	LONDON	843	n/a	n/a	1	n/a	0	0	0	n/a	n/a	n/a	n/a	n/a
2491.58	n/a	REC_WORD	1245790	wordpools/wasnorm_wordpool_less_exclusions.txt	LTP263	ltpFR	13	10	1	LIEUTENANT	818	n/a	n/a	1	n/a	0	0	0	n/a	n/a	n/a	n/a	n/a
2492.902	n/a	REC_WORD	1246451	wordpools/wasnorm_wordpool_less_exclusions.txt	LTP263	ltpFR	13	10	n/a	COMMANDER	354	n/a	n/a	n/a	n/a	0	0	0	n/a	n/a	n/a	n/a	n/a
2496.292	n/a	REC_WORD	1248146	wordpools/wasnorm_wordpool_less_exclusions.txt	LTP263	ltpFR	13	10	0	KNOB	787	n/a	n/a	0	n/a	0	0	0	n/a	n/a	n/a	n/a	n/a
2507.362	n/a	REC_WORD	1253681	wordpools/wasnorm_wordpool_less_exclusions.txt	LTP263	ltpFR	13	10	1	KNAPSACK	783	n/a	n/a	0	n/a	0	0	0	n/a	n/a	n/a	n/a	n/a
2553.66	n/a	REST_REWET	1276830	n/a	LTP263	ltpFR	13	10	n/a	n/a	n/a	n/a	n/a	n/a	n/a	0	0	0	n/a	n/a	n/a	n/a	n/a
3023.184	n/a	WORD	1511592	wordpools/wasnorm_wordpool_less_exclusions.txt	LTP263	ltpFR	13	11	0	SALAD	1224	n/a	n/a	0	n/a	0	0	0	0.422607421875	0.5869140625	0	lower	amplitud.ttf
3027.254	n/a	WORD	1513627	wordpools/wasnorm_wordpool_less_exclusions.txt	LTP263	ltpFR	13	11	0	APPLE	33	n/a	n/a	0	n/a	0	0	0	0.422607421875	0.5869140625	0	lower	amplitud.ttf
3031.304	n/a	WORD	1515652	wordpools/wasnorm_wordpool_less_exclusions.txt	LTP263	ltpFR	13	11	0	LIMB	822	n/a	n/a	0	n/a	0	0	0	0.422607421875	0.5869140625	0	lower	amplitud.ttf
3035.496	n/a	WORD	1517748	wordpools/wasnorm_wordpool_less_exclusions.txt	LTP263	ltpFR	13	11	0	COWBOY	395	n/a	n/a	1	n/a	0	0	0	0.422607421875	0.5869140625	0	lower	amplitud.ttf
3039.612	n/a	WORD	1519806	wordpools/wasnorm_wordpool_less_exclusions.txt	LTP263	ltpFR	13	11	0	CAT	257	n/a	n/a	0	n/a	0	0	0	0.422607421875	0.5869140625	0	lower	amplitud.ttf
3043.466	n/a	WORD	1521733	wordpools/wasnorm_wordpool_less_exclusions.txt	LTP263	ltpFR	13	11	0	CONE	363	n/a	n/a	0	n/a	0	0	0	0.422607421875	0.5869140625	0	lower	amplitud.ttf
3047.442	n/a	WORD	1523721	wordpools/wasnorm_wordpool_less_exclusions.txt	LTP263	ltpFR	13	11	0	CORPORATION	382	n/a	n/a	1	n/a	0	0	0	0.422607421875	0.5869140625	0	lower	amplitud.ttf
3051.624	n/a	WORD	1525812	wordpools/wasnorm_wordpool_less_exclusions.txt	LTP263	ltpFR	13	11	0	ARCHITECT	36	n/a	n/a	1	n/a	0	0	0	0.422607421875	0.5869140625	0	lower	amplitud.ttf
3055.49	n/a	WORD	1527745	wordpools/wasnorm_wordpool_less_exclusions.txt	LTP263	ltpFR	13	11	0	ARM	38	n/a	n/a	0	n/a	0	0	0	0.422607421875	0.5869140625	0	lower	amplitud.ttf
3059.694	n/a	WORD	1529847	wordpools/wasnorm_wordpool_less_exclusions.txt	LTP263	ltpFR	13	11	0	CHERRY	293	n/a	n/a	0	n/a	0	0	0	0.422607421875	0.5869140625	0	lower	amplitud.ttf
3063.626	n/a	WORD	1531813	wordpools/wasnorm_wordpool_less_exclusions.txt	LTP263	ltpFR	13	11	0	FIELD	562	n/a	n/a	1	n/a	0	0	0	0.422607421875	0.5869140625	0	lower	amplitud.ttf
3067.776	n/a	WORD	1533888	wordpools/wasnorm_wordpool_less_exclusions.txt	LTP263	ltpFR	13	11	0	FRIES	607	n/a	n/a	0	n/a	0	0	0	0.422607421875	0.5869140625	0	lower	amplitud.ttf
3071.79	n/a	WORD	1535895	wordpools/wasnorm_wordpool_less_exclusions.txt	LTP263	ltpFR	13	11	0	CLAW	319	n/a	n/a	0	n/a	0	0	0	0.422607421875	0.5869140625	0	lower	amplitud.ttf
3075.918	n/a	WORD	1537959	wordpools/wasnorm_wordpool_less_exclusions.txt	LTP263	ltpFR	13	11	0	SOFTBALL	1343	n/a	n/a	1	n/a	0	0	0	0.422607421875	0.5869140625	0	lower	amplitud.ttf
3079.922	n/a	WORD	1539961	wordpools/wasnorm_wordpool_less_exclusions.txt	LTP263	ltpFR	13	11	0	BASEBALL	93	n/a	n/a	0	n/a	0	0	0	0.422607421875	0.5869140625	0	lower	amplitud.ttf
3083.798	n/a	WORD	1541899	wordpools/wasnorm_wordpool_less_exclusions.txt	LTP263	ltpFR	13	11	0	POCKET	1093	n/a	n/a	0	n/a	0	0	0	0.422607421875	0.5869140625	0	lower	amplitud.ttf
3089.872	n/a	REC_START	1544936	n/a	LTP263	ltpFR	13	11	n/a	n/a	n/a	n/a	n/a	n/a	n/a	0	0	0	n/a	n/a	n/a	n/a	n/a
3090.824	n/a	REC_WORD	1545412	wordpools/wasnorm_wordpool_less_exclusions.txt	LTP263	ltpFR	13	11	0	SOFTBALL	1343	n/a	n/a	1	n/a	0	0	0	n/a	n/a	n/a	n/a	n/a
3091.944	n/a	REC_WORD	1545972	wordpools/wasnorm_wordpool_less_exclusions.txt	LTP263	ltpFR	13	11	0	BASEBALL	93	n/a	n/a	0	n/a	0	0	0	n/a	n/a	n/a	n/a	n/a
3092.996	n/a	REC_WORD	1546498	wordpools/wasnorm_wordpool_less_exclusions.txt	LTP263	ltpFR	13	11	0	POCKET	1093	n/a	n/a	0	n/a	0	0	0	n/a	n/a	n/a	n/a	n/a
3095.148	n/a	REC_WORD	1547574	wordpools/wasnorm_wordpool_less_exclusions.txt	LTP263	ltpFR	13	11	0	SALAD	1224	n/a	n/a	0	n/a	0	0	0	n/a	n/a	n/a	n/a	n/a
3096.684	n/a	REC_WORD	1548342	wordpools/wasnorm_wordpool_less_exclusions.txt	LTP263	ltpFR	13	11	0	CAT	257	n/a	n/a	0	n/a	0	0	0	n/a	n/a	n/a	n/a	n/a
3099.034	n/a	REC_WORD	1549517	wordpools/wasnorm_wordpool_less_exclusions.txt	LTP263	ltpFR	13	11	0	LIMB	822	n/a	n/a	0	n/a	0	0	0	n/a	n/a	n/a	n/a	n/a
3099.828	n/a	REC_WORD	1549914	wordpools/wasnorm_wordpool_less_exclusions.txt	LTP263	ltpFR	13	11	0	COWBOY	395	n/a	n/a	1	n/a	0	0	0	n/a	n/a	n/a	n/a	n/a
3101.296	n/a	REC_WORD	1550648	wordpools/wasnorm_wordpool_less_exclusions.txt	LTP263	ltpFR	13	11	0	ARM	38	n/a	n/a	0	n/a	0	0	0	n/a	n/a	n/a	n/a	n/a
3102.574	n/a	REC_WORD	1551287	wordpools/wasnorm_wordpool_less_exclusions.txt	LTP263	ltpFR	13	11	0	CHERRY	293	n/a	n/a	0	n/a	0	0	0	n/a	n/a	n/a	n/a	n/a
3103.67	n/a	REC_WORD	1551835	wordpools/wasnorm_wordpool_less_exclusions.txt	LTP263	ltpFR	13	11	0	APPLE	33	n/a	n/a	0	n/a	0	0	0	n/a	n/a	n/a	n/a	n/a
