onset	duration	trial_type	sample	stim_file	subject	experiment	session	trial	item_name	item_num	list	answer	test_x	test_y	test_z
199.25390625	n/a	SESS_START	408072	n/a	LTP334	ltpFR2	8	n/a	n/a	n/a	n/a	n/a	0	0	0
213.515625	n/a	START	437280	n/a	LTP334	ltpFR2	8	n/a	n/a	n/a	-1	n/a	n/a	n/a	n/a
213.54541015625	n/a	PROB	437341	n/a	LTP334	ltpFR2	8	n/a	n/a	n/a	-1	10	2	2	6
215.32861328125	n/a	PROB	440993	n/a	LTP334	ltpFR2	8	n/a	n/a	n/a	-1	9	2	2	5
216.51123046875	n/a	PROB	443415	n/a	LTP334	ltpFR2	8	n/a	n/a	n/a	-1	21	9	8	4
219.0263671875	n/a	PROB	448566	n/a	LTP334	ltpFR2	8	n/a	n/a	n/a	-1	16	9	2	5
221.30908203125	n/a	PROB	453241	n/a	LTP334	ltpFR2	8	n/a	n/a	n/a	-1	15	8	2	5
222.80810546875	n/a	PROB	456311	n/a	LTP334	ltpFR2	8	n/a	n/a	n/a	-1	18	2	9	7
224.4970703125	n/a	STOP	459770	n/a	LTP334	ltpFR2	8	n/a	n/a	n/a	-1	n/a	n/a	n/a	n/a
267.5869140625	n/a	WORD	548018	wordpools/wasnorm_wordpool_576.txt	LTP334	ltpFR2	8	1	MUSTARD	935	n/a	n/a	0	0	0
270.1357421875	n/a	WORD	553238	wordpools/wasnorm_wordpool_576.txt	LTP334	ltpFR2	8	1	SUNRISE	1407	n/a	n/a	0	0	0
272.78369140625	n/a	WORD	558661	wordpools/wasnorm_wordpool_576.txt	LTP334	ltpFR2	8	1	CASHEW	253	n/a	n/a	0	0	0
275.44970703125	n/a	WORD	564121	wordpools/wasnorm_wordpool_576.txt	LTP334	ltpFR2	8	1	GAZELLE	628	n/a	n/a	0	0	0
277.931640625	n/a	WORD	569204	wordpools/wasnorm_wordpool_576.txt	LTP334	ltpFR2	8	1	RACKET	1155	n/a	n/a	0	0	0
280.44677734375	n/a	WORD	574355	wordpools/wasnorm_wordpool_576.txt	LTP334	ltpFR2	8	1	SPHINX	1349	n/a	n/a	0	0	0
283.095703125	n/a	WORD	579780	wordpools/wasnorm_wordpool_576.txt	LTP334	ltpFR2	8	1	LION	827	n/a	n/a	0	0	0
285.861328125	n/a	WORD	585444	wordpools/wasnorm_wordpool_576.txt	LTP334	ltpFR2	8	1	HORSE	719	n/a	n/a	0	0	0
288.443359375	n/a	WORD	590732	wordpools/wasnorm_wordpool_576.txt	LTP334	ltpFR2	8	1	FRIEND	606	n/a	n/a	0	0	0
291.2431640625	n/a	WORD	596466	wordpools/wasnorm_wordpool_576.txt	LTP334	ltpFR2	8	1	COUSIN	392	n/a	n/a	0	0	0
294.0244140625	n/a	WORD	602162	wordpools/wasnorm_wordpool_576.txt	LTP334	ltpFR2	8	1	FOOT	590	n/a	n/a	0	0	0
296.572265625	n/a	WORD	607380	wordpools/wasnorm_wordpool_576.txt	LTP334	ltpFR2	8	1	PATROL	1027	n/a	n/a	0	0	0
299.17236328125	n/a	WORD	612705	wordpools/wasnorm_wordpool_576.txt	LTP334	ltpFR2	8	1	SAUSAGE	1238	n/a	n/a	0	0	0
301.669921875	n/a	WORD	617820	wordpools/wasnorm_wordpool_576.txt	LTP334	ltpFR2	8	1	LABEL	790	n/a	n/a	0	0	0
304.287109375	n/a	WORD	623180	wordpools/wasnorm_wordpool_576.txt	LTP334	ltpFR2	8	1	BATHTUB	100	n/a	n/a	0	0	0
306.81787109375	n/a	WORD	628363	wordpools/wasnorm_wordpool_576.txt	LTP334	ltpFR2	8	1	BLOUSE	139	n/a	n/a	0	0	0
309.28369140625	n/a	WORD	633413	wordpools/wasnorm_wordpool_576.txt	LTP334	ltpFR2	8	1	QUARTER	1148	n/a	n/a	0	0	0
312.048828125	n/a	WORD	639076	wordpools/wasnorm_wordpool_576.txt	LTP334	ltpFR2	8	1	ANTLER	29	n/a	n/a	0	0	0
314.5478515625	n/a	WORD	644194	wordpools/wasnorm_wordpool_576.txt	LTP334	ltpFR2	8	1	DONKEY	484	n/a	n/a	0	0	0
316.9794921875	n/a	WORD	649174	wordpools/wasnorm_wordpool_576.txt	LTP334	ltpFR2	8	1	CANDY	230	n/a	n/a	0	0	0
319.44482421875	n/a	WORD	654223	wordpools/wasnorm_wordpool_576.txt	LTP334	ltpFR2	8	1	TART	1436	n/a	n/a	0	0	0
321.99365234375	n/a	WORD	659443	wordpools/wasnorm_wordpool_576.txt	LTP334	ltpFR2	8	1	ICEBERG	731	n/a	n/a	0	0	0
324.54248046875	n/a	WORD	664663	wordpools/wasnorm_wordpool_576.txt	LTP334	ltpFR2	8	1	KLEENEX	782	n/a	n/a	0	0	0
327.12548828125	n/a	WORD	669953	wordpools/wasnorm_wordpool_576.txt	LTP334	ltpFR2	8	1	HANDBAG	684	n/a	n/a	0	0	0
328.740234375	n/a	START	673260	n/a	LTP334	ltpFR2	8	n/a	n/a	n/a	1	n/a	n/a	n/a	n/a
329.896484375	n/a	DISTRACTOR	675628	n/a	LTP334	ltpFR2	8	1	n/a	n/a	n/a	n/a	0	0	0
329.90625	n/a	PROB	675648	n/a	LTP334	ltpFR2	8	n/a	n/a	n/a	1	12	1	9	2
331.55615234375	n/a	PROB	679027	n/a	LTP334	ltpFR2	8	n/a	n/a	n/a	1	14	7	1	6
332.93798828125	n/a	PROB	681857	n/a	LTP334	ltpFR2	8	n/a	n/a	n/a	1	9	6	2	1
334.1220703125	n/a	PROB	684282	n/a	LTP334	ltpFR2	8	n/a	n/a	n/a	1	24	8	8	8
335.3369140625	n/a	PROB	686770	n/a	LTP334	ltpFR2	8	n/a	n/a	n/a	1	9	2	3	4
337.27099609375	n/a	PROB	690731	n/a	LTP334	ltpFR2	8	n/a	n/a	n/a	1	23	8	7	8
339.23681640625	n/a	PROB	694757	n/a	LTP334	ltpFR2	8	n/a	n/a	n/a	1	20	4	9	7
340.81787109375	n/a	PROB	697995	n/a	LTP334	ltpFR2	8	n/a	n/a	n/a	1	21	9	8	4
342.55078125	n/a	PROB	701544	n/a	LTP334	ltpFR2	8	n/a	n/a	n/a	1	16	5	8	3
344.0498046875	n/a	PROB	704614	n/a	LTP334	ltpFR2	8	n/a	n/a	n/a	1	20	8	8	4
345.416015625	n/a	PROB	707412	n/a	LTP334	ltpFR2	8	n/a	n/a	n/a	1	26	8	9	9
347.61474609375	n/a	PROB	711915	n/a	LTP334	ltpFR2	8	n/a	n/a	n/a	1	16	4	9	3
349.5966796875	n/a	PROB	715974	n/a	LTP334	ltpFR2	8	n/a	n/a	n/a	1	8	4	1	3
350.9296875	n/a	PROB	718704	n/a	LTP334	ltpFR2	8	n/a	n/a	n/a	1	18	1	9	8
352.345703125	n/a	STOP	721604	n/a	LTP334	ltpFR2	8	n/a	n/a	n/a	1	n/a	n/a	n/a	n/a
354.52880859375	n/a	REC_START	726075	n/a	LTP334	ltpFR2	8	1	n/a	n/a	n/a	n/a	0	0	0
355.298828125	n/a	REC_WORD	727652	wordpools/wasnorm_wordpool_576.txt	LTP334	ltpFR2	8	1	MUSTARD	935	n/a	n/a	0	0	0
356.2353515625	n/a	REC_WORD	729570	wordpools/wasnorm_wordpool_576.txt	LTP334	ltpFR2	8	1	CASHEW	253	n/a	n/a	0	0	0
357.41650390625	n/a	REC_WORD	731989	wordpools/wasnorm_wordpool_576.txt	LTP334	ltpFR2	8	1	TART	1436	n/a	n/a	0	0	0
358.150390625	n/a	REC_WORD	733492	wordpools/wasnorm_wordpool_576.txt	LTP334	ltpFR2	8	1	CANDY	230	n/a	n/a	0	0	0
358.79638671875	n/a	REC_WORD	734815	wordpools/wasnorm_wordpool_576.txt	LTP334	ltpFR2	8	1	HANDBAG	684	n/a	n/a	0	0	0
359.685546875	n/a	REC_WORD	736636	wordpools/wasnorm_wordpool_576.txt	LTP334	ltpFR2	8	1	KLEENEX	782	n/a	n/a	0	0	0
361.15625	n/a	REC_WORD	739648	wordpools/wasnorm_wordpool_576.txt	LTP334	ltpFR2	8	1	BLOUSE	139	n/a	n/a	0	0	0
362.529296875	n/a	REC_WORD	742460	wordpools/wasnorm_wordpool_576.txt	LTP334	ltpFR2	8	1	ANTLER	29	n/a	n/a	0	0	0
363.13525390625	n/a	REC_WORD	743701	wordpools/wasnorm_wordpool_576.txt	LTP334	ltpFR2	8	1	GAZELLE	628	n/a	n/a	0	0	0
365.033203125	n/a	REC_WORD	747588	wordpools/wasnorm_wordpool_576.txt	LTP334	ltpFR2	8	1	FRIEND	606	n/a	n/a	0	0	0
365.6455078125	n/a	REC_WORD	748842	wordpools/wasnorm_wordpool_576.txt	LTP334	ltpFR2	8	1	COUSIN	392	n/a	n/a	0	0	0
366.22705078125	n/a	REC_WORD	750033	wordpools/wasnorm_wordpool_576.txt	LTP334	ltpFR2	8	1	SUNRISE	1407	n/a	n/a	0	0	0
367.0361328125	n/a	REC_WORD	751690	wordpools/wasnorm_wordpool_576.txt	LTP334	ltpFR2	8	1	RACKET	1155	n/a	n/a	0	0	0
369.2353515625	n/a	REC_WORD	756194	wordpools/wasnorm_wordpool_576.txt	LTP334	ltpFR2	8	1	HORSE	719	n/a	n/a	0	0	0
369.8583984375	n/a	REC_WORD	757470	wordpools/wasnorm_wordpool_576.txt	LTP334	ltpFR2	8	1	DONKEY	484	n/a	n/a	0	0	0
372.65625	n/a	REC_WORD	763200	wordpools/wasnorm_wordpool_576.txt	LTP334	ltpFR2	8	1	SPHINX	1349	n/a	n/a	0	0	0
373.44384765625	n/a	REC_WORD	764813	wordpools/wasnorm_wordpool_576.txt	LTP334	ltpFR2	8	1	LION	827	n/a	n/a	0	0	0
381.11279296875	n/a	REC_WORD	780519	wordpools/wasnorm_wordpool_576.txt	LTP334	ltpFR2	8	1	QUARTER	1148	n/a	n/a	0	0	0
388.009765625	n/a	REC_WORD	794644	wordpools/wasnorm_wordpool_576.txt	LTP334	ltpFR2	8	1	ICEBERG	731	n/a	n/a	0	0	0
444.96826171875	n/a	WORD	911295	wordpools/wasnorm_wordpool_576.txt	LTP334	ltpFR2	8	2	BROTHER	179	n/a	n/a	0	0	0
447.4501953125	n/a	WORD	916378	wordpools/wasnorm_wordpool_576.txt	LTP334	ltpFR2	8	2	CLOUD	328	n/a	n/a	0	0	0
450.1171875	n/a	WORD	921840	wordpools/wasnorm_wordpool_576.txt	LTP334	ltpFR2	8	2	SURVEY	1414	n/a	n/a	0	0	0
452.64794921875	n/a	WORD	927023	wordpools/wasnorm_wordpool_576.txt	LTP334	ltpFR2	8	2	EYELASH	546	n/a	n/a	0	0	0
455.44677734375	n/a	WORD	932755	wordpools/wasnorm_wordpool_576.txt	LTP334	ltpFR2	8	2	TWEEZERS	1526	n/a	n/a	0	0	0
458.16259765625	n/a	WORD	938317	wordpools/wasnorm_wordpool_576.txt	LTP334	ltpFR2	8	2	SALAD	1224	n/a	n/a	0	0	0
460.94384765625	n/a	WORD	944013	wordpools/wasnorm_wordpool_576.txt	LTP334	ltpFR2	8	2	CHEST	295	n/a	n/a	0	0	0
463.642578125	n/a	WORD	949540	wordpools/wasnorm_wordpool_576.txt	LTP334	ltpFR2	8	2	STAKE	1368	n/a	n/a	0	0	0
466.45751953125	n/a	WORD	955305	wordpools/wasnorm_wordpool_576.txt	LTP334	ltpFR2	8	2	SUSPECT	1415	n/a	n/a	0	0	0
469.08935546875	n/a	WORD	960695	wordpools/wasnorm_wordpool_576.txt	LTP334	ltpFR2	8	2	CRIB	407	n/a	n/a	0	0	0
471.70556640625	n/a	WORD	966053	wordpools/wasnorm_wordpool_576.txt	LTP334	ltpFR2	8	2	MUFFIN	929	n/a	n/a	0	0	0
474.23828125	n/a	WORD	971240	wordpools/wasnorm_wordpool_576.txt	LTP334	ltpFR2	8	2	PASSAGE	1019	n/a	n/a	0	0	0
476.986328125	n/a	WORD	976868	wordpools/wasnorm_wordpool_576.txt	LTP334	ltpFR2	8	2	BANKER	84	n/a	n/a	0	0	0
479.78515625	n/a	WORD	982600	wordpools/wasnorm_wordpool_576.txt	LTP334	ltpFR2	8	2	INFANT	737	n/a	n/a	0	0	0
482.533203125	n/a	WORD	988228	wordpools/wasnorm_wordpool_576.txt	LTP334	ltpFR2	8	2	PRIMATE	1123	n/a	n/a	0	0	0
485.33203125	n/a	WORD	993960	wordpools/wasnorm_wordpool_576.txt	LTP334	ltpFR2	8	2	JUNGLE	764	n/a	n/a	0	0	0
487.998046875	n/a	WORD	999420	wordpools/wasnorm_wordpool_576.txt	LTP334	ltpFR2	8	2	GANGSTER	620	n/a	n/a	0	0	0
490.5126953125	n/a	WORD	1004570	wordpools/wasnorm_wordpool_576.txt	LTP334	ltpFR2	8	2	PISTOL	1075	n/a	n/a	0	0	0
492.99462890625	n/a	WORD	1009653	wordpools/wasnorm_wordpool_576.txt	LTP334	ltpFR2	8	2	ASIA	46	n/a	n/a	0	0	0
495.5439453125	n/a	WORD	1014874	wordpools/wasnorm_wordpool_576.txt	LTP334	ltpFR2	8	2	GAVEL	627	n/a	n/a	0	0	0
498.04248046875	n/a	WORD	1019991	wordpools/wasnorm_wordpool_576.txt	LTP334	ltpFR2	8	2	GARLIC	624	n/a	n/a	0	0	0
500.82470703125	n/a	WORD	1025689	wordpools/wasnorm_wordpool_576.txt	LTP334	ltpFR2	8	2	REBEL	1172	n/a	n/a	0	0	0
503.42333984375	n/a	WORD	1031011	wordpools/wasnorm_wordpool_576.txt	LTP334	ltpFR2	8	2	LIVER	833	n/a	n/a	0	0	0
506.05517578125	n/a	WORD	1036401	wordpools/wasnorm_wordpool_576.txt	LTP334	ltpFR2	8	2	LEADER	807	n/a	n/a	0	0	0
507.67138671875	n/a	START	1039711	n/a	LTP334	ltpFR2	8	n/a	n/a	n/a	2	n/a	n/a	n/a	n/a
508.66748046875	n/a	DISTRACTOR	1041751	n/a	LTP334	ltpFR2	8	2	n/a	n/a	n/a	n/a	0	0	0
508.67138671875	n/a	PROB	1041759	n/a	LTP334	ltpFR2	8	n/a	n/a	n/a	2	17	7	9	1
510.853515625	n/a	PROB	1046228	n/a	LTP334	ltpFR2	8	n/a	n/a	n/a	2	12	3	2	7
512.76904296875	n/a	PROB	1050151	n/a	LTP334	ltpFR2	8	n/a	n/a	n/a	2	14	3	4	7
514.451171875	n/a	PROB	1053596	n/a	LTP334	ltpFR2	8	n/a	n/a	n/a	2	16	2	6	8
516.0	n/a	PROB	1056768	n/a	LTP334	ltpFR2	8	n/a	n/a	n/a	2	16	1	9	6
517.2841796875	n/a	PROB	1059398	n/a	LTP334	ltpFR2	8	n/a	n/a	n/a	2	8	4	2	2
518.51611328125	n/a	PROB	1061921	n/a	LTP334	ltpFR2	8	n/a	n/a	n/a	2	14	4	9	1
519.69921875	n/a	PROB	1064344	n/a	LTP334	ltpFR2	8	n/a	n/a	n/a	2	6	2	1	3
521.89794921875	n/a	PROB	1068847	n/a	LTP334	ltpFR2	8	n/a	n/a	n/a	2	21	8	8	5
523.2978515625	n/a	PROB	1071714	n/a	LTP334	ltpFR2	8	n/a	n/a	n/a	2	5	3	1	1
524.3798828125	n/a	PROB	1073930	n/a	LTP334	ltpFR2	8	n/a	n/a	n/a	2	14	4	2	8
525.87890625	n/a	PROB	1077000	n/a	LTP334	ltpFR2	8	n/a	n/a	n/a	2	6	2	2	2
527.01171875	n/a	PROB	1079320	n/a	LTP334	ltpFR2	8	n/a	n/a	n/a	2	20	6	9	5
529.49365234375	n/a	PROB	1084403	n/a	LTP334	ltpFR2	8	n/a	n/a	n/a	2	7	4	2	1
530.9306640625	n/a	STOP	1087346	n/a	LTP334	ltpFR2	8	n/a	n/a	n/a	2	n/a	n/a	n/a	n/a
533.45947265625	n/a	REC_START	1092525	n/a	LTP334	ltpFR2	8	2	n/a	n/a	n/a	n/a	0	0	0
534.54052734375	n/a	REC_WORD	1094739	wordpools/wasnorm_wordpool_576.txt	LTP334	ltpFR2	8	2	ASIA	46	n/a	n/a	0	0	0
535.29443359375	n/a	REC_WORD	1096283	wordpools/wasnorm_wordpool_576.txt	LTP334	ltpFR2	8	2	GAVEL	627	n/a	n/a	0	0	0
536.08837890625	n/a	REC_WORD	1097909	wordpools/wasnorm_wordpool_576.txt	LTP334	ltpFR2	8	2	GARLIC	624	n/a	n/a	0	0	0
541.48046875	n/a	REC_WORD	1108952	wordpools/wasnorm_wordpool_576.txt	LTP334	ltpFR2	8	2	PASSAGE	1019	n/a	n/a	0	0	0
542.41162109375	n/a	REC_WORD	1110859	wordpools/wasnorm_wordpool_576.txt	LTP334	ltpFR2	8	2	BANKER	84	n/a	n/a	0	0	0
543.37548828125	n/a	REC_WORD	1112833	wordpools/wasnorm_wordpool_576.txt	LTP334	ltpFR2	8	2	MUFFIN	929	n/a	n/a	0	0	0
544.2841796875	n/a	REC_WORD	1114694	wordpools/wasnorm_wordpool_576.txt	LTP334	ltpFR2	8	2	REBEL	1172	n/a	n/a	0	0	0
545.017578125	n/a	REC_WORD	1116196	wordpools/wasnorm_wordpool_576.txt	LTP334	ltpFR2	8	2	GANGSTER	620	n/a	n/a	0	0	0
545.87109375	n/a	REC_WORD	1117944	wordpools/wasnorm_wordpool_576.txt	LTP334	ltpFR2	8	2	PISTOL	1075	n/a	n/a	0	0	0
546.75341796875	n/a	REC_WORD	1119751	wordpools/wasnorm_wordpool_576.txt	LTP334	ltpFR2	8	2	JUNGLE	764	n/a	n/a	0	0	0
547.45947265625	n/a	REC_WORD	1121197	wordpools/wasnorm_wordpool_576.txt	LTP334	ltpFR2	8	2	PRIMATE	1123	n/a	n/a	0	0	0
551.0712890625	n/a	REC_WORD	1128594	wordpools/wasnorm_wordpool_576.txt	LTP334	ltpFR2	8	2	INFANT	737	n/a	n/a	0	0	0
551.80224609375	n/a	REC_WORD	1130091	wordpools/wasnorm_wordpool_576.txt	LTP334	ltpFR2	8	2	CRIB	407	n/a	n/a	0	0	0
554.51123046875	n/a	REC_WORD	1135639	wordpools/wasnorm_wordpool_576.txt	LTP334	ltpFR2	8	2	BROTHER	179	n/a	n/a	0	0	0
555.13818359375	n/a	REC_WORD	1136923	wordpools/wasnorm_wordpool_576.txt	LTP334	ltpFR2	8	2	CLOUD	328	n/a	n/a	0	0	0
555.94921875	n/a	REC_WORD	1138584	wordpools/wasnorm_wordpool_576.txt	LTP334	ltpFR2	8	2	TWEEZERS	1526	n/a	n/a	0	0	0
556.830078125	n/a	REC_WORD	1140388	wordpools/wasnorm_wordpool_576.txt	LTP334	ltpFR2	8	2	EYELASH	546	n/a	n/a	0	0	0
589.912109375	n/a	REC_WORD	1208140	wordpools/wasnorm_wordpool_576.txt	LTP334	ltpFR2	8	2	CLOUD	328	n/a	n/a	0	0	0
590.56298828125	n/a	REC_WORD	1209473	wordpools/wasnorm_wordpool_576.txt	LTP334	ltpFR2	8	2	BROTHER	179	n/a	n/a	0	0	0
623.89892578125	n/a	DISTRACTOR	1277745	n/a	LTP334	ltpFR2	8	3	n/a	n/a	n/a	n/a	0	0	0
623.89892578125	n/a	START	1277745	n/a	LTP334	ltpFR2	8	n/a	n/a	n/a	3	n/a	n/a	n/a	n/a
623.9150390625	n/a	PROB	1277778	n/a	LTP334	ltpFR2	8	n/a	n/a	n/a	3	17	9	5	3
625.68115234375	n/a	PROB	1281395	n/a	LTP334	ltpFR2	8	n/a	n/a	n/a	3	14	5	8	1
627.34716796875	n/a	PROB	1284807	n/a	LTP334	ltpFR2	8	n/a	n/a	n/a	3	16	6	2	8
629.02978515625	n/a	PROB	1288253	n/a	LTP334	ltpFR2	8	n/a	n/a	n/a	3	14	6	3	5
630.794921875	n/a	PROB	1291868	n/a	LTP334	ltpFR2	8	n/a	n/a	n/a	3	8	2	2	4
631.89501953125	n/a	PROB	1294121	n/a	LTP334	ltpFR2	8	n/a	n/a	n/a	3	10	1	1	8
632.8779296875	n/a	PROB	1296134	n/a	LTP334	ltpFR2	8	n/a	n/a	n/a	3	5	1	3	1
633.876953125	n/a	PROB	1298180	n/a	LTP334	ltpFR2	8	n/a	n/a	n/a	3	18	3	9	6
635.81005859375	n/a	PROB	1302139	n/a	LTP334	ltpFR2	8	n/a	n/a	n/a	3	13	4	3	6
637.42578125	n/a	PROB	1305448	n/a	LTP334	ltpFR2	8	n/a	n/a	n/a	3	12	3	8	1
638.65869140625	n/a	PROB	1307973	n/a	LTP334	ltpFR2	8	n/a	n/a	n/a	3	22	8	7	7
641.890625	n/a	PROB	1314592	n/a	LTP334	ltpFR2	8	n/a	n/a	n/a	3	17	1	7	9
643.5224609375	n/a	PROB	1317934	n/a	LTP334	ltpFR2	8	n/a	n/a	n/a	3	18	3	8	7
645.15673828125	n/a	PROB	1321281	n/a	LTP334	ltpFR2	8	n/a	n/a	n/a	3	17	8	6	3
646.73974609375	n/a	STOP	1324523	n/a	LTP334	ltpFR2	8	n/a	n/a	n/a	3	n/a	n/a	n/a	n/a
648.8203125	n/a	WORD	1328784	wordpools/wasnorm_wordpool_576.txt	LTP334	ltpFR2	8	3	CANAL	226	n/a	n/a	0	0	0
651.46826171875	n/a	WORD	1334207	wordpools/wasnorm_wordpool_576.txt	LTP334	ltpFR2	8	3	GRILL	661	n/a	n/a	0	0	0
653.951171875	n/a	WORD	1339292	wordpools/wasnorm_wordpool_576.txt	LTP334	ltpFR2	8	3	COCOON	339	n/a	n/a	0	0	0
656.7333984375	n/a	WORD	1344990	wordpools/wasnorm_wordpool_576.txt	LTP334	ltpFR2	8	3	STOMACH	1384	n/a	n/a	0	0	0
659.48095703125	n/a	WORD	1350617	wordpools/wasnorm_wordpool_576.txt	LTP334	ltpFR2	8	3	HUMAN	726	n/a	n/a	0	0	0
662.130859375	n/a	WORD	1356044	wordpools/wasnorm_wordpool_576.txt	LTP334	ltpFR2	8	3	SPIDER	1351	n/a	n/a	0	0	0
664.5791015625	n/a	WORD	1361058	wordpools/wasnorm_wordpool_576.txt	LTP334	ltpFR2	8	3	LAKE	796	n/a	n/a	0	0	0
667.328125	n/a	WORD	1366688	wordpools/wasnorm_wordpool_576.txt	LTP334	ltpFR2	8	3	GALLON	618	n/a	n/a	0	0	0
670.07666015625	n/a	WORD	1372317	wordpools/wasnorm_wordpool_576.txt	LTP334	ltpFR2	8	3	DRAGON	492	n/a	n/a	0	0	0
672.708984375	n/a	WORD	1377708	wordpools/wasnorm_wordpool_576.txt	LTP334	ltpFR2	8	3	MATCH	878	n/a	n/a	0	0	0
675.52392578125	n/a	WORD	1383473	wordpools/wasnorm_wordpool_576.txt	LTP334	ltpFR2	8	3	ULCER	1533	n/a	n/a	0	0	0
678.0556640625	n/a	WORD	1388658	wordpools/wasnorm_wordpool_576.txt	LTP334	ltpFR2	8	3	BELLY	119	n/a	n/a	0	0	0
680.6044921875	n/a	WORD	1393878	wordpools/wasnorm_wordpool_576.txt	LTP334	ltpFR2	8	3	PERCH	1048	n/a	n/a	0	0	0
683.08642578125	n/a	WORD	1398961	wordpools/wasnorm_wordpool_576.txt	LTP334	ltpFR2	8	3	PROTON	1132	n/a	n/a	0	0	0
685.80224609375	n/a	WORD	1404523	wordpools/wasnorm_wordpool_576.txt	LTP334	ltpFR2	8	3	MARROW	872	n/a	n/a	0	0	0
688.4013671875	n/a	WORD	1409846	wordpools/wasnorm_wordpool_576.txt	LTP334	ltpFR2	8	3	COUNTY	389	n/a	n/a	0	0	0
691.08349609375	n/a	WORD	1415339	wordpools/wasnorm_wordpool_576.txt	LTP334	ltpFR2	8	3	BACKBONE	66	n/a	n/a	0	0	0
693.6982421875	n/a	WORD	1420694	wordpools/wasnorm_wordpool_576.txt	LTP334	ltpFR2	8	3	EMPIRE	530	n/a	n/a	0	0	0
696.4140625	n/a	WORD	1426256	wordpools/wasnorm_wordpool_576.txt	LTP334	ltpFR2	8	3	GRAVEL	659	n/a	n/a	0	0	0
699.22998046875	n/a	WORD	1432023	wordpools/wasnorm_wordpool_576.txt	LTP334	ltpFR2	8	3	DIVER	476	n/a	n/a	0	0	0
701.7451171875	n/a	WORD	1437174	wordpools/wasnorm_wordpool_576.txt	LTP334	ltpFR2	8	3	LIGHTNING	820	n/a	n/a	0	0	0
704.294921875	n/a	WORD	1442396	wordpools/wasnorm_wordpool_576.txt	LTP334	ltpFR2	8	3	SCALPEL	1243	n/a	n/a	0	0	0
706.8759765625	n/a	WORD	1447682	wordpools/wasnorm_wordpool_576.txt	LTP334	ltpFR2	8	3	NURSE	963	n/a	n/a	0	0	0
709.6240234375	n/a	WORD	1453310	wordpools/wasnorm_wordpool_576.txt	LTP334	ltpFR2	8	3	CORAL	378	n/a	n/a	0	0	0
711.24169921875	n/a	START	1456623	n/a	LTP334	ltpFR2	8	n/a	n/a	n/a	4	n/a	n/a	n/a	n/a
712.05078125	n/a	DISTRACTOR	1458280	n/a	LTP334	ltpFR2	8	3	n/a	n/a	n/a	n/a	0	0	0
712.056640625	n/a	PROB	1458292	n/a	LTP334	ltpFR2	8	n/a	n/a	n/a	4	16	7	2	7
713.48876953125	n/a	PROB	1461225	n/a	LTP334	ltpFR2	8	n/a	n/a	n/a	4	9	3	4	2
715.10546875	n/a	PROB	1464536	n/a	LTP334	ltpFR2	8	n/a	n/a	n/a	4	25	7	9	9
716.65478515625	n/a	PROB	1467709	n/a	LTP334	ltpFR2	8	n/a	n/a	n/a	4	17	9	5	3
718.5693359375	n/a	PROB	1471630	n/a	LTP334	ltpFR2	8	n/a	n/a	n/a	4	11	9	1	1
719.63671875	n/a	PROB	1473816	n/a	LTP334	ltpFR2	8	n/a	n/a	n/a	4	13	2	7	4
721.28662109375	n/a	PROB	1477195	n/a	LTP334	ltpFR2	8	n/a	n/a	n/a	4	19	5	7	7
723.16845703125	n/a	PROB	1481049	n/a	LTP334	ltpFR2	8	n/a	n/a	n/a	4	16	1	7	8
724.58349609375	n/a	PROB	1483947	n/a	LTP334	ltpFR2	8	n/a	n/a	n/a	4	15	8	1	6
726.21728515625	n/a	PROB	1487293	n/a	LTP334	ltpFR2	8	n/a	n/a	n/a	4	9	1	2	6
727.615234375	n/a	PROB	1490156	n/a	LTP334	ltpFR2	8	n/a	n/a	n/a	4	15	4	8	3
729.26611328125	n/a	PROB	1493537	n/a	LTP334	ltpFR2	8	n/a	n/a	n/a	4	14	2	8	4
730.64697265625	n/a	PROB	1496365	n/a	LTP334	ltpFR2	8	n/a	n/a	n/a	4	17	8	5	4
732.54638671875	n/a	PROB	1500255	n/a	LTP334	ltpFR2	8	n/a	n/a	n/a	4	11	3	7	1
733.7470703125	n/a	STOP	1502714	n/a	LTP334	ltpFR2	8	n/a	n/a	n/a	4	n/a	n/a	n/a	n/a
737.09619140625	n/a	REC_START	1509573	n/a	LTP334	ltpFR2	8	3	n/a	n/a	n/a	n/a	0	0	0
737.837890625	n/a	REC_WORD	1511092	wordpools/wasnorm_wordpool_576.txt	LTP334	ltpFR2	8	3	CANAL	226	n/a	n/a	0	0	0
738.3818359375	n/a	REC_WORD	1512206	wordpools/wasnorm_wordpool_576.txt	LTP334	ltpFR2	8	3	SPIDER	1351	n/a	n/a	0	0	0
739.2197265625	n/a	REC_WORD	1513922	wordpools/wasnorm_wordpool_576.txt	LTP334	ltpFR2	8	3	COCOON	339	n/a	n/a	0	0	0
740.81201171875	n/a	REC_WORD	1517183	wordpools/wasnorm_wordpool_576.txt	LTP334	ltpFR2	8	3	EMPIRE	530	n/a	n/a	0	0	0
741.5439453125	n/a	REC_WORD	1518682	wordpools/wasnorm_wordpool_576.txt	LTP334	ltpFR2	8	3	GRAVEL	659	n/a	n/a	0	0	0
745.32958984375	n/a	REC_WORD	1526435	wordpools/wasnorm_wordpool_576.txt	LTP334	ltpFR2	8	3	SCALPEL	1243	n/a	n/a	0	0	0
746.31689453125	n/a	REC_WORD	1528457	wordpools/wasnorm_wordpool_576.txt	LTP334	ltpFR2	8	3	NURSE	963	n/a	n/a	0	0	0
748.52392578125	n/a	REC_WORD	1532977	wordpools/wasnorm_wordpool_576.txt	LTP334	ltpFR2	8	3	BACKBONE	66	n/a	n/a	0	0	0
750.31689453125	n/a	REC_WORD	1536649	wordpools/wasnorm_wordpool_576.txt	LTP334	ltpFR2	8	3	ULCER	1533	n/a	n/a	0	0	0
753.62060546875	n/a	REC_WORD	1543415	wordpools/wasnorm_wordpool_576.txt	LTP334	ltpFR2	8	3	CORAL	378	n/a	n/a	0	0	0
755.75244140625	n/a	REC_WORD	1547781	wordpools/wasnorm_wordpool_576.txt	LTP334	ltpFR2	8	3	BELLY	119	n/a	n/a	0	0	0
756.15673828125	n/a	REC_WORD	1548609	wordpools/wasnorm_wordpool_576.txt	LTP334	ltpFR2	8	3	STOMACH	1384	n/a	n/a	0	0	0
759.00537109375	n/a	REC_WORD	1554443	wordpools/wasnorm_wordpool_576.txt	LTP334	ltpFR2	8	3	GRILL	661	n/a	n/a	0	0	0
759.74755859375	n/a	REC_WORD	1555963	wordpools/wasnorm_wordpool_576.txt	LTP334	ltpFR2	8	3	CANAL	226	n/a	n/a	0	0	0
761.810546875	n/a	REC_WORD_VV	1560188	wordpools/wasnorm_wordpool_576.txt	LTP334	ltpFR2	8	3	<>	-1	n/a	n/a	0	0	0
797.03125	n/a	REC_WORD	1632320	wordpools/wasnorm_wordpool_576.txt	LTP334	ltpFR2	8	3	COUNTY	389	n/a	n/a	0	0	0
808.9560546875	n/a	REC_WORD	1656742	wordpools/wasnorm_wordpool_576.txt	LTP334	ltpFR2	8	3	DRAGON	492	n/a	n/a	0	0	0
810.2548828125	n/a	REC_WORD	1659402	wordpools/wasnorm_wordpool_576.txt	LTP334	ltpFR2	8	3	GALLON	618	n/a	n/a	0	0	0
827.53466796875	n/a	WORD	1694791	wordpools/wasnorm_wordpool_576.txt	LTP334	ltpFR2	8	4	FRIAR	605	n/a	n/a	0	0	0
830.28369140625	n/a	WORD	1700421	wordpools/wasnorm_wordpool_576.txt	LTP334	ltpFR2	8	4	WHISTLE	1606	n/a	n/a	0	0	0
832.84814453125	n/a	WORD	1705673	wordpools/wasnorm_wordpool_576.txt	LTP334	ltpFR2	8	4	SKETCH	1315	n/a	n/a	0	0	0
835.5634765625	n/a	WORD	1711234	wordpools/wasnorm_wordpool_576.txt	LTP334	ltpFR2	8	4	MAPLE	866	n/a	n/a	0	0	0
838.34521484375	n/a	WORD	1716931	wordpools/wasnorm_wordpool_576.txt	LTP334	ltpFR2	8	4	TUBA	1515	n/a	n/a	0	0	0
840.9443359375	n/a	WORD	1722254	wordpools/wasnorm_wordpool_576.txt	LTP334	ltpFR2	8	4	BOARD	143	n/a	n/a	0	0	0
843.4599609375	n/a	WORD	1727406	wordpools/wasnorm_wordpool_576.txt	LTP334	ltpFR2	8	4	TEMPLE	1448	n/a	n/a	0	0	0
846.19287109375	n/a	WORD	1733003	wordpools/wasnorm_wordpool_576.txt	LTP334	ltpFR2	8	4	CROSS	413	n/a	n/a	0	0	0
848.791015625	n/a	WORD	1738324	wordpools/wasnorm_wordpool_576.txt	LTP334	ltpFR2	8	4	JELLO	754	n/a	n/a	0	0	0
851.48974609375	n/a	WORD	1743851	wordpools/wasnorm_wordpool_576.txt	LTP334	ltpFR2	8	4	STOVE	1388	n/a	n/a	0	0	0
854.0546875	n/a	WORD	1749104	wordpools/wasnorm_wordpool_576.txt	LTP334	ltpFR2	8	4	APRON	35	n/a	n/a	0	0	0
856.8037109375	n/a	WORD	1754734	wordpools/wasnorm_wordpool_576.txt	LTP334	ltpFR2	8	4	MEAT	883	n/a	n/a	0	0	0
859.3525390625	n/a	WORD	1759954	wordpools/wasnorm_wordpool_576.txt	LTP334	ltpFR2	8	4	RABBIT	1152	n/a	n/a	0	0	0
861.91748046875	n/a	WORD	1765207	wordpools/wasnorm_wordpool_576.txt	LTP334	ltpFR2	8	4	TORTOISE	1486	n/a	n/a	0	0	0
864.63330078125	n/a	WORD	1770769	wordpools/wasnorm_wordpool_576.txt	LTP334	ltpFR2	8	4	SEAL	1262	n/a	n/a	0	0	0
867.3486328125	n/a	WORD	1776330	wordpools/wasnorm_wordpool_576.txt	LTP334	ltpFR2	8	4	PATIENT	1024	n/a	n/a	0	0	0
869.98046875	n/a	WORD	1781720	wordpools/wasnorm_wordpool_576.txt	LTP334	ltpFR2	8	4	CHAPEL	280	n/a	n/a	0	0	0
872.779296875	n/a	WORD	1787452	wordpools/wasnorm_wordpool_576.txt	LTP334	ltpFR2	8	4	VICTIM	1562	n/a	n/a	0	0	0
875.46142578125	n/a	WORD	1792945	wordpools/wasnorm_wordpool_576.txt	LTP334	ltpFR2	8	4	STONE	1385	n/a	n/a	0	0	0
878.244140625	n/a	WORD	1798644	wordpools/wasnorm_wordpool_576.txt	LTP334	ltpFR2	8	4	BARREL	91	n/a	n/a	0	0	0
880.8251953125	n/a	WORD	1803930	wordpools/wasnorm_wordpool_576.txt	LTP334	ltpFR2	8	4	SHELF	1280	n/a	n/a	0	0	0
883.30712890625	n/a	WORD	1809013	wordpools/wasnorm_wordpool_576.txt	LTP334	ltpFR2	8	4	TURTLE	1522	n/a	n/a	0	0	0
886.08984375	n/a	WORD	1814712	wordpools/wasnorm_wordpool_576.txt	LTP334	ltpFR2	8	4	CLOCK	325	n/a	n/a	0	0	0
888.8720703125	n/a	WORD	1820410	wordpools/wasnorm_wordpool_576.txt	LTP334	ltpFR2	8	4	KETCHUP	771	n/a	n/a	0	0	0
890.48779296875	n/a	START	1823719	n/a	LTP334	ltpFR2	8	n/a	n/a	n/a	5	n/a	n/a	n/a	n/a
891.3876953125	n/a	DISTRACTOR	1825562	n/a	LTP334	ltpFR2	8	4	n/a	n/a	n/a	n/a	0	0	0
891.40380859375	n/a	PROB	1825595	n/a	LTP334	ltpFR2	8	n/a	n/a	n/a	5	12	6	5	1
892.81982421875	n/a	PROB	1828495	n/a	LTP334	ltpFR2	8	n/a	n/a	n/a	5	17	8	2	7
894.28662109375	n/a	PROB	1831499	n/a	LTP334	ltpFR2	8	n/a	n/a	n/a	5	11	6	4	1
895.25244140625	n/a	PROB	1833477	n/a	LTP334	ltpFR2	8	n/a	n/a	n/a	5	19	5	5	9
896.41748046875	n/a	PROB	1835863	n/a	LTP334	ltpFR2	8	n/a	n/a	n/a	5	10	8	1	1
897.33349609375	n/a	PROB	1837739	n/a	LTP334	ltpFR2	8	n/a	n/a	n/a	5	5	1	2	2
898.466796875	n/a	PROB	1840060	n/a	LTP334	ltpFR2	8	n/a	n/a	n/a	5	16	5	9	2
901.16650390625	n/a	PROB	1845589	n/a	LTP334	ltpFR2	8	n/a	n/a	n/a	5	16	6	2	8
902.74853515625	n/a	PROB	1848829	n/a	LTP334	ltpFR2	8	n/a	n/a	n/a	5	21	7	8	6
904.88037109375	n/a	PROB	1853195	n/a	LTP334	ltpFR2	8	n/a	n/a	n/a	5	20	8	9	3
906.29638671875	n/a	PROB	1856095	n/a	LTP334	ltpFR2	8	n/a	n/a	n/a	5	17	9	6	2
908.24609375	n/a	PROB	1860088	n/a	LTP334	ltpFR2	8	n/a	n/a	n/a	5	14	9	2	3
910.078125	n/a	PROB	1863840	n/a	LTP334	ltpFR2	8	n/a	n/a	n/a	5	22	8	8	6
911.7099609375	n/a	PROB	1867182	n/a	LTP334	ltpFR2	8	n/a	n/a	n/a	5	16	4	3	9
913.26904296875	n/a	STOP	1870375	n/a	LTP334	ltpFR2	8	n/a	n/a	n/a	5	n/a	n/a	n/a	n/a
916.375	n/a	REC_START	1876736	n/a	LTP334	ltpFR2	8	4	n/a	n/a	n/a	n/a	0	0	0
918.52294921875	n/a	REC_WORD	1881135	wordpools/wasnorm_wordpool_576.txt	LTP334	ltpFR2	8	4	CLOCK	325	n/a	n/a	0	0	0
919.97314453125	n/a	REC_WORD	1884105	wordpools/wasnorm_wordpool_576.txt	LTP334	ltpFR2	8	4	MAPLE	866	n/a	n/a	0	0	0
920.7841796875	n/a	REC_WORD	1885766	wordpools/wasnorm_wordpool_576.txt	LTP334	ltpFR2	8	4	BOARD	143	n/a	n/a	0	0	0
921.39404296875	n/a	REC_WORD	1887015	wordpools/wasnorm_wordpool_576.txt	LTP334	ltpFR2	8	4	STONE	1385	n/a	n/a	0	0	0
922.8779296875	n/a	REC_WORD	1890054	wordpools/wasnorm_wordpool_576.txt	LTP334	ltpFR2	8	4	BARREL	91	n/a	n/a	0	0	0
923.39404296875	n/a	REC_WORD	1891111	wordpools/wasnorm_wordpool_576.txt	LTP334	ltpFR2	8	4	SHELF	1280	n/a	n/a	0	0	0
924.90771484375	n/a	REC_WORD	1894211	wordpools/wasnorm_wordpool_576.txt	LTP334	ltpFR2	8	4	TEMPLE	1448	n/a	n/a	0	0	0
925.587890625	n/a	REC_WORD	1895604	wordpools/wasnorm_wordpool_576.txt	LTP334	ltpFR2	8	4	CHAPEL	280	n/a	n/a	0	0	0
926.462890625	n/a	REC_WORD	1897396	wordpools/wasnorm_wordpool_576.txt	LTP334	ltpFR2	8	4	FRIAR	605	n/a	n/a	0	0	0
927.478515625	n/a	REC_WORD	1899476	wordpools/wasnorm_wordpool_576.txt	LTP334	ltpFR2	8	4	TUBA	1515	n/a	n/a	0	0	0
928.15185546875	n/a	REC_WORD	1900855	wordpools/wasnorm_wordpool_576.txt	LTP334	ltpFR2	8	4	WHISTLE	1606	n/a	n/a	0	0	0
930.00390625	n/a	REC_WORD	1904648	wordpools/wasnorm_wordpool_576.txt	LTP334	ltpFR2	8	4	TORTOISE	1486	n/a	n/a	0	0	0
930.69873046875	n/a	REC_WORD	1906071	wordpools/wasnorm_wordpool_576.txt	LTP334	ltpFR2	8	4	TURTLE	1522	n/a	n/a	0	0	0
932.83349609375	n/a	REC_WORD	1910443	wordpools/wasnorm_wordpool_576.txt	LTP334	ltpFR2	8	4	RABBIT	1152	n/a	n/a	0	0	0
933.517578125	n/a	REC_WORD	1911844	wordpools/wasnorm_wordpool_576.txt	LTP334	ltpFR2	8	4	MEAT	883	n/a	n/a	0	0	0
934.16845703125	n/a	REC_WORD	1913177	wordpools/wasnorm_wordpool_576.txt	LTP334	ltpFR2	8	4	KETCHUP	771	n/a	n/a	0	0	0
935.25244140625	n/a	REC_WORD	1915397	wordpools/wasnorm_wordpool_576.txt	LTP334	ltpFR2	8	4	STOVE	1388	n/a	n/a	0	0	0
936.21728515625	n/a	REC_WORD	1917373	wordpools/wasnorm_wordpool_576.txt	LTP334	ltpFR2	8	4	APRON	35	n/a	n/a	0	0	0
950.89306640625	n/a	REC_WORD	1947429	wordpools/wasnorm_wordpool_576.txt	LTP334	ltpFR2	8	4	CROSS	413	n/a	n/a	0	0	0
959.21484375	n/a	REC_WORD	1964472	wordpools/wasnorm_wordpool_576.txt	LTP334	ltpFR2	8	4	JELLO	754	n/a	n/a	0	0	0
1006.814453125	n/a	DISTRACTOR	2061956	n/a	LTP334	ltpFR2	8	5	n/a	n/a	n/a	n/a	0	0	0
1006.814453125	n/a	START	2061956	n/a	LTP334	ltpFR2	8	n/a	n/a	n/a	6	n/a	n/a	n/a	n/a
1006.83154296875	n/a	PROB	2061991	n/a	LTP334	ltpFR2	8	n/a	n/a	n/a	6	9	1	4	4
1008.03076171875	n/a	PROB	2064447	n/a	LTP334	ltpFR2	8	n/a	n/a	n/a	6	16	9	5	2
1009.763671875	n/a	PROB	2067996	n/a	LTP334	ltpFR2	8	n/a	n/a	n/a	6	22	7	6	8
1011.59521484375	n/a	PROB	2071747	n/a	LTP334	ltpFR2	8	n/a	n/a	n/a	6	18	4	7	7
1012.99560546875	n/a	PROB	2074615	n/a	LTP334	ltpFR2	8	n/a	n/a	n/a	6	18	8	8	2
1014.71142578125	n/a	PROB	2078129	n/a	LTP334	ltpFR2	8	n/a	n/a	n/a	6	17	9	3	5
1016.41015625	n/a	PROB	2081608	n/a	LTP334	ltpFR2	8	n/a	n/a	n/a	6	14	8	1	5
1018.326171875	n/a	PROB	2085532	n/a	LTP334	ltpFR2	8	n/a	n/a	n/a	6	21	3	9	9
1019.6923828125	n/a	PROB	2088330	n/a	LTP334	ltpFR2	8	n/a	n/a	n/a	6	8	1	2	5
1021.09228515625	n/a	PROB	2091197	n/a	LTP334	ltpFR2	8	n/a	n/a	n/a	6	11	5	3	3
1023.0400390625	n/a	PROB	2095186	n/a	LTP334	ltpFR2	8	n/a	n/a	n/a	6	10	2	2	6
1024.10693359375	n/a	PROB	2097371	n/a	LTP334	ltpFR2	8	n/a	n/a	n/a	6	10	7	2	1
1025.18994140625	n/a	PROB	2099589	n/a	LTP334	ltpFR2	8	n/a	n/a	n/a	6	14	9	4	1
1026.6220703125	n/a	PROB	2102522	n/a	LTP334	ltpFR2	8	n/a	n/a	n/a	6	13	1	4	8
1028.07080078125	n/a	PROB	2105489	n/a	LTP334	ltpFR2	8	n/a	n/a	n/a	6	16	9	1	6
1029.46875	n/a	STOP	2108352	n/a	LTP334	ltpFR2	8	n/a	n/a	n/a	6	n/a	n/a	n/a	n/a
1031.802734375	n/a	WORD	2113132	wordpools/wasnorm_wordpool_576.txt	LTP334	ltpFR2	8	5	VENUS	1557	n/a	n/a	0	0	0
1034.517578125	n/a	WORD	2118692	wordpools/wasnorm_wordpool_576.txt	LTP334	ltpFR2	8	5	JUDGE	761	n/a	n/a	0	0	0
1037.28466796875	n/a	WORD	2124359	wordpools/wasnorm_wordpool_576.txt	LTP334	ltpFR2	8	5	ZIPPER	1636	n/a	n/a	0	0	0
1039.78271484375	n/a	WORD	2129475	wordpools/wasnorm_wordpool_576.txt	LTP334	ltpFR2	8	5	CURTAIN	427	n/a	n/a	0	0	0
1042.46435546875	n/a	WORD	2134967	wordpools/wasnorm_wordpool_576.txt	LTP334	ltpFR2	8	5	YOLK	1633	n/a	n/a	0	0	0
1045.263671875	n/a	WORD	2140700	wordpools/wasnorm_wordpool_576.txt	LTP334	ltpFR2	8	5	TREAT	1501	n/a	n/a	0	0	0
1047.7783203125	n/a	WORD	2145850	wordpools/wasnorm_wordpool_576.txt	LTP334	ltpFR2	8	5	SKIRT	1319	n/a	n/a	0	0	0
1050.29345703125	n/a	WORD	2151001	wordpools/wasnorm_wordpool_576.txt	LTP334	ltpFR2	8	5	BEAVER	109	n/a	n/a	0	0	0
1052.80908203125	n/a	WORD	2156153	wordpools/wasnorm_wordpool_576.txt	LTP334	ltpFR2	8	5	FOX	598	n/a	n/a	0	0	0
1055.375	n/a	WORD	2161408	wordpools/wasnorm_wordpool_576.txt	LTP334	ltpFR2	8	5	FRANCE	601	n/a	n/a	0	0	0
1057.89013671875	n/a	WORD	2166559	wordpools/wasnorm_wordpool_576.txt	LTP334	ltpFR2	8	5	COFFEE	341	n/a	n/a	0	0	0
1060.43896484375	n/a	WORD	2171779	wordpools/wasnorm_wordpool_576.txt	LTP334	ltpFR2	8	5	PORK	1108	n/a	n/a	0	0	0
1062.90380859375	n/a	WORD	2176827	wordpools/wasnorm_wordpool_576.txt	LTP334	ltpFR2	8	5	AWARD	63	n/a	n/a	0	0	0
1065.669921875	n/a	WORD	2182492	wordpools/wasnorm_wordpool_576.txt	LTP334	ltpFR2	8	5	DIME	466	n/a	n/a	0	0	0
1068.13671875	n/a	WORD	2187544	wordpools/wasnorm_wordpool_576.txt	LTP334	ltpFR2	8	5	BRIEFCASE	175	n/a	n/a	0	0	0
1070.93359375	n/a	WORD	2193272	wordpools/wasnorm_wordpool_576.txt	LTP334	ltpFR2	8	5	SLOPE	1328	n/a	n/a	0	0	0
1073.515625	n/a	WORD	2198560	wordpools/wasnorm_wordpool_576.txt	LTP334	ltpFR2	8	5	LONDON	843	n/a	n/a	0	0	0
1076.11572265625	n/a	WORD	2203885	wordpools/wasnorm_wordpool_576.txt	LTP334	ltpFR2	8	5	CRAB	397	n/a	n/a	0	0	0
1078.74658203125	n/a	WORD	2209273	wordpools/wasnorm_wordpool_576.txt	LTP334	ltpFR2	8	5	PASTRY	1022	n/a	n/a	0	0	0
1081.32861328125	n/a	WORD	2214561	wordpools/wasnorm_wordpool_576.txt	LTP334	ltpFR2	8	5	MARS	873	n/a	n/a	0	0	0
1083.87744140625	n/a	WORD	2219781	wordpools/wasnorm_wordpool_576.txt	LTP334	ltpFR2	8	5	HAMPER	682	n/a	n/a	0	0	0
1086.70947265625	n/a	WORD	2225581	wordpools/wasnorm_wordpool_576.txt	LTP334	ltpFR2	8	5	GYMNAST	675	n/a	n/a	0	0	0
1089.42529296875	n/a	WORD	2231143	wordpools/wasnorm_wordpool_576.txt	LTP334	ltpFR2	8	5	MACHINE	852	n/a	n/a	0	0	0
1092.19140625	n/a	WORD	2236808	wordpools/wasnorm_wordpool_576.txt	LTP334	ltpFR2	8	5	ROBOT	1200	n/a	n/a	0	0	0
1093.80615234375	n/a	START	2240115	n/a	LTP334	ltpFR2	8	n/a	n/a	n/a	7	n/a	n/a	n/a	n/a
1094.8603515625	n/a	DISTRACTOR	2242274	n/a	LTP334	ltpFR2	8	5	n/a	n/a	n/a	n/a	0	0	0
1094.8720703125	n/a	PROB	2242298	n/a	LTP334	ltpFR2	8	n/a	n/a	n/a	7	18	5	8	5
1096.5048828125	n/a	PROB	2245642	n/a	LTP334	ltpFR2	8	n/a	n/a	n/a	7	20	4	9	6
1098.82080078125	n/a	PROB	2250385	n/a	LTP334	ltpFR2	8	n/a	n/a	n/a	7	13	7	2	4
1100.8701171875	n/a	PROB	2254582	n/a	LTP334	ltpFR2	8	n/a	n/a	n/a	7	16	7	6	3
1102.619140625	n/a	PROB	2258164	n/a	LTP334	ltpFR2	8	n/a	n/a	n/a	7	22	6	7	9
1105.134765625	n/a	PROB	2263316	n/a	LTP334	ltpFR2	8	n/a	n/a	n/a	7	20	8	9	3
1106.53369140625	n/a	PROB	2266181	n/a	LTP334	ltpFR2	8	n/a	n/a	n/a	7	14	4	4	6
1107.91552734375	n/a	PROB	2269011	n/a	LTP334	ltpFR2	8	n/a	n/a	n/a	7	12	4	5	3
1109.64892578125	n/a	PROB	2272561	n/a	LTP334	ltpFR2	8	n/a	n/a	n/a	7	13	4	8	1
1111.61474609375	n/a	PROB	2276587	n/a	LTP334	ltpFR2	8	n/a	n/a	n/a	7	18	6	3	9
1113.19775390625	n/a	PROB	2279829	n/a	LTP334	ltpFR2	8	n/a	n/a	n/a	7	15	9	4	2
1114.82958984375	n/a	PROB	2283171	n/a	LTP334	ltpFR2	8	n/a	n/a	n/a	7	11	4	1	6
1116.04541015625	n/a	PROB	2285661	n/a	LTP334	ltpFR2	8	n/a	n/a	n/a	7	17	2	8	7
1117.46044921875	n/a	STOP	2288559	n/a	LTP334	ltpFR2	8	n/a	n/a	n/a	7	n/a	n/a	n/a	n/a
1119.64453125	n/a	REC_START	2293032	n/a	LTP334	ltpFR2	8	5	n/a	n/a	n/a	n/a	0	0	0
1120.38037109375	n/a	REC_WORD	2294539	wordpools/wasnorm_wordpool_576.txt	LTP334	ltpFR2	8	5	HAMPER	682	n/a	n/a	0	0	0
1121.25341796875	n/a	REC_WORD	2296327	wordpools/wasnorm_wordpool_576.txt	LTP334	ltpFR2	8	5	GYMNAST	675	n/a	n/a	0	0	0
1123.80419921875	n/a	REC_WORD	2301551	wordpools/wasnorm_wordpool_576.txt	LTP334	ltpFR2	8	5	CRAB	397	n/a	n/a	0	0	0
1127.7333984375	n/a	REC_WORD	2309598	wordpools/wasnorm_wordpool_576.txt	LTP334	ltpFR2	8	5	TREAT	1501	n/a	n/a	0	0	0
1128.4541015625	n/a	REC_WORD	2311074	wordpools/wasnorm_wordpool_576.txt	LTP334	ltpFR2	8	5	SKIRT	1319	n/a	n/a	0	0	0
1135.95703125	n/a	REC_WORD	2326440	wordpools/wasnorm_wordpool_576.txt	LTP334	ltpFR2	8	5	DIME	466	n/a	n/a	0	0	0
1137.13916015625	n/a	REC_WORD	2328861	wordpools/wasnorm_wordpool_576.txt	LTP334	ltpFR2	8	5	AWARD	63	n/a	n/a	0	0	0
1138.1220703125	n/a	REC_WORD	2330874	wordpools/wasnorm_wordpool_576.txt	LTP334	ltpFR2	8	5	BRIEFCASE	175	n/a	n/a	0	0	0
1172.84619140625	n/a	REC_WORD	2401989	wordpools/wasnorm_wordpool_576.txt	LTP334	ltpFR2	8	5	JUDGE	761	n/a	n/a	0	0	0
1173.416015625	n/a	REC_WORD	2403156	wordpools/wasnorm_wordpool_576.txt	LTP334	ltpFR2	8	5	MARS	873	n/a	n/a	0	0	0
1173.96484375	n/a	REC_WORD	2404280	wordpools/wasnorm_wordpool_576.txt	LTP334	ltpFR2	8	5	VENUS	1557	n/a	n/a	0	0	0
1210.0849609375	n/a	WORD	2478254	wordpools/wasnorm_wordpool_576.txt	LTP334	ltpFR2	8	6	LAGOON	795	n/a	n/a	0	0	0
1212.51611328125	n/a	WORD	2483233	wordpools/wasnorm_wordpool_576.txt	LTP334	ltpFR2	8	6	MILDEW	893	n/a	n/a	0	0	0
1215.14892578125	n/a	WORD	2488625	wordpools/wasnorm_wordpool_576.txt	LTP334	ltpFR2	8	6	TUNNEL	1519	n/a	n/a	0	0	0
1217.796875	n/a	WORD	2494048	wordpools/wasnorm_wordpool_576.txt	LTP334	ltpFR2	8	6	JOURNAL	760	n/a	n/a	0	0	0
1220.4287109375	n/a	WORD	2499438	wordpools/wasnorm_wordpool_576.txt	LTP334	ltpFR2	8	6	DORM	488	n/a	n/a	0	0	0
1222.9775390625	n/a	WORD	2504658	wordpools/wasnorm_wordpool_576.txt	LTP334	ltpFR2	8	6	PARROT	1015	n/a	n/a	0	0	0
1225.65966796875	n/a	WORD	2510151	wordpools/wasnorm_wordpool_576.txt	LTP334	ltpFR2	8	6	BANJO	82	n/a	n/a	0	0	0
1228.3916015625	n/a	WORD	2515746	wordpools/wasnorm_wordpool_576.txt	LTP334	ltpFR2	8	6	PANTHER	1009	n/a	n/a	0	0	0
1230.84033203125	n/a	WORD	2520761	wordpools/wasnorm_wordpool_576.txt	LTP334	ltpFR2	8	6	SWITCH	1422	n/a	n/a	0	0	0
1233.47216796875	n/a	WORD	2526151	wordpools/wasnorm_wordpool_576.txt	LTP334	ltpFR2	8	6	FLASHLIGHT	575	n/a	n/a	0	0	0
1235.98828125	n/a	WORD	2531304	wordpools/wasnorm_wordpool_576.txt	LTP334	ltpFR2	8	6	BRICK	172	n/a	n/a	0	0	0
1238.5703125	n/a	WORD	2536592	wordpools/wasnorm_wordpool_576.txt	LTP334	ltpFR2	8	6	DENTIST	447	n/a	n/a	0	0	0
1241.001953125	n/a	WORD	2541572	wordpools/wasnorm_wordpool_576.txt	LTP334	ltpFR2	8	6	COBRA	336	n/a	n/a	0	0	0
1243.80078125	n/a	WORD	2547304	wordpools/wasnorm_wordpool_576.txt	LTP334	ltpFR2	8	6	ANKLE	24	n/a	n/a	0	0	0
1246.35009765625	n/a	WORD	2552525	wordpools/wasnorm_wordpool_576.txt	LTP334	ltpFR2	8	6	HELMET	702	n/a	n/a	0	0	0
1248.89892578125	n/a	WORD	2557745	wordpools/wasnorm_wordpool_576.txt	LTP334	ltpFR2	8	6	PEDAL	1037	n/a	n/a	0	0	0
1251.380859375	n/a	WORD	2562828	wordpools/wasnorm_wordpool_576.txt	LTP334	ltpFR2	8	6	FRAME	600	n/a	n/a	0	0	0
1254.0126953125	n/a	WORD	2568218	wordpools/wasnorm_wordpool_576.txt	LTP334	ltpFR2	8	6	OUTFIT	988	n/a	n/a	0	0	0
1256.57763671875	n/a	WORD	2573471	wordpools/wasnorm_wordpool_576.txt	LTP334	ltpFR2	8	6	CLOTHES	327	n/a	n/a	0	0	0
1259.27734375	n/a	WORD	2579000	wordpools/wasnorm_wordpool_576.txt	LTP334	ltpFR2	8	6	SUMMIT	1405	n/a	n/a	0	0	0
1261.75830078125	n/a	WORD	2584081	wordpools/wasnorm_wordpool_576.txt	LTP334	ltpFR2	8	6	ARM	38	n/a	n/a	0	0	0
1264.25830078125	n/a	WORD	2589201	wordpools/wasnorm_wordpool_576.txt	LTP334	ltpFR2	8	6	HERO	706	n/a	n/a	0	0	0
1266.939453125	n/a	WORD	2594692	wordpools/wasnorm_wordpool_576.txt	LTP334	ltpFR2	8	6	CELLAR	267	n/a	n/a	0	0	0
1269.5380859375	n/a	WORD	2600014	wordpools/wasnorm_wordpool_576.txt	LTP334	ltpFR2	8	6	LEOPARD	812	n/a	n/a	0	0	0
1271.1552734375	n/a	START	2603326	n/a	LTP334	ltpFR2	8	n/a	n/a	n/a	8	n/a	n/a	n/a	n/a
1272.22119140625	n/a	DISTRACTOR	2605509	n/a	LTP334	ltpFR2	8	6	n/a	n/a	n/a	n/a	0	0	0
1272.23828125	n/a	PROB	2605544	n/a	LTP334	ltpFR2	8	n/a	n/a	n/a	8	11	4	3	4
1274.5029296875	n/a	PROB	2610182	n/a	LTP334	ltpFR2	8	n/a	n/a	n/a	8	11	7	2	2
1276.236328125	n/a	PROB	2613732	n/a	LTP334	ltpFR2	8	n/a	n/a	n/a	8	14	6	6	4
1278.0341796875	n/a	PROB	2617414	n/a	LTP334	ltpFR2	8	n/a	n/a	n/a	8	19	2	9	8
1280.033203125	n/a	PROB	2621508	n/a	LTP334	ltpFR2	8	n/a	n/a	n/a	8	13	3	7	3
1281.216796875	n/a	PROB	2623932	n/a	LTP334	ltpFR2	8	n/a	n/a	n/a	8	9	2	2	5
1282.51611328125	n/a	PROB	2626593	n/a	LTP334	ltpFR2	8	n/a	n/a	n/a	8	14	5	5	4
1283.71484375	n/a	PROB	2629048	n/a	LTP334	ltpFR2	8	n/a	n/a	n/a	8	15	1	8	6
1285.39794921875	n/a	PROB	2632495	n/a	LTP334	ltpFR2	8	n/a	n/a	n/a	8	20	9	4	7
1286.72998046875	n/a	PROB	2635223	n/a	LTP334	ltpFR2	8	n/a	n/a	n/a	8	10	1	7	2
1287.89697265625	n/a	PROB	2637613	n/a	LTP334	ltpFR2	8	n/a	n/a	n/a	8	23	5	9	9
1290.19580078125	n/a	PROB	2642321	n/a	LTP334	ltpFR2	8	n/a	n/a	n/a	8	21	7	7	7
1291.427734375	n/a	PROB	2644844	n/a	LTP334	ltpFR2	8	n/a	n/a	n/a	8	13	4	3	6
1293.57666015625	n/a	PROB	2649245	n/a	LTP334	ltpFR2	8	n/a	n/a	n/a	8	13	2	4	7
1295.0537109375	n/a	STOP	2652270	n/a	LTP334	ltpFR2	8	n/a	n/a	n/a	8	n/a	n/a	n/a	n/a
1296.9755859375	n/a	REC_START	2656206	n/a	LTP334	ltpFR2	8	6	n/a	n/a	n/a	n/a	0	0	0
1298.2734375	n/a	REC_WORD	2658864	wordpools/wasnorm_wordpool_576.txt	LTP334	ltpFR2	8	6	LEOPARD	812	n/a	n/a	0	0	0
1298.99462890625	n/a	REC_WORD	2660341	wordpools/wasnorm_wordpool_576.txt	LTP334	ltpFR2	8	6	HERO	706	n/a	n/a	0	0	0
1299.9482421875	n/a	REC_WORD	2662294	wordpools/wasnorm_wordpool_576.txt	LTP334	ltpFR2	8	6	SUMMIT	1405	n/a	n/a	0	0	0
1301.4404296875	n/a	REC_WORD	2665350	wordpools/wasnorm_wordpool_576.txt	LTP334	ltpFR2	8	6	HELMET	702	n/a	n/a	0	0	0
1302.45654296875	n/a	REC_WORD	2667431	wordpools/wasnorm_wordpool_576.txt	LTP334	ltpFR2	8	6	PEDAL	1037	n/a	n/a	0	0	0
1304.068359375	n/a	REC_WORD	2670732	wordpools/wasnorm_wordpool_576.txt	LTP334	ltpFR2	8	6	ANKLE	24	n/a	n/a	0	0	0
1304.6943359375	n/a	REC_WORD	2672014	wordpools/wasnorm_wordpool_576.txt	LTP334	ltpFR2	8	6	ARM	38	n/a	n/a	0	0	0
1305.365234375	n/a	REC_WORD	2673388	wordpools/wasnorm_wordpool_576.txt	LTP334	ltpFR2	8	6	DENTIST	447	n/a	n/a	0	0	0
1309.9580078125	n/a	REC_WORD	2682794	wordpools/wasnorm_wordpool_576.txt	LTP334	ltpFR2	8	6	MILDEW	893	n/a	n/a	0	0	0
1310.80029296875	n/a	REC_WORD	2684519	wordpools/wasnorm_wordpool_576.txt	LTP334	ltpFR2	8	6	LAGOON	795	n/a	n/a	0	0	0
1312.880859375	n/a	REC_WORD	2688780	wordpools/wasnorm_wordpool_576.txt	LTP334	ltpFR2	8	6	JOURNAL	760	n/a	n/a	0	0	0
1313.994140625	n/a	REC_WORD	2691060	wordpools/wasnorm_wordpool_576.txt	LTP334	ltpFR2	8	6	TUNNEL	1519	n/a	n/a	0	0	0
1320.85302734375	n/a	REC_WORD	2705107	wordpools/wasnorm_wordpool_576.txt	LTP334	ltpFR2	8	6	BRICK	172	n/a	n/a	0	0	0
1322.4296875	n/a	REC_WORD	2708336	wordpools/wasnorm_wordpool_576.txt	LTP334	ltpFR2	8	6	COBRA	336	n/a	n/a	0	0	0
1387.4150390625	n/a	DISTRACTOR	2841426	n/a	LTP334	ltpFR2	8	7	n/a	n/a	n/a	n/a	0	0	0
1387.4150390625	n/a	START	2841426	n/a	LTP334	ltpFR2	8	n/a	n/a	n/a	9	n/a	n/a	n/a	n/a
1387.43212890625	n/a	PROB	2841461	n/a	LTP334	ltpFR2	8	n/a	n/a	n/a	9	19	9	6	4
1389.3310546875	n/a	PROB	2845350	n/a	LTP334	ltpFR2	8	n/a	n/a	n/a	9	18	2	8	8
1390.9140625	n/a	PROB	2848592	n/a	LTP334	ltpFR2	8	n/a	n/a	n/a	9	21	7	7	7
1391.9296875	n/a	PROB	2850672	n/a	LTP334	ltpFR2	8	n/a	n/a	n/a	9	20	5	6	9
1393.595703125	n/a	PROB	2854084	n/a	LTP334	ltpFR2	8	n/a	n/a	n/a	9	12	4	5	3
1395.1787109375	n/a	PROB	2857326	n/a	LTP334	ltpFR2	8	n/a	n/a	n/a	9	8	1	4	3
1397.11181640625	n/a	PROB	2861285	n/a	LTP334	ltpFR2	8	n/a	n/a	n/a	9	16	7	6	3
1398.7265625	n/a	PROB	2864592	n/a	LTP334	ltpFR2	8	n/a	n/a	n/a	9	9	6	1	2
1399.9755859375	n/a	PROB	2867150	n/a	LTP334	ltpFR2	8	n/a	n/a	n/a	9	23	5	9	9
1401.44140625	n/a	PROB	2870152	n/a	LTP334	ltpFR2	8	n/a	n/a	n/a	9	21	8	8	5
1402.8076171875	n/a	PROB	2872950	n/a	LTP334	ltpFR2	8	n/a	n/a	n/a	9	15	4	4	7
1404.357421875	n/a	PROB	2876124	n/a	LTP334	ltpFR2	8	n/a	n/a	n/a	9	10	4	2	4
1406.07275390625	n/a	PROB	2879637	n/a	LTP334	ltpFR2	8	n/a	n/a	n/a	9	8	3	3	2
1407.95556640625	n/a	PROB	2883493	n/a	LTP334	ltpFR2	8	n/a	n/a	n/a	9	13	8	1	4
1409.404296875	n/a	PROB	2886460	n/a	LTP334	ltpFR2	8	n/a	n/a	n/a	9	19	8	8	3
1410.87841796875	n/a	STOP	2889479	n/a	LTP334	ltpFR2	8	n/a	n/a	n/a	9	n/a	n/a	n/a	n/a
1412.3203125	n/a	WORD	2892432	wordpools/wasnorm_wordpool_576.txt	LTP334	ltpFR2	8	7	GLASS	639	n/a	n/a	0	0	0
1415.01806640625	n/a	WORD	2897957	wordpools/wasnorm_wordpool_576.txt	LTP334	ltpFR2	8	7	COURSE	390	n/a	n/a	0	0	0
1417.650390625	n/a	WORD	2903348	wordpools/wasnorm_wordpool_576.txt	LTP334	ltpFR2	8	7	DRESSER	496	n/a	n/a	0	0	0
1420.3330078125	n/a	WORD	2908842	wordpools/wasnorm_wordpool_576.txt	LTP334	ltpFR2	8	7	BLADE	134	n/a	n/a	0	0	0
1422.89794921875	n/a	WORD	2914095	wordpools/wasnorm_wordpool_576.txt	LTP334	ltpFR2	8	7	TOURIST	1488	n/a	n/a	0	0	0
1425.6640625	n/a	WORD	2919760	wordpools/wasnorm_wordpool_576.txt	LTP334	ltpFR2	8	7	HUSBAND	728	n/a	n/a	0	0	0
1428.47900390625	n/a	WORD	2925525	wordpools/wasnorm_wordpool_576.txt	LTP334	ltpFR2	8	7	OINTMENT	974	n/a	n/a	0	0	0
1430.94384765625	n/a	WORD	2930573	wordpools/wasnorm_wordpool_576.txt	LTP334	ltpFR2	8	7	TROUT	1511	n/a	n/a	0	0	0
1433.509765625	n/a	WORD	2935828	wordpools/wasnorm_wordpool_576.txt	LTP334	ltpFR2	8	7	PALACE	1006	n/a	n/a	0	0	0
1436.259765625	n/a	WORD	2941460	wordpools/wasnorm_wordpool_576.txt	LTP334	ltpFR2	8	7	MUMMY	932	n/a	n/a	0	0	0
1439.0068359375	n/a	WORD	2947086	wordpools/wasnorm_wordpool_576.txt	LTP334	ltpFR2	8	7	TABLET	1427	n/a	n/a	0	0	0
1441.70556640625	n/a	WORD	2952613	wordpools/wasnorm_wordpool_576.txt	LTP334	ltpFR2	8	7	SCARECROW	1245	n/a	n/a	0	0	0
1444.17236328125	n/a	WORD	2957665	wordpools/wasnorm_wordpool_576.txt	LTP334	ltpFR2	8	7	BUNNY	198	n/a	n/a	0	0	0
1446.83642578125	n/a	WORD	2963121	wordpools/wasnorm_wordpool_576.txt	LTP334	ltpFR2	8	7	COMET	353	n/a	n/a	0	0	0
1449.46826171875	n/a	WORD	2968511	wordpools/wasnorm_wordpool_576.txt	LTP334	ltpFR2	8	7	SPACE	1345	n/a	n/a	0	0	0
1452.21826171875	n/a	WORD	2974143	wordpools/wasnorm_wordpool_576.txt	LTP334	ltpFR2	8	7	VIRUS	1572	n/a	n/a	0	0	0
1454.9990234375	n/a	WORD	2979838	wordpools/wasnorm_wordpool_576.txt	LTP334	ltpFR2	8	7	BADGE	68	n/a	n/a	0	0	0
1457.5810546875	n/a	WORD	2985126	wordpools/wasnorm_wordpool_576.txt	LTP334	ltpFR2	8	7	LUGGAGE	847	n/a	n/a	0	0	0
1460.130859375	n/a	WORD	2990348	wordpools/wasnorm_wordpool_576.txt	LTP334	ltpFR2	8	7	FIDDLE	561	n/a	n/a	0	0	0
1462.77880859375	n/a	WORD	2995771	wordpools/wasnorm_wordpool_576.txt	LTP334	ltpFR2	8	7	FREEZER	604	n/a	n/a	0	0	0
1465.52783203125	n/a	WORD	3001401	wordpools/wasnorm_wordpool_576.txt	LTP334	ltpFR2	8	7	SHARK	1275	n/a	n/a	0	0	0
1467.9765625	n/a	WORD	3006416	wordpools/wasnorm_wordpool_576.txt	LTP334	ltpFR2	8	7	OYSTER	995	n/a	n/a	0	0	0
1470.54150390625	n/a	WORD	3011669	wordpools/wasnorm_wordpool_576.txt	LTP334	ltpFR2	8	7	SEAFOOD	1260	n/a	n/a	0	0	0
1472.9736328125	n/a	WORD	3016650	wordpools/wasnorm_wordpool_576.txt	LTP334	ltpFR2	8	7	AIRPORT	13	n/a	n/a	0	0	0
1474.5908203125	n/a	START	3019962	n/a	LTP334	ltpFR2	8	n/a	n/a	n/a	10	n/a	n/a	n/a	n/a
1475.69677734375	n/a	DISTRACTOR	3022227	n/a	LTP334	ltpFR2	8	7	n/a	n/a	n/a	n/a	0	0	0
1475.70654296875	n/a	PROB	3022247	n/a	LTP334	ltpFR2	8	n/a	n/a	n/a	10	15	1	6	8
1478.03857421875	n/a	PROB	3027023	n/a	LTP334	ltpFR2	8	n/a	n/a	n/a	10	7	5	1	1
1479.3212890625	n/a	PROB	3029650	n/a	LTP334	ltpFR2	8	n/a	n/a	n/a	10	2	7	8	8
1480.88720703125	n/a	PROB	3032857	n/a	LTP334	ltpFR2	8	n/a	n/a	n/a	10	21	4	9	8
1483.1533203125	n/a	PROB	3037498	n/a	LTP334	ltpFR2	8	n/a	n/a	n/a	10	9	3	1	5
1485.05126953125	n/a	PROB	3041385	n/a	LTP334	ltpFR2	8	n/a	n/a	n/a	10	13	3	6	4
1486.2353515625	n/a	PROB	3043810	n/a	LTP334	ltpFR2	8	n/a	n/a	n/a	10	21	6	6	9
1487.55029296875	n/a	PROB	3046503	n/a	LTP334	ltpFR2	8	n/a	n/a	n/a	10	11	4	6	1
1488.63330078125	n/a	PROB	3048721	n/a	LTP334	ltpFR2	8	n/a	n/a	n/a	10	15	4	2	9
1490.3994140625	n/a	PROB	3052338	n/a	LTP334	ltpFR2	8	n/a	n/a	n/a	10	20	7	8	5
1491.64794921875	n/a	PROB	3054895	n/a	LTP334	ltpFR2	8	n/a	n/a	n/a	10	16	5	9	2
1493.21533203125	n/a	PROB	3058105	n/a	LTP334	ltpFR2	8	n/a	n/a	n/a	10	21	6	9	6
1494.81298828125	n/a	PROB	3061377	n/a	LTP334	ltpFR2	8	n/a	n/a	n/a	10	23	6	9	8
1497.52587890625	n/a	STOP	3066933	n/a	LTP334	ltpFR2	8	n/a	n/a	n/a	10	n/a	n/a	n/a	n/a
1500.3447265625	n/a	REC_START	3072706	n/a	LTP334	ltpFR2	8	7	n/a	n/a	n/a	n/a	0	0	0
1501.82470703125	n/a	REC_WORD	3075737	wordpools/wasnorm_wordpool_576.txt	LTP334	ltpFR2	8	7	SEAFOOD	1260	n/a	n/a	0	0	0
1502.73291015625	n/a	REC_WORD	3077597	wordpools/wasnorm_wordpool_576.txt	LTP334	ltpFR2	8	7	OYSTER	995	n/a	n/a	0	0	0
1503.431640625	n/a	REC_WORD	3079028	wordpools/wasnorm_wordpool_576.txt	LTP334	ltpFR2	8	7	TROUT	1511	n/a	n/a	0	0	0
1509.4384765625	n/a	REC_WORD	3091330	wordpools/wasnorm_wordpool_576.txt	LTP334	ltpFR2	8	7	TOURIST	1488	n/a	n/a	0	0	0
1509.99951171875	n/a	REC_WORD	3092479	wordpools/wasnorm_wordpool_576.txt	LTP334	ltpFR2	8	7	HUSBAND	728	n/a	n/a	0	0	0
1510.73046875	n/a	REC_WORD	3093976	wordpools/wasnorm_wordpool_576.txt	LTP334	ltpFR2	8	7	OINTMENT	974	n/a	n/a	0	0	0
1511.37646484375	n/a	REC_WORD	3095299	wordpools/wasnorm_wordpool_576.txt	LTP334	ltpFR2	8	7	SHARK	1275	n/a	n/a	0	0	0
1515.4892578125	n/a	REC_WORD	3103722	wordpools/wasnorm_wordpool_576.txt	LTP334	ltpFR2	8	7	DRESSER	496	n/a	n/a	0	0	0
1516.10546875	n/a	REC_WORD	3104984	wordpools/wasnorm_wordpool_576.txt	LTP334	ltpFR2	8	7	PALACE	1006	n/a	n/a	0	0	0
1516.7265625	n/a	REC_WORD	3106256	wordpools/wasnorm_wordpool_576.txt	LTP334	ltpFR2	8	7	MUMMY	932	n/a	n/a	0	0	0
1517.33642578125	n/a	REC_WORD	3107505	wordpools/wasnorm_wordpool_576.txt	LTP334	ltpFR2	8	7	GLASS	639	n/a	n/a	0	0	0
1518.0576171875	n/a	REC_WORD	3108982	wordpools/wasnorm_wordpool_576.txt	LTP334	ltpFR2	8	7	BLADE	134	n/a	n/a	0	0	0
1519.22021484375	n/a	REC_WORD	3111363	wordpools/wasnorm_wordpool_576.txt	LTP334	ltpFR2	8	7	COURSE	390	n/a	n/a	0	0	0
1519.88818359375	n/a	REC_WORD	3112731	wordpools/wasnorm_wordpool_576.txt	LTP334	ltpFR2	8	7	COMET	353	n/a	n/a	0	0	0
1520.357421875	n/a	REC_WORD	3113692	wordpools/wasnorm_wordpool_576.txt	LTP334	ltpFR2	8	7	SPACE	1345	n/a	n/a	0	0	0
1521.0263671875	n/a	REC_WORD	3115062	wordpools/wasnorm_wordpool_576.txt	LTP334	ltpFR2	8	7	LUGGAGE	847	n/a	n/a	0	0	0
1521.78955078125	n/a	REC_WORD	3116625	wordpools/wasnorm_wordpool_576.txt	LTP334	ltpFR2	8	7	BADGE	68	n/a	n/a	0	0	0
1522.3994140625	n/a	REC_WORD	3117874	wordpools/wasnorm_wordpool_576.txt	LTP334	ltpFR2	8	7	AIRPORT	13	n/a	n/a	0	0	0
1524.25048828125	n/a	REC_WORD	3121665	wordpools/wasnorm_wordpool_576.txt	LTP334	ltpFR2	8	7	FREEZER	604	n/a	n/a	0	0	0
1525.22607421875	n/a	REC_WORD	3123663	wordpools/wasnorm_wordpool_576.txt	LTP334	ltpFR2	8	7	FIDDLE	561	n/a	n/a	0	0	0
1530.76123046875	n/a	REC_WORD	3134999	wordpools/wasnorm_wordpool_576.txt	LTP334	ltpFR2	8	7	SCARECROW	1245	n/a	n/a	0	0	0
1534.85595703125	n/a	REC_WORD	3143385	wordpools/wasnorm_wordpool_576.txt	LTP334	ltpFR2	8	7	LUGGAGE	847	n/a	n/a	0	0	0
1535.31689453125	n/a	REC_WORD	3144329	wordpools/wasnorm_wordpool_576.txt	LTP334	ltpFR2	8	7	BADGE	68	n/a	n/a	0	0	0
1536.26806640625	n/a	REC_WORD	3146277	wordpools/wasnorm_wordpool_576.txt	LTP334	ltpFR2	8	7	HUSBAND	728	n/a	n/a	0	0	0
1536.93505859375	n/a	REC_WORD_VV	3147643	wordpools/wasnorm_wordpool_576.txt	LTP334	ltpFR2	8	7	<>	-1	n/a	n/a	0	0	0
1547.41162109375	n/a	REC_WORD	3169099	wordpools/wasnorm_wordpool_576.txt	LTP334	ltpFR2	8	7	MUMMY	932	n/a	n/a	0	0	0
1556.8984375	n/a	REC_WORD	3188528	wordpools/wasnorm_wordpool_576.txt	LTP334	ltpFR2	8	7	COMET	353	n/a	n/a	0	0	0
1557.4052734375	n/a	REC_WORD	3189566	wordpools/wasnorm_wordpool_576.txt	LTP334	ltpFR2	8	7	SPACE	1345	n/a	n/a	0	0	0
1590.7841796875	n/a	DISTRACTOR	3257926	n/a	LTP334	ltpFR2	8	8	n/a	n/a	n/a	n/a	0	0	0
1590.7841796875	n/a	START	3257926	n/a	LTP334	ltpFR2	8	n/a	n/a	n/a	11	n/a	n/a	n/a	n/a
1590.80029296875	n/a	PROB	3257959	n/a	LTP334	ltpFR2	8	n/a	n/a	n/a	11	16	8	3	5
1592.84912109375	n/a	PROB	3262155	n/a	LTP334	ltpFR2	8	n/a	n/a	n/a	11	11	3	3	5
1594.49951171875	n/a	PROB	3265535	n/a	LTP334	ltpFR2	8	n/a	n/a	n/a	11	14	5	5	4
1595.96533203125	n/a	PROB	3268537	n/a	LTP334	ltpFR2	8	n/a	n/a	n/a	11	15	2	9	4
1597.6142578125	n/a	PROB	3271914	n/a	LTP334	ltpFR2	8	n/a	n/a	n/a	11	12	9	1	2
1598.88037109375	n/a	PROB	3274507	n/a	LTP334	ltpFR2	8	n/a	n/a	n/a	11	12	2	2	8
1600.22998046875	n/a	PROB	3277271	n/a	LTP334	ltpFR2	8	n/a	n/a	n/a	11	13	3	9	1
1603.11328125	n/a	PROB	3283176	n/a	LTP334	ltpFR2	8	n/a	n/a	n/a	11	15	2	5	8
1604.52783203125	n/a	PROB	3286073	n/a	LTP334	ltpFR2	8	n/a	n/a	n/a	11	14	3	9	2
1605.97705078125	n/a	PROB	3289041	n/a	LTP334	ltpFR2	8	n/a	n/a	n/a	11	16	1	6	9
1607.8759765625	n/a	PROB	3292930	n/a	LTP334	ltpFR2	8	n/a	n/a	n/a	11	17	6	5	6
1609.4248046875	n/a	PROB	3296102	n/a	LTP334	ltpFR2	8	n/a	n/a	n/a	11	14	2	7	5
1610.974609375	n/a	PROB	3299276	n/a	LTP334	ltpFR2	8	n/a	n/a	n/a	11	24	9	7	8
1612.5908203125	n/a	PROB	3302586	n/a	LTP334	ltpFR2	8	n/a	n/a	n/a	11	19	8	8	3
1613.9267578125	n/a	STOP	3305322	n/a	LTP334	ltpFR2	8	n/a	n/a	n/a	11	n/a	n/a	n/a	n/a
1615.70556640625	n/a	WORD	3308965	wordpools/wasnorm_wordpool_576.txt	LTP334	ltpFR2	8	8	LEG	809	n/a	n/a	0	0	0
1618.138671875	n/a	WORD	3313948	wordpools/wasnorm_wordpool_576.txt	LTP334	ltpFR2	8	8	POLICE	1098	n/a	n/a	0	0	0
1620.63671875	n/a	WORD	3319064	wordpools/wasnorm_wordpool_576.txt	LTP334	ltpFR2	8	8	RIVER	1194	n/a	n/a	0	0	0
1623.41845703125	n/a	WORD	3324761	wordpools/wasnorm_wordpool_576.txt	LTP334	ltpFR2	8	8	TURKEY	1520	n/a	n/a	0	0	0
1625.900390625	n/a	WORD	3329844	wordpools/wasnorm_wordpool_576.txt	LTP334	ltpFR2	8	8	SHERIFF	1284	n/a	n/a	0	0	0
1628.6494140625	n/a	WORD	3335474	wordpools/wasnorm_wordpool_576.txt	LTP334	ltpFR2	8	8	MARSH	874	n/a	n/a	0	0	0
1631.29833984375	n/a	WORD	3340899	wordpools/wasnorm_wordpool_576.txt	LTP334	ltpFR2	8	8	SUPPER	1411	n/a	n/a	0	0	0
1633.88037109375	n/a	WORD	3346187	wordpools/wasnorm_wordpool_576.txt	LTP334	ltpFR2	8	8	CONTRACT	368	n/a	n/a	0	0	0
1636.412109375	n/a	WORD	3351372	wordpools/wasnorm_wordpool_576.txt	LTP334	ltpFR2	8	8	EAGLE	512	n/a	n/a	0	0	0
1638.86083984375	n/a	WORD	3356387	wordpools/wasnorm_wordpool_576.txt	LTP334	ltpFR2	8	8	ROBIN	1199	n/a	n/a	0	0	0
1641.64306640625	n/a	WORD	3362085	wordpools/wasnorm_wordpool_576.txt	LTP334	ltpFR2	8	8	TROMBONE	1508	n/a	n/a	0	0	0
1644.44189453125	n/a	WORD	3367817	wordpools/wasnorm_wordpool_576.txt	LTP334	ltpFR2	8	8	PARSLEY	1016	n/a	n/a	0	0	0
1647.0068359375	n/a	WORD	3373070	wordpools/wasnorm_wordpool_576.txt	LTP334	ltpFR2	8	8	SLIME	1327	n/a	n/a	0	0	0
1649.5556640625	n/a	WORD	3378290	wordpools/wasnorm_wordpool_576.txt	LTP334	ltpFR2	8	8	FEMALE	559	n/a	n/a	0	0	0
1652.12255859375	n/a	WORD	3383547	wordpools/wasnorm_wordpool_576.txt	LTP334	ltpFR2	8	8	WARDROBE	1587	n/a	n/a	0	0	0
1654.76953125	n/a	WORD	3388968	wordpools/wasnorm_wordpool_576.txt	LTP334	ltpFR2	8	8	STICKER	1382	n/a	n/a	0	0	0
1657.46875	n/a	WORD	3394496	wordpools/wasnorm_wordpool_576.txt	LTP334	ltpFR2	8	8	TAXI	1438	n/a	n/a	0	0	0
1660.017578125	n/a	WORD	3399716	wordpools/wasnorm_wordpool_576.txt	LTP334	ltpFR2	8	8	BANK	83	n/a	n/a	0	0	0
1662.69921875	n/a	WORD	3405208	wordpools/wasnorm_wordpool_576.txt	LTP334	ltpFR2	8	8	APPLE	33	n/a	n/a	0	0	0
1665.46533203125	n/a	WORD	3410873	wordpools/wasnorm_wordpool_576.txt	LTP334	ltpFR2	8	8	JUGGLER	763	n/a	n/a	0	0	0
1668.1142578125	n/a	WORD	3416298	wordpools/wasnorm_wordpool_576.txt	LTP334	ltpFR2	8	8	COLLEGE	346	n/a	n/a	0	0	0
1670.71240234375	n/a	WORD	3421619	wordpools/wasnorm_wordpool_576.txt	LTP334	ltpFR2	8	8	CRITIC	410	n/a	n/a	0	0	0
1673.17919921875	n/a	WORD	3426671	wordpools/wasnorm_wordpool_576.txt	LTP334	ltpFR2	8	8	GOBLIN	645	n/a	n/a	0	0	0
1675.97607421875	n/a	WORD	3432399	wordpools/wasnorm_wordpool_576.txt	LTP334	ltpFR2	8	8	COD	340	n/a	n/a	0	0	0
1677.5927734375	n/a	START	3435710	n/a	LTP334	ltpFR2	8	n/a	n/a	n/a	12	n/a	n/a	n/a	n/a
1678.755859375	n/a	DISTRACTOR	3438092	n/a	LTP334	ltpFR2	8	8	n/a	n/a	n/a	n/a	0	0	0
1678.7587890625	n/a	PROB	3438098	n/a	LTP334	ltpFR2	8	n/a	n/a	n/a	12	14	4	4	6
1680.10888671875	n/a	PROB	3440863	n/a	LTP334	ltpFR2	8	n/a	n/a	n/a	12	21	6	8	7
1682.0908203125	n/a	PROB	3444922	n/a	LTP334	ltpFR2	8	n/a	n/a	n/a	12	11	4	6	1
1683.3896484375	n/a	PROB	3447582	n/a	LTP334	ltpFR2	8	n/a	n/a	n/a	12	11	7	2	2
1684.52294921875	n/a	PROB	3449903	n/a	LTP334	ltpFR2	8	n/a	n/a	n/a	12	20	5	9	6
1686.1396484375	n/a	PROB	3453214	n/a	LTP334	ltpFR2	8	n/a	n/a	n/a	12	16	5	3	8
1688.0888671875	n/a	PROB	3457206	n/a	LTP334	ltpFR2	8	n/a	n/a	n/a	12	9	3	3	3
1689.48681640625	n/a	PROB	3460069	n/a	LTP334	ltpFR2	8	n/a	n/a	n/a	12	19	2	8	9
1690.935546875	n/a	PROB	3463036	n/a	LTP334	ltpFR2	8	n/a	n/a	n/a	12	13	1	8	4
1692.50146484375	n/a	PROB	3466243	n/a	LTP334	ltpFR2	8	n/a	n/a	n/a	12	16	3	8	5
1694.08544921875	n/a	PROB	3469487	n/a	LTP334	ltpFR2	8	n/a	n/a	n/a	12	23	9	9	5
1695.88330078125	n/a	PROB	3473169	n/a	LTP334	ltpFR2	8	n/a	n/a	n/a	12	11	3	7	1
1697.150390625	n/a	PROB	3475764	n/a	LTP334	ltpFR2	8	n/a	n/a	n/a	12	12	4	6	2
1698.58251953125	n/a	PROB	3478697	n/a	LTP334	ltpFR2	8	n/a	n/a	n/a	12	17	4	6	7
1701.59228515625	n/a	STOP	3484861	n/a	LTP334	ltpFR2	8	n/a	n/a	n/a	12	n/a	n/a	n/a	n/a
1703.447265625	n/a	REC_START	3488660	n/a	LTP334	ltpFR2	8	8	n/a	n/a	n/a	n/a	0	0	0
1704.25048828125	n/a	REC_WORD	3490305	wordpools/wasnorm_wordpool_576.txt	LTP334	ltpFR2	8	8	COD	340	n/a	n/a	0	0	0
1706.30908203125	n/a	REC_WORD	3494521	wordpools/wasnorm_wordpool_576.txt	LTP334	ltpFR2	8	8	TAXI	1438	n/a	n/a	0	0	0
1707.09326171875	n/a	REC_WORD	3496127	wordpools/wasnorm_wordpool_576.txt	LTP334	ltpFR2	8	8	JUGGLER	763	n/a	n/a	0	0	0
1707.76123046875	n/a	REC_WORD	3497495	wordpools/wasnorm_wordpool_576.txt	LTP334	ltpFR2	8	8	SLIME	1327	n/a	n/a	0	0	0
1708.5361328125	n/a	REC_WORD	3499082	wordpools/wasnorm_wordpool_576.txt	LTP334	ltpFR2	8	8	FEMALE	559	n/a	n/a	0	0	0
1709.40625	n/a	REC_WORD	3500864	wordpools/wasnorm_wordpool_576.txt	LTP334	ltpFR2	8	8	WARDROBE	1587	n/a	n/a	0	0	0
1711.05517578125	n/a	REC_WORD	3504241	wordpools/wasnorm_wordpool_576.txt	LTP334	ltpFR2	8	8	RIVER	1194	n/a	n/a	0	0	0
1711.701171875	n/a	REC_WORD	3505564	wordpools/wasnorm_wordpool_576.txt	LTP334	ltpFR2	8	8	MARSH	874	n/a	n/a	0	0	0
1712.31396484375	n/a	REC_WORD	3506819	wordpools/wasnorm_wordpool_576.txt	LTP334	ltpFR2	8	8	LEG	809	n/a	n/a	0	0	0
1713.9638671875	n/a	REC_WORD	3510198	wordpools/wasnorm_wordpool_576.txt	LTP334	ltpFR2	8	8	SHERIFF	1284	n/a	n/a	0	0	0
1714.72802734375	n/a	REC_WORD	3511763	wordpools/wasnorm_wordpool_576.txt	LTP334	ltpFR2	8	8	POLICE	1098	n/a	n/a	0	0	0
1721.0458984375	n/a	REC_WORD	3524702	wordpools/wasnorm_wordpool_576.txt	LTP334	ltpFR2	8	8	PARSLEY	1016	n/a	n/a	0	0	0
1741.115234375	n/a	REC_WORD	3565804	wordpools/wasnorm_wordpool_576.txt	LTP334	ltpFR2	8	8	COLLEGE	346	n/a	n/a	0	0	0
1741.80615234375	n/a	REC_WORD	3567219	wordpools/wasnorm_wordpool_576.txt	LTP334	ltpFR2	8	8	CRITIC	410	n/a	n/a	0	0	0
1742.42236328125	n/a	REC_WORD	3568481	wordpools/wasnorm_wordpool_576.txt	LTP334	ltpFR2	8	8	GOBLIN	645	n/a	n/a	0	0	0
1763.50048828125	n/a	REC_WORD	3611649	wordpools/wasnorm_wordpool_576.txt	LTP334	ltpFR2	8	8	BANK	83	n/a	n/a	0	0	0
1779.97607421875	n/a	REST_REWET	3645391	n/a	LTP334	ltpFR2	8	8	n/a	n/a	n/a	n/a	0	0	0
1967.98583984375	n/a	DISTRACTOR	4030435	n/a	LTP334	ltpFR2	8	9	n/a	n/a	n/a	n/a	0	0	0
1967.98583984375	n/a	START	4030435	n/a	LTP334	ltpFR2	8	n/a	n/a	n/a	13	n/a	n/a	n/a	n/a
1968.0029296875	n/a	PROB	4030470	n/a	LTP334	ltpFR2	8	n/a	n/a	n/a	13	14	9	2	3
1969.7021484375	n/a	PROB	4033950	n/a	LTP334	ltpFR2	8	n/a	n/a	n/a	13	20	6	6	8
1971.03466796875	n/a	PROB	4036679	n/a	LTP334	ltpFR2	8	n/a	n/a	n/a	13	15	7	3	5
1972.21875	n/a	PROB	4039104	n/a	LTP334	ltpFR2	8	n/a	n/a	n/a	13	7	3	2	2
1973.7998046875	n/a	PROB	4042342	n/a	LTP334	ltpFR2	8	n/a	n/a	n/a	13	8	1	4	3
1975.5986328125	n/a	PROB	4046026	n/a	LTP334	ltpFR2	8	n/a	n/a	n/a	13	11	3	2	6
1977.298828125	n/a	PROB	4049508	n/a	LTP334	ltpFR2	8	n/a	n/a	n/a	13	1	2	5	3
1979.0986328125	n/a	PROB	4053194	n/a	LTP334	ltpFR2	8	n/a	n/a	n/a	13	22	7	6	8
1981.44677734375	n/a	PROB	4058003	n/a	LTP334	ltpFR2	8	n/a	n/a	n/a	13	20	8	8	4
1983.3955078125	n/a	PROB	4061994	n/a	LTP334	ltpFR2	8	n/a	n/a	n/a	13	9	4	3	2
1984.79443359375	n/a	PROB	4064859	n/a	LTP334	ltpFR2	8	n/a	n/a	n/a	13	8	2	1	5
1986.21142578125	n/a	PROB	4067761	n/a	LTP334	ltpFR2	8	n/a	n/a	n/a	13	22	9	4	9
1987.92626953125	n/a	PROB	4071273	n/a	LTP334	ltpFR2	8	n/a	n/a	n/a	13	11	2	2	7
1989.34228515625	n/a	PROB	4074173	n/a	LTP334	ltpFR2	8	n/a	n/a	n/a	13	18	3	7	8
1990.75244140625	n/a	STOP	4077061	n/a	LTP334	ltpFR2	8	n/a	n/a	n/a	13	n/a	n/a	n/a	n/a
1992.92431640625	n/a	WORD	4081509	wordpools/wasnorm_wordpool_576.txt	LTP334	ltpFR2	8	9	PARENT	1013	n/a	n/a	0	0	0
1995.5390625	n/a	WORD	4086864	wordpools/wasnorm_wordpool_576.txt	LTP334	ltpFR2	8	9	CONVICT	371	n/a	n/a	0	0	0
1998.3212890625	n/a	WORD	4092562	wordpools/wasnorm_wordpool_576.txt	LTP334	ltpFR2	8	9	RECEIPT	1173	n/a	n/a	0	0	0
2000.77001953125	n/a	WORD	4097577	wordpools/wasnorm_wordpool_576.txt	LTP334	ltpFR2	8	9	PIGEON	1065	n/a	n/a	0	0	0
2003.2861328125	n/a	WORD	4102730	wordpools/wasnorm_wordpool_576.txt	LTP334	ltpFR2	8	9	PIANO	1057	n/a	n/a	0	0	0
2006.01806640625	n/a	WORD	4108325	wordpools/wasnorm_wordpool_576.txt	LTP334	ltpFR2	8	9	RECORD	1176	n/a	n/a	0	0	0
2008.61669921875	n/a	WORD	4113647	wordpools/wasnorm_wordpool_576.txt	LTP334	ltpFR2	8	9	DRESS	495	n/a	n/a	0	0	0
2011.048828125	n/a	WORD	4118628	wordpools/wasnorm_wordpool_576.txt	LTP334	ltpFR2	8	9	IDOL	733	n/a	n/a	0	0	0
2013.86376953125	n/a	WORD	4124393	wordpools/wasnorm_wordpool_576.txt	LTP334	ltpFR2	8	9	CROWN	415	n/a	n/a	0	0	0
2016.57958984375	n/a	WORD	4129955	wordpools/wasnorm_wordpool_576.txt	LTP334	ltpFR2	8	9	SISTER	1312	n/a	n/a	0	0	0
2019.29443359375	n/a	WORD	4135515	wordpools/wasnorm_wordpool_576.txt	LTP334	ltpFR2	8	9	PACKAGE	997	n/a	n/a	0	0	0
2022.111328125	n/a	WORD	4141284	wordpools/wasnorm_wordpool_576.txt	LTP334	ltpFR2	8	9	DAUGHTER	442	n/a	n/a	0	0	0
2024.7421875	n/a	WORD	4146672	wordpools/wasnorm_wordpool_576.txt	LTP334	ltpFR2	8	9	JEANS	752	n/a	n/a	0	0	0
2027.34130859375	n/a	WORD	4151995	wordpools/wasnorm_wordpool_576.txt	LTP334	ltpFR2	8	9	LOVER	846	n/a	n/a	0	0	0
2030.1240234375	n/a	WORD	4157694	wordpools/wasnorm_wordpool_576.txt	LTP334	ltpFR2	8	9	BABY	64	n/a	n/a	0	0	0
2032.67236328125	n/a	WORD	4162913	wordpools/wasnorm_wordpool_576.txt	LTP334	ltpFR2	8	9	ONION	977	n/a	n/a	0	0	0
2035.419921875	n/a	WORD	4168540	wordpools/wasnorm_wordpool_576.txt	LTP334	ltpFR2	8	9	MOTEL	919	n/a	n/a	0	0	0
2038.06982421875	n/a	WORD	4173967	wordpools/wasnorm_wordpool_576.txt	LTP334	ltpFR2	8	9	MAILMAN	858	n/a	n/a	0	0	0
2040.65087890625	n/a	WORD	4179253	wordpools/wasnorm_wordpool_576.txt	LTP334	ltpFR2	8	9	INMATE	738	n/a	n/a	0	0	0
2043.39990234375	n/a	WORD	4184883	wordpools/wasnorm_wordpool_576.txt	LTP334	ltpFR2	8	9	POSTAGE	1113	n/a	n/a	0	0	0
2045.89892578125	n/a	WORD	4190001	wordpools/wasnorm_wordpool_576.txt	LTP334	ltpFR2	8	9	CASHIER	254	n/a	n/a	0	0	0
2048.56396484375	n/a	WORD	4195459	wordpools/wasnorm_wordpool_576.txt	LTP334	ltpFR2	8	9	DONOR	485	n/a	n/a	0	0	0
2051.23046875	n/a	WORD	4200920	wordpools/wasnorm_wordpool_576.txt	LTP334	ltpFR2	8	9	STALLION	1369	n/a	n/a	0	0	0
2054.01171875	n/a	WORD	4206616	wordpools/wasnorm_wordpool_576.txt	LTP334	ltpFR2	8	9	SADDLE	1221	n/a	n/a	0	0	0
2055.62744140625	n/a	START	4209925	n/a	LTP334	ltpFR2	8	n/a	n/a	n/a	14	n/a	n/a	n/a	n/a
2056.6435546875	n/a	DISTRACTOR	4212006	n/a	LTP334	ltpFR2	8	9	n/a	n/a	n/a	n/a	0	0	0
2056.66064453125	n/a	PROB	4212041	n/a	LTP334	ltpFR2	8	n/a	n/a	n/a	14	9	3	2	4
2058.49267578125	n/a	PROB	4215793	n/a	LTP334	ltpFR2	8	n/a	n/a	n/a	14	23	8	7	8
2060.30859375	n/a	PROB	4219512	n/a	LTP334	ltpFR2	8	n/a	n/a	n/a	14	19	4	7	8
2062.00732421875	n/a	PROB	4222991	n/a	LTP334	ltpFR2	8	n/a	n/a	n/a	14	16	3	4	9
2064.67333984375	n/a	PROB	4228451	n/a	LTP334	ltpFR2	8	n/a	n/a	n/a	14	15	6	4	5
2066.0390625	n/a	PROB	4231248	n/a	LTP334	ltpFR2	8	n/a	n/a	n/a	14	9	2	2	5
2067.38818359375	n/a	PROB	4234011	n/a	LTP334	ltpFR2	8	n/a	n/a	n/a	14	25	9	7	9
2069.68701171875	n/a	PROB	4238719	n/a	LTP334	ltpFR2	8	n/a	n/a	n/a	14	16	5	4	7
2071.88623046875	n/a	PROB	4243223	n/a	LTP334	ltpFR2	8	n/a	n/a	n/a	14	8	2	8	8
2073.60205078125	n/a	PROB	4246737	n/a	LTP334	ltpFR2	8	n/a	n/a	n/a	14	11	2	6	3
2075.701171875	n/a	PROB	4251036	n/a	LTP334	ltpFR2	8	n/a	n/a	n/a	14	16	9	5	2
2079.6259765625	n/a	STOP	4259074	n/a	LTP334	ltpFR2	8	n/a	n/a	n/a	14	n/a	n/a	n/a	n/a
2081.56591796875	n/a	REC_START	4263047	n/a	LTP334	ltpFR2	8	9	n/a	n/a	n/a	n/a	0	0	0
2082.583984375	n/a	REC_WORD	4265132	wordpools/wasnorm_wordpool_576.txt	LTP334	ltpFR2	8	9	DONOR	485	n/a	n/a	0	0	0
2083.220703125	n/a	REC_WORD	4266436	wordpools/wasnorm_wordpool_576.txt	LTP334	ltpFR2	8	9	SADDLE	1221	n/a	n/a	0	0	0
2083.966796875	n/a	REC_WORD	4267964	wordpools/wasnorm_wordpool_576.txt	LTP334	ltpFR2	8	9	STALLION	1369	n/a	n/a	0	0	0
2086.841796875	n/a	REC_WORD	4273852	wordpools/wasnorm_wordpool_576.txt	LTP334	ltpFR2	8	9	MAILMAN	858	n/a	n/a	0	0	0
2087.82666015625	n/a	REC_WORD	4275869	wordpools/wasnorm_wordpool_576.txt	LTP334	ltpFR2	8	9	POSTAGE	1113	n/a	n/a	0	0	0
2089.28857421875	n/a	REC_WORD	4278863	wordpools/wasnorm_wordpool_576.txt	LTP334	ltpFR2	8	9	INMATE	738	n/a	n/a	0	0	0
2089.9384765625	n/a	REC_WORD	4280194	wordpools/wasnorm_wordpool_576.txt	LTP334	ltpFR2	8	9	CONVICT	371	n/a	n/a	0	0	0
2093.9755859375	n/a	REC_WORD	4288462	wordpools/wasnorm_wordpool_576.txt	LTP334	ltpFR2	8	9	PARENT	1013	n/a	n/a	0	0	0
2094.90234375	n/a	REC_WORD	4290360	wordpools/wasnorm_wordpool_576.txt	LTP334	ltpFR2	8	9	SIBLING	1301	n/a	n/a	0	0	0
2095.75439453125	n/a	REC_WORD	4292105	wordpools/wasnorm_wordpool_576.txt	LTP334	ltpFR2	8	9	SISTER	1312	n/a	n/a	0	0	0
2096.8681640625	n/a	REC_WORD	4294386	wordpools/wasnorm_wordpool_576.txt	LTP334	ltpFR2	8	9	DAUGHTER	442	n/a	n/a	0	0	0
2098.94140625	n/a	REC_WORD	4298632	wordpools/wasnorm_wordpool_576.txt	LTP334	ltpFR2	8	9	LOVER	846	n/a	n/a	0	0	0
2099.9833984375	n/a	REC_WORD	4300766	wordpools/wasnorm_wordpool_576.txt	LTP334	ltpFR2	8	9	BABY	64	n/a	n/a	0	0	0
2108.1220703125	n/a	REC_WORD	4317434	wordpools/wasnorm_wordpool_576.txt	LTP334	ltpFR2	8	9	IDOL	733	n/a	n/a	0	0	0
2110.5810546875	n/a	REC_WORD	4322470	wordpools/wasnorm_wordpool_576.txt	LTP334	ltpFR2	8	9	CROWN	415	n/a	n/a	0	0	0
2112.9990234375	n/a	REC_WORD	4327422	wordpools/wasnorm_wordpool_576.txt	LTP334	ltpFR2	8	9	DRESS	495	n/a	n/a	0	0	0
2127.65966796875	n/a	REC_WORD	4357447	wordpools/wasnorm_wordpool_576.txt	LTP334	ltpFR2	8	9	RECORD	1176	n/a	n/a	0	0	0
2128.33349609375	n/a	REC_WORD	4358827	wordpools/wasnorm_wordpool_576.txt	LTP334	ltpFR2	8	9	PIANO	1057	n/a	n/a	0	0	0
2171.98828125	n/a	DISTRACTOR	4448232	n/a	LTP334	ltpFR2	8	10	n/a	n/a	n/a	n/a	0	0	0
2171.98828125	n/a	START	4448232	n/a	LTP334	ltpFR2	8	n/a	n/a	n/a	15	n/a	n/a	n/a	n/a
2172.00537109375	n/a	PROB	4448267	n/a	LTP334	ltpFR2	8	n/a	n/a	n/a	15	18	8	7	3
2173.4541015625	n/a	PROB	4451234	n/a	LTP334	ltpFR2	8	n/a	n/a	n/a	15	23	8	6	9
2175.38623046875	n/a	PROB	4455191	n/a	LTP334	ltpFR2	8	n/a	n/a	n/a	15	9	1	3	5
2176.55224609375	n/a	PROB	4457579	n/a	LTP334	ltpFR2	8	n/a	n/a	n/a	15	10	2	1	7
2178.01806640625	n/a	PROB	4460581	n/a	LTP334	ltpFR2	8	n/a	n/a	n/a	15	5	1	2	2
2179.13623046875	n/a	PROB	4462871	n/a	LTP334	ltpFR2	8	n/a	n/a	n/a	15	13	2	2	9
2180.81689453125	n/a	PROB	4466313	n/a	LTP334	ltpFR2	8	n/a	n/a	n/a	15	11	3	6	2
2182.6162109375	n/a	PROB	4469998	n/a	LTP334	ltpFR2	8	n/a	n/a	n/a	15	14	8	5	1
2184.25	n/a	PROB	4473344	n/a	LTP334	ltpFR2	8	n/a	n/a	n/a	15	14	2	3	9
2185.93212890625	n/a	PROB	4476789	n/a	LTP334	ltpFR2	8	n/a	n/a	n/a	15	14	3	2	9
2187.4140625	n/a	PROB	4479824	n/a	LTP334	ltpFR2	8	n/a	n/a	n/a	15	13	3	7	3
2188.7470703125	n/a	PROB	4482554	n/a	LTP334	ltpFR2	8	n/a	n/a	n/a	15	13	5	6	2
2190.2958984375	n/a	PROB	4485726	n/a	LTP334	ltpFR2	8	n/a	n/a	n/a	15	13	5	6	2
2191.9619140625	n/a	PROB	4489138	n/a	LTP334	ltpFR2	8	n/a	n/a	n/a	15	6	1	1	4
2193.24560546875	n/a	PROB	4491767	n/a	LTP334	ltpFR2	8	n/a	n/a	n/a	15	11	3	7	1
2194.48876953125	n/a	STOP	4494313	n/a	LTP334	ltpFR2	8	n/a	n/a	n/a	15	n/a	n/a	n/a	n/a
2196.8095703125	n/a	WORD	4499066	wordpools/wasnorm_wordpool_576.txt	LTP334	ltpFR2	8	10	FIREPLACE	570	n/a	n/a	0	0	0
2199.29150390625	n/a	WORD	4504149	wordpools/wasnorm_wordpool_576.txt	LTP334	ltpFR2	8	10	LUMBER	848	n/a	n/a	0	0	0
2201.890625	n/a	WORD	4509472	wordpools/wasnorm_wordpool_576.txt	LTP334	ltpFR2	8	10	MATTRESS	879	n/a	n/a	0	0	0
2204.439453125	n/a	WORD	4514692	wordpools/wasnorm_wordpool_576.txt	LTP334	ltpFR2	8	10	THREAD	1460	n/a	n/a	0	0	0
2206.88818359375	n/a	WORD	4519707	wordpools/wasnorm_wordpool_576.txt	LTP334	ltpFR2	8	10	GARDEN	623	n/a	n/a	0	0	0
2209.4873046875	n/a	WORD	4525030	wordpools/wasnorm_wordpool_576.txt	LTP334	ltpFR2	8	10	ACTRESS	6	n/a	n/a	0	0	0
2211.9521484375	n/a	WORD	4530078	wordpools/wasnorm_wordpool_576.txt	LTP334	ltpFR2	8	10	SLIDE	1326	n/a	n/a	0	0	0
2214.76708984375	n/a	WORD	4535843	wordpools/wasnorm_wordpool_576.txt	LTP334	ltpFR2	8	10	PADDING	999	n/a	n/a	0	0	0
2217.23388671875	n/a	WORD	4540895	wordpools/wasnorm_wordpool_576.txt	LTP334	ltpFR2	8	10	ROD	1203	n/a	n/a	0	0	0
2219.89794921875	n/a	WORD	4546351	wordpools/wasnorm_wordpool_576.txt	LTP334	ltpFR2	8	10	SPOUSE	1358	n/a	n/a	0	0	0
2222.4970703125	n/a	WORD	4551674	wordpools/wasnorm_wordpool_576.txt	LTP334	ltpFR2	8	10	STAMP	1370	n/a	n/a	0	0	0
2225.11376953125	n/a	WORD	4557033	wordpools/wasnorm_wordpool_576.txt	LTP334	ltpFR2	8	10	PERFUME	1049	n/a	n/a	0	0	0
2227.77783203125	n/a	WORD	4562489	wordpools/wasnorm_wordpool_576.txt	LTP334	ltpFR2	8	10	SNAKE	1333	n/a	n/a	0	0	0
2230.52685546875	n/a	WORD	4568119	wordpools/wasnorm_wordpool_576.txt	LTP334	ltpFR2	8	10	ACTOR	5	n/a	n/a	0	0	0
2232.99267578125	n/a	WORD	4573169	wordpools/wasnorm_wordpool_576.txt	LTP334	ltpFR2	8	10	PLAID	1080	n/a	n/a	0	0	0
2235.5078125	n/a	WORD	4578320	wordpools/wasnorm_wordpool_576.txt	LTP334	ltpFR2	8	10	SHIRT	1287	n/a	n/a	0	0	0
2238.00634765625	n/a	WORD	4583437	wordpools/wasnorm_wordpool_576.txt	LTP334	ltpFR2	8	10	ORCHID	982	n/a	n/a	0	0	0
2240.60546875	n/a	WORD	4588760	wordpools/wasnorm_wordpool_576.txt	LTP334	ltpFR2	8	10	SWAMP	1416	n/a	n/a	0	0	0
2243.38720703125	n/a	WORD	4594457	wordpools/wasnorm_wordpool_576.txt	LTP334	ltpFR2	8	10	POPCORN	1104	n/a	n/a	0	0	0
2246.0703125	n/a	WORD	4599952	wordpools/wasnorm_wordpool_576.txt	LTP334	ltpFR2	8	10	CLAMP	316	n/a	n/a	0	0	0
2248.701171875	n/a	WORD	4605340	wordpools/wasnorm_wordpool_576.txt	LTP334	ltpFR2	8	10	LADY	794	n/a	n/a	0	0	0
2251.3671875	n/a	WORD	4610800	wordpools/wasnorm_wordpool_576.txt	LTP334	ltpFR2	8	10	SANDWICH	1232	n/a	n/a	0	0	0
2254.10009765625	n/a	WORD	4616397	wordpools/wasnorm_wordpool_576.txt	LTP334	ltpFR2	8	10	FARMER	553	n/a	n/a	0	0	0
2256.9140625	n/a	WORD	4622160	wordpools/wasnorm_wordpool_576.txt	LTP334	ltpFR2	8	10	TERMITE	1451	n/a	n/a	0	0	0
2258.52978515625	n/a	START	4625469	n/a	LTP334	ltpFR2	8	n/a	n/a	n/a	16	n/a	n/a	n/a	n/a
2259.3779296875	n/a	DISTRACTOR	4627206	n/a	LTP334	ltpFR2	8	10	n/a	n/a	n/a	n/a	0	0	0
2259.3798828125	n/a	PROB	4627210	n/a	LTP334	ltpFR2	8	n/a	n/a	n/a	16	16	6	3	7
2261.2470703125	n/a	PROB	4631034	n/a	LTP334	ltpFR2	8	n/a	n/a	n/a	16	20	8	5	7
2263.47802734375	n/a	PROB	4635603	n/a	LTP334	ltpFR2	8	n/a	n/a	n/a	16	16	5	1	9
2265.2275390625	n/a	PROB	4639186	n/a	LTP334	ltpFR2	8	n/a	n/a	n/a	16	10	4	5	1
2267.02587890625	n/a	PROB	4642869	n/a	LTP334	ltpFR2	8	n/a	n/a	n/a	16	22	8	6	8
2269.7578125	n/a	PROB	4648464	n/a	LTP334	ltpFR2	8	n/a	n/a	n/a	16	13	1	4	8
2271.4404296875	n/a	PROB	4651910	n/a	LTP334	ltpFR2	8	n/a	n/a	n/a	16	15	5	9	1
2273.0576171875	n/a	PROB	4655222	n/a	LTP334	ltpFR2	8	n/a	n/a	n/a	16	22	8	9	7
2276.00439453125	n/a	PROB	4661257	n/a	LTP334	ltpFR2	8	n/a	n/a	n/a	16	18	5	9	4
2278.25341796875	n/a	PROB	4665863	n/a	LTP334	ltpFR2	8	n/a	n/a	n/a	16	20	7	4	9
2279.8193359375	n/a	PROB	4669070	n/a	LTP334	ltpFR2	8	n/a	n/a	n/a	16	14	5	4	5
2281.29736328125	n/a	STOP	4672097	n/a	LTP334	ltpFR2	8	n/a	n/a	n/a	16	n/a	n/a	n/a	n/a
2284.41845703125	n/a	REC_START	4678489	n/a	LTP334	ltpFR2	8	10	n/a	n/a	n/a	n/a	0	0	0
2284.93310546875	n/a	REC_WORD	4679543	wordpools/wasnorm_wordpool_576.txt	LTP334	ltpFR2	8	10	TERMITE	1451	n/a	n/a	0	0	0
2285.6123046875	n/a	REC_WORD	4680934	wordpools/wasnorm_wordpool_576.txt	LTP334	ltpFR2	8	10	SNAKE	1333	n/a	n/a	0	0	0
2287.63623046875	n/a	REC_WORD	4685079	wordpools/wasnorm_wordpool_576.txt	LTP334	ltpFR2	8	10	ACTRESS	6	n/a	n/a	0	0	0
2288.39111328125	n/a	REC_WORD	4686625	wordpools/wasnorm_wordpool_576.txt	LTP334	ltpFR2	8	10	ACTOR	5	n/a	n/a	0	0	0
2291.69921875	n/a	REC_WORD	4693400	wordpools/wasnorm_wordpool_576.txt	LTP334	ltpFR2	8	10	LADY	794	n/a	n/a	0	0	0
2292.80078125	n/a	REC_WORD	4695656	wordpools/wasnorm_wordpool_576.txt	LTP334	ltpFR2	8	10	PERFUME	1049	n/a	n/a	0	0	0
2294.7119140625	n/a	REC_WORD	4699570	wordpools/wasnorm_wordpool_576.txt	LTP334	ltpFR2	8	10	MATTRESS	879	n/a	n/a	0	0	0
2295.57568359375	n/a	REC_WORD	4701339	wordpools/wasnorm_wordpool_576.txt	LTP334	ltpFR2	8	10	PADDING	999	n/a	n/a	0	0	0
2297.2578125	n/a	REC_WORD	4704784	wordpools/wasnorm_wordpool_576.txt	LTP334	ltpFR2	8	10	CLAMP	316	n/a	n/a	0	0	0
2298.2490234375	n/a	REC_WORD	4706814	wordpools/wasnorm_wordpool_576.txt	LTP334	ltpFR2	8	10	SLIDE	1326	n/a	n/a	0	0	0
2299.2919921875	n/a	REC_WORD	4708950	wordpools/wasnorm_wordpool_576.txt	LTP334	ltpFR2	8	10	ROD	1203	n/a	n/a	0	0	0
2300.73583984375	n/a	REC_WORD	4711907	wordpools/wasnorm_wordpool_576.txt	LTP334	ltpFR2	8	10	SHIRT	1287	n/a	n/a	0	0	0
2304.78173828125	n/a	REC_WORD	4720193	wordpools/wasnorm_wordpool_576.txt	LTP334	ltpFR2	8	10	MARSH	874	n/a	n/a	0	0	0
2315.7333984375	n/a	REC_WORD	4742622	wordpools/wasnorm_wordpool_576.txt	LTP334	ltpFR2	8	10	FIREPLACE	570	n/a	n/a	0	0	0
2316.67822265625	n/a	REC_WORD	4744557	wordpools/wasnorm_wordpool_576.txt	LTP334	ltpFR2	8	10	LUMBER	848	n/a	n/a	0	0	0
2325.06494140625	n/a	REC_WORD	4761733	wordpools/wasnorm_wordpool_576.txt	LTP334	ltpFR2	8	10	FARMER	553	n/a	n/a	0	0	0
2337.74951171875	n/a	REC_WORD	4787711	wordpools/wasnorm_wordpool_576.txt	LTP334	ltpFR2	8	10	POPCORN	1104	n/a	n/a	0	0	0
2350.30517578125	n/a	REC_WORD	4813425	wordpools/wasnorm_wordpool_576.txt	LTP334	ltpFR2	8	10	STAMP	1370	n/a	n/a	0	0	0
2374.85791015625	n/a	WORD	4863709	wordpools/wasnorm_wordpool_576.txt	LTP334	ltpFR2	8	11	TILE	1468	n/a	n/a	0	0	0
2377.5224609375	n/a	WORD	4869166	wordpools/wasnorm_wordpool_576.txt	LTP334	ltpFR2	8	11	BARLEY	88	n/a	n/a	0	0	0
2380.17236328125	n/a	WORD	4874593	wordpools/wasnorm_wordpool_576.txt	LTP334	ltpFR2	8	11	PLIERS	1089	n/a	n/a	0	0	0
2382.853515625	n/a	WORD	4880084	wordpools/wasnorm_wordpool_576.txt	LTP334	ltpFR2	8	11	NOVEL	960	n/a	n/a	0	0	0
2385.50244140625	n/a	WORD	4885509	wordpools/wasnorm_wordpool_576.txt	LTP334	ltpFR2	8	11	MESSAGE	888	n/a	n/a	0	0	0
2388.05224609375	n/a	WORD	4890731	wordpools/wasnorm_wordpool_576.txt	LTP334	ltpFR2	8	11	FOOTBALL	591	n/a	n/a	0	0	0
2390.56640625	n/a	WORD	4895880	wordpools/wasnorm_wordpool_576.txt	LTP334	ltpFR2	8	11	OUTLAW	989	n/a	n/a	0	0	0
2393.04833984375	n/a	WORD	4900963	wordpools/wasnorm_wordpool_576.txt	LTP334	ltpFR2	8	11	ROBBER	1197	n/a	n/a	0	0	0
2395.54736328125	n/a	WORD	4906081	wordpools/wasnorm_wordpool_576.txt	LTP334	ltpFR2	8	11	MAILBOX	857	n/a	n/a	0	0	0
2398.36328125	n/a	WORD	4911848	wordpools/wasnorm_wordpool_576.txt	LTP334	ltpFR2	8	11	SNAIL	1332	n/a	n/a	0	0	0
2400.912109375	n/a	WORD	4917068	wordpools/wasnorm_wordpool_576.txt	LTP334	ltpFR2	8	11	COTTAGE	384	n/a	n/a	0	0	0
2403.7099609375	n/a	WORD	4922798	wordpools/wasnorm_wordpool_576.txt	LTP334	ltpFR2	8	11	COLONEL	348	n/a	n/a	0	0	0
2406.47607421875	n/a	WORD	4928463	wordpools/wasnorm_wordpool_576.txt	LTP334	ltpFR2	8	11	NAPKIN	937	n/a	n/a	0	0	0
2409.29052734375	n/a	WORD	4934227	wordpools/wasnorm_wordpool_576.txt	LTP334	ltpFR2	8	11	SPARROW	1347	n/a	n/a	0	0	0
2412.07373046875	n/a	WORD	4939927	wordpools/wasnorm_wordpool_576.txt	LTP334	ltpFR2	8	11	TWISTER	1530	n/a	n/a	0	0	0
2414.50439453125	n/a	WORD	4944905	wordpools/wasnorm_wordpool_576.txt	LTP334	ltpFR2	8	11	BLOCKADE	137	n/a	n/a	0	0	0
2417.2705078125	n/a	WORD	4950570	wordpools/wasnorm_wordpool_576.txt	LTP334	ltpFR2	8	11	GRAVE	658	n/a	n/a	0	0	0
2419.78564453125	n/a	WORD	4955721	wordpools/wasnorm_wordpool_576.txt	LTP334	ltpFR2	8	11	TRENCH	1503	n/a	n/a	0	0	0
2422.38427734375	n/a	WORD	4961043	wordpools/wasnorm_wordpool_576.txt	LTP334	ltpFR2	8	11	FLEET	578	n/a	n/a	0	0	0
2424.88330078125	n/a	WORD	4966161	wordpools/wasnorm_wordpool_576.txt	LTP334	ltpFR2	8	11	VAGRANT	1544	n/a	n/a	0	0	0
2427.33203125	n/a	WORD	4971176	wordpools/wasnorm_wordpool_576.txt	LTP334	ltpFR2	8	11	AGENT	10	n/a	n/a	0	0	0
2429.947265625	n/a	WORD	4976532	wordpools/wasnorm_wordpool_576.txt	LTP334	ltpFR2	8	11	RAFT	1159	n/a	n/a	0	0	0
2432.39599609375	n/a	WORD	4981547	wordpools/wasnorm_wordpool_576.txt	LTP334	ltpFR2	8	11	SPONGE	1355	n/a	n/a	0	0	0
2434.87890625	n/a	WORD	4986632	wordpools/wasnorm_wordpool_576.txt	LTP334	ltpFR2	8	11	BLUEPRINT	142	n/a	n/a	0	0	0
2436.4951171875	n/a	START	4989942	n/a	LTP334	ltpFR2	8	n/a	n/a	n/a	17	n/a	n/a	n/a	n/a
2437.64599609375	n/a	DISTRACTOR	4992299	n/a	LTP334	ltpFR2	8	11	n/a	n/a	n/a	n/a	0	0	0
2437.66015625	n/a	PROB	4992328	n/a	LTP334	ltpFR2	8	n/a	n/a	n/a	17	19	5	9	5
2439.19384765625	n/a	PROB	4995469	n/a	LTP334	ltpFR2	8	n/a	n/a	n/a	17	13	4	8	1
2440.7587890625	n/a	PROB	4998674	n/a	LTP334	ltpFR2	8	n/a	n/a	n/a	17	13	3	5	5
2441.9248046875	n/a	PROB	5001062	n/a	LTP334	ltpFR2	8	n/a	n/a	n/a	17	12	1	2	9
2443.52490234375	n/a	PROB	5004339	n/a	LTP334	ltpFR2	8	n/a	n/a	n/a	17	22	5	8	9
2446.8896484375	n/a	PROB	5011230	n/a	LTP334	ltpFR2	8	n/a	n/a	n/a	17	19	8	4	7
2448.8056640625	n/a	PROB	5015154	n/a	LTP334	ltpFR2	8	n/a	n/a	n/a	17	16	5	2	9
2451.353515625	n/a	PROB	5020372	n/a	LTP334	ltpFR2	8	n/a	n/a	n/a	17	12	7	3	2
2452.5537109375	n/a	PROB	5022830	n/a	LTP334	ltpFR2	8	n/a	n/a	n/a	17	13	1	8	4
2454.01953125	n/a	PROB	5025832	n/a	LTP334	ltpFR2	8	n/a	n/a	n/a	17	20	9	6	5
2455.96826171875	n/a	PROB	5029823	n/a	LTP334	ltpFR2	8	n/a	n/a	n/a	17	15	8	5	2
2457.9501953125	n/a	PROB	5033882	n/a	LTP334	ltpFR2	8	n/a	n/a	n/a	17	18	5	6	7
2460.17138671875	n/a	STOP	5038431	n/a	LTP334	ltpFR2	8	n/a	n/a	n/a	17	n/a	n/a	n/a	n/a
2462.31640625	n/a	REC_START	5042824	n/a	LTP334	ltpFR2	8	11	n/a	n/a	n/a	n/a	0	0	0
2463.64306640625	n/a	REC_WORD	5045541	wordpools/wasnorm_wordpool_576.txt	LTP334	ltpFR2	8	11	VAGRANT	1544	n/a	n/a	0	0	0
2464.72119140625	n/a	REC_WORD	5047749	wordpools/wasnorm_wordpool_576.txt	LTP334	ltpFR2	8	11	OUTLAW	989	n/a	n/a	0	0	0
2465.4990234375	n/a	REC_WORD	5049342	wordpools/wasnorm_wordpool_576.txt	LTP334	ltpFR2	8	11	ROBBER	1197	n/a	n/a	0	0	0
2466.1162109375	n/a	REC_WORD	5050606	wordpools/wasnorm_wordpool_576.txt	LTP334	ltpFR2	8	11	FOOTBALL	591	n/a	n/a	0	0	0
2468.36328125	n/a	REC_WORD	5055208	wordpools/wasnorm_wordpool_576.txt	LTP334	ltpFR2	8	11	SPARROW	1347	n/a	n/a	0	0	0
2469.333984375	n/a	REC_WORD	5057196	wordpools/wasnorm_wordpool_576.txt	LTP334	ltpFR2	8	11	BLUEPRINT	142	n/a	n/a	0	0	0
2470.1611328125	n/a	REC_WORD	5058890	wordpools/wasnorm_wordpool_576.txt	LTP334	ltpFR2	8	11	COTTAGE	384	n/a	n/a	0	0	0
2470.92919921875	n/a	REC_WORD	5060463	wordpools/wasnorm_wordpool_576.txt	LTP334	ltpFR2	8	11	TWISTER	1530	n/a	n/a	0	0	0
2471.60693359375	n/a	REC_WORD	5061851	wordpools/wasnorm_wordpool_576.txt	LTP334	ltpFR2	8	11	BLOCKADE	137	n/a	n/a	0	0	0
2478.16796875	n/a	REC_WORD	5075288	wordpools/wasnorm_wordpool_576.txt	LTP334	ltpFR2	8	11	AGENT	10	n/a	n/a	0	0	0
2479.9169921875	n/a	REC_WORD	5078870	wordpools/wasnorm_wordpool_576.txt	LTP334	ltpFR2	8	11	TILE	1468	n/a	n/a	0	0	0
2480.626953125	n/a	REC_WORD	5080324	wordpools/wasnorm_wordpool_576.txt	LTP334	ltpFR2	8	11	PLIERS	1089	n/a	n/a	0	0	0
2492.33935546875	n/a	REC_WORD	5104311	wordpools/wasnorm_wordpool_576.txt	LTP334	ltpFR2	8	11	TRENCH	1503	n/a	n/a	0	0	0
2493.1455078125	n/a	REC_WORD	5105962	wordpools/wasnorm_wordpool_576.txt	LTP334	ltpFR2	8	11	GRAVE	658	n/a	n/a	0	0	0
2495.7861328125	n/a	REC_WORD	5111370	wordpools/wasnorm_wordpool_576.txt	LTP334	ltpFR2	8	11	TWISTER	1530	n/a	n/a	0	0	0
2508.71923828125	n/a	REC_WORD	5137857	wordpools/wasnorm_wordpool_576.txt	LTP334	ltpFR2	8	11	SNAIL	1332	n/a	n/a	0	0	0
2511.57470703125	n/a	REC_WORD	5143705	wordpools/wasnorm_wordpool_576.txt	LTP334	ltpFR2	8	11	NAPKIN	937	n/a	n/a	0	0	0
2513.02099609375	n/a	REC_WORD	5146667	wordpools/wasnorm_wordpool_576.txt	LTP334	ltpFR2	8	11	SPONGE	1355	n/a	n/a	0	0	0
2513.89697265625	n/a	REC_WORD	5148461	wordpools/wasnorm_wordpool_576.txt	LTP334	ltpFR2	8	11	RAFT	1159	n/a	n/a	0	0	0
2514.49169921875	n/a	REC_WORD	5149679	wordpools/wasnorm_wordpool_576.txt	LTP334	ltpFR2	8	11	FLEET	578	n/a	n/a	0	0	0
2519.55078125	n/a	REC_WORD	5160040	wordpools/wasnorm_wordpool_576.txt	LTP334	ltpFR2	8	11	VAGRANT	1544	n/a	n/a	0	0	0
2527.7294921875	n/a	REC_WORD	5176790	wordpools/wasnorm_wordpool_576.txt	LTP334	ltpFR2	8	11	BARLEY	88	n/a	n/a	0	0	0
2552.7548828125	n/a	WORD	5228042	wordpools/wasnorm_wordpool_576.txt	LTP334	ltpFR2	8	12	HOOK	715	n/a	n/a	0	0	0
2555.28759765625	n/a	WORD	5233229	wordpools/wasnorm_wordpool_576.txt	LTP334	ltpFR2	8	12	WIDOW	1608	n/a	n/a	0	0	0
2557.75244140625	n/a	WORD	5238277	wordpools/wasnorm_wordpool_576.txt	LTP334	ltpFR2	8	12	LIZARD	834	n/a	n/a	0	0	0
2560.3515625	n/a	WORD	5243600	wordpools/wasnorm_wordpool_576.txt	LTP334	ltpFR2	8	12	DAISY	435	n/a	n/a	0	0	0
2563.017578125	n/a	WORD	5249060	wordpools/wasnorm_wordpool_576.txt	LTP334	ltpFR2	8	12	BACON	67	n/a	n/a	0	0	0
2565.732421875	n/a	WORD	5254620	wordpools/wasnorm_wordpool_576.txt	LTP334	ltpFR2	8	12	OMELET	976	n/a	n/a	0	0	0
2568.28125	n/a	WORD	5259840	wordpools/wasnorm_wordpool_576.txt	LTP334	ltpFR2	8	12	NOMAD	955	n/a	n/a	0	0	0
2570.76318359375	n/a	WORD	5264923	wordpools/wasnorm_wordpool_576.txt	LTP334	ltpFR2	8	12	ISLAND	745	n/a	n/a	0	0	0
2573.5283203125	n/a	WORD	5270586	wordpools/wasnorm_wordpool_576.txt	LTP334	ltpFR2	8	12	COIN	343	n/a	n/a	0	0	0
2576.3271484375	n/a	WORD	5276318	wordpools/wasnorm_wordpool_576.txt	LTP334	ltpFR2	8	12	OFFICE	972	n/a	n/a	0	0	0
2579.06005859375	n/a	WORD	5281915	wordpools/wasnorm_wordpool_576.txt	LTP334	ltpFR2	8	12	SERVER	1272	n/a	n/a	0	0	0
2581.5078125	n/a	WORD	5286928	wordpools/wasnorm_wordpool_576.txt	LTP334	ltpFR2	8	12	COOKBOOK	373	n/a	n/a	0	0	0
2584.0068359375	n/a	WORD	5292046	wordpools/wasnorm_wordpool_576.txt	LTP334	ltpFR2	8	12	POISON	1096	n/a	n/a	0	0	0
2586.73876953125	n/a	WORD	5297641	wordpools/wasnorm_wordpool_576.txt	LTP334	ltpFR2	8	12	TYPIST	1532	n/a	n/a	0	0	0
2589.27099609375	n/a	WORD	5302827	wordpools/wasnorm_wordpool_576.txt	LTP334	ltpFR2	8	12	PADDLE	1000	n/a	n/a	0	0	0
2591.919921875	n/a	WORD	5308252	wordpools/wasnorm_wordpool_576.txt	LTP334	ltpFR2	8	12	POET	1095	n/a	n/a	0	0	0
2594.634765625	n/a	WORD	5313812	wordpools/wasnorm_wordpool_576.txt	LTP334	ltpFR2	8	12	ATLAS	53	n/a	n/a	0	0	0
2597.16845703125	n/a	WORD	5319001	wordpools/wasnorm_wordpool_576.txt	LTP334	ltpFR2	8	12	MISTER	901	n/a	n/a	0	0	0
2599.66650390625	n/a	WORD	5324117	wordpools/wasnorm_wordpool_576.txt	LTP334	ltpFR2	8	12	BROOK	177	n/a	n/a	0	0	0
2602.4482421875	n/a	WORD	5329814	wordpools/wasnorm_wordpool_576.txt	LTP334	ltpFR2	8	12	BEEF	113	n/a	n/a	0	0	0
2605.09716796875	n/a	WORD	5335239	wordpools/wasnorm_wordpool_576.txt	LTP334	ltpFR2	8	12	PILOT	1070	n/a	n/a	0	0	0
2607.662109375	n/a	WORD	5340492	wordpools/wasnorm_wordpool_576.txt	LTP334	ltpFR2	8	12	DOUGHNUT	490	n/a	n/a	0	0	0
2610.34423828125	n/a	WORD	5345985	wordpools/wasnorm_wordpool_576.txt	LTP334	ltpFR2	8	12	BOUQUET	157	n/a	n/a	0	0	0
2612.9599609375	n/a	WORD	5351342	wordpools/wasnorm_wordpool_576.txt	LTP334	ltpFR2	8	12	SUNSET	1408	n/a	n/a	0	0	0
2614.576171875	n/a	START	5354652	n/a	LTP334	ltpFR2	8	n/a	n/a	n/a	18	n/a	n/a	n/a	n/a
2615.70703125	n/a	DISTRACTOR	5356968	n/a	LTP334	ltpFR2	8	12	n/a	n/a	n/a	n/a	0	0	0
2615.72509765625	n/a	PROB	5357005	n/a	LTP334	ltpFR2	8	n/a	n/a	n/a	18	15	5	6	4
2617.47412109375	n/a	PROB	5360587	n/a	LTP334	ltpFR2	8	n/a	n/a	n/a	18	21	9	5	7
2619.2080078125	n/a	PROB	5364138	n/a	LTP334	ltpFR2	8	n/a	n/a	n/a	18	15	2	8	5
2620.48876953125	n/a	PROB	5366761	n/a	LTP334	ltpFR2	8	n/a	n/a	n/a	18	26	8	9	9
2622.1728515625	n/a	PROB	5370210	n/a	LTP334	ltpFR2	8	n/a	n/a	n/a	18	17	1	8	8
2623.78759765625	n/a	PROB	5373517	n/a	LTP334	ltpFR2	8	n/a	n/a	n/a	18	13	1	4	8
2625.171875	n/a	PROB	5376352	n/a	LTP334	ltpFR2	8	n/a	n/a	n/a	18	8	3	1	4
2626.7197265625	n/a	PROB	5379522	n/a	LTP334	ltpFR2	8	n/a	n/a	n/a	18	22	7	8	7
2630.3515625	n/a	PROB	5386960	n/a	LTP334	ltpFR2	8	n/a	n/a	n/a	18	16	4	3	9
2631.68359375	n/a	PROB	5389688	n/a	LTP334	ltpFR2	8	n/a	n/a	n/a	18	16	4	8	4
2633.11767578125	n/a	PROB	5392625	n/a	LTP334	ltpFR2	8	n/a	n/a	n/a	18	19	6	5	8
2634.8994140625	n/a	PROB	5396274	n/a	LTP334	ltpFR2	8	n/a	n/a	n/a	18	23	8	8	7
2636.9482421875	n/a	PROB	5400470	n/a	LTP334	ltpFR2	8	n/a	n/a	n/a	18	11	1	9	1
2638.00244140625	n/a	STOP	5402629	n/a	LTP334	ltpFR2	8	n/a	n/a	n/a	18	n/a	n/a	n/a	n/a
2640.36328125	n/a	REC_START	5407464	n/a	LTP334	ltpFR2	8	12	n/a	n/a	n/a	n/a	0	0	0
2644.25634765625	n/a	REC_WORD	5415437	wordpools/wasnorm_wordpool_576.txt	LTP334	ltpFR2	8	12	SUNSET	1408	n/a	n/a	0	0	0
2645.08544921875	n/a	REC_WORD	5417135	wordpools/wasnorm_wordpool_576.txt	LTP334	ltpFR2	8	12	BOUQUET	157	n/a	n/a	0	0	0
2646.01611328125	n/a	REC_WORD	5419041	wordpools/wasnorm_wordpool_576.txt	LTP334	ltpFR2	8	12	BROOK	177	n/a	n/a	0	0	0
2646.71337890625	n/a	REC_WORD	5420469	wordpools/wasnorm_wordpool_576.txt	LTP334	ltpFR2	8	12	PADDLE	1000	n/a	n/a	0	0	0
2647.501953125	n/a	REC_WORD	5422084	wordpools/wasnorm_wordpool_576.txt	LTP334	ltpFR2	8	12	ISLAND	745	n/a	n/a	0	0	0
2653.0009765625	n/a	REC_WORD	5433346	wordpools/wasnorm_wordpool_576.txt	LTP334	ltpFR2	8	12	SERVER	1272	n/a	n/a	0	0	0
2653.85986328125	n/a	REC_WORD	5435105	wordpools/wasnorm_wordpool_576.txt	LTP334	ltpFR2	8	12	WIDOW	1608	n/a	n/a	0	0	0
2655.6689453125	n/a	REC_WORD	5438810	wordpools/wasnorm_wordpool_576.txt	LTP334	ltpFR2	8	12	POET	1095	n/a	n/a	0	0	0
2658.86767578125	n/a	REC_WORD	5445361	wordpools/wasnorm_wordpool_576.txt	LTP334	ltpFR2	8	12	HOOK	715	n/a	n/a	0	0	0
2661.751953125	n/a	REC_WORD	5451268	wordpools/wasnorm_wordpool_576.txt	LTP334	ltpFR2	8	12	OMELET	976	n/a	n/a	0	0	0
2663.376953125	n/a	REC_WORD	5454596	wordpools/wasnorm_wordpool_576.txt	LTP334	ltpFR2	8	12	BACON	67	n/a	n/a	0	0	0
2664.11572265625	n/a	REC_WORD	5456109	wordpools/wasnorm_wordpool_576.txt	LTP334	ltpFR2	8	12	BEEF	113	n/a	n/a	0	0	0
2673.1923828125	n/a	REC_WORD	5474698	wordpools/wasnorm_wordpool_576.txt	LTP334	ltpFR2	8	12	DAISY	435	n/a	n/a	0	0	0
2677.783203125	n/a	REC_WORD	5484100	wordpools/wasnorm_wordpool_576.txt	LTP334	ltpFR2	8	12	NOMAD	955	n/a	n/a	0	0	0
2680.7041015625	n/a	REC_WORD	5490082	wordpools/wasnorm_wordpool_576.txt	LTP334	ltpFR2	8	12	POISON	1096	n/a	n/a	0	0	0
2730.81982421875	n/a	WORD	5592719	wordpools/wasnorm_wordpool_576.txt	LTP334	ltpFR2	8	13	EGYPT	519	n/a	n/a	0	0	0
2733.53466796875	n/a	WORD	5598279	wordpools/wasnorm_wordpool_576.txt	LTP334	ltpFR2	8	13	GIFT	635	n/a	n/a	0	0	0
2736.0166015625	n/a	WORD	5603362	wordpools/wasnorm_wordpool_576.txt	LTP334	ltpFR2	8	13	PENGUIN	1044	n/a	n/a	0	0	0
2738.599609375	n/a	WORD	5608652	wordpools/wasnorm_wordpool_576.txt	LTP334	ltpFR2	8	13	PLASTER	1085	n/a	n/a	0	0	0
2741.08251953125	n/a	WORD	5613737	wordpools/wasnorm_wordpool_576.txt	LTP334	ltpFR2	8	13	SALT	1229	n/a	n/a	0	0	0
2743.63037109375	n/a	WORD	5618955	wordpools/wasnorm_wordpool_576.txt	LTP334	ltpFR2	8	13	BUCKET	184	n/a	n/a	0	0	0
2746.0634765625	n/a	WORD	5623938	wordpools/wasnorm_wordpool_576.txt	LTP334	ltpFR2	8	13	FIREMAN	569	n/a	n/a	0	0	0
2748.77734375	n/a	WORD	5629496	wordpools/wasnorm_wordpool_576.txt	LTP334	ltpFR2	8	13	DRILL	497	n/a	n/a	0	0	0
2751.42626953125	n/a	WORD	5634921	wordpools/wasnorm_wordpool_576.txt	LTP334	ltpFR2	8	13	GARBAGE	622	n/a	n/a	0	0	0
2753.9921875	n/a	WORD	5640176	wordpools/wasnorm_wordpool_576.txt	LTP334	ltpFR2	8	13	GHETTO	633	n/a	n/a	0	0	0
2756.5400390625	n/a	WORD	5645394	wordpools/wasnorm_wordpool_576.txt	LTP334	ltpFR2	8	13	RATTLE	1170	n/a	n/a	0	0	0
2759.255859375	n/a	WORD	5650956	wordpools/wasnorm_wordpool_576.txt	LTP334	ltpFR2	8	13	PEPPER	1047	n/a	n/a	0	0	0
2762.0380859375	n/a	WORD	5656654	wordpools/wasnorm_wordpool_576.txt	LTP334	ltpFR2	8	13	CEILING	265	n/a	n/a	0	0	0
2764.703125	n/a	WORD	5662112	wordpools/wasnorm_wordpool_576.txt	LTP334	ltpFR2	8	13	PUDDING	1139	n/a	n/a	0	0	0
2767.501953125	n/a	WORD	5667844	wordpools/wasnorm_wordpool_576.txt	LTP334	ltpFR2	8	13	CUSTARD	429	n/a	n/a	0	0	0
2769.95068359375	n/a	WORD	5672859	wordpools/wasnorm_wordpool_576.txt	LTP334	ltpFR2	8	13	MARKER	870	n/a	n/a	0	0	0
2772.7158203125	n/a	WORD	5678522	wordpools/wasnorm_wordpool_576.txt	LTP334	ltpFR2	8	13	TOMBSTONE	1478	n/a	n/a	0	0	0
2775.2646484375	n/a	WORD	5683742	wordpools/wasnorm_wordpool_576.txt	LTP334	ltpFR2	8	13	SWORD	1423	n/a	n/a	0	0	0
2777.86376953125	n/a	WORD	5689065	wordpools/wasnorm_wordpool_576.txt	LTP334	ltpFR2	8	13	TURNIP	1521	n/a	n/a	0	0	0
2780.49560546875	n/a	WORD	5694455	wordpools/wasnorm_wordpool_576.txt	LTP334	ltpFR2	8	13	SHORTCAKE	1292	n/a	n/a	0	0	0
2783.0283203125	n/a	WORD	5699642	wordpools/wasnorm_wordpool_576.txt	LTP334	ltpFR2	8	13	IGLOO	734	n/a	n/a	0	0	0
2785.5263671875	n/a	WORD	5704758	wordpools/wasnorm_wordpool_576.txt	LTP334	ltpFR2	8	13	PECAN	1036	n/a	n/a	0	0	0
2788.3583984375	n/a	WORD	5710558	wordpools/wasnorm_wordpool_576.txt	LTP334	ltpFR2	8	13	CREATURE	403	n/a	n/a	0	0	0
2790.95703125	n/a	WORD	5715880	wordpools/wasnorm_wordpool_576.txt	LTP334	ltpFR2	8	13	FLASK	576	n/a	n/a	0	0	0
2792.5732421875	n/a	START	5719190	n/a	LTP334	ltpFR2	8	n/a	n/a	n/a	19	n/a	n/a	n/a	n/a
2793.740234375	n/a	DISTRACTOR	5721580	n/a	LTP334	ltpFR2	8	13	n/a	n/a	n/a	n/a	0	0	0
2793.75634765625	n/a	PROB	5721613	n/a	LTP334	ltpFR2	8	n/a	n/a	n/a	19	9	3	3	3
2795.02197265625	n/a	PROB	5724205	n/a	LTP334	ltpFR2	8	n/a	n/a	n/a	19	13	9	2	2
2796.587890625	n/a	PROB	5727412	n/a	LTP334	ltpFR2	8	n/a	n/a	n/a	19	11	8	1	2
2798.00390625	n/a	PROB	5730312	n/a	LTP334	ltpFR2	8	n/a	n/a	n/a	19	16	6	8	2
2799.38720703125	n/a	PROB	5733145	n/a	LTP334	ltpFR2	8	n/a	n/a	n/a	19	17	1	8	8
2801.13671875	n/a	PROB	5736728	n/a	LTP334	ltpFR2	8	n/a	n/a	n/a	19	16	2	7	7
2802.5849609375	n/a	PROB	5739694	n/a	LTP334	ltpFR2	8	n/a	n/a	n/a	19	14	4	9	1
2804.1689453125	n/a	PROB	5742938	n/a	LTP334	ltpFR2	8	n/a	n/a	n/a	19	13	5	7	1
2806.16796875	n/a	PROB	5747032	n/a	LTP334	ltpFR2	8	n/a	n/a	n/a	19	26	9	8	9
2808.1337890625	n/a	PROB	5751058	n/a	LTP334	ltpFR2	8	n/a	n/a	n/a	19	10	2	4	4
2809.431640625	n/a	PROB	5753716	n/a	LTP334	ltpFR2	8	n/a	n/a	n/a	19	18	9	7	2
2811.1318359375	n/a	PROB	5757198	n/a	LTP334	ltpFR2	8	n/a	n/a	n/a	19	11	1	7	3
2812.34765625	n/a	PROB	5759688	n/a	LTP334	ltpFR2	8	n/a	n/a	n/a	19	15	4	7	4
2813.79638671875	n/a	PROB	5762655	n/a	LTP334	ltpFR2	8	n/a	n/a	n/a	19	15	8	3	4
2815.1806640625	n/a	STOP	5765490	n/a	LTP334	ltpFR2	8	n/a	n/a	n/a	19	n/a	n/a	n/a	n/a
2818.41162109375	n/a	REC_START	5772107	n/a	LTP334	ltpFR2	8	13	n/a	n/a	n/a	n/a	0	0	0
2820.41455078125	n/a	REC_WORD	5776209	wordpools/wasnorm_wordpool_576.txt	LTP334	ltpFR2	8	13	IGLOO	734	n/a	n/a	0	0	0
2829.27197265625	n/a	REC_WORD	5794349	wordpools/wasnorm_wordpool_576.txt	LTP334	ltpFR2	8	13	RATTLE	1170	n/a	n/a	0	0	0
2833.89208984375	n/a	REC_WORD	5803811	wordpools/wasnorm_wordpool_576.txt	LTP334	ltpFR2	8	13	EGYPT	519	n/a	n/a	0	0	0
2834.673828125	n/a	REC_WORD	5805412	wordpools/wasnorm_wordpool_576.txt	LTP334	ltpFR2	8	13	GIFT	635	n/a	n/a	0	0	0
2836.744140625	n/a	REC_WORD	5809652	wordpools/wasnorm_wordpool_576.txt	LTP334	ltpFR2	8	13	PENGUIN	1044	n/a	n/a	0	0	0
2837.43310546875	n/a	REC_WORD	5811063	wordpools/wasnorm_wordpool_576.txt	LTP334	ltpFR2	8	13	SALT	1229	n/a	n/a	0	0	0
2838.2578125	n/a	REC_WORD	5812752	wordpools/wasnorm_wordpool_576.txt	LTP334	ltpFR2	8	13	PEPPER	1047	n/a	n/a	0	0	0
2851.42041015625	n/a	REC_WORD	5839709	wordpools/wasnorm_wordpool_576.txt	LTP334	ltpFR2	8	13	FIREMAN	569	n/a	n/a	0	0	0
2852.07275390625	n/a	REC_WORD	5841045	wordpools/wasnorm_wordpool_576.txt	LTP334	ltpFR2	8	13	DRILL	497	n/a	n/a	0	0	0
2853.5537109375	n/a	REC_WORD	5844078	wordpools/wasnorm_wordpool_576.txt	LTP334	ltpFR2	8	13	TOMBSTONE	1478	n/a	n/a	0	0	0
2854.25244140625	n/a	REC_WORD	5845509	wordpools/wasnorm_wordpool_576.txt	LTP334	ltpFR2	8	13	MARKER	870	n/a	n/a	0	0	0
2861.59423828125	n/a	REC_WORD	5860545	wordpools/wasnorm_wordpool_576.txt	LTP334	ltpFR2	8	13	BUCKET	184	n/a	n/a	0	0	0
2864.15234375	n/a	REC_WORD	5865784	wordpools/wasnorm_wordpool_576.txt	LTP334	ltpFR2	8	13	PUDDING	1139	n/a	n/a	0	0	0
2864.5732421875	n/a	REC_WORD	5866646	wordpools/wasnorm_wordpool_576.txt	LTP334	ltpFR2	8	13	CUSTARD	429	n/a	n/a	0	0	0
2871.5927734375	n/a	REC_WORD	5881022	wordpools/wasnorm_wordpool_576.txt	LTP334	ltpFR2	8	13	IGLOO	734	n/a	n/a	0	0	0
2908.85107421875	n/a	WORD	5957327	wordpools/wasnorm_wordpool_576.txt	LTP334	ltpFR2	8	14	BODY	145	n/a	n/a	0	0	0
2911.53271484375	n/a	WORD	5962819	wordpools/wasnorm_wordpool_576.txt	LTP334	ltpFR2	8	14	BREAST	171	n/a	n/a	0	0	0
2914.31494140625	n/a	WORD	5968517	wordpools/wasnorm_wordpool_576.txt	LTP334	ltpFR2	8	14	CHURCH	307	n/a	n/a	0	0	0
2916.91357421875	n/a	WORD	5973839	wordpools/wasnorm_wordpool_576.txt	LTP334	ltpFR2	8	14	SCULPTURE	1258	n/a	n/a	0	0	0
2919.44580078125	n/a	WORD	5979025	wordpools/wasnorm_wordpool_576.txt	LTP334	ltpFR2	8	14	PLATE	1086	n/a	n/a	0	0	0
2921.99462890625	n/a	WORD	5984245	wordpools/wasnorm_wordpool_576.txt	LTP334	ltpFR2	8	14	BANQUET	86	n/a	n/a	0	0	0
2924.7763671875	n/a	WORD	5989942	wordpools/wasnorm_wordpool_576.txt	LTP334	ltpFR2	8	14	BOX	159	n/a	n/a	0	0	0
2927.4755859375	n/a	WORD	5995470	wordpools/wasnorm_wordpool_576.txt	LTP334	ltpFR2	8	14	TOASTER	1472	n/a	n/a	0	0	0
2930.2734375	n/a	WORD	6001200	wordpools/wasnorm_wordpool_576.txt	LTP334	ltpFR2	8	14	DRAWING	494	n/a	n/a	0	0	0
2932.9560546875	n/a	WORD	6006694	wordpools/wasnorm_wordpool_576.txt	LTP334	ltpFR2	8	14	PLAZA	1088	n/a	n/a	0	0	0
2935.55419921875	n/a	WORD	6012015	wordpools/wasnorm_wordpool_576.txt	LTP334	ltpFR2	8	14	COOK	372	n/a	n/a	0	0	0
2937.9873046875	n/a	WORD	6016998	wordpools/wasnorm_wordpool_576.txt	LTP334	ltpFR2	8	14	SKILLET	1317	n/a	n/a	0	0	0
2940.56884765625	n/a	WORD	6022285	wordpools/wasnorm_wordpool_576.txt	LTP334	ltpFR2	8	14	BIKE	125	n/a	n/a	0	0	0
2943.30078125	n/a	WORD	6027880	wordpools/wasnorm_wordpool_576.txt	LTP334	ltpFR2	8	14	LAMP	798	n/a	n/a	0	0	0
2945.7998046875	n/a	WORD	6032998	wordpools/wasnorm_wordpool_576.txt	LTP334	ltpFR2	8	14	GUARD	667	n/a	n/a	0	0	0
2948.28173828125	n/a	WORD	6038081	wordpools/wasnorm_wordpool_576.txt	LTP334	ltpFR2	8	14	ELBOW	520	n/a	n/a	0	0	0
2950.98095703125	n/a	WORD	6043609	wordpools/wasnorm_wordpool_576.txt	LTP334	ltpFR2	8	14	FRAGRANCE	599	n/a	n/a	0	0	0
2953.5126953125	n/a	WORD	6048794	wordpools/wasnorm_wordpool_576.txt	LTP334	ltpFR2	8	14	DUST	508	n/a	n/a	0	0	0
2956.1455078125	n/a	WORD	6054186	wordpools/wasnorm_wordpool_576.txt	LTP334	ltpFR2	8	14	GLOVE	642	n/a	n/a	0	0	0
2958.62646484375	n/a	WORD	6059267	wordpools/wasnorm_wordpool_576.txt	LTP334	ltpFR2	8	14	REPORT	1184	n/a	n/a	0	0	0
2961.193359375	n/a	WORD	6064524	wordpools/wasnorm_wordpool_576.txt	LTP334	ltpFR2	8	14	LUNCH	849	n/a	n/a	0	0	0
2963.94140625	n/a	WORD	6070152	wordpools/wasnorm_wordpool_576.txt	LTP334	ltpFR2	8	14	KITCHEN	778	n/a	n/a	0	0	0
2966.75634765625	n/a	WORD	6075917	wordpools/wasnorm_wordpool_576.txt	LTP334	ltpFR2	8	14	BRACES	164	n/a	n/a	0	0	0
2969.271484375	n/a	WORD	6081068	wordpools/wasnorm_wordpool_576.txt	LTP334	ltpFR2	8	14	OX	994	n/a	n/a	0	0	0
2970.88818359375	n/a	START	6084379	n/a	LTP334	ltpFR2	8	n/a	n/a	n/a	20	n/a	n/a	n/a	n/a
2972.04736328125	n/a	DISTRACTOR	6086753	n/a	LTP334	ltpFR2	8	14	n/a	n/a	n/a	n/a	0	0	0
2972.05419921875	n/a	PROB	6086767	n/a	LTP334	ltpFR2	8	n/a	n/a	n/a	20	16	4	5	7
2973.96923828125	n/a	PROB	6090689	n/a	LTP334	ltpFR2	8	n/a	n/a	n/a	20	11	2	3	6
2975.78515625	n/a	PROB	6094408	n/a	LTP334	ltpFR2	8	n/a	n/a	n/a	20	17	7	6	4
2977.2021484375	n/a	PROB	6097310	n/a	LTP334	ltpFR2	8	n/a	n/a	n/a	20	11	1	2	8
2978.3837890625	n/a	PROB	6099730	n/a	LTP334	ltpFR2	8	n/a	n/a	n/a	20	12	4	4	4
2980.1171875	n/a	PROB	6103280	n/a	LTP334	ltpFR2	8	n/a	n/a	n/a	20	10	1	6	3
2981.28271484375	n/a	PROB	6105667	n/a	LTP334	ltpFR2	8	n/a	n/a	n/a	20	18	9	1	8
2982.61474609375	n/a	PROB	6108395	n/a	LTP334	ltpFR2	8	n/a	n/a	n/a	20	12	8	3	1
2983.7978515625	n/a	PROB	6110818	n/a	LTP334	ltpFR2	8	n/a	n/a	n/a	20	118	3	6	9
2985.4306640625	n/a	PROB	6114162	n/a	LTP334	ltpFR2	8	n/a	n/a	n/a	20	61	6	8	2
2988.3125	n/a	PROB	6120064	n/a	LTP334	ltpFR2	8	n/a	n/a	n/a	20	13	8	2	3
2990.095703125	n/a	PROB	6123716	n/a	LTP334	ltpFR2	8	n/a	n/a	n/a	20	11	3	3	5
2991.57763671875	n/a	PROB	6126751	n/a	LTP334	ltpFR2	8	n/a	n/a	n/a	20	13	1	4	8
2992.9267578125	n/a	PROB	6129514	n/a	LTP334	ltpFR2	8	n/a	n/a	n/a	20	16	5	6	5
2994.21240234375	n/a	STOP	6132147	n/a	LTP334	ltpFR2	8	n/a	n/a	n/a	20	n/a	n/a	n/a	n/a
2996.6923828125	n/a	REC_START	6137226	n/a	LTP334	ltpFR2	8	14	n/a	n/a	n/a	n/a	0	0	0
2997.646484375	n/a	REC_WORD	6139180	wordpools/wasnorm_wordpool_576.txt	LTP334	ltpFR2	8	14	OX	994	n/a	n/a	0	0	0
2998.318359375	n/a	REC_WORD	6140556	wordpools/wasnorm_wordpool_576.txt	LTP334	ltpFR2	8	14	REPORT	1184	n/a	n/a	0	0	0
2999.76123046875	n/a	REC_WORD	6143511	wordpools/wasnorm_wordpool_576.txt	LTP334	ltpFR2	8	14	BODY	145	n/a	n/a	0	0	0
3000.45263671875	n/a	REC_WORD	6144927	wordpools/wasnorm_wordpool_576.txt	LTP334	ltpFR2	8	14	ELBOW	520	n/a	n/a	0	0	0
3000.96826171875	n/a	REC_WORD	6145983	wordpools/wasnorm_wordpool_576.txt	LTP334	ltpFR2	8	14	FRAGRANCE	599	n/a	n/a	0	0	0
3008.76611328125	n/a	REC_WORD	6161953	wordpools/wasnorm_wordpool_576.txt	LTP334	ltpFR2	8	14	BANQUET	86	n/a	n/a	0	0	0
3009.49609375	n/a	REC_WORD	6163448	wordpools/wasnorm_wordpool_576.txt	LTP334	ltpFR2	8	14	SKILLET	1317	n/a	n/a	0	0	0
3010.5341796875	n/a	REC_WORD	6165574	wordpools/wasnorm_wordpool_576.txt	LTP334	ltpFR2	8	14	COOK	372	n/a	n/a	0	0	0
3011.34130859375	n/a	REC_WORD	6167227	wordpools/wasnorm_wordpool_576.txt	LTP334	ltpFR2	8	14	KITCHEN	778	n/a	n/a	0	0	0
3050.44189453125	n/a	REC_WORD	6247305	wordpools/wasnorm_wordpool_576.txt	LTP334	ltpFR2	8	14	AUTHOR	61	n/a	n/a	0	0	0
3087.1162109375	n/a	DISTRACTOR	6322414	n/a	LTP334	ltpFR2	8	15	n/a	n/a	n/a	n/a	0	0	0
3087.1162109375	n/a	START	6322414	n/a	LTP334	ltpFR2	8	n/a	n/a	n/a	21	n/a	n/a	n/a	n/a
3087.1328125	n/a	PROB	6322448	n/a	LTP334	ltpFR2	8	n/a	n/a	n/a	21	17	8	7	2
3089.36376953125	n/a	PROB	6327017	n/a	LTP334	ltpFR2	8	n/a	n/a	n/a	21	16	7	5	3
3091.19677734375	n/a	PROB	6330771	n/a	LTP334	ltpFR2	8	n/a	n/a	n/a	21	22	8	8	6
3093.11279296875	n/a	PROB	6334695	n/a	LTP334	ltpFR2	8	n/a	n/a	n/a	21	16	4	4	8
3095.06201171875	n/a	PROB	6338687	n/a	LTP334	ltpFR2	8	n/a	n/a	n/a	21	5	1	1	3
3096.16162109375	n/a	PROB	6340939	n/a	LTP334	ltpFR2	8	n/a	n/a	n/a	21	16	3	6	7
3097.60986328125	n/a	PROB	6343905	n/a	LTP334	ltpFR2	8	n/a	n/a	n/a	21	11	1	8	2
3098.87548828125	n/a	PROB	6346497	n/a	LTP334	ltpFR2	8	n/a	n/a	n/a	21	13	2	9	2
3100.15966796875	n/a	PROB	6349127	n/a	LTP334	ltpFR2	8	n/a	n/a	n/a	21	25	8	9	8
3101.95751953125	n/a	PROB	6352809	n/a	LTP334	ltpFR2	8	n/a	n/a	n/a	21	20	9	3	8
3103.62353515625	n/a	PROB	6356221	n/a	LTP334	ltpFR2	8	n/a	n/a	n/a	21	14	1	5	8
3105.65673828125	n/a	PROB	6360385	n/a	LTP334	ltpFR2	8	n/a	n/a	n/a	21	9	2	5	2
3106.92236328125	n/a	PROB	6362977	n/a	LTP334	ltpFR2	8	n/a	n/a	n/a	21	18	8	5	5
3108.25439453125	n/a	PROB	6365705	n/a	LTP334	ltpFR2	8	n/a	n/a	n/a	21	16	1	7	8
3109.6923828125	n/a	STOP	6368650	n/a	LTP334	ltpFR2	8	n/a	n/a	n/a	21	n/a	n/a	n/a	n/a
3112.08740234375	n/a	WORD	6373555	wordpools/wasnorm_wordpool_576.txt	LTP334	ltpFR2	8	15	SHOULDER	1294	n/a	n/a	0	0	0
3114.75146484375	n/a	WORD	6379011	wordpools/wasnorm_wordpool_576.txt	LTP334	ltpFR2	8	15	BEAKER	104	n/a	n/a	0	0	0
3117.26708984375	n/a	WORD	6384163	wordpools/wasnorm_wordpool_576.txt	LTP334	ltpFR2	8	15	NEUTRON	947	n/a	n/a	0	0	0
3119.98193359375	n/a	WORD	6389723	wordpools/wasnorm_wordpool_576.txt	LTP334	ltpFR2	8	15	ZEBRA	1635	n/a	n/a	0	0	0
3122.5478515625	n/a	WORD	6394978	wordpools/wasnorm_wordpool_576.txt	LTP334	ltpFR2	8	15	CLIMBER	323	n/a	n/a	0	0	0
3125.03076171875	n/a	WORD	6400063	wordpools/wasnorm_wordpool_576.txt	LTP334	ltpFR2	8	15	COCKTAIL	338	n/a	n/a	0	0	0
3127.76171875	n/a	WORD	6405656	wordpools/wasnorm_wordpool_576.txt	LTP334	ltpFR2	8	15	PREACHER	1119	n/a	n/a	0	0	0
3130.36083984375	n/a	WORD	6410979	wordpools/wasnorm_wordpool_576.txt	LTP334	ltpFR2	8	15	ICING	732	n/a	n/a	0	0	0
3132.9755859375	n/a	WORD	6416334	wordpools/wasnorm_wordpool_576.txt	LTP334	ltpFR2	8	15	PASTA	1021	n/a	n/a	0	0	0
3135.724609375	n/a	WORD	6421964	wordpools/wasnorm_wordpool_576.txt	LTP334	ltpFR2	8	15	QUAIL	1147	n/a	n/a	0	0	0
3138.3408203125	n/a	WORD	6427322	wordpools/wasnorm_wordpool_576.txt	LTP334	ltpFR2	8	15	KEEPER	769	n/a	n/a	0	0	0
3141.056640625	n/a	WORD	6432884	wordpools/wasnorm_wordpool_576.txt	LTP334	ltpFR2	8	15	GRIZZLY	662	n/a	n/a	0	0	0
3143.8212890625	n/a	WORD	6438546	wordpools/wasnorm_wordpool_576.txt	LTP334	ltpFR2	8	15	CARRIAGE	248	n/a	n/a	0	0	0
3146.3193359375	n/a	WORD	6443662	wordpools/wasnorm_wordpool_576.txt	LTP334	ltpFR2	8	15	SNACK	1331	n/a	n/a	0	0	0
3148.90234375	n/a	WORD	6448952	wordpools/wasnorm_wordpool_576.txt	LTP334	ltpFR2	8	15	DRUG	501	n/a	n/a	0	0	0
3151.33447265625	n/a	WORD	6453933	wordpools/wasnorm_wordpool_576.txt	LTP334	ltpFR2	8	15	SCISSORS	1250	n/a	n/a	0	0	0
3153.96630859375	n/a	WORD	6459323	wordpools/wasnorm_wordpool_576.txt	LTP334	ltpFR2	8	15	FINGER	567	n/a	n/a	0	0	0
3156.5810546875	n/a	WORD	6464678	wordpools/wasnorm_wordpool_576.txt	LTP334	ltpFR2	8	15	WRIST	1626	n/a	n/a	0	0	0
3159.296875	n/a	WORD	6470240	wordpools/wasnorm_wordpool_576.txt	LTP334	ltpFR2	8	15	UNCLE	1536	n/a	n/a	0	0	0
3161.94580078125	n/a	WORD	6475665	wordpools/wasnorm_wordpool_576.txt	LTP334	ltpFR2	8	15	LOFT	840	n/a	n/a	0	0	0
3164.5947265625	n/a	WORD	6481090	wordpools/wasnorm_wordpool_576.txt	LTP334	ltpFR2	8	15	NIGHTGOWN	953	n/a	n/a	0	0	0
3167.35986328125	n/a	WORD	6486753	wordpools/wasnorm_wordpool_576.txt	LTP334	ltpFR2	8	15	TRACTOR	1493	n/a	n/a	0	0	0
3170.17578125	n/a	WORD	6492520	wordpools/wasnorm_wordpool_576.txt	LTP334	ltpFR2	8	15	SHELTER	1282	n/a	n/a	0	0	0
3172.890625	n/a	WORD	6498080	wordpools/wasnorm_wordpool_576.txt	LTP334	ltpFR2	8	15	PEACH	1031	n/a	n/a	0	0	0
3174.50634765625	n/a	START	6501389	n/a	LTP334	ltpFR2	8	n/a	n/a	n/a	22	n/a	n/a	n/a	n/a
3175.609375	n/a	DISTRACTOR	6503648	n/a	LTP334	ltpFR2	8	15	n/a	n/a	n/a	n/a	0	0	0
3175.62255859375	n/a	PROB	6503675	n/a	LTP334	ltpFR2	8	n/a	n/a	n/a	22	16	8	3	5
3177.1396484375	n/a	PROB	6506782	n/a	LTP334	ltpFR2	8	n/a	n/a	n/a	22	13	2	5	6
3178.654296875	n/a	PROB	6509884	n/a	LTP334	ltpFR2	8	n/a	n/a	n/a	22	8	4	3	1
3180.13720703125	n/a	PROB	6512921	n/a	LTP334	ltpFR2	8	n/a	n/a	n/a	22	11	6	3	2
3181.5693359375	n/a	PROB	6515854	n/a	LTP334	ltpFR2	8	n/a	n/a	n/a	22	18	9	6	3
3183.6025390625	n/a	PROB	6520018	n/a	LTP334	ltpFR2	8	n/a	n/a	n/a	22	24	9	6	9
3185.68408203125	n/a	PROB	6524281	n/a	LTP334	ltpFR2	8	n/a	n/a	n/a	22	17	7	1	9
3187.4833984375	n/a	PROB	6527966	n/a	LTP334	ltpFR2	8	n/a	n/a	n/a	22	20	7	5	8
3189.59912109375	n/a	PROB	6532299	n/a	LTP334	ltpFR2	8	n/a	n/a	n/a	22	12	8	2	2
3191.51513671875	n/a	PROB	6536223	n/a	LTP334	ltpFR2	8	n/a	n/a	n/a	22	14	3	4	7
3193.1982421875	n/a	PROB	6539670	n/a	LTP334	ltpFR2	8	n/a	n/a	n/a	22	15	2	5	8
3195.1142578125	n/a	PROB	6543594	n/a	LTP334	ltpFR2	8	n/a	n/a	n/a	22	17	9	5	3
3196.94580078125	n/a	PROB	6547345	n/a	LTP334	ltpFR2	8	n/a	n/a	n/a	22	9	3	2	4
3198.35693359375	n/a	STOP	6550235	n/a	LTP334	ltpFR2	8	n/a	n/a	n/a	22	n/a	n/a	n/a	n/a
3200.44384765625	n/a	REC_START	6554509	n/a	LTP334	ltpFR2	8	15	n/a	n/a	n/a	n/a	0	0	0
3200.9248046875	n/a	REC_WORD	6555494	wordpools/wasnorm_wordpool_576.txt	LTP334	ltpFR2	8	15	TRACTOR	1493	n/a	n/a	0	0	0
3201.69189453125	n/a	REC_WORD	6557065	wordpools/wasnorm_wordpool_576.txt	LTP334	ltpFR2	8	15	CARRIAGE	248	n/a	n/a	0	0	0
3203.73681640625	n/a	REC_WORD	6561253	wordpools/wasnorm_wordpool_576.txt	LTP334	ltpFR2	8	15	ICING	732	n/a	n/a	0	0	0
3204.5439453125	n/a	REC_WORD	6562906	wordpools/wasnorm_wordpool_576.txt	LTP334	ltpFR2	8	15	PEACH	1031	n/a	n/a	0	0	0
3205.2568359375	n/a	REC_WORD	6564366	wordpools/wasnorm_wordpool_576.txt	LTP334	ltpFR2	8	15	PASTA	1021	n/a	n/a	0	0	0
3205.8544921875	n/a	REC_WORD	6565590	wordpools/wasnorm_wordpool_576.txt	LTP334	ltpFR2	8	15	SNACK	1331	n/a	n/a	0	0	0
3207.69580078125	n/a	REC_WORD	6569361	wordpools/wasnorm_wordpool_576.txt	LTP334	ltpFR2	8	15	BEAKER	104	n/a	n/a	0	0	0
3207.9638671875	n/a	REC_WORD	6569910	wordpools/wasnorm_wordpool_576.txt	LTP334	ltpFR2	8	15	NEUTRON	947	n/a	n/a	0	0	0
3208.20849609375	n/a	REC_WORD	6570411	wordpools/wasnorm_wordpool_576.txt	LTP334	ltpFR2	8	15	NEUTRON	947	n/a	n/a	0	0	0
3208.87158203125	n/a	REC_WORD	6571769	wordpools/wasnorm_wordpool_576.txt	LTP334	ltpFR2	8	15	ZEBRA	1635	n/a	n/a	0	0	0
3211.54248046875	n/a	REC_WORD	6577239	wordpools/wasnorm_wordpool_576.txt	LTP334	ltpFR2	8	15	SHOULDER	1294	n/a	n/a	0	0	0
3212.19775390625	n/a	REC_WORD	6578581	wordpools/wasnorm_wordpool_576.txt	LTP334	ltpFR2	8	15	FINGER	567	n/a	n/a	0	0	0
3212.90869140625	n/a	REC_WORD	6580037	wordpools/wasnorm_wordpool_576.txt	LTP334	ltpFR2	8	15	CLIMBER	323	n/a	n/a	0	0	0
