mstime	trial_type	stim_file	subject	experiment	session	trial	item_name	item_num	list	answer	test_x	test_y	test_z
0	SESS_START	n/a	LTP343	ltpFR2	11	n/a	n/a	n/a	n/a	n/a	0	0	0
13263	START	n/a	LTP343	ltpFR2	11	n/a	n/a	n/a	-1	n/a	n/a	n/a	n/a
13276	PROB	n/a	LTP343	ltpFR2	11	n/a	n/a	n/a	-1	9	4	2	3
15442	PROB	n/a	LTP343	ltpFR2	11	n/a	n/a	n/a	-1	15	4	3	8
16976	PROB	n/a	LTP343	ltpFR2	11	n/a	n/a	n/a	-1	22	9	5	8
18825	PROB	n/a	LTP343	ltpFR2	11	n/a	n/a	n/a	-1	11	5	4	2
19858	PROB	n/a	LTP343	ltpFR2	11	n/a	n/a	n/a	-1	16	6	8	2
22040	PROB	n/a	LTP343	ltpFR2	11	n/a	n/a	n/a	-1	19	4	7	8
23768	STOP	n/a	LTP343	ltpFR2	11	n/a	n/a	n/a	-1	n/a	n/a	n/a	n/a
55608	WORD	wordpools/wasnorm_wordpool_576.txt	LTP343	ltpFR2	11	1	LETTUCE	814	n/a	n/a	0	0	0
58206	WORD	wordpools/wasnorm_wordpool_576.txt	LTP343	ltpFR2	11	1	MATTRESS	879	n/a	n/a	0	0	0
60723	WORD	wordpools/wasnorm_wordpool_576.txt	LTP343	ltpFR2	11	1	JELLO	754	n/a	n/a	0	0	0
63320	WORD	wordpools/wasnorm_wordpool_576.txt	LTP343	ltpFR2	11	1	PUPPY	1144	n/a	n/a	0	0	0
65954	WORD	wordpools/wasnorm_wordpool_576.txt	LTP343	ltpFR2	11	1	NIGHTGOWN	953	n/a	n/a	0	0	0
68636	WORD	wordpools/wasnorm_wordpool_576.txt	LTP343	ltpFR2	11	1	WINDOW	1611	n/a	n/a	0	0	0
71068	WORD	wordpools/wasnorm_wordpool_576.txt	LTP343	ltpFR2	11	1	EYELASH	546	n/a	n/a	0	0	0
73767	WORD	wordpools/wasnorm_wordpool_576.txt	LTP343	ltpFR2	11	1	VENUS	1557	n/a	n/a	0	0	0
76315	WORD	wordpools/wasnorm_wordpool_576.txt	LTP343	ltpFR2	11	1	SKIRT	1319	n/a	n/a	0	0	0
78964	WORD	wordpools/wasnorm_wordpool_576.txt	LTP343	ltpFR2	11	1	TURNIP	1521	n/a	n/a	0	0	0
81696	WORD	wordpools/wasnorm_wordpool_576.txt	LTP343	ltpFR2	11	1	PANTHER	1009	n/a	n/a	0	0	0
84244	WORD	wordpools/wasnorm_wordpool_576.txt	LTP343	ltpFR2	11	1	PISTON	1076	n/a	n/a	0	0	0
86761	WORD	wordpools/wasnorm_wordpool_576.txt	LTP343	ltpFR2	11	1	BUGGY	188	n/a	n/a	0	0	0
89409	WORD	wordpools/wasnorm_wordpool_576.txt	LTP343	ltpFR2	11	1	PROTON	1132	n/a	n/a	0	0	0
92091	WORD	wordpools/wasnorm_wordpool_576.txt	LTP343	ltpFR2	11	1	HIKER	708	n/a	n/a	0	0	0
94824	WORD	wordpools/wasnorm_wordpool_576.txt	LTP343	ltpFR2	11	1	HIGHWAY	707	n/a	n/a	0	0	0
97388	WORD	wordpools/wasnorm_wordpool_576.txt	LTP343	ltpFR2	11	1	CURTAIN	427	n/a	n/a	0	0	0
99988	WORD	wordpools/wasnorm_wordpool_576.txt	LTP343	ltpFR2	11	1	TAXI	1438	n/a	n/a	0	0	0
102570	WORD	wordpools/wasnorm_wordpool_576.txt	LTP343	ltpFR2	11	1	WORLD	1622	n/a	n/a	0	0	0
105053	WORD	wordpools/wasnorm_wordpool_576.txt	LTP343	ltpFR2	11	1	ATLAS	53	n/a	n/a	0	0	0
107568	WORD	wordpools/wasnorm_wordpool_576.txt	LTP343	ltpFR2	11	1	CIGAR	308	n/a	n/a	0	0	0
110216	WORD	wordpools/wasnorm_wordpool_576.txt	LTP343	ltpFR2	11	1	MATCH	878	n/a	n/a	0	0	0
112916	WORD	wordpools/wasnorm_wordpool_576.txt	LTP343	ltpFR2	11	1	DAUGHTER	442	n/a	n/a	0	0	0
115414	WORD	wordpools/wasnorm_wordpool_576.txt	LTP343	ltpFR2	11	1	PIANO	1057	n/a	n/a	0	0	0
117031	START	n/a	LTP343	ltpFR2	11	n/a	n/a	n/a	1	n/a	n/a	n/a	n/a
118116	DISTRACTOR	n/a	LTP343	ltpFR2	11	1	n/a	n/a	n/a	n/a	0	0	0
118129	PROB	n/a	LTP343	ltpFR2	11	n/a	n/a	n/a	1	14	5	8	1
119579	PROB	n/a	LTP343	ltpFR2	11	n/a	n/a	n/a	1	12	7	3	2
120612	PROB	n/a	LTP343	ltpFR2	11	n/a	n/a	n/a	1	13	1	6	6
122911	PROB	n/a	LTP343	ltpFR2	11	n/a	n/a	n/a	1	16	8	2	6
124044	PROB	n/a	LTP343	ltpFR2	11	n/a	n/a	n/a	1	17	9	3	5
125359	PROB	n/a	LTP343	ltpFR2	11	n/a	n/a	n/a	1	14	5	4	5
127559	PROB	n/a	LTP343	ltpFR2	11	n/a	n/a	n/a	1	20	2	9	9
128842	PROB	n/a	LTP343	ltpFR2	11	n/a	n/a	n/a	1	9	4	4	1
129825	PROB	n/a	LTP343	ltpFR2	11	n/a	n/a	n/a	1	25	9	9	7
131173	PROB	n/a	LTP343	ltpFR2	11	n/a	n/a	n/a	1	20	9	9	2
132356	PROB	n/a	LTP343	ltpFR2	11	n/a	n/a	n/a	1	7	1	4	2
133372	PROB	n/a	LTP343	ltpFR2	11	n/a	n/a	n/a	1	9	3	3	3
134338	PROB	n/a	LTP343	ltpFR2	11	n/a	n/a	n/a	1	16	6	4	6
135489	PROB	n/a	LTP343	ltpFR2	11	n/a	n/a	n/a	1	12	5	4	3
136722	PROB	n/a	LTP343	ltpFR2	11	n/a	n/a	n/a	1	19	7	5	7
138071	PROB	n/a	LTP343	ltpFR2	11	n/a	n/a	n/a	1	20	9	6	5
139699	STOP	n/a	LTP343	ltpFR2	11	n/a	n/a	n/a	1	n/a	n/a	n/a	n/a
142953	REC_START	n/a	LTP343	ltpFR2	11	1	n/a	n/a	n/a	n/a	0	0	0
144826	REC_WORD	wordpools/wasnorm_wordpool_576.txt	LTP343	ltpFR2	11	1	HIGHWAY	707	n/a	n/a	0	0	0
145843	REC_WORD	wordpools/wasnorm_wordpool_576.txt	LTP343	ltpFR2	11	1	BUGGY	188	n/a	n/a	0	0	0
146898	REC_WORD	wordpools/wasnorm_wordpool_576.txt	LTP343	ltpFR2	11	1	TAXI	1438	n/a	n/a	0	0	0
148082	REC_WORD	wordpools/wasnorm_wordpool_576.txt	LTP343	ltpFR2	11	1	WORLD	1622	n/a	n/a	0	0	0
148943	REC_WORD	wordpools/wasnorm_wordpool_576.txt	LTP343	ltpFR2	11	1	VENUS	1557	n/a	n/a	0	0	0
150000	REC_WORD	wordpools/wasnorm_wordpool_576.txt	LTP343	ltpFR2	11	1	ATLAS	53	n/a	n/a	0	0	0
151606	REC_WORD	wordpools/wasnorm_wordpool_576.txt	LTP343	ltpFR2	11	1	MATTRESS	879	n/a	n/a	0	0	0
154053	REC_WORD	wordpools/wasnorm_wordpool_576.txt	LTP343	ltpFR2	11	1	PANTHER	1009	n/a	n/a	0	0	0
155369	REC_WORD	wordpools/wasnorm_wordpool_576.txt	LTP343	ltpFR2	11	1	LETTUCE	814	n/a	n/a	0	0	0
157222	REC_WORD	wordpools/wasnorm_wordpool_576.txt	LTP343	ltpFR2	11	1	JELLY	755	n/a	n/a	0	0	0
159107	REC_WORD	wordpools/wasnorm_wordpool_576.txt	LTP343	ltpFR2	11	1	PUPPY	1144	n/a	n/a	0	0	0
163277	REC_WORD	wordpools/wasnorm_wordpool_576.txt	LTP343	ltpFR2	11	1	HIKER	708	n/a	n/a	0	0	0
166446	REC_WORD	wordpools/wasnorm_wordpool_576.txt	LTP343	ltpFR2	11	1	NIGHTGOWN	953	n/a	n/a	0	0	0
167438	REC_WORD	wordpools/wasnorm_wordpool_576.txt	LTP343	ltpFR2	11	1	SKIRT	1319	n/a	n/a	0	0	0
179345	REC_WORD	wordpools/wasnorm_wordpool_576.txt	LTP343	ltpFR2	11	1	PROTON	1132	n/a	n/a	0	0	0
198362	REC_WORD	wordpools/wasnorm_wordpool_576.txt	LTP343	ltpFR2	11	1	WINDOW	1611	n/a	n/a	0	0	0
211315	REC_WORD	wordpools/wasnorm_wordpool_576.txt	LTP343	ltpFR2	11	1	MATTRESS	879	n/a	n/a	0	0	0
211906	REC_WORD	wordpools/wasnorm_wordpool_576.txt	LTP343	ltpFR2	11	1	LETTUCE	814	n/a	n/a	0	0	0
212673	REC_WORD	wordpools/wasnorm_wordpool_576.txt	LTP343	ltpFR2	11	1	JELLY	755	n/a	n/a	0	0	0
213392	REC_WORD	wordpools/wasnorm_wordpool_576.txt	LTP343	ltpFR2	11	1	PUPPY	1144	n/a	n/a	0	0	0
233377	DISTRACTOR	n/a	LTP343	ltpFR2	11	2	n/a	n/a	n/a	n/a	0	0	0
233377	START	n/a	LTP343	ltpFR2	11	n/a	n/a	n/a	2	n/a	n/a	n/a	n/a
233394	PROB	n/a	LTP343	ltpFR2	11	n/a	n/a	n/a	2	14	6	4	4
236893	PROB	n/a	LTP343	ltpFR2	11	n/a	n/a	n/a	2	15	2	7	6
237976	PROB	n/a	LTP343	ltpFR2	11	n/a	n/a	n/a	2	12	1	9	2
239324	PROB	n/a	LTP343	ltpFR2	11	n/a	n/a	n/a	2	19	8	3	8
240440	PROB	n/a	LTP343	ltpFR2	11	n/a	n/a	n/a	2	21	9	3	9
241757	PROB	n/a	LTP343	ltpFR2	11	n/a	n/a	n/a	2	13	2	3	8
243422	PROB	n/a	LTP343	ltpFR2	11	n/a	n/a	n/a	2	10	2	6	2
244573	PROB	n/a	LTP343	ltpFR2	11	n/a	n/a	n/a	2	9	7	1	1
245706	PROB	n/a	LTP343	ltpFR2	11	n/a	n/a	n/a	2	22	7	6	9
247721	PROB	n/a	LTP343	ltpFR2	11	n/a	n/a	n/a	2	16	5	2	9
249021	PROB	n/a	LTP343	ltpFR2	11	n/a	n/a	n/a	2	9	4	1	4
250303	PROB	n/a	LTP343	ltpFR2	11	n/a	n/a	n/a	2	17	4	6	7
252352	PROB	n/a	LTP343	ltpFR2	11	n/a	n/a	n/a	2	20	6	8	6
254035	PROB	n/a	LTP343	ltpFR2	11	n/a	n/a	n/a	2	10	4	2	4
255334	PROB	n/a	LTP343	ltpFR2	11	n/a	n/a	n/a	2	13	1	7	5
256527	STOP	n/a	LTP343	ltpFR2	11	n/a	n/a	n/a	2	n/a	n/a	n/a	n/a
258432	WORD	wordpools/wasnorm_wordpool_576.txt	LTP343	ltpFR2	11	2	HONEY	713	n/a	n/a	0	0	0
261065	WORD	wordpools/wasnorm_wordpool_576.txt	LTP343	ltpFR2	11	2	GUITAR	670	n/a	n/a	0	0	0
263797	WORD	wordpools/wasnorm_wordpool_576.txt	LTP343	ltpFR2	11	2	TWISTER	1530	n/a	n/a	0	0	0
266379	WORD	wordpools/wasnorm_wordpool_576.txt	LTP343	ltpFR2	11	2	DANDRUFF	439	n/a	n/a	0	0	0
268912	WORD	wordpools/wasnorm_wordpool_576.txt	LTP343	ltpFR2	11	2	GAZELLE	628	n/a	n/a	0	0	0
271376	WORD	wordpools/wasnorm_wordpool_576.txt	LTP343	ltpFR2	11	2	CLAMP	316	n/a	n/a	0	0	0
273926	WORD	wordpools/wasnorm_wordpool_576.txt	LTP343	ltpFR2	11	2	CYCLONE	431	n/a	n/a	0	0	0
276642	WORD	wordpools/wasnorm_wordpool_576.txt	LTP343	ltpFR2	11	2	BIKE	125	n/a	n/a	0	0	0
279356	WORD	wordpools/wasnorm_wordpool_576.txt	LTP343	ltpFR2	11	2	VALVE	1546	n/a	n/a	0	0	0
281789	WORD	wordpools/wasnorm_wordpool_576.txt	LTP343	ltpFR2	11	2	FRIEND	606	n/a	n/a	0	0	0
284370	WORD	wordpools/wasnorm_wordpool_576.txt	LTP343	ltpFR2	11	2	CROSS	413	n/a	n/a	0	0	0
286837	WORD	wordpools/wasnorm_wordpool_576.txt	LTP343	ltpFR2	11	2	IDOL	733	n/a	n/a	0	0	0
289652	WORD	wordpools/wasnorm_wordpool_576.txt	LTP343	ltpFR2	11	2	MAILMAN	858	n/a	n/a	0	0	0
292250	WORD	wordpools/wasnorm_wordpool_576.txt	LTP343	ltpFR2	11	2	FLAG	573	n/a	n/a	0	0	0
294683	WORD	wordpools/wasnorm_wordpool_576.txt	LTP343	ltpFR2	11	2	RUST	1219	n/a	n/a	0	0	0
297215	WORD	wordpools/wasnorm_wordpool_576.txt	LTP343	ltpFR2	11	2	TRANSPLANT	1496	n/a	n/a	0	0	0
299681	WORD	wordpools/wasnorm_wordpool_576.txt	LTP343	ltpFR2	11	2	DRINK	498	n/a	n/a	0	0	0
302146	WORD	wordpools/wasnorm_wordpool_576.txt	LTP343	ltpFR2	11	2	SHORTS	1293	n/a	n/a	0	0	0
304912	WORD	wordpools/wasnorm_wordpool_576.txt	LTP343	ltpFR2	11	2	TORTOISE	1486	n/a	n/a	0	0	0
307628	WORD	wordpools/wasnorm_wordpool_576.txt	LTP343	ltpFR2	11	2	FLASK	576	n/a	n/a	0	0	0
310159	WORD	wordpools/wasnorm_wordpool_576.txt	LTP343	ltpFR2	11	2	KETCHUP	771	n/a	n/a	0	0	0
312842	WORD	wordpools/wasnorm_wordpool_576.txt	LTP343	ltpFR2	11	2	MUSTARD	935	n/a	n/a	0	0	0
315541	WORD	wordpools/wasnorm_wordpool_576.txt	LTP343	ltpFR2	11	2	COUSIN	392	n/a	n/a	0	0	0
317989	WORD	wordpools/wasnorm_wordpool_576.txt	LTP343	ltpFR2	11	2	FLUTE	585	n/a	n/a	0	0	0
319606	START	n/a	LTP343	ltpFR2	11	n/a	n/a	n/a	3	n/a	n/a	n/a	n/a
320668	DISTRACTOR	n/a	LTP343	ltpFR2	11	2	n/a	n/a	n/a	n/a	0	0	0
320672	PROB	n/a	LTP343	ltpFR2	11	n/a	n/a	n/a	3	16	4	9	3
322488	PROB	n/a	LTP343	ltpFR2	11	n/a	n/a	n/a	3	24	8	8	8
323654	PROB	n/a	LTP343	ltpFR2	11	n/a	n/a	n/a	3	15	3	8	4
324836	PROB	n/a	LTP343	ltpFR2	11	n/a	n/a	n/a	3	24	9	7	8
328334	PROB	n/a	LTP343	ltpFR2	11	n/a	n/a	n/a	3	12	9	1	2
329333	PROB	n/a	LTP343	ltpFR2	11	n/a	n/a	n/a	3	17	6	6	5
330584	PROB	n/a	LTP343	ltpFR2	11	n/a	n/a	n/a	3	16	1	7	8
331733	PROB	n/a	LTP343	ltpFR2	11	n/a	n/a	n/a	3	20	9	9	2
332850	PROB	n/a	LTP343	ltpFR2	11	n/a	n/a	n/a	3	17	6	7	4
334066	PROB	n/a	LTP343	ltpFR2	11	n/a	n/a	n/a	3	17	7	7	3
335482	PROB	n/a	LTP343	ltpFR2	11	n/a	n/a	n/a	3	15	9	5	1
336648	PROB	n/a	LTP343	ltpFR2	11	n/a	n/a	n/a	3	13	6	6	1
337797	PROB	n/a	LTP343	ltpFR2	11	n/a	n/a	n/a	3	24	7	8	9
339763	PROB	n/a	LTP343	ltpFR2	11	n/a	n/a	n/a	3	22	9	6	7
343606	STOP	n/a	LTP343	ltpFR2	11	n/a	n/a	n/a	3	n/a	n/a	n/a	n/a
345511	REC_START	n/a	LTP343	ltpFR2	11	2	n/a	n/a	n/a	n/a	0	0	0
350757	REC_WORD	wordpools/wasnorm_wordpool_576.txt	LTP343	ltpFR2	11	2	SISTER	1312	n/a	n/a	0	0	0
351620	REC_WORD	wordpools/wasnorm_wordpool_576.txt	LTP343	ltpFR2	11	2	FLUTE	585	n/a	n/a	0	0	0
355372	REC_WORD	wordpools/wasnorm_wordpool_576.txt	LTP343	ltpFR2	11	2	FRIEND	606	n/a	n/a	0	0	0
356375	REC_WORD	wordpools/wasnorm_wordpool_576.txt	LTP343	ltpFR2	11	2	BIKE	125	n/a	n/a	0	0	0
357059	REC_WORD	wordpools/wasnorm_wordpool_576.txt	LTP343	ltpFR2	11	2	VALVE	1546	n/a	n/a	0	0	0
357991	REC_WORD	wordpools/wasnorm_wordpool_576.txt	LTP343	ltpFR2	11	2	SHORTS	1293	n/a	n/a	0	0	0
359097	REC_WORD	wordpools/wasnorm_wordpool_576.txt	LTP343	ltpFR2	11	2	DRINK	498	n/a	n/a	0	0	0
359917	REC_WORD	wordpools/wasnorm_wordpool_576.txt	LTP343	ltpFR2	11	2	FLASK	576	n/a	n/a	0	0	0
360974	REC_WORD	wordpools/wasnorm_wordpool_576.txt	LTP343	ltpFR2	11	2	FLAG	573	n/a	n/a	0	0	0
362163	REC_WORD	wordpools/wasnorm_wordpool_576.txt	LTP343	ltpFR2	11	2	RUST	1219	n/a	n/a	0	0	0
362999	REC_WORD	wordpools/wasnorm_wordpool_576.txt	LTP343	ltpFR2	11	2	MAILMAN	858	n/a	n/a	0	0	0
364448	REC_WORD	wordpools/wasnorm_wordpool_576.txt	LTP343	ltpFR2	11	2	KETCHUP	771	n/a	n/a	0	0	0
365304	REC_WORD	wordpools/wasnorm_wordpool_576.txt	LTP343	ltpFR2	11	2	MUSTARD	935	n/a	n/a	0	0	0
370542	REC_WORD	wordpools/wasnorm_wordpool_576.txt	LTP343	ltpFR2	11	2	CROSS	413	n/a	n/a	0	0	0
435953	DISTRACTOR	n/a	LTP343	ltpFR2	11	3	n/a	n/a	n/a	n/a	0	0	0
435953	START	n/a	LTP343	ltpFR2	11	n/a	n/a	n/a	4	n/a	n/a	n/a	n/a
435970	PROB	n/a	LTP343	ltpFR2	11	n/a	n/a	n/a	4	16	5	7	4
437569	PROB	n/a	LTP343	ltpFR2	11	n/a	n/a	n/a	4	19	6	9	4
438801	PROB	n/a	LTP343	ltpFR2	11	n/a	n/a	n/a	4	11	4	3	4
440450	PROB	n/a	LTP343	ltpFR2	11	n/a	n/a	n/a	4	13	5	5	3
441467	PROB	n/a	LTP343	ltpFR2	11	n/a	n/a	n/a	4	19	8	6	5
443816	PROB	n/a	LTP343	ltpFR2	11	n/a	n/a	n/a	4	17	6	7	4
445214	PROB	n/a	LTP343	ltpFR2	11	n/a	n/a	n/a	4	15	3	4	8
446280	PROB	n/a	LTP343	ltpFR2	11	n/a	n/a	n/a	4	16	3	5	8
447498	PROB	n/a	LTP343	ltpFR2	11	n/a	n/a	n/a	4	10	5	3	2
448614	PROB	n/a	LTP343	ltpFR2	11	n/a	n/a	n/a	4	11	5	1	5
449730	PROB	n/a	LTP343	ltpFR2	11	n/a	n/a	n/a	4	117	4	4	9
451178	PROB	n/a	LTP343	ltpFR2	11	n/a	n/a	n/a	4	19	6	7	6
453144	PROB	n/a	LTP343	ltpFR2	11	n/a	n/a	n/a	4	17	5	6	6
454528	PROB	n/a	LTP343	ltpFR2	11	n/a	n/a	n/a	4	19	5	5	9
455611	PROB	n/a	LTP343	ltpFR2	11	n/a	n/a	n/a	4	12	3	1	8
456760	PROB	n/a	LTP343	ltpFR2	11	n/a	n/a	n/a	4	13	3	8	2
458933	STOP	n/a	LTP343	ltpFR2	11	n/a	n/a	n/a	4	n/a	n/a	n/a	n/a
460775	WORD	wordpools/wasnorm_wordpool_576.txt	LTP343	ltpFR2	11	3	WRENCH	1625	n/a	n/a	0	0	0
463256	WORD	wordpools/wasnorm_wordpool_576.txt	LTP343	ltpFR2	11	3	PLIERS	1089	n/a	n/a	0	0	0
465939	WORD	wordpools/wasnorm_wordpool_576.txt	LTP343	ltpFR2	11	3	LIPSTICK	829	n/a	n/a	0	0	0
468671	WORD	wordpools/wasnorm_wordpool_576.txt	LTP343	ltpFR2	11	3	COUNTY	389	n/a	n/a	0	0	0
471219	WORD	wordpools/wasnorm_wordpool_576.txt	LTP343	ltpFR2	11	3	XEROX	1628	n/a	n/a	0	0	0
473952	WORD	wordpools/wasnorm_wordpool_576.txt	LTP343	ltpFR2	11	3	TOASTER	1472	n/a	n/a	0	0	0
476484	WORD	wordpools/wasnorm_wordpool_576.txt	LTP343	ltpFR2	11	3	APRON	35	n/a	n/a	0	0	0
479232	WORD	wordpools/wasnorm_wordpool_576.txt	LTP343	ltpFR2	11	3	DASHBOARD	441	n/a	n/a	0	0	0
481965	WORD	wordpools/wasnorm_wordpool_576.txt	LTP343	ltpFR2	11	3	KLEENEX	782	n/a	n/a	0	0	0
484647	WORD	wordpools/wasnorm_wordpool_576.txt	LTP343	ltpFR2	11	3	DONOR	485	n/a	n/a	0	0	0
487212	WORD	wordpools/wasnorm_wordpool_576.txt	LTP343	ltpFR2	11	3	PUDDLE	1140	n/a	n/a	0	0	0
489745	WORD	wordpools/wasnorm_wordpool_576.txt	LTP343	ltpFR2	11	3	BROOK	177	n/a	n/a	0	0	0
492544	WORD	wordpools/wasnorm_wordpool_576.txt	LTP343	ltpFR2	11	3	VALLEY	1545	n/a	n/a	0	0	0
495026	WORD	wordpools/wasnorm_wordpool_576.txt	LTP343	ltpFR2	11	3	DORM	488	n/a	n/a	0	0	0
497458	WORD	wordpools/wasnorm_wordpool_576.txt	LTP343	ltpFR2	11	3	BREAST	171	n/a	n/a	0	0	0
500089	WORD	wordpools/wasnorm_wordpool_576.txt	LTP343	ltpFR2	11	3	RIVER	1194	n/a	n/a	0	0	0
502822	WORD	wordpools/wasnorm_wordpool_576.txt	LTP343	ltpFR2	11	3	VELVET	1555	n/a	n/a	0	0	0
505404	WORD	wordpools/wasnorm_wordpool_576.txt	LTP343	ltpFR2	11	3	CEILING	265	n/a	n/a	0	0	0
507887	WORD	wordpools/wasnorm_wordpool_576.txt	LTP343	ltpFR2	11	3	DOLPHIN	483	n/a	n/a	0	0	0
510536	WORD	wordpools/wasnorm_wordpool_576.txt	LTP343	ltpFR2	11	3	ROOSTER	1209	n/a	n/a	0	0	0
513333	WORD	wordpools/wasnorm_wordpool_576.txt	LTP343	ltpFR2	11	3	ISLAND	745	n/a	n/a	0	0	0
516082	WORD	wordpools/wasnorm_wordpool_576.txt	LTP343	ltpFR2	11	3	PORK	1108	n/a	n/a	0	0	0
518682	WORD	wordpools/wasnorm_wordpool_576.txt	LTP343	ltpFR2	11	3	PATIENT	1024	n/a	n/a	0	0	0
521446	WORD	wordpools/wasnorm_wordpool_576.txt	LTP343	ltpFR2	11	3	COSTUME	383	n/a	n/a	0	0	0
523064	START	n/a	LTP343	ltpFR2	11	n/a	n/a	n/a	5	n/a	n/a	n/a	n/a
523879	DISTRACTOR	n/a	LTP343	ltpFR2	11	3	n/a	n/a	n/a	n/a	0	0	0
523896	PROB	n/a	LTP343	ltpFR2	11	n/a	n/a	n/a	5	9	7	1	1
525311	PROB	n/a	LTP343	ltpFR2	11	n/a	n/a	n/a	5	19	2	8	9
526411	PROB	n/a	LTP343	ltpFR2	11	n/a	n/a	n/a	5	10	7	1	2
527778	PROB	n/a	LTP343	ltpFR2	11	n/a	n/a	n/a	5	10	6	1	3
528994	PROB	n/a	LTP343	ltpFR2	11	n/a	n/a	n/a	5	7	4	1	2
530076	PROB	n/a	LTP343	ltpFR2	11	n/a	n/a	n/a	5	11	5	2	4
531159	PROB	n/a	LTP343	ltpFR2	11	n/a	n/a	n/a	5	12	5	1	6
532391	PROB	n/a	LTP343	ltpFR2	11	n/a	n/a	n/a	5	17	8	8	1
533625	PROB	n/a	LTP343	ltpFR2	11	n/a	n/a	n/a	5	16	5	4	7
534791	PROB	n/a	LTP343	ltpFR2	11	n/a	n/a	n/a	5	5	1	1	3
535741	PROB	n/a	LTP343	ltpFR2	11	n/a	n/a	n/a	5	18	8	4	6
537239	PROB	n/a	LTP343	ltpFR2	11	n/a	n/a	n/a	5	10	1	1	8
538289	PROB	n/a	LTP343	ltpFR2	11	n/a	n/a	n/a	5	18	8	9	1
539388	PROB	n/a	LTP343	ltpFR2	11	n/a	n/a	n/a	5	19	6	4	9
540371	PROB	n/a	LTP343	ltpFR2	11	n/a	n/a	n/a	5	15	2	6	7
541404	PROB	n/a	LTP343	ltpFR2	11	n/a	n/a	n/a	5	9	4	2	3
542655	PROB	n/a	LTP343	ltpFR2	11	n/a	n/a	n/a	5	17	6	4	7
543687	PROB	n/a	LTP343	ltpFR2	11	n/a	n/a	n/a	5	16	6	8	2
547064	STOP	n/a	LTP343	ltpFR2	11	n/a	n/a	n/a	5	n/a	n/a	n/a	n/a
548952	REC_START	n/a	LTP343	ltpFR2	11	3	n/a	n/a	n/a	n/a	0	0	0
550723	REC_WORD	wordpools/wasnorm_wordpool_576.txt	LTP343	ltpFR2	11	3	LIPSTICK	829	n/a	n/a	0	0	0
551475	REC_WORD	wordpools/wasnorm_wordpool_576.txt	LTP343	ltpFR2	11	3	WRENCH	1625	n/a	n/a	0	0	0
555187	REC_WORD	wordpools/wasnorm_wordpool_576.txt	LTP343	ltpFR2	11	3	APRON	35	n/a	n/a	0	0	0
556187	REC_WORD	wordpools/wasnorm_wordpool_576.txt	LTP343	ltpFR2	11	3	DASHBOARD	441	n/a	n/a	0	0	0
557243	REC_WORD	wordpools/wasnorm_wordpool_576.txt	LTP343	ltpFR2	11	3	KLEENEX	782	n/a	n/a	0	0	0
558232	REC_WORD	wordpools/wasnorm_wordpool_576.txt	LTP343	ltpFR2	11	3	VELVET	1555	n/a	n/a	0	0	0
559158	REC_WORD	wordpools/wasnorm_wordpool_576.txt	LTP343	ltpFR2	11	3	CEILING	265	n/a	n/a	0	0	0
561469	REC_WORD	wordpools/wasnorm_wordpool_576.txt	LTP343	ltpFR2	11	3	DONOR	485	n/a	n/a	0	0	0
562851	REC_WORD	wordpools/wasnorm_wordpool_576.txt	LTP343	ltpFR2	11	3	PUDDLE	1140	n/a	n/a	0	0	0
564642	REC_WORD	wordpools/wasnorm_wordpool_576.txt	LTP343	ltpFR2	11	3	BROOK	177	n/a	n/a	0	0	0
565699	REC_WORD	wordpools/wasnorm_wordpool_576.txt	LTP343	ltpFR2	11	3	BREAST	171	n/a	n/a	0	0	0
566829	REC_WORD	wordpools/wasnorm_wordpool_576.txt	LTP343	ltpFR2	11	3	DORM	488	n/a	n/a	0	0	0
569695	REC_WORD	wordpools/wasnorm_wordpool_576.txt	LTP343	ltpFR2	11	3	RIVER	1194	n/a	n/a	0	0	0
570753	REC_WORD	wordpools/wasnorm_wordpool_576.txt	LTP343	ltpFR2	11	3	DOLPHIN	483	n/a	n/a	0	0	0
571705	REC_WORD	wordpools/wasnorm_wordpool_576.txt	LTP343	ltpFR2	11	3	ISLAND	745	n/a	n/a	0	0	0
572520	REC_WORD	wordpools/wasnorm_wordpool_576.txt	LTP343	ltpFR2	11	3	VALLEY	1545	n/a	n/a	0	0	0
639410	WORD	wordpools/wasnorm_wordpool_576.txt	LTP343	ltpFR2	11	4	EUROPE	541	n/a	n/a	0	0	0
641876	WORD	wordpools/wasnorm_wordpool_576.txt	LTP343	ltpFR2	11	4	WOMAN	1620	n/a	n/a	0	0	0
644558	WORD	wordpools/wasnorm_wordpool_576.txt	LTP343	ltpFR2	11	4	EMPIRE	530	n/a	n/a	0	0	0
647024	WORD	wordpools/wasnorm_wordpool_576.txt	LTP343	ltpFR2	11	4	PUPIL	1143	n/a	n/a	0	0	0
649590	WORD	wordpools/wasnorm_wordpool_576.txt	LTP343	ltpFR2	11	4	WARDROBE	1587	n/a	n/a	0	0	0
652254	WORD	wordpools/wasnorm_wordpool_576.txt	LTP343	ltpFR2	11	4	WIFE	1609	n/a	n/a	0	0	0
654987	WORD	wordpools/wasnorm_wordpool_576.txt	LTP343	ltpFR2	11	4	WAITRESS	1581	n/a	n/a	0	0	0
657586	WORD	wordpools/wasnorm_wordpool_576.txt	LTP343	ltpFR2	11	4	BOYFRIEND	162	n/a	n/a	0	0	0
660084	WORD	wordpools/wasnorm_wordpool_576.txt	LTP343	ltpFR2	11	4	FEMALE	559	n/a	n/a	0	0	0
662584	WORD	wordpools/wasnorm_wordpool_576.txt	LTP343	ltpFR2	11	4	SPACE	1345	n/a	n/a	0	0	0
665066	WORD	wordpools/wasnorm_wordpool_576.txt	LTP343	ltpFR2	11	4	PUDDING	1139	n/a	n/a	0	0	0
667548	WORD	wordpools/wasnorm_wordpool_576.txt	LTP343	ltpFR2	11	4	JAPAN	749	n/a	n/a	0	0	0
670312	WORD	wordpools/wasnorm_wordpool_576.txt	LTP343	ltpFR2	11	4	CARRIAGE	248	n/a	n/a	0	0	0
672879	WORD	wordpools/wasnorm_wordpool_576.txt	LTP343	ltpFR2	11	4	CREVICE	405	n/a	n/a	0	0	0
675410	WORD	wordpools/wasnorm_wordpool_576.txt	LTP343	ltpFR2	11	4	VICTIM	1562	n/a	n/a	0	0	0
677910	WORD	wordpools/wasnorm_wordpool_576.txt	LTP343	ltpFR2	11	4	PASTA	1021	n/a	n/a	0	0	0
680609	WORD	wordpools/wasnorm_wordpool_576.txt	LTP343	ltpFR2	11	4	DUSTPAN	509	n/a	n/a	0	0	0
683123	WORD	wordpools/wasnorm_wordpool_576.txt	LTP343	ltpFR2	11	4	DUST	508	n/a	n/a	0	0	0
685623	WORD	wordpools/wasnorm_wordpool_576.txt	LTP343	ltpFR2	11	4	WIDOW	1608	n/a	n/a	0	0	0
688387	WORD	wordpools/wasnorm_wordpool_576.txt	LTP343	ltpFR2	11	4	GALLON	618	n/a	n/a	0	0	0
690804	WORD	wordpools/wasnorm_wordpool_576.txt	LTP343	ltpFR2	11	4	SISTER	1312	n/a	n/a	0	0	0
693369	WORD	wordpools/wasnorm_wordpool_576.txt	LTP343	ltpFR2	11	4	BROTHER	179	n/a	n/a	0	0	0
695868	WORD	wordpools/wasnorm_wordpool_576.txt	LTP343	ltpFR2	11	4	RAZOR	1171	n/a	n/a	0	0	0
698601	WORD	wordpools/wasnorm_wordpool_576.txt	LTP343	ltpFR2	11	4	STUDENT	1395	n/a	n/a	0	0	0
700216	START	n/a	LTP343	ltpFR2	11	n/a	n/a	n/a	6	n/a	n/a	n/a	n/a
701315	DISTRACTOR	n/a	LTP343	ltpFR2	11	4	n/a	n/a	n/a	n/a	0	0	0
701332	PROB	n/a	LTP343	ltpFR2	11	n/a	n/a	n/a	6	16	4	9	3
703848	PROB	n/a	LTP343	ltpFR2	11	n/a	n/a	n/a	6	23	9	5	9
705814	PROB	n/a	LTP343	ltpFR2	11	n/a	n/a	n/a	6	11	1	8	2
706847	PROB	n/a	LTP343	ltpFR2	11	n/a	n/a	n/a	6	10	5	4	1
707980	PROB	n/a	LTP343	ltpFR2	11	n/a	n/a	n/a	6	19	9	3	7
709311	PROB	n/a	LTP343	ltpFR2	11	n/a	n/a	n/a	6	7	2	1	4
710778	PROB	n/a	LTP343	ltpFR2	11	n/a	n/a	n/a	6	21	9	4	8
712160	PROB	n/a	LTP343	ltpFR2	11	n/a	n/a	n/a	6	16	3	4	9
713977	PROB	n/a	LTP343	ltpFR2	11	n/a	n/a	n/a	6	19	6	5	8
715359	PROB	n/a	LTP343	ltpFR2	11	n/a	n/a	n/a	6	17	2	6	9
717042	PROB	n/a	LTP343	ltpFR2	11	n/a	n/a	n/a	6	13	3	4	6
718307	PROB	n/a	LTP343	ltpFR2	11	n/a	n/a	n/a	6	16	9	6	1
720090	PROB	n/a	LTP343	ltpFR2	11	n/a	n/a	n/a	6	16	8	3	5
721373	PROB	n/a	LTP343	ltpFR2	11	n/a	n/a	n/a	6	13	6	3	4
722782	STOP	n/a	LTP343	ltpFR2	11	n/a	n/a	n/a	6	n/a	n/a	n/a	n/a
726022	REC_START	n/a	LTP343	ltpFR2	11	4	n/a	n/a	n/a	n/a	0	0	0
726360	REC_WORD	wordpools/wasnorm_wordpool_576.txt	LTP343	ltpFR2	11	4	SISTER	1312	n/a	n/a	0	0	0
727289	REC_WORD	wordpools/wasnorm_wordpool_576.txt	LTP343	ltpFR2	11	4	BROTHER	179	n/a	n/a	0	0	0
728114	REC_WORD	wordpools/wasnorm_wordpool_576.txt	LTP343	ltpFR2	11	4	RAZOR	1171	n/a	n/a	0	0	0
728931	REC_WORD	wordpools/wasnorm_wordpool_576.txt	LTP343	ltpFR2	11	4	STUDENT	1395	n/a	n/a	0	0	0
734423	REC_WORD	wordpools/wasnorm_wordpool_576.txt	LTP343	ltpFR2	11	4	EUROPE	541	n/a	n/a	0	0	0
735480	REC_WORD	wordpools/wasnorm_wordpool_576.txt	LTP343	ltpFR2	11	4	EMPIRE	530	n/a	n/a	0	0	0
736763	REC_WORD	wordpools/wasnorm_wordpool_576.txt	LTP343	ltpFR2	11	4	FEMALE	559	n/a	n/a	0	0	0
737732	REC_WORD	wordpools/wasnorm_wordpool_576.txt	LTP343	ltpFR2	11	4	WOMAN	1620	n/a	n/a	0	0	0
738642	REC_WORD	wordpools/wasnorm_wordpool_576.txt	LTP343	ltpFR2	11	4	WIDOW	1608	n/a	n/a	0	0	0
739591	REC_WORD	wordpools/wasnorm_wordpool_576.txt	LTP343	ltpFR2	11	4	WIFE	1609	n/a	n/a	0	0	0
741843	REC_WORD	wordpools/wasnorm_wordpool_576.txt	LTP343	ltpFR2	11	4	WARDROBE	1587	n/a	n/a	0	0	0
749089	REC_WORD	wordpools/wasnorm_wordpool_576.txt	LTP343	ltpFR2	11	4	BOYFRIEND	162	n/a	n/a	0	0	0
751055	REC_WORD	wordpools/wasnorm_wordpool_576.txt	LTP343	ltpFR2	11	4	CREVICE	405	n/a	n/a	0	0	0
761437	REC_WORD	wordpools/wasnorm_wordpool_576.txt	LTP343	ltpFR2	11	4	CARRIAGE	248	n/a	n/a	0	0	0
762278	REC_WORD	wordpools/wasnorm_wordpool_576.txt	LTP343	ltpFR2	11	4	JAPAN	749	n/a	n/a	0	0	0
764412	REC_WORD	wordpools/wasnorm_wordpool_576.txt	LTP343	ltpFR2	11	4	DUST	508	n/a	n/a	0	0	0
765299	REC_WORD	wordpools/wasnorm_wordpool_576.txt	LTP343	ltpFR2	11	4	DUSTPAN	509	n/a	n/a	0	0	0
766263	REC_WORD	wordpools/wasnorm_wordpool_576.txt	LTP343	ltpFR2	11	4	WAITRESS	1581	n/a	n/a	0	0	0
816514	WORD	wordpools/wasnorm_wordpool_576.txt	LTP343	ltpFR2	11	5	LEG	809	n/a	n/a	0	0	0
819228	WORD	wordpools/wasnorm_wordpool_576.txt	LTP343	ltpFR2	11	5	FIREMAN	569	n/a	n/a	0	0	0
821762	WORD	wordpools/wasnorm_wordpool_576.txt	LTP343	ltpFR2	11	5	TUTU	1524	n/a	n/a	0	0	0
824193	WORD	wordpools/wasnorm_wordpool_576.txt	LTP343	ltpFR2	11	5	SAUSAGE	1238	n/a	n/a	0	0	0
826726	WORD	wordpools/wasnorm_wordpool_576.txt	LTP343	ltpFR2	11	5	SWIMMER	1420	n/a	n/a	0	0	0
829525	WORD	wordpools/wasnorm_wordpool_576.txt	LTP343	ltpFR2	11	5	NOVEL	960	n/a	n/a	0	0	0
832189	WORD	wordpools/wasnorm_wordpool_576.txt	LTP343	ltpFR2	11	5	STOMACH	1384	n/a	n/a	0	0	0
834639	WORD	wordpools/wasnorm_wordpool_576.txt	LTP343	ltpFR2	11	5	SCOTCH	1251	n/a	n/a	0	0	0
837253	WORD	wordpools/wasnorm_wordpool_576.txt	LTP343	ltpFR2	11	5	SNAKE	1333	n/a	n/a	0	0	0
840070	WORD	wordpools/wasnorm_wordpool_576.txt	LTP343	ltpFR2	11	5	WASP	1593	n/a	n/a	0	0	0
842635	WORD	wordpools/wasnorm_wordpool_576.txt	LTP343	ltpFR2	11	5	MOP	916	n/a	n/a	0	0	0
845117	WORD	wordpools/wasnorm_wordpool_576.txt	LTP343	ltpFR2	11	5	RUG	1215	n/a	n/a	0	0	0
847750	WORD	wordpools/wasnorm_wordpool_576.txt	LTP343	ltpFR2	11	5	WRIST	1626	n/a	n/a	0	0	0
850264	WORD	wordpools/wasnorm_wordpool_576.txt	LTP343	ltpFR2	11	5	HUSBAND	728	n/a	n/a	0	0	0
852847	WORD	wordpools/wasnorm_wordpool_576.txt	LTP343	ltpFR2	11	5	SPOUSE	1358	n/a	n/a	0	0	0
855463	WORD	wordpools/wasnorm_wordpool_576.txt	LTP343	ltpFR2	11	5	DAISY	435	n/a	n/a	0	0	0
857928	WORD	wordpools/wasnorm_wordpool_576.txt	LTP343	ltpFR2	11	5	TURTLE	1522	n/a	n/a	0	0	0
860443	WORD	wordpools/wasnorm_wordpool_576.txt	LTP343	ltpFR2	11	5	BEAVER	109	n/a	n/a	0	0	0
862893	WORD	wordpools/wasnorm_wordpool_576.txt	LTP343	ltpFR2	11	5	CUSTARD	429	n/a	n/a	0	0	0
865407	WORD	wordpools/wasnorm_wordpool_576.txt	LTP343	ltpFR2	11	5	FRIAR	605	n/a	n/a	0	0	0
868123	WORD	wordpools/wasnorm_wordpool_576.txt	LTP343	ltpFR2	11	5	PADDLE	1000	n/a	n/a	0	0	0
870856	WORD	wordpools/wasnorm_wordpool_576.txt	LTP343	ltpFR2	11	5	SPOOL	1356	n/a	n/a	0	0	0
873287	WORD	wordpools/wasnorm_wordpool_576.txt	LTP343	ltpFR2	11	5	BRACES	164	n/a	n/a	0	0	0
876004	WORD	wordpools/wasnorm_wordpool_576.txt	LTP343	ltpFR2	11	5	RAFT	1159	n/a	n/a	0	0	0
877620	START	n/a	LTP343	ltpFR2	11	n/a	n/a	n/a	7	n/a	n/a	n/a	n/a
878443	DISTRACTOR	n/a	LTP343	ltpFR2	11	5	n/a	n/a	n/a	n/a	0	0	0
878452	PROB	n/a	LTP343	ltpFR2	11	n/a	n/a	n/a	7	11	5	1	5
880184	PROB	n/a	LTP343	ltpFR2	11	n/a	n/a	n/a	7	17	9	1	7
882333	PROB	n/a	LTP343	ltpFR2	11	n/a	n/a	n/a	7	18	5	8	5
884700	PROB	n/a	LTP343	ltpFR2	11	n/a	n/a	n/a	7	12	2	7	3
885966	PROB	n/a	LTP343	ltpFR2	11	n/a	n/a	n/a	7	10	3	5	2
887565	PROB	n/a	LTP343	ltpFR2	11	n/a	n/a	n/a	7	15	3	9	3
889213	PROB	n/a	LTP343	ltpFR2	11	n/a	n/a	n/a	7	16	1	6	9
890780	PROB	n/a	LTP343	ltpFR2	11	n/a	n/a	n/a	7	17	8	6	3
892529	PROB	n/a	LTP343	ltpFR2	11	n/a	n/a	n/a	7	6	4	1	1
894012	PROB	n/a	LTP343	ltpFR2	11	n/a	n/a	n/a	7	22	9	9	4
895361	PROB	n/a	LTP343	ltpFR2	11	n/a	n/a	n/a	7	10	5	4	1
896528	PROB	n/a	LTP343	ltpFR2	11	n/a	n/a	n/a	7	14	7	3	4
897644	PROB	n/a	LTP343	ltpFR2	11	n/a	n/a	n/a	7	2	9	8	5
900461	STOP	n/a	LTP343	ltpFR2	11	n/a	n/a	n/a	7	n/a	n/a	n/a	n/a
903508	REC_START	n/a	LTP343	ltpFR2	11	5	n/a	n/a	n/a	n/a	0	0	0
904218	REC_WORD	wordpools/wasnorm_wordpool_576.txt	LTP343	ltpFR2	11	5	TURTLE	1522	n/a	n/a	0	0	0
905139	REC_WORD	wordpools/wasnorm_wordpool_576.txt	LTP343	ltpFR2	11	5	BEAVER	109	n/a	n/a	0	0	0
906020	REC_WORD	wordpools/wasnorm_wordpool_576.txt	LTP343	ltpFR2	11	5	CUSTARD	429	n/a	n/a	0	0	0
906857	REC_WORD	wordpools/wasnorm_wordpool_576.txt	LTP343	ltpFR2	11	5	FRIAR	605	n/a	n/a	0	0	0
908332	REC_WORD	wordpools/wasnorm_wordpool_576.txt	LTP343	ltpFR2	11	5	PADDLE	1000	n/a	n/a	0	0	0
911559	REC_WORD	wordpools/wasnorm_wordpool_576.txt	LTP343	ltpFR2	11	5	FIREMAN	569	n/a	n/a	0	0	0
912797	REC_WORD	wordpools/wasnorm_wordpool_576.txt	LTP343	ltpFR2	11	5	TUTU	1524	n/a	n/a	0	0	0
913722	REC_WORD	wordpools/wasnorm_wordpool_576.txt	LTP343	ltpFR2	11	5	LEG	809	n/a	n/a	0	0	0
915345	REC_WORD	wordpools/wasnorm_wordpool_576.txt	LTP343	ltpFR2	11	5	SCOTCH	1251	n/a	n/a	0	0	0
918529	REC_WORD	wordpools/wasnorm_wordpool_576.txt	LTP343	ltpFR2	11	5	SAUSAGE	1238	n/a	n/a	0	0	0
920395	REC_WORD	wordpools/wasnorm_wordpool_576.txt	LTP343	ltpFR2	11	5	SWIMMER	1420	n/a	n/a	0	0	0
924140	REC_WORD	wordpools/wasnorm_wordpool_576.txt	LTP343	ltpFR2	11	5	STOMACH	1384	n/a	n/a	0	0	0
927211	REC_WORD	wordpools/wasnorm_wordpool_576.txt	LTP343	ltpFR2	11	5	SNAKE	1333	n/a	n/a	0	0	0
929668	REC_WORD	wordpools/wasnorm_wordpool_576.txt	LTP343	ltpFR2	11	5	RAFT	1159	n/a	n/a	0	0	0
942167	REC_WORD	wordpools/wasnorm_wordpool_576.txt	LTP343	ltpFR2	11	5	FRIAR	605	n/a	n/a	0	0	0
993967	WORD	wordpools/wasnorm_wordpool_576.txt	LTP343	ltpFR2	11	6	SPHINX	1349	n/a	n/a	0	0	0
996431	WORD	wordpools/wasnorm_wordpool_576.txt	LTP343	ltpFR2	11	6	STATUE	1374	n/a	n/a	0	0	0
999247	WORD	wordpools/wasnorm_wordpool_576.txt	LTP343	ltpFR2	11	6	WAGON	1578	n/a	n/a	0	0	0
1001897	WORD	wordpools/wasnorm_wordpool_576.txt	LTP343	ltpFR2	11	6	LOVER	846	n/a	n/a	0	0	0
1004645	WORD	wordpools/wasnorm_wordpool_576.txt	LTP343	ltpFR2	11	6	ROBIN	1199	n/a	n/a	0	0	0
1007243	WORD	wordpools/wasnorm_wordpool_576.txt	LTP343	ltpFR2	11	6	MARKER	870	n/a	n/a	0	0	0
1010043	WORD	wordpools/wasnorm_wordpool_576.txt	LTP343	ltpFR2	11	6	BLOUSE	139	n/a	n/a	0	0	0
1012692	WORD	wordpools/wasnorm_wordpool_576.txt	LTP343	ltpFR2	11	6	CLOUD	328	n/a	n/a	0	0	0
1015439	WORD	wordpools/wasnorm_wordpool_576.txt	LTP343	ltpFR2	11	6	FRAGRANCE	599	n/a	n/a	0	0	0
1018255	WORD	wordpools/wasnorm_wordpool_576.txt	LTP343	ltpFR2	11	6	BEAKER	104	n/a	n/a	0	0	0
1020871	WORD	wordpools/wasnorm_wordpool_576.txt	LTP343	ltpFR2	11	6	LAPEL	800	n/a	n/a	0	0	0
1023369	WORD	wordpools/wasnorm_wordpool_576.txt	LTP343	ltpFR2	11	6	MISTER	901	n/a	n/a	0	0	0
1026019	WORD	wordpools/wasnorm_wordpool_576.txt	LTP343	ltpFR2	11	6	LADY	794	n/a	n/a	0	0	0
1028501	WORD	wordpools/wasnorm_wordpool_576.txt	LTP343	ltpFR2	11	6	OZONE	996	n/a	n/a	0	0	0
1031199	WORD	wordpools/wasnorm_wordpool_576.txt	LTP343	ltpFR2	11	6	ACTOR	5	n/a	n/a	0	0	0
1033699	WORD	wordpools/wasnorm_wordpool_576.txt	LTP343	ltpFR2	11	6	ZEBRA	1635	n/a	n/a	0	0	0
1036313	WORD	wordpools/wasnorm_wordpool_576.txt	LTP343	ltpFR2	11	6	BALLOON	75	n/a	n/a	0	0	0
1039129	WORD	wordpools/wasnorm_wordpool_576.txt	LTP343	ltpFR2	11	6	SHERIFF	1284	n/a	n/a	0	0	0
1041812	WORD	wordpools/wasnorm_wordpool_576.txt	LTP343	ltpFR2	11	6	SCISSORS	1250	n/a	n/a	0	0	0
1044561	WORD	wordpools/wasnorm_wordpool_576.txt	LTP343	ltpFR2	11	6	HATCHET	691	n/a	n/a	0	0	0
1047258	WORD	wordpools/wasnorm_wordpool_576.txt	LTP343	ltpFR2	11	6	FLOWER	584	n/a	n/a	0	0	0
1049792	WORD	wordpools/wasnorm_wordpool_576.txt	LTP343	ltpFR2	11	6	HORNET	718	n/a	n/a	0	0	0
1052389	WORD	wordpools/wasnorm_wordpool_576.txt	LTP343	ltpFR2	11	6	HEART	697	n/a	n/a	0	0	0
1054956	WORD	wordpools/wasnorm_wordpool_576.txt	LTP343	ltpFR2	11	6	FLASHLIGHT	575	n/a	n/a	0	0	0
1056572	START	n/a	LTP343	ltpFR2	11	n/a	n/a	n/a	8	n/a	n/a	n/a	n/a
1057440	DISTRACTOR	n/a	LTP343	ltpFR2	11	6	n/a	n/a	n/a	n/a	0	0	0
1057455	PROB	n/a	LTP343	ltpFR2	11	n/a	n/a	n/a	8	14	4	1	9
1059120	PROB	n/a	LTP343	ltpFR2	11	n/a	n/a	n/a	8	13	5	2	6
1060503	PROB	n/a	LTP343	ltpFR2	11	n/a	n/a	n/a	8	16	6	3	7
1061786	PROB	n/a	LTP343	ltpFR2	11	n/a	n/a	n/a	8	10	4	4	2
1062952	PROB	n/a	LTP343	ltpFR2	11	n/a	n/a	n/a	8	15	8	5	2
1064184	PROB	n/a	LTP343	ltpFR2	11	n/a	n/a	n/a	8	16	8	1	7
1065267	PROB	n/a	LTP343	ltpFR2	11	n/a	n/a	n/a	8	22	5	8	9
1068282	PROB	n/a	LTP343	ltpFR2	11	n/a	n/a	n/a	8	10	3	4	3
1069816	PROB	n/a	LTP343	ltpFR2	11	n/a	n/a	n/a	8	14	3	8	3
1071782	PROB	n/a	LTP343	ltpFR2	11	n/a	n/a	n/a	8	20	3	9	8
1073864	PROB	n/a	LTP343	ltpFR2	11	n/a	n/a	n/a	8	14	2	4	8
1075780	PROB	n/a	LTP343	ltpFR2	11	n/a	n/a	n/a	8	19	8	6	5
1077095	PROB	n/a	LTP343	ltpFR2	11	n/a	n/a	n/a	8	8	1	4	3
1078161	PROB	n/a	LTP343	ltpFR2	11	n/a	n/a	n/a	8	19	7	4	8
1080208	STOP	n/a	LTP343	ltpFR2	11	n/a	n/a	n/a	8	n/a	n/a	n/a	n/a
1082326	REC_START	n/a	LTP343	ltpFR2	11	6	n/a	n/a	n/a	n/a	0	0	0
1082797	REC_WORD	wordpools/wasnorm_wordpool_576.txt	LTP343	ltpFR2	11	6	SHERIFF	1284	n/a	n/a	0	0	0
1083732	REC_WORD	wordpools/wasnorm_wordpool_576.txt	LTP343	ltpFR2	11	6	SCISSORS	1250	n/a	n/a	0	0	0
1084761	REC_WORD	wordpools/wasnorm_wordpool_576.txt	LTP343	ltpFR2	11	6	HEART	697	n/a	n/a	0	0	0
1085728	REC_WORD	wordpools/wasnorm_wordpool_576.txt	LTP343	ltpFR2	11	6	HATCHET	691	n/a	n/a	0	0	0
1086717	REC_WORD	wordpools/wasnorm_wordpool_576.txt	LTP343	ltpFR2	11	6	FLOWER	584	n/a	n/a	0	0	0
1091168	REC_WORD	wordpools/wasnorm_wordpool_576.txt	LTP343	ltpFR2	11	6	STATUE	1374	n/a	n/a	0	0	0
1092039	REC_WORD	wordpools/wasnorm_wordpool_576.txt	LTP343	ltpFR2	11	6	SPHINX	1349	n/a	n/a	0	0	0
1093935	REC_WORD	wordpools/wasnorm_wordpool_576.txt	LTP343	ltpFR2	11	6	LOVER	846	n/a	n/a	0	0	0
1094939	REC_WORD	wordpools/wasnorm_wordpool_576.txt	LTP343	ltpFR2	11	6	WAGON	1578	n/a	n/a	0	0	0
1096686	REC_WORD	wordpools/wasnorm_wordpool_576.txt	LTP343	ltpFR2	11	6	CLOUD	328	n/a	n/a	0	0	0
1097653	REC_WORD	wordpools/wasnorm_wordpool_576.txt	LTP343	ltpFR2	11	6	FRAGRANCE	599	n/a	n/a	0	0	0
1101282	REC_WORD	wordpools/wasnorm_wordpool_576.txt	LTP343	ltpFR2	11	6	MARKER	870	n/a	n/a	0	0	0
1103465	REC_WORD	wordpools/wasnorm_wordpool_576.txt	LTP343	ltpFR2	11	6	BEAKER	104	n/a	n/a	0	0	0
1108848	REC_WORD	wordpools/wasnorm_wordpool_576.txt	LTP343	ltpFR2	11	6	BLOUSE	139	n/a	n/a	0	0	0
1109618	REC_WORD	wordpools/wasnorm_wordpool_576.txt	LTP343	ltpFR2	11	6	LAPEL	800	n/a	n/a	0	0	0
1172753	DISTRACTOR	n/a	LTP343	ltpFR2	11	7	n/a	n/a	n/a	n/a	0	0	0
1172753	START	n/a	LTP343	ltpFR2	11	n/a	n/a	n/a	9	n/a	n/a	n/a	n/a
1172769	PROB	n/a	LTP343	ltpFR2	11	n/a	n/a	n/a	9	14	6	8	3
1174768	PROB	n/a	LTP343	ltpFR2	11	n/a	n/a	n/a	9	13	2	7	4
1176133	PROB	n/a	LTP343	ltpFR2	11	n/a	n/a	n/a	9	21	7	8	6
1177850	PROB	n/a	LTP343	ltpFR2	11	n/a	n/a	n/a	9	9	3	1	5
1179365	PROB	n/a	LTP343	ltpFR2	11	n/a	n/a	n/a	9	18	5	4	9
1180666	PROB	n/a	LTP343	ltpFR2	11	n/a	n/a	n/a	9	20	9	7	4
1182331	PROB	n/a	LTP343	ltpFR2	11	n/a	n/a	n/a	9	17	5	6	6
1183714	PROB	n/a	LTP343	ltpFR2	11	n/a	n/a	n/a	9	7	3	2	2
1184680	PROB	n/a	LTP343	ltpFR2	11	n/a	n/a	n/a	9	11	7	1	3
1186212	PROB	n/a	LTP343	ltpFR2	11	n/a	n/a	n/a	9	8	1	5	2
1187328	PROB	n/a	LTP343	ltpFR2	11	n/a	n/a	n/a	9	10	2	4	4
1188579	PROB	n/a	LTP343	ltpFR2	11	n/a	n/a	n/a	9	18	6	5	7
1189761	PROB	n/a	LTP343	ltpFR2	11	n/a	n/a	n/a	9	15	9	2	4
1190994	PROB	n/a	LTP343	ltpFR2	11	n/a	n/a	n/a	9	21	9	8	4
1192777	PROB	n/a	LTP343	ltpFR2	11	n/a	n/a	n/a	9	17	1	7	9
1194043	PROB	n/a	LTP343	ltpFR2	11	n/a	n/a	n/a	9	9	3	3	3
1194976	PROB	n/a	LTP343	ltpFR2	11	n/a	n/a	n/a	9	18	1	9	8
1195972	STOP	n/a	LTP343	ltpFR2	11	n/a	n/a	n/a	9	n/a	n/a	n/a	n/a
1197625	WORD	wordpools/wasnorm_wordpool_576.txt	LTP343	ltpFR2	11	7	COUCH	386	n/a	n/a	0	0	0
1200057	WORD	wordpools/wasnorm_wordpool_576.txt	LTP343	ltpFR2	11	7	EXPERT	543	n/a	n/a	0	0	0
1202522	WORD	wordpools/wasnorm_wordpool_576.txt	LTP343	ltpFR2	11	7	HUMAN	726	n/a	n/a	0	0	0
1205021	WORD	wordpools/wasnorm_wordpool_576.txt	LTP343	ltpFR2	11	7	SUNSET	1408	n/a	n/a	0	0	0
1207703	WORD	wordpools/wasnorm_wordpool_576.txt	LTP343	ltpFR2	11	7	WASHER	1592	n/a	n/a	0	0	0
1210185	WORD	wordpools/wasnorm_wordpool_576.txt	LTP343	ltpFR2	11	7	CELLAR	267	n/a	n/a	0	0	0
1212818	WORD	wordpools/wasnorm_wordpool_576.txt	LTP343	ltpFR2	11	7	OUTFIT	988	n/a	n/a	0	0	0
1215249	WORD	wordpools/wasnorm_wordpool_576.txt	LTP343	ltpFR2	11	7	MAMMAL	861	n/a	n/a	0	0	0
1217699	WORD	wordpools/wasnorm_wordpool_576.txt	LTP343	ltpFR2	11	7	FLIPPER	580	n/a	n/a	0	0	0
1220380	WORD	wordpools/wasnorm_wordpool_576.txt	LTP343	ltpFR2	11	7	ANKLE	24	n/a	n/a	0	0	0
1222996	WORD	wordpools/wasnorm_wordpool_576.txt	LTP343	ltpFR2	11	7	SEAFOOD	1260	n/a	n/a	0	0	0
1225512	WORD	wordpools/wasnorm_wordpool_576.txt	LTP343	ltpFR2	11	7	CANDY	230	n/a	n/a	0	0	0
1228011	WORD	wordpools/wasnorm_wordpool_576.txt	LTP343	ltpFR2	11	7	SUNRISE	1407	n/a	n/a	0	0	0
1230610	WORD	wordpools/wasnorm_wordpool_576.txt	LTP343	ltpFR2	11	7	EAGLE	512	n/a	n/a	0	0	0
1233108	WORD	wordpools/wasnorm_wordpool_576.txt	LTP343	ltpFR2	11	7	AIRPLANE	12	n/a	n/a	0	0	0
1235724	WORD	wordpools/wasnorm_wordpool_576.txt	LTP343	ltpFR2	11	7	PASSAGE	1019	n/a	n/a	0	0	0
1238473	WORD	wordpools/wasnorm_wordpool_576.txt	LTP343	ltpFR2	11	7	BRIEFCASE	175	n/a	n/a	0	0	0
1241254	WORD	wordpools/wasnorm_wordpool_576.txt	LTP343	ltpFR2	11	7	GRAPE	654	n/a	n/a	0	0	0
1244020	WORD	wordpools/wasnorm_wordpool_576.txt	LTP343	ltpFR2	11	7	CAPTIVE	240	n/a	n/a	0	0	0
1246652	WORD	wordpools/wasnorm_wordpool_576.txt	LTP343	ltpFR2	11	7	OUTLAW	989	n/a	n/a	0	0	0
1249468	WORD	wordpools/wasnorm_wordpool_576.txt	LTP343	ltpFR2	11	7	JUDGE	761	n/a	n/a	0	0	0
1252132	WORD	wordpools/wasnorm_wordpool_576.txt	LTP343	ltpFR2	11	7	CHILD	299	n/a	n/a	0	0	0
1254849	WORD	wordpools/wasnorm_wordpool_576.txt	LTP343	ltpFR2	11	7	CLOCK	325	n/a	n/a	0	0	0
1257531	WORD	wordpools/wasnorm_wordpool_576.txt	LTP343	ltpFR2	11	7	BUREAU	199	n/a	n/a	0	0	0
1259146	START	n/a	LTP343	ltpFR2	11	n/a	n/a	n/a	10	n/a	n/a	n/a	n/a
1260197	DISTRACTOR	n/a	LTP343	ltpFR2	11	7	n/a	n/a	n/a	n/a	0	0	0
1260212	PROB	n/a	LTP343	ltpFR2	11	n/a	n/a	n/a	10	15	8	1	6
1261829	PROB	n/a	LTP343	ltpFR2	11	n/a	n/a	n/a	10	10	4	4	2
1263012	PROB	n/a	LTP343	ltpFR2	11	n/a	n/a	n/a	10	13	1	4	8
1264661	PROB	n/a	LTP343	ltpFR2	11	n/a	n/a	n/a	10	10	3	2	5
1266460	PROB	n/a	LTP343	ltpFR2	11	n/a	n/a	n/a	10	18	2	7	9
1267560	PROB	n/a	LTP343	ltpFR2	11	n/a	n/a	n/a	10	18	5	4	9
1269009	PROB	n/a	LTP343	ltpFR2	11	n/a	n/a	n/a	10	13	5	2	6
1270341	PROB	n/a	LTP343	ltpFR2	11	n/a	n/a	n/a	10	21	6	9	6
1273890	PROB	n/a	LTP343	ltpFR2	11	n/a	n/a	n/a	10	18	8	8	2
1275006	PROB	n/a	LTP343	ltpFR2	11	n/a	n/a	n/a	10	18	9	2	7
1276421	PROB	n/a	LTP343	ltpFR2	11	n/a	n/a	n/a	10	16	4	6	6
1277788	PROB	n/a	LTP343	ltpFR2	11	n/a	n/a	n/a	10	16	6	9	1
1279004	PROB	n/a	LTP343	ltpFR2	11	n/a	n/a	n/a	10	19	5	6	8
1280303	PROB	n/a	LTP343	ltpFR2	11	n/a	n/a	n/a	10	10	1	3	6
1281436	PROB	n/a	LTP343	ltpFR2	11	n/a	n/a	n/a	10	17	5	7	5
1283015	STOP	n/a	LTP343	ltpFR2	11	n/a	n/a	n/a	10	n/a	n/a	n/a	n/a
1285002	REC_START	n/a	LTP343	ltpFR2	11	7	n/a	n/a	n/a	n/a	0	0	0
1286847	REC_WORD	wordpools/wasnorm_wordpool_576.txt	LTP343	ltpFR2	11	7	COUCH	386	n/a	n/a	0	0	0
1287733	REC_WORD	wordpools/wasnorm_wordpool_576.txt	LTP343	ltpFR2	11	7	EXPERT	543	n/a	n/a	0	0	0
1288560	REC_WORD	wordpools/wasnorm_wordpool_576.txt	LTP343	ltpFR2	11	7	MAMMAL	861	n/a	n/a	0	0	0
1289494	REC_WORD	wordpools/wasnorm_wordpool_576.txt	LTP343	ltpFR2	11	7	EAGLE	512	n/a	n/a	0	0	0
1290360	REC_WORD	wordpools/wasnorm_wordpool_576.txt	LTP343	ltpFR2	11	7	CHILD	299	n/a	n/a	0	0	0
1291559	REC_WORD	wordpools/wasnorm_wordpool_576.txt	LTP343	ltpFR2	11	7	CANDY	230	n/a	n/a	0	0	0
1320669	REC_WORD	wordpools/wasnorm_wordpool_576.txt	LTP343	ltpFR2	11	7	MEAT	883	n/a	n/a	0	0	0
1375461	WORD	wordpools/wasnorm_wordpool_576.txt	LTP343	ltpFR2	11	8	COLLEGE	346	n/a	n/a	0	0	0
1378192	WORD	wordpools/wasnorm_wordpool_576.txt	LTP343	ltpFR2	11	8	GRAVEL	659	n/a	n/a	0	0	0
1380908	WORD	wordpools/wasnorm_wordpool_576.txt	LTP343	ltpFR2	11	8	JURY	766	n/a	n/a	0	0	0
1383406	WORD	wordpools/wasnorm_wordpool_576.txt	LTP343	ltpFR2	11	8	ROBOT	1200	n/a	n/a	0	0	0
1386222	WORD	wordpools/wasnorm_wordpool_576.txt	LTP343	ltpFR2	11	8	MACHINE	852	n/a	n/a	0	0	0
1388888	WORD	wordpools/wasnorm_wordpool_576.txt	LTP343	ltpFR2	11	8	DINER	467	n/a	n/a	0	0	0
1391670	WORD	wordpools/wasnorm_wordpool_576.txt	LTP343	ltpFR2	11	8	CASHEW	253	n/a	n/a	0	0	0
1394418	WORD	wordpools/wasnorm_wordpool_576.txt	LTP343	ltpFR2	11	8	BLACKBOARD	133	n/a	n/a	0	0	0
1397133	WORD	wordpools/wasnorm_wordpool_576.txt	LTP343	ltpFR2	11	8	ONION	977	n/a	n/a	0	0	0
1399783	WORD	wordpools/wasnorm_wordpool_576.txt	LTP343	ltpFR2	11	8	CONVICT	371	n/a	n/a	0	0	0
1402248	WORD	wordpools/wasnorm_wordpool_576.txt	LTP343	ltpFR2	11	8	PICNIC	1060	n/a	n/a	0	0	0
1404864	WORD	wordpools/wasnorm_wordpool_576.txt	LTP343	ltpFR2	11	8	DENIM	446	n/a	n/a	0	0	0
1407362	WORD	wordpools/wasnorm_wordpool_576.txt	LTP343	ltpFR2	11	8	PLAID	1080	n/a	n/a	0	0	0
1409962	WORD	wordpools/wasnorm_wordpool_576.txt	LTP343	ltpFR2	11	8	DRAGON	492	n/a	n/a	0	0	0
1412727	WORD	wordpools/wasnorm_wordpool_576.txt	LTP343	ltpFR2	11	8	STICKER	1382	n/a	n/a	0	0	0
1415275	WORD	wordpools/wasnorm_wordpool_576.txt	LTP343	ltpFR2	11	8	PEANUT	1032	n/a	n/a	0	0	0
1417941	WORD	wordpools/wasnorm_wordpool_576.txt	LTP343	ltpFR2	11	8	TEACHER	1440	n/a	n/a	0	0	0
1420707	WORD	wordpools/wasnorm_wordpool_576.txt	LTP343	ltpFR2	11	8	MARSH	874	n/a	n/a	0	0	0
1423338	WORD	wordpools/wasnorm_wordpool_576.txt	LTP343	ltpFR2	11	8	YOLK	1633	n/a	n/a	0	0	0
1426021	WORD	wordpools/wasnorm_wordpool_576.txt	LTP343	ltpFR2	11	8	SOFTBALL	1343	n/a	n/a	0	0	0
1428603	WORD	wordpools/wasnorm_wordpool_576.txt	LTP343	ltpFR2	11	8	ZIPPER	1636	n/a	n/a	0	0	0
1431284	WORD	wordpools/wasnorm_wordpool_576.txt	LTP343	ltpFR2	11	8	BASEMENT	94	n/a	n/a	0	0	0
1433968	WORD	wordpools/wasnorm_wordpool_576.txt	LTP343	ltpFR2	11	8	SHELTER	1282	n/a	n/a	0	0	0
1436516	WORD	wordpools/wasnorm_wordpool_576.txt	LTP343	ltpFR2	11	8	TUNNEL	1519	n/a	n/a	0	0	0
1438132	START	n/a	LTP343	ltpFR2	11	n/a	n/a	n/a	11	n/a	n/a	n/a	n/a
1439233	DISTRACTOR	n/a	LTP343	ltpFR2	11	8	n/a	n/a	n/a	n/a	0	0	0
1439247	PROB	n/a	LTP343	ltpFR2	11	n/a	n/a	n/a	11	23	7	7	9
1442880	PROB	n/a	LTP343	ltpFR2	11	n/a	n/a	n/a	11	6	2	1	3
1443863	PROB	n/a	LTP343	ltpFR2	11	n/a	n/a	n/a	11	12	1	3	8
1445496	PROB	n/a	LTP343	ltpFR2	11	n/a	n/a	n/a	11	26	9	9	8
1447012	PROB	n/a	LTP343	ltpFR2	11	n/a	n/a	n/a	11	11	9	1	1
1450126	PROB	n/a	LTP343	ltpFR2	11	n/a	n/a	n/a	11	11	5	3	3
1451259	PROB	n/a	LTP343	ltpFR2	11	n/a	n/a	n/a	11	12	3	5	4
1452441	PROB	n/a	LTP343	ltpFR2	11	n/a	n/a	n/a	11	17	9	5	3
1453892	PROB	n/a	LTP343	ltpFR2	11	n/a	n/a	n/a	11	15	7	3	5
1454925	PROB	n/a	LTP343	ltpFR2	11	n/a	n/a	n/a	11	6	4	1	1
1455858	PROB	n/a	LTP343	ltpFR2	11	n/a	n/a	n/a	11	22	5	9	8
1458306	PROB	n/a	LTP343	ltpFR2	11	n/a	n/a	n/a	11	12	5	6	1
1459438	PROB	n/a	LTP343	ltpFR2	11	n/a	n/a	n/a	11	16	8	7	1
1460741	STOP	n/a	LTP343	ltpFR2	11	n/a	n/a	n/a	11	n/a	n/a	n/a	n/a
1463988	REC_START	n/a	LTP343	ltpFR2	11	8	n/a	n/a	n/a	n/a	0	0	0
1464533	REC_WORD	wordpools/wasnorm_wordpool_576.txt	LTP343	ltpFR2	11	8	SOFTBALL	1343	n/a	n/a	0	0	0
1465468	REC_WORD	wordpools/wasnorm_wordpool_576.txt	LTP343	ltpFR2	11	8	ZIPPER	1636	n/a	n/a	0	0	0
1466518	REC_WORD	wordpools/wasnorm_wordpool_576.txt	LTP343	ltpFR2	11	8	BASEMENT	94	n/a	n/a	0	0	0
1467259	REC_WORD	wordpools/wasnorm_wordpool_576.txt	LTP343	ltpFR2	11	8	SHELTER	1282	n/a	n/a	0	0	0
1468361	REC_WORD	wordpools/wasnorm_wordpool_576.txt	LTP343	ltpFR2	11	8	TUNNEL	1519	n/a	n/a	0	0	0
1470965	REC_WORD	wordpools/wasnorm_wordpool_576.txt	LTP343	ltpFR2	11	8	TEACHER	1440	n/a	n/a	0	0	0
1474103	REC_WORD	wordpools/wasnorm_wordpool_576.txt	LTP343	ltpFR2	11	8	CONVICT	371	n/a	n/a	0	0	0
1540519	REST_REWET	n/a	LTP343	ltpFR2	11	8	n/a	n/a	n/a	n/a	0	0	0
1735514	DISTRACTOR	n/a	LTP343	ltpFR2	11	9	n/a	n/a	n/a	n/a	0	0	0
1735515	START	n/a	LTP343	ltpFR2	11	n/a	n/a	n/a	12	n/a	n/a	n/a	n/a
1735531	PROB	n/a	LTP343	ltpFR2	11	n/a	n/a	n/a	12	18	9	4	5
1737913	PROB	n/a	LTP343	ltpFR2	11	n/a	n/a	n/a	12	19	5	5	9
1738946	PROB	n/a	LTP343	ltpFR2	11	n/a	n/a	n/a	12	15	5	8	2
1740562	PROB	n/a	LTP343	ltpFR2	11	n/a	n/a	n/a	12	9	3	5	1
1741678	PROB	n/a	LTP343	ltpFR2	11	n/a	n/a	n/a	12	20	5	9	6
1743360	PROB	n/a	LTP343	ltpFR2	11	n/a	n/a	n/a	12	14	1	6	7
1745109	PROB	n/a	LTP343	ltpFR2	11	n/a	n/a	n/a	12	16	5	3	8
1746209	PROB	n/a	LTP343	ltpFR2	11	n/a	n/a	n/a	12	19	5	7	9
1747642	PROB	n/a	LTP343	ltpFR2	11	n/a	n/a	n/a	12	16	7	1	8
1750758	PROB	n/a	LTP343	ltpFR2	11	n/a	n/a	n/a	12	15	5	7	3
1751757	PROB	n/a	LTP343	ltpFR2	11	n/a	n/a	n/a	12	15	5	9	1
1753556	PROB	n/a	LTP343	ltpFR2	11	n/a	n/a	n/a	12	15	6	7	2
1754639	PROB	n/a	LTP343	ltpFR2	11	n/a	n/a	n/a	12	13	3	5	5
1755822	PROB	n/a	LTP343	ltpFR2	11	n/a	n/a	n/a	12	5	1	3	1
1756771	PROB	n/a	LTP343	ltpFR2	11	n/a	n/a	n/a	12	14	7	1	6
1758245	STOP	n/a	LTP343	ltpFR2	11	n/a	n/a	n/a	12	n/a	n/a	n/a	n/a
1760636	WORD	wordpools/wasnorm_wordpool_576.txt	LTP343	ltpFR2	11	9	TROUT	1511	n/a	n/a	0	0	0
1763234	WORD	wordpools/wasnorm_wordpool_576.txt	LTP343	ltpFR2	11	9	REPORT	1184	n/a	n/a	0	0	0
1765917	WORD	wordpools/wasnorm_wordpool_576.txt	LTP343	ltpFR2	11	9	GAVEL	627	n/a	n/a	0	0	0
1768499	WORD	wordpools/wasnorm_wordpool_576.txt	LTP343	ltpFR2	11	9	COUNTRY	388	n/a	n/a	0	0	0
1771131	WORD	wordpools/wasnorm_wordpool_576.txt	LTP343	ltpFR2	11	9	BRAKE	166	n/a	n/a	0	0	0
1773897	WORD	wordpools/wasnorm_wordpool_576.txt	LTP343	ltpFR2	11	9	BODY	145	n/a	n/a	0	0	0
1776696	WORD	wordpools/wasnorm_wordpool_576.txt	LTP343	ltpFR2	11	9	FIDDLE	561	n/a	n/a	0	0	0
1779443	WORD	wordpools/wasnorm_wordpool_576.txt	LTP343	ltpFR2	11	9	KIDNEY	776	n/a	n/a	0	0	0
1782092	WORD	wordpools/wasnorm_wordpool_576.txt	LTP343	ltpFR2	11	9	NECKLACE	940	n/a	n/a	0	0	0
1784659	WORD	wordpools/wasnorm_wordpool_576.txt	LTP343	ltpFR2	11	9	CRAYON	401	n/a	n/a	0	0	0
1787257	WORD	wordpools/wasnorm_wordpool_576.txt	LTP343	ltpFR2	11	9	CHAUFFEUR	283	n/a	n/a	0	0	0
1790073	WORD	wordpools/wasnorm_wordpool_576.txt	LTP343	ltpFR2	11	9	FINGER	567	n/a	n/a	0	0	0
1792772	WORD	wordpools/wasnorm_wordpool_576.txt	LTP343	ltpFR2	11	9	SIBLING	1301	n/a	n/a	0	0	0
1795386	WORD	wordpools/wasnorm_wordpool_576.txt	LTP343	ltpFR2	11	9	LADDER	793	n/a	n/a	0	0	0
1797819	WORD	wordpools/wasnorm_wordpool_576.txt	LTP343	ltpFR2	11	9	PRIMATE	1123	n/a	n/a	0	0	0
1800552	WORD	wordpools/wasnorm_wordpool_576.txt	LTP343	ltpFR2	11	9	JUNGLE	764	n/a	n/a	0	0	0
1803383	WORD	wordpools/wasnorm_wordpool_576.txt	LTP343	ltpFR2	11	9	PIGMENT	1066	n/a	n/a	0	0	0
1806098	WORD	wordpools/wasnorm_wordpool_576.txt	LTP343	ltpFR2	11	9	CLAM	315	n/a	n/a	0	0	0
1808631	WORD	wordpools/wasnorm_wordpool_576.txt	LTP343	ltpFR2	11	9	SNAIL	1332	n/a	n/a	0	0	0
1811312	WORD	wordpools/wasnorm_wordpool_576.txt	LTP343	ltpFR2	11	9	BANQUET	86	n/a	n/a	0	0	0
1813929	WORD	wordpools/wasnorm_wordpool_576.txt	LTP343	ltpFR2	11	9	TURKEY	1520	n/a	n/a	0	0	0
1816728	WORD	wordpools/wasnorm_wordpool_576.txt	LTP343	ltpFR2	11	9	TWIG	1527	n/a	n/a	0	0	0
1819192	WORD	wordpools/wasnorm_wordpool_576.txt	LTP343	ltpFR2	11	9	SUBWAY	1400	n/a	n/a	0	0	0
1821925	WORD	wordpools/wasnorm_wordpool_576.txt	LTP343	ltpFR2	11	9	PAPER	1011	n/a	n/a	0	0	0
1823541	START	n/a	LTP343	ltpFR2	11	n/a	n/a	n/a	13	n/a	n/a	n/a	n/a
1824564	DISTRACTOR	n/a	LTP343	ltpFR2	11	9	n/a	n/a	n/a	n/a	0	0	0
1824574	PROB	n/a	LTP343	ltpFR2	11	n/a	n/a	n/a	13	19	4	7	8
1826322	PROB	n/a	LTP343	ltpFR2	11	n/a	n/a	n/a	13	23	9	8	6
1828305	PROB	n/a	LTP343	ltpFR2	11	n/a	n/a	n/a	13	18	9	4	5
1829705	PROB	n/a	LTP343	ltpFR2	11	n/a	n/a	n/a	13	18	4	6	8
1830754	PROB	n/a	LTP343	ltpFR2	11	n/a	n/a	n/a	13	8	2	5	1
1831737	PROB	n/a	LTP343	ltpFR2	11	n/a	n/a	n/a	13	13	3	7	3
1833102	PROB	n/a	LTP343	ltpFR2	11	n/a	n/a	n/a	13	18	9	4	5
1834402	PROB	n/a	LTP343	ltpFR2	11	n/a	n/a	n/a	13	16	3	7	6
1835451	PROB	n/a	LTP343	ltpFR2	11	n/a	n/a	n/a	13	13	7	4	2
1836669	PROB	n/a	LTP343	ltpFR2	11	n/a	n/a	n/a	13	23	8	9	6
1838350	PROB	n/a	LTP343	ltpFR2	11	n/a	n/a	n/a	13	10	8	1	1
1839450	PROB	n/a	LTP343	ltpFR2	11	n/a	n/a	n/a	13	19	9	3	7
1841199	PROB	n/a	LTP343	ltpFR2	11	n/a	n/a	n/a	13	21	9	4	8
1842816	PROB	n/a	LTP343	ltpFR2	11	n/a	n/a	n/a	13	12	2	6	4
1843932	PROB	n/a	LTP343	ltpFR2	11	n/a	n/a	n/a	13	12	7	1	4
1844948	PROB	n/a	LTP343	ltpFR2	11	n/a	n/a	n/a	13	14	7	3	4
1846489	STOP	n/a	LTP343	ltpFR2	11	n/a	n/a	n/a	13	n/a	n/a	n/a	n/a
1849379	REC_START	n/a	LTP343	ltpFR2	11	9	n/a	n/a	n/a	n/a	0	0	0
1849660	REC_WORD	wordpools/wasnorm_wordpool_576.txt	LTP343	ltpFR2	11	9	FINGER	567	n/a	n/a	0	0	0
1850475	REC_WORD	wordpools/wasnorm_wordpool_576.txt	LTP343	ltpFR2	11	9	FIDDLE	561	n/a	n/a	0	0	0
1852555	REC_WORD	wordpools/wasnorm_wordpool_576.txt	LTP343	ltpFR2	11	9	KIDNEY	776	n/a	n/a	0	0	0
1853422	REC_WORD	wordpools/wasnorm_wordpool_576.txt	LTP343	ltpFR2	11	9	CRAYON	401	n/a	n/a	0	0	0
1857152	REC_WORD	wordpools/wasnorm_wordpool_576.txt	LTP343	ltpFR2	11	9	CHAUFFEUR	283	n/a	n/a	0	0	0
1862905	REC_WORD	wordpools/wasnorm_wordpool_576.txt	LTP343	ltpFR2	11	9	PRIMATE	1123	n/a	n/a	0	0	0
1863748	REC_WORD	wordpools/wasnorm_wordpool_576.txt	LTP343	ltpFR2	11	9	TWIG	1527	n/a	n/a	0	0	0
1864549	REC_WORD	wordpools/wasnorm_wordpool_576.txt	LTP343	ltpFR2	11	9	JUNGLE	764	n/a	n/a	0	0	0
1865492	REC_WORD	wordpools/wasnorm_wordpool_576.txt	LTP343	ltpFR2	11	9	TURKEY	1520	n/a	n/a	0	0	0
1866375	REC_WORD	wordpools/wasnorm_wordpool_576.txt	LTP343	ltpFR2	11	9	CLAM	315	n/a	n/a	0	0	0
1939805	DISTRACTOR	n/a	LTP343	ltpFR2	11	10	n/a	n/a	n/a	n/a	0	0	0
1939805	START	n/a	LTP343	ltpFR2	11	n/a	n/a	n/a	14	n/a	n/a	n/a	n/a
1939822	PROB	n/a	LTP343	ltpFR2	11	n/a	n/a	n/a	14	12	8	1	3
1941454	PROB	n/a	LTP343	ltpFR2	11	n/a	n/a	n/a	14	16	9	6	1
1942904	PROB	n/a	LTP343	ltpFR2	11	n/a	n/a	n/a	14	24	7	8	9
1946069	PROB	n/a	LTP343	ltpFR2	11	n/a	n/a	n/a	14	19	8	8	3
1947585	PROB	n/a	LTP343	ltpFR2	11	n/a	n/a	n/a	14	16	3	4	9
1948851	PROB	n/a	LTP343	ltpFR2	11	n/a	n/a	n/a	14	17	3	7	7
1950850	PROB	n/a	LTP343	ltpFR2	11	n/a	n/a	n/a	14	7	3	1	3
1952099	PROB	n/a	LTP343	ltpFR2	11	n/a	n/a	n/a	14	4	1	2	1
1953649	PROB	n/a	LTP343	ltpFR2	11	n/a	n/a	n/a	14	14	8	2	4
1954948	PROB	n/a	LTP343	ltpFR2	11	n/a	n/a	n/a	14	17	6	9	2
1956197	PROB	n/a	LTP343	ltpFR2	11	n/a	n/a	n/a	14	16	8	7	1
1957497	PROB	n/a	LTP343	ltpFR2	11	n/a	n/a	n/a	14	17	9	7	1
1959145	PROB	n/a	LTP343	ltpFR2	11	n/a	n/a	n/a	14	19	8	5	6
1960546	PROB	n/a	LTP343	ltpFR2	11	n/a	n/a	n/a	14	13	3	1	9
1961862	PROB	n/a	LTP343	ltpFR2	11	n/a	n/a	n/a	14	17	9	6	2
1963124	STOP	n/a	LTP343	ltpFR2	11	n/a	n/a	n/a	14	n/a	n/a	n/a	n/a
1964744	WORD	wordpools/wasnorm_wordpool_576.txt	LTP343	ltpFR2	11	10	BANK	83	n/a	n/a	0	0	0
1967559	WORD	wordpools/wasnorm_wordpool_576.txt	LTP343	ltpFR2	11	10	MARS	873	n/a	n/a	0	0	0
1970224	WORD	wordpools/wasnorm_wordpool_576.txt	LTP343	ltpFR2	11	10	PECAN	1036	n/a	n/a	0	0	0
1972940	WORD	wordpools/wasnorm_wordpool_576.txt	LTP343	ltpFR2	11	10	MONSTER	912	n/a	n/a	0	0	0
1975672	WORD	wordpools/wasnorm_wordpool_576.txt	LTP343	ltpFR2	11	10	SLOPE	1328	n/a	n/a	0	0	0
1978403	WORD	wordpools/wasnorm_wordpool_576.txt	LTP343	ltpFR2	11	10	POWDER	1117	n/a	n/a	0	0	0
1980920	WORD	wordpools/wasnorm_wordpool_576.txt	LTP343	ltpFR2	11	10	SNACK	1331	n/a	n/a	0	0	0
1983719	WORD	wordpools/wasnorm_wordpool_576.txt	LTP343	ltpFR2	11	10	FOREHEAD	592	n/a	n/a	0	0	0
1986400	WORD	wordpools/wasnorm_wordpool_576.txt	LTP343	ltpFR2	11	10	VIKING	1565	n/a	n/a	0	0	0
1988883	WORD	wordpools/wasnorm_wordpool_576.txt	LTP343	ltpFR2	11	10	SPIDER	1351	n/a	n/a	0	0	0
1991482	WORD	wordpools/wasnorm_wordpool_576.txt	LTP343	ltpFR2	11	10	JUGGLER	763	n/a	n/a	0	0	0
1994279	WORD	wordpools/wasnorm_wordpool_576.txt	LTP343	ltpFR2	11	10	GYMNAST	675	n/a	n/a	0	0	0
1997095	WORD	wordpools/wasnorm_wordpool_576.txt	LTP343	ltpFR2	11	10	BADGE	68	n/a	n/a	0	0	0
1999678	WORD	wordpools/wasnorm_wordpool_576.txt	LTP343	ltpFR2	11	10	GUARD	667	n/a	n/a	0	0	0
2002393	WORD	wordpools/wasnorm_wordpool_576.txt	LTP343	ltpFR2	11	10	WAITER	1580	n/a	n/a	0	0	0
2005108	WORD	wordpools/wasnorm_wordpool_576.txt	LTP343	ltpFR2	11	10	FLESH	579	n/a	n/a	0	0	0
2007758	WORD	wordpools/wasnorm_wordpool_576.txt	LTP343	ltpFR2	11	10	SERVER	1272	n/a	n/a	0	0	0
2010556	WORD	wordpools/wasnorm_wordpool_576.txt	LTP343	ltpFR2	11	10	JELLY	755	n/a	n/a	0	0	0
2013287	WORD	wordpools/wasnorm_wordpool_576.txt	LTP343	ltpFR2	11	10	OINTMENT	974	n/a	n/a	0	0	0
2015837	WORD	wordpools/wasnorm_wordpool_576.txt	LTP343	ltpFR2	11	10	HOSTESS	723	n/a	n/a	0	0	0
2018385	WORD	wordpools/wasnorm_wordpool_576.txt	LTP343	ltpFR2	11	10	HEADBAND	696	n/a	n/a	0	0	0
2020902	WORD	wordpools/wasnorm_wordpool_576.txt	LTP343	ltpFR2	11	10	SPARROW	1347	n/a	n/a	0	0	0
2023684	WORD	wordpools/wasnorm_wordpool_576.txt	LTP343	ltpFR2	11	10	SWORD	1423	n/a	n/a	0	0	0
2026265	WORD	wordpools/wasnorm_wordpool_576.txt	LTP343	ltpFR2	11	10	SILK	1307	n/a	n/a	0	0	0
2027882	START	n/a	LTP343	ltpFR2	11	n/a	n/a	n/a	15	n/a	n/a	n/a	n/a
2028925	DISTRACTOR	n/a	LTP343	ltpFR2	11	10	n/a	n/a	n/a	n/a	0	0	0
2028931	PROB	n/a	LTP343	ltpFR2	11	n/a	n/a	n/a	15	15	9	2	4
2031697	PROB	n/a	LTP343	ltpFR2	11	n/a	n/a	n/a	15	17	5	6	6
2033079	PROB	n/a	LTP343	ltpFR2	11	n/a	n/a	n/a	15	24	9	6	9
2035444	PROB	n/a	LTP343	ltpFR2	11	n/a	n/a	n/a	15	17	8	7	2
2037310	PROB	n/a	LTP343	ltpFR2	11	n/a	n/a	n/a	15	19	4	7	8
2038610	PROB	n/a	LTP343	ltpFR2	11	n/a	n/a	n/a	15	9	3	4	2
2039593	PROB	n/a	LTP343	ltpFR2	11	n/a	n/a	n/a	15	14	2	3	9
2040909	PROB	n/a	LTP343	ltpFR2	11	n/a	n/a	n/a	15	12	6	2	4
2042124	PROB	n/a	LTP343	ltpFR2	11	n/a	n/a	n/a	15	17	5	8	4
2043625	PROB	n/a	LTP343	ltpFR2	11	n/a	n/a	n/a	15	17	5	4	8
2044891	PROB	n/a	LTP343	ltpFR2	11	n/a	n/a	n/a	15	12	7	4	1
2046156	PROB	n/a	LTP343	ltpFR2	11	n/a	n/a	n/a	15	18	8	8	2
2047506	PROB	n/a	LTP343	ltpFR2	11	n/a	n/a	n/a	15	17	7	5	5
2051882	STOP	n/a	LTP343	ltpFR2	11	n/a	n/a	n/a	15	n/a	n/a	n/a	n/a
2053637	REC_START	n/a	LTP343	ltpFR2	11	10	n/a	n/a	n/a	n/a	0	0	0
2054277	REC_WORD	wordpools/wasnorm_wordpool_576.txt	LTP343	ltpFR2	11	10	FOREHEAD	592	n/a	n/a	0	0	0
2055379	REC_WORD	wordpools/wasnorm_wordpool_576.txt	LTP343	ltpFR2	11	10	HEADBAND	696	n/a	n/a	0	0	0
2074533	REC_WORD	wordpools/wasnorm_wordpool_576.txt	LTP343	ltpFR2	11	10	VIKING	1565	n/a	n/a	0	0	0
2144078	DISTRACTOR	n/a	LTP343	ltpFR2	11	11	n/a	n/a	n/a	n/a	0	0	0
2144079	START	n/a	LTP343	ltpFR2	11	n/a	n/a	n/a	16	n/a	n/a	n/a	n/a
2144095	PROB	n/a	LTP343	ltpFR2	11	n/a	n/a	n/a	16	8	3	2	3
2146478	PROB	n/a	LTP343	ltpFR2	11	n/a	n/a	n/a	16	14	1	6	7
2147978	PROB	n/a	LTP343	ltpFR2	11	n/a	n/a	n/a	16	17	3	9	5
2149660	PROB	n/a	LTP343	ltpFR2	11	n/a	n/a	n/a	16	9	3	1	5
2150976	PROB	n/a	LTP343	ltpFR2	11	n/a	n/a	n/a	16	12	3	6	3
2152108	PROB	n/a	LTP343	ltpFR2	11	n/a	n/a	n/a	16	16	7	1	8
2153241	PROB	n/a	LTP343	ltpFR2	11	n/a	n/a	n/a	16	10	3	1	6
2154458	PROB	n/a	LTP343	ltpFR2	11	n/a	n/a	n/a	16	7	2	4	1
2155440	PROB	n/a	LTP343	ltpFR2	11	n/a	n/a	n/a	16	16	5	9	2
2156607	PROB	n/a	LTP343	ltpFR2	11	n/a	n/a	n/a	16	13	2	9	2
2158623	PROB	n/a	LTP343	ltpFR2	11	n/a	n/a	n/a	16	13	8	4	1
2159672	PROB	n/a	LTP343	ltpFR2	11	n/a	n/a	n/a	16	19	4	9	6
2160922	PROB	n/a	LTP343	ltpFR2	11	n/a	n/a	n/a	16	20	8	6	6
2162237	PROB	n/a	LTP343	ltpFR2	11	n/a	n/a	n/a	16	16	4	4	8
2163303	PROB	n/a	LTP343	ltpFR2	11	n/a	n/a	n/a	16	18	1	8	9
2164352	PROB	n/a	LTP343	ltpFR2	11	n/a	n/a	n/a	16	19	6	5	8
2165836	PROB	n/a	LTP343	ltpFR2	11	n/a	n/a	n/a	16	12	1	9	2
2166787	STOP	n/a	LTP343	ltpFR2	11	n/a	n/a	n/a	16	n/a	n/a	n/a	n/a
2168935	WORD	wordpools/wasnorm_wordpool_576.txt	LTP343	ltpFR2	11	11	COMPASS	358	n/a	n/a	0	0	0
2171550	WORD	wordpools/wasnorm_wordpool_576.txt	LTP343	ltpFR2	11	11	HELMET	702	n/a	n/a	0	0	0
2174181	WORD	wordpools/wasnorm_wordpool_576.txt	LTP343	ltpFR2	11	11	PASTRY	1022	n/a	n/a	0	0	0
2176614	WORD	wordpools/wasnorm_wordpool_576.txt	LTP343	ltpFR2	11	11	CLOTHES	327	n/a	n/a	0	0	0
2179196	WORD	wordpools/wasnorm_wordpool_576.txt	LTP343	ltpFR2	11	11	LUGGAGE	847	n/a	n/a	0	0	0
2181879	WORD	wordpools/wasnorm_wordpool_576.txt	LTP343	ltpFR2	11	11	APPLE	33	n/a	n/a	0	0	0
2184528	WORD	wordpools/wasnorm_wordpool_576.txt	LTP343	ltpFR2	11	11	SLUG	1329	n/a	n/a	0	0	0
2186977	WORD	wordpools/wasnorm_wordpool_576.txt	LTP343	ltpFR2	11	11	SLIDE	1326	n/a	n/a	0	0	0
2189525	WORD	wordpools/wasnorm_wordpool_576.txt	LTP343	ltpFR2	11	11	PADDING	999	n/a	n/a	0	0	0
2192024	WORD	wordpools/wasnorm_wordpool_576.txt	LTP343	ltpFR2	11	11	LUNCH	849	n/a	n/a	0	0	0
2194756	WORD	wordpools/wasnorm_wordpool_576.txt	LTP343	ltpFR2	11	11	RATTLE	1170	n/a	n/a	0	0	0
2197254	WORD	wordpools/wasnorm_wordpool_576.txt	LTP343	ltpFR2	11	11	CRIB	407	n/a	n/a	0	0	0
2199804	WORD	wordpools/wasnorm_wordpool_576.txt	LTP343	ltpFR2	11	11	PAIL	1002	n/a	n/a	0	0	0
2202235	WORD	wordpools/wasnorm_wordpool_576.txt	LTP343	ltpFR2	11	11	TOURIST	1488	n/a	n/a	0	0	0
2204752	WORD	wordpools/wasnorm_wordpool_576.txt	LTP343	ltpFR2	11	11	CROWN	415	n/a	n/a	0	0	0
2207416	WORD	wordpools/wasnorm_wordpool_576.txt	LTP343	ltpFR2	11	11	KITCHEN	778	n/a	n/a	0	0	0
2210232	WORD	wordpools/wasnorm_wordpool_576.txt	LTP343	ltpFR2	11	11	KNIFE	785	n/a	n/a	0	0	0
2213031	WORD	wordpools/wasnorm_wordpool_576.txt	LTP343	ltpFR2	11	11	FIREPLACE	570	n/a	n/a	0	0	0
2215647	WORD	wordpools/wasnorm_wordpool_576.txt	LTP343	ltpFR2	11	11	SUITCASE	1403	n/a	n/a	0	0	0
2218145	WORD	wordpools/wasnorm_wordpool_576.txt	LTP343	ltpFR2	11	11	INFANT	737	n/a	n/a	0	0	0
2220878	WORD	wordpools/wasnorm_wordpool_576.txt	LTP343	ltpFR2	11	11	BABY	64	n/a	n/a	0	0	0
2223643	WORD	wordpools/wasnorm_wordpool_576.txt	LTP343	ltpFR2	11	11	DRUG	501	n/a	n/a	0	0	0
2226224	WORD	wordpools/wasnorm_wordpool_576.txt	LTP343	ltpFR2	11	11	PEDAL	1037	n/a	n/a	0	0	0
2228924	WORD	wordpools/wasnorm_wordpool_576.txt	LTP343	ltpFR2	11	11	ITEM	746	n/a	n/a	0	0	0
2230540	START	n/a	LTP343	ltpFR2	11	n/a	n/a	n/a	17	n/a	n/a	n/a	n/a
2231634	DISTRACTOR	n/a	LTP343	ltpFR2	11	11	n/a	n/a	n/a	n/a	0	0	0
2231640	PROB	n/a	LTP343	ltpFR2	11	n/a	n/a	n/a	17	13	4	1	8
2233205	PROB	n/a	LTP343	ltpFR2	11	n/a	n/a	n/a	17	15	4	3	8
2234455	PROB	n/a	LTP343	ltpFR2	11	n/a	n/a	n/a	17	16	9	1	6
2235788	PROB	n/a	LTP343	ltpFR2	11	n/a	n/a	n/a	17	21	8	4	9
2238636	PROB	n/a	LTP343	ltpFR2	11	n/a	n/a	n/a	17	20	3	9	8
2239886	PROB	n/a	LTP343	ltpFR2	11	n/a	n/a	n/a	17	17	3	5	9
2241218	PROB	n/a	LTP343	ltpFR2	11	n/a	n/a	n/a	17	20	6	7	7
2243917	PROB	n/a	LTP343	ltpFR2	11	n/a	n/a	n/a	17	14	8	2	4
2247649	PROB	n/a	LTP343	ltpFR2	11	n/a	n/a	n/a	17	9	1	3	5
2250263	PROB	n/a	LTP343	ltpFR2	11	n/a	n/a	n/a	17	17	7	7	3
2252613	PROB	n/a	LTP343	ltpFR2	11	n/a	n/a	n/a	17	14	1	7	6
2254373	STOP	n/a	LTP343	ltpFR2	11	n/a	n/a	n/a	17	n/a	n/a	n/a	n/a
2256345	REC_START	n/a	LTP343	ltpFR2	11	11	n/a	n/a	n/a	n/a	0	0	0
2257994	REC_WORD	wordpools/wasnorm_wordpool_576.txt	LTP343	ltpFR2	11	11	INFANT	737	n/a	n/a	0	0	0
2258901	REC_WORD	wordpools/wasnorm_wordpool_576.txt	LTP343	ltpFR2	11	11	BABY	64	n/a	n/a	0	0	0
2259719	REC_WORD	wordpools/wasnorm_wordpool_576.txt	LTP343	ltpFR2	11	11	CROWN	415	n/a	n/a	0	0	0
2260669	REC_WORD	wordpools/wasnorm_wordpool_576.txt	LTP343	ltpFR2	11	11	KITCHEN	778	n/a	n/a	0	0	0
2261572	REC_WORD	wordpools/wasnorm_wordpool_576.txt	LTP343	ltpFR2	11	11	LUNCH	849	n/a	n/a	0	0	0
2262374	REC_WORD	wordpools/wasnorm_wordpool_576.txt	LTP343	ltpFR2	11	11	FIREPLACE	570	n/a	n/a	0	0	0
2263516	REC_WORD	wordpools/wasnorm_wordpool_576.txt	LTP343	ltpFR2	11	11	SUITCASE	1403	n/a	n/a	0	0	0
2274226	REC_WORD	wordpools/wasnorm_wordpool_576.txt	LTP343	ltpFR2	11	11	PRINCE	1124	n/a	n/a	0	0	0
2346804	WORD	wordpools/wasnorm_wordpool_576.txt	LTP343	ltpFR2	11	12	CHIPMUNK	304	n/a	n/a	0	0	0
2349452	WORD	wordpools/wasnorm_wordpool_576.txt	LTP343	ltpFR2	11	12	SMOG	1330	n/a	n/a	0	0	0
2352151	WORD	wordpools/wasnorm_wordpool_576.txt	LTP343	ltpFR2	11	12	PRINCESS	1125	n/a	n/a	0	0	0
2354801	WORD	wordpools/wasnorm_wordpool_576.txt	LTP343	ltpFR2	11	12	WITNESS	1618	n/a	n/a	0	0	0
2357566	WORD	wordpools/wasnorm_wordpool_576.txt	LTP343	ltpFR2	11	12	COBRA	336	n/a	n/a	0	0	0
2360097	WORD	wordpools/wasnorm_wordpool_576.txt	LTP343	ltpFR2	11	12	SPONGE	1355	n/a	n/a	0	0	0
2362580	WORD	wordpools/wasnorm_wordpool_576.txt	LTP343	ltpFR2	11	12	TEMPLE	1448	n/a	n/a	0	0	0
2365161	WORD	wordpools/wasnorm_wordpool_576.txt	LTP343	ltpFR2	11	12	CHURCH	307	n/a	n/a	0	0	0
2367728	WORD	wordpools/wasnorm_wordpool_576.txt	LTP343	ltpFR2	11	12	CHEST	295	n/a	n/a	0	0	0
2370359	WORD	wordpools/wasnorm_wordpool_576.txt	LTP343	ltpFR2	11	12	POSSUM	1112	n/a	n/a	0	0	0
2373042	WORD	wordpools/wasnorm_wordpool_576.txt	LTP343	ltpFR2	11	12	PIZZA	1079	n/a	n/a	0	0	0
2375808	WORD	wordpools/wasnorm_wordpool_576.txt	LTP343	ltpFR2	11	12	DRESSER	496	n/a	n/a	0	0	0
2378372	WORD	wordpools/wasnorm_wordpool_576.txt	LTP343	ltpFR2	11	12	JEANS	752	n/a	n/a	0	0	0
2381154	WORD	wordpools/wasnorm_wordpool_576.txt	LTP343	ltpFR2	11	12	PENGUIN	1044	n/a	n/a	0	0	0
2383837	WORD	wordpools/wasnorm_wordpool_576.txt	LTP343	ltpFR2	11	12	SKETCH	1315	n/a	n/a	0	0	0
2386569	WORD	wordpools/wasnorm_wordpool_576.txt	LTP343	ltpFR2	11	12	PLUTO	1092	n/a	n/a	0	0	0
2389284	WORD	wordpools/wasnorm_wordpool_576.txt	LTP343	ltpFR2	11	12	BLUEPRINT	142	n/a	n/a	0	0	0
2391717	WORD	wordpools/wasnorm_wordpool_576.txt	LTP343	ltpFR2	11	12	TYPIST	1532	n/a	n/a	0	0	0
2394215	WORD	wordpools/wasnorm_wordpool_576.txt	LTP343	ltpFR2	11	12	PRINCE	1124	n/a	n/a	0	0	0
2397015	WORD	wordpools/wasnorm_wordpool_576.txt	LTP343	ltpFR2	11	12	LODGE	839	n/a	n/a	0	0	0
2399614	WORD	wordpools/wasnorm_wordpool_576.txt	LTP343	ltpFR2	11	12	SALMON	1227	n/a	n/a	0	0	0
2402046	WORD	wordpools/wasnorm_wordpool_576.txt	LTP343	ltpFR2	11	12	CRAB	397	n/a	n/a	0	0	0
2404545	WORD	wordpools/wasnorm_wordpool_576.txt	LTP343	ltpFR2	11	12	CHEMIST	292	n/a	n/a	0	0	0
2407342	WORD	wordpools/wasnorm_wordpool_576.txt	LTP343	ltpFR2	11	12	ATOM	55	n/a	n/a	0	0	0
2408959	START	n/a	LTP343	ltpFR2	11	n/a	n/a	n/a	18	n/a	n/a	n/a	n/a
2409827	DISTRACTOR	n/a	LTP343	ltpFR2	11	12	n/a	n/a	n/a	n/a	0	0	0
2409842	PROB	n/a	LTP343	ltpFR2	11	n/a	n/a	n/a	18	15	6	8	1
2411475	PROB	n/a	LTP343	ltpFR2	11	n/a	n/a	n/a	18	14	4	8	2
2413306	PROB	n/a	LTP343	ltpFR2	11	n/a	n/a	n/a	18	12	4	7	1
2414457	PROB	n/a	LTP343	ltpFR2	11	n/a	n/a	n/a	18	17	7	1	9
2415823	PROB	n/a	LTP343	ltpFR2	11	n/a	n/a	n/a	18	16	7	6	3
2417572	PROB	n/a	LTP343	ltpFR2	11	n/a	n/a	n/a	18	15	5	3	7
2418772	PROB	n/a	LTP343	ltpFR2	11	n/a	n/a	n/a	18	12	1	2	9
2420236	PROB	n/a	LTP343	ltpFR2	11	n/a	n/a	n/a	18	12	8	1	3
2421554	PROB	n/a	LTP343	ltpFR2	11	n/a	n/a	n/a	18	18	9	6	3
2422753	PROB	n/a	LTP343	ltpFR2	11	n/a	n/a	n/a	18	14	2	6	6
2424019	PROB	n/a	LTP343	ltpFR2	11	n/a	n/a	n/a	18	7	4	2	1
2425069	PROB	n/a	LTP343	ltpFR2	11	n/a	n/a	n/a	18	11	7	1	3
2426317	PROB	n/a	LTP343	ltpFR2	11	n/a	n/a	n/a	18	16	3	8	5
2428166	PROB	n/a	LTP343	ltpFR2	11	n/a	n/a	n/a	18	8	4	1	3
2429166	PROB	n/a	LTP343	ltpFR2	11	n/a	n/a	n/a	18	15	9	5	1
2430716	PROB	n/a	LTP343	ltpFR2	11	n/a	n/a	n/a	18	19	5	8	6
2432250	STOP	n/a	LTP343	ltpFR2	11	n/a	n/a	n/a	18	n/a	n/a	n/a	n/a
2434898	REC_START	n/a	LTP343	ltpFR2	11	12	n/a	n/a	n/a	n/a	0	0	0
2435195	REC_WORD	wordpools/wasnorm_wordpool_576.txt	LTP343	ltpFR2	11	12	LODGE	839	n/a	n/a	0	0	0
2436005	REC_WORD	wordpools/wasnorm_wordpool_576.txt	LTP343	ltpFR2	11	12	SALMON	1227	n/a	n/a	0	0	0
2436978	REC_WORD	wordpools/wasnorm_wordpool_576.txt	LTP343	ltpFR2	11	12	CHEMIST	292	n/a	n/a	0	0	0
2437847	REC_WORD	wordpools/wasnorm_wordpool_576.txt	LTP343	ltpFR2	11	12	ATOM	55	n/a	n/a	0	0	0
2439968	REC_WORD	wordpools/wasnorm_wordpool_576.txt	LTP343	ltpFR2	11	12	PRINCESS	1125	n/a	n/a	0	0	0
2441251	REC_WORD	wordpools/wasnorm_wordpool_576.txt	LTP343	ltpFR2	11	12	COBRA	336	n/a	n/a	0	0	0
2442158	REC_WORD	wordpools/wasnorm_wordpool_576.txt	LTP343	ltpFR2	11	12	SPONGE	1355	n/a	n/a	0	0	0
2444563	REC_WORD	wordpools/wasnorm_wordpool_576.txt	LTP343	ltpFR2	11	12	CHEST	295	n/a	n/a	0	0	0
2445597	REC_WORD	wordpools/wasnorm_wordpool_576.txt	LTP343	ltpFR2	11	12	JEANS	752	n/a	n/a	0	0	0
2446795	REC_WORD	wordpools/wasnorm_wordpool_576.txt	LTP343	ltpFR2	11	12	DRAWER	493	n/a	n/a	0	0	0
2447509	REC_WORD	wordpools/wasnorm_wordpool_576.txt	LTP343	ltpFR2	11	12	DRESSER	496	n/a	n/a	0	0	0
2451687	REC_WORD	wordpools/wasnorm_wordpool_576.txt	LTP343	ltpFR2	11	12	WITNESS	1618	n/a	n/a	0	0	0
2454362	REC_WORD	wordpools/wasnorm_wordpool_576.txt	LTP343	ltpFR2	11	12	PIZZA	1079	n/a	n/a	0	0	0
2455209	REC_WORD	wordpools/wasnorm_wordpool_576.txt	LTP343	ltpFR2	11	12	CHIPMUNK	304	n/a	n/a	0	0	0
2456009	REC_WORD	wordpools/wasnorm_wordpool_576.txt	LTP343	ltpFR2	11	12	SMOG	1330	n/a	n/a	0	0	0
2457215	REC_WORD	wordpools/wasnorm_wordpool_576.txt	LTP343	ltpFR2	11	12	POSSUM	1112	n/a	n/a	0	0	0
2459754	REC_WORD	wordpools/wasnorm_wordpool_576.txt	LTP343	ltpFR2	11	12	PIZZA	1079	n/a	n/a	0	0	0
2461769	REC_WORD	wordpools/wasnorm_wordpool_576.txt	LTP343	ltpFR2	11	12	TYPIST	1532	n/a	n/a	0	0	0
2463197	REC_WORD	wordpools/wasnorm_wordpool_576.txt	LTP343	ltpFR2	11	12	PRINCE	1124	n/a	n/a	0	0	0
2466371	REC_WORD	wordpools/wasnorm_wordpool_576.txt	LTP343	ltpFR2	11	12	PENGUIN	1044	n/a	n/a	0	0	0
2467655	REC_WORD	wordpools/wasnorm_wordpool_576.txt	LTP343	ltpFR2	11	12	SKETCH	1315	n/a	n/a	0	0	0
2525355	WORD	wordpools/wasnorm_wordpool_576.txt	LTP343	ltpFR2	11	13	SUPPER	1411	n/a	n/a	0	0	0
2527855	WORD	wordpools/wasnorm_wordpool_576.txt	LTP343	ltpFR2	11	13	OYSTER	995	n/a	n/a	0	0	0
2530387	WORD	wordpools/wasnorm_wordpool_576.txt	LTP343	ltpFR2	11	13	RADISH	1158	n/a	n/a	0	0	0
2533185	WORD	wordpools/wasnorm_wordpool_576.txt	LTP343	ltpFR2	11	13	PERMIT	1051	n/a	n/a	0	0	0
2535719	WORD	wordpools/wasnorm_wordpool_576.txt	LTP343	ltpFR2	11	13	FRECKLE	602	n/a	n/a	0	0	0
2538501	WORD	wordpools/wasnorm_wordpool_576.txt	LTP343	ltpFR2	11	13	CRUTCH	417	n/a	n/a	0	0	0
2541215	WORD	wordpools/wasnorm_wordpool_576.txt	LTP343	ltpFR2	11	13	COTTAGE	384	n/a	n/a	0	0	0
2543881	WORD	wordpools/wasnorm_wordpool_576.txt	LTP343	ltpFR2	11	13	CABIN	211	n/a	n/a	0	0	0
2546680	WORD	wordpools/wasnorm_wordpool_576.txt	LTP343	ltpFR2	11	13	CARROT	249	n/a	n/a	0	0	0
2549428	WORD	wordpools/wasnorm_wordpool_576.txt	LTP343	ltpFR2	11	13	CATCHER	258	n/a	n/a	0	0	0
2552160	WORD	wordpools/wasnorm_wordpool_576.txt	LTP343	ltpFR2	11	13	PLAYGROUND	1087	n/a	n/a	0	0	0
2554893	WORD	wordpools/wasnorm_wordpool_576.txt	LTP343	ltpFR2	11	13	COFFEE	341	n/a	n/a	0	0	0
2557475	WORD	wordpools/wasnorm_wordpool_576.txt	LTP343	ltpFR2	11	13	FOOT	590	n/a	n/a	0	0	0
2560256	WORD	wordpools/wasnorm_wordpool_576.txt	LTP343	ltpFR2	11	13	LAKE	796	n/a	n/a	0	0	0
2562923	WORD	wordpools/wasnorm_wordpool_576.txt	LTP343	ltpFR2	11	13	QUARTER	1148	n/a	n/a	0	0	0
2565638	WORD	wordpools/wasnorm_wordpool_576.txt	LTP343	ltpFR2	11	13	UMPIRE	1535	n/a	n/a	0	0	0
2568303	WORD	wordpools/wasnorm_wordpool_576.txt	LTP343	ltpFR2	11	13	TWEEZERS	1526	n/a	n/a	0	0	0
2571118	WORD	wordpools/wasnorm_wordpool_576.txt	LTP343	ltpFR2	11	13	PIMPLE	1071	n/a	n/a	0	0	0
2573668	WORD	wordpools/wasnorm_wordpool_576.txt	LTP343	ltpFR2	11	13	SODA	1341	n/a	n/a	0	0	0
2576249	WORD	wordpools/wasnorm_wordpool_576.txt	LTP343	ltpFR2	11	13	CANAL	226	n/a	n/a	0	0	0
2578782	WORD	wordpools/wasnorm_wordpool_576.txt	LTP343	ltpFR2	11	13	BUNNY	198	n/a	n/a	0	0	0
2581280	WORD	wordpools/wasnorm_wordpool_576.txt	LTP343	ltpFR2	11	13	RABBIT	1152	n/a	n/a	0	0	0
2583863	WORD	wordpools/wasnorm_wordpool_576.txt	LTP343	ltpFR2	11	13	LAMP	798	n/a	n/a	0	0	0
2586395	WORD	wordpools/wasnorm_wordpool_576.txt	LTP343	ltpFR2	11	13	QUEEN	1149	n/a	n/a	0	0	0
2588012	START	n/a	LTP343	ltpFR2	11	n/a	n/a	n/a	19	n/a	n/a	n/a	n/a
2589069	DISTRACTOR	n/a	LTP343	ltpFR2	11	13	n/a	n/a	n/a	n/a	0	0	0
2589077	PROB	n/a	LTP343	ltpFR2	11	n/a	n/a	n/a	19	11	1	1	9
2590744	PROB	n/a	LTP343	ltpFR2	11	n/a	n/a	n/a	19	14	9	2	3
2592493	PROB	n/a	LTP343	ltpFR2	11	n/a	n/a	n/a	19	14	8	3	7
2594191	PROB	n/a	LTP343	ltpFR2	11	n/a	n/a	n/a	19	10	1	8	1
2596207	PROB	n/a	LTP343	ltpFR2	11	n/a	n/a	n/a	19	26	9	8	9
2599405	PROB	n/a	LTP343	ltpFR2	11	n/a	n/a	n/a	19	8	2	3	3
2600922	PROB	n/a	LTP343	ltpFR2	11	n/a	n/a	n/a	19	10	6	2	2
2602022	PROB	n/a	LTP343	ltpFR2	11	n/a	n/a	n/a	19	5	2	2	1
2602955	PROB	n/a	LTP343	ltpFR2	11	n/a	n/a	n/a	19	10	2	5	3
2604103	PROB	n/a	LTP343	ltpFR2	11	n/a	n/a	n/a	19	14	3	3	8
2607902	PROB	n/a	LTP343	ltpFR2	11	n/a	n/a	n/a	19	8	4	2	2
2609019	PROB	n/a	LTP343	ltpFR2	11	n/a	n/a	n/a	19	16	2	9	5
2610689	STOP	n/a	LTP343	ltpFR2	11	n/a	n/a	n/a	19	n/a	n/a	n/a	n/a
2613917	REC_START	n/a	LTP343	ltpFR2	11	13	n/a	n/a	n/a	n/a	0	0	0
2614335	REC_WORD	wordpools/wasnorm_wordpool_576.txt	LTP343	ltpFR2	11	13	CANAL	226	n/a	n/a	0	0	0
2615210	REC_WORD	wordpools/wasnorm_wordpool_576.txt	LTP343	ltpFR2	11	13	BUNNY	198	n/a	n/a	0	0	0
2615914	REC_WORD	wordpools/wasnorm_wordpool_576.txt	LTP343	ltpFR2	11	13	RABBIT	1152	n/a	n/a	0	0	0
2616762	REC_WORD	wordpools/wasnorm_wordpool_576.txt	LTP343	ltpFR2	11	13	LAMP	798	n/a	n/a	0	0	0
2623125	REC_WORD	wordpools/wasnorm_wordpool_576.txt	LTP343	ltpFR2	11	13	CARROT	249	n/a	n/a	0	0	0
2625568	REC_WORD	wordpools/wasnorm_wordpool_576.txt	LTP343	ltpFR2	11	13	CATCHER	258	n/a	n/a	0	0	0
2626560	REC_WORD	wordpools/wasnorm_wordpool_576.txt	LTP343	ltpFR2	11	13	UMPIRE	1535	n/a	n/a	0	0	0
2704358	DISTRACTOR	n/a	LTP343	ltpFR2	11	14	n/a	n/a	n/a	n/a	0	0	0
2704358	START	n/a	LTP343	ltpFR2	11	n/a	n/a	n/a	20	n/a	n/a	n/a	n/a
2704374	PROB	n/a	LTP343	ltpFR2	11	n/a	n/a	n/a	20	13	4	8	1
2708239	PROB	n/a	LTP343	ltpFR2	11	n/a	n/a	n/a	20	98	4	4	1
2709372	PROB	n/a	LTP343	ltpFR2	11	n/a	n/a	n/a	20	9	5	1	3
2713087	PROB	n/a	LTP343	ltpFR2	11	n/a	n/a	n/a	20	9	2	3	4
2714587	PROB	n/a	LTP343	ltpFR2	11	n/a	n/a	n/a	20	23	9	5	9
2718902	PROB	n/a	LTP343	ltpFR2	11	n/a	n/a	n/a	20	15	6	3	6
2720117	PROB	n/a	LTP343	ltpFR2	11	n/a	n/a	n/a	20	13	5	2	6
2721300	PROB	n/a	LTP343	ltpFR2	11	n/a	n/a	n/a	20	19	7	8	4
2722416	PROB	n/a	LTP343	ltpFR2	11	n/a	n/a	n/a	20	15	2	9	4
2724215	PROB	n/a	LTP343	ltpFR2	11	n/a	n/a	n/a	20	18	8	1	9
2725516	PROB	n/a	LTP343	ltpFR2	11	n/a	n/a	n/a	20	9	2	3	4
2726599	PROB	n/a	LTP343	ltpFR2	11	n/a	n/a	n/a	20	12	2	7	3
2728251	STOP	n/a	LTP343	ltpFR2	11	n/a	n/a	n/a	20	n/a	n/a	n/a	n/a
2729213	WORD	wordpools/wasnorm_wordpool_576.txt	LTP343	ltpFR2	11	14	KEEPER	769	n/a	n/a	0	0	0
2731796	WORD	wordpools/wasnorm_wordpool_576.txt	LTP343	ltpFR2	11	14	THRONE	1461	n/a	n/a	0	0	0
2734394	WORD	wordpools/wasnorm_wordpool_576.txt	LTP343	ltpFR2	11	14	GANGSTER	620	n/a	n/a	0	0	0
2737076	WORD	wordpools/wasnorm_wordpool_576.txt	LTP343	ltpFR2	11	14	SCARECROW	1245	n/a	n/a	0	0	0
2739776	WORD	wordpools/wasnorm_wordpool_576.txt	LTP343	ltpFR2	11	14	SEAGULL	1261	n/a	n/a	0	0	0
2742458	WORD	wordpools/wasnorm_wordpool_576.txt	LTP343	ltpFR2	11	14	PIGEON	1065	n/a	n/a	0	0	0
2745089	WORD	wordpools/wasnorm_wordpool_576.txt	LTP343	ltpFR2	11	14	UNCLE	1536	n/a	n/a	0	0	0
2747856	WORD	wordpools/wasnorm_wordpool_576.txt	LTP343	ltpFR2	11	14	QUAIL	1147	n/a	n/a	0	0	0
2750420	WORD	wordpools/wasnorm_wordpool_576.txt	LTP343	ltpFR2	11	14	GIRL	637	n/a	n/a	0	0	0
2752920	WORD	wordpools/wasnorm_wordpool_576.txt	LTP343	ltpFR2	11	14	GLOBE	641	n/a	n/a	0	0	0
2755401	WORD	wordpools/wasnorm_wordpool_576.txt	LTP343	ltpFR2	11	14	TABLET	1427	n/a	n/a	0	0	0
2758183	WORD	wordpools/wasnorm_wordpool_576.txt	LTP343	ltpFR2	11	14	IGLOO	734	n/a	n/a	0	0	0
2760733	WORD	wordpools/wasnorm_wordpool_576.txt	LTP343	ltpFR2	11	14	NAPKIN	937	n/a	n/a	0	0	0
2763314	WORD	wordpools/wasnorm_wordpool_576.txt	LTP343	ltpFR2	11	14	COOK	372	n/a	n/a	0	0	0
2765898	WORD	wordpools/wasnorm_wordpool_576.txt	LTP343	ltpFR2	11	14	CAMEL	223	n/a	n/a	0	0	0
2768530	WORD	wordpools/wasnorm_wordpool_576.txt	LTP343	ltpFR2	11	14	BRICK	172	n/a	n/a	0	0	0
2771244	WORD	wordpools/wasnorm_wordpool_576.txt	LTP343	ltpFR2	11	14	DIVER	476	n/a	n/a	0	0	0
2773977	WORD	wordpools/wasnorm_wordpool_576.txt	LTP343	ltpFR2	11	14	MONEY	908	n/a	n/a	0	0	0
2776593	WORD	wordpools/wasnorm_wordpool_576.txt	LTP343	ltpFR2	11	14	FREEZER	604	n/a	n/a	0	0	0
2779324	WORD	wordpools/wasnorm_wordpool_576.txt	LTP343	ltpFR2	11	14	INMATE	738	n/a	n/a	0	0	0
2781757	WORD	wordpools/wasnorm_wordpool_576.txt	LTP343	ltpFR2	11	14	SCALLOP	1242	n/a	n/a	0	0	0
2784322	WORD	wordpools/wasnorm_wordpool_576.txt	LTP343	ltpFR2	11	14	SHARK	1275	n/a	n/a	0	0	0
2786805	WORD	wordpools/wasnorm_wordpool_576.txt	LTP343	ltpFR2	11	14	DRILL	497	n/a	n/a	0	0	0
2789520	WORD	wordpools/wasnorm_wordpool_576.txt	LTP343	ltpFR2	11	14	GROUND	666	n/a	n/a	0	0	0
2791135	START	n/a	LTP343	ltpFR2	11	n/a	n/a	n/a	21	n/a	n/a	n/a	n/a
2792057	DISTRACTOR	n/a	LTP343	ltpFR2	11	14	n/a	n/a	n/a	n/a	0	0	0
2792069	PROB	n/a	LTP343	ltpFR2	11	n/a	n/a	n/a	21	13	2	7	4
2795051	PROB	n/a	LTP343	ltpFR2	11	n/a	n/a	n/a	21	22	9	4	9
2796884	PROB	n/a	LTP343	ltpFR2	11	n/a	n/a	n/a	21	11	6	2	3
2798033	PROB	n/a	LTP343	ltpFR2	11	n/a	n/a	n/a	21	16	5	6	5
2799248	PROB	n/a	LTP343	ltpFR2	11	n/a	n/a	n/a	21	11	4	5	2
2800364	PROB	n/a	LTP343	ltpFR2	11	n/a	n/a	n/a	21	17	9	3	5
2802347	PROB	n/a	LTP343	ltpFR2	11	n/a	n/a	n/a	21	12	7	4	1
2803531	PROB	n/a	LTP343	ltpFR2	11	n/a	n/a	n/a	21	15	7	2	6
2805195	PROB	n/a	LTP343	ltpFR2	11	n/a	n/a	n/a	21	22	9	5	8
2808678	PROB	n/a	LTP343	ltpFR2	11	n/a	n/a	n/a	21	198	8	2	9
2809828	PROB	n/a	LTP343	ltpFR2	11	n/a	n/a	n/a	21	12	3	8	1
2810877	PROB	n/a	LTP343	ltpFR2	11	n/a	n/a	n/a	21	22	9	5	8
2812876	PROB	n/a	LTP343	ltpFR2	11	n/a	n/a	n/a	21	21	7	6	8
2814591	STOP	n/a	LTP343	ltpFR2	11	n/a	n/a	n/a	21	n/a	n/a	n/a	n/a
2817058	REC_START	n/a	LTP343	ltpFR2	11	14	n/a	n/a	n/a	n/a	0	0	0
2819950	REC_WORD	wordpools/wasnorm_wordpool_576.txt	LTP343	ltpFR2	11	14	SCALLOP	1242	n/a	n/a	0	0	0
2834637	REC_WORD	wordpools/wasnorm_wordpool_576.txt	LTP343	ltpFR2	11	14	DRILL	497	n/a	n/a	0	0	0
2907500	DISTRACTOR	n/a	LTP343	ltpFR2	11	15	n/a	n/a	n/a	n/a	0	0	0
2907500	START	n/a	LTP343	ltpFR2	11	n/a	n/a	n/a	22	n/a	n/a	n/a	n/a
2907517	PROB	n/a	LTP343	ltpFR2	11	n/a	n/a	n/a	22	16	2	7	7
2909215	PROB	n/a	LTP343	ltpFR2	11	n/a	n/a	n/a	22	12	3	5	4
2910448	PROB	n/a	LTP343	ltpFR2	11	n/a	n/a	n/a	22	17	6	8	3
2912798	PROB	n/a	LTP343	ltpFR2	11	n/a	n/a	n/a	22	7	1	3	3
2913980	PROB	n/a	LTP343	ltpFR2	11	n/a	n/a	n/a	22	22	9	6	7
2915813	PROB	n/a	LTP343	ltpFR2	11	n/a	n/a	n/a	22	15	3	7	5
2916913	PROB	n/a	LTP343	ltpFR2	11	n/a	n/a	n/a	22	18	7	7	4
2918128	PROB	n/a	LTP343	ltpFR2	11	n/a	n/a	n/a	22	18	7	3	8
2919277	PROB	n/a	LTP343	ltpFR2	11	n/a	n/a	n/a	22	20	5	9	6
2920727	PROB	n/a	LTP343	ltpFR2	11	n/a	n/a	n/a	22	27	9	9	9
2921960	PROB	n/a	LTP343	ltpFR2	11	n/a	n/a	n/a	22	7	3	1	3
2923159	PROB	n/a	LTP343	ltpFR2	11	n/a	n/a	n/a	22	8	2	2	4
2924375	PROB	n/a	LTP343	ltpFR2	11	n/a	n/a	n/a	22	13	5	5	3
2925509	PROB	n/a	LTP343	ltpFR2	11	n/a	n/a	n/a	22	16	5	9	2
2926941	PROB	n/a	LTP343	ltpFR2	11	n/a	n/a	n/a	22	17	8	5	4
2928807	PROB	n/a	LTP343	ltpFR2	11	n/a	n/a	n/a	22	19	7	5	7
2930394	STOP	n/a	LTP343	ltpFR2	11	n/a	n/a	n/a	22	n/a	n/a	n/a	n/a
2932672	WORD	wordpools/wasnorm_wordpool_576.txt	LTP343	ltpFR2	11	15	FOOTBALL	591	n/a	n/a	0	0	0
2935187	WORD	wordpools/wasnorm_wordpool_576.txt	LTP343	ltpFR2	11	15	ULCER	1533	n/a	n/a	0	0	0
2937803	WORD	wordpools/wasnorm_wordpool_576.txt	LTP343	ltpFR2	11	15	LIVER	833	n/a	n/a	0	0	0
2940434	WORD	wordpools/wasnorm_wordpool_576.txt	LTP343	ltpFR2	11	15	MUMMY	932	n/a	n/a	0	0	0
2943266	WORD	wordpools/wasnorm_wordpool_576.txt	LTP343	ltpFR2	11	15	EGYPT	519	n/a	n/a	0	0	0
2945699	WORD	wordpools/wasnorm_wordpool_576.txt	LTP343	ltpFR2	11	15	MARINE	869	n/a	n/a	0	0	0
2948214	WORD	wordpools/wasnorm_wordpool_576.txt	LTP343	ltpFR2	11	15	SIDEWALK	1303	n/a	n/a	0	0	0
2950997	WORD	wordpools/wasnorm_wordpool_576.txt	LTP343	ltpFR2	11	15	RECORD	1176	n/a	n/a	0	0	0
2953563	WORD	wordpools/wasnorm_wordpool_576.txt	LTP343	ltpFR2	11	15	POPCORN	1104	n/a	n/a	0	0	0
2956210	WORD	wordpools/wasnorm_wordpool_576.txt	LTP343	ltpFR2	11	15	HARP	689	n/a	n/a	0	0	0
2958977	WORD	wordpools/wasnorm_wordpool_576.txt	LTP343	ltpFR2	11	15	DIME	466	n/a	n/a	0	0	0
2961609	WORD	wordpools/wasnorm_wordpool_576.txt	LTP343	ltpFR2	11	15	CRITIC	410	n/a	n/a	0	0	0
2964123	WORD	wordpools/wasnorm_wordpool_576.txt	LTP343	ltpFR2	11	15	WHISTLE	1606	n/a	n/a	0	0	0
2966907	WORD	wordpools/wasnorm_wordpool_576.txt	LTP343	ltpFR2	11	15	PERCH	1048	n/a	n/a	0	0	0
2969472	WORD	wordpools/wasnorm_wordpool_576.txt	LTP343	ltpFR2	11	15	DOUGHNUT	490	n/a	n/a	0	0	0
2972103	WORD	wordpools/wasnorm_wordpool_576.txt	LTP343	ltpFR2	11	15	BLADE	134	n/a	n/a	0	0	0
2974586	WORD	wordpools/wasnorm_wordpool_576.txt	LTP343	ltpFR2	11	15	MAILBOX	857	n/a	n/a	0	0	0
2977384	WORD	wordpools/wasnorm_wordpool_576.txt	LTP343	ltpFR2	11	15	MILDEW	893	n/a	n/a	0	0	0
2979984	WORD	wordpools/wasnorm_wordpool_576.txt	LTP343	ltpFR2	11	15	NOMAD	955	n/a	n/a	0	0	0
2982415	WORD	wordpools/wasnorm_wordpool_576.txt	LTP343	ltpFR2	11	15	TROMBONE	1508	n/a	n/a	0	0	0
2985114	WORD	wordpools/wasnorm_wordpool_576.txt	LTP343	ltpFR2	11	15	PORTRAIT	1111	n/a	n/a	0	0	0
2987697	WORD	wordpools/wasnorm_wordpool_576.txt	LTP343	ltpFR2	11	15	BANKER	84	n/a	n/a	0	0	0
2990428	WORD	wordpools/wasnorm_wordpool_576.txt	LTP343	ltpFR2	11	15	MISSILE	900	n/a	n/a	0	0	0
2993244	WORD	wordpools/wasnorm_wordpool_576.txt	LTP343	ltpFR2	11	15	ROCKET	1202	n/a	n/a	0	0	0
2994861	START	n/a	LTP343	ltpFR2	11	n/a	n/a	n/a	23	n/a	n/a	n/a	n/a
2995777	DISTRACTOR	n/a	LTP343	ltpFR2	11	15	n/a	n/a	n/a	n/a	0	0	0
2995793	PROB	n/a	LTP343	ltpFR2	11	n/a	n/a	n/a	23	11	2	4	5
2997676	PROB	n/a	LTP343	ltpFR2	11	n/a	n/a	n/a	23	15	1	5	9
2999074	PROB	n/a	LTP343	ltpFR2	11	n/a	n/a	n/a	23	8	1	4	3
3000775	PROB	n/a	LTP343	ltpFR2	11	n/a	n/a	n/a	23	16	2	9	5
3002389	PROB	n/a	LTP343	ltpFR2	11	n/a	n/a	n/a	23	21	6	6	9
3004322	PROB	n/a	LTP343	ltpFR2	11	n/a	n/a	n/a	23	15	4	2	9
3005539	PROB	n/a	LTP343	ltpFR2	11	n/a	n/a	n/a	23	9	1	1	7
3006805	PROB	n/a	LTP343	ltpFR2	11	n/a	n/a	n/a	23	23	7	7	9
3010186	PROB	n/a	LTP343	ltpFR2	11	n/a	n/a	n/a	23	13	6	4	3
3011335	PROB	n/a	LTP343	ltpFR2	11	n/a	n/a	n/a	23	6	1	2	3
3012569	PROB	n/a	LTP343	ltpFR2	11	n/a	n/a	n/a	23	9	3	1	5
3014035	PROB	n/a	LTP343	ltpFR2	11	n/a	n/a	n/a	23	10	3	1	6
3015518	PROB	n/a	LTP343	ltpFR2	11	n/a	n/a	n/a	23	12	5	4	3
3017199	PROB	n/a	LTP343	ltpFR2	11	n/a	n/a	n/a	23	17	8	7	2
3018629	STOP	n/a	LTP343	ltpFR2	11	n/a	n/a	n/a	23	n/a	n/a	n/a	n/a
3020800	REC_START	n/a	LTP343	ltpFR2	11	15	n/a	n/a	n/a	n/a	0	0	0
3021182	REC_WORD	wordpools/wasnorm_wordpool_576.txt	LTP343	ltpFR2	11	15	CRITIC	410	n/a	n/a	0	0	0
3021923	REC_WORD	wordpools/wasnorm_wordpool_576.txt	LTP343	ltpFR2	11	15	WHISTLE	1606	n/a	n/a	0	0	0
3022854	REC_WORD	wordpools/wasnorm_wordpool_576.txt	LTP343	ltpFR2	11	15	DOUGHNUT	490	n/a	n/a	0	0	0
3023612	REC_WORD	wordpools/wasnorm_wordpool_576.txt	LTP343	ltpFR2	11	15	BLADE	134	n/a	n/a	0	0	0
3024393	REC_WORD	wordpools/wasnorm_wordpool_576.txt	LTP343	ltpFR2	11	15	BANKER	84	n/a	n/a	0	0	0
3025387	REC_WORD	wordpools/wasnorm_wordpool_576.txt	LTP343	ltpFR2	11	15	PORTRAIT	1111	n/a	n/a	0	0	0
3027450	REC_WORD	wordpools/wasnorm_wordpool_576.txt	LTP343	ltpFR2	11	15	MUMMY	932	n/a	n/a	0	0	0
3028449	REC_WORD	wordpools/wasnorm_wordpool_576.txt	LTP343	ltpFR2	11	15	EGYPT	519	n/a	n/a	0	0	0
3029586	REC_WORD	wordpools/wasnorm_wordpool_576.txt	LTP343	ltpFR2	11	15	ULCER	1533	n/a	n/a	0	0	0
3030485	REC_WORD	wordpools/wasnorm_wordpool_576.txt	LTP343	ltpFR2	11	15	LIVER	833	n/a	n/a	0	0	0
3032244	REC_WORD	wordpools/wasnorm_wordpool_576.txt	LTP343	ltpFR2	11	15	FOOTBALL	591	n/a	n/a	0	0	0
3041852	REC_WORD	wordpools/wasnorm_wordpool_576.txt	LTP343	ltpFR2	11	15	DIME	466	n/a	n/a	0	0	0
3111257	WORD	wordpools/wasnorm_wordpool_576.txt	LTP343	ltpFR2	11	16	TERMITE	1451	n/a	n/a	0	0	0
3113890	WORD	wordpools/wasnorm_wordpool_576.txt	LTP343	ltpFR2	11	16	VAGRANT	1544	n/a	n/a	0	0	0
3116489	WORD	wordpools/wasnorm_wordpool_576.txt	LTP343	ltpFR2	11	16	CLIMBER	323	n/a	n/a	0	0	0
3119153	WORD	wordpools/wasnorm_wordpool_576.txt	LTP343	ltpFR2	11	16	COCOON	339	n/a	n/a	0	0	0
3121586	WORD	wordpools/wasnorm_wordpool_576.txt	LTP343	ltpFR2	11	16	LAGOON	795	n/a	n/a	0	0	0
3124251	WORD	wordpools/wasnorm_wordpool_576.txt	LTP343	ltpFR2	11	16	MUFFIN	929	n/a	n/a	0	0	0
3127034	WORD	wordpools/wasnorm_wordpool_576.txt	LTP343	ltpFR2	11	16	ASIA	46	n/a	n/a	0	0	0
3129799	WORD	wordpools/wasnorm_wordpool_576.txt	LTP343	ltpFR2	11	16	FARMER	553	n/a	n/a	0	0	0
3132498	WORD	wordpools/wasnorm_wordpool_576.txt	LTP343	ltpFR2	11	16	COCKTAIL	338	n/a	n/a	0	0	0
3134980	WORD	wordpools/wasnorm_wordpool_576.txt	LTP343	ltpFR2	11	16	PARENT	1013	n/a	n/a	0	0	0
3137762	WORD	wordpools/wasnorm_wordpool_576.txt	LTP343	ltpFR2	11	16	SCALPEL	1243	n/a	n/a	0	0	0
3140360	WORD	wordpools/wasnorm_wordpool_576.txt	LTP343	ltpFR2	11	16	BULLET	194	n/a	n/a	0	0	0
3143092	WORD	wordpools/wasnorm_wordpool_576.txt	LTP343	ltpFR2	11	16	BARREL	91	n/a	n/a	0	0	0
3145825	WORD	wordpools/wasnorm_wordpool_576.txt	LTP343	ltpFR2	11	16	COIN	343	n/a	n/a	0	0	0
3148357	WORD	wordpools/wasnorm_wordpool_576.txt	LTP343	ltpFR2	11	16	RECEIPT	1173	n/a	n/a	0	0	0
3150907	WORD	wordpools/wasnorm_wordpool_576.txt	LTP343	ltpFR2	11	16	SANDWICH	1232	n/a	n/a	0	0	0
3153455	WORD	wordpools/wasnorm_wordpool_576.txt	LTP343	ltpFR2	11	16	STONE	1385	n/a	n/a	0	0	0
3156004	WORD	wordpools/wasnorm_wordpool_576.txt	LTP343	ltpFR2	11	16	ICEBERG	731	n/a	n/a	0	0	0
3158570	WORD	wordpools/wasnorm_wordpool_576.txt	LTP343	ltpFR2	11	16	SCARF	1246	n/a	n/a	0	0	0
3161168	WORD	wordpools/wasnorm_wordpool_576.txt	LTP343	ltpFR2	11	16	GHETTO	633	n/a	n/a	0	0	0
3163867	WORD	wordpools/wasnorm_wordpool_576.txt	LTP343	ltpFR2	11	16	NURSE	963	n/a	n/a	0	0	0
3166315	WORD	wordpools/wasnorm_wordpool_576.txt	LTP343	ltpFR2	11	16	LONDON	843	n/a	n/a	0	0	0
3168898	WORD	wordpools/wasnorm_wordpool_576.txt	LTP343	ltpFR2	11	16	DONKEY	484	n/a	n/a	0	0	0
3171413	WORD	wordpools/wasnorm_wordpool_576.txt	LTP343	ltpFR2	11	16	BRANCH	168	n/a	n/a	0	0	0
3173030	START	n/a	LTP343	ltpFR2	11	n/a	n/a	n/a	24	n/a	n/a	n/a	n/a
3174147	DISTRACTOR	n/a	LTP343	ltpFR2	11	16	n/a	n/a	n/a	n/a	0	0	0
3174162	PROB	n/a	LTP343	ltpFR2	11	n/a	n/a	n/a	24	18	8	1	9
3175779	PROB	n/a	LTP343	ltpFR2	11	n/a	n/a	n/a	24	15	3	4	8
3176995	PROB	n/a	LTP343	ltpFR2	11	n/a	n/a	n/a	24	14	6	7	1
3178376	PROB	n/a	LTP343	ltpFR2	11	n/a	n/a	n/a	24	13	1	3	9
3180159	PROB	n/a	LTP343	ltpFR2	11	n/a	n/a	n/a	24	11	9	1	1
3181308	PROB	n/a	LTP343	ltpFR2	11	n/a	n/a	n/a	24	12	4	7	1
3183042	PROB	n/a	LTP343	ltpFR2	11	n/a	n/a	n/a	24	16	3	7	6
3184340	PROB	n/a	LTP343	ltpFR2	11	n/a	n/a	n/a	24	7	2	1	4
3185474	PROB	n/a	LTP343	ltpFR2	11	n/a	n/a	n/a	24	12	1	4	7
3187106	PROB	n/a	LTP343	ltpFR2	11	n/a	n/a	n/a	24	19	9	8	2
3188606	PROB	n/a	LTP343	ltpFR2	11	n/a	n/a	n/a	24	12	2	8	2
3189939	PROB	n/a	LTP343	ltpFR2	11	n/a	n/a	n/a	24	16	5	5	6
3191538	PROB	n/a	LTP343	ltpFR2	11	n/a	n/a	n/a	24	10	5	2	3
3194203	PROB	n/a	LTP343	ltpFR2	11	n/a	n/a	n/a	24	9	6	2	1
3195402	PROB	n/a	LTP343	ltpFR2	11	n/a	n/a	n/a	24	21	9	8	4
3196723	STOP	n/a	LTP343	ltpFR2	11	n/a	n/a	n/a	24	n/a	n/a	n/a	n/a
3198835	REC_START	n/a	LTP343	ltpFR2	11	16	n/a	n/a	n/a	n/a	0	0	0
3199371	REC_WORD	wordpools/wasnorm_wordpool_576.txt	LTP343	ltpFR2	11	16	SCARF	1246	n/a	n/a	0	0	0
3200498	REC_WORD	wordpools/wasnorm_wordpool_576.txt	LTP343	ltpFR2	11	16	GHETTO	633	n/a	n/a	0	0	0
3201732	REC_WORD	wordpools/wasnorm_wordpool_576.txt	LTP343	ltpFR2	11	16	LONDON	843	n/a	n/a	0	0	0
3202613	REC_WORD	wordpools/wasnorm_wordpool_576.txt	LTP343	ltpFR2	11	16	BRANCH	168	n/a	n/a	0	0	0
3203646	REC_WORD	wordpools/wasnorm_wordpool_576.txt	LTP343	ltpFR2	11	16	NURSE	963	n/a	n/a	0	0	0
3206998	REC_WORD	wordpools/wasnorm_wordpool_576.txt	LTP343	ltpFR2	11	16	TERMITE	1451	n/a	n/a	0	0	0
3207764	REC_WORD	wordpools/wasnorm_wordpool_576.txt	LTP343	ltpFR2	11	16	COCOON	339	n/a	n/a	0	0	0
3211016	REC_WORD	wordpools/wasnorm_wordpool_576.txt	LTP343	ltpFR2	11	16	ASIA	46	n/a	n/a	0	0	0
3212129	REC_WORD	wordpools/wasnorm_wordpool_576.txt	LTP343	ltpFR2	11	16	MUFFIN	929	n/a	n/a	0	0	0
3213053	REC_WORD	wordpools/wasnorm_wordpool_576.txt	LTP343	ltpFR2	11	16	VAGRANT	1544	n/a	n/a	0	0	0
3275382	REST_REWET	n/a	LTP343	ltpFR2	11	16	n/a	n/a	n/a	n/a	0	0	0
3438209	WORD	wordpools/wasnorm_wordpool_576.txt	LTP343	ltpFR2	11	17	TART	1436	n/a	n/a	0	0	0
3441025	WORD	wordpools/wasnorm_wordpool_576.txt	LTP343	ltpFR2	11	17	BANJO	82	n/a	n/a	0	0	0
3443691	WORD	wordpools/wasnorm_wordpool_576.txt	LTP343	ltpFR2	11	17	RACKET	1155	n/a	n/a	0	0	0
3446138	WORD	wordpools/wasnorm_wordpool_576.txt	LTP343	ltpFR2	11	17	GRIZZLY	662	n/a	n/a	0	0	0
3448722	WORD	wordpools/wasnorm_wordpool_576.txt	LTP343	ltpFR2	11	17	PISTOL	1075	n/a	n/a	0	0	0
3451253	WORD	wordpools/wasnorm_wordpool_576.txt	LTP343	ltpFR2	11	17	BUCKET	184	n/a	n/a	0	0	0
3453686	WORD	wordpools/wasnorm_wordpool_576.txt	LTP343	ltpFR2	11	17	MOTEL	919	n/a	n/a	0	0	0
3456267	WORD	wordpools/wasnorm_wordpool_576.txt	LTP343	ltpFR2	11	17	CASKET	255	n/a	n/a	0	0	0
3458767	WORD	wordpools/wasnorm_wordpool_576.txt	LTP343	ltpFR2	11	17	BUBBLE	183	n/a	n/a	0	0	0
3461348	WORD	wordpools/wasnorm_wordpool_576.txt	LTP343	ltpFR2	11	17	COWBOY	395	n/a	n/a	0	0	0
3463998	WORD	wordpools/wasnorm_wordpool_576.txt	LTP343	ltpFR2	11	17	HOOK	715	n/a	n/a	0	0	0
3466563	WORD	wordpools/wasnorm_wordpool_576.txt	LTP343	ltpFR2	11	17	COD	340	n/a	n/a	0	0	0
3469378	WORD	wordpools/wasnorm_wordpool_576.txt	LTP343	ltpFR2	11	17	AGENT	10	n/a	n/a	0	0	0
3471911	WORD	wordpools/wasnorm_wordpool_576.txt	LTP343	ltpFR2	11	17	BEAST	108	n/a	n/a	0	0	0
3474460	WORD	wordpools/wasnorm_wordpool_576.txt	LTP343	ltpFR2	11	17	LABEL	790	n/a	n/a	0	0	0
3477026	WORD	wordpools/wasnorm_wordpool_576.txt	LTP343	ltpFR2	11	17	BACKBONE	66	n/a	n/a	0	0	0
3479674	WORD	wordpools/wasnorm_wordpool_576.txt	LTP343	ltpFR2	11	17	MARROW	872	n/a	n/a	0	0	0
3482189	WORD	wordpools/wasnorm_wordpool_576.txt	LTP343	ltpFR2	11	17	MESSAGE	888	n/a	n/a	0	0	0
3484789	WORD	wordpools/wasnorm_wordpool_576.txt	LTP343	ltpFR2	11	17	GREASE	660	n/a	n/a	0	0	0
3487287	WORD	wordpools/wasnorm_wordpool_576.txt	LTP343	ltpFR2	11	17	DENTIST	447	n/a	n/a	0	0	0
3490053	WORD	wordpools/wasnorm_wordpool_576.txt	LTP343	ltpFR2	11	17	AWARD	63	n/a	n/a	0	0	0
3492835	WORD	wordpools/wasnorm_wordpool_576.txt	LTP343	ltpFR2	11	17	STREAM	1392	n/a	n/a	0	0	0
3495650	WORD	wordpools/wasnorm_wordpool_576.txt	LTP343	ltpFR2	11	17	GLASS	639	n/a	n/a	0	0	0
3498115	WORD	wordpools/wasnorm_wordpool_576.txt	LTP343	ltpFR2	11	17	POLICE	1098	n/a	n/a	0	0	0
3499732	START	n/a	LTP343	ltpFR2	11	n/a	n/a	n/a	25	n/a	n/a	n/a	n/a
3500777	DISTRACTOR	n/a	LTP343	ltpFR2	11	17	n/a	n/a	n/a	n/a	0	0	0
3500781	PROB	n/a	LTP343	ltpFR2	11	n/a	n/a	n/a	25	22	9	4	9
3502830	PROB	n/a	LTP343	ltpFR2	11	n/a	n/a	n/a	25	6	1	4	1
3503880	PROB	n/a	LTP343	ltpFR2	11	n/a	n/a	n/a	25	24	7	8	9
3506046	PROB	n/a	LTP343	ltpFR2	11	n/a	n/a	n/a	25	13	6	6	1
3507161	PROB	n/a	LTP343	ltpFR2	11	n/a	n/a	n/a	25	19	5	6	8
3508410	PROB	n/a	LTP343	ltpFR2	11	n/a	n/a	n/a	25	15	5	5	5
3509260	PROB	n/a	LTP343	ltpFR2	11	n/a	n/a	n/a	25	13	2	6	5
3510860	PROB	n/a	LTP343	ltpFR2	11	n/a	n/a	n/a	25	13	4	4	5
3512408	PROB	n/a	LTP343	ltpFR2	11	n/a	n/a	n/a	25	11	8	1	2
3513476	PROB	n/a	LTP343	ltpFR2	11	n/a	n/a	n/a	25	16	4	3	9
3514908	PROB	n/a	LTP343	ltpFR2	11	n/a	n/a	n/a	25	15	6	4	5
3516440	PROB	n/a	LTP343	ltpFR2	11	n/a	n/a	n/a	25	12	1	8	3
3517590	PROB	n/a	LTP343	ltpFR2	11	n/a	n/a	n/a	25	19	4	7	8
3518807	PROB	n/a	LTP343	ltpFR2	11	n/a	n/a	n/a	25	14	9	2	3
3520188	PROB	n/a	LTP343	ltpFR2	11	n/a	n/a	n/a	25	14	7	6	1
3521522	PROB	n/a	LTP343	ltpFR2	11	n/a	n/a	n/a	25	18	8	5	5
3522428	STOP	n/a	LTP343	ltpFR2	11	n/a	n/a	n/a	25	n/a	n/a	n/a	n/a
3525504	REC_START	n/a	LTP343	ltpFR2	11	17	n/a	n/a	n/a	n/a	0	0	0
3527018	REC_WORD	wordpools/wasnorm_wordpool_576.txt	LTP343	ltpFR2	11	17	COWBOY	395	n/a	n/a	0	0	0
3528069	REC_WORD	wordpools/wasnorm_wordpool_576.txt	LTP343	ltpFR2	11	17	BANJO	82	n/a	n/a	0	0	0
3528958	REC_WORD	wordpools/wasnorm_wordpool_576.txt	LTP343	ltpFR2	11	17	RACKET	1155	n/a	n/a	0	0	0
3534941	REC_WORD	wordpools/wasnorm_wordpool_576.txt	LTP343	ltpFR2	11	17	CASKET	255	n/a	n/a	0	0	0
3535871	REC_WORD	wordpools/wasnorm_wordpool_576.txt	LTP343	ltpFR2	11	17	BUBBLE	183	n/a	n/a	0	0	0
3538292	REC_WORD	wordpools/wasnorm_wordpool_576.txt	LTP343	ltpFR2	11	17	AGENT	10	n/a	n/a	0	0	0
3582175	REC_WORD	wordpools/wasnorm_wordpool_576.txt	LTP343	ltpFR2	11	17	TART	1436	n/a	n/a	0	0	0
3615946	DISTRACTOR	n/a	LTP343	ltpFR2	11	18	n/a	n/a	n/a	n/a	0	0	0
3615946	START	n/a	LTP343	ltpFR2	11	n/a	n/a	n/a	26	n/a	n/a	n/a	n/a
3615963	PROB	n/a	LTP343	ltpFR2	11	n/a	n/a	n/a	26	20	8	8	4
3619877	PROB	n/a	LTP343	ltpFR2	11	n/a	n/a	n/a	26	12	4	4	4
3620944	PROB	n/a	LTP343	ltpFR2	11	n/a	n/a	n/a	26	220	7	9	4
3622125	PROB	n/a	LTP343	ltpFR2	11	n/a	n/a	n/a	26	21	3	9	9
3623826	PROB	n/a	LTP343	ltpFR2	11	n/a	n/a	n/a	26	15	6	8	1
3624792	PROB	n/a	LTP343	ltpFR2	11	n/a	n/a	n/a	26	9	2	3	4
3627607	PROB	n/a	LTP343	ltpFR2	11	n/a	n/a	n/a	26	14	2	7	5
3629089	PROB	n/a	LTP343	ltpFR2	11	n/a	n/a	n/a	26	22	7	6	9
3631472	PROB	n/a	LTP343	ltpFR2	11	n/a	n/a	n/a	26	14	1	6	7
3632688	PROB	n/a	LTP343	ltpFR2	11	n/a	n/a	n/a	26	19	9	5	5
3633671	PROB	n/a	LTP343	ltpFR2	11	n/a	n/a	n/a	26	22	9	9	4
3635269	PROB	n/a	LTP343	ltpFR2	11	n/a	n/a	n/a	26	16	2	8	6
3636369	PROB	n/a	LTP343	ltpFR2	11	n/a	n/a	n/a	26	18	6	9	3
3637553	PROB	n/a	LTP343	ltpFR2	11	n/a	n/a	n/a	26	17	6	8	3
3639088	STOP	n/a	LTP343	ltpFR2	11	n/a	n/a	n/a	26	n/a	n/a	n/a	n/a
3641117	WORD	wordpools/wasnorm_wordpool_576.txt	LTP343	ltpFR2	11	18	SLIME	1327	n/a	n/a	0	0	0
3643650	WORD	wordpools/wasnorm_wordpool_576.txt	LTP343	ltpFR2	11	18	OFFICE	972	n/a	n/a	0	0	0
3646331	WORD	wordpools/wasnorm_wordpool_576.txt	LTP343	ltpFR2	11	18	SCULPTURE	1258	n/a	n/a	0	0	0
3649064	WORD	wordpools/wasnorm_wordpool_576.txt	LTP343	ltpFR2	11	18	ARMY	39	n/a	n/a	0	0	0
3651496	WORD	wordpools/wasnorm_wordpool_576.txt	LTP343	ltpFR2	11	18	FLEET	578	n/a	n/a	0	0	0
3654261	WORD	wordpools/wasnorm_wordpool_576.txt	LTP343	ltpFR2	11	18	PREACHER	1119	n/a	n/a	0	0	0
3657011	WORD	wordpools/wasnorm_wordpool_576.txt	LTP343	ltpFR2	11	18	MEDAL	885	n/a	n/a	0	0	0
3659676	WORD	wordpools/wasnorm_wordpool_576.txt	LTP343	ltpFR2	11	18	BACON	67	n/a	n/a	0	0	0
3662475	WORD	wordpools/wasnorm_wordpool_576.txt	LTP343	ltpFR2	11	18	ORANGE	980	n/a	n/a	0	0	0
3665239	WORD	wordpools/wasnorm_wordpool_576.txt	LTP343	ltpFR2	11	18	PARSLEY	1016	n/a	n/a	0	0	0
3667922	WORD	wordpools/wasnorm_wordpool_576.txt	LTP343	ltpFR2	11	18	SALT	1229	n/a	n/a	0	0	0
3670504	WORD	wordpools/wasnorm_wordpool_576.txt	LTP343	ltpFR2	11	18	DANCER	437	n/a	n/a	0	0	0
3673102	WORD	wordpools/wasnorm_wordpool_576.txt	LTP343	ltpFR2	11	18	COLONEL	348	n/a	n/a	0	0	0
3675569	WORD	wordpools/wasnorm_wordpool_576.txt	LTP343	ltpFR2	11	18	PARTNER	1017	n/a	n/a	0	0	0
3678250	WORD	wordpools/wasnorm_wordpool_576.txt	LTP343	ltpFR2	11	18	SHORTCAKE	1292	n/a	n/a	0	0	0
3680883	WORD	wordpools/wasnorm_wordpool_576.txt	LTP343	ltpFR2	11	18	OMELET	976	n/a	n/a	0	0	0
3683364	WORD	wordpools/wasnorm_wordpool_576.txt	LTP343	ltpFR2	11	18	PACKAGE	997	n/a	n/a	0	0	0
3686080	WORD	wordpools/wasnorm_wordpool_576.txt	LTP343	ltpFR2	11	18	TABLE	1426	n/a	n/a	0	0	0
3688896	WORD	wordpools/wasnorm_wordpool_576.txt	LTP343	ltpFR2	11	18	TRUCK	1512	n/a	n/a	0	0	0
3691411	WORD	wordpools/wasnorm_wordpool_576.txt	LTP343	ltpFR2	11	18	BOX	159	n/a	n/a	0	0	0
3694176	WORD	wordpools/wasnorm_wordpool_576.txt	LTP343	ltpFR2	11	18	WORKER	1621	n/a	n/a	0	0	0
3696876	WORD	wordpools/wasnorm_wordpool_576.txt	LTP343	ltpFR2	11	18	PLASTER	1085	n/a	n/a	0	0	0
3699424	WORD	wordpools/wasnorm_wordpool_576.txt	LTP343	ltpFR2	11	18	POISON	1096	n/a	n/a	0	0	0
3702156	WORD	wordpools/wasnorm_wordpool_576.txt	LTP343	ltpFR2	11	18	BURGLAR	200	n/a	n/a	0	0	0
3703773	START	n/a	LTP343	ltpFR2	11	n/a	n/a	n/a	27	n/a	n/a	n/a	n/a
3704626	DISTRACTOR	n/a	LTP343	ltpFR2	11	18	n/a	n/a	n/a	n/a	0	0	0
3704639	PROB	n/a	LTP343	ltpFR2	11	n/a	n/a	n/a	27	22	9	4	9
3706571	PROB	n/a	LTP343	ltpFR2	11	n/a	n/a	n/a	27	15	4	2	9
3707771	PROB	n/a	LTP343	ltpFR2	11	n/a	n/a	n/a	27	7	3	1	3
3708970	PROB	n/a	LTP343	ltpFR2	11	n/a	n/a	n/a	27	12	5	3	4
3710085	PROB	n/a	LTP343	ltpFR2	11	n/a	n/a	n/a	27	18	3	7	8
3711168	PROB	n/a	LTP343	ltpFR2	11	n/a	n/a	n/a	27	16	6	4	6
3712969	PROB	n/a	LTP343	ltpFR2	11	n/a	n/a	n/a	27	16	5	8	3
3714484	PROB	n/a	LTP343	ltpFR2	11	n/a	n/a	n/a	27	18	3	6	9
3715834	PROB	n/a	LTP343	ltpFR2	11	n/a	n/a	n/a	27	14	9	4	1
3717883	PROB	n/a	LTP343	ltpFR2	11	n/a	n/a	n/a	27	9	6	1	2
3720331	PROB	n/a	LTP343	ltpFR2	11	n/a	n/a	n/a	27	23	9	8	6
3721798	PROB	n/a	LTP343	ltpFR2	11	n/a	n/a	n/a	27	15	1	8	6
3722798	PROB	n/a	LTP343	ltpFR2	11	n/a	n/a	n/a	27	14	8	4	2
3723847	PROB	n/a	LTP343	ltpFR2	11	n/a	n/a	n/a	27	24	9	6	9
3725696	PROB	n/a	LTP343	ltpFR2	11	n/a	n/a	n/a	27	6	1	2	3
3727036	STOP	n/a	LTP343	ltpFR2	11	n/a	n/a	n/a	27	n/a	n/a	n/a	n/a
3729545	REC_START	n/a	LTP343	ltpFR2	11	18	n/a	n/a	n/a	n/a	0	0	0
3730148	REC_WORD	wordpools/wasnorm_wordpool_576.txt	LTP343	ltpFR2	11	18	PARSLEY	1016	n/a	n/a	0	0	0
3730893	REC_WORD	wordpools/wasnorm_wordpool_576.txt	LTP343	ltpFR2	11	18	SALT	1229	n/a	n/a	0	0	0
3731819	REC_WORD	wordpools/wasnorm_wordpool_576.txt	LTP343	ltpFR2	11	18	POISON	1096	n/a	n/a	0	0	0
3732761	REC_WORD	wordpools/wasnorm_wordpool_576.txt	LTP343	ltpFR2	11	18	OMELET	976	n/a	n/a	0	0	0
3733604	REC_WORD	wordpools/wasnorm_wordpool_576.txt	LTP343	ltpFR2	11	18	TABLE	1426	n/a	n/a	0	0	0
3734742	REC_WORD	wordpools/wasnorm_wordpool_576.txt	LTP343	ltpFR2	11	18	WORKER	1621	n/a	n/a	0	0	0
3735896	REC_WORD	wordpools/wasnorm_wordpool_576.txt	LTP343	ltpFR2	11	18	BOX	159	n/a	n/a	0	0	0
3736817	REC_WORD	wordpools/wasnorm_wordpool_576.txt	LTP343	ltpFR2	11	18	PACKAGE	997	n/a	n/a	0	0	0
3747546	REC_WORD	wordpools/wasnorm_wordpool_576.txt	LTP343	ltpFR2	11	18	TRUCK	1512	n/a	n/a	0	0	0
3819987	WORD	wordpools/wasnorm_wordpool_576.txt	LTP343	ltpFR2	11	19	ICING	732	n/a	n/a	0	0	0
3822435	WORD	wordpools/wasnorm_wordpool_576.txt	LTP343	ltpFR2	11	19	CANYON	235	n/a	n/a	0	0	0
3825167	WORD	wordpools/wasnorm_wordpool_576.txt	LTP343	ltpFR2	11	19	PEBBLE	1035	n/a	n/a	0	0	0
3827817	WORD	wordpools/wasnorm_wordpool_576.txt	LTP343	ltpFR2	11	19	HAWK	692	n/a	n/a	0	0	0
3830599	WORD	wordpools/wasnorm_wordpool_576.txt	LTP343	ltpFR2	11	19	GLOVE	642	n/a	n/a	0	0	0
3833263	WORD	wordpools/wasnorm_wordpool_576.txt	LTP343	ltpFR2	11	19	BATHTUB	100	n/a	n/a	0	0	0
3835980	WORD	wordpools/wasnorm_wordpool_576.txt	LTP343	ltpFR2	11	19	MAPLE	866	n/a	n/a	0	0	0
3838762	WORD	wordpools/wasnorm_wordpool_576.txt	LTP343	ltpFR2	11	19	LILY	821	n/a	n/a	0	0	0
3841226	WORD	wordpools/wasnorm_wordpool_576.txt	LTP343	ltpFR2	11	19	ORCHID	982	n/a	n/a	0	0	0
3843693	WORD	wordpools/wasnorm_wordpool_576.txt	LTP343	ltpFR2	11	19	POCKET	1093	n/a	n/a	0	0	0
3846357	WORD	wordpools/wasnorm_wordpool_576.txt	LTP343	ltpFR2	11	19	HANDBAG	684	n/a	n/a	0	0	0
3848990	WORD	wordpools/wasnorm_wordpool_576.txt	LTP343	ltpFR2	11	19	ROBBER	1197	n/a	n/a	0	0	0
3851573	WORD	wordpools/wasnorm_wordpool_576.txt	LTP343	ltpFR2	11	19	BELLY	119	n/a	n/a	0	0	0
3854237	WORD	wordpools/wasnorm_wordpool_576.txt	LTP343	ltpFR2	11	19	LOFT	840	n/a	n/a	0	0	0
3856737	WORD	wordpools/wasnorm_wordpool_576.txt	LTP343	ltpFR2	11	19	HOUND	724	n/a	n/a	0	0	0
3859201	WORD	wordpools/wasnorm_wordpool_576.txt	LTP343	ltpFR2	11	19	AIRPORT	13	n/a	n/a	0	0	0
3861651	WORD	wordpools/wasnorm_wordpool_576.txt	LTP343	ltpFR2	11	19	SERVANT	1271	n/a	n/a	0	0	0
3864449	WORD	wordpools/wasnorm_wordpool_576.txt	LTP343	ltpFR2	11	19	DRIVER	499	n/a	n/a	0	0	0
3867114	WORD	wordpools/wasnorm_wordpool_576.txt	LTP343	ltpFR2	11	19	BOARD	143	n/a	n/a	0	0	0
3869598	WORD	wordpools/wasnorm_wordpool_576.txt	LTP343	ltpFR2	11	19	HORSE	719	n/a	n/a	0	0	0
3872379	WORD	wordpools/wasnorm_wordpool_576.txt	LTP343	ltpFR2	11	19	FOX	598	n/a	n/a	0	0	0
3875028	WORD	wordpools/wasnorm_wordpool_576.txt	LTP343	ltpFR2	11	19	TREAT	1501	n/a	n/a	0	0	0
3877844	WORD	wordpools/wasnorm_wordpool_576.txt	LTP343	ltpFR2	11	19	PILOT	1070	n/a	n/a	0	0	0
3880459	WORD	wordpools/wasnorm_wordpool_576.txt	LTP343	ltpFR2	11	19	FRUIT	610	n/a	n/a	0	0	0
3882075	START	n/a	LTP343	ltpFR2	11	n/a	n/a	n/a	28	n/a	n/a	n/a	n/a
3883213	DISTRACTOR	n/a	LTP343	ltpFR2	11	19	n/a	n/a	n/a	n/a	0	0	0
3883224	PROB	n/a	LTP343	ltpFR2	11	n/a	n/a	n/a	28	7	7	9	1
3885140	PROB	n/a	LTP343	ltpFR2	11	n/a	n/a	n/a	28	19	6	4	9
3886840	PROB	n/a	LTP343	ltpFR2	11	n/a	n/a	n/a	28	9	1	6	2
3888138	PROB	n/a	LTP343	ltpFR2	11	n/a	n/a	n/a	28	13	4	7	2
3889354	PROB	n/a	LTP343	ltpFR2	11	n/a	n/a	n/a	28	8	5	2	1
3890371	PROB	n/a	LTP343	ltpFR2	11	n/a	n/a	n/a	28	17	5	6	6
3891654	PROB	n/a	LTP343	ltpFR2	11	n/a	n/a	n/a	28	17	8	2	7
3892754	PROB	n/a	LTP343	ltpFR2	11	n/a	n/a	n/a	28	14	5	5	4
3893787	PROB	n/a	LTP343	ltpFR2	11	n/a	n/a	n/a	28	20	3	9	8
3896151	PROB	n/a	LTP343	ltpFR2	11	n/a	n/a	n/a	28	15	1	5	9
3897502	PROB	n/a	LTP343	ltpFR2	11	n/a	n/a	n/a	28	20	6	6	8
3898734	PROB	n/a	LTP343	ltpFR2	11	n/a	n/a	n/a	28	21	6	7	8
3900366	PROB	n/a	LTP343	ltpFR2	11	n/a	n/a	n/a	28	16	8	5	3
3901800	PROB	n/a	LTP343	ltpFR2	11	n/a	n/a	n/a	28	11	2	4	5
3903098	PROB	n/a	LTP343	ltpFR2	11	n/a	n/a	n/a	28	20	3	8	9
3904545	STOP	n/a	LTP343	ltpFR2	11	n/a	n/a	n/a	28	n/a	n/a	n/a	n/a
3908014	REC_START	n/a	LTP343	ltpFR2	11	19	n/a	n/a	n/a	n/a	0	0	0
3908339	REC_WORD	wordpools/wasnorm_wordpool_576.txt	LTP343	ltpFR2	11	19	ROBBER	1197	n/a	n/a	0	0	0
3909305	REC_WORD	wordpools/wasnorm_wordpool_576.txt	LTP343	ltpFR2	11	19	HANDBAG	684	n/a	n/a	0	0	0
3910841	REC_WORD	wordpools/wasnorm_wordpool_576.txt	LTP343	ltpFR2	11	19	POCKET	1093	n/a	n/a	0	0	0
3911821	REC_WORD	wordpools/wasnorm_wordpool_576.txt	LTP343	ltpFR2	11	19	AIRPORT	13	n/a	n/a	0	0	0
3912808	REC_WORD	wordpools/wasnorm_wordpool_576.txt	LTP343	ltpFR2	11	19	HOUND	724	n/a	n/a	0	0	0
3924982	REC_WORD	wordpools/wasnorm_wordpool_576.txt	LTP343	ltpFR2	11	19	FRUIT	610	n/a	n/a	0	0	0
3998456	DISTRACTOR	n/a	LTP343	ltpFR2	11	20	n/a	n/a	n/a	n/a	0	0	0
3998456	START	n/a	LTP343	ltpFR2	11	n/a	n/a	n/a	29	n/a	n/a	n/a	n/a
3998473	PROB	n/a	LTP343	ltpFR2	11	n/a	n/a	n/a	29	23	8	6	9
4001038	PROB	n/a	LTP343	ltpFR2	11	n/a	n/a	n/a	29	12	2	5	5
4002071	PROB	n/a	LTP343	ltpFR2	11	n/a	n/a	n/a	29	19	9	8	2
4003436	PROB	n/a	LTP343	ltpFR2	11	n/a	n/a	n/a	29	14	1	9	4
4004553	PROB	n/a	LTP343	ltpFR2	11	n/a	n/a	n/a	29	12	9	1	2
4005703	PROB	n/a	LTP343	ltpFR2	11	n/a	n/a	n/a	29	16	7	6	3
4008151	PROB	n/a	LTP343	ltpFR2	11	n/a	n/a	n/a	29	8	1	6	1
4009250	PROB	n/a	LTP343	ltpFR2	11	n/a	n/a	n/a	29	14	7	1	6
4011567	PROB	n/a	LTP343	ltpFR2	11	n/a	n/a	n/a	29	22	8	4	9
4014732	PROB	n/a	LTP343	ltpFR2	11	n/a	n/a	n/a	29	13	6	3	4
4016914	PROB	n/a	LTP343	ltpFR2	11	n/a	n/a	n/a	29	13	7	2	4
4018096	PROB	n/a	LTP343	ltpFR2	11	n/a	n/a	n/a	29	11	4	5	2
4019096	PROB	n/a	LTP343	ltpFR2	11	n/a	n/a	n/a	29	18	7	2	9
4020312	PROB	n/a	LTP343	ltpFR2	11	n/a	n/a	n/a	29	9	4	4	1
4021196	STOP	n/a	LTP343	ltpFR2	11	n/a	n/a	n/a	29	n/a	n/a	n/a	n/a
4023578	WORD	wordpools/wasnorm_wordpool_576.txt	LTP343	ltpFR2	11	20	SALAD	1224	n/a	n/a	0	0	0
4026043	WORD	wordpools/wasnorm_wordpool_576.txt	LTP343	ltpFR2	11	20	FUNGUS	614	n/a	n/a	0	0	0
4028592	WORD	wordpools/wasnorm_wordpool_576.txt	LTP343	ltpFR2	11	20	LAVA	804	n/a	n/a	0	0	0
4031140	WORD	wordpools/wasnorm_wordpool_576.txt	LTP343	ltpFR2	11	20	PATROL	1027	n/a	n/a	0	0	0
4033573	WORD	wordpools/wasnorm_wordpool_576.txt	LTP343	ltpFR2	11	20	THREAD	1460	n/a	n/a	0	0	0
4036371	WORD	wordpools/wasnorm_wordpool_576.txt	LTP343	ltpFR2	11	20	NEUTRON	947	n/a	n/a	0	0	0
4038971	WORD	wordpools/wasnorm_wordpool_576.txt	LTP343	ltpFR2	11	20	SWAMP	1416	n/a	n/a	0	0	0
4041435	WORD	wordpools/wasnorm_wordpool_576.txt	LTP343	ltpFR2	11	20	DRAWING	494	n/a	n/a	0	0	0
4043919	WORD	wordpools/wasnorm_wordpool_576.txt	LTP343	ltpFR2	11	20	TRIBE	1505	n/a	n/a	0	0	0
4046484	WORD	wordpools/wasnorm_wordpool_576.txt	LTP343	ltpFR2	11	20	TRACTOR	1493	n/a	n/a	0	0	0
4049149	WORD	wordpools/wasnorm_wordpool_576.txt	LTP343	ltpFR2	11	20	STAMP	1370	n/a	n/a	0	0	0
4051915	WORD	wordpools/wasnorm_wordpool_576.txt	LTP343	ltpFR2	11	20	HAND	683	n/a	n/a	0	0	0
4054531	WORD	wordpools/wasnorm_wordpool_576.txt	LTP343	ltpFR2	11	20	ELBOW	520	n/a	n/a	0	0	0
4056996	WORD	wordpools/wasnorm_wordpool_576.txt	LTP343	ltpFR2	11	20	TUBA	1515	n/a	n/a	0	0	0
4059528	WORD	wordpools/wasnorm_wordpool_576.txt	LTP343	ltpFR2	11	20	CONCERT	360	n/a	n/a	0	0	0
4062060	WORD	wordpools/wasnorm_wordpool_576.txt	LTP343	ltpFR2	11	20	VIRUS	1572	n/a	n/a	0	0	0
4064509	WORD	wordpools/wasnorm_wordpool_576.txt	LTP343	ltpFR2	11	20	FRAME	600	n/a	n/a	0	0	0
4067157	WORD	wordpools/wasnorm_wordpool_576.txt	LTP343	ltpFR2	11	20	OUTDOORS	987	n/a	n/a	0	0	0
4069674	WORD	wordpools/wasnorm_wordpool_576.txt	LTP343	ltpFR2	11	20	NOTEBOOK	959	n/a	n/a	0	0	0
4072472	WORD	wordpools/wasnorm_wordpool_576.txt	LTP343	ltpFR2	11	20	POSTAGE	1113	n/a	n/a	0	0	0
4074971	WORD	wordpools/wasnorm_wordpool_576.txt	LTP343	ltpFR2	11	20	MASK	876	n/a	n/a	0	0	0
4077537	WORD	wordpools/wasnorm_wordpool_576.txt	LTP343	ltpFR2	11	20	SURVEY	1414	n/a	n/a	0	0	0
4080168	WORD	wordpools/wasnorm_wordpool_576.txt	LTP343	ltpFR2	11	20	SHIRT	1287	n/a	n/a	0	0	0
4082768	WORD	wordpools/wasnorm_wordpool_576.txt	LTP343	ltpFR2	11	20	DRESS	495	n/a	n/a	0	0	0
4084383	START	n/a	LTP343	ltpFR2	11	n/a	n/a	n/a	30	n/a	n/a	n/a	n/a
4085228	DISTRACTOR	n/a	LTP343	ltpFR2	11	20	n/a	n/a	n/a	n/a	0	0	0
4085232	PROB	n/a	LTP343	ltpFR2	11	n/a	n/a	n/a	30	16	9	4	3
4087115	PROB	n/a	LTP343	ltpFR2	11	n/a	n/a	n/a	30	9	5	3	1
4088148	PROB	n/a	LTP343	ltpFR2	11	n/a	n/a	n/a	30	18	6	6	6
4089164	PROB	n/a	LTP343	ltpFR2	11	n/a	n/a	n/a	30	22	6	9	7
4090747	PROB	n/a	LTP343	ltpFR2	11	n/a	n/a	n/a	30	5	2	1	2
4091830	PROB	n/a	LTP343	ltpFR2	11	n/a	n/a	n/a	30	17	7	5	5
4092946	PROB	n/a	LTP343	ltpFR2	11	n/a	n/a	n/a	30	23	6	9	8
4094796	PROB	n/a	LTP343	ltpFR2	11	n/a	n/a	n/a	30	111	2	1	8
4095878	PROB	n/a	LTP343	ltpFR2	11	n/a	n/a	n/a	30	12	6	5	2
4097227	PROB	n/a	LTP343	ltpFR2	11	n/a	n/a	n/a	30	16	6	6	4
4098544	PROB	n/a	LTP343	ltpFR2	11	n/a	n/a	n/a	30	18	4	8	6
4100159	PROB	n/a	LTP343	ltpFR2	11	n/a	n/a	n/a	30	6	1	3	2
4101642	PROB	n/a	LTP343	ltpFR2	11	n/a	n/a	n/a	30	23	6	8	7
4103708	PROB	n/a	LTP343	ltpFR2	11	n/a	n/a	n/a	30	15	5	3	7
4104808	PROB	n/a	LTP343	ltpFR2	11	n/a	n/a	n/a	30	21	9	4	8
4108127	STOP	n/a	LTP343	ltpFR2	11	n/a	n/a	n/a	30	n/a	n/a	n/a	n/a
4110305	REC_START	n/a	LTP343	ltpFR2	11	20	n/a	n/a	n/a	n/a	0	0	0
4110728	REC_WORD	wordpools/wasnorm_wordpool_576.txt	LTP343	ltpFR2	11	20	ELBOW	520	n/a	n/a	0	0	0
4111576	REC_WORD	wordpools/wasnorm_wordpool_576.txt	LTP343	ltpFR2	11	20	TUBA	1515	n/a	n/a	0	0	0
4112467	REC_WORD	wordpools/wasnorm_wordpool_576.txt	LTP343	ltpFR2	11	20	CONCERT	360	n/a	n/a	0	0	0
4113353	REC_WORD	wordpools/wasnorm_wordpool_576.txt	LTP343	ltpFR2	11	20	VIRUS	1572	n/a	n/a	0	0	0
4114301	REC_WORD	wordpools/wasnorm_wordpool_576.txt	LTP343	ltpFR2	11	20	SHIRT	1287	n/a	n/a	0	0	0
4115311	REC_WORD	wordpools/wasnorm_wordpool_576.txt	LTP343	ltpFR2	11	20	SURVEY	1414	n/a	n/a	0	0	0
4116456	REC_WORD	wordpools/wasnorm_wordpool_576.txt	LTP343	ltpFR2	11	20	OUTDOORS	987	n/a	n/a	0	0	0
4118320	REC_WORD	wordpools/wasnorm_wordpool_576.txt	LTP343	ltpFR2	11	20	SALAD	1224	n/a	n/a	0	0	0
4119180	REC_WORD	wordpools/wasnorm_wordpool_576.txt	LTP343	ltpFR2	11	20	FUNGUS	614	n/a	n/a	0	0	0
4120104	REC_WORD	wordpools/wasnorm_wordpool_576.txt	LTP343	ltpFR2	11	20	SWAMP	1416	n/a	n/a	0	0	0
4121220	REC_WORD	wordpools/wasnorm_wordpool_576.txt	LTP343	ltpFR2	11	20	DRAWING	494	n/a	n/a	0	0	0
4200731	DISTRACTOR	n/a	LTP343	ltpFR2	11	21	n/a	n/a	n/a	n/a	0	0	0
4200731	START	n/a	LTP343	ltpFR2	11	n/a	n/a	n/a	31	n/a	n/a	n/a	n/a
4200748	PROB	n/a	LTP343	ltpFR2	11	n/a	n/a	n/a	31	9	3	4	2
4202463	PROB	n/a	LTP343	ltpFR2	11	n/a	n/a	n/a	31	17	2	8	7
4203763	PROB	n/a	LTP343	ltpFR2	11	n/a	n/a	n/a	31	8	2	4	2
4204762	PROB	n/a	LTP343	ltpFR2	11	n/a	n/a	n/a	31	14	4	7	3
4206545	PROB	n/a	LTP343	ltpFR2	11	n/a	n/a	n/a	31	20	9	9	2
4208011	PROB	n/a	LTP343	ltpFR2	11	n/a	n/a	n/a	31	13	3	3	7
4209494	PROB	n/a	LTP343	ltpFR2	11	n/a	n/a	n/a	31	15	2	6	7
4210493	PROB	n/a	LTP343	ltpFR2	11	n/a	n/a	n/a	31	9	6	2	1
4211509	PROB	n/a	LTP343	ltpFR2	11	n/a	n/a	n/a	31	19	5	6	8
4212609	PROB	n/a	LTP343	ltpFR2	11	n/a	n/a	n/a	31	14	5	8	1
4214558	PROB	n/a	LTP343	ltpFR2	11	n/a	n/a	n/a	31	14	5	1	8
4215907	PROB	n/a	LTP343	ltpFR2	11	n/a	n/a	n/a	31	14	7	2	5
4217707	PROB	n/a	LTP343	ltpFR2	11	n/a	n/a	n/a	31	17	5	9	3
4219806	PROB	n/a	LTP343	ltpFR2	11	n/a	n/a	n/a	31	15	8	3	4
4221472	PROB	n/a	LTP343	ltpFR2	11	n/a	n/a	n/a	31	15	8	6	1
4223442	STOP	n/a	LTP343	ltpFR2	11	n/a	n/a	n/a	31	n/a	n/a	n/a	n/a
4225653	WORD	wordpools/wasnorm_wordpool_576.txt	LTP343	ltpFR2	11	21	MILK	895	n/a	n/a	0	0	0
4228168	WORD	wordpools/wasnorm_wordpool_576.txt	LTP343	ltpFR2	11	21	PEACH	1031	n/a	n/a	0	0	0
4230984	WORD	wordpools/wasnorm_wordpool_576.txt	LTP343	ltpFR2	11	21	CABBAGE	210	n/a	n/a	0	0	0
4233549	WORD	wordpools/wasnorm_wordpool_576.txt	LTP343	ltpFR2	11	21	SUMMIT	1405	n/a	n/a	0	0	0
4236147	WORD	wordpools/wasnorm_wordpool_576.txt	LTP343	ltpFR2	11	21	REBEL	1172	n/a	n/a	0	0	0
