onset	duration	trial_type	sample	stim_file	subject	experiment	session	trial	task	item_name	item_num	recog_conf	resp	color_b	color_g	color_r	case	font
458.9	n/a	SESS_START	229450	n/a	LTP254	ltpFR	1	n/a	n/a	n/a	n/a	1	n/a	n/a	n/a	n/a	n/a	n/a
600.514	n/a	WORD	300257	wordpools/wasnorm_wordpool_less_exclusions.txt	LTP254	ltpFR	1	1	0	MINER	896	n/a	0	1	0.412841796875	0.57763671875	upper	../fonts/zerothre.ttf
604.514	n/a	WORD	302257	wordpools/wasnorm_wordpool_less_exclusions.txt	LTP254	ltpFR	1	1	0	NECKLACE	940	n/a	0	1	0.412841796875	0.57763671875	upper	../fonts/zerothre.ttf
608.546	n/a	WORD	304273	wordpools/wasnorm_wordpool_less_exclusions.txt	LTP254	ltpFR	1	1	1	BARLEY	88	n/a	n/a	0	0.5869140625	0.422607421875	lower	../fonts/amplitud.ttf
611.59	n/a	SLOW_MSG	305795	n/a	LTP254	ltpFR	1	1	n/a	n/a	n/a	n/a	n/a	n/a	n/a	n/a	n/a	n/a
614.16	n/a	WORD	307080	wordpools/wasnorm_wordpool_less_exclusions.txt	LTP254	ltpFR	1	1	1	BREAD	170	n/a	0	0	0.5869140625	0.422607421875	lower	../fonts/amplitud.ttf
618.224	n/a	WORD	309112	wordpools/wasnorm_wordpool_less_exclusions.txt	LTP254	ltpFR	1	1	1	COLT	349	n/a	1	0	0.5869140625	0.422607421875	lower	../fonts/amplitud.ttf
622.374	n/a	WORD	311187	wordpools/wasnorm_wordpool_less_exclusions.txt	LTP254	ltpFR	1	1	1	RAFT	1159	n/a	0	0	0.5869140625	0.422607421875	lower	../fonts/amplitud.ttf
626.28	n/a	WORD	313140	wordpools/wasnorm_wordpool_less_exclusions.txt	LTP254	ltpFR	1	1	0	EMPLOYER	532	n/a	1	1	0.412841796875	0.57763671875	upper	../fonts/zerothre.ttf
630.228	n/a	WORD	315114	wordpools/wasnorm_wordpool_less_exclusions.txt	LTP254	ltpFR	1	1	0	ROSE	1212	n/a	0	1	0.412841796875	0.57763671875	upper	../fonts/zerothre.ttf
634.086	n/a	WORD	317043	wordpools/wasnorm_wordpool_less_exclusions.txt	LTP254	ltpFR	1	1	0	SPOON	1357	n/a	0	1	0.412841796875	0.57763671875	upper	../fonts/zerothre.ttf
638.308	n/a	WORD	319154	wordpools/wasnorm_wordpool_less_exclusions.txt	LTP254	ltpFR	1	1	0	CHAIR	274	n/a	1	1	0.412841796875	0.57763671875	upper	../fonts/zerothre.ttf
642.424	n/a	WORD	321212	wordpools/wasnorm_wordpool_less_exclusions.txt	LTP254	ltpFR	1	1	1	VASE	1549	n/a	0	0	0.5869140625	0.422607421875	lower	../fonts/amplitud.ttf
646.332	n/a	WORD	323166	wordpools/wasnorm_wordpool_less_exclusions.txt	LTP254	ltpFR	1	1	1	TEACHER	1440	n/a	1	0	0.5869140625	0.422607421875	lower	../fonts/amplitud.ttf
650.188	n/a	WORD	325094	wordpools/wasnorm_wordpool_less_exclusions.txt	LTP254	ltpFR	1	1	1	STUDENT	1395	n/a	1	0	0.5869140625	0.422607421875	lower	../fonts/amplitud.ttf
654.202	n/a	WORD	327101	wordpools/wasnorm_wordpool_less_exclusions.txt	LTP254	ltpFR	1	1	1	CHIEF	298	n/a	1	0	0.5869140625	0.422607421875	lower	../fonts/amplitud.ttf
658.05	n/a	WORD	329025	wordpools/wasnorm_wordpool_less_exclusions.txt	LTP254	ltpFR	1	1	0	NAVIGATOR	938	n/a	1	1	0.412841796875	0.57763671875	upper	../fonts/zerothre.ttf
662.168	n/a	WORD	331084	wordpools/wasnorm_wordpool_less_exclusions.txt	LTP254	ltpFR	1	1	0	UTENSIL	1542	n/a	0	1	0.412841796875	0.57763671875	upper	../fonts/zerothre.ttf
667.974	n/a	REC_START	333987	n/a	LTP254	ltpFR	1	1	n/a	n/a	n/a	n/a	n/a	n/a	n/a	n/a	n/a	n/a
668.854	n/a	REC_WORD	334427	wordpools/wasnorm_wordpool_less_exclusions.txt	LTP254	ltpFR	1	1	0	UTENSIL	1542	n/a	0	n/a	n/a	n/a	n/a	n/a
670.082	n/a	REC_WORD	335041	wordpools/wasnorm_wordpool_less_exclusions.txt	LTP254	ltpFR	1	1	1	CHIEF	298	n/a	1	n/a	n/a	n/a	n/a	n/a
671.382	n/a	REC_WORD_VV	335691	wordpools/wasnorm_wordpool_less_exclusions.txt	LTP254	ltpFR	1	1	n/a	<>	-1	n/a	n/a	n/a	n/a	n/a	n/a	n/a
671.86	n/a	REC_WORD	335930	wordpools/wasnorm_wordpool_less_exclusions.txt	LTP254	ltpFR	1	1	1	TEACHER	1440	n/a	1	n/a	n/a	n/a	n/a	n/a
672.888	n/a	REC_WORD	336444	wordpools/wasnorm_wordpool_less_exclusions.txt	LTP254	ltpFR	1	1	1	STUDENT	1395	n/a	1	n/a	n/a	n/a	n/a	n/a
674.804	n/a	REC_WORD	337402	wordpools/wasnorm_wordpool_less_exclusions.txt	LTP254	ltpFR	1	1	0	ROSE	1212	n/a	0	n/a	n/a	n/a	n/a	n/a
676.36	n/a	REC_WORD	338180	wordpools/wasnorm_wordpool_less_exclusions.txt	LTP254	ltpFR	1	1	1	VASE	1549	n/a	0	n/a	n/a	n/a	n/a	n/a
678.532	n/a	REC_WORD	339266	wordpools/wasnorm_wordpool_less_exclusions.txt	LTP254	ltpFR	1	1	0	NECKLACE	940	n/a	0	n/a	n/a	n/a	n/a	n/a
680.964	n/a	REC_WORD	340482	wordpools/wasnorm_wordpool_less_exclusions.txt	LTP254	ltpFR	1	1	0	NAVIGATOR	938	n/a	1	n/a	n/a	n/a	n/a	n/a
685.088	n/a	REC_WORD	342544	wordpools/wasnorm_wordpool_less_exclusions.txt	LTP254	ltpFR	1	1	1	BREAD	170	n/a	0	n/a	n/a	n/a	n/a	n/a
688.032	n/a	REC_WORD	344016	wordpools/wasnorm_wordpool_less_exclusions.txt	LTP254	ltpFR	1	1	1	BARLEY	88	n/a	n/a	n/a	n/a	n/a	n/a	n/a
702.962	n/a	REC_WORD	351481	wordpools/wasnorm_wordpool_less_exclusions.txt	LTP254	ltpFR	1	1	0	MINER	896	n/a	0	n/a	n/a	n/a	n/a	n/a
761.178	n/a	WORD	380589	wordpools/wasnorm_wordpool_less_exclusions.txt	LTP254	ltpFR	1	2	1	FRIAR	605	n/a	1	0	0.5869140625	0.422607421875	lower	../fonts/amplitud.ttf
765.352	n/a	WORD	382676	wordpools/wasnorm_wordpool_less_exclusions.txt	LTP254	ltpFR	1	2	1	PRIMATE	1123	n/a	1	0	0.5869140625	0.422607421875	lower	../fonts/amplitud.ttf
769.552	n/a	WORD	384776	wordpools/wasnorm_wordpool_less_exclusions.txt	LTP254	ltpFR	1	2	1	BEE	112	n/a	1	0	0.5869140625	0.422607421875	lower	../fonts/amplitud.ttf
773.77	n/a	WORD	386885	wordpools/wasnorm_wordpool_less_exclusions.txt	LTP254	ltpFR	1	2	0	PLANT	1083	n/a	1	1	0.412841796875	0.57763671875	upper	../fonts/zerothre.ttf
777.952	n/a	WORD	388976	wordpools/wasnorm_wordpool_less_exclusions.txt	LTP254	ltpFR	1	2	0	LINT	826	n/a	0	1	0.412841796875	0.57763671875	upper	../fonts/zerothre.ttf
781.8	n/a	WORD	390900	wordpools/wasnorm_wordpool_less_exclusions.txt	LTP254	ltpFR	1	2	0	CABOOSE	214	n/a	1	1	0.412841796875	0.57763671875	upper	../fonts/zerothre.ttf
785.882	n/a	WORD	392941	wordpools/wasnorm_wordpool_less_exclusions.txt	LTP254	ltpFR	1	2	0	TRAIN	1494	n/a	1	1	0.412841796875	0.57763671875	upper	../fonts/zerothre.ttf
790.088	n/a	WORD	395044	wordpools/wasnorm_wordpool_less_exclusions.txt	LTP254	ltpFR	1	2	0	PUBLICATION	1136	n/a	1	1	0.412841796875	0.57763671875	upper	../fonts/zerothre.ttf
794.264	n/a	WORD	397132	wordpools/wasnorm_wordpool_less_exclusions.txt	LTP254	ltpFR	1	2	0	EGG	518	n/a	0	1	0.412841796875	0.57763671875	upper	../fonts/zerothre.ttf
798.104	n/a	WORD	399052	wordpools/wasnorm_wordpool_less_exclusions.txt	LTP254	ltpFR	1	2	1	SCENERY	1247	n/a	1	0	0.5869140625	0.422607421875	lower	../fonts/amplitud.ttf
802.068	n/a	WORD	401034	wordpools/wasnorm_wordpool_less_exclusions.txt	LTP254	ltpFR	1	2	1	ASIA	46	n/a	0	0	0.5869140625	0.422607421875	lower	../fonts/amplitud.ttf
806.126	n/a	WORD	403063	wordpools/wasnorm_wordpool_less_exclusions.txt	LTP254	ltpFR	1	2	0	BOOK	149	n/a	0	1	0.412841796875	0.57763671875	upper	../fonts/zerothre.ttf
810.064	n/a	WORD	405032	wordpools/wasnorm_wordpool_less_exclusions.txt	LTP254	ltpFR	1	2	0	BROCCOLI	176	n/a	0	1	0.412841796875	0.57763671875	upper	../fonts/zerothre.ttf
814.282	n/a	WORD	407141	wordpools/wasnorm_wordpool_less_exclusions.txt	LTP254	ltpFR	1	2	1	DUSTPAN	509	n/a	0	0	0.5869140625	0.422607421875	lower	../fonts/amplitud.ttf
818.28	n/a	WORD	409140	wordpools/wasnorm_wordpool_less_exclusions.txt	LTP254	ltpFR	1	2	1	GRAVEL	659	n/a	0	0	0.5869140625	0.422607421875	lower	../fonts/amplitud.ttf
822.178	n/a	WORD	411089	wordpools/wasnorm_wordpool_less_exclusions.txt	LTP254	ltpFR	1	2	1	STREET	1393	n/a	0	0	0.5869140625	0.422607421875	lower	../fonts/amplitud.ttf
828.128	n/a	REC_START	414064	n/a	LTP254	ltpFR	1	2	n/a	n/a	n/a	n/a	n/a	n/a	n/a	n/a	n/a	n/a
829.232	n/a	REC_WORD	414616	wordpools/wasnorm_wordpool_less_exclusions.txt	LTP254	ltpFR	1	2	1	STREET	1393	n/a	0	n/a	n/a	n/a	n/a	n/a
830.622	n/a	REC_WORD	415311	wordpools/wasnorm_wordpool_less_exclusions.txt	LTP254	ltpFR	1	2	1	GRAVEL	659	n/a	0	n/a	n/a	n/a	n/a	n/a
834.028	n/a	REC_WORD	417014	wordpools/wasnorm_wordpool_less_exclusions.txt	LTP254	ltpFR	1	2	1	ASIA	46	n/a	0	n/a	n/a	n/a	n/a	n/a
835.3	n/a	REC_WORD	417650	wordpools/wasnorm_wordpool_less_exclusions.txt	LTP254	ltpFR	1	2	0	TRAIN	1494	n/a	1	n/a	n/a	n/a	n/a	n/a
836.2	n/a	REC_WORD	418100	wordpools/wasnorm_wordpool_less_exclusions.txt	LTP254	ltpFR	1	2	0	CABOOSE	214	n/a	1	n/a	n/a	n/a	n/a	n/a
837.816	n/a	REC_WORD	418908	wordpools/wasnorm_wordpool_less_exclusions.txt	LTP254	ltpFR	1	2	0	BROCCOLI	176	n/a	0	n/a	n/a	n/a	n/a	n/a
840.964	n/a	REC_WORD	420482	wordpools/wasnorm_wordpool_less_exclusions.txt	LTP254	ltpFR	1	2	0	LINT	826	n/a	0	n/a	n/a	n/a	n/a	n/a
842.704	n/a	REC_WORD	421352	wordpools/wasnorm_wordpool_less_exclusions.txt	LTP254	ltpFR	1	2	1	DUSTPAN	509	n/a	0	n/a	n/a	n/a	n/a	n/a
847.14	n/a	REC_WORD	423570	wordpools/wasnorm_wordpool_less_exclusions.txt	LTP254	ltpFR	1	2	1	FRIAR	605	n/a	1	n/a	n/a	n/a	n/a	n/a
860.564	n/a	REC_WORD	430282	wordpools/wasnorm_wordpool_less_exclusions.txt	LTP254	ltpFR	1	2	n/a	APE	31	n/a	n/a	n/a	n/a	n/a	n/a	n/a
873.28	n/a	REC_WORD	436640	wordpools/wasnorm_wordpool_less_exclusions.txt	LTP254	ltpFR	1	2	1	SCENERY	1247	n/a	1	n/a	n/a	n/a	n/a	n/a
883.114	n/a	REC_WORD	441557	wordpools/wasnorm_wordpool_less_exclusions.txt	LTP254	ltpFR	1	2	0	EGG	518	n/a	0	n/a	n/a	n/a	n/a	n/a
911.98	n/a	WORD	455990	wordpools/wasnorm_wordpool_less_exclusions.txt	LTP254	ltpFR	1	3	0	CHEF	290	n/a	1	1	0.412841796875	0.57763671875	upper	../fonts/zerothre.ttf
915.936	n/a	WORD	457968	wordpools/wasnorm_wordpool_less_exclusions.txt	LTP254	ltpFR	1	3	0	PLATE	1086	n/a	0	1	0.412841796875	0.57763671875	upper	../fonts/zerothre.ttf
919.828	n/a	WORD	459914	wordpools/wasnorm_wordpool_less_exclusions.txt	LTP254	ltpFR	1	3	0	SAUSAGE	1238	n/a	0	1	0.412841796875	0.57763671875	upper	../fonts/zerothre.ttf
923.944	n/a	WORD	461972	wordpools/wasnorm_wordpool_less_exclusions.txt	LTP254	ltpFR	1	3	0	STRING	1394	n/a	0	1	0.412841796875	0.57763671875	upper	../fonts/zerothre.ttf
927.926	n/a	WORD	463963	wordpools/wasnorm_wordpool_less_exclusions.txt	LTP254	ltpFR	1	3	0	CLERK	321	n/a	1	1	0.412841796875	0.57763671875	upper	../fonts/zerothre.ttf
932.092	n/a	WORD	466046	wordpools/wasnorm_wordpool_less_exclusions.txt	LTP254	ltpFR	1	3	0	CUBE	420	n/a	0	1	0.412841796875	0.57763671875	upper	../fonts/zerothre.ttf
935.996	n/a	WORD	467998	wordpools/wasnorm_wordpool_less_exclusions.txt	LTP254	ltpFR	1	3	1	ROOT	1210	n/a	1	0	0.5869140625	0.422607421875	lower	../fonts/amplitud.ttf
940.104	n/a	WORD	470052	wordpools/wasnorm_wordpool_less_exclusions.txt	LTP254	ltpFR	1	3	1	MAPLE	866	n/a	1	0	0.5869140625	0.422607421875	lower	../fonts/amplitud.ttf
944.188	n/a	WORD	472094	wordpools/wasnorm_wordpool_less_exclusions.txt	LTP254	ltpFR	1	3	1	COMPANION	357	n/a	1	0	0.5869140625	0.422607421875	lower	../fonts/amplitud.ttf
948.202	n/a	WORD	474101	wordpools/wasnorm_wordpool_less_exclusions.txt	LTP254	ltpFR	1	3	1	OVAL	990	n/a	0	0	0.5869140625	0.422607421875	lower	../fonts/amplitud.ttf
952.234	n/a	WORD	476117	wordpools/wasnorm_wordpool_less_exclusions.txt	LTP254	ltpFR	1	3	0	RASPBERRY	1168	n/a	0	1	0.412841796875	0.57763671875	upper	../fonts/zerothre.ttf
956.34	n/a	WORD	478170	wordpools/wasnorm_wordpool_less_exclusions.txt	LTP254	ltpFR	1	3	0	APPLE	33	n/a	0	1	0.412841796875	0.57763671875	upper	../fonts/zerothre.ttf
960.388	n/a	WORD	480194	wordpools/wasnorm_wordpool_less_exclusions.txt	LTP254	ltpFR	1	3	1	ROOMMATE	1207	n/a	1	0	0.5869140625	0.422607421875	lower	../fonts/amplitud.ttf
964.272	n/a	WORD	482136	wordpools/wasnorm_wordpool_less_exclusions.txt	LTP254	ltpFR	1	3	1	PRUNE	1134	n/a	1	0	0.5869140625	0.422607421875	lower	../fonts/amplitud.ttf
968.462	n/a	WORD	484231	wordpools/wasnorm_wordpool_less_exclusions.txt	LTP254	ltpFR	1	3	1	SUIT	1402	n/a	0	0	0.5869140625	0.422607421875	lower	../fonts/amplitud.ttf
972.478	n/a	WORD	486239	wordpools/wasnorm_wordpool_less_exclusions.txt	LTP254	ltpFR	1	3	1	SINK	1309	n/a	0	0	0.5869140625	0.422607421875	lower	../fonts/amplitud.ttf
978.292	n/a	REC_START	489146	n/a	LTP254	ltpFR	1	3	n/a	n/a	n/a	n/a	n/a	n/a	n/a	n/a	n/a	n/a
979.262	n/a	REC_WORD	489631	wordpools/wasnorm_wordpool_less_exclusions.txt	LTP254	ltpFR	1	3	1	SINK	1309	n/a	0	n/a	n/a	n/a	n/a	n/a
980.532	n/a	REC_WORD	490266	wordpools/wasnorm_wordpool_less_exclusions.txt	LTP254	ltpFR	1	3	1	SUIT	1402	n/a	0	n/a	n/a	n/a	n/a	n/a
982.118	n/a	REC_WORD	491059	wordpools/wasnorm_wordpool_less_exclusions.txt	LTP254	ltpFR	1	3	1	ROOMMATE	1207	n/a	1	n/a	n/a	n/a	n/a	n/a
984.256	n/a	REC_WORD	492128	wordpools/wasnorm_wordpool_less_exclusions.txt	LTP254	ltpFR	1	3	0	CHEF	290	n/a	1	n/a	n/a	n/a	n/a	n/a
985.934	n/a	REC_WORD	492967	wordpools/wasnorm_wordpool_less_exclusions.txt	LTP254	ltpFR	1	3	0	SAUSAGE	1238	n/a	0	n/a	n/a	n/a	n/a	n/a
987.654	n/a	REC_WORD	493827	wordpools/wasnorm_wordpool_less_exclusions.txt	LTP254	ltpFR	1	3	1	MAPLE	866	n/a	1	n/a	n/a	n/a	n/a	n/a
989.264	n/a	REC_WORD	494632	wordpools/wasnorm_wordpool_less_exclusions.txt	LTP254	ltpFR	1	3	1	ROOT	1210	n/a	1	n/a	n/a	n/a	n/a	n/a
1000.338	n/a	REC_WORD	500169	wordpools/wasnorm_wordpool_less_exclusions.txt	LTP254	ltpFR	1	3	0	STRING	1394	n/a	0	n/a	n/a	n/a	n/a	n/a
1003.798	n/a	REC_WORD	501899	wordpools/wasnorm_wordpool_less_exclusions.txt	LTP254	ltpFR	1	3	0	PLATE	1086	n/a	0	n/a	n/a	n/a	n/a	n/a
1006.71	n/a	REC_WORD	503355	wordpools/wasnorm_wordpool_less_exclusions.txt	LTP254	ltpFR	1	3	0	CUBE	420	n/a	0	n/a	n/a	n/a	n/a	n/a
1052.542	n/a	REC_WORD	526271	wordpools/wasnorm_wordpool_less_exclusions.txt	LTP254	ltpFR	1	3	1	COMPANION	357	n/a	1	n/a	n/a	n/a	n/a	n/a
1080.264	n/a	WORD	540132	wordpools/wasnorm_wordpool_less_exclusions.txt	LTP254	ltpFR	1	4	0	WINNER	1615	n/a	1	1	0.412841796875	0.57763671875	upper	../fonts/zerothre.ttf
1084.49	n/a	WORD	542245	wordpools/wasnorm_wordpool_less_exclusions.txt	LTP254	ltpFR	1	4	0	LASH	802	n/a	0	1	0.412841796875	0.57763671875	upper	../fonts/zerothre.ttf
1088.556	n/a	WORD	544278	wordpools/wasnorm_wordpool_less_exclusions.txt	LTP254	ltpFR	1	4	0	WALNUT	1584	n/a	0	1	0.412841796875	0.57763671875	upper	../fonts/zerothre.ttf
1092.57	n/a	WORD	546285	wordpools/wasnorm_wordpool_less_exclusions.txt	LTP254	ltpFR	1	4	0	BLOCKADE	137	n/a	1	1	0.412841796875	0.57763671875	upper	../fonts/zerothre.ttf
1096.61	n/a	WORD	548305	wordpools/wasnorm_wordpool_less_exclusions.txt	LTP254	ltpFR	1	4	0	WALL	1582	n/a	1	1	0.412841796875	0.57763671875	upper	../fonts/zerothre.ttf
1100.702	n/a	WORD	550351	wordpools/wasnorm_wordpool_less_exclusions.txt	LTP254	ltpFR	1	4	0	LIVER	833	n/a	0	1	0.412841796875	0.57763671875	upper	../fonts/zerothre.ttf
1104.808	n/a	WORD	552404	wordpools/wasnorm_wordpool_less_exclusions.txt	LTP254	ltpFR	1	4	0	CAFETERIA	217	n/a	1	1	0.412841796875	0.57763671875	upper	../fonts/zerothre.ttf
1109.008	n/a	WORD	554504	wordpools/wasnorm_wordpool_less_exclusions.txt	LTP254	ltpFR	1	4	0	OINTMENT	974	n/a	0	1	0.412841796875	0.57763671875	upper	../fonts/zerothre.ttf
1113.116	n/a	WORD	556558	wordpools/wasnorm_wordpool_less_exclusions.txt	LTP254	ltpFR	1	4	0	BEDROOM	111	n/a	1	1	0.412841796875	0.57763671875	upper	../fonts/zerothre.ttf
1116.982	n/a	WORD	558491	wordpools/wasnorm_wordpool_less_exclusions.txt	LTP254	ltpFR	1	4	0	PEANUT	1032	n/a	0	1	0.412841796875	0.57763671875	upper	../fonts/zerothre.ttf
1121.054	n/a	WORD	560527	wordpools/wasnorm_wordpool_less_exclusions.txt	LTP254	ltpFR	1	4	0	COMPUTER	359	n/a	1	1	0.412841796875	0.57763671875	upper	../fonts/zerothre.ttf
1124.962	n/a	WORD	562481	wordpools/wasnorm_wordpool_less_exclusions.txt	LTP254	ltpFR	1	4	0	BLOSSOM	138	n/a	0	1	0.412841796875	0.57763671875	upper	../fonts/zerothre.ttf
1129.144	n/a	WORD	564572	wordpools/wasnorm_wordpool_less_exclusions.txt	LTP254	ltpFR	1	4	0	DAISY	435	n/a	0	1	0.412841796875	0.57763671875	upper	../fonts/zerothre.ttf
1133.25	n/a	WORD	566625	wordpools/wasnorm_wordpool_less_exclusions.txt	LTP254	ltpFR	1	4	0	QUILT	1151	n/a	1	1	0.412841796875	0.57763671875	upper	../fonts/zerothre.ttf
1137.282	n/a	WORD	568641	wordpools/wasnorm_wordpool_less_exclusions.txt	LTP254	ltpFR	1	4	0	SIDING	1304	n/a	1	1	0.412841796875	0.57763671875	upper	../fonts/zerothre.ttf
1141.24	n/a	WORD	570620	wordpools/wasnorm_wordpool_less_exclusions.txt	LTP254	ltpFR	1	4	0	SERPENT	1270	n/a	0	1	0.412841796875	0.57763671875	upper	../fonts/zerothre.ttf
1147.064	n/a	REC_START	573532	n/a	LTP254	ltpFR	1	4	n/a	n/a	n/a	n/a	n/a	n/a	n/a	n/a	n/a	n/a
1148.15	n/a	REC_WORD	574075	wordpools/wasnorm_wordpool_less_exclusions.txt	LTP254	ltpFR	1	4	0	SERPENT	1270	n/a	0	n/a	n/a	n/a	n/a	n/a
1149.328	n/a	REC_WORD	574664	wordpools/wasnorm_wordpool_less_exclusions.txt	LTP254	ltpFR	1	4	0	SIDING	1304	n/a	1	n/a	n/a	n/a	n/a	n/a
1151.336	n/a	REC_WORD	575668	wordpools/wasnorm_wordpool_less_exclusions.txt	LTP254	ltpFR	1	4	0	WALNUT	1584	n/a	0	n/a	n/a	n/a	n/a	n/a
1152.646	n/a	REC_WORD	576323	wordpools/wasnorm_wordpool_less_exclusions.txt	LTP254	ltpFR	1	4	0	PEANUT	1032	n/a	0	n/a	n/a	n/a	n/a	n/a
1154.648	n/a	REC_WORD	577324	wordpools/wasnorm_wordpool_less_exclusions.txt	LTP254	ltpFR	1	4	n/a	FLOWER	584	n/a	n/a	n/a	n/a	n/a	n/a	n/a
1156.546	n/a	REC_WORD	578273	wordpools/wasnorm_wordpool_less_exclusions.txt	LTP254	ltpFR	1	4	0	DAISY	435	n/a	0	n/a	n/a	n/a	n/a	n/a
1158.304	n/a	REC_WORD	579152	wordpools/wasnorm_wordpool_less_exclusions.txt	LTP254	ltpFR	1	4	0	CAFETERIA	217	n/a	1	n/a	n/a	n/a	n/a	n/a
1160.634	n/a	REC_WORD	580317	wordpools/wasnorm_wordpool_less_exclusions.txt	LTP254	ltpFR	1	4	0	BEDROOM	111	n/a	1	n/a	n/a	n/a	n/a	n/a
1168.654	n/a	REC_WORD	584327	wordpools/wasnorm_wordpool_less_exclusions.txt	LTP254	ltpFR	1	4	0	WINNER	1615	n/a	1	n/a	n/a	n/a	n/a	n/a
1202.222	n/a	REC_WORD	601111	wordpools/wasnorm_wordpool_less_exclusions.txt	LTP254	ltpFR	1	4	0	OINTMENT	974	n/a	0	n/a	n/a	n/a	n/a	n/a
1214.864	n/a	REC_WORD	607432	wordpools/wasnorm_wordpool_less_exclusions.txt	LTP254	ltpFR	1	4	0	COMPUTER	359	n/a	1	n/a	n/a	n/a	n/a	n/a
1237.148	n/a	WORD	618574	wordpools/wasnorm_wordpool_less_exclusions.txt	LTP254	ltpFR	1	5	1	BASKETBALL	96	n/a	0	0	0.5869140625	0.422607421875	lower	../fonts/amplitud.ttf
1241.138	n/a	WORD	620569	wordpools/wasnorm_wordpool_less_exclusions.txt	LTP254	ltpFR	1	5	1	KLEENEX	782	n/a	0	0	0.5869140625	0.422607421875	lower	../fonts/amplitud.ttf
1245.028	n/a	WORD	622514	wordpools/wasnorm_wordpool_less_exclusions.txt	LTP254	ltpFR	1	5	1	SNOB	1335	n/a	1	0	0.5869140625	0.422607421875	lower	../fonts/amplitud.ttf
1248.926	n/a	WORD	624463	wordpools/wasnorm_wordpool_less_exclusions.txt	LTP254	ltpFR	1	5	1	CANDY	230	n/a	0	0	0.5869140625	0.422607421875	lower	../fonts/amplitud.ttf
1252.84	n/a	WORD	626420	wordpools/wasnorm_wordpool_less_exclusions.txt	LTP254	ltpFR	1	5	1	RANCH	1166	n/a	0	0	0.5869140625	0.422607421875	lower	../fonts/amplitud.ttf
1256.672	n/a	WORD	628336	wordpools/wasnorm_wordpool_less_exclusions.txt	LTP254	ltpFR	1	5	1	UNICORN	1538	n/a	1	0	0.5869140625	0.422607421875	lower	../fonts/amplitud.ttf
1260.804	n/a	WORD	630402	wordpools/wasnorm_wordpool_less_exclusions.txt	LTP254	ltpFR	1	5	1	POPCORN	1104	n/a	0	0	0.5869140625	0.422607421875	lower	../fonts/amplitud.ttf
1264.896	n/a	WORD	632448	wordpools/wasnorm_wordpool_less_exclusions.txt	LTP254	ltpFR	1	5	1	PICTURE	1061	n/a	0	0	0.5869140625	0.422607421875	lower	../fonts/amplitud.ttf
1268.852	n/a	WORD	634426	wordpools/wasnorm_wordpool_less_exclusions.txt	LTP254	ltpFR	1	5	1	SQUIRREL	1362	n/a	1	0	0.5869140625	0.422607421875	lower	../fonts/amplitud.ttf
1272.826	n/a	WORD	636413	wordpools/wasnorm_wordpool_less_exclusions.txt	LTP254	ltpFR	1	5	1	STICKER	1382	n/a	0	0	0.5869140625	0.422607421875	lower	../fonts/amplitud.ttf
1276.908	n/a	WORD	638454	wordpools/wasnorm_wordpool_less_exclusions.txt	LTP254	ltpFR	1	5	1	BALL	73	n/a	0	0	0.5869140625	0.422607421875	lower	../fonts/amplitud.ttf
1280.974	n/a	WORD	640487	wordpools/wasnorm_wordpool_less_exclusions.txt	LTP254	ltpFR	1	5	1	VEST	1559	n/a	0	0	0.5869140625	0.422607421875	lower	../fonts/amplitud.ttf
1285.064	n/a	WORD	642532	wordpools/wasnorm_wordpool_less_exclusions.txt	LTP254	ltpFR	1	5	1	FRAME	600	n/a	0	0	0.5869140625	0.422607421875	lower	../fonts/amplitud.ttf
1288.956	n/a	WORD	644478	wordpools/wasnorm_wordpool_less_exclusions.txt	LTP254	ltpFR	1	5	1	ACTRESS	6	n/a	1	0	0.5869140625	0.422607421875	lower	../fonts/amplitud.ttf
1293.144	n/a	WORD	646572	wordpools/wasnorm_wordpool_less_exclusions.txt	LTP254	ltpFR	1	5	1	KITTEN	780	n/a	1	0	0.5869140625	0.422607421875	lower	../fonts/amplitud.ttf
1297.136	n/a	WORD	648568	wordpools/wasnorm_wordpool_less_exclusions.txt	LTP254	ltpFR	1	5	1	RODENT	1204	n/a	1	0	0.5869140625	0.422607421875	lower	../fonts/amplitud.ttf
1303.144	n/a	REC_START	651572	n/a	LTP254	ltpFR	1	5	n/a	n/a	n/a	n/a	n/a	n/a	n/a	n/a	n/a	n/a
1303.992	n/a	REC_WORD	651996	wordpools/wasnorm_wordpool_less_exclusions.txt	LTP254	ltpFR	1	5	1	RODENT	1204	n/a	1	n/a	n/a	n/a	n/a	n/a
1305.124	n/a	REC_WORD	652562	wordpools/wasnorm_wordpool_less_exclusions.txt	LTP254	ltpFR	1	5	1	KITTEN	780	n/a	1	n/a	n/a	n/a	n/a	n/a
1306.584	n/a	REC_WORD	653292	wordpools/wasnorm_wordpool_less_exclusions.txt	LTP254	ltpFR	1	5	1	ACTRESS	6	n/a	1	n/a	n/a	n/a	n/a	n/a
1307.524	n/a	REC_WORD	653762	wordpools/wasnorm_wordpool_less_exclusions.txt	LTP254	ltpFR	1	5	1	SNOB	1335	n/a	1	n/a	n/a	n/a	n/a	n/a
1310.118	n/a	REC_WORD	655059	wordpools/wasnorm_wordpool_less_exclusions.txt	LTP254	ltpFR	1	5	1	BASKETBALL	96	n/a	0	n/a	n/a	n/a	n/a	n/a
1311.954	n/a	REC_WORD	655977	wordpools/wasnorm_wordpool_less_exclusions.txt	LTP254	ltpFR	1	5	1	BALL	73	n/a	0	n/a	n/a	n/a	n/a	n/a
1314.894	n/a	REC_WORD	657447	wordpools/wasnorm_wordpool_less_exclusions.txt	LTP254	ltpFR	1	5	1	KLEENEX	782	n/a	0	n/a	n/a	n/a	n/a	n/a
1344.656	n/a	REC_WORD	672328	wordpools/wasnorm_wordpool_less_exclusions.txt	LTP254	ltpFR	1	5	1	RODENT	1204	n/a	1	n/a	n/a	n/a	n/a	n/a
1352.944	n/a	REC_WORD	676472	wordpools/wasnorm_wordpool_less_exclusions.txt	LTP254	ltpFR	1	5	1	UNICORN	1538	n/a	1	n/a	n/a	n/a	n/a	n/a
1354.926	n/a	REC_WORD	677463	wordpools/wasnorm_wordpool_less_exclusions.txt	LTP254	ltpFR	1	5	1	RANCH	1166	n/a	0	n/a	n/a	n/a	n/a	n/a
1393.47	n/a	WORD	696735	wordpools/wasnorm_wordpool_less_exclusions.txt	LTP254	ltpFR	1	6	0	CARRIAGE	248	n/a	1	1	0.412841796875	0.57763671875	upper	../fonts/zerothre.ttf
1397.31	n/a	WORD	698655	wordpools/wasnorm_wordpool_less_exclusions.txt	LTP254	ltpFR	1	6	0	ASSOCIATE	49	n/a	1	1	0.412841796875	0.57763671875	upper	../fonts/zerothre.ttf
1401.374	n/a	WORD	700687	wordpools/wasnorm_wordpool_less_exclusions.txt	LTP254	ltpFR	1	6	0	SHACK	1273	n/a	1	1	0.412841796875	0.57763671875	upper	../fonts/zerothre.ttf
1405.584	n/a	WORD	702792	wordpools/wasnorm_wordpool_less_exclusions.txt	LTP254	ltpFR	1	6	0	HOUSE	725	n/a	1	1	0.412841796875	0.57763671875	upper	../fonts/zerothre.ttf
1409.572	n/a	WORD	704786	wordpools/wasnorm_wordpool_less_exclusions.txt	LTP254	ltpFR	1	6	0	CAR	241	n/a	1	1	0.412841796875	0.57763671875	upper	../fonts/zerothre.ttf
1413.798	n/a	WORD	706899	wordpools/wasnorm_wordpool_less_exclusions.txt	LTP254	ltpFR	1	6	0	SLIDE	1326	n/a	1	1	0.412841796875	0.57763671875	upper	../fonts/zerothre.ttf
1417.748	n/a	WORD	708874	wordpools/wasnorm_wordpool_less_exclusions.txt	LTP254	ltpFR	1	6	0	STATUE	1374	n/a	1	1	0.412841796875	0.57763671875	upper	../fonts/zerothre.ttf
1421.628	n/a	WORD	710814	wordpools/wasnorm_wordpool_less_exclusions.txt	LTP254	ltpFR	1	6	0	FROST	609	n/a	0	1	0.412841796875	0.57763671875	upper	../fonts/zerothre.ttf
1425.508	n/a	WORD	712754	wordpools/wasnorm_wordpool_less_exclusions.txt	LTP254	ltpFR	1	6	0	PUCK	1138	n/a	0	1	0.412841796875	0.57763671875	upper	../fonts/zerothre.ttf
1429.558	n/a	WORD	714779	wordpools/wasnorm_wordpool_less_exclusions.txt	LTP254	ltpFR	1	6	0	CUFF	423	n/a	0	1	0.412841796875	0.57763671875	upper	../fonts/zerothre.ttf
1433.724	n/a	WORD	716862	wordpools/wasnorm_wordpool_less_exclusions.txt	LTP254	ltpFR	1	6	0	JACKET	747	n/a	1	1	0.412841796875	0.57763671875	upper	../fonts/zerothre.ttf
1437.714	n/a	WORD	718857	wordpools/wasnorm_wordpool_less_exclusions.txt	LTP254	ltpFR	1	6	0	BATTERY	101	n/a	0	1	0.412841796875	0.57763671875	upper	../fonts/zerothre.ttf
1441.662	n/a	WORD	720831	wordpools/wasnorm_wordpool_less_exclusions.txt	LTP254	ltpFR	1	6	0	INFANT	737	n/a	0	1	0.412841796875	0.57763671875	upper	../fonts/zerothre.ttf
1445.61	n/a	WORD	722805	wordpools/wasnorm_wordpool_less_exclusions.txt	LTP254	ltpFR	1	6	0	WART	1590	n/a	0	1	0.412841796875	0.57763671875	upper	../fonts/zerothre.ttf
1449.626	n/a	WORD	724813	wordpools/wasnorm_wordpool_less_exclusions.txt	LTP254	ltpFR	1	6	0	POPE	1105	n/a	1	1	0.412841796875	0.57763671875	upper	../fonts/zerothre.ttf
1453.522	n/a	WORD	726761	wordpools/wasnorm_wordpool_less_exclusions.txt	LTP254	ltpFR	1	6	0	ISLAND	745	n/a	1	1	0.412841796875	0.57763671875	upper	../fonts/zerothre.ttf
1459.39	n/a	REC_START	729695	n/a	LTP254	ltpFR	1	6	n/a	n/a	n/a	n/a	n/a	n/a	n/a	n/a	n/a	n/a
1460.794	n/a	REC_WORD	730397	wordpools/wasnorm_wordpool_less_exclusions.txt	LTP254	ltpFR	1	6	0	ISLAND	745	n/a	1	n/a	n/a	n/a	n/a	n/a
1462.346	n/a	REC_WORD	731173	wordpools/wasnorm_wordpool_less_exclusions.txt	LTP254	ltpFR	1	6	0	POPE	1105	n/a	1	n/a	n/a	n/a	n/a	n/a
1463.434	n/a	REC_WORD	731717	wordpools/wasnorm_wordpool_less_exclusions.txt	LTP254	ltpFR	1	6	0	WART	1590	n/a	0	n/a	n/a	n/a	n/a	n/a
1465.03	n/a	REC_WORD	732515	wordpools/wasnorm_wordpool_less_exclusions.txt	LTP254	ltpFR	1	6	0	INFANT	737	n/a	0	n/a	n/a	n/a	n/a	n/a
1466.294	n/a	REC_WORD	733147	wordpools/wasnorm_wordpool_less_exclusions.txt	LTP254	ltpFR	1	6	0	CUFF	423	n/a	0	n/a	n/a	n/a	n/a	n/a
1467.92	n/a	REC_WORD	733960	wordpools/wasnorm_wordpool_less_exclusions.txt	LTP254	ltpFR	1	6	0	PUCK	1138	n/a	0	n/a	n/a	n/a	n/a	n/a
1469.278	n/a	REC_WORD	734639	wordpools/wasnorm_wordpool_less_exclusions.txt	LTP254	ltpFR	1	6	0	FROST	609	n/a	0	n/a	n/a	n/a	n/a	n/a
1473.158	n/a	REC_WORD	736579	wordpools/wasnorm_wordpool_less_exclusions.txt	LTP254	ltpFR	1	6	0	HOUSE	725	n/a	1	n/a	n/a	n/a	n/a	n/a
1474.554	n/a	REC_WORD	737277	wordpools/wasnorm_wordpool_less_exclusions.txt	LTP254	ltpFR	1	6	0	SHACK	1273	n/a	1	n/a	n/a	n/a	n/a	n/a
1477.35	n/a	REC_WORD	738675	wordpools/wasnorm_wordpool_less_exclusions.txt	LTP254	ltpFR	1	6	0	CAR	241	n/a	1	n/a	n/a	n/a	n/a	n/a
1479.25	n/a	REC_WORD	739625	wordpools/wasnorm_wordpool_less_exclusions.txt	LTP254	ltpFR	1	6	0	BATTERY	101	n/a	0	n/a	n/a	n/a	n/a	n/a
1551.366	n/a	WORD	775683	wordpools/wasnorm_wordpool_less_exclusions.txt	LTP254	ltpFR	1	7	1	FUDGE	611	n/a	0	0	0.5869140625	0.422607421875	lower	../fonts/amplitud.ttf
1555.462	n/a	WORD	777731	wordpools/wasnorm_wordpool_less_exclusions.txt	LTP254	ltpFR	1	7	1	DILL	465	n/a	1	0	0.5869140625	0.422607421875	lower	../fonts/amplitud.ttf
1559.304	n/a	WORD	779652	wordpools/wasnorm_wordpool_less_exclusions.txt	LTP254	ltpFR	1	7	1	BALCONY	72	n/a	0	0	0.5869140625	0.422607421875	lower	../fonts/amplitud.ttf
1563.32	n/a	WORD	781660	wordpools/wasnorm_wordpool_less_exclusions.txt	LTP254	ltpFR	1	7	0	SIDEWALK	1303	n/a	1	1	0.412841796875	0.57763671875	upper	../fonts/zerothre.ttf
1567.208	n/a	WORD	783604	wordpools/wasnorm_wordpool_less_exclusions.txt	LTP254	ltpFR	1	7	0	UNCLE	1536	n/a	1	1	0.412841796875	0.57763671875	upper	../fonts/zerothre.ttf
1571.1	n/a	WORD	785550	wordpools/wasnorm_wordpool_less_exclusions.txt	LTP254	ltpFR	1	7	0	STEP	1377	n/a	0	1	0.412841796875	0.57763671875	upper	../fonts/zerothre.ttf
1575.014	n/a	WORD	787507	wordpools/wasnorm_wordpool_less_exclusions.txt	LTP254	ltpFR	1	7	0	ALLEY	15	n/a	1	1	0.412841796875	0.57763671875	upper	../fonts/zerothre.ttf
1579.188	n/a	WORD	789594	wordpools/wasnorm_wordpool_less_exclusions.txt	LTP254	ltpFR	1	7	1	SALESMAN	1225	n/a	1	0	0.5869140625	0.422607421875	lower	../fonts/amplitud.ttf
1583.354	n/a	WORD	791677	wordpools/wasnorm_wordpool_less_exclusions.txt	LTP254	ltpFR	1	7	1	CUSTOMER	430	n/a	1	0	0.5869140625	0.422607421875	lower	../fonts/amplitud.ttf
1587.468	n/a	WORD	793734	wordpools/wasnorm_wordpool_less_exclusions.txt	LTP254	ltpFR	1	7	0	SCARECROW	1245	n/a	1	1	0.412841796875	0.57763671875	upper	../fonts/zerothre.ttf
1591.652	n/a	WORD	795826	wordpools/wasnorm_wordpool_less_exclusions.txt	LTP254	ltpFR	1	7	0	OATS	968	n/a	0	1	0.412841796875	0.57763671875	upper	../fonts/zerothre.ttf
1595.516	n/a	WORD	797758	wordpools/wasnorm_wordpool_less_exclusions.txt	LTP254	ltpFR	1	7	0	BRAN	167	n/a	0	1	0.412841796875	0.57763671875	upper	../fonts/zerothre.ttf
1599.43	n/a	WORD	799715	wordpools/wasnorm_wordpool_less_exclusions.txt	LTP254	ltpFR	1	7	0	RAM	1165	n/a	1	1	0.412841796875	0.57763671875	upper	../fonts/zerothre.ttf
1603.396	n/a	WORD	801698	wordpools/wasnorm_wordpool_less_exclusions.txt	LTP254	ltpFR	1	7	1	LASER	801	n/a	0	0	0.5869140625	0.422607421875	lower	../fonts/amplitud.ttf
1607.488	n/a	WORD	803744	wordpools/wasnorm_wordpool_less_exclusions.txt	LTP254	ltpFR	1	7	1	PLAYGROUND	1087	n/a	0	0	0.5869140625	0.422607421875	lower	../fonts/amplitud.ttf
1611.578	n/a	WORD	805789	wordpools/wasnorm_wordpool_less_exclusions.txt	LTP254	ltpFR	1	7	1	ANIMAL	23	n/a	1	0	0.5869140625	0.422607421875	lower	../fonts/amplitud.ttf
1617.426	n/a	REC_START	808713	n/a	LTP254	ltpFR	1	7	n/a	n/a	n/a	n/a	n/a	n/a	n/a	n/a	n/a	n/a
1618.726	n/a	REC_WORD	809363	wordpools/wasnorm_wordpool_less_exclusions.txt	LTP254	ltpFR	1	7	1	ANIMAL	23	n/a	1	n/a	n/a	n/a	n/a	n/a
1619.818	n/a	REC_WORD	809909	wordpools/wasnorm_wordpool_less_exclusions.txt	LTP254	ltpFR	1	7	1	PLAYGROUND	1087	n/a	0	n/a	n/a	n/a	n/a	n/a
1620.794	n/a	REC_WORD	810397	wordpools/wasnorm_wordpool_less_exclusions.txt	LTP254	ltpFR	1	7	0	SCARECROW	1245	n/a	1	n/a	n/a	n/a	n/a	n/a
1622.354	n/a	REC_WORD	811177	wordpools/wasnorm_wordpool_less_exclusions.txt	LTP254	ltpFR	1	7	1	SALESMAN	1225	n/a	1	n/a	n/a	n/a	n/a	n/a
1624.148	n/a	REC_WORD	812074	wordpools/wasnorm_wordpool_less_exclusions.txt	LTP254	ltpFR	1	7	1	CUSTOMER	430	n/a	1	n/a	n/a	n/a	n/a	n/a
1626.39	n/a	REC_WORD	813195	wordpools/wasnorm_wordpool_less_exclusions.txt	LTP254	ltpFR	1	7	1	FUDGE	611	n/a	0	n/a	n/a	n/a	n/a	n/a
1628.032	n/a	REC_WORD	814016	wordpools/wasnorm_wordpool_less_exclusions.txt	LTP254	ltpFR	1	7	1	DILL	465	n/a	1	n/a	n/a	n/a	n/a	n/a
1629.994	n/a	REC_WORD	814997	wordpools/wasnorm_wordpool_less_exclusions.txt	LTP254	ltpFR	1	7	0	SIDEWALK	1303	n/a	1	n/a	n/a	n/a	n/a	n/a
1632.156	n/a	REC_WORD	816078	wordpools/wasnorm_wordpool_less_exclusions.txt	LTP254	ltpFR	1	7	0	ALLEY	15	n/a	1	n/a	n/a	n/a	n/a	n/a
1634.214	n/a	REC_WORD	817107	wordpools/wasnorm_wordpool_less_exclusions.txt	LTP254	ltpFR	1	7	0	STEP	1377	n/a	0	n/a	n/a	n/a	n/a	n/a
1651.032	n/a	REC_WORD	825516	wordpools/wasnorm_wordpool_less_exclusions.txt	LTP254	ltpFR	1	7	1	PLAYGROUND	1087	n/a	0	n/a	n/a	n/a	n/a	n/a
1672.76	n/a	REC_WORD	836380	wordpools/wasnorm_wordpool_less_exclusions.txt	LTP254	ltpFR	1	7	0	UNCLE	1536	n/a	1	n/a	n/a	n/a	n/a	n/a
1733.812	n/a	WORD	866906	wordpools/wasnorm_wordpool_less_exclusions.txt	LTP254	ltpFR	1	8	-1	PLUM	1090	n/a	-1	1	1.0	1.0	upper	../fonts/Verdana.ttf
1737.904	n/a	WORD	868952	wordpools/wasnorm_wordpool_less_exclusions.txt	LTP254	ltpFR	1	8	-1	SQUID	1361	n/a	-1	1	1.0	1.0	upper	../fonts/Verdana.ttf
1741.894	n/a	WORD	870947	wordpools/wasnorm_wordpool_less_exclusions.txt	LTP254	ltpFR	1	8	-1	SEA	1259	n/a	-1	1	1.0	1.0	upper	../fonts/Verdana.ttf
1745.908	n/a	WORD	872954	wordpools/wasnorm_wordpool_less_exclusions.txt	LTP254	ltpFR	1	8	-1	DOUGHNUT	490	n/a	-1	1	1.0	1.0	upper	../fonts/Verdana.ttf
1750.134	n/a	WORD	875067	wordpools/wasnorm_wordpool_less_exclusions.txt	LTP254	ltpFR	1	8	-1	BERRY	122	n/a	-1	1	1.0	1.0	upper	../fonts/Verdana.ttf
1754.106	n/a	WORD	877053	wordpools/wasnorm_wordpool_less_exclusions.txt	LTP254	ltpFR	1	8	-1	RABBIT	1152	n/a	-1	1	1.0	1.0	upper	../fonts/Verdana.ttf
1758.256	n/a	WORD	879128	wordpools/wasnorm_wordpool_less_exclusions.txt	LTP254	ltpFR	1	8	-1	CALF	222	n/a	-1	1	1.0	1.0	upper	../fonts/Verdana.ttf
1762.454	n/a	WORD	881227	wordpools/wasnorm_wordpool_less_exclusions.txt	LTP254	ltpFR	1	8	-1	SWEATER	1419	n/a	-1	1	1.0	1.0	upper	../fonts/Verdana.ttf
1766.67	n/a	WORD	883335	wordpools/wasnorm_wordpool_less_exclusions.txt	LTP254	ltpFR	1	8	-1	FAN	551	n/a	-1	1	1.0	1.0	upper	../fonts/Verdana.ttf
1770.51	n/a	WORD	885255	wordpools/wasnorm_wordpool_less_exclusions.txt	LTP254	ltpFR	1	8	-1	DIPLOMA	470	n/a	-1	1	1.0	1.0	upper	../fonts/Verdana.ttf
1774.718	n/a	WORD	887359	wordpools/wasnorm_wordpool_less_exclusions.txt	LTP254	ltpFR	1	8	-1	REFEREE	1178	n/a	-1	1	1.0	1.0	upper	../fonts/Verdana.ttf
1778.934	n/a	WORD	889467	wordpools/wasnorm_wordpool_less_exclusions.txt	LTP254	ltpFR	1	8	-1	TOAST	1471	n/a	-1	1	1.0	1.0	upper	../fonts/Verdana.ttf
1783.134	n/a	WORD	891567	wordpools/wasnorm_wordpool_less_exclusions.txt	LTP254	ltpFR	1	8	-1	TURTLE	1522	n/a	-1	1	1.0	1.0	upper	../fonts/Verdana.ttf
1786.966	n/a	WORD	893483	wordpools/wasnorm_wordpool_less_exclusions.txt	LTP254	ltpFR	1	8	-1	CANAL	226	n/a	-1	1	1.0	1.0	upper	../fonts/Verdana.ttf
1790.98	n/a	WORD	895490	wordpools/wasnorm_wordpool_less_exclusions.txt	LTP254	ltpFR	1	8	-1	STORE	1387	n/a	-1	1	1.0	1.0	upper	../fonts/Verdana.ttf
1795.012	n/a	WORD	897506	wordpools/wasnorm_wordpool_less_exclusions.txt	LTP254	ltpFR	1	8	-1	MARKET	871	n/a	-1	1	1.0	1.0	upper	../fonts/Verdana.ttf
1800.828	n/a	REC_START	900414	n/a	LTP254	ltpFR	1	8	n/a	n/a	n/a	n/a	n/a	n/a	n/a	n/a	n/a	n/a
1801.884	n/a	REC_WORD	900942	wordpools/wasnorm_wordpool_less_exclusions.txt	LTP254	ltpFR	1	8	-1	MARKET	871	n/a	-1	n/a	n/a	n/a	n/a	n/a
1802.664	n/a	REC_WORD	901332	wordpools/wasnorm_wordpool_less_exclusions.txt	LTP254	ltpFR	1	8	-1	STORE	1387	n/a	-1	n/a	n/a	n/a	n/a	n/a
1804.216	n/a	REC_WORD	902108	wordpools/wasnorm_wordpool_less_exclusions.txt	LTP254	ltpFR	1	8	-1	TURTLE	1522	n/a	-1	n/a	n/a	n/a	n/a	n/a
1804.99	n/a	REC_WORD	902495	wordpools/wasnorm_wordpool_less_exclusions.txt	LTP254	ltpFR	1	8	-1	SQUID	1361	n/a	-1	n/a	n/a	n/a	n/a	n/a
1806.546	n/a	REC_WORD	903273	wordpools/wasnorm_wordpool_less_exclusions.txt	LTP254	ltpFR	1	8	-1	PLUM	1090	n/a	-1	n/a	n/a	n/a	n/a	n/a
1807.86	n/a	REC_WORD	903930	wordpools/wasnorm_wordpool_less_exclusions.txt	LTP254	ltpFR	1	8	-1	DOUGHNUT	490	n/a	-1	n/a	n/a	n/a	n/a	n/a
1809.516	n/a	REC_WORD	904758	wordpools/wasnorm_wordpool_less_exclusions.txt	LTP254	ltpFR	1	8	-1	BERRY	122	n/a	-1	n/a	n/a	n/a	n/a	n/a
1811.55	n/a	REC_WORD	905775	wordpools/wasnorm_wordpool_less_exclusions.txt	LTP254	ltpFR	1	8	-1	DIPLOMA	470	n/a	-1	n/a	n/a	n/a	n/a	n/a
1812.996	n/a	REC_WORD	906498	wordpools/wasnorm_wordpool_less_exclusions.txt	LTP254	ltpFR	1	8	-1	FAN	551	n/a	-1	n/a	n/a	n/a	n/a	n/a
1814.722	n/a	REC_WORD	907361	wordpools/wasnorm_wordpool_less_exclusions.txt	LTP254	ltpFR	1	8	-1	REFEREE	1178	n/a	-1	n/a	n/a	n/a	n/a	n/a
1816.424	n/a	REC_WORD	908212	wordpools/wasnorm_wordpool_less_exclusions.txt	LTP254	ltpFR	1	8	-1	RABBIT	1152	n/a	-1	n/a	n/a	n/a	n/a	n/a
1844.278	n/a	REC_WORD	922139	wordpools/wasnorm_wordpool_less_exclusions.txt	LTP254	ltpFR	1	8	-1	SEA	1259	n/a	-1	n/a	n/a	n/a	n/a	n/a
1845.796	n/a	REC_WORD	922898	wordpools/wasnorm_wordpool_less_exclusions.txt	LTP254	ltpFR	1	8	-1	CANAL	226	n/a	-1	n/a	n/a	n/a	n/a	n/a
1890.906	n/a	WORD	945453	wordpools/wasnorm_wordpool_less_exclusions.txt	LTP254	ltpFR	1	9	0	HORIZON	717	n/a	1	1	0.412841796875	0.57763671875	upper	../fonts/zerothre.ttf
1895.028	n/a	WORD	947514	wordpools/wasnorm_wordpool_less_exclusions.txt	LTP254	ltpFR	1	9	0	MOON	914	n/a	1	1	0.412841796875	0.57763671875	upper	../fonts/zerothre.ttf
1898.96	n/a	WORD	949480	wordpools/wasnorm_wordpool_less_exclusions.txt	LTP254	ltpFR	1	9	0	TENT	1449	n/a	1	1	0.412841796875	0.57763671875	upper	../fonts/zerothre.ttf
1903.134	n/a	WORD	951567	wordpools/wasnorm_wordpool_less_exclusions.txt	LTP254	ltpFR	1	9	0	BEAD	103	n/a	0	1	0.412841796875	0.57763671875	upper	../fonts/zerothre.ttf
1907.224	n/a	WORD	953612	wordpools/wasnorm_wordpool_less_exclusions.txt	LTP254	ltpFR	1	9	0	FREEWAY	603	n/a	1	1	0.412841796875	0.57763671875	upper	../fonts/zerothre.ttf
1911.1	n/a	WORD	955550	wordpools/wasnorm_wordpool_less_exclusions.txt	LTP254	ltpFR	1	9	0	TWIG	1527	n/a	0	1	0.412841796875	0.57763671875	upper	../fonts/zerothre.ttf
1915.004	n/a	WORD	957502	wordpools/wasnorm_wordpool_less_exclusions.txt	LTP254	ltpFR	1	9	0	MOSS	918	n/a	0	1	0.412841796875	0.57763671875	upper	../fonts/zerothre.ttf
1918.962	n/a	WORD	959481	wordpools/wasnorm_wordpool_less_exclusions.txt	LTP254	ltpFR	1	9	0	TRUCK	1512	n/a	1	1	0.412841796875	0.57763671875	upper	../fonts/zerothre.ttf
1923.136	n/a	WORD	961568	wordpools/wasnorm_wordpool_less_exclusions.txt	LTP254	ltpFR	1	9	0	EMERALD	528	n/a	0	1	0.412841796875	0.57763671875	upper	../fonts/zerothre.ttf
1927.042	n/a	WORD	963521	wordpools/wasnorm_wordpool_less_exclusions.txt	LTP254	ltpFR	1	9	0	WARRIOR	1589	n/a	1	1	0.412841796875	0.57763671875	upper	../fonts/zerothre.ttf
1930.966	n/a	WORD	965483	wordpools/wasnorm_wordpool_less_exclusions.txt	LTP254	ltpFR	1	9	0	WICK	1607	n/a	0	1	0.412841796875	0.57763671875	upper	../fonts/zerothre.ttf
1934.956	n/a	WORD	967478	wordpools/wasnorm_wordpool_less_exclusions.txt	LTP254	ltpFR	1	9	0	TECHNICIAN	1443	n/a	1	1	0.412841796875	0.57763671875	upper	../fonts/zerothre.ttf
1939.038	n/a	WORD	969519	wordpools/wasnorm_wordpool_less_exclusions.txt	LTP254	ltpFR	1	9	0	CHIME	300	n/a	0	1	0.412841796875	0.57763671875	upper	../fonts/zerothre.ttf
1942.954	n/a	WORD	971477	wordpools/wasnorm_wordpool_less_exclusions.txt	LTP254	ltpFR	1	9	0	MOOSE	915	n/a	1	1	0.412841796875	0.57763671875	upper	../fonts/zerothre.ttf
1947.126	n/a	WORD	973563	wordpools/wasnorm_wordpool_less_exclusions.txt	LTP254	ltpFR	1	9	0	DUCK	504	n/a	0	1	0.412841796875	0.57763671875	upper	../fonts/zerothre.ttf
1951.236	n/a	WORD	975618	wordpools/wasnorm_wordpool_less_exclusions.txt	LTP254	ltpFR	1	9	0	JELLY	755	n/a	0	1	0.412841796875	0.57763671875	upper	../fonts/zerothre.ttf
1957.042	n/a	REC_START	978521	n/a	LTP254	ltpFR	1	9	n/a	n/a	n/a	n/a	n/a	n/a	n/a	n/a	n/a	n/a
1958.288	n/a	REC_WORD	979144	wordpools/wasnorm_wordpool_less_exclusions.txt	LTP254	ltpFR	1	9	0	JELLY	755	n/a	0	n/a	n/a	n/a	n/a	n/a
1959.72	n/a	REC_WORD	979860	wordpools/wasnorm_wordpool_less_exclusions.txt	LTP254	ltpFR	1	9	0	DUCK	504	n/a	0	n/a	n/a	n/a	n/a	n/a
1960.92	n/a	REC_WORD	980460	wordpools/wasnorm_wordpool_less_exclusions.txt	LTP254	ltpFR	1	9	0	MOOSE	915	n/a	1	n/a	n/a	n/a	n/a	n/a
1962.518	n/a	REC_WORD	981259	wordpools/wasnorm_wordpool_less_exclusions.txt	LTP254	ltpFR	1	9	0	TRUCK	1512	n/a	1	n/a	n/a	n/a	n/a	n/a
1964.146	n/a	REC_WORD	982073	wordpools/wasnorm_wordpool_less_exclusions.txt	LTP254	ltpFR	1	9	n/a	HIGHWAY	707	n/a	n/a	n/a	n/a	n/a	n/a	n/a
1965.966	n/a	REC_WORD	982983	wordpools/wasnorm_wordpool_less_exclusions.txt	LTP254	ltpFR	1	9	0	HORIZON	717	n/a	1	n/a	n/a	n/a	n/a	n/a
1968.09	n/a	REC_WORD	984045	wordpools/wasnorm_wordpool_less_exclusions.txt	LTP254	ltpFR	1	9	0	MOSS	918	n/a	0	n/a	n/a	n/a	n/a	n/a
1969.488	n/a	REC_WORD	984744	wordpools/wasnorm_wordpool_less_exclusions.txt	LTP254	ltpFR	1	9	0	TWIG	1527	n/a	0	n/a	n/a	n/a	n/a	n/a
1981.296	n/a	REC_WORD	990648	wordpools/wasnorm_wordpool_less_exclusions.txt	LTP254	ltpFR	1	9	0	TECHNICIAN	1443	n/a	1	n/a	n/a	n/a	n/a	n/a
1988.722	n/a	REC_WORD	994361	wordpools/wasnorm_wordpool_less_exclusions.txt	LTP254	ltpFR	1	9	0	TENT	1449	n/a	1	n/a	n/a	n/a	n/a	n/a
2062.476	n/a	WORD	1031238	wordpools/wasnorm_wordpool_less_exclusions.txt	LTP254	ltpFR	1	10	-1	CURB	426	n/a	-1	1	1.0	1.0	upper	../fonts/Verdana.ttf
2066.526	n/a	WORD	1033263	wordpools/wasnorm_wordpool_less_exclusions.txt	LTP254	ltpFR	1	10	-1	INCENSE	735	n/a	-1	1	1.0	1.0	upper	../fonts/Verdana.ttf
2070.54	n/a	WORD	1035270	wordpools/wasnorm_wordpool_less_exclusions.txt	LTP254	ltpFR	1	10	-1	LIME	823	n/a	-1	1	1.0	1.0	upper	../fonts/Verdana.ttf
2074.53	n/a	WORD	1037265	wordpools/wasnorm_wordpool_less_exclusions.txt	LTP254	ltpFR	1	10	-1	MINT	898	n/a	-1	1	1.0	1.0	upper	../fonts/Verdana.ttf
2078.696	n/a	WORD	1039348	wordpools/wasnorm_wordpool_less_exclusions.txt	LTP254	ltpFR	1	10	-1	CASH	252	n/a	-1	1	1.0	1.0	upper	../fonts/Verdana.ttf
2082.88	n/a	WORD	1041440	wordpools/wasnorm_wordpool_less_exclusions.txt	LTP254	ltpFR	1	10	-1	PLASTER	1085	n/a	-1	1	1.0	1.0	upper	../fonts/Verdana.ttf
2086.988	n/a	WORD	1043494	wordpools/wasnorm_wordpool_less_exclusions.txt	LTP254	ltpFR	1	10	-1	KETCHUP	771	n/a	-1	1	1.0	1.0	upper	../fonts/Verdana.ttf
2091.154	n/a	WORD	1045577	wordpools/wasnorm_wordpool_less_exclusions.txt	LTP254	ltpFR	1	10	-1	FLEA	577	n/a	-1	1	1.0	1.0	upper	../fonts/Verdana.ttf
2095.31	n/a	WORD	1047655	wordpools/wasnorm_wordpool_less_exclusions.txt	LTP254	ltpFR	1	10	-1	FRUIT	610	n/a	-1	1	1.0	1.0	upper	../fonts/Verdana.ttf
2099.318	n/a	WORD	1049659	wordpools/wasnorm_wordpool_less_exclusions.txt	LTP254	ltpFR	1	10	-1	BALLOON	75	n/a	-1	1	1.0	1.0	upper	../fonts/Verdana.ttf
2103.2	n/a	WORD	1051600	wordpools/wasnorm_wordpool_less_exclusions.txt	LTP254	ltpFR	1	10	-1	ATMOSPHERE	54	n/a	-1	1	1.0	1.0	upper	../fonts/Verdana.ttf
2107.332	n/a	WORD	1053666	wordpools/wasnorm_wordpool_less_exclusions.txt	LTP254	ltpFR	1	10	-1	CARROT	249	n/a	-1	1	1.0	1.0	upper	../fonts/Verdana.ttf
2111.27	n/a	WORD	1055635	wordpools/wasnorm_wordpool_less_exclusions.txt	LTP254	ltpFR	1	10	-1	SKIRT	1319	n/a	-1	1	1.0	1.0	upper	../fonts/Verdana.ttf
2115.136	n/a	WORD	1057568	wordpools/wasnorm_wordpool_less_exclusions.txt	LTP254	ltpFR	1	10	-1	DRESS	495	n/a	-1	1	1.0	1.0	upper	../fonts/Verdana.ttf
2119.302	n/a	WORD	1059651	wordpools/wasnorm_wordpool_less_exclusions.txt	LTP254	ltpFR	1	10	-1	MUSTARD	935	n/a	-1	1	1.0	1.0	upper	../fonts/Verdana.ttf
2123.35	n/a	WORD	1061675	wordpools/wasnorm_wordpool_less_exclusions.txt	LTP254	ltpFR	1	10	-1	NICOTINE	951	n/a	-1	1	1.0	1.0	upper	../fonts/Verdana.ttf
2129.166	n/a	REC_START	1064583	n/a	LTP254	ltpFR	1	10	n/a	n/a	n/a	n/a	n/a	n/a	n/a	n/a	n/a	n/a
2130.326	n/a	REC_WORD	1065163	wordpools/wasnorm_wordpool_less_exclusions.txt	LTP254	ltpFR	1	10	-1	NICOTINE	951	n/a	-1	n/a	n/a	n/a	n/a	n/a
2131.654	n/a	REC_WORD	1065827	wordpools/wasnorm_wordpool_less_exclusions.txt	LTP254	ltpFR	1	10	-1	KETCHUP	771	n/a	-1	n/a	n/a	n/a	n/a	n/a
2132.544	n/a	REC_WORD	1066272	wordpools/wasnorm_wordpool_less_exclusions.txt	LTP254	ltpFR	1	10	-1	MUSTARD	935	n/a	-1	n/a	n/a	n/a	n/a	n/a
2135.196	n/a	REC_WORD	1067598	wordpools/wasnorm_wordpool_less_exclusions.txt	LTP254	ltpFR	1	10	-1	LIME	823	n/a	-1	n/a	n/a	n/a	n/a	n/a
2136.858	n/a	REC_WORD	1068429	wordpools/wasnorm_wordpool_less_exclusions.txt	LTP254	ltpFR	1	10	-1	CASH	252	n/a	-1	n/a	n/a	n/a	n/a	n/a
2140.21	n/a	REC_WORD	1070105	wordpools/wasnorm_wordpool_less_exclusions.txt	LTP254	ltpFR	1	10	-1	CARROT	249	n/a	-1	n/a	n/a	n/a	n/a	n/a
2142.908	n/a	REC_WORD	1071454	wordpools/wasnorm_wordpool_less_exclusions.txt	LTP254	ltpFR	1	10	-1	FRUIT	610	n/a	-1	n/a	n/a	n/a	n/a	n/a
2150.022	n/a	REC_WORD	1075011	wordpools/wasnorm_wordpool_less_exclusions.txt	LTP254	ltpFR	1	10	-1	CURB	426	n/a	-1	n/a	n/a	n/a	n/a	n/a
2231.312	n/a	WORD	1115656	wordpools/wasnorm_wordpool_less_exclusions.txt	LTP254	ltpFR	1	11	1	OCTOPUS	971	n/a	1	0	0.5869140625	0.422607421875	lower	../fonts/amplitud.ttf
2235.144	n/a	WORD	1117572	wordpools/wasnorm_wordpool_less_exclusions.txt	LTP254	ltpFR	1	11	1	JUG	762	n/a	0	0	0.5869140625	0.422607421875	lower	../fonts/amplitud.ttf
2239.176	n/a	WORD	1119588	wordpools/wasnorm_wordpool_less_exclusions.txt	LTP254	ltpFR	1	11	1	BOARD	143	n/a	0	0	0.5869140625	0.422607421875	lower	../fonts/amplitud.ttf
2243.392	n/a	WORD	1121696	wordpools/wasnorm_wordpool_less_exclusions.txt	LTP254	ltpFR	1	11	1	BANQUET	86	n/a	0	0	0.5869140625	0.422607421875	lower	../fonts/amplitud.ttf
2247.35	n/a	WORD	1123675	wordpools/wasnorm_wordpool_less_exclusions.txt	LTP254	ltpFR	1	11	1	GIFT	635	n/a	0	0	0.5869140625	0.422607421875	lower	../fonts/amplitud.ttf
2251.266	n/a	WORD	1125633	wordpools/wasnorm_wordpool_less_exclusions.txt	LTP254	ltpFR	1	11	1	CHAUFFEUR	283	n/a	1	0	0.5869140625	0.422607421875	lower	../fonts/amplitud.ttf
2255.48	n/a	WORD	1127740	wordpools/wasnorm_wordpool_less_exclusions.txt	LTP254	ltpFR	1	11	1	TAVERN	1437	n/a	0	0	0.5869140625	0.422607421875	lower	../fonts/amplitud.ttf
2259.648	n/a	WORD	1129824	wordpools/wasnorm_wordpool_less_exclusions.txt	LTP254	ltpFR	1	11	1	RUM	1217	n/a	0	0	0.5869140625	0.422607421875	lower	../fonts/amplitud.ttf
2263.814	n/a	WORD	1131907	wordpools/wasnorm_wordpool_less_exclusions.txt	LTP254	ltpFR	1	11	1	PREACHER	1119	n/a	1	0	0.5869140625	0.422607421875	lower	../fonts/amplitud.ttf
2267.678	n/a	WORD	1133839	wordpools/wasnorm_wordpool_less_exclusions.txt	LTP254	ltpFR	1	11	1	BIBLE	124	n/a	1	0	0.5869140625	0.422607421875	lower	../fonts/amplitud.ttf
2271.794	n/a	WORD	1135897	wordpools/wasnorm_wordpool_less_exclusions.txt	LTP254	ltpFR	1	11	1	CAFE	216	n/a	0	0	0.5869140625	0.422607421875	lower	../fonts/amplitud.ttf
2275.884	n/a	WORD	1137942	wordpools/wasnorm_wordpool_less_exclusions.txt	LTP254	ltpFR	1	11	1	LAKE	796	n/a	0	0	0.5869140625	0.422607421875	lower	../fonts/amplitud.ttf
2280.05	n/a	WORD	1140025	wordpools/wasnorm_wordpool_less_exclusions.txt	LTP254	ltpFR	1	11	1	FURNITURE	616	n/a	0	0	0.5869140625	0.422607421875	lower	../fonts/amplitud.ttf
2284.074	n/a	WORD	1142037	wordpools/wasnorm_wordpool_less_exclusions.txt	LTP254	ltpFR	1	11	1	BRAKE	166	n/a	0	0	0.5869140625	0.422607421875	lower	../fonts/amplitud.ttf
2288.256	n/a	WORD	1144128	wordpools/wasnorm_wordpool_less_exclusions.txt	LTP254	ltpFR	1	11	1	PARENT	1013	n/a	1	0	0.5869140625	0.422607421875	lower	../fonts/amplitud.ttf
2292.34	n/a	WORD	1146170	wordpools/wasnorm_wordpool_less_exclusions.txt	LTP254	ltpFR	1	11	1	FATHER	554	n/a	1	0	0.5869140625	0.422607421875	lower	../fonts/amplitud.ttf
2298.246	n/a	REC_START	1149123	n/a	LTP254	ltpFR	1	11	n/a	n/a	n/a	n/a	n/a	n/a	n/a	n/a	n/a	n/a
2299.282	n/a	REC_WORD	1149641	wordpools/wasnorm_wordpool_less_exclusions.txt	LTP254	ltpFR	1	11	1	PREACHER	1119	n/a	1	n/a	n/a	n/a	n/a	n/a
2300.484	n/a	REC_WORD	1150242	wordpools/wasnorm_wordpool_less_exclusions.txt	LTP254	ltpFR	1	11	1	FATHER	554	n/a	1	n/a	n/a	n/a	n/a	n/a
2301.986	n/a	REC_WORD	1150993	wordpools/wasnorm_wordpool_less_exclusions.txt	LTP254	ltpFR	1	11	1	BIBLE	124	n/a	1	n/a	n/a	n/a	n/a	n/a
2303.538	n/a	REC_WORD	1151769	wordpools/wasnorm_wordpool_less_exclusions.txt	LTP254	ltpFR	1	11	1	PARENT	1013	n/a	1	n/a	n/a	n/a	n/a	n/a
2308.168	n/a	REC_WORD	1154084	wordpools/wasnorm_wordpool_less_exclusions.txt	LTP254	ltpFR	1	11	1	OCTOPUS	971	n/a	1	n/a	n/a	n/a	n/a	n/a
2312.436	n/a	REC_WORD	1156218	wordpools/wasnorm_wordpool_less_exclusions.txt	LTP254	ltpFR	1	11	1	LAKE	796	n/a	0	n/a	n/a	n/a	n/a	n/a
2321.18	n/a	REC_WORD	1160590	wordpools/wasnorm_wordpool_less_exclusions.txt	LTP254	ltpFR	1	11	1	BRAKE	166	n/a	0	n/a	n/a	n/a	n/a	n/a
2357.866	n/a	REC_WORD	1178933	wordpools/wasnorm_wordpool_less_exclusions.txt	LTP254	ltpFR	1	11	1	JUG	762	n/a	0	n/a	n/a	n/a	n/a	n/a
2387.844	n/a	WORD	1193922	wordpools/wasnorm_wordpool_less_exclusions.txt	LTP254	ltpFR	1	12	-1	ESSAY	540	n/a	-1	1	1.0	1.0	upper	../fonts/Verdana.ttf
2392.028	n/a	WORD	1196014	wordpools/wasnorm_wordpool_less_exclusions.txt	LTP254	ltpFR	1	12	-1	PAWN	1030	n/a	-1	1	1.0	1.0	upper	../fonts/Verdana.ttf
2396.244	n/a	WORD	1198122	wordpools/wasnorm_wordpool_less_exclusions.txt	LTP254	ltpFR	1	12	-1	CHECK	284	n/a	-1	1	1.0	1.0	upper	../fonts/Verdana.ttf
2400.25	n/a	WORD	1200125	wordpools/wasnorm_wordpool_less_exclusions.txt	LTP254	ltpFR	1	12	-1	OLIVE	975	n/a	-1	1	1.0	1.0	upper	../fonts/Verdana.ttf
2404.318	n/a	WORD	1202159	wordpools/wasnorm_wordpool_less_exclusions.txt	LTP254	ltpFR	1	12	-1	COAL	332	n/a	-1	1	1.0	1.0	upper	../fonts/Verdana.ttf
2408.272	n/a	WORD	1204136	wordpools/wasnorm_wordpool_less_exclusions.txt	LTP254	ltpFR	1	12	-1	DIGGER	464	n/a	-1	1	1.0	1.0	upper	../fonts/Verdana.ttf
2412.422	n/a	WORD	1206211	wordpools/wasnorm_wordpool_less_exclusions.txt	LTP254	ltpFR	1	12	-1	RING	1193	n/a	-1	1	1.0	1.0	upper	../fonts/Verdana.ttf
2416.296	n/a	WORD	1208148	wordpools/wasnorm_wordpool_less_exclusions.txt	LTP254	ltpFR	1	12	-1	DOORBELL	487	n/a	-1	1	1.0	1.0	upper	../fonts/Verdana.ttf
2420.252	n/a	WORD	1210126	wordpools/wasnorm_wordpool_less_exclusions.txt	LTP254	ltpFR	1	12	-1	SHEET	1279	n/a	-1	1	1.0	1.0	upper	../fonts/Verdana.ttf
2424.46	n/a	WORD	1212230	wordpools/wasnorm_wordpool_less_exclusions.txt	LTP254	ltpFR	1	12	-1	TOWEL	1489	n/a	-1	1	1.0	1.0	upper	../fonts/Verdana.ttf
2428.4	n/a	WORD	1214200	wordpools/wasnorm_wordpool_less_exclusions.txt	LTP254	ltpFR	1	12	-1	ZUCCHINI	1638	n/a	-1	1	1.0	1.0	upper	../fonts/Verdana.ttf
2432.564	n/a	WORD	1216282	wordpools/wasnorm_wordpool_less_exclusions.txt	LTP254	ltpFR	1	12	-1	CANYON	235	n/a	-1	1	1.0	1.0	upper	../fonts/Verdana.ttf
2436.79	n/a	WORD	1218395	wordpools/wasnorm_wordpool_less_exclusions.txt	LTP254	ltpFR	1	12	-1	COP	376	n/a	-1	1	1.0	1.0	upper	../fonts/Verdana.ttf
2440.706	n/a	WORD	1220353	wordpools/wasnorm_wordpool_less_exclusions.txt	LTP254	ltpFR	1	12	-1	VAN	1548	n/a	-1	1	1.0	1.0	upper	../fonts/Verdana.ttf
2444.896	n/a	WORD	1222448	wordpools/wasnorm_wordpool_less_exclusions.txt	LTP254	ltpFR	1	12	-1	VEGETABLE	1552	n/a	-1	1	1.0	1.0	upper	../fonts/Verdana.ttf
2449.038	n/a	WORD	1224519	wordpools/wasnorm_wordpool_less_exclusions.txt	LTP254	ltpFR	1	12	-1	BENCH	121	n/a	-1	1	1.0	1.0	upper	../fonts/Verdana.ttf
2454.81	n/a	REC_START	1227405	n/a	LTP254	ltpFR	1	12	n/a	n/a	n/a	n/a	n/a	n/a	n/a	n/a	n/a	n/a
2455.836	n/a	REC_WORD	1227918	wordpools/wasnorm_wordpool_less_exclusions.txt	LTP254	ltpFR	1	12	-1	BENCH	121	n/a	-1	n/a	n/a	n/a	n/a	n/a
2456.846	n/a	REC_WORD	1228423	wordpools/wasnorm_wordpool_less_exclusions.txt	LTP254	ltpFR	1	12	-1	COP	376	n/a	-1	n/a	n/a	n/a	n/a	n/a
2458.116	n/a	REC_WORD	1229058	wordpools/wasnorm_wordpool_less_exclusions.txt	LTP254	ltpFR	1	12	-1	VAN	1548	n/a	-1	n/a	n/a	n/a	n/a	n/a
2459.522	n/a	REC_WORD	1229761	wordpools/wasnorm_wordpool_less_exclusions.txt	LTP254	ltpFR	1	12	-1	VEGETABLE	1552	n/a	-1	n/a	n/a	n/a	n/a	n/a
2461.284	n/a	REC_WORD	1230642	wordpools/wasnorm_wordpool_less_exclusions.txt	LTP254	ltpFR	1	12	-1	ZUCCHINI	1638	n/a	-1	n/a	n/a	n/a	n/a	n/a
2463.472	n/a	REC_WORD	1231736	wordpools/wasnorm_wordpool_less_exclusions.txt	LTP254	ltpFR	1	12	-1	CANYON	235	n/a	-1	n/a	n/a	n/a	n/a	n/a
2465.602	n/a	REC_WORD	1232801	wordpools/wasnorm_wordpool_less_exclusions.txt	LTP254	ltpFR	1	12	-1	ESSAY	540	n/a	-1	n/a	n/a	n/a	n/a	n/a
2467.306	n/a	REC_WORD	1233653	wordpools/wasnorm_wordpool_less_exclusions.txt	LTP254	ltpFR	1	12	-1	COAL	332	n/a	-1	n/a	n/a	n/a	n/a	n/a
2468.894	n/a	REC_WORD	1234447	wordpools/wasnorm_wordpool_less_exclusions.txt	LTP254	ltpFR	1	12	-1	DIGGER	464	n/a	-1	n/a	n/a	n/a	n/a	n/a
2470.478	n/a	REC_WORD	1235239	wordpools/wasnorm_wordpool_less_exclusions.txt	LTP254	ltpFR	1	12	-1	RING	1193	n/a	-1	n/a	n/a	n/a	n/a	n/a
2472.174	n/a	REC_WORD	1236087	wordpools/wasnorm_wordpool_less_exclusions.txt	LTP254	ltpFR	1	12	-1	DOORBELL	487	n/a	-1	n/a	n/a	n/a	n/a	n/a
2530.454	n/a	REST_REWET	1265227	n/a	LTP254	ltpFR	1	12	n/a	n/a	n/a	n/a	n/a	n/a	n/a	n/a	n/a	n/a
2999.614	n/a	WORD	1499807	wordpools/wasnorm_wordpool_less_exclusions.txt	LTP254	ltpFR	1	13	1	ASSISTANT	48	n/a	1	0	0.5869140625	0.422607421875	lower	../fonts/amplitud.ttf
3003.562	n/a	WORD	1501781	wordpools/wasnorm_wordpool_less_exclusions.txt	LTP254	ltpFR	1	13	1	BUN	197	n/a	0	0	0.5869140625	0.422607421875	lower	../fonts/amplitud.ttf
3007.706	n/a	WORD	1503853	wordpools/wasnorm_wordpool_less_exclusions.txt	LTP254	ltpFR	1	13	1	CHOCOLATE	306	n/a	0	0	0.5869140625	0.422607421875	lower	../fonts/amplitud.ttf
3011.712	n/a	WORD	1505856	wordpools/wasnorm_wordpool_less_exclusions.txt	LTP254	ltpFR	1	13	1	LAGOON	795	n/a	1	0	0.5869140625	0.422607421875	lower	../fonts/amplitud.ttf
3015.92	n/a	WORD	1507960	wordpools/wasnorm_wordpool_less_exclusions.txt	LTP254	ltpFR	1	13	1	REEF	1177	n/a	1	0	0.5869140625	0.422607421875	lower	../fonts/amplitud.ttf
3020.078	n/a	WORD	1510039	wordpools/wasnorm_wordpool_less_exclusions.txt	LTP254	ltpFR	1	13	0	SALOON	1228	n/a	1	1	0.412841796875	0.57763671875	upper	../fonts/zerothre.ttf
3024.26	n/a	WORD	1512130	wordpools/wasnorm_wordpool_less_exclusions.txt	LTP254	ltpFR	1	13	0	WAGON	1578	n/a	1	1	0.412841796875	0.57763671875	upper	../fonts/zerothre.ttf
3028.352	n/a	WORD	1514176	wordpools/wasnorm_wordpool_less_exclusions.txt	LTP254	ltpFR	1	13	0	MOLECULE	905	n/a	0	1	0.412841796875	0.57763671875	upper	../fonts/zerothre.ttf
3032.524	n/a	WORD	1516262	wordpools/wasnorm_wordpool_less_exclusions.txt	LTP254	ltpFR	1	13	0	VOLUNTEER	1577	n/a	1	1	0.412841796875	0.57763671875	upper	../fonts/zerothre.ttf
3036.406	n/a	WORD	1518203	wordpools/wasnorm_wordpool_less_exclusions.txt	LTP254	ltpFR	1	13	1	OBOE	969	n/a	0	0	0.5869140625	0.422607421875	lower	../fonts/amplitud.ttf
3040.47	n/a	WORD	1520235	wordpools/wasnorm_wordpool_less_exclusions.txt	LTP254	ltpFR	1	13	1	TAPE	1433	n/a	0	0	0.5869140625	0.422607421875	lower	../fonts/amplitud.ttf
3044.478	n/a	WORD	1522239	wordpools/wasnorm_wordpool_less_exclusions.txt	LTP254	ltpFR	1	13	1	BATHROOM	99	n/a	0	0	0.5869140625	0.422607421875	lower	../fonts/amplitud.ttf
3048.686	n/a	WORD	1524343	wordpools/wasnorm_wordpool_less_exclusions.txt	LTP254	ltpFR	1	13	0	LIMB	822	n/a	1	1	0.412841796875	0.57763671875	upper	../fonts/zerothre.ttf
3052.544	n/a	WORD	1526272	wordpools/wasnorm_wordpool_less_exclusions.txt	LTP254	ltpFR	1	13	0	WASP	1593	n/a	0	1	0.412841796875	0.57763671875	upper	../fonts/zerothre.ttf
3056.466	n/a	WORD	1528233	wordpools/wasnorm_wordpool_less_exclusions.txt	LTP254	ltpFR	1	13	0	CATERPILLAR	259	n/a	0	1	0.412841796875	0.57763671875	upper	../fonts/zerothre.ttf
3060.49	n/a	WORD	1530245	wordpools/wasnorm_wordpool_less_exclusions.txt	LTP254	ltpFR	1	13	0	STABLE	1363	n/a	1	1	0.412841796875	0.57763671875	upper	../fonts/zerothre.ttf
3066.322	n/a	REC_START	1533161	n/a	LTP254	ltpFR	1	13	n/a	n/a	n/a	n/a	n/a	n/a	n/a	n/a	n/a	n/a
3067.928	n/a	REC_WORD	1533964	wordpools/wasnorm_wordpool_less_exclusions.txt	LTP254	ltpFR	1	13	0	WASP	1593	n/a	0	n/a	n/a	n/a	n/a	n/a
3068.89	n/a	REC_WORD	1534445	wordpools/wasnorm_wordpool_less_exclusions.txt	LTP254	ltpFR	1	13	0	STABLE	1363	n/a	1	n/a	n/a	n/a	n/a	n/a
3074.614	n/a	REC_WORD	1537307	wordpools/wasnorm_wordpool_less_exclusions.txt	LTP254	ltpFR	1	13	1	REEF	1177	n/a	1	n/a	n/a	n/a	n/a	n/a
3075.642	n/a	REC_WORD	1537821	wordpools/wasnorm_wordpool_less_exclusions.txt	LTP254	ltpFR	1	13	1	LAGOON	795	n/a	1	n/a	n/a	n/a	n/a	n/a
3080.366	n/a	REC_WORD	1540183	wordpools/wasnorm_wordpool_less_exclusions.txt	LTP254	ltpFR	1	13	0	CATERPILLAR	259	n/a	0	n/a	n/a	n/a	n/a	n/a
3091.31	n/a	REC_WORD	1545655	wordpools/wasnorm_wordpool_less_exclusions.txt	LTP254	ltpFR	1	13	0	WAGON	1578	n/a	1	n/a	n/a	n/a	n/a	n/a
3138.948	n/a	REC_WORD	1569474	wordpools/wasnorm_wordpool_less_exclusions.txt	LTP254	ltpFR	1	13	0	MOLECULE	905	n/a	0	n/a	n/a	n/a	n/a	n/a
3169.03	n/a	WORD	1584515	wordpools/wasnorm_wordpool_less_exclusions.txt	LTP254	ltpFR	1	14	-1	CARPENTER	246	n/a	-1	1	1.0	1.0	upper	../fonts/Verdana.ttf
3173.212	n/a	WORD	1586606	wordpools/wasnorm_wordpool_less_exclusions.txt	LTP254	ltpFR	1	14	-1	CUPBOARD	425	n/a	-1	1	1.0	1.0	upper	../fonts/Verdana.ttf
3177.178	n/a	WORD	1588589	wordpools/wasnorm_wordpool_less_exclusions.txt	LTP254	ltpFR	1	14	-1	SWORD	1423	n/a	-1	1	1.0	1.0	upper	../fonts/Verdana.ttf
3181.378	n/a	WORD	1590689	wordpools/wasnorm_wordpool_less_exclusions.txt	LTP254	ltpFR	1	14	-1	CAULIFLOWER	262	n/a	-1	1	1.0	1.0	upper	../fonts/Verdana.ttf
3185.492	n/a	WORD	1592746	wordpools/wasnorm_wordpool_less_exclusions.txt	LTP254	ltpFR	1	14	-1	PICKLE	1059	n/a	-1	1	1.0	1.0	upper	../fonts/Verdana.ttf
3189.642	n/a	WORD	1594821	wordpools/wasnorm_wordpool_less_exclusions.txt	LTP254	ltpFR	1	14	-1	ORANGE	980	n/a	-1	1	1.0	1.0	upper	../fonts/Verdana.ttf
3193.79	n/a	WORD	1596895	wordpools/wasnorm_wordpool_less_exclusions.txt	LTP254	ltpFR	1	14	-1	KNAPSACK	783	n/a	-1	1	1.0	1.0	upper	../fonts/Verdana.ttf
3197.682	n/a	WORD	1598841	wordpools/wasnorm_wordpool_less_exclusions.txt	LTP254	ltpFR	1	14	-1	HUMAN	726	n/a	-1	1	1.0	1.0	upper	../fonts/Verdana.ttf
3201.688	n/a	WORD	1600844	wordpools/wasnorm_wordpool_less_exclusions.txt	LTP254	ltpFR	1	14	-1	BANANA	77	n/a	-1	1	1.0	1.0	upper	../fonts/Verdana.ttf
3205.534	n/a	WORD	1602767	wordpools/wasnorm_wordpool_less_exclusions.txt	LTP254	ltpFR	1	14	-1	FACTORY	548	n/a	-1	1	1.0	1.0	upper	../fonts/Verdana.ttf
3209.516	n/a	WORD	1604758	wordpools/wasnorm_wordpool_less_exclusions.txt	LTP254	ltpFR	1	14	-1	TOASTER	1472	n/a	-1	1	1.0	1.0	upper	../fonts/Verdana.ttf
3213.598	n/a	WORD	1606799	wordpools/wasnorm_wordpool_less_exclusions.txt	LTP254	ltpFR	1	14	-1	TIMBER	1469	n/a	-1	1	1.0	1.0	upper	../fonts/Verdana.ttf
3217.606	n/a	WORD	1608803	wordpools/wasnorm_wordpool_less_exclusions.txt	LTP254	ltpFR	1	14	-1	VOLLEYBALL	1576	n/a	-1	1	1.0	1.0	upper	../fonts/Verdana.ttf
3221.74	n/a	WORD	1610870	wordpools/wasnorm_wordpool_less_exclusions.txt	LTP254	ltpFR	1	14	-1	SARDINE	1235	n/a	-1	1	1.0	1.0	upper	../fonts/Verdana.ttf
3225.714	n/a	WORD	1612857	wordpools/wasnorm_wordpool_less_exclusions.txt	LTP254	ltpFR	1	14	-1	ARMY	39	n/a	-1	1	1.0	1.0	upper	../fonts/Verdana.ttf
3229.878	n/a	WORD	1614939	wordpools/wasnorm_wordpool_less_exclusions.txt	LTP254	ltpFR	1	14	-1	SERGEANT	1269	n/a	-1	1	1.0	1.0	upper	../fonts/Verdana.ttf
3235.912	n/a	REC_START	1617956	n/a	LTP254	ltpFR	1	14	n/a	n/a	n/a	n/a	n/a	n/a	n/a	n/a	n/a	n/a
3236.712	n/a	REC_WORD	1618356	wordpools/wasnorm_wordpool_less_exclusions.txt	LTP254	ltpFR	1	14	-1	SERGEANT	1269	n/a	-1	n/a	n/a	n/a	n/a	n/a
3238.172	n/a	REC_WORD	1619086	wordpools/wasnorm_wordpool_less_exclusions.txt	LTP254	ltpFR	1	14	-1	ARMY	39	n/a	-1	n/a	n/a	n/a	n/a	n/a
3239.02	n/a	REC_WORD	1619510	wordpools/wasnorm_wordpool_less_exclusions.txt	LTP254	ltpFR	1	14	-1	SARDINE	1235	n/a	-1	n/a	n/a	n/a	n/a	n/a
3241.06	n/a	REC_WORD	1620530	wordpools/wasnorm_wordpool_less_exclusions.txt	LTP254	ltpFR	1	14	-1	CUPBOARD	425	n/a	-1	n/a	n/a	n/a	n/a	n/a
3242.904	n/a	REC_WORD	1621452	wordpools/wasnorm_wordpool_less_exclusions.txt	LTP254	ltpFR	1	14	-1	CARPENTER	246	n/a	-1	n/a	n/a	n/a	n/a	n/a
3244.32	n/a	REC_WORD	1622160	wordpools/wasnorm_wordpool_less_exclusions.txt	LTP254	ltpFR	1	14	-1	HUMAN	726	n/a	-1	n/a	n/a	n/a	n/a	n/a
3246.188	n/a	REC_WORD	1623094	wordpools/wasnorm_wordpool_less_exclusions.txt	LTP254	ltpFR	1	14	-1	TIMBER	1469	n/a	-1	n/a	n/a	n/a	n/a	n/a
3248.49	n/a	REC_WORD	1624245	wordpools/wasnorm_wordpool_less_exclusions.txt	LTP254	ltpFR	1	14	-1	ORANGE	980	n/a	-1	n/a	n/a	n/a	n/a	n/a
3252.112	n/a	REC_WORD	1626056	wordpools/wasnorm_wordpool_less_exclusions.txt	LTP254	ltpFR	1	14	-1	BANANA	77	n/a	-1	n/a	n/a	n/a	n/a	n/a
3255.562	n/a	REC_WORD	1627781	wordpools/wasnorm_wordpool_less_exclusions.txt	LTP254	ltpFR	1	14	-1	CAULIFLOWER	262	n/a	-1	n/a	n/a	n/a	n/a	n/a
3257.43	n/a	REC_WORD	1628715	wordpools/wasnorm_wordpool_less_exclusions.txt	LTP254	ltpFR	1	14	-1	PICKLE	1059	n/a	-1	n/a	n/a	n/a	n/a	n/a
3258.676	n/a	REC_WORD	1629338	wordpools/wasnorm_wordpool_less_exclusions.txt	LTP254	ltpFR	1	14	-1	SWORD	1423	n/a	-1	n/a	n/a	n/a	n/a	n/a
3323.562	n/a	WORD	1661781	wordpools/wasnorm_wordpool_less_exclusions.txt	LTP254	ltpFR	1	15	0	TAG	1429	n/a	0	1	0.412841796875	0.57763671875	upper	../fonts/zerothre.ttf
3327.518	n/a	WORD	1663759	wordpools/wasnorm_wordpool_less_exclusions.txt	LTP254	ltpFR	1	15	0	CITIZEN	312	n/a	1	1	0.412841796875	0.57763671875	upper	../fonts/zerothre.ttf
3331.634	n/a	WORD	1665817	wordpools/wasnorm_wordpool_less_exclusions.txt	LTP254	ltpFR	1	15	1	PORCUPINE	1107	n/a	1	0	0.5869140625	0.422607421875	lower	../fonts/amplitud.ttf
3335.71	n/a	WORD	1667855	wordpools/wasnorm_wordpool_less_exclusions.txt	LTP254	ltpFR	1	15	1	FIST	572	n/a	1	0	0.5869140625	0.422607421875	lower	../fonts/amplitud.ttf
3339.842	n/a	WORD	1669921	wordpools/wasnorm_wordpool_less_exclusions.txt	LTP254	ltpFR	1	15	0	STAPLE	1371	n/a	0	1	0.412841796875	0.57763671875	upper	../fonts/zerothre.ttf
3343.908	n/a	WORD	1671954	wordpools/wasnorm_wordpool_less_exclusions.txt	LTP254	ltpFR	1	15	0	ROOF	1205	n/a	1	1	0.412841796875	0.57763671875	upper	../fonts/zerothre.ttf
3348.096	n/a	WORD	1674048	wordpools/wasnorm_wordpool_less_exclusions.txt	LTP254	ltpFR	1	15	0	LID	817	n/a	0	1	0.412841796875	0.57763671875	upper	../fonts/zerothre.ttf
3352.18	n/a	WORD	1676090	wordpools/wasnorm_wordpool_less_exclusions.txt	LTP254	ltpFR	1	15	0	PRAIRIE	1118	n/a	1	1	0.412841796875	0.57763671875	upper	../fonts/zerothre.ttf
3356.094	n/a	WORD	1678047	wordpools/wasnorm_wordpool_less_exclusions.txt	LTP254	ltpFR	1	15	1	NOTEBOOK	959	n/a	0	0	0.5869140625	0.422607421875	lower	../fonts/amplitud.ttf
3360.226	n/a	WORD	1680113	wordpools/wasnorm_wordpool_less_exclusions.txt	LTP254	ltpFR	1	15	1	JUNGLE	764	n/a	1	0	0.5869140625	0.422607421875	lower	../fonts/amplitud.ttf
3364.084	n/a	WORD	1682042	wordpools/wasnorm_wordpool_less_exclusions.txt	LTP254	ltpFR	1	15	1	APE	31	n/a	1	0	0.5869140625	0.422607421875	lower	../fonts/amplitud.ttf
3368.022	n/a	WORD	1684011	wordpools/wasnorm_wordpool_less_exclusions.txt	LTP254	ltpFR	1	15	1	GRADUATE	653	n/a	1	0	0.5869140625	0.422607421875	lower	../fonts/amplitud.ttf
3372.2	n/a	WORD	1686100	wordpools/wasnorm_wordpool_less_exclusions.txt	LTP254	ltpFR	1	15	1	HAYSTACK	694	n/a	0	0	0.5869140625	0.422607421875	lower	../fonts/amplitud.ttf
3376.08	n/a	WORD	1688040	wordpools/wasnorm_wordpool_less_exclusions.txt	LTP254	ltpFR	1	15	1	ATTIC	56	n/a	0	0	0.5869140625	0.422607421875	lower	../fonts/amplitud.ttf
3380.262	n/a	WORD	1690131	wordpools/wasnorm_wordpool_less_exclusions.txt	LTP254	ltpFR	1	15	0	HAMPER	682	n/a	1	1	0.412841796875	0.57763671875	upper	../fonts/zerothre.ttf
3384.134	n/a	WORD	1692067	wordpools/wasnorm_wordpool_less_exclusions.txt	LTP254	ltpFR	1	15	0	HEN	703	n/a	0	1	0.412841796875	0.57763671875	upper	../fonts/zerothre.ttf
3389.734	n/a	REC_START	1694867	n/a	LTP254	ltpFR	1	15	n/a	n/a	n/a	n/a	n/a	n/a	n/a	n/a	n/a	n/a
3390.748	n/a	REC_WORD	1695374	wordpools/wasnorm_wordpool_less_exclusions.txt	LTP254	ltpFR	1	15	0	HEN	703	n/a	0	n/a	n/a	n/a	n/a	n/a
3391.904	n/a	REC_WORD	1695952	wordpools/wasnorm_wordpool_less_exclusions.txt	LTP254	ltpFR	1	15	0	HAMPER	682	n/a	1	n/a	n/a	n/a	n/a	n/a
3393.238	n/a	REC_WORD	1696619	wordpools/wasnorm_wordpool_less_exclusions.txt	LTP254	ltpFR	1	15	0	LID	817	n/a	0	n/a	n/a	n/a	n/a	n/a
3397.604	n/a	REC_WORD	1698802	wordpools/wasnorm_wordpool_less_exclusions.txt	LTP254	ltpFR	1	15	0	ROOF	1205	n/a	1	n/a	n/a	n/a	n/a	n/a
3399.004	n/a	REC_WORD	1699502	wordpools/wasnorm_wordpool_less_exclusions.txt	LTP254	ltpFR	1	15	0	PRAIRIE	1118	n/a	1	n/a	n/a	n/a	n/a	n/a
3401.176	n/a	REC_WORD	1700588	wordpools/wasnorm_wordpool_less_exclusions.txt	LTP254	ltpFR	1	15	1	JUNGLE	764	n/a	1	n/a	n/a	n/a	n/a	n/a
3402.708	n/a	REC_WORD	1701354	wordpools/wasnorm_wordpool_less_exclusions.txt	LTP254	ltpFR	1	15	1	APE	31	n/a	1	n/a	n/a	n/a	n/a	n/a
3422.74	n/a	REC_WORD	1711370	wordpools/wasnorm_wordpool_less_exclusions.txt	LTP254	ltpFR	1	15	1	NOTEBOOK	959	n/a	0	n/a	n/a	n/a	n/a	n/a
3471.436	n/a	WORD	1735718	wordpools/wasnorm_wordpool_less_exclusions.txt	LTP254	ltpFR	1	16	1	GALAXY	617	n/a	1	0	0.5869140625	0.422607421875	lower	../fonts/amplitud.ttf
3475.55	n/a	WORD	1737775	wordpools/wasnorm_wordpool_less_exclusions.txt	LTP254	ltpFR	1	16	1	TROMBONE	1508	n/a	0	0	0.5869140625	0.422607421875	lower	../fonts/amplitud.ttf
3479.532	n/a	WORD	1739766	wordpools/wasnorm_wordpool_less_exclusions.txt	LTP254	ltpFR	1	16	1	IGLOO	734	n/a	0	0	0.5869140625	0.422607421875	lower	../fonts/amplitud.ttf
3483.382	n/a	WORD	1741691	wordpools/wasnorm_wordpool_less_exclusions.txt	LTP254	ltpFR	1	16	1	OWL	992	n/a	1	0	0.5869140625	0.422607421875	lower	../fonts/amplitud.ttf
3487.44	n/a	WORD	1743720	wordpools/wasnorm_wordpool_less_exclusions.txt	LTP254	ltpFR	1	16	1	PERFUME	1049	n/a	0	0	0.5869140625	0.422607421875	lower	../fonts/amplitud.ttf
3491.504	n/a	WORD	1745752	wordpools/wasnorm_wordpool_less_exclusions.txt	LTP254	ltpFR	1	16	1	DEODORANT	448	n/a	0	0	0.5869140625	0.422607421875	lower	../fonts/amplitud.ttf
3495.46	n/a	WORD	1747730	wordpools/wasnorm_wordpool_less_exclusions.txt	LTP254	ltpFR	1	16	1	GROOM	665	n/a	1	0	0.5869140625	0.422607421875	lower	../fonts/amplitud.ttf
3499.368	n/a	WORD	1749684	wordpools/wasnorm_wordpool_less_exclusions.txt	LTP254	ltpFR	1	16	1	MAGNET	855	n/a	0	0	0.5869140625	0.422607421875	lower	../fonts/amplitud.ttf
3503.392	n/a	WORD	1751696	wordpools/wasnorm_wordpool_less_exclusions.txt	LTP254	ltpFR	1	16	1	NITROGEN	954	n/a	0	0	0.5869140625	0.422607421875	lower	../fonts/amplitud.ttf
3507.214	n/a	WORD	1753607	wordpools/wasnorm_wordpool_less_exclusions.txt	LTP254	ltpFR	1	16	1	CHICK	296	n/a	1	0	0.5869140625	0.422607421875	lower	../fonts/amplitud.ttf
3511.214	n/a	WORD	1755607	wordpools/wasnorm_wordpool_less_exclusions.txt	LTP254	ltpFR	1	16	1	CLIPPERS	324	n/a	0	0	0.5869140625	0.422607421875	lower	../fonts/amplitud.ttf
3515.178	n/a	WORD	1757589	wordpools/wasnorm_wordpool_less_exclusions.txt	LTP254	ltpFR	1	16	1	FOREHEAD	592	n/a	1	0	0.5869140625	0.422607421875	lower	../fonts/amplitud.ttf
3519.1	n/a	WORD	1759550	wordpools/wasnorm_wordpool_less_exclusions.txt	LTP254	ltpFR	1	16	1	LUNG	850	n/a	1	0	0.5869140625	0.422607421875	lower	../fonts/amplitud.ttf
3523.1	n/a	WORD	1761550	wordpools/wasnorm_wordpool_less_exclusions.txt	LTP254	ltpFR	1	16	1	ROOSTER	1209	n/a	1	0	0.5869140625	0.422607421875	lower	../fonts/amplitud.ttf
3527.064	n/a	WORD	1763532	wordpools/wasnorm_wordpool_less_exclusions.txt	LTP254	ltpFR	1	16	1	THIGH	1457	n/a	1	0	0.5869140625	0.422607421875	lower	../fonts/amplitud.ttf
3531.24	n/a	WORD	1765620	wordpools/wasnorm_wordpool_less_exclusions.txt	LTP254	ltpFR	1	16	1	CHEEK	287	n/a	1	0	0.5869140625	0.422607421875	lower	../fonts/amplitud.ttf
3536.946	n/a	REC_START	1768473	n/a	LTP254	ltpFR	1	16	n/a	n/a	n/a	n/a	n/a	n/a	n/a	n/a	n/a	n/a
3537.826	n/a	REC_WORD	1768913	wordpools/wasnorm_wordpool_less_exclusions.txt	LTP254	ltpFR	1	16	1	THIGH	1457	n/a	1	n/a	n/a	n/a	n/a	n/a
3539.128	n/a	REC_WORD	1769564	wordpools/wasnorm_wordpool_less_exclusions.txt	LTP254	ltpFR	1	16	1	CHEEK	287	n/a	1	n/a	n/a	n/a	n/a	n/a
3540.266	n/a	REC_WORD	1770133	wordpools/wasnorm_wordpool_less_exclusions.txt	LTP254	ltpFR	1	16	1	FOREHEAD	592	n/a	1	n/a	n/a	n/a	n/a	n/a
3541.672	n/a	REC_WORD	1770836	wordpools/wasnorm_wordpool_less_exclusions.txt	LTP254	ltpFR	1	16	1	ROOSTER	1209	n/a	1	n/a	n/a	n/a	n/a	n/a
3544.888	n/a	REC_WORD	1772444	wordpools/wasnorm_wordpool_less_exclusions.txt	LTP254	ltpFR	1	16	1	IGLOO	734	n/a	0	n/a	n/a	n/a	n/a	n/a
3546.256	n/a	REC_WORD	1773128	wordpools/wasnorm_wordpool_less_exclusions.txt	LTP254	ltpFR	1	16	1	GALAXY	617	n/a	1	n/a	n/a	n/a	n/a	n/a
3551.898	n/a	REC_WORD	1775949	wordpools/wasnorm_wordpool_less_exclusions.txt	LTP254	ltpFR	1	16	1	CLIPPERS	324	n/a	0	n/a	n/a	n/a	n/a	n/a
3556.064	n/a	REC_WORD	1778032	wordpools/wasnorm_wordpool_less_exclusions.txt	LTP254	ltpFR	1	16	1	CHICK	296	n/a	1	n/a	n/a	n/a	n/a	n/a
3557.594	n/a	REC_WORD	1778797	wordpools/wasnorm_wordpool_less_exclusions.txt	LTP254	ltpFR	1	16	1	GROOM	665	n/a	1	n/a	n/a	n/a	n/a	n/a
3559.532	n/a	REC_WORD	1779766	wordpools/wasnorm_wordpool_less_exclusions.txt	LTP254	ltpFR	1	16	1	PERFUME	1049	n/a	0	n/a	n/a	n/a	n/a	n/a
3561.19	n/a	REC_WORD	1780595	wordpools/wasnorm_wordpool_less_exclusions.txt	LTP254	ltpFR	1	16	1	DEODORANT	448	n/a	0	n/a	n/a	n/a	n/a	n/a
3634.108	n/a	REC_START	1817054	n/a	LTP254	ltpFR	1	n/a	n/a	n/a	n/a	n/a	n/a	n/a	n/a	n/a	n/a	n/a
3635.486	n/a	FFR_REC_WORD	1817743	wordpools/wasnorm_wordpool_less_exclusions.txt	LTP254	ltpFR	1	n/a	0	UNCLE	1536	n/a	1	n/a	n/a	n/a	n/a	n/a
3636.218	n/a	FFR_REC_WORD	1818109	wordpools/wasnorm_wordpool_less_exclusions.txt	LTP254	ltpFR	1	n/a	0	LID	817	n/a	0	n/a	n/a	n/a	n/a	n/a
3637.042	n/a	FFR_REC_WORD	1818521	wordpools/wasnorm_wordpool_less_exclusions.txt	LTP254	ltpFR	1	n/a	0	ROOF	1205	n/a	1	n/a	n/a	n/a	n/a	n/a
3638.03	n/a	FFR_REC_WORD	1819015	wordpools/wasnorm_wordpool_less_exclusions.txt	LTP254	ltpFR	1	n/a	0	PRAIRIE	1118	n/a	1	n/a	n/a	n/a	n/a	n/a
3640.07	n/a	FFR_REC_WORD	1820035	wordpools/wasnorm_wordpool_less_exclusions.txt	LTP254	ltpFR	1	n/a	1	ROOSTER	1209	n/a	1	n/a	n/a	n/a	n/a	n/a
3640.972	n/a	FFR_REC_WORD	1820486	wordpools/wasnorm_wordpool_less_exclusions.txt	LTP254	ltpFR	1	n/a	0	HEN	703	n/a	0	n/a	n/a	n/a	n/a	n/a
3642.244	n/a	FFR_REC_WORD	1821122	wordpools/wasnorm_wordpool_less_exclusions.txt	LTP254	ltpFR	1	n/a	1	GROOM	665	n/a	1	n/a	n/a	n/a	n/a	n/a
3643.218	n/a	FFR_REC_WORD	1821609	wordpools/wasnorm_wordpool_less_exclusions.txt	LTP254	ltpFR	1	n/a	1	CHICK	296	n/a	1	n/a	n/a	n/a	n/a	n/a
3644.834	n/a	FFR_REC_WORD	1822417	wordpools/wasnorm_wordpool_less_exclusions.txt	LTP254	ltpFR	1	n/a	1	JUNGLE	764	n/a	1	n/a	n/a	n/a	n/a	n/a
3646.116	n/a	FFR_REC_WORD	1823058	wordpools/wasnorm_wordpool_less_exclusions.txt	LTP254	ltpFR	1	n/a	1	IGLOO	734	n/a	0	n/a	n/a	n/a	n/a	n/a
3647.424	n/a	FFR_REC_WORD	1823712	wordpools/wasnorm_wordpool_less_exclusions.txt	LTP254	ltpFR	1	n/a	1	GALAXY	617	n/a	1	n/a	n/a	n/a	n/a	n/a
3648.47	n/a	FFR_REC_WORD	1824235	wordpools/wasnorm_wordpool_less_exclusions.txt	LTP254	ltpFR	1	n/a	-1	SQUID	1361	n/a	-1	n/a	n/a	n/a	n/a	n/a
3649.792	n/a	FFR_REC_WORD	1824896	wordpools/wasnorm_wordpool_less_exclusions.txt	LTP254	ltpFR	1	n/a	1	OCTOPUS	971	n/a	1	n/a	n/a	n/a	n/a	n/a
3651.598	n/a	FFR_REC_WORD	1825799	wordpools/wasnorm_wordpool_less_exclusions.txt	LTP254	ltpFR	1	n/a	1	APE	31	n/a	1	n/a	n/a	n/a	n/a	n/a
3655.64	n/a	FFR_REC_WORD	1827820	wordpools/wasnorm_wordpool_less_exclusions.txt	LTP254	ltpFR	1	n/a	0	MOOSE	915	n/a	1	n/a	n/a	n/a	n/a	n/a
3659.112	n/a	FFR_REC_WORD	1829556	wordpools/wasnorm_wordpool_less_exclusions.txt	LTP254	ltpFR	1	n/a	-1	RABBIT	1152	n/a	-1	n/a	n/a	n/a	n/a	n/a
3662.16	n/a	FFR_REC_WORD	1831080	wordpools/wasnorm_wordpool_less_exclusions.txt	LTP254	ltpFR	1	n/a	1	DEODORANT	448	n/a	0	n/a	n/a	n/a	n/a	n/a
3663.312	n/a	FFR_REC_WORD	1831656	wordpools/wasnorm_wordpool_less_exclusions.txt	LTP254	ltpFR	1	n/a	1	PERFUME	1049	n/a	0	n/a	n/a	n/a	n/a	n/a
3671.02	n/a	FFR_REC_WORD	1835510	wordpools/wasnorm_wordpool_less_exclusions.txt	LTP254	ltpFR	1	n/a	1	SALESMAN	1225	n/a	1	n/a	n/a	n/a	n/a	n/a
3673.416	n/a	FFR_REC_WORD	1836708	wordpools/wasnorm_wordpool_less_exclusions.txt	LTP254	ltpFR	1	n/a	1	CUSTOMER	430	n/a	1	n/a	n/a	n/a	n/a	n/a
3679.612	n/a	FFR_REC_WORD	1839806	wordpools/wasnorm_wordpool_less_exclusions.txt	LTP254	ltpFR	1	n/a	0	ALLEY	15	n/a	1	n/a	n/a	n/a	n/a	n/a
3681.128	n/a	FFR_REC_WORD	1840564	wordpools/wasnorm_wordpool_less_exclusions.txt	LTP254	ltpFR	1	n/a	-1	CURB	426	n/a	-1	n/a	n/a	n/a	n/a	n/a
3688.996	n/a	FFR_REC_WORD	1844498	wordpools/wasnorm_wordpool_less_exclusions.txt	LTP254	ltpFR	1	n/a	0	EMERALD	528	n/a	0	n/a	n/a	n/a	n/a	n/a
3700.046	n/a	FFR_REC_WORD	1850023	wordpools/wasnorm_wordpool_less_exclusions.txt	LTP254	ltpFR	1	n/a	0	TRAIN	1494	n/a	1	n/a	n/a	n/a	n/a	n/a
3701.264	n/a	FFR_REC_WORD	1850632	wordpools/wasnorm_wordpool_less_exclusions.txt	LTP254	ltpFR	1	n/a	0	CABOOSE	214	n/a	1	n/a	n/a	n/a	n/a	n/a
3703.428	n/a	FFR_REC_WORD	1851714	wordpools/wasnorm_wordpool_less_exclusions.txt	LTP254	ltpFR	1	n/a	0	SHACK	1273	n/a	1	n/a	n/a	n/a	n/a	n/a
3704.63	n/a	FFR_REC_WORD	1852315	wordpools/wasnorm_wordpool_less_exclusions.txt	LTP254	ltpFR	1	n/a	0	HOUSE	725	n/a	1	n/a	n/a	n/a	n/a	n/a
3708.332	n/a	FFR_REC_WORD	1854166	wordpools/wasnorm_wordpool_less_exclusions.txt	LTP254	ltpFR	1	n/a	0	HAMPER	682	n/a	1	n/a	n/a	n/a	n/a	n/a
3710.284	n/a	FFR_REC_WORD	1855142	wordpools/wasnorm_wordpool_less_exclusions.txt	LTP254	ltpFR	1	n/a	0	WAGON	1578	n/a	1	n/a	n/a	n/a	n/a	n/a
3714.744	n/a	FFR_REC_WORD	1857372	wordpools/wasnorm_wordpool_less_exclusions.txt	LTP254	ltpFR	1	n/a	1	ASSISTANT	48	n/a	1	n/a	n/a	n/a	n/a	n/a
3718.67	n/a	FFR_REC_WORD	1859335	wordpools/wasnorm_wordpool_less_exclusions.txt	LTP254	ltpFR	1	n/a	0	MOLECULE	905	n/a	0	n/a	n/a	n/a	n/a	n/a
3720.496	n/a	FFR_REC_WORD	1860248	wordpools/wasnorm_wordpool_less_exclusions.txt	LTP254	ltpFR	1	n/a	1	DILL	465	n/a	1	n/a	n/a	n/a	n/a	n/a
3722.312	n/a	FFR_REC_WORD	1861156	wordpools/wasnorm_wordpool_less_exclusions.txt	LTP254	ltpFR	1	n/a	-1	CAULIFLOWER	262	n/a	-1	n/a	n/a	n/a	n/a	n/a
3723.814	n/a	FFR_REC_WORD	1861907	wordpools/wasnorm_wordpool_less_exclusions.txt	LTP254	ltpFR	1	n/a	-1	PICKLE	1059	n/a	-1	n/a	n/a	n/a	n/a	n/a
3725.136	n/a	FFR_REC_WORD	1862568	wordpools/wasnorm_wordpool_less_exclusions.txt	LTP254	ltpFR	1	n/a	-1	CARROT	249	n/a	-1	n/a	n/a	n/a	n/a	n/a
3726.792	n/a	FFR_REC_WORD	1863396	wordpools/wasnorm_wordpool_less_exclusions.txt	LTP254	ltpFR	1	n/a	-1	KETCHUP	771	n/a	-1	n/a	n/a	n/a	n/a	n/a
3728.234	n/a	FFR_REC_WORD	1864117	wordpools/wasnorm_wordpool_less_exclusions.txt	LTP254	ltpFR	1	n/a	-1	MUSTARD	935	n/a	-1	n/a	n/a	n/a	n/a	n/a
3731.682	n/a	FFR_REC_WORD	1865841	wordpools/wasnorm_wordpool_less_exclusions.txt	LTP254	ltpFR	1	n/a	-1	ORANGE	980	n/a	-1	n/a	n/a	n/a	n/a	n/a
3733.328	n/a	FFR_REC_WORD	1866664	wordpools/wasnorm_wordpool_less_exclusions.txt	LTP254	ltpFR	1	n/a	-1	BANANA	77	n/a	-1	n/a	n/a	n/a	n/a	n/a
3741.0	n/a	FFR_REC_WORD	1870500	wordpools/wasnorm_wordpool_less_exclusions.txt	LTP254	ltpFR	1	n/a	0	TRUCK	1512	n/a	1	n/a	n/a	n/a	n/a	n/a
3742.258	n/a	FFR_REC_WORD	1871129	wordpools/wasnorm_wordpool_less_exclusions.txt	LTP254	ltpFR	1	n/a	n/a	HIGHWAY	707	n/a	n/a	n/a	n/a	n/a	n/a	n/a
3743.28	n/a	FFR_REC_WORD	1871640	wordpools/wasnorm_wordpool_less_exclusions.txt	LTP254	ltpFR	1	n/a	0	HORIZON	717	n/a	1	n/a	n/a	n/a	n/a	n/a
3755.718	n/a	FFR_REC_WORD	1877859	wordpools/wasnorm_wordpool_less_exclusions.txt	LTP254	ltpFR	1	n/a	n/a	ENGINEER	536	n/a	n/a	n/a	n/a	n/a	n/a	n/a
3765.706	n/a	FFR_REC_WORD	1882853	wordpools/wasnorm_wordpool_less_exclusions.txt	LTP254	ltpFR	1	n/a	-1	DOUGHNUT	490	n/a	-1	n/a	n/a	n/a	n/a	n/a
3767.132	n/a	FFR_REC_WORD	1883566	wordpools/wasnorm_wordpool_less_exclusions.txt	LTP254	ltpFR	1	n/a	-1	PLUM	1090	n/a	-1	n/a	n/a	n/a	n/a	n/a
3769.752	n/a	FFR_REC_WORD	1884876	wordpools/wasnorm_wordpool_less_exclusions.txt	LTP254	ltpFR	1	n/a	-1	FRUIT	610	n/a	-1	n/a	n/a	n/a	n/a	n/a
3778.524	n/a	FFR_REC_WORD	1889262	wordpools/wasnorm_wordpool_less_exclusions.txt	LTP254	ltpFR	1	n/a	-1	DIPLOMA	470	n/a	-1	n/a	n/a	n/a	n/a	n/a
3779.684	n/a	FFR_REC_WORD	1889842	wordpools/wasnorm_wordpool_less_exclusions.txt	LTP254	ltpFR	1	n/a	-1	FAN	551	n/a	-1	n/a	n/a	n/a	n/a	n/a
3780.952	n/a	FFR_REC_WORD	1890476	wordpools/wasnorm_wordpool_less_exclusions.txt	LTP254	ltpFR	1	n/a	1	GRADUATE	653	n/a	1	n/a	n/a	n/a	n/a	n/a
3793.754	n/a	FFR_REC_WORD	1896877	wordpools/wasnorm_wordpool_less_exclusions.txt	LTP254	ltpFR	1	n/a	-1	CASH	252	n/a	-1	n/a	n/a	n/a	n/a	n/a
3795.286	n/a	FFR_REC_WORD	1897643	wordpools/wasnorm_wordpool_less_exclusions.txt	LTP254	ltpFR	1	n/a	-1	LIME	823	n/a	-1	n/a	n/a	n/a	n/a	n/a
3807.812	n/a	FFR_REC_WORD	1903906	wordpools/wasnorm_wordpool_less_exclusions.txt	LTP254	ltpFR	1	n/a	1	NITROGEN	954	n/a	0	n/a	n/a	n/a	n/a	n/a
3828.138	n/a	FFR_REC_WORD	1914069	wordpools/wasnorm_wordpool_less_exclusions.txt	LTP254	ltpFR	1	n/a	-1	CANYON	235	n/a	-1	n/a	n/a	n/a	n/a	n/a
3835.596	n/a	FFR_REC_WORD	1917798	wordpools/wasnorm_wordpool_less_exclusions.txt	LTP254	ltpFR	1	n/a	-1	TOAST	1471	n/a	-1	n/a	n/a	n/a	n/a	n/a
3841.576	n/a	FFR_REC_WORD	1920788	wordpools/wasnorm_wordpool_less_exclusions.txt	LTP254	ltpFR	1	n/a	1	OCTOPUS	971	n/a	1	n/a	n/a	n/a	n/a	n/a
3852.262	n/a	FFR_REC_WORD	1926131	wordpools/wasnorm_wordpool_less_exclusions.txt	LTP254	ltpFR	1	n/a	0	SCARECROW	1245	n/a	1	n/a	n/a	n/a	n/a	n/a
3901.14	n/a	FFR_REC_WORD	1950570	wordpools/wasnorm_wordpool_less_exclusions.txt	LTP254	ltpFR	1	n/a	n/a	STAKE	1368	n/a	n/a	n/a	n/a	n/a	n/a	n/a
3924.08	n/a	FFR_REC_WORD	1962040	wordpools/wasnorm_wordpool_less_exclusions.txt	LTP254	ltpFR	1	n/a	1	RODENT	1204	n/a	1	n/a	n/a	n/a	n/a	n/a
3925.81	n/a	FFR_REC_WORD	1962905	wordpools/wasnorm_wordpool_less_exclusions.txt	LTP254	ltpFR	1	n/a	1	KITTEN	780	n/a	1	n/a	n/a	n/a	n/a	n/a
3994.428	n/a	REC_START	1997214	n/a	LTP254	ltpFR	1	1	n/a	n/a	n/a	n/a	n/a	n/a	n/a	n/a	n/a	n/a
3994.476	n/a	RECOG_TARGET	1997238	n/a	LTP254	ltpFR	1	1	1	OWL	992	3	1	n/a	n/a	n/a	n/a	n/a
3996.144	n/a	RECOG_RESP	1998072	n/a	LTP254	ltpFR	1	1	1	OWL	992	n/a	1	n/a	n/a	n/a	n/a	n/a
4000.06	n/a	RECOG_CONF	2000030	n/a	LTP254	ltpFR	1	1	1	OWL	992	3	1	n/a	n/a	n/a	n/a	n/a
4001.838	n/a	RECOG_LURE	2000919	n/a	LTP254	ltpFR	1	1	n/a	ABDOMEN	1	5	n/a	n/a	n/a	n/a	n/a	n/a
4003.138	n/a	RECOG_RESP	2001569	n/a	LTP254	ltpFR	1	1	n/a	ABDOMEN	1	n/a	n/a	n/a	n/a	n/a	n/a	n/a
4004.76	n/a	RECOG_CONF	2002380	n/a	LTP254	ltpFR	1	1	n/a	ABDOMEN	1	5	n/a	n/a	n/a	n/a	n/a	n/a
4006.706	n/a	RECOG_TARGET	2003353	n/a	LTP254	ltpFR	1	1	0	TAG	1429	2	0	n/a	n/a	n/a	n/a	n/a
4008.446	n/a	RECOG_RESP	2004223	n/a	LTP254	ltpFR	1	1	0	TAG	1429	n/a	0	n/a	n/a	n/a	n/a	n/a
4010.268	n/a	RECOG_CONF	2005134	n/a	LTP254	ltpFR	1	1	0	TAG	1429	2	0	n/a	n/a	n/a	n/a	n/a
4012.652	n/a	RECOG_TARGET	2006326	n/a	LTP254	ltpFR	1	1	1	SNOB	1335	5	1	n/a	n/a	n/a	n/a	n/a
4014.614	n/a	RECOG_RESP	2007307	n/a	LTP254	ltpFR	1	1	1	SNOB	1335	n/a	1	n/a	n/a	n/a	n/a	n/a
4016.394	n/a	RECOG_CONF	2008197	n/a	LTP254	ltpFR	1	1	1	SNOB	1335	5	1	n/a	n/a	n/a	n/a	n/a
4018.242	n/a	RECOG_TARGET	2009121	n/a	LTP254	ltpFR	1	1	0	CLERK	321	1	1	n/a	n/a	n/a	n/a	n/a
4021.328	n/a	RECOG_RESP	2010664	n/a	LTP254	ltpFR	1	1	0	CLERK	321	n/a	1	n/a	n/a	n/a	n/a	n/a
4023.388	n/a	RECOG_CONF	2011694	n/a	LTP254	ltpFR	1	1	0	CLERK	321	1	1	n/a	n/a	n/a	n/a	n/a
4025.21	n/a	RECOG_TARGET	2012605	n/a	LTP254	ltpFR	1	1	0	STABLE	1363	4	1	n/a	n/a	n/a	n/a	n/a
4026.486	n/a	RECOG_RESP	2013243	n/a	LTP254	ltpFR	1	1	0	STABLE	1363	n/a	1	n/a	n/a	n/a	n/a	n/a
4028.058	n/a	RECOG_CONF	2014029	n/a	LTP254	ltpFR	1	1	0	STABLE	1363	4	1	n/a	n/a	n/a	n/a	n/a
4029.97	n/a	RECOG_TARGET	2014985	n/a	LTP254	ltpFR	1	1	-1	KETCHUP	771	4	-1	n/a	n/a	n/a	n/a	n/a
4031.156	n/a	RECOG_RESP	2015578	n/a	LTP254	ltpFR	1	1	-1	KETCHUP	771	n/a	-1	n/a	n/a	n/a	n/a	n/a
4033.596	n/a	RECOG_CONF	2016798	n/a	LTP254	ltpFR	1	1	-1	KETCHUP	771	4	-1	n/a	n/a	n/a	n/a	n/a
4036.01	n/a	RECOG_TARGET	2018005	n/a	LTP254	ltpFR	1	1	1	ROOT	1210	5	1	n/a	n/a	n/a	n/a	n/a
4037.892	n/a	RECOG_RESP	2018946	n/a	LTP254	ltpFR	1	1	1	ROOT	1210	n/a	1	n/a	n/a	n/a	n/a	n/a
4040.132	n/a	RECOG_CONF	2020066	n/a	LTP254	ltpFR	1	1	1	ROOT	1210	5	1	n/a	n/a	n/a	n/a	n/a
4042.5	n/a	RECOG_TARGET	2021250	n/a	LTP254	ltpFR	1	1	1	BOARD	143	2	0	n/a	n/a	n/a	n/a	n/a
4043.908	n/a	RECOG_RESP	2021954	n/a	LTP254	ltpFR	1	1	1	BOARD	143	n/a	0	n/a	n/a	n/a	n/a	n/a
4046.238	n/a	RECOG_CONF	2023119	n/a	LTP254	ltpFR	1	1	1	BOARD	143	2	0	n/a	n/a	n/a	n/a	n/a
4048.172	n/a	RECOG_TARGET	2024086	n/a	LTP254	ltpFR	1	1	0	BLOCKADE	137	2	1	n/a	n/a	n/a	n/a	n/a
4051.336	n/a	RECOG_RESP	2025668	n/a	LTP254	ltpFR	1	1	0	BLOCKADE	137	n/a	1	n/a	n/a	n/a	n/a	n/a
4054.04	n/a	RECOG_CONF	2027020	n/a	LTP254	ltpFR	1	1	0	BLOCKADE	137	2	1	n/a	n/a	n/a	n/a	n/a
4056.354	n/a	RECOG_TARGET	2028177	n/a	LTP254	ltpFR	1	1	1	PLAYGROUND	1087	3	0	n/a	n/a	n/a	n/a	n/a
4058.676	n/a	RECOG_RESP	2029338	n/a	LTP254	ltpFR	1	1	1	PLAYGROUND	1087	n/a	0	n/a	n/a	n/a	n/a	n/a
4061.084	n/a	RECOG_CONF	2030542	n/a	LTP254	ltpFR	1	1	1	PLAYGROUND	1087	3	0	n/a	n/a	n/a	n/a	n/a
4062.862	n/a	RECOG_TARGET	2031431	n/a	LTP254	ltpFR	1	1	0	BLOSSOM	138	1	0	n/a	n/a	n/a	n/a	n/a
4066.552	n/a	RECOG_RESP	2033276	n/a	LTP254	ltpFR	1	1	0	BLOSSOM	138	n/a	0	n/a	n/a	n/a	n/a	n/a
4068.878	n/a	RECOG_CONF	2034439	n/a	LTP254	ltpFR	1	1	0	BLOSSOM	138	1	0	n/a	n/a	n/a	n/a	n/a
4070.952	n/a	RECOG_TARGET	2035476	n/a	LTP254	ltpFR	1	1	1	STUDENT	1395	1	1	n/a	n/a	n/a	n/a	n/a
4073.638	n/a	RECOG_RESP	2036819	n/a	LTP254	ltpFR	1	1	1	STUDENT	1395	n/a	1	n/a	n/a	n/a	n/a	n/a
4077.868	n/a	RECOG_CONF	2038934	n/a	LTP254	ltpFR	1	1	1	STUDENT	1395	1	1	n/a	n/a	n/a	n/a	n/a
4079.894	n/a	RECOG_TARGET	2039947	n/a	LTP254	ltpFR	1	1	0	CUBE	420	5	0	n/a	n/a	n/a	n/a	n/a
4081.244	n/a	RECOG_RESP	2040622	n/a	LTP254	ltpFR	1	1	0	CUBE	420	n/a	0	n/a	n/a	n/a	n/a	n/a
4083.286	n/a	RECOG_CONF	2041643	n/a	LTP254	ltpFR	1	1	0	CUBE	420	5	0	n/a	n/a	n/a	n/a	n/a
4085.408	n/a	RECOG_TARGET	2042704	n/a	LTP254	ltpFR	1	1	1	FRIAR	605	4	1	n/a	n/a	n/a	n/a	n/a
4086.832	n/a	RECOG_RESP	2043416	n/a	LTP254	ltpFR	1	1	1	FRIAR	605	n/a	1	n/a	n/a	n/a	n/a	n/a
4090.11	n/a	RECOG_CONF	2045055	n/a	LTP254	ltpFR	1	1	1	FRIAR	605	4	1	n/a	n/a	n/a	n/a	n/a
4093.144	n/a	RECOG_TARGET	2046572	n/a	LTP254	ltpFR	1	1	0	ROSE	1212	3	0	n/a	n/a	n/a	n/a	n/a
4094.81	n/a	RECOG_RESP	2047405	n/a	LTP254	ltpFR	1	1	0	ROSE	1212	n/a	0	n/a	n/a	n/a	n/a	n/a
4097.224	n/a	RECOG_CONF	2048612	n/a	LTP254	ltpFR	1	1	0	ROSE	1212	3	0	n/a	n/a	n/a	n/a	n/a
4099.176	n/a	RECOG_TARGET	2049588	n/a	LTP254	ltpFR	1	1	0	CHAIR	274	3	1	n/a	n/a	n/a	n/a	n/a
4102.372	n/a	RECOG_RESP	2051186	n/a	LTP254	ltpFR	1	1	0	CHAIR	274	n/a	1	n/a	n/a	n/a	n/a	n/a
4105.786	n/a	RECOG_CONF	2052893	n/a	LTP254	ltpFR	1	1	0	CHAIR	274	3	1	n/a	n/a	n/a	n/a	n/a
4107.75	n/a	RECOG_TARGET	2053875	n/a	LTP254	ltpFR	1	1	1	VASE	1549	2	0	n/a	n/a	n/a	n/a	n/a
4111.288	n/a	RECOG_RESP	2055644	n/a	LTP254	ltpFR	1	1	1	VASE	1549	n/a	0	n/a	n/a	n/a	n/a	n/a
4114.228	n/a	RECOG_CONF	2057114	n/a	LTP254	ltpFR	1	1	1	VASE	1549	2	0	n/a	n/a	n/a	n/a	n/a
4116.258	n/a	RECOG_TARGET	2058129	n/a	LTP254	ltpFR	1	1	1	IGLOO	734	5	0	n/a	n/a	n/a	n/a	n/a
4117.58	n/a	RECOG_RESP	2058790	n/a	LTP254	ltpFR	1	1	1	IGLOO	734	n/a	0	n/a	n/a	n/a	n/a	n/a
4119.884	n/a	RECOG_CONF	2059942	n/a	LTP254	ltpFR	1	1	1	IGLOO	734	5	0	n/a	n/a	n/a	n/a	n/a
4122.606	n/a	RECOG_TARGET	2061303	n/a	LTP254	ltpFR	1	1	1	TAVERN	1437	1	0	n/a	n/a	n/a	n/a	n/a
4128.066	n/a	RECOG_RESP	2064033	n/a	LTP254	ltpFR	1	1	1	TAVERN	1437	n/a	0	n/a	n/a	n/a	n/a	n/a
4130.332	n/a	RECOG_CONF	2065166	n/a	LTP254	ltpFR	1	1	1	TAVERN	1437	1	0	n/a	n/a	n/a	n/a	n/a
4152.83	n/a	REC_START	2076415	n/a	LTP254	ltpFR	1	2	n/a	n/a	n/a	n/a	n/a	n/a	n/a	n/a	n/a	n/a
4152.882	n/a	RECOG_TARGET	2076441	n/a	LTP254	ltpFR	1	2	0	CAR	241	4	1	n/a	n/a	n/a	n/a	n/a
4154.794	n/a	RECOG_RESP	2077397	n/a	LTP254	ltpFR	1	2	0	CAR	241	n/a	1	n/a	n/a	n/a	n/a	n/a
4157.044	n/a	RECOG_CONF	2078522	n/a	LTP254	ltpFR	1	2	0	CAR	241	4	1	n/a	n/a	n/a	n/a	n/a
4159.146	n/a	RECOG_LURE	2079573	n/a	LTP254	ltpFR	1	2	n/a	GRASS	655	2	n/a	n/a	n/a	n/a	n/a	n/a
4161.61	n/a	RECOG_RESP	2080805	n/a	LTP254	ltpFR	1	2	n/a	GRASS	655	n/a	n/a	n/a	n/a	n/a	n/a	n/a
4163.8	n/a	RECOG_CONF	2081900	n/a	LTP254	ltpFR	1	2	n/a	GRASS	655	2	n/a	n/a	n/a	n/a	n/a	n/a
4165.84	n/a	RECOG_TARGET	2082920	n/a	LTP254	ltpFR	1	2	-1	MUSTARD	935	5	-1	n/a	n/a	n/a	n/a	n/a
4166.758	n/a	RECOG_RESP	2083379	n/a	LTP254	ltpFR	1	2	-1	MUSTARD	935	n/a	-1	n/a	n/a	n/a	n/a	n/a
4168.45	n/a	RECOG_CONF	2084225	n/a	LTP254	ltpFR	1	2	-1	MUSTARD	935	5	-1	n/a	n/a	n/a	n/a	n/a
4170.532	n/a	RECOG_LURE	2085266	n/a	LTP254	ltpFR	1	2	n/a	BUTTON	207	3	n/a	n/a	n/a	n/a	n/a	n/a
4173.642	n/a	RECOG_RESP	2086821	n/a	LTP254	ltpFR	1	2	n/a	BUTTON	207	n/a	n/a	n/a	n/a	n/a	n/a	n/a
4177.988	n/a	RECOG_CONF	2088994	n/a	LTP254	ltpFR	1	2	n/a	BUTTON	207	3	n/a	n/a	n/a	n/a	n/a	n/a
4180.01	n/a	RECOG_LURE	2090005	n/a	LTP254	ltpFR	1	2	n/a	BANDIT	81	1	n/a	n/a	n/a	n/a	n/a	n/a
4182.004	n/a	RECOG_RESP	2091002	n/a	LTP254	ltpFR	1	2	n/a	BANDIT	81	n/a	n/a	n/a	n/a	n/a	n/a	n/a
4184.944	n/a	RECOG_CONF	2092472	n/a	LTP254	ltpFR	1	2	n/a	BANDIT	81	1	n/a	n/a	n/a	n/a	n/a	n/a
4186.744	n/a	RECOG_LURE	2093372	n/a	LTP254	ltpFR	1	2	n/a	HANGER	687	4	n/a	n/a	n/a	n/a	n/a	n/a
4189.502	n/a	RECOG_RESP	2094751	n/a	LTP254	ltpFR	1	2	n/a	HANGER	687	n/a	n/a	n/a	n/a	n/a	n/a	n/a
4191.898	n/a	RECOG_CONF	2095949	n/a	LTP254	ltpFR	1	2	n/a	HANGER	687	4	n/a	n/a	n/a	n/a	n/a	n/a
4193.98	n/a	RECOG_TARGET	2096990	n/a	LTP254	ltpFR	1	2	1	FATHER	554	5	1	n/a	n/a	n/a	n/a	n/a
4195.49	n/a	RECOG_RESP	2097745	n/a	LTP254	ltpFR	1	2	1	FATHER	554	n/a	1	n/a	n/a	n/a	n/a	n/a
4197.434	n/a	RECOG_CONF	2098717	n/a	LTP254	ltpFR	1	2	1	FATHER	554	5	1	n/a	n/a	n/a	n/a	n/a
4199.828	n/a	RECOG_TARGET	2099914	n/a	LTP254	ltpFR	1	2	0	COMPUTER	359	5	1	n/a	n/a	n/a	n/a	n/a
4201.036	n/a	RECOG_RESP	2100518	n/a	LTP254	ltpFR	1	2	0	COMPUTER	359	n/a	1	n/a	n/a	n/a	n/a	n/a
4202.852	n/a	RECOG_CONF	2101426	n/a	LTP254	ltpFR	1	2	0	COMPUTER	359	5	1	n/a	n/a	n/a	n/a	n/a
4205.24	n/a	RECOG_TARGET	2102620	n/a	LTP254	ltpFR	1	2	0	SPOON	1357	1	0	n/a	n/a	n/a	n/a	n/a
4209.468	n/a	RECOG_RESP	2104734	n/a	LTP254	ltpFR	1	2	0	SPOON	1357	n/a	0	n/a	n/a	n/a	n/a	n/a
4211.864	n/a	RECOG_CONF	2105932	n/a	LTP254	ltpFR	1	2	0	SPOON	1357	1	0	n/a	n/a	n/a	n/a	n/a
4214.24	n/a	RECOG_TARGET	2107120	n/a	LTP254	ltpFR	1	2	-1	KNAPSACK	783	1	-1	n/a	n/a	n/a	n/a	n/a
4220.23	n/a	RECOG_RESP	2110115	n/a	LTP254	ltpFR	1	2	-1	KNAPSACK	783	n/a	-1	n/a	n/a	n/a	n/a	n/a
4223.228	n/a	RECOG_CONF	2111614	n/a	LTP254	ltpFR	1	2	-1	KNAPSACK	783	1	-1	n/a	n/a	n/a	n/a	n/a
4225.35	n/a	RECOG_TARGET	2112675	n/a	LTP254	ltpFR	1	2	-1	OLIVE	975	4	-1	n/a	n/a	n/a	n/a	n/a
4226.616	n/a	RECOG_RESP	2113308	n/a	LTP254	ltpFR	1	2	-1	OLIVE	975	n/a	-1	n/a	n/a	n/a	n/a	n/a
4228.946	n/a	RECOG_CONF	2114473	n/a	LTP254	ltpFR	1	2	-1	OLIVE	975	4	-1	n/a	n/a	n/a	n/a	n/a
4230.746	n/a	RECOG_TARGET	2115373	n/a	LTP254	ltpFR	1	2	0	MOOSE	915	5	1	n/a	n/a	n/a	n/a	n/a
4231.66	n/a	RECOG_RESP	2115830	n/a	LTP254	ltpFR	1	2	0	MOOSE	915	n/a	1	n/a	n/a	n/a	n/a	n/a
4233.226	n/a	RECOG_CONF	2116613	n/a	LTP254	ltpFR	1	2	0	MOOSE	915	5	1	n/a	n/a	n/a	n/a	n/a
4235.17	n/a	RECOG_TARGET	2117585	n/a	LTP254	ltpFR	1	2	0	PEANUT	1032	4	0	n/a	n/a	n/a	n/a	n/a
4237.222	n/a	RECOG_RESP	2118611	n/a	LTP254	ltpFR	1	2	0	PEANUT	1032	n/a	0	n/a	n/a	n/a	n/a	n/a
4238.922	n/a	RECOG_CONF	2119461	n/a	LTP254	ltpFR	1	2	0	PEANUT	1032	4	0	n/a	n/a	n/a	n/a	n/a
4240.8	n/a	RECOG_TARGET	2120400	n/a	LTP254	ltpFR	1	2	1	KITTEN	780	4	1	n/a	n/a	n/a	n/a	n/a
4242.48	n/a	RECOG_RESP	2121240	n/a	LTP254	ltpFR	1	2	1	KITTEN	780	n/a	1	n/a	n/a	n/a	n/a	n/a
4246.276	n/a	RECOG_CONF	2123138	n/a	LTP254	ltpFR	1	2	1	KITTEN	780	4	1	n/a	n/a	n/a	n/a	n/a
4248.254	n/a	RECOG_LURE	2124127	n/a	LTP254	ltpFR	1	2	n/a	POWDER	1117	1	n/a	n/a	n/a	n/a	n/a	n/a
4252.912	n/a	RECOG_RESP	2126456	n/a	LTP254	ltpFR	1	2	n/a	POWDER	1117	n/a	n/a	n/a	n/a	n/a	n/a	n/a
4255.206	n/a	RECOG_CONF	2127603	n/a	LTP254	ltpFR	1	2	n/a	POWDER	1117	1	n/a	n/a	n/a	n/a	n/a	n/a
4257.548	n/a	RECOG_TARGET	2128774	n/a	LTP254	ltpFR	1	2	1	DUSTPAN	509	2	0	n/a	n/a	n/a	n/a	n/a
4260.04	n/a	RECOG_RESP	2130020	n/a	LTP254	ltpFR	1	2	1	DUSTPAN	509	n/a	0	n/a	n/a	n/a	n/a	n/a
4263.19	n/a	RECOG_CONF	2131595	n/a	LTP254	ltpFR	1	2	1	DUSTPAN	509	2	0	n/a	n/a	n/a	n/a	n/a
4265.136	n/a	RECOG_TARGET	2132568	n/a	LTP254	ltpFR	1	2	0	MINER	896	4	0	n/a	n/a	n/a	n/a	n/a
4266.478	n/a	RECOG_RESP	2133239	n/a	LTP254	ltpFR	1	2	0	MINER	896	n/a	0	n/a	n/a	n/a	n/a	n/a
4268.308	n/a	RECOG_CONF	2134154	n/a	LTP254	ltpFR	1	2	0	MINER	896	4	0	n/a	n/a	n/a	n/a	n/a
4271.434	n/a	RECOG_TARGET	2135717	n/a	LTP254	ltpFR	1	2	0	LIMB	822	1	1	n/a	n/a	n/a	n/a	n/a
4275.616	n/a	RECOG_RESP	2137808	n/a	LTP254	ltpFR	1	2	0	LIMB	822	n/a	1	n/a	n/a	n/a	n/a	n/a
4279.224	n/a	RECOG_CONF	2139612	n/a	LTP254	ltpFR	1	2	0	LIMB	822	1	1	n/a	n/a	n/a	n/a	n/a
4281.306	n/a	RECOG_TARGET	2140653	n/a	LTP254	ltpFR	1	2	-1	ZUCCHINI	1638	5	-1	n/a	n/a	n/a	n/a	n/a
4282.272	n/a	RECOG_RESP	2141136	n/a	LTP254	ltpFR	1	2	-1	ZUCCHINI	1638	n/a	-1	n/a	n/a	n/a	n/a	n/a
4284.192	n/a	RECOG_CONF	2142096	n/a	LTP254	ltpFR	1	2	-1	ZUCCHINI	1638	5	-1	n/a	n/a	n/a	n/a	n/a
4286.258	n/a	RECOG_TARGET	2143129	n/a	LTP254	ltpFR	1	2	0	TECHNICIAN	1443	3	1	n/a	n/a	n/a	n/a	n/a
4288.946	n/a	RECOG_RESP	2144473	n/a	LTP254	ltpFR	1	2	0	TECHNICIAN	1443	n/a	1	n/a	n/a	n/a	n/a	n/a
4291.806	n/a	RECOG_CONF	2145903	n/a	LTP254	ltpFR	1	2	0	TECHNICIAN	1443	3	1	n/a	n/a	n/a	n/a	n/a
4305.284	n/a	REC_START	2152642	n/a	LTP254	ltpFR	1	3	n/a	n/a	n/a	n/a	n/a	n/a	n/a	n/a	n/a	n/a
4305.338	n/a	RECOG_TARGET	2152669	n/a	LTP254	ltpFR	1	3	-1	DOUGHNUT	490	5	-1	n/a	n/a	n/a	n/a	n/a
4306.936	n/a	RECOG_RESP	2153468	n/a	LTP254	ltpFR	1	3	-1	DOUGHNUT	490	n/a	-1	n/a	n/a	n/a	n/a	n/a
4308.542	n/a	RECOG_CONF	2154271	n/a	LTP254	ltpFR	1	3	-1	DOUGHNUT	490	5	-1	n/a	n/a	n/a	n/a	n/a
4310.826	n/a	RECOG_LURE	2155413	n/a	LTP254	ltpFR	1	3	n/a	CANOE	233	2	n/a	n/a	n/a	n/a	n/a	n/a
4313.79	n/a	RECOG_RESP	2156895	n/a	LTP254	ltpFR	1	3	n/a	CANOE	233	n/a	n/a	n/a	n/a	n/a	n/a	n/a
4316.314	n/a	RECOG_CONF	2158157	n/a	LTP254	ltpFR	1	3	n/a	CANOE	233	2	n/a	n/a	n/a	n/a	n/a	n/a
4318.638	n/a	RECOG_TARGET	2159319	n/a	LTP254	ltpFR	1	3	-1	CHECK	284	1	-1	n/a	n/a	n/a	n/a	n/a
4323.864	n/a	RECOG_RESP	2161932	n/a	LTP254	ltpFR	1	3	-1	CHECK	284	n/a	-1	n/a	n/a	n/a	n/a	n/a
4326.242	n/a	RECOG_CONF	2163121	n/a	LTP254	ltpFR	1	3	-1	CHECK	284	1	-1	n/a	n/a	n/a	n/a	n/a
4328.47	n/a	RECOG_LURE	2164235	n/a	LTP254	ltpFR	1	3	n/a	ORCHID	982	5	n/a	n/a	n/a	n/a	n/a	n/a
4330.374	n/a	RECOG_RESP	2165187	n/a	LTP254	ltpFR	1	3	n/a	ORCHID	982	n/a	n/a	n/a	n/a	n/a	n/a	n/a
4331.77	n/a	RECOG_CONF	2165885	n/a	LTP254	ltpFR	1	3	n/a	ORCHID	982	5	n/a	n/a	n/a	n/a	n/a	n/a
4333.898	n/a	RECOG_LURE	2166949	n/a	LTP254	ltpFR	1	3	n/a	EAR	513	1	n/a	n/a	n/a	n/a	n/a	n/a
4335.806	n/a	RECOG_RESP	2167903	n/a	LTP254	ltpFR	1	3	n/a	EAR	513	n/a	n/a	n/a	n/a	n/a	n/a	n/a
4337.958	n/a	RECOG_CONF	2168979	n/a	LTP254	ltpFR	1	3	n/a	EAR	513	1	n/a	n/a	n/a	n/a	n/a	n/a
4339.954	n/a	RECOG_TARGET	2169977	n/a	LTP254	ltpFR	1	3	-1	CANYON	235	5	-1	n/a	n/a	n/a	n/a	n/a
4340.856	n/a	RECOG_RESP	2170428	n/a	LTP254	ltpFR	1	3	-1	CANYON	235	n/a	-1	n/a	n/a	n/a	n/a	n/a
4342.278	n/a	RECOG_CONF	2171139	n/a	LTP254	ltpFR	1	3	-1	CANYON	235	5	-1	n/a	n/a	n/a	n/a	n/a
4345.408	n/a	RECOG_TARGET	2172704	n/a	LTP254	ltpFR	1	3	-1	VAN	1548	3	-1	n/a	n/a	n/a	n/a	n/a
4347.066	n/a	RECOG_RESP	2173533	n/a	LTP254	ltpFR	1	3	-1	VAN	1548	n/a	-1	n/a	n/a	n/a	n/a	n/a
4348.562	n/a	RECOG_CONF	2174281	n/a	LTP254	ltpFR	1	3	-1	VAN	1548	3	-1	n/a	n/a	n/a	n/a	n/a
4350.494	n/a	RECOG_TARGET	2175247	n/a	LTP254	ltpFR	1	3	1	BIBLE	124	5	1	n/a	n/a	n/a	n/a	n/a
4351.462	n/a	RECOG_RESP	2175731	n/a	LTP254	ltpFR	1	3	1	BIBLE	124	n/a	1	n/a	n/a	n/a	n/a	n/a
4352.854	n/a	RECOG_CONF	2176427	n/a	LTP254	ltpFR	1	3	1	BIBLE	124	5	1	n/a	n/a	n/a	n/a	n/a
4354.802	n/a	RECOG_LURE	2177401	n/a	LTP254	ltpFR	1	3	n/a	CHAMPAGNE	278	3	n/a	n/a	n/a	n/a	n/a	n/a
4359.45	n/a	RECOG_RESP	2179725	n/a	LTP254	ltpFR	1	3	n/a	CHAMPAGNE	278	n/a	n/a	n/a	n/a	n/a	n/a	n/a
4362.742	n/a	RECOG_CONF	2181371	n/a	LTP254	ltpFR	1	3	n/a	CHAMPAGNE	278	3	n/a	n/a	n/a	n/a	n/a	n/a
4364.842	n/a	RECOG_TARGET	2182421	n/a	LTP254	ltpFR	1	3	1	OVAL	990	1	0	n/a	n/a	n/a	n/a	n/a
4369.042	n/a	RECOG_RESP	2184521	n/a	LTP254	ltpFR	1	3	1	OVAL	990	n/a	0	n/a	n/a	n/a	n/a	n/a
4372.03	n/a	RECOG_CONF	2186015	n/a	LTP254	ltpFR	1	3	1	OVAL	990	1	0	n/a	n/a	n/a	n/a	n/a
4374.312	n/a	RECOG_TARGET	2187156	n/a	LTP254	ltpFR	1	3	0	SHACK	1273	5	1	n/a	n/a	n/a	n/a	n/a
4375.394	n/a	RECOG_RESP	2187697	n/a	LTP254	ltpFR	1	3	0	SHACK	1273	n/a	1	n/a	n/a	n/a	n/a	n/a
4377.5	n/a	RECOG_CONF	2188750	n/a	LTP254	ltpFR	1	3	0	SHACK	1273	5	1	n/a	n/a	n/a	n/a	n/a
4379.22	n/a	RECOG_TARGET	2189610	n/a	LTP254	ltpFR	1	3	-1	ARMY	39	4	-1	n/a	n/a	n/a	n/a	n/a
4382.502	n/a	RECOG_RESP	2191251	n/a	LTP254	ltpFR	1	3	-1	ARMY	39	n/a	-1	n/a	n/a	n/a	n/a	n/a
4385.142	n/a	RECOG_CONF	2192571	n/a	LTP254	ltpFR	1	3	-1	ARMY	39	4	-1	n/a	n/a	n/a	n/a	n/a
4387.05	n/a	RECOG_TARGET	2193525	n/a	LTP254	ltpFR	1	3	-1	BALLOON	75	1	-1	n/a	n/a	n/a	n/a	n/a
4394.182	n/a	RECOG_RESP	2197091	n/a	LTP254	ltpFR	1	3	-1	BALLOON	75	n/a	-1	n/a	n/a	n/a	n/a	n/a
4397.784	n/a	RECOG_CONF	2198892	n/a	LTP254	ltpFR	1	3	-1	BALLOON	75	1	-1	n/a	n/a	n/a	n/a	n/a
4400.394	n/a	RECOG_TARGET	2200197	n/a	LTP254	ltpFR	1	3	1	PARENT	1013	3	1	n/a	n/a	n/a	n/a	n/a
4402.554	n/a	RECOG_RESP	2201277	n/a	LTP254	ltpFR	1	3	1	PARENT	1013	n/a	1	n/a	n/a	n/a	n/a	n/a
4404.978	n/a	RECOG_CONF	2202489	n/a	LTP254	ltpFR	1	3	1	PARENT	1013	3	1	n/a	n/a	n/a	n/a	n/a
4408.056	n/a	RECOG_LURE	2204028	n/a	LTP254	ltpFR	1	3	n/a	DOCTOR	478	2	n/a	n/a	n/a	n/a	n/a	n/a
4410.64	n/a	RECOG_RESP	2205320	n/a	LTP254	ltpFR	1	3	n/a	DOCTOR	478	n/a	n/a	n/a	n/a	n/a	n/a	n/a
4413.01	n/a	RECOG_CONF	2206505	n/a	LTP254	ltpFR	1	3	n/a	DOCTOR	478	2	n/a	n/a	n/a	n/a	n/a	n/a
4414.824	n/a	RECOG_TARGET	2207412	n/a	LTP254	ltpFR	1	3	-1	FLEA	577	4	-1	n/a	n/a	n/a	n/a	n/a
4415.76	n/a	RECOG_RESP	2207880	n/a	LTP254	ltpFR	1	3	-1	FLEA	577	n/a	-1	n/a	n/a	n/a	n/a	n/a
4417.72	n/a	RECOG_CONF	2208860	n/a	LTP254	ltpFR	1	3	-1	FLEA	577	4	-1	n/a	n/a	n/a	n/a	n/a
4419.64	n/a	RECOG_TARGET	2209820	n/a	LTP254	ltpFR	1	3	1	GIFT	635	1	0	n/a	n/a	n/a	n/a	n/a
4421.97	n/a	RECOG_RESP	2210985	n/a	LTP254	ltpFR	1	3	1	GIFT	635	n/a	0	n/a	n/a	n/a	n/a	n/a
4424.484	n/a	RECOG_CONF	2212242	n/a	LTP254	ltpFR	1	3	1	GIFT	635	1	0	n/a	n/a	n/a	n/a	n/a
4426.294	n/a	RECOG_TARGET	2213147	n/a	LTP254	ltpFR	1	3	0	ISLAND	745	5	1	n/a	n/a	n/a	n/a	n/a
4427.478	n/a	RECOG_RESP	2213739	n/a	LTP254	ltpFR	1	3	0	ISLAND	745	n/a	1	n/a	n/a	n/a	n/a	n/a
4429.044	n/a	RECOG_CONF	2214522	n/a	LTP254	ltpFR	1	3	0	ISLAND	745	5	1	n/a	n/a	n/a	n/a	n/a
4431.196	n/a	RECOG_TARGET	2215598	n/a	LTP254	ltpFR	1	3	0	LIVER	833	4	0	n/a	n/a	n/a	n/a	n/a
4432.772	n/a	RECOG_RESP	2216386	n/a	LTP254	ltpFR	1	3	0	LIVER	833	n/a	0	n/a	n/a	n/a	n/a	n/a
4435.4	n/a	RECOG_CONF	2217700	n/a	LTP254	ltpFR	1	3	0	LIVER	833	4	0	n/a	n/a	n/a	n/a	n/a
4438.156	n/a	RECOG_LURE	2219078	n/a	LTP254	ltpFR	1	3	n/a	MILITARY	894	4	n/a	n/a	n/a	n/a	n/a	n/a
4439.876	n/a	RECOG_RESP	2219938	n/a	LTP254	ltpFR	1	3	n/a	MILITARY	894	n/a	n/a	n/a	n/a	n/a	n/a	n/a
4441.268	n/a	RECOG_CONF	2220634	n/a	LTP254	ltpFR	1	3	n/a	MILITARY	894	4	n/a	n/a	n/a	n/a	n/a	n/a
4463.834	n/a	REC_START	2231917	n/a	LTP254	ltpFR	1	4	n/a	n/a	n/a	n/a	n/a	n/a	n/a	n/a	n/a	n/a
4463.894	n/a	RECOG_TARGET	2231947	n/a	LTP254	ltpFR	1	4	0	CARRIAGE	248	4	1	n/a	n/a	n/a	n/a	n/a
4466.15	n/a	RECOG_RESP	2233075	n/a	LTP254	ltpFR	1	4	0	CARRIAGE	248	n/a	1	n/a	n/a	n/a	n/a	n/a
4469.178	n/a	RECOG_CONF	2234589	n/a	LTP254	ltpFR	1	4	0	CARRIAGE	248	4	1	n/a	n/a	n/a	n/a	n/a
4471.098	n/a	RECOG_TARGET	2235549	n/a	LTP254	ltpFR	1	4	0	OINTMENT	974	5	0	n/a	n/a	n/a	n/a	n/a
4472.54	n/a	RECOG_RESP	2236270	n/a	LTP254	ltpFR	1	4	0	OINTMENT	974	n/a	0	n/a	n/a	n/a	n/a	n/a
4474.626	n/a	RECOG_CONF	2237313	n/a	LTP254	ltpFR	1	4	0	OINTMENT	974	5	0	n/a	n/a	n/a	n/a	n/a
4476.692	n/a	RECOG_TARGET	2238346	n/a	LTP254	ltpFR	1	4	-1	CARROT	249	5	-1	n/a	n/a	n/a	n/a	n/a
4478.162	n/a	RECOG_RESP	2239081	n/a	LTP254	ltpFR	1	4	-1	CARROT	249	n/a	-1	n/a	n/a	n/a	n/a	n/a
4480.812	n/a	RECOG_CONF	2240406	n/a	LTP254	ltpFR	1	4	-1	CARROT	249	5	-1	n/a	n/a	n/a	n/a	n/a
4482.742	n/a	RECOG_LURE	2241371	n/a	LTP254	ltpFR	1	4	n/a	COMPASS	358	4	n/a	n/a	n/a	n/a	n/a	n/a
4485.302	n/a	RECOG_RESP	2242651	n/a	LTP254	ltpFR	1	4	n/a	COMPASS	358	n/a	n/a	n/a	n/a	n/a	n/a	n/a
4487.346	n/a	RECOG_CONF	2243673	n/a	LTP254	ltpFR	1	4	n/a	COMPASS	358	4	n/a	n/a	n/a	n/a	n/a	n/a
4490.304	n/a	RECOG_TARGET	2245152	n/a	LTP254	ltpFR	1	4	-1	SKIRT	1319	4	-1	n/a	n/a	n/a	n/a	n/a
4491.394	n/a	RECOG_RESP	2245697	n/a	LTP254	ltpFR	1	4	-1	SKIRT	1319	n/a	-1	n/a	n/a	n/a	n/a	n/a
4493.564	n/a	RECOG_CONF	2246782	n/a	LTP254	ltpFR	1	4	-1	SKIRT	1319	4	-1	n/a	n/a	n/a	n/a	n/a
4495.364	n/a	RECOG_TARGET	2247682	n/a	LTP254	ltpFR	1	4	-1	RING	1193	5	-1	n/a	n/a	n/a	n/a	n/a
4496.926	n/a	RECOG_RESP	2248463	n/a	LTP254	ltpFR	1	4	-1	RING	1193	n/a	-1	n/a	n/a	n/a	n/a	n/a
4499.26	n/a	RECOG_CONF	2249630	n/a	LTP254	ltpFR	1	4	-1	RING	1193	5	-1	n/a	n/a	n/a	n/a	n/a
4501.33	n/a	RECOG_TARGET	2250665	n/a	LTP254	ltpFR	1	4	1	CHEEK	287	2	1	n/a	n/a	n/a	n/a	n/a
4503.446	n/a	RECOG_RESP	2251723	n/a	LTP254	ltpFR	1	4	1	CHEEK	287	n/a	1	n/a	n/a	n/a	n/a	n/a
4507.582	n/a	RECOG_CONF	2253791	n/a	LTP254	ltpFR	1	4	1	CHEEK	287	2	1	n/a	n/a	n/a	n/a	n/a
4509.754	n/a	RECOG_TARGET	2254877	n/a	LTP254	ltpFR	1	4	1	RODENT	1204	4	1	n/a	n/a	n/a	n/a	n/a
4511.488	n/a	RECOG_RESP	2255744	n/a	LTP254	ltpFR	1	4	1	RODENT	1204	n/a	1	n/a	n/a	n/a	n/a	n/a
4513.708	n/a	RECOG_CONF	2256854	n/a	LTP254	ltpFR	1	4	1	RODENT	1204	4	1	n/a	n/a	n/a	n/a	n/a
4516.84	n/a	RECOG_TARGET	2258420	n/a	LTP254	ltpFR	1	4	0	INFANT	737	1	0	n/a	n/a	n/a	n/a	n/a
4521.078	n/a	RECOG_RESP	2260539	n/a	LTP254	ltpFR	1	4	0	INFANT	737	n/a	0	n/a	n/a	n/a	n/a	n/a
4523.866	n/a	RECOG_CONF	2261933	n/a	LTP254	ltpFR	1	4	0	INFANT	737	1	0	n/a	n/a	n/a	n/a	n/a
4525.756	n/a	RECOG_TARGET	2262878	n/a	LTP254	ltpFR	1	4	-1	TOWEL	1489	3	-1	n/a	n/a	n/a	n/a	n/a
4527.508	n/a	RECOG_RESP	2263754	n/a	LTP254	ltpFR	1	4	-1	TOWEL	1489	n/a	-1	n/a	n/a	n/a	n/a	n/a
4530.142	n/a	RECOG_CONF	2265071	n/a	LTP254	ltpFR	1	4	-1	TOWEL	1489	3	-1	n/a	n/a	n/a	n/a	n/a
4532.54	n/a	RECOG_TARGET	2266270	n/a	LTP254	ltpFR	1	4	0	STRING	1394	4	0	n/a	n/a	n/a	n/a	n/a
4533.764	n/a	RECOG_RESP	2266882	n/a	LTP254	ltpFR	1	4	0	STRING	1394	n/a	0	n/a	n/a	n/a	n/a	n/a
4535.91	n/a	RECOG_CONF	2267955	n/a	LTP254	ltpFR	1	4	0	STRING	1394	4	0	n/a	n/a	n/a	n/a	n/a
4537.876	n/a	RECOG_TARGET	2268938	n/a	LTP254	ltpFR	1	4	0	WAGON	1578	5	1	n/a	n/a	n/a	n/a	n/a
4539.068	n/a	RECOG_RESP	2269534	n/a	LTP254	ltpFR	1	4	0	WAGON	1578	n/a	1	n/a	n/a	n/a	n/a	n/a
4541.078	n/a	RECOG_CONF	2270539	n/a	LTP254	ltpFR	1	4	0	WAGON	1578	5	1	n/a	n/a	n/a	n/a	n/a
4545.506	n/a	RECOG_TARGET	2272753	n/a	LTP254	ltpFR	1	4	0	CITIZEN	312	1	1	n/a	n/a	n/a	n/a	n/a
4550.642	n/a	RECOG_RESP	2275321	n/a	LTP254	ltpFR	1	4	0	CITIZEN	312	n/a	1	n/a	n/a	n/a	n/a	n/a
4553.002	n/a	RECOG_CONF	2276501	n/a	LTP254	ltpFR	1	4	0	CITIZEN	312	1	1	n/a	n/a	n/a	n/a	n/a
4554.952	n/a	RECOG_LURE	2277476	n/a	LTP254	ltpFR	1	4	n/a	GUARD	667	3	n/a	n/a	n/a	n/a	n/a	n/a
4556.738	n/a	RECOG_RESP	2278369	n/a	LTP254	ltpFR	1	4	n/a	GUARD	667	n/a	n/a	n/a	n/a	n/a	n/a	n/a
4559.248	n/a	RECOG_CONF	2279624	n/a	LTP254	ltpFR	1	4	n/a	GUARD	667	3	n/a	n/a	n/a	n/a	n/a	n/a
4561.258	n/a	RECOG_TARGET	2280629	n/a	LTP254	ltpFR	1	4	0	VOLUNTEER	1577	1	1	n/a	n/a	n/a	n/a	n/a
4570.184	n/a	RECOG_CONF	2285092	n/a	LTP254	ltpFR	1	4	0	VOLUNTEER	1577	1	1	n/a	n/a	n/a	n/a	n/a
4572.174	n/a	RECOG_TARGET	2286087	n/a	LTP254	ltpFR	1	4	-1	SWORD	1423	5	-1	n/a	n/a	n/a	n/a	n/a
4573.306	n/a	RECOG_RESP	2286653	n/a	LTP254	ltpFR	1	4	-1	SWORD	1423	n/a	-1	n/a	n/a	n/a	n/a	n/a
4576.3	n/a	RECOG_CONF	2288150	n/a	LTP254	ltpFR	1	4	-1	SWORD	1423	5	-1	n/a	n/a	n/a	n/a	n/a
4579.78	n/a	RECOG_TARGET	2289890	n/a	LTP254	ltpFR	1	4	0	APPLE	33	5	0	n/a	n/a	n/a	n/a	n/a
4581.354	n/a	RECOG_RESP	2290677	n/a	LTP254	ltpFR	1	4	0	APPLE	33	n/a	0	n/a	n/a	n/a	n/a	n/a
4583.274	n/a	RECOG_CONF	2291637	n/a	LTP254	ltpFR	1	4	0	APPLE	33	5	0	n/a	n/a	n/a	n/a	n/a
4585.268	n/a	RECOG_TARGET	2292634	n/a	LTP254	ltpFR	1	4	1	GROOM	665	5	1	n/a	n/a	n/a	n/a	n/a
4586.532	n/a	RECOG_RESP	2293266	n/a	LTP254	ltpFR	1	4	1	GROOM	665	n/a	1	n/a	n/a	n/a	n/a	n/a
4589.46	n/a	RECOG_CONF	2294730	n/a	LTP254	ltpFR	1	4	1	GROOM	665	5	1	n/a	n/a	n/a	n/a	n/a
4591.524	n/a	RECOG_TARGET	2295762	n/a	LTP254	ltpFR	1	4	0	CATERPILLAR	259	2	0	n/a	n/a	n/a	n/a	n/a
4594.3	n/a	RECOG_RESP	2297150	n/a	LTP254	ltpFR	1	4	0	CATERPILLAR	259	n/a	0	n/a	n/a	n/a	n/a	n/a
4598.66	n/a	RECOG_CONF	2299330	n/a	LTP254	ltpFR	1	4	0	CATERPILLAR	259	2	0	n/a	n/a	n/a	n/a	n/a
4600.984	n/a	RECOG_TARGET	2300492	n/a	LTP254	ltpFR	1	4	1	FIST	572	1	1	n/a	n/a	n/a	n/a	n/a
4603.65	n/a	RECOG_RESP	2301825	n/a	LTP254	ltpFR	1	4	1	FIST	572	n/a	1	n/a	n/a	n/a	n/a	n/a
4606.094	n/a	RECOG_CONF	2303047	n/a	LTP254	ltpFR	1	4	1	FIST	572	1	1	n/a	n/a	n/a	n/a	n/a
4624.74	n/a	REC_START	2312370	n/a	LTP254	ltpFR	1	5	n/a	n/a	n/a	n/a	n/a	n/a	n/a	n/a	n/a	n/a
4624.792	n/a	RECOG_LURE	2312396	n/a	LTP254	ltpFR	1	5	n/a	AFRICA	9	5	n/a	n/a	n/a	n/a	n/a	n/a
4627.324	n/a	RECOG_RESP	2313662	n/a	LTP254	ltpFR	1	5	n/a	AFRICA	9	n/a	n/a	n/a	n/a	n/a	n/a	n/a
4629.794	n/a	RECOG_CONF	2314897	n/a	LTP254	ltpFR	1	5	n/a	AFRICA	9	5	n/a	n/a	n/a	n/a	n/a	n/a
4631.946	n/a	RECOG_LURE	2315973	n/a	LTP254	ltpFR	1	5	n/a	RUG	1215	1	n/a	n/a	n/a	n/a	n/a	n/a
4634.608	n/a	RECOG_RESP	2317304	n/a	LTP254	ltpFR	1	5	n/a	RUG	1215	n/a	n/a	n/a	n/a	n/a	n/a	n/a
4637.496	n/a	RECOG_CONF	2318748	n/a	LTP254	ltpFR	1	5	n/a	RUG	1215	1	n/a	n/a	n/a	n/a	n/a	n/a
4639.524	n/a	RECOG_LURE	2319762	n/a	LTP254	ltpFR	1	5	n/a	SPICE	1350	2	n/a	n/a	n/a	n/a	n/a	n/a
4643.06	n/a	RECOG_RESP	2321530	n/a	LTP254	ltpFR	1	5	n/a	SPICE	1350	n/a	n/a	n/a	n/a	n/a	n/a	n/a
4644.91	n/a	RECOG_CONF	2322455	n/a	LTP254	ltpFR	1	5	n/a	SPICE	1350	2	n/a	n/a	n/a	n/a	n/a	n/a
4647.696	n/a	RECOG_TARGET	2323848	n/a	LTP254	ltpFR	1	5	0	RAM	1165	3	1	n/a	n/a	n/a	n/a	n/a
4649.166	n/a	RECOG_RESP	2324583	n/a	LTP254	ltpFR	1	5	0	RAM	1165	n/a	1	n/a	n/a	n/a	n/a	n/a
4652.364	n/a	RECOG_CONF	2326182	n/a	LTP254	ltpFR	1	5	0	RAM	1165	3	1	n/a	n/a	n/a	n/a	n/a
4654.154	n/a	RECOG_LURE	2327077	n/a	LTP254	ltpFR	1	5	n/a	INMATE	738	4	n/a	n/a	n/a	n/a	n/a	n/a
4655.526	n/a	RECOG_RESP	2327763	n/a	LTP254	ltpFR	1	5	n/a	INMATE	738	n/a	n/a	n/a	n/a	n/a	n/a	n/a
4657.632	n/a	RECOG_CONF	2328816	n/a	LTP254	ltpFR	1	5	n/a	INMATE	738	4	n/a	n/a	n/a	n/a	n/a	n/a
4659.894	n/a	RECOG_LURE	2329947	n/a	LTP254	ltpFR	1	5	n/a	HAWK	692	3	n/a	n/a	n/a	n/a	n/a	n/a
4662.88	n/a	RECOG_RESP	2331440	n/a	LTP254	ltpFR	1	5	n/a	HAWK	692	n/a	n/a	n/a	n/a	n/a	n/a	n/a
4666.772	n/a	RECOG_CONF	2333386	n/a	LTP254	ltpFR	1	5	n/a	HAWK	692	3	n/a	n/a	n/a	n/a	n/a	n/a
4668.962	n/a	RECOG_TARGET	2334481	n/a	LTP254	ltpFR	1	5	-1	RABBIT	1152	5	-1	n/a	n/a	n/a	n/a	n/a
4669.784	n/a	RECOG_RESP	2334892	n/a	LTP254	ltpFR	1	5	-1	RABBIT	1152	n/a	-1	n/a	n/a	n/a	n/a	n/a
4671.75	n/a	RECOG_CONF	2335875	n/a	LTP254	ltpFR	1	5	-1	RABBIT	1152	5	-1	n/a	n/a	n/a	n/a	n/a
4673.996	n/a	RECOG_TARGET	2336998	n/a	LTP254	ltpFR	1	5	1	ANIMAL	23	2	1	n/a	n/a	n/a	n/a	n/a
4675.656	n/a	RECOG_RESP	2337828	n/a	LTP254	ltpFR	1	5	1	ANIMAL	23	n/a	1	n/a	n/a	n/a	n/a	n/a
4679.284	n/a	RECOG_CONF	2339642	n/a	LTP254	ltpFR	1	5	1	ANIMAL	23	2	1	n/a	n/a	n/a	n/a	n/a
4681.1	n/a	RECOG_TARGET	2340550	n/a	LTP254	ltpFR	1	5	0	LID	817	4	0	n/a	n/a	n/a	n/a	n/a
4682.536	n/a	RECOG_RESP	2341268	n/a	LTP254	ltpFR	1	5	0	LID	817	n/a	0	n/a	n/a	n/a	n/a	n/a
4685.33	n/a	RECOG_CONF	2342665	n/a	LTP254	ltpFR	1	5	0	LID	817	4	0	n/a	n/a	n/a	n/a	n/a
4687.866	n/a	RECOG_TARGET	2343933	n/a	LTP254	ltpFR	1	5	1	BALCONY	72	5	0	n/a	n/a	n/a	n/a	n/a
4689.216	n/a	RECOG_RESP	2344608	n/a	LTP254	ltpFR	1	5	1	BALCONY	72	n/a	0	n/a	n/a	n/a	n/a	n/a
4691.406	n/a	RECOG_CONF	2345703	n/a	LTP254	ltpFR	1	5	1	BALCONY	72	5	0	n/a	n/a	n/a	n/a	n/a
4693.404	n/a	RECOG_TARGET	2346702	n/a	LTP254	ltpFR	1	5	1	GRADUATE	653	5	1	n/a	n/a	n/a	n/a	n/a
4694.326	n/a	RECOG_RESP	2347163	n/a	LTP254	ltpFR	1	5	1	GRADUATE	653	n/a	1	n/a	n/a	n/a	n/a	n/a
4696.636	n/a	RECOG_CONF	2348318	n/a	LTP254	ltpFR	1	5	1	GRADUATE	653	5	1	n/a	n/a	n/a	n/a	n/a
4698.886	n/a	RECOG_TARGET	2349443	n/a	LTP254	ltpFR	1	5	1	CHICK	296	5	1	n/a	n/a	n/a	n/a	n/a
4699.828	n/a	RECOG_RESP	2349914	n/a	LTP254	ltpFR	1	5	1	CHICK	296	n/a	1	n/a	n/a	n/a	n/a	n/a
4702.054	n/a	RECOG_CONF	2351027	n/a	LTP254	ltpFR	1	5	1	CHICK	296	5	1	n/a	n/a	n/a	n/a	n/a
4703.978	n/a	RECOG_TARGET	2351989	n/a	LTP254	ltpFR	1	5	1	SUIT	1402	3	0	n/a	n/a	n/a	n/a	n/a
4707.008	n/a	RECOG_RESP	2353504	n/a	LTP254	ltpFR	1	5	1	SUIT	1402	n/a	0	n/a	n/a	n/a	n/a	n/a
