mstime	trial_type	stim_file	subject	experiment	session	trial	task	item_name	item_num	recog_resp	recog_conf	resp	color_r	color_g	color_b	case	font
0	SESS_START	n/a	LTP100	ltpFR	15	n/a	n/a	n/a	n/a	1	3	n/a	n/a	n/a	n/a	n/a	n/a
105984	WORD	wordpools/wasnorm_wordpool.txt	LTP100	ltpFR	15	1	1	CAMEL	223	0	n/a	1	0.422607421875	0.5869140625	0	lower	amplitud.ttf
110142	WORD	wordpools/wasnorm_wordpool.txt	LTP100	ltpFR	15	1	1	MARINE	869	n/a	n/a	1	0.422607421875	0.5869140625	0	lower	amplitud.ttf
114225	WORD	wordpools/wasnorm_wordpool.txt	LTP100	ltpFR	15	1	0	ARMY	39	n/a	n/a	0	0.57763671875	0.412841796875	1	upper	zerothre.ttf
118425	WORD	wordpools/wasnorm_wordpool.txt	LTP100	ltpFR	15	1	0	SARDINE	1235	n/a	n/a	0	0.57763671875	0.412841796875	1	upper	zerothre.ttf
122408	WORD	wordpools/wasnorm_wordpool.txt	LTP100	ltpFR	15	1	0	FISH	571	n/a	n/a	0	0.57763671875	0.412841796875	1	upper	zerothre.ttf
126482	WORD	wordpools/wasnorm_wordpool.txt	LTP100	ltpFR	15	1	0	DUST	508	n/a	n/a	0	0.57763671875	0.412841796875	1	upper	zerothre.ttf
130566	WORD	wordpools/wasnorm_wordpool.txt	LTP100	ltpFR	15	1	0	TRANSPLANT	1496	n/a	n/a	0	0.57763671875	0.412841796875	1	upper	zerothre.ttf
134498	WORD	wordpools/wasnorm_wordpool.txt	LTP100	ltpFR	15	1	1	COLLAR	345	n/a	n/a	0	0.422607421875	0.5869140625	0	lower	amplitud.ttf
138649	WORD	wordpools/wasnorm_wordpool.txt	LTP100	ltpFR	15	1	1	TOWER	1490	n/a	n/a	0	0.422607421875	0.5869140625	0	lower	amplitud.ttf
142856	WORD	wordpools/wasnorm_wordpool.txt	LTP100	ltpFR	15	1	1	PORCH	1106	n/a	n/a	0	0.422607421875	0.5869140625	0	lower	amplitud.ttf
146997	WORD	wordpools/wasnorm_wordpool.txt	LTP100	ltpFR	15	1	1	COBRA	336	n/a	n/a	1	0.422607421875	0.5869140625	0	lower	amplitud.ttf
150939	WORD	wordpools/wasnorm_wordpool.txt	LTP100	ltpFR	15	1	1	SOFA	1342	n/a	n/a	0	0.422607421875	0.5869140625	0	lower	amplitud.ttf
154864	WORD	wordpools/wasnorm_wordpool.txt	LTP100	ltpFR	15	1	1	WASHCLOTH	1591	n/a	n/a	0	0.422607421875	0.5869140625	0	lower	amplitud.ttf
158830	WORD	wordpools/wasnorm_wordpool.txt	LTP100	ltpFR	15	1	0	ARTERY	41	n/a	n/a	0	0.57763671875	0.412841796875	1	upper	zerothre.ttf
163021	WORD	wordpools/wasnorm_wordpool.txt	LTP100	ltpFR	15	1	0	CHEF	290	n/a	n/a	1	0.57763671875	0.412841796875	1	upper	zerothre.ttf
167229	WORD	wordpools/wasnorm_wordpool.txt	LTP100	ltpFR	15	1	0	PUPPY	1144	n/a	n/a	1	0.57763671875	0.412841796875	1	upper	zerothre.ttf
173171	REC_START	n/a	LTP100	ltpFR	15	1	n/a	n/a	n/a	n/a	n/a	n/a	n/a	n/a	n/a	n/a	n/a
174398	REC_WORD	wordpools/wasnorm_wordpool.txt	LTP100	ltpFR	15	1	1	COBRA	336	n/a	n/a	1	n/a	n/a	n/a	n/a	n/a
177067	REC_WORD	wordpools/wasnorm_wordpool.txt	LTP100	ltpFR	15	1	1	SOFA	1342	n/a	n/a	0	n/a	n/a	n/a	n/a	n/a
177920	REC_WORD	wordpools/wasnorm_wordpool.txt	LTP100	ltpFR	15	1	1	WASHCLOTH	1591	n/a	n/a	0	n/a	n/a	n/a	n/a	n/a
180080	REC_WORD	wordpools/wasnorm_wordpool.txt	LTP100	ltpFR	15	1	0	ARTERY	41	n/a	n/a	0	n/a	n/a	n/a	n/a	n/a
181247	REC_WORD	wordpools/wasnorm_wordpool.txt	LTP100	ltpFR	15	1	0	PUPPY	1144	n/a	n/a	1	n/a	n/a	n/a	n/a	n/a
183692	REC_WORD	wordpools/wasnorm_wordpool.txt	LTP100	ltpFR	15	1	1	CAMEL	223	n/a	n/a	1	n/a	n/a	n/a	n/a	n/a
185129	REC_WORD	wordpools/wasnorm_wordpool.txt	LTP100	ltpFR	15	1	1	MARINE	869	n/a	n/a	1	n/a	n/a	n/a	n/a	n/a
186196	REC_WORD	wordpools/wasnorm_wordpool.txt	LTP100	ltpFR	15	1	0	ARMY	39	n/a	n/a	0	n/a	n/a	n/a	n/a	n/a
199386	REC_WORD	wordpools/wasnorm_wordpool.txt	LTP100	ltpFR	15	1	0	FISH	571	n/a	n/a	0	n/a	n/a	n/a	n/a	n/a
200324	REC_WORD	wordpools/wasnorm_wordpool.txt	LTP100	ltpFR	15	1	0	SARDINE	1235	n/a	n/a	0	n/a	n/a	n/a	n/a	n/a
201681	REC_WORD	wordpools/wasnorm_wordpool.txt	LTP100	ltpFR	15	1	0	DUST	508	n/a	n/a	0	n/a	n/a	n/a	n/a	n/a
209937	REC_WORD	wordpools/wasnorm_wordpool.txt	LTP100	ltpFR	15	1	0	PUPPY	1144	n/a	n/a	1	n/a	n/a	n/a	n/a	n/a
224234	REC_WORD	wordpools/wasnorm_wordpool.txt	LTP100	ltpFR	15	1	1	PORCH	1106	n/a	n/a	0	n/a	n/a	n/a	n/a	n/a
231214	REC_WORD	wordpools/wasnorm_wordpool.txt	LTP100	ltpFR	15	1	1	COBRA	336	n/a	n/a	1	n/a	n/a	n/a	n/a	n/a
255897	WORD	wordpools/wasnorm_wordpool.txt	LTP100	ltpFR	15	2	0	TURKEY	1520	n/a	n/a	0	0.57763671875	0.412841796875	1	upper	zerothre.ttf
259814	WORD	wordpools/wasnorm_wordpool.txt	LTP100	ltpFR	15	2	0	PARTY	1018	n/a	n/a	1	0.57763671875	0.412841796875	1	upper	zerothre.ttf
263798	WORD	wordpools/wasnorm_wordpool.txt	LTP100	ltpFR	15	2	0	HEATER	698	n/a	n/a	1	0.57763671875	0.412841796875	1	upper	zerothre.ttf
267614	WORD	wordpools/wasnorm_wordpool.txt	LTP100	ltpFR	15	2	0	TOWEL	1489	n/a	n/a	0	0.57763671875	0.412841796875	1	upper	zerothre.ttf
271513	WORD	wordpools/wasnorm_wordpool.txt	LTP100	ltpFR	15	2	1	EAGLE	512	n/a	n/a	0	0.422607421875	0.5869140625	0	lower	amplitud.ttf
275363	WORD	wordpools/wasnorm_wordpool.txt	LTP100	ltpFR	15	2	1	CAPE	237	n/a	n/a	1	0.422607421875	0.5869140625	0	lower	amplitud.ttf
279546	WORD	wordpools/wasnorm_wordpool.txt	LTP100	ltpFR	15	2	1	LAPEL	800	n/a	n/a	0	0.422607421875	0.5869140625	0	lower	amplitud.ttf
283554	WORD	wordpools/wasnorm_wordpool.txt	LTP100	ltpFR	15	2	1	DOORBELL	487	n/a	n/a	0	0.422607421875	0.5869140625	0	lower	amplitud.ttf
287729	WORD	wordpools/wasnorm_wordpool.txt	LTP100	ltpFR	15	2	1	SAPPHIRE	1234	n/a	n/a	0	0.422607421875	0.5869140625	0	lower	amplitud.ttf
291620	WORD	wordpools/wasnorm_wordpool.txt	LTP100	ltpFR	15	2	0	NEPTUNE	943	n/a	n/a	1	0.57763671875	0.412841796875	1	upper	zerothre.ttf
295679	WORD	wordpools/wasnorm_wordpool.txt	LTP100	ltpFR	15	2	0	SPARROW	1347	n/a	n/a	0	0.57763671875	0.412841796875	1	upper	zerothre.ttf
299861	WORD	wordpools/wasnorm_wordpool.txt	LTP100	ltpFR	15	2	1	NOMAD	955	n/a	n/a	1	0.422607421875	0.5869140625	0	lower	amplitud.ttf
303927	WORD	wordpools/wasnorm_wordpool.txt	LTP100	ltpFR	15	2	1	TRIBE	1505	n/a	n/a	0	0.422607421875	0.5869140625	0	lower	amplitud.ttf
308027	WORD	wordpools/wasnorm_wordpool.txt	LTP100	ltpFR	15	2	1	BELT	120	n/a	n/a	0	0.422607421875	0.5869140625	0	lower	amplitud.ttf
311943	WORD	wordpools/wasnorm_wordpool.txt	LTP100	ltpFR	15	2	0	CREATURE	403	n/a	n/a	1	0.57763671875	0.412841796875	1	upper	zerothre.ttf
316151	WORD	wordpools/wasnorm_wordpool.txt	LTP100	ltpFR	15	2	0	UNIVERSE	1540	n/a	n/a	1	0.57763671875	0.412841796875	1	upper	zerothre.ttf
321918	REC_START	n/a	LTP100	ltpFR	15	2	n/a	n/a	n/a	n/a	n/a	n/a	n/a	n/a	n/a	n/a	n/a
323449	REC_WORD	wordpools/wasnorm_wordpool.txt	LTP100	ltpFR	15	2	1	NOMAD	955	n/a	n/a	1	n/a	n/a	n/a	n/a	n/a
324317	REC_WORD	wordpools/wasnorm_wordpool.txt	LTP100	ltpFR	15	2	1	TRIBE	1505	n/a	n/a	0	n/a	n/a	n/a	n/a	n/a
326946	REC_WORD	wordpools/wasnorm_wordpool.txt	LTP100	ltpFR	15	2	1	BELT	120	n/a	n/a	0	n/a	n/a	n/a	n/a	n/a
327690	REC_WORD	wordpools/wasnorm_wordpool.txt	LTP100	ltpFR	15	2	0	CREATURE	403	n/a	n/a	1	n/a	n/a	n/a	n/a	n/a
329555	REC_WORD	wordpools/wasnorm_wordpool.txt	LTP100	ltpFR	15	2	0	UNIVERSE	1540	n/a	n/a	1	n/a	n/a	n/a	n/a	n/a
330503	REC_WORD	wordpools/wasnorm_wordpool.txt	LTP100	ltpFR	15	2	0	NEPTUNE	943	n/a	n/a	1	n/a	n/a	n/a	n/a	n/a
333566	REC_WORD	wordpools/wasnorm_wordpool.txt	LTP100	ltpFR	15	2	1	CAPE	237	n/a	n/a	1	n/a	n/a	n/a	n/a	n/a
338500	REC_WORD	wordpools/wasnorm_wordpool.txt	LTP100	ltpFR	15	2	0	SPARROW	1347	n/a	n/a	0	n/a	n/a	n/a	n/a	n/a
349670	REC_WORD	wordpools/wasnorm_wordpool.txt	LTP100	ltpFR	15	2	n/a	OLIVE	975	n/a	n/a	n/a	n/a	n/a	n/a	n/a	n/a
359557	REC_WORD	wordpools/wasnorm_wordpool.txt	LTP100	ltpFR	15	2	0	PARTY	1018	n/a	n/a	1	n/a	n/a	n/a	n/a	n/a
374613	REC_WORD	wordpools/wasnorm_wordpool.txt	LTP100	ltpFR	15	2	1	COBRA	336	n/a	n/a	1	n/a	n/a	n/a	n/a	n/a
400394	WORD	wordpools/wasnorm_wordpool.txt	LTP100	ltpFR	15	3	1	RASPBERRY	1168	n/a	n/a	1	0.422607421875	0.5869140625	0	lower	amplitud.ttf
404436	WORD	wordpools/wasnorm_wordpool.txt	LTP100	ltpFR	15	3	1	CHERRY	293	n/a	n/a	0	0.422607421875	0.5869140625	0	lower	amplitud.ttf
408369	WORD	wordpools/wasnorm_wordpool.txt	LTP100	ltpFR	15	3	1	HOUND	724	n/a	n/a	1	0.422607421875	0.5869140625	0	lower	amplitud.ttf
412569	WORD	wordpools/wasnorm_wordpool.txt	LTP100	ltpFR	15	3	1	OTTER	986	n/a	n/a	1	0.422607421875	0.5869140625	0	lower	amplitud.ttf
416594	WORD	wordpools/wasnorm_wordpool.txt	LTP100	ltpFR	15	3	1	FLEET	578	n/a	n/a	0	0.422607421875	0.5869140625	0	lower	amplitud.ttf
420711	WORD	wordpools/wasnorm_wordpool.txt	LTP100	ltpFR	15	3	1	CRIB	407	n/a	n/a	0	0.422607421875	0.5869140625	0	lower	amplitud.ttf
424719	WORD	wordpools/wasnorm_wordpool.txt	LTP100	ltpFR	15	3	1	OATMEAL	967	n/a	n/a	0	0.422607421875	0.5869140625	0	lower	amplitud.ttf
428585	WORD	wordpools/wasnorm_wordpool.txt	LTP100	ltpFR	15	3	1	JEEP	753	n/a	n/a	0	0.422607421875	0.5869140625	0	lower	amplitud.ttf
432785	WORD	wordpools/wasnorm_wordpool.txt	LTP100	ltpFR	15	3	1	PASSENGER	1020	n/a	n/a	0	0.422607421875	0.5869140625	0	lower	amplitud.ttf
436651	WORD	wordpools/wasnorm_wordpool.txt	LTP100	ltpFR	15	3	1	WATER	1594	n/a	n/a	0	0.422607421875	0.5869140625	0	lower	amplitud.ttf
440626	WORD	wordpools/wasnorm_wordpool.txt	LTP100	ltpFR	15	3	1	SWING	1421	n/a	n/a	0	0.422607421875	0.5869140625	0	lower	amplitud.ttf
444499	WORD	wordpools/wasnorm_wordpool.txt	LTP100	ltpFR	15	3	1	OCEAN	970	n/a	n/a	0	0.422607421875	0.5869140625	0	lower	amplitud.ttf
448575	WORD	wordpools/wasnorm_wordpool.txt	LTP100	ltpFR	15	3	1	DOUGH	489	n/a	n/a	0	0.422607421875	0.5869140625	0	lower	amplitud.ttf
452616	WORD	wordpools/wasnorm_wordpool.txt	LTP100	ltpFR	15	3	1	CASHIER	254	n/a	n/a	0	0.422607421875	0.5869140625	0	lower	amplitud.ttf
456641	WORD	wordpools/wasnorm_wordpool.txt	LTP100	ltpFR	15	3	1	PLAYGROUND	1087	n/a	n/a	0	0.422607421875	0.5869140625	0	lower	amplitud.ttf
460749	WORD	wordpools/wasnorm_wordpool.txt	LTP100	ltpFR	15	3	1	SHEEP	1278	n/a	n/a	1	0.422607421875	0.5869140625	0	lower	amplitud.ttf
466666	REC_START	n/a	LTP100	ltpFR	15	3	n/a	n/a	n/a	n/a	n/a	n/a	n/a	n/a	n/a	n/a	n/a
470632	REC_WORD	wordpools/wasnorm_wordpool.txt	LTP100	ltpFR	15	3	1	WATER	1594	n/a	n/a	0	n/a	n/a	n/a	n/a	n/a
471400	REC_WORD	wordpools/wasnorm_wordpool.txt	LTP100	ltpFR	15	3	1	SHEEP	1278	n/a	n/a	1	n/a	n/a	n/a	n/a	n/a
472662	REC_WORD	wordpools/wasnorm_wordpool.txt	LTP100	ltpFR	15	3	1	OCEAN	970	n/a	n/a	0	n/a	n/a	n/a	n/a	n/a
473535	REC_WORD	wordpools/wasnorm_wordpool.txt	LTP100	ltpFR	15	3	1	PLAYGROUND	1087	n/a	n/a	0	n/a	n/a	n/a	n/a	n/a
478783	REC_WORD	wordpools/wasnorm_wordpool.txt	LTP100	ltpFR	15	3	0	CREATURE	403	n/a	n/a	1	n/a	n/a	n/a	n/a	n/a
483363	REC_WORD	wordpools/wasnorm_wordpool.txt	LTP100	ltpFR	15	3	1	RASPBERRY	1168	n/a	n/a	1	n/a	n/a	n/a	n/a	n/a
484326	REC_WORD	wordpools/wasnorm_wordpool.txt	LTP100	ltpFR	15	3	1	CHERRY	293	n/a	n/a	0	n/a	n/a	n/a	n/a	n/a
487294	REC_WORD	wordpools/wasnorm_wordpool.txt	LTP100	ltpFR	15	3	1	CASHIER	254	n/a	n/a	0	n/a	n/a	n/a	n/a	n/a
494757	REC_WORD	wordpools/wasnorm_wordpool.txt	LTP100	ltpFR	15	3	0	CHEF	290	n/a	n/a	1	n/a	n/a	n/a	n/a	n/a
506261	REC_WORD	wordpools/wasnorm_wordpool.txt	LTP100	ltpFR	15	3	1	NOMAD	955	n/a	n/a	1	n/a	n/a	n/a	n/a	n/a
514502	REC_WORD	wordpools/wasnorm_wordpool.txt	LTP100	ltpFR	15	3	1	LAPEL	800	n/a	n/a	0	n/a	n/a	n/a	n/a	n/a
522075	REC_WORD	wordpools/wasnorm_wordpool.txt	LTP100	ltpFR	15	3	1	PASSENGER	1020	n/a	n/a	0	n/a	n/a	n/a	n/a	n/a
545225	WORD	wordpools/wasnorm_wordpool.txt	LTP100	ltpFR	15	4	1	PICKLE	1059	n/a	n/a	0	0.422607421875	0.5869140625	0	lower	amplitud.ttf
549100	WORD	wordpools/wasnorm_wordpool.txt	LTP100	ltpFR	15	4	1	DAUGHTER	442	n/a	n/a	1	0.422607421875	0.5869140625	0	lower	amplitud.ttf
553041	WORD	wordpools/wasnorm_wordpool.txt	LTP100	ltpFR	15	4	1	POPE	1105	n/a	n/a	1	0.422607421875	0.5869140625	0	lower	amplitud.ttf
557224	WORD	wordpools/wasnorm_wordpool.txt	LTP100	ltpFR	15	4	1	MATCH	878	n/a	n/a	0	0.422607421875	0.5869140625	0	lower	amplitud.ttf
561057	WORD	wordpools/wasnorm_wordpool.txt	LTP100	ltpFR	15	4	1	VACUUM	1543	n/a	n/a	0	0.422607421875	0.5869140625	0	lower	amplitud.ttf
565040	WORD	wordpools/wasnorm_wordpool.txt	LTP100	ltpFR	15	4	1	LEVER	815	n/a	n/a	0	0.422607421875	0.5869140625	0	lower	amplitud.ttf
569190	WORD	wordpools/wasnorm_wordpool.txt	LTP100	ltpFR	15	4	1	ROOT	1210	n/a	n/a	0	0.422607421875	0.5869140625	0	lower	amplitud.ttf
573306	WORD	wordpools/wasnorm_wordpool.txt	LTP100	ltpFR	15	4	1	LEAF	808	n/a	n/a	0	0.422607421875	0.5869140625	0	lower	amplitud.ttf
577431	WORD	wordpools/wasnorm_wordpool.txt	LTP100	ltpFR	15	4	1	CHURCH	307	n/a	n/a	0	0.422607421875	0.5869140625	0	lower	amplitud.ttf
581522	WORD	wordpools/wasnorm_wordpool.txt	LTP100	ltpFR	15	4	1	BRUSH	182	n/a	n/a	0	0.422607421875	0.5869140625	0	lower	amplitud.ttf
585631	WORD	wordpools/wasnorm_wordpool.txt	LTP100	ltpFR	15	4	1	BRUNETTE	181	n/a	n/a	1	0.422607421875	0.5869140625	0	lower	amplitud.ttf
589531	WORD	wordpools/wasnorm_wordpool.txt	LTP100	ltpFR	15	4	1	ZUCCHINI	1638	n/a	n/a	0	0.422607421875	0.5869140625	0	lower	amplitud.ttf
593605	WORD	wordpools/wasnorm_wordpool.txt	LTP100	ltpFR	15	4	1	PRINCESS	1125	n/a	n/a	1	0.422607421875	0.5869140625	0	lower	amplitud.ttf
597805	WORD	wordpools/wasnorm_wordpool.txt	LTP100	ltpFR	15	4	1	TWIN	1528	n/a	n/a	1	0.422607421875	0.5869140625	0	lower	amplitud.ttf
601945	WORD	wordpools/wasnorm_wordpool.txt	LTP100	ltpFR	15	4	1	BARRACUDA	90	n/a	n/a	1	0.422607421875	0.5869140625	0	lower	amplitud.ttf
605887	WORD	wordpools/wasnorm_wordpool.txt	LTP100	ltpFR	15	4	1	CHAPEL	280	n/a	n/a	0	0.422607421875	0.5869140625	0	lower	amplitud.ttf
611788	REC_START	n/a	LTP100	ltpFR	15	4	n/a	n/a	n/a	n/a	n/a	n/a	n/a	n/a	n/a	n/a	n/a
613513	REC_WORD	wordpools/wasnorm_wordpool.txt	LTP100	ltpFR	15	4	1	ZUCCHINI	1638	n/a	n/a	0	n/a	n/a	n/a	n/a	n/a
614342	REC_WORD	wordpools/wasnorm_wordpool.txt	LTP100	ltpFR	15	4	1	PRINCESS	1125	n/a	n/a	1	n/a	n/a	n/a	n/a	n/a
616622	REC_WORD	wordpools/wasnorm_wordpool.txt	LTP100	ltpFR	15	4	1	TWIN	1528	n/a	n/a	1	n/a	n/a	n/a	n/a	n/a
619076	REC_WORD	wordpools/wasnorm_wordpool.txt	LTP100	ltpFR	15	4	1	CHAPEL	280	n/a	n/a	0	n/a	n/a	n/a	n/a	n/a
626180	REC_WORD	wordpools/wasnorm_wordpool.txt	LTP100	ltpFR	15	4	1	PICKLE	1059	n/a	n/a	0	n/a	n/a	n/a	n/a	n/a
626749	REC_WORD	wordpools/wasnorm_wordpool.txt	LTP100	ltpFR	15	4	1	DAUGHTER	442	n/a	n/a	1	n/a	n/a	n/a	n/a	n/a
631558	REC_WORD	wordpools/wasnorm_wordpool.txt	LTP100	ltpFR	15	4	1	MATCH	878	n/a	n/a	0	n/a	n/a	n/a	n/a	n/a
641595	REC_WORD	wordpools/wasnorm_wordpool.txt	LTP100	ltpFR	15	4	1	BARRACUDA	90	n/a	n/a	1	n/a	n/a	n/a	n/a	n/a
665451	REC_WORD	wordpools/wasnorm_wordpool.txt	LTP100	ltpFR	15	4	n/a	BOAT	144	n/a	n/a	n/a	n/a	n/a	n/a	n/a	n/a
674216	REC_WORD	wordpools/wasnorm_wordpool.txt	LTP100	ltpFR	15	4	1	COBRA	336	n/a	n/a	1	n/a	n/a	n/a	n/a	n/a
690264	WORD	wordpools/wasnorm_wordpool.txt	LTP100	ltpFR	15	5	0	MOSQUITO	917	n/a	n/a	0	0.57763671875	0.412841796875	1	upper	zerothre.ttf
694147	WORD	wordpools/wasnorm_wordpool.txt	LTP100	ltpFR	15	5	0	TOY	1492	n/a	n/a	0	0.57763671875	0.412841796875	1	upper	zerothre.ttf
698188	WORD	wordpools/wasnorm_wordpool.txt	LTP100	ltpFR	15	5	0	DIVER	476	n/a	n/a	1	0.57763671875	0.412841796875	1	upper	zerothre.ttf
702363	WORD	wordpools/wasnorm_wordpool.txt	LTP100	ltpFR	15	5	0	HOSE	720	n/a	n/a	0	0.57763671875	0.412841796875	1	upper	zerothre.ttf
706379	WORD	wordpools/wasnorm_wordpool.txt	LTP100	ltpFR	15	5	1	ASSISTANT	48	n/a	n/a	0	0.422607421875	0.5869140625	0	lower	amplitud.ttf
710437	WORD	wordpools/wasnorm_wordpool.txt	LTP100	ltpFR	15	5	1	CAP	236	n/a	n/a	0	0.422607421875	0.5869140625	0	lower	amplitud.ttf
714604	WORD	wordpools/wasnorm_wordpool.txt	LTP100	ltpFR	15	5	1	NECK	939	n/a	n/a	0	0.422607421875	0.5869140625	0	lower	amplitud.ttf
718587	WORD	wordpools/wasnorm_wordpool.txt	LTP100	ltpFR	15	5	1	ADOLESCENT	7	n/a	n/a	1	0.422607421875	0.5869140625	0	lower	amplitud.ttf
722469	WORD	wordpools/wasnorm_wordpool.txt	LTP100	ltpFR	15	5	1	TIDE	1465	n/a	n/a	0	0.422607421875	0.5869140625	0	lower	amplitud.ttf
726352	WORD	wordpools/wasnorm_wordpool.txt	LTP100	ltpFR	15	5	1	PORCUPINE	1107	n/a	n/a	1	0.422607421875	0.5869140625	0	lower	amplitud.ttf
730161	WORD	wordpools/wasnorm_wordpool.txt	LTP100	ltpFR	15	5	0	BEETLE	116	n/a	n/a	0	0.57763671875	0.412841796875	1	upper	zerothre.ttf
734369	WORD	wordpools/wasnorm_wordpool.txt	LTP100	ltpFR	15	5	0	FUGITIVE	612	n/a	n/a	1	0.57763671875	0.412841796875	1	upper	zerothre.ttf
738410	WORD	wordpools/wasnorm_wordpool.txt	LTP100	ltpFR	15	5	0	LION	827	n/a	n/a	1	0.57763671875	0.412841796875	1	upper	zerothre.ttf
742602	WORD	wordpools/wasnorm_wordpool.txt	LTP100	ltpFR	15	5	0	SPHINX	1349	n/a	n/a	1	0.57763671875	0.412841796875	1	upper	zerothre.ttf
746635	WORD	wordpools/wasnorm_wordpool.txt	LTP100	ltpFR	15	5	1	BOUQUET	157	n/a	n/a	0	0.422607421875	0.5869140625	0	lower	amplitud.ttf
750693	WORD	wordpools/wasnorm_wordpool.txt	LTP100	ltpFR	15	5	1	PUPIL	1143	n/a	n/a	0	0.422607421875	0.5869140625	0	lower	amplitud.ttf
756585	REC_START	n/a	LTP100	ltpFR	15	5	n/a	n/a	n/a	n/a	n/a	n/a	n/a	n/a	n/a	n/a	n/a
758825	REC_WORD	wordpools/wasnorm_wordpool.txt	LTP100	ltpFR	15	5	1	BOUQUET	157	n/a	n/a	0	n/a	n/a	n/a	n/a	n/a
759712	REC_WORD	wordpools/wasnorm_wordpool.txt	LTP100	ltpFR	15	5	1	ASSISTANT	48	n/a	n/a	0	n/a	n/a	n/a	n/a	n/a
760635	REC_WORD	wordpools/wasnorm_wordpool.txt	LTP100	ltpFR	15	5	1	PUPIL	1143	n/a	n/a	0	n/a	n/a	n/a	n/a	n/a
763269	REC_WORD	wordpools/wasnorm_wordpool.txt	LTP100	ltpFR	15	5	0	MOSQUITO	917	n/a	n/a	0	n/a	n/a	n/a	n/a	n/a
765320	REC_WORD	wordpools/wasnorm_wordpool.txt	LTP100	ltpFR	15	5	0	BEETLE	116	n/a	n/a	0	n/a	n/a	n/a	n/a	n/a
768063	REC_WORD	wordpools/wasnorm_wordpool.txt	LTP100	ltpFR	15	5	0	SPHINX	1349	n/a	n/a	1	n/a	n/a	n/a	n/a	n/a
772703	REC_WORD	wordpools/wasnorm_wordpool.txt	LTP100	ltpFR	15	5	0	LION	827	n/a	n/a	1	n/a	n/a	n/a	n/a	n/a
777148	REC_WORD	wordpools/wasnorm_wordpool.txt	LTP100	ltpFR	15	5	1	BARRACUDA	90	n/a	n/a	1	n/a	n/a	n/a	n/a	n/a
782206	REC_WORD	wordpools/wasnorm_wordpool.txt	LTP100	ltpFR	15	5	1	PORCUPINE	1107	n/a	n/a	1	n/a	n/a	n/a	n/a	n/a
799223	REC_WORD	wordpools/wasnorm_wordpool.txt	LTP100	ltpFR	15	5	1	PASSENGER	1020	n/a	n/a	0	n/a	n/a	n/a	n/a	n/a
857201	WORD	wordpools/wasnorm_wordpool.txt	LTP100	ltpFR	15	6	0	COBBLER	335	n/a	n/a	1	0.57763671875	0.412841796875	1	upper	zerothre.ttf
861350	WORD	wordpools/wasnorm_wordpool.txt	LTP100	ltpFR	15	6	0	STRAWBERRY	1391	n/a	n/a	0	0.57763671875	0.412841796875	1	upper	zerothre.ttf
865233	WORD	wordpools/wasnorm_wordpool.txt	LTP100	ltpFR	15	6	0	GROCERIES	663	n/a	n/a	1	0.57763671875	0.412841796875	1	upper	zerothre.ttf
869433	WORD	wordpools/wasnorm_wordpool.txt	LTP100	ltpFR	15	6	0	MEAL	882	n/a	n/a	0	0.57763671875	0.412841796875	1	upper	zerothre.ttf
873524	WORD	wordpools/wasnorm_wordpool.txt	LTP100	ltpFR	15	6	0	DIAGRAM	456	n/a	n/a	1	0.57763671875	0.412841796875	1	upper	zerothre.ttf
877399	WORD	wordpools/wasnorm_wordpool.txt	LTP100	ltpFR	15	6	0	BUS	201	n/a	n/a	1	0.57763671875	0.412841796875	1	upper	zerothre.ttf
881507	WORD	wordpools/wasnorm_wordpool.txt	LTP100	ltpFR	15	6	0	TORNADO	1485	n/a	n/a	1	0.57763671875	0.412841796875	1	upper	zerothre.ttf
885424	WORD	wordpools/wasnorm_wordpool.txt	LTP100	ltpFR	15	6	0	CUP	424	n/a	n/a	0	0.57763671875	0.412841796875	1	upper	zerothre.ttf
889282	WORD	wordpools/wasnorm_wordpool.txt	LTP100	ltpFR	15	6	0	STAPLE	1371	n/a	n/a	0	0.57763671875	0.412841796875	1	upper	zerothre.ttf
893265	WORD	wordpools/wasnorm_wordpool.txt	LTP100	ltpFR	15	6	0	PUBLICATION	1136	n/a	n/a	0	0.57763671875	0.412841796875	1	upper	zerothre.ttf
897281	WORD	wordpools/wasnorm_wordpool.txt	LTP100	ltpFR	15	6	0	MAMMAL	861	n/a	n/a	1	0.57763671875	0.412841796875	1	upper	zerothre.ttf
901406	WORD	wordpools/wasnorm_wordpool.txt	LTP100	ltpFR	15	6	0	CATCHER	258	n/a	n/a	0	0.57763671875	0.412841796875	1	upper	zerothre.ttf
905590	WORD	wordpools/wasnorm_wordpool.txt	LTP100	ltpFR	15	6	0	PAINTER	1004	n/a	n/a	1	0.57763671875	0.412841796875	1	upper	zerothre.ttf
909422	WORD	wordpools/wasnorm_wordpool.txt	LTP100	ltpFR	15	6	0	TAXI	1438	n/a	n/a	1	0.57763671875	0.412841796875	1	upper	zerothre.ttf
913480	WORD	wordpools/wasnorm_wordpool.txt	LTP100	ltpFR	15	6	0	CAGE	218	n/a	n/a	1	0.57763671875	0.412841796875	1	upper	zerothre.ttf
917296	WORD	wordpools/wasnorm_wordpool.txt	LTP100	ltpFR	15	6	0	BROOM	178	n/a	n/a	1	0.57763671875	0.412841796875	1	upper	zerothre.ttf
922838	REC_START	n/a	LTP100	ltpFR	15	6	n/a	n/a	n/a	n/a	n/a	n/a	n/a	n/a	n/a	n/a	n/a
924778	REC_WORD	wordpools/wasnorm_wordpool.txt	LTP100	ltpFR	15	6	0	CAGE	218	n/a	n/a	1	n/a	n/a	n/a	n/a	n/a
925631	REC_WORD	wordpools/wasnorm_wordpool.txt	LTP100	ltpFR	15	6	0	BROOM	178	n/a	n/a	1	n/a	n/a	n/a	n/a	n/a
926485	REC_WORD	wordpools/wasnorm_wordpool.txt	LTP100	ltpFR	15	6	0	TAXI	1438	n/a	n/a	1	n/a	n/a	n/a	n/a	n/a
927512	REC_WORD	wordpools/wasnorm_wordpool.txt	LTP100	ltpFR	15	6	0	PAINTER	1004	n/a	n/a	1	n/a	n/a	n/a	n/a	n/a
928480	REC_WORD	wordpools/wasnorm_wordpool.txt	LTP100	ltpFR	15	6	0	CATCHER	258	n/a	n/a	0	n/a	n/a	n/a	n/a	n/a
931588	REC_WORD	wordpools/wasnorm_wordpool.txt	LTP100	ltpFR	15	6	0	TAXI	1438	n/a	n/a	1	n/a	n/a	n/a	n/a	n/a
939116	REC_WORD	wordpools/wasnorm_wordpool.txt	LTP100	ltpFR	15	6	0	PUBLICATION	1136	n/a	n/a	0	n/a	n/a	n/a	n/a	n/a
942622	REC_WORD	wordpools/wasnorm_wordpool.txt	LTP100	ltpFR	15	6	0	MOSQUITO	917	n/a	n/a	0	n/a	n/a	n/a	n/a	n/a
950904	REC_WORD	wordpools/wasnorm_wordpool.txt	LTP100	ltpFR	15	6	0	CAGE	218	n/a	n/a	1	n/a	n/a	n/a	n/a	n/a
955349	REC_WORD	wordpools/wasnorm_wordpool.txt	LTP100	ltpFR	15	6	0	CUP	424	n/a	n/a	0	n/a	n/a	n/a	n/a	n/a
962054	REC_WORD	wordpools/wasnorm_wordpool.txt	LTP100	ltpFR	15	6	n/a	NAPKIN	937	n/a	n/a	n/a	n/a	n/a	n/a	n/a	n/a
972709	REC_WORD	wordpools/wasnorm_wordpool.txt	LTP100	ltpFR	15	6	0	MAMMAL	861	n/a	n/a	1	n/a	n/a	n/a	n/a	n/a
983809	REC_WORD	wordpools/wasnorm_wordpool.txt	LTP100	ltpFR	15	6	1	POPE	1105	n/a	n/a	1	n/a	n/a	n/a	n/a	n/a
994450	REC_WORD	wordpools/wasnorm_wordpool.txt	LTP100	ltpFR	15	6	0	BROOM	178	n/a	n/a	1	n/a	n/a	n/a	n/a	n/a
1008540	WORD	wordpools/wasnorm_wordpool.txt	LTP100	ltpFR	15	7	1	SKILLET	1317	n/a	n/a	0	0.422607421875	0.5869140625	0	lower	amplitud.ttf
1012681	WORD	wordpools/wasnorm_wordpool.txt	LTP100	ltpFR	15	7	1	GREASE	660	n/a	n/a	0	0.422607421875	0.5869140625	0	lower	amplitud.ttf
1016748	WORD	wordpools/wasnorm_wordpool.txt	LTP100	ltpFR	15	7	1	DUCK	504	n/a	n/a	1	0.422607421875	0.5869140625	0	lower	amplitud.ttf
1020830	WORD	wordpools/wasnorm_wordpool.txt	LTP100	ltpFR	15	7	0	SWAMP	1416	n/a	n/a	1	0.57763671875	0.412841796875	1	upper	zerothre.ttf
1024879	WORD	wordpools/wasnorm_wordpool.txt	LTP100	ltpFR	15	7	0	CHICK	296	n/a	n/a	0	0.57763671875	0.412841796875	1	upper	zerothre.ttf
1028755	WORD	wordpools/wasnorm_wordpool.txt	LTP100	ltpFR	15	7	0	MALL	860	n/a	n/a	1	0.57763671875	0.412841796875	1	upper	zerothre.ttf
1032937	WORD	wordpools/wasnorm_wordpool.txt	LTP100	ltpFR	15	7	0	CAPTIVE	240	n/a	n/a	1	0.57763671875	0.412841796875	1	upper	zerothre.ttf
1036779	WORD	wordpools/wasnorm_wordpool.txt	LTP100	ltpFR	15	7	0	SCREEN	1253	n/a	n/a	1	0.57763671875	0.412841796875	1	upper	zerothre.ttf
1040704	WORD	wordpools/wasnorm_wordpool.txt	LTP100	ltpFR	15	7	0	PLAZA	1088	n/a	n/a	1	0.57763671875	0.412841796875	1	upper	zerothre.ttf
1044571	WORD	wordpools/wasnorm_wordpool.txt	LTP100	ltpFR	15	7	1	JET	756	n/a	n/a	0	0.422607421875	0.5869140625	0	lower	amplitud.ttf
1048461	WORD	wordpools/wasnorm_wordpool.txt	LTP100	ltpFR	15	7	1	PLANE	1081	n/a	n/a	0	0.422607421875	0.5869140625	0	lower	amplitud.ttf
1052302	WORD	wordpools/wasnorm_wordpool.txt	LTP100	ltpFR	15	7	0	SHARK	1275	n/a	n/a	1	0.57763671875	0.412841796875	1	upper	zerothre.ttf
1056302	WORD	wordpools/wasnorm_wordpool.txt	LTP100	ltpFR	15	7	0	RULER	1216	n/a	n/a	0	0.57763671875	0.412841796875	1	upper	zerothre.ttf
1060135	WORD	wordpools/wasnorm_wordpool.txt	LTP100	ltpFR	15	7	1	CROWN	415	n/a	n/a	0	0.422607421875	0.5869140625	0	lower	amplitud.ttf
1064343	WORD	wordpools/wasnorm_wordpool.txt	LTP100	ltpFR	15	7	1	PARCEL	1012	n/a	n/a	0	0.422607421875	0.5869140625	0	lower	amplitud.ttf
1068251	WORD	wordpools/wasnorm_wordpool.txt	LTP100	ltpFR	15	7	1	CHIMPANZEE	302	n/a	n/a	1	0.422607421875	0.5869140625	0	lower	amplitud.ttf
1073976	REC_START	n/a	LTP100	ltpFR	15	7	n/a	n/a	n/a	n/a	n/a	n/a	n/a	n/a	n/a	n/a	n/a
1075398	REC_WORD	wordpools/wasnorm_wordpool.txt	LTP100	ltpFR	15	7	1	CROWN	415	n/a	n/a	0	n/a	n/a	n/a	n/a	n/a
1076306	REC_WORD	wordpools/wasnorm_wordpool.txt	LTP100	ltpFR	15	7	1	PARCEL	1012	n/a	n/a	0	n/a	n/a	n/a	n/a	n/a
1077139	REC_WORD	wordpools/wasnorm_wordpool.txt	LTP100	ltpFR	15	7	1	CHIMPANZEE	302	n/a	n/a	1	n/a	n/a	n/a	n/a	n/a
1079164	REC_WORD	wordpools/wasnorm_wordpool.txt	LTP100	ltpFR	15	7	0	SHARK	1275	n/a	n/a	1	n/a	n/a	n/a	n/a	n/a
1080022	REC_WORD	wordpools/wasnorm_wordpool.txt	LTP100	ltpFR	15	7	0	RULER	1216	n/a	n/a	0	n/a	n/a	n/a	n/a	n/a
1081125	REC_WORD	wordpools/wasnorm_wordpool.txt	LTP100	ltpFR	15	7	1	JET	756	n/a	n/a	0	n/a	n/a	n/a	n/a	n/a
1082267	REC_WORD	wordpools/wasnorm_wordpool.txt	LTP100	ltpFR	15	7	1	PLANE	1081	n/a	n/a	0	n/a	n/a	n/a	n/a	n/a
1085514	REC_WORD	wordpools/wasnorm_wordpool.txt	LTP100	ltpFR	15	7	0	CUP	424	n/a	n/a	0	n/a	n/a	n/a	n/a	n/a
1091381	REC_WORD	wordpools/wasnorm_wordpool.txt	LTP100	ltpFR	15	7	0	CAPTIVE	240	n/a	n/a	1	n/a	n/a	n/a	n/a	n/a
1098954	REC_WORD	wordpools/wasnorm_wordpool.txt	LTP100	ltpFR	15	7	n/a	JUNGLE	764	n/a	n/a	n/a	n/a	n/a	n/a	n/a	n/a
1117003	REC_WORD	wordpools/wasnorm_wordpool.txt	LTP100	ltpFR	15	7	1	JET	756	n/a	n/a	0	n/a	n/a	n/a	n/a	n/a
1129455	REC_WORD	wordpools/wasnorm_wordpool.txt	LTP100	ltpFR	15	7	n/a	SHOP	1290	n/a	n/a	n/a	n/a	n/a	n/a	n/a	n/a
1165085	WORD	wordpools/wasnorm_wordpool.txt	LTP100	ltpFR	15	8	-1	TURTLE	1522	n/a	n/a	-1	1.0	1.0	1	upper	Verdana.ttf
1168993	WORD	wordpools/wasnorm_wordpool.txt	LTP100	ltpFR	15	8	-1	TREAD	1499	n/a	n/a	-1	1.0	1.0	1	upper	Verdana.ttf
1172959	WORD	wordpools/wasnorm_wordpool.txt	LTP100	ltpFR	15	8	-1	CANVAS	234	n/a	n/a	-1	1.0	1.0	1	upper	Verdana.ttf
1176909	WORD	wordpools/wasnorm_wordpool.txt	LTP100	ltpFR	15	8	-1	DAM	436	n/a	n/a	-1	1.0	1.0	1	upper	Verdana.ttf
1180901	WORD	wordpools/wasnorm_wordpool.txt	LTP100	ltpFR	15	8	-1	BRIDGE	174	n/a	n/a	-1	1.0	1.0	1	upper	Verdana.ttf
1185100	WORD	wordpools/wasnorm_wordpool.txt	LTP100	ltpFR	15	8	-1	OATS	968	n/a	n/a	-1	1.0	1.0	1	upper	Verdana.ttf
1189258	WORD	wordpools/wasnorm_wordpool.txt	LTP100	ltpFR	15	8	-1	COWBOY	395	n/a	n/a	-1	1.0	1.0	1	upper	Verdana.ttf
1193358	WORD	wordpools/wasnorm_wordpool.txt	LTP100	ltpFR	15	8	-1	GORILLA	650	n/a	n/a	-1	1.0	1.0	1	upper	Verdana.ttf
1197358	WORD	wordpools/wasnorm_wordpool.txt	LTP100	ltpFR	15	8	-1	KEG	770	n/a	n/a	-1	1.0	1.0	1	upper	Verdana.ttf
1201391	WORD	wordpools/wasnorm_wordpool.txt	LTP100	ltpFR	15	8	-1	PATRIOT	1026	n/a	n/a	-1	1.0	1.0	1	upper	Verdana.ttf
1205299	WORD	wordpools/wasnorm_wordpool.txt	LTP100	ltpFR	15	8	-1	ARENA	37	n/a	n/a	-1	1.0	1.0	1	upper	Verdana.ttf
1209465	WORD	wordpools/wasnorm_wordpool.txt	LTP100	ltpFR	15	8	-1	JEWEL	757	n/a	n/a	-1	1.0	1.0	1	upper	Verdana.ttf
1213616	WORD	wordpools/wasnorm_wordpool.txt	LTP100	ltpFR	15	8	-1	ARTIST	43	n/a	n/a	-1	1.0	1.0	1	upper	Verdana.ttf
1217464	WORD	wordpools/wasnorm_wordpool.txt	LTP100	ltpFR	15	8	-1	TORTOISE	1486	n/a	n/a	-1	1.0	1.0	1	upper	Verdana.ttf
1221540	WORD	wordpools/wasnorm_wordpool.txt	LTP100	ltpFR	15	8	-1	KIDNEY	776	n/a	n/a	-1	1.0	1.0	1	upper	Verdana.ttf
1225389	WORD	wordpools/wasnorm_wordpool.txt	LTP100	ltpFR	15	8	-1	GRASS	655	n/a	n/a	-1	1.0	1.0	1	upper	Verdana.ttf
1231064	REC_START	n/a	LTP100	ltpFR	15	8	n/a	n/a	n/a	n/a	n/a	n/a	n/a	n/a	n/a	n/a	n/a
1232011	REC_WORD	wordpools/wasnorm_wordpool.txt	LTP100	ltpFR	15	8	-1	TORTOISE	1486	n/a	n/a	-1	n/a	n/a	n/a	n/a	n/a
1234112	REC_WORD	wordpools/wasnorm_wordpool.txt	LTP100	ltpFR	15	8	-1	KIDNEY	776	n/a	n/a	-1	n/a	n/a	n/a	n/a	n/a
1234840	REC_WORD	wordpools/wasnorm_wordpool.txt	LTP100	ltpFR	15	8	-1	GRASS	655	n/a	n/a	-1	n/a	n/a	n/a	n/a	n/a
1238552	REC_WORD	wordpools/wasnorm_wordpool.txt	LTP100	ltpFR	15	8	-1	JEWEL	757	n/a	n/a	-1	n/a	n/a	n/a	n/a	n/a
1240058	REC_WORD	wordpools/wasnorm_wordpool.txt	LTP100	ltpFR	15	8	-1	ARTIST	43	n/a	n/a	-1	n/a	n/a	n/a	n/a	n/a
1242877	REC_WORD	wordpools/wasnorm_wordpool.txt	LTP100	ltpFR	15	8	-1	TURTLE	1522	n/a	n/a	-1	n/a	n/a	n/a	n/a	n/a
1248474	REC_WORD	wordpools/wasnorm_wordpool.txt	LTP100	ltpFR	15	8	-1	CANVAS	234	n/a	n/a	-1	n/a	n/a	n/a	n/a	n/a
1263236	REC_WORD	wordpools/wasnorm_wordpool.txt	LTP100	ltpFR	15	8	n/a	MUD	-1	n/a	n/a	n/a	n/a	n/a	n/a	n/a	n/a
1266079	REC_WORD	wordpools/wasnorm_wordpool.txt	LTP100	ltpFR	15	8	-1	KEG	770	n/a	n/a	-1	n/a	n/a	n/a	n/a	n/a
1267097	REC_WORD	wordpools/wasnorm_wordpool.txt	LTP100	ltpFR	15	8	-1	PATRIOT	1026	n/a	n/a	-1	n/a	n/a	n/a	n/a	n/a
1271916	REC_WORD	wordpools/wasnorm_wordpool.txt	LTP100	ltpFR	15	8	-1	GRASS	655	n/a	n/a	-1	n/a	n/a	n/a	n/a	n/a
1295383	REC_WORD	wordpools/wasnorm_wordpool.txt	LTP100	ltpFR	15	8	0	ARTERY	41	n/a	n/a	0	n/a	n/a	n/a	n/a	n/a
1316932	WORD	wordpools/wasnorm_wordpool.txt	LTP100	ltpFR	15	9	-1	GANGSTER	620	n/a	n/a	-1	1.0	1.0	1	upper	Verdana.ttf
1320973	WORD	wordpools/wasnorm_wordpool.txt	LTP100	ltpFR	15	9	-1	OUTLAW	989	n/a	n/a	-1	1.0	1.0	1	upper	Verdana.ttf
1324981	WORD	wordpools/wasnorm_wordpool.txt	LTP100	ltpFR	15	9	-1	CLAMP	316	n/a	n/a	-1	1.0	1.0	1	upper	Verdana.ttf
1328889	WORD	wordpools/wasnorm_wordpool.txt	LTP100	ltpFR	15	9	-1	KNOT	788	n/a	n/a	-1	1.0	1.0	1	upper	Verdana.ttf
1332806	WORD	wordpools/wasnorm_wordpool.txt	LTP100	ltpFR	15	9	-1	PILLOW	1069	n/a	n/a	-1	1.0	1.0	1	upper	Verdana.ttf
1336947	WORD	wordpools/wasnorm_wordpool.txt	LTP100	ltpFR	15	9	-1	BATTERY	101	n/a	n/a	-1	1.0	1.0	1	upper	Verdana.ttf
1341138	WORD	wordpools/wasnorm_wordpool.txt	LTP100	ltpFR	15	9	-1	FLAG	573	n/a	n/a	-1	1.0	1.0	1	upper	Verdana.ttf
1345346	WORD	wordpools/wasnorm_wordpool.txt	LTP100	ltpFR	15	9	-1	COLUMN	350	n/a	n/a	-1	1.0	1.0	1	upper	Verdana.ttf
1349212	WORD	wordpools/wasnorm_wordpool.txt	LTP100	ltpFR	15	9	-1	NEWSPAPER	948	n/a	n/a	-1	1.0	1.0	1	upper	Verdana.ttf
1353120	WORD	wordpools/wasnorm_wordpool.txt	LTP100	ltpFR	15	9	-1	CERAMICS	271	n/a	n/a	-1	1.0	1.0	1	upper	Verdana.ttf
1357287	WORD	wordpools/wasnorm_wordpool.txt	LTP100	ltpFR	15	9	-1	TILE	1468	n/a	n/a	-1	1.0	1.0	1	upper	Verdana.ttf
1361420	WORD	wordpools/wasnorm_wordpool.txt	LTP100	ltpFR	15	9	-1	VAN	1548	n/a	n/a	-1	1.0	1.0	1	upper	Verdana.ttf
1365629	WORD	wordpools/wasnorm_wordpool.txt	LTP100	ltpFR	15	9	-1	LIP	828	n/a	n/a	-1	1.0	1.0	1	upper	Verdana.ttf
1369819	WORD	wordpools/wasnorm_wordpool.txt	LTP100	ltpFR	15	9	-1	LITTER	832	n/a	n/a	-1	1.0	1.0	1	upper	Verdana.ttf
1373678	WORD	wordpools/wasnorm_wordpool.txt	LTP100	ltpFR	15	9	-1	BLANKET	135	n/a	n/a	-1	1.0	1.0	1	upper	Verdana.ttf
1377653	WORD	wordpools/wasnorm_wordpool.txt	LTP100	ltpFR	15	9	-1	WAIST	1579	n/a	n/a	-1	1.0	1.0	1	upper	Verdana.ttf
1383562	REC_START	n/a	LTP100	ltpFR	15	9	n/a	n/a	n/a	n/a	n/a	n/a	n/a	n/a	n/a	n/a	n/a
1386680	REC_WORD	wordpools/wasnorm_wordpool.txt	LTP100	ltpFR	15	9	-1	WAIST	1579	n/a	n/a	-1	n/a	n/a	n/a	n/a	n/a
1387817	REC_WORD	wordpools/wasnorm_wordpool.txt	LTP100	ltpFR	15	9	1	WATER	1594	n/a	n/a	0	n/a	n/a	n/a	n/a	n/a
1394247	REC_WORD	wordpools/wasnorm_wordpool.txt	LTP100	ltpFR	15	9	-1	PILLOW	1069	n/a	n/a	-1	n/a	n/a	n/a	n/a	n/a
1396247	REC_WORD	wordpools/wasnorm_wordpool.txt	LTP100	ltpFR	15	9	-1	FLAG	573	n/a	n/a	-1	n/a	n/a	n/a	n/a	n/a
1400758	REC_WORD	wordpools/wasnorm_wordpool.txt	LTP100	ltpFR	15	9	-1	BLANKET	135	n/a	n/a	-1	n/a	n/a	n/a	n/a	n/a
1407647	REC_WORD	wordpools/wasnorm_wordpool.txt	LTP100	ltpFR	15	9	-1	KIDNEY	776	n/a	n/a	-1	n/a	n/a	n/a	n/a	n/a
1462563	WORD	wordpools/wasnorm_wordpool.txt	LTP100	ltpFR	15	10	1	FRIEND	606	n/a	n/a	1	0.422607421875	0.5869140625	0	lower	amplitud.ttf
1466713	WORD	wordpools/wasnorm_wordpool.txt	LTP100	ltpFR	15	10	1	LOVER	846	n/a	n/a	1	0.422607421875	0.5869140625	0	lower	amplitud.ttf
1470895	WORD	wordpools/wasnorm_wordpool.txt	LTP100	ltpFR	15	10	1	STAR	1373	n/a	n/a	0	0.422607421875	0.5869140625	0	lower	amplitud.ttf
1475069	WORD	wordpools/wasnorm_wordpool.txt	LTP100	ltpFR	15	10	1	MICROSCOPE	891	n/a	n/a	0	0.422607421875	0.5869140625	0	lower	amplitud.ttf
1479061	WORD	wordpools/wasnorm_wordpool.txt	LTP100	ltpFR	15	10	1	GRASSHOPPER	656	n/a	n/a	1	0.422607421875	0.5869140625	0	lower	amplitud.ttf
1483119	WORD	wordpools/wasnorm_wordpool.txt	LTP100	ltpFR	15	10	1	TUSK	1523	n/a	n/a	0	0.422607421875	0.5869140625	0	lower	amplitud.ttf
1486960	WORD	wordpools/wasnorm_wordpool.txt	LTP100	ltpFR	15	10	1	LIMOUSINE	824	n/a	n/a	0	0.422607421875	0.5869140625	0	lower	amplitud.ttf
1490811	WORD	wordpools/wasnorm_wordpool.txt	LTP100	ltpFR	15	10	1	BOAT	144	n/a	n/a	0	0.422607421875	0.5869140625	0	lower	amplitud.ttf
1494851	WORD	wordpools/wasnorm_wordpool.txt	LTP100	ltpFR	15	10	1	SMOG	1330	n/a	n/a	0	0.422607421875	0.5869140625	0	lower	amplitud.ttf
1498951	WORD	wordpools/wasnorm_wordpool.txt	LTP100	ltpFR	15	10	1	ELBOW	520	n/a	n/a	0	0.422607421875	0.5869140625	0	lower	amplitud.ttf
1502826	WORD	wordpools/wasnorm_wordpool.txt	LTP100	ltpFR	15	10	1	OWNER	993	n/a	n/a	0	0.422607421875	0.5869140625	0	lower	amplitud.ttf
1506975	WORD	wordpools/wasnorm_wordpool.txt	LTP100	ltpFR	15	10	1	MOTH	920	n/a	n/a	0	0.422607421875	0.5869140625	0	lower	amplitud.ttf
1510933	WORD	wordpools/wasnorm_wordpool.txt	LTP100	ltpFR	15	10	1	CREW	406	n/a	n/a	1	0.422607421875	0.5869140625	0	lower	amplitud.ttf
1515008	WORD	wordpools/wasnorm_wordpool.txt	LTP100	ltpFR	15	10	1	COUNTY	389	n/a	n/a	0	0.422607421875	0.5869140625	0	lower	amplitud.ttf
1519199	WORD	wordpools/wasnorm_wordpool.txt	LTP100	ltpFR	15	10	1	RAKE	1164	n/a	n/a	0	0.422607421875	0.5869140625	0	lower	amplitud.ttf
1523282	WORD	wordpools/wasnorm_wordpool.txt	LTP100	ltpFR	15	10	1	DIGGER	464	n/a	n/a	0	0.422607421875	0.5869140625	0	lower	amplitud.ttf
1529091	REC_START	n/a	LTP100	ltpFR	15	10	n/a	n/a	n/a	n/a	n/a	n/a	n/a	n/a	n/a	n/a	n/a
1530403	REC_WORD	wordpools/wasnorm_wordpool.txt	LTP100	ltpFR	15	10	1	COUNTY	389	n/a	n/a	0	n/a	n/a	n/a	n/a	n/a
1531266	REC_WORD	wordpools/wasnorm_wordpool.txt	LTP100	ltpFR	15	10	1	RAKE	1164	n/a	n/a	0	n/a	n/a	n/a	n/a	n/a
1532234	REC_WORD	wordpools/wasnorm_wordpool.txt	LTP100	ltpFR	15	10	1	DIGGER	464	n/a	n/a	0	n/a	n/a	n/a	n/a	n/a
1535102	REC_WORD	wordpools/wasnorm_wordpool.txt	LTP100	ltpFR	15	10	1	FRIEND	606	n/a	n/a	1	n/a	n/a	n/a	n/a	n/a
1536100	REC_WORD	wordpools/wasnorm_wordpool.txt	LTP100	ltpFR	15	10	1	LOVER	846	n/a	n/a	1	n/a	n/a	n/a	n/a	n/a
1537058	REC_WORD	wordpools/wasnorm_wordpool.txt	LTP100	ltpFR	15	10	1	LIMOUSINE	824	n/a	n/a	0	n/a	n/a	n/a	n/a	n/a
1539811	REC_WORD	wordpools/wasnorm_wordpool.txt	LTP100	ltpFR	15	10	1	ELBOW	520	n/a	n/a	0	n/a	n/a	n/a	n/a	n/a
1561492	REC_WORD	wordpools/wasnorm_wordpool.txt	LTP100	ltpFR	15	10	-1	TURTLE	1522	n/a	n/a	-1	n/a	n/a	n/a	n/a	n/a
1566361	REC_WORD	wordpools/wasnorm_wordpool.txt	LTP100	ltpFR	15	10	1	CREW	406	n/a	n/a	1	n/a	n/a	n/a	n/a	n/a
1570078	REC_WORD	wordpools/wasnorm_wordpool.txt	LTP100	ltpFR	15	10	1	DIGGER	464	n/a	n/a	0	n/a	n/a	n/a	n/a	n/a
1586545	REC_WORD	wordpools/wasnorm_wordpool.txt	LTP100	ltpFR	15	10	n/a	FLIGHT	-1	n/a	n/a	n/a	n/a	n/a	n/a	n/a	n/a
1593639	REC_WORD	wordpools/wasnorm_wordpool.txt	LTP100	ltpFR	15	10	n/a	KEEPER	769	n/a	n/a	n/a	n/a	n/a	n/a	n/a	n/a
1619925	WORD	wordpools/wasnorm_wordpool.txt	LTP100	ltpFR	15	11	0	GUARD	667	n/a	n/a	1	0.57763671875	0.412841796875	1	upper	zerothre.ttf
1623841	WORD	wordpools/wasnorm_wordpool.txt	LTP100	ltpFR	15	11	0	OFFICER	973	n/a	n/a	1	0.57763671875	0.412841796875	1	upper	zerothre.ttf
1627874	WORD	wordpools/wasnorm_wordpool.txt	LTP100	ltpFR	15	11	0	VEHICLE	1553	n/a	n/a	1	0.57763671875	0.412841796875	1	upper	zerothre.ttf
1631750	WORD	wordpools/wasnorm_wordpool.txt	LTP100	ltpFR	15	11	0	CHECKERS	285	n/a	n/a	1	0.57763671875	0.412841796875	1	upper	zerothre.ttf
1635800	WORD	wordpools/wasnorm_wordpool.txt	LTP100	ltpFR	15	11	0	PRESIDENT	1121	n/a	n/a	1	0.57763671875	0.412841796875	1	upper	zerothre.ttf
1639658	WORD	wordpools/wasnorm_wordpool.txt	LTP100	ltpFR	15	11	0	HAMBURGER	679	n/a	n/a	0	0.57763671875	0.412841796875	1	upper	zerothre.ttf
1643782	WORD	wordpools/wasnorm_wordpool.txt	LTP100	ltpFR	15	11	0	LAVA	804	n/a	n/a	1	0.57763671875	0.412841796875	1	upper	zerothre.ttf
1647757	WORD	wordpools/wasnorm_wordpool.txt	LTP100	ltpFR	15	11	0	CARAVAN	242	n/a	n/a	1	0.57763671875	0.412841796875	1	upper	zerothre.ttf
1651623	WORD	wordpools/wasnorm_wordpool.txt	LTP100	ltpFR	15	11	0	FEAST	556	n/a	n/a	1	0.57763671875	0.412841796875	1	upper	zerothre.ttf
1655681	WORD	wordpools/wasnorm_wordpool.txt	LTP100	ltpFR	15	11	0	BANQUET	86	n/a	n/a	1	0.57763671875	0.412841796875	1	upper	zerothre.ttf
1659880	WORD	wordpools/wasnorm_wordpool.txt	LTP100	ltpFR	15	11	0	SENATOR	1268	n/a	n/a	1	0.57763671875	0.412841796875	1	upper	zerothre.ttf
1664080	WORD	wordpools/wasnorm_wordpool.txt	LTP100	ltpFR	15	11	0	BREAD	170	n/a	n/a	0	0.57763671875	0.412841796875	1	upper	zerothre.ttf
1667938	WORD	wordpools/wasnorm_wordpool.txt	LTP100	ltpFR	15	11	0	ROBBER	1197	n/a	n/a	1	0.57763671875	0.412841796875	1	upper	zerothre.ttf
1671846	WORD	wordpools/wasnorm_wordpool.txt	LTP100	ltpFR	15	11	0	SOAP	1337	n/a	n/a	0	0.57763671875	0.412841796875	1	upper	zerothre.ttf
1675870	WORD	wordpools/wasnorm_wordpool.txt	LTP100	ltpFR	15	11	0	WHIP	1604	n/a	n/a	1	0.57763671875	0.412841796875	1	upper	zerothre.ttf
1679928	WORD	wordpools/wasnorm_wordpool.txt	LTP100	ltpFR	15	11	0	TAG	1429	n/a	n/a	0	0.57763671875	0.412841796875	1	upper	zerothre.ttf
1685813	REC_START	n/a	LTP100	ltpFR	15	11	n/a	n/a	n/a	n/a	n/a	n/a	n/a	n/a	n/a	n/a	n/a
1687284	REC_WORD	wordpools/wasnorm_wordpool.txt	LTP100	ltpFR	15	11	0	TAG	1429	n/a	n/a	0	n/a	n/a	n/a	n/a	n/a
1690318	REC_WORD	wordpools/wasnorm_wordpool.txt	LTP100	ltpFR	15	11	0	BANQUET	86	n/a	n/a	1	n/a	n/a	n/a	n/a	n/a
1690926	REC_WORD	wordpools/wasnorm_wordpool.txt	LTP100	ltpFR	15	11	0	PRESIDENT	1121	n/a	n/a	1	n/a	n/a	n/a	n/a	n/a
1691615	REC_WORD	wordpools/wasnorm_wordpool.txt	LTP100	ltpFR	15	11	0	SENATOR	1268	n/a	n/a	1	n/a	n/a	n/a	n/a	n/a
1694219	REC_WORD	wordpools/wasnorm_wordpool.txt	LTP100	ltpFR	15	11	0	OFFICER	973	n/a	n/a	1	n/a	n/a	n/a	n/a	n/a
1701562	REC_WORD	wordpools/wasnorm_wordpool.txt	LTP100	ltpFR	15	11	0	BREAD	170	n/a	n/a	0	n/a	n/a	n/a	n/a	n/a
1702619	REC_WORD	wordpools/wasnorm_wordpool.txt	LTP100	ltpFR	15	11	0	FEAST	556	n/a	n/a	1	n/a	n/a	n/a	n/a	n/a
1706610	REC_WORD	wordpools/wasnorm_wordpool.txt	LTP100	ltpFR	15	11	0	MOSQUITO	917	n/a	n/a	0	n/a	n/a	n/a	n/a	n/a
1714453	REC_WORD	wordpools/wasnorm_wordpool.txt	LTP100	ltpFR	15	11	0	HAMBURGER	679	n/a	n/a	0	n/a	n/a	n/a	n/a	n/a
1720958	REC_WORD	wordpools/wasnorm_wordpool.txt	LTP100	ltpFR	15	11	0	CARAVAN	242	n/a	n/a	1	n/a	n/a	n/a	n/a	n/a
1736418	REC_WORD	wordpools/wasnorm_wordpool.txt	LTP100	ltpFR	15	11	0	TAG	1429	n/a	n/a	0	n/a	n/a	n/a	n/a	n/a
1749069	REC_WORD	wordpools/wasnorm_wordpool.txt	LTP100	ltpFR	15	11	1	BOAT	144	n/a	n/a	0	n/a	n/a	n/a	n/a	n/a
1755340	REC_WORD	wordpools/wasnorm_wordpool.txt	LTP100	ltpFR	15	11	0	PRESIDENT	1121	n/a	n/a	1	n/a	n/a	n/a	n/a	n/a
1777129	WORD	wordpools/wasnorm_wordpool.txt	LTP100	ltpFR	15	12	1	SURGEON	1413	n/a	n/a	1	0.422607421875	0.5869140625	0	lower	amplitud.ttf
1781096	WORD	wordpools/wasnorm_wordpool.txt	LTP100	ltpFR	15	12	1	LAWN	805	n/a	n/a	0	0.422607421875	0.5869140625	0	lower	amplitud.ttf
1785237	WORD	wordpools/wasnorm_wordpool.txt	LTP100	ltpFR	15	12	1	SHELL	1281	n/a	n/a	1	0.422607421875	0.5869140625	0	lower	amplitud.ttf
1789070	WORD	wordpools/wasnorm_wordpool.txt	LTP100	ltpFR	15	12	1	CLAM	315	n/a	n/a	0	0.422607421875	0.5869140625	0	lower	amplitud.ttf
1792928	WORD	wordpools/wasnorm_wordpool.txt	LTP100	ltpFR	15	12	0	SAUCER	1237	n/a	n/a	1	0.57763671875	0.412841796875	1	upper	zerothre.ttf
1797036	WORD	wordpools/wasnorm_wordpool.txt	LTP100	ltpFR	15	12	0	ROAD	1196	n/a	n/a	1	0.57763671875	0.412841796875	1	upper	zerothre.ttf
1801219	WORD	wordpools/wasnorm_wordpool.txt	LTP100	ltpFR	15	12	0	SKULL	1320	n/a	n/a	1	0.57763671875	0.412841796875	1	upper	zerothre.ttf
1805077	WORD	wordpools/wasnorm_wordpool.txt	LTP100	ltpFR	15	12	0	SERGEANT	1269	n/a	n/a	1	0.57763671875	0.412841796875	1	upper	zerothre.ttf
1808977	WORD	wordpools/wasnorm_wordpool.txt	LTP100	ltpFR	15	12	1	SUBWAY	1400	n/a	n/a	0	0.422607421875	0.5869140625	0	lower	amplitud.ttf
1813110	WORD	wordpools/wasnorm_wordpool.txt	LTP100	ltpFR	15	12	1	CRAB	397	n/a	n/a	1	0.422607421875	0.5869140625	0	lower	amplitud.ttf
1817068	WORD	wordpools/wasnorm_wordpool.txt	LTP100	ltpFR	15	12	1	LIEUTENANT	818	n/a	n/a	0	0.422607421875	0.5869140625	0	lower	amplitud.ttf
1821009	WORD	wordpools/wasnorm_wordpool.txt	LTP100	ltpFR	15	12	1	FOOTBALL	591	n/a	n/a	0	0.422607421875	0.5869140625	0	lower	amplitud.ttf
1825126	WORD	wordpools/wasnorm_wordpool.txt	LTP100	ltpFR	15	12	0	BASEBALL	93	n/a	n/a	0	0.57763671875	0.412841796875	1	upper	zerothre.ttf
1829334	WORD	wordpools/wasnorm_wordpool.txt	LTP100	ltpFR	15	12	0	FREEWAY	603	n/a	n/a	1	0.57763671875	0.412841796875	1	upper	zerothre.ttf
1833517	WORD	wordpools/wasnorm_wordpool.txt	LTP100	ltpFR	15	12	0	STRAW	1390	n/a	n/a	0	0.57763671875	0.412841796875	1	upper	zerothre.ttf
1837483	WORD	wordpools/wasnorm_wordpool.txt	LTP100	ltpFR	15	12	0	DANCER	437	n/a	n/a	1	0.57763671875	0.412841796875	1	upper	zerothre.ttf
1843325	REC_START	n/a	LTP100	ltpFR	15	12	n/a	n/a	n/a	n/a	n/a	n/a	n/a	n/a	n/a	n/a	n/a
1844702	REC_WORD	wordpools/wasnorm_wordpool.txt	LTP100	ltpFR	15	12	0	STRAW	1390	n/a	n/a	0	n/a	n/a	n/a	n/a	n/a
1845984	REC_WORD	wordpools/wasnorm_wordpool.txt	LTP100	ltpFR	15	12	0	DANCER	437	n/a	n/a	1	n/a	n/a	n/a	n/a	n/a
1846941	REC_WORD	wordpools/wasnorm_wordpool.txt	LTP100	ltpFR	15	12	1	FOOTBALL	591	n/a	n/a	0	n/a	n/a	n/a	n/a	n/a
1847989	REC_WORD	wordpools/wasnorm_wordpool.txt	LTP100	ltpFR	15	12	0	BASEBALL	93	n/a	n/a	0	n/a	n/a	n/a	n/a	n/a
1848807	REC_WORD	wordpools/wasnorm_wordpool.txt	LTP100	ltpFR	15	12	0	FREEWAY	603	n/a	n/a	1	n/a	n/a	n/a	n/a	n/a
1850154	REC_WORD	wordpools/wasnorm_wordpool.txt	LTP100	ltpFR	15	12	0	ROAD	1196	n/a	n/a	1	n/a	n/a	n/a	n/a	n/a
1853038	REC_WORD	wordpools/wasnorm_wordpool.txt	LTP100	ltpFR	15	12	1	LIEUTENANT	818	n/a	n/a	0	n/a	n/a	n/a	n/a	n/a
1854305	REC_WORD	wordpools/wasnorm_wordpool.txt	LTP100	ltpFR	15	12	1	CLAM	315	n/a	n/a	0	n/a	n/a	n/a	n/a	n/a
1856006	REC_WORD	wordpools/wasnorm_wordpool.txt	LTP100	ltpFR	15	12	1	CRAB	397	n/a	n/a	1	n/a	n/a	n/a	n/a	n/a
1857188	REC_WORD	wordpools/wasnorm_wordpool.txt	LTP100	ltpFR	15	12	1	SHELL	1281	n/a	n/a	1	n/a	n/a	n/a	n/a	n/a
1871596	REC_WORD	wordpools/wasnorm_wordpool.txt	LTP100	ltpFR	15	12	1	SUBWAY	1400	n/a	n/a	0	n/a	n/a	n/a	n/a	n/a
1884426	REC_WORD	wordpools/wasnorm_wordpool.txt	LTP100	ltpFR	15	12	-1	LIP	828	n/a	n/a	-1	n/a	n/a	n/a	n/a	n/a
1891800	REC_WORD	wordpools/wasnorm_wordpool.txt	LTP100	ltpFR	15	12	0	HAMBURGER	679	n/a	n/a	0	n/a	n/a	n/a	n/a	n/a
1912478	REC_WORD	wordpools/wasnorm_wordpool.txt	LTP100	ltpFR	15	12	0	STAPLE	1371	n/a	n/a	0	n/a	n/a	n/a	n/a	n/a
1918943	REST_REWET	n/a	LTP100	ltpFR	15	12	n/a	n/a	n/a	n/a	n/a	n/a	n/a	n/a	n/a	n/a	n/a
2356685	WORD	wordpools/wasnorm_wordpool.txt	LTP100	ltpFR	15	13	0	TUNA	1518	n/a	n/a	0	0.57763671875	0.412841796875	1	upper	zerothre.ttf
2360618	WORD	wordpools/wasnorm_wordpool.txt	LTP100	ltpFR	15	13	0	WAREHOUSE	1588	n/a	n/a	1	0.57763671875	0.412841796875	1	upper	zerothre.ttf
2364601	WORD	wordpools/wasnorm_wordpool.txt	LTP100	ltpFR	15	13	0	TERMITE	1451	n/a	n/a	0	0.57763671875	0.412841796875	1	upper	zerothre.ttf
2368768	WORD	wordpools/wasnorm_wordpool.txt	LTP100	ltpFR	15	13	0	BUG	187	n/a	n/a	0	0.57763671875	0.412841796875	1	upper	zerothre.ttf
2372975	WORD	wordpools/wasnorm_wordpool.txt	LTP100	ltpFR	15	13	0	ITEM	746	n/a	n/a	0	0.57763671875	0.412841796875	1	upper	zerothre.ttf
2377041	WORD	wordpools/wasnorm_wordpool.txt	LTP100	ltpFR	15	13	0	CUSTOMER	430	n/a	n/a	1	0.57763671875	0.412841796875	1	upper	zerothre.ttf
2380957	WORD	wordpools/wasnorm_wordpool.txt	LTP100	ltpFR	15	13	0	SWIMMER	1420	n/a	n/a	1	0.57763671875	0.412841796875	1	upper	zerothre.ttf
2384783	WORD	wordpools/wasnorm_wordpool.txt	LTP100	ltpFR	15	13	0	MOTOR	922	n/a	n/a	1	0.57763671875	0.412841796875	1	upper	zerothre.ttf
2388957	WORD	wordpools/wasnorm_wordpool.txt	LTP100	ltpFR	15	13	0	ATMOSPHERE	54	n/a	n/a	1	0.57763671875	0.412841796875	1	upper	zerothre.ttf
2393056	WORD	wordpools/wasnorm_wordpool.txt	LTP100	ltpFR	15	13	0	MERMAID	887	n/a	n/a	1	0.57763671875	0.412841796875	1	upper	zerothre.ttf
2397006	WORD	wordpools/wasnorm_wordpool.txt	LTP100	ltpFR	15	13	0	GARBAGE	622	n/a	n/a	1	0.57763671875	0.412841796875	1	upper	zerothre.ttf
2401164	WORD	wordpools/wasnorm_wordpool.txt	LTP100	ltpFR	15	13	0	SEA	1259	n/a	n/a	1	0.57763671875	0.412841796875	1	upper	zerothre.ttf
2405239	WORD	wordpools/wasnorm_wordpool.txt	LTP100	ltpFR	15	13	0	GIFT	635	n/a	n/a	0	0.57763671875	0.412841796875	1	upper	zerothre.ttf
2409130	WORD	wordpools/wasnorm_wordpool.txt	LTP100	ltpFR	15	13	0	BOX	159	n/a	n/a	0	0.57763671875	0.412841796875	1	upper	zerothre.ttf
2413313	WORD	wordpools/wasnorm_wordpool.txt	LTP100	ltpFR	15	13	0	NUCLEUS	961	n/a	n/a	0	0.57763671875	0.412841796875	1	upper	zerothre.ttf
2417496	WORD	wordpools/wasnorm_wordpool.txt	LTP100	ltpFR	15	13	0	HOME	712	n/a	n/a	1	0.57763671875	0.412841796875	1	upper	zerothre.ttf
2423480	REC_START	n/a	LTP100	ltpFR	15	13	n/a	n/a	n/a	n/a	n/a	n/a	n/a	n/a	n/a	n/a	n/a
2425201	REC_WORD	wordpools/wasnorm_wordpool.txt	LTP100	ltpFR	15	13	0	GIFT	635	n/a	n/a	0	n/a	n/a	n/a	n/a	n/a
2426009	REC_WORD	wordpools/wasnorm_wordpool.txt	LTP100	ltpFR	15	13	0	BOX	159	n/a	n/a	0	n/a	n/a	n/a	n/a	n/a
2426912	REC_WORD	wordpools/wasnorm_wordpool.txt	LTP100	ltpFR	15	13	0	NUCLEUS	961	n/a	n/a	0	n/a	n/a	n/a	n/a	n/a
2427935	REC_WORD	wordpools/wasnorm_wordpool.txt	LTP100	ltpFR	15	13	0	HOME	712	n/a	n/a	1	n/a	n/a	n/a	n/a	n/a
2429920	REC_WORD	wordpools/wasnorm_wordpool.txt	LTP100	ltpFR	15	13	0	TUNA	1518	n/a	n/a	0	n/a	n/a	n/a	n/a	n/a
2430627	REC_WORD	wordpools/wasnorm_wordpool.txt	LTP100	ltpFR	15	13	0	WAREHOUSE	1588	n/a	n/a	1	n/a	n/a	n/a	n/a	n/a
2437952	REC_WORD	wordpools/wasnorm_wordpool.txt	LTP100	ltpFR	15	13	0	BUG	187	n/a	n/a	0	n/a	n/a	n/a	n/a	n/a
2438950	REC_WORD	wordpools/wasnorm_wordpool.txt	LTP100	ltpFR	15	13	0	TERMITE	1451	n/a	n/a	0	n/a	n/a	n/a	n/a	n/a
2441938	REC_WORD	wordpools/wasnorm_wordpool.txt	LTP100	ltpFR	15	13	0	SEA	1259	n/a	n/a	1	n/a	n/a	n/a	n/a	n/a
2450743	REC_WORD	wordpools/wasnorm_wordpool.txt	LTP100	ltpFR	15	13	0	ITEM	746	n/a	n/a	0	n/a	n/a	n/a	n/a	n/a
2456300	REC_WORD	wordpools/wasnorm_wordpool.txt	LTP100	ltpFR	15	13	0	GARBAGE	622	n/a	n/a	1	n/a	n/a	n/a	n/a	n/a
2490034	REC_WORD	wordpools/wasnorm_wordpool.txt	LTP100	ltpFR	15	13	0	BASEBALL	93	n/a	n/a	0	n/a	n/a	n/a	n/a	n/a
2501757	WORD	wordpools/wasnorm_wordpool.txt	LTP100	ltpFR	15	14	-1	POTTERY	1116	n/a	n/a	-1	1.0	1.0	1	upper	Verdana.ttf
2505715	WORD	wordpools/wasnorm_wordpool.txt	LTP100	ltpFR	15	14	-1	KID	775	n/a	n/a	-1	1.0	1.0	1	upper	Verdana.ttf
2509557	WORD	wordpools/wasnorm_wordpool.txt	LTP100	ltpFR	15	14	-1	TOENAIL	1474	n/a	n/a	-1	1.0	1.0	1	upper	Verdana.ttf
2513389	WORD	wordpools/wasnorm_wordpool.txt	LTP100	ltpFR	15	14	-1	FOOT	590	n/a	n/a	-1	1.0	1.0	1	upper	Verdana.ttf
2517472	WORD	wordpools/wasnorm_wordpool.txt	LTP100	ltpFR	15	14	-1	YOUTH	1634	n/a	n/a	-1	1.0	1.0	1	upper	Verdana.ttf
2521488	WORD	wordpools/wasnorm_wordpool.txt	LTP100	ltpFR	15	14	-1	TWIG	1527	n/a	n/a	-1	1.0	1.0	1	upper	Verdana.ttf
2525380	WORD	wordpools/wasnorm_wordpool.txt	LTP100	ltpFR	15	14	-1	TREE	1502	n/a	n/a	-1	1.0	1.0	1	upper	Verdana.ttf
2529388	WORD	wordpools/wasnorm_wordpool.txt	LTP100	ltpFR	15	14	-1	SCULPTURE	1258	n/a	n/a	-1	1.0	1.0	1	upper	Verdana.ttf
2533262	WORD	wordpools/wasnorm_wordpool.txt	LTP100	ltpFR	15	14	-1	SKIRT	1319	n/a	n/a	-1	1.0	1.0	1	upper	Verdana.ttf
2537229	WORD	wordpools/wasnorm_wordpool.txt	LTP100	ltpFR	15	14	-1	FEMALE	559	n/a	n/a	-1	1.0	1.0	1	upper	Verdana.ttf
2541087	WORD	wordpools/wasnorm_wordpool.txt	LTP100	ltpFR	15	14	-1	PRAIRIE	1118	n/a	n/a	-1	1.0	1.0	1	upper	Verdana.ttf
2545136	WORD	wordpools/wasnorm_wordpool.txt	LTP100	ltpFR	15	14	-1	SIDING	1304	n/a	n/a	-1	1.0	1.0	1	upper	Verdana.ttf
2548994	WORD	wordpools/wasnorm_wordpool.txt	LTP100	ltpFR	15	14	-1	THIGH	1457	n/a	n/a	-1	1.0	1.0	1	upper	Verdana.ttf
2552952	WORD	wordpools/wasnorm_wordpool.txt	LTP100	ltpFR	15	14	-1	VEGETABLE	1552	n/a	n/a	-1	1.0	1.0	1	upper	Verdana.ttf
2556877	WORD	wordpools/wasnorm_wordpool.txt	LTP100	ltpFR	15	14	-1	FIG	563	n/a	n/a	-1	1.0	1.0	1	upper	Verdana.ttf
2560761	WORD	wordpools/wasnorm_wordpool.txt	LTP100	ltpFR	15	14	-1	MOTHER	921	n/a	n/a	-1	1.0	1.0	1	upper	Verdana.ttf
2566645	REC_START	n/a	LTP100	ltpFR	15	14	n/a	n/a	n/a	n/a	n/a	n/a	n/a	n/a	n/a	n/a	n/a
2567199	REC_WORD	wordpools/wasnorm_wordpool.txt	LTP100	ltpFR	15	14	-1	SIDING	1304	n/a	n/a	-1	n/a	n/a	n/a	n/a	n/a
2568181	REC_WORD	wordpools/wasnorm_wordpool.txt	LTP100	ltpFR	15	14	-1	THIGH	1457	n/a	n/a	-1	n/a	n/a	n/a	n/a	n/a
2568975	REC_WORD	wordpools/wasnorm_wordpool.txt	LTP100	ltpFR	15	14	-1	VEGETABLE	1552	n/a	n/a	-1	n/a	n/a	n/a	n/a	n/a
2574282	REC_WORD	wordpools/wasnorm_wordpool.txt	LTP100	ltpFR	15	14	-1	MOTHER	921	n/a	n/a	-1	n/a	n/a	n/a	n/a	n/a
2576777	REC_WORD	wordpools/wasnorm_wordpool.txt	LTP100	ltpFR	15	14	-1	POTTERY	1116	n/a	n/a	-1	n/a	n/a	n/a	n/a	n/a
2577430	REC_WORD	wordpools/wasnorm_wordpool.txt	LTP100	ltpFR	15	14	-1	SCULPTURE	1258	n/a	n/a	-1	n/a	n/a	n/a	n/a	n/a
2592321	REC_WORD	wordpools/wasnorm_wordpool.txt	LTP100	ltpFR	15	14	-1	YOUTH	1634	n/a	n/a	-1	n/a	n/a	n/a	n/a	n/a
2595619	REC_WORD	wordpools/wasnorm_wordpool.txt	LTP100	ltpFR	15	14	1	ADOLESCENT	7	n/a	n/a	1	n/a	n/a	n/a	n/a	n/a
2606913	REC_WORD	wordpools/wasnorm_wordpool.txt	LTP100	ltpFR	15	14	-1	TOENAIL	1474	n/a	n/a	-1	n/a	n/a	n/a	n/a	n/a
2607851	REC_WORD	wordpools/wasnorm_wordpool.txt	LTP100	ltpFR	15	14	-1	FOOT	590	n/a	n/a	-1	n/a	n/a	n/a	n/a	n/a
2621365	REC_WORD	wordpools/wasnorm_wordpool.txt	LTP100	ltpFR	15	14	n/a	SALT	1229	n/a	n/a	n/a	n/a	n/a	n/a	n/a	n/a
2640871	REC_WORD	wordpools/wasnorm_wordpool.txt	LTP100	ltpFR	15	14	0	TUNA	1518	n/a	n/a	0	n/a	n/a	n/a	n/a	n/a
2645613	WORD	wordpools/wasnorm_wordpool.txt	LTP100	ltpFR	15	15	0	SQUIRREL	1362	n/a	n/a	0	0.57763671875	0.412841796875	1	upper	zerothre.ttf
2649436	WORD	wordpools/wasnorm_wordpool.txt	LTP100	ltpFR	15	15	0	VOLUNTEER	1577	n/a	n/a	1	0.57763671875	0.412841796875	1	upper	zerothre.ttf
2653604	WORD	wordpools/wasnorm_wordpool.txt	LTP100	ltpFR	15	15	0	STOVE	1388	n/a	n/a	1	0.57763671875	0.412841796875	1	upper	zerothre.ttf
2657737	WORD	wordpools/wasnorm_wordpool.txt	LTP100	ltpFR	15	15	0	COIN	343	n/a	n/a	0	0.57763671875	0.412841796875	1	upper	zerothre.ttf
2661678	WORD	wordpools/wasnorm_wordpool.txt	LTP100	ltpFR	15	15	1	MOUNTAIN	924	n/a	n/a	0	0.422607421875	0.5869140625	0	lower	amplitud.ttf
2665728	WORD	wordpools/wasnorm_wordpool.txt	LTP100	ltpFR	15	15	1	LADDER	793	n/a	n/a	0	0.422607421875	0.5869140625	0	lower	amplitud.ttf
2669769	WORD	wordpools/wasnorm_wordpool.txt	LTP100	ltpFR	15	15	1	AGENT	10	n/a	n/a	1	0.422607421875	0.5869140625	0	lower	amplitud.ttf
2673752	WORD	wordpools/wasnorm_wordpool.txt	LTP100	ltpFR	15	15	1	ATHLETE	52	n/a	n/a	1	0.422607421875	0.5869140625	0	lower	amplitud.ttf
2677777	WORD	wordpools/wasnorm_wordpool.txt	LTP100	ltpFR	15	15	0	MEDICINE	886	n/a	n/a	0	0.57763671875	0.412841796875	1	upper	zerothre.ttf
2681760	WORD	wordpools/wasnorm_wordpool.txt	LTP100	ltpFR	15	15	0	VITAMIN	1574	n/a	n/a	0	0.57763671875	0.412841796875	1	upper	zerothre.ttf
2685842	WORD	wordpools/wasnorm_wordpool.txt	LTP100	ltpFR	15	15	1	MONEY	908	n/a	n/a	0	0.422607421875	0.5869140625	0	lower	amplitud.ttf
2689668	WORD	wordpools/wasnorm_wordpool.txt	LTP100	ltpFR	15	15	1	KETTLE	772	n/a	n/a	0	0.422607421875	0.5869140625	0	lower	amplitud.ttf
2693717	WORD	wordpools/wasnorm_wordpool.txt	LTP100	ltpFR	15	15	1	WOMAN	1620	n/a	n/a	1	0.422607421875	0.5869140625	0	lower	amplitud.ttf
2697592	WORD	wordpools/wasnorm_wordpool.txt	LTP100	ltpFR	15	15	1	MISTER	901	n/a	n/a	1	0.422607421875	0.5869140625	0	lower	amplitud.ttf
2701667	WORD	wordpools/wasnorm_wordpool.txt	LTP100	ltpFR	15	15	0	HELMET	702	n/a	n/a	1	0.57763671875	0.412841796875	1	upper	zerothre.ttf
2705533	WORD	wordpools/wasnorm_wordpool.txt	LTP100	ltpFR	15	15	0	BUTTER	205	n/a	n/a	0	0.57763671875	0.412841796875	1	upper	zerothre.ttf
2711533	REC_START	n/a	LTP100	ltpFR	15	15	n/a	n/a	n/a	n/a	n/a	n/a	n/a	n/a	n/a	n/a	n/a
2714401	REC_WORD	wordpools/wasnorm_wordpool.txt	LTP100	ltpFR	15	15	0	BUTTER	205	n/a	n/a	0	n/a	n/a	n/a	n/a	n/a
2714911	REC_WORD	wordpools/wasnorm_wordpool.txt	LTP100	ltpFR	15	15	0	HELMET	702	n/a	n/a	1	n/a	n/a	n/a	n/a	n/a
2715633	REC_WORD	wordpools/wasnorm_wordpool.txt	LTP100	ltpFR	15	15	1	AGENT	10	n/a	n/a	1	n/a	n/a	n/a	n/a	n/a
2716526	REC_WORD	wordpools/wasnorm_wordpool.txt	LTP100	ltpFR	15	15	1	ATHLETE	52	n/a	n/a	1	n/a	n/a	n/a	n/a	n/a
2721046	REC_WORD	wordpools/wasnorm_wordpool.txt	LTP100	ltpFR	15	15	1	MOUNTAIN	924	n/a	n/a	0	n/a	n/a	n/a	n/a	n/a
2721954	REC_WORD	wordpools/wasnorm_wordpool.txt	LTP100	ltpFR	15	15	1	KETTLE	772	n/a	n/a	0	n/a	n/a	n/a	n/a	n/a
2724169	REC_WORD	wordpools/wasnorm_wordpool.txt	LTP100	ltpFR	15	15	1	MISTER	901	n/a	n/a	1	n/a	n/a	n/a	n/a	n/a
2725775	REC_WORD	wordpools/wasnorm_wordpool.txt	LTP100	ltpFR	15	15	1	WOMAN	1620	n/a	n/a	1	n/a	n/a	n/a	n/a	n/a
2729721	REC_WORD	wordpools/wasnorm_wordpool.txt	LTP100	ltpFR	15	15	-1	FOOT	590	n/a	n/a	-1	n/a	n/a	n/a	n/a	n/a
2739544	REC_WORD	wordpools/wasnorm_wordpool.txt	LTP100	ltpFR	15	15	n/a	CAB	209	n/a	n/a	n/a	n/a	n/a	n/a	n/a	n/a
2751347	REC_WORD	wordpools/wasnorm_wordpool.txt	LTP100	ltpFR	15	15	n/a	CASH	252	n/a	n/a	n/a	n/a	n/a	n/a	n/a	n/a
2758945	REC_WORD	wordpools/wasnorm_wordpool.txt	LTP100	ltpFR	15	15	0	COIN	343	n/a	n/a	0	n/a	n/a	n/a	n/a	n/a
2770473	REC_WORD	wordpools/wasnorm_wordpool.txt	LTP100	ltpFR	15	15	n/a	SALAD	1224	n/a	n/a	n/a	n/a	n/a	n/a	n/a	n/a
2776505	REC_WORD	wordpools/wasnorm_wordpool.txt	LTP100	ltpFR	15	15	0	SQUIRREL	1362	n/a	n/a	0	n/a	n/a	n/a	n/a	n/a
2786158	REC_WORD_VV	wordpools/wasnorm_wordpool.txt	LTP100	ltpFR	15	15	n/a	<>	-1	n/a	n/a	n/a	n/a	n/a	n/a	n/a	n/a
2791284	WORD	wordpools/wasnorm_wordpool.txt	LTP100	ltpFR	15	16	-1	CHIMNEY	301	n/a	n/a	-1	1.0	1.0	1	upper	Verdana.ttf
2795117	WORD	wordpools/wasnorm_wordpool.txt	LTP100	ltpFR	15	16	-1	RAFT	1159	n/a	n/a	-1	1.0	1.0	1	upper	Verdana.ttf
2799216	WORD	wordpools/wasnorm_wordpool.txt	LTP100	ltpFR	15	16	-1	BELL	118	n/a	n/a	-1	1.0	1.0	1	upper	Verdana.ttf
2803108	WORD	wordpools/wasnorm_wordpool.txt	LTP100	ltpFR	15	16	-1	GROUND	666	n/a	n/a	-1	1.0	1.0	1	upper	Verdana.ttf
2807283	WORD	wordpools/wasnorm_wordpool.txt	LTP100	ltpFR	15	16	-1	CHAMBER	277	n/a	n/a	-1	1.0	1.0	1	upper	Verdana.ttf
2811282	WORD	wordpools/wasnorm_wordpool.txt	LTP100	ltpFR	15	16	-1	DRAGON	492	n/a	n/a	-1	1.0	1.0	1	upper	Verdana.ttf
2815390	WORD	wordpools/wasnorm_wordpool.txt	LTP100	ltpFR	15	16	-1	DOCK	477	n/a	n/a	-1	1.0	1.0	1	upper	Verdana.ttf
2819407	WORD	wordpools/wasnorm_wordpool.txt	LTP100	ltpFR	15	16	-1	EMERALD	528	n/a	n/a	-1	1.0	1.0	1	upper	Verdana.ttf
2823440	WORD	wordpools/wasnorm_wordpool.txt	LTP100	ltpFR	15	16	-1	WINDOW	1611	n/a	n/a	-1	1.0	1.0	1	upper	Verdana.ttf
2827348	WORD	wordpools/wasnorm_wordpool.txt	LTP100	ltpFR	15	16	-1	CLASS	318	n/a	n/a	-1	1.0	1.0	1	upper	Verdana.ttf
2831214	WORD	wordpools/wasnorm_wordpool.txt	LTP100	ltpFR	15	16	-1	TEACHER	1440	n/a	n/a	-1	1.0	1.0	1	upper	Verdana.ttf
2835272	WORD	wordpools/wasnorm_wordpool.txt	LTP100	ltpFR	15	16	-1	PEN	1041	n/a	n/a	-1	1.0	1.0	1	upper	Verdana.ttf
2839222	WORD	wordpools/wasnorm_wordpool.txt	LTP100	ltpFR	15	16	-1	XEROX	1628	n/a	n/a	-1	1.0	1.0	1	upper	Verdana.ttf
2843130	WORD	wordpools/wasnorm_wordpool.txt	LTP100	ltpFR	15	16	-1	BOARD	143	n/a	n/a	-1	1.0	1.0	1	upper	Verdana.ttf
2847304	WORD	wordpools/wasnorm_wordpool.txt	LTP100	ltpFR	15	16	-1	COLLEGE	346	n/a	n/a	-1	1.0	1.0	1	upper	Verdana.ttf
2851146	WORD	wordpools/wasnorm_wordpool.txt	LTP100	ltpFR	15	16	-1	DIPLOMA	470	n/a	n/a	-1	1.0	1.0	1	upper	Verdana.ttf
2856888	REC_START	n/a	LTP100	ltpFR	15	16	n/a	n/a	n/a	n/a	n/a	n/a	n/a	n/a	n/a	n/a	n/a
2859986	REC_WORD	wordpools/wasnorm_wordpool.txt	LTP100	ltpFR	15	16	-1	COLLEGE	346	n/a	n/a	-1	n/a	n/a	n/a	n/a	n/a
2860998	REC_WORD	wordpools/wasnorm_wordpool.txt	LTP100	ltpFR	15	16	-1	BOARD	143	n/a	n/a	-1	n/a	n/a	n/a	n/a	n/a
2861721	REC_WORD	wordpools/wasnorm_wordpool.txt	LTP100	ltpFR	15	16	-1	DIPLOMA	470	n/a	n/a	-1	n/a	n/a	n/a	n/a	n/a
2862899	REC_WORD	wordpools/wasnorm_wordpool.txt	LTP100	ltpFR	15	16	-1	TEACHER	1440	n/a	n/a	-1	n/a	n/a	n/a	n/a	n/a
2863782	REC_WORD	wordpools/wasnorm_wordpool.txt	LTP100	ltpFR	15	16	-1	CLASS	318	n/a	n/a	-1	n/a	n/a	n/a	n/a	n/a
2864915	REC_WORD	wordpools/wasnorm_wordpool.txt	LTP100	ltpFR	15	16	-1	WINDOW	1611	n/a	n/a	-1	n/a	n/a	n/a	n/a	n/a
2868127	REC_WORD	wordpools/wasnorm_wordpool.txt	LTP100	ltpFR	15	16	0	SPHINX	1349	n/a	n/a	1	n/a	n/a	n/a	n/a	n/a
2884540	REC_WORD	wordpools/wasnorm_wordpool.txt	LTP100	ltpFR	15	16	0	PUPPY	1144	n/a	n/a	1	n/a	n/a	n/a	n/a	n/a
2891888	REC_WORD	wordpools/wasnorm_wordpool.txt	LTP100	ltpFR	15	16	0	WAREHOUSE	1588	n/a	n/a	1	n/a	n/a	n/a	n/a	n/a
2930296	REC_WORD	wordpools/wasnorm_wordpool.txt	LTP100	ltpFR	15	16	n/a	IGLOO	734	n/a	n/a	n/a	n/a	n/a	n/a	n/a	n/a
2984746	REC_START	n/a	LTP100	ltpFR	15	1	n/a	n/a	n/a	n/a	n/a	n/a	n/a	n/a	n/a	n/a	n/a
2984778	RECOG_TARGET	n/a	LTP100	ltpFR	15	1	-1	LIP	828	0	1	-1	n/a	n/a	n/a	n/a	n/a
2986721	RECOG_RESP	n/a	LTP100	ltpFR	15	1	-1	LIP	828	0	n/a	-1	n/a	n/a	n/a	n/a	n/a
2988113	RECOG_CONF	n/a	LTP100	ltpFR	15	1	-1	LIP	828	n/a	1	-1	n/a	n/a	n/a	n/a	n/a
2989827	RECOG_TARGET	n/a	LTP100	ltpFR	15	1	1	DAUGHTER	442	1	5	1	n/a	n/a	n/a	n/a	n/a
2990717	RECOG_RESP	n/a	LTP100	ltpFR	15	1	1	DAUGHTER	442	1	n/a	1	n/a	n/a	n/a	n/a	n/a
2991486	RECOG_CONF	n/a	LTP100	ltpFR	15	1	1	DAUGHTER	442	n/a	5	1	n/a	n/a	n/a	n/a	n/a
2993043	RECOG_TARGET	n/a	LTP100	ltpFR	15	1	-1	POTTERY	1116	1	5	-1	n/a	n/a	n/a	n/a	n/a
2993621	RECOG_RESP	n/a	LTP100	ltpFR	15	1	-1	POTTERY	1116	1	n/a	-1	n/a	n/a	n/a	n/a	n/a
2994359	RECOG_CONF	n/a	LTP100	ltpFR	15	1	-1	POTTERY	1116	n/a	5	-1	n/a	n/a	n/a	n/a	n/a
2995752	RECOG_TARGET	n/a	LTP100	ltpFR	15	1	1	CAMEL	223	1	3	1	n/a	n/a	n/a	n/a	n/a
2996763	RECOG_RESP	n/a	LTP100	ltpFR	15	1	1	CAMEL	223	1	n/a	1	n/a	n/a	n/a	n/a	n/a
2997452	RECOG_CONF	n/a	LTP100	ltpFR	15	1	1	CAMEL	223	n/a	3	1	n/a	n/a	n/a	n/a	n/a
2998909	RECOG_TARGET	n/a	LTP100	ltpFR	15	1	-1	MOTHER	921	1	5	-1	n/a	n/a	n/a	n/a	n/a
2999447	RECOG_RESP	n/a	LTP100	ltpFR	15	1	-1	MOTHER	921	1	n/a	-1	n/a	n/a	n/a	n/a	n/a
3000116	RECOG_CONF	n/a	LTP100	ltpFR	15	1	-1	MOTHER	921	n/a	5	-1	n/a	n/a	n/a	n/a	n/a
3001577	RECOG_LURE	n/a	LTP100	ltpFR	15	1	n/a	SYRINGE	1424	0	4	n/a	n/a	n/a	n/a	n/a	n/a
3002570	RECOG_RESP	n/a	LTP100	ltpFR	15	1	n/a	SYRINGE	1424	0	n/a	n/a	n/a	n/a	n/a	n/a	n/a
3003418	RECOG_CONF	n/a	LTP100	ltpFR	15	1	n/a	SYRINGE	1424	n/a	4	n/a	n/a	n/a	n/a	n/a	n/a
3004851	RECOG_TARGET	n/a	LTP100	ltpFR	15	1	0	OFFICER	973	1	3	1	n/a	n/a	n/a	n/a	n/a
3005583	RECOG_RESP	n/a	LTP100	ltpFR	15	1	0	OFFICER	973	1	n/a	1	n/a	n/a	n/a	n/a	n/a
3006432	RECOG_CONF	n/a	LTP100	ltpFR	15	1	0	OFFICER	973	n/a	3	1	n/a	n/a	n/a	n/a	n/a
3007735	RECOG_TARGET	n/a	LTP100	ltpFR	15	1	0	DIAGRAM	456	1	4	1	n/a	n/a	n/a	n/a	n/a
3008417	RECOG_RESP	n/a	LTP100	ltpFR	15	1	0	DIAGRAM	456	1	n/a	1	n/a	n/a	n/a	n/a	n/a
3009195	RECOG_CONF	n/a	LTP100	ltpFR	15	1	0	DIAGRAM	456	n/a	4	1	n/a	n/a	n/a	n/a	n/a
3010568	RECOG_TARGET	n/a	LTP100	ltpFR	15	1	1	CHAPEL	280	1	4	0	n/a	n/a	n/a	n/a	n/a
3011186	RECOG_RESP	n/a	LTP100	ltpFR	15	1	1	CHAPEL	280	1	n/a	0	n/a	n/a	n/a	n/a	n/a
3011899	RECOG_CONF	n/a	LTP100	ltpFR	15	1	1	CHAPEL	280	n/a	4	0	n/a	n/a	n/a	n/a	n/a
3013325	RECOG_TARGET	n/a	LTP100	ltpFR	15	1	0	VITAMIN	1574	1	5	0	n/a	n/a	n/a	n/a	n/a
3014059	RECOG_RESP	n/a	LTP100	ltpFR	15	1	0	VITAMIN	1574	1	n/a	0	n/a	n/a	n/a	n/a	n/a
3014822	RECOG_CONF	n/a	LTP100	ltpFR	15	1	0	VITAMIN	1574	n/a	5	0	n/a	n/a	n/a	n/a	n/a
3016308	RECOG_TARGET	n/a	LTP100	ltpFR	15	1	0	CARAVAN	242	1	5	1	n/a	n/a	n/a	n/a	n/a
3017022	RECOG_RESP	n/a	LTP100	ltpFR	15	1	0	CARAVAN	242	1	n/a	1	n/a	n/a	n/a	n/a	n/a
3017736	RECOG_CONF	n/a	LTP100	ltpFR	15	1	0	CARAVAN	242	n/a	5	1	n/a	n/a	n/a	n/a	n/a
3019024	RECOG_LURE	n/a	LTP100	ltpFR	15	1	n/a	POWDER	1117	0	3	n/a	n/a	n/a	n/a	n/a	n/a
3019971	RECOG_RESP	n/a	LTP100	ltpFR	15	1	n/a	POWDER	1117	0	n/a	n/a	n/a	n/a	n/a	n/a	n/a
3020719	RECOG_CONF	n/a	LTP100	ltpFR	15	1	n/a	POWDER	1117	n/a	3	n/a	n/a	n/a	n/a	n/a	n/a
3022024	RECOG_TARGET	n/a	LTP100	ltpFR	15	1	1	OWNER	993	0	3	0	n/a	n/a	n/a	n/a	n/a
3023243	RECOG_RESP	n/a	LTP100	ltpFR	15	1	1	OWNER	993	0	n/a	0	n/a	n/a	n/a	n/a	n/a
3024121	RECOG_CONF	n/a	LTP100	ltpFR	15	1	1	OWNER	993	n/a	3	0	n/a	n/a	n/a	n/a	n/a
3025567	RECOG_TARGET	n/a	LTP100	ltpFR	15	1	1	BARRACUDA	90	1	5	1	n/a	n/a	n/a	n/a	n/a
3026366	RECOG_RESP	n/a	LTP100	ltpFR	15	1	1	BARRACUDA	90	1	n/a	1	n/a	n/a	n/a	n/a	n/a
3027174	RECOG_CONF	n/a	LTP100	ltpFR	15	1	1	BARRACUDA	90	n/a	5	1	n/a	n/a	n/a	n/a	n/a
3028641	RECOG_LURE	n/a	LTP100	ltpFR	15	1	n/a	JURY	766	0	3	n/a	n/a	n/a	n/a	n/a	n/a
3029958	RECOG_RESP	n/a	LTP100	ltpFR	15	1	n/a	JURY	766	0	n/a	n/a	n/a	n/a	n/a	n/a	n/a
3030896	RECOG_CONF	n/a	LTP100	ltpFR	15	1	n/a	JURY	766	n/a	3	n/a	n/a	n/a	n/a	n/a	n/a
3032207	RECOG_TARGET	n/a	LTP100	ltpFR	15	1	-1	WAIST	1579	1	2	-1	n/a	n/a	n/a	n/a	n/a
3033380	RECOG_RESP	n/a	LTP100	ltpFR	15	1	-1	WAIST	1579	1	n/a	-1	n/a	n/a	n/a	n/a	n/a
3034119	RECOG_CONF	n/a	LTP100	ltpFR	15	1	-1	WAIST	1579	n/a	2	-1	n/a	n/a	n/a	n/a	n/a
3035473	RECOG_TARGET	n/a	LTP100	ltpFR	15	1	0	TERMITE	1451	1	5	0	n/a	n/a	n/a	n/a	n/a
3036224	RECOG_RESP	n/a	LTP100	ltpFR	15	1	0	TERMITE	1451	1	n/a	0	n/a	n/a	n/a	n/a	n/a
3036822	RECOG_CONF	n/a	LTP100	ltpFR	15	1	0	TERMITE	1451	n/a	5	0	n/a	n/a	n/a	n/a	n/a
3038123	RECOG_TARGET	n/a	LTP100	ltpFR	15	1	0	CHEF	290	1	4	1	n/a	n/a	n/a	n/a	n/a
3038868	RECOG_RESP	n/a	LTP100	ltpFR	15	1	0	CHEF	290	1	n/a	1	n/a	n/a	n/a	n/a	n/a
3039476	RECOG_CONF	n/a	LTP100	ltpFR	15	1	0	CHEF	290	n/a	4	1	n/a	n/a	n/a	n/a	n/a
3040807	RECOG_TARGET	n/a	LTP100	ltpFR	15	1	0	VEHICLE	1553	1	2	1	n/a	n/a	n/a	n/a	n/a
3042180	RECOG_RESP	n/a	LTP100	ltpFR	15	1	0	VEHICLE	1553	1	n/a	1	n/a	n/a	n/a	n/a	n/a
3042919	RECOG_CONF	n/a	LTP100	ltpFR	15	1	0	VEHICLE	1553	n/a	2	1	n/a	n/a	n/a	n/a	n/a
3044314	RECOG_TARGET	n/a	LTP100	ltpFR	15	1	-1	KEG	770	1	5	-1	n/a	n/a	n/a	n/a	n/a
3044934	RECOG_RESP	n/a	LTP100	ltpFR	15	1	-1	KEG	770	1	n/a	-1	n/a	n/a	n/a	n/a	n/a
3045593	RECOG_CONF	n/a	LTP100	ltpFR	15	1	-1	KEG	770	n/a	5	-1	n/a	n/a	n/a	n/a	n/a
3048788	REC_START	n/a	LTP100	ltpFR	15	2	n/a	n/a	n/a	n/a	n/a	n/a	n/a	n/a	n/a	n/a	n/a
3048822	RECOG_TARGET	n/a	LTP100	ltpFR	15	2	1	EAGLE	512	1	5	0	n/a	n/a	n/a	n/a	n/a
3049401	RECOG_RESP	n/a	LTP100	ltpFR	15	2	1	EAGLE	512	1	n/a	0	n/a	n/a	n/a	n/a	n/a
3050040	RECOG_CONF	n/a	LTP100	ltpFR	15	2	1	EAGLE	512	n/a	5	0	n/a	n/a	n/a	n/a	n/a
3051464	RECOG_LURE	n/a	LTP100	ltpFR	15	2	n/a	VILLAGE	1566	1	3	n/a	n/a	n/a	n/a	n/a	n/a
3051981	RECOG_RESP	n/a	LTP100	ltpFR	15	2	n/a	VILLAGE	1566	1	n/a	n/a	n/a	n/a	n/a	n/a	n/a
3052584	RECOG_CONF	n/a	LTP100	ltpFR	15	2	n/a	VILLAGE	1566	n/a	3	n/a	n/a	n/a	n/a	n/a	n/a
3054055	RECOG_TARGET	n/a	LTP100	ltpFR	15	2	1	VACUUM	1543	1	5	0	n/a	n/a	n/a	n/a	n/a
3054714	RECOG_RESP	n/a	LTP100	ltpFR	15	2	1	VACUUM	1543	1	n/a	0	n/a	n/a	n/a	n/a	n/a
3055358	RECOG_CONF	n/a	LTP100	ltpFR	15	2	1	VACUUM	1543	n/a	5	0	n/a	n/a	n/a	n/a	n/a
3056781	RECOG_TARGET	n/a	LTP100	ltpFR	15	2	0	COIN	343	1	5	0	n/a	n/a	n/a	n/a	n/a
3057658	RECOG_RESP	n/a	LTP100	ltpFR	15	2	0	COIN	343	1	n/a	0	n/a	n/a	n/a	n/a	n/a
3058271	RECOG_CONF	n/a	LTP100	ltpFR	15	2	0	COIN	343	n/a	5	0	n/a	n/a	n/a	n/a	n/a
3059731	RECOG_TARGET	n/a	LTP100	ltpFR	15	2	1	KETTLE	772	1	5	0	n/a	n/a	n/a	n/a	n/a
3060302	RECOG_RESP	n/a	LTP100	ltpFR	15	2	1	KETTLE	772	1	n/a	0	n/a	n/a	n/a	n/a	n/a
3060885	RECOG_CONF	n/a	LTP100	ltpFR	15	2	1	KETTLE	772	n/a	5	0	n/a	n/a	n/a	n/a	n/a
3062188	RECOG_TARGET	n/a	LTP100	ltpFR	15	2	0	GARBAGE	622	1	5	1	n/a	n/a	n/a	n/a	n/a
3062791	RECOG_RESP	n/a	LTP100	ltpFR	15	2	0	GARBAGE	622	1	n/a	1	n/a	n/a	n/a	n/a	n/a
3063459	RECOG_CONF	n/a	LTP100	ltpFR	15	2	0	GARBAGE	622	n/a	5	1	n/a	n/a	n/a	n/a	n/a
3064863	RECOG_TARGET	n/a	LTP100	ltpFR	15	2	0	TRANSPLANT	1496	1	5	0	n/a	n/a	n/a	n/a	n/a
3065530	RECOG_RESP	n/a	LTP100	ltpFR	15	2	0	TRANSPLANT	1496	1	n/a	0	n/a	n/a	n/a	n/a	n/a
3066173	RECOG_CONF	n/a	LTP100	ltpFR	15	2	0	TRANSPLANT	1496	n/a	5	0	n/a	n/a	n/a	n/a	n/a
3067630	RECOG_TARGET	n/a	LTP100	ltpFR	15	2	0	HOSE	720	1	5	0	n/a	n/a	n/a	n/a	n/a
3068199	RECOG_RESP	n/a	LTP100	ltpFR	15	2	0	HOSE	720	1	n/a	0	n/a	n/a	n/a	n/a	n/a
3068867	RECOG_CONF	n/a	LTP100	ltpFR	15	2	0	HOSE	720	n/a	5	0	n/a	n/a	n/a	n/a	n/a
3070262	RECOG_TARGET	n/a	LTP100	ltpFR	15	2	1	ZUCCHINI	1638	1	5	0	n/a	n/a	n/a	n/a	n/a
3070833	RECOG_RESP	n/a	LTP100	ltpFR	15	2	1	ZUCCHINI	1638	1	n/a	0	n/a	n/a	n/a	n/a	n/a
3071461	RECOG_CONF	n/a	LTP100	ltpFR	15	2	1	ZUCCHINI	1638	n/a	5	0	n/a	n/a	n/a	n/a	n/a
3072829	RECOG_TARGET	n/a	LTP100	ltpFR	15	2	-1	PILLOW	1069	1	5	-1	n/a	n/a	n/a	n/a	n/a
3073507	RECOG_RESP	n/a	LTP100	ltpFR	15	2	-1	PILLOW	1069	1	n/a	-1	n/a	n/a	n/a	n/a	n/a
3074105	RECOG_CONF	n/a	LTP100	ltpFR	15	2	-1	PILLOW	1069	n/a	5	-1	n/a	n/a	n/a	n/a	n/a
3075613	RECOG_TARGET	n/a	LTP100	ltpFR	15	2	0	HELMET	702	1	5	1	n/a	n/a	n/a	n/a	n/a
3076186	RECOG_RESP	n/a	LTP100	ltpFR	15	2	0	HELMET	702	1	n/a	1	n/a	n/a	n/a	n/a	n/a
3076809	RECOG_CONF	n/a	LTP100	ltpFR	15	2	0	HELMET	702	n/a	5	1	n/a	n/a	n/a	n/a	n/a
3078120	RECOG_TARGET	n/a	LTP100	ltpFR	15	2	0	DIVER	476	1	4	1	n/a	n/a	n/a	n/a	n/a
3078944	RECOG_RESP	n/a	LTP100	ltpFR	15	2	0	DIVER	476	1	n/a	1	n/a	n/a	n/a	n/a	n/a
3079563	RECOG_CONF	n/a	LTP100	ltpFR	15	2	0	DIVER	476	n/a	4	1	n/a	n/a	n/a	n/a	n/a
3080845	RECOG_LURE	n/a	LTP100	ltpFR	15	2	n/a	CREAM	402	0	4	n/a	n/a	n/a	n/a	n/a	n/a
3081503	RECOG_RESP	n/a	LTP100	ltpFR	15	2	n/a	CREAM	402	0	n/a	n/a	n/a	n/a	n/a	n/a	n/a
3082137	RECOG_CONF	n/a	LTP100	ltpFR	15	2	n/a	CREAM	402	n/a	4	n/a	n/a	n/a	n/a	n/a	n/a
3083478	RECOG_TARGET	n/a	LTP100	ltpFR	15	2	-1	TILE	1468	1	2	-1	n/a	n/a	n/a	n/a	n/a
3084237	RECOG_RESP	n/a	LTP100	ltpFR	15	2	-1	TILE	1468	1	n/a	-1	n/a	n/a	n/a	n/a	n/a
3084881	RECOG_CONF	n/a	LTP100	ltpFR	15	2	-1	TILE	1468	n/a	2	-1	n/a	n/a	n/a	n/a	n/a
3086303	RECOG_LURE	n/a	LTP100	ltpFR	15	2	n/a	LEMON	810	0	3	n/a	n/a	n/a	n/a	n/a	n/a
3086946	RECOG_RESP	n/a	LTP100	ltpFR	15	2	n/a	LEMON	810	0	n/a	n/a	n/a	n/a	n/a	n/a	n/a
3087824	RECOG_CONF	n/a	LTP100	ltpFR	15	2	n/a	LEMON	810	n/a	3	n/a	n/a	n/a	n/a	n/a	n/a
3089186	RECOG_LURE	n/a	LTP100	ltpFR	15	2	n/a	KLEENEX	782	1	4	n/a	n/a	n/a	n/a	n/a	n/a
3089894	RECOG_RESP	n/a	LTP100	ltpFR	15	2	n/a	KLEENEX	782	1	n/a	n/a	n/a	n/a	n/a	n/a	n/a
3090598	RECOG_CONF	n/a	LTP100	ltpFR	15	2	n/a	KLEENEX	782	n/a	4	n/a	n/a	n/a	n/a	n/a	n/a
3091902	RECOG_TARGET	n/a	LTP100	ltpFR	15	2	0	COBBLER	335	1	5	1	n/a	n/a	n/a	n/a	n/a
3092738	RECOG_RESP	n/a	LTP100	ltpFR	15	2	0	COBBLER	335	1	n/a	1	n/a	n/a	n/a	n/a	n/a
3093352	RECOG_CONF	n/a	LTP100	ltpFR	15	2	0	COBBLER	335	n/a	5	1	n/a	n/a	n/a	n/a	n/a
3094703	RECOG_TARGET	n/a	LTP100	ltpFR	15	2	0	CUSTOMER	430	1	2	1	n/a	n/a	n/a	n/a	n/a
3095641	RECOG_RESP	n/a	LTP100	ltpFR	15	2	0	CUSTOMER	430	1	n/a	1	n/a	n/a	n/a	n/a	n/a
3096405	RECOG_CONF	n/a	LTP100	ltpFR	15	2	0	CUSTOMER	430	n/a	2	1	n/a	n/a	n/a	n/a	n/a
3097569	RECOG_LURE	n/a	LTP100	ltpFR	15	2	n/a	YARN	1631	0	3	n/a	n/a	n/a	n/a	n/a	n/a
3098310	RECOG_RESP	n/a	LTP100	ltpFR	15	2	n/a	YARN	1631	0	n/a	n/a	n/a	n/a	n/a	n/a	n/a
3098929	RECOG_CONF	n/a	LTP100	ltpFR	15	2	n/a	YARN	1631	n/a	3	n/a	n/a	n/a	n/a	n/a	n/a
3100368	RECOG_TARGET	n/a	LTP100	ltpFR	15	2	1	NECK	939	1	4	0	n/a	n/a	n/a	n/a	n/a
3101044	RECOG_RESP	n/a	LTP100	ltpFR	15	2	1	NECK	939	1	n/a	0	n/a	n/a	n/a	n/a	n/a
3101703	RECOG_CONF	n/a	LTP100	ltpFR	15	2	1	NECK	939	n/a	4	0	n/a	n/a	n/a	n/a	n/a
3105489	REC_START	n/a	LTP100	ltpFR	15	3	n/a	n/a	n/a	n/a	n/a	n/a	n/a	n/a	n/a	n/a	n/a
3105526	RECOG_TARGET	n/a	LTP100	ltpFR	15	3	0	SKULL	1320	1	5	1	n/a	n/a	n/a	n/a	n/a
3106207	RECOG_RESP	n/a	LTP100	ltpFR	15	3	0	SKULL	1320	1	n/a	1	n/a	n/a	n/a	n/a	n/a
3106811	RECOG_CONF	n/a	LTP100	ltpFR	15	3	0	SKULL	1320	n/a	5	1	n/a	n/a	n/a	n/a	n/a
3108018	RECOG_TARGET	n/a	LTP100	ltpFR	15	3	-1	CHIMNEY	301	1	5	-1	n/a	n/a	n/a	n/a	n/a
3108617	RECOG_RESP	n/a	LTP100	ltpFR	15	3	-1	CHIMNEY	301	1	n/a	-1	n/a	n/a	n/a	n/a	n/a
3109165	RECOG_CONF	n/a	LTP100	ltpFR	15	3	-1	CHIMNEY	301	n/a	5	-1	n/a	n/a	n/a	n/a	n/a
3110517	RECOG_LURE	n/a	LTP100	ltpFR	15	3	n/a	BLOSSOM	138	0	3	n/a	n/a	n/a	n/a	n/a	n/a
3111141	RECOG_RESP	n/a	LTP100	ltpFR	15	3	n/a	BLOSSOM	138	0	n/a	n/a	n/a	n/a	n/a	n/a	n/a
3111640	RECOG_CONF	n/a	LTP100	ltpFR	15	3	n/a	BLOSSOM	138	n/a	3	n/a	n/a	n/a	n/a	n/a	n/a
3113234	RECOG_TARGET	n/a	LTP100	ltpFR	15	3	0	GIFT	635	1	5	0	n/a	n/a	n/a	n/a	n/a
3113835	RECOG_RESP	n/a	LTP100	ltpFR	15	3	0	GIFT	635	1	n/a	0	n/a	n/a	n/a	n/a	n/a
3114433	RECOG_CONF	n/a	LTP100	ltpFR	15	3	0	GIFT	635	n/a	5	0	n/a	n/a	n/a	n/a	n/a
3115710	RECOG_TARGET	n/a	LTP100	ltpFR	15	3	1	BELT	120	1	5	0	n/a	n/a	n/a	n/a	n/a
3116259	RECOG_RESP	n/a	LTP100	ltpFR	15	3	1	BELT	120	1	n/a	0	n/a	n/a	n/a	n/a	n/a
3116908	RECOG_CONF	n/a	LTP100	ltpFR	15	3	1	BELT	120	n/a	5	0	n/a	n/a	n/a	n/a	n/a
3118568	RECOG_TARGET	n/a	LTP100	ltpFR	15	3	0	CAPTIVE	240	1	5	1	n/a	n/a	n/a	n/a	n/a
3119203	RECOG_RESP	n/a	LTP100	ltpFR	15	3	0	CAPTIVE	240	1	n/a	1	n/a	n/a	n/a	n/a	n/a
3119831	RECOG_CONF	n/a	LTP100	ltpFR	15	3	0	CAPTIVE	240	n/a	5	1	n/a	n/a	n/a	n/a	n/a
3121133	RECOG_TARGET	n/a	LTP100	ltpFR	15	3	0	SWAMP	1416	1	5	1	n/a	n/a	n/a	n/a	n/a
3121772	RECOG_RESP	n/a	LTP100	ltpFR	15	3	0	SWAMP	1416	1	n/a	1	n/a	n/a	n/a	n/a	n/a
3122365	RECOG_CONF	n/a	LTP100	ltpFR	15	3	0	SWAMP	1416	n/a	5	1	n/a	n/a	n/a	n/a	n/a
3123776	RECOG_TARGET	n/a	LTP100	ltpFR	15	3	-1	TEACHER	1440	1	5	-1	n/a	n/a	n/a	n/a	n/a
3125369	RECOG_RESP	n/a	LTP100	ltpFR	15	3	-1	TEACHER	1440	1	n/a	-1	n/a	n/a	n/a	n/a	n/a
3126676	RECOG_CONF	n/a	LTP100	ltpFR	15	3	-1	TEACHER	1440	n/a	5	-1	n/a	n/a	n/a	n/a	n/a
3128324	RECOG_LURE	n/a	LTP100	ltpFR	15	3	n/a	BEER	114	0	5	n/a	n/a	n/a	n/a	n/a	n/a
3129170	RECOG_RESP	n/a	LTP100	ltpFR	15	3	n/a	BEER	114	0	n/a	n/a	n/a	n/a	n/a	n/a	n/a
3129699	RECOG_CONF	n/a	LTP100	ltpFR	15	3	n/a	BEER	114	n/a	5	n/a	n/a	n/a	n/a	n/a	n/a
3131307	RECOG_TARGET	n/a	LTP100	ltpFR	15	3	0	CUP	424	1	5	0	n/a	n/a	n/a	n/a	n/a
3131894	RECOG_RESP	n/a	LTP100	ltpFR	15	3	0	CUP	424	1	n/a	0	n/a	n/a	n/a	n/a	n/a
3132562	RECOG_CONF	n/a	LTP100	ltpFR	15	3	0	CUP	424	n/a	5	0	n/a	n/a	n/a	n/a	n/a
3133974	RECOG_TARGET	n/a	LTP100	ltpFR	15	3	1	MATCH	878	1	5	0	n/a	n/a	n/a	n/a	n/a
3134677	RECOG_RESP	n/a	LTP100	ltpFR	15	3	1	MATCH	878	1	n/a	0	n/a	n/a	n/a	n/a	n/a
3135346	RECOG_CONF	n/a	LTP100	ltpFR	15	3	1	MATCH	878	n/a	5	0	n/a	n/a	n/a	n/a	n/a
3136658	RECOG_LURE	n/a	LTP100	ltpFR	15	3	n/a	DRIVEWAY	500	0	3	n/a	n/a	n/a	n/a	n/a	n/a
3137336	RECOG_RESP	n/a	LTP100	ltpFR	15	3	n/a	DRIVEWAY	500	0	n/a	n/a	n/a	n/a	n/a	n/a	n/a
3137990	RECOG_CONF	n/a	LTP100	ltpFR	15	3	n/a	DRIVEWAY	500	n/a	3	n/a	n/a	n/a	n/a	n/a	n/a
3139323	RECOG_TARGET	n/a	LTP100	ltpFR	15	3	-1	KID	775	1	5	-1	n/a	n/a	n/a	n/a	n/a
3140130	RECOG_RESP	n/a	LTP100	ltpFR	15	3	-1	KID	775	1	n/a	-1	n/a	n/a	n/a	n/a	n/a
3140814	RECOG_CONF	n/a	LTP100	ltpFR	15	3	-1	KID	775	n/a	5	-1	n/a	n/a	n/a	n/a	n/a
3142215	RECOG_TARGET	n/a	LTP100	ltpFR	15	3	0	LAVA	804	1	5	1	n/a	n/a	n/a	n/a	n/a
3142834	RECOG_RESP	n/a	LTP100	ltpFR	15	3	0	LAVA	804	1	n/a	1	n/a	n/a	n/a	n/a	n/a
3143458	RECOG_CONF	n/a	LTP100	ltpFR	15	3	0	LAVA	804	n/a	5	1	n/a	n/a	n/a	n/a	n/a
3144848	RECOG_TARGET	n/a	LTP100	ltpFR	15	3	-1	GROUND	666	0	2	-1	n/a	n/a	n/a	n/a	n/a
3145568	RECOG_RESP	n/a	LTP100	ltpFR	15	3	-1	GROUND	666	0	n/a	-1	n/a	n/a	n/a	n/a	n/a
3146461	RECOG_CONF	n/a	LTP100	ltpFR	15	3	-1	GROUND	666	n/a	2	-1	n/a	n/a	n/a	n/a	n/a
3147923	RECOG_TARGET	n/a	LTP100	ltpFR	15	3	-1	DRAGON	492	1	5	-1	n/a	n/a	n/a	n/a	n/a
3148526	RECOG_RESP_VV	n/a	LTP100	ltpFR	15	3	-1	DRAGON	492	1	n/a	-1	n/a	n/a	n/a	n/a	n/a
3148536	RECOG_RESP	n/a	LTP100	ltpFR	15	3	-1	DRAGON	492	1	n/a	-1	n/a	n/a	n/a	n/a	n/a
3149095	RECOG_CONF	n/a	LTP100	ltpFR	15	3	-1	DRAGON	492	n/a	5	-1	n/a	n/a	n/a	n/a	n/a
3150473	RECOG_TARGET	n/a	LTP100	ltpFR	15	3	1	BOAT	144	1	5	0	n/a	n/a	n/a	n/a	n/a
3151155	RECOG_RESP	n/a	LTP100	ltpFR	15	3	1	BOAT	144	1	n/a	0	n/a	n/a	n/a	n/a	n/a
3151719	RECOG_CONF	n/a	LTP100	ltpFR	15	3	1	BOAT	144	n/a	5	0	n/a	n/a	n/a	n/a	n/a
3153139	RECOG_LURE	n/a	LTP100	ltpFR	15	3	n/a	LOFT	840	0	2	n/a	n/a	n/a	n/a	n/a	n/a
3153734	RECOG_RESP	n/a	LTP100	ltpFR	15	3	n/a	LOFT	840	0	n/a	n/a	n/a	n/a	n/a	n/a	n/a
3154842	RECOG_CONF	n/a	LTP100	ltpFR	15	3	n/a	LOFT	840	n/a	2	n/a	n/a	n/a	n/a	n/a	n/a
3156197	RECOG_LURE	n/a	LTP100	ltpFR	15	3	n/a	DEPARTMENT	449	1	2	n/a	n/a	n/a	n/a	n/a	n/a
3157231	RECOG_RESP	n/a	LTP100	ltpFR	15	3	n/a	DEPARTMENT	449	1	n/a	n/a	n/a	n/a	n/a	n/a	n/a
3157975	RECOG_CONF	n/a	LTP100	ltpFR	15	3	n/a	DEPARTMENT	449	n/a	2	n/a	n/a	n/a	n/a	n/a	n/a
3159330	RECOG_TARGET	n/a	LTP100	ltpFR	15	3	0	BASEBALL	93	1	5	0	n/a	n/a	n/a	n/a	n/a
3159840	RECOG_RESP	n/a	LTP100	ltpFR	15	3	0	BASEBALL	93	1	n/a	0	n/a	n/a	n/a	n/a	n/a
3160459	RECOG_CONF	n/a	LTP100	ltpFR	15	3	0	BASEBALL	93	n/a	5	0	n/a	n/a	n/a	n/a	n/a
3170632	REC_START	n/a	LTP100	ltpFR	15	4	n/a	n/a	n/a	n/a	n/a	n/a	n/a	n/a	n/a	n/a	n/a
3170672	RECOG_LURE	n/a	LTP100	ltpFR	15	4	n/a	DIAMOND	458	0	2	n/a	n/a	n/a	n/a	n/a	n/a
3172208	RECOG_RESP	n/a	LTP100	ltpFR	15	4	n/a	DIAMOND	458	0	n/a	n/a	n/a	n/a	n/a	n/a	n/a
3172981	RECOG_CONF	n/a	LTP100	ltpFR	15	4	n/a	DIAMOND	458	n/a	2	n/a	n/a	n/a	n/a	n/a	n/a
3174555	RECOG_TARGET	n/a	LTP100	ltpFR	15	4	-1	GRASS	655	1	5	-1	n/a	n/a	n/a	n/a	n/a
3175082	RECOG_RESP	n/a	LTP100	ltpFR	15	4	-1	GRASS	655	1	n/a	-1	n/a	n/a	n/a	n/a	n/a
3175685	RECOG_CONF	n/a	LTP100	ltpFR	15	4	-1	GRASS	655	n/a	5	-1	n/a	n/a	n/a	n/a	n/a
3177029	RECOG_TARGET	n/a	LTP100	ltpFR	15	4	0	PAINTER	1004	1	4	1	n/a	n/a	n/a	n/a	n/a
3177706	RECOG_RESP	n/a	LTP100	ltpFR	15	4	0	PAINTER	1004	1	n/a	1	n/a	n/a	n/a	n/a	n/a
3178315	RECOG_CONF	n/a	LTP100	ltpFR	15	4	0	PAINTER	1004	n/a	4	1	n/a	n/a	n/a	n/a	n/a
3179879	RECOG_LURE	n/a	LTP100	ltpFR	15	4	n/a	CHESS	294	0	2	n/a	n/a	n/a	n/a	n/a	n/a
3180744	RECOG_RESP	n/a	LTP100	ltpFR	15	4	n/a	CHESS	294	0	n/a	n/a	n/a	n/a	n/a	n/a	n/a
3181602	RECOG_CONF	n/a	LTP100	ltpFR	15	4	n/a	CHESS	294	n/a	2	n/a	n/a	n/a	n/a	n/a	n/a
3183037	RECOG_TARGET	n/a	LTP100	ltpFR	15	4	-1	EMERALD	528	1	3	-1	n/a	n/a	n/a	n/a	n/a
3183667	RECOG_RESP	n/a	LTP100	ltpFR	15	4	-1	EMERALD	528	1	n/a	-1	n/a	n/a	n/a	n/a	n/a
3184485	RECOG_CONF	n/a	LTP100	ltpFR	15	4	-1	EMERALD	528	n/a	3	-1	n/a	n/a	n/a	n/a	n/a
3185754	RECOG_TARGET	n/a	LTP100	ltpFR	15	4	-1	RAFT	1159	1	5	-1	n/a	n/a	n/a	n/a	n/a
3186376	RECOG_RESP	n/a	LTP100	ltpFR	15	4	-1	RAFT	1159	1	n/a	-1	n/a	n/a	n/a	n/a	n/a
3186930	RECOG_CONF	n/a	LTP100	ltpFR	15	4	-1	RAFT	1159	n/a	5	-1	n/a	n/a	n/a	n/a	n/a
3188178	RECOG_TARGET	n/a	LTP100	ltpFR	15	4	1	CRIB	407	1	2	0	n/a	n/a	n/a	n/a	n/a
3189080	RECOG_RESP	n/a	LTP100	ltpFR	15	4	1	CRIB	407	1	n/a	0	n/a	n/a	n/a	n/a	n/a
3189654	RECOG_CONF	n/a	LTP100	ltpFR	15	4	1	CRIB	407	n/a	2	0	n/a	n/a	n/a	n/a	n/a
3191069	RECOG_TARGET	n/a	LTP100	ltpFR	15	4	0	WHIP	1604	1	5	1	n/a	n/a	n/a	n/a	n/a
3191544	RECOG_RESP	n/a	LTP100	ltpFR	15	4	0	WHIP	1604	1	n/a	1	n/a	n/a	n/a	n/a	n/a
3192153	RECOG_CONF	n/a	LTP100	ltpFR	15	4	0	WHIP	1604	n/a	5	1	n/a	n/a	n/a	n/a	n/a
3193645	RECOG_TARGET	n/a	LTP100	ltpFR	15	4	1	GREASE	660	1	5	0	n/a	n/a	n/a	n/a	n/a
3194493	RECOG_RESP	n/a	LTP100	ltpFR	15	4	1	GREASE	660	1	n/a	0	n/a	n/a	n/a	n/a	n/a
3195081	RECOG_CONF	n/a	LTP100	ltpFR	15	4	1	GREASE	660	n/a	5	0	n/a	n/a	n/a	n/a	n/a
3196461	RECOG_TARGET	n/a	LTP100	ltpFR	15	4	1	FRIEND	606	1	5	1	n/a	n/a	n/a	n/a	n/a
3197082	RECOG_RESP	n/a	LTP100	ltpFR	15	4	1	FRIEND	606	1	n/a	1	n/a	n/a	n/a	n/a	n/a
3197705	RECOG_CONF	n/a	LTP100	ltpFR	15	4	1	FRIEND	606	n/a	5	1	n/a	n/a	n/a	n/a	n/a
3199119	RECOG_TARGET	n/a	LTP100	ltpFR	15	4	-1	COLLEGE	346	1	3	-1	n/a	n/a	n/a	n/a	n/a
3199691	RECOG_RESP	n/a	LTP100	ltpFR	15	4	-1	COLLEGE	346	1	n/a	-1	n/a	n/a	n/a	n/a	n/a
3200539	RECOG_CONF	n/a	LTP100	ltpFR	15	4	-1	COLLEGE	346	n/a	3	-1	n/a	n/a	n/a	n/a	n/a
3201885	RECOG_TARGET	n/a	LTP100	ltpFR	15	4	-1	CANVAS	234	1	5	-1	n/a	n/a	n/a	n/a	n/a
3202464	RECOG_RESP	n/a	LTP100	ltpFR	15	4	-1	CANVAS	234	1	n/a	-1	n/a	n/a	n/a	n/a	n/a
3203173	RECOG_CONF	n/a	LTP100	ltpFR	15	4	-1	CANVAS	234	n/a	5	-1	n/a	n/a	n/a	n/a	n/a
3204553	RECOG_TARGET	n/a	LTP100	ltpFR	15	4	1	BRUSH	182	1	2	0	n/a	n/a	n/a	n/a	n/a
3206795	RECOG_RESP	n/a	LTP100	ltpFR	15	4	1	BRUSH	182	1	n/a	0	n/a	n/a	n/a	n/a	n/a
3207683	RECOG_CONF	n/a	LTP100	ltpFR	15	4	1	BRUSH	182	n/a	2	0	n/a	n/a	n/a	n/a	n/a
3209143	RECOG_LURE	n/a	LTP100	ltpFR	15	4	n/a	NOTE	958	0	3	n/a	n/a	n/a	n/a	n/a	n/a
3210172	RECOG_RESP	n/a	LTP100	ltpFR	15	4	n/a	NOTE	958	0	n/a	n/a	n/a	n/a	n/a	n/a	n/a
3211045	RECOG_CONF	n/a	LTP100	ltpFR	15	4	n/a	NOTE	958	n/a	3	n/a	n/a	n/a	n/a	n/a	n/a
3212509	RECOG_TARGET	n/a	LTP100	ltpFR	15	4	0	GROCERIES	663	0	4	1	n/a	n/a	n/a	n/a	n/a
3213380	RECOG_RESP	n/a	LTP100	ltpFR	15	4	0	GROCERIES	663	0	n/a	1	n/a	n/a	n/a	n/a	n/a
3214168	RECOG_CONF	n/a	LTP100	ltpFR	15	4	0	GROCERIES	663	n/a	4	1	n/a	n/a	n/a	n/a	n/a
3215693	RECOG_LURE	n/a	LTP100	ltpFR	15	4	n/a	PITCHFORK	1078	1	2	n/a	n/a	n/a	n/a	n/a	n/a
3217066	RECOG_RESP	n/a	LTP100	ltpFR	15	4	n/a	PITCHFORK	1078	1	n/a	n/a	n/a	n/a	n/a	n/a	n/a
3218059	RECOG_CONF	n/a	LTP100	ltpFR	15	4	n/a	PITCHFORK	1078	n/a	2	n/a	n/a	n/a	n/a	n/a	n/a
3219492	RECOG_TARGET	n/a	LTP100	ltpFR	15	4	1	PICKLE	1059	1	5	0	n/a	n/a	n/a	n/a	n/a
3220224	RECOG_RESP	n/a	LTP100	ltpFR	15	4	1	PICKLE	1059	1	n/a	0	n/a	n/a	n/a	n/a	n/a
3220743	RECOG_CONF	n/a	LTP100	ltpFR	15	4	1	PICKLE	1059	n/a	5	0	n/a	n/a	n/a	n/a	n/a
3222267	RECOG_LURE	n/a	LTP100	ltpFR	15	4	n/a	IGLOO	734	0	3	n/a	n/a	n/a	n/a	n/a	n/a
3223113	RECOG_RESP	n/a	LTP100	ltpFR	15	4	n/a	IGLOO	734	0	n/a	n/a	n/a	n/a	n/a	n/a	n/a
3223866	RECOG_CONF	n/a	LTP100	ltpFR	15	4	n/a	IGLOO	734	n/a	3	n/a	n/a	n/a	n/a	n/a	n/a
3225192	RECOG_LURE	n/a	LTP100	ltpFR	15	4	n/a	ELK	526	0	4	n/a	n/a	n/a	n/a	n/a	n/a
3225826	RECOG_RESP	n/a	LTP100	ltpFR	15	4	n/a	ELK	526	0	n/a	n/a	n/a	n/a	n/a	n/a	n/a
3226630	RECOG_CONF	n/a	LTP100	ltpFR	15	4	n/a	ELK	526	n/a	4	n/a	n/a	n/a	n/a	n/a	n/a
3227992	RECOG_TARGET	n/a	LTP100	ltpFR	15	4	1	COBRA	336	1	5	1	n/a	n/a	n/a	n/a	n/a
3228515	RECOG_RESP	n/a	LTP100	ltpFR	15	4	1	COBRA	336	1	n/a	1	n/a	n/a	n/a	n/a	n/a
3229192	RECOG_CONF	n/a	LTP100	ltpFR	15	4	1	COBRA	336	n/a	5	1	n/a	n/a	n/a	n/a	n/a
3232432	REC_START	n/a	LTP100	ltpFR	15	5	n/a	n/a	n/a	n/a	n/a	n/a	n/a	n/a	n/a	n/a	n/a
3232466	RECOG_TARGET	n/a	LTP100	ltpFR	15	5	0	CREATURE	403	1	5	1	n/a	n/a	n/a	n/a	n/a
3233085	RECOG_RESP	n/a	LTP100	ltpFR	15	5	0	CREATURE	403	1	n/a	1	n/a	n/a	n/a	n/a	n/a
3233654	RECOG_CONF	n/a	LTP100	ltpFR	15	5	0	CREATURE	403	n/a	5	1	n/a	n/a	n/a	n/a	n/a
3234999	RECOG_TARGET	n/a	LTP100	ltpFR	15	5	1	SUBWAY	1400	1	5	0	n/a	n/a	n/a	n/a	n/a
3235490	RECOG_RESP	n/a	LTP100	ltpFR	15	5	1	SUBWAY	1400	1	n/a	0	n/a	n/a	n/a	n/a	n/a
3236108	RECOG_CONF	n/a	LTP100	ltpFR	15	5	1	SUBWAY	1400	n/a	5	0	n/a	n/a	n/a	n/a	n/a
3237407	RECOG_TARGET	n/a	LTP100	ltpFR	15	5	1	CLAM	315	1	5	0	n/a	n/a	n/a	n/a	n/a
3237929	RECOG_RESP	n/a	LTP100	ltpFR	15	5	1	CLAM	315	1	n/a	0	n/a	n/a	n/a	n/a	n/a
3238511	RECOG_CONF	n/a	LTP100	ltpFR	15	5	1	CLAM	315	n/a	5	0	n/a	n/a	n/a	n/a	n/a
3239899	RECOG_TARGET	n/a	LTP100	ltpFR	15	5	1	SOFA	1342	1	4	0	n/a	n/a	n/a	n/a	n/a
3240339	RECOG_RESP	n/a	LTP100	ltpFR	15	5	1	SOFA	1342	1	n/a	0	n/a	n/a	n/a	n/a	n/a
3241177	RECOG_CONF	n/a	LTP100	ltpFR	15	5	1	SOFA	1342	n/a	4	0	n/a	n/a	n/a	n/a	n/a
3242591	RECOG_TARGET	n/a	LTP100	ltpFR	15	5	1	WOMAN	1620	1	5	1	n/a	n/a	n/a	n/a	n/a
3243083	RECOG_RESP	n/a	LTP100	ltpFR	15	5	1	WOMAN	1620	1	n/a	1	n/a	n/a	n/a	n/a	n/a
3243741	RECOG_CONF	n/a	LTP100	ltpFR	15	5	1	WOMAN	1620	n/a	5	1	n/a	n/a	n/a	n/a	n/a
3245132	RECOG_LURE	n/a	LTP100	ltpFR	15	5	n/a	BUBBLE	183	0	2	n/a	n/a	n/a	n/a	n/a	n/a
3245906	RECOG_RESP	n/a	LTP100	ltpFR	15	5	n/a	BUBBLE	183	0	n/a	n/a	n/a	n/a	n/a	n/a	n/a
3246804	RECOG_CONF	n/a	LTP100	ltpFR	15	5	n/a	BUBBLE	183	n/a	2	n/a	n/a	n/a	n/a	n/a	n/a
3248207	RECOG_TARGET	n/a	LTP100	ltpFR	15	5	-1	VAN	1548	1	2	-1	n/a	n/a	n/a	n/a	n/a
3248989	RECOG_RESP	n/a	LTP100	ltpFR	15	5	-1	VAN	1548	1	n/a	-1	n/a	n/a	n/a	n/a	n/a
3249817	RECOG_CONF	n/a	LTP100	ltpFR	15	5	-1	VAN	1548	n/a	2	-1	n/a	n/a	n/a	n/a	n/a
3251156	RECOG_TARGET	n/a	LTP100	ltpFR	15	5	-1	SIDING	1304	1	5	-1	n/a	n/a	n/a	n/a	n/a
3251838	RECOG_RESP	n/a	LTP100	ltpFR	15	5	-1	SIDING	1304	1	n/a	-1	n/a	n/a	n/a	n/a	n/a
3252461	RECOG_CONF	n/a	LTP100	ltpFR	15	5	-1	SIDING	1304	n/a	5	-1	n/a	n/a	n/a	n/a	n/a
3253873	RECOG_TARGET	n/a	LTP100	ltpFR	15	5	-1	COLUMN	350	0	2	-1	n/a	n/a	n/a	n/a	n/a
3254542	RECOG_RESP	n/a	LTP100	ltpFR	15	5	-1	COLUMN	350	0	n/a	-1	n/a	n/a	n/a	n/a	n/a
3255215	RECOG_CONF	n/a	LTP100	ltpFR	15	5	-1	COLUMN	350	n/a	2	-1	n/a	n/a	n/a	n/a	n/a
3256565	RECOG_LURE	n/a	LTP100	ltpFR	15	5	n/a	CAR	241	0	2	n/a	n/a	n/a	n/a	n/a	n/a
3257455	RECOG_RESP_VV	n/a	LTP100	ltpFR	15	5	n/a	CAR	241	0	n/a	n/a	n/a	n/a	n/a	n/a	n/a
3258248	RECOG_RESP	n/a	LTP100	ltpFR	15	5	n/a	CAR	241	0	n/a	n/a	n/a	n/a	n/a	n/a	n/a
3259495	RECOG_CONF	n/a	LTP100	ltpFR	15	5	n/a	CAR	241	n/a	2	n/a	n/a	n/a	n/a	n/a	n/a
3261006	RECOG_LURE	n/a	LTP100	ltpFR	15	5	n/a	CITY	314	1	2	n/a	n/a	n/a	n/a	n/a	n/a
3262374	RECOG_RESP	n/a	LTP100	ltpFR	15	5	n/a	CITY	314	1	n/a	n/a	n/a	n/a	n/a	n/a	n/a
3263227	RECOG_CONF	n/a	LTP100	ltpFR	15	5	n/a	CITY	314	n/a	2	n/a	n/a	n/a	n/a	n/a	n/a
3264606	RECOG_TARGET	n/a	LTP100	ltpFR	15	5	1	CROWN	415	1	5	0	n/a	n/a	n/a	n/a	n/a
3265272	RECOG_RESP	n/a	LTP100	ltpFR	15	5	1	CROWN	415	1	n/a	0	n/a	n/a	n/a	n/a	n/a
3265891	RECOG_CONF	n/a	LTP100	ltpFR	15	5	1	CROWN	415	n/a	5	0	n/a	n/a	n/a	n/a	n/a
3267297	RECOG_LURE	n/a	LTP100	ltpFR	15	5	n/a	QUARTER	1148	0	2	n/a	n/a	n/a	n/a	n/a	n/a
3268355	RECOG_RESP	n/a	LTP100	ltpFR	15	5	n/a	QUARTER	1148	0	n/a	n/a	n/a	n/a	n/a	n/a	n/a
3269064	RECOG_CONF	n/a	LTP100	ltpFR	15	5	n/a	QUARTER	1148	n/a	2	n/a	n/a	n/a	n/a	n/a	n/a
3270513	RECOG_TARGET	n/a	LTP100	ltpFR	15	5	1	CHURCH	307	1	1	0	n/a	n/a	n/a	n/a	n/a
3271298	RECOG_RESP	n/a	LTP100	ltpFR	15	5	1	CHURCH	307	1	n/a	0	n/a	n/a	n/a	n/a	n/a
3272606	RECOG_CONF	n/a	LTP100	ltpFR	15	5	1	CHURCH	307	n/a	1	0	n/a	n/a	n/a	n/a	n/a
3274196	RECOG_TARGET	n/a	LTP100	ltpFR	15	5	1	CHIMPANZEE	302	1	5	1	n/a	n/a	n/a	n/a	n/a
3274830	RECOG_RESP	n/a	LTP100	ltpFR	15	5	1	CHIMPANZEE	302	1	n/a	1	n/a	n/a	n/a	n/a	n/a
3275399	RECOG_CONF	n/a	LTP100	ltpFR	15	5	1	CHIMPANZEE	302	n/a	5	1	n/a	n/a	n/a	n/a	n/a
3276805	RECOG_TARGET	n/a	LTP100	ltpFR	15	5	0	GUARD	667	1	4	1	n/a	n/a	n/a	n/a	n/a
3277395	RECOG_RESP	n/a	LTP100	ltpFR	15	5	0	GUARD	667	1	n/a	1	n/a	n/a	n/a	n/a	n/a
3277993	RECOG_CONF	n/a	LTP100	ltpFR	15	5	0	GUARD	667	n/a	4	1	n/a	n/a	n/a	n/a	n/a
3279471	RECOG_TARGET	n/a	LTP100	ltpFR	15	5	1	LEAF	808	1	2	0	n/a	n/a	n/a	n/a	n/a
3280034	RECOG_RESP	n/a	LTP100	ltpFR	15	5	1	LEAF	808	1	n/a	0	n/a	n/a	n/a	n/a	n/a
3280677	RECOG_CONF	n/a	LTP100	ltpFR	15	5	1	LEAF	808	n/a	2	0	n/a	n/a	n/a	n/a	n/a
3282162	RECOG_TARGET	n/a	LTP100	ltpFR	15	5	0	BUS	201	0	1	1	n/a	n/a	n/a	n/a	n/a
3282917	RECOG_RESP	n/a	LTP100	ltpFR	15	5	0	BUS	201	0	n/a	1	n/a	n/a	n/a	n/a	n/a
3283850	RECOG_CONF	n/a	LTP100	ltpFR	15	5	0	BUS	201	n/a	1	1	n/a	n/a	n/a	n/a	n/a
3285329	RECOG_LURE	n/a	LTP100	ltpFR	15	5	n/a	RUST	1219	1	1	n/a	n/a	n/a	n/a	n/a	n/a
3285941	RECOG_RESP	n/a	LTP100	ltpFR	15	5	n/a	RUST	1219	1	n/a	n/a	n/a	n/a	n/a	n/a	n/a
3286913	RECOG_CONF	n/a	LTP100	ltpFR	15	5	n/a	RUST	1219	n/a	1	n/a	n/a	n/a	n/a	n/a	n/a
3288412	RECOG_TARGET	n/a	LTP100	ltpFR	15	5	0	BUG	187	1	5	0	n/a	n/a	n/a	n/a	n/a
3289143	RECOG_RESP	n/a	LTP100	ltpFR	15	5	0	BUG	187	1	n/a	0	n/a	n/a	n/a	n/a	n/a
3289776	RECOG_CONF	n/a	LTP100	ltpFR	15	5	0	BUG	187	n/a	5	0	n/a	n/a	n/a	n/a	n/a
3294353	REC_START	n/a	LTP100	ltpFR	15	6	n/a	n/a	n/a	n/a	n/a	n/a	n/a	n/a	n/a	n/a	n/a
3294386	RECOG_LURE	n/a	LTP100	ltpFR	15	6	n/a	POLICE	1098	1	3	n/a	n/a	n/a	n/a	n/a	n/a
3295595	RECOG_RESP	n/a	LTP100	ltpFR	15	6	n/a	POLICE	1098	1	n/a	n/a	n/a	n/a	n/a	n/a	n/a
3296234	RECOG_CONF	n/a	LTP100	ltpFR	15	6	n/a	POLICE	1098	n/a	3	n/a	n/a	n/a	n/a	n/a	n/a
3297595	RECOG_TARGET	n/a	LTP100	ltpFR	15	6	1	NOMAD	955	1	5	1	n/a	n/a	n/a	n/a	n/a
3298498	RECOG_RESP	n/a	LTP100	ltpFR	15	6	1	NOMAD	955	1	n/a	1	n/a	n/a	n/a	n/a	n/a
3299077	RECOG_CONF	n/a	LTP100	ltpFR	15	6	1	NOMAD	955	n/a	5	1	n/a	n/a	n/a	n/a	n/a
3300369	RECOG_TARGET	n/a	LTP100	ltpFR	15	6	-1	FIG	563	0	4	-1	n/a	n/a	n/a	n/a	n/a
3301107	RECOG_RESP	n/a	LTP100	ltpFR	15	6	-1	FIG	563	0	n/a	-1	n/a	n/a	n/a	n/a	n/a
3301851	RECOG_CONF	n/a	LTP100	ltpFR	15	6	-1	FIG	563	n/a	4	-1	n/a	n/a	n/a	n/a	n/a
3303152	RECOG_TARGET	n/a	LTP100	ltpFR	15	6	1	SMOG	1330	1	3	0	n/a	n/a	n/a	n/a	n/a
3304345	RECOG_RESP	n/a	LTP100	ltpFR	15	6	1	SMOG	1330	1	n/a	0	n/a	n/a	n/a	n/a	n/a
3305103	RECOG_CONF	n/a	LTP100	ltpFR	15	6	1	SMOG	1330	n/a	3	0	n/a	n/a	n/a	n/a	n/a
3306394	RECOG_TARGET	n/a	LTP100	ltpFR	15	6	0	ROAD	1196	1	5	1	n/a	n/a	n/a	n/a	n/a
3307089	RECOG_RESP	n/a	LTP100	ltpFR	15	6	0	ROAD	1196	1	n/a	1	n/a	n/a	n/a	n/a	n/a
3307638	RECOG_CONF	n/a	LTP100	ltpFR	15	6	0	ROAD	1196	n/a	5	1	n/a	n/a	n/a	n/a	n/a
3308960	RECOG_TARGET	n/a	LTP100	ltpFR	15	6	1	LOVER	846	1	5	1	n/a	n/a	n/a	n/a	n/a
3309568	RECOG_RESP	n/a	LTP100	ltpFR	15	6	1	LOVER	846	1	n/a	1	n/a	n/a	n/a	n/a	n/a
3310322	RECOG_CONF	n/a	LTP100	ltpFR	15	6	1	LOVER	846	n/a	5	1	n/a	n/a	n/a	n/a	n/a
3311794	RECOG_TARGET	n/a	LTP100	ltpFR	15	6	0	TURKEY	1520	1	5	0	n/a	n/a	n/a	n/a	n/a
3312397	RECOG_RESP	n/a	LTP100	ltpFR	15	6	0	TURKEY	1520	1	n/a	0	n/a	n/a	n/a	n/a	n/a
3313035	RECOG_CONF	n/a	LTP100	ltpFR	15	6	0	TURKEY	1520	n/a	5	0	n/a	n/a	n/a	n/a	n/a
3314401	RECOG_TARGET	n/a	LTP100	ltpFR	15	6	1	SAPPHIRE	1234	0	2	0	n/a	n/a	n/a	n/a	n/a
3315165	RECOG_RESP	n/a	LTP100	ltpFR	15	6	1	SAPPHIRE	1234	0	n/a	0	n/a	n/a	n/a	n/a	n/a
3315809	RECOG_CONF	n/a	LTP100	ltpFR	15	6	1	SAPPHIRE	1234	n/a	2	0	n/a	n/a	n/a	n/a	n/a
3317285	RECOG_TARGET	n/a	LTP100	ltpFR	15	6	0	TUNA	1518	1	5	0	n/a	n/a	n/a	n/a	n/a
3317790	RECOG_RESP	n/a	LTP100	ltpFR	15	6	0	TUNA	1518	1	n/a	0	n/a	n/a	n/a	n/a	n/a
3318363	RECOG_CONF	n/a	LTP100	ltpFR	15	6	0	TUNA	1518	n/a	5	0	n/a	n/a	n/a	n/a	n/a
3319777	RECOG_TARGET	n/a	LTP100	ltpFR	15	6	-1	VEGETABLE	1552	1	5	-1	n/a	n/a	n/a	n/a	n/a
3320473	RECOG_RESP	n/a	LTP100	ltpFR	15	6	-1	VEGETABLE	1552	1	n/a	-1	n/a	n/a	n/a	n/a	n/a
3321327	RECOG_CONF	n/a	LTP100	ltpFR	15	6	-1	VEGETABLE	1552	n/a	5	-1	n/a	n/a	n/a	n/a	n/a
3322735	RECOG_TARGET	n/a	LTP100	ltpFR	15	6	0	TOWEL	1489	1	5	0	n/a	n/a	n/a	n/a	n/a
3323427	RECOG_RESP	n/a	LTP100	ltpFR	15	6	0	TOWEL	1489	1	n/a	0	n/a	n/a	n/a	n/a	n/a
3324030	RECOG_CONF	n/a	LTP100	ltpFR	15	6	0	TOWEL	1489	n/a	5	0	n/a	n/a	n/a	n/a	n/a
3325401	RECOG_TARGET	n/a	LTP100	ltpFR	15	6	1	MOTH	920	1	1	0	n/a	n/a	n/a	n/a	n/a
3326185	RECOG_RESP	n/a	LTP100	ltpFR	15	6	1	MOTH	920	1	n/a	0	n/a	n/a	n/a	n/a	n/a
3327483	RECOG_CONF	n/a	LTP100	ltpFR	15	6	1	MOTH	920	n/a	1	0	n/a	n/a	n/a	n/a	n/a
3328942	RECOG_LURE	n/a	LTP100	ltpFR	15	6	n/a	EMPEROR	529	0	2	n/a	n/a	n/a	n/a	n/a	n/a
3329608	RECOG_RESP	n/a	LTP100	ltpFR	15	6	n/a	EMPEROR	529	0	n/a	n/a	n/a	n/a	n/a	n/a	n/a
3330236	RECOG_CONF	n/a	LTP100	ltpFR	15	6	n/a	EMPEROR	529	n/a	2	n/a	n/a	n/a	n/a	n/a	n/a
3331684	RECOG_TARGET	n/a	LTP100	ltpFR	15	6	-1	CLASS	318	1	5	-1	n/a	n/a	n/a	n/a	n/a
3332302	RECOG_RESP	n/a	LTP100	ltpFR	15	6	-1	CLASS	318	1	n/a	-1	n/a	n/a	n/a	n/a	n/a
3333000	RECOG_CONF	n/a	LTP100	ltpFR	15	6	-1	CLASS	318	n/a	5	-1	n/a	n/a	n/a	n/a	n/a
3334292	RECOG_LURE	n/a	LTP100	ltpFR	15	6	n/a	WICK	1607	0	2	n/a	n/a	n/a	n/a	n/a	n/a
3334960	RECOG_RESP	n/a	LTP100	ltpFR	15	6	n/a	WICK	1607	0	n/a	n/a	n/a	n/a	n/a	n/a	n/a
3335704	RECOG_CONF	n/a	LTP100	ltpFR	15	6	n/a	WICK	1607	n/a	2	n/a	n/a	n/a	n/a	n/a	n/a
3337025	RECOG_TARGET	n/a	LTP100	ltpFR	15	6	1	JET	756	1	5	0	n/a	n/a	n/a	n/a	n/a
3337829	RECOG_RESP	n/a	LTP100	ltpFR	15	6	1	JET	756	1	n/a	0	n/a	n/a	n/a	n/a	n/a
3338378	RECOG_CONF	n/a	LTP100	ltpFR	15	6	1	JET	756	n/a	5	0	n/a	n/a	n/a	n/a	n/a
3339908	RECOG_LURE	n/a	LTP100	ltpFR	15	6	n/a	SHRUB	1299	0	3	n/a	n/a	n/a	n/a	n/a	n/a
3340673	RECOG_RESP_VV	n/a	LTP100	ltpFR	15	6	n/a	SHRUB	1299	0	n/a	n/a	n/a	n/a	n/a	n/a	n/a
3340683	RECOG_RESP	n/a	LTP100	ltpFR	15	6	n/a	SHRUB	1299	0	n/a	n/a	n/a	n/a	n/a	n/a	n/a
3341351	RECOG_CONF	n/a	LTP100	ltpFR	15	6	n/a	SHRUB	1299	n/a	3	n/a	n/a	n/a	n/a	n/a	n/a
3342709	RECOG_LURE	n/a	LTP100	ltpFR	15	6	n/a	STAMP	1370	1	2	n/a	n/a	n/a	n/a	n/a	n/a
3343222	RECOG_RESP	n/a	LTP100	ltpFR	15	6	n/a	STAMP	1370	1	n/a	n/a	n/a	n/a	n/a	n/a	n/a
3343885	RECOG_CONF	n/a	LTP100	ltpFR	15	6	n/a	STAMP	1370	n/a	2	n/a	n/a	n/a	n/a	n/a	n/a
3345357	RECOG_TARGET	n/a	LTP100	ltpFR	15	6	1	PASSENGER	1020	1	5	0	n/a	n/a	n/a	n/a	n/a
3345956	RECOG_RESP	n/a	LTP100	ltpFR	15	6	1	PASSENGER	1020	1	n/a	0	n/a	n/a	n/a	n/a	n/a
3346549	RECOG_CONF	n/a	LTP100	ltpFR	15	6	1	PASSENGER	1020	n/a	5	0	n/a	n/a	n/a	n/a	n/a
3347941	RECOG_TARGET	n/a	LTP100	ltpFR	15	6	1	LAWN	805	1	2	0	n/a	n/a	n/a	n/a	n/a
3348714	RECOG_RESP	n/a	LTP100	ltpFR	15	6	1	LAWN	805	1	n/a	0	n/a	n/a	n/a	n/a	n/a
3349323	RECOG_CONF	n/a	LTP100	ltpFR	15	6	1	LAWN	805	n/a	2	0	n/a	n/a	n/a	n/a	n/a
3353146	REC_START	n/a	LTP100	ltpFR	15	7	n/a	n/a	n/a	n/a	n/a	n/a	n/a	n/a	n/a	n/a	n/a
3353182	RECOG_TARGET	n/a	LTP100	ltpFR	15	7	0	TOY	1492	1	5	0	n/a	n/a	n/a	n/a	n/a
3353944	RECOG_RESP	n/a	LTP100	ltpFR	15	7	0	TOY	1492	1	n/a	0	n/a	n/a	n/a	n/a	n/a
3354657	RECOG_CONF	n/a	LTP100	ltpFR	15	7	0	TOY	1492	n/a	5	0	n/a	n/a	n/a	n/a	n/a
3355998	RECOG_TARGET	n/a	LTP100	ltpFR	15	7	1	ROOT	1210	1	5	0	n/a	n/a	n/a	n/a	n/a
3356533	RECOG_RESP	n/a	LTP100	ltpFR	15	7	1	ROOT	1210	1	n/a	0	n/a	n/a	n/a	n/a	n/a
3357212	RECOG_CONF	n/a	LTP100	ltpFR	15	7	1	ROOT	1210	n/a	5	0	n/a	n/a	n/a	n/a	n/a
3358749	RECOG_TARGET	n/a	LTP100	ltpFR	15	7	0	PRESIDENT	1121	1	5	1	n/a	n/a	n/a	n/a	n/a
3359152	RECOG_RESP	n/a	LTP100	ltpFR	15	7	0	PRESIDENT	1121	1	n/a	1	n/a	n/a	n/a	n/a	n/a
3359975	RECOG_CONF	n/a	LTP100	ltpFR	15	7	0	PRESIDENT	1121	n/a	5	1	n/a	n/a	n/a	n/a	n/a
3361273	RECOG_TARGET	n/a	LTP100	ltpFR	15	7	-1	XEROX	1628	1	3	-1	n/a	n/a	n/a	n/a	n/a
3362001	RECOG_RESP	n/a	LTP100	ltpFR	15	7	-1	XEROX	1628	1	n/a	-1	n/a	n/a	n/a	n/a	n/a
3362879	RECOG_CONF	n/a	LTP100	ltpFR	15	7	-1	XEROX	1628	n/a	3	-1	n/a	n/a	n/a	n/a	n/a
3364231	RECOG_TARGET	n/a	LTP100	ltpFR	15	7	0	BOX	159	1	5	0	n/a	n/a	n/a	n/a	n/a
3365328	RECOG_RESP	n/a	LTP100	ltpFR	15	7	0	BOX	159	1	n/a	0	n/a	n/a	n/a	n/a	n/a
3366032	RECOG_CONF	n/a	LTP100	ltpFR	15	7	0	BOX	159	n/a	5	0	n/a	n/a	n/a	n/a	n/a
3367464	RECOG_TARGET	n/a	LTP100	ltpFR	15	7	-1	PRAIRIE	1118	1	5	-1	n/a	n/a	n/a	n/a	n/a
3368241	RECOG_RESP	n/a	LTP100	ltpFR	15	7	-1	PRAIRIE	1118	1	n/a	-1	n/a	n/a	n/a	n/a	n/a
3368935	RECOG_CONF	n/a	LTP100	ltpFR	15	7	-1	PRAIRIE	1118	n/a	5	-1	n/a	n/a	n/a	n/a	n/a
3370205	RECOG_TARGET	n/a	LTP100	ltpFR	15	7	0	ATMOSPHERE	54	1	4	1	n/a	n/a	n/a	n/a	n/a
3371075	RECOG_RESP	n/a	LTP100	ltpFR	15	7	0	ATMOSPHERE	54	1	n/a	1	n/a	n/a	n/a	n/a	n/a
3371778	RECOG_CONF	n/a	LTP100	ltpFR	15	7	0	ATMOSPHERE	54	n/a	4	1	n/a	n/a	n/a	n/a	n/a
3373047	RECOG_TARGET	n/a	LTP100	ltpFR	15	7	0	STAPLE	1371	1	5	0	n/a	n/a	n/a	n/a	n/a
3373674	RECOG_RESP	n/a	LTP100	ltpFR	15	7	0	STAPLE	1371	1	n/a	0	n/a	n/a	n/a	n/a	n/a
3374241	RECOG_CONF	n/a	LTP100	ltpFR	15	7	0	STAPLE	1371	n/a	5	0	n/a	n/a	n/a	n/a	n/a
3375798	RECOG_TARGET	n/a	LTP100	ltpFR	15	7	1	LIEUTENANT	818	1	5	0	n/a	n/a	n/a	n/a	n/a
3376323	RECOG_RESP	n/a	LTP100	ltpFR	15	7	1	LIEUTENANT	818	1	n/a	0	n/a	n/a	n/a	n/a	n/a
3377196	RECOG_CONF	n/a	LTP100	ltpFR	15	7	1	LIEUTENANT	818	n/a	5	0	n/a	n/a	n/a	n/a	n/a
3378513	RECOG_TARGET	n/a	LTP100	ltpFR	15	7	-1	BRIDGE	174	1	5	-1	n/a	n/a	n/a	n/a	n/a
3378987	RECOG_RESP	n/a	LTP100	ltpFR	15	7	-1	BRIDGE	174	1	n/a	-1	n/a	n/a	n/a	n/a	n/a
3379631	RECOG_CONF	n/a	LTP100	ltpFR	15	7	-1	BRIDGE	174	n/a	5	-1	n/a	n/a	n/a	n/a	n/a
3380938	RECOG_TARGET	n/a	LTP100	ltpFR	15	7	1	PUPIL	1143	1	1	0	n/a	n/a	n/a	n/a	n/a
3381990	RECOG_RESP	n/a	LTP100	ltpFR	15	7	1	PUPIL	1143	1	n/a	0	n/a	n/a	n/a	n/a	n/a
3382943	RECOG_CONF	n/a	LTP100	ltpFR	15	7	1	PUPIL	1143	n/a	1	0	n/a	n/a	n/a	n/a	n/a
3384404	RECOG_LURE	n/a	LTP100	ltpFR	15	7	n/a	CHEERLEADER	288	0	3	n/a	n/a	n/a	n/a	n/a	n/a
3385208	RECOG_RESP	n/a	LTP100	ltpFR	15	7	n/a	CHEERLEADER	288	0	n/a	n/a	n/a	n/a	n/a	n/a	n/a
3385986	RECOG_CONF	n/a	LTP100	ltpFR	15	7	n/a	CHEERLEADER	288	n/a	3	n/a	n/a	n/a	n/a	n/a	n/a
3387338	RECOG_TARGET	n/a	LTP100	ltpFR	15	7	-1	SKIRT	1319	1	1	-1	n/a	n/a	n/a	n/a	n/a
3387992	RECOG_RESP	n/a	LTP100	ltpFR	15	7	-1	SKIRT	1319	1	n/a	-1	n/a	n/a	n/a	n/a	n/a
3388790	RECOG_CONF	n/a	LTP100	ltpFR	15	7	-1	SKIRT	1319	n/a	1	-1	n/a	n/a	n/a	n/a	n/a
3390196	RECOG_TARGET	n/a	LTP100	ltpFR	15	7	1	PARCEL	1012	1	1	0	n/a	n/a	n/a	n/a	n/a
3390785	RECOG_RESP	n/a	LTP100	ltpFR	15	7	1	PARCEL	1012	1	n/a	0	n/a	n/a	n/a	n/a	n/a
3391554	RECOG_CONF	n/a	LTP100	ltpFR	15	7	1	PARCEL	1012	n/a	1	0	n/a	n/a	n/a	n/a	n/a
3393079	RECOG_TARGET	n/a	LTP100	ltpFR	15	7	-1	PEN	1041	1	5	-1	n/a	n/a	n/a	n/a	n/a
3393888	RECOG_RESP	n/a	LTP100	ltpFR	15	7	-1	PEN	1041	1	n/a	-1	n/a	n/a	n/a	n/a	n/a
3394557	RECOG_CONF	n/a	LTP100	ltpFR	15	7	-1	PEN	1041	n/a	5	-1	n/a	n/a	n/a	n/a	n/a
3395912	RECOG_TARGET	n/a	LTP100	ltpFR	15	7	1	SKILLET	1317	0	2	0	n/a	n/a	n/a	n/a	n/a
3396572	RECOG_RESP	n/a	LTP100	ltpFR	15	7	1	SKILLET	1317	0	n/a	0	n/a	n/a	n/a	n/a	n/a
3397181	RECOG_CONF	n/a	LTP100	ltpFR	15	7	1	SKILLET	1317	n/a	2	0	n/a	n/a	n/a	n/a	n/a
3398538	RECOG_LURE	n/a	LTP100	ltpFR	15	7	n/a	WALL	1582	0	2	n/a	n/a	n/a	n/a	n/a	n/a
3400618	RECOG_RESP	n/a	LTP100	ltpFR	15	7	n/a	WALL	1582	0	n/a	n/a	n/a	n/a	n/a	n/a	n/a
3401471	RECOG_CONF	n/a	LTP100	ltpFR	15	7	n/a	WALL	1582	n/a	2	n/a	n/a	n/a	n/a	n/a	n/a
3403053	RECOG_TARGET	n/a	LTP100	ltpFR	15	7	-1	DOCK	477	1	2	-1	n/a	n/a	n/a	n/a	n/a
3403616	RECOG_RESP	n/a	LTP100	ltpFR	15	7	-1	DOCK	477	1	n/a	-1	n/a	n/a	n/a	n/a	n/a
3404614	RECOG_CONF	n/a	LTP100	ltpFR	15	7	-1	DOCK	477	n/a	2	-1	n/a	n/a	n/a	n/a	n/a
3405928	RECOG_TARGET	n/a	LTP100	ltpFR	15	7	1	MICROSCOPE	891	1	5	0	n/a	n/a	n/a	n/a	n/a
3406629	RECOG_RESP	n/a	LTP100	ltpFR	15	7	1	MICROSCOPE	891	1	n/a	0	n/a	n/a	n/a	n/a	n/a
3407358	RECOG_CONF	n/a	LTP100	ltpFR	15	7	1	MICROSCOPE	891	n/a	5	0	n/a	n/a	n/a	n/a	n/a
3408844	RECOG_TARGET	n/a	LTP100	ltpFR	15	7	-1	TOENAIL	1474	1	5	-1	n/a	n/a	n/a	n/a	n/a
3409448	RECOG_RESP	n/a	LTP100	ltpFR	15	7	-1	TOENAIL	1474	1	n/a	-1	n/a	n/a	n/a	n/a	n/a
3410110	RECOG_CONF	n/a	LTP100	ltpFR	15	7	-1	TOENAIL	1474	n/a	5	-1	n/a	n/a	n/a	n/a	n/a
3414360	REC_START	n/a	LTP100	ltpFR	15	8	n/a	n/a	n/a	n/a	n/a	n/a	n/a	n/a	n/a	n/a	n/a
3414394	RECOG_TARGET	n/a	LTP100	ltpFR	15	8	0	SCREEN	1253	1	5	1	n/a	n/a	n/a	n/a	n/a
3415093	RECOG_RESP	n/a	LTP100	ltpFR	15	8	0	SCREEN	1253	1	n/a	1	n/a	n/a	n/a	n/a	n/a
3415702	RECOG_CONF	n/a	LTP100	ltpFR	15	8	0	SCREEN	1253	n/a	5	1	n/a	n/a	n/a	n/a	n/a
3417002	RECOG_TARGET	n/a	LTP100	ltpFR	15	8	1	ASSISTANT	48	1	5	0	n/a	n/a	n/a	n/a	n/a
3417612	RECOG_RESP	n/a	LTP100	ltpFR	15	8	1	ASSISTANT	48	1	n/a	0	n/a	n/a	n/a	n/a	n/a
3418286	RECOG_CONF	n/a	LTP100	ltpFR	15	8	1	ASSISTANT	48	n/a	5	0	n/a	n/a	n/a	n/a	n/a
3419527	RECOG_TARGET	n/a	LTP100	ltpFR	15	8	0	ARMY	39	1	5	0	n/a	n/a	n/a	n/a	n/a
3420132	RECOG_RESP	n/a	LTP100	ltpFR	15	8	0	ARMY	39	1	n/a	0	n/a	n/a	n/a	n/a	n/a
3420940	RECOG_CONF	n/a	LTP100	ltpFR	15	8	0	ARMY	39	n/a	5	0	n/a	n/a	n/a	n/a	n/a
3422293	RECOG_LURE	n/a	LTP100	ltpFR	15	8	n/a	DART	440	0	2	n/a	n/a	n/a	n/a	n/a	n/a
3423055	RECOG_RESP	n/a	LTP100	ltpFR	15	8	n/a	DART	440	0	n/a	n/a	n/a	n/a	n/a	n/a	n/a
3423753	RECOG_CONF	n/a	LTP100	ltpFR	15	8	n/a	DART	440	n/a	2	n/a	n/a	n/a	n/a	n/a	n/a
3425001	RECOG_TARGET	n/a	LTP100	ltpFR	15	8	-1	FEMALE	559	1	5	-1	n/a	n/a	n/a	n/a	n/a
3425624	RECOG_RESP	n/a	LTP100	ltpFR	15	8	-1	FEMALE	559	1	n/a	-1	n/a	n/a	n/a	n/a	n/a
3426268	RECOG_CONF	n/a	LTP100	ltpFR	15	8	-1	FEMALE	559	n/a	5	-1	n/a	n/a	n/a	n/a	n/a
3427610	RECOG_TARGET	n/a	LTP100	ltpFR	15	8	1	ATHLETE	52	1	5	1	n/a	n/a	n/a	n/a	n/a
3428208	RECOG_RESP	n/a	LTP100	ltpFR	15	8	1	ATHLETE	52	1	n/a	1	n/a	n/a	n/a	n/a	n/a
3429002	RECOG_CONF	n/a	LTP100	ltpFR	15	8	1	ATHLETE	52	n/a	5	1	n/a	n/a	n/a	n/a	n/a
3430417	RECOG_LURE	n/a	LTP100	ltpFR	15	8	n/a	LUMBER	848	1	5	n/a	n/a	n/a	n/a	n/a	n/a
3431296	RECOG_RESP	n/a	LTP100	ltpFR	15	8	n/a	LUMBER	848	1	n/a	n/a	n/a	n/a	n/a	n/a	n/a
3431995	RECOG_CONF	n/a	LTP100	ltpFR	15	8	n/a	LUMBER	848	n/a	5	n/a	n/a	n/a	n/a	n/a	n/a
3433342	RECOG_LURE	n/a	LTP100	ltpFR	15	8	n/a	WELL	1600	1	1	n/a	n/a	n/a	n/a	n/a	n/a
3435048	RECOG_RESP	n/a	LTP100	ltpFR	15	8	n/a	WELL	1600	1	n/a	n/a	n/a	n/a	n/a	n/a	n/a
3436225	RECOG_CONF	n/a	LTP100	ltpFR	15	8	n/a	WELL	1600	n/a	1	n/a	n/a	n/a	n/a	n/a	n/a
3437693	RECOG_TARGET	n/a	LTP100	ltpFR	15	8	1	MISTER	901	1	5	1	n/a	n/a	n/a	n/a	n/a
3438490	RECOG_RESP	n/a	LTP100	ltpFR	15	8	1	MISTER	901	1	n/a	1	n/a	n/a	n/a	n/a	n/a
3439104	RECOG_CONF	n/a	LTP100	ltpFR	15	8	1	MISTER	901	n/a	5	1	n/a	n/a	n/a	n/a	n/a
3440543	RECOG_TARGET	n/a	LTP100	ltpFR	15	8	1	CAP	236	1	2	0	n/a	n/a	n/a	n/a	n/a
3441353	RECOG_RESP	n/a	LTP100	ltpFR	15	8	1	CAP	236	1	n/a	0	n/a	n/a	n/a	n/a	n/a
3441972	RECOG_CONF	n/a	LTP100	ltpFR	15	8	1	CAP	236	n/a	2	0	n/a	n/a	n/a	n/a	n/a
3443308	RECOG_TARGET	n/a	LTP100	ltpFR	15	8	0	SAUCER	1237	1	5	1	n/a	n/a	n/a	n/a	n/a
3444097	RECOG_RESP	n/a	LTP100	ltpFR	15	8	0	SAUCER	1237	1	n/a	1	n/a	n/a	n/a	n/a	n/a
3444915	RECOG_CONF	n/a	LTP100	ltpFR	15	8	0	SAUCER	1237	n/a	5	1	n/a	n/a	n/a	n/a	n/a
3446241	RECOG_TARGET	n/a	LTP100	ltpFR	15	8	0	STRAW	1390	1	5	0	n/a	n/a	n/a	n/a	n/a
3446976	RECOG_RESP	n/a	LTP100	ltpFR	15	8	0	STRAW	1390	1	n/a	0	n/a	n/a	n/a	n/a	n/a
3447719	RECOG_CONF	n/a	LTP100	ltpFR	15	8	0	STRAW	1390	n/a	5	0	n/a	n/a	n/a	n/a	n/a
3449033	RECOG_TARGET	n/a	LTP100	ltpFR	15	8	1	SURGEON	1413	1	4	1	n/a	n/a	n/a	n/a	n/a
3449635	RECOG_RESP	n/a	LTP100	ltpFR	15	8	1	SURGEON	1413	1	n/a	1	n/a	n/a	n/a	n/a	n/a
3450373	RECOG_CONF	n/a	LTP100	ltpFR	15	8	1	SURGEON	1413	n/a	4	1	n/a	n/a	n/a	n/a	n/a
3451775	RECOG_TARGET	n/a	LTP100	ltpFR	15	8	1	MOUNTAIN	924	1	5	0	n/a	n/a	n/a	n/a	n/a
3452294	RECOG_RESP	n/a	LTP100	ltpFR	15	8	1	MOUNTAIN	924	1	n/a	0	n/a	n/a	n/a	n/a	n/a
3453007	RECOG_CONF	n/a	LTP100	ltpFR	15	8	1	MOUNTAIN	924	n/a	5	0	n/a	n/a	n/a	n/a	n/a
3454491	RECOG_TARGET	n/a	LTP100	ltpFR	15	8	-1	COWBOY	395	1	1	-1	n/a	n/a	n/a	n/a	n/a
3454957	RECOG_RESP	n/a	LTP100	ltpFR	15	8	-1	COWBOY	395	1	n/a	-1	n/a	n/a	n/a	n/a	n/a
3455761	RECOG_CONF	n/a	LTP100	ltpFR	15	8	-1	COWBOY	395	n/a	1	-1	n/a	n/a	n/a	n/a	n/a
3457182	RECOG_TARGET	n/a	LTP100	ltpFR	15	8	0	MEDICINE	886	1	5	0	n/a	n/a	n/a	n/a	n/a
3457851	RECOG_RESP	n/a	LTP100	ltpFR	15	8	0	MEDICINE	886	1	n/a	0	n/a	n/a	n/a	n/a	n/a
3458714	RECOG_CONF	n/a	LTP100	ltpFR	15	8	0	MEDICINE	886	n/a	5	0	n/a	n/a	n/a	n/a	n/a
3460098	RECOG_TARGET	n/a	LTP100	ltpFR	15	8	0	RULER	1216	1	5	0	n/a	n/a	n/a	n/a	n/a
3460744	RECOG_RESP	n/a	LTP100	ltpFR	15	8	0	RULER	1216	1	n/a	0	n/a	n/a	n/a	n/a	n/a
3461627	RECOG_CONF	n/a	LTP100	ltpFR	15	8	0	RULER	1216	n/a	5	0	n/a	n/a	n/a	n/a	n/a
3463082	RECOG_TARGET	n/a	LTP100	ltpFR	15	8	0	SOAP	1337	1	5	0	n/a	n/a	n/a	n/a	n/a
3463618	RECOG_RESP	n/a	LTP100	ltpFR	15	8	0	SOAP	1337	1	n/a	0	n/a	n/a	n/a	n/a	n/a
3464451	RECOG_CONF	n/a	LTP100	ltpFR	15	8	0	SOAP	1337	n/a	5	0	n/a	n/a	n/a	n/a	n/a
3465823	RECOG_LURE	n/a	LTP100	ltpFR	15	8	n/a	FRUIT	610	1	1	n/a	n/a	n/a	n/a	n/a	n/a
3466576	RECOG_RESP	n/a	LTP100	ltpFR	15	8	n/a	FRUIT	610	1	n/a	n/a	n/a	n/a	n/a	n/a	n/a
3467414	RECOG_CONF	n/a	LTP100	ltpFR	15	8	n/a	FRUIT	610	n/a	1	n/a	n/a	n/a	n/a	n/a	n/a
3468881	RECOG_LURE	n/a	LTP100	ltpFR	15	8	n/a	ATTIC	56	0	3	n/a	n/a	n/a	n/a	n/a	n/a
3469769	RECOG_RESP	n/a	LTP100	ltpFR	15	8	n/a	ATTIC	56	0	n/a	n/a	n/a	n/a	n/a	n/a	n/a
3470747	RECOG_CONF	n/a	LTP100	ltpFR	15	8	n/a	ATTIC	56	n/a	3	n/a	n/a	n/a	n/a	n/a	n/a
3480359	REC_START	n/a	LTP100	ltpFR	15	9	n/a	n/a	n/a	n/a	n/a	n/a	n/a	n/a	n/a	n/a	n/a
3480397	RECOG_TARGET	n/a	LTP100	ltpFR	15	9	0	HEATER	698	1	5	1	n/a	n/a	n/a	n/a	n/a
3481022	RECOG_RESP	n/a	LTP100	ltpFR	15	9	0	HEATER	698	1	n/a	1	n/a	n/a	n/a	n/a	n/a
3481611	RECOG_CONF	n/a	LTP100	ltpFR	15	9	0	HEATER	698	n/a	5	1	n/a	n/a	n/a	n/a	n/a
3482913	RECOG_TARGET	n/a	LTP100	ltpFR	15	9	1	AGENT	10	1	2	1	n/a	n/a	n/a	n/a	n/a
3483417	RECOG_RESP	n/a	LTP100	ltpFR	15	9	1	AGENT	10	1	n/a	1	n/a	n/a	n/a	n/a	n/a
3483966	RECOG_CONF	n/a	LTP100	ltpFR	15	9	1	AGENT	10	n/a	2	1	n/a	n/a	n/a	n/a	n/a
3485272	RECOG_LURE	n/a	LTP100	ltpFR	15	9	n/a	INSTRUCTOR	741	1	2	n/a	n/a	n/a	n/a	n/a	n/a
3485911	RECOG_RESP	n/a	LTP100	ltpFR	15	9	n/a	INSTRUCTOR	741	1	n/a	n/a	n/a	n/a	n/a	n/a	n/a
3486530	RECOG_CONF	n/a	LTP100	ltpFR	15	9	n/a	INSTRUCTOR	741	n/a	2	n/a	n/a	n/a	n/a	n/a	n/a
3487955	RECOG_TARGET	n/a	LTP100	ltpFR	15	9	1	ADOLESCENT	7	1	5	1	n/a	n/a	n/a	n/a	n/a
3488505	RECOG_RESP	n/a	LTP100	ltpFR	15	9	1	ADOLESCENT	7	1	n/a	1	n/a	n/a	n/a	n/a	n/a
3488979	RECOG_CONF	n/a	LTP100	ltpFR	15	9	1	ADOLESCENT	7	n/a	5	1	n/a	n/a	n/a	n/a	n/a
3490346	RECOG_TARGET	n/a	LTP100	ltpFR	15	9	-1	TURTLE	1522	1	5	-1	n/a	n/a	n/a	n/a	n/a
3491239	RECOG_RESP	n/a	LTP100	ltpFR	15	9	-1	TURTLE	1522	1	n/a	-1	n/a	n/a	n/a	n/a	n/a
3491967	RECOG_CONF	n/a	LTP100	ltpFR	15	9	-1	TURTLE	1522	n/a	5	-1	n/a	n/a	n/a	n/a	n/a
3493288	RECOG_TARGET	n/a	LTP100	ltpFR	15	9	-1	BELL	118	1	2	-1	n/a	n/a	n/a	n/a	n/a
3494152	RECOG_RESP	n/a	LTP100	ltpFR	15	9	-1	BELL	118	1	n/a	-1	n/a	n/a	n/a	n/a	n/a
3494851	RECOG_CONF	n/a	LTP100	ltpFR	15	9	-1	BELL	118	n/a	2	-1	n/a	n/a	n/a	n/a	n/a
3496004	RECOG_LURE	n/a	LTP100	ltpFR	15	9	n/a	FOLDER	588	1	1	n/a	n/a	n/a	n/a	n/a	n/a
3496926	RECOG_RESP	n/a	LTP100	ltpFR	15	9	n/a	FOLDER	588	1	n/a	n/a	n/a	n/a	n/a	n/a	n/a
3497724	RECOG_CONF	n/a	LTP100	ltpFR	15	9	n/a	FOLDER	588	n/a	1	n/a	n/a	n/a	n/a	n/a	n/a
3499145	RECOG_LURE	n/a	LTP100	ltpFR	15	9	n/a	VEST	1559	1	2	n/a	n/a	n/a	n/a	n/a	n/a
3499725	RECOG_RESP	n/a	LTP100	ltpFR	15	9	n/a	VEST	1559	1	n/a	n/a	n/a	n/a	n/a	n/a	n/a
3500518	RECOG_CONF	n/a	LTP100	ltpFR	15	9	n/a	VEST	1559	n/a	2	n/a	n/a	n/a	n/a	n/a	n/a
3501937	RECOG_TARGET	n/a	LTP100	ltpFR	15	9	-1	SCULPTURE	1258	1	5	-1	n/a	n/a	n/a	n/a	n/a
3502913	RECOG_RESP	n/a	LTP100	ltpFR	15	9	-1	SCULPTURE	1258	1	n/a	-1	n/a	n/a	n/a	n/a	n/a
3503611	RECOG_CONF	n/a	LTP100	ltpFR	15	9	-1	SCULPTURE	1258	n/a	5	-1	n/a	n/a	n/a	n/a	n/a
3504995	RECOG_TARGET	n/a	LTP100	ltpFR	15	9	-1	LITTER	832	1	2	-1	n/a	n/a	n/a	n/a	n/a
3505656	RECOG_RESP	n/a	LTP100	ltpFR	15	9	-1	LITTER	832	1	n/a	-1	n/a	n/a	n/a	n/a	n/a
3506464	RECOG_CONF	n/a	LTP100	ltpFR	15	9	-1	LITTER	832	n/a	2	-1	n/a	n/a	n/a	n/a	n/a
3507861	RECOG_TARGET	n/a	LTP100	ltpFR	15	9	0	ROBBER	1197	0	2	1	n/a	n/a	n/a	n/a	n/a
3508729	RECOG_RESP	n/a	LTP100	ltpFR	15	9	0	ROBBER	1197	0	n/a	1	n/a	n/a	n/a	n/a	n/a
3509378	RECOG_CONF	n/a	LTP100	ltpFR	15	9	0	ROBBER	1197	n/a	2	1	n/a	n/a	n/a	n/a	n/a
3510804	RECOG_TARGET	n/a	LTP100	ltpFR	15	9	0	ITEM	746	1	5	0	n/a	n/a	n/a	n/a	n/a
3511483	RECOG_RESP	n/a	LTP100	ltpFR	15	9	0	ITEM	746	1	n/a	0	n/a	n/a	n/a	n/a	n/a
3512112	RECOG_CONF	n/a	LTP100	ltpFR	15	9	0	ITEM	746	n/a	5	0	n/a	n/a	n/a	n/a	n/a
3513537	RECOG_TARGET	n/a	LTP100	ltpFR	15	9	1	PLAYGROUND	1087	0	2	0	n/a	n/a	n/a	n/a	n/a
3514347	RECOG_RESP	n/a	LTP100	ltpFR	15	9	1	PLAYGROUND	1087	0	n/a	0	n/a	n/a	n/a	n/a	n/a
3515075	RECOG_CONF	n/a	LTP100	ltpFR	15	9	1	PLAYGROUND	1087	n/a	2	0	n/a	n/a	n/a	n/a	n/a
3516427	RECOG_TARGET	n/a	LTP100	ltpFR	15	9	1	MARINE	869	1	5	1	n/a	n/a	n/a	n/a	n/a
