mstime	trial_type	stim_file	subject	experiment	session	trial	task	item_name	item_num	recog_conf	resp	color_b	color_g	color_r	case	font
0	SESS_START	n/a	LTP209	ltpFR	16	n/a	n/a	n/a	n/a	1	n/a	n/a	n/a	n/a	n/a	n/a
83506	WORD	wordpools/wasnorm_wordpool_less_exclusions.txt	LTP209	ltpFR	16	1	0	MONGOOSE	909	n/a	1	1	0.412841796875	0.57763671875	lower	../fonts/zerothre.ttf
87418	WORD	wordpools/wasnorm_wordpool_less_exclusions.txt	LTP209	ltpFR	16	1	0	SADDLE	1221	n/a	1	1	0.412841796875	0.57763671875	lower	../fonts/zerothre.ttf
91329	WORD	wordpools/wasnorm_wordpool_less_exclusions.txt	LTP209	ltpFR	16	1	0	STALLION	1369	n/a	1	1	0.412841796875	0.57763671875	lower	../fonts/zerothre.ttf
95223	WORD	wordpools/wasnorm_wordpool_less_exclusions.txt	LTP209	ltpFR	16	1	1	CARDINAL	244	n/a	1	0	0.5869140625	0.422607421875	upper	../fonts/amplitud.ttf
99201	WORD	wordpools/wasnorm_wordpool_less_exclusions.txt	LTP209	ltpFR	16	1	1	MESSAGE	888	n/a	0	0	0.5869140625	0.422607421875	upper	../fonts/amplitud.ttf
103361	WORD	wordpools/wasnorm_wordpool_less_exclusions.txt	LTP209	ltpFR	16	1	0	OWNER	993	n/a	1	1	0.412841796875	0.57763671875	lower	../fonts/zerothre.ttf
107504	WORD	wordpools/wasnorm_wordpool_less_exclusions.txt	LTP209	ltpFR	16	1	0	CHIP	303	n/a	0	1	0.412841796875	0.57763671875	lower	../fonts/zerothre.ttf
111699	WORD	wordpools/wasnorm_wordpool_less_exclusions.txt	LTP209	ltpFR	16	1	1	CARD	243	n/a	0	0	0.5869140625	0.422607421875	upper	../fonts/amplitud.ttf
115676	WORD	wordpools/wasnorm_wordpool_less_exclusions.txt	LTP209	ltpFR	16	1	1	BIRD	129	n/a	1	0	0.5869140625	0.422607421875	upper	../fonts/amplitud.ttf
119570	WORD	wordpools/wasnorm_wordpool_less_exclusions.txt	LTP209	ltpFR	16	1	1	TAIL	1430	n/a	1	0	0.5869140625	0.422607421875	upper	../fonts/amplitud.ttf
123697	WORD	wordpools/wasnorm_wordpool_less_exclusions.txt	LTP209	ltpFR	16	1	1	KITTEN	780	n/a	1	0	0.5869140625	0.422607421875	upper	../fonts/amplitud.ttf
127908	WORD	wordpools/wasnorm_wordpool_less_exclusions.txt	LTP209	ltpFR	16	1	1	BOOTH	151	n/a	0	0	0.5869140625	0.422607421875	upper	../fonts/amplitud.ttf
131968	WORD	wordpools/wasnorm_wordpool_less_exclusions.txt	LTP209	ltpFR	16	1	1	NEST	945	n/a	1	0	0.5869140625	0.422607421875	upper	../fonts/amplitud.ttf
135879	WORD	wordpools/wasnorm_wordpool_less_exclusions.txt	LTP209	ltpFR	16	1	0	VET	1560	n/a	1	1	0.412841796875	0.57763671875	lower	../fonts/zerothre.ttf
140089	WORD	wordpools/wasnorm_wordpool_less_exclusions.txt	LTP209	ltpFR	16	1	0	CAP	236	n/a	0	1	0.412841796875	0.57763671875	lower	../fonts/zerothre.ttf
144117	WORD	wordpools/wasnorm_wordpool_less_exclusions.txt	LTP209	ltpFR	16	1	0	LAMB	797	n/a	1	1	0.412841796875	0.57763671875	lower	../fonts/zerothre.ttf
150092	REC_START	n/a	LTP209	ltpFR	16	1	n/a	n/a	n/a	n/a	n/a	n/a	n/a	n/a	n/a	n/a
150685	REC_WORD	wordpools/wasnorm_wordpool_less_exclusions.txt	LTP209	ltpFR	16	1	0	LAMB	797	n/a	1	n/a	n/a	n/a	n/a	n/a
151903	REC_WORD	wordpools/wasnorm_wordpool_less_exclusions.txt	LTP209	ltpFR	16	1	0	CAP	236	n/a	0	n/a	n/a	n/a	n/a	n/a
155145	REC_WORD	wordpools/wasnorm_wordpool_less_exclusions.txt	LTP209	ltpFR	16	1	0	VET	1560	n/a	1	n/a	n/a	n/a	n/a	n/a
156207	REC_WORD	wordpools/wasnorm_wordpool_less_exclusions.txt	LTP209	ltpFR	16	1	0	STALLION	1369	n/a	1	n/a	n/a	n/a	n/a	n/a
157450	REC_WORD	wordpools/wasnorm_wordpool_less_exclusions.txt	LTP209	ltpFR	16	1	0	SADDLE	1221	n/a	1	n/a	n/a	n/a	n/a	n/a
158797	REC_WORD	wordpools/wasnorm_wordpool_less_exclusions.txt	LTP209	ltpFR	16	1	0	MONGOOSE	909	n/a	1	n/a	n/a	n/a	n/a	n/a
160084	REC_WORD	wordpools/wasnorm_wordpool_less_exclusions.txt	LTP209	ltpFR	16	1	1	KITTEN	780	n/a	1	n/a	n/a	n/a	n/a	n/a
161481	REC_WORD	wordpools/wasnorm_wordpool_less_exclusions.txt	LTP209	ltpFR	16	1	0	OWNER	993	n/a	1	n/a	n/a	n/a	n/a	n/a
164280	REC_WORD	wordpools/wasnorm_wordpool_less_exclusions.txt	LTP209	ltpFR	16	1	1	BIRD	129	n/a	1	n/a	n/a	n/a	n/a	n/a
165217	REC_WORD	wordpools/wasnorm_wordpool_less_exclusions.txt	LTP209	ltpFR	16	1	1	NEST	945	n/a	1	n/a	n/a	n/a	n/a	n/a
176801	REC_WORD	wordpools/wasnorm_wordpool_less_exclusions.txt	LTP209	ltpFR	16	1	1	TAIL	1430	n/a	1	n/a	n/a	n/a	n/a	n/a
183311	REC_WORD	wordpools/wasnorm_wordpool_less_exclusions.txt	LTP209	ltpFR	16	1	0	SADDLE	1221	n/a	1	n/a	n/a	n/a	n/a	n/a
243269	WORD	wordpools/wasnorm_wordpool_less_exclusions.txt	LTP209	ltpFR	16	2	1	CRAB	397	n/a	1	0	0.5869140625	0.422607421875	upper	../fonts/amplitud.ttf
247096	WORD	wordpools/wasnorm_wordpool_less_exclusions.txt	LTP209	ltpFR	16	2	1	DIVER	476	n/a	1	0	0.5869140625	0.422607421875	upper	../fonts/amplitud.ttf
251057	WORD	wordpools/wasnorm_wordpool_less_exclusions.txt	LTP209	ltpFR	16	2	1	CLIFF	322	n/a	0	0	0.5869140625	0.422607421875	upper	../fonts/amplitud.ttf
254968	WORD	wordpools/wasnorm_wordpool_less_exclusions.txt	LTP209	ltpFR	16	2	1	LOAF	835	n/a	0	0	0.5869140625	0.422607421875	upper	../fonts/amplitud.ttf
258929	WORD	wordpools/wasnorm_wordpool_less_exclusions.txt	LTP209	ltpFR	16	2	1	LIZARD	834	n/a	1	0	0.5869140625	0.422607421875	upper	../fonts/amplitud.ttf
263056	WORD	wordpools/wasnorm_wordpool_less_exclusions.txt	LTP209	ltpFR	16	2	0	RACCOON	1153	n/a	1	1	0.412841796875	0.57763671875	lower	../fonts/zerothre.ttf
267183	WORD	wordpools/wasnorm_wordpool_less_exclusions.txt	LTP209	ltpFR	16	2	0	CARAVAN	242	n/a	0	1	0.412841796875	0.57763671875	lower	../fonts/zerothre.ttf
271327	WORD	wordpools/wasnorm_wordpool_less_exclusions.txt	LTP209	ltpFR	16	2	0	GREASE	660	n/a	0	1	0.412841796875	0.57763671875	lower	../fonts/zerothre.ttf
275453	WORD	wordpools/wasnorm_wordpool_less_exclusions.txt	LTP209	ltpFR	16	2	0	TERMITE	1451	n/a	0	1	0.412841796875	0.57763671875	lower	../fonts/zerothre.ttf
279348	WORD	wordpools/wasnorm_wordpool_less_exclusions.txt	LTP209	ltpFR	16	2	1	BUG	187	n/a	1	0	0.5869140625	0.422607421875	upper	../fonts/amplitud.ttf
283242	WORD	wordpools/wasnorm_wordpool_less_exclusions.txt	LTP209	ltpFR	16	2	1	BALL	73	n/a	0	0	0.5869140625	0.422607421875	upper	../fonts/amplitud.ttf
287286	WORD	wordpools/wasnorm_wordpool_less_exclusions.txt	LTP209	ltpFR	16	2	1	LAGOON	795	n/a	0	0	0.5869140625	0.422607421875	upper	../fonts/amplitud.ttf
291131	WORD	wordpools/wasnorm_wordpool_less_exclusions.txt	LTP209	ltpFR	16	2	0	SURVEY	1414	n/a	0	1	0.412841796875	0.57763671875	lower	../fonts/zerothre.ttf
295175	WORD	wordpools/wasnorm_wordpool_less_exclusions.txt	LTP209	ltpFR	16	2	0	DINER	467	n/a	0	1	0.412841796875	0.57763671875	lower	../fonts/zerothre.ttf
299135	WORD	wordpools/wasnorm_wordpool_less_exclusions.txt	LTP209	ltpFR	16	2	0	LOOP	844	n/a	0	1	0.412841796875	0.57763671875	lower	../fonts/zerothre.ttf
302996	WORD	wordpools/wasnorm_wordpool_less_exclusions.txt	LTP209	ltpFR	16	2	0	VACUUM	1543	n/a	1	1	0.412841796875	0.57763671875	lower	../fonts/zerothre.ttf
308922	REC_START	n/a	LTP209	ltpFR	16	2	n/a	n/a	n/a	n/a	n/a	n/a	n/a	n/a	n/a	n/a
309466	REC_WORD	wordpools/wasnorm_wordpool_less_exclusions.txt	LTP209	ltpFR	16	2	0	VACUUM	1543	n/a	1	n/a	n/a	n/a	n/a	n/a
310867	REC_WORD	wordpools/wasnorm_wordpool_less_exclusions.txt	LTP209	ltpFR	16	2	1	BUG	187	n/a	1	n/a	n/a	n/a	n/a	n/a
311950	REC_WORD	wordpools/wasnorm_wordpool_less_exclusions.txt	LTP209	ltpFR	16	2	0	SURVEY	1414	n/a	0	n/a	n/a	n/a	n/a	n/a
313312	REC_WORD	wordpools/wasnorm_wordpool_less_exclusions.txt	LTP209	ltpFR	16	2	0	TERMITE	1451	n/a	0	n/a	n/a	n/a	n/a	n/a
314644	REC_WORD	wordpools/wasnorm_wordpool_less_exclusions.txt	LTP209	ltpFR	16	2	1	LAGOON	795	n/a	0	n/a	n/a	n/a	n/a	n/a
316096	REC_WORD	wordpools/wasnorm_wordpool_less_exclusions.txt	LTP209	ltpFR	16	2	n/a	MARSH	874	n/a	n/a	n/a	n/a	n/a	n/a	n/a
323843	REC_WORD	wordpools/wasnorm_wordpool_less_exclusions.txt	LTP209	ltpFR	16	2	1	CRAB	397	n/a	1	n/a	n/a	n/a	n/a	n/a
325539	REC_WORD	wordpools/wasnorm_wordpool_less_exclusions.txt	LTP209	ltpFR	16	2	1	CLIFF	322	n/a	0	n/a	n/a	n/a	n/a	n/a
328098	REC_WORD	wordpools/wasnorm_wordpool_less_exclusions.txt	LTP209	ltpFR	16	2	1	DIVER	476	n/a	1	n/a	n/a	n/a	n/a	n/a
345648	REC_WORD	wordpools/wasnorm_wordpool_less_exclusions.txt	LTP209	ltpFR	16	2	0	TERMITE	1451	n/a	0	n/a	n/a	n/a	n/a	n/a
364052	REC_WORD	wordpools/wasnorm_wordpool_less_exclusions.txt	LTP209	ltpFR	16	2	0	RACCOON	1153	n/a	1	n/a	n/a	n/a	n/a	n/a
369235	REC_WORD	wordpools/wasnorm_wordpool_less_exclusions.txt	LTP209	ltpFR	16	2	0	CARAVAN	242	n/a	0	n/a	n/a	n/a	n/a	n/a
370627	REC_WORD	wordpools/wasnorm_wordpool_less_exclusions.txt	LTP209	ltpFR	16	2	0	GREASE	660	n/a	0	n/a	n/a	n/a	n/a	n/a
394393	WORD	wordpools/wasnorm_wordpool_less_exclusions.txt	LTP209	ltpFR	16	3	0	CHART	282	n/a	0	1	0.412841796875	0.57763671875	lower	../fonts/zerothre.ttf
398469	WORD	wordpools/wasnorm_wordpool_less_exclusions.txt	LTP209	ltpFR	16	3	0	SCREW	1254	n/a	0	1	0.412841796875	0.57763671875	lower	../fonts/zerothre.ttf
402463	WORD	wordpools/wasnorm_wordpool_less_exclusions.txt	LTP209	ltpFR	16	3	0	EGG	518	n/a	0	1	0.412841796875	0.57763671875	lower	../fonts/zerothre.ttf
406392	WORD	wordpools/wasnorm_wordpool_less_exclusions.txt	LTP209	ltpFR	16	3	0	TRENCH	1503	n/a	1	1	0.412841796875	0.57763671875	lower	../fonts/zerothre.ttf
410286	WORD	wordpools/wasnorm_wordpool_less_exclusions.txt	LTP209	ltpFR	16	3	0	BEAST	108	n/a	0	1	0.412841796875	0.57763671875	lower	../fonts/zerothre.ttf
414347	WORD	wordpools/wasnorm_wordpool_less_exclusions.txt	LTP209	ltpFR	16	3	0	PORCUPINE	1107	n/a	0	1	0.412841796875	0.57763671875	lower	../fonts/zerothre.ttf
418557	WORD	wordpools/wasnorm_wordpool_less_exclusions.txt	LTP209	ltpFR	16	3	0	MAYONNAISE	880	n/a	0	1	0.412841796875	0.57763671875	lower	../fonts/zerothre.ttf
422701	WORD	wordpools/wasnorm_wordpool_less_exclusions.txt	LTP209	ltpFR	16	3	0	TUNA	1518	n/a	1	1	0.412841796875	0.57763671875	lower	../fonts/zerothre.ttf
426678	WORD	wordpools/wasnorm_wordpool_less_exclusions.txt	LTP209	ltpFR	16	3	0	TRUCK	1512	n/a	1	1	0.412841796875	0.57763671875	lower	../fonts/zerothre.ttf
430655	WORD	wordpools/wasnorm_wordpool_less_exclusions.txt	LTP209	ltpFR	16	3	0	PISTON	1076	n/a	0	1	0.412841796875	0.57763671875	lower	../fonts/zerothre.ttf
434866	WORD	wordpools/wasnorm_wordpool_less_exclusions.txt	LTP209	ltpFR	16	3	0	MAP	865	n/a	1	1	0.412841796875	0.57763671875	lower	../fonts/zerothre.ttf
438960	WORD	wordpools/wasnorm_wordpool_less_exclusions.txt	LTP209	ltpFR	16	3	0	SARDINE	1235	n/a	0	1	0.412841796875	0.57763671875	lower	../fonts/zerothre.ttf
442937	WORD	wordpools/wasnorm_wordpool_less_exclusions.txt	LTP209	ltpFR	16	3	0	GAVEL	627	n/a	0	1	0.412841796875	0.57763671875	lower	../fonts/zerothre.ttf
447131	WORD	wordpools/wasnorm_wordpool_less_exclusions.txt	LTP209	ltpFR	16	3	0	PEDESTRIAN	1038	n/a	1	1	0.412841796875	0.57763671875	lower	../fonts/zerothre.ttf
451092	WORD	wordpools/wasnorm_wordpool_less_exclusions.txt	LTP209	ltpFR	16	3	0	WILDERNESS	1610	n/a	1	1	0.412841796875	0.57763671875	lower	../fonts/zerothre.ttf
454919	WORD	wordpools/wasnorm_wordpool_less_exclusions.txt	LTP209	ltpFR	16	3	0	LACE	792	n/a	0	1	0.412841796875	0.57763671875	lower	../fonts/zerothre.ttf
460645	REC_START	n/a	LTP209	ltpFR	16	3	n/a	n/a	n/a	n/a	n/a	n/a	n/a	n/a	n/a	n/a
461967	REC_WORD	wordpools/wasnorm_wordpool_less_exclusions.txt	LTP209	ltpFR	16	3	0	LACE	792	n/a	0	n/a	n/a	n/a	n/a	n/a
463034	REC_WORD	wordpools/wasnorm_wordpool_less_exclusions.txt	LTP209	ltpFR	16	3	0	PEDESTRIAN	1038	n/a	1	n/a	n/a	n/a	n/a	n/a
464671	REC_WORD	wordpools/wasnorm_wordpool_less_exclusions.txt	LTP209	ltpFR	16	3	0	GAVEL	627	n/a	0	n/a	n/a	n/a	n/a	n/a
466696	REC_WORD	wordpools/wasnorm_wordpool_less_exclusions.txt	LTP209	ltpFR	16	3	0	SARDINE	1235	n/a	0	n/a	n/a	n/a	n/a	n/a
468213	REC_WORD	wordpools/wasnorm_wordpool_less_exclusions.txt	LTP209	ltpFR	16	3	0	TUNA	1518	n/a	1	n/a	n/a	n/a	n/a	n/a
473136	REC_WORD	wordpools/wasnorm_wordpool_less_exclusions.txt	LTP209	ltpFR	16	3	0	WILDERNESS	1610	n/a	1	n/a	n/a	n/a	n/a	n/a
501307	REC_WORD	wordpools/wasnorm_wordpool_less_exclusions.txt	LTP209	ltpFR	16	3	0	CHART	282	n/a	0	n/a	n/a	n/a	n/a	n/a
502829	REC_WORD	wordpools/wasnorm_wordpool_less_exclusions.txt	LTP209	ltpFR	16	3	0	MAP	865	n/a	1	n/a	n/a	n/a	n/a	n/a
504001	REC_WORD	wordpools/wasnorm_wordpool_less_exclusions.txt	LTP209	ltpFR	16	3	0	SCREW	1254	n/a	0	n/a	n/a	n/a	n/a	n/a
505867	REC_WORD	wordpools/wasnorm_wordpool_less_exclusions.txt	LTP209	ltpFR	16	3	0	TRENCH	1503	n/a	1	n/a	n/a	n/a	n/a	n/a
507987	REC_WORD	wordpools/wasnorm_wordpool_less_exclusions.txt	LTP209	ltpFR	16	3	0	EGG	518	n/a	0	n/a	n/a	n/a	n/a	n/a
522748	REC_WORD	wordpools/wasnorm_wordpool_less_exclusions.txt	LTP209	ltpFR	16	3	0	SURVEY	1414	n/a	0	n/a	n/a	n/a	n/a	n/a
547181	WORD	wordpools/wasnorm_wordpool_less_exclusions.txt	LTP209	ltpFR	16	4	-1	MEAT	883	n/a	-1	1	1.0	1.0	upper	../fonts/Verdana.ttf
551259	WORD	wordpools/wasnorm_wordpool_less_exclusions.txt	LTP209	ltpFR	16	4	-1	RAG	1160	n/a	-1	1	1.0	1.0	upper	../fonts/Verdana.ttf
555236	WORD	wordpools/wasnorm_wordpool_less_exclusions.txt	LTP209	ltpFR	16	4	-1	OFFICER	973	n/a	-1	1	1.0	1.0	upper	../fonts/Verdana.ttf
559363	WORD	wordpools/wasnorm_wordpool_less_exclusions.txt	LTP209	ltpFR	16	4	-1	DIARY	460	n/a	-1	1	1.0	1.0	upper	../fonts/Verdana.ttf
563357	WORD	wordpools/wasnorm_wordpool_less_exclusions.txt	LTP209	ltpFR	16	4	-1	WRITER	1627	n/a	-1	1	1.0	1.0	upper	../fonts/Verdana.ttf
567301	WORD	wordpools/wasnorm_wordpool_less_exclusions.txt	LTP209	ltpFR	16	4	-1	MARGARINE	868	n/a	-1	1	1.0	1.0	upper	../fonts/Verdana.ttf
571295	WORD	wordpools/wasnorm_wordpool_less_exclusions.txt	LTP209	ltpFR	16	4	-1	SANDWICH	1232	n/a	-1	1	1.0	1.0	upper	../fonts/Verdana.ttf
575455	WORD	wordpools/wasnorm_wordpool_less_exclusions.txt	LTP209	ltpFR	16	4	-1	PATIO	1025	n/a	-1	1	1.0	1.0	upper	../fonts/Verdana.ttf
579466	WORD	wordpools/wasnorm_wordpool_less_exclusions.txt	LTP209	ltpFR	16	4	-1	LAKE	796	n/a	-1	1	1.0	1.0	upper	../fonts/Verdana.ttf
583476	WORD	wordpools/wasnorm_wordpool_less_exclusions.txt	LTP209	ltpFR	16	4	-1	MAPLE	866	n/a	-1	1	1.0	1.0	upper	../fonts/Verdana.ttf
587504	WORD	wordpools/wasnorm_wordpool_less_exclusions.txt	LTP209	ltpFR	16	4	-1	PARENT	1013	n/a	-1	1	1.0	1.0	upper	../fonts/Verdana.ttf
591615	WORD	wordpools/wasnorm_wordpool_less_exclusions.txt	LTP209	ltpFR	16	4	-1	FATHER	554	n/a	-1	1	1.0	1.0	upper	../fonts/Verdana.ttf
595443	WORD	wordpools/wasnorm_wordpool_less_exclusions.txt	LTP209	ltpFR	16	4	-1	JUG	762	n/a	-1	1	1.0	1.0	upper	../fonts/Verdana.ttf
599653	WORD	wordpools/wasnorm_wordpool_less_exclusions.txt	LTP209	ltpFR	16	4	-1	JUNGLE	764	n/a	-1	1	1.0	1.0	upper	../fonts/Verdana.ttf
603564	WORD	wordpools/wasnorm_wordpool_less_exclusions.txt	LTP209	ltpFR	16	4	-1	TIMBER	1469	n/a	-1	1	1.0	1.0	upper	../fonts/Verdana.ttf
607724	WORD	wordpools/wasnorm_wordpool_less_exclusions.txt	LTP209	ltpFR	16	4	-1	PATROL	1027	n/a	-1	1	1.0	1.0	upper	../fonts/Verdana.ttf
613583	REC_START	n/a	LTP209	ltpFR	16	4	n/a	n/a	n/a	n/a	n/a	n/a	n/a	n/a	n/a	n/a
614950	REC_WORD	wordpools/wasnorm_wordpool_less_exclusions.txt	LTP209	ltpFR	16	4	-1	PATROL	1027	n/a	-1	n/a	n/a	n/a	n/a	n/a
616117	REC_WORD	wordpools/wasnorm_wordpool_less_exclusions.txt	LTP209	ltpFR	16	4	-1	JUG	762	n/a	-1	n/a	n/a	n/a	n/a	n/a
616890	REC_WORD	wordpools/wasnorm_wordpool_less_exclusions.txt	LTP209	ltpFR	16	4	-1	JUNGLE	764	n/a	-1	n/a	n/a	n/a	n/a	n/a
617659	REC_WORD	wordpools/wasnorm_wordpool_less_exclusions.txt	LTP209	ltpFR	16	4	-1	PARENT	1013	n/a	-1	n/a	n/a	n/a	n/a	n/a
618452	REC_WORD	wordpools/wasnorm_wordpool_less_exclusions.txt	LTP209	ltpFR	16	4	-1	FATHER	554	n/a	-1	n/a	n/a	n/a	n/a	n/a
619699	REC_WORD	wordpools/wasnorm_wordpool_less_exclusions.txt	LTP209	ltpFR	16	4	-1	MEAT	883	n/a	-1	n/a	n/a	n/a	n/a	n/a
631911	REC_WORD	wordpools/wasnorm_wordpool_less_exclusions.txt	LTP209	ltpFR	16	4	0	GAVEL	627	n/a	0	n/a	n/a	n/a	n/a	n/a
641749	REC_WORD	wordpools/wasnorm_wordpool_less_exclusions.txt	LTP209	ltpFR	16	4	-1	RAG	1160	n/a	-1	n/a	n/a	n/a	n/a	n/a
682132	REC_WORD	wordpools/wasnorm_wordpool_less_exclusions.txt	LTP209	ltpFR	16	4	0	PORCUPINE	1107	n/a	0	n/a	n/a	n/a	n/a	n/a
694611	WORD	wordpools/wasnorm_wordpool_less_exclusions.txt	LTP209	ltpFR	16	5	0	COW	393	n/a	1	1	0.412841796875	0.57763671875	lower	../fonts/zerothre.ttf
698822	WORD	wordpools/wasnorm_wordpool_less_exclusions.txt	LTP209	ltpFR	16	5	0	PIG	1064	n/a	1	1	0.412841796875	0.57763671875	lower	../fonts/zerothre.ttf
702982	WORD	wordpools/wasnorm_wordpool_less_exclusions.txt	LTP209	ltpFR	16	5	0	STOCKING	1383	n/a	0	1	0.412841796875	0.57763671875	lower	../fonts/zerothre.ttf
706993	WORD	wordpools/wasnorm_wordpool_less_exclusions.txt	LTP209	ltpFR	16	5	0	MAJOR	859	n/a	1	1	0.412841796875	0.57763671875	lower	../fonts/zerothre.ttf
710887	WORD	wordpools/wasnorm_wordpool_less_exclusions.txt	LTP209	ltpFR	16	5	0	POTATO	1115	n/a	0	1	0.412841796875	0.57763671875	lower	../fonts/zerothre.ttf
715114	WORD	wordpools/wasnorm_wordpool_less_exclusions.txt	LTP209	ltpFR	16	5	1	QUEEN	1149	n/a	1	0	0.5869140625	0.422607421875	upper	../fonts/amplitud.ttf
718975	WORD	wordpools/wasnorm_wordpool_less_exclusions.txt	LTP209	ltpFR	16	5	1	CASTLE	256	n/a	0	0	0.5869140625	0.422607421875	upper	../fonts/amplitud.ttf
723152	WORD	wordpools/wasnorm_wordpool_less_exclusions.txt	LTP209	ltpFR	16	5	1	ENCYCLOPEDIA	533	n/a	0	0	0.5869140625	0.422607421875	upper	../fonts/amplitud.ttf
726996	WORD	wordpools/wasnorm_wordpool_less_exclusions.txt	LTP209	ltpFR	16	5	1	SWIMMER	1420	n/a	1	0	0.5869140625	0.422607421875	upper	../fonts/amplitud.ttf
730890	WORD	wordpools/wasnorm_wordpool_less_exclusions.txt	LTP209	ltpFR	16	5	1	MONARCH	906	n/a	1	0	0.5869140625	0.422607421875	upper	../fonts/amplitud.ttf
734901	WORD	wordpools/wasnorm_wordpool_less_exclusions.txt	LTP209	ltpFR	16	5	0	CABINET	212	n/a	1	1	0.412841796875	0.57763671875	lower	../fonts/zerothre.ttf
739045	WORD	wordpools/wasnorm_wordpool_less_exclusions.txt	LTP209	ltpFR	16	5	0	PECAN	1036	n/a	0	1	0.412841796875	0.57763671875	lower	../fonts/zerothre.ttf
742922	WORD	wordpools/wasnorm_wordpool_less_exclusions.txt	LTP209	ltpFR	16	5	0	ACORN	3	n/a	0	1	0.412841796875	0.57763671875	lower	../fonts/zerothre.ttf
746783	WORD	wordpools/wasnorm_wordpool_less_exclusions.txt	LTP209	ltpFR	16	5	1	CORAL	378	n/a	1	0	0.5869140625	0.422607421875	upper	../fonts/amplitud.ttf
750861	WORD	wordpools/wasnorm_wordpool_less_exclusions.txt	LTP209	ltpFR	16	5	1	SLEIGH	1325	n/a	0	0	0.5869140625	0.422607421875	upper	../fonts/amplitud.ttf
754771	WORD	wordpools/wasnorm_wordpool_less_exclusions.txt	LTP209	ltpFR	16	5	1	TULIP	1517	n/a	1	0	0.5869140625	0.422607421875	upper	../fonts/amplitud.ttf
760381	REC_START	n/a	LTP209	ltpFR	16	5	n/a	n/a	n/a	n/a	n/a	n/a	n/a	n/a	n/a	n/a
761369	REC_WORD	wordpools/wasnorm_wordpool_less_exclusions.txt	LTP209	ltpFR	16	5	1	TULIP	1517	n/a	1	n/a	n/a	n/a	n/a	n/a
764080	REC_WORD	wordpools/wasnorm_wordpool_less_exclusions.txt	LTP209	ltpFR	16	5	0	CARAVAN	242	n/a	0	n/a	n/a	n/a	n/a	n/a
781129	REC_WORD	wordpools/wasnorm_wordpool_less_exclusions.txt	LTP209	ltpFR	16	5	1	CORAL	378	n/a	1	n/a	n/a	n/a	n/a	n/a
790896	REC_WORD	wordpools/wasnorm_wordpool_less_exclusions.txt	LTP209	ltpFR	16	5	0	MAJOR	859	n/a	1	n/a	n/a	n/a	n/a	n/a
820275	REC_WORD	wordpools/wasnorm_wordpool_less_exclusions.txt	LTP209	ltpFR	16	5	1	QUEEN	1149	n/a	1	n/a	n/a	n/a	n/a	n/a
830537	REC_WORD	wordpools/wasnorm_wordpool_less_exclusions.txt	LTP209	ltpFR	16	5	n/a	LADY	794	n/a	n/a	n/a	n/a	n/a	n/a	n/a
854073	WORD	wordpools/wasnorm_wordpool_less_exclusions.txt	LTP209	ltpFR	16	6	0	GOWN	652	n/a	1	1	0.412841796875	0.57763671875	lower	../fonts/zerothre.ttf
858283	WORD	wordpools/wasnorm_wordpool_less_exclusions.txt	LTP209	ltpFR	16	6	0	BUCKET	184	n/a	1	1	0.412841796875	0.57763671875	lower	../fonts/zerothre.ttf
862460	WORD	wordpools/wasnorm_wordpool_less_exclusions.txt	LTP209	ltpFR	16	6	0	BROOK	177	n/a	1	1	0.412841796875	0.57763671875	lower	../fonts/zerothre.ttf
866470	WORD	wordpools/wasnorm_wordpool_less_exclusions.txt	LTP209	ltpFR	16	6	0	STREAM	1392	n/a	1	1	0.412841796875	0.57763671875	lower	../fonts/zerothre.ttf
870565	WORD	wordpools/wasnorm_wordpool_less_exclusions.txt	LTP209	ltpFR	16	6	0	BANK	83	n/a	1	1	0.412841796875	0.57763671875	lower	../fonts/zerothre.ttf
874409	WORD	wordpools/wasnorm_wordpool_less_exclusions.txt	LTP209	ltpFR	16	6	0	CHEF	290	n/a	1	1	0.412841796875	0.57763671875	lower	../fonts/zerothre.ttf
878403	WORD	wordpools/wasnorm_wordpool_less_exclusions.txt	LTP209	ltpFR	16	6	0	BANDANNA	80	n/a	0	1	0.412841796875	0.57763671875	lower	../fonts/zerothre.ttf
882231	WORD	wordpools/wasnorm_wordpool_less_exclusions.txt	LTP209	ltpFR	16	6	0	BOOT	150	n/a	1	1	0.412841796875	0.57763671875	lower	../fonts/zerothre.ttf
886441	WORD	wordpools/wasnorm_wordpool_less_exclusions.txt	LTP209	ltpFR	16	6	0	PACKAGE	997	n/a	0	1	0.412841796875	0.57763671875	lower	../fonts/zerothre.ttf
890569	WORD	wordpools/wasnorm_wordpool_less_exclusions.txt	LTP209	ltpFR	16	6	0	CONTAINER	366	n/a	0	1	0.412841796875	0.57763671875	lower	../fonts/zerothre.ttf
894528	WORD	wordpools/wasnorm_wordpool_less_exclusions.txt	LTP209	ltpFR	16	6	0	REFRIGERATOR	1179	n/a	1	1	0.412841796875	0.57763671875	lower	../fonts/zerothre.ttf
898489	WORD	wordpools/wasnorm_wordpool_less_exclusions.txt	LTP209	ltpFR	16	6	0	TUB	1514	n/a	1	1	0.412841796875	0.57763671875	lower	../fonts/zerothre.ttf
902401	WORD	wordpools/wasnorm_wordpool_less_exclusions.txt	LTP209	ltpFR	16	6	0	NOVEL	960	n/a	0	1	0.412841796875	0.57763671875	lower	../fonts/zerothre.ttf
906378	WORD	wordpools/wasnorm_wordpool_less_exclusions.txt	LTP209	ltpFR	16	6	0	CANAL	226	n/a	0	1	0.412841796875	0.57763671875	lower	../fonts/zerothre.ttf
910538	WORD	wordpools/wasnorm_wordpool_less_exclusions.txt	LTP209	ltpFR	16	6	0	TUBE	1516	n/a	1	1	0.412841796875	0.57763671875	lower	../fonts/zerothre.ttf
914433	WORD	wordpools/wasnorm_wordpool_less_exclusions.txt	LTP209	ltpFR	16	6	0	TUTU	1524	n/a	0	1	0.412841796875	0.57763671875	lower	../fonts/zerothre.ttf
920507	REC_START	n/a	LTP209	ltpFR	16	6	n/a	n/a	n/a	n/a	n/a	n/a	n/a	n/a	n/a	n/a
921245	REC_WORD	wordpools/wasnorm_wordpool_less_exclusions.txt	LTP209	ltpFR	16	6	0	TUTU	1524	n/a	0	n/a	n/a	n/a	n/a	n/a
922198	REC_WORD	wordpools/wasnorm_wordpool_less_exclusions.txt	LTP209	ltpFR	16	6	0	NOVEL	960	n/a	0	n/a	n/a	n/a	n/a	n/a
923395	REC_WORD	wordpools/wasnorm_wordpool_less_exclusions.txt	LTP209	ltpFR	16	6	0	GOWN	652	n/a	1	n/a	n/a	n/a	n/a	n/a
929257	REC_WORD	wordpools/wasnorm_wordpool_less_exclusions.txt	LTP209	ltpFR	16	6	0	NOVEL	960	n/a	0	n/a	n/a	n/a	n/a	n/a
950434	REC_WORD	wordpools/wasnorm_wordpool_less_exclusions.txt	LTP209	ltpFR	16	6	-1	MAPLE	866	n/a	-1	n/a	n/a	n/a	n/a	n/a
989919	REC_WORD	wordpools/wasnorm_wordpool_less_exclusions.txt	LTP209	ltpFR	16	6	n/a	CREEK	404	n/a	n/a	n/a	n/a	n/a	n/a	n/a
991096	REC_WORD	wordpools/wasnorm_wordpool_less_exclusions.txt	LTP209	ltpFR	16	6	0	BUCKET	184	n/a	1	n/a	n/a	n/a	n/a	n/a
992553	REC_WORD	wordpools/wasnorm_wordpool_less_exclusions.txt	LTP209	ltpFR	16	6	0	STREAM	1392	n/a	1	n/a	n/a	n/a	n/a	n/a
994499	REC_WORD	wordpools/wasnorm_wordpool_less_exclusions.txt	LTP209	ltpFR	16	6	n/a	PIPE	1073	n/a	n/a	n/a	n/a	n/a	n/a	n/a
999855	WORD	wordpools/wasnorm_wordpool_less_exclusions.txt	LTP209	ltpFR	16	7	-1	ICEBERG	731	n/a	-1	1	1.0	1.0	upper	../fonts/Verdana.ttf
1003899	WORD	wordpools/wasnorm_wordpool_less_exclusions.txt	LTP209	ltpFR	16	7	-1	LID	817	n/a	-1	1	1.0	1.0	upper	../fonts/Verdana.ttf
1008076	WORD	wordpools/wasnorm_wordpool_less_exclusions.txt	LTP209	ltpFR	16	7	-1	STRAW	1390	n/a	-1	1	1.0	1.0	upper	../fonts/Verdana.ttf
1012270	WORD	wordpools/wasnorm_wordpool_less_exclusions.txt	LTP209	ltpFR	16	7	-1	MOTH	920	n/a	-1	1	1.0	1.0	upper	../fonts/Verdana.ttf
1016364	WORD	wordpools/wasnorm_wordpool_less_exclusions.txt	LTP209	ltpFR	16	7	-1	COTTON	385	n/a	-1	1	1.0	1.0	upper	../fonts/Verdana.ttf
1020507	WORD	wordpools/wasnorm_wordpool_less_exclusions.txt	LTP209	ltpFR	16	7	-1	PLAID	1080	n/a	-1	1	1.0	1.0	upper	../fonts/Verdana.ttf
1024352	WORD	wordpools/wasnorm_wordpool_less_exclusions.txt	LTP209	ltpFR	16	7	-1	ELECTRICIAN	521	n/a	-1	1	1.0	1.0	upper	../fonts/Verdana.ttf
1028495	WORD	wordpools/wasnorm_wordpool_less_exclusions.txt	LTP209	ltpFR	16	7	-1	KNIGHT	786	n/a	-1	1	1.0	1.0	upper	../fonts/Verdana.ttf
1032539	WORD	wordpools/wasnorm_wordpool_less_exclusions.txt	LTP209	ltpFR	16	7	-1	SWATTER	1418	n/a	-1	1	1.0	1.0	upper	../fonts/Verdana.ttf
1036551	WORD	wordpools/wasnorm_wordpool_less_exclusions.txt	LTP209	ltpFR	16	7	-1	BEVERAGE	123	n/a	-1	1	1.0	1.0	upper	../fonts/Verdana.ttf
1040544	WORD	wordpools/wasnorm_wordpool_less_exclusions.txt	LTP209	ltpFR	16	7	-1	CREW	406	n/a	-1	1	1.0	1.0	upper	../fonts/Verdana.ttf
1044422	WORD	wordpools/wasnorm_wordpool_less_exclusions.txt	LTP209	ltpFR	16	7	-1	SUBMARINE	1398	n/a	-1	1	1.0	1.0	upper	../fonts/Verdana.ttf
1048316	WORD	wordpools/wasnorm_wordpool_less_exclusions.txt	LTP209	ltpFR	16	7	-1	COIN	343	n/a	-1	1	1.0	1.0	upper	../fonts/Verdana.ttf
1052394	WORD	wordpools/wasnorm_wordpool_less_exclusions.txt	LTP209	ltpFR	16	7	-1	FAN	551	n/a	-1	1	1.0	1.0	upper	../fonts/Verdana.ttf
1056421	WORD	wordpools/wasnorm_wordpool_less_exclusions.txt	LTP209	ltpFR	16	7	-1	MONK	910	n/a	-1	1	1.0	1.0	upper	../fonts/Verdana.ttf
1060332	WORD	wordpools/wasnorm_wordpool_less_exclusions.txt	LTP209	ltpFR	16	7	-1	PREACHER	1119	n/a	-1	1	1.0	1.0	upper	../fonts/Verdana.ttf
1066357	REC_START	n/a	LTP209	ltpFR	16	7	n/a	n/a	n/a	n/a	n/a	n/a	n/a	n/a	n/a	n/a
1067285	REC_WORD	wordpools/wasnorm_wordpool_less_exclusions.txt	LTP209	ltpFR	16	7	-1	PREACHER	1119	n/a	-1	n/a	n/a	n/a	n/a	n/a
1068103	REC_WORD	wordpools/wasnorm_wordpool_less_exclusions.txt	LTP209	ltpFR	16	7	-1	MONK	910	n/a	-1	n/a	n/a	n/a	n/a	n/a
1069071	REC_WORD	wordpools/wasnorm_wordpool_less_exclusions.txt	LTP209	ltpFR	16	7	-1	LID	817	n/a	-1	n/a	n/a	n/a	n/a	n/a
1070063	REC_WORD	wordpools/wasnorm_wordpool_less_exclusions.txt	LTP209	ltpFR	16	7	0	BUCKET	184	n/a	1	n/a	n/a	n/a	n/a	n/a
1071141	REC_WORD	wordpools/wasnorm_wordpool_less_exclusions.txt	LTP209	ltpFR	16	7	-1	ICEBERG	731	n/a	-1	n/a	n/a	n/a	n/a	n/a
1089897	REC_WORD	wordpools/wasnorm_wordpool_less_exclusions.txt	LTP209	ltpFR	16	7	-1	CREW	406	n/a	-1	n/a	n/a	n/a	n/a	n/a
1090856	REC_WORD	wordpools/wasnorm_wordpool_less_exclusions.txt	LTP209	ltpFR	16	7	-1	SUBMARINE	1398	n/a	-1	n/a	n/a	n/a	n/a	n/a
1160066	WORD	wordpools/wasnorm_wordpool_less_exclusions.txt	LTP209	ltpFR	16	8	1	FOUNTAIN	597	n/a	0	0	0.5869140625	0.422607421875	upper	../fonts/amplitud.ttf
1164243	WORD	wordpools/wasnorm_wordpool_less_exclusions.txt	LTP209	ltpFR	16	8	1	LADY	794	n/a	1	0	0.5869140625	0.422607421875	upper	../fonts/amplitud.ttf
1168420	WORD	wordpools/wasnorm_wordpool_less_exclusions.txt	LTP209	ltpFR	16	8	1	POCKETBOOK	1094	n/a	0	0	0.5869140625	0.422607421875	upper	../fonts/amplitud.ttf
1172264	WORD	wordpools/wasnorm_wordpool_less_exclusions.txt	LTP209	ltpFR	16	8	1	BAKER	71	n/a	1	0	0.5869140625	0.422607421875	upper	../fonts/amplitud.ttf
1176225	WORD	wordpools/wasnorm_wordpool_less_exclusions.txt	LTP209	ltpFR	16	8	1	DRIVEWAY	500	n/a	0	0	0.5869140625	0.422607421875	upper	../fonts/amplitud.ttf
1180402	WORD	wordpools/wasnorm_wordpool_less_exclusions.txt	LTP209	ltpFR	16	8	1	MECHANIC	884	n/a	1	0	0.5869140625	0.422607421875	upper	../fonts/amplitud.ttf
1184479	WORD	wordpools/wasnorm_wordpool_less_exclusions.txt	LTP209	ltpFR	16	8	1	SEA	1259	n/a	1	0	0.5869140625	0.422607421875	upper	../fonts/amplitud.ttf
1188640	WORD	wordpools/wasnorm_wordpool_less_exclusions.txt	LTP209	ltpFR	16	8	1	SAILOR	1223	n/a	1	0	0.5869140625	0.422607421875	upper	../fonts/amplitud.ttf
1192533	WORD	wordpools/wasnorm_wordpool_less_exclusions.txt	LTP209	ltpFR	16	8	1	BERRY	122	n/a	1	0	0.5869140625	0.422607421875	upper	../fonts/amplitud.ttf
1196728	WORD	wordpools/wasnorm_wordpool_less_exclusions.txt	LTP209	ltpFR	16	8	1	MICROSCOPE	891	n/a	0	0	0.5869140625	0.422607421875	upper	../fonts/amplitud.ttf
1200905	WORD	wordpools/wasnorm_wordpool_less_exclusions.txt	LTP209	ltpFR	16	8	1	TELESCOPE	1446	n/a	0	0	0.5869140625	0.422607421875	upper	../fonts/amplitud.ttf
1204783	WORD	wordpools/wasnorm_wordpool_less_exclusions.txt	LTP209	ltpFR	16	8	1	KANGAROO	768	n/a	1	0	0.5869140625	0.422607421875	upper	../fonts/amplitud.ttf
1208610	WORD	wordpools/wasnorm_wordpool_less_exclusions.txt	LTP209	ltpFR	16	8	1	MARINE	869	n/a	1	0	0.5869140625	0.422607421875	upper	../fonts/amplitud.ttf
1212704	WORD	wordpools/wasnorm_wordpool_less_exclusions.txt	LTP209	ltpFR	16	8	1	BATH	98	n/a	1	0	0.5869140625	0.422607421875	upper	../fonts/amplitud.ttf
1216781	WORD	wordpools/wasnorm_wordpool_less_exclusions.txt	LTP209	ltpFR	16	8	1	OFFICE	972	n/a	0	0	0.5869140625	0.422607421875	upper	../fonts/amplitud.ttf
1220809	WORD	wordpools/wasnorm_wordpool_less_exclusions.txt	LTP209	ltpFR	16	8	1	TURKEY	1520	n/a	1	0	0.5869140625	0.422607421875	upper	../fonts/amplitud.ttf
1226784	REC_START	n/a	LTP209	ltpFR	16	8	n/a	n/a	n/a	n/a	n/a	n/a	n/a	n/a	n/a	n/a
1227801	REC_WORD	wordpools/wasnorm_wordpool_less_exclusions.txt	LTP209	ltpFR	16	8	1	TURKEY	1520	n/a	1	n/a	n/a	n/a	n/a	n/a
1228774	REC_WORD	wordpools/wasnorm_wordpool_less_exclusions.txt	LTP209	ltpFR	16	8	1	OFFICE	972	n/a	0	n/a	n/a	n/a	n/a	n/a
1229552	REC_WORD	wordpools/wasnorm_wordpool_less_exclusions.txt	LTP209	ltpFR	16	8	1	LADY	794	n/a	1	n/a	n/a	n/a	n/a	n/a
1230565	REC_WORD	wordpools/wasnorm_wordpool_less_exclusions.txt	LTP209	ltpFR	16	8	1	FOUNTAIN	597	n/a	0	n/a	n/a	n/a	n/a	n/a
1237045	REC_WORD	wordpools/wasnorm_wordpool_less_exclusions.txt	LTP209	ltpFR	16	8	1	BERRY	122	n/a	1	n/a	n/a	n/a	n/a	n/a
1241585	REC_WORD	wordpools/wasnorm_wordpool_less_exclusions.txt	LTP209	ltpFR	16	8	1	POCKETBOOK	1094	n/a	0	n/a	n/a	n/a	n/a	n/a
1243950	REC_WORD	wordpools/wasnorm_wordpool_less_exclusions.txt	LTP209	ltpFR	16	8	1	MARINE	869	n/a	1	n/a	n/a	n/a	n/a	n/a
1258238	REC_WORD	wordpools/wasnorm_wordpool_less_exclusions.txt	LTP209	ltpFR	16	8	n/a	FOOT	590	n/a	n/a	n/a	n/a	n/a	n/a	n/a
1287825	REC_WORD	wordpools/wasnorm_wordpool_less_exclusions.txt	LTP209	ltpFR	16	8	0	CHEF	290	n/a	1	n/a	n/a	n/a	n/a	n/a
1314319	WORD	wordpools/wasnorm_wordpool_less_exclusions.txt	LTP209	ltpFR	16	9	-1	ICING	732	n/a	-1	1	1.0	1.0	upper	../fonts/Verdana.ttf
1318180	WORD	wordpools/wasnorm_wordpool_less_exclusions.txt	LTP209	ltpFR	16	9	-1	STRAWBERRY	1391	n/a	-1	1	1.0	1.0	upper	../fonts/Verdana.ttf
1322290	WORD	wordpools/wasnorm_wordpool_less_exclusions.txt	LTP209	ltpFR	16	9	-1	SHORTS	1293	n/a	-1	1	1.0	1.0	upper	../fonts/Verdana.ttf
1326334	WORD	wordpools/wasnorm_wordpool_less_exclusions.txt	LTP209	ltpFR	16	9	-1	SWEATER	1419	n/a	-1	1	1.0	1.0	upper	../fonts/Verdana.ttf
1330278	WORD	wordpools/wasnorm_wordpool_less_exclusions.txt	LTP209	ltpFR	16	9	-1	RAIL	1161	n/a	-1	1	1.0	1.0	upper	../fonts/Verdana.ttf
1334406	WORD	wordpools/wasnorm_wordpool_less_exclusions.txt	LTP209	ltpFR	16	9	-1	SURF	1412	n/a	-1	1	1.0	1.0	upper	../fonts/Verdana.ttf
1338549	WORD	wordpools/wasnorm_wordpool_less_exclusions.txt	LTP209	ltpFR	16	9	-1	VAULT	1550	n/a	-1	1	1.0	1.0	upper	../fonts/Verdana.ttf
1342577	WORD	wordpools/wasnorm_wordpool_less_exclusions.txt	LTP209	ltpFR	16	9	-1	HANGER	687	n/a	-1	1	1.0	1.0	upper	../fonts/Verdana.ttf
1346621	WORD	wordpools/wasnorm_wordpool_less_exclusions.txt	LTP209	ltpFR	16	9	-1	BOOK	149	n/a	-1	1	1.0	1.0	upper	../fonts/Verdana.ttf
1350698	WORD	wordpools/wasnorm_wordpool_less_exclusions.txt	LTP209	ltpFR	16	9	-1	LITERATURE	831	n/a	-1	1	1.0	1.0	upper	../fonts/Verdana.ttf
1354792	WORD	wordpools/wasnorm_wordpool_less_exclusions.txt	LTP209	ltpFR	16	9	-1	CUSTOMER	430	n/a	-1	1	1.0	1.0	upper	../fonts/Verdana.ttf
1358753	WORD	wordpools/wasnorm_wordpool_less_exclusions.txt	LTP209	ltpFR	16	9	-1	SWITCH	1422	n/a	-1	1	1.0	1.0	upper	../fonts/Verdana.ttf
1362796	WORD	wordpools/wasnorm_wordpool_less_exclusions.txt	LTP209	ltpFR	16	9	-1	EMPIRE	530	n/a	-1	1	1.0	1.0	upper	../fonts/Verdana.ttf
1366741	WORD	wordpools/wasnorm_wordpool_less_exclusions.txt	LTP209	ltpFR	16	9	-1	OUTFIT	988	n/a	-1	1	1.0	1.0	upper	../fonts/Verdana.ttf
1370618	WORD	wordpools/wasnorm_wordpool_less_exclusions.txt	LTP209	ltpFR	16	9	-1	REPTILE	1185	n/a	-1	1	1.0	1.0	upper	../fonts/Verdana.ttf
1374446	WORD	wordpools/wasnorm_wordpool_less_exclusions.txt	LTP209	ltpFR	16	9	-1	ROAD	1196	n/a	-1	1	1.0	1.0	upper	../fonts/Verdana.ttf
1380421	REC_START	n/a	LTP209	ltpFR	16	9	n/a	n/a	n/a	n/a	n/a	n/a	n/a	n/a	n/a	n/a
1381369	REC_WORD	wordpools/wasnorm_wordpool_less_exclusions.txt	LTP209	ltpFR	16	9	-1	REPTILE	1185	n/a	-1	n/a	n/a	n/a	n/a	n/a
1382760	REC_WORD	wordpools/wasnorm_wordpool_less_exclusions.txt	LTP209	ltpFR	16	9	-1	ROAD	1196	n/a	-1	n/a	n/a	n/a	n/a	n/a
1387310	REC_WORD	wordpools/wasnorm_wordpool_less_exclusions.txt	LTP209	ltpFR	16	9	-1	STRAWBERRY	1391	n/a	-1	n/a	n/a	n/a	n/a	n/a
1388742	REC_WORD	wordpools/wasnorm_wordpool_less_exclusions.txt	LTP209	ltpFR	16	9	-1	ICING	732	n/a	-1	n/a	n/a	n/a	n/a	n/a
1400802	REC_WORD	wordpools/wasnorm_wordpool_less_exclusions.txt	LTP209	ltpFR	16	9	-1	VAULT	1550	n/a	-1	n/a	n/a	n/a	n/a	n/a
1404571	REC_WORD	wordpools/wasnorm_wordpool_less_exclusions.txt	LTP209	ltpFR	16	9	0	REFRIGERATOR	1179	n/a	1	n/a	n/a	n/a	n/a	n/a
1428766	REC_WORD	wordpools/wasnorm_wordpool_less_exclusions.txt	LTP209	ltpFR	16	9	-1	REPTILE	1185	n/a	-1	n/a	n/a	n/a	n/a	n/a
1476227	WORD	wordpools/wasnorm_wordpool_less_exclusions.txt	LTP209	ltpFR	16	10	-1	APPLICATION	34	n/a	-1	1	1.0	1.0	upper	../fonts/Verdana.ttf
1480421	WORD	wordpools/wasnorm_wordpool_less_exclusions.txt	LTP209	ltpFR	16	10	-1	SNAKE	1333	n/a	-1	1	1.0	1.0	upper	../fonts/Verdana.ttf
1484415	WORD	wordpools/wasnorm_wordpool_less_exclusions.txt	LTP209	ltpFR	16	10	-1	JELLY	755	n/a	-1	1	1.0	1.0	upper	../fonts/Verdana.ttf
1488292	WORD	wordpools/wasnorm_wordpool_less_exclusions.txt	LTP209	ltpFR	16	10	-1	MAMMAL	861	n/a	-1	1	1.0	1.0	upper	../fonts/Verdana.ttf
1492187	WORD	wordpools/wasnorm_wordpool_less_exclusions.txt	LTP209	ltpFR	16	10	-1	RASPBERRY	1168	n/a	-1	1	1.0	1.0	upper	../fonts/Verdana.ttf
1496314	WORD	wordpools/wasnorm_wordpool_less_exclusions.txt	LTP209	ltpFR	16	10	-1	STRANGER	1389	n/a	-1	1	1.0	1.0	upper	../fonts/Verdana.ttf
1500274	WORD	wordpools/wasnorm_wordpool_less_exclusions.txt	LTP209	ltpFR	16	10	-1	FOE	587	n/a	-1	1	1.0	1.0	upper	../fonts/Verdana.ttf
1504418	WORD	wordpools/wasnorm_wordpool_less_exclusions.txt	LTP209	ltpFR	16	10	-1	POLYESTER	1100	n/a	-1	1	1.0	1.0	upper	../fonts/Verdana.ttf
1508263	WORD	wordpools/wasnorm_wordpool_less_exclusions.txt	LTP209	ltpFR	16	10	-1	RICE	1190	n/a	-1	1	1.0	1.0	upper	../fonts/Verdana.ttf
1512207	WORD	wordpools/wasnorm_wordpool_less_exclusions.txt	LTP209	ltpFR	16	10	-1	SUPERMARKET	1409	n/a	-1	1	1.0	1.0	upper	../fonts/Verdana.ttf
1516267	WORD	wordpools/wasnorm_wordpool_less_exclusions.txt	LTP209	ltpFR	16	10	-1	WRENCH	1625	n/a	-1	1	1.0	1.0	upper	../fonts/Verdana.ttf
1520394	WORD	wordpools/wasnorm_wordpool_less_exclusions.txt	LTP209	ltpFR	16	10	-1	JAM	748	n/a	-1	1	1.0	1.0	upper	../fonts/Verdana.ttf
1524339	WORD	wordpools/wasnorm_wordpool_less_exclusions.txt	LTP209	ltpFR	16	10	-1	BEAVER	109	n/a	-1	1	1.0	1.0	upper	../fonts/Verdana.ttf
1528465	WORD	wordpools/wasnorm_wordpool_less_exclusions.txt	LTP209	ltpFR	16	10	-1	LUMBER	848	n/a	-1	1	1.0	1.0	upper	../fonts/Verdana.ttf
1532310	WORD	wordpools/wasnorm_wordpool_less_exclusions.txt	LTP209	ltpFR	16	10	-1	RECEPTIONIST	1174	n/a	-1	1	1.0	1.0	upper	../fonts/Verdana.ttf
1536469	WORD	wordpools/wasnorm_wordpool_less_exclusions.txt	LTP209	ltpFR	16	10	-1	DIAL	457	n/a	-1	1	1.0	1.0	upper	../fonts/Verdana.ttf
1542229	REC_START	n/a	LTP209	ltpFR	16	10	n/a	n/a	n/a	n/a	n/a	n/a	n/a	n/a	n/a	n/a
1542847	REC_WORD	wordpools/wasnorm_wordpool_less_exclusions.txt	LTP209	ltpFR	16	10	-1	DIAL	457	n/a	-1	n/a	n/a	n/a	n/a	n/a
1543680	REC_WORD	wordpools/wasnorm_wordpool_less_exclusions.txt	LTP209	ltpFR	16	10	-1	RECEPTIONIST	1174	n/a	-1	n/a	n/a	n/a	n/a	n/a
1545152	REC_WORD	wordpools/wasnorm_wordpool_less_exclusions.txt	LTP209	ltpFR	16	10	-1	JAM	748	n/a	-1	n/a	n/a	n/a	n/a	n/a
1546175	REC_WORD	wordpools/wasnorm_wordpool_less_exclusions.txt	LTP209	ltpFR	16	10	-1	JELLY	755	n/a	-1	n/a	n/a	n/a	n/a	n/a
1551897	REC_WORD	wordpools/wasnorm_wordpool_less_exclusions.txt	LTP209	ltpFR	16	10	-1	RASPBERRY	1168	n/a	-1	n/a	n/a	n/a	n/a	n/a
1560959	REC_WORD	wordpools/wasnorm_wordpool_less_exclusions.txt	LTP209	ltpFR	16	10	-1	APPLICATION	34	n/a	-1	n/a	n/a	n/a	n/a	n/a
1595702	REC_WORD	wordpools/wasnorm_wordpool_less_exclusions.txt	LTP209	ltpFR	16	10	1	BALL	73	n/a	0	n/a	n/a	n/a	n/a	n/a
1605822	REC_WORD	wordpools/wasnorm_wordpool_less_exclusions.txt	LTP209	ltpFR	16	10	n/a	VEHICLE	1553	n/a	n/a	n/a	n/a	n/a	n/a	n/a
1633060	WORD	wordpools/wasnorm_wordpool_less_exclusions.txt	LTP209	ltpFR	16	11	1	BONE	148	n/a	1	0	0.5869140625	0.422607421875	upper	../fonts/amplitud.ttf
1636920	WORD	wordpools/wasnorm_wordpool_less_exclusions.txt	LTP209	ltpFR	16	11	1	MOUSE	925	n/a	1	0	0.5869140625	0.422607421875	upper	../fonts/amplitud.ttf
1640914	WORD	wordpools/wasnorm_wordpool_less_exclusions.txt	LTP209	ltpFR	16	11	1	MALL	860	n/a	0	0	0.5869140625	0.422607421875	upper	../fonts/amplitud.ttf
1644925	WORD	wordpools/wasnorm_wordpool_less_exclusions.txt	LTP209	ltpFR	16	11	1	PAWN	1030	n/a	1	0	0.5869140625	0.422607421875	upper	../fonts/amplitud.ttf
1648769	WORD	wordpools/wasnorm_wordpool_less_exclusions.txt	LTP209	ltpFR	16	11	1	MUSTARD	935	n/a	1	0	0.5869140625	0.422607421875	upper	../fonts/amplitud.ttf
1652647	WORD	wordpools/wasnorm_wordpool_less_exclusions.txt	LTP209	ltpFR	16	11	1	CLERK	321	n/a	1	0	0.5869140625	0.422607421875	upper	../fonts/amplitud.ttf
1656591	WORD	wordpools/wasnorm_wordpool_less_exclusions.txt	LTP209	ltpFR	16	11	1	VOLLEYBALL	1576	n/a	1	0	0.5869140625	0.422607421875	upper	../fonts/amplitud.ttf
1660602	WORD	wordpools/wasnorm_wordpool_less_exclusions.txt	LTP209	ltpFR	16	11	1	SHORE	1291	n/a	1	0	0.5869140625	0.422607421875	upper	../fonts/amplitud.ttf
1664662	WORD	wordpools/wasnorm_wordpool_less_exclusions.txt	LTP209	ltpFR	16	11	1	CHURCH	307	n/a	0	0	0.5869140625	0.422607421875	upper	../fonts/amplitud.ttf
1668590	WORD	wordpools/wasnorm_wordpool_less_exclusions.txt	LTP209	ltpFR	16	11	1	FARMER	553	n/a	1	0	0.5869140625	0.422607421875	upper	../fonts/amplitud.ttf
1672584	WORD	wordpools/wasnorm_wordpool_less_exclusions.txt	LTP209	ltpFR	16	11	1	EMPLOYEE	531	n/a	1	0	0.5869140625	0.422607421875	upper	../fonts/amplitud.ttf
1676494	WORD	wordpools/wasnorm_wordpool_less_exclusions.txt	LTP209	ltpFR	16	11	1	WATERFALL	1595	n/a	1	0	0.5869140625	0.422607421875	upper	../fonts/amplitud.ttf
1680422	WORD	wordpools/wasnorm_wordpool_less_exclusions.txt	LTP209	ltpFR	16	11	1	KIDNEY	776	n/a	1	0	0.5869140625	0.422607421875	upper	../fonts/amplitud.ttf
1684316	WORD	wordpools/wasnorm_wordpool_less_exclusions.txt	LTP209	ltpFR	16	11	1	GRILL	661	n/a	0	0	0.5869140625	0.422607421875	upper	../fonts/amplitud.ttf
1688427	WORD	wordpools/wasnorm_wordpool_less_exclusions.txt	LTP209	ltpFR	16	11	1	BANANA	77	n/a	1	0	0.5869140625	0.422607421875	upper	../fonts/amplitud.ttf
1692620	WORD	wordpools/wasnorm_wordpool_less_exclusions.txt	LTP209	ltpFR	16	11	1	POPE	1105	n/a	1	0	0.5869140625	0.422607421875	upper	../fonts/amplitud.ttf
1698379	REC_START	n/a	LTP209	ltpFR	16	11	n/a	n/a	n/a	n/a	n/a	n/a	n/a	n/a	n/a	n/a
1699197	REC_WORD	wordpools/wasnorm_wordpool_less_exclusions.txt	LTP209	ltpFR	16	11	1	POPE	1105	n/a	1	n/a	n/a	n/a	n/a	n/a
1700898	REC_WORD	wordpools/wasnorm_wordpool_less_exclusions.txt	LTP209	ltpFR	16	11	1	GRILL	661	n/a	0	n/a	n/a	n/a	n/a	n/a
1702001	REC_WORD	wordpools/wasnorm_wordpool_less_exclusions.txt	LTP209	ltpFR	16	11	1	SHORE	1291	n/a	1	n/a	n/a	n/a	n/a	n/a
1703876	REC_WORD	wordpools/wasnorm_wordpool_less_exclusions.txt	LTP209	ltpFR	16	11	0	BANDANNA	80	n/a	0	n/a	n/a	n/a	n/a	n/a
1707598	REC_WORD	wordpools/wasnorm_wordpool_less_exclusions.txt	LTP209	ltpFR	16	11	1	CHURCH	307	n/a	0	n/a	n/a	n/a	n/a	n/a
1719758	REC_WORD	wordpools/wasnorm_wordpool_less_exclusions.txt	LTP209	ltpFR	16	11	-1	RASPBERRY	1168	n/a	-1	n/a	n/a	n/a	n/a	n/a
1801741	WORD	wordpools/wasnorm_wordpool_less_exclusions.txt	LTP209	ltpFR	16	12	1	HOUND	724	n/a	1	0	0.5869140625	0.422607421875	upper	../fonts/amplitud.ttf
1805618	WORD	wordpools/wasnorm_wordpool_less_exclusions.txt	LTP209	ltpFR	16	12	1	PORT	1110	n/a	0	0	0.5869140625	0.422607421875	upper	../fonts/amplitud.ttf
1809779	WORD	wordpools/wasnorm_wordpool_less_exclusions.txt	LTP209	ltpFR	16	12	1	NAVIGATOR	938	n/a	1	0	0.5869140625	0.422607421875	upper	../fonts/amplitud.ttf
1813656	WORD	wordpools/wasnorm_wordpool_less_exclusions.txt	LTP209	ltpFR	16	12	1	HERB	704	n/a	1	0	0.5869140625	0.422607421875	upper	../fonts/amplitud.ttf
1817833	WORD	wordpools/wasnorm_wordpool_less_exclusions.txt	LTP209	ltpFR	16	12	1	TRIBE	1505	n/a	1	0	0.5869140625	0.422607421875	upper	../fonts/amplitud.ttf
1821661	WORD	wordpools/wasnorm_wordpool_less_exclusions.txt	LTP209	ltpFR	16	12	1	FOREST	593	n/a	1	0	0.5869140625	0.422607421875	upper	../fonts/amplitud.ttf
1825605	WORD	wordpools/wasnorm_wordpool_less_exclusions.txt	LTP209	ltpFR	16	12	1	ROOT	1210	n/a	1	0	0.5869140625	0.422607421875	upper	../fonts/amplitud.ttf
1829566	WORD	wordpools/wasnorm_wordpool_less_exclusions.txt	LTP209	ltpFR	16	12	1	COBRA	336	n/a	1	0	0.5869140625	0.422607421875	upper	../fonts/amplitud.ttf
1833526	WORD	wordpools/wasnorm_wordpool_less_exclusions.txt	LTP209	ltpFR	16	12	1	SPICE	1350	n/a	1	0	0.5869140625	0.422607421875	upper	../fonts/amplitud.ttf
1837438	WORD	wordpools/wasnorm_wordpool_less_exclusions.txt	LTP209	ltpFR	16	12	1	LEADER	807	n/a	1	0	0.5869140625	0.422607421875	upper	../fonts/amplitud.ttf
1841464	WORD	wordpools/wasnorm_wordpool_less_exclusions.txt	LTP209	ltpFR	16	12	1	PUMP	1141	n/a	1	0	0.5869140625	0.422607421875	upper	../fonts/amplitud.ttf
1845675	WORD	wordpools/wasnorm_wordpool_less_exclusions.txt	LTP209	ltpFR	16	12	1	TAG	1429	n/a	0	0	0.5869140625	0.422607421875	upper	../fonts/amplitud.ttf
1849669	WORD	wordpools/wasnorm_wordpool_less_exclusions.txt	LTP209	ltpFR	16	12	1	PEPPER	1047	n/a	1	0	0.5869140625	0.422607421875	upper	../fonts/amplitud.ttf
1853529	WORD	wordpools/wasnorm_wordpool_less_exclusions.txt	LTP209	ltpFR	16	12	1	VENT	1556	n/a	0	0	0.5869140625	0.422607421875	upper	../fonts/amplitud.ttf
1857490	WORD	wordpools/wasnorm_wordpool_less_exclusions.txt	LTP209	ltpFR	16	12	1	CLOTHES	327	n/a	0	0	0.5869140625	0.422607421875	upper	../fonts/amplitud.ttf
1861685	WORD	wordpools/wasnorm_wordpool_less_exclusions.txt	LTP209	ltpFR	16	12	1	NIGHTGOWN	953	n/a	0	0	0.5869140625	0.422607421875	upper	../fonts/amplitud.ttf
1867310	REC_START	n/a	LTP209	ltpFR	16	12	n/a	n/a	n/a	n/a	n/a	n/a	n/a	n/a	n/a	n/a
1868597	REC_WORD	wordpools/wasnorm_wordpool_less_exclusions.txt	LTP209	ltpFR	16	12	1	PEPPER	1047	n/a	1	n/a	n/a	n/a	n/a	n/a
1881208	REC_WORD	wordpools/wasnorm_wordpool_less_exclusions.txt	LTP209	ltpFR	16	12	-1	MARGARINE	868	n/a	-1	n/a	n/a	n/a	n/a	n/a
1883313	REC_WORD	wordpools/wasnorm_wordpool_less_exclusions.txt	LTP209	ltpFR	16	12	1	NAVIGATOR	938	n/a	1	n/a	n/a	n/a	n/a	n/a
1889674	REC_WORD	wordpools/wasnorm_wordpool_less_exclusions.txt	LTP209	ltpFR	16	12	1	HOUND	724	n/a	1	n/a	n/a	n/a	n/a	n/a
1912866	REC_WORD	wordpools/wasnorm_wordpool_less_exclusions.txt	LTP209	ltpFR	16	12	1	PUMP	1141	n/a	1	n/a	n/a	n/a	n/a	n/a
1931670	REC_WORD	wordpools/wasnorm_wordpool_less_exclusions.txt	LTP209	ltpFR	16	12	1	FOREST	593	n/a	1	n/a	n/a	n/a	n/a	n/a
1933205	REC_WORD	wordpools/wasnorm_wordpool_less_exclusions.txt	LTP209	ltpFR	16	12	0	WILDERNESS	1610	n/a	1	n/a	n/a	n/a	n/a	n/a
1941970	REC_WORD	wordpools/wasnorm_wordpool_less_exclusions.txt	LTP209	ltpFR	16	12	-1	COIN	343	n/a	-1	n/a	n/a	n/a	n/a	n/a
1942913	REST_REWET	n/a	LTP209	ltpFR	16	12	n/a	n/a	n/a	n/a	n/a	n/a	n/a	n/a	n/a	n/a
2227006	WORD	wordpools/wasnorm_wordpool_less_exclusions.txt	LTP209	ltpFR	16	13	1	DIME	466	n/a	0	0	0.5869140625	0.422607421875	upper	../fonts/amplitud.ttf
2231099	WORD	wordpools/wasnorm_wordpool_less_exclusions.txt	LTP209	ltpFR	16	13	1	BABY	64	n/a	1	0	0.5869140625	0.422607421875	upper	../fonts/amplitud.ttf
2235094	WORD	wordpools/wasnorm_wordpool_less_exclusions.txt	LTP209	ltpFR	16	13	1	ANTELOPE	27	n/a	1	0	0.5869140625	0.422607421875	upper	../fonts/amplitud.ttf
2239154	WORD	wordpools/wasnorm_wordpool_less_exclusions.txt	LTP209	ltpFR	16	13	1	CONCRETE	361	n/a	0	0	0.5869140625	0.422607421875	upper	../fonts/amplitud.ttf
2243281	WORD	wordpools/wasnorm_wordpool_less_exclusions.txt	LTP209	ltpFR	16	13	0	CREVICE	405	n/a	0	1	0.412841796875	0.57763671875	lower	../fonts/zerothre.ttf
2247275	WORD	wordpools/wasnorm_wordpool_less_exclusions.txt	LTP209	ltpFR	16	13	0	MATCH	878	n/a	0	1	0.412841796875	0.57763671875	lower	../fonts/zerothre.ttf
2251203	WORD	wordpools/wasnorm_wordpool_less_exclusions.txt	LTP209	ltpFR	16	13	0	CASHIER	254	n/a	1	1	0.412841796875	0.57763671875	lower	../fonts/zerothre.ttf
2255097	WORD	wordpools/wasnorm_wordpool_less_exclusions.txt	LTP209	ltpFR	16	13	0	RATTLE	1170	n/a	0	1	0.412841796875	0.57763671875	lower	../fonts/zerothre.ttf
2259108	WORD	wordpools/wasnorm_wordpool_less_exclusions.txt	LTP209	ltpFR	16	13	1	JELLO	754	n/a	3	0	0.5869140625	0.422607421875	upper	../fonts/amplitud.ttf
2261404	KEY_MSG	n/a	LTP209	ltpFR	16	13	n/a	n/a	n/a	n/a	n/a	n/a	n/a	n/a	n/a	n/a
2264067	WORD	wordpools/wasnorm_wordpool_less_exclusions.txt	LTP209	ltpFR	16	13	1	OCEAN	970	n/a	1	0	0.5869140625	0.422607421875	upper	../fonts/amplitud.ttf
2268161	WORD	wordpools/wasnorm_wordpool_less_exclusions.txt	LTP209	ltpFR	16	13	1	PERCH	1048	n/a	0	0	0.5869140625	0.422607421875	upper	../fonts/amplitud.ttf
2272371	WORD	wordpools/wasnorm_wordpool_less_exclusions.txt	LTP209	ltpFR	16	13	1	CHIPMUNK	304	n/a	1	0	0.5869140625	0.422607421875	upper	../fonts/amplitud.ttf
2276548	WORD	wordpools/wasnorm_wordpool_less_exclusions.txt	LTP209	ltpFR	16	13	0	WOLF	1619	n/a	1	1	0.412841796875	0.57763671875	lower	../fonts/zerothre.ttf
2280609	WORD	wordpools/wasnorm_wordpool_less_exclusions.txt	LTP209	ltpFR	16	13	0	TICK	1463	n/a	0	1	0.412841796875	0.57763671875	lower	../fonts/zerothre.ttf
2284719	WORD	wordpools/wasnorm_wordpool_less_exclusions.txt	LTP209	ltpFR	16	13	0	SHRIMP	1297	n/a	0	1	0.412841796875	0.57763671875	lower	../fonts/zerothre.ttf
2288663	WORD	wordpools/wasnorm_wordpool_less_exclusions.txt	LTP209	ltpFR	16	13	0	FISH	571	n/a	1	1	0.412841796875	0.57763671875	lower	../fonts/zerothre.ttf
2294605	REC_START	n/a	LTP209	ltpFR	16	13	n/a	n/a	n/a	n/a	n/a	n/a	n/a	n/a	n/a	n/a
2295337	REC_WORD	wordpools/wasnorm_wordpool_less_exclusions.txt	LTP209	ltpFR	16	13	0	FISH	571	n/a	1	n/a	n/a	n/a	n/a	n/a
2296426	REC_WORD	wordpools/wasnorm_wordpool_less_exclusions.txt	LTP209	ltpFR	16	13	0	CREVICE	405	n/a	0	n/a	n/a	n/a	n/a	n/a
2297528	REC_WORD	wordpools/wasnorm_wordpool_less_exclusions.txt	LTP209	ltpFR	16	13	0	TUNA	1518	n/a	1	n/a	n/a	n/a	n/a	n/a
2298536	REC_WORD	wordpools/wasnorm_wordpool_less_exclusions.txt	LTP209	ltpFR	16	13	1	PERCH	1048	n/a	0	n/a	n/a	n/a	n/a	n/a
2300751	REC_WORD	wordpools/wasnorm_wordpool_less_exclusions.txt	LTP209	ltpFR	16	13	1	DIME	466	n/a	0	n/a	n/a	n/a	n/a	n/a
2301888	REC_WORD	wordpools/wasnorm_wordpool_less_exclusions.txt	LTP209	ltpFR	16	13	0	SHRIMP	1297	n/a	0	n/a	n/a	n/a	n/a	n/a
2305545	REC_WORD	wordpools/wasnorm_wordpool_less_exclusions.txt	LTP209	ltpFR	16	13	1	BABY	64	n/a	1	n/a	n/a	n/a	n/a	n/a
2306558	REC_WORD	wordpools/wasnorm_wordpool_less_exclusions.txt	LTP209	ltpFR	16	13	1	JELLO	754	n/a	3	n/a	n/a	n/a	n/a	n/a
2325430	REC_WORD	wordpools/wasnorm_wordpool_less_exclusions.txt	LTP209	ltpFR	16	13	n/a	CREEK	404	n/a	n/a	n/a	n/a	n/a	n/a	n/a
2335811	REC_WORD	wordpools/wasnorm_wordpool_less_exclusions.txt	LTP209	ltpFR	16	13	1	OCEAN	970	n/a	1	n/a	n/a	n/a	n/a	n/a
2348208	REC_WORD	wordpools/wasnorm_wordpool_less_exclusions.txt	LTP209	ltpFR	16	13	1	CHIPMUNK	304	n/a	1	n/a	n/a	n/a	n/a	n/a
2404307	WORD	wordpools/wasnorm_wordpool_less_exclusions.txt	LTP209	ltpFR	16	14	0	DANDELION	438	n/a	1	1	0.412841796875	0.57763671875	lower	../fonts/zerothre.ttf
2408301	WORD	wordpools/wasnorm_wordpool_less_exclusions.txt	LTP209	ltpFR	16	14	0	CATERPILLAR	259	n/a	0	1	0.412841796875	0.57763671875	lower	../fonts/zerothre.ttf
2412246	WORD	wordpools/wasnorm_wordpool_less_exclusions.txt	LTP209	ltpFR	16	14	0	CRICKET	408	n/a	0	1	0.412841796875	0.57763671875	lower	../fonts/zerothre.ttf
2416306	WORD	wordpools/wasnorm_wordpool_less_exclusions.txt	LTP209	ltpFR	16	14	1	SEAL	1262	n/a	1	0	0.5869140625	0.422607421875	upper	../fonts/amplitud.ttf
2420267	WORD	wordpools/wasnorm_wordpool_less_exclusions.txt	LTP209	ltpFR	16	14	1	BAIT	70	n/a	1	0	0.5869140625	0.422607421875	upper	../fonts/amplitud.ttf
2424311	WORD	wordpools/wasnorm_wordpool_less_exclusions.txt	LTP209	ltpFR	16	14	1	SCOTCH	1251	n/a	0	0	0.5869140625	0.422607421875	upper	../fonts/amplitud.ttf
2428388	WORD	wordpools/wasnorm_wordpool_less_exclusions.txt	LTP209	ltpFR	16	14	0	LOUNGE	845	n/a	1	1	0.412841796875	0.57763671875	lower	../fonts/zerothre.ttf
2432549	WORD	wordpools/wasnorm_wordpool_less_exclusions.txt	LTP209	ltpFR	16	14	0	SCRIBBLE	1256	n/a	0	1	0.412841796875	0.57763671875	lower	../fonts/zerothre.ttf
2436776	WORD	wordpools/wasnorm_wordpool_less_exclusions.txt	LTP209	ltpFR	16	14	0	CONTRACT	368	n/a	0	1	0.412841796875	0.57763671875	lower	../fonts/zerothre.ttf
2440886	WORD	wordpools/wasnorm_wordpool_less_exclusions.txt	LTP209	ltpFR	16	14	1	PIKE	1067	n/a	1	0	0.5869140625	0.422607421875	upper	../fonts/amplitud.ttf
2444997	WORD	wordpools/wasnorm_wordpool_less_exclusions.txt	LTP209	ltpFR	16	14	1	MOOSE	915	n/a	1	0	0.5869140625	0.422607421875	upper	../fonts/amplitud.ttf
2448941	WORD	wordpools/wasnorm_wordpool_less_exclusions.txt	LTP209	ltpFR	16	14	1	ORCHID	982	n/a	1	0	0.5869140625	0.422607421875	upper	../fonts/amplitud.ttf
2452785	WORD	wordpools/wasnorm_wordpool_less_exclusions.txt	LTP209	ltpFR	16	14	1	SLOPE	1328	n/a	0	0	0.5869140625	0.422607421875	upper	../fonts/amplitud.ttf
2456762	WORD	wordpools/wasnorm_wordpool_less_exclusions.txt	LTP209	ltpFR	16	14	1	COUCH	386	n/a	0	0	0.5869140625	0.422607421875	upper	../fonts/amplitud.ttf
2460640	WORD	wordpools/wasnorm_wordpool_less_exclusions.txt	LTP209	ltpFR	16	14	0	MINK	897	n/a	1	1	0.412841796875	0.57763671875	lower	../fonts/zerothre.ttf
2464834	WORD	wordpools/wasnorm_wordpool_less_exclusions.txt	LTP209	ltpFR	16	14	0	TELEPHONE	1445	n/a	0	1	0.412841796875	0.57763671875	lower	../fonts/zerothre.ttf
2470692	REC_START	n/a	LTP209	ltpFR	16	14	n/a	n/a	n/a	n/a	n/a	n/a	n/a	n/a	n/a	n/a
2472203	REC_WORD	wordpools/wasnorm_wordpool_less_exclusions.txt	LTP209	ltpFR	16	14	0	TELEPHONE	1445	n/a	0	n/a	n/a	n/a	n/a	n/a
2473121	REC_WORD	wordpools/wasnorm_wordpool_less_exclusions.txt	LTP209	ltpFR	16	14	0	MINK	897	n/a	1	n/a	n/a	n/a	n/a	n/a
2474224	REC_WORD	wordpools/wasnorm_wordpool_less_exclusions.txt	LTP209	ltpFR	16	14	1	PERCH	1048	n/a	0	n/a	n/a	n/a	n/a	n/a
2475995	REC_WORD	wordpools/wasnorm_wordpool_less_exclusions.txt	LTP209	ltpFR	16	14	1	COUCH	386	n/a	0	n/a	n/a	n/a	n/a	n/a
2477052	REC_WORD	wordpools/wasnorm_wordpool_less_exclusions.txt	LTP209	ltpFR	16	14	0	LOUNGE	845	n/a	1	n/a	n/a	n/a	n/a	n/a
2503397	REC_WORD	wordpools/wasnorm_wordpool_less_exclusions.txt	LTP209	ltpFR	16	14	0	DANDELION	438	n/a	1	n/a	n/a	n/a	n/a	n/a
2504340	REC_WORD	wordpools/wasnorm_wordpool_less_exclusions.txt	LTP209	ltpFR	16	14	0	CRICKET	408	n/a	0	n/a	n/a	n/a	n/a	n/a
2509658	REC_WORD	wordpools/wasnorm_wordpool_less_exclusions.txt	LTP209	ltpFR	16	14	0	CATERPILLAR	259	n/a	0	n/a	n/a	n/a	n/a	n/a
2513200	REC_WORD	wordpools/wasnorm_wordpool_less_exclusions.txt	LTP209	ltpFR	16	14	1	ORCHID	982	n/a	1	n/a	n/a	n/a	n/a	n/a
2530436	REC_WORD	wordpools/wasnorm_wordpool_less_exclusions.txt	LTP209	ltpFR	16	14	1	BAIT	70	n/a	1	n/a	n/a	n/a	n/a	n/a
2532329	REC_WORD	wordpools/wasnorm_wordpool_less_exclusions.txt	LTP209	ltpFR	16	14	1	SCOTCH	1251	n/a	0	n/a	n/a	n/a	n/a	n/a
2545136	REC_WORD	wordpools/wasnorm_wordpool_less_exclusions.txt	LTP209	ltpFR	16	14	1	LOAF	835	n/a	0	n/a	n/a	n/a	n/a	n/a
2604958	WORD	wordpools/wasnorm_wordpool_less_exclusions.txt	LTP209	ltpFR	16	15	0	BUTTER	205	n/a	0	1	0.412841796875	0.57763671875	lower	../fonts/zerothre.ttf
2608902	WORD	wordpools/wasnorm_wordpool_less_exclusions.txt	LTP209	ltpFR	16	15	0	ANCHOR	21	n/a	1	1	0.412841796875	0.57763671875	lower	../fonts/zerothre.ttf
2612763	WORD	wordpools/wasnorm_wordpool_less_exclusions.txt	LTP209	ltpFR	16	15	0	VIKING	1565	n/a	1	1	0.412841796875	0.57763671875	lower	../fonts/zerothre.ttf
2616657	WORD	wordpools/wasnorm_wordpool_less_exclusions.txt	LTP209	ltpFR	16	15	0	VELVET	1555	n/a	0	1	0.412841796875	0.57763671875	lower	../fonts/zerothre.ttf
2620684	WORD	wordpools/wasnorm_wordpool_less_exclusions.txt	LTP209	ltpFR	16	15	0	EXPERT	543	n/a	1	1	0.412841796875	0.57763671875	lower	../fonts/zerothre.ttf
2624628	WORD	wordpools/wasnorm_wordpool_less_exclusions.txt	LTP209	ltpFR	16	15	0	SUMMIT	1405	n/a	1	1	0.412841796875	0.57763671875	lower	../fonts/zerothre.ttf
2628572	WORD	wordpools/wasnorm_wordpool_less_exclusions.txt	LTP209	ltpFR	16	15	0	BATHTUB	100	n/a	1	1	0.412841796875	0.57763671875	lower	../fonts/zerothre.ttf
2632633	WORD	wordpools/wasnorm_wordpool_less_exclusions.txt	LTP209	ltpFR	16	15	0	MICROWAVE	892	n/a	1	1	0.412841796875	0.57763671875	lower	../fonts/zerothre.ttf
2636526	WORD	wordpools/wasnorm_wordpool_less_exclusions.txt	LTP209	ltpFR	16	15	0	STAPLE	1371	n/a	0	1	0.412841796875	0.57763671875	lower	../fonts/zerothre.ttf
2640454	WORD	wordpools/wasnorm_wordpool_less_exclusions.txt	LTP209	ltpFR	16	15	0	DRAWER	493	n/a	1	1	0.412841796875	0.57763671875	lower	../fonts/zerothre.ttf
2644632	WORD	wordpools/wasnorm_wordpool_less_exclusions.txt	LTP209	ltpFR	16	15	0	ROBE	1198	n/a	1	1	0.412841796875	0.57763671875	lower	../fonts/zerothre.ttf
2648559	WORD	wordpools/wasnorm_wordpool_less_exclusions.txt	LTP209	ltpFR	16	15	0	PIGMENT	1066	n/a	1	1	0.412841796875	0.57763671875	lower	../fonts/zerothre.ttf
2652553	WORD	wordpools/wasnorm_wordpool_less_exclusions.txt	LTP209	ltpFR	16	15	0	WHEAT	1602	n/a	0	1	0.412841796875	0.57763671875	lower	../fonts/zerothre.ttf
2656496	WORD	wordpools/wasnorm_wordpool_less_exclusions.txt	LTP209	ltpFR	16	15	0	KITCHEN	778	n/a	1	1	0.412841796875	0.57763671875	lower	../fonts/zerothre.ttf
2660375	WORD	wordpools/wasnorm_wordpool_less_exclusions.txt	LTP209	ltpFR	16	15	0	COMMUNITY	356	n/a	1	1	0.412841796875	0.57763671875	lower	../fonts/zerothre.ttf
2664451	WORD	wordpools/wasnorm_wordpool_less_exclusions.txt	LTP209	ltpFR	16	15	0	ARCHITECT	36	n/a	1	1	0.412841796875	0.57763671875	lower	../fonts/zerothre.ttf
2670178	REC_START	n/a	LTP209	ltpFR	16	15	n/a	n/a	n/a	n/a	n/a	n/a	n/a	n/a	n/a	n/a
2670562	REC_WORD	wordpools/wasnorm_wordpool_less_exclusions.txt	LTP209	ltpFR	16	15	0	ARCHITECT	36	n/a	1	n/a	n/a	n/a	n/a	n/a
2672253	REC_WORD	wordpools/wasnorm_wordpool_less_exclusions.txt	LTP209	ltpFR	16	15	0	KITCHEN	778	n/a	1	n/a	n/a	n/a	n/a	n/a
2673505	REC_WORD	wordpools/wasnorm_wordpool_less_exclusions.txt	LTP209	ltpFR	16	15	0	BATHTUB	100	n/a	1	n/a	n/a	n/a	n/a	n/a
2676738	REC_WORD	wordpools/wasnorm_wordpool_less_exclusions.txt	LTP209	ltpFR	16	15	0	EXPERT	543	n/a	1	n/a	n/a	n/a	n/a	n/a
2680255	REC_WORD	wordpools/wasnorm_wordpool_less_exclusions.txt	LTP209	ltpFR	16	15	0	SUMMIT	1405	n/a	1	n/a	n/a	n/a	n/a	n/a
2696686	REC_WORD	wordpools/wasnorm_wordpool_less_exclusions.txt	LTP209	ltpFR	16	15	0	ARCHITECT	36	n/a	1	n/a	n/a	n/a	n/a	n/a
2704350	REC_WORD	wordpools/wasnorm_wordpool_less_exclusions.txt	LTP209	ltpFR	16	15	0	VIKING	1565	n/a	1	n/a	n/a	n/a	n/a	n/a
2706445	REC_WORD	wordpools/wasnorm_wordpool_less_exclusions.txt	LTP209	ltpFR	16	15	0	ANCHOR	21	n/a	1	n/a	n/a	n/a	n/a	n/a
2813130	WORD	wordpools/wasnorm_wordpool_less_exclusions.txt	LTP209	ltpFR	16	16	1	ANT	25	n/a	1	0	0.5869140625	0.422607421875	upper	../fonts/amplitud.ttf
2817058	WORD	wordpools/wasnorm_wordpool_less_exclusions.txt	LTP209	ltpFR	16	16	1	PANTHER	1009	n/a	1	0	0.5869140625	0.422607421875	upper	../fonts/amplitud.ttf
2821035	WORD	wordpools/wasnorm_wordpool_less_exclusions.txt	LTP209	ltpFR	16	16	1	CLAW	319	n/a	1	0	0.5869140625	0.422607421875	upper	../fonts/amplitud.ttf
2825129	WORD	wordpools/wasnorm_wordpool_less_exclusions.txt	LTP209	ltpFR	16	16	0	SUPPER	1411	n/a	1	1	0.412841796875	0.57763671875	lower	../fonts/zerothre.ttf
2828990	WORD	wordpools/wasnorm_wordpool_less_exclusions.txt	LTP209	ltpFR	16	16	0	STOOL	1386	n/a	0	1	0.412841796875	0.57763671875	lower	../fonts/zerothre.ttf
2832934	WORD	wordpools/wasnorm_wordpool_less_exclusions.txt	LTP209	ltpFR	16	16	0	FEAST	556	n/a	1	1	0.412841796875	0.57763671875	lower	../fonts/zerothre.ttf
2837028	WORD	wordpools/wasnorm_wordpool_less_exclusions.txt	LTP209	ltpFR	16	16	0	HORNET	718	n/a	0	1	0.412841796875	0.57763671875	lower	../fonts/zerothre.ttf
2841105	WORD	wordpools/wasnorm_wordpool_less_exclusions.txt	LTP209	ltpFR	16	16	1	COCKTAIL	338	n/a	0	0	0.5869140625	0.422607421875	upper	../fonts/amplitud.ttf
2844966	WORD	wordpools/wasnorm_wordpool_less_exclusions.txt	LTP209	ltpFR	16	16	1	CELLAR	267	n/a	0	0	0.5869140625	0.422607421875	upper	../fonts/amplitud.ttf
2849143	WORD	wordpools/wasnorm_wordpool_less_exclusions.txt	LTP209	ltpFR	16	16	0	OX	994	n/a	1	1	0.412841796875	0.57763671875	lower	../fonts/zerothre.ttf
2853021	WORD	wordpools/wasnorm_wordpool_less_exclusions.txt	LTP209	ltpFR	16	16	0	BARN	89	n/a	1	1	0.412841796875	0.57763671875	lower	../fonts/zerothre.ttf
2857198	WORD	wordpools/wasnorm_wordpool_less_exclusions.txt	LTP209	ltpFR	16	16	0	SERVER	1272	n/a	1	1	0.412841796875	0.57763671875	lower	../fonts/zerothre.ttf
2861408	WORD	wordpools/wasnorm_wordpool_less_exclusions.txt	LTP209	ltpFR	16	16	0	CHAUFFEUR	283	n/a	1	1	0.412841796875	0.57763671875	lower	../fonts/zerothre.ttf
2865552	WORD	wordpools/wasnorm_wordpool_less_exclusions.txt	LTP209	ltpFR	16	16	1	TOOL	1480	n/a	0	0	0.5869140625	0.422607421875	upper	../fonts/amplitud.ttf
2869462	WORD	wordpools/wasnorm_wordpool_less_exclusions.txt	LTP209	ltpFR	16	16	1	PLATE	1086	n/a	0	0	0.5869140625	0.422607421875	upper	../fonts/amplitud.ttf
2873522	WORD	wordpools/wasnorm_wordpool_less_exclusions.txt	LTP209	ltpFR	16	16	1	DEPUTY	450	n/a	1	0	0.5869140625	0.422607421875	upper	../fonts/amplitud.ttf
2879615	REC_START	n/a	LTP209	ltpFR	16	16	n/a	n/a	n/a	n/a	n/a	n/a	n/a	n/a	n/a	n/a
2880623	REC_WORD	wordpools/wasnorm_wordpool_less_exclusions.txt	LTP209	ltpFR	16	16	1	DEPUTY	450	n/a	1	n/a	n/a	n/a	n/a	n/a
2882095	REC_WORD	wordpools/wasnorm_wordpool_less_exclusions.txt	LTP209	ltpFR	16	16	1	DEPUTY	450	n/a	1	n/a	n/a	n/a	n/a	n/a
2883032	REC_WORD	wordpools/wasnorm_wordpool_less_exclusions.txt	LTP209	ltpFR	16	16	1	PLATE	1086	n/a	0	n/a	n/a	n/a	n/a	n/a
2885773	REC_WORD	wordpools/wasnorm_wordpool_less_exclusions.txt	LTP209	ltpFR	16	16	0	FEAST	556	n/a	1	n/a	n/a	n/a	n/a	n/a
2886903	REC_WORD	wordpools/wasnorm_wordpool_less_exclusions.txt	LTP209	ltpFR	16	16	0	SUPPER	1411	n/a	1	n/a	n/a	n/a	n/a	n/a
2888390	REC_WORD	wordpools/wasnorm_wordpool_less_exclusions.txt	LTP209	ltpFR	16	16	1	CLAW	319	n/a	1	n/a	n/a	n/a	n/a	n/a
2889692	REC_WORD	wordpools/wasnorm_wordpool_less_exclusions.txt	LTP209	ltpFR	16	16	1	PANTHER	1009	n/a	1	n/a	n/a	n/a	n/a	n/a
2891044	REC_WORD	wordpools/wasnorm_wordpool_less_exclusions.txt	LTP209	ltpFR	16	16	1	ANT	25	n/a	1	n/a	n/a	n/a	n/a	n/a
2893119	REC_WORD	wordpools/wasnorm_wordpool_less_exclusions.txt	LTP209	ltpFR	16	16	0	HORNET	718	n/a	0	n/a	n/a	n/a	n/a	n/a
2900867	REC_WORD	wordpools/wasnorm_wordpool_less_exclusions.txt	LTP209	ltpFR	16	16	0	CHAUFFEUR	283	n/a	1	n/a	n/a	n/a	n/a	n/a
2902069	REC_WORD	wordpools/wasnorm_wordpool_less_exclusions.txt	LTP209	ltpFR	16	16	0	OX	994	n/a	1	n/a	n/a	n/a	n/a	n/a
2903085	REC_WORD	wordpools/wasnorm_wordpool_less_exclusions.txt	LTP209	ltpFR	16	16	0	BARN	89	n/a	1	n/a	n/a	n/a	n/a	n/a
2906035	REC_WORD	wordpools/wasnorm_wordpool_less_exclusions.txt	LTP209	ltpFR	16	16	0	SERVER	1272	n/a	1	n/a	n/a	n/a	n/a	n/a
2932790	REC_WORD	wordpools/wasnorm_wordpool_less_exclusions.txt	LTP209	ltpFR	16	16	1	CELLAR	267	n/a	0	n/a	n/a	n/a	n/a	n/a
2933783	REC_WORD_VV	wordpools/wasnorm_wordpool_less_exclusions.txt	LTP209	ltpFR	16	16	n/a	<>	-1	n/a	n/a	n/a	n/a	n/a	n/a	n/a
2935862	REC_WORD	wordpools/wasnorm_wordpool_less_exclusions.txt	LTP209	ltpFR	16	16	1	COCKTAIL	338	n/a	0	n/a	n/a	n/a	n/a	n/a
2987986	REC_START	n/a	LTP209	ltpFR	16	n/a	n/a	n/a	n/a	n/a	n/a	n/a	n/a	n/a	n/a	n/a
2988689	FFR_REC_WORD	wordpools/wasnorm_wordpool_less_exclusions.txt	LTP209	ltpFR	16	n/a	1	COCKTAIL	338	n/a	0	n/a	n/a	n/a	n/a	n/a
2989777	FFR_REC_WORD	wordpools/wasnorm_wordpool_less_exclusions.txt	LTP209	ltpFR	16	n/a	1	POPE	1105	n/a	1	n/a	n/a	n/a	n/a	n/a
2990655	FFR_REC_WORD	wordpools/wasnorm_wordpool_less_exclusions.txt	LTP209	ltpFR	16	n/a	0	OX	994	n/a	1	n/a	n/a	n/a	n/a	n/a
2991757	FFR_REC_WORD	wordpools/wasnorm_wordpool_less_exclusions.txt	LTP209	ltpFR	16	n/a	1	CELLAR	267	n/a	0	n/a	n/a	n/a	n/a	n/a
2993259	FFR_REC_WORD	wordpools/wasnorm_wordpool_less_exclusions.txt	LTP209	ltpFR	16	n/a	0	KITCHEN	778	n/a	1	n/a	n/a	n/a	n/a	n/a
2994107	FFR_REC_WORD	wordpools/wasnorm_wordpool_less_exclusions.txt	LTP209	ltpFR	16	n/a	0	BATHTUB	100	n/a	1	n/a	n/a	n/a	n/a	n/a
2997779	FFR_REC_WORD	wordpools/wasnorm_wordpool_less_exclusions.txt	LTP209	ltpFR	16	n/a	1	ORCHID	982	n/a	1	n/a	n/a	n/a	n/a	n/a
3000732	FFR_REC_WORD	wordpools/wasnorm_wordpool_less_exclusions.txt	LTP209	ltpFR	16	n/a	0	DANDELION	438	n/a	1	n/a	n/a	n/a	n/a	n/a
3001760	FFR_REC_WORD	wordpools/wasnorm_wordpool_less_exclusions.txt	LTP209	ltpFR	16	n/a	0	CATERPILLAR	259	n/a	0	n/a	n/a	n/a	n/a	n/a
3004773	FFR_REC_WORD	wordpools/wasnorm_wordpool_less_exclusions.txt	LTP209	ltpFR	16	n/a	1	BERRY	122	n/a	1	n/a	n/a	n/a	n/a	n/a
3006698	FFR_REC_WORD	wordpools/wasnorm_wordpool_less_exclusions.txt	LTP209	ltpFR	16	n/a	-1	RASPBERRY	1168	n/a	-1	n/a	n/a	n/a	n/a	n/a
3008479	FFR_REC_WORD	wordpools/wasnorm_wordpool_less_exclusions.txt	LTP209	ltpFR	16	n/a	-1	ICING	732	n/a	-1	n/a	n/a	n/a	n/a	n/a
3009607	FFR_REC_WORD	wordpools/wasnorm_wordpool_less_exclusions.txt	LTP209	ltpFR	16	n/a	-1	STRAWBERRY	1391	n/a	-1	n/a	n/a	n/a	n/a	n/a
3011931	FFR_REC_WORD	wordpools/wasnorm_wordpool_less_exclusions.txt	LTP209	ltpFR	16	n/a	1	PLATE	1086	n/a	0	n/a	n/a	n/a	n/a	n/a
3013039	FFR_REC_WORD	wordpools/wasnorm_wordpool_less_exclusions.txt	LTP209	ltpFR	16	n/a	0	SUPPER	1411	n/a	1	n/a	n/a	n/a	n/a	n/a
3014036	FFR_REC_WORD	wordpools/wasnorm_wordpool_less_exclusions.txt	LTP209	ltpFR	16	n/a	0	FEAST	556	n/a	1	n/a	n/a	n/a	n/a	n/a
3017070	FFR_REC_WORD	wordpools/wasnorm_wordpool_less_exclusions.txt	LTP209	ltpFR	16	n/a	0	SERVER	1272	n/a	1	n/a	n/a	n/a	n/a	n/a
3018267	FFR_REC_WORD	wordpools/wasnorm_wordpool_less_exclusions.txt	LTP209	ltpFR	16	n/a	0	CHAUFFEUR	283	n/a	1	n/a	n/a	n/a	n/a	n/a
3022512	FFR_REC_WORD	wordpools/wasnorm_wordpool_less_exclusions.txt	LTP209	ltpFR	16	n/a	0	BARN	89	n/a	1	n/a	n/a	n/a	n/a	n/a
3023570	FFR_REC_WORD	wordpools/wasnorm_wordpool_less_exclusions.txt	LTP209	ltpFR	16	n/a	0	OX	994	n/a	1	n/a	n/a	n/a	n/a	n/a
3024637	FFR_REC_WORD	wordpools/wasnorm_wordpool_less_exclusions.txt	LTP209	ltpFR	16	n/a	0	STREAM	1392	n/a	1	n/a	n/a	n/a	n/a	n/a
3025915	FFR_REC_WORD	wordpools/wasnorm_wordpool_less_exclusions.txt	LTP209	ltpFR	16	n/a	n/a	CREEK	404	n/a	n/a	n/a	n/a	n/a	n/a	n/a
3027127	FFR_REC_WORD	wordpools/wasnorm_wordpool_less_exclusions.txt	LTP209	ltpFR	16	n/a	0	BUCKET	184	n/a	1	n/a	n/a	n/a	n/a	n/a
3034191	FFR_REC_WORD	wordpools/wasnorm_wordpool_less_exclusions.txt	LTP209	ltpFR	16	n/a	0	ROBE	1198	n/a	1	n/a	n/a	n/a	n/a	n/a
3036421	FFR_REC_WORD	wordpools/wasnorm_wordpool_less_exclusions.txt	LTP209	ltpFR	16	n/a	0	GOWN	652	n/a	1	n/a	n/a	n/a	n/a	n/a
3037608	FFR_REC_WORD	wordpools/wasnorm_wordpool_less_exclusions.txt	LTP209	ltpFR	16	n/a	0	TUTU	1524	n/a	0	n/a	n/a	n/a	n/a	n/a
3040157	FFR_REC_WORD	wordpools/wasnorm_wordpool_less_exclusions.txt	LTP209	ltpFR	16	n/a	-1	PARENT	1013	n/a	-1	n/a	n/a	n/a	n/a	n/a
3042242	FFR_REC_WORD	wordpools/wasnorm_wordpool_less_exclusions.txt	LTP209	ltpFR	16	n/a	1	QUEEN	1149	n/a	1	n/a	n/a	n/a	n/a	n/a
3043265	FFR_REC_WORD	wordpools/wasnorm_wordpool_less_exclusions.txt	LTP209	ltpFR	16	n/a	1	LADY	794	n/a	1	n/a	n/a	n/a	n/a	n/a
3044454	FFR_REC_WORD	wordpools/wasnorm_wordpool_less_exclusions.txt	LTP209	ltpFR	16	n/a	1	FOUNTAIN	597	n/a	0	n/a	n/a	n/a	n/a	n/a
3045725	FFR_REC_WORD	wordpools/wasnorm_wordpool_less_exclusions.txt	LTP209	ltpFR	16	n/a	1	DIME	466	n/a	0	n/a	n/a	n/a	n/a	n/a
3047560	FFR_REC_WORD	wordpools/wasnorm_wordpool_less_exclusions.txt	LTP209	ltpFR	16	n/a	-1	COIN	343	n/a	-1	n/a	n/a	n/a	n/a	n/a
3058376	FFR_REC_WORD	wordpools/wasnorm_wordpool_less_exclusions.txt	LTP209	ltpFR	16	n/a	0	PORCUPINE	1107	n/a	0	n/a	n/a	n/a	n/a	n/a
3060177	FFR_REC_WORD	wordpools/wasnorm_wordpool_less_exclusions.txt	LTP209	ltpFR	16	n/a	0	BUTTER	205	n/a	0	n/a	n/a	n/a	n/a	n/a
3061194	FFR_REC_WORD	wordpools/wasnorm_wordpool_less_exclusions.txt	LTP209	ltpFR	16	n/a	-1	MARGARINE	868	n/a	-1	n/a	n/a	n/a	n/a	n/a
3062531	FFR_REC_WORD	wordpools/wasnorm_wordpool_less_exclusions.txt	LTP209	ltpFR	16	n/a	-1	SANDWICH	1232	n/a	-1	n/a	n/a	n/a	n/a	n/a
3063531	FFR_REC_WORD_VV	wordpools/wasnorm_wordpool_less_exclusions.txt	LTP209	ltpFR	16	n/a	n/a	<>	-1	n/a	n/a	n/a	n/a	n/a	n/a	n/a
3075172	FFR_REC_WORD	wordpools/wasnorm_wordpool_less_exclusions.txt	LTP209	ltpFR	16	n/a	1	SCOTCH	1251	n/a	0	n/a	n/a	n/a	n/a	n/a
3077013	FFR_REC_WORD	wordpools/wasnorm_wordpool_less_exclusions.txt	LTP209	ltpFR	16	n/a	0	CASHIER	254	n/a	1	n/a	n/a	n/a	n/a	n/a
3078485	FFR_REC_WORD	wordpools/wasnorm_wordpool_less_exclusions.txt	LTP209	ltpFR	16	n/a	0	CREVICE	405	n/a	0	n/a	n/a	n/a	n/a	n/a
3079777	FFR_REC_WORD	wordpools/wasnorm_wordpool_less_exclusions.txt	LTP209	ltpFR	16	n/a	0	MATCH	878	n/a	0	n/a	n/a	n/a	n/a	n/a
3081074	FFR_REC_WORD	wordpools/wasnorm_wordpool_less_exclusions.txt	LTP209	ltpFR	16	n/a	0	TRENCH	1503	n/a	1	n/a	n/a	n/a	n/a	n/a
3082406	FFR_REC_WORD	wordpools/wasnorm_wordpool_less_exclusions.txt	LTP209	ltpFR	16	n/a	0	MICROWAVE	892	n/a	1	n/a	n/a	n/a	n/a	n/a
3089211	FFR_REC_WORD	wordpools/wasnorm_wordpool_less_exclusions.txt	LTP209	ltpFR	16	n/a	0	EGG	518	n/a	0	n/a	n/a	n/a	n/a	n/a
3092982	FFR_REC_WORD	wordpools/wasnorm_wordpool_less_exclusions.txt	LTP209	ltpFR	16	n/a	0	ARCHITECT	36	n/a	1	n/a	n/a	n/a	n/a	n/a
3094603	FFR_REC_WORD	wordpools/wasnorm_wordpool_less_exclusions.txt	LTP209	ltpFR	16	n/a	0	MAP	865	n/a	1	n/a	n/a	n/a	n/a	n/a
3095606	FFR_REC_WORD	wordpools/wasnorm_wordpool_less_exclusions.txt	LTP209	ltpFR	16	n/a	0	CHART	282	n/a	0	n/a	n/a	n/a	n/a	n/a
3096559	FFR_REC_WORD	wordpools/wasnorm_wordpool_less_exclusions.txt	LTP209	ltpFR	16	n/a	0	SCREW	1254	n/a	0	n/a	n/a	n/a	n/a	n/a
3097906	FFR_REC_WORD	wordpools/wasnorm_wordpool_less_exclusions.txt	LTP209	ltpFR	16	n/a	0	TERMITE	1451	n/a	0	n/a	n/a	n/a	n/a	n/a
3101513	FFR_REC_WORD	wordpools/wasnorm_wordpool_less_exclusions.txt	LTP209	ltpFR	16	n/a	1	ANT	25	n/a	1	n/a	n/a	n/a	n/a	n/a
3104621	FFR_REC_WORD	wordpools/wasnorm_wordpool_less_exclusions.txt	LTP209	ltpFR	16	n/a	1	ANTELOPE	27	n/a	1	n/a	n/a	n/a	n/a	n/a
3107748	FFR_REC_WORD	wordpools/wasnorm_wordpool_less_exclusions.txt	LTP209	ltpFR	16	n/a	0	STALLION	1369	n/a	1	n/a	n/a	n/a	n/a	n/a
3109071	FFR_REC_WORD	wordpools/wasnorm_wordpool_less_exclusions.txt	LTP209	ltpFR	16	n/a	1	TAIL	1430	n/a	1	n/a	n/a	n/a	n/a	n/a
3110063	FFR_REC_WORD	wordpools/wasnorm_wordpool_less_exclusions.txt	LTP209	ltpFR	16	n/a	0	SADDLE	1221	n/a	1	n/a	n/a	n/a	n/a	n/a
3123164	FFR_REC_WORD	wordpools/wasnorm_wordpool_less_exclusions.txt	LTP209	ltpFR	16	n/a	0	COMMUNITY	356	n/a	1	n/a	n/a	n/a	n/a	n/a
3145817	FFR_REC_WORD	wordpools/wasnorm_wordpool_less_exclusions.txt	LTP209	ltpFR	16	n/a	0	CASHIER	254	n/a	1	n/a	n/a	n/a	n/a	n/a
3152302	FFR_REC_WORD	wordpools/wasnorm_wordpool_less_exclusions.txt	LTP209	ltpFR	16	n/a	1	COCKTAIL	338	n/a	0	n/a	n/a	n/a	n/a	n/a
3166475	FFR_REC_WORD	wordpools/wasnorm_wordpool_less_exclusions.txt	LTP209	ltpFR	16	n/a	1	PANTHER	1009	n/a	1	n/a	n/a	n/a	n/a	n/a
3173514	FFR_REC_WORD	wordpools/wasnorm_wordpool_less_exclusions.txt	LTP209	ltpFR	16	n/a	0	COW	393	n/a	1	n/a	n/a	n/a	n/a	n/a
3174986	FFR_REC_WORD	wordpools/wasnorm_wordpool_less_exclusions.txt	LTP209	ltpFR	16	n/a	0	PIG	1064	n/a	1	n/a	n/a	n/a	n/a	n/a
3182010	FFR_REC_WORD	wordpools/wasnorm_wordpool_less_exclusions.txt	LTP209	ltpFR	16	n/a	0	WILDERNESS	1610	n/a	1	n/a	n/a	n/a	n/a	n/a
3183172	FFR_REC_WORD	wordpools/wasnorm_wordpool_less_exclusions.txt	LTP209	ltpFR	16	n/a	0	SUMMIT	1405	n/a	1	n/a	n/a	n/a	n/a	n/a
3184320	FFR_REC_WORD	wordpools/wasnorm_wordpool_less_exclusions.txt	LTP209	ltpFR	16	n/a	-1	ICEBERG	731	n/a	-1	n/a	n/a	n/a	n/a	n/a
3185297	FFR_REC_WORD	wordpools/wasnorm_wordpool_less_exclusions.txt	LTP209	ltpFR	16	n/a	-1	LID	817	n/a	-1	n/a	n/a	n/a	n/a	n/a
3186460	FFR_REC_WORD	wordpools/wasnorm_wordpool_less_exclusions.txt	LTP209	ltpFR	16	n/a	0	VIKING	1565	n/a	1	n/a	n/a	n/a	n/a	n/a
3187537	FFR_REC_WORD	wordpools/wasnorm_wordpool_less_exclusions.txt	LTP209	ltpFR	16	n/a	0	ANCHOR	21	n/a	1	n/a	n/a	n/a	n/a	n/a
3188635	FFR_REC_WORD	wordpools/wasnorm_wordpool_less_exclusions.txt	LTP209	ltpFR	16	n/a	1	BAIT	70	n/a	1	n/a	n/a	n/a	n/a	n/a
3190491	FFR_REC_WORD	wordpools/wasnorm_wordpool_less_exclusions.txt	LTP209	ltpFR	16	n/a	-1	CREW	406	n/a	-1	n/a	n/a	n/a	n/a	n/a
3191314	FFR_REC_WORD	wordpools/wasnorm_wordpool_less_exclusions.txt	LTP209	ltpFR	16	n/a	-1	SUBMARINE	1398	n/a	-1	n/a	n/a	n/a	n/a	n/a
3196986	FFR_REC_WORD	wordpools/wasnorm_wordpool_less_exclusions.txt	LTP209	ltpFR	16	n/a	1	JELLO	754	n/a	3	n/a	n/a	n/a	n/a	n/a
3199525	FFR_REC_WORD	wordpools/wasnorm_wordpool_less_exclusions.txt	LTP209	ltpFR	16	n/a	1	BABY	64	n/a	1	n/a	n/a	n/a	n/a	n/a
3216322	FFR_REC_WORD	wordpools/wasnorm_wordpool_less_exclusions.txt	LTP209	ltpFR	16	n/a	1	PLATE	1086	n/a	0	n/a	n/a	n/a	n/a	n/a
3217554	FFR_REC_WORD	wordpools/wasnorm_wordpool_less_exclusions.txt	LTP209	ltpFR	16	n/a	0	STOOL	1386	n/a	0	n/a	n/a	n/a	n/a	n/a
3222957	FFR_REC_WORD	wordpools/wasnorm_wordpool_less_exclusions.txt	LTP209	ltpFR	16	n/a	0	SURVEY	1414	n/a	0	n/a	n/a	n/a	n/a	n/a
3224344	FFR_REC_WORD	wordpools/wasnorm_wordpool_less_exclusions.txt	LTP209	ltpFR	16	n/a	-1	APPLICATION	34	n/a	-1	n/a	n/a	n/a	n/a	n/a
3232695	FFR_REC_WORD	wordpools/wasnorm_wordpool_less_exclusions.txt	LTP209	ltpFR	16	n/a	0	LOOP	844	n/a	0	n/a	n/a	n/a	n/a	n/a
3245841	FFR_REC_WORD	wordpools/wasnorm_wordpool_less_exclusions.txt	LTP209	ltpFR	16	n/a	0	STOCKING	1383	n/a	0	n/a	n/a	n/a	n/a	n/a
3252884	FFR_REC_WORD	wordpools/wasnorm_wordpool_less_exclusions.txt	LTP209	ltpFR	16	n/a	1	DIVER	476	n/a	1	n/a	n/a	n/a	n/a	n/a
3254311	FFR_REC_WORD	wordpools/wasnorm_wordpool_less_exclusions.txt	LTP209	ltpFR	16	n/a	1	CLAW	319	n/a	1	n/a	n/a	n/a	n/a	n/a
3256186	FFR_REC_WORD	wordpools/wasnorm_wordpool_less_exclusions.txt	LTP209	ltpFR	16	n/a	1	CRAB	397	n/a	1	n/a	n/a	n/a	n/a	n/a
3257274	FFR_REC_WORD	wordpools/wasnorm_wordpool_less_exclusions.txt	LTP209	ltpFR	16	n/a	1	CLIFF	322	n/a	0	n/a	n/a	n/a	n/a	n/a
3264398	FFR_REC_WORD_VV	wordpools/wasnorm_wordpool_less_exclusions.txt	LTP209	ltpFR	16	n/a	n/a	<>	-1	n/a	n/a	n/a	n/a	n/a	n/a	n/a
3264919	FFR_REC_WORD	wordpools/wasnorm_wordpool_less_exclusions.txt	LTP209	ltpFR	16	n/a	-1	REPTILE	1185	n/a	-1	n/a	n/a	n/a	n/a	n/a
3270085	FFR_REC_WORD	wordpools/wasnorm_wordpool_less_exclusions.txt	LTP209	ltpFR	16	n/a	1	LIZARD	834	n/a	1	n/a	n/a	n/a	n/a	n/a
3277398	FFR_REC_WORD	wordpools/wasnorm_wordpool_less_exclusions.txt	LTP209	ltpFR	16	n/a	1	CORAL	378	n/a	1	n/a	n/a	n/a	n/a	n/a
3287340	FFR_REC_WORD	wordpools/wasnorm_wordpool_less_exclusions.txt	LTP209	ltpFR	16	n/a	1	TRIBE	1505	n/a	1	n/a	n/a	n/a	n/a	n/a
3339994	REC_START	n/a	LTP209	ltpFR	16	1	n/a	n/a	n/a	n/a	n/a	n/a	n/a	n/a	n/a	n/a
3340026	RECOG_TARGET	n/a	LTP209	ltpFR	16	1	1	NAVIGATOR	938	5	1	n/a	n/a	n/a	n/a	n/a
3341364	RECOG_RESP	n/a	LTP209	ltpFR	16	1	1	NAVIGATOR	938	n/a	1	n/a	n/a	n/a	n/a	n/a
3342408	RECOG_CONF	n/a	LTP209	ltpFR	16	1	1	NAVIGATOR	938	5	1	n/a	n/a	n/a	n/a	n/a
3344170	RECOG_TARGET	n/a	LTP209	ltpFR	16	1	0	DINER	467	5	0	n/a	n/a	n/a	n/a	n/a
3344908	RECOG_RESP	n/a	LTP209	ltpFR	16	1	0	DINER	467	n/a	0	n/a	n/a	n/a	n/a	n/a
3345964	RECOG_CONF	n/a	LTP209	ltpFR	16	1	0	DINER	467	5	0	n/a	n/a	n/a	n/a	n/a
3347531	RECOG_TARGET	n/a	LTP209	ltpFR	16	1	1	LOAF	835	5	0	n/a	n/a	n/a	n/a	n/a
3348262	RECOG_RESP	n/a	LTP209	ltpFR	16	1	1	LOAF	835	n/a	0	n/a	n/a	n/a	n/a	n/a
3349097	RECOG_CONF	n/a	LTP209	ltpFR	16	1	1	LOAF	835	5	0	n/a	n/a	n/a	n/a	n/a
3350777	RECOG_TARGET	n/a	LTP209	ltpFR	16	1	1	TELESCOPE	1446	5	0	n/a	n/a	n/a	n/a	n/a
3351337	RECOG_RESP	n/a	LTP209	ltpFR	16	1	1	TELESCOPE	1446	n/a	0	n/a	n/a	n/a	n/a	n/a
3352131	RECOG_CONF	n/a	LTP209	ltpFR	16	1	1	TELESCOPE	1446	5	0	n/a	n/a	n/a	n/a	n/a
3353723	RECOG_TARGET	n/a	LTP209	ltpFR	16	1	0	CASHIER	254	5	1	n/a	n/a	n/a	n/a	n/a
3354404	RECOG_RESP	n/a	LTP209	ltpFR	16	1	0	CASHIER	254	n/a	1	n/a	n/a	n/a	n/a	n/a
3355171	RECOG_CONF	n/a	LTP209	ltpFR	16	1	0	CASHIER	254	5	1	n/a	n/a	n/a	n/a	n/a
3356818	RECOG_TARGET	n/a	LTP209	ltpFR	16	1	0	DANDELION	438	5	1	n/a	n/a	n/a	n/a	n/a
3357396	RECOG_RESP	n/a	LTP209	ltpFR	16	1	0	DANDELION	438	n/a	1	n/a	n/a	n/a	n/a	n/a
3358080	RECOG_CONF	n/a	LTP209	ltpFR	16	1	0	DANDELION	438	5	1	n/a	n/a	n/a	n/a	n/a
3359730	RECOG_TARGET	n/a	LTP209	ltpFR	16	1	0	PIGMENT	1066	5	1	n/a	n/a	n/a	n/a	n/a
3360295	RECOG_RESP	n/a	LTP209	ltpFR	16	1	0	PIGMENT	1066	n/a	1	n/a	n/a	n/a	n/a	n/a
3360991	RECOG_CONF	n/a	LTP209	ltpFR	16	1	0	PIGMENT	1066	5	1	n/a	n/a	n/a	n/a	n/a
3362542	RECOG_TARGET	n/a	LTP209	ltpFR	16	1	1	LADY	794	5	1	n/a	n/a	n/a	n/a	n/a
3363100	RECOG_RESP	n/a	LTP209	ltpFR	16	1	1	LADY	794	n/a	1	n/a	n/a	n/a	n/a	n/a
3363798	RECOG_CONF	n/a	LTP209	ltpFR	16	1	1	LADY	794	5	1	n/a	n/a	n/a	n/a	n/a
3365389	RECOG_TARGET	n/a	LTP209	ltpFR	16	1	0	COMMUNITY	356	5	1	n/a	n/a	n/a	n/a	n/a
3365957	RECOG_RESP	n/a	LTP209	ltpFR	16	1	0	COMMUNITY	356	n/a	1	n/a	n/a	n/a	n/a	n/a
3366654	RECOG_CONF	n/a	LTP209	ltpFR	16	1	0	COMMUNITY	356	5	1	n/a	n/a	n/a	n/a	n/a
3368101	RECOG_TARGET	n/a	LTP209	ltpFR	16	1	1	HERB	704	5	1	n/a	n/a	n/a	n/a	n/a
3368686	RECOG_RESP	n/a	LTP209	ltpFR	16	1	1	HERB	704	n/a	1	n/a	n/a	n/a	n/a	n/a
3369342	RECOG_CONF	n/a	LTP209	ltpFR	16	1	1	HERB	704	5	1	n/a	n/a	n/a	n/a	n/a
3370814	RECOG_LURE	n/a	LTP209	ltpFR	16	1	n/a	HAND	683	5	n/a	n/a	n/a	n/a	n/a	n/a
3371589	RECOG_RESP	n/a	LTP209	ltpFR	16	1	n/a	HAND	683	n/a	n/a	n/a	n/a	n/a	n/a	n/a
3372412	RECOG_CONF	n/a	LTP209	ltpFR	16	1	n/a	HAND	683	5	n/a	n/a	n/a	n/a	n/a	n/a
3373893	RECOG_TARGET	n/a	LTP209	ltpFR	16	1	1	FOUNTAIN	597	5	0	n/a	n/a	n/a	n/a	n/a
3374495	RECOG_RESP	n/a	LTP209	ltpFR	16	1	1	FOUNTAIN	597	n/a	0	n/a	n/a	n/a	n/a	n/a
3375113	RECOG_CONF	n/a	LTP209	ltpFR	16	1	1	FOUNTAIN	597	5	0	n/a	n/a	n/a	n/a	n/a
3376672	RECOG_TARGET	n/a	LTP209	ltpFR	16	1	-1	CUSTOMER	430	2	-1	n/a	n/a	n/a	n/a	n/a
3377951	RECOG_RESP	n/a	LTP209	ltpFR	16	1	-1	CUSTOMER	430	n/a	-1	n/a	n/a	n/a	n/a	n/a
3379238	RECOG_CONF	n/a	LTP209	ltpFR	16	1	-1	CUSTOMER	430	2	-1	n/a	n/a	n/a	n/a	n/a
3381098	RECOG_TARGET	n/a	LTP209	ltpFR	16	1	1	POCKETBOOK	1094	5	0	n/a	n/a	n/a	n/a	n/a
3381808	RECOG_RESP	n/a	LTP209	ltpFR	16	1	1	POCKETBOOK	1094	n/a	0	n/a	n/a	n/a	n/a	n/a
3382567	RECOG_CONF	n/a	LTP209	ltpFR	16	1	1	POCKETBOOK	1094	5	0	n/a	n/a	n/a	n/a	n/a
3384227	RECOG_LURE	n/a	LTP209	ltpFR	16	1	n/a	TRAY	1498	5	n/a	n/a	n/a	n/a	n/a	n/a
3384948	RECOG_RESP	n/a	LTP209	ltpFR	16	1	n/a	TRAY	1498	n/a	n/a	n/a	n/a	n/a	n/a	n/a
3385609	RECOG_CONF	n/a	LTP209	ltpFR	16	1	n/a	TRAY	1498	5	n/a	n/a	n/a	n/a	n/a	n/a
3387173	RECOG_TARGET	n/a	LTP209	ltpFR	16	1	-1	RASPBERRY	1168	5	-1	n/a	n/a	n/a	n/a	n/a
3387807	RECOG_RESP	n/a	LTP209	ltpFR	16	1	-1	RASPBERRY	1168	n/a	-1	n/a	n/a	n/a	n/a	n/a
3388411	RECOG_CONF	n/a	LTP209	ltpFR	16	1	-1	RASPBERRY	1168	5	-1	n/a	n/a	n/a	n/a	n/a
3389902	RECOG_TARGET	n/a	LTP209	ltpFR	16	1	1	LAGOON	795	1	0	n/a	n/a	n/a	n/a	n/a
3390718	RECOG_RESP	n/a	LTP209	ltpFR	16	1	1	LAGOON	795	n/a	0	n/a	n/a	n/a	n/a	n/a
3391665	RECOG_CONF	n/a	LTP209	ltpFR	16	1	1	LAGOON	795	1	0	n/a	n/a	n/a	n/a	n/a
3393529	RECOG_TARGET	n/a	LTP209	ltpFR	16	1	-1	POLYESTER	1100	4	-1	n/a	n/a	n/a	n/a	n/a
3394664	RECOG_RESP	n/a	LTP209	ltpFR	16	1	-1	POLYESTER	1100	n/a	-1	n/a	n/a	n/a	n/a	n/a
3395672	RECOG_CONF	n/a	LTP209	ltpFR	16	1	-1	POLYESTER	1100	4	-1	n/a	n/a	n/a	n/a	n/a
3397241	RECOG_TARGET	n/a	LTP209	ltpFR	16	1	1	CRAB	397	5	1	n/a	n/a	n/a	n/a	n/a
3397823	RECOG_RESP	n/a	LTP209	ltpFR	16	1	1	CRAB	397	n/a	1	n/a	n/a	n/a	n/a	n/a
3398516	RECOG_CONF	n/a	LTP209	ltpFR	16	1	1	CRAB	397	5	1	n/a	n/a	n/a	n/a	n/a
3400004	RECOG_TARGET	n/a	LTP209	ltpFR	16	1	1	MOOSE	915	5	1	n/a	n/a	n/a	n/a	n/a
3400662	RECOG_RESP	n/a	LTP209	ltpFR	16	1	1	MOOSE	915	n/a	1	n/a	n/a	n/a	n/a	n/a
3401314	RECOG_CONF	n/a	LTP209	ltpFR	16	1	1	MOOSE	915	5	1	n/a	n/a	n/a	n/a	n/a
3404691	REC_START	n/a	LTP209	ltpFR	16	2	n/a	n/a	n/a	n/a	n/a	n/a	n/a	n/a	n/a	n/a
3404730	RECOG_TARGET	n/a	LTP209	ltpFR	16	2	1	ROOT	1210	5	1	n/a	n/a	n/a	n/a	n/a
3405433	RECOG_RESP	n/a	LTP209	ltpFR	16	2	1	ROOT	1210	n/a	1	n/a	n/a	n/a	n/a	n/a
3406066	RECOG_CONF	n/a	LTP209	ltpFR	16	2	1	ROOT	1210	5	1	n/a	n/a	n/a	n/a	n/a
3407725	RECOG_TARGET	n/a	LTP209	ltpFR	16	2	-1	SUBMARINE	1398	5	-1	n/a	n/a	n/a	n/a	n/a
3408273	RECOG_RESP	n/a	LTP209	ltpFR	16	2	-1	SUBMARINE	1398	n/a	-1	n/a	n/a	n/a	n/a	n/a
3408920	RECOG_CONF	n/a	LTP209	ltpFR	16	2	-1	SUBMARINE	1398	5	-1	n/a	n/a	n/a	n/a	n/a
3410504	RECOG_TARGET	n/a	LTP209	ltpFR	16	2	1	SWIMMER	1420	3	1	n/a	n/a	n/a	n/a	n/a
3411372	RECOG_RESP	n/a	LTP209	ltpFR	16	2	1	SWIMMER	1420	n/a	1	n/a	n/a	n/a	n/a	n/a
3412122	RECOG_CONF	n/a	LTP209	ltpFR	16	2	1	SWIMMER	1420	3	1	n/a	n/a	n/a	n/a	n/a
3413666	RECOG_TARGET	n/a	LTP209	ltpFR	16	2	0	GREASE	660	5	0	n/a	n/a	n/a	n/a	n/a
3414333	RECOG_RESP	n/a	LTP209	ltpFR	16	2	0	GREASE	660	n/a	0	n/a	n/a	n/a	n/a	n/a
3414944	RECOG_CONF	n/a	LTP209	ltpFR	16	2	0	GREASE	660	5	0	n/a	n/a	n/a	n/a	n/a
3416511	RECOG_TARGET	n/a	LTP209	ltpFR	16	2	1	LIZARD	834	5	1	n/a	n/a	n/a	n/a	n/a
3417086	RECOG_RESP	n/a	LTP209	ltpFR	16	2	1	LIZARD	834	n/a	1	n/a	n/a	n/a	n/a	n/a
3417728	RECOG_CONF	n/a	LTP209	ltpFR	16	2	1	LIZARD	834	5	1	n/a	n/a	n/a	n/a	n/a
3419142	RECOG_LURE	n/a	LTP209	ltpFR	16	2	n/a	CATCHER	258	2	n/a	n/a	n/a	n/a	n/a	n/a
3420111	RECOG_RESP	n/a	LTP209	ltpFR	16	2	n/a	CATCHER	258	n/a	n/a	n/a	n/a	n/a	n/a	n/a
3421541	RECOG_CONF	n/a	LTP209	ltpFR	16	2	n/a	CATCHER	258	2	n/a	n/a	n/a	n/a	n/a	n/a
3423202	RECOG_TARGET	n/a	LTP209	ltpFR	16	2	1	CORAL	378	5	1	n/a	n/a	n/a	n/a	n/a
3423778	RECOG_RESP	n/a	LTP209	ltpFR	16	2	1	CORAL	378	n/a	1	n/a	n/a	n/a	n/a	n/a
3424342	RECOG_CONF	n/a	LTP209	ltpFR	16	2	1	CORAL	378	5	1	n/a	n/a	n/a	n/a	n/a
3425915	RECOG_LURE	n/a	LTP209	ltpFR	16	2	n/a	YOKE	1632	5	n/a	n/a	n/a	n/a	n/a	n/a
3426687	RECOG_RESP	n/a	LTP209	ltpFR	16	2	n/a	YOKE	1632	n/a	n/a	n/a	n/a	n/a	n/a	n/a
3427454	RECOG_CONF	n/a	LTP209	ltpFR	16	2	n/a	YOKE	1632	5	n/a	n/a	n/a	n/a	n/a	n/a
3429010	RECOG_TARGET	n/a	LTP209	ltpFR	16	2	0	REFRIGERATOR	1179	1	1	n/a	n/a	n/a	n/a	n/a
3430599	RECOG_RESP	n/a	LTP209	ltpFR	16	2	0	REFRIGERATOR	1179	n/a	1	n/a	n/a	n/a	n/a	n/a
3431607	RECOG_CONF	n/a	LTP209	ltpFR	16	2	0	REFRIGERATOR	1179	1	1	n/a	n/a	n/a	n/a	n/a
3433437	RECOG_TARGET	n/a	LTP209	ltpFR	16	2	-1	STRANGER	1389	5	-1	n/a	n/a	n/a	n/a	n/a
3434264	RECOG_RESP	n/a	LTP209	ltpFR	16	2	-1	STRANGER	1389	n/a	-1	n/a	n/a	n/a	n/a	n/a
3434812	RECOG_CONF	n/a	LTP209	ltpFR	16	2	-1	STRANGER	1389	5	-1	n/a	n/a	n/a	n/a	n/a
3436416	RECOG_TARGET	n/a	LTP209	ltpFR	16	2	1	ANTELOPE	27	5	1	n/a	n/a	n/a	n/a	n/a
3437018	RECOG_RESP	n/a	LTP209	ltpFR	16	2	1	ANTELOPE	27	n/a	1	n/a	n/a	n/a	n/a	n/a
3437584	RECOG_CONF	n/a	LTP209	ltpFR	16	2	1	ANTELOPE	27	5	1	n/a	n/a	n/a	n/a	n/a
3439078	RECOG_TARGET	n/a	LTP209	ltpFR	16	2	-1	PATIO	1025	5	-1	n/a	n/a	n/a	n/a	n/a
3439725	RECOG_RESP	n/a	LTP209	ltpFR	16	2	-1	PATIO	1025	n/a	-1	n/a	n/a	n/a	n/a	n/a
3440337	RECOG_CONF	n/a	LTP209	ltpFR	16	2	-1	PATIO	1025	5	-1	n/a	n/a	n/a	n/a	n/a
3441841	RECOG_TARGET	n/a	LTP209	ltpFR	16	2	0	SERVER	1272	5	1	n/a	n/a	n/a	n/a	n/a
3442615	RECOG_RESP	n/a	LTP209	ltpFR	16	2	0	SERVER	1272	n/a	1	n/a	n/a	n/a	n/a	n/a
3443203	RECOG_CONF	n/a	LTP209	ltpFR	16	2	0	SERVER	1272	5	1	n/a	n/a	n/a	n/a	n/a
3444620	RECOG_TARGET	n/a	LTP209	ltpFR	16	2	0	LOUNGE	845	5	1	n/a	n/a	n/a	n/a	n/a
3445204	RECOG_RESP	n/a	LTP209	ltpFR	16	2	0	LOUNGE	845	n/a	1	n/a	n/a	n/a	n/a	n/a
3445828	RECOG_CONF	n/a	LTP209	ltpFR	16	2	0	LOUNGE	845	5	1	n/a	n/a	n/a	n/a	n/a
3447266	RECOG_TARGET	n/a	LTP209	ltpFR	16	2	0	CHIP	303	5	0	n/a	n/a	n/a	n/a	n/a
3447892	RECOG_RESP	n/a	LTP209	ltpFR	16	2	0	CHIP	303	n/a	0	n/a	n/a	n/a	n/a	n/a
3448416	RECOG_CONF	n/a	LTP209	ltpFR	16	2	0	CHIP	303	5	0	n/a	n/a	n/a	n/a	n/a
3449979	RECOG_LURE	n/a	LTP209	ltpFR	16	2	n/a	SIREN	1310	4	n/a	n/a	n/a	n/a	n/a	n/a
3450756	RECOG_RESP	n/a	LTP209	ltpFR	16	2	n/a	SIREN	1310	n/a	n/a	n/a	n/a	n/a	n/a	n/a
3451450	RECOG_CONF	n/a	LTP209	ltpFR	16	2	n/a	SIREN	1310	4	n/a	n/a	n/a	n/a	n/a	n/a
3452891	RECOG_TARGET	n/a	LTP209	ltpFR	16	2	0	TUTU	1524	5	0	n/a	n/a	n/a	n/a	n/a
3453838	RECOG_RESP	n/a	LTP209	ltpFR	16	2	0	TUTU	1524	n/a	0	n/a	n/a	n/a	n/a	n/a
3454409	RECOG_CONF	n/a	LTP209	ltpFR	16	2	0	TUTU	1524	5	0	n/a	n/a	n/a	n/a	n/a
3455953	RECOG_TARGET	n/a	LTP209	ltpFR	16	2	1	DIME	466	5	0	n/a	n/a	n/a	n/a	n/a
3456544	RECOG_RESP	n/a	LTP209	ltpFR	16	2	1	DIME	466	n/a	0	n/a	n/a	n/a	n/a	n/a
3457156	RECOG_CONF	n/a	LTP209	ltpFR	16	2	1	DIME	466	5	0	n/a	n/a	n/a	n/a	n/a
3458566	RECOG_TARGET	n/a	LTP209	ltpFR	16	2	-1	BEVERAGE	123	5	-1	n/a	n/a	n/a	n/a	n/a
3459266	RECOG_RESP	n/a	LTP209	ltpFR	16	2	-1	BEVERAGE	123	n/a	-1	n/a	n/a	n/a	n/a	n/a
3459908	RECOG_CONF	n/a	LTP209	ltpFR	16	2	-1	BEVERAGE	123	5	-1	n/a	n/a	n/a	n/a	n/a
3461412	RECOG_TARGET	n/a	LTP209	ltpFR	16	2	-1	SUPERMARKET	1409	5	-1	n/a	n/a	n/a	n/a	n/a
3462383	RECOG_RESP	n/a	LTP209	ltpFR	16	2	-1	SUPERMARKET	1409	n/a	-1	n/a	n/a	n/a	n/a	n/a
3463608	RECOG_CONF	n/a	LTP209	ltpFR	16	2	-1	SUPERMARKET	1409	5	-1	n/a	n/a	n/a	n/a	n/a
3525590	REC_START	n/a	LTP209	ltpFR	16	3	n/a	n/a	n/a	n/a	n/a	n/a	n/a	n/a	n/a	n/a
3525616	RECOG_TARGET	n/a	LTP209	ltpFR	16	3	1	COUCH	386	5	0	n/a	n/a	n/a	n/a	n/a
3526455	RECOG_RESP	n/a	LTP209	ltpFR	16	3	1	COUCH	386	n/a	0	n/a	n/a	n/a	n/a	n/a
3527268	RECOG_CONF	n/a	LTP209	ltpFR	16	3	1	COUCH	386	5	0	n/a	n/a	n/a	n/a	n/a
3528711	RECOG_TARGET	n/a	LTP209	ltpFR	16	3	1	CHURCH	307	4	0	n/a	n/a	n/a	n/a	n/a
3529326	RECOG_RESP	n/a	LTP209	ltpFR	16	3	1	CHURCH	307	n/a	0	n/a	n/a	n/a	n/a	n/a
3530070	RECOG_CONF	n/a	LTP209	ltpFR	16	3	1	CHURCH	307	4	0	n/a	n/a	n/a	n/a	n/a
3531607	RECOG_TARGET	n/a	LTP209	ltpFR	16	3	0	TELEPHONE	1445	5	0	n/a	n/a	n/a	n/a	n/a
3532182	RECOG_RESP	n/a	LTP209	ltpFR	16	3	0	TELEPHONE	1445	n/a	0	n/a	n/a	n/a	n/a	n/a
3532691	RECOG_CONF	n/a	LTP209	ltpFR	16	3	0	TELEPHONE	1445	5	0	n/a	n/a	n/a	n/a	n/a
3534136	RECOG_LURE	n/a	LTP209	ltpFR	16	3	n/a	WAVE	1596	3	n/a	n/a	n/a	n/a	n/a	n/a
3534960	RECOG_RESP	n/a	LTP209	ltpFR	16	3	n/a	WAVE	1596	n/a	n/a	n/a	n/a	n/a	n/a	n/a
3535846	RECOG_CONF	n/a	LTP209	ltpFR	16	3	n/a	WAVE	1596	3	n/a	n/a	n/a	n/a	n/a	n/a
3537448	RECOG_TARGET	n/a	LTP209	ltpFR	16	3	1	MALL	860	5	0	n/a	n/a	n/a	n/a	n/a
3538027	RECOG_RESP	n/a	LTP209	ltpFR	16	3	1	MALL	860	n/a	0	n/a	n/a	n/a	n/a	n/a
3538655	RECOG_CONF	n/a	LTP209	ltpFR	16	3	1	MALL	860	5	0	n/a	n/a	n/a	n/a	n/a
3540061	RECOG_LURE	n/a	LTP209	ltpFR	16	3	n/a	EDITORIAL	517	2	n/a	n/a	n/a	n/a	n/a	n/a
3540916	RECOG_RESP	n/a	LTP209	ltpFR	16	3	n/a	EDITORIAL	517	n/a	n/a	n/a	n/a	n/a	n/a	n/a
3541728	RECOG_CONF	n/a	LTP209	ltpFR	16	3	n/a	EDITORIAL	517	2	n/a	n/a	n/a	n/a	n/a	n/a
3543290	RECOG_TARGET	n/a	LTP209	ltpFR	16	3	1	POPE	1105	5	1	n/a	n/a	n/a	n/a	n/a
3543811	RECOG_RESP	n/a	LTP209	ltpFR	16	3	1	POPE	1105	n/a	1	n/a	n/a	n/a	n/a	n/a
3544422	RECOG_CONF	n/a	LTP209	ltpFR	16	3	1	POPE	1105	5	1	n/a	n/a	n/a	n/a	n/a
3545753	RECOG_TARGET	n/a	LTP209	ltpFR	16	3	0	MICROWAVE	892	5	1	n/a	n/a	n/a	n/a	n/a
3546308	RECOG_RESP	n/a	LTP209	ltpFR	16	3	0	MICROWAVE	892	n/a	1	n/a	n/a	n/a	n/a	n/a
3546866	RECOG_CONF	n/a	LTP209	ltpFR	16	3	0	MICROWAVE	892	5	1	n/a	n/a	n/a	n/a	n/a
3548166	RECOG_LURE	n/a	LTP209	ltpFR	16	3	n/a	CONE	363	3	n/a	n/a	n/a	n/a	n/a	n/a
3548902	RECOG_RESP	n/a	LTP209	ltpFR	16	3	n/a	CONE	363	n/a	n/a	n/a	n/a	n/a	n/a	n/a
3549523	RECOG_CONF	n/a	LTP209	ltpFR	16	3	n/a	CONE	363	3	n/a	n/a	n/a	n/a	n/a	n/a
3550961	RECOG_LURE	n/a	LTP209	ltpFR	16	3	n/a	OVAL	990	5	n/a	n/a	n/a	n/a	n/a	n/a
3551652	RECOG_RESP	n/a	LTP209	ltpFR	16	3	n/a	OVAL	990	n/a	n/a	n/a	n/a	n/a	n/a	n/a
3552234	RECOG_CONF	n/a	LTP209	ltpFR	16	3	n/a	OVAL	990	5	n/a	n/a	n/a	n/a	n/a	n/a
3553641	RECOG_TARGET	n/a	LTP209	ltpFR	16	3	0	EXPERT	543	5	1	n/a	n/a	n/a	n/a	n/a
3554284	RECOG_RESP	n/a	LTP209	ltpFR	16	3	0	EXPERT	543	n/a	1	n/a	n/a	n/a	n/a	n/a
3554800	RECOG_CONF	n/a	LTP209	ltpFR	16	3	0	EXPERT	543	5	1	n/a	n/a	n/a	n/a	n/a
3556287	RECOG_TARGET	n/a	LTP209	ltpFR	16	3	0	CANAL	226	5	0	n/a	n/a	n/a	n/a	n/a
3556891	RECOG_RESP	n/a	LTP209	ltpFR	16	3	0	CANAL	226	n/a	0	n/a	n/a	n/a	n/a	n/a
3557462	RECOG_CONF	n/a	LTP209	ltpFR	16	3	0	CANAL	226	5	0	n/a	n/a	n/a	n/a	n/a
3558800	RECOG_LURE	n/a	LTP209	ltpFR	16	3	n/a	GROUND	666	4	n/a	n/a	n/a	n/a	n/a	n/a
3559604	RECOG_RESP	n/a	LTP209	ltpFR	16	3	n/a	GROUND	666	n/a	n/a	n/a	n/a	n/a	n/a	n/a
3560099	RECOG_CONF	n/a	LTP209	ltpFR	16	3	n/a	GROUND	666	4	n/a	n/a	n/a	n/a	n/a	n/a
3561712	RECOG_LURE	n/a	LTP209	ltpFR	16	3	n/a	GODDESS	646	3	n/a	n/a	n/a	n/a	n/a	n/a
3562504	RECOG_RESP	n/a	LTP209	ltpFR	16	3	n/a	GODDESS	646	n/a	n/a	n/a	n/a	n/a	n/a	n/a
3563160	RECOG_CONF	n/a	LTP209	ltpFR	16	3	n/a	GODDESS	646	3	n/a	n/a	n/a	n/a	n/a	n/a
3564774	RECOG_LURE	n/a	LTP209	ltpFR	16	3	n/a	FREEZER	604	5	n/a	n/a	n/a	n/a	n/a	n/a
3565554	RECOG_RESP	n/a	LTP209	ltpFR	16	3	n/a	FREEZER	604	n/a	n/a	n/a	n/a	n/a	n/a	n/a
3566143	RECOG_CONF	n/a	LTP209	ltpFR	16	3	n/a	FREEZER	604	5	n/a	n/a	n/a	n/a	n/a	n/a
3567653	RECOG_TARGET	n/a	LTP209	ltpFR	16	3	-1	DIAL	457	1	-1	n/a	n/a	n/a	n/a	n/a
3568735	RECOG_RESP	n/a	LTP209	ltpFR	16	3	-1	DIAL	457	n/a	-1	n/a	n/a	n/a	n/a	n/a
3569329	RECOG_CONF	n/a	LTP209	ltpFR	16	3	-1	DIAL	457	1	-1	n/a	n/a	n/a	n/a	n/a
3571048	RECOG_TARGET	n/a	LTP209	ltpFR	16	3	0	TRENCH	1503	5	1	n/a	n/a	n/a	n/a	n/a
3571653	RECOG_RESP	n/a	LTP209	ltpFR	16	3	0	TRENCH	1503	n/a	1	n/a	n/a	n/a	n/a	n/a
3572269	RECOG_CONF	n/a	LTP209	ltpFR	16	3	0	TRENCH	1503	5	1	n/a	n/a	n/a	n/a	n/a
3573644	RECOG_TARGET	n/a	LTP209	ltpFR	16	3	1	LEADER	807	2	1	n/a	n/a	n/a	n/a	n/a
3574728	RECOG_RESP	n/a	LTP209	ltpFR	16	3	1	LEADER	807	n/a	1	n/a	n/a	n/a	n/a	n/a
3575713	RECOG_CONF	n/a	LTP209	ltpFR	16	3	1	LEADER	807	2	1	n/a	n/a	n/a	n/a	n/a
3577372	RECOG_LURE	n/a	LTP209	ltpFR	16	3	n/a	STEP	1377	4	n/a	n/a	n/a	n/a	n/a	n/a
3578275	RECOG_RESP	n/a	LTP209	ltpFR	16	3	n/a	STEP	1377	n/a	n/a	n/a	n/a	n/a	n/a	n/a
3578882	RECOG_CONF	n/a	LTP209	ltpFR	16	3	n/a	STEP	1377	4	n/a	n/a	n/a	n/a	n/a	n/a
3580417	RECOG_TARGET	n/a	LTP209	ltpFR	16	3	0	STOOL	1386	5	0	n/a	n/a	n/a	n/a	n/a
3581042	RECOG_RESP	n/a	LTP209	ltpFR	16	3	0	STOOL	1386	n/a	0	n/a	n/a	n/a	n/a	n/a
3581499	RECOG_CONF	n/a	LTP209	ltpFR	16	3	0	STOOL	1386	5	0	n/a	n/a	n/a	n/a	n/a
3584882	REC_START	n/a	LTP209	ltpFR	16	4	n/a	n/a	n/a	n/a	n/a	n/a	n/a	n/a	n/a	n/a
3584911	RECOG_LURE	n/a	LTP209	ltpFR	16	4	n/a	SHIP	1286	3	n/a	n/a	n/a	n/a	n/a	n/a
3585760	RECOG_RESP	n/a	LTP209	ltpFR	16	4	n/a	SHIP	1286	n/a	n/a	n/a	n/a	n/a	n/a	n/a
3586371	RECOG_CONF	n/a	LTP209	ltpFR	16	4	n/a	SHIP	1286	3	n/a	n/a	n/a	n/a	n/a	n/a
3587873	RECOG_TARGET	n/a	LTP209	ltpFR	16	4	-1	MOTH	920	5	-1	n/a	n/a	n/a	n/a	n/a
3588491	RECOG_RESP	n/a	LTP209	ltpFR	16	4	-1	MOTH	920	n/a	-1	n/a	n/a	n/a	n/a	n/a
3589017	RECOG_CONF	n/a	LTP209	ltpFR	16	4	-1	MOTH	920	5	-1	n/a	n/a	n/a	n/a	n/a
3590518	RECOG_TARGET	n/a	LTP209	ltpFR	16	4	1	BERRY	122	5	1	n/a	n/a	n/a	n/a	n/a
3591133	RECOG_RESP	n/a	LTP209	ltpFR	16	4	1	BERRY	122	n/a	1	n/a	n/a	n/a	n/a	n/a
3591711	RECOG_CONF	n/a	LTP209	ltpFR	16	4	1	BERRY	122	5	1	n/a	n/a	n/a	n/a	n/a
3593065	RECOG_TARGET	n/a	LTP209	ltpFR	16	4	1	WATERFALL	1595	1	1	n/a	n/a	n/a	n/a	n/a
3593932	RECOG_RESP	n/a	LTP209	ltpFR	16	4	1	WATERFALL	1595	n/a	1	n/a	n/a	n/a	n/a	n/a
3594545	RECOG_CONF	n/a	LTP209	ltpFR	16	4	1	WATERFALL	1595	1	1	n/a	n/a	n/a	n/a	n/a
3596111	RECOG_TARGET	n/a	LTP209	ltpFR	16	4	1	PIKE	1067	5	1	n/a	n/a	n/a	n/a	n/a
3596709	RECOG_RESP	n/a	LTP209	ltpFR	16	4	1	PIKE	1067	n/a	1	n/a	n/a	n/a	n/a	n/a
3597229	RECOG_CONF	n/a	LTP209	ltpFR	16	4	1	PIKE	1067	5	1	n/a	n/a	n/a	n/a	n/a
3598624	RECOG_LURE	n/a	LTP209	ltpFR	16	4	n/a	PILL	1068	3	n/a	n/a	n/a	n/a	n/a	n/a
3599454	RECOG_RESP	n/a	LTP209	ltpFR	16	4	n/a	PILL	1068	n/a	n/a	n/a	n/a	n/a	n/a	n/a
3600243	RECOG_CONF	n/a	LTP209	ltpFR	16	4	n/a	PILL	1068	3	n/a	n/a	n/a	n/a	n/a	n/a
3601752	RECOG_LURE	n/a	LTP209	ltpFR	16	4	n/a	CYCLONE	431	4	n/a	n/a	n/a	n/a	n/a	n/a
3602546	RECOG_RESP	n/a	LTP209	ltpFR	16	4	n/a	CYCLONE	431	n/a	n/a	n/a	n/a	n/a	n/a	n/a
3603234	RECOG_CONF	n/a	LTP209	ltpFR	16	4	n/a	CYCLONE	431	4	n/a	n/a	n/a	n/a	n/a	n/a
3604764	RECOG_TARGET	n/a	LTP209	ltpFR	16	4	-1	BOOK	149	5	-1	n/a	n/a	n/a	n/a	n/a
3605506	RECOG_RESP	n/a	LTP209	ltpFR	16	4	-1	BOOK	149	n/a	-1	n/a	n/a	n/a	n/a	n/a
3606218	RECOG_CONF	n/a	LTP209	ltpFR	16	4	-1	BOOK	149	5	-1	n/a	n/a	n/a	n/a	n/a
3607793	RECOG_LURE	n/a	LTP209	ltpFR	16	4	n/a	FLUTE	585	5	n/a	n/a	n/a	n/a	n/a	n/a
3608680	RECOG_RESP	n/a	LTP209	ltpFR	16	4	n/a	FLUTE	585	n/a	n/a	n/a	n/a	n/a	n/a	n/a
3609250	RECOG_CONF	n/a	LTP209	ltpFR	16	4	n/a	FLUTE	585	5	n/a	n/a	n/a	n/a	n/a	n/a
3610922	RECOG_TARGET	n/a	LTP209	ltpFR	16	4	0	BARN	89	5	1	n/a	n/a	n/a	n/a	n/a
3611699	RECOG_RESP	n/a	LTP209	ltpFR	16	4	0	BARN	89	n/a	1	n/a	n/a	n/a	n/a	n/a
3612255	RECOG_CONF	n/a	LTP209	ltpFR	16	4	0	BARN	89	5	1	n/a	n/a	n/a	n/a	n/a
3613751	RECOG_TARGET	n/a	LTP209	ltpFR	16	4	0	KITCHEN	778	5	1	n/a	n/a	n/a	n/a	n/a
3614385	RECOG_RESP	n/a	LTP209	ltpFR	16	4	0	KITCHEN	778	n/a	1	n/a	n/a	n/a	n/a	n/a
3614856	RECOG_CONF	n/a	LTP209	ltpFR	16	4	0	KITCHEN	778	5	1	n/a	n/a	n/a	n/a	n/a
3616297	RECOG_LURE	n/a	LTP209	ltpFR	16	4	n/a	VEAL	1551	1	n/a	n/a	n/a	n/a	n/a	n/a
3617750	RECOG_RESP	n/a	LTP209	ltpFR	16	4	n/a	VEAL	1551	n/a	n/a	n/a	n/a	n/a	n/a	n/a
3618500	RECOG_CONF	n/a	LTP209	ltpFR	16	4	n/a	VEAL	1551	1	n/a	n/a	n/a	n/a	n/a	n/a
3620025	RECOG_LURE	n/a	LTP209	ltpFR	16	4	n/a	COMB	351	1	n/a	n/a	n/a	n/a	n/a	n/a
3621154	RECOG_RESP	n/a	LTP209	ltpFR	16	4	n/a	COMB	351	n/a	n/a	n/a	n/a	n/a	n/a	n/a
3622162	RECOG_CONF	n/a	LTP209	ltpFR	16	4	n/a	COMB	351	1	n/a	n/a	n/a	n/a	n/a	n/a
3624036	RECOG_TARGET	n/a	LTP209	ltpFR	16	4	0	STALLION	1369	5	1	n/a	n/a	n/a	n/a	n/a
3625190	RECOG_RESP	n/a	LTP209	ltpFR	16	4	0	STALLION	1369	n/a	1	n/a	n/a	n/a	n/a	n/a
3625655	RECOG_CONF	n/a	LTP209	ltpFR	16	4	0	STALLION	1369	5	1	n/a	n/a	n/a	n/a	n/a
3627164	RECOG_LURE	n/a	LTP209	ltpFR	16	4	n/a	ROOSTER	1209	5	n/a	n/a	n/a	n/a	n/a	n/a
3628204	RECOG_RESP	n/a	LTP209	ltpFR	16	4	n/a	ROOSTER	1209	n/a	n/a	n/a	n/a	n/a	n/a	n/a
3628790	RECOG_CONF	n/a	LTP209	ltpFR	16	4	n/a	ROOSTER	1209	5	n/a	n/a	n/a	n/a	n/a	n/a
3630243	RECOG_TARGET	n/a	LTP209	ltpFR	16	4	-1	FAN	551	3	-1	n/a	n/a	n/a	n/a	n/a
3631309	RECOG_RESP	n/a	LTP209	ltpFR	16	4	-1	FAN	551	n/a	-1	n/a	n/a	n/a	n/a	n/a
3631945	RECOG_CONF	n/a	LTP209	ltpFR	16	4	-1	FAN	551	3	-1	n/a	n/a	n/a	n/a	n/a
3633454	RECOG_LURE	n/a	LTP209	ltpFR	16	4	n/a	DOCTOR	478	5	n/a	n/a	n/a	n/a	n/a	n/a
3634374	RECOG_RESP	n/a	LTP209	ltpFR	16	4	n/a	DOCTOR	478	n/a	n/a	n/a	n/a	n/a	n/a	n/a
3634926	RECOG_CONF	n/a	LTP209	ltpFR	16	4	n/a	DOCTOR	478	5	n/a	n/a	n/a	n/a	n/a	n/a
3636516	RECOG_TARGET	n/a	LTP209	ltpFR	16	4	-1	MAPLE	866	5	-1	n/a	n/a	n/a	n/a	n/a
3637148	RECOG_RESP	n/a	LTP209	ltpFR	16	4	-1	MAPLE	866	n/a	-1	n/a	n/a	n/a	n/a	n/a
3637669	RECOG_CONF	n/a	LTP209	ltpFR	16	4	-1	MAPLE	866	5	-1	n/a	n/a	n/a	n/a	n/a
3639080	RECOG_TARGET	n/a	LTP209	ltpFR	16	4	1	SCOTCH	1251	5	0	n/a	n/a	n/a	n/a	n/a
3639742	RECOG_RESP	n/a	LTP209	ltpFR	16	4	1	SCOTCH	1251	n/a	0	n/a	n/a	n/a	n/a	n/a
3640251	RECOG_CONF	n/a	LTP209	ltpFR	16	4	1	SCOTCH	1251	5	0	n/a	n/a	n/a	n/a	n/a
3641726	RECOG_TARGET	n/a	LTP209	ltpFR	16	4	-1	MAMMAL	861	4	-1	n/a	n/a	n/a	n/a	n/a
3642519	RECOG_RESP	n/a	LTP209	ltpFR	16	4	-1	MAMMAL	861	n/a	-1	n/a	n/a	n/a	n/a	n/a
3643184	RECOG_CONF	n/a	LTP209	ltpFR	16	4	-1	MAMMAL	861	4	-1	n/a	n/a	n/a	n/a	n/a
3685244	REC_START	n/a	LTP209	ltpFR	16	5	n/a	n/a	n/a	n/a	n/a	n/a	n/a	n/a	n/a	n/a
3685277	RECOG_TARGET	n/a	LTP209	ltpFR	16	5	1	KANGAROO	768	5	1	n/a	n/a	n/a	n/a	n/a
3686003	RECOG_RESP	n/a	LTP209	ltpFR	16	5	1	KANGAROO	768	n/a	1	n/a	n/a	n/a	n/a	n/a
3686924	RECOG_CONF	n/a	LTP209	ltpFR	16	5	1	KANGAROO	768	5	1	n/a	n/a	n/a	n/a	n/a
3688622	RECOG_LURE	n/a	LTP209	ltpFR	16	5	n/a	SHED	1277	3	n/a	n/a	n/a	n/a	n/a	n/a
3689422	RECOG_RESP	n/a	LTP209	ltpFR	16	5	n/a	SHED	1277	n/a	n/a	n/a	n/a	n/a	n/a	n/a
3690267	RECOG_CONF	n/a	LTP209	ltpFR	16	5	n/a	SHED	1277	3	n/a	n/a	n/a	n/a	n/a	n/a
3691701	RECOG_TARGET	n/a	LTP209	ltpFR	16	5	-1	WRENCH	1625	5	-1	n/a	n/a	n/a	n/a	n/a
3692442	RECOG_RESP	n/a	LTP209	ltpFR	16	5	-1	WRENCH	1625	n/a	-1	n/a	n/a	n/a	n/a	n/a
3693141	RECOG_CONF	n/a	LTP209	ltpFR	16	5	-1	WRENCH	1625	5	-1	n/a	n/a	n/a	n/a	n/a
3694580	RECOG_LURE	n/a	LTP209	ltpFR	16	5	n/a	SINK	1309	1	n/a	n/a	n/a	n/a	n/a	n/a
3695353	RECOG_RESP	n/a	LTP209	ltpFR	16	5	n/a	SINK	1309	n/a	n/a	n/a	n/a	n/a	n/a	n/a
3696063	RECOG_CONF	n/a	LTP209	ltpFR	16	5	n/a	SINK	1309	1	n/a	n/a	n/a	n/a	n/a	n/a
3697709	RECOG_LURE	n/a	LTP209	ltpFR	16	5	n/a	PAPER	1011	2	n/a	n/a	n/a	n/a	n/a	n/a
3698561	RECOG_RESP	n/a	LTP209	ltpFR	16	5	n/a	PAPER	1011	n/a	n/a	n/a	n/a	n/a	n/a	n/a
3699250	RECOG_CONF	n/a	LTP209	ltpFR	16	5	n/a	PAPER	1011	2	n/a	n/a	n/a	n/a	n/a	n/a
3700804	RECOG_TARGET	n/a	LTP209	ltpFR	16	5	0	CABINET	212	4	1	n/a	n/a	n/a	n/a	n/a
3701580	RECOG_RESP	n/a	LTP209	ltpFR	16	5	0	CABINET	212	n/a	1	n/a	n/a	n/a	n/a	n/a
3702233	RECOG_CONF	n/a	LTP209	ltpFR	16	5	0	CABINET	212	4	1	n/a	n/a	n/a	n/a	n/a
3703717	RECOG_TARGET	n/a	LTP209	ltpFR	16	5	1	CLERK	321	3	1	n/a	n/a	n/a	n/a	n/a
3704391	RECOG_RESP	n/a	LTP209	ltpFR	16	5	1	CLERK	321	n/a	1	n/a	n/a	n/a	n/a	n/a
3705129	RECOG_CONF	n/a	LTP209	ltpFR	16	5	1	CLERK	321	3	1	n/a	n/a	n/a	n/a	n/a
3706695	RECOG_TARGET	n/a	LTP209	ltpFR	16	5	1	MECHANIC	884	5	1	n/a	n/a	n/a	n/a	n/a
3707358	RECOG_RESP	n/a	LTP209	ltpFR	16	5	1	MECHANIC	884	n/a	1	n/a	n/a	n/a	n/a	n/a
3707937	RECOG_CONF	n/a	LTP209	ltpFR	16	5	1	MECHANIC	884	5	1	n/a	n/a	n/a	n/a	n/a
3709457	RECOG_TARGET	n/a	LTP209	ltpFR	16	5	0	PEDESTRIAN	1038	5	1	n/a	n/a	n/a	n/a	n/a
3710093	RECOG_RESP	n/a	LTP209	ltpFR	16	5	0	PEDESTRIAN	1038	n/a	1	n/a	n/a	n/a	n/a	n/a
3710586	RECOG_CONF	n/a	LTP209	ltpFR	16	5	0	PEDESTRIAN	1038	5	1	n/a	n/a	n/a	n/a	n/a
3712037	RECOG_TARGET	n/a	LTP209	ltpFR	16	5	1	CLAW	319	5	1	n/a	n/a	n/a	n/a	n/a
3712621	RECOG_RESP	n/a	LTP209	ltpFR	16	5	1	CLAW	319	n/a	1	n/a	n/a	n/a	n/a	n/a
3713215	RECOG_CONF	n/a	LTP209	ltpFR	16	5	1	CLAW	319	5	1	n/a	n/a	n/a	n/a	n/a
3714717	RECOG_TARGET	n/a	LTP209	ltpFR	16	5	1	QUEEN	1149	3	1	n/a	n/a	n/a	n/a	n/a
3715364	RECOG_RESP	n/a	LTP209	ltpFR	16	5	1	QUEEN	1149	n/a	1	n/a	n/a	n/a	n/a	n/a
3716568	RECOG_CONF	n/a	LTP209	ltpFR	16	5	1	QUEEN	1149	3	1	n/a	n/a	n/a	n/a	n/a
3718078	RECOG_TARGET	n/a	LTP209	ltpFR	16	5	0	VET	1560	5	1	n/a	n/a	n/a	n/a	n/a
3718730	RECOG_RESP	n/a	LTP209	ltpFR	16	5	0	VET	1560	n/a	1	n/a	n/a	n/a	n/a	n/a
3719210	RECOG_CONF	n/a	LTP209	ltpFR	16	5	0	VET	1560	5	1	n/a	n/a	n/a	n/a	n/a
3720675	RECOG_TARGET	n/a	LTP209	ltpFR	16	5	1	SLOPE	1328	2	0	n/a	n/a	n/a	n/a	n/a
3721905	RECOG_RESP	n/a	LTP209	ltpFR	16	5	1	SLOPE	1328	n/a	0	n/a	n/a	n/a	n/a	n/a
3722878	RECOG_CONF	n/a	LTP209	ltpFR	16	5	1	SLOPE	1328	2	0	n/a	n/a	n/a	n/a	n/a
3724685	RECOG_TARGET	n/a	LTP209	ltpFR	16	5	1	KIDNEY	776	5	1	n/a	n/a	n/a	n/a	n/a
3725361	RECOG_RESP	n/a	LTP209	ltpFR	16	5	1	KIDNEY	776	n/a	1	n/a	n/a	n/a	n/a	n/a
3725956	RECOG_CONF	n/a	LTP209	ltpFR	16	5	1	KIDNEY	776	5	1	n/a	n/a	n/a	n/a	n/a
3727248	RECOG_TARGET	n/a	LTP209	ltpFR	16	5	-1	STRAW	1390	1	-1	n/a	n/a	n/a	n/a	n/a
3728441	RECOG_RESP	n/a	LTP209	ltpFR	16	5	-1	STRAW	1390	n/a	-1	n/a	n/a	n/a	n/a	n/a
3729398	RECOG_CONF	n/a	LTP209	ltpFR	16	5	-1	STRAW	1390	1	-1	n/a	n/a	n/a	n/a	n/a
3730993	RECOG_LURE	n/a	LTP209	ltpFR	16	5	n/a	CONSUMER	365	2	n/a	n/a	n/a	n/a	n/a	n/a
3732317	RECOG_RESP	n/a	LTP209	ltpFR	16	5	n/a	CONSUMER	365	n/a	n/a	n/a	n/a	n/a	n/a	n/a
3733375	RECOG_CONF	n/a	LTP209	ltpFR	16	5	n/a	CONSUMER	365	2	n/a	n/a	n/a	n/a	n/a	n/a
3735120	RECOG_TARGET	n/a	LTP209	ltpFR	16	5	0	OWNER	993	3	1	n/a	n/a	n/a	n/a	n/a
3735949	RECOG_RESP	n/a	LTP209	ltpFR	16	5	0	OWNER	993	n/a	1	n/a	n/a	n/a	n/a	n/a
3736614	RECOG_CONF	n/a	LTP209	ltpFR	16	5	0	OWNER	993	3	1	n/a	n/a	n/a	n/a	n/a
3738032	RECOG_TARGET	n/a	LTP209	ltpFR	16	5	-1	VAULT	1550	5	-1	n/a	n/a	n/a	n/a	n/a
3738778	RECOG_RESP	n/a	LTP209	ltpFR	16	5	-1	VAULT	1550	n/a	-1	n/a	n/a	n/a	n/a	n/a
3739259	RECOG_CONF	n/a	LTP209	ltpFR	16	5	-1	VAULT	1550	5	-1	n/a	n/a	n/a	n/a	n/a
3740678	RECOG_TARGET	n/a	LTP209	ltpFR	16	5	1	CELLAR	267	5	0	n/a	n/a	n/a	n/a	n/a
3741428	RECOG_RESP	n/a	LTP209	ltpFR	16	5	1	CELLAR	267	n/a	0	n/a	n/a	n/a	n/a	n/a
3742010	RECOG_CONF	n/a	LTP209	ltpFR	16	5	1	CELLAR	267	5	0	n/a	n/a	n/a	n/a	n/a
3743424	RECOG_TARGET	n/a	LTP209	ltpFR	16	5	0	BEAST	108	4	0	n/a	n/a	n/a	n/a	n/a
3744556	RECOG_RESP	n/a	LTP209	ltpFR	16	5	0	BEAST	108	n/a	0	n/a	n/a	n/a	n/a	n/a
3745083	RECOG_CONF	n/a	LTP209	ltpFR	16	5	0	BEAST	108	4	0	n/a	n/a	n/a	n/a	n/a
3748383	REC_START	n/a	LTP209	ltpFR	16	6	n/a	n/a	n/a	n/a	n/a	n/a	n/a	n/a	n/a	n/a
3748416	RECOG_LURE	n/a	LTP209	ltpFR	16	6	n/a	PALACE	1006	3	n/a	n/a	n/a	n/a	n/a	n/a
3749210	RECOG_RESP	n/a	LTP209	ltpFR	16	6	n/a	PALACE	1006	n/a	n/a	n/a	n/a	n/a	n/a	n/a
3749795	RECOG_CONF	n/a	LTP209	ltpFR	16	6	n/a	PALACE	1006	3	n/a	n/a	n/a	n/a	n/a	n/a
3751412	RECOG_TARGET	n/a	LTP209	ltpFR	16	6	-1	PLAID	1080	5	-1	n/a	n/a	n/a	n/a	n/a
3752035	RECOG_RESP	n/a	LTP209	ltpFR	16	6	-1	PLAID	1080	n/a	-1	n/a	n/a	n/a	n/a	n/a
3752598	RECOG_CONF	n/a	LTP209	ltpFR	16	6	-1	PLAID	1080	5	-1	n/a	n/a	n/a	n/a	n/a
3754191	RECOG_TARGET	n/a	LTP209	ltpFR	16	6	0	RATTLE	1170	5	0	n/a	n/a	n/a	n/a	n/a
3754832	RECOG_RESP	n/a	LTP209	ltpFR	16	6	0	RATTLE	1170	n/a	0	n/a	n/a	n/a	n/a	n/a
3755377	RECOG_CONF	n/a	LTP209	ltpFR	16	6	0	RATTLE	1170	5	0	n/a	n/a	n/a	n/a	n/a
3756970	RECOG_TARGET	n/a	LTP209	ltpFR	16	6	-1	RECEPTIONIST	1174	2	-1	n/a	n/a	n/a	n/a	n/a
3757817	RECOG_RESP	n/a	LTP209	ltpFR	16	6	-1	RECEPTIONIST	1174	n/a	-1	n/a	n/a	n/a	n/a	n/a
3758541	RECOG_CONF	n/a	LTP209	ltpFR	16	6	-1	RECEPTIONIST	1174	2	-1	n/a	n/a	n/a	n/a	n/a
3760315	RECOG_TARGET	n/a	LTP209	ltpFR	16	6	0	BANDANNA	80	3	0	n/a	n/a	n/a	n/a	n/a
3763435	RECOG_RESP	n/a	LTP209	ltpFR	16	6	0	BANDANNA	80	n/a	0	n/a	n/a	n/a	n/a	n/a
3764322	RECOG_CONF	n/a	LTP209	ltpFR	16	6	0	BANDANNA	80	3	0	n/a	n/a	n/a	n/a	n/a
3765940	RECOG_LURE	n/a	LTP209	ltpFR	16	6	n/a	INCENSE	735	5	n/a	n/a	n/a	n/a	n/a	n/a
3766758	RECOG_RESP	n/a	LTP209	ltpFR	16	6	n/a	INCENSE	735	n/a	n/a	n/a	n/a	n/a	n/a	n/a
3767307	RECOG_CONF	n/a	LTP209	ltpFR	16	6	n/a	INCENSE	735	5	n/a	n/a	n/a	n/a	n/a	n/a
3768686	RECOG_LURE	n/a	LTP209	ltpFR	16	6	n/a	HOME	712	4	n/a	n/a	n/a	n/a	n/a	n/a
3769477	RECOG_RESP	n/a	LTP209	ltpFR	16	6	n/a	HOME	712	n/a	n/a	n/a	n/a	n/a	n/a	n/a
3770104	RECOG_CONF	n/a	LTP209	ltpFR	16	6	n/a	HOME	712	4	n/a	n/a	n/a	n/a	n/a	n/a
3771432	RECOG_TARGET	n/a	LTP209	ltpFR	16	6	1	OCEAN	970	5	1	n/a	n/a	n/a	n/a	n/a
3772029	RECOG_RESP	n/a	LTP209	ltpFR	16	6	1	OCEAN	970	n/a	1	n/a	n/a	n/a	n/a	n/a
3772643	RECOG_CONF	n/a	LTP209	ltpFR	16	6	1	OCEAN	970	5	1	n/a	n/a	n/a	n/a	n/a
3773912	RECOG_TARGET	n/a	LTP209	ltpFR	16	6	-1	BEAVER	109	3	-1	n/a	n/a	n/a	n/a	n/a
3774542	RECOG_RESP	n/a	LTP209	ltpFR	16	6	-1	BEAVER	109	n/a	-1	n/a	n/a	n/a	n/a	n/a
3775052	RECOG_CONF	n/a	LTP209	ltpFR	16	6	-1	BEAVER	109	3	-1	n/a	n/a	n/a	n/a	n/a
3776608	RECOG_TARGET	n/a	LTP209	ltpFR	16	6	1	CARD	243	2	0	n/a	n/a	n/a	n/a	n/a
3777538	RECOG_RESP	n/a	LTP209	ltpFR	16	6	1	CARD	243	n/a	0	n/a	n/a	n/a	n/a	n/a
3778316	RECOG_CONF	n/a	LTP209	ltpFR	16	6	1	CARD	243	2	0	n/a	n/a	n/a	n/a	n/a
3779720	RECOG_TARGET	n/a	LTP209	ltpFR	16	6	0	SUMMIT	1405	5	1	n/a	n/a	n/a	n/a	n/a
3780407	RECOG_RESP	n/a	LTP209	ltpFR	16	6	0	SUMMIT	1405	n/a	1	n/a	n/a	n/a	n/a	n/a
3781024	RECOG_CONF	n/a	LTP209	ltpFR	16	6	0	SUMMIT	1405	5	1	n/a	n/a	n/a	n/a	n/a
3782531	RECOG_TARGET	n/a	LTP209	ltpFR	16	6	0	POTATO	1115	2	0	n/a	n/a	n/a	n/a	n/a
3784101	RECOG_RESP	n/a	LTP209	ltpFR	16	6	0	POTATO	1115	n/a	0	n/a	n/a	n/a	n/a	n/a
3784799	RECOG_CONF	n/a	LTP209	ltpFR	16	6	0	POTATO	1115	2	0	n/a	n/a	n/a	n/a	n/a
3786360	RECOG_TARGET	n/a	LTP209	ltpFR	16	6	1	BAKER	71	1	1	n/a	n/a	n/a	n/a	n/a
3787049	RECOG_RESP	n/a	LTP209	ltpFR	16	6	1	BAKER	71	n/a	1	n/a	n/a	n/a	n/a	n/a
3787835	RECOG_CONF	n/a	LTP209	ltpFR	16	6	1	BAKER	71	1	1	n/a	n/a	n/a	n/a	n/a
3789322	RECOG_TARGET	n/a	LTP209	ltpFR	16	6	0	CHEF	290	1	1	n/a	n/a	n/a	n/a	n/a
3790033	RECOG_RESP	n/a	LTP209	ltpFR	16	6	0	CHEF	290	n/a	1	n/a	n/a	n/a	n/a	n/a
3790911	RECOG_CONF	n/a	LTP209	ltpFR	16	6	0	CHEF	290	1	1	n/a	n/a	n/a	n/a	n/a
3792500	RECOG_TARGET	n/a	LTP209	ltpFR	16	6	1	MESSAGE	888	2	0	n/a	n/a	n/a	n/a	n/a
3793452	RECOG_RESP	n/a	LTP209	ltpFR	16	6	1	MESSAGE	888	n/a	0	n/a	n/a	n/a	n/a	n/a
3794543	RECOG_CONF	n/a	LTP209	ltpFR	16	6	1	MESSAGE	888	2	0	n/a	n/a	n/a	n/a	n/a
3796228	RECOG_LURE	n/a	LTP209	ltpFR	16	6	n/a	CANYON	235	4	n/a	n/a	n/a	n/a	n/a	n/a
3797297	RECOG_RESP	n/a	LTP209	ltpFR	16	6	n/a	CANYON	235	n/a	n/a	n/a	n/a	n/a	n/a	n/a
3797994	RECOG_CONF	n/a	LTP209	ltpFR	16	6	n/a	CANYON	235	4	n/a	n/a	n/a	n/a	n/a	n/a
3799590	RECOG_TARGET	n/a	LTP209	ltpFR	16	6	1	BATH	98	2	1	n/a	n/a	n/a	n/a	n/a
3801029	RECOG_RESP	n/a	LTP209	ltpFR	16	6	1	BATH	98	n/a	1	n/a	n/a	n/a	n/a	n/a
3802310	RECOG_CONF	n/a	LTP209	ltpFR	16	6	1	BATH	98	2	1	n/a	n/a	n/a	n/a	n/a
3803983	RECOG_TARGET	n/a	LTP209	ltpFR	16	6	-1	RICE	1190	5	-1	n/a	n/a	n/a	n/a	n/a
3804635	RECOG_RESP	n/a	LTP209	ltpFR	16	6	-1	RICE	1190	n/a	-1	n/a	n/a	n/a	n/a	n/a
3805239	RECOG_CONF	n/a	LTP209	ltpFR	16	6	-1	RICE	1190	5	-1	n/a	n/a	n/a	n/a	n/a
3806596	RECOG_TARGET	n/a	LTP209	ltpFR	16	6	0	WILDERNESS	1610	5	1	n/a	n/a	n/a	n/a	n/a
3807275	RECOG_RESP	n/a	LTP209	ltpFR	16	6	0	WILDERNESS	1610	n/a	1	n/a	n/a	n/a	n/a	n/a
3807823	RECOG_CONF	n/a	LTP209	ltpFR	16	6	0	WILDERNESS	1610	5	1	n/a	n/a	n/a	n/a	n/a
3809359	RECOG_TARGET	n/a	LTP209	ltpFR	16	6	0	MONGOOSE	909	3	1	n/a	n/a	n/a	n/a	n/a
3810131	RECOG_RESP	n/a	LTP209	ltpFR	16	6	0	MONGOOSE	909	n/a	1	n/a	n/a	n/a	n/a	n/a
3810775	RECOG_CONF	n/a	LTP209	ltpFR	16	6	0	MONGOOSE	909	3	1	n/a	n/a	n/a	n/a	n/a
3813825	REC_START	n/a	LTP209	ltpFR	16	7	n/a	n/a	n/a	n/a	n/a	n/a	n/a	n/a	n/a	n/a
3813852	RECOG_TARGET	n/a	LTP209	ltpFR	16	7	1	COCKTAIL	338	5	0	n/a	n/a	n/a	n/a	n/a
3814460	RECOG_RESP	n/a	LTP209	ltpFR	16	7	1	COCKTAIL	338	n/a	0	n/a	n/a	n/a	n/a	n/a
3814987	RECOG_CONF	n/a	LTP209	ltpFR	16	7	1	COCKTAIL	338	5	0	n/a	n/a	n/a	n/a	n/a
3816432	RECOG_TARGET	n/a	LTP209	ltpFR	16	7	1	FARMER	553	3	1	n/a	n/a	n/a	n/a	n/a
