mstime	trial_type	stim_file	subject	experiment	session	trial	item_name	item_num	list	answer	test_x	test_y	test_z
0	SESS_START	n/a	LTP303	ltpFR2	19	n/a	n/a	n/a	n/a	n/a	0	0	0
21387	START	n/a	LTP303	ltpFR2	19	n/a	n/a	n/a	-1	n/a	n/a	n/a	n/a
21417	PROB	n/a	LTP303	ltpFR2	19	n/a	n/a	n/a	-1	12	3	6	3
23002	PROB	n/a	LTP303	ltpFR2	19	n/a	n/a	n/a	-1	7	3	1	3
25539	PROB	n/a	LTP303	ltpFR2	19	n/a	n/a	n/a	-1	19	9	1	9
27339	PROB	n/a	LTP303	ltpFR2	19	n/a	n/a	n/a	-1	14	8	5	1
28623	PROB	n/a	LTP303	ltpFR2	19	n/a	n/a	n/a	-1	18	6	7	5
30458	PROB	n/a	LTP303	ltpFR2	19	n/a	n/a	n/a	-1	19	8	6	5
32868	STOP	n/a	LTP303	ltpFR2	19	n/a	n/a	n/a	-1	n/a	n/a	n/a	n/a
51393	WORD	wordpools/wasnorm_wordpool_576.txt	LTP303	ltpFR2	19	1	TREAT	1501	n/a	n/a	0	0	0
53964	WORD	wordpools/wasnorm_wordpool_576.txt	LTP303	ltpFR2	19	1	DENIM	446	n/a	n/a	0	0	0
56733	WORD	wordpools/wasnorm_wordpool_576.txt	LTP303	ltpFR2	19	1	LION	827	n/a	n/a	0	0	0
59333	WORD	wordpools/wasnorm_wordpool_576.txt	LTP303	ltpFR2	19	1	SODA	1341	n/a	n/a	0	0	0
62020	WORD	wordpools/wasnorm_wordpool_576.txt	LTP303	ltpFR2	19	1	PERMIT	1051	n/a	n/a	0	0	0
64806	WORD	wordpools/wasnorm_wordpool_576.txt	LTP303	ltpFR2	19	1	JUNGLE	764	n/a	n/a	0	0	0
67541	WORD	wordpools/wasnorm_wordpool_576.txt	LTP303	ltpFR2	19	1	GUITAR	670	n/a	n/a	0	0	0
70193	WORD	wordpools/wasnorm_wordpool_576.txt	LTP303	ltpFR2	19	1	DASHBOARD	441	n/a	n/a	0	0	0
72896	WORD	wordpools/wasnorm_wordpool_576.txt	LTP303	ltpFR2	19	1	WIDOW	1608	n/a	n/a	0	0	0
75581	WORD	wordpools/wasnorm_wordpool_576.txt	LTP303	ltpFR2	19	1	EMPIRE	530	n/a	n/a	0	0	0
78150	WORD	wordpools/wasnorm_wordpool_576.txt	LTP303	ltpFR2	19	1	QUEEN	1149	n/a	n/a	0	0	0
80769	WORD	wordpools/wasnorm_wordpool_576.txt	LTP303	ltpFR2	19	1	PADDLE	1000	n/a	n/a	0	0	0
83370	WORD	wordpools/wasnorm_wordpool_576.txt	LTP303	ltpFR2	19	1	RAFT	1159	n/a	n/a	0	0	0
86189	WORD	wordpools/wasnorm_wordpool_576.txt	LTP303	ltpFR2	19	1	CROSS	413	n/a	n/a	0	0	0
88826	WORD	wordpools/wasnorm_wordpool_576.txt	LTP303	ltpFR2	19	1	MOP	916	n/a	n/a	0	0	0
91410	WORD	wordpools/wasnorm_wordpool_576.txt	LTP303	ltpFR2	19	1	SKIRT	1319	n/a	n/a	0	0	0
93882	WORD	wordpools/wasnorm_wordpool_576.txt	LTP303	ltpFR2	19	1	POISON	1096	n/a	n/a	0	0	0
96665	WORD	wordpools/wasnorm_wordpool_576.txt	LTP303	ltpFR2	19	1	CASKET	255	n/a	n/a	0	0	0
99334	WORD	wordpools/wasnorm_wordpool_576.txt	LTP303	ltpFR2	19	1	JEANS	752	n/a	n/a	0	0	0
102119	WORD	wordpools/wasnorm_wordpool_576.txt	LTP303	ltpFR2	19	1	SEAGULL	1261	n/a	n/a	0	0	0
104892	WORD	wordpools/wasnorm_wordpool_576.txt	LTP303	ltpFR2	19	1	TOMBSTONE	1478	n/a	n/a	0	0	0
107556	WORD	wordpools/wasnorm_wordpool_576.txt	LTP303	ltpFR2	19	1	PASSAGE	1019	n/a	n/a	0	0	0
110195	WORD	wordpools/wasnorm_wordpool_576.txt	LTP303	ltpFR2	19	1	YOLK	1633	n/a	n/a	0	0	0
112695	WORD	wordpools/wasnorm_wordpool_576.txt	LTP303	ltpFR2	19	1	PEANUT	1032	n/a	n/a	0	0	0
114314	START	n/a	LTP303	ltpFR2	19	n/a	n/a	n/a	1	n/a	n/a	n/a	n/a
115130	DISTRACTOR	n/a	LTP303	ltpFR2	19	1	n/a	n/a	n/a	n/a	0	0	0
115146	PROB	n/a	LTP303	ltpFR2	19	n/a	n/a	n/a	1	17	7	9	1
116680	PROB	n/a	LTP303	ltpFR2	19	n/a	n/a	n/a	1	11	2	8	1
117664	PROB	n/a	LTP303	ltpFR2	19	n/a	n/a	n/a	1	15	8	2	5
118732	PROB	n/a	LTP303	ltpFR2	19	n/a	n/a	n/a	1	14	3	2	9
120250	PROB	n/a	LTP303	ltpFR2	19	n/a	n/a	n/a	1	20	9	5	6
121852	PROB	n/a	LTP303	ltpFR2	19	n/a	n/a	n/a	1	16	9	2	5
125237	PROB	n/a	LTP303	ltpFR2	19	n/a	n/a	n/a	1	17	6	2	9
127005	PROB	n/a	LTP303	ltpFR2	19	n/a	n/a	n/a	1	13	4	1	8
127990	PROB	n/a	LTP303	ltpFR2	19	n/a	n/a	n/a	1	18	9	5	4
129223	PROB	n/a	LTP303	ltpFR2	19	n/a	n/a	n/a	1	17	7	6	6
130827	PROB	n/a	LTP303	ltpFR2	19	n/a	n/a	n/a	1	17	2	6	9
132661	PROB	n/a	LTP303	ltpFR2	19	n/a	n/a	n/a	1	20	5	7	8
134477	PROB	n/a	LTP303	ltpFR2	19	n/a	n/a	n/a	1	14	2	7	5
136044	PROB	n/a	LTP303	ltpFR2	19	n/a	n/a	n/a	1	23	9	5	9
137376	STOP	n/a	LTP303	ltpFR2	19	n/a	n/a	n/a	1	n/a	n/a	n/a	n/a
140065	REC_START	n/a	LTP303	ltpFR2	19	1	n/a	n/a	n/a	n/a	0	0	0
142754	REC_WORD	wordpools/wasnorm_wordpool_576.txt	LTP303	ltpFR2	19	1	TREAT	1501	n/a	n/a	0	0	0
143882	REC_WORD	wordpools/wasnorm_wordpool_576.txt	LTP303	ltpFR2	19	1	DENIM	446	n/a	n/a	0	0	0
144951	REC_WORD	wordpools/wasnorm_wordpool_576.txt	LTP303	ltpFR2	19	1	LION	827	n/a	n/a	0	0	0
146342	REC_WORD	wordpools/wasnorm_wordpool_576.txt	LTP303	ltpFR2	19	1	SODA	1341	n/a	n/a	0	0	0
147599	REC_WORD	wordpools/wasnorm_wordpool_576.txt	LTP303	ltpFR2	19	1	PERMIT	1051	n/a	n/a	0	0	0
148987	REC_WORD	wordpools/wasnorm_wordpool_576.txt	LTP303	ltpFR2	19	1	JUNGLE	764	n/a	n/a	0	0	0
151820	REC_WORD	wordpools/wasnorm_wordpool_576.txt	LTP303	ltpFR2	19	1	GUITAR	670	n/a	n/a	0	0	0
152975	REC_WORD	wordpools/wasnorm_wordpool_576.txt	LTP303	ltpFR2	19	1	DASHBOARD	441	n/a	n/a	0	0	0
154014	REC_WORD_VV	wordpools/wasnorm_wordpool_576.txt	LTP303	ltpFR2	19	1	<>	-1	n/a	n/a	0	0	0
154964	REC_WORD	wordpools/wasnorm_wordpool_576.txt	LTP303	ltpFR2	19	1	WIDOW	1608	n/a	n/a	0	0	0
156430	REC_WORD	wordpools/wasnorm_wordpool_576.txt	LTP303	ltpFR2	19	1	EMPIRE	530	n/a	n/a	0	0	0
157627	REC_WORD	wordpools/wasnorm_wordpool_576.txt	LTP303	ltpFR2	19	1	QUEEN	1149	n/a	n/a	0	0	0
158799	REC_WORD	wordpools/wasnorm_wordpool_576.txt	LTP303	ltpFR2	19	1	PADDLE	1000	n/a	n/a	0	0	0
159883	REC_WORD	wordpools/wasnorm_wordpool_576.txt	LTP303	ltpFR2	19	1	RAFT	1159	n/a	n/a	0	0	0
160987	REC_WORD	wordpools/wasnorm_wordpool_576.txt	LTP303	ltpFR2	19	1	CROSS	413	n/a	n/a	0	0	0
162222	REC_WORD	wordpools/wasnorm_wordpool_576.txt	LTP303	ltpFR2	19	1	MOP	916	n/a	n/a	0	0	0
164012	REC_WORD	wordpools/wasnorm_wordpool_576.txt	LTP303	ltpFR2	19	1	SKIRT	1319	n/a	n/a	0	0	0
165224	REC_WORD	wordpools/wasnorm_wordpool_576.txt	LTP303	ltpFR2	19	1	POISON	1096	n/a	n/a	0	0	0
166429	REC_WORD	wordpools/wasnorm_wordpool_576.txt	LTP303	ltpFR2	19	1	CASKET	255	n/a	n/a	0	0	0
167658	REC_WORD	wordpools/wasnorm_wordpool_576.txt	LTP303	ltpFR2	19	1	JEANS	752	n/a	n/a	0	0	0
169668	REC_WORD	wordpools/wasnorm_wordpool_576.txt	LTP303	ltpFR2	19	1	SEAGULL	1261	n/a	n/a	0	0	0
172870	REC_WORD	wordpools/wasnorm_wordpool_576.txt	LTP303	ltpFR2	19	1	TOMBSTONE	1478	n/a	n/a	0	0	0
175111	REC_WORD	wordpools/wasnorm_wordpool_576.txt	LTP303	ltpFR2	19	1	YOLK	1633	n/a	n/a	0	0	0
179107	REC_WORD	wordpools/wasnorm_wordpool_576.txt	LTP303	ltpFR2	19	1	PEANUT	1032	n/a	n/a	0	0	0
230501	DISTRACTOR	n/a	LTP303	ltpFR2	19	2	n/a	n/a	n/a	n/a	0	0	0
230501	START	n/a	LTP303	ltpFR2	19	n/a	n/a	n/a	2	n/a	n/a	n/a	n/a
230516	PROB	n/a	LTP303	ltpFR2	19	n/a	n/a	n/a	2	10	4	5	1
232257	PROB	n/a	LTP303	ltpFR2	19	n/a	n/a	n/a	2	7	2	4	1
233660	PROB	n/a	LTP303	ltpFR2	19	n/a	n/a	n/a	2	10	4	1	5
235711	PROB	n/a	LTP303	ltpFR2	19	n/a	n/a	n/a	2	16	7	5	4
237244	PROB	n/a	LTP303	ltpFR2	19	n/a	n/a	n/a	2	8	4	3	1
238311	PROB	n/a	LTP303	ltpFR2	19	n/a	n/a	n/a	2	9	3	1	5
239413	PROB	n/a	LTP303	ltpFR2	19	n/a	n/a	n/a	2	16	5	8	3
241682	PROB	n/a	LTP303	ltpFR2	19	n/a	n/a	n/a	2	10	1	6	3
242965	PROB	n/a	LTP303	ltpFR2	19	n/a	n/a	n/a	2	16	4	3	9
244933	PROB	n/a	LTP303	ltpFR2	19	n/a	n/a	n/a	2	11	2	6	3
246452	PROB	n/a	LTP303	ltpFR2	19	n/a	n/a	n/a	2	21	9	7	5
248237	PROB	n/a	LTP303	ltpFR2	19	n/a	n/a	n/a	2	17	6	3	8
249555	PROB	n/a	LTP303	ltpFR2	19	n/a	n/a	n/a	2	9	3	4	2
251389	PROB	n/a	LTP303	ltpFR2	19	n/a	n/a	n/a	2	18	7	5	6
253461	STOP	n/a	LTP303	ltpFR2	19	n/a	n/a	n/a	2	n/a	n/a	n/a	n/a
255459	WORD	wordpools/wasnorm_wordpool_576.txt	LTP303	ltpFR2	19	2	POSTAGE	1113	n/a	n/a	0	0	0
258045	WORD	wordpools/wasnorm_wordpool_576.txt	LTP303	ltpFR2	19	2	TURTLE	1522	n/a	n/a	0	0	0
260494	WORD	wordpools/wasnorm_wordpool_576.txt	LTP303	ltpFR2	19	2	FREEZER	604	n/a	n/a	0	0	0
263296	WORD	wordpools/wasnorm_wordpool_576.txt	LTP303	ltpFR2	19	2	KLEENEX	782	n/a	n/a	0	0	0
265983	WORD	wordpools/wasnorm_wordpool_576.txt	LTP303	ltpFR2	19	2	FINGER	567	n/a	n/a	0	0	0
268450	WORD	wordpools/wasnorm_wordpool_576.txt	LTP303	ltpFR2	19	2	HAND	683	n/a	n/a	0	0	0
271036	WORD	wordpools/wasnorm_wordpool_576.txt	LTP303	ltpFR2	19	2	PROTON	1132	n/a	n/a	0	0	0
273605	WORD	wordpools/wasnorm_wordpool_576.txt	LTP303	ltpFR2	19	2	CHEMIST	292	n/a	n/a	0	0	0
276407	WORD	wordpools/wasnorm_wordpool_576.txt	LTP303	ltpFR2	19	2	THIEF	1456	n/a	n/a	0	0	0
279013	WORD	wordpools/wasnorm_wordpool_576.txt	LTP303	ltpFR2	19	2	COWBOY	395	n/a	n/a	0	0	0
281730	WORD	wordpools/wasnorm_wordpool_576.txt	LTP303	ltpFR2	19	2	LASER	801	n/a	n/a	0	0	0
284431	WORD	wordpools/wasnorm_wordpool_576.txt	LTP303	ltpFR2	19	2	MESSAGE	888	n/a	n/a	0	0	0
286984	WORD	wordpools/wasnorm_wordpool_576.txt	LTP303	ltpFR2	19	2	COLONEL	348	n/a	n/a	0	0	0
289586	WORD	wordpools/wasnorm_wordpool_576.txt	LTP303	ltpFR2	19	2	NURSE	963	n/a	n/a	0	0	0
292071	WORD	wordpools/wasnorm_wordpool_576.txt	LTP303	ltpFR2	19	2	JAPAN	749	n/a	n/a	0	0	0
294791	WORD	wordpools/wasnorm_wordpool_576.txt	LTP303	ltpFR2	19	2	NOTEBOOK	959	n/a	n/a	0	0	0
297442	WORD	wordpools/wasnorm_wordpool_576.txt	LTP303	ltpFR2	19	2	LEG	809	n/a	n/a	0	0	0
300162	WORD	wordpools/wasnorm_wordpool_576.txt	LTP303	ltpFR2	19	2	ACTOR	5	n/a	n/a	0	0	0
302698	WORD	wordpools/wasnorm_wordpool_576.txt	LTP303	ltpFR2	19	2	FLEET	578	n/a	n/a	0	0	0
305250	WORD	wordpools/wasnorm_wordpool_576.txt	LTP303	ltpFR2	19	2	WRIST	1626	n/a	n/a	0	0	0
308018	WORD	wordpools/wasnorm_wordpool_576.txt	LTP303	ltpFR2	19	2	STAPLE	1371	n/a	n/a	0	0	0
310603	WORD	wordpools/wasnorm_wordpool_576.txt	LTP303	ltpFR2	19	2	SCARECROW	1245	n/a	n/a	0	0	0
313289	WORD	wordpools/wasnorm_wordpool_576.txt	LTP303	ltpFR2	19	2	TAXI	1438	n/a	n/a	0	0	0
315726	WORD	wordpools/wasnorm_wordpool_576.txt	LTP303	ltpFR2	19	2	TART	1436	n/a	n/a	0	0	0
317343	START	n/a	LTP303	ltpFR2	19	n/a	n/a	n/a	3	n/a	n/a	n/a	n/a
318352	DISTRACTOR	n/a	LTP303	ltpFR2	19	2	n/a	n/a	n/a	n/a	0	0	0
318360	PROB	n/a	LTP303	ltpFR2	19	n/a	n/a	n/a	3	13	2	7	4
320312	PROB	n/a	LTP303	ltpFR2	19	n/a	n/a	n/a	3	17	4	4	9
321747	PROB	n/a	LTP303	ltpFR2	19	n/a	n/a	n/a	3	13	3	4	6
322913	PROB	n/a	LTP303	ltpFR2	19	n/a	n/a	n/a	3	16	1	6	9
324030	PROB	n/a	LTP303	ltpFR2	19	n/a	n/a	n/a	3	11	1	1	9
324998	PROB	n/a	LTP303	ltpFR2	19	n/a	n/a	n/a	3	15	6	8	1
325999	PROB	n/a	LTP303	ltpFR2	19	n/a	n/a	n/a	3	21	7	7	7
326984	PROB	n/a	LTP303	ltpFR2	19	n/a	n/a	n/a	3	16	8	7	1
328017	PROB	n/a	LTP303	ltpFR2	19	n/a	n/a	n/a	3	21	8	7	6
329320	PROB	n/a	LTP303	ltpFR2	19	n/a	n/a	n/a	3	22	9	9	4
331321	PROB	n/a	LTP303	ltpFR2	19	n/a	n/a	n/a	3	11	3	3	5
332955	PROB	n/a	LTP303	ltpFR2	19	n/a	n/a	n/a	3	18	9	7	2
334641	PROB	n/a	LTP303	ltpFR2	19	n/a	n/a	n/a	3	18	8	9	1
336006	PROB	n/a	LTP303	ltpFR2	19	n/a	n/a	n/a	3	10	4	5	1
337157	PROB	n/a	LTP303	ltpFR2	19	n/a	n/a	n/a	3	21	8	5	9
338893	PROB	n/a	LTP303	ltpFR2	19	n/a	n/a	n/a	3	15	6	6	3
339994	STOP	n/a	LTP303	ltpFR2	19	n/a	n/a	n/a	3	n/a	n/a	n/a	n/a
343296	REC_START	n/a	LTP303	ltpFR2	19	2	n/a	n/a	n/a	n/a	0	0	0
349023	REC_WORD	wordpools/wasnorm_wordpool_576.txt	LTP303	ltpFR2	19	2	POSTAGE	1113	n/a	n/a	0	0	0
350285	REC_WORD	wordpools/wasnorm_wordpool_576.txt	LTP303	ltpFR2	19	2	TURTLE	1522	n/a	n/a	0	0	0
351397	REC_WORD	wordpools/wasnorm_wordpool_576.txt	LTP303	ltpFR2	19	2	FREEZER	604	n/a	n/a	0	0	0
352726	REC_WORD	wordpools/wasnorm_wordpool_576.txt	LTP303	ltpFR2	19	2	KLEENEX	782	n/a	n/a	0	0	0
353836	REC_WORD	wordpools/wasnorm_wordpool_576.txt	LTP303	ltpFR2	19	2	FINGER	567	n/a	n/a	0	0	0
355019	REC_WORD	wordpools/wasnorm_wordpool_576.txt	LTP303	ltpFR2	19	2	HAND	683	n/a	n/a	0	0	0
356529	REC_WORD	wordpools/wasnorm_wordpool_576.txt	LTP303	ltpFR2	19	2	PROTON	1132	n/a	n/a	0	0	0
357804	REC_WORD	wordpools/wasnorm_wordpool_576.txt	LTP303	ltpFR2	19	2	THIEF	1456	n/a	n/a	0	0	0
358922	REC_WORD	wordpools/wasnorm_wordpool_576.txt	LTP303	ltpFR2	19	2	CHEMIST	292	n/a	n/a	0	0	0
360308	REC_WORD	wordpools/wasnorm_wordpool_576.txt	LTP303	ltpFR2	19	2	COWBOY	395	n/a	n/a	0	0	0
361193	REC_WORD_VV	wordpools/wasnorm_wordpool_576.txt	LTP303	ltpFR2	19	2	<>	-1	n/a	n/a	0	0	0
362060	REC_WORD	wordpools/wasnorm_wordpool_576.txt	LTP303	ltpFR2	19	2	LASER	801	n/a	n/a	0	0	0
363299	REC_WORD	wordpools/wasnorm_wordpool_576.txt	LTP303	ltpFR2	19	2	MESSAGE	888	n/a	n/a	0	0	0
364492	REC_WORD	wordpools/wasnorm_wordpool_576.txt	LTP303	ltpFR2	19	2	COLONEL	348	n/a	n/a	0	0	0
365620	REC_WORD	wordpools/wasnorm_wordpool_576.txt	LTP303	ltpFR2	19	2	NURSE	963	n/a	n/a	0	0	0
366638	REC_WORD	wordpools/wasnorm_wordpool_576.txt	LTP303	ltpFR2	19	2	JAPAN	749	n/a	n/a	0	0	0
367944	REC_WORD	wordpools/wasnorm_wordpool_576.txt	LTP303	ltpFR2	19	2	NOTEBOOK	959	n/a	n/a	0	0	0
369050	REC_WORD	wordpools/wasnorm_wordpool_576.txt	LTP303	ltpFR2	19	2	LEG	809	n/a	n/a	0	0	0
370160	REC_WORD	wordpools/wasnorm_wordpool_576.txt	LTP303	ltpFR2	19	2	ACTRESS	6	n/a	n/a	0	0	0
372044	REC_WORD	wordpools/wasnorm_wordpool_576.txt	LTP303	ltpFR2	19	2	FLEET	578	n/a	n/a	0	0	0
373158	REC_WORD	wordpools/wasnorm_wordpool_576.txt	LTP303	ltpFR2	19	2	WRIST	1626	n/a	n/a	0	0	0
374146	REC_WORD	wordpools/wasnorm_wordpool_576.txt	LTP303	ltpFR2	19	2	STAPLE	1371	n/a	n/a	0	0	0
376723	REC_WORD	wordpools/wasnorm_wordpool_576.txt	LTP303	ltpFR2	19	2	SCARECROW	1245	n/a	n/a	0	0	0
382420	REC_WORD	wordpools/wasnorm_wordpool_576.txt	LTP303	ltpFR2	19	2	TAXI	1438	n/a	n/a	0	0	0
433736	WORD	wordpools/wasnorm_wordpool_576.txt	LTP303	ltpFR2	19	3	CONVICT	371	n/a	n/a	0	0	0
436448	WORD	wordpools/wasnorm_wordpool_576.txt	LTP303	ltpFR2	19	3	SCISSORS	1250	n/a	n/a	0	0	0
438984	WORD	wordpools/wasnorm_wordpool_576.txt	LTP303	ltpFR2	19	3	SEAFOOD	1260	n/a	n/a	0	0	0
441693	WORD	wordpools/wasnorm_wordpool_576.txt	LTP303	ltpFR2	19	3	JOURNAL	760	n/a	n/a	0	0	0
444338	WORD	wordpools/wasnorm_wordpool_576.txt	LTP303	ltpFR2	19	3	EYELASH	546	n/a	n/a	0	0	0
446808	WORD	wordpools/wasnorm_wordpool_576.txt	LTP303	ltpFR2	19	3	OUTFIT	988	n/a	n/a	0	0	0
449475	WORD	wordpools/wasnorm_wordpool_576.txt	LTP303	ltpFR2	19	3	SHORTS	1293	n/a	n/a	0	0	0
451912	WORD	wordpools/wasnorm_wordpool_576.txt	LTP303	ltpFR2	19	3	BREAST	171	n/a	n/a	0	0	0
454547	WORD	wordpools/wasnorm_wordpool_576.txt	LTP303	ltpFR2	19	3	PICNIC	1060	n/a	n/a	0	0	0
457139	WORD	wordpools/wasnorm_wordpool_576.txt	LTP303	ltpFR2	19	3	CHIPMUNK	304	n/a	n/a	0	0	0
459608	WORD	wordpools/wasnorm_wordpool_576.txt	LTP303	ltpFR2	19	3	GAZELLE	628	n/a	n/a	0	0	0
462059	WORD	wordpools/wasnorm_wordpool_576.txt	LTP303	ltpFR2	19	3	COSTUME	383	n/a	n/a	0	0	0
464572	WORD	wordpools/wasnorm_wordpool_576.txt	LTP303	ltpFR2	19	3	PUPIL	1143	n/a	n/a	0	0	0
467308	WORD	wordpools/wasnorm_wordpool_576.txt	LTP303	ltpFR2	19	3	STUDENT	1395	n/a	n/a	0	0	0
469833	WORD	wordpools/wasnorm_wordpool_576.txt	LTP303	ltpFR2	19	3	HEART	697	n/a	n/a	0	0	0
472362	WORD	wordpools/wasnorm_wordpool_576.txt	LTP303	ltpFR2	19	3	SHELF	1280	n/a	n/a	0	0	0
474982	WORD	wordpools/wasnorm_wordpool_576.txt	LTP303	ltpFR2	19	3	BRANCH	168	n/a	n/a	0	0	0
477735	WORD	wordpools/wasnorm_wordpool_576.txt	LTP303	ltpFR2	19	3	BALLOON	75	n/a	n/a	0	0	0
480358	WORD	wordpools/wasnorm_wordpool_576.txt	LTP303	ltpFR2	19	3	PLATE	1086	n/a	n/a	0	0	0
482827	WORD	wordpools/wasnorm_wordpool_576.txt	LTP303	ltpFR2	19	3	HOOK	715	n/a	n/a	0	0	0
485458	WORD	wordpools/wasnorm_wordpool_576.txt	LTP303	ltpFR2	19	3	AIRPORT	13	n/a	n/a	0	0	0
488210	WORD	wordpools/wasnorm_wordpool_576.txt	LTP303	ltpFR2	19	3	SAUSAGE	1238	n/a	n/a	0	0	0
490967	WORD	wordpools/wasnorm_wordpool_576.txt	LTP303	ltpFR2	19	3	TRUCK	1512	n/a	n/a	0	0	0
493547	WORD	wordpools/wasnorm_wordpool_576.txt	LTP303	ltpFR2	19	3	BARREL	91	n/a	n/a	0	0	0
495154	START	n/a	LTP303	ltpFR2	19	n/a	n/a	n/a	4	n/a	n/a	n/a	n/a
496309	DISTRACTOR	n/a	LTP303	ltpFR2	19	3	n/a	n/a	n/a	n/a	0	0	0
496316	PROB	n/a	LTP303	ltpFR2	19	n/a	n/a	n/a	4	10	3	3	4
498504	PROB	n/a	LTP303	ltpFR2	19	n/a	n/a	n/a	4	18	8	2	8
499786	PROB	n/a	LTP303	ltpFR2	19	n/a	n/a	n/a	4	14	7	1	6
500804	PROB	n/a	LTP303	ltpFR2	19	n/a	n/a	n/a	4	14	6	6	2
502137	PROB	n/a	LTP303	ltpFR2	19	n/a	n/a	n/a	4	16	8	2	6
503255	PROB	n/a	LTP303	ltpFR2	19	n/a	n/a	n/a	4	11	2	2	7
504339	PROB	n/a	LTP303	ltpFR2	19	n/a	n/a	n/a	4	20	8	3	9
505841	PROB	n/a	LTP303	ltpFR2	19	n/a	n/a	n/a	4	21	9	7	5
507727	PROB	n/a	LTP303	ltpFR2	19	n/a	n/a	n/a	4	10	5	2	3
509228	PROB	n/a	LTP303	ltpFR2	19	n/a	n/a	n/a	4	19	9	8	2
510529	PROB	n/a	LTP303	ltpFR2	19	n/a	n/a	n/a	4	8	1	5	2
511612	PROB	n/a	LTP303	ltpFR2	19	n/a	n/a	n/a	4	20	8	8	4
513213	PROB	n/a	LTP303	ltpFR2	19	n/a	n/a	n/a	4	20	9	8	3
514916	PROB	n/a	LTP303	ltpFR2	19	n/a	n/a	n/a	4	9	3	2	4
517601	PROB	n/a	LTP303	ltpFR2	19	n/a	n/a	n/a	4	6	3	1	2
518794	STOP	n/a	LTP303	ltpFR2	19	n/a	n/a	n/a	4	n/a	n/a	n/a	n/a
520972	REC_START	n/a	LTP303	ltpFR2	19	3	n/a	n/a	n/a	n/a	0	0	0
524880	REC_WORD	wordpools/wasnorm_wordpool_576.txt	LTP303	ltpFR2	19	3	CONVICT	371	n/a	n/a	0	0	0
525739	REC_WORD_VV	wordpools/wasnorm_wordpool_576.txt	LTP303	ltpFR2	19	3	<>	-1	n/a	n/a	0	0	0
526595	REC_WORD_VV	wordpools/wasnorm_wordpool_576.txt	LTP303	ltpFR2	19	3	<>	-1	n/a	n/a	0	0	0
527911	REC_WORD	wordpools/wasnorm_wordpool_576.txt	LTP303	ltpFR2	19	3	SCISSORS	1250	n/a	n/a	0	0	0
529040	REC_WORD	wordpools/wasnorm_wordpool_576.txt	LTP303	ltpFR2	19	3	SEAFOOD	1260	n/a	n/a	0	0	0
530275	REC_WORD	wordpools/wasnorm_wordpool_576.txt	LTP303	ltpFR2	19	3	JOURNAL	760	n/a	n/a	0	0	0
531466	REC_WORD	wordpools/wasnorm_wordpool_576.txt	LTP303	ltpFR2	19	3	EYELASH	546	n/a	n/a	0	0	0
532877	REC_WORD	wordpools/wasnorm_wordpool_576.txt	LTP303	ltpFR2	19	3	OUTFIT	988	n/a	n/a	0	0	0
533968	REC_WORD	wordpools/wasnorm_wordpool_576.txt	LTP303	ltpFR2	19	3	SHORTS	1293	n/a	n/a	0	0	0
535220	REC_WORD	wordpools/wasnorm_wordpool_576.txt	LTP303	ltpFR2	19	3	BREAST	171	n/a	n/a	0	0	0
540876	REC_WORD	wordpools/wasnorm_wordpool_576.txt	LTP303	ltpFR2	19	3	PICNIC	1060	n/a	n/a	0	0	0
541899	REC_WORD	wordpools/wasnorm_wordpool_576.txt	LTP303	ltpFR2	19	3	CHIPMUNK	304	n/a	n/a	0	0	0
542927	REC_WORD	wordpools/wasnorm_wordpool_576.txt	LTP303	ltpFR2	19	3	GAZELLE	628	n/a	n/a	0	0	0
551775	REC_WORD	wordpools/wasnorm_wordpool_576.txt	LTP303	ltpFR2	19	3	SHELF	1280	n/a	n/a	0	0	0
552883	REC_WORD	wordpools/wasnorm_wordpool_576.txt	LTP303	ltpFR2	19	3	BRANCH	168	n/a	n/a	0	0	0
554000	REC_WORD	wordpools/wasnorm_wordpool_576.txt	LTP303	ltpFR2	19	3	BALLOON	75	n/a	n/a	0	0	0
555089	REC_WORD	wordpools/wasnorm_wordpool_576.txt	LTP303	ltpFR2	19	3	PLATE	1086	n/a	n/a	0	0	0
556130	REC_WORD	wordpools/wasnorm_wordpool_576.txt	LTP303	ltpFR2	19	3	HOOK	715	n/a	n/a	0	0	0
557343	REC_WORD	wordpools/wasnorm_wordpool_576.txt	LTP303	ltpFR2	19	3	AIRPORT	13	n/a	n/a	0	0	0
558384	REC_WORD	wordpools/wasnorm_wordpool_576.txt	LTP303	ltpFR2	19	3	SAUSAGE	1238	n/a	n/a	0	0	0
559599	REC_WORD	wordpools/wasnorm_wordpool_576.txt	LTP303	ltpFR2	19	3	TRUCK	1512	n/a	n/a	0	0	0
561318	REC_WORD	wordpools/wasnorm_wordpool_576.txt	LTP303	ltpFR2	19	3	BARREL	91	n/a	n/a	0	0	0
583839	REC_WORD	wordpools/wasnorm_wordpool_576.txt	LTP303	ltpFR2	19	3	STUDENT	1395	n/a	n/a	0	0	0
584996	REC_WORD	wordpools/wasnorm_wordpool_576.txt	LTP303	ltpFR2	19	3	PUPIL	1143	n/a	n/a	0	0	0
586122	REC_WORD	wordpools/wasnorm_wordpool_576.txt	LTP303	ltpFR2	19	3	HEART	697	n/a	n/a	0	0	0
590466	REC_WORD	wordpools/wasnorm_wordpool_576.txt	LTP303	ltpFR2	19	3	COSTUME	383	n/a	n/a	0	0	0
592476	REC_WORD_VV	wordpools/wasnorm_wordpool_576.txt	LTP303	ltpFR2	19	3	<>	-1	n/a	n/a	0	0	0
611397	DISTRACTOR	n/a	LTP303	ltpFR2	19	4	n/a	n/a	n/a	n/a	0	0	0
611397	START	n/a	LTP303	ltpFR2	19	n/a	n/a	n/a	5	n/a	n/a	n/a	n/a
611413	PROB	n/a	LTP303	ltpFR2	19	n/a	n/a	n/a	5	14	5	8	1
612997	PROB	n/a	LTP303	ltpFR2	19	n/a	n/a	n/a	5	10	3	1	6
614164	PROB	n/a	LTP303	ltpFR2	19	n/a	n/a	n/a	5	13	4	4	5
615850	PROB	n/a	LTP303	ltpFR2	19	n/a	n/a	n/a	5	16	4	8	4
617968	PROB	n/a	LTP303	ltpFR2	19	n/a	n/a	n/a	5	19	9	4	6
619418	PROB	n/a	LTP303	ltpFR2	19	n/a	n/a	n/a	5	5	1	2	2
620252	PROB	n/a	LTP303	ltpFR2	19	n/a	n/a	n/a	5	19	6	7	6
621822	PROB	n/a	LTP303	ltpFR2	19	n/a	n/a	n/a	5	15	9	1	5
622855	PROB	n/a	LTP303	ltpFR2	19	n/a	n/a	n/a	5	13	3	1	7
624324	PROB	n/a	LTP303	ltpFR2	19	n/a	n/a	n/a	5	22	9	4	9
627993	PROB	n/a	LTP303	ltpFR2	19	n/a	n/a	n/a	5	19	5	6	8
629509	PROB	n/a	LTP303	ltpFR2	19	n/a	n/a	n/a	5	13	3	6	4
630778	PROB	n/a	LTP303	ltpFR2	19	n/a	n/a	n/a	5	18	7	8	3
632429	PROB	n/a	LTP303	ltpFR2	19	n/a	n/a	n/a	5	18	9	8	1
633848	PROB	n/a	LTP303	ltpFR2	19	n/a	n/a	n/a	5	14	4	6	4
634791	STOP	n/a	LTP303	ltpFR2	19	n/a	n/a	n/a	5	n/a	n/a	n/a	n/a
636300	WORD	wordpools/wasnorm_wordpool_576.txt	LTP303	ltpFR2	19	4	ATOM	55	n/a	n/a	0	0	0
638960	WORD	wordpools/wasnorm_wordpool_576.txt	LTP303	ltpFR2	19	4	MISSILE	900	n/a	n/a	0	0	0
641639	WORD	wordpools/wasnorm_wordpool_576.txt	LTP303	ltpFR2	19	4	PORK	1108	n/a	n/a	0	0	0
644256	WORD	wordpools/wasnorm_wordpool_576.txt	LTP303	ltpFR2	19	4	FLUTE	585	n/a	n/a	0	0	0
646726	WORD	wordpools/wasnorm_wordpool_576.txt	LTP303	ltpFR2	19	4	DANDRUFF	439	n/a	n/a	0	0	0
649227	WORD	wordpools/wasnorm_wordpool_576.txt	LTP303	ltpFR2	19	4	SNAKE	1333	n/a	n/a	0	0	0
651680	WORD	wordpools/wasnorm_wordpool_576.txt	LTP303	ltpFR2	19	4	SOFTBALL	1343	n/a	n/a	0	0	0
654414	WORD	wordpools/wasnorm_wordpool_576.txt	LTP303	ltpFR2	19	4	CHILD	299	n/a	n/a	0	0	0
656892	WORD	wordpools/wasnorm_wordpool_576.txt	LTP303	ltpFR2	19	4	CABIN	211	n/a	n/a	0	0	0
659637	WORD	wordpools/wasnorm_wordpool_576.txt	LTP303	ltpFR2	19	4	CATCHER	258	n/a	n/a	0	0	0
662062	WORD	wordpools/wasnorm_wordpool_576.txt	LTP303	ltpFR2	19	4	WORLD	1622	n/a	n/a	0	0	0
664514	WORD	wordpools/wasnorm_wordpool_576.txt	LTP303	ltpFR2	19	4	OINTMENT	974	n/a	n/a	0	0	0
667050	WORD	wordpools/wasnorm_wordpool_576.txt	LTP303	ltpFR2	19	4	CRUTCH	417	n/a	n/a	0	0	0
669593	WORD	wordpools/wasnorm_wordpool_576.txt	LTP303	ltpFR2	19	4	BUNNY	198	n/a	n/a	0	0	0
672288	WORD	wordpools/wasnorm_wordpool_576.txt	LTP303	ltpFR2	19	4	TORTOISE	1486	n/a	n/a	0	0	0
674749	WORD	wordpools/wasnorm_wordpool_576.txt	LTP303	ltpFR2	19	4	WHISTLE	1606	n/a	n/a	0	0	0
677342	WORD	wordpools/wasnorm_wordpool_576.txt	LTP303	ltpFR2	19	4	PRINCESS	1125	n/a	n/a	0	0	0
680085	WORD	wordpools/wasnorm_wordpool_576.txt	LTP303	ltpFR2	19	4	CLAM	315	n/a	n/a	0	0	0
682815	WORD	wordpools/wasnorm_wordpool_576.txt	LTP303	ltpFR2	19	4	LIZARD	834	n/a	n/a	0	0	0
685332	WORD	wordpools/wasnorm_wordpool_576.txt	LTP303	ltpFR2	19	4	RATTLE	1170	n/a	n/a	0	0	0
688025	WORD	wordpools/wasnorm_wordpool_576.txt	LTP303	ltpFR2	19	4	HUSBAND	728	n/a	n/a	0	0	0
690838	WORD	wordpools/wasnorm_wordpool_576.txt	LTP303	ltpFR2	19	4	ICING	732	n/a	n/a	0	0	0
693657	WORD	wordpools/wasnorm_wordpool_576.txt	LTP303	ltpFR2	19	4	BLUEPRINT	142	n/a	n/a	0	0	0
696215	WORD	wordpools/wasnorm_wordpool_576.txt	LTP303	ltpFR2	19	4	CRAYON	401	n/a	n/a	0	0	0
697829	START	n/a	LTP303	ltpFR2	19	n/a	n/a	n/a	6	n/a	n/a	n/a	n/a
698774	DISTRACTOR	n/a	LTP303	ltpFR2	19	4	n/a	n/a	n/a	n/a	0	0	0
698779	PROB	n/a	LTP303	ltpFR2	19	n/a	n/a	n/a	6	12	2	4	6
700517	PROB	n/a	LTP303	ltpFR2	19	n/a	n/a	n/a	6	14	7	4	3
701453	PROB	n/a	LTP303	ltpFR2	19	n/a	n/a	n/a	6	15	1	6	8
702386	PROB	n/a	LTP303	ltpFR2	19	n/a	n/a	n/a	6	14	4	7	3
703403	PROB	n/a	LTP303	ltpFR2	19	n/a	n/a	n/a	6	15	6	3	6
704587	PROB	n/a	LTP303	ltpFR2	19	n/a	n/a	n/a	6	14	1	9	4
705939	PROB	n/a	LTP303	ltpFR2	19	n/a	n/a	n/a	6	12	5	3	4
707572	PROB	n/a	LTP303	ltpFR2	19	n/a	n/a	n/a	6	19	8	9	2
709793	PROB	n/a	LTP303	ltpFR2	19	n/a	n/a	n/a	6	14	6	7	1
710778	PROB	n/a	LTP303	ltpFR2	19	n/a	n/a	n/a	6	11	1	3	7
711661	PROB	n/a	LTP303	ltpFR2	19	n/a	n/a	n/a	6	15	3	3	8
713245	PROB	n/a	LTP303	ltpFR2	19	n/a	n/a	n/a	6	18	6	5	7
714829	PROB	n/a	LTP303	ltpFR2	19	n/a	n/a	n/a	6	16	4	8	4
716414	PROB	n/a	LTP303	ltpFR2	19	n/a	n/a	n/a	6	12	3	6	3
717766	PROB	n/a	LTP303	ltpFR2	19	n/a	n/a	n/a	6	18	8	1	9
719934	PROB	n/a	LTP303	ltpFR2	19	n/a	n/a	n/a	6	12	1	6	5
721002	STOP	n/a	LTP303	ltpFR2	19	n/a	n/a	n/a	6	n/a	n/a	n/a	n/a
723754	REC_START	n/a	LTP303	ltpFR2	19	4	n/a	n/a	n/a	n/a	0	0	0
732816	REC_WORD	wordpools/wasnorm_wordpool_576.txt	LTP303	ltpFR2	19	4	ATOM	55	n/a	n/a	0	0	0
734021	REC_WORD	wordpools/wasnorm_wordpool_576.txt	LTP303	ltpFR2	19	4	MISSILE	900	n/a	n/a	0	0	0
735436	REC_WORD	wordpools/wasnorm_wordpool_576.txt	LTP303	ltpFR2	19	4	PORK	1108	n/a	n/a	0	0	0
736451	REC_WORD	wordpools/wasnorm_wordpool_576.txt	LTP303	ltpFR2	19	4	FLUTE	585	n/a	n/a	0	0	0
737754	REC_WORD	wordpools/wasnorm_wordpool_576.txt	LTP303	ltpFR2	19	4	DANDRUFF	439	n/a	n/a	0	0	0
738936	REC_WORD	wordpools/wasnorm_wordpool_576.txt	LTP303	ltpFR2	19	4	SNAKE	1333	n/a	n/a	0	0	0
740165	REC_WORD	wordpools/wasnorm_wordpool_576.txt	LTP303	ltpFR2	19	4	SOFTBALL	1343	n/a	n/a	0	0	0
741556	REC_WORD	wordpools/wasnorm_wordpool_576.txt	LTP303	ltpFR2	19	4	INFANT	737	n/a	n/a	0	0	0
743153	REC_WORD	wordpools/wasnorm_wordpool_576.txt	LTP303	ltpFR2	19	4	CABIN	211	n/a	n/a	0	0	0
744833	REC_WORD	wordpools/wasnorm_wordpool_576.txt	LTP303	ltpFR2	19	4	CATCHER	258	n/a	n/a	0	0	0
746429	REC_WORD	wordpools/wasnorm_wordpool_576.txt	LTP303	ltpFR2	19	4	WORLD	1622	n/a	n/a	0	0	0
748570	REC_WORD	wordpools/wasnorm_wordpool_576.txt	LTP303	ltpFR2	19	4	CRUTCH	417	n/a	n/a	0	0	0
749848	REC_WORD	wordpools/wasnorm_wordpool_576.txt	LTP303	ltpFR2	19	4	OINTMENT	974	n/a	n/a	0	0	0
764284	REC_WORD	wordpools/wasnorm_wordpool_576.txt	LTP303	ltpFR2	19	4	WHISTLE	1606	n/a	n/a	0	0	0
765463	REC_WORD	wordpools/wasnorm_wordpool_576.txt	LTP303	ltpFR2	19	4	PRINCESS	1125	n/a	n/a	0	0	0
766796	REC_WORD	wordpools/wasnorm_wordpool_576.txt	LTP303	ltpFR2	19	4	CLAM	315	n/a	n/a	0	0	0
772794	REC_WORD	wordpools/wasnorm_wordpool_576.txt	LTP303	ltpFR2	19	4	HUSBAND	728	n/a	n/a	0	0	0
774258	REC_WORD	wordpools/wasnorm_wordpool_576.txt	LTP303	ltpFR2	19	4	ICING	732	n/a	n/a	0	0	0
775538	REC_WORD	wordpools/wasnorm_wordpool_576.txt	LTP303	ltpFR2	19	4	BLUEPRINT	142	n/a	n/a	0	0	0
782732	REC_WORD	wordpools/wasnorm_wordpool_576.txt	LTP303	ltpFR2	19	4	LIZARD	834	n/a	n/a	0	0	0
797914	REC_WORD_VV	wordpools/wasnorm_wordpool_576.txt	LTP303	ltpFR2	19	4	<>	-1	n/a	n/a	0	0	0
814211	DISTRACTOR	n/a	LTP303	ltpFR2	19	5	n/a	n/a	n/a	n/a	0	0	0
814211	START	n/a	LTP303	ltpFR2	19	n/a	n/a	n/a	7	n/a	n/a	n/a	n/a
814225	PROB	n/a	LTP303	ltpFR2	19	n/a	n/a	n/a	7	17	7	3	7
815577	PROB	n/a	LTP303	ltpFR2	19	n/a	n/a	n/a	7	16	5	6	5
816928	PROB	n/a	LTP303	ltpFR2	19	n/a	n/a	n/a	7	14	8	1	5
818345	PROB	n/a	LTP303	ltpFR2	19	n/a	n/a	n/a	7	20	5	9	6
820447	PROB	n/a	LTP303	ltpFR2	19	n/a	n/a	n/a	7	21	5	8	8
821885	PROB	n/a	LTP303	ltpFR2	19	n/a	n/a	n/a	7	16	8	1	7
823018	PROB	n/a	LTP303	ltpFR2	19	n/a	n/a	n/a	7	12	2	4	6
824217	PROB	n/a	LTP303	ltpFR2	19	n/a	n/a	n/a	7	19	7	4	8
826035	PROB	n/a	LTP303	ltpFR2	19	n/a	n/a	n/a	7	18	2	9	7
828188	PROB	n/a	LTP303	ltpFR2	19	n/a	n/a	n/a	7	16	6	5	5
829839	PROB	n/a	LTP303	ltpFR2	19	n/a	n/a	n/a	7	10	4	4	2
831173	PROB	n/a	LTP303	ltpFR2	19	n/a	n/a	n/a	7	14	5	3	6
832825	PROB	n/a	LTP303	ltpFR2	19	n/a	n/a	n/a	7	24	9	9	6
834342	PROB	n/a	LTP303	ltpFR2	19	n/a	n/a	n/a	7	18	8	6	4
835677	PROB	n/a	LTP303	ltpFR2	19	n/a	n/a	n/a	7	7	1	2	4
836688	STOP	n/a	LTP303	ltpFR2	19	n/a	n/a	n/a	7	n/a	n/a	n/a	n/a
839181	WORD	wordpools/wasnorm_wordpool_576.txt	LTP303	ltpFR2	19	5	PLIERS	1089	n/a	n/a	0	0	0
841684	WORD	wordpools/wasnorm_wordpool_576.txt	LTP303	ltpFR2	19	5	TWIG	1527	n/a	n/a	0	0	0
844367	WORD	wordpools/wasnorm_wordpool_576.txt	LTP303	ltpFR2	19	5	ISLAND	745	n/a	n/a	0	0	0
847091	WORD	wordpools/wasnorm_wordpool_576.txt	LTP303	ltpFR2	19	5	GIRL	637	n/a	n/a	0	0	0
849790	WORD	wordpools/wasnorm_wordpool_576.txt	LTP303	ltpFR2	19	5	MOTOR	922	n/a	n/a	0	0	0
852241	WORD	wordpools/wasnorm_wordpool_576.txt	LTP303	ltpFR2	19	5	DRINK	498	n/a	n/a	0	0	0
854861	WORD	wordpools/wasnorm_wordpool_576.txt	LTP303	ltpFR2	19	5	SEAL	1262	n/a	n/a	0	0	0
857461	WORD	wordpools/wasnorm_wordpool_576.txt	LTP303	ltpFR2	19	5	POSSUM	1112	n/a	n/a	0	0	0
859920	WORD	wordpools/wasnorm_wordpool_576.txt	LTP303	ltpFR2	19	5	GHETTO	633	n/a	n/a	0	0	0
862349	WORD	wordpools/wasnorm_wordpool_576.txt	LTP303	ltpFR2	19	5	COCOON	339	n/a	n/a	0	0	0
865135	WORD	wordpools/wasnorm_wordpool_576.txt	LTP303	ltpFR2	19	5	STONE	1385	n/a	n/a	0	0	0
867860	WORD	wordpools/wasnorm_wordpool_576.txt	LTP303	ltpFR2	19	5	HEADBAND	696	n/a	n/a	0	0	0
870356	WORD	wordpools/wasnorm_wordpool_576.txt	LTP303	ltpFR2	19	5	COBRA	336	n/a	n/a	0	0	0
873108	WORD	wordpools/wasnorm_wordpool_576.txt	LTP303	ltpFR2	19	5	HATCHET	691	n/a	n/a	0	0	0
875844	WORD	wordpools/wasnorm_wordpool_576.txt	LTP303	ltpFR2	19	5	MUSTARD	935	n/a	n/a	0	0	0
878485	WORD	wordpools/wasnorm_wordpool_576.txt	LTP303	ltpFR2	19	5	LUMBER	848	n/a	n/a	0	0	0
881198	WORD	wordpools/wasnorm_wordpool_576.txt	LTP303	ltpFR2	19	5	WRENCH	1625	n/a	n/a	0	0	0
883758	WORD	wordpools/wasnorm_wordpool_576.txt	LTP303	ltpFR2	19	5	DENTIST	447	n/a	n/a	0	0	0
886402	WORD	wordpools/wasnorm_wordpool_576.txt	LTP303	ltpFR2	19	5	BRACES	164	n/a	n/a	0	0	0
889211	WORD	wordpools/wasnorm_wordpool_576.txt	LTP303	ltpFR2	19	5	SCOTCH	1251	n/a	n/a	0	0	0
891807	WORD	wordpools/wasnorm_wordpool_576.txt	LTP303	ltpFR2	19	5	FOREST	593	n/a	n/a	0	0	0
894566	WORD	wordpools/wasnorm_wordpool_576.txt	LTP303	ltpFR2	19	5	PEACH	1031	n/a	n/a	0	0	0
897068	WORD	wordpools/wasnorm_wordpool_576.txt	LTP303	ltpFR2	19	5	BELLY	119	n/a	n/a	0	0	0
899663	WORD	wordpools/wasnorm_wordpool_576.txt	LTP303	ltpFR2	19	5	COOKBOOK	373	n/a	n/a	0	0	0
901272	START	n/a	LTP303	ltpFR2	19	n/a	n/a	n/a	8	n/a	n/a	n/a	n/a
902090	DISTRACTOR	n/a	LTP303	ltpFR2	19	5	n/a	n/a	n/a	n/a	0	0	0
902098	PROB	n/a	LTP303	ltpFR2	19	n/a	n/a	n/a	8	14	3	7	4
903682	PROB	n/a	LTP303	ltpFR2	19	n/a	n/a	n/a	8	17	5	8	4
905284	PROB	n/a	LTP303	ltpFR2	19	n/a	n/a	n/a	8	12	2	9	1
906970	PROB	n/a	LTP303	ltpFR2	19	n/a	n/a	n/a	8	17	7	4	6
908268	PROB	n/a	LTP303	ltpFR2	19	n/a	n/a	n/a	8	15	9	5	1
909369	PROB	n/a	LTP303	ltpFR2	19	n/a	n/a	n/a	8	13	5	1	7
910503	PROB	n/a	LTP303	ltpFR2	19	n/a	n/a	n/a	8	20	7	4	9
912706	PROB	n/a	LTP303	ltpFR2	19	n/a	n/a	n/a	8	20	2	9	9
914340	PROB	n/a	LTP303	ltpFR2	19	n/a	n/a	n/a	8	18	4	9	5
915826	PROB	n/a	LTP303	ltpFR2	19	n/a	n/a	n/a	8	22	8	8	6
917094	PROB	n/a	LTP303	ltpFR2	19	n/a	n/a	n/a	8	12	2	6	4
918212	PROB	n/a	LTP303	ltpFR2	19	n/a	n/a	n/a	8	22	7	7	8
920161	PROB	n/a	LTP303	ltpFR2	19	n/a	n/a	n/a	8	13	2	9	2
921579	PROB	n/a	LTP303	ltpFR2	19	n/a	n/a	n/a	8	15	5	9	1
922647	PROB	n/a	LTP303	ltpFR2	19	n/a	n/a	n/a	8	14	6	5	3
924003	STOP	n/a	LTP303	ltpFR2	19	n/a	n/a	n/a	8	n/a	n/a	n/a	n/a
927034	REC_START	n/a	LTP303	ltpFR2	19	5	n/a	n/a	n/a	n/a	0	0	0
931059	REC_WORD	wordpools/wasnorm_wordpool_576.txt	LTP303	ltpFR2	19	5	PLIERS	1089	n/a	n/a	0	0	0
932281	REC_WORD	wordpools/wasnorm_wordpool_576.txt	LTP303	ltpFR2	19	5	TWIG	1527	n/a	n/a	0	0	0
933507	REC_WORD	wordpools/wasnorm_wordpool_576.txt	LTP303	ltpFR2	19	5	ISLAND	745	n/a	n/a	0	0	0
934658	REC_WORD	wordpools/wasnorm_wordpool_576.txt	LTP303	ltpFR2	19	5	GIRL	637	n/a	n/a	0	0	0
937425	REC_WORD	wordpools/wasnorm_wordpool_576.txt	LTP303	ltpFR2	19	5	MOTOR	922	n/a	n/a	0	0	0
938558	REC_WORD	wordpools/wasnorm_wordpool_576.txt	LTP303	ltpFR2	19	5	DRINK	498	n/a	n/a	0	0	0
939526	REC_WORD	wordpools/wasnorm_wordpool_576.txt	LTP303	ltpFR2	19	5	SEAL	1262	n/a	n/a	0	0	0
940763	REC_WORD	wordpools/wasnorm_wordpool_576.txt	LTP303	ltpFR2	19	5	POSSUM	1112	n/a	n/a	0	0	0
951058	REC_WORD	wordpools/wasnorm_wordpool_576.txt	LTP303	ltpFR2	19	5	COCOON	339	n/a	n/a	0	0	0
952234	REC_WORD	wordpools/wasnorm_wordpool_576.txt	LTP303	ltpFR2	19	5	STONE	1385	n/a	n/a	0	0	0
953643	REC_WORD	wordpools/wasnorm_wordpool_576.txt	LTP303	ltpFR2	19	5	HEADBAND	696	n/a	n/a	0	0	0
954668	REC_WORD_VV	wordpools/wasnorm_wordpool_576.txt	LTP303	ltpFR2	19	5	<>	-1	n/a	n/a	0	0	0
955530	REC_WORD	wordpools/wasnorm_wordpool_576.txt	LTP303	ltpFR2	19	5	COBRA	336	n/a	n/a	0	0	0
960890	REC_WORD	wordpools/wasnorm_wordpool_576.txt	LTP303	ltpFR2	19	5	DENTIST	447	n/a	n/a	0	0	0
961954	REC_WORD	wordpools/wasnorm_wordpool_576.txt	LTP303	ltpFR2	19	5	BRACES	164	n/a	n/a	0	0	0
962969	REC_WORD	wordpools/wasnorm_wordpool_576.txt	LTP303	ltpFR2	19	5	SCOTCH	1251	n/a	n/a	0	0	0
966439	REC_WORD	wordpools/wasnorm_wordpool_576.txt	LTP303	ltpFR2	19	5	FOREST	593	n/a	n/a	0	0	0
967914	REC_WORD	wordpools/wasnorm_wordpool_576.txt	LTP303	ltpFR2	19	5	PEACH	1031	n/a	n/a	0	0	0
969066	REC_WORD	wordpools/wasnorm_wordpool_576.txt	LTP303	ltpFR2	19	5	BELLY	119	n/a	n/a	0	0	0
970166	REC_WORD	wordpools/wasnorm_wordpool_576.txt	LTP303	ltpFR2	19	5	COOKBOOK	373	n/a	n/a	0	0	0
1017490	DISTRACTOR	n/a	LTP303	ltpFR2	19	6	n/a	n/a	n/a	n/a	0	0	0
1017490	START	n/a	LTP303	ltpFR2	19	n/a	n/a	n/a	9	n/a	n/a	n/a	n/a
1017507	PROB	n/a	LTP303	ltpFR2	19	n/a	n/a	n/a	9	5	2	1	2
1018860	PROB	n/a	LTP303	ltpFR2	19	n/a	n/a	n/a	9	18	4	5	9
1020442	PROB	n/a	LTP303	ltpFR2	19	n/a	n/a	n/a	9	13	2	6	5
1021593	PROB	n/a	LTP303	ltpFR2	19	n/a	n/a	n/a	9	14	8	3	3
1022897	PROB	n/a	LTP303	ltpFR2	19	n/a	n/a	n/a	9	20	3	9	8
1024514	PROB	n/a	LTP303	ltpFR2	19	n/a	n/a	n/a	9	12	3	3	6
1025931	PROB	n/a	LTP303	ltpFR2	19	n/a	n/a	n/a	9	7	2	2	3
1027465	PROB	n/a	LTP303	ltpFR2	19	n/a	n/a	n/a	9	13	5	7	1
1028582	PROB	n/a	LTP303	ltpFR2	19	n/a	n/a	n/a	9	23	5	9	9
1029984	PROB	n/a	LTP303	ltpFR2	19	n/a	n/a	n/a	9	13	4	1	8
1030985	PROB	n/a	LTP303	ltpFR2	19	n/a	n/a	n/a	9	15	7	3	5
1032168	PROB	n/a	LTP303	ltpFR2	19	n/a	n/a	n/a	9	13	2	3	8
1033586	PROB	n/a	LTP303	ltpFR2	19	n/a	n/a	n/a	9	15	4	5	6
1034922	PROB	n/a	LTP303	ltpFR2	19	n/a	n/a	n/a	9	16	5	8	3
1036338	PROB	n/a	LTP303	ltpFR2	19	n/a	n/a	n/a	9	12	2	2	8
1037557	PROB	n/a	LTP303	ltpFR2	19	n/a	n/a	n/a	9	11	3	7	1
1038557	PROB	n/a	LTP303	ltpFR2	19	n/a	n/a	n/a	9	6	4	1	1
1039676	PROB	n/a	LTP303	ltpFR2	19	n/a	n/a	n/a	9	18	4	5	9
1041256	STOP	n/a	LTP303	ltpFR2	19	n/a	n/a	n/a	9	n/a	n/a	n/a	n/a
1042445	WORD	wordpools/wasnorm_wordpool_576.txt	LTP303	ltpFR2	19	6	TWISTER	1530	n/a	n/a	0	0	0
1044932	WORD	wordpools/wasnorm_wordpool_576.txt	LTP303	ltpFR2	19	6	HANDBAG	684	n/a	n/a	0	0	0
1047700	WORD	wordpools/wasnorm_wordpool_576.txt	LTP303	ltpFR2	19	6	COIN	343	n/a	n/a	0	0	0
1050486	WORD	wordpools/wasnorm_wordpool_576.txt	LTP303	ltpFR2	19	6	THRONE	1461	n/a	n/a	0	0	0
1053220	WORD	wordpools/wasnorm_wordpool_576.txt	LTP303	ltpFR2	19	6	PIGMENT	1066	n/a	n/a	0	0	0
1055906	WORD	wordpools/wasnorm_wordpool_576.txt	LTP303	ltpFR2	19	6	HARP	689	n/a	n/a	0	0	0
1058607	WORD	wordpools/wasnorm_wordpool_576.txt	LTP303	ltpFR2	19	6	CHEST	295	n/a	n/a	0	0	0
1061377	WORD	wordpools/wasnorm_wordpool_576.txt	LTP303	ltpFR2	19	6	FLESH	579	n/a	n/a	0	0	0
1064029	WORD	wordpools/wasnorm_wordpool_576.txt	LTP303	ltpFR2	19	6	KETCHUP	771	n/a	n/a	0	0	0
1066718	WORD	wordpools/wasnorm_wordpool_576.txt	LTP303	ltpFR2	19	6	CLAMP	316	n/a	n/a	0	0	0
1069366	WORD	wordpools/wasnorm_wordpool_576.txt	LTP303	ltpFR2	19	6	ARMY	39	n/a	n/a	0	0	0
1071953	WORD	wordpools/wasnorm_wordpool_576.txt	LTP303	ltpFR2	19	6	BODY	145	n/a	n/a	0	0	0
1074503	WORD	wordpools/wasnorm_wordpool_576.txt	LTP303	ltpFR2	19	6	STAKE	1368	n/a	n/a	0	0	0
1077306	WORD	wordpools/wasnorm_wordpool_576.txt	LTP303	ltpFR2	19	6	LEOPARD	812	n/a	n/a	0	0	0
1079859	WORD	wordpools/wasnorm_wordpool_576.txt	LTP303	ltpFR2	19	6	BISON	131	n/a	n/a	0	0	0
1082627	WORD	wordpools/wasnorm_wordpool_576.txt	LTP303	ltpFR2	19	6	MARROW	872	n/a	n/a	0	0	0
1085046	WORD	wordpools/wasnorm_wordpool_576.txt	LTP303	ltpFR2	19	6	BADGE	68	n/a	n/a	0	0	0
1087548	WORD	wordpools/wasnorm_wordpool_576.txt	LTP303	ltpFR2	19	6	SUBWAY	1400	n/a	n/a	0	0	0
1090166	WORD	wordpools/wasnorm_wordpool_576.txt	LTP303	ltpFR2	19	6	WITNESS	1618	n/a	n/a	0	0	0
1092853	WORD	wordpools/wasnorm_wordpool_576.txt	LTP303	ltpFR2	19	6	JURY	766	n/a	n/a	0	0	0
1095287	WORD	wordpools/wasnorm_wordpool_576.txt	LTP303	ltpFR2	19	6	HERO	706	n/a	n/a	0	0	0
1097973	WORD	wordpools/wasnorm_wordpool_576.txt	LTP303	ltpFR2	19	6	TROMBONE	1508	n/a	n/a	0	0	0
1100731	WORD	wordpools/wasnorm_wordpool_576.txt	LTP303	ltpFR2	19	6	CYCLONE	431	n/a	n/a	0	0	0
1103460	WORD	wordpools/wasnorm_wordpool_576.txt	LTP303	ltpFR2	19	6	ZIPPER	1636	n/a	n/a	0	0	0
1105068	START	n/a	LTP303	ltpFR2	19	n/a	n/a	n/a	10	n/a	n/a	n/a	n/a
1106097	DISTRACTOR	n/a	LTP303	ltpFR2	19	6	n/a	n/a	n/a	n/a	0	0	0
1106112	PROB	n/a	LTP303	ltpFR2	19	n/a	n/a	n/a	10	15	9	3	3
1108012	PROB	n/a	LTP303	ltpFR2	19	n/a	n/a	n/a	10	11	1	6	4
1109364	PROB	n/a	LTP303	ltpFR2	19	n/a	n/a	n/a	10	17	8	6	3
1110817	PROB	n/a	LTP303	ltpFR2	19	n/a	n/a	n/a	10	15	9	5	1
1112217	PROB	n/a	LTP303	ltpFR2	19	n/a	n/a	n/a	10	12	2	5	5
1113383	PROB	n/a	LTP303	ltpFR2	19	n/a	n/a	n/a	10	21	8	7	6
1114835	PROB	n/a	LTP303	ltpFR2	19	n/a	n/a	n/a	10	13	5	1	6
1116303	PROB	n/a	LTP303	ltpFR2	19	n/a	n/a	n/a	10	10	6	2	2
1117754	PROB	n/a	LTP303	ltpFR2	19	n/a	n/a	n/a	10	21	6	8	7
1119257	PROB	n/a	LTP303	ltpFR2	19	n/a	n/a	n/a	10	19	8	8	3
1120774	PROB	n/a	LTP303	ltpFR2	19	n/a	n/a	n/a	10	15	2	5	8
1122226	PROB	n/a	LTP303	ltpFR2	19	n/a	n/a	n/a	10	16	7	9	1
1123508	PROB	n/a	LTP303	ltpFR2	19	n/a	n/a	n/a	10	17	4	6	7
1125044	PROB	n/a	LTP303	ltpFR2	19	n/a	n/a	n/a	10	11	6	4	1
1126010	PROB	n/a	LTP303	ltpFR2	19	n/a	n/a	n/a	10	8	1	1	6
1127295	PROB	n/a	LTP303	ltpFR2	19	n/a	n/a	n/a	10	10	4	1	5
1128781	STOP	n/a	LTP303	ltpFR2	19	n/a	n/a	n/a	10	n/a	n/a	n/a	n/a
1130850	REC_START	n/a	LTP303	ltpFR2	19	6	n/a	n/a	n/a	n/a	0	0	0
1134950	REC_WORD	wordpools/wasnorm_wordpool_576.txt	LTP303	ltpFR2	19	6	TWISTER	1530	n/a	n/a	0	0	0
1136467	REC_WORD	wordpools/wasnorm_wordpool_576.txt	LTP303	ltpFR2	19	6	PURSE	1145	n/a	n/a	0	0	0
1137563	REC_WORD	wordpools/wasnorm_wordpool_576.txt	LTP303	ltpFR2	19	6	COIN	343	n/a	n/a	0	0	0
1138620	REC_WORD	wordpools/wasnorm_wordpool_576.txt	LTP303	ltpFR2	19	6	THRONE	1461	n/a	n/a	0	0	0
1139728	REC_WORD	wordpools/wasnorm_wordpool_576.txt	LTP303	ltpFR2	19	6	PIGMENT	1066	n/a	n/a	0	0	0
1140825	REC_WORD	wordpools/wasnorm_wordpool_576.txt	LTP303	ltpFR2	19	6	HARP	689	n/a	n/a	0	0	0
1141845	REC_WORD	wordpools/wasnorm_wordpool_576.txt	LTP303	ltpFR2	19	6	CHEST	295	n/a	n/a	0	0	0
1142868	REC_WORD	wordpools/wasnorm_wordpool_576.txt	LTP303	ltpFR2	19	6	FLESH	579	n/a	n/a	0	0	0
1145286	REC_WORD	wordpools/wasnorm_wordpool_576.txt	LTP303	ltpFR2	19	6	KETCHUP	771	n/a	n/a	0	0	0
1147278	REC_WORD	wordpools/wasnorm_wordpool_576.txt	LTP303	ltpFR2	19	6	CLAMP	316	n/a	n/a	0	0	0
1148494	REC_WORD	wordpools/wasnorm_wordpool_576.txt	LTP303	ltpFR2	19	6	ARMY	39	n/a	n/a	0	0	0
1149719	REC_WORD	wordpools/wasnorm_wordpool_576.txt	LTP303	ltpFR2	19	6	BODY	145	n/a	n/a	0	0	0
1156287	REC_WORD	wordpools/wasnorm_wordpool_576.txt	LTP303	ltpFR2	19	6	STAKE	1368	n/a	n/a	0	0	0
1158830	REC_WORD	wordpools/wasnorm_wordpool_576.txt	LTP303	ltpFR2	19	6	LEOPARD	812	n/a	n/a	0	0	0
1159827	REC_WORD	wordpools/wasnorm_wordpool_576.txt	LTP303	ltpFR2	19	6	BISON	131	n/a	n/a	0	0	0
1169507	REC_WORD	wordpools/wasnorm_wordpool_576.txt	LTP303	ltpFR2	19	6	MARROW	872	n/a	n/a	0	0	0
1170725	REC_WORD	wordpools/wasnorm_wordpool_576.txt	LTP303	ltpFR2	19	6	BADGE	68	n/a	n/a	0	0	0
1171677	REC_WORD	wordpools/wasnorm_wordpool_576.txt	LTP303	ltpFR2	19	6	SUBWAY	1400	n/a	n/a	0	0	0
1174327	REC_WORD	wordpools/wasnorm_wordpool_576.txt	LTP303	ltpFR2	19	6	HERO	706	n/a	n/a	0	0	0
1175542	REC_WORD	wordpools/wasnorm_wordpool_576.txt	LTP303	ltpFR2	19	6	WITNESS	1618	n/a	n/a	0	0	0
1176691	REC_WORD	wordpools/wasnorm_wordpool_576.txt	LTP303	ltpFR2	19	6	JURY	766	n/a	n/a	0	0	0
1178889	REC_WORD	wordpools/wasnorm_wordpool_576.txt	LTP303	ltpFR2	19	6	CYCLONE	431	n/a	n/a	0	0	0
1181945	REC_WORD	wordpools/wasnorm_wordpool_576.txt	LTP303	ltpFR2	19	6	ZIPPER	1636	n/a	n/a	0	0	0
1221317	WORD	wordpools/wasnorm_wordpool_576.txt	LTP303	ltpFR2	19	7	MUMMY	932	n/a	n/a	0	0	0
1224038	WORD	wordpools/wasnorm_wordpool_576.txt	LTP303	ltpFR2	19	7	TURNIP	1521	n/a	n/a	0	0	0
1226493	WORD	wordpools/wasnorm_wordpool_576.txt	LTP303	ltpFR2	19	7	WARDROBE	1587	n/a	n/a	0	0	0
1228976	WORD	wordpools/wasnorm_wordpool_576.txt	LTP303	ltpFR2	19	7	LODGE	839	n/a	n/a	0	0	0
1231511	WORD	wordpools/wasnorm_wordpool_576.txt	LTP303	ltpFR2	19	7	CAPTIVE	240	n/a	n/a	0	0	0
1234297	WORD	wordpools/wasnorm_wordpool_576.txt	LTP303	ltpFR2	19	7	CRITIC	410	n/a	n/a	0	0	0
1236985	WORD	wordpools/wasnorm_wordpool_576.txt	LTP303	ltpFR2	19	7	SUPPER	1411	n/a	n/a	0	0	0
1239534	WORD	wordpools/wasnorm_wordpool_576.txt	LTP303	ltpFR2	19	7	DAUGHTER	442	n/a	n/a	0	0	0
1242306	WORD	wordpools/wasnorm_wordpool_576.txt	LTP303	ltpFR2	19	7	WINDOW	1611	n/a	n/a	0	0	0
1245089	WORD	wordpools/wasnorm_wordpool_576.txt	LTP303	ltpFR2	19	7	REPORT	1184	n/a	n/a	0	0	0
1247660	WORD	wordpools/wasnorm_wordpool_576.txt	LTP303	ltpFR2	19	7	GOBLIN	645	n/a	n/a	0	0	0
1250346	WORD	wordpools/wasnorm_wordpool_576.txt	LTP303	ltpFR2	19	7	SERVER	1272	n/a	n/a	0	0	0
1252847	WORD	wordpools/wasnorm_wordpool_576.txt	LTP303	ltpFR2	19	7	GLASS	639	n/a	n/a	0	0	0
1255616	WORD	wordpools/wasnorm_wordpool_576.txt	LTP303	ltpFR2	19	7	MEDAL	885	n/a	n/a	0	0	0
1258317	WORD	wordpools/wasnorm_wordpool_576.txt	LTP303	ltpFR2	19	7	GYMNAST	675	n/a	n/a	0	0	0
1260955	WORD	wordpools/wasnorm_wordpool_576.txt	LTP303	ltpFR2	19	7	SKETCH	1315	n/a	n/a	0	0	0
1263405	WORD	wordpools/wasnorm_wordpool_576.txt	LTP303	ltpFR2	19	7	SCULPTURE	1258	n/a	n/a	0	0	0
1266241	WORD	wordpools/wasnorm_wordpool_576.txt	LTP303	ltpFR2	19	7	MOTEL	919	n/a	n/a	0	0	0
1268895	WORD	wordpools/wasnorm_wordpool_576.txt	LTP303	ltpFR2	19	7	WHISKERS	1605	n/a	n/a	0	0	0
1271463	WORD	wordpools/wasnorm_wordpool_576.txt	LTP303	ltpFR2	19	7	BUREAU	199	n/a	n/a	0	0	0
1274181	WORD	wordpools/wasnorm_wordpool_576.txt	LTP303	ltpFR2	19	7	TRACTOR	1493	n/a	n/a	0	0	0
1276952	WORD	wordpools/wasnorm_wordpool_576.txt	LTP303	ltpFR2	19	7	LADY	794	n/a	n/a	0	0	0
1279585	WORD	wordpools/wasnorm_wordpool_576.txt	LTP303	ltpFR2	19	7	WOMAN	1620	n/a	n/a	0	0	0
1282054	WORD	wordpools/wasnorm_wordpool_576.txt	LTP303	ltpFR2	19	7	WAITER	1580	n/a	n/a	0	0	0
1283674	START	n/a	LTP303	ltpFR2	19	n/a	n/a	n/a	11	n/a	n/a	n/a	n/a
1284558	DISTRACTOR	n/a	LTP303	ltpFR2	19	7	n/a	n/a	n/a	n/a	0	0	0
1284573	PROB	n/a	LTP303	ltpFR2	19	n/a	n/a	n/a	11	13	1	3	9
1286590	PROB	n/a	LTP303	ltpFR2	19	n/a	n/a	n/a	11	22	6	8	8
1288459	PROB	n/a	LTP303	ltpFR2	19	n/a	n/a	n/a	11	4	2	1	1
1289393	PROB	n/a	LTP303	ltpFR2	19	n/a	n/a	n/a	11	20	7	4	9
1291027	PROB	n/a	LTP303	ltpFR2	19	n/a	n/a	n/a	11	19	5	9	5
1292645	PROB	n/a	LTP303	ltpFR2	19	n/a	n/a	n/a	11	19	8	4	7
1295313	PROB	n/a	LTP303	ltpFR2	19	n/a	n/a	n/a	11	15	7	3	5
1296516	PROB	n/a	LTP303	ltpFR2	19	n/a	n/a	n/a	11	12	9	2	1
1298082	PROB	n/a	LTP303	ltpFR2	19	n/a	n/a	n/a	11	14	8	5	1
1299684	PROB	n/a	LTP303	ltpFR2	19	n/a	n/a	n/a	11	16	7	4	5
1301552	PROB	n/a	LTP303	ltpFR2	19	n/a	n/a	n/a	11	14	2	3	9
1303255	PROB	n/a	LTP303	ltpFR2	19	n/a	n/a	n/a	11	16	4	9	3
1304657	PROB	n/a	LTP303	ltpFR2	19	n/a	n/a	n/a	11	18	8	3	7
1307674	STOP	n/a	LTP303	ltpFR2	19	n/a	n/a	n/a	11	n/a	n/a	n/a	n/a
1309425	REC_START	n/a	LTP303	ltpFR2	19	7	n/a	n/a	n/a	n/a	0	0	0
1314141	REC_WORD	wordpools/wasnorm_wordpool_576.txt	LTP303	ltpFR2	19	7	MUMMY	932	n/a	n/a	0	0	0
1318775	REC_WORD	wordpools/wasnorm_wordpool_576.txt	LTP303	ltpFR2	19	7	TURNIP	1521	n/a	n/a	0	0	0
1320300	REC_WORD	wordpools/wasnorm_wordpool_576.txt	LTP303	ltpFR2	19	7	WARDROBE	1587	n/a	n/a	0	0	0
1321682	REC_WORD	wordpools/wasnorm_wordpool_576.txt	LTP303	ltpFR2	19	7	LODGE	839	n/a	n/a	0	0	0
1325460	REC_WORD	wordpools/wasnorm_wordpool_576.txt	LTP303	ltpFR2	19	7	CAPTIVE	240	n/a	n/a	0	0	0
1326718	REC_WORD	wordpools/wasnorm_wordpool_576.txt	LTP303	ltpFR2	19	7	CRITIC	410	n/a	n/a	0	0	0
1327879	REC_WORD_VV	wordpools/wasnorm_wordpool_576.txt	LTP303	ltpFR2	19	7	<>	-1	n/a	n/a	0	0	0
1329509	REC_WORD	wordpools/wasnorm_wordpool_576.txt	LTP303	ltpFR2	19	7	DAUGHTER	442	n/a	n/a	0	0	0
1331987	REC_WORD	wordpools/wasnorm_wordpool_576.txt	LTP303	ltpFR2	19	7	SUPPER	1411	n/a	n/a	0	0	0
1335094	REC_WORD	wordpools/wasnorm_wordpool_576.txt	LTP303	ltpFR2	19	7	WINDOW	1611	n/a	n/a	0	0	0
1339610	REC_WORD	wordpools/wasnorm_wordpool_576.txt	LTP303	ltpFR2	19	7	REPORT	1184	n/a	n/a	0	0	0
1340887	REC_WORD	wordpools/wasnorm_wordpool_576.txt	LTP303	ltpFR2	19	7	GOBLIN	645	n/a	n/a	0	0	0
1344992	REC_WORD	wordpools/wasnorm_wordpool_576.txt	LTP303	ltpFR2	19	7	SERVER	1272	n/a	n/a	0	0	0
1346810	REC_WORD	wordpools/wasnorm_wordpool_576.txt	LTP303	ltpFR2	19	7	GLASS	639	n/a	n/a	0	0	0
1348151	REC_WORD	wordpools/wasnorm_wordpool_576.txt	LTP303	ltpFR2	19	7	MEDAL	885	n/a	n/a	0	0	0
1354634	REC_WORD	wordpools/wasnorm_wordpool_576.txt	LTP303	ltpFR2	19	7	MOTEL	919	n/a	n/a	0	0	0
1356099	REC_WORD	wordpools/wasnorm_wordpool_576.txt	LTP303	ltpFR2	19	7	BUREAU	199	n/a	n/a	0	0	0
1358479	REC_WORD	wordpools/wasnorm_wordpool_576.txt	LTP303	ltpFR2	19	7	TRACTOR	1493	n/a	n/a	0	0	0
1359752	REC_WORD	wordpools/wasnorm_wordpool_576.txt	LTP303	ltpFR2	19	7	LADY	794	n/a	n/a	0	0	0
1361037	REC_WORD	wordpools/wasnorm_wordpool_576.txt	LTP303	ltpFR2	19	7	WOMAN	1620	n/a	n/a	0	0	0
1363860	REC_WORD	wordpools/wasnorm_wordpool_576.txt	LTP303	ltpFR2	19	7	WHISKERS	1605	n/a	n/a	0	0	0
1371401	REC_WORD	wordpools/wasnorm_wordpool_576.txt	LTP303	ltpFR2	19	7	WAITER	1580	n/a	n/a	0	0	0
1399860	DISTRACTOR	n/a	LTP303	ltpFR2	19	8	n/a	n/a	n/a	n/a	0	0	0
1399860	START	n/a	LTP303	ltpFR2	19	n/a	n/a	n/a	12	n/a	n/a	n/a	n/a
1399875	PROB	n/a	LTP303	ltpFR2	19	n/a	n/a	n/a	12	21	4	8	9
1401350	PROB	n/a	LTP303	ltpFR2	19	n/a	n/a	n/a	12	18	8	3	7
1402668	PROB	n/a	LTP303	ltpFR2	19	n/a	n/a	n/a	12	19	8	4	7
1405838	PROB	n/a	LTP303	ltpFR2	19	n/a	n/a	n/a	12	21	9	5	7
1407740	PROB	n/a	LTP303	ltpFR2	19	n/a	n/a	n/a	12	19	5	6	8
1409206	PROB	n/a	LTP303	ltpFR2	19	n/a	n/a	n/a	12	22	7	9	6
1411242	PROB	n/a	LTP303	ltpFR2	19	n/a	n/a	n/a	12	15	2	7	6
1412625	PROB	n/a	LTP303	ltpFR2	19	n/a	n/a	n/a	12	15	5	3	7
1414493	PROB	n/a	LTP303	ltpFR2	19	n/a	n/a	n/a	12	23	7	8	8
1417064	PROB	n/a	LTP303	ltpFR2	19	n/a	n/a	n/a	12	26	9	8	9
1419597	PROB	n/a	LTP303	ltpFR2	19	n/a	n/a	n/a	12	18	8	3	7
1421248	PROB	n/a	LTP303	ltpFR2	19	n/a	n/a	n/a	12	13	8	3	2
1422642	STOP	n/a	LTP303	ltpFR2	19	n/a	n/a	n/a	12	n/a	n/a	n/a	n/a
1425014	WORD	wordpools/wasnorm_wordpool_576.txt	LTP303	ltpFR2	19	8	FIREPLACE	570	n/a	n/a	0	0	0
1427432	WORD	wordpools/wasnorm_wordpool_576.txt	LTP303	ltpFR2	19	8	QUARTER	1148	n/a	n/a	0	0	0
1429952	WORD	wordpools/wasnorm_wordpool_576.txt	LTP303	ltpFR2	19	8	BURGLAR	200	n/a	n/a	0	0	0
1432688	WORD	wordpools/wasnorm_wordpool_576.txt	LTP303	ltpFR2	19	8	PREACHER	1119	n/a	n/a	0	0	0
1435239	WORD	wordpools/wasnorm_wordpool_576.txt	LTP303	ltpFR2	19	8	IDOL	733	n/a	n/a	0	0	0
1437914	WORD	wordpools/wasnorm_wordpool_576.txt	LTP303	ltpFR2	19	8	MARINE	869	n/a	n/a	0	0	0
1440560	WORD	wordpools/wasnorm_wordpool_576.txt	LTP303	ltpFR2	19	8	NAPKIN	937	n/a	n/a	0	0	0
1443280	WORD	wordpools/wasnorm_wordpool_576.txt	LTP303	ltpFR2	19	8	MUFFIN	929	n/a	n/a	0	0	0
1445866	WORD	wordpools/wasnorm_wordpool_576.txt	LTP303	ltpFR2	19	8	BEEF	113	n/a	n/a	0	0	0
1448518	WORD	wordpools/wasnorm_wordpool_576.txt	LTP303	ltpFR2	19	8	DANCER	437	n/a	n/a	0	0	0
1451153	WORD	wordpools/wasnorm_wordpool_576.txt	LTP303	ltpFR2	19	8	DRESS	495	n/a	n/a	0	0	0
1453706	WORD	wordpools/wasnorm_wordpool_576.txt	LTP303	ltpFR2	19	8	DAISY	435	n/a	n/a	0	0	0
1456274	WORD	wordpools/wasnorm_wordpool_576.txt	LTP303	ltpFR2	19	8	PLAYGROUND	1087	n/a	n/a	0	0	0
1458781	WORD	wordpools/wasnorm_wordpool_576.txt	LTP303	ltpFR2	19	8	RELISH	1183	n/a	n/a	0	0	0
1461462	WORD	wordpools/wasnorm_wordpool_576.txt	LTP303	ltpFR2	19	8	TERMITE	1451	n/a	n/a	0	0	0
1464098	WORD	wordpools/wasnorm_wordpool_576.txt	LTP303	ltpFR2	19	8	HIKER	708	n/a	n/a	0	0	0
1466718	WORD	wordpools/wasnorm_wordpool_576.txt	LTP303	ltpFR2	19	8	CANYON	235	n/a	n/a	0	0	0
1469405	WORD	wordpools/wasnorm_wordpool_576.txt	LTP303	ltpFR2	19	8	THREAD	1460	n/a	n/a	0	0	0
1471892	WORD	wordpools/wasnorm_wordpool_576.txt	LTP303	ltpFR2	19	8	SLIDE	1326	n/a	n/a	0	0	0
1474407	WORD	wordpools/wasnorm_wordpool_576.txt	LTP303	ltpFR2	19	8	DIME	466	n/a	n/a	0	0	0
1477108	WORD	wordpools/wasnorm_wordpool_576.txt	LTP303	ltpFR2	19	8	BRIEFCASE	175	n/a	n/a	0	0	0
1479879	WORD	wordpools/wasnorm_wordpool_576.txt	LTP303	ltpFR2	19	8	ZEBRA	1635	n/a	n/a	0	0	0
1482330	WORD	wordpools/wasnorm_wordpool_576.txt	LTP303	ltpFR2	19	8	BUGGY	188	n/a	n/a	0	0	0
1484883	WORD	wordpools/wasnorm_wordpool_576.txt	LTP303	ltpFR2	19	8	HONEY	713	n/a	n/a	0	0	0
1486501	START	n/a	LTP303	ltpFR2	19	n/a	n/a	n/a	13	n/a	n/a	n/a	n/a
1487511	DISTRACTOR	n/a	LTP303	ltpFR2	19	8	n/a	n/a	n/a	n/a	0	0	0
1487518	PROB	n/a	LTP303	ltpFR2	19	n/a	n/a	n/a	13	20	7	4	9
1489387	PROB	n/a	LTP303	ltpFR2	19	n/a	n/a	n/a	13	15	7	4	4
1490990	PROB	n/a	LTP303	ltpFR2	19	n/a	n/a	n/a	13	17	5	9	3
1492675	PROB	n/a	LTP303	ltpFR2	19	n/a	n/a	n/a	13	18	3	9	6
1494423	PROB	n/a	LTP303	ltpFR2	19	n/a	n/a	n/a	13	19	5	6	8
1496344	PROB	n/a	LTP303	ltpFR2	19	n/a	n/a	n/a	13	13	6	1	6
1498027	PROB	n/a	LTP303	ltpFR2	19	n/a	n/a	n/a	13	15	8	1	6
1499196	PROB	n/a	LTP303	ltpFR2	19	n/a	n/a	n/a	13	9	6	1	2
1500530	PROB	n/a	LTP303	ltpFR2	19	n/a	n/a	n/a	13	6	3	2	1
1502031	PROB	n/a	LTP303	ltpFR2	19	n/a	n/a	n/a	13	18	1	9	8
1503333	PROB	n/a	LTP303	ltpFR2	19	n/a	n/a	n/a	13	13	5	3	5
1504532	PROB	n/a	LTP303	ltpFR2	19	n/a	n/a	n/a	13	21	8	5	8
1505901	PROB	n/a	LTP303	ltpFR2	19	n/a	n/a	n/a	13	13	4	7	2
1507352	PROB	n/a	LTP303	ltpFR2	19	n/a	n/a	n/a	13	23	9	5	8
1510237	STOP	n/a	LTP303	ltpFR2	19	n/a	n/a	n/a	13	n/a	n/a	n/a	n/a
1512439	REC_START	n/a	LTP303	ltpFR2	19	8	n/a	n/a	n/a	n/a	0	0	0
1513123	REC_WORD	wordpools/wasnorm_wordpool_576.txt	LTP303	ltpFR2	19	8	FIREPLACE	570	n/a	n/a	0	0	0
1514494	REC_WORD	wordpools/wasnorm_wordpool_576.txt	LTP303	ltpFR2	19	8	QUARTER	1148	n/a	n/a	0	0	0
1516401	REC_WORD	wordpools/wasnorm_wordpool_576.txt	LTP303	ltpFR2	19	8	BURGLAR	200	n/a	n/a	0	0	0
1518907	REC_WORD	wordpools/wasnorm_wordpool_576.txt	LTP303	ltpFR2	19	8	PREACHER	1119	n/a	n/a	0	0	0
1520871	REC_WORD	wordpools/wasnorm_wordpool_576.txt	LTP303	ltpFR2	19	8	IDOL	733	n/a	n/a	0	0	0
1522093	REC_WORD	wordpools/wasnorm_wordpool_576.txt	LTP303	ltpFR2	19	8	MARINE	869	n/a	n/a	0	0	0
1524121	REC_WORD	wordpools/wasnorm_wordpool_576.txt	LTP303	ltpFR2	19	8	NAPKIN	937	n/a	n/a	0	0	0
1525238	REC_WORD	wordpools/wasnorm_wordpool_576.txt	LTP303	ltpFR2	19	8	MUFFIN	929	n/a	n/a	0	0	0
1526399	REC_WORD	wordpools/wasnorm_wordpool_576.txt	LTP303	ltpFR2	19	8	BEEF	113	n/a	n/a	0	0	0
1529319	REC_WORD	wordpools/wasnorm_wordpool_576.txt	LTP303	ltpFR2	19	8	PLAYGROUND	1087	n/a	n/a	0	0	0
1530472	REC_WORD	wordpools/wasnorm_wordpool_576.txt	LTP303	ltpFR2	19	8	RELISH	1183	n/a	n/a	0	0	0
1540085	REC_WORD	wordpools/wasnorm_wordpool_576.txt	LTP303	ltpFR2	19	8	DANCER	437	n/a	n/a	0	0	0
1541152	REC_WORD	wordpools/wasnorm_wordpool_576.txt	LTP303	ltpFR2	19	8	DRESS	495	n/a	n/a	0	0	0
1544495	REC_WORD	wordpools/wasnorm_wordpool_576.txt	LTP303	ltpFR2	19	8	SLIDE	1326	n/a	n/a	0	0	0
1545533	REC_WORD	wordpools/wasnorm_wordpool_576.txt	LTP303	ltpFR2	19	8	TERMITE	1451	n/a	n/a	0	0	0
1546478	REC_WORD	wordpools/wasnorm_wordpool_576.txt	LTP303	ltpFR2	19	8	HIKER	708	n/a	n/a	0	0	0
1547420	REC_WORD	wordpools/wasnorm_wordpool_576.txt	LTP303	ltpFR2	19	8	CANYON	235	n/a	n/a	0	0	0
1548458	REC_WORD	wordpools/wasnorm_wordpool_576.txt	LTP303	ltpFR2	19	8	THREAD	1460	n/a	n/a	0	0	0
1552659	REC_WORD	wordpools/wasnorm_wordpool_576.txt	LTP303	ltpFR2	19	8	DIME	466	n/a	n/a	0	0	0
1554127	REC_WORD	wordpools/wasnorm_wordpool_576.txt	LTP303	ltpFR2	19	8	BRIEFCASE	175	n/a	n/a	0	0	0
1556375	REC_WORD	wordpools/wasnorm_wordpool_576.txt	LTP303	ltpFR2	19	8	BUGGY	188	n/a	n/a	0	0	0
1557339	REC_WORD	wordpools/wasnorm_wordpool_576.txt	LTP303	ltpFR2	19	8	HONEY	713	n/a	n/a	0	0	0
1588974	REST_REWET	n/a	LTP303	ltpFR2	19	8	n/a	n/a	n/a	n/a	0	0	0
1791163	WORD	wordpools/wasnorm_wordpool_576.txt	LTP303	ltpFR2	19	9	EXPERT	543	n/a	n/a	0	0	0
1793951	WORD	wordpools/wasnorm_wordpool_576.txt	LTP303	ltpFR2	19	9	HEDGE	699	n/a	n/a	0	0	0
1796740	WORD	wordpools/wasnorm_wordpool_576.txt	LTP303	ltpFR2	19	9	SPACE	1345	n/a	n/a	0	0	0
1799522	WORD	wordpools/wasnorm_wordpool_576.txt	LTP303	ltpFR2	19	9	AUTHOR	61	n/a	n/a	0	0	0
1802091	WORD	wordpools/wasnorm_wordpool_576.txt	LTP303	ltpFR2	19	9	BINDER	127	n/a	n/a	0	0	0
1804509	WORD	wordpools/wasnorm_wordpool_576.txt	LTP303	ltpFR2	19	9	STREAM	1392	n/a	n/a	0	0	0
1806965	WORD	wordpools/wasnorm_wordpool_576.txt	LTP303	ltpFR2	19	9	PUDDLE	1140	n/a	n/a	0	0	0
1809664	WORD	wordpools/wasnorm_wordpool_576.txt	LTP303	ltpFR2	19	9	PISTOL	1075	n/a	n/a	0	0	0
1812165	WORD	wordpools/wasnorm_wordpool_576.txt	LTP303	ltpFR2	19	9	VIRUS	1572	n/a	n/a	0	0	0
1814634	WORD	wordpools/wasnorm_wordpool_576.txt	LTP303	ltpFR2	19	9	PATIENT	1024	n/a	n/a	0	0	0
1817407	WORD	wordpools/wasnorm_wordpool_576.txt	LTP303	ltpFR2	19	9	BUG	187	n/a	n/a	0	0	0
1819921	WORD	wordpools/wasnorm_wordpool_576.txt	LTP303	ltpFR2	19	9	BRANDY	169	n/a	n/a	0	0	0
1822658	WORD	wordpools/wasnorm_wordpool_576.txt	LTP303	ltpFR2	19	9	SNAIL	1332	n/a	n/a	0	0	0
1825125	WORD	wordpools/wasnorm_wordpool_576.txt	LTP303	ltpFR2	19	9	BATHTUB	100	n/a	n/a	0	0	0
1827879	WORD	wordpools/wasnorm_wordpool_576.txt	LTP303	ltpFR2	19	9	LAKE	796	n/a	n/a	0	0	0
1830513	WORD	wordpools/wasnorm_wordpool_576.txt	LTP303	ltpFR2	19	9	FRUIT	610	n/a	n/a	0	0	0
1832938	WORD	wordpools/wasnorm_wordpool_576.txt	LTP303	ltpFR2	19	9	CONTRACT	368	n/a	n/a	0	0	0
1835539	WORD	wordpools/wasnorm_wordpool_576.txt	LTP303	ltpFR2	19	9	CURTAIN	427	n/a	n/a	0	0	0
1838136	WORD	wordpools/wasnorm_wordpool_576.txt	LTP303	ltpFR2	19	9	FLASK	576	n/a	n/a	0	0	0
1840755	WORD	wordpools/wasnorm_wordpool_576.txt	LTP303	ltpFR2	19	9	TEACHER	1440	n/a	n/a	0	0	0
1843423	WORD	wordpools/wasnorm_wordpool_576.txt	LTP303	ltpFR2	19	9	SPIDER	1351	n/a	n/a	0	0	0
1845966	WORD	wordpools/wasnorm_wordpool_576.txt	LTP303	ltpFR2	19	9	WASHER	1592	n/a	n/a	0	0	0
1848578	WORD	wordpools/wasnorm_wordpool_576.txt	LTP303	ltpFR2	19	9	DINER	467	n/a	n/a	0	0	0
1851363	WORD	wordpools/wasnorm_wordpool_576.txt	LTP303	ltpFR2	19	9	CATTLE	261	n/a	n/a	0	0	0
1852973	START	n/a	LTP303	ltpFR2	19	n/a	n/a	n/a	14	n/a	n/a	n/a	n/a
1853924	DISTRACTOR	n/a	LTP303	ltpFR2	19	9	n/a	n/a	n/a	n/a	0	0	0
1853933	PROB	n/a	LTP303	ltpFR2	19	n/a	n/a	n/a	14	13	4	6	3
1855716	PROB	n/a	LTP303	ltpFR2	19	n/a	n/a	n/a	14	19	9	8	2
1857033	PROB	n/a	LTP303	ltpFR2	19	n/a	n/a	n/a	14	18	8	3	7
1858285	PROB	n/a	LTP303	ltpFR2	19	n/a	n/a	n/a	14	15	5	3	7
1859870	PROB	n/a	LTP303	ltpFR2	19	n/a	n/a	n/a	14	7	4	1	2
1860921	PROB	n/a	LTP303	ltpFR2	19	n/a	n/a	n/a	14	21	7	8	6
1862387	PROB	n/a	LTP303	ltpFR2	19	n/a	n/a	n/a	14	14	5	5	4
1863355	PROB	n/a	LTP303	ltpFR2	19	n/a	n/a	n/a	14	16	4	7	5
1865174	PROB	n/a	LTP303	ltpFR2	19	n/a	n/a	n/a	14	12	3	7	2
1866341	PROB	n/a	LTP303	ltpFR2	19	n/a	n/a	n/a	14	17	8	8	1
1867491	PROB	n/a	LTP303	ltpFR2	19	n/a	n/a	n/a	14	15	7	1	7
1868643	PROB	n/a	LTP303	ltpFR2	19	n/a	n/a	n/a	14	18	9	1	8
1870094	PROB	n/a	LTP303	ltpFR2	19	n/a	n/a	n/a	14	17	6	7	4
1872530	PROB	n/a	LTP303	ltpFR2	19	n/a	n/a	n/a	14	12	2	1	9
1873563	PROB	n/a	LTP303	ltpFR2	19	n/a	n/a	n/a	14	8	3	1	4
1875233	PROB	n/a	LTP303	ltpFR2	19	n/a	n/a	n/a	14	17	6	5	6
1876541	STOP	n/a	LTP303	ltpFR2	19	n/a	n/a	n/a	14	n/a	n/a	n/a	n/a
1878752	REC_START	n/a	LTP303	ltpFR2	19	9	n/a	n/a	n/a	n/a	0	0	0
1881166	REC_WORD	wordpools/wasnorm_wordpool_576.txt	LTP303	ltpFR2	19	9	EXPERT	543	n/a	n/a	0	0	0
1882252	REC_WORD	wordpools/wasnorm_wordpool_576.txt	LTP303	ltpFR2	19	9	HEDGE	699	n/a	n/a	0	0	0
1883380	REC_WORD	wordpools/wasnorm_wordpool_576.txt	LTP303	ltpFR2	19	9	SPACE	1345	n/a	n/a	0	0	0
1884702	REC_WORD	wordpools/wasnorm_wordpool_576.txt	LTP303	ltpFR2	19	9	AUTHOR	61	n/a	n/a	0	0	0
1885862	REC_WORD	wordpools/wasnorm_wordpool_576.txt	LTP303	ltpFR2	19	9	BINDER	127	n/a	n/a	0	0	0
1886955	REC_WORD	wordpools/wasnorm_wordpool_576.txt	LTP303	ltpFR2	19	9	STREAM	1392	n/a	n/a	0	0	0
1889247	REC_WORD	wordpools/wasnorm_wordpool_576.txt	LTP303	ltpFR2	19	9	PUDDLE	1140	n/a	n/a	0	0	0
1895250	REC_WORD	wordpools/wasnorm_wordpool_576.txt	LTP303	ltpFR2	19	9	PISTOL	1075	n/a	n/a	0	0	0
1898662	REC_WORD	wordpools/wasnorm_wordpool_576.txt	LTP303	ltpFR2	19	9	PATIENT	1024	n/a	n/a	0	0	0
1902519	REC_WORD	wordpools/wasnorm_wordpool_576.txt	LTP303	ltpFR2	19	9	VIRUS	1572	n/a	n/a	0	0	0
1905333	REC_WORD	wordpools/wasnorm_wordpool_576.txt	LTP303	ltpFR2	19	9	BUG	187	n/a	n/a	0	0	0
1906630	REC_WORD	wordpools/wasnorm_wordpool_576.txt	LTP303	ltpFR2	19	9	BRANDY	169	n/a	n/a	0	0	0
1907934	REC_WORD	wordpools/wasnorm_wordpool_576.txt	LTP303	ltpFR2	19	9	BATHTUB	100	n/a	n/a	0	0	0
1909021	REC_WORD	wordpools/wasnorm_wordpool_576.txt	LTP303	ltpFR2	19	9	SNAIL	1332	n/a	n/a	0	0	0
1910570	REC_WORD	wordpools/wasnorm_wordpool_576.txt	LTP303	ltpFR2	19	9	LAKE	796	n/a	n/a	0	0	0
1911526	REC_WORD	wordpools/wasnorm_wordpool_576.txt	LTP303	ltpFR2	19	9	FRUIT	610	n/a	n/a	0	0	0
1912781	REC_WORD	wordpools/wasnorm_wordpool_576.txt	LTP303	ltpFR2	19	9	CONTRACT	368	n/a	n/a	0	0	0
1914057	REC_WORD	wordpools/wasnorm_wordpool_576.txt	LTP303	ltpFR2	19	9	CURTAIN	427	n/a	n/a	0	0	0
1915212	REC_WORD	wordpools/wasnorm_wordpool_576.txt	LTP303	ltpFR2	19	9	TEACHER	1440	n/a	n/a	0	0	0
1916314	REC_WORD	wordpools/wasnorm_wordpool_576.txt	LTP303	ltpFR2	19	9	FLASK	576	n/a	n/a	0	0	0
1921133	REC_WORD	wordpools/wasnorm_wordpool_576.txt	LTP303	ltpFR2	19	9	SPIDER	1351	n/a	n/a	0	0	0
1922428	REC_WORD	wordpools/wasnorm_wordpool_576.txt	LTP303	ltpFR2	19	9	CATTLE	261	n/a	n/a	0	0	0
1969206	DISTRACTOR	n/a	LTP303	ltpFR2	19	10	n/a	n/a	n/a	n/a	0	0	0
1969207	START	n/a	LTP303	ltpFR2	19	n/a	n/a	n/a	15	n/a	n/a	n/a	n/a
1969225	PROB	n/a	LTP303	ltpFR2	19	n/a	n/a	n/a	15	19	6	4	9
1970842	PROB	n/a	LTP303	ltpFR2	19	n/a	n/a	n/a	15	15	2	4	9
1973010	PROB	n/a	LTP303	ltpFR2	19	n/a	n/a	n/a	15	8	6	1	1
1974344	PROB	n/a	LTP303	ltpFR2	19	n/a	n/a	n/a	15	14	5	6	3
1975981	PROB	n/a	LTP303	ltpFR2	19	n/a	n/a	n/a	15	13	8	4	1
1977882	PROB	n/a	LTP303	ltpFR2	19	n/a	n/a	n/a	15	15	4	5	6
1979482	PROB	n/a	LTP303	ltpFR2	19	n/a	n/a	n/a	15	20	2	9	9
1981049	PROB	n/a	LTP303	ltpFR2	19	n/a	n/a	n/a	15	19	7	9	3
1982436	PROB	n/a	LTP303	ltpFR2	19	n/a	n/a	n/a	15	22	7	7	8
1984654	PROB	n/a	LTP303	ltpFR2	19	n/a	n/a	n/a	15	21	8	5	8
1986054	PROB	n/a	LTP303	ltpFR2	19	n/a	n/a	n/a	15	21	4	9	8
1987891	PROB	n/a	LTP303	ltpFR2	19	n/a	n/a	n/a	15	10	2	4	4
1989173	PROB	n/a	LTP303	ltpFR2	19	n/a	n/a	n/a	15	21	5	8	8
1990558	PROB	n/a	LTP303	ltpFR2	19	n/a	n/a	n/a	15	18	9	5	4
1991987	STOP	n/a	LTP303	ltpFR2	19	n/a	n/a	n/a	15	n/a	n/a	n/a	n/a
1994111	WORD	wordpools/wasnorm_wordpool_576.txt	LTP303	ltpFR2	19	10	SHOVEL	1295	n/a	n/a	0	0	0
1996563	WORD	wordpools/wasnorm_wordpool_576.txt	LTP303	ltpFR2	19	10	RABBIT	1152	n/a	n/a	0	0	0
1999082	WORD	wordpools/wasnorm_wordpool_576.txt	LTP303	ltpFR2	19	10	DUST	508	n/a	n/a	0	0	0
2001852	WORD	wordpools/wasnorm_wordpool_576.txt	LTP303	ltpFR2	19	10	SPONGE	1355	n/a	n/a	0	0	0
2004437	WORD	wordpools/wasnorm_wordpool_576.txt	LTP303	ltpFR2	19	10	ARM	38	n/a	n/a	0	0	0
2007256	WORD	wordpools/wasnorm_wordpool_576.txt	LTP303	ltpFR2	19	10	STAMP	1370	n/a	n/a	0	0	0
2009825	WORD	wordpools/wasnorm_wordpool_576.txt	LTP303	ltpFR2	19	10	GARDEN	623	n/a	n/a	0	0	0
2012509	WORD	wordpools/wasnorm_wordpool_576.txt	LTP303	ltpFR2	19	10	CLOTHES	327	n/a	n/a	0	0	0
2015212	WORD	wordpools/wasnorm_wordpool_576.txt	LTP303	ltpFR2	19	10	LAVA	804	n/a	n/a	0	0	0
2017698	WORD	wordpools/wasnorm_wordpool_576.txt	LTP303	ltpFR2	19	10	GLOVE	642	n/a	n/a	0	0	0
2020149	WORD	wordpools/wasnorm_wordpool_576.txt	LTP303	ltpFR2	19	10	RIVER	1194	n/a	n/a	0	0	0
2022936	WORD	wordpools/wasnorm_wordpool_576.txt	LTP303	ltpFR2	19	10	MILDEW	893	n/a	n/a	0	0	0
2025589	WORD	wordpools/wasnorm_wordpool_576.txt	LTP303	ltpFR2	19	10	CLOCK	325	n/a	n/a	0	0	0
2028056	WORD	wordpools/wasnorm_wordpool_576.txt	LTP303	ltpFR2	19	10	GUARD	667	n/a	n/a	0	0	0
2030809	WORD	wordpools/wasnorm_wordpool_576.txt	LTP303	ltpFR2	19	10	FRECKLE	602	n/a	n/a	0	0	0
2033580	WORD	wordpools/wasnorm_wordpool_576.txt	LTP303	ltpFR2	19	10	FOREHEAD	592	n/a	n/a	0	0	0
2036146	WORD	wordpools/wasnorm_wordpool_576.txt	LTP303	ltpFR2	19	10	CARROT	249	n/a	n/a	0	0	0
2038768	WORD	wordpools/wasnorm_wordpool_576.txt	LTP303	ltpFR2	19	10	MASK	876	n/a	n/a	0	0	0
2041300	WORD	wordpools/wasnorm_wordpool_576.txt	LTP303	ltpFR2	19	10	PEPPER	1047	n/a	n/a	0	0	0
2043802	WORD	wordpools/wasnorm_wordpool_576.txt	LTP303	ltpFR2	19	10	CREATURE	403	n/a	n/a	0	0	0
2046541	WORD	wordpools/wasnorm_wordpool_576.txt	LTP303	ltpFR2	19	10	MONSTER	912	n/a	n/a	0	0	0
2049160	WORD	wordpools/wasnorm_wordpool_576.txt	LTP303	ltpFR2	19	10	VALLEY	1545	n/a	n/a	0	0	0
2051809	WORD	wordpools/wasnorm_wordpool_576.txt	LTP303	ltpFR2	19	10	KIDNEY	776	n/a	n/a	0	0	0
2054277	WORD	wordpools/wasnorm_wordpool_576.txt	LTP303	ltpFR2	19	10	COMPASS	358	n/a	n/a	0	0	0
2055884	START	n/a	LTP303	ltpFR2	19	n/a	n/a	n/a	16	n/a	n/a	n/a	n/a
2057052	DISTRACTOR	n/a	LTP303	ltpFR2	19	10	n/a	n/a	n/a	n/a	0	0	0
2057062	PROB	n/a	LTP303	ltpFR2	19	n/a	n/a	n/a	16	16	2	7	7
2059699	PROB	n/a	LTP303	ltpFR2	19	n/a	n/a	n/a	16	21	7	8	5
2062265	PROB	n/a	LTP303	ltpFR2	19	n/a	n/a	n/a	16	18	7	3	8
2063768	PROB	n/a	LTP303	ltpFR2	19	n/a	n/a	n/a	16	17	1	8	8
2065002	PROB	n/a	LTP303	ltpFR2	19	n/a	n/a	n/a	16	15	4	4	7
2067103	PROB	n/a	LTP303	ltpFR2	19	n/a	n/a	n/a	16	13	4	6	3
2069021	PROB	n/a	LTP303	ltpFR2	19	n/a	n/a	n/a	16	16	9	3	4
2071240	PROB	n/a	LTP303	ltpFR2	19	n/a	n/a	n/a	16	22	9	4	9
2072841	PROB	n/a	LTP303	ltpFR2	19	n/a	n/a	n/a	16	8	2	2	4
2074092	PROB	n/a	LTP303	ltpFR2	19	n/a	n/a	n/a	16	12	5	1	6
2075060	PROB	n/a	LTP303	ltpFR2	19	n/a	n/a	n/a	16	18	2	9	7
2076393	PROB	n/a	LTP303	ltpFR2	19	n/a	n/a	n/a	16	17	5	7	5
2077529	PROB	n/a	LTP303	ltpFR2	19	n/a	n/a	n/a	16	16	4	9	3
2078678	STOP	n/a	LTP303	ltpFR2	19	n/a	n/a	n/a	16	n/a	n/a	n/a	n/a
2081799	REC_START	n/a	LTP303	ltpFR2	19	10	n/a	n/a	n/a	n/a	0	0	0
2089960	REC_WORD	wordpools/wasnorm_wordpool_576.txt	LTP303	ltpFR2	19	10	SHOVEL	1295	n/a	n/a	0	0	0
2091153	REC_WORD	wordpools/wasnorm_wordpool_576.txt	LTP303	ltpFR2	19	10	BUNNY	198	n/a	n/a	0	0	0
2092413	REC_WORD	wordpools/wasnorm_wordpool_576.txt	LTP303	ltpFR2	19	10	DUST	508	n/a	n/a	0	0	0
2093405	REC_WORD	wordpools/wasnorm_wordpool_576.txt	LTP303	ltpFR2	19	10	SPONGE	1355	n/a	n/a	0	0	0
2094669	REC_WORD	wordpools/wasnorm_wordpool_576.txt	LTP303	ltpFR2	19	10	ARM	38	n/a	n/a	0	0	0
2098351	REC_WORD	wordpools/wasnorm_wordpool_576.txt	LTP303	ltpFR2	19	10	STAMP	1370	n/a	n/a	0	0	0
2099634	REC_WORD	wordpools/wasnorm_wordpool_576.txt	LTP303	ltpFR2	19	10	GARDEN	623	n/a	n/a	0	0	0
2100689	REC_WORD	wordpools/wasnorm_wordpool_576.txt	LTP303	ltpFR2	19	10	LAVA	804	n/a	n/a	0	0	0
2105117	REC_WORD	wordpools/wasnorm_wordpool_576.txt	LTP303	ltpFR2	19	10	GLOVE	642	n/a	n/a	0	0	0
2106382	REC_WORD	wordpools/wasnorm_wordpool_576.txt	LTP303	ltpFR2	19	10	RIVER	1194	n/a	n/a	0	0	0
2109281	REC_WORD	wordpools/wasnorm_wordpool_576.txt	LTP303	ltpFR2	19	10	CLOCK	325	n/a	n/a	0	0	0
2110429	REC_WORD	wordpools/wasnorm_wordpool_576.txt	LTP303	ltpFR2	19	10	GUARD	667	n/a	n/a	0	0	0
2111645	REC_WORD	wordpools/wasnorm_wordpool_576.txt	LTP303	ltpFR2	19	10	FRECKLE	602	n/a	n/a	0	0	0
2112754	REC_WORD	wordpools/wasnorm_wordpool_576.txt	LTP303	ltpFR2	19	10	FOREHEAD	592	n/a	n/a	0	0	0
2115414	REC_WORD	wordpools/wasnorm_wordpool_576.txt	LTP303	ltpFR2	19	10	CARROT	249	n/a	n/a	0	0	0
2116465	REC_WORD	wordpools/wasnorm_wordpool_576.txt	LTP303	ltpFR2	19	10	PEPPER	1047	n/a	n/a	0	0	0
2117533	REC_WORD	wordpools/wasnorm_wordpool_576.txt	LTP303	ltpFR2	19	10	MASK	876	n/a	n/a	0	0	0
2122035	REC_WORD	wordpools/wasnorm_wordpool_576.txt	LTP303	ltpFR2	19	10	CREATURE	403	n/a	n/a	0	0	0
2123080	REC_WORD	wordpools/wasnorm_wordpool_576.txt	LTP303	ltpFR2	19	10	MONSTER	912	n/a	n/a	0	0	0
2124138	REC_WORD	wordpools/wasnorm_wordpool_576.txt	LTP303	ltpFR2	19	10	VALLEY	1545	n/a	n/a	0	0	0
2125278	REC_WORD	wordpools/wasnorm_wordpool_576.txt	LTP303	ltpFR2	19	10	KIDNEY	776	n/a	n/a	0	0	0
2126916	REC_WORD	wordpools/wasnorm_wordpool_576.txt	LTP303	ltpFR2	19	10	COMPASS	358	n/a	n/a	0	0	0
2172222	DISTRACTOR	n/a	LTP303	ltpFR2	19	11	n/a	n/a	n/a	n/a	0	0	0
2172222	START	n/a	LTP303	ltpFR2	19	n/a	n/a	n/a	17	n/a	n/a	n/a	n/a
2172238	PROB	n/a	LTP303	ltpFR2	19	n/a	n/a	n/a	17	14	4	5	5
2173873	PROB	n/a	LTP303	ltpFR2	19	n/a	n/a	n/a	17	12	3	6	3
2175324	PROB	n/a	LTP303	ltpFR2	19	n/a	n/a	n/a	17	20	7	7	6
2177091	PROB	n/a	LTP303	ltpFR2	19	n/a	n/a	n/a	17	15	7	4	4
2178844	PROB	n/a	LTP303	ltpFR2	19	n/a	n/a	n/a	17	12	2	6	4
2180145	PROB	n/a	LTP303	ltpFR2	19	n/a	n/a	n/a	17	19	4	7	8
2181714	PROB	n/a	LTP303	ltpFR2	19	n/a	n/a	n/a	17	11	8	2	1
2182731	PROB	n/a	LTP303	ltpFR2	19	n/a	n/a	n/a	17	16	3	7	6
2183882	PROB	n/a	LTP303	ltpFR2	19	n/a	n/a	n/a	17	6	3	1	2
2184845	PROB	n/a	LTP303	ltpFR2	19	n/a	n/a	n/a	17	19	6	6	7
2186450	PROB	n/a	LTP303	ltpFR2	19	n/a	n/a	n/a	17	14	9	1	4
2187466	PROB	n/a	LTP303	ltpFR2	19	n/a	n/a	n/a	17	20	7	8	5
2191101	PROB	n/a	LTP303	ltpFR2	19	n/a	n/a	n/a	17	22	8	6	8
2192500	PROB	n/a	LTP303	ltpFR2	19	n/a	n/a	n/a	17	13	8	4	1
2193738	PROB	n/a	LTP303	ltpFR2	19	n/a	n/a	n/a	17	20	8	6	6
2195250	STOP	n/a	LTP303	ltpFR2	19	n/a	n/a	n/a	17	n/a	n/a	n/a	n/a
2197222	WORD	wordpools/wasnorm_wordpool_576.txt	LTP303	ltpFR2	19	11	ROBOT	1200	n/a	n/a	0	0	0
2199809	WORD	wordpools/wasnorm_wordpool_576.txt	LTP303	ltpFR2	19	11	LETTUCE	814	n/a	n/a	0	0	0
2202528	WORD	wordpools/wasnorm_wordpool_576.txt	LTP303	ltpFR2	19	11	SNACK	1331	n/a	n/a	0	0	0
2205313	WORD	wordpools/wasnorm_wordpool_576.txt	LTP303	ltpFR2	19	11	PIGEON	1065	n/a	n/a	0	0	0
2207752	WORD	wordpools/wasnorm_wordpool_576.txt	LTP303	ltpFR2	19	11	BANKER	84	n/a	n/a	0	0	0
2210351	WORD	wordpools/wasnorm_wordpool_576.txt	LTP303	ltpFR2	19	11	CASHEW	253	n/a	n/a	0	0	0
2213120	WORD	wordpools/wasnorm_wordpool_576.txt	LTP303	ltpFR2	19	11	PECAN	1036	n/a	n/a	0	0	0
2215706	WORD	wordpools/wasnorm_wordpool_576.txt	LTP303	ltpFR2	19	11	TRIBE	1505	n/a	n/a	0	0	0
2218525	WORD	wordpools/wasnorm_wordpool_576.txt	LTP303	ltpFR2	19	11	PARSLEY	1016	n/a	n/a	0	0	0
2221144	WORD	wordpools/wasnorm_wordpool_576.txt	LTP303	ltpFR2	19	11	OX	994	n/a	n/a	0	0	0
2223595	WORD	wordpools/wasnorm_wordpool_576.txt	LTP303	ltpFR2	19	11	STATUE	1374	n/a	n/a	0	0	0
2226198	WORD	wordpools/wasnorm_wordpool_576.txt	LTP303	ltpFR2	19	11	PORTRAIT	1111	n/a	n/a	0	0	0
2228818	WORD	wordpools/wasnorm_wordpool_576.txt	LTP303	ltpFR2	19	11	GALLON	618	n/a	n/a	0	0	0
2231486	WORD	wordpools/wasnorm_wordpool_576.txt	LTP303	ltpFR2	19	11	PATROL	1027	n/a	n/a	0	0	0
2233939	WORD	wordpools/wasnorm_wordpool_576.txt	LTP303	ltpFR2	19	11	CHAMPAGNE	278	n/a	n/a	0	0	0
2236391	WORD	wordpools/wasnorm_wordpool_576.txt	LTP303	ltpFR2	19	11	RECEIPT	1173	n/a	n/a	0	0	0
2239160	WORD	wordpools/wasnorm_wordpool_576.txt	LTP303	ltpFR2	19	11	AGENT	10	n/a	n/a	0	0	0
2241594	WORD	wordpools/wasnorm_wordpool_576.txt	LTP303	ltpFR2	19	11	BLOCKADE	137	n/a	n/a	0	0	0
2244380	WORD	wordpools/wasnorm_wordpool_576.txt	LTP303	ltpFR2	19	11	MISTER	901	n/a	n/a	0	0	0
2247116	WORD	wordpools/wasnorm_wordpool_576.txt	LTP303	ltpFR2	19	11	NOMAD	955	n/a	n/a	0	0	0
2249584	WORD	wordpools/wasnorm_wordpool_576.txt	LTP303	ltpFR2	19	11	GREASE	660	n/a	n/a	0	0	0
2252153	WORD	wordpools/wasnorm_wordpool_576.txt	LTP303	ltpFR2	19	11	BANK	83	n/a	n/a	0	0	0
2254756	WORD	wordpools/wasnorm_wordpool_576.txt	LTP303	ltpFR2	19	11	TROUT	1511	n/a	n/a	0	0	0
2257573	WORD	wordpools/wasnorm_wordpool_576.txt	LTP303	ltpFR2	19	11	FOOTBALL	591	n/a	n/a	0	0	0
2259192	START	n/a	LTP303	ltpFR2	19	n/a	n/a	n/a	18	n/a	n/a	n/a	n/a
2260123	DISTRACTOR	n/a	LTP303	ltpFR2	19	11	n/a	n/a	n/a	n/a	0	0	0
2260128	PROB	n/a	LTP303	ltpFR2	19	n/a	n/a	n/a	18	16	2	5	9
2262476	PROB	n/a	LTP303	ltpFR2	19	n/a	n/a	n/a	18	22	8	6	8
2264212	PROB	n/a	LTP303	ltpFR2	19	n/a	n/a	n/a	18	17	4	4	9
2266297	PROB	n/a	LTP303	ltpFR2	19	n/a	n/a	n/a	18	19	2	8	9
2267615	PROB	n/a	LTP303	ltpFR2	19	n/a	n/a	n/a	18	17	4	4	9
2269850	PROB	n/a	LTP303	ltpFR2	19	n/a	n/a	n/a	18	12	5	3	4
2271402	PROB	n/a	LTP303	ltpFR2	19	n/a	n/a	n/a	18	5	1	2	2
2272436	PROB	n/a	LTP303	ltpFR2	19	n/a	n/a	n/a	18	19	9	3	7
2273753	PROB	n/a	LTP303	ltpFR2	19	n/a	n/a	n/a	18	19	9	7	3
2275422	PROB	n/a	LTP303	ltpFR2	19	n/a	n/a	n/a	18	21	6	9	6
2278055	PROB	n/a	LTP303	ltpFR2	19	n/a	n/a	n/a	18	14	3	4	7
2279340	PROB	n/a	LTP303	ltpFR2	19	n/a	n/a	n/a	18	6	1	3	2
2280491	PROB	n/a	LTP303	ltpFR2	19	n/a	n/a	n/a	18	10	1	6	3
2281743	STOP	n/a	LTP303	ltpFR2	19	n/a	n/a	n/a	18	n/a	n/a	n/a	n/a
2285129	REC_START	n/a	LTP303	ltpFR2	19	11	n/a	n/a	n/a	n/a	0	0	0
2285907	REC_WORD	wordpools/wasnorm_wordpool_576.txt	LTP303	ltpFR2	19	11	TROUT	1511	n/a	n/a	0	0	0
2287285	REC_WORD	wordpools/wasnorm_wordpool_576.txt	LTP303	ltpFR2	19	11	FOOTBALL	591	n/a	n/a	0	0	0
2291393	REC_WORD	wordpools/wasnorm_wordpool_576.txt	LTP303	ltpFR2	19	11	ROBOT	1200	n/a	n/a	0	0	0
2292490	REC_WORD	wordpools/wasnorm_wordpool_576.txt	LTP303	ltpFR2	19	11	LETTUCE	814	n/a	n/a	0	0	0
2293417	REC_WORD	wordpools/wasnorm_wordpool_576.txt	LTP303	ltpFR2	19	11	SNACK	1331	n/a	n/a	0	0	0
2294646	REC_WORD	wordpools/wasnorm_wordpool_576.txt	LTP303	ltpFR2	19	11	PIGEON	1065	n/a	n/a	0	0	0
2295786	REC_WORD	wordpools/wasnorm_wordpool_576.txt	LTP303	ltpFR2	19	11	BANKER	84	n/a	n/a	0	0	0
2297431	REC_WORD	wordpools/wasnorm_wordpool_576.txt	LTP303	ltpFR2	19	11	CASHEW	253	n/a	n/a	0	0	0
2298756	REC_WORD	wordpools/wasnorm_wordpool_576.txt	LTP303	ltpFR2	19	11	PECAN	1036	n/a	n/a	0	0	0
2299936	REC_WORD	wordpools/wasnorm_wordpool_576.txt	LTP303	ltpFR2	19	11	PARSLEY	1016	n/a	n/a	0	0	0
2301305	REC_WORD	wordpools/wasnorm_wordpool_576.txt	LTP303	ltpFR2	19	11	OX	994	n/a	n/a	0	0	0
2304598	REC_WORD	wordpools/wasnorm_wordpool_576.txt	LTP303	ltpFR2	19	11	STATUE	1374	n/a	n/a	0	0	0
2305976	REC_WORD	wordpools/wasnorm_wordpool_576.txt	LTP303	ltpFR2	19	11	PORTRAIT	1111	n/a	n/a	0	0	0
2307606	REC_WORD	wordpools/wasnorm_wordpool_576.txt	LTP303	ltpFR2	19	11	GALLON	618	n/a	n/a	0	0	0
2309865	REC_WORD	wordpools/wasnorm_wordpool_576.txt	LTP303	ltpFR2	19	11	PATROL	1027	n/a	n/a	0	0	0
2312007	REC_WORD	wordpools/wasnorm_wordpool_576.txt	LTP303	ltpFR2	19	11	CHAMPAGNE	278	n/a	n/a	0	0	0
2313674	REC_WORD	wordpools/wasnorm_wordpool_576.txt	LTP303	ltpFR2	19	11	RECEIPT	1173	n/a	n/a	0	0	0
2314910	REC_WORD	wordpools/wasnorm_wordpool_576.txt	LTP303	ltpFR2	19	11	AGENT	10	n/a	n/a	0	0	0
2315917	REC_WORD	wordpools/wasnorm_wordpool_576.txt	LTP303	ltpFR2	19	11	BLOCKADE	137	n/a	n/a	0	0	0
2317136	REC_WORD	wordpools/wasnorm_wordpool_576.txt	LTP303	ltpFR2	19	11	MISTER	901	n/a	n/a	0	0	0
2318287	REC_WORD	wordpools/wasnorm_wordpool_576.txt	LTP303	ltpFR2	19	11	NOMAD	955	n/a	n/a	0	0	0
2334186	REC_WORD	wordpools/wasnorm_wordpool_576.txt	LTP303	ltpFR2	19	11	GREASE	660	n/a	n/a	0	0	0
2375567	WORD	wordpools/wasnorm_wordpool_576.txt	LTP303	ltpFR2	19	12	VALVE	1546	n/a	n/a	0	0	0
2378198	WORD	wordpools/wasnorm_wordpool_576.txt	LTP303	ltpFR2	19	12	SILK	1307	n/a	n/a	0	0	0
2380725	WORD	wordpools/wasnorm_wordpool_576.txt	LTP303	ltpFR2	19	12	ONION	977	n/a	n/a	0	0	0
2383152	WORD	wordpools/wasnorm_wordpool_576.txt	LTP303	ltpFR2	19	12	FLASHLIGHT	575	n/a	n/a	0	0	0
2385656	WORD	wordpools/wasnorm_wordpool_576.txt	LTP303	ltpFR2	19	12	TABLE	1426	n/a	n/a	0	0	0
2388156	WORD	wordpools/wasnorm_wordpool_576.txt	LTP303	ltpFR2	19	12	DIVER	476	n/a	n/a	0	0	0
2390743	WORD	wordpools/wasnorm_wordpool_576.txt	LTP303	ltpFR2	19	12	HELMET	702	n/a	n/a	0	0	0
2393561	WORD	wordpools/wasnorm_wordpool_576.txt	LTP303	ltpFR2	19	12	FUNGUS	614	n/a	n/a	0	0	0
2396046	WORD	wordpools/wasnorm_wordpool_576.txt	LTP303	ltpFR2	19	12	SCARF	1246	n/a	n/a	0	0	0
2398566	WORD	wordpools/wasnorm_wordpool_576.txt	LTP303	ltpFR2	19	12	TRANSPLANT	1496	n/a	n/a	0	0	0
2401301	WORD	wordpools/wasnorm_wordpool_576.txt	LTP303	ltpFR2	19	12	BEAKER	104	n/a	n/a	0	0	0
2403910	WORD	wordpools/wasnorm_wordpool_576.txt	LTP303	ltpFR2	19	12	RADISH	1158	n/a	n/a	0	0	0
2406690	WORD	wordpools/wasnorm_wordpool_576.txt	LTP303	ltpFR2	19	12	WAGON	1578	n/a	n/a	0	0	0
2409275	WORD	wordpools/wasnorm_wordpool_576.txt	LTP303	ltpFR2	19	12	BLOUSE	139	n/a	n/a	0	0	0
2412077	WORD	wordpools/wasnorm_wordpool_576.txt	LTP303	ltpFR2	19	12	POCKET	1093	n/a	n/a	0	0	0
2414529	WORD	wordpools/wasnorm_wordpool_576.txt	LTP303	ltpFR2	19	12	CABBAGE	210	n/a	n/a	0	0	0
2417019	WORD	wordpools/wasnorm_wordpool_576.txt	LTP303	ltpFR2	19	12	EAGLE	512	n/a	n/a	0	0	0
2419538	WORD	wordpools/wasnorm_wordpool_576.txt	LTP303	ltpFR2	19	12	PERCH	1048	n/a	n/a	0	0	0
2422037	WORD	wordpools/wasnorm_wordpool_576.txt	LTP303	ltpFR2	19	12	ASIA	46	n/a	n/a	0	0	0
2424522	WORD	wordpools/wasnorm_wordpool_576.txt	LTP303	ltpFR2	19	12	LONDON	843	n/a	n/a	0	0	0
2426995	WORD	wordpools/wasnorm_wordpool_576.txt	LTP303	ltpFR2	19	12	TYPIST	1532	n/a	n/a	0	0	0
2429781	WORD	wordpools/wasnorm_wordpool_576.txt	LTP303	ltpFR2	19	12	ROBIN	1199	n/a	n/a	0	0	0
2432229	WORD	wordpools/wasnorm_wordpool_576.txt	LTP303	ltpFR2	19	12	STALLION	1369	n/a	n/a	0	0	0
2434982	WORD	wordpools/wasnorm_wordpool_576.txt	LTP303	ltpFR2	19	12	PARENT	1013	n/a	n/a	0	0	0
2436599	START	n/a	LTP303	ltpFR2	19	n/a	n/a	n/a	19	n/a	n/a	n/a	n/a
2437408	DISTRACTOR	n/a	LTP303	ltpFR2	19	12	n/a	n/a	n/a	n/a	0	0	0
2437416	PROB	n/a	LTP303	ltpFR2	19	n/a	n/a	n/a	19	19	7	6	6
2439167	PROB	n/a	LTP303	ltpFR2	19	n/a	n/a	n/a	19	19	9	4	6
2441020	PROB	n/a	LTP303	ltpFR2	19	n/a	n/a	n/a	19	21	7	9	5
2443187	PROB	n/a	LTP303	ltpFR2	19	n/a	n/a	n/a	19	20	9	7	4
2445124	PROB	n/a	LTP303	ltpFR2	19	n/a	n/a	n/a	19	19	7	3	9
2446707	PROB	n/a	LTP303	ltpFR2	19	n/a	n/a	n/a	19	21	7	8	6
2448174	PROB	n/a	LTP303	ltpFR2	19	n/a	n/a	n/a	19	12	1	9	1
2449176	PROB	n/a	LTP303	ltpFR2	19	n/a	n/a	n/a	19	14	9	4	1
2451011	PROB	n/a	LTP303	ltpFR2	19	n/a	n/a	n/a	19	12	2	4	6
2452431	PROB	n/a	LTP303	ltpFR2	19	n/a	n/a	n/a	19	9	2	1	6
2454682	PROB	n/a	LTP303	ltpFR2	19	n/a	n/a	n/a	19	17	5	6	6
2456215	PROB	n/a	LTP303	ltpFR2	19	n/a	n/a	n/a	19	11	8	2	1
2457249	PROB	n/a	LTP303	ltpFR2	19	n/a	n/a	n/a	19	13	2	2	9
2459158	STOP	n/a	LTP303	ltpFR2	19	n/a	n/a	n/a	19	n/a	n/a	n/a	n/a
2462539	REC_START	n/a	LTP303	ltpFR2	19	12	n/a	n/a	n/a	n/a	0	0	0
2466900	REC_WORD	wordpools/wasnorm_wordpool_576.txt	LTP303	ltpFR2	19	12	VALVE	1546	n/a	n/a	0	0	0
2468313	REC_WORD	wordpools/wasnorm_wordpool_576.txt	LTP303	ltpFR2	19	12	SILK	1307	n/a	n/a	0	0	0
2470006	REC_WORD	wordpools/wasnorm_wordpool_576.txt	LTP303	ltpFR2	19	12	ONION	977	n/a	n/a	0	0	0
2471224	REC_WORD	wordpools/wasnorm_wordpool_576.txt	LTP303	ltpFR2	19	12	FLASHLIGHT	575	n/a	n/a	0	0	0
2472841	REC_WORD	wordpools/wasnorm_wordpool_576.txt	LTP303	ltpFR2	19	12	TABLE	1426	n/a	n/a	0	0	0
2475656	REC_WORD	wordpools/wasnorm_wordpool_576.txt	LTP303	ltpFR2	19	12	DIVER	476	n/a	n/a	0	0	0
2476863	REC_WORD	wordpools/wasnorm_wordpool_576.txt	LTP303	ltpFR2	19	12	HELMET	702	n/a	n/a	0	0	0
2480245	REC_WORD	wordpools/wasnorm_wordpool_576.txt	LTP303	ltpFR2	19	12	FUNGUS	614	n/a	n/a	0	0	0
2484254	REC_WORD	wordpools/wasnorm_wordpool_576.txt	LTP303	ltpFR2	19	12	BEAKER	104	n/a	n/a	0	0	0
2486395	REC_WORD	wordpools/wasnorm_wordpool_576.txt	LTP303	ltpFR2	19	12	TURNIP	1521	n/a	n/a	0	0	0
2488699	REC_WORD	wordpools/wasnorm_wordpool_576.txt	LTP303	ltpFR2	19	12	RADISH	1158	n/a	n/a	0	0	0
2491772	REC_WORD	wordpools/wasnorm_wordpool_576.txt	LTP303	ltpFR2	19	12	BLOUSE	139	n/a	n/a	0	0	0
2492837	REC_WORD	wordpools/wasnorm_wordpool_576.txt	LTP303	ltpFR2	19	12	POCKET	1093	n/a	n/a	0	0	0
2493827	REC_WORD	wordpools/wasnorm_wordpool_576.txt	LTP303	ltpFR2	19	12	WAGON	1578	n/a	n/a	0	0	0
2494838	REC_WORD	wordpools/wasnorm_wordpool_576.txt	LTP303	ltpFR2	19	12	CABBAGE	210	n/a	n/a	0	0	0
2496019	REC_WORD	wordpools/wasnorm_wordpool_576.txt	LTP303	ltpFR2	19	12	EAGLE	512	n/a	n/a	0	0	0
2497060	REC_WORD	wordpools/wasnorm_wordpool_576.txt	LTP303	ltpFR2	19	12	PERCH	1048	n/a	n/a	0	0	0
2498450	REC_WORD	wordpools/wasnorm_wordpool_576.txt	LTP303	ltpFR2	19	12	ASIA	46	n/a	n/a	0	0	0
2499529	REC_WORD	wordpools/wasnorm_wordpool_576.txt	LTP303	ltpFR2	19	12	LONDON	843	n/a	n/a	0	0	0
2501765	REC_WORD	wordpools/wasnorm_wordpool_576.txt	LTP303	ltpFR2	19	12	PARENT	1013	n/a	n/a	0	0	0
2504428	REC_WORD	wordpools/wasnorm_wordpool_576.txt	LTP303	ltpFR2	19	12	ROBIN	1199	n/a	n/a	0	0	0
2552995	WORD	wordpools/wasnorm_wordpool_576.txt	LTP303	ltpFR2	19	13	CHURCH	307	n/a	n/a	0	0	0
2555699	WORD	wordpools/wasnorm_wordpool_576.txt	LTP303	ltpFR2	19	13	HOSTESS	723	n/a	n/a	0	0	0
2558183	WORD	wordpools/wasnorm_wordpool_576.txt	LTP303	ltpFR2	19	13	WAITRESS	1581	n/a	n/a	0	0	0
2560775	WORD	wordpools/wasnorm_wordpool_576.txt	LTP303	ltpFR2	19	13	POET	1095	n/a	n/a	0	0	0
2563410	WORD	wordpools/wasnorm_wordpool_576.txt	LTP303	ltpFR2	19	13	DRESSER	496	n/a	n/a	0	0	0
2565857	WORD	wordpools/wasnorm_wordpool_576.txt	LTP303	ltpFR2	19	13	BABY	64	n/a	n/a	0	0	0
2568281	WORD	wordpools/wasnorm_wordpool_576.txt	LTP303	ltpFR2	19	13	NIGHTGOWN	953	n/a	n/a	0	0	0
2570767	WORD	wordpools/wasnorm_wordpool_576.txt	LTP303	ltpFR2	19	13	PAPER	1011	n/a	n/a	0	0	0
2573535	WORD	wordpools/wasnorm_wordpool_576.txt	LTP303	ltpFR2	19	13	RECORD	1176	n/a	n/a	0	0	0
2576304	WORD	wordpools/wasnorm_wordpool_576.txt	LTP303	ltpFR2	19	13	GARBAGE	622	n/a	n/a	0	0	0
2578807	WORD	wordpools/wasnorm_wordpool_576.txt	LTP303	ltpFR2	19	13	PANTHER	1009	n/a	n/a	0	0	0
2581492	WORD	wordpools/wasnorm_wordpool_576.txt	LTP303	ltpFR2	19	13	MAMMAL	861	n/a	n/a	0	0	0
2584204	WORD	wordpools/wasnorm_wordpool_576.txt	LTP303	ltpFR2	19	13	GIFT	635	n/a	n/a	0	0	0
2586981	WORD	wordpools/wasnorm_wordpool_576.txt	LTP303	ltpFR2	19	13	HAMPER	682	n/a	n/a	0	0	0
2589466	WORD	wordpools/wasnorm_wordpool_576.txt	LTP303	ltpFR2	19	13	YACHT	1629	n/a	n/a	0	0	0
2592227	WORD	wordpools/wasnorm_wordpool_576.txt	LTP303	ltpFR2	19	13	CHAPEL	280	n/a	n/a	0	0	0
2594647	WORD	wordpools/wasnorm_wordpool_576.txt	LTP303	ltpFR2	19	13	TABLET	1427	n/a	n/a	0	0	0
2597347	WORD	wordpools/wasnorm_wordpool_576.txt	LTP303	ltpFR2	19	13	TUNNEL	1519	n/a	n/a	0	0	0
2599801	WORD	wordpools/wasnorm_wordpool_576.txt	LTP303	ltpFR2	19	13	FRIAR	605	n/a	n/a	0	0	0
2602227	WORD	wordpools/wasnorm_wordpool_576.txt	LTP303	ltpFR2	19	13	SPOUSE	1358	n/a	n/a	0	0	0
2604747	WORD	wordpools/wasnorm_wordpool_576.txt	LTP303	ltpFR2	19	13	COCKTAIL	338	n/a	n/a	0	0	0
2607315	WORD	wordpools/wasnorm_wordpool_576.txt	LTP303	ltpFR2	19	13	PAIL	1002	n/a	n/a	0	0	0
2609968	WORD	wordpools/wasnorm_wordpool_576.txt	LTP303	ltpFR2	19	13	XEROX	1628	n/a	n/a	0	0	0
2612402	WORD	wordpools/wasnorm_wordpool_576.txt	LTP303	ltpFR2	19	13	MACHINE	852	n/a	n/a	0	0	0
2614012	START	n/a	LTP303	ltpFR2	19	n/a	n/a	n/a	20	n/a	n/a	n/a	n/a
2614889	DISTRACTOR	n/a	LTP303	ltpFR2	19	13	n/a	n/a	n/a	n/a	0	0	0
2614896	PROB	n/a	LTP303	ltpFR2	19	n/a	n/a	n/a	20	17	7	1	9
2616896	PROB	n/a	LTP303	ltpFR2	19	n/a	n/a	n/a	20	16	3	6	7
2618431	PROB	n/a	LTP303	ltpFR2	19	n/a	n/a	n/a	20	20	3	8	9
2620165	PROB	n/a	LTP303	ltpFR2	19	n/a	n/a	n/a	20	12	4	1	7
2621734	PROB	n/a	LTP303	ltpFR2	19	n/a	n/a	n/a	20	9	4	8	9
2627939	PROB	n/a	LTP303	ltpFR2	19	n/a	n/a	n/a	20	7	3	1	3
2629239	PROB	n/a	LTP303	ltpFR2	19	n/a	n/a	n/a	20	5	3	1	1
2630240	PROB	n/a	LTP303	ltpFR2	19	n/a	n/a	n/a	20	7	1	1	5
2631759	PROB	n/a	LTP303	ltpFR2	19	n/a	n/a	n/a	20	20	8	7	5
2633761	PROB	n/a	LTP303	ltpFR2	19	n/a	n/a	n/a	20	12	4	3	5
2638012	STOP	n/a	LTP303	ltpFR2	19	n/a	n/a	n/a	20	n/a	n/a	n/a	n/a
2639882	REC_START	n/a	LTP303	ltpFR2	19	13	n/a	n/a	n/a	n/a	0	0	0
2643248	REC_WORD	wordpools/wasnorm_wordpool_576.txt	LTP303	ltpFR2	19	13	CHURCH	307	n/a	n/a	0	0	0
2645622	REC_WORD	wordpools/wasnorm_wordpool_576.txt	LTP303	ltpFR2	19	13	HOSTESS	723	n/a	n/a	0	0	0
2646666	REC_WORD	wordpools/wasnorm_wordpool_576.txt	LTP303	ltpFR2	19	13	WAITRESS	1581	n/a	n/a	0	0	0
2648066	REC_WORD	wordpools/wasnorm_wordpool_576.txt	LTP303	ltpFR2	19	13	POET	1095	n/a	n/a	0	0	0
2649643	REC_WORD	wordpools/wasnorm_wordpool_576.txt	LTP303	ltpFR2	19	13	DRESSER	496	n/a	n/a	0	0	0
2652013	REC_WORD	wordpools/wasnorm_wordpool_576.txt	LTP303	ltpFR2	19	13	BABY	64	n/a	n/a	0	0	0
2655187	REC_WORD	wordpools/wasnorm_wordpool_576.txt	LTP303	ltpFR2	19	13	NIGHTGOWN	953	n/a	n/a	0	0	0
2656276	REC_WORD	wordpools/wasnorm_wordpool_576.txt	LTP303	ltpFR2	19	13	PAPER	1011	n/a	n/a	0	0	0
2667016	REC_WORD	wordpools/wasnorm_wordpool_576.txt	LTP303	ltpFR2	19	13	GIFT	635	n/a	n/a	0	0	0
2667909	REC_WORD	wordpools/wasnorm_wordpool_576.txt	LTP303	ltpFR2	19	13	HAMPER	682	n/a	n/a	0	0	0
2669073	REC_WORD	wordpools/wasnorm_wordpool_576.txt	LTP303	ltpFR2	19	13	YACHT	1629	n/a	n/a	0	0	0
2679336	REC_WORD	wordpools/wasnorm_wordpool_576.txt	LTP303	ltpFR2	19	13	CHAPEL	280	n/a	n/a	0	0	0
2680399	REC_WORD	wordpools/wasnorm_wordpool_576.txt	LTP303	ltpFR2	19	13	TABLET	1427	n/a	n/a	0	0	0
2682930	REC_WORD	wordpools/wasnorm_wordpool_576.txt	LTP303	ltpFR2	19	13	TUNNEL	1519	n/a	n/a	0	0	0
2683813	REC_WORD	wordpools/wasnorm_wordpool_576.txt	LTP303	ltpFR2	19	13	FRIAR	605	n/a	n/a	0	0	0
2684784	REC_WORD	wordpools/wasnorm_wordpool_576.txt	LTP303	ltpFR2	19	13	SPOUSE	1358	n/a	n/a	0	0	0
2685981	REC_WORD	wordpools/wasnorm_wordpool_576.txt	LTP303	ltpFR2	19	13	COCKTAIL	338	n/a	n/a	0	0	0
2687013	REC_WORD	wordpools/wasnorm_wordpool_576.txt	LTP303	ltpFR2	19	13	XEROX	1628	n/a	n/a	0	0	0
2688050	REC_WORD	wordpools/wasnorm_wordpool_576.txt	LTP303	ltpFR2	19	13	MACHINE	852	n/a	n/a	0	0	0
2689149	REC_WORD	wordpools/wasnorm_wordpool_576.txt	LTP303	ltpFR2	19	13	PAIL	1002	n/a	n/a	0	0	0
2730353	WORD	wordpools/wasnorm_wordpool_576.txt	LTP303	ltpFR2	19	14	BANJO	82	n/a	n/a	0	0	0
2732824	WORD	wordpools/wasnorm_wordpool_576.txt	LTP303	ltpFR2	19	14	CROWN	415	n/a	n/a	0	0	0
2735425	WORD	wordpools/wasnorm_wordpool_576.txt	LTP303	ltpFR2	19	14	AWARD	63	n/a	n/a	0	0	0
2738128	WORD	wordpools/wasnorm_wordpool_576.txt	LTP303	ltpFR2	19	14	SHERIFF	1284	n/a	n/a	0	0	0
2740680	WORD	wordpools/wasnorm_wordpool_576.txt	LTP303	ltpFR2	19	14	LIPSTICK	829	n/a	n/a	0	0	0
2743266	WORD	wordpools/wasnorm_wordpool_576.txt	LTP303	ltpFR2	19	14	OMELET	976	n/a	n/a	0	0	0
2745718	WORD	wordpools/wasnorm_wordpool_576.txt	LTP303	ltpFR2	19	14	SLIME	1327	n/a	n/a	0	0	0
2748519	WORD	wordpools/wasnorm_wordpool_576.txt	LTP303	ltpFR2	19	14	STOVE	1388	n/a	n/a	0	0	0
2751105	WORD	wordpools/wasnorm_wordpool_576.txt	LTP303	ltpFR2	19	14	CITRUS	313	n/a	n/a	0	0	0
2753557	WORD	wordpools/wasnorm_wordpool_576.txt	LTP303	ltpFR2	19	14	WIFE	1609	n/a	n/a	0	0	0
2756175	WORD	wordpools/wasnorm_wordpool_576.txt	LTP303	ltpFR2	19	14	BROTHER	179	n/a	n/a	0	0	0
2758745	WORD	wordpools/wasnorm_wordpool_576.txt	LTP303	ltpFR2	19	14	HORSE	719	n/a	n/a	0	0	0
2761263	WORD	wordpools/wasnorm_wordpool_576.txt	LTP303	ltpFR2	19	14	APPLE	33	n/a	n/a	0	0	0
2763800	WORD	wordpools/wasnorm_wordpool_576.txt	LTP303	ltpFR2	19	14	BOX	159	n/a	n/a	0	0	0
2766267	WORD	wordpools/wasnorm_wordpool_576.txt	LTP303	ltpFR2	19	14	PACKAGE	997	n/a	n/a	0	0	0
2768754	WORD	wordpools/wasnorm_wordpool_576.txt	LTP303	ltpFR2	19	14	BUTCHER	203	n/a	n/a	0	0	0
2771538	WORD	wordpools/wasnorm_wordpool_576.txt	LTP303	ltpFR2	19	14	GRILL	661	n/a	n/a	0	0	0
2774227	WORD	wordpools/wasnorm_wordpool_576.txt	LTP303	ltpFR2	19	14	HOOD	714	n/a	n/a	0	0	0
2776910	WORD	wordpools/wasnorm_wordpool_576.txt	LTP303	ltpFR2	19	14	CHAUFFEUR	283	n/a	n/a	0	0	0
2779361	WORD	wordpools/wasnorm_wordpool_576.txt	LTP303	ltpFR2	19	14	COLLEGE	346	n/a	n/a	0	0	0
2782002	WORD	wordpools/wasnorm_wordpool_576.txt	LTP303	ltpFR2	19	14	SALAD	1224	n/a	n/a	0	0	0
2784565	WORD	wordpools/wasnorm_wordpool_576.txt	LTP303	ltpFR2	19	14	SHRUB	1299	n/a	n/a	0	0	0
2787268	WORD	wordpools/wasnorm_wordpool_576.txt	LTP303	ltpFR2	19	14	BARLEY	88	n/a	n/a	0	0	0
2789887	WORD	wordpools/wasnorm_wordpool_576.txt	LTP303	ltpFR2	19	14	SWORD	1423	n/a	n/a	0	0	0
2791493	START	n/a	LTP303	ltpFR2	19	n/a	n/a	n/a	21	n/a	n/a	n/a	n/a
2792549	DISTRACTOR	n/a	LTP303	ltpFR2	19	14	n/a	n/a	n/a	n/a	0	0	0
2792555	PROB	n/a	LTP303	ltpFR2	19	n/a	n/a	n/a	21	18	6	3	9
2794556	PROB	n/a	LTP303	ltpFR2	19	n/a	n/a	n/a	21	12	3	3	6
2796140	PROB	n/a	LTP303	ltpFR2	19	n/a	n/a	n/a	21	12	7	3	2
2797642	PROB	n/a	LTP303	ltpFR2	19	n/a	n/a	n/a	21	11	7	2	2
2799159	PROB	n/a	LTP303	ltpFR2	19	n/a	n/a	n/a	21	17	2	6	9
2802813	PROB	n/a	LTP303	ltpFR2	19	n/a	n/a	n/a	21	16	4	4	8
2805683	PROB	n/a	LTP303	ltpFR2	19	n/a	n/a	n/a	21	12	4	3	5
2807182	PROB	n/a	LTP303	ltpFR2	19	n/a	n/a	n/a	21	13	7	5	1
2808584	PROB	n/a	LTP303	ltpFR2	19	n/a	n/a	n/a	21	13	4	4	5
2810017	PROB	n/a	LTP303	ltpFR2	19	n/a	n/a	n/a	21	15	2	9	4
2811287	PROB	n/a	LTP303	ltpFR2	19	n/a	n/a	n/a	21	11	4	2	5
2813087	PROB	n/a	LTP303	ltpFR2	19	n/a	n/a	n/a	21	14	8	2	4
2814125	STOP	n/a	LTP303	ltpFR2	19	n/a	n/a	n/a	21	n/a	n/a	n/a	n/a
2817308	REC_START	n/a	LTP303	ltpFR2	19	14	n/a	n/a	n/a	n/a	0	0	0
2818431	REC_WORD	wordpools/wasnorm_wordpool_576.txt	LTP303	ltpFR2	19	14	BANJO	82	n/a	n/a	0	0	0
2819464	REC_WORD	wordpools/wasnorm_wordpool_576.txt	LTP303	ltpFR2	19	14	CROWN	415	n/a	n/a	0	0	0
2820439	REC_WORD	wordpools/wasnorm_wordpool_576.txt	LTP303	ltpFR2	19	14	AWARD	63	n/a	n/a	0	0	0
2821562	REC_WORD	wordpools/wasnorm_wordpool_576.txt	LTP303	ltpFR2	19	14	SHERIFF	1284	n/a	n/a	0	0	0
2822694	REC_WORD	wordpools/wasnorm_wordpool_576.txt	LTP303	ltpFR2	19	14	LIPSTICK	829	n/a	n/a	0	0	0
2823774	REC_WORD	wordpools/wasnorm_wordpool_576.txt	LTP303	ltpFR2	19	14	OMELET	976	n/a	n/a	0	0	0
2824781	REC_WORD	wordpools/wasnorm_wordpool_576.txt	LTP303	ltpFR2	19	14	SLIME	1327	n/a	n/a	0	0	0
2825908	REC_WORD	wordpools/wasnorm_wordpool_576.txt	LTP303	ltpFR2	19	14	STOVE	1388	n/a	n/a	0	0	0
2827019	REC_WORD	wordpools/wasnorm_wordpool_576.txt	LTP303	ltpFR2	19	14	CITRUS	313	n/a	n/a	0	0	0
2828217	REC_WORD	wordpools/wasnorm_wordpool_576.txt	LTP303	ltpFR2	19	14	WIFE	1609	n/a	n/a	0	0	0
2829282	REC_WORD	wordpools/wasnorm_wordpool_576.txt	LTP303	ltpFR2	19	14	BROTHER	179	n/a	n/a	0	0	0
2830423	REC_WORD	wordpools/wasnorm_wordpool_576.txt	LTP303	ltpFR2	19	14	HORSE	719	n/a	n/a	0	0	0
2844906	REC_WORD	wordpools/wasnorm_wordpool_576.txt	LTP303	ltpFR2	19	14	GHETTO	633	n/a	n/a	0	0	0
2845685	REC_WORD	wordpools/wasnorm_wordpool_576.txt	LTP303	ltpFR2	19	14	CHAUFFEUR	283	n/a	n/a	0	0	0
2847011	REC_WORD	wordpools/wasnorm_wordpool_576.txt	LTP303	ltpFR2	19	14	COLLEGE	346	n/a	n/a	0	0	0
2849064	REC_WORD	wordpools/wasnorm_wordpool_576.txt	LTP303	ltpFR2	19	14	SHRUB	1299	n/a	n/a	0	0	0
2850964	REC_WORD	wordpools/wasnorm_wordpool_576.txt	LTP303	ltpFR2	19	14	BARLEY	88	n/a	n/a	0	0	0
2855648	REC_WORD	wordpools/wasnorm_wordpool_576.txt	LTP303	ltpFR2	19	14	SWORD	1423	n/a	n/a	0	0	0
2907764	WORD	wordpools/wasnorm_wordpool_576.txt	LTP303	ltpFR2	19	15	BOARD	143	n/a	n/a	0	0	0
2910483	WORD	wordpools/wasnorm_wordpool_576.txt	LTP303	ltpFR2	19	15	FLIPPER	580	n/a	n/a	0	0	0
2913000	WORD	wordpools/wasnorm_wordpool_576.txt	LTP303	ltpFR2	19	15	MARSH	874	n/a	n/a	0	0	0
2915635	WORD	wordpools/wasnorm_wordpool_576.txt	LTP303	ltpFR2	19	15	PENGUIN	1044	n/a	n/a	0	0	0
2918153	WORD	wordpools/wasnorm_wordpool_576.txt	LTP303	ltpFR2	19	15	SMOG	1330	n/a	n/a	0	0	0
2920760	WORD	wordpools/wasnorm_wordpool_576.txt	LTP303	ltpFR2	19	15	CLOUD	328	n/a	n/a	0	0	0
2923374	WORD	wordpools/wasnorm_wordpool_576.txt	LTP303	ltpFR2	19	15	CELLAR	267	n/a	n/a	0	0	0
2925930	WORD	wordpools/wasnorm_wordpool_576.txt	LTP303	ltpFR2	19	15	GROUND	666	n/a	n/a	0	0	0
2928666	WORD	wordpools/wasnorm_wordpool_576.txt	LTP303	ltpFR2	19	15	COTTAGE	384	n/a	n/a	0	0	0
2931115	WORD	wordpools/wasnorm_wordpool_576.txt	LTP303	ltpFR2	19	15	MARKET	871	n/a	n/a	0	0	0
2933718	WORD	wordpools/wasnorm_wordpool_576.txt	LTP303	ltpFR2	19	15	INFANT	737	n/a	n/a	0	0	0
2936538	WORD	wordpools/wasnorm_wordpool_576.txt	LTP303	ltpFR2	19	15	NEUTRON	947	n/a	n/a	0	0	0
2938989	WORD	wordpools/wasnorm_wordpool_576.txt	LTP303	ltpFR2	19	15	PLASTER	1085	n/a	n/a	0	0	0
2941725	WORD	wordpools/wasnorm_wordpool_576.txt	LTP303	ltpFR2	19	15	FRAGRANCE	599	n/a	n/a	0	0	0
2944543	WORD	wordpools/wasnorm_wordpool_576.txt	LTP303	ltpFR2	19	15	CIGAR	308	n/a	n/a	0	0	0
2947112	WORD	wordpools/wasnorm_wordpool_576.txt	LTP303	ltpFR2	19	15	CRIB	407	n/a	n/a	0	0	0
2949815	WORD	wordpools/wasnorm_wordpool_576.txt	LTP303	ltpFR2	19	15	FILM	565	n/a	n/a	0	0	0
2952618	WORD	wordpools/wasnorm_wordpool_576.txt	LTP303	ltpFR2	19	15	QUAIL	1147	n/a	n/a	0	0	0
2955319	WORD	wordpools/wasnorm_wordpool_576.txt	LTP303	ltpFR2	19	15	PARROT	1015	n/a	n/a	0	0	0
2957972	WORD	wordpools/wasnorm_wordpool_576.txt	LTP303	ltpFR2	19	15	BROOK	177	n/a	n/a	0	0	0
2960641	WORD	wordpools/wasnorm_wordpool_576.txt	LTP303	ltpFR2	19	15	MAILBOX	857	n/a	n/a	0	0	0
2963343	WORD	wordpools/wasnorm_wordpool_576.txt	LTP303	ltpFR2	19	15	HUMAN	726	n/a	n/a	0	0	0
2965979	WORD	wordpools/wasnorm_wordpool_576.txt	LTP303	ltpFR2	19	15	FARMER	553	n/a	n/a	0	0	0
2968631	WORD	wordpools/wasnorm_wordpool_576.txt	LTP303	ltpFR2	19	15	DORM	488	n/a	n/a	0	0	0
2970249	START	n/a	LTP303	ltpFR2	19	n/a	n/a	n/a	22	n/a	n/a	n/a	n/a
2971355	DISTRACTOR	n/a	LTP303	ltpFR2	19	15	n/a	n/a	n/a	n/a	0	0	0
2971365	PROB	n/a	LTP303	ltpFR2	19	n/a	n/a	n/a	22	6	2	1	3
2972498	PROB	n/a	LTP303	ltpFR2	19	n/a	n/a	n/a	22	21	8	8	5
2973818	PROB	n/a	LTP303	ltpFR2	19	n/a	n/a	n/a	22	23	8	6	9
2975601	PROB	n/a	LTP303	ltpFR2	19	n/a	n/a	n/a	22	20	2	9	9
2978353	PROB	n/a	LTP303	ltpFR2	19	n/a	n/a	n/a	22	10	3	5	2
2979824	PROB	n/a	LTP303	ltpFR2	19	n/a	n/a	n/a	22	11	3	6	2
2982724	PROB	n/a	LTP303	ltpFR2	19	n/a	n/a	n/a	22	10	3	3	4
2984591	PROB	n/a	LTP303	ltpFR2	19	n/a	n/a	n/a	22	13	6	5	2
2986109	PROB	n/a	LTP303	ltpFR2	19	n/a	n/a	n/a	22	11	6	1	4
2987094	PROB	n/a	LTP303	ltpFR2	19	n/a	n/a	n/a	22	21	7	9	5
2988612	PROB	n/a	LTP303	ltpFR2	19	n/a	n/a	n/a	22	21	9	4	8
2991146	PROB	n/a	LTP303	ltpFR2	19	n/a	n/a	n/a	22	21	7	6	8
2994249	STOP	n/a	LTP303	ltpFR2	19	n/a	n/a	n/a	22	n/a	n/a	n/a	n/a
2996034	REC_START	n/a	LTP303	ltpFR2	19	15	n/a	n/a	n/a	n/a	0	0	0
3005187	REC_WORD	wordpools/wasnorm_wordpool_576.txt	LTP303	ltpFR2	19	15	BOARD	143	n/a	n/a	0	0	0
3007114	REC_WORD	wordpools/wasnorm_wordpool_576.txt	LTP303	ltpFR2	19	15	FLIPPER	580	n/a	n/a	0	0	0
3008578	REC_WORD	wordpools/wasnorm_wordpool_576.txt	LTP303	ltpFR2	19	15	PENGUIN	1044	n/a	n/a	0	0	0
3010051	REC_WORD	wordpools/wasnorm_wordpool_576.txt	LTP303	ltpFR2	19	15	MARSH	874	n/a	n/a	0	0	0
3011396	REC_WORD	wordpools/wasnorm_wordpool_576.txt	LTP303	ltpFR2	19	15	SMOG	1330	n/a	n/a	0	0	0
3013006	REC_WORD	wordpools/wasnorm_wordpool_576.txt	LTP303	ltpFR2	19	15	CLOUD	328	n/a	n/a	0	0	0
3015603	REC_WORD	wordpools/wasnorm_wordpool_576.txt	LTP303	ltpFR2	19	15	CELLAR	267	n/a	n/a	0	0	0
3017229	REC_WORD	wordpools/wasnorm_wordpool_576.txt	LTP303	ltpFR2	19	15	GROUND	666	n/a	n/a	0	0	0
3019306	REC_WORD	wordpools/wasnorm_wordpool_576.txt	LTP303	ltpFR2	19	15	COTTAGE	384	n/a	n/a	0	0	0
3020782	REC_WORD	wordpools/wasnorm_wordpool_576.txt	LTP303	ltpFR2	19	15	DORM	488	n/a	n/a	0	0	0
3025489	REC_WORD	wordpools/wasnorm_wordpool_576.txt	LTP303	ltpFR2	19	15	MARKET	871	n/a	n/a	0	0	0
3026769	REC_WORD	wordpools/wasnorm_wordpool_576.txt	LTP303	ltpFR2	19	15	INFANT	737	n/a	n/a	0	0	0
3028131	REC_WORD	wordpools/wasnorm_wordpool_576.txt	LTP303	ltpFR2	19	15	NEUTRON	947	n/a	n/a	0	0	0
3029395	REC_WORD	wordpools/wasnorm_wordpool_576.txt	LTP303	ltpFR2	19	15	PLASTER	1085	n/a	n/a	0	0	0
3030492	REC_WORD	wordpools/wasnorm_wordpool_576.txt	LTP303	ltpFR2	19	15	FRAGRANCE	599	n/a	n/a	0	0	0
3031734	REC_WORD	wordpools/wasnorm_wordpool_576.txt	LTP303	ltpFR2	19	15	CIGAR	308	n/a	n/a	0	0	0
3033050	REC_WORD	wordpools/wasnorm_wordpool_576.txt	LTP303	ltpFR2	19	15	CRIB	407	n/a	n/a	0	0	0
3034135	REC_WORD	wordpools/wasnorm_wordpool_576.txt	LTP303	ltpFR2	19	15	FILM	565	n/a	n/a	0	0	0
3035337	REC_WORD	wordpools/wasnorm_wordpool_576.txt	LTP303	ltpFR2	19	15	QUAIL	1147	n/a	n/a	0	0	0
3036586	REC_WORD	wordpools/wasnorm_wordpool_576.txt	LTP303	ltpFR2	19	15	PARROT	1015	n/a	n/a	0	0	0
3037765	REC_WORD	wordpools/wasnorm_wordpool_576.txt	LTP303	ltpFR2	19	15	MAILBOX	857	n/a	n/a	0	0	0
3038964	REC_WORD	wordpools/wasnorm_wordpool_576.txt	LTP303	ltpFR2	19	15	HUMAN	726	n/a	n/a	0	0	0
3040128	REC_WORD	wordpools/wasnorm_wordpool_576.txt	LTP303	ltpFR2	19	15	FARMER	553	n/a	n/a	0	0	0
3086468	DISTRACTOR	n/a	LTP303	ltpFR2	19	16	n/a	n/a	n/a	n/a	0	0	0
3086468	START	n/a	LTP303	ltpFR2	19	n/a	n/a	n/a	23	n/a	n/a	n/a	n/a
3086482	PROB	n/a	LTP303	ltpFR2	19	n/a	n/a	n/a	23	17	6	6	5
3087976	PROB	n/a	LTP303	ltpFR2	19	n/a	n/a	n/a	23	19	2	9	8
3089594	PROB	n/a	LTP303	ltpFR2	19	n/a	n/a	n/a	23	19	8	3	8
3091261	PROB	n/a	LTP303	ltpFR2	19	n/a	n/a	n/a	23	19	5	7	7
3092712	PROB	n/a	LTP303	ltpFR2	19	n/a	n/a	n/a	23	21	7	7	7
3093747	PROB	n/a	LTP303	ltpFR2	19	n/a	n/a	n/a	23	15	4	7	4
3095281	PROB	n/a	LTP303	ltpFR2	19	n/a	n/a	n/a	23	15	1	8	6
3096299	PROB	n/a	LTP303	ltpFR2	19	n/a	n/a	n/a	23	16	4	5	7
3097968	PROB	n/a	LTP303	ltpFR2	19	n/a	n/a	n/a	23	10	1	5	4
3099317	PROB	n/a	LTP303	ltpFR2	19	n/a	n/a	n/a	23	10	2	1	7
3100434	PROB	n/a	LTP303	ltpFR2	19	n/a	n/a	n/a	23	13	3	8	2
3101837	PROB	n/a	LTP303	ltpFR2	19	n/a	n/a	n/a	23	20	6	5	9
3103455	PROB	n/a	LTP303	ltpFR2	19	n/a	n/a	n/a	23	8	1	2	5
3104740	PROB	n/a	LTP303	ltpFR2	19	n/a	n/a	n/a	23	24	8	9	7
3106624	PROB	n/a	LTP303	ltpFR2	19	n/a	n/a	n/a	23	18	7	3	8
3110468	STOP	n/a	LTP303	ltpFR2	19	n/a	n/a	n/a	23	n/a	n/a	n/a	n/a
3111539	WORD	wordpools/wasnorm_wordpool_576.txt	LTP303	ltpFR2	19	16	SHARK	1275	n/a	n/a	0	0	0
3114257	WORD	wordpools/wasnorm_wordpool_576.txt	LTP303	ltpFR2	19	16	PEDAL	1037	n/a	n/a	0	0	0
3116800	WORD	wordpools/wasnorm_wordpool_576.txt	LTP303	ltpFR2	19	16	OYSTER	995	n/a	n/a	0	0	0
3119479	WORD	wordpools/wasnorm_wordpool_576.txt	LTP303	ltpFR2	19	16	BACON	67	n/a	n/a	0	0	0
3121899	WORD	wordpools/wasnorm_wordpool_576.txt	LTP303	ltpFR2	19	16	TUTU	1524	n/a	n/a	0	0	0
3124350	WORD	wordpools/wasnorm_wordpool_576.txt	LTP303	ltpFR2	19	16	DOLPHIN	483	n/a	n/a	0	0	0
3127058	WORD	wordpools/wasnorm_wordpool_576.txt	LTP303	ltpFR2	19	16	BIKE	125	n/a	n/a	0	0	0
3129756	WORD	wordpools/wasnorm_wordpool_576.txt	LTP303	ltpFR2	19	16	SWIMMER	1420	n/a	n/a	0	0	0
3132241	WORD	wordpools/wasnorm_wordpool_576.txt	LTP303	ltpFR2	19	16	OUTDOORS	987	n/a	n/a	0	0	0
3134843	WORD	wordpools/wasnorm_wordpool_576.txt	LTP303	ltpFR2	19	16	ROOSTER	1209	n/a	n/a	0	0	0
3137478	WORD	wordpools/wasnorm_wordpool_576.txt	LTP303	ltpFR2	19	16	SCALLOP	1242	n/a	n/a	0	0	0
3140031	WORD	wordpools/wasnorm_wordpool_576.txt	LTP303	ltpFR2	19	16	MATCH	878	n/a	n/a	0	0	0
3142587	WORD	wordpools/wasnorm_wordpool_576.txt	LTP303	ltpFR2	19	16	KEEPER	769	n/a	n/a	0	0	0
3145106	WORD	wordpools/wasnorm_wordpool_576.txt	LTP303	ltpFR2	19	16	BRICK	172	n/a	n/a	0	0	0
3147926	WORD	wordpools/wasnorm_wordpool_576.txt	LTP303	ltpFR2	19	16	INMATE	738	n/a	n/a	0	0	0
3150691	WORD	wordpools/wasnorm_wordpool_576.txt	LTP303	ltpFR2	19	16	DRAGON	492	n/a	n/a	0	0	0
3153442	WORD	wordpools/wasnorm_wordpool_576.txt	LTP303	ltpFR2	19	16	BOYFRIEND	162	n/a	n/a	0	0	0
3155996	WORD	wordpools/wasnorm_wordpool_576.txt	LTP303	ltpFR2	19	16	RIFLE	1192	n/a	n/a	0	0	0
3158764	WORD	wordpools/wasnorm_wordpool_576.txt	LTP303	ltpFR2	19	16	SHOULDER	1294	n/a	n/a	0	0	0
3161469	WORD	wordpools/wasnorm_wordpool_576.txt	LTP303	ltpFR2	19	16	ELBOW	520	n/a	n/a	0	0	0
3164285	WORD	wordpools/wasnorm_wordpool_576.txt	LTP303	ltpFR2	19	16	CONCERT	360	n/a	n/a	0	0	0
3166905	WORD	wordpools/wasnorm_wordpool_576.txt	LTP303	ltpFR2	19	16	RACKET	1155	n/a	n/a	0	0	0
3169406	WORD	wordpools/wasnorm_wordpool_576.txt	LTP303	ltpFR2	19	16	MAILMAN	858	n/a	n/a	0	0	0
3171893	WORD	wordpools/wasnorm_wordpool_576.txt	LTP303	ltpFR2	19	16	MEAT	883	n/a	n/a	0	0	0
3173511	START	n/a	LTP303	ltpFR2	19	n/a	n/a	n/a	24	n/a	n/a	n/a	n/a
3174584	DISTRACTOR	n/a	LTP303	ltpFR2	19	16	n/a	n/a	n/a	n/a	0	0	0
3174594	PROB	n/a	LTP303	ltpFR2	19	n/a	n/a	n/a	24	17	4	7	6
3176581	PROB	n/a	LTP303	ltpFR2	19	n/a	n/a	n/a	24	13	2	2	9
3178999	PROB	n/a	LTP303	ltpFR2	19	n/a	n/a	n/a	24	7	3	3	1
3180167	PROB	n/a	LTP303	ltpFR2	19	n/a	n/a	n/a	24	23	6	9	8
3181801	PROB	n/a	LTP303	ltpFR2	19	n/a	n/a	n/a	24	12	7	1	4
3183453	PROB	n/a	LTP303	ltpFR2	19	n/a	n/a	n/a	24	17	6	2	9
3185219	PROB	n/a	LTP303	ltpFR2	19	n/a	n/a	n/a	24	9	1	2	6
3186723	PROB	n/a	LTP303	ltpFR2	19	n/a	n/a	n/a	24	16	7	1	8
3188642	PROB	n/a	LTP303	ltpFR2	19	n/a	n/a	n/a	24	12	2	7	3
3189874	PROB	n/a	LTP303	ltpFR2	19	n/a	n/a	n/a	24	14	8	2	4
3190994	PROB	n/a	LTP303	ltpFR2	19	n/a	n/a	n/a	24	19	6	8	5
3193159	PROB	n/a	LTP303	ltpFR2	19	n/a	n/a	n/a	24	14	3	7	4
3194294	PROB	n/a	LTP303	ltpFR2	19	n/a	n/a	n/a	24	9	2	6	1
3197511	STOP	n/a	LTP303	ltpFR2	19	n/a	n/a	n/a	24	n/a	n/a	n/a	n/a
3199383	REC_START	n/a	LTP303	ltpFR2	19	16	n/a	n/a	n/a	n/a	0	0	0
3200136	REC_WORD	wordpools/wasnorm_wordpool_576.txt	LTP303	ltpFR2	19	16	CONCERT	360	n/a	n/a	0	0	0
3201379	REC_WORD	wordpools/wasnorm_wordpool_576.txt	LTP303	ltpFR2	19	16	RACKET	1155	n/a	n/a	0	0	0
3202571	REC_WORD	wordpools/wasnorm_wordpool_576.txt	LTP303	ltpFR2	19	16	MAILMAN	858	n/a	n/a	0	0	0
3203879	REC_WORD	wordpools/wasnorm_wordpool_576.txt	LTP303	ltpFR2	19	16	MEAT	883	n/a	n/a	0	0	0
3205092	REC_WORD	wordpools/wasnorm_wordpool_576.txt	LTP303	ltpFR2	19	16	PEDAL	1037	n/a	n/a	0	0	0
3206209	REC_WORD	wordpools/wasnorm_wordpool_576.txt	LTP303	ltpFR2	19	16	SHARK	1275	n/a	n/a	0	0	0
3207500	REC_WORD	wordpools/wasnorm_wordpool_576.txt	LTP303	ltpFR2	19	16	OYSTER	995	n/a	n/a	0	0	0
3208740	REC_WORD	wordpools/wasnorm_wordpool_576.txt	LTP303	ltpFR2	19	16	BACON	67	n/a	n/a	0	0	0
3209888	REC_WORD	wordpools/wasnorm_wordpool_576.txt	LTP303	ltpFR2	19	16	TUTU	1524	n/a	n/a	0	0	0
3211981	REC_WORD	wordpools/wasnorm_wordpool_576.txt	LTP303	ltpFR2	19	16	DOLPHIN	483	n/a	n/a	0	0	0
3215750	REC_WORD	wordpools/wasnorm_wordpool_576.txt	LTP303	ltpFR2	19	16	BIKE	125	n/a	n/a	0	0	0
3218227	REC_WORD	wordpools/wasnorm_wordpool_576.txt	LTP303	ltpFR2	19	16	SWIMMER	1420	n/a	n/a	0	0	0
3219490	REC_WORD	wordpools/wasnorm_wordpool_576.txt	LTP303	ltpFR2	19	16	OUTDOORS	987	n/a	n/a	0	0	0
3223924	REC_WORD	wordpools/wasnorm_wordpool_576.txt	LTP303	ltpFR2	19	16	ROOSTER	1209	n/a	n/a	0	0	0
3225446	REC_WORD	wordpools/wasnorm_wordpool_576.txt	LTP303	ltpFR2	19	16	SCALLOP	1242	n/a	n/a	0	0	0
3226820	REC_WORD	wordpools/wasnorm_wordpool_576.txt	LTP303	ltpFR2	19	16	MATCH	878	n/a	n/a	0	0	0
3228237	REC_WORD	wordpools/wasnorm_wordpool_576.txt	LTP303	ltpFR2	19	16	KEEPER	769	n/a	n/a	0	0	0
3231211	REC_WORD	wordpools/wasnorm_wordpool_576.txt	LTP303	ltpFR2	19	16	BRICK	172	n/a	n/a	0	0	0
3233100	REC_WORD	wordpools/wasnorm_wordpool_576.txt	LTP303	ltpFR2	19	16	INMATE	738	n/a	n/a	0	0	0
3234447	REC_WORD	wordpools/wasnorm_wordpool_576.txt	LTP303	ltpFR2	19	16	DRAGON	492	n/a	n/a	0	0	0
3238425	REC_WORD	wordpools/wasnorm_wordpool_576.txt	LTP303	ltpFR2	19	16	BOYFRIEND	162	n/a	n/a	0	0	0
3239695	REC_WORD	wordpools/wasnorm_wordpool_576.txt	LTP303	ltpFR2	19	16	RIFLE	1192	n/a	n/a	0	0	0
3240815	REC_WORD	wordpools/wasnorm_wordpool_576.txt	LTP303	ltpFR2	19	16	SHOULDER	1294	n/a	n/a	0	0	0
3242083	REC_WORD	wordpools/wasnorm_wordpool_576.txt	LTP303	ltpFR2	19	16	ELBOW	520	n/a	n/a	0	0	0
3275917	REST_REWET	n/a	LTP303	ltpFR2	19	16	n/a	n/a	n/a	n/a	0	0	0
3494253	DISTRACTOR	n/a	LTP303	ltpFR2	19	17	n/a	n/a	n/a	n/a	0	0	0
3494253	START	n/a	LTP303	ltpFR2	19	n/a	n/a	n/a	25	n/a	n/a	n/a	n/a
3494269	PROB	n/a	LTP303	ltpFR2	19	n/a	n/a	n/a	25	20	9	2	9
3496204	PROB	n/a	LTP303	ltpFR2	19	n/a	n/a	n/a	25	17	7	1	9
3498088	PROB	n/a	LTP303	ltpFR2	19	n/a	n/a	n/a	25	14	8	4	2
3499355	PROB	n/a	LTP303	ltpFR2	19	n/a	n/a	n/a	25	20	3	9	8
3500959	PROB	n/a	LTP303	ltpFR2	19	n/a	n/a	n/a	25	16	5	7	4
3503259	PROB	n/a	LTP303	ltpFR2	19	n/a	n/a	n/a	25	11	5	5	1
3504143	PROB	n/a	LTP303	ltpFR2	19	n/a	n/a	n/a	25	10	1	1	8
3505261	PROB	n/a	LTP303	ltpFR2	19	n/a	n/a	n/a	25	18	6	3	9
3507379	PROB	n/a	LTP303	ltpFR2	19	n/a	n/a	n/a	25	22	9	4	9
3509731	PROB	n/a	LTP303	ltpFR2	19	n/a	n/a	n/a	25	19	3	7	9
3511082	PROB	n/a	LTP303	ltpFR2	19	n/a	n/a	n/a	25	13	7	4	2
3513569	PROB	n/a	LTP303	ltpFR2	19	n/a	n/a	n/a	25	18	9	8	1
3515287	PROB	n/a	LTP303	ltpFR2	19	n/a	n/a	n/a	25	16	6	4	6
3517467	STOP	n/a	LTP303	ltpFR2	19	n/a	n/a	n/a	25	n/a	n/a	n/a	n/a
3519289	WORD	wordpools/wasnorm_wordpool_576.txt	LTP303	ltpFR2	19	17	DOUGHNUT	490	n/a	n/a	0	0	0
3522075	WORD	wordpools/wasnorm_wordpool_576.txt	LTP303	ltpFR2	19	17	SURVEY	1414	n/a	n/a	0	0	0
3524533	WORD	wordpools/wasnorm_wordpool_576.txt	LTP303	ltpFR2	19	17	SIBLING	1301	n/a	n/a	0	0	0
3527202	WORD	wordpools/wasnorm_wordpool_576.txt	LTP303	ltpFR2	19	17	UMPIRE	1535	n/a	n/a	0	0	0
3530004	WORD	wordpools/wasnorm_wordpool_576.txt	LTP303	ltpFR2	19	17	BUBBLE	183	n/a	n/a	0	0	0
3532618	WORD	wordpools/wasnorm_wordpool_576.txt	LTP303	ltpFR2	19	17	SUITCASE	1403	n/a	n/a	0	0	0
3535269	WORD	wordpools/wasnorm_wordpool_576.txt	LTP303	ltpFR2	19	17	FLOWER	584	n/a	n/a	0	0	0
3537829	WORD	wordpools/wasnorm_wordpool_576.txt	LTP303	ltpFR2	19	17	ORCHID	982	n/a	n/a	0	0	0
3540606	WORD	wordpools/wasnorm_wordpool_576.txt	LTP303	ltpFR2	19	17	CARRIAGE	248	n/a	n/a	0	0	0
3543308	WORD	wordpools/wasnorm_wordpool_576.txt	LTP303	ltpFR2	19	17	BULLET	194	n/a	n/a	0	0	0
3546118	WORD	wordpools/wasnorm_wordpool_576.txt	LTP303	ltpFR2	19	17	GRIZZLY	662	n/a	n/a	0	0	0
3548805	WORD	wordpools/wasnorm_wordpool_576.txt	LTP303	ltpFR2	19	17	SISTER	1312	n/a	n/a	0	0	0
3551399	WORD	wordpools/wasnorm_wordpool_576.txt	LTP303	ltpFR2	19	17	LILY	821	n/a	n/a	0	0	0
3553893	WORD	wordpools/wasnorm_wordpool_576.txt	LTP303	ltpFR2	19	17	ROBBER	1197	n/a	n/a	0	0	0
3556386	WORD	wordpools/wasnorm_wordpool_576.txt	LTP303	ltpFR2	19	17	SUSPECT	1415	n/a	n/a	0	0	0
3559072	WORD	wordpools/wasnorm_wordpool_576.txt	LTP303	ltpFR2	19	17	LOFT	840	n/a	n/a	0	0	0
3561541	WORD	wordpools/wasnorm_wordpool_576.txt	LTP303	ltpFR2	19	17	BASEMENT	94	n/a	n/a	0	0	0
3564176	WORD	wordpools/wasnorm_wordpool_576.txt	LTP303	ltpFR2	19	17	LAGOON	795	n/a	n/a	0	0	0
3566995	WORD	wordpools/wasnorm_wordpool_576.txt	LTP303	ltpFR2	19	17	PARTNER	1017	n/a	n/a	0	0	0
3569530	WORD	wordpools/wasnorm_wordpool_576.txt	LTP303	ltpFR2	19	17	CRATER	400	n/a	n/a	0	0	0
3572125	WORD	wordpools/wasnorm_wordpool_576.txt	LTP303	ltpFR2	19	17	STAR	1373	n/a	n/a	0	0	0
3574778	WORD	wordpools/wasnorm_wordpool_576.txt	LTP303	ltpFR2	19	17	LADDER	793	n/a	n/a	0	0	0
3577496	WORD	wordpools/wasnorm_wordpool_576.txt	LTP303	ltpFR2	19	17	PUPPY	1144	n/a	n/a	0	0	0
3580298	WORD	wordpools/wasnorm_wordpool_576.txt	LTP303	ltpFR2	19	17	COMET	353	n/a	n/a	0	0	0
3581908	START	n/a	LTP303	ltpFR2	19	n/a	n/a	n/a	26	n/a	n/a	n/a	n/a
3583053	DISTRACTOR	n/a	LTP303	ltpFR2	19	17	n/a	n/a	n/a	n/a	0	0	0
3583058	PROB	n/a	LTP303	ltpFR2	19	n/a	n/a	n/a	26	7	2	3	2
3584708	PROB	n/a	LTP303	ltpFR2	19	n/a	n/a	n/a	26	17	2	8	7
3586142	PROB	n/a	LTP303	ltpFR2	19	n/a	n/a	n/a	26	8	1	1	6
3587276	PROB	n/a	LTP303	ltpFR2	19	n/a	n/a	n/a	26	14	2	9	3
3588979	PROB	n/a	LTP303	ltpFR2	19	n/a	n/a	n/a	26	10	2	7	1
3590897	PROB	n/a	LTP303	ltpFR2	19	n/a	n/a	n/a	26	18	7	8	3
3592331	PROB	n/a	LTP303	ltpFR2	19	n/a	n/a	n/a	26	19	9	3	7
3593900	PROB	n/a	LTP303	ltpFR2	19	n/a	n/a	n/a	26	16	9	6	1
3595566	PROB	n/a	LTP303	ltpFR2	19	n/a	n/a	n/a	26	14	9	3	2
3596885	PROB	n/a	LTP303	ltpFR2	19	n/a	n/a	n/a	26	17	8	8	1
3598035	PROB	n/a	LTP303	ltpFR2	19	n/a	n/a	n/a	26	14	8	4	2
3599386	PROB	n/a	LTP303	ltpFR2	19	n/a	n/a	n/a	26	9	4	3	2
3600873	PROB	n/a	LTP303	ltpFR2	19	n/a	n/a	n/a	26	11	5	3	3
3602757	PROB	n/a	LTP303	ltpFR2	19	n/a	n/a	n/a	26	12	3	8	1
3604679	STOP	n/a	LTP303	ltpFR2	19	n/a	n/a	n/a	26	n/a	n/a	n/a	n/a
3607828	REC_START	n/a	LTP303	ltpFR2	19	17	n/a	n/a	n/a	n/a	0	0	0
3609780	REC_WORD	wordpools/wasnorm_wordpool_576.txt	LTP303	ltpFR2	19	17	DOUGHNUT	490	n/a	n/a	0	0	0
3610512	REC_WORD	wordpools/wasnorm_wordpool_576.txt	LTP303	ltpFR2	19	17	SURVEY	1414	n/a	n/a	0	0	0
3611620	REC_WORD	wordpools/wasnorm_wordpool_576.txt	LTP303	ltpFR2	19	17	SIBLING	1301	n/a	n/a	0	0	0
