onset	duration	trial_type	sample	stim_file	subject	experiment	session	trial	item_name	item_num	list	answer	test_x	test_y	test_z
225.978	n/a	SESS_START	112989	n/a	LTP304	ltpFR2	6	n/a	n/a	n/a	n/a	n/a	0	0	0
239.708	n/a	START	119854	n/a	LTP304	ltpFR2	6	n/a	n/a	n/a	-1	n/a	n/a	n/a	n/a
239.74	n/a	PROB	119870	n/a	LTP304	ltpFR2	6	n/a	n/a	n/a	-1	14	3	2	9
241.59	n/a	PROB	120795	n/a	LTP304	ltpFR2	6	n/a	n/a	n/a	-1	15	1	6	8
243.158	n/a	PROB	121579	n/a	LTP304	ltpFR2	6	n/a	n/a	n/a	-1	20	5	8	7
245.91	n/a	PROB	122955	n/a	LTP304	ltpFR2	6	n/a	n/a	n/a	-1	16	7	1	8
248.028	n/a	PROB	124014	n/a	LTP304	ltpFR2	6	n/a	n/a	n/a	-1	11	2	1	8
251.708	n/a	STOP	125854	n/a	LTP304	ltpFR2	6	n/a	n/a	n/a	-1	n/a	n/a	n/a	n/a
283.472	n/a	WORD	141736	wordpools/wasnorm_wordpool_576.txt	LTP304	ltpFR2	6	1	BRACES	164	n/a	n/a	0	0	0
286.108	n/a	WORD	143054	wordpools/wasnorm_wordpool_576.txt	LTP304	ltpFR2	6	1	KEEPER	769	n/a	n/a	0	0	0
288.928	n/a	WORD	144464	wordpools/wasnorm_wordpool_576.txt	LTP304	ltpFR2	6	1	ICING	732	n/a	n/a	0	0	0
291.664	n/a	WORD	145832	wordpools/wasnorm_wordpool_576.txt	LTP304	ltpFR2	6	1	HUSBAND	728	n/a	n/a	0	0	0
294.232	n/a	WORD	147116	wordpools/wasnorm_wordpool_576.txt	LTP304	ltpFR2	6	1	PARTNER	1017	n/a	n/a	0	0	0
296.852	n/a	WORD	148426	wordpools/wasnorm_wordpool_576.txt	LTP304	ltpFR2	6	1	SLOPE	1328	n/a	n/a	0	0	0
299.37	n/a	WORD	149685	wordpools/wasnorm_wordpool_576.txt	LTP304	ltpFR2	6	1	CIGAR	308	n/a	n/a	0	0	0
302.072	n/a	WORD	151036	wordpools/wasnorm_wordpool_576.txt	LTP304	ltpFR2	6	1	DANDRUFF	439	n/a	n/a	0	0	0
304.64	n/a	WORD	152320	wordpools/wasnorm_wordpool_576.txt	LTP304	ltpFR2	6	1	HEADBAND	696	n/a	n/a	0	0	0
307.308	n/a	WORD	153654	wordpools/wasnorm_wordpool_576.txt	LTP304	ltpFR2	6	1	LACE	792	n/a	n/a	0	0	0
309.862	n/a	WORD	154931	wordpools/wasnorm_wordpool_576.txt	LTP304	ltpFR2	6	1	CHAPEL	280	n/a	n/a	0	0	0
312.48	n/a	WORD	156240	wordpools/wasnorm_wordpool_576.txt	LTP304	ltpFR2	6	1	TWIG	1527	n/a	n/a	0	0	0
315.032	n/a	WORD	157516	wordpools/wasnorm_wordpool_576.txt	LTP304	ltpFR2	6	1	SALMON	1227	n/a	n/a	0	0	0
317.818	n/a	WORD	158909	wordpools/wasnorm_wordpool_576.txt	LTP304	ltpFR2	6	1	GARDEN	623	n/a	n/a	0	0	0
320.536	n/a	WORD	160268	wordpools/wasnorm_wordpool_576.txt	LTP304	ltpFR2	6	1	TART	1436	n/a	n/a	0	0	0
323.256	n/a	WORD	161628	wordpools/wasnorm_wordpool_576.txt	LTP304	ltpFR2	6	1	STAPLE	1371	n/a	n/a	0	0	0
325.824	n/a	WORD	162912	wordpools/wasnorm_wordpool_576.txt	LTP304	ltpFR2	6	1	CHAMPAGNE	278	n/a	n/a	0	0	0
328.61	n/a	WORD	164305	wordpools/wasnorm_wordpool_576.txt	LTP304	ltpFR2	6	1	BRANDY	169	n/a	n/a	0	0	0
331.412	n/a	WORD	165706	wordpools/wasnorm_wordpool_576.txt	LTP304	ltpFR2	6	1	SEAFOOD	1260	n/a	n/a	0	0	0
333.914	n/a	WORD	166957	wordpools/wasnorm_wordpool_576.txt	LTP304	ltpFR2	6	1	PACKAGE	997	n/a	n/a	0	0	0
336.666	n/a	WORD	168333	wordpools/wasnorm_wordpool_576.txt	LTP304	ltpFR2	6	1	SWORD	1423	n/a	n/a	0	0	0
339.2	n/a	WORD	169600	wordpools/wasnorm_wordpool_576.txt	LTP304	ltpFR2	6	1	VALLEY	1545	n/a	n/a	0	0	0
341.97	n/a	WORD	170985	wordpools/wasnorm_wordpool_576.txt	LTP304	ltpFR2	6	1	SHORTCAKE	1292	n/a	n/a	0	0	0
344.454	n/a	WORD	172227	wordpools/wasnorm_wordpool_576.txt	LTP304	ltpFR2	6	1	LIGHTNING	820	n/a	n/a	0	0	0
346.072	n/a	START	173036	n/a	LTP304	ltpFR2	6	n/a	n/a	n/a	1	n/a	n/a	n/a	n/a
347.218	n/a	DISTRACTOR	173609	n/a	LTP304	ltpFR2	6	1	n/a	n/a	n/a	n/a	0	0	0
347.24	n/a	PROB	173620	n/a	LTP304	ltpFR2	6	n/a	n/a	n/a	1	14	4	5	5
349.092	n/a	PROB	174546	n/a	LTP304	ltpFR2	6	n/a	n/a	n/a	1	16	1	8	7
350.492	n/a	PROB	175246	n/a	LTP304	ltpFR2	6	n/a	n/a	n/a	1	5	1	2	2
351.694	n/a	PROB	175847	n/a	LTP304	ltpFR2	6	n/a	n/a	n/a	1	16	6	1	9
353.212	n/a	PROB	176606	n/a	LTP304	ltpFR2	6	n/a	n/a	n/a	1	12	7	2	2
355.148	n/a	PROB	177574	n/a	LTP304	ltpFR2	6	n/a	n/a	n/a	1	10	6	2	2
356.998	n/a	PROB	178499	n/a	LTP304	ltpFR2	6	n/a	n/a	n/a	1	19	9	2	8
358.934	n/a	PROB	179467	n/a	LTP304	ltpFR2	6	n/a	n/a	n/a	1	12	6	1	5
360.534	n/a	PROB	180267	n/a	LTP304	ltpFR2	6	n/a	n/a	n/a	1	17	2	9	6
362.17	n/a	PROB	181085	n/a	LTP304	ltpFR2	6	n/a	n/a	n/a	1	18	5	7	6
363.954	n/a	PROB	181977	n/a	LTP304	ltpFR2	6	n/a	n/a	n/a	1	18	4	9	5
365.906	n/a	PROB	182953	n/a	LTP304	ltpFR2	6	n/a	n/a	n/a	1	10	9	5	6
368.592	n/a	STOP	184296	n/a	LTP304	ltpFR2	6	n/a	n/a	n/a	1	n/a	n/a	n/a	n/a
371.862	n/a	REC_START	185931	n/a	LTP304	ltpFR2	6	1	n/a	n/a	n/a	n/a	0	0	0
372.906	n/a	REC_WORD	186453	wordpools/wasnorm_wordpool_576.txt	LTP304	ltpFR2	6	1	BRACES	164	n/a	n/a	0	0	0
373.98	n/a	REC_WORD	186990	wordpools/wasnorm_wordpool_576.txt	LTP304	ltpFR2	6	1	ICING	732	n/a	n/a	0	0	0
375.272	n/a	REC_WORD	187636	wordpools/wasnorm_wordpool_576.txt	LTP304	ltpFR2	6	1	SLOPE	1328	n/a	n/a	0	0	0
376.554	n/a	REC_WORD	188277	wordpools/wasnorm_wordpool_576.txt	LTP304	ltpFR2	6	1	KEEPER	769	n/a	n/a	0	0	0
378.608	n/a	REC_WORD	189304	wordpools/wasnorm_wordpool_576.txt	LTP304	ltpFR2	6	1	HUSBAND	728	n/a	n/a	0	0	0
380.702	n/a	REC_WORD	190351	wordpools/wasnorm_wordpool_576.txt	LTP304	ltpFR2	6	1	PARTNER	1017	n/a	n/a	0	0	0
382.422	n/a	REC_WORD	191211	wordpools/wasnorm_wordpool_576.txt	LTP304	ltpFR2	6	1	CHAPEL	280	n/a	n/a	0	0	0
383.82	n/a	REC_WORD	191910	wordpools/wasnorm_wordpool_576.txt	LTP304	ltpFR2	6	1	LACE	792	n/a	n/a	0	0	0
385.112	n/a	REC_WORD	192556	wordpools/wasnorm_wordpool_576.txt	LTP304	ltpFR2	6	1	SALMON	1227	n/a	n/a	0	0	0
385.954	n/a	REC_WORD	192977	wordpools/wasnorm_wordpool_576.txt	LTP304	ltpFR2	6	1	TWIG	1527	n/a	n/a	0	0	0
388.98	n/a	REC_WORD	194490	wordpools/wasnorm_wordpool_576.txt	LTP304	ltpFR2	6	1	GARDEN	623	n/a	n/a	0	0	0
390.698	n/a	REC_WORD	195349	wordpools/wasnorm_wordpool_576.txt	LTP304	ltpFR2	6	1	TART	1436	n/a	n/a	0	0	0
392.196	n/a	REC_WORD	196098	wordpools/wasnorm_wordpool_576.txt	LTP304	ltpFR2	6	1	CHAMPAGNE	278	n/a	n/a	0	0	0
393.804	n/a	REC_WORD	196902	wordpools/wasnorm_wordpool_576.txt	LTP304	ltpFR2	6	1	VALLEY	1545	n/a	n/a	0	0	0
418.856	n/a	REC_WORD	209428	wordpools/wasnorm_wordpool_576.txt	LTP304	ltpFR2	6	1	LIGHTNING	820	n/a	n/a	0	0	0
425.038	n/a	REC_WORD	212519	wordpools/wasnorm_wordpool_576.txt	LTP304	ltpFR2	6	1	CIGAR	308	n/a	n/a	0	0	0
426.052	n/a	REC_WORD	213026	wordpools/wasnorm_wordpool_576.txt	LTP304	ltpFR2	6	1	DANDRUFF	439	n/a	n/a	0	0	0
426.65	n/a	REC_WORD	213325	wordpools/wasnorm_wordpool_576.txt	LTP304	ltpFR2	6	1	HEADBAND	696	n/a	n/a	0	0	0
462.334	n/a	WORD	231167	wordpools/wasnorm_wordpool_576.txt	LTP304	ltpFR2	6	2	JUNGLE	764	n/a	n/a	0	0	0
464.902	n/a	WORD	232451	wordpools/wasnorm_wordpool_576.txt	LTP304	ltpFR2	6	2	TROUT	1511	n/a	n/a	0	0	0
467.69	n/a	WORD	233845	wordpools/wasnorm_wordpool_576.txt	LTP304	ltpFR2	6	2	MOP	916	n/a	n/a	0	0	0
470.474	n/a	WORD	235237	wordpools/wasnorm_wordpool_576.txt	LTP304	ltpFR2	6	2	PRIMATE	1123	n/a	n/a	0	0	0
473.176	n/a	WORD	236588	wordpools/wasnorm_wordpool_576.txt	LTP304	ltpFR2	6	2	JELLY	755	n/a	n/a	0	0	0
475.728	n/a	WORD	237864	wordpools/wasnorm_wordpool_576.txt	LTP304	ltpFR2	6	2	RUG	1215	n/a	n/a	0	0	0
478.18	n/a	WORD	239090	wordpools/wasnorm_wordpool_576.txt	LTP304	ltpFR2	6	2	HOUND	724	n/a	n/a	0	0	0
480.948	n/a	WORD	240474	wordpools/wasnorm_wordpool_576.txt	LTP304	ltpFR2	6	2	HIKER	708	n/a	n/a	0	0	0
483.518	n/a	WORD	241759	wordpools/wasnorm_wordpool_576.txt	LTP304	ltpFR2	6	2	FRIEND	606	n/a	n/a	0	0	0
485.97	n/a	WORD	242985	wordpools/wasnorm_wordpool_576.txt	LTP304	ltpFR2	6	2	TABLE	1426	n/a	n/a	0	0	0
488.64	n/a	WORD	244320	wordpools/wasnorm_wordpool_576.txt	LTP304	ltpFR2	6	2	DRAGON	492	n/a	n/a	0	0	0
491.242	n/a	WORD	245621	wordpools/wasnorm_wordpool_576.txt	LTP304	ltpFR2	6	2	LAMP	798	n/a	n/a	0	0	0
493.712	n/a	WORD	246856	wordpools/wasnorm_wordpool_576.txt	LTP304	ltpFR2	6	2	SUMMIT	1405	n/a	n/a	0	0	0
496.33	n/a	WORD	248165	wordpools/wasnorm_wordpool_576.txt	LTP304	ltpFR2	6	2	RECEIPT	1173	n/a	n/a	0	0	0
498.88	n/a	WORD	249440	wordpools/wasnorm_wordpool_576.txt	LTP304	ltpFR2	6	2	BANKER	84	n/a	n/a	0	0	0
501.348	n/a	WORD	250674	wordpools/wasnorm_wordpool_576.txt	LTP304	ltpFR2	6	2	BLOUSE	139	n/a	n/a	0	0	0
503.904	n/a	WORD	251952	wordpools/wasnorm_wordpool_576.txt	LTP304	ltpFR2	6	2	BOARD	143	n/a	n/a	0	0	0
506.688	n/a	WORD	253344	wordpools/wasnorm_wordpool_576.txt	LTP304	ltpFR2	6	2	CONTRACT	368	n/a	n/a	0	0	0
509.422	n/a	WORD	254711	wordpools/wasnorm_wordpool_576.txt	LTP304	ltpFR2	6	2	LODGE	839	n/a	n/a	0	0	0
512.144	n/a	WORD	256072	wordpools/wasnorm_wordpool_576.txt	LTP304	ltpFR2	6	2	FOOTBALL	591	n/a	n/a	0	0	0
514.76	n/a	WORD	257380	wordpools/wasnorm_wordpool_576.txt	LTP304	ltpFR2	6	2	COTTAGE	384	n/a	n/a	0	0	0
517.212	n/a	WORD	258606	wordpools/wasnorm_wordpool_576.txt	LTP304	ltpFR2	6	2	CABIN	211	n/a	n/a	0	0	0
519.896	n/a	WORD	259948	wordpools/wasnorm_wordpool_576.txt	LTP304	ltpFR2	6	2	INMATE	738	n/a	n/a	0	0	0
522.532	n/a	WORD	261266	wordpools/wasnorm_wordpool_576.txt	LTP304	ltpFR2	6	2	BATHTUB	100	n/a	n/a	0	0	0
524.138	n/a	START	262069	n/a	LTP304	ltpFR2	6	n/a	n/a	n/a	2	n/a	n/a	n/a	n/a
525.102	n/a	DISTRACTOR	262551	n/a	LTP304	ltpFR2	6	2	n/a	n/a	n/a	n/a	0	0	0
525.118	n/a	PROB	262559	n/a	LTP304	ltpFR2	6	n/a	n/a	n/a	2	17	5	6	6
527.152	n/a	PROB	263576	n/a	LTP304	ltpFR2	6	n/a	n/a	n/a	2	15	5	6	4
528.258	n/a	PROB	264129	n/a	LTP304	ltpFR2	6	n/a	n/a	n/a	2	19	3	9	7
530.576	n/a	PROB	265288	n/a	LTP304	ltpFR2	6	n/a	n/a	n/a	2	22	9	4	9
533.562	n/a	PROB	266781	n/a	LTP304	ltpFR2	6	n/a	n/a	n/a	2	7	2	4	1
535.046	n/a	PROB	267523	n/a	LTP304	ltpFR2	6	n/a	n/a	n/a	2	18	3	7	8
536.33	n/a	PROB	268165	n/a	LTP304	ltpFR2	6	n/a	n/a	n/a	2	18	5	9	4
538.332	n/a	PROB	269166	n/a	LTP304	ltpFR2	6	n/a	n/a	n/a	2	12	8	2	2
540.2	n/a	PROB	270100	n/a	LTP304	ltpFR2	6	n/a	n/a	n/a	2	18	5	5	8
541.418	n/a	PROB	270709	n/a	LTP304	ltpFR2	6	n/a	n/a	n/a	2	19	7	8	4
544.236	n/a	PROB	272118	n/a	LTP304	ltpFR2	6	n/a	n/a	n/a	2	16	5	4	7
547.118	n/a	STOP	273559	n/a	LTP304	ltpFR2	6	n/a	n/a	n/a	2	n/a	n/a	n/a	n/a
549.994	n/a	REC_START	274997	n/a	LTP304	ltpFR2	6	2	n/a	n/a	n/a	n/a	0	0	0
554.074	n/a	REC_WORD	277037	wordpools/wasnorm_wordpool_576.txt	LTP304	ltpFR2	6	2	JUNGLE	764	n/a	n/a	0	0	0
554.788	n/a	REC_WORD	277394	wordpools/wasnorm_wordpool_576.txt	LTP304	ltpFR2	6	2	TROUT	1511	n/a	n/a	0	0	0
557.512	n/a	REC_WORD	278756	wordpools/wasnorm_wordpool_576.txt	LTP304	ltpFR2	6	2	PRIMATE	1123	n/a	n/a	0	0	0
558.918	n/a	REC_WORD	279459	wordpools/wasnorm_wordpool_576.txt	LTP304	ltpFR2	6	2	RUG	1215	n/a	n/a	0	0	0
559.664	n/a	REC_WORD	279832	wordpools/wasnorm_wordpool_576.txt	LTP304	ltpFR2	6	2	HOUND	724	n/a	n/a	0	0	0
560.532	n/a	REC_WORD	280266	wordpools/wasnorm_wordpool_576.txt	LTP304	ltpFR2	6	2	FRIEND	606	n/a	n/a	0	0	0
561.046	n/a	REC_WORD	280523	wordpools/wasnorm_wordpool_576.txt	LTP304	ltpFR2	6	2	HIKER	708	n/a	n/a	0	0	0
563.118	n/a	REC_WORD	281559	wordpools/wasnorm_wordpool_576.txt	LTP304	ltpFR2	6	2	DRAGON	492	n/a	n/a	0	0	0
563.644	n/a	REC_WORD	281822	wordpools/wasnorm_wordpool_576.txt	LTP304	ltpFR2	6	2	LAMP	798	n/a	n/a	0	0	0
564.452	n/a	REC_WORD	282226	wordpools/wasnorm_wordpool_576.txt	LTP304	ltpFR2	6	2	BLOUSE	139	n/a	n/a	0	0	0
566.6	n/a	REC_WORD	283300	wordpools/wasnorm_wordpool_576.txt	LTP304	ltpFR2	6	2	RECEIPT	1173	n/a	n/a	0	0	0
567.802	n/a	REC_WORD	283901	wordpools/wasnorm_wordpool_576.txt	LTP304	ltpFR2	6	2	BANKER	84	n/a	n/a	0	0	0
568.536	n/a	REC_WORD	284268	wordpools/wasnorm_wordpool_576.txt	LTP304	ltpFR2	6	2	CONTRACT	368	n/a	n/a	0	0	0
570.936	n/a	REC_WORD	285468	wordpools/wasnorm_wordpool_576.txt	LTP304	ltpFR2	6	2	COTTAGE	384	n/a	n/a	0	0	0
571.544	n/a	REC_WORD	285772	wordpools/wasnorm_wordpool_576.txt	LTP304	ltpFR2	6	2	CABIN	211	n/a	n/a	0	0	0
572.358	n/a	REC_WORD_VV	286179	wordpools/wasnorm_wordpool_576.txt	LTP304	ltpFR2	6	2	<>	-1	n/a	n/a	0	0	0
572.668	n/a	REC_WORD	286334	wordpools/wasnorm_wordpool_576.txt	LTP304	ltpFR2	6	2	COTTAGE	384	n/a	n/a	0	0	0
573.052	n/a	REC_WORD	286526	wordpools/wasnorm_wordpool_576.txt	LTP304	ltpFR2	6	2	LODGE	839	n/a	n/a	0	0	0
594.924	n/a	REC_WORD	297462	wordpools/wasnorm_wordpool_576.txt	LTP304	ltpFR2	6	2	PRIMATE	1123	n/a	n/a	0	0	0
600.986	n/a	REC_WORD	300493	wordpools/wasnorm_wordpool_576.txt	LTP304	ltpFR2	6	2	TABLE	1426	n/a	n/a	0	0	0
601.616	n/a	REC_WORD	300808	wordpools/wasnorm_wordpool_576.txt	LTP304	ltpFR2	6	2	TABLET	1427	n/a	n/a	0	0	0
606.202	n/a	REC_WORD_VV	303101	wordpools/wasnorm_wordpool_576.txt	LTP304	ltpFR2	6	2	<>	-1	n/a	n/a	0	0	0
607.13	n/a	REC_WORD	303565	wordpools/wasnorm_wordpool_576.txt	LTP304	ltpFR2	6	2	BLOCK	-1	n/a	n/a	0	0	0
640.422	n/a	DISTRACTOR	320211	n/a	LTP304	ltpFR2	6	3	n/a	n/a	n/a	n/a	0	0	0
640.422	n/a	START	320211	n/a	LTP304	ltpFR2	6	n/a	n/a	n/a	3	n/a	n/a	n/a	n/a
640.436	n/a	PROB	320218	n/a	LTP304	ltpFR2	6	n/a	n/a	n/a	3	12	2	3	7
641.586	n/a	PROB	320793	n/a	LTP304	ltpFR2	6	n/a	n/a	n/a	3	17	7	9	1
642.772	n/a	PROB	321386	n/a	LTP304	ltpFR2	6	n/a	n/a	n/a	3	13	7	2	4
644.472	n/a	PROB	322236	n/a	LTP304	ltpFR2	6	n/a	n/a	n/a	3	20	5	8	7
649.712	n/a	PROB	324856	n/a	LTP304	ltpFR2	6	n/a	n/a	n/a	3	16	2	8	6
651.144	n/a	PROB	325572	n/a	LTP304	ltpFR2	6	n/a	n/a	n/a	3	5	2	2	1
652.212	n/a	PROB	326106	n/a	LTP304	ltpFR2	6	n/a	n/a	n/a	3	10	8	1	1
653.982	n/a	PROB	326991	n/a	LTP304	ltpFR2	6	n/a	n/a	n/a	3	18	1	9	8
655.35	n/a	PROB	327675	n/a	LTP304	ltpFR2	6	n/a	n/a	n/a	3	16	2	9	5
657.218	n/a	PROB	328609	n/a	LTP304	ltpFR2	6	n/a	n/a	n/a	3	21	8	6	7
659.418	n/a	PROB	329709	n/a	LTP304	ltpFR2	6	n/a	n/a	n/a	3	12	8	2	2
660.84	n/a	PROB	330420	n/a	LTP304	ltpFR2	6	n/a	n/a	n/a	3	15	2	9	4
662.898	n/a	STOP	331449	n/a	LTP304	ltpFR2	6	n/a	n/a	n/a	3	n/a	n/a	n/a	n/a
665.558	n/a	WORD	332779	wordpools/wasnorm_wordpool_576.txt	LTP304	ltpFR2	6	3	KITCHEN	778	n/a	n/a	0	0	0
668.244	n/a	WORD	334122	wordpools/wasnorm_wordpool_576.txt	LTP304	ltpFR2	6	3	PUPIL	1143	n/a	n/a	0	0	0
671.014	n/a	WORD	335507	wordpools/wasnorm_wordpool_576.txt	LTP304	ltpFR2	6	3	DRIVER	499	n/a	n/a	0	0	0
673.632	n/a	WORD	336816	wordpools/wasnorm_wordpool_576.txt	LTP304	ltpFR2	6	3	FIREMAN	569	n/a	n/a	0	0	0
676.386	n/a	WORD	338193	wordpools/wasnorm_wordpool_576.txt	LTP304	ltpFR2	6	3	ONION	977	n/a	n/a	0	0	0
679.12	n/a	WORD	339560	wordpools/wasnorm_wordpool_576.txt	LTP304	ltpFR2	6	3	HIGHWAY	707	n/a	n/a	0	0	0
681.572	n/a	WORD	340786	wordpools/wasnorm_wordpool_576.txt	LTP304	ltpFR2	6	3	SIDEWALK	1303	n/a	n/a	0	0	0
684.24	n/a	WORD	342120	wordpools/wasnorm_wordpool_576.txt	LTP304	ltpFR2	6	3	BOX	159	n/a	n/a	0	0	0
687.01	n/a	WORD	343505	wordpools/wasnorm_wordpool_576.txt	LTP304	ltpFR2	6	3	CATCHER	258	n/a	n/a	0	0	0
689.63	n/a	WORD	344815	wordpools/wasnorm_wordpool_576.txt	LTP304	ltpFR2	6	3	CRITIC	410	n/a	n/a	0	0	0
692.45	n/a	WORD	346225	wordpools/wasnorm_wordpool_576.txt	LTP304	ltpFR2	6	3	ELBOW	520	n/a	n/a	0	0	0
695.286	n/a	WORD	347643	wordpools/wasnorm_wordpool_576.txt	LTP304	ltpFR2	6	3	FRAME	600	n/a	n/a	0	0	0
698.02	n/a	WORD	349010	wordpools/wasnorm_wordpool_576.txt	LTP304	ltpFR2	6	3	SCRIBBLE	1256	n/a	n/a	0	0	0
700.506	n/a	WORD	350253	wordpools/wasnorm_wordpool_576.txt	LTP304	ltpFR2	6	3	TILE	1468	n/a	n/a	0	0	0
703.126	n/a	WORD	351563	wordpools/wasnorm_wordpool_576.txt	LTP304	ltpFR2	6	3	GROUND	666	n/a	n/a	0	0	0
705.794	n/a	WORD	352897	wordpools/wasnorm_wordpool_576.txt	LTP304	ltpFR2	6	3	DAISY	435	n/a	n/a	0	0	0
708.396	n/a	WORD	354198	wordpools/wasnorm_wordpool_576.txt	LTP304	ltpFR2	6	3	TUBA	1515	n/a	n/a	0	0	0
711.214	n/a	WORD	355607	wordpools/wasnorm_wordpool_576.txt	LTP304	ltpFR2	6	3	MASK	876	n/a	n/a	0	0	0
713.684	n/a	WORD	356842	wordpools/wasnorm_wordpool_576.txt	LTP304	ltpFR2	6	3	HAMPER	682	n/a	n/a	0	0	0
716.452	n/a	WORD	358226	wordpools/wasnorm_wordpool_576.txt	LTP304	ltpFR2	6	3	MOTOR	922	n/a	n/a	0	0	0
719.02	n/a	WORD	359510	wordpools/wasnorm_wordpool_576.txt	LTP304	ltpFR2	6	3	STUDENT	1395	n/a	n/a	0	0	0
721.474	n/a	WORD	360737	wordpools/wasnorm_wordpool_576.txt	LTP304	ltpFR2	6	3	MEAT	883	n/a	n/a	0	0	0
723.942	n/a	WORD	361971	wordpools/wasnorm_wordpool_576.txt	LTP304	ltpFR2	6	3	KNIFE	785	n/a	n/a	0	0	0
726.494	n/a	WORD	363247	wordpools/wasnorm_wordpool_576.txt	LTP304	ltpFR2	6	3	COSTUME	383	n/a	n/a	0	0	0
728.114	n/a	START	364057	n/a	LTP304	ltpFR2	6	n/a	n/a	n/a	4	n/a	n/a	n/a	n/a
729.058	n/a	DISTRACTOR	364529	n/a	LTP304	ltpFR2	6	3	n/a	n/a	n/a	n/a	0	0	0
729.064	n/a	PROB	364532	n/a	LTP304	ltpFR2	6	n/a	n/a	n/a	4	19	8	8	3
731.566	n/a	PROB	365783	n/a	LTP304	ltpFR2	6	n/a	n/a	n/a	4	15	8	3	4
733.5	n/a	PROB	366750	n/a	LTP304	ltpFR2	6	n/a	n/a	n/a	4	16	6	9	1
734.684	n/a	PROB	367342	n/a	LTP304	ltpFR2	6	n/a	n/a	n/a	4	17	7	2	8
736.804	n/a	PROB	368402	n/a	LTP304	ltpFR2	6	n/a	n/a	n/a	4	15	2	7	6
738.52	n/a	PROB	369260	n/a	LTP304	ltpFR2	6	n/a	n/a	n/a	4	15	8	6	1
740.14	n/a	PROB	370070	n/a	LTP304	ltpFR2	6	n/a	n/a	n/a	4	17	5	9	3
744.36	n/a	PROB	372180	n/a	LTP304	ltpFR2	6	n/a	n/a	n/a	4	15	4	7	4
746.16	n/a	PROB	373080	n/a	LTP304	ltpFR2	6	n/a	n/a	n/a	4	18	8	4	6
747.358	n/a	PROB	373679	n/a	LTP304	ltpFR2	6	n/a	n/a	n/a	4	10	2	2	6
749.31	n/a	PROB	374655	n/a	LTP304	ltpFR2	6	n/a	n/a	n/a	4	14	4	3	7
750.652	n/a	STOP	375326	n/a	LTP304	ltpFR2	6	n/a	n/a	n/a	4	n/a	n/a	n/a	n/a
753.968	n/a	REC_START	376984	n/a	LTP304	ltpFR2	6	3	n/a	n/a	n/a	n/a	0	0	0
755.332	n/a	REC_WORD	377666	wordpools/wasnorm_wordpool_576.txt	LTP304	ltpFR2	6	3	PUPIL	1143	n/a	n/a	0	0	0
755.924	n/a	REC_WORD	377962	wordpools/wasnorm_wordpool_576.txt	LTP304	ltpFR2	6	3	KITCHEN	778	n/a	n/a	0	0	0
756.844	n/a	REC_WORD	378422	wordpools/wasnorm_wordpool_576.txt	LTP304	ltpFR2	6	3	FIREMAN	569	n/a	n/a	0	0	0
758.524	n/a	REC_WORD	379262	wordpools/wasnorm_wordpool_576.txt	LTP304	ltpFR2	6	3	DRIVER	499	n/a	n/a	0	0	0
760.258	n/a	REC_WORD	380129	wordpools/wasnorm_wordpool_576.txt	LTP304	ltpFR2	6	3	ONION	977	n/a	n/a	0	0	0
764.006	n/a	REC_WORD	382003	wordpools/wasnorm_wordpool_576.txt	LTP304	ltpFR2	6	3	MEAT	883	n/a	n/a	0	0	0
764.774	n/a	REC_WORD	382387	wordpools/wasnorm_wordpool_576.txt	LTP304	ltpFR2	6	3	KNIFE	785	n/a	n/a	0	0	0
767.508	n/a	REC_WORD	383754	wordpools/wasnorm_wordpool_576.txt	LTP304	ltpFR2	6	3	BOX	159	n/a	n/a	0	0	0
768.094	n/a	REC_WORD	384047	wordpools/wasnorm_wordpool_576.txt	LTP304	ltpFR2	6	3	ELBOW	520	n/a	n/a	0	0	0
768.532	n/a	REC_WORD	384266	wordpools/wasnorm_wordpool_576.txt	LTP304	ltpFR2	6	3	FRAME	600	n/a	n/a	0	0	0
770.356	n/a	REC_WORD	385178	wordpools/wasnorm_wordpool_576.txt	LTP304	ltpFR2	6	3	HIGHWAY	707	n/a	n/a	0	0	0
770.948	n/a	REC_WORD	385474	wordpools/wasnorm_wordpool_576.txt	LTP304	ltpFR2	6	3	SIDEWALK	1303	n/a	n/a	0	0	0
791.992	n/a	REC_WORD	395996	wordpools/wasnorm_wordpool_576.txt	LTP304	ltpFR2	6	3	STUDENT	1395	n/a	n/a	0	0	0
805.564	n/a	REC_WORD	402782	wordpools/wasnorm_wordpool_576.txt	LTP304	ltpFR2	6	3	SCRIBBLE	1256	n/a	n/a	0	0	0
806.276	n/a	REC_WORD	403138	wordpools/wasnorm_wordpool_576.txt	LTP304	ltpFR2	6	3	TILE	1468	n/a	n/a	0	0	0
806.804	n/a	REC_WORD	403402	wordpools/wasnorm_wordpool_576.txt	LTP304	ltpFR2	6	3	FLOOR	581	n/a	n/a	0	0	0
808.074	n/a	REC_WORD	404037	wordpools/wasnorm_wordpool_576.txt	LTP304	ltpFR2	6	3	DAISY	435	n/a	n/a	0	0	0
808.544	n/a	REC_WORD	404272	wordpools/wasnorm_wordpool_576.txt	LTP304	ltpFR2	6	3	TUBA	1515	n/a	n/a	0	0	0
809.174	n/a	REC_WORD	404587	wordpools/wasnorm_wordpool_576.txt	LTP304	ltpFR2	6	3	MASK	876	n/a	n/a	0	0	0
809.67	n/a	REC_WORD	404835	wordpools/wasnorm_wordpool_576.txt	LTP304	ltpFR2	6	3	COSTUME	383	n/a	n/a	0	0	0
812.552	n/a	REC_WORD	406276	wordpools/wasnorm_wordpool_576.txt	LTP304	ltpFR2	6	3	HAMPER	682	n/a	n/a	0	0	0
844.396	n/a	DISTRACTOR	422198	n/a	LTP304	ltpFR2	6	4	n/a	n/a	n/a	n/a	0	0	0
844.396	n/a	START	422198	n/a	LTP304	ltpFR2	6	n/a	n/a	n/a	5	n/a	n/a	n/a	n/a
844.41	n/a	PROB	422205	n/a	LTP304	ltpFR2	6	n/a	n/a	n/a	5	15	5	6	2
846.98	n/a	PROB	423490	n/a	LTP304	ltpFR2	6	n/a	n/a	n/a	5	21	5	8	8
848.666	n/a	PROB	424333	n/a	LTP304	ltpFR2	6	n/a	n/a	n/a	5	19	7	7	5
850.132	n/a	PROB	425066	n/a	LTP304	ltpFR2	6	n/a	n/a	n/a	5	18	8	8	2
851.668	n/a	PROB	425834	n/a	LTP304	ltpFR2	6	n/a	n/a	n/a	5	15	7	1	7
853.404	n/a	PROB	426702	n/a	LTP304	ltpFR2	6	n/a	n/a	n/a	5	12	4	2	6
854.688	n/a	PROB	427344	n/a	LTP304	ltpFR2	6	n/a	n/a	n/a	5	10	1	6	3
856.59	n/a	PROB	428295	n/a	LTP304	ltpFR2	6	n/a	n/a	n/a	5	19	4	8	7
858.908	n/a	PROB	429454	n/a	LTP304	ltpFR2	6	n/a	n/a	n/a	5	13	6	2	5
862.426	n/a	PROB	431213	n/a	LTP304	ltpFR2	6	n/a	n/a	n/a	5	18	2	9	7
864.998	n/a	PROB	432499	n/a	LTP304	ltpFR2	6	n/a	n/a	n/a	5	23	9	8	6
866.984	n/a	STOP	433492	n/a	LTP304	ltpFR2	6	n/a	n/a	n/a	5	n/a	n/a	n/a	n/a
869.574	n/a	WORD	434787	wordpools/wasnorm_wordpool_576.txt	LTP304	ltpFR2	6	4	NEUTRON	947	n/a	n/a	0	0	0
872.32	n/a	WORD	436160	wordpools/wasnorm_wordpool_576.txt	LTP304	ltpFR2	6	4	BEAKER	104	n/a	n/a	0	0	0
874.88	n/a	WORD	437440	wordpools/wasnorm_wordpool_576.txt	LTP304	ltpFR2	6	4	DRINK	498	n/a	n/a	0	0	0
877.39	n/a	WORD	438695	wordpools/wasnorm_wordpool_576.txt	LTP304	ltpFR2	6	4	BRANCH	168	n/a	n/a	0	0	0
880.15	n/a	WORD	440075	wordpools/wasnorm_wordpool_576.txt	LTP304	ltpFR2	6	4	CASHEW	253	n/a	n/a	0	0	0
882.68	n/a	WORD	441340	wordpools/wasnorm_wordpool_576.txt	LTP304	ltpFR2	6	4	CANDY	230	n/a	n/a	0	0	0
885.098	n/a	WORD	442549	wordpools/wasnorm_wordpool_576.txt	LTP304	ltpFR2	6	4	COLONEL	348	n/a	n/a	0	0	0
887.702	n/a	WORD	443851	wordpools/wasnorm_wordpool_576.txt	LTP304	ltpFR2	6	4	ARMY	39	n/a	n/a	0	0	0
890.168	n/a	WORD	445084	wordpools/wasnorm_wordpool_576.txt	LTP304	ltpFR2	6	4	TOMBSTONE	1478	n/a	n/a	0	0	0
892.81	n/a	WORD	446405	wordpools/wasnorm_wordpool_576.txt	LTP304	ltpFR2	6	4	WASP	1593	n/a	n/a	0	0	0
895.49	n/a	WORD	447745	wordpools/wasnorm_wordpool_576.txt	LTP304	ltpFR2	6	4	SHARK	1275	n/a	n/a	0	0	0
898.21	n/a	WORD	449105	wordpools/wasnorm_wordpool_576.txt	LTP304	ltpFR2	6	4	ZEBRA	1635	n/a	n/a	0	0	0
900.68	n/a	WORD	450340	wordpools/wasnorm_wordpool_576.txt	LTP304	ltpFR2	6	4	SCOTCH	1251	n/a	n/a	0	0	0
903.196	n/a	WORD	451598	wordpools/wasnorm_wordpool_576.txt	LTP304	ltpFR2	6	4	SHOULDER	1294	n/a	n/a	0	0	0
905.998	n/a	WORD	452999	wordpools/wasnorm_wordpool_576.txt	LTP304	ltpFR2	6	4	CANAL	226	n/a	n/a	0	0	0
908.486	n/a	WORD	454243	wordpools/wasnorm_wordpool_576.txt	LTP304	ltpFR2	6	4	OINTMENT	974	n/a	n/a	0	0	0
911.22	n/a	WORD	455610	wordpools/wasnorm_wordpool_576.txt	LTP304	ltpFR2	6	4	DRUG	501	n/a	n/a	0	0	0
913.656	n/a	WORD	456828	wordpools/wasnorm_wordpool_576.txt	LTP304	ltpFR2	6	4	CAMEL	223	n/a	n/a	0	0	0
916.124	n/a	WORD	458062	wordpools/wasnorm_wordpool_576.txt	LTP304	ltpFR2	6	4	CANYON	235	n/a	n/a	0	0	0
918.744	n/a	WORD	459372	wordpools/wasnorm_wordpool_576.txt	LTP304	ltpFR2	6	4	SPOOL	1356	n/a	n/a	0	0	0
921.432	n/a	WORD	460716	wordpools/wasnorm_wordpool_576.txt	LTP304	ltpFR2	6	4	GALLON	618	n/a	n/a	0	0	0
924.016	n/a	WORD	462008	wordpools/wasnorm_wordpool_576.txt	LTP304	ltpFR2	6	4	MAPLE	866	n/a	n/a	0	0	0
926.818	n/a	WORD	463409	wordpools/wasnorm_wordpool_576.txt	LTP304	ltpFR2	6	4	ITEM	746	n/a	n/a	0	0	0
929.37	n/a	WORD	464685	wordpools/wasnorm_wordpool_576.txt	LTP304	ltpFR2	6	4	THREAD	1460	n/a	n/a	0	0	0
930.988	n/a	START	465494	n/a	LTP304	ltpFR2	6	n/a	n/a	n/a	6	n/a	n/a	n/a	n/a
932.054	n/a	DISTRACTOR	466027	n/a	LTP304	ltpFR2	6	4	n/a	n/a	n/a	n/a	0	0	0
932.072	n/a	PROB	466036	n/a	LTP304	ltpFR2	6	n/a	n/a	n/a	6	13	1	8	4
934.088	n/a	PROB	467044	n/a	LTP304	ltpFR2	6	n/a	n/a	n/a	6	19	1	9	9
935.908	n/a	PROB	467954	n/a	LTP304	ltpFR2	6	n/a	n/a	n/a	6	8	3	4	1
937.41	n/a	PROB	468705	n/a	LTP304	ltpFR2	6	n/a	n/a	n/a	6	17	5	6	6
938.944	n/a	PROB	469472	n/a	LTP304	ltpFR2	6	n/a	n/a	n/a	6	18	8	9	1
940.06	n/a	PROB	470030	n/a	LTP304	ltpFR2	6	n/a	n/a	n/a	6	19	4	8	7
942.48	n/a	PROB	471240	n/a	LTP304	ltpFR2	6	n/a	n/a	n/a	6	17	6	7	4
944.882	n/a	PROB	472441	n/a	LTP304	ltpFR2	6	n/a	n/a	n/a	6	12	1	6	5
946.734	n/a	PROB	473367	n/a	LTP304	ltpFR2	6	n/a	n/a	n/a	6	24	6	9	9
948.534	n/a	PROB	474267	n/a	LTP304	ltpFR2	6	n/a	n/a	n/a	6	18	7	8	3
950.688	n/a	PROB	475344	n/a	LTP304	ltpFR2	6	n/a	n/a	n/a	6	16	2	9	5
952.288	n/a	PROB	476144	n/a	LTP304	ltpFR2	6	n/a	n/a	n/a	6	15	3	9	3
954.242	n/a	STOP	477121	n/a	LTP304	ltpFR2	6	n/a	n/a	n/a	6	n/a	n/a	n/a	n/a
956.928	n/a	REC_START	478464	n/a	LTP304	ltpFR2	6	4	n/a	n/a	n/a	n/a	0	0	0
962.322	n/a	REC_WORD	481161	wordpools/wasnorm_wordpool_576.txt	LTP304	ltpFR2	6	4	SPOOL	1356	n/a	n/a	0	0	0
962.942	n/a	REC_WORD	481471	wordpools/wasnorm_wordpool_576.txt	LTP304	ltpFR2	6	4	YARN	1631	n/a	n/a	0	0	0
965.884	n/a	REC_WORD	482942	wordpools/wasnorm_wordpool_576.txt	LTP304	ltpFR2	6	4	SPOOL	1356	n/a	n/a	0	0	0
966.26	n/a	REC_WORD	483130	wordpools/wasnorm_wordpool_576.txt	LTP304	ltpFR2	6	4	THREAD	1460	n/a	n/a	0	0	0
966.774	n/a	REC_WORD_VV	483387	wordpools/wasnorm_wordpool_576.txt	LTP304	ltpFR2	6	4	<>	-1	n/a	n/a	0	0	0
967.412	n/a	REC_WORD	483706	wordpools/wasnorm_wordpool_576.txt	LTP304	ltpFR2	6	4	GALLON	618	n/a	n/a	0	0	0
967.934	n/a	REC_WORD	483967	wordpools/wasnorm_wordpool_576.txt	LTP304	ltpFR2	6	4	MAPLE	866	n/a	n/a	0	0	0
974.078	n/a	REC_WORD	487039	wordpools/wasnorm_wordpool_576.txt	LTP304	ltpFR2	6	4	BRANCH	168	n/a	n/a	0	0	0
975.284	n/a	REC_WORD	487642	wordpools/wasnorm_wordpool_576.txt	LTP304	ltpFR2	6	4	COLONEL	348	n/a	n/a	0	0	0
975.834	n/a	REC_WORD	487917	wordpools/wasnorm_wordpool_576.txt	LTP304	ltpFR2	6	4	ARMY	39	n/a	n/a	0	0	0
977.126	n/a	REC_WORD	488563	wordpools/wasnorm_wordpool_576.txt	LTP304	ltpFR2	6	4	WASP	1593	n/a	n/a	0	0	0
977.894	n/a	REC_WORD	488947	wordpools/wasnorm_wordpool_576.txt	LTP304	ltpFR2	6	4	TOMBSTONE	1478	n/a	n/a	0	0	0
979.07	n/a	REC_WORD	489535	wordpools/wasnorm_wordpool_576.txt	LTP304	ltpFR2	6	4	ZEBRA	1635	n/a	n/a	0	0	0
980.39	n/a	REC_WORD	490195	wordpools/wasnorm_wordpool_576.txt	LTP304	ltpFR2	6	4	SHARK	1275	n/a	n/a	0	0	0
983.142	n/a	REC_WORD	491571	wordpools/wasnorm_wordpool_576.txt	LTP304	ltpFR2	6	4	CASHEW	253	n/a	n/a	0	0	0
984.608	n/a	REC_WORD	492304	wordpools/wasnorm_wordpool_576.txt	LTP304	ltpFR2	6	4	CANDY	230	n/a	n/a	0	0	0
991.966	n/a	REC_WORD	495983	wordpools/wasnorm_wordpool_576.txt	LTP304	ltpFR2	6	4	CANYON	235	n/a	n/a	0	0	0
992.806	n/a	REC_WORD	496403	wordpools/wasnorm_wordpool_576.txt	LTP304	ltpFR2	6	4	CAMEL	223	n/a	n/a	0	0	0
1002.31	n/a	REC_WORD	501155	wordpools/wasnorm_wordpool_576.txt	LTP304	ltpFR2	6	4	GALLON	618	n/a	n/a	0	0	0
1028.856	n/a	REC_WORD	514428	wordpools/wasnorm_wordpool_576.txt	LTP304	ltpFR2	6	4	CANAL	226	n/a	n/a	0	0	0
1031.684	n/a	REC_WORD	515842	wordpools/wasnorm_wordpool_576.txt	LTP304	ltpFR2	6	4	OINTMENT	974	n/a	n/a	0	0	0
1047.356	n/a	DISTRACTOR	523678	n/a	LTP304	ltpFR2	6	5	n/a	n/a	n/a	n/a	0	0	0
1047.356	n/a	START	523678	n/a	LTP304	ltpFR2	6	n/a	n/a	n/a	7	n/a	n/a	n/a	n/a
1047.37	n/a	PROB	523685	n/a	LTP304	ltpFR2	6	n/a	n/a	n/a	7	18	8	3	7
1048.704	n/a	PROB	524352	n/a	LTP304	ltpFR2	6	n/a	n/a	n/a	7	18	8	2	8
1050.154	n/a	PROB	525077	n/a	LTP304	ltpFR2	6	n/a	n/a	n/a	7	16	2	7	7
1052.594	n/a	PROB	526297	n/a	LTP304	ltpFR2	6	n/a	n/a	n/a	7	16	5	4	7
1054.594	n/a	PROB	527297	n/a	LTP304	ltpFR2	6	n/a	n/a	n/a	7	6	1	4	1
1056.278	n/a	PROB	528139	n/a	LTP304	ltpFR2	6	n/a	n/a	n/a	7	20	7	8	5
1059.33	n/a	PROB	529665	n/a	LTP304	ltpFR2	6	n/a	n/a	n/a	7	17	4	6	7
1060.55	n/a	PROB	530275	n/a	LTP304	ltpFR2	6	n/a	n/a	n/a	7	11	2	3	6
1062.952	n/a	PROB	531476	n/a	LTP304	ltpFR2	6	n/a	n/a	n/a	7	22	6	9	7
1065.604	n/a	PROB	532802	n/a	LTP304	ltpFR2	6	n/a	n/a	n/a	7	17	7	3	7
1066.738	n/a	PROB	533369	n/a	LTP304	ltpFR2	6	n/a	n/a	n/a	7	5	2	2	1
1067.774	n/a	PROB	533887	n/a	LTP304	ltpFR2	6	n/a	n/a	n/a	7	16	3	9	4
1069.83	n/a	STOP	534915	n/a	LTP304	ltpFR2	6	n/a	n/a	n/a	7	n/a	n/a	n/a	n/a
1072.426	n/a	WORD	536213	wordpools/wasnorm_wordpool_576.txt	LTP304	ltpFR2	6	5	ROOSTER	1209	n/a	n/a	0	0	0
1075.212	n/a	WORD	537606	wordpools/wasnorm_wordpool_576.txt	LTP304	ltpFR2	6	5	HORSE	719	n/a	n/a	0	0	0
1077.998	n/a	WORD	538999	wordpools/wasnorm_wordpool_576.txt	LTP304	ltpFR2	6	5	SCISSORS	1250	n/a	n/a	0	0	0
1080.616	n/a	WORD	540308	wordpools/wasnorm_wordpool_576.txt	LTP304	ltpFR2	6	5	CROWN	415	n/a	n/a	0	0	0
1083.168	n/a	WORD	541584	wordpools/wasnorm_wordpool_576.txt	LTP304	ltpFR2	6	5	HOOD	714	n/a	n/a	0	0	0
1085.896	n/a	WORD	542948	wordpools/wasnorm_wordpool_576.txt	LTP304	ltpFR2	6	5	PALACE	1006	n/a	n/a	0	0	0
1088.582	n/a	WORD	544291	wordpools/wasnorm_wordpool_576.txt	LTP304	ltpFR2	6	5	LASER	801	n/a	n/a	0	0	0
1091.008	n/a	WORD	545504	wordpools/wasnorm_wordpool_576.txt	LTP304	ltpFR2	6	5	LAPEL	800	n/a	n/a	0	0	0
1093.762	n/a	WORD	546881	wordpools/wasnorm_wordpool_576.txt	LTP304	ltpFR2	6	5	SKIRT	1319	n/a	n/a	0	0	0
1096.454	n/a	WORD	548227	wordpools/wasnorm_wordpool_576.txt	LTP304	ltpFR2	6	5	OFFICE	972	n/a	n/a	0	0	0
1099.234	n/a	WORD	549617	wordpools/wasnorm_wordpool_576.txt	LTP304	ltpFR2	6	5	PRINCE	1124	n/a	n/a	0	0	0
1101.668	n/a	WORD	550834	wordpools/wasnorm_wordpool_576.txt	LTP304	ltpFR2	6	5	PLAZA	1088	n/a	n/a	0	0	0
1104.094	n/a	WORD	552047	wordpools/wasnorm_wordpool_576.txt	LTP304	ltpFR2	6	5	KNAPSACK	783	n/a	n/a	0	0	0
1106.74	n/a	WORD	553370	wordpools/wasnorm_wordpool_576.txt	LTP304	ltpFR2	6	5	FLAG	573	n/a	n/a	0	0	0
1109.214	n/a	WORD	554607	wordpools/wasnorm_wordpool_576.txt	LTP304	ltpFR2	6	5	LONDON	843	n/a	n/a	0	0	0
1111.878	n/a	WORD	555939	wordpools/wasnorm_wordpool_576.txt	LTP304	ltpFR2	6	5	FRANCE	601	n/a	n/a	0	0	0
1114.402	n/a	WORD	557201	wordpools/wasnorm_wordpool_576.txt	LTP304	ltpFR2	6	5	LIZARD	834	n/a	n/a	0	0	0
1117.098	n/a	WORD	558549	wordpools/wasnorm_wordpool_576.txt	LTP304	ltpFR2	6	5	BEAST	108	n/a	n/a	0	0	0
1119.884	n/a	WORD	559942	wordpools/wasnorm_wordpool_576.txt	LTP304	ltpFR2	6	5	SANDWICH	1232	n/a	n/a	0	0	0
1122.602	n/a	WORD	561301	wordpools/wasnorm_wordpool_576.txt	LTP304	ltpFR2	6	5	PREACHER	1119	n/a	n/a	0	0	0
1125.238	n/a	WORD	562619	wordpools/wasnorm_wordpool_576.txt	LTP304	ltpFR2	6	5	FLASHLIGHT	575	n/a	n/a	0	0	0
1127.958	n/a	WORD	563979	wordpools/wasnorm_wordpool_576.txt	LTP304	ltpFR2	6	5	BINDER	127	n/a	n/a	0	0	0
1130.61	n/a	WORD	565305	wordpools/wasnorm_wordpool_576.txt	LTP304	ltpFR2	6	5	SUBWAY	1400	n/a	n/a	0	0	0
1133.412	n/a	WORD	566706	wordpools/wasnorm_wordpool_576.txt	LTP304	ltpFR2	6	5	SPARROW	1347	n/a	n/a	0	0	0
1135.018	n/a	START	567509	n/a	LTP304	ltpFR2	6	n/a	n/a	n/a	8	n/a	n/a	n/a	n/a
1136.17	n/a	DISTRACTOR	568085	n/a	LTP304	ltpFR2	6	5	n/a	n/a	n/a	n/a	0	0	0
1136.18	n/a	PROB	568090	n/a	LTP304	ltpFR2	6	n/a	n/a	n/a	8	15	5	4	6
1137.564	n/a	PROB	568782	n/a	LTP304	ltpFR2	6	n/a	n/a	n/a	8	20	7	7	6
1139.5	n/a	PROB	569750	n/a	LTP304	ltpFR2	6	n/a	n/a	n/a	8	18	5	4	7
1141.67	n/a	PROB	570835	n/a	LTP304	ltpFR2	6	n/a	n/a	n/a	8	16	9	3	4
1143.386	n/a	PROB	571693	n/a	LTP304	ltpFR2	6	n/a	n/a	n/a	8	10	6	3	1
1145.104	n/a	PROB	572552	n/a	LTP304	ltpFR2	6	n/a	n/a	n/a	8	16	1	7	8
1146.638	n/a	PROB	573319	n/a	LTP304	ltpFR2	6	n/a	n/a	n/a	8	9	1	7	1
1148.056	n/a	PROB	574028	n/a	LTP304	ltpFR2	6	n/a	n/a	n/a	8	18	6	6	6
1150.576	n/a	PROB	575288	n/a	LTP304	ltpFR2	6	n/a	n/a	n/a	8	18	9	5	4
1152.11	n/a	PROB	576055	n/a	LTP304	ltpFR2	6	n/a	n/a	n/a	8	7	3	1	3
1154.962	n/a	PROB	577481	n/a	LTP304	ltpFR2	6	n/a	n/a	n/a	8	13	6	2	5
1156.664	n/a	PROB	578332	n/a	LTP304	ltpFR2	6	n/a	n/a	n/a	8	14	4	7	3
1157.92	n/a	STOP	578960	n/a	LTP304	ltpFR2	6	n/a	n/a	n/a	8	n/a	n/a	n/a	n/a
1160.904	n/a	REC_START	580452	n/a	LTP304	ltpFR2	6	5	n/a	n/a	n/a	n/a	0	0	0
1162.45	n/a	REC_WORD	581225	wordpools/wasnorm_wordpool_576.txt	LTP304	ltpFR2	6	5	SCISSORS	1250	n/a	n/a	0	0	0
1163.116	n/a	REC_WORD	581558	wordpools/wasnorm_wordpool_576.txt	LTP304	ltpFR2	6	5	OFFICE	972	n/a	n/a	0	0	0
1163.66	n/a	REC_WORD	581830	wordpools/wasnorm_wordpool_576.txt	LTP304	ltpFR2	6	5	PRINCE	1124	n/a	n/a	0	0	0
1164.17	n/a	REC_WORD	582085	wordpools/wasnorm_wordpool_576.txt	LTP304	ltpFR2	6	5	LONDON	843	n/a	n/a	0	0	0
1164.936	n/a	REC_WORD	582468	wordpools/wasnorm_wordpool_576.txt	LTP304	ltpFR2	6	5	PARIS	1014	n/a	n/a	0	0	0
1166.406	n/a	REC_WORD	583203	wordpools/wasnorm_wordpool_576.txt	LTP304	ltpFR2	6	5	LAPEL	800	n/a	n/a	0	0	0
1173.48	n/a	REC_WORD	586740	wordpools/wasnorm_wordpool_576.txt	LTP304	ltpFR2	6	5	KNAPSACK	783	n/a	n/a	0	0	0
1217.128	n/a	REC_WORD	608564	wordpools/wasnorm_wordpool_576.txt	LTP304	ltpFR2	6	5	BINDER	127	n/a	n/a	0	0	0
1251.374	n/a	WORD	625687	wordpools/wasnorm_wordpool_576.txt	LTP304	ltpFR2	6	6	FRECKLE	602	n/a	n/a	0	0	0
1253.83	n/a	WORD	626915	wordpools/wasnorm_wordpool_576.txt	LTP304	ltpFR2	6	6	LADY	794	n/a	n/a	0	0	0
1256.398	n/a	WORD	628199	wordpools/wasnorm_wordpool_576.txt	LTP304	ltpFR2	6	6	GUARD	667	n/a	n/a	0	0	0
1259.02	n/a	WORD	629510	wordpools/wasnorm_wordpool_576.txt	LTP304	ltpFR2	6	6	DRESS	495	n/a	n/a	0	0	0
1261.618	n/a	WORD	630809	wordpools/wasnorm_wordpool_576.txt	LTP304	ltpFR2	6	6	PUDDING	1139	n/a	n/a	0	0	0
1264.388	n/a	WORD	632194	wordpools/wasnorm_wordpool_576.txt	LTP304	ltpFR2	6	6	TYPIST	1532	n/a	n/a	0	0	0
1267.138	n/a	WORD	633569	wordpools/wasnorm_wordpool_576.txt	LTP304	ltpFR2	6	6	STAR	1373	n/a	n/a	0	0	0
1269.826	n/a	WORD	634913	wordpools/wasnorm_wordpool_576.txt	LTP304	ltpFR2	6	6	ULCER	1533	n/a	n/a	0	0	0
1272.532	n/a	WORD	636266	wordpools/wasnorm_wordpool_576.txt	LTP304	ltpFR2	6	6	ANKLE	24	n/a	n/a	0	0	0
1275.334	n/a	WORD	637667	wordpools/wasnorm_wordpool_576.txt	LTP304	ltpFR2	6	6	WRIST	1626	n/a	n/a	0	0	0
1278.12	n/a	WORD	639060	wordpools/wasnorm_wordpool_576.txt	LTP304	ltpFR2	6	6	SILK	1307	n/a	n/a	0	0	0
1280.55	n/a	WORD	640275	wordpools/wasnorm_wordpool_576.txt	LTP304	ltpFR2	6	6	OMELET	976	n/a	n/a	0	0	0
1283.368	n/a	WORD	641684	wordpools/wasnorm_wordpool_576.txt	LTP304	ltpFR2	6	6	PIGMENT	1066	n/a	n/a	0	0	0
1286.154	n/a	WORD	643077	wordpools/wasnorm_wordpool_576.txt	LTP304	ltpFR2	6	6	CRAYON	401	n/a	n/a	0	0	0
1288.656	n/a	WORD	644328	wordpools/wasnorm_wordpool_576.txt	LTP304	ltpFR2	6	6	GAVEL	627	n/a	n/a	0	0	0
1291.408	n/a	WORD	645704	wordpools/wasnorm_wordpool_576.txt	LTP304	ltpFR2	6	6	FLUTE	585	n/a	n/a	0	0	0
1294.018	n/a	WORD	647009	wordpools/wasnorm_wordpool_576.txt	LTP304	ltpFR2	6	6	DOUGHNUT	490	n/a	n/a	0	0	0
1296.612	n/a	WORD	648306	wordpools/wasnorm_wordpool_576.txt	LTP304	ltpFR2	6	6	STONE	1385	n/a	n/a	0	0	0
1299.148	n/a	WORD	649574	wordpools/wasnorm_wordpool_576.txt	LTP304	ltpFR2	6	6	RECORD	1176	n/a	n/a	0	0	0
1301.89	n/a	WORD	650945	wordpools/wasnorm_wordpool_576.txt	LTP304	ltpFR2	6	6	NURSE	963	n/a	n/a	0	0	0
1304.642	n/a	WORD	652321	wordpools/wasnorm_wordpool_576.txt	LTP304	ltpFR2	6	6	CHEMIST	292	n/a	n/a	0	0	0
1307.438	n/a	WORD	653719	wordpools/wasnorm_wordpool_576.txt	LTP304	ltpFR2	6	6	POLICE	1098	n/a	n/a	0	0	0
1309.946	n/a	WORD	654973	wordpools/wasnorm_wordpool_576.txt	LTP304	ltpFR2	6	6	MILK	895	n/a	n/a	0	0	0
1312.608	n/a	WORD	656304	wordpools/wasnorm_wordpool_576.txt	LTP304	ltpFR2	6	6	WHISKERS	1605	n/a	n/a	0	0	0
1314.218	n/a	START	657109	n/a	LTP304	ltpFR2	6	n/a	n/a	n/a	9	n/a	n/a	n/a	n/a
1315.08	n/a	DISTRACTOR	657540	n/a	LTP304	ltpFR2	6	6	n/a	n/a	n/a	n/a	0	0	0
1315.092	n/a	PROB	657546	n/a	LTP304	ltpFR2	6	n/a	n/a	n/a	9	9	3	3	3
1317.52	n/a	PROB	658760	n/a	LTP304	ltpFR2	6	n/a	n/a	n/a	9	10	5	1	4
1319.254	n/a	PROB	659627	n/a	LTP304	ltpFR2	6	n/a	n/a	n/a	9	15	1	6	8
1320.89	n/a	PROB	660445	n/a	LTP304	ltpFR2	6	n/a	n/a	n/a	9	13	7	3	3
1322.424	n/a	PROB	661212	n/a	LTP304	ltpFR2	6	n/a	n/a	n/a	9	18	3	7	8
1323.642	n/a	PROB	661821	n/a	LTP304	ltpFR2	6	n/a	n/a	n/a	9	12	2	8	2
1325.144	n/a	PROB	662572	n/a	LTP304	ltpFR2	6	n/a	n/a	n/a	9	11	1	9	1
1326.878	n/a	PROB	663439	n/a	LTP304	ltpFR2	6	n/a	n/a	n/a	9	17	5	7	5
1329.162	n/a	PROB	664581	n/a	LTP304	ltpFR2	6	n/a	n/a	n/a	9	18	6	9	3
1331.032	n/a	PROB	665516	n/a	LTP304	ltpFR2	6	n/a	n/a	n/a	9	13	1	5	7
1332.684	n/a	PROB	666342	n/a	LTP304	ltpFR2	6	n/a	n/a	n/a	9	19	9	1	9
1333.934	n/a	PROB	666967	n/a	LTP304	ltpFR2	6	n/a	n/a	n/a	9	15	6	1	8
1335.518	n/a	PROB	667759	n/a	LTP304	ltpFR2	6	n/a	n/a	n/a	9	21	9	9	9
1337.006	n/a	STOP	668503	n/a	LTP304	ltpFR2	6	n/a	n/a	n/a	9	n/a	n/a	n/a	n/a
1340.006	n/a	REC_START	670003	n/a	LTP304	ltpFR2	6	6	n/a	n/a	n/a	n/a	0	0	0
1342.398	n/a	REC_WORD	671199	wordpools/wasnorm_wordpool_576.txt	LTP304	ltpFR2	6	6	FRECKLE	602	n/a	n/a	0	0	0
1343.168	n/a	REC_WORD	671584	wordpools/wasnorm_wordpool_576.txt	LTP304	ltpFR2	6	6	LADY	794	n/a	n/a	0	0	0
1344.058	n/a	REC_WORD	672029	wordpools/wasnorm_wordpool_576.txt	LTP304	ltpFR2	6	6	GUARD	667	n/a	n/a	0	0	0
1344.888	n/a	REC_WORD	672444	wordpools/wasnorm_wordpool_576.txt	LTP304	ltpFR2	6	6	DRESS	495	n/a	n/a	0	0	0
1347.29	n/a	REC_WORD	673645	wordpools/wasnorm_wordpool_576.txt	LTP304	ltpFR2	6	6	OMELET	976	n/a	n/a	0	0	0
1348.13	n/a	REC_WORD	674065	wordpools/wasnorm_wordpool_576.txt	LTP304	ltpFR2	6	6	CRAYON	401	n/a	n/a	0	0	0
1348.788	n/a	REC_WORD	674394	wordpools/wasnorm_wordpool_576.txt	LTP304	ltpFR2	6	6	PIGMENT	1066	n/a	n/a	0	0	0
1350.576	n/a	REC_WORD	675288	wordpools/wasnorm_wordpool_576.txt	LTP304	ltpFR2	6	6	TYPIST	1532	n/a	n/a	0	0	0
1352.234	n/a	REC_WORD	676117	wordpools/wasnorm_wordpool_576.txt	LTP304	ltpFR2	6	6	ULCER	1533	n/a	n/a	0	0	0
1353.298	n/a	REC_WORD	676649	wordpools/wasnorm_wordpool_576.txt	LTP304	ltpFR2	6	6	ANKLE	24	n/a	n/a	0	0	0
1353.81	n/a	REC_WORD	676905	wordpools/wasnorm_wordpool_576.txt	LTP304	ltpFR2	6	6	WRIST	1626	n/a	n/a	0	0	0
1354.85	n/a	REC_WORD	677425	wordpools/wasnorm_wordpool_576.txt	LTP304	ltpFR2	6	6	SILK	1307	n/a	n/a	0	0	0
1358.276	n/a	REC_WORD	679138	wordpools/wasnorm_wordpool_576.txt	LTP304	ltpFR2	6	6	OMELET	976	n/a	n/a	0	0	0
1360.05	n/a	REC_WORD	680025	wordpools/wasnorm_wordpool_576.txt	LTP304	ltpFR2	6	6	PUDDING	1139	n/a	n/a	0	0	0
1361.854	n/a	REC_WORD	680927	wordpools/wasnorm_wordpool_576.txt	LTP304	ltpFR2	6	6	DOUGHNUT	490	n/a	n/a	0	0	0
1364.65	n/a	REC_WORD	682325	wordpools/wasnorm_wordpool_576.txt	LTP304	ltpFR2	6	6	NURSE	963	n/a	n/a	0	0	0
1365.56	n/a	REC_WORD	682780	wordpools/wasnorm_wordpool_576.txt	LTP304	ltpFR2	6	6	CHEMIST	292	n/a	n/a	0	0	0
1381.672	n/a	REC_WORD	690836	wordpools/wasnorm_wordpool_576.txt	LTP304	ltpFR2	6	6	RECORD	1176	n/a	n/a	0	0	0
1382.202	n/a	REC_WORD	691101	wordpools/wasnorm_wordpool_576.txt	LTP304	ltpFR2	6	6	STONE	1385	n/a	n/a	0	0	0
1430.468	n/a	WORD	715234	wordpools/wasnorm_wordpool_576.txt	LTP304	ltpFR2	6	7	INFANT	737	n/a	n/a	0	0	0
1433.236	n/a	WORD	716618	wordpools/wasnorm_wordpool_576.txt	LTP304	ltpFR2	6	7	BABY	64	n/a	n/a	0	0	0
1435.972	n/a	WORD	717986	wordpools/wasnorm_wordpool_576.txt	LTP304	ltpFR2	6	7	COBRA	336	n/a	n/a	0	0	0
1438.574	n/a	WORD	719287	wordpools/wasnorm_wordpool_576.txt	LTP304	ltpFR2	6	7	BARREL	91	n/a	n/a	0	0	0
1441.344	n/a	WORD	720672	wordpools/wasnorm_wordpool_576.txt	LTP304	ltpFR2	6	7	ASIA	46	n/a	n/a	0	0	0
1443.898	n/a	WORD	721949	wordpools/wasnorm_wordpool_576.txt	LTP304	ltpFR2	6	7	THIEF	1456	n/a	n/a	0	0	0
1446.614	n/a	WORD	723307	wordpools/wasnorm_wordpool_576.txt	LTP304	ltpFR2	6	7	BRAKE	166	n/a	n/a	0	0	0
1449.366	n/a	WORD	724683	wordpools/wasnorm_wordpool_576.txt	LTP304	ltpFR2	6	7	PENGUIN	1044	n/a	n/a	0	0	0
1451.986	n/a	WORD	725993	wordpools/wasnorm_wordpool_576.txt	LTP304	ltpFR2	6	7	WRENCH	1625	n/a	n/a	0	0	0
1454.672	n/a	WORD	727336	wordpools/wasnorm_wordpool_576.txt	LTP304	ltpFR2	6	7	COCKTAIL	338	n/a	n/a	0	0	0
1457.224	n/a	WORD	728612	wordpools/wasnorm_wordpool_576.txt	LTP304	ltpFR2	6	7	EUROPE	541	n/a	n/a	0	0	0
1459.76	n/a	WORD	729880	wordpools/wasnorm_wordpool_576.txt	LTP304	ltpFR2	6	7	VICTIM	1562	n/a	n/a	0	0	0
1462.38	n/a	WORD	731190	wordpools/wasnorm_wordpool_576.txt	LTP304	ltpFR2	6	7	MESSAGE	888	n/a	n/a	0	0	0
1465.048	n/a	WORD	732524	wordpools/wasnorm_wordpool_576.txt	LTP304	ltpFR2	6	7	LABEL	790	n/a	n/a	0	0	0
1467.866	n/a	WORD	733933	wordpools/wasnorm_wordpool_576.txt	LTP304	ltpFR2	6	7	BISON	131	n/a	n/a	0	0	0
1470.566	n/a	WORD	735283	wordpools/wasnorm_wordpool_576.txt	LTP304	ltpFR2	6	7	POSSUM	1112	n/a	n/a	0	0	0
1473.352	n/a	WORD	736676	wordpools/wasnorm_wordpool_576.txt	LTP304	ltpFR2	6	7	SPHINX	1349	n/a	n/a	0	0	0
1475.892	n/a	WORD	737946	wordpools/wasnorm_wordpool_576.txt	LTP304	ltpFR2	6	7	HATCHET	691	n/a	n/a	0	0	0
1478.656	n/a	WORD	739328	wordpools/wasnorm_wordpool_576.txt	LTP304	ltpFR2	6	7	TOASTER	1472	n/a	n/a	0	0	0
1481.326	n/a	WORD	740663	wordpools/wasnorm_wordpool_576.txt	LTP304	ltpFR2	6	7	LUMBER	848	n/a	n/a	0	0	0
1483.844	n/a	WORD	741922	wordpools/wasnorm_wordpool_576.txt	LTP304	ltpFR2	6	7	DORM	488	n/a	n/a	0	0	0
1486.666	n/a	WORD	743333	wordpools/wasnorm_wordpool_576.txt	LTP304	ltpFR2	6	7	STAMP	1370	n/a	n/a	0	0	0
1489.136	n/a	WORD	744568	wordpools/wasnorm_wordpool_576.txt	LTP304	ltpFR2	6	7	HARP	689	n/a	n/a	0	0	0
1491.868	n/a	WORD	745934	wordpools/wasnorm_wordpool_576.txt	LTP304	ltpFR2	6	7	PLUTO	1092	n/a	n/a	0	0	0
1493.486	n/a	START	746743	n/a	LTP304	ltpFR2	6	n/a	n/a	n/a	10	n/a	n/a	n/a	n/a
1494.438	n/a	DISTRACTOR	747219	n/a	LTP304	ltpFR2	6	7	n/a	n/a	n/a	n/a	0	0	0
1494.454	n/a	PROB	747227	n/a	LTP304	ltpFR2	6	n/a	n/a	n/a	10	16	6	2	8
1495.97	n/a	PROB	747985	n/a	LTP304	ltpFR2	6	n/a	n/a	n/a	10	10	2	7	1
1497.442	n/a	PROB	748721	n/a	LTP304	ltpFR2	6	n/a	n/a	n/a	10	11	7	3	1
1498.61	n/a	PROB	749305	n/a	LTP304	ltpFR2	6	n/a	n/a	n/a	10	15	7	1	7
1500.31	n/a	PROB	750155	n/a	LTP304	ltpFR2	6	n/a	n/a	n/a	10	18	8	4	6
1501.78	n/a	PROB	750890	n/a	LTP304	ltpFR2	6	n/a	n/a	n/a	10	19	6	7	6
1504.998	n/a	PROB	752499	n/a	LTP304	ltpFR2	6	n/a	n/a	n/a	10	18	5	6	7
1506.718	n/a	PROB	753359	n/a	LTP304	ltpFR2	6	n/a	n/a	n/a	10	12	5	3	4
1508.45	n/a	PROB	754225	n/a	LTP304	ltpFR2	6	n/a	n/a	n/a	10	12	1	7	4
1509.87	n/a	PROB	754935	n/a	LTP304	ltpFR2	6	n/a	n/a	n/a	10	15	7	8	1
1511.386	n/a	PROB	755693	n/a	LTP304	ltpFR2	6	n/a	n/a	n/a	10	21	8	5	8
1515.122	n/a	PROB	757561	n/a	LTP304	ltpFR2	6	n/a	n/a	n/a	10	17	4	6	7
1516.37	n/a	STOP	758185	n/a	LTP304	ltpFR2	6	n/a	n/a	n/a	10	n/a	n/a	n/a	n/a
1519.278	n/a	REC_START	759639	n/a	LTP304	ltpFR2	6	7	n/a	n/a	n/a	n/a	0	0	0
1521.368	n/a	REC_WORD	760684	wordpools/wasnorm_wordpool_576.txt	LTP304	ltpFR2	6	7	BABY	64	n/a	n/a	0	0	0
1521.732	n/a	REC_WORD	760866	wordpools/wasnorm_wordpool_576.txt	LTP304	ltpFR2	6	7	INFANT	737	n/a	n/a	0	0	0
1522.272	n/a	REC_WORD	761136	wordpools/wasnorm_wordpool_576.txt	LTP304	ltpFR2	6	7	COBRA	336	n/a	n/a	0	0	0
1523.346	n/a	REC_WORD	761673	wordpools/wasnorm_wordpool_576.txt	LTP304	ltpFR2	6	7	BARREL	91	n/a	n/a	0	0	0
1526.498	n/a	REC_WORD	763249	wordpools/wasnorm_wordpool_576.txt	LTP304	ltpFR2	6	7	ROBBER	1197	n/a	n/a	0	0	0
1527.412	n/a	REC_WORD	763706	wordpools/wasnorm_wordpool_576.txt	LTP304	ltpFR2	6	7	BRAKE	166	n/a	n/a	0	0	0
1528.898	n/a	REC_WORD	764449	wordpools/wasnorm_wordpool_576.txt	LTP304	ltpFR2	6	7	HATCHET	691	n/a	n/a	0	0	0
1531.362	n/a	REC_WORD	765681	wordpools/wasnorm_wordpool_576.txt	LTP304	ltpFR2	6	7	ASIA	46	n/a	n/a	0	0	0
1532.514	n/a	REC_WORD	766257	wordpools/wasnorm_wordpool_576.txt	LTP304	ltpFR2	6	7	EUROPE	541	n/a	n/a	0	0	0
1534.322	n/a	REC_WORD	767161	wordpools/wasnorm_wordpool_576.txt	LTP304	ltpFR2	6	7	DORM	488	n/a	n/a	0	0	0
1536.846	n/a	REC_WORD	768423	wordpools/wasnorm_wordpool_576.txt	LTP304	ltpFR2	6	7	MESSAGE	888	n/a	n/a	0	0	0
1537.536	n/a	REC_WORD	768768	wordpools/wasnorm_wordpool_576.txt	LTP304	ltpFR2	6	7	POSSUM	1112	n/a	n/a	0	0	0
1538.484	n/a	REC_WORD	769242	wordpools/wasnorm_wordpool_576.txt	LTP304	ltpFR2	6	7	BISON	131	n/a	n/a	0	0	0
1539.748	n/a	REC_WORD	769874	wordpools/wasnorm_wordpool_576.txt	LTP304	ltpFR2	6	7	PENGUIN	1044	n/a	n/a	0	0	0
1543.792	n/a	REC_WORD	771896	wordpools/wasnorm_wordpool_576.txt	LTP304	ltpFR2	6	7	STAMP	1370	n/a	n/a	0	0	0
1545.814	n/a	REC_WORD	772907	wordpools/wasnorm_wordpool_576.txt	LTP304	ltpFR2	6	7	HATCHET	691	n/a	n/a	0	0	0
1551.396	n/a	REC_WORD	775698	wordpools/wasnorm_wordpool_576.txt	LTP304	ltpFR2	6	7	VICTIM	1562	n/a	n/a	0	0	0
1557.24	n/a	REC_WORD	778620	wordpools/wasnorm_wordpool_576.txt	LTP304	ltpFR2	6	7	PLUTO	1092	n/a	n/a	0	0	0
1609.712	n/a	DISTRACTOR	804856	n/a	LTP304	ltpFR2	6	8	n/a	n/a	n/a	n/a	0	0	0
1609.712	n/a	START	804856	n/a	LTP304	ltpFR2	6	n/a	n/a	n/a	11	n/a	n/a	n/a	n/a
1609.728	n/a	PROB	804864	n/a	LTP304	ltpFR2	6	n/a	n/a	n/a	11	23	8	7	8
1612.056	n/a	PROB	806028	n/a	LTP304	ltpFR2	6	n/a	n/a	n/a	11	6	4	1	1
1613.458	n/a	PROB	806729	n/a	LTP304	ltpFR2	6	n/a	n/a	n/a	11	20	8	5	7
1615.728	n/a	PROB	807864	n/a	LTP304	ltpFR2	6	n/a	n/a	n/a	11	5	2	2	1
1617.03	n/a	PROB	808515	n/a	LTP304	ltpFR2	6	n/a	n/a	n/a	11	22	5	9	8
1620.58	n/a	PROB	810290	n/a	LTP304	ltpFR2	6	n/a	n/a	n/a	11	15	8	4	3
1622.266	n/a	PROB	811133	n/a	LTP304	ltpFR2	6	n/a	n/a	n/a	11	18	9	8	1
1623.566	n/a	PROB	811783	n/a	LTP304	ltpFR2	6	n/a	n/a	n/a	11	17	6	7	4
1625.402	n/a	PROB	812701	n/a	LTP304	ltpFR2	6	n/a	n/a	n/a	11	10	1	2	7
1626.638	n/a	PROB	813319	n/a	LTP304	ltpFR2	6	n/a	n/a	n/a	11	18	5	7	6
1628.32	n/a	PROB	814160	n/a	LTP304	ltpFR2	6	n/a	n/a	n/a	11	19	9	6	4
1629.74	n/a	PROB	814870	n/a	LTP304	ltpFR2	6	n/a	n/a	n/a	11	24	9	8	7
1633.714	n/a	STOP	816857	n/a	LTP304	ltpFR2	6	n/a	n/a	n/a	11	n/a	n/a	n/a	n/a
1634.794	n/a	WORD	817397	wordpools/wasnorm_wordpool_576.txt	LTP304	ltpFR2	6	8	TURNIP	1521	n/a	n/a	0	0	0
1637.546	n/a	WORD	818773	wordpools/wasnorm_wordpool_576.txt	LTP304	ltpFR2	6	8	ROBBER	1197	n/a	n/a	0	0	0
1640.064	n/a	WORD	820032	wordpools/wasnorm_wordpool_576.txt	LTP304	ltpFR2	6	8	TEACHER	1440	n/a	n/a	0	0	0
1642.566	n/a	WORD	821283	wordpools/wasnorm_wordpool_576.txt	LTP304	ltpFR2	6	8	VENUS	1557	n/a	n/a	0	0	0
1645.168	n/a	WORD	822584	wordpools/wasnorm_wordpool_576.txt	LTP304	ltpFR2	6	8	SHORTS	1293	n/a	n/a	0	0	0
1647.672	n/a	WORD	823836	wordpools/wasnorm_wordpool_576.txt	LTP304	ltpFR2	6	8	DENIM	446	n/a	n/a	0	0	0
1650.34	n/a	WORD	825170	wordpools/wasnorm_wordpool_576.txt	LTP304	ltpFR2	6	8	CLAMP	316	n/a	n/a	0	0	0
1652.844	n/a	WORD	826422	wordpools/wasnorm_wordpool_576.txt	LTP304	ltpFR2	6	8	WAITRESS	1581	n/a	n/a	0	0	0
1655.446	n/a	WORD	827723	wordpools/wasnorm_wordpool_576.txt	LTP304	ltpFR2	6	8	RADISH	1158	n/a	n/a	0	0	0
1658.08	n/a	WORD	829040	wordpools/wasnorm_wordpool_576.txt	LTP304	ltpFR2	6	8	RIVER	1194	n/a	n/a	0	0	0
1660.768	n/a	WORD	830384	wordpools/wasnorm_wordpool_576.txt	LTP304	ltpFR2	6	8	CRIB	407	n/a	n/a	0	0	0
1663.202	n/a	WORD	831601	wordpools/wasnorm_wordpool_576.txt	LTP304	ltpFR2	6	8	FLIPPER	580	n/a	n/a	0	0	0
1665.788	n/a	WORD	832894	wordpools/wasnorm_wordpool_576.txt	LTP304	ltpFR2	6	8	RUST	1219	n/a	n/a	0	0	0
1668.356	n/a	WORD	834178	wordpools/wasnorm_wordpool_576.txt	LTP304	ltpFR2	6	8	SOFTBALL	1343	n/a	n/a	0	0	0
1670.992	n/a	WORD	835496	wordpools/wasnorm_wordpool_576.txt	LTP304	ltpFR2	6	8	KIDNEY	776	n/a	n/a	0	0	0
1673.494	n/a	WORD	836747	wordpools/wasnorm_wordpool_576.txt	LTP304	ltpFR2	6	8	PROTON	1132	n/a	n/a	0	0	0
1676.262	n/a	WORD	838131	wordpools/wasnorm_wordpool_576.txt	LTP304	ltpFR2	6	8	CATTLE	261	n/a	n/a	0	0	0
1678.882	n/a	WORD	839441	wordpools/wasnorm_wordpool_576.txt	LTP304	ltpFR2	6	8	PIMPLE	1071	n/a	n/a	0	0	0
1681.384	n/a	WORD	840692	wordpools/wasnorm_wordpool_576.txt	LTP304	ltpFR2	6	8	SLIME	1327	n/a	n/a	0	0	0
1684.02	n/a	WORD	842010	wordpools/wasnorm_wordpool_576.txt	LTP304	ltpFR2	6	8	BANJO	82	n/a	n/a	0	0	0
1686.706	n/a	WORD	843353	wordpools/wasnorm_wordpool_576.txt	LTP304	ltpFR2	6	8	ATOM	55	n/a	n/a	0	0	0
1689.19	n/a	WORD	844595	wordpools/wasnorm_wordpool_576.txt	LTP304	ltpFR2	6	8	SAUSAGE	1238	n/a	n/a	0	0	0
1691.676	n/a	WORD	845838	wordpools/wasnorm_wordpool_576.txt	LTP304	ltpFR2	6	8	CHILD	299	n/a	n/a	0	0	0
1694.31	n/a	WORD	847155	wordpools/wasnorm_wordpool_576.txt	LTP304	ltpFR2	6	8	PARENT	1013	n/a	n/a	0	0	0
1695.93	n/a	START	847965	n/a	LTP304	ltpFR2	6	n/a	n/a	n/a	12	n/a	n/a	n/a	n/a
1696.744	n/a	DISTRACTOR	848372	n/a	LTP304	ltpFR2	6	8	n/a	n/a	n/a	n/a	0	0	0
1696.764	n/a	PROB	848382	n/a	LTP304	ltpFR2	6	n/a	n/a	n/a	12	7	1	1	5
1698.098	n/a	PROB	849049	n/a	LTP304	ltpFR2	6	n/a	n/a	n/a	12	22	4	7	9
1700.684	n/a	PROB	850342	n/a	LTP304	ltpFR2	6	n/a	n/a	n/a	12	11	4	3	4
1702.55	n/a	PROB	851275	n/a	LTP304	ltpFR2	6	n/a	n/a	n/a	12	16	8	7	1
1704.0	n/a	PROB	852000	n/a	LTP304	ltpFR2	6	n/a	n/a	n/a	12	14	9	3	2
1705.672	n/a	PROB	852836	n/a	LTP304	ltpFR2	6	n/a	n/a	n/a	12	19	6	5	8
1707.454	n/a	PROB	853727	n/a	LTP304	ltpFR2	6	n/a	n/a	n/a	12	21	8	8	5
1709.24	n/a	PROB	854620	n/a	LTP304	ltpFR2	6	n/a	n/a	n/a	12	11	2	6	3
1711.608	n/a	PROB	855804	n/a	LTP304	ltpFR2	6	n/a	n/a	n/a	12	16	4	9	3
1714.026	n/a	PROB	857013	n/a	LTP304	ltpFR2	6	n/a	n/a	n/a	12	19	8	8	3
1715.73	n/a	PROB	857865	n/a	LTP304	ltpFR2	6	n/a	n/a	n/a	12	11	2	7	2
1717.746	n/a	PROB	858873	n/a	LTP304	ltpFR2	6	n/a	n/a	n/a	12	12	5	3	4
1719.666	n/a	STOP	859833	n/a	LTP304	ltpFR2	6	n/a	n/a	n/a	12	n/a	n/a	n/a	n/a
1721.768	n/a	REC_START	860884	n/a	LTP304	ltpFR2	6	8	n/a	n/a	n/a	n/a	0	0	0
1724.87	n/a	REC_WORD	862435	wordpools/wasnorm_wordpool_576.txt	LTP304	ltpFR2	6	8	PROTON	1132	n/a	n/a	0	0	0
1725.7	n/a	REC_WORD	862850	wordpools/wasnorm_wordpool_576.txt	LTP304	ltpFR2	6	8	CRIB	407	n/a	n/a	0	0	0
1726.1	n/a	REC_WORD	863050	wordpools/wasnorm_wordpool_576.txt	LTP304	ltpFR2	6	8	RUST	1219	n/a	n/a	0	0	0
1726.692	n/a	REC_WORD	863346	wordpools/wasnorm_wordpool_576.txt	LTP304	ltpFR2	6	8	FLIPPER	580	n/a	n/a	0	0	0
1728.012	n/a	REC_WORD	864006	wordpools/wasnorm_wordpool_576.txt	LTP304	ltpFR2	6	8	KIDNEY	776	n/a	n/a	0	0	0
1729.192	n/a	REC_WORD	864596	wordpools/wasnorm_wordpool_576.txt	LTP304	ltpFR2	6	8	CATTLE	261	n/a	n/a	0	0	0
1731.29	n/a	REC_WORD	865645	wordpools/wasnorm_wordpool_576.txt	LTP304	ltpFR2	6	8	RIVER	1194	n/a	n/a	0	0	0
1732.06	n/a	REC_WORD	866030	wordpools/wasnorm_wordpool_576.txt	LTP304	ltpFR2	6	8	PIMPLE	1071	n/a	n/a	0	0	0
1732.538	n/a	REC_WORD	866269	wordpools/wasnorm_wordpool_576.txt	LTP304	ltpFR2	6	8	SLIME	1327	n/a	n/a	0	0	0
1733.308	n/a	REC_WORD	866654	wordpools/wasnorm_wordpool_576.txt	LTP304	ltpFR2	6	8	BANJO	82	n/a	n/a	0	0	0
1737.146	n/a	REC_WORD	868573	wordpools/wasnorm_wordpool_576.txt	LTP304	ltpFR2	6	8	TEACHER	1440	n/a	n/a	0	0	0
1738.3	n/a	REC_WORD	869150	wordpools/wasnorm_wordpool_576.txt	LTP304	ltpFR2	6	8	MARS	873	n/a	n/a	0	0	0
1741.634	n/a	REC_WORD	870817	wordpools/wasnorm_wordpool_576.txt	LTP304	ltpFR2	6	8	WAITRESS	1581	n/a	n/a	0	0	0
1767.526	n/a	REC_WORD	883763	wordpools/wasnorm_wordpool_576.txt	LTP304	ltpFR2	6	8	BANJO	82	n/a	n/a	0	0	0
1798.302	n/a	REST_REWET	899151	n/a	LTP304	ltpFR2	6	8	n/a	n/a	n/a	n/a	0	0	0
2182.3	n/a	WORD	1091150	wordpools/wasnorm_wordpool_576.txt	LTP304	ltpFR2	6	9	PATIENT	1024	n/a	n/a	0	0	0
2184.934	n/a	WORD	1092467	wordpools/wasnorm_wordpool_576.txt	LTP304	ltpFR2	6	9	SNAIL	1332	n/a	n/a	0	0	0
2187.486	n/a	WORD	1093743	wordpools/wasnorm_wordpool_576.txt	LTP304	ltpFR2	6	9	CEILING	265	n/a	n/a	0	0	0
2190.12	n/a	WORD	1095060	wordpools/wasnorm_wordpool_576.txt	LTP304	ltpFR2	6	9	GRIZZLY	662	n/a	n/a	0	0	0
2192.708	n/a	WORD	1096354	wordpools/wasnorm_wordpool_576.txt	LTP304	ltpFR2	6	9	POCKET	1093	n/a	n/a	0	0	0
2195.208	n/a	WORD	1097604	wordpools/wasnorm_wordpool_576.txt	LTP304	ltpFR2	6	9	WIFE	1609	n/a	n/a	0	0	0
2197.662	n/a	WORD	1098831	wordpools/wasnorm_wordpool_576.txt	LTP304	ltpFR2	6	9	LADDER	793	n/a	n/a	0	0	0
2200.146	n/a	WORD	1100073	wordpools/wasnorm_wordpool_576.txt	LTP304	ltpFR2	6	9	RABBIT	1152	n/a	n/a	0	0	0
2202.634	n/a	WORD	1101317	wordpools/wasnorm_wordpool_576.txt	LTP304	ltpFR2	6	9	TORTOISE	1486	n/a	n/a	0	0	0
2205.286	n/a	WORD	1102643	wordpools/wasnorm_wordpool_576.txt	LTP304	ltpFR2	6	9	DAUGHTER	442	n/a	n/a	0	0	0
2208.052	n/a	WORD	1104026	wordpools/wasnorm_wordpool_576.txt	LTP304	ltpFR2	6	9	SIBLING	1301	n/a	n/a	0	0	0
2210.82	n/a	WORD	1105410	wordpools/wasnorm_wordpool_576.txt	LTP304	ltpFR2	6	9	SPOON	1357	n/a	n/a	0	0	0
2213.492	n/a	WORD	1106746	wordpools/wasnorm_wordpool_576.txt	LTP304	ltpFR2	6	9	SMOG	1330	n/a	n/a	0	0	0
2216.262	n/a	WORD	1108131	wordpools/wasnorm_wordpool_576.txt	LTP304	ltpFR2	6	9	TREAT	1501	n/a	n/a	0	0	0
2218.994	n/a	WORD	1109497	wordpools/wasnorm_wordpool_576.txt	LTP304	ltpFR2	6	9	TWEEZERS	1526	n/a	n/a	0	0	0
2221.802	n/a	WORD	1110901	wordpools/wasnorm_wordpool_576.txt	LTP304	ltpFR2	6	9	SPOUSE	1358	n/a	n/a	0	0	0
2224.586	n/a	WORD	1112293	wordpools/wasnorm_wordpool_576.txt	LTP304	ltpFR2	6	9	POPCORN	1104	n/a	n/a	0	0	0
2227.072	n/a	WORD	1113536	wordpools/wasnorm_wordpool_576.txt	LTP304	ltpFR2	6	9	FILM	565	n/a	n/a	0	0	0
2229.752	n/a	WORD	1114876	wordpools/wasnorm_wordpool_576.txt	LTP304	ltpFR2	6	9	BUTCHER	203	n/a	n/a	0	0	0
2232.504	n/a	WORD	1116252	wordpools/wasnorm_wordpool_576.txt	LTP304	ltpFR2	6	9	HANDBAG	684	n/a	n/a	0	0	0
2235.006	n/a	WORD	1117503	wordpools/wasnorm_wordpool_576.txt	LTP304	ltpFR2	6	9	MUFFIN	929	n/a	n/a	0	0	0
2237.474	n/a	WORD	1118737	wordpools/wasnorm_wordpool_576.txt	LTP304	ltpFR2	6	9	POISON	1096	n/a	n/a	0	0	0
2240.11	n/a	WORD	1120055	wordpools/wasnorm_wordpool_576.txt	LTP304	ltpFR2	6	9	SNAKE	1333	n/a	n/a	0	0	0
2242.768	n/a	WORD	1121384	wordpools/wasnorm_wordpool_576.txt	LTP304	ltpFR2	6	9	ROBIN	1199	n/a	n/a	0	0	0
2244.38	n/a	START	1122190	n/a	LTP304	ltpFR2	6	n/a	n/a	n/a	13	n/a	n/a	n/a	n/a
2245.192	n/a	DISTRACTOR	1122596	n/a	LTP304	ltpFR2	6	9	n/a	n/a	n/a	n/a	0	0	0
2245.198	n/a	PROB	1122599	n/a	LTP304	ltpFR2	6	n/a	n/a	n/a	13	18	8	1	9
2246.72	n/a	PROB	1123360	n/a	LTP304	ltpFR2	6	n/a	n/a	n/a	13	28	9	9	9
2251.692	n/a	PROB	1125846	n/a	LTP304	ltpFR2	6	n/a	n/a	n/a	13	23	6	7	9
2254.746	n/a	PROB	1127373	n/a	LTP304	ltpFR2	6	n/a	n/a	n/a	13	6	1	4	1
2256.028	n/a	PROB	1128014	n/a	LTP304	ltpFR2	6	n/a	n/a	n/a	13	19	6	8	5
2258.98	n/a	PROB	1129490	n/a	LTP304	ltpFR2	6	n/a	n/a	n/a	13	20	8	4	8
2261.384	n/a	PROB	1130692	n/a	LTP304	ltpFR2	6	n/a	n/a	n/a	13	9	1	3	5
2262.786	n/a	PROB	1131393	n/a	LTP304	ltpFR2	6	n/a	n/a	n/a	13	14	6	5	3
2268.382	n/a	STOP	1134191	n/a	LTP304	ltpFR2	6	n/a	n/a	n/a	13	n/a	n/a	n/a	n/a
2270.292	n/a	REC_START	1135146	n/a	LTP304	ltpFR2	6	9	n/a	n/a	n/a	n/a	0	0	0
2271.884	n/a	REC_WORD	1135942	wordpools/wasnorm_wordpool_576.txt	LTP304	ltpFR2	6	9	PATIENT	1024	n/a	n/a	0	0	0
2272.304	n/a	REC_WORD	1136152	wordpools/wasnorm_wordpool_576.txt	LTP304	ltpFR2	6	9	SNAIL	1332	n/a	n/a	0	0	0
2272.774	n/a	REC_WORD	1136387	wordpools/wasnorm_wordpool_576.txt	LTP304	ltpFR2	6	9	CEILING	265	n/a	n/a	0	0	0
2273.552	n/a	REC_WORD	1136776	wordpools/wasnorm_wordpool_576.txt	LTP304	ltpFR2	6	9	GRIZZLY	662	n/a	n/a	0	0	0
2274.11	n/a	REC_WORD	1137055	wordpools/wasnorm_wordpool_576.txt	LTP304	ltpFR2	6	9	POCKET	1093	n/a	n/a	0	0	0
2275.17	n/a	REC_WORD	1137585	wordpools/wasnorm_wordpool_576.txt	LTP304	ltpFR2	6	9	WIFE	1609	n/a	n/a	0	0	0
2275.536	n/a	REC_WORD	1137768	wordpools/wasnorm_wordpool_576.txt	LTP304	ltpFR2	6	9	SPOUSE	1358	n/a	n/a	0	0	0
2279.034	n/a	REC_WORD	1139517	wordpools/wasnorm_wordpool_576.txt	LTP304	ltpFR2	6	9	SIBLING	1301	n/a	n/a	0	0	0
2280.22	n/a	REC_WORD	1140110	wordpools/wasnorm_wordpool_576.txt	LTP304	ltpFR2	6	9	SISTER	1312	n/a	n/a	0	0	0
2282.452	n/a	REC_WORD	1141226	wordpools/wasnorm_wordpool_576.txt	LTP304	ltpFR2	6	9	POPCORN	1104	n/a	n/a	0	0	0
2283.162	n/a	REC_WORD	1141581	wordpools/wasnorm_wordpool_576.txt	LTP304	ltpFR2	6	9	FILM	565	n/a	n/a	0	0	0
2284.622	n/a	REC_WORD	1142311	wordpools/wasnorm_wordpool_576.txt	LTP304	ltpFR2	6	9	TWEEZERS	1526	n/a	n/a	0	0	0
2294.564	n/a	REC_WORD	1147282	wordpools/wasnorm_wordpool_576.txt	LTP304	ltpFR2	6	9	TORTOISE	1486	n/a	n/a	0	0	0
2295.996	n/a	REC_WORD	1147998	wordpools/wasnorm_wordpool_576.txt	LTP304	ltpFR2	6	9	RABBIT	1152	n/a	n/a	0	0	0
2298.082	n/a	REC_WORD	1149041	wordpools/wasnorm_wordpool_576.txt	LTP304	ltpFR2	6	9	LADDER	793	n/a	n/a	0	0	0
2311.73	n/a	REC_WORD	1155865	wordpools/wasnorm_wordpool_576.txt	LTP304	ltpFR2	6	9	HANDBAG	684	n/a	n/a	0	0	0
2312.318	n/a	REC_WORD	1156159	wordpools/wasnorm_wordpool_576.txt	LTP304	ltpFR2	6	9	POISON	1096	n/a	n/a	0	0	0
2312.788	n/a	REC_WORD	1156394	wordpools/wasnorm_wordpool_576.txt	LTP304	ltpFR2	6	9	SNAKE	1333	n/a	n/a	0	0	0
2344.0	n/a	REC_WORD	1172000	wordpools/wasnorm_wordpool_576.txt	LTP304	ltpFR2	6	9	BUTCHER	203	n/a	n/a	0	0	0
2360.724	n/a	DISTRACTOR	1180362	n/a	LTP304	ltpFR2	6	10	n/a	n/a	n/a	n/a	0	0	0
2360.724	n/a	START	1180362	n/a	LTP304	ltpFR2	6	n/a	n/a	n/a	14	n/a	n/a	n/a	n/a
2360.738	n/a	PROB	1180369	n/a	LTP304	ltpFR2	6	n/a	n/a	n/a	14	13	2	9	2
2362.754	n/a	PROB	1181377	n/a	LTP304	ltpFR2	6	n/a	n/a	n/a	14	7	1	2	4
2364.156	n/a	PROB	1182078	n/a	LTP304	ltpFR2	6	n/a	n/a	n/a	14	16	9	2	5
2365.792	n/a	PROB	1182896	n/a	LTP304	ltpFR2	6	n/a	n/a	n/a	14	19	6	6	7
2367.458	n/a	PROB	1183729	n/a	LTP304	ltpFR2	6	n/a	n/a	n/a	14	11	1	3	7
2369.094	n/a	PROB	1184547	n/a	LTP304	ltpFR2	6	n/a	n/a	n/a	14	18	9	3	6
2372.046	n/a	PROB	1186023	n/a	LTP304	ltpFR2	6	n/a	n/a	n/a	14	14	4	7	3
2373.48	n/a	PROB	1186740	n/a	LTP304	ltpFR2	6	n/a	n/a	n/a	14	12	4	7	1
2375.53	n/a	PROB	1187765	n/a	LTP304	ltpFR2	6	n/a	n/a	n/a	14	15	4	2	9
2377.15	n/a	PROB	1188575	n/a	LTP304	ltpFR2	6	n/a	n/a	n/a	14	11	4	4	3
2380.702	n/a	PROB	1190351	n/a	LTP304	ltpFR2	6	n/a	n/a	n/a	14	18	1	8	9
2382.02	n/a	PROB	1191010	n/a	LTP304	ltpFR2	6	n/a	n/a	n/a	14	8	3	1	4
2383.614	n/a	STOP	1191807	n/a	LTP304	ltpFR2	6	n/a	n/a	n/a	14	n/a	n/a	n/a	n/a
2385.826	n/a	WORD	1192913	wordpools/wasnorm_wordpool_576.txt	LTP304	ltpFR2	6	10	DIVER	476	n/a	n/a	0	0	0
2388.51	n/a	WORD	1194255	wordpools/wasnorm_wordpool_576.txt	LTP304	ltpFR2	6	10	STREAM	1392	n/a	n/a	0	0	0
2390.996	n/a	WORD	1195498	wordpools/wasnorm_wordpool_576.txt	LTP304	ltpFR2	6	10	CRATER	400	n/a	n/a	0	0	0
2393.698	n/a	WORD	1196849	wordpools/wasnorm_wordpool_576.txt	LTP304	ltpFR2	6	10	CREVICE	405	n/a	n/a	0	0	0
2396.316	n/a	WORD	1198158	wordpools/wasnorm_wordpool_576.txt	LTP304	ltpFR2	6	10	COURSE	390	n/a	n/a	0	0	0
2398.986	n/a	WORD	1199493	wordpools/wasnorm_wordpool_576.txt	LTP304	ltpFR2	6	10	HEART	697	n/a	n/a	0	0	0
2401.504	n/a	WORD	1200752	wordpools/wasnorm_wordpool_576.txt	LTP304	ltpFR2	6	10	TWISTER	1530	n/a	n/a	0	0	0
2404.24	n/a	WORD	1202120	wordpools/wasnorm_wordpool_576.txt	LTP304	ltpFR2	6	10	SUITCASE	1403	n/a	n/a	0	0	0
2406.81	n/a	WORD	1203405	wordpools/wasnorm_wordpool_576.txt	LTP304	ltpFR2	6	10	CUSTARD	429	n/a	n/a	0	0	0
2409.394	n/a	WORD	1204697	wordpools/wasnorm_wordpool_576.txt	LTP304	ltpFR2	6	10	OZONE	996	n/a	n/a	0	0	0
2412.13	n/a	WORD	1206065	wordpools/wasnorm_wordpool_576.txt	LTP304	ltpFR2	6	10	SERVER	1272	n/a	n/a	0	0	0
2414.7	n/a	WORD	1207350	wordpools/wasnorm_wordpool_576.txt	LTP304	ltpFR2	6	10	PERFUME	1049	n/a	n/a	0	0	0
2417.152	n/a	WORD	1208576	wordpools/wasnorm_wordpool_576.txt	LTP304	ltpFR2	6	10	EAGLE	512	n/a	n/a	0	0	0
2419.652	n/a	WORD	1209826	wordpools/wasnorm_wordpool_576.txt	LTP304	ltpFR2	6	10	DIME	466	n/a	n/a	0	0	0
2422.238	n/a	WORD	1211119	wordpools/wasnorm_wordpool_576.txt	LTP304	ltpFR2	6	10	BOYFRIEND	162	n/a	n/a	0	0	0
2424.758	n/a	WORD	1212379	wordpools/wasnorm_wordpool_576.txt	LTP304	ltpFR2	6	10	BALLOON	75	n/a	n/a	0	0	0
2427.208	n/a	WORD	1213604	wordpools/wasnorm_wordpool_576.txt	LTP304	ltpFR2	6	10	CLOUD	328	n/a	n/a	0	0	0
2429.878	n/a	WORD	1214939	wordpools/wasnorm_wordpool_576.txt	LTP304	ltpFR2	6	10	GLOBE	641	n/a	n/a	0	0	0
2432.698	n/a	WORD	1216349	wordpools/wasnorm_wordpool_576.txt	LTP304	ltpFR2	6	10	LUGGAGE	847	n/a	n/a	0	0	0
2435.314	n/a	WORD	1217657	wordpools/wasnorm_wordpool_576.txt	LTP304	ltpFR2	6	10	FLEET	578	n/a	n/a	0	0	0
2437.85	n/a	WORD	1218925	wordpools/wasnorm_wordpool_576.txt	LTP304	ltpFR2	6	10	ROCKET	1202	n/a	n/a	0	0	0
2440.402	n/a	WORD	1220201	wordpools/wasnorm_wordpool_576.txt	LTP304	ltpFR2	6	10	PARROT	1015	n/a	n/a	0	0	0
2443.004	n/a	WORD	1221502	wordpools/wasnorm_wordpool_576.txt	LTP304	ltpFR2	6	10	COLLEGE	346	n/a	n/a	0	0	0
2445.758	n/a	WORD	1222879	wordpools/wasnorm_wordpool_576.txt	LTP304	ltpFR2	6	10	GARBAGE	622	n/a	n/a	0	0	0
2447.374	n/a	START	1223687	n/a	LTP304	ltpFR2	6	n/a	n/a	n/a	15	n/a	n/a	n/a	n/a
2448.534	n/a	DISTRACTOR	1224267	n/a	LTP304	ltpFR2	6	10	n/a	n/a	n/a	n/a	0	0	0
2448.542	n/a	PROB	1224271	n/a	LTP304	ltpFR2	6	n/a	n/a	n/a	15	11	3	2	6
2451.178	n/a	PROB	1225589	n/a	LTP304	ltpFR2	6	n/a	n/a	n/a	15	11	1	3	7
2453.064	n/a	PROB	1226532	n/a	LTP304	ltpFR2	6	n/a	n/a	n/a	15	10	4	2	4
2454.662	n/a	PROB	1227331	n/a	LTP304	ltpFR2	6	n/a	n/a	n/a	15	23	6	9	8
2456.766	n/a	PROB	1228383	n/a	LTP304	ltpFR2	6	n/a	n/a	n/a	15	10	2	4	4
2458.154	n/a	PROB	1229077	n/a	LTP304	ltpFR2	6	n/a	n/a	n/a	15	9	1	1	7
2460.038	n/a	PROB	1230019	n/a	LTP304	ltpFR2	6	n/a	n/a	n/a	15	14	3	2	9
2461.518	n/a	PROB	1230759	n/a	LTP304	ltpFR2	6	n/a	n/a	n/a	15	15	5	3	7
2462.836	n/a	PROB	1231418	n/a	LTP304	ltpFR2	6	n/a	n/a	n/a	15	11	6	4	1
2464.04	n/a	PROB	1232020	n/a	LTP304	ltpFR2	6	n/a	n/a	n/a	15	13	1	7	5
2466.762	n/a	PROB	1233381	n/a	LTP304	ltpFR2	6	n/a	n/a	n/a	15	14	4	7	3
2467.962	n/a	PROB	1233981	n/a	LTP304	ltpFR2	6	n/a	n/a	n/a	15	18	7	8	3
2470.576	n/a	STOP	1235288	n/a	LTP304	ltpFR2	6	n/a	n/a	n/a	15	n/a	n/a	n/a	n/a
2473.214	n/a	REC_START	1236607	n/a	LTP304	ltpFR2	6	10	n/a	n/a	n/a	n/a	0	0	0
2474.07	n/a	REC_WORD	1237035	wordpools/wasnorm_wordpool_576.txt	LTP304	ltpFR2	6	10	DIVER	476	n/a	n/a	0	0	0
2476.362	n/a	REC_WORD	1238181	wordpools/wasnorm_wordpool_576.txt	LTP304	ltpFR2	6	10	RIVER	1194	n/a	n/a	0	0	0
2477.152	n/a	REC_WORD	1238576	wordpools/wasnorm_wordpool_576.txt	LTP304	ltpFR2	6	10	CRATER	400	n/a	n/a	0	0	0
2478.194	n/a	REC_WORD	1239097	wordpools/wasnorm_wordpool_576.txt	LTP304	ltpFR2	6	10	CREVICE	405	n/a	n/a	0	0	0
2479.36	n/a	REC_WORD	1239680	wordpools/wasnorm_wordpool_576.txt	LTP304	ltpFR2	6	10	COURSE	390	n/a	n/a	0	0	0
2480.126	n/a	REC_WORD	1240063	wordpools/wasnorm_wordpool_576.txt	LTP304	ltpFR2	6	10	HEART	697	n/a	n/a	0	0	0
2481.516	n/a	REC_WORD	1240758	wordpools/wasnorm_wordpool_576.txt	LTP304	ltpFR2	6	10	TWISTER	1530	n/a	n/a	0	0	0
2484.414	n/a	REC_WORD	1242207	wordpools/wasnorm_wordpool_576.txt	LTP304	ltpFR2	6	10	PARROT	1015	n/a	n/a	0	0	0
2485.264	n/a	REC_WORD	1242632	wordpools/wasnorm_wordpool_576.txt	LTP304	ltpFR2	6	10	COLLEGE	346	n/a	n/a	0	0	0
2486.2	n/a	REC_WORD	1243100	wordpools/wasnorm_wordpool_576.txt	LTP304	ltpFR2	6	10	ROCKET	1202	n/a	n/a	0	0	0
2488.304	n/a	REC_WORD	1244152	wordpools/wasnorm_wordpool_576.txt	LTP304	ltpFR2	6	10	GARBAGE	622	n/a	n/a	0	0	0
2499.488	n/a	REC_WORD	1249744	wordpools/wasnorm_wordpool_576.txt	LTP304	ltpFR2	6	10	SMOG	1330	n/a	n/a	0	0	0
2563.66	n/a	WORD	1281830	wordpools/wasnorm_wordpool_576.txt	LTP304	ltpFR2	6	11	SLUG	1329	n/a	n/a	0	0	0
2566.146	n/a	WORD	1283073	wordpools/wasnorm_wordpool_576.txt	LTP304	ltpFR2	6	11	BRICK	172	n/a	n/a	0	0	0
2568.948	n/a	WORD	1284474	wordpools/wasnorm_wordpool_576.txt	LTP304	ltpFR2	6	11	PLASTER	1085	n/a	n/a	0	0	0
2571.668	n/a	WORD	1285834	wordpools/wasnorm_wordpool_576.txt	LTP304	ltpFR2	6	11	FRAGRANCE	599	n/a	n/a	0	0	0
2574.142	n/a	WORD	1287071	wordpools/wasnorm_wordpool_576.txt	LTP304	ltpFR2	6	11	SEAGULL	1261	n/a	n/a	0	0	0
2576.744	n/a	WORD	1288372	wordpools/wasnorm_wordpool_576.txt	LTP304	ltpFR2	6	11	GRAVE	658	n/a	n/a	0	0	0
2579.508	n/a	WORD	1289754	wordpools/wasnorm_wordpool_576.txt	LTP304	ltpFR2	6	11	GUITAR	670	n/a	n/a	0	0	0
2582.028	n/a	WORD	1291014	wordpools/wasnorm_wordpool_576.txt	LTP304	ltpFR2	6	11	CLOTHES	327	n/a	n/a	0	0	0
2584.78	n/a	WORD	1292390	wordpools/wasnorm_wordpool_576.txt	LTP304	ltpFR2	6	11	WIDOW	1608	n/a	n/a	0	0	0
2587.482	n/a	WORD	1293741	wordpools/wasnorm_wordpool_576.txt	LTP304	ltpFR2	6	11	QUAIL	1147	n/a	n/a	0	0	0
2590.138	n/a	WORD	1295069	wordpools/wasnorm_wordpool_576.txt	LTP304	ltpFR2	6	11	HAWK	692	n/a	n/a	0	0	0
2592.686	n/a	WORD	1296343	wordpools/wasnorm_wordpool_576.txt	LTP304	ltpFR2	6	11	MEDAL	885	n/a	n/a	0	0	0
2595.238	n/a	WORD	1297619	wordpools/wasnorm_wordpool_576.txt	LTP304	ltpFR2	6	11	SKILLET	1317	n/a	n/a	0	0	0
2597.892	n/a	WORD	1298946	wordpools/wasnorm_wordpool_576.txt	LTP304	ltpFR2	6	11	NIGHTGOWN	953	n/a	n/a	0	0	0
2600.458	n/a	WORD	1300229	wordpools/wasnorm_wordpool_576.txt	LTP304	ltpFR2	6	11	MOTEL	919	n/a	n/a	0	0	0
2603.082	n/a	WORD	1301541	wordpools/wasnorm_wordpool_576.txt	LTP304	ltpFR2	6	11	GYMNAST	675	n/a	n/a	0	0	0
2605.596	n/a	WORD	1302798	wordpools/wasnorm_wordpool_576.txt	LTP304	ltpFR2	6	11	BLENDER	136	n/a	n/a	0	0	0
2608.35	n/a	WORD	1304175	wordpools/wasnorm_wordpool_576.txt	LTP304	ltpFR2	6	11	SHELTER	1282	n/a	n/a	0	0	0
2611.002	n/a	WORD	1305501	wordpools/wasnorm_wordpool_576.txt	LTP304	ltpFR2	6	11	WOMAN	1620	n/a	n/a	0	0	0
2613.688	n/a	WORD	1306844	wordpools/wasnorm_wordpool_576.txt	LTP304	ltpFR2	6	11	FEMALE	559	n/a	n/a	0	0	0
2616.172	n/a	WORD	1308086	wordpools/wasnorm_wordpool_576.txt	LTP304	ltpFR2	6	11	SCULPTURE	1258	n/a	n/a	0	0	0
2618.626	n/a	WORD	1309313	wordpools/wasnorm_wordpool_576.txt	LTP304	ltpFR2	6	11	GARLIC	624	n/a	n/a	0	0	0
2621.428	n/a	WORD	1310714	wordpools/wasnorm_wordpool_576.txt	LTP304	ltpFR2	6	11	CAFE	216	n/a	n/a	0	0	0
2624.046	n/a	WORD	1312023	wordpools/wasnorm_wordpool_576.txt	LTP304	ltpFR2	6	11	CYCLONE	431	n/a	n/a	0	0	0
2625.666	n/a	START	1312833	n/a	LTP304	ltpFR2	6	n/a	n/a	n/a	16	n/a	n/a	n/a	n/a
2626.502	n/a	DISTRACTOR	1313251	n/a	LTP304	ltpFR2	6	11	n/a	n/a	n/a	n/a	0	0	0
2626.514	n/a	PROB	1313257	n/a	LTP304	ltpFR2	6	n/a	n/a	n/a	16	11	1	8	2
2628.0	n/a	PROB	1314000	n/a	LTP304	ltpFR2	6	n/a	n/a	n/a	16	14	4	4	6
2629.786	n/a	PROB	1314893	n/a	LTP304	ltpFR2	6	n/a	n/a	n/a	16	16	5	2	9
2631.468	n/a	PROB	1315734	n/a	LTP304	ltpFR2	6	n/a	n/a	n/a	16	9	1	3	5
2634.354	n/a	PROB	1317177	n/a	LTP304	ltpFR2	6	n/a	n/a	n/a	16	18	6	7	5
2638.54	n/a	PROB	1319270	n/a	LTP304	ltpFR2	6	n/a	n/a	n/a	16	15	2	6	7
2640.194	n/a	PROB	1320097	n/a	LTP304	ltpFR2	6	n/a	n/a	n/a	16	18	6	9	3
2642.862	n/a	PROB	1321431	n/a	LTP304	ltpFR2	6	n/a	n/a	n/a	16	26	8	9	9
2645.232	n/a	PROB	1322616	n/a	LTP304	ltpFR2	6	n/a	n/a	n/a	16	6	1	1	4
2647.466	n/a	PROB	1323733	n/a	LTP304	ltpFR2	6	n/a	n/a	n/a	16	15	5	6	4
2648.806	n/a	STOP	1324403	n/a	LTP304	ltpFR2	6	n/a	n/a	n/a	16	n/a	n/a	n/a	n/a
2651.474	n/a	REC_START	1325737	n/a	LTP304	ltpFR2	6	11	n/a	n/a	n/a	n/a	0	0	0
2652.746	n/a	REC_WORD	1326373	wordpools/wasnorm_wordpool_576.txt	LTP304	ltpFR2	6	11	SLUG	1329	n/a	n/a	0	0	0
2654.17	n/a	REC_WORD	1327085	wordpools/wasnorm_wordpool_576.txt	LTP304	ltpFR2	6	11	BRICK	172	n/a	n/a	0	0	0
2654.792	n/a	REC_WORD	1327396	wordpools/wasnorm_wordpool_576.txt	LTP304	ltpFR2	6	11	PLASTER	1085	n/a	n/a	0	0	0
2656.86	n/a	REC_WORD	1328430	wordpools/wasnorm_wordpool_576.txt	LTP304	ltpFR2	6	11	GRAVE	658	n/a	n/a	0	0	0
2657.992	n/a	REC_WORD	1328996	wordpools/wasnorm_wordpool_576.txt	LTP304	ltpFR2	6	11	WIDOW	1608	n/a	n/a	0	0	0
2658.446	n/a	REC_WORD	1329223	wordpools/wasnorm_wordpool_576.txt	LTP304	ltpFR2	6	11	GUITAR	670	n/a	n/a	0	0	0
2659.714	n/a	REC_WORD	1329857	wordpools/wasnorm_wordpool_576.txt	LTP304	ltpFR2	6	11	CLOTHES	327	n/a	n/a	0	0	0
2661.662	n/a	REC_WORD	1330831	wordpools/wasnorm_wordpool_576.txt	LTP304	ltpFR2	6	11	QUAIL	1147	n/a	n/a	0	0	0
2662.266	n/a	REC_WORD	1331133	wordpools/wasnorm_wordpool_576.txt	LTP304	ltpFR2	6	11	HAWK	692	n/a	n/a	0	0	0
2667.328	n/a	REC_WORD	1333664	wordpools/wasnorm_wordpool_576.txt	LTP304	ltpFR2	6	11	CAFE	216	n/a	n/a	0	0	0
2669.464	n/a	REC_WORD	1334732	wordpools/wasnorm_wordpool_576.txt	LTP304	ltpFR2	6	11	SCULPTURE	1258	n/a	n/a	0	0	0
2670.178	n/a	REC_WORD	1335089	wordpools/wasnorm_wordpool_576.txt	LTP304	ltpFR2	6	11	CYCLONE	431	n/a	n/a	0	0	0
2670.886	n/a	REC_WORD	1335443	wordpools/wasnorm_wordpool_576.txt	LTP304	ltpFR2	6	11	BLENDER	136	n/a	n/a	0	0	0
2671.374	n/a	REC_WORD	1335687	wordpools/wasnorm_wordpool_576.txt	LTP304	ltpFR2	6	11	SHELTER	1282	n/a	n/a	0	0	0
2674.086	n/a	REC_WORD	1337043	wordpools/wasnorm_wordpool_576.txt	LTP304	ltpFR2	6	11	WOMAN	1620	n/a	n/a	0	0	0
2674.88	n/a	REC_WORD	1337440	wordpools/wasnorm_wordpool_576.txt	LTP304	ltpFR2	6	11	FEMALE	559	n/a	n/a	0	0	0
2741.914	n/a	WORD	1370957	wordpools/wasnorm_wordpool_576.txt	LTP304	ltpFR2	6	12	SALAD	1224	n/a	n/a	0	0	0
2744.6	n/a	WORD	1372300	wordpools/wasnorm_wordpool_576.txt	LTP304	ltpFR2	6	12	CRUTCH	417	n/a	n/a	0	0	0
2747.136	n/a	WORD	1373568	wordpools/wasnorm_wordpool_576.txt	LTP304	ltpFR2	6	12	RACKET	1155	n/a	n/a	0	0	0
2749.748	n/a	WORD	1374874	wordpools/wasnorm_wordpool_576.txt	LTP304	ltpFR2	6	12	BRIEFCASE	175	n/a	n/a	0	0	0
2752.45	n/a	WORD	1376225	wordpools/wasnorm_wordpool_576.txt	LTP304	ltpFR2	6	12	LUNCH	849	n/a	n/a	0	0	0
2755.142	n/a	WORD	1377571	wordpools/wasnorm_wordpool_576.txt	LTP304	ltpFR2	6	12	OUTFIT	988	n/a	n/a	0	0	0
2757.954	n/a	WORD	1378977	wordpools/wasnorm_wordpool_576.txt	LTP304	ltpFR2	6	12	APRON	35	n/a	n/a	0	0	0
2760.398	n/a	WORD	1380199	wordpools/wasnorm_wordpool_576.txt	LTP304	ltpFR2	6	12	NOTEBOOK	959	n/a	n/a	0	0	0
2763.032	n/a	WORD	1381516	wordpools/wasnorm_wordpool_576.txt	LTP304	ltpFR2	6	12	GLOVE	642	n/a	n/a	0	0	0
2765.82	n/a	WORD	1382910	wordpools/wasnorm_wordpool_576.txt	LTP304	ltpFR2	6	12	MAILMAN	858	n/a	n/a	0	0	0
2768.504	n/a	WORD	1384252	wordpools/wasnorm_wordpool_576.txt	LTP304	ltpFR2	6	12	ISLAND	745	n/a	n/a	0	0	0
2770.974	n/a	WORD	1385487	wordpools/wasnorm_wordpool_576.txt	LTP304	ltpFR2	6	12	PECAN	1036	n/a	n/a	0	0	0
2773.76	n/a	WORD	1386880	wordpools/wasnorm_wordpool_576.txt	LTP304	ltpFR2	6	12	EMPIRE	530	n/a	n/a	0	0	0
2776.478	n/a	WORD	1388239	wordpools/wasnorm_wordpool_576.txt	LTP304	ltpFR2	6	12	JAPAN	749	n/a	n/a	0	0	0
2779.13	n/a	WORD	1389565	wordpools/wasnorm_wordpool_576.txt	LTP304	ltpFR2	6	12	GHETTO	633	n/a	n/a	0	0	0
2781.6	n/a	WORD	1390800	wordpools/wasnorm_wordpool_576.txt	LTP304	ltpFR2	6	12	BROTHER	179	n/a	n/a	0	0	0
2784.358	n/a	WORD	1392179	wordpools/wasnorm_wordpool_576.txt	LTP304	ltpFR2	6	12	REPORT	1184	n/a	n/a	0	0	0
2787.17	n/a	WORD	1393585	wordpools/wasnorm_wordpool_576.txt	LTP304	ltpFR2	6	12	CABBAGE	210	n/a	n/a	0	0	0
2789.814	n/a	WORD	1394907	wordpools/wasnorm_wordpool_576.txt	LTP304	ltpFR2	6	12	CARROT	249	n/a	n/a	0	0	0
2792.282	n/a	WORD	1396141	wordpools/wasnorm_wordpool_576.txt	LTP304	ltpFR2	6	12	PLAYGROUND	1087	n/a	n/a	0	0	0
2794.894	n/a	WORD	1397447	wordpools/wasnorm_wordpool_576.txt	LTP304	ltpFR2	6	12	FOOT	590	n/a	n/a	0	0	0
2797.346	n/a	WORD	1398673	wordpools/wasnorm_wordpool_576.txt	LTP304	ltpFR2	6	12	CHAUFFEUR	283	n/a	n/a	0	0	0
2800.114	n/a	WORD	1400057	wordpools/wasnorm_wordpool_576.txt	LTP304	ltpFR2	6	12	DASHBOARD	441	n/a	n/a	0	0	0
2802.618	n/a	WORD	1401309	wordpools/wasnorm_wordpool_576.txt	LTP304	ltpFR2	6	12	RAFT	1159	n/a	n/a	0	0	0
2804.224	n/a	START	1402112	n/a	LTP304	ltpFR2	6	n/a	n/a	n/a	17	n/a	n/a	n/a	n/a
2805.336	n/a	DISTRACTOR	1402668	n/a	LTP304	ltpFR2	6	12	n/a	n/a	n/a	n/a	0	0	0
2805.342	n/a	PROB	1402671	n/a	LTP304	ltpFR2	6	n/a	n/a	n/a	17	15	4	4	7
2807.604	n/a	PROB	1403802	n/a	LTP304	ltpFR2	6	n/a	n/a	n/a	17	17	4	5	8
2809.37	n/a	PROB	1404685	n/a	LTP304	ltpFR2	6	n/a	n/a	n/a	17	16	9	5	2
2811.04	n/a	PROB	1405520	n/a	LTP304	ltpFR2	6	n/a	n/a	n/a	17	22	8	7	6
2813.342	n/a	PROB	1406671	n/a	LTP304	ltpFR2	6	n/a	n/a	n/a	17	24	7	8	9
2815.78	n/a	PROB	1407890	n/a	LTP304	ltpFR2	6	n/a	n/a	n/a	17	11	2	7	2
2817.28	n/a	PROB	1408640	n/a	LTP304	ltpFR2	6	n/a	n/a	n/a	17	13	9	8	6
2820.398	n/a	PROB	1410199	n/a	LTP304	ltpFR2	6	n/a	n/a	n/a	17	23	8	9	6
2824.434	n/a	PROB	1412217	n/a	LTP304	ltpFR2	6	n/a	n/a	n/a	17	19	6	5	8
2826.154	n/a	PROB	1413077	n/a	LTP304	ltpFR2	6	n/a	n/a	n/a	17	15	2	7	6
2827.844	n/a	STOP	1413922	n/a	LTP304	ltpFR2	6	n/a	n/a	n/a	17	n/a	n/a	n/a	n/a
2830.14	n/a	REC_START	1415070	n/a	LTP304	ltpFR2	6	12	n/a	n/a	n/a	n/a	0	0	0
2833.692	n/a	REC_WORD	1416846	wordpools/wasnorm_wordpool_576.txt	LTP304	ltpFR2	6	12	MAILMAN	858	n/a	n/a	0	0	0
2837.256	n/a	REC_WORD	1418628	wordpools/wasnorm_wordpool_576.txt	LTP304	ltpFR2	6	12	GLOVE	642	n/a	n/a	0	0	0
2838.92	n/a	REC_WORD	1419460	wordpools/wasnorm_wordpool_576.txt	LTP304	ltpFR2	6	12	NOTEBOOK	959	n/a	n/a	0	0	0
2841.298	n/a	REC_WORD	1420649	wordpools/wasnorm_wordpool_576.txt	LTP304	ltpFR2	6	12	BRIEFCASE	175	n/a	n/a	0	0	0
2843.996	n/a	REC_WORD	1421998	wordpools/wasnorm_wordpool_576.txt	LTP304	ltpFR2	6	12	EMPIRE	530	n/a	n/a	0	0	0
2845.094	n/a	REC_WORD	1422547	wordpools/wasnorm_wordpool_576.txt	LTP304	ltpFR2	6	12	JAPAN	749	n/a	n/a	0	0	0
2847.484	n/a	REC_WORD	1423742	wordpools/wasnorm_wordpool_576.txt	LTP304	ltpFR2	6	12	CARROT	249	n/a	n/a	0	0	0
2849.998	n/a	REC_WORD	1424999	wordpools/wasnorm_wordpool_576.txt	LTP304	ltpFR2	6	12	PLAYGROUND	1087	n/a	n/a	0	0	0
2855.61	n/a	REC_WORD	1427805	wordpools/wasnorm_wordpool_576.txt	LTP304	ltpFR2	6	12	GHETTO	633	n/a	n/a	0	0	0
2856.094	n/a	REC_WORD	1428047	wordpools/wasnorm_wordpool_576.txt	LTP304	ltpFR2	6	12	BROTHER	179	n/a	n/a	0	0	0
2878.494	n/a	REC_WORD	1439247	wordpools/wasnorm_wordpool_576.txt	LTP304	ltpFR2	6	12	PECAN	1036	n/a	n/a	0	0	0
2889.768	n/a	REC_WORD	1444884	wordpools/wasnorm_wordpool_576.txt	LTP304	ltpFR2	6	12	SALAD	1224	n/a	n/a	0	0	0
2893.616	n/a	REC_WORD	1446808	wordpools/wasnorm_wordpool_576.txt	LTP304	ltpFR2	6	12	CRUTCH	417	n/a	n/a	0	0	0
2920.6	n/a	DISTRACTOR	1460300	n/a	LTP304	ltpFR2	6	13	n/a	n/a	n/a	n/a	0	0	0
2920.602	n/a	START	1460301	n/a	LTP304	ltpFR2	6	n/a	n/a	n/a	18	n/a	n/a	n/a	n/a
2920.618	n/a	PROB	1460309	n/a	LTP304	ltpFR2	6	n/a	n/a	n/a	18	20	7	9	4
2922.686	n/a	PROB	1461343	n/a	LTP304	ltpFR2	6	n/a	n/a	n/a	18	8	2	5	1
2924.402	n/a	PROB	1462201	n/a	LTP304	ltpFR2	6	n/a	n/a	n/a	18	22	9	4	8
2926.89	n/a	PROB	1463445	n/a	LTP304	ltpFR2	6	n/a	n/a	n/a	18	19	7	3	9
2928.438	n/a	PROB	1464219	n/a	LTP304	ltpFR2	6	n/a	n/a	n/a	18	22	8	8	6
2930.86	n/a	PROB	1465430	n/a	LTP304	ltpFR2	6	n/a	n/a	n/a	18	12	1	7	3
2932.81	n/a	PROB	1466405	n/a	LTP304	ltpFR2	6	n/a	n/a	n/a	18	12	4	5	3
2936.316	n/a	PROB	1468158	n/a	LTP304	ltpFR2	6	n/a	n/a	n/a	18	18	7	6	5
2938.28	n/a	PROB	1469140	n/a	LTP304	ltpFR2	6	n/a	n/a	n/a	18	23	7	7	9
2940.586	n/a	PROB	1470293	n/a	LTP304	ltpFR2	6	n/a	n/a	n/a	18	20	9	5	6
2942.534	n/a	PROB	1471267	n/a	LTP304	ltpFR2	6	n/a	n/a	n/a	18	7	1	2	4
2943.758	n/a	STOP	1471879	n/a	LTP304	ltpFR2	6	n/a	n/a	n/a	18	n/a	n/a	n/a	n/a
2945.44	n/a	WORD	1472720	wordpools/wasnorm_wordpool_576.txt	LTP304	ltpFR2	6	13	CUPBOARD	425	n/a	n/a	0	0	0
2948.226	n/a	WORD	1474113	wordpools/wasnorm_wordpool_576.txt	LTP304	ltpFR2	6	13	SPIDER	1351	n/a	n/a	0	0	0
2950.858	n/a	WORD	1475429	wordpools/wasnorm_wordpool_576.txt	LTP304	ltpFR2	6	13	PICNIC	1060	n/a	n/a	0	0	0
2953.448	n/a	WORD	1476724	wordpools/wasnorm_wordpool_576.txt	LTP304	ltpFR2	6	13	BACON	67	n/a	n/a	0	0	0
2955.934	n/a	WORD	1477967	wordpools/wasnorm_wordpool_576.txt	LTP304	ltpFR2	6	13	JURY	766	n/a	n/a	0	0	0
2958.546	n/a	WORD	1479273	wordpools/wasnorm_wordpool_576.txt	LTP304	ltpFR2	6	13	TURKEY	1520	n/a	n/a	0	0	0
2960.998	n/a	WORD	1480499	wordpools/wasnorm_wordpool_576.txt	LTP304	ltpFR2	6	13	COCOON	339	n/a	n/a	0	0	0
2963.802	n/a	WORD	1481901	wordpools/wasnorm_wordpool_576.txt	LTP304	ltpFR2	6	13	PANTHER	1009	n/a	n/a	0	0	0
2966.618	n/a	WORD	1483309	wordpools/wasnorm_wordpool_576.txt	LTP304	ltpFR2	6	13	COUCH	386	n/a	n/a	0	0	0
2969.222	n/a	WORD	1484611	wordpools/wasnorm_wordpool_576.txt	LTP304	ltpFR2	6	13	GRAPE	654	n/a	n/a	0	0	0
2971.808	n/a	WORD	1485904	wordpools/wasnorm_wordpool_576.txt	LTP304	ltpFR2	6	13	GRAVEL	659	n/a	n/a	0	0	0
2974.514	n/a	WORD	1487257	wordpools/wasnorm_wordpool_576.txt	LTP304	ltpFR2	6	13	DUST	508	n/a	n/a	0	0	0
2976.976	n/a	WORD	1488488	wordpools/wasnorm_wordpool_576.txt	LTP304	ltpFR2	6	13	OYSTER	995	n/a	n/a	0	0	0
2979.462	n/a	WORD	1489731	wordpools/wasnorm_wordpool_576.txt	LTP304	ltpFR2	6	13	CLAM	315	n/a	n/a	0	0	0
2982.114	n/a	WORD	1491057	wordpools/wasnorm_wordpool_576.txt	LTP304	ltpFR2	6	13	IGLOO	734	n/a	n/a	0	0	0
2984.64	n/a	WORD	1492320	wordpools/wasnorm_wordpool_576.txt	LTP304	ltpFR2	6	13	BREAST	171	n/a	n/a	0	0	0
2987.26	n/a	WORD	1493630	wordpools/wasnorm_wordpool_576.txt	LTP304	ltpFR2	6	13	CRICKET	408	n/a	n/a	0	0	0
2989.772	n/a	WORD	1494886	wordpools/wasnorm_wordpool_576.txt	LTP304	ltpFR2	6	13	AIRPORT	13	n/a	n/a	0	0	0
2992.44	n/a	WORD	1496220	wordpools/wasnorm_wordpool_576.txt	LTP304	ltpFR2	6	13	AIRPLANE	12	n/a	n/a	0	0	0
2995.134	n/a	WORD	1497567	wordpools/wasnorm_wordpool_576.txt	LTP304	ltpFR2	6	13	STATUE	1374	n/a	n/a	0	0	0
2997.644	n/a	WORD	1498822	wordpools/wasnorm_wordpool_576.txt	LTP304	ltpFR2	6	13	DONKEY	484	n/a	n/a	0	0	0
3000.112	n/a	WORD	1500056	wordpools/wasnorm_wordpool_576.txt	LTP304	ltpFR2	6	13	FARMER	553	n/a	n/a	0	0	0
3002.732	n/a	WORD	1501366	wordpools/wasnorm_wordpool_576.txt	LTP304	ltpFR2	6	13	WAITER	1580	n/a	n/a	0	0	0
3005.274	n/a	WORD	1502637	wordpools/wasnorm_wordpool_576.txt	LTP304	ltpFR2	6	13	PORK	1108	n/a	n/a	0	0	0
3006.886	n/a	START	1503443	n/a	LTP304	ltpFR2	6	n/a	n/a	n/a	19	n/a	n/a	n/a	n/a
3007.798	n/a	DISTRACTOR	1503899	n/a	LTP304	ltpFR2	6	13	n/a	n/a	n/a	n/a	0	0	0
3007.812	n/a	PROB	1503906	n/a	LTP304	ltpFR2	6	n/a	n/a	n/a	19	14	3	9	2
3009.46	n/a	PROB	1504730	n/a	LTP304	ltpFR2	6	n/a	n/a	n/a	19	13	1	9	3
3010.778	n/a	PROB	1505389	n/a	LTP304	ltpFR2	6	n/a	n/a	n/a	19	12	2	1	9
3012.182	n/a	PROB	1506091	n/a	LTP304	ltpFR2	6	n/a	n/a	n/a	19	8	4	1	3
3013.75	n/a	PROB	1506875	n/a	LTP304	ltpFR2	6	n/a	n/a	n/a	19	15	6	7	2
3015.368	n/a	PROB	1507684	n/a	LTP304	ltpFR2	6	n/a	n/a	n/a	19	15	9	3	3
3017.402	n/a	PROB	1508701	n/a	LTP304	ltpFR2	6	n/a	n/a	n/a	19	13	3	1	9
3018.886	n/a	PROB	1509443	n/a	LTP304	ltpFR2	6	n/a	n/a	n/a	19	9	3	5	1
3020.488	n/a	PROB	1510244	n/a	LTP304	ltpFR2	6	n/a	n/a	n/a	19	17	2	7	8
3022.138	n/a	PROB	1511069	n/a	LTP304	ltpFR2	6	n/a	n/a	n/a	19	10	1	3	6
3023.508	n/a	PROB	1511754	n/a	LTP304	ltpFR2	6	n/a	n/a	n/a	19	9	5	3	1
3024.858	n/a	PROB	1512429	n/a	LTP304	ltpFR2	6	n/a	n/a	n/a	19	17	6	7	4
3026.674	n/a	PROB	1513337	n/a	LTP304	ltpFR2	6	n/a	n/a	n/a	19	9	5	1	3
3027.96	n/a	PROB	1513980	n/a	LTP304	ltpFR2	6	n/a	n/a	n/a	19	15	7	5	3
3029.672	n/a	STOP	1514836	n/a	LTP304	ltpFR2	6	n/a	n/a	n/a	19	n/a	n/a	n/a	n/a
3032.798	n/a	REC_START	1516399	n/a	LTP304	ltpFR2	6	13	n/a	n/a	n/a	n/a	0	0	0
3037.298	n/a	REC_WORD	1518649	wordpools/wasnorm_wordpool_576.txt	LTP304	ltpFR2	6	13	AIRPORT	13	n/a	n/a	0	0	0
3038.048	n/a	REC_WORD	1519024	wordpools/wasnorm_wordpool_576.txt	LTP304	ltpFR2	6	13	AIRPLANE	12	n/a	n/a	0	0	0
3039.624	n/a	REC_WORD_VV	1519812	wordpools/wasnorm_wordpool_576.txt	LTP304	ltpFR2	6	13	<>	-1	n/a	n/a	0	0	0
3040.274	n/a	REC_WORD	1520137	wordpools/wasnorm_wordpool_576.txt	LTP304	ltpFR2	6	13	WAITER	1580	n/a	n/a	0	0	0
3041.042	n/a	REC_WORD	1520521	wordpools/wasnorm_wordpool_576.txt	LTP304	ltpFR2	6	13	STATUE	1374	n/a	n/a	0	0	0
3042.514	n/a	REC_WORD	1521257	wordpools/wasnorm_wordpool_576.txt	LTP304	ltpFR2	6	13	DONKEY	484	n/a	n/a	0	0	0
3043.054	n/a	REC_WORD	1521527	wordpools/wasnorm_wordpool_576.txt	LTP304	ltpFR2	6	13	FARMER	553	n/a	n/a	0	0	0
3047.176	n/a	REC_WORD	1523588	wordpools/wasnorm_wordpool_576.txt	LTP304	ltpFR2	6	13	JURY	766	n/a	n/a	0	0	0
3047.716	n/a	REC_WORD	1523858	wordpools/wasnorm_wordpool_576.txt	LTP304	ltpFR2	6	13	BACON	67	n/a	n/a	0	0	0
3048.372	n/a	REC_WORD	1524186	wordpools/wasnorm_wordpool_576.txt	LTP304	ltpFR2	6	13	PORK	1108	n/a	n/a	0	0	0
3049.94	n/a	REC_WORD	1524970	wordpools/wasnorm_wordpool_576.txt	LTP304	ltpFR2	6	13	PICNIC	1060	n/a	n/a	0	0	0
3052.75	n/a	REC_WORD	1526375	wordpools/wasnorm_wordpool_576.txt	LTP304	ltpFR2	6	13	GRAVEL	659	n/a	n/a	0	0	0
3053.294	n/a	REC_WORD	1526647	wordpools/wasnorm_wordpool_576.txt	LTP304	ltpFR2	6	13	GROUND	666	n/a	n/a	0	0	0
3057.722	n/a	REC_WORD	1528861	wordpools/wasnorm_wordpool_576.txt	LTP304	ltpFR2	6	13	COCOON	339	n/a	n/a	0	0	0
3060.38	n/a	REC_WORD	1530190	wordpools/wasnorm_wordpool_576.txt	LTP304	ltpFR2	6	13	JAGUAR	-1	n/a	n/a	0	0	0
3060.922	n/a	REC_WORD	1530461	wordpools/wasnorm_wordpool_576.txt	LTP304	ltpFR2	6	13	TURKEY	1520	n/a	n/a	0	0	0
3062.432	n/a	REC_WORD	1531216	wordpools/wasnorm_wordpool_576.txt	LTP304	ltpFR2	6	13	GRAPE	654	n/a	n/a	0	0	0
3062.936	n/a	REC_WORD	1531468	wordpools/wasnorm_wordpool_576.txt	LTP304	ltpFR2	6	13	COUCH	386	n/a	n/a	0	0	0
3065.124	n/a	REC_WORD	1532562	wordpools/wasnorm_wordpool_576.txt	LTP304	ltpFR2	6	13	CLAM	315	n/a	n/a	0	0	0
3066.408	n/a	REC_WORD	1533204	wordpools/wasnorm_wordpool_576.txt	LTP304	ltpFR2	6	13	OYSTER	995	n/a	n/a	0	0	0
3090.234	n/a	REC_WORD	1545117	wordpools/wasnorm_wordpool_576.txt	LTP304	ltpFR2	6	13	JURY	766	n/a	n/a	0	0	0
3123.26	n/a	DISTRACTOR	1561630	n/a	LTP304	ltpFR2	6	14	n/a	n/a	n/a	n/a	0	0	0
3123.26	n/a	START	1561630	n/a	LTP304	ltpFR2	6	n/a	n/a	n/a	20	n/a	n/a	n/a	n/a
3123.276	n/a	PROB	1561638	n/a	LTP304	ltpFR2	6	n/a	n/a	n/a	20	22	9	4	8
3128.866	n/a	PROB	1564433	n/a	LTP304	ltpFR2	6	n/a	n/a	n/a	20	23	6	9	8
3131.334	n/a	PROB	1565667	n/a	LTP304	ltpFR2	6	n/a	n/a	n/a	20	14	1	4	9
3132.868	n/a	PROB	1566434	n/a	LTP304	ltpFR2	6	n/a	n/a	n/a	20	20	6	9	5
3135.254	n/a	PROB	1567627	n/a	LTP304	ltpFR2	6	n/a	n/a	n/a	20	18	6	3	9
3137.27	n/a	PROB	1568635	n/a	LTP304	ltpFR2	6	n/a	n/a	n/a	20	22	9	6	7
3140.708	n/a	PROB	1570354	n/a	LTP304	ltpFR2	6	n/a	n/a	n/a	20	16	3	6	7
3142.658	n/a	PROB	1571329	n/a	LTP304	ltpFR2	6	n/a	n/a	n/a	20	11	1	2	8
3144.06	n/a	PROB	1572030	n/a	LTP304	ltpFR2	6	n/a	n/a	n/a	20	12	7	3	2
3147.262	n/a	STOP	1573631	n/a	LTP304	ltpFR2	6	n/a	n/a	n/a	20	n/a	n/a	n/a	n/a
3148.396	n/a	WORD	1574198	wordpools/wasnorm_wordpool_576.txt	LTP304	ltpFR2	6	14	SURVEY	1414	n/a	n/a	0	0	0
3150.916	n/a	WORD	1575458	wordpools/wasnorm_wordpool_576.txt	LTP304	ltpFR2	6	14	PISTON	1076	n/a	n/a	0	0	0
3153.736	n/a	WORD	1576868	wordpools/wasnorm_wordpool_576.txt	LTP304	ltpFR2	6	14	PIZZA	1079	n/a	n/a	0	0	0
3156.404	n/a	WORD	1578202	wordpools/wasnorm_wordpool_576.txt	LTP304	ltpFR2	6	14	PEANUT	1032	n/a	n/a	0	0	0
3158.876	n/a	WORD	1579438	wordpools/wasnorm_wordpool_576.txt	LTP304	ltpFR2	6	14	DANCER	437	n/a	n/a	0	0	0
3161.624	n/a	WORD	1580812	wordpools/wasnorm_wordpool_576.txt	LTP304	ltpFR2	6	14	LOFT	840	n/a	n/a	0	0	0
3164.192	n/a	WORD	1582096	wordpools/wasnorm_wordpool_576.txt	LTP304	ltpFR2	6	14	MAMMAL	861	n/a	n/a	0	0	0
3166.978	n/a	WORD	1583489	wordpools/wasnorm_wordpool_576.txt	LTP304	ltpFR2	6	14	PERCH	1048	n/a	n/a	0	0	0
3169.748	n/a	WORD	1584874	wordpools/wasnorm_wordpool_576.txt	LTP304	ltpFR2	6	14	EYELASH	546	n/a	n/a	0	0	0
3172.186	n/a	WORD	1586093	wordpools/wasnorm_wordpool_576.txt	LTP304	ltpFR2	6	14	BASEMENT	94	n/a	n/a	0	0	0
3174.952	n/a	WORD	1587476	wordpools/wasnorm_wordpool_576.txt	LTP304	ltpFR2	6	14	HONEY	713	n/a	n/a	0	0	0
3177.738	n/a	WORD	1588869	wordpools/wasnorm_wordpool_576.txt	LTP304	ltpFR2	6	14	HORNET	718	n/a	n/a	0	0	0
3180.374	n/a	WORD	1590187	wordpools/wasnorm_wordpool_576.txt	LTP304	ltpFR2	6	14	TUTU	1524	n/a	n/a	0	0	0
3183.142	n/a	WORD	1591571	wordpools/wasnorm_wordpool_576.txt	LTP304	ltpFR2	6	14	CREATURE	403	n/a	n/a	0	0	0
3185.812	n/a	WORD	1592906	wordpools/wasnorm_wordpool_576.txt	LTP304	ltpFR2	6	14	COMET	353	n/a	n/a	0	0	0
3188.512	n/a	WORD	1594256	wordpools/wasnorm_wordpool_576.txt	LTP304	ltpFR2	6	14	IDOL	733	n/a	n/a	0	0	0
3191.014	n/a	WORD	1595507	wordpools/wasnorm_wordpool_576.txt	LTP304	ltpFR2	6	14	SISTER	1312	n/a	n/a	0	0	0
3193.448	n/a	WORD	1596724	wordpools/wasnorm_wordpool_576.txt	LTP304	ltpFR2	6	14	COD	340	n/a	n/a	0	0	0
3196.168	n/a	WORD	1598084	wordpools/wasnorm_wordpool_576.txt	LTP304	ltpFR2	6	14	THRONE	1461	n/a	n/a	0	0	0
3198.72	n/a	WORD	1599360	wordpools/wasnorm_wordpool_576.txt	LTP304	ltpFR2	6	14	TAXI	1438	n/a	n/a	0	0	0
3201.422	n/a	WORD	1600711	wordpools/wasnorm_wordpool_576.txt	LTP304	ltpFR2	6	14	ACTOR	5	n/a	n/a	0	0	0
3204.158	n/a	WORD	1602079	wordpools/wasnorm_wordpool_576.txt	LTP304	ltpFR2	6	14	UNCLE	1536	n/a	n/a	0	0	0
3206.76	n/a	WORD	1603380	wordpools/wasnorm_wordpool_576.txt	LTP304	ltpFR2	6	14	GIRL	637	n/a	n/a	0	0	0
3209.362	n/a	WORD	1604681	wordpools/wasnorm_wordpool_576.txt	LTP304	ltpFR2	6	14	MISTER	901	n/a	n/a	0	0	0
3210.97	n/a	START	1605485	n/a	LTP304	ltpFR2	6	n/a	n/a	n/a	21	n/a	n/a	n/a	n/a
3211.874	n/a	DISTRACTOR	1605937	n/a	LTP304	ltpFR2	6	14	n/a	n/a	n/a	n/a	0	0	0
3211.882	n/a	PROB	1605941	n/a	LTP304	ltpFR2	6	n/a	n/a	n/a	21	16	3	9	7
3214.738	n/a	PROB	1607369	n/a	LTP304	ltpFR2	6	n/a	n/a	n/a	21	16	3	6	7
3217.542	n/a	PROB	1608771	n/a	LTP304	ltpFR2	6	n/a	n/a	n/a	21	18	7	7	4
3219.526	n/a	PROB	1609763	n/a	LTP304	ltpFR2	6	n/a	n/a	n/a	21	12	2	6	4
3221.178	n/a	PROB	1610589	n/a	LTP304	ltpFR2	6	n/a	n/a	n/a	21	10	4	4	2
3222.446	n/a	PROB	1611223	n/a	LTP304	ltpFR2	6	n/a	n/a	n/a	21	10	5	1	4
3224.146	n/a	PROB	1612073	n/a	LTP304	ltpFR2	6	n/a	n/a	n/a	21	16	7	3	6
3225.664	n/a	PROB	1612832	n/a	LTP304	ltpFR2	6	n/a	n/a	n/a	21	14	4	1	9
3226.884	n/a	PROB	1613442	n/a	LTP304	ltpFR2	6	n/a	n/a	n/a	21	13	1	7	5
3228.952	n/a	PROB	1614476	n/a	LTP304	ltpFR2	6	n/a	n/a	n/a	21	9	2	5	2
3230.5	n/a	PROB	1615250	n/a	LTP304	ltpFR2	6	n/a	n/a	n/a	21	17	1	9	7
3231.686	n/a	PROB	1615843	n/a	LTP304	ltpFR2	6	n/a	n/a	n/a	21	22	9	9	3
3233.566	n/a	STOP	1616783	n/a	LTP304	ltpFR2	6	n/a	n/a	n/a	21	n/a	n/a	n/a	n/a
3236.84	n/a	REC_START	1618420	n/a	LTP304	ltpFR2	6	14	n/a	n/a	n/a	n/a	0	0	0
3241.368	n/a	REC_WORD	1620684	wordpools/wasnorm_wordpool_576.txt	LTP304	ltpFR2	6	14	COD	340	n/a	n/a	0	0	0
3241.938	n/a	REC_WORD	1620969	wordpools/wasnorm_wordpool_576.txt	LTP304	ltpFR2	6	14	DANCER	437	n/a	n/a	0	0	0
3242.6	n/a	REC_WORD	1621300	wordpools/wasnorm_wordpool_576.txt	LTP304	ltpFR2	6	14	LOFT	840	n/a	n/a	0	0	0
3249.218	n/a	REC_WORD	1624609	wordpools/wasnorm_wordpool_576.txt	LTP304	ltpFR2	6	14	UNCLE	1536	n/a	n/a	0	0	0
3273.082	n/a	REC_WORD	1636541	wordpools/wasnorm_wordpool_576.txt	LTP304	ltpFR2	6	14	TUTU	1524	n/a	n/a	0	0	0
3275.702	n/a	REC_WORD	1637851	wordpools/wasnorm_wordpool_576.txt	LTP304	ltpFR2	6	14	MAMMAL	861	n/a	n/a	0	0	0
3283.518	n/a	REC_WORD	1641759	wordpools/wasnorm_wordpool_576.txt	LTP304	ltpFR2	6	14	HORNET	718	n/a	n/a	0	0	0
3287.728	n/a	REC_WORD	1643864	wordpools/wasnorm_wordpool_576.txt	LTP304	ltpFR2	6	14	HONEY	713	n/a	n/a	0	0	0
3299.066	n/a	REC_WORD	1649533	wordpools/wasnorm_wordpool_576.txt	LTP304	ltpFR2	6	14	PEANUT	1032	n/a	n/a	0	0	0
3299.582	n/a	REC_WORD	1649791	wordpools/wasnorm_wordpool_576.txt	LTP304	ltpFR2	6	14	PIZZA	1079	n/a	n/a	0	0	0
3300.822	n/a	REC_WORD	1650411	wordpools/wasnorm_wordpool_576.txt	LTP304	ltpFR2	6	14	SURVEY	1414	n/a	n/a	0	0	0
3301.798	n/a	REC_WORD	1650899	wordpools/wasnorm_wordpool_576.txt	LTP304	ltpFR2	6	14	RIFLE	1192	n/a	n/a	0	0	0
3302.404	n/a	REC_WORD_VV	1651202	wordpools/wasnorm_wordpool_576.txt	LTP304	ltpFR2	6	14	<>	-1	n/a	n/a	0	0	0
3302.632	n/a	REC_WORD	1651316	wordpools/wasnorm_wordpool_576.txt	LTP304	ltpFR2	6	14	PISTON	1076	n/a	n/a	0	0	0
3302.988	n/a	REC_WORD_VV	1651494	wordpools/wasnorm_wordpool_576.txt	LTP304	ltpFR2	6	14	<>	-1	n/a	n/a	0	0	0
3327.286	n/a	DISTRACTOR	1663643	n/a	LTP304	ltpFR2	6	15	n/a	n/a	n/a	n/a	0	0	0
3327.286	n/a	START	1663643	n/a	LTP304	ltpFR2	6	n/a	n/a	n/a	22	n/a	n/a	n/a	n/a
3327.302	n/a	PROB	1663651	n/a	LTP304	ltpFR2	6	n/a	n/a	n/a	22	10	3	2	5
3328.852	n/a	PROB	1664426	n/a	LTP304	ltpFR2	6	n/a	n/a	n/a	22	11	6	4	1
3330.07	n/a	PROB	1665035	n/a	LTP304	ltpFR2	6	n/a	n/a	n/a	22	10	6	3	1
3331.404	n/a	PROB	1665702	n/a	LTP304	ltpFR2	6	n/a	n/a	n/a	22	19	5	6	8
3333.656	n/a	PROB	1666828	n/a	LTP304	ltpFR2	6	n/a	n/a	n/a	22	27	9	9	9
3337.628	n/a	PROB	1668814	n/a	LTP304	ltpFR2	6	n/a	n/a	n/a	22	17	5	6	6
3339.244	n/a	PROB	1669622	n/a	LTP304	ltpFR2	6	n/a	n/a	n/a	22	19	8	9	2
3341.112	n/a	PROB	1670556	n/a	LTP304	ltpFR2	6	n/a	n/a	n/a	22	18	8	3	7
3342.464	n/a	PROB	1671232	n/a	LTP304	ltpFR2	6	n/a	n/a	n/a	22	20	9	5	6
3344.534	n/a	PROB	1672267	n/a	LTP304	ltpFR2	6	n/a	n/a	n/a	22	11	6	1	4
3345.886	n/a	PROB	1672943	n/a	LTP304	ltpFR2	6	n/a	n/a	n/a	22	22	8	6	8
3347.872	n/a	PROB	1673936	n/a	LTP304	ltpFR2	6	n/a	n/a	n/a	22	12	1	5	6
3349.254	n/a	PROB	1674627	n/a	LTP304	ltpFR2	6	n/a	n/a	n/a	22	16	1	6	9
3350.82	n/a	STOP	1675410	n/a	LTP304	ltpFR2	6	n/a	n/a	n/a	22	n/a	n/a	n/a	n/a
3352.494	n/a	WORD	1676247	wordpools/wasnorm_wordpool_576.txt	LTP304	ltpFR2	6	15	COIN	343	n/a	n/a	0	0	0
3355.042	n/a	WORD	1677521	wordpools/wasnorm_wordpool_576.txt	LTP304	ltpFR2	6	15	AGENT	10	n/a	n/a	0	0	0
3357.512	n/a	WORD	1678756	wordpools/wasnorm_wordpool_576.txt	LTP304	ltpFR2	6	15	BURGLAR	200	n/a	n/a	0	0	0
3360.03	n/a	WORD	1680015	wordpools/wasnorm_wordpool_576.txt	LTP304	ltpFR2	6	15	SUSPECT	1415	n/a	n/a	0	0	0
3362.684	n/a	WORD	1681342	wordpools/wasnorm_wordpool_576.txt	LTP304	ltpFR2	6	15	PEPPER	1047	n/a	n/a	0	0	0
3365.502	n/a	WORD	1682751	wordpools/wasnorm_wordpool_576.txt	LTP304	ltpFR2	6	15	SCARECROW	1245	n/a	n/a	0	0	0
3368.204	n/a	WORD	1684102	wordpools/wasnorm_wordpool_576.txt	LTP304	ltpFR2	6	15	TRENCH	1503	n/a	n/a	0	0	0
3370.874	n/a	WORD	1685437	wordpools/wasnorm_wordpool_576.txt	LTP304	ltpFR2	6	15	SERVANT	1271	n/a	n/a	0	0	0
3373.474	n/a	WORD	1686737	wordpools/wasnorm_wordpool_576.txt	LTP304	ltpFR2	6	15	WHISTLE	1606	n/a	n/a	0	0	0
3375.978	n/a	WORD	1687989	wordpools/wasnorm_wordpool_576.txt	LTP304	ltpFR2	6	15	PUDDLE	1140	n/a	n/a	0	0	0
3378.612	n/a	WORD	1689306	wordpools/wasnorm_wordpool_576.txt	LTP304	ltpFR2	6	15	WINDOW	1611	n/a	n/a	0	0	0
3381.098	n/a	WORD	1690549	wordpools/wasnorm_wordpool_576.txt	LTP304	ltpFR2	6	15	SHOVEL	1295	n/a	n/a	0	0	0
3383.902	n/a	WORD	1691951	wordpools/wasnorm_wordpool_576.txt	LTP304	ltpFR2	6	15	DENTIST	447	n/a	n/a	0	0	0
3386.502	n/a	WORD	1693251	wordpools/wasnorm_wordpool_576.txt	LTP304	ltpFR2	6	15	NOMAD	955	n/a	n/a	0	0	0
3389.272	n/a	WORD	1694636	wordpools/wasnorm_wordpool_576.txt	LTP304	ltpFR2	6	15	WORLD	1622	n/a	n/a	0	0	0
3391.958	n/a	WORD	1695979	wordpools/wasnorm_wordpool_576.txt	LTP304	ltpFR2	6	15	PERMIT	1051	n/a	n/a	0	0	0
3394.442	n/a	WORD	1697221	wordpools/wasnorm_wordpool_576.txt	LTP304	ltpFR2	6	15	BUG	187	n/a	n/a	0	0	0
3397.11	n/a	WORD	1698555	wordpools/wasnorm_wordpool_576.txt	LTP304	ltpFR2	6	15	JELLO	754	n/a	n/a	0	0	0
3399.712	n/a	WORD	1699856	wordpools/wasnorm_wordpool_576.txt	LTP304	ltpFR2	6	15	RIFLE	1192	n/a	n/a	0	0	0
3402.448	n/a	WORD	1701224	wordpools/wasnorm_wordpool_576.txt	LTP304	ltpFR2	6	15	PISTOL	1075	n/a	n/a	0	0	0
3405.066	n/a	WORD	1702533	wordpools/wasnorm_wordpool_576.txt	LTP304	ltpFR2	6	15	CELLAR	267	n/a	n/a	0	0	0
3407.586	n/a	WORD	1703793	wordpools/wasnorm_wordpool_576.txt	LTP304	ltpFR2	6	15	SWITCH	1422	n/a	n/a	0	0	0
3410.17	n/a	WORD	1705085	wordpools/wasnorm_wordpool_576.txt	LTP304	ltpFR2	6	15	STOMACH	1384	n/a	n/a	0	0	0
3412.79	n/a	WORD	1706395	wordpools/wasnorm_wordpool_576.txt	LTP304	ltpFR2	6	15	SALT	1229	n/a	n/a	0	0	0
3414.408	n/a	START	1707204	n/a	LTP304	ltpFR2	6	n/a	n/a	n/a	23	n/a	n/a	n/a	n/a
3415.468	n/a	DISTRACTOR	1707734	n/a	LTP304	ltpFR2	6	15	n/a	n/a	n/a	n/a	0	0	0
3415.476	n/a	PROB	1707738	n/a	LTP304	ltpFR2	6	n/a	n/a	n/a	23	13	1	3	9
3418.526	n/a	PROB	1709263	n/a	LTP304	ltpFR2	6	n/a	n/a	n/a	23	17	7	5	5
3419.862	n/a	PROB	1709931	n/a	LTP304	ltpFR2	6	n/a	n/a	n/a	23	17	7	3	7
3421.2	n/a	PROB	1710600	n/a	LTP304	ltpFR2	6	n/a	n/a	n/a	23	22	8	5	9
3424.486	n/a	PROB	1712243	n/a	LTP304	ltpFR2	6	n/a	n/a	n/a	23	20	7	7	6
3426.088	n/a	PROB	1713044	n/a	LTP304	ltpFR2	6	n/a	n/a	n/a	23	14	2	7	5
3427.772	n/a	PROB	1713886	n/a	LTP304	ltpFR2	6	n/a	n/a	n/a	23	11	1	7	3
3429.14	n/a	PROB	1714570	n/a	LTP304	ltpFR2	6	n/a	n/a	n/a	23	15	4	2	9
3430.974	n/a	PROB	1715487	n/a	LTP304	ltpFR2	6	n/a	n/a	n/a	23	8	6	1	1
3432.426	n/a	PROB	1716213	n/a	LTP304	ltpFR2	6	n/a	n/a	n/a	23	12	3	3	6
3433.812	n/a	PROB	1716906	n/a	LTP304	ltpFR2	6	n/a	n/a	n/a	23	16	5	7	4
3436.078	n/a	PROB	1718039	n/a	LTP304	ltpFR2	6	n/a	n/a	n/a	23	20	6	6	4
3437.508	n/a	STOP	1718754	n/a	LTP304	ltpFR2	6	n/a	n/a	n/a	23	n/a	n/a	n/a	n/a
3440.148	n/a	REC_START	1720074	n/a	LTP304	ltpFR2	6	15	n/a	n/a	n/a	n/a	0	0	0
3441.81	n/a	REC_WORD	1720905	wordpools/wasnorm_wordpool_576.txt	LTP304	ltpFR2	6	15	PISTOL	1075	n/a	n/a	0	0	0
3442.412	n/a	REC_WORD	1721206	wordpools/wasnorm_wordpool_576.txt	LTP304	ltpFR2	6	15	RIFLE	1192	n/a	n/a	0	0	0
3446.462	n/a	REC_WORD	1723231	wordpools/wasnorm_wordpool_576.txt	LTP304	ltpFR2	6	15	BURGLAR	200	n/a	n/a	0	0	0
3447.584	n/a	REC_WORD	1723792	wordpools/wasnorm_wordpool_576.txt	LTP304	ltpFR2	6	15	SUSPECT	1415	n/a	n/a	0	0	0
3455.088	n/a	REC_WORD	1727544	wordpools/wasnorm_wordpool_576.txt	LTP304	ltpFR2	6	15	SCARECROW	1245	n/a	n/a	0	0	0
3456.492	n/a	REC_WORD	1728246	wordpools/wasnorm_wordpool_576.txt	LTP304	ltpFR2	6	15	SALT	1229	n/a	n/a	0	0	0
3457.12	n/a	REC_WORD	1728560	wordpools/wasnorm_wordpool_576.txt	LTP304	ltpFR2	6	15	PEPPER	1047	n/a	n/a	0	0	0
3457.62	n/a	REC_WORD	1728810	wordpools/wasnorm_wordpool_576.txt	LTP304	ltpFR2	6	15	TRENCH	1503	n/a	n/a	0	0	0
3458.78	n/a	REC_WORD	1729390	wordpools/wasnorm_wordpool_576.txt	LTP304	ltpFR2	6	15	PUDDLE	1140	n/a	n/a	0	0	0
3459.448	n/a	REC_WORD	1729724	wordpools/wasnorm_wordpool_576.txt	LTP304	ltpFR2	6	15	WHISTLE	1606	n/a	n/a	0	0	0
3459.952	n/a	REC_WORD	1729976	wordpools/wasnorm_wordpool_576.txt	LTP304	ltpFR2	6	15	WINDOW	1611	n/a	n/a	0	0	0
3461.162	n/a	REC_WORD	1730581	wordpools/wasnorm_wordpool_576.txt	LTP304	ltpFR2	6	15	SHOVEL	1295	n/a	n/a	0	0	0
3464.632	n/a	REC_WORD	1732316	wordpools/wasnorm_wordpool_576.txt	LTP304	ltpFR2	6	15	NOMAD	955	n/a	n/a	0	0	0
3465.804	n/a	REC_WORD	1732902	wordpools/wasnorm_wordpool_576.txt	LTP304	ltpFR2	6	15	DENTIST	447	n/a	n/a	0	0	0
3467.53	n/a	REC_WORD	1733765	wordpools/wasnorm_wordpool_576.txt	LTP304	ltpFR2	6	15	WORLD	1622	n/a	n/a	0	0	0
3473.074	n/a	REC_WORD	1736537	wordpools/wasnorm_wordpool_576.txt	LTP304	ltpFR2	6	15	SALT	1229	n/a	n/a	0	0	0
3473.562	n/a	REC_WORD	1736781	wordpools/wasnorm_wordpool_576.txt	LTP304	ltpFR2	6	15	STOMACH	1384	n/a	n/a	0	0	0
3480.92	n/a	REC_WORD	1740460	wordpools/wasnorm_wordpool_576.txt	LTP304	ltpFR2	6	15	POLICE	1098	n/a	n/a	0	0	0
3484.71	n/a	REC_WORD	1742355	wordpools/wasnorm_wordpool_576.txt	LTP304	ltpFR2	6	15	SUSPECT	1415	n/a	n/a	0	0	0
3491.142	n/a	REC_WORD	1745571	wordpools/wasnorm_wordpool_576.txt	LTP304	ltpFR2	6	15	BUG	187	n/a	n/a	0	0	0
3491.516	n/a	REC_WORD	1745758	wordpools/wasnorm_wordpool_576.txt	LTP304	ltpFR2	6	15	JELLO	754	n/a	n/a	0	0	0
3494.49	n/a	REC_WORD	1747245	wordpools/wasnorm_wordpool_576.txt	LTP304	ltpFR2	6	15	CELLAR	267	n/a	n/a	0	0	0
3530.592	n/a	WORD	1765296	wordpools/wasnorm_wordpool_576.txt	LTP304	ltpFR2	6	16	PILOT	1070	n/a	n/a	0	0	0
3533.33	n/a	WORD	1766665	wordpools/wasnorm_wordpool_576.txt	LTP304	ltpFR2	6	16	CLIMBER	323	n/a	n/a	0	0	0
3536.104	n/a	WORD	1768052	wordpools/wasnorm_wordpool_576.txt	LTP304	ltpFR2	6	16	BUREAU	199	n/a	n/a	0	0	0
3538.668	n/a	WORD	1769334	wordpools/wasnorm_wordpool_576.txt	LTP304	ltpFR2	6	16	DRESSER	496	n/a	n/a	0	0	0
3541.17	n/a	WORD	1770585	wordpools/wasnorm_wordpool_576.txt	LTP304	ltpFR2	6	16	FLASK	576	n/a	n/a	0	0	0
3543.774	n/a	WORD	1771887	wordpools/wasnorm_wordpool_576.txt	LTP304	ltpFR2	6	16	SADDLE	1221	n/a	n/a	0	0	0
3546.392	n/a	WORD	1773196	wordpools/wasnorm_wordpool_576.txt	LTP304	ltpFR2	6	16	COWBOY	395	n/a	n/a	0	0	0
3548.878	n/a	WORD	1774439	wordpools/wasnorm_wordpool_576.txt	LTP304	ltpFR2	6	16	LAKE	796	n/a	n/a	0	0	0
3551.434	n/a	WORD	1775717	wordpools/wasnorm_wordpool_576.txt	LTP304	ltpFR2	6	16	PUPPY	1144	n/a	n/a	0	0	0
3554.036	n/a	WORD	1777018	wordpools/wasnorm_wordpool_576.txt	LTP304	ltpFR2	6	16	WORKER	1621	n/a	n/a	0	0	0
3556.734	n/a	WORD	1778367	wordpools/wasnorm_wordpool_576.txt	LTP304	ltpFR2	6	16	LION	827	n/a	n/a	0	0	0
3559.202	n/a	WORD	1779601	wordpools/wasnorm_wordpool_576.txt	LTP304	ltpFR2	6	16	CHEST	295	n/a	n/a	0	0	0
3561.842	n/a	WORD	1780921	wordpools/wasnorm_wordpool_576.txt	LTP304	ltpFR2	6	16	MARS	873	n/a	n/a	0	0	0
3564.306	n/a	WORD	1782153	wordpools/wasnorm_wordpool_576.txt	LTP304	ltpFR2	6	16	BADGE	68	n/a	n/a	0	0	0
3566.976	n/a	WORD	1783488	wordpools/wasnorm_wordpool_576.txt	LTP304	ltpFR2	6	16	SPONGE	1355	n/a	n/a	0	0	0
3569.748	n/a	WORD	1784874	wordpools/wasnorm_wordpool_576.txt	LTP304	ltpFR2	6	16	MARSH	874	n/a	n/a	0	0	0
3572.4	n/a	WORD	1786200	wordpools/wasnorm_wordpool_576.txt	LTP304	ltpFR2	6	16	GREASE	660	n/a	n/a	0	0	0
3575.182	n/a	WORD	1787591	wordpools/wasnorm_wordpool_576.txt	LTP304	ltpFR2	6	16	COOK	372	n/a	n/a	0	0	0
3577.786	n/a	WORD	1788893	wordpools/wasnorm_wordpool_576.txt	LTP304	ltpFR2	6	16	BARLEY	88	n/a	n/a	0	0	0
3580.538	n/a	WORD	1790269	wordpools/wasnorm_wordpool_576.txt	LTP304	ltpFR2	6	16	FOX	598	n/a	n/a	0	0	0
3583.156	n/a	WORD	1791578	wordpools/wasnorm_wordpool_576.txt	LTP304	ltpFR2	6	16	BROOK	177	n/a	n/a	0	0	0
3585.826	n/a	WORD	1792913	wordpools/wasnorm_wordpool_576.txt	LTP304	ltpFR2	6	16	POWDER	1117	n/a	n/a	0	0	0
3588.594	n/a	WORD	1794297	wordpools/wasnorm_wordpool_576.txt	LTP304	ltpFR2	6	16	YARN	1631	n/a	n/a	0	0	0
3591.296	n/a	WORD	1795648	wordpools/wasnorm_wordpool_576.txt	LTP304	ltpFR2	6	16	FOREST	593	n/a	n/a	0	0	0
3592.916	n/a	START	1796458	n/a	LTP304	ltpFR2	6	n/a	n/a	n/a	24	n/a	n/a	n/a	n/a
3594.034	n/a	DISTRACTOR	1797017	n/a	LTP304	ltpFR2	6	16	n/a	n/a	n/a	n/a	0	0	0
3594.048	n/a	PROB	1797024	n/a	LTP304	ltpFR2	6	n/a	n/a	n/a	24	18	6	7	5
3597.5	n/a	PROB	1798750	n/a	LTP304	ltpFR2	6	n/a	n/a	n/a	24	18	8	3	7
3598.772	n/a	PROB	1799386	n/a	LTP304	ltpFR2	6	n/a	n/a	n/a	24	23	8	8	7
3600.57	n/a	PROB	1800285	n/a	LTP304	ltpFR2	6	n/a	n/a	n/a	24	20	7	8	5
3602.822	n/a	PROB	1801411	n/a	LTP304	ltpFR2	6	n/a	n/a	n/a	24	11	2	8	1
3604.572	n/a	PROB	1802286	n/a	LTP304	ltpFR2	6	n/a	n/a	n/a	24	11	1	6	3
3606.358	n/a	PROB	1803179	n/a	LTP304	ltpFR2	6	n/a	n/a	n/a	24	16	6	4	6
3607.728	n/a	PROB	1803864	n/a	LTP304	ltpFR2	6	n/a	n/a	n/a	24	19	8	6	5
3609.962	n/a	PROB	1804981	n/a	LTP304	ltpFR2	6	n/a	n/a	n/a	24	15	8	2	5
3611.816	n/a	PROB	1805908	n/a	LTP304	ltpFR2	6	n/a	n/a	n/a	24	8	1	5	2
3613.132	n/a	PROB	1806566	n/a	LTP304	ltpFR2	6	n/a	n/a	n/a	24	19	3	9	7
3616.274	n/a	STOP	1808137	n/a	LTP304	ltpFR2	6	n/a	n/a	n/a	24	n/a	n/a	n/a	n/a
3618.722	n/a	REC_START	1809361	n/a	LTP304	ltpFR2	6	16	n/a	n/a	n/a	n/a	0	0	0
3628.022	n/a	REC_WORD	1814011	wordpools/wasnorm_wordpool_576.txt	LTP304	ltpFR2	6	16	LION	827	n/a	n/a	0	0	0
3628.572	n/a	REC_WORD	1814286	wordpools/wasnorm_wordpool_576.txt	LTP304	ltpFR2	6	16	LAKE	796	n/a	n/a	0	0	0
3629.56	n/a	REC_WORD	1814780	wordpools/wasnorm_wordpool_576.txt	LTP304	ltpFR2	6	16	DRESSER	496	n/a	n/a	0	0	0
3630.07	n/a	REC_WORD	1815035	wordpools/wasnorm_wordpool_576.txt	LTP304	ltpFR2	6	16	BUREAU	199	n/a	n/a	0	0	0
3630.6	n/a	REC_WORD	1815300	wordpools/wasnorm_wordpool_576.txt	LTP304	ltpFR2	6	16	CHEST	295	n/a	n/a	0	0	0
3635.534	n/a	REC_WORD	1817767	wordpools/wasnorm_wordpool_576.txt	LTP304	ltpFR2	6	16	COWBOY	395	n/a	n/a	0	0	0
3636.122	n/a	REC_WORD	1818061	wordpools/wasnorm_wordpool_576.txt	LTP304	ltpFR2	6	16	SADDLE	1221	n/a	n/a	0	0	0
3636.762	n/a	REC_WORD	1818381	wordpools/wasnorm_wordpool_576.txt	LTP304	ltpFR2	6	16	FLASK	576	n/a	n/a	0	0	0
3639.8	n/a	REC_WORD	1819900	wordpools/wasnorm_wordpool_576.txt	LTP304	ltpFR2	6	16	PUPPY	1144	n/a	n/a	0	0	0
3642.394	n/a	REC_WORD	1821197	wordpools/wasnorm_wordpool_576.txt	LTP304	ltpFR2	6	16	WORKER	1621	n/a	n/a	0	0	0
3643.732	n/a	REC_WORD	1821866	wordpools/wasnorm_wordpool_576.txt	LTP304	ltpFR2	6	16	LION	827	n/a	n/a	0	0	0
3654.184	n/a	REC_WORD	1827092	wordpools/wasnorm_wordpool_576.txt	LTP304	ltpFR2	6	16	PILOT	1070	n/a	n/a	0	0	0
3655.112	n/a	REC_WORD	1827556	wordpools/wasnorm_wordpool_576.txt	LTP304	ltpFR2	6	16	CLIMBER	323	n/a	n/a	0	0	0
3673.642	n/a	REC_WORD	1836821	wordpools/wasnorm_wordpool_576.txt	LTP304	ltpFR2	6	16	MARS	873	n/a	n/a	0	0	0
3676.488	n/a	REC_WORD	1838244	wordpools/wasnorm_wordpool_576.txt	LTP304	ltpFR2	6	16	PERMIT	1051	n/a	n/a	0	0	0
3679.706	n/a	REC_WORD	1839853	wordpools/wasnorm_wordpool_576.txt	LTP304	ltpFR2	6	16	BADGE	68	n/a	n/a	0	0	0
3682.828	n/a	REC_WORD	1841414	wordpools/wasnorm_wordpool_576.txt	LTP304	ltpFR2	6	16	SPONGE	1355	n/a	n/a	0	0	0
3695.252	n/a	REST_REWET	1847626	n/a	LTP304	ltpFR2	6	16	n/a	n/a	n/a	n/a	0	0	0
4227.712	n/a	WORD	2113856	wordpools/wasnorm_wordpool_576.txt	LTP304	ltpFR2	6	17	CARRIAGE	248	n/a	n/a	0	0	0
4230.296	n/a	WORD	2115148	wordpools/wasnorm_wordpool_576.txt	LTP304	ltpFR2	6	17	STALLION	1369	n/a	n/a	0	0	0
4232.9	n/a	WORD	2116450	wordpools/wasnorm_wordpool_576.txt	LTP304	ltpFR2	6	17	SHRUB	1299	n/a	n/a	0	0	0
4235.552	n/a	WORD	2117776	wordpools/wasnorm_wordpool_576.txt	LTP304	ltpFR2	6	17	POSTAGE	1113	n/a	n/a	0	0	0
4238.12	n/a	WORD	2119060	wordpools/wasnorm_wordpool_576.txt	LTP304	ltpFR2	6	17	BLUEPRINT	142	n/a	n/a	0	0	0
4240.578	n/a	WORD	2120289	wordpools/wasnorm_wordpool_576.txt	LTP304	ltpFR2	6	17	MACHINE	852	n/a	n/a	0	0	0
4243.366	n/a	WORD	2121683	wordpools/wasnorm_wordpool_576.txt	LTP304	ltpFR2	6	17	OX	994	n/a	n/a	0	0	0
4245.828	n/a	WORD	2122914	wordpools/wasnorm_wordpool_576.txt	LTP304	ltpFR2	6	17	MARINE	869	n/a	n/a	0	0	0
4248.33	n/a	WORD	2124165	wordpools/wasnorm_wordpool_576.txt	LTP304	ltpFR2	6	17	ICEBERG	731	n/a	n/a	0	0	0
4251.104	n/a	WORD	2125552	wordpools/wasnorm_wordpool_576.txt	LTP304	ltpFR2	6	17	KLEENEX	782	n/a	n/a	0	0	0
4253.774	n/a	WORD	2126887	wordpools/wasnorm_wordpool_576.txt	LTP304	ltpFR2	6	17	BLACKBOARD	133	n/a	n/a	0	0	0
4256.376	n/a	WORD	2128188	wordpools/wasnorm_wordpool_576.txt	LTP304	ltpFR2	6	17	HERO	706	n/a	n/a	0	0	0
4258.84	n/a	WORD	2129420	wordpools/wasnorm_wordpool_576.txt	LTP304	ltpFR2	6	17	WITNESS	1618	n/a	n/a	0	0	0
4261.59	n/a	WORD	2130795	wordpools/wasnorm_wordpool_576.txt	LTP304	ltpFR2	6	17	CHIPMUNK	304	n/a	n/a	0	0	0
4264.126	n/a	WORD	2132063	wordpools/wasnorm_wordpool_576.txt	LTP304	ltpFR2	6	17	MUSTARD	935	n/a	n/a	0	0	0
4266.896	n/a	WORD	2133448	wordpools/wasnorm_wordpool_576.txt	LTP304	ltpFR2	6	17	YACHT	1629	n/a	n/a	0	0	0
4269.464	n/a	WORD	2134732	wordpools/wasnorm_wordpool_576.txt	LTP304	ltpFR2	6	17	FIREPLACE	570	n/a	n/a	0	0	0
4271.968	n/a	WORD	2135984	wordpools/wasnorm_wordpool_576.txt	LTP304	ltpFR2	6	17	CRAB	397	n/a	n/a	0	0	0
4274.524	n/a	WORD	2137262	wordpools/wasnorm_wordpool_576.txt	LTP304	ltpFR2	6	17	MAILBOX	857	n/a	n/a	0	0	0
4277.126	n/a	WORD	2138563	wordpools/wasnorm_wordpool_576.txt	LTP304	ltpFR2	6	17	ANTLER	29	n/a	n/a	0	0	0
4279.676	n/a	WORD	2139838	wordpools/wasnorm_wordpool_576.txt	LTP304	ltpFR2	6	17	FRUIT	610	n/a	n/a	0	0	0
4282.308	n/a	WORD	2141154	wordpools/wasnorm_wordpool_576.txt	LTP304	ltpFR2	6	17	ORCHID	982	n/a	n/a	0	0	0
4284.828	n/a	WORD	2142414	wordpools/wasnorm_wordpool_576.txt	LTP304	ltpFR2	6	17	ROBOT	1200	n/a	n/a	0	0	0
4287.366	n/a	WORD	2143683	wordpools/wasnorm_wordpool_576.txt	LTP304	ltpFR2	6	17	CORAL	378	n/a	n/a	0	0	0
4288.982	n/a	START	2144491	n/a	LTP304	ltpFR2	6	n/a	n/a	n/a	25	n/a	n/a	n/a	n/a
4290.034	n/a	DISTRACTOR	2145017	n/a	LTP304	ltpFR2	6	17	n/a	n/a	n/a	n/a	0	0	0
4290.048	n/a	PROB	2145024	n/a	LTP304	ltpFR2	6	n/a	n/a	n/a	25	16	8	5	3
4292.316	n/a	PROB	2146158	n/a	LTP304	ltpFR2	6	n/a	n/a	n/a	25	17	4	5	8
4293.92	n/a	PROB	2146960	n/a	LTP304	ltpFR2	6	n/a	n/a	n/a	25	11	1	6	4
4295.668	n/a	PROB	2147834	n/a	LTP304	ltpFR2	6	n/a	n/a	n/a	25	12	2	8	2
4297.038	n/a	PROB	2148519	n/a	LTP304	ltpFR2	6	n/a	n/a	n/a	25	8	1	1	6
4298.288	n/a	PROB	2149144	n/a	LTP304	ltpFR2	6	n/a	n/a	n/a	25	9	2	1	6
4299.824	n/a	PROB	2149912	n/a	LTP304	ltpFR2	6	n/a	n/a	n/a	25	9	5	2	2
4301.506	n/a	PROB	2150753	n/a	LTP304	ltpFR2	6	n/a	n/a	n/a	25	18	5	7	6
4303.928	n/a	PROB	2151964	n/a	LTP304	ltpFR2	6	n/a	n/a	n/a	25	15	4	9	2
4305.428	n/a	PROB	2152714	n/a	LTP304	ltpFR2	6	n/a	n/a	n/a	25	14	4	8	2
4306.914	n/a	PROB	2153457	n/a	LTP304	ltpFR2	6	n/a	n/a	n/a	25	17	9	4	4
4308.464	n/a	PROB	2154232	n/a	LTP304	ltpFR2	6	n/a	n/a	n/a	25	19	4	9	6
4310.598	n/a	PROB	2155299	n/a	LTP304	ltpFR2	6	n/a	n/a	n/a	25	18	4	8	6
4312.168	n/a	STOP	2156084	n/a	LTP304	ltpFR2	6	n/a	n/a	n/a	25	n/a	n/a	n/a	n/a
4314.77	n/a	REC_START	2157385	n/a	LTP304	ltpFR2	6	17	n/a	n/a	n/a	n/a	0	0	0
4315.962	n/a	REC_WORD	2157981	wordpools/wasnorm_wordpool_576.txt	LTP304	ltpFR2	6	17	CHIPMUNK	304	n/a	n/a	0	0	0
4316.58	n/a	REC_WORD	2158290	wordpools/wasnorm_wordpool_576.txt	LTP304	ltpFR2	6	17	MUSTARD	935	n/a	n/a	0	0	0
