onset	duration	trial_type	sample	stim_file	subject	experiment	session	trial	task	item_name	item_num	recog_resp	recog_conf	resp	answer	test_x	test_y	test_z	color_r	color_g	color_b	case	font
232.002	n/a	SESS_START	116001	n/a	LTP283	ltpFR	8	n/a	n/a	n/a	n/a	0	2	n/a	n/a	0	0	0	n/a	n/a	n/a	n/a	n/a
281.98	n/a	START	140990	n/a	LTP283	ltpFR	8	n/a	n/a	n/a	n/a	n/a	n/a	n/a	n/a	n/a	n/a	n/a	n/a	n/a	n/a	n/a	n/a
282.03	n/a	PROB	141015	n/a	LTP283	ltpFR	8	n/a	n/a	n/a	n/a	n/a	n/a	n/a	18	2	8	8	n/a	n/a	n/a	n/a	n/a
284.606	n/a	PROB	142303	n/a	LTP283	ltpFR	8	n/a	n/a	n/a	n/a	n/a	n/a	n/a	20	6	7	7	n/a	n/a	n/a	n/a	n/a
287.082	n/a	PROB	143541	n/a	LTP283	ltpFR	8	n/a	n/a	n/a	n/a	n/a	n/a	n/a	11	4	2	5	n/a	n/a	n/a	n/a	n/a
290.094	n/a	PROB	145047	n/a	LTP283	ltpFR	8	n/a	n/a	n/a	n/a	n/a	n/a	n/a	18	9	1	8	n/a	n/a	n/a	n/a	n/a
291.5	n/a	PROB	145750	n/a	LTP283	ltpFR	8	n/a	n/a	n/a	n/a	n/a	n/a	n/a	12	4	7	1	n/a	n/a	n/a	n/a	n/a
292.972	n/a	PROB	146486	n/a	LTP283	ltpFR	8	n/a	n/a	n/a	n/a	n/a	n/a	n/a	15	1	5	9	n/a	n/a	n/a	n/a	n/a
294.408	n/a	PROB	147204	n/a	LTP283	ltpFR	8	n/a	n/a	n/a	n/a	n/a	n/a	n/a	14	5	4	5	n/a	n/a	n/a	n/a	n/a
295.816	n/a	PROB	147908	n/a	LTP283	ltpFR	8	n/a	n/a	n/a	n/a	n/a	n/a	n/a	20	9	3	8	n/a	n/a	n/a	n/a	n/a
297.624	n/a	PROB	148812	n/a	LTP283	ltpFR	8	n/a	n/a	n/a	n/a	n/a	n/a	n/a	11	2	3	6	n/a	n/a	n/a	n/a	n/a
299.412	n/a	PROB	149706	n/a	LTP283	ltpFR	8	n/a	n/a	n/a	n/a	n/a	n/a	n/a	12	9	3	3	n/a	n/a	n/a	n/a	n/a
301.878	n/a	STOP	150939	n/a	LTP283	ltpFR	8	n/a	n/a	n/a	n/a	n/a	n/a	n/a	n/a	n/a	n/a	n/a	n/a	n/a	n/a	n/a	n/a
390.528	n/a	WORD	195264	wordpools/wasnorm_wordpool_less_exclusions.txt	LTP283	ltpFR	8	1	0	MOUTH	926	0	n/a	0	n/a	0	0	0	0.57763671875	0.412841796875	1	lower	zerothre.ttf
394.51	n/a	WORD	197255	wordpools/wasnorm_wordpool_less_exclusions.txt	LTP283	ltpFR	8	1	0	SKI	1316	n/a	n/a	1	n/a	0	0	0	0.57763671875	0.412841796875	1	lower	zerothre.ttf
398.438	n/a	WORD	199219	wordpools/wasnorm_wordpool_less_exclusions.txt	LTP283	ltpFR	8	1	0	WORLD	1622	n/a	n/a	1	n/a	0	0	0	0.57763671875	0.412841796875	1	lower	zerothre.ttf
402.44	n/a	WORD	201220	wordpools/wasnorm_wordpool_less_exclusions.txt	LTP283	ltpFR	8	1	0	CUSHION	428	n/a	n/a	1	n/a	0	0	0	0.57763671875	0.412841796875	1	lower	zerothre.ttf
406.488	n/a	WORD	203244	wordpools/wasnorm_wordpool_less_exclusions.txt	LTP283	ltpFR	8	1	0	CUSTOMER	430	n/a	n/a	1	n/a	0	0	0	0.57763671875	0.412841796875	1	lower	zerothre.ttf
410.37	n/a	WORD	205185	wordpools/wasnorm_wordpool_less_exclusions.txt	LTP283	ltpFR	8	1	0	VEGETABLE	1552	n/a	n/a	0	n/a	0	0	0	0.57763671875	0.412841796875	1	lower	zerothre.ttf
414.368	n/a	WORD	207184	wordpools/wasnorm_wordpool_less_exclusions.txt	LTP283	ltpFR	8	1	0	ARTICLE	42	n/a	n/a	0	n/a	0	0	0	0.57763671875	0.412841796875	1	lower	zerothre.ttf
418.55	n/a	WORD	209275	wordpools/wasnorm_wordpool_less_exclusions.txt	LTP283	ltpFR	8	1	0	COLUMN	350	n/a	n/a	0	n/a	0	0	0	0.57763671875	0.412841796875	1	lower	zerothre.ttf
422.432	n/a	WORD	211216	wordpools/wasnorm_wordpool_less_exclusions.txt	LTP283	ltpFR	8	1	0	MONK	910	n/a	n/a	1	n/a	0	0	0	0.57763671875	0.412841796875	1	lower	zerothre.ttf
426.464	n/a	WORD	213232	wordpools/wasnorm_wordpool_less_exclusions.txt	LTP283	ltpFR	8	1	0	POPE	1105	n/a	n/a	1	n/a	0	0	0	0.57763671875	0.412841796875	1	lower	zerothre.ttf
430.38	n/a	WORD	215190	wordpools/wasnorm_wordpool_less_exclusions.txt	LTP283	ltpFR	8	1	0	PEACH	1031	n/a	n/a	0	n/a	0	0	0	0.57763671875	0.412841796875	1	lower	zerothre.ttf
434.462	n/a	WORD	217231	wordpools/wasnorm_wordpool_less_exclusions.txt	LTP283	ltpFR	8	1	0	CONSUMER	365	n/a	n/a	1	n/a	0	0	0	0.57763671875	0.412841796875	1	lower	zerothre.ttf
438.31	n/a	WORD	219155	wordpools/wasnorm_wordpool_less_exclusions.txt	LTP283	ltpFR	8	1	0	LINEN	825	n/a	n/a	1	n/a	0	0	0	0.57763671875	0.412841796875	1	lower	zerothre.ttf
442.192	n/a	WORD	221096	wordpools/wasnorm_wordpool_less_exclusions.txt	LTP283	ltpFR	8	1	0	SALAD	1224	n/a	n/a	0	n/a	0	0	0	0.57763671875	0.412841796875	1	lower	zerothre.ttf
446.056	n/a	WORD	223028	wordpools/wasnorm_wordpool_less_exclusions.txt	LTP283	ltpFR	8	1	0	JAM	748	n/a	n/a	0	n/a	0	0	0	0.57763671875	0.412841796875	1	lower	zerothre.ttf
449.906	n/a	WORD	224953	wordpools/wasnorm_wordpool_less_exclusions.txt	LTP283	ltpFR	8	1	0	BUN	197	n/a	n/a	0	n/a	0	0	0	0.57763671875	0.412841796875	1	lower	zerothre.ttf
452.918	n/a	START	226459	n/a	LTP283	ltpFR	8	n/a	n/a	n/a	n/a	n/a	n/a	n/a	n/a	n/a	n/a	n/a	n/a	n/a	n/a	n/a	n/a
453.754	n/a	PROB	226877	n/a	LTP283	ltpFR	8	n/a	n/a	n/a	n/a	n/a	n/a	n/a	9	1	7	1	n/a	n/a	n/a	n/a	n/a
455.828	n/a	PROB	227914	n/a	LTP283	ltpFR	8	n/a	n/a	n/a	n/a	n/a	n/a	n/a	18	6	8	4	n/a	n/a	n/a	n/a	n/a
457.702	n/a	PROB	228851	n/a	LTP283	ltpFR	8	n/a	n/a	n/a	n/a	n/a	n/a	n/a	18	4	5	9	n/a	n/a	n/a	n/a	n/a
460.916	n/a	STOP	230458	n/a	LTP283	ltpFR	8	n/a	n/a	n/a	n/a	n/a	n/a	n/a	n/a	n/a	n/a	n/a	n/a	n/a	n/a	n/a	n/a
462.788	n/a	REC_START	231394	n/a	LTP283	ltpFR	8	1	n/a	n/a	n/a	n/a	n/a	n/a	n/a	0	0	0	n/a	n/a	n/a	n/a	n/a
464.802	n/a	REC_WORD	232401	wordpools/wasnorm_wordpool_less_exclusions.txt	LTP283	ltpFR	8	1	0	LINEN	825	n/a	n/a	1	n/a	0	0	0	n/a	n/a	n/a	n/a	n/a
466.24	n/a	REC_WORD	233120	wordpools/wasnorm_wordpool_less_exclusions.txt	LTP283	ltpFR	8	1	0	BUN	197	n/a	n/a	0	n/a	0	0	0	n/a	n/a	n/a	n/a	n/a
467.382	n/a	REC_WORD	233691	wordpools/wasnorm_wordpool_less_exclusions.txt	LTP283	ltpFR	8	1	0	JAM	748	n/a	n/a	0	n/a	0	0	0	n/a	n/a	n/a	n/a	n/a
469.874	n/a	REC_WORD	234937	wordpools/wasnorm_wordpool_less_exclusions.txt	LTP283	ltpFR	8	1	0	SKI	1316	n/a	n/a	1	n/a	0	0	0	n/a	n/a	n/a	n/a	n/a
472.048	n/a	REC_WORD	236024	wordpools/wasnorm_wordpool_less_exclusions.txt	LTP283	ltpFR	8	1	0	MOUTH	926	n/a	n/a	0	n/a	0	0	0	n/a	n/a	n/a	n/a	n/a
473.786	n/a	REC_WORD	236893	wordpools/wasnorm_wordpool_less_exclusions.txt	LTP283	ltpFR	8	1	0	WORLD	1622	n/a	n/a	1	n/a	0	0	0	n/a	n/a	n/a	n/a	n/a
475.302	n/a	REC_WORD	237651	wordpools/wasnorm_wordpool_less_exclusions.txt	LTP283	ltpFR	8	1	0	MONK	910	n/a	n/a	1	n/a	0	0	0	n/a	n/a	n/a	n/a	n/a
476.89	n/a	REC_WORD	238445	wordpools/wasnorm_wordpool_less_exclusions.txt	LTP283	ltpFR	8	1	0	POPE	1105	n/a	n/a	1	n/a	0	0	0	n/a	n/a	n/a	n/a	n/a
478.298	n/a	REC_WORD	239149	wordpools/wasnorm_wordpool_less_exclusions.txt	LTP283	ltpFR	8	1	0	CONSUMER	365	n/a	n/a	1	n/a	0	0	0	n/a	n/a	n/a	n/a	n/a
479.848	n/a	REC_WORD	239924	wordpools/wasnorm_wordpool_less_exclusions.txt	LTP283	ltpFR	8	1	0	CUSTOMER	430	n/a	n/a	1	n/a	0	0	0	n/a	n/a	n/a	n/a	n/a
481.846	n/a	REC_WORD	240923	wordpools/wasnorm_wordpool_less_exclusions.txt	LTP283	ltpFR	8	1	0	VEGETABLE	1552	n/a	n/a	0	n/a	0	0	0	n/a	n/a	n/a	n/a	n/a
483.362	n/a	REC_WORD	241681	wordpools/wasnorm_wordpool_less_exclusions.txt	LTP283	ltpFR	8	1	0	PEACH	1031	n/a	n/a	0	n/a	0	0	0	n/a	n/a	n/a	n/a	n/a
484.934	n/a	REC_WORD	242467	wordpools/wasnorm_wordpool_less_exclusions.txt	LTP283	ltpFR	8	1	0	SALAD	1224	n/a	n/a	0	n/a	0	0	0	n/a	n/a	n/a	n/a	n/a
488.442	n/a	REC_WORD	244221	wordpools/wasnorm_wordpool_less_exclusions.txt	LTP283	ltpFR	8	1	0	COLUMN	350	n/a	n/a	0	n/a	0	0	0	n/a	n/a	n/a	n/a	n/a
506.722	n/a	REC_WORD	253361	wordpools/wasnorm_wordpool_less_exclusions.txt	LTP283	ltpFR	8	1	0	ARTICLE	42	n/a	n/a	0	n/a	0	0	0	n/a	n/a	n/a	n/a	n/a
530.892	n/a	REC_WORD	265446	wordpools/wasnorm_wordpool_less_exclusions.txt	LTP283	ltpFR	8	1	0	CUSHION	428	n/a	n/a	1	n/a	0	0	0	n/a	n/a	n/a	n/a	n/a
541.438	n/a	START	270719	n/a	LTP283	ltpFR	8	n/a	n/a	n/a	n/a	n/a	n/a	n/a	n/a	n/a	n/a	n/a	n/a	n/a	n/a	n/a	n/a
542.944	n/a	PROB	271472	n/a	LTP283	ltpFR	8	n/a	n/a	n/a	n/a	n/a	n/a	n/a	7	3	3	1	n/a	n/a	n/a	n/a	n/a
544.768	n/a	PROB	272384	n/a	LTP283	ltpFR	8	n/a	n/a	n/a	n/a	n/a	n/a	n/a	17	7	8	2	n/a	n/a	n/a	n/a	n/a
546.29	n/a	PROB	273145	n/a	LTP283	ltpFR	8	n/a	n/a	n/a	n/a	n/a	n/a	n/a	16	7	5	4	n/a	n/a	n/a	n/a	n/a
547.846	n/a	PROB	273923	n/a	LTP283	ltpFR	8	n/a	n/a	n/a	n/a	n/a	n/a	n/a	13	5	5	3	n/a	n/a	n/a	n/a	n/a
549.012	n/a	STOP	274506	n/a	LTP283	ltpFR	8	n/a	n/a	n/a	n/a	n/a	n/a	n/a	n/a	n/a	n/a	n/a	n/a	n/a	n/a	n/a	n/a
550.338	n/a	WORD	275169	wordpools/wasnorm_wordpool_less_exclusions.txt	LTP283	ltpFR	8	2	0	PASTRY	1022	n/a	n/a	0	n/a	0	0	0	0.57763671875	0.412841796875	1	lower	zerothre.ttf
553.35	n/a	START	276675	n/a	LTP283	ltpFR	8	n/a	n/a	n/a	n/a	n/a	n/a	n/a	n/a	n/a	n/a	n/a	n/a	n/a	n/a	n/a	n/a
554.22	n/a	PROB	277110	n/a	LTP283	ltpFR	8	n/a	n/a	n/a	n/a	n/a	n/a	n/a	5	1	2	2	n/a	n/a	n/a	n/a	n/a
555.91	n/a	PROB	277955	n/a	LTP283	ltpFR	8	n/a	n/a	n/a	n/a	n/a	n/a	n/a	8	2	2	4	n/a	n/a	n/a	n/a	n/a
557.852	n/a	PROB	278926	n/a	LTP283	ltpFR	8	n/a	n/a	n/a	n/a	n/a	n/a	n/a	16	6	5	5	n/a	n/a	n/a	n/a	n/a
561.35	n/a	STOP	280675	n/a	LTP283	ltpFR	8	n/a	n/a	n/a	n/a	n/a	n/a	n/a	n/a	n/a	n/a	n/a	n/a	n/a	n/a	n/a	n/a
562.484	n/a	WORD	281242	wordpools/wasnorm_wordpool_less_exclusions.txt	LTP283	ltpFR	8	2	0	PIE	1062	n/a	n/a	0	n/a	0	0	0	0.57763671875	0.412841796875	1	lower	zerothre.ttf
565.496	n/a	START	282748	n/a	LTP283	ltpFR	8	n/a	n/a	n/a	n/a	n/a	n/a	n/a	n/a	n/a	n/a	n/a	n/a	n/a	n/a	n/a	n/a
566.666	n/a	PROB	283333	n/a	LTP283	ltpFR	8	n/a	n/a	n/a	n/a	n/a	n/a	n/a	6	2	2	2	n/a	n/a	n/a	n/a	n/a
567.988	n/a	PROB	283994	n/a	LTP283	ltpFR	8	n/a	n/a	n/a	n/a	n/a	n/a	n/a	18	8	1	9	n/a	n/a	n/a	n/a	n/a
569.61	n/a	PROB	284805	n/a	LTP283	ltpFR	8	n/a	n/a	n/a	n/a	n/a	n/a	n/a	20	5	7	8	n/a	n/a	n/a	n/a	n/a
571.47	n/a	PROB	285735	n/a	LTP283	ltpFR	8	n/a	n/a	n/a	n/a	n/a	n/a	n/a	9	1	1	7	n/a	n/a	n/a	n/a	n/a
572.774	n/a	STOP	286387	n/a	LTP283	ltpFR	8	n/a	n/a	n/a	n/a	n/a	n/a	n/a	n/a	n/a	n/a	n/a	n/a	n/a	n/a	n/a	n/a
574.396	n/a	WORD	287198	wordpools/wasnorm_wordpool_less_exclusions.txt	LTP283	ltpFR	8	2	0	TRUCK	1512	n/a	n/a	1	n/a	0	0	0	0.57763671875	0.412841796875	1	lower	zerothre.ttf
577.408	n/a	START	288704	n/a	LTP283	ltpFR	8	n/a	n/a	n/a	n/a	n/a	n/a	n/a	n/a	n/a	n/a	n/a	n/a	n/a	n/a	n/a	n/a
578.496	n/a	PROB	289248	n/a	LTP283	ltpFR	8	n/a	n/a	n/a	n/a	n/a	n/a	n/a	8	2	4	2	n/a	n/a	n/a	n/a	n/a
580.284	n/a	PROB	290142	n/a	LTP283	ltpFR	8	n/a	n/a	n/a	n/a	n/a	n/a	n/a	21	4	9	8	n/a	n/a	n/a	n/a	n/a
582.592	n/a	PROB	291296	n/a	LTP283	ltpFR	8	n/a	n/a	n/a	n/a	n/a	n/a	n/a	9	4	2	3	n/a	n/a	n/a	n/a	n/a
584.014	n/a	STOP	292007	n/a	LTP283	ltpFR	8	n/a	n/a	n/a	n/a	n/a	n/a	n/a	n/a	n/a	n/a	n/a	n/a	n/a	n/a	n/a	n/a
586.242	n/a	WORD	293121	wordpools/wasnorm_wordpool_less_exclusions.txt	LTP283	ltpFR	8	2	1	BARREL	91	n/a	n/a	0	n/a	0	0	0	0.422607421875	0.5869140625	0	upper	amplitud.ttf
589.254	n/a	START	294627	n/a	LTP283	ltpFR	8	n/a	n/a	n/a	n/a	n/a	n/a	n/a	n/a	n/a	n/a	n/a	n/a	n/a	n/a	n/a	n/a
590.424	n/a	PROB	295212	n/a	LTP283	ltpFR	8	n/a	n/a	n/a	n/a	n/a	n/a	n/a	18	9	7	2	n/a	n/a	n/a	n/a	n/a
592.264	n/a	PROB	296132	n/a	LTP283	ltpFR	8	n/a	n/a	n/a	n/a	n/a	n/a	n/a	13	8	1	4	n/a	n/a	n/a	n/a	n/a
597.254	n/a	STOP	298627	n/a	LTP283	ltpFR	8	n/a	n/a	n/a	n/a	n/a	n/a	n/a	n/a	n/a	n/a	n/a	n/a	n/a	n/a	n/a	n/a
598.188	n/a	WORD	299094	wordpools/wasnorm_wordpool_less_exclusions.txt	LTP283	ltpFR	8	2	1	FUGITIVE	612	n/a	n/a	1	n/a	0	0	0	0.422607421875	0.5869140625	0	upper	amplitud.ttf
601.2	n/a	START	300600	n/a	LTP283	ltpFR	8	n/a	n/a	n/a	n/a	n/a	n/a	n/a	n/a	n/a	n/a	n/a	n/a	n/a	n/a	n/a	n/a
602.404	n/a	PROB	301202	n/a	LTP283	ltpFR	8	n/a	n/a	n/a	n/a	n/a	n/a	n/a	19	9	3	7	n/a	n/a	n/a	n/a	n/a
604.328	n/a	PROB	302164	n/a	LTP283	ltpFR	8	n/a	n/a	n/a	n/a	n/a	n/a	n/a	20	6	9	5	n/a	n/a	n/a	n/a	n/a
606.002	n/a	PROB	303001	n/a	LTP283	ltpFR	8	n/a	n/a	n/a	n/a	n/a	n/a	n/a	15	6	4	5	n/a	n/a	n/a	n/a	n/a
608.03	n/a	STOP	304015	n/a	LTP283	ltpFR	8	n/a	n/a	n/a	n/a	n/a	n/a	n/a	n/a	n/a	n/a	n/a	n/a	n/a	n/a	n/a	n/a
610.184	n/a	WORD	305092	wordpools/wasnorm_wordpool_less_exclusions.txt	LTP283	ltpFR	8	2	0	FUDGE	611	n/a	n/a	0	n/a	0	0	0	0.57763671875	0.412841796875	1	lower	zerothre.ttf
613.196	n/a	START	306598	n/a	LTP283	ltpFR	8	n/a	n/a	n/a	n/a	n/a	n/a	n/a	n/a	n/a	n/a	n/a	n/a	n/a	n/a	n/a	n/a
614.266	n/a	PROB	307133	n/a	LTP283	ltpFR	8	n/a	n/a	n/a	n/a	n/a	n/a	n/a	12	6	2	4	n/a	n/a	n/a	n/a	n/a
615.552	n/a	PROB	307776	n/a	LTP283	ltpFR	8	n/a	n/a	n/a	n/a	n/a	n/a	n/a	9	4	1	4	n/a	n/a	n/a	n/a	n/a
617.728	n/a	PROB	308864	n/a	LTP283	ltpFR	8	n/a	n/a	n/a	n/a	n/a	n/a	n/a	15	5	4	6	n/a	n/a	n/a	n/a	n/a
619.808	n/a	STOP	309904	n/a	LTP283	ltpFR	8	n/a	n/a	n/a	n/a	n/a	n/a	n/a	n/a	n/a	n/a	n/a	n/a	n/a	n/a	n/a	n/a
622.396	n/a	WORD	311198	wordpools/wasnorm_wordpool_less_exclusions.txt	LTP283	ltpFR	8	2	0	CONE	363	n/a	n/a	0	n/a	0	0	0	0.57763671875	0.412841796875	1	lower	zerothre.ttf
625.408	n/a	START	312704	n/a	LTP283	ltpFR	8	n/a	n/a	n/a	n/a	n/a	n/a	n/a	n/a	n/a	n/a	n/a	n/a	n/a	n/a	n/a	n/a
626.344	n/a	PROB	313172	n/a	LTP283	ltpFR	8	n/a	n/a	n/a	n/a	n/a	n/a	n/a	15	3	3	9	n/a	n/a	n/a	n/a	n/a
629.61	n/a	PROB	314805	n/a	LTP283	ltpFR	8	n/a	n/a	n/a	n/a	n/a	n/a	n/a	20	2	4	4	n/a	n/a	n/a	n/a	n/a
631.65	n/a	PROB	315825	n/a	LTP283	ltpFR	8	n/a	n/a	n/a	n/a	n/a	n/a	n/a	15	5	5	5	n/a	n/a	n/a	n/a	n/a
632.912	n/a	STOP	316456	n/a	LTP283	ltpFR	8	n/a	n/a	n/a	n/a	n/a	n/a	n/a	n/a	n/a	n/a	n/a	n/a	n/a	n/a	n/a	n/a
634.494	n/a	WORD	317247	wordpools/wasnorm_wordpool_less_exclusions.txt	LTP283	ltpFR	8	2	1	CAFETERIA	217	n/a	n/a	0	n/a	0	0	0	0.422607421875	0.5869140625	0	upper	amplitud.ttf
637.506	n/a	START	318753	n/a	LTP283	ltpFR	8	n/a	n/a	n/a	n/a	n/a	n/a	n/a	n/a	n/a	n/a	n/a	n/a	n/a	n/a	n/a	n/a
638.644	n/a	PROB	319322	n/a	LTP283	ltpFR	8	n/a	n/a	n/a	n/a	n/a	n/a	n/a	9	6	2	1	n/a	n/a	n/a	n/a	n/a
640.146	n/a	PROB	320073	n/a	LTP283	ltpFR	8	n/a	n/a	n/a	n/a	n/a	n/a	n/a	20	8	5	7	n/a	n/a	n/a	n/a	n/a
641.77	n/a	PROB	320885	n/a	LTP283	ltpFR	8	n/a	n/a	n/a	n/a	n/a	n/a	n/a	11	2	6	3	n/a	n/a	n/a	n/a	n/a
643.476	n/a	PROB	321738	n/a	LTP283	ltpFR	8	n/a	n/a	n/a	n/a	n/a	n/a	n/a	17	8	1	8	n/a	n/a	n/a	n/a	n/a
645.04	n/a	STOP	322520	n/a	LTP283	ltpFR	8	n/a	n/a	n/a	n/a	n/a	n/a	n/a	n/a	n/a	n/a	n/a	n/a	n/a	n/a	n/a	n/a
646.372	n/a	WORD	323186	wordpools/wasnorm_wordpool_less_exclusions.txt	LTP283	ltpFR	8	2	1	SPHINX	1349	n/a	n/a	0	n/a	0	0	0	0.422607421875	0.5869140625	0	upper	amplitud.ttf
649.384	n/a	START	324692	n/a	LTP283	ltpFR	8	n/a	n/a	n/a	n/a	n/a	n/a	n/a	n/a	n/a	n/a	n/a	n/a	n/a	n/a	n/a	n/a
650.438	n/a	PROB	325219	n/a	LTP283	ltpFR	8	n/a	n/a	n/a	n/a	n/a	n/a	n/a	15	5	2	8	n/a	n/a	n/a	n/a	n/a
652.446	n/a	PROB	326223	n/a	LTP283	ltpFR	8	n/a	n/a	n/a	n/a	n/a	n/a	n/a	12	8	3	1	n/a	n/a	n/a	n/a	n/a
654.584	n/a	PROB	327292	n/a	LTP283	ltpFR	8	n/a	n/a	n/a	n/a	n/a	n/a	n/a	16	7	7	2	n/a	n/a	n/a	n/a	n/a
656.264	n/a	STOP	328132	n/a	LTP283	ltpFR	8	n/a	n/a	n/a	n/a	n/a	n/a	n/a	n/a	n/a	n/a	n/a	n/a	n/a	n/a	n/a	n/a
658.318	n/a	WORD	329159	wordpools/wasnorm_wordpool_less_exclusions.txt	LTP283	ltpFR	8	2	1	BANDIT	81	n/a	n/a	1	n/a	0	0	0	0.422607421875	0.5869140625	0	upper	amplitud.ttf
661.33	n/a	START	330665	n/a	LTP283	ltpFR	8	n/a	n/a	n/a	n/a	n/a	n/a	n/a	n/a	n/a	n/a	n/a	n/a	n/a	n/a	n/a	n/a
662.232	n/a	PROB	331116	n/a	LTP283	ltpFR	8	n/a	n/a	n/a	n/a	n/a	n/a	n/a	4	1	2	1	n/a	n/a	n/a	n/a	n/a
663.872	n/a	PROB	331936	n/a	LTP283	ltpFR	8	n/a	n/a	n/a	n/a	n/a	n/a	n/a	19	5	6	8	n/a	n/a	n/a	n/a	n/a
666.164	n/a	PROB	333082	n/a	LTP283	ltpFR	8	n/a	n/a	n/a	n/a	n/a	n/a	n/a	15	4	9	2	n/a	n/a	n/a	n/a	n/a
668.09	n/a	STOP	334045	n/a	LTP283	ltpFR	8	n/a	n/a	n/a	n/a	n/a	n/a	n/a	n/a	n/a	n/a	n/a	n/a	n/a	n/a	n/a	n/a
670.346	n/a	WORD	335173	wordpools/wasnorm_wordpool_less_exclusions.txt	LTP283	ltpFR	8	2	1	LOUNGE	845	n/a	n/a	0	n/a	0	0	0	0.422607421875	0.5869140625	0	upper	amplitud.ttf
673.358	n/a	START	336679	n/a	LTP283	ltpFR	8	n/a	n/a	n/a	n/a	n/a	n/a	n/a	n/a	n/a	n/a	n/a	n/a	n/a	n/a	n/a	n/a
674.328	n/a	PROB	337164	n/a	LTP283	ltpFR	8	n/a	n/a	n/a	n/a	n/a	n/a	n/a	22	9	5	7	n/a	n/a	n/a	n/a	n/a
677.84	n/a	PROB	338920	n/a	LTP283	ltpFR	8	n/a	n/a	n/a	n/a	n/a	n/a	n/a	21	7	7	7	n/a	n/a	n/a	n/a	n/a
679.162	n/a	PROB	339581	n/a	LTP283	ltpFR	8	n/a	n/a	n/a	n/a	n/a	n/a	n/a	19	3	7	9	n/a	n/a	n/a	n/a	n/a
680.898	n/a	STOP	340449	n/a	LTP283	ltpFR	8	n/a	n/a	n/a	n/a	n/a	n/a	n/a	n/a	n/a	n/a	n/a	n/a	n/a	n/a	n/a	n/a
682.492	n/a	WORD	341246	wordpools/wasnorm_wordpool_less_exclusions.txt	LTP283	ltpFR	8	2	1	UTENSIL	1542	n/a	n/a	0	n/a	0	0	0	0.422607421875	0.5869140625	0	upper	amplitud.ttf
685.506	n/a	START	342753	n/a	LTP283	ltpFR	8	n/a	n/a	n/a	n/a	n/a	n/a	n/a	n/a	n/a	n/a	n/a	n/a	n/a	n/a	n/a	n/a
686.458	n/a	PROB	343229	n/a	LTP283	ltpFR	8	n/a	n/a	n/a	n/a	n/a	n/a	n/a	19	6	6	7	n/a	n/a	n/a	n/a	n/a
689.654	n/a	PROB	344827	n/a	LTP283	ltpFR	8	n/a	n/a	n/a	n/a	n/a	n/a	n/a	20	7	4	9	n/a	n/a	n/a	n/a	n/a
692.226	n/a	STOP	346113	n/a	LTP283	ltpFR	8	n/a	n/a	n/a	n/a	n/a	n/a	n/a	n/a	n/a	n/a	n/a	n/a	n/a	n/a	n/a	n/a
694.356	n/a	WORD	347178	wordpools/wasnorm_wordpool_less_exclusions.txt	LTP283	ltpFR	8	2	1	RECEPTIONIST	1174	n/a	n/a	1	n/a	0	0	0	0.422607421875	0.5869140625	0	upper	amplitud.ttf
697.368	n/a	START	348684	n/a	LTP283	ltpFR	8	n/a	n/a	n/a	n/a	n/a	n/a	n/a	n/a	n/a	n/a	n/a	n/a	n/a	n/a	n/a	n/a
698.22	n/a	PROB	349110	n/a	LTP283	ltpFR	8	n/a	n/a	n/a	n/a	n/a	n/a	n/a	12	7	2	3	n/a	n/a	n/a	n/a	n/a
699.492	n/a	PROB	349746	n/a	LTP283	ltpFR	8	n/a	n/a	n/a	n/a	n/a	n/a	n/a	12	2	9	1	n/a	n/a	n/a	n/a	n/a
700.712	n/a	PROB	350356	n/a	LTP283	ltpFR	8	n/a	n/a	n/a	n/a	n/a	n/a	n/a	12	7	4	1	n/a	n/a	n/a	n/a	n/a
702.118	n/a	PROB	351059	n/a	LTP283	ltpFR	8	n/a	n/a	n/a	n/a	n/a	n/a	n/a	23	9	7	7	n/a	n/a	n/a	n/a	n/a
704.076	n/a	STOP	352038	n/a	LTP283	ltpFR	8	n/a	n/a	n/a	n/a	n/a	n/a	n/a	n/a	n/a	n/a	n/a	n/a	n/a	n/a	n/a	n/a
706.452	n/a	WORD	353226	wordpools/wasnorm_wordpool_less_exclusions.txt	LTP283	ltpFR	8	2	0	SWAN	1417	n/a	n/a	1	n/a	0	0	0	0.57763671875	0.412841796875	1	lower	zerothre.ttf
709.464	n/a	START	354732	n/a	LTP283	ltpFR	8	n/a	n/a	n/a	n/a	n/a	n/a	n/a	n/a	n/a	n/a	n/a	n/a	n/a	n/a	n/a	n/a
710.384	n/a	PROB	355192	n/a	LTP283	ltpFR	8	n/a	n/a	n/a	n/a	n/a	n/a	n/a	14	5	7	2	n/a	n/a	n/a	n/a	n/a
712.808	n/a	PROB	356404	n/a	LTP283	ltpFR	8	n/a	n/a	n/a	n/a	n/a	n/a	n/a	17	2	8	7	n/a	n/a	n/a	n/a	n/a
714.248	n/a	PROB	357124	n/a	LTP283	ltpFR	8	n/a	n/a	n/a	n/a	n/a	n/a	n/a	14	4	9	1	n/a	n/a	n/a	n/a	n/a
717.462	n/a	STOP	358731	n/a	LTP283	ltpFR	8	n/a	n/a	n/a	n/a	n/a	n/a	n/a	n/a	n/a	n/a	n/a	n/a	n/a	n/a	n/a	n/a
718.548	n/a	WORD	359274	wordpools/wasnorm_wordpool_less_exclusions.txt	LTP283	ltpFR	8	2	0	DANCER	437	n/a	n/a	1	n/a	0	0	0	0.57763671875	0.412841796875	1	lower	zerothre.ttf
721.56	n/a	START	360780	n/a	LTP283	ltpFR	8	n/a	n/a	n/a	n/a	n/a	n/a	n/a	n/a	n/a	n/a	n/a	n/a	n/a	n/a	n/a	n/a
722.648	n/a	PROB	361324	n/a	LTP283	ltpFR	8	n/a	n/a	n/a	n/a	n/a	n/a	n/a	10	4	1	5	n/a	n/a	n/a	n/a	n/a
724.838	n/a	PROB	362419	n/a	LTP283	ltpFR	8	n/a	n/a	n/a	n/a	n/a	n/a	n/a	6	1	4	1	n/a	n/a	n/a	n/a	n/a
726.426	n/a	PROB	363213	n/a	LTP283	ltpFR	8	n/a	n/a	n/a	n/a	n/a	n/a	n/a	14	6	3	5	n/a	n/a	n/a	n/a	n/a
728.596	n/a	STOP	364298	n/a	LTP283	ltpFR	8	n/a	n/a	n/a	n/a	n/a	n/a	n/a	n/a	n/a	n/a	n/a	n/a	n/a	n/a	n/a	n/a
730.46	n/a	WORD	365230	wordpools/wasnorm_wordpool_less_exclusions.txt	LTP283	ltpFR	8	2	0	ENGINE	535	n/a	n/a	1	n/a	0	0	0	0.57763671875	0.412841796875	1	lower	zerothre.ttf
733.472	n/a	START	366736	n/a	LTP283	ltpFR	8	n/a	n/a	n/a	n/a	n/a	n/a	n/a	n/a	n/a	n/a	n/a	n/a	n/a	n/a	n/a	n/a
734.658	n/a	PROB	367329	n/a	LTP283	ltpFR	8	n/a	n/a	n/a	n/a	n/a	n/a	n/a	8	3	2	3	n/a	n/a	n/a	n/a	n/a
736.784	n/a	PROB	368392	n/a	LTP283	ltpFR	8	n/a	n/a	n/a	n/a	n/a	n/a	n/a	6	1	1	4	n/a	n/a	n/a	n/a	n/a
738.79	n/a	PROB	369395	n/a	LTP283	ltpFR	8	n/a	n/a	n/a	n/a	n/a	n/a	n/a	20	9	9	2	n/a	n/a	n/a	n/a	n/a
740.054	n/a	STOP	370027	n/a	LTP283	ltpFR	8	n/a	n/a	n/a	n/a	n/a	n/a	n/a	n/a	n/a	n/a	n/a	n/a	n/a	n/a	n/a	n/a
743.31	n/a	REC_START	371655	n/a	LTP283	ltpFR	8	2	n/a	n/a	n/a	n/a	n/a	n/a	n/a	0	0	0	n/a	n/a	n/a	n/a	n/a
745.874	n/a	REC_WORD	372937	wordpools/wasnorm_wordpool_less_exclusions.txt	LTP283	ltpFR	8	2	0	SWAN	1417	n/a	n/a	1	n/a	0	0	0	n/a	n/a	n/a	n/a	n/a
747.472	n/a	REC_WORD	373736	wordpools/wasnorm_wordpool_less_exclusions.txt	LTP283	ltpFR	8	2	0	DANCER	437	n/a	n/a	1	n/a	0	0	0	n/a	n/a	n/a	n/a	n/a
751.074	n/a	REC_WORD	375537	wordpools/wasnorm_wordpool_less_exclusions.txt	LTP283	ltpFR	8	2	1	FUGITIVE	612	n/a	n/a	1	n/a	0	0	0	n/a	n/a	n/a	n/a	n/a
763.45	n/a	REC_WORD	381725	wordpools/wasnorm_wordpool_less_exclusions.txt	LTP283	ltpFR	8	2	0	TRUCK	1512	n/a	n/a	1	n/a	0	0	0	n/a	n/a	n/a	n/a	n/a
764.91	n/a	REC_WORD	382455	wordpools/wasnorm_wordpool_less_exclusions.txt	LTP283	ltpFR	8	2	1	LOUNGE	845	n/a	n/a	0	n/a	0	0	0	n/a	n/a	n/a	n/a	n/a
766.438	n/a	REC_WORD	383219	wordpools/wasnorm_wordpool_less_exclusions.txt	LTP283	ltpFR	8	2	1	CAFETERIA	217	n/a	n/a	0	n/a	0	0	0	n/a	n/a	n/a	n/a	n/a
767.792	n/a	REC_WORD	383896	wordpools/wasnorm_wordpool_less_exclusions.txt	LTP283	ltpFR	8	2	1	UTENSIL	1542	n/a	n/a	0	n/a	0	0	0	n/a	n/a	n/a	n/a	n/a
778.28	n/a	REC_WORD	389140	wordpools/wasnorm_wordpool_less_exclusions.txt	LTP283	ltpFR	8	2	0	CONE	363	n/a	n/a	0	n/a	0	0	0	n/a	n/a	n/a	n/a	n/a
783.24	n/a	REC_WORD	391620	wordpools/wasnorm_wordpool_less_exclusions.txt	LTP283	ltpFR	8	2	0	PASTRY	1022	n/a	n/a	0	n/a	0	0	0	n/a	n/a	n/a	n/a	n/a
822.446	n/a	START	411223	n/a	LTP283	ltpFR	8	n/a	n/a	n/a	n/a	n/a	n/a	n/a	n/a	n/a	n/a	n/a	n/a	n/a	n/a	n/a	n/a
823.952	n/a	PROB	411976	n/a	LTP283	ltpFR	8	n/a	n/a	n/a	n/a	n/a	n/a	n/a	12	4	2	6	n/a	n/a	n/a	n/a	n/a
825.522	n/a	PROB	412761	n/a	LTP283	ltpFR	8	n/a	n/a	n/a	n/a	n/a	n/a	n/a	22	9	9	4	n/a	n/a	n/a	n/a	n/a
826.812	n/a	PROB	413406	n/a	LTP283	ltpFR	8	n/a	n/a	n/a	n/a	n/a	n/a	n/a	18	9	5	4	n/a	n/a	n/a	n/a	n/a
828.2	n/a	PROB	414100	n/a	LTP283	ltpFR	8	n/a	n/a	n/a	n/a	n/a	n/a	n/a	17	1	8	8	n/a	n/a	n/a	n/a	n/a
830.042	n/a	PROB	415021	n/a	LTP283	ltpFR	8	n/a	n/a	n/a	n/a	n/a	n/a	n/a	10	5	4	1	n/a	n/a	n/a	n/a	n/a
831.53	n/a	PROB	415765	n/a	LTP283	ltpFR	8	n/a	n/a	n/a	n/a	n/a	n/a	n/a	12	1	6	5	n/a	n/a	n/a	n/a	n/a
834.04	n/a	PROB	417020	n/a	LTP283	ltpFR	8	n/a	n/a	n/a	n/a	n/a	n/a	n/a	15	7	1	7	n/a	n/a	n/a	n/a	n/a
835.562	n/a	PROB	417781	n/a	LTP283	ltpFR	8	n/a	n/a	n/a	n/a	n/a	n/a	n/a	9	2	1	6	n/a	n/a	n/a	n/a	n/a
837.338	n/a	STOP	418669	n/a	LTP283	ltpFR	8	n/a	n/a	n/a	n/a	n/a	n/a	n/a	n/a	n/a	n/a	n/a	n/a	n/a	n/a	n/a	n/a
839.594	n/a	WORD	419797	wordpools/wasnorm_wordpool_less_exclusions.txt	LTP283	ltpFR	8	3	1	PIANO	1057	n/a	n/a	0	n/a	0	0	0	0.422607421875	0.5869140625	0	upper	amplitud.ttf
842.606	n/a	START	421303	n/a	LTP283	ltpFR	8	n/a	n/a	n/a	n/a	n/a	n/a	n/a	n/a	n/a	n/a	n/a	n/a	n/a	n/a	n/a	n/a
843.424	n/a	PROB	421712	n/a	LTP283	ltpFR	8	n/a	n/a	n/a	n/a	n/a	n/a	n/a	12	6	2	4	n/a	n/a	n/a	n/a	n/a
844.696	n/a	PROB	422348	n/a	LTP283	ltpFR	8	n/a	n/a	n/a	n/a	n/a	n/a	n/a	19	9	9	1	n/a	n/a	n/a	n/a	n/a
847.022	n/a	PROB	423511	n/a	LTP283	ltpFR	8	n/a	n/a	n/a	n/a	n/a	n/a	n/a	16	2	7	7	n/a	n/a	n/a	n/a	n/a
848.544	n/a	PROB	424272	n/a	LTP283	ltpFR	8	n/a	n/a	n/a	n/a	n/a	n/a	n/a	19	8	3	8	n/a	n/a	n/a	n/a	n/a
850.366	n/a	PROB	425183	n/a	LTP283	ltpFR	8	n/a	n/a	n/a	n/a	n/a	n/a	n/a	11	1	8	2	n/a	n/a	n/a	n/a	n/a
852.258	n/a	PROB	426129	n/a	LTP283	ltpFR	8	n/a	n/a	n/a	n/a	n/a	n/a	n/a	14	9	2	3	n/a	n/a	n/a	n/a	n/a
857.364	n/a	STOP	428682	n/a	LTP283	ltpFR	8	n/a	n/a	n/a	n/a	n/a	n/a	n/a	n/a	n/a	n/a	n/a	n/a	n/a	n/a	n/a	n/a
859.52	n/a	WORD	429760	wordpools/wasnorm_wordpool_less_exclusions.txt	LTP283	ltpFR	8	3	1	OPERATOR	979	n/a	n/a	1	n/a	0	0	0	0.422607421875	0.5869140625	0	upper	amplitud.ttf
862.532	n/a	START	431266	n/a	LTP283	ltpFR	8	n/a	n/a	n/a	n/a	n/a	n/a	n/a	n/a	n/a	n/a	n/a	n/a	n/a	n/a	n/a	n/a
863.636	n/a	PROB	431818	n/a	LTP283	ltpFR	8	n/a	n/a	n/a	n/a	n/a	n/a	n/a	8	6	1	1	n/a	n/a	n/a	n/a	n/a
865.174	n/a	PROB	432587	n/a	LTP283	ltpFR	8	n/a	n/a	n/a	n/a	n/a	n/a	n/a	13	1	5	7	n/a	n/a	n/a	n/a	n/a
867.33	n/a	PROB	433665	n/a	LTP283	ltpFR	8	n/a	n/a	n/a	n/a	n/a	n/a	n/a	11	1	7	3	n/a	n/a	n/a	n/a	n/a
869.174	n/a	PROB	434587	n/a	LTP283	ltpFR	8	n/a	n/a	n/a	n/a	n/a	n/a	n/a	19	5	9	5	n/a	n/a	n/a	n/a	n/a
870.796	n/a	PROB	435398	n/a	LTP283	ltpFR	8	n/a	n/a	n/a	n/a	n/a	n/a	n/a	12	9	2	1	n/a	n/a	n/a	n/a	n/a
872.116	n/a	PROB	436058	n/a	LTP283	ltpFR	8	n/a	n/a	n/a	n/a	n/a	n/a	n/a	6	1	1	4	n/a	n/a	n/a	n/a	n/a
873.272	n/a	PROB	436636	n/a	LTP283	ltpFR	8	n/a	n/a	n/a	n/a	n/a	n/a	n/a	17	9	3	5	n/a	n/a	n/a	n/a	n/a
875.716	n/a	PROB	437858	n/a	LTP283	ltpFR	8	n/a	n/a	n/a	n/a	n/a	n/a	n/a	15	4	6	5	n/a	n/a	n/a	n/a	n/a
878.534	n/a	STOP	439267	n/a	LTP283	ltpFR	8	n/a	n/a	n/a	n/a	n/a	n/a	n/a	n/a	n/a	n/a	n/a	n/a	n/a	n/a	n/a	n/a
879.496	n/a	WORD	439748	wordpools/wasnorm_wordpool_less_exclusions.txt	LTP283	ltpFR	8	3	1	FACTORY	548	n/a	n/a	0	n/a	0	0	0	0.422607421875	0.5869140625	0	upper	amplitud.ttf
882.508	n/a	START	441254	n/a	LTP283	ltpFR	8	n/a	n/a	n/a	n/a	n/a	n/a	n/a	n/a	n/a	n/a	n/a	n/a	n/a	n/a	n/a	n/a
883.494	n/a	PROB	441747	n/a	LTP283	ltpFR	8	n/a	n/a	n/a	n/a	n/a	n/a	n/a	13	4	2	7	n/a	n/a	n/a	n/a	n/a
885.702	n/a	PROB	442851	n/a	LTP283	ltpFR	8	n/a	n/a	n/a	n/a	n/a	n/a	n/a	5	1	2	2	n/a	n/a	n/a	n/a	n/a
886.74	n/a	PROB	443370	n/a	LTP283	ltpFR	8	n/a	n/a	n/a	n/a	n/a	n/a	n/a	18	5	4	9	n/a	n/a	n/a	n/a	n/a
888.362	n/a	PROB	444181	n/a	LTP283	ltpFR	8	n/a	n/a	n/a	n/a	n/a	n/a	n/a	9	1	7	1	n/a	n/a	n/a	n/a	n/a
889.854	n/a	PROB	444927	n/a	LTP283	ltpFR	8	n/a	n/a	n/a	n/a	n/a	n/a	n/a	7	5	1	1	n/a	n/a	n/a	n/a	n/a
891.29	n/a	PROB	445645	n/a	LTP283	ltpFR	8	n/a	n/a	n/a	n/a	n/a	n/a	n/a	14	9	4	1	n/a	n/a	n/a	n/a	n/a
892.664	n/a	PROB	446332	n/a	LTP283	ltpFR	8	n/a	n/a	n/a	n/a	n/a	n/a	n/a	13	5	3	5	n/a	n/a	n/a	n/a	n/a
893.986	n/a	PROB	446993	n/a	LTP283	ltpFR	8	n/a	n/a	n/a	n/a	n/a	n/a	n/a	11	1	3	7	n/a	n/a	n/a	n/a	n/a
895.238	n/a	PROB	447619	n/a	LTP283	ltpFR	8	n/a	n/a	n/a	n/a	n/a	n/a	n/a	18	4	9	5	n/a	n/a	n/a	n/a	n/a
896.946	n/a	PROB	448473	n/a	LTP283	ltpFR	8	n/a	n/a	n/a	n/a	n/a	n/a	n/a	14	1	6	7	n/a	n/a	n/a	n/a	n/a
898.398	n/a	STOP	449199	n/a	LTP283	ltpFR	8	n/a	n/a	n/a	n/a	n/a	n/a	n/a	n/a	n/a	n/a	n/a	n/a	n/a	n/a	n/a	n/a
899.658	n/a	WORD	449829	wordpools/wasnorm_wordpool_less_exclusions.txt	LTP283	ltpFR	8	3	1	POT	1114	n/a	n/a	0	n/a	0	0	0	0.422607421875	0.5869140625	0	upper	amplitud.ttf
902.67	n/a	START	451335	n/a	LTP283	ltpFR	8	n/a	n/a	n/a	n/a	n/a	n/a	n/a	n/a	n/a	n/a	n/a	n/a	n/a	n/a	n/a	n/a
903.856	n/a	PROB	451928	n/a	LTP283	ltpFR	8	n/a	n/a	n/a	n/a	n/a	n/a	n/a	14	1	9	4	n/a	n/a	n/a	n/a	n/a
905.328	n/a	PROB	452664	n/a	LTP283	ltpFR	8	n/a	n/a	n/a	n/a	n/a	n/a	n/a	11	6	2	3	n/a	n/a	n/a	n/a	n/a
907.252	n/a	PROB	453626	n/a	LTP283	ltpFR	8	n/a	n/a	n/a	n/a	n/a	n/a	n/a	18	7	4	7	n/a	n/a	n/a	n/a	n/a
909.108	n/a	PROB	454554	n/a	LTP283	ltpFR	8	n/a	n/a	n/a	n/a	n/a	n/a	n/a	14	2	4	8	n/a	n/a	n/a	n/a	n/a
910.632	n/a	PROB	455316	n/a	LTP283	ltpFR	8	n/a	n/a	n/a	n/a	n/a	n/a	n/a	13	6	6	1	n/a	n/a	n/a	n/a	n/a
911.97	n/a	PROB	455985	n/a	LTP283	ltpFR	8	n/a	n/a	n/a	n/a	n/a	n/a	n/a	23	8	9	6	n/a	n/a	n/a	n/a	n/a
913.826	n/a	PROB	456913	n/a	LTP283	ltpFR	8	n/a	n/a	n/a	n/a	n/a	n/a	n/a	13	7	1	5	n/a	n/a	n/a	n/a	n/a
916.12	n/a	PROB	458060	n/a	LTP283	ltpFR	8	n/a	n/a	n/a	n/a	n/a	n/a	n/a	7	4	1	2	n/a	n/a	n/a	n/a	n/a
918.206	n/a	STOP	459103	n/a	LTP283	ltpFR	8	n/a	n/a	n/a	n/a	n/a	n/a	n/a	n/a	n/a	n/a	n/a	n/a	n/a	n/a	n/a	n/a
919.498	n/a	WORD	459749	wordpools/wasnorm_wordpool_less_exclusions.txt	LTP283	ltpFR	8	3	1	SCREEN	1253	n/a	n/a	0	n/a	0	0	0	0.422607421875	0.5869140625	0	upper	amplitud.ttf
922.512	n/a	START	461256	n/a	LTP283	ltpFR	8	n/a	n/a	n/a	n/a	n/a	n/a	n/a	n/a	n/a	n/a	n/a	n/a	n/a	n/a	n/a	n/a
923.616	n/a	PROB	461808	n/a	LTP283	ltpFR	8	n/a	n/a	n/a	n/a	n/a	n/a	n/a	16	3	4	9	n/a	n/a	n/a	n/a	n/a
926.558	n/a	PROB	463279	n/a	LTP283	ltpFR	8	n/a	n/a	n/a	n/a	n/a	n/a	n/a	23	9	8	7	n/a	n/a	n/a	n/a	n/a
928.298	n/a	PROB	464149	n/a	LTP283	ltpFR	8	n/a	n/a	n/a	n/a	n/a	n/a	n/a	19	3	7	9	n/a	n/a	n/a	n/a	n/a
930.058	n/a	PROB	465029	n/a	LTP283	ltpFR	8	n/a	n/a	n/a	n/a	n/a	n/a	n/a	14	2	9	3	n/a	n/a	n/a	n/a	n/a
931.714	n/a	PROB	465857	n/a	LTP283	ltpFR	8	n/a	n/a	n/a	n/a	n/a	n/a	n/a	14	7	1	6	n/a	n/a	n/a	n/a	n/a
933.618	n/a	PROB	466809	n/a	LTP283	ltpFR	8	n/a	n/a	n/a	n/a	n/a	n/a	n/a	18	6	3	9	n/a	n/a	n/a	n/a	n/a
938.512	n/a	STOP	469256	n/a	LTP283	ltpFR	8	n/a	n/a	n/a	n/a	n/a	n/a	n/a	n/a	n/a	n/a	n/a	n/a	n/a	n/a	n/a	n/a
939.458	n/a	WORD	469729	wordpools/wasnorm_wordpool_less_exclusions.txt	LTP283	ltpFR	8	3	1	CUB	419	n/a	n/a	1	n/a	0	0	0	0.422607421875	0.5869140625	0	upper	amplitud.ttf
942.47	n/a	START	471235	n/a	LTP283	ltpFR	8	n/a	n/a	n/a	n/a	n/a	n/a	n/a	n/a	n/a	n/a	n/a	n/a	n/a	n/a	n/a	n/a
943.44	n/a	PROB	471720	n/a	LTP283	ltpFR	8	n/a	n/a	n/a	n/a	n/a	n/a	n/a	16	9	1	6	n/a	n/a	n/a	n/a	n/a
944.996	n/a	PROB	472498	n/a	LTP283	ltpFR	8	n/a	n/a	n/a	n/a	n/a	n/a	n/a	17	9	2	6	n/a	n/a	n/a	n/a	n/a
947.842	n/a	PROB	473921	n/a	LTP283	ltpFR	8	n/a	n/a	n/a	n/a	n/a	n/a	n/a	7	3	2	2	n/a	n/a	n/a	n/a	n/a
949.766	n/a	PROB	474883	n/a	LTP283	ltpFR	8	n/a	n/a	n/a	n/a	n/a	n/a	n/a	11	6	2	3	n/a	n/a	n/a	n/a	n/a
951.706	n/a	PROB	475853	n/a	LTP283	ltpFR	8	n/a	n/a	n/a	n/a	n/a	n/a	n/a	12	1	5	6	n/a	n/a	n/a	n/a	n/a
953.144	n/a	PROB	476572	n/a	LTP283	ltpFR	8	n/a	n/a	n/a	n/a	n/a	n/a	n/a	12	6	3	3	n/a	n/a	n/a	n/a	n/a
954.934	n/a	PROB	477467	n/a	LTP283	ltpFR	8	n/a	n/a	n/a	n/a	n/a	n/a	n/a	16	3	4	9	n/a	n/a	n/a	n/a	n/a
956.456	n/a	PROB	478228	n/a	LTP283	ltpFR	8	n/a	n/a	n/a	n/a	n/a	n/a	n/a	16	8	8	4	n/a	n/a	n/a	n/a	n/a
958.034	n/a	STOP	479017	n/a	LTP283	ltpFR	8	n/a	n/a	n/a	n/a	n/a	n/a	n/a	n/a	n/a	n/a	n/a	n/a	n/a	n/a	n/a	n/a
959.384	n/a	WORD	479692	wordpools/wasnorm_wordpool_less_exclusions.txt	LTP283	ltpFR	8	3	1	TANK	1432	n/a	n/a	0	n/a	0	0	0	0.422607421875	0.5869140625	0	upper	amplitud.ttf
962.396	n/a	START	481198	n/a	LTP283	ltpFR	8	n/a	n/a	n/a	n/a	n/a	n/a	n/a	n/a	n/a	n/a	n/a	n/a	n/a	n/a	n/a	n/a
963.35	n/a	PROB	481675	n/a	LTP283	ltpFR	8	n/a	n/a	n/a	n/a	n/a	n/a	n/a	15	7	5	3	n/a	n/a	n/a	n/a	n/a
964.638	n/a	PROB	482319	n/a	LTP283	ltpFR	8	n/a	n/a	n/a	n/a	n/a	n/a	n/a	22	5	9	8	n/a	n/a	n/a	n/a	n/a
967.564	n/a	PROB	483782	n/a	LTP283	ltpFR	8	n/a	n/a	n/a	n/a	n/a	n/a	n/a	26	9	8	7	n/a	n/a	n/a	n/a	n/a
970.696	n/a	PROB	485348	n/a	LTP283	ltpFR	8	n/a	n/a	n/a	n/a	n/a	n/a	n/a	21	3	9	9	n/a	n/a	n/a	n/a	n/a
972.654	n/a	PROB	486327	n/a	LTP283	ltpFR	8	n/a	n/a	n/a	n/a	n/a	n/a	n/a	19	6	6	7	n/a	n/a	n/a	n/a	n/a
974.878	n/a	PROB	487439	n/a	LTP283	ltpFR	8	n/a	n/a	n/a	n/a	n/a	n/a	n/a	10	6	2	2	n/a	n/a	n/a	n/a	n/a
976.45	n/a	PROB	488225	n/a	LTP283	ltpFR	8	n/a	n/a	n/a	n/a	n/a	n/a	n/a	10	3	4	3	n/a	n/a	n/a	n/a	n/a
978.082	n/a	STOP	489041	n/a	LTP283	ltpFR	8	n/a	n/a	n/a	n/a	n/a	n/a	n/a	n/a	n/a	n/a	n/a	n/a	n/a	n/a	n/a	n/a
979.228	n/a	WORD	489614	wordpools/wasnorm_wordpool_less_exclusions.txt	LTP283	ltpFR	8	3	1	BOOTH	151	n/a	n/a	0	n/a	0	0	0	0.422607421875	0.5869140625	0	upper	amplitud.ttf
982.24	n/a	START	491120	n/a	LTP283	ltpFR	8	n/a	n/a	n/a	n/a	n/a	n/a	n/a	n/a	n/a	n/a	n/a	n/a	n/a	n/a	n/a	n/a
983.392	n/a	PROB	491696	n/a	LTP283	ltpFR	8	n/a	n/a	n/a	n/a	n/a	n/a	n/a	20	5	8	7	n/a	n/a	n/a	n/a	n/a
985.05	n/a	PROB	492525	n/a	LTP283	ltpFR	8	n/a	n/a	n/a	n/a	n/a	n/a	n/a	14	7	6	1	n/a	n/a	n/a	n/a	n/a
986.788	n/a	PROB	493394	n/a	LTP283	ltpFR	8	n/a	n/a	n/a	n/a	n/a	n/a	n/a	11	3	5	3	n/a	n/a	n/a	n/a	n/a
988.846	n/a	PROB	494423	n/a	LTP283	ltpFR	8	n/a	n/a	n/a	n/a	n/a	n/a	n/a	20	6	8	8	n/a	n/a	n/a	n/a	n/a
990.62	n/a	PROB	495310	n/a	LTP283	ltpFR	8	n/a	n/a	n/a	n/a	n/a	n/a	n/a	17	9	6	2	n/a	n/a	n/a	n/a	n/a
993.614	n/a	PROB	496807	n/a	LTP283	ltpFR	8	n/a	n/a	n/a	n/a	n/a	n/a	n/a	20	9	2	9	n/a	n/a	n/a	n/a	n/a
995.036	n/a	PROB	497518	n/a	LTP283	ltpFR	8	n/a	n/a	n/a	n/a	n/a	n/a	n/a	15	1	7	7	n/a	n/a	n/a	n/a	n/a
998.24	n/a	STOP	499120	n/a	LTP283	ltpFR	8	n/a	n/a	n/a	n/a	n/a	n/a	n/a	n/a	n/a	n/a	n/a	n/a	n/a	n/a	n/a	n/a
999.32	n/a	WORD	499660	wordpools/wasnorm_wordpool_less_exclusions.txt	LTP283	ltpFR	8	3	1	HOSE	720	n/a	n/a	0	n/a	0	0	0	0.422607421875	0.5869140625	0	upper	amplitud.ttf
1002.332	n/a	START	501166	n/a	LTP283	ltpFR	8	n/a	n/a	n/a	n/a	n/a	n/a	n/a	n/a	n/a	n/a	n/a	n/a	n/a	n/a	n/a	n/a
1003.202	n/a	PROB	501601	n/a	LTP283	ltpFR	8	n/a	n/a	n/a	n/a	n/a	n/a	n/a	11	3	2	6	n/a	n/a	n/a	n/a	n/a
1005.228	n/a	PROB	502614	n/a	LTP283	ltpFR	8	n/a	n/a	n/a	n/a	n/a	n/a	n/a	6	3	2	1	n/a	n/a	n/a	n/a	n/a
1007.0	n/a	PROB	503500	n/a	LTP283	ltpFR	8	n/a	n/a	n/a	n/a	n/a	n/a	n/a	15	9	2	4	n/a	n/a	n/a	n/a	n/a
1009.206	n/a	PROB	504603	n/a	LTP283	ltpFR	8	n/a	n/a	n/a	n/a	n/a	n/a	n/a	25	9	8	8	n/a	n/a	n/a	n/a	n/a
1011.652	n/a	PROB	505826	n/a	LTP283	ltpFR	8	n/a	n/a	n/a	n/a	n/a	n/a	n/a	14	3	3	8	n/a	n/a	n/a	n/a	n/a
1013.224	n/a	PROB	506612	n/a	LTP283	ltpFR	8	n/a	n/a	n/a	n/a	n/a	n/a	n/a	12	7	1	4	n/a	n/a	n/a	n/a	n/a
1014.728	n/a	PROB	507364	n/a	LTP283	ltpFR	8	n/a	n/a	n/a	n/a	n/a	n/a	n/a	15	9	4	2	n/a	n/a	n/a	n/a	n/a
1016.806	n/a	PROB	508403	n/a	LTP283	ltpFR	8	n/a	n/a	n/a	n/a	n/a	n/a	n/a	11	6	4	1	n/a	n/a	n/a	n/a	n/a
1018.028	n/a	STOP	509014	n/a	LTP283	ltpFR	8	n/a	n/a	n/a	n/a	n/a	n/a	n/a	n/a	n/a	n/a	n/a	n/a	n/a	n/a	n/a	n/a
1019.346	n/a	WORD	509673	wordpools/wasnorm_wordpool_less_exclusions.txt	LTP283	ltpFR	8	3	1	SNORKEL	1336	n/a	n/a	0	n/a	0	0	0	0.422607421875	0.5869140625	0	upper	amplitud.ttf
1022.36	n/a	START	511180	n/a	LTP283	ltpFR	8	n/a	n/a	n/a	n/a	n/a	n/a	n/a	n/a	n/a	n/a	n/a	n/a	n/a	n/a	n/a	n/a
1023.546	n/a	PROB	511773	n/a	LTP283	ltpFR	8	n/a	n/a	n/a	n/a	n/a	n/a	n/a	17	8	4	5	n/a	n/a	n/a	n/a	n/a
1025.722	n/a	PROB	512861	n/a	LTP283	ltpFR	8	n/a	n/a	n/a	n/a	n/a	n/a	n/a	13	9	1	3	n/a	n/a	n/a	n/a	n/a
1027.142	n/a	PROB	513571	n/a	LTP283	ltpFR	8	n/a	n/a	n/a	n/a	n/a	n/a	n/a	18	7	3	8	n/a	n/a	n/a	n/a	n/a
1028.732	n/a	PROB	514366	n/a	LTP283	ltpFR	8	n/a	n/a	n/a	n/a	n/a	n/a	n/a	13	4	1	8	n/a	n/a	n/a	n/a	n/a
1030.708	n/a	PROB	515354	n/a	LTP283	ltpFR	8	n/a	n/a	n/a	n/a	n/a	n/a	n/a	20	3	8	9	n/a	n/a	n/a	n/a	n/a
1032.396	n/a	PROB	516198	n/a	LTP283	ltpFR	8	n/a	n/a	n/a	n/a	n/a	n/a	n/a	15	9	2	4	n/a	n/a	n/a	n/a	n/a
1034.054	n/a	PROB	517027	n/a	LTP283	ltpFR	8	n/a	n/a	n/a	n/a	n/a	n/a	n/a	20	4	8	4	n/a	n/a	n/a	n/a	n/a
1038.36	n/a	STOP	519180	n/a	LTP283	ltpFR	8	n/a	n/a	n/a	n/a	n/a	n/a	n/a	n/a	n/a	n/a	n/a	n/a	n/a	n/a	n/a	n/a
1039.54	n/a	WORD	519770	wordpools/wasnorm_wordpool_less_exclusions.txt	LTP283	ltpFR	8	3	1	CHEF	290	n/a	n/a	1	n/a	0	0	0	0.422607421875	0.5869140625	0	upper	amplitud.ttf
1042.552	n/a	START	521276	n/a	LTP283	ltpFR	8	n/a	n/a	n/a	n/a	n/a	n/a	n/a	n/a	n/a	n/a	n/a	n/a	n/a	n/a	n/a	n/a
1043.726	n/a	PROB	521863	n/a	LTP283	ltpFR	8	n/a	n/a	n/a	n/a	n/a	n/a	n/a	23	8	6	9	n/a	n/a	n/a	n/a	n/a
1046.754	n/a	PROB	523377	n/a	LTP283	ltpFR	8	n/a	n/a	n/a	n/a	n/a	n/a	n/a	16	6	1	9	n/a	n/a	n/a	n/a	n/a
1049.228	n/a	PROB	524614	n/a	LTP283	ltpFR	8	n/a	n/a	n/a	n/a	n/a	n/a	n/a	15	5	3	7	n/a	n/a	n/a	n/a	n/a
1050.934	n/a	PROB	525467	n/a	LTP283	ltpFR	8	n/a	n/a	n/a	n/a	n/a	n/a	n/a	17	4	5	8	n/a	n/a	n/a	n/a	n/a
1052.808	n/a	PROB	526404	n/a	LTP283	ltpFR	8	n/a	n/a	n/a	n/a	n/a	n/a	n/a	12	1	5	6	n/a	n/a	n/a	n/a	n/a
1054.296	n/a	PROB	527148	n/a	LTP283	ltpFR	8	n/a	n/a	n/a	n/a	n/a	n/a	n/a	14	2	6	6	n/a	n/a	n/a	n/a	n/a
1055.738	n/a	PROB	527869	n/a	LTP283	ltpFR	8	n/a	n/a	n/a	n/a	n/a	n/a	n/a	26	7	9	7	n/a	n/a	n/a	n/a	n/a
1057.526	n/a	STOP	528763	n/a	LTP283	ltpFR	8	n/a	n/a	n/a	n/a	n/a	n/a	n/a	n/a	n/a	n/a	n/a	n/a	n/a	n/a	n/a	n/a
1059.534	n/a	WORD	529767	wordpools/wasnorm_wordpool_less_exclusions.txt	LTP283	ltpFR	8	3	1	DIAL	457	n/a	n/a	0	n/a	0	0	0	0.422607421875	0.5869140625	0	upper	amplitud.ttf
1062.546	n/a	START	531273	n/a	LTP283	ltpFR	8	n/a	n/a	n/a	n/a	n/a	n/a	n/a	n/a	n/a	n/a	n/a	n/a	n/a	n/a	n/a	n/a
1063.45	n/a	PROB	531725	n/a	LTP283	ltpFR	8	n/a	n/a	n/a	n/a	n/a	n/a	n/a	15	8	6	1	n/a	n/a	n/a	n/a	n/a
1064.92	n/a	PROB	532460	n/a	LTP283	ltpFR	8	n/a	n/a	n/a	n/a	n/a	n/a	n/a	18	6	9	3	n/a	n/a	n/a	n/a	n/a
1066.998	n/a	PROB	533499	n/a	LTP283	ltpFR	8	n/a	n/a	n/a	n/a	n/a	n/a	n/a	5	2	1	2	n/a	n/a	n/a	n/a	n/a
1068.15	n/a	PROB	534075	n/a	LTP283	ltpFR	8	n/a	n/a	n/a	n/a	n/a	n/a	n/a	12	6	2	4	n/a	n/a	n/a	n/a	n/a
1069.808	n/a	PROB	534904	n/a	LTP283	ltpFR	8	n/a	n/a	n/a	n/a	n/a	n/a	n/a	15	4	4	7	n/a	n/a	n/a	n/a	n/a
1072.116	n/a	PROB	536058	n/a	LTP283	ltpFR	8	n/a	n/a	n/a	n/a	n/a	n/a	n/a	20	9	2	9	n/a	n/a	n/a	n/a	n/a
1073.438	n/a	PROB	536719	n/a	LTP283	ltpFR	8	n/a	n/a	n/a	n/a	n/a	n/a	n/a	15	5	1	9	n/a	n/a	n/a	n/a	n/a
1075.108	n/a	PROB	537554	n/a	LTP283	ltpFR	8	n/a	n/a	n/a	n/a	n/a	n/a	n/a	15	3	3	9	n/a	n/a	n/a	n/a	n/a
1077.542	n/a	STOP	538771	n/a	LTP283	ltpFR	8	n/a	n/a	n/a	n/a	n/a	n/a	n/a	n/a	n/a	n/a	n/a	n/a	n/a	n/a	n/a	n/a
1079.746	n/a	WORD	539873	wordpools/wasnorm_wordpool_less_exclusions.txt	LTP283	ltpFR	8	3	1	LION	827	n/a	n/a	1	n/a	0	0	0	0.422607421875	0.5869140625	0	upper	amplitud.ttf
1082.758	n/a	START	541379	n/a	LTP283	ltpFR	8	n/a	n/a	n/a	n/a	n/a	n/a	n/a	n/a	n/a	n/a	n/a	n/a	n/a	n/a	n/a	n/a
1083.644	n/a	PROB	541822	n/a	LTP283	ltpFR	8	n/a	n/a	n/a	n/a	n/a	n/a	n/a	11	5	1	5	n/a	n/a	n/a	n/a	n/a
1084.966	n/a	PROB	542483	n/a	LTP283	ltpFR	8	n/a	n/a	n/a	n/a	n/a	n/a	n/a	21	5	8	8	n/a	n/a	n/a	n/a	n/a
1086.854	n/a	PROB	543427	n/a	LTP283	ltpFR	8	n/a	n/a	n/a	n/a	n/a	n/a	n/a	22	9	4	9	n/a	n/a	n/a	n/a	n/a
1088.36	n/a	PROB	544180	n/a	LTP283	ltpFR	8	n/a	n/a	n/a	n/a	n/a	n/a	n/a	12	9	2	1	n/a	n/a	n/a	n/a	n/a
1089.632	n/a	PROB	544816	n/a	LTP283	ltpFR	8	n/a	n/a	n/a	n/a	n/a	n/a	n/a	19	6	5	8	n/a	n/a	n/a	n/a	n/a
1094.82	n/a	PROB	547410	n/a	LTP283	ltpFR	8	n/a	n/a	n/a	n/a	n/a	n/a	n/a	19	4	7	8	n/a	n/a	n/a	n/a	n/a
1098.758	n/a	STOP	549379	n/a	LTP283	ltpFR	8	n/a	n/a	n/a	n/a	n/a	n/a	n/a	n/a	n/a	n/a	n/a	n/a	n/a	n/a	n/a	n/a
1099.656	n/a	WORD	549828	wordpools/wasnorm_wordpool_less_exclusions.txt	LTP283	ltpFR	8	3	1	SHRIMP	1297	n/a	n/a	1	n/a	0	0	0	0.422607421875	0.5869140625	0	upper	amplitud.ttf
1102.668	n/a	START	551334	n/a	LTP283	ltpFR	8	n/a	n/a	n/a	n/a	n/a	n/a	n/a	n/a	n/a	n/a	n/a	n/a	n/a	n/a	n/a	n/a
1103.636	n/a	PROB	551818	n/a	LTP283	ltpFR	8	n/a	n/a	n/a	n/a	n/a	n/a	n/a	15	4	4	7	n/a	n/a	n/a	n/a	n/a
1105.626	n/a	PROB	552813	n/a	LTP283	ltpFR	8	n/a	n/a	n/a	n/a	n/a	n/a	n/a	14	8	2	4	n/a	n/a	n/a	n/a	n/a
1107.418	n/a	PROB	553709	n/a	LTP283	ltpFR	8	n/a	n/a	n/a	n/a	n/a	n/a	n/a	21	4	8	9	n/a	n/a	n/a	n/a	n/a
1109.288	n/a	PROB	554644	n/a	LTP283	ltpFR	8	n/a	n/a	n/a	n/a	n/a	n/a	n/a	25	9	7	8	n/a	n/a	n/a	n/a	n/a
1111.916	n/a	PROB	555958	n/a	LTP283	ltpFR	8	n/a	n/a	n/a	n/a	n/a	n/a	n/a	11	2	8	1	n/a	n/a	n/a	n/a	n/a
1114.358	n/a	PROB	557179	n/a	LTP283	ltpFR	8	n/a	n/a	n/a	n/a	n/a	n/a	n/a	14	2	8	4	n/a	n/a	n/a	n/a	n/a
1115.914	n/a	PROB	557957	n/a	LTP283	ltpFR	8	n/a	n/a	n/a	n/a	n/a	n/a	n/a	17	8	7	2	n/a	n/a	n/a	n/a	n/a
1117.52	n/a	STOP	558760	n/a	LTP283	ltpFR	8	n/a	n/a	n/a	n/a	n/a	n/a	n/a	n/a	n/a	n/a	n/a	n/a	n/a	n/a	n/a	n/a
1119.664	n/a	WORD	559832	wordpools/wasnorm_wordpool_less_exclusions.txt	LTP283	ltpFR	8	3	1	SEAFOOD	1260	n/a	n/a	0	n/a	0	0	0	0.422607421875	0.5869140625	0	upper	amplitud.ttf
1122.678	n/a	START	561339	n/a	LTP283	ltpFR	8	n/a	n/a	n/a	n/a	n/a	n/a	n/a	n/a	n/a	n/a	n/a	n/a	n/a	n/a	n/a	n/a
1123.68	n/a	PROB	561840	n/a	LTP283	ltpFR	8	n/a	n/a	n/a	n/a	n/a	n/a	n/a	19	9	1	9	n/a	n/a	n/a	n/a	n/a
1125.67	n/a	PROB	562835	n/a	LTP283	ltpFR	8	n/a	n/a	n/a	n/a	n/a	n/a	n/a	6	3	1	2	n/a	n/a	n/a	n/a	n/a
1127.61	n/a	PROB	563805	n/a	LTP283	ltpFR	8	n/a	n/a	n/a	n/a	n/a	n/a	n/a	11	4	3	4	n/a	n/a	n/a	n/a	n/a
1129.736	n/a	PROB	564868	n/a	LTP283	ltpFR	8	n/a	n/a	n/a	n/a	n/a	n/a	n/a	24	9	9	6	n/a	n/a	n/a	n/a	n/a
1132.882	n/a	PROB	566441	n/a	LTP283	ltpFR	8	n/a	n/a	n/a	n/a	n/a	n/a	n/a	12	7	3	2	n/a	n/a	n/a	n/a	n/a
1138.678	n/a	STOP	569339	n/a	LTP283	ltpFR	8	n/a	n/a	n/a	n/a	n/a	n/a	n/a	n/a	n/a	n/a	n/a	n/a	n/a	n/a	n/a	n/a
1139.54	n/a	WORD	569770	wordpools/wasnorm_wordpool_less_exclusions.txt	LTP283	ltpFR	8	3	1	SHARK	1275	n/a	n/a	1	n/a	0	0	0	0.422607421875	0.5869140625	0	upper	amplitud.ttf
1142.552	n/a	START	571276	n/a	LTP283	ltpFR	8	n/a	n/a	n/a	n/a	n/a	n/a	n/a	n/a	n/a	n/a	n/a	n/a	n/a	n/a	n/a	n/a
1143.404	n/a	PROB	571702	n/a	LTP283	ltpFR	8	n/a	n/a	n/a	n/a	n/a	n/a	n/a	21	7	5	9	n/a	n/a	n/a	n/a	n/a
1146.718	n/a	PROB	573359	n/a	LTP283	ltpFR	8	n/a	n/a	n/a	n/a	n/a	n/a	n/a	14	5	1	8	n/a	n/a	n/a	n/a	n/a
1148.424	n/a	PROB	574212	n/a	LTP283	ltpFR	8	n/a	n/a	n/a	n/a	n/a	n/a	n/a	14	6	4	4	n/a	n/a	n/a	n/a	n/a
1150.128	n/a	PROB	575064	n/a	LTP283	ltpFR	8	n/a	n/a	n/a	n/a	n/a	n/a	n/a	12	5	6	1	n/a	n/a	n/a	n/a	n/a
1151.502	n/a	PROB	575751	n/a	LTP283	ltpFR	8	n/a	n/a	n/a	n/a	n/a	n/a	n/a	14	5	1	8	n/a	n/a	n/a	n/a	n/a
1153.158	n/a	PROB	576579	n/a	LTP283	ltpFR	8	n/a	n/a	n/a	n/a	n/a	n/a	n/a	4	4	2	2	n/a	n/a	n/a	n/a	n/a
1154.716	n/a	PROB	577358	n/a	LTP283	ltpFR	8	n/a	n/a	n/a	n/a	n/a	n/a	n/a	11	3	7	1	n/a	n/a	n/a	n/a	n/a
1158.552	n/a	STOP	579276	n/a	LTP283	ltpFR	8	n/a	n/a	n/a	n/a	n/a	n/a	n/a	n/a	n/a	n/a	n/a	n/a	n/a	n/a	n/a	n/a
1160.454	n/a	REC_START	580227	n/a	LTP283	ltpFR	8	3	n/a	n/a	n/a	n/a	n/a	n/a	n/a	0	0	0	n/a	n/a	n/a	n/a	n/a
1163.138	n/a	REC_WORD	581569	wordpools/wasnorm_wordpool_less_exclusions.txt	LTP283	ltpFR	8	3	1	SHARK	1275	n/a	n/a	1	n/a	0	0	0	n/a	n/a	n/a	n/a	n/a
1164.086	n/a	REC_WORD	582043	wordpools/wasnorm_wordpool_less_exclusions.txt	LTP283	ltpFR	8	3	1	SHRIMP	1297	n/a	n/a	1	n/a	0	0	0	n/a	n/a	n/a	n/a	n/a
1165.184	n/a	REC_WORD	582592	wordpools/wasnorm_wordpool_less_exclusions.txt	LTP283	ltpFR	8	3	1	SEAFOOD	1260	n/a	n/a	0	n/a	0	0	0	n/a	n/a	n/a	n/a	n/a
1168.296	n/a	REC_WORD	584148	wordpools/wasnorm_wordpool_less_exclusions.txt	LTP283	ltpFR	8	3	1	LION	827	n/a	n/a	1	n/a	0	0	0	n/a	n/a	n/a	n/a	n/a
1169.814	n/a	REC_WORD	584907	wordpools/wasnorm_wordpool_less_exclusions.txt	LTP283	ltpFR	8	3	1	CUB	419	n/a	n/a	1	n/a	0	0	0	n/a	n/a	n/a	n/a	n/a
1177.736	n/a	REC_WORD_VV	588868	wordpools/wasnorm_wordpool_less_exclusions.txt	LTP283	ltpFR	8	3	n/a	<>	-1	n/a	n/a	n/a	n/a	0	0	0	n/a	n/a	n/a	n/a	n/a
1178.466	n/a	REC_WORD	589233	wordpools/wasnorm_wordpool_less_exclusions.txt	LTP283	ltpFR	8	3	1	SCREEN	1253	n/a	n/a	0	n/a	0	0	0	n/a	n/a	n/a	n/a	n/a
1194.036	n/a	REC_WORD	597018	wordpools/wasnorm_wordpool_less_exclusions.txt	LTP283	ltpFR	8	3	1	OPERATOR	979	n/a	n/a	1	n/a	0	0	0	n/a	n/a	n/a	n/a	n/a
1198.49	n/a	REC_WORD	599245	wordpools/wasnorm_wordpool_less_exclusions.txt	LTP283	ltpFR	8	3	1	FACTORY	548	n/a	n/a	0	n/a	0	0	0	n/a	n/a	n/a	n/a	n/a
1200.458	n/a	REC_WORD	600229	wordpools/wasnorm_wordpool_less_exclusions.txt	LTP283	ltpFR	8	3	1	POT	1114	n/a	n/a	0	n/a	0	0	0	n/a	n/a	n/a	n/a	n/a
1202.624	n/a	REC_WORD	601312	wordpools/wasnorm_wordpool_less_exclusions.txt	LTP283	ltpFR	8	3	1	SNORKEL	1336	n/a	n/a	0	n/a	0	0	0	n/a	n/a	n/a	n/a	n/a
1204.582	n/a	REC_WORD	602291	wordpools/wasnorm_wordpool_less_exclusions.txt	LTP283	ltpFR	8	3	1	HOSE	720	n/a	n/a	0	n/a	0	0	0	n/a	n/a	n/a	n/a	n/a
1240.61	n/a	START	620305	n/a	LTP283	ltpFR	8	n/a	n/a	n/a	n/a	n/a	n/a	n/a	n/a	n/a	n/a	n/a	n/a	n/a	n/a	n/a	n/a
1242.116	n/a	PROB	621058	n/a	LTP283	ltpFR	8	n/a	n/a	n/a	n/a	n/a	n/a	n/a	19	8	4	7	n/a	n/a	n/a	n/a	n/a
1244.81	n/a	PROB	622405	n/a	LTP283	ltpFR	8	n/a	n/a	n/a	n/a	n/a	n/a	n/a	21	7	7	7	n/a	n/a	n/a	n/a	n/a
1246.046	n/a	PROB	623023	n/a	LTP283	ltpFR	8	n/a	n/a	n/a	n/a	n/a	n/a	n/a	17	5	4	8	n/a	n/a	n/a	n/a	n/a
1248.032	n/a	STOP	624016	n/a	LTP283	ltpFR	8	n/a	n/a	n/a	n/a	n/a	n/a	n/a	n/a	n/a	n/a	n/a	n/a	n/a	n/a	n/a	n/a
1249.592	n/a	WORD	624796	wordpools/wasnorm_wordpool_less_exclusions.txt	LTP283	ltpFR	8	4	1	LAWN	805	n/a	n/a	1	n/a	0	0	0	0.422607421875	0.5869140625	0	upper	amplitud.ttf
1252.606	n/a	START	626303	n/a	LTP283	ltpFR	8	n/a	n/a	n/a	n/a	n/a	n/a	n/a	n/a	n/a	n/a	n/a	n/a	n/a	n/a	n/a	n/a
1253.492	n/a	PROB	626746	n/a	LTP283	ltpFR	8	n/a	n/a	n/a	n/a	n/a	n/a	n/a	17	3	5	9	n/a	n/a	n/a	n/a	n/a
1255.5	n/a	PROB	627750	n/a	LTP283	ltpFR	8	n/a	n/a	n/a	n/a	n/a	n/a	n/a	16	7	7	2	n/a	n/a	n/a	n/a	n/a
1257.14	n/a	PROB	628570	n/a	LTP283	ltpFR	8	n/a	n/a	n/a	n/a	n/a	n/a	n/a	11	4	4	3	n/a	n/a	n/a	n/a	n/a
1259.09	n/a	STOP	629545	n/a	LTP283	ltpFR	8	n/a	n/a	n/a	n/a	n/a	n/a	n/a	n/a	n/a	n/a	n/a	n/a	n/a	n/a	n/a	n/a
1261.742	n/a	WORD	630871	wordpools/wasnorm_wordpool_less_exclusions.txt	LTP283	ltpFR	8	4	1	HERD	705	n/a	n/a	1	n/a	0	0	0	0.422607421875	0.5869140625	0	upper	amplitud.ttf
1264.754	n/a	START	632377	n/a	LTP283	ltpFR	8	n/a	n/a	n/a	n/a	n/a	n/a	n/a	n/a	n/a	n/a	n/a	n/a	n/a	n/a	n/a	n/a
1265.656	n/a	PROB	632828	n/a	LTP283	ltpFR	8	n/a	n/a	n/a	n/a	n/a	n/a	n/a	15	4	5	6	n/a	n/a	n/a	n/a	n/a
1267.63	n/a	PROB	633815	n/a	LTP283	ltpFR	8	n/a	n/a	n/a	n/a	n/a	n/a	n/a	6	4	1	1	n/a	n/a	n/a	n/a	n/a
1269.052	n/a	PROB	634526	n/a	LTP283	ltpFR	8	n/a	n/a	n/a	n/a	n/a	n/a	n/a	16	4	7	5	n/a	n/a	n/a	n/a	n/a
1272.026	n/a	STOP	636013	n/a	LTP283	ltpFR	8	n/a	n/a	n/a	n/a	n/a	n/a	n/a	n/a	n/a	n/a	n/a	n/a	n/a	n/a	n/a	n/a
1273.922	n/a	WORD	636961	wordpools/wasnorm_wordpool_less_exclusions.txt	LTP283	ltpFR	8	4	1	WINGS	1614	n/a	n/a	0	n/a	0	0	0	0.422607421875	0.5869140625	0	upper	amplitud.ttf
1276.934	n/a	START	638467	n/a	LTP283	ltpFR	8	n/a	n/a	n/a	n/a	n/a	n/a	n/a	n/a	n/a	n/a	n/a	n/a	n/a	n/a	n/a	n/a
1278.054	n/a	PROB	639027	n/a	LTP283	ltpFR	8	n/a	n/a	n/a	n/a	n/a	n/a	n/a	15	1	9	5	n/a	n/a	n/a	n/a	n/a
1279.338	n/a	PROB	639669	n/a	LTP283	ltpFR	8	n/a	n/a	n/a	n/a	n/a	n/a	n/a	22	7	6	9	n/a	n/a	n/a	n/a	n/a
1281.282	n/a	PROB	640641	n/a	LTP283	ltpFR	8	n/a	n/a	n/a	n/a	n/a	n/a	n/a	17	8	3	6	n/a	n/a	n/a	n/a	n/a
1284.858	n/a	STOP	642429	n/a	LTP283	ltpFR	8	n/a	n/a	n/a	n/a	n/a	n/a	n/a	n/a	n/a	n/a	n/a	n/a	n/a	n/a	n/a	n/a
1285.95	n/a	WORD	642975	wordpools/wasnorm_wordpool_less_exclusions.txt	LTP283	ltpFR	8	4	1	BRIDE	173	n/a	n/a	1	n/a	0	0	0	0.422607421875	0.5869140625	0	upper	amplitud.ttf
1288.964	n/a	START	644482	n/a	LTP283	ltpFR	8	n/a	n/a	n/a	n/a	n/a	n/a	n/a	n/a	n/a	n/a	n/a	n/a	n/a	n/a	n/a	n/a
1289.782	n/a	PROB	644891	n/a	LTP283	ltpFR	8	n/a	n/a	n/a	n/a	n/a	n/a	n/a	19	7	9	3	n/a	n/a	n/a	n/a	n/a
1291.386	n/a	PROB	645693	n/a	LTP283	ltpFR	8	n/a	n/a	n/a	n/a	n/a	n/a	n/a	15	6	4	5	n/a	n/a	n/a	n/a	n/a
1292.64	n/a	PROB	646320	n/a	LTP283	ltpFR	8	n/a	n/a	n/a	n/a	n/a	n/a	n/a	13	4	3	6	n/a	n/a	n/a	n/a	n/a
1294.048	n/a	PROB	647024	n/a	LTP283	ltpFR	8	n/a	n/a	n/a	n/a	n/a	n/a	n/a	14	4	6	4	n/a	n/a	n/a	n/a	n/a
1295.506	n/a	STOP	647753	n/a	LTP283	ltpFR	8	n/a	n/a	n/a	n/a	n/a	n/a	n/a	n/a	n/a	n/a	n/a	n/a	n/a	n/a	n/a	n/a
1298.13	n/a	WORD	649065	wordpools/wasnorm_wordpool_less_exclusions.txt	LTP283	ltpFR	8	4	1	KNOB	787	n/a	n/a	0	n/a	0	0	0	0.422607421875	0.5869140625	0	upper	amplitud.ttf
1301.142	n/a	START	650571	n/a	LTP283	ltpFR	8	n/a	n/a	n/a	n/a	n/a	n/a	n/a	n/a	n/a	n/a	n/a	n/a	n/a	n/a	n/a	n/a
1302.078	n/a	PROB	651039	n/a	LTP283	ltpFR	8	n/a	n/a	n/a	n/a	n/a	n/a	n/a	20	4	7	9	n/a	n/a	n/a	n/a	n/a
1304.99	n/a	PROB	652495	n/a	LTP283	ltpFR	8	n/a	n/a	n/a	n/a	n/a	n/a	n/a	10	1	8	1	n/a	n/a	n/a	n/a	n/a
1306.78	n/a	PROB	653390	n/a	LTP283	ltpFR	8	n/a	n/a	n/a	n/a	n/a	n/a	n/a	10	6	1	3	n/a	n/a	n/a	n/a	n/a
1308.796	n/a	STOP	654398	n/a	LTP283	ltpFR	8	n/a	n/a	n/a	n/a	n/a	n/a	n/a	n/a	n/a	n/a	n/a	n/a	n/a	n/a	n/a	n/a
1310.176	n/a	WORD	655088	wordpools/wasnorm_wordpool_less_exclusions.txt	LTP283	ltpFR	8	4	1	BARN	89	n/a	n/a	0	n/a	0	0	0	0.422607421875	0.5869140625	0	upper	amplitud.ttf
1313.188	n/a	START	656594	n/a	LTP283	ltpFR	8	n/a	n/a	n/a	n/a	n/a	n/a	n/a	n/a	n/a	n/a	n/a	n/a	n/a	n/a	n/a	n/a
1314.058	n/a	PROB	657029	n/a	LTP283	ltpFR	8	n/a	n/a	n/a	n/a	n/a	n/a	n/a	13	1	6	6	n/a	n/a	n/a	n/a	n/a
1315.746	n/a	PROB	657873	n/a	LTP283	ltpFR	8	n/a	n/a	n/a	n/a	n/a	n/a	n/a	13	4	4	5	n/a	n/a	n/a	n/a	n/a
1317.568	n/a	PROB	658784	n/a	LTP283	ltpFR	8	n/a	n/a	n/a	n/a	n/a	n/a	n/a	13	8	4	1	n/a	n/a	n/a	n/a	n/a
1321.188	n/a	STOP	660594	n/a	LTP283	ltpFR	8	n/a	n/a	n/a	n/a	n/a	n/a	n/a	n/a	n/a	n/a	n/a	n/a	n/a	n/a	n/a	n/a
1322.304	n/a	WORD	661152	wordpools/wasnorm_wordpool_less_exclusions.txt	LTP283	ltpFR	8	4	1	COW	393	n/a	n/a	1	n/a	0	0	0	0.422607421875	0.5869140625	0	upper	amplitud.ttf
1325.316	n/a	START	662658	n/a	LTP283	ltpFR	8	n/a	n/a	n/a	n/a	n/a	n/a	n/a	n/a	n/a	n/a	n/a	n/a	n/a	n/a	n/a	n/a
1326.154	n/a	PROB	663077	n/a	LTP283	ltpFR	8	n/a	n/a	n/a	n/a	n/a	n/a	n/a	15	2	4	9	n/a	n/a	n/a	n/a	n/a
1328.26	n/a	PROB	664130	n/a	LTP283	ltpFR	8	n/a	n/a	n/a	n/a	n/a	n/a	n/a	22	9	7	6	n/a	n/a	n/a	n/a	n/a
1330.436	n/a	PROB	665218	n/a	LTP283	ltpFR	8	n/a	n/a	n/a	n/a	n/a	n/a	n/a	20	5	8	7	n/a	n/a	n/a	n/a	n/a
1332.078	n/a	STOP	666039	n/a	LTP283	ltpFR	8	n/a	n/a	n/a	n/a	n/a	n/a	n/a	n/a	n/a	n/a	n/a	n/a	n/a	n/a	n/a	n/a
1334.268	n/a	WORD	667134	wordpools/wasnorm_wordpool_less_exclusions.txt	LTP283	ltpFR	8	4	1	LIMB	822	n/a	n/a	0	n/a	0	0	0	0.422607421875	0.5869140625	0	upper	amplitud.ttf
1337.28	n/a	START	668640	n/a	LTP283	ltpFR	8	n/a	n/a	n/a	n/a	n/a	n/a	n/a	n/a	n/a	n/a	n/a	n/a	n/a	n/a	n/a	n/a
1338.416	n/a	PROB	669208	n/a	LTP283	ltpFR	8	n/a	n/a	n/a	n/a	n/a	n/a	n/a	14	3	8	3	n/a	n/a	n/a	n/a	n/a
1340.156	n/a	PROB	670078	n/a	LTP283	ltpFR	8	n/a	n/a	n/a	n/a	n/a	n/a	n/a	5	3	1	1	n/a	n/a	n/a	n/a	n/a
1341.492	n/a	PROB	670746	n/a	LTP283	ltpFR	8	n/a	n/a	n/a	n/a	n/a	n/a	n/a	15	2	5	8	n/a	n/a	n/a	n/a	n/a
1343.182	n/a	PROB	671591	n/a	LTP283	ltpFR	8	n/a	n/a	n/a	n/a	n/a	n/a	n/a	12	6	5	1	n/a	n/a	n/a	n/a	n/a
1344.838	n/a	STOP	672419	n/a	LTP283	ltpFR	8	n/a	n/a	n/a	n/a	n/a	n/a	n/a	n/a	n/a	n/a	n/a	n/a	n/a	n/a	n/a	n/a
1346.496	n/a	WORD	673248	wordpools/wasnorm_wordpool_less_exclusions.txt	LTP283	ltpFR	8	4	1	WRIST	1626	n/a	n/a	0	n/a	0	0	0	0.422607421875	0.5869140625	0	upper	amplitud.ttf
1349.51	n/a	START	674755	n/a	LTP283	ltpFR	8	n/a	n/a	n/a	n/a	n/a	n/a	n/a	n/a	n/a	n/a	n/a	n/a	n/a	n/a	n/a	n/a
1350.614	n/a	PROB	675307	n/a	LTP283	ltpFR	8	n/a	n/a	n/a	n/a	n/a	n/a	n/a	13	6	3	4	n/a	n/a	n/a	n/a	n/a
1352.07	n/a	PROB	676035	n/a	LTP283	ltpFR	8	n/a	n/a	n/a	n/a	n/a	n/a	n/a	17	9	2	6	n/a	n/a	n/a	n/a	n/a
1354.26	n/a	PROB	677130	n/a	LTP283	ltpFR	8	n/a	n/a	n/a	n/a	n/a	n/a	n/a	8	3	2	4	n/a	n/a	n/a	n/a	n/a
1356.702	n/a	STOP	678351	n/a	LTP283	ltpFR	8	n/a	n/a	n/a	n/a	n/a	n/a	n/a	n/a	n/a	n/a	n/a	n/a	n/a	n/a	n/a	n/a
1358.41	n/a	WORD	679205	wordpools/wasnorm_wordpool_less_exclusions.txt	LTP283	ltpFR	8	4	1	MOP	916	n/a	n/a	0	n/a	0	0	0	0.422607421875	0.5869140625	0	upper	amplitud.ttf
1361.422	n/a	START	680711	n/a	LTP283	ltpFR	8	n/a	n/a	n/a	n/a	n/a	n/a	n/a	n/a	n/a	n/a	n/a	n/a	n/a	n/a	n/a	n/a
1362.558	n/a	PROB	681279	n/a	LTP283	ltpFR	8	n/a	n/a	n/a	n/a	n/a	n/a	n/a	6	3	2	1	n/a	n/a	n/a	n/a	n/a
1364.114	n/a	PROB	682057	n/a	LTP283	ltpFR	8	n/a	n/a	n/a	n/a	n/a	n/a	n/a	21	8	4	9	n/a	n/a	n/a	n/a	n/a
1366.372	n/a	PROB	683186	n/a	LTP283	ltpFR	8	n/a	n/a	n/a	n/a	n/a	n/a	n/a	15	4	5	6	n/a	n/a	n/a	n/a	n/a
1367.66	n/a	PROB	683830	n/a	LTP283	ltpFR	8	n/a	n/a	n/a	n/a	n/a	n/a	n/a	9	4	3	1	n/a	n/a	n/a	n/a	n/a
1369.374	n/a	STOP	684687	n/a	LTP283	ltpFR	8	n/a	n/a	n/a	n/a	n/a	n/a	n/a	n/a	n/a	n/a	n/a	n/a	n/a	n/a	n/a	n/a
1370.388	n/a	WORD	685194	wordpools/wasnorm_wordpool_less_exclusions.txt	LTP283	ltpFR	8	4	1	BROOM	178	n/a	n/a	0	n/a	0	0	0	0.422607421875	0.5869140625	0	upper	amplitud.ttf
1373.4	n/a	START	686700	n/a	LTP283	ltpFR	8	n/a	n/a	n/a	n/a	n/a	n/a	n/a	n/a	n/a	n/a	n/a	n/a	n/a	n/a	n/a	n/a
1374.304	n/a	PROB	687152	n/a	LTP283	ltpFR	8	n/a	n/a	n/a	n/a	n/a	n/a	n/a	17	5	4	8	n/a	n/a	n/a	n/a	n/a
1376.328	n/a	PROB	688164	n/a	LTP283	ltpFR	8	n/a	n/a	n/a	n/a	n/a	n/a	n/a	10	6	3	1	n/a	n/a	n/a	n/a	n/a
1378.018	n/a	PROB	689009	n/a	LTP283	ltpFR	8	n/a	n/a	n/a	n/a	n/a	n/a	n/a	18	7	3	8	n/a	n/a	n/a	n/a	n/a
1381.39	n/a	STOP	690695	n/a	LTP283	ltpFR	8	n/a	n/a	n/a	n/a	n/a	n/a	n/a	n/a	n/a	n/a	n/a	n/a	n/a	n/a	n/a	n/a
1382.62	n/a	WORD	691310	wordpools/wasnorm_wordpool_less_exclusions.txt	LTP283	ltpFR	8	4	1	KITE	779	n/a	n/a	0	n/a	0	0	0	0.422607421875	0.5869140625	0	upper	amplitud.ttf
1385.632	n/a	START	692816	n/a	LTP283	ltpFR	8	n/a	n/a	n/a	n/a	n/a	n/a	n/a	n/a	n/a	n/a	n/a	n/a	n/a	n/a	n/a	n/a
1386.836	n/a	PROB	693418	n/a	LTP283	ltpFR	8	n/a	n/a	n/a	n/a	n/a	n/a	n/a	8	5	1	2	n/a	n/a	n/a	n/a	n/a
1388.124	n/a	PROB	694062	n/a	LTP283	ltpFR	8	n/a	n/a	n/a	n/a	n/a	n/a	n/a	19	5	6	8	n/a	n/a	n/a	n/a	n/a
1391.602	n/a	PROB	695801	n/a	LTP283	ltpFR	8	n/a	n/a	n/a	n/a	n/a	n/a	n/a	16	8	2	6	n/a	n/a	n/a	n/a	n/a
1393.36	n/a	STOP	696680	n/a	LTP283	ltpFR	8	n/a	n/a	n/a	n/a	n/a	n/a	n/a	n/a	n/a	n/a	n/a	n/a	n/a	n/a	n/a	n/a
1394.512	n/a	WORD	697256	wordpools/wasnorm_wordpool_less_exclusions.txt	LTP283	ltpFR	8	4	1	SCENERY	1247	n/a	n/a	0	n/a	0	0	0	0.422607421875	0.5869140625	0	upper	amplitud.ttf
1397.526	n/a	START	698763	n/a	LTP283	ltpFR	8	n/a	n/a	n/a	n/a	n/a	n/a	n/a	n/a	n/a	n/a	n/a	n/a	n/a	n/a	n/a	n/a
1398.614	n/a	PROB	699307	n/a	LTP283	ltpFR	8	n/a	n/a	n/a	n/a	n/a	n/a	n/a	17	8	2	7	n/a	n/a	n/a	n/a	n/a
1401.694	n/a	PROB	700847	n/a	LTP283	ltpFR	8	n/a	n/a	n/a	n/a	n/a	n/a	n/a	20	4	7	9	n/a	n/a	n/a	n/a	n/a
1403.146	n/a	PROB	701573	n/a	LTP283	ltpFR	8	n/a	n/a	n/a	n/a	n/a	n/a	n/a	9	2	1	6	n/a	n/a	n/a	n/a	n/a
1404.336	n/a	STOP	702168	n/a	LTP283	ltpFR	8	n/a	n/a	n/a	n/a	n/a	n/a	n/a	n/a	n/a	n/a	n/a	n/a	n/a	n/a	n/a	n/a
1406.476	n/a	WORD	703238	wordpools/wasnorm_wordpool_less_exclusions.txt	LTP283	ltpFR	8	4	1	GRASS	655	n/a	n/a	1	n/a	0	0	0	0.422607421875	0.5869140625	0	upper	amplitud.ttf
1409.49	n/a	START	704745	n/a	LTP283	ltpFR	8	n/a	n/a	n/a	n/a	n/a	n/a	n/a	n/a	n/a	n/a	n/a	n/a	n/a	n/a	n/a	n/a
1410.626	n/a	PROB	705313	n/a	LTP283	ltpFR	8	n/a	n/a	n/a	n/a	n/a	n/a	n/a	9	3	4	2	n/a	n/a	n/a	n/a	n/a
1412.464	n/a	PROB	706232	n/a	LTP283	ltpFR	8	n/a	n/a	n/a	n/a	n/a	n/a	n/a	17	3	7	7	n/a	n/a	n/a	n/a	n/a
1414.22	n/a	PROB	707110	n/a	LTP283	ltpFR	8	n/a	n/a	n/a	n/a	n/a	n/a	n/a	18	9	6	3	n/a	n/a	n/a	n/a	n/a
1416.09	n/a	STOP	708045	n/a	LTP283	ltpFR	8	n/a	n/a	n/a	n/a	n/a	n/a	n/a	n/a	n/a	n/a	n/a	n/a	n/a	n/a	n/a	n/a
1418.338	n/a	WORD	709169	wordpools/wasnorm_wordpool_less_exclusions.txt	LTP283	ltpFR	8	4	1	ZUCCHINI	1638	n/a	n/a	1	n/a	0	0	0	0.422607421875	0.5869140625	0	upper	amplitud.ttf
1421.352	n/a	START	710676	n/a	LTP283	ltpFR	8	n/a	n/a	n/a	n/a	n/a	n/a	n/a	n/a	n/a	n/a	n/a	n/a	n/a	n/a	n/a	n/a
1422.254	n/a	PROB	711127	n/a	LTP283	ltpFR	8	n/a	n/a	n/a	n/a	n/a	n/a	n/a	19	8	4	7	n/a	n/a	n/a	n/a	n/a
1424.662	n/a	PROB	712331	n/a	LTP283	ltpFR	8	n/a	n/a	n/a	n/a	n/a	n/a	n/a	17	6	2	9	n/a	n/a	n/a	n/a	n/a
1426.62	n/a	PROB	713310	n/a	LTP283	ltpFR	8	n/a	n/a	n/a	n/a	n/a	n/a	n/a	14	8	1	5	n/a	n/a	n/a	n/a	n/a
1428.17	n/a	STOP	714085	n/a	LTP283	ltpFR	8	n/a	n/a	n/a	n/a	n/a	n/a	n/a	n/a	n/a	n/a	n/a	n/a	n/a	n/a	n/a	n/a
1430.418	n/a	WORD	715209	wordpools/wasnorm_wordpool_less_exclusions.txt	LTP283	ltpFR	8	4	1	BUREAU	199	n/a	n/a	0	n/a	0	0	0	0.422607421875	0.5869140625	0	upper	amplitud.ttf
1433.43	n/a	START	716715	n/a	LTP283	ltpFR	8	n/a	n/a	n/a	n/a	n/a	n/a	n/a	n/a	n/a	n/a	n/a	n/a	n/a	n/a	n/a	n/a
1434.55	n/a	PROB	717275	n/a	LTP283	ltpFR	8	n/a	n/a	n/a	n/a	n/a	n/a	n/a	4	1	2	1	n/a	n/a	n/a	n/a	n/a
1435.922	n/a	PROB	717961	n/a	LTP283	ltpFR	8	n/a	n/a	n/a	n/a	n/a	n/a	n/a	12	4	1	7	n/a	n/a	n/a	n/a	n/a
1437.326	n/a	PROB	718663	n/a	LTP283	ltpFR	8	n/a	n/a	n/a	n/a	n/a	n/a	n/a	12	8	2	2	n/a	n/a	n/a	n/a	n/a
1438.496	n/a	PROB	719248	n/a	LTP283	ltpFR	8	n/a	n/a	n/a	n/a	n/a	n/a	n/a	13	3	5	5	n/a	n/a	n/a	n/a	n/a
1439.844	n/a	STOP	719922	n/a	LTP283	ltpFR	8	n/a	n/a	n/a	n/a	n/a	n/a	n/a	n/a	n/a	n/a	n/a	n/a	n/a	n/a	n/a	n/a
1443.202	n/a	REC_START	721601	n/a	LTP283	ltpFR	8	4	n/a	n/a	n/a	n/a	n/a	n/a	n/a	0	0	0	n/a	n/a	n/a	n/a	n/a
1446.514	n/a	REC_WORD	723257	wordpools/wasnorm_wordpool_less_exclusions.txt	LTP283	ltpFR	8	4	1	BUREAU	199	n/a	n/a	0	n/a	0	0	0	n/a	n/a	n/a	n/a	n/a
1448.554	n/a	REC_WORD	724277	wordpools/wasnorm_wordpool_less_exclusions.txt	LTP283	ltpFR	8	4	1	KNOB	787	n/a	n/a	0	n/a	0	0	0	n/a	n/a	n/a	n/a	n/a
1449.52	n/a	REC_WORD	724760	wordpools/wasnorm_wordpool_less_exclusions.txt	LTP283	ltpFR	8	4	1	SCENERY	1247	n/a	n/a	0	n/a	0	0	0	n/a	n/a	n/a	n/a	n/a
1450.89	n/a	REC_WORD	725445	wordpools/wasnorm_wordpool_less_exclusions.txt	LTP283	ltpFR	8	4	1	GRASS	655	n/a	n/a	1	n/a	0	0	0	n/a	n/a	n/a	n/a	n/a
1453.0	n/a	REC_WORD	726500	wordpools/wasnorm_wordpool_less_exclusions.txt	LTP283	ltpFR	8	4	1	LAWN	805	n/a	n/a	1	n/a	0	0	0	n/a	n/a	n/a	n/a	n/a
1458.088	n/a	REC_WORD	729044	wordpools/wasnorm_wordpool_less_exclusions.txt	LTP283	ltpFR	8	4	1	BRIDE	173	n/a	n/a	1	n/a	0	0	0	n/a	n/a	n/a	n/a	n/a
1459.286	n/a	REC_WORD	729643	wordpools/wasnorm_wordpool_less_exclusions.txt	LTP283	ltpFR	8	4	1	ZUCCHINI	1638	n/a	n/a	1	n/a	0	0	0	n/a	n/a	n/a	n/a	n/a
1462.938	n/a	REC_WORD	731469	wordpools/wasnorm_wordpool_less_exclusions.txt	LTP283	ltpFR	8	4	1	BARN	89	n/a	n/a	0	n/a	0	0	0	n/a	n/a	n/a	n/a	n/a
1468.346	n/a	REC_WORD_VV	734173	wordpools/wasnorm_wordpool_less_exclusions.txt	LTP283	ltpFR	8	4	n/a	<>	-1	n/a	n/a	n/a	n/a	0	0	0	n/a	n/a	n/a	n/a	n/a
1469.346	n/a	REC_WORD_VV	734673	wordpools/wasnorm_wordpool_less_exclusions.txt	LTP283	ltpFR	8	4	n/a	<>	-1	n/a	n/a	n/a	n/a	0	0	0	n/a	n/a	n/a	n/a	n/a
1473.49	n/a	REC_WORD	736745	wordpools/wasnorm_wordpool_less_exclusions.txt	LTP283	ltpFR	8	4	1	BROOM	178	n/a	n/a	0	n/a	0	0	0	n/a	n/a	n/a	n/a	n/a
1474.61	n/a	REC_WORD	737305	wordpools/wasnorm_wordpool_less_exclusions.txt	LTP283	ltpFR	8	4	1	MOP	916	n/a	n/a	0	n/a	0	0	0	n/a	n/a	n/a	n/a	n/a
1484.104	n/a	REC_WORD	742052	wordpools/wasnorm_wordpool_less_exclusions.txt	LTP283	ltpFR	8	4	1	COW	393	n/a	n/a	1	n/a	0	0	0	n/a	n/a	n/a	n/a	n/a
1500.12	n/a	REC_WORD	750060	wordpools/wasnorm_wordpool_less_exclusions.txt	LTP283	ltpFR	8	4	1	WINGS	1614	n/a	n/a	0	n/a	0	0	0	n/a	n/a	n/a	n/a	n/a
1501.57	n/a	REC_WORD	750785	wordpools/wasnorm_wordpool_less_exclusions.txt	LTP283	ltpFR	8	4	1	HERD	705	n/a	n/a	1	n/a	0	0	0	n/a	n/a	n/a	n/a	n/a
1522.286	n/a	WORD	761143	wordpools/wasnorm_wordpool_less_exclusions.txt	LTP283	ltpFR	8	5	1	POSTAGE	1113	n/a	n/a	n/a	n/a	0	0	0	0.422607421875	0.5869140625	0	upper	amplitud.ttf
1525.33	n/a	SLOW_MSG	762665	n/a	LTP283	ltpFR	8	5	n/a	n/a	n/a	n/a	n/a	n/a	n/a	0	0	0	n/a	n/a	n/a	n/a	n/a
1528.026	n/a	WORD	764013	wordpools/wasnorm_wordpool_less_exclusions.txt	LTP283	ltpFR	8	5	1	DRIVER	499	n/a	n/a	1	n/a	0	0	0	0.422607421875	0.5869140625	0	upper	amplitud.ttf
1532.206	n/a	WORD	766103	wordpools/wasnorm_wordpool_less_exclusions.txt	LTP283	ltpFR	8	5	1	TRICYCLE	1506	n/a	n/a	0	n/a	0	0	0	0.422607421875	0.5869140625	0	upper	amplitud.ttf
1536.206	n/a	WORD	768103	wordpools/wasnorm_wordpool_less_exclusions.txt	LTP283	ltpFR	8	5	0	ROCK	1201	n/a	n/a	0	n/a	0	0	0	0.57763671875	0.412841796875	1	lower	zerothre.ttf
1540.356	n/a	WORD	770178	wordpools/wasnorm_wordpool_less_exclusions.txt	LTP283	ltpFR	8	5	0	QUARTER	1148	n/a	n/a	0	n/a	0	0	0	0.57763671875	0.412841796875	1	lower	zerothre.ttf
1544.52	n/a	WORD	772260	wordpools/wasnorm_wordpool_less_exclusions.txt	LTP283	ltpFR	8	5	0	DRESS	495	n/a	n/a	1	n/a	0	0	0	0.57763671875	0.412841796875	1	lower	zerothre.ttf
1548.502	n/a	WORD	774251	wordpools/wasnorm_wordpool_less_exclusions.txt	LTP283	ltpFR	8	5	0	DESIGNER	451	n/a	n/a	1	n/a	0	0	0	0.57763671875	0.412841796875	1	lower	zerothre.ttf
1552.334	n/a	WORD	776167	wordpools/wasnorm_wordpool_less_exclusions.txt	LTP283	ltpFR	8	5	1	CREEK	404	n/a	n/a	0	n/a	0	0	0	0.422607421875	0.5869140625	0	upper	amplitud.ttf
1556.2	n/a	WORD	778100	wordpools/wasnorm_wordpool_less_exclusions.txt	LTP283	ltpFR	8	5	1	CHARCOAL	281	n/a	n/a	0	n/a	0	0	0	0.422607421875	0.5869140625	0	upper	amplitud.ttf
1560.164	n/a	WORD	780082	wordpools/wasnorm_wordpool_less_exclusions.txt	LTP283	ltpFR	8	5	1	MESSAGE	888	n/a	n/a	0	n/a	0	0	0	0.422607421875	0.5869140625	0	upper	amplitud.ttf
1564.328	n/a	WORD	782164	wordpools/wasnorm_wordpool_less_exclusions.txt	LTP283	ltpFR	8	5	0	COUGAR	387	n/a	n/a	1	n/a	0	0	0	0.57763671875	0.412841796875	1	lower	zerothre.ttf
1568.462	n/a	WORD	784231	wordpools/wasnorm_wordpool_less_exclusions.txt	LTP283	ltpFR	8	5	0	STREAM	1392	n/a	n/a	1	n/a	0	0	0	0.57763671875	0.412841796875	1	lower	zerothre.ttf
1572.428	n/a	WORD	786214	wordpools/wasnorm_wordpool_less_exclusions.txt	LTP283	ltpFR	8	5	0	RECIPE	1175	n/a	n/a	0	n/a	0	0	0	0.57763671875	0.412841796875	1	lower	zerothre.ttf
1576.26	n/a	WORD	788130	wordpools/wasnorm_wordpool_less_exclusions.txt	LTP283	ltpFR	8	5	0	PEARL	1034	n/a	n/a	0	n/a	0	0	0	0.57763671875	0.412841796875	1	lower	zerothre.ttf
1580.158	n/a	WORD	790079	wordpools/wasnorm_wordpool_less_exclusions.txt	LTP283	ltpFR	8	5	1	QUAIL	1147	n/a	n/a	1	n/a	0	0	0	0.422607421875	0.5869140625	0	upper	amplitud.ttf
1584.006	n/a	WORD	792003	wordpools/wasnorm_wordpool_less_exclusions.txt	LTP283	ltpFR	8	5	1	HAWK	692	n/a	n/a	1	n/a	0	0	0	0.422607421875	0.5869140625	0	upper	amplitud.ttf
1587.018	n/a	START	793509	n/a	LTP283	ltpFR	8	n/a	n/a	n/a	n/a	n/a	n/a	n/a	n/a	n/a	n/a	n/a	n/a	n/a	n/a	n/a	n/a
1588.054	n/a	PROB	794027	n/a	LTP283	ltpFR	8	n/a	n/a	n/a	n/a	n/a	n/a	n/a	18	7	6	5	n/a	n/a	n/a	n/a	n/a
1590.914	n/a	PROB	795457	n/a	LTP283	ltpFR	8	n/a	n/a	n/a	n/a	n/a	n/a	n/a	18	5	7	6	n/a	n/a	n/a	n/a	n/a
1592.656	n/a	PROB	796328	n/a	LTP283	ltpFR	8	n/a	n/a	n/a	n/a	n/a	n/a	n/a	11	1	4	6	n/a	n/a	n/a	n/a	n/a
1593.978	n/a	PROB	796989	n/a	LTP283	ltpFR	8	n/a	n/a	n/a	n/a	n/a	n/a	n/a	14	3	8	3	n/a	n/a	n/a	n/a	n/a
1595.752	n/a	PROB	797876	n/a	LTP283	ltpFR	8	n/a	n/a	n/a	n/a	n/a	n/a	n/a	18	7	6	5	n/a	n/a	n/a	n/a	n/a
1597.724	n/a	PROB	798862	n/a	LTP283	ltpFR	8	n/a	n/a	n/a	n/a	n/a	n/a	n/a	19	7	9	3	n/a	n/a	n/a	n/a	n/a
1599.364	n/a	PROB	799682	n/a	LTP283	ltpFR	8	n/a	n/a	n/a	n/a	n/a	n/a	n/a	13	3	1	9	n/a	n/a	n/a	n/a	n/a
1603.018	n/a	STOP	801509	n/a	LTP283	ltpFR	8	n/a	n/a	n/a	n/a	n/a	n/a	n/a	n/a	n/a	n/a	n/a	n/a	n/a	n/a	n/a	n/a
1604.836	n/a	REC_START	802418	n/a	LTP283	ltpFR	8	5	n/a	n/a	n/a	n/a	n/a	n/a	n/a	0	0	0	n/a	n/a	n/a	n/a	n/a
1607.572	n/a	REC_WORD	803786	wordpools/wasnorm_wordpool_less_exclusions.txt	LTP283	ltpFR	8	5	1	TRICYCLE	1506	n/a	n/a	0	n/a	0	0	0	n/a	n/a	n/a	n/a	n/a
1608.83	n/a	REC_WORD	804415	wordpools/wasnorm_wordpool_less_exclusions.txt	LTP283	ltpFR	8	5	1	DRIVER	499	n/a	n/a	1	n/a	0	0	0	n/a	n/a	n/a	n/a	n/a
1611.834	n/a	REC_WORD	805917	wordpools/wasnorm_wordpool_less_exclusions.txt	LTP283	ltpFR	8	5	1	POSTAGE	1113	n/a	n/a	n/a	n/a	0	0	0	n/a	n/a	n/a	n/a	n/a
1613.272	n/a	REC_WORD	806636	wordpools/wasnorm_wordpool_less_exclusions.txt	LTP283	ltpFR	8	5	0	QUARTER	1148	n/a	n/a	0	n/a	0	0	0	n/a	n/a	n/a	n/a	n/a
1614.586	n/a	REC_WORD	807293	wordpools/wasnorm_wordpool_less_exclusions.txt	LTP283	ltpFR	8	5	1	MESSAGE	888	n/a	n/a	0	n/a	0	0	0	n/a	n/a	n/a	n/a	n/a
1616.988	n/a	REC_WORD	808494	wordpools/wasnorm_wordpool_less_exclusions.txt	LTP283	ltpFR	8	5	1	CREEK	404	n/a	n/a	0	n/a	0	0	0	n/a	n/a	n/a	n/a	n/a
1618.26	n/a	REC_WORD	809130	wordpools/wasnorm_wordpool_less_exclusions.txt	LTP283	ltpFR	8	5	0	STREAM	1392	n/a	n/a	1	n/a	0	0	0	n/a	n/a	n/a	n/a	n/a
1620.514	n/a	REC_WORD	810257	wordpools/wasnorm_wordpool_less_exclusions.txt	LTP283	ltpFR	8	5	0	RECIPE	1175	n/a	n/a	0	n/a	0	0	0	n/a	n/a	n/a	n/a	n/a
1624.768	n/a	REC_WORD	812384	wordpools/wasnorm_wordpool_less_exclusions.txt	LTP283	ltpFR	8	5	0	COUGAR	387	n/a	n/a	1	n/a	0	0	0	n/a	n/a	n/a	n/a	n/a
1626.62	n/a	REC_WORD	813310	wordpools/wasnorm_wordpool_less_exclusions.txt	LTP283	ltpFR	8	5	1	QUAIL	1147	n/a	n/a	1	n/a	0	0	0	n/a	n/a	n/a	n/a	n/a
1628.594	n/a	REC_WORD	814297	wordpools/wasnorm_wordpool_less_exclusions.txt	LTP283	ltpFR	8	5	1	HAWK	692	n/a	n/a	1	n/a	0	0	0	n/a	n/a	n/a	n/a	n/a
1632.222	n/a	REC_WORD	816111	wordpools/wasnorm_wordpool_less_exclusions.txt	LTP283	ltpFR	8	5	0	ROCK	1201	n/a	n/a	0	n/a	0	0	0	n/a	n/a	n/a	n/a	n/a
1633.776	n/a	REC_WORD	816888	wordpools/wasnorm_wordpool_less_exclusions.txt	LTP283	ltpFR	8	5	0	PEARL	1034	n/a	n/a	0	n/a	0	0	0	n/a	n/a	n/a	n/a	n/a
1636.01	n/a	REC_WORD	818005	wordpools/wasnorm_wordpool_less_exclusions.txt	LTP283	ltpFR	8	5	0	DRESS	495	n/a	n/a	1	n/a	0	0	0	n/a	n/a	n/a	n/a	n/a
1637.596	n/a	REC_WORD	818798	wordpools/wasnorm_wordpool_less_exclusions.txt	LTP283	ltpFR	8	5	0	DESIGNER	451	n/a	n/a	1	n/a	0	0	0	n/a	n/a	n/a	n/a	n/a
1686.514	n/a	WORD	843257	wordpools/wasnorm_wordpool_less_exclusions.txt	LTP283	ltpFR	8	6	1	TEAM	1441	n/a	n/a	1	n/a	0	0	0	0.422607421875	0.5869140625	0	upper	amplitud.ttf
1690.462	n/a	WORD	845231	wordpools/wasnorm_wordpool_less_exclusions.txt	LTP283	ltpFR	8	6	1	TECHNICIAN	1443	n/a	n/a	1	n/a	0	0	0	0.422607421875	0.5869140625	0	upper	amplitud.ttf
1694.344	n/a	WORD	847172	wordpools/wasnorm_wordpool_less_exclusions.txt	LTP283	ltpFR	8	6	1	CHIP	303	n/a	n/a	0	n/a	0	0	0	0.422607421875	0.5869140625	0	upper	amplitud.ttf
1698.458	n/a	WORD	849229	wordpools/wasnorm_wordpool_less_exclusions.txt	LTP283	ltpFR	8	6	1	SEAL	1262	n/a	n/a	1	n/a	0	0	0	0.422607421875	0.5869140625	0	upper	amplitud.ttf
1702.508	n/a	WORD	851254	wordpools/wasnorm_wordpool_less_exclusions.txt	LTP283	ltpFR	8	6	1	PALM	1007	n/a	n/a	1	n/a	0	0	0	0.422607421875	0.5869140625	0	upper	amplitud.ttf
1706.506	n/a	WORD	853253	wordpools/wasnorm_wordpool_less_exclusions.txt	LTP283	ltpFR	8	6	0	SOFTBALL	1343	n/a	n/a	0	n/a	0	0	0	0.57763671875	0.412841796875	1	lower	zerothre.ttf
1710.64	n/a	WORD	855320	wordpools/wasnorm_wordpool_less_exclusions.txt	LTP283	ltpFR	8	6	0	DART	440	n/a	n/a	0	n/a	0	0	0	0.57763671875	0.412841796875	1	lower	zerothre.ttf
1714.504	n/a	WORD	857252	wordpools/wasnorm_wordpool_less_exclusions.txt	LTP283	ltpFR	8	6	0	PLAID	1080	n/a	n/a	1	n/a	0	0	0	0.57763671875	0.412841796875	1	lower	zerothre.ttf
1718.502	n/a	WORD	859251	wordpools/wasnorm_wordpool_less_exclusions.txt	LTP283	ltpFR	8	6	0	VEST	1559	n/a	n/a	1	n/a	0	0	0	0.57763671875	0.412841796875	1	lower	zerothre.ttf
1722.686	n/a	WORD	861343	wordpools/wasnorm_wordpool_less_exclusions.txt	LTP283	ltpFR	8	6	0	WOMAN	1620	n/a	n/a	1	n/a	0	0	0	0.57763671875	0.412841796875	1	lower	zerothre.ttf
1726.886	n/a	WORD	863443	wordpools/wasnorm_wordpool_less_exclusions.txt	LTP283	ltpFR	8	6	1	TROUT	1511	n/a	n/a	1	n/a	0	0	0	0.422607421875	0.5869140625	0	upper	amplitud.ttf
1730.75	n/a	WORD	865375	wordpools/wasnorm_wordpool_less_exclusions.txt	LTP283	ltpFR	8	6	1	TUNA	1518	n/a	n/a	1	n/a	0	0	0	0.422607421875	0.5869140625	0	upper	amplitud.ttf
1734.882	n/a	WORD	867441	wordpools/wasnorm_wordpool_less_exclusions.txt	LTP283	ltpFR	8	6	1	VOLLEYBALL	1576	n/a	n/a	0	n/a	0	0	0	0.422607421875	0.5869140625	0	upper	amplitud.ttf
1738.848	n/a	WORD	869424	wordpools/wasnorm_wordpool_less_exclusions.txt	LTP283	ltpFR	8	6	0	RAFT	1159	n/a	n/a	1	n/a	0	0	0	0.57763671875	0.412841796875	1	lower	zerothre.ttf
1742.696	n/a	WORD	871348	wordpools/wasnorm_wordpool_less_exclusions.txt	LTP283	ltpFR	8	6	0	BLACKBOARD	133	n/a	n/a	1	n/a	0	0	0	0.57763671875	0.412841796875	1	lower	zerothre.ttf
1746.712	n/a	WORD	873356	wordpools/wasnorm_wordpool_less_exclusions.txt	LTP283	ltpFR	8	6	0	JUDGE	761	n/a	n/a	1	n/a	0	0	0	0.57763671875	0.412841796875	1	lower	zerothre.ttf
1752.45	n/a	REC_START	876225	n/a	LTP283	ltpFR	8	6	n/a	n/a	n/a	n/a	n/a	n/a	n/a	0	0	0	n/a	n/a	n/a	n/a	n/a
1755.2	n/a	REC_WORD	877600	wordpools/wasnorm_wordpool_less_exclusions.txt	LTP283	ltpFR	8	6	0	JUDGE	761	n/a	n/a	1	n/a	0	0	0	n/a	n/a	n/a	n/a	n/a
1756.28	n/a	REC_WORD	878140	wordpools/wasnorm_wordpool_less_exclusions.txt	LTP283	ltpFR	8	6	0	BLACKBOARD	133	n/a	n/a	1	n/a	0	0	0	n/a	n/a	n/a	n/a	n/a
1757.7	n/a	REC_WORD	878850	wordpools/wasnorm_wordpool_less_exclusions.txt	LTP283	ltpFR	8	6	0	RAFT	1159	n/a	n/a	1	n/a	0	0	0	n/a	n/a	n/a	n/a	n/a
1759.688	n/a	REC_WORD	879844	wordpools/wasnorm_wordpool_less_exclusions.txt	LTP283	ltpFR	8	6	0	WOMAN	1620	n/a	n/a	1	n/a	0	0	0	n/a	n/a	n/a	n/a	n/a
1760.882	n/a	REC_WORD	880441	wordpools/wasnorm_wordpool_less_exclusions.txt	LTP283	ltpFR	8	6	1	TECHNICIAN	1443	n/a	n/a	1	n/a	0	0	0	n/a	n/a	n/a	n/a	n/a
1765.354	n/a	REC_WORD	882677	wordpools/wasnorm_wordpool_less_exclusions.txt	LTP283	ltpFR	8	6	1	TUNA	1518	n/a	n/a	1	n/a	0	0	0	n/a	n/a	n/a	n/a	n/a
1766.514	n/a	REC_WORD_VV	883257	wordpools/wasnorm_wordpool_less_exclusions.txt	LTP283	ltpFR	8	6	n/a	<>	-1	n/a	n/a	n/a	n/a	0	0	0	n/a	n/a	n/a	n/a	n/a
1767.514	n/a	REC_WORD_VV	883757	wordpools/wasnorm_wordpool_less_exclusions.txt	LTP283	ltpFR	8	6	n/a	<>	-1	n/a	n/a	n/a	n/a	0	0	0	n/a	n/a	n/a	n/a	n/a
1767.92	n/a	REC_WORD	883960	wordpools/wasnorm_wordpool_less_exclusions.txt	LTP283	ltpFR	8	6	1	TROUT	1511	n/a	n/a	1	n/a	0	0	0	n/a	n/a	n/a	n/a	n/a
1768.962	n/a	REC_WORD	884481	wordpools/wasnorm_wordpool_less_exclusions.txt	LTP283	ltpFR	8	6	1	SEAL	1262	n/a	n/a	1	n/a	0	0	0	n/a	n/a	n/a	n/a	n/a
1775.898	n/a	REC_WORD	887949	wordpools/wasnorm_wordpool_less_exclusions.txt	LTP283	ltpFR	8	6	1	TEAM	1441	n/a	n/a	1	n/a	0	0	0	n/a	n/a	n/a	n/a	n/a
1778.368	n/a	REC_WORD	889184	wordpools/wasnorm_wordpool_less_exclusions.txt	LTP283	ltpFR	8	6	1	TECHNICIAN	1443	n/a	n/a	1	n/a	0	0	0	n/a	n/a	n/a	n/a	n/a
1780.944	n/a	REC_WORD	890472	wordpools/wasnorm_wordpool_less_exclusions.txt	LTP283	ltpFR	8	6	0	DART	440	n/a	n/a	0	n/a	0	0	0	n/a	n/a	n/a	n/a	n/a
1782.462	n/a	REC_WORD	891231	wordpools/wasnorm_wordpool_less_exclusions.txt	LTP283	ltpFR	8	6	0	SOFTBALL	1343	n/a	n/a	0	n/a	0	0	0	n/a	n/a	n/a	n/a	n/a
1785.018	n/a	REC_WORD	892509	wordpools/wasnorm_wordpool_less_exclusions.txt	LTP283	ltpFR	8	6	0	PLAID	1080	n/a	n/a	1	n/a	0	0	0	n/a	n/a	n/a	n/a	n/a
1786.696	n/a	REC_WORD	893348	wordpools/wasnorm_wordpool_less_exclusions.txt	LTP283	ltpFR	8	6	0	VEST	1559	n/a	n/a	1	n/a	0	0	0	n/a	n/a	n/a	n/a	n/a
1789.282	n/a	REC_WORD	894641	wordpools/wasnorm_wordpool_less_exclusions.txt	LTP283	ltpFR	8	6	1	CHIP	303	n/a	n/a	0	n/a	0	0	0	n/a	n/a	n/a	n/a	n/a
1828.136	n/a	REST_REWET	914068	n/a	LTP283	ltpFR	8	6	n/a	n/a	n/a	n/a	n/a	n/a	n/a	0	0	0	n/a	n/a	n/a	n/a	n/a
2205.096	n/a	WORD	1102548	wordpools/wasnorm_wordpool_less_exclusions.txt	LTP283	ltpFR	8	7	1	WICK	1607	n/a	n/a	0	n/a	0	0	0	0.422607421875	0.5869140625	0	upper	amplitud.ttf
2209.028	n/a	WORD	1104514	wordpools/wasnorm_wordpool_less_exclusions.txt	LTP283	ltpFR	8	7	1	CONDUCTOR	362	n/a	n/a	1	n/a	0	0	0	0.422607421875	0.5869140625	0	upper	amplitud.ttf
2213.094	n/a	WORD	1106547	wordpools/wasnorm_wordpool_less_exclusions.txt	LTP283	ltpFR	8	7	1	SHELL	1281	n/a	n/a	0	n/a	0	0	0	0.422607421875	0.5869140625	0	upper	amplitud.ttf
2217.126	n/a	WORD	1108563	wordpools/wasnorm_wordpool_less_exclusions.txt	LTP283	ltpFR	8	7	1	OYSTER	995	n/a	n/a	1	n/a	0	0	0	0.422607421875	0.5869140625	0	upper	amplitud.ttf
2221.29	n/a	WORD	1110645	wordpools/wasnorm_wordpool_less_exclusions.txt	LTP283	ltpFR	8	7	1	TENT	1449	n/a	n/a	0	n/a	0	0	0	0.422607421875	0.5869140625	0	upper	amplitud.ttf
2225.506	n/a	WORD	1112753	wordpools/wasnorm_wordpool_less_exclusions.txt	LTP283	ltpFR	8	7	1	CHIEF	298	n/a	n/a	1	n/a	0	0	0	0.422607421875	0.5869140625	0	upper	amplitud.ttf
2229.422	n/a	WORD	1114711	wordpools/wasnorm_wordpool_less_exclusions.txt	LTP283	ltpFR	8	7	1	FLUTE	585	n/a	n/a	0	n/a	0	0	0	0.422607421875	0.5869140625	0	upper	amplitud.ttf
2233.438	n/a	WORD	1116719	wordpools/wasnorm_wordpool_less_exclusions.txt	LTP283	ltpFR	8	7	1	VET	1560	n/a	n/a	1	n/a	0	0	0	0.422607421875	0.5869140625	0	upper	amplitud.ttf
2237.536	n/a	WORD	1118768	wordpools/wasnorm_wordpool_less_exclusions.txt	LTP283	ltpFR	8	7	1	EWE	542	n/a	n/a	1	n/a	0	0	0	0.422607421875	0.5869140625	0	upper	amplitud.ttf
2241.634	n/a	WORD	1120817	wordpools/wasnorm_wordpool_less_exclusions.txt	LTP283	ltpFR	8	7	1	TRIANGLE	1504	n/a	n/a	0	n/a	0	0	0	0.422607421875	0.5869140625	0	upper	amplitud.ttf
2245.684	n/a	WORD	1122842	wordpools/wasnorm_wordpool_less_exclusions.txt	LTP283	ltpFR	8	7	1	FARM	552	n/a	n/a	0	n/a	0	0	0	0.422607421875	0.5869140625	0	upper	amplitud.ttf
2249.516	n/a	WORD	1124758	wordpools/wasnorm_wordpool_less_exclusions.txt	LTP283	ltpFR	8	7	1	BUFFALO	186	n/a	n/a	1	n/a	0	0	0	0.422607421875	0.5869140625	0	upper	amplitud.ttf
2253.7	n/a	WORD	1126850	wordpools/wasnorm_wordpool_less_exclusions.txt	LTP283	ltpFR	8	7	1	ANGEL	22	n/a	n/a	1	n/a	0	0	0	0.422607421875	0.5869140625	0	upper	amplitud.ttf
2257.714	n/a	WORD	1128857	wordpools/wasnorm_wordpool_less_exclusions.txt	LTP283	ltpFR	8	7	1	FIDDLE	561	n/a	n/a	0	n/a	0	0	0	0.422607421875	0.5869140625	0	upper	amplitud.ttf
2261.712	n/a	WORD	1130856	wordpools/wasnorm_wordpool_less_exclusions.txt	LTP283	ltpFR	8	7	1	TUXEDO	1525	n/a	n/a	0	n/a	0	0	0	0.422607421875	0.5869140625	0	upper	amplitud.ttf
2265.762	n/a	WORD	1132881	wordpools/wasnorm_wordpool_less_exclusions.txt	LTP283	ltpFR	8	7	1	SHOELACE	1289	n/a	n/a	0	n/a	0	0	0	0.422607421875	0.5869140625	0	upper	amplitud.ttf
2268.774	n/a	START	1134387	n/a	LTP283	ltpFR	8	n/a	n/a	n/a	n/a	n/a	n/a	n/a	n/a	n/a	n/a	n/a	n/a	n/a	n/a	n/a	n/a
2269.76	n/a	PROB	1134880	n/a	LTP283	ltpFR	8	n/a	n/a	n/a	n/a	n/a	n/a	n/a	14	7	4	3	n/a	n/a	n/a	n/a	n/a
2271.682	n/a	PROB	1135841	n/a	LTP283	ltpFR	8	n/a	n/a	n/a	n/a	n/a	n/a	n/a	15	8	1	6	n/a	n/a	n/a	n/a	n/a
2273.742	n/a	PROB	1136871	n/a	LTP283	ltpFR	8	n/a	n/a	n/a	n/a	n/a	n/a	n/a	6	4	1	1	n/a	n/a	n/a	n/a	n/a
2276.772	n/a	STOP	1138386	n/a	LTP283	ltpFR	8	n/a	n/a	n/a	n/a	n/a	n/a	n/a	n/a	n/a	n/a	n/a	n/a	n/a	n/a	n/a	n/a
2278.696	n/a	REC_START	1139348	n/a	LTP283	ltpFR	8	7	n/a	n/a	n/a	n/a	n/a	n/a	n/a	0	0	0	n/a	n/a	n/a	n/a	n/a
2280.892	n/a	REC_WORD	1140446	wordpools/wasnorm_wordpool_less_exclusions.txt	LTP283	ltpFR	8	7	1	TUXEDO	1525	n/a	n/a	0	n/a	0	0	0	n/a	n/a	n/a	n/a	n/a
2282.126	n/a	REC_WORD_VV	1141063	wordpools/wasnorm_wordpool_less_exclusions.txt	LTP283	ltpFR	8	7	n/a	<>	-1	n/a	n/a	n/a	n/a	0	0	0	n/a	n/a	n/a	n/a	n/a
2283.126	n/a	REC_WORD_VV	1141563	wordpools/wasnorm_wordpool_less_exclusions.txt	LTP283	ltpFR	8	7	n/a	<>	-1	n/a	n/a	n/a	n/a	0	0	0	n/a	n/a	n/a	n/a	n/a
2283.458	n/a	REC_WORD	1141729	wordpools/wasnorm_wordpool_less_exclusions.txt	LTP283	ltpFR	8	7	1	FIDDLE	561	n/a	n/a	0	n/a	0	0	0	n/a	n/a	n/a	n/a	n/a
2284.834	n/a	REC_WORD	1142417	wordpools/wasnorm_wordpool_less_exclusions.txt	LTP283	ltpFR	8	7	1	SHOELACE	1289	n/a	n/a	0	n/a	0	0	0	n/a	n/a	n/a	n/a	n/a
2292.086	n/a	REC_WORD	1146043	wordpools/wasnorm_wordpool_less_exclusions.txt	LTP283	ltpFR	8	7	1	VET	1560	n/a	n/a	1	n/a	0	0	0	n/a	n/a	n/a	n/a	n/a
2293.38	n/a	REC_WORD	1146690	wordpools/wasnorm_wordpool_less_exclusions.txt	LTP283	ltpFR	8	7	1	EWE	542	n/a	n/a	1	n/a	0	0	0	n/a	n/a	n/a	n/a	n/a
2295.236	n/a	REC_WORD	1147618	wordpools/wasnorm_wordpool_less_exclusions.txt	LTP283	ltpFR	8	7	1	BUFFALO	186	n/a	n/a	1	n/a	0	0	0	n/a	n/a	n/a	n/a	n/a
2300.25	n/a	REC_WORD	1150125	wordpools/wasnorm_wordpool_less_exclusions.txt	LTP283	ltpFR	8	7	1	TENT	1449	n/a	n/a	0	n/a	0	0	0	n/a	n/a	n/a	n/a	n/a
2303.178	n/a	REC_WORD	1151589	wordpools/wasnorm_wordpool_less_exclusions.txt	LTP283	ltpFR	8	7	1	CHIEF	298	n/a	n/a	1	n/a	0	0	0	n/a	n/a	n/a	n/a	n/a
2305.338	n/a	REC_WORD	1152669	wordpools/wasnorm_wordpool_less_exclusions.txt	LTP283	ltpFR	8	7	1	OYSTER	995	n/a	n/a	1	n/a	0	0	0	n/a	n/a	n/a	n/a	n/a
2306.54	n/a	REC_WORD	1153270	wordpools/wasnorm_wordpool_less_exclusions.txt	LTP283	ltpFR	8	7	1	SHELL	1281	n/a	n/a	0	n/a	0	0	0	n/a	n/a	n/a	n/a	n/a
2311.598	n/a	REC_WORD	1155799	wordpools/wasnorm_wordpool_less_exclusions.txt	LTP283	ltpFR	8	7	1	WICK	1607	n/a	n/a	0	n/a	0	0	0	n/a	n/a	n/a	n/a	n/a
2312.752	n/a	REC_WORD	1156376	wordpools/wasnorm_wordpool_less_exclusions.txt	LTP283	ltpFR	8	7	1	CONDUCTOR	362	n/a	n/a	1	n/a	0	0	0	n/a	n/a	n/a	n/a	n/a
2334.542	n/a	REC_WORD	1167271	wordpools/wasnorm_wordpool_less_exclusions.txt	LTP283	ltpFR	8	7	1	FARM	552	n/a	n/a	0	n/a	0	0	0	n/a	n/a	n/a	n/a	n/a
2348.094	n/a	REC_WORD	1174047	wordpools/wasnorm_wordpool_less_exclusions.txt	LTP283	ltpFR	8	7	1	TRIANGLE	1504	n/a	n/a	0	n/a	0	0	0	n/a	n/a	n/a	n/a	n/a
2359.168	n/a	START	1179584	n/a	LTP283	ltpFR	8	n/a	n/a	n/a	n/a	n/a	n/a	n/a	n/a	n/a	n/a	n/a	n/a	n/a	n/a	n/a	n/a
2360.672	n/a	PROB	1180336	n/a	LTP283	ltpFR	8	n/a	n/a	n/a	n/a	n/a	n/a	n/a	11	6	3	2	n/a	n/a	n/a	n/a	n/a
2363.298	n/a	PROB	1181649	n/a	LTP283	ltpFR	8	n/a	n/a	n/a	n/a	n/a	n/a	n/a	15	8	6	1	n/a	n/a	n/a	n/a	n/a
2364.722	n/a	PROB	1182361	n/a	LTP283	ltpFR	8	n/a	n/a	n/a	n/a	n/a	n/a	n/a	23	9	6	8	n/a	n/a	n/a	n/a	n/a
2368.102	n/a	PROB	1184051	n/a	LTP283	ltpFR	8	n/a	n/a	n/a	n/a	n/a	n/a	n/a	19	6	9	4	n/a	n/a	n/a	n/a	n/a
2369.422	n/a	PROB	1184711	n/a	LTP283	ltpFR	8	n/a	n/a	n/a	n/a	n/a	n/a	n/a	12	5	3	4	n/a	n/a	n/a	n/a	n/a
2372.486	n/a	PROB	1186243	n/a	LTP283	ltpFR	8	n/a	n/a	n/a	n/a	n/a	n/a	n/a	11	1	7	3	n/a	n/a	n/a	n/a	n/a
2373.66	n/a	STOP	1186830	n/a	LTP283	ltpFR	8	n/a	n/a	n/a	n/a	n/a	n/a	n/a	n/a	n/a	n/a	n/a	n/a	n/a	n/a	n/a	n/a
2376.216	n/a	WORD	1188108	wordpools/wasnorm_wordpool_less_exclusions.txt	LTP283	ltpFR	8	8	1	DAISY	435	n/a	n/a	1	n/a	0	0	0	0.422607421875	0.5869140625	0	upper	amplitud.ttf
2379.228	n/a	START	1189614	n/a	LTP283	ltpFR	8	n/a	n/a	n/a	n/a	n/a	n/a	n/a	n/a	n/a	n/a	n/a	n/a	n/a	n/a	n/a	n/a
2380.048	n/a	PROB	1190024	n/a	LTP283	ltpFR	8	n/a	n/a	n/a	n/a	n/a	n/a	n/a	16	6	5	5	n/a	n/a	n/a	n/a	n/a
2382.27	n/a	PROB	1191135	n/a	LTP283	ltpFR	8	n/a	n/a	n/a	n/a	n/a	n/a	n/a	13	3	5	5	n/a	n/a	n/a	n/a	n/a
2383.796	n/a	PROB	1191898	n/a	LTP283	ltpFR	8	n/a	n/a	n/a	n/a	n/a	n/a	n/a	14	6	4	4	n/a	n/a	n/a	n/a	n/a
2385.218	n/a	PROB	1192609	n/a	LTP283	ltpFR	8	n/a	n/a	n/a	n/a	n/a	n/a	n/a	7	3	2	2	n/a	n/a	n/a	n/a	n/a
2387.226	n/a	PROB	1193613	n/a	LTP283	ltpFR	8	n/a	n/a	n/a	n/a	n/a	n/a	n/a	6	2	1	3	n/a	n/a	n/a	n/a	n/a
2389.08	n/a	PROB	1194540	n/a	LTP283	ltpFR	8	n/a	n/a	n/a	n/a	n/a	n/a	n/a	14	2	4	8	n/a	n/a	n/a	n/a	n/a
2390.604	n/a	PROB	1195302	n/a	LTP283	ltpFR	8	n/a	n/a	n/a	n/a	n/a	n/a	n/a	17	4	8	3	n/a	n/a	n/a	n/a	n/a
2392.714	n/a	PROB	1196357	n/a	LTP283	ltpFR	8	n/a	n/a	n/a	n/a	n/a	n/a	n/a	8	2	1	5	n/a	n/a	n/a	n/a	n/a
2394.014	n/a	STOP	1197007	n/a	LTP283	ltpFR	8	n/a	n/a	n/a	n/a	n/a	n/a	n/a	n/a	n/a	n/a	n/a	n/a	n/a	n/a	n/a	n/a
2396.392	n/a	WORD	1198196	wordpools/wasnorm_wordpool_less_exclusions.txt	LTP283	ltpFR	8	8	1	ROSE	1212	n/a	n/a	1	n/a	0	0	0	0.422607421875	0.5869140625	0	upper	amplitud.ttf
2399.406	n/a	START	1199703	n/a	LTP283	ltpFR	8	n/a	n/a	n/a	n/a	n/a	n/a	n/a	n/a	n/a	n/a	n/a	n/a	n/a	n/a	n/a	n/a
2400.292	n/a	PROB	1200146	n/a	LTP283	ltpFR	8	n/a	n/a	n/a	n/a	n/a	n/a	n/a	11	2	1	8	n/a	n/a	n/a	n/a	n/a
2401.916	n/a	PROB	1200958	n/a	LTP283	ltpFR	8	n/a	n/a	n/a	n/a	n/a	n/a	n/a	16	1	7	8	n/a	n/a	n/a	n/a	n/a
2403.636	n/a	PROB	1201818	n/a	LTP283	ltpFR	8	n/a	n/a	n/a	n/a	n/a	n/a	n/a	12	2	5	5	n/a	n/a	n/a	n/a	n/a
2404.842	n/a	PROB	1202421	n/a	LTP283	ltpFR	8	n/a	n/a	n/a	n/a	n/a	n/a	n/a	15	6	3	6	n/a	n/a	n/a	n/a	n/a
2406.23	n/a	PROB	1203115	n/a	LTP283	ltpFR	8	n/a	n/a	n/a	n/a	n/a	n/a	n/a	23	9	8	5	n/a	n/a	n/a	n/a	n/a
2408.472	n/a	PROB	1204236	n/a	LTP283	ltpFR	8	n/a	n/a	n/a	n/a	n/a	n/a	n/a	24	8	8	8	n/a	n/a	n/a	n/a	n/a
2410.094	n/a	PROB	1205047	n/a	LTP283	ltpFR	8	n/a	n/a	n/a	n/a	n/a	n/a	n/a	9	5	2	2	n/a	n/a	n/a	n/a	n/a
2411.5	n/a	PROB	1205750	n/a	LTP283	ltpFR	8	n/a	n/a	n/a	n/a	n/a	n/a	n/a	16	7	7	2	n/a	n/a	n/a	n/a	n/a
2412.908	n/a	PROB	1206454	n/a	LTP283	ltpFR	8	n/a	n/a	n/a	n/a	n/a	n/a	n/a	17	7	5	5	n/a	n/a	n/a	n/a	n/a
2413.99	n/a	STOP	1206995	n/a	LTP283	ltpFR	8	n/a	n/a	n/a	n/a	n/a	n/a	n/a	n/a	n/a	n/a	n/a	n/a	n/a	n/a	n/a	n/a
2416.302	n/a	WORD	1208151	wordpools/wasnorm_wordpool_less_exclusions.txt	LTP283	ltpFR	8	8	1	BUBBLE	183	n/a	n/a	0	n/a	0	0	0	0.422607421875	0.5869140625	0	upper	amplitud.ttf
2419.316	n/a	START	1209658	n/a	LTP283	ltpFR	8	n/a	n/a	n/a	n/a	n/a	n/a	n/a	n/a	n/a	n/a	n/a	n/a	n/a	n/a	n/a	n/a
2420.52	n/a	PROB	1210260	n/a	LTP283	ltpFR	8	n/a	n/a	n/a	n/a	n/a	n/a	n/a	14	4	1	9	n/a	n/a	n/a	n/a	n/a
2422.424	n/a	PROB	1211212	n/a	LTP283	ltpFR	8	n/a	n/a	n/a	n/a	n/a	n/a	n/a	4	1	2	1	n/a	n/a	n/a	n/a	n/a
2423.766	n/a	PROB	1211883	n/a	LTP283	ltpFR	8	n/a	n/a	n/a	n/a	n/a	n/a	n/a	16	6	1	9	n/a	n/a	n/a	n/a	n/a
2426.322	n/a	PROB	1213161	n/a	LTP283	ltpFR	8	n/a	n/a	n/a	n/a	n/a	n/a	n/a	17	9	6	2	n/a	n/a	n/a	n/a	n/a
2428.664	n/a	PROB	1214332	n/a	LTP283	ltpFR	8	n/a	n/a	n/a	n/a	n/a	n/a	n/a	12	5	5	2	n/a	n/a	n/a	n/a	n/a
2429.822	n/a	PROB	1214911	n/a	LTP283	ltpFR	8	n/a	n/a	n/a	n/a	n/a	n/a	n/a	23	6	8	9	n/a	n/a	n/a	n/a	n/a
2431.444	n/a	PROB	1215722	n/a	LTP283	ltpFR	8	n/a	n/a	n/a	n/a	n/a	n/a	n/a	13	2	2	9	n/a	n/a	n/a	n/a	n/a
2434.008	n/a	STOP	1217004	n/a	LTP283	ltpFR	8	n/a	n/a	n/a	n/a	n/a	n/a	n/a	n/a	n/a	n/a	n/a	n/a	n/a	n/a	n/a	n/a
2436.462	n/a	WORD	1218231	wordpools/wasnorm_wordpool_less_exclusions.txt	LTP283	ltpFR	8	8	1	VACUUM	1543	n/a	n/a	0	n/a	0	0	0	0.422607421875	0.5869140625	0	upper	amplitud.ttf
2439.476	n/a	START	1219738	n/a	LTP283	ltpFR	8	n/a	n/a	n/a	n/a	n/a	n/a	n/a	n/a	n/a	n/a	n/a	n/a	n/a	n/a	n/a	n/a
2440.528	n/a	PROB	1220264	n/a	LTP283	ltpFR	8	n/a	n/a	n/a	n/a	n/a	n/a	n/a	26	8	9	7	n/a	n/a	n/a	n/a	n/a
2442.688	n/a	PROB	1221344	n/a	LTP283	ltpFR	8	n/a	n/a	n/a	n/a	n/a	n/a	n/a	19	9	6	8	n/a	n/a	n/a	n/a	n/a
2446.098	n/a	PROB	1223049	n/a	LTP283	ltpFR	8	n/a	n/a	n/a	n/a	n/a	n/a	n/a	9	4	3	2	n/a	n/a	n/a	n/a	n/a
2447.84	n/a	PROB	1223920	n/a	LTP283	ltpFR	8	n/a	n/a	n/a	n/a	n/a	n/a	n/a	15	1	6	8	n/a	n/a	n/a	n/a	n/a
2449.412	n/a	PROB	1224706	n/a	LTP283	ltpFR	8	n/a	n/a	n/a	n/a	n/a	n/a	n/a	17	6	5	6	n/a	n/a	n/a	n/a	n/a
2451.12	n/a	PROB	1225560	n/a	LTP283	ltpFR	8	n/a	n/a	n/a	n/a	n/a	n/a	n/a	23	7	9	7	n/a	n/a	n/a	n/a	n/a
2452.574	n/a	PROB	1226287	n/a	LTP283	ltpFR	8	n/a	n/a	n/a	n/a	n/a	n/a	n/a	12	7	2	3	n/a	n/a	n/a	n/a	n/a
2453.93	n/a	PROB	1226965	n/a	LTP283	ltpFR	8	n/a	n/a	n/a	n/a	n/a	n/a	n/a	13	7	3	3	n/a	n/a	n/a	n/a	n/a
2455.096	n/a	STOP	1227548	n/a	LTP283	ltpFR	8	n/a	n/a	n/a	n/a	n/a	n/a	n/a	n/a	n/a	n/a	n/a	n/a	n/a	n/a	n/a	n/a
2456.64	n/a	WORD	1228320	wordpools/wasnorm_wordpool_less_exclusions.txt	LTP283	ltpFR	8	8	0	COBRA	336	n/a	n/a	1	n/a	0	0	0	0.57763671875	0.412841796875	1	lower	zerothre.ttf
2459.652	n/a	START	1229826	n/a	LTP283	ltpFR	8	n/a	n/a	n/a	n/a	n/a	n/a	n/a	n/a	n/a	n/a	n/a	n/a	n/a	n/a	n/a	n/a
2460.606	n/a	PROB	1230303	n/a	LTP283	ltpFR	8	n/a	n/a	n/a	n/a	n/a	n/a	n/a	24	6	9	9	n/a	n/a	n/a	n/a	n/a
2463.232	n/a	PROB	1231616	n/a	LTP283	ltpFR	8	n/a	n/a	n/a	n/a	n/a	n/a	n/a	21	5	9	7	n/a	n/a	n/a	n/a	n/a
2467.564	n/a	PROB	1233782	n/a	LTP283	ltpFR	8	n/a	n/a	n/a	n/a	n/a	n/a	n/a	16	6	7	3	n/a	n/a	n/a	n/a	n/a
2468.904	n/a	PROB	1234452	n/a	LTP283	ltpFR	8	n/a	n/a	n/a	n/a	n/a	n/a	n/a	18	6	6	6	n/a	n/a	n/a	n/a	n/a
2470.14	n/a	PROB	1235070	n/a	LTP283	ltpFR	8	n/a	n/a	n/a	n/a	n/a	n/a	n/a	20	4	8	8	n/a	n/a	n/a	n/a	n/a
2472.114	n/a	PROB	1236057	n/a	LTP283	ltpFR	8	n/a	n/a	n/a	n/a	n/a	n/a	n/a	15	3	7	5	n/a	n/a	n/a	n/a	n/a
2473.638	n/a	PROB	1236819	n/a	LTP283	ltpFR	8	n/a	n/a	n/a	n/a	n/a	n/a	n/a	12	6	5	1	n/a	n/a	n/a	n/a	n/a
2474.954	n/a	STOP	1237477	n/a	LTP283	ltpFR	8	n/a	n/a	n/a	n/a	n/a	n/a	n/a	n/a	n/a	n/a	n/a	n/a	n/a	n/a	n/a	n/a
2476.768	n/a	WORD	1238384	wordpools/wasnorm_wordpool_less_exclusions.txt	LTP283	ltpFR	8	8	0	TORTOISE	1486	n/a	n/a	0	n/a	0	0	0	0.57763671875	0.412841796875	1	lower	zerothre.ttf
2479.78	n/a	START	1239890	n/a	LTP283	ltpFR	8	n/a	n/a	n/a	n/a	n/a	n/a	n/a	n/a	n/a	n/a	n/a	n/a	n/a	n/a	n/a	n/a
2480.9	n/a	PROB	1240450	n/a	LTP283	ltpFR	8	n/a	n/a	n/a	n/a	n/a	n/a	n/a	23	9	7	7	n/a	n/a	n/a	n/a	n/a
2485.28	n/a	PROB	1242640	n/a	LTP283	ltpFR	8	n/a	n/a	n/a	n/a	n/a	n/a	n/a	16	6	1	9	n/a	n/a	n/a	n/a	n/a
2486.706	n/a	PROB	1243353	n/a	LTP283	ltpFR	8	n/a	n/a	n/a	n/a	n/a	n/a	n/a	25	7	8	8	n/a	n/a	n/a	n/a	n/a
2488.678	n/a	PROB	1244339	n/a	LTP283	ltpFR	8	n/a	n/a	n/a	n/a	n/a	n/a	n/a	15	9	2	4	n/a	n/a	n/a	n/a	n/a
2490.57	n/a	PROB	1245285	n/a	LTP283	ltpFR	8	n/a	n/a	n/a	n/a	n/a	n/a	n/a	9	3	3	3	n/a	n/a	n/a	n/a	n/a
2491.99	n/a	PROB	1245995	n/a	LTP283	ltpFR	8	n/a	n/a	n/a	n/a	n/a	n/a	n/a	10	4	3	3	n/a	n/a	n/a	n/a	n/a
2493.782	n/a	PROB	1246891	n/a	LTP283	ltpFR	8	n/a	n/a	n/a	n/a	n/a	n/a	n/a	7	1	3	3	n/a	n/a	n/a	n/a	n/a
2495.54	n/a	STOP	1247770	n/a	LTP283	ltpFR	8	n/a	n/a	n/a	n/a	n/a	n/a	n/a	n/a	n/a	n/a	n/a	n/a	n/a	n/a	n/a	n/a
2496.676	n/a	WORD	1248338	wordpools/wasnorm_wordpool_less_exclusions.txt	LTP283	ltpFR	8	8	0	BACKBONE	66	n/a	n/a	1	n/a	0	0	0	0.57763671875	0.412841796875	1	lower	zerothre.ttf
2499.688	n/a	START	1249844	n/a	LTP283	ltpFR	8	n/a	n/a	n/a	n/a	n/a	n/a	n/a	n/a	n/a	n/a	n/a	n/a	n/a	n/a	n/a	n/a
2500.592	n/a	PROB	1250296	n/a	LTP283	ltpFR	8	n/a	n/a	n/a	n/a	n/a	n/a	n/a	10	3	1	6	n/a	n/a	n/a	n/a	n/a
2502.866	n/a	PROB	1251433	n/a	LTP283	ltpFR	8	n/a	n/a	n/a	n/a	n/a	n/a	n/a	19	7	4	8	n/a	n/a	n/a	n/a	n/a
2505.944	n/a	PROB	1252972	n/a	LTP283	ltpFR	8	n/a	n/a	n/a	n/a	n/a	n/a	n/a	13	3	3	7	n/a	n/a	n/a	n/a	n/a
2507.3	n/a	PROB	1253650	n/a	LTP283	ltpFR	8	n/a	n/a	n/a	n/a	n/a	n/a	n/a	10	4	3	3	n/a	n/a	n/a	n/a	n/a
2509.374	n/a	PROB	1254687	n/a	LTP283	ltpFR	8	n/a	n/a	n/a	n/a	n/a	n/a	n/a	14	5	6	3	n/a	n/a	n/a	n/a	n/a
2511.5	n/a	PROB	1255750	n/a	LTP283	ltpFR	8	n/a	n/a	n/a	n/a	n/a	n/a	n/a	16	3	8	5	n/a	n/a	n/a	n/a	n/a
2515.69	n/a	STOP	1257845	n/a	LTP283	ltpFR	8	n/a	n/a	n/a	n/a	n/a	n/a	n/a	n/a	n/a	n/a	n/a	n/a	n/a	n/a	n/a	n/a
2516.822	n/a	WORD	1258411	wordpools/wasnorm_wordpool_less_exclusions.txt	LTP283	ltpFR	8	8	0	SNAKE	1333	n/a	n/a	1	n/a	0	0	0	0.57763671875	0.412841796875	1	lower	zerothre.ttf
2519.834	n/a	START	1259917	n/a	LTP283	ltpFR	8	n/a	n/a	n/a	n/a	n/a	n/a	n/a	n/a	n/a	n/a	n/a	n/a	n/a	n/a	n/a	n/a
2520.736	n/a	PROB	1260368	n/a	LTP283	ltpFR	8	n/a	n/a	n/a	n/a	n/a	n/a	n/a	13	5	2	9	n/a	n/a	n/a	n/a	n/a
2522.91	n/a	PROB	1261455	n/a	LTP283	ltpFR	8	n/a	n/a	n/a	n/a	n/a	n/a	n/a	22	7	8	7	n/a	n/a	n/a	n/a	n/a
2526.876	n/a	PROB	1263438	n/a	LTP283	ltpFR	8	n/a	n/a	n/a	n/a	n/a	n/a	n/a	17	5	5	7	n/a	n/a	n/a	n/a	n/a
2528.214	n/a	PROB	1264107	n/a	LTP283	ltpFR	8	n/a	n/a	n/a	n/a	n/a	n/a	n/a	15	2	6	7	n/a	n/a	n/a	n/a	n/a
2531.408	n/a	PROB	1265704	n/a	LTP283	ltpFR	8	n/a	n/a	n/a	n/a	n/a	n/a	n/a	15	4	7	7	n/a	n/a	n/a	n/a	n/a
2532.966	n/a	PROB	1266483	n/a	LTP283	ltpFR	8	n/a	n/a	n/a	n/a	n/a	n/a	n/a	15	5	2	8	n/a	n/a	n/a	n/a	n/a
2535.134	n/a	STOP	1267567	n/a	LTP283	ltpFR	8	n/a	n/a	n/a	n/a	n/a	n/a	n/a	n/a	n/a	n/a	n/a	n/a	n/a	n/a	n/a	n/a
2536.932	n/a	WORD	1268466	wordpools/wasnorm_wordpool_less_exclusions.txt	LTP283	ltpFR	8	8	1	WAX	1597	n/a	n/a	0	n/a	0	0	0	0.422607421875	0.5869140625	0	upper	amplitud.ttf
2539.944	n/a	START	1269972	n/a	LTP283	ltpFR	8	n/a	n/a	n/a	n/a	n/a	n/a	n/a	n/a	n/a	n/a	n/a	n/a	n/a	n/a	n/a	n/a
2540.78	n/a	PROB	1270390	n/a	LTP283	ltpFR	8	n/a	n/a	n/a	n/a	n/a	n/a	n/a	11	2	5	4	n/a	n/a	n/a	n/a	n/a
2544.274	n/a	PROB	1272137	n/a	LTP283	ltpFR	8	n/a	n/a	n/a	n/a	n/a	n/a	n/a	11	2	7	2	n/a	n/a	n/a	n/a	n/a
2545.93	n/a	PROB	1272965	n/a	LTP283	ltpFR	8	n/a	n/a	n/a	n/a	n/a	n/a	n/a	22	7	8	7	n/a	n/a	n/a	n/a	n/a
2548.86	n/a	PROB	1274430	n/a	LTP283	ltpFR	8	n/a	n/a	n/a	n/a	n/a	n/a	n/a	17	5	4	8	n/a	n/a	n/a	n/a	n/a
2550.666	n/a	PROB	1275333	n/a	LTP283	ltpFR	8	n/a	n/a	n/a	n/a	n/a	n/a	n/a	11	2	6	3	n/a	n/a	n/a	n/a	n/a
2553.796	n/a	PROB	1276898	n/a	LTP283	ltpFR	8	n/a	n/a	n/a	n/a	n/a	n/a	n/a	13	4	2	7	n/a	n/a	n/a	n/a	n/a
2555.87	n/a	STOP	1277935	n/a	LTP283	ltpFR	8	n/a	n/a	n/a	n/a	n/a	n/a	n/a	n/a	n/a	n/a	n/a	n/a	n/a	n/a	n/a	n/a
2557.042	n/a	WORD	1278521	wordpools/wasnorm_wordpool_less_exclusions.txt	LTP283	ltpFR	8	8	1	RABBIT	1152	n/a	n/a	1	n/a	0	0	0	0.422607421875	0.5869140625	0	upper	amplitud.ttf
2560.054	n/a	START	1280027	n/a	LTP283	ltpFR	8	n/a	n/a	n/a	n/a	n/a	n/a	n/a	n/a	n/a	n/a	n/a	n/a	n/a	n/a	n/a	n/a
2561.19	n/a	PROB	1280595	n/a	LTP283	ltpFR	8	n/a	n/a	n/a	n/a	n/a	n/a	n/a	9	3	5	1	n/a	n/a	n/a	n/a	n/a
2563.014	n/a	PROB	1281507	n/a	LTP283	ltpFR	8	n/a	n/a	n/a	n/a	n/a	n/a	n/a	13	6	5	2	n/a	n/a	n/a	n/a	n/a
2565.454	n/a	PROB	1282727	n/a	LTP283	ltpFR	8	n/a	n/a	n/a	n/a	n/a	n/a	n/a	12	8	2	2	n/a	n/a	n/a	n/a	n/a
2566.894	n/a	PROB	1283447	n/a	LTP283	ltpFR	8	n/a	n/a	n/a	n/a	n/a	n/a	n/a	13	3	3	7	n/a	n/a	n/a	n/a	n/a
2568.134	n/a	PROB	1284067	n/a	LTP283	ltpFR	8	n/a	n/a	n/a	n/a	n/a	n/a	n/a	12	2	9	1	n/a	n/a	n/a	n/a	n/a
2569.468	n/a	PROB	1284734	n/a	LTP283	ltpFR	8	n/a	n/a	n/a	n/a	n/a	n/a	n/a	12	2	2	8	n/a	n/a	n/a	n/a	n/a
2570.826	n/a	PROB	1285413	n/a	LTP283	ltpFR	8	n/a	n/a	n/a	n/a	n/a	n/a	n/a	18	6	8	4	n/a	n/a	n/a	n/a	n/a
2572.132	n/a	PROB	1286066	n/a	LTP283	ltpFR	8	n/a	n/a	n/a	n/a	n/a	n/a	n/a	19	1	9	9	n/a	n/a	n/a	n/a	n/a
2573.668	n/a	PROB	1286834	n/a	LTP283	ltpFR	8	n/a	n/a	n/a	n/a	n/a	n/a	n/a	16	2	5	9	n/a	n/a	n/a	n/a	n/a
2575.896	n/a	STOP	1287948	n/a	LTP283	ltpFR	8	n/a	n/a	n/a	n/a	n/a	n/a	n/a	n/a	n/a	n/a	n/a	n/a	n/a	n/a	n/a	n/a
2577.052	n/a	WORD	1288526	wordpools/wasnorm_wordpool_less_exclusions.txt	LTP283	ltpFR	8	8	1	GENERAL	630	n/a	n/a	1	n/a	0	0	0	0.422607421875	0.5869140625	0	upper	amplitud.ttf
2580.064	n/a	START	1290032	n/a	LTP283	ltpFR	8	n/a	n/a	n/a	n/a	n/a	n/a	n/a	n/a	n/a	n/a	n/a	n/a	n/a	n/a	n/a	n/a
2581.266	n/a	PROB	1290633	n/a	LTP283	ltpFR	8	n/a	n/a	n/a	n/a	n/a	n/a	n/a	17	7	9	1	n/a	n/a	n/a	n/a	n/a
2582.686	n/a	PROB	1291343	n/a	LTP283	ltpFR	8	n/a	n/a	n/a	n/a	n/a	n/a	n/a	18	9	4	5	n/a	n/a	n/a	n/a	n/a
2585.382	n/a	PROB	1292691	n/a	LTP283	ltpFR	8	n/a	n/a	n/a	n/a	n/a	n/a	n/a	10	2	4	4	n/a	n/a	n/a	n/a	n/a
2587.356	n/a	PROB	1293678	n/a	LTP283	ltpFR	8	n/a	n/a	n/a	n/a	n/a	n/a	n/a	20	9	2	9	n/a	n/a	n/a	n/a	n/a
2588.828	n/a	PROB	1294414	n/a	LTP283	ltpFR	8	n/a	n/a	n/a	n/a	n/a	n/a	n/a	17	9	4	4	n/a	n/a	n/a	n/a	n/a
2591.858	n/a	PROB	1295929	n/a	LTP283	ltpFR	8	n/a	n/a	n/a	n/a	n/a	n/a	n/a	13	5	6	2	n/a	n/a	n/a	n/a	n/a
2593.916	n/a	PROB	1296958	n/a	LTP283	ltpFR	8	n/a	n/a	n/a	n/a	n/a	n/a	n/a	12	5	4	3	n/a	n/a	n/a	n/a	n/a
2595.696	n/a	STOP	1297848	n/a	LTP283	ltpFR	8	n/a	n/a	n/a	n/a	n/a	n/a	n/a	n/a	n/a	n/a	n/a	n/a	n/a	n/a	n/a	n/a
2596.894	n/a	WORD	1298447	wordpools/wasnorm_wordpool_less_exclusions.txt	LTP283	ltpFR	8	8	1	TONGUE	1479	n/a	n/a	1	n/a	0	0	0	0.422607421875	0.5869140625	0	upper	amplitud.ttf
2599.906	n/a	START	1299953	n/a	LTP283	ltpFR	8	n/a	n/a	n/a	n/a	n/a	n/a	n/a	n/a	n/a	n/a	n/a	n/a	n/a	n/a	n/a	n/a
2600.806	n/a	PROB	1300403	n/a	LTP283	ltpFR	8	n/a	n/a	n/a	n/a	n/a	n/a	n/a	12	2	9	1	n/a	n/a	n/a	n/a	n/a
2602.196	n/a	PROB	1301098	n/a	LTP283	ltpFR	8	n/a	n/a	n/a	n/a	n/a	n/a	n/a	12	6	4	2	n/a	n/a	n/a	n/a	n/a
2603.516	n/a	PROB	1301758	n/a	LTP283	ltpFR	8	n/a	n/a	n/a	n/a	n/a	n/a	n/a	15	3	7	5	n/a	n/a	n/a	n/a	n/a
2605.422	n/a	PROB	1302711	n/a	LTP283	ltpFR	8	n/a	n/a	n/a	n/a	n/a	n/a	n/a	15	7	7	1	n/a	n/a	n/a	n/a	n/a
2606.78	n/a	PROB	1303390	n/a	LTP283	ltpFR	8	n/a	n/a	n/a	n/a	n/a	n/a	n/a	9	2	5	3	n/a	n/a	n/a	n/a	n/a
2609.024	n/a	PROB	1304512	n/a	LTP283	ltpFR	8	n/a	n/a	n/a	n/a	n/a	n/a	n/a	11	2	5	4	n/a	n/a	n/a	n/a	n/a
2610.814	n/a	PROB	1305407	n/a	LTP283	ltpFR	8	n/a	n/a	n/a	n/a	n/a	n/a	n/a	18	7	3	8	n/a	n/a	n/a	n/a	n/a
2612.234	n/a	PROB	1306117	n/a	LTP283	ltpFR	8	n/a	n/a	n/a	n/a	n/a	n/a	n/a	11	2	2	7	n/a	n/a	n/a	n/a	n/a
2613.858	n/a	PROB	1306929	n/a	LTP283	ltpFR	8	n/a	n/a	n/a	n/a	n/a	n/a	n/a	21	4	8	9	n/a	n/a	n/a	n/a	n/a
2615.818	n/a	STOP	1307909	n/a	LTP283	ltpFR	8	n/a	n/a	n/a	n/a	n/a	n/a	n/a	n/a	n/a	n/a	n/a	n/a	n/a	n/a	n/a	n/a
2617.122	n/a	WORD	1308561	wordpools/wasnorm_wordpool_less_exclusions.txt	LTP283	ltpFR	8	8	0	TOOTHPASTE	1483	n/a	n/a	0	n/a	0	0	0	0.57763671875	0.412841796875	1	lower	zerothre.ttf
2620.134	n/a	START	1310067	n/a	LTP283	ltpFR	8	n/a	n/a	n/a	n/a	n/a	n/a	n/a	n/a	n/a	n/a	n/a	n/a	n/a	n/a	n/a	n/a
2620.986	n/a	PROB	1310493	n/a	LTP283	ltpFR	8	n/a	n/a	n/a	n/a	n/a	n/a	n/a	14	6	1	7	n/a	n/a	n/a	n/a	n/a
2623.142	n/a	PROB	1311571	n/a	LTP283	ltpFR	8	n/a	n/a	n/a	n/a	n/a	n/a	n/a	10	2	4	4	n/a	n/a	n/a	n/a	n/a
2624.698	n/a	PROB	1312349	n/a	LTP283	ltpFR	8	n/a	n/a	n/a	n/a	n/a	n/a	n/a	16	7	3	6	n/a	n/a	n/a	n/a	n/a
2626.052	n/a	PROB	1313026	n/a	LTP283	ltpFR	8	n/a	n/a	n/a	n/a	n/a	n/a	n/a	17	7	9	2	n/a	n/a	n/a	n/a	n/a
2628.428	n/a	PROB	1314214	n/a	LTP283	ltpFR	8	n/a	n/a	n/a	n/a	n/a	n/a	n/a	7	1	5	1	n/a	n/a	n/a	n/a	n/a
2630.402	n/a	PROB	1315201	n/a	LTP283	ltpFR	8	n/a	n/a	n/a	n/a	n/a	n/a	n/a	13	2	2	9	n/a	n/a	n/a	n/a	n/a
2632.128	n/a	PROB	1316064	n/a	LTP283	ltpFR	8	n/a	n/a	n/a	n/a	n/a	n/a	n/a	11	2	7	2	n/a	n/a	n/a	n/a	n/a
2636.124	n/a	STOP	1318062	n/a	LTP283	ltpFR	8	n/a	n/a	n/a	n/a	n/a	n/a	n/a	n/a	n/a	n/a	n/a	n/a	n/a	n/a	n/a	n/a
2636.996	n/a	WORD	1318498	wordpools/wasnorm_wordpool_less_exclusions.txt	LTP283	ltpFR	8	8	0	VEHICLE	1553	n/a	n/a	1	n/a	0	0	0	0.57763671875	0.412841796875	1	lower	zerothre.ttf
2640.01	n/a	START	1320005	n/a	LTP283	ltpFR	8	n/a	n/a	n/a	n/a	n/a	n/a	n/a	n/a	n/a	n/a	n/a	n/a	n/a	n/a	n/a	n/a
2641.062	n/a	PROB	1320531	n/a	LTP283	ltpFR	8	n/a	n/a	n/a	n/a	n/a	n/a	n/a	18	5	8	5	n/a	n/a	n/a	n/a	n/a
2642.584	n/a	PROB	1321292	n/a	LTP283	ltpFR	8	n/a	n/a	n/a	n/a	n/a	n/a	n/a	14	2	7	5	n/a	n/a	n/a	n/a	n/a
2645.146	n/a	PROB	1322573	n/a	LTP283	ltpFR	8	n/a	n/a	n/a	n/a	n/a	n/a	n/a	7	3	3	1	n/a	n/a	n/a	n/a	n/a
2646.634	n/a	PROB	1323317	n/a	LTP283	ltpFR	8	n/a	n/a	n/a	n/a	n/a	n/a	n/a	10	1	6	3	n/a	n/a	n/a	n/a	n/a
2648.424	n/a	PROB	1324212	n/a	LTP283	ltpFR	8	n/a	n/a	n/a	n/a	n/a	n/a	n/a	13	7	2	4	n/a	n/a	n/a	n/a	n/a
2650.078	n/a	PROB	1325039	n/a	LTP283	ltpFR	8	n/a	n/a	n/a	n/a	n/a	n/a	n/a	1121	3	9	9	n/a	n/a	n/a	n/a	n/a
2652.572	n/a	PROB	1326286	n/a	LTP283	ltpFR	8	n/a	n/a	n/a	n/a	n/a	n/a	n/a	13	3	3	7	n/a	n/a	n/a	n/a	n/a
2654.626	n/a	STOP	1327313	n/a	LTP283	ltpFR	8	n/a	n/a	n/a	n/a	n/a	n/a	n/a	n/a	n/a	n/a	n/a	n/a	n/a	n/a	n/a	n/a
2656.906	n/a	WORD	1328453	wordpools/wasnorm_wordpool_less_exclusions.txt	LTP283	ltpFR	8	8	0	SHOWER	1296	n/a	n/a	1	n/a	0	0	0	0.57763671875	0.412841796875	1	lower	zerothre.ttf
2659.918	n/a	START	1329959	n/a	LTP283	ltpFR	8	n/a	n/a	n/a	n/a	n/a	n/a	n/a	n/a	n/a	n/a	n/a	n/a	n/a	n/a	n/a	n/a
2660.922	n/a	PROB	1330461	n/a	LTP283	ltpFR	8	n/a	n/a	n/a	n/a	n/a	n/a	n/a	14	5	1	8	n/a	n/a	n/a	n/a	n/a
2662.796	n/a	PROB	1331398	n/a	LTP283	ltpFR	8	n/a	n/a	n/a	n/a	n/a	n/a	n/a	18	8	1	9	n/a	n/a	n/a	n/a	n/a
2664.55	n/a	PROB	1332275	n/a	LTP283	ltpFR	8	n/a	n/a	n/a	n/a	n/a	n/a	n/a	13	1	3	9	n/a	n/a	n/a	n/a	n/a
2666.962	n/a	PROB	1333481	n/a	LTP283	ltpFR	8	n/a	n/a	n/a	n/a	n/a	n/a	n/a	14	5	7	2	n/a	n/a	n/a	n/a	n/a
2669.036	n/a	PROB	1334518	n/a	LTP283	ltpFR	8	n/a	n/a	n/a	n/a	n/a	n/a	n/a	13	3	8	2	n/a	n/a	n/a	n/a	n/a
2670.224	n/a	PROB	1335112	n/a	LTP283	ltpFR	8	n/a	n/a	n/a	n/a	n/a	n/a	n/a	20	5	7	8	n/a	n/a	n/a	n/a	n/a
2672.298	n/a	PROB	1336149	n/a	LTP283	ltpFR	8	n/a	n/a	n/a	n/a	n/a	n/a	n/a	17	2	7	8	n/a	n/a	n/a	n/a	n/a
2674.452	n/a	STOP	1337226	n/a	LTP283	ltpFR	8	n/a	n/a	n/a	n/a	n/a	n/a	n/a	n/a	n/a	n/a	n/a	n/a	n/a	n/a	n/a	n/a
2676.798	n/a	WORD	1338399	wordpools/wasnorm_wordpool_less_exclusions.txt	LTP283	ltpFR	8	8	0	FINGERNAIL	568	n/a	n/a	0	n/a	0	0	0	0.57763671875	0.412841796875	1	lower	zerothre.ttf
2679.81	n/a	START	1339905	n/a	LTP283	ltpFR	8	n/a	n/a	n/a	n/a	n/a	n/a	n/a	n/a	n/a	n/a	n/a	n/a	n/a	n/a	n/a	n/a
2680.812	n/a	PROB	1340406	n/a	LTP283	ltpFR	8	n/a	n/a	n/a	n/a	n/a	n/a	n/a	16	2	6	8	n/a	n/a	n/a	n/a	n/a
2682.79	n/a	PROB	1341395	n/a	LTP283	ltpFR	8	n/a	n/a	n/a	n/a	n/a	n/a	n/a	19	4	8	7	n/a	n/a	n/a	n/a	n/a
2685.162	n/a	PROB	1342581	n/a	LTP283	ltpFR	8	n/a	n/a	n/a	n/a	n/a	n/a	n/a	13	1	7	5	n/a	n/a	n/a	n/a	n/a
2687.422	n/a	PROB	1343711	n/a	LTP283	ltpFR	8	n/a	n/a	n/a	n/a	n/a	n/a	n/a	16	3	5	8	n/a	n/a	n/a	n/a	n/a
2689.26	n/a	PROB	1344630	n/a	LTP283	ltpFR	8	n/a	n/a	n/a	n/a	n/a	n/a	n/a	12	2	7	3	n/a	n/a	n/a	n/a	n/a
2690.484	n/a	PROB	1345242	n/a	LTP283	ltpFR	8	n/a	n/a	n/a	n/a	n/a	n/a	n/a	20	7	6	7	n/a	n/a	n/a	n/a	n/a
2692.124	n/a	PROB	1346062	n/a	LTP283	ltpFR	8	n/a	n/a	n/a	n/a	n/a	n/a	n/a	17	2	8	7	n/a	n/a	n/a	n/a	n/a
2694.298	n/a	PROB	1347149	n/a	LTP283	ltpFR	8	n/a	n/a	n/a	n/a	n/a	n/a	n/a	16	8	6	2	n/a	n/a	n/a	n/a	n/a
2695.644	n/a	STOP	1347822	n/a	LTP283	ltpFR	8	n/a	n/a	n/a	n/a	n/a	n/a	n/a	n/a	n/a	n/a	n/a	n/a	n/a	n/a	n/a	n/a
2697.714	n/a	REC_START	1348857	n/a	LTP283	ltpFR	8	8	n/a	n/a	n/a	n/a	n/a	n/a	n/a	0	0	0	n/a	n/a	n/a	n/a	n/a
2701.234	n/a	REC_WORD	1350617	wordpools/wasnorm_wordpool_less_exclusions.txt	LTP283	ltpFR	8	8	0	FINGERNAIL	568	n/a	n/a	0	n/a	0	0	0	n/a	n/a	n/a	n/a	n/a
2702.832	n/a	REC_WORD	1351416	wordpools/wasnorm_wordpool_less_exclusions.txt	LTP283	ltpFR	8	8	0	TOOTHPASTE	1483	n/a	n/a	0	n/a	0	0	0	n/a	n/a	n/a	n/a	n/a
2706.448	n/a	REC_WORD	1353224	wordpools/wasnorm_wordpool_less_exclusions.txt	LTP283	ltpFR	8	8	0	COBRA	336	n/a	n/a	1	n/a	0	0	0	n/a	n/a	n/a	n/a	n/a
2707.738	n/a	REC_WORD	1353869	wordpools/wasnorm_wordpool_less_exclusions.txt	LTP283	ltpFR	8	8	0	SNAKE	1333	n/a	n/a	1	n/a	0	0	0	n/a	n/a	n/a	n/a	n/a
2710.704	n/a	REC_WORD	1355352	wordpools/wasnorm_wordpool_less_exclusions.txt	LTP283	ltpFR	8	8	0	BACKBONE	66	n/a	n/a	1	n/a	0	0	0	n/a	n/a	n/a	n/a	n/a
2754.844	n/a	REC_WORD	1377422	wordpools/wasnorm_wordpool_less_exclusions.txt	LTP283	ltpFR	8	8	1	GENERAL	630	n/a	n/a	1	n/a	0	0	0	n/a	n/a	n/a	n/a	n/a
2785.58	n/a	WORD	1392790	wordpools/wasnorm_wordpool_less_exclusions.txt	LTP283	ltpFR	8	9	0	STEAM	1375	n/a	n/a	1	n/a	0	0	0	0.57763671875	0.412841796875	1	lower	zerothre.ttf
2789.546	n/a	WORD	1394773	wordpools/wasnorm_wordpool_less_exclusions.txt	LTP283	ltpFR	8	9	0	ENEMY	534	n/a	n/a	1	n/a	0	0	0	0.57763671875	0.412841796875	1	lower	zerothre.ttf
2793.394	n/a	WORD	1396697	wordpools/wasnorm_wordpool_less_exclusions.txt	LTP283	ltpFR	8	9	0	VISITOR	1573	n/a	n/a	1	n/a	0	0	0	0.57763671875	0.412841796875	1	lower	zerothre.ttf
2797.56	n/a	WORD	1398780	wordpools/wasnorm_wordpool_less_exclusions.txt	LTP283	ltpFR	8	9	1	KEG	770	n/a	n/a	0	n/a	0	0	0	0.422607421875	0.5869140625	0	upper	amplitud.ttf
2801.692	n/a	WORD	1400846	wordpools/wasnorm_wordpool_less_exclusions.txt	LTP283	ltpFR	8	9	1	SENATOR	1268	n/a	n/a	1	n/a	0	0	0	0.422607421875	0.5869140625	0	upper	amplitud.ttf
2805.572	n/a	WORD	1402786	wordpools/wasnorm_wordpool_less_exclusions.txt	LTP283	ltpFR	8	9	0	SAUSAGE	1238	n/a	n/a	0	n/a	0	0	0	0.57763671875	0.412841796875	1	lower	zerothre.ttf
2809.758	n/a	WORD	1404879	wordpools/wasnorm_wordpool_less_exclusions.txt	LTP283	ltpFR	8	9	0	MOSQUITO	917	n/a	n/a	0	n/a	0	0	0	0.57763671875	0.412841796875	1	lower	zerothre.ttf
2813.872	n/a	WORD	1406936	wordpools/wasnorm_wordpool_less_exclusions.txt	LTP283	ltpFR	8	9	0	BARTENDER	92	n/a	n/a	1	n/a	0	0	0	0.57763671875	0.412841796875	1	lower	zerothre.ttf
2817.788	n/a	WORD	1408894	wordpools/wasnorm_wordpool_less_exclusions.txt	LTP283	ltpFR	8	9	1	FREEWAY	603	n/a	n/a	0	n/a	0	0	0	0.422607421875	0.5869140625	0	upper	amplitud.ttf
2821.904	n/a	WORD	1410952	wordpools/wasnorm_wordpool_less_exclusions.txt	LTP283	ltpFR	8	9	1	DIARY	460	n/a	n/a	0	n/a	0	0	0	0.422607421875	0.5869140625	0	upper	amplitud.ttf
2825.836	n/a	WORD	1412918	wordpools/wasnorm_wordpool_less_exclusions.txt	LTP283	ltpFR	8	9	1	BEETLE	116	n/a	n/a	1	n/a	0	0	0	0.422607421875	0.5869140625	0	upper	amplitud.ttf
2829.784	n/a	WORD	1414892	wordpools/wasnorm_wordpool_less_exclusions.txt	LTP283	ltpFR	8	9	1	FRAGRANCE	599	n/a	n/a	0	n/a	0	0	0	0.422607421875	0.5869140625	0	upper	amplitud.ttf
2833.632	n/a	WORD	1416816	wordpools/wasnorm_wordpool_less_exclusions.txt	LTP283	ltpFR	8	9	1	ONION	977	n/a	n/a	1	n/a	0	0	0	0.422607421875	0.5869140625	0	upper	amplitud.ttf
2837.496	n/a	WORD	1418748	wordpools/wasnorm_wordpool_less_exclusions.txt	LTP283	ltpFR	8	9	1	BIBLE	124	n/a	n/a	0	n/a	0	0	0	0.422607421875	0.5869140625	0	upper	amplitud.ttf
2841.342	n/a	WORD	1420671	wordpools/wasnorm_wordpool_less_exclusions.txt	LTP283	ltpFR	8	9	0	PISTON	1076	n/a	n/a	1	n/a	0	0	0	0.57763671875	0.412841796875	1	lower	zerothre.ttf
2845.408	n/a	WORD	1422704	wordpools/wasnorm_wordpool_less_exclusions.txt	LTP283	ltpFR	8	9	0	STAPLE	1371	n/a	n/a	0	n/a	0	0	0	0.57763671875	0.412841796875	1	lower	zerothre.ttf
2851.066	n/a	REC_START	1425533	n/a	LTP283	ltpFR	8	9	n/a	n/a	n/a	n/a	n/a	n/a	n/a	0	0	0	n/a	n/a	n/a	n/a	n/a
2853.12	n/a	REC_WORD	1426560	wordpools/wasnorm_wordpool_less_exclusions.txt	LTP283	ltpFR	8	9	0	STAPLE	1371	n/a	n/a	0	n/a	0	0	0	n/a	n/a	n/a	n/a	n/a
2854.976	n/a	REC_WORD	1427488	wordpools/wasnorm_wordpool_less_exclusions.txt	LTP283	ltpFR	8	9	1	BIBLE	124	n/a	n/a	0	n/a	0	0	0	n/a	n/a	n/a	n/a	n/a
2857.036	n/a	REC_WORD	1428518	wordpools/wasnorm_wordpool_less_exclusions.txt	LTP283	ltpFR	8	9	0	PISTON	1076	n/a	n/a	1	n/a	0	0	0	n/a	n/a	n/a	n/a	n/a
2859.966	n/a	REC_WORD	1429983	wordpools/wasnorm_wordpool_less_exclusions.txt	LTP283	ltpFR	8	9	1	ONION	977	n/a	n/a	1	n/a	0	0	0	n/a	n/a	n/a	n/a	n/a
2861.288	n/a	REC_WORD	1430644	wordpools/wasnorm_wordpool_less_exclusions.txt	LTP283	ltpFR	8	9	1	FRAGRANCE	599	n/a	n/a	0	n/a	0	0	0	n/a	n/a	n/a	n/a	n/a
2863.266	n/a	REC_WORD	1431633	wordpools/wasnorm_wordpool_less_exclusions.txt	LTP283	ltpFR	8	9	0	SAUSAGE	1238	n/a	n/a	0	n/a	0	0	0	n/a	n/a	n/a	n/a	n/a
2866.75	n/a	REC_WORD	1433375	wordpools/wasnorm_wordpool_less_exclusions.txt	LTP283	ltpFR	8	9	1	KEG	770	n/a	n/a	0	n/a	0	0	0	n/a	n/a	n/a	n/a	n/a
2869.768	n/a	REC_WORD	1434884	wordpools/wasnorm_wordpool_less_exclusions.txt	LTP283	ltpFR	8	9	1	SENATOR	1268	n/a	n/a	1	n/a	0	0	0	n/a	n/a	n/a	n/a	n/a
2871.934	n/a	REC_WORD	1435967	wordpools/wasnorm_wordpool_less_exclusions.txt	LTP283	ltpFR	8	9	0	VISITOR	1573	n/a	n/a	1	n/a	0	0	0	n/a	n/a	n/a	n/a	n/a
2873.332	n/a	REC_WORD	1436666	wordpools/wasnorm_wordpool_less_exclusions.txt	LTP283	ltpFR	8	9	0	ENEMY	534	n/a	n/a	1	n/a	0	0	0	n/a	n/a	n/a	n/a	n/a
2880.442	n/a	REC_WORD	1440221	wordpools/wasnorm_wordpool_less_exclusions.txt	LTP283	ltpFR	8	9	1	DIARY	460	n/a	n/a	0	n/a	0	0	0	n/a	n/a	n/a	n/a	n/a
2889.966	n/a	REC_WORD	1444983	wordpools/wasnorm_wordpool_less_exclusions.txt	LTP283	ltpFR	8	9	1	BEETLE	116	n/a	n/a	1	n/a	0	0	0	n/a	n/a	n/a	n/a	n/a
2904.616	n/a	REC_WORD	1452308	wordpools/wasnorm_wordpool_less_exclusions.txt	LTP283	ltpFR	8	9	0	VISITOR	1573	n/a	n/a	1	n/a	0	0	0	n/a	n/a	n/a	n/a	n/a
2914.956	n/a	REC_WORD	1457478	wordpools/wasnorm_wordpool_less_exclusions.txt	LTP283	ltpFR	8	9	0	STEAM	1375	n/a	n/a	1	n/a	0	0	0	n/a	n/a	n/a	n/a	n/a
2932.576	n/a	START	1466288	n/a	LTP283	ltpFR	8	n/a	n/a	n/a	n/a	n/a	n/a	n/a	n/a	n/a	n/a	n/a	n/a	n/a	n/a	n/a	n/a
2934.082	n/a	PROB	1467041	n/a	LTP283	ltpFR	8	n/a	n/a	n/a	n/a	n/a	n/a	n/a	17	8	1	8	n/a	n/a	n/a	n/a	n/a
2935.904	n/a	PROB	1467952	n/a	LTP283	ltpFR	8	n/a	n/a	n/a	n/a	n/a	n/a	n/a	14	3	2	9	n/a	n/a	n/a	n/a	n/a
2937.542	n/a	PROB	1468771	n/a	LTP283	ltpFR	8	n/a	n/a	n/a	n/a	n/a	n/a	n/a	17	9	6	2	n/a	n/a	n/a	n/a	n/a
2939.386	n/a	STOP	1469693	n/a	LTP283	ltpFR	8	n/a	n/a	n/a	n/a	n/a	n/a	n/a	n/a	n/a	n/a	n/a	n/a	n/a	n/a	n/a	n/a
2941.626	n/a	WORD	1470813	wordpools/wasnorm_wordpool_less_exclusions.txt	LTP283	ltpFR	8	10	0	CLOUD	328	n/a	n/a	1	n/a	0	0	0	0.57763671875	0.412841796875	1	lower	zerothre.ttf
2944.638	n/a	START	1472319	n/a	LTP283	ltpFR	8	n/a	n/a	n/a	n/a	n/a	n/a	n/a	n/a	n/a	n/a	n/a	n/a	n/a	n/a	n/a	n/a
2945.808	n/a	PROB	1472904	n/a	LTP283	ltpFR	8	n/a	n/a	n/a	n/a	n/a	n/a	n/a	12	8	2	2	n/a	n/a	n/a	n/a	n/a
2947.266	n/a	PROB	1473633	n/a	LTP283	ltpFR	8	n/a	n/a	n/a	n/a	n/a	n/a	n/a	12	6	4	2	n/a	n/a	n/a	n/a	n/a
2948.434	n/a	PROB	1474217	n/a	LTP283	ltpFR	8	n/a	n/a	n/a	n/a	n/a	n/a	n/a	13	9	1	3	n/a	n/a	n/a	n/a	n/a
2951.196	n/a	STOP	1475598	n/a	LTP283	ltpFR	8	n/a	n/a	n/a	n/a	n/a	n/a	n/a	n/a	n/a	n/a	n/a	n/a	n/a	n/a	n/a	n/a
2953.556	n/a	WORD	1476778	wordpools/wasnorm_wordpool_less_exclusions.txt	LTP283	ltpFR	8	10	0	CRATER	400	n/a	n/a	1	n/a	0	0	0	0.57763671875	0.412841796875	1	lower	zerothre.ttf
2956.568	n/a	START	1478284	n/a	LTP283	ltpFR	8	n/a	n/a	n/a	n/a	n/a	n/a	n/a	n/a	n/a	n/a	n/a	n/a	n/a	n/a	n/a	n/a
2957.454	n/a	PROB	1478727	n/a	LTP283	ltpFR	8	n/a	n/a	n/a	n/a	n/a	n/a	n/a	24	9	6	9	n/a	n/a	n/a	n/a	n/a
2960.85	n/a	PROB	1480425	n/a	LTP283	ltpFR	8	n/a	n/a	n/a	n/a	n/a	n/a	n/a	16	8	4	4	n/a	n/a	n/a	n/a	n/a
2963.354	n/a	STOP	1481677	n/a	LTP283	ltpFR	8	n/a	n/a	n/a	n/a	n/a	n/a	n/a	n/a	n/a	n/a	n/a	n/a	n/a	n/a	n/a	n/a
2965.552	n/a	WORD	1482776	wordpools/wasnorm_wordpool_less_exclusions.txt	LTP283	ltpFR	8	10	0	PIZZA	1079	n/a	n/a	1	n/a	0	0	0	0.57763671875	0.412841796875	1	lower	zerothre.ttf
2968.564	n/a	START	1484282	n/a	LTP283	ltpFR	8	n/a	n/a	n/a	n/a	n/a	n/a	n/a	n/a	n/a	n/a	n/a	n/a	n/a	n/a	n/a	n/a
2969.498	n/a	PROB	1484749	n/a	LTP283	ltpFR	8	n/a	n/a	n/a	n/a	n/a	n/a	n/a	11	6	4	1	n/a	n/a	n/a	n/a	n/a
2970.938	n/a	PROB	1485469	n/a	LTP283	ltpFR	8	n/a	n/a	n/a	n/a	n/a	n/a	n/a	8	6	1	1	n/a	n/a	n/a	n/a	n/a
2972.796	n/a	PROB	1486398	n/a	LTP283	ltpFR	8	n/a	n/a	n/a	n/a	n/a	n/a	n/a	17	9	3	5	n/a	n/a	n/a	n/a	n/a
2976.564	n/a	STOP	1488282	n/a	LTP283	ltpFR	8	n/a	n/a	n/a	n/a	n/a	n/a	n/a	n/a	n/a	n/a	n/a	n/a	n/a	n/a	n/a	n/a
2977.662	n/a	WORD	1488831	wordpools/wasnorm_wordpool_less_exclusions.txt	LTP283	ltpFR	8	10	0	HUT	729	n/a	n/a	1	n/a	0	0	0	0.57763671875	0.412841796875	1	lower	zerothre.ttf
