mstime	trial_type	stim_file	subject	experiment	session	trial	task	item_name	item_num	recog_resp	recog_conf	resp	color_r	color_g	color_b	case	font
0	SESS_START	n/a	LTP211	ltpFR	3	n/a	n/a	n/a	n/a	0	1	n/a	n/a	n/a	n/a	n/a	n/a
55213	WORD	wordpools/wasnorm_wordpool_less_exclusions.txt	LTP211	ltpFR	3	1	0	MOUTH	926	0	n/a	0	0.57763671875	0.412841796875	1	lower	amplitud.ttf
59424	WORD	wordpools/wasnorm_wordpool_less_exclusions.txt	LTP211	ltpFR	3	1	0	COSTUME	383	1	n/a	1	0.57763671875	0.412841796875	1	lower	amplitud.ttf
63476	WORD	wordpools/wasnorm_wordpool_less_exclusions.txt	LTP211	ltpFR	3	1	0	TRAITOR	1495	n/a	n/a	1	0.57763671875	0.412841796875	1	lower	amplitud.ttf
67609	WORD	wordpools/wasnorm_wordpool_less_exclusions.txt	LTP211	ltpFR	3	1	0	TOILET	1475	n/a	n/a	1	0.57763671875	0.412841796875	1	lower	amplitud.ttf
71825	WORD	wordpools/wasnorm_wordpool_less_exclusions.txt	LTP211	ltpFR	3	1	1	CLAMP	316	n/a	n/a	0	0.422607421875	0.5869140625	0	upper	zerothre.ttf
75873	WORD	wordpools/wasnorm_wordpool_less_exclusions.txt	LTP211	ltpFR	3	1	1	KEY	773	n/a	n/a	0	0.422607421875	0.5869140625	0	upper	zerothre.ttf
79922	WORD	wordpools/wasnorm_wordpool_less_exclusions.txt	LTP211	ltpFR	3	1	0	ELECTRICIAN	521	n/a	n/a	1	0.57763671875	0.412841796875	1	lower	amplitud.ttf
84071	WORD	wordpools/wasnorm_wordpool_less_exclusions.txt	LTP211	ltpFR	3	1	0	DRESS	495	n/a	n/a	1	0.57763671875	0.412841796875	1	lower	amplitud.ttf
88069	WORD	wordpools/wasnorm_wordpool_less_exclusions.txt	LTP211	ltpFR	3	1	0	JAW	751	n/a	n/a	0	0.57763671875	0.412841796875	1	lower	amplitud.ttf
92064	WORD	wordpools/wasnorm_wordpool_less_exclusions.txt	LTP211	ltpFR	3	1	0	WIRE	1616	n/a	n/a	0	0.57763671875	0.412841796875	1	lower	amplitud.ttf
96234	WORD	wordpools/wasnorm_wordpool_less_exclusions.txt	LTP211	ltpFR	3	1	1	RELATIVE	1182	n/a	n/a	1	0.422607421875	0.5869140625	0	upper	zerothre.ttf
100428	WORD	wordpools/wasnorm_wordpool_less_exclusions.txt	LTP211	ltpFR	3	1	1	STOOL	1386	n/a	n/a	0	0.422607421875	0.5869140625	0	upper	zerothre.ttf
104414	WORD	wordpools/wasnorm_wordpool_less_exclusions.txt	LTP211	ltpFR	3	1	1	MARINE	869	n/a	n/a	1	0.422607421875	0.5869140625	0	upper	zerothre.ttf
108379	WORD	wordpools/wasnorm_wordpool_less_exclusions.txt	LTP211	ltpFR	3	1	1	SUBMARINE	1398	n/a	n/a	0	0.422607421875	0.5869140625	0	upper	zerothre.ttf
112478	WORD	wordpools/wasnorm_wordpool_less_exclusions.txt	LTP211	ltpFR	3	1	1	ANIMAL	23	n/a	n/a	1	0.422607421875	0.5869140625	0	upper	zerothre.ttf
116455	WORD	wordpools/wasnorm_wordpool_less_exclusions.txt	LTP211	ltpFR	3	1	1	RAM	1165	n/a	n/a	1	0.422607421875	0.5869140625	0	upper	zerothre.ttf
122351	REC_START	n/a	LTP211	ltpFR	3	1	n/a	n/a	n/a	n/a	n/a	n/a	n/a	n/a	n/a	n/a	n/a
123947	REC_WORD	wordpools/wasnorm_wordpool_less_exclusions.txt	LTP211	ltpFR	3	1	0	MOUTH	926	n/a	n/a	0	n/a	n/a	n/a	n/a	n/a
125065	REC_WORD	wordpools/wasnorm_wordpool_less_exclusions.txt	LTP211	ltpFR	3	1	0	COSTUME	383	n/a	n/a	1	n/a	n/a	n/a	n/a	n/a
126544	REC_WORD	wordpools/wasnorm_wordpool_less_exclusions.txt	LTP211	ltpFR	3	1	0	TRAITOR	1495	n/a	n/a	1	n/a	n/a	n/a	n/a	n/a
128534	REC_WORD	wordpools/wasnorm_wordpool_less_exclusions.txt	LTP211	ltpFR	3	1	0	TOILET	1475	n/a	n/a	1	n/a	n/a	n/a	n/a	n/a
131390	REC_WORD	wordpools/wasnorm_wordpool_less_exclusions.txt	LTP211	ltpFR	3	1	1	CLAMP	316	n/a	n/a	0	n/a	n/a	n/a	n/a	n/a
137723	REC_WORD	wordpools/wasnorm_wordpool_less_exclusions.txt	LTP211	ltpFR	3	1	1	KEY	773	n/a	n/a	0	n/a	n/a	n/a	n/a	n/a
139437	REC_WORD	wordpools/wasnorm_wordpool_less_exclusions.txt	LTP211	ltpFR	3	1	0	ELECTRICIAN	521	n/a	n/a	1	n/a	n/a	n/a	n/a	n/a
143568	REC_WORD	wordpools/wasnorm_wordpool_less_exclusions.txt	LTP211	ltpFR	3	1	0	JAW	751	n/a	n/a	0	n/a	n/a	n/a	n/a	n/a
144780	REC_WORD	wordpools/wasnorm_wordpool_less_exclusions.txt	LTP211	ltpFR	3	1	0	WIRE	1616	n/a	n/a	0	n/a	n/a	n/a	n/a	n/a
147911	REC_WORD	wordpools/wasnorm_wordpool_less_exclusions.txt	LTP211	ltpFR	3	1	1	MARINE	869	n/a	n/a	1	n/a	n/a	n/a	n/a	n/a
149599	REC_WORD	wordpools/wasnorm_wordpool_less_exclusions.txt	LTP211	ltpFR	3	1	1	SUBMARINE	1398	n/a	n/a	0	n/a	n/a	n/a	n/a	n/a
151655	REC_WORD	wordpools/wasnorm_wordpool_less_exclusions.txt	LTP211	ltpFR	3	1	1	RELATIVE	1182	n/a	n/a	1	n/a	n/a	n/a	n/a	n/a
152886	REC_WORD	wordpools/wasnorm_wordpool_less_exclusions.txt	LTP211	ltpFR	3	1	1	STOOL	1386	n/a	n/a	0	n/a	n/a	n/a	n/a	n/a
154598	REC_WORD	wordpools/wasnorm_wordpool_less_exclusions.txt	LTP211	ltpFR	3	1	1	ANIMAL	23	n/a	n/a	1	n/a	n/a	n/a	n/a	n/a
155932	REC_WORD	wordpools/wasnorm_wordpool_less_exclusions.txt	LTP211	ltpFR	3	1	1	RAM	1165	n/a	n/a	1	n/a	n/a	n/a	n/a	n/a
180249	REC_WORD	wordpools/wasnorm_wordpool_less_exclusions.txt	LTP211	ltpFR	3	1	0	DRESS	495	n/a	n/a	1	n/a	n/a	n/a	n/a	n/a
202200	WORD	wordpools/wasnorm_wordpool_less_exclusions.txt	LTP211	ltpFR	3	2	1	GOAT	644	n/a	n/a	1	0.422607421875	0.5869140625	0	upper	zerothre.ttf
206182	WORD	wordpools/wasnorm_wordpool_less_exclusions.txt	LTP211	ltpFR	3	2	1	ZOO	1637	n/a	n/a	0	0.422607421875	0.5869140625	0	upper	zerothre.ttf
210294	WORD	wordpools/wasnorm_wordpool_less_exclusions.txt	LTP211	ltpFR	3	2	1	RAKE	1164	n/a	n/a	0	0.422607421875	0.5869140625	0	upper	zerothre.ttf
214179	WORD	wordpools/wasnorm_wordpool_less_exclusions.txt	LTP211	ltpFR	3	2	0	FRIEND	606	n/a	n/a	1	0.57763671875	0.412841796875	1	lower	amplitud.ttf
218089	WORD	wordpools/wasnorm_wordpool_less_exclusions.txt	LTP211	ltpFR	3	2	0	MATCH	878	n/a	n/a	0	0.57763671875	0.412841796875	1	lower	amplitud.ttf
222192	WORD	wordpools/wasnorm_wordpool_less_exclusions.txt	LTP211	ltpFR	3	2	0	LOBSTER	837	n/a	n/a	0	0.57763671875	0.412841796875	1	lower	amplitud.ttf
226308	WORD	wordpools/wasnorm_wordpool_less_exclusions.txt	LTP211	ltpFR	3	2	0	CYLINDER	432	n/a	n/a	0	0.57763671875	0.412841796875	1	lower	amplitud.ttf
230456	WORD	wordpools/wasnorm_wordpool_less_exclusions.txt	LTP211	ltpFR	3	2	0	OVAL	990	n/a	n/a	0	0.57763671875	0.412841796875	1	lower	amplitud.ttf
234605	WORD	wordpools/wasnorm_wordpool_less_exclusions.txt	LTP211	ltpFR	3	2	1	SHARK	1275	n/a	n/a	1	0.422607421875	0.5869140625	0	upper	zerothre.ttf
238750	WORD	wordpools/wasnorm_wordpool_less_exclusions.txt	LTP211	ltpFR	3	2	1	GRASS	655	n/a	n/a	1	0.422607421875	0.5869140625	0	upper	zerothre.ttf
242702	WORD	wordpools/wasnorm_wordpool_less_exclusions.txt	LTP211	ltpFR	3	2	1	MOWER	928	n/a	n/a	0	0.422607421875	0.5869140625	0	upper	zerothre.ttf
246633	WORD	wordpools/wasnorm_wordpool_less_exclusions.txt	LTP211	ltpFR	3	2	1	TREE	1502	n/a	n/a	1	0.422607421875	0.5869140625	0	upper	zerothre.ttf
250745	WORD	wordpools/wasnorm_wordpool_less_exclusions.txt	LTP211	ltpFR	3	2	1	FOE	587	n/a	n/a	1	0.422607421875	0.5869140625	0	upper	zerothre.ttf
254580	WORD	wordpools/wasnorm_wordpool_less_exclusions.txt	LTP211	ltpFR	3	2	0	APARTMENT	30	n/a	n/a	1	0.57763671875	0.412841796875	1	lower	amplitud.ttf
258695	WORD	wordpools/wasnorm_wordpool_less_exclusions.txt	LTP211	ltpFR	3	2	0	KANGAROO	768	n/a	n/a	1	0.57763671875	0.412841796875	1	lower	amplitud.ttf
262577	WORD	wordpools/wasnorm_wordpool_less_exclusions.txt	LTP211	ltpFR	3	2	0	VIOLIN	1571	n/a	n/a	1	0.57763671875	0.412841796875	1	lower	amplitud.ttf
268362	REC_START	n/a	LTP211	ltpFR	3	2	n/a	n/a	n/a	n/a	n/a	n/a	n/a	n/a	n/a	n/a	n/a
270726	REC_WORD	wordpools/wasnorm_wordpool_less_exclusions.txt	LTP211	ltpFR	3	2	1	GOAT	644	n/a	n/a	1	n/a	n/a	n/a	n/a	n/a
271744	REC_WORD	wordpools/wasnorm_wordpool_less_exclusions.txt	LTP211	ltpFR	3	2	1	ZOO	1637	n/a	n/a	0	n/a	n/a	n/a	n/a	n/a
272880	REC_WORD	wordpools/wasnorm_wordpool_less_exclusions.txt	LTP211	ltpFR	3	2	1	RAKE	1164	n/a	n/a	0	n/a	n/a	n/a	n/a	n/a
274162	REC_WORD	wordpools/wasnorm_wordpool_less_exclusions.txt	LTP211	ltpFR	3	2	0	FRIEND	606	n/a	n/a	1	n/a	n/a	n/a	n/a	n/a
276463	REC_WORD	wordpools/wasnorm_wordpool_less_exclusions.txt	LTP211	ltpFR	3	2	0	MATCH	878	n/a	n/a	0	n/a	n/a	n/a	n/a	n/a
277671	REC_WORD	wordpools/wasnorm_wordpool_less_exclusions.txt	LTP211	ltpFR	3	2	0	LOBSTER	837	n/a	n/a	0	n/a	n/a	n/a	n/a	n/a
278964	REC_WORD	wordpools/wasnorm_wordpool_less_exclusions.txt	LTP211	ltpFR	3	2	0	CYLINDER	432	n/a	n/a	0	n/a	n/a	n/a	n/a	n/a
280752	REC_WORD	wordpools/wasnorm_wordpool_less_exclusions.txt	LTP211	ltpFR	3	2	0	OVAL	990	n/a	n/a	0	n/a	n/a	n/a	n/a	n/a
286775	REC_WORD	wordpools/wasnorm_wordpool_less_exclusions.txt	LTP211	ltpFR	3	2	1	SHARK	1275	n/a	n/a	1	n/a	n/a	n/a	n/a	n/a
288635	REC_WORD	wordpools/wasnorm_wordpool_less_exclusions.txt	LTP211	ltpFR	3	2	1	GRASS	655	n/a	n/a	1	n/a	n/a	n/a	n/a	n/a
290033	REC_WORD	wordpools/wasnorm_wordpool_less_exclusions.txt	LTP211	ltpFR	3	2	1	MOWER	928	n/a	n/a	0	n/a	n/a	n/a	n/a	n/a
291559	REC_WORD	wordpools/wasnorm_wordpool_less_exclusions.txt	LTP211	ltpFR	3	2	1	TREE	1502	n/a	n/a	1	n/a	n/a	n/a	n/a	n/a
293084	REC_WORD	wordpools/wasnorm_wordpool_less_exclusions.txt	LTP211	ltpFR	3	2	1	FOE	587	n/a	n/a	1	n/a	n/a	n/a	n/a	n/a
300184	REC_WORD	wordpools/wasnorm_wordpool_less_exclusions.txt	LTP211	ltpFR	3	2	0	APARTMENT	30	n/a	n/a	1	n/a	n/a	n/a	n/a	n/a
303492	REC_WORD	wordpools/wasnorm_wordpool_less_exclusions.txt	LTP211	ltpFR	3	2	0	KANGAROO	768	n/a	n/a	1	n/a	n/a	n/a	n/a	n/a
304799	REC_WORD	wordpools/wasnorm_wordpool_less_exclusions.txt	LTP211	ltpFR	3	2	0	VIOLIN	1571	n/a	n/a	1	n/a	n/a	n/a	n/a	n/a
347331	WORD	wordpools/wasnorm_wordpool_less_exclusions.txt	LTP211	ltpFR	3	3	0	FLESH	579	n/a	n/a	1	0.57763671875	0.412841796875	1	lower	amplitud.ttf
351428	WORD	wordpools/wasnorm_wordpool_less_exclusions.txt	LTP211	ltpFR	3	3	0	KLEENEX	782	n/a	n/a	0	0.57763671875	0.412841796875	1	lower	amplitud.ttf
355561	WORD	wordpools/wasnorm_wordpool_less_exclusions.txt	LTP211	ltpFR	3	3	1	COP	376	n/a	n/a	1	0.422607421875	0.5869140625	0	upper	zerothre.ttf
359592	WORD	wordpools/wasnorm_wordpool_less_exclusions.txt	LTP211	ltpFR	3	3	1	NAPKIN	937	n/a	n/a	0	0.422607421875	0.5869140625	0	upper	zerothre.ttf
363691	WORD	wordpools/wasnorm_wordpool_less_exclusions.txt	LTP211	ltpFR	3	3	1	HERO	706	n/a	n/a	1	0.422607421875	0.5869140625	0	upper	zerothre.ttf
367769	WORD	wordpools/wasnorm_wordpool_less_exclusions.txt	LTP211	ltpFR	3	3	1	BLACKBERRY	132	n/a	n/a	1	0.422607421875	0.5869140625	0	upper	zerothre.ttf
371634	WORD	wordpools/wasnorm_wordpool_less_exclusions.txt	LTP211	ltpFR	3	3	0	WORM	1623	n/a	n/a	0	0.57763671875	0.412841796875	1	lower	amplitud.ttf
375686	WORD	wordpools/wasnorm_wordpool_less_exclusions.txt	LTP211	ltpFR	3	3	0	POCKETBOOK	1094	n/a	n/a	0	0.57763671875	0.412841796875	1	lower	amplitud.ttf
379534	WORD	wordpools/wasnorm_wordpool_less_exclusions.txt	LTP211	ltpFR	3	3	0	SHERIFF	1284	n/a	n/a	1	0.57763671875	0.412841796875	1	lower	amplitud.ttf
383466	WORD	wordpools/wasnorm_wordpool_less_exclusions.txt	LTP211	ltpFR	3	3	1	CHEMIST	292	n/a	n/a	1	0.422607421875	0.5869140625	0	upper	zerothre.ttf
387682	WORD	wordpools/wasnorm_wordpool_less_exclusions.txt	LTP211	ltpFR	3	3	1	FLASK	576	n/a	n/a	0	0.422607421875	0.5869140625	0	upper	zerothre.ttf
391613	WORD	wordpools/wasnorm_wordpool_less_exclusions.txt	LTP211	ltpFR	3	3	1	FOLDER	588	n/a	n/a	0	0.422607421875	0.5869140625	0	upper	zerothre.ttf
395545	WORD	wordpools/wasnorm_wordpool_less_exclusions.txt	LTP211	ltpFR	3	3	1	EARTH	515	n/a	n/a	0	0.422607421875	0.5869140625	0	upper	zerothre.ttf
399392	WORD	wordpools/wasnorm_wordpool_less_exclusions.txt	LTP211	ltpFR	3	3	0	SECRETARY	1265	n/a	n/a	1	0.57763671875	0.412841796875	1	lower	amplitud.ttf
403374	WORD	wordpools/wasnorm_wordpool_less_exclusions.txt	LTP211	ltpFR	3	3	0	DUSTPAN	509	n/a	n/a	0	0.57763671875	0.412841796875	1	lower	amplitud.ttf
407439	WORD	wordpools/wasnorm_wordpool_less_exclusions.txt	LTP211	ltpFR	3	3	0	VACUUM	1543	n/a	n/a	0	0.57763671875	0.412841796875	1	lower	amplitud.ttf
413180	REC_START	n/a	LTP211	ltpFR	3	3	n/a	n/a	n/a	n/a	n/a	n/a	n/a	n/a	n/a	n/a	n/a
417461	REC_WORD	wordpools/wasnorm_wordpool_less_exclusions.txt	LTP211	ltpFR	3	3	0	FLESH	579	n/a	n/a	1	n/a	n/a	n/a	n/a	n/a
418981	REC_WORD	wordpools/wasnorm_wordpool_less_exclusions.txt	LTP211	ltpFR	3	3	0	KLEENEX	782	n/a	n/a	0	n/a	n/a	n/a	n/a	n/a
420314	REC_WORD	wordpools/wasnorm_wordpool_less_exclusions.txt	LTP211	ltpFR	3	3	1	COP	376	n/a	n/a	1	n/a	n/a	n/a	n/a	n/a
421611	REC_WORD	wordpools/wasnorm_wordpool_less_exclusions.txt	LTP211	ltpFR	3	3	1	NAPKIN	937	n/a	n/a	0	n/a	n/a	n/a	n/a	n/a
424690	REC_WORD	wordpools/wasnorm_wordpool_less_exclusions.txt	LTP211	ltpFR	3	3	1	HERO	706	n/a	n/a	1	n/a	n/a	n/a	n/a	n/a
426544	REC_WORD	wordpools/wasnorm_wordpool_less_exclusions.txt	LTP211	ltpFR	3	3	1	BLACKBERRY	132	n/a	n/a	1	n/a	n/a	n/a	n/a	n/a
428710	REC_WORD	wordpools/wasnorm_wordpool_less_exclusions.txt	LTP211	ltpFR	3	3	0	WORM	1623	n/a	n/a	0	n/a	n/a	n/a	n/a	n/a
430081	REC_WORD	wordpools/wasnorm_wordpool_less_exclusions.txt	LTP211	ltpFR	3	3	0	POCKETBOOK	1094	n/a	n/a	0	n/a	n/a	n/a	n/a	n/a
431513	REC_WORD	wordpools/wasnorm_wordpool_less_exclusions.txt	LTP211	ltpFR	3	3	0	SHERIFF	1284	n/a	n/a	1	n/a	n/a	n/a	n/a	n/a
434641	REC_WORD	wordpools/wasnorm_wordpool_less_exclusions.txt	LTP211	ltpFR	3	3	1	CHEMIST	292	n/a	n/a	1	n/a	n/a	n/a	n/a	n/a
435813	REC_WORD	wordpools/wasnorm_wordpool_less_exclusions.txt	LTP211	ltpFR	3	3	1	FLASK	576	n/a	n/a	0	n/a	n/a	n/a	n/a	n/a
438449	REC_WORD	wordpools/wasnorm_wordpool_less_exclusions.txt	LTP211	ltpFR	3	3	1	FOLDER	588	n/a	n/a	0	n/a	n/a	n/a	n/a	n/a
439969	REC_WORD	wordpools/wasnorm_wordpool_less_exclusions.txt	LTP211	ltpFR	3	3	1	EARTH	515	n/a	n/a	0	n/a	n/a	n/a	n/a	n/a
441535	REC_WORD	wordpools/wasnorm_wordpool_less_exclusions.txt	LTP211	ltpFR	3	3	0	SECRETARY	1265	n/a	n/a	1	n/a	n/a	n/a	n/a	n/a
444593	REC_WORD	wordpools/wasnorm_wordpool_less_exclusions.txt	LTP211	ltpFR	3	3	0	DUSTPAN	509	n/a	n/a	0	n/a	n/a	n/a	n/a	n/a
446973	REC_WORD	wordpools/wasnorm_wordpool_less_exclusions.txt	LTP211	ltpFR	3	3	0	VACUUM	1543	n/a	n/a	0	n/a	n/a	n/a	n/a	n/a
497329	WORD	wordpools/wasnorm_wordpool_less_exclusions.txt	LTP211	ltpFR	3	4	1	MATTRESS	879	n/a	n/a	0	0.422607421875	0.5869140625	0	upper	zerothre.ttf
501544	WORD	wordpools/wasnorm_wordpool_less_exclusions.txt	LTP211	ltpFR	3	4	1	VELVET	1555	n/a	n/a	0	0.422607421875	0.5869140625	0	upper	zerothre.ttf
505743	WORD	wordpools/wasnorm_wordpool_less_exclusions.txt	LTP211	ltpFR	3	4	1	MAILMAN	858	n/a	n/a	1	0.422607421875	0.5869140625	0	upper	zerothre.ttf
509792	WORD	wordpools/wasnorm_wordpool_less_exclusions.txt	LTP211	ltpFR	3	4	1	COAL	332	n/a	n/a	0	0.422607421875	0.5869140625	0	upper	zerothre.ttf
513840	WORD	wordpools/wasnorm_wordpool_less_exclusions.txt	LTP211	ltpFR	3	4	1	SALT	1229	n/a	n/a	0	0.422607421875	0.5869140625	0	upper	zerothre.ttf
517872	WORD	wordpools/wasnorm_wordpool_less_exclusions.txt	LTP211	ltpFR	3	4	1	RECORD	1176	n/a	n/a	0	0.422607421875	0.5869140625	0	upper	zerothre.ttf
521854	WORD	wordpools/wasnorm_wordpool_less_exclusions.txt	LTP211	ltpFR	3	4	1	SENATOR	1268	n/a	n/a	1	0.422607421875	0.5869140625	0	upper	zerothre.ttf
525752	WORD	wordpools/wasnorm_wordpool_less_exclusions.txt	LTP211	ltpFR	3	4	1	MESSAGE	888	n/a	n/a	0	0.422607421875	0.5869140625	0	upper	zerothre.ttf
529884	WORD	wordpools/wasnorm_wordpool_less_exclusions.txt	LTP211	ltpFR	3	4	1	RAISIN	1163	n/a	n/a	0	0.422607421875	0.5869140625	0	upper	zerothre.ttf
533749	WORD	wordpools/wasnorm_wordpool_less_exclusions.txt	LTP211	ltpFR	3	4	1	DINER	467	n/a	n/a	0	0.422607421875	0.5869140625	0	upper	zerothre.ttf
537831	WORD	wordpools/wasnorm_wordpool_less_exclusions.txt	LTP211	ltpFR	3	4	1	LUNCH	849	n/a	n/a	0	0.422607421875	0.5869140625	0	upper	zerothre.ttf
541792	WORD	wordpools/wasnorm_wordpool_less_exclusions.txt	LTP211	ltpFR	3	4	1	VET	1560	n/a	n/a	1	0.422607421875	0.5869140625	0	upper	zerothre.ttf
545710	WORD	wordpools/wasnorm_wordpool_less_exclusions.txt	LTP211	ltpFR	3	4	1	SPICE	1350	n/a	n/a	0	0.422607421875	0.5869140625	0	upper	zerothre.ttf
549592	WORD	wordpools/wasnorm_wordpool_less_exclusions.txt	LTP211	ltpFR	3	4	1	APPLE	33	n/a	n/a	1	0.422607421875	0.5869140625	0	upper	zerothre.ttf
553754	WORD	wordpools/wasnorm_wordpool_less_exclusions.txt	LTP211	ltpFR	3	4	1	SALESMAN	1225	n/a	n/a	1	0.422607421875	0.5869140625	0	upper	zerothre.ttf
557668	WORD	wordpools/wasnorm_wordpool_less_exclusions.txt	LTP211	ltpFR	3	4	1	MECHANIC	884	n/a	n/a	1	0.422607421875	0.5869140625	0	upper	zerothre.ttf
563395	REC_START	n/a	LTP211	ltpFR	3	4	n/a	n/a	n/a	n/a	n/a	n/a	n/a	n/a	n/a	n/a	n/a
565158	REC_WORD	wordpools/wasnorm_wordpool_less_exclusions.txt	LTP211	ltpFR	3	4	1	MATTRESS	879	n/a	n/a	0	n/a	n/a	n/a	n/a	n/a
566332	REC_WORD	wordpools/wasnorm_wordpool_less_exclusions.txt	LTP211	ltpFR	3	4	1	VELVET	1555	n/a	n/a	0	n/a	n/a	n/a	n/a	n/a
567665	REC_WORD	wordpools/wasnorm_wordpool_less_exclusions.txt	LTP211	ltpFR	3	4	1	MAILMAN	858	n/a	n/a	1	n/a	n/a	n/a	n/a	n/a
569942	REC_WORD	wordpools/wasnorm_wordpool_less_exclusions.txt	LTP211	ltpFR	3	4	1	COAL	332	n/a	n/a	0	n/a	n/a	n/a	n/a	n/a
573673	REC_WORD	wordpools/wasnorm_wordpool_less_exclusions.txt	LTP211	ltpFR	3	4	1	RECORD	1176	n/a	n/a	0	n/a	n/a	n/a	n/a	n/a
574974	REC_WORD	wordpools/wasnorm_wordpool_less_exclusions.txt	LTP211	ltpFR	3	4	1	SALT	1229	n/a	n/a	0	n/a	n/a	n/a	n/a	n/a
577169	REC_WORD	wordpools/wasnorm_wordpool_less_exclusions.txt	LTP211	ltpFR	3	4	1	SENATOR	1268	n/a	n/a	1	n/a	n/a	n/a	n/a	n/a
579708	REC_WORD	wordpools/wasnorm_wordpool_less_exclusions.txt	LTP211	ltpFR	3	4	1	MESSAGE	888	n/a	n/a	0	n/a	n/a	n/a	n/a	n/a
581149	REC_WORD	wordpools/wasnorm_wordpool_less_exclusions.txt	LTP211	ltpFR	3	4	1	RAISIN	1163	n/a	n/a	0	n/a	n/a	n/a	n/a	n/a
582945	REC_WORD	wordpools/wasnorm_wordpool_less_exclusions.txt	LTP211	ltpFR	3	4	1	DINER	467	n/a	n/a	0	n/a	n/a	n/a	n/a	n/a
584467	REC_WORD	wordpools/wasnorm_wordpool_less_exclusions.txt	LTP211	ltpFR	3	4	1	LUNCH	849	n/a	n/a	0	n/a	n/a	n/a	n/a	n/a
586646	REC_WORD	wordpools/wasnorm_wordpool_less_exclusions.txt	LTP211	ltpFR	3	4	1	VET	1560	n/a	n/a	1	n/a	n/a	n/a	n/a	n/a
587933	REC_WORD	wordpools/wasnorm_wordpool_less_exclusions.txt	LTP211	ltpFR	3	4	1	SPICE	1350	n/a	n/a	0	n/a	n/a	n/a	n/a	n/a
589670	REC_WORD	wordpools/wasnorm_wordpool_less_exclusions.txt	LTP211	ltpFR	3	4	1	APPLE	33	n/a	n/a	1	n/a	n/a	n/a	n/a	n/a
591019	REC_WORD	wordpools/wasnorm_wordpool_less_exclusions.txt	LTP211	ltpFR	3	4	1	SALESMAN	1225	n/a	n/a	1	n/a	n/a	n/a	n/a	n/a
594251	REC_WORD	wordpools/wasnorm_wordpool_less_exclusions.txt	LTP211	ltpFR	3	4	1	MECHANIC	884	n/a	n/a	1	n/a	n/a	n/a	n/a	n/a
648498	WORD	wordpools/wasnorm_wordpool_less_exclusions.txt	LTP211	ltpFR	3	5	-1	SKI	1316	n/a	n/a	-1	1.0	1.0	1	upper	Verdana.ttf
652375	WORD	wordpools/wasnorm_wordpool_less_exclusions.txt	LTP211	ltpFR	3	5	-1	MOTEL	919	n/a	n/a	-1	1.0	1.0	1	upper	Verdana.ttf
656344	WORD	wordpools/wasnorm_wordpool_less_exclusions.txt	LTP211	ltpFR	3	5	-1	COW	393	n/a	n/a	-1	1.0	1.0	1	upper	Verdana.ttf
660409	WORD	wordpools/wasnorm_wordpool_less_exclusions.txt	LTP211	ltpFR	3	5	-1	SAXOPHONE	1240	n/a	n/a	-1	1.0	1.0	1	upper	Verdana.ttf
664475	WORD	wordpools/wasnorm_wordpool_less_exclusions.txt	LTP211	ltpFR	3	5	-1	REFEREE	1178	n/a	n/a	-1	1.0	1.0	1	upper	Verdana.ttf
668324	WORD	wordpools/wasnorm_wordpool_less_exclusions.txt	LTP211	ltpFR	3	5	-1	CUFF	423	n/a	n/a	-1	1.0	1.0	1	upper	Verdana.ttf
672455	WORD	wordpools/wasnorm_wordpool_less_exclusions.txt	LTP211	ltpFR	3	5	-1	TROUSERS	1510	n/a	n/a	-1	1.0	1.0	1	upper	Verdana.ttf
676583	WORD	wordpools/wasnorm_wordpool_less_exclusions.txt	LTP211	ltpFR	3	5	-1	PLAID	1080	n/a	n/a	-1	1.0	1.0	1	upper	Verdana.ttf
680803	WORD	wordpools/wasnorm_wordpool_less_exclusions.txt	LTP211	ltpFR	3	5	-1	HARP	689	n/a	n/a	-1	1.0	1.0	1	upper	Verdana.ttf
684718	WORD	wordpools/wasnorm_wordpool_less_exclusions.txt	LTP211	ltpFR	3	5	-1	PEAR	1033	n/a	n/a	-1	1.0	1.0	1	upper	Verdana.ttf
688766	WORD	wordpools/wasnorm_wordpool_less_exclusions.txt	LTP211	ltpFR	3	5	-1	BERRY	122	n/a	n/a	-1	1.0	1.0	1	upper	Verdana.ttf
692744	WORD	wordpools/wasnorm_wordpool_less_exclusions.txt	LTP211	ltpFR	3	5	-1	WICK	1607	n/a	n/a	-1	1.0	1.0	1	upper	Verdana.ttf
696579	WORD	wordpools/wasnorm_wordpool_less_exclusions.txt	LTP211	ltpFR	3	5	-1	BOYFRIEND	162	n/a	n/a	-1	1.0	1.0	1	upper	Verdana.ttf
700594	WORD	wordpools/wasnorm_wordpool_less_exclusions.txt	LTP211	ltpFR	3	5	-1	FIELD	562	n/a	n/a	-1	1.0	1.0	1	upper	Verdana.ttf
704806	WORD	wordpools/wasnorm_wordpool_less_exclusions.txt	LTP211	ltpFR	3	5	-1	EXPERT	543	n/a	n/a	-1	1.0	1.0	1	upper	Verdana.ttf
708754	WORD	wordpools/wasnorm_wordpool_less_exclusions.txt	LTP211	ltpFR	3	5	-1	THUMB	1462	n/a	n/a	-1	1.0	1.0	1	upper	Verdana.ttf
714477	REC_START	n/a	LTP211	ltpFR	3	5	n/a	n/a	n/a	n/a	n/a	n/a	n/a	n/a	n/a	n/a	n/a
716646	REC_WORD	wordpools/wasnorm_wordpool_less_exclusions.txt	LTP211	ltpFR	3	5	-1	SKI	1316	n/a	n/a	-1	n/a	n/a	n/a	n/a	n/a
717799	REC_WORD	wordpools/wasnorm_wordpool_less_exclusions.txt	LTP211	ltpFR	3	5	-1	MOTEL	919	n/a	n/a	-1	n/a	n/a	n/a	n/a	n/a
719236	REC_WORD	wordpools/wasnorm_wordpool_less_exclusions.txt	LTP211	ltpFR	3	5	-1	COW	393	n/a	n/a	-1	n/a	n/a	n/a	n/a	n/a
720493	REC_WORD	wordpools/wasnorm_wordpool_less_exclusions.txt	LTP211	ltpFR	3	5	-1	SAXOPHONE	1240	n/a	n/a	-1	n/a	n/a	n/a	n/a	n/a
721871	REC_WORD	wordpools/wasnorm_wordpool_less_exclusions.txt	LTP211	ltpFR	3	5	-1	REFEREE	1178	n/a	n/a	-1	n/a	n/a	n/a	n/a	n/a
723212	REC_WORD	wordpools/wasnorm_wordpool_less_exclusions.txt	LTP211	ltpFR	3	5	-1	CUFF	423	n/a	n/a	-1	n/a	n/a	n/a	n/a	n/a
724334	REC_WORD	wordpools/wasnorm_wordpool_less_exclusions.txt	LTP211	ltpFR	3	5	-1	TROUSERS	1510	n/a	n/a	-1	n/a	n/a	n/a	n/a	n/a
730196	REC_WORD	wordpools/wasnorm_wordpool_less_exclusions.txt	LTP211	ltpFR	3	5	-1	PEAR	1033	n/a	n/a	-1	n/a	n/a	n/a	n/a	n/a
731588	REC_WORD	wordpools/wasnorm_wordpool_less_exclusions.txt	LTP211	ltpFR	3	5	-1	BERRY	122	n/a	n/a	-1	n/a	n/a	n/a	n/a	n/a
733129	REC_WORD	wordpools/wasnorm_wordpool_less_exclusions.txt	LTP211	ltpFR	3	5	-1	WICK	1607	n/a	n/a	-1	n/a	n/a	n/a	n/a	n/a
735778	REC_WORD	wordpools/wasnorm_wordpool_less_exclusions.txt	LTP211	ltpFR	3	5	-1	BOYFRIEND	162	n/a	n/a	-1	n/a	n/a	n/a	n/a	n/a
739249	REC_WORD	wordpools/wasnorm_wordpool_less_exclusions.txt	LTP211	ltpFR	3	5	-1	PLAID	1080	n/a	n/a	-1	n/a	n/a	n/a	n/a	n/a
742490	REC_WORD	wordpools/wasnorm_wordpool_less_exclusions.txt	LTP211	ltpFR	3	5	-1	FIELD	562	n/a	n/a	-1	n/a	n/a	n/a	n/a	n/a
744548	REC_WORD	wordpools/wasnorm_wordpool_less_exclusions.txt	LTP211	ltpFR	3	5	-1	EXPERT	543	n/a	n/a	-1	n/a	n/a	n/a	n/a	n/a
745973	REC_WORD	wordpools/wasnorm_wordpool_less_exclusions.txt	LTP211	ltpFR	3	5	-1	THUMB	1462	n/a	n/a	-1	n/a	n/a	n/a	n/a	n/a
798196	WORD	wordpools/wasnorm_wordpool_less_exclusions.txt	LTP211	ltpFR	3	6	-1	BEER	114	n/a	n/a	-1	1.0	1.0	1	upper	Verdana.ttf
802056	WORD	wordpools/wasnorm_wordpool_less_exclusions.txt	LTP211	ltpFR	3	6	-1	WINE	1613	n/a	n/a	-1	1.0	1.0	1	upper	Verdana.ttf
806160	WORD	wordpools/wasnorm_wordpool_less_exclusions.txt	LTP211	ltpFR	3	6	-1	SAUSAGE	1238	n/a	n/a	-1	1.0	1.0	1	upper	Verdana.ttf
810225	WORD	wordpools/wasnorm_wordpool_less_exclusions.txt	LTP211	ltpFR	3	6	-1	COMEDIAN	352	n/a	n/a	-1	1.0	1.0	1	upper	Verdana.ttf
814257	WORD	wordpools/wasnorm_wordpool_less_exclusions.txt	LTP211	ltpFR	3	6	-1	PIER	1063	n/a	n/a	-1	1.0	1.0	1	upper	Verdana.ttf
818401	WORD	wordpools/wasnorm_wordpool_less_exclusions.txt	LTP211	ltpFR	3	6	-1	RACK	1154	n/a	n/a	-1	1.0	1.0	1	upper	Verdana.ttf
822487	WORD	wordpools/wasnorm_wordpool_less_exclusions.txt	LTP211	ltpFR	3	6	-1	HEAD	695	n/a	n/a	-1	1.0	1.0	1	upper	Verdana.ttf
826335	WORD	wordpools/wasnorm_wordpool_less_exclusions.txt	LTP211	ltpFR	3	6	-1	BUBBLE	183	n/a	n/a	-1	1.0	1.0	1	upper	Verdana.ttf
830167	WORD	wordpools/wasnorm_wordpool_less_exclusions.txt	LTP211	ltpFR	3	6	-1	PEACH	1031	n/a	n/a	-1	1.0	1.0	1	upper	Verdana.ttf
834232	WORD	wordpools/wasnorm_wordpool_less_exclusions.txt	LTP211	ltpFR	3	6	-1	HAT	690	n/a	n/a	-1	1.0	1.0	1	upper	Verdana.ttf
838096	WORD	wordpools/wasnorm_wordpool_less_exclusions.txt	LTP211	ltpFR	3	6	-1	CARNIVAL	245	n/a	n/a	-1	1.0	1.0	1	upper	Verdana.ttf
841994	WORD	wordpools/wasnorm_wordpool_less_exclusions.txt	LTP211	ltpFR	3	6	-1	PORT	1110	n/a	n/a	-1	1.0	1.0	1	upper	Verdana.ttf
846072	WORD	wordpools/wasnorm_wordpool_less_exclusions.txt	LTP211	ltpFR	3	6	-1	CLIPPERS	324	n/a	n/a	-1	1.0	1.0	1	upper	Verdana.ttf
850259	WORD	wordpools/wasnorm_wordpool_less_exclusions.txt	LTP211	ltpFR	3	6	-1	FRUIT	610	n/a	n/a	-1	1.0	1.0	1	upper	Verdana.ttf
854474	WORD	wordpools/wasnorm_wordpool_less_exclusions.txt	LTP211	ltpFR	3	6	-1	CARTON	251	n/a	n/a	-1	1.0	1.0	1	upper	Verdana.ttf
858523	WORD	wordpools/wasnorm_wordpool_less_exclusions.txt	LTP211	ltpFR	3	6	-1	MILK	895	n/a	n/a	-1	1.0	1.0	1	upper	Verdana.ttf
864526	REC_START	n/a	LTP211	ltpFR	3	6	n/a	n/a	n/a	n/a	n/a	n/a	n/a	n/a	n/a	n/a	n/a
866012	REC_WORD	wordpools/wasnorm_wordpool_less_exclusions.txt	LTP211	ltpFR	3	6	-1	BEER	114	n/a	n/a	-1	n/a	n/a	n/a	n/a	n/a
866985	REC_WORD	wordpools/wasnorm_wordpool_less_exclusions.txt	LTP211	ltpFR	3	6	-1	WINE	1613	n/a	n/a	-1	n/a	n/a	n/a	n/a	n/a
868122	REC_WORD	wordpools/wasnorm_wordpool_less_exclusions.txt	LTP211	ltpFR	3	6	-1	SAUSAGE	1238	n/a	n/a	-1	n/a	n/a	n/a	n/a	n/a
869435	REC_WORD	wordpools/wasnorm_wordpool_less_exclusions.txt	LTP211	ltpFR	3	6	-1	COMEDIAN	352	n/a	n/a	-1	n/a	n/a	n/a	n/a	n/a
870672	REC_WORD	wordpools/wasnorm_wordpool_less_exclusions.txt	LTP211	ltpFR	3	6	-1	PIER	1063	n/a	n/a	-1	n/a	n/a	n/a	n/a	n/a
872049	REC_WORD	wordpools/wasnorm_wordpool_less_exclusions.txt	LTP211	ltpFR	3	6	-1	RACK	1154	n/a	n/a	-1	n/a	n/a	n/a	n/a	n/a
873271	REC_WORD	wordpools/wasnorm_wordpool_less_exclusions.txt	LTP211	ltpFR	3	6	-1	HEAD	695	n/a	n/a	-1	n/a	n/a	n/a	n/a	n/a
874822	REC_WORD	wordpools/wasnorm_wordpool_less_exclusions.txt	LTP211	ltpFR	3	6	-1	PEACH	1031	n/a	n/a	-1	n/a	n/a	n/a	n/a	n/a
876618	REC_WORD	wordpools/wasnorm_wordpool_less_exclusions.txt	LTP211	ltpFR	3	6	-1	HAT	690	n/a	n/a	-1	n/a	n/a	n/a	n/a	n/a
879861	REC_WORD	wordpools/wasnorm_wordpool_less_exclusions.txt	LTP211	ltpFR	3	6	-1	CARNIVAL	245	n/a	n/a	-1	n/a	n/a	n/a	n/a	n/a
881432	REC_WORD	wordpools/wasnorm_wordpool_less_exclusions.txt	LTP211	ltpFR	3	6	-1	FRUIT	610	n/a	n/a	-1	n/a	n/a	n/a	n/a	n/a
885504	REC_WORD	wordpools/wasnorm_wordpool_less_exclusions.txt	LTP211	ltpFR	3	6	-1	CLIPPERS	324	n/a	n/a	-1	n/a	n/a	n/a	n/a	n/a
887618	REC_WORD	wordpools/wasnorm_wordpool_less_exclusions.txt	LTP211	ltpFR	3	6	-1	MILK	895	n/a	n/a	-1	n/a	n/a	n/a	n/a	n/a
888751	REC_WORD	wordpools/wasnorm_wordpool_less_exclusions.txt	LTP211	ltpFR	3	6	-1	CARTON	251	n/a	n/a	-1	n/a	n/a	n/a	n/a	n/a
920913	REC_WORD	wordpools/wasnorm_wordpool_less_exclusions.txt	LTP211	ltpFR	3	6	n/a	BAY	102	n/a	n/a	n/a	n/a	n/a	n/a	n/a	n/a
924304	REC_WORD	wordpools/wasnorm_wordpool_less_exclusions.txt	LTP211	ltpFR	3	6	-1	PORT	1110	n/a	n/a	-1	n/a	n/a	n/a	n/a	n/a
952343	WORD	wordpools/wasnorm_wordpool_less_exclusions.txt	LTP211	ltpFR	3	7	0	ROAD	1196	n/a	n/a	1	0.57763671875	0.412841796875	1	lower	amplitud.ttf
956225	WORD	wordpools/wasnorm_wordpool_less_exclusions.txt	LTP211	ltpFR	3	7	0	DUCK	504	n/a	n/a	0	0.57763671875	0.412841796875	1	lower	amplitud.ttf
960257	WORD	wordpools/wasnorm_wordpool_less_exclusions.txt	LTP211	ltpFR	3	7	0	CREVICE	405	n/a	n/a	0	0.57763671875	0.412841796875	1	lower	amplitud.ttf
964435	WORD	wordpools/wasnorm_wordpool_less_exclusions.txt	LTP211	ltpFR	3	7	0	CREAM	402	n/a	n/a	0	0.57763671875	0.412841796875	1	lower	amplitud.ttf
968500	WORD	wordpools/wasnorm_wordpool_less_exclusions.txt	LTP211	ltpFR	3	7	0	ICE	730	n/a	n/a	0	0.57763671875	0.412841796875	1	lower	amplitud.ttf
972368	WORD	wordpools/wasnorm_wordpool_less_exclusions.txt	LTP211	ltpFR	3	7	0	SARDINE	1235	n/a	n/a	0	0.57763671875	0.412841796875	1	lower	amplitud.ttf
976467	WORD	wordpools/wasnorm_wordpool_less_exclusions.txt	LTP211	ltpFR	3	7	0	CAGE	218	n/a	n/a	1	0.57763671875	0.412841796875	1	lower	amplitud.ttf
980583	WORD	wordpools/wasnorm_wordpool_less_exclusions.txt	LTP211	ltpFR	3	7	0	WILDERNESS	1610	n/a	n/a	1	0.57763671875	0.412841796875	1	lower	amplitud.ttf
984715	WORD	wordpools/wasnorm_wordpool_less_exclusions.txt	LTP211	ltpFR	3	7	0	MAP	865	n/a	n/a	0	0.57763671875	0.412841796875	1	lower	amplitud.ttf
988827	WORD	wordpools/wasnorm_wordpool_less_exclusions.txt	LTP211	ltpFR	3	7	0	COLLAR	345	n/a	n/a	0	0.57763671875	0.412841796875	1	lower	amplitud.ttf
992808	WORD	wordpools/wasnorm_wordpool_less_exclusions.txt	LTP211	ltpFR	3	7	0	HOUND	724	n/a	n/a	0	0.57763671875	0.412841796875	1	lower	amplitud.ttf
996928	WORD	wordpools/wasnorm_wordpool_less_exclusions.txt	LTP211	ltpFR	3	7	0	SQUID	1361	n/a	n/a	0	0.57763671875	0.412841796875	1	lower	amplitud.ttf
1000909	WORD	wordpools/wasnorm_wordpool_less_exclusions.txt	LTP211	ltpFR	3	7	0	CHISEL	305	n/a	n/a	0	0.57763671875	0.412841796875	1	lower	amplitud.ttf
1004774	WORD	wordpools/wasnorm_wordpool_less_exclusions.txt	LTP211	ltpFR	3	7	0	POT	1114	n/a	n/a	1	0.57763671875	0.412841796875	1	lower	amplitud.ttf
1008705	WORD	wordpools/wasnorm_wordpool_less_exclusions.txt	LTP211	ltpFR	3	7	0	PENCIL	1042	n/a	n/a	0	0.57763671875	0.412841796875	1	lower	amplitud.ttf
1012654	WORD	wordpools/wasnorm_wordpool_less_exclusions.txt	LTP211	ltpFR	3	7	0	HARE	688	n/a	n/a	0	0.57763671875	0.412841796875	1	lower	amplitud.ttf
1018627	REC_START	n/a	LTP211	ltpFR	3	7	n/a	n/a	n/a	n/a	n/a	n/a	n/a	n/a	n/a	n/a	n/a
1020292	REC_WORD	wordpools/wasnorm_wordpool_less_exclusions.txt	LTP211	ltpFR	3	7	0	ROAD	1196	n/a	n/a	1	n/a	n/a	n/a	n/a	n/a
1021580	REC_WORD	wordpools/wasnorm_wordpool_less_exclusions.txt	LTP211	ltpFR	3	7	0	DUCK	504	n/a	n/a	0	n/a	n/a	n/a	n/a	n/a
1022543	REC_WORD	wordpools/wasnorm_wordpool_less_exclusions.txt	LTP211	ltpFR	3	7	0	CREVICE	405	n/a	n/a	0	n/a	n/a	n/a	n/a	n/a
1024099	REC_WORD	wordpools/wasnorm_wordpool_less_exclusions.txt	LTP211	ltpFR	3	7	0	CREAM	402	n/a	n/a	0	n/a	n/a	n/a	n/a	n/a
1025636	REC_WORD	wordpools/wasnorm_wordpool_less_exclusions.txt	LTP211	ltpFR	3	7	0	ICE	730	n/a	n/a	0	n/a	n/a	n/a	n/a	n/a
1026883	REC_WORD	wordpools/wasnorm_wordpool_less_exclusions.txt	LTP211	ltpFR	3	7	0	SARDINE	1235	n/a	n/a	0	n/a	n/a	n/a	n/a	n/a
1028908	REC_WORD	wordpools/wasnorm_wordpool_less_exclusions.txt	LTP211	ltpFR	3	7	0	CAGE	218	n/a	n/a	1	n/a	n/a	n/a	n/a	n/a
1030305	REC_WORD	wordpools/wasnorm_wordpool_less_exclusions.txt	LTP211	ltpFR	3	7	0	WILDERNESS	1610	n/a	n/a	1	n/a	n/a	n/a	n/a	n/a
1031794	REC_WORD	wordpools/wasnorm_wordpool_less_exclusions.txt	LTP211	ltpFR	3	7	0	MAP	865	n/a	n/a	0	n/a	n/a	n/a	n/a	n/a
1033134	REC_WORD	wordpools/wasnorm_wordpool_less_exclusions.txt	LTP211	ltpFR	3	7	0	COLLAR	345	n/a	n/a	0	n/a	n/a	n/a	n/a	n/a
1034419	REC_WORD	wordpools/wasnorm_wordpool_less_exclusions.txt	LTP211	ltpFR	3	7	0	HOUND	724	n/a	n/a	0	n/a	n/a	n/a	n/a	n/a
1037095	REC_WORD	wordpools/wasnorm_wordpool_less_exclusions.txt	LTP211	ltpFR	3	7	0	POT	1114	n/a	n/a	1	n/a	n/a	n/a	n/a	n/a
1038487	REC_WORD	wordpools/wasnorm_wordpool_less_exclusions.txt	LTP211	ltpFR	3	7	0	PENCIL	1042	n/a	n/a	0	n/a	n/a	n/a	n/a	n/a
1104283	WORD	wordpools/wasnorm_wordpool_less_exclusions.txt	LTP211	ltpFR	3	8	1	FUR	615	n/a	n/a	0	0.422607421875	0.5869140625	0	upper	zerothre.ttf
1108332	WORD	wordpools/wasnorm_wordpool_less_exclusions.txt	LTP211	ltpFR	3	8	1	SNAKE	1333	n/a	n/a	1	0.422607421875	0.5869140625	0	upper	zerothre.ttf
1112346	WORD	wordpools/wasnorm_wordpool_less_exclusions.txt	LTP211	ltpFR	3	8	1	TOOTHPASTE	1483	n/a	n/a	0	0.422607421875	0.5869140625	0	upper	zerothre.ttf
1116224	WORD	wordpools/wasnorm_wordpool_less_exclusions.txt	LTP211	ltpFR	3	8	1	JUNGLE	764	n/a	n/a	0	0.422607421875	0.5869140625	0	upper	zerothre.ttf
1120193	WORD	wordpools/wasnorm_wordpool_less_exclusions.txt	LTP211	ltpFR	3	8	1	VEGETABLE	1552	n/a	n/a	1	0.422607421875	0.5869140625	0	upper	zerothre.ttf
1124158	WORD	wordpools/wasnorm_wordpool_less_exclusions.txt	LTP211	ltpFR	3	8	1	DILL	465	n/a	n/a	1	0.422607421875	0.5869140625	0	upper	zerothre.ttf
1128373	WORD	wordpools/wasnorm_wordpool_less_exclusions.txt	LTP211	ltpFR	3	8	1	REFRIGERATOR	1179	n/a	n/a	0	0.422607421875	0.5869140625	0	upper	zerothre.ttf
1132539	WORD	wordpools/wasnorm_wordpool_less_exclusions.txt	LTP211	ltpFR	3	8	1	INVENTOR	743	n/a	n/a	1	0.422607421875	0.5869140625	0	upper	zerothre.ttf
1136634	WORD	wordpools/wasnorm_wordpool_less_exclusions.txt	LTP211	ltpFR	3	8	1	APE	31	n/a	n/a	0	0.422607421875	0.5869140625	0	upper	zerothre.ttf
1140686	WORD	wordpools/wasnorm_wordpool_less_exclusions.txt	LTP211	ltpFR	3	8	1	RABBIT	1152	n/a	n/a	1	0.422607421875	0.5869140625	0	upper	zerothre.ttf
1144785	WORD	wordpools/wasnorm_wordpool_less_exclusions.txt	LTP211	ltpFR	3	8	1	BUSH	202	n/a	n/a	1	0.422607421875	0.5869140625	0	upper	zerothre.ttf
1148830	WORD	wordpools/wasnorm_wordpool_less_exclusions.txt	LTP211	ltpFR	3	8	1	HEDGE	699	n/a	n/a	1	0.422607421875	0.5869140625	0	upper	zerothre.ttf
1152861	WORD	wordpools/wasnorm_wordpool_less_exclusions.txt	LTP211	ltpFR	3	8	1	RELISH	1183	n/a	n/a	1	0.422607421875	0.5869140625	0	upper	zerothre.ttf
1156947	WORD	wordpools/wasnorm_wordpool_less_exclusions.txt	LTP211	ltpFR	3	8	1	VINEGAR	1569	n/a	n/a	0	0.422607421875	0.5869140625	0	upper	zerothre.ttf
1160778	WORD	wordpools/wasnorm_wordpool_less_exclusions.txt	LTP211	ltpFR	3	8	1	DRIVEWAY	500	n/a	n/a	0	0.422607421875	0.5869140625	0	upper	zerothre.ttf
1164794	WORD	wordpools/wasnorm_wordpool_less_exclusions.txt	LTP211	ltpFR	3	8	1	SCARF	1246	n/a	n/a	0	0.422607421875	0.5869140625	0	upper	zerothre.ttf
1170650	REC_START	n/a	LTP211	ltpFR	3	8	n/a	n/a	n/a	n/a	n/a	n/a	n/a	n/a	n/a	n/a	n/a
1172775	REC_WORD	wordpools/wasnorm_wordpool_less_exclusions.txt	LTP211	ltpFR	3	8	1	FUR	615	n/a	n/a	0	n/a	n/a	n/a	n/a	n/a
1174376	REC_WORD	wordpools/wasnorm_wordpool_less_exclusions.txt	LTP211	ltpFR	3	8	1	SNAKE	1333	n/a	n/a	1	n/a	n/a	n/a	n/a	n/a
1176312	REC_WORD	wordpools/wasnorm_wordpool_less_exclusions.txt	LTP211	ltpFR	3	8	1	TOOTHPASTE	1483	n/a	n/a	0	n/a	n/a	n/a	n/a	n/a
1178632	REC_WORD	wordpools/wasnorm_wordpool_less_exclusions.txt	LTP211	ltpFR	3	8	1	JUNGLE	764	n/a	n/a	0	n/a	n/a	n/a	n/a	n/a
1180205	REC_WORD	wordpools/wasnorm_wordpool_less_exclusions.txt	LTP211	ltpFR	3	8	1	VEGETABLE	1552	n/a	n/a	1	n/a	n/a	n/a	n/a	n/a
1181974	REC_WORD	wordpools/wasnorm_wordpool_less_exclusions.txt	LTP211	ltpFR	3	8	1	DILL	465	n/a	n/a	1	n/a	n/a	n/a	n/a	n/a
1183062	REC_WORD	wordpools/wasnorm_wordpool_less_exclusions.txt	LTP211	ltpFR	3	8	1	REFRIGERATOR	1179	n/a	n/a	0	n/a	n/a	n/a	n/a	n/a
1184882	REC_WORD	wordpools/wasnorm_wordpool_less_exclusions.txt	LTP211	ltpFR	3	8	1	INVENTOR	743	n/a	n/a	1	n/a	n/a	n/a	n/a	n/a
1186778	REC_WORD	wordpools/wasnorm_wordpool_less_exclusions.txt	LTP211	ltpFR	3	8	1	APE	31	n/a	n/a	0	n/a	n/a	n/a	n/a	n/a
1190666	REC_WORD	wordpools/wasnorm_wordpool_less_exclusions.txt	LTP211	ltpFR	3	8	0	HARE	688	n/a	n/a	0	n/a	n/a	n/a	n/a	n/a
1192560	REC_WORD	wordpools/wasnorm_wordpool_less_exclusions.txt	LTP211	ltpFR	3	8	1	BUSH	202	n/a	n/a	1	n/a	n/a	n/a	n/a	n/a
1193997	REC_WORD	wordpools/wasnorm_wordpool_less_exclusions.txt	LTP211	ltpFR	3	8	1	HEDGE	699	n/a	n/a	1	n/a	n/a	n/a	n/a	n/a
1196916	REC_WORD	wordpools/wasnorm_wordpool_less_exclusions.txt	LTP211	ltpFR	3	8	1	VINEGAR	1569	n/a	n/a	0	n/a	n/a	n/a	n/a	n/a
1198531	REC_WORD	wordpools/wasnorm_wordpool_less_exclusions.txt	LTP211	ltpFR	3	8	1	RELISH	1183	n/a	n/a	1	n/a	n/a	n/a	n/a	n/a
1204224	REC_WORD	wordpools/wasnorm_wordpool_less_exclusions.txt	LTP211	ltpFR	3	8	1	DRIVEWAY	500	n/a	n/a	0	n/a	n/a	n/a	n/a	n/a
1206962	REC_WORD	wordpools/wasnorm_wordpool_less_exclusions.txt	LTP211	ltpFR	3	8	1	SCARF	1246	n/a	n/a	0	n/a	n/a	n/a	n/a	n/a
1255602	WORD	wordpools/wasnorm_wordpool_less_exclusions.txt	LTP211	ltpFR	3	9	-1	SPINE	1353	n/a	n/a	-1	1.0	1.0	1	upper	Verdana.ttf
1259802	WORD	wordpools/wasnorm_wordpool_less_exclusions.txt	LTP211	ltpFR	3	9	-1	BONE	148	n/a	n/a	-1	1.0	1.0	1	upper	Verdana.ttf
1263662	WORD	wordpools/wasnorm_wordpool_less_exclusions.txt	LTP211	ltpFR	3	9	-1	CRYSTAL	418	n/a	n/a	-1	1.0	1.0	1	upper	Verdana.ttf
1267544	WORD	wordpools/wasnorm_wordpool_less_exclusions.txt	LTP211	ltpFR	3	9	-1	NUCLEUS	961	n/a	n/a	-1	1.0	1.0	1	upper	Verdana.ttf
1271759	WORD	wordpools/wasnorm_wordpool_less_exclusions.txt	LTP211	ltpFR	3	9	-1	INN	739	n/a	n/a	-1	1.0	1.0	1	upper	Verdana.ttf
1275845	WORD	wordpools/wasnorm_wordpool_less_exclusions.txt	LTP211	ltpFR	3	9	-1	PUMPKIN	1142	n/a	n/a	-1	1.0	1.0	1	upper	Verdana.ttf
1279927	WORD	wordpools/wasnorm_wordpool_less_exclusions.txt	LTP211	ltpFR	3	9	-1	PREACHER	1119	n/a	n/a	-1	1.0	1.0	1	upper	Verdana.ttf
1283771	WORD	wordpools/wasnorm_wordpool_less_exclusions.txt	LTP211	ltpFR	3	9	-1	BEETLE	116	n/a	n/a	-1	1.0	1.0	1	upper	Verdana.ttf
1287606	WORD	wordpools/wasnorm_wordpool_less_exclusions.txt	LTP211	ltpFR	3	9	-1	TANGERINE	1431	n/a	n/a	-1	1.0	1.0	1	upper	Verdana.ttf
1291454	WORD	wordpools/wasnorm_wordpool_less_exclusions.txt	LTP211	ltpFR	3	9	-1	CHURCH	307	n/a	n/a	-1	1.0	1.0	1	upper	Verdana.ttf
1295599	WORD	wordpools/wasnorm_wordpool_less_exclusions.txt	LTP211	ltpFR	3	9	-1	MANSION	864	n/a	n/a	-1	1.0	1.0	1	upper	Verdana.ttf
1299765	WORD	wordpools/wasnorm_wordpool_less_exclusions.txt	LTP211	ltpFR	3	9	-1	BANKER	84	n/a	n/a	-1	1.0	1.0	1	upper	Verdana.ttf
1303750	WORD	wordpools/wasnorm_wordpool_less_exclusions.txt	LTP211	ltpFR	3	9	-1	ENGINEER	536	n/a	n/a	-1	1.0	1.0	1	upper	Verdana.ttf
1307833	WORD	wordpools/wasnorm_wordpool_less_exclusions.txt	LTP211	ltpFR	3	9	-1	LODGE	839	n/a	n/a	-1	1.0	1.0	1	upper	Verdana.ttf
1311848	WORD	wordpools/wasnorm_wordpool_less_exclusions.txt	LTP211	ltpFR	3	9	-1	VIOLA	1570	n/a	n/a	-1	1.0	1.0	1	upper	Verdana.ttf
1315943	WORD	wordpools/wasnorm_wordpool_less_exclusions.txt	LTP211	ltpFR	3	9	-1	FIDDLE	561	n/a	n/a	-1	1.0	1.0	1	upper	Verdana.ttf
1321970	REC_START	n/a	LTP211	ltpFR	3	9	n/a	n/a	n/a	n/a	n/a	n/a	n/a	n/a	n/a	n/a	n/a
1324108	REC_WORD	wordpools/wasnorm_wordpool_less_exclusions.txt	LTP211	ltpFR	3	9	-1	SPINE	1353	n/a	n/a	-1	n/a	n/a	n/a	n/a	n/a
1325467	REC_WORD	wordpools/wasnorm_wordpool_less_exclusions.txt	LTP211	ltpFR	3	9	-1	BONE	148	n/a	n/a	-1	n/a	n/a	n/a	n/a	n/a
1326420	REC_WORD	wordpools/wasnorm_wordpool_less_exclusions.txt	LTP211	ltpFR	3	9	-1	CRYSTAL	418	n/a	n/a	-1	n/a	n/a	n/a	n/a	n/a
1327737	REC_WORD	wordpools/wasnorm_wordpool_less_exclusions.txt	LTP211	ltpFR	3	9	-1	NUCLEUS	961	n/a	n/a	-1	n/a	n/a	n/a	n/a	n/a
1329104	REC_WORD	wordpools/wasnorm_wordpool_less_exclusions.txt	LTP211	ltpFR	3	9	-1	INN	739	n/a	n/a	-1	n/a	n/a	n/a	n/a	n/a
1330261	REC_WORD	wordpools/wasnorm_wordpool_less_exclusions.txt	LTP211	ltpFR	3	9	-1	PUMPKIN	1142	n/a	n/a	-1	n/a	n/a	n/a	n/a	n/a
1331398	REC_WORD	wordpools/wasnorm_wordpool_less_exclusions.txt	LTP211	ltpFR	3	9	-1	PREACHER	1119	n/a	n/a	-1	n/a	n/a	n/a	n/a	n/a
1332745	REC_WORD	wordpools/wasnorm_wordpool_less_exclusions.txt	LTP211	ltpFR	3	9	-1	BEETLE	116	n/a	n/a	-1	n/a	n/a	n/a	n/a	n/a
1333783	REC_WORD	wordpools/wasnorm_wordpool_less_exclusions.txt	LTP211	ltpFR	3	9	-1	TANGERINE	1431	n/a	n/a	-1	n/a	n/a	n/a	n/a	n/a
1335270	REC_WORD	wordpools/wasnorm_wordpool_less_exclusions.txt	LTP211	ltpFR	3	9	-1	CHURCH	307	n/a	n/a	-1	n/a	n/a	n/a	n/a	n/a
1336487	REC_WORD	wordpools/wasnorm_wordpool_less_exclusions.txt	LTP211	ltpFR	3	9	-1	MANSION	864	n/a	n/a	-1	n/a	n/a	n/a	n/a	n/a
1337799	REC_WORD	wordpools/wasnorm_wordpool_less_exclusions.txt	LTP211	ltpFR	3	9	-1	BANKER	84	n/a	n/a	-1	n/a	n/a	n/a	n/a	n/a
1340817	REC_WORD	wordpools/wasnorm_wordpool_less_exclusions.txt	LTP211	ltpFR	3	9	-1	ENGINEER	536	n/a	n/a	-1	n/a	n/a	n/a	n/a	n/a
1342508	REC_WORD	wordpools/wasnorm_wordpool_less_exclusions.txt	LTP211	ltpFR	3	9	-1	LODGE	839	n/a	n/a	-1	n/a	n/a	n/a	n/a	n/a
1345270	REC_WORD_VV	wordpools/wasnorm_wordpool_less_exclusions.txt	LTP211	ltpFR	3	9	n/a	<>	-1	n/a	n/a	n/a	n/a	n/a	n/a	n/a	n/a
1345910	REC_WORD_VV	wordpools/wasnorm_wordpool_less_exclusions.txt	LTP211	ltpFR	3	9	n/a	<>	-1	n/a	n/a	n/a	n/a	n/a	n/a	n/a	n/a
1346883	REC_WORD	wordpools/wasnorm_wordpool_less_exclusions.txt	LTP211	ltpFR	3	9	0	VIOLIN	1571	n/a	n/a	1	n/a	n/a	n/a	n/a	n/a
1347808	REC_WORD_VV	wordpools/wasnorm_wordpool_less_exclusions.txt	LTP211	ltpFR	3	9	n/a	<>	-1	n/a	n/a	n/a	n/a	n/a	n/a	n/a	n/a
1349571	REC_WORD	wordpools/wasnorm_wordpool_less_exclusions.txt	LTP211	ltpFR	3	9	-1	FIDDLE	561	n/a	n/a	-1	n/a	n/a	n/a	n/a	n/a
1350558	REC_WORD_VV	wordpools/wasnorm_wordpool_less_exclusions.txt	LTP211	ltpFR	3	9	n/a	<>	-1	n/a	n/a	n/a	n/a	n/a	n/a	n/a	n/a
1350662	REC_WORD	wordpools/wasnorm_wordpool_less_exclusions.txt	LTP211	ltpFR	3	9	-1	VIOLA	1570	n/a	n/a	-1	n/a	n/a	n/a	n/a	n/a
1407175	WORD	wordpools/wasnorm_wordpool_less_exclusions.txt	LTP211	ltpFR	3	10	0	CREATURE	403	n/a	n/a	0	0.57763671875	0.412841796875	1	lower	amplitud.ttf
1411206	WORD	wordpools/wasnorm_wordpool_less_exclusions.txt	LTP211	ltpFR	3	10	0	CLARINET	317	n/a	n/a	0	0.57763671875	0.412841796875	1	lower	amplitud.ttf
1415037	WORD	wordpools/wasnorm_wordpool_less_exclusions.txt	LTP211	ltpFR	3	10	0	BANANA	77	n/a	n/a	0	0.57763671875	0.412841796875	1	lower	amplitud.ttf
1418935	WORD	wordpools/wasnorm_wordpool_less_exclusions.txt	LTP211	ltpFR	3	10	0	FINGERNAIL	568	n/a	n/a	0	0.57763671875	0.412841796875	1	lower	amplitud.ttf
1423100	WORD	wordpools/wasnorm_wordpool_less_exclusions.txt	LTP211	ltpFR	3	10	0	PICTURE	1061	n/a	n/a	1	0.57763671875	0.412841796875	1	lower	amplitud.ttf
1427032	WORD	wordpools/wasnorm_wordpool_less_exclusions.txt	LTP211	ltpFR	3	10	0	TUBE	1516	n/a	n/a	0	0.57763671875	0.412841796875	1	lower	amplitud.ttf
1431232	WORD	wordpools/wasnorm_wordpool_less_exclusions.txt	LTP211	ltpFR	3	10	0	VALVE	1546	n/a	n/a	0	0.57763671875	0.412841796875	1	lower	amplitud.ttf
1435264	WORD	wordpools/wasnorm_wordpool_less_exclusions.txt	LTP211	ltpFR	3	10	0	MARROW	872	n/a	n/a	0	0.57763671875	0.412841796875	1	lower	amplitud.ttf
1439479	WORD	wordpools/wasnorm_wordpool_less_exclusions.txt	LTP211	ltpFR	3	10	0	COLONEL	348	n/a	n/a	1	0.57763671875	0.412841796875	1	lower	amplitud.ttf
1443527	WORD	wordpools/wasnorm_wordpool_less_exclusions.txt	LTP211	ltpFR	3	10	0	CRITIC	410	n/a	n/a	1	0.57763671875	0.412841796875	1	lower	amplitud.ttf
1447354	WORD	wordpools/wasnorm_wordpool_less_exclusions.txt	LTP211	ltpFR	3	10	0	MOVIE	927	n/a	n/a	1	0.57763671875	0.412841796875	1	lower	amplitud.ttf
1451224	WORD	wordpools/wasnorm_wordpool_less_exclusions.txt	LTP211	ltpFR	3	10	0	CANAL	226	n/a	n/a	1	0.57763671875	0.412841796875	1	lower	amplitud.ttf
1455071	WORD	wordpools/wasnorm_wordpool_less_exclusions.txt	LTP211	ltpFR	3	10	0	REEF	1177	n/a	n/a	1	0.57763671875	0.412841796875	1	lower	amplitud.ttf
1459271	WORD	wordpools/wasnorm_wordpool_less_exclusions.txt	LTP211	ltpFR	3	10	0	BATTERY	101	n/a	n/a	0	0.57763671875	0.412841796875	1	lower	amplitud.ttf
1463232	WORD	wordpools/wasnorm_wordpool_less_exclusions.txt	LTP211	ltpFR	3	10	0	PATRIOT	1026	n/a	n/a	1	0.57763671875	0.412841796875	1	lower	amplitud.ttf
1467066	WORD	wordpools/wasnorm_wordpool_less_exclusions.txt	LTP211	ltpFR	3	10	0	CHEEK	287	n/a	n/a	0	0.57763671875	0.412841796875	1	lower	amplitud.ttf
1472785	REC_START	n/a	LTP211	ltpFR	3	10	n/a	n/a	n/a	n/a	n/a	n/a	n/a	n/a	n/a	n/a	n/a
1474436	REC_WORD	wordpools/wasnorm_wordpool_less_exclusions.txt	LTP211	ltpFR	3	10	0	CREATURE	403	n/a	n/a	0	n/a	n/a	n/a	n/a	n/a
1476017	REC_WORD	wordpools/wasnorm_wordpool_less_exclusions.txt	LTP211	ltpFR	3	10	0	CLARINET	317	n/a	n/a	0	n/a	n/a	n/a	n/a	n/a
1477704	REC_WORD	wordpools/wasnorm_wordpool_less_exclusions.txt	LTP211	ltpFR	3	10	0	BANANA	77	n/a	n/a	0	n/a	n/a	n/a	n/a	n/a
1479041	REC_WORD	wordpools/wasnorm_wordpool_less_exclusions.txt	LTP211	ltpFR	3	10	0	FINGERNAIL	568	n/a	n/a	0	n/a	n/a	n/a	n/a	n/a
1480747	REC_WORD	wordpools/wasnorm_wordpool_less_exclusions.txt	LTP211	ltpFR	3	10	0	PICTURE	1061	n/a	n/a	1	n/a	n/a	n/a	n/a	n/a
1482218	REC_WORD	wordpools/wasnorm_wordpool_less_exclusions.txt	LTP211	ltpFR	3	10	0	TUBE	1516	n/a	n/a	0	n/a	n/a	n/a	n/a	n/a
1483555	REC_WORD	wordpools/wasnorm_wordpool_less_exclusions.txt	LTP211	ltpFR	3	10	0	VALVE	1546	n/a	n/a	0	n/a	n/a	n/a	n/a	n/a
1484892	REC_WORD	wordpools/wasnorm_wordpool_less_exclusions.txt	LTP211	ltpFR	3	10	0	MARROW	872	n/a	n/a	0	n/a	n/a	n/a	n/a	n/a
1486524	REC_WORD	wordpools/wasnorm_wordpool_less_exclusions.txt	LTP211	ltpFR	3	10	0	COLONEL	348	n/a	n/a	1	n/a	n/a	n/a	n/a	n/a
1488140	REC_WORD	wordpools/wasnorm_wordpool_less_exclusions.txt	LTP211	ltpFR	3	10	0	CRITIC	410	n/a	n/a	1	n/a	n/a	n/a	n/a	n/a
1489774	REC_WORD	wordpools/wasnorm_wordpool_less_exclusions.txt	LTP211	ltpFR	3	10	0	MOVIE	927	n/a	n/a	1	n/a	n/a	n/a	n/a	n/a
1491500	REC_WORD	wordpools/wasnorm_wordpool_less_exclusions.txt	LTP211	ltpFR	3	10	0	CANAL	226	n/a	n/a	1	n/a	n/a	n/a	n/a	n/a
1493178	REC_WORD	wordpools/wasnorm_wordpool_less_exclusions.txt	LTP211	ltpFR	3	10	0	REEF	1177	n/a	n/a	1	n/a	n/a	n/a	n/a	n/a
1495284	REC_WORD	wordpools/wasnorm_wordpool_less_exclusions.txt	LTP211	ltpFR	3	10	0	BATTERY	101	n/a	n/a	0	n/a	n/a	n/a	n/a	n/a
1496930	REC_WORD	wordpools/wasnorm_wordpool_less_exclusions.txt	LTP211	ltpFR	3	10	0	PATRIOT	1026	n/a	n/a	1	n/a	n/a	n/a	n/a	n/a
1500013	REC_WORD	wordpools/wasnorm_wordpool_less_exclusions.txt	LTP211	ltpFR	3	10	0	CHEEK	287	n/a	n/a	0	n/a	n/a	n/a	n/a	n/a
1514949	REC_WORD_VV	wordpools/wasnorm_wordpool_less_exclusions.txt	LTP211	ltpFR	3	10	n/a	<>	-1	n/a	n/a	n/a	n/a	n/a	n/a	n/a	n/a
1515263	REC_WORD_VV	wordpools/wasnorm_wordpool_less_exclusions.txt	LTP211	ltpFR	3	10	n/a	<>	-1	n/a	n/a	n/a	n/a	n/a	n/a	n/a	n/a
1557257	WORD	wordpools/wasnorm_wordpool_less_exclusions.txt	LTP211	ltpFR	3	11	1	BARTENDER	92	n/a	n/a	1	0.422607421875	0.5869140625	0	upper	zerothre.ttf
1561305	WORD	wordpools/wasnorm_wordpool_less_exclusions.txt	LTP211	ltpFR	3	11	1	BATHTUB	100	n/a	n/a	0	0.422607421875	0.5869140625	0	upper	zerothre.ttf
1565220	WORD	wordpools/wasnorm_wordpool_less_exclusions.txt	LTP211	ltpFR	3	11	1	SWIMMER	1420	n/a	n/a	1	0.422607421875	0.5869140625	0	upper	zerothre.ttf
1569269	WORD	wordpools/wasnorm_wordpool_less_exclusions.txt	LTP211	ltpFR	3	11	1	WORLD	1622	n/a	n/a	0	0.422607421875	0.5869140625	0	upper	zerothre.ttf
1573467	WORD	wordpools/wasnorm_wordpool_less_exclusions.txt	LTP211	ltpFR	3	11	1	MARKET	871	n/a	n/a	0	0.422607421875	0.5869140625	0	upper	zerothre.ttf
1577428	WORD	wordpools/wasnorm_wordpool_less_exclusions.txt	LTP211	ltpFR	3	11	1	RIB	1188	n/a	n/a	0	0.422607421875	0.5869140625	0	upper	zerothre.ttf
1581648	WORD	wordpools/wasnorm_wordpool_less_exclusions.txt	LTP211	ltpFR	3	11	1	SHEET	1279	n/a	n/a	0	0.422607421875	0.5869140625	0	upper	zerothre.ttf
1585847	WORD	wordpools/wasnorm_wordpool_less_exclusions.txt	LTP211	ltpFR	3	11	1	ALMANAC	17	n/a	n/a	0	0.422607421875	0.5869140625	0	upper	zerothre.ttf
1589829	WORD	wordpools/wasnorm_wordpool_less_exclusions.txt	LTP211	ltpFR	3	11	1	HEART	697	n/a	n/a	0	0.422607421875	0.5869140625	0	upper	zerothre.ttf
1593777	WORD	wordpools/wasnorm_wordpool_less_exclusions.txt	LTP211	ltpFR	3	11	1	DONOR	485	n/a	n/a	1	0.422607421875	0.5869140625	0	upper	zerothre.ttf
1597855	WORD	wordpools/wasnorm_wordpool_less_exclusions.txt	LTP211	ltpFR	3	11	1	RESTAURANT	1187	n/a	n/a	0	0.422607421875	0.5869140625	0	upper	zerothre.ttf
1601740	WORD	wordpools/wasnorm_wordpool_less_exclusions.txt	LTP211	ltpFR	3	11	1	AUTHOR	61	n/a	n/a	1	0.422607421875	0.5869140625	0	upper	zerothre.ttf
1605705	WORD	wordpools/wasnorm_wordpool_less_exclusions.txt	LTP211	ltpFR	3	11	1	TUNA	1518	n/a	n/a	0	0.422607421875	0.5869140625	0	upper	zerothre.ttf
1609653	WORD	wordpools/wasnorm_wordpool_less_exclusions.txt	LTP211	ltpFR	3	11	1	PROFESSIONAL	1130	n/a	n/a	1	0.422607421875	0.5869140625	0	upper	zerothre.ttf
1613668	WORD	wordpools/wasnorm_wordpool_less_exclusions.txt	LTP211	ltpFR	3	11	1	ARENA	37	n/a	n/a	0	0.422607421875	0.5869140625	0	upper	zerothre.ttf
1617868	WORD	wordpools/wasnorm_wordpool_less_exclusions.txt	LTP211	ltpFR	3	11	1	PLANET	1082	n/a	n/a	1	0.422607421875	0.5869140625	0	upper	zerothre.ttf
1623741	REC_START	n/a	LTP211	ltpFR	3	11	n/a	n/a	n/a	n/a	n/a	n/a	n/a	n/a	n/a	n/a	n/a
1626076	REC_WORD	wordpools/wasnorm_wordpool_less_exclusions.txt	LTP211	ltpFR	3	11	1	BARTENDER	92	n/a	n/a	1	n/a	n/a	n/a	n/a	n/a
1627353	REC_WORD	wordpools/wasnorm_wordpool_less_exclusions.txt	LTP211	ltpFR	3	11	1	BATHTUB	100	n/a	n/a	0	n/a	n/a	n/a	n/a	n/a
1628475	REC_WORD	wordpools/wasnorm_wordpool_less_exclusions.txt	LTP211	ltpFR	3	11	1	SWIMMER	1420	n/a	n/a	1	n/a	n/a	n/a	n/a	n/a
1630460	REC_WORD	wordpools/wasnorm_wordpool_less_exclusions.txt	LTP211	ltpFR	3	11	1	WORLD	1622	n/a	n/a	0	n/a	n/a	n/a	n/a	n/a
1641121	REC_WORD	wordpools/wasnorm_wordpool_less_exclusions.txt	LTP211	ltpFR	3	11	1	RESTAURANT	1187	n/a	n/a	0	n/a	n/a	n/a	n/a	n/a
1644469	REC_WORD	wordpools/wasnorm_wordpool_less_exclusions.txt	LTP211	ltpFR	3	11	1	MARKET	871	n/a	n/a	0	n/a	n/a	n/a	n/a	n/a
1646838	REC_WORD	wordpools/wasnorm_wordpool_less_exclusions.txt	LTP211	ltpFR	3	11	1	RIB	1188	n/a	n/a	0	n/a	n/a	n/a	n/a	n/a
1647443	REC_WORD	wordpools/wasnorm_wordpool_less_exclusions.txt	LTP211	ltpFR	3	11	1	SHEET	1279	n/a	n/a	0	n/a	n/a	n/a	n/a	n/a
1648599	REC_WORD	wordpools/wasnorm_wordpool_less_exclusions.txt	LTP211	ltpFR	3	11	1	ALMANAC	17	n/a	n/a	0	n/a	n/a	n/a	n/a	n/a
1649388	REC_WORD	wordpools/wasnorm_wordpool_less_exclusions.txt	LTP211	ltpFR	3	11	1	HEART	697	n/a	n/a	0	n/a	n/a	n/a	n/a	n/a
1650380	REC_WORD	wordpools/wasnorm_wordpool_less_exclusions.txt	LTP211	ltpFR	3	11	1	DONOR	485	n/a	n/a	1	n/a	n/a	n/a	n/a	n/a
1651477	REC_WORD	wordpools/wasnorm_wordpool_less_exclusions.txt	LTP211	ltpFR	3	11	1	AUTHOR	61	n/a	n/a	1	n/a	n/a	n/a	n/a	n/a
1657847	REC_WORD	wordpools/wasnorm_wordpool_less_exclusions.txt	LTP211	ltpFR	3	11	1	ARENA	37	n/a	n/a	0	n/a	n/a	n/a	n/a	n/a
1659345	REC_WORD	wordpools/wasnorm_wordpool_less_exclusions.txt	LTP211	ltpFR	3	11	1	TUNA	1518	n/a	n/a	0	n/a	n/a	n/a	n/a	n/a
1663026	REC_WORD	wordpools/wasnorm_wordpool_less_exclusions.txt	LTP211	ltpFR	3	11	1	WORLD	1622	n/a	n/a	0	n/a	n/a	n/a	n/a	n/a
1665825	REC_WORD	wordpools/wasnorm_wordpool_less_exclusions.txt	LTP211	ltpFR	3	11	1	PLANET	1082	n/a	n/a	1	n/a	n/a	n/a	n/a	n/a
1671517	REC_WORD	wordpools/wasnorm_wordpool_less_exclusions.txt	LTP211	ltpFR	3	11	1	PROFESSIONAL	1130	n/a	n/a	1	n/a	n/a	n/a	n/a	n/a
1709831	WORD	wordpools/wasnorm_wordpool_less_exclusions.txt	LTP211	ltpFR	3	12	0	FAUCET	555	n/a	n/a	0	0.57763671875	0.412841796875	1	lower	amplitud.ttf
1713679	WORD	wordpools/wasnorm_wordpool_less_exclusions.txt	LTP211	ltpFR	3	12	0	TREAD	1499	n/a	n/a	1	0.57763671875	0.412841796875	1	lower	amplitud.ttf
1717660	WORD	wordpools/wasnorm_wordpool_less_exclusions.txt	LTP211	ltpFR	3	12	1	RACCOON	1153	n/a	n/a	0	0.422607421875	0.5869140625	0	upper	zerothre.ttf
1721491	WORD	wordpools/wasnorm_wordpool_less_exclusions.txt	LTP211	ltpFR	3	12	1	CASHIER	254	n/a	n/a	1	0.422607421875	0.5869140625	0	upper	zerothre.ttf
1725490	WORD	wordpools/wasnorm_wordpool_less_exclusions.txt	LTP211	ltpFR	3	12	1	LIPSTICK	829	n/a	n/a	0	0.422607421875	0.5869140625	0	upper	zerothre.ttf
1729706	WORD	wordpools/wasnorm_wordpool_less_exclusions.txt	LTP211	ltpFR	3	12	1	ROSE	1212	n/a	n/a	1	0.422607421875	0.5869140625	0	upper	zerothre.ttf
1733888	WORD	wordpools/wasnorm_wordpool_less_exclusions.txt	LTP211	ltpFR	3	12	0	BLUEJAY	141	n/a	n/a	0	0.57763671875	0.412841796875	1	lower	amplitud.ttf
1737770	WORD	wordpools/wasnorm_wordpool_less_exclusions.txt	LTP211	ltpFR	3	12	0	SWAN	1417	n/a	n/a	0	0.57763671875	0.412841796875	1	lower	amplitud.ttf
1741981	WORD	wordpools/wasnorm_wordpool_less_exclusions.txt	LTP211	ltpFR	3	12	0	QUAIL	1147	n/a	n/a	0	0.57763671875	0.412841796875	1	lower	amplitud.ttf
1745984	WORD	wordpools/wasnorm_wordpool_less_exclusions.txt	LTP211	ltpFR	3	12	0	BEET	115	n/a	n/a	0	0.57763671875	0.412841796875	1	lower	amplitud.ttf
1750201	WORD	wordpools/wasnorm_wordpool_less_exclusions.txt	LTP211	ltpFR	3	12	0	ANTLER	29	n/a	n/a	1	0.57763671875	0.412841796875	1	lower	amplitud.ttf
1754333	WORD	wordpools/wasnorm_wordpool_less_exclusions.txt	LTP211	ltpFR	3	12	0	YOLK	1633	n/a	n/a	0	0.57763671875	0.412841796875	1	lower	amplitud.ttf
1758231	WORD	wordpools/wasnorm_wordpool_less_exclusions.txt	LTP211	ltpFR	3	12	1	BUNNY	198	n/a	n/a	1	0.422607421875	0.5869140625	0	upper	zerothre.ttf
1762225	WORD	wordpools/wasnorm_wordpool_less_exclusions.txt	LTP211	ltpFR	3	12	1	SCALE	1241	n/a	n/a	0	0.422607421875	0.5869140625	0	upper	zerothre.ttf
1766093	WORD	wordpools/wasnorm_wordpool_less_exclusions.txt	LTP211	ltpFR	3	12	1	MAGNET	855	n/a	n/a	0	0.422607421875	0.5869140625	0	upper	zerothre.ttf
1770108	WORD	wordpools/wasnorm_wordpool_less_exclusions.txt	LTP211	ltpFR	3	12	1	SEED	1266	n/a	n/a	1	0.422607421875	0.5869140625	0	upper	zerothre.ttf
1775927	REC_START	n/a	LTP211	ltpFR	3	12	n/a	n/a	n/a	n/a	n/a	n/a	n/a	n/a	n/a	n/a	n/a
1780255	REC_WORD	wordpools/wasnorm_wordpool_less_exclusions.txt	LTP211	ltpFR	3	12	0	FAUCET	555	n/a	n/a	0	n/a	n/a	n/a	n/a	n/a
1781589	REC_WORD	wordpools/wasnorm_wordpool_less_exclusions.txt	LTP211	ltpFR	3	12	0	TREAD	1499	n/a	n/a	1	n/a	n/a	n/a	n/a	n/a
1783096	REC_WORD	wordpools/wasnorm_wordpool_less_exclusions.txt	LTP211	ltpFR	3	12	1	RACCOON	1153	n/a	n/a	0	n/a	n/a	n/a	n/a	n/a
1784876	REC_WORD	wordpools/wasnorm_wordpool_less_exclusions.txt	LTP211	ltpFR	3	12	1	CASHIER	254	n/a	n/a	1	n/a	n/a	n/a	n/a	n/a
1786343	REC_WORD	wordpools/wasnorm_wordpool_less_exclusions.txt	LTP211	ltpFR	3	12	1	LIPSTICK	829	n/a	n/a	0	n/a	n/a	n/a	n/a	n/a
1787900	REC_WORD	wordpools/wasnorm_wordpool_less_exclusions.txt	LTP211	ltpFR	3	12	1	ROSE	1212	n/a	n/a	1	n/a	n/a	n/a	n/a	n/a
1789416	REC_WORD	wordpools/wasnorm_wordpool_less_exclusions.txt	LTP211	ltpFR	3	12	0	BLUEJAY	141	n/a	n/a	0	n/a	n/a	n/a	n/a	n/a
1790667	REC_WORD	wordpools/wasnorm_wordpool_less_exclusions.txt	LTP211	ltpFR	3	12	0	SWAN	1417	n/a	n/a	0	n/a	n/a	n/a	n/a	n/a
1792320	REC_WORD	wordpools/wasnorm_wordpool_less_exclusions.txt	LTP211	ltpFR	3	12	0	QUAIL	1147	n/a	n/a	0	n/a	n/a	n/a	n/a	n/a
1794085	REC_WORD	wordpools/wasnorm_wordpool_less_exclusions.txt	LTP211	ltpFR	3	12	0	ANTLER	29	n/a	n/a	1	n/a	n/a	n/a	n/a	n/a
1795539	REC_WORD	wordpools/wasnorm_wordpool_less_exclusions.txt	LTP211	ltpFR	3	12	0	YOLK	1633	n/a	n/a	0	n/a	n/a	n/a	n/a	n/a
1797054	REC_WORD	wordpools/wasnorm_wordpool_less_exclusions.txt	LTP211	ltpFR	3	12	1	BUNNY	198	n/a	n/a	1	n/a	n/a	n/a	n/a	n/a
1802373	REC_WORD	wordpools/wasnorm_wordpool_less_exclusions.txt	LTP211	ltpFR	3	12	1	SCALE	1241	n/a	n/a	0	n/a	n/a	n/a	n/a	n/a
1803809	REC_WORD	wordpools/wasnorm_wordpool_less_exclusions.txt	LTP211	ltpFR	3	12	1	MAGNET	855	n/a	n/a	0	n/a	n/a	n/a	n/a	n/a
1804895	REC_WORD	wordpools/wasnorm_wordpool_less_exclusions.txt	LTP211	ltpFR	3	12	1	SEED	1266	n/a	n/a	1	n/a	n/a	n/a	n/a	n/a
1851578	REST_REWET	n/a	LTP211	ltpFR	3	12	n/a	n/a	n/a	n/a	n/a	n/a	n/a	n/a	n/a	n/a	n/a
2114623	WORD	wordpools/wasnorm_wordpool_less_exclusions.txt	LTP211	ltpFR	3	13	1	SHEARS	1276	n/a	n/a	0	0.422607421875	0.5869140625	0	upper	zerothre.ttf
2118638	WORD	wordpools/wasnorm_wordpool_less_exclusions.txt	LTP211	ltpFR	3	13	1	LEVER	815	n/a	n/a	0	0.422607421875	0.5869140625	0	upper	zerothre.ttf
2122699	WORD	wordpools/wasnorm_wordpool_less_exclusions.txt	LTP211	ltpFR	3	13	1	SIBLING	1301	n/a	n/a	1	0.422607421875	0.5869140625	0	upper	zerothre.ttf
2126648	WORD	wordpools/wasnorm_wordpool_less_exclusions.txt	LTP211	ltpFR	3	13	0	DIRECTOR	471	n/a	n/a	1	0.57763671875	0.412841796875	1	lower	amplitud.ttf
2130499	WORD	wordpools/wasnorm_wordpool_less_exclusions.txt	LTP211	ltpFR	3	13	0	TEACHER	1440	n/a	n/a	1	0.57763671875	0.412841796875	1	lower	amplitud.ttf
2134628	WORD	wordpools/wasnorm_wordpool_less_exclusions.txt	LTP211	ltpFR	3	13	0	SNORKEL	1336	n/a	n/a	0	0.57763671875	0.412841796875	1	lower	amplitud.ttf
2138848	WORD	wordpools/wasnorm_wordpool_less_exclusions.txt	LTP211	ltpFR	3	13	0	PERSON	1052	n/a	n/a	1	0.57763671875	0.412841796875	1	lower	amplitud.ttf
2143026	WORD	wordpools/wasnorm_wordpool_less_exclusions.txt	LTP211	ltpFR	3	13	0	FAMILY	550	n/a	n/a	1	0.57763671875	0.412841796875	1	lower	amplitud.ttf
2147095	WORD	wordpools/wasnorm_wordpool_less_exclusions.txt	LTP211	ltpFR	3	13	1	TOWEL	1489	n/a	n/a	0	0.422607421875	0.5869140625	0	upper	zerothre.ttf
2151279	WORD	wordpools/wasnorm_wordpool_less_exclusions.txt	LTP211	ltpFR	3	13	1	DRINK	498	n/a	n/a	0	0.422607421875	0.5869140625	0	upper	zerothre.ttf
2155177	WORD	wordpools/wasnorm_wordpool_less_exclusions.txt	LTP211	ltpFR	3	13	1	SCOTCH	1251	n/a	n/a	0	0.422607421875	0.5869140625	0	upper	zerothre.ttf
2159309	WORD	wordpools/wasnorm_wordpool_less_exclusions.txt	LTP211	ltpFR	3	13	1	SUNRISE	1407	n/a	n/a	0	0.422607421875	0.5869140625	0	upper	zerothre.ttf
2163170	WORD	wordpools/wasnorm_wordpool_less_exclusions.txt	LTP211	ltpFR	3	13	1	TRICYCLE	1506	n/a	n/a	0	0.422607421875	0.5869140625	0	upper	zerothre.ttf
2167351	WORD	wordpools/wasnorm_wordpool_less_exclusions.txt	LTP211	ltpFR	3	13	0	ELF	525	n/a	n/a	1	0.57763671875	0.412841796875	1	lower	amplitud.ttf
2171521	WORD	wordpools/wasnorm_wordpool_less_exclusions.txt	LTP211	ltpFR	3	13	0	STOCKING	1383	n/a	n/a	0	0.57763671875	0.412841796875	1	lower	amplitud.ttf
2175452	WORD	wordpools/wasnorm_wordpool_less_exclusions.txt	LTP211	ltpFR	3	13	0	TIDE	1465	n/a	n/a	1	0.57763671875	0.412841796875	1	lower	amplitud.ttf
2181421	REC_START	n/a	LTP211	ltpFR	3	13	n/a	n/a	n/a	n/a	n/a	n/a	n/a	n/a	n/a	n/a	n/a
2183132	REC_WORD	wordpools/wasnorm_wordpool_less_exclusions.txt	LTP211	ltpFR	3	13	1	SHEARS	1276	n/a	n/a	0	n/a	n/a	n/a	n/a	n/a
2184272	REC_WORD	wordpools/wasnorm_wordpool_less_exclusions.txt	LTP211	ltpFR	3	13	1	LEVER	815	n/a	n/a	0	n/a	n/a	n/a	n/a	n/a
2185316	REC_WORD	wordpools/wasnorm_wordpool_less_exclusions.txt	LTP211	ltpFR	3	13	1	SIBLING	1301	n/a	n/a	1	n/a	n/a	n/a	n/a	n/a
2186432	REC_WORD	wordpools/wasnorm_wordpool_less_exclusions.txt	LTP211	ltpFR	3	13	0	DIRECTOR	471	n/a	n/a	1	n/a	n/a	n/a	n/a	n/a
2187731	REC_WORD	wordpools/wasnorm_wordpool_less_exclusions.txt	LTP211	ltpFR	3	13	0	TEACHER	1440	n/a	n/a	1	n/a	n/a	n/a	n/a	n/a
2188709	REC_WORD	wordpools/wasnorm_wordpool_less_exclusions.txt	LTP211	ltpFR	3	13	0	SNORKEL	1336	n/a	n/a	0	n/a	n/a	n/a	n/a	n/a
2190465	REC_WORD	wordpools/wasnorm_wordpool_less_exclusions.txt	LTP211	ltpFR	3	13	0	PERSON	1052	n/a	n/a	1	n/a	n/a	n/a	n/a	n/a
2196546	REC_WORD	wordpools/wasnorm_wordpool_less_exclusions.txt	LTP211	ltpFR	3	13	1	TOWEL	1489	n/a	n/a	0	n/a	n/a	n/a	n/a	n/a
2198649	REC_WORD	wordpools/wasnorm_wordpool_less_exclusions.txt	LTP211	ltpFR	3	13	0	FAMILY	550	n/a	n/a	1	n/a	n/a	n/a	n/a	n/a
2200363	REC_WORD	wordpools/wasnorm_wordpool_less_exclusions.txt	LTP211	ltpFR	3	13	1	DRINK	498	n/a	n/a	0	n/a	n/a	n/a	n/a	n/a
2201683	REC_WORD	wordpools/wasnorm_wordpool_less_exclusions.txt	LTP211	ltpFR	3	13	1	SCOTCH	1251	n/a	n/a	0	n/a	n/a	n/a	n/a	n/a
2208973	REC_WORD	wordpools/wasnorm_wordpool_less_exclusions.txt	LTP211	ltpFR	3	13	0	ELF	525	n/a	n/a	1	n/a	n/a	n/a	n/a	n/a
2210609	REC_WORD	wordpools/wasnorm_wordpool_less_exclusions.txt	LTP211	ltpFR	3	13	0	STOCKING	1383	n/a	n/a	0	n/a	n/a	n/a	n/a	n/a
2212276	REC_WORD	wordpools/wasnorm_wordpool_less_exclusions.txt	LTP211	ltpFR	3	13	1	TRICYCLE	1506	n/a	n/a	0	n/a	n/a	n/a	n/a	n/a
2214575	REC_WORD	wordpools/wasnorm_wordpool_less_exclusions.txt	LTP211	ltpFR	3	13	1	SUNRISE	1407	n/a	n/a	0	n/a	n/a	n/a	n/a	n/a
2215563	REC_WORD_VV	wordpools/wasnorm_wordpool_less_exclusions.txt	LTP211	ltpFR	3	13	n/a	<>	-1	n/a	n/a	n/a	n/a	n/a	n/a	n/a	n/a
2217244	REC_WORD	wordpools/wasnorm_wordpool_less_exclusions.txt	LTP211	ltpFR	3	13	0	TIDE	1465	n/a	n/a	1	n/a	n/a	n/a	n/a	n/a
2267182	WORD	wordpools/wasnorm_wordpool_less_exclusions.txt	LTP211	ltpFR	3	14	1	SUN	1406	n/a	n/a	0	0.422607421875	0.5869140625	0	upper	zerothre.ttf
2271164	WORD	wordpools/wasnorm_wordpool_less_exclusions.txt	LTP211	ltpFR	3	14	1	SKIN	1318	n/a	n/a	1	0.422607421875	0.5869140625	0	upper	zerothre.ttf
2274994	WORD	wordpools/wasnorm_wordpool_less_exclusions.txt	LTP211	ltpFR	3	14	1	SPINACH	1352	n/a	n/a	1	0.422607421875	0.5869140625	0	upper	zerothre.ttf
2279177	WORD	wordpools/wasnorm_wordpool_less_exclusions.txt	LTP211	ltpFR	3	14	0	DRAWING	494	n/a	n/a	0	0.57763671875	0.412841796875	1	lower	amplitud.ttf
2283008	WORD	wordpools/wasnorm_wordpool_less_exclusions.txt	LTP211	ltpFR	3	14	0	ERASER	538	n/a	n/a	0	0.57763671875	0.412841796875	1	lower	amplitud.ttf
2287136	WORD	wordpools/wasnorm_wordpool_less_exclusions.txt	LTP211	ltpFR	3	14	0	TROUT	1511	n/a	n/a	0	0.57763671875	0.412841796875	1	lower	amplitud.ttf
2291004	WORD	wordpools/wasnorm_wordpool_less_exclusions.txt	LTP211	ltpFR	3	14	0	COLESLAW	344	n/a	n/a	0	0.57763671875	0.412841796875	1	lower	amplitud.ttf
2295003	WORD	wordpools/wasnorm_wordpool_less_exclusions.txt	LTP211	ltpFR	3	14	1	SATURN	1236	n/a	n/a	0	0.422607421875	0.5869140625	0	upper	zerothre.ttf
2299018	WORD	wordpools/wasnorm_wordpool_less_exclusions.txt	LTP211	ltpFR	3	14	1	CARD	243	n/a	n/a	0	0.422607421875	0.5869140625	0	upper	zerothre.ttf
2303150	WORD	wordpools/wasnorm_wordpool_less_exclusions.txt	LTP211	ltpFR	3	14	1	CONDUCTOR	362	n/a	n/a	1	0.422607421875	0.5869140625	0	upper	zerothre.ttf
2307300	WORD	wordpools/wasnorm_wordpool_less_exclusions.txt	LTP211	ltpFR	3	14	0	BAND	78	n/a	n/a	1	0.57763671875	0.412841796875	1	lower	amplitud.ttf
2311332	WORD	wordpools/wasnorm_wordpool_less_exclusions.txt	LTP211	ltpFR	3	14	0	MERMAID	887	n/a	n/a	1	0.57763671875	0.412841796875	1	lower	amplitud.ttf
2315493	WORD	wordpools/wasnorm_wordpool_less_exclusions.txt	LTP211	ltpFR	3	14	0	NUN	962	n/a	n/a	1	0.57763671875	0.412841796875	1	lower	amplitud.ttf
2319541	WORD	wordpools/wasnorm_wordpool_less_exclusions.txt	LTP211	ltpFR	3	14	0	TREAT	1501	n/a	n/a	0	0.57763671875	0.412841796875	1	lower	amplitud.ttf
2323393	WORD	wordpools/wasnorm_wordpool_less_exclusions.txt	LTP211	ltpFR	3	14	1	SKIRT	1319	n/a	n/a	0	0.422607421875	0.5869140625	0	upper	zerothre.ttf
2327341	WORD	wordpools/wasnorm_wordpool_less_exclusions.txt	LTP211	ltpFR	3	14	1	SHIRT	1287	n/a	n/a	0	0.422607421875	0.5869140625	0	upper	zerothre.ttf
2333332	REC_START	n/a	LTP211	ltpFR	3	14	n/a	n/a	n/a	n/a	n/a	n/a	n/a	n/a	n/a	n/a	n/a
2335172	REC_WORD	wordpools/wasnorm_wordpool_less_exclusions.txt	LTP211	ltpFR	3	14	1	SUN	1406	n/a	n/a	0	n/a	n/a	n/a	n/a	n/a
2336338	REC_WORD	wordpools/wasnorm_wordpool_less_exclusions.txt	LTP211	ltpFR	3	14	1	SKIN	1318	n/a	n/a	1	n/a	n/a	n/a	n/a	n/a
2337722	REC_WORD	wordpools/wasnorm_wordpool_less_exclusions.txt	LTP211	ltpFR	3	14	1	SPINACH	1352	n/a	n/a	1	n/a	n/a	n/a	n/a	n/a
2339353	REC_WORD	wordpools/wasnorm_wordpool_less_exclusions.txt	LTP211	ltpFR	3	14	0	DRAWING	494	n/a	n/a	0	n/a	n/a	n/a	n/a	n/a
2340401	REC_WORD	wordpools/wasnorm_wordpool_less_exclusions.txt	LTP211	ltpFR	3	14	0	ERASER	538	n/a	n/a	0	n/a	n/a	n/a	n/a	n/a
2341773	REC_WORD	wordpools/wasnorm_wordpool_less_exclusions.txt	LTP211	ltpFR	3	14	0	TROUT	1511	n/a	n/a	0	n/a	n/a	n/a	n/a	n/a
2342996	REC_WORD	wordpools/wasnorm_wordpool_less_exclusions.txt	LTP211	ltpFR	3	14	0	COLESLAW	344	n/a	n/a	0	n/a	n/a	n/a	n/a	n/a
2345023	REC_WORD	wordpools/wasnorm_wordpool_less_exclusions.txt	LTP211	ltpFR	3	14	1	SATURN	1236	n/a	n/a	0	n/a	n/a	n/a	n/a	n/a
2346347	REC_WORD	wordpools/wasnorm_wordpool_less_exclusions.txt	LTP211	ltpFR	3	14	1	CARD	243	n/a	n/a	0	n/a	n/a	n/a	n/a	n/a
2347639	REC_WORD	wordpools/wasnorm_wordpool_less_exclusions.txt	LTP211	ltpFR	3	14	1	CONDUCTOR	362	n/a	n/a	1	n/a	n/a	n/a	n/a	n/a
2349256	REC_WORD	wordpools/wasnorm_wordpool_less_exclusions.txt	LTP211	ltpFR	3	14	0	BAND	78	n/a	n/a	1	n/a	n/a	n/a	n/a	n/a
2351551	REC_WORD	wordpools/wasnorm_wordpool_less_exclusions.txt	LTP211	ltpFR	3	14	0	MERMAID	887	n/a	n/a	1	n/a	n/a	n/a	n/a	n/a
2354040	REC_WORD	wordpools/wasnorm_wordpool_less_exclusions.txt	LTP211	ltpFR	3	14	0	NUN	962	n/a	n/a	1	n/a	n/a	n/a	n/a	n/a
2356175	REC_WORD	wordpools/wasnorm_wordpool_less_exclusions.txt	LTP211	ltpFR	3	14	0	TREAT	1501	n/a	n/a	0	n/a	n/a	n/a	n/a	n/a
2358269	REC_WORD	wordpools/wasnorm_wordpool_less_exclusions.txt	LTP211	ltpFR	3	14	1	SKIRT	1319	n/a	n/a	0	n/a	n/a	n/a	n/a	n/a
2360350	REC_WORD	wordpools/wasnorm_wordpool_less_exclusions.txt	LTP211	ltpFR	3	14	1	SHIRT	1287	n/a	n/a	0	n/a	n/a	n/a	n/a	n/a
2418435	WORD	wordpools/wasnorm_wordpool_less_exclusions.txt	LTP211	ltpFR	3	15	0	CUPBOARD	425	n/a	n/a	1	0.57763671875	0.412841796875	1	lower	amplitud.ttf
2422349	WORD	wordpools/wasnorm_wordpool_less_exclusions.txt	LTP211	ltpFR	3	15	0	KEYBOARD	774	n/a	n/a	1	0.57763671875	0.412841796875	1	lower	amplitud.ttf
2426465	WORD	wordpools/wasnorm_wordpool_less_exclusions.txt	LTP211	ltpFR	3	15	0	PRINTER	1126	n/a	n/a	1	0.57763671875	0.412841796875	1	lower	amplitud.ttf
2430643	WORD	wordpools/wasnorm_wordpool_less_exclusions.txt	LTP211	ltpFR	3	15	0	VISITOR	1573	n/a	n/a	1	0.57763671875	0.412841796875	1	lower	amplitud.ttf
2434646	WORD	wordpools/wasnorm_wordpool_less_exclusions.txt	LTP211	ltpFR	3	15	0	THIGH	1457	n/a	n/a	0	0.57763671875	0.412841796875	1	lower	amplitud.ttf
2438590	WORD	wordpools/wasnorm_wordpool_less_exclusions.txt	LTP211	ltpFR	3	15	0	JEEP	753	n/a	n/a	1	0.57763671875	0.412841796875	1	lower	amplitud.ttf
2442538	WORD	wordpools/wasnorm_wordpool_less_exclusions.txt	LTP211	ltpFR	3	15	0	NAIL	936	n/a	n/a	0	0.57763671875	0.412841796875	1	lower	amplitud.ttf
2446658	WORD	wordpools/wasnorm_wordpool_less_exclusions.txt	LTP211	ltpFR	3	15	0	TEAPOT	1442	n/a	n/a	0	0.57763671875	0.412841796875	1	lower	amplitud.ttf
2450639	WORD	wordpools/wasnorm_wordpool_less_exclusions.txt	LTP211	ltpFR	3	15	0	SKILLET	1317	n/a	n/a	1	0.57763671875	0.412841796875	1	lower	amplitud.ttf
2454504	WORD	wordpools/wasnorm_wordpool_less_exclusions.txt	LTP211	ltpFR	3	15	0	REGISTER	1180	n/a	n/a	1	0.57763671875	0.412841796875	1	lower	amplitud.ttf
2458603	WORD	wordpools/wasnorm_wordpool_less_exclusions.txt	LTP211	ltpFR	3	15	0	WARRIOR	1589	n/a	n/a	1	0.57763671875	0.412841796875	1	lower	amplitud.ttf
2462785	WORD	wordpools/wasnorm_wordpool_less_exclusions.txt	LTP211	ltpFR	3	15	0	HUT	729	n/a	n/a	1	0.57763671875	0.412841796875	1	lower	amplitud.ttf
2466934	WORD	wordpools/wasnorm_wordpool_less_exclusions.txt	LTP211	ltpFR	3	15	0	PASTRY	1022	n/a	n/a	0	0.57763671875	0.412841796875	1	lower	amplitud.ttf
2470999	WORD	wordpools/wasnorm_wordpool_less_exclusions.txt	LTP211	ltpFR	3	15	0	RECIPE	1175	n/a	n/a	0	0.57763671875	0.412841796875	1	lower	amplitud.ttf
2475216	WORD	wordpools/wasnorm_wordpool_less_exclusions.txt	LTP211	ltpFR	3	15	0	HAMMER	680	n/a	n/a	0	0.57763671875	0.412841796875	1	lower	amplitud.ttf
2479282	WORD	wordpools/wasnorm_wordpool_less_exclusions.txt	LTP211	ltpFR	3	15	0	DEPARTMENT	449	n/a	n/a	1	0.57763671875	0.412841796875	1	lower	amplitud.ttf
2485020	REC_START	n/a	LTP211	ltpFR	3	15	n/a	n/a	n/a	n/a	n/a	n/a	n/a	n/a	n/a	n/a	n/a
2490373	REC_WORD	wordpools/wasnorm_wordpool_less_exclusions.txt	LTP211	ltpFR	3	15	0	CUPBOARD	425	n/a	n/a	1	n/a	n/a	n/a	n/a	n/a
2492144	REC_WORD	wordpools/wasnorm_wordpool_less_exclusions.txt	LTP211	ltpFR	3	15	0	KEYBOARD	774	n/a	n/a	1	n/a	n/a	n/a	n/a	n/a
2494972	REC_WORD	wordpools/wasnorm_wordpool_less_exclusions.txt	LTP211	ltpFR	3	15	0	PRINTER	1126	n/a	n/a	1	n/a	n/a	n/a	n/a	n/a
2496635	REC_WORD	wordpools/wasnorm_wordpool_less_exclusions.txt	LTP211	ltpFR	3	15	0	VISITOR	1573	n/a	n/a	1	n/a	n/a	n/a	n/a	n/a
2497978	REC_WORD	wordpools/wasnorm_wordpool_less_exclusions.txt	LTP211	ltpFR	3	15	0	THIGH	1457	n/a	n/a	0	n/a	n/a	n/a	n/a	n/a
2500310	REC_WORD	wordpools/wasnorm_wordpool_less_exclusions.txt	LTP211	ltpFR	3	15	0	JEEP	753	n/a	n/a	1	n/a	n/a	n/a	n/a	n/a
2501662	REC_WORD	wordpools/wasnorm_wordpool_less_exclusions.txt	LTP211	ltpFR	3	15	0	NAIL	936	n/a	n/a	0	n/a	n/a	n/a	n/a	n/a
2503512	REC_WORD	wordpools/wasnorm_wordpool_less_exclusions.txt	LTP211	ltpFR	3	15	0	SKILLET	1317	n/a	n/a	1	n/a	n/a	n/a	n/a	n/a
2505204	REC_WORD	wordpools/wasnorm_wordpool_less_exclusions.txt	LTP211	ltpFR	3	15	0	TEAPOT	1442	n/a	n/a	0	n/a	n/a	n/a	n/a	n/a
2509325	REC_WORD	wordpools/wasnorm_wordpool_less_exclusions.txt	LTP211	ltpFR	3	15	0	REGISTER	1180	n/a	n/a	1	n/a	n/a	n/a	n/a	n/a
2513241	REC_WORD	wordpools/wasnorm_wordpool_less_exclusions.txt	LTP211	ltpFR	3	15	0	WARRIOR	1589	n/a	n/a	1	n/a	n/a	n/a	n/a	n/a
2514508	REC_WORD	wordpools/wasnorm_wordpool_less_exclusions.txt	LTP211	ltpFR	3	15	0	HUT	729	n/a	n/a	1	n/a	n/a	n/a	n/a	n/a
2516731	REC_WORD	wordpools/wasnorm_wordpool_less_exclusions.txt	LTP211	ltpFR	3	15	0	PASTRY	1022	n/a	n/a	0	n/a	n/a	n/a	n/a	n/a
2518035	REC_WORD	wordpools/wasnorm_wordpool_less_exclusions.txt	LTP211	ltpFR	3	15	0	RECIPE	1175	n/a	n/a	0	n/a	n/a	n/a	n/a	n/a
2519013	REC_WORD	wordpools/wasnorm_wordpool_less_exclusions.txt	LTP211	ltpFR	3	15	0	HAMMER	680	n/a	n/a	0	n/a	n/a	n/a	n/a	n/a
2520229	REC_WORD	wordpools/wasnorm_wordpool_less_exclusions.txt	LTP211	ltpFR	3	15	0	DEPARTMENT	449	n/a	n/a	1	n/a	n/a	n/a	n/a	n/a
2564602	WORD	wordpools/wasnorm_wordpool_less_exclusions.txt	LTP211	ltpFR	3	16	-1	CIGARETTE	309	n/a	n/a	-1	1.0	1.0	1	upper	Verdana.ttf
2568651	WORD	wordpools/wasnorm_wordpool_less_exclusions.txt	LTP211	ltpFR	3	16	-1	ASHTRAY	45	n/a	n/a	-1	1.0	1.0	1	upper	Verdana.ttf
2572649	WORD	wordpools/wasnorm_wordpool_less_exclusions.txt	LTP211	ltpFR	3	16	-1	TORTOISE	1486	n/a	n/a	-1	1.0	1.0	1	upper	Verdana.ttf
2576815	WORD	wordpools/wasnorm_wordpool_less_exclusions.txt	LTP211	ltpFR	3	16	-1	MONARCH	906	n/a	n/a	-1	1.0	1.0	1	upper	Verdana.ttf
2580759	WORD	wordpools/wasnorm_wordpool_less_exclusions.txt	LTP211	ltpFR	3	16	-1	SUSPECT	1415	n/a	n/a	-1	1.0	1.0	1	upper	Verdana.ttf
2584678	WORD	wordpools/wasnorm_wordpool_less_exclusions.txt	LTP211	ltpFR	3	16	-1	DEPUTY	450	n/a	n/a	-1	1.0	1.0	1	upper	Verdana.ttf
2588810	WORD	wordpools/wasnorm_wordpool_less_exclusions.txt	LTP211	ltpFR	3	16	-1	CHESS	294	n/a	n/a	-1	1.0	1.0	1	upper	Verdana.ttf
2592955	WORD	wordpools/wasnorm_wordpool_less_exclusions.txt	LTP211	ltpFR	3	16	-1	OCEAN	970	n/a	n/a	-1	1.0	1.0	1	upper	Verdana.ttf
2597007	WORD	wordpools/wasnorm_wordpool_less_exclusions.txt	LTP211	ltpFR	3	16	-1	YACHT	1629	n/a	n/a	-1	1.0	1.0	1	upper	Verdana.ttf
2601002	WORD	wordpools/wasnorm_wordpool_less_exclusions.txt	LTP211	ltpFR	3	16	-1	CARROT	249	n/a	n/a	-1	1.0	1.0	1	upper	Verdana.ttf
2604837	WORD	wordpools/wasnorm_wordpool_less_exclusions.txt	LTP211	ltpFR	3	16	-1	DRAWER	493	n/a	n/a	-1	1.0	1.0	1	upper	Verdana.ttf
2608936	WORD	wordpools/wasnorm_wordpool_less_exclusions.txt	LTP211	ltpFR	3	16	-1	LAUNDRY	803	n/a	n/a	-1	1.0	1.0	1	upper	Verdana.ttf
2612951	WORD	wordpools/wasnorm_wordpool_less_exclusions.txt	LTP211	ltpFR	3	16	-1	TOY	1492	n/a	n/a	-1	1.0	1.0	1	upper	Verdana.ttf
2617033	WORD	wordpools/wasnorm_wordpool_less_exclusions.txt	LTP211	ltpFR	3	16	-1	FREEZER	604	n/a	n/a	-1	1.0	1.0	1	upper	Verdana.ttf
2621233	WORD	wordpools/wasnorm_wordpool_less_exclusions.txt	LTP211	ltpFR	3	16	-1	OUTLAW	989	n/a	n/a	-1	1.0	1.0	1	upper	Verdana.ttf
2625244	WORD	wordpools/wasnorm_wordpool_less_exclusions.txt	LTP211	ltpFR	3	16	-1	LID	817	n/a	n/a	-1	1.0	1.0	1	upper	Verdana.ttf
2631272	REC_START	n/a	LTP211	ltpFR	3	16	n/a	n/a	n/a	n/a	n/a	n/a	n/a	n/a	n/a	n/a	n/a
2632692	REC_WORD	wordpools/wasnorm_wordpool_less_exclusions.txt	LTP211	ltpFR	3	16	-1	CIGARETTE	309	n/a	n/a	-1	n/a	n/a	n/a	n/a	n/a
2634779	REC_WORD	wordpools/wasnorm_wordpool_less_exclusions.txt	LTP211	ltpFR	3	16	-1	ASHTRAY	45	n/a	n/a	-1	n/a	n/a	n/a	n/a	n/a
2636068	REC_WORD	wordpools/wasnorm_wordpool_less_exclusions.txt	LTP211	ltpFR	3	16	-1	TORTOISE	1486	n/a	n/a	-1	n/a	n/a	n/a	n/a	n/a
2637453	REC_WORD	wordpools/wasnorm_wordpool_less_exclusions.txt	LTP211	ltpFR	3	16	-1	MONARCH	906	n/a	n/a	-1	n/a	n/a	n/a	n/a	n/a
2638816	REC_WORD	wordpools/wasnorm_wordpool_less_exclusions.txt	LTP211	ltpFR	3	16	-1	SUSPECT	1415	n/a	n/a	-1	n/a	n/a	n/a	n/a	n/a
2640516	REC_WORD	wordpools/wasnorm_wordpool_less_exclusions.txt	LTP211	ltpFR	3	16	-1	DEPUTY	450	n/a	n/a	-1	n/a	n/a	n/a	n/a	n/a
2642297	REC_WORD	wordpools/wasnorm_wordpool_less_exclusions.txt	LTP211	ltpFR	3	16	-1	CHESS	294	n/a	n/a	-1	n/a	n/a	n/a	n/a	n/a
2644013	REC_WORD	wordpools/wasnorm_wordpool_less_exclusions.txt	LTP211	ltpFR	3	16	-1	OCEAN	970	n/a	n/a	-1	n/a	n/a	n/a	n/a	n/a
2645385	REC_WORD	wordpools/wasnorm_wordpool_less_exclusions.txt	LTP211	ltpFR	3	16	-1	YACHT	1629	n/a	n/a	-1	n/a	n/a	n/a	n/a	n/a
2647091	REC_WORD	wordpools/wasnorm_wordpool_less_exclusions.txt	LTP211	ltpFR	3	16	-1	CARROT	249	n/a	n/a	-1	n/a	n/a	n/a	n/a	n/a
2649954	REC_WORD	wordpools/wasnorm_wordpool_less_exclusions.txt	LTP211	ltpFR	3	16	-1	DRAWER	493	n/a	n/a	-1	n/a	n/a	n/a	n/a	n/a
2650942	REC_WORD	wordpools/wasnorm_wordpool_less_exclusions.txt	LTP211	ltpFR	3	16	-1	LAUNDRY	803	n/a	n/a	-1	n/a	n/a	n/a	n/a	n/a
2651988	REC_WORD	wordpools/wasnorm_wordpool_less_exclusions.txt	LTP211	ltpFR	3	16	-1	TOY	1492	n/a	n/a	-1	n/a	n/a	n/a	n/a	n/a
2653078	REC_WORD	wordpools/wasnorm_wordpool_less_exclusions.txt	LTP211	ltpFR	3	16	-1	FREEZER	604	n/a	n/a	-1	n/a	n/a	n/a	n/a	n/a
2654180	REC_WORD	wordpools/wasnorm_wordpool_less_exclusions.txt	LTP211	ltpFR	3	16	-1	OUTLAW	989	n/a	n/a	-1	n/a	n/a	n/a	n/a	n/a
2660141	REC_WORD	wordpools/wasnorm_wordpool_less_exclusions.txt	LTP211	ltpFR	3	16	-1	LID	817	n/a	n/a	-1	n/a	n/a	n/a	n/a	n/a
2736740	REC_START	n/a	LTP211	ltpFR	3	1	n/a	n/a	n/a	n/a	n/a	n/a	n/a	n/a	n/a	n/a	n/a
2736801	RECOG_TARGET	n/a	LTP211	ltpFR	3	1	1	BATHTUB	100	1	5	0	n/a	n/a	n/a	n/a	n/a
2737952	RECOG_RESP	n/a	LTP211	ltpFR	3	1	1	BATHTUB	100	1	n/a	0	n/a	n/a	n/a	n/a	n/a
2739568	RECOG_CONF	n/a	LTP211	ltpFR	3	1	1	BATHTUB	100	n/a	5	0	n/a	n/a	n/a	n/a	n/a
2741870	RECOG_TARGET	n/a	LTP211	ltpFR	3	1	1	SIBLING	1301	1	5	1	n/a	n/a	n/a	n/a	n/a
2742547	RECOG_RESP	n/a	LTP211	ltpFR	3	1	1	SIBLING	1301	1	n/a	1	n/a	n/a	n/a	n/a	n/a
2743809	RECOG_CONF	n/a	LTP211	ltpFR	3	1	1	SIBLING	1301	n/a	5	1	n/a	n/a	n/a	n/a	n/a
2745630	RECOG_TARGET	n/a	LTP211	ltpFR	3	1	-1	OCEAN	970	1	4	-1	n/a	n/a	n/a	n/a	n/a
2746268	RECOG_RESP	n/a	LTP211	ltpFR	3	1	-1	OCEAN	970	1	n/a	-1	n/a	n/a	n/a	n/a	n/a
2747580	RECOG_CONF	n/a	LTP211	ltpFR	3	1	-1	OCEAN	970	n/a	4	-1	n/a	n/a	n/a	n/a	n/a
2749428	RECOG_LURE	n/a	LTP211	ltpFR	3	1	n/a	SYRUP	1425	0	5	n/a	n/a	n/a	n/a	n/a	n/a
2750229	RECOG_RESP	n/a	LTP211	ltpFR	3	1	n/a	SYRUP	1425	0	n/a	n/a	n/a	n/a	n/a	n/a	n/a
2751671	RECOG_CONF	n/a	LTP211	ltpFR	3	1	n/a	SYRUP	1425	n/a	5	n/a	n/a	n/a	n/a	n/a	n/a
2753548	RECOG_TARGET	n/a	LTP211	ltpFR	3	1	0	FLESH	579	1	5	1	n/a	n/a	n/a	n/a	n/a
2754210	RECOG_RESP	n/a	LTP211	ltpFR	3	1	0	FLESH	579	1	n/a	1	n/a	n/a	n/a	n/a	n/a
2755402	RECOG_CONF	n/a	LTP211	ltpFR	3	1	0	FLESH	579	n/a	5	1	n/a	n/a	n/a	n/a	n/a
2757246	RECOG_TARGET	n/a	LTP211	ltpFR	3	1	1	LUNCH	849	1	4	0	n/a	n/a	n/a	n/a	n/a
2758166	RECOG_RESP	n/a	LTP211	ltpFR	3	1	1	LUNCH	849	1	n/a	0	n/a	n/a	n/a	n/a	n/a
2759403	RECOG_CONF	n/a	LTP211	ltpFR	3	1	1	LUNCH	849	n/a	4	0	n/a	n/a	n/a	n/a	n/a
2761227	RECOG_TARGET	n/a	LTP211	ltpFR	3	1	1	SNAKE	1333	1	5	1	n/a	n/a	n/a	n/a	n/a
2761943	RECOG_RESP	n/a	LTP211	ltpFR	3	1	1	SNAKE	1333	1	n/a	1	n/a	n/a	n/a	n/a	n/a
2763075	RECOG_CONF	n/a	LTP211	ltpFR	3	1	1	SNAKE	1333	n/a	5	1	n/a	n/a	n/a	n/a	n/a
2764903	RECOG_TARGET	n/a	LTP211	ltpFR	3	1	1	LIPSTICK	829	1	5	0	n/a	n/a	n/a	n/a	n/a
2765564	RECOG_RESP	n/a	LTP211	ltpFR	3	1	1	LIPSTICK	829	1	n/a	0	n/a	n/a	n/a	n/a	n/a
2766767	RECOG_CONF	n/a	LTP211	ltpFR	3	1	1	LIPSTICK	829	n/a	5	0	n/a	n/a	n/a	n/a	n/a
2768671	RECOG_TARGET	n/a	LTP211	ltpFR	3	1	1	SKIN	1318	1	5	1	n/a	n/a	n/a	n/a	n/a
2769710	RECOG_RESP_VV	n/a	LTP211	ltpFR	3	1	1	SKIN	1318	0	n/a	1	n/a	n/a	n/a	n/a	n/a
2770867	RECOG_RESP	n/a	LTP211	ltpFR	3	1	1	SKIN	1318	1	n/a	1	n/a	n/a	n/a	n/a	n/a
2772334	RECOG_CONF	n/a	LTP211	ltpFR	3	1	1	SKIN	1318	n/a	5	1	n/a	n/a	n/a	n/a	n/a
2774138	RECOG_LURE	n/a	LTP211	ltpFR	3	1	n/a	HOOK	715	0	2	n/a	n/a	n/a	n/a	n/a	n/a
2775711	RECOG_RESP	n/a	LTP211	ltpFR	3	1	n/a	HOOK	715	0	n/a	n/a	n/a	n/a	n/a	n/a	n/a
2777023	RECOG_CONF	n/a	LTP211	ltpFR	3	1	n/a	HOOK	715	n/a	2	n/a	n/a	n/a	n/a	n/a	n/a
2778923	RECOG_TARGET	n/a	LTP211	ltpFR	3	1	0	DRESS	495	0	4	1	n/a	n/a	n/a	n/a	n/a
2779827	RECOG_RESP	n/a	LTP211	ltpFR	3	1	0	DRESS	495	0	n/a	1	n/a	n/a	n/a	n/a	n/a
2781433	RECOG_CONF	n/a	LTP211	ltpFR	3	1	0	DRESS	495	n/a	4	1	n/a	n/a	n/a	n/a	n/a
2783311	RECOG_TARGET	n/a	LTP211	ltpFR	3	1	1	SATURN	1236	1	5	0	n/a	n/a	n/a	n/a	n/a
2784167	RECOG_RESP	n/a	LTP211	ltpFR	3	1	1	SATURN	1236	1	n/a	0	n/a	n/a	n/a	n/a	n/a
2785424	RECOG_CONF	n/a	LTP211	ltpFR	3	1	1	SATURN	1236	n/a	5	0	n/a	n/a	n/a	n/a	n/a
2787322	RECOG_TARGET	n/a	LTP211	ltpFR	3	1	1	SHEARS	1276	1	5	0	n/a	n/a	n/a	n/a	n/a
2788028	RECOG_RESP	n/a	LTP211	ltpFR	3	1	1	SHEARS	1276	1	n/a	0	n/a	n/a	n/a	n/a	n/a
2789295	RECOG_CONF	n/a	LTP211	ltpFR	3	1	1	SHEARS	1276	n/a	5	0	n/a	n/a	n/a	n/a	n/a
2791207	RECOG_TARGET	n/a	LTP211	ltpFR	3	1	-1	CHURCH	307	1	5	-1	n/a	n/a	n/a	n/a	n/a
2791909	RECOG_RESP	n/a	LTP211	ltpFR	3	1	-1	CHURCH	307	1	n/a	-1	n/a	n/a	n/a	n/a	n/a
2793246	RECOG_CONF	n/a	LTP211	ltpFR	3	1	-1	CHURCH	307	n/a	5	-1	n/a	n/a	n/a	n/a	n/a
2794983	RECOG_TARGET	n/a	LTP211	ltpFR	3	1	0	TEACHER	1440	1	5	1	n/a	n/a	n/a	n/a	n/a
2795741	RECOG_RESP	n/a	LTP211	ltpFR	3	1	0	TEACHER	1440	1	n/a	1	n/a	n/a	n/a	n/a	n/a
2796918	RECOG_CONF	n/a	LTP211	ltpFR	3	1	0	TEACHER	1440	n/a	5	1	n/a	n/a	n/a	n/a	n/a
2798634	RECOG_TARGET	n/a	LTP211	ltpFR	3	1	-1	MILK	895	1	5	-1	n/a	n/a	n/a	n/a	n/a
2799687	RECOG_RESP	n/a	LTP211	ltpFR	3	1	-1	MILK	895	1	n/a	-1	n/a	n/a	n/a	n/a	n/a
2800879	RECOG_CONF	n/a	LTP211	ltpFR	3	1	-1	MILK	895	n/a	5	-1	n/a	n/a	n/a	n/a	n/a
2802746	RECOG_LURE	n/a	LTP211	ltpFR	3	1	n/a	GLASS	639	0	1	n/a	n/a	n/a	n/a	n/a	n/a
2803618	RECOG_RESP_VV	n/a	LTP211	ltpFR	3	1	n/a	GLASS	639	1	n/a	n/a	n/a	n/a	n/a	n/a	n/a
2805558	RECOG_RESP	n/a	LTP211	ltpFR	3	1	n/a	GLASS	639	0	n/a	n/a	n/a	n/a	n/a	n/a	n/a
2806826	RECOG_CONF	n/a	LTP211	ltpFR	3	1	n/a	GLASS	639	n/a	1	n/a	n/a	n/a	n/a	n/a	n/a
2808739	RECOG_LURE	n/a	LTP211	ltpFR	3	1	n/a	FUNERAL	613	0	4	n/a	n/a	n/a	n/a	n/a	n/a
2810033	RECOG_RESP	n/a	LTP211	ltpFR	3	1	n/a	FUNERAL	613	0	n/a	n/a	n/a	n/a	n/a	n/a	n/a
2812692	RECOG_CONF	n/a	LTP211	ltpFR	3	1	n/a	FUNERAL	613	n/a	4	n/a	n/a	n/a	n/a	n/a	n/a
2814377	RECOG_TARGET	n/a	LTP211	ltpFR	3	1	0	WILDERNESS	1610	1	5	1	n/a	n/a	n/a	n/a	n/a
2815246	RECOG_RESP	n/a	LTP211	ltpFR	3	1	0	WILDERNESS	1610	1	n/a	1	n/a	n/a	n/a	n/a	n/a
2816504	RECOG_CONF	n/a	LTP211	ltpFR	3	1	0	WILDERNESS	1610	n/a	5	1	n/a	n/a	n/a	n/a	n/a
2818405	RECOG_LURE	n/a	LTP211	ltpFR	3	1	n/a	GARLIC	624	0	5	n/a	n/a	n/a	n/a	n/a	n/a
2819287	RECOG_RESP	n/a	LTP211	ltpFR	3	1	n/a	GARLIC	624	0	n/a	n/a	n/a	n/a	n/a	n/a	n/a
2820614	RECOG_CONF	n/a	LTP211	ltpFR	3	1	n/a	GARLIC	624	n/a	5	n/a	n/a	n/a	n/a	n/a	n/a
2830466	REC_START	n/a	LTP211	ltpFR	3	2	n/a	n/a	n/a	n/a	n/a	n/a	n/a	n/a	n/a	n/a	n/a
2830521	RECOG_LURE	n/a	LTP211	ltpFR	3	2	n/a	SPHINX	1349	0	5	n/a	n/a	n/a	n/a	n/a	n/a
2831324	RECOG_RESP	n/a	LTP211	ltpFR	3	2	n/a	SPHINX	1349	0	n/a	n/a	n/a	n/a	n/a	n/a	n/a
2832526	RECOG_CONF	n/a	LTP211	ltpFR	3	2	n/a	SPHINX	1349	n/a	5	n/a	n/a	n/a	n/a	n/a	n/a
2834436	RECOG_TARGET	n/a	LTP211	ltpFR	3	2	0	APARTMENT	30	1	4	1	n/a	n/a	n/a	n/a	n/a
2835175	RECOG_RESP	n/a	LTP211	ltpFR	3	2	0	APARTMENT	30	1	n/a	1	n/a	n/a	n/a	n/a	n/a
2836337	RECOG_CONF	n/a	LTP211	ltpFR	3	2	0	APARTMENT	30	n/a	4	1	n/a	n/a	n/a	n/a	n/a
2838112	RECOG_TARGET	n/a	LTP211	ltpFR	3	2	-1	PIER	1063	1	5	-1	n/a	n/a	n/a	n/a	n/a
2838932	RECOG_RESP	n/a	LTP211	ltpFR	3	2	-1	PIER	1063	1	n/a	-1	n/a	n/a	n/a	n/a	n/a
2840708	RECOG_CONF	n/a	LTP211	ltpFR	3	2	-1	PIER	1063	n/a	5	-1	n/a	n/a	n/a	n/a	n/a
2842499	RECOG_LURE	n/a	LTP211	ltpFR	3	2	n/a	KETCHUP	771	0	5	n/a	n/a	n/a	n/a	n/a	n/a
2844030	RECOG_RESP	n/a	LTP211	ltpFR	3	2	n/a	KETCHUP	771	0	n/a	n/a	n/a	n/a	n/a	n/a	n/a
2845606	RECOG_CONF	n/a	LTP211	ltpFR	3	2	n/a	KETCHUP	771	n/a	5	n/a	n/a	n/a	n/a	n/a	n/a
2847602	RECOG_TARGET	n/a	LTP211	ltpFR	3	2	-1	SAXOPHONE	1240	1	5	-1	n/a	n/a	n/a	n/a	n/a
2848345	RECOG_RESP	n/a	LTP211	ltpFR	3	2	-1	SAXOPHONE	1240	1	n/a	-1	n/a	n/a	n/a	n/a	n/a
2849508	RECOG_CONF	n/a	LTP211	ltpFR	3	2	-1	SAXOPHONE	1240	n/a	5	-1	n/a	n/a	n/a	n/a	n/a
2851362	RECOG_LURE	n/a	LTP211	ltpFR	3	2	n/a	SHOWER	1296	0	5	n/a	n/a	n/a	n/a	n/a	n/a
2852152	RECOG_RESP	n/a	LTP211	ltpFR	3	2	n/a	SHOWER	1296	0	n/a	n/a	n/a	n/a	n/a	n/a	n/a
2853319	RECOG_CONF	n/a	LTP211	ltpFR	3	2	n/a	SHOWER	1296	n/a	5	n/a	n/a	n/a	n/a	n/a	n/a
2855198	RECOG_TARGET	n/a	LTP211	ltpFR	3	2	1	SUN	1406	1	5	0	n/a	n/a	n/a	n/a	n/a
2855868	RECOG_RESP	n/a	LTP211	ltpFR	3	2	1	SUN	1406	1	n/a	0	n/a	n/a	n/a	n/a	n/a
2857080	RECOG_CONF	n/a	LTP211	ltpFR	3	2	1	SUN	1406	n/a	5	0	n/a	n/a	n/a	n/a	n/a
2858727	RECOG_TARGET	n/a	LTP211	ltpFR	3	2	0	CYLINDER	432	1	5	0	n/a	n/a	n/a	n/a	n/a
2859654	RECOG_RESP	n/a	LTP211	ltpFR	3	2	0	CYLINDER	432	1	n/a	0	n/a	n/a	n/a	n/a	n/a
2860842	RECOG_CONF	n/a	LTP211	ltpFR	3	2	0	CYLINDER	432	n/a	5	0	n/a	n/a	n/a	n/a	n/a
2862742	RECOG_TARGET	n/a	LTP211	ltpFR	3	2	0	NAIL	936	1	5	0	n/a	n/a	n/a	n/a	n/a
2864553	RECOG_RESP	n/a	LTP211	ltpFR	3	2	0	NAIL	936	1	n/a	0	n/a	n/a	n/a	n/a	n/a
2865761	RECOG_CONF	n/a	LTP211	ltpFR	3	2	0	NAIL	936	n/a	5	0	n/a	n/a	n/a	n/a	n/a
2867644	RECOG_LURE	n/a	LTP211	ltpFR	3	2	n/a	BROCCOLI	176	0	5	n/a	n/a	n/a	n/a	n/a	n/a
2868330	RECOG_RESP	n/a	LTP211	ltpFR	3	2	n/a	BROCCOLI	176	0	n/a	n/a	n/a	n/a	n/a	n/a	n/a
2869552	RECOG_CONF	n/a	LTP211	ltpFR	3	2	n/a	BROCCOLI	176	n/a	5	n/a	n/a	n/a	n/a	n/a	n/a
2871442	RECOG_TARGET	n/a	LTP211	ltpFR	3	2	1	KEY	773	1	5	0	n/a	n/a	n/a	n/a	n/a
2872151	RECOG_RESP	n/a	LTP211	ltpFR	3	2	1	KEY	773	1	n/a	0	n/a	n/a	n/a	n/a	n/a
2873323	RECOG_CONF	n/a	LTP211	ltpFR	3	2	1	KEY	773	n/a	5	0	n/a	n/a	n/a	n/a	n/a
2875324	RECOG_TARGET	n/a	LTP211	ltpFR	3	2	1	ROSE	1212	1	5	1	n/a	n/a	n/a	n/a	n/a
2875942	RECOG_RESP	n/a	LTP211	ltpFR	3	2	1	ROSE	1212	1	n/a	1	n/a	n/a	n/a	n/a	n/a
2877015	RECOG_CONF	n/a	LTP211	ltpFR	3	2	1	ROSE	1212	n/a	5	1	n/a	n/a	n/a	n/a	n/a
2878719	RECOG_LURE	n/a	LTP211	ltpFR	3	2	n/a	PANTS	1010	0	3	n/a	n/a	n/a	n/a	n/a	n/a
2879559	RECOG_RESP	n/a	LTP211	ltpFR	3	2	n/a	PANTS	1010	0	n/a	n/a	n/a	n/a	n/a	n/a	n/a
2880747	RECOG_CONF	n/a	LTP211	ltpFR	3	2	n/a	PANTS	1010	n/a	3	n/a	n/a	n/a	n/a	n/a	n/a
2882684	RECOG_TARGET	n/a	LTP211	ltpFR	3	2	1	FLASK	576	1	5	0	n/a	n/a	n/a	n/a	n/a
2883455	RECOG_RESP	n/a	LTP211	ltpFR	3	2	1	FLASK	576	1	n/a	0	n/a	n/a	n/a	n/a	n/a
2884638	RECOG_CONF	n/a	LTP211	ltpFR	3	2	1	FLASK	576	n/a	5	0	n/a	n/a	n/a	n/a	n/a
2886532	RECOG_TARGET	n/a	LTP211	ltpFR	3	2	0	COSTUME	383	1	3	1	n/a	n/a	n/a	n/a	n/a
2887356	RECOG_RESP	n/a	LTP211	ltpFR	3	2	0	COSTUME	383	1	n/a	1	n/a	n/a	n/a	n/a	n/a
2888659	RECOG_CONF	n/a	LTP211	ltpFR	3	2	0	COSTUME	383	n/a	3	1	n/a	n/a	n/a	n/a	n/a
2890581	RECOG_TARGET	n/a	LTP211	ltpFR	3	2	1	SHIRT	1287	1	4	0	n/a	n/a	n/a	n/a	n/a
2891173	RECOG_RESP	n/a	LTP211	ltpFR	3	2	1	SHIRT	1287	1	n/a	0	n/a	n/a	n/a	n/a	n/a
2892310	RECOG_CONF	n/a	LTP211	ltpFR	3	2	1	SHIRT	1287	n/a	4	0	n/a	n/a	n/a	n/a	n/a
2894110	RECOG_TARGET	n/a	LTP211	ltpFR	3	2	-1	COW	393	1	5	-1	n/a	n/a	n/a	n/a	n/a
2894760	RECOG_RESP	n/a	LTP211	ltpFR	3	2	-1	COW	393	1	n/a	-1	n/a	n/a	n/a	n/a	n/a
2895862	RECOG_CONF	n/a	LTP211	ltpFR	3	2	-1	COW	393	n/a	5	-1	n/a	n/a	n/a	n/a	n/a
2897758	RECOG_LURE	n/a	LTP211	ltpFR	3	2	n/a	SALOON	1228	0	5	n/a	n/a	n/a	n/a	n/a	n/a
2898626	RECOG_RESP	n/a	LTP211	ltpFR	3	2	n/a	SALOON	1228	0	n/a	n/a	n/a	n/a	n/a	n/a	n/a
2899793	RECOG_CONF	n/a	LTP211	ltpFR	3	2	n/a	SALOON	1228	n/a	5	n/a	n/a	n/a	n/a	n/a	n/a
2901589	RECOG_TARGET	n/a	LTP211	ltpFR	3	2	1	SCALE	1241	1	5	0	n/a	n/a	n/a	n/a	n/a
2902283	RECOG_RESP	n/a	LTP211	ltpFR	3	2	1	SCALE	1241	1	n/a	0	n/a	n/a	n/a	n/a	n/a
2903405	RECOG_CONF	n/a	LTP211	ltpFR	3	2	1	SCALE	1241	n/a	5	0	n/a	n/a	n/a	n/a	n/a
2905453	RECOG_TARGET	n/a	LTP211	ltpFR	3	2	0	MATCH	878	1	5	0	n/a	n/a	n/a	n/a	n/a
2906179	RECOG_RESP	n/a	LTP211	ltpFR	3	2	0	MATCH	878	1	n/a	0	n/a	n/a	n/a	n/a	n/a
2907276	RECOG_CONF	n/a	LTP211	ltpFR	3	2	0	MATCH	878	n/a	5	0	n/a	n/a	n/a	n/a	n/a
2917873	REC_START	n/a	LTP211	ltpFR	3	3	n/a	n/a	n/a	n/a	n/a	n/a	n/a	n/a	n/a	n/a	n/a
2917917	RECOG_LURE	n/a	LTP211	ltpFR	3	3	n/a	MUG	930	0	3	n/a	n/a	n/a	n/a	n/a	n/a
2918900	RECOG_RESP	n/a	LTP211	ltpFR	3	3	n/a	MUG	930	0	n/a	n/a	n/a	n/a	n/a	n/a	n/a
2920791	RECOG_CONF	n/a	LTP211	ltpFR	3	3	n/a	MUG	930	n/a	3	n/a	n/a	n/a	n/a	n/a	n/a
2922668	RECOG_TARGET	n/a	LTP211	ltpFR	3	3	1	APE	31	1	4	0	n/a	n/a	n/a	n/a	n/a
2923989	RECOG_RESP	n/a	LTP211	ltpFR	3	3	1	APE	31	1	n/a	0	n/a	n/a	n/a	n/a	n/a
2925241	RECOG_CONF	n/a	LTP211	ltpFR	3	3	1	APE	31	n/a	4	0	n/a	n/a	n/a	n/a	n/a
2927068	RECOG_LURE	n/a	LTP211	ltpFR	3	3	n/a	ROACH	1195	0	5	n/a	n/a	n/a	n/a	n/a	n/a
2927980	RECOG_RESP	n/a	LTP211	ltpFR	3	3	n/a	ROACH	1195	0	n/a	n/a	n/a	n/a	n/a	n/a	n/a
2929881	RECOG_CONF	n/a	LTP211	ltpFR	3	3	n/a	ROACH	1195	n/a	5	n/a	n/a	n/a	n/a	n/a	n/a
2931799	RECOG_TARGET	n/a	LTP211	ltpFR	3	3	-1	SAUSAGE	1238	1	5	-1	n/a	n/a	n/a	n/a	n/a
2932809	RECOG_RESP	n/a	LTP211	ltpFR	3	3	-1	SAUSAGE	1238	1	n/a	-1	n/a	n/a	n/a	n/a	n/a
2934131	RECOG_CONF	n/a	LTP211	ltpFR	3	3	-1	SAUSAGE	1238	n/a	5	-1	n/a	n/a	n/a	n/a	n/a
2936187	RECOG_TARGET	n/a	LTP211	ltpFR	3	3	0	FAMILY	550	1	5	1	n/a	n/a	n/a	n/a	n/a
2936845	RECOG_RESP	n/a	LTP211	ltpFR	3	3	0	FAMILY	550	1	n/a	1	n/a	n/a	n/a	n/a	n/a
2937972	RECOG_CONF	n/a	LTP211	ltpFR	3	3	0	FAMILY	550	n/a	5	1	n/a	n/a	n/a	n/a	n/a
2939900	RECOG_TARGET	n/a	LTP211	ltpFR	3	3	-1	BUBBLE	183	1	2	-1	n/a	n/a	n/a	n/a	n/a
2940816	RECOG_RESP	n/a	LTP211	ltpFR	3	3	-1	BUBBLE	183	1	n/a	-1	n/a	n/a	n/a	n/a	n/a
2942811	RECOG_CONF	n/a	LTP211	ltpFR	3	3	-1	BUBBLE	183	n/a	2	-1	n/a	n/a	n/a	n/a	n/a
2944551	RECOG_LURE	n/a	LTP211	ltpFR	3	3	n/a	SIGNATURE	1306	0	5	n/a	n/a	n/a	n/a	n/a	n/a
2945495	RECOG_RESP	n/a	LTP211	ltpFR	3	3	n/a	SIGNATURE	1306	0	n/a	n/a	n/a	n/a	n/a	n/a	n/a
2946662	RECOG_CONF	n/a	LTP211	ltpFR	3	3	n/a	SIGNATURE	1306	n/a	5	n/a	n/a	n/a	n/a	n/a	n/a
2948465	RECOG_TARGET	n/a	LTP211	ltpFR	3	3	0	SWAN	1417	1	5	0	n/a	n/a	n/a	n/a	n/a
2949266	RECOG_RESP	n/a	LTP211	ltpFR	3	3	0	SWAN	1417	1	n/a	0	n/a	n/a	n/a	n/a	n/a
2950424	RECOG_CONF	n/a	LTP211	ltpFR	3	3	0	SWAN	1417	n/a	5	0	n/a	n/a	n/a	n/a	n/a
2952464	RECOG_TARGET	n/a	LTP211	ltpFR	3	3	0	DUCK	504	1	5	0	n/a	n/a	n/a	n/a	n/a
2953622	RECOG_RESP	n/a	LTP211	ltpFR	3	3	0	DUCK	504	1	n/a	0	n/a	n/a	n/a	n/a	n/a
2954844	RECOG_CONF	n/a	LTP211	ltpFR	3	3	0	DUCK	504	n/a	5	0	n/a	n/a	n/a	n/a	n/a
2956730	RECOG_TARGET	n/a	LTP211	ltpFR	3	3	1	RELATIVE	1182	1	1	1	n/a	n/a	n/a	n/a	n/a
2958046	RECOG_RESP	n/a	LTP211	ltpFR	3	3	1	RELATIVE	1182	1	n/a	1	n/a	n/a	n/a	n/a	n/a
2960361	RECOG_CONF	n/a	LTP211	ltpFR	3	3	1	RELATIVE	1182	n/a	1	1	n/a	n/a	n/a	n/a	n/a
2962168	RECOG_LURE	n/a	LTP211	ltpFR	3	3	n/a	PLATE	1086	0	1	n/a	n/a	n/a	n/a	n/a	n/a
2963110	RECOG_RESP_VV	n/a	LTP211	ltpFR	3	3	n/a	PLATE	1086	1	n/a	n/a	n/a	n/a	n/a	n/a	n/a
2963968	RECOG_RESP	n/a	LTP211	ltpFR	3	3	n/a	PLATE	1086	0	n/a	n/a	n/a	n/a	n/a	n/a	n/a
2965240	RECOG_CONF	n/a	LTP211	ltpFR	3	3	n/a	PLATE	1086	n/a	1	n/a	n/a	n/a	n/a	n/a	n/a
2967069	RECOG_TARGET	n/a	LTP211	ltpFR	3	3	1	MARINE	869	1	5	1	n/a	n/a	n/a	n/a	n/a
2968383	RECOG_RESP	n/a	LTP211	ltpFR	3	3	1	MARINE	869	1	n/a	1	n/a	n/a	n/a	n/a	n/a
2969740	RECOG_CONF	n/a	LTP211	ltpFR	3	3	1	MARINE	869	n/a	5	1	n/a	n/a	n/a	n/a	n/a
2971586	RECOG_TARGET	n/a	LTP211	ltpFR	3	3	0	STOCKING	1383	1	5	0	n/a	n/a	n/a	n/a	n/a
2972379	RECOG_RESP	n/a	LTP211	ltpFR	3	3	0	STOCKING	1383	1	n/a	0	n/a	n/a	n/a	n/a	n/a
2973711	RECOG_CONF	n/a	LTP211	ltpFR	3	3	0	STOCKING	1383	n/a	5	0	n/a	n/a	n/a	n/a	n/a
2975467	RECOG_TARGET	n/a	LTP211	ltpFR	3	3	-1	EXPERT	543	1	5	-1	n/a	n/a	n/a	n/a	n/a
2976130	RECOG_RESP	n/a	LTP211	ltpFR	3	3	-1	EXPERT	543	1	n/a	-1	n/a	n/a	n/a	n/a	n/a
2977462	RECOG_CONF	n/a	LTP211	ltpFR	3	3	-1	EXPERT	543	n/a	5	-1	n/a	n/a	n/a	n/a	n/a
2979299	RECOG_TARGET	n/a	LTP211	ltpFR	3	3	-1	TROUSERS	1510	1	3	-1	n/a	n/a	n/a	n/a	n/a
2980096	RECOG_RESP	n/a	LTP211	ltpFR	3	3	-1	TROUSERS	1510	1	n/a	-1	n/a	n/a	n/a	n/a	n/a
2981264	RECOG_CONF	n/a	LTP211	ltpFR	3	3	-1	TROUSERS	1510	n/a	3	-1	n/a	n/a	n/a	n/a	n/a
2983092	RECOG_TARGET	n/a	LTP211	ltpFR	3	3	-1	OUTLAW	989	1	5	-1	n/a	n/a	n/a	n/a	n/a
2983733	RECOG_RESP	n/a	LTP211	ltpFR	3	3	-1	OUTLAW	989	1	n/a	-1	n/a	n/a	n/a	n/a	n/a
2984776	RECOG_CONF	n/a	LTP211	ltpFR	3	3	-1	OUTLAW	989	n/a	5	-1	n/a	n/a	n/a	n/a	n/a
2986588	RECOG_TARGET	n/a	LTP211	ltpFR	3	3	0	BEET	115	1	5	0	n/a	n/a	n/a	n/a	n/a
2987220	RECOG_RESP	n/a	LTP211	ltpFR	3	3	0	BEET	115	1	n/a	0	n/a	n/a	n/a	n/a	n/a
2988547	RECOG_CONF	n/a	LTP211	ltpFR	3	3	0	BEET	115	n/a	5	0	n/a	n/a	n/a	n/a	n/a
2990557	RECOG_LURE	n/a	LTP211	ltpFR	3	3	n/a	SALMON	1227	0	5	n/a	n/a	n/a	n/a	n/a	n/a
2991351	RECOG_RESP	n/a	LTP211	ltpFR	3	3	n/a	SALMON	1227	0	n/a	n/a	n/a	n/a	n/a	n/a	n/a
2992678	RECOG_CONF	n/a	LTP211	ltpFR	3	3	n/a	SALMON	1227	n/a	5	n/a	n/a	n/a	n/a	n/a	n/a
2994602	RECOG_LURE	n/a	LTP211	ltpFR	3	3	n/a	INSTRUCTOR	741	0	1	n/a	n/a	n/a	n/a	n/a	n/a
2995990	RECOG_RESP	n/a	LTP211	ltpFR	3	3	n/a	INSTRUCTOR	741	0	n/a	n/a	n/a	n/a	n/a	n/a	n/a
2997297	RECOG_CONF	n/a	LTP211	ltpFR	3	3	n/a	INSTRUCTOR	741	n/a	1	n/a	n/a	n/a	n/a	n/a	n/a
2999258	RECOG_TARGET	n/a	LTP211	ltpFR	3	3	0	SARDINE	1235	1	4	0	n/a	n/a	n/a	n/a	n/a
3000026	RECOG_RESP	n/a	LTP211	ltpFR	3	3	0	SARDINE	1235	1	n/a	0	n/a	n/a	n/a	n/a	n/a
3001198	RECOG_CONF	n/a	LTP211	ltpFR	3	3	0	SARDINE	1235	n/a	4	0	n/a	n/a	n/a	n/a	n/a
3006420	REC_START	n/a	LTP211	ltpFR	3	4	n/a	n/a	n/a	n/a	n/a	n/a	n/a	n/a	n/a	n/a	n/a
3006467	RECOG_TARGET	n/a	LTP211	ltpFR	3	4	-1	MOTEL	919	1	5	-1	n/a	n/a	n/a	n/a	n/a
3007318	RECOG_RESP	n/a	LTP211	ltpFR	3	4	-1	MOTEL	919	1	n/a	-1	n/a	n/a	n/a	n/a	n/a
3008500	RECOG_CONF	n/a	LTP211	ltpFR	3	4	-1	MOTEL	919	n/a	5	-1	n/a	n/a	n/a	n/a	n/a
3010365	RECOG_LURE	n/a	LTP211	ltpFR	3	4	n/a	TOAST	1471	0	4	n/a	n/a	n/a	n/a	n/a	n/a
3011324	RECOG_RESP	n/a	LTP211	ltpFR	3	4	n/a	TOAST	1471	0	n/a	n/a	n/a	n/a	n/a	n/a	n/a
3013000	RECOG_CONF	n/a	LTP211	ltpFR	3	4	n/a	TOAST	1471	n/a	4	n/a	n/a	n/a	n/a	n/a	n/a
3015033	RECOG_LURE	n/a	LTP211	ltpFR	3	4	n/a	LUNG	850	0	5	n/a	n/a	n/a	n/a	n/a	n/a
3015838	RECOG_RESP	n/a	LTP211	ltpFR	3	4	n/a	LUNG	850	0	n/a	n/a	n/a	n/a	n/a	n/a	n/a
3017340	RECOG_CONF	n/a	LTP211	ltpFR	3	4	n/a	LUNG	850	n/a	5	n/a	n/a	n/a	n/a	n/a	n/a
3019267	RECOG_TARGET	n/a	LTP211	ltpFR	3	4	-1	BONE	148	1	5	-1	n/a	n/a	n/a	n/a	n/a
3019989	RECOG_RESP	n/a	LTP211	ltpFR	3	4	-1	BONE	148	1	n/a	-1	n/a	n/a	n/a	n/a	n/a
3021311	RECOG_CONF	n/a	LTP211	ltpFR	3	4	-1	BONE	148	n/a	5	-1	n/a	n/a	n/a	n/a	n/a
3023063	RECOG_TARGET	n/a	LTP211	ltpFR	3	4	-1	WINE	1613	1	5	-1	n/a	n/a	n/a	n/a	n/a
3023725	RECOG_RESP	n/a	LTP211	ltpFR	3	4	-1	WINE	1613	1	n/a	-1	n/a	n/a	n/a	n/a	n/a
3025033	RECOG_CONF	n/a	LTP211	ltpFR	3	4	-1	WINE	1613	n/a	5	-1	n/a	n/a	n/a	n/a	n/a
3026827	RECOG_TARGET	n/a	LTP211	ltpFR	3	4	1	TRICYCLE	1506	1	5	0	n/a	n/a	n/a	n/a	n/a
3027467	RECOG_RESP	n/a	LTP211	ltpFR	3	4	1	TRICYCLE	1506	1	n/a	0	n/a	n/a	n/a	n/a	n/a
3028694	RECOG_CONF	n/a	LTP211	ltpFR	3	4	1	TRICYCLE	1506	n/a	5	0	n/a	n/a	n/a	n/a	n/a
3030541	RECOG_LURE	n/a	LTP211	ltpFR	3	4	n/a	TANK	1432	0	2	n/a	n/a	n/a	n/a	n/a	n/a
3031543	RECOG_RESP	n/a	LTP211	ltpFR	3	4	n/a	TANK	1432	0	n/a	n/a	n/a	n/a	n/a	n/a	n/a
3032795	RECOG_CONF	n/a	LTP211	ltpFR	3	4	n/a	TANK	1432	n/a	2	n/a	n/a	n/a	n/a	n/a	n/a
3034557	RECOG_TARGET	n/a	LTP211	ltpFR	3	4	1	FOLDER	588	1	4	0	n/a	n/a	n/a	n/a	n/a
3035409	RECOG_RESP	n/a	LTP211	ltpFR	3	4	1	FOLDER	588	1	n/a	0	n/a	n/a	n/a	n/a	n/a
3036636	RECOG_CONF	n/a	LTP211	ltpFR	3	4	1	FOLDER	588	n/a	4	0	n/a	n/a	n/a	n/a	n/a
3038622	RECOG_LURE	n/a	LTP211	ltpFR	3	4	n/a	DEODORANT	448	0	5	n/a	n/a	n/a	n/a	n/a	n/a
3039420	RECOG_RESP	n/a	LTP211	ltpFR	3	4	n/a	DEODORANT	448	0	n/a	n/a	n/a	n/a	n/a	n/a	n/a
3040707	RECOG_CONF	n/a	LTP211	ltpFR	3	4	n/a	DEODORANT	448	n/a	5	n/a	n/a	n/a	n/a	n/a	n/a
3042587	RECOG_TARGET	n/a	LTP211	ltpFR	3	4	1	BLACKBERRY	132	1	5	1	n/a	n/a	n/a	n/a	n/a
3043306	RECOG_RESP	n/a	LTP211	ltpFR	3	4	1	BLACKBERRY	132	1	n/a	1	n/a	n/a	n/a	n/a	n/a
3044468	RECOG_CONF	n/a	LTP211	ltpFR	3	4	1	BLACKBERRY	132	n/a	5	1	n/a	n/a	n/a	n/a	n/a
3046268	RECOG_TARGET	n/a	LTP211	ltpFR	3	4	1	SKIRT	1319	1	5	0	n/a	n/a	n/a	n/a	n/a
3047077	RECOG_RESP	n/a	LTP211	ltpFR	3	4	1	SKIRT	1319	1	n/a	0	n/a	n/a	n/a	n/a	n/a
3048559	RECOG_CONF	n/a	LTP211	ltpFR	3	4	1	SKIRT	1319	n/a	5	0	n/a	n/a	n/a	n/a	n/a
3050200	RECOG_LURE	n/a	LTP211	ltpFR	3	4	n/a	WART	1590	0	4	n/a	n/a	n/a	n/a	n/a	n/a
3051038	RECOG_RESP	n/a	LTP211	ltpFR	3	4	n/a	WART	1590	0	n/a	n/a	n/a	n/a	n/a	n/a	n/a
3052340	RECOG_CONF	n/a	LTP211	ltpFR	3	4	n/a	WART	1590	n/a	4	n/a	n/a	n/a	n/a	n/a	n/a
3054181	RECOG_TARGET	n/a	LTP211	ltpFR	3	4	0	REEF	1177	1	5	1	n/a	n/a	n/a	n/a	n/a
3055094	RECOG_RESP	n/a	LTP211	ltpFR	3	4	0	REEF	1177	1	n/a	1	n/a	n/a	n/a	n/a	n/a
3056281	RECOG_CONF	n/a	LTP211	ltpFR	3	4	0	REEF	1177	n/a	5	1	n/a	n/a	n/a	n/a	n/a
3058197	RECOG_LURE	n/a	LTP211	ltpFR	3	4	n/a	HORIZON	717	0	5	n/a	n/a	n/a	n/a	n/a	n/a
3059474	RECOG_RESP	n/a	LTP211	ltpFR	3	4	n/a	HORIZON	717	0	n/a	n/a	n/a	n/a	n/a	n/a	n/a
3060701	RECOG_CONF	n/a	LTP211	ltpFR	3	4	n/a	HORIZON	717	n/a	5	n/a	n/a	n/a	n/a	n/a	n/a
3062612	RECOG_TARGET	n/a	LTP211	ltpFR	3	4	-1	PLAID	1080	1	5	-1	n/a	n/a	n/a	n/a	n/a
3063445	RECOG_RESP	n/a	LTP211	ltpFR	3	4	-1	PLAID	1080	1	n/a	-1	n/a	n/a	n/a	n/a	n/a
3064533	RECOG_CONF	n/a	LTP211	ltpFR	3	4	-1	PLAID	1080	n/a	5	-1	n/a	n/a	n/a	n/a	n/a
3066527	RECOG_LURE	n/a	LTP211	ltpFR	3	4	n/a	PIGMENT	1066	0	5	n/a	n/a	n/a	n/a	n/a	n/a
3067331	RECOG_RESP	n/a	LTP211	ltpFR	3	4	n/a	PIGMENT	1066	0	n/a	n/a	n/a	n/a	n/a	n/a	n/a
3068484	RECOG_CONF	n/a	LTP211	ltpFR	3	4	n/a	PIGMENT	1066	n/a	5	n/a	n/a	n/a	n/a	n/a	n/a
3070259	RECOG_LURE	n/a	LTP211	ltpFR	3	4	n/a	BINDER	127	0	2	n/a	n/a	n/a	n/a	n/a	n/a
3071397	RECOG_RESP	n/a	LTP211	ltpFR	3	4	n/a	BINDER	127	0	n/a	n/a	n/a	n/a	n/a	n/a	n/a
3072525	RECOG_CONF	n/a	LTP211	ltpFR	3	4	n/a	BINDER	127	n/a	2	n/a	n/a	n/a	n/a	n/a	n/a
3074390	RECOG_LURE	n/a	LTP211	ltpFR	3	4	n/a	UNIVERSE	1540	0	5	n/a	n/a	n/a	n/a	n/a	n/a
3075213	RECOG_RESP	n/a	LTP211	ltpFR	3	4	n/a	UNIVERSE	1540	0	n/a	n/a	n/a	n/a	n/a	n/a	n/a
3076326	RECOG_CONF	n/a	LTP211	ltpFR	3	4	n/a	UNIVERSE	1540	n/a	5	n/a	n/a	n/a	n/a	n/a	n/a
3078137	RECOG_TARGET	n/a	LTP211	ltpFR	3	4	-1	ENGINEER	536	1	5	-1	n/a	n/a	n/a	n/a	n/a
3079329	RECOG_RESP	n/a	LTP211	ltpFR	3	4	-1	ENGINEER	536	1	n/a	-1	n/a	n/a	n/a	n/a	n/a
3080496	RECOG_CONF	n/a	LTP211	ltpFR	3	4	-1	ENGINEER	536	n/a	5	-1	n/a	n/a	n/a	n/a	n/a
3082387	RECOG_LURE	n/a	LTP211	ltpFR	3	4	n/a	DETECTIVE	454	0	4	n/a	n/a	n/a	n/a	n/a	n/a
3083979	RECOG_RESP	n/a	LTP211	ltpFR	3	4	n/a	DETECTIVE	454	0	n/a	n/a	n/a	n/a	n/a	n/a	n/a
3085246	RECOG_CONF	n/a	LTP211	ltpFR	3	4	n/a	DETECTIVE	454	n/a	4	n/a	n/a	n/a	n/a	n/a	n/a
3096426	REC_START	n/a	LTP211	ltpFR	3	5	n/a	n/a	n/a	n/a	n/a	n/a	n/a	n/a	n/a	n/a	n/a
3096486	RECOG_LURE	n/a	LTP211	ltpFR	3	5	n/a	CHAMPAGNE	278	0	5	n/a	n/a	n/a	n/a	n/a	n/a
3097299	RECOG_RESP	n/a	LTP211	ltpFR	3	5	n/a	CHAMPAGNE	278	0	n/a	n/a	n/a	n/a	n/a	n/a	n/a
3098426	RECOG_CONF	n/a	LTP211	ltpFR	3	5	n/a	CHAMPAGNE	278	n/a	5	n/a	n/a	n/a	n/a	n/a	n/a
3100417	RECOG_TARGET	n/a	LTP211	ltpFR	3	5	0	WORM	1623	1	5	0	n/a	n/a	n/a	n/a	n/a
3101215	RECOG_RESP	n/a	LTP211	ltpFR	3	5	0	WORM	1623	1	n/a	0	n/a	n/a	n/a	n/a	n/a
3102417	RECOG_CONF	n/a	LTP211	ltpFR	3	5	0	WORM	1623	n/a	5	0	n/a	n/a	n/a	n/a	n/a
3104487	RECOG_TARGET	n/a	LTP211	ltpFR	3	5	1	HERO	706	1	5	1	n/a	n/a	n/a	n/a	n/a
3105136	RECOG_RESP	n/a	LTP211	ltpFR	3	5	1	HERO	706	1	n/a	1	n/a	n/a	n/a	n/a	n/a
3106308	RECOG_CONF	n/a	LTP211	ltpFR	3	5	1	HERO	706	n/a	5	1	n/a	n/a	n/a	n/a	n/a
3108302	RECOG_LURE	n/a	LTP211	ltpFR	3	5	n/a	MAJOR	859	0	3	n/a	n/a	n/a	n/a	n/a	n/a
3109247	RECOG_RESP	n/a	LTP211	ltpFR	3	5	n/a	MAJOR	859	0	n/a	n/a	n/a	n/a	n/a	n/a	n/a
3110898	RECOG_CONF	n/a	LTP211	ltpFR	3	5	n/a	MAJOR	859	n/a	3	n/a	n/a	n/a	n/a	n/a	n/a
3112718	RECOG_LURE	n/a	LTP211	ltpFR	3	5	n/a	ANGEL	22	0	4	n/a	n/a	n/a	n/a	n/a	n/a
3113572	RECOG_RESP	n/a	LTP211	ltpFR	3	5	n/a	ANGEL	22	0	n/a	n/a	n/a	n/a	n/a	n/a	n/a
3114779	RECOG_CONF	n/a	LTP211	ltpFR	3	5	n/a	ANGEL	22	n/a	4	n/a	n/a	n/a	n/a	n/a	n/a
3116632	RECOG_TARGET	n/a	LTP211	ltpFR	3	5	1	SENATOR	1268	1	5	1	n/a	n/a	n/a	n/a	n/a
3117328	RECOG_RESP	n/a	LTP211	ltpFR	3	5	1	SENATOR	1268	1	n/a	1	n/a	n/a	n/a	n/a	n/a
3118451	RECOG_CONF	n/a	LTP211	ltpFR	3	5	1	SENATOR	1268	n/a	5	1	n/a	n/a	n/a	n/a	n/a
3120397	RECOG_LURE	n/a	LTP211	ltpFR	3	5	n/a	CHART	282	0	3	n/a	n/a	n/a	n/a	n/a	n/a
3121409	RECOG_RESP	n/a	LTP211	ltpFR	3	5	n/a	CHART	282	0	n/a	n/a	n/a	n/a	n/a	n/a	n/a
3122911	RECOG_CONF	n/a	LTP211	ltpFR	3	5	n/a	CHART	282	n/a	3	n/a	n/a	n/a	n/a	n/a	n/a
3124679	RECOG_TARGET	n/a	LTP211	ltpFR	3	5	1	RAM	1165	1	5	1	n/a	n/a	n/a	n/a	n/a
3125400	RECOG_RESP	n/a	LTP211	ltpFR	3	5	1	RAM	1165	1	n/a	1	n/a	n/a	n/a	n/a	n/a
3126872	RECOG_CONF	n/a	LTP211	ltpFR	3	5	1	RAM	1165	n/a	5	1	n/a	n/a	n/a	n/a	n/a
3128628	RECOG_TARGET	n/a	LTP211	ltpFR	3	5	1	PLANET	1082	1	5	1	n/a	n/a	n/a	n/a	n/a
3129301	RECOG_RESP	n/a	LTP211	ltpFR	3	5	1	PLANET	1082	1	n/a	1	n/a	n/a	n/a	n/a	n/a
3130444	RECOG_CONF	n/a	LTP211	ltpFR	3	5	1	PLANET	1082	n/a	5	1	n/a	n/a	n/a	n/a	n/a
3132292	RECOG_LURE	n/a	LTP211	ltpFR	3	5	n/a	MILITARY	894	0	5	n/a	n/a	n/a	n/a	n/a	n/a
3132993	RECOG_RESP	n/a	LTP211	ltpFR	3	5	n/a	MILITARY	894	0	n/a	n/a	n/a	n/a	n/a	n/a	n/a
3134085	RECOG_CONF	n/a	LTP211	ltpFR	3	5	n/a	MILITARY	894	n/a	5	n/a	n/a	n/a	n/a	n/a	n/a
3136056	RECOG_LURE	n/a	LTP211	ltpFR	3	5	n/a	ANCESTOR	20	0	5	n/a	n/a	n/a	n/a	n/a	n/a
3136789	RECOG_RESP	n/a	LTP211	ltpFR	3	5	n/a	ANCESTOR	20	0	n/a	n/a	n/a	n/a	n/a	n/a	n/a
3138086	RECOG_CONF	n/a	LTP211	ltpFR	3	5	n/a	ANCESTOR	20	n/a	5	n/a	n/a	n/a	n/a	n/a	n/a
3139833	RECOG_TARGET	n/a	LTP211	ltpFR	3	5	-1	INN	739	1	5	-1	n/a	n/a	n/a	n/a	n/a
3140511	RECOG_RESP	n/a	LTP211	ltpFR	3	5	-1	INN	739	1	n/a	-1	n/a	n/a	n/a	n/a	n/a
3141668	RECOG_CONF	n/a	LTP211	ltpFR	3	5	-1	INN	739	n/a	5	-1	n/a	n/a	n/a	n/a	n/a
3143597	RECOG_TARGET	n/a	LTP211	ltpFR	3	5	1	WORLD	1622	1	3	0	n/a	n/a	n/a	n/a	n/a
3144716	RECOG_RESP	n/a	LTP211	ltpFR	3	5	1	WORLD	1622	1	n/a	0	n/a	n/a	n/a	n/a	n/a
3146218	RECOG_CONF	n/a	LTP211	ltpFR	3	5	1	WORLD	1622	n/a	3	0	n/a	n/a	n/a	n/a	n/a
3148118	RECOG_TARGET	n/a	LTP211	ltpFR	3	5	0	MARROW	872	1	5	0	n/a	n/a	n/a	n/a	n/a
3148911	RECOG_RESP	n/a	LTP211	ltpFR	3	5	0	MARROW	872	1	n/a	0	n/a	n/a	n/a	n/a	n/a
3150129	RECOG_CONF	n/a	LTP211	ltpFR	3	5	0	MARROW	872	n/a	5	0	n/a	n/a	n/a	n/a	n/a
3151932	RECOG_TARGET	n/a	LTP211	ltpFR	3	5	-1	FRUIT	610	1	5	-1	n/a	n/a	n/a	n/a	n/a
3152568	RECOG_RESP	n/a	LTP211	ltpFR	3	5	-1	FRUIT	610	1	n/a	-1	n/a	n/a	n/a	n/a	n/a
3153691	RECOG_CONF	n/a	LTP211	ltpFR	3	5	-1	FRUIT	610	n/a	5	-1	n/a	n/a	n/a	n/a	n/a
3155412	RECOG_LURE	n/a	LTP211	ltpFR	3	5	n/a	LOUNGE	845	0	4	n/a	n/a	n/a	n/a	n/a	n/a
3156090	RECOG_RESP	n/a	LTP211	ltpFR	3	5	n/a	LOUNGE	845	0	n/a	n/a	n/a	n/a	n/a	n/a	n/a
3157342	RECOG_CONF	n/a	LTP211	ltpFR	3	5	n/a	LOUNGE	845	n/a	4	n/a	n/a	n/a	n/a	n/a	n/a
3159244	RECOG_LURE	n/a	LTP211	ltpFR	3	5	n/a	FEMALE	559	0	5	n/a	n/a	n/a	n/a	n/a	n/a
3160061	RECOG_RESP	n/a	LTP211	ltpFR	3	5	n/a	FEMALE	559	0	n/a	n/a	n/a	n/a	n/a	n/a	n/a
3161413	RECOG_CONF	n/a	LTP211	ltpFR	3	5	n/a	FEMALE	559	n/a	5	n/a	n/a	n/a	n/a	n/a	n/a
3163309	RECOG_TARGET	n/a	LTP211	ltpFR	3	5	0	CLARINET	317	1	5	0	n/a	n/a	n/a	n/a	n/a
3164032	RECOG_RESP	n/a	LTP211	ltpFR	3	5	0	CLARINET	317	1	n/a	0	n/a	n/a	n/a	n/a	n/a
3165218	RECOG_CONF	n/a	LTP211	ltpFR	3	5	0	CLARINET	317	n/a	5	0	n/a	n/a	n/a	n/a	n/a
3167002	RECOG_TARGET	n/a	LTP211	ltpFR	3	5	0	MOVIE	927	1	1	1	n/a	n/a	n/a	n/a	n/a
3167958	RECOG_RESP_VV	n/a	LTP211	ltpFR	3	5	0	MOVIE	927	1	n/a	1	n/a	n/a	n/a	n/a	n/a
3170647	RECOG_RESP	n/a	LTP211	ltpFR	3	5	0	MOVIE	927	1	n/a	1	n/a	n/a	n/a	n/a	n/a
3171909	RECOG_CONF	n/a	LTP211	ltpFR	3	5	0	MOVIE	927	n/a	1	1	n/a	n/a	n/a	n/a	n/a
3173781	RECOG_TARGET	n/a	LTP211	ltpFR	3	5	0	COLESLAW	344	1	5	0	n/a	n/a	n/a	n/a	n/a
3174448	RECOG_RESP	n/a	LTP211	ltpFR	3	5	0	COLESLAW	344	1	n/a	0	n/a	n/a	n/a	n/a	n/a
3175701	RECOG_CONF	n/a	LTP211	ltpFR	3	5	0	COLESLAW	344	n/a	5	0	n/a	n/a	n/a	n/a	n/a
3185911	REC_START	n/a	LTP211	ltpFR	3	6	n/a	n/a	n/a	n/a	n/a	n/a	n/a	n/a	n/a	n/a	n/a
3185960	RECOG_LURE	n/a	LTP211	ltpFR	3	6	n/a	WHEAT	1602	0	5	n/a	n/a	n/a	n/a	n/a	n/a
3186928	RECOG_RESP	n/a	LTP211	ltpFR	3	6	n/a	WHEAT	1602	0	n/a	n/a	n/a	n/a	n/a	n/a	n/a
3188400	RECOG_CONF	n/a	LTP211	ltpFR	3	6	n/a	WHEAT	1602	n/a	5	n/a	n/a	n/a	n/a	n/a	n/a
3190194	RECOG_TARGET	n/a	LTP211	ltpFR	3	6	1	ARENA	37	1	5	0	n/a	n/a	n/a	n/a	n/a
3190949	RECOG_RESP	n/a	LTP211	ltpFR	3	6	1	ARENA	37	1	n/a	0	n/a	n/a	n/a	n/a	n/a
3192162	RECOG_CONF	n/a	LTP211	ltpFR	3	6	1	ARENA	37	n/a	5	0	n/a	n/a	n/a	n/a	n/a
3194074	RECOG_TARGET	n/a	LTP211	ltpFR	3	6	-1	TANGERINE	1431	1	5	-1	n/a	n/a	n/a	n/a	n/a
3194721	RECOG_RESP	n/a	LTP211	ltpFR	3	6	-1	TANGERINE	1431	1	n/a	-1	n/a	n/a	n/a	n/a	n/a
3195933	RECOG_CONF	n/a	LTP211	ltpFR	3	6	-1	TANGERINE	1431	n/a	5	-1	n/a	n/a	n/a	n/a	n/a
3197788	RECOG_LURE	n/a	LTP211	ltpFR	3	6	n/a	AIRPLANE	12	0	3	n/a	n/a	n/a	n/a	n/a	n/a
3198592	RECOG_RESP	n/a	LTP211	ltpFR	3	6	n/a	AIRPLANE	12	0	n/a	n/a	n/a	n/a	n/a	n/a	n/a
3199914	RECOG_CONF	n/a	LTP211	ltpFR	3	6	n/a	AIRPLANE	12	n/a	3	n/a	n/a	n/a	n/a	n/a	n/a
3201716	RECOG_LURE	n/a	LTP211	ltpFR	3	6	n/a	LEADER	807	0	4	n/a	n/a	n/a	n/a	n/a	n/a
3202649	RECOG_RESP	n/a	LTP211	ltpFR	3	6	n/a	LEADER	807	0	n/a	n/a	n/a	n/a	n/a	n/a	n/a
3203905	RECOG_CONF	n/a	LTP211	ltpFR	3	6	n/a	LEADER	807	n/a	4	n/a	n/a	n/a	n/a	n/a	n/a
3205852	RECOG_TARGET	n/a	LTP211	ltpFR	3	6	0	TRAITOR	1495	1	4	1	n/a	n/a	n/a	n/a	n/a
3206549	RECOG_RESP	n/a	LTP211	ltpFR	3	6	0	TRAITOR	1495	1	n/a	1	n/a	n/a	n/a	n/a	n/a
3207776	RECOG_CONF	n/a	LTP211	ltpFR	3	6	0	TRAITOR	1495	n/a	4	1	n/a	n/a	n/a	n/a	n/a
3209399	RECOG_LURE	n/a	LTP211	ltpFR	3	6	n/a	PAINTER	1004	0	5	n/a	n/a	n/a	n/a	n/a	n/a
3210445	RECOG_RESP	n/a	LTP211	ltpFR	3	6	n/a	PAINTER	1004	0	n/a	n/a	n/a	n/a	n/a	n/a	n/a
3212046	RECOG_CONF	n/a	LTP211	ltpFR	3	6	n/a	PAINTER	1004	n/a	5	n/a	n/a	n/a	n/a	n/a	n/a
3214079	RECOG_TARGET	n/a	LTP211	ltpFR	3	6	-1	CARTON	251	1	5	-1	n/a	n/a	n/a	n/a	n/a
3214950	RECOG_RESP	n/a	LTP211	ltpFR	3	6	-1	CARTON	251	1	n/a	-1	n/a	n/a	n/a	n/a	n/a
3216147	RECOG_CONF	n/a	LTP211	ltpFR	3	6	-1	CARTON	251	n/a	5	-1	n/a	n/a	n/a	n/a	n/a
3218098	RECOG_LURE	n/a	LTP211	ltpFR	3	6	n/a	CHOCOLATE	306	0	4	n/a	n/a	n/a	n/a	n/a	n/a
3218911	RECOG_RESP	n/a	LTP211	ltpFR	3	6	n/a	CHOCOLATE	306	0	n/a	n/a	n/a	n/a	n/a	n/a	n/a
3220377	RECOG_CONF	n/a	LTP211	ltpFR	3	6	n/a	CHOCOLATE	306	n/a	4	n/a	n/a	n/a	n/a	n/a	n/a
3222231	RECOG_TARGET	n/a	LTP211	ltpFR	3	6	-1	RACK	1154	1	5	-1	n/a	n/a	n/a	n/a	n/a
3222987	RECOG_RESP	n/a	LTP211	ltpFR	3	6	-1	RACK	1154	1	n/a	-1	n/a	n/a	n/a	n/a	n/a
3224229	RECOG_CONF	n/a	LTP211	ltpFR	3	6	-1	RACK	1154	n/a	5	-1	n/a	n/a	n/a	n/a	n/a
3226263	RECOG_TARGET	n/a	LTP211	ltpFR	3	6	1	CLAMP	316	1	5	0	n/a	n/a	n/a	n/a	n/a
3227047	RECOG_RESP	n/a	LTP211	ltpFR	3	6	1	CLAMP	316	1	n/a	0	n/a	n/a	n/a	n/a	n/a
3228200	RECOG_CONF	n/a	LTP211	ltpFR	3	6	1	CLAMP	316	n/a	5	0	n/a	n/a	n/a	n/a	n/a
3230278	RECOG_TARGET	n/a	LTP211	ltpFR	3	6	0	CAGE	218	1	5	1	n/a	n/a	n/a	n/a	n/a
3230958	RECOG_RESP	n/a	LTP211	ltpFR	3	6	0	CAGE	218	1	n/a	1	n/a	n/a	n/a	n/a	n/a
3232121	RECOG_CONF	n/a	LTP211	ltpFR	3	6	0	CAGE	218	n/a	5	1	n/a	n/a	n/a	n/a	n/a
3233841	RECOG_TARGET	n/a	LTP211	ltpFR	3	6	0	HARE	688	1	5	0	n/a	n/a	n/a	n/a	n/a
