mstime	trial_type	stim_file	subject	experiment	session	trial	item_name	item_num	list	answer	test_x	test_y	test_z
0	SESS_START	n/a	LTP269	ltpFR2	16	n/a	n/a	n/a	n/a	n/a	0	0	0
15945	START	n/a	LTP269	ltpFR2	16	n/a	n/a	n/a	-1	n/a	n/a	n/a	n/a
15962	PROB	n/a	LTP269	ltpFR2	16	n/a	n/a	n/a	-1	17	7	8	2
17462	PROB	n/a	LTP269	ltpFR2	16	n/a	n/a	n/a	-1	17	9	2	6
19513	PROB	n/a	LTP269	ltpFR2	16	n/a	n/a	n/a	-1	10	3	3	4
21865	PROB	n/a	LTP269	ltpFR2	16	n/a	n/a	n/a	-1	19	8	8	3
23319	PROB	n/a	LTP269	ltpFR2	16	n/a	n/a	n/a	-1	15	8	6	1
24650	PROB	n/a	LTP269	ltpFR2	16	n/a	n/a	n/a	-1	16	4	5	7
26590	STOP	n/a	LTP269	ltpFR2	16	n/a	n/a	n/a	-1	n/a	n/a	n/a	n/a
59061	WORD	wordpools/wasnorm_wordpool_576.txt	LTP269	ltpFR2	16	1	SPACE	1345	n/a	n/a	0	0	0
61653	WORD	wordpools/wasnorm_wordpool_576.txt	LTP269	ltpFR2	16	1	PADDING	999	n/a	n/a	0	0	0
64451	WORD	wordpools/wasnorm_wordpool_576.txt	LTP269	ltpFR2	16	1	MATTRESS	879	n/a	n/a	0	0	0
67085	WORD	wordpools/wasnorm_wordpool_576.txt	LTP269	ltpFR2	16	1	BINDER	127	n/a	n/a	0	0	0
69839	WORD	wordpools/wasnorm_wordpool_576.txt	LTP269	ltpFR2	16	1	PADDLE	1000	n/a	n/a	0	0	0
72479	WORD	wordpools/wasnorm_wordpool_576.txt	LTP269	ltpFR2	16	1	SKIRT	1319	n/a	n/a	0	0	0
74897	WORD	wordpools/wasnorm_wordpool_576.txt	LTP269	ltpFR2	16	1	FOX	598	n/a	n/a	0	0	0
77345	WORD	wordpools/wasnorm_wordpool_576.txt	LTP269	ltpFR2	16	1	LUGGAGE	847	n/a	n/a	0	0	0
79763	WORD	wordpools/wasnorm_wordpool_576.txt	LTP269	ltpFR2	16	1	SUNRISE	1407	n/a	n/a	0	0	0
82354	WORD	wordpools/wasnorm_wordpool_576.txt	LTP269	ltpFR2	16	1	NECKLACE	940	n/a	n/a	0	0	0
85134	WORD	wordpools/wasnorm_wordpool_576.txt	LTP269	ltpFR2	16	1	RUST	1219	n/a	n/a	0	0	0
87836	WORD	wordpools/wasnorm_wordpool_576.txt	LTP269	ltpFR2	16	1	PAPER	1011	n/a	n/a	0	0	0
90261	WORD	wordpools/wasnorm_wordpool_576.txt	LTP269	ltpFR2	16	1	DIME	466	n/a	n/a	0	0	0
92746	WORD	wordpools/wasnorm_wordpool_576.txt	LTP269	ltpFR2	16	1	TORTOISE	1486	n/a	n/a	0	0	0
95209	WORD	wordpools/wasnorm_wordpool_576.txt	LTP269	ltpFR2	16	1	INFANT	737	n/a	n/a	0	0	0
97961	WORD	wordpools/wasnorm_wordpool_576.txt	LTP269	ltpFR2	16	1	FREEZER	604	n/a	n/a	0	0	0
100564	WORD	wordpools/wasnorm_wordpool_576.txt	LTP269	ltpFR2	16	1	TUBA	1515	n/a	n/a	0	0	0
103299	WORD	wordpools/wasnorm_wordpool_576.txt	LTP269	ltpFR2	16	1	OMELET	976	n/a	n/a	0	0	0
105908	WORD	wordpools/wasnorm_wordpool_576.txt	LTP269	ltpFR2	16	1	BACON	67	n/a	n/a	0	0	0
108387	WORD	wordpools/wasnorm_wordpool_576.txt	LTP269	ltpFR2	16	1	COCKTAIL	338	n/a	n/a	0	0	0
111020	WORD	wordpools/wasnorm_wordpool_576.txt	LTP269	ltpFR2	16	1	CARROT	249	n/a	n/a	0	0	0
113791	WORD	wordpools/wasnorm_wordpool_576.txt	LTP269	ltpFR2	16	1	TURTLE	1522	n/a	n/a	0	0	0
116526	WORD	wordpools/wasnorm_wordpool_576.txt	LTP269	ltpFR2	16	1	SUNSET	1408	n/a	n/a	0	0	0
119044	WORD	wordpools/wasnorm_wordpool_576.txt	LTP269	ltpFR2	16	1	MAPLE	866	n/a	n/a	0	0	0
120655	START	n/a	LTP269	ltpFR2	16	n/a	n/a	n/a	1	n/a	n/a	n/a	n/a
121699	DISTRACTOR	n/a	LTP269	ltpFR2	16	1	n/a	n/a	n/a	n/a	0	0	0
121705	PROB	n/a	LTP269	ltpFR2	16	n/a	n/a	n/a	1	21	6	7	8
123631	PROB	n/a	LTP269	ltpFR2	16	n/a	n/a	n/a	1	13	1	7	5
124848	PROB	n/a	LTP269	ltpFR2	16	n/a	n/a	n/a	1	13	1	5	7
125832	PROB	n/a	LTP269	ltpFR2	16	n/a	n/a	n/a	1	13	2	6	5
128501	PROB	n/a	LTP269	ltpFR2	16	n/a	n/a	n/a	1	17	2	7	8
130286	PROB	n/a	LTP269	ltpFR2	16	n/a	n/a	n/a	1	13	1	5	7
131520	PROB	n/a	LTP269	ltpFR2	16	n/a	n/a	n/a	1	8	6	1	1
132722	PROB	n/a	LTP269	ltpFR2	16	n/a	n/a	n/a	1	13	9	1	3
135174	PROB	n/a	LTP269	ltpFR2	16	n/a	n/a	n/a	1	13	9	3	1
136224	PROB	n/a	LTP269	ltpFR2	16	n/a	n/a	n/a	1	11	7	1	3
137775	PROB	n/a	LTP269	ltpFR2	16	n/a	n/a	n/a	1	6	1	2	3
139042	PROB	n/a	LTP269	ltpFR2	16	n/a	n/a	n/a	1	15	8	6	1
140578	PROB	n/a	LTP269	ltpFR2	16	n/a	n/a	n/a	1	12	1	6	5
142062	PROB	n/a	LTP269	ltpFR2	16	n/a	n/a	n/a	1	11	5	4	2
144635	STOP	n/a	LTP269	ltpFR2	16	n/a	n/a	n/a	1	n/a	n/a	n/a	n/a
146599	REC_START	n/a	LTP269	ltpFR2	16	1	n/a	n/a	n/a	n/a	0	0	0
148682	REC_WORD	wordpools/wasnorm_wordpool_576.txt	LTP269	ltpFR2	16	1	SPACE	1345	n/a	n/a	0	0	0
151155	REC_WORD	wordpools/wasnorm_wordpool_576.txt	LTP269	ltpFR2	16	1	PADDING	999	n/a	n/a	0	0	0
151767	REC_WORD	wordpools/wasnorm_wordpool_576.txt	LTP269	ltpFR2	16	1	MATTRESS	879	n/a	n/a	0	0	0
152341	REC_WORD	wordpools/wasnorm_wordpool_576.txt	LTP269	ltpFR2	16	1	BINDER	127	n/a	n/a	0	0	0
152941	REC_WORD	wordpools/wasnorm_wordpool_576.txt	LTP269	ltpFR2	16	1	PAPER	1011	n/a	n/a	0	0	0
153537	REC_WORD	wordpools/wasnorm_wordpool_576.txt	LTP269	ltpFR2	16	1	FOX	598	n/a	n/a	0	0	0
154922	REC_WORD	wordpools/wasnorm_wordpool_576.txt	LTP269	ltpFR2	16	1	LUGGAGE	847	n/a	n/a	0	0	0
155616	REC_WORD	wordpools/wasnorm_wordpool_576.txt	LTP269	ltpFR2	16	1	RUST	1219	n/a	n/a	0	0	0
158588	REC_WORD	wordpools/wasnorm_wordpool_576.txt	LTP269	ltpFR2	16	1	DIME	466	n/a	n/a	0	0	0
161234	REC_WORD	wordpools/wasnorm_wordpool_576.txt	LTP269	ltpFR2	16	1	SUNRISE	1407	n/a	n/a	0	0	0
161809	REC_WORD	wordpools/wasnorm_wordpool_576.txt	LTP269	ltpFR2	16	1	SUNSET	1408	n/a	n/a	0	0	0
163112	REC_WORD	wordpools/wasnorm_wordpool_576.txt	LTP269	ltpFR2	16	1	NECKLACE	940	n/a	n/a	0	0	0
166075	REC_WORD	wordpools/wasnorm_wordpool_576.txt	LTP269	ltpFR2	16	1	OMELET	976	n/a	n/a	0	0	0
167038	REC_WORD	wordpools/wasnorm_wordpool_576.txt	LTP269	ltpFR2	16	1	BACON	67	n/a	n/a	0	0	0
213623	REC_WORD	wordpools/wasnorm_wordpool_576.txt	LTP269	ltpFR2	16	1	PADDLE	1000	n/a	n/a	0	0	0
215514	REC_WORD	wordpools/wasnorm_wordpool_576.txt	LTP269	ltpFR2	16	1	SKIRT	1319	n/a	n/a	0	0	0
237072	WORD	wordpools/wasnorm_wordpool_576.txt	LTP269	ltpFR2	16	2	FEMALE	559	n/a	n/a	0	0	0
239658	WORD	wordpools/wasnorm_wordpool_576.txt	LTP269	ltpFR2	16	2	SNAIL	1332	n/a	n/a	0	0	0
242427	WORD	wordpools/wasnorm_wordpool_576.txt	LTP269	ltpFR2	16	2	CRITIC	410	n/a	n/a	0	0	0
244945	WORD	wordpools/wasnorm_wordpool_576.txt	LTP269	ltpFR2	16	2	CYCLONE	431	n/a	n/a	0	0	0
247565	WORD	wordpools/wasnorm_wordpool_576.txt	LTP269	ltpFR2	16	2	WASHER	1592	n/a	n/a	0	0	0
250083	WORD	wordpools/wasnorm_wordpool_576.txt	LTP269	ltpFR2	16	2	HORNET	718	n/a	n/a	0	0	0
252619	WORD	wordpools/wasnorm_wordpool_576.txt	LTP269	ltpFR2	16	2	MOTEL	919	n/a	n/a	0	0	0
255204	WORD	wordpools/wasnorm_wordpool_576.txt	LTP269	ltpFR2	16	2	KITCHEN	778	n/a	n/a	0	0	0
257705	WORD	wordpools/wasnorm_wordpool_576.txt	LTP269	ltpFR2	16	2	CAFE	216	n/a	n/a	0	0	0
260525	WORD	wordpools/wasnorm_wordpool_576.txt	LTP269	ltpFR2	16	2	JELLO	754	n/a	n/a	0	0	0
263011	WORD	wordpools/wasnorm_wordpool_576.txt	LTP269	ltpFR2	16	2	CATCHER	258	n/a	n/a	0	0	0
265546	WORD	wordpools/wasnorm_wordpool_576.txt	LTP269	ltpFR2	16	2	UMPIRE	1535	n/a	n/a	0	0	0
268130	WORD	wordpools/wasnorm_wordpool_576.txt	LTP269	ltpFR2	16	2	WAITRESS	1581	n/a	n/a	0	0	0
270566	WORD	wordpools/wasnorm_wordpool_576.txt	LTP269	ltpFR2	16	2	PEPPER	1047	n/a	n/a	0	0	0
273268	WORD	wordpools/wasnorm_wordpool_576.txt	LTP269	ltpFR2	16	2	TWISTER	1530	n/a	n/a	0	0	0
275704	WORD	wordpools/wasnorm_wordpool_576.txt	LTP269	ltpFR2	16	2	SOFTBALL	1343	n/a	n/a	0	0	0
278289	WORD	wordpools/wasnorm_wordpool_576.txt	LTP269	ltpFR2	16	2	QUEEN	1149	n/a	n/a	0	0	0
281041	WORD	wordpools/wasnorm_wordpool_576.txt	LTP269	ltpFR2	16	2	VICTIM	1562	n/a	n/a	0	0	0
283477	WORD	wordpools/wasnorm_wordpool_576.txt	LTP269	ltpFR2	16	2	JURY	766	n/a	n/a	0	0	0
286162	WORD	wordpools/wasnorm_wordpool_576.txt	LTP269	ltpFR2	16	2	TUTU	1524	n/a	n/a	0	0	0
288965	WORD	wordpools/wasnorm_wordpool_576.txt	LTP269	ltpFR2	16	2	FRAME	600	n/a	n/a	0	0	0
291420	WORD	wordpools/wasnorm_wordpool_576.txt	LTP269	ltpFR2	16	2	BUGGY	188	n/a	n/a	0	0	0
293951	WORD	wordpools/wasnorm_wordpool_576.txt	LTP269	ltpFR2	16	2	SPONGE	1355	n/a	n/a	0	0	0
296538	WORD	wordpools/wasnorm_wordpool_576.txt	LTP269	ltpFR2	16	2	LOVER	846	n/a	n/a	0	0	0
298155	START	n/a	LTP269	ltpFR2	16	n/a	n/a	n/a	2	n/a	n/a	n/a	n/a
299345	DISTRACTOR	n/a	LTP269	ltpFR2	16	2	n/a	n/a	n/a	n/a	0	0	0
299357	PROB	n/a	LTP269	ltpFR2	16	n/a	n/a	n/a	2	17	6	9	2
301289	PROB	n/a	LTP269	ltpFR2	16	n/a	n/a	n/a	2	14	4	8	2
303593	PROB	n/a	LTP269	ltpFR2	16	n/a	n/a	n/a	2	5	2	2	1
304876	PROB	n/a	LTP269	ltpFR2	16	n/a	n/a	n/a	2	17	7	8	2
306177	PROB	n/a	LTP269	ltpFR2	16	n/a	n/a	n/a	2	22	9	8	5
308061	PROB	n/a	LTP269	ltpFR2	16	n/a	n/a	n/a	2	17	4	8	5
310647	PROB	n/a	LTP269	ltpFR2	16	n/a	n/a	n/a	2	12	1	3	8
311881	PROB	n/a	LTP269	ltpFR2	16	n/a	n/a	n/a	2	10	1	4	5
313985	PROB	n/a	LTP269	ltpFR2	16	n/a	n/a	n/a	2	13	6	1	6
315252	PROB	n/a	LTP269	ltpFR2	16	n/a	n/a	n/a	2	18	9	6	3
316852	PROB	n/a	LTP269	ltpFR2	16	n/a	n/a	n/a	2	14	2	9	3
318472	PROB	n/a	LTP269	ltpFR2	16	n/a	n/a	n/a	2	10	8	1	1
319804	PROB	n/a	LTP269	ltpFR2	16	n/a	n/a	n/a	2	18	2	8	8
321154	STOP	n/a	LTP269	ltpFR2	16	n/a	n/a	n/a	2	n/a	n/a	n/a	n/a
324058	REC_START	n/a	LTP269	ltpFR2	16	2	n/a	n/a	n/a	n/a	0	0	0
328069	REC_WORD	wordpools/wasnorm_wordpool_576.txt	LTP269	ltpFR2	16	2	FEMALE	559	n/a	n/a	0	0	0
328573	REC_WORD	wordpools/wasnorm_wordpool_576.txt	LTP269	ltpFR2	16	2	SNAIL	1332	n/a	n/a	0	0	0
329118	REC_WORD	wordpools/wasnorm_wordpool_576.txt	LTP269	ltpFR2	16	2	CRITIC	410	n/a	n/a	0	0	0
329516	REC_WORD	wordpools/wasnorm_wordpool_576.txt	LTP269	ltpFR2	16	2	CYCLONE	431	n/a	n/a	0	0	0
330919	REC_WORD	wordpools/wasnorm_wordpool_576.txt	LTP269	ltpFR2	16	2	MOTEL	919	n/a	n/a	0	0	0
331571	REC_WORD	wordpools/wasnorm_wordpool_576.txt	LTP269	ltpFR2	16	2	WASHER	1592	n/a	n/a	0	0	0
332190	REC_WORD	wordpools/wasnorm_wordpool_576.txt	LTP269	ltpFR2	16	2	CAFE	216	n/a	n/a	0	0	0
336696	REC_WORD	wordpools/wasnorm_wordpool_576.txt	LTP269	ltpFR2	16	2	CATCHER	258	n/a	n/a	0	0	0
337094	REC_WORD	wordpools/wasnorm_wordpool_576.txt	LTP269	ltpFR2	16	2	UMPIRE	1535	n/a	n/a	0	0	0
340758	REC_WORD	wordpools/wasnorm_wordpool_576.txt	LTP269	ltpFR2	16	2	SPONGE	1355	n/a	n/a	0	0	0
341360	REC_WORD	wordpools/wasnorm_wordpool_576.txt	LTP269	ltpFR2	16	2	JELLO	754	n/a	n/a	0	0	0
344397	REC_WORD	wordpools/wasnorm_wordpool_576.txt	LTP269	ltpFR2	16	2	TWISTER	1530	n/a	n/a	0	0	0
347795	REC_WORD	wordpools/wasnorm_wordpool_576.txt	LTP269	ltpFR2	16	2	QUEEN	1149	n/a	n/a	0	0	0
348428	REC_WORD	wordpools/wasnorm_wordpool_576.txt	LTP269	ltpFR2	16	2	TUTU	1524	n/a	n/a	0	0	0
349025	REC_WORD	wordpools/wasnorm_wordpool_576.txt	LTP269	ltpFR2	16	2	JURY	766	n/a	n/a	0	0	0
351775	REC_WORD	wordpools/wasnorm_wordpool_576.txt	LTP269	ltpFR2	16	2	HORNET	718	n/a	n/a	0	0	0
363487	REC_WORD	wordpools/wasnorm_wordpool_576.txt	LTP269	ltpFR2	16	2	PEPPER	1047	n/a	n/a	0	0	0
374601	REC_WORD	wordpools/wasnorm_wordpool_576.txt	LTP269	ltpFR2	16	2	LOVER	846	n/a	n/a	0	0	0
381895	REC_WORD	wordpools/wasnorm_wordpool_576.txt	LTP269	ltpFR2	16	2	SPONGE	1355	n/a	n/a	0	0	0
414497	WORD	wordpools/wasnorm_wordpool_576.txt	LTP269	ltpFR2	16	3	ELBOW	520	n/a	n/a	0	0	0
417112	WORD	wordpools/wasnorm_wordpool_576.txt	LTP269	ltpFR2	16	3	CIGAR	308	n/a	n/a	0	0	0
419915	WORD	wordpools/wasnorm_wordpool_576.txt	LTP269	ltpFR2	16	3	OZONE	996	n/a	n/a	0	0	0
422401	WORD	wordpools/wasnorm_wordpool_576.txt	LTP269	ltpFR2	16	3	DUSTPAN	509	n/a	n/a	0	0	0
424874	WORD	wordpools/wasnorm_wordpool_576.txt	LTP269	ltpFR2	16	3	TILE	1468	n/a	n/a	0	0	0
427438	WORD	wordpools/wasnorm_wordpool_576.txt	LTP269	ltpFR2	16	3	PEACH	1031	n/a	n/a	0	0	0
430090	WORD	wordpools/wasnorm_wordpool_576.txt	LTP269	ltpFR2	16	3	PLAZA	1088	n/a	n/a	0	0	0
432892	WORD	wordpools/wasnorm_wordpool_576.txt	LTP269	ltpFR2	16	3	MILK	895	n/a	n/a	0	0	0
435595	WORD	wordpools/wasnorm_wordpool_576.txt	LTP269	ltpFR2	16	3	WAITER	1580	n/a	n/a	0	0	0
438083	WORD	wordpools/wasnorm_wordpool_576.txt	LTP269	ltpFR2	16	3	LONDON	843	n/a	n/a	0	0	0
440516	WORD	wordpools/wasnorm_wordpool_576.txt	LTP269	ltpFR2	16	3	DASHBOARD	441	n/a	n/a	0	0	0
442939	WORD	wordpools/wasnorm_wordpool_576.txt	LTP269	ltpFR2	16	3	WRENCH	1625	n/a	n/a	0	0	0
445571	WORD	wordpools/wasnorm_wordpool_576.txt	LTP269	ltpFR2	16	3	BREAST	171	n/a	n/a	0	0	0
448122	WORD	wordpools/wasnorm_wordpool_576.txt	LTP269	ltpFR2	16	3	FOOT	590	n/a	n/a	0	0	0
450925	WORD	wordpools/wasnorm_wordpool_576.txt	LTP269	ltpFR2	16	3	ANKLE	24	n/a	n/a	0	0	0
453461	WORD	wordpools/wasnorm_wordpool_576.txt	LTP269	ltpFR2	16	3	CHAUFFEUR	283	n/a	n/a	0	0	0
455949	WORD	wordpools/wasnorm_wordpool_576.txt	LTP269	ltpFR2	16	3	DAUGHTER	442	n/a	n/a	0	0	0
458400	WORD	wordpools/wasnorm_wordpool_576.txt	LTP269	ltpFR2	16	3	RUG	1215	n/a	n/a	0	0	0
461083	WORD	wordpools/wasnorm_wordpool_576.txt	LTP269	ltpFR2	16	3	DENTIST	447	n/a	n/a	0	0	0
463903	WORD	wordpools/wasnorm_wordpool_576.txt	LTP269	ltpFR2	16	3	TURNIP	1521	n/a	n/a	0	0	0
466641	WORD	wordpools/wasnorm_wordpool_576.txt	LTP269	ltpFR2	16	3	PARSLEY	1016	n/a	n/a	0	0	0
469408	WORD	wordpools/wasnorm_wordpool_576.txt	LTP269	ltpFR2	16	3	PARENT	1013	n/a	n/a	0	0	0
471927	WORD	wordpools/wasnorm_wordpool_576.txt	LTP269	ltpFR2	16	3	AIRPORT	13	n/a	n/a	0	0	0
474646	WORD	wordpools/wasnorm_wordpool_576.txt	LTP269	ltpFR2	16	3	FRIEND	606	n/a	n/a	0	0	0
476265	START	n/a	LTP269	ltpFR2	16	n/a	n/a	n/a	3	n/a	n/a	n/a	n/a
477116	DISTRACTOR	n/a	LTP269	ltpFR2	16	3	n/a	n/a	n/a	n/a	0	0	0
477130	PROB	n/a	LTP269	ltpFR2	16	n/a	n/a	n/a	3	20	4	8	8
479032	PROB	n/a	LTP269	ltpFR2	16	n/a	n/a	n/a	3	19	9	6	4
480318	PROB	n/a	LTP269	ltpFR2	16	n/a	n/a	n/a	3	15	4	4	7
481753	PROB	n/a	LTP269	ltpFR2	16	n/a	n/a	n/a	3	15	1	6	8
482785	PROB	n/a	LTP269	ltpFR2	16	n/a	n/a	n/a	3	10	6	3	1
484455	PROB	n/a	LTP269	ltpFR2	16	n/a	n/a	n/a	3	10	3	6	1
485423	PROB	n/a	LTP269	ltpFR2	16	n/a	n/a	n/a	3	7	2	1	4
487023	PROB	n/a	LTP269	ltpFR2	16	n/a	n/a	n/a	3	19	9	4	6
488340	PROB	n/a	LTP269	ltpFR2	16	n/a	n/a	n/a	3	15	7	1	7
489492	PROB	n/a	LTP269	ltpFR2	16	n/a	n/a	n/a	3	13	3	6	4
490726	PROB	n/a	LTP269	ltpFR2	16	n/a	n/a	n/a	3	19	6	8	5
492377	PROB	n/a	LTP269	ltpFR2	16	n/a	n/a	n/a	3	12	9	2	1
493661	PROB	n/a	LTP269	ltpFR2	16	n/a	n/a	n/a	3	16	7	6	3
496931	PROB	n/a	LTP269	ltpFR2	16	n/a	n/a	n/a	3	20	6	7	7
498581	PROB	n/a	LTP269	ltpFR2	16	n/a	n/a	n/a	3	19	7	9	3
500104	STOP	n/a	LTP269	ltpFR2	16	n/a	n/a	n/a	3	n/a	n/a	n/a	n/a
502135	REC_START	n/a	LTP269	ltpFR2	16	3	n/a	n/a	n/a	n/a	0	0	0
505060	REC_WORD	wordpools/wasnorm_wordpool_576.txt	LTP269	ltpFR2	16	3	ELBOW	520	n/a	n/a	0	0	0
505489	REC_WORD	wordpools/wasnorm_wordpool_576.txt	LTP269	ltpFR2	16	3	CIGAR	308	n/a	n/a	0	0	0
510258	REC_WORD	wordpools/wasnorm_wordpool_576.txt	LTP269	ltpFR2	16	3	DUSTPAN	509	n/a	n/a	0	0	0
511843	REC_WORD	wordpools/wasnorm_wordpool_576.txt	LTP269	ltpFR2	16	3	OZONE	996	n/a	n/a	0	0	0
514201	REC_WORD	wordpools/wasnorm_wordpool_576.txt	LTP269	ltpFR2	16	3	AIRPORT	13	n/a	n/a	0	0	0
517589	REC_WORD	wordpools/wasnorm_wordpool_576.txt	LTP269	ltpFR2	16	3	TILE	1468	n/a	n/a	0	0	0
518241	REC_WORD	wordpools/wasnorm_wordpool_576.txt	LTP269	ltpFR2	16	3	PEACH	1031	n/a	n/a	0	0	0
519490	REC_WORD	wordpools/wasnorm_wordpool_576.txt	LTP269	ltpFR2	16	3	FRIEND	606	n/a	n/a	0	0	0
522325	REC_WORD	wordpools/wasnorm_wordpool_576.txt	LTP269	ltpFR2	16	3	FOOT	590	n/a	n/a	0	0	0
523855	REC_WORD	wordpools/wasnorm_wordpool_576.txt	LTP269	ltpFR2	16	3	BREAST	171	n/a	n/a	0	0	0
592573	WORD	wordpools/wasnorm_wordpool_576.txt	LTP269	ltpFR2	16	4	GARLIC	624	n/a	n/a	0	0	0
595301	WORD	wordpools/wasnorm_wordpool_576.txt	LTP269	ltpFR2	16	4	HORSE	719	n/a	n/a	0	0	0
598028	WORD	wordpools/wasnorm_wordpool_576.txt	LTP269	ltpFR2	16	4	BLACKBOARD	133	n/a	n/a	0	0	0
600548	WORD	wordpools/wasnorm_wordpool_576.txt	LTP269	ltpFR2	16	4	DENIM	446	n/a	n/a	0	0	0
603017	WORD	wordpools/wasnorm_wordpool_576.txt	LTP269	ltpFR2	16	4	COSTUME	383	n/a	n/a	0	0	0
605436	WORD	wordpools/wasnorm_wordpool_576.txt	LTP269	ltpFR2	16	4	JUNGLE	764	n/a	n/a	0	0	0
608188	WORD	wordpools/wasnorm_wordpool_576.txt	LTP269	ltpFR2	16	4	LAKE	796	n/a	n/a	0	0	0
610856	WORD	wordpools/wasnorm_wordpool_576.txt	LTP269	ltpFR2	16	4	BURGLAR	200	n/a	n/a	0	0	0
613492	WORD	wordpools/wasnorm_wordpool_576.txt	LTP269	ltpFR2	16	4	CRUTCH	417	n/a	n/a	0	0	0
615953	WORD	wordpools/wasnorm_wordpool_576.txt	LTP269	ltpFR2	16	4	STAR	1373	n/a	n/a	0	0	0
618596	WORD	wordpools/wasnorm_wordpool_576.txt	LTP269	ltpFR2	16	4	COMET	353	n/a	n/a	0	0	0
621341	WORD	wordpools/wasnorm_wordpool_576.txt	LTP269	ltpFR2	16	4	SALT	1229	n/a	n/a	0	0	0
624133	WORD	wordpools/wasnorm_wordpool_576.txt	LTP269	ltpFR2	16	4	FINGER	567	n/a	n/a	0	0	0
626686	WORD	wordpools/wasnorm_wordpool_576.txt	LTP269	ltpFR2	16	4	PUDDING	1139	n/a	n/a	0	0	0
629414	WORD	wordpools/wasnorm_wordpool_576.txt	LTP269	ltpFR2	16	4	SCARECROW	1245	n/a	n/a	0	0	0
632050	WORD	wordpools/wasnorm_wordpool_576.txt	LTP269	ltpFR2	16	4	BARLEY	88	n/a	n/a	0	0	0
634535	WORD	wordpools/wasnorm_wordpool_576.txt	LTP269	ltpFR2	16	4	SHORTS	1293	n/a	n/a	0	0	0
637271	WORD	wordpools/wasnorm_wordpool_576.txt	LTP269	ltpFR2	16	4	TABLET	1427	n/a	n/a	0	0	0
639991	WORD	wordpools/wasnorm_wordpool_576.txt	LTP269	ltpFR2	16	4	LEG	809	n/a	n/a	0	0	0
642632	WORD	wordpools/wasnorm_wordpool_576.txt	LTP269	ltpFR2	16	4	PIGEON	1065	n/a	n/a	0	0	0
645351	WORD	wordpools/wasnorm_wordpool_576.txt	LTP269	ltpFR2	16	4	PRIMATE	1123	n/a	n/a	0	0	0
647814	WORD	wordpools/wasnorm_wordpool_576.txt	LTP269	ltpFR2	16	4	ONION	977	n/a	n/a	0	0	0
650287	WORD	wordpools/wasnorm_wordpool_576.txt	LTP269	ltpFR2	16	4	SMOG	1330	n/a	n/a	0	0	0
652824	WORD	wordpools/wasnorm_wordpool_576.txt	LTP269	ltpFR2	16	4	MONEY	908	n/a	n/a	0	0	0
654437	START	n/a	LTP269	ltpFR2	16	n/a	n/a	n/a	4	n/a	n/a	n/a	n/a
655445	DISTRACTOR	n/a	LTP269	ltpFR2	16	4	n/a	n/a	n/a	n/a	0	0	0
655454	PROB	n/a	LTP269	ltpFR2	16	n/a	n/a	n/a	4	8	1	3	4
656642	PROB	n/a	LTP269	ltpFR2	16	n/a	n/a	n/a	4	25	9	7	9
659578	PROB	n/a	LTP269	ltpFR2	16	n/a	n/a	n/a	4	16	6	9	1
662263	PROB	n/a	LTP269	ltpFR2	16	n/a	n/a	n/a	4	11	1	3	7
663948	PROB	n/a	LTP269	ltpFR2	16	n/a	n/a	n/a	4	13	6	5	2
665600	PROB	n/a	LTP269	ltpFR2	16	n/a	n/a	n/a	4	11	3	5	3
667318	PROB	n/a	LTP269	ltpFR2	16	n/a	n/a	n/a	4	22	9	5	8
669270	PROB	n/a	LTP269	ltpFR2	16	n/a	n/a	n/a	4	22	8	6	8
671838	PROB	n/a	LTP269	ltpFR2	16	n/a	n/a	n/a	4	19	2	9	8
673224	PROB	n/a	LTP269	ltpFR2	16	n/a	n/a	n/a	4	15	1	7	7
674391	PROB	n/a	LTP269	ltpFR2	16	n/a	n/a	n/a	4	19	8	2	9
675960	PROB	n/a	LTP269	ltpFR2	16	n/a	n/a	n/a	4	20	3	8	9
677745	STOP	n/a	LTP269	ltpFR2	16	n/a	n/a	n/a	4	n/a	n/a	n/a	n/a
680208	REC_START	n/a	LTP269	ltpFR2	16	4	n/a	n/a	n/a	n/a	0	0	0
685316	REC_WORD	wordpools/wasnorm_wordpool_576.txt	LTP269	ltpFR2	16	4	GARLIC	624	n/a	n/a	0	0	0
685695	REC_WORD	wordpools/wasnorm_wordpool_576.txt	LTP269	ltpFR2	16	4	HORSE	719	n/a	n/a	0	0	0
687268	REC_WORD	wordpools/wasnorm_wordpool_576.txt	LTP269	ltpFR2	16	4	DENIM	446	n/a	n/a	0	0	0
688376	REC_WORD	wordpools/wasnorm_wordpool_576.txt	LTP269	ltpFR2	16	4	COSTUME	383	n/a	n/a	0	0	0
693264	REC_WORD	wordpools/wasnorm_wordpool_576.txt	LTP269	ltpFR2	16	4	JUNGLE	764	n/a	n/a	0	0	0
694706	REC_WORD_VV	wordpools/wasnorm_wordpool_576.txt	LTP269	ltpFR2	16	4	<>	-1	n/a	n/a	0	0	0
695040	REC_WORD	wordpools/wasnorm_wordpool_576.txt	LTP269	ltpFR2	16	4	JUNGLE	764	n/a	n/a	0	0	0
697224	REC_WORD	wordpools/wasnorm_wordpool_576.txt	LTP269	ltpFR2	16	4	LAKE	796	n/a	n/a	0	0	0
698355	REC_WORD	wordpools/wasnorm_wordpool_576.txt	LTP269	ltpFR2	16	4	BURGLAR	200	n/a	n/a	0	0	0
698867	REC_WORD	wordpools/wasnorm_wordpool_576.txt	LTP269	ltpFR2	16	4	CRUTCH	417	n/a	n/a	0	0	0
700524	REC_WORD	wordpools/wasnorm_wordpool_576.txt	LTP269	ltpFR2	16	4	STAR	1373	n/a	n/a	0	0	0
701241	REC_WORD	wordpools/wasnorm_wordpool_576.txt	LTP269	ltpFR2	16	4	COMET	353	n/a	n/a	0	0	0
703699	REC_WORD	wordpools/wasnorm_wordpool_576.txt	LTP269	ltpFR2	16	4	LEG	809	n/a	n/a	0	0	0
705462	REC_WORD	wordpools/wasnorm_wordpool_576.txt	LTP269	ltpFR2	16	4	BARLEY	88	n/a	n/a	0	0	0
707528	REC_WORD	wordpools/wasnorm_wordpool_576.txt	LTP269	ltpFR2	16	4	SCARECROW	1245	n/a	n/a	0	0	0
709118	REC_WORD	wordpools/wasnorm_wordpool_576.txt	LTP269	ltpFR2	16	4	SHORTS	1293	n/a	n/a	0	0	0
721454	REC_WORD	wordpools/wasnorm_wordpool_576.txt	LTP269	ltpFR2	16	4	FINGER	567	n/a	n/a	0	0	0
722740	REC_WORD	wordpools/wasnorm_wordpool_576.txt	LTP269	ltpFR2	16	4	PUDDING	1139	n/a	n/a	0	0	0
770652	WORD	wordpools/wasnorm_wordpool_576.txt	LTP269	ltpFR2	16	5	RACKET	1155	n/a	n/a	0	0	0
773136	WORD	wordpools/wasnorm_wordpool_576.txt	LTP269	ltpFR2	16	5	YARN	1631	n/a	n/a	0	0	0
775689	WORD	wordpools/wasnorm_wordpool_576.txt	LTP269	ltpFR2	16	5	STICKER	1382	n/a	n/a	0	0	0
778106	WORD	wordpools/wasnorm_wordpool_576.txt	LTP269	ltpFR2	16	5	SERVER	1272	n/a	n/a	0	0	0
780596	WORD	wordpools/wasnorm_wordpool_576.txt	LTP269	ltpFR2	16	5	PIGMENT	1066	n/a	n/a	0	0	0
783212	WORD	wordpools/wasnorm_wordpool_576.txt	LTP269	ltpFR2	16	5	GRAVEL	659	n/a	n/a	0	0	0
785964	WORD	wordpools/wasnorm_wordpool_576.txt	LTP269	ltpFR2	16	5	TEMPLE	1448	n/a	n/a	0	0	0
788583	WORD	wordpools/wasnorm_wordpool_576.txt	LTP269	ltpFR2	16	5	PICNIC	1060	n/a	n/a	0	0	0
791100	WORD	wordpools/wasnorm_wordpool_576.txt	LTP269	ltpFR2	16	5	SUITCASE	1403	n/a	n/a	0	0	0
793620	WORD	wordpools/wasnorm_wordpool_576.txt	LTP269	ltpFR2	16	5	KNAPSACK	783	n/a	n/a	0	0	0
796388	WORD	wordpools/wasnorm_wordpool_576.txt	LTP269	ltpFR2	16	5	PAIL	1002	n/a	n/a	0	0	0
799191	WORD	wordpools/wasnorm_wordpool_576.txt	LTP269	ltpFR2	16	5	SUSPECT	1415	n/a	n/a	0	0	0
801676	WORD	wordpools/wasnorm_wordpool_576.txt	LTP269	ltpFR2	16	5	TROMBONE	1508	n/a	n/a	0	0	0
804361	WORD	wordpools/wasnorm_wordpool_576.txt	LTP269	ltpFR2	16	5	BUBBLE	183	n/a	n/a	0	0	0
806953	WORD	wordpools/wasnorm_wordpool_576.txt	LTP269	ltpFR2	16	5	SHOVEL	1295	n/a	n/a	0	0	0
809471	WORD	wordpools/wasnorm_wordpool_576.txt	LTP269	ltpFR2	16	5	ISLAND	745	n/a	n/a	0	0	0
812055	WORD	wordpools/wasnorm_wordpool_576.txt	LTP269	ltpFR2	16	5	FLUTE	585	n/a	n/a	0	0	0
814760	WORD	wordpools/wasnorm_wordpool_576.txt	LTP269	ltpFR2	16	5	GIFT	635	n/a	n/a	0	0	0
817362	WORD	wordpools/wasnorm_wordpool_576.txt	LTP269	ltpFR2	16	5	NOVEL	960	n/a	n/a	0	0	0
819797	WORD	wordpools/wasnorm_wordpool_576.txt	LTP269	ltpFR2	16	5	FRAGRANCE	599	n/a	n/a	0	0	0
822276	WORD	wordpools/wasnorm_wordpool_576.txt	LTP269	ltpFR2	16	5	CORAL	378	n/a	n/a	0	0	0
824735	WORD	wordpools/wasnorm_wordpool_576.txt	LTP269	ltpFR2	16	5	PALACE	1006	n/a	n/a	0	0	0
827481	WORD	wordpools/wasnorm_wordpool_576.txt	LTP269	ltpFR2	16	5	THRONE	1461	n/a	n/a	0	0	0
829940	WORD	wordpools/wasnorm_wordpool_576.txt	LTP269	ltpFR2	16	5	CHAPEL	280	n/a	n/a	0	0	0
831551	START	n/a	LTP269	ltpFR2	16	n/a	n/a	n/a	5	n/a	n/a	n/a	n/a
832429	DISTRACTOR	n/a	LTP269	ltpFR2	16	5	n/a	n/a	n/a	n/a	0	0	0
832434	PROB	n/a	LTP269	ltpFR2	16	n/a	n/a	n/a	5	18	2	9	7
835435	PROB	n/a	LTP269	ltpFR2	16	n/a	n/a	n/a	5	11	9	1	1
836653	PROB	n/a	LTP269	ltpFR2	16	n/a	n/a	n/a	5	22	6	7	9
838641	PROB	n/a	LTP269	ltpFR2	16	n/a	n/a	n/a	5	18	5	8	5
840339	PROB	n/a	LTP269	ltpFR2	16	n/a	n/a	n/a	5	14	2	8	4
841958	PROB	n/a	LTP269	ltpFR2	16	n/a	n/a	n/a	5	8	5	1	2
843642	PROB	n/a	LTP269	ltpFR2	16	n/a	n/a	n/a	5	11	1	2	8
845011	PROB	n/a	LTP269	ltpFR2	16	n/a	n/a	n/a	5	24	9	9	6
847345	PROB	n/a	LTP269	ltpFR2	16	n/a	n/a	n/a	5	6	1	1	4
848864	PROB	n/a	LTP269	ltpFR2	16	n/a	n/a	n/a	5	12	6	5	1
849981	PROB	n/a	LTP269	ltpFR2	16	n/a	n/a	n/a	5	8	2	4	2
851849	PROB	n/a	LTP269	ltpFR2	16	n/a	n/a	n/a	5	16	5	2	9
854944	STOP	n/a	LTP269	ltpFR2	16	n/a	n/a	n/a	5	n/a	n/a	n/a	n/a
857470	REC_START	n/a	LTP269	ltpFR2	16	5	n/a	n/a	n/a	n/a	0	0	0
898626	REC_WORD	wordpools/wasnorm_wordpool_576.txt	LTP269	ltpFR2	16	5	GRAVEL	659	n/a	n/a	0	0	0
899759	REC_WORD	wordpools/wasnorm_wordpool_576.txt	LTP269	ltpFR2	16	5	TEMPLE	1448	n/a	n/a	0	0	0
900431	REC_WORD	wordpools/wasnorm_wordpool_576.txt	LTP269	ltpFR2	16	5	CHAPEL	280	n/a	n/a	0	0	0
902613	REC_WORD	wordpools/wasnorm_wordpool_576.txt	LTP269	ltpFR2	16	5	PICNIC	1060	n/a	n/a	0	0	0
906522	REC_WORD	wordpools/wasnorm_wordpool_576.txt	LTP269	ltpFR2	16	5	SUITCASE	1403	n/a	n/a	0	0	0
906958	REC_WORD	wordpools/wasnorm_wordpool_576.txt	LTP269	ltpFR2	16	5	SHOVEL	1295	n/a	n/a	0	0	0
907497	REC_WORD	wordpools/wasnorm_wordpool_576.txt	LTP269	ltpFR2	16	5	KNAPSACK	783	n/a	n/a	0	0	0
909380	REC_WORD	wordpools/wasnorm_wordpool_576.txt	LTP269	ltpFR2	16	5	ISLAND	745	n/a	n/a	0	0	0
910018	REC_WORD	wordpools/wasnorm_wordpool_576.txt	LTP269	ltpFR2	16	5	FLUTE	585	n/a	n/a	0	0	0
910818	REC_WORD	wordpools/wasnorm_wordpool_576.txt	LTP269	ltpFR2	16	5	GIFT	635	n/a	n/a	0	0	0
911599	REC_WORD	wordpools/wasnorm_wordpool_576.txt	LTP269	ltpFR2	16	5	NOVEL	960	n/a	n/a	0	0	0
947959	WORD	wordpools/wasnorm_wordpool_576.txt	LTP269	ltpFR2	16	6	RADISH	1158	n/a	n/a	0	0	0
950628	WORD	wordpools/wasnorm_wordpool_576.txt	LTP269	ltpFR2	16	6	JEANS	752	n/a	n/a	0	0	0
953095	WORD	wordpools/wasnorm_wordpool_576.txt	LTP269	ltpFR2	16	6	CHEMIST	292	n/a	n/a	0	0	0
955701	WORD	wordpools/wasnorm_wordpool_576.txt	LTP269	ltpFR2	16	6	FLASK	576	n/a	n/a	0	0	0
958218	WORD	wordpools/wasnorm_wordpool_576.txt	LTP269	ltpFR2	16	6	DRINK	498	n/a	n/a	0	0	0
960937	WORD	wordpools/wasnorm_wordpool_576.txt	LTP269	ltpFR2	16	6	SCARF	1246	n/a	n/a	0	0	0
963422	WORD	wordpools/wasnorm_wordpool_576.txt	LTP269	ltpFR2	16	6	LOFT	840	n/a	n/a	0	0	0
965941	WORD	wordpools/wasnorm_wordpool_576.txt	LTP269	ltpFR2	16	6	JELLY	755	n/a	n/a	0	0	0
968494	WORD	wordpools/wasnorm_wordpool_576.txt	LTP269	ltpFR2	16	6	MILDEW	893	n/a	n/a	0	0	0
971196	WORD	wordpools/wasnorm_wordpool_576.txt	LTP269	ltpFR2	16	6	CITRUS	313	n/a	n/a	0	0	0
973714	WORD	wordpools/wasnorm_wordpool_576.txt	LTP269	ltpFR2	16	6	LUMBER	848	n/a	n/a	0	0	0
976266	WORD	wordpools/wasnorm_wordpool_576.txt	LTP269	ltpFR2	16	6	WRIST	1626	n/a	n/a	0	0	0
979068	WORD	wordpools/wasnorm_wordpool_576.txt	LTP269	ltpFR2	16	6	MEDAL	885	n/a	n/a	0	0	0
981521	WORD	wordpools/wasnorm_wordpool_576.txt	LTP269	ltpFR2	16	6	NURSE	963	n/a	n/a	0	0	0
984156	WORD	wordpools/wasnorm_wordpool_576.txt	LTP269	ltpFR2	16	6	WIDOW	1608	n/a	n/a	0	0	0
986942	WORD	wordpools/wasnorm_wordpool_576.txt	LTP269	ltpFR2	16	6	CATTLE	261	n/a	n/a	0	0	0
989544	WORD	wordpools/wasnorm_wordpool_576.txt	LTP269	ltpFR2	16	6	OFFICE	972	n/a	n/a	0	0	0
992128	WORD	wordpools/wasnorm_wordpool_576.txt	LTP269	ltpFR2	16	6	STOMACH	1384	n/a	n/a	0	0	0
994750	WORD	wordpools/wasnorm_wordpool_576.txt	LTP269	ltpFR2	16	6	ZIPPER	1636	n/a	n/a	0	0	0
997517	WORD	wordpools/wasnorm_wordpool_576.txt	LTP269	ltpFR2	16	6	OINTMENT	974	n/a	n/a	0	0	0
1000169	WORD	wordpools/wasnorm_wordpool_576.txt	LTP269	ltpFR2	16	6	CABBAGE	210	n/a	n/a	0	0	0
1002955	WORD	wordpools/wasnorm_wordpool_576.txt	LTP269	ltpFR2	16	6	BUREAU	199	n/a	n/a	0	0	0
1005490	WORD	wordpools/wasnorm_wordpool_576.txt	LTP269	ltpFR2	16	6	DRESSER	496	n/a	n/a	0	0	0
1008276	WORD	wordpools/wasnorm_wordpool_576.txt	LTP269	ltpFR2	16	6	TOMBSTONE	1478	n/a	n/a	0	0	0
1009895	START	n/a	LTP269	ltpFR2	16	n/a	n/a	n/a	6	n/a	n/a	n/a	n/a
1011082	DISTRACTOR	n/a	LTP269	ltpFR2	16	6	n/a	n/a	n/a	n/a	0	0	0
1011094	PROB	n/a	LTP269	ltpFR2	16	n/a	n/a	n/a	6	17	7	9	1
1012728	PROB	n/a	LTP269	ltpFR2	16	n/a	n/a	n/a	6	16	6	1	9
1014213	PROB	n/a	LTP269	ltpFR2	16	n/a	n/a	n/a	6	15	4	2	9
1016014	PROB	n/a	LTP269	ltpFR2	16	n/a	n/a	n/a	6	13	1	8	4
1017365	PROB	n/a	LTP269	ltpFR2	16	n/a	n/a	n/a	6	9	7	1	1
1018484	PROB	n/a	LTP269	ltpFR2	16	n/a	n/a	n/a	6	15	6	3	6
1020132	PROB	n/a	LTP269	ltpFR2	16	n/a	n/a	n/a	6	17	6	5	6
1022101	PROB	n/a	LTP269	ltpFR2	16	n/a	n/a	n/a	6	14	4	1	9
1023554	PROB	n/a	LTP269	ltpFR2	16	n/a	n/a	n/a	6	14	5	3	6
1026022	PROB	n/a	LTP269	ltpFR2	16	n/a	n/a	n/a	6	22	8	7	7
1031092	PROB	n/a	LTP269	ltpFR2	16	n/a	n/a	n/a	6	21	7	7	7
1032109	PROB	n/a	LTP269	ltpFR2	16	n/a	n/a	n/a	6	3	1	1	1
1033479	STOP	n/a	LTP269	ltpFR2	16	n/a	n/a	n/a	6	n/a	n/a	n/a	n/a
1035796	REC_START	n/a	LTP269	ltpFR2	16	6	n/a	n/a	n/a	n/a	0	0	0
1038834	REC_WORD	wordpools/wasnorm_wordpool_576.txt	LTP269	ltpFR2	16	6	RADISH	1158	n/a	n/a	0	0	0
1039279	REC_WORD	wordpools/wasnorm_wordpool_576.txt	LTP269	ltpFR2	16	6	JEANS	752	n/a	n/a	0	0	0
1041026	REC_WORD	wordpools/wasnorm_wordpool_576.txt	LTP269	ltpFR2	16	6	CHEMIST	292	n/a	n/a	0	0	0
1042029	REC_WORD	wordpools/wasnorm_wordpool_576.txt	LTP269	ltpFR2	16	6	FLASK	576	n/a	n/a	0	0	0
1042790	REC_WORD	wordpools/wasnorm_wordpool_576.txt	LTP269	ltpFR2	16	6	DRINK	498	n/a	n/a	0	0	0
1043852	REC_WORD	wordpools/wasnorm_wordpool_576.txt	LTP269	ltpFR2	16	6	SCARF	1246	n/a	n/a	0	0	0
1045263	REC_WORD	wordpools/wasnorm_wordpool_576.txt	LTP269	ltpFR2	16	6	LOFT	840	n/a	n/a	0	0	0
1046088	REC_WORD	wordpools/wasnorm_wordpool_576.txt	LTP269	ltpFR2	16	6	JELLY	755	n/a	n/a	0	0	0
1047465	REC_WORD	wordpools/wasnorm_wordpool_576.txt	LTP269	ltpFR2	16	6	MILDEW	893	n/a	n/a	0	0	0
1048829	REC_WORD	wordpools/wasnorm_wordpool_576.txt	LTP269	ltpFR2	16	6	CITRUS	313	n/a	n/a	0	0	0
1050382	REC_WORD	wordpools/wasnorm_wordpool_576.txt	LTP269	ltpFR2	16	6	LUMBER	848	n/a	n/a	0	0	0
1052160	REC_WORD	wordpools/wasnorm_wordpool_576.txt	LTP269	ltpFR2	16	6	OFFICE	972	n/a	n/a	0	0	0
1052782	REC_WORD	wordpools/wasnorm_wordpool_576.txt	LTP269	ltpFR2	16	6	CATTLE	261	n/a	n/a	0	0	0
1055535	REC_WORD	wordpools/wasnorm_wordpool_576.txt	LTP269	ltpFR2	16	6	WIDOW	1608	n/a	n/a	0	0	0
1057137	REC_WORD	wordpools/wasnorm_wordpool_576.txt	LTP269	ltpFR2	16	6	NURSE	963	n/a	n/a	0	0	0
1063481	REC_WORD	wordpools/wasnorm_wordpool_576.txt	LTP269	ltpFR2	16	6	STOMACH	1384	n/a	n/a	0	0	0
1070640	REC_WORD	wordpools/wasnorm_wordpool_576.txt	LTP269	ltpFR2	16	6	CABBAGE	210	n/a	n/a	0	0	0
1126221	DISTRACTOR	n/a	LTP269	ltpFR2	16	7	n/a	n/a	n/a	n/a	0	0	0
1126221	START	n/a	LTP269	ltpFR2	16	n/a	n/a	n/a	7	n/a	n/a	n/a	n/a
1126235	PROB	n/a	LTP269	ltpFR2	16	n/a	n/a	n/a	7	20	6	9	5
1128255	PROB	n/a	LTP269	ltpFR2	16	n/a	n/a	n/a	7	13	7	5	1
1130172	PROB	n/a	LTP269	ltpFR2	16	n/a	n/a	n/a	7	18	7	5	6
1132991	PROB	n/a	LTP269	ltpFR2	16	n/a	n/a	n/a	7	9	3	1	5
1134192	PROB	n/a	LTP269	ltpFR2	16	n/a	n/a	n/a	7	19	9	4	6
1136544	PROB	n/a	LTP269	ltpFR2	16	n/a	n/a	n/a	7	9	3	5	1
1138157	PROB	n/a	LTP269	ltpFR2	16	n/a	n/a	n/a	7	3	1	1	1
1139346	PROB	n/a	LTP269	ltpFR2	16	n/a	n/a	n/a	7	21	5	7	9
1141565	PROB	n/a	LTP269	ltpFR2	16	n/a	n/a	n/a	7	19	6	9	4
1143502	PROB	n/a	LTP269	ltpFR2	16	n/a	n/a	n/a	7	14	4	7	3
1145952	PROB	n/a	LTP269	ltpFR2	16	n/a	n/a	n/a	7	19	9	7	3
1147004	PROB	n/a	LTP269	ltpFR2	16	n/a	n/a	n/a	7	9	1	7	1
1148187	PROB	n/a	LTP269	ltpFR2	16	n/a	n/a	n/a	7	9	3	1	5
1149852	STOP	n/a	LTP269	ltpFR2	16	n/a	n/a	n/a	7	n/a	n/a	n/a	n/a
1151052	WORD	wordpools/wasnorm_wordpool_576.txt	LTP269	ltpFR2	16	7	TROUT	1511	n/a	n/a	0	0	0
1153505	WORD	wordpools/wasnorm_wordpool_576.txt	LTP269	ltpFR2	16	7	IGLOO	734	n/a	n/a	0	0	0
1156224	WORD	wordpools/wasnorm_wordpool_576.txt	LTP269	ltpFR2	16	7	PASTA	1021	n/a	n/a	0	0	0
1158813	WORD	wordpools/wasnorm_wordpool_576.txt	LTP269	ltpFR2	16	7	KEEPER	769	n/a	n/a	0	0	0
1161395	WORD	wordpools/wasnorm_wordpool_576.txt	LTP269	ltpFR2	16	7	GLOBE	641	n/a	n/a	0	0	0
1163980	WORD	wordpools/wasnorm_wordpool_576.txt	LTP269	ltpFR2	16	7	GROUND	666	n/a	n/a	0	0	0
1166750	WORD	wordpools/wasnorm_wordpool_576.txt	LTP269	ltpFR2	16	7	POLICE	1098	n/a	n/a	0	0	0
1169335	WORD	wordpools/wasnorm_wordpool_576.txt	LTP269	ltpFR2	16	7	CONCERT	360	n/a	n/a	0	0	0
1172120	WORD	wordpools/wasnorm_wordpool_576.txt	LTP269	ltpFR2	16	7	MONSTER	912	n/a	n/a	0	0	0
1174790	WORD	wordpools/wasnorm_wordpool_576.txt	LTP269	ltpFR2	16	7	GOBLIN	645	n/a	n/a	0	0	0
1177226	WORD	wordpools/wasnorm_wordpool_576.txt	LTP269	ltpFR2	16	7	FRIAR	605	n/a	n/a	0	0	0
1179945	WORD	wordpools/wasnorm_wordpool_576.txt	LTP269	ltpFR2	16	7	HAND	683	n/a	n/a	0	0	0
1182413	WORD	wordpools/wasnorm_wordpool_576.txt	LTP269	ltpFR2	16	7	HAMPER	682	n/a	n/a	0	0	0
1184899	WORD	wordpools/wasnorm_wordpool_576.txt	LTP269	ltpFR2	16	7	PATROL	1027	n/a	n/a	0	0	0
1187334	WORD	wordpools/wasnorm_wordpool_576.txt	LTP269	ltpFR2	16	7	SEAL	1262	n/a	n/a	0	0	0
1189836	WORD	wordpools/wasnorm_wordpool_576.txt	LTP269	ltpFR2	16	7	BRICK	172	n/a	n/a	0	0	0
1192272	WORD	wordpools/wasnorm_wordpool_576.txt	LTP269	ltpFR2	16	7	SHRUB	1299	n/a	n/a	0	0	0
1195008	WORD	wordpools/wasnorm_wordpool_576.txt	LTP269	ltpFR2	16	7	PACKAGE	997	n/a	n/a	0	0	0
1197493	WORD	wordpools/wasnorm_wordpool_576.txt	LTP269	ltpFR2	16	7	CLAM	315	n/a	n/a	0	0	0
1200027	WORD	wordpools/wasnorm_wordpool_576.txt	LTP269	ltpFR2	16	7	LILY	821	n/a	n/a	0	0	0
1202798	WORD	wordpools/wasnorm_wordpool_576.txt	LTP269	ltpFR2	16	7	FLOWER	584	n/a	n/a	0	0	0
1205567	WORD	wordpools/wasnorm_wordpool_576.txt	LTP269	ltpFR2	16	7	AGENT	10	n/a	n/a	0	0	0
1208169	WORD	wordpools/wasnorm_wordpool_576.txt	LTP269	ltpFR2	16	7	CLOTHES	327	n/a	n/a	0	0	0
1210721	WORD	wordpools/wasnorm_wordpool_576.txt	LTP269	ltpFR2	16	7	PRINCESS	1125	n/a	n/a	0	0	0
1212340	START	n/a	LTP269	ltpFR2	16	n/a	n/a	n/a	8	n/a	n/a	n/a	n/a
1213164	DISTRACTOR	n/a	LTP269	ltpFR2	16	7	n/a	n/a	n/a	n/a	0	0	0
1213173	PROB	n/a	LTP269	ltpFR2	16	n/a	n/a	n/a	8	24	7	9	8
1217141	PROB	n/a	LTP269	ltpFR2	16	n/a	n/a	n/a	8	17	7	2	8
1219260	PROB	n/a	LTP269	ltpFR2	16	n/a	n/a	n/a	8	19	7	5	7
1220612	PROB	n/a	LTP269	ltpFR2	16	n/a	n/a	n/a	8	21	3	9	9
1222329	PROB	n/a	LTP269	ltpFR2	16	n/a	n/a	n/a	8	17	3	7	7
1223882	PROB	n/a	LTP269	ltpFR2	16	n/a	n/a	n/a	8	9	2	1	5
1225683	PROB	n/a	LTP269	ltpFR2	16	n/a	n/a	n/a	8	13	1	8	4
1228820	PROB	n/a	LTP269	ltpFR2	16	n/a	n/a	n/a	8	17	3	6	8
1230655	PROB	n/a	LTP269	ltpFR2	16	n/a	n/a	n/a	8	18	5	4	9
1231954	PROB	n/a	LTP269	ltpFR2	16	n/a	n/a	n/a	8	18	4	7	7
1233623	PROB	n/a	LTP269	ltpFR2	16	n/a	n/a	n/a	8	11	2	5	4
1235455	STOP	n/a	LTP269	ltpFR2	16	n/a	n/a	n/a	8	n/a	n/a	n/a	n/a
1238226	REC_START	n/a	LTP269	ltpFR2	16	7	n/a	n/a	n/a	n/a	0	0	0
1239922	REC_WORD	wordpools/wasnorm_wordpool_576.txt	LTP269	ltpFR2	16	7	IGLOO	734	n/a	n/a	0	0	0
1240476	REC_WORD	wordpools/wasnorm_wordpool_576.txt	LTP269	ltpFR2	16	7	TROUT	1511	n/a	n/a	0	0	0
1242326	REC_WORD	wordpools/wasnorm_wordpool_576.txt	LTP269	ltpFR2	16	7	TULIP	1517	n/a	n/a	0	0	0
1243775	REC_WORD	wordpools/wasnorm_wordpool_576.txt	LTP269	ltpFR2	16	7	LILY	821	n/a	n/a	0	0	0
1244177	REC_WORD	wordpools/wasnorm_wordpool_576.txt	LTP269	ltpFR2	16	7	FLOWER	584	n/a	n/a	0	0	0
1245009	REC_WORD_VV	wordpools/wasnorm_wordpool_576.txt	LTP269	ltpFR2	16	7	<>	-1	n/a	n/a	0	0	0
1245213	REC_WORD	wordpools/wasnorm_wordpool_576.txt	LTP269	ltpFR2	16	7	TULIP	1517	n/a	n/a	0	0	0
1247751	REC_WORD	wordpools/wasnorm_wordpool_576.txt	LTP269	ltpFR2	16	7	LILY	821	n/a	n/a	0	0	0
1248007	REC_WORD	wordpools/wasnorm_wordpool_576.txt	LTP269	ltpFR2	16	7	FLOWER	584	n/a	n/a	0	0	0
1252717	REC_WORD	wordpools/wasnorm_wordpool_576.txt	LTP269	ltpFR2	16	7	KEEPER	769	n/a	n/a	0	0	0
1253983	REC_WORD	wordpools/wasnorm_wordpool_576.txt	LTP269	ltpFR2	16	7	GROUND	666	n/a	n/a	0	0	0
1257128	REC_WORD	wordpools/wasnorm_wordpool_576.txt	LTP269	ltpFR2	16	7	POLICE	1098	n/a	n/a	0	0	0
1259296	REC_WORD	wordpools/wasnorm_wordpool_576.txt	LTP269	ltpFR2	16	7	PATROL	1027	n/a	n/a	0	0	0
1260707	REC_WORD	wordpools/wasnorm_wordpool_576.txt	LTP269	ltpFR2	16	7	HAMPER	682	n/a	n/a	0	0	0
1261143	REC_WORD	wordpools/wasnorm_wordpool_576.txt	LTP269	ltpFR2	16	7	CLOTHES	327	n/a	n/a	0	0	0
1264757	REC_WORD	wordpools/wasnorm_wordpool_576.txt	LTP269	ltpFR2	16	7	CLAM	315	n/a	n/a	0	0	0
1266163	REC_WORD	wordpools/wasnorm_wordpool_576.txt	LTP269	ltpFR2	16	7	SEAL	1262	n/a	n/a	0	0	0
1267363	REC_WORD	wordpools/wasnorm_wordpool_576.txt	LTP269	ltpFR2	16	7	BRICK	172	n/a	n/a	0	0	0
1269677	REC_WORD	wordpools/wasnorm_wordpool_576.txt	LTP269	ltpFR2	16	7	SHRUB	1299	n/a	n/a	0	0	0
1270346	REC_WORD	wordpools/wasnorm_wordpool_576.txt	LTP269	ltpFR2	16	7	PACKAGE	997	n/a	n/a	0	0	0
1273296	REC_WORD	wordpools/wasnorm_wordpool_576.txt	LTP269	ltpFR2	16	7	CONCERT	360	n/a	n/a	0	0	0
1273855	REC_WORD	wordpools/wasnorm_wordpool_576.txt	LTP269	ltpFR2	16	7	MONSTER	912	n/a	n/a	0	0	0
1274747	REC_WORD	wordpools/wasnorm_wordpool_576.txt	LTP269	ltpFR2	16	7	GOBLIN	645	n/a	n/a	0	0	0
1277262	REC_WORD	wordpools/wasnorm_wordpool_576.txt	LTP269	ltpFR2	16	7	HAND	683	n/a	n/a	0	0	0
1277966	REC_WORD	wordpools/wasnorm_wordpool_576.txt	LTP269	ltpFR2	16	7	FRIAR	605	n/a	n/a	0	0	0
1328650	DISTRACTOR	n/a	LTP269	ltpFR2	16	8	n/a	n/a	n/a	n/a	0	0	0
1328650	START	n/a	LTP269	ltpFR2	16	n/a	n/a	n/a	9	n/a	n/a	n/a	n/a
1328666	PROB	n/a	LTP269	ltpFR2	16	n/a	n/a	n/a	9	16	1	6	9
1330333	PROB	n/a	LTP269	ltpFR2	16	n/a	n/a	n/a	9	20	9	4	7
1333018	PROB	n/a	LTP269	ltpFR2	16	n/a	n/a	n/a	9	22	5	9	8
1335689	PROB	n/a	LTP269	ltpFR2	16	n/a	n/a	n/a	9	15	8	1	6
1336905	PROB	n/a	LTP269	ltpFR2	16	n/a	n/a	n/a	9	15	3	6	6
1338791	PROB	n/a	LTP269	ltpFR2	16	n/a	n/a	n/a	9	15	9	3	3
1340708	PROB	n/a	LTP269	ltpFR2	16	n/a	n/a	n/a	9	14	2	9	3
1342660	PROB	n/a	LTP269	ltpFR2	16	n/a	n/a	n/a	9	13	5	7	1
1344011	PROB	n/a	LTP269	ltpFR2	16	n/a	n/a	n/a	9	16	5	4	7
1346062	PROB	n/a	LTP269	ltpFR2	16	n/a	n/a	n/a	9	23	8	6	9
1348063	PROB	n/a	LTP269	ltpFR2	16	n/a	n/a	n/a	9	10	1	4	5
1349698	PROB	n/a	LTP269	ltpFR2	16	n/a	n/a	n/a	9	15	6	5	4
1351300	STOP	n/a	LTP269	ltpFR2	16	n/a	n/a	n/a	9	n/a	n/a	n/a	n/a
1353637	WORD	wordpools/wasnorm_wordpool_576.txt	LTP269	ltpFR2	16	8	SHELF	1280	n/a	n/a	0	0	0
1356114	WORD	wordpools/wasnorm_wordpool_576.txt	LTP269	ltpFR2	16	8	PASSAGE	1019	n/a	n/a	0	0	0
1358574	WORD	wordpools/wasnorm_wordpool_576.txt	LTP269	ltpFR2	16	8	MARKET	871	n/a	n/a	0	0	0
1361135	WORD	wordpools/wasnorm_wordpool_576.txt	LTP269	ltpFR2	16	8	CAPTIVE	240	n/a	n/a	0	0	0
1363789	WORD	wordpools/wasnorm_wordpool_576.txt	LTP269	ltpFR2	16	8	SODA	1341	n/a	n/a	0	0	0
1366547	WORD	wordpools/wasnorm_wordpool_576.txt	LTP269	ltpFR2	16	8	SIBLING	1301	n/a	n/a	0	0	0
1369108	WORD	wordpools/wasnorm_wordpool_576.txt	LTP269	ltpFR2	16	8	NIGHTGOWN	953	n/a	n/a	0	0	0
1371734	WORD	wordpools/wasnorm_wordpool_576.txt	LTP269	ltpFR2	16	8	TYPIST	1532	n/a	n/a	0	0	0
1374498	WORD	wordpools/wasnorm_wordpool_576.txt	LTP269	ltpFR2	16	8	ATLAS	53	n/a	n/a	0	0	0
1377199	WORD	wordpools/wasnorm_wordpool_576.txt	LTP269	ltpFR2	16	8	GRILL	661	n/a	n/a	0	0	0
1379674	WORD	wordpools/wasnorm_wordpool_576.txt	LTP269	ltpFR2	16	8	BELLY	119	n/a	n/a	0	0	0
1382120	WORD	wordpools/wasnorm_wordpool_576.txt	LTP269	ltpFR2	16	8	CANAL	226	n/a	n/a	0	0	0
1384873	WORD	wordpools/wasnorm_wordpool_576.txt	LTP269	ltpFR2	16	8	WORLD	1622	n/a	n/a	0	0	0
1387659	WORD	wordpools/wasnorm_wordpool_576.txt	LTP269	ltpFR2	16	8	HAWK	692	n/a	n/a	0	0	0
1390428	WORD	wordpools/wasnorm_wordpool_576.txt	LTP269	ltpFR2	16	8	AIRPLANE	12	n/a	n/a	0	0	0
1392931	WORD	wordpools/wasnorm_wordpool_576.txt	LTP269	ltpFR2	16	8	AUTHOR	61	n/a	n/a	0	0	0
1395450	WORD	wordpools/wasnorm_wordpool_576.txt	LTP269	ltpFR2	16	8	BOX	159	n/a	n/a	0	0	0
1397934	WORD	wordpools/wasnorm_wordpool_576.txt	LTP269	ltpFR2	16	8	GRIZZLY	662	n/a	n/a	0	0	0
1400454	WORD	wordpools/wasnorm_wordpool_576.txt	LTP269	ltpFR2	16	8	COLONEL	348	n/a	n/a	0	0	0
1403138	WORD	wordpools/wasnorm_wordpool_576.txt	LTP269	ltpFR2	16	8	ARMY	39	n/a	n/a	0	0	0
1405912	WORD	wordpools/wasnorm_wordpool_576.txt	LTP269	ltpFR2	16	8	FLIPPER	580	n/a	n/a	0	0	0
1408460	WORD	wordpools/wasnorm_wordpool_576.txt	LTP269	ltpFR2	16	8	VIRUS	1572	n/a	n/a	0	0	0
1410996	WORD	wordpools/wasnorm_wordpool_576.txt	LTP269	ltpFR2	16	8	LIVER	833	n/a	n/a	0	0	0
1413565	WORD	wordpools/wasnorm_wordpool_576.txt	LTP269	ltpFR2	16	8	BROTHER	179	n/a	n/a	0	0	0
1415170	START	n/a	LTP269	ltpFR2	16	n/a	n/a	n/a	10	n/a	n/a	n/a	n/a
1416311	DISTRACTOR	n/a	LTP269	ltpFR2	16	8	n/a	n/a	n/a	n/a	0	0	0
1416317	PROB	n/a	LTP269	ltpFR2	16	n/a	n/a	n/a	10	17	5	9	3
1417819	PROB	n/a	LTP269	ltpFR2	16	n/a	n/a	n/a	10	18	7	2	9
1419302	PROB	n/a	LTP269	ltpFR2	16	n/a	n/a	n/a	10	18	8	9	1
1421420	PROB	n/a	LTP269	ltpFR2	16	n/a	n/a	n/a	10	11	4	6	1
1422824	PROB	n/a	LTP269	ltpFR2	16	n/a	n/a	n/a	10	11	4	5	2
1424290	PROB	n/a	LTP269	ltpFR2	16	n/a	n/a	n/a	10	13	3	1	9
1425642	PROB	n/a	LTP269	ltpFR2	16	n/a	n/a	n/a	10	24	9	8	7
1427694	PROB	n/a	LTP269	ltpFR2	16	n/a	n/a	n/a	10	16	7	4	5
1429678	PROB	n/a	LTP269	ltpFR2	16	n/a	n/a	n/a	10	7	2	2	4
1431282	PROB	n/a	LTP269	ltpFR2	16	n/a	n/a	n/a	10	15	1	8	6
1433616	PROB	n/a	LTP269	ltpFR2	16	n/a	n/a	n/a	10	20	6	9	5
1436353	PROB	n/a	LTP269	ltpFR2	16	n/a	n/a	n/a	10	11	5	1	5
1437487	PROB	n/a	LTP269	ltpFR2	16	n/a	n/a	n/a	10	10	7	1	2
1438984	STOP	n/a	LTP269	ltpFR2	16	n/a	n/a	n/a	10	n/a	n/a	n/a	n/a
1440974	REC_START	n/a	LTP269	ltpFR2	16	8	n/a	n/a	n/a	n/a	0	0	0
1444339	REC_WORD	wordpools/wasnorm_wordpool_576.txt	LTP269	ltpFR2	16	8	SHELF	1280	n/a	n/a	0	0	0
1445057	REC_WORD	wordpools/wasnorm_wordpool_576.txt	LTP269	ltpFR2	16	8	PASSAGE	1019	n/a	n/a	0	0	0
1445800	REC_WORD	wordpools/wasnorm_wordpool_576.txt	LTP269	ltpFR2	16	8	MARKET	871	n/a	n/a	0	0	0
1447810	REC_WORD	wordpools/wasnorm_wordpool_576.txt	LTP269	ltpFR2	16	8	CAPTIVE	240	n/a	n/a	0	0	0
1449519	REC_WORD	wordpools/wasnorm_wordpool_576.txt	LTP269	ltpFR2	16	8	SIBLING	1301	n/a	n/a	0	0	0
1450204	REC_WORD	wordpools/wasnorm_wordpool_576.txt	LTP269	ltpFR2	16	8	SIBLING	1301	n/a	n/a	0	0	0
1451017	REC_WORD	wordpools/wasnorm_wordpool_576.txt	LTP269	ltpFR2	16	8	SODA	1341	n/a	n/a	0	0	0
1453297	REC_WORD	wordpools/wasnorm_wordpool_576.txt	LTP269	ltpFR2	16	8	GRILL	661	n/a	n/a	0	0	0
1454967	REC_WORD	wordpools/wasnorm_wordpool_576.txt	LTP269	ltpFR2	16	8	BELLY	119	n/a	n/a	0	0	0
1459782	REC_WORD	wordpools/wasnorm_wordpool_576.txt	LTP269	ltpFR2	16	8	CANAL	226	n/a	n/a	0	0	0
1461272	REC_WORD	wordpools/wasnorm_wordpool_576.txt	LTP269	ltpFR2	16	8	ARMY	39	n/a	n/a	0	0	0
1461865	REC_WORD	wordpools/wasnorm_wordpool_576.txt	LTP269	ltpFR2	16	8	COLONEL	348	n/a	n/a	0	0	0
1463534	REC_WORD	wordpools/wasnorm_wordpool_576.txt	LTP269	ltpFR2	16	8	VIRUS	1572	n/a	n/a	0	0	0
1464331	REC_WORD	wordpools/wasnorm_wordpool_576.txt	LTP269	ltpFR2	16	8	LIVER	833	n/a	n/a	0	0	0
1465621	REC_WORD	wordpools/wasnorm_wordpool_576.txt	LTP269	ltpFR2	16	8	BROTHER	179	n/a	n/a	0	0	0
1517501	REST_REWET	n/a	LTP269	ltpFR2	16	8	n/a	n/a	n/a	n/a	0	0	0
1733907	WORD	wordpools/wasnorm_wordpool_576.txt	LTP269	ltpFR2	16	9	PECAN	1036	n/a	n/a	0	0	0
1736481	WORD	wordpools/wasnorm_wordpool_576.txt	LTP269	ltpFR2	16	9	SILK	1307	n/a	n/a	0	0	0
1738979	WORD	wordpools/wasnorm_wordpool_576.txt	LTP269	ltpFR2	16	9	BANKER	84	n/a	n/a	0	0	0
1741485	WORD	wordpools/wasnorm_wordpool_576.txt	LTP269	ltpFR2	16	9	FARMER	553	n/a	n/a	0	0	0
1743984	WORD	wordpools/wasnorm_wordpool_576.txt	LTP269	ltpFR2	16	9	HUSBAND	728	n/a	n/a	0	0	0
1746539	WORD	wordpools/wasnorm_wordpool_576.txt	LTP269	ltpFR2	16	9	HERO	706	n/a	n/a	0	0	0
1749004	WORD	wordpools/wasnorm_wordpool_576.txt	LTP269	ltpFR2	16	9	PEBBLE	1035	n/a	n/a	0	0	0
1751611	WORD	wordpools/wasnorm_wordpool_576.txt	LTP269	ltpFR2	16	9	LAVA	804	n/a	n/a	0	0	0
1754140	WORD	wordpools/wasnorm_wordpool_576.txt	LTP269	ltpFR2	16	9	AWARD	63	n/a	n/a	0	0	0
1756677	WORD	wordpools/wasnorm_wordpool_576.txt	LTP269	ltpFR2	16	9	TWIG	1527	n/a	n/a	0	0	0
1759212	WORD	wordpools/wasnorm_wordpool_576.txt	LTP269	ltpFR2	16	9	DANDRUFF	439	n/a	n/a	0	0	0
1762030	WORD	wordpools/wasnorm_wordpool_576.txt	LTP269	ltpFR2	16	9	YACHT	1629	n/a	n/a	0	0	0
1764666	WORD	wordpools/wasnorm_wordpool_576.txt	LTP269	ltpFR2	16	9	BACKBONE	66	n/a	n/a	0	0	0
1767173	WORD	wordpools/wasnorm_wordpool_576.txt	LTP269	ltpFR2	16	9	LACE	792	n/a	n/a	0	0	0
1769754	WORD	wordpools/wasnorm_wordpool_576.txt	LTP269	ltpFR2	16	9	SPOUSE	1358	n/a	n/a	0	0	0
1772506	WORD	wordpools/wasnorm_wordpool_576.txt	LTP269	ltpFR2	16	9	ITEM	746	n/a	n/a	0	0	0
1775063	WORD	wordpools/wasnorm_wordpool_576.txt	LTP269	ltpFR2	16	9	DINER	467	n/a	n/a	0	0	0
1777627	WORD	wordpools/wasnorm_wordpool_576.txt	LTP269	ltpFR2	16	9	SLOPE	1328	n/a	n/a	0	0	0
1780413	WORD	wordpools/wasnorm_wordpool_576.txt	LTP269	ltpFR2	16	9	CANYON	235	n/a	n/a	0	0	0
1783097	WORD	wordpools/wasnorm_wordpool_576.txt	LTP269	ltpFR2	16	9	BALLOON	75	n/a	n/a	0	0	0
1785890	WORD	wordpools/wasnorm_wordpool_576.txt	LTP269	ltpFR2	16	9	BRACES	164	n/a	n/a	0	0	0
1788335	WORD	wordpools/wasnorm_wordpool_576.txt	LTP269	ltpFR2	16	9	PREACHER	1119	n/a	n/a	0	0	0
1790788	WORD	wordpools/wasnorm_wordpool_576.txt	LTP269	ltpFR2	16	9	CROSS	413	n/a	n/a	0	0	0
1793573	WORD	wordpools/wasnorm_wordpool_576.txt	LTP269	ltpFR2	16	9	ROOSTER	1209	n/a	n/a	0	0	0
1795182	START	n/a	LTP269	ltpFR2	16	n/a	n/a	n/a	11	n/a	n/a	n/a	n/a
1796382	DISTRACTOR	n/a	LTP269	ltpFR2	16	9	n/a	n/a	n/a	n/a	0	0	0
1796392	PROB	n/a	LTP269	ltpFR2	16	n/a	n/a	n/a	11	13	3	2	8
1798409	PROB	n/a	LTP269	ltpFR2	16	n/a	n/a	n/a	11	16	9	2	5
1802095	PROB	n/a	LTP269	ltpFR2	16	n/a	n/a	n/a	11	24	7	8	9
1804146	PROB	n/a	LTP269	ltpFR2	16	n/a	n/a	n/a	11	8	1	5	2
1805515	PROB	n/a	LTP269	ltpFR2	16	n/a	n/a	n/a	11	16	3	8	5
1807333	PROB	n/a	LTP269	ltpFR2	16	n/a	n/a	n/a	11	11	5	2	4
1809101	PROB	n/a	LTP269	ltpFR2	16	n/a	n/a	n/a	11	18	5	9	4
1811034	PROB	n/a	LTP269	ltpFR2	16	n/a	n/a	n/a	11	18	5	6	7
1812920	PROB	n/a	LTP269	ltpFR2	16	n/a	n/a	n/a	11	19	8	7	2
1814956	PROB	n/a	LTP269	ltpFR2	16	n/a	n/a	n/a	11	11	4	5	1
1819181	STOP	n/a	LTP269	ltpFR2	16	n/a	n/a	n/a	11	n/a	n/a	n/a	n/a
1821045	REC_START	n/a	LTP269	ltpFR2	16	9	n/a	n/a	n/a	n/a	0	0	0
1827404	REC_WORD	wordpools/wasnorm_wordpool_576.txt	LTP269	ltpFR2	16	9	BANKER	84	n/a	n/a	0	0	0
1835551	REC_WORD	wordpools/wasnorm_wordpool_576.txt	LTP269	ltpFR2	16	9	TWIG	1527	n/a	n/a	0	0	0
1839480	REC_WORD	wordpools/wasnorm_wordpool_576.txt	LTP269	ltpFR2	16	9	HUSBAND	728	n/a	n/a	0	0	0
1841021	REC_WORD	wordpools/wasnorm_wordpool_576.txt	LTP269	ltpFR2	16	9	YACHT	1629	n/a	n/a	0	0	0
1843920	REC_WORD	wordpools/wasnorm_wordpool_576.txt	LTP269	ltpFR2	16	9	DANDRUFF	439	n/a	n/a	0	0	0
1845178	REC_WORD	wordpools/wasnorm_wordpool_576.txt	LTP269	ltpFR2	16	9	BACKBONE	66	n/a	n/a	0	0	0
1847959	REC_WORD	wordpools/wasnorm_wordpool_576.txt	LTP269	ltpFR2	16	9	SPOUSE	1358	n/a	n/a	0	0	0
1849166	REC_WORD	wordpools/wasnorm_wordpool_576.txt	LTP269	ltpFR2	16	9	LACE	792	n/a	n/a	0	0	0
1849700	REC_WORD	wordpools/wasnorm_wordpool_576.txt	LTP269	ltpFR2	16	9	SILK	1307	n/a	n/a	0	0	0
1852091	REC_WORD	wordpools/wasnorm_wordpool_576.txt	LTP269	ltpFR2	16	9	PECAN	1036	n/a	n/a	0	0	0
1911500	DISTRACTOR	n/a	LTP269	ltpFR2	16	10	n/a	n/a	n/a	n/a	0	0	0
1911500	START	n/a	LTP269	ltpFR2	16	n/a	n/a	n/a	12	n/a	n/a	n/a	n/a
1911518	PROB	n/a	LTP269	ltpFR2	16	n/a	n/a	n/a	12	21	8	7	6
1913618	PROB	n/a	LTP269	ltpFR2	16	n/a	n/a	n/a	12	16	8	1	7
1915070	PROB	n/a	LTP269	ltpFR2	16	n/a	n/a	n/a	12	11	7	1	3
1916221	PROB	n/a	LTP269	ltpFR2	16	n/a	n/a	n/a	12	17	1	8	8
1918121	PROB	n/a	LTP269	ltpFR2	16	n/a	n/a	n/a	12	18	4	7	7
1919524	PROB	n/a	LTP269	ltpFR2	16	n/a	n/a	n/a	12	11	4	4	3
1921208	PROB	n/a	LTP269	ltpFR2	16	n/a	n/a	n/a	12	15	7	3	2
1922792	PROB	n/a	LTP269	ltpFR2	16	n/a	n/a	n/a	12	22	9	9	4
1925329	PROB	n/a	LTP269	ltpFR2	16	n/a	n/a	n/a	12	18	9	4	5
1927179	PROB	n/a	LTP269	ltpFR2	16	n/a	n/a	n/a	12	11	4	2	5
1928565	PROB	n/a	LTP269	ltpFR2	16	n/a	n/a	n/a	12	21	7	6	8
1930250	PROB	n/a	LTP269	ltpFR2	16	n/a	n/a	n/a	12	12	1	9	2
1932900	PROB	n/a	LTP269	ltpFR2	16	n/a	n/a	n/a	12	2	6	8	9
1935220	STOP	n/a	LTP269	ltpFR2	16	n/a	n/a	n/a	12	n/a	n/a	n/a	n/a
1936454	WORD	wordpools/wasnorm_wordpool_576.txt	LTP269	ltpFR2	16	10	OUTDOORS	987	n/a	n/a	0	0	0
1939006	WORD	wordpools/wasnorm_wordpool_576.txt	LTP269	ltpFR2	16	10	PICTURE	1061	n/a	n/a	0	0	0
1941458	WORD	wordpools/wasnorm_wordpool_576.txt	LTP269	ltpFR2	16	10	PATIENT	1024	n/a	n/a	0	0	0
1944177	WORD	wordpools/wasnorm_wordpool_576.txt	LTP269	ltpFR2	16	10	BUTCHER	203	n/a	n/a	0	0	0
1946913	WORD	wordpools/wasnorm_wordpool_576.txt	LTP269	ltpFR2	16	10	LODGE	839	n/a	n/a	0	0	0
1949432	WORD	wordpools/wasnorm_wordpool_576.txt	LTP269	ltpFR2	16	10	COLLEGE	346	n/a	n/a	0	0	0
1952083	WORD	wordpools/wasnorm_wordpool_576.txt	LTP269	ltpFR2	16	10	GARBAGE	622	n/a	n/a	0	0	0
1954669	WORD	wordpools/wasnorm_wordpool_576.txt	LTP269	ltpFR2	16	10	MEAT	883	n/a	n/a	0	0	0
1957354	WORD	wordpools/wasnorm_wordpool_576.txt	LTP269	ltpFR2	16	10	ROCKET	1202	n/a	n/a	0	0	0
1960075	WORD	wordpools/wasnorm_wordpool_576.txt	LTP269	ltpFR2	16	10	ORANGE	980	n/a	n/a	0	0	0
1962876	WORD	wordpools/wasnorm_wordpool_576.txt	LTP269	ltpFR2	16	10	APPLE	33	n/a	n/a	0	0	0
1965646	WORD	wordpools/wasnorm_wordpool_576.txt	LTP269	ltpFR2	16	10	RIFLE	1192	n/a	n/a	0	0	0
1968163	WORD	wordpools/wasnorm_wordpool_576.txt	LTP269	ltpFR2	16	10	CABIN	211	n/a	n/a	0	0	0
1970682	WORD	wordpools/wasnorm_wordpool_576.txt	LTP269	ltpFR2	16	10	CHURCH	307	n/a	n/a	0	0	0
1973317	WORD	wordpools/wasnorm_wordpool_576.txt	LTP269	ltpFR2	16	10	CREVICE	405	n/a	n/a	0	0	0
1976052	WORD	wordpools/wasnorm_wordpool_576.txt	LTP269	ltpFR2	16	10	SPHINX	1349	n/a	n/a	0	0	0
1978855	WORD	wordpools/wasnorm_wordpool_576.txt	LTP269	ltpFR2	16	10	ARM	38	n/a	n/a	0	0	0
1981441	WORD	wordpools/wasnorm_wordpool_576.txt	LTP269	ltpFR2	16	10	ICEBERG	731	n/a	n/a	0	0	0
1983959	WORD	wordpools/wasnorm_wordpool_576.txt	LTP269	ltpFR2	16	10	GLOVE	642	n/a	n/a	0	0	0
1986378	WORD	wordpools/wasnorm_wordpool_576.txt	LTP269	ltpFR2	16	10	GHETTO	633	n/a	n/a	0	0	0
1988946	WORD	wordpools/wasnorm_wordpool_576.txt	LTP269	ltpFR2	16	10	COMPASS	358	n/a	n/a	0	0	0
1991415	WORD	wordpools/wasnorm_wordpool_576.txt	LTP269	ltpFR2	16	10	HEART	697	n/a	n/a	0	0	0
1994033	WORD	wordpools/wasnorm_wordpool_576.txt	LTP269	ltpFR2	16	10	MAMMAL	861	n/a	n/a	0	0	0
1996607	WORD	wordpools/wasnorm_wordpool_576.txt	LTP269	ltpFR2	16	10	BEAST	108	n/a	n/a	0	0	0
1998222	START	n/a	LTP269	ltpFR2	16	n/a	n/a	n/a	13	n/a	n/a	n/a	n/a
1999256	DISTRACTOR	n/a	LTP269	ltpFR2	16	10	n/a	n/a	n/a	n/a	0	0	0
1999272	PROB	n/a	LTP269	ltpFR2	16	n/a	n/a	n/a	13	8	4	3	1
2001307	PROB	n/a	LTP269	ltpFR2	16	n/a	n/a	n/a	13	8	1	4	3
2002206	PROB	n/a	LTP269	ltpFR2	16	n/a	n/a	n/a	13	15	4	7	4
2004408	PROB	n/a	LTP269	ltpFR2	16	n/a	n/a	n/a	13	6	4	1	1
2005659	PROB	n/a	LTP269	ltpFR2	16	n/a	n/a	n/a	13	18	6	8	4
2007177	PROB	n/a	LTP269	ltpFR2	16	n/a	n/a	n/a	13	16	6	2	8
2008477	PROB	n/a	LTP269	ltpFR2	16	n/a	n/a	n/a	13	23	9	6	8
2011013	PROB	n/a	LTP269	ltpFR2	16	n/a	n/a	n/a	13	17	4	9	4
2013566	PROB	n/a	LTP269	ltpFR2	16	n/a	n/a	n/a	13	12	2	1	9
2014766	PROB	n/a	LTP269	ltpFR2	16	n/a	n/a	n/a	13	18	7	8	3
2016817	PROB	n/a	LTP269	ltpFR2	16	n/a	n/a	n/a	13	15	5	4	6
2018186	PROB	n/a	LTP269	ltpFR2	16	n/a	n/a	n/a	13	18	7	4	7
2020405	PROB	n/a	LTP269	ltpFR2	16	n/a	n/a	n/a	13	18	6	9	3
2022119	STOP	n/a	LTP269	ltpFR2	16	n/a	n/a	n/a	13	n/a	n/a	n/a	n/a
2024023	REC_START	n/a	LTP269	ltpFR2	16	10	n/a	n/a	n/a	n/a	0	0	0
2029226	REC_WORD	wordpools/wasnorm_wordpool_576.txt	LTP269	ltpFR2	16	10	PATIENT	1024	n/a	n/a	0	0	0
2030477	REC_WORD	wordpools/wasnorm_wordpool_576.txt	LTP269	ltpFR2	16	10	PICTURE	1061	n/a	n/a	0	0	0
2031095	REC_WORD	wordpools/wasnorm_wordpool_576.txt	LTP269	ltpFR2	16	10	OUTDOORS	987	n/a	n/a	0	0	0
2034154	REC_WORD	wordpools/wasnorm_wordpool_576.txt	LTP269	ltpFR2	16	10	LODGE	839	n/a	n/a	0	0	0
2035130	REC_WORD	wordpools/wasnorm_wordpool_576.txt	LTP269	ltpFR2	16	10	CABIN	211	n/a	n/a	0	0	0
2037401	REC_WORD	wordpools/wasnorm_wordpool_576.txt	LTP269	ltpFR2	16	10	ROCKET	1202	n/a	n/a	0	0	0
2039631	REC_WORD	wordpools/wasnorm_wordpool_576.txt	LTP269	ltpFR2	16	10	BUTCHER	203	n/a	n/a	0	0	0
2040227	REC_WORD	wordpools/wasnorm_wordpool_576.txt	LTP269	ltpFR2	16	10	MEAT	883	n/a	n/a	0	0	0
2040827	REC_WORD	wordpools/wasnorm_wordpool_576.txt	LTP269	ltpFR2	16	10	GARBAGE	622	n/a	n/a	0	0	0
2044739	REC_WORD	wordpools/wasnorm_wordpool_576.txt	LTP269	ltpFR2	16	10	APPLE	33	n/a	n/a	0	0	0
2045403	REC_WORD	wordpools/wasnorm_wordpool_576.txt	LTP269	ltpFR2	16	10	ORANGE	980	n/a	n/a	0	0	0
2048511	REC_WORD	wordpools/wasnorm_wordpool_576.txt	LTP269	ltpFR2	16	10	CHURCH	307	n/a	n/a	0	0	0
2049830	REC_WORD	wordpools/wasnorm_wordpool_576.txt	LTP269	ltpFR2	16	10	CREVICE	405	n/a	n/a	0	0	0
2052133	REC_WORD	wordpools/wasnorm_wordpool_576.txt	LTP269	ltpFR2	16	10	SPHINX	1349	n/a	n/a	0	0	0
2052886	REC_WORD	wordpools/wasnorm_wordpool_576.txt	LTP269	ltpFR2	16	10	ARM	38	n/a	n/a	0	0	0
2056381	REC_WORD	wordpools/wasnorm_wordpool_576.txt	LTP269	ltpFR2	16	10	ICEBERG	731	n/a	n/a	0	0	0
2064326	REC_WORD	wordpools/wasnorm_wordpool_576.txt	LTP269	ltpFR2	16	10	COMPASS	358	n/a	n/a	0	0	0
2064896	REC_WORD	wordpools/wasnorm_wordpool_576.txt	LTP269	ltpFR2	16	10	HEART	697	n/a	n/a	0	0	0
2114458	WORD	wordpools/wasnorm_wordpool_576.txt	LTP269	ltpFR2	16	11	SIDEWALK	1303	n/a	n/a	0	0	0
2117246	WORD	wordpools/wasnorm_wordpool_576.txt	LTP269	ltpFR2	16	11	HIGHWAY	707	n/a	n/a	0	0	0
2119669	WORD	wordpools/wasnorm_wordpool_576.txt	LTP269	ltpFR2	16	11	STAKE	1368	n/a	n/a	0	0	0
2122115	WORD	wordpools/wasnorm_wordpool_576.txt	LTP269	ltpFR2	16	11	LETTUCE	814	n/a	n/a	0	0	0
2124623	WORD	wordpools/wasnorm_wordpool_576.txt	LTP269	ltpFR2	16	11	LION	827	n/a	n/a	0	0	0
2127074	WORD	wordpools/wasnorm_wordpool_576.txt	LTP269	ltpFR2	16	11	JUDGE	761	n/a	n/a	0	0	0
2129877	WORD	wordpools/wasnorm_wordpool_576.txt	LTP269	ltpFR2	16	11	WORKER	1621	n/a	n/a	0	0	0
2132576	WORD	wordpools/wasnorm_wordpool_576.txt	LTP269	ltpFR2	16	11	VALLEY	1545	n/a	n/a	0	0	0
2135395	WORD	wordpools/wasnorm_wordpool_576.txt	LTP269	ltpFR2	16	11	SPOON	1357	n/a	n/a	0	0	0
2138197	WORD	wordpools/wasnorm_wordpool_576.txt	LTP269	ltpFR2	16	11	CUPBOARD	425	n/a	n/a	0	0	0
2140950	WORD	wordpools/wasnorm_wordpool_576.txt	LTP269	ltpFR2	16	11	SCALPEL	1243	n/a	n/a	0	0	0
2143552	WORD	wordpools/wasnorm_wordpool_576.txt	LTP269	ltpFR2	16	11	SLIDE	1326	n/a	n/a	0	0	0
2146304	WORD	wordpools/wasnorm_wordpool_576.txt	LTP269	ltpFR2	16	11	TEACHER	1440	n/a	n/a	0	0	0
2149123	WORD	wordpools/wasnorm_wordpool_576.txt	LTP269	ltpFR2	16	11	CLOCK	325	n/a	n/a	0	0	0
2151809	WORD	wordpools/wasnorm_wordpool_576.txt	LTP269	ltpFR2	16	11	PARTNER	1017	n/a	n/a	0	0	0
2154429	WORD	wordpools/wasnorm_wordpool_576.txt	LTP269	ltpFR2	16	11	BOYFRIEND	162	n/a	n/a	0	0	0
2157164	WORD	wordpools/wasnorm_wordpool_576.txt	LTP269	ltpFR2	16	11	WHISTLE	1606	n/a	n/a	0	0	0
2159966	WORD	wordpools/wasnorm_wordpool_576.txt	LTP269	ltpFR2	16	11	HELMET	702	n/a	n/a	0	0	0
2162735	WORD	wordpools/wasnorm_wordpool_576.txt	LTP269	ltpFR2	16	11	SLUG	1329	n/a	n/a	0	0	0
2165254	WORD	wordpools/wasnorm_wordpool_576.txt	LTP269	ltpFR2	16	11	SEAGULL	1261	n/a	n/a	0	0	0
2167756	WORD	wordpools/wasnorm_wordpool_576.txt	LTP269	ltpFR2	16	11	PANTHER	1009	n/a	n/a	0	0	0
2170425	WORD	wordpools/wasnorm_wordpool_576.txt	LTP269	ltpFR2	16	11	PUPIL	1143	n/a	n/a	0	0	0
2173077	WORD	wordpools/wasnorm_wordpool_576.txt	LTP269	ltpFR2	16	11	CLAMP	316	n/a	n/a	0	0	0
2175847	WORD	wordpools/wasnorm_wordpool_576.txt	LTP269	ltpFR2	16	11	SUPPER	1411	n/a	n/a	0	0	0
2177465	START	n/a	LTP269	ltpFR2	16	n/a	n/a	n/a	14	n/a	n/a	n/a	n/a
2178291	DISTRACTOR	n/a	LTP269	ltpFR2	16	11	n/a	n/a	n/a	n/a	0	0	0
2178299	PROB	n/a	LTP269	ltpFR2	16	n/a	n/a	n/a	14	13	4	4	5
2179983	PROB	n/a	LTP269	ltpFR2	16	n/a	n/a	n/a	14	12	6	2	4
2181566	PROB	n/a	LTP269	ltpFR2	16	n/a	n/a	n/a	14	18	9	2	7
2183536	PROB	n/a	LTP269	ltpFR2	16	n/a	n/a	n/a	14	19	3	8	8
2186387	PROB	n/a	LTP269	ltpFR2	16	n/a	n/a	n/a	14	8	3	4	1
2187856	PROB	n/a	LTP269	ltpFR2	16	n/a	n/a	n/a	14	16	9	6	1
2189723	PROB	n/a	LTP269	ltpFR2	16	n/a	n/a	n/a	14	19	7	6	6
2191991	PROB	n/a	LTP269	ltpFR2	16	n/a	n/a	n/a	14	18	5	7	6
2193960	PROB	n/a	LTP269	ltpFR2	16	n/a	n/a	n/a	14	14	3	3	8
2195678	PROB	n/a	LTP269	ltpFR2	16	n/a	n/a	n/a	14	9	1	1	7
2197213	PROB	n/a	LTP269	ltpFR2	16	n/a	n/a	n/a	14	8	3	1	4
2198631	PROB	n/a	LTP269	ltpFR2	16	n/a	n/a	n/a	14	18	8	4	6
2200735	STOP	n/a	LTP269	ltpFR2	16	n/a	n/a	n/a	14	n/a	n/a	n/a	n/a
2203384	REC_START	n/a	LTP269	ltpFR2	16	11	n/a	n/a	n/a	n/a	0	0	0
2207971	REC_WORD	wordpools/wasnorm_wordpool_576.txt	LTP269	ltpFR2	16	11	HIGHWAY	707	n/a	n/a	0	0	0
2208780	REC_WORD	wordpools/wasnorm_wordpool_576.txt	LTP269	ltpFR2	16	11	STAKE	1368	n/a	n/a	0	0	0
2211271	REC_WORD	wordpools/wasnorm_wordpool_576.txt	LTP269	ltpFR2	16	11	JUDGE	761	n/a	n/a	0	0	0
2212111	REC_WORD	wordpools/wasnorm_wordpool_576.txt	LTP269	ltpFR2	16	11	LION	827	n/a	n/a	0	0	0
2215860	REC_WORD	wordpools/wasnorm_wordpool_576.txt	LTP269	ltpFR2	16	11	SCALPEL	1243	n/a	n/a	0	0	0
2217244	REC_WORD	wordpools/wasnorm_wordpool_576.txt	LTP269	ltpFR2	16	11	WORKER	1621	n/a	n/a	0	0	0
2217702	REC_WORD	wordpools/wasnorm_wordpool_576.txt	LTP269	ltpFR2	16	11	VALLEY	1545	n/a	n/a	0	0	0
2219644	REC_WORD	wordpools/wasnorm_wordpool_576.txt	LTP269	ltpFR2	16	11	SPOON	1357	n/a	n/a	0	0	0
2221567	REC_WORD	wordpools/wasnorm_wordpool_576.txt	LTP269	ltpFR2	16	11	PARTNER	1017	n/a	n/a	0	0	0
2222356	REC_WORD	wordpools/wasnorm_wordpool_576.txt	LTP269	ltpFR2	16	11	BOYFRIEND	162	n/a	n/a	0	0	0
2226928	REC_WORD	wordpools/wasnorm_wordpool_576.txt	LTP269	ltpFR2	16	11	TEACHER	1440	n/a	n/a	0	0	0
2227477	REC_WORD	wordpools/wasnorm_wordpool_576.txt	LTP269	ltpFR2	16	11	SLIDE	1326	n/a	n/a	0	0	0
2228374	REC_WORD	wordpools/wasnorm_wordpool_576.txt	LTP269	ltpFR2	16	11	PUPIL	1143	n/a	n/a	0	0	0
2229718	REC_WORD	wordpools/wasnorm_wordpool_576.txt	LTP269	ltpFR2	16	11	CLOCK	325	n/a	n/a	0	0	0
2230818	REC_WORD	wordpools/wasnorm_wordpool_576.txt	LTP269	ltpFR2	16	11	PANTHER	1009	n/a	n/a	0	0	0
2231680	REC_WORD	wordpools/wasnorm_wordpool_576.txt	LTP269	ltpFR2	16	11	CLAMP	316	n/a	n/a	0	0	0
2293824	WORD	wordpools/wasnorm_wordpool_576.txt	LTP269	ltpFR2	16	12	WINDOW	1611	n/a	n/a	0	0	0
2296494	WORD	wordpools/wasnorm_wordpool_576.txt	LTP269	ltpFR2	16	12	STUDENT	1395	n/a	n/a	0	0	0
2299221	WORD	wordpools/wasnorm_wordpool_576.txt	LTP269	ltpFR2	16	12	HUMAN	726	n/a	n/a	0	0	0
2301823	WORD	wordpools/wasnorm_wordpool_576.txt	LTP269	ltpFR2	16	12	MARKER	870	n/a	n/a	0	0	0
2304483	WORD	wordpools/wasnorm_wordpool_576.txt	LTP269	ltpFR2	16	12	FLESH	579	n/a	n/a	0	0	0
2306986	WORD	wordpools/wasnorm_wordpool_576.txt	LTP269	ltpFR2	16	12	XEROX	1628	n/a	n/a	0	0	0
2309647	WORD	wordpools/wasnorm_wordpool_576.txt	LTP269	ltpFR2	16	12	COUNTY	389	n/a	n/a	0	0	0
2312172	WORD	wordpools/wasnorm_wordpool_576.txt	LTP269	ltpFR2	16	12	KNIFE	785	n/a	n/a	0	0	0
2314918	WORD	wordpools/wasnorm_wordpool_576.txt	LTP269	ltpFR2	16	12	DRESS	495	n/a	n/a	0	0	0
2317570	WORD	wordpools/wasnorm_wordpool_576.txt	LTP269	ltpFR2	16	12	LAPEL	800	n/a	n/a	0	0	0
2320356	WORD	wordpools/wasnorm_wordpool_576.txt	LTP269	ltpFR2	16	12	BLUEPRINT	142	n/a	n/a	0	0	0
2323175	WORD	wordpools/wasnorm_wordpool_576.txt	LTP269	ltpFR2	16	12	PIMPLE	1071	n/a	n/a	0	0	0
2325794	WORD	wordpools/wasnorm_wordpool_576.txt	LTP269	ltpFR2	16	12	HOSTESS	723	n/a	n/a	0	0	0
2328219	WORD	wordpools/wasnorm_wordpool_576.txt	LTP269	ltpFR2	16	12	OUTLAW	989	n/a	n/a	0	0	0
2330998	WORD	wordpools/wasnorm_wordpool_576.txt	LTP269	ltpFR2	16	12	ROBBER	1197	n/a	n/a	0	0	0
2333440	WORD	wordpools/wasnorm_wordpool_576.txt	LTP269	ltpFR2	16	12	FOOTBALL	591	n/a	n/a	0	0	0
2336187	WORD	wordpools/wasnorm_wordpool_576.txt	LTP269	ltpFR2	16	12	GARDEN	623	n/a	n/a	0	0	0
2338745	WORD	wordpools/wasnorm_wordpool_576.txt	LTP269	ltpFR2	16	12	SWORD	1423	n/a	n/a	0	0	0
2341174	WORD	wordpools/wasnorm_wordpool_576.txt	LTP269	ltpFR2	16	12	BEAKER	104	n/a	n/a	0	0	0
2343643	WORD	wordpools/wasnorm_wordpool_576.txt	LTP269	ltpFR2	16	12	BODY	145	n/a	n/a	0	0	0
2346128	WORD	wordpools/wasnorm_wordpool_576.txt	LTP269	ltpFR2	16	12	STREAM	1392	n/a	n/a	0	0	0
2348697	WORD	wordpools/wasnorm_wordpool_576.txt	LTP269	ltpFR2	16	12	SWAMP	1416	n/a	n/a	0	0	0
2351433	WORD	wordpools/wasnorm_wordpool_576.txt	LTP269	ltpFR2	16	12	SURVEY	1414	n/a	n/a	0	0	0
2354203	WORD	wordpools/wasnorm_wordpool_576.txt	LTP269	ltpFR2	16	12	EMPIRE	530	n/a	n/a	0	0	0
2355808	START	n/a	LTP269	ltpFR2	16	n/a	n/a	n/a	15	n/a	n/a	n/a	n/a
2356645	DISTRACTOR	n/a	LTP269	ltpFR2	16	12	n/a	n/a	n/a	n/a	0	0	0
2356655	PROB	n/a	LTP269	ltpFR2	16	n/a	n/a	n/a	15	16	8	5	3
2358026	PROB	n/a	LTP269	ltpFR2	16	n/a	n/a	n/a	15	10	3	4	3
2359629	PROB	n/a	LTP269	ltpFR2	16	n/a	n/a	n/a	15	17	9	6	2
2363798	PROB	n/a	LTP269	ltpFR2	16	n/a	n/a	n/a	15	15	8	3	4
2366833	PROB	n/a	LTP269	ltpFR2	16	n/a	n/a	n/a	15	12	2	4	6
2368447	PROB	n/a	LTP269	ltpFR2	16	n/a	n/a	n/a	15	17	8	3	6
2370949	PROB	n/a	LTP269	ltpFR2	16	n/a	n/a	n/a	15	22	5	8	9
2373271	PROB	n/a	LTP269	ltpFR2	16	n/a	n/a	n/a	15	16	4	9	3
2375921	PROB	n/a	LTP269	ltpFR2	16	n/a	n/a	n/a	15	22	7	6	9
2378750	STOP	n/a	LTP269	ltpFR2	16	n/a	n/a	n/a	15	n/a	n/a	n/a	n/a
2381743	REC_START	n/a	LTP269	ltpFR2	16	12	n/a	n/a	n/a	n/a	0	0	0
2383994	REC_WORD	wordpools/wasnorm_wordpool_576.txt	LTP269	ltpFR2	16	12	WINDOW	1611	n/a	n/a	0	0	0
2384631	REC_WORD	wordpools/wasnorm_wordpool_576.txt	LTP269	ltpFR2	16	12	STUDENT	1395	n/a	n/a	0	0	0
2386996	REC_WORD	wordpools/wasnorm_wordpool_576.txt	LTP269	ltpFR2	16	12	MARKER	870	n/a	n/a	0	0	0
2388250	REC_WORD	wordpools/wasnorm_wordpool_576.txt	LTP269	ltpFR2	16	12	FLESH	579	n/a	n/a	0	0	0
2388964	REC_WORD	wordpools/wasnorm_wordpool_576.txt	LTP269	ltpFR2	16	12	XEROX	1628	n/a	n/a	0	0	0
2390095	REC_WORD	wordpools/wasnorm_wordpool_576.txt	LTP269	ltpFR2	16	12	COUNTY	389	n/a	n/a	0	0	0
2391602	REC_WORD	wordpools/wasnorm_wordpool_576.txt	LTP269	ltpFR2	16	12	SWORD	1423	n/a	n/a	0	0	0
2392196	REC_WORD	wordpools/wasnorm_wordpool_576.txt	LTP269	ltpFR2	16	12	EMPIRE	530	n/a	n/a	0	0	0
2401997	REC_WORD	wordpools/wasnorm_wordpool_576.txt	LTP269	ltpFR2	16	12	BEAKER	104	n/a	n/a	0	0	0
2472173	DISTRACTOR	n/a	LTP269	ltpFR2	16	13	n/a	n/a	n/a	n/a	0	0	0
2472173	START	n/a	LTP269	ltpFR2	16	n/a	n/a	n/a	16	n/a	n/a	n/a	n/a
2472187	PROB	n/a	LTP269	ltpFR2	16	n/a	n/a	n/a	16	19	6	6	7
2474068	PROB	n/a	LTP269	ltpFR2	16	n/a	n/a	n/a	16	12	4	1	7
2475219	PROB	n/a	LTP269	ltpFR2	16	n/a	n/a	n/a	16	6	2	2	2
2476906	PROB	n/a	LTP269	ltpFR2	16	n/a	n/a	n/a	16	10	2	7	1
2478472	PROB	n/a	LTP269	ltpFR2	16	n/a	n/a	n/a	16	16	8	4	4
2480891	PROB	n/a	LTP269	ltpFR2	16	n/a	n/a	n/a	16	15	2	9	4
2483242	PROB	n/a	LTP269	ltpFR2	16	n/a	n/a	n/a	16	18	6	6	6
2484411	PROB	n/a	LTP269	ltpFR2	16	n/a	n/a	n/a	16	17	5	7	5
2486345	PROB	n/a	LTP269	ltpFR2	16	n/a	n/a	n/a	16	18	9	3	6
2487779	PROB	n/a	LTP269	ltpFR2	16	n/a	n/a	n/a	16	8	3	3	2
2490498	PROB	n/a	LTP269	ltpFR2	16	n/a	n/a	n/a	16	16	6	6	4
2492133	PROB	n/a	LTP269	ltpFR2	16	n/a	n/a	n/a	16	20	5	7	8
2494715	STOP	n/a	LTP269	ltpFR2	16	n/a	n/a	n/a	16	n/a	n/a	n/a	n/a
2497388	WORD	wordpools/wasnorm_wordpool_576.txt	LTP269	ltpFR2	16	13	TURKEY	1520	n/a	n/a	0	0	0
2500046	WORD	wordpools/wasnorm_wordpool_576.txt	LTP269	ltpFR2	16	13	COURSE	390	n/a	n/a	0	0	0
2502816	WORD	wordpools/wasnorm_wordpool_576.txt	LTP269	ltpFR2	16	13	WAGON	1578	n/a	n/a	0	0	0
2505334	WORD	wordpools/wasnorm_wordpool_576.txt	LTP269	ltpFR2	16	13	MOTOR	922	n/a	n/a	0	0	0
2507920	WORD	wordpools/wasnorm_wordpool_576.txt	LTP269	ltpFR2	16	13	PLAYGROUND	1087	n/a	n/a	0	0	0
2510650	WORD	wordpools/wasnorm_wordpool_576.txt	LTP269	ltpFR2	16	13	BUNNY	198	n/a	n/a	0	0	0
2513124	WORD	wordpools/wasnorm_wordpool_576.txt	LTP269	ltpFR2	16	13	SUMMIT	1405	n/a	n/a	0	0	0
2515843	WORD	wordpools/wasnorm_wordpool_576.txt	LTP269	ltpFR2	16	13	SANDWICH	1232	n/a	n/a	0	0	0
2518529	WORD	wordpools/wasnorm_wordpool_576.txt	LTP269	ltpFR2	16	13	DOLPHIN	483	n/a	n/a	0	0	0
2521224	WORD	wordpools/wasnorm_wordpool_576.txt	LTP269	ltpFR2	16	13	NEUTRON	947	n/a	n/a	0	0	0
2523901	WORD	wordpools/wasnorm_wordpool_576.txt	LTP269	ltpFR2	16	13	QUAIL	1147	n/a	n/a	0	0	0
2526402	WORD	wordpools/wasnorm_wordpool_576.txt	LTP269	ltpFR2	16	13	PENGUIN	1044	n/a	n/a	0	0	0
2529096	WORD	wordpools/wasnorm_wordpool_576.txt	LTP269	ltpFR2	16	13	STOVE	1388	n/a	n/a	0	0	0
2531707	WORD	wordpools/wasnorm_wordpool_576.txt	LTP269	ltpFR2	16	13	POSTAGE	1113	n/a	n/a	0	0	0
2534319	WORD	wordpools/wasnorm_wordpool_576.txt	LTP269	ltpFR2	16	13	OX	994	n/a	n/a	0	0	0
2536921	WORD	wordpools/wasnorm_wordpool_576.txt	LTP269	ltpFR2	16	13	POSSUM	1112	n/a	n/a	0	0	0
2539714	WORD	wordpools/wasnorm_wordpool_576.txt	LTP269	ltpFR2	16	13	CASHIER	254	n/a	n/a	0	0	0
2542140	WORD	wordpools/wasnorm_wordpool_576.txt	LTP269	ltpFR2	16	13	REBEL	1172	n/a	n/a	0	0	0
2544727	WORD	wordpools/wasnorm_wordpool_576.txt	LTP269	ltpFR2	16	13	DRIVER	499	n/a	n/a	0	0	0
2547304	WORD	wordpools/wasnorm_wordpool_576.txt	LTP269	ltpFR2	16	13	ACTOR	5	n/a	n/a	0	0	0
2550088	WORD	wordpools/wasnorm_wordpool_576.txt	LTP269	ltpFR2	16	13	HIKER	708	n/a	n/a	0	0	0
2552592	WORD	wordpools/wasnorm_wordpool_576.txt	LTP269	ltpFR2	16	13	SNACK	1331	n/a	n/a	0	0	0
2555245	WORD	wordpools/wasnorm_wordpool_576.txt	LTP269	ltpFR2	16	13	SEAFOOD	1260	n/a	n/a	0	0	0
2557830	WORD	wordpools/wasnorm_wordpool_576.txt	LTP269	ltpFR2	16	13	TRENCH	1503	n/a	n/a	0	0	0
2559440	START	n/a	LTP269	ltpFR2	16	n/a	n/a	n/a	17	n/a	n/a	n/a	n/a
2560266	DISTRACTOR	n/a	LTP269	ltpFR2	16	13	n/a	n/a	n/a	n/a	0	0	0
2560272	PROB	n/a	LTP269	ltpFR2	16	n/a	n/a	n/a	17	14	2	7	5
2561688	PROB	n/a	LTP269	ltpFR2	16	n/a	n/a	n/a	17	16	3	8	5
2563140	PROB	n/a	LTP269	ltpFR2	16	n/a	n/a	n/a	17	25	9	8	8
2567092	PROB	n/a	LTP269	ltpFR2	16	n/a	n/a	n/a	17	13	4	3	6
2568762	PROB	n/a	LTP269	ltpFR2	16	n/a	n/a	n/a	17	16	7	1	8
2569912	PROB	n/a	LTP269	ltpFR2	16	n/a	n/a	n/a	17	22	8	7	7
2571381	PROB	n/a	LTP269	ltpFR2	16	n/a	n/a	n/a	17	19	3	7	9
2573699	PROB	n/a	LTP269	ltpFR2	16	n/a	n/a	n/a	17	15	1	6	8
2575001	PROB	n/a	LTP269	ltpFR2	16	n/a	n/a	n/a	17	15	5	4	6
2576501	PROB	n/a	LTP269	ltpFR2	16	n/a	n/a	n/a	17	14	2	5	7
2579355	PROB	n/a	LTP269	ltpFR2	16	n/a	n/a	n/a	17	17	1	9	7
2581054	PROB	n/a	LTP269	ltpFR2	16	n/a	n/a	n/a	17	15	7	5	3
2582590	STOP	n/a	LTP269	ltpFR2	16	n/a	n/a	n/a	17	n/a	n/a	n/a	n/a
2585375	REC_START	n/a	LTP269	ltpFR2	16	13	n/a	n/a	n/a	n/a	0	0	0
2594321	REC_WORD	wordpools/wasnorm_wordpool_576.txt	LTP269	ltpFR2	16	13	TURKEY	1520	n/a	n/a	0	0	0
2595930	REC_WORD	wordpools/wasnorm_wordpool_576.txt	LTP269	ltpFR2	16	13	COURSE	390	n/a	n/a	0	0	0
2598977	REC_WORD_VV	wordpools/wasnorm_wordpool_576.txt	LTP269	ltpFR2	16	13	<>	-1	n/a	n/a	0	0	0
2599267	REC_WORD	wordpools/wasnorm_wordpool_576.txt	LTP269	ltpFR2	16	13	WAGON	1578	n/a	n/a	0	0	0
2602926	REC_WORD	wordpools/wasnorm_wordpool_576.txt	LTP269	ltpFR2	16	13	BUNNY	198	n/a	n/a	0	0	0
2603405	REC_WORD	wordpools/wasnorm_wordpool_576.txt	LTP269	ltpFR2	16	13	SUMMIT	1405	n/a	n/a	0	0	0
2604293	REC_WORD	wordpools/wasnorm_wordpool_576.txt	LTP269	ltpFR2	16	13	SANDWICH	1232	n/a	n/a	0	0	0
2606499	REC_WORD	wordpools/wasnorm_wordpool_576.txt	LTP269	ltpFR2	16	13	PENGUIN	1044	n/a	n/a	0	0	0
2607202	REC_WORD	wordpools/wasnorm_wordpool_576.txt	LTP269	ltpFR2	16	13	DOLPHIN	483	n/a	n/a	0	0	0
2607970	REC_WORD	wordpools/wasnorm_wordpool_576.txt	LTP269	ltpFR2	16	13	QUAIL	1147	n/a	n/a	0	0	0
2610787	REC_WORD	wordpools/wasnorm_wordpool_576.txt	LTP269	ltpFR2	16	13	MOTOR	922	n/a	n/a	0	0	0
2612744	REC_WORD	wordpools/wasnorm_wordpool_576.txt	LTP269	ltpFR2	16	13	DRIVER	499	n/a	n/a	0	0	0
2613301	REC_WORD	wordpools/wasnorm_wordpool_576.txt	LTP269	ltpFR2	16	13	ACTOR	5	n/a	n/a	0	0	0
2613831	REC_WORD_VV	wordpools/wasnorm_wordpool_576.txt	LTP269	ltpFR2	16	13	<>	-1	n/a	n/a	0	0	0
2615824	REC_WORD	wordpools/wasnorm_wordpool_576.txt	LTP269	ltpFR2	16	13	OX	994	n/a	n/a	0	0	0
2616654	REC_WORD	wordpools/wasnorm_wordpool_576.txt	LTP269	ltpFR2	16	13	POSSUM	1112	n/a	n/a	0	0	0
2617503	REC_WORD	wordpools/wasnorm_wordpool_576.txt	LTP269	ltpFR2	16	13	CASHIER	254	n/a	n/a	0	0	0
2618245	REC_WORD	wordpools/wasnorm_wordpool_576.txt	LTP269	ltpFR2	16	13	REBEL	1172	n/a	n/a	0	0	0
2675849	DISTRACTOR	n/a	LTP269	ltpFR2	16	14	n/a	n/a	n/a	n/a	0	0	0
2675849	START	n/a	LTP269	ltpFR2	16	n/a	n/a	n/a	18	n/a	n/a	n/a	n/a
2675863	PROB	n/a	LTP269	ltpFR2	16	n/a	n/a	n/a	18	11	3	7	1
2677097	PROB	n/a	LTP269	ltpFR2	16	n/a	n/a	n/a	18	11	6	2	3
2678533	PROB	n/a	LTP269	ltpFR2	16	n/a	n/a	n/a	18	15	7	1	7
2679717	PROB	n/a	LTP269	ltpFR2	16	n/a	n/a	n/a	18	17	5	7	5
2681918	PROB	n/a	LTP269	ltpFR2	16	n/a	n/a	n/a	18	12	1	8	3
2683069	PROB	n/a	LTP269	ltpFR2	16	n/a	n/a	n/a	18	18	9	4	5
2684422	PROB	n/a	LTP269	ltpFR2	16	n/a	n/a	n/a	18	10	1	4	5
2685689	PROB	n/a	LTP269	ltpFR2	16	n/a	n/a	n/a	18	8	2	2	4
2686806	PROB	n/a	LTP269	ltpFR2	16	n/a	n/a	n/a	18	14	8	3	3
2688743	PROB	n/a	LTP269	ltpFR2	16	n/a	n/a	n/a	18	11	2	3	6
2690610	PROB	n/a	LTP269	ltpFR2	16	n/a	n/a	n/a	18	13	8	4	1
2692077	PROB	n/a	LTP269	ltpFR2	16	n/a	n/a	n/a	18	18	2	9	7
2693596	PROB	n/a	LTP269	ltpFR2	16	n/a	n/a	n/a	18	17	9	2	6
2696798	PROB	n/a	LTP269	ltpFR2	16	n/a	n/a	n/a	18	19	2	8	9
2698939	STOP	n/a	LTP269	ltpFR2	16	n/a	n/a	n/a	18	n/a	n/a	n/a	n/a
2700936	WORD	wordpools/wasnorm_wordpool_576.txt	LTP269	ltpFR2	16	14	TABLE	1426	n/a	n/a	0	0	0
2703370	WORD	wordpools/wasnorm_wordpool_576.txt	LTP269	ltpFR2	16	14	LADDER	793	n/a	n/a	0	0	0
2705789	WORD	wordpools/wasnorm_wordpool_576.txt	LTP269	ltpFR2	16	14	WIFE	1609	n/a	n/a	0	0	0
2708459	WORD	wordpools/wasnorm_wordpool_576.txt	LTP269	ltpFR2	16	14	MATCH	878	n/a	n/a	0	0	0
2711097	WORD	wordpools/wasnorm_wordpool_576.txt	LTP269	ltpFR2	16	14	FIREMAN	569	n/a	n/a	0	0	0
2713912	WORD	wordpools/wasnorm_wordpool_576.txt	LTP269	ltpFR2	16	14	SERVANT	1271	n/a	n/a	0	0	0
2716448	WORD	wordpools/wasnorm_wordpool_576.txt	LTP269	ltpFR2	16	14	GIRL	637	n/a	n/a	0	0	0
2719216	WORD	wordpools/wasnorm_wordpool_576.txt	LTP269	ltpFR2	16	14	MUSTARD	935	n/a	n/a	0	0	0
2722003	WORD	wordpools/wasnorm_wordpool_576.txt	LTP269	ltpFR2	16	14	GALLON	618	n/a	n/a	0	0	0
2724642	WORD	wordpools/wasnorm_wordpool_576.txt	LTP269	ltpFR2	16	14	DOUGHNUT	490	n/a	n/a	0	0	0
2727356	WORD	wordpools/wasnorm_wordpool_576.txt	LTP269	ltpFR2	16	14	HONEY	713	n/a	n/a	0	0	0
2730113	WORD	wordpools/wasnorm_wordpool_576.txt	LTP269	ltpFR2	16	14	BANJO	82	n/a	n/a	0	0	0
2732633	WORD	wordpools/wasnorm_wordpool_576.txt	LTP269	ltpFR2	16	14	COUNTRY	388	n/a	n/a	0	0	0
2735062	WORD	wordpools/wasnorm_wordpool_576.txt	LTP269	ltpFR2	16	14	FIREPLACE	570	n/a	n/a	0	0	0
2737787	WORD	wordpools/wasnorm_wordpool_576.txt	LTP269	ltpFR2	16	14	CRIB	407	n/a	n/a	0	0	0
2740551	WORD	wordpools/wasnorm_wordpool_576.txt	LTP269	ltpFR2	16	14	RATTLE	1170	n/a	n/a	0	0	0
2743153	WORD	wordpools/wasnorm_wordpool_576.txt	LTP269	ltpFR2	16	14	HOOD	714	n/a	n/a	0	0	0
2745887	WORD	wordpools/wasnorm_wordpool_576.txt	LTP269	ltpFR2	16	14	CANDY	230	n/a	n/a	0	0	0
2748341	WORD	wordpools/wasnorm_wordpool_576.txt	LTP269	ltpFR2	16	14	POET	1095	n/a	n/a	0	0	0
2751058	WORD	wordpools/wasnorm_wordpool_576.txt	LTP269	ltpFR2	16	14	CRATER	400	n/a	n/a	0	0	0
2753668	WORD	wordpools/wasnorm_wordpool_576.txt	LTP269	ltpFR2	16	14	CURTAIN	427	n/a	n/a	0	0	0
2756220	WORD	wordpools/wasnorm_wordpool_576.txt	LTP269	ltpFR2	16	14	WOMAN	1620	n/a	n/a	0	0	0
2759005	WORD	wordpools/wasnorm_wordpool_576.txt	LTP269	ltpFR2	16	14	WASP	1593	n/a	n/a	0	0	0
2761641	WORD	wordpools/wasnorm_wordpool_576.txt	LTP269	ltpFR2	16	14	ROD	1203	n/a	n/a	0	0	0
2763253	START	n/a	LTP269	ltpFR2	16	n/a	n/a	n/a	19	n/a	n/a	n/a	n/a
2764174	DISTRACTOR	n/a	LTP269	ltpFR2	16	14	n/a	n/a	n/a	n/a	0	0	0
2764186	PROB	n/a	LTP269	ltpFR2	16	n/a	n/a	n/a	19	9	1	6	2
2765719	PROB	n/a	LTP269	ltpFR2	16	n/a	n/a	n/a	19	23	8	7	8
2768254	PROB	n/a	LTP269	ltpFR2	16	n/a	n/a	n/a	19	8	5	1	2
2771624	PROB	n/a	LTP269	ltpFR2	16	n/a	n/a	n/a	19	12	1	2	9
2772758	PROB	n/a	LTP269	ltpFR2	16	n/a	n/a	n/a	19	11	1	7	3
2773844	PROB	n/a	LTP269	ltpFR2	16	n/a	n/a	n/a	19	21	9	5	7
2775176	PROB	n/a	LTP269	ltpFR2	16	n/a	n/a	n/a	19	20	9	7	4
2776711	PROB	n/a	LTP269	ltpFR2	16	n/a	n/a	n/a	19	13	4	8	1
2778163	PROB	n/a	LTP269	ltpFR2	16	n/a	n/a	n/a	19	9	4	1	4
2780499	PROB	n/a	LTP269	ltpFR2	16	n/a	n/a	n/a	19	23	9	9	5
2782284	PROB	n/a	LTP269	ltpFR2	16	n/a	n/a	n/a	19	12	1	9	2
2783250	PROB	n/a	LTP269	ltpFR2	16	n/a	n/a	n/a	19	13	6	3	4
2787253	STOP	n/a	LTP269	ltpFR2	16	n/a	n/a	n/a	19	n/a	n/a	n/a	n/a
2789189	REC_START	n/a	LTP269	ltpFR2	16	14	n/a	n/a	n/a	n/a	0	0	0
2793525	REC_WORD	wordpools/wasnorm_wordpool_576.txt	LTP269	ltpFR2	16	14	TABLE	1426	n/a	n/a	0	0	0
2794685	REC_WORD	wordpools/wasnorm_wordpool_576.txt	LTP269	ltpFR2	16	14	WIFE	1609	n/a	n/a	0	0	0
2795575	REC_WORD	wordpools/wasnorm_wordpool_576.txt	LTP269	ltpFR2	16	14	LADDER	793	n/a	n/a	0	0	0
2795995	REC_WORD	wordpools/wasnorm_wordpool_576.txt	LTP269	ltpFR2	16	14	FIREMAN	569	n/a	n/a	0	0	0
2796717	REC_WORD	wordpools/wasnorm_wordpool_576.txt	LTP269	ltpFR2	16	14	MATCH	878	n/a	n/a	0	0	0
2798796	REC_WORD	wordpools/wasnorm_wordpool_576.txt	LTP269	ltpFR2	16	14	SERVANT	1271	n/a	n/a	0	0	0
2799506	REC_WORD	wordpools/wasnorm_wordpool_576.txt	LTP269	ltpFR2	16	14	GIRL	637	n/a	n/a	0	0	0
2801021	REC_WORD	wordpools/wasnorm_wordpool_576.txt	LTP269	ltpFR2	16	14	MUSTARD	935	n/a	n/a	0	0	0
2803347	REC_WORD	wordpools/wasnorm_wordpool_576.txt	LTP269	ltpFR2	16	14	COUNTRY	388	n/a	n/a	0	0	0
2804081	REC_WORD	wordpools/wasnorm_wordpool_576.txt	LTP269	ltpFR2	16	14	BANJO	82	n/a	n/a	0	0	0
2806651	REC_WORD	wordpools/wasnorm_wordpool_576.txt	LTP269	ltpFR2	16	14	BROAD	-1	n/a	n/a	0	0	0
2879662	DISTRACTOR	n/a	LTP269	ltpFR2	16	15	n/a	n/a	n/a	n/a	0	0	0
2879662	START	n/a	LTP269	ltpFR2	16	n/a	n/a	n/a	20	n/a	n/a	n/a	n/a
2879677	PROB	n/a	LTP269	ltpFR2	16	n/a	n/a	n/a	20	18	8	3	7
2880910	PROB	n/a	LTP269	ltpFR2	16	n/a	n/a	n/a	20	8	4	1	3
2882880	PROB	n/a	LTP269	ltpFR2	16	n/a	n/a	n/a	20	16	5	5	6
2884181	PROB	n/a	LTP269	ltpFR2	16	n/a	n/a	n/a	20	9	2	1	6
2886098	PROB	n/a	LTP269	ltpFR2	16	n/a	n/a	n/a	20	12	2	6	4
2887285	PROB	n/a	LTP269	ltpFR2	16	n/a	n/a	n/a	20	14	3	7	4
2889604	PROB	n/a	LTP269	ltpFR2	16	n/a	n/a	n/a	20	16	9	2	6
2892521	PROB	n/a	LTP269	ltpFR2	16	n/a	n/a	n/a	20	15	7	7	1
2895457	PROB	n/a	LTP269	ltpFR2	16	n/a	n/a	n/a	20	7	2	2	3
2898108	PROB	n/a	LTP269	ltpFR2	16	n/a	n/a	n/a	20	6	1	2	3
2899344	PROB	n/a	LTP269	ltpFR2	16	n/a	n/a	n/a	20	9	2	5	2
2901295	PROB	n/a	LTP269	ltpFR2	16	n/a	n/a	n/a	20	11	8	1	3
2902587	STOP	n/a	LTP269	ltpFR2	16	n/a	n/a	n/a	20	n/a	n/a	n/a	n/a
2904833	WORD	wordpools/wasnorm_wordpool_576.txt	LTP269	ltpFR2	16	15	CHIPMUNK	304	n/a	n/a	0	0	0
2907368	WORD	wordpools/wasnorm_wordpool_576.txt	LTP269	ltpFR2	16	15	HARP	689	n/a	n/a	0	0	0
2910085	WORD	wordpools/wasnorm_wordpool_576.txt	LTP269	ltpFR2	16	15	LEADER	807	n/a	n/a	0	0	0
2912772	WORD	wordpools/wasnorm_wordpool_576.txt	LTP269	ltpFR2	16	15	GAZELLE	628	n/a	n/a	0	0	0
2915391	WORD	wordpools/wasnorm_wordpool_576.txt	LTP269	ltpFR2	16	15	TOASTER	1472	n/a	n/a	0	0	0
2918210	WORD	wordpools/wasnorm_wordpool_576.txt	LTP269	ltpFR2	16	15	DORM	488	n/a	n/a	0	0	0
2920811	WORD	wordpools/wasnorm_wordpool_576.txt	LTP269	ltpFR2	16	15	BULLET	194	n/a	n/a	0	0	0
2923314	WORD	wordpools/wasnorm_wordpool_576.txt	LTP269	ltpFR2	16	15	STAPLE	1371	n/a	n/a	0	0	0
2925901	WORD	wordpools/wasnorm_wordpool_576.txt	LTP269	ltpFR2	16	15	RIVER	1194	n/a	n/a	0	0	0
2928585	WORD	wordpools/wasnorm_wordpool_576.txt	LTP269	ltpFR2	16	15	MARINE	869	n/a	n/a	0	0	0
2931052	WORD	wordpools/wasnorm_wordpool_576.txt	LTP269	ltpFR2	16	15	GLASS	639	n/a	n/a	0	0	0
2933522	WORD	wordpools/wasnorm_wordpool_576.txt	LTP269	ltpFR2	16	15	BEAVER	109	n/a	n/a	0	0	0
2936341	WORD	wordpools/wasnorm_wordpool_576.txt	LTP269	ltpFR2	16	15	DANCER	437	n/a	n/a	0	0	0
2938993	WORD	wordpools/wasnorm_wordpool_576.txt	LTP269	ltpFR2	16	15	PERFUME	1049	n/a	n/a	0	0	0
2941732	WORD	wordpools/wasnorm_wordpool_576.txt	LTP269	ltpFR2	16	15	BOUQUET	157	n/a	n/a	0	0	0
2944248	WORD	wordpools/wasnorm_wordpool_576.txt	LTP269	ltpFR2	16	15	RECEIPT	1173	n/a	n/a	0	0	0
2946999	WORD	wordpools/wasnorm_wordpool_576.txt	LTP269	ltpFR2	16	15	NAPKIN	937	n/a	n/a	0	0	0
2949468	WORD	wordpools/wasnorm_wordpool_576.txt	LTP269	ltpFR2	16	15	JOURNAL	760	n/a	n/a	0	0	0
2951907	WORD	wordpools/wasnorm_wordpool_576.txt	LTP269	ltpFR2	16	15	YOLK	1633	n/a	n/a	0	0	0
2954376	WORD	wordpools/wasnorm_wordpool_576.txt	LTP269	ltpFR2	16	15	BOARD	143	n/a	n/a	0	0	0
2957057	WORD	wordpools/wasnorm_wordpool_576.txt	LTP269	ltpFR2	16	15	SHELTER	1282	n/a	n/a	0	0	0
2959714	WORD	wordpools/wasnorm_wordpool_576.txt	LTP269	ltpFR2	16	15	BLADE	134	n/a	n/a	0	0	0
2962378	WORD	wordpools/wasnorm_wordpool_576.txt	LTP269	ltpFR2	16	15	PERMIT	1051	n/a	n/a	0	0	0
2965164	WORD	wordpools/wasnorm_wordpool_576.txt	LTP269	ltpFR2	16	15	IDOL	733	n/a	n/a	0	0	0
2966771	START	n/a	LTP269	ltpFR2	16	n/a	n/a	n/a	21	n/a	n/a	n/a	n/a
2967892	DISTRACTOR	n/a	LTP269	ltpFR2	16	15	n/a	n/a	n/a	n/a	0	0	0
2967899	PROB	n/a	LTP269	ltpFR2	16	n/a	n/a	n/a	21	13	2	3	8
2970018	PROB	n/a	LTP269	ltpFR2	16	n/a	n/a	n/a	21	10	4	1	5
2971602	PROB	n/a	LTP269	ltpFR2	16	n/a	n/a	n/a	21	20	5	8	7
2974338	PROB	n/a	LTP269	ltpFR2	16	n/a	n/a	n/a	21	18	4	6	8
2975705	PROB	n/a	LTP269	ltpFR2	16	n/a	n/a	n/a	21	12	2	7	3
2976839	PROB	n/a	LTP269	ltpFR2	16	n/a	n/a	n/a	21	7	3	3	1
2978308	PROB	n/a	LTP269	ltpFR2	16	n/a	n/a	n/a	21	9	1	5	3
2979542	PROB	n/a	LTP269	ltpFR2	16	n/a	n/a	n/a	21	7	2	3	2
2981576	PROB	n/a	LTP269	ltpFR2	16	n/a	n/a	n/a	21	13	6	3	4
2983511	PROB	n/a	LTP269	ltpFR2	16	n/a	n/a	n/a	21	18	6	6	6
2984779	PROB	n/a	LTP269	ltpFR2	16	n/a	n/a	n/a	21	23	7	8	8
2987664	PROB	n/a	LTP269	ltpFR2	16	n/a	n/a	n/a	21	16	7	7	2
2989671	STOP	n/a	LTP269	ltpFR2	16	n/a	n/a	n/a	21	n/a	n/a	n/a	n/a
2992637	REC_START	n/a	LTP269	ltpFR2	16	15	n/a	n/a	n/a	n/a	0	0	0
2994497	REC_WORD	wordpools/wasnorm_wordpool_576.txt	LTP269	ltpFR2	16	15	CHIPMUNK	304	n/a	n/a	0	0	0
2996266	REC_WORD	wordpools/wasnorm_wordpool_576.txt	LTP269	ltpFR2	16	15	HARP	689	n/a	n/a	0	0	0
2997143	REC_WORD	wordpools/wasnorm_wordpool_576.txt	LTP269	ltpFR2	16	15	LEADER	807	n/a	n/a	0	0	0
2998967	REC_WORD	wordpools/wasnorm_wordpool_576.txt	LTP269	ltpFR2	16	15	GAZELLE	628	n/a	n/a	0	0	0
3000630	REC_WORD	wordpools/wasnorm_wordpool_576.txt	LTP269	ltpFR2	16	15	MARINE	869	n/a	n/a	0	0	0
3001262	REC_WORD	wordpools/wasnorm_wordpool_576.txt	LTP269	ltpFR2	16	15	BEAVER	109	n/a	n/a	0	0	0
3001816	REC_WORD	wordpools/wasnorm_wordpool_576.txt	LTP269	ltpFR2	16	15	GLASS	639	n/a	n/a	0	0	0
3007165	REC_WORD	wordpools/wasnorm_wordpool_576.txt	LTP269	ltpFR2	16	15	PERMIT	1051	n/a	n/a	0	0	0
3008482	REC_WORD	wordpools/wasnorm_wordpool_576.txt	LTP269	ltpFR2	16	15	IDOL	733	n/a	n/a	0	0	0
3083074	WORD	wordpools/wasnorm_wordpool_576.txt	LTP269	ltpFR2	16	16	FIDDLE	561	n/a	n/a	0	0	0
3085724	WORD	wordpools/wasnorm_wordpool_576.txt	LTP269	ltpFR2	16	16	FUNGUS	614	n/a	n/a	0	0	0
3088226	WORD	wordpools/wasnorm_wordpool_576.txt	LTP269	ltpFR2	16	16	PRINCE	1124	n/a	n/a	0	0	0
3090761	WORD	wordpools/wasnorm_wordpool_576.txt	LTP269	ltpFR2	16	16	EYELASH	546	n/a	n/a	0	0	0
3093447	WORD	wordpools/wasnorm_wordpool_576.txt	LTP269	ltpFR2	16	16	GRAPE	654	n/a	n/a	0	0	0
3096102	WORD	wordpools/wasnorm_wordpool_576.txt	LTP269	ltpFR2	16	16	BRANDY	169	n/a	n/a	0	0	0
3098619	WORD	wordpools/wasnorm_wordpool_576.txt	LTP269	ltpFR2	16	16	POWDER	1117	n/a	n/a	0	0	0
3101321	WORD	wordpools/wasnorm_wordpool_576.txt	LTP269	ltpFR2	16	16	GYMNAST	675	n/a	n/a	0	0	0
3104072	WORD	wordpools/wasnorm_wordpool_576.txt	LTP269	ltpFR2	16	16	JUGGLER	763	n/a	n/a	0	0	0
3106759	WORD	wordpools/wasnorm_wordpool_576.txt	LTP269	ltpFR2	16	16	BLENDER	136	n/a	n/a	0	0	0
3109428	WORD	wordpools/wasnorm_wordpool_576.txt	LTP269	ltpFR2	16	16	MISSILE	900	n/a	n/a	0	0	0
3112082	WORD	wordpools/wasnorm_wordpool_576.txt	LTP269	ltpFR2	16	16	CUSTARD	429	n/a	n/a	0	0	0
3114548	WORD	wordpools/wasnorm_wordpool_576.txt	LTP269	ltpFR2	16	16	COOKBOOK	373	n/a	n/a	0	0	0
3117050	WORD	wordpools/wasnorm_wordpool_576.txt	LTP269	ltpFR2	16	16	SCISSORS	1250	n/a	n/a	0	0	0
3119703	WORD	wordpools/wasnorm_wordpool_576.txt	LTP269	ltpFR2	16	16	FRANCE	601	n/a	n/a	0	0	0
3122156	WORD	wordpools/wasnorm_wordpool_576.txt	LTP269	ltpFR2	16	16	PLASTER	1085	n/a	n/a	0	0	0
3124908	WORD	wordpools/wasnorm_wordpool_576.txt	LTP269	ltpFR2	16	16	WARDROBE	1587	n/a	n/a	0	0	0
3127493	WORD	wordpools/wasnorm_wordpool_576.txt	LTP269	ltpFR2	16	16	LUNCH	849	n/a	n/a	0	0	0
3130263	WORD	wordpools/wasnorm_wordpool_576.txt	LTP269	ltpFR2	16	16	VIKING	1565	n/a	n/a	0	0	0
3133081	WORD	wordpools/wasnorm_wordpool_576.txt	LTP269	ltpFR2	16	16	FLEET	578	n/a	n/a	0	0	0
3135668	WORD	wordpools/wasnorm_wordpool_576.txt	LTP269	ltpFR2	16	16	OUTFIT	988	n/a	n/a	0	0	0
3138220	WORD	wordpools/wasnorm_wordpool_576.txt	LTP269	ltpFR2	16	16	SALAD	1224	n/a	n/a	0	0	0
3140838	WORD	wordpools/wasnorm_wordpool_576.txt	LTP269	ltpFR2	16	16	ORCHID	982	n/a	n/a	0	0	0
3143374	WORD	wordpools/wasnorm_wordpool_576.txt	LTP269	ltpFR2	16	16	FILM	565	n/a	n/a	0	0	0
3144992	START	n/a	LTP269	ltpFR2	16	n/a	n/a	n/a	22	n/a	n/a	n/a	n/a
3145858	DISTRACTOR	n/a	LTP269	ltpFR2	16	16	n/a	n/a	n/a	n/a	0	0	0
3145876	PROB	n/a	LTP269	ltpFR2	16	n/a	n/a	n/a	22	16	7	4	5
3148510	PROB	n/a	LTP269	ltpFR2	16	n/a	n/a	n/a	22	19	5	6	8
3150530	PROB	n/a	LTP269	ltpFR2	16	n/a	n/a	n/a	22	9	3	5	1
3153080	PROB	n/a	LTP269	ltpFR2	16	n/a	n/a	n/a	22	14	1	6	7
3154414	PROB	n/a	LTP269	ltpFR2	16	n/a	n/a	n/a	22	15	1	7	7
3155550	PROB	n/a	LTP269	ltpFR2	16	n/a	n/a	n/a	22	9	2	5	2
3157033	PROB	n/a	LTP269	ltpFR2	16	n/a	n/a	n/a	22	15	3	6	6
3159487	PROB	n/a	LTP269	ltpFR2	16	n/a	n/a	n/a	22	19	9	2	8
3161204	PROB	n/a	LTP269	ltpFR2	16	n/a	n/a	n/a	22	19	9	2	8
3162221	PROB	n/a	LTP269	ltpFR2	16	n/a	n/a	n/a	22	19	8	5	6
3163772	PROB	n/a	LTP269	ltpFR2	16	n/a	n/a	n/a	22	20	7	6	7
3166525	PROB	n/a	LTP269	ltpFR2	16	n/a	n/a	n/a	22	13	9	1	3
3167950	STOP	n/a	LTP269	ltpFR2	16	n/a	n/a	n/a	22	n/a	n/a	n/a	n/a
3170830	REC_START	n/a	LTP269	ltpFR2	16	16	n/a	n/a	n/a	n/a	0	0	0
3173227	REC_WORD	wordpools/wasnorm_wordpool_576.txt	LTP269	ltpFR2	16	16	VIKING	1565	n/a	n/a	0	0	0
3173847	REC_WORD	wordpools/wasnorm_wordpool_576.txt	LTP269	ltpFR2	16	16	FLEET	578	n/a	n/a	0	0	0
3174334	REC_WORD	wordpools/wasnorm_wordpool_576.txt	LTP269	ltpFR2	16	16	ORCHID	982	n/a	n/a	0	0	0
3174763	REC_WORD	wordpools/wasnorm_wordpool_576.txt	LTP269	ltpFR2	16	16	SALAD	1224	n/a	n/a	0	0	0
3176170	REC_WORD	wordpools/wasnorm_wordpool_576.txt	LTP269	ltpFR2	16	16	FILM	565	n/a	n/a	0	0	0
3247358	REST_REWET	n/a	LTP269	ltpFR2	16	16	n/a	n/a	n/a	n/a	0	0	0
3423867	DISTRACTOR	n/a	LTP269	ltpFR2	16	17	n/a	n/a	n/a	n/a	0	0	0
3423867	START	n/a	LTP269	ltpFR2	16	n/a	n/a	n/a	23	n/a	n/a	n/a	n/a
3423882	PROB	n/a	LTP269	ltpFR2	16	n/a	n/a	n/a	23	14	7	5	2
3425599	PROB	n/a	LTP269	ltpFR2	16	n/a	n/a	n/a	23	11	1	3	7
3427201	PROB	n/a	LTP269	ltpFR2	16	n/a	n/a	n/a	23	19	6	9	4
3429352	PROB	n/a	LTP269	ltpFR2	16	n/a	n/a	n/a	23	9	1	5	3
3430753	PROB	n/a	LTP269	ltpFR2	16	n/a	n/a	n/a	23	7	2	4	1
3433605	PROB	n/a	LTP269	ltpFR2	16	n/a	n/a	n/a	23	22	8	6	8
3435276	PROB	n/a	LTP269	ltpFR2	16	n/a	n/a	n/a	23	25	7	9	9
3437425	PROB	n/a	LTP269	ltpFR2	16	n/a	n/a	n/a	23	17	6	2	9
3439560	PROB	n/a	LTP269	ltpFR2	16	n/a	n/a	n/a	23	15	8	1	6
3440845	PROB	n/a	LTP269	ltpFR2	16	n/a	n/a	n/a	23	7	3	1	3
3442262	PROB	n/a	LTP269	ltpFR2	16	n/a	n/a	n/a	23	1	2	3	8
3444314	PROB	n/a	LTP269	ltpFR2	16	n/a	n/a	n/a	23	8	1	4	3
3447867	STOP	n/a	LTP269	ltpFR2	16	n/a	n/a	n/a	23	n/a	n/a	n/a	n/a
3448874	WORD	wordpools/wasnorm_wordpool_576.txt	LTP269	ltpFR2	16	17	SPARROW	1347	n/a	n/a	0	0	0
3451321	WORD	wordpools/wasnorm_wordpool_576.txt	LTP269	ltpFR2	16	17	SLIME	1327	n/a	n/a	0	0	0
3454072	WORD	wordpools/wasnorm_wordpool_576.txt	LTP269	ltpFR2	16	17	HANDBAG	684	n/a	n/a	0	0	0
3456776	WORD	wordpools/wasnorm_wordpool_576.txt	LTP269	ltpFR2	16	17	THIEF	1456	n/a	n/a	0	0	0
3459416	WORD	wordpools/wasnorm_wordpool_576.txt	LTP269	ltpFR2	16	17	CHAMPAGNE	278	n/a	n/a	0	0	0
3462129	WORD	wordpools/wasnorm_wordpool_576.txt	LTP269	ltpFR2	16	17	APRON	35	n/a	n/a	0	0	0
3464666	WORD	wordpools/wasnorm_wordpool_576.txt	LTP269	ltpFR2	16	17	COOK	372	n/a	n/a	0	0	0
3467089	WORD	wordpools/wasnorm_wordpool_576.txt	LTP269	ltpFR2	16	17	BISON	131	n/a	n/a	0	0	0
3469609	WORD	wordpools/wasnorm_wordpool_576.txt	LTP269	ltpFR2	16	17	ULCER	1533	n/a	n/a	0	0	0
3472104	WORD	wordpools/wasnorm_wordpool_576.txt	LTP269	ltpFR2	16	17	PEANUT	1032	n/a	n/a	0	0	0
3474657	WORD	wordpools/wasnorm_wordpool_576.txt	LTP269	ltpFR2	16	17	SCULPTURE	1258	n/a	n/a	0	0	0
3477359	WORD	wordpools/wasnorm_wordpool_576.txt	LTP269	ltpFR2	16	17	SCRIBBLE	1256	n/a	n/a	0	0	0
3479851	WORD	wordpools/wasnorm_wordpool_576.txt	LTP269	ltpFR2	16	17	PORTRAIT	1111	n/a	n/a	0	0	0
3482646	WORD	wordpools/wasnorm_wordpool_576.txt	LTP269	ltpFR2	16	17	SKETCH	1315	n/a	n/a	0	0	0
3485064	WORD	wordpools/wasnorm_wordpool_576.txt	LTP269	ltpFR2	16	17	VELVET	1555	n/a	n/a	0	0	0
3487807	WORD	wordpools/wasnorm_wordpool_576.txt	LTP269	ltpFR2	16	17	COTTAGE	384	n/a	n/a	0	0	0
3490370	WORD	wordpools/wasnorm_wordpool_576.txt	LTP269	ltpFR2	16	17	GUARD	667	n/a	n/a	0	0	0
3493070	WORD	wordpools/wasnorm_wordpool_576.txt	LTP269	ltpFR2	16	17	PLATE	1086	n/a	n/a	0	0	0
3495574	WORD	wordpools/wasnorm_wordpool_576.txt	LTP269	ltpFR2	16	17	CASHEW	253	n/a	n/a	0	0	0
3498099	WORD	wordpools/wasnorm_wordpool_576.txt	LTP269	ltpFR2	16	17	SHERIFF	1284	n/a	n/a	0	0	0
3500669	WORD	wordpools/wasnorm_wordpool_576.txt	LTP269	ltpFR2	16	17	LAGOON	795	n/a	n/a	0	0	0
3503204	WORD	wordpools/wasnorm_wordpool_576.txt	LTP269	ltpFR2	16	17	BARREL	91	n/a	n/a	0	0	0
3505806	WORD	wordpools/wasnorm_wordpool_576.txt	LTP269	ltpFR2	16	17	KIDNEY	776	n/a	n/a	0	0	0
3508409	WORD	wordpools/wasnorm_wordpool_576.txt	LTP269	ltpFR2	16	17	STAMP	1370	n/a	n/a	0	0	0
3510019	START	n/a	LTP269	ltpFR2	16	n/a	n/a	n/a	24	n/a	n/a	n/a	n/a
3510926	DISTRACTOR	n/a	LTP269	ltpFR2	16	17	n/a	n/a	n/a	n/a	0	0	0
3510935	PROB	n/a	LTP269	ltpFR2	16	n/a	n/a	n/a	24	17	6	3	8
3512570	PROB	n/a	LTP269	ltpFR2	16	n/a	n/a	n/a	24	8	3	4	1
3513737	PROB	n/a	LTP269	ltpFR2	16	n/a	n/a	n/a	24	9	3	5	1
3514938	PROB	n/a	LTP269	ltpFR2	16	n/a	n/a	n/a	24	20	7	5	8
3516707	PROB	n/a	LTP269	ltpFR2	16	n/a	n/a	n/a	24	9	1	6	2
3517775	PROB	n/a	LTP269	ltpFR2	16	n/a	n/a	n/a	24	17	7	7	3
3520793	PROB	n/a	LTP269	ltpFR2	16	n/a	n/a	n/a	24	22	9	6	7
3524445	PROB	n/a	LTP269	ltpFR2	16	n/a	n/a	n/a	24	19	8	8	3
3526830	PROB	n/a	LTP269	ltpFR2	16	n/a	n/a	n/a	24	17	7	5	5
3528232	PROB	n/a	LTP269	ltpFR2	16	n/a	n/a	n/a	24	19	9	2	8
3529567	PROB	n/a	LTP269	ltpFR2	16	n/a	n/a	n/a	24	17	3	8	6
3531935	PROB	n/a	LTP269	ltpFR2	16	n/a	n/a	n/a	24	14	2	5	7
3533813	STOP	n/a	LTP269	ltpFR2	16	n/a	n/a	n/a	24	n/a	n/a	n/a	n/a
3535906	REC_START	n/a	LTP269	ltpFR2	16	17	n/a	n/a	n/a	n/a	0	0	0
3537093	REC_WORD	wordpools/wasnorm_wordpool_576.txt	LTP269	ltpFR2	16	17	SPARROW	1347	n/a	n/a	0	0	0
3547284	REC_WORD	wordpools/wasnorm_wordpool_576.txt	LTP269	ltpFR2	16	17	LAGOON	795	n/a	n/a	0	0	0
3547957	REC_WORD	wordpools/wasnorm_wordpool_576.txt	LTP269	ltpFR2	16	17	SHERIFF	1284	n/a	n/a	0	0	0
3549806	REC_WORD	wordpools/wasnorm_wordpool_576.txt	LTP269	ltpFR2	16	17	BARREL	91	n/a	n/a	0	0	0
3550855	REC_WORD	wordpools/wasnorm_wordpool_576.txt	LTP269	ltpFR2	16	17	KIDNEY	776	n/a	n/a	0	0	0
3551924	REC_WORD	wordpools/wasnorm_wordpool_576.txt	LTP269	ltpFR2	16	17	STAMP	1370	n/a	n/a	0	0	0
3626363	DISTRACTOR	n/a	LTP269	ltpFR2	16	18	n/a	n/a	n/a	n/a	0	0	0
3626363	START	n/a	LTP269	ltpFR2	16	n/a	n/a	n/a	25	n/a	n/a	n/a	n/a
3626377	PROB	n/a	LTP269	ltpFR2	16	n/a	n/a	n/a	25	20	9	7	4
3627879	PROB	n/a	LTP269	ltpFR2	16	n/a	n/a	n/a	25	17	8	6	3
3629730	PROB	n/a	LTP269	ltpFR2	16	n/a	n/a	n/a	25	13	7	2	4
3631514	PROB	n/a	LTP269	ltpFR2	16	n/a	n/a	n/a	25	13	3	8	2
3633032	PROB	n/a	LTP269	ltpFR2	16	n/a	n/a	n/a	25	10	4	4	2
3635017	PROB	n/a	LTP269	ltpFR2	16	n/a	n/a	n/a	25	17	9	4	4
3638104	PROB	n/a	LTP269	ltpFR2	16	n/a	n/a	n/a	25	13	4	3	6
3639655	PROB	n/a	LTP269	ltpFR2	16	n/a	n/a	n/a	25	8	1	5	2
3642240	PROB	n/a	LTP269	ltpFR2	16	n/a	n/a	n/a	25	18	1	9	8
3643792	PROB	n/a	LTP269	ltpFR2	16	n/a	n/a	n/a	25	11	4	6	1
3645276	PROB	n/a	LTP269	ltpFR2	16	n/a	n/a	n/a	25	20	9	7	4
3646843	PROB	n/a	LTP269	ltpFR2	16	n/a	n/a	n/a	25	9	3	5	1
3648195	PROB	n/a	LTP269	ltpFR2	16	n/a	n/a	n/a	25	11	4	2	5
3649714	STOP	n/a	LTP269	ltpFR2	16	n/a	n/a	n/a	25	n/a	n/a	n/a	n/a
3651348	WORD	wordpools/wasnorm_wordpool_576.txt	LTP269	ltpFR2	16	18	TUNNEL	1519	n/a	n/a	0	0	0
3654167	WORD	wordpools/wasnorm_wordpool_576.txt	LTP269	ltpFR2	16	18	DUST	508	n/a	n/a	0	0	0
3656703	WORD	wordpools/wasnorm_wordpool_576.txt	LTP269	ltpFR2	16	18	PERCH	1048	n/a	n/a	0	0	0
3659488	WORD	wordpools/wasnorm_wordpool_576.txt	LTP269	ltpFR2	16	18	SUBWAY	1400	n/a	n/a	0	0	0
3662106	WORD	wordpools/wasnorm_wordpool_576.txt	LTP269	ltpFR2	16	18	BABY	64	n/a	n/a	0	0	0
3664893	WORD	wordpools/wasnorm_wordpool_576.txt	LTP269	ltpFR2	16	18	BEEF	113	n/a	n/a	0	0	0
3667444	WORD	wordpools/wasnorm_wordpool_576.txt	LTP269	ltpFR2	16	18	HEDGE	699	n/a	n/a	0	0	0
3669897	WORD	wordpools/wasnorm_wordpool_576.txt	LTP269	ltpFR2	16	18	FLASHLIGHT	575	n/a	n/a	0	0	0
3672636	WORD	wordpools/wasnorm_wordpool_576.txt	LTP269	ltpFR2	16	18	NOTEBOOK	959	n/a	n/a	0	0	0
3675351	WORD	wordpools/wasnorm_wordpool_576.txt	LTP269	ltpFR2	16	18	HOUND	724	n/a	n/a	0	0	0
3677853	WORD	wordpools/wasnorm_wordpool_576.txt	LTP269	ltpFR2	16	18	RABBIT	1152	n/a	n/a	0	0	0
3680355	WORD	wordpools/wasnorm_wordpool_576.txt	LTP269	ltpFR2	16	18	STALLION	1369	n/a	n/a	0	0	0
3682807	WORD	wordpools/wasnorm_wordpool_576.txt	LTP269	ltpFR2	16	18	COWBOY	395	n/a	n/a	0	0	0
3685429	WORD	wordpools/wasnorm_wordpool_576.txt	LTP269	ltpFR2	16	18	CROWN	415	n/a	n/a	0	0	0
3687894	WORD	wordpools/wasnorm_wordpool_576.txt	LTP269	ltpFR2	16	18	PEDAL	1037	n/a	n/a	0	0	0
3690685	WORD	wordpools/wasnorm_wordpool_576.txt	LTP269	ltpFR2	16	18	MESSAGE	888	n/a	n/a	0	0	0
3693299	WORD	wordpools/wasnorm_wordpool_576.txt	LTP269	ltpFR2	16	18	RELISH	1183	n/a	n/a	0	0	0
3695951	WORD	wordpools/wasnorm_wordpool_576.txt	LTP269	ltpFR2	16	18	KETCHUP	771	n/a	n/a	0	0	0
3698753	WORD	wordpools/wasnorm_wordpool_576.txt	LTP269	ltpFR2	16	18	ASIA	46	n/a	n/a	0	0	0
3701389	WORD	wordpools/wasnorm_wordpool_576.txt	LTP269	ltpFR2	16	18	FOREST	593	n/a	n/a	0	0	0
3703907	WORD	wordpools/wasnorm_wordpool_576.txt	LTP269	ltpFR2	16	18	HATCHET	691	n/a	n/a	0	0	0
3706615	WORD	wordpools/wasnorm_wordpool_576.txt	LTP269	ltpFR2	16	18	BIKE	125	n/a	n/a	0	0	0
3709301	WORD	wordpools/wasnorm_wordpool_576.txt	LTP269	ltpFR2	16	18	MACHINE	852	n/a	n/a	0	0	0
3712085	WORD	wordpools/wasnorm_wordpool_576.txt	LTP269	ltpFR2	16	18	JAPAN	749	n/a	n/a	0	0	0
3713699	START	n/a	LTP269	ltpFR2	16	n/a	n/a	n/a	26	n/a	n/a	n/a	n/a
3714699	DISTRACTOR	n/a	LTP269	ltpFR2	16	18	n/a	n/a	n/a	n/a	0	0	0
3714705	PROB	n/a	LTP269	ltpFR2	16	n/a	n/a	n/a	26	5	1	3	1
3716016	PROB	n/a	LTP269	ltpFR2	16	n/a	n/a	n/a	26	16	9	4	2
3717518	PROB	n/a	LTP269	ltpFR2	16	n/a	n/a	n/a	26	25	9	8	8
3720067	PROB	n/a	LTP269	ltpFR2	16	n/a	n/a	n/a	26	14	7	5	2
3722053	PROB	n/a	LTP269	ltpFR2	16	n/a	n/a	n/a	26	21	9	3	9
3723805	PROB	n/a	LTP269	ltpFR2	16	n/a	n/a	n/a	26	12	3	6	3
3725892	PROB	n/a	LTP269	ltpFR2	16	n/a	n/a	n/a	26	19	7	6	6
3727859	PROB	n/a	LTP269	ltpFR2	16	n/a	n/a	n/a	26	23	9	9	5
3729644	PROB	n/a	LTP269	ltpFR2	16	n/a	n/a	n/a	26	20	8	3	9
3731679	PROB	n/a	LTP269	ltpFR2	16	n/a	n/a	n/a	26	16	5	8	3
3733379	PROB	n/a	LTP269	ltpFR2	16	n/a	n/a	n/a	26	19	8	2	7
3737699	STOP	n/a	LTP269	ltpFR2	16	n/a	n/a	n/a	26	n/a	n/a	n/a	n/a
3739535	REC_START	n/a	LTP269	ltpFR2	16	18	n/a	n/a	n/a	n/a	0	0	0
3742260	REC_WORD	wordpools/wasnorm_wordpool_576.txt	LTP269	ltpFR2	16	18	TUNNEL	1519	n/a	n/a	0	0	0
3743070	REC_WORD	wordpools/wasnorm_wordpool_576.txt	LTP269	ltpFR2	16	18	DUSTY	-1	n/a	n/a	0	0	0
3743825	REC_WORD	wordpools/wasnorm_wordpool_576.txt	LTP269	ltpFR2	16	18	PERCH	1048	n/a	n/a	0	0	0
3744963	REC_WORD	wordpools/wasnorm_wordpool_576.txt	LTP269	ltpFR2	16	18	BABY	64	n/a	n/a	0	0	0
3746402	REC_WORD	wordpools/wasnorm_wordpool_576.txt	LTP269	ltpFR2	16	18	BEEF	113	n/a	n/a	0	0	0
3748582	REC_WORD	wordpools/wasnorm_wordpool_576.txt	LTP269	ltpFR2	16	18	HEDGE	699	n/a	n/a	0	0	0
3751493	REC_WORD	wordpools/wasnorm_wordpool_576.txt	LTP269	ltpFR2	16	18	FLASHLIGHT	575	n/a	n/a	0	0	0
3753278	REC_WORD	wordpools/wasnorm_wordpool_576.txt	LTP269	ltpFR2	16	18	NOTEBOOK	959	n/a	n/a	0	0	0
3755781	REC_WORD	wordpools/wasnorm_wordpool_576.txt	LTP269	ltpFR2	16	18	HOUND	724	n/a	n/a	0	0	0
3757395	REC_WORD	wordpools/wasnorm_wordpool_576.txt	LTP269	ltpFR2	16	18	RABBIT	1152	n/a	n/a	0	0	0
3758206	REC_WORD	wordpools/wasnorm_wordpool_576.txt	LTP269	ltpFR2	16	18	STALLION	1369	n/a	n/a	0	0	0
3759431	REC_WORD	wordpools/wasnorm_wordpool_576.txt	LTP269	ltpFR2	16	18	COWBOY	395	n/a	n/a	0	0	0
3762087	REC_WORD	wordpools/wasnorm_wordpool_576.txt	LTP269	ltpFR2	16	18	MESSAGE	888	n/a	n/a	0	0	0
3763434	REC_WORD	wordpools/wasnorm_wordpool_576.txt	LTP269	ltpFR2	16	18	RELISH	1183	n/a	n/a	0	0	0
3764566	REC_WORD	wordpools/wasnorm_wordpool_576.txt	LTP269	ltpFR2	16	18	KETCHUP	771	n/a	n/a	0	0	0
3766156	REC_WORD	wordpools/wasnorm_wordpool_576.txt	LTP269	ltpFR2	16	18	ASIA	46	n/a	n/a	0	0	0
3769117	REC_WORD	wordpools/wasnorm_wordpool_576.txt	LTP269	ltpFR2	16	18	JAPAN	749	n/a	n/a	0	0	0
3770413	REC_WORD	wordpools/wasnorm_wordpool_576.txt	LTP269	ltpFR2	16	18	MACHINE	852	n/a	n/a	0	0	0
3772019	REC_WORD	wordpools/wasnorm_wordpool_576.txt	LTP269	ltpFR2	16	18	BICYCLE	-1	n/a	n/a	0	0	0
3773176	REC_WORD_VV	wordpools/wasnorm_wordpool_576.txt	LTP269	ltpFR2	16	18	<>	-1	n/a	n/a	0	0	0
3773321	REC_WORD	wordpools/wasnorm_wordpool_576.txt	LTP269	ltpFR2	16	18	BIKE	125	n/a	n/a	0	0	0
3829977	DISTRACTOR	n/a	LTP269	ltpFR2	16	19	n/a	n/a	n/a	n/a	0	0	0
3829977	START	n/a	LTP269	ltpFR2	16	n/a	n/a	n/a	27	n/a	n/a	n/a	n/a
3829990	PROB	n/a	LTP269	ltpFR2	16	n/a	n/a	n/a	27	8	6	1	1
3831275	PROB	n/a	LTP269	ltpFR2	16	n/a	n/a	n/a	27	22	9	5	8
3834025	PROB	n/a	LTP269	ltpFR2	16	n/a	n/a	n/a	27	20	8	4	8
3836076	PROB	n/a	LTP269	ltpFR2	16	n/a	n/a	n/a	27	18	3	7	8
3837530	PROB	n/a	LTP269	ltpFR2	16	n/a	n/a	n/a	27	22	9	9	4
3838981	PROB	n/a	LTP269	ltpFR2	16	n/a	n/a	n/a	27	15	4	9	2
3841115	PROB	n/a	LTP269	ltpFR2	16	n/a	n/a	n/a	27	14	4	8	2
3843134	PROB	n/a	LTP269	ltpFR2	16	n/a	n/a	n/a	27	20	8	4	8
3845385	PROB	n/a	LTP269	ltpFR2	16	n/a	n/a	n/a	27	26	9	9	8
3847338	PROB	n/a	LTP269	ltpFR2	16	n/a	n/a	n/a	27	11	1	8	2
3849473	PROB	n/a	LTP269	ltpFR2	16	n/a	n/a	n/a	27	11	3	4	4
3851073	PROB	n/a	LTP269	ltpFR2	16	n/a	n/a	n/a	27	2	9	9	2
3853434	STOP	n/a	LTP269	ltpFR2	16	n/a	n/a	n/a	27	n/a	n/a	n/a	n/a
3855093	WORD	wordpools/wasnorm_wordpool_576.txt	LTP269	ltpFR2	16	19	ICING	732	n/a	n/a	0	0	0
3857613	WORD	wordpools/wasnorm_wordpool_576.txt	LTP269	ltpFR2	16	19	PASTRY	1022	n/a	n/a	0	0	0
3860399	WORD	wordpools/wasnorm_wordpool_576.txt	LTP269	ltpFR2	16	19	NOMAD	955	n/a	n/a	0	0	0
3862952	WORD	wordpools/wasnorm_wordpool_576.txt	LTP269	ltpFR2	16	19	BATHTUB	100	n/a	n/a	0	0	0
3865620	WORD	wordpools/wasnorm_wordpool_576.txt	LTP269	ltpFR2	16	19	TART	1436	n/a	n/a	0	0	0
3868389	WORD	wordpools/wasnorm_wordpool_576.txt	LTP269	ltpFR2	16	19	CHEST	295	n/a	n/a	0	0	0
3871040	WORD	wordpools/wasnorm_wordpool_576.txt	LTP269	ltpFR2	16	19	MOP	916	n/a	n/a	0	0	0
3873593	WORD	wordpools/wasnorm_wordpool_576.txt	LTP269	ltpFR2	16	19	CONVICT	371	n/a	n/a	0	0	0
3876162	WORD	wordpools/wasnorm_wordpool_576.txt	LTP269	ltpFR2	16	19	BANK	83	n/a	n/a	0	0	0
3878881	WORD	wordpools/wasnorm_wordpool_576.txt	LTP269	ltpFR2	16	19	HEADBAND	696	n/a	n/a	0	0	0
3881583	WORD	wordpools/wasnorm_wordpool_576.txt	LTP269	ltpFR2	16	19	PROTON	1132	n/a	n/a	0	0	0
3884084	WORD	wordpools/wasnorm_wordpool_576.txt	LTP269	ltpFR2	16	19	DONKEY	484	n/a	n/a	0	0	0
3886755	WORD	wordpools/wasnorm_wordpool_576.txt	LTP269	ltpFR2	16	19	COFFEE	341	n/a	n/a	0	0	0
3889456	WORD	wordpools/wasnorm_wordpool_576.txt	LTP269	ltpFR2	16	19	ROBOT	1200	n/a	n/a	0	0	0
3892075	WORD	wordpools/wasnorm_wordpool_576.txt	LTP269	ltpFR2	16	19	TOURIST	1488	n/a	n/a	0	0	0
3894743	WORD	wordpools/wasnorm_wordpool_576.txt	LTP269	ltpFR2	16	19	ATOM	55	n/a	n/a	0	0	0
3897296	WORD	wordpools/wasnorm_wordpool_576.txt	LTP269	ltpFR2	16	19	CRICKET	408	n/a	n/a	0	0	0
3899748	WORD	wordpools/wasnorm_wordpool_576.txt	LTP269	ltpFR2	16	19	COCOON	339	n/a	n/a	0	0	0
3902350	WORD	wordpools/wasnorm_wordpool_576.txt	LTP269	ltpFR2	16	19	SKILLET	1317	n/a	n/a	0	0	0
3905118	WORD	wordpools/wasnorm_wordpool_576.txt	LTP269	ltpFR2	16	19	GUITAR	670	n/a	n/a	0	0	0
3907854	WORD	wordpools/wasnorm_wordpool_576.txt	LTP269	ltpFR2	16	19	MASK	876	n/a	n/a	0	0	0
3910540	WORD	wordpools/wasnorm_wordpool_576.txt	LTP269	ltpFR2	16	19	PISTON	1076	n/a	n/a	0	0	0
3913342	WORD	wordpools/wasnorm_wordpool_576.txt	LTP269	ltpFR2	16	19	PISTOL	1075	n/a	n/a	0	0	0
3916080	WORD	wordpools/wasnorm_wordpool_576.txt	LTP269	ltpFR2	16	19	PORK	1108	n/a	n/a	0	0	0
3917697	START	n/a	LTP269	ltpFR2	16	n/a	n/a	n/a	28	n/a	n/a	n/a	n/a
3918797	DISTRACTOR	n/a	LTP269	ltpFR2	16	19	n/a	n/a	n/a	n/a	0	0	0
3918813	PROB	n/a	LTP269	ltpFR2	16	n/a	n/a	n/a	28	12	2	2	8
3920047	PROB	n/a	LTP269	ltpFR2	16	n/a	n/a	n/a	28	16	5	2	9
3923432	PROB	n/a	LTP269	ltpFR2	16	n/a	n/a	n/a	28	20	5	9	6
3927134	PROB	n/a	LTP269	ltpFR2	16	n/a	n/a	n/a	28	11	6	3	2
3928954	PROB	n/a	LTP269	ltpFR2	16	n/a	n/a	n/a	28	13	7	5	1
3930205	PROB	n/a	LTP269	ltpFR2	16	n/a	n/a	n/a	28	9	9	3	7
3932089	PROB	n/a	LTP269	ltpFR2	16	n/a	n/a	n/a	28	8	1	5	2
3934692	PROB	n/a	LTP269	ltpFR2	16	n/a	n/a	n/a	28	20	9	7	4
3936109	PROB	n/a	LTP269	ltpFR2	16	n/a	n/a	n/a	28	19	8	3	8
3937744	PROB	n/a	LTP269	ltpFR2	16	n/a	n/a	n/a	28	10	2	6	2
3939127	PROB	n/a	LTP269	ltpFR2	16	n/a	n/a	n/a	28	9	4	2	3
3941333	STOP	n/a	LTP269	ltpFR2	16	n/a	n/a	n/a	28	n/a	n/a	n/a	n/a
3943499	REC_START	n/a	LTP269	ltpFR2	16	19	n/a	n/a	n/a	n/a	0	0	0
3945299	REC_WORD	wordpools/wasnorm_wordpool_576.txt	LTP269	ltpFR2	16	19	ICING	732	n/a	n/a	0	0	0
3945800	REC_WORD	wordpools/wasnorm_wordpool_576.txt	LTP269	ltpFR2	16	19	PASTRY	1022	n/a	n/a	0	0	0
3946564	REC_WORD	wordpools/wasnorm_wordpool_576.txt	LTP269	ltpFR2	16	19	NOMAD	955	n/a	n/a	0	0	0
3948455	REC_WORD	wordpools/wasnorm_wordpool_576.txt	LTP269	ltpFR2	16	19	MOP	916	n/a	n/a	0	0	0
3948976	REC_WORD	wordpools/wasnorm_wordpool_576.txt	LTP269	ltpFR2	16	19	CHEST	295	n/a	n/a	0	0	0
3949489	REC_WORD	wordpools/wasnorm_wordpool_576.txt	LTP269	ltpFR2	16	19	BATH	98	n/a	n/a	0	0	0
3952297	REC_WORD	wordpools/wasnorm_wordpool_576.txt	LTP269	ltpFR2	16	19	TART	1436	n/a	n/a	0	0	0
3954107	REC_WORD	wordpools/wasnorm_wordpool_576.txt	LTP269	ltpFR2	16	19	BATHTUB	100	n/a	n/a	0	0	0
3956079	REC_WORD_VV	wordpools/wasnorm_wordpool_576.txt	LTP269	ltpFR2	16	19	<>	-1	n/a	n/a	0	0	0
3960531	REC_WORD	wordpools/wasnorm_wordpool_576.txt	LTP269	ltpFR2	16	19	HEADBAND	696	n/a	n/a	0	0	0
3964014	REC_WORD	wordpools/wasnorm_wordpool_576.txt	LTP269	ltpFR2	16	19	CONVICT	371	n/a	n/a	0	0	0
4033922	DISTRACTOR	n/a	LTP269	ltpFR2	16	20	n/a	n/a	n/a	n/a	0	0	0
4033923	START	n/a	LTP269	ltpFR2	16	n/a	n/a	n/a	29	n/a	n/a	n/a	n/a
4033938	PROB	n/a	LTP269	ltpFR2	16	n/a	n/a	n/a	29	24	8	9	7
4036891	PROB	n/a	LTP269	ltpFR2	16	n/a	n/a	n/a	29	13	6	1	6
4038242	PROB	n/a	LTP269	ltpFR2	16	n/a	n/a	n/a	29	22	8	5	9
4040476	PROB	n/a	LTP269	ltpFR2	16	n/a	n/a	n/a	29	20	8	3	6
4042841	PROB	n/a	LTP269	ltpFR2	16	n/a	n/a	n/a	29	12	2	8	2
4046549	PROB	n/a	LTP269	ltpFR2	16	n/a	n/a	n/a	29	13	1	5	7
4048066	PROB	n/a	LTP269	ltpFR2	16	n/a	n/a	n/a	29	5	1	3	1
4050084	PROB	n/a	LTP269	ltpFR2	16	n/a	n/a	n/a	29	12	3	3	6
4051364	PROB	n/a	LTP269	ltpFR2	16	n/a	n/a	n/a	29	15	4	8	3
4053048	PROB	n/a	LTP269	ltpFR2	16	n/a	n/a	n/a	29	13	3	2	8
4054505	PROB	n/a	LTP269	ltpFR2	16	n/a	n/a	n/a	29	13	3	3	7
4056826	STOP	n/a	LTP269	ltpFR2	16	n/a	n/a	n/a	29	n/a	n/a	n/a	n/a
4058873	WORD	wordpools/wasnorm_wordpool_576.txt	LTP269	ltpFR2	16	20	BRAKE	166	n/a	n/a	0	0	0
4061591	WORD	wordpools/wasnorm_wordpool_576.txt	LTP269	ltpFR2	16	20	DRUG	501	n/a	n/a	0	0	0
4064076	WORD	wordpools/wasnorm_wordpool_576.txt	LTP269	ltpFR2	16	20	STONE	1385	n/a	n/a	0	0	0
4066628	WORD	wordpools/wasnorm_wordpool_576.txt	LTP269	ltpFR2	16	20	LADY	794	n/a	n/a	0	0	0
4069148	WORD	wordpools/wasnorm_wordpool_576.txt	LTP269	ltpFR2	16	20	SWITCH	1422	n/a	n/a	0	0	0
4071886	WORD	wordpools/wasnorm_wordpool_576.txt	LTP269	ltpFR2	16	20	MARS	873	n/a	n/a	0	0	0
4074569	WORD	wordpools/wasnorm_wordpool_576.txt	LTP269	ltpFR2	16	20	TRANSPLANT	1496	n/a	n/a	0	0	0
4077288	WORD	wordpools/wasnorm_wordpool_576.txt	LTP269	ltpFR2	16	20	MISTER	901	n/a	n/a	0	0	0
4079874	WORD	wordpools/wasnorm_wordpool_576.txt	LTP269	ltpFR2	16	20	MARROW	872	n/a	n/a	0	0	0
4082476	WORD	wordpools/wasnorm_wordpool_576.txt	LTP269	ltpFR2	16	20	LAMP	798	n/a	n/a	0	0	0
4084912	WORD	wordpools/wasnorm_wordpool_576.txt	LTP269	ltpFR2	16	20	BUCKET	184	n/a	n/a	0	0	0
4087414	WORD	wordpools/wasnorm_wordpool_576.txt	LTP269	ltpFR2	16	20	FRUIT	610	n/a	n/a	0	0	0
4090166	WORD	wordpools/wasnorm_wordpool_576.txt	LTP269	ltpFR2	16	20	SHORTCAKE	1292	n/a	n/a	0	0	0
4092718	WORD	wordpools/wasnorm_wordpool_576.txt	LTP269	ltpFR2	16	20	LASER	801	n/a	n/a	0	0	0
4095237	WORD	wordpools/wasnorm_wordpool_576.txt	LTP269	ltpFR2	16	20	REPORT	1184	n/a	n/a	0	0	0
4097856	WORD	wordpools/wasnorm_wordpool_576.txt	LTP269	ltpFR2	16	20	PLIERS	1089	n/a	n/a	0	0	0
4100375	WORD	wordpools/wasnorm_wordpool_576.txt	LTP269	ltpFR2	16	20	CELLAR	267	n/a	n/a	0	0	0
4103011	WORD	wordpools/wasnorm_wordpool_576.txt	LTP269	ltpFR2	16	20	BASEMENT	94	n/a	n/a	0	0	0
4105680	WORD	wordpools/wasnorm_wordpool_576.txt	LTP269	ltpFR2	16	20	RAZOR	1171	n/a	n/a	0	0	0
4108399	WORD	wordpools/wasnorm_wordpool_576.txt	LTP269	ltpFR2	16	20	TWEEZERS	1526	n/a	n/a	0	0	0
4111033	WORD	wordpools/wasnorm_wordpool_576.txt	LTP269	ltpFR2	16	20	EAGLE	512	n/a	n/a	0	0	0
4113753	WORD	wordpools/wasnorm_wordpool_576.txt	LTP269	ltpFR2	16	20	TAXI	1438	n/a	n/a	0	0	0
4116422	WORD	wordpools/wasnorm_wordpool_576.txt	LTP269	ltpFR2	16	20	SISTER	1312	n/a	n/a	0	0	0
4119224	WORD	wordpools/wasnorm_wordpool_576.txt	LTP269	ltpFR2	16	20	LABEL	790	n/a	n/a	0	0	0
4120843	START	n/a	LTP269	ltpFR2	16	n/a	n/a	n/a	30	n/a	n/a	n/a	n/a
4121935	DISTRACTOR	n/a	LTP269	ltpFR2	16	20	n/a	n/a	n/a	n/a	0	0	0
4121943	PROB	n/a	LTP269	ltpFR2	16	n/a	n/a	n/a	30	10	2	2	6
4123461	PROB	n/a	LTP269	ltpFR2	16	n/a	n/a	n/a	30	14	3	3	8
4125146	PROB	n/a	LTP269	ltpFR2	16	n/a	n/a	n/a	30	19	6	7	6
4129197	PROB	n/a	LTP269	ltpFR2	16	n/a	n/a	n/a	30	13	7	2	4
4130949	PROB	n/a	LTP269	ltpFR2	16	n/a	n/a	n/a	30	15	3	4	8
4132667	PROB	n/a	LTP269	ltpFR2	16	n/a	n/a	n/a	30	14	4	8	2
4134485	PROB	n/a	LTP269	ltpFR2	16	n/a	n/a	n/a	30	24	7	9	8
4137807	PROB	n/a	LTP269	ltpFR2	16	n/a	n/a	n/a	30	24	7	8	9
4139357	PROB	n/a	LTP269	ltpFR2	16	n/a	n/a	n/a	30	13	6	1	6
4141490	PROB	n/a	LTP269	ltpFR2	16	n/a	n/a	n/a	30	19	9	9	1
4144068	STOP	n/a	LTP269	ltpFR2	16	n/a	n/a	n/a	30	n/a	n/a	n/a	n/a
4146697	REC_START	n/a	LTP269	ltpFR2	16	20	n/a	n/a	n/a	n/a	0	0	0
4148329	REC_WORD_VV	wordpools/wasnorm_wordpool_576.txt	LTP269	ltpFR2	16	20	<>	-1	n/a	n/a	0	0	0
4149325	REC_WORD	wordpools/wasnorm_wordpool_576.txt	LTP269	ltpFR2	16	20	DRUG	501	n/a	n/a	0	0	0
4149807	REC_WORD	wordpools/wasnorm_wordpool_576.txt	LTP269	ltpFR2	16	20	STONE	1385	n/a	n/a	0	0	0
4151572	REC_WORD	wordpools/wasnorm_wordpool_576.txt	LTP269	ltpFR2	16	20	SWITCH	1422	n/a	n/a	0	0	0
4152618	REC_WORD	wordpools/wasnorm_wordpool_576.txt	LTP269	ltpFR2	16	20	LADY	794	n/a	n/a	0	0	0
4154710	REC_WORD	wordpools/wasnorm_wordpool_576.txt	LTP269	ltpFR2	16	20	BUCKET	184	n/a	n/a	0	0	0
4155401	REC_WORD	wordpools/wasnorm_wordpool_576.txt	LTP269	ltpFR2	16	20	FRUIT	610	n/a	n/a	0	0	0
4237118	DISTRACTOR	n/a	LTP269	ltpFR2	16	21	n/a	n/a	n/a	n/a	0	0	0
4237119	START	n/a	LTP269	ltpFR2	16	n/a	n/a	n/a	31	n/a	n/a	n/a	n/a
4237133	PROB	n/a	LTP269	ltpFR2	16	n/a	n/a	n/a	31	11	1	7	3
4238434	PROB	n/a	LTP269	ltpFR2	16	n/a	n/a	n/a	31	10	5	4	1
4240118	PROB	n/a	LTP269	ltpFR2	16	n/a	n/a	n/a	31	16	5	3	8
4241704	PROB	n/a	LTP269	ltpFR2	16	n/a	n/a	n/a	31	16	8	5	3
4244573	PROB	n/a	LTP269	ltpFR2	16	n/a	n/a	n/a	31	14	5	2	7
4247159	PROB	n/a	LTP269	ltpFR2	16	n/a	n/a	n/a	31	15	4	8	3
4249010	PROB	n/a	LTP269	ltpFR2	16	n/a	n/a	n/a	31	7	1	1	5
4250562	PROB	n/a	LTP269	ltpFR2	16	n/a	n/a	n/a	31	15	3	6	6
4251912	PROB	n/a	LTP269	ltpFR2	16	n/a	n/a	n/a	31	13	4	2	7
4254382	PROB	n/a	LTP269	ltpFR2	16	n/a	n/a	n/a	31	1	3	4	4
4256485	PROB	n/a	LTP269	ltpFR2	16	n/a	n/a	n/a	31	13	6	1	6
4258083	PROB	n/a	LTP269	ltpFR2	16	n/a	n/a	n/a	31	12	2	4	6
