mstime	trial_type	stim_file	subject	experiment	session	trial	item_name	item_num	list	answer	test_x	test_y	test_z
0	SESS_START	n/a	LTP314	ltpFR2	7	n/a	n/a	n/a	n/a	n/a	0	0	0
21584	START	n/a	LTP314	ltpFR2	7	n/a	n/a	n/a	-1	n/a	n/a	n/a	n/a
21605	PROB	n/a	LTP314	ltpFR2	7	n/a	n/a	n/a	-1	10	1	5	4
23182	PROB	n/a	LTP314	ltpFR2	7	n/a	n/a	n/a	-1	11	3	3	5
24833	PROB	n/a	LTP314	ltpFR2	7	n/a	n/a	n/a	-1	17	6	5	6
26435	PROB	n/a	LTP314	ltpFR2	7	n/a	n/a	n/a	-1	16	9	1	6
28202	PROB	n/a	LTP314	ltpFR2	7	n/a	n/a	n/a	-1	17	9	3	7
29522	PROB	n/a	LTP314	ltpFR2	7	n/a	n/a	n/a	-1	12	2	9	1
32563	STOP	n/a	LTP314	ltpFR2	7	n/a	n/a	n/a	-1	n/a	n/a	n/a	n/a
65638	DISTRACTOR	n/a	LTP314	ltpFR2	7	1	n/a	n/a	n/a	n/a	0	0	0
65639	START	n/a	LTP314	ltpFR2	7	n/a	n/a	n/a	1	n/a	n/a	n/a	n/a
65653	PROB	n/a	LTP314	ltpFR2	7	n/a	n/a	n/a	1	14	6	4	4
67419	PROB	n/a	LTP314	ltpFR2	7	n/a	n/a	n/a	1	13	3	2	8
69037	PROB	n/a	LTP314	ltpFR2	7	n/a	n/a	n/a	1	24	6	9	9
71524	PROB	n/a	LTP314	ltpFR2	7	n/a	n/a	n/a	1	14	6	7	2
73724	PROB	n/a	LTP314	ltpFR2	7	n/a	n/a	n/a	1	8	2	2	4
75259	PROB	n/a	LTP314	ltpFR2	7	n/a	n/a	n/a	1	7	4	2	1
76627	PROB	n/a	LTP314	ltpFR2	7	n/a	n/a	n/a	1	20	8	7	5
78278	PROB	n/a	LTP314	ltpFR2	7	n/a	n/a	n/a	1	16	5	3	8
79862	PROB	n/a	LTP314	ltpFR2	7	n/a	n/a	n/a	1	15	5	7	3
81614	PROB	n/a	LTP314	ltpFR2	7	n/a	n/a	n/a	1	21	5	7	9
83365	PROB	n/a	LTP314	ltpFR2	7	n/a	n/a	n/a	1	7	2	1	4
85133	PROB	n/a	LTP314	ltpFR2	7	n/a	n/a	n/a	1	8	5	2	1
86718	PROB	n/a	LTP314	ltpFR2	7	n/a	n/a	n/a	1	17	8	5	4
88907	STOP	n/a	LTP314	ltpFR2	7	n/a	n/a	n/a	1	n/a	n/a	n/a	n/a
90558	WORD	wordpools/wasnorm_wordpool_576.txt	LTP314	ltpFR2	7	1	SEAL	1262	n/a	n/a	0	0	0
93360	WORD	wordpools/wasnorm_wordpool_576.txt	LTP314	ltpFR2	7	1	FRIAR	605	n/a	n/a	0	0	0
95962	WORD	wordpools/wasnorm_wordpool_576.txt	LTP314	ltpFR2	7	1	TOASTER	1472	n/a	n/a	0	0	0
98431	WORD	wordpools/wasnorm_wordpool_576.txt	LTP314	ltpFR2	7	1	POWDER	1117	n/a	n/a	0	0	0
100900	WORD	wordpools/wasnorm_wordpool_576.txt	LTP314	ltpFR2	7	1	ARMY	39	n/a	n/a	0	0	0
103701	WORD	wordpools/wasnorm_wordpool_576.txt	LTP314	ltpFR2	7	1	COLONEL	348	n/a	n/a	0	0	0
106136	WORD	wordpools/wasnorm_wordpool_576.txt	LTP314	ltpFR2	7	1	CROSS	413	n/a	n/a	0	0	0
108806	WORD	wordpools/wasnorm_wordpool_576.txt	LTP314	ltpFR2	7	1	BUBBLE	183	n/a	n/a	0	0	0
111625	WORD	wordpools/wasnorm_wordpool_576.txt	LTP314	ltpFR2	7	1	BATHTUB	100	n/a	n/a	0	0	0
114277	WORD	wordpools/wasnorm_wordpool_576.txt	LTP314	ltpFR2	7	1	CAMEL	223	n/a	n/a	0	0	0
116778	WORD	wordpools/wasnorm_wordpool_576.txt	LTP314	ltpFR2	7	1	POISON	1096	n/a	n/a	0	0	0
119230	WORD	wordpools/wasnorm_wordpool_576.txt	LTP314	ltpFR2	7	1	OINTMENT	974	n/a	n/a	0	0	0
121866	WORD	wordpools/wasnorm_wordpool_576.txt	LTP314	ltpFR2	7	1	PICNIC	1060	n/a	n/a	0	0	0
124433	WORD	wordpools/wasnorm_wordpool_576.txt	LTP314	ltpFR2	7	1	CELLAR	267	n/a	n/a	0	0	0
126903	WORD	wordpools/wasnorm_wordpool_576.txt	LTP314	ltpFR2	7	1	GARDEN	623	n/a	n/a	0	0	0
129354	WORD	wordpools/wasnorm_wordpool_576.txt	LTP314	ltpFR2	7	1	TURNIP	1521	n/a	n/a	0	0	0
131790	WORD	wordpools/wasnorm_wordpool_576.txt	LTP314	ltpFR2	7	1	GAZELLE	628	n/a	n/a	0	0	0
134341	WORD	wordpools/wasnorm_wordpool_576.txt	LTP314	ltpFR2	7	1	BOYFRIEND	162	n/a	n/a	0	0	0
137096	WORD	wordpools/wasnorm_wordpool_576.txt	LTP314	ltpFR2	7	1	MUFFIN	929	n/a	n/a	0	0	0
139763	WORD	wordpools/wasnorm_wordpool_576.txt	LTP314	ltpFR2	7	1	LIGHTNING	820	n/a	n/a	0	0	0
142468	WORD	wordpools/wasnorm_wordpool_576.txt	LTP314	ltpFR2	7	1	JURY	766	n/a	n/a	0	0	0
145136	WORD	wordpools/wasnorm_wordpool_576.txt	LTP314	ltpFR2	7	1	JELLY	755	n/a	n/a	0	0	0
147868	WORD	wordpools/wasnorm_wordpool_576.txt	LTP314	ltpFR2	7	1	MISSILE	900	n/a	n/a	0	0	0
150508	WORD	wordpools/wasnorm_wordpool_576.txt	LTP314	ltpFR2	7	1	CREATURE	403	n/a	n/a	0	0	0
152123	START	n/a	LTP314	ltpFR2	7	n/a	n/a	n/a	2	n/a	n/a	n/a	n/a
153204	DISTRACTOR	n/a	LTP314	ltpFR2	7	1	n/a	n/a	n/a	n/a	0	0	0
153223	PROB	n/a	LTP314	ltpFR2	7	n/a	n/a	n/a	2	11	1	8	2
154772	PROB	n/a	LTP314	ltpFR2	7	n/a	n/a	n/a	2	12	4	5	3
156255	PROB	n/a	LTP314	ltpFR2	7	n/a	n/a	n/a	2	12	6	5	1
158294	PROB	n/a	LTP314	ltpFR2	7	n/a	n/a	n/a	2	18	9	5	4
160342	PROB	n/a	LTP314	ltpFR2	7	n/a	n/a	n/a	2	14	5	6	3
161876	PROB	n/a	LTP314	ltpFR2	7	n/a	n/a	n/a	2	16	1	8	7
163578	PROB	n/a	LTP314	ltpFR2	7	n/a	n/a	n/a	2	16	1	9	6
165028	PROB	n/a	LTP314	ltpFR2	7	n/a	n/a	n/a	2	15	4	2	9
168165	PROB	n/a	LTP314	ltpFR2	7	n/a	n/a	n/a	2	13	3	5	7
169887	PROB	n/a	LTP314	ltpFR2	7	n/a	n/a	n/a	2	6	2	3	2
171701	PROB	n/a	LTP314	ltpFR2	7	n/a	n/a	n/a	2	12	6	2	4
174386	PROB	n/a	LTP314	ltpFR2	7	n/a	n/a	n/a	2	14	1	8	5
175923	STOP	n/a	LTP314	ltpFR2	7	n/a	n/a	n/a	2	n/a	n/a	n/a	n/a
177896	REC_START	n/a	LTP314	ltpFR2	7	1	n/a	n/a	n/a	n/a	0	0	0
179359	REC_WORD	wordpools/wasnorm_wordpool_576.txt	LTP314	ltpFR2	7	1	BUBBLE	183	n/a	n/a	0	0	0
180480	REC_WORD	wordpools/wasnorm_wordpool_576.txt	LTP314	ltpFR2	7	1	JURY	766	n/a	n/a	0	0	0
181827	REC_WORD	wordpools/wasnorm_wordpool_576.txt	LTP314	ltpFR2	7	1	TOASTER	1472	n/a	n/a	0	0	0
189504	REC_WORD	wordpools/wasnorm_wordpool_576.txt	LTP314	ltpFR2	7	1	LIGHTNING	820	n/a	n/a	0	0	0
247984	REC_WORD	wordpools/wasnorm_wordpool_576.txt	LTP314	ltpFR2	7	1	CREATURE	403	n/a	n/a	0	0	0
268340	DISTRACTOR	n/a	LTP314	ltpFR2	7	2	n/a	n/a	n/a	n/a	0	0	0
268341	START	n/a	LTP314	ltpFR2	7	n/a	n/a	n/a	3	n/a	n/a	n/a	n/a
268352	PROB	n/a	LTP314	ltpFR2	7	n/a	n/a	n/a	3	17	4	8	5
270455	PROB	n/a	LTP314	ltpFR2	7	n/a	n/a	n/a	3	10	3	4	3
273524	PROB	n/a	LTP314	ltpFR2	7	n/a	n/a	n/a	3	13	6	4	3
274991	PROB	n/a	LTP314	ltpFR2	7	n/a	n/a	n/a	3	15	4	2	9
276326	PROB	n/a	LTP314	ltpFR2	7	n/a	n/a	n/a	3	16	6	6	4
278046	PROB	n/a	LTP314	ltpFR2	7	n/a	n/a	n/a	3	9	2	2	5
279446	PROB	n/a	LTP314	ltpFR2	7	n/a	n/a	n/a	3	10	2	7	1
280630	PROB	n/a	LTP314	ltpFR2	7	n/a	n/a	n/a	3	17	4	6	7
282216	PROB	n/a	LTP314	ltpFR2	7	n/a	n/a	n/a	3	18	5	4	9
283667	PROB	n/a	LTP314	ltpFR2	7	n/a	n/a	n/a	3	18	7	7	4
285183	PROB	n/a	LTP314	ltpFR2	7	n/a	n/a	n/a	3	13	3	1	9
286884	PROB	n/a	LTP314	ltpFR2	7	n/a	n/a	n/a	3	18	7	3	8
288306	PROB	n/a	LTP314	ltpFR2	7	n/a	n/a	n/a	3	14	1	9	4
289537	PROB	n/a	LTP314	ltpFR2	7	n/a	n/a	n/a	3	21	8	9	4
291995	STOP	n/a	LTP314	ltpFR2	7	n/a	n/a	n/a	3	n/a	n/a	n/a	n/a
293196	WORD	wordpools/wasnorm_wordpool_576.txt	LTP314	ltpFR2	7	2	DENTIST	447	n/a	n/a	0	0	0
295815	WORD	wordpools/wasnorm_wordpool_576.txt	LTP314	ltpFR2	7	2	BRACES	164	n/a	n/a	0	0	0
298415	WORD	wordpools/wasnorm_wordpool_576.txt	LTP314	ltpFR2	7	2	GRAVEL	659	n/a	n/a	0	0	0
301000	WORD	wordpools/wasnorm_wordpool_576.txt	LTP314	ltpFR2	7	2	RAFT	1159	n/a	n/a	0	0	0
303520	WORD	wordpools/wasnorm_wordpool_576.txt	LTP314	ltpFR2	7	2	WAITER	1580	n/a	n/a	0	0	0
306021	WORD	wordpools/wasnorm_wordpool_576.txt	LTP314	ltpFR2	7	2	FLIPPER	580	n/a	n/a	0	0	0
308590	WORD	wordpools/wasnorm_wordpool_576.txt	LTP314	ltpFR2	7	2	STUDENT	1395	n/a	n/a	0	0	0
311041	WORD	wordpools/wasnorm_wordpool_576.txt	LTP314	ltpFR2	7	2	QUAIL	1147	n/a	n/a	0	0	0
313760	WORD	wordpools/wasnorm_wordpool_576.txt	LTP314	ltpFR2	7	2	LAGOON	795	n/a	n/a	0	0	0
316262	WORD	wordpools/wasnorm_wordpool_576.txt	LTP314	ltpFR2	7	2	DANDRUFF	439	n/a	n/a	0	0	0
318965	WORD	wordpools/wasnorm_wordpool_576.txt	LTP314	ltpFR2	7	2	ZEBRA	1635	n/a	n/a	0	0	0
321399	WORD	wordpools/wasnorm_wordpool_576.txt	LTP314	ltpFR2	7	2	SWAMP	1416	n/a	n/a	0	0	0
323936	WORD	wordpools/wasnorm_wordpool_576.txt	LTP314	ltpFR2	7	2	PEACH	1031	n/a	n/a	0	0	0
326755	WORD	wordpools/wasnorm_wordpool_576.txt	LTP314	ltpFR2	7	2	HEADBAND	696	n/a	n/a	0	0	0
329490	WORD	wordpools/wasnorm_wordpool_576.txt	LTP314	ltpFR2	7	2	PLATE	1086	n/a	n/a	0	0	0
332292	WORD	wordpools/wasnorm_wordpool_576.txt	LTP314	ltpFR2	7	2	SALMON	1227	n/a	n/a	0	0	0
335062	WORD	wordpools/wasnorm_wordpool_576.txt	LTP314	ltpFR2	7	2	SODA	1341	n/a	n/a	0	0	0
337814	WORD	wordpools/wasnorm_wordpool_576.txt	LTP314	ltpFR2	7	2	BRANDY	169	n/a	n/a	0	0	0
340582	WORD	wordpools/wasnorm_wordpool_576.txt	LTP314	ltpFR2	7	2	FIDDLE	561	n/a	n/a	0	0	0
343051	WORD	wordpools/wasnorm_wordpool_576.txt	LTP314	ltpFR2	7	2	POLICE	1098	n/a	n/a	0	0	0
345603	WORD	wordpools/wasnorm_wordpool_576.txt	LTP314	ltpFR2	7	2	GUARD	667	n/a	n/a	0	0	0
348405	WORD	wordpools/wasnorm_wordpool_576.txt	LTP314	ltpFR2	7	2	TORTOISE	1486	n/a	n/a	0	0	0
351057	WORD	wordpools/wasnorm_wordpool_576.txt	LTP314	ltpFR2	7	2	PLAYGROUND	1087	n/a	n/a	0	0	0
353492	WORD	wordpools/wasnorm_wordpool_576.txt	LTP314	ltpFR2	7	2	DASHBOARD	441	n/a	n/a	0	0	0
355111	START	n/a	LTP314	ltpFR2	7	n/a	n/a	n/a	4	n/a	n/a	n/a	n/a
356242	DISTRACTOR	n/a	LTP314	ltpFR2	7	2	n/a	n/a	n/a	n/a	0	0	0
356260	PROB	n/a	LTP314	ltpFR2	7	n/a	n/a	n/a	4	12	5	1	6
358781	PROB	n/a	LTP314	ltpFR2	7	n/a	n/a	n/a	4	9	5	2	2
361530	PROB	n/a	LTP314	ltpFR2	7	n/a	n/a	n/a	4	10	1	4	5
362965	PROB	n/a	LTP314	ltpFR2	7	n/a	n/a	n/a	4	11	8	2	1
364285	PROB	n/a	LTP314	ltpFR2	7	n/a	n/a	n/a	4	9	1	6	2
366070	PROB	n/a	LTP314	ltpFR2	7	n/a	n/a	n/a	4	14	3	4	7
368088	PROB	n/a	LTP314	ltpFR2	7	n/a	n/a	n/a	4	15	5	1	9
369969	PROB	n/a	LTP314	ltpFR2	7	n/a	n/a	n/a	4	20	4	8	8
371903	PROB	n/a	LTP314	ltpFR2	7	n/a	n/a	n/a	4	12	3	1	8
373509	PROB	n/a	LTP314	ltpFR2	7	n/a	n/a	n/a	4	22	7	6	9
376139	PROB	n/a	LTP314	ltpFR2	7	n/a	n/a	n/a	4	13	8	3	2
378243	STOP	n/a	LTP314	ltpFR2	7	n/a	n/a	n/a	4	n/a	n/a	n/a	n/a
380882	REC_START	n/a	LTP314	ltpFR2	7	2	n/a	n/a	n/a	n/a	0	0	0
391438	REC_WORD	wordpools/wasnorm_wordpool_576.txt	LTP314	ltpFR2	7	2	STUDENT	1395	n/a	n/a	0	0	0
451152	REC_WORD	wordpools/wasnorm_wordpool_576.txt	LTP314	ltpFR2	7	2	TORTOISE	1486	n/a	n/a	0	0	0
471325	DISTRACTOR	n/a	LTP314	ltpFR2	7	3	n/a	n/a	n/a	n/a	0	0	0
471325	START	n/a	LTP314	ltpFR2	7	n/a	n/a	n/a	5	n/a	n/a	n/a	n/a
471338	PROB	n/a	LTP314	ltpFR2	7	n/a	n/a	n/a	5	12	7	3	2
473523	PROB	n/a	LTP314	ltpFR2	7	n/a	n/a	n/a	5	13	2	9	2
474991	PROB	n/a	LTP314	ltpFR2	7	n/a	n/a	n/a	5	17	5	8	4
477163	PROB	n/a	LTP314	ltpFR2	7	n/a	n/a	n/a	5	18	6	8	4
478662	PROB	n/a	LTP314	ltpFR2	7	n/a	n/a	n/a	5	23	8	7	8
481197	PROB	n/a	LTP314	ltpFR2	7	n/a	n/a	n/a	5	17	6	9	2
482965	PROB	n/a	LTP314	ltpFR2	7	n/a	n/a	n/a	5	22	6	9	7
486152	PROB	n/a	LTP314	ltpFR2	7	n/a	n/a	n/a	5	23	8	9	6
488702	PROB	n/a	LTP314	ltpFR2	7	n/a	n/a	n/a	5	17	5	6	6
490938	PROB	n/a	LTP314	ltpFR2	7	n/a	n/a	n/a	5	18	6	9	3
492489	PROB	n/a	LTP314	ltpFR2	7	n/a	n/a	n/a	5	15	5	8	2
494299	STOP	n/a	LTP314	ltpFR2	7	n/a	n/a	n/a	5	n/a	n/a	n/a	n/a
496546	WORD	wordpools/wasnorm_wordpool_576.txt	LTP314	ltpFR2	7	3	FLASK	576	n/a	n/a	0	0	0
499130	WORD	wordpools/wasnorm_wordpool_576.txt	LTP314	ltpFR2	7	3	EYELASH	546	n/a	n/a	0	0	0
501783	WORD	wordpools/wasnorm_wordpool_576.txt	LTP314	ltpFR2	7	3	KIDNEY	776	n/a	n/a	0	0	0
504408	WORD	wordpools/wasnorm_wordpool_576.txt	LTP314	ltpFR2	7	3	CAFE	216	n/a	n/a	0	0	0
507021	WORD	wordpools/wasnorm_wordpool_576.txt	LTP314	ltpFR2	7	3	CUPBOARD	425	n/a	n/a	0	0	0
509556	WORD	wordpools/wasnorm_wordpool_576.txt	LTP314	ltpFR2	7	3	CANYON	235	n/a	n/a	0	0	0
512341	WORD	wordpools/wasnorm_wordpool_576.txt	LTP314	ltpFR2	7	3	PUPIL	1143	n/a	n/a	0	0	0
514845	WORD	wordpools/wasnorm_wordpool_576.txt	LTP314	ltpFR2	7	3	GIRL	637	n/a	n/a	0	0	0
517330	WORD	wordpools/wasnorm_wordpool_576.txt	LTP314	ltpFR2	7	3	FRIEND	606	n/a	n/a	0	0	0
520019	WORD	wordpools/wasnorm_wordpool_576.txt	LTP314	ltpFR2	7	3	CLAM	315	n/a	n/a	0	0	0
522751	WORD	wordpools/wasnorm_wordpool_576.txt	LTP314	ltpFR2	7	3	DRINK	498	n/a	n/a	0	0	0
525487	WORD	wordpools/wasnorm_wordpool_576.txt	LTP314	ltpFR2	7	3	YACHT	1629	n/a	n/a	0	0	0
527942	WORD	wordpools/wasnorm_wordpool_576.txt	LTP314	ltpFR2	7	3	MARINE	869	n/a	n/a	0	0	0
530408	WORD	wordpools/wasnorm_wordpool_576.txt	LTP314	ltpFR2	7	3	BLADE	134	n/a	n/a	0	0	0
532876	WORD	wordpools/wasnorm_wordpool_576.txt	LTP314	ltpFR2	7	3	CONCERT	360	n/a	n/a	0	0	0
535662	WORD	wordpools/wasnorm_wordpool_576.txt	LTP314	ltpFR2	7	3	GANGSTER	620	n/a	n/a	0	0	0
538131	WORD	wordpools/wasnorm_wordpool_576.txt	LTP314	ltpFR2	7	3	APRON	35	n/a	n/a	0	0	0
540599	WORD	wordpools/wasnorm_wordpool_576.txt	LTP314	ltpFR2	7	3	CONTRACT	368	n/a	n/a	0	0	0
543334	WORD	wordpools/wasnorm_wordpool_576.txt	LTP314	ltpFR2	7	3	FILM	565	n/a	n/a	0	0	0
545820	WORD	wordpools/wasnorm_wordpool_576.txt	LTP314	ltpFR2	7	3	COOK	372	n/a	n/a	0	0	0
548256	WORD	wordpools/wasnorm_wordpool_576.txt	LTP314	ltpFR2	7	3	TRACTOR	1493	n/a	n/a	0	0	0
551043	WORD	wordpools/wasnorm_wordpool_576.txt	LTP314	ltpFR2	7	3	LILY	821	n/a	n/a	0	0	0
553660	WORD	wordpools/wasnorm_wordpool_576.txt	LTP314	ltpFR2	7	3	LAVA	804	n/a	n/a	0	0	0
556129	WORD	wordpools/wasnorm_wordpool_576.txt	LTP314	ltpFR2	7	3	CHAUFFEUR	283	n/a	n/a	0	0	0
557747	START	n/a	LTP314	ltpFR2	7	n/a	n/a	n/a	6	n/a	n/a	n/a	n/a
558667	DISTRACTOR	n/a	LTP314	ltpFR2	7	3	n/a	n/a	n/a	n/a	0	0	0
558681	PROB	n/a	LTP314	ltpFR2	7	n/a	n/a	n/a	6	14	4	3	7
561229	PROB	n/a	LTP314	ltpFR2	7	n/a	n/a	n/a	6	15	3	7	5
563031	PROB	n/a	LTP314	ltpFR2	7	n/a	n/a	n/a	6	10	1	8	1
564933	PROB	n/a	LTP314	ltpFR2	7	n/a	n/a	n/a	6	15	4	3	8
566517	PROB	n/a	LTP314	ltpFR2	7	n/a	n/a	n/a	6	17	7	9	1
568536	PROB	n/a	LTP314	ltpFR2	7	n/a	n/a	n/a	6	11	6	2	3
570870	PROB	n/a	LTP314	ltpFR2	7	n/a	n/a	n/a	6	12	1	8	3
572372	PROB	n/a	LTP314	ltpFR2	7	n/a	n/a	n/a	6	16	2	6	8
573973	PROB	n/a	LTP314	ltpFR2	7	n/a	n/a	n/a	6	20	8	7	5
575675	PROB	n/a	LTP314	ltpFR2	7	n/a	n/a	n/a	6	19	6	9	4
577877	PROB	n/a	LTP314	ltpFR2	7	n/a	n/a	n/a	6	14	3	4	7
579412	PROB	n/a	LTP314	ltpFR2	7	n/a	n/a	n/a	6	20	6	7	7
581603	STOP	n/a	LTP314	ltpFR2	7	n/a	n/a	n/a	6	n/a	n/a	n/a	n/a
583535	REC_START	n/a	LTP314	ltpFR2	7	3	n/a	n/a	n/a	n/a	0	0	0
584023	REC_WORD	wordpools/wasnorm_wordpool_576.txt	LTP314	ltpFR2	7	3	LAVA	804	n/a	n/a	0	0	0
584815	REC_WORD	wordpools/wasnorm_wordpool_576.txt	LTP314	ltpFR2	7	3	CHAUFFEUR	283	n/a	n/a	0	0	0
589204	REC_WORD	wordpools/wasnorm_wordpool_576.txt	LTP314	ltpFR2	7	3	APRON	35	n/a	n/a	0	0	0
673973	WORD	wordpools/wasnorm_wordpool_576.txt	LTP314	ltpFR2	7	4	PRINCE	1124	n/a	n/a	0	0	0
676580	WORD	wordpools/wasnorm_wordpool_576.txt	LTP314	ltpFR2	7	4	SCARECROW	1245	n/a	n/a	0	0	0
679191	WORD	wordpools/wasnorm_wordpool_576.txt	LTP314	ltpFR2	7	4	FARMER	553	n/a	n/a	0	0	0
682000	WORD	wordpools/wasnorm_wordpool_576.txt	LTP314	ltpFR2	7	4	WAITRESS	1581	n/a	n/a	0	0	0
684735	WORD	wordpools/wasnorm_wordpool_576.txt	LTP314	ltpFR2	7	4	TOURIST	1488	n/a	n/a	0	0	0
687163	WORD	wordpools/wasnorm_wordpool_576.txt	LTP314	ltpFR2	7	4	HIKER	708	n/a	n/a	0	0	0
689664	WORD	wordpools/wasnorm_wordpool_576.txt	LTP314	ltpFR2	7	4	SKIRT	1319	n/a	n/a	0	0	0
692117	WORD	wordpools/wasnorm_wordpool_576.txt	LTP314	ltpFR2	7	4	SILK	1307	n/a	n/a	0	0	0
694835	WORD	wordpools/wasnorm_wordpool_576.txt	LTP314	ltpFR2	7	4	SNAKE	1333	n/a	n/a	0	0	0
697571	WORD	wordpools/wasnorm_wordpool_576.txt	LTP314	ltpFR2	7	4	PARTNER	1017	n/a	n/a	0	0	0
700273	WORD	wordpools/wasnorm_wordpool_576.txt	LTP314	ltpFR2	7	4	LABEL	790	n/a	n/a	0	0	0
702958	WORD	wordpools/wasnorm_wordpool_576.txt	LTP314	ltpFR2	7	4	OUTLAW	989	n/a	n/a	0	0	0
705637	WORD	wordpools/wasnorm_wordpool_576.txt	LTP314	ltpFR2	7	4	FRAGRANCE	599	n/a	n/a	0	0	0
708154	WORD	wordpools/wasnorm_wordpool_576.txt	LTP314	ltpFR2	7	4	QUARTER	1148	n/a	n/a	0	0	0
710840	WORD	wordpools/wasnorm_wordpool_576.txt	LTP314	ltpFR2	7	4	EGYPT	519	n/a	n/a	0	0	0
713659	WORD	wordpools/wasnorm_wordpool_576.txt	LTP314	ltpFR2	7	4	CABBAGE	210	n/a	n/a	0	0	0
716135	WORD	wordpools/wasnorm_wordpool_576.txt	LTP314	ltpFR2	7	4	POET	1095	n/a	n/a	0	0	0
718904	WORD	wordpools/wasnorm_wordpool_576.txt	LTP314	ltpFR2	7	4	SCRIBBLE	1256	n/a	n/a	0	0	0
721365	WORD	wordpools/wasnorm_wordpool_576.txt	LTP314	ltpFR2	7	4	SUITCASE	1403	n/a	n/a	0	0	0
724058	WORD	wordpools/wasnorm_wordpool_576.txt	LTP314	ltpFR2	7	4	LAKE	796	n/a	n/a	0	0	0
726810	WORD	wordpools/wasnorm_wordpool_576.txt	LTP314	ltpFR2	7	4	BROOK	177	n/a	n/a	0	0	0
729373	WORD	wordpools/wasnorm_wordpool_576.txt	LTP314	ltpFR2	7	4	NEUTRON	947	n/a	n/a	0	0	0
732175	WORD	wordpools/wasnorm_wordpool_576.txt	LTP314	ltpFR2	7	4	VELVET	1555	n/a	n/a	0	0	0
734784	WORD	wordpools/wasnorm_wordpool_576.txt	LTP314	ltpFR2	7	4	MARKET	871	n/a	n/a	0	0	0
736396	START	n/a	LTP314	ltpFR2	7	n/a	n/a	n/a	7	n/a	n/a	n/a	n/a
737250	DISTRACTOR	n/a	LTP314	ltpFR2	7	4	n/a	n/a	n/a	n/a	0	0	0
737262	PROB	n/a	LTP314	ltpFR2	7	n/a	n/a	n/a	7	9	1	1	7
739294	PROB	n/a	LTP314	ltpFR2	7	n/a	n/a	n/a	7	11	5	3	3
740979	PROB	n/a	LTP314	ltpFR2	7	n/a	n/a	n/a	7	12	5	5	2
742331	PROB	n/a	LTP314	ltpFR2	7	n/a	n/a	n/a	7	12	5	4	3
743748	PROB	n/a	LTP314	ltpFR2	7	n/a	n/a	n/a	7	19	5	9	5
745850	PROB	n/a	LTP314	ltpFR2	7	n/a	n/a	n/a	7	11	2	8	1
747251	PROB	n/a	LTP314	ltpFR2	7	n/a	n/a	n/a	7	8	5	1	2
749086	PROB	n/a	LTP314	ltpFR2	7	n/a	n/a	n/a	7	14	8	5	1
751071	PROB	n/a	LTP314	ltpFR2	7	n/a	n/a	n/a	7	9	2	6	1
752555	PROB	n/a	LTP314	ltpFR2	7	n/a	n/a	n/a	7	12	6	1	5
754373	PROB	n/a	LTP314	ltpFR2	7	n/a	n/a	n/a	7	16	8	7	1
757531	PROB	n/a	LTP314	ltpFR2	7	n/a	n/a	n/a	7	12	7	4	1
759387	STOP	n/a	LTP314	ltpFR2	7	n/a	n/a	n/a	7	n/a	n/a	n/a	n/a
762313	REC_START	n/a	LTP314	ltpFR2	7	4	n/a	n/a	n/a	n/a	0	0	0
763849	REC_WORD	wordpools/wasnorm_wordpool_576.txt	LTP314	ltpFR2	7	4	FRAGRANCE	599	n/a	n/a	0	0	0
764651	REC_WORD	wordpools/wasnorm_wordpool_576.txt	LTP314	ltpFR2	7	4	LABEL	790	n/a	n/a	0	0	0
765454	REC_WORD	wordpools/wasnorm_wordpool_576.txt	LTP314	ltpFR2	7	4	BROOK	177	n/a	n/a	0	0	0
767122	REC_WORD	wordpools/wasnorm_wordpool_576.txt	LTP314	ltpFR2	7	4	NEUTRON	947	n/a	n/a	0	0	0
768135	REC_WORD	wordpools/wasnorm_wordpool_576.txt	LTP314	ltpFR2	7	4	VELVET	1555	n/a	n/a	0	0	0
852788	WORD	wordpools/wasnorm_wordpool_576.txt	LTP314	ltpFR2	7	5	FOOT	590	n/a	n/a	0	0	0
855444	WORD	wordpools/wasnorm_wordpool_576.txt	LTP314	ltpFR2	7	5	BUCKET	184	n/a	n/a	0	0	0
858026	WORD	wordpools/wasnorm_wordpool_576.txt	LTP314	ltpFR2	7	5	BACKBONE	66	n/a	n/a	0	0	0
860630	WORD	wordpools/wasnorm_wordpool_576.txt	LTP314	ltpFR2	7	5	CRITIC	410	n/a	n/a	0	0	0
863431	WORD	wordpools/wasnorm_wordpool_576.txt	LTP314	ltpFR2	7	5	BABY	64	n/a	n/a	0	0	0
865983	WORD	wordpools/wasnorm_wordpool_576.txt	LTP314	ltpFR2	7	5	VIKING	1565	n/a	n/a	0	0	0
868568	WORD	wordpools/wasnorm_wordpool_576.txt	LTP314	ltpFR2	7	5	ITEM	746	n/a	n/a	0	0	0
871337	WORD	wordpools/wasnorm_wordpool_576.txt	LTP314	ltpFR2	7	5	DRILL	497	n/a	n/a	0	0	0
873839	WORD	wordpools/wasnorm_wordpool_576.txt	LTP314	ltpFR2	7	5	HANDBAG	684	n/a	n/a	0	0	0
876425	WORD	wordpools/wasnorm_wordpool_576.txt	LTP314	ltpFR2	7	5	LEG	809	n/a	n/a	0	0	0
879143	WORD	wordpools/wasnorm_wordpool_576.txt	LTP314	ltpFR2	7	5	COSTUME	383	n/a	n/a	0	0	0
881778	WORD	wordpools/wasnorm_wordpool_576.txt	LTP314	ltpFR2	7	5	HAMPER	682	n/a	n/a	0	0	0
884414	WORD	wordpools/wasnorm_wordpool_576.txt	LTP314	ltpFR2	7	5	BUREAU	199	n/a	n/a	0	0	0
887233	WORD	wordpools/wasnorm_wordpool_576.txt	LTP314	ltpFR2	7	5	BRICK	172	n/a	n/a	0	0	0
889734	WORD	wordpools/wasnorm_wordpool_576.txt	LTP314	ltpFR2	7	5	ANKLE	24	n/a	n/a	0	0	0
892208	WORD	wordpools/wasnorm_wordpool_576.txt	LTP314	ltpFR2	7	5	PRINCESS	1125	n/a	n/a	0	0	0
894760	WORD	wordpools/wasnorm_wordpool_576.txt	LTP314	ltpFR2	7	5	PENGUIN	1044	n/a	n/a	0	0	0
897490	WORD	wordpools/wasnorm_wordpool_576.txt	LTP314	ltpFR2	7	5	FIREMAN	569	n/a	n/a	0	0	0
900181	WORD	wordpools/wasnorm_wordpool_576.txt	LTP314	ltpFR2	7	5	MARSH	874	n/a	n/a	0	0	0
902628	WORD	wordpools/wasnorm_wordpool_576.txt	LTP314	ltpFR2	7	5	HELMET	702	n/a	n/a	0	0	0
905069	WORD	wordpools/wasnorm_wordpool_576.txt	LTP314	ltpFR2	7	5	HOSTESS	723	n/a	n/a	0	0	0
907798	WORD	wordpools/wasnorm_wordpool_576.txt	LTP314	ltpFR2	7	5	PISTOL	1075	n/a	n/a	0	0	0
910290	WORD	wordpools/wasnorm_wordpool_576.txt	LTP314	ltpFR2	7	5	RIFLE	1192	n/a	n/a	0	0	0
912968	WORD	wordpools/wasnorm_wordpool_576.txt	LTP314	ltpFR2	7	5	PEANUT	1032	n/a	n/a	0	0	0
914578	START	n/a	LTP314	ltpFR2	7	n/a	n/a	n/a	8	n/a	n/a	n/a	n/a
915560	DISTRACTOR	n/a	LTP314	ltpFR2	7	5	n/a	n/a	n/a	n/a	0	0	0
915570	PROB	n/a	LTP314	ltpFR2	7	n/a	n/a	n/a	8	11	7	2	2
918043	PROB	n/a	LTP314	ltpFR2	7	n/a	n/a	n/a	8	21	9	6	6
919862	PROB	n/a	LTP314	ltpFR2	7	n/a	n/a	n/a	8	15	9	1	5
921164	PROB	n/a	LTP314	ltpFR2	7	n/a	n/a	n/a	8	15	8	2	5
922347	PROB	n/a	LTP314	ltpFR2	7	n/a	n/a	n/a	8	14	6	7	1
924431	PROB	n/a	LTP314	ltpFR2	7	n/a	n/a	n/a	8	17	1	3	7
926233	PROB	n/a	LTP314	ltpFR2	7	n/a	n/a	n/a	8	22	4	9	9
927834	PROB	n/a	LTP314	ltpFR2	7	n/a	n/a	n/a	8	12	1	9	2
930103	PROB	n/a	LTP314	ltpFR2	7	n/a	n/a	n/a	8	17	7	2	8
933940	PROB	n/a	LTP314	ltpFR2	7	n/a	n/a	n/a	8	10	5	4	1
935344	PROB	n/a	LTP314	ltpFR2	7	n/a	n/a	n/a	8	8	3	3	2
938323	STOP	n/a	LTP314	ltpFR2	7	n/a	n/a	n/a	8	n/a	n/a	n/a	n/a
940495	REC_START	n/a	LTP314	ltpFR2	7	5	n/a	n/a	n/a	n/a	0	0	0
941365	REC_WORD	wordpools/wasnorm_wordpool_576.txt	LTP314	ltpFR2	7	5	FIREMAN	569	n/a	n/a	0	0	0
942322	REC_WORD	wordpools/wasnorm_wordpool_576.txt	LTP314	ltpFR2	7	5	WAITRESS	1581	n/a	n/a	0	0	0
942828	REC_WORD	wordpools/wasnorm_wordpool_576.txt	LTP314	ltpFR2	7	5	HOSTESS	723	n/a	n/a	0	0	0
943491	REC_WORD	wordpools/wasnorm_wordpool_576.txt	LTP314	ltpFR2	7	5	BUREAU	199	n/a	n/a	0	0	0
947947	REC_WORD	wordpools/wasnorm_wordpool_576.txt	LTP314	ltpFR2	7	5	BRICK	172	n/a	n/a	0	0	0
952648	REC_WORD	wordpools/wasnorm_wordpool_576.txt	LTP314	ltpFR2	7	5	HAMPER	682	n/a	n/a	0	0	0
958270	REC_WORD	wordpools/wasnorm_wordpool_576.txt	LTP314	ltpFR2	7	5	LEG	809	n/a	n/a	0	0	0
959129	REC_WORD	wordpools/wasnorm_wordpool_576.txt	LTP314	ltpFR2	7	5	ANKLE	24	n/a	n/a	0	0	0
962287	REC_WORD	wordpools/wasnorm_wordpool_576.txt	LTP314	ltpFR2	7	5	HELMET	702	n/a	n/a	0	0	0
963145	REC_WORD	wordpools/wasnorm_wordpool_576.txt	LTP314	ltpFR2	7	5	ARM	38	n/a	n/a	0	0	0
968130	REC_WORD	wordpools/wasnorm_wordpool_576.txt	LTP314	ltpFR2	7	5	FOOT	590	n/a	n/a	0	0	0
973150	REC_WORD	wordpools/wasnorm_wordpool_576.txt	LTP314	ltpFR2	7	5	BRICK	172	n/a	n/a	0	0	0
1030970	WORD	wordpools/wasnorm_wordpool_576.txt	LTP314	ltpFR2	7	6	COURSE	390	n/a	n/a	0	0	0
1033744	WORD	wordpools/wasnorm_wordpool_576.txt	LTP314	ltpFR2	7	6	STATUE	1374	n/a	n/a	0	0	0
1036545	WORD	wordpools/wasnorm_wordpool_576.txt	LTP314	ltpFR2	7	6	LIVER	833	n/a	n/a	0	0	0
1039248	WORD	wordpools/wasnorm_wordpool_576.txt	LTP314	ltpFR2	7	6	STOMACH	1384	n/a	n/a	0	0	0
1041766	WORD	wordpools/wasnorm_wordpool_576.txt	LTP314	ltpFR2	7	6	STAR	1373	n/a	n/a	0	0	0
1044485	WORD	wordpools/wasnorm_wordpool_576.txt	LTP314	ltpFR2	7	6	THRONE	1461	n/a	n/a	0	0	0
1047070	WORD	wordpools/wasnorm_wordpool_576.txt	LTP314	ltpFR2	7	6	STONE	1385	n/a	n/a	0	0	0
1049657	WORD	wordpools/wasnorm_wordpool_576.txt	LTP314	ltpFR2	7	6	POSSUM	1112	n/a	n/a	0	0	0
1052442	WORD	wordpools/wasnorm_wordpool_576.txt	LTP314	ltpFR2	7	6	COLLEGE	346	n/a	n/a	0	0	0
1055193	WORD	wordpools/wasnorm_wordpool_576.txt	LTP314	ltpFR2	7	6	HOUND	724	n/a	n/a	0	0	0
1057862	WORD	wordpools/wasnorm_wordpool_576.txt	LTP314	ltpFR2	7	6	CRATER	400	n/a	n/a	0	0	0
1060515	WORD	wordpools/wasnorm_wordpool_576.txt	LTP314	ltpFR2	7	6	CYCLONE	431	n/a	n/a	0	0	0
1063284	WORD	wordpools/wasnorm_wordpool_576.txt	LTP314	ltpFR2	7	6	PADDING	999	n/a	n/a	0	0	0
1066085	WORD	wordpools/wasnorm_wordpool_576.txt	LTP314	ltpFR2	7	6	VAGRANT	1544	n/a	n/a	0	0	0
1068671	WORD	wordpools/wasnorm_wordpool_576.txt	LTP314	ltpFR2	7	6	SOFTBALL	1343	n/a	n/a	0	0	0
1071123	WORD	wordpools/wasnorm_wordpool_576.txt	LTP314	ltpFR2	7	6	COMET	353	n/a	n/a	0	0	0
1073675	WORD	wordpools/wasnorm_wordpool_576.txt	LTP314	ltpFR2	7	6	SHRUB	1299	n/a	n/a	0	0	0
1076409	WORD	wordpools/wasnorm_wordpool_576.txt	LTP314	ltpFR2	7	6	FRAME	600	n/a	n/a	0	0	0
1078879	WORD	wordpools/wasnorm_wordpool_576.txt	LTP314	ltpFR2	7	6	PICTURE	1061	n/a	n/a	0	0	0
1081397	WORD	wordpools/wasnorm_wordpool_576.txt	LTP314	ltpFR2	7	6	GHETTO	633	n/a	n/a	0	0	0
1083948	WORD	wordpools/wasnorm_wordpool_576.txt	LTP314	ltpFR2	7	6	KNIFE	785	n/a	n/a	0	0	0
1086434	WORD	wordpools/wasnorm_wordpool_576.txt	LTP314	ltpFR2	7	6	KITCHEN	778	n/a	n/a	0	0	0
1089070	WORD	wordpools/wasnorm_wordpool_576.txt	LTP314	ltpFR2	7	6	THREAD	1460	n/a	n/a	0	0	0
1091821	WORD	wordpools/wasnorm_wordpool_576.txt	LTP314	ltpFR2	7	6	INFANT	737	n/a	n/a	0	0	0
1093440	START	n/a	LTP314	ltpFR2	7	n/a	n/a	n/a	9	n/a	n/a	n/a	n/a
1094392	DISTRACTOR	n/a	LTP314	ltpFR2	7	6	n/a	n/a	n/a	n/a	0	0	0
1094407	PROB	n/a	LTP314	ltpFR2	7	n/a	n/a	n/a	9	16	7	5	4
1096594	PROB	n/a	LTP314	ltpFR2	7	n/a	n/a	n/a	9	16	5	5	6
1097890	PROB	n/a	LTP314	ltpFR2	7	n/a	n/a	n/a	9	11	1	1	9
1099357	PROB	n/a	LTP314	ltpFR2	7	n/a	n/a	n/a	9	6	4	1	1
1101299	PROB	n/a	LTP314	ltpFR2	7	n/a	n/a	n/a	9	10	5	1	4
1103243	PROB	n/a	LTP314	ltpFR2	7	n/a	n/a	n/a	9	8	1	4	3
1105496	PROB	n/a	LTP314	ltpFR2	7	n/a	n/a	n/a	9	11	5	1	5
1107233	PROB	n/a	LTP314	ltpFR2	7	n/a	n/a	n/a	9	9	2	2	5
1109637	PROB	n/a	LTP314	ltpFR2	7	n/a	n/a	n/a	9	17	6	9	2
1111654	PROB	n/a	LTP314	ltpFR2	7	n/a	n/a	n/a	9	16	5	7	4
1113388	PROB	n/a	LTP314	ltpFR2	7	n/a	n/a	n/a	9	13	1	8	4
1115121	PROB	n/a	LTP314	ltpFR2	7	n/a	n/a	n/a	9	13	2	3	8
1116811	STOP	n/a	LTP314	ltpFR2	7	n/a	n/a	n/a	9	n/a	n/a	n/a	n/a
1119306	REC_START	n/a	LTP314	ltpFR2	7	6	n/a	n/a	n/a	n/a	0	0	0
1120360	REC_WORD	wordpools/wasnorm_wordpool_576.txt	LTP314	ltpFR2	7	6	GHETTO	633	n/a	n/a	0	0	0
1132028	REC_WORD	wordpools/wasnorm_wordpool_576.txt	LTP314	ltpFR2	7	6	KNIFE	785	n/a	n/a	0	0	0
1133123	REC_WORD	wordpools/wasnorm_wordpool_576.txt	LTP314	ltpFR2	7	6	PICTURE	1061	n/a	n/a	0	0	0
1133990	REC_WORD	wordpools/wasnorm_wordpool_576.txt	LTP314	ltpFR2	7	6	FRAME	600	n/a	n/a	0	0	0
1137560	REC_WORD	wordpools/wasnorm_wordpool_576.txt	LTP314	ltpFR2	7	6	THREAD	1460	n/a	n/a	0	0	0
1209737	WORD	wordpools/wasnorm_wordpool_576.txt	LTP314	ltpFR2	7	7	PIGEON	1065	n/a	n/a	0	0	0
1212474	WORD	wordpools/wasnorm_wordpool_576.txt	LTP314	ltpFR2	7	7	PERCH	1048	n/a	n/a	0	0	0
1215160	WORD	wordpools/wasnorm_wordpool_576.txt	LTP314	ltpFR2	7	7	AUTHOR	61	n/a	n/a	0	0	0
1217878	WORD	wordpools/wasnorm_wordpool_576.txt	LTP314	ltpFR2	7	7	PARROT	1015	n/a	n/a	0	0	0
1220320	WORD	wordpools/wasnorm_wordpool_576.txt	LTP314	ltpFR2	7	7	STICKER	1382	n/a	n/a	0	0	0
1223000	WORD	wordpools/wasnorm_wordpool_576.txt	LTP314	ltpFR2	7	7	SUBWAY	1400	n/a	n/a	0	0	0
1225669	WORD	wordpools/wasnorm_wordpool_576.txt	LTP314	ltpFR2	7	7	CRAB	397	n/a	n/a	0	0	0
1228292	WORD	wordpools/wasnorm_wordpool_576.txt	LTP314	ltpFR2	7	7	WRIST	1626	n/a	n/a	0	0	0
1230990	WORD	wordpools/wasnorm_wordpool_576.txt	LTP314	ltpFR2	7	7	ICEBERG	731	n/a	n/a	0	0	0
1233730	WORD	wordpools/wasnorm_wordpool_576.txt	LTP314	ltpFR2	7	7	KLEENEX	782	n/a	n/a	0	0	0
1236360	WORD	wordpools/wasnorm_wordpool_576.txt	LTP314	ltpFR2	7	7	FIREPLACE	570	n/a	n/a	0	0	0
1239130	WORD	wordpools/wasnorm_wordpool_576.txt	LTP314	ltpFR2	7	7	MOTOR	922	n/a	n/a	0	0	0
1241599	WORD	wordpools/wasnorm_wordpool_576.txt	LTP314	ltpFR2	7	7	MAILBOX	857	n/a	n/a	0	0	0
1244117	WORD	wordpools/wasnorm_wordpool_576.txt	LTP314	ltpFR2	7	7	BRIEFCASE	175	n/a	n/a	0	0	0
1246803	WORD	wordpools/wasnorm_wordpool_576.txt	LTP314	ltpFR2	7	7	LADY	794	n/a	n/a	0	0	0
1249359	WORD	wordpools/wasnorm_wordpool_576.txt	LTP314	ltpFR2	7	7	HONEY	713	n/a	n/a	0	0	0
1251943	WORD	wordpools/wasnorm_wordpool_576.txt	LTP314	ltpFR2	7	7	JEANS	752	n/a	n/a	0	0	0
1254509	WORD	wordpools/wasnorm_wordpool_576.txt	LTP314	ltpFR2	7	7	SMOG	1330	n/a	n/a	0	0	0
1257181	WORD	wordpools/wasnorm_wordpool_576.txt	LTP314	ltpFR2	7	7	TREAT	1501	n/a	n/a	0	0	0
1259880	WORD	wordpools/wasnorm_wordpool_576.txt	LTP314	ltpFR2	7	7	BISON	131	n/a	n/a	0	0	0
1262599	WORD	wordpools/wasnorm_wordpool_576.txt	LTP314	ltpFR2	7	7	NOMAD	955	n/a	n/a	0	0	0
1265235	WORD	wordpools/wasnorm_wordpool_576.txt	LTP314	ltpFR2	7	7	MEAT	883	n/a	n/a	0	0	0
1267754	WORD	wordpools/wasnorm_wordpool_576.txt	LTP314	ltpFR2	7	7	PASSAGE	1019	n/a	n/a	0	0	0
1270356	WORD	wordpools/wasnorm_wordpool_576.txt	LTP314	ltpFR2	7	7	MISTER	901	n/a	n/a	0	0	0
1271974	START	n/a	LTP314	ltpFR2	7	n/a	n/a	n/a	10	n/a	n/a	n/a	n/a
1272818	DISTRACTOR	n/a	LTP314	ltpFR2	7	7	n/a	n/a	n/a	n/a	0	0	0
1272825	PROB	n/a	LTP314	ltpFR2	7	n/a	n/a	n/a	10	8	1	2	5
1274659	PROB	n/a	LTP314	ltpFR2	7	n/a	n/a	n/a	10	13	7	2	4
1277009	PROB	n/a	LTP314	ltpFR2	7	n/a	n/a	n/a	10	15	2	5	8
1279126	PROB	n/a	LTP314	ltpFR2	7	n/a	n/a	n/a	10	19	3	9	7
1281829	PROB	n/a	LTP314	ltpFR2	7	n/a	n/a	n/a	10	15	5	3	7
1284364	PROB	n/a	LTP314	ltpFR2	7	n/a	n/a	n/a	10	17	2	9	6
1285949	PROB	n/a	LTP314	ltpFR2	7	n/a	n/a	n/a	10	19	2	9	8
1288819	PROB	n/a	LTP314	ltpFR2	7	n/a	n/a	n/a	10	21	6	9	6
1291106	PROB	n/a	LTP314	ltpFR2	7	n/a	n/a	n/a	10	18	6	4	8
1292405	PROB	n/a	LTP314	ltpFR2	7	n/a	n/a	n/a	10	18	3	6	9
1294322	PROB	n/a	LTP314	ltpFR2	7	n/a	n/a	n/a	10	16	7	5	4
1295835	STOP	n/a	LTP314	ltpFR2	7	n/a	n/a	n/a	10	n/a	n/a	n/a	n/a
1297842	REC_START	n/a	LTP314	ltpFR2	7	7	n/a	n/a	n/a	n/a	0	0	0
1300438	REC_WORD	wordpools/wasnorm_wordpool_576.txt	LTP314	ltpFR2	7	7	LADY	794	n/a	n/a	0	0	0
1315172	REC_WORD	wordpools/wasnorm_wordpool_576.txt	LTP314	ltpFR2	7	7	MISTER	901	n/a	n/a	0	0	0
1388287	DISTRACTOR	n/a	LTP314	ltpFR2	7	8	n/a	n/a	n/a	n/a	0	0	0
1388287	START	n/a	LTP314	ltpFR2	7	n/a	n/a	n/a	11	n/a	n/a	n/a	n/a
1388300	PROB	n/a	LTP314	ltpFR2	7	n/a	n/a	n/a	11	16	2	8	6
1389936	PROB	n/a	LTP314	ltpFR2	7	n/a	n/a	n/a	11	16	7	6	3
1392003	PROB	n/a	LTP314	ltpFR2	7	n/a	n/a	n/a	11	21	9	6	6
1394357	PROB	n/a	LTP314	ltpFR2	7	n/a	n/a	n/a	11	16	9	1	6
1395642	PROB	n/a	LTP314	ltpFR2	7	n/a	n/a	n/a	11	19	4	6	9
1396825	PROB	n/a	LTP314	ltpFR2	7	n/a	n/a	n/a	11	13	1	7	5
1398561	PROB	n/a	LTP314	ltpFR2	7	n/a	n/a	n/a	11	17	8	1	8
1401288	PROB	n/a	LTP314	ltpFR2	7	n/a	n/a	n/a	11	18	6	5	7
1402779	PROB	n/a	LTP314	ltpFR2	7	n/a	n/a	n/a	11	5	1	1	3
1404014	PROB	n/a	LTP314	ltpFR2	7	n/a	n/a	n/a	11	18	4	7	7
1405748	PROB	n/a	LTP314	ltpFR2	7	n/a	n/a	n/a	11	16	4	4	8
1407349	PROB	n/a	LTP314	ltpFR2	7	n/a	n/a	n/a	11	23	8	9	6
1411211	STOP	n/a	LTP314	ltpFR2	7	n/a	n/a	n/a	11	n/a	n/a	n/a	n/a
1413184	WORD	wordpools/wasnorm_wordpool_576.txt	LTP314	ltpFR2	7	8	TRENCH	1503	n/a	n/a	0	0	0
1415927	WORD	wordpools/wasnorm_wordpool_576.txt	LTP314	ltpFR2	7	8	CLOTHES	327	n/a	n/a	0	0	0
1418428	WORD	wordpools/wasnorm_wordpool_576.txt	LTP314	ltpFR2	7	8	SCARF	1246	n/a	n/a	0	0	0
1421156	WORD	wordpools/wasnorm_wordpool_576.txt	LTP314	ltpFR2	7	8	ACTRESS	6	n/a	n/a	0	0	0
1423732	WORD	wordpools/wasnorm_wordpool_576.txt	LTP314	ltpFR2	7	8	POPCORN	1104	n/a	n/a	0	0	0
1426452	WORD	wordpools/wasnorm_wordpool_576.txt	LTP314	ltpFR2	7	8	CRICKET	408	n/a	n/a	0	0	0
1429079	WORD	wordpools/wasnorm_wordpool_576.txt	LTP314	ltpFR2	7	8	BUG	187	n/a	n/a	0	0	0
1431698	WORD	wordpools/wasnorm_wordpool_576.txt	LTP314	ltpFR2	7	8	FRUIT	610	n/a	n/a	0	0	0
1434433	WORD	wordpools/wasnorm_wordpool_576.txt	LTP314	ltpFR2	7	8	LAPEL	800	n/a	n/a	0	0	0
1437135	WORD	wordpools/wasnorm_wordpool_576.txt	LTP314	ltpFR2	7	8	HAWK	692	n/a	n/a	0	0	0
1439847	WORD	wordpools/wasnorm_wordpool_576.txt	LTP314	ltpFR2	7	8	DRAGON	492	n/a	n/a	0	0	0
1442406	WORD	wordpools/wasnorm_wordpool_576.txt	LTP314	ltpFR2	7	8	SKETCH	1315	n/a	n/a	0	0	0
1445007	WORD	wordpools/wasnorm_wordpool_576.txt	LTP314	ltpFR2	7	8	FLESH	579	n/a	n/a	0	0	0
1447603	WORD	wordpools/wasnorm_wordpool_576.txt	LTP314	ltpFR2	7	8	SHORTCAKE	1292	n/a	n/a	0	0	0
1450171	WORD	wordpools/wasnorm_wordpool_576.txt	LTP314	ltpFR2	7	8	OUTFIT	988	n/a	n/a	0	0	0
1452880	WORD	wordpools/wasnorm_wordpool_576.txt	LTP314	ltpFR2	7	8	SIDEWALK	1303	n/a	n/a	0	0	0
1455309	WORD	wordpools/wasnorm_wordpool_576.txt	LTP314	ltpFR2	7	8	PIZZA	1079	n/a	n/a	0	0	0
1458078	WORD	wordpools/wasnorm_wordpool_576.txt	LTP314	ltpFR2	7	8	AIRPORT	13	n/a	n/a	0	0	0
1460797	WORD	wordpools/wasnorm_wordpool_576.txt	LTP314	ltpFR2	7	8	CREVICE	405	n/a	n/a	0	0	0
1463500	WORD	wordpools/wasnorm_wordpool_576.txt	LTP314	ltpFR2	7	8	PILOT	1070	n/a	n/a	0	0	0
1466035	WORD	wordpools/wasnorm_wordpool_576.txt	LTP314	ltpFR2	7	8	SURVEY	1414	n/a	n/a	0	0	0
1468742	WORD	wordpools/wasnorm_wordpool_576.txt	LTP314	ltpFR2	7	8	SPOOL	1356	n/a	n/a	0	0	0
1471189	WORD	wordpools/wasnorm_wordpool_576.txt	LTP314	ltpFR2	7	8	DIME	466	n/a	n/a	0	0	0
1473975	WORD	wordpools/wasnorm_wordpool_576.txt	LTP314	ltpFR2	7	8	TEACHER	1440	n/a	n/a	0	0	0
1475594	START	n/a	LTP314	ltpFR2	7	n/a	n/a	n/a	12	n/a	n/a	n/a	n/a
1476654	DISTRACTOR	n/a	LTP314	ltpFR2	7	8	n/a	n/a	n/a	n/a	0	0	0
1476661	PROB	n/a	LTP314	ltpFR2	7	n/a	n/a	n/a	12	12	8	2	2
1478376	PROB	n/a	LTP314	ltpFR2	7	n/a	n/a	n/a	12	19	1	4	4
1479926	PROB	n/a	LTP314	ltpFR2	7	n/a	n/a	n/a	12	10	4	3	3
1482045	PROB	n/a	LTP314	ltpFR2	7	n/a	n/a	n/a	12	16	6	1	9
1483530	PROB	n/a	LTP314	ltpFR2	7	n/a	n/a	n/a	12	5	2	1	1
1484831	PROB	n/a	LTP314	ltpFR2	7	n/a	n/a	n/a	12	14	6	2	6
1486449	PROB	n/a	LTP314	ltpFR2	7	n/a	n/a	n/a	12	14	1	9	4
1488033	PROB	n/a	LTP314	ltpFR2	7	n/a	n/a	n/a	12	21	8	5	8
1491102	PROB	n/a	LTP314	ltpFR2	7	n/a	n/a	n/a	12	12	6	3	3
1493271	PROB	n/a	LTP314	ltpFR2	7	n/a	n/a	n/a	12	13	6	4	3
1494555	PROB	n/a	LTP314	ltpFR2	7	n/a	n/a	n/a	12	7	5	1	1
1495940	PROB	n/a	LTP314	ltpFR2	7	n/a	n/a	n/a	12	17	7	6	4
1498331	STOP	n/a	LTP314	ltpFR2	7	n/a	n/a	n/a	12	n/a	n/a	n/a	n/a
1501365	REC_START	n/a	LTP314	ltpFR2	7	8	n/a	n/a	n/a	n/a	0	0	0
1502863	REC_WORD	wordpools/wasnorm_wordpool_576.txt	LTP314	ltpFR2	7	8	ACTRESS	6	n/a	n/a	0	0	0
1503675	REC_WORD	wordpools/wasnorm_wordpool_576.txt	LTP314	ltpFR2	7	8	FILM	565	n/a	n/a	0	0	0
1505325	REC_WORD	wordpools/wasnorm_wordpool_576.txt	LTP314	ltpFR2	7	8	TEACHER	1440	n/a	n/a	0	0	0
1517996	REC_WORD	wordpools/wasnorm_wordpool_576.txt	LTP314	ltpFR2	7	8	DRAGON	492	n/a	n/a	0	0	0
1527975	REC_WORD	wordpools/wasnorm_wordpool_576.txt	LTP314	ltpFR2	7	8	SKETCH	1315	n/a	n/a	0	0	0
1577908	REST_REWET	n/a	LTP314	ltpFR2	7	8	n/a	n/a	n/a	n/a	0	0	0
1913666	DISTRACTOR	n/a	LTP314	ltpFR2	7	9	n/a	n/a	n/a	n/a	0	0	0
1913666	START	n/a	LTP314	ltpFR2	7	n/a	n/a	n/a	13	n/a	n/a	n/a	n/a
1913679	PROB	n/a	LTP314	ltpFR2	7	n/a	n/a	n/a	13	19	7	3	9
1915072	PROB	n/a	LTP314	ltpFR2	7	n/a	n/a	n/a	13	10	2	5	3
1918111	PROB	n/a	LTP314	ltpFR2	7	n/a	n/a	n/a	13	18	3	9	6
1920543	PROB	n/a	LTP314	ltpFR2	7	n/a	n/a	n/a	13	13	6	5	2
1922461	PROB	n/a	LTP314	ltpFR2	7	n/a	n/a	n/a	13	13	3	3	7
1924496	PROB	n/a	LTP314	ltpFR2	7	n/a	n/a	n/a	13	20	7	5	8
1926233	PROB	n/a	LTP314	ltpFR2	7	n/a	n/a	n/a	13	19	8	2	9
1927966	PROB	n/a	LTP314	ltpFR2	7	n/a	n/a	n/a	13	16	6	1	9
1929985	PROB	n/a	LTP314	ltpFR2	7	n/a	n/a	n/a	13	12	6	3	4
1932103	PROB	n/a	LTP314	ltpFR2	7	n/a	n/a	n/a	13	21	6	6	9
1933771	PROB	n/a	LTP314	ltpFR2	7	n/a	n/a	n/a	13	19	3	9	7
1937243	STOP	n/a	LTP314	ltpFR2	7	n/a	n/a	n/a	13	n/a	n/a	n/a	n/a
1938595	WORD	wordpools/wasnorm_wordpool_576.txt	LTP314	ltpFR2	7	9	APPLE	33	n/a	n/a	0	0	0
1941279	WORD	wordpools/wasnorm_wordpool_576.txt	LTP314	ltpFR2	7	9	TILE	1468	n/a	n/a	0	0	0
1944049	WORD	wordpools/wasnorm_wordpool_576.txt	LTP314	ltpFR2	7	9	ZIPPER	1636	n/a	n/a	0	0	0
1946557	WORD	wordpools/wasnorm_wordpool_576.txt	LTP314	ltpFR2	7	9	PERMIT	1051	n/a	n/a	0	0	0
1949037	WORD	wordpools/wasnorm_wordpool_576.txt	LTP314	ltpFR2	7	9	PATIENT	1024	n/a	n/a	0	0	0
1951805	WORD	wordpools/wasnorm_wordpool_576.txt	LTP314	ltpFR2	7	9	MAMMAL	861	n/a	n/a	0	0	0
1954575	WORD	wordpools/wasnorm_wordpool_576.txt	LTP314	ltpFR2	7	9	DOLPHIN	483	n/a	n/a	0	0	0
1957032	WORD	wordpools/wasnorm_wordpool_576.txt	LTP314	ltpFR2	7	9	PECAN	1036	n/a	n/a	0	0	0
1959650	WORD	wordpools/wasnorm_wordpool_576.txt	LTP314	ltpFR2	7	9	SISTER	1312	n/a	n/a	0	0	0
1962231	WORD	wordpools/wasnorm_wordpool_576.txt	LTP314	ltpFR2	7	9	TRANSPLANT	1496	n/a	n/a	0	0	0
1964750	WORD	wordpools/wasnorm_wordpool_576.txt	LTP314	ltpFR2	7	9	RAZOR	1171	n/a	n/a	0	0	0
1967218	WORD	wordpools/wasnorm_wordpool_576.txt	LTP314	ltpFR2	7	9	ROD	1203	n/a	n/a	0	0	0
1970020	WORD	wordpools/wasnorm_wordpool_576.txt	LTP314	ltpFR2	7	9	MAILMAN	858	n/a	n/a	0	0	0
1972773	WORD	wordpools/wasnorm_wordpool_576.txt	LTP314	ltpFR2	7	9	MESSAGE	888	n/a	n/a	0	0	0
1975275	WORD	wordpools/wasnorm_wordpool_576.txt	LTP314	ltpFR2	7	9	DONOR	485	n/a	n/a	0	0	0
1978048	WORD	wordpools/wasnorm_wordpool_576.txt	LTP314	ltpFR2	7	9	SPARROW	1347	n/a	n/a	0	0	0
1980829	WORD	wordpools/wasnorm_wordpool_576.txt	LTP314	ltpFR2	7	9	QUEEN	1149	n/a	n/a	0	0	0
1983499	WORD	wordpools/wasnorm_wordpool_576.txt	LTP314	ltpFR2	7	9	BROTHER	179	n/a	n/a	0	0	0
1986051	WORD	wordpools/wasnorm_wordpool_576.txt	LTP314	ltpFR2	7	9	HARP	689	n/a	n/a	0	0	0
1988870	WORD	wordpools/wasnorm_wordpool_576.txt	LTP314	ltpFR2	7	9	WHISTLE	1606	n/a	n/a	0	0	0
1991556	WORD	wordpools/wasnorm_wordpool_576.txt	LTP314	ltpFR2	7	9	BLACKBOARD	133	n/a	n/a	0	0	0
1994142	WORD	wordpools/wasnorm_wordpool_576.txt	LTP314	ltpFR2	7	9	SCISSORS	1250	n/a	n/a	0	0	0
1996910	WORD	wordpools/wasnorm_wordpool_576.txt	LTP314	ltpFR2	7	9	CABIN	211	n/a	n/a	0	0	0
1999478	WORD	wordpools/wasnorm_wordpool_576.txt	LTP314	ltpFR2	7	9	BANJO	82	n/a	n/a	0	0	0
2001097	START	n/a	LTP314	ltpFR2	7	n/a	n/a	n/a	14	n/a	n/a	n/a	n/a
2001936	DISTRACTOR	n/a	LTP314	ltpFR2	7	9	n/a	n/a	n/a	n/a	0	0	0
2001947	PROB	n/a	LTP314	ltpFR2	7	n/a	n/a	n/a	14	10	6	1	3
2003780	PROB	n/a	LTP314	ltpFR2	7	n/a	n/a	n/a	14	18	7	3	8
2005047	PROB	n/a	LTP314	ltpFR2	7	n/a	n/a	n/a	14	5	3	1	1
2006198	PROB	n/a	LTP314	ltpFR2	7	n/a	n/a	n/a	14	18	8	5	5
2007482	PROB	n/a	LTP314	ltpFR2	7	n/a	n/a	n/a	14	21	8	8	5
2008916	PROB	n/a	LTP314	ltpFR2	7	n/a	n/a	n/a	14	20	8	4	8
2011070	PROB	n/a	LTP314	ltpFR2	7	n/a	n/a	n/a	14	10	4	1	5
2013004	PROB	n/a	LTP314	ltpFR2	7	n/a	n/a	n/a	14	18	4	9	5
2015740	PROB	n/a	LTP314	ltpFR2	7	n/a	n/a	n/a	14	15	6	2	7
2017341	PROB	n/a	LTP314	ltpFR2	7	n/a	n/a	n/a	14	16	4	4	8
2019542	PROB	n/a	LTP314	ltpFR2	7	n/a	n/a	n/a	14	15	4	8	3
2021528	PROB	n/a	LTP314	ltpFR2	7	n/a	n/a	n/a	14	13	7	1	4
2023111	PROB	n/a	LTP314	ltpFR2	7	n/a	n/a	n/a	14	15	4	4	7
2024947	STOP	n/a	LTP314	ltpFR2	7	n/a	n/a	n/a	14	n/a	n/a	n/a	n/a
2027065	REC_START	n/a	LTP314	ltpFR2	7	9	n/a	n/a	n/a	n/a	0	0	0
2028912	REC_WORD	wordpools/wasnorm_wordpool_576.txt	LTP314	ltpFR2	7	9	SPARROW	1347	n/a	n/a	0	0	0
2029788	REC_WORD	wordpools/wasnorm_wordpool_576.txt	LTP314	ltpFR2	7	9	DONOR	485	n/a	n/a	0	0	0
2030487	REC_WORD	wordpools/wasnorm_wordpool_576.txt	LTP314	ltpFR2	7	9	TRANSPLANT	1496	n/a	n/a	0	0	0
2069393	REC_WORD	wordpools/wasnorm_wordpool_576.txt	LTP314	ltpFR2	7	9	MESSAGE	888	n/a	n/a	0	0	0
2117507	WORD	wordpools/wasnorm_wordpool_576.txt	LTP314	ltpFR2	7	10	GALLON	618	n/a	n/a	0	0	0
2120190	WORD	wordpools/wasnorm_wordpool_576.txt	LTP314	ltpFR2	7	10	GIFT	635	n/a	n/a	0	0	0
2122740	WORD	wordpools/wasnorm_wordpool_576.txt	LTP314	ltpFR2	7	10	BOX	159	n/a	n/a	0	0	0
2125183	WORD	wordpools/wasnorm_wordpool_576.txt	LTP314	ltpFR2	7	10	TWISTER	1530	n/a	n/a	0	0	0
2127918	WORD	wordpools/wasnorm_wordpool_576.txt	LTP314	ltpFR2	7	10	GARBAGE	622	n/a	n/a	0	0	0
2130380	WORD	wordpools/wasnorm_wordpool_576.txt	LTP314	ltpFR2	7	10	CHAMPAGNE	278	n/a	n/a	0	0	0
2132832	WORD	wordpools/wasnorm_wordpool_576.txt	LTP314	ltpFR2	7	10	RECEIPT	1173	n/a	n/a	0	0	0
2135450	WORD	wordpools/wasnorm_wordpool_576.txt	LTP314	ltpFR2	7	10	CAPTIVE	240	n/a	n/a	0	0	0
2137953	WORD	wordpools/wasnorm_wordpool_576.txt	LTP314	ltpFR2	7	10	WITNESS	1618	n/a	n/a	0	0	0
2140505	WORD	wordpools/wasnorm_wordpool_576.txt	LTP314	ltpFR2	7	10	REPORT	1184	n/a	n/a	0	0	0
2143190	WORD	wordpools/wasnorm_wordpool_576.txt	LTP314	ltpFR2	7	10	MILK	895	n/a	n/a	0	0	0
2145784	WORD	wordpools/wasnorm_wordpool_576.txt	LTP314	ltpFR2	7	10	CLOUD	328	n/a	n/a	0	0	0
2148344	WORD	wordpools/wasnorm_wordpool_576.txt	LTP314	ltpFR2	7	10	JAPAN	749	n/a	n/a	0	0	0
2151005	WORD	wordpools/wasnorm_wordpool_576.txt	LTP314	ltpFR2	7	10	COIN	343	n/a	n/a	0	0	0
2153790	WORD	wordpools/wasnorm_wordpool_576.txt	LTP314	ltpFR2	7	10	GLASS	639	n/a	n/a	0	0	0
2156584	WORD	wordpools/wasnorm_wordpool_576.txt	LTP314	ltpFR2	7	10	AIRPLANE	12	n/a	n/a	0	0	0
2159068	WORD	wordpools/wasnorm_wordpool_576.txt	LTP314	ltpFR2	7	10	SHELTER	1282	n/a	n/a	0	0	0
2161787	WORD	wordpools/wasnorm_wordpool_576.txt	LTP314	ltpFR2	7	10	COCKTAIL	338	n/a	n/a	0	0	0
2164583	WORD	wordpools/wasnorm_wordpool_576.txt	LTP314	ltpFR2	7	10	OX	994	n/a	n/a	0	0	0
2167225	WORD	wordpools/wasnorm_wordpool_576.txt	LTP314	ltpFR2	7	10	TERMITE	1451	n/a	n/a	0	0	0
2169904	WORD	wordpools/wasnorm_wordpool_576.txt	LTP314	ltpFR2	7	10	RADISH	1158	n/a	n/a	0	0	0
2172680	WORD	wordpools/wasnorm_wordpool_576.txt	LTP314	ltpFR2	7	10	SALAD	1224	n/a	n/a	0	0	0
2175357	WORD	wordpools/wasnorm_wordpool_576.txt	LTP314	ltpFR2	7	10	COD	340	n/a	n/a	0	0	0
2177910	WORD	wordpools/wasnorm_wordpool_576.txt	LTP314	ltpFR2	7	10	SPOON	1357	n/a	n/a	0	0	0
2179518	START	n/a	LTP314	ltpFR2	7	n/a	n/a	n/a	15	n/a	n/a	n/a	n/a
2180433	DISTRACTOR	n/a	LTP314	ltpFR2	7	10	n/a	n/a	n/a	n/a	0	0	0
2180445	PROB	n/a	LTP314	ltpFR2	7	n/a	n/a	n/a	15	12	2	6	4
2182027	PROB	n/a	LTP314	ltpFR2	7	n/a	n/a	n/a	15	20	9	7	4
2184396	PROB	n/a	LTP314	ltpFR2	7	n/a	n/a	n/a	15	12	5	3	4
2186848	PROB	n/a	LTP314	ltpFR2	7	n/a	n/a	n/a	15	21	3	9	9
2188683	PROB	n/a	LTP314	ltpFR2	7	n/a	n/a	n/a	15	13	7	4	1
2191835	PROB	n/a	LTP314	ltpFR2	7	n/a	n/a	n/a	15	8	4	3	1
2193237	PROB	n/a	LTP314	ltpFR2	7	n/a	n/a	n/a	15	10	1	1	8
2194521	PROB	n/a	LTP314	ltpFR2	7	n/a	n/a	n/a	15	11	1	9	1
2195839	PROB	n/a	LTP314	ltpFR2	7	n/a	n/a	n/a	15	19	8	4	7
2197690	PROB	n/a	LTP314	ltpFR2	7	n/a	n/a	n/a	15	17	6	2	9
2201311	PROB	n/a	LTP314	ltpFR2	7	n/a	n/a	n/a	15	15	5	9	1
2203179	STOP	n/a	LTP314	ltpFR2	7	n/a	n/a	n/a	15	n/a	n/a	n/a	n/a
2205398	REC_START	n/a	LTP314	ltpFR2	7	10	n/a	n/a	n/a	n/a	0	0	0
2218426	REC_WORD	wordpools/wasnorm_wordpool_576.txt	LTP314	ltpFR2	7	10	COIN	343	n/a	n/a	0	0	0
2219107	REC_WORD	wordpools/wasnorm_wordpool_576.txt	LTP314	ltpFR2	7	10	JAPAN	749	n/a	n/a	0	0	0
2250685	REC_WORD	wordpools/wasnorm_wordpool_576.txt	LTP314	ltpFR2	7	10	TERMITE	1451	n/a	n/a	0	0	0
2269095	REC_WORD	wordpools/wasnorm_wordpool_576.txt	LTP314	ltpFR2	7	10	SPOON	1357	n/a	n/a	0	0	0
2271515	REC_WORD	wordpools/wasnorm_wordpool_576.txt	LTP314	ltpFR2	7	10	COD	340	n/a	n/a	0	0	0
2323392	WORD	wordpools/wasnorm_wordpool_576.txt	LTP314	ltpFR2	7	11	PALACE	1006	n/a	n/a	0	0	0
2325996	WORD	wordpools/wasnorm_wordpool_576.txt	LTP314	ltpFR2	7	11	GLOVE	642	n/a	n/a	0	0	0
2328548	WORD	wordpools/wasnorm_wordpool_576.txt	LTP314	ltpFR2	7	11	DRESS	495	n/a	n/a	0	0	0
2331171	WORD	wordpools/wasnorm_wordpool_576.txt	LTP314	ltpFR2	7	11	DIVER	476	n/a	n/a	0	0	0
2333669	WORD	wordpools/wasnorm_wordpool_576.txt	LTP314	ltpFR2	7	11	SLIDE	1326	n/a	n/a	0	0	0
2336454	WORD	wordpools/wasnorm_wordpool_576.txt	LTP314	ltpFR2	7	11	SPACE	1345	n/a	n/a	0	0	0
2339056	WORD	wordpools/wasnorm_wordpool_576.txt	LTP314	ltpFR2	7	11	NOVEL	960	n/a	n/a	0	0	0
2341631	WORD	wordpools/wasnorm_wordpool_576.txt	LTP314	ltpFR2	7	11	KEEPER	769	n/a	n/a	0	0	0
2344127	WORD	wordpools/wasnorm_wordpool_576.txt	LTP314	ltpFR2	7	11	WIDOW	1608	n/a	n/a	0	0	0
2346929	WORD	wordpools/wasnorm_wordpool_576.txt	LTP314	ltpFR2	7	11	SHOULDER	1294	n/a	n/a	0	0	0
2349464	WORD	wordpools/wasnorm_wordpool_576.txt	LTP314	ltpFR2	7	11	LACE	792	n/a	n/a	0	0	0
2352022	WORD	wordpools/wasnorm_wordpool_576.txt	LTP314	ltpFR2	7	11	PERFUME	1049	n/a	n/a	0	0	0
2354457	WORD	wordpools/wasnorm_wordpool_576.txt	LTP314	ltpFR2	7	11	MILDEW	893	n/a	n/a	0	0	0
2356937	WORD	wordpools/wasnorm_wordpool_576.txt	LTP314	ltpFR2	7	11	RUG	1215	n/a	n/a	0	0	0
2359646	WORD	wordpools/wasnorm_wordpool_576.txt	LTP314	ltpFR2	7	11	CATCHER	258	n/a	n/a	0	0	0
2362274	WORD	wordpools/wasnorm_wordpool_576.txt	LTP314	ltpFR2	7	11	VENUS	1557	n/a	n/a	0	0	0
2364908	WORD	wordpools/wasnorm_wordpool_576.txt	LTP314	ltpFR2	7	11	TWIG	1527	n/a	n/a	0	0	0
2367510	WORD	wordpools/wasnorm_wordpool_576.txt	LTP314	ltpFR2	7	11	THIEF	1456	n/a	n/a	0	0	0
2369946	WORD	wordpools/wasnorm_wordpool_576.txt	LTP314	ltpFR2	7	11	SPOUSE	1358	n/a	n/a	0	0	0
2372614	WORD	wordpools/wasnorm_wordpool_576.txt	LTP314	ltpFR2	7	11	WIFE	1609	n/a	n/a	0	0	0
2375358	WORD	wordpools/wasnorm_wordpool_576.txt	LTP314	ltpFR2	7	11	FEMALE	559	n/a	n/a	0	0	0
2377953	WORD	wordpools/wasnorm_wordpool_576.txt	LTP314	ltpFR2	7	11	CRUTCH	417	n/a	n/a	0	0	0
2380462	WORD	wordpools/wasnorm_wordpool_576.txt	LTP314	ltpFR2	7	11	FLEET	578	n/a	n/a	0	0	0
2383030	WORD	wordpools/wasnorm_wordpool_576.txt	LTP314	ltpFR2	7	11	ICING	732	n/a	n/a	0	0	0
2384642	START	n/a	LTP314	ltpFR2	7	n/a	n/a	n/a	16	n/a	n/a	n/a	n/a
2385715	DISTRACTOR	n/a	LTP314	ltpFR2	7	11	n/a	n/a	n/a	n/a	0	0	0
2385725	PROB	n/a	LTP314	ltpFR2	7	n/a	n/a	n/a	16	13	7	5	1
2389983	PROB	n/a	LTP314	ltpFR2	7	n/a	n/a	n/a	16	12	7	3	2
2391485	PROB	n/a	LTP314	ltpFR2	7	n/a	n/a	n/a	16	13	2	5	6
2393403	PROB	n/a	LTP314	ltpFR2	7	n/a	n/a	n/a	16	14	2	5	7
2394872	PROB	n/a	LTP314	ltpFR2	7	n/a	n/a	n/a	16	14	2	7	5
2396389	PROB	n/a	LTP314	ltpFR2	7	n/a	n/a	n/a	16	21	9	6	6
2398944	PROB	n/a	LTP314	ltpFR2	7	n/a	n/a	n/a	16	15	5	7	2
2401110	PROB	n/a	LTP314	ltpFR2	7	n/a	n/a	n/a	16	9	1	4	4
2404162	PROB	n/a	LTP314	ltpFR2	7	n/a	n/a	n/a	16	12	7	1	4
2405813	PROB	n/a	LTP314	ltpFR2	7	n/a	n/a	n/a	16	16	7	7	2
2408491	STOP	n/a	LTP314	ltpFR2	7	n/a	n/a	n/a	16	n/a	n/a	n/a	n/a
2410535	REC_START	n/a	LTP314	ltpFR2	7	11	n/a	n/a	n/a	n/a	0	0	0
2412978	REC_WORD	wordpools/wasnorm_wordpool_576.txt	LTP314	ltpFR2	7	11	ICING	732	n/a	n/a	0	0	0
2420698	REC_WORD	wordpools/wasnorm_wordpool_576.txt	LTP314	ltpFR2	7	11	PERFUME	1049	n/a	n/a	0	0	0
2421555	REC_WORD	wordpools/wasnorm_wordpool_576.txt	LTP314	ltpFR2	7	11	LACE	792	n/a	n/a	0	0	0
2451392	REC_WORD	wordpools/wasnorm_wordpool_576.txt	LTP314	ltpFR2	7	11	SPOUSE	1358	n/a	n/a	0	0	0
2452109	REC_WORD	wordpools/wasnorm_wordpool_576.txt	LTP314	ltpFR2	7	11	WIFE	1609	n/a	n/a	0	0	0
2452974	REC_WORD	wordpools/wasnorm_wordpool_576.txt	LTP314	ltpFR2	7	11	FEMALE	559	n/a	n/a	0	0	0
2500994	WORD	wordpools/wasnorm_wordpool_576.txt	LTP314	ltpFR2	7	12	NAPKIN	937	n/a	n/a	0	0	0
2503781	WORD	wordpools/wasnorm_wordpool_576.txt	LTP314	ltpFR2	7	12	TURKEY	1520	n/a	n/a	0	0	0
2506350	WORD	wordpools/wasnorm_wordpool_576.txt	LTP314	ltpFR2	7	12	SHERIFF	1284	n/a	n/a	0	0	0
2509152	WORD	wordpools/wasnorm_wordpool_576.txt	LTP314	ltpFR2	7	12	CANDY	230	n/a	n/a	0	0	0
2511656	WORD	wordpools/wasnorm_wordpool_576.txt	LTP314	ltpFR2	7	12	PAIL	1002	n/a	n/a	0	0	0
2514256	WORD	wordpools/wasnorm_wordpool_576.txt	LTP314	ltpFR2	7	12	STREAM	1392	n/a	n/a	0	0	0
2516758	WORD	wordpools/wasnorm_wordpool_576.txt	LTP314	ltpFR2	7	12	LEOPARD	812	n/a	n/a	0	0	0
2519593	WORD	wordpools/wasnorm_wordpool_576.txt	LTP314	ltpFR2	7	12	PASTRY	1022	n/a	n/a	0	0	0
2522162	WORD	wordpools/wasnorm_wordpool_576.txt	LTP314	ltpFR2	7	12	RABBIT	1152	n/a	n/a	0	0	0
2524864	WORD	wordpools/wasnorm_wordpool_576.txt	LTP314	ltpFR2	7	12	VALLEY	1545	n/a	n/a	0	0	0
2527417	WORD	wordpools/wasnorm_wordpool_576.txt	LTP314	ltpFR2	7	12	DAISY	435	n/a	n/a	0	0	0
2530085	WORD	wordpools/wasnorm_wordpool_576.txt	LTP314	ltpFR2	7	12	HAND	683	n/a	n/a	0	0	0
2532655	WORD	wordpools/wasnorm_wordpool_576.txt	LTP314	ltpFR2	7	12	ACTOR	5	n/a	n/a	0	0	0
2535355	WORD	wordpools/wasnorm_wordpool_576.txt	LTP314	ltpFR2	7	12	HUSBAND	728	n/a	n/a	0	0	0
2537890	WORD	wordpools/wasnorm_wordpool_576.txt	LTP314	ltpFR2	7	12	FLASHLIGHT	575	n/a	n/a	0	0	0
2540693	WORD	wordpools/wasnorm_wordpool_576.txt	LTP314	ltpFR2	7	12	SLUG	1329	n/a	n/a	0	0	0
2543311	WORD	wordpools/wasnorm_wordpool_576.txt	LTP314	ltpFR2	7	12	SNAIL	1332	n/a	n/a	0	0	0
2546030	WORD	wordpools/wasnorm_wordpool_576.txt	LTP314	ltpFR2	7	12	FLOWER	584	n/a	n/a	0	0	0
2548599	WORD	wordpools/wasnorm_wordpool_576.txt	LTP314	ltpFR2	7	12	ULCER	1533	n/a	n/a	0	0	0
2551371	WORD	wordpools/wasnorm_wordpool_576.txt	LTP314	ltpFR2	7	12	FOREST	593	n/a	n/a	0	0	0
2553970	WORD	wordpools/wasnorm_wordpool_576.txt	LTP314	ltpFR2	7	12	EMPIRE	530	n/a	n/a	0	0	0
2556788	WORD	wordpools/wasnorm_wordpool_576.txt	LTP314	ltpFR2	7	12	MONSTER	912	n/a	n/a	0	0	0
2559324	WORD	wordpools/wasnorm_wordpool_576.txt	LTP314	ltpFR2	7	12	FOREHEAD	592	n/a	n/a	0	0	0
2561910	WORD	wordpools/wasnorm_wordpool_576.txt	LTP314	ltpFR2	7	12	MASK	876	n/a	n/a	0	0	0
2563528	START	n/a	LTP314	ltpFR2	7	n/a	n/a	n/a	17	n/a	n/a	n/a	n/a
2564407	DISTRACTOR	n/a	LTP314	ltpFR2	7	12	n/a	n/a	n/a	n/a	0	0	0
2564415	PROB	n/a	LTP314	ltpFR2	7	n/a	n/a	n/a	17	9	2	2	5
2566183	PROB	n/a	LTP314	ltpFR2	7	n/a	n/a	n/a	17	6	2	3	1
2567511	PROB	n/a	LTP314	ltpFR2	7	n/a	n/a	n/a	17	15	1	9	5
2568694	PROB	n/a	LTP314	ltpFR2	7	n/a	n/a	n/a	17	12	4	7	1
2570279	PROB	n/a	LTP314	ltpFR2	7	n/a	n/a	n/a	17	14	9	5	4
2574702	PROB	n/a	LTP314	ltpFR2	7	n/a	n/a	n/a	17	10	1	1	8
2576701	PROB	n/a	LTP314	ltpFR2	7	n/a	n/a	n/a	17	14	6	2	4
2578069	PROB	n/a	LTP314	ltpFR2	7	n/a	n/a	n/a	17	14	5	2	7
2581477	PROB	n/a	LTP314	ltpFR2	7	n/a	n/a	n/a	17	15	9	5	1
2584028	PROB	n/a	LTP314	ltpFR2	7	n/a	n/a	n/a	17	14	8	3	3
2586171	STOP	n/a	LTP314	ltpFR2	7	n/a	n/a	n/a	17	n/a	n/a	n/a	n/a
2589368	REC_START	n/a	LTP314	ltpFR2	7	12	n/a	n/a	n/a	n/a	0	0	0
2590711	REC_WORD	wordpools/wasnorm_wordpool_576.txt	LTP314	ltpFR2	7	12	FOREHEAD	592	n/a	n/a	0	0	0
2591413	REC_WORD	wordpools/wasnorm_wordpool_576.txt	LTP314	ltpFR2	7	12	MASK	876	n/a	n/a	0	0	0
2593164	REC_WORD	wordpools/wasnorm_wordpool_576.txt	LTP314	ltpFR2	7	12	HAND	683	n/a	n/a	0	0	0
2594636	REC_WORD	wordpools/wasnorm_wordpool_576.txt	LTP314	ltpFR2	7	12	MONSTER	912	n/a	n/a	0	0	0
2595491	REC_WORD	wordpools/wasnorm_wordpool_576.txt	LTP314	ltpFR2	7	12	EMPIRE	530	n/a	n/a	0	0	0
2599896	REC_WORD	wordpools/wasnorm_wordpool_576.txt	LTP314	ltpFR2	7	12	HUSBAND	728	n/a	n/a	0	0	0
2679800	DISTRACTOR	n/a	LTP314	ltpFR2	7	13	n/a	n/a	n/a	n/a	0	0	0
2679800	START	n/a	LTP314	ltpFR2	7	n/a	n/a	n/a	18	n/a	n/a	n/a	n/a
2679812	PROB	n/a	LTP314	ltpFR2	7	n/a	n/a	n/a	18	2	9	6	8
2682530	PROB	n/a	LTP314	ltpFR2	7	n/a	n/a	n/a	18	14	2	1	5
2684161	PROB	n/a	LTP314	ltpFR2	7	n/a	n/a	n/a	18	18	3	9	6
2686531	PROB	n/a	LTP314	ltpFR2	7	n/a	n/a	n/a	18	12	4	4	4
2688782	PROB	n/a	LTP314	ltpFR2	7	n/a	n/a	n/a	18	19	9	9	1
2690250	PROB	n/a	LTP314	ltpFR2	7	n/a	n/a	n/a	18	12	2	8	2
2691584	PROB	n/a	LTP314	ltpFR2	7	n/a	n/a	n/a	18	23	7	7	9
2693936	PROB	n/a	LTP314	ltpFR2	7	n/a	n/a	n/a	18	16	9	4	3
2696205	PROB	n/a	LTP314	ltpFR2	7	n/a	n/a	n/a	18	23	8	6	9
2698924	PROB	n/a	LTP314	ltpFR2	7	n/a	n/a	n/a	18	13	3	7	3
2703800	STOP	n/a	LTP314	ltpFR2	7	n/a	n/a	n/a	18	n/a	n/a	n/a	n/a
2704849	WORD	wordpools/wasnorm_wordpool_576.txt	LTP314	ltpFR2	7	13	CUSTARD	429	n/a	n/a	0	0	0
2707387	WORD	wordpools/wasnorm_wordpool_576.txt	LTP314	ltpFR2	7	13	FOOTBALL	591	n/a	n/a	0	0	0
2709987	WORD	wordpools/wasnorm_wordpool_576.txt	LTP314	ltpFR2	7	13	COFFEE	341	n/a	n/a	0	0	0
2712588	WORD	wordpools/wasnorm_wordpool_576.txt	LTP314	ltpFR2	7	13	GRILL	661	n/a	n/a	0	0	0
2715290	WORD	wordpools/wasnorm_wordpool_576.txt	LTP314	ltpFR2	7	13	BUTCHER	203	n/a	n/a	0	0	0
2718076	WORD	wordpools/wasnorm_wordpool_576.txt	LTP314	ltpFR2	7	13	SAUSAGE	1238	n/a	n/a	0	0	0
2720812	WORD	wordpools/wasnorm_wordpool_576.txt	LTP314	ltpFR2	7	13	BADGE	68	n/a	n/a	0	0	0
2723247	WORD	wordpools/wasnorm_wordpool_576.txt	LTP314	ltpFR2	7	13	PUPPY	1144	n/a	n/a	0	0	0
2725699	WORD	wordpools/wasnorm_wordpool_576.txt	LTP314	ltpFR2	7	13	PIGMENT	1066	n/a	n/a	0	0	0
2728302	WORD	wordpools/wasnorm_wordpool_576.txt	LTP314	ltpFR2	7	13	WOMAN	1620	n/a	n/a	0	0	0
2730887	WORD	wordpools/wasnorm_wordpool_576.txt	LTP314	ltpFR2	7	13	COBRA	336	n/a	n/a	0	0	0
2733439	WORD	wordpools/wasnorm_wordpool_576.txt	LTP314	ltpFR2	7	13	DOUGHNUT	490	n/a	n/a	0	0	0
2735909	WORD	wordpools/wasnorm_wordpool_576.txt	LTP314	ltpFR2	7	13	CASKET	255	n/a	n/a	0	0	0
2738526	WORD	wordpools/wasnorm_wordpool_576.txt	LTP314	ltpFR2	7	13	LIPSTICK	829	n/a	n/a	0	0	0
2741246	WORD	wordpools/wasnorm_wordpool_576.txt	LTP314	ltpFR2	7	13	DRUG	501	n/a	n/a	0	0	0
2743780	WORD	wordpools/wasnorm_wordpool_576.txt	LTP314	ltpFR2	7	13	HERO	706	n/a	n/a	0	0	0
2746583	WORD	wordpools/wasnorm_wordpool_576.txt	LTP314	ltpFR2	7	13	LIZARD	834	n/a	n/a	0	0	0
2749185	WORD	wordpools/wasnorm_wordpool_576.txt	LTP314	ltpFR2	7	13	STALLION	1369	n/a	n/a	0	0	0
2751938	WORD	wordpools/wasnorm_wordpool_576.txt	LTP314	ltpFR2	7	13	HORSE	719	n/a	n/a	0	0	0
2754456	WORD	wordpools/wasnorm_wordpool_576.txt	LTP314	ltpFR2	7	13	COMPASS	358	n/a	n/a	0	0	0
2757108	WORD	wordpools/wasnorm_wordpool_576.txt	LTP314	ltpFR2	7	13	COWBOY	395	n/a	n/a	0	0	0
2759627	WORD	wordpools/wasnorm_wordpool_576.txt	LTP314	ltpFR2	7	13	SPONGE	1355	n/a	n/a	0	0	0
2762262	WORD	wordpools/wasnorm_wordpool_576.txt	LTP314	ltpFR2	7	13	PEBBLE	1035	n/a	n/a	0	0	0
2764747	WORD	wordpools/wasnorm_wordpool_576.txt	LTP314	ltpFR2	7	13	TRIBE	1505	n/a	n/a	0	0	0
2766366	START	n/a	LTP314	ltpFR2	7	n/a	n/a	n/a	19	n/a	n/a	n/a	n/a
2767527	DISTRACTOR	n/a	LTP314	ltpFR2	7	13	n/a	n/a	n/a	n/a	0	0	0
2767534	PROB	n/a	LTP314	ltpFR2	7	n/a	n/a	n/a	19	19	9	1	9
2769469	PROB	n/a	LTP314	ltpFR2	7	n/a	n/a	n/a	19	16	6	6	4
2771252	PROB	n/a	LTP314	ltpFR2	7	n/a	n/a	n/a	19	14	4	5	5
2772505	PROB	n/a	LTP314	ltpFR2	7	n/a	n/a	n/a	19	13	5	4	4
2777321	PROB	n/a	LTP314	ltpFR2	7	n/a	n/a	n/a	19	18	6	7	6
2779056	PROB	n/a	LTP314	ltpFR2	7	n/a	n/a	n/a	19	15	3	3	9
2780277	PROB	n/a	LTP314	ltpFR2	7	n/a	n/a	n/a	19	9	4	2	3
2782159	PROB	n/a	LTP314	ltpFR2	7	n/a	n/a	n/a	19	16	7	2	7
2783831	PROB	n/a	LTP314	ltpFR2	7	n/a	n/a	n/a	19	16	7	8	1
2785343	PROB	n/a	LTP314	ltpFR2	7	n/a	n/a	n/a	19	14	5	3	6
2787228	PROB	n/a	LTP314	ltpFR2	7	n/a	n/a	n/a	19	13	4	6	3
2788548	PROB	n/a	LTP314	ltpFR2	7	n/a	n/a	n/a	19	17	9	6	2
2790139	STOP	n/a	LTP314	ltpFR2	7	n/a	n/a	n/a	19	n/a	n/a	n/a	n/a
2792182	REC_START	n/a	LTP314	ltpFR2	7	13	n/a	n/a	n/a	n/a	0	0	0
2794796	REC_WORD	wordpools/wasnorm_wordpool_576.txt	LTP314	ltpFR2	7	13	PEBBLE	1035	n/a	n/a	0	0	0
2795395	REC_WORD	wordpools/wasnorm_wordpool_576.txt	LTP314	ltpFR2	7	13	TRIBE	1505	n/a	n/a	0	0	0
2796198	REC_WORD	wordpools/wasnorm_wordpool_576.txt	LTP314	ltpFR2	7	13	HORSE	719	n/a	n/a	0	0	0
2796896	REC_WORD	wordpools/wasnorm_wordpool_576.txt	LTP314	ltpFR2	7	13	STALLION	1369	n/a	n/a	0	0	0
2882604	DISTRACTOR	n/a	LTP314	ltpFR2	7	14	n/a	n/a	n/a	n/a	0	0	0
2882605	START	n/a	LTP314	ltpFR2	7	n/a	n/a	n/a	20	n/a	n/a	n/a	n/a
2882618	PROB	n/a	LTP314	ltpFR2	7	n/a	n/a	n/a	20	19	7	3	9
2885079	PROB	n/a	LTP314	ltpFR2	7	n/a	n/a	n/a	20	9	1	7	1
2887033	PROB	n/a	LTP314	ltpFR2	7	n/a	n/a	n/a	20	10	6	1	3
2889983	PROB	n/a	LTP314	ltpFR2	7	n/a	n/a	n/a	20	16	6	9	1
2892017	PROB	n/a	LTP314	ltpFR2	7	n/a	n/a	n/a	20	16	4	9	3
2893637	PROB	n/a	LTP314	ltpFR2	7	n/a	n/a	n/a	20	21	8	3	8
2895639	PROB	n/a	LTP314	ltpFR2	7	n/a	n/a	n/a	20	21	7	9	5
2898673	PROB	n/a	LTP314	ltpFR2	7	n/a	n/a	n/a	20	18	6	8	4
2900476	PROB	n/a	LTP314	ltpFR2	7	n/a	n/a	n/a	20	13	2	7	4
2902126	PROB	n/a	LTP314	ltpFR2	7	n/a	n/a	n/a	20	17	7	3	7
2903594	PROB	n/a	LTP314	ltpFR2	7	n/a	n/a	n/a	20	20	9	2	9
2905899	STOP	n/a	LTP314	ltpFR2	7	n/a	n/a	n/a	20	n/a	n/a	n/a	n/a
2907751	WORD	wordpools/wasnorm_wordpool_576.txt	LTP314	ltpFR2	7	14	DRESSER	496	n/a	n/a	0	0	0
2910292	WORD	wordpools/wasnorm_wordpool_576.txt	LTP314	ltpFR2	7	14	OYSTER	995	n/a	n/a	0	0	0
2912737	WORD	wordpools/wasnorm_wordpool_576.txt	LTP314	ltpFR2	7	14	COOKBOOK	373	n/a	n/a	0	0	0
2915274	WORD	wordpools/wasnorm_wordpool_576.txt	LTP314	ltpFR2	7	14	LASER	801	n/a	n/a	0	0	0
2917859	WORD	wordpools/wasnorm_wordpool_576.txt	LTP314	ltpFR2	7	14	SWITCH	1422	n/a	n/a	0	0	0
2920365	WORD	wordpools/wasnorm_wordpool_576.txt	LTP314	ltpFR2	7	14	ORCHID	982	n/a	n/a	0	0	0
2922963	WORD	wordpools/wasnorm_wordpool_576.txt	LTP314	ltpFR2	7	14	HEART	697	n/a	n/a	0	0	0
2925703	WORD	wordpools/wasnorm_wordpool_576.txt	LTP314	ltpFR2	7	14	SUPPER	1411	n/a	n/a	0	0	0
2928385	WORD	wordpools/wasnorm_wordpool_576.txt	LTP314	ltpFR2	7	14	COUNTRY	388	n/a	n/a	0	0	0
2930836	WORD	wordpools/wasnorm_wordpool_576.txt	LTP314	ltpFR2	7	14	GLOBE	641	n/a	n/a	0	0	0
2933573	WORD	wordpools/wasnorm_wordpool_576.txt	LTP314	ltpFR2	7	14	SUNRISE	1407	n/a	n/a	0	0	0
2936241	WORD	wordpools/wasnorm_wordpool_576.txt	LTP314	ltpFR2	7	14	SUNSET	1408	n/a	n/a	0	0	0
2938880	WORD	wordpools/wasnorm_wordpool_576.txt	LTP314	ltpFR2	7	14	SERVER	1272	n/a	n/a	0	0	0
2941630	WORD	wordpools/wasnorm_wordpool_576.txt	LTP314	ltpFR2	7	14	LOVER	846	n/a	n/a	0	0	0
2944448	WORD	wordpools/wasnorm_wordpool_576.txt	LTP314	ltpFR2	7	14	GREASE	660	n/a	n/a	0	0	0
2946900	WORD	wordpools/wasnorm_wordpool_576.txt	LTP314	ltpFR2	7	14	WORKER	1621	n/a	n/a	0	0	0
2949436	WORD	wordpools/wasnorm_wordpool_576.txt	LTP314	ltpFR2	7	14	SCOTCH	1251	n/a	n/a	0	0	0
2952171	WORD	wordpools/wasnorm_wordpool_576.txt	LTP314	ltpFR2	7	14	DANCER	437	n/a	n/a	0	0	0
2954840	WORD	wordpools/wasnorm_wordpool_576.txt	LTP314	ltpFR2	7	14	PLIERS	1089	n/a	n/a	0	0	0
2957476	WORD	wordpools/wasnorm_wordpool_576.txt	LTP314	ltpFR2	7	14	BUGGY	188	n/a	n/a	0	0	0
2960045	WORD	wordpools/wasnorm_wordpool_576.txt	LTP314	ltpFR2	7	14	WASHER	1592	n/a	n/a	0	0	0
2962849	WORD	wordpools/wasnorm_wordpool_576.txt	LTP314	ltpFR2	7	14	FLUTE	585	n/a	n/a	0	0	0
2965316	WORD	wordpools/wasnorm_wordpool_576.txt	LTP314	ltpFR2	7	14	LUNCH	849	n/a	n/a	0	0	0
2967867	WORD	wordpools/wasnorm_wordpool_576.txt	LTP314	ltpFR2	7	14	SHOVEL	1295	n/a	n/a	0	0	0
2969487	START	n/a	LTP314	ltpFR2	7	n/a	n/a	n/a	21	n/a	n/a	n/a	n/a
2970477	DISTRACTOR	n/a	LTP314	ltpFR2	7	14	n/a	n/a	n/a	n/a	0	0	0
2970486	PROB	n/a	LTP314	ltpFR2	7	n/a	n/a	n/a	21	11	1	9	1
2972451	PROB	n/a	LTP314	ltpFR2	7	n/a	n/a	n/a	21	4	2	1	1
2973869	PROB	n/a	LTP314	ltpFR2	7	n/a	n/a	n/a	21	16	3	6	7
2975955	PROB	n/a	LTP314	ltpFR2	7	n/a	n/a	n/a	21	1	5	4	2
2977356	PROB	n/a	LTP314	ltpFR2	7	n/a	n/a	n/a	21	8	4	3	2
2979207	PROB	n/a	LTP314	ltpFR2	7	n/a	n/a	n/a	21	14	5	3	6
2981426	PROB	n/a	LTP314	ltpFR2	7	n/a	n/a	n/a	21	7	3	1	3
2983327	PROB	n/a	LTP314	ltpFR2	7	n/a	n/a	n/a	21	15	4	5	6
2985045	PROB	n/a	LTP314	ltpFR2	7	n/a	n/a	n/a	21	16	6	9	1
2988198	PROB	n/a	LTP314	ltpFR2	7	n/a	n/a	n/a	21	8	2	3	3
2993487	STOP	n/a	LTP314	ltpFR2	7	n/a	n/a	n/a	21	n/a	n/a	n/a	n/a
2995291	REC_START	n/a	LTP314	ltpFR2	7	14	n/a	n/a	n/a	n/a	0	0	0
3002569	REC_WORD	wordpools/wasnorm_wordpool_576.txt	LTP314	ltpFR2	7	14	WASHER	1592	n/a	n/a	0	0	0
3003810	REC_WORD	wordpools/wasnorm_wordpool_576.txt	LTP314	ltpFR2	7	14	PLIERS	1089	n/a	n/a	0	0	0
3085726	DISTRACTOR	n/a	LTP314	ltpFR2	7	15	n/a	n/a	n/a	n/a	0	0	0
3085726	START	n/a	LTP314	ltpFR2	7	n/a	n/a	n/a	22	n/a	n/a	n/a	n/a
3085739	PROB	n/a	LTP314	ltpFR2	7	n/a	n/a	n/a	22	10	5	4	1
3087432	PROB	n/a	LTP314	ltpFR2	7	n/a	n/a	n/a	22	15	4	3	8
3088998	PROB	n/a	LTP314	ltpFR2	7	n/a	n/a	n/a	22	9	3	3	3
3090284	PROB	n/a	LTP314	ltpFR2	7	n/a	n/a	n/a	22	17	3	8	6
3091986	PROB	n/a	LTP314	ltpFR2	7	n/a	n/a	n/a	22	21	7	5	9
3094152	PROB	n/a	LTP314	ltpFR2	7	n/a	n/a	n/a	22	12	6	4	2
3095253	PROB	n/a	LTP314	ltpFR2	7	n/a	n/a	n/a	22	18	1	8	9
3096604	PROB	n/a	LTP314	ltpFR2	7	n/a	n/a	n/a	22	13	7	4	2
3099357	PROB	n/a	LTP314	ltpFR2	7	n/a	n/a	n/a	22	17	9	3	7
3100858	PROB	n/a	LTP314	ltpFR2	7	n/a	n/a	n/a	22	6	3	1	2
3103177	PROB	n/a	LTP314	ltpFR2	7	n/a	n/a	n/a	22	16	6	6	4
3105045	PROB	n/a	LTP314	ltpFR2	7	n/a	n/a	n/a	22	14	2	8	4
3106381	PROB	n/a	LTP314	ltpFR2	7	n/a	n/a	n/a	22	15	9	3	5
3107563	PROB	n/a	LTP314	ltpFR2	7	n/a	n/a	n/a	22	18	7	2	9
3108715	STOP	n/a	LTP314	ltpFR2	7	n/a	n/a	n/a	22	n/a	n/a	n/a	n/a
3110545	WORD	wordpools/wasnorm_wordpool_576.txt	LTP314	ltpFR2	7	15	JUGGLER	763	n/a	n/a	0	0	0
3113130	WORD	wordpools/wasnorm_wordpool_576.txt	LTP314	ltpFR2	7	15	ONION	977	n/a	n/a	0	0	0
3115790	WORD	wordpools/wasnorm_wordpool_576.txt	LTP314	ltpFR2	7	15	ANTLER	29	n/a	n/a	0	0	0
3118350	WORD	wordpools/wasnorm_wordpool_576.txt	LTP314	ltpFR2	7	15	ISLAND	745	n/a	n/a	0	0	0
3120786	WORD	wordpools/wasnorm_wordpool_576.txt	LTP314	ltpFR2	7	15	CROWN	415	n/a	n/a	0	0	0
3123263	WORD	wordpools/wasnorm_wordpool_576.txt	LTP314	ltpFR2	7	15	BARLEY	88	n/a	n/a	0	0	0
3125966	WORD	wordpools/wasnorm_wordpool_576.txt	LTP314	ltpFR2	7	15	PORTRAIT	1111	n/a	n/a	0	0	0
3128508	WORD	wordpools/wasnorm_wordpool_576.txt	LTP314	ltpFR2	7	15	SKILLET	1317	n/a	n/a	0	0	0
3131059	WORD	wordpools/wasnorm_wordpool_576.txt	LTP314	ltpFR2	7	15	STOVE	1388	n/a	n/a	0	0	0
3133856	WORD	wordpools/wasnorm_wordpool_576.txt	LTP314	ltpFR2	7	15	NURSE	963	n/a	n/a	0	0	0
3136514	WORD	wordpools/wasnorm_wordpool_576.txt	LTP314	ltpFR2	7	15	FUNGUS	614	n/a	n/a	0	0	0
3139115	WORD	wordpools/wasnorm_wordpool_576.txt	LTP314	ltpFR2	7	15	BELLY	119	n/a	n/a	0	0	0
3141595	WORD	wordpools/wasnorm_wordpool_576.txt	LTP314	ltpFR2	7	15	TUNNEL	1519	n/a	n/a	0	0	0
3144153	WORD	wordpools/wasnorm_wordpool_576.txt	LTP314	ltpFR2	7	15	SCULPTURE	1258	n/a	n/a	0	0	0
3146932	WORD	wordpools/wasnorm_wordpool_576.txt	LTP314	ltpFR2	7	15	LEADER	807	n/a	n/a	0	0	0
3149702	WORD	wordpools/wasnorm_wordpool_576.txt	LTP314	ltpFR2	7	15	CASHEW	253	n/a	n/a	0	0	0
3152487	WORD	wordpools/wasnorm_wordpool_576.txt	LTP314	ltpFR2	7	15	NECKLACE	940	n/a	n/a	0	0	0
3155256	WORD	wordpools/wasnorm_wordpool_576.txt	LTP314	ltpFR2	7	15	RUST	1219	n/a	n/a	0	0	0
3157697	WORD	wordpools/wasnorm_wordpool_576.txt	LTP314	ltpFR2	7	15	TAXI	1438	n/a	n/a	0	0	0
3160511	WORD	wordpools/wasnorm_wordpool_576.txt	LTP314	ltpFR2	7	15	INMATE	738	n/a	n/a	0	0	0
3163230	WORD	wordpools/wasnorm_wordpool_576.txt	LTP314	ltpFR2	7	15	CONVICT	371	n/a	n/a	0	0	0
3166016	WORD	wordpools/wasnorm_wordpool_576.txt	LTP314	ltpFR2	7	15	SWIMMER	1420	n/a	n/a	0	0	0
3168601	WORD	wordpools/wasnorm_wordpool_576.txt	LTP314	ltpFR2	7	15	DRAWING	494	n/a	n/a	0	0	0
3171087	WORD	wordpools/wasnorm_wordpool_576.txt	LTP314	ltpFR2	7	15	MATCH	878	n/a	n/a	0	0	0
3172705	START	n/a	LTP314	ltpFR2	7	n/a	n/a	n/a	23	n/a	n/a	n/a	n/a
3173707	DISTRACTOR	n/a	LTP314	ltpFR2	7	15	n/a	n/a	n/a	n/a	0	0	0
3173722	PROB	n/a	LTP314	ltpFR2	7	n/a	n/a	n/a	23	15	3	7	5
3176273	PROB	n/a	LTP314	ltpFR2	7	n/a	n/a	n/a	23	11	7	3	1
3178057	PROB	n/a	LTP314	ltpFR2	7	n/a	n/a	n/a	23	19	7	5	7
3180475	PROB	n/a	LTP314	ltpFR2	7	n/a	n/a	n/a	23	20	4	8	8
3183897	PROB	n/a	LTP314	ltpFR2	7	n/a	n/a	n/a	23	11	5	2	4
3186280	PROB	n/a	LTP314	ltpFR2	7	n/a	n/a	n/a	23	12	4	7	1
3188014	PROB	n/a	LTP314	ltpFR2	7	n/a	n/a	n/a	23	11	3	2	6
3190316	PROB	n/a	LTP314	ltpFR2	7	n/a	n/a	n/a	23	14	1	9	4
3191770	PROB	n/a	LTP314	ltpFR2	7	n/a	n/a	n/a	23	18	5	5	8
3192951	PROB	n/a	LTP314	ltpFR2	7	n/a	n/a	n/a	23	23	9	6	8
3196475	STOP	n/a	LTP314	ltpFR2	7	n/a	n/a	n/a	23	n/a	n/a	n/a	n/a
3198625	REC_START	n/a	LTP314	ltpFR2	7	15	n/a	n/a	n/a	n/a	0	0	0
3208267	REC_WORD	wordpools/wasnorm_wordpool_576.txt	LTP314	ltpFR2	7	15	ONION	977	n/a	n/a	0	0	0
3289095	WORD	wordpools/wasnorm_wordpool_576.txt	LTP314	ltpFR2	7	16	REBEL	1172	n/a	n/a	0	0	0
3291903	WORD	wordpools/wasnorm_wordpool_576.txt	LTP314	ltpFR2	7	16	SALT	1229	n/a	n/a	0	0	0
3294585	WORD	wordpools/wasnorm_wordpool_576.txt	LTP314	ltpFR2	7	16	BARREL	91	n/a	n/a	0	0	0
3297020	WORD	wordpools/wasnorm_wordpool_576.txt	LTP314	ltpFR2	7	16	FLAG	573	n/a	n/a	0	0	0
3299639	WORD	wordpools/wasnorm_wordpool_576.txt	LTP314	ltpFR2	7	16	EUROPE	541	n/a	n/a	0	0	0
3302206	WORD	wordpools/wasnorm_wordpool_576.txt	LTP314	ltpFR2	7	16	RIVER	1194	n/a	n/a	0	0	0
3304926	WORD	wordpools/wasnorm_wordpool_576.txt	LTP314	ltpFR2	7	16	YARN	1631	n/a	n/a	0	0	0
3307583	WORD	wordpools/wasnorm_wordpool_576.txt	LTP314	ltpFR2	7	16	WARDROBE	1587	n/a	n/a	0	0	0
3310352	WORD	wordpools/wasnorm_wordpool_576.txt	LTP314	ltpFR2	7	16	FOX	598	n/a	n/a	0	0	0
3313082	WORD	wordpools/wasnorm_wordpool_576.txt	LTP314	ltpFR2	7	16	PUDDLE	1140	n/a	n/a	0	0	0
3315518	WORD	wordpools/wasnorm_wordpool_576.txt	LTP314	ltpFR2	7	16	DENIM	446	n/a	n/a	0	0	0
3317953	WORD	wordpools/wasnorm_wordpool_576.txt	LTP314	ltpFR2	7	16	TABLE	1426	n/a	n/a	0	0	0
3320655	WORD	wordpools/wasnorm_wordpool_576.txt	LTP314	ltpFR2	7	16	ASIA	46	n/a	n/a	0	0	0
3323289	WORD	wordpools/wasnorm_wordpool_576.txt	LTP314	ltpFR2	7	16	BALLOON	75	n/a	n/a	0	0	0
3325981	WORD	wordpools/wasnorm_wordpool_576.txt	LTP314	ltpFR2	7	16	HEDGE	699	n/a	n/a	0	0	0
3328694	WORD	wordpools/wasnorm_wordpool_576.txt	LTP314	ltpFR2	7	16	FREEZER	604	n/a	n/a	0	0	0
3331237	WORD	wordpools/wasnorm_wordpool_576.txt	LTP314	ltpFR2	7	16	MARKER	870	n/a	n/a	0	0	0
3333922	WORD	wordpools/wasnorm_wordpool_576.txt	LTP314	ltpFR2	7	16	CRAYON	401	n/a	n/a	0	0	0
3336567	WORD	wordpools/wasnorm_wordpool_576.txt	LTP314	ltpFR2	7	16	SLOPE	1328	n/a	n/a	0	0	0
3339135	WORD	wordpools/wasnorm_wordpool_576.txt	LTP314	ltpFR2	7	16	SUMMIT	1405	n/a	n/a	0	0	0
3341753	WORD	wordpools/wasnorm_wordpool_576.txt	LTP314	ltpFR2	7	16	BUNNY	198	n/a	n/a	0	0	0
3344247	WORD	wordpools/wasnorm_wordpool_576.txt	LTP314	ltpFR2	7	16	OZONE	996	n/a	n/a	0	0	0
3346875	WORD	wordpools/wasnorm_wordpool_576.txt	LTP314	ltpFR2	7	16	SEAFOOD	1260	n/a	n/a	0	0	0
3349636	WORD	wordpools/wasnorm_wordpool_576.txt	LTP314	ltpFR2	7	16	BOARD	143	n/a	n/a	0	0	0
3351246	START	n/a	LTP314	ltpFR2	7	n/a	n/a	n/a	24	n/a	n/a	n/a	n/a
3352212	DISTRACTOR	n/a	LTP314	ltpFR2	7	16	n/a	n/a	n/a	n/a	0	0	0
3352220	PROB	n/a	LTP314	ltpFR2	7	n/a	n/a	n/a	24	15	6	2	7
3354235	PROB	n/a	LTP314	ltpFR2	7	n/a	n/a	n/a	24	12	7	4	1
3355920	PROB	n/a	LTP314	ltpFR2	7	n/a	n/a	n/a	24	19	6	8	5
3359841	PROB	n/a	LTP314	ltpFR2	7	n/a	n/a	n/a	24	13	7	4	2
3361358	PROB	n/a	LTP314	ltpFR2	7	n/a	n/a	n/a	24	14	1	5	8
3363394	PROB	n/a	LTP314	ltpFR2	7	n/a	n/a	n/a	24	8	1	4	3
3365329	PROB	n/a	LTP314	ltpFR2	7	n/a	n/a	n/a	24	20	7	9	4
3368063	PROB	n/a	LTP314	ltpFR2	7	n/a	n/a	n/a	24	22	6	8	8
3371317	PROB	n/a	LTP314	ltpFR2	7	n/a	n/a	n/a	24	16	9	1	6
3373301	PROB	n/a	LTP314	ltpFR2	7	n/a	n/a	n/a	24	9	3	3	3
3374443	STOP	n/a	LTP314	ltpFR2	7	n/a	n/a	n/a	24	n/a	n/a	n/a	n/a
3377192	REC_START	n/a	LTP314	ltpFR2	7	16	n/a	n/a	n/a	n/a	0	0	0
3379661	REC_WORD	wordpools/wasnorm_wordpool_576.txt	LTP314	ltpFR2	7	16	SUMMIT	1405	n/a	n/a	0	0	0
3380537	REC_WORD	wordpools/wasnorm_wordpool_576.txt	LTP314	ltpFR2	7	16	BUNNY	198	n/a	n/a	0	0	0
3383103	REC_WORD	wordpools/wasnorm_wordpool_576.txt	LTP314	ltpFR2	7	16	SLOPE	1328	n/a	n/a	0	0	0
3394190	REC_WORD	wordpools/wasnorm_wordpool_576.txt	LTP314	ltpFR2	7	16	SEAFOOD	1260	n/a	n/a	0	0	0
3453738	REST_REWET	n/a	LTP314	ltpFR2	7	16	n/a	n/a	n/a	n/a	0	0	0
3862251	DISTRACTOR	n/a	LTP314	ltpFR2	7	17	n/a	n/a	n/a	n/a	0	0	0
3862251	START	n/a	LTP314	ltpFR2	7	n/a	n/a	n/a	25	n/a	n/a	n/a	n/a
3862264	PROB	n/a	LTP314	ltpFR2	7	n/a	n/a	n/a	25	7	2	2	3
3865010	PROB	n/a	LTP314	ltpFR2	7	n/a	n/a	n/a	25	15	9	2	4
3866728	PROB	n/a	LTP314	ltpFR2	7	n/a	n/a	n/a	25	21	7	8	5
3868513	PROB	n/a	LTP314	ltpFR2	7	n/a	n/a	n/a	25	13	2	5	6
3870982	PROB	n/a	LTP314	ltpFR2	7	n/a	n/a	n/a	25	18	2	9	7
3872783	PROB	n/a	LTP314	ltpFR2	7	n/a	n/a	n/a	25	8	1	6	1
3874184	PROB	n/a	LTP314	ltpFR2	7	n/a	n/a	n/a	25	17	7	4	6
3875902	PROB	n/a	LTP314	ltpFR2	7	n/a	n/a	n/a	25	15	8	6	1
3877638	PROB	n/a	LTP314	ltpFR2	7	n/a	n/a	n/a	25	15	3	4	8
3879189	PROB	n/a	LTP314	ltpFR2	7	n/a	n/a	n/a	25	18	9	8	1
3881158	PROB	n/a	LTP314	ltpFR2	7	n/a	n/a	n/a	25	19	9	4	6
3883226	PROB	n/a	LTP314	ltpFR2	7	n/a	n/a	n/a	25	14	6	7	2
3884795	STOP	n/a	LTP314	ltpFR2	7	n/a	n/a	n/a	25	n/a	n/a	n/a	n/a
3887382	WORD	wordpools/wasnorm_wordpool_576.txt	LTP314	ltpFR2	7	17	CHEST	295	n/a	n/a	0	0	0
3890189	WORD	wordpools/wasnorm_wordpool_576.txt	LTP314	ltpFR2	7	17	STAPLE	1371	n/a	n/a	0	0	0
3892869	WORD	wordpools/wasnorm_wordpool_576.txt	LTP314	ltpFR2	7	17	TEMPLE	1448	n/a	n/a	0	0	0
3895522	WORD	wordpools/wasnorm_wordpool_576.txt	LTP314	ltpFR2	7	17	TUBA	1515	n/a	n/a	0	0	0
3898191	WORD	wordpools/wasnorm_wordpool_576.txt	LTP314	ltpFR2	7	17	COCOON	339	n/a	n/a	0	0	0
3900693	WORD	wordpools/wasnorm_wordpool_576.txt	LTP314	ltpFR2	7	17	DINER	467	n/a	n/a	0	0	0
3903395	WORD	wordpools/wasnorm_wordpool_576.txt	LTP314	ltpFR2	7	17	XEROX	1628	n/a	n/a	0	0	0
3905897	WORD	wordpools/wasnorm_wordpool_576.txt	LTP314	ltpFR2	7	17	EAGLE	512	n/a	n/a	0	0	0
3908449	WORD	wordpools/wasnorm_wordpool_576.txt	LTP314	ltpFR2	7	17	MUMMY	932	n/a	n/a	0	0	0
3911222	WORD	wordpools/wasnorm_wordpool_576.txt	LTP314	ltpFR2	7	17	PLAZA	1088	n/a	n/a	0	0	0
3913721	WORD	wordpools/wasnorm_wordpool_576.txt	LTP314	ltpFR2	7	17	JELLO	754	n/a	n/a	0	0	0
3916256	WORD	wordpools/wasnorm_wordpool_576.txt	LTP314	ltpFR2	7	17	TRUCK	1512	n/a	n/a	0	0	0
3918959	WORD	wordpools/wasnorm_wordpool_576.txt	LTP314	ltpFR2	7	17	PISTON	1076	n/a	n/a	0	0	0
3921778	WORD	wordpools/wasnorm_wordpool_576.txt	LTP314	ltpFR2	7	17	BRAKE	166	n/a	n/a	0	0	0
3924380	WORD	wordpools/wasnorm_wordpool_576.txt	LTP314	ltpFR2	7	17	GROUND	666	n/a	n/a	0	0	0
3927049	WORD	wordpools/wasnorm_wordpool_576.txt	LTP314	ltpFR2	7	17	BINDER	127	n/a	n/a	0	0	0
3929784	WORD	wordpools/wasnorm_wordpool_576.txt	LTP314	ltpFR2	7	17	BLOCKADE	137	n/a	n/a	0	0	0
3932387	WORD	wordpools/wasnorm_wordpool_576.txt	LTP314	ltpFR2	7	17	AGENT	10	n/a	n/a	0	0	0
3934888	WORD	wordpools/wasnorm_wordpool_576.txt	LTP314	ltpFR2	7	17	PIANO	1057	n/a	n/a	0	0	0
3937440	WORD	wordpools/wasnorm_wordpool_576.txt	LTP314	ltpFR2	7	17	DORM	488	n/a	n/a	0	0	0
3939892	WORD	wordpools/wasnorm_wordpool_576.txt	LTP314	ltpFR2	7	17	NIGHTGOWN	953	n/a	n/a	0	0	0
3942429	WORD	wordpools/wasnorm_wordpool_576.txt	LTP314	ltpFR2	7	17	MATTRESS	879	n/a	n/a	0	0	0
3945113	WORD	wordpools/wasnorm_wordpool_576.txt	LTP314	ltpFR2	7	17	LION	827	n/a	n/a	0	0	0
3947916	WORD	wordpools/wasnorm_wordpool_576.txt	LTP314	ltpFR2	7	17	PUDDING	1139	n/a	n/a	0	0	0
3949535	START	n/a	LTP314	ltpFR2	7	n/a	n/a	n/a	26	n/a	n/a	n/a	n/a
3950648	DISTRACTOR	n/a	LTP314	ltpFR2	7	17	n/a	n/a	n/a	n/a	0	0	0
3950668	PROB	n/a	LTP314	ltpFR2	7	n/a	n/a	n/a	26	11	4	4	3
3952850	PROB	n/a	LTP314	ltpFR2	7	n/a	n/a	n/a	26	13	9	2	2
3954985	PROB	n/a	LTP314	ltpFR2	7	n/a	n/a	n/a	26	12	8	2	2
3956537	PROB	n/a	LTP314	ltpFR2	7	n/a	n/a	n/a	26	22	7	7	8
3961626	PROB	n/a	LTP314	ltpFR2	7	n/a	n/a	n/a	26	12	4	6	2
3962860	PROB	n/a	LTP314	ltpFR2	7	n/a	n/a	n/a	26	21	8	7	6
3964726	PROB	n/a	LTP314	ltpFR2	7	n/a	n/a	n/a	26	14	4	8	2
3967212	PROB	n/a	LTP314	ltpFR2	7	n/a	n/a	n/a	26	12	6	1	5
3969066	PROB	n/a	LTP314	ltpFR2	7	n/a	n/a	n/a	26	13	5	2	5
3971148	PROB	n/a	LTP314	ltpFR2	7	n/a	n/a	n/a	26	18	5	8	5
3973491	STOP	n/a	LTP314	ltpFR2	7	n/a	n/a	n/a	26	n/a	n/a	n/a	n/a
3975439	REC_START	n/a	LTP314	ltpFR2	7	17	n/a	n/a	n/a	n/a	0	0	0
3986124	REC_WORD	wordpools/wasnorm_wordpool_576.txt	LTP314	ltpFR2	7	17	PUDDING	1139	n/a	n/a	0	0	0
4065877	WORD	wordpools/wasnorm_wordpool_576.txt	LTP314	ltpFR2	7	18	SNACK	1331	n/a	n/a	0	0	0
4068708	WORD	wordpools/wasnorm_wordpool_576.txt	LTP314	ltpFR2	7	18	BLENDER	136	n/a	n/a	0	0	0
4071334	WORD	wordpools/wasnorm_wordpool_576.txt	LTP314	ltpFR2	7	18	GRAVE	658	n/a	n/a	0	0	0
4074070	WORD	wordpools/wasnorm_wordpool_576.txt	LTP314	ltpFR2	7	18	WRENCH	1625	n/a	n/a	0	0	0
4076523	WORD	wordpools/wasnorm_wordpool_576.txt	LTP314	ltpFR2	7	18	SHELF	1280	n/a	n/a	0	0	0
4078950	WORD	wordpools/wasnorm_wordpool_576.txt	LTP314	ltpFR2	7	18	GUITAR	670	n/a	n/a	0	0	0
4081668	WORD	wordpools/wasnorm_wordpool_576.txt	LTP314	ltpFR2	7	18	LUGGAGE	847	n/a	n/a	0	0	0
4084279	WORD	wordpools/wasnorm_wordpool_576.txt	LTP314	ltpFR2	7	18	TOMBSTONE	1478	n/a	n/a	0	0	0
4086982	WORD	wordpools/wasnorm_wordpool_576.txt	LTP314	ltpFR2	7	18	MEDAL	885	n/a	n/a	0	0	0
4089567	WORD	wordpools/wasnorm_wordpool_576.txt	LTP314	ltpFR2	7	18	AWARD	63	n/a	n/a	0	0	0
4092060	WORD	wordpools/wasnorm_wordpool_576.txt	LTP314	ltpFR2	7	18	LONDON	843	n/a	n/a	0	0	0
4094587	WORD	wordpools/wasnorm_wordpool_576.txt	LTP314	ltpFR2	7	18	MOTEL	919	n/a	n/a	0	0	0
4097139	WORD	wordpools/wasnorm_wordpool_576.txt	LTP314	ltpFR2	7	18	COUCH	386	n/a	n/a	0	0	0
4099949	WORD	wordpools/wasnorm_wordpool_576.txt	LTP314	ltpFR2	7	18	BASEMENT	94	n/a	n/a	0	0	0
4102450	WORD	wordpools/wasnorm_wordpool_576.txt	LTP314	ltpFR2	7	18	BODY	145	n/a	n/a	0	0	0
4105130	WORD	wordpools/wasnorm_wordpool_576.txt	LTP314	ltpFR2	7	18	MARROW	872	n/a	n/a	0	0	0
4107604	WORD	wordpools/wasnorm_wordpool_576.txt	LTP314	ltpFR2	7	18	GRAPE	654	n/a	n/a	0	0	0
4110200	WORD	wordpools/wasnorm_wordpool_576.txt	LTP314	ltpFR2	7	18	WINDOW	1611	n/a	n/a	0	0	0
4112919	WORD	wordpools/wasnorm_wordpool_576.txt	LTP314	ltpFR2	7	18	BLUEPRINT	142	n/a	n/a	0	0	0
4115605	WORD	wordpools/wasnorm_wordpool_576.txt	LTP314	ltpFR2	7	18	ORANGE	980	n/a	n/a	0	0	0
4118174	WORD	wordpools/wasnorm_wordpool_576.txt	LTP314	ltpFR2	7	18	PLASTER	1085	n/a	n/a	0	0	0
4120681	WORD	wordpools/wasnorm_wordpool_576.txt	LTP314	ltpFR2	7	18	PIMPLE	1071	n/a	n/a	0	0	0
4123161	WORD	wordpools/wasnorm_wordpool_576.txt	LTP314	ltpFR2	7	18	TWEEZERS	1526	n/a	n/a	0	0	0
4125647	WORD	wordpools/wasnorm_wordpool_576.txt	LTP314	ltpFR2	7	18	MOP	916	n/a	n/a	0	0	0
4127266	START	n/a	LTP314	ltpFR2	7	n/a	n/a	n/a	27	n/a	n/a	n/a	n/a
4128421	DISTRACTOR	n/a	LTP314	ltpFR2	7	18	n/a	n/a	n/a	n/a	0	0	0
4128432	PROB	n/a	LTP314	ltpFR2	7	n/a	n/a	n/a	27	19	8	5	4
4131198	PROB	n/a	LTP314	ltpFR2	7	n/a	n/a	n/a	27	13	1	8	4
4133917	PROB	n/a	LTP314	ltpFR2	7	n/a	n/a	n/a	27	20	4	9	7
4135785	PROB	n/a	LTP314	ltpFR2	7	n/a	n/a	n/a	27	12	5	1	6
4137470	PROB	n/a	LTP314	ltpFR2	7	n/a	n/a	n/a	27	15	1	9	5
4138587	PROB	n/a	LTP314	ltpFR2	7	n/a	n/a	n/a	27	11	3	6	2
4140556	PROB	n/a	LTP314	ltpFR2	7	n/a	n/a	n/a	27	21	7	5	9
4142290	PROB	n/a	LTP314	ltpFR2	7	n/a	n/a	n/a	27	7	3	2	2
4143992	PROB	n/a	LTP314	ltpFR2	7	n/a	n/a	n/a	27	6	1	3	2
4146061	PROB	n/a	LTP314	ltpFR2	7	n/a	n/a	n/a	27	11	7	3	1
4147895	PROB	n/a	LTP314	ltpFR2	7	n/a	n/a	n/a	27	18	7	2	9
4150987	STOP	n/a	LTP314	ltpFR2	7	n/a	n/a	n/a	27	n/a	n/a	n/a	n/a
4153034	REC_START	n/a	LTP314	ltpFR2	7	18	n/a	n/a	n/a	n/a	0	0	0
4154289	REC_WORD	wordpools/wasnorm_wordpool_576.txt	LTP314	ltpFR2	7	18	MOP	916	n/a	n/a	0	0	0
4154940	REC_WORD	wordpools/wasnorm_wordpool_576.txt	LTP314	ltpFR2	7	18	PIMPLE	1071	n/a	n/a	0	0	0
4155627	REC_WORD	wordpools/wasnorm_wordpool_576.txt	LTP314	ltpFR2	7	18	LONDON	843	n/a	n/a	0	0	0
4156484	REC_WORD	wordpools/wasnorm_wordpool_576.txt	LTP314	ltpFR2	7	18	WINDOW	1611	n/a	n/a	0	0	0
4157363	REC_WORD	wordpools/wasnorm_wordpool_576.txt	LTP314	ltpFR2	7	18	ORANGE	980	n/a	n/a	0	0	0
4159593	REC_WORD	wordpools/wasnorm_wordpool_576.txt	LTP314	ltpFR2	7	18	GRAPE	654	n/a	n/a	0	0	0
4160452	REC_WORD	wordpools/wasnorm_wordpool_576.txt	LTP314	ltpFR2	7	18	TOMBSTONE	1478	n/a	n/a	0	0	0
4168600	REC_WORD	wordpools/wasnorm_wordpool_576.txt	LTP314	ltpFR2	7	18	TWEEZERS	1526	n/a	n/a	0	0	0
4179972	REC_WORD	wordpools/wasnorm_wordpool_576.txt	LTP314	ltpFR2	7	18	BLUEPRINT	142	n/a	n/a	0	0	0
4243492	DISTRACTOR	n/a	LTP314	ltpFR2	7	19	n/a	n/a	n/a	n/a	0	0	0
4243493	START	n/a	LTP314	ltpFR2	7	n/a	n/a	n/a	28	n/a	n/a	n/a	n/a
4243511	PROB	n/a	LTP314	ltpFR2	7	n/a	n/a	n/a	28	19	9	7	3
4245140	PROB	n/a	LTP314	ltpFR2	7	n/a	n/a	n/a	28	8	1	6	1
4246390	PROB	n/a	LTP314	ltpFR2	7	n/a	n/a	n/a	28	13	7	2	4
4247814	PROB	n/a	LTP314	ltpFR2	7	n/a	n/a	n/a	28	16	6	2	8
4249476	PROB	n/a	LTP314	ltpFR2	7	n/a	n/a	n/a	28	19	6	4	9
4250810	PROB	n/a	LTP314	ltpFR2	7	n/a	n/a	n/a	28	22	6	7	9
4252732	PROB	n/a	LTP314	ltpFR2	7	n/a	n/a	n/a	28	9	5	1	3
4255580	PROB	n/a	LTP314	ltpFR2	7	n/a	n/a	n/a	28	12	1	2	9
4257219	PROB	n/a	LTP314	ltpFR2	7	n/a	n/a	n/a	28	6	1	2	3
4259450	PROB	n/a	LTP314	ltpFR2	7	n/a	n/a	n/a	28	11	5	1	5
4261019	PROB	n/a	LTP314	ltpFR2	7	n/a	n/a	n/a	28	14	1	4	9
4262686	PROB	n/a	LTP314	ltpFR2	7	n/a	n/a	n/a	28	15	7	6	2
4264194	PROB	n/a	LTP314	ltpFR2	7	n/a	n/a	n/a	28	6	2	3	1
4265806	PROB	n/a	LTP314	ltpFR2	7	n/a	n/a	n/a	28	16	6	4	6
4267083	STOP	n/a	LTP314	ltpFR2	7	n/a	n/a	n/a	28	n/a	n/a	n/a	n/a
4268717	WORD	wordpools/wasnorm_wordpool_576.txt	LTP314	ltpFR2	7	19	LODGE	839	n/a	n/a	0	0	0
4271229	WORD	wordpools/wasnorm_wordpool_576.txt	LTP314	ltpFR2	7	19	KETCHUP	771	n/a	n/a	0	0	0
4273815	WORD	wordpools/wasnorm_wordpool_576.txt	LTP314	ltpFR2	7	19	ATOM	55	n/a	n/a	0	0	0
4276322	WORD	wordpools/wasnorm_wordpool_576.txt	LTP314	ltpFR2	7	19	LUMBER	848	n/a	n/a	0	0	0
4278752	WORD	wordpools/wasnorm_wordpool_576.txt	LTP314	ltpFR2	7	19	DAUGHTER	442	n/a	n/a	0	0	0
4281392	WORD	wordpools/wasnorm_wordpool_576.txt	LTP314	ltpFR2	7	19	SIBLING	1301	n/a	n/a	0	0	0
4283922	WORD	wordpools/wasnorm_wordpool_576.txt	LTP314	ltpFR2	7	19	MONEY	908	n/a	n/a	0	0	0
4286480	WORD	wordpools/wasnorm_wordpool_576.txt	LTP314	ltpFR2	7	19	HIGHWAY	707	n/a	n/a	0	0	0
4289242	WORD	wordpools/wasnorm_wordpool_576.txt	LTP314	ltpFR2	7	19	PORK	1108	n/a	n/a	0	0	0
4291779	WORD	wordpools/wasnorm_wordpool_576.txt	LTP314	ltpFR2	7	19	YOLK	1633	n/a	n/a	0	0	0
4294421	WORD	wordpools/wasnorm_wordpool_576.txt	LTP314	ltpFR2	7	19	PROTON	1132	n/a	n/a	0	0	0
4296883	WORD	wordpools/wasnorm_wordpool_576.txt	LTP314	ltpFR2	7	19	SHORTS	1293	n/a	n/a	0	0	0
4299434	WORD	wordpools/wasnorm_wordpool_576.txt	LTP314	ltpFR2	7	19	TYPIST	1532	n/a	n/a	0	0	0
4301976	WORD	wordpools/wasnorm_wordpool_576.txt	LTP314	ltpFR2	7	19	OFFICE	972	n/a	n/a	0	0	0
4304705	WORD	wordpools/wasnorm_wordpool_576.txt	LTP314	ltpFR2	7	19	STAMP	1370	n/a	n/a	0	0	0
4307231	WORD	wordpools/wasnorm_wordpool_576.txt	LTP314	ltpFR2	7	19	PACKAGE	997	n/a	n/a	0	0	0
4309709	WORD	wordpools/wasnorm_wordpool_576.txt	LTP314	ltpFR2	7	19	MUSTARD	935	n/a	n/a	0	0	0
4312227	WORD	wordpools/wasnorm_wordpool_576.txt	LTP314	ltpFR2	7	19	BRANCH	168	n/a	n/a	0	0	0
4315005	WORD	wordpools/wasnorm_wordpool_576.txt	LTP314	ltpFR2	7	19	OUTDOORS	987	n/a	n/a	0	0	0
4317582	WORD	wordpools/wasnorm_wordpool_576.txt	LTP314	ltpFR2	7	19	DONKEY	484	n/a	n/a	0	0	0
4320400	WORD	wordpools/wasnorm_wordpool_576.txt	LTP314	ltpFR2	7	19	ROBIN	1199	n/a	n/a	0	0	0
4322977	WORD	wordpools/wasnorm_wordpool_576.txt	LTP314	ltpFR2	7	19	BREAST	171	n/a	n/a	0	0	0
4325529	WORD	wordpools/wasnorm_wordpool_576.txt	LTP314	ltpFR2	7	19	TROUT	1511	n/a	n/a	0	0	0
4328331	WORD	wordpools/wasnorm_wordpool_576.txt	LTP314	ltpFR2	7	19	MAPLE	866	n/a	n/a	0	0	0
4329942	START	n/a	LTP314	ltpFR2	7	n/a	n/a	n/a	29	n/a	n/a	n/a	n/a
4331020	DISTRACTOR	n/a	LTP314	ltpFR2	7	19	n/a	n/a	n/a	n/a	0	0	0
4331034	PROB	n/a	LTP314	ltpFR2	7	n/a	n/a	n/a	29	23	9	5	9
4333317	PROB	n/a	LTP314	ltpFR2	7	n/a	n/a	n/a	29	21	6	6	9
4335568	PROB	n/a	LTP314	ltpFR2	7	n/a	n/a	n/a	29	23	9	5	9
4337537	PROB	n/a	LTP314	ltpFR2	7	n/a	n/a	n/a	29	21	8	5	8
4340422	PROB	n/a	LTP314	ltpFR2	7	n/a	n/a	n/a	29	17	2	6	9
4342391	PROB	n/a	LTP314	ltpFR2	7	n/a	n/a	n/a	29	10	1	6	3
4344742	PROB	n/a	LTP314	ltpFR2	7	n/a	n/a	n/a	29	19	4	7	8
4347311	PROB	n/a	LTP314	ltpFR2	7	n/a	n/a	n/a	29	15	6	6	3
4348746	PROB	n/a	LTP314	ltpFR2	7	n/a	n/a	n/a	29	12	1	3	8
4350964	PROB	n/a	LTP314	ltpFR2	7	n/a	n/a	n/a	29	17	6	5	6
4352883	STOP	n/a	LTP314	ltpFR2	7	n/a	n/a	n/a	29	n/a	n/a	n/a	n/a
4355785	REC_START	n/a	LTP314	ltpFR2	7	19	n/a	n/a	n/a	n/a	0	0	0
4356997	REC_WORD	wordpools/wasnorm_wordpool_576.txt	LTP314	ltpFR2	7	19	TROUT	1511	n/a	n/a	0	0	0
4357686	REC_WORD	wordpools/wasnorm_wordpool_576.txt	LTP314	ltpFR2	7	19	MAPLE	866	n/a	n/a	0	0	0
4358373	REC_WORD	wordpools/wasnorm_wordpool_576.txt	LTP314	ltpFR2	7	19	ROBIN	1199	n/a	n/a	0	0	0
4359194	REC_WORD	wordpools/wasnorm_wordpool_576.txt	LTP314	ltpFR2	7	19	BREAST	171	n/a	n/a	0	0	0
4364074	REC_WORD	wordpools/wasnorm_wordpool_576.txt	LTP314	ltpFR2	7	19	OUTDOORS	987	n/a	n/a	0	0	0
4383021	REC_WORD	wordpools/wasnorm_wordpool_576.txt	LTP314	ltpFR2	7	19	PROTON	1132	n/a	n/a	0	0	0
4388665	REC_WORD	wordpools/wasnorm_wordpool_576.txt	LTP314	ltpFR2	7	19	MUSTARD	935	n/a	n/a	0	0	0
4389692	REC_WORD	wordpools/wasnorm_wordpool_576.txt	LTP314	ltpFR2	7	19	KETCHUP	771	n/a	n/a	0	0	0
4415702	REC_WORD	wordpools/wasnorm_wordpool_576.txt	LTP314	ltpFR2	7	19	CABIN	211	n/a	n/a	0	0	0
4421765	REC_WORD	wordpools/wasnorm_wordpool_576.txt	LTP314	ltpFR2	7	19	LODGE	839	n/a	n/a	0	0	0
4446247	DISTRACTOR	n/a	LTP314	ltpFR2	7	20	n/a	n/a	n/a	n/a	0	0	0
4446247	START	n/a	LTP314	ltpFR2	7	n/a	n/a	n/a	30	n/a	n/a	n/a	n/a
4446260	PROB	n/a	LTP314	ltpFR2	7	n/a	n/a	n/a	30	15	6	6	3
4447747	PROB	n/a	LTP314	ltpFR2	7	n/a	n/a	n/a	30	11	2	7	2
4449063	PROB	n/a	LTP314	ltpFR2	7	n/a	n/a	n/a	30	11	1	1	9
4450431	PROB	n/a	LTP314	ltpFR2	7	n/a	n/a	n/a	30	17	3	8	6
4452382	PROB	n/a	LTP314	ltpFR2	7	n/a	n/a	n/a	30	15	3	5	7
4453920	PROB	n/a	LTP314	ltpFR2	7	n/a	n/a	n/a	30	19	4	7	8
4455519	PROB	n/a	LTP314	ltpFR2	7	n/a	n/a	n/a	30	21	9	3	9
4457156	PROB	n/a	LTP314	ltpFR2	7	n/a	n/a	n/a	30	18	6	3	9
4459091	PROB	n/a	LTP314	ltpFR2	7	n/a	n/a	n/a	30	16	4	6	6
4462507	PROB	n/a	LTP314	ltpFR2	7	n/a	n/a	n/a	30	12	1	3	8
4464842	PROB	n/a	LTP314	ltpFR2	7	n/a	n/a	n/a	30	51	5	6	3
4466447	PROB	n/a	LTP314	ltpFR2	7	n/a	n/a	n/a	30	10	1	1	8
4470246	STOP	n/a	LTP314	ltpFR2	7	n/a	n/a	n/a	30	n/a	n/a	n/a	n/a
4471248	WORD	wordpools/wasnorm_wordpool_576.txt	LTP314	ltpFR2	7	20	CASHIER	254	n/a	n/a	0	0	0
4473868	WORD	wordpools/wasnorm_wordpool_576.txt	LTP314	ltpFR2	7	20	DUST	508	n/a	n/a	0	0	0
4476352	WORD	wordpools/wasnorm_wordpool_576.txt	LTP314	ltpFR2	7	20	KNAPSACK	783	n/a	n/a	0	0	0
4478805	WORD	wordpools/wasnorm_wordpool_576.txt	LTP314	ltpFR2	7	20	CHEMIST	292	n/a	n/a	0	0	0
4481406	WORD	wordpools/wasnorm_wordpool_576.txt	LTP314	ltpFR2	7	20	PASTA	1021	n/a	n/a	0	0	0
4484058	WORD	wordpools/wasnorm_wordpool_576.txt	LTP314	ltpFR2	7	20	ARM	38	n/a	n/a	0	0	0
4486544	WORD	wordpools/wasnorm_wordpool_576.txt	LTP314	ltpFR2	7	20	WASP	1593	n/a	n/a	0	0	0
4489329	WORD	wordpools/wasnorm_wordpool_576.txt	LTP314	ltpFR2	7	20	HORNET	718	n/a	n/a	0	0	0
4492148	WORD	wordpools/wasnorm_wordpool_576.txt	LTP314	ltpFR2	7	20	POCKET	1093	n/a	n/a	0	0	0
4494867	WORD	wordpools/wasnorm_wordpool_576.txt	LTP314	ltpFR2	7	20	BANQUET	86	n/a	n/a	0	0	0
4497418	WORD	wordpools/wasnorm_wordpool_576.txt	LTP314	ltpFR2	7	20	GARLIC	624	n/a	n/a	0	0	0
4499954	WORD	wordpools/wasnorm_wordpool_576.txt	LTP314	ltpFR2	7	20	HUMAN	726	n/a	n/a	0	0	0
4502560	WORD	wordpools/wasnorm_wordpool_576.txt	LTP314	ltpFR2	7	20	BEAKER	104	n/a	n/a	0	0	0
4505008	WORD	wordpools/wasnorm_wordpool_576.txt	LTP314	ltpFR2	7	20	HATCHET	691	n/a	n/a	0	0	0
4507809	WORD	wordpools/wasnorm_wordpool_576.txt	LTP314	ltpFR2	7	20	BULLET	194	n/a	n/a	0	0	0
4510394	WORD	wordpools/wasnorm_wordpool_576.txt	LTP314	ltpFR2	7	20	CEILING	265	n/a	n/a	0	0	0
4512914	WORD	wordpools/wasnorm_wordpool_576.txt	LTP314	ltpFR2	7	20	TABLET	1427	n/a	n/a	0	0	0
4515365	WORD	wordpools/wasnorm_wordpool_576.txt	LTP314	ltpFR2	7	20	ELBOW	520	n/a	n/a	0	0	0
4518100	WORD	wordpools/wasnorm_wordpool_576.txt	LTP314	ltpFR2	7	20	PARENT	1013	n/a	n/a	0	0	0
4520691	WORD	wordpools/wasnorm_wordpool_576.txt	LTP314	ltpFR2	7	20	CHILD	299	n/a	n/a	0	0	0
4523222	WORD	wordpools/wasnorm_wordpool_576.txt	LTP314	ltpFR2	7	20	TURTLE	1522	n/a	n/a	0	0	0
4525863	WORD	wordpools/wasnorm_wordpool_576.txt	LTP314	ltpFR2	7	20	CHIPMUNK	304	n/a	n/a	0	0	0
4528608	WORD	wordpools/wasnorm_wordpool_576.txt	LTP314	ltpFR2	7	20	GAVEL	627	n/a	n/a	0	0	0
4531078	WORD	wordpools/wasnorm_wordpool_576.txt	LTP314	ltpFR2	7	20	SUSPECT	1415	n/a	n/a	0	0	0
4532686	START	n/a	LTP314	ltpFR2	7	n/a	n/a	n/a	31	n/a	n/a	n/a	n/a
4533509	DISTRACTOR	n/a	LTP314	ltpFR2	7	20	n/a	n/a	n/a	n/a	0	0	0
4533519	PROB	n/a	LTP314	ltpFR2	7	n/a	n/a	n/a	31	18	4	5	9
4535551	PROB	n/a	LTP314	ltpFR2	7	n/a	n/a	n/a	31	19	7	3	9
4538170	PROB	n/a	LTP314	ltpFR2	7	n/a	n/a	n/a	31	9	1	4	4
4539988	PROB	n/a	LTP314	ltpFR2	7	n/a	n/a	n/a	31	20	4	9	7
4543492	PROB	n/a	LTP314	ltpFR2	7	n/a	n/a	n/a	31	8	5	2	1
4545496	PROB	n/a	LTP314	ltpFR2	7	n/a	n/a	n/a	31	11	3	1	7
4547027	PROB	n/a	LTP314	ltpFR2	7	n/a	n/a	n/a	31	15	5	2	8
4548528	PROB	n/a	LTP314	ltpFR2	7	n/a	n/a	n/a	31	16	5	6	5
4550230	PROB	n/a	LTP314	ltpFR2	7	n/a	n/a	n/a	31	18	9	6	3
4552081	PROB	n/a	LTP314	ltpFR2	7	n/a	n/a	n/a	31	13	7	2	4
4553850	PROB	n/a	LTP314	ltpFR2	7	n/a	n/a	n/a	31	18	1	8	9
4556686	STOP	n/a	LTP314	ltpFR2	7	n/a	n/a	n/a	31	n/a	n/a	n/a	n/a
4558521	REC_START	n/a	LTP314	ltpFR2	7	20	n/a	n/a	n/a	n/a	0	0	0
4559341	REC_WORD	wordpools/wasnorm_wordpool_576.txt	LTP314	ltpFR2	7	20	GAVEL	627	n/a	n/a	0	0	0
4560228	REC_WORD	wordpools/wasnorm_wordpool_576.txt	LTP314	ltpFR2	7	20	SUSPECT	1415	n/a	n/a	0	0	0
4561332	REC_WORD	wordpools/wasnorm_wordpool_576.txt	LTP314	ltpFR2	7	20	HUMAN	726	n/a	n/a	0	0	0
4562816	REC_WORD	wordpools/wasnorm_wordpool_576.txt	LTP314	ltpFR2	7	20	CHIPMUNK	304	n/a	n/a	0	0	0
4648966	DISTRACTOR	n/a	LTP314	ltpFR2	7	21	n/a	n/a	n/a	n/a	0	0	0
4648966	START	n/a	LTP314	ltpFR2	7	n/a	n/a	n/a	32	n/a	n/a	n/a	n/a
4648979	PROB	n/a	LTP314	ltpFR2	7	n/a	n/a	n/a	32	18	6	5	7
4650913	PROB	n/a	LTP314	ltpFR2	7	n/a	n/a	n/a	32	14	5	4	5
4652636	PROB	n/a	LTP314	ltpFR2	7	n/a	n/a	n/a	32	14	1	7	6
4655667	PROB	n/a	LTP314	ltpFR2	7	n/a	n/a	n/a	32	12	6	2	4
4657470	PROB	n/a	LTP314	ltpFR2	7	n/a	n/a	n/a	32	19	7	5	7
4660555	PROB	n/a	LTP314	ltpFR2	7	n/a	n/a	n/a	32	18	5	6	7
4663074	PROB	n/a	LTP314	ltpFR2	7	n/a	n/a	n/a	32	24	9	9	6
4664976	PROB	n/a	LTP314	ltpFR2	7	n/a	n/a	n/a	32	8	2	4	2
4667245	PROB	n/a	LTP314	ltpFR2	7	n/a	n/a	n/a	32	20	4	8	8
4669431	PROB	n/a	LTP314	ltpFR2	7	n/a	n/a	n/a	32	13	6	5	2
4671499	STOP	n/a	LTP314	ltpFR2	7	n/a	n/a	n/a	32	n/a	n/a	n/a	n/a
4674086	WORD	wordpools/wasnorm_wordpool_576.txt	LTP314	ltpFR2	7	21	OMELET	976	n/a	n/a	0	0	0
4676805	WORD	wordpools/wasnorm_wordpool_576.txt	LTP314	ltpFR2	7	21	VALVE	1546	n/a	n/a	0	0	0
4679424	WORD	wordpools/wasnorm_wordpool_576.txt	LTP314	ltpFR2	7	21	GRIZZLY	662	n/a	n/a	0	0	0
4681975	WORD	wordpools/wasnorm_wordpool_576.txt	LTP314	ltpFR2	7	21	BACON	67	n/a	n/a	0	0	0
4684761	WORD	wordpools/wasnorm_wordpool_576.txt	LTP314	ltpFR2	7	21	CATTLE	261	n/a	n/a	0	0	0
4687364	WORD	wordpools/wasnorm_wordpool_576.txt	LTP314	ltpFR2	7	21	PEDAL	1037	n/a	n/a	0	0	0
4689981	WORD	wordpools/wasnorm_wordpool_576.txt	LTP314	ltpFR2	7	21	PATROL	1027	n/a	n/a	0	0	0
4692801	WORD	wordpools/wasnorm_wordpool_576.txt	LTP314	ltpFR2	7	21	BIKE	125	n/a	n/a	0	0	0
4695385	WORD	wordpools/wasnorm_wordpool_576.txt	LTP314	ltpFR2	7	21	ROBBER	1197	n/a	n/a	0	0	0
4698138	WORD	wordpools/wasnorm_wordpool_576.txt	LTP314	ltpFR2	7	21	DRIVER	499	n/a	n/a	0	0	0
4700641	WORD	wordpools/wasnorm_wordpool_576.txt	LTP314	ltpFR2	7	21	WAGON	1578	n/a	n/a	0	0	0
4703476	WORD	wordpools/wasnorm_wordpool_576.txt	LTP314	ltpFR2	7	21	SCALLOP	1242	n/a	n/a	0	0	0
4706094	WORD	wordpools/wasnorm_wordpool_576.txt	LTP314	ltpFR2	7	21	CLAMP	316	n/a	n/a	0	0	0
4708866	WORD	wordpools/wasnorm_wordpool_576.txt	LTP314	ltpFR2	7	21	GYMNAST	675	n/a	n/a	0	0	0
4711348	WORD	wordpools/wasnorm_wordpool_576.txt	LTP314	ltpFR2	7	21	JOURNAL	760	n/a	n/a	0	0	0
4713834	WORD	wordpools/wasnorm_wordpool_576.txt	LTP314	ltpFR2	7	21	PLUTO	1092	n/a	n/a	0	0	0
4716552	WORD	wordpools/wasnorm_wordpool_576.txt	LTP314	ltpFR2	7	21	MARS	873	n/a	n/a	0	0	0
4719020	WORD	wordpools/wasnorm_wordpool_576.txt	LTP314	ltpFR2	7	21	IDOL	733	n/a	n/a	0	0	0
4721773	WORD	wordpools/wasnorm_wordpool_576.txt	LTP314	ltpFR2	7	21	CHURCH	307	n/a	n/a	0	0	0
4724291	WORD	wordpools/wasnorm_wordpool_576.txt	LTP314	ltpFR2	7	21	BANK	83	n/a	n/a	0	0	0
4726830	WORD	wordpools/wasnorm_wordpool_576.txt	LTP314	ltpFR2	7	21	BEAST	108	n/a	n/a	0	0	0
4729378	WORD	wordpools/wasnorm_wordpool_576.txt	LTP314	ltpFR2	7	21	CLIMBER	323	n/a	n/a	0	0	0
4732014	WORD	wordpools/wasnorm_wordpool_576.txt	LTP314	ltpFR2	7	21	PLAID	1080	n/a	n/a	0	0	0
4734549	WORD	wordpools/wasnorm_wordpool_576.txt	LTP314	ltpFR2	7	21	BEEF	113	n/a	n/a	0	0	0
4736168	START	n/a	LTP314	ltpFR2	7	n/a	n/a	n/a	33	n/a	n/a	n/a	n/a
4737169	DISTRACTOR	n/a	LTP314	ltpFR2	7	21	n/a	n/a	n/a	n/a	0	0	0
4737184	PROB	n/a	LTP314	ltpFR2	7	n/a	n/a	n/a	33	24	8	9	8
4742802	PROB	n/a	LTP314	ltpFR2	7	n/a	n/a	n/a	33	16	9	2	5
4745304	PROB	n/a	LTP314	ltpFR2	7	n/a	n/a	n/a	33	5	2	1	2
4746905	PROB	n/a	LTP314	ltpFR2	7	n/a	n/a	n/a	33	17	8	5	4
4750008	PROB	n/a	LTP314	ltpFR2	7	n/a	n/a	n/a	33	16	6	1	9
4752143	PROB	n/a	LTP314	ltpFR2	7	n/a	n/a	n/a	33	10	3	1	6
4754185	PROB	n/a	LTP314	ltpFR2	7	n/a	n/a	n/a	33	18	7	8	4
4760168	STOP	n/a	LTP314	ltpFR2	7	n/a	n/a	n/a	33	n/a	n/a	n/a	n/a
4761992	REC_START	n/a	LTP314	ltpFR2	7	21	n/a	n/a	n/a	n/a	0	0	0
4767286	REC_WORD	wordpools/wasnorm_wordpool_576.txt	LTP314	ltpFR2	7	21	OMELET	976	n/a	n/a	0	0	0
4768567	REC_WORD	wordpools/wasnorm_wordpool_576.txt	LTP314	ltpFR2	7	21	CATTLE	261	n/a	n/a	0	0	0
4770084	REC_WORD	wordpools/wasnorm_wordpool_576.txt	LTP314	ltpFR2	7	21	BACON	67	n/a	n/a	0	0	0
4771417	REC_WORD	wordpools/wasnorm_wordpool_576.txt	LTP314	ltpFR2	7	21	GRIZZLY	662	n/a	n/a	0	0	0
4852431	WORD	wordpools/wasnorm_wordpool_576.txt	LTP314	ltpFR2	7	22	COTTAGE	384	n/a	n/a	0	0	0
4855004	WORD	wordpools/wasnorm_wordpool_576.txt	LTP314	ltpFR2	7	22	SERVANT	1271	n/a	n/a	0	0	0
4857722	WORD	wordpools/wasnorm_wordpool_576.txt	LTP314	ltpFR2	7	22	CANAL	226	n/a	n/a	0	0	0
4860341	WORD	wordpools/wasnorm_wordpool_576.txt	LTP314	ltpFR2	7	22	CITRUS	313	n/a	n/a	0	0	0
4862797	WORD	wordpools/wasnorm_wordpool_576.txt	LTP314	ltpFR2	7	22	CURTAIN	427	n/a	n/a	0	0	0
4865546	WORD	wordpools/wasnorm_wordpool_576.txt	LTP314	ltpFR2	7	22	BURGLAR	200	n/a	n/a	0	0	0
4868031	WORD	wordpools/wasnorm_wordpool_576.txt	LTP314	ltpFR2	7	22	TUTU	1524	n/a	n/a	0	0	0
4870500	WORD	wordpools/wasnorm_wordpool_576.txt	LTP314	ltpFR2	7	22	IGLOO	734	n/a	n/a	0	0	0
4873105	WORD	wordpools/wasnorm_wordpool_576.txt	LTP314	ltpFR2	7	22	PADDLE	1000	n/a	n/a	0	0	0
4875904	WORD	wordpools/wasnorm_wordpool_576.txt	LTP314	ltpFR2	7	22	FRECKLE	602	n/a	n/a	0	0	0
4878658	WORD	wordpools/wasnorm_wordpool_576.txt	LTP314	ltpFR2	7	22	WHISKERS	1605	n/a	n/a	0	0	0
4881211	WORD	wordpools/wasnorm_wordpool_576.txt	LTP314	ltpFR2	7	22	SCALPEL	1243	n/a	n/a	0	0	0
4884028	WORD	wordpools/wasnorm_wordpool_576.txt	LTP314	ltpFR2	7	22	STAKE	1368	n/a	n/a	0	0	0
4886680	WORD	wordpools/wasnorm_wordpool_576.txt	LTP314	ltpFR2	7	22	ROCKET	1202	n/a	n/a	0	0	0
4889332	WORD	wordpools/wasnorm_wordpool_576.txt	LTP314	ltpFR2	7	22	ATLAS	53	n/a	n/a	0	0	0
4892151	WORD	wordpools/wasnorm_wordpool_576.txt	LTP314	ltpFR2	7	22	JUDGE	761	n/a	n/a	0	0	0
4894669	WORD	wordpools/wasnorm_wordpool_576.txt	LTP314	ltpFR2	7	22	VICTIM	1562	n/a	n/a	0	0	0
4897205	WORD	wordpools/wasnorm_wordpool_576.txt	LTP314	ltpFR2	7	22	BLOUSE	139	n/a	n/a	0	0	0
4899641	WORD	wordpools/wasnorm_wordpool_576.txt	LTP314	ltpFR2	7	22	SHIRT	1287	n/a	n/a	0	0	0
4902110	WORD	wordpools/wasnorm_wordpool_576.txt	LTP314	ltpFR2	7	22	WORLD	1622	n/a	n/a	0	0	0
4904678	WORD	wordpools/wasnorm_wordpool_576.txt	LTP314	ltpFR2	7	22	COUNTY	389	n/a	n/a	0	0	0
4907198	WORD	wordpools/wasnorm_wordpool_576.txt	LTP314	ltpFR2	7	22	ROBOT	1200	n/a	n/a	0	0	0
4909866	WORD	wordpools/wasnorm_wordpool_576.txt	LTP314	ltpFR2	7	22	MACHINE	852	n/a	n/a	0	0	0
4912484	WORD	wordpools/wasnorm_wordpool_576.txt	LTP314	ltpFR2	7	22	CARROT	249	n/a	n/a	0	0	0
4914103	START	n/a	LTP314	ltpFR2	7	n/a	n/a	n/a	34	n/a	n/a	n/a	n/a
4915137	DISTRACTOR	n/a	LTP314	ltpFR2	7	22	n/a	n/a	n/a	n/a	0	0	0
4915154	PROB	n/a	LTP314	ltpFR2	7	n/a	n/a	n/a	34	10	1	3	6
4916768	PROB	n/a	LTP314	ltpFR2	7	n/a	n/a	n/a	34	16	8	1	7
4920006	PROB	n/a	LTP314	ltpFR2	7	n/a	n/a	n/a	34	8	1	4	3
4922609	PROB	n/a	LTP314	ltpFR2	7	n/a	n/a	n/a	34	21	6	8	7
4924742	PROB	n/a	LTP314	ltpFR2	7	n/a	n/a	n/a	34	19	9	9	2
4926594	PROB	n/a	LTP314	ltpFR2	7	n/a	n/a	n/a	34	18	8	5	5
4927914	PROB	n/a	LTP314	ltpFR2	7	n/a	n/a	n/a	34	11	5	5	1
4929162	PROB	n/a	LTP314	ltpFR2	7	n/a	n/a	n/a	34	15	9	3	3
4931234	PROB	n/a	LTP314	ltpFR2	7	n/a	n/a	n/a	34	16	7	3	6
4932801	PROB	n/a	LTP314	ltpFR2	7	n/a	n/a	n/a	34	19	7	3	9
4934486	PROB	n/a	LTP314	ltpFR2	7	n/a	n/a	n/a	34	12	1	6	5
4938103	STOP	n/a	LTP314	ltpFR2	7	n/a	n/a	n/a	34	n/a	n/a	n/a	n/a
4939958	REC_START	n/a	LTP314	ltpFR2	7	22	n/a	n/a	n/a	n/a	0	0	0
4941316	REC_WORD	wordpools/wasnorm_wordpool_576.txt	LTP314	ltpFR2	7	22	COTTAGE	384	n/a	n/a	0	0	0
4942007	REC_WORD	wordpools/wasnorm_wordpool_576.txt	LTP314	ltpFR2	7	22	BLOUSE	139	n/a	n/a	0	0	0
4942779	REC_WORD	wordpools/wasnorm_wordpool_576.txt	LTP314	ltpFR2	7	22	SHIRT	1287	n/a	n/a	0	0	0
5030396	WORD	wordpools/wasnorm_wordpool_576.txt	LTP314	ltpFR2	7	23	PANTHER	1009	n/a	n/a	0	0	0
5033051	WORD	wordpools/wasnorm_wordpool_576.txt	LTP314	ltpFR2	7	23	EXPERT	543	n/a	n/a	0	0	0
5035846	WORD	wordpools/wasnorm_wordpool_576.txt	LTP314	ltpFR2	7	23	SADDLE	1221	n/a	n/a	0	0	0
5038606	WORD	wordpools/wasnorm_wordpool_576.txt	LTP314	ltpFR2	7	23	SANDWICH	1232	n/a	n/a	0	0	0
5041133	WORD	wordpools/wasnorm_wordpool_576.txt	LTP314	ltpFR2	7	23	LETTUCE	814	n/a	n/a	0	0	0
5043761	WORD	wordpools/wasnorm_wordpool_576.txt	LTP314	ltpFR2	7	23	VIRUS	1572	n/a	n/a	0	0	0
5046320	WORD	wordpools/wasnorm_wordpool_576.txt	LTP314	ltpFR2	7	23	RECORD	1176	n/a	n/a	0	0	0
5048765	WORD	wordpools/wasnorm_wordpool_576.txt	LTP314	ltpFR2	7	23	TROMBONE	1508	n/a	n/a	0	0	0
5051384	WORD	wordpools/wasnorm_wordpool_576.txt	LTP314	ltpFR2	7	23	SWORD	1423	n/a	n/a	0	0	0
5054019	WORD	wordpools/wasnorm_wordpool_576.txt	LTP314	ltpFR2	7	23	HOOD	714	n/a	n/a	0	0	0
5056571	WORD	wordpools/wasnorm_wordpool_576.txt	LTP314	ltpFR2	7	23	COUSIN	392	n/a	n/a	0	0	0
5059323	WORD	wordpools/wasnorm_wordpool_576.txt	LTP314	ltpFR2	7	23	UMPIRE	1535	n/a	n/a	0	0	0
5061925	WORD	wordpools/wasnorm_wordpool_576.txt	LTP314	ltpFR2	7	23	CARRIAGE	248	n/a	n/a	0	0	0
5064728	WORD	wordpools/wasnorm_wordpool_576.txt	LTP314	ltpFR2	7	23	SPIDER	1351	n/a	n/a	0	0	0
5067436	WORD	wordpools/wasnorm_wordpool_576.txt	LTP314	ltpFR2	7	23	RACKET	1155	n/a	n/a	0	0	0
5070015	WORD	wordpools/wasnorm_wordpool_576.txt	LTP314	ltpFR2	7	23	RELISH	1183	n/a	n/a	0	0	0
5072440	WORD	wordpools/wasnorm_wordpool_576.txt	LTP314	ltpFR2	7	23	JUNGLE	764	n/a	n/a	0	0	0
5075209	WORD	wordpools/wasnorm_wordpool_576.txt	LTP314	ltpFR2	7	23	PRIMATE	1123	n/a	n/a	0	0	0
5077711	WORD	wordpools/wasnorm_wordpool_576.txt	LTP314	ltpFR2	7	23	PREACHER	1119	n/a	n/a	0	0	0
5080473	WORD	wordpools/wasnorm_wordpool_576.txt	LTP314	ltpFR2	7	23	FINGER	567	n/a	n/a	0	0	0
5083049	WORD	wordpools/wasnorm_wordpool_576.txt	LTP314	ltpFR2	7	23	POSTAGE	1113	n/a	n/a	0	0	0
5085745	WORD	wordpools/wasnorm_wordpool_576.txt	LTP314	ltpFR2	7	23	BOUQUET	157	n/a	n/a	0	0	0
5088430	WORD	wordpools/wasnorm_wordpool_576.txt	LTP314	ltpFR2	7	23	SPHINX	1349	n/a	n/a	0	0	0
5090900	WORD	wordpools/wasnorm_wordpool_576.txt	LTP314	ltpFR2	7	23	CHAPEL	280	n/a	n/a	0	0	0
5092518	START	n/a	LTP314	ltpFR2	7	n/a	n/a	n/a	35	n/a	n/a	n/a	n/a
5093639	DISTRACTOR	n/a	LTP314	ltpFR2	7	23	n/a	n/a	n/a	n/a	0	0	0
5093652	PROB	n/a	LTP314	ltpFR2	7	n/a	n/a	n/a	35	16	3	9	4
5097118	PROB	n/a	LTP314	ltpFR2	7	n/a	n/a	n/a	35	18	7	7	4
5099038	PROB	n/a	LTP314	ltpFR2	7	n/a	n/a	n/a	35	23	9	7	7
5102056	PROB	n/a	LTP314	ltpFR2	7	n/a	n/a	n/a	35	14	4	4	6
5104375	PROB	n/a	LTP314	ltpFR2	7	n/a	n/a	n/a	35	12	5	2	5
5105776	PROB	n/a	LTP314	ltpFR2	7	n/a	n/a	n/a	35	20	7	6	7
5107560	PROB	n/a	LTP314	ltpFR2	7	n/a	n/a	n/a	35	18	2	7	9
5109015	PROB	n/a	LTP314	ltpFR2	7	n/a	n/a	n/a	35	8	4	2	2
5111330	PROB	n/a	LTP314	ltpFR2	7	n/a	n/a	n/a	35	15	4	9	2
5113132	PROB	n/a	LTP314	ltpFR2	7	n/a	n/a	n/a	35	8	6	1	1
5114234	PROB	n/a	LTP314	ltpFR2	7	n/a	n/a	n/a	35	8	4	1	3
5116395	STOP	n/a	LTP314	ltpFR2	7	n/a	n/a	n/a	35	n/a	n/a	n/a	n/a
5118303	REC_START	n/a	LTP314	ltpFR2	7	23	n/a	n/a	n/a	n/a	0	0	0
5122940	REC_WORD	wordpools/wasnorm_wordpool_576.txt	LTP314	ltpFR2	7	23	JUNGLE	764	n/a	n/a	0	0	0
5124187	REC_WORD	wordpools/wasnorm_wordpool_576.txt	LTP314	ltpFR2	7	23	PANTHER	1009	n/a	n/a	0	0	0
5128799	REC_WORD	wordpools/wasnorm_wordpool_576.txt	LTP314	ltpFR2	7	23	PRIMATE	1123	n/a	n/a	0	0	0
5208774	WORD	wordpools/wasnorm_wordpool_576.txt	LTP314	ltpFR2	7	24	HOOK	715	n/a	n/a	0	0	0
5211447	WORD	wordpools/wasnorm_wordpool_576.txt	LTP314	ltpFR2	7	24	BEAVER	109	n/a	n/a	0	0	0
5213932	WORD	wordpools/wasnorm_wordpool_576.txt	LTP314	ltpFR2	7	24	GOBLIN	645	n/a	n/a	0	0	0
5216417	WORD	wordpools/wasnorm_wordpool_576.txt	LTP314	ltpFR2	7	24	FRANCE	601	n/a	n/a	0	0	0
5219119	WORD	wordpools/wasnorm_wordpool_576.txt	LTP314	ltpFR2	7	24	SEAGULL	1261	n/a	n/a	0	0	0
5221670	WORD	wordpools/wasnorm_wordpool_576.txt	LTP314	ltpFR2	7	24	ROOSTER	1209	n/a	n/a	0	0	0
5224389	WORD	wordpools/wasnorm_wordpool_576.txt	LTP314	ltpFR2	7	24	LADDER	793	n/a	n/a	0	0	0
5226945	WORD	wordpools/wasnorm_wordpool_576.txt	LTP314	ltpFR2	7	24	DUSTPAN	509	n/a	n/a	0	0	0
5229460	WORD	wordpools/wasnorm_wordpool_576.txt	LTP314	ltpFR2	7	24	LAMP	798	n/a	n/a	0	0	0
5232251	WORD	wordpools/wasnorm_wordpool_576.txt	LTP314	ltpFR2	7	24	TART	1436	n/a	n/a	0	0	0
5234864	WORD	wordpools/wasnorm_wordpool_576.txt	LTP314	ltpFR2	7	24	CLOCK	325	n/a	n/a	0	0	0
5237672	WORD	wordpools/wasnorm_wordpool_576.txt	LTP314	ltpFR2	7	24	BANKER	84	n/a	n/a	0	0	0
5240268	WORD	wordpools/wasnorm_wordpool_576.txt	LTP314	ltpFR2	7	24	PARSLEY	1016	n/a	n/a	0	0	0
5242903	WORD	wordpools/wasnorm_wordpool_576.txt	LTP314	ltpFR2	7	24	LOFT	840	n/a	n/a	0	0	0
5245629	WORD	wordpools/wasnorm_wordpool_576.txt	LTP314	ltpFR2	7	24	PAPER	1011	n/a	n/a	0	0	0
5248297	WORD	wordpools/wasnorm_wordpool_576.txt	LTP314	ltpFR2	7	24	NOTEBOOK	959	n/a	n/a	0	0	0
5250910	WORD	wordpools/wasnorm_wordpool_576.txt	LTP314	ltpFR2	7	24	SLIME	1327	n/a	n/a	0	0	0
5253484	WORD	wordpools/wasnorm_wordpool_576.txt	LTP314	ltpFR2	7	24	CORAL	378	n/a	n/a	0	0	0
5256120	WORD	wordpools/wasnorm_wordpool_576.txt	LTP314	ltpFR2	7	24	SHARK	1275	n/a	n/a	0	0	0
5258890	WORD	wordpools/wasnorm_wordpool_576.txt	LTP314	ltpFR2	7	24	UNCLE	1536	n/a	n/a	0	0	0
5261418	WORD	wordpools/wasnorm_wordpool_576.txt	LTP314	ltpFR2	7	24	PEPPER	1047	n/a	n/a	0	0	0
5263903	WORD	wordpools/wasnorm_wordpool_576.txt	LTP314	ltpFR2	7	24	CIGAR	308	n/a	n/a	0	0	0
5266338	WORD	wordpools/wasnorm_wordpool_576.txt	LTP314	ltpFR2	7	24	CRIB	407	n/a	n/a	0	0	0
5268790	WORD	wordpools/wasnorm_wordpool_576.txt	LTP314	ltpFR2	7	24	RATTLE	1170	n/a	n/a	0	0	0
5270399	START	n/a	LTP314	ltpFR2	7	n/a	n/a	n/a	36	n/a	n/a	n/a	n/a
5271259	DISTRACTOR	n/a	LTP314	ltpFR2	7	24	n/a	n/a	n/a	n/a	0	0	0
5271266	PROB	n/a	LTP314	ltpFR2	7	n/a	n/a	n/a	36	20	5	8	7
5273335	PROB	n/a	LTP314	ltpFR2	7	n/a	n/a	n/a	36	9	3	1	5
5275984	PROB	n/a	LTP314	ltpFR2	7	n/a	n/a	n/a	36	13	5	7	1
5277485	PROB	n/a	LTP314	ltpFR2	7	n/a	n/a	n/a	36	15	6	2	7
5280220	PROB	n/a	LTP314	ltpFR2	7	n/a	n/a	n/a	36	11	3	7	1
5281555	PROB	n/a	LTP314	ltpFR2	7	n/a	n/a	n/a	36	16	6	5	5
5283189	PROB	n/a	LTP314	ltpFR2	7	n/a	n/a	n/a	36	25	9	8	8
5286343	PROB	n/a	LTP314	ltpFR2	7	n/a	n/a	n/a	36	16	8	4	4
5288411	PROB	n/a	LTP314	ltpFR2	7	n/a	n/a	n/a	36	20	9	7	4
5290899	PROB	n/a	LTP314	ltpFR2	7	n/a	n/a	n/a	36	14	9	1	4
5292749	PROB	n/a	LTP314	ltpFR2	7	n/a	n/a	n/a	36	23	9	9	5
5294251	STOP	n/a	LTP314	ltpFR2	7	n/a	n/a	n/a	36	n/a	n/a	n/a	n/a
5296218	REC_START	n/a	LTP314	ltpFR2	7	24	n/a	n/a	n/a	n/a	0	0	0
5297764	REC_WORD	wordpools/wasnorm_wordpool_576.txt	LTP314	ltpFR2	7	24	CRIB	407	n/a	n/a	0	0	0
5307412	REC_WORD	wordpools/wasnorm_wordpool_576.txt	LTP314	ltpFR2	7	24	BEAVER	109	n/a	n/a	0	0	0
5308104	REC_WORD	wordpools/wasnorm_wordpool_576.txt	LTP314	ltpFR2	7	24	HOOK	715	n/a	n/a	0	0	0
5315144	REC_WORD	wordpools/wasnorm_wordpool_576.txt	LTP314	ltpFR2	7	24	BANK	83	n/a	n/a	0	0	0
5316710	REC_WORD	wordpools/wasnorm_wordpool_576.txt	LTP314	ltpFR2	7	24	NOTEBOOK	959	n/a	n/a	0	0	0
5317600	REC_WORD	wordpools/wasnorm_wordpool_576.txt	LTP314	ltpFR2	7	24	PAPER	1011	n/a	n/a	0	0	0
5378039	SESS_END	n/a	LTP314	ltpFR2	7	24	n/a	n/a	n/a	n/a	0	0	0
