mstime	trial_type	stim_file	subject	experiment	session	trial	task	item_name	item_num	recog_conf	resp	answer	test_x	test_y	test_z	color_b	color_g	color_r	case	font
0	SESS_START	n/a	LTP200	ltpFR	12	n/a	n/a	n/a	n/a	n/a	n/a	n/a	0	0	0	n/a	n/a	n/a	n/a	n/a
28216	START	n/a	LTP200	ltpFR	12	n/a	n/a	n/a	n/a	n/a	n/a	n/a	n/a	n/a	n/a	n/a	n/a	n/a	n/a	n/a
28266	PROB	n/a	LTP200	ltpFR	12	n/a	n/a	n/a	n/a	n/a	n/a	9	1	4	4	n/a	n/a	n/a	n/a	n/a
30257	PROB	n/a	LTP200	ltpFR	12	n/a	n/a	n/a	n/a	n/a	n/a	18	8	6	4	n/a	n/a	n/a	n/a	n/a
32248	PROB	n/a	LTP200	ltpFR	12	n/a	n/a	n/a	n/a	n/a	n/a	11	9	1	1	n/a	n/a	n/a	n/a	n/a
33719	PROB	n/a	LTP200	ltpFR	12	n/a	n/a	n/a	n/a	n/a	n/a	15	8	3	4	n/a	n/a	n/a	n/a	n/a
35509	PROB	n/a	LTP200	ltpFR	12	n/a	n/a	n/a	n/a	n/a	n/a	10	3	3	4	n/a	n/a	n/a	n/a	n/a
37986	PROB	n/a	LTP200	ltpFR	12	n/a	n/a	n/a	n/a	n/a	n/a	14	2	9	3	n/a	n/a	n/a	n/a	n/a
39916	PROB	n/a	LTP200	ltpFR	12	n/a	n/a	n/a	n/a	n/a	n/a	15	7	1	7	n/a	n/a	n/a	n/a	n/a
41682	PROB	n/a	LTP200	ltpFR	12	n/a	n/a	n/a	n/a	n/a	n/a	22	3	9	9	n/a	n/a	n/a	n/a	n/a
44985	PROB	n/a	LTP200	ltpFR	12	n/a	n/a	n/a	n/a	n/a	n/a	20	7	7	6	n/a	n/a	n/a	n/a	n/a
47124	STOP	n/a	LTP200	ltpFR	12	n/a	n/a	n/a	n/a	n/a	n/a	n/a	n/a	n/a	n/a	n/a	n/a	n/a	n/a	n/a
67531	START	n/a	LTP200	ltpFR	12	n/a	n/a	n/a	n/a	n/a	n/a	n/a	n/a	n/a	n/a	n/a	n/a	n/a	n/a	n/a
69053	PROB	n/a	LTP200	ltpFR	12	n/a	n/a	n/a	n/a	n/a	n/a	19	5	8	6	n/a	n/a	n/a	n/a	n/a
71451	PROB	n/a	LTP200	ltpFR	12	n/a	n/a	n/a	n/a	n/a	n/a	16	6	5	5	n/a	n/a	n/a	n/a	n/a
73091	PROB	n/a	LTP200	ltpFR	12	n/a	n/a	n/a	n/a	n/a	n/a	14	5	1	8	n/a	n/a	n/a	n/a	n/a
75252	STOP	n/a	LTP200	ltpFR	12	n/a	n/a	n/a	n/a	n/a	n/a	n/a	n/a	n/a	n/a	n/a	n/a	n/a	n/a	n/a
76620	WORD	wordpools/wasnorm_wordpool_less_exclusions.txt	LTP200	ltpFR	12	1	1	AUTOMOBILE	62	n/a	0	n/a	0	0	0	1	0.412841796875	0.57763671875	lower	../fonts/amplitud.ttf
79632	START	n/a	LTP200	ltpFR	12	n/a	n/a	n/a	n/a	n/a	n/a	n/a	n/a	n/a	n/a	n/a	n/a	n/a	n/a	n/a
80518	PROB	n/a	LTP200	ltpFR	12	n/a	n/a	n/a	n/a	n/a	n/a	7	1	3	3	n/a	n/a	n/a	n/a	n/a
81941	PROB	n/a	LTP200	ltpFR	12	n/a	n/a	n/a	n/a	n/a	n/a	24	8	8	6	n/a	n/a	n/a	n/a	n/a
84344	PROB	n/a	LTP200	ltpFR	12	n/a	n/a	n/a	n/a	n/a	n/a	16	5	8	3	n/a	n/a	n/a	n/a	n/a
87467	STOP	n/a	LTP200	ltpFR	12	n/a	n/a	n/a	n/a	n/a	n/a	n/a	n/a	n/a	n/a	n/a	n/a	n/a	n/a	n/a
88565	WORD	wordpools/wasnorm_wordpool_less_exclusions.txt	LTP200	ltpFR	12	1	1	STOCKING	1383	n/a	0	n/a	0	0	0	1	0.412841796875	0.57763671875	lower	../fonts/amplitud.ttf
91577	START	n/a	LTP200	ltpFR	12	n/a	n/a	n/a	n/a	n/a	n/a	n/a	n/a	n/a	n/a	n/a	n/a	n/a	n/a	n/a
92674	PROB	n/a	LTP200	ltpFR	12	n/a	n/a	n/a	n/a	n/a	n/a	20	6	6	8	n/a	n/a	n/a	n/a	n/a
94867	PROB	n/a	LTP200	ltpFR	12	n/a	n/a	n/a	n/a	n/a	n/a	17	2	7	8	n/a	n/a	n/a	n/a	n/a
97215	PROB	n/a	LTP200	ltpFR	12	n/a	n/a	n/a	n/a	n/a	n/a	14	4	3	7	n/a	n/a	n/a	n/a	n/a
98563	STOP	n/a	LTP200	ltpFR	12	n/a	n/a	n/a	n/a	n/a	n/a	n/a	n/a	n/a	n/a	n/a	n/a	n/a	n/a	n/a
100411	WORD	wordpools/wasnorm_wordpool_less_exclusions.txt	LTP200	ltpFR	12	1	1	SKIN	1318	n/a	0	n/a	0	0	0	1	0.412841796875	0.57763671875	lower	../fonts/amplitud.ttf
103423	START	n/a	LTP200	ltpFR	12	n/a	n/a	n/a	n/a	n/a	n/a	n/a	n/a	n/a	n/a	n/a	n/a	n/a	n/a	n/a
104420	PROB	n/a	LTP200	ltpFR	12	n/a	n/a	n/a	n/a	n/a	n/a	9	7	1	1	n/a	n/a	n/a	n/a	n/a
106059	PROB	n/a	LTP200	ltpFR	12	n/a	n/a	n/a	n/a	n/a	n/a	14	2	6	6	n/a	n/a	n/a	n/a	n/a
107614	PROB	n/a	LTP200	ltpFR	12	n/a	n/a	n/a	n/a	n/a	n/a	12	3	6	3	n/a	n/a	n/a	n/a	n/a
109868	STOP	n/a	LTP200	ltpFR	12	n/a	n/a	n/a	n/a	n/a	n/a	n/a	n/a	n/a	n/a	n/a	n/a	n/a	n/a	n/a
112283	WORD	wordpools/wasnorm_wordpool_less_exclusions.txt	LTP200	ltpFR	12	1	1	BLANKET	135	n/a	0	n/a	0	0	0	1	0.412841796875	0.57763671875	lower	../fonts/amplitud.ttf
115301	START	n/a	LTP200	ltpFR	12	n/a	n/a	n/a	n/a	n/a	n/a	n/a	n/a	n/a	n/a	n/a	n/a	n/a	n/a	n/a
116354	PROB	n/a	LTP200	ltpFR	12	n/a	n/a	n/a	n/a	n/a	n/a	9	3	3	3	n/a	n/a	n/a	n/a	n/a
117535	PROB	n/a	LTP200	ltpFR	12	n/a	n/a	n/a	n/a	n/a	n/a	9	4	1	4	n/a	n/a	n/a	n/a	n/a
119198	PROB	n/a	LTP200	ltpFR	12	n/a	n/a	n/a	n/a	n/a	n/a	12	5	6	7	n/a	n/a	n/a	n/a	n/a
122044	STOP	n/a	LTP200	ltpFR	12	n/a	n/a	n/a	n/a	n/a	n/a	n/a	n/a	n/a	n/a	n/a	n/a	n/a	n/a	n/a
124167	WORD	wordpools/wasnorm_wordpool_less_exclusions.txt	LTP200	ltpFR	12	1	1	LAPEL	800	n/a	0	n/a	0	0	0	1	0.412841796875	0.57763671875	lower	../fonts/amplitud.ttf
127179	START	n/a	LTP200	ltpFR	12	n/a	n/a	n/a	n/a	n/a	n/a	n/a	n/a	n/a	n/a	n/a	n/a	n/a	n/a	n/a
128249	PROB	n/a	LTP200	ltpFR	12	n/a	n/a	n/a	n/a	n/a	n/a	11	2	2	7	n/a	n/a	n/a	n/a	n/a
130869	PROB	n/a	LTP200	ltpFR	12	n/a	n/a	n/a	n/a	n/a	n/a	16	2	6	8	n/a	n/a	n/a	n/a	n/a
132447	PROB	n/a	LTP200	ltpFR	12	n/a	n/a	n/a	n/a	n/a	n/a	16	5	9	2	n/a	n/a	n/a	n/a	n/a
134020	STOP	n/a	LTP200	ltpFR	12	n/a	n/a	n/a	n/a	n/a	n/a	n/a	n/a	n/a	n/a	n/a	n/a	n/a	n/a	n/a
136229	WORD	wordpools/wasnorm_wordpool_less_exclusions.txt	LTP200	ltpFR	12	1	1	LOAF	835	n/a	0	n/a	0	0	0	1	0.412841796875	0.57763671875	lower	../fonts/amplitud.ttf
139241	START	n/a	LTP200	ltpFR	12	n/a	n/a	n/a	n/a	n/a	n/a	n/a	n/a	n/a	n/a	n/a	n/a	n/a	n/a	n/a
140311	PROB	n/a	LTP200	ltpFR	12	n/a	n/a	n/a	n/a	n/a	n/a	20	5	8	7	n/a	n/a	n/a	n/a	n/a
144436	PROB	n/a	LTP200	ltpFR	12	n/a	n/a	n/a	n/a	n/a	n/a	11	1	6	4	n/a	n/a	n/a	n/a	n/a
145739	STOP	n/a	LTP200	ltpFR	12	n/a	n/a	n/a	n/a	n/a	n/a	n/a	n/a	n/a	n/a	n/a	n/a	n/a	n/a	n/a
148341	WORD	wordpools/wasnorm_wordpool_less_exclusions.txt	LTP200	ltpFR	12	1	1	TOAST	1471	n/a	0	n/a	0	0	0	1	0.412841796875	0.57763671875	lower	../fonts/amplitud.ttf
151353	START	n/a	LTP200	ltpFR	12	n/a	n/a	n/a	n/a	n/a	n/a	n/a	n/a	n/a	n/a	n/a	n/a	n/a	n/a	n/a
152356	PROB	n/a	LTP200	ltpFR	12	n/a	n/a	n/a	n/a	n/a	n/a	17	5	6	6	n/a	n/a	n/a	n/a	n/a
154624	PROB	n/a	LTP200	ltpFR	12	n/a	n/a	n/a	n/a	n/a	n/a	8	1	6	1	n/a	n/a	n/a	n/a	n/a
156181	PROB	n/a	LTP200	ltpFR	12	n/a	n/a	n/a	n/a	n/a	n/a	20	2	9	9	n/a	n/a	n/a	n/a	n/a
158459	STOP	n/a	LTP200	ltpFR	12	n/a	n/a	n/a	n/a	n/a	n/a	n/a	n/a	n/a	n/a	n/a	n/a	n/a	n/a	n/a
160230	WORD	wordpools/wasnorm_wordpool_less_exclusions.txt	LTP200	ltpFR	12	1	1	LILY	821	n/a	1	n/a	0	0	0	1	0.412841796875	0.57763671875	lower	../fonts/amplitud.ttf
163242	START	n/a	LTP200	ltpFR	12	n/a	n/a	n/a	n/a	n/a	n/a	n/a	n/a	n/a	n/a	n/a	n/a	n/a	n/a	n/a
164117	PROB	n/a	LTP200	ltpFR	12	n/a	n/a	n/a	n/a	n/a	n/a	13	7	4	2	n/a	n/a	n/a	n/a	n/a
166553	PROB	n/a	LTP200	ltpFR	12	n/a	n/a	n/a	n/a	n/a	n/a	23	8	8	7	n/a	n/a	n/a	n/a	n/a
171241	STOP	n/a	LTP200	ltpFR	12	n/a	n/a	n/a	n/a	n/a	n/a	n/a	n/a	n/a	n/a	n/a	n/a	n/a	n/a	n/a
172265	WORD	wordpools/wasnorm_wordpool_less_exclusions.txt	LTP200	ltpFR	12	1	1	TAPIOCA	1434	n/a	0	n/a	0	0	0	1	0.412841796875	0.57763671875	lower	../fonts/amplitud.ttf
175277	START	n/a	LTP200	ltpFR	12	n/a	n/a	n/a	n/a	n/a	n/a	n/a	n/a	n/a	n/a	n/a	n/a	n/a	n/a	n/a
176414	PROB	n/a	LTP200	ltpFR	12	n/a	n/a	n/a	n/a	n/a	n/a	15	1	7	9	n/a	n/a	n/a	n/a	n/a
178432	PROB	n/a	LTP200	ltpFR	12	n/a	n/a	n/a	n/a	n/a	n/a	14	2	6	6	n/a	n/a	n/a	n/a	n/a
181014	PROB	n/a	LTP200	ltpFR	12	n/a	n/a	n/a	n/a	n/a	n/a	21	9	3	9	n/a	n/a	n/a	n/a	n/a
182811	STOP	n/a	LTP200	ltpFR	12	n/a	n/a	n/a	n/a	n/a	n/a	n/a	n/a	n/a	n/a	n/a	n/a	n/a	n/a	n/a
184427	WORD	wordpools/wasnorm_wordpool_less_exclusions.txt	LTP200	ltpFR	12	1	1	PIE	1062	n/a	0	n/a	0	0	0	1	0.412841796875	0.57763671875	lower	../fonts/amplitud.ttf
187438	START	n/a	LTP200	ltpFR	12	n/a	n/a	n/a	n/a	n/a	n/a	n/a	n/a	n/a	n/a	n/a	n/a	n/a	n/a	n/a
188619	PROB	n/a	LTP200	ltpFR	12	n/a	n/a	n/a	n/a	n/a	n/a	5	1	1	3	n/a	n/a	n/a	n/a	n/a
189796	PROB	n/a	LTP200	ltpFR	12	n/a	n/a	n/a	n/a	n/a	n/a	16	8	6	2	n/a	n/a	n/a	n/a	n/a
191771	PROB	n/a	LTP200	ltpFR	12	n/a	n/a	n/a	n/a	n/a	n/a	21	9	9	3	n/a	n/a	n/a	n/a	n/a
193638	PROB	n/a	LTP200	ltpFR	12	n/a	n/a	n/a	n/a	n/a	n/a	13	1	3	9	n/a	n/a	n/a	n/a	n/a
195316	STOP	n/a	LTP200	ltpFR	12	n/a	n/a	n/a	n/a	n/a	n/a	n/a	n/a	n/a	n/a	n/a	n/a	n/a	n/a	n/a
196616	WORD	wordpools/wasnorm_wordpool_less_exclusions.txt	LTP200	ltpFR	12	1	1	EAGLE	512	n/a	1	n/a	0	0	0	1	0.412841796875	0.57763671875	lower	../fonts/amplitud.ttf
199628	START	n/a	LTP200	ltpFR	12	n/a	n/a	n/a	n/a	n/a	n/a	n/a	n/a	n/a	n/a	n/a	n/a	n/a	n/a	n/a
200637	PROB	n/a	LTP200	ltpFR	12	n/a	n/a	n/a	n/a	n/a	n/a	19	3	9	7	n/a	n/a	n/a	n/a	n/a
203041	PROB	n/a	LTP200	ltpFR	12	n/a	n/a	n/a	n/a	n/a	n/a	20	4	8	8	n/a	n/a	n/a	n/a	n/a
204653	PROB	n/a	LTP200	ltpFR	12	n/a	n/a	n/a	n/a	n/a	n/a	8	3	4	1	n/a	n/a	n/a	n/a	n/a
206068	STOP	n/a	LTP200	ltpFR	12	n/a	n/a	n/a	n/a	n/a	n/a	n/a	n/a	n/a	n/a	n/a	n/a	n/a	n/a	n/a
208785	WORD	wordpools/wasnorm_wordpool_less_exclusions.txt	LTP200	ltpFR	12	1	1	POSSUM	1112	n/a	1	n/a	0	0	0	1	0.412841796875	0.57763671875	lower	../fonts/amplitud.ttf
211797	START	n/a	LTP200	ltpFR	12	n/a	n/a	n/a	n/a	n/a	n/a	n/a	n/a	n/a	n/a	n/a	n/a	n/a	n/a	n/a
212868	PROB	n/a	LTP200	ltpFR	12	n/a	n/a	n/a	n/a	n/a	n/a	15	2	7	6	n/a	n/a	n/a	n/a	n/a
214734	PROB	n/a	LTP200	ltpFR	12	n/a	n/a	n/a	n/a	n/a	n/a	19	9	9	1	n/a	n/a	n/a	n/a	n/a
216364	PROB	n/a	LTP200	ltpFR	12	n/a	n/a	n/a	n/a	n/a	n/a	21	6	7	8	n/a	n/a	n/a	n/a	n/a
219643	STOP	n/a	LTP200	ltpFR	12	n/a	n/a	n/a	n/a	n/a	n/a	n/a	n/a	n/a	n/a	n/a	n/a	n/a	n/a	n/a
220646	WORD	wordpools/wasnorm_wordpool_less_exclusions.txt	LTP200	ltpFR	12	1	1	BOLT	146	n/a	0	n/a	0	0	0	1	0.412841796875	0.57763671875	lower	../fonts/amplitud.ttf
223658	START	n/a	LTP200	ltpFR	12	n/a	n/a	n/a	n/a	n/a	n/a	n/a	n/a	n/a	n/a	n/a	n/a	n/a	n/a	n/a
224795	PROB	n/a	LTP200	ltpFR	12	n/a	n/a	n/a	n/a	n/a	n/a	11	2	3	6	n/a	n/a	n/a	n/a	n/a
226518	PROB	n/a	LTP200	ltpFR	12	n/a	n/a	n/a	n/a	n/a	n/a	17	3	6	8	n/a	n/a	n/a	n/a	n/a
229146	PROB	n/a	LTP200	ltpFR	12	n/a	n/a	n/a	n/a	n/a	n/a	16	6	3	7	n/a	n/a	n/a	n/a	n/a
230763	STOP	n/a	LTP200	ltpFR	12	n/a	n/a	n/a	n/a	n/a	n/a	n/a	n/a	n/a	n/a	n/a	n/a	n/a	n/a	n/a
232692	WORD	wordpools/wasnorm_wordpool_less_exclusions.txt	LTP200	ltpFR	12	1	1	CARDINAL	244	n/a	1	n/a	0	0	0	1	0.412841796875	0.57763671875	lower	../fonts/amplitud.ttf
235703	START	n/a	LTP200	ltpFR	12	n/a	n/a	n/a	n/a	n/a	n/a	n/a	n/a	n/a	n/a	n/a	n/a	n/a	n/a	n/a
236723	PROB	n/a	LTP200	ltpFR	12	n/a	n/a	n/a	n/a	n/a	n/a	20	8	3	9	n/a	n/a	n/a	n/a	n/a
238691	PROB	n/a	LTP200	ltpFR	12	n/a	n/a	n/a	n/a	n/a	n/a	7	1	1	5	n/a	n/a	n/a	n/a	n/a
243702	STOP	n/a	LTP200	ltpFR	12	n/a	n/a	n/a	n/a	n/a	n/a	n/a	n/a	n/a	n/a	n/a	n/a	n/a	n/a	n/a
244670	WORD	wordpools/wasnorm_wordpool_less_exclusions.txt	LTP200	ltpFR	12	1	1	BRUNETTE	181	n/a	1	n/a	0	0	0	1	0.412841796875	0.57763671875	lower	../fonts/amplitud.ttf
247682	START	n/a	LTP200	ltpFR	12	n/a	n/a	n/a	n/a	n/a	n/a	n/a	n/a	n/a	n/a	n/a	n/a	n/a	n/a	n/a
248887	PROB	n/a	LTP200	ltpFR	12	n/a	n/a	n/a	n/a	n/a	n/a	18	8	4	6	n/a	n/a	n/a	n/a	n/a
251740	PROB	n/a	LTP200	ltpFR	12	n/a	n/a	n/a	n/a	n/a	n/a	22	9	9	4	n/a	n/a	n/a	n/a	n/a
254443	STOP	n/a	LTP200	ltpFR	12	n/a	n/a	n/a	n/a	n/a	n/a	n/a	n/a	n/a	n/a	n/a	n/a	n/a	n/a	n/a
256715	WORD	wordpools/wasnorm_wordpool_less_exclusions.txt	LTP200	ltpFR	12	1	1	PORCUPINE	1107	n/a	1	n/a	0	0	0	1	0.412841796875	0.57763671875	lower	../fonts/amplitud.ttf
259727	START	n/a	LTP200	ltpFR	12	n/a	n/a	n/a	n/a	n/a	n/a	n/a	n/a	n/a	n/a	n/a	n/a	n/a	n/a	n/a
260926	PROB	n/a	LTP200	ltpFR	12	n/a	n/a	n/a	n/a	n/a	n/a	14	1	6	7	n/a	n/a	n/a	n/a	n/a
262631	PROB	n/a	LTP200	ltpFR	12	n/a	n/a	n/a	n/a	n/a	n/a	12	2	8	2	n/a	n/a	n/a	n/a	n/a
267726	STOP	n/a	LTP200	ltpFR	12	n/a	n/a	n/a	n/a	n/a	n/a	n/a	n/a	n/a	n/a	n/a	n/a	n/a	n/a	n/a
269675	REC_START	n/a	LTP200	ltpFR	12	1	n/a	n/a	n/a	n/a	n/a	n/a	0	0	0	n/a	n/a	n/a	n/a	n/a
271226	REC_WORD	wordpools/wasnorm_wordpool_less_exclusions.txt	LTP200	ltpFR	12	1	1	STOCKING	1383	n/a	0	n/a	0	0	0	n/a	n/a	n/a	n/a	n/a
272503	REC_WORD	wordpools/wasnorm_wordpool_less_exclusions.txt	LTP200	ltpFR	12	1	1	POSSUM	1112	n/a	1	n/a	0	0	0	n/a	n/a	n/a	n/a	n/a
273566	REC_WORD	wordpools/wasnorm_wordpool_less_exclusions.txt	LTP200	ltpFR	12	1	1	EAGLE	512	n/a	1	n/a	0	0	0	n/a	n/a	n/a	n/a	n/a
274698	REC_WORD	wordpools/wasnorm_wordpool_less_exclusions.txt	LTP200	ltpFR	12	1	1	CARDINAL	244	n/a	1	n/a	0	0	0	n/a	n/a	n/a	n/a	n/a
278918	REC_WORD	wordpools/wasnorm_wordpool_less_exclusions.txt	LTP200	ltpFR	12	1	1	SKIN	1318	n/a	0	n/a	0	0	0	n/a	n/a	n/a	n/a	n/a
279867	REC_WORD	wordpools/wasnorm_wordpool_less_exclusions.txt	LTP200	ltpFR	12	1	1	LAPEL	800	n/a	0	n/a	0	0	0	n/a	n/a	n/a	n/a	n/a
281164	REC_WORD	wordpools/wasnorm_wordpool_less_exclusions.txt	LTP200	ltpFR	12	1	1	BLANKET	135	n/a	0	n/a	0	0	0	n/a	n/a	n/a	n/a	n/a
282336	REC_WORD	wordpools/wasnorm_wordpool_less_exclusions.txt	LTP200	ltpFR	12	1	1	TOAST	1471	n/a	0	n/a	0	0	0	n/a	n/a	n/a	n/a	n/a
283404	REC_WORD	wordpools/wasnorm_wordpool_less_exclusions.txt	LTP200	ltpFR	12	1	1	LOAF	835	n/a	0	n/a	0	0	0	n/a	n/a	n/a	n/a	n/a
284661	REC_WORD	wordpools/wasnorm_wordpool_less_exclusions.txt	LTP200	ltpFR	12	1	1	TAPIOCA	1434	n/a	0	n/a	0	0	0	n/a	n/a	n/a	n/a	n/a
286851	REC_WORD	wordpools/wasnorm_wordpool_less_exclusions.txt	LTP200	ltpFR	12	1	1	AUTOMOBILE	62	n/a	0	n/a	0	0	0	n/a	n/a	n/a	n/a	n/a
288158	REC_WORD	wordpools/wasnorm_wordpool_less_exclusions.txt	LTP200	ltpFR	12	1	1	BOLT	146	n/a	0	n/a	0	0	0	n/a	n/a	n/a	n/a	n/a
303074	REC_WORD	wordpools/wasnorm_wordpool_less_exclusions.txt	LTP200	ltpFR	12	1	1	LILY	821	n/a	1	n/a	0	0	0	n/a	n/a	n/a	n/a	n/a
375196	WORD	wordpools/wasnorm_wordpool_less_exclusions.txt	LTP200	ltpFR	12	2	1	WASHER	1592	n/a	0	n/a	0	0	0	1	0.412841796875	0.57763671875	lower	../fonts/amplitud.ttf
379262	WORD	wordpools/wasnorm_wordpool_less_exclusions.txt	LTP200	ltpFR	12	2	1	VOLLEYBALL	1576	n/a	0	n/a	0	0	0	1	0.412841796875	0.57763671875	lower	../fonts/amplitud.ttf
383093	WORD	wordpools/wasnorm_wordpool_less_exclusions.txt	LTP200	ltpFR	12	2	1	FIN	566	n/a	0	n/a	0	0	0	1	0.412841796875	0.57763671875	lower	../fonts/amplitud.ttf
387007	WORD	wordpools/wasnorm_wordpool_less_exclusions.txt	LTP200	ltpFR	12	2	0	GUEST	669	n/a	1	n/a	0	0	0	0	0.5869140625	0.422607421875	upper	../fonts/zerothre.ttf
391117	WORD	wordpools/wasnorm_wordpool_less_exclusions.txt	LTP200	ltpFR	12	2	0	MOUSE	925	n/a	0	n/a	0	0	0	0	0.5869140625	0.422607421875	upper	../fonts/zerothre.ttf
395171	WORD	wordpools/wasnorm_wordpool_less_exclusions.txt	LTP200	ltpFR	12	2	0	SLACKS	1323	n/a	0	n/a	0	0	0	0	0.5869140625	0.422607421875	upper	../fonts/zerothre.ttf
399086	WORD	wordpools/wasnorm_wordpool_less_exclusions.txt	LTP200	ltpFR	12	2	0	WARDROBE	1587	n/a	1	n/a	0	0	0	0	0.5869140625	0.422607421875	upper	../fonts/zerothre.ttf
403279	WORD	wordpools/wasnorm_wordpool_less_exclusions.txt	LTP200	ltpFR	12	2	1	AIRCRAFT	11	n/a	0	n/a	0	0	0	1	0.412841796875	0.57763671875	lower	../fonts/amplitud.ttf
407301	WORD	wordpools/wasnorm_wordpool_less_exclusions.txt	LTP200	ltpFR	12	2	1	LAUNDRY	803	n/a	0	n/a	0	0	0	1	0.412841796875	0.57763671875	lower	../fonts/amplitud.ttf
411293	WORD	wordpools/wasnorm_wordpool_less_exclusions.txt	LTP200	ltpFR	12	2	1	SHERIFF	1284	n/a	1	n/a	0	0	0	1	0.412841796875	0.57763671875	lower	../fonts/amplitud.ttf
415130	WORD	wordpools/wasnorm_wordpool_less_exclusions.txt	LTP200	ltpFR	12	2	0	PEAR	1033	n/a	0	n/a	0	0	0	0	0.5869140625	0.422607421875	upper	../fonts/zerothre.ttf
419105	WORD	wordpools/wasnorm_wordpool_less_exclusions.txt	LTP200	ltpFR	12	2	0	BERRY	122	n/a	0	n/a	0	0	0	0	0.5869140625	0.422607421875	upper	../fonts/zerothre.ttf
423043	WORD	wordpools/wasnorm_wordpool_less_exclusions.txt	LTP200	ltpFR	12	2	0	SHACK	1273	n/a	1	n/a	0	0	0	0	0.5869140625	0.422607421875	upper	../fonts/zerothre.ttf
427025	WORD	wordpools/wasnorm_wordpool_less_exclusions.txt	LTP200	ltpFR	12	2	0	FLANNEL	574	n/a	0	n/a	0	0	0	0	0.5869140625	0.422607421875	upper	../fonts/zerothre.ttf
431000	WORD	wordpools/wasnorm_wordpool_less_exclusions.txt	LTP200	ltpFR	12	2	1	ATHLETE	52	n/a	1	n/a	0	0	0	1	0.412841796875	0.57763671875	lower	../fonts/amplitud.ttf
435122	WORD	wordpools/wasnorm_wordpool_less_exclusions.txt	LTP200	ltpFR	12	2	1	TEAM	1441	n/a	1	n/a	0	0	0	1	0.412841796875	0.57763671875	lower	../fonts/amplitud.ttf
438134	START	n/a	LTP200	ltpFR	12	n/a	n/a	n/a	n/a	n/a	n/a	n/a	n/a	n/a	n/a	n/a	n/a	n/a	n/a	n/a
439204	PROB	n/a	LTP200	ltpFR	12	n/a	n/a	n/a	n/a	n/a	n/a	22	6	9	7	n/a	n/a	n/a	n/a	n/a
441556	PROB	n/a	LTP200	ltpFR	12	n/a	n/a	n/a	n/a	n/a	n/a	10	1	3	6	n/a	n/a	n/a	n/a	n/a
443196	PROB	n/a	LTP200	ltpFR	12	n/a	n/a	n/a	n/a	n/a	n/a	16	3	4	9	n/a	n/a	n/a	n/a	n/a
444811	STOP	n/a	LTP200	ltpFR	12	n/a	n/a	n/a	n/a	n/a	n/a	n/a	n/a	n/a	n/a	n/a	n/a	n/a	n/a	n/a
447988	REC_START	n/a	LTP200	ltpFR	12	2	n/a	n/a	n/a	n/a	n/a	n/a	0	0	0	n/a	n/a	n/a	n/a	n/a
449205	REC_WORD	wordpools/wasnorm_wordpool_less_exclusions.txt	LTP200	ltpFR	12	2	0	FLANNEL	574	n/a	0	n/a	0	0	0	n/a	n/a	n/a	n/a	n/a
450182	REC_WORD	wordpools/wasnorm_wordpool_less_exclusions.txt	LTP200	ltpFR	12	2	0	SLACKS	1323	n/a	0	n/a	0	0	0	n/a	n/a	n/a	n/a	n/a
451375	REC_WORD	wordpools/wasnorm_wordpool_less_exclusions.txt	LTP200	ltpFR	12	2	1	LAUNDRY	803	n/a	0	n/a	0	0	0	n/a	n/a	n/a	n/a	n/a
452622	REC_WORD	wordpools/wasnorm_wordpool_less_exclusions.txt	LTP200	ltpFR	12	2	1	ATHLETE	52	n/a	1	n/a	0	0	0	n/a	n/a	n/a	n/a	n/a
453889	REC_WORD	wordpools/wasnorm_wordpool_less_exclusions.txt	LTP200	ltpFR	12	2	1	TEAM	1441	n/a	1	n/a	0	0	0	n/a	n/a	n/a	n/a	n/a
454932	REC_WORD	wordpools/wasnorm_wordpool_less_exclusions.txt	LTP200	ltpFR	12	2	0	PEAR	1033	n/a	0	n/a	0	0	0	n/a	n/a	n/a	n/a	n/a
456194	REC_WORD	wordpools/wasnorm_wordpool_less_exclusions.txt	LTP200	ltpFR	12	2	0	BERRY	122	n/a	0	n/a	0	0	0	n/a	n/a	n/a	n/a	n/a
457511	REC_WORD	wordpools/wasnorm_wordpool_less_exclusions.txt	LTP200	ltpFR	12	2	1	WASHER	1592	n/a	0	n/a	0	0	0	n/a	n/a	n/a	n/a	n/a
459048	REC_WORD	wordpools/wasnorm_wordpool_less_exclusions.txt	LTP200	ltpFR	12	2	1	VOLLEYBALL	1576	n/a	0	n/a	0	0	0	n/a	n/a	n/a	n/a	n/a
460299	REC_WORD	wordpools/wasnorm_wordpool_less_exclusions.txt	LTP200	ltpFR	12	2	1	FIN	566	n/a	0	n/a	0	0	0	n/a	n/a	n/a	n/a	n/a
465423	REC_WORD	wordpools/wasnorm_wordpool_less_exclusions.txt	LTP200	ltpFR	12	2	1	SHERIFF	1284	n/a	1	n/a	0	0	0	n/a	n/a	n/a	n/a	n/a
466640	REC_WORD	wordpools/wasnorm_wordpool_less_exclusions.txt	LTP200	ltpFR	12	2	0	GUEST	669	n/a	1	n/a	0	0	0	n/a	n/a	n/a	n/a	n/a
467932	REC_WORD	wordpools/wasnorm_wordpool_less_exclusions.txt	LTP200	ltpFR	12	2	0	WARDROBE	1587	n/a	1	n/a	0	0	0	n/a	n/a	n/a	n/a	n/a
469130	REC_WORD	wordpools/wasnorm_wordpool_less_exclusions.txt	LTP200	ltpFR	12	2	0	SHACK	1273	n/a	1	n/a	0	0	0	n/a	n/a	n/a	n/a	n/a
470357	REC_WORD	wordpools/wasnorm_wordpool_less_exclusions.txt	LTP200	ltpFR	12	2	0	MOUSE	925	n/a	0	n/a	0	0	0	n/a	n/a	n/a	n/a	n/a
536320	START	n/a	LTP200	ltpFR	12	n/a	n/a	n/a	n/a	n/a	n/a	n/a	n/a	n/a	n/a	n/a	n/a	n/a	n/a	n/a
537842	PROB	n/a	LTP200	ltpFR	12	n/a	n/a	n/a	n/a	n/a	n/a	18	3	8	7	n/a	n/a	n/a	n/a	n/a
541806	PROB	n/a	LTP200	ltpFR	12	n/a	n/a	n/a	n/a	n/a	n/a	15	3	3	6	n/a	n/a	n/a	n/a	n/a
543246	PROB	n/a	LTP200	ltpFR	12	n/a	n/a	n/a	n/a	n/a	n/a	12	4	2	6	n/a	n/a	n/a	n/a	n/a
545197	PROB	n/a	LTP200	ltpFR	12	n/a	n/a	n/a	n/a	n/a	n/a	9	4	4	1	n/a	n/a	n/a	n/a	n/a
546568	PROB	n/a	LTP200	ltpFR	12	n/a	n/a	n/a	n/a	n/a	n/a	14	4	5	5	n/a	n/a	n/a	n/a	n/a
548175	PROB	n/a	LTP200	ltpFR	12	n/a	n/a	n/a	n/a	n/a	n/a	13	1	8	4	n/a	n/a	n/a	n/a	n/a
550340	PROB	n/a	LTP200	ltpFR	12	n/a	n/a	n/a	n/a	n/a	n/a	14	3	7	4	n/a	n/a	n/a	n/a	n/a
551683	STOP	n/a	LTP200	ltpFR	12	n/a	n/a	n/a	n/a	n/a	n/a	n/a	n/a	n/a	n/a	n/a	n/a	n/a	n/a	n/a
553217	WORD	wordpools/wasnorm_wordpool_less_exclusions.txt	LTP200	ltpFR	12	3	0	LIST	830	n/a	0	n/a	0	0	0	0	0.5869140625	0.422607421875	upper	../fonts/zerothre.ttf
556229	START	n/a	LTP200	ltpFR	12	n/a	n/a	n/a	n/a	n/a	n/a	n/a	n/a	n/a	n/a	n/a	n/a	n/a	n/a	n/a
557109	PROB	n/a	LTP200	ltpFR	12	n/a	n/a	n/a	n/a	n/a	n/a	8	2	1	5	n/a	n/a	n/a	n/a	n/a
558547	PROB	n/a	LTP200	ltpFR	12	n/a	n/a	n/a	n/a	n/a	n/a	21	5	8	8	n/a	n/a	n/a	n/a	n/a
560020	PROB	n/a	LTP200	ltpFR	12	n/a	n/a	n/a	n/a	n/a	n/a	12	1	7	4	n/a	n/a	n/a	n/a	n/a
562262	PROB	n/a	LTP200	ltpFR	12	n/a	n/a	n/a	n/a	n/a	n/a	21	5	8	8	n/a	n/a	n/a	n/a	n/a
563951	PROB	n/a	LTP200	ltpFR	12	n/a	n/a	n/a	n/a	n/a	n/a	18	8	1	9	n/a	n/a	n/a	n/a	n/a
565646	PROB	n/a	LTP200	ltpFR	12	n/a	n/a	n/a	n/a	n/a	n/a	13	4	8	1	n/a	n/a	n/a	n/a	n/a
567287	PROB	n/a	LTP200	ltpFR	12	n/a	n/a	n/a	n/a	n/a	n/a	13	3	3	7	n/a	n/a	n/a	n/a	n/a
570365	PROB	n/a	LTP200	ltpFR	12	n/a	n/a	n/a	n/a	n/a	n/a	9	1	5	3	n/a	n/a	n/a	n/a	n/a
572012	STOP	n/a	LTP200	ltpFR	12	n/a	n/a	n/a	n/a	n/a	n/a	n/a	n/a	n/a	n/a	n/a	n/a	n/a	n/a	n/a
573436	WORD	wordpools/wasnorm_wordpool_less_exclusions.txt	LTP200	ltpFR	12	3	0	CAPTAIN	239	n/a	1	n/a	0	0	0	0	0.5869140625	0.422607421875	upper	../fonts/zerothre.ttf
576448	START	n/a	LTP200	ltpFR	12	n/a	n/a	n/a	n/a	n/a	n/a	n/a	n/a	n/a	n/a	n/a	n/a	n/a	n/a	n/a
577652	PROB	n/a	LTP200	ltpFR	12	n/a	n/a	n/a	n/a	n/a	n/a	16	9	2	5	n/a	n/a	n/a	n/a	n/a
579844	PROB	n/a	LTP200	ltpFR	12	n/a	n/a	n/a	n/a	n/a	n/a	19	7	8	4	n/a	n/a	n/a	n/a	n/a
582120	PROB	n/a	LTP200	ltpFR	12	n/a	n/a	n/a	n/a	n/a	n/a	16	2	8	6	n/a	n/a	n/a	n/a	n/a
583691	PROB	n/a	LTP200	ltpFR	12	n/a	n/a	n/a	n/a	n/a	n/a	23	7	8	8	n/a	n/a	n/a	n/a	n/a
586319	PROB	n/a	LTP200	ltpFR	12	n/a	n/a	n/a	n/a	n/a	n/a	20	4	9	7	n/a	n/a	n/a	n/a	n/a
592448	STOP	n/a	LTP200	ltpFR	12	n/a	n/a	n/a	n/a	n/a	n/a	n/a	n/a	n/a	n/a	n/a	n/a	n/a	n/a	n/a
593528	WORD	wordpools/wasnorm_wordpool_less_exclusions.txt	LTP200	ltpFR	12	3	0	CAFETERIA	217	n/a	1	n/a	0	0	0	0	0.5869140625	0.422607421875	upper	../fonts/zerothre.ttf
596540	START	n/a	LTP200	ltpFR	12	n/a	n/a	n/a	n/a	n/a	n/a	n/a	n/a	n/a	n/a	n/a	n/a	n/a	n/a	n/a
597466	PROB	n/a	LTP200	ltpFR	12	n/a	n/a	n/a	n/a	n/a	n/a	18	3	6	9	n/a	n/a	n/a	n/a	n/a
599792	PROB	n/a	LTP200	ltpFR	12	n/a	n/a	n/a	n/a	n/a	n/a	20	9	3	8	n/a	n/a	n/a	n/a	n/a
602495	PROB	n/a	LTP200	ltpFR	12	n/a	n/a	n/a	n/a	n/a	n/a	21	8	6	7	n/a	n/a	n/a	n/a	n/a
607581	PROB	n/a	LTP200	ltpFR	12	n/a	n/a	n/a	n/a	n/a	n/a	12	1	6	5	n/a	n/a	n/a	n/a	n/a
609495	PROB	n/a	LTP200	ltpFR	12	n/a	n/a	n/a	n/a	n/a	n/a	11	2	3	6	n/a	n/a	n/a	n/a	n/a
611036	STOP	n/a	LTP200	ltpFR	12	n/a	n/a	n/a	n/a	n/a	n/a	n/a	n/a	n/a	n/a	n/a	n/a	n/a	n/a	n/a
613443	WORD	wordpools/wasnorm_wordpool_less_exclusions.txt	LTP200	ltpFR	12	3	0	SCRIBBLE	1256	n/a	0	n/a	0	0	0	0	0.5869140625	0.422607421875	upper	../fonts/zerothre.ttf
616455	START	n/a	LTP200	ltpFR	12	n/a	n/a	n/a	n/a	n/a	n/a	n/a	n/a	n/a	n/a	n/a	n/a	n/a	n/a	n/a
617542	PROB	n/a	LTP200	ltpFR	12	n/a	n/a	n/a	n/a	n/a	n/a	19	9	7	3	n/a	n/a	n/a	n/a	n/a
619827	PROB	n/a	LTP200	ltpFR	12	n/a	n/a	n/a	n/a	n/a	n/a	17	7	8	2	n/a	n/a	n/a	n/a	n/a
621903	PROB	n/a	LTP200	ltpFR	12	n/a	n/a	n/a	n/a	n/a	n/a	15	7	6	2	n/a	n/a	n/a	n/a	n/a
623944	PROB	n/a	LTP200	ltpFR	12	n/a	n/a	n/a	n/a	n/a	n/a	14	8	5	1	n/a	n/a	n/a	n/a	n/a
626453	PROB	n/a	LTP200	ltpFR	12	n/a	n/a	n/a	n/a	n/a	n/a	16	6	8	2	n/a	n/a	n/a	n/a	n/a
628567	PROB	n/a	LTP200	ltpFR	12	n/a	n/a	n/a	n/a	n/a	n/a	12	2	4	6	n/a	n/a	n/a	n/a	n/a
632455	STOP	n/a	LTP200	ltpFR	12	n/a	n/a	n/a	n/a	n/a	n/a	n/a	n/a	n/a	n/a	n/a	n/a	n/a	n/a	n/a
633546	WORD	wordpools/wasnorm_wordpool_less_exclusions.txt	LTP200	ltpFR	12	3	0	SALMON	1227	n/a	0	n/a	0	0	0	0	0.5869140625	0.422607421875	upper	../fonts/zerothre.ttf
636558	START	n/a	LTP200	ltpFR	12	n/a	n/a	n/a	n/a	n/a	n/a	n/a	n/a	n/a	n/a	n/a	n/a	n/a	n/a	n/a
637378	PROB	n/a	LTP200	ltpFR	12	n/a	n/a	n/a	n/a	n/a	n/a	16	9	6	1	n/a	n/a	n/a	n/a	n/a
639435	PROB	n/a	LTP200	ltpFR	12	n/a	n/a	n/a	n/a	n/a	n/a	16	3	5	8	n/a	n/a	n/a	n/a	n/a
641165	PROB	n/a	LTP200	ltpFR	12	n/a	n/a	n/a	n/a	n/a	n/a	19	9	2	8	n/a	n/a	n/a	n/a	n/a
643300	PROB	n/a	LTP200	ltpFR	12	n/a	n/a	n/a	n/a	n/a	n/a	15	5	5	5	n/a	n/a	n/a	n/a	n/a
644694	PROB	n/a	LTP200	ltpFR	12	n/a	n/a	n/a	n/a	n/a	n/a	18	5	5	8	n/a	n/a	n/a	n/a	n/a
648135	PROB	n/a	LTP200	ltpFR	12	n/a	n/a	n/a	n/a	n/a	n/a	13	3	1	9	n/a	n/a	n/a	n/a	n/a
652558	STOP	n/a	LTP200	ltpFR	12	n/a	n/a	n/a	n/a	n/a	n/a	n/a	n/a	n/a	n/a	n/a	n/a	n/a	n/a	n/a
653494	WORD	wordpools/wasnorm_wordpool_less_exclusions.txt	LTP200	ltpFR	12	3	0	BAIT	70	n/a	0	n/a	0	0	0	0	0.5869140625	0.422607421875	upper	../fonts/zerothre.ttf
656506	START	n/a	LTP200	ltpFR	12	n/a	n/a	n/a	n/a	n/a	n/a	n/a	n/a	n/a	n/a	n/a	n/a	n/a	n/a	n/a
657320	PROB	n/a	LTP200	ltpFR	12	n/a	n/a	n/a	n/a	n/a	n/a	14	5	2	7	n/a	n/a	n/a	n/a	n/a
659009	PROB	n/a	LTP200	ltpFR	12	n/a	n/a	n/a	n/a	n/a	n/a	20	9	9	2	n/a	n/a	n/a	n/a	n/a
662907	PROB	n/a	LTP200	ltpFR	12	n/a	n/a	n/a	n/a	n/a	n/a	10	7	2	1	n/a	n/a	n/a	n/a	n/a
664780	PROB	n/a	LTP200	ltpFR	12	n/a	n/a	n/a	n/a	n/a	n/a	24	9	7	6	n/a	n/a	n/a	n/a	n/a
668936	PROB	n/a	LTP200	ltpFR	12	n/a	n/a	n/a	n/a	n/a	n/a	17	9	7	1	n/a	n/a	n/a	n/a	n/a
670592	PROB	n/a	LTP200	ltpFR	12	n/a	n/a	n/a	n/a	n/a	n/a	15	1	8	6	n/a	n/a	n/a	n/a	n/a
672116	STOP	n/a	LTP200	ltpFR	12	n/a	n/a	n/a	n/a	n/a	n/a	n/a	n/a	n/a	n/a	n/a	n/a	n/a	n/a	n/a
673503	WORD	wordpools/wasnorm_wordpool_less_exclusions.txt	LTP200	ltpFR	12	3	1	SPACE	1345	n/a	0	n/a	0	0	0	1	0.412841796875	0.57763671875	lower	../fonts/amplitud.ttf
676515	START	n/a	LTP200	ltpFR	12	n/a	n/a	n/a	n/a	n/a	n/a	n/a	n/a	n/a	n/a	n/a	n/a	n/a	n/a	n/a
677612	PROB	n/a	LTP200	ltpFR	12	n/a	n/a	n/a	n/a	n/a	n/a	15	8	5	2	n/a	n/a	n/a	n/a	n/a
679326	PROB	n/a	LTP200	ltpFR	12	n/a	n/a	n/a	n/a	n/a	n/a	16	9	6	1	n/a	n/a	n/a	n/a	n/a
681443	PROB	n/a	LTP200	ltpFR	12	n/a	n/a	n/a	n/a	n/a	n/a	14	2	6	6	n/a	n/a	n/a	n/a	n/a
683207	PROB	n/a	LTP200	ltpFR	12	n/a	n/a	n/a	n/a	n/a	n/a	9	4	3	2	n/a	n/a	n/a	n/a	n/a
685309	PROB	n/a	LTP200	ltpFR	12	n/a	n/a	n/a	n/a	n/a	n/a	26	9	9	8	n/a	n/a	n/a	n/a	n/a
687851	PROB	n/a	LTP200	ltpFR	12	n/a	n/a	n/a	n/a	n/a	n/a	19	6	8	5	n/a	n/a	n/a	n/a	n/a
691900	STOP	n/a	LTP200	ltpFR	12	n/a	n/a	n/a	n/a	n/a	n/a	n/a	n/a	n/a	n/a	n/a	n/a	n/a	n/a	n/a
693572	WORD	wordpools/wasnorm_wordpool_less_exclusions.txt	LTP200	ltpFR	12	3	1	ELEVATOR	524	n/a	0	n/a	0	0	0	1	0.412841796875	0.57763671875	lower	../fonts/amplitud.ttf
696584	START	n/a	LTP200	ltpFR	12	n/a	n/a	n/a	n/a	n/a	n/a	n/a	n/a	n/a	n/a	n/a	n/a	n/a	n/a	n/a
697677	PROB	n/a	LTP200	ltpFR	12	n/a	n/a	n/a	n/a	n/a	n/a	18	7	3	8	n/a	n/a	n/a	n/a	n/a
699434	PROB	n/a	LTP200	ltpFR	12	n/a	n/a	n/a	n/a	n/a	n/a	9	6	1	2	n/a	n/a	n/a	n/a	n/a
701609	PROB	n/a	LTP200	ltpFR	12	n/a	n/a	n/a	n/a	n/a	n/a	17	3	7	7	n/a	n/a	n/a	n/a	n/a
703783	PROB	n/a	LTP200	ltpFR	12	n/a	n/a	n/a	n/a	n/a	n/a	18	9	8	1	n/a	n/a	n/a	n/a	n/a
705391	PROB	n/a	LTP200	ltpFR	12	n/a	n/a	n/a	n/a	n/a	n/a	12	8	2	2	n/a	n/a	n/a	n/a	n/a
707447	PROB	n/a	LTP200	ltpFR	12	n/a	n/a	n/a	n/a	n/a	n/a	18	8	9	1	n/a	n/a	n/a	n/a	n/a
709823	PROB	n/a	LTP200	ltpFR	12	n/a	n/a	n/a	n/a	n/a	n/a	5	2	2	1	n/a	n/a	n/a	n/a	n/a
712584	STOP	n/a	LTP200	ltpFR	12	n/a	n/a	n/a	n/a	n/a	n/a	n/a	n/a	n/a	n/a	n/a	n/a	n/a	n/a	n/a
713570	WORD	wordpools/wasnorm_wordpool_less_exclusions.txt	LTP200	ltpFR	12	3	1	CLAM	315	n/a	1	n/a	0	0	0	1	0.412841796875	0.57763671875	lower	../fonts/amplitud.ttf
716582	START	n/a	LTP200	ltpFR	12	n/a	n/a	n/a	n/a	n/a	n/a	n/a	n/a	n/a	n/a	n/a	n/a	n/a	n/a	n/a
717585	PROB	n/a	LTP200	ltpFR	12	n/a	n/a	n/a	n/a	n/a	n/a	14	5	1	8	n/a	n/a	n/a	n/a	n/a
720347	PROB	n/a	LTP200	ltpFR	12	n/a	n/a	n/a	n/a	n/a	n/a	14	1	4	9	n/a	n/a	n/a	n/a	n/a
721947	PROB	n/a	LTP200	ltpFR	12	n/a	n/a	n/a	n/a	n/a	n/a	12	2	3	7	n/a	n/a	n/a	n/a	n/a
724406	PROB	n/a	LTP200	ltpFR	12	n/a	n/a	n/a	n/a	n/a	n/a	13	8	3	2	n/a	n/a	n/a	n/a	n/a
726797	PROB	n/a	LTP200	ltpFR	12	n/a	n/a	n/a	n/a	n/a	n/a	18	8	7	3	n/a	n/a	n/a	n/a	n/a
728604	PROB	n/a	LTP200	ltpFR	12	n/a	n/a	n/a	n/a	n/a	n/a	16	5	9	2	n/a	n/a	n/a	n/a	n/a
730762	PROB	n/a	LTP200	ltpFR	12	n/a	n/a	n/a	n/a	n/a	n/a	14	7	6	1	n/a	n/a	n/a	n/a	n/a
732475	STOP	n/a	LTP200	ltpFR	12	n/a	n/a	n/a	n/a	n/a	n/a	n/a	n/a	n/a	n/a	n/a	n/a	n/a	n/a	n/a
733623	WORD	wordpools/wasnorm_wordpool_less_exclusions.txt	LTP200	ltpFR	12	3	1	CHIPMUNK	304	n/a	1	n/a	0	0	0	1	0.412841796875	0.57763671875	lower	../fonts/amplitud.ttf
736635	START	n/a	LTP200	ltpFR	12	n/a	n/a	n/a	n/a	n/a	n/a	n/a	n/a	n/a	n/a	n/a	n/a	n/a	n/a	n/a
737828	PROB	n/a	LTP200	ltpFR	12	n/a	n/a	n/a	n/a	n/a	n/a	13	4	2	7	n/a	n/a	n/a	n/a	n/a
740356	PROB	n/a	LTP200	ltpFR	12	n/a	n/a	n/a	n/a	n/a	n/a	21	7	9	5	n/a	n/a	n/a	n/a	n/a
742865	PROB	n/a	LTP200	ltpFR	12	n/a	n/a	n/a	n/a	n/a	n/a	22	5	8	9	n/a	n/a	n/a	n/a	n/a
746545	PROB	n/a	LTP200	ltpFR	12	n/a	n/a	n/a	n/a	n/a	n/a	15	5	1	9	n/a	n/a	n/a	n/a	n/a
748336	PROB	n/a	LTP200	ltpFR	12	n/a	n/a	n/a	n/a	n/a	n/a	23	9	7	7	n/a	n/a	n/a	n/a	n/a
750754	PROB	n/a	LTP200	ltpFR	12	n/a	n/a	n/a	n/a	n/a	n/a	12	2	8	2	n/a	n/a	n/a	n/a	n/a
752044	STOP	n/a	LTP200	ltpFR	12	n/a	n/a	n/a	n/a	n/a	n/a	n/a	n/a	n/a	n/a	n/a	n/a	n/a	n/a	n/a
753632	WORD	wordpools/wasnorm_wordpool_less_exclusions.txt	LTP200	ltpFR	12	3	1	POET	1095	n/a	1	n/a	0	0	0	1	0.412841796875	0.57763671875	lower	../fonts/amplitud.ttf
756650	START	n/a	LTP200	ltpFR	12	n/a	n/a	n/a	n/a	n/a	n/a	n/a	n/a	n/a	n/a	n/a	n/a	n/a	n/a	n/a
757781	PROB	n/a	LTP200	ltpFR	12	n/a	n/a	n/a	n/a	n/a	n/a	13	6	2	5	n/a	n/a	n/a	n/a	n/a
760977	PROB	n/a	LTP200	ltpFR	12	n/a	n/a	n/a	n/a	n/a	n/a	17	2	9	6	n/a	n/a	n/a	n/a	n/a
763252	PROB	n/a	LTP200	ltpFR	12	n/a	n/a	n/a	n/a	n/a	n/a	12	2	1	9	n/a	n/a	n/a	n/a	n/a
764998	PROB	n/a	LTP200	ltpFR	12	n/a	n/a	n/a	n/a	n/a	n/a	15	6	4	5	n/a	n/a	n/a	n/a	n/a
766180	PROB	n/a	LTP200	ltpFR	12	n/a	n/a	n/a	n/a	n/a	n/a	19	9	2	8	n/a	n/a	n/a	n/a	n/a
768388	PROB	n/a	LTP200	ltpFR	12	n/a	n/a	n/a	n/a	n/a	n/a	18	6	4	8	n/a	n/a	n/a	n/a	n/a
769793	PROB	n/a	LTP200	ltpFR	12	n/a	n/a	n/a	n/a	n/a	n/a	23	7	7	9	n/a	n/a	n/a	n/a	n/a
771515	STOP	n/a	LTP200	ltpFR	12	n/a	n/a	n/a	n/a	n/a	n/a	n/a	n/a	n/a	n/a	n/a	n/a	n/a	n/a	n/a
773849	WORD	wordpools/wasnorm_wordpool_less_exclusions.txt	LTP200	ltpFR	12	3	0	JOURNAL	760	n/a	0	n/a	0	0	0	0	0.5869140625	0.422607421875	upper	../fonts/zerothre.ttf
776860	START	n/a	LTP200	ltpFR	12	n/a	n/a	n/a	n/a	n/a	n/a	n/a	n/a	n/a	n/a	n/a	n/a	n/a	n/a	n/a
777796	PROB	n/a	LTP200	ltpFR	12	n/a	n/a	n/a	n/a	n/a	n/a	15	3	3	9	n/a	n/a	n/a	n/a	n/a
779720	PROB	n/a	LTP200	ltpFR	12	n/a	n/a	n/a	n/a	n/a	n/a	16	9	5	2	n/a	n/a	n/a	n/a	n/a
781912	PROB	n/a	LTP200	ltpFR	12	n/a	n/a	n/a	n/a	n/a	n/a	13	5	5	3	n/a	n/a	n/a	n/a	n/a
783428	PROB	n/a	LTP200	ltpFR	12	n/a	n/a	n/a	n/a	n/a	n/a	12	7	4	1	n/a	n/a	n/a	n/a	n/a
785425	PROB	n/a	LTP200	ltpFR	12	n/a	n/a	n/a	n/a	n/a	n/a	19	4	6	9	n/a	n/a	n/a	n/a	n/a
787918	PROB	n/a	LTP200	ltpFR	12	n/a	n/a	n/a	n/a	n/a	n/a	12	3	2	7	n/a	n/a	n/a	n/a	n/a
790160	PROB	n/a	LTP200	ltpFR	12	n/a	n/a	n/a	n/a	n/a	n/a	16	2	5	9	n/a	n/a	n/a	n/a	n/a
791571	STOP	n/a	LTP200	ltpFR	12	n/a	n/a	n/a	n/a	n/a	n/a	n/a	n/a	n/a	n/a	n/a	n/a	n/a	n/a	n/a
793823	WORD	wordpools/wasnorm_wordpool_less_exclusions.txt	LTP200	ltpFR	12	3	0	ERASER	538	n/a	0	n/a	0	0	0	0	0.5869140625	0.422607421875	upper	../fonts/zerothre.ttf
796835	START	n/a	LTP200	ltpFR	12	n/a	n/a	n/a	n/a	n/a	n/a	n/a	n/a	n/a	n/a	n/a	n/a	n/a	n/a	n/a
797956	PROB	n/a	LTP200	ltpFR	12	n/a	n/a	n/a	n/a	n/a	n/a	18	5	7	6	n/a	n/a	n/a	n/a	n/a
801218	PROB	n/a	LTP200	ltpFR	12	n/a	n/a	n/a	n/a	n/a	n/a	22	9	5	8	n/a	n/a	n/a	n/a	n/a
803922	PROB	n/a	LTP200	ltpFR	12	n/a	n/a	n/a	n/a	n/a	n/a	16	7	6	3	n/a	n/a	n/a	n/a	n/a
806114	PROB	n/a	LTP200	ltpFR	12	n/a	n/a	n/a	n/a	n/a	n/a	14	5	3	6	n/a	n/a	n/a	n/a	n/a
808105	PROB	n/a	LTP200	ltpFR	12	n/a	n/a	n/a	n/a	n/a	n/a	10	1	4	5	n/a	n/a	n/a	n/a	n/a
812835	STOP	n/a	LTP200	ltpFR	12	n/a	n/a	n/a	n/a	n/a	n/a	n/a	n/a	n/a	n/a	n/a	n/a	n/a	n/a	n/a
813731	WORD	wordpools/wasnorm_wordpool_less_exclusions.txt	LTP200	ltpFR	12	3	1	SHEET	1279	n/a	0	n/a	0	0	0	1	0.412841796875	0.57763671875	lower	../fonts/amplitud.ttf
816743	START	n/a	LTP200	ltpFR	12	n/a	n/a	n/a	n/a	n/a	n/a	n/a	n/a	n/a	n/a	n/a	n/a	n/a	n/a	n/a
817813	PROB	n/a	LTP200	ltpFR	12	n/a	n/a	n/a	n/a	n/a	n/a	14	1	9	4	n/a	n/a	n/a	n/a	n/a
819370	PROB	n/a	LTP200	ltpFR	12	n/a	n/a	n/a	n/a	n/a	n/a	13	3	5	5	n/a	n/a	n/a	n/a	n/a
821321	PROB	n/a	LTP200	ltpFR	12	n/a	n/a	n/a	n/a	n/a	n/a	11	5	1	5	n/a	n/a	n/a	n/a	n/a
822659	PROB	n/a	LTP200	ltpFR	12	n/a	n/a	n/a	n/a	n/a	n/a	16	1	7	8	n/a	n/a	n/a	n/a	n/a
824472	PROB	n/a	LTP200	ltpFR	12	n/a	n/a	n/a	n/a	n/a	n/a	12	2	7	3	n/a	n/a	n/a	n/a	n/a
826848	PROB	n/a	LTP200	ltpFR	12	n/a	n/a	n/a	n/a	n/a	n/a	12	3	5	4	n/a	n/a	n/a	n/a	n/a
828648	PROB	n/a	LTP200	ltpFR	12	n/a	n/a	n/a	n/a	n/a	n/a	18	5	6	7	n/a	n/a	n/a	n/a	n/a
831451	STOP	n/a	LTP200	ltpFR	12	n/a	n/a	n/a	n/a	n/a	n/a	n/a	n/a	n/a	n/a	n/a	n/a	n/a	n/a	n/a
833958	WORD	wordpools/wasnorm_wordpool_less_exclusions.txt	LTP200	ltpFR	12	3	1	ORNAMENT	985	n/a	0	n/a	0	0	0	1	0.412841796875	0.57763671875	lower	../fonts/amplitud.ttf
836970	START	n/a	LTP200	ltpFR	12	n/a	n/a	n/a	n/a	n/a	n/a	n/a	n/a	n/a	n/a	n/a	n/a	n/a	n/a	n/a
837990	PROB	n/a	LTP200	ltpFR	12	n/a	n/a	n/a	n/a	n/a	n/a	15	8	2	5	n/a	n/a	n/a	n/a	n/a
839423	PROB	n/a	LTP200	ltpFR	12	n/a	n/a	n/a	n/a	n/a	n/a	25	7	9	9	n/a	n/a	n/a	n/a	n/a
842256	PROB	n/a	LTP200	ltpFR	12	n/a	n/a	n/a	n/a	n/a	n/a	18	6	4	8	n/a	n/a	n/a	n/a	n/a
844348	PROB	n/a	LTP200	ltpFR	12	n/a	n/a	n/a	n/a	n/a	n/a	23	9	5	9	n/a	n/a	n/a	n/a	n/a
847871	PROB	n/a	LTP200	ltpFR	12	n/a	n/a	n/a	n/a	n/a	n/a	15	3	9	3	n/a	n/a	n/a	n/a	n/a
849600	PROB	n/a	LTP200	ltpFR	12	n/a	n/a	n/a	n/a	n/a	n/a	12	7	3	2	n/a	n/a	n/a	n/a	n/a
852970	STOP	n/a	LTP200	ltpFR	12	n/a	n/a	n/a	n/a	n/a	n/a	n/a	n/a	n/a	n/a	n/a	n/a	n/a	n/a	n/a
853967	WORD	wordpools/wasnorm_wordpool_less_exclusions.txt	LTP200	ltpFR	12	3	1	DECK	443	n/a	0	n/a	0	0	0	1	0.412841796875	0.57763671875	lower	../fonts/amplitud.ttf
856979	START	n/a	LTP200	ltpFR	12	n/a	n/a	n/a	n/a	n/a	n/a	n/a	n/a	n/a	n/a	n/a	n/a	n/a	n/a	n/a
857859	PROB	n/a	LTP200	ltpFR	12	n/a	n/a	n/a	n/a	n/a	n/a	12	8	2	2	n/a	n/a	n/a	n/a	n/a
859231	PROB	n/a	LTP200	ltpFR	12	n/a	n/a	n/a	n/a	n/a	n/a	17	7	6	4	n/a	n/a	n/a	n/a	n/a
861322	PROB	n/a	LTP200	ltpFR	12	n/a	n/a	n/a	n/a	n/a	n/a	22	4	9	9	n/a	n/a	n/a	n/a	n/a
862861	PROB	n/a	LTP200	ltpFR	12	n/a	n/a	n/a	n/a	n/a	n/a	12	2	4	6	n/a	n/a	n/a	n/a	n/a
865203	PROB	n/a	LTP200	ltpFR	12	n/a	n/a	n/a	n/a	n/a	n/a	15	8	2	5	n/a	n/a	n/a	n/a	n/a
866691	PROB	n/a	LTP200	ltpFR	12	n/a	n/a	n/a	n/a	n/a	n/a	22	6	8	8	n/a	n/a	n/a	n/a	n/a
871025	PROB	n/a	LTP200	ltpFR	12	n/a	n/a	n/a	n/a	n/a	n/a	9	2	2	5	n/a	n/a	n/a	n/a	n/a
872747	STOP	n/a	LTP200	ltpFR	12	n/a	n/a	n/a	n/a	n/a	n/a	n/a	n/a	n/a	n/a	n/a	n/a	n/a	n/a	n/a
874823	REC_START	n/a	LTP200	ltpFR	12	3	n/a	n/a	n/a	n/a	n/a	n/a	0	0	0	n/a	n/a	n/a	n/a	n/a
876858	REC_WORD	wordpools/wasnorm_wordpool_less_exclusions.txt	LTP200	ltpFR	12	3	0	CAPTAIN	239	n/a	1	n/a	0	0	0	n/a	n/a	n/a	n/a	n/a
877776	REC_WORD	wordpools/wasnorm_wordpool_less_exclusions.txt	LTP200	ltpFR	12	3	0	CAFETERIA	217	n/a	1	n/a	0	0	0	n/a	n/a	n/a	n/a	n/a
878968	REC_WORD	wordpools/wasnorm_wordpool_less_exclusions.txt	LTP200	ltpFR	12	3	0	SCRIBBLE	1256	n/a	0	n/a	0	0	0	n/a	n/a	n/a	n/a	n/a
880285	REC_WORD	wordpools/wasnorm_wordpool_less_exclusions.txt	LTP200	ltpFR	12	3	0	LIST	830	n/a	0	n/a	0	0	0	n/a	n/a	n/a	n/a	n/a
881433	REC_WORD	wordpools/wasnorm_wordpool_less_exclusions.txt	LTP200	ltpFR	12	3	1	SHEET	1279	n/a	0	n/a	0	0	0	n/a	n/a	n/a	n/a	n/a
882625	REC_WORD	wordpools/wasnorm_wordpool_less_exclusions.txt	LTP200	ltpFR	12	3	0	SALMON	1227	n/a	0	n/a	0	0	0	n/a	n/a	n/a	n/a	n/a
883797	REC_WORD	wordpools/wasnorm_wordpool_less_exclusions.txt	LTP200	ltpFR	12	3	0	BAIT	70	n/a	0	n/a	0	0	0	n/a	n/a	n/a	n/a	n/a
884820	REC_WORD	wordpools/wasnorm_wordpool_less_exclusions.txt	LTP200	ltpFR	12	3	1	CLAM	315	n/a	1	n/a	0	0	0	n/a	n/a	n/a	n/a	n/a
899382	REC_WORD	wordpools/wasnorm_wordpool_less_exclusions.txt	LTP200	ltpFR	12	3	0	ERASER	538	n/a	0	n/a	0	0	0	n/a	n/a	n/a	n/a	n/a
904131	REC_WORD	wordpools/wasnorm_wordpool_less_exclusions.txt	LTP200	ltpFR	12	3	1	SPACE	1345	n/a	0	n/a	0	0	0	n/a	n/a	n/a	n/a	n/a
906516	REC_WORD	wordpools/wasnorm_wordpool_less_exclusions.txt	LTP200	ltpFR	12	3	1	ELEVATOR	524	n/a	0	n/a	0	0	0	n/a	n/a	n/a	n/a	n/a
928600	REC_WORD	wordpools/wasnorm_wordpool_less_exclusions.txt	LTP200	ltpFR	12	3	1	ORNAMENT	985	n/a	0	n/a	0	0	0	n/a	n/a	n/a	n/a	n/a
979407	START	n/a	LTP200	ltpFR	12	n/a	n/a	n/a	n/a	n/a	n/a	n/a	n/a	n/a	n/a	n/a	n/a	n/a	n/a	n/a
980923	PROB	n/a	LTP200	ltpFR	12	n/a	n/a	n/a	n/a	n/a	n/a	13	8	2	3	n/a	n/a	n/a	n/a	n/a
982461	PROB	n/a	LTP200	ltpFR	12	n/a	n/a	n/a	n/a	n/a	n/a	8	1	6	1	n/a	n/a	n/a	n/a	n/a
983839	PROB	n/a	LTP200	ltpFR	12	n/a	n/a	n/a	n/a	n/a	n/a	8	2	5	1	n/a	n/a	n/a	n/a	n/a
986004	STOP	n/a	LTP200	ltpFR	12	n/a	n/a	n/a	n/a	n/a	n/a	n/a	n/a	n/a	n/a	n/a	n/a	n/a	n/a	n/a
988540	WORD	wordpools/wasnorm_wordpool_less_exclusions.txt	LTP200	ltpFR	12	4	0	COUNTY	389	n/a	1	n/a	0	0	0	0	0.5869140625	0.422607421875	upper	../fonts/zerothre.ttf
991552	START	n/a	LTP200	ltpFR	12	n/a	n/a	n/a	n/a	n/a	n/a	n/a	n/a	n/a	n/a	n/a	n/a	n/a	n/a	n/a
992555	PROB	n/a	LTP200	ltpFR	12	n/a	n/a	n/a	n/a	n/a	n/a	18	7	8	3	n/a	n/a	n/a	n/a	n/a
994976	PROB	n/a	LTP200	ltpFR	12	n/a	n/a	n/a	n/a	n/a	n/a	19	6	5	8	n/a	n/a	n/a	n/a	n/a
998004	STOP	n/a	LTP200	ltpFR	12	n/a	n/a	n/a	n/a	n/a	n/a	n/a	n/a	n/a	n/a	n/a	n/a	n/a	n/a	n/a
1000619	WORD	wordpools/wasnorm_wordpool_less_exclusions.txt	LTP200	ltpFR	12	4	0	DIPLOMA	470	n/a	0	n/a	0	0	0	0	0.5869140625	0.422607421875	upper	../fonts/zerothre.ttf
1003631	START	n/a	LTP200	ltpFR	12	n/a	n/a	n/a	n/a	n/a	n/a	n/a	n/a	n/a	n/a	n/a	n/a	n/a	n/a	n/a
1004734	PROB	n/a	LTP200	ltpFR	12	n/a	n/a	n/a	n/a	n/a	n/a	12	5	5	2	n/a	n/a	n/a	n/a	n/a
1006752	PROB	n/a	LTP200	ltpFR	12	n/a	n/a	n/a	n/a	n/a	n/a	13	9	2	2	n/a	n/a	n/a	n/a	n/a
1011631	STOP	n/a	LTP200	ltpFR	12	n/a	n/a	n/a	n/a	n/a	n/a	n/a	n/a	n/a	n/a	n/a	n/a	n/a	n/a	n/a
1012530	WORD	wordpools/wasnorm_wordpool_less_exclusions.txt	LTP200	ltpFR	12	4	0	HALL	677	n/a	1	n/a	0	0	0	0	0.5869140625	0.422607421875	upper	../fonts/zerothre.ttf
1015543	START	n/a	LTP200	ltpFR	12	n/a	n/a	n/a	n/a	n/a	n/a	n/a	n/a	n/a	n/a	n/a	n/a	n/a	n/a	n/a
1016512	PROB	n/a	LTP200	ltpFR	12	n/a	n/a	n/a	n/a	n/a	n/a	19	9	9	1	n/a	n/a	n/a	n/a	n/a
1018129	PROB	n/a	LTP200	ltpFR	12	n/a	n/a	n/a	n/a	n/a	n/a	9	1	1	7	n/a	n/a	n/a	n/a	n/a
1019517	PROB	n/a	LTP200	ltpFR	12	n/a	n/a	n/a	n/a	n/a	n/a	14	3	5	6	n/a	n/a	n/a	n/a	n/a
1021425	PROB	n/a	LTP200	ltpFR	12	n/a	n/a	n/a	n/a	n/a	n/a	16	8	6	2	n/a	n/a	n/a	n/a	n/a
1023220	STOP	n/a	LTP200	ltpFR	12	n/a	n/a	n/a	n/a	n/a	n/a	n/a	n/a	n/a	n/a	n/a	n/a	n/a	n/a	n/a
1024592	WORD	wordpools/wasnorm_wordpool_less_exclusions.txt	LTP200	ltpFR	12	4	0	TOOTHPASTE	1483	n/a	0	n/a	0	0	0	0	0.5869140625	0.422607421875	upper	../fonts/zerothre.ttf
1027604	START	n/a	LTP200	ltpFR	12	n/a	n/a	n/a	n/a	n/a	n/a	n/a	n/a	n/a	n/a	n/a	n/a	n/a	n/a	n/a
1028641	PROB	n/a	LTP200	ltpFR	12	n/a	n/a	n/a	n/a	n/a	n/a	8	2	5	1	n/a	n/a	n/a	n/a	n/a
1030492	PROB	n/a	LTP200	ltpFR	12	n/a	n/a	n/a	n/a	n/a	n/a	15	5	6	4	n/a	n/a	n/a	n/a	n/a
1031871	PROB	n/a	LTP200	ltpFR	12	n/a	n/a	n/a	n/a	n/a	n/a	12	5	5	2	n/a	n/a	n/a	n/a	n/a
1033509	PROB	n/a	LTP200	ltpFR	12	n/a	n/a	n/a	n/a	n/a	n/a	13	1	8	4	n/a	n/a	n/a	n/a	n/a
1035220	STOP	n/a	LTP200	ltpFR	12	n/a	n/a	n/a	n/a	n/a	n/a	n/a	n/a	n/a	n/a	n/a	n/a	n/a	n/a	n/a
1036554	WORD	wordpools/wasnorm_wordpool_less_exclusions.txt	LTP200	ltpFR	12	4	0	BEGGAR	117	n/a	1	n/a	0	0	0	0	0.5869140625	0.422607421875	upper	../fonts/zerothre.ttf
1039566	START	n/a	LTP200	ltpFR	12	n/a	n/a	n/a	n/a	n/a	n/a	n/a	n/a	n/a	n/a	n/a	n/a	n/a	n/a	n/a
1040435	PROB	n/a	LTP200	ltpFR	12	n/a	n/a	n/a	n/a	n/a	n/a	12	3	1	8	n/a	n/a	n/a	n/a	n/a
1042454	PROB	n/a	LTP200	ltpFR	12	n/a	n/a	n/a	n/a	n/a	n/a	14	4	7	3	n/a	n/a	n/a	n/a	n/a
1044362	PROB	n/a	LTP200	ltpFR	12	n/a	n/a	n/a	n/a	n/a	n/a	14	2	4	8	n/a	n/a	n/a	n/a	n/a
1046643	STOP	n/a	LTP200	ltpFR	12	n/a	n/a	n/a	n/a	n/a	n/a	n/a	n/a	n/a	n/a	n/a	n/a	n/a	n/a	n/a
1048394	WORD	wordpools/wasnorm_wordpool_less_exclusions.txt	LTP200	ltpFR	12	4	0	WILDERNESS	1610	n/a	1	n/a	0	0	0	0	0.5869140625	0.422607421875	upper	../fonts/zerothre.ttf
1051412	START	n/a	LTP200	ltpFR	12	n/a	n/a	n/a	n/a	n/a	n/a	n/a	n/a	n/a	n/a	n/a	n/a	n/a	n/a	n/a
1052625	PROB	n/a	LTP200	ltpFR	12	n/a	n/a	n/a	n/a	n/a	n/a	9	3	5	1	n/a	n/a	n/a	n/a	n/a
1054071	PROB	n/a	LTP200	ltpFR	12	n/a	n/a	n/a	n/a	n/a	n/a	18	6	8	4	n/a	n/a	n/a	n/a	n/a
1059412	STOP	n/a	LTP200	ltpFR	12	n/a	n/a	n/a	n/a	n/a	n/a	n/a	n/a	n/a	n/a	n/a	n/a	n/a	n/a	n/a
1060611	WORD	wordpools/wasnorm_wordpool_less_exclusions.txt	LTP200	ltpFR	12	4	0	TROMBONE	1508	n/a	1	n/a	0	0	0	0	0.5869140625	0.422607421875	upper	../fonts/zerothre.ttf
1063623	START	n/a	LTP200	ltpFR	12	n/a	n/a	n/a	n/a	n/a	n/a	n/a	n/a	n/a	n/a	n/a	n/a	n/a	n/a	n/a
1064744	PROB	n/a	LTP200	ltpFR	12	n/a	n/a	n/a	n/a	n/a	n/a	19	7	7	5	n/a	n/a	n/a	n/a	n/a
1067454	PROB	n/a	LTP200	ltpFR	12	n/a	n/a	n/a	n/a	n/a	n/a	9	6	1	2	n/a	n/a	n/a	n/a	n/a
1069729	PROB	n/a	LTP200	ltpFR	12	n/a	n/a	n/a	n/a	n/a	n/a	13	2	8	3	n/a	n/a	n/a	n/a	n/a
1071507	STOP	n/a	LTP200	ltpFR	12	n/a	n/a	n/a	n/a	n/a	n/a	n/a	n/a	n/a	n/a	n/a	n/a	n/a	n/a	n/a
1072517	WORD	wordpools/wasnorm_wordpool_less_exclusions.txt	LTP200	ltpFR	12	4	0	BUGLE	189	n/a	0	n/a	0	0	0	0	0.5869140625	0.422607421875	upper	../fonts/zerothre.ttf
1075529	START	n/a	LTP200	ltpFR	12	n/a	n/a	n/a	n/a	n/a	n/a	n/a	n/a	n/a	n/a	n/a	n/a	n/a	n/a	n/a
1076649	PROB	n/a	LTP200	ltpFR	12	n/a	n/a	n/a	n/a	n/a	n/a	9	1	4	4	n/a	n/a	n/a	n/a	n/a
1077894	PROB	n/a	LTP200	ltpFR	12	n/a	n/a	n/a	n/a	n/a	n/a	22	6	7	9	n/a	n/a	n/a	n/a	n/a
1080883	PROB	n/a	LTP200	ltpFR	12	n/a	n/a	n/a	n/a	n/a	n/a	17	7	8	2	n/a	n/a	n/a	n/a	n/a
1082787	STOP	n/a	LTP200	ltpFR	12	n/a	n/a	n/a	n/a	n/a	n/a	n/a	n/a	n/a	n/a	n/a	n/a	n/a	n/a	n/a
1084502	WORD	wordpools/wasnorm_wordpool_less_exclusions.txt	LTP200	ltpFR	12	4	0	SWEATER	1419	n/a	0	n/a	0	0	0	0	0.5869140625	0.422607421875	upper	../fonts/zerothre.ttf
1087513	START	n/a	LTP200	ltpFR	12	n/a	n/a	n/a	n/a	n/a	n/a	n/a	n/a	n/a	n/a	n/a	n/a	n/a	n/a	n/a
1088434	PROB	n/a	LTP200	ltpFR	12	n/a	n/a	n/a	n/a	n/a	n/a	5	2	1	2	n/a	n/a	n/a	n/a	n/a
1089721	PROB	n/a	LTP200	ltpFR	12	n/a	n/a	n/a	n/a	n/a	n/a	21	5	8	8	n/a	n/a	n/a	n/a	n/a
1091495	PROB	n/a	LTP200	ltpFR	12	n/a	n/a	n/a	n/a	n/a	n/a	12	2	7	3	n/a	n/a	n/a	n/a	n/a
1095513	STOP	n/a	LTP200	ltpFR	12	n/a	n/a	n/a	n/a	n/a	n/a	n/a	n/a	n/a	n/a	n/a	n/a	n/a	n/a	n/a
1096341	WORD	wordpools/wasnorm_wordpool_less_exclusions.txt	LTP200	ltpFR	12	4	0	DORM	488	n/a	1	n/a	0	0	0	0	0.5869140625	0.422607421875	upper	../fonts/zerothre.ttf
1099353	START	n/a	LTP200	ltpFR	12	n/a	n/a	n/a	n/a	n/a	n/a	n/a	n/a	n/a	n/a	n/a	n/a	n/a	n/a	n/a
1100545	PROB	n/a	LTP200	ltpFR	12	n/a	n/a	n/a	n/a	n/a	n/a	7	1	2	4	n/a	n/a	n/a	n/a	n/a
1102939	PROB	n/a	LTP200	ltpFR	12	n/a	n/a	n/a	n/a	n/a	n/a	14	6	7	1	n/a	n/a	n/a	n/a	n/a
1104688	PROB	n/a	LTP200	ltpFR	12	n/a	n/a	n/a	n/a	n/a	n/a	16	6	9	1	n/a	n/a	n/a	n/a	n/a
1106044	STOP	n/a	LTP200	ltpFR	12	n/a	n/a	n/a	n/a	n/a	n/a	n/a	n/a	n/a	n/a	n/a	n/a	n/a	n/a	n/a
1108536	WORD	wordpools/wasnorm_wordpool_less_exclusions.txt	LTP200	ltpFR	12	4	0	NET	946	n/a	1	n/a	0	0	0	0	0.5869140625	0.422607421875	upper	../fonts/zerothre.ttf
1111548	START	n/a	LTP200	ltpFR	12	n/a	n/a	n/a	n/a	n/a	n/a	n/a	n/a	n/a	n/a	n/a	n/a	n/a	n/a	n/a
1112708	PROB	n/a	LTP200	ltpFR	12	n/a	n/a	n/a	n/a	n/a	n/a	19	8	3	8	n/a	n/a	n/a	n/a	n/a
1114642	PROB	n/a	LTP200	ltpFR	12	n/a	n/a	n/a	n/a	n/a	n/a	8	5	1	2	n/a	n/a	n/a	n/a	n/a
1116455	PROB	n/a	LTP200	ltpFR	12	n/a	n/a	n/a	n/a	n/a	n/a	11	2	7	2	n/a	n/a	n/a	n/a	n/a
1118140	STOP	n/a	LTP200	ltpFR	12	n/a	n/a	n/a	n/a	n/a	n/a	n/a	n/a	n/a	n/a	n/a	n/a	n/a	n/a	n/a
1120432	WORD	wordpools/wasnorm_wordpool_less_exclusions.txt	LTP200	ltpFR	12	4	0	HEEL	700	n/a	0	n/a	0	0	0	0	0.5869140625	0.422607421875	upper	../fonts/zerothre.ttf
1123449	START	n/a	LTP200	ltpFR	12	n/a	n/a	n/a	n/a	n/a	n/a	n/a	n/a	n/a	n/a	n/a	n/a	n/a	n/a	n/a
1124286	PROB	n/a	LTP200	ltpFR	12	n/a	n/a	n/a	n/a	n/a	n/a	13	3	7	3	n/a	n/a	n/a	n/a	n/a
1126360	PROB	n/a	LTP200	ltpFR	12	n/a	n/a	n/a	n/a	n/a	n/a	14	7	3	4	n/a	n/a	n/a	n/a	n/a
1127708	PROB	n/a	LTP200	ltpFR	12	n/a	n/a	n/a	n/a	n/a	n/a	11	7	3	1	n/a	n/a	n/a	n/a	n/a
1130236	STOP	n/a	LTP200	ltpFR	12	n/a	n/a	n/a	n/a	n/a	n/a	n/a	n/a	n/a	n/a	n/a	n/a	n/a	n/a	n/a
1132549	WORD	wordpools/wasnorm_wordpool_less_exclusions.txt	LTP200	ltpFR	12	4	0	TOE	1473	n/a	0	n/a	0	0	0	0	0.5869140625	0.422607421875	upper	../fonts/zerothre.ttf
1135561	START	n/a	LTP200	ltpFR	12	n/a	n/a	n/a	n/a	n/a	n/a	n/a	n/a	n/a	n/a	n/a	n/a	n/a	n/a	n/a
1136541	PROB	n/a	LTP200	ltpFR	12	n/a	n/a	n/a	n/a	n/a	n/a	13	9	2	2	n/a	n/a	n/a	n/a	n/a
1139186	PROB	n/a	LTP200	ltpFR	12	n/a	n/a	n/a	n/a	n/a	n/a	16	5	6	5	n/a	n/a	n/a	n/a	n/a
1140490	PROB	n/a	LTP200	ltpFR	12	n/a	n/a	n/a	n/a	n/a	n/a	12	7	1	4	n/a	n/a	n/a	n/a	n/a
1142691	STOP	n/a	LTP200	ltpFR	12	n/a	n/a	n/a	n/a	n/a	n/a	n/a	n/a	n/a	n/a	n/a	n/a	n/a	n/a	n/a
1144578	WORD	wordpools/wasnorm_wordpool_less_exclusions.txt	LTP200	ltpFR	12	4	0	TOWN	1491	n/a	1	n/a	0	0	0	0	0.5869140625	0.422607421875	upper	../fonts/zerothre.ttf
1147590	START	n/a	LTP200	ltpFR	12	n/a	n/a	n/a	n/a	n/a	n/a	n/a	n/a	n/a	n/a	n/a	n/a	n/a	n/a	n/a
1148710	PROB	n/a	LTP200	ltpFR	12	n/a	n/a	n/a	n/a	n/a	n/a	19	9	9	1	n/a	n/a	n/a	n/a	n/a
1150930	PROB	n/a	LTP200	ltpFR	12	n/a	n/a	n/a	n/a	n/a	n/a	15	5	3	7	n/a	n/a	n/a	n/a	n/a
1155590	STOP	n/a	LTP200	ltpFR	12	n/a	n/a	n/a	n/a	n/a	n/a	n/a	n/a	n/a	n/a	n/a	n/a	n/a	n/a	n/a
1156424	WORD	wordpools/wasnorm_wordpool_less_exclusions.txt	LTP200	ltpFR	12	4	0	PIKE	1067	n/a	0	n/a	0	0	0	0	0.5869140625	0.422607421875	upper	../fonts/zerothre.ttf
1159434	START	n/a	LTP200	ltpFR	12	n/a	n/a	n/a	n/a	n/a	n/a	n/a	n/a	n/a	n/a	n/a	n/a	n/a	n/a	n/a
1160482	PROB	n/a	LTP200	ltpFR	12	n/a	n/a	n/a	n/a	n/a	n/a	14	9	1	4	n/a	n/a	n/a	n/a	n/a
1161995	PROB	n/a	LTP200	ltpFR	12	n/a	n/a	n/a	n/a	n/a	n/a	10	5	2	3	n/a	n/a	n/a	n/a	n/a
1163969	PROB	n/a	LTP200	ltpFR	12	n/a	n/a	n/a	n/a	n/a	n/a	20	4	7	9	n/a	n/a	n/a	n/a	n/a
1165860	STOP	n/a	LTP200	ltpFR	12	n/a	n/a	n/a	n/a	n/a	n/a	n/a	n/a	n/a	n/a	n/a	n/a	n/a	n/a	n/a
1168612	WORD	wordpools/wasnorm_wordpool_less_exclusions.txt	LTP200	ltpFR	12	4	0	ARCHITECT	36	n/a	1	n/a	0	0	0	0	0.5869140625	0.422607421875	upper	../fonts/zerothre.ttf
1171624	START	n/a	LTP200	ltpFR	12	n/a	n/a	n/a	n/a	n/a	n/a	n/a	n/a	n/a	n/a	n/a	n/a	n/a	n/a	n/a
1172828	PROB	n/a	LTP200	ltpFR	12	n/a	n/a	n/a	n/a	n/a	n/a	11	1	5	5	n/a	n/a	n/a	n/a	n/a
1174090	PROB	n/a	LTP200	ltpFR	12	n/a	n/a	n/a	n/a	n/a	n/a	19	4	6	9	n/a	n/a	n/a	n/a	n/a
1176665	PROB	n/a	LTP200	ltpFR	12	n/a	n/a	n/a	n/a	n/a	n/a	14	1	6	7	n/a	n/a	n/a	n/a	n/a
1178420	STOP	n/a	LTP200	ltpFR	12	n/a	n/a	n/a	n/a	n/a	n/a	n/a	n/a	n/a	n/a	n/a	n/a	n/a	n/a	n/a
1181551	REC_START	n/a	LTP200	ltpFR	12	4	n/a	n/a	n/a	n/a	n/a	n/a	0	0	0	n/a	n/a	n/a	n/a	n/a
1183606	REC_WORD	wordpools/wasnorm_wordpool_less_exclusions.txt	LTP200	ltpFR	12	4	0	COUNTY	389	n/a	1	n/a	0	0	0	n/a	n/a	n/a	n/a	n/a
1184679	REC_WORD	wordpools/wasnorm_wordpool_less_exclusions.txt	LTP200	ltpFR	12	4	0	HALL	677	n/a	1	n/a	0	0	0	n/a	n/a	n/a	n/a	n/a
1185721	REC_WORD	wordpools/wasnorm_wordpool_less_exclusions.txt	LTP200	ltpFR	12	4	0	DIPLOMA	470	n/a	0	n/a	0	0	0	n/a	n/a	n/a	n/a	n/a
1187053	REC_WORD	wordpools/wasnorm_wordpool_less_exclusions.txt	LTP200	ltpFR	12	4	0	TOOTHPASTE	1483	n/a	0	n/a	0	0	0	n/a	n/a	n/a	n/a	n/a
1188510	REC_WORD	wordpools/wasnorm_wordpool_less_exclusions.txt	LTP200	ltpFR	12	4	0	PIKE	1067	n/a	0	n/a	0	0	0	n/a	n/a	n/a	n/a	n/a
1190261	REC_WORD	wordpools/wasnorm_wordpool_less_exclusions.txt	LTP200	ltpFR	12	4	0	SWEATER	1419	n/a	0	n/a	0	0	0	n/a	n/a	n/a	n/a	n/a
1199196	REC_WORD	wordpools/wasnorm_wordpool_less_exclusions.txt	LTP200	ltpFR	12	4	0	DORM	488	n/a	1	n/a	0	0	0	n/a	n/a	n/a	n/a	n/a
1223116	REC_WORD	wordpools/wasnorm_wordpool_less_exclusions.txt	LTP200	ltpFR	12	4	0	TROMBONE	1508	n/a	1	n/a	0	0	0	n/a	n/a	n/a	n/a	n/a
1224209	REC_WORD	wordpools/wasnorm_wordpool_less_exclusions.txt	LTP200	ltpFR	12	4	0	BUGLE	189	n/a	0	n/a	0	0	0	n/a	n/a	n/a	n/a	n/a
1271116	WORD	wordpools/wasnorm_wordpool_less_exclusions.txt	LTP200	ltpFR	12	5	1	MAID	856	n/a	1	n/a	0	0	0	1	0.412841796875	0.57763671875	lower	../fonts/amplitud.ttf
1275081	WORD	wordpools/wasnorm_wordpool_less_exclusions.txt	LTP200	ltpFR	12	5	1	MAJOR	859	n/a	1	n/a	0	0	0	1	0.412841796875	0.57763671875	lower	../fonts/amplitud.ttf
1279287	WORD	wordpools/wasnorm_wordpool_less_exclusions.txt	LTP200	ltpFR	12	5	1	PEDESTRIAN	1038	n/a	1	n/a	0	0	0	1	0.412841796875	0.57763671875	lower	../fonts/amplitud.ttf
1283468	WORD	wordpools/wasnorm_wordpool_less_exclusions.txt	LTP200	ltpFR	12	5	1	BISON	131	n/a	1	n/a	0	0	0	1	0.412841796875	0.57763671875	lower	../fonts/amplitud.ttf
1287650	WORD	wordpools/wasnorm_wordpool_less_exclusions.txt	LTP200	ltpFR	12	5	1	PIER	1063	n/a	0	n/a	0	0	0	1	0.412841796875	0.57763671875	lower	../fonts/amplitud.ttf
1291515	WORD	wordpools/wasnorm_wordpool_less_exclusions.txt	LTP200	ltpFR	12	5	1	TIDE	1465	n/a	0	n/a	0	0	0	1	0.412841796875	0.57763671875	lower	../fonts/amplitud.ttf
1295391	WORD	wordpools/wasnorm_wordpool_less_exclusions.txt	LTP200	ltpFR	12	5	1	BELL	118	n/a	0	n/a	0	0	0	1	0.412841796875	0.57763671875	lower	../fonts/amplitud.ttf
1299506	WORD	wordpools/wasnorm_wordpool_less_exclusions.txt	LTP200	ltpFR	12	5	1	CHICKEN	297	n/a	1	n/a	0	0	0	1	0.412841796875	0.57763671875	lower	../fonts/amplitud.ttf
1303560	WORD	wordpools/wasnorm_wordpool_less_exclusions.txt	LTP200	ltpFR	12	5	1	WAITER	1580	n/a	1	n/a	0	0	0	1	0.412841796875	0.57763671875	lower	../fonts/amplitud.ttf
1307452	WORD	wordpools/wasnorm_wordpool_less_exclusions.txt	LTP200	ltpFR	12	5	1	MOUNTAIN	924	n/a	0	n/a	0	0	0	1	0.412841796875	0.57763671875	lower	../fonts/amplitud.ttf
1311424	WORD	wordpools/wasnorm_wordpool_less_exclusions.txt	LTP200	ltpFR	12	5	1	BREAST	171	n/a	0	n/a	0	0	0	1	0.412841796875	0.57763671875	lower	../fonts/amplitud.ttf
1315289	WORD	wordpools/wasnorm_wordpool_less_exclusions.txt	LTP200	ltpFR	12	5	1	SKUNK	1321	n/a	1	n/a	0	0	0	1	0.412841796875	0.57763671875	lower	../fonts/amplitud.ttf
1319187	WORD	wordpools/wasnorm_wordpool_less_exclusions.txt	LTP200	ltpFR	12	5	1	DEODORANT	448	n/a	0	n/a	0	0	0	1	0.412841796875	0.57763671875	lower	../fonts/amplitud.ttf
1323202	WORD	wordpools/wasnorm_wordpool_less_exclusions.txt	LTP200	ltpFR	12	5	1	GLUE	643	n/a	0	n/a	0	0	0	1	0.412841796875	0.57763671875	lower	../fonts/amplitud.ttf
1327301	WORD	wordpools/wasnorm_wordpool_less_exclusions.txt	LTP200	ltpFR	12	5	1	BOULDER	155	n/a	0	n/a	0	0	0	1	0.412841796875	0.57763671875	lower	../fonts/amplitud.ttf
1331260	WORD	wordpools/wasnorm_wordpool_less_exclusions.txt	LTP200	ltpFR	12	5	1	PARENT	1013	n/a	1	n/a	0	0	0	1	0.412841796875	0.57763671875	lower	../fonts/amplitud.ttf
1337099	REC_START	n/a	LTP200	ltpFR	12	5	n/a	n/a	n/a	n/a	n/a	n/a	0	0	0	n/a	n/a	n/a	n/a	n/a
1338585	REC_WORD	wordpools/wasnorm_wordpool_less_exclusions.txt	LTP200	ltpFR	12	5	1	SKUNK	1321	n/a	1	n/a	0	0	0	n/a	n/a	n/a	n/a	n/a
1339698	REC_WORD	wordpools/wasnorm_wordpool_less_exclusions.txt	LTP200	ltpFR	12	5	1	DEODORANT	448	n/a	0	n/a	0	0	0	n/a	n/a	n/a	n/a	n/a
1340940	REC_WORD	wordpools/wasnorm_wordpool_less_exclusions.txt	LTP200	ltpFR	12	5	1	MAID	856	n/a	1	n/a	0	0	0	n/a	n/a	n/a	n/a	n/a
1341928	REC_WORD	wordpools/wasnorm_wordpool_less_exclusions.txt	LTP200	ltpFR	12	5	1	MAJOR	859	n/a	1	n/a	0	0	0	n/a	n/a	n/a	n/a	n/a
1343010	REC_WORD	wordpools/wasnorm_wordpool_less_exclusions.txt	LTP200	ltpFR	12	5	1	PEDESTRIAN	1038	n/a	1	n/a	0	0	0	n/a	n/a	n/a	n/a	n/a
1344277	REC_WORD	wordpools/wasnorm_wordpool_less_exclusions.txt	LTP200	ltpFR	12	5	1	PIER	1063	n/a	0	n/a	0	0	0	n/a	n/a	n/a	n/a	n/a
1345465	REC_WORD	wordpools/wasnorm_wordpool_less_exclusions.txt	LTP200	ltpFR	12	5	1	TIDE	1465	n/a	0	n/a	0	0	0	n/a	n/a	n/a	n/a	n/a
1346597	REC_WORD	wordpools/wasnorm_wordpool_less_exclusions.txt	LTP200	ltpFR	12	5	1	MOUNTAIN	924	n/a	0	n/a	0	0	0	n/a	n/a	n/a	n/a	n/a
1350508	REC_WORD	wordpools/wasnorm_wordpool_less_exclusions.txt	LTP200	ltpFR	12	5	1	BISON	131	n/a	1	n/a	0	0	0	n/a	n/a	n/a	n/a	n/a
1351526	REC_WORD	wordpools/wasnorm_wordpool_less_exclusions.txt	LTP200	ltpFR	12	5	1	CHICKEN	297	n/a	1	n/a	0	0	0	n/a	n/a	n/a	n/a	n/a
1368033	REC_WORD	wordpools/wasnorm_wordpool_less_exclusions.txt	LTP200	ltpFR	12	5	1	BELL	118	n/a	0	n/a	0	0	0	n/a	n/a	n/a	n/a	n/a
1423623	WORD	wordpools/wasnorm_wordpool_less_exclusions.txt	LTP200	ltpFR	12	6	0	VALVE	1546	n/a	0	n/a	0	0	0	0	0.5869140625	0.422607421875	upper	../fonts/zerothre.ttf
1427739	WORD	wordpools/wasnorm_wordpool_less_exclusions.txt	LTP200	ltpFR	12	6	0	SWAN	1417	n/a	1	n/a	0	0	0	0	0.5869140625	0.422607421875	upper	../fonts/zerothre.ttf
1431945	WORD	wordpools/wasnorm_wordpool_less_exclusions.txt	LTP200	ltpFR	12	6	1	BRACELET	163	n/a	0	n/a	0	0	0	1	0.412841796875	0.57763671875	lower	../fonts/amplitud.ttf
1435809	WORD	wordpools/wasnorm_wordpool_less_exclusions.txt	LTP200	ltpFR	12	6	1	ARTIST	43	n/a	1	n/a	0	0	0	1	0.412841796875	0.57763671875	lower	../fonts/amplitud.ttf
1439942	WORD	wordpools/wasnorm_wordpool_less_exclusions.txt	LTP200	ltpFR	12	6	1	OUTFIT	988	n/a	0	n/a	0	0	0	1	0.412841796875	0.57763671875	lower	../fonts/amplitud.ttf
1443822	WORD	wordpools/wasnorm_wordpool_less_exclusions.txt	LTP200	ltpFR	12	6	1	PERSONNEL	1053	n/a	1	n/a	0	0	0	1	0.412841796875	0.57763671875	lower	../fonts/amplitud.ttf
1447889	WORD	wordpools/wasnorm_wordpool_less_exclusions.txt	LTP200	ltpFR	12	6	1	SCROLL	1257	n/a	0	n/a	0	0	0	1	0.412841796875	0.57763671875	lower	../fonts/amplitud.ttf
1451836	WORD	wordpools/wasnorm_wordpool_less_exclusions.txt	LTP200	ltpFR	12	6	1	ESSAY	540	n/a	0	n/a	0	0	0	1	0.412841796875	0.57763671875	lower	../fonts/amplitud.ttf
1456013	WORD	wordpools/wasnorm_wordpool_less_exclusions.txt	LTP200	ltpFR	12	6	0	TECHNICIAN	1443	n/a	1	n/a	0	0	0	0	0.5869140625	0.422607421875	upper	../fonts/zerothre.ttf
1459951	WORD	wordpools/wasnorm_wordpool_less_exclusions.txt	LTP200	ltpFR	12	6	0	CANARY	227	n/a	0	n/a	0	0	0	0	0.5869140625	0.422607421875	upper	../fonts/zerothre.ttf
1463976	WORD	wordpools/wasnorm_wordpool_less_exclusions.txt	LTP200	ltpFR	12	6	0	STRAWBERRY	1391	n/a	0	n/a	0	0	0	0	0.5869140625	0.422607421875	upper	../fonts/zerothre.ttf
1468092	WORD	wordpools/wasnorm_wordpool_less_exclusions.txt	LTP200	ltpFR	12	6	0	TANGERINE	1431	n/a	0	n/a	0	0	0	0	0.5869140625	0.422607421875	upper	../fonts/zerothre.ttf
1472113	WORD	wordpools/wasnorm_wordpool_less_exclusions.txt	LTP200	ltpFR	12	6	0	PISTON	1076	n/a	0	n/a	0	0	0	0	0.5869140625	0.422607421875	upper	../fonts/zerothre.ttf
1476072	WORD	wordpools/wasnorm_wordpool_less_exclusions.txt	LTP200	ltpFR	12	6	0	CUBE	420	n/a	0	n/a	0	0	0	0	0.5869140625	0.422607421875	upper	../fonts/zerothre.ttf
1480003	WORD	wordpools/wasnorm_wordpool_less_exclusions.txt	LTP200	ltpFR	12	6	1	SKATE	1313	n/a	0	n/a	0	0	0	1	0.412841796875	0.57763671875	lower	../fonts/amplitud.ttf
1483952	WORD	wordpools/wasnorm_wordpool_less_exclusions.txt	LTP200	ltpFR	12	6	1	SKI	1316	n/a	0	n/a	0	0	0	1	0.412841796875	0.57763671875	lower	../fonts/amplitud.ttf
1486969	START	n/a	LTP200	ltpFR	12	n/a	n/a	n/a	n/a	n/a	n/a	n/a	n/a	n/a	n/a	n/a	n/a	n/a	n/a	n/a
1487866	PROB	n/a	LTP200	ltpFR	12	n/a	n/a	n/a	n/a	n/a	n/a	22	7	7	8	n/a	n/a	n/a	n/a	n/a
1490799	PROB	n/a	LTP200	ltpFR	12	n/a	n/a	n/a	n/a	n/a	n/a	11	4	4	3	n/a	n/a	n/a	n/a	n/a
1494164	STOP	n/a	LTP200	ltpFR	12	n/a	n/a	n/a	n/a	n/a	n/a	n/a	n/a	n/a	n/a	n/a	n/a	n/a	n/a	n/a
1496750	REC_START	n/a	LTP200	ltpFR	12	6	n/a	n/a	n/a	n/a	n/a	n/a	0	0	0	n/a	n/a	n/a	n/a	n/a
1498166	REC_WORD	wordpools/wasnorm_wordpool_less_exclusions.txt	LTP200	ltpFR	12	6	1	SKI	1316	n/a	0	n/a	0	0	0	n/a	n/a	n/a	n/a	n/a
1499678	REC_WORD	wordpools/wasnorm_wordpool_less_exclusions.txt	LTP200	ltpFR	12	6	1	ESSAY	540	n/a	0	n/a	0	0	0	n/a	n/a	n/a	n/a	n/a
1500731	REC_WORD	wordpools/wasnorm_wordpool_less_exclusions.txt	LTP200	ltpFR	12	6	0	VALVE	1546	n/a	0	n/a	0	0	0	n/a	n/a	n/a	n/a	n/a
1501788	REC_WORD	wordpools/wasnorm_wordpool_less_exclusions.txt	LTP200	ltpFR	12	6	0	SWAN	1417	n/a	1	n/a	0	0	0	n/a	n/a	n/a	n/a	n/a
1503021	REC_WORD	wordpools/wasnorm_wordpool_less_exclusions.txt	LTP200	ltpFR	12	6	1	BRACELET	163	n/a	0	n/a	0	0	0	n/a	n/a	n/a	n/a	n/a
1504168	REC_WORD	wordpools/wasnorm_wordpool_less_exclusions.txt	LTP200	ltpFR	12	6	1	ARTIST	43	n/a	1	n/a	0	0	0	n/a	n/a	n/a	n/a	n/a
1506607	REC_WORD	wordpools/wasnorm_wordpool_less_exclusions.txt	LTP200	ltpFR	12	6	1	OUTFIT	988	n/a	0	n/a	0	0	0	n/a	n/a	n/a	n/a	n/a
1512858	REC_WORD	wordpools/wasnorm_wordpool_less_exclusions.txt	LTP200	ltpFR	12	6	1	SCROLL	1257	n/a	0	n/a	0	0	0	n/a	n/a	n/a	n/a	n/a
1524078	REC_WORD	wordpools/wasnorm_wordpool_less_exclusions.txt	LTP200	ltpFR	12	6	0	PISTON	1076	n/a	0	n/a	0	0	0	n/a	n/a	n/a	n/a	n/a
1525001	REC_WORD	wordpools/wasnorm_wordpool_less_exclusions.txt	LTP200	ltpFR	12	6	0	TANGERINE	1431	n/a	0	n/a	0	0	0	n/a	n/a	n/a	n/a	n/a
1526073	REC_WORD	wordpools/wasnorm_wordpool_less_exclusions.txt	LTP200	ltpFR	12	6	0	STRAWBERRY	1391	n/a	0	n/a	0	0	0	n/a	n/a	n/a	n/a	n/a
1527425	REC_WORD	wordpools/wasnorm_wordpool_less_exclusions.txt	LTP200	ltpFR	12	6	0	CANARY	227	n/a	0	n/a	0	0	0	n/a	n/a	n/a	n/a	n/a
1536100	REC_WORD	wordpools/wasnorm_wordpool_less_exclusions.txt	LTP200	ltpFR	12	6	1	SKI	1316	n/a	0	n/a	0	0	0	n/a	n/a	n/a	n/a	n/a
1595873	WORD	wordpools/wasnorm_wordpool_less_exclusions.txt	LTP200	ltpFR	12	7	1	MARSH	874	n/a	0	n/a	0	0	0	1	0.412841796875	0.57763671875	lower	../fonts/amplitud.ttf
1599793	WORD	wordpools/wasnorm_wordpool_less_exclusions.txt	LTP200	ltpFR	12	7	1	YOLK	1633	n/a	0	n/a	0	0	0	1	0.412841796875	0.57763671875	lower	../fonts/amplitud.ttf
1603954	WORD	wordpools/wasnorm_wordpool_less_exclusions.txt	LTP200	ltpFR	12	7	1	ACORN	3	n/a	0	n/a	0	0	0	1	0.412841796875	0.57763671875	lower	../fonts/amplitud.ttf
1607824	WORD	wordpools/wasnorm_wordpool_less_exclusions.txt	LTP200	ltpFR	12	7	1	BRAKE	166	n/a	0	n/a	0	0	0	1	0.412841796875	0.57763671875	lower	../fonts/amplitud.ttf
1612018	WORD	wordpools/wasnorm_wordpool_less_exclusions.txt	LTP200	ltpFR	12	7	1	MATTRESS	879	n/a	0	n/a	0	0	0	1	0.412841796875	0.57763671875	lower	../fonts/amplitud.ttf
1616039	WORD	wordpools/wasnorm_wordpool_less_exclusions.txt	LTP200	ltpFR	12	7	0	VINEGAR	1569	n/a	0	n/a	0	0	0	0	0.5869140625	0.422607421875	upper	../fonts/zerothre.ttf
1620205	WORD	wordpools/wasnorm_wordpool_less_exclusions.txt	LTP200	ltpFR	12	7	0	MECHANIC	884	n/a	1	n/a	0	0	0	0	0.5869140625	0.422607421875	upper	../fonts/zerothre.ttf
1624053	WORD	wordpools/wasnorm_wordpool_less_exclusions.txt	LTP200	ltpFR	12	7	1	FOREST	593	n/a	1	n/a	0	0	0	1	0.412841796875	0.57763671875	lower	../fonts/amplitud.ttf
1628252	WORD	wordpools/wasnorm_wordpool_less_exclusions.txt	LTP200	ltpFR	12	7	1	ROOM	1206	n/a	0	n/a	0	0	0	1	0.412841796875	0.57763671875	lower	../fonts/amplitud.ttf
1632116	WORD	wordpools/wasnorm_wordpool_less_exclusions.txt	LTP200	ltpFR	12	7	1	DOOR	486	n/a	0	n/a	0	0	0	1	0.412841796875	0.57763671875	lower	../fonts/amplitud.ttf
1636108	WORD	wordpools/wasnorm_wordpool_less_exclusions.txt	LTP200	ltpFR	12	7	0	ARMY	39	n/a	1	n/a	0	0	0	0	0.5869140625	0.422607421875	upper	../fonts/zerothre.ttf
1640080	WORD	wordpools/wasnorm_wordpool_less_exclusions.txt	LTP200	ltpFR	12	7	0	VETERAN	1561	n/a	1	n/a	0	0	0	0	0.5869140625	0.422607421875	upper	../fonts/zerothre.ttf
1643978	WORD	wordpools/wasnorm_wordpool_less_exclusions.txt	LTP200	ltpFR	12	7	0	SPINE	1353	n/a	1	n/a	0	0	0	0	0.5869140625	0.422607421875	upper	../fonts/zerothre.ttf
1647892	WORD	wordpools/wasnorm_wordpool_less_exclusions.txt	LTP200	ltpFR	12	7	0	SERVANT	1271	n/a	1	n/a	0	0	0	0	0.5869140625	0.422607421875	upper	../fonts/zerothre.ttf
1651756	WORD	wordpools/wasnorm_wordpool_less_exclusions.txt	LTP200	ltpFR	12	7	0	ROBIN	1199	n/a	0	n/a	0	0	0	0	0.5869140625	0.422607421875	upper	../fonts/zerothre.ttf
1655715	WORD	wordpools/wasnorm_wordpool_less_exclusions.txt	LTP200	ltpFR	12	7	0	SEAGULL	1261	n/a	0	n/a	0	0	0	0	0.5869140625	0.422607421875	upper	../fonts/zerothre.ttf
1658733	START	n/a	LTP200	ltpFR	12	n/a	n/a	n/a	n/a	n/a	n/a	n/a	n/a	n/a	n/a	n/a	n/a	n/a	n/a	n/a
1659803	PROB	n/a	LTP200	ltpFR	12	n/a	n/a	n/a	n/a	n/a	n/a	10	1	3	6	n/a	n/a	n/a	n/a	n/a
1661493	PROB	n/a	LTP200	ltpFR	12	n/a	n/a	n/a	n/a	n/a	n/a	13	3	3	7	n/a	n/a	n/a	n/a	n/a
1663110	PROB	n/a	LTP200	ltpFR	12	n/a	n/a	n/a	n/a	n/a	n/a	21	9	9	3	n/a	n/a	n/a	n/a	n/a
1664873	PROB	n/a	LTP200	ltpFR	12	n/a	n/a	n/a	n/a	n/a	n/a	16	5	3	8	n/a	n/a	n/a	n/a	n/a
1666823	PROB	n/a	LTP200	ltpFR	12	n/a	n/a	n/a	n/a	n/a	n/a	16	5	3	8	n/a	n/a	n/a	n/a	n/a
1668580	PROB	n/a	LTP200	ltpFR	12	n/a	n/a	n/a	n/a	n/a	n/a	6	1	1	4	n/a	n/a	n/a	n/a	n/a
1669791	PROB	n/a	LTP200	ltpFR	12	n/a	n/a	n/a	n/a	n/a	n/a	12	1	3	8	n/a	n/a	n/a	n/a	n/a
1671832	PROB	n/a	LTP200	ltpFR	12	n/a	n/a	n/a	n/a	n/a	n/a	9	6	1	2	n/a	n/a	n/a	n/a	n/a
1673284	STOP	n/a	LTP200	ltpFR	12	n/a	n/a	n/a	n/a	n/a	n/a	n/a	n/a	n/a	n/a	n/a	n/a	n/a	n/a	n/a
1676567	REC_START	n/a	LTP200	ltpFR	12	7	n/a	n/a	n/a	n/a	n/a	n/a	0	0	0	n/a	n/a	n/a	n/a	n/a
1678023	REC_WORD	wordpools/wasnorm_wordpool_less_exclusions.txt	LTP200	ltpFR	12	7	0	VETERAN	1561	n/a	1	n/a	0	0	0	n/a	n/a	n/a	n/a	n/a
1679316	REC_WORD	wordpools/wasnorm_wordpool_less_exclusions.txt	LTP200	ltpFR	12	7	0	ARMY	39	n/a	1	n/a	0	0	0	n/a	n/a	n/a	n/a	n/a
1680462	REC_WORD	wordpools/wasnorm_wordpool_less_exclusions.txt	LTP200	ltpFR	12	7	0	SPINE	1353	n/a	1	n/a	0	0	0	n/a	n/a	n/a	n/a	n/a
1681979	REC_WORD	wordpools/wasnorm_wordpool_less_exclusions.txt	LTP200	ltpFR	12	7	1	MARSH	874	n/a	0	n/a	0	0	0	n/a	n/a	n/a	n/a	n/a
1683296	REC_WORD	wordpools/wasnorm_wordpool_less_exclusions.txt	LTP200	ltpFR	12	7	0	SEAGULL	1261	n/a	0	n/a	0	0	0	n/a	n/a	n/a	n/a	n/a
1684683	REC_WORD	wordpools/wasnorm_wordpool_less_exclusions.txt	LTP200	ltpFR	12	7	1	MATTRESS	879	n/a	0	n/a	0	0	0	n/a	n/a	n/a	n/a	n/a
1685975	REC_WORD	wordpools/wasnorm_wordpool_less_exclusions.txt	LTP200	ltpFR	12	7	1	YOLK	1633	n/a	0	n/a	0	0	0	n/a	n/a	n/a	n/a	n/a
1687287	REC_WORD	wordpools/wasnorm_wordpool_less_exclusions.txt	LTP200	ltpFR	12	7	1	ACORN	3	n/a	0	n/a	0	0	0	n/a	n/a	n/a	n/a	n/a
1689567	REC_WORD	wordpools/wasnorm_wordpool_less_exclusions.txt	LTP200	ltpFR	12	7	0	MECHANIC	884	n/a	1	n/a	0	0	0	n/a	n/a	n/a	n/a	n/a
1775673	WORD	wordpools/wasnorm_wordpool_less_exclusions.txt	LTP200	ltpFR	12	8	1	SWAMP	1416	n/a	0	n/a	0	0	0	1	0.412841796875	0.57763671875	lower	../fonts/amplitud.ttf
1779504	WORD	wordpools/wasnorm_wordpool_less_exclusions.txt	LTP200	ltpFR	12	8	1	MACARONI	851	n/a	0	n/a	0	0	0	1	0.412841796875	0.57763671875	lower	../fonts/amplitud.ttf
1783553	WORD	wordpools/wasnorm_wordpool_less_exclusions.txt	LTP200	ltpFR	12	8	1	STONE	1385	n/a	0	n/a	0	0	0	1	0.412841796875	0.57763671875	lower	../fonts/amplitud.ttf
1787551	WORD	wordpools/wasnorm_wordpool_less_exclusions.txt	LTP200	ltpFR	12	8	1	HOSE	720	n/a	0	n/a	0	0	0	1	0.412841796875	0.57763671875	lower	../fonts/amplitud.ttf
1791727	WORD	wordpools/wasnorm_wordpool_less_exclusions.txt	LTP200	ltpFR	12	8	1	WOLF	1619	n/a	1	n/a	0	0	0	1	0.412841796875	0.57763671875	lower	../fonts/amplitud.ttf
1795615	WORD	wordpools/wasnorm_wordpool_less_exclusions.txt	LTP200	ltpFR	12	8	0	GUM	672	n/a	0	n/a	0	0	0	0	0.5869140625	0.422607421875	upper	../fonts/zerothre.ttf
1799456	WORD	wordpools/wasnorm_wordpool_less_exclusions.txt	LTP200	ltpFR	12	8	0	DISH	474	n/a	0	n/a	0	0	0	0	0.5869140625	0.422607421875	upper	../fonts/zerothre.ttf
1803378	WORD	wordpools/wasnorm_wordpool_less_exclusions.txt	LTP200	ltpFR	12	8	0	CHAUFFEUR	283	n/a	1	n/a	0	0	0	0	0.5869140625	0.422607421875	upper	../fonts/zerothre.ttf
1807354	WORD	wordpools/wasnorm_wordpool_less_exclusions.txt	LTP200	ltpFR	12	8	0	COYOTE	396	n/a	1	n/a	0	0	0	0	0.5869140625	0.422607421875	upper	../fonts/zerothre.ttf
1811441	WORD	wordpools/wasnorm_wordpool_less_exclusions.txt	LTP200	ltpFR	12	8	0	BARTENDER	92	n/a	1	n/a	0	0	0	0	0.5869140625	0.422607421875	upper	../fonts/zerothre.ttf
1815657	WORD	wordpools/wasnorm_wordpool_less_exclusions.txt	LTP200	ltpFR	12	8	0	COCKTAIL	338	n/a	0	n/a	0	0	0	0	0.5869140625	0.422607421875	upper	../fonts/zerothre.ttf
1819555	WORD	wordpools/wasnorm_wordpool_less_exclusions.txt	LTP200	ltpFR	12	8	1	TICK	1463	n/a	0	n/a	0	0	0	1	0.412841796875	0.57763671875	lower	../fonts/amplitud.ttf
1823687	WORD	wordpools/wasnorm_wordpool_less_exclusions.txt	LTP200	ltpFR	12	8	1	DOG	480	n/a	1	n/a	0	0	0	1	0.412841796875	0.57763671875	lower	../fonts/amplitud.ttf
1827753	WORD	wordpools/wasnorm_wordpool_less_exclusions.txt	LTP200	ltpFR	12	8	1	COTTAGE	384	n/a	0	n/a	0	0	0	1	0.412841796875	0.57763671875	lower	../fonts/amplitud.ttf
1831936	WORD	wordpools/wasnorm_wordpool_less_exclusions.txt	LTP200	ltpFR	12	8	0	WITNESS	1618	n/a	1	n/a	0	0	0	0	0.5869140625	0.422607421875	upper	../fonts/zerothre.ttf
1835766	WORD	wordpools/wasnorm_wordpool_less_exclusions.txt	LTP200	ltpFR	12	8	0	BUCKLE	185	n/a	0	n/a	0	0	0	0	0.5869140625	0.422607421875	upper	../fonts/zerothre.ttf
1841817	REC_START	n/a	LTP200	ltpFR	12	8	n/a	n/a	n/a	n/a	n/a	n/a	0	0	0	n/a	n/a	n/a	n/a	n/a
1843563	REC_WORD	wordpools/wasnorm_wordpool_less_exclusions.txt	LTP200	ltpFR	12	8	0	BUCKLE	185	n/a	0	n/a	0	0	0	n/a	n/a	n/a	n/a	n/a
1844500	REC_WORD	wordpools/wasnorm_wordpool_less_exclusions.txt	LTP200	ltpFR	12	8	1	SWAMP	1416	n/a	0	n/a	0	0	0	n/a	n/a	n/a	n/a	n/a
1845808	REC_WORD	wordpools/wasnorm_wordpool_less_exclusions.txt	LTP200	ltpFR	12	8	1	HOSE	720	n/a	0	n/a	0	0	0	n/a	n/a	n/a	n/a	n/a
1847130	REC_WORD	wordpools/wasnorm_wordpool_less_exclusions.txt	LTP200	ltpFR	12	8	1	WOLF	1619	n/a	1	n/a	0	0	0	n/a	n/a	n/a	n/a	n/a
1848332	REC_WORD	wordpools/wasnorm_wordpool_less_exclusions.txt	LTP200	ltpFR	12	8	0	COYOTE	396	n/a	1	n/a	0	0	0	n/a	n/a	n/a	n/a	n/a
1849699	REC_WORD	wordpools/wasnorm_wordpool_less_exclusions.txt	LTP200	ltpFR	12	8	0	CHAUFFEUR	283	n/a	1	n/a	0	0	0	n/a	n/a	n/a	n/a	n/a
1854802	REC_WORD	wordpools/wasnorm_wordpool_less_exclusions.txt	LTP200	ltpFR	12	8	1	TICK	1463	n/a	0	n/a	0	0	0	n/a	n/a	n/a	n/a	n/a
1856020	REC_WORD	wordpools/wasnorm_wordpool_less_exclusions.txt	LTP200	ltpFR	12	8	1	DOG	480	n/a	1	n/a	0	0	0	n/a	n/a	n/a	n/a	n/a
1863243	REC_WORD	wordpools/wasnorm_wordpool_less_exclusions.txt	LTP200	ltpFR	12	8	1	MACARONI	851	n/a	0	n/a	0	0	0	n/a	n/a	n/a	n/a	n/a
1864490	REC_WORD	wordpools/wasnorm_wordpool_less_exclusions.txt	LTP200	ltpFR	12	8	1	STONE	1385	n/a	0	n/a	0	0	0	n/a	n/a	n/a	n/a	n/a
1936680	START	n/a	LTP200	ltpFR	12	n/a	n/a	n/a	n/a	n/a	n/a	n/a	n/a	n/a	n/a	n/a	n/a	n/a	n/a	n/a
1938203	PROB	n/a	LTP200	ltpFR	12	n/a	n/a	n/a	n/a	n/a	n/a	21	9	7	5	n/a	n/a	n/a	n/a	n/a
1941175	PROB	n/a	LTP200	ltpFR	12	n/a	n/a	n/a	n/a	n/a	n/a	19	8	7	4	n/a	n/a	n/a	n/a	n/a
1944132	STOP	n/a	LTP200	ltpFR	12	n/a	n/a	n/a	n/a	n/a	n/a	n/a	n/a	n/a	n/a	n/a	n/a	n/a	n/a	n/a
1945580	WORD	wordpools/wasnorm_wordpool_less_exclusions.txt	LTP200	ltpFR	12	9	0	HERB	704	n/a	0	n/a	0	0	0	0	0.5869140625	0.422607421875	upper	../fonts/zerothre.ttf
1948592	START	n/a	LTP200	ltpFR	12	n/a	n/a	n/a	n/a	n/a	n/a	n/a	n/a	n/a	n/a	n/a	n/a	n/a	n/a	n/a
1949406	PROB	n/a	LTP200	ltpFR	12	n/a	n/a	n/a	n/a	n/a	n/a	9	2	1	6	n/a	n/a	n/a	n/a	n/a
1951736	PROB	n/a	LTP200	ltpFR	12	n/a	n/a	n/a	n/a	n/a	n/a	16	7	8	1	n/a	n/a	n/a	n/a	n/a
1954264	PROB	n/a	LTP200	ltpFR	12	n/a	n/a	n/a	n/a	n/a	n/a	13	3	1	9	n/a	n/a	n/a	n/a	n/a
1956140	STOP	n/a	LTP200	ltpFR	12	n/a	n/a	n/a	n/a	n/a	n/a	n/a	n/a	n/a	n/a	n/a	n/a	n/a	n/a	n/a
1957686	WORD	wordpools/wasnorm_wordpool_less_exclusions.txt	LTP200	ltpFR	12	9	0	RECEIPT	1173	n/a	0	n/a	0	0	0	0	0.5869140625	0.422607421875	upper	../fonts/zerothre.ttf
1960704	START	n/a	LTP200	ltpFR	12	n/a	n/a	n/a	n/a	n/a	n/a	n/a	n/a	n/a	n/a	n/a	n/a	n/a	n/a	n/a
1961835	PROB	n/a	LTP200	ltpFR	12	n/a	n/a	n/a	n/a	n/a	n/a	8	3	3	2	n/a	n/a	n/a	n/a	n/a
1963281	PROB	n/a	LTP200	ltpFR	12	n/a	n/a	n/a	n/a	n/a	n/a	13	1	4	8	n/a	n/a	n/a	n/a	n/a
1965549	PROB	n/a	LTP200	ltpFR	12	n/a	n/a	n/a	n/a	n/a	n/a	20	6	8	6	n/a	n/a	n/a	n/a	n/a
1967723	STOP	n/a	LTP200	ltpFR	12	n/a	n/a	n/a	n/a	n/a	n/a	n/a	n/a	n/a	n/a	n/a	n/a	n/a	n/a	n/a
1969754	WORD	wordpools/wasnorm_wordpool_less_exclusions.txt	LTP200	ltpFR	12	9	0	GATE	625	n/a	1	n/a	0	0	0	0	0.5869140625	0.422607421875	upper	../fonts/zerothre.ttf
1972766	START	n/a	LTP200	ltpFR	12	n/a	n/a	n/a	n/a	n/a	n/a	n/a	n/a	n/a	n/a	n/a	n/a	n/a	n/a	n/a
1973713	PROB	n/a	LTP200	ltpFR	12	n/a	n/a	n/a	n/a	n/a	n/a	19	9	7	3	n/a	n/a	n/a	n/a	n/a
1975560	PROB	n/a	LTP200	ltpFR	12	n/a	n/a	n/a	n/a	n/a	n/a	16	2	7	7	n/a	n/a	n/a	n/a	n/a
1978565	PROB	n/a	LTP200	ltpFR	12	n/a	n/a	n/a	n/a	n/a	n/a	9	1	6	2	n/a	n/a	n/a	n/a	n/a
1980603	STOP	n/a	LTP200	ltpFR	12	n/a	n/a	n/a	n/a	n/a	n/a	n/a	n/a	n/a	n/a	n/a	n/a	n/a	n/a	n/a
1981851	WORD	wordpools/wasnorm_wordpool_less_exclusions.txt	LTP200	ltpFR	12	9	0	RAIL	1161	n/a	1	n/a	0	0	0	0	0.5869140625	0.422607421875	upper	../fonts/zerothre.ttf
1984863	START	n/a	LTP200	ltpFR	12	n/a	n/a	n/a	n/a	n/a	n/a	n/a	n/a	n/a	n/a	n/a	n/a	n/a	n/a	n/a
1985708	PROB	n/a	LTP200	ltpFR	12	n/a	n/a	n/a	n/a	n/a	n/a	14	6	5	3	n/a	n/a	n/a	n/a	n/a
1987732	PROB	n/a	LTP200	ltpFR	12	n/a	n/a	n/a	n/a	n/a	n/a	14	4	4	6	n/a	n/a	n/a	n/a	n/a
1989589	PROB	n/a	LTP200	ltpFR	12	n/a	n/a	n/a	n/a	n/a	n/a	25	8	8	9	n/a	n/a	n/a	n/a	n/a
1992563	STOP	n/a	LTP200	ltpFR	12	n/a	n/a	n/a	n/a	n/a	n/a	n/a	n/a	n/a	n/a	n/a	n/a	n/a	n/a	n/a
1993963	WORD	wordpools/wasnorm_wordpool_less_exclusions.txt	LTP200	ltpFR	12	9	0	SKIRT	1319	n/a	0	n/a	0	0	0	0	0.5869140625	0.422607421875	upper	../fonts/zerothre.ttf
1996975	START	n/a	LTP200	ltpFR	12	n/a	n/a	n/a	n/a	n/a	n/a	n/a	n/a	n/a	n/a	n/a	n/a	n/a	n/a	n/a
1998089	PROB	n/a	LTP200	ltpFR	12	n/a	n/a	n/a	n/a	n/a	n/a	17	5	3	9	n/a	n/a	n/a	n/a	n/a
1999946	PROB	n/a	LTP200	ltpFR	12	n/a	n/a	n/a	n/a	n/a	n/a	18	3	8	7	n/a	n/a	n/a	n/a	n/a
2004974	STOP	n/a	LTP200	ltpFR	12	n/a	n/a	n/a	n/a	n/a	n/a	n/a	n/a	n/a	n/a	n/a	n/a	n/a	n/a	n/a
2006059	WORD	wordpools/wasnorm_wordpool_less_exclusions.txt	LTP200	ltpFR	12	9	0	FRUIT	610	n/a	0	n/a	0	0	0	0	0.5869140625	0.422607421875	upper	../fonts/zerothre.ttf
2009071	START	n/a	LTP200	ltpFR	12	n/a	n/a	n/a	n/a	n/a	n/a	n/a	n/a	n/a	n/a	n/a	n/a	n/a	n/a	n/a
2010235	PROB	n/a	LTP200	ltpFR	12	n/a	n/a	n/a	n/a	n/a	n/a	17	8	3	6	n/a	n/a	n/a	n/a	n/a
2014033	PROB	n/a	LTP200	ltpFR	12	n/a	n/a	n/a	n/a	n/a	n/a	23	5	9	9	n/a	n/a	n/a	n/a	n/a
2015900	STOP	n/a	LTP200	ltpFR	12	n/a	n/a	n/a	n/a	n/a	n/a	n/a	n/a	n/a	n/a	n/a	n/a	n/a	n/a	n/a
2018265	WORD	wordpools/wasnorm_wordpool_less_exclusions.txt	LTP200	ltpFR	12	9	0	BLOUSE	139	n/a	0	n/a	0	0	0	0	0.5869140625	0.422607421875	upper	../fonts/zerothre.ttf
2021283	START	n/a	LTP200	ltpFR	12	n/a	n/a	n/a	n/a	n/a	n/a	n/a	n/a	n/a	n/a	n/a	n/a	n/a	n/a	n/a
2022220	PROB	n/a	LTP200	ltpFR	12	n/a	n/a	n/a	n/a	n/a	n/a	10	6	2	2	n/a	n/a	n/a	n/a	n/a
2023903	PROB	n/a	LTP200	ltpFR	12	n/a	n/a	n/a	n/a	n/a	n/a	13	5	4	4	n/a	n/a	n/a	n/a	n/a
2026078	PROB	n/a	LTP200	ltpFR	12	n/a	n/a	n/a	n/a	n/a	n/a	6	4	1	1	n/a	n/a	n/a	n/a	n/a
2027707	STOP	n/a	LTP200	ltpFR	12	n/a	n/a	n/a	n/a	n/a	n/a	n/a	n/a	n/a	n/a	n/a	n/a	n/a	n/a	n/a
2030300	WORD	wordpools/wasnorm_wordpool_less_exclusions.txt	LTP200	ltpFR	12	9	0	KETCHUP	771	n/a	0	n/a	0	0	0	0	0.5869140625	0.422607421875	upper	../fonts/zerothre.ttf
2033312	START	n/a	LTP200	ltpFR	12	n/a	n/a	n/a	n/a	n/a	n/a	n/a	n/a	n/a	n/a	n/a	n/a	n/a	n/a	n/a
2034209	PROB	n/a	LTP200	ltpFR	12	n/a	n/a	n/a	n/a	n/a	n/a	17	2	8	7	n/a	n/a	n/a	n/a	n/a
2036066	PROB	n/a	LTP200	ltpFR	12	n/a	n/a	n/a	n/a	n/a	n/a	8	1	6	1	n/a	n/a	n/a	n/a	n/a
2037862	PROB	n/a	LTP200	ltpFR	12	n/a	n/a	n/a	n/a	n/a	n/a	15	3	5	7	n/a	n/a	n/a	n/a	n/a
2041311	STOP	n/a	LTP200	ltpFR	12	n/a	n/a	n/a	n/a	n/a	n/a	n/a	n/a	n/a	n/a	n/a	n/a	n/a	n/a	n/a
2042212	WORD	wordpools/wasnorm_wordpool_less_exclusions.txt	LTP200	ltpFR	12	9	0	SHOP	1290	n/a	1	n/a	0	0	0	0	0.5869140625	0.422607421875	upper	../fonts/zerothre.ttf
2045224	START	n/a	LTP200	ltpFR	12	n/a	n/a	n/a	n/a	n/a	n/a	n/a	n/a	n/a	n/a	n/a	n/a	n/a	n/a	n/a
2046271	PROB	n/a	LTP200	ltpFR	12	n/a	n/a	n/a	n/a	n/a	n/a	14	4	3	7	n/a	n/a	n/a	n/a	n/a
2048278	PROB	n/a	LTP200	ltpFR	12	n/a	n/a	n/a	n/a	n/a	n/a	21	9	4	8	n/a	n/a	n/a	n/a	n/a
2050085	PROB	n/a	LTP200	ltpFR	12	n/a	n/a	n/a	n/a	n/a	n/a	20	6	9	5	n/a	n/a	n/a	n/a	n/a
2051763	STOP	n/a	LTP200	ltpFR	12	n/a	n/a	n/a	n/a	n/a	n/a	n/a	n/a	n/a	n/a	n/a	n/a	n/a	n/a	n/a
2054334	WORD	wordpools/wasnorm_wordpool_less_exclusions.txt	LTP200	ltpFR	12	9	0	SPRINKLE	1359	n/a	0	n/a	0	0	0	0	0.5869140625	0.422607421875	upper	../fonts/zerothre.ttf
2057346	START	n/a	LTP200	ltpFR	12	n/a	n/a	n/a	n/a	n/a	n/a	n/a	n/a	n/a	n/a	n/a	n/a	n/a	n/a	n/a
2058505	PROB	n/a	LTP200	ltpFR	12	n/a	n/a	n/a	n/a	n/a	n/a	18	8	9	1	n/a	n/a	n/a	n/a	n/a
2059922	PROB	n/a	LTP200	ltpFR	12	n/a	n/a	n/a	n/a	n/a	n/a	18	4	8	6	n/a	n/a	n/a	n/a	n/a
2062381	PROB	n/a	LTP200	ltpFR	12	n/a	n/a	n/a	n/a	n/a	n/a	1	2	7	4	n/a	n/a	n/a	n/a	n/a
2064420	STOP	n/a	LTP200	ltpFR	12	n/a	n/a	n/a	n/a	n/a	n/a	n/a	n/a	n/a	n/a	n/a	n/a	n/a	n/a	n/a
2066196	WORD	wordpools/wasnorm_wordpool_less_exclusions.txt	LTP200	ltpFR	12	9	0	FAUCET	555	n/a	0	n/a	0	0	0	0	0.5869140625	0.422607421875	upper	../fonts/zerothre.ttf
2069208	START	n/a	LTP200	ltpFR	12	n/a	n/a	n/a	n/a	n/a	n/a	n/a	n/a	n/a	n/a	n/a	n/a	n/a	n/a	n/a
2070100	PROB	n/a	LTP200	ltpFR	12	n/a	n/a	n/a	n/a	n/a	n/a	9	1	7	1	n/a	n/a	n/a	n/a	n/a
2071437	PROB	n/a	LTP200	ltpFR	12	n/a	n/a	n/a	n/a	n/a	n/a	13	5	4	4	n/a	n/a	n/a	n/a	n/a
2073445	PROB	n/a	LTP200	ltpFR	12	n/a	n/a	n/a	n/a	n/a	n/a	17	8	2	7	n/a	n/a	n/a	n/a	n/a
2074851	PROB	n/a	LTP200	ltpFR	12	n/a	n/a	n/a	n/a	n/a	n/a	11	5	3	3	n/a	n/a	n/a	n/a	n/a
2076356	STOP	n/a	LTP200	ltpFR	12	n/a	n/a	n/a	n/a	n/a	n/a	n/a	n/a	n/a	n/a	n/a	n/a	n/a	n/a	n/a
2078097	WORD	wordpools/wasnorm_wordpool_less_exclusions.txt	LTP200	ltpFR	12	9	0	BATH	98	n/a	1	n/a	0	0	0	0	0.5869140625	0.422607421875	upper	../fonts/zerothre.ttf
2081109	START	n/a	LTP200	ltpFR	12	n/a	n/a	n/a	n/a	n/a	n/a	n/a	n/a	n/a	n/a	n/a	n/a	n/a	n/a	n/a
2082079	PROB	n/a	LTP200	ltpFR	12	n/a	n/a	n/a	n/a	n/a	n/a	18	3	9	6	n/a	n/a	n/a	n/a	n/a
2083902	PROB	n/a	LTP200	ltpFR	12	n/a	n/a	n/a	n/a	n/a	n/a	23	9	6	8	n/a	n/a	n/a	n/a	n/a
2085887	PROB	n/a	LTP200	ltpFR	12	n/a	n/a	n/a	n/a	n/a	n/a	16	1	6	9	n/a	n/a	n/a	n/a	n/a
2087565	PROB	n/a	LTP200	ltpFR	12	n/a	n/a	n/a	n/a	n/a	n/a	20	7	7	6	n/a	n/a	n/a	n/a	n/a
2088940	STOP	n/a	LTP200	ltpFR	12	n/a	n/a	n/a	n/a	n/a	n/a	n/a	n/a	n/a	n/a	n/a	n/a	n/a	n/a	n/a
2089992	WORD	wordpools/wasnorm_wordpool_less_exclusions.txt	LTP200	ltpFR	12	9	0	CASHIER	254	n/a	1	n/a	0	0	0	0	0.5869140625	0.422607421875	upper	../fonts/zerothre.ttf
2093004	START	n/a	LTP200	ltpFR	12	n/a	n/a	n/a	n/a	n/a	n/a	n/a	n/a	n/a	n/a	n/a	n/a	n/a	n/a	n/a
2094218	PROB	n/a	LTP200	ltpFR	12	n/a	n/a	n/a	n/a	n/a	n/a	9	3	2	4	n/a	n/a	n/a	n/a	n/a
2095773	PROB	n/a	LTP200	ltpFR	12	n/a	n/a	n/a	n/a	n/a	n/a	10	2	6	2	n/a	n/a	n/a	n/a	n/a
2097999	PROB	n/a	LTP200	ltpFR	12	n/a	n/a	n/a	n/a	n/a	n/a	13	3	5	5	n/a	n/a	n/a	n/a	n/a
2099499	STOP	n/a	LTP200	ltpFR	12	n/a	n/a	n/a	n/a	n/a	n/a	n/a	n/a	n/a	n/a	n/a	n/a	n/a	n/a	n/a
2101920	WORD	wordpools/wasnorm_wordpool_less_exclusions.txt	LTP200	ltpFR	12	9	0	BILL	126	n/a	0	n/a	0	0	0	0	0.5869140625	0.422607421875	upper	../fonts/zerothre.ttf
2104932	START	n/a	LTP200	ltpFR	12	n/a	n/a	n/a	n/a	n/a	n/a	n/a	n/a	n/a	n/a	n/a	n/a	n/a	n/a	n/a
2106102	PROB	n/a	LTP200	ltpFR	12	n/a	n/a	n/a	n/a	n/a	n/a	20	9	8	3	n/a	n/a	n/a	n/a	n/a
2112916	STOP	n/a	LTP200	ltpFR	12	n/a	n/a	n/a	n/a	n/a	n/a	n/a	n/a	n/a	n/a	n/a	n/a	n/a	n/a	n/a
2113824	WORD	wordpools/wasnorm_wordpool_less_exclusions.txt	LTP200	ltpFR	12	9	0	PUPPY	1144	n/a	1	n/a	0	0	0	0	0.5869140625	0.422607421875	upper	../fonts/zerothre.ttf
2116836	START	n/a	LTP200	ltpFR	12	n/a	n/a	n/a	n/a	n/a	n/a	n/a	n/a	n/a	n/a	n/a	n/a	n/a	n/a	n/a
2117840	PROB	n/a	LTP200	ltpFR	12	n/a	n/a	n/a	n/a	n/a	n/a	16	9	1	6	n/a	n/a	n/a	n/a	n/a
2119462	PROB	n/a	LTP200	ltpFR	12	n/a	n/a	n/a	n/a	n/a	n/a	13	3	7	3	n/a	n/a	n/a	n/a	n/a
2121303	PROB	n/a	LTP200	ltpFR	12	n/a	n/a	n/a	n/a	n/a	n/a	7	2	3	2	n/a	n/a	n/a	n/a	n/a
2123747	STOP	n/a	LTP200	ltpFR	12	n/a	n/a	n/a	n/a	n/a	n/a	n/a	n/a	n/a	n/a	n/a	n/a	n/a	n/a	n/a
2126044	WORD	wordpools/wasnorm_wordpool_less_exclusions.txt	LTP200	ltpFR	12	9	0	PUMPKIN	1142	n/a	1	n/a	0	0	0	0	0.5869140625	0.422607421875	upper	../fonts/zerothre.ttf
2129056	START	n/a	LTP200	ltpFR	12	n/a	n/a	n/a	n/a	n/a	n/a	n/a	n/a	n/a	n/a	n/a	n/a	n/a	n/a	n/a
2129959	PROB	n/a	LTP200	ltpFR	12	n/a	n/a	n/a	n/a	n/a	n/a	7	2	4	1	n/a	n/a	n/a	n/a	n/a
2131782	PROB	n/a	LTP200	ltpFR	12	n/a	n/a	n/a	n/a	n/a	n/a	13	7	3	3	n/a	n/a	n/a	n/a	n/a
2133766	PROB	n/a	LTP200	ltpFR	12	n/a	n/a	n/a	n/a	n/a	n/a	9	2	2	5	n/a	n/a	n/a	n/a	n/a
2137056	STOP	n/a	LTP200	ltpFR	12	n/a	n/a	n/a	n/a	n/a	n/a	n/a	n/a	n/a	n/a	n/a	n/a	n/a	n/a	n/a
2138977	REC_START	n/a	LTP200	ltpFR	12	9	n/a	n/a	n/a	n/a	n/a	n/a	0	0	0	n/a	n/a	n/a	n/a	n/a
2140349	REC_WORD	wordpools/wasnorm_wordpool_less_exclusions.txt	LTP200	ltpFR	12	9	0	PUPPY	1144	n/a	1	n/a	0	0	0	n/a	n/a	n/a	n/a	n/a
2141506	REC_WORD	wordpools/wasnorm_wordpool_less_exclusions.txt	LTP200	ltpFR	12	9	0	PUMPKIN	1142	n/a	1	n/a	0	0	0	n/a	n/a	n/a	n/a	n/a
2142613	REC_WORD	wordpools/wasnorm_wordpool_less_exclusions.txt	LTP200	ltpFR	12	9	0	FRUIT	610	n/a	0	n/a	0	0	0	n/a	n/a	n/a	n/a	n/a
2143921	REC_WORD	wordpools/wasnorm_wordpool_less_exclusions.txt	LTP200	ltpFR	12	9	0	KETCHUP	771	n/a	0	n/a	0	0	0	n/a	n/a	n/a	n/a	n/a
2145113	REC_WORD	wordpools/wasnorm_wordpool_less_exclusions.txt	LTP200	ltpFR	12	9	0	RECEIPT	1173	n/a	0	n/a	0	0	0	n/a	n/a	n/a	n/a	n/a
2146499	REC_WORD	wordpools/wasnorm_wordpool_less_exclusions.txt	LTP200	ltpFR	12	9	0	SPRINKLE	1359	n/a	0	n/a	0	0	0	n/a	n/a	n/a	n/a	n/a
2147796	REC_WORD	wordpools/wasnorm_wordpool_less_exclusions.txt	LTP200	ltpFR	12	9	0	FAUCET	555	n/a	0	n/a	0	0	0	n/a	n/a	n/a	n/a	n/a
2149104	REC_WORD	wordpools/wasnorm_wordpool_less_exclusions.txt	LTP200	ltpFR	12	9	0	BATH	98	n/a	1	n/a	0	0	0	n/a	n/a	n/a	n/a	n/a
2162304	REC_WORD	wordpools/wasnorm_wordpool_less_exclusions.txt	LTP200	ltpFR	12	9	0	HERB	704	n/a	0	n/a	0	0	0	n/a	n/a	n/a	n/a	n/a
2228139	WORD	wordpools/wasnorm_wordpool_less_exclusions.txt	LTP200	ltpFR	12	10	0	LAGOON	795	n/a	1	n/a	0	0	0	0	0.5869140625	0.422607421875	upper	../fonts/zerothre.ttf
2232021	WORD	wordpools/wasnorm_wordpool_less_exclusions.txt	LTP200	ltpFR	12	10	0	SNORKEL	1336	n/a	0	n/a	0	0	0	0	0.5869140625	0.422607421875	upper	../fonts/zerothre.ttf
2236170	WORD	wordpools/wasnorm_wordpool_less_exclusions.txt	LTP200	ltpFR	12	10	0	SEAL	1262	n/a	1	n/a	0	0	0	0	0.5869140625	0.422607421875	upper	../fonts/zerothre.ttf
2240107	WORD	wordpools/wasnorm_wordpool_less_exclusions.txt	LTP200	ltpFR	12	10	0	VAMPIRE	1547	n/a	1	n/a	0	0	0	0	0.5869140625	0.422607421875	upper	../fonts/zerothre.ttf
2244039	WORD	wordpools/wasnorm_wordpool_less_exclusions.txt	LTP200	ltpFR	12	10	0	WRENCH	1625	n/a	0	n/a	0	0	0	0	0.5869140625	0.422607421875	upper	../fonts/zerothre.ttf
2247964	WORD	wordpools/wasnorm_wordpool_less_exclusions.txt	LTP200	ltpFR	12	10	0	CATCHER	258	n/a	1	n/a	0	0	0	0	0.5869140625	0.422607421875	upper	../fonts/zerothre.ttf
2252096	WORD	wordpools/wasnorm_wordpool_less_exclusions.txt	LTP200	ltpFR	12	10	0	FARM	552	n/a	1	n/a	0	0	0	0	0.5869140625	0.422607421875	upper	../fonts/zerothre.ttf
2256312	WORD	wordpools/wasnorm_wordpool_less_exclusions.txt	LTP200	ltpFR	12	10	0	CHAIN	273	n/a	0	n/a	0	0	0	0	0.5869140625	0.422607421875	upper	../fonts/zerothre.ttf
2260150	WORD	wordpools/wasnorm_wordpool_less_exclusions.txt	LTP200	ltpFR	12	10	0	FOUNTAIN	597	n/a	1	n/a	0	0	0	0	0.5869140625	0.422607421875	upper	../fonts/zerothre.ttf
2264366	WORD	wordpools/wasnorm_wordpool_less_exclusions.txt	LTP200	ltpFR	12	10	0	SOFTBALL	1343	n/a	0	n/a	0	0	0	0	0.5869140625	0.422607421875	upper	../fonts/zerothre.ttf
2268364	WORD	wordpools/wasnorm_wordpool_less_exclusions.txt	LTP200	ltpFR	12	10	0	TOILET	1475	n/a	1	n/a	0	0	0	0	0.5869140625	0.422607421875	upper	../fonts/zerothre.ttf
2272346	WORD	wordpools/wasnorm_wordpool_less_exclusions.txt	LTP200	ltpFR	12	10	0	STAKE	1368	n/a	0	n/a	0	0	0	0	0.5869140625	0.422607421875	upper	../fonts/zerothre.ttf
2276193	WORD	wordpools/wasnorm_wordpool_less_exclusions.txt	LTP200	ltpFR	12	10	0	DRIVER	499	n/a	1	n/a	0	0	0	0	0.5869140625	0.422607421875	upper	../fonts/zerothre.ttf
2280175	WORD	wordpools/wasnorm_wordpool_less_exclusions.txt	LTP200	ltpFR	12	10	0	PASSENGER	1020	n/a	1	n/a	0	0	0	0	0.5869140625	0.422607421875	upper	../fonts/zerothre.ttf
2284391	WORD	wordpools/wasnorm_wordpool_less_exclusions.txt	LTP200	ltpFR	12	10	0	COMPASS	358	n/a	0	n/a	0	0	0	0	0.5869140625	0.422607421875	upper	../fonts/zerothre.ttf
2288222	WORD	wordpools/wasnorm_wordpool_less_exclusions.txt	LTP200	ltpFR	12	10	0	AFRICA	9	n/a	1	n/a	0	0	0	0	0.5869140625	0.422607421875	upper	../fonts/zerothre.ttf
2291234	START	n/a	LTP200	ltpFR	12	n/a	n/a	n/a	n/a	n/a	n/a	n/a	n/a	n/a	n/a	n/a	n/a	n/a	n/a	n/a
2292432	PROB	n/a	LTP200	ltpFR	12	n/a	n/a	n/a	n/a	n/a	n/a	13	5	3	5	n/a	n/a	n/a	n/a	n/a
2294138	PROB	n/a	LTP200	ltpFR	12	n/a	n/a	n/a	n/a	n/a	n/a	15	4	6	5	n/a	n/a	n/a	n/a	n/a
2295559	PROB	n/a	LTP200	ltpFR	12	n/a	n/a	n/a	n/a	n/a	n/a	14	4	5	5	n/a	n/a	n/a	n/a	n/a
2297267	PROB	n/a	LTP200	ltpFR	12	n/a	n/a	n/a	n/a	n/a	n/a	22	9	9	4	n/a	n/a	n/a	n/a	n/a
2300027	PROB	n/a	LTP200	ltpFR	12	n/a	n/a	n/a	n/a	n/a	n/a	14	2	6	6	n/a	n/a	n/a	n/a	n/a
2302168	PROB	n/a	LTP200	ltpFR	12	n/a	n/a	n/a	n/a	n/a	n/a	14	5	8	1	n/a	n/a	n/a	n/a	n/a
2303730	PROB	n/a	LTP200	ltpFR	12	n/a	n/a	n/a	n/a	n/a	n/a	12	2	9	1	n/a	n/a	n/a	n/a	n/a
2307234	STOP	n/a	LTP200	ltpFR	12	n/a	n/a	n/a	n/a	n/a	n/a	n/a	n/a	n/a	n/a	n/a	n/a	n/a	n/a	n/a
2308995	REC_START	n/a	LTP200	ltpFR	12	10	n/a	n/a	n/a	n/a	n/a	n/a	0	0	0	n/a	n/a	n/a	n/a	n/a
2309968	REC_WORD	wordpools/wasnorm_wordpool_less_exclusions.txt	LTP200	ltpFR	12	10	0	DRIVER	499	n/a	1	n/a	0	0	0	n/a	n/a	n/a	n/a	n/a
2311000	REC_WORD	wordpools/wasnorm_wordpool_less_exclusions.txt	LTP200	ltpFR	12	10	0	PASSENGER	1020	n/a	1	n/a	0	0	0	n/a	n/a	n/a	n/a	n/a
2312118	REC_WORD	wordpools/wasnorm_wordpool_less_exclusions.txt	LTP200	ltpFR	12	10	0	COMPASS	358	n/a	0	n/a	0	0	0	n/a	n/a	n/a	n/a	n/a
2313480	REC_WORD	wordpools/wasnorm_wordpool_less_exclusions.txt	LTP200	ltpFR	12	10	0	LAGOON	795	n/a	1	n/a	0	0	0	n/a	n/a	n/a	n/a	n/a
2314567	REC_WORD	wordpools/wasnorm_wordpool_less_exclusions.txt	LTP200	ltpFR	12	10	0	SNORKEL	1336	n/a	0	n/a	0	0	0	n/a	n/a	n/a	n/a	n/a
2315789	REC_WORD	wordpools/wasnorm_wordpool_less_exclusions.txt	LTP200	ltpFR	12	10	0	SEAL	1262	n/a	1	n/a	0	0	0	n/a	n/a	n/a	n/a	n/a
2317141	REC_WORD	wordpools/wasnorm_wordpool_less_exclusions.txt	LTP200	ltpFR	12	10	0	VAMPIRE	1547	n/a	1	n/a	0	0	0	n/a	n/a	n/a	n/a	n/a
2318423	REC_WORD	wordpools/wasnorm_wordpool_less_exclusions.txt	LTP200	ltpFR	12	10	0	FARM	552	n/a	1	n/a	0	0	0	n/a	n/a	n/a	n/a	n/a
2319556	REC_WORD	wordpools/wasnorm_wordpool_less_exclusions.txt	LTP200	ltpFR	12	10	0	CHAIN	273	n/a	0	n/a	0	0	0	n/a	n/a	n/a	n/a	n/a
2320763	REC_WORD	wordpools/wasnorm_wordpool_less_exclusions.txt	LTP200	ltpFR	12	10	0	CATCHER	258	n/a	1	n/a	0	0	0	n/a	n/a	n/a	n/a	n/a
2322015	REC_WORD	wordpools/wasnorm_wordpool_less_exclusions.txt	LTP200	ltpFR	12	10	0	TOILET	1475	n/a	1	n/a	0	0	0	n/a	n/a	n/a	n/a	n/a
2323257	REC_WORD	wordpools/wasnorm_wordpool_less_exclusions.txt	LTP200	ltpFR	12	10	0	SOFTBALL	1343	n/a	0	n/a	0	0	0	n/a	n/a	n/a	n/a	n/a
2324704	REC_WORD	wordpools/wasnorm_wordpool_less_exclusions.txt	LTP200	ltpFR	12	10	0	WRENCH	1625	n/a	0	n/a	0	0	0	n/a	n/a	n/a	n/a	n/a
2330735	REC_WORD	wordpools/wasnorm_wordpool_less_exclusions.txt	LTP200	ltpFR	12	10	0	AFRICA	9	n/a	1	n/a	0	0	0	n/a	n/a	n/a	n/a	n/a
2384618	REST_REWET	n/a	LTP200	ltpFR	12	10	n/a	n/a	n/a	n/a	n/a	n/a	0	0	0	n/a	n/a	n/a	n/a	n/a
2736177	START	n/a	LTP200	ltpFR	12	n/a	n/a	n/a	n/a	n/a	n/a	n/a	n/a	n/a	n/a	n/a	n/a	n/a	n/a	n/a
2737692	PROB	n/a	LTP200	ltpFR	12	n/a	n/a	n/a	n/a	n/a	n/a	10	1	4	5	n/a	n/a	n/a	n/a	n/a
2739582	PROB	n/a	LTP200	ltpFR	12	n/a	n/a	n/a	n/a	n/a	n/a	19	9	2	8	n/a	n/a	n/a	n/a	n/a
2741374	PROB	n/a	LTP200	ltpFR	12	n/a	n/a	n/a	n/a	n/a	n/a	13	2	9	2	n/a	n/a	n/a	n/a	n/a
2743415	PROB	n/a	LTP200	ltpFR	12	n/a	n/a	n/a	n/a	n/a	n/a	8	5	2	1	n/a	n/a	n/a	n/a	n/a
2744870	PROB	n/a	LTP200	ltpFR	12	n/a	n/a	n/a	n/a	n/a	n/a	18	4	6	8	n/a	n/a	n/a	n/a	n/a
2746359	PROB	n/a	LTP200	ltpFR	12	n/a	n/a	n/a	n/a	n/a	n/a	14	5	1	8	n/a	n/a	n/a	n/a	n/a
2748249	PROB	n/a	LTP200	ltpFR	12	n/a	n/a	n/a	n/a	n/a	n/a	14	3	8	3	n/a	n/a	n/a	n/a	n/a
2749996	PROB	n/a	LTP200	ltpFR	12	n/a	n/a	n/a	n/a	n/a	n/a	23	5	9	9	n/a	n/a	n/a	n/a	n/a
2751523	STOP	n/a	LTP200	ltpFR	12	n/a	n/a	n/a	n/a	n/a	n/a	n/a	n/a	n/a	n/a	n/a	n/a	n/a	n/a	n/a
2753218	WORD	wordpools/wasnorm_wordpool_less_exclusions.txt	LTP200	ltpFR	12	11	0	BIRD	129	n/a	0	n/a	0	0	0	0	0.5869140625	0.422607421875	upper	../fonts/zerothre.ttf
2756230	START	n/a	LTP200	ltpFR	12	n/a	n/a	n/a	n/a	n/a	n/a	n/a	n/a	n/a	n/a	n/a	n/a	n/a	n/a	n/a
2757150	PROB	n/a	LTP200	ltpFR	12	n/a	n/a	n/a	n/a	n/a	n/a	13	3	5	5	n/a	n/a	n/a	n/a	n/a
2758846	PROB	n/a	LTP200	ltpFR	12	n/a	n/a	n/a	n/a	n/a	n/a	14	3	9	2	n/a	n/a	n/a	n/a	n/a
2761416	PROB	n/a	LTP200	ltpFR	12	n/a	n/a	n/a	n/a	n/a	n/a	27	9	9	9	n/a	n/a	n/a	n/a	n/a
2762837	PROB	n/a	LTP200	ltpFR	12	n/a	n/a	n/a	n/a	n/a	n/a	21	9	8	4	n/a	n/a	n/a	n/a	n/a
2765180	PROB	n/a	LTP200	ltpFR	12	n/a	n/a	n/a	n/a	n/a	n/a	21	8	5	8	n/a	n/a	n/a	n/a	n/a
2767160	PROB	n/a	LTP200	ltpFR	12	n/a	n/a	n/a	n/a	n/a	n/a	12	6	2	4	n/a	n/a	n/a	n/a	n/a
2769904	PROB	n/a	LTP200	ltpFR	12	n/a	n/a	n/a	n/a	n/a	n/a	14	5	3	6	n/a	n/a	n/a	n/a	n/a
2771435	STOP	n/a	LTP200	ltpFR	12	n/a	n/a	n/a	n/a	n/a	n/a	n/a	n/a	n/a	n/a	n/a	n/a	n/a	n/a	n/a
2773417	WORD	wordpools/wasnorm_wordpool_less_exclusions.txt	LTP200	ltpFR	12	11	0	CAMERA	224	n/a	0	n/a	0	0	0	0	0.5869140625	0.422607421875	upper	../fonts/zerothre.ttf
2776429	START	n/a	LTP200	ltpFR	12	n/a	n/a	n/a	n/a	n/a	n/a	n/a	n/a	n/a	n/a	n/a	n/a	n/a	n/a	n/a
2777548	PROB	n/a	LTP200	ltpFR	12	n/a	n/a	n/a	n/a	n/a	n/a	18	4	8	6	n/a	n/a	n/a	n/a	n/a
2780170	PROB	n/a	LTP200	ltpFR	12	n/a	n/a	n/a	n/a	n/a	n/a	20	9	5	6	n/a	n/a	n/a	n/a	n/a
2782328	PROB	n/a	LTP200	ltpFR	12	n/a	n/a	n/a	n/a	n/a	n/a	15	2	5	8	n/a	n/a	n/a	n/a	n/a
2783984	PROB	n/a	LTP200	ltpFR	12	n/a	n/a	n/a	n/a	n/a	n/a	14	9	3	2	n/a	n/a	n/a	n/a	n/a
2787414	PROB	n/a	LTP200	ltpFR	12	n/a	n/a	n/a	n/a	n/a	n/a	8	5	2	1	n/a	n/a	n/a	n/a	n/a
2789143	PROB	n/a	LTP200	ltpFR	12	n/a	n/a	n/a	n/a	n/a	n/a	16	9	4	3	n/a	n/a	n/a	n/a	n/a
2791140	STOP	n/a	LTP200	ltpFR	12	n/a	n/a	n/a	n/a	n/a	n/a	n/a	n/a	n/a	n/a	n/a	n/a	n/a	n/a	n/a
2793259	WORD	wordpools/wasnorm_wordpool_less_exclusions.txt	LTP200	ltpFR	12	11	0	FLIPPER	580	n/a	0	n/a	0	0	0	0	0.5869140625	0.422607421875	upper	../fonts/zerothre.ttf
2796271	START	n/a	LTP200	ltpFR	12	n/a	n/a	n/a	n/a	n/a	n/a	n/a	n/a	n/a	n/a	n/a	n/a	n/a	n/a	n/a
2797190	PROB	n/a	LTP200	ltpFR	12	n/a	n/a	n/a	n/a	n/a	n/a	13	6	4	3	n/a	n/a	n/a	n/a	n/a
2798588	PROB	n/a	LTP200	ltpFR	12	n/a	n/a	n/a	n/a	n/a	n/a	9	2	1	6	n/a	n/a	n/a	n/a	n/a
2800419	PROB	n/a	LTP200	ltpFR	12	n/a	n/a	n/a	n/a	n/a	n/a	8	5	1	2	n/a	n/a	n/a	n/a	n/a
2802486	PROB	n/a	LTP200	ltpFR	12	n/a	n/a	n/a	n/a	n/a	n/a	20	3	8	9	n/a	n/a	n/a	n/a	n/a
2804913	PROB	n/a	LTP200	ltpFR	12	n/a	n/a	n/a	n/a	n/a	n/a	16	5	7	4	n/a	n/a	n/a	n/a	n/a
2806854	PROB	n/a	LTP200	ltpFR	12	n/a	n/a	n/a	n/a	n/a	n/a	16	8	2	6	n/a	n/a	n/a	n/a	n/a
2808582	PROB	n/a	LTP200	ltpFR	12	n/a	n/a	n/a	n/a	n/a	n/a	12	2	5	5	n/a	n/a	n/a	n/a	n/a
2809898	PROB	n/a	LTP200	ltpFR	12	n/a	n/a	n/a	n/a	n/a	n/a	24	6	8	8	n/a	n/a	n/a	n/a	n/a
2811579	STOP	n/a	LTP200	ltpFR	12	n/a	n/a	n/a	n/a	n/a	n/a	n/a	n/a	n/a	n/a	n/a	n/a	n/a	n/a	n/a
2813494	WORD	wordpools/wasnorm_wordpool_less_exclusions.txt	LTP200	ltpFR	12	11	0	CLERK	321	n/a	1	n/a	0	0	0	0	0.5869140625	0.422607421875	upper	../fonts/zerothre.ttf
2816506	START	n/a	LTP200	ltpFR	12	n/a	n/a	n/a	n/a	n/a	n/a	n/a	n/a	n/a	n/a	n/a	n/a	n/a	n/a	n/a
2817427	PROB	n/a	LTP200	ltpFR	12	n/a	n/a	n/a	n/a	n/a	n/a	16	7	6	3	n/a	n/a	n/a	n/a	n/a
2819384	PROB	n/a	LTP200	ltpFR	12	n/a	n/a	n/a	n/a	n/a	n/a	11	6	2	3	n/a	n/a	n/a	n/a	n/a
2822402	PROB	n/a	LTP200	ltpFR	12	n/a	n/a	n/a	n/a	n/a	n/a	14	4	9	1	n/a	n/a	n/a	n/a	n/a
2824225	PROB	n/a	LTP200	ltpFR	12	n/a	n/a	n/a	n/a	n/a	n/a	22	7	7	8	n/a	n/a	n/a	n/a	n/a
2832506	STOP	n/a	LTP200	ltpFR	12	n/a	n/a	n/a	n/a	n/a	n/a	n/a	n/a	n/a	n/a	n/a	n/a	n/a	n/a	n/a
2833593	WORD	wordpools/wasnorm_wordpool_less_exclusions.txt	LTP200	ltpFR	12	11	1	TYPEWRITER	1531	n/a	0	n/a	0	0	0	1	0.412841796875	0.57763671875	lower	../fonts/amplitud.ttf
2836605	START	n/a	LTP200	ltpFR	12	n/a	n/a	n/a	n/a	n/a	n/a	n/a	n/a	n/a	n/a	n/a	n/a	n/a	n/a	n/a
2837591	PROB	n/a	LTP200	ltpFR	12	n/a	n/a	n/a	n/a	n/a	n/a	15	7	2	6	n/a	n/a	n/a	n/a	n/a
2840647	PROB	n/a	LTP200	ltpFR	12	n/a	n/a	n/a	n/a	n/a	n/a	10	6	3	1	n/a	n/a	n/a	n/a	n/a
2842912	PROB	n/a	LTP200	ltpFR	12	n/a	n/a	n/a	n/a	n/a	n/a	12	6	2	4	n/a	n/a	n/a	n/a	n/a
2845749	PROB	n/a	LTP200	ltpFR	12	n/a	n/a	n/a	n/a	n/a	n/a	19	7	3	9	n/a	n/a	n/a	n/a	n/a
2847730	PROB	n/a	LTP200	ltpFR	12	n/a	n/a	n/a	n/a	n/a	n/a	6	2	1	3	n/a	n/a	n/a	n/a	n/a
2852604	STOP	n/a	LTP200	ltpFR	12	n/a	n/a	n/a	n/a	n/a	n/a	n/a	n/a	n/a	n/a	n/a	n/a	n/a	n/a	n/a
2853551	WORD	wordpools/wasnorm_wordpool_less_exclusions.txt	LTP200	ltpFR	12	11	1	SCISSORS	1250	n/a	0	n/a	0	0	0	1	0.412841796875	0.57763671875	lower	../fonts/amplitud.ttf
2856563	START	n/a	LTP200	ltpFR	12	n/a	n/a	n/a	n/a	n/a	n/a	n/a	n/a	n/a	n/a	n/a	n/a	n/a	n/a	n/a
2857677	PROB	n/a	LTP200	ltpFR	12	n/a	n/a	n/a	n/a	n/a	n/a	14	6	5	3	n/a	n/a	n/a	n/a	n/a
2859937	PROB	n/a	LTP200	ltpFR	12	n/a	n/a	n/a	n/a	n/a	n/a	21	9	4	8	n/a	n/a	n/a	n/a	n/a
2863183	PROB	n/a	LTP200	ltpFR	12	n/a	n/a	n/a	n/a	n/a	n/a	11	2	1	8	n/a	n/a	n/a	n/a	n/a
2864939	PROB	n/a	LTP200	ltpFR	12	n/a	n/a	n/a	n/a	n/a	n/a	19	9	6	4	n/a	n/a	n/a	n/a	n/a
2867030	PROB	n/a	LTP200	ltpFR	12	n/a	n/a	n/a	n/a	n/a	n/a	12	3	8	1	n/a	n/a	n/a	n/a	n/a
2869078	PROB	n/a	LTP200	ltpFR	12	n/a	n/a	n/a	n/a	n/a	n/a	14	6	4	4	n/a	n/a	n/a	n/a	n/a
2870683	PROB	n/a	LTP200	ltpFR	12	n/a	n/a	n/a	n/a	n/a	n/a	14	6	2	6	n/a	n/a	n/a	n/a	n/a
2872132	STOP	n/a	LTP200	ltpFR	12	n/a	n/a	n/a	n/a	n/a	n/a	n/a	n/a	n/a	n/a	n/a	n/a	n/a	n/a	n/a
2873443	WORD	wordpools/wasnorm_wordpool_less_exclusions.txt	LTP200	ltpFR	12	11	1	HEN	703	n/a	1	n/a	0	0	0	1	0.412841796875	0.57763671875	lower	../fonts/amplitud.ttf
2876455	START	n/a	LTP200	ltpFR	12	n/a	n/a	n/a	n/a	n/a	n/a	n/a	n/a	n/a	n/a	n/a	n/a	n/a	n/a	n/a
2877342	PROB	n/a	LTP200	ltpFR	12	n/a	n/a	n/a	n/a	n/a	n/a	6	1	2	3	n/a	n/a	n/a	n/a	n/a
2878723	PROB	n/a	LTP200	ltpFR	12	n/a	n/a	n/a	n/a	n/a	n/a	16	8	5	3	n/a	n/a	n/a	n/a	n/a
2880647	PROB	n/a	LTP200	ltpFR	12	n/a	n/a	n/a	n/a	n/a	n/a	14	6	6	2	n/a	n/a	n/a	n/a	n/a
2882621	PROB	n/a	LTP200	ltpFR	12	n/a	n/a	n/a	n/a	n/a	n/a	9	7	1	1	n/a	n/a	n/a	n/a	n/a
2884111	PROB	n/a	LTP200	ltpFR	12	n/a	n/a	n/a	n/a	n/a	n/a	11	1	1	9	n/a	n/a	n/a	n/a	n/a
2886219	PROB	n/a	LTP200	ltpFR	12	n/a	n/a	n/a	n/a	n/a	n/a	16	6	3	7	n/a	n/a	n/a	n/a	n/a
2887966	PROB	n/a	LTP200	ltpFR	12	n/a	n/a	n/a	n/a	n/a	n/a	15	9	3	3	n/a	n/a	n/a	n/a	n/a
2889715	PROB	n/a	LTP200	ltpFR	12	n/a	n/a	n/a	n/a	n/a	n/a	8	1	4	3	n/a	n/a	n/a	n/a	n/a
2891459	STOP	n/a	LTP200	ltpFR	12	n/a	n/a	n/a	n/a	n/a	n/a	n/a	n/a	n/a	n/a	n/a	n/a	n/a	n/a	n/a
2893552	WORD	wordpools/wasnorm_wordpool_less_exclusions.txt	LTP200	ltpFR	12	11	1	CROCODILE	411	n/a	1	n/a	0	0	0	1	0.412841796875	0.57763671875	lower	../fonts/amplitud.ttf
2896564	START	n/a	LTP200	ltpFR	12	n/a	n/a	n/a	n/a	n/a	n/a	n/a	n/a	n/a	n/a	n/a	n/a	n/a	n/a	n/a
2897751	PROB	n/a	LTP200	ltpFR	12	n/a	n/a	n/a	n/a	n/a	n/a	11	6	3	2	n/a	n/a	n/a	n/a	n/a
2899491	PROB	n/a	LTP200	ltpFR	12	n/a	n/a	n/a	n/a	n/a	n/a	14	6	6	2	n/a	n/a	n/a	n/a	n/a
2900942	PROB	n/a	LTP200	ltpFR	12	n/a	n/a	n/a	n/a	n/a	n/a	21	9	8	4	n/a	n/a	n/a	n/a	n/a
2903540	PROB	n/a	LTP200	ltpFR	12	n/a	n/a	n/a	n/a	n/a	n/a	25	9	9	7	n/a	n/a	n/a	n/a	n/a
2905967	PROB	n/a	LTP200	ltpFR	12	n/a	n/a	n/a	n/a	n/a	n/a	14	6	4	4	n/a	n/a	n/a	n/a	n/a
2907565	PROB	n/a	LTP200	ltpFR	12	n/a	n/a	n/a	n/a	n/a	n/a	16	9	6	1	n/a	n/a	n/a	n/a	n/a
2909296	PROB	n/a	LTP200	ltpFR	12	n/a	n/a	n/a	n/a	n/a	n/a	13	6	2	5	n/a	n/a	n/a	n/a	n/a
2912563	STOP	n/a	LTP200	ltpFR	12	n/a	n/a	n/a	n/a	n/a	n/a	n/a	n/a	n/a	n/a	n/a	n/a	n/a	n/a	n/a
2913661	WORD	wordpools/wasnorm_wordpool_less_exclusions.txt	LTP200	ltpFR	12	11	0	WALRUS	1585	n/a	3	n/a	0	0	0	0	0.5869140625	0.422607421875	upper	../fonts/zerothre.ttf
2914917	KEY_MSG	n/a	LTP200	ltpFR	12	11	n/a	n/a	n/a	n/a	n/a	n/a	0	0	0	n/a	n/a	n/a	n/a	n/a
2916673	START	n/a	LTP200	ltpFR	12	n/a	n/a	n/a	n/a	n/a	n/a	n/a	n/a	n/a	n/a	n/a	n/a	n/a	n/a	n/a
2917771	PROB	n/a	LTP200	ltpFR	12	n/a	n/a	n/a	n/a	n/a	n/a	16	6	7	3	n/a	n/a	n/a	n/a	n/a
2919394	PROB	n/a	LTP200	ltpFR	12	n/a	n/a	n/a	n/a	n/a	n/a	6	2	1	3	n/a	n/a	n/a	n/a	n/a
2920654	PROB	n/a	LTP200	ltpFR	12	n/a	n/a	n/a	n/a	n/a	n/a	22	7	7	8	n/a	n/a	n/a	n/a	n/a
2922555	PROB	n/a	LTP200	ltpFR	12	n/a	n/a	n/a	n/a	n/a	n/a	24	9	6	9	n/a	n/a	n/a	n/a	n/a
2925684	PROB	n/a	LTP200	ltpFR	12	n/a	n/a	n/a	n/a	n/a	n/a	6	2	2	2	n/a	n/a	n/a	n/a	n/a
2927742	PROB	n/a	LTP200	ltpFR	12	n/a	n/a	n/a	n/a	n/a	n/a	12	1	9	2	n/a	n/a	n/a	n/a	n/a
2929248	PROB	n/a	LTP200	ltpFR	12	n/a	n/a	n/a	n/a	n/a	n/a	14	8	4	2	n/a	n/a	n/a	n/a	n/a
2931852	STOP	n/a	LTP200	ltpFR	12	n/a	n/a	n/a	n/a	n/a	n/a	n/a	n/a	n/a	n/a	n/a	n/a	n/a	n/a	n/a
2933564	WORD	wordpools/wasnorm_wordpool_less_exclusions.txt	LTP200	ltpFR	12	11	0	CHEMICAL	291	n/a	0	n/a	0	0	0	0	0.5869140625	0.422607421875	upper	../fonts/zerothre.ttf
2936582	START	n/a	LTP200	ltpFR	12	n/a	n/a	n/a	n/a	n/a	n/a	n/a	n/a	n/a	n/a	n/a	n/a	n/a	n/a	n/a
2937468	PROB	n/a	LTP200	ltpFR	12	n/a	n/a	n/a	n/a	n/a	n/a	17	8	6	3	n/a	n/a	n/a	n/a	n/a
2940757	PROB	n/a	LTP200	ltpFR	12	n/a	n/a	n/a	n/a	n/a	n/a	24	8	8	8	n/a	n/a	n/a	n/a	n/a
2942281	PROB	n/a	LTP200	ltpFR	12	n/a	n/a	n/a	n/a	n/a	n/a	19	8	8	3	n/a	n/a	n/a	n/a	n/a
2944957	PROB	n/a	LTP200	ltpFR	12	n/a	n/a	n/a	n/a	n/a	n/a	15	3	4	8	n/a	n/a	n/a	n/a	n/a
2948036	PROB	n/a	LTP200	ltpFR	12	n/a	n/a	n/a	n/a	n/a	n/a	16	6	6	4	n/a	n/a	n/a	n/a	n/a
2949724	PROB	n/a	LTP200	ltpFR	12	n/a	n/a	n/a	n/a	n/a	n/a	17	1	9	7	n/a	n/a	n/a	n/a	n/a
2951308	STOP	n/a	LTP200	ltpFR	12	n/a	n/a	n/a	n/a	n/a	n/a	n/a	n/a	n/a	n/a	n/a	n/a	n/a	n/a	n/a
2953712	WORD	wordpools/wasnorm_wordpool_less_exclusions.txt	LTP200	ltpFR	12	11	1	BEAKER	104	n/a	0	n/a	0	0	0	1	0.412841796875	0.57763671875	lower	../fonts/amplitud.ttf
2956724	START	n/a	LTP200	ltpFR	12	n/a	n/a	n/a	n/a	n/a	n/a	n/a	n/a	n/a	n/a	n/a	n/a	n/a	n/a	n/a
2957761	PROB	n/a	LTP200	ltpFR	12	n/a	n/a	n/a	n/a	n/a	n/a	10	3	4	3	n/a	n/a	n/a	n/a	n/a
2960399	PROB	n/a	LTP200	ltpFR	12	n/a	n/a	n/a	n/a	n/a	n/a	19	9	6	4	n/a	n/a	n/a	n/a	n/a
2962390	PROB	n/a	LTP200	ltpFR	12	n/a	n/a	n/a	n/a	n/a	n/a	9	2	1	6	n/a	n/a	n/a	n/a	n/a
2963952	PROB	n/a	LTP200	ltpFR	12	n/a	n/a	n/a	n/a	n/a	n/a	21	3	9	9	n/a	n/a	n/a	n/a	n/a
2965785	PROB	n/a	LTP200	ltpFR	12	n/a	n/a	n/a	n/a	n/a	n/a	14	7	1	6	n/a	n/a	n/a	n/a	n/a
2967575	PROB	n/a	LTP200	ltpFR	12	n/a	n/a	n/a	n/a	n/a	n/a	19	2	9	8	n/a	n/a	n/a	n/a	n/a
2969455	PROB	n/a	LTP200	ltpFR	12	n/a	n/a	n/a	n/a	n/a	n/a	14	7	2	5	n/a	n/a	n/a	n/a	n/a
2972100	STOP	n/a	LTP200	ltpFR	12	n/a	n/a	n/a	n/a	n/a	n/a	n/a	n/a	n/a	n/a	n/a	n/a	n/a	n/a	n/a
2973866	WORD	wordpools/wasnorm_wordpool_less_exclusions.txt	LTP200	ltpFR	12	11	1	PAINTING	1005	n/a	0	n/a	0	0	0	1	0.412841796875	0.57763671875	lower	../fonts/amplitud.ttf
2976878	START	n/a	LTP200	ltpFR	12	n/a	n/a	n/a	n/a	n/a	n/a	n/a	n/a	n/a	n/a	n/a	n/a	n/a	n/a	n/a
2977865	PROB	n/a	LTP200	ltpFR	12	n/a	n/a	n/a	n/a	n/a	n/a	6	2	2	2	n/a	n/a	n/a	n/a	n/a
2978986	PROB	n/a	LTP200	ltpFR	12	n/a	n/a	n/a	n/a	n/a	n/a	16	4	3	9	n/a	n/a	n/a	n/a	n/a
2983091	PROB	n/a	LTP200	ltpFR	12	n/a	n/a	n/a	n/a	n/a	n/a	16	5	9	2	n/a	n/a	n/a	n/a	n/a
2985693	PROB	n/a	LTP200	ltpFR	12	n/a	n/a	n/a	n/a	n/a	n/a	18	5	9	4	n/a	n/a	n/a	n/a	n/a
2988137	PROB	n/a	LTP200	ltpFR	12	n/a	n/a	n/a	n/a	n/a	n/a	19	9	6	4	n/a	n/a	n/a	n/a	n/a
2989927	PROB	n/a	LTP200	ltpFR	12	n/a	n/a	n/a	n/a	n/a	n/a	20	4	9	7	n/a	n/a	n/a	n/a	n/a
2992116	STOP	n/a	LTP200	ltpFR	12	n/a	n/a	n/a	n/a	n/a	n/a	n/a	n/a	n/a	n/a	n/a	n/a	n/a	n/a	n/a
2993824	WORD	wordpools/wasnorm_wordpool_less_exclusions.txt	LTP200	ltpFR	12	11	1	TELEVISION	1447	n/a	0	n/a	0	0	0	1	0.412841796875	0.57763671875	lower	../fonts/amplitud.ttf
2996836	START	n/a	LTP200	ltpFR	12	n/a	n/a	n/a	n/a	n/a	n/a	n/a	n/a	n/a	n/a	n/a	n/a	n/a	n/a	n/a
2997778	PROB	n/a	LTP200	ltpFR	12	n/a	n/a	n/a	n/a	n/a	n/a	22	8	7	7	n/a	n/a	n/a	n/a	n/a
3001019	PROB	n/a	LTP200	ltpFR	12	n/a	n/a	n/a	n/a	n/a	n/a	13	2	4	7	n/a	n/a	n/a	n/a	n/a
3002557	PROB	n/a	LTP200	ltpFR	12	n/a	n/a	n/a	n/a	n/a	n/a	20	7	5	8	n/a	n/a	n/a	n/a	n/a
3004564	PROB	n/a	LTP200	ltpFR	12	n/a	n/a	n/a	n/a	n/a	n/a	14	5	6	3	n/a	n/a	n/a	n/a	n/a
3006974	PROB	n/a	LTP200	ltpFR	12	n/a	n/a	n/a	n/a	n/a	n/a	17	6	3	8	n/a	n/a	n/a	n/a	n/a
3009015	PROB	n/a	LTP200	ltpFR	12	n/a	n/a	n/a	n/a	n/a	n/a	12	2	2	8	n/a	n/a	n/a	n/a	n/a
3012836	STOP	n/a	LTP200	ltpFR	12	n/a	n/a	n/a	n/a	n/a	n/a	n/a	n/a	n/a	n/a	n/a	n/a	n/a	n/a	n/a
3013732	WORD	wordpools/wasnorm_wordpool_less_exclusions.txt	LTP200	ltpFR	12	11	1	CRITIC	410	n/a	1	n/a	0	0	0	1	0.412841796875	0.57763671875	lower	../fonts/amplitud.ttf
3016744	START	n/a	LTP200	ltpFR	12	n/a	n/a	n/a	n/a	n/a	n/a	n/a	n/a	n/a	n/a	n/a	n/a	n/a	n/a	n/a
3017899	PROB	n/a	LTP200	ltpFR	12	n/a	n/a	n/a	n/a	n/a	n/a	14	4	6	4	n/a	n/a	n/a	n/a	n/a
3019371	PROB	n/a	LTP200	ltpFR	12	n/a	n/a	n/a	n/a	n/a	n/a	19	8	9	2	n/a	n/a	n/a	n/a	n/a
3021645	PROB	n/a	LTP200	ltpFR	12	n/a	n/a	n/a	n/a	n/a	n/a	17	1	8	8	n/a	n/a	n/a	n/a	n/a
3024446	PROB	n/a	LTP200	ltpFR	12	n/a	n/a	n/a	n/a	n/a	n/a	17	1	9	7	n/a	n/a	n/a	n/a	n/a
3025879	PROB	n/a	LTP200	ltpFR	12	n/a	n/a	n/a	n/a	n/a	n/a	15	4	5	8	n/a	n/a	n/a	n/a	n/a
3029625	PROB	n/a	LTP200	ltpFR	12	n/a	n/a	n/a	n/a	n/a	n/a	13	2	5	6	n/a	n/a	n/a	n/a	n/a
3031467	STOP	n/a	LTP200	ltpFR	12	n/a	n/a	n/a	n/a	n/a	n/a	n/a	n/a	n/a	n/a	n/a	n/a	n/a	n/a	n/a
3033641	WORD	wordpools/wasnorm_wordpool_less_exclusions.txt	LTP200	ltpFR	12	11	0	PIGEON	1065	n/a	0	n/a	0	0	0	0	0.5869140625	0.422607421875	upper	../fonts/zerothre.ttf
3036659	START	n/a	LTP200	ltpFR	12	n/a	n/a	n/a	n/a	n/a	n/a	n/a	n/a	n/a	n/a	n/a	n/a	n/a	n/a	n/a
3037656	PROB	n/a	LTP200	ltpFR	12	n/a	n/a	n/a	n/a	n/a	n/a	10	1	7	2	n/a	n/a	n/a	n/a	n/a
3039596	PROB	n/a	LTP200	ltpFR	12	n/a	n/a	n/a	n/a	n/a	n/a	19	2	8	9	n/a	n/a	n/a	n/a	n/a
3041187	PROB	n/a	LTP200	ltpFR	12	n/a	n/a	n/a	n/a	n/a	n/a	21	9	4	8	n/a	n/a	n/a	n/a	n/a
3044951	PROB	n/a	LTP200	ltpFR	12	n/a	n/a	n/a	n/a	n/a	n/a	12	7	2	3	n/a	n/a	n/a	n/a	n/a
3046390	PROB	n/a	LTP200	ltpFR	12	n/a	n/a	n/a	n/a	n/a	n/a	20	5	9	6	n/a	n/a	n/a	n/a	n/a
3048553	PROB	n/a	LTP200	ltpFR	12	n/a	n/a	n/a	n/a	n/a	n/a	15	4	3	8	n/a	n/a	n/a	n/a	n/a
3050127	PROB	n/a	LTP200	ltpFR	12	n/a	n/a	n/a	n/a	n/a	n/a	11	3	2	6	n/a	n/a	n/a	n/a	n/a
3052396	STOP	n/a	LTP200	ltpFR	12	n/a	n/a	n/a	n/a	n/a	n/a	n/a	n/a	n/a	n/a	n/a	n/a	n/a	n/a	n/a
3053800	WORD	wordpools/wasnorm_wordpool_less_exclusions.txt	LTP200	ltpFR	12	11	0	MITTEN	902	n/a	0	n/a	0	0	0	0	0.5869140625	0.422607421875	upper	../fonts/zerothre.ttf
3056811	START	n/a	LTP200	ltpFR	12	n/a	n/a	n/a	n/a	n/a	n/a	n/a	n/a	n/a	n/a	n/a	n/a	n/a	n/a	n/a
3057832	PROB	n/a	LTP200	ltpFR	12	n/a	n/a	n/a	n/a	n/a	n/a	10	1	4	5	n/a	n/a	n/a	n/a	n/a
3059789	PROB	n/a	LTP200	ltpFR	12	n/a	n/a	n/a	n/a	n/a	n/a	20	6	6	8	n/a	n/a	n/a	n/a	n/a
3061430	PROB	n/a	LTP200	ltpFR	12	n/a	n/a	n/a	n/a	n/a	n/a	6	2	3	1	n/a	n/a	n/a	n/a	n/a
3062734	PROB	n/a	LTP200	ltpFR	12	n/a	n/a	n/a	n/a	n/a	n/a	20	7	7	6	n/a	n/a	n/a	n/a	n/a
3066398	PROB	n/a	LTP200	ltpFR	12	n/a	n/a	n/a	n/a	n/a	n/a	20	7	6	7	n/a	n/a	n/a	n/a	n/a
3070012	PROB	n/a	LTP200	ltpFR	12	n/a	n/a	n/a	n/a	n/a	n/a	10	2	4	4	n/a	n/a	n/a	n/a	n/a
3072084	STOP	n/a	LTP200	ltpFR	12	n/a	n/a	n/a	n/a	n/a	n/a	n/a	n/a	n/a	n/a	n/a	n/a	n/a	n/a	n/a
3074763	REC_START	n/a	LTP200	ltpFR	12	11	n/a	n/a	n/a	n/a	n/a	n/a	0	0	0	n/a	n/a	n/a	n/a	n/a
3076125	REC_WORD	wordpools/wasnorm_wordpool_less_exclusions.txt	LTP200	ltpFR	12	11	0	MITTEN	902	n/a	0	n/a	0	0	0	n/a	n/a	n/a	n/a	n/a
3077122	REC_WORD	wordpools/wasnorm_wordpool_less_exclusions.txt	LTP200	ltpFR	12	11	0	FLIPPER	580	n/a	0	n/a	0	0	0	n/a	n/a	n/a	n/a	n/a
3078235	REC_WORD	wordpools/wasnorm_wordpool_less_exclusions.txt	LTP200	ltpFR	12	11	0	CAMERA	224	n/a	0	n/a	0	0	0	n/a	n/a	n/a	n/a	n/a
3079417	REC_WORD	wordpools/wasnorm_wordpool_less_exclusions.txt	LTP200	ltpFR	12	11	0	BIRD	129	n/a	0	n/a	0	0	0	n/a	n/a	n/a	n/a	n/a
3080555	REC_WORD	wordpools/wasnorm_wordpool_less_exclusions.txt	LTP200	ltpFR	12	11	0	PIGEON	1065	n/a	0	n/a	0	0	0	n/a	n/a	n/a	n/a	n/a
3081767	REC_WORD	wordpools/wasnorm_wordpool_less_exclusions.txt	LTP200	ltpFR	12	11	1	TYPEWRITER	1531	n/a	0	n/a	0	0	0	n/a	n/a	n/a	n/a	n/a
3083034	REC_WORD	wordpools/wasnorm_wordpool_less_exclusions.txt	LTP200	ltpFR	12	11	1	SCISSORS	1250	n/a	0	n/a	0	0	0	n/a	n/a	n/a	n/a	n/a
3084456	REC_WORD	wordpools/wasnorm_wordpool_less_exclusions.txt	LTP200	ltpFR	12	11	1	CRITIC	410	n/a	1	n/a	0	0	0	n/a	n/a	n/a	n/a	n/a
3087629	REC_WORD	wordpools/wasnorm_wordpool_less_exclusions.txt	LTP200	ltpFR	12	11	1	CROCODILE	411	n/a	1	n/a	0	0	0	n/a	n/a	n/a	n/a	n/a
3088881	REC_WORD	wordpools/wasnorm_wordpool_less_exclusions.txt	LTP200	ltpFR	12	11	1	HEN	703	n/a	1	n/a	0	0	0	n/a	n/a	n/a	n/a	n/a
3164050	WORD	wordpools/wasnorm_wordpool_less_exclusions.txt	LTP200	ltpFR	12	12	1	CROWN	415	n/a	0	n/a	0	0	0	1	0.412841796875	0.57763671875	lower	../fonts/amplitud.ttf
3168249	WORD	wordpools/wasnorm_wordpool_less_exclusions.txt	LTP200	ltpFR	12	12	1	FELLOW	558	n/a	1	n/a	0	0	0	1	0.412841796875	0.57763671875	lower	../fonts/amplitud.ttf
3172421	WORD	wordpools/wasnorm_wordpool_less_exclusions.txt	LTP200	ltpFR	12	12	1	BEAD	103	n/a	0	n/a	0	0	0	1	0.412841796875	0.57763671875	lower	../fonts/amplitud.ttf
3176302	WORD	wordpools/wasnorm_wordpool_less_exclusions.txt	LTP200	ltpFR	12	12	1	CENT	270	n/a	0	n/a	0	0	0	1	0.412841796875	0.57763671875	lower	../fonts/amplitud.ttf
3180311	WORD	wordpools/wasnorm_wordpool_less_exclusions.txt	LTP200	ltpFR	12	12	1	RESTAURANT	1187	n/a	0	n/a	0	0	0	1	0.412841796875	0.57763671875	lower	../fonts/amplitud.ttf
3184532	WORD	wordpools/wasnorm_wordpool_less_exclusions.txt	LTP200	ltpFR	12	12	1	KING	777	n/a	1	n/a	0	0	0	1	0.412841796875	0.57763671875	lower	../fonts/amplitud.ttf
3188464	WORD	wordpools/wasnorm_wordpool_less_exclusions.txt	LTP200	ltpFR	12	12	1	SAW	1239	n/a	0	n/a	0	0	0	1	0.412841796875	0.57763671875	lower	../fonts/amplitud.ttf
3192523	WORD	wordpools/wasnorm_wordpool_less_exclusions.txt	LTP200	ltpFR	12	12	1	DOUGHNUT	490	n/a	0	n/a	0	0	0	1	0.412841796875	0.57763671875	lower	../fonts/amplitud.ttf
3196355	WORD	wordpools/wasnorm_wordpool_less_exclusions.txt	LTP200	ltpFR	12	12	1	STREAM	1392	n/a	0	n/a	0	0	0	1	0.412841796875	0.57763671875	lower	../fonts/amplitud.ttf
3200442	WORD	wordpools/wasnorm_wordpool_less_exclusions.txt	LTP200	ltpFR	12	12	1	PAIL	1002	n/a	0	n/a	0	0	0	1	0.412841796875	0.57763671875	lower	../fonts/amplitud.ttf
3204451	WORD	wordpools/wasnorm_wordpool_less_exclusions.txt	LTP200	ltpFR	12	12	1	SHOVEL	1295	n/a	0	n/a	0	0	0	1	0.412841796875	0.57763671875	lower	../fonts/amplitud.ttf
3208589	WORD	wordpools/wasnorm_wordpool_less_exclusions.txt	LTP200	ltpFR	12	12	1	DIAL	457	n/a	0	n/a	0	0	0	1	0.412841796875	0.57763671875	lower	../fonts/amplitud.ttf
3212521	WORD	wordpools/wasnorm_wordpool_less_exclusions.txt	LTP200	ltpFR	12	12	1	MESSAGE	888	n/a	0	n/a	0	0	0	1	0.412841796875	0.57763671875	lower	../fonts/amplitud.ttf
3216647	WORD	wordpools/wasnorm_wordpool_less_exclusions.txt	LTP200	ltpFR	12	12	1	ANIMAL	23	n/a	1	n/a	0	0	0	1	0.412841796875	0.57763671875	lower	../fonts/amplitud.ttf
3220702	WORD	wordpools/wasnorm_wordpool_less_exclusions.txt	LTP200	ltpFR	12	12	1	SHEEP	1278	n/a	1	n/a	0	0	0	1	0.412841796875	0.57763671875	lower	../fonts/amplitud.ttf
3224862	WORD	wordpools/wasnorm_wordpool_less_exclusions.txt	LTP200	ltpFR	12	12	1	GRIZZLY	662	n/a	1	n/a	0	0	0	1	0.412841796875	0.57763671875	lower	../fonts/amplitud.ttf
3227874	START	n/a	LTP200	ltpFR	12	n/a	n/a	n/a	n/a	n/a	n/a	n/a	n/a	n/a	n/a	n/a	n/a	n/a	n/a	n/a
