onset	duration	trial_type	sample	stim_file	subject	experiment	session	trial	task	item_name	item_num	recog_resp	recog_conf	resp	answer	test_x	test_y	test_z	color_r	color_g	color_b	case	font
255.388	n/a	SESS_START	127694	n/a	LTP190	ltpFR	12	n/a	n/a	n/a	n/a	0	2	n/a	n/a	0	0	0	n/a	n/a	n/a	n/a	n/a
290.17	n/a	START	145085	n/a	LTP190	ltpFR	12	n/a	n/a	n/a	n/a	n/a	n/a	n/a	n/a	n/a	n/a	n/a	n/a	n/a	n/a	n/a	n/a
290.22	n/a	PROB	145110	n/a	LTP190	ltpFR	12	n/a	n/a	n/a	n/a	n/a	n/a	n/a	11	5	1	5	n/a	n/a	n/a	n/a	n/a
292.11	n/a	PROB	146055	n/a	LTP190	ltpFR	12	n/a	n/a	n/a	n/a	n/a	n/a	n/a	17	4	6	7	n/a	n/a	n/a	n/a	n/a
293.75	n/a	PROB	146875	n/a	LTP190	ltpFR	12	n/a	n/a	n/a	n/a	n/a	n/a	n/a	15	5	7	1	n/a	n/a	n/a	n/a	n/a
295.35	n/a	PROB	147675	n/a	LTP190	ltpFR	12	n/a	n/a	n/a	n/a	n/a	n/a	n/a	23	8	6	9	n/a	n/a	n/a	n/a	n/a
297.882	n/a	PROB	148941	n/a	LTP190	ltpFR	12	n/a	n/a	n/a	n/a	n/a	n/a	n/a	13	6	3	4	n/a	n/a	n/a	n/a	n/a
299.698	n/a	PROB	149849	n/a	LTP190	ltpFR	12	n/a	n/a	n/a	n/a	n/a	n/a	n/a	9	1	6	2	n/a	n/a	n/a	n/a	n/a
301.254	n/a	PROB	150627	n/a	LTP190	ltpFR	12	n/a	n/a	n/a	n/a	n/a	n/a	n/a	14	1	6	7	n/a	n/a	n/a	n/a	n/a
302.628	n/a	PROB	151314	n/a	LTP190	ltpFR	12	n/a	n/a	n/a	n/a	n/a	n/a	n/a	12	2	1	9	n/a	n/a	n/a	n/a	n/a
304.032	n/a	PROB	152016	n/a	LTP190	ltpFR	12	n/a	n/a	n/a	n/a	n/a	n/a	n/a	15	2	5	8	n/a	n/a	n/a	n/a	n/a
305.84	n/a	PROB	152920	n/a	LTP190	ltpFR	12	n/a	n/a	n/a	n/a	n/a	n/a	n/a	15	9	4	2	n/a	n/a	n/a	n/a	n/a
307.178	n/a	PROB	153589	n/a	LTP190	ltpFR	12	n/a	n/a	n/a	n/a	n/a	n/a	n/a	16	5	5	6	n/a	n/a	n/a	n/a	n/a
308.506	n/a	PROB	154253	n/a	LTP190	ltpFR	12	n/a	n/a	n/a	n/a	n/a	n/a	n/a	12	2	2	8	n/a	n/a	n/a	n/a	n/a
310.07	n/a	STOP	155035	n/a	LTP190	ltpFR	12	n/a	n/a	n/a	n/a	n/a	n/a	n/a	n/a	n/a	n/a	n/a	n/a	n/a	n/a	n/a	n/a
345.566	n/a	START	172783	n/a	LTP190	ltpFR	12	n/a	n/a	n/a	n/a	n/a	n/a	n/a	n/a	n/a	n/a	n/a	n/a	n/a	n/a	n/a	n/a
347.08	n/a	PROB	173540	n/a	LTP190	ltpFR	12	n/a	n/a	n/a	n/a	n/a	n/a	n/a	10	2	2	6	n/a	n/a	n/a	n/a	n/a
348.436	n/a	PROB	174218	n/a	LTP190	ltpFR	12	n/a	n/a	n/a	n/a	n/a	n/a	n/a	13	7	4	2	n/a	n/a	n/a	n/a	n/a
349.714	n/a	PROB	174857	n/a	LTP190	ltpFR	12	n/a	n/a	n/a	n/a	n/a	n/a	n/a	17	7	7	5	n/a	n/a	n/a	n/a	n/a
351.364	n/a	PROB	175682	n/a	LTP190	ltpFR	12	n/a	n/a	n/a	n/a	n/a	n/a	n/a	12	5	1	6	n/a	n/a	n/a	n/a	n/a
352.704	n/a	STOP	176352	n/a	LTP190	ltpFR	12	n/a	n/a	n/a	n/a	n/a	n/a	n/a	n/a	n/a	n/a	n/a	n/a	n/a	n/a	n/a	n/a
354.782	n/a	WORD	177391	wordpools/wasnorm_wordpool_less_exclusions.txt	LTP190	ltpFR	12	1	0	MERMAID	887	0	n/a	n/a	n/a	0	0	0	0.422607421875	0.5869140625	0	upper	zerothre.ttf
357.828	n/a	SLOW_MSG	178914	n/a	LTP190	ltpFR	12	1	n/a	n/a	n/a	n/a	n/a	n/a	n/a	0	0	0	n/a	n/a	n/a	n/a	n/a
359.362	n/a	START	179681	n/a	LTP190	ltpFR	12	n/a	n/a	n/a	n/a	n/a	n/a	n/a	n/a	n/a	n/a	n/a	n/a	n/a	n/a	n/a	n/a
360.404	n/a	PROB	180202	n/a	LTP190	ltpFR	12	n/a	n/a	n/a	n/a	n/a	n/a	n/a	11	8	2	1	n/a	n/a	n/a	n/a	n/a
361.87	n/a	PROB	180935	n/a	LTP190	ltpFR	12	n/a	n/a	n/a	n/a	n/a	n/a	n/a	18	9	1	8	n/a	n/a	n/a	n/a	n/a
363.494	n/a	PROB	181747	n/a	LTP190	ltpFR	12	n/a	n/a	n/a	n/a	n/a	n/a	n/a	14	5	6	4	n/a	n/a	n/a	n/a	n/a
364.948	n/a	PROB	182474	n/a	LTP190	ltpFR	12	n/a	n/a	n/a	n/a	n/a	n/a	n/a	18	8	5	5	n/a	n/a	n/a	n/a	n/a
366.184	n/a	STOP	183092	n/a	LTP190	ltpFR	12	n/a	n/a	n/a	n/a	n/a	n/a	n/a	n/a	n/a	n/a	n/a	n/a	n/a	n/a	n/a	n/a
368.318	n/a	WORD	184159	wordpools/wasnorm_wordpool_less_exclusions.txt	LTP190	ltpFR	12	1	0	BALLERINA	74	n/a	n/a	1	n/a	0	0	0	0.422607421875	0.5869140625	0	upper	zerothre.ttf
371.33	n/a	START	185665	n/a	LTP190	ltpFR	12	n/a	n/a	n/a	n/a	n/a	n/a	n/a	n/a	n/a	n/a	n/a	n/a	n/a	n/a	n/a	n/a
372.344	n/a	PROB	186172	n/a	LTP190	ltpFR	12	n/a	n/a	n/a	n/a	n/a	n/a	n/a	16	9	1	6	n/a	n/a	n/a	n/a	n/a
374.742	n/a	PROB	187371	n/a	LTP190	ltpFR	12	n/a	n/a	n/a	n/a	n/a	n/a	n/a	20	8	4	8	n/a	n/a	n/a	n/a	n/a
376.442	n/a	PROB	188221	n/a	LTP190	ltpFR	12	n/a	n/a	n/a	n/a	n/a	n/a	n/a	20	6	7	6	n/a	n/a	n/a	n/a	n/a
378.482	n/a	STOP	189241	n/a	LTP190	ltpFR	12	n/a	n/a	n/a	n/a	n/a	n/a	n/a	n/a	n/a	n/a	n/a	n/a	n/a	n/a	n/a	n/a
380.392	n/a	WORD	190196	wordpools/wasnorm_wordpool_less_exclusions.txt	LTP190	ltpFR	12	1	0	CART	250	n/a	n/a	1	n/a	0	0	0	0.422607421875	0.5869140625	0	upper	zerothre.ttf
383.404	n/a	START	191702	n/a	LTP190	ltpFR	12	n/a	n/a	n/a	n/a	n/a	n/a	n/a	n/a	n/a	n/a	n/a	n/a	n/a	n/a	n/a	n/a
384.262	n/a	PROB	192131	n/a	LTP190	ltpFR	12	n/a	n/a	n/a	n/a	n/a	n/a	n/a	12	5	1	6	n/a	n/a	n/a	n/a	n/a
385.644	n/a	PROB	192822	n/a	LTP190	ltpFR	12	n/a	n/a	n/a	n/a	n/a	n/a	n/a	15	4	8	3	n/a	n/a	n/a	n/a	n/a
388.638	n/a	PROB	194319	n/a	LTP190	ltpFR	12	n/a	n/a	n/a	n/a	n/a	n/a	n/a	10	3	5	2	n/a	n/a	n/a	n/a	n/a
390.674	n/a	STOP	195337	n/a	LTP190	ltpFR	12	n/a	n/a	n/a	n/a	n/a	n/a	n/a	n/a	n/a	n/a	n/a	n/a	n/a	n/a	n/a	n/a
392.442	n/a	WORD	196221	wordpools/wasnorm_wordpool_less_exclusions.txt	LTP190	ltpFR	12	1	0	RICE	1190	n/a	n/a	0	n/a	0	0	0	0.422607421875	0.5869140625	0	upper	zerothre.ttf
395.454	n/a	START	197727	n/a	LTP190	ltpFR	12	n/a	n/a	n/a	n/a	n/a	n/a	n/a	n/a	n/a	n/a	n/a	n/a	n/a	n/a	n/a	n/a
396.408	n/a	PROB	198204	n/a	LTP190	ltpFR	12	n/a	n/a	n/a	n/a	n/a	n/a	n/a	11	8	1	2	n/a	n/a	n/a	n/a	n/a
397.664	n/a	PROB	198832	n/a	LTP190	ltpFR	12	n/a	n/a	n/a	n/a	n/a	n/a	n/a	12	6	4	2	n/a	n/a	n/a	n/a	n/a
399.002	n/a	PROB	199501	n/a	LTP190	ltpFR	12	n/a	n/a	n/a	n/a	n/a	n/a	n/a	15	8	2	5	n/a	n/a	n/a	n/a	n/a
400.374	n/a	PROB	200187	n/a	LTP190	ltpFR	12	n/a	n/a	n/a	n/a	n/a	n/a	n/a	17	7	3	7	n/a	n/a	n/a	n/a	n/a
401.882	n/a	STOP	200941	n/a	LTP190	ltpFR	12	n/a	n/a	n/a	n/a	n/a	n/a	n/a	n/a	n/a	n/a	n/a	n/a	n/a	n/a	n/a	n/a
404.534	n/a	WORD	202267	wordpools/wasnorm_wordpool_less_exclusions.txt	LTP190	ltpFR	12	1	0	FARM	552	n/a	n/a	1	n/a	0	0	0	0.422607421875	0.5869140625	0	upper	zerothre.ttf
407.552	n/a	START	203776	n/a	LTP190	ltpFR	12	n/a	n/a	n/a	n/a	n/a	n/a	n/a	n/a	n/a	n/a	n/a	n/a	n/a	n/a	n/a	n/a
408.42	n/a	PROB	204210	n/a	LTP190	ltpFR	12	n/a	n/a	n/a	n/a	n/a	n/a	n/a	20	9	6	5	n/a	n/a	n/a	n/a	n/a
410.806	n/a	PROB	205403	n/a	LTP190	ltpFR	12	n/a	n/a	n/a	n/a	n/a	n/a	n/a	6	2	2	2	n/a	n/a	n/a	n/a	n/a
412.012	n/a	PROB	206006	n/a	LTP190	ltpFR	12	n/a	n/a	n/a	n/a	n/a	n/a	n/a	13	3	5	5	n/a	n/a	n/a	n/a	n/a
413.434	n/a	PROB	206717	n/a	LTP190	ltpFR	12	n/a	n/a	n/a	n/a	n/a	n/a	n/a	13	6	5	2	n/a	n/a	n/a	n/a	n/a
414.786	n/a	STOP	207393	n/a	LTP190	ltpFR	12	n/a	n/a	n/a	n/a	n/a	n/a	n/a	n/a	n/a	n/a	n/a	n/a	n/a	n/a	n/a	n/a
416.418	n/a	WORD	208209	wordpools/wasnorm_wordpool_less_exclusions.txt	LTP190	ltpFR	12	1	0	ALBUM	14	n/a	n/a	1	n/a	0	0	0	0.422607421875	0.5869140625	0	upper	zerothre.ttf
419.43	n/a	START	209715	n/a	LTP190	ltpFR	12	n/a	n/a	n/a	n/a	n/a	n/a	n/a	n/a	n/a	n/a	n/a	n/a	n/a	n/a	n/a	n/a
420.31	n/a	PROB	210155	n/a	LTP190	ltpFR	12	n/a	n/a	n/a	n/a	n/a	n/a	n/a	17	6	2	9	n/a	n/a	n/a	n/a	n/a
422.15	n/a	PROB	211075	n/a	LTP190	ltpFR	12	n/a	n/a	n/a	n/a	n/a	n/a	n/a	15	3	5	7	n/a	n/a	n/a	n/a	n/a
424.448	n/a	PROB	212224	n/a	LTP190	ltpFR	12	n/a	n/a	n/a	n/a	n/a	n/a	n/a	14	3	4	7	n/a	n/a	n/a	n/a	n/a
426.044	n/a	STOP	213022	n/a	LTP190	ltpFR	12	n/a	n/a	n/a	n/a	n/a	n/a	n/a	n/a	n/a	n/a	n/a	n/a	n/a	n/a	n/a	n/a
428.28	n/a	WORD	214140	wordpools/wasnorm_wordpool_less_exclusions.txt	LTP190	ltpFR	12	1	0	BUILDING	191	n/a	n/a	1	n/a	0	0	0	0.422607421875	0.5869140625	0	upper	zerothre.ttf
431.292	n/a	START	215646	n/a	LTP190	ltpFR	12	n/a	n/a	n/a	n/a	n/a	n/a	n/a	n/a	n/a	n/a	n/a	n/a	n/a	n/a	n/a	n/a
432.496	n/a	PROB	216248	n/a	LTP190	ltpFR	12	n/a	n/a	n/a	n/a	n/a	n/a	n/a	16	6	7	3	n/a	n/a	n/a	n/a	n/a
434.286	n/a	PROB	217143	n/a	LTP190	ltpFR	12	n/a	n/a	n/a	n/a	n/a	n/a	n/a	14	1	8	5	n/a	n/a	n/a	n/a	n/a
436.864	n/a	PROB	218432	n/a	LTP190	ltpFR	12	n/a	n/a	n/a	n/a	n/a	n/a	n/a	23	9	6	8	n/a	n/a	n/a	n/a	n/a
438.948	n/a	STOP	219474	n/a	LTP190	ltpFR	12	n/a	n/a	n/a	n/a	n/a	n/a	n/a	n/a	n/a	n/a	n/a	n/a	n/a	n/a	n/a	n/a
440.152	n/a	WORD	220076	wordpools/wasnorm_wordpool_less_exclusions.txt	LTP190	ltpFR	12	1	0	SALESMAN	1225	n/a	n/a	1	n/a	0	0	0	0.422607421875	0.5869140625	0	upper	zerothre.ttf
443.164	n/a	START	221582	n/a	LTP190	ltpFR	12	n/a	n/a	n/a	n/a	n/a	n/a	n/a	n/a	n/a	n/a	n/a	n/a	n/a	n/a	n/a	n/a
444.118	n/a	PROB	222059	n/a	LTP190	ltpFR	12	n/a	n/a	n/a	n/a	n/a	n/a	n/a	16	1	6	9	n/a	n/a	n/a	n/a	n/a
445.942	n/a	PROB	222971	n/a	LTP190	ltpFR	12	n/a	n/a	n/a	n/a	n/a	n/a	n/a	17	4	7	6	n/a	n/a	n/a	n/a	n/a
447.804	n/a	PROB	223902	n/a	LTP190	ltpFR	12	n/a	n/a	n/a	n/a	n/a	n/a	n/a	11	8	1	2	n/a	n/a	n/a	n/a	n/a
451.148	n/a	STOP	225574	n/a	LTP190	ltpFR	12	n/a	n/a	n/a	n/a	n/a	n/a	n/a	n/a	n/a	n/a	n/a	n/a	n/a	n/a	n/a	n/a
452.322	n/a	WORD	226161	wordpools/wasnorm_wordpool_less_exclusions.txt	LTP190	ltpFR	12	1	0	RADIATOR	1156	n/a	n/a	1	n/a	0	0	0	0.422607421875	0.5869140625	0	upper	zerothre.ttf
455.334	n/a	START	227667	n/a	LTP190	ltpFR	12	n/a	n/a	n/a	n/a	n/a	n/a	n/a	n/a	n/a	n/a	n/a	n/a	n/a	n/a	n/a	n/a
456.472	n/a	PROB	228236	n/a	LTP190	ltpFR	12	n/a	n/a	n/a	n/a	n/a	n/a	n/a	12	4	2	6	n/a	n/a	n/a	n/a	n/a
458.138	n/a	PROB	229069	n/a	LTP190	ltpFR	12	n/a	n/a	n/a	n/a	n/a	n/a	n/a	9	1	6	2	n/a	n/a	n/a	n/a	n/a
459.444	n/a	PROB	229722	n/a	LTP190	ltpFR	12	n/a	n/a	n/a	n/a	n/a	n/a	n/a	11	1	5	5	n/a	n/a	n/a	n/a	n/a
463.334	n/a	STOP	231667	n/a	LTP190	ltpFR	12	n/a	n/a	n/a	n/a	n/a	n/a	n/a	n/a	n/a	n/a	n/a	n/a	n/a	n/a	n/a	n/a
464.352	n/a	WORD	232176	wordpools/wasnorm_wordpool_less_exclusions.txt	LTP190	ltpFR	12	1	0	ORCHESTRA	981	n/a	n/a	1	n/a	0	0	0	0.422607421875	0.5869140625	0	upper	zerothre.ttf
467.364	n/a	START	233682	n/a	LTP190	ltpFR	12	n/a	n/a	n/a	n/a	n/a	n/a	n/a	n/a	n/a	n/a	n/a	n/a	n/a	n/a	n/a	n/a
468.55	n/a	PROB	234275	n/a	LTP190	ltpFR	12	n/a	n/a	n/a	n/a	n/a	n/a	n/a	16	3	6	7	n/a	n/a	n/a	n/a	n/a
470.318	n/a	PROB	235159	n/a	LTP190	ltpFR	12	n/a	n/a	n/a	n/a	n/a	n/a	n/a	9	2	4	3	n/a	n/a	n/a	n/a	n/a
471.662	n/a	PROB	235831	n/a	LTP190	ltpFR	12	n/a	n/a	n/a	n/a	n/a	n/a	n/a	6	4	1	1	n/a	n/a	n/a	n/a	n/a
472.978	n/a	PROB	236489	n/a	LTP190	ltpFR	12	n/a	n/a	n/a	n/a	n/a	n/a	n/a	16	9	6	1	n/a	n/a	n/a	n/a	n/a
474.246	n/a	STOP	237123	n/a	LTP190	ltpFR	12	n/a	n/a	n/a	n/a	n/a	n/a	n/a	n/a	n/a	n/a	n/a	n/a	n/a	n/a	n/a	n/a
476.576	n/a	WORD	238288	wordpools/wasnorm_wordpool_less_exclusions.txt	LTP190	ltpFR	12	1	0	BAND	78	n/a	n/a	1	n/a	0	0	0	0.422607421875	0.5869140625	0	upper	zerothre.ttf
479.588	n/a	START	239794	n/a	LTP190	ltpFR	12	n/a	n/a	n/a	n/a	n/a	n/a	n/a	n/a	n/a	n/a	n/a	n/a	n/a	n/a	n/a	n/a
480.396	n/a	PROB	240198	n/a	LTP190	ltpFR	12	n/a	n/a	n/a	n/a	n/a	n/a	n/a	15	5	7	3	n/a	n/a	n/a	n/a	n/a
482.37	n/a	PROB	241185	n/a	LTP190	ltpFR	12	n/a	n/a	n/a	n/a	n/a	n/a	n/a	15	4	4	7	n/a	n/a	n/a	n/a	n/a
484.522	n/a	PROB	242261	n/a	LTP190	ltpFR	12	n/a	n/a	n/a	n/a	n/a	n/a	n/a	17	7	5	5	n/a	n/a	n/a	n/a	n/a
487.288	n/a	STOP	243644	n/a	LTP190	ltpFR	12	n/a	n/a	n/a	n/a	n/a	n/a	n/a	n/a	n/a	n/a	n/a	n/a	n/a	n/a	n/a	n/a
488.71	n/a	WORD	244355	wordpools/wasnorm_wordpool_less_exclusions.txt	LTP190	ltpFR	12	1	0	BALL	73	n/a	n/a	0	n/a	0	0	0	0.422607421875	0.5869140625	0	upper	zerothre.ttf
491.724	n/a	START	245862	n/a	LTP190	ltpFR	12	n/a	n/a	n/a	n/a	n/a	n/a	n/a	n/a	n/a	n/a	n/a	n/a	n/a	n/a	n/a	n/a
492.904	n/a	PROB	246452	n/a	LTP190	ltpFR	12	n/a	n/a	n/a	n/a	n/a	n/a	n/a	19	7	7	5	n/a	n/a	n/a	n/a	n/a
494.912	n/a	PROB	247456	n/a	LTP190	ltpFR	12	n/a	n/a	n/a	n/a	n/a	n/a	n/a	13	3	7	3	n/a	n/a	n/a	n/a	n/a
496.484	n/a	PROB	248242	n/a	LTP190	ltpFR	12	n/a	n/a	n/a	n/a	n/a	n/a	n/a	22	8	7	7	n/a	n/a	n/a	n/a	n/a
499.4	n/a	STOP	249700	n/a	LTP190	ltpFR	12	n/a	n/a	n/a	n/a	n/a	n/a	n/a	n/a	n/a	n/a	n/a	n/a	n/a	n/a	n/a	n/a
500.89	n/a	WORD	250445	wordpools/wasnorm_wordpool_less_exclusions.txt	LTP190	ltpFR	12	1	0	BALCONY	72	n/a	n/a	1	n/a	0	0	0	0.422607421875	0.5869140625	0	upper	zerothre.ttf
503.902	n/a	START	251951	n/a	LTP190	ltpFR	12	n/a	n/a	n/a	n/a	n/a	n/a	n/a	n/a	n/a	n/a	n/a	n/a	n/a	n/a	n/a	n/a
504.972	n/a	PROB	252486	n/a	LTP190	ltpFR	12	n/a	n/a	n/a	n/a	n/a	n/a	n/a	8	3	4	1	n/a	n/a	n/a	n/a	n/a
506.472	n/a	PROB	253236	n/a	LTP190	ltpFR	12	n/a	n/a	n/a	n/a	n/a	n/a	n/a	14	2	5	7	n/a	n/a	n/a	n/a	n/a
508.178	n/a	PROB	254089	n/a	LTP190	ltpFR	12	n/a	n/a	n/a	n/a	n/a	n/a	n/a	12	3	7	2	n/a	n/a	n/a	n/a	n/a
509.936	n/a	PROB	254968	n/a	LTP190	ltpFR	12	n/a	n/a	n/a	n/a	n/a	n/a	n/a	16	2	8	6	n/a	n/a	n/a	n/a	n/a
511.576	n/a	STOP	255788	n/a	LTP190	ltpFR	12	n/a	n/a	n/a	n/a	n/a	n/a	n/a	n/a	n/a	n/a	n/a	n/a	n/a	n/a	n/a	n/a
513.122	n/a	WORD	256561	wordpools/wasnorm_wordpool_less_exclusions.txt	LTP190	ltpFR	12	1	0	CAMERA	224	n/a	n/a	0	n/a	0	0	0	0.422607421875	0.5869140625	0	upper	zerothre.ttf
516.134	n/a	START	258067	n/a	LTP190	ltpFR	12	n/a	n/a	n/a	n/a	n/a	n/a	n/a	n/a	n/a	n/a	n/a	n/a	n/a	n/a	n/a	n/a
517.204	n/a	PROB	258602	n/a	LTP190	ltpFR	12	n/a	n/a	n/a	n/a	n/a	n/a	n/a	11	2	3	6	n/a	n/a	n/a	n/a	n/a
518.976	n/a	PROB	259488	n/a	LTP190	ltpFR	12	n/a	n/a	n/a	n/a	n/a	n/a	n/a	23	8	8	7	n/a	n/a	n/a	n/a	n/a
521.922	n/a	PROB	260961	n/a	LTP190	ltpFR	12	n/a	n/a	n/a	n/a	n/a	n/a	n/a	15	2	6	7	n/a	n/a	n/a	n/a	n/a
523.64	n/a	STOP	261820	n/a	LTP190	ltpFR	12	n/a	n/a	n/a	n/a	n/a	n/a	n/a	n/a	n/a	n/a	n/a	n/a	n/a	n/a	n/a	n/a
525.026	n/a	WORD	262513	wordpools/wasnorm_wordpool_less_exclusions.txt	LTP190	ltpFR	12	1	0	BASKET	95	n/a	n/a	0	n/a	0	0	0	0.422607421875	0.5869140625	0	upper	zerothre.ttf
528.04	n/a	START	264020	n/a	LTP190	ltpFR	12	n/a	n/a	n/a	n/a	n/a	n/a	n/a	n/a	n/a	n/a	n/a	n/a	n/a	n/a	n/a	n/a
529.016	n/a	PROB	264508	n/a	LTP190	ltpFR	12	n/a	n/a	n/a	n/a	n/a	n/a	n/a	17	1	7	9	n/a	n/a	n/a	n/a	n/a
531.14	n/a	PROB	265570	n/a	LTP190	ltpFR	12	n/a	n/a	n/a	n/a	n/a	n/a	n/a	6	1	1	4	n/a	n/a	n/a	n/a	n/a
532.362	n/a	PROB	266181	n/a	LTP190	ltpFR	12	n/a	n/a	n/a	n/a	n/a	n/a	n/a	16	4	7	5	n/a	n/a	n/a	n/a	n/a
536.04	n/a	STOP	268020	n/a	LTP190	ltpFR	12	n/a	n/a	n/a	n/a	n/a	n/a	n/a	n/a	n/a	n/a	n/a	n/a	n/a	n/a	n/a	n/a
537.08	n/a	WORD	268540	wordpools/wasnorm_wordpool_less_exclusions.txt	LTP190	ltpFR	12	1	0	ONION	977	n/a	n/a	0	n/a	0	0	0	0.422607421875	0.5869140625	0	upper	zerothre.ttf
540.09	n/a	START	270045	n/a	LTP190	ltpFR	12	n/a	n/a	n/a	n/a	n/a	n/a	n/a	n/a	n/a	n/a	n/a	n/a	n/a	n/a	n/a	n/a
540.928	n/a	PROB	270464	n/a	LTP190	ltpFR	12	n/a	n/a	n/a	n/a	n/a	n/a	n/a	16	1	5	9	n/a	n/a	n/a	n/a	n/a
542.894	n/a	PROB	271447	n/a	LTP190	ltpFR	12	n/a	n/a	n/a	n/a	n/a	n/a	n/a	17	8	5	4	n/a	n/a	n/a	n/a	n/a
545.37	n/a	PROB	272685	n/a	LTP190	ltpFR	12	n/a	n/a	n/a	n/a	n/a	n/a	n/a	13	1	8	3	n/a	n/a	n/a	n/a	n/a
547.082	n/a	STOP	273541	n/a	LTP190	ltpFR	12	n/a	n/a	n/a	n/a	n/a	n/a	n/a	n/a	n/a	n/a	n/a	n/a	n/a	n/a	n/a	n/a
550.006	n/a	REC_START	275003	n/a	LTP190	ltpFR	12	1	n/a	n/a	n/a	n/a	n/a	n/a	n/a	0	0	0	n/a	n/a	n/a	n/a	n/a
551.462	n/a	REC_WORD	275731	wordpools/wasnorm_wordpool_less_exclusions.txt	LTP190	ltpFR	12	1	0	BALLERINA	74	n/a	n/a	1	n/a	0	0	0	n/a	n/a	n/a	n/a	n/a
552.476	n/a	REC_WORD	276238	wordpools/wasnorm_wordpool_less_exclusions.txt	LTP190	ltpFR	12	1	0	BALL	73	n/a	n/a	0	n/a	0	0	0	n/a	n/a	n/a	n/a	n/a
553.15	n/a	REC_WORD	276575	wordpools/wasnorm_wordpool_less_exclusions.txt	LTP190	ltpFR	12	1	0	MERMAID	887	n/a	n/a	n/a	n/a	0	0	0	n/a	n/a	n/a	n/a	n/a
554.122	n/a	REC_WORD	277061	wordpools/wasnorm_wordpool_less_exclusions.txt	LTP190	ltpFR	12	1	0	BASKET	95	n/a	n/a	0	n/a	0	0	0	n/a	n/a	n/a	n/a	n/a
555.264	n/a	REC_WORD	277632	wordpools/wasnorm_wordpool_less_exclusions.txt	LTP190	ltpFR	12	1	0	BUILDING	191	n/a	n/a	1	n/a	0	0	0	n/a	n/a	n/a	n/a	n/a
563.272	n/a	REC_WORD	281636	wordpools/wasnorm_wordpool_less_exclusions.txt	LTP190	ltpFR	12	1	0	ONION	977	n/a	n/a	0	n/a	0	0	0	n/a	n/a	n/a	n/a	n/a
599.776	n/a	REC_WORD	299888	wordpools/wasnorm_wordpool_less_exclusions.txt	LTP190	ltpFR	12	1	0	CART	250	n/a	n/a	1	n/a	0	0	0	n/a	n/a	n/a	n/a	n/a
629.694	n/a	WORD	314847	wordpools/wasnorm_wordpool_less_exclusions.txt	LTP190	ltpFR	12	2	1	VET	1560	n/a	n/a	1	n/a	0	0	0	0.57763671875	0.412841796875	1	lower	amplitud.ttf
633.9	n/a	WORD	316950	wordpools/wasnorm_wordpool_less_exclusions.txt	LTP190	ltpFR	12	2	1	AUTHOR	61	n/a	n/a	1	n/a	0	0	0	0.57763671875	0.412841796875	1	lower	amplitud.ttf
637.942	n/a	WORD	318971	wordpools/wasnorm_wordpool_less_exclusions.txt	LTP190	ltpFR	12	2	1	HAMBURGER	679	n/a	n/a	0	n/a	0	0	0	0.57763671875	0.412841796875	1	lower	amplitud.ttf
642.158	n/a	WORD	321079	wordpools/wasnorm_wordpool_less_exclusions.txt	LTP190	ltpFR	12	2	1	SHEEP	1278	n/a	n/a	1	n/a	0	0	0	0.57763671875	0.412841796875	1	lower	amplitud.ttf
646.224	n/a	WORD	323112	wordpools/wasnorm_wordpool_less_exclusions.txt	LTP190	ltpFR	12	2	1	ZOO	1637	n/a	n/a	1	n/a	0	0	0	0.57763671875	0.412841796875	1	lower	amplitud.ttf
650.422	n/a	WORD	325211	wordpools/wasnorm_wordpool_less_exclusions.txt	LTP190	ltpFR	12	2	1	STEAM	1375	n/a	n/a	0	n/a	0	0	0	0.57763671875	0.412841796875	1	lower	amplitud.ttf
654.344	n/a	WORD	327172	wordpools/wasnorm_wordpool_less_exclusions.txt	LTP190	ltpFR	12	2	1	RECIPE	1175	n/a	n/a	0	n/a	0	0	0	0.57763671875	0.412841796875	1	lower	amplitud.ttf
658.336	n/a	WORD	329168	wordpools/wasnorm_wordpool_less_exclusions.txt	LTP190	ltpFR	12	2	1	WORKER	1621	n/a	n/a	1	n/a	0	0	0	0.57763671875	0.412841796875	1	lower	amplitud.ttf
662.386	n/a	WORD	331193	wordpools/wasnorm_wordpool_less_exclusions.txt	LTP190	ltpFR	12	2	1	RELISH	1183	n/a	n/a	1	n/a	0	0	0	0.57763671875	0.412841796875	1	lower	amplitud.ttf
666.234	n/a	WORD	333117	wordpools/wasnorm_wordpool_less_exclusions.txt	LTP190	ltpFR	12	2	1	QUILT	1151	n/a	n/a	0	n/a	0	0	0	0.57763671875	0.412841796875	1	lower	amplitud.ttf
670.114	n/a	WORD	335057	wordpools/wasnorm_wordpool_less_exclusions.txt	LTP190	ltpFR	12	2	1	BEDROOM	111	n/a	n/a	0	n/a	0	0	0	0.57763671875	0.412841796875	1	lower	amplitud.ttf
674.164	n/a	WORD	337082	wordpools/wasnorm_wordpool_less_exclusions.txt	LTP190	ltpFR	12	2	1	CLERK	321	n/a	n/a	1	n/a	0	0	0	0.57763671875	0.412841796875	1	lower	amplitud.ttf
678.168	n/a	WORD	339084	wordpools/wasnorm_wordpool_less_exclusions.txt	LTP190	ltpFR	12	2	1	BULL	193	n/a	n/a	1	n/a	0	0	0	0.57763671875	0.412841796875	1	lower	amplitud.ttf
682.178	n/a	WORD	341089	wordpools/wasnorm_wordpool_less_exclusions.txt	LTP190	ltpFR	12	2	1	CATTLE	261	n/a	n/a	1	n/a	0	0	0	0.57763671875	0.412841796875	1	lower	amplitud.ttf
686.06	n/a	WORD	343030	wordpools/wasnorm_wordpool_less_exclusions.txt	LTP190	ltpFR	12	2	1	BIKE	125	n/a	n/a	0	n/a	0	0	0	0.57763671875	0.412841796875	1	lower	amplitud.ttf
690.098	n/a	WORD	345049	wordpools/wasnorm_wordpool_less_exclusions.txt	LTP190	ltpFR	12	2	1	LIMOUSINE	824	n/a	n/a	0	n/a	0	0	0	0.57763671875	0.412841796875	1	lower	amplitud.ttf
693.108	n/a	START	346554	n/a	LTP190	ltpFR	12	n/a	n/a	n/a	n/a	n/a	n/a	n/a	n/a	n/a	n/a	n/a	n/a	n/a	n/a	n/a	n/a
693.972	n/a	PROB	346986	n/a	LTP190	ltpFR	12	n/a	n/a	n/a	n/a	n/a	n/a	n/a	20	5	6	9	n/a	n/a	n/a	n/a	n/a
695.752	n/a	PROB	347876	n/a	LTP190	ltpFR	12	n/a	n/a	n/a	n/a	n/a	n/a	n/a	16	6	4	5	n/a	n/a	n/a	n/a	n/a
697.42	n/a	PROB	348710	n/a	LTP190	ltpFR	12	n/a	n/a	n/a	n/a	n/a	n/a	n/a	8	2	2	4	n/a	n/a	n/a	n/a	n/a
698.86	n/a	PROB	349430	n/a	LTP190	ltpFR	12	n/a	n/a	n/a	n/a	n/a	n/a	n/a	4	1	2	1	n/a	n/a	n/a	n/a	n/a
699.986	n/a	STOP	349993	n/a	LTP190	ltpFR	12	n/a	n/a	n/a	n/a	n/a	n/a	n/a	n/a	n/a	n/a	n/a	n/a	n/a	n/a	n/a	n/a
703.014	n/a	REC_START	351507	n/a	LTP190	ltpFR	12	2	n/a	n/a	n/a	n/a	n/a	n/a	n/a	0	0	0	n/a	n/a	n/a	n/a	n/a
705.568	n/a	REC_WORD	352784	wordpools/wasnorm_wordpool_less_exclusions.txt	LTP190	ltpFR	12	2	1	WORKER	1621	n/a	n/a	1	n/a	0	0	0	n/a	n/a	n/a	n/a	n/a
706.356	n/a	REC_WORD	353178	wordpools/wasnorm_wordpool_less_exclusions.txt	LTP190	ltpFR	12	2	1	BULL	193	n/a	n/a	1	n/a	0	0	0	n/a	n/a	n/a	n/a	n/a
707.49	n/a	REC_WORD	353745	wordpools/wasnorm_wordpool_less_exclusions.txt	LTP190	ltpFR	12	2	1	CATTLE	261	n/a	n/a	1	n/a	0	0	0	n/a	n/a	n/a	n/a	n/a
708.382	n/a	REC_WORD	354191	wordpools/wasnorm_wordpool_less_exclusions.txt	LTP190	ltpFR	12	2	1	VET	1560	n/a	n/a	1	n/a	0	0	0	n/a	n/a	n/a	n/a	n/a
716.106	n/a	REC_WORD	358053	wordpools/wasnorm_wordpool_less_exclusions.txt	LTP190	ltpFR	12	2	1	ZOO	1637	n/a	n/a	1	n/a	0	0	0	n/a	n/a	n/a	n/a	n/a
736.944	n/a	REC_WORD	368472	wordpools/wasnorm_wordpool_less_exclusions.txt	LTP190	ltpFR	12	2	1	CLERK	321	n/a	n/a	1	n/a	0	0	0	n/a	n/a	n/a	n/a	n/a
740.342	n/a	REC_WORD	370171	wordpools/wasnorm_wordpool_less_exclusions.txt	LTP190	ltpFR	12	2	1	AUTHOR	61	n/a	n/a	1	n/a	0	0	0	n/a	n/a	n/a	n/a	n/a
786.928	n/a	START	393464	n/a	LTP190	ltpFR	12	n/a	n/a	n/a	n/a	n/a	n/a	n/a	n/a	n/a	n/a	n/a	n/a	n/a	n/a	n/a	n/a
788.44	n/a	PROB	394220	n/a	LTP190	ltpFR	12	n/a	n/a	n/a	n/a	n/a	n/a	n/a	17	2	9	6	n/a	n/a	n/a	n/a	n/a
791.078	n/a	PROB	395539	n/a	LTP190	ltpFR	12	n/a	n/a	n/a	n/a	n/a	n/a	n/a	19	8	3	8	n/a	n/a	n/a	n/a	n/a
793.152	n/a	PROB	396576	n/a	LTP190	ltpFR	12	n/a	n/a	n/a	n/a	n/a	n/a	n/a	13	1	3	9	n/a	n/a	n/a	n/a	n/a
794.408	n/a	STOP	397204	n/a	LTP190	ltpFR	12	n/a	n/a	n/a	n/a	n/a	n/a	n/a	n/a	n/a	n/a	n/a	n/a	n/a	n/a	n/a	n/a
796.152	n/a	WORD	398076	wordpools/wasnorm_wordpool_less_exclusions.txt	LTP190	ltpFR	12	3	1	SILVERWARE	1308	n/a	n/a	0	n/a	0	0	0	0.57763671875	0.412841796875	1	lower	amplitud.ttf
799.164	n/a	START	399582	n/a	LTP190	ltpFR	12	n/a	n/a	n/a	n/a	n/a	n/a	n/a	n/a	n/a	n/a	n/a	n/a	n/a	n/a	n/a	n/a
800.212	n/a	PROB	400106	n/a	LTP190	ltpFR	12	n/a	n/a	n/a	n/a	n/a	n/a	n/a	21	9	6	6	n/a	n/a	n/a	n/a	n/a
802.62	n/a	PROB	401310	n/a	LTP190	ltpFR	12	n/a	n/a	n/a	n/a	n/a	n/a	n/a	12	1	6	5	n/a	n/a	n/a	n/a	n/a
803.942	n/a	PROB	401971	n/a	LTP190	ltpFR	12	n/a	n/a	n/a	n/a	n/a	n/a	n/a	14	5	6	3	n/a	n/a	n/a	n/a	n/a
805.592	n/a	STOP	402796	n/a	LTP190	ltpFR	12	n/a	n/a	n/a	n/a	n/a	n/a	n/a	n/a	n/a	n/a	n/a	n/a	n/a	n/a	n/a	n/a
808.082	n/a	WORD	404041	wordpools/wasnorm_wordpool_less_exclusions.txt	LTP190	ltpFR	12	3	1	ZUCCHINI	1638	n/a	n/a	1	n/a	0	0	0	0.57763671875	0.412841796875	1	lower	amplitud.ttf
811.094	n/a	START	405547	n/a	LTP190	ltpFR	12	n/a	n/a	n/a	n/a	n/a	n/a	n/a	n/a	n/a	n/a	n/a	n/a	n/a	n/a	n/a	n/a
811.924	n/a	PROB	405962	n/a	LTP190	ltpFR	12	n/a	n/a	n/a	n/a	n/a	n/a	n/a	15	1	6	5	n/a	n/a	n/a	n/a	n/a
813.328	n/a	PROB	406664	n/a	LTP190	ltpFR	12	n/a	n/a	n/a	n/a	n/a	n/a	n/a	16	7	5	4	n/a	n/a	n/a	n/a	n/a
816.39	n/a	PROB	408195	n/a	LTP190	ltpFR	12	n/a	n/a	n/a	n/a	n/a	n/a	n/a	21	8	6	7	n/a	n/a	n/a	n/a	n/a
818.744	n/a	STOP	409372	n/a	LTP190	ltpFR	12	n/a	n/a	n/a	n/a	n/a	n/a	n/a	n/a	n/a	n/a	n/a	n/a	n/a	n/a	n/a	n/a
820.262	n/a	WORD	410131	wordpools/wasnorm_wordpool_less_exclusions.txt	LTP190	ltpFR	12	3	0	PEDAL	1037	n/a	n/a	1	n/a	0	0	0	0.422607421875	0.5869140625	0	upper	zerothre.ttf
823.274	n/a	START	411637	n/a	LTP190	ltpFR	12	n/a	n/a	n/a	n/a	n/a	n/a	n/a	n/a	n/a	n/a	n/a	n/a	n/a	n/a	n/a	n/a
824.26	n/a	PROB	412130	n/a	LTP190	ltpFR	12	n/a	n/a	n/a	n/a	n/a	n/a	n/a	15	2	4	9	n/a	n/a	n/a	n/a	n/a
827.366	n/a	PROB	413683	n/a	LTP190	ltpFR	12	n/a	n/a	n/a	n/a	n/a	n/a	n/a	19	8	3	8	n/a	n/a	n/a	n/a	n/a
828.956	n/a	PROB	414478	n/a	LTP190	ltpFR	12	n/a	n/a	n/a	n/a	n/a	n/a	n/a	8	4	1	3	n/a	n/a	n/a	n/a	n/a
830.106	n/a	STOP	415053	n/a	LTP190	ltpFR	12	n/a	n/a	n/a	n/a	n/a	n/a	n/a	n/a	n/a	n/a	n/a	n/a	n/a	n/a	n/a	n/a
832.374	n/a	WORD	416187	wordpools/wasnorm_wordpool_less_exclusions.txt	LTP190	ltpFR	12	3	0	SWORD	1423	n/a	n/a	1	n/a	0	0	0	0.422607421875	0.5869140625	0	upper	zerothre.ttf
835.386	n/a	START	417693	n/a	LTP190	ltpFR	12	n/a	n/a	n/a	n/a	n/a	n/a	n/a	n/a	n/a	n/a	n/a	n/a	n/a	n/a	n/a	n/a
836.256	n/a	PROB	418128	n/a	LTP190	ltpFR	12	n/a	n/a	n/a	n/a	n/a	n/a	n/a	13	2	6	5	n/a	n/a	n/a	n/a	n/a
838.374	n/a	PROB	419187	n/a	LTP190	ltpFR	12	n/a	n/a	n/a	n/a	n/a	n/a	n/a	18	9	7	2	n/a	n/a	n/a	n/a	n/a
839.88	n/a	PROB	419940	n/a	LTP190	ltpFR	12	n/a	n/a	n/a	n/a	n/a	n/a	n/a	7	1	2	4	n/a	n/a	n/a	n/a	n/a
843.386	n/a	STOP	421693	n/a	LTP190	ltpFR	12	n/a	n/a	n/a	n/a	n/a	n/a	n/a	n/a	n/a	n/a	n/a	n/a	n/a	n/a	n/a	n/a
844.264	n/a	WORD	422132	wordpools/wasnorm_wordpool_less_exclusions.txt	LTP190	ltpFR	12	3	0	FISH	571	n/a	n/a	1	n/a	0	0	0	0.422607421875	0.5869140625	0	upper	zerothre.ttf
847.282	n/a	START	423641	n/a	LTP190	ltpFR	12	n/a	n/a	n/a	n/a	n/a	n/a	n/a	n/a	n/a	n/a	n/a	n/a	n/a	n/a	n/a	n/a
848.268	n/a	PROB	424134	n/a	LTP190	ltpFR	12	n/a	n/a	n/a	n/a	n/a	n/a	n/a	17	1	7	9	n/a	n/a	n/a	n/a	n/a
849.734	n/a	PROB	424867	n/a	LTP190	ltpFR	12	n/a	n/a	n/a	n/a	n/a	n/a	n/a	12	4	2	6	n/a	n/a	n/a	n/a	n/a
851.614	n/a	PROB	425807	n/a	LTP190	ltpFR	12	n/a	n/a	n/a	n/a	n/a	n/a	n/a	16	1	6	9	n/a	n/a	n/a	n/a	n/a
853.97	n/a	STOP	426985	n/a	LTP190	ltpFR	12	n/a	n/a	n/a	n/a	n/a	n/a	n/a	n/a	n/a	n/a	n/a	n/a	n/a	n/a	n/a	n/a
856.394	n/a	WORD	428197	wordpools/wasnorm_wordpool_less_exclusions.txt	LTP190	ltpFR	12	3	0	STEW	1380	n/a	n/a	1	n/a	0	0	0	0.422607421875	0.5869140625	0	upper	zerothre.ttf
859.406	n/a	START	429703	n/a	LTP190	ltpFR	12	n/a	n/a	n/a	n/a	n/a	n/a	n/a	n/a	n/a	n/a	n/a	n/a	n/a	n/a	n/a	n/a
860.498	n/a	PROB	430249	n/a	LTP190	ltpFR	12	n/a	n/a	n/a	n/a	n/a	n/a	n/a	19	9	8	2	n/a	n/a	n/a	n/a	n/a
862.272	n/a	PROB	431136	n/a	LTP190	ltpFR	12	n/a	n/a	n/a	n/a	n/a	n/a	n/a	9	1	6	2	n/a	n/a	n/a	n/a	n/a
867.406	n/a	STOP	433703	n/a	LTP190	ltpFR	12	n/a	n/a	n/a	n/a	n/a	n/a	n/a	n/a	n/a	n/a	n/a	n/a	n/a	n/a	n/a	n/a
868.624	n/a	WORD	434312	wordpools/wasnorm_wordpool_less_exclusions.txt	LTP190	ltpFR	12	3	1	SISTER	1312	n/a	n/a	1	n/a	0	0	0	0.57763671875	0.412841796875	1	lower	amplitud.ttf
871.636	n/a	START	435818	n/a	LTP190	ltpFR	12	n/a	n/a	n/a	n/a	n/a	n/a	n/a	n/a	n/a	n/a	n/a	n/a	n/a	n/a	n/a	n/a
872.472	n/a	PROB	436236	n/a	LTP190	ltpFR	12	n/a	n/a	n/a	n/a	n/a	n/a	n/a	18	6	5	7	n/a	n/a	n/a	n/a	n/a
874.362	n/a	PROB	437181	n/a	LTP190	ltpFR	12	n/a	n/a	n/a	n/a	n/a	n/a	n/a	10	5	1	4	n/a	n/a	n/a	n/a	n/a
875.918	n/a	PROB	437959	n/a	LTP190	ltpFR	12	n/a	n/a	n/a	n/a	n/a	n/a	n/a	17	4	8	5	n/a	n/a	n/a	n/a	n/a
877.892	n/a	PROB	438946	n/a	LTP190	ltpFR	12	n/a	n/a	n/a	n/a	n/a	n/a	n/a	20	5	6	9	n/a	n/a	n/a	n/a	n/a
879.196	n/a	STOP	439598	n/a	LTP190	ltpFR	12	n/a	n/a	n/a	n/a	n/a	n/a	n/a	n/a	n/a	n/a	n/a	n/a	n/a	n/a	n/a	n/a
880.842	n/a	WORD	440421	wordpools/wasnorm_wordpool_less_exclusions.txt	LTP190	ltpFR	12	3	1	FATHER	554	n/a	n/a	1	n/a	0	0	0	0.57763671875	0.412841796875	1	lower	amplitud.ttf
883.856	n/a	START	441928	n/a	LTP190	ltpFR	12	n/a	n/a	n/a	n/a	n/a	n/a	n/a	n/a	n/a	n/a	n/a	n/a	n/a	n/a	n/a	n/a
884.674	n/a	PROB	442337	n/a	LTP190	ltpFR	12	n/a	n/a	n/a	n/a	n/a	n/a	n/a	15	2	9	4	n/a	n/a	n/a	n/a	n/a
886.432	n/a	PROB	443216	n/a	LTP190	ltpFR	12	n/a	n/a	n/a	n/a	n/a	n/a	n/a	13	2	7	3	n/a	n/a	n/a	n/a	n/a
888.138	n/a	PROB	444069	n/a	LTP190	ltpFR	12	n/a	n/a	n/a	n/a	n/a	n/a	n/a	14	3	3	8	n/a	n/a	n/a	n/a	n/a
891.856	n/a	STOP	445928	n/a	LTP190	ltpFR	12	n/a	n/a	n/a	n/a	n/a	n/a	n/a	n/a	n/a	n/a	n/a	n/a	n/a	n/a	n/a	n/a
892.698	n/a	WORD	446349	wordpools/wasnorm_wordpool_less_exclusions.txt	LTP190	ltpFR	12	3	0	SHINGLE	1285	n/a	n/a	1	n/a	0	0	0	0.422607421875	0.5869140625	0	upper	zerothre.ttf
895.71	n/a	START	447855	n/a	LTP190	ltpFR	12	n/a	n/a	n/a	n/a	n/a	n/a	n/a	n/a	n/a	n/a	n/a	n/a	n/a	n/a	n/a	n/a
896.788	n/a	PROB	448394	n/a	LTP190	ltpFR	12	n/a	n/a	n/a	n/a	n/a	n/a	n/a	16	7	4	5	n/a	n/a	n/a	n/a	n/a
898.794	n/a	PROB	449397	n/a	LTP190	ltpFR	12	n/a	n/a	n/a	n/a	n/a	n/a	n/a	19	9	7	3	n/a	n/a	n/a	n/a	n/a
900.478	n/a	PROB	450239	n/a	LTP190	ltpFR	12	n/a	n/a	n/a	n/a	n/a	n/a	n/a	13	8	3	2	n/a	n/a	n/a	n/a	n/a
902.326	n/a	STOP	451163	n/a	LTP190	ltpFR	12	n/a	n/a	n/a	n/a	n/a	n/a	n/a	n/a	n/a	n/a	n/a	n/a	n/a	n/a	n/a	n/a
904.568	n/a	WORD	452284	wordpools/wasnorm_wordpool_less_exclusions.txt	LTP190	ltpFR	12	3	0	SHELTER	1282	n/a	n/a	1	n/a	0	0	0	0.422607421875	0.5869140625	0	upper	zerothre.ttf
907.58	n/a	START	453790	n/a	LTP190	ltpFR	12	n/a	n/a	n/a	n/a	n/a	n/a	n/a	n/a	n/a	n/a	n/a	n/a	n/a	n/a	n/a	n/a
908.694	n/a	PROB	454347	n/a	LTP190	ltpFR	12	n/a	n/a	n/a	n/a	n/a	n/a	n/a	13	3	8	2	n/a	n/a	n/a	n/a	n/a
911.578	n/a	PROB	455789	n/a	LTP190	ltpFR	12	n/a	n/a	n/a	n/a	n/a	n/a	n/a	15	8	1	6	n/a	n/a	n/a	n/a	n/a
915.578	n/a	STOP	457789	n/a	LTP190	ltpFR	12	n/a	n/a	n/a	n/a	n/a	n/a	n/a	n/a	n/a	n/a	n/a	n/a	n/a	n/a	n/a	n/a
916.522	n/a	WORD	458261	wordpools/wasnorm_wordpool_less_exclusions.txt	LTP190	ltpFR	12	3	0	GARDEN	623	n/a	n/a	1	n/a	0	0	0	0.422607421875	0.5869140625	0	upper	zerothre.ttf
919.534	n/a	START	459767	n/a	LTP190	ltpFR	12	n/a	n/a	n/a	n/a	n/a	n/a	n/a	n/a	n/a	n/a	n/a	n/a	n/a	n/a	n/a	n/a
920.472	n/a	PROB	460236	n/a	LTP190	ltpFR	12	n/a	n/a	n/a	n/a	n/a	n/a	n/a	15	9	3	3	n/a	n/a	n/a	n/a	n/a
922.386	n/a	PROB	461193	n/a	LTP190	ltpFR	12	n/a	n/a	n/a	n/a	n/a	n/a	n/a	14	7	3	4	n/a	n/a	n/a	n/a	n/a
924.588	n/a	PROB	462294	n/a	LTP190	ltpFR	12	n/a	n/a	n/a	n/a	n/a	n/a	n/a	24	9	6	9	n/a	n/a	n/a	n/a	n/a
927.038	n/a	STOP	463519	n/a	LTP190	ltpFR	12	n/a	n/a	n/a	n/a	n/a	n/a	n/a	n/a	n/a	n/a	n/a	n/a	n/a	n/a	n/a	n/a
928.72	n/a	WORD	464360	wordpools/wasnorm_wordpool_less_exclusions.txt	LTP190	ltpFR	12	3	0	BROOK	177	n/a	n/a	1	n/a	0	0	0	0.422607421875	0.5869140625	0	upper	zerothre.ttf
931.732	n/a	START	465866	n/a	LTP190	ltpFR	12	n/a	n/a	n/a	n/a	n/a	n/a	n/a	n/a	n/a	n/a	n/a	n/a	n/a	n/a	n/a	n/a
932.734	n/a	PROB	466367	n/a	LTP190	ltpFR	12	n/a	n/a	n/a	n/a	n/a	n/a	n/a	21	9	4	8	n/a	n/a	n/a	n/a	n/a
936.17	n/a	PROB	468085	n/a	LTP190	ltpFR	12	n/a	n/a	n/a	n/a	n/a	n/a	n/a	16	5	3	8	n/a	n/a	n/a	n/a	n/a
939.732	n/a	STOP	469866	n/a	LTP190	ltpFR	12	n/a	n/a	n/a	n/a	n/a	n/a	n/a	n/a	n/a	n/a	n/a	n/a	n/a	n/a	n/a	n/a
940.874	n/a	WORD	470437	wordpools/wasnorm_wordpool_less_exclusions.txt	LTP190	ltpFR	12	3	1	TWEEZERS	1526	n/a	n/a	1	n/a	0	0	0	0.57763671875	0.412841796875	1	lower	amplitud.ttf
943.884	n/a	START	471942	n/a	LTP190	ltpFR	12	n/a	n/a	n/a	n/a	n/a	n/a	n/a	n/a	n/a	n/a	n/a	n/a	n/a	n/a	n/a	n/a
944.854	n/a	PROB	472427	n/a	LTP190	ltpFR	12	n/a	n/a	n/a	n/a	n/a	n/a	n/a	19	8	6	5	n/a	n/a	n/a	n/a	n/a
947.29	n/a	PROB	473645	n/a	LTP190	ltpFR	12	n/a	n/a	n/a	n/a	n/a	n/a	n/a	11	8	1	2	n/a	n/a	n/a	n/a	n/a
948.696	n/a	PROB	474348	n/a	LTP190	ltpFR	12	n/a	n/a	n/a	n/a	n/a	n/a	n/a	21	9	8	4	n/a	n/a	n/a	n/a	n/a
951.884	n/a	STOP	475942	n/a	LTP190	ltpFR	12	n/a	n/a	n/a	n/a	n/a	n/a	n/a	n/a	n/a	n/a	n/a	n/a	n/a	n/a	n/a	n/a
952.818	n/a	WORD	476409	wordpools/wasnorm_wordpool_less_exclusions.txt	LTP190	ltpFR	12	3	1	TROUT	1511	n/a	n/a	1	n/a	0	0	0	0.57763671875	0.412841796875	1	lower	amplitud.ttf
955.83	n/a	START	477915	n/a	LTP190	ltpFR	12	n/a	n/a	n/a	n/a	n/a	n/a	n/a	n/a	n/a	n/a	n/a	n/a	n/a	n/a	n/a	n/a
956.9	n/a	PROB	478450	n/a	LTP190	ltpFR	12	n/a	n/a	n/a	n/a	n/a	n/a	n/a	14	3	6	5	n/a	n/a	n/a	n/a	n/a
958.758	n/a	PROB	479379	n/a	LTP190	ltpFR	12	n/a	n/a	n/a	n/a	n/a	n/a	n/a	15	6	6	3	n/a	n/a	n/a	n/a	n/a
960.224	n/a	PROB	480112	n/a	LTP190	ltpFR	12	n/a	n/a	n/a	n/a	n/a	n/a	n/a	8	1	2	5	n/a	n/a	n/a	n/a	n/a
961.512	n/a	PROB	480756	n/a	LTP190	ltpFR	12	n/a	n/a	n/a	n/a	n/a	n/a	n/a	149	6	6	7	n/a	n/a	n/a	n/a	n/a
963.254	n/a	STOP	481627	n/a	LTP190	ltpFR	12	n/a	n/a	n/a	n/a	n/a	n/a	n/a	n/a	n/a	n/a	n/a	n/a	n/a	n/a	n/a	n/a
964.948	n/a	WORD	482474	wordpools/wasnorm_wordpool_less_exclusions.txt	LTP190	ltpFR	12	3	1	APPENDAGE	32	n/a	n/a	1	n/a	0	0	0	0.57763671875	0.412841796875	1	lower	amplitud.ttf
967.96	n/a	START	483980	n/a	LTP190	ltpFR	12	n/a	n/a	n/a	n/a	n/a	n/a	n/a	n/a	n/a	n/a	n/a	n/a	n/a	n/a	n/a	n/a
968.974	n/a	PROB	484487	n/a	LTP190	ltpFR	12	n/a	n/a	n/a	n/a	n/a	n/a	n/a	18	8	3	7	n/a	n/a	n/a	n/a	n/a
971.306	n/a	PROB	485653	n/a	LTP190	ltpFR	12	n/a	n/a	n/a	n/a	n/a	n/a	n/a	19	8	9	2	n/a	n/a	n/a	n/a	n/a
972.854	n/a	PROB	486427	n/a	LTP190	ltpFR	12	n/a	n/a	n/a	n/a	n/a	n/a	n/a	12	2	1	9	n/a	n/a	n/a	n/a	n/a
974.53	n/a	STOP	487265	n/a	LTP190	ltpFR	12	n/a	n/a	n/a	n/a	n/a	n/a	n/a	n/a	n/a	n/a	n/a	n/a	n/a	n/a	n/a	n/a
976.988	n/a	WORD	488494	wordpools/wasnorm_wordpool_less_exclusions.txt	LTP190	ltpFR	12	3	1	KNEE	784	n/a	n/a	1	n/a	0	0	0	0.57763671875	0.412841796875	1	lower	amplitud.ttf
980.006	n/a	START	490003	n/a	LTP190	ltpFR	12	n/a	n/a	n/a	n/a	n/a	n/a	n/a	n/a	n/a	n/a	n/a	n/a	n/a	n/a	n/a	n/a
980.96	n/a	PROB	490480	n/a	LTP190	ltpFR	12	n/a	n/a	n/a	n/a	n/a	n/a	n/a	19	4	9	6	n/a	n/a	n/a	n/a	n/a
982.878	n/a	PROB	491439	n/a	LTP190	ltpFR	12	n/a	n/a	n/a	n/a	n/a	n/a	n/a	6	1	1	4	n/a	n/a	n/a	n/a	n/a
984.482	n/a	PROB	492241	n/a	LTP190	ltpFR	12	n/a	n/a	n/a	n/a	n/a	n/a	n/a	6	3	2	1	n/a	n/a	n/a	n/a	n/a
985.678	n/a	PROB	492839	n/a	LTP190	ltpFR	12	n/a	n/a	n/a	n/a	n/a	n/a	n/a	18	3	8	7	n/a	n/a	n/a	n/a	n/a
987.522	n/a	STOP	493761	n/a	LTP190	ltpFR	12	n/a	n/a	n/a	n/a	n/a	n/a	n/a	n/a	n/a	n/a	n/a	n/a	n/a	n/a	n/a	n/a
989.838	n/a	REC_START	494919	n/a	LTP190	ltpFR	12	3	n/a	n/a	n/a	n/a	n/a	n/a	n/a	0	0	0	n/a	n/a	n/a	n/a	n/a
990.686	n/a	REC_WORD	495343	wordpools/wasnorm_wordpool_less_exclusions.txt	LTP190	ltpFR	12	3	1	APPENDAGE	32	n/a	n/a	1	n/a	0	0	0	n/a	n/a	n/a	n/a	n/a
991.634	n/a	REC_WORD	495817	wordpools/wasnorm_wordpool_less_exclusions.txt	LTP190	ltpFR	12	3	1	KNEE	784	n/a	n/a	1	n/a	0	0	0	n/a	n/a	n/a	n/a	n/a
992.402	n/a	REC_WORD	496201	wordpools/wasnorm_wordpool_less_exclusions.txt	LTP190	ltpFR	12	3	1	TROUT	1511	n/a	n/a	1	n/a	0	0	0	n/a	n/a	n/a	n/a	n/a
993.144	n/a	REC_WORD	496572	wordpools/wasnorm_wordpool_less_exclusions.txt	LTP190	ltpFR	12	3	0	FISH	571	n/a	n/a	1	n/a	0	0	0	n/a	n/a	n/a	n/a	n/a
994.112	n/a	REC_WORD	497056	wordpools/wasnorm_wordpool_less_exclusions.txt	LTP190	ltpFR	12	3	1	TWEEZERS	1526	n/a	n/a	1	n/a	0	0	0	n/a	n/a	n/a	n/a	n/a
996.384	n/a	REC_WORD	498192	wordpools/wasnorm_wordpool_less_exclusions.txt	LTP190	ltpFR	12	3	0	SHINGLE	1285	n/a	n/a	1	n/a	0	0	0	n/a	n/a	n/a	n/a	n/a
1007.394	n/a	REC_WORD	503697	wordpools/wasnorm_wordpool_less_exclusions.txt	LTP190	ltpFR	12	3	1	SILVERWARE	1308	n/a	n/a	0	n/a	0	0	0	n/a	n/a	n/a	n/a	n/a
1068.57	n/a	WORD	534285	wordpools/wasnorm_wordpool_less_exclusions.txt	LTP190	ltpFR	12	4	0	MOTEL	919	n/a	n/a	1	n/a	0	0	0	0.422607421875	0.5869140625	0	upper	zerothre.ttf
1072.676	n/a	WORD	536338	wordpools/wasnorm_wordpool_less_exclusions.txt	LTP190	ltpFR	12	4	0	LOBBY	836	n/a	n/a	1	n/a	0	0	0	0.422607421875	0.5869140625	0	upper	zerothre.ttf
1076.686	n/a	WORD	538343	wordpools/wasnorm_wordpool_less_exclusions.txt	LTP190	ltpFR	12	4	0	PEOPLE	1046	n/a	n/a	1	n/a	0	0	0	0.422607421875	0.5869140625	0	upper	zerothre.ttf
1080.774	n/a	WORD	540387	wordpools/wasnorm_wordpool_less_exclusions.txt	LTP190	ltpFR	12	4	0	THRONE	1461	n/a	n/a	1	n/a	0	0	0	0.422607421875	0.5869140625	0	upper	zerothre.ttf
1084.698	n/a	WORD	542349	wordpools/wasnorm_wordpool_less_exclusions.txt	LTP190	ltpFR	12	4	1	BLUEPRINT	142	n/a	n/a	1	n/a	0	0	0	0.57763671875	0.412841796875	1	lower	amplitud.ttf
1088.904	n/a	WORD	544452	wordpools/wasnorm_wordpool_less_exclusions.txt	LTP190	ltpFR	12	4	1	PALM	1007	n/a	n/a	1	n/a	0	0	0	0.57763671875	0.412841796875	1	lower	amplitud.ttf
1092.872	n/a	WORD	546436	wordpools/wasnorm_wordpool_less_exclusions.txt	LTP190	ltpFR	12	4	1	NAPKIN	937	n/a	n/a	0	n/a	0	0	0	0.57763671875	0.412841796875	1	lower	amplitud.ttf
1096.868	n/a	WORD	548434	wordpools/wasnorm_wordpool_less_exclusions.txt	LTP190	ltpFR	12	4	1	BARK	87	n/a	n/a	0	n/a	0	0	0	0.57763671875	0.412841796875	1	lower	amplitud.ttf
1101.018	n/a	WORD	550509	wordpools/wasnorm_wordpool_less_exclusions.txt	LTP190	ltpFR	12	4	1	PEDESTRIAN	1038	n/a	n/a	1	n/a	0	0	0	0.57763671875	0.412841796875	1	lower	amplitud.ttf
1105.016	n/a	WORD	552508	wordpools/wasnorm_wordpool_less_exclusions.txt	LTP190	ltpFR	12	4	1	WAIST	1579	n/a	n/a	0	n/a	0	0	0	0.57763671875	0.412841796875	1	lower	amplitud.ttf
1109.244	n/a	WORD	554622	wordpools/wasnorm_wordpool_less_exclusions.txt	LTP190	ltpFR	12	4	0	WHIP	1604	n/a	n/a	1	n/a	0	0	0	0.422607421875	0.5869140625	0	upper	zerothre.ttf
1113.074	n/a	WORD	556537	wordpools/wasnorm_wordpool_less_exclusions.txt	LTP190	ltpFR	12	4	0	WOLF	1619	n/a	n/a	1	n/a	0	0	0	0.422607421875	0.5869140625	0	upper	zerothre.ttf
1117.112	n/a	WORD	558556	wordpools/wasnorm_wordpool_less_exclusions.txt	LTP190	ltpFR	12	4	1	DIVER	476	n/a	n/a	n/a	n/a	0	0	0	0.57763671875	0.412841796875	1	lower	amplitud.ttf
1120.158	n/a	SLOW_MSG	560079	n/a	LTP190	ltpFR	12	4	n/a	n/a	n/a	n/a	n/a	n/a	n/a	0	0	0	n/a	n/a	n/a	n/a	n/a
1122.744	n/a	WORD	561372	wordpools/wasnorm_wordpool_less_exclusions.txt	LTP190	ltpFR	12	4	1	DOCUMENT	479	n/a	n/a	1	n/a	0	0	0	0.57763671875	0.412841796875	1	lower	amplitud.ttf
1126.9	n/a	WORD	563450	wordpools/wasnorm_wordpool_less_exclusions.txt	LTP190	ltpFR	12	4	0	CHEST	295	n/a	n/a	1	n/a	0	0	0	0.422607421875	0.5869140625	0	upper	zerothre.ttf
1130.832	n/a	WORD	565416	wordpools/wasnorm_wordpool_less_exclusions.txt	LTP190	ltpFR	12	4	0	UNDERWEAR	1537	n/a	n/a	1	n/a	0	0	0	0.422607421875	0.5869140625	0	upper	zerothre.ttf
1133.844	n/a	START	566922	n/a	LTP190	ltpFR	12	n/a	n/a	n/a	n/a	n/a	n/a	n/a	n/a	n/a	n/a	n/a	n/a	n/a	n/a	n/a	n/a
1134.814	n/a	PROB	567407	n/a	LTP190	ltpFR	12	n/a	n/a	n/a	n/a	n/a	n/a	n/a	6	1	4	1	n/a	n/a	n/a	n/a	n/a
1136.352	n/a	PROB	568176	n/a	LTP190	ltpFR	12	n/a	n/a	n/a	n/a	n/a	n/a	n/a	14	4	9	1	n/a	n/a	n/a	n/a	n/a
1138.22	n/a	PROB	569110	n/a	LTP190	ltpFR	12	n/a	n/a	n/a	n/a	n/a	n/a	n/a	17	5	7	5	n/a	n/a	n/a	n/a	n/a
1140.078	n/a	PROB	570039	n/a	LTP190	ltpFR	12	n/a	n/a	n/a	n/a	n/a	n/a	n/a	11	5	4	2	n/a	n/a	n/a	n/a	n/a
1141.33	n/a	STOP	570665	n/a	LTP190	ltpFR	12	n/a	n/a	n/a	n/a	n/a	n/a	n/a	n/a	n/a	n/a	n/a	n/a	n/a	n/a	n/a	n/a
1143.724	n/a	REC_START	571862	n/a	LTP190	ltpFR	12	4	n/a	n/a	n/a	n/a	n/a	n/a	n/a	0	0	0	n/a	n/a	n/a	n/a	n/a
1174.282	n/a	REC_WORD	587141	wordpools/wasnorm_wordpool_less_exclusions.txt	LTP190	ltpFR	12	4	1	DOCUMENT	479	n/a	n/a	1	n/a	0	0	0	n/a	n/a	n/a	n/a	n/a
1222.744	n/a	WORD	611372	wordpools/wasnorm_wordpool_less_exclusions.txt	LTP190	ltpFR	12	5	1	COACH	331	n/a	n/a	1	n/a	0	0	0	0.57763671875	0.412841796875	1	lower	amplitud.ttf
1226.598	n/a	WORD	613299	wordpools/wasnorm_wordpool_less_exclusions.txt	LTP190	ltpFR	12	5	1	ATHLETE	52	n/a	n/a	1	n/a	0	0	0	0.57763671875	0.412841796875	1	lower	amplitud.ttf
1230.63	n/a	WORD	615315	wordpools/wasnorm_wordpool_less_exclusions.txt	LTP190	ltpFR	12	5	1	SPOOL	1356	n/a	n/a	0	n/a	0	0	0	0.57763671875	0.412841796875	1	lower	amplitud.ttf
1234.722	n/a	WORD	617361	wordpools/wasnorm_wordpool_less_exclusions.txt	LTP190	ltpFR	12	5	1	SWIMMER	1420	n/a	n/a	1	n/a	0	0	0	0.57763671875	0.412841796875	1	lower	amplitud.ttf
1238.754	n/a	WORD	619377	wordpools/wasnorm_wordpool_less_exclusions.txt	LTP190	ltpFR	12	5	1	BATH	98	n/a	n/a	0	n/a	0	0	0	0.57763671875	0.412841796875	1	lower	amplitud.ttf
1242.854	n/a	WORD	621427	wordpools/wasnorm_wordpool_less_exclusions.txt	LTP190	ltpFR	12	5	1	DUSTPAN	509	n/a	n/a	0	n/a	0	0	0	0.57763671875	0.412841796875	1	lower	amplitud.ttf
1247.076	n/a	WORD	623538	wordpools/wasnorm_wordpool_less_exclusions.txt	LTP190	ltpFR	12	5	1	DRESS	495	n/a	n/a	0	n/a	0	0	0	0.57763671875	0.412841796875	1	lower	amplitud.ttf
1251.276	n/a	WORD	625638	wordpools/wasnorm_wordpool_less_exclusions.txt	LTP190	ltpFR	12	5	1	BUG	187	n/a	n/a	0	n/a	0	0	0	0.57763671875	0.412841796875	1	lower	amplitud.ttf
1255.474	n/a	WORD	627737	wordpools/wasnorm_wordpool_less_exclusions.txt	LTP190	ltpFR	12	5	1	SPIDER	1351	n/a	n/a	1	n/a	0	0	0	0.57763671875	0.412841796875	1	lower	amplitud.ttf
1259.508	n/a	WORD	629754	wordpools/wasnorm_wordpool_less_exclusions.txt	LTP190	ltpFR	12	5	1	BUGLE	189	n/a	n/a	0	n/a	0	0	0	0.57763671875	0.412841796875	1	lower	amplitud.ttf
1263.532	n/a	WORD	631766	wordpools/wasnorm_wordpool_less_exclusions.txt	LTP190	ltpFR	12	5	1	COLUMN	350	n/a	n/a	0	n/a	0	0	0	0.57763671875	0.412841796875	1	lower	amplitud.ttf
1267.37	n/a	WORD	633685	wordpools/wasnorm_wordpool_less_exclusions.txt	LTP190	ltpFR	12	5	1	SURVEY	1414	n/a	n/a	0	n/a	0	0	0	0.57763671875	0.412841796875	1	lower	amplitud.ttf
1271.362	n/a	WORD	635681	wordpools/wasnorm_wordpool_less_exclusions.txt	LTP190	ltpFR	12	5	1	LAKE	796	n/a	n/a	n/a	n/a	0	0	0	0.57763671875	0.412841796875	1	lower	amplitud.ttf
1274.414	n/a	SLOW_MSG	637207	n/a	LTP190	ltpFR	12	5	n/a	n/a	n/a	n/a	n/a	n/a	n/a	0	0	0	n/a	n/a	n/a	n/a	n/a
1276.9	n/a	WORD	638450	wordpools/wasnorm_wordpool_less_exclusions.txt	LTP190	ltpFR	12	5	1	TRUMPET	1513	n/a	n/a	1	n/a	0	0	0	0.57763671875	0.412841796875	1	lower	amplitud.ttf
1280.822	n/a	WORD	640411	wordpools/wasnorm_wordpool_less_exclusions.txt	LTP190	ltpFR	12	5	1	BAY	102	n/a	n/a	0	n/a	0	0	0	0.57763671875	0.412841796875	1	lower	amplitud.ttf
1284.948	n/a	WORD	642474	wordpools/wasnorm_wordpool_less_exclusions.txt	LTP190	ltpFR	12	5	1	COUNTY	389	n/a	n/a	1	n/a	0	0	0	0.57763671875	0.412841796875	1	lower	amplitud.ttf
1287.96	n/a	START	643980	n/a	LTP190	ltpFR	12	n/a	n/a	n/a	n/a	n/a	n/a	n/a	n/a	n/a	n/a	n/a	n/a	n/a	n/a	n/a	n/a
1288.778	n/a	PROB	644389	n/a	LTP190	ltpFR	12	n/a	n/a	n/a	n/a	n/a	n/a	n/a	12	2	3	7	n/a	n/a	n/a	n/a	n/a
1291.004	n/a	PROB	645502	n/a	LTP190	ltpFR	12	n/a	n/a	n/a	n/a	n/a	n/a	n/a	12	2	7	3	n/a	n/a	n/a	n/a	n/a
1292.61	n/a	PROB	646305	n/a	LTP190	ltpFR	12	n/a	n/a	n/a	n/a	n/a	n/a	n/a	18	7	2	9	n/a	n/a	n/a	n/a	n/a
1294.372	n/a	PROB	647186	n/a	LTP190	ltpFR	12	n/a	n/a	n/a	n/a	n/a	n/a	n/a	25	9	7	9	n/a	n/a	n/a	n/a	n/a
1297.246	n/a	PROB	648623	n/a	LTP190	ltpFR	12	n/a	n/a	n/a	n/a	n/a	n/a	n/a	19	8	1	8	n/a	n/a	n/a	n/a	n/a
1299.008	n/a	PROB	649504	n/a	LTP190	ltpFR	12	n/a	n/a	n/a	n/a	n/a	n/a	n/a	16	1	8	7	n/a	n/a	n/a	n/a	n/a
1300.558	n/a	PROB	650279	n/a	LTP190	ltpFR	12	n/a	n/a	n/a	n/a	n/a	n/a	n/a	13	3	6	4	n/a	n/a	n/a	n/a	n/a
1302.198	n/a	PROB	651099	n/a	LTP190	ltpFR	12	n/a	n/a	n/a	n/a	n/a	n/a	n/a	13	3	4	6	n/a	n/a	n/a	n/a	n/a
1303.58	n/a	STOP	651790	n/a	LTP190	ltpFR	12	n/a	n/a	n/a	n/a	n/a	n/a	n/a	n/a	n/a	n/a	n/a	n/a	n/a	n/a	n/a	n/a
1305.812	n/a	REC_START	652906	n/a	LTP190	ltpFR	12	5	n/a	n/a	n/a	n/a	n/a	n/a	n/a	0	0	0	n/a	n/a	n/a	n/a	n/a
1307.632	n/a	REC_WORD	653816	wordpools/wasnorm_wordpool_less_exclusions.txt	LTP190	ltpFR	12	5	1	TRUMPET	1513	n/a	n/a	1	n/a	0	0	0	n/a	n/a	n/a	n/a	n/a
1308.584	n/a	REC_WORD	654292	wordpools/wasnorm_wordpool_less_exclusions.txt	LTP190	ltpFR	12	5	1	BUGLE	189	n/a	n/a	0	n/a	0	0	0	n/a	n/a	n/a	n/a	n/a
1312.58	n/a	REC_WORD	656290	wordpools/wasnorm_wordpool_less_exclusions.txt	LTP190	ltpFR	12	5	1	ATHLETE	52	n/a	n/a	1	n/a	0	0	0	n/a	n/a	n/a	n/a	n/a
1313.728	n/a	REC_WORD	656864	wordpools/wasnorm_wordpool_less_exclusions.txt	LTP190	ltpFR	12	5	1	COACH	331	n/a	n/a	1	n/a	0	0	0	n/a	n/a	n/a	n/a	n/a
1314.652	n/a	REC_WORD	657326	wordpools/wasnorm_wordpool_less_exclusions.txt	LTP190	ltpFR	12	5	1	SWIMMER	1420	n/a	n/a	1	n/a	0	0	0	n/a	n/a	n/a	n/a	n/a
1315.734	n/a	REC_WORD	657867	wordpools/wasnorm_wordpool_less_exclusions.txt	LTP190	ltpFR	12	5	1	SPOOL	1356	n/a	n/a	0	n/a	0	0	0	n/a	n/a	n/a	n/a	n/a
1318.214	n/a	REC_WORD	659107	wordpools/wasnorm_wordpool_less_exclusions.txt	LTP190	ltpFR	12	5	1	DUSTPAN	509	n/a	n/a	0	n/a	0	0	0	n/a	n/a	n/a	n/a	n/a
1384.084	n/a	START	692042	n/a	LTP190	ltpFR	12	n/a	n/a	n/a	n/a	n/a	n/a	n/a	n/a	n/a	n/a	n/a	n/a	n/a	n/a	n/a	n/a
1385.598	n/a	PROB	692799	n/a	LTP190	ltpFR	12	n/a	n/a	n/a	n/a	n/a	n/a	n/a	9	2	6	1	n/a	n/a	n/a	n/a	n/a
1387.262	n/a	PROB	693631	n/a	LTP190	ltpFR	12	n/a	n/a	n/a	n/a	n/a	n/a	n/a	23	8	7	8	n/a	n/a	n/a	n/a	n/a
1389.236	n/a	PROB	694618	n/a	LTP190	ltpFR	12	n/a	n/a	n/a	n/a	n/a	n/a	n/a	14	6	5	3	n/a	n/a	n/a	n/a	n/a
1390.954	n/a	PROB	695477	n/a	LTP190	ltpFR	12	n/a	n/a	n/a	n/a	n/a	n/a	n/a	16	7	1	8	n/a	n/a	n/a	n/a	n/a
1392.398	n/a	PROB	696199	n/a	LTP190	ltpFR	12	n/a	n/a	n/a	n/a	n/a	n/a	n/a	14	8	2	4	n/a	n/a	n/a	n/a	n/a
1394.908	n/a	PROB	697454	n/a	LTP190	ltpFR	12	n/a	n/a	n/a	n/a	n/a	n/a	n/a	9	1	3	5	n/a	n/a	n/a	n/a	n/a
1396.09	n/a	PROB	698045	n/a	LTP190	ltpFR	12	n/a	n/a	n/a	n/a	n/a	n/a	n/a	13	4	2	7	n/a	n/a	n/a	n/a	n/a
1397.796	n/a	PROB	698898	n/a	LTP190	ltpFR	12	n/a	n/a	n/a	n/a	n/a	n/a	n/a	17	9	2	6	n/a	n/a	n/a	n/a	n/a
1399.76	n/a	STOP	699880	n/a	LTP190	ltpFR	12	n/a	n/a	n/a	n/a	n/a	n/a	n/a	n/a	n/a	n/a	n/a	n/a	n/a	n/a	n/a	n/a
1401.124	n/a	WORD	700562	wordpools/wasnorm_wordpool_less_exclusions.txt	LTP190	ltpFR	12	6	0	GRADUATE	653	n/a	n/a	1	n/a	0	0	0	0.422607421875	0.5869140625	0	upper	zerothre.ttf
1404.136	n/a	START	702068	n/a	LTP190	ltpFR	12	n/a	n/a	n/a	n/a	n/a	n/a	n/a	n/a	n/a	n/a	n/a	n/a	n/a	n/a	n/a	n/a
1405.08	n/a	PROB	702540	n/a	LTP190	ltpFR	12	n/a	n/a	n/a	n/a	n/a	n/a	n/a	21	9	9	3	n/a	n/a	n/a	n/a	n/a
1406.97	n/a	PROB	703485	n/a	LTP190	ltpFR	12	n/a	n/a	n/a	n/a	n/a	n/a	n/a	11	1	2	8	n/a	n/a	n/a	n/a	n/a
1408.252	n/a	PROB	704126	n/a	LTP190	ltpFR	12	n/a	n/a	n/a	n/a	n/a	n/a	n/a	15	6	1	8	n/a	n/a	n/a	n/a	n/a
1409.708	n/a	PROB	704854	n/a	LTP190	ltpFR	12	n/a	n/a	n/a	n/a	n/a	n/a	n/a	20	4	8	8	n/a	n/a	n/a	n/a	n/a
1412.118	n/a	PROB	706059	n/a	LTP190	ltpFR	12	n/a	n/a	n/a	n/a	n/a	n/a	n/a	14	4	3	7	n/a	n/a	n/a	n/a	n/a
1413.624	n/a	PROB	706812	n/a	LTP190	ltpFR	12	n/a	n/a	n/a	n/a	n/a	n/a	n/a	17	2	7	6	n/a	n/a	n/a	n/a	n/a
1415.938	n/a	PROB	707969	n/a	LTP190	ltpFR	12	n/a	n/a	n/a	n/a	n/a	n/a	n/a	22	9	9	4	n/a	n/a	n/a	n/a	n/a
1417.538	n/a	PROB	708769	n/a	LTP190	ltpFR	12	n/a	n/a	n/a	n/a	n/a	n/a	n/a	17	5	4	8	n/a	n/a	n/a	n/a	n/a
1419.098	n/a	STOP	709549	n/a	LTP190	ltpFR	12	n/a	n/a	n/a	n/a	n/a	n/a	n/a	n/a	n/a	n/a	n/a	n/a	n/a	n/a	n/a	n/a
1421.024	n/a	WORD	710512	wordpools/wasnorm_wordpool_less_exclusions.txt	LTP190	ltpFR	12	6	0	TOWER	1490	n/a	n/a	1	n/a	0	0	0	0.422607421875	0.5869140625	0	upper	zerothre.ttf
1424.036	n/a	START	712018	n/a	LTP190	ltpFR	12	n/a	n/a	n/a	n/a	n/a	n/a	n/a	n/a	n/a	n/a	n/a	n/a	n/a	n/a	n/a	n/a
1424.932	n/a	PROB	712466	n/a	LTP190	ltpFR	12	n/a	n/a	n/a	n/a	n/a	n/a	n/a	11	5	5	1	n/a	n/a	n/a	n/a	n/a
1426.21	n/a	PROB	713105	n/a	LTP190	ltpFR	12	n/a	n/a	n/a	n/a	n/a	n/a	n/a	15	7	5	3	n/a	n/a	n/a	n/a	n/a
1428.112	n/a	PROB	714056	n/a	LTP190	ltpFR	12	n/a	n/a	n/a	n/a	n/a	n/a	n/a	10	4	5	1	n/a	n/a	n/a	n/a	n/a
1429.684	n/a	PROB	714842	n/a	LTP190	ltpFR	12	n/a	n/a	n/a	n/a	n/a	n/a	n/a	15	5	9	1	n/a	n/a	n/a	n/a	n/a
1431.124	n/a	PROB	715562	n/a	LTP190	ltpFR	12	n/a	n/a	n/a	n/a	n/a	n/a	n/a	6	3	1	2	n/a	n/a	n/a	n/a	n/a
1432.428	n/a	PROB	716214	n/a	LTP190	ltpFR	12	n/a	n/a	n/a	n/a	n/a	n/a	n/a	12	6	2	4	n/a	n/a	n/a	n/a	n/a
1433.918	n/a	PROB	716959	n/a	LTP190	ltpFR	12	n/a	n/a	n/a	n/a	n/a	n/a	n/a	14	1	8	5	n/a	n/a	n/a	n/a	n/a
1435.54	n/a	PROB	717770	n/a	LTP190	ltpFR	12	n/a	n/a	n/a	n/a	n/a	n/a	n/a	8	3	1	4	n/a	n/a	n/a	n/a	n/a
1440.018	n/a	STOP	720009	n/a	LTP190	ltpFR	12	n/a	n/a	n/a	n/a	n/a	n/a	n/a	n/a	n/a	n/a	n/a	n/a	n/a	n/a	n/a	n/a
1441.128	n/a	WORD	720564	wordpools/wasnorm_wordpool_less_exclusions.txt	LTP190	ltpFR	12	6	0	TURNIP	1521	n/a	n/a	1	n/a	0	0	0	0.422607421875	0.5869140625	0	upper	zerothre.ttf
1444.14	n/a	START	722070	n/a	LTP190	ltpFR	12	n/a	n/a	n/a	n/a	n/a	n/a	n/a	n/a	n/a	n/a	n/a	n/a	n/a	n/a	n/a	n/a
1445.316	n/a	PROB	722658	n/a	LTP190	ltpFR	12	n/a	n/a	n/a	n/a	n/a	n/a	n/a	20	9	2	9	n/a	n/a	n/a	n/a	n/a
1446.874	n/a	PROB	723437	n/a	LTP190	ltpFR	12	n/a	n/a	n/a	n/a	n/a	n/a	n/a	14	5	6	3	n/a	n/a	n/a	n/a	n/a
1448.328	n/a	PROB	724164	n/a	LTP190	ltpFR	12	n/a	n/a	n/a	n/a	n/a	n/a	n/a	12	5	5	2	n/a	n/a	n/a	n/a	n/a
1449.712	n/a	PROB	724856	n/a	LTP190	ltpFR	12	n/a	n/a	n/a	n/a	n/a	n/a	n/a	17	7	6	4	n/a	n/a	n/a	n/a	n/a
1452.238	n/a	PROB	726119	n/a	LTP190	ltpFR	12	n/a	n/a	n/a	n/a	n/a	n/a	n/a	16	6	2	8	n/a	n/a	n/a	n/a	n/a
1454.83	n/a	PROB	727415	n/a	LTP190	ltpFR	12	n/a	n/a	n/a	n/a	n/a	n/a	n/a	21	5	7	9	n/a	n/a	n/a	n/a	n/a
1457.038	n/a	PROB	728519	n/a	LTP190	ltpFR	12	n/a	n/a	n/a	n/a	n/a	n/a	n/a	9	2	5	2	n/a	n/a	n/a	n/a	n/a
1460.14	n/a	STOP	730070	n/a	LTP190	ltpFR	12	n/a	n/a	n/a	n/a	n/a	n/a	n/a	n/a	n/a	n/a	n/a	n/a	n/a	n/a	n/a	n/a
1461.294	n/a	WORD	730647	wordpools/wasnorm_wordpool_less_exclusions.txt	LTP190	ltpFR	12	6	0	APPLE	33	n/a	n/a	1	n/a	0	0	0	0.422607421875	0.5869140625	0	upper	zerothre.ttf
1464.306	n/a	START	732153	n/a	LTP190	ltpFR	12	n/a	n/a	n/a	n/a	n/a	n/a	n/a	n/a	n/a	n/a	n/a	n/a	n/a	n/a	n/a	n/a
1465.31	n/a	PROB	732655	n/a	LTP190	ltpFR	12	n/a	n/a	n/a	n/a	n/a	n/a	n/a	15	4	8	3	n/a	n/a	n/a	n/a	n/a
1466.894	n/a	PROB	733447	n/a	LTP190	ltpFR	12	n/a	n/a	n/a	n/a	n/a	n/a	n/a	14	4	1	9	n/a	n/a	n/a	n/a	n/a
1468.466	n/a	PROB	734233	n/a	LTP190	ltpFR	12	n/a	n/a	n/a	n/a	n/a	n/a	n/a	16	6	2	5	n/a	n/a	n/a	n/a	n/a
1470.196	n/a	PROB	735098	n/a	LTP190	ltpFR	12	n/a	n/a	n/a	n/a	n/a	n/a	n/a	19	8	9	5	n/a	n/a	n/a	n/a	n/a
1472.816	n/a	PROB	736408	n/a	LTP190	ltpFR	12	n/a	n/a	n/a	n/a	n/a	n/a	n/a	11	3	2	6	n/a	n/a	n/a	n/a	n/a
1475.142	n/a	PROB	737571	n/a	LTP190	ltpFR	12	n/a	n/a	n/a	n/a	n/a	n/a	n/a	66	1	3	2	n/a	n/a	n/a	n/a	n/a
1476.57	n/a	PROB	738285	n/a	LTP190	ltpFR	12	n/a	n/a	n/a	n/a	n/a	n/a	n/a	9	5	2	2	n/a	n/a	n/a	n/a	n/a
1478.052	n/a	PROB	739026	n/a	LTP190	ltpFR	12	n/a	n/a	n/a	n/a	n/a	n/a	n/a	10	2	5	3	n/a	n/a	n/a	n/a	n/a
1479.252	n/a	STOP	739626	n/a	LTP190	ltpFR	12	n/a	n/a	n/a	n/a	n/a	n/a	n/a	n/a	n/a	n/a	n/a	n/a	n/a	n/a	n/a	n/a
1481.338	n/a	WORD	740669	wordpools/wasnorm_wordpool_less_exclusions.txt	LTP190	ltpFR	12	6	1	PARCEL	1012	n/a	n/a	1	n/a	0	0	0	0.57763671875	0.412841796875	1	lower	amplitud.ttf
1484.35	n/a	START	742175	n/a	LTP190	ltpFR	12	n/a	n/a	n/a	n/a	n/a	n/a	n/a	n/a	n/a	n/a	n/a	n/a	n/a	n/a	n/a	n/a
1485.264	n/a	PROB	742632	n/a	LTP190	ltpFR	12	n/a	n/a	n/a	n/a	n/a	n/a	n/a	16	1	9	6	n/a	n/a	n/a	n/a	n/a
1486.97	n/a	PROB	743485	n/a	LTP190	ltpFR	12	n/a	n/a	n/a	n/a	n/a	n/a	n/a	7	3	2	2	n/a	n/a	n/a	n/a	n/a
1489.502	n/a	PROB	744751	n/a	LTP190	ltpFR	12	n/a	n/a	n/a	n/a	n/a	n/a	n/a	15	6	5	4	n/a	n/a	n/a	n/a	n/a
1491.762	n/a	PROB	745881	n/a	LTP190	ltpFR	12	n/a	n/a	n/a	n/a	n/a	n/a	n/a	12	6	3	6	n/a	n/a	n/a	n/a	n/a
1493.836	n/a	PROB	746918	n/a	LTP190	ltpFR	12	n/a	n/a	n/a	n/a	n/a	n/a	n/a	15	4	3	8	n/a	n/a	n/a	n/a	n/a
1500.35	n/a	STOP	750175	n/a	LTP190	ltpFR	12	n/a	n/a	n/a	n/a	n/a	n/a	n/a	n/a	n/a	n/a	n/a	n/a	n/a	n/a	n/a	n/a
1501.482	n/a	WORD	750741	wordpools/wasnorm_wordpool_less_exclusions.txt	LTP190	ltpFR	12	6	1	PUPPY	1144	n/a	n/a	1	n/a	0	0	0	0.57763671875	0.412841796875	1	lower	amplitud.ttf
1504.494	n/a	START	752247	n/a	LTP190	ltpFR	12	n/a	n/a	n/a	n/a	n/a	n/a	n/a	n/a	n/a	n/a	n/a	n/a	n/a	n/a	n/a	n/a
1505.674	n/a	PROB	752837	n/a	LTP190	ltpFR	12	n/a	n/a	n/a	n/a	n/a	n/a	n/a	13	4	6	3	n/a	n/a	n/a	n/a	n/a
1507.532	n/a	PROB	753766	n/a	LTP190	ltpFR	12	n/a	n/a	n/a	n/a	n/a	n/a	n/a	16	5	4	7	n/a	n/a	n/a	n/a	n/a
1509.412	n/a	PROB	754706	n/a	LTP190	ltpFR	12	n/a	n/a	n/a	n/a	n/a	n/a	n/a	10	3	5	2	n/a	n/a	n/a	n/a	n/a
1510.716	n/a	PROB	755358	n/a	LTP190	ltpFR	12	n/a	n/a	n/a	n/a	n/a	n/a	n/a	13	4	8	1	n/a	n/a	n/a	n/a	n/a
1512.49	n/a	PROB	756245	n/a	LTP190	ltpFR	12	n/a	n/a	n/a	n/a	n/a	n/a	n/a	19	9	4	6	n/a	n/a	n/a	n/a	n/a
1515.362	n/a	PROB	757681	n/a	LTP190	ltpFR	12	n/a	n/a	n/a	n/a	n/a	n/a	n/a	26	9	9	8	n/a	n/a	n/a	n/a	n/a
1517.184	n/a	PROB	758592	n/a	LTP190	ltpFR	12	n/a	n/a	n/a	n/a	n/a	n/a	n/a	12	7	4	1	n/a	n/a	n/a	n/a	n/a
1520.262	n/a	STOP	760131	n/a	LTP190	ltpFR	12	n/a	n/a	n/a	n/a	n/a	n/a	n/a	n/a	n/a	n/a	n/a	n/a	n/a	n/a	n/a	n/a
1521.592	n/a	WORD	760796	wordpools/wasnorm_wordpool_less_exclusions.txt	LTP190	ltpFR	12	6	1	FUDGE	611	n/a	n/a	0	n/a	0	0	0	0.57763671875	0.412841796875	1	lower	amplitud.ttf
1524.604	n/a	START	762302	n/a	LTP190	ltpFR	12	n/a	n/a	n/a	n/a	n/a	n/a	n/a	n/a	n/a	n/a	n/a	n/a	n/a	n/a	n/a	n/a
1525.608	n/a	PROB	762804	n/a	LTP190	ltpFR	12	n/a	n/a	n/a	n/a	n/a	n/a	n/a	11	2	2	7	n/a	n/a	n/a	n/a	n/a
1527.106	n/a	PROB	763553	n/a	LTP190	ltpFR	12	n/a	n/a	n/a	n/a	n/a	n/a	n/a	16	9	4	5	n/a	n/a	n/a	n/a	n/a
1528.936	n/a	PROB	764468	n/a	LTP190	ltpFR	12	n/a	n/a	n/a	n/a	n/a	n/a	n/a	14	2	9	3	n/a	n/a	n/a	n/a	n/a
1530.938	n/a	PROB	765469	n/a	LTP190	ltpFR	12	n/a	n/a	n/a	n/a	n/a	n/a	n/a	10	1	2	7	n/a	n/a	n/a	n/a	n/a
1532.21	n/a	PROB	766105	n/a	LTP190	ltpFR	12	n/a	n/a	n/a	n/a	n/a	n/a	n/a	14	1	6	7	n/a	n/a	n/a	n/a	n/a
1533.766	n/a	PROB	766883	n/a	LTP190	ltpFR	12	n/a	n/a	n/a	n/a	n/a	n/a	n/a	20	9	3	8	n/a	n/a	n/a	n/a	n/a
1535.722	n/a	PROB	767861	n/a	LTP190	ltpFR	12	n/a	n/a	n/a	n/a	n/a	n/a	n/a	11	5	5	1	n/a	n/a	n/a	n/a	n/a
1537.01	n/a	PROB	768505	n/a	LTP190	ltpFR	12	n/a	n/a	n/a	n/a	n/a	n/a	n/a	10	3	1	6	n/a	n/a	n/a	n/a	n/a
1538.356	n/a	PROB	769178	n/a	LTP190	ltpFR	12	n/a	n/a	n/a	n/a	n/a	n/a	n/a	18	8	8	2	n/a	n/a	n/a	n/a	n/a
1539.936	n/a	STOP	769968	n/a	LTP190	ltpFR	12	n/a	n/a	n/a	n/a	n/a	n/a	n/a	n/a	n/a	n/a	n/a	n/a	n/a	n/a	n/a	n/a
1541.77	n/a	WORD	770885	wordpools/wasnorm_wordpool_less_exclusions.txt	LTP190	ltpFR	12	6	1	SHEARS	1276	n/a	n/a	0	n/a	0	0	0	0.57763671875	0.412841796875	1	lower	amplitud.ttf
1544.78	n/a	START	772390	n/a	LTP190	ltpFR	12	n/a	n/a	n/a	n/a	n/a	n/a	n/a	n/a	n/a	n/a	n/a	n/a	n/a	n/a	n/a	n/a
1545.778	n/a	PROB	772889	n/a	LTP190	ltpFR	12	n/a	n/a	n/a	n/a	n/a	n/a	n/a	13	5	2	6	n/a	n/a	n/a	n/a	n/a
1547.634	n/a	PROB	773817	n/a	LTP190	ltpFR	12	n/a	n/a	n/a	n/a	n/a	n/a	n/a	7	2	1	4	n/a	n/a	n/a	n/a	n/a
1549.046	n/a	PROB	774523	n/a	LTP190	ltpFR	12	n/a	n/a	n/a	n/a	n/a	n/a	n/a	9	2	4	3	n/a	n/a	n/a	n/a	n/a
1551.834	n/a	PROB	775917	n/a	LTP190	ltpFR	12	n/a	n/a	n/a	n/a	n/a	n/a	n/a	15	1	6	8	n/a	n/a	n/a	n/a	n/a
1553.156	n/a	PROB	776578	n/a	LTP190	ltpFR	12	n/a	n/a	n/a	n/a	n/a	n/a	n/a	15	5	8	2	n/a	n/a	n/a	n/a	n/a
1554.796	n/a	PROB	777398	n/a	LTP190	ltpFR	12	n/a	n/a	n/a	n/a	n/a	n/a	n/a	9	2	3	4	n/a	n/a	n/a	n/a	n/a
1556.67	n/a	PROB	778335	n/a	LTP190	ltpFR	12	n/a	n/a	n/a	n/a	n/a	n/a	n/a	18	4	9	5	n/a	n/a	n/a	n/a	n/a
1560.154	n/a	STOP	780077	n/a	LTP190	ltpFR	12	n/a	n/a	n/a	n/a	n/a	n/a	n/a	n/a	n/a	n/a	n/a	n/a	n/a	n/a	n/a	n/a
1561.846	n/a	WORD	780923	wordpools/wasnorm_wordpool_less_exclusions.txt	LTP190	ltpFR	12	6	1	CONCERT	360	n/a	n/a	0	n/a	0	0	0	0.57763671875	0.412841796875	1	lower	amplitud.ttf
1564.858	n/a	START	782429	n/a	LTP190	ltpFR	12	n/a	n/a	n/a	n/a	n/a	n/a	n/a	n/a	n/a	n/a	n/a	n/a	n/a	n/a	n/a	n/a
1565.694	n/a	PROB	782847	n/a	LTP190	ltpFR	12	n/a	n/a	n/a	n/a	n/a	n/a	n/a	7	6	2	9	n/a	n/a	n/a	n/a	n/a
1568.164	n/a	PROB	784082	n/a	LTP190	ltpFR	12	n/a	n/a	n/a	n/a	n/a	n/a	n/a	18	7	5	6	n/a	n/a	n/a	n/a	n/a
1570.412	n/a	PROB	785206	n/a	LTP190	ltpFR	12	n/a	n/a	n/a	n/a	n/a	n/a	n/a	16	8	1	7	n/a	n/a	n/a	n/a	n/a
1571.778	n/a	PROB	785889	n/a	LTP190	ltpFR	12	n/a	n/a	n/a	n/a	n/a	n/a	n/a	17	2	8	7	n/a	n/a	n/a	n/a	n/a
1574.404	n/a	PROB	787202	n/a	LTP190	ltpFR	12	n/a	n/a	n/a	n/a	n/a	n/a	n/a	7	2	3	2	n/a	n/a	n/a	n/a	n/a
1576.144	n/a	PROB	788072	n/a	LTP190	ltpFR	12	n/a	n/a	n/a	n/a	n/a	n/a	n/a	19	8	2	9	n/a	n/a	n/a	n/a	n/a
1577.924	n/a	PROB	788962	n/a	LTP190	ltpFR	12	n/a	n/a	n/a	n/a	n/a	n/a	n/a	12	2	8	2	n/a	n/a	n/a	n/a	n/a
1579.434	n/a	STOP	789717	n/a	LTP190	ltpFR	12	n/a	n/a	n/a	n/a	n/a	n/a	n/a	n/a	n/a	n/a	n/a	n/a	n/a	n/a	n/a	n/a
1581.932	n/a	WORD	790966	wordpools/wasnorm_wordpool_less_exclusions.txt	LTP190	ltpFR	12	6	0	STEREO	1378	n/a	n/a	1	n/a	0	0	0	0.422607421875	0.5869140625	0	upper	zerothre.ttf
1584.944	n/a	START	792472	n/a	LTP190	ltpFR	12	n/a	n/a	n/a	n/a	n/a	n/a	n/a	n/a	n/a	n/a	n/a	n/a	n/a	n/a	n/a	n/a
1586.138	n/a	PROB	793069	n/a	LTP190	ltpFR	12	n/a	n/a	n/a	n/a	n/a	n/a	n/a	9	5	2	2	n/a	n/a	n/a	n/a	n/a
1587.604	n/a	PROB	793802	n/a	LTP190	ltpFR	12	n/a	n/a	n/a	n/a	n/a	n/a	n/a	18	8	3	7	n/a	n/a	n/a	n/a	n/a
1589.83	n/a	PROB	794915	n/a	LTP190	ltpFR	12	n/a	n/a	n/a	n/a	n/a	n/a	n/a	19	4	9	6	n/a	n/a	n/a	n/a	n/a
1592.574	n/a	PROB	796287	n/a	LTP190	ltpFR	12	n/a	n/a	n/a	n/a	n/a	n/a	n/a	16	4	6	6	n/a	n/a	n/a	n/a	n/a
1594.33	n/a	PROB	797165	n/a	LTP190	ltpFR	12	n/a	n/a	n/a	n/a	n/a	n/a	n/a	13	2	9	2	n/a	n/a	n/a	n/a	n/a
1595.97	n/a	PROB	797985	n/a	LTP190	ltpFR	12	n/a	n/a	n/a	n/a	n/a	n/a	n/a	15	4	9	2	n/a	n/a	n/a	n/a	n/a
1598.452	n/a	PROB	799226	n/a	LTP190	ltpFR	12	n/a	n/a	n/a	n/a	n/a	n/a	n/a	12	6	5	1	n/a	n/a	n/a	n/a	n/a
1599.972	n/a	STOP	799986	n/a	LTP190	ltpFR	12	n/a	n/a	n/a	n/a	n/a	n/a	n/a	n/a	n/a	n/a	n/a	n/a	n/a	n/a	n/a	n/a
1602.094	n/a	WORD	801047	wordpools/wasnorm_wordpool_less_exclusions.txt	LTP190	ltpFR	12	6	0	GUITAR	670	n/a	n/a	1	n/a	0	0	0	0.422607421875	0.5869140625	0	upper	zerothre.ttf
1605.106	n/a	START	802553	n/a	LTP190	ltpFR	12	n/a	n/a	n/a	n/a	n/a	n/a	n/a	n/a	n/a	n/a	n/a	n/a	n/a	n/a	n/a	n/a
1605.98	n/a	PROB	802990	n/a	LTP190	ltpFR	12	n/a	n/a	n/a	n/a	n/a	n/a	n/a	13	4	3	6	n/a	n/a	n/a	n/a	n/a
1608.056	n/a	PROB	804028	n/a	LTP190	ltpFR	12	n/a	n/a	n/a	n/a	n/a	n/a	n/a	14	8	1	3	n/a	n/a	n/a	n/a	n/a
1609.862	n/a	PROB	804931	n/a	LTP190	ltpFR	12	n/a	n/a	n/a	n/a	n/a	n/a	n/a	23	8	6	9	n/a	n/a	n/a	n/a	n/a
1614.262	n/a	PROB	807131	n/a	LTP190	ltpFR	12	n/a	n/a	n/a	n/a	n/a	n/a	n/a	21	7	7	7	n/a	n/a	n/a	n/a	n/a
1615.696	n/a	PROB	807848	n/a	LTP190	ltpFR	12	n/a	n/a	n/a	n/a	n/a	n/a	n/a	22	6	7	9	n/a	n/a	n/a	n/a	n/a
1617.608	n/a	PROB	808804	n/a	LTP190	ltpFR	12	n/a	n/a	n/a	n/a	n/a	n/a	n/a	19	3	7	9	n/a	n/a	n/a	n/a	n/a
1620.14	n/a	STOP	810070	n/a	LTP190	ltpFR	12	n/a	n/a	n/a	n/a	n/a	n/a	n/a	n/a	n/a	n/a	n/a	n/a	n/a	n/a	n/a	n/a
1622.136	n/a	WORD	811068	wordpools/wasnorm_wordpool_less_exclusions.txt	LTP190	ltpFR	12	6	0	STRING	1394	n/a	n/a	2	n/a	0	0	0	0.422607421875	0.5869140625	0	upper	zerothre.ttf
1622.762	n/a	KEY_MSG	811381	n/a	LTP190	ltpFR	12	6	n/a	n/a	n/a	n/a	n/a	n/a	n/a	0	0	0	n/a	n/a	n/a	n/a	n/a
1625.148	n/a	START	812574	n/a	LTP190	ltpFR	12	n/a	n/a	n/a	n/a	n/a	n/a	n/a	n/a	n/a	n/a	n/a	n/a	n/a	n/a	n/a	n/a
1626.058	n/a	PROB	813029	n/a	LTP190	ltpFR	12	n/a	n/a	n/a	n/a	n/a	n/a	n/a	17	8	2	7	n/a	n/a	n/a	n/a	n/a
1627.958	n/a	PROB	813979	n/a	LTP190	ltpFR	12	n/a	n/a	n/a	n/a	n/a	n/a	n/a	15	8	1	6	n/a	n/a	n/a	n/a	n/a
1629.698	n/a	PROB	814849	n/a	LTP190	ltpFR	12	n/a	n/a	n/a	n/a	n/a	n/a	n/a	13	4	5	2	n/a	n/a	n/a	n/a	n/a
1631.176	n/a	PROB	815588	n/a	LTP190	ltpFR	12	n/a	n/a	n/a	n/a	n/a	n/a	n/a	17	2	8	7	n/a	n/a	n/a	n/a	n/a
1633.034	n/a	PROB	816517	n/a	LTP190	ltpFR	12	n/a	n/a	n/a	n/a	n/a	n/a	n/a	14	3	8	3	n/a	n/a	n/a	n/a	n/a
1636.14	n/a	PROB	818070	n/a	LTP190	ltpFR	12	n/a	n/a	n/a	n/a	n/a	n/a	n/a	13	3	2	8	n/a	n/a	n/a	n/a	n/a
1637.83	n/a	PROB	818915	n/a	LTP190	ltpFR	12	n/a	n/a	n/a	n/a	n/a	n/a	n/a	14	6	7	1	n/a	n/a	n/a	n/a	n/a
1640.19	n/a	STOP	820095	n/a	LTP190	ltpFR	12	n/a	n/a	n/a	n/a	n/a	n/a	n/a	n/a	n/a	n/a	n/a	n/a	n/a	n/a	n/a	n/a
1642.036	n/a	WORD	821018	wordpools/wasnorm_wordpool_less_exclusions.txt	LTP190	ltpFR	12	6	0	FAUCET	555	n/a	n/a	1	n/a	0	0	0	0.422607421875	0.5869140625	0	upper	zerothre.ttf
1645.048	n/a	START	822524	n/a	LTP190	ltpFR	12	n/a	n/a	n/a	n/a	n/a	n/a	n/a	n/a	n/a	n/a	n/a	n/a	n/a	n/a	n/a	n/a
1646.234	n/a	PROB	823117	n/a	LTP190	ltpFR	12	n/a	n/a	n/a	n/a	n/a	n/a	n/a	19	8	2	9	n/a	n/a	n/a	n/a	n/a
1648.286	n/a	PROB	824143	n/a	LTP190	ltpFR	12	n/a	n/a	n/a	n/a	n/a	n/a	n/a	19	8	4	7	n/a	n/a	n/a	n/a	n/a
1650.284	n/a	PROB	825142	n/a	LTP190	ltpFR	12	n/a	n/a	n/a	n/a	n/a	n/a	n/a	4	1	1	2	n/a	n/a	n/a	n/a	n/a
1651.598	n/a	PROB	825799	n/a	LTP190	ltpFR	12	n/a	n/a	n/a	n/a	n/a	n/a	n/a	19	2	9	8	n/a	n/a	n/a	n/a	n/a
1653.574	n/a	PROB	826787	n/a	LTP190	ltpFR	12	n/a	n/a	n/a	n/a	n/a	n/a	n/a	6	2	1	3	n/a	n/a	n/a	n/a	n/a
1654.952	n/a	PROB	827476	n/a	LTP190	ltpFR	12	n/a	n/a	n/a	n/a	n/a	n/a	n/a	20	6	5	9	n/a	n/a	n/a	n/a	n/a
1657.12	n/a	PROB	828560	n/a	LTP190	ltpFR	12	n/a	n/a	n/a	n/a	n/a	n/a	n/a	12	7	4	1	n/a	n/a	n/a	n/a	n/a
1658.482	n/a	PROB	829241	n/a	LTP190	ltpFR	12	n/a	n/a	n/a	n/a	n/a	n/a	n/a	12	4	1	7	n/a	n/a	n/a	n/a	n/a
1660.87	n/a	STOP	830435	n/a	LTP190	ltpFR	12	n/a	n/a	n/a	n/a	n/a	n/a	n/a	n/a	n/a	n/a	n/a	n/a	n/a	n/a	n/a	n/a
1662.072	n/a	WORD	831036	wordpools/wasnorm_wordpool_less_exclusions.txt	LTP190	ltpFR	12	6	1	FAIRY	549	n/a	n/a	1	n/a	0	0	0	0.57763671875	0.412841796875	1	lower	amplitud.ttf
1665.09	n/a	START	832545	n/a	LTP190	ltpFR	12	n/a	n/a	n/a	n/a	n/a	n/a	n/a	n/a	n/a	n/a	n/a	n/a	n/a	n/a	n/a	n/a
1666.144	n/a	PROB	833072	n/a	LTP190	ltpFR	12	n/a	n/a	n/a	n/a	n/a	n/a	n/a	17	7	9	1	n/a	n/a	n/a	n/a	n/a
1668.832	n/a	PROB	834416	n/a	LTP190	ltpFR	12	n/a	n/a	n/a	n/a	n/a	n/a	n/a	20	9	9	2	n/a	n/a	n/a	n/a	n/a
1670.226	n/a	PROB	835113	n/a	LTP190	ltpFR	12	n/a	n/a	n/a	n/a	n/a	n/a	n/a	12	6	5	1	n/a	n/a	n/a	n/a	n/a
1671.426	n/a	PROB	835713	n/a	LTP190	ltpFR	12	n/a	n/a	n/a	n/a	n/a	n/a	n/a	13	1	4	8	n/a	n/a	n/a	n/a	n/a
1672.764	n/a	PROB	836382	n/a	LTP190	ltpFR	12	n/a	n/a	n/a	n/a	n/a	n/a	n/a	11	5	5	1	n/a	n/a	n/a	n/a	n/a
1674.002	n/a	PROB	837001	n/a	LTP190	ltpFR	12	n/a	n/a	n/a	n/a	n/a	n/a	n/a	8	3	1	4	n/a	n/a	n/a	n/a	n/a
1675.714	n/a	PROB	837857	n/a	LTP190	ltpFR	12	n/a	n/a	n/a	n/a	n/a	n/a	n/a	14	6	1	7	n/a	n/a	n/a	n/a	n/a
1677.236	n/a	PROB	838618	n/a	LTP190	ltpFR	12	n/a	n/a	n/a	n/a	n/a	n/a	n/a	20	9	5	6	n/a	n/a	n/a	n/a	n/a
1679.07	n/a	PROB	839535	n/a	LTP190	ltpFR	12	n/a	n/a	n/a	n/a	n/a	n/a	n/a	9	2	4	3	n/a	n/a	n/a	n/a	n/a
1680.64	n/a	STOP	840320	n/a	LTP190	ltpFR	12	n/a	n/a	n/a	n/a	n/a	n/a	n/a	n/a	n/a	n/a	n/a	n/a	n/a	n/a	n/a	n/a
1682.172	n/a	WORD	841086	wordpools/wasnorm_wordpool_less_exclusions.txt	LTP190	ltpFR	12	6	1	HOUND	724	n/a	n/a	1	n/a	0	0	0	0.57763671875	0.412841796875	1	lower	amplitud.ttf
1685.184	n/a	START	842592	n/a	LTP190	ltpFR	12	n/a	n/a	n/a	n/a	n/a	n/a	n/a	n/a	n/a	n/a	n/a	n/a	n/a	n/a	n/a	n/a
1686.188	n/a	PROB	843094	n/a	LTP190	ltpFR	12	n/a	n/a	n/a	n/a	n/a	n/a	n/a	5	1	3	1	n/a	n/a	n/a	n/a	n/a
1687.876	n/a	PROB	843938	n/a	LTP190	ltpFR	12	n/a	n/a	n/a	n/a	n/a	n/a	n/a	20	9	3	8	n/a	n/a	n/a	n/a	n/a
1691.174	n/a	PROB	845587	n/a	LTP190	ltpFR	12	n/a	n/a	n/a	n/a	n/a	n/a	n/a	15	4	4	7	n/a	n/a	n/a	n/a	n/a
1692.806	n/a	PROB	846403	n/a	LTP190	ltpFR	12	n/a	n/a	n/a	n/a	n/a	n/a	n/a	20	3	9	8	n/a	n/a	n/a	n/a	n/a
1695.724	n/a	PROB	847862	n/a	LTP190	ltpFR	12	n/a	n/a	n/a	n/a	n/a	n/a	n/a	11	4	4	3	n/a	n/a	n/a	n/a	n/a
1698.946	n/a	PROB	849473	n/a	LTP190	ltpFR	12	n/a	n/a	n/a	n/a	n/a	n/a	n/a	13	7	5	2	n/a	n/a	n/a	n/a	n/a
1700.576	n/a	STOP	850288	n/a	LTP190	ltpFR	12	n/a	n/a	n/a	n/a	n/a	n/a	n/a	n/a	n/a	n/a	n/a	n/a	n/a	n/a	n/a	n/a
1702.076	n/a	WORD	851038	wordpools/wasnorm_wordpool_less_exclusions.txt	LTP190	ltpFR	12	6	1	MAILMAN	858	n/a	n/a	1	n/a	0	0	0	0.57763671875	0.412841796875	1	lower	amplitud.ttf
1705.092	n/a	START	852546	n/a	LTP190	ltpFR	12	n/a	n/a	n/a	n/a	n/a	n/a	n/a	n/a	n/a	n/a	n/a	n/a	n/a	n/a	n/a	n/a
1705.946	n/a	PROB	852973	n/a	LTP190	ltpFR	12	n/a	n/a	n/a	n/a	n/a	n/a	n/a	23	6	9	8	n/a	n/a	n/a	n/a	n/a
1708.902	n/a	PROB	854451	n/a	LTP190	ltpFR	12	n/a	n/a	n/a	n/a	n/a	n/a	n/a	21	7	6	8	n/a	n/a	n/a	n/a	n/a
1711.284	n/a	PROB	855642	n/a	LTP190	ltpFR	12	n/a	n/a	n/a	n/a	n/a	n/a	n/a	10	2	4	4	n/a	n/a	n/a	n/a	n/a
1712.7	n/a	PROB	856350	n/a	LTP190	ltpFR	12	n/a	n/a	n/a	n/a	n/a	n/a	n/a	12	3	7	2	n/a	n/a	n/a	n/a	n/a
1714.724	n/a	PROB	857362	n/a	LTP190	ltpFR	12	n/a	n/a	n/a	n/a	n/a	n/a	n/a	17	6	9	2	n/a	n/a	n/a	n/a	n/a
1717.216	n/a	PROB	858608	n/a	LTP190	ltpFR	12	n/a	n/a	n/a	n/a	n/a	n/a	n/a	10	2	2	6	n/a	n/a	n/a	n/a	n/a
1718.578	n/a	PROB	859289	n/a	LTP190	ltpFR	12	n/a	n/a	n/a	n/a	n/a	n/a	n/a	9	1	5	3	n/a	n/a	n/a	n/a	n/a
1719.914	n/a	STOP	859957	n/a	LTP190	ltpFR	12	n/a	n/a	n/a	n/a	n/a	n/a	n/a	n/a	n/a	n/a	n/a	n/a	n/a	n/a	n/a	n/a
1722.956	n/a	REC_START	861478	n/a	LTP190	ltpFR	12	6	n/a	n/a	n/a	n/a	n/a	n/a	n/a	0	0	0	n/a	n/a	n/a	n/a	n/a
1725.52	n/a	REC_WORD	862760	wordpools/wasnorm_wordpool_less_exclusions.txt	LTP190	ltpFR	12	6	1	MAILMAN	858	n/a	n/a	1	n/a	0	0	0	n/a	n/a	n/a	n/a	n/a
1726.706	n/a	REC_WORD	863353	wordpools/wasnorm_wordpool_less_exclusions.txt	LTP190	ltpFR	12	6	n/a	DOG	480	n/a	n/a	n/a	n/a	0	0	0	n/a	n/a	n/a	n/a	n/a
1728.938	n/a	REC_WORD	864469	wordpools/wasnorm_wordpool_less_exclusions.txt	LTP190	ltpFR	12	6	1	PUPPY	1144	n/a	n/a	1	n/a	0	0	0	n/a	n/a	n/a	n/a	n/a
1729.98	n/a	REC_WORD	864990	wordpools/wasnorm_wordpool_less_exclusions.txt	LTP190	ltpFR	12	6	1	HOUND	724	n/a	n/a	1	n/a	0	0	0	n/a	n/a	n/a	n/a	n/a
1739.578	n/a	REC_WORD	869789	wordpools/wasnorm_wordpool_less_exclusions.txt	LTP190	ltpFR	12	6	1	FUDGE	611	n/a	n/a	0	n/a	0	0	0	n/a	n/a	n/a	n/a	n/a
1801.706	n/a	WORD	900853	wordpools/wasnorm_wordpool_less_exclusions.txt	LTP190	ltpFR	12	7	0	CAR	241	n/a	n/a	1	n/a	0	0	0	0.422607421875	0.5869140625	0	upper	zerothre.ttf
1805.738	n/a	WORD	902869	wordpools/wasnorm_wordpool_less_exclusions.txt	LTP190	ltpFR	12	7	0	VAN	1548	n/a	n/a	1	n/a	0	0	0	0.422607421875	0.5869140625	0	upper	zerothre.ttf
1809.876	n/a	WORD	904938	wordpools/wasnorm_wordpool_less_exclusions.txt	LTP190	ltpFR	12	7	0	HAWK	692	n/a	n/a	1	n/a	0	0	0	0.422607421875	0.5869140625	0	upper	zerothre.ttf
1813.926	n/a	WORD	906963	wordpools/wasnorm_wordpool_less_exclusions.txt	LTP190	ltpFR	12	7	0	SWAN	1417	n/a	n/a	1	n/a	0	0	0	0.422607421875	0.5869140625	0	upper	zerothre.ttf
1818.034	n/a	WORD	909017	wordpools/wasnorm_wordpool_less_exclusions.txt	LTP190	ltpFR	12	7	1	INVENTOR	743	n/a	n/a	1	n/a	0	0	0	0.57763671875	0.412841796875	1	lower	amplitud.ttf
1822.158	n/a	WORD	911079	wordpools/wasnorm_wordpool_less_exclusions.txt	LTP190	ltpFR	12	7	1	QUARTER	1148	n/a	n/a	0	n/a	0	0	0	0.57763671875	0.412841796875	1	lower	amplitud.ttf
1826.0	n/a	WORD	913000	wordpools/wasnorm_wordpool_less_exclusions.txt	LTP190	ltpFR	12	7	1	DIGGER	464	n/a	n/a	1	n/a	0	0	0	0.57763671875	0.412841796875	1	lower	amplitud.ttf
1830.07	n/a	WORD	915035	wordpools/wasnorm_wordpool_less_exclusions.txt	LTP190	ltpFR	12	7	0	LIPSTICK	829	n/a	n/a	n/a	n/a	0	0	0	0.422607421875	0.5869140625	0	upper	zerothre.ttf
1833.116	n/a	SLOW_MSG	916558	n/a	LTP190	ltpFR	12	7	n/a	n/a	n/a	n/a	n/a	n/a	n/a	0	0	0	n/a	n/a	n/a	n/a	n/a
1835.518	n/a	WORD	917759	wordpools/wasnorm_wordpool_less_exclusions.txt	LTP190	ltpFR	12	7	0	CHURCH	307	n/a	n/a	2	n/a	0	0	0	0.422607421875	0.5869140625	0	upper	zerothre.ttf
1836.26	n/a	KEY_MSG	918130	n/a	LTP190	ltpFR	12	7	n/a	n/a	n/a	n/a	n/a	n/a	n/a	0	0	0	n/a	n/a	n/a	n/a	n/a
1839.534	n/a	WORD	919767	wordpools/wasnorm_wordpool_less_exclusions.txt	LTP190	ltpFR	12	7	0	SHRINE	1298	n/a	n/a	1	n/a	0	0	0	0.422607421875	0.5869140625	0	upper	zerothre.ttf
1843.756	n/a	WORD	921878	wordpools/wasnorm_wordpool_less_exclusions.txt	LTP190	ltpFR	12	7	0	CABIN	211	n/a	n/a	0	n/a	0	0	0	0.422607421875	0.5869140625	0	upper	zerothre.ttf
1847.816	n/a	WORD	923908	wordpools/wasnorm_wordpool_less_exclusions.txt	LTP190	ltpFR	12	7	1	MOSS	918	n/a	n/a	1	n/a	0	0	0	0.57763671875	0.412841796875	1	lower	amplitud.ttf
1851.754	n/a	WORD	925877	wordpools/wasnorm_wordpool_less_exclusions.txt	LTP190	ltpFR	12	7	1	PLANT	1083	n/a	n/a	1	n/a	0	0	0	0.57763671875	0.412841796875	1	lower	amplitud.ttf
1855.778	n/a	WORD	927889	wordpools/wasnorm_wordpool_less_exclusions.txt	LTP190	ltpFR	12	7	1	TOAST	1471	n/a	n/a	n/a	n/a	0	0	0	0.57763671875	0.412841796875	1	lower	amplitud.ttf
1858.83	n/a	SLOW_MSG	929415	n/a	LTP190	ltpFR	12	7	n/a	n/a	n/a	n/a	n/a	n/a	n/a	0	0	0	n/a	n/a	n/a	n/a	n/a
1861.318	n/a	WORD	930659	wordpools/wasnorm_wordpool_less_exclusions.txt	LTP190	ltpFR	12	7	1	SHOVEL	1295	n/a	n/a	1	n/a	0	0	0	0.57763671875	0.412841796875	1	lower	amplitud.ttf
1865.466	n/a	WORD	932733	wordpools/wasnorm_wordpool_less_exclusions.txt	LTP190	ltpFR	12	7	1	BROCCOLI	176	n/a	n/a	1	n/a	0	0	0	0.57763671875	0.412841796875	1	lower	amplitud.ttf
1871.556	n/a	REC_START	935778	n/a	LTP190	ltpFR	12	7	n/a	n/a	n/a	n/a	n/a	n/a	n/a	0	0	0	n/a	n/a	n/a	n/a	n/a
1872.638	n/a	REC_WORD	936319	wordpools/wasnorm_wordpool_less_exclusions.txt	LTP190	ltpFR	12	7	1	SHOVEL	1295	n/a	n/a	1	n/a	0	0	0	n/a	n/a	n/a	n/a	n/a
1873.552	n/a	REC_WORD	936776	wordpools/wasnorm_wordpool_less_exclusions.txt	LTP190	ltpFR	12	7	1	BROCCOLI	176	n/a	n/a	1	n/a	0	0	0	n/a	n/a	n/a	n/a	n/a
1874.474	n/a	REC_WORD	937237	wordpools/wasnorm_wordpool_less_exclusions.txt	LTP190	ltpFR	12	7	1	DIGGER	464	n/a	n/a	1	n/a	0	0	0	n/a	n/a	n/a	n/a	n/a
1902.408	n/a	REC_WORD	951204	wordpools/wasnorm_wordpool_less_exclusions.txt	LTP190	ltpFR	12	7	0	SHRINE	1298	n/a	n/a	1	n/a	0	0	0	n/a	n/a	n/a	n/a	n/a
1903.322	n/a	REC_WORD	951661	wordpools/wasnorm_wordpool_less_exclusions.txt	LTP190	ltpFR	12	7	0	CHURCH	307	n/a	n/a	2	n/a	0	0	0	n/a	n/a	n/a	n/a	n/a
1940.074	n/a	REC_WORD	970037	wordpools/wasnorm_wordpool_less_exclusions.txt	LTP190	ltpFR	12	7	0	CAR	241	n/a	n/a	1	n/a	0	0	0	n/a	n/a	n/a	n/a	n/a
1940.938	n/a	REC_WORD	970469	wordpools/wasnorm_wordpool_less_exclusions.txt	LTP190	ltpFR	12	7	0	VAN	1548	n/a	n/a	1	n/a	0	0	0	n/a	n/a	n/a	n/a	n/a
1973.78	n/a	WORD	986890	wordpools/wasnorm_wordpool_less_exclusions.txt	LTP190	ltpFR	12	8	1	ELECTRICIAN	521	n/a	n/a	1	n/a	0	0	0	0.57763671875	0.412841796875	1	lower	amplitud.ttf
1977.902	n/a	WORD	988951	wordpools/wasnorm_wordpool_less_exclusions.txt	LTP190	ltpFR	12	8	1	REPTILE	1185	n/a	n/a	1	n/a	0	0	0	0.57763671875	0.412841796875	1	lower	amplitud.ttf
1981.744	n/a	WORD	990872	wordpools/wasnorm_wordpool_less_exclusions.txt	LTP190	ltpFR	12	8	1	CROCODILE	411	n/a	n/a	1	n/a	0	0	0	0.57763671875	0.412841796875	1	lower	amplitud.ttf
1985.928	n/a	WORD	992964	wordpools/wasnorm_wordpool_less_exclusions.txt	LTP190	ltpFR	12	8	1	CLAY	320	n/a	n/a	0	n/a	0	0	0	0.57763671875	0.412841796875	1	lower	amplitud.ttf
1989.982	n/a	WORD	994991	wordpools/wasnorm_wordpool_less_exclusions.txt	LTP190	ltpFR	12	8	0	GARLIC	624	n/a	n/a	2	n/a	0	0	0	0.422607421875	0.5869140625	0	upper	zerothre.ttf
1991.788	n/a	KEY_MSG	995894	n/a	LTP190	ltpFR	12	8	n/a	n/a	n/a	n/a	n/a	n/a	n/a	0	0	0	n/a	n/a	n/a	n/a	n/a
1994.164	n/a	WORD	997082	wordpools/wasnorm_wordpool_less_exclusions.txt	LTP190	ltpFR	12	8	0	TRAY	1498	n/a	n/a	n/a	n/a	0	0	0	0.422607421875	0.5869140625	0	upper	zerothre.ttf
1997.21	n/a	SLOW_MSG	998605	n/a	LTP190	ltpFR	12	8	n/a	n/a	n/a	n/a	n/a	n/a	n/a	0	0	0	n/a	n/a	n/a	n/a	n/a
1999.602	n/a	WORD	999801	wordpools/wasnorm_wordpool_less_exclusions.txt	LTP190	ltpFR	12	8	0	RIBBON	1189	n/a	n/a	1	n/a	0	0	0	0.422607421875	0.5869140625	0	upper	zerothre.ttf
2003.534	n/a	WORD	1001767	wordpools/wasnorm_wordpool_less_exclusions.txt	LTP190	ltpFR	12	8	0	ROUGE	1213	n/a	n/a	1	n/a	0	0	0	0.422607421875	0.5869140625	0	upper	zerothre.ttf
2007.616	n/a	WORD	1003808	wordpools/wasnorm_wordpool_less_exclusions.txt	LTP190	ltpFR	12	8	1	REEF	1177	n/a	n/a	3	n/a	0	0	0	0.57763671875	0.412841796875	1	lower	amplitud.ttf
2009.892	n/a	KEY_MSG	1004946	n/a	LTP190	ltpFR	12	8	n/a	n/a	n/a	n/a	n/a	n/a	n/a	0	0	0	n/a	n/a	n/a	n/a	n/a
2012.328	n/a	WORD	1006164	wordpools/wasnorm_wordpool_less_exclusions.txt	LTP190	ltpFR	12	8	1	CORAL	378	n/a	n/a	1	n/a	0	0	0	0.57763671875	0.412841796875	1	lower	amplitud.ttf
2016.5	n/a	WORD	1008250	wordpools/wasnorm_wordpool_less_exclusions.txt	LTP190	ltpFR	12	8	1	THICKET	1455	n/a	n/a	1	n/a	0	0	0	0.57763671875	0.412841796875	1	lower	amplitud.ttf
2020.33	n/a	WORD	1010165	wordpools/wasnorm_wordpool_less_exclusions.txt	LTP190	ltpFR	12	8	1	DRIVER	499	n/a	n/a	1	n/a	0	0	0	0.57763671875	0.412841796875	1	lower	amplitud.ttf
2024.322	n/a	WORD	1012161	wordpools/wasnorm_wordpool_less_exclusions.txt	LTP190	ltpFR	12	8	0	BLOSSOM	138	n/a	n/a	1	n/a	0	0	0	0.422607421875	0.5869140625	0	upper	zerothre.ttf
2028.188	n/a	WORD	1014094	wordpools/wasnorm_wordpool_less_exclusions.txt	LTP190	ltpFR	12	8	0	ROSE	1212	n/a	n/a	0	n/a	0	0	0	0.422607421875	0.5869140625	0	upper	zerothre.ttf
2032.388	n/a	WORD	1016194	wordpools/wasnorm_wordpool_less_exclusions.txt	LTP190	ltpFR	12	8	0	COOK	372	n/a	n/a	1	n/a	0	0	0	0.422607421875	0.5869140625	0	upper	zerothre.ttf
2036.536	n/a	WORD	1018268	wordpools/wasnorm_wordpool_less_exclusions.txt	LTP190	ltpFR	12	8	0	MECHANIC	884	n/a	n/a	1	n/a	0	0	0	0.422607421875	0.5869140625	0	upper	zerothre.ttf
2042.56	n/a	REC_START	1021280	n/a	LTP190	ltpFR	12	8	n/a	n/a	n/a	n/a	n/a	n/a	n/a	0	0	0	n/a	n/a	n/a	n/a	n/a
2043.942	n/a	REC_WORD	1021971	wordpools/wasnorm_wordpool_less_exclusions.txt	LTP190	ltpFR	12	8	0	COOK	372	n/a	n/a	1	n/a	0	0	0	n/a	n/a	n/a	n/a	n/a
2044.45	n/a	REC_WORD	1022225	wordpools/wasnorm_wordpool_less_exclusions.txt	LTP190	ltpFR	12	8	0	MECHANIC	884	n/a	n/a	1	n/a	0	0	0	n/a	n/a	n/a	n/a	n/a
2045.33	n/a	REC_WORD	1022665	wordpools/wasnorm_wordpool_less_exclusions.txt	LTP190	ltpFR	12	8	1	ELECTRICIAN	521	n/a	n/a	1	n/a	0	0	0	n/a	n/a	n/a	n/a	n/a
2120.106	n/a	START	1060053	n/a	LTP190	ltpFR	12	n/a	n/a	n/a	n/a	n/a	n/a	n/a	n/a	n/a	n/a	n/a	n/a	n/a	n/a	n/a	n/a
2121.618	n/a	PROB	1060809	n/a	LTP190	ltpFR	12	n/a	n/a	n/a	n/a	n/a	n/a	n/a	1	6	3	3	n/a	n/a	n/a	n/a	n/a
2123.788	n/a	PROB	1061894	n/a	LTP190	ltpFR	12	n/a	n/a	n/a	n/a	n/a	n/a	n/a	18	4	8	6	n/a	n/a	n/a	n/a	n/a
2126.212	n/a	PROB	1063106	n/a	LTP190	ltpFR	12	n/a	n/a	n/a	n/a	n/a	n/a	n/a	22	8	6	8	n/a	n/a	n/a	n/a	n/a
2130.954	n/a	PROB	1065477	n/a	LTP190	ltpFR	12	n/a	n/a	n/a	n/a	n/a	n/a	n/a	17	4	8	5	n/a	n/a	n/a	n/a	n/a
2132.804	n/a	PROB	1066402	n/a	LTP190	ltpFR	12	n/a	n/a	n/a	n/a	n/a	n/a	n/a	5	1	3	1	n/a	n/a	n/a	n/a	n/a
2133.992	n/a	PROB	1066996	n/a	LTP190	ltpFR	12	n/a	n/a	n/a	n/a	n/a	n/a	n/a	9	1	7	1	n/a	n/a	n/a	n/a	n/a
2135.24	n/a	STOP	1067620	n/a	LTP190	ltpFR	12	n/a	n/a	n/a	n/a	n/a	n/a	n/a	n/a	n/a	n/a	n/a	n/a	n/a	n/a	n/a	n/a
2137.126	n/a	WORD	1068563	wordpools/wasnorm_wordpool_less_exclusions.txt	LTP190	ltpFR	12	9	1	METEOR	889	n/a	n/a	0	n/a	0	0	0	0.57763671875	0.412841796875	1	lower	amplitud.ttf
2140.14	n/a	START	1070070	n/a	LTP190	ltpFR	12	n/a	n/a	n/a	n/a	n/a	n/a	n/a	n/a	n/a	n/a	n/a	n/a	n/a	n/a	n/a	n/a
2141.344	n/a	PROB	1070672	n/a	LTP190	ltpFR	12	n/a	n/a	n/a	n/a	n/a	n/a	n/a	21	8	5	8	n/a	n/a	n/a	n/a	n/a
2143.586	n/a	PROB	1071793	n/a	LTP190	ltpFR	12	n/a	n/a	n/a	n/a	n/a	n/a	n/a	5	2	1	2	n/a	n/a	n/a	n/a	n/a
2144.75	n/a	PROB	1072375	n/a	LTP190	ltpFR	12	n/a	n/a	n/a	n/a	n/a	n/a	n/a	22	5	9	8	n/a	n/a	n/a	n/a	n/a
2148.336	n/a	PROB	1074168	n/a	LTP190	ltpFR	12	n/a	n/a	n/a	n/a	n/a	n/a	n/a	10	7	1	2	n/a	n/a	n/a	n/a	n/a
2149.702	n/a	PROB	1074851	n/a	LTP190	ltpFR	12	n/a	n/a	n/a	n/a	n/a	n/a	n/a	23	9	2	4	n/a	n/a	n/a	n/a	n/a
2151.142	n/a	PROB	1075571	n/a	LTP190	ltpFR	12	n/a	n/a	n/a	n/a	n/a	n/a	n/a	12	5	5	2	n/a	n/a	n/a	n/a	n/a
2152.62	n/a	PROB	1076310	n/a	LTP190	ltpFR	12	n/a	n/a	n/a	n/a	n/a	n/a	n/a	27	9	9	9	n/a	n/a	n/a	n/a	n/a
2154.984	n/a	STOP	1077492	n/a	LTP190	ltpFR	12	n/a	n/a	n/a	n/a	n/a	n/a	n/a	n/a	n/a	n/a	n/a	n/a	n/a	n/a	n/a	n/a
2156.98	n/a	WORD	1078490	wordpools/wasnorm_wordpool_less_exclusions.txt	LTP190	ltpFR	12	9	1	IDOL	733	n/a	n/a	0	n/a	0	0	0	0.57763671875	0.412841796875	1	lower	amplitud.ttf
2159.992	n/a	START	1079996	n/a	LTP190	ltpFR	12	n/a	n/a	n/a	n/a	n/a	n/a	n/a	n/a	n/a	n/a	n/a	n/a	n/a	n/a	n/a	n/a
2161.102	n/a	PROB	1080551	n/a	LTP190	ltpFR	12	n/a	n/a	n/a	n/a	n/a	n/a	n/a	12	9	2	1	n/a	n/a	n/a	n/a	n/a
2162.758	n/a	PROB	1081379	n/a	LTP190	ltpFR	12	n/a	n/a	n/a	n/a	n/a	n/a	n/a	7	5	1	1	n/a	n/a	n/a	n/a	n/a
2164.108	n/a	PROB	1082054	n/a	LTP190	ltpFR	12	n/a	n/a	n/a	n/a	n/a	n/a	n/a	13	4	3	6	n/a	n/a	n/a	n/a	n/a
2165.748	n/a	PROB	1082874	n/a	LTP190	ltpFR	12	n/a	n/a	n/a	n/a	n/a	n/a	n/a	18	4	6	8	n/a	n/a	n/a	n/a	n/a
2169.2	n/a	PROB	1084600	n/a	LTP190	ltpFR	12	n/a	n/a	n/a	n/a	n/a	n/a	n/a	5	1	2	2	n/a	n/a	n/a	n/a	n/a
2170.288	n/a	PROB	1085144	n/a	LTP190	ltpFR	12	n/a	n/a	n/a	n/a	n/a	n/a	n/a	9	3	3	3	n/a	n/a	n/a	n/a	n/a
2171.586	n/a	PROB	1085793	n/a	LTP190	ltpFR	12	n/a	n/a	n/a	n/a	n/a	n/a	n/a	12	1	2	8	n/a	n/a	n/a	n/a	n/a
2173.014	n/a	PROB	1086507	n/a	LTP190	ltpFR	12	n/a	n/a	n/a	n/a	n/a	n/a	n/a	7	1	4	2	n/a	n/a	n/a	n/a	n/a
2174.474	n/a	STOP	1087237	n/a	LTP190	ltpFR	12	n/a	n/a	n/a	n/a	n/a	n/a	n/a	n/a	n/a	n/a	n/a	n/a	n/a	n/a	n/a	n/a
2176.956	n/a	WORD	1088478	wordpools/wasnorm_wordpool_less_exclusions.txt	LTP190	ltpFR	12	9	1	CHIMNEY	301	n/a	n/a	0	n/a	0	0	0	0.57763671875	0.412841796875	1	lower	amplitud.ttf
2179.97	n/a	START	1089985	n/a	LTP190	ltpFR	12	n/a	n/a	n/a	n/a	n/a	n/a	n/a	n/a	n/a	n/a	n/a	n/a	n/a	n/a	n/a	n/a
2180.996	n/a	PROB	1090498	n/a	LTP190	ltpFR	12	n/a	n/a	n/a	n/a	n/a	n/a	n/a	15	5	9	1	n/a	n/a	n/a	n/a	n/a
2182.662	n/a	PROB	1091331	n/a	LTP190	ltpFR	12	n/a	n/a	n/a	n/a	n/a	n/a	n/a	17	7	3	7	n/a	n/a	n/a	n/a	n/a
2184.592	n/a	PROB	1092296	n/a	LTP190	ltpFR	12	n/a	n/a	n/a	n/a	n/a	n/a	n/a	20	6	9	5	n/a	n/a	n/a	n/a	n/a
2186.182	n/a	PROB	1093091	n/a	LTP190	ltpFR	12	n/a	n/a	n/a	n/a	n/a	n/a	n/a	19	8	9	2	n/a	n/a	n/a	n/a	n/a
2189.17	n/a	PROB	1094585	n/a	LTP190	ltpFR	12	n/a	n/a	n/a	n/a	n/a	n/a	n/a	16	8	5	1	n/a	n/a	n/a	n/a	n/a
2190.816	n/a	PROB	1095408	n/a	LTP190	ltpFR	12	n/a	n/a	n/a	n/a	n/a	n/a	n/a	7	3	1	3	n/a	n/a	n/a	n/a	n/a
2192.214	n/a	PROB	1096107	n/a	LTP190	ltpFR	12	n/a	n/a	n/a	n/a	n/a	n/a	n/a	14	6	2	6	n/a	n/a	n/a	n/a	n/a
2194.514	n/a	STOP	1097257	n/a	LTP190	ltpFR	12	n/a	n/a	n/a	n/a	n/a	n/a	n/a	n/a	n/a	n/a	n/a	n/a	n/a	n/a	n/a	n/a
2196.906	n/a	WORD	1098453	wordpools/wasnorm_wordpool_less_exclusions.txt	LTP190	ltpFR	12	9	1	FIREPLACE	570	n/a	n/a	0	n/a	0	0	0	0.57763671875	0.412841796875	1	lower	amplitud.ttf
2199.918	n/a	START	1099959	n/a	LTP190	ltpFR	12	n/a	n/a	n/a	n/a	n/a	n/a	n/a	n/a	n/a	n/a	n/a	n/a	n/a	n/a	n/a	n/a
2200.882	n/a	PROB	1100441	n/a	LTP190	ltpFR	12	n/a	n/a	n/a	n/a	n/a	n/a	n/a	12	2	4	6	n/a	n/a	n/a	n/a	n/a
2203.174	n/a	PROB	1101587	n/a	LTP190	ltpFR	12	n/a	n/a	n/a	n/a	n/a	n/a	n/a	8	1	3	4	n/a	n/a	n/a	n/a	n/a
2204.446	n/a	PROB	1102223	n/a	LTP190	ltpFR	12	n/a	n/a	n/a	n/a	n/a	n/a	n/a	17	6	6	5	n/a	n/a	n/a	n/a	n/a
2206.0	n/a	PROB	1103000	n/a	LTP190	ltpFR	12	n/a	n/a	n/a	n/a	n/a	n/a	n/a	6	4	1	1	n/a	n/a	n/a	n/a	n/a
2207.664	n/a	PROB	1103832	n/a	LTP190	ltpFR	12	n/a	n/a	n/a	n/a	n/a	n/a	n/a	13	7	3	3	n/a	n/a	n/a	n/a	n/a
2209.654	n/a	PROB	1104827	n/a	LTP190	ltpFR	12	n/a	n/a	n/a	n/a	n/a	n/a	n/a	16	5	4	7	n/a	n/a	n/a	n/a	n/a
2212.616	n/a	PROB	1106308	n/a	LTP190	ltpFR	12	n/a	n/a	n/a	n/a	n/a	n/a	n/a	12	8	1	3	n/a	n/a	n/a	n/a	n/a
2214.02	n/a	PROB	1107010	n/a	LTP190	ltpFR	12	n/a	n/a	n/a	n/a	n/a	n/a	n/a	19	2	9	8	n/a	n/a	n/a	n/a	n/a
2215.484	n/a	STOP	1107742	n/a	LTP190	ltpFR	12	n/a	n/a	n/a	n/a	n/a	n/a	n/a	n/a	n/a	n/a	n/a	n/a	n/a	n/a	n/a	n/a
2216.766	n/a	WORD	1108383	wordpools/wasnorm_wordpool_less_exclusions.txt	LTP190	ltpFR	12	9	1	DEODORANT	448	n/a	n/a	0	n/a	0	0	0	0.57763671875	0.412841796875	1	lower	amplitud.ttf
2219.778	n/a	START	1109889	n/a	LTP190	ltpFR	12	n/a	n/a	n/a	n/a	n/a	n/a	n/a	n/a	n/a	n/a	n/a	n/a	n/a	n/a	n/a	n/a
2220.88	n/a	PROB	1110440	n/a	LTP190	ltpFR	12	n/a	n/a	n/a	n/a	n/a	n/a	n/a	23	7	8	8	n/a	n/a	n/a	n/a	n/a
2223.418	n/a	PROB	1111709	n/a	LTP190	ltpFR	12	n/a	n/a	n/a	n/a	n/a	n/a	n/a	12	8	3	1	n/a	n/a	n/a	n/a	n/a
2224.728	n/a	PROB	1112364	n/a	LTP190	ltpFR	12	n/a	n/a	n/a	n/a	n/a	n/a	n/a	11	8	1	2	n/a	n/a	n/a	n/a	n/a
2226.68	n/a	PROB	1113340	n/a	LTP190	ltpFR	12	n/a	n/a	n/a	n/a	n/a	n/a	n/a	14	1	8	5	n/a	n/a	n/a	n/a	n/a
2228.526	n/a	PROB	1114263	n/a	LTP190	ltpFR	12	n/a	n/a	n/a	n/a	n/a	n/a	n/a	5	2	2	1	n/a	n/a	n/a	n/a	n/a
2229.732	n/a	PROB	1114866	n/a	LTP190	ltpFR	12	n/a	n/a	n/a	n/a	n/a	n/a	n/a	17	7	1	9	n/a	n/a	n/a	n/a	n/a
2231.504	n/a	PROB	1115752	n/a	LTP190	ltpFR	12	n/a	n/a	n/a	n/a	n/a	n/a	n/a	21	8	8	5	n/a	n/a	n/a	n/a	n/a
2235.778	n/a	STOP	1117889	n/a	LTP190	ltpFR	12	n/a	n/a	n/a	n/a	n/a	n/a	n/a	n/a	n/a	n/a	n/a	n/a	n/a	n/a	n/a	n/a
2236.938	n/a	WORD	1118469	wordpools/wasnorm_wordpool_less_exclusions.txt	LTP190	ltpFR	12	9	0	CHECKERS	285	n/a	n/a	1	n/a	0	0	0	0.422607421875	0.5869140625	0	upper	zerothre.ttf
2239.954	n/a	START	1119977	n/a	LTP190	ltpFR	12	n/a	n/a	n/a	n/a	n/a	n/a	n/a	n/a	n/a	n/a	n/a	n/a	n/a	n/a	n/a	n/a
2240.958	n/a	PROB	1120479	n/a	LTP190	ltpFR	12	n/a	n/a	n/a	n/a	n/a	n/a	n/a	18	5	6	7	n/a	n/a	n/a	n/a	n/a
2243.11	n/a	PROB	1121555	n/a	LTP190	ltpFR	12	n/a	n/a	n/a	n/a	n/a	n/a	n/a	18	7	2	9	n/a	n/a	n/a	n/a	n/a
2245.92	n/a	PROB	1122960	n/a	LTP190	ltpFR	12	n/a	n/a	n/a	n/a	n/a	n/a	n/a	11	7	3	1	n/a	n/a	n/a	n/a	n/a
2247.248	n/a	PROB	1123624	n/a	LTP190	ltpFR	12	n/a	n/a	n/a	n/a	n/a	n/a	n/a	8	1	6	1	n/a	n/a	n/a	n/a	n/a
2248.904	n/a	PROB	1124452	n/a	LTP190	ltpFR	12	n/a	n/a	n/a	n/a	n/a	n/a	n/a	18	2	9	7	n/a	n/a	n/a	n/a	n/a
2250.812	n/a	PROB	1125406	n/a	LTP190	ltpFR	12	n/a	n/a	n/a	n/a	n/a	n/a	n/a	11	4	1	6	n/a	n/a	n/a	n/a	n/a
2252.128	n/a	PROB	1126064	n/a	LTP190	ltpFR	12	n/a	n/a	n/a	n/a	n/a	n/a	n/a	24	8	8	8	n/a	n/a	n/a	n/a	n/a
2255.956	n/a	STOP	1127978	n/a	LTP190	ltpFR	12	n/a	n/a	n/a	n/a	n/a	n/a	n/a	n/a	n/a	n/a	n/a	n/a	n/a	n/a	n/a	n/a
2256.802	n/a	WORD	1128401	wordpools/wasnorm_wordpool_less_exclusions.txt	LTP190	ltpFR	12	9	0	SHEPHERD	1283	n/a	n/a	1	n/a	0	0	0	0.422607421875	0.5869140625	0	upper	zerothre.ttf
2259.814	n/a	START	1129907	n/a	LTP190	ltpFR	12	n/a	n/a	n/a	n/a	n/a	n/a	n/a	n/a	n/a	n/a	n/a	n/a	n/a	n/a	n/a	n/a
2260.632	n/a	PROB	1130316	n/a	LTP190	ltpFR	12	n/a	n/a	n/a	n/a	n/a	n/a	n/a	8	2	2	4	n/a	n/a	n/a	n/a	n/a
2264.072	n/a	PROB	1132036	n/a	LTP190	ltpFR	12	n/a	n/a	n/a	n/a	n/a	n/a	n/a	17	5	3	9	n/a	n/a	n/a	n/a	n/a
2266.706	n/a	PROB	1133353	n/a	LTP190	ltpFR	12	n/a	n/a	n/a	n/a	n/a	n/a	n/a	15	2	7	4	n/a	n/a	n/a	n/a	n/a
2268.306	n/a	PROB	1134153	n/a	LTP190	ltpFR	12	n/a	n/a	n/a	n/a	n/a	n/a	n/a	12	1	9	2	n/a	n/a	n/a	n/a	n/a
2270.296	n/a	PROB	1135148	n/a	LTP190	ltpFR	12	n/a	n/a	n/a	n/a	n/a	n/a	n/a	17	7	3	7	n/a	n/a	n/a	n/a	n/a
2272.12	n/a	PROB	1136060	n/a	LTP190	ltpFR	12	n/a	n/a	n/a	n/a	n/a	n/a	n/a	11	1	5	5	n/a	n/a	n/a	n/a	n/a
2273.314	n/a	PROB	1136657	n/a	LTP190	ltpFR	12	n/a	n/a	n/a	n/a	n/a	n/a	n/a	13	6	7	2	n/a	n/a	n/a	n/a	n/a
2274.696	n/a	STOP	1137348	n/a	LTP190	ltpFR	12	n/a	n/a	n/a	n/a	n/a	n/a	n/a	n/a	n/a	n/a	n/a	n/a	n/a	n/a	n/a	n/a
2276.788	n/a	WORD	1138394	wordpools/wasnorm_wordpool_less_exclusions.txt	LTP190	ltpFR	12	9	0	MOVIE	927	n/a	n/a	1	n/a	0	0	0	0.422607421875	0.5869140625	0	upper	zerothre.ttf
2279.8	n/a	START	1139900	n/a	LTP190	ltpFR	12	n/a	n/a	n/a	n/a	n/a	n/a	n/a	n/a	n/a	n/a	n/a	n/a	n/a	n/a	n/a	n/a
2280.81	n/a	PROB	1140405	n/a	LTP190	ltpFR	12	n/a	n/a	n/a	n/a	n/a	n/a	n/a	15	7	7	1	n/a	n/a	n/a	n/a	n/a
2282.176	n/a	PROB	1141088	n/a	LTP190	ltpFR	12	n/a	n/a	n/a	n/a	n/a	n/a	n/a	14	1	6	7	n/a	n/a	n/a	n/a	n/a
2285.912	n/a	PROB	1142956	n/a	LTP190	ltpFR	12	n/a	n/a	n/a	n/a	n/a	n/a	n/a	7	5	1	1	n/a	n/a	n/a	n/a	n/a
2287.428	n/a	PROB	1143714	n/a	LTP190	ltpFR	12	n/a	n/a	n/a	n/a	n/a	n/a	n/a	18	7	5	6	n/a	n/a	n/a	n/a	n/a
2291.886	n/a	PROB	1145943	n/a	LTP190	ltpFR	12	n/a	n/a	n/a	n/a	n/a	n/a	n/a	18	2	7	9	n/a	n/a	n/a	n/a	n/a
2294.154	n/a	PROB	1147077	n/a	LTP190	ltpFR	12	n/a	n/a	n/a	n/a	n/a	n/a	n/a	11	4	1	6	n/a	n/a	n/a	n/a	n/a
2295.304	n/a	STOP	1147652	n/a	LTP190	ltpFR	12	n/a	n/a	n/a	n/a	n/a	n/a	n/a	n/a	n/a	n/a	n/a	n/a	n/a	n/a	n/a	n/a
2296.988	n/a	WORD	1148494	wordpools/wasnorm_wordpool_less_exclusions.txt	LTP190	ltpFR	12	9	0	ACROBAT	4	n/a	n/a	1	n/a	0	0	0	0.422607421875	0.5869140625	0	upper	zerothre.ttf
2300.0	n/a	START	1150000	n/a	LTP190	ltpFR	12	n/a	n/a	n/a	n/a	n/a	n/a	n/a	n/a	n/a	n/a	n/a	n/a	n/a	n/a	n/a	n/a
2301.064	n/a	PROB	1150532	n/a	LTP190	ltpFR	12	n/a	n/a	n/a	n/a	n/a	n/a	n/a	12	2	2	8	n/a	n/a	n/a	n/a	n/a
2303.29	n/a	PROB	1151645	n/a	LTP190	ltpFR	12	n/a	n/a	n/a	n/a	n/a	n/a	n/a	18	5	8	5	n/a	n/a	n/a	n/a	n/a
2304.902	n/a	PROB	1152451	n/a	LTP190	ltpFR	12	n/a	n/a	n/a	n/a	n/a	n/a	n/a	15	3	7	5	n/a	n/a	n/a	n/a	n/a
2307.21	n/a	PROB	1153605	n/a	LTP190	ltpFR	12	n/a	n/a	n/a	n/a	n/a	n/a	n/a	11	1	2	8	n/a	n/a	n/a	n/a	n/a
2308.61	n/a	PROB	1154305	n/a	LTP190	ltpFR	12	n/a	n/a	n/a	n/a	n/a	n/a	n/a	6	1	3	2	n/a	n/a	n/a	n/a	n/a
2309.916	n/a	PROB	1154958	n/a	LTP190	ltpFR	12	n/a	n/a	n/a	n/a	n/a	n/a	n/a	18	4	5	9	n/a	n/a	n/a	n/a	n/a
2313.026	n/a	PROB	1156513	n/a	LTP190	ltpFR	12	n/a	n/a	n/a	n/a	n/a	n/a	n/a	9	1	6	2	n/a	n/a	n/a	n/a	n/a
2316.002	n/a	STOP	1158001	n/a	LTP190	ltpFR	12	n/a	n/a	n/a	n/a	n/a	n/a	n/a	n/a	n/a	n/a	n/a	n/a	n/a	n/a	n/a	n/a
2316.83	n/a	WORD	1158415	wordpools/wasnorm_wordpool_less_exclusions.txt	LTP190	ltpFR	12	9	1	PENGUIN	1044	n/a	n/a	1	n/a	0	0	0	0.57763671875	0.412841796875	1	lower	amplitud.ttf
2319.842	n/a	START	1159921	n/a	LTP190	ltpFR	12	n/a	n/a	n/a	n/a	n/a	n/a	n/a	n/a	n/a	n/a	n/a	n/a	n/a	n/a	n/a	n/a
2320.79	n/a	PROB	1160395	n/a	LTP190	ltpFR	12	n/a	n/a	n/a	n/a	n/a	n/a	n/a	12	5	1	6	n/a	n/a	n/a	n/a	n/a
2322.362	n/a	PROB	1161181	n/a	LTP190	ltpFR	12	n/a	n/a	n/a	n/a	n/a	n/a	n/a	17	3	9	5	n/a	n/a	n/a	n/a	n/a
2324.37	n/a	PROB	1162185	n/a	LTP190	ltpFR	12	n/a	n/a	n/a	n/a	n/a	n/a	n/a	15	7	4	2	n/a	n/a	n/a	n/a	n/a
2326.26	n/a	PROB	1163130	n/a	LTP190	ltpFR	12	n/a	n/a	n/a	n/a	n/a	n/a	n/a	15	1	5	9	n/a	n/a	n/a	n/a	n/a
2328.754	n/a	PROB	1164377	n/a	LTP190	ltpFR	12	n/a	n/a	n/a	n/a	n/a	n/a	n/a	10	2	1	7	n/a	n/a	n/a	n/a	n/a
2330.132	n/a	PROB	1165066	n/a	LTP190	ltpFR	12	n/a	n/a	n/a	n/a	n/a	n/a	n/a	13	2	5	6	n/a	n/a	n/a	n/a	n/a
2331.888	n/a	PROB	1165944	n/a	LTP190	ltpFR	12	n/a	n/a	n/a	n/a	n/a	n/a	n/a	17	6	3	8	n/a	n/a	n/a	n/a	n/a
2335.844	n/a	STOP	1167922	n/a	LTP190	ltpFR	12	n/a	n/a	n/a	n/a	n/a	n/a	n/a	n/a	n/a	n/a	n/a	n/a	n/a	n/a	n/a	n/a
2337.008	n/a	WORD	1168504	wordpools/wasnorm_wordpool_less_exclusions.txt	LTP190	ltpFR	12	9	1	FIDDLE	561	n/a	n/a	n/a	n/a	0	0	0	0.57763671875	0.412841796875	1	lower	amplitud.ttf
2340.052	n/a	SLOW_MSG	1170026	n/a	LTP190	ltpFR	12	9	n/a	n/a	n/a	n/a	n/a	n/a	n/a	0	0	0	n/a	n/a	n/a	n/a	n/a
2341.586	n/a	START	1170793	n/a	LTP190	ltpFR	12	n/a	n/a	n/a	n/a	n/a	n/a	n/a	n/a	n/a	n/a	n/a	n/a	n/a	n/a	n/a	n/a
2342.422	n/a	PROB	1171211	n/a	LTP190	ltpFR	12	n/a	n/a	n/a	n/a	n/a	n/a	n/a	10	3	5	2	n/a	n/a	n/a	n/a	n/a
2345.222	n/a	PROB	1172611	n/a	LTP190	ltpFR	12	n/a	n/a	n/a	n/a	n/a	n/a	n/a	21	8	7	6	n/a	n/a	n/a	n/a	n/a
2347.826	n/a	PROB	1173913	n/a	LTP190	ltpFR	12	n/a	n/a	n/a	n/a	n/a	n/a	n/a	21	5	7	9	n/a	n/a	n/a	n/a	n/a
2350.928	n/a	PROB	1175464	n/a	LTP190	ltpFR	12	n/a	n/a	n/a	n/a	n/a	n/a	n/a	14	1	7	6	n/a	n/a	n/a	n/a	n/a
2352.734	n/a	PROB	1176367	n/a	LTP190	ltpFR	12	n/a	n/a	n/a	n/a	n/a	n/a	n/a	15	2	4	9	n/a	n/a	n/a	n/a	n/a
2354.442	n/a	PROB	1177221	n/a	LTP190	ltpFR	12	n/a	n/a	n/a	n/a	n/a	n/a	n/a	21	5	9	7	n/a	n/a	n/a	n/a	n/a
2357.38	n/a	STOP	1178690	n/a	LTP190	ltpFR	12	n/a	n/a	n/a	n/a	n/a	n/a	n/a	n/a	n/a	n/a	n/a	n/a	n/a	n/a	n/a	n/a
2358.69	n/a	WORD	1179345	wordpools/wasnorm_wordpool_less_exclusions.txt	LTP190	ltpFR	12	9	1	SKUNK	1321	n/a	n/a	1	n/a	0	0	0	0.57763671875	0.412841796875	1	lower	amplitud.ttf
2361.702	n/a	START	1180851	n/a	LTP190	ltpFR	12	n/a	n/a	n/a	n/a	n/a	n/a	n/a	n/a	n/a	n/a	n/a	n/a	n/a	n/a	n/a	n/a
2362.89	n/a	PROB	1181445	n/a	LTP190	ltpFR	12	n/a	n/a	n/a	n/a	n/a	n/a	n/a	16	9	1	5	n/a	n/a	n/a	n/a	n/a
2364.574	n/a	PROB	1182287	n/a	LTP190	ltpFR	12	n/a	n/a	n/a	n/a	n/a	n/a	n/a	15	6	4	3	n/a	n/a	n/a	n/a	n/a
2366.856	n/a	PROB	1183428	n/a	LTP190	ltpFR	12	n/a	n/a	n/a	n/a	n/a	n/a	n/a	17	5	9	3	n/a	n/a	n/a	n/a	n/a
2370.58	n/a	PROB	1185290	n/a	LTP190	ltpFR	12	n/a	n/a	n/a	n/a	n/a	n/a	n/a	18	8	9	1	n/a	n/a	n/a	n/a	n/a
2372.102	n/a	PROB	1186051	n/a	LTP190	ltpFR	12	n/a	n/a	n/a	n/a	n/a	n/a	n/a	1	3	5	7	n/a	n/a	n/a	n/a	n/a
2375.114	n/a	PROB	1187557	n/a	LTP190	ltpFR	12	n/a	n/a	n/a	n/a	n/a	n/a	n/a	19	9	9	1	n/a	n/a	n/a	n/a	n/a
2376.532	n/a	STOP	1188266	n/a	LTP190	ltpFR	12	n/a	n/a	n/a	n/a	n/a	n/a	n/a	n/a	n/a	n/a	n/a	n/a	n/a	n/a	n/a	n/a
2378.85	n/a	WORD	1189425	wordpools/wasnorm_wordpool_less_exclusions.txt	LTP190	ltpFR	12	9	0	CITRUS	313	n/a	n/a	1	n/a	0	0	0	0.422607421875	0.5869140625	0	upper	zerothre.ttf
2381.862	n/a	START	1190931	n/a	LTP190	ltpFR	12	n/a	n/a	n/a	n/a	n/a	n/a	n/a	n/a	n/a	n/a	n/a	n/a	n/a	n/a	n/a	n/a
2382.832	n/a	PROB	1191416	n/a	LTP190	ltpFR	12	n/a	n/a	n/a	n/a	n/a	n/a	n/a	15	6	7	2	n/a	n/a	n/a	n/a	n/a
2384.484	n/a	PROB	1192242	n/a	LTP190	ltpFR	12	n/a	n/a	n/a	n/a	n/a	n/a	n/a	15	3	4	8	n/a	n/a	n/a	n/a	n/a
2386.14	n/a	PROB	1193070	n/a	LTP190	ltpFR	12	n/a	n/a	n/a	n/a	n/a	n/a	n/a	18	9	3	6	n/a	n/a	n/a	n/a	n/a
2388.104	n/a	PROB	1194052	n/a	LTP190	ltpFR	12	n/a	n/a	n/a	n/a	n/a	n/a	n/a	15	2	4	9	n/a	n/a	n/a	n/a	n/a
2390.39	n/a	PROB	1195195	n/a	LTP190	ltpFR	12	n/a	n/a	n/a	n/a	n/a	n/a	n/a	21	9	7	5	n/a	n/a	n/a	n/a	n/a
2392.664	n/a	PROB	1196332	n/a	LTP190	ltpFR	12	n/a	n/a	n/a	n/a	n/a	n/a	n/a	14	8	5	1	n/a	n/a	n/a	n/a	n/a
2394.84	n/a	PROB	1197420	n/a	LTP190	ltpFR	12	n/a	n/a	n/a	n/a	n/a	n/a	n/a	20	4	9	7	n/a	n/a	n/a	n/a	n/a
2397.366	n/a	STOP	1198683	n/a	LTP190	ltpFR	12	n/a	n/a	n/a	n/a	n/a	n/a	n/a	n/a	n/a	n/a	n/a	n/a	n/a	n/a	n/a	n/a
2398.726	n/a	WORD	1199363	wordpools/wasnorm_wordpool_less_exclusions.txt	LTP190	ltpFR	12	9	0	PLUM	1090	n/a	n/a	1	n/a	0	0	0	0.422607421875	0.5869140625	0	upper	zerothre.ttf
2401.738	n/a	START	1200869	n/a	LTP190	ltpFR	12	n/a	n/a	n/a	n/a	n/a	n/a	n/a	n/a	n/a	n/a	n/a	n/a	n/a	n/a	n/a	n/a
2402.62	n/a	PROB	1201310	n/a	LTP190	ltpFR	12	n/a	n/a	n/a	n/a	n/a	n/a	n/a	15	8	5	2	n/a	n/a	n/a	n/a	n/a
2404.466	n/a	PROB	1202233	n/a	LTP190	ltpFR	12	n/a	n/a	n/a	n/a	n/a	n/a	n/a	13	2	4	7	n/a	n/a	n/a	n/a	n/a
2407.454	n/a	PROB	1203727	n/a	LTP190	ltpFR	12	n/a	n/a	n/a	n/a	n/a	n/a	n/a	23	7	7	9	n/a	n/a	n/a	n/a	n/a
2410.416	n/a	PROB	1205208	n/a	LTP190	ltpFR	12	n/a	n/a	n/a	n/a	n/a	n/a	n/a	17	3	8	6	n/a	n/a	n/a	n/a	n/a
2413.116	n/a	PROB	1206558	n/a	LTP190	ltpFR	12	n/a	n/a	n/a	n/a	n/a	n/a	n/a	11	6	4	1	n/a	n/a	n/a	n/a	n/a
2414.448	n/a	PROB	1207224	n/a	LTP190	ltpFR	12	n/a	n/a	n/a	n/a	n/a	n/a	n/a	13	5	6	2	n/a	n/a	n/a	n/a	n/a
2415.742	n/a	PROB	1207871	n/a	LTP190	ltpFR	12	n/a	n/a	n/a	n/a	n/a	n/a	n/a	13	1	4	8	n/a	n/a	n/a	n/a	n/a
2417.03	n/a	STOP	1208515	n/a	LTP190	ltpFR	12	n/a	n/a	n/a	n/a	n/a	n/a	n/a	n/a	n/a	n/a	n/a	n/a	n/a	n/a	n/a	n/a
2418.93	n/a	WORD	1209465	wordpools/wasnorm_wordpool_less_exclusions.txt	LTP190	ltpFR	12	9	0	TWINE	1529	n/a	n/a	1	n/a	0	0	0	0.422607421875	0.5869140625	0	upper	zerothre.ttf
2421.944	n/a	START	1210972	n/a	LTP190	ltpFR	12	n/a	n/a	n/a	n/a	n/a	n/a	n/a	n/a	n/a	n/a	n/a	n/a	n/a	n/a	n/a	n/a
2422.92	n/a	PROB	1211460	n/a	LTP190	ltpFR	12	n/a	n/a	n/a	n/a	n/a	n/a	n/a	19	2	9	8	n/a	n/a	n/a	n/a	n/a
2425.322	n/a	PROB	1212661	n/a	LTP190	ltpFR	12	n/a	n/a	n/a	n/a	n/a	n/a	n/a	13	4	1	8	n/a	n/a	n/a	n/a	n/a
2426.712	n/a	PROB	1213356	n/a	LTP190	ltpFR	12	n/a	n/a	n/a	n/a	n/a	n/a	n/a	17	8	2	7	n/a	n/a	n/a	n/a	n/a
2428.842	n/a	PROB	1214421	n/a	LTP190	ltpFR	12	n/a	n/a	n/a	n/a	n/a	n/a	n/a	19	2	9	8	n/a	n/a	n/a	n/a	n/a
2431.044	n/a	PROB	1215522	n/a	LTP190	ltpFR	12	n/a	n/a	n/a	n/a	n/a	n/a	n/a	9	1	7	1	n/a	n/a	n/a	n/a	n/a
2432.668	n/a	PROB	1216334	n/a	LTP190	ltpFR	12	n/a	n/a	n/a	n/a	n/a	n/a	n/a	14	8	3	3	n/a	n/a	n/a	n/a	n/a
2434.33	n/a	PROB	1217165	n/a	LTP190	ltpFR	12	n/a	n/a	n/a	n/a	n/a	n/a	n/a	20	7	7	6	n/a	n/a	n/a	n/a	n/a
2437.944	n/a	STOP	1218972	n/a	LTP190	ltpFR	12	n/a	n/a	n/a	n/a	n/a	n/a	n/a	n/a	n/a	n/a	n/a	n/a	n/a	n/a	n/a	n/a
2438.896	n/a	WORD	1219448	wordpools/wasnorm_wordpool_less_exclusions.txt	LTP190	ltpFR	12	9	0	BASKETBALL	96	n/a	n/a	1	n/a	0	0	0	0.422607421875	0.5869140625	0	upper	zerothre.ttf
2441.91	n/a	START	1220955	n/a	LTP190	ltpFR	12	n/a	n/a	n/a	n/a	n/a	n/a	n/a	n/a	n/a	n/a	n/a	n/a	n/a	n/a	n/a	n/a
2442.88	n/a	PROB	1221440	n/a	LTP190	ltpFR	12	n/a	n/a	n/a	n/a	n/a	n/a	n/a	18	3	8	7	n/a	n/a	n/a	n/a	n/a
2444.836	n/a	PROB	1222418	n/a	LTP190	ltpFR	12	n/a	n/a	n/a	n/a	n/a	n/a	n/a	21	8	4	9	n/a	n/a	n/a	n/a	n/a
2448.594	n/a	PROB	1224297	n/a	LTP190	ltpFR	12	n/a	n/a	n/a	n/a	n/a	n/a	n/a	9	1	7	1	n/a	n/a	n/a	n/a	n/a
2449.706	n/a	PROB	1224853	n/a	LTP190	ltpFR	12	n/a	n/a	n/a	n/a	n/a	n/a	n/a	14	2	3	9	n/a	n/a	n/a	n/a	n/a
2451.578	n/a	PROB	1225789	n/a	LTP190	ltpFR	12	n/a	n/a	n/a	n/a	n/a	n/a	n/a	19	7	5	7	n/a	n/a	n/a	n/a	n/a
2457.91	n/a	STOP	1228955	n/a	LTP190	ltpFR	12	n/a	n/a	n/a	n/a	n/a	n/a	n/a	n/a	n/a	n/a	n/a	n/a	n/a	n/a	n/a	n/a
2459.678	n/a	REC_START	1229839	n/a	LTP190	ltpFR	12	9	n/a	n/a	n/a	n/a	n/a	n/a	n/a	0	0	0	n/a	n/a	n/a	n/a	n/a
2461.184	n/a	REC_WORD	1230592	wordpools/wasnorm_wordpool_less_exclusions.txt	LTP190	ltpFR	12	9	0	CITRUS	313	n/a	n/a	1	n/a	0	0	0	n/a	n/a	n/a	n/a	n/a
2462.082	n/a	REC_WORD	1231041	wordpools/wasnorm_wordpool_less_exclusions.txt	LTP190	ltpFR	12	9	0	PLUM	1090	n/a	n/a	1	n/a	0	0	0	n/a	n/a	n/a	n/a	n/a
2462.796	n/a	REC_WORD	1231398	wordpools/wasnorm_wordpool_less_exclusions.txt	LTP190	ltpFR	12	9	1	SKUNK	1321	n/a	n/a	1	n/a	0	0	0	n/a	n/a	n/a	n/a	n/a
2463.858	n/a	REC_WORD	1231929	wordpools/wasnorm_wordpool_less_exclusions.txt	LTP190	ltpFR	12	9	0	MOVIE	927	n/a	n/a	1	n/a	0	0	0	n/a	n/a	n/a	n/a	n/a
2538.796	n/a	WORD	1269398	wordpools/wasnorm_wordpool_less_exclusions.txt	LTP190	ltpFR	12	10	1	CHEMICAL	291	n/a	n/a	1	n/a	0	0	0	0.57763671875	0.412841796875	1	lower	amplitud.ttf
2542.728	n/a	WORD	1271364	wordpools/wasnorm_wordpool_less_exclusions.txt	LTP190	ltpFR	12	10	1	ELEPHANT	523	n/a	n/a	1	n/a	0	0	0	0.57763671875	0.412841796875	1	lower	amplitud.ttf
2546.776	n/a	WORD	1273388	wordpools/wasnorm_wordpool_less_exclusions.txt	LTP190	ltpFR	12	10	1	INTESTINE	742	n/a	n/a	1	n/a	0	0	0	0.57763671875	0.412841796875	1	lower	amplitud.ttf
2550.992	n/a	WORD	1275496	wordpools/wasnorm_wordpool_less_exclusions.txt	LTP190	ltpFR	12	10	1	CASTLE	256	n/a	n/a	0	n/a	0	0	0	0.57763671875	0.412841796875	1	lower	amplitud.ttf
2555.208	n/a	WORD	1277604	wordpools/wasnorm_wordpool_less_exclusions.txt	LTP190	ltpFR	12	10	1	CAP	236	n/a	n/a	0	n/a	0	0	0	0.57763671875	0.412841796875	1	lower	amplitud.ttf
2559.106	n/a	WORD	1279553	wordpools/wasnorm_wordpool_less_exclusions.txt	LTP190	ltpFR	12	10	1	POET	1095	n/a	n/a	1	n/a	0	0	0	0.57763671875	0.412841796875	1	lower	amplitud.ttf
2563.29	n/a	WORD	1281645	wordpools/wasnorm_wordpool_less_exclusions.txt	LTP190	ltpFR	12	10	1	NOVEL	960	n/a	n/a	0	n/a	0	0	0	0.57763671875	0.412841796875	1	lower	amplitud.ttf
2567.372	n/a	WORD	1283686	wordpools/wasnorm_wordpool_less_exclusions.txt	LTP190	ltpFR	12	10	1	MICROSCOPE	891	n/a	n/a	0	n/a	0	0	0	0.57763671875	0.412841796875	1	lower	amplitud.ttf
2571.572	n/a	WORD	1285786	wordpools/wasnorm_wordpool_less_exclusions.txt	LTP190	ltpFR	12	10	1	DOORBELL	487	n/a	n/a	0	n/a	0	0	0	0.57763671875	0.412841796875	1	lower	amplitud.ttf
2575.554	n/a	WORD	1287777	wordpools/wasnorm_wordpool_less_exclusions.txt	LTP190	ltpFR	12	10	1	SAPPHIRE	1234	n/a	n/a	0	n/a	0	0	0	0.57763671875	0.412841796875	1	lower	amplitud.ttf
2579.528	n/a	WORD	1289764	wordpools/wasnorm_wordpool_less_exclusions.txt	LTP190	ltpFR	12	10	1	CROW	414	n/a	n/a	1	n/a	0	0	0	0.57763671875	0.412841796875	1	lower	amplitud.ttf
2583.684	n/a	WORD	1291842	wordpools/wasnorm_wordpool_less_exclusions.txt	LTP190	ltpFR	12	10	1	MONEY	908	n/a	n/a	0	n/a	0	0	0	0.57763671875	0.412841796875	1	lower	amplitud.ttf
2587.766	n/a	WORD	1293883	wordpools/wasnorm_wordpool_less_exclusions.txt	LTP190	ltpFR	12	10	1	CAMEL	223	n/a	n/a	0	n/a	0	0	0	0.57763671875	0.412841796875	1	lower	amplitud.ttf
2591.982	n/a	WORD	1295991	wordpools/wasnorm_wordpool_less_exclusions.txt	LTP190	ltpFR	12	10	1	CANAL	226	n/a	n/a	0	n/a	0	0	0	0.57763671875	0.412841796875	1	lower	amplitud.ttf
2595.898	n/a	WORD	1297949	wordpools/wasnorm_wordpool_less_exclusions.txt	LTP190	ltpFR	12	10	1	TRENCH	1503	n/a	n/a	n/a	n/a	0	0	0	0.57763671875	0.412841796875	1	lower	amplitud.ttf
2598.942	n/a	SLOW_MSG	1299471	n/a	LTP190	ltpFR	12	10	n/a	n/a	n/a	n/a	n/a	n/a	n/a	0	0	0	n/a	n/a	n/a	n/a	n/a
2601.368	n/a	WORD	1300684	wordpools/wasnorm_wordpool_less_exclusions.txt	LTP190	ltpFR	12	10	1	CANARY	227	n/a	n/a	1	n/a	0	0	0	0.57763671875	0.412841796875	1	lower	amplitud.ttf
2604.38	n/a	START	1302190	n/a	LTP190	ltpFR	12	n/a	n/a	n/a	n/a	n/a	n/a	n/a	n/a	n/a	n/a	n/a	n/a	n/a	n/a	n/a	n/a
2605.484	n/a	PROB	1302742	n/a	LTP190	ltpFR	12	n/a	n/a	n/a	n/a	n/a	n/a	n/a	13	9	1	3	n/a	n/a	n/a	n/a	n/a
2607.518	n/a	PROB	1303759	n/a	LTP190	ltpFR	12	n/a	n/a	n/a	n/a	n/a	n/a	n/a	8	4	3	1	n/a	n/a	n/a	n/a	n/a
2609.132	n/a	PROB	1304566	n/a	LTP190	ltpFR	12	n/a	n/a	n/a	n/a	n/a	n/a	n/a	16	3	4	9	n/a	n/a	n/a	n/a	n/a
2611.1	n/a	PROB	1305550	n/a	LTP190	ltpFR	12	n/a	n/a	n/a	n/a	n/a	n/a	n/a	26	8	9	8	n/a	n/a	n/a	n/a	n/a
2613.358	n/a	PROB	1306679	n/a	LTP190	ltpFR	12	n/a	n/a	n/a	n/a	n/a	n/a	n/a	12	6	1	5	n/a	n/a	n/a	n/a	n/a
2615.556	n/a	PROB	1307778	n/a	LTP190	ltpFR	12	n/a	n/a	n/a	n/a	n/a	n/a	n/a	14	8	3	3	n/a	n/a	n/a	n/a	n/a
2617.156	n/a	PROB	1308578	n/a	LTP190	ltpFR	12	n/a	n/a	n/a	n/a	n/a	n/a	n/a	13	5	4	4	n/a	n/a	n/a	n/a	n/a
2619.194	n/a	STOP	1309597	n/a	LTP190	ltpFR	12	n/a	n/a	n/a	n/a	n/a	n/a	n/a	n/a	n/a	n/a	n/a	n/a	n/a	n/a	n/a	n/a
2622.266	n/a	REC_START	1311133	n/a	LTP190	ltpFR	12	10	n/a	n/a	n/a	n/a	n/a	n/a	n/a	0	0	0	n/a	n/a	n/a	n/a	n/a
2624.92	n/a	REC_WORD	1312460	wordpools/wasnorm_wordpool_less_exclusions.txt	LTP190	ltpFR	12	10	1	CAMEL	223	n/a	n/a	0	n/a	0	0	0	n/a	n/a	n/a	n/a	n/a
2625.946	n/a	REC_WORD	1312973	wordpools/wasnorm_wordpool_less_exclusions.txt	LTP190	ltpFR	12	10	1	CANAL	226	n/a	n/a	0	n/a	0	0	0	n/a	n/a	n/a	n/a	n/a
2637.576	n/a	REC_WORD	1318788	wordpools/wasnorm_wordpool_less_exclusions.txt	LTP190	ltpFR	12	10	1	CHEMICAL	291	n/a	n/a	1	n/a	0	0	0	n/a	n/a	n/a	n/a	n/a
2642.032	n/a	REC_WORD	1321016	wordpools/wasnorm_wordpool_less_exclusions.txt	LTP190	ltpFR	12	10	1	CAP	236	n/a	n/a	0	n/a	0	0	0	n/a	n/a	n/a	n/a	n/a
2697.898	n/a	REST_REWET	1348949	n/a	LTP190	ltpFR	12	10	n/a	n/a	n/a	n/a	n/a	n/a	n/a	0	0	0	n/a	n/a	n/a	n/a	n/a
3089.744	n/a	WORD	1544872	wordpools/wasnorm_wordpool_less_exclusions.txt	LTP190	ltpFR	12	11	0	NEWSPAPER	948	n/a	n/a	1	n/a	0	0	0	0.422607421875	0.5869140625	0	upper	zerothre.ttf
3093.844	n/a	WORD	1546922	wordpools/wasnorm_wordpool_less_exclusions.txt	LTP190	ltpFR	12	11	0	POSSUM	1112	n/a	n/a	1	n/a	0	0	0	0.422607421875	0.5869140625	0	upper	zerothre.ttf
3097.932	n/a	WORD	1548966	wordpools/wasnorm_wordpool_less_exclusions.txt	LTP190	ltpFR	12	11	0	HOE	711	n/a	n/a	1	n/a	0	0	0	0.422607421875	0.5869140625	0	upper	zerothre.ttf
3102.066	n/a	WORD	1551033	wordpools/wasnorm_wordpool_less_exclusions.txt	LTP190	ltpFR	12	11	0	LEAF	808	n/a	n/a	0	n/a	0	0	0	0.422607421875	0.5869140625	0	upper	zerothre.ttf
3106.08	n/a	WORD	1553040	wordpools/wasnorm_wordpool_less_exclusions.txt	LTP190	ltpFR	12	11	0	LIME	823	n/a	n/a	0	n/a	0	0	0	0.422607421875	0.5869140625	0	upper	zerothre.ttf
3110.246	n/a	WORD	1555123	wordpools/wasnorm_wordpool_less_exclusions.txt	LTP190	ltpFR	12	11	0	PUBLICATION	1136	n/a	n/a	1	n/a	0	0	0	0.422607421875	0.5869140625	0	upper	zerothre.ttf
3114.138	n/a	WORD	1557069	wordpools/wasnorm_wordpool_less_exclusions.txt	LTP190	ltpFR	12	11	0	WASP	1593	n/a	n/a	0	n/a	0	0	0	0.422607421875	0.5869140625	0	upper	zerothre.ttf
3118.076	n/a	WORD	1559038	wordpools/wasnorm_wordpool_less_exclusions.txt	LTP190	ltpFR	12	11	0	FUR	615	n/a	n/a	0	n/a	0	0	0	0.422607421875	0.5869140625	0	upper	zerothre.ttf
3122.242	n/a	WORD	1561121	wordpools/wasnorm_wordpool_less_exclusions.txt	LTP190	ltpFR	12	11	0	LILY	821	n/a	n/a	1	n/a	0	0	0	0.422607421875	0.5869140625	0	upper	zerothre.ttf
3126.468	n/a	WORD	1563234	wordpools/wasnorm_wordpool_less_exclusions.txt	LTP190	ltpFR	12	11	0	CONVENT	370	n/a	n/a	1	n/a	0	0	0	0.422607421875	0.5869140625	0	upper	zerothre.ttf
3130.658	n/a	WORD	1565329	wordpools/wasnorm_wordpool_less_exclusions.txt	LTP190	ltpFR	12	11	0	CHESS	294	n/a	n/a	1	n/a	0	0	0	0.422607421875	0.5869140625	0	upper	zerothre.ttf
3134.668	n/a	WORD	1567334	wordpools/wasnorm_wordpool_less_exclusions.txt	LTP190	ltpFR	12	11	0	CARD	243	n/a	n/a	1	n/a	0	0	0	0.422607421875	0.5869140625	0	upper	zerothre.ttf
3138.698	n/a	WORD	1569349	wordpools/wasnorm_wordpool_less_exclusions.txt	LTP190	ltpFR	12	11	0	SCOTCH	1251	n/a	n/a	0	n/a	0	0	0	0.422607421875	0.5869140625	0	upper	zerothre.ttf
3142.82	n/a	WORD	1571410	wordpools/wasnorm_wordpool_less_exclusions.txt	LTP190	ltpFR	12	11	0	SUGAR	1401	n/a	n/a	0	n/a	0	0	0	0.422607421875	0.5869140625	0	upper	zerothre.ttf
3146.73	n/a	WORD	1573365	wordpools/wasnorm_wordpool_less_exclusions.txt	LTP190	ltpFR	12	11	0	BACKBONE	66	n/a	n/a	0	n/a	0	0	0	0.422607421875	0.5869140625	0	upper	zerothre.ttf
3150.644	n/a	WORD	1575322	wordpools/wasnorm_wordpool_less_exclusions.txt	LTP190	ltpFR	12	11	0	MARROW	872	n/a	n/a	0	n/a	0	0	0	0.422607421875	0.5869140625	0	upper	zerothre.ttf
3153.656	n/a	START	1576828	n/a	LTP190	ltpFR	12	n/a	n/a	n/a	n/a	n/a	n/a	n/a	n/a	n/a	n/a	n/a	n/a	n/a	n/a	n/a	n/a
3154.542	n/a	PROB	1577271	n/a	LTP190	ltpFR	12	n/a	n/a	n/a	n/a	n/a	n/a	n/a	15	7	7	1	n/a	n/a	n/a	n/a	n/a
3156.216	n/a	PROB	1578108	n/a	LTP190	ltpFR	12	n/a	n/a	n/a	n/a	n/a	n/a	n/a	11	4	5	2	n/a	n/a	n/a	n/a	n/a
3158.09	n/a	PROB	1579045	n/a	LTP190	ltpFR	12	n/a	n/a	n/a	n/a	n/a	n/a	n/a	15	6	7	2	n/a	n/a	n/a	n/a	n/a
3161.656	n/a	STOP	1580828	n/a	LTP190	ltpFR	12	n/a	n/a	n/a	n/a	n/a	n/a	n/a	n/a	n/a	n/a	n/a	n/a	n/a	n/a	n/a	n/a
3163.612	n/a	REC_START	1581806	n/a	LTP190	ltpFR	12	11	n/a	n/a	n/a	n/a	n/a	n/a	n/a	0	0	0	n/a	n/a	n/a	n/a	n/a
3164.754	n/a	REC_WORD	1582377	wordpools/wasnorm_wordpool_less_exclusions.txt	LTP190	ltpFR	12	11	0	SCOTCH	1251	n/a	n/a	0	n/a	0	0	0	n/a	n/a	n/a	n/a	n/a
3165.736	n/a	REC_WORD	1582868	wordpools/wasnorm_wordpool_less_exclusions.txt	LTP190	ltpFR	12	11	0	SUGAR	1401	n/a	n/a	0	n/a	0	0	0	n/a	n/a	n/a	n/a	n/a
3166.664	n/a	REC_WORD	1583332	wordpools/wasnorm_wordpool_less_exclusions.txt	LTP190	ltpFR	12	11	0	CONVENT	370	n/a	n/a	1	n/a	0	0	0	n/a	n/a	n/a	n/a	n/a
3183.432	n/a	REC_WORD	1591716	wordpools/wasnorm_wordpool_less_exclusions.txt	LTP190	ltpFR	12	11	0	FUR	615	n/a	n/a	0	n/a	0	0	0	n/a	n/a	n/a	n/a	n/a
3189.664	n/a	REC_WORD	1594832	wordpools/wasnorm_wordpool_less_exclusions.txt	LTP190	ltpFR	12	11	0	NEWSPAPER	948	n/a	n/a	1	n/a	0	0	0	n/a	n/a	n/a	n/a	n/a
3190.652	n/a	REC_WORD	1595326	wordpools/wasnorm_wordpool_less_exclusions.txt	LTP190	ltpFR	12	11	0	PUBLICATION	1136	n/a	n/a	1	n/a	0	0	0	n/a	n/a	n/a	n/a	n/a
3244.626	n/a	START	1622313	n/a	LTP190	ltpFR	12	n/a	n/a	n/a	n/a	n/a	n/a	n/a	n/a	n/a	n/a	n/a	n/a	n/a	n/a	n/a	n/a
3246.144	n/a	PROB	1623072	n/a	LTP190	ltpFR	12	n/a	n/a	n/a	n/a	n/a	n/a	n/a	14	2	8	4	n/a	n/a	n/a	n/a	n/a
3249.662	n/a	PROB	1624831	n/a	LTP190	ltpFR	12	n/a	n/a	n/a	n/a	n/a	n/a	n/a	14	1	8	5	n/a	n/a	n/a	n/a	n/a
3251.284	n/a	STOP	1625642	n/a	LTP190	ltpFR	12	n/a	n/a	n/a	n/a	n/a	n/a	n/a	n/a	n/a	n/a	n/a	n/a	n/a	n/a	n/a	n/a
3253.478	n/a	WORD	1626739	wordpools/wasnorm_wordpool_less_exclusions.txt	LTP190	ltpFR	12	12	0	PUB	1135	n/a	n/a	1	n/a	0	0	0	0.422607421875	0.5869140625	0	upper	zerothre.ttf
3256.49	n/a	START	1628245	n/a	LTP190	ltpFR	12	n/a	n/a	n/a	n/a	n/a	n/a	n/a	n/a	n/a	n/a	n/a	n/a	n/a	n/a	n/a	n/a
3257.508	n/a	PROB	1628754	n/a	LTP190	ltpFR	12	n/a	n/a	n/a	n/a	n/a	n/a	n/a	16	7	5	4	n/a	n/a	n/a	n/a	n/a
3260.972	n/a	PROB	1630486	n/a	LTP190	ltpFR	12	n/a	n/a	n/a	n/a	n/a	n/a	n/a	25	7	9	7	n/a	n/a	n/a	n/a	n/a
3264.49	n/a	STOP	1632245	n/a	LTP190	ltpFR	12	n/a	n/a	n/a	n/a	n/a	n/a	n/a	n/a	n/a	n/a	n/a	n/a	n/a	n/a	n/a	n/a
3265.574	n/a	WORD	1632787	wordpools/wasnorm_wordpool_less_exclusions.txt	LTP190	ltpFR	12	12	0	JEWEL	757	n/a	n/a	1	n/a	0	0	0	0.422607421875	0.5869140625	0	upper	zerothre.ttf
3268.586	n/a	START	1634293	n/a	LTP190	ltpFR	12	n/a	n/a	n/a	n/a	n/a	n/a	n/a	n/a	n/a	n/a	n/a	n/a	n/a	n/a	n/a	n/a
3269.672	n/a	PROB	1634836	n/a	LTP190	ltpFR	12	n/a	n/a	n/a	n/a	n/a	n/a	n/a	17	2	6	9	n/a	n/a	n/a	n/a	n/a
3271.44	n/a	PROB	1635720	n/a	LTP190	ltpFR	12	n/a	n/a	n/a	n/a	n/a	n/a	n/a	14	2	9	3	n/a	n/a	n/a	n/a	n/a
3273.246	n/a	PROB	1636623	n/a	LTP190	ltpFR	12	n/a	n/a	n/a	n/a	n/a	n/a	n/a	14	8	5	1	n/a	n/a	n/a	n/a	n/a
3274.826	n/a	PROB	1637413	n/a	LTP190	ltpFR	12	n/a	n/a	n/a	n/a	n/a	n/a	n/a	12	2	6	4	n/a	n/a	n/a	n/a	n/a
3276.148	n/a	STOP	1638074	n/a	LTP190	ltpFR	12	n/a	n/a	n/a	n/a	n/a	n/a	n/a	n/a	n/a	n/a	n/a	n/a	n/a	n/a	n/a	n/a
3277.612	n/a	WORD	1638806	wordpools/wasnorm_wordpool_less_exclusions.txt	LTP190	ltpFR	12	12	0	BRAKE	166	n/a	n/a	1	n/a	0	0	0	0.422607421875	0.5869140625	0	upper	zerothre.ttf
3280.624	n/a	START	1640312	n/a	LTP190	ltpFR	12	n/a	n/a	n/a	n/a	n/a	n/a	n/a	n/a	n/a	n/a	n/a	n/a	n/a	n/a	n/a	n/a
3281.718	n/a	PROB	1640859	n/a	LTP190	ltpFR	12	n/a	n/a	n/a	n/a	n/a	n/a	n/a	7	1	2	4	n/a	n/a	n/a	n/a	n/a
3283.318	n/a	PROB	1641659	n/a	LTP190	ltpFR	12	n/a	n/a	n/a	n/a	n/a	n/a	n/a	16	6	4	6	n/a	n/a	n/a	n/a	n/a
3286.18	n/a	PROB	1643090	n/a	LTP190	ltpFR	12	n/a	n/a	n/a	n/a	n/a	n/a	n/a	13	3	9	1	n/a	n/a	n/a	n/a	n/a
3288.034	n/a	STOP	1644017	n/a	LTP190	ltpFR	12	n/a	n/a	n/a	n/a	n/a	n/a	n/a	n/a	n/a	n/a	n/a	n/a	n/a	n/a	n/a	n/a
3289.75	n/a	WORD	1644875	wordpools/wasnorm_wordpool_less_exclusions.txt	LTP190	ltpFR	12	12	0	MESSAGE	888	n/a	n/a	1	n/a	0	0	0	0.422607421875	0.5869140625	0	upper	zerothre.ttf
3292.76	n/a	START	1646380	n/a	LTP190	ltpFR	12	n/a	n/a	n/a	n/a	n/a	n/a	n/a	n/a	n/a	n/a	n/a	n/a	n/a	n/a	n/a	n/a
3293.596	n/a	PROB	1646798	n/a	LTP190	ltpFR	12	n/a	n/a	n/a	n/a	n/a	n/a	n/a	17	5	4	8	n/a	n/a	n/a	n/a	n/a
