mstime	trial_type	stim_file	subject	experiment	session	trial	task	item_name	item_num	recog_conf	resp	color_b	color_g	color_r	case	font
0	SESS_START	n/a	LTP066	ltpFR	0	n/a	n/a	n/a	n/a	4	n/a	n/a	n/a	n/a	n/a	n/a
87116	WORD	wordpools/wasnorm_wordpool.txt	LTP066	ltpFR	0	1	-1	MICROPHONE	890	n/a	-1	1	1.0	1.0	upper	../fonts/Verdana.ttf
90983	WORD	wordpools/wasnorm_wordpool.txt	LTP066	ltpFR	0	1	-1	CONE	363	n/a	-1	1	1.0	1.0	upper	../fonts/Verdana.ttf
95091	WORD	wordpools/wasnorm_wordpool.txt	LTP066	ltpFR	0	1	-1	FUDGE	611	n/a	-1	1	1.0	1.0	upper	../fonts/Verdana.ttf
99174	WORD	wordpools/wasnorm_wordpool.txt	LTP066	ltpFR	0	1	-1	ENGINE	535	n/a	-1	1	1.0	1.0	upper	../fonts/Verdana.ttf
103165	WORD	wordpools/wasnorm_wordpool.txt	LTP066	ltpFR	0	1	-1	FIREPLACE	570	n/a	-1	1	1.0	1.0	upper	../fonts/Verdana.ttf
106982	WORD	wordpools/wasnorm_wordpool.txt	LTP066	ltpFR	0	1	-1	STEP	1377	n/a	-1	1	1.0	1.0	upper	../fonts/Verdana.ttf
110823	WORD	wordpools/wasnorm_wordpool.txt	LTP066	ltpFR	0	1	-1	STAGE	1366	n/a	-1	1	1.0	1.0	upper	../fonts/Verdana.ttf
115006	WORD	wordpools/wasnorm_wordpool.txt	LTP066	ltpFR	0	1	-1	TREE	1502	n/a	-1	1	1.0	1.0	upper	../fonts/Verdana.ttf
118956	WORD	wordpools/wasnorm_wordpool.txt	LTP066	ltpFR	0	1	-1	CUSTARD	429	n/a	-1	1	1.0	1.0	upper	../fonts/Verdana.ttf
123114	WORD	wordpools/wasnorm_wordpool.txt	LTP066	ltpFR	0	1	-1	ELBOW	520	n/a	-1	1	1.0	1.0	upper	../fonts/Verdana.ttf
127255	WORD	wordpools/wasnorm_wordpool.txt	LTP066	ltpFR	0	1	-1	BOSS	152	n/a	-1	1	1.0	1.0	upper	../fonts/Verdana.ttf
131396	WORD	wordpools/wasnorm_wordpool.txt	LTP066	ltpFR	0	1	-1	TIMBER	1469	n/a	-1	1	1.0	1.0	upper	../fonts/Verdana.ttf
135505	WORD	wordpools/wasnorm_wordpool.txt	LTP066	ltpFR	0	1	-1	CLOCK	325	n/a	-1	1	1.0	1.0	upper	../fonts/Verdana.ttf
139670	WORD	wordpools/wasnorm_wordpool.txt	LTP066	ltpFR	0	1	-1	TICK	1463	n/a	-1	1	1.0	1.0	upper	../fonts/Verdana.ttf
143736	WORD	wordpools/wasnorm_wordpool.txt	LTP066	ltpFR	0	1	-1	PIZZA	1079	n/a	-1	1	1.0	1.0	upper	../fonts/Verdana.ttf
147829	WORD	wordpools/wasnorm_wordpool.txt	LTP066	ltpFR	0	1	-1	CRUTCH	417	n/a	-1	1	1.0	1.0	upper	../fonts/Verdana.ttf
153686	REC_START	n/a	LTP066	ltpFR	0	1	n/a	n/a	n/a	n/a	n/a	n/a	n/a	n/a	n/a	n/a
155921	REC_WORD	wordpools/wasnorm_wordpool.txt	LTP066	ltpFR	0	1	-1	MICROPHONE	890	n/a	-1	n/a	n/a	n/a	n/a	n/a
157422	REC_WORD	wordpools/wasnorm_wordpool.txt	LTP066	ltpFR	0	1	-1	CONE	363	n/a	-1	n/a	n/a	n/a	n/a	n/a
159847	REC_WORD	wordpools/wasnorm_wordpool.txt	LTP066	ltpFR	0	1	-1	TICK	1463	n/a	-1	n/a	n/a	n/a	n/a	n/a
160929	REC_WORD	wordpools/wasnorm_wordpool.txt	LTP066	ltpFR	0	1	-1	CLOCK	325	n/a	-1	n/a	n/a	n/a	n/a	n/a
162231	REC_WORD	wordpools/wasnorm_wordpool.txt	LTP066	ltpFR	0	1	-1	ELBOW	520	n/a	-1	n/a	n/a	n/a	n/a	n/a
165020	REC_WORD	wordpools/wasnorm_wordpool.txt	LTP066	ltpFR	0	1	-1	BOSS	152	n/a	-1	n/a	n/a	n/a	n/a	n/a
167359	REC_WORD	wordpools/wasnorm_wordpool.txt	LTP066	ltpFR	0	1	-1	FUDGE	611	n/a	-1	n/a	n/a	n/a	n/a	n/a
169799	REC_WORD	wordpools/wasnorm_wordpool.txt	LTP066	ltpFR	0	1	-1	STAGE	1366	n/a	-1	n/a	n/a	n/a	n/a	n/a
170986	REC_WORD	wordpools/wasnorm_wordpool.txt	LTP066	ltpFR	0	1	-1	STEP	1377	n/a	-1	n/a	n/a	n/a	n/a	n/a
173670	REC_WORD	wordpools/wasnorm_wordpool.txt	LTP066	ltpFR	0	1	n/a	FIRE	-1	n/a	n/a	n/a	n/a	n/a	n/a	n/a
174927	REC_WORD	wordpools/wasnorm_wordpool.txt	LTP066	ltpFR	0	1	-1	ENGINE	535	n/a	-1	n/a	n/a	n/a	n/a	n/a
190662	REC_WORD	wordpools/wasnorm_wordpool.txt	LTP066	ltpFR	0	1	-1	TREE	1502	n/a	-1	n/a	n/a	n/a	n/a	n/a
212821	REC_WORD	wordpools/wasnorm_wordpool.txt	LTP066	ltpFR	0	1	-1	PIZZA	1079	n/a	-1	n/a	n/a	n/a	n/a	n/a
257371	WORD	wordpools/wasnorm_wordpool.txt	LTP066	ltpFR	0	2	-1	COUNTY	389	n/a	-1	1	1.0	1.0	upper	../fonts/Verdana.ttf
261204	WORD	wordpools/wasnorm_wordpool.txt	LTP066	ltpFR	0	2	-1	VILLAIN	1567	n/a	-1	1	1.0	1.0	upper	../fonts/Verdana.ttf
265070	WORD	wordpools/wasnorm_wordpool.txt	LTP066	ltpFR	0	2	-1	SAPPHIRE	1234	n/a	-1	1	1.0	1.0	upper	../fonts/Verdana.ttf
269153	WORD	wordpools/wasnorm_wordpool.txt	LTP066	ltpFR	0	2	-1	STATUE	1374	n/a	-1	1	1.0	1.0	upper	../fonts/Verdana.ttf
273170	WORD	wordpools/wasnorm_wordpool.txt	LTP066	ltpFR	0	2	-1	COUNTRY	388	n/a	-1	1	1.0	1.0	upper	../fonts/Verdana.ttf
277369	WORD	wordpools/wasnorm_wordpool.txt	LTP066	ltpFR	0	2	-1	BUTTERFLY	206	n/a	-1	1	1.0	1.0	upper	../fonts/Verdana.ttf
281336	WORD	wordpools/wasnorm_wordpool.txt	LTP066	ltpFR	0	2	-1	NOTEBOOK	959	n/a	-1	1	1.0	1.0	upper	../fonts/Verdana.ttf
285152	WORD	wordpools/wasnorm_wordpool.txt	LTP066	ltpFR	0	2	-1	FOLDER	588	n/a	-1	1	1.0	1.0	upper	../fonts/Verdana.ttf
289027	WORD	wordpools/wasnorm_wordpool.txt	LTP066	ltpFR	0	2	-1	ROACH	1195	n/a	-1	1	1.0	1.0	upper	../fonts/Verdana.ttf
292893	WORD	wordpools/wasnorm_wordpool.txt	LTP066	ltpFR	0	2	-1	BERRY	122	n/a	-1	1	1.0	1.0	upper	../fonts/Verdana.ttf
296767	WORD	wordpools/wasnorm_wordpool.txt	LTP066	ltpFR	0	2	-1	WILDERNESS	1610	n/a	-1	1	1.0	1.0	upper	../fonts/Verdana.ttf
300708	WORD	wordpools/wasnorm_wordpool.txt	LTP066	ltpFR	0	2	-1	SCISSORS	1250	n/a	-1	1	1.0	1.0	upper	../fonts/Verdana.ttf
304851	WORD	wordpools/wasnorm_wordpool.txt	LTP066	ltpFR	0	2	-1	CUBE	420	n/a	-1	1	1.0	1.0	upper	../fonts/Verdana.ttf
308900	WORD	wordpools/wasnorm_wordpool.txt	LTP066	ltpFR	0	2	-1	JAPAN	749	n/a	-1	1	1.0	1.0	upper	../fonts/Verdana.ttf
312917	WORD	wordpools/wasnorm_wordpool.txt	LTP066	ltpFR	0	2	-1	PENCIL	1042	n/a	-1	1	1.0	1.0	upper	../fonts/Verdana.ttf
316858	WORD	wordpools/wasnorm_wordpool.txt	LTP066	ltpFR	0	2	-1	SCRIBBLE	1256	n/a	-1	1	1.0	1.0	upper	../fonts/Verdana.ttf
322732	REC_START	n/a	LTP066	ltpFR	0	2	n/a	n/a	n/a	n/a	n/a	n/a	n/a	n/a	n/a	n/a
325575	REC_WORD	wordpools/wasnorm_wordpool.txt	LTP066	ltpFR	0	2	-1	COUNTY	389	n/a	-1	n/a	n/a	n/a	n/a	n/a
326733	REC_WORD	wordpools/wasnorm_wordpool.txt	LTP066	ltpFR	0	2	-1	STATUE	1374	n/a	-1	n/a	n/a	n/a	n/a	n/a
329641	REC_WORD	wordpools/wasnorm_wordpool.txt	LTP066	ltpFR	0	2	-1	ROACH	1195	n/a	-1	n/a	n/a	n/a	n/a	n/a
330459	REC_WORD	wordpools/wasnorm_wordpool.txt	LTP066	ltpFR	0	2	-1	BUTTERFLY	206	n/a	-1	n/a	n/a	n/a	n/a	n/a
331861	REC_WORD	wordpools/wasnorm_wordpool.txt	LTP066	ltpFR	0	2	-1	CUBE	420	n/a	-1	n/a	n/a	n/a	n/a	n/a
332799	REC_WORD	wordpools/wasnorm_wordpool.txt	LTP066	ltpFR	0	2	-1	JAPAN	749	n/a	-1	n/a	n/a	n/a	n/a	n/a
333757	REC_WORD	wordpools/wasnorm_wordpool.txt	LTP066	ltpFR	0	2	-1	COUNTRY	388	n/a	-1	n/a	n/a	n/a	n/a	n/a
341275	REC_WORD	wordpools/wasnorm_wordpool.txt	LTP066	ltpFR	0	2	n/a	RUBY	1214	n/a	n/a	n/a	n/a	n/a	n/a	n/a
348064	REC_WORD	wordpools/wasnorm_wordpool.txt	LTP066	ltpFR	0	2	-1	PENCIL	1042	n/a	-1	n/a	n/a	n/a	n/a	n/a
356161	REC_WORD	wordpools/wasnorm_wordpool.txt	LTP066	ltpFR	0	2	-1	BUTTERFLY	206	n/a	-1	n/a	n/a	n/a	n/a	n/a
360506	REC_WORD	wordpools/wasnorm_wordpool.txt	LTP066	ltpFR	0	2	-1	VILLAIN	1567	n/a	-1	n/a	n/a	n/a	n/a	n/a
402835	WORD	wordpools/wasnorm_wordpool.txt	LTP066	ltpFR	0	3	-1	VAULT	1550	n/a	-1	1	1.0	1.0	upper	../fonts/Verdana.ttf
406793	WORD	wordpools/wasnorm_wordpool.txt	LTP066	ltpFR	0	3	-1	COIN	343	n/a	-1	1	1.0	1.0	upper	../fonts/Verdana.ttf
410625	WORD	wordpools/wasnorm_wordpool.txt	LTP066	ltpFR	0	3	-1	SERVER	1272	n/a	-1	1	1.0	1.0	upper	../fonts/Verdana.ttf
414717	WORD	wordpools/wasnorm_wordpool.txt	LTP066	ltpFR	0	3	-1	SCREW	1254	n/a	-1	1	1.0	1.0	upper	../fonts/Verdana.ttf
418666	WORD	wordpools/wasnorm_wordpool.txt	LTP066	ltpFR	0	3	-1	BALL	73	n/a	-1	1	1.0	1.0	upper	../fonts/Verdana.ttf
422616	WORD	wordpools/wasnorm_wordpool.txt	LTP066	ltpFR	0	3	-1	DISH	474	n/a	-1	1	1.0	1.0	upper	../fonts/Verdana.ttf
426575	WORD	wordpools/wasnorm_wordpool.txt	LTP066	ltpFR	0	3	-1	CREW	406	n/a	-1	1	1.0	1.0	upper	../fonts/Verdana.ttf
430408	WORD	wordpools/wasnorm_wordpool.txt	LTP066	ltpFR	0	3	-1	GROCERY	664	n/a	-1	1	1.0	1.0	upper	../fonts/Verdana.ttf
434233	WORD	wordpools/wasnorm_wordpool.txt	LTP066	ltpFR	0	3	-1	DICE	461	n/a	-1	1	1.0	1.0	upper	../fonts/Verdana.ttf
438158	WORD	wordpools/wasnorm_wordpool.txt	LTP066	ltpFR	0	3	-1	COYOTE	396	n/a	-1	1	1.0	1.0	upper	../fonts/Verdana.ttf
442349	WORD	wordpools/wasnorm_wordpool.txt	LTP066	ltpFR	0	3	-1	TROUSERS	1510	n/a	-1	1	1.0	1.0	upper	../fonts/Verdana.ttf
446307	WORD	wordpools/wasnorm_wordpool.txt	LTP066	ltpFR	0	3	-1	DOCK	477	n/a	-1	1	1.0	1.0	upper	../fonts/Verdana.ttf
450423	WORD	wordpools/wasnorm_wordpool.txt	LTP066	ltpFR	0	3	-1	BANQUET	86	n/a	-1	1	1.0	1.0	upper	../fonts/Verdana.ttf
454423	WORD	wordpools/wasnorm_wordpool.txt	LTP066	ltpFR	0	3	-1	CAPITAL	238	n/a	-1	1	1.0	1.0	upper	../fonts/Verdana.ttf
458473	WORD	wordpools/wasnorm_wordpool.txt	LTP066	ltpFR	0	3	-1	CITIZEN	312	n/a	-1	1	1.0	1.0	upper	../fonts/Verdana.ttf
462539	WORD	wordpools/wasnorm_wordpool.txt	LTP066	ltpFR	0	3	-1	LAPEL	800	n/a	-1	1	1.0	1.0	upper	../fonts/Verdana.ttf
468123	REC_START	n/a	LTP066	ltpFR	0	3	n/a	n/a	n/a	n/a	n/a	n/a	n/a	n/a	n/a	n/a
470747	REC_WORD	wordpools/wasnorm_wordpool.txt	LTP066	ltpFR	0	3	-1	VAULT	1550	n/a	-1	n/a	n/a	n/a	n/a	n/a
473146	REC_WORD	wordpools/wasnorm_wordpool.txt	LTP066	ltpFR	0	3	-1	COIN	343	n/a	-1	n/a	n/a	n/a	n/a	n/a
475795	REC_WORD	wordpools/wasnorm_wordpool.txt	LTP066	ltpFR	0	3	-1	LAPEL	800	n/a	-1	n/a	n/a	n/a	n/a	n/a
478734	REC_WORD	wordpools/wasnorm_wordpool.txt	LTP066	ltpFR	0	3	-1	CAPITAL	238	n/a	-1	n/a	n/a	n/a	n/a	n/a
485848	REC_WORD	wordpools/wasnorm_wordpool.txt	LTP066	ltpFR	0	3	-1	CREW	406	n/a	-1	n/a	n/a	n/a	n/a	n/a
488028	REC_WORD	wordpools/wasnorm_wordpool.txt	LTP066	ltpFR	0	3	-1	BALL	73	n/a	-1	n/a	n/a	n/a	n/a	n/a
488756	REC_WORD	wordpools/wasnorm_wordpool.txt	LTP066	ltpFR	0	3	-1	DISH	474	n/a	-1	n/a	n/a	n/a	n/a	n/a
492113	REC_WORD	wordpools/wasnorm_wordpool.txt	LTP066	ltpFR	0	3	-1	GROCERY	664	n/a	-1	n/a	n/a	n/a	n/a	n/a
498643	REC_WORD	wordpools/wasnorm_wordpool.txt	LTP066	ltpFR	0	3	-1	TROUSERS	1510	n/a	-1	n/a	n/a	n/a	n/a	n/a
503293	REC_WORD	wordpools/wasnorm_wordpool.txt	LTP066	ltpFR	0	3	-1	BANQUET	86	n/a	-1	n/a	n/a	n/a	n/a	n/a
531648	REC_WORD	wordpools/wasnorm_wordpool.txt	LTP066	ltpFR	0	3	-1	CITIZEN	312	n/a	-1	n/a	n/a	n/a	n/a	n/a
547566	WORD	wordpools/wasnorm_wordpool.txt	LTP066	ltpFR	0	4	-1	HEDGE	699	n/a	-1	1	1.0	1.0	upper	../fonts/Verdana.ttf
551558	WORD	wordpools/wasnorm_wordpool.txt	LTP066	ltpFR	0	4	-1	ORNAMENT	985	n/a	-1	1	1.0	1.0	upper	../fonts/Verdana.ttf
555441	WORD	wordpools/wasnorm_wordpool.txt	LTP066	ltpFR	0	4	-1	SEAGULL	1261	n/a	-1	1	1.0	1.0	upper	../fonts/Verdana.ttf
559524	WORD	wordpools/wasnorm_wordpool.txt	LTP066	ltpFR	0	4	-1	GERM	632	n/a	-1	1	1.0	1.0	upper	../fonts/Verdana.ttf
563706	WORD	wordpools/wasnorm_wordpool.txt	LTP066	ltpFR	0	4	-1	ASSISTANT	48	n/a	-1	1	1.0	1.0	upper	../fonts/Verdana.ttf
567664	WORD	wordpools/wasnorm_wordpool.txt	LTP066	ltpFR	0	4	-1	MINT	898	n/a	-1	1	1.0	1.0	upper	../fonts/Verdana.ttf
571515	WORD	wordpools/wasnorm_wordpool.txt	LTP066	ltpFR	0	4	-1	PIGMENT	1066	n/a	-1	1	1.0	1.0	upper	../fonts/Verdana.ttf
575439	WORD	wordpools/wasnorm_wordpool.txt	LTP066	ltpFR	0	4	-1	PAINT	1003	n/a	-1	1	1.0	1.0	upper	../fonts/Verdana.ttf
579331	WORD	wordpools/wasnorm_wordpool.txt	LTP066	ltpFR	0	4	-1	VITAMIN	1574	n/a	-1	1	1.0	1.0	upper	../fonts/Verdana.ttf
583155	WORD	wordpools/wasnorm_wordpool.txt	LTP066	ltpFR	0	4	-1	DRESSER	496	n/a	-1	1	1.0	1.0	upper	../fonts/Verdana.ttf
587363	WORD	wordpools/wasnorm_wordpool.txt	LTP066	ltpFR	0	4	-1	CRADLE	399	n/a	-1	1	1.0	1.0	upper	../fonts/Verdana.ttf
591171	WORD	wordpools/wasnorm_wordpool.txt	LTP066	ltpFR	0	4	-1	TYPIST	1532	n/a	-1	1	1.0	1.0	upper	../fonts/Verdana.ttf
595279	WORD	wordpools/wasnorm_wordpool.txt	LTP066	ltpFR	0	4	-1	BANANA	77	n/a	-1	1	1.0	1.0	upper	../fonts/Verdana.ttf
599279	WORD	wordpools/wasnorm_wordpool.txt	LTP066	ltpFR	0	4	-1	KIWI	781	n/a	-1	1	1.0	1.0	upper	../fonts/Verdana.ttf
603187	WORD	wordpools/wasnorm_wordpool.txt	LTP066	ltpFR	0	4	-1	CLOTHES	327	n/a	-1	1	1.0	1.0	upper	../fonts/Verdana.ttf
607245	WORD	wordpools/wasnorm_wordpool.txt	LTP066	ltpFR	0	4	-1	CREAM	402	n/a	-1	1	1.0	1.0	upper	../fonts/Verdana.ttf
613145	REC_START	n/a	LTP066	ltpFR	0	4	n/a	n/a	n/a	n/a	n/a	n/a	n/a	n/a	n/a	n/a
617206	REC_WORD	wordpools/wasnorm_wordpool.txt	LTP066	ltpFR	0	4	-1	CRADLE	399	n/a	-1	n/a	n/a	n/a	n/a	n/a
618233	REC_WORD	wordpools/wasnorm_wordpool.txt	LTP066	ltpFR	0	4	-1	BANANA	77	n/a	-1	n/a	n/a	n/a	n/a	n/a
619769	REC_WORD	wordpools/wasnorm_wordpool.txt	LTP066	ltpFR	0	4	-1	TYPIST	1532	n/a	-1	n/a	n/a	n/a	n/a	n/a
623940	REC_WORD	wordpools/wasnorm_wordpool.txt	LTP066	ltpFR	0	4	n/a	CABINET	212	n/a	n/a	n/a	n/a	n/a	n/a	n/a
627203	REC_WORD	wordpools/wasnorm_wordpool.txt	LTP066	ltpFR	0	4	-1	SEAGULL	1261	n/a	-1	n/a	n/a	n/a	n/a	n/a
630291	REC_WORD	wordpools/wasnorm_wordpool.txt	LTP066	ltpFR	0	4	-1	GERM	632	n/a	-1	n/a	n/a	n/a	n/a	n/a
631388	REC_WORD	wordpools/wasnorm_wordpool.txt	LTP066	ltpFR	0	4	-1	PIGMENT	1066	n/a	-1	n/a	n/a	n/a	n/a	n/a
634127	REC_WORD	wordpools/wasnorm_wordpool.txt	LTP066	ltpFR	0	4	-1	HEDGE	699	n/a	-1	n/a	n/a	n/a	n/a	n/a
637509	REC_WORD	wordpools/wasnorm_wordpool.txt	LTP066	ltpFR	0	4	-1	ORNAMENT	985	n/a	-1	n/a	n/a	n/a	n/a	n/a
640453	REC_WORD	wordpools/wasnorm_wordpool.txt	LTP066	ltpFR	0	4	-1	PAINT	1003	n/a	-1	n/a	n/a	n/a	n/a	n/a
641864	REC_WORD	wordpools/wasnorm_wordpool.txt	LTP066	ltpFR	0	4	-1	MINT	898	n/a	-1	n/a	n/a	n/a	n/a	n/a
643113	REC_WORD	wordpools/wasnorm_wordpool.txt	LTP066	ltpFR	0	4	-1	ASSISTANT	48	n/a	-1	n/a	n/a	n/a	n/a	n/a
653064	REC_WORD	wordpools/wasnorm_wordpool.txt	LTP066	ltpFR	0	4	-1	KIWI	781	n/a	-1	n/a	n/a	n/a	n/a	n/a
656272	REC_WORD	wordpools/wasnorm_wordpool.txt	LTP066	ltpFR	0	4	-1	CLOTHES	327	n/a	-1	n/a	n/a	n/a	n/a	n/a
668120	REC_WORD	wordpools/wasnorm_wordpool.txt	LTP066	ltpFR	0	4	-1	CREAM	402	n/a	-1	n/a	n/a	n/a	n/a	n/a
899765	WORD	wordpools/wasnorm_wordpool.txt	LTP066	ltpFR	0	5	0	TULIP	1517	n/a	0	0	0.5869140625	0.422607421875	lower	../fonts/zerothre.ttf
903731	WORD	wordpools/wasnorm_wordpool.txt	LTP066	ltpFR	0	5	0	EXPLOSION	544	n/a	0	0	0.5869140625	0.422607421875	lower	../fonts/zerothre.ttf
907807	WORD	wordpools/wasnorm_wordpool.txt	LTP066	ltpFR	0	5	0	JAM	748	n/a	0	0	0.5869140625	0.422607421875	lower	../fonts/zerothre.ttf
912015	WORD	wordpools/wasnorm_wordpool.txt	LTP066	ltpFR	0	5	0	SANDWICH	1232	n/a	0	0	0.5869140625	0.422607421875	lower	../fonts/zerothre.ttf
915998	WORD	wordpools/wasnorm_wordpool.txt	LTP066	ltpFR	0	5	0	BUFFALO	186	n/a	1	0	0.5869140625	0.422607421875	lower	../fonts/zerothre.ttf
919956	WORD	wordpools/wasnorm_wordpool.txt	LTP066	ltpFR	0	5	0	BISON	131	n/a	1	0	0.5869140625	0.422607421875	lower	../fonts/zerothre.ttf
923881	WORD	wordpools/wasnorm_wordpool.txt	LTP066	ltpFR	0	5	0	PIN	1072	n/a	0	0	0.5869140625	0.422607421875	lower	../fonts/zerothre.ttf
927897	WORD	wordpools/wasnorm_wordpool.txt	LTP066	ltpFR	0	5	0	STRING	1394	n/a	0	0	0.5869140625	0.422607421875	lower	../fonts/zerothre.ttf
931754	WORD	wordpools/wasnorm_wordpool.txt	LTP066	ltpFR	0	5	0	HEART	697	n/a	0	0	0.5869140625	0.422607421875	lower	../fonts/zerothre.ttf
935880	WORD	wordpools/wasnorm_wordpool.txt	LTP066	ltpFR	0	5	0	PLATE	1086	n/a	1	0	0.5869140625	0.422607421875	lower	../fonts/zerothre.ttf
939703	WORD	wordpools/wasnorm_wordpool.txt	LTP066	ltpFR	0	5	0	MEDICINE	886	n/a	0	0	0.5869140625	0.422607421875	lower	../fonts/zerothre.ttf
943695	WORD	wordpools/wasnorm_wordpool.txt	LTP066	ltpFR	0	5	0	NECK	939	n/a	0	0	0.5869140625	0.422607421875	lower	../fonts/zerothre.ttf
947871	WORD	wordpools/wasnorm_wordpool.txt	LTP066	ltpFR	0	5	0	SEED	1266	n/a	0	0	0.5869140625	0.422607421875	lower	../fonts/zerothre.ttf
951954	WORD	wordpools/wasnorm_wordpool.txt	LTP066	ltpFR	0	5	0	TANK	1432	n/a	1	0	0.5869140625	0.422607421875	lower	../fonts/zerothre.ttf
955945	WORD	wordpools/wasnorm_wordpool.txt	LTP066	ltpFR	0	5	0	BRICK	172	n/a	0	0	0.5869140625	0.422607421875	lower	../fonts/zerothre.ttf
959978	WORD	wordpools/wasnorm_wordpool.txt	LTP066	ltpFR	0	5	0	CONTRACTOR	369	n/a	1	0	0.5869140625	0.422607421875	lower	../fonts/zerothre.ttf
965786	REC_START	n/a	LTP066	ltpFR	0	5	n/a	n/a	n/a	n/a	n/a	n/a	n/a	n/a	n/a	n/a
969577	REC_WORD	wordpools/wasnorm_wordpool.txt	LTP066	ltpFR	0	5	0	CONTRACTOR	369	n/a	1	n/a	n/a	n/a	n/a	n/a
971827	REC_WORD	wordpools/wasnorm_wordpool.txt	LTP066	ltpFR	0	5	0	BISON	131	n/a	1	n/a	n/a	n/a	n/a	n/a
975608	REC_WORD	wordpools/wasnorm_wordpool.txt	LTP066	ltpFR	0	5	0	PIN	1072	n/a	0	n/a	n/a	n/a	n/a	n/a
977130	REC_WORD	wordpools/wasnorm_wordpool.txt	LTP066	ltpFR	0	5	0	NECK	939	n/a	0	n/a	n/a	n/a	n/a	n/a
978327	REC_WORD	wordpools/wasnorm_wordpool.txt	LTP066	ltpFR	0	5	0	SEED	1266	n/a	0	n/a	n/a	n/a	n/a	n/a
988290	REC_WORD	wordpools/wasnorm_wordpool.txt	LTP066	ltpFR	0	5	0	TULIP	1517	n/a	0	n/a	n/a	n/a	n/a	n/a
993103	REC_WORD	wordpools/wasnorm_wordpool.txt	LTP066	ltpFR	0	5	0	EXPLOSION	544	n/a	0	n/a	n/a	n/a	n/a	n/a
999404	REC_WORD	wordpools/wasnorm_wordpool.txt	LTP066	ltpFR	0	5	0	PLATE	1086	n/a	1	n/a	n/a	n/a	n/a	n/a
1011397	REC_WORD	wordpools/wasnorm_wordpool.txt	LTP066	ltpFR	0	5	0	BUFFALO	186	n/a	1	n/a	n/a	n/a	n/a	n/a
1015742	REC_WORD	wordpools/wasnorm_wordpool.txt	LTP066	ltpFR	0	5	0	STRING	1394	n/a	0	n/a	n/a	n/a	n/a	n/a
1033133	REC_WORD	wordpools/wasnorm_wordpool.txt	LTP066	ltpFR	0	5	0	HEART	697	n/a	0	n/a	n/a	n/a	n/a	n/a
1048213	WORD	wordpools/wasnorm_wordpool.txt	LTP066	ltpFR	0	6	0	HARP	689	n/a	0	0	0.5869140625	0.422607421875	lower	../fonts/zerothre.ttf
1052163	WORD	wordpools/wasnorm_wordpool.txt	LTP066	ltpFR	0	6	0	TROPHY	1509	n/a	1	0	0.5869140625	0.422607421875	lower	../fonts/zerothre.ttf
1056154	WORD	wordpools/wasnorm_wordpool.txt	LTP066	ltpFR	0	6	0	ERASER	538	n/a	0	0	0.5869140625	0.422607421875	lower	../fonts/zerothre.ttf
1059979	WORD	wordpools/wasnorm_wordpool.txt	LTP066	ltpFR	0	6	0	ICING	732	n/a	0	0	0.5869140625	0.422607421875	lower	../fonts/zerothre.ttf
1064187	WORD	wordpools/wasnorm_wordpool.txt	LTP066	ltpFR	0	6	0	CACTUS	215	n/a	1	0	0.5869140625	0.422607421875	lower	../fonts/zerothre.ttf
1068128	WORD	wordpools/wasnorm_wordpool.txt	LTP066	ltpFR	0	6	0	VASE	1549	n/a	1	0	0.5869140625	0.422607421875	lower	../fonts/zerothre.ttf
1072003	WORD	wordpools/wasnorm_wordpool.txt	LTP066	ltpFR	0	6	0	CHAIN	273	n/a	0	0	0.5869140625	0.422607421875	lower	../fonts/zerothre.ttf
1076203	WORD	wordpools/wasnorm_wordpool.txt	LTP066	ltpFR	0	6	0	EARRING	514	n/a	0	0	0.5869140625	0.422607421875	lower	../fonts/zerothre.ttf
1080053	WORD	wordpools/wasnorm_wordpool.txt	LTP066	ltpFR	0	6	0	CIGARETTE	309	n/a	0	0	0.5869140625	0.422607421875	lower	../fonts/zerothre.ttf
1083944	WORD	wordpools/wasnorm_wordpool.txt	LTP066	ltpFR	0	6	0	WINNER	1615	n/a	1	0	0.5869140625	0.422607421875	lower	../fonts/zerothre.ttf
1088144	WORD	wordpools/wasnorm_wordpool.txt	LTP066	ltpFR	0	6	0	BURGLAR	200	n/a	1	0	0.5869140625	0.422607421875	lower	../fonts/zerothre.ttf
1092018	WORD	wordpools/wasnorm_wordpool.txt	LTP066	ltpFR	0	6	0	VIOLA	1570	n/a	0	0	0.5869140625	0.422607421875	lower	../fonts/zerothre.ttf
1096126	WORD	wordpools/wasnorm_wordpool.txt	LTP066	ltpFR	0	6	0	SILK	1307	n/a	0	0	0.5869140625	0.422607421875	lower	../fonts/zerothre.ttf
1100151	WORD	wordpools/wasnorm_wordpool.txt	LTP066	ltpFR	0	6	0	VELVET	1555	n/a	0	0	0.5869140625	0.422607421875	lower	../fonts/zerothre.ttf
1104351	WORD	wordpools/wasnorm_wordpool.txt	LTP066	ltpFR	0	6	0	SATURN	1236	n/a	1	0	0.5869140625	0.422607421875	lower	../fonts/zerothre.ttf
1108526	WORD	wordpools/wasnorm_wordpool.txt	LTP066	ltpFR	0	6	0	FACTORY	548	n/a	1	0	0.5869140625	0.422607421875	lower	../fonts/zerothre.ttf
1114559	REC_START	n/a	LTP066	ltpFR	0	6	n/a	n/a	n/a	n/a	n/a	n/a	n/a	n/a	n/a	n/a
1116629	REC_WORD	wordpools/wasnorm_wordpool.txt	LTP066	ltpFR	0	6	0	SATURN	1236	n/a	1	n/a	n/a	n/a	n/a	n/a
1117437	REC_WORD	wordpools/wasnorm_wordpool.txt	LTP066	ltpFR	0	6	0	FACTORY	548	n/a	1	n/a	n/a	n/a	n/a	n/a
1118754	REC_WORD	wordpools/wasnorm_wordpool.txt	LTP066	ltpFR	0	6	0	VIOLA	1570	n/a	0	n/a	n/a	n/a	n/a	n/a
1119722	REC_WORD	wordpools/wasnorm_wordpool.txt	LTP066	ltpFR	0	6	0	HARP	689	n/a	0	n/a	n/a	n/a	n/a	n/a
1125414	REC_WORD	wordpools/wasnorm_wordpool.txt	LTP066	ltpFR	0	6	0	ERASER	538	n/a	0	n/a	n/a	n/a	n/a	n/a
1144486	REC_WORD	wordpools/wasnorm_wordpool.txt	LTP066	ltpFR	0	6	0	VASE	1549	n/a	1	n/a	n/a	n/a	n/a	n/a
1147554	REC_WORD	wordpools/wasnorm_wordpool.txt	LTP066	ltpFR	0	6	0	WINNER	1615	n/a	1	n/a	n/a	n/a	n/a	n/a
1148746	REC_WORD	wordpools/wasnorm_wordpool.txt	LTP066	ltpFR	0	6	0	TROPHY	1509	n/a	1	n/a	n/a	n/a	n/a	n/a
1162285	REC_WORD	wordpools/wasnorm_wordpool.txt	LTP066	ltpFR	0	6	0	EARRING	514	n/a	0	n/a	n/a	n/a	n/a	n/a
1193778	WORD	wordpools/wasnorm_wordpool.txt	LTP066	ltpFR	0	7	0	FLOOR	581	n/a	1	0	0.5869140625	0.422607421875	lower	../fonts/zerothre.ttf
1197827	WORD	wordpools/wasnorm_wordpool.txt	LTP066	ltpFR	0	7	0	SWIMMER	1420	n/a	1	0	0.5869140625	0.422607421875	lower	../fonts/zerothre.ttf
1202035	WORD	wordpools/wasnorm_wordpool.txt	LTP066	ltpFR	0	7	0	SINK	1309	n/a	1	0	0.5869140625	0.422607421875	lower	../fonts/zerothre.ttf
1205902	WORD	wordpools/wasnorm_wordpool.txt	LTP066	ltpFR	0	7	0	MARS	873	n/a	1	0	0.5869140625	0.422607421875	lower	../fonts/zerothre.ttf
1210060	WORD	wordpools/wasnorm_wordpool.txt	LTP066	ltpFR	0	7	0	VETERAN	1561	n/a	1	0	0.5869140625	0.422607421875	lower	../fonts/zerothre.ttf
1213910	WORD	wordpools/wasnorm_wordpool.txt	LTP066	ltpFR	0	7	0	LASER	801	n/a	0	0	0.5869140625	0.422607421875	lower	../fonts/zerothre.ttf
1218059	WORD	wordpools/wasnorm_wordpool.txt	LTP066	ltpFR	0	7	0	ZUCCHINI	1638	n/a	0	0	0.5869140625	0.422607421875	lower	../fonts/zerothre.ttf
1222259	WORD	wordpools/wasnorm_wordpool.txt	LTP066	ltpFR	0	7	0	COLESLAW	344	n/a	0	0	0.5869140625	0.422607421875	lower	../fonts/zerothre.ttf
1226242	WORD	wordpools/wasnorm_wordpool.txt	LTP066	ltpFR	0	7	0	TREASURE	1500	n/a	1	0	0.5869140625	0.422607421875	lower	../fonts/zerothre.ttf
1230450	WORD	wordpools/wasnorm_wordpool.txt	LTP066	ltpFR	0	7	0	RUBY	1214	n/a	0	0	0.5869140625	0.422607421875	lower	../fonts/zerothre.ttf
1234375	WORD	wordpools/wasnorm_wordpool.txt	LTP066	ltpFR	0	7	0	RIVER	1194	n/a	1	0	0.5869140625	0.422607421875	lower	../fonts/zerothre.ttf
1238291	WORD	wordpools/wasnorm_wordpool.txt	LTP066	ltpFR	0	7	0	HOME	712	n/a	1	0	0.5869140625	0.422607421875	lower	../fonts/zerothre.ttf
1242224	WORD	wordpools/wasnorm_wordpool.txt	LTP066	ltpFR	0	7	0	MANSION	864	n/a	1	0	0.5869140625	0.422607421875	lower	../fonts/zerothre.ttf
1246249	WORD	wordpools/wasnorm_wordpool.txt	LTP066	ltpFR	0	7	0	STEAM	1375	n/a	1	0	0.5869140625	0.422607421875	lower	../fonts/zerothre.ttf
1250224	WORD	wordpools/wasnorm_wordpool.txt	LTP066	ltpFR	0	7	0	EARTH	515	n/a	1	0	0.5869140625	0.422607421875	lower	../fonts/zerothre.ttf
1254190	WORD	wordpools/wasnorm_wordpool.txt	LTP066	ltpFR	0	7	0	AMBULANCE	19	n/a	1	0	0.5869140625	0.422607421875	lower	../fonts/zerothre.ttf
1260173	REC_START	n/a	LTP066	ltpFR	0	7	n/a	n/a	n/a	n/a	n/a	n/a	n/a	n/a	n/a	n/a
1262363	REC_WORD	wordpools/wasnorm_wordpool.txt	LTP066	ltpFR	0	7	0	SWIMMER	1420	n/a	1	n/a	n/a	n/a	n/a	n/a
1263260	REC_WORD	wordpools/wasnorm_wordpool.txt	LTP066	ltpFR	0	7	0	FLOOR	581	n/a	1	n/a	n/a	n/a	n/a	n/a
1264513	REC_WORD	wordpools/wasnorm_wordpool.txt	LTP066	ltpFR	0	7	0	MARS	873	n/a	1	n/a	n/a	n/a	n/a	n/a
1266642	REC_WORD	wordpools/wasnorm_wordpool.txt	LTP066	ltpFR	0	7	0	STEAM	1375	n/a	1	n/a	n/a	n/a	n/a	n/a
1268035	REC_WORD	wordpools/wasnorm_wordpool.txt	LTP066	ltpFR	0	7	0	AMBULANCE	19	n/a	1	n/a	n/a	n/a	n/a	n/a
1269023	REC_WORD	wordpools/wasnorm_wordpool.txt	LTP066	ltpFR	0	7	0	EARTH	515	n/a	1	n/a	n/a	n/a	n/a	n/a
1272061	REC_WORD	wordpools/wasnorm_wordpool.txt	LTP066	ltpFR	0	7	0	RUBY	1214	n/a	0	n/a	n/a	n/a	n/a	n/a
1274555	REC_WORD	wordpools/wasnorm_wordpool.txt	LTP066	ltpFR	0	7	0	SINK	1309	n/a	1	n/a	n/a	n/a	n/a	n/a
1277199	REC_WORD	wordpools/wasnorm_wordpool.txt	LTP066	ltpFR	0	7	0	RIVER	1194	n/a	1	n/a	n/a	n/a	n/a	n/a
1278905	REC_WORD	wordpools/wasnorm_wordpool.txt	LTP066	ltpFR	0	7	0	HOME	712	n/a	1	n/a	n/a	n/a	n/a	n/a
1280042	REC_WORD	wordpools/wasnorm_wordpool.txt	LTP066	ltpFR	0	7	0	MANSION	864	n/a	1	n/a	n/a	n/a	n/a	n/a
1281050	REC_WORD	wordpools/wasnorm_wordpool.txt	LTP066	ltpFR	0	7	0	TREASURE	1500	n/a	1	n/a	n/a	n/a	n/a	n/a
1339683	WORD	wordpools/wasnorm_wordpool.txt	LTP066	ltpFR	0	8	0	BEAD	103	n/a	0	0	0.5869140625	0.422607421875	lower	../fonts/zerothre.ttf
1343592	WORD	wordpools/wasnorm_wordpool.txt	LTP066	ltpFR	0	8	0	MEDAL	885	n/a	0	0	0.5869140625	0.422607421875	lower	../fonts/zerothre.ttf
1347425	WORD	wordpools/wasnorm_wordpool.txt	LTP066	ltpFR	0	8	0	POLYESTER	1100	n/a	0	0	0.5869140625	0.422607421875	lower	../fonts/zerothre.ttf
1351516	WORD	wordpools/wasnorm_wordpool.txt	LTP066	ltpFR	0	8	0	FLORIDA	582	n/a	1	0	0.5869140625	0.422607421875	lower	../fonts/zerothre.ttf
1355640	WORD	wordpools/wasnorm_wordpool.txt	LTP066	ltpFR	0	8	0	SOCIETY	1338	n/a	1	0	0.5869140625	0.422607421875	lower	../fonts/zerothre.ttf
1359656	WORD	wordpools/wasnorm_wordpool.txt	LTP066	ltpFR	0	8	0	CHIP	303	n/a	0	0	0.5869140625	0.422607421875	lower	../fonts/zerothre.ttf
1363549	WORD	wordpools/wasnorm_wordpool.txt	LTP066	ltpFR	0	8	0	CUPBOARD	425	n/a	1	0	0.5869140625	0.422607421875	lower	../fonts/zerothre.ttf
1367507	WORD	wordpools/wasnorm_wordpool.txt	LTP066	ltpFR	0	8	0	WHEAT	1602	n/a	1	0	0.5869140625	0.422607421875	lower	../fonts/zerothre.ttf
1371473	WORD	wordpools/wasnorm_wordpool.txt	LTP066	ltpFR	0	8	0	SISTER	1312	n/a	1	0	0.5869140625	0.422607421875	lower	../fonts/zerothre.ttf
1375373	WORD	wordpools/wasnorm_wordpool.txt	LTP066	ltpFR	0	8	0	BEET	115	n/a	0	0	0.5869140625	0.422607421875	lower	../fonts/zerothre.ttf
1379389	WORD	wordpools/wasnorm_wordpool.txt	LTP066	ltpFR	0	8	0	CITY	314	n/a	1	0	0.5869140625	0.422607421875	lower	../fonts/zerothre.ttf
1383414	WORD	wordpools/wasnorm_wordpool.txt	LTP066	ltpFR	0	8	0	EAR	513	n/a	0	0	0.5869140625	0.422607421875	lower	../fonts/zerothre.ttf
1387530	WORD	wordpools/wasnorm_wordpool.txt	LTP066	ltpFR	0	8	0	WAGON	1578	n/a	1	0	0.5869140625	0.422607421875	lower	../fonts/zerothre.ttf
1391463	WORD	wordpools/wasnorm_wordpool.txt	LTP066	ltpFR	0	8	0	CABBAGE	210	n/a	1	0	0.5869140625	0.422607421875	lower	../fonts/zerothre.ttf
1395521	WORD	wordpools/wasnorm_wordpool.txt	LTP066	ltpFR	0	8	0	SCOTCH	1251	n/a	0	0	0.5869140625	0.422607421875	lower	../fonts/zerothre.ttf
1399529	WORD	wordpools/wasnorm_wordpool.txt	LTP066	ltpFR	0	8	0	COCKTAIL	338	n/a	0	0	0.5869140625	0.422607421875	lower	../fonts/zerothre.ttf
1405563	REC_START	n/a	LTP066	ltpFR	0	8	n/a	n/a	n/a	n/a	n/a	n/a	n/a	n/a	n/a	n/a
1408261	REC_WORD	wordpools/wasnorm_wordpool.txt	LTP066	ltpFR	0	8	0	SISTER	1312	n/a	1	n/a	n/a	n/a	n/a	n/a
1409942	REC_WORD	wordpools/wasnorm_wordpool.txt	LTP066	ltpFR	0	8	0	CITY	314	n/a	1	n/a	n/a	n/a	n/a	n/a
1411140	REC_WORD	wordpools/wasnorm_wordpool.txt	LTP066	ltpFR	0	8	0	BEET	115	n/a	0	n/a	n/a	n/a	n/a	n/a
1412267	REC_WORD	wordpools/wasnorm_wordpool.txt	LTP066	ltpFR	0	8	0	SCOTCH	1251	n/a	0	n/a	n/a	n/a	n/a	n/a
1414188	REC_WORD	wordpools/wasnorm_wordpool.txt	LTP066	ltpFR	0	8	0	COCKTAIL	338	n/a	0	n/a	n/a	n/a	n/a	n/a
1416657	REC_WORD	wordpools/wasnorm_wordpool.txt	LTP066	ltpFR	0	8	0	FLORIDA	582	n/a	1	n/a	n/a	n/a	n/a	n/a
1419606	REC_WORD	wordpools/wasnorm_wordpool.txt	LTP066	ltpFR	0	8	0	EAR	513	n/a	0	n/a	n/a	n/a	n/a	n/a
1443765	REC_WORD	wordpools/wasnorm_wordpool.txt	LTP066	ltpFR	0	8	0	CUPBOARD	425	n/a	1	n/a	n/a	n/a	n/a	n/a
1456033	REC_WORD	wordpools/wasnorm_wordpool.txt	LTP066	ltpFR	0	8	0	WAGON	1578	n/a	1	n/a	n/a	n/a	n/a	n/a
1467587	REC_WORD	wordpools/wasnorm_wordpool.txt	LTP066	ltpFR	0	8	0	BEAD	103	n/a	0	n/a	n/a	n/a	n/a	n/a
1468684	REC_WORD	wordpools/wasnorm_wordpool.txt	LTP066	ltpFR	0	8	0	MEDAL	885	n/a	0	n/a	n/a	n/a	n/a	n/a
1476092	REC_WORD	wordpools/wasnorm_wordpool.txt	LTP066	ltpFR	0	8	0	SOCIETY	1338	n/a	1	n/a	n/a	n/a	n/a	n/a
1484631	WORD	wordpools/wasnorm_wordpool.txt	LTP066	ltpFR	0	9	1	CLASS	318	n/a	n/a	1	0.412841796875	0.57763671875	upper	../fonts/amplitud.ttf
1487655	SLOW_MSG	n/a	LTP066	ltpFR	0	9	n/a	n/a	n/a	n/a	n/a	n/a	n/a	n/a	n/a	n/a
1490214	WORD	wordpools/wasnorm_wordpool.txt	LTP066	ltpFR	0	9	1	COLLEGE	346	n/a	0	1	0.412841796875	0.57763671875	upper	../fonts/amplitud.ttf
1494381	WORD	wordpools/wasnorm_wordpool.txt	LTP066	ltpFR	0	9	1	CARDINAL	244	n/a	1	1	0.412841796875	0.57763671875	upper	../fonts/amplitud.ttf
1498522	WORD	wordpools/wasnorm_wordpool.txt	LTP066	ltpFR	0	9	1	MUSHROOM	934	n/a	1	1	0.412841796875	0.57763671875	upper	../fonts/amplitud.ttf
1502613	WORD	wordpools/wasnorm_wordpool.txt	LTP066	ltpFR	0	9	1	COLONEL	348	n/a	1	1	0.412841796875	0.57763671875	upper	../fonts/amplitud.ttf
1506696	WORD	wordpools/wasnorm_wordpool.txt	LTP066	ltpFR	0	9	1	TYPEWRITER	1531	n/a	1	1	0.412841796875	0.57763671875	upper	../fonts/amplitud.ttf
1510670	WORD	wordpools/wasnorm_wordpool.txt	LTP066	ltpFR	0	9	1	JOURNAL	760	n/a	0	1	0.412841796875	0.57763671875	upper	../fonts/amplitud.ttf
1514678	WORD	wordpools/wasnorm_wordpool.txt	LTP066	ltpFR	0	9	1	SHEET	1279	n/a	0	1	0.412841796875	0.57763671875	upper	../fonts/amplitud.ttf
1518871	WORD	wordpools/wasnorm_wordpool.txt	LTP066	ltpFR	0	9	1	COLUMN	350	n/a	0	1	0.412841796875	0.57763671875	upper	../fonts/amplitud.ttf
1522987	WORD	wordpools/wasnorm_wordpool.txt	LTP066	ltpFR	0	9	1	SPINACH	1352	n/a	1	1	0.412841796875	0.57763671875	upper	../fonts/amplitud.ttf
1526829	WORD	wordpools/wasnorm_wordpool.txt	LTP066	ltpFR	0	9	1	CANARY	227	n/a	1	1	0.412841796875	0.57763671875	upper	../fonts/amplitud.ttf
1530895	WORD	wordpools/wasnorm_wordpool.txt	LTP066	ltpFR	0	9	1	HEN	703	n/a	1	1	0.412841796875	0.57763671875	upper	../fonts/amplitud.ttf
1534836	WORD	wordpools/wasnorm_wordpool.txt	LTP066	ltpFR	0	9	1	SIBLING	1301	n/a	1	1	0.412841796875	0.57763671875	upper	../fonts/amplitud.ttf
1538786	WORD	wordpools/wasnorm_wordpool.txt	LTP066	ltpFR	0	9	1	RAZOR	1171	n/a	0	1	0.412841796875	0.57763671875	upper	../fonts/amplitud.ttf
1542802	WORD	wordpools/wasnorm_wordpool.txt	LTP066	ltpFR	0	9	1	GAVEL	627	n/a	0	1	0.412841796875	0.57763671875	upper	../fonts/amplitud.ttf
1546994	WORD	wordpools/wasnorm_wordpool.txt	LTP066	ltpFR	0	9	1	NAIL	936	n/a	0	1	0.412841796875	0.57763671875	upper	../fonts/amplitud.ttf
1552811	REC_START	n/a	LTP066	ltpFR	0	9	n/a	n/a	n/a	n/a	n/a	n/a	n/a	n/a	n/a	n/a
1554746	REC_WORD	wordpools/wasnorm_wordpool.txt	LTP066	ltpFR	0	9	1	SIBLING	1301	n/a	1	n/a	n/a	n/a	n/a	n/a
1555969	REC_WORD	wordpools/wasnorm_wordpool.txt	LTP066	ltpFR	0	9	1	COLONEL	348	n/a	1	n/a	n/a	n/a	n/a	n/a
1556807	REC_WORD	wordpools/wasnorm_wordpool.txt	LTP066	ltpFR	0	9	1	MUSHROOM	934	n/a	1	n/a	n/a	n/a	n/a	n/a
1557879	REC_WORD	wordpools/wasnorm_wordpool.txt	LTP066	ltpFR	0	9	1	TYPEWRITER	1531	n/a	1	n/a	n/a	n/a	n/a	n/a
1559720	REC_WORD	wordpools/wasnorm_wordpool.txt	LTP066	ltpFR	0	9	1	GAVEL	627	n/a	0	n/a	n/a	n/a	n/a	n/a
1562434	REC_WORD	wordpools/wasnorm_wordpool.txt	LTP066	ltpFR	0	9	1	COLLEGE	346	n/a	0	n/a	n/a	n/a	n/a	n/a
1567732	REC_WORD	wordpools/wasnorm_wordpool.txt	LTP066	ltpFR	0	9	1	CANARY	227	n/a	1	n/a	n/a	n/a	n/a	n/a
1570460	REC_WORD	wordpools/wasnorm_wordpool.txt	LTP066	ltpFR	0	9	1	SPINACH	1352	n/a	1	n/a	n/a	n/a	n/a	n/a
1571622	REC_WORD	wordpools/wasnorm_wordpool.txt	LTP066	ltpFR	0	9	1	HEN	703	n/a	1	n/a	n/a	n/a	n/a	n/a
1575200	REC_WORD	wordpools/wasnorm_wordpool.txt	LTP066	ltpFR	0	9	1	JOURNAL	760	n/a	0	n/a	n/a	n/a	n/a	n/a
1576118	REC_WORD	wordpools/wasnorm_wordpool.txt	LTP066	ltpFR	0	9	1	SHEET	1279	n/a	0	n/a	n/a	n/a	n/a	n/a
1577130	REC_WORD	wordpools/wasnorm_wordpool.txt	LTP066	ltpFR	0	9	1	COLUMN	350	n/a	0	n/a	n/a	n/a	n/a	n/a
1631338	WORD	wordpools/wasnorm_wordpool.txt	LTP066	ltpFR	0	10	1	SUSPECT	1415	n/a	1	1	0.412841796875	0.57763671875	upper	../fonts/amplitud.ttf
1635187	WORD	wordpools/wasnorm_wordpool.txt	LTP066	ltpFR	0	10	1	SHINGLE	1285	n/a	0	1	0.412841796875	0.57763671875	upper	../fonts/amplitud.ttf
1639245	WORD	wordpools/wasnorm_wordpool.txt	LTP066	ltpFR	0	10	1	BARREL	91	n/a	0	1	0.412841796875	0.57763671875	upper	../fonts/amplitud.ttf
1643245	WORD	wordpools/wasnorm_wordpool.txt	LTP066	ltpFR	0	10	1	BANDAGE	79	n/a	0	1	0.412841796875	0.57763671875	upper	../fonts/amplitud.ttf
1647211	WORD	wordpools/wasnorm_wordpool.txt	LTP066	ltpFR	0	10	1	CATTLE	261	n/a	1	1	0.412841796875	0.57763671875	upper	../fonts/amplitud.ttf
1651153	WORD	wordpools/wasnorm_wordpool.txt	LTP066	ltpFR	0	10	1	DOLLAR	482	n/a	0	1	0.412841796875	0.57763671875	upper	../fonts/amplitud.ttf
1655103	WORD	wordpools/wasnorm_wordpool.txt	LTP066	ltpFR	0	10	1	OWNER	993	n/a	1	1	0.412841796875	0.57763671875	upper	../fonts/amplitud.ttf
1658961	WORD	wordpools/wasnorm_wordpool.txt	LTP066	ltpFR	0	10	1	MAGAZINE	853	n/a	0	1	0.412841796875	0.57763671875	upper	../fonts/amplitud.ttf
1663019	WORD	wordpools/wasnorm_wordpool.txt	LTP066	ltpFR	0	10	1	REPORT	1184	n/a	0	1	0.412841796875	0.57763671875	upper	../fonts/amplitud.ttf
1667077	WORD	wordpools/wasnorm_wordpool.txt	LTP066	ltpFR	0	10	1	BASEBALL	93	n/a	0	1	0.412841796875	0.57763671875	upper	../fonts/amplitud.ttf
1671076	WORD	wordpools/wasnorm_wordpool.txt	LTP066	ltpFR	0	10	1	TRAITOR	1495	n/a	1	1	0.412841796875	0.57763671875	upper	../fonts/amplitud.ttf
1675059	WORD	wordpools/wasnorm_wordpool.txt	LTP066	ltpFR	0	10	1	OTTER	986	n/a	1	1	0.412841796875	0.57763671875	upper	../fonts/amplitud.ttf
1678909	WORD	wordpools/wasnorm_wordpool.txt	LTP066	ltpFR	0	10	1	BASKETBALL	96	n/a	0	1	0.412841796875	0.57763671875	upper	../fonts/amplitud.ttf
1682876	WORD	wordpools/wasnorm_wordpool.txt	LTP066	ltpFR	0	10	1	HOSPITAL	721	n/a	0	1	0.412841796875	0.57763671875	upper	../fonts/amplitud.ttf
1686959	WORD	wordpools/wasnorm_wordpool.txt	LTP066	ltpFR	0	10	1	IGLOO	734	n/a	0	1	0.412841796875	0.57763671875	upper	../fonts/amplitud.ttf
1690825	WORD	wordpools/wasnorm_wordpool.txt	LTP066	ltpFR	0	10	1	ICEBERG	731	n/a	0	1	0.412841796875	0.57763671875	upper	../fonts/amplitud.ttf
1696567	REC_START	n/a	LTP066	ltpFR	0	10	n/a	n/a	n/a	n/a	n/a	n/a	n/a	n/a	n/a	n/a
1699345	REC_WORD	wordpools/wasnorm_wordpool.txt	LTP066	ltpFR	0	10	1	SHINGLE	1285	n/a	0	n/a	n/a	n/a	n/a	n/a
1700732	REC_WORD	wordpools/wasnorm_wordpool.txt	LTP066	ltpFR	0	10	1	SUSPECT	1415	n/a	1	n/a	n/a	n/a	n/a	n/a
1702134	REC_WORD	wordpools/wasnorm_wordpool.txt	LTP066	ltpFR	0	10	1	BARREL	91	n/a	0	n/a	n/a	n/a	n/a	n/a
1704364	REC_WORD	wordpools/wasnorm_wordpool.txt	LTP066	ltpFR	0	10	1	IGLOO	734	n/a	0	n/a	n/a	n/a	n/a	n/a
1705417	REC_WORD	wordpools/wasnorm_wordpool.txt	LTP066	ltpFR	0	10	1	ICEBERG	731	n/a	0	n/a	n/a	n/a	n/a	n/a
1708829	REC_WORD	wordpools/wasnorm_wordpool.txt	LTP066	ltpFR	0	10	1	CATTLE	261	n/a	1	n/a	n/a	n/a	n/a	n/a
1709832	REC_WORD	wordpools/wasnorm_wordpool.txt	LTP066	ltpFR	0	10	1	OWNER	993	n/a	1	n/a	n/a	n/a	n/a	n/a
1711837	REC_WORD	wordpools/wasnorm_wordpool.txt	LTP066	ltpFR	0	10	1	MAGAZINE	853	n/a	0	n/a	n/a	n/a	n/a	n/a
1713054	REC_WORD	wordpools/wasnorm_wordpool.txt	LTP066	ltpFR	0	10	1	REPORT	1184	n/a	0	n/a	n/a	n/a	n/a	n/a
1713962	REC_WORD	wordpools/wasnorm_wordpool.txt	LTP066	ltpFR	0	10	1	BASEBALL	93	n/a	0	n/a	n/a	n/a	n/a	n/a
1715878	REC_WORD	wordpools/wasnorm_wordpool.txt	LTP066	ltpFR	0	10	1	BASKETBALL	96	n/a	0	n/a	n/a	n/a	n/a	n/a
1720592	REC_WORD	wordpools/wasnorm_wordpool.txt	LTP066	ltpFR	0	10	1	TRAITOR	1495	n/a	1	n/a	n/a	n/a	n/a	n/a
1734526	REC_WORD	wordpools/wasnorm_wordpool.txt	LTP066	ltpFR	0	10	1	DOLLAR	482	n/a	0	n/a	n/a	n/a	n/a	n/a
1747037	REC_WORD	wordpools/wasnorm_wordpool.txt	LTP066	ltpFR	0	10	1	BANDAGE	79	n/a	0	n/a	n/a	n/a	n/a	n/a
1775385	WORD	wordpools/wasnorm_wordpool.txt	LTP066	ltpFR	0	11	1	PUDDLE	1140	n/a	0	1	0.412841796875	0.57763671875	upper	../fonts/amplitud.ttf
1779219	WORD	wordpools/wasnorm_wordpool.txt	LTP066	ltpFR	0	11	1	SALIVA	1226	n/a	0	1	0.412841796875	0.57763671875	upper	../fonts/amplitud.ttf
1783360	WORD	wordpools/wasnorm_wordpool.txt	LTP066	ltpFR	0	11	1	ZOO	1637	n/a	0	1	0.412841796875	0.57763671875	upper	../fonts/amplitud.ttf
1787360	WORD	wordpools/wasnorm_wordpool.txt	LTP066	ltpFR	0	11	1	SCROLL	1257	n/a	0	1	0.412841796875	0.57763671875	upper	../fonts/amplitud.ttf
1791418	WORD	wordpools/wasnorm_wordpool.txt	LTP066	ltpFR	0	11	1	DIME	466	n/a	0	1	0.412841796875	0.57763671875	upper	../fonts/amplitud.ttf
1795309	WORD	wordpools/wasnorm_wordpool.txt	LTP066	ltpFR	0	11	1	BRACELET	163	n/a	0	1	0.412841796875	0.57763671875	upper	../fonts/amplitud.ttf
1799192	WORD	wordpools/wasnorm_wordpool.txt	LTP066	ltpFR	0	11	1	HOSTAGE	722	n/a	1	1	0.412841796875	0.57763671875	upper	../fonts/amplitud.ttf
1803225	WORD	wordpools/wasnorm_wordpool.txt	LTP066	ltpFR	0	11	1	INMATE	738	n/a	1	1	0.412841796875	0.57763671875	upper	../fonts/amplitud.ttf
1807183	WORD	wordpools/wasnorm_wordpool.txt	LTP066	ltpFR	0	11	1	SWAN	1417	n/a	1	1	0.412841796875	0.57763671875	upper	../fonts/amplitud.ttf
1811108	WORD	wordpools/wasnorm_wordpool.txt	LTP066	ltpFR	0	11	1	CAULIFLOWER	262	n/a	1	1	0.412841796875	0.57763671875	upper	../fonts/amplitud.ttf
1815099	WORD	wordpools/wasnorm_wordpool.txt	LTP066	ltpFR	0	11	1	OX	994	n/a	1	1	0.412841796875	0.57763671875	upper	../fonts/amplitud.ttf
1819141	WORD	wordpools/wasnorm_wordpool.txt	LTP066	ltpFR	0	11	1	REBEL	1172	n/a	1	1	0.412841796875	0.57763671875	upper	../fonts/amplitud.ttf
1823090	WORD	wordpools/wasnorm_wordpool.txt	LTP066	ltpFR	0	11	1	BOWL	158	n/a	0	1	0.412841796875	0.57763671875	upper	../fonts/amplitud.ttf
1827082	WORD	wordpools/wasnorm_wordpool.txt	LTP066	ltpFR	0	11	1	PAPER	1011	n/a	0	1	0.412841796875	0.57763671875	upper	../fonts/amplitud.ttf
1831140	WORD	wordpools/wasnorm_wordpool.txt	LTP066	ltpFR	0	11	1	ANTENNA	28	n/a	0	1	0.412841796875	0.57763671875	upper	../fonts/amplitud.ttf
1835281	WORD	wordpools/wasnorm_wordpool.txt	LTP066	ltpFR	0	11	1	SCREEN	1253	n/a	0	1	0.412841796875	0.57763671875	upper	../fonts/amplitud.ttf
1841098	REC_START	n/a	LTP066	ltpFR	0	11	n/a	n/a	n/a	n/a	n/a	n/a	n/a	n/a	n/a	n/a
1842255	REC_WORD	wordpools/wasnorm_wordpool.txt	LTP066	ltpFR	0	11	1	BOWL	158	n/a	0	n/a	n/a	n/a	n/a	n/a
1843338	REC_WORD	wordpools/wasnorm_wordpool.txt	LTP066	ltpFR	0	11	1	PAPER	1011	n/a	0	n/a	n/a	n/a	n/a	n/a
1844440	REC_WORD	wordpools/wasnorm_wordpool.txt	LTP066	ltpFR	0	11	1	ANTENNA	28	n/a	0	n/a	n/a	n/a	n/a	n/a
1845977	REC_WORD	wordpools/wasnorm_wordpool.txt	LTP066	ltpFR	0	11	1	SCREEN	1253	n/a	0	n/a	n/a	n/a	n/a	n/a
1847932	REC_WORD	wordpools/wasnorm_wordpool.txt	LTP066	ltpFR	0	11	1	HOSTAGE	722	n/a	1	n/a	n/a	n/a	n/a	n/a
1849304	REC_WORD	wordpools/wasnorm_wordpool.txt	LTP066	ltpFR	0	11	1	BRACELET	163	n/a	0	n/a	n/a	n/a	n/a	n/a
1850402	REC_WORD	wordpools/wasnorm_wordpool.txt	LTP066	ltpFR	0	11	1	ZOO	1637	n/a	0	n/a	n/a	n/a	n/a	n/a
1851509	REC_WORD	wordpools/wasnorm_wordpool.txt	LTP066	ltpFR	0	11	1	SWAN	1417	n/a	1	n/a	n/a	n/a	n/a	n/a
1853485	REC_WORD	wordpools/wasnorm_wordpool.txt	LTP066	ltpFR	0	11	1	OX	994	n/a	1	n/a	n/a	n/a	n/a	n/a
1860588	REC_WORD	wordpools/wasnorm_wordpool.txt	LTP066	ltpFR	0	11	1	CAULIFLOWER	262	n/a	1	n/a	n/a	n/a	n/a	n/a
1869693	REC_WORD	wordpools/wasnorm_wordpool.txt	LTP066	ltpFR	0	11	1	SALIVA	1226	n/a	0	n/a	n/a	n/a	n/a	n/a
1871030	REC_WORD	wordpools/wasnorm_wordpool.txt	LTP066	ltpFR	0	11	1	PUDDLE	1140	n/a	0	n/a	n/a	n/a	n/a	n/a
1873744	REC_WORD	wordpools/wasnorm_wordpool.txt	LTP066	ltpFR	0	11	1	SCROLL	1257	n/a	0	n/a	n/a	n/a	n/a	n/a
1876657	REC_WORD	wordpools/wasnorm_wordpool.txt	LTP066	ltpFR	0	11	1	DIME	466	n/a	0	n/a	n/a	n/a	n/a	n/a
1884594	REC_WORD	wordpools/wasnorm_wordpool.txt	LTP066	ltpFR	0	11	1	INMATE	738	n/a	1	n/a	n/a	n/a	n/a	n/a
1888106	REC_WORD	wordpools/wasnorm_wordpool.txt	LTP066	ltpFR	0	11	1	HOSTAGE	722	n/a	1	n/a	n/a	n/a	n/a	n/a
1889178	REC_WORD	wordpools/wasnorm_wordpool.txt	LTP066	ltpFR	0	11	1	REBEL	1172	n/a	1	n/a	n/a	n/a	n/a	n/a
1920508	WORD	wordpools/wasnorm_wordpool.txt	LTP066	ltpFR	0	12	1	SCULPTURE	1258	n/a	0	1	0.412841796875	0.57763671875	upper	../fonts/amplitud.ttf
1924541	WORD	wordpools/wasnorm_wordpool.txt	LTP066	ltpFR	0	12	1	PALM	1007	n/a	1	1	0.412841796875	0.57763671875	upper	../fonts/amplitud.ttf
1928366	WORD	wordpools/wasnorm_wordpool.txt	LTP066	ltpFR	0	12	1	PARTNER	1017	n/a	1	1	0.412841796875	0.57763671875	upper	../fonts/amplitud.ttf
1932491	WORD	wordpools/wasnorm_wordpool.txt	LTP066	ltpFR	0	12	1	RIB	1188	n/a	1	1	0.412841796875	0.57763671875	upper	../fonts/amplitud.ttf
1936457	WORD	wordpools/wasnorm_wordpool.txt	LTP066	ltpFR	0	12	1	SILVERWARE	1308	n/a	0	1	0.412841796875	0.57763671875	upper	../fonts/amplitud.ttf
1940631	WORD	wordpools/wasnorm_wordpool.txt	LTP066	ltpFR	0	12	1	UMBRELLA	1534	n/a	0	1	0.412841796875	0.57763671875	upper	../fonts/amplitud.ttf
1944507	WORD	wordpools/wasnorm_wordpool.txt	LTP066	ltpFR	0	12	1	CARROT	249	n/a	1	1	0.412841796875	0.57763671875	upper	../fonts/amplitud.ttf
1948456	WORD	wordpools/wasnorm_wordpool.txt	LTP066	ltpFR	0	12	1	ISLAND	745	n/a	0	1	0.412841796875	0.57763671875	upper	../fonts/amplitud.ttf
1952439	WORD	wordpools/wasnorm_wordpool.txt	LTP066	ltpFR	0	12	1	COD	340	n/a	1	1	0.412841796875	0.57763671875	upper	../fonts/amplitud.ttf
1956372	WORD	wordpools/wasnorm_wordpool.txt	LTP066	ltpFR	0	12	1	CRAB	397	n/a	1	1	0.412841796875	0.57763671875	upper	../fonts/amplitud.ttf
1960505	WORD	wordpools/wasnorm_wordpool.txt	LTP066	ltpFR	0	12	1	NOVEL	960	n/a	0	1	0.412841796875	0.57763671875	upper	../fonts/amplitud.ttf
1964588	WORD	wordpools/wasnorm_wordpool.txt	LTP066	ltpFR	0	12	1	BOOK	149	n/a	0	1	0.412841796875	0.57763671875	upper	../fonts/amplitud.ttf
1968488	WORD	wordpools/wasnorm_wordpool.txt	LTP066	ltpFR	0	12	1	ROOMMATE	1207	n/a	1	1	0.412841796875	0.57763671875	upper	../fonts/amplitud.ttf
1972687	WORD	wordpools/wasnorm_wordpool.txt	LTP066	ltpFR	0	12	1	BASSINET	97	n/a	0	1	0.412841796875	0.57763671875	upper	../fonts/amplitud.ttf
1976837	WORD	wordpools/wasnorm_wordpool.txt	LTP066	ltpFR	0	12	1	LETTUCE	814	n/a	1	1	0.412841796875	0.57763671875	upper	../fonts/amplitud.ttf
1981037	WORD	wordpools/wasnorm_wordpool.txt	LTP066	ltpFR	0	12	1	GULL	671	n/a	1	1	0.412841796875	0.57763671875	upper	../fonts/amplitud.ttf
1986996	REC_START	n/a	LTP066	ltpFR	0	12	n/a	n/a	n/a	n/a	n/a	n/a	n/a	n/a	n/a	n/a
1989211	REC_WORD	wordpools/wasnorm_wordpool.txt	LTP066	ltpFR	0	12	1	GULL	671	n/a	1	n/a	n/a	n/a	n/a	n/a
1990049	REC_WORD	wordpools/wasnorm_wordpool.txt	LTP066	ltpFR	0	12	1	BASSINET	97	n/a	0	n/a	n/a	n/a	n/a	n/a
1991131	REC_WORD	wordpools/wasnorm_wordpool.txt	LTP066	ltpFR	0	12	1	ROOMMATE	1207	n/a	1	n/a	n/a	n/a	n/a	n/a
1994439	REC_WORD	wordpools/wasnorm_wordpool.txt	LTP066	ltpFR	0	12	1	ISLAND	745	n/a	0	n/a	n/a	n/a	n/a	n/a
1995656	REC_WORD	wordpools/wasnorm_wordpool.txt	LTP066	ltpFR	0	12	1	UMBRELLA	1534	n/a	0	n/a	n/a	n/a	n/a	n/a
1996709	REC_WORD	wordpools/wasnorm_wordpool.txt	LTP066	ltpFR	0	12	1	COD	340	n/a	1	n/a	n/a	n/a	n/a	n/a
1997726	REC_WORD	wordpools/wasnorm_wordpool.txt	LTP066	ltpFR	0	12	1	CRAB	397	n/a	1	n/a	n/a	n/a	n/a	n/a
2001114	REC_WORD	wordpools/wasnorm_wordpool.txt	LTP066	ltpFR	0	12	1	NOVEL	960	n/a	0	n/a	n/a	n/a	n/a	n/a
2002126	REC_WORD	wordpools/wasnorm_wordpool.txt	LTP066	ltpFR	0	12	1	BOOK	149	n/a	0	n/a	n/a	n/a	n/a	n/a
2004426	REC_WORD	wordpools/wasnorm_wordpool.txt	LTP066	ltpFR	0	12	1	SILVERWARE	1308	n/a	0	n/a	n/a	n/a	n/a	n/a
2006062	REC_WORD	wordpools/wasnorm_wordpool.txt	LTP066	ltpFR	0	12	1	RIB	1188	n/a	1	n/a	n/a	n/a	n/a	n/a
2007210	REC_WORD	wordpools/wasnorm_wordpool.txt	LTP066	ltpFR	0	12	1	PALM	1007	n/a	1	n/a	n/a	n/a	n/a	n/a
2014099	REC_WORD	wordpools/wasnorm_wordpool.txt	LTP066	ltpFR	0	12	1	UMBRELLA	1534	n/a	0	n/a	n/a	n/a	n/a	n/a
2023168	REC_WORD	wordpools/wasnorm_wordpool.txt	LTP066	ltpFR	0	12	1	ISLAND	745	n/a	0	n/a	n/a	n/a	n/a	n/a
2049045	REC_WORD	wordpools/wasnorm_wordpool.txt	LTP066	ltpFR	0	12	1	SCULPTURE	1258	n/a	0	n/a	n/a	n/a	n/a	n/a
2709750	WORD	wordpools/wasnorm_wordpool.txt	LTP066	ltpFR	0	13	0	PERCH	1048	n/a	0	0	0.5869140625	0.422607421875	lower	../fonts/zerothre.ttf
2713766	WORD	wordpools/wasnorm_wordpool.txt	LTP066	ltpFR	0	13	0	ROBIN	1199	n/a	0	0	0.5869140625	0.422607421875	lower	../fonts/zerothre.ttf
2717875	WORD	wordpools/wasnorm_wordpool.txt	LTP066	ltpFR	0	13	0	MISTER	901	n/a	1	0	0.5869140625	0.422607421875	lower	../fonts/zerothre.ttf
2721825	WORD	wordpools/wasnorm_wordpool.txt	LTP066	ltpFR	0	13	0	OCEAN	970	n/a	1	0	0.5869140625	0.422607421875	lower	../fonts/zerothre.ttf
2725732	WORD	wordpools/wasnorm_wordpool.txt	LTP066	ltpFR	0	13	0	CANVAS	234	n/a	1	0	0.5869140625	0.422607421875	lower	../fonts/zerothre.ttf
2729883	WORD	wordpools/wasnorm_wordpool.txt	LTP066	ltpFR	0	13	0	POLICE	1098	n/a	1	0	0.5869140625	0.422607421875	lower	../fonts/zerothre.ttf
2734016	WORD	wordpools/wasnorm_wordpool.txt	LTP066	ltpFR	0	13	1	CLOSET	326	n/a	0	1	0.412841796875	0.57763671875	upper	../fonts/amplitud.ttf
2738132	WORD	wordpools/wasnorm_wordpool.txt	LTP066	ltpFR	0	13	1	ARTICLE	42	n/a	0	1	0.412841796875	0.57763671875	upper	../fonts/amplitud.ttf
2742182	WORD	wordpools/wasnorm_wordpool.txt	LTP066	ltpFR	0	13	1	NICKEL	950	n/a	1	1	0.412841796875	0.57763671875	upper	../fonts/amplitud.ttf
2746323	WORD	wordpools/wasnorm_wordpool.txt	LTP066	ltpFR	0	13	0	KEG	770	n/a	0	0	0.5869140625	0.422607421875	lower	../fonts/zerothre.ttf
2750198	WORD	wordpools/wasnorm_wordpool.txt	LTP066	ltpFR	0	13	0	PLUMBER	1091	n/a	1	0	0.5869140625	0.422607421875	lower	../fonts/zerothre.ttf
2754164	WORD	wordpools/wasnorm_wordpool.txt	LTP066	ltpFR	0	13	1	NOMAD	955	n/a	1	1	0.412841796875	0.57763671875	upper	../fonts/amplitud.ttf
2758256	WORD	wordpools/wasnorm_wordpool.txt	LTP066	ltpFR	0	13	1	FIST	572	n/a	1	1	0.412841796875	0.57763671875	upper	../fonts/amplitud.ttf
2762239	WORD	wordpools/wasnorm_wordpool.txt	LTP066	ltpFR	0	13	1	PATROL	1027	n/a	0	1	0.412841796875	0.57763671875	upper	../fonts/amplitud.ttf
2766247	WORD	wordpools/wasnorm_wordpool.txt	LTP066	ltpFR	0	13	1	CONSOLE	364	n/a	0	1	0.412841796875	0.57763671875	upper	../fonts/amplitud.ttf
2770413	WORD	wordpools/wasnorm_wordpool.txt	LTP066	ltpFR	0	13	1	BUS	201	n/a	0	1	0.412841796875	0.57763671875	upper	../fonts/amplitud.ttf
2776330	REC_START	n/a	LTP066	ltpFR	0	13	n/a	n/a	n/a	n/a	n/a	n/a	n/a	n/a	n/a	n/a
2778305	REC_WORD	wordpools/wasnorm_wordpool.txt	LTP066	ltpFR	0	13	1	PATROL	1027	n/a	0	n/a	n/a	n/a	n/a	n/a
2779478	REC_WORD	wordpools/wasnorm_wordpool.txt	LTP066	ltpFR	0	13	1	NOMAD	955	n/a	1	n/a	n/a	n/a	n/a	n/a
2780471	REC_WORD	wordpools/wasnorm_wordpool.txt	LTP066	ltpFR	0	13	1	BUS	201	n/a	0	n/a	n/a	n/a	n/a	n/a
2785215	REC_WORD	wordpools/wasnorm_wordpool.txt	LTP066	ltpFR	0	13	0	CANVAS	234	n/a	1	n/a	n/a	n/a	n/a	n/a
2786277	REC_WORD	wordpools/wasnorm_wordpool.txt	LTP066	ltpFR	0	13	0	OCEAN	970	n/a	1	n/a	n/a	n/a	n/a	n/a
2788991	REC_WORD	wordpools/wasnorm_wordpool.txt	LTP066	ltpFR	0	13	1	FIST	572	n/a	1	n/a	n/a	n/a	n/a	n/a
2792159	REC_WORD	wordpools/wasnorm_wordpool.txt	LTP066	ltpFR	0	13	0	PERCH	1048	n/a	0	n/a	n/a	n/a	n/a	n/a
2793970	REC_WORD	wordpools/wasnorm_wordpool.txt	LTP066	ltpFR	0	13	0	ROBIN	1199	n/a	0	n/a	n/a	n/a	n/a	n/a
2802181	REC_WORD	wordpools/wasnorm_wordpool.txt	LTP066	ltpFR	0	13	0	PLUMBER	1091	n/a	1	n/a	n/a	n/a	n/a	n/a
2859706	WORD	wordpools/wasnorm_wordpool.txt	LTP066	ltpFR	0	14	1	PONY	1102	n/a	1	1	0.412841796875	0.57763671875	upper	../fonts/amplitud.ttf
2863556	WORD	wordpools/wasnorm_wordpool.txt	LTP066	ltpFR	0	14	1	BELLY	119	n/a	1	1	0.412841796875	0.57763671875	upper	../fonts/amplitud.ttf
2867548	WORD	wordpools/wasnorm_wordpool.txt	LTP066	ltpFR	0	14	1	FAN	551	n/a	0	1	0.412841796875	0.57763671875	upper	../fonts/amplitud.ttf
2871606	WORD	wordpools/wasnorm_wordpool.txt	LTP066	ltpFR	0	14	0	ADULT	8	n/a	1	0	0.5869140625	0.422607421875	lower	../fonts/zerothre.ttf
2875489	WORD	wordpools/wasnorm_wordpool.txt	LTP066	ltpFR	0	14	0	BIBLE	124	n/a	0	0	0.5869140625	0.422607421875	lower	../fonts/zerothre.ttf
2879330	WORD	wordpools/wasnorm_wordpool.txt	LTP066	ltpFR	0	14	0	MOUSE	925	n/a	0	0	0.5869140625	0.422607421875	lower	../fonts/zerothre.ttf
2883230	WORD	wordpools/wasnorm_wordpool.txt	LTP066	ltpFR	0	14	0	FREEWAY	603	n/a	1	0	0.5869140625	0.422607421875	lower	../fonts/zerothre.ttf
2887346	WORD	wordpools/wasnorm_wordpool.txt	LTP066	ltpFR	0	14	1	CAR	241	n/a	0	1	0.412841796875	0.57763671875	upper	../fonts/amplitud.ttf
2891513	WORD	wordpools/wasnorm_wordpool.txt	LTP066	ltpFR	0	14	1	MONEY	908	n/a	0	1	0.412841796875	0.57763671875	upper	../fonts/amplitud.ttf
2895612	WORD	wordpools/wasnorm_wordpool.txt	LTP066	ltpFR	0	14	1	PEAR	1033	n/a	1	1	0.412841796875	0.57763671875	upper	../fonts/amplitud.ttf
2899761	WORD	wordpools/wasnorm_wordpool.txt	LTP066	ltpFR	0	14	0	VINE	1568	n/a	1	0	0.5869140625	0.422607421875	lower	../fonts/zerothre.ttf
2903636	WORD	wordpools/wasnorm_wordpool.txt	LTP066	ltpFR	0	14	0	LABYRINTH	791	n/a	1	0	0.5869140625	0.422607421875	lower	../fonts/zerothre.ttf
2907686	WORD	wordpools/wasnorm_wordpool.txt	LTP066	ltpFR	0	14	0	UNICORN	1538	n/a	1	0	0.5869140625	0.422607421875	lower	../fonts/zerothre.ttf
2911520	WORD	wordpools/wasnorm_wordpool.txt	LTP066	ltpFR	0	14	0	HAND	683	n/a	0	0	0.5869140625	0.422607421875	lower	../fonts/zerothre.ttf
2915544	WORD	wordpools/wasnorm_wordpool.txt	LTP066	ltpFR	0	14	1	LIMB	822	n/a	1	1	0.412841796875	0.57763671875	upper	../fonts/amplitud.ttf
2919751	WORD	wordpools/wasnorm_wordpool.txt	LTP066	ltpFR	0	14	1	SWEATER	1419	n/a	0	1	0.412841796875	0.57763671875	upper	../fonts/amplitud.ttf
2925503	REC_START	n/a	LTP066	ltpFR	0	14	n/a	n/a	n/a	n/a	n/a	n/a	n/a	n/a	n/a	n/a
2927663	REC_WORD	wordpools/wasnorm_wordpool.txt	LTP066	ltpFR	0	14	1	SWEATER	1419	n/a	0	n/a	n/a	n/a	n/a	n/a
2929040	REC_WORD	wordpools/wasnorm_wordpool.txt	LTP066	ltpFR	0	14	1	LIMB	822	n/a	1	n/a	n/a	n/a	n/a	n/a
2930730	REC_WORD	wordpools/wasnorm_wordpool.txt	LTP066	ltpFR	0	14	0	UNICORN	1538	n/a	1	n/a	n/a	n/a	n/a	n/a
2932068	REC_WORD	wordpools/wasnorm_wordpool.txt	LTP066	ltpFR	0	14	1	PEAR	1033	n/a	1	n/a	n/a	n/a	n/a	n/a
2935031	REC_WORD	wordpools/wasnorm_wordpool.txt	LTP066	ltpFR	0	14	n/a	HIGHWAY	707	n/a	n/a	n/a	n/a	n/a	n/a	n/a
2939730	REC_WORD	wordpools/wasnorm_wordpool.txt	LTP066	ltpFR	0	14	1	MONEY	908	n/a	0	n/a	n/a	n/a	n/a	n/a
2956333	REC_WORD	wordpools/wasnorm_wordpool.txt	LTP066	ltpFR	0	14	0	LABYRINTH	791	n/a	1	n/a	n/a	n/a	n/a	n/a
2985167	REC_WORD	wordpools/wasnorm_wordpool.txt	LTP066	ltpFR	0	14	1	SWEATER	1419	n/a	0	n/a	n/a	n/a	n/a	n/a
3006762	WORD	wordpools/wasnorm_wordpool.txt	LTP066	ltpFR	0	15	1	TREAD	1499	n/a	0	1	0.412841796875	0.57763671875	upper	../fonts/amplitud.ttf
3010921	WORD	wordpools/wasnorm_wordpool.txt	LTP066	ltpFR	0	15	1	TIDE	1465	n/a	0	1	0.412841796875	0.57763671875	upper	../fonts/amplitud.ttf
3014820	WORD	wordpools/wasnorm_wordpool.txt	LTP066	ltpFR	0	15	1	SALMON	1227	n/a	1	1	0.412841796875	0.57763671875	upper	../fonts/amplitud.ttf
3018829	WORD	wordpools/wasnorm_wordpool.txt	LTP066	ltpFR	0	15	1	CINNAMON	310	n/a	0	1	0.412841796875	0.57763671875	upper	../fonts/amplitud.ttf
3022912	WORD	wordpools/wasnorm_wordpool.txt	LTP066	ltpFR	0	15	1	TUXEDO	1525	n/a	0	1	0.412841796875	0.57763671875	upper	../fonts/amplitud.ttf
3027103	WORD	wordpools/wasnorm_wordpool.txt	LTP066	ltpFR	0	15	0	SERVANT	1271	n/a	1	0	0.5869140625	0.422607421875	lower	../fonts/zerothre.ttf
3031303	WORD	wordpools/wasnorm_wordpool.txt	LTP066	ltpFR	0	15	0	BONE	148	n/a	0	0	0.5869140625	0.422607421875	lower	../fonts/zerothre.ttf
3035136	WORD	wordpools/wasnorm_wordpool.txt	LTP066	ltpFR	0	15	1	VAMPIRE	1547	n/a	1	1	0.412841796875	0.57763671875	upper	../fonts/amplitud.ttf
3039052	WORD	wordpools/wasnorm_wordpool.txt	LTP066	ltpFR	0	15	1	FIDDLE	561	n/a	0	1	0.412841796875	0.57763671875	upper	../fonts/amplitud.ttf
3043260	WORD	wordpools/wasnorm_wordpool.txt	LTP066	ltpFR	0	15	1	LITTER	832	n/a	0	1	0.412841796875	0.57763671875	upper	../fonts/amplitud.ttf
3047468	WORD	wordpools/wasnorm_wordpool.txt	LTP066	ltpFR	0	15	0	BAG	69	n/a	0	0	0.5869140625	0.422607421875	lower	../fonts/zerothre.ttf
3051667	WORD	wordpools/wasnorm_wordpool.txt	LTP066	ltpFR	0	15	0	OCTOPUS	971	n/a	1	0	0.5869140625	0.422607421875	lower	../fonts/zerothre.ttf
3055876	WORD	wordpools/wasnorm_wordpool.txt	LTP066	ltpFR	0	15	0	DONOR	485	n/a	1	0	0.5869140625	0.422607421875	lower	../fonts/zerothre.ttf
3059750	WORD	wordpools/wasnorm_wordpool.txt	LTP066	ltpFR	0	15	0	ANTEATER	26	n/a	1	0	0.5869140625	0.422607421875	lower	../fonts/zerothre.ttf
3063674	WORD	wordpools/wasnorm_wordpool.txt	LTP066	ltpFR	0	15	0	MOTH	920	n/a	0	0	0.5869140625	0.422607421875	lower	../fonts/zerothre.ttf
3067508	WORD	wordpools/wasnorm_wordpool.txt	LTP066	ltpFR	0	15	0	WASHER	1592	n/a	1	0	0.5869140625	0.422607421875	lower	../fonts/zerothre.ttf
3073467	REC_START	n/a	LTP066	ltpFR	0	15	n/a	n/a	n/a	n/a	n/a	n/a	n/a	n/a	n/a	n/a
3075213	REC_WORD	wordpools/wasnorm_wordpool.txt	LTP066	ltpFR	0	15	0	OCTOPUS	971	n/a	1	n/a	n/a	n/a	n/a	n/a
3076216	REC_WORD	wordpools/wasnorm_wordpool.txt	LTP066	ltpFR	0	15	0	MOTH	920	n/a	0	n/a	n/a	n/a	n/a	n/a
3077278	REC_WORD	wordpools/wasnorm_wordpool.txt	LTP066	ltpFR	0	15	0	ANTEATER	26	n/a	1	n/a	n/a	n/a	n/a	n/a
3078291	REC_WORD	wordpools/wasnorm_wordpool.txt	LTP066	ltpFR	0	15	0	DONOR	485	n/a	1	n/a	n/a	n/a	n/a	n/a
3087355	REC_WORD	wordpools/wasnorm_wordpool.txt	LTP066	ltpFR	0	15	0	BAG	69	n/a	0	n/a	n/a	n/a	n/a	n/a
3089236	REC_WORD	wordpools/wasnorm_wordpool.txt	LTP066	ltpFR	0	15	0	BONE	148	n/a	0	n/a	n/a	n/a	n/a	n/a
3097437	REC_WORD	wordpools/wasnorm_wordpool.txt	LTP066	ltpFR	0	15	1	TIDE	1465	n/a	0	n/a	n/a	n/a	n/a	n/a
3098525	REC_WORD	wordpools/wasnorm_wordpool.txt	LTP066	ltpFR	0	15	1	TREAD	1499	n/a	0	n/a	n/a	n/a	n/a	n/a
3104471	REC_WORD	wordpools/wasnorm_wordpool.txt	LTP066	ltpFR	0	15	0	DONOR	485	n/a	1	n/a	n/a	n/a	n/a	n/a
3116294	REC_WORD	wordpools/wasnorm_wordpool.txt	LTP066	ltpFR	0	15	1	FIDDLE	561	n/a	0	n/a	n/a	n/a	n/a	n/a
3119831	REC_WORD	wordpools/wasnorm_wordpool.txt	LTP066	ltpFR	0	15	1	LITTER	832	n/a	0	n/a	n/a	n/a	n/a	n/a
3124191	REC_WORD	wordpools/wasnorm_wordpool.txt	LTP066	ltpFR	0	15	1	VAMPIRE	1547	n/a	1	n/a	n/a	n/a	n/a	n/a
3154119	WORD	wordpools/wasnorm_wordpool.txt	LTP066	ltpFR	0	16	0	COMPANION	357	n/a	1	0	0.5869140625	0.422607421875	lower	../fonts/zerothre.ttf
3158077	WORD	wordpools/wasnorm_wordpool.txt	LTP066	ltpFR	0	16	0	BRIDGE	174	n/a	1	0	0.5869140625	0.422607421875	lower	../fonts/zerothre.ttf
3162026	WORD	wordpools/wasnorm_wordpool.txt	LTP066	ltpFR	0	16	0	BROOK	177	n/a	1	0	0.5869140625	0.422607421875	lower	../fonts/zerothre.ttf
3165984	WORD	wordpools/wasnorm_wordpool.txt	LTP066	ltpFR	0	16	1	MUG	930	n/a	0	1	0.412841796875	0.57763671875	upper	../fonts/amplitud.ttf
3169884	WORD	wordpools/wasnorm_wordpool.txt	LTP066	ltpFR	0	16	1	LEADER	807	n/a	1	1	0.412841796875	0.57763671875	upper	../fonts/amplitud.ttf
3173708	WORD	wordpools/wasnorm_wordpool.txt	LTP066	ltpFR	0	16	0	GRASSHOPPER	656	n/a	0	0	0.5869140625	0.422607421875	lower	../fonts/zerothre.ttf
3177716	WORD	wordpools/wasnorm_wordpool.txt	LTP066	ltpFR	0	16	0	BEAST	108	n/a	1	0	0.5869140625	0.422607421875	lower	../fonts/zerothre.ttf
3181641	WORD	wordpools/wasnorm_wordpool.txt	LTP066	ltpFR	0	16	0	HEATER	698	n/a	1	0	0.5869140625	0.422607421875	lower	../fonts/zerothre.ttf
3185550	WORD	wordpools/wasnorm_wordpool.txt	LTP066	ltpFR	0	16	1	SNORKEL	1336	n/a	0	1	0.412841796875	0.57763671875	upper	../fonts/amplitud.ttf
3189399	WORD	wordpools/wasnorm_wordpool.txt	LTP066	ltpFR	0	16	1	COMMANDER	354	n/a	1	1	0.412841796875	0.57763671875	upper	../fonts/amplitud.ttf
3193391	WORD	wordpools/wasnorm_wordpool.txt	LTP066	ltpFR	0	16	1	ALLIGATOR	16	n/a	1	1	0.412841796875	0.57763671875	upper	../fonts/amplitud.ttf
3197349	WORD	wordpools/wasnorm_wordpool.txt	LTP066	ltpFR	0	16	1	SKULL	1320	n/a	1	1	0.412841796875	0.57763671875	upper	../fonts/amplitud.ttf
3201174	WORD	wordpools/wasnorm_wordpool.txt	LTP066	ltpFR	0	16	1	CAP	236	n/a	0	1	0.412841796875	0.57763671875	upper	../fonts/amplitud.ttf
3205082	WORD	wordpools/wasnorm_wordpool.txt	LTP066	ltpFR	0	16	1	CREATURE	403	n/a	1	1	0.412841796875	0.57763671875	upper	../fonts/amplitud.ttf
3209265	WORD	wordpools/wasnorm_wordpool.txt	LTP066	ltpFR	0	16	0	BEAR	106	n/a	1	0	0.5869140625	0.422607421875	lower	../fonts/zerothre.ttf
3213081	WORD	wordpools/wasnorm_wordpool.txt	LTP066	ltpFR	0	16	0	WORM	1623	n/a	1	0	0.5869140625	0.422607421875	lower	../fonts/zerothre.ttf
3218823	REC_START	n/a	LTP066	ltpFR	0	16	n/a	n/a	n/a	n/a	n/a	n/a	n/a	n/a	n/a	n/a
3220025	REC_WORD	wordpools/wasnorm_wordpool.txt	LTP066	ltpFR	0	16	0	BEAR	106	n/a	1	n/a	n/a	n/a	n/a	n/a
3220938	REC_WORD	wordpools/wasnorm_wordpool.txt	LTP066	ltpFR	0	16	0	WORM	1623	n/a	1	n/a	n/a	n/a	n/a	n/a
3222020	REC_WORD	wordpools/wasnorm_wordpool.txt	LTP066	ltpFR	0	16	1	SKULL	1320	n/a	1	n/a	n/a	n/a	n/a	n/a
3223990	REC_WORD	wordpools/wasnorm_wordpool.txt	LTP066	ltpFR	0	16	0	COMPANION	357	n/a	1	n/a	n/a	n/a	n/a	n/a
3225238	REC_WORD	wordpools/wasnorm_wordpool.txt	LTP066	ltpFR	0	16	0	BRIDGE	174	n/a	1	n/a	n/a	n/a	n/a	n/a
3230097	REC_WORD	wordpools/wasnorm_wordpool.txt	LTP066	ltpFR	0	16	0	GRASSHOPPER	656	n/a	0	n/a	n/a	n/a	n/a	n/a
3232367	REC_WORD	wordpools/wasnorm_wordpool.txt	LTP066	ltpFR	0	16	1	LEADER	807	n/a	1	n/a	n/a	n/a	n/a	n/a
3234757	REC_WORD	wordpools/wasnorm_wordpool.txt	LTP066	ltpFR	0	16	0	BEAR	106	n/a	1	n/a	n/a	n/a	n/a	n/a
3237191	REC_WORD	wordpools/wasnorm_wordpool.txt	LTP066	ltpFR	0	16	0	WORM	1623	n/a	1	n/a	n/a	n/a	n/a	n/a
3242574	REC_WORD	wordpools/wasnorm_wordpool.txt	LTP066	ltpFR	0	16	1	MUG	930	n/a	0	n/a	n/a	n/a	n/a	n/a
3253255	REC_WORD	wordpools/wasnorm_wordpool.txt	LTP066	ltpFR	0	16	0	BEAST	108	n/a	1	n/a	n/a	n/a	n/a	n/a
3254866	REC_WORD	wordpools/wasnorm_wordpool.txt	LTP066	ltpFR	0	16	1	CREATURE	403	n/a	1	n/a	n/a	n/a	n/a	n/a
3258462	REC_WORD	wordpools/wasnorm_wordpool.txt	LTP066	ltpFR	0	16	n/a	FIRE	-1	n/a	n/a	n/a	n/a	n/a	n/a	n/a
3266923	REC_WORD	wordpools/wasnorm_wordpool.txt	LTP066	ltpFR	0	16	1	CAP	236	n/a	0	n/a	n/a	n/a	n/a	n/a
3336256	REC_START	n/a	LTP066	ltpFR	0	n/a	n/a	n/a	n/a	n/a	n/a	n/a	n/a	n/a	n/a	n/a
3337867	FFR_REC_WORD	wordpools/wasnorm_wordpool.txt	LTP066	ltpFR	0	n/a	-1	CONE	363	n/a	-1	n/a	n/a	n/a	n/a	n/a
3338606	FFR_REC_WORD	wordpools/wasnorm_wordpool.txt	LTP066	ltpFR	0	n/a	-1	FUDGE	611	n/a	-1	n/a	n/a	n/a	n/a	n/a
3341484	FFR_REC_WORD	wordpools/wasnorm_wordpool.txt	LTP066	ltpFR	0	n/a	0	HARP	689	n/a	0	n/a	n/a	n/a	n/a	n/a
3343692	FFR_REC_WORD	wordpools/wasnorm_wordpool.txt	LTP066	ltpFR	0	n/a	0	BONE	148	n/a	0	n/a	n/a	n/a	n/a	n/a
3346197	FFR_REC_WORD	wordpools/wasnorm_wordpool.txt	LTP066	ltpFR	0	n/a	0	PLUMBER	1091	n/a	1	n/a	n/a	n/a	n/a	n/a
3347653	FFR_REC_WORD	wordpools/wasnorm_wordpool.txt	LTP066	ltpFR	0	n/a	0	BEAR	106	n/a	1	n/a	n/a	n/a	n/a	n/a
3348256	FFR_REC_WORD	wordpools/wasnorm_wordpool.txt	LTP066	ltpFR	0	n/a	0	GRASSHOPPER	656	n/a	0	n/a	n/a	n/a	n/a	n/a
3349231	FFR_REC_WORD	wordpools/wasnorm_wordpool.txt	LTP066	ltpFR	0	n/a	0	WORM	1623	n/a	1	n/a	n/a	n/a	n/a	n/a
3350213	FFR_REC_WORD	wordpools/wasnorm_wordpool.txt	LTP066	ltpFR	0	n/a	1	SKULL	1320	n/a	1	n/a	n/a	n/a	n/a	n/a
3351512	FFR_REC_WORD	wordpools/wasnorm_wordpool.txt	LTP066	ltpFR	0	n/a	1	FIST	572	n/a	1	n/a	n/a	n/a	n/a	n/a
3352449	FFR_REC_WORD	wordpools/wasnorm_wordpool.txt	LTP066	ltpFR	0	n/a	0	HAND	683	n/a	0	n/a	n/a	n/a	n/a	n/a
3354797	FFR_REC_WORD	wordpools/wasnorm_wordpool.txt	LTP066	ltpFR	0	n/a	0	LABYRINTH	791	n/a	1	n/a	n/a	n/a	n/a	n/a
3356705	FFR_REC_WORD	wordpools/wasnorm_wordpool.txt	LTP066	ltpFR	0	n/a	0	UNICORN	1538	n/a	1	n/a	n/a	n/a	n/a	n/a
3362460	FFR_REC_WORD	wordpools/wasnorm_wordpool.txt	LTP066	ltpFR	0	n/a	1	PEAR	1033	n/a	1	n/a	n/a	n/a	n/a	n/a
3364477	FFR_REC_WORD	wordpools/wasnorm_wordpool.txt	LTP066	ltpFR	0	n/a	0	VINE	1568	n/a	1	n/a	n/a	n/a	n/a	n/a
3367748	FFR_REC_WORD	wordpools/wasnorm_wordpool.txt	LTP066	ltpFR	0	n/a	1	TIDE	1465	n/a	0	n/a	n/a	n/a	n/a	n/a
3368648	FFR_REC_WORD	wordpools/wasnorm_wordpool.txt	LTP066	ltpFR	0	n/a	1	TREAD	1499	n/a	0	n/a	n/a	n/a	n/a	n/a
3371179	FFR_REC_WORD	wordpools/wasnorm_wordpool.txt	LTP066	ltpFR	0	n/a	0	OCEAN	970	n/a	1	n/a	n/a	n/a	n/a	n/a
3371981	FFR_REC_WORD	wordpools/wasnorm_wordpool.txt	LTP066	ltpFR	0	n/a	0	CANVAS	234	n/a	1	n/a	n/a	n/a	n/a	n/a
3376630	FFR_REC_WORD	wordpools/wasnorm_wordpool.txt	LTP066	ltpFR	0	n/a	1	INMATE	738	n/a	1	n/a	n/a	n/a	n/a	n/a
3377688	FFR_REC_WORD	wordpools/wasnorm_wordpool.txt	LTP066	ltpFR	0	n/a	1	ZOO	1637	n/a	0	n/a	n/a	n/a	n/a	n/a
3380795	FFR_REC_WORD	wordpools/wasnorm_wordpool.txt	LTP066	ltpFR	0	n/a	1	HOSTAGE	722	n/a	1	n/a	n/a	n/a	n/a	n/a
3382352	FFR_REC_WORD	wordpools/wasnorm_wordpool.txt	LTP066	ltpFR	0	n/a	1	SWAN	1417	n/a	1	n/a	n/a	n/a	n/a	n/a
3383257	FFR_REC_WORD	wordpools/wasnorm_wordpool.txt	LTP066	ltpFR	0	n/a	1	OX	994	n/a	1	n/a	n/a	n/a	n/a	n/a
3390975	FFR_REC_WORD	wordpools/wasnorm_wordpool.txt	LTP066	ltpFR	0	n/a	1	RIB	1188	n/a	1	n/a	n/a	n/a	n/a	n/a
3392648	FFR_REC_WORD	wordpools/wasnorm_wordpool.txt	LTP066	ltpFR	0	n/a	0	BONE	148	n/a	0	n/a	n/a	n/a	n/a	n/a
3393308	FFR_REC_WORD	wordpools/wasnorm_wordpool.txt	LTP066	ltpFR	0	n/a	1	SILVERWARE	1308	n/a	0	n/a	n/a	n/a	n/a	n/a
3396770	FFR_REC_WORD	wordpools/wasnorm_wordpool.txt	LTP066	ltpFR	0	n/a	0	PLATE	1086	n/a	1	n/a	n/a	n/a	n/a	n/a
3402140	FFR_REC_WORD	wordpools/wasnorm_wordpool.txt	LTP066	ltpFR	0	n/a	-1	CUBE	420	n/a	-1	n/a	n/a	n/a	n/a	n/a
3403080	FFR_REC_WORD	wordpools/wasnorm_wordpool.txt	LTP066	ltpFR	0	n/a	0	RUBY	1214	n/a	0	n/a	n/a	n/a	n/a	n/a
3403642	FFR_REC_WORD	wordpools/wasnorm_wordpool.txt	LTP066	ltpFR	0	n/a	0	TREASURE	1500	n/a	1	n/a	n/a	n/a	n/a	n/a
3406456	FFR_REC_WORD	wordpools/wasnorm_wordpool.txt	LTP066	ltpFR	0	n/a	1	DIME	466	n/a	0	n/a	n/a	n/a	n/a	n/a
3418787	FFR_REC_WORD	wordpools/wasnorm_wordpool.txt	LTP066	ltpFR	0	n/a	0	BEAST	108	n/a	1	n/a	n/a	n/a	n/a	n/a
3420102	FFR_REC_WORD	wordpools/wasnorm_wordpool.txt	LTP066	ltpFR	0	n/a	1	CREATURE	403	n/a	1	n/a	n/a	n/a	n/a	n/a
3431286	FFR_REC_WORD	wordpools/wasnorm_wordpool.txt	LTP066	ltpFR	0	n/a	0	HARP	689	n/a	0	n/a	n/a	n/a	n/a	n/a
3433636	FFR_REC_WORD	wordpools/wasnorm_wordpool.txt	LTP066	ltpFR	0	n/a	1	BASSINET	97	n/a	0	n/a	n/a	n/a	n/a	n/a
3434796	FFR_REC_WORD	wordpools/wasnorm_wordpool.txt	LTP066	ltpFR	0	n/a	0	VIOLA	1570	n/a	0	n/a	n/a	n/a	n/a	n/a
3442476	FFR_REC_WORD	wordpools/wasnorm_wordpool.txt	LTP066	ltpFR	0	n/a	1	REBEL	1172	n/a	1	n/a	n/a	n/a	n/a	n/a
3445995	FFR_REC_WORD	wordpools/wasnorm_wordpool.txt	LTP066	ltpFR	0	n/a	-1	TROUSERS	1510	n/a	-1	n/a	n/a	n/a	n/a	n/a
3447346	FFR_REC_WORD	wordpools/wasnorm_wordpool.txt	LTP066	ltpFR	0	n/a	1	LIMB	822	n/a	1	n/a	n/a	n/a	n/a	n/a
3454574	FFR_REC_WORD	wordpools/wasnorm_wordpool.txt	LTP066	ltpFR	0	n/a	0	COMPANION	357	n/a	1	n/a	n/a	n/a	n/a	n/a
3456104	FFR_REC_WORD	wordpools/wasnorm_wordpool.txt	LTP066	ltpFR	0	n/a	0	BRIDGE	174	n/a	1	n/a	n/a	n/a	n/a	n/a
3458736	FFR_REC_WORD	wordpools/wasnorm_wordpool.txt	LTP066	ltpFR	0	n/a	1	MUG	930	n/a	0	n/a	n/a	n/a	n/a	n/a
3466599	FFR_REC_WORD	wordpools/wasnorm_wordpool.txt	LTP066	ltpFR	0	n/a	1	VAMPIRE	1547	n/a	1	n/a	n/a	n/a	n/a	n/a
3475619	FFR_REC_WORD	wordpools/wasnorm_wordpool.txt	LTP066	ltpFR	0	n/a	-1	MICROPHONE	890	n/a	-1	n/a	n/a	n/a	n/a	n/a
3501690	FFR_REC_WORD	wordpools/wasnorm_wordpool.txt	LTP066	ltpFR	0	n/a	0	HEART	697	n/a	0	n/a	n/a	n/a	n/a	n/a
3502694	FFR_REC_WORD	wordpools/wasnorm_wordpool.txt	LTP066	ltpFR	0	n/a	0	NECK	939	n/a	0	n/a	n/a	n/a	n/a	n/a
3513695	FFR_REC_WORD	wordpools/wasnorm_wordpool.txt	LTP066	ltpFR	0	n/a	0	PERCH	1048	n/a	0	n/a	n/a	n/a	n/a	n/a
3516144	FFR_REC_WORD	wordpools/wasnorm_wordpool.txt	LTP066	ltpFR	0	n/a	0	RIVER	1194	n/a	1	n/a	n/a	n/a	n/a	n/a
3517575	FFR_REC_WORD	wordpools/wasnorm_wordpool.txt	LTP066	ltpFR	0	n/a	0	STEAM	1375	n/a	1	n/a	n/a	n/a	n/a	n/a
3533141	FFR_REC_WORD	wordpools/wasnorm_wordpool.txt	LTP066	ltpFR	0	n/a	1	ISLAND	745	n/a	0	n/a	n/a	n/a	n/a	n/a
3535909	FFR_REC_WORD	wordpools/wasnorm_wordpool.txt	LTP066	ltpFR	0	n/a	1	UMBRELLA	1534	n/a	0	n/a	n/a	n/a	n/a	n/a
3564163	FFR_REC_WORD	wordpools/wasnorm_wordpool.txt	LTP066	ltpFR	0	n/a	1	LEADER	807	n/a	1	n/a	n/a	n/a	n/a	n/a
3570237	FFR_REC_WORD	wordpools/wasnorm_wordpool.txt	LTP066	ltpFR	0	n/a	0	PIN	1072	n/a	0	n/a	n/a	n/a	n/a	n/a
3571057	FFR_REC_WORD	wordpools/wasnorm_wordpool.txt	LTP066	ltpFR	0	n/a	0	STRING	1394	n/a	0	n/a	n/a	n/a	n/a	n/a
3600423	FFR_REC_WORD	wordpools/wasnorm_wordpool.txt	LTP066	ltpFR	0	n/a	n/a	CABINET	212	n/a	n/a	n/a	n/a	n/a	n/a	n/a
3624094	FFR_REC_WORD	wordpools/wasnorm_wordpool.txt	LTP066	ltpFR	0	n/a	0	MARS	873	n/a	1	n/a	n/a	n/a	n/a	n/a
3626818	FFR_REC_WORD	wordpools/wasnorm_wordpool.txt	LTP066	ltpFR	0	n/a	0	SWIMMER	1420	n/a	1	n/a	n/a	n/a	n/a	n/a
3627547	FFR_REC_WORD	wordpools/wasnorm_wordpool.txt	LTP066	ltpFR	0	n/a	0	FLOOR	581	n/a	1	n/a	n/a	n/a	n/a	n/a
3629101	FFR_REC_WORD	wordpools/wasnorm_wordpool.txt	LTP066	ltpFR	0	n/a	0	EARTH	515	n/a	1	n/a	n/a	n/a	n/a	n/a
3633088	FFR_REC_WORD	wordpools/wasnorm_wordpool.txt	LTP066	ltpFR	0	n/a	0	SINK	1309	n/a	1	n/a	n/a	n/a	n/a	n/a
3789706	REC_START	n/a	LTP066	ltpFR	0	1	n/a	n/a	n/a	n/a	n/a	n/a	n/a	n/a	n/a	n/a
3789738	RECOG_LURE	n/a	LTP066	ltpFR	0	1	n/a	DOUGH	489	5	n/a	n/a	n/a	n/a	n/a	n/a
3791751	RECOG_RESP	n/a	LTP066	ltpFR	0	1	n/a	DOUGH	489	n/a	n/a	n/a	n/a	n/a	n/a	n/a
3795517	RECOG_CONF	n/a	LTP066	ltpFR	0	1	n/a	DOUGH	489	5	n/a	n/a	n/a	n/a	n/a	n/a
3798447	RECOG_TARGET	n/a	LTP066	ltpFR	0	1	1	BASSINET	97	5	0	n/a	n/a	n/a	n/a	n/a
3799958	RECOG_RESP	n/a	LTP066	ltpFR	0	1	1	BASSINET	97	n/a	0	n/a	n/a	n/a	n/a	n/a
3802058	RECOG_CONF	n/a	LTP066	ltpFR	0	1	1	BASSINET	97	5	0	n/a	n/a	n/a	n/a	n/a
3803921	RECOG_LURE	n/a	LTP066	ltpFR	0	1	n/a	ASSOCIATE	49	5	n/a	n/a	n/a	n/a	n/a	n/a
3805300	RECOG_RESP	n/a	LTP066	ltpFR	0	1	n/a	ASSOCIATE	49	n/a	n/a	n/a	n/a	n/a	n/a	n/a
3807071	RECOG_CONF	n/a	LTP066	ltpFR	0	1	n/a	ASSOCIATE	49	5	n/a	n/a	n/a	n/a	n/a	n/a
3808879	RECOG_TARGET	n/a	LTP066	ltpFR	0	1	0	HARP	689	5	0	n/a	n/a	n/a	n/a	n/a
3810194	RECOG_RESP	n/a	LTP066	ltpFR	0	1	0	HARP	689	n/a	0	n/a	n/a	n/a	n/a	n/a
3811741	RECOG_CONF	n/a	LTP066	ltpFR	0	1	0	HARP	689	5	0	n/a	n/a	n/a	n/a	n/a
3813587	RECOG_TARGET	n/a	LTP066	ltpFR	0	1	1	SNORKEL	1336	5	0	n/a	n/a	n/a	n/a	n/a
3815582	RECOG_RESP	n/a	LTP066	ltpFR	0	1	1	SNORKEL	1336	n/a	0	n/a	n/a	n/a	n/a	n/a
3817128	RECOG_CONF	n/a	LTP066	ltpFR	0	1	1	SNORKEL	1336	5	0	n/a	n/a	n/a	n/a	n/a
3818870	RECOG_LURE	n/a	LTP066	ltpFR	0	1	n/a	DIAGRAM	456	5	n/a	n/a	n/a	n/a	n/a	n/a
3819937	RECOG_RESP	n/a	LTP066	ltpFR	0	1	n/a	DIAGRAM	456	n/a	n/a	n/a	n/a	n/a	n/a	n/a
3821254	RECOG_CONF	n/a	LTP066	ltpFR	0	1	n/a	DIAGRAM	456	5	n/a	n/a	n/a	n/a	n/a	n/a
3822870	RECOG_LURE	n/a	LTP066	ltpFR	0	1	n/a	MOTORCYCLE	923	5	n/a	n/a	n/a	n/a	n/a	n/a
3823988	RECOG_RESP	n/a	LTP066	ltpFR	0	1	n/a	MOTORCYCLE	923	n/a	n/a	n/a	n/a	n/a	n/a	n/a
3825034	RECOG_CONF	n/a	LTP066	ltpFR	0	1	n/a	MOTORCYCLE	923	5	n/a	n/a	n/a	n/a	n/a	n/a
3826811	RECOG_TARGET	n/a	LTP066	ltpFR	0	1	0	BURGLAR	200	4	1	n/a	n/a	n/a	n/a	n/a
3828168	RECOG_RESP	n/a	LTP066	ltpFR	0	1	0	BURGLAR	200	n/a	1	n/a	n/a	n/a	n/a	n/a
3830099	RECOG_CONF	n/a	LTP066	ltpFR	0	1	0	BURGLAR	200	4	1	n/a	n/a	n/a	n/a	n/a
3831894	RECOG_TARGET	n/a	LTP066	ltpFR	0	1	-1	MICROPHONE	890	5	-1	n/a	n/a	n/a	n/a	n/a
3833182	RECOG_RESP	n/a	LTP066	ltpFR	0	1	-1	MICROPHONE	890	n/a	-1	n/a	n/a	n/a	n/a	n/a
3834499	RECOG_CONF	n/a	LTP066	ltpFR	0	1	-1	MICROPHONE	890	5	-1	n/a	n/a	n/a	n/a	n/a
3836236	RECOG_TARGET	n/a	LTP066	ltpFR	0	1	1	BANDAGE	79	5	0	n/a	n/a	n/a	n/a	n/a
3837278	RECOG_RESP	n/a	LTP066	ltpFR	0	1	1	BANDAGE	79	n/a	0	n/a	n/a	n/a	n/a	n/a
3838280	RECOG_CONF	n/a	LTP066	ltpFR	0	1	1	BANDAGE	79	5	0	n/a	n/a	n/a	n/a	n/a
3840010	RECOG_LURE	n/a	LTP066	ltpFR	0	1	n/a	PICK	1058	4	n/a	n/a	n/a	n/a	n/a	n/a
3841867	RECOG_RESP	n/a	LTP066	ltpFR	0	1	n/a	PICK	1058	n/a	n/a	n/a	n/a	n/a	n/a	n/a
3842915	RECOG_CONF	n/a	LTP066	ltpFR	0	1	n/a	PICK	1058	4	n/a	n/a	n/a	n/a	n/a	n/a
3844659	RECOG_TARGET	n/a	LTP066	ltpFR	0	1	-1	FOLDER	588	5	-1	n/a	n/a	n/a	n/a	n/a
3845524	RECOG_RESP	n/a	LTP066	ltpFR	0	1	-1	FOLDER	588	n/a	-1	n/a	n/a	n/a	n/a	n/a
3846591	RECOG_CONF	n/a	LTP066	ltpFR	0	1	-1	FOLDER	588	5	-1	n/a	n/a	n/a	n/a	n/a
3848168	RECOG_TARGET	n/a	LTP066	ltpFR	0	1	0	BRIDGE	174	5	1	n/a	n/a	n/a	n/a	n/a
3849240	RECOG_RESP	n/a	LTP066	ltpFR	0	1	0	BRIDGE	174	n/a	1	n/a	n/a	n/a	n/a	n/a
3850523	RECOG_CONF	n/a	LTP066	ltpFR	0	1	0	BRIDGE	174	5	1	n/a	n/a	n/a	n/a	n/a
3852351	RECOG_TARGET	n/a	LTP066	ltpFR	0	1	0	BEAR	106	5	1	n/a	n/a	n/a	n/a	n/a
3853481	RECOG_RESP	n/a	LTP066	ltpFR	0	1	0	BEAR	106	n/a	1	n/a	n/a	n/a	n/a	n/a
3854715	RECOG_CONF	n/a	LTP066	ltpFR	0	1	0	BEAR	106	5	1	n/a	n/a	n/a	n/a	n/a
3856268	RECOG_TARGET	n/a	LTP066	ltpFR	0	1	0	STRING	1394	5	0	n/a	n/a	n/a	n/a	n/a
3857083	RECOG_RESP	n/a	LTP066	ltpFR	0	1	0	STRING	1394	n/a	0	n/a	n/a	n/a	n/a	n/a
3858449	RECOG_CONF	n/a	LTP066	ltpFR	0	1	0	STRING	1394	5	0	n/a	n/a	n/a	n/a	n/a
3861276	RECOG_TARGET	n/a	LTP066	ltpFR	0	1	0	TULIP	1517	5	0	n/a	n/a	n/a	n/a	n/a
3862176	RECOG_RESP	n/a	LTP066	ltpFR	0	1	0	TULIP	1517	n/a	0	n/a	n/a	n/a	n/a	n/a
3863493	RECOG_CONF	n/a	LTP066	ltpFR	0	1	0	TULIP	1517	5	0	n/a	n/a	n/a	n/a	n/a
3865309	RECOG_TARGET	n/a	LTP066	ltpFR	0	1	-1	COUNTY	389	5	-1	n/a	n/a	n/a	n/a	n/a
3866411	RECOG_RESP	n/a	LTP066	ltpFR	0	1	-1	COUNTY	389	n/a	-1	n/a	n/a	n/a	n/a	n/a
3867803	RECOG_CONF	n/a	LTP066	ltpFR	0	1	-1	COUNTY	389	5	-1	n/a	n/a	n/a	n/a	n/a
3869649	RECOG_LURE	n/a	LTP066	ltpFR	0	1	n/a	AIRPORT	13	5	n/a	n/a	n/a	n/a	n/a	n/a
3870537	RECOG_RESP	n/a	LTP066	ltpFR	0	1	n/a	AIRPORT	13	n/a	n/a	n/a	n/a	n/a	n/a	n/a
3871639	RECOG_CONF	n/a	LTP066	ltpFR	0	1	n/a	AIRPORT	13	5	n/a	n/a	n/a	n/a	n/a	n/a
3873516	RECOG_TARGET	n/a	LTP066	ltpFR	0	1	1	COLUMN	350	5	0	n/a	n/a	n/a	n/a	n/a
3874518	RECOG_RESP	n/a	LTP066	ltpFR	0	1	1	COLUMN	350	n/a	0	n/a	n/a	n/a	n/a	n/a
3875490	RECOG_CONF	n/a	LTP066	ltpFR	0	1	1	COLUMN	350	5	0	n/a	n/a	n/a	n/a	n/a
3877483	RECOG_TARGET	n/a	LTP066	ltpFR	0	1	0	PLATE	1086	5	1	n/a	n/a	n/a	n/a	n/a
3878619	RECOG_RESP	n/a	LTP066	ltpFR	0	1	0	PLATE	1086	n/a	1	n/a	n/a	n/a	n/a	n/a
3879896	RECOG_CONF	n/a	LTP066	ltpFR	0	1	0	PLATE	1086	5	1	n/a	n/a	n/a	n/a	n/a
3889061	REC_START	n/a	LTP066	ltpFR	0	2	n/a	n/a	n/a	n/a	n/a	n/a	n/a	n/a	n/a	n/a
3889090	RECOG_LURE	n/a	LTP066	ltpFR	0	2	n/a	MOTOR	922	5	n/a	n/a	n/a	n/a	n/a	n/a
3890787	RECOG_RESP	n/a	LTP066	ltpFR	0	2	n/a	MOTOR	922	n/a	n/a	n/a	n/a	n/a	n/a	n/a
3892093	RECOG_CONF	n/a	LTP066	ltpFR	0	2	n/a	MOTOR	922	5	n/a	n/a	n/a	n/a	n/a	n/a
3893823	RECOG_TARGET	n/a	LTP066	ltpFR	0	2	0	CONTRACTOR	369	5	1	n/a	n/a	n/a	n/a	n/a
3895516	RECOG_RESP	n/a	LTP066	ltpFR	0	2	0	CONTRACTOR	369	n/a	1	n/a	n/a	n/a	n/a	n/a
3896603	RECOG_CONF	n/a	LTP066	ltpFR	0	2	0	CONTRACTOR	369	5	1	n/a	n/a	n/a	n/a	n/a
3898373	RECOG_TARGET	n/a	LTP066	ltpFR	0	2	-1	PENCIL	1042	5	-1	n/a	n/a	n/a	n/a	n/a
3899243	RECOG_RESP	n/a	LTP066	ltpFR	0	2	-1	PENCIL	1042	n/a	-1	n/a	n/a	n/a	n/a	n/a
3900869	RECOG_CONF	n/a	LTP066	ltpFR	0	2	-1	PENCIL	1042	5	-1	n/a	n/a	n/a	n/a	n/a
3902647	RECOG_TARGET	n/a	LTP066	ltpFR	0	2	1	SKULL	1320	5	1	n/a	n/a	n/a	n/a	n/a
3903503	RECOG_RESP	n/a	LTP066	ltpFR	0	2	1	SKULL	1320	n/a	1	n/a	n/a	n/a	n/a	n/a
3904480	RECOG_CONF	n/a	LTP066	ltpFR	0	2	1	SKULL	1320	5	1	n/a	n/a	n/a	n/a	n/a
3906239	RECOG_TARGET	n/a	LTP066	ltpFR	0	2	1	BOWL	158	5	0	n/a	n/a	n/a	n/a	n/a
3907394	RECOG_RESP	n/a	LTP066	ltpFR	0	2	1	BOWL	158	n/a	0	n/a	n/a	n/a	n/a	n/a
3908480	RECOG_CONF	n/a	LTP066	ltpFR	0	2	1	BOWL	158	5	0	n/a	n/a	n/a	n/a	n/a
3910264	RECOG_LURE	n/a	LTP066	ltpFR	0	2	n/a	LOLLIPOP	842	5	n/a	n/a	n/a	n/a	n/a	n/a
3911175	RECOG_RESP	n/a	LTP066	ltpFR	0	2	n/a	LOLLIPOP	842	n/a	n/a	n/a	n/a	n/a	n/a	n/a
3912173	RECOG_CONF	n/a	LTP066	ltpFR	0	2	n/a	LOLLIPOP	842	5	n/a	n/a	n/a	n/a	n/a	n/a
3913930	RECOG_TARGET	n/a	LTP066	ltpFR	0	2	0	WINNER	1615	4	1	n/a	n/a	n/a	n/a	n/a
3915117	RECOG_RESP	n/a	LTP066	ltpFR	0	2	0	WINNER	1615	n/a	1	n/a	n/a	n/a	n/a	n/a
3916393	RECOG_CONF	n/a	LTP066	ltpFR	0	2	0	WINNER	1615	4	1	n/a	n/a	n/a	n/a	n/a
3918271	RECOG_LURE	n/a	LTP066	ltpFR	0	2	n/a	ACTRESS	6	5	n/a	n/a	n/a	n/a	n/a	n/a
3919167	RECOG_RESP	n/a	LTP066	ltpFR	0	2	n/a	ACTRESS	6	n/a	n/a	n/a	n/a	n/a	n/a	n/a
3920160	RECOG_CONF	n/a	LTP066	ltpFR	0	2	n/a	ACTRESS	6	5	n/a	n/a	n/a	n/a	n/a	n/a
3921929	RECOG_TARGET	n/a	LTP066	ltpFR	0	2	0	MEDAL	885	5	0	n/a	n/a	n/a	n/a	n/a
3922829	RECOG_RESP	n/a	LTP066	ltpFR	0	2	0	MEDAL	885	n/a	0	n/a	n/a	n/a	n/a	n/a
3924021	RECOG_CONF	n/a	LTP066	ltpFR	0	2	0	MEDAL	885	5	0	n/a	n/a	n/a	n/a	n/a
3925788	RECOG_LURE	n/a	LTP066	ltpFR	0	2	n/a	SLIME	1327	5	n/a	n/a	n/a	n/a	n/a	n/a
3926665	RECOG_RESP	n/a	LTP066	ltpFR	0	2	n/a	SLIME	1327	n/a	n/a	n/a	n/a	n/a	n/a	n/a
3927673	RECOG_CONF	n/a	LTP066	ltpFR	0	2	n/a	SLIME	1327	5	n/a	n/a	n/a	n/a	n/a	n/a
3929529	RECOG_TARGET	n/a	LTP066	ltpFR	0	2	-1	COYOTE	396	5	-1	n/a	n/a	n/a	n/a	n/a
3931005	RECOG_RESP	n/a	LTP066	ltpFR	0	2	-1	COYOTE	396	n/a	-1	n/a	n/a	n/a	n/a	n/a
3932068	RECOG_CONF	n/a	LTP066	ltpFR	0	2	-1	COYOTE	396	5	-1	n/a	n/a	n/a	n/a	n/a
3933628	RECOG_LURE	n/a	LTP066	ltpFR	0	2	n/a	OBOE	969	5	n/a	n/a	n/a	n/a	n/a	n/a
3936059	RECOG_RESP_VV	n/a	LTP066	ltpFR	0	2	n/a	OBOE	969	n/a	n/a	n/a	n/a	n/a	n/a	n/a
3938354	RECOG_RESP	n/a	LTP066	ltpFR	0	2	n/a	OBOE	969	n/a	n/a	n/a	n/a	n/a	n/a	n/a
3939466	RECOG_CONF	n/a	LTP066	ltpFR	0	2	n/a	OBOE	969	5	n/a	n/a	n/a	n/a	n/a	n/a
3941295	RECOG_LURE	n/a	LTP066	ltpFR	0	2	n/a	LUMBER	848	5	n/a	n/a	n/a	n/a	n/a	n/a
3942694	RECOG_RESP	n/a	LTP066	ltpFR	0	2	n/a	LUMBER	848	n/a	n/a	n/a	n/a	n/a	n/a	n/a
3944405	RECOG_CONF	n/a	LTP066	ltpFR	0	2	n/a	LUMBER	848	5	n/a	n/a	n/a	n/a	n/a	n/a
3946078	RECOG_TARGET	n/a	LTP066	ltpFR	0	2	1	CARROT	249	5	1	n/a	n/a	n/a	n/a	n/a
3947004	RECOG_RESP	n/a	LTP066	ltpFR	0	2	1	CARROT	249	n/a	1	n/a	n/a	n/a	n/a	n/a
3948255	RECOG_CONF	n/a	LTP066	ltpFR	0	2	1	CARROT	249	5	1	n/a	n/a	n/a	n/a	n/a
3950052	RECOG_LURE	n/a	LTP066	ltpFR	0	2	n/a	WASHCLOTH	1591	4	n/a	n/a	n/a	n/a	n/a	n/a
3951489	RECOG_RESP	n/a	LTP066	ltpFR	0	2	n/a	WASHCLOTH	1591	n/a	n/a	n/a	n/a	n/a	n/a	n/a
3952601	RECOG_CONF	n/a	LTP066	ltpFR	0	2	n/a	WASHCLOTH	1591	4	n/a	n/a	n/a	n/a	n/a	n/a
3954419	RECOG_TARGET	n/a	LTP066	ltpFR	0	2	0	SATURN	1236	5	1	n/a	n/a	n/a	n/a	n/a
3955230	RECOG_RESP	n/a	LTP066	ltpFR	0	2	0	SATURN	1236	n/a	1	n/a	n/a	n/a	n/a	n/a
3956213	RECOG_CONF	n/a	LTP066	ltpFR	0	2	0	SATURN	1236	5	1	n/a	n/a	n/a	n/a	n/a
3957877	RECOG_TARGET	n/a	LTP066	ltpFR	0	2	0	TROPHY	1509	5	1	n/a	n/a	n/a	n/a	n/a
3958732	RECOG_RESP	n/a	LTP066	ltpFR	0	2	0	TROPHY	1509	n/a	1	n/a	n/a	n/a	n/a	n/a
3959790	RECOG_CONF	n/a	LTP066	ltpFR	0	2	0	TROPHY	1509	5	1	n/a	n/a	n/a	n/a	n/a
3961293	RECOG_TARGET	n/a	LTP066	ltpFR	0	2	1	CONSOLE	364	5	0	n/a	n/a	n/a	n/a	n/a
3962479	RECOG_RESP	n/a	LTP066	ltpFR	0	2	1	CONSOLE	364	n/a	0	n/a	n/a	n/a	n/a	n/a
3963377	RECOG_CONF	n/a	LTP066	ltpFR	0	2	1	CONSOLE	364	5	0	n/a	n/a	n/a	n/a	n/a
3964968	RECOG_LURE	n/a	LTP066	ltpFR	0	2	n/a	FIN	566	4	n/a	n/a	n/a	n/a	n/a	n/a
3965996	RECOG_RESP	n/a	LTP066	ltpFR	0	2	n/a	FIN	566	n/a	n/a	n/a	n/a	n/a	n/a	n/a
3967068	RECOG_CONF	n/a	LTP066	ltpFR	0	2	n/a	FIN	566	4	n/a	n/a	n/a	n/a	n/a	n/a
3968601	RECOG_TARGET	n/a	LTP066	ltpFR	0	2	1	PATROL	1027	5	0	n/a	n/a	n/a	n/a	n/a
3969508	RECOG_RESP	n/a	LTP066	ltpFR	0	2	1	PATROL	1027	n/a	0	n/a	n/a	n/a	n/a	n/a
3970486	RECOG_CONF	n/a	LTP066	ltpFR	0	2	1	PATROL	1027	5	0	n/a	n/a	n/a	n/a	n/a
3992743	REC_START	n/a	LTP066	ltpFR	0	3	n/a	n/a	n/a	n/a	n/a	n/a	n/a	n/a	n/a	n/a
3992774	RECOG_TARGET	n/a	LTP066	ltpFR	0	3	1	OWNER	993	5	1	n/a	n/a	n/a	n/a	n/a
3994180	RECOG_RESP	n/a	LTP066	ltpFR	0	3	1	OWNER	993	n/a	1	n/a	n/a	n/a	n/a	n/a
3995302	RECOG_CONF	n/a	LTP066	ltpFR	0	3	1	OWNER	993	5	1	n/a	n/a	n/a	n/a	n/a
3996874	RECOG_TARGET	n/a	LTP066	ltpFR	0	3	0	SILK	1307	5	0	n/a	n/a	n/a	n/a	n/a
3997856	RECOG_RESP	n/a	LTP066	ltpFR	0	3	0	SILK	1307	n/a	0	n/a	n/a	n/a	n/a	n/a
3998914	RECOG_CONF	n/a	LTP066	ltpFR	0	3	0	SILK	1307	5	0	n/a	n/a	n/a	n/a	n/a
4000399	RECOG_TARGET	n/a	LTP066	ltpFR	0	3	1	SPINACH	1352	5	1	n/a	n/a	n/a	n/a	n/a
4001199	RECOG_RESP	n/a	LTP066	ltpFR	0	3	1	SPINACH	1352	n/a	1	n/a	n/a	n/a	n/a	n/a
4002570	RECOG_CONF	n/a	LTP066	ltpFR	0	3	1	SPINACH	1352	5	1	n/a	n/a	n/a	n/a	n/a
4004190	RECOG_LURE	n/a	LTP066	ltpFR	0	3	n/a	BLOCKADE	137	5	n/a	n/a	n/a	n/a	n/a	n/a
4005309	RECOG_RESP	n/a	LTP066	ltpFR	0	3	n/a	BLOCKADE	137	n/a	n/a	n/a	n/a	n/a	n/a	n/a
4006302	RECOG_CONF	n/a	LTP066	ltpFR	0	3	n/a	BLOCKADE	137	5	n/a	n/a	n/a	n/a	n/a	n/a
4007948	RECOG_TARGET	n/a	LTP066	ltpFR	0	3	0	ERASER	538	5	0	n/a	n/a	n/a	n/a	n/a
4009280	RECOG_RESP	n/a	LTP066	ltpFR	0	3	0	ERASER	538	n/a	0	n/a	n/a	n/a	n/a	n/a
4010762	RECOG_CONF	n/a	LTP066	ltpFR	0	3	0	ERASER	538	5	0	n/a	n/a	n/a	n/a	n/a
4012323	RECOG_TARGET	n/a	LTP066	ltpFR	0	3	0	SOCIETY	1338	5	1	n/a	n/a	n/a	n/a	n/a
4013216	RECOG_RESP	n/a	LTP066	ltpFR	0	3	0	SOCIETY	1338	n/a	1	n/a	n/a	n/a	n/a	n/a
4014663	RECOG_CONF	n/a	LTP066	ltpFR	0	3	0	SOCIETY	1338	5	1	n/a	n/a	n/a	n/a	n/a
4016248	RECOG_TARGET	n/a	LTP066	ltpFR	0	3	-1	PIZZA	1079	5	-1	n/a	n/a	n/a	n/a	n/a
4017776	RECOG_RESP	n/a	LTP066	ltpFR	0	3	-1	PIZZA	1079	n/a	-1	n/a	n/a	n/a	n/a	n/a
4018738	RECOG_CONF	n/a	LTP066	ltpFR	0	3	-1	PIZZA	1079	5	-1	n/a	n/a	n/a	n/a	n/a
4020439	RECOG_LURE	n/a	LTP066	ltpFR	0	3	n/a	WAND	1586	5	n/a	n/a	n/a	n/a	n/a	n/a
4021443	RECOG_RESP	n/a	LTP066	ltpFR	0	3	n/a	WAND	1586	n/a	n/a	n/a	n/a	n/a	n/a	n/a
4022902	RECOG_CONF	n/a	LTP066	ltpFR	0	3	n/a	WAND	1586	5	n/a	n/a	n/a	n/a	n/a	n/a
4024264	RECOG_TARGET	n/a	LTP066	ltpFR	0	3	0	GRASSHOPPER	656	5	0	n/a	n/a	n/a	n/a	n/a
4025354	RECOG_RESP	n/a	LTP066	ltpFR	0	3	0	GRASSHOPPER	656	n/a	0	n/a	n/a	n/a	n/a	n/a
4026247	RECOG_CONF	n/a	LTP066	ltpFR	0	3	0	GRASSHOPPER	656	5	0	n/a	n/a	n/a	n/a	n/a
4027671	RECOG_TARGET	n/a	LTP066	ltpFR	0	3	0	HOME	712	5	1	n/a	n/a	n/a	n/a	n/a
4029005	RECOG_RESP	n/a	LTP066	ltpFR	0	3	0	HOME	712	n/a	1	n/a	n/a	n/a	n/a	n/a
4030372	RECOG_CONF	n/a	LTP066	ltpFR	0	3	0	HOME	712	5	1	n/a	n/a	n/a	n/a	n/a
4032171	RECOG_TARGET	n/a	LTP066	ltpFR	0	3	-1	COIN	343	5	-1	n/a	n/a	n/a	n/a	n/a
4033111	RECOG_RESP	n/a	LTP066	ltpFR	0	3	-1	COIN	343	n/a	-1	n/a	n/a	n/a	n/a	n/a
4034233	RECOG_CONF	n/a	LTP066	ltpFR	0	3	-1	COIN	343	5	-1	n/a	n/a	n/a	n/a	n/a
4035779	RECOG_TARGET	n/a	LTP066	ltpFR	0	3	1	REBEL	1172	5	1	n/a	n/a	n/a	n/a	n/a
4036548	RECOG_RESP	n/a	LTP066	ltpFR	0	3	1	REBEL	1172	n/a	1	n/a	n/a	n/a	n/a	n/a
4037775	RECOG_CONF	n/a	LTP066	ltpFR	0	3	1	REBEL	1172	5	1	n/a	n/a	n/a	n/a	n/a
4039703	RECOG_TARGET	n/a	LTP066	ltpFR	0	3	0	COLESLAW	344	5	0	n/a	n/a	n/a	n/a	n/a
4040554	RECOG_RESP	n/a	LTP066	ltpFR	0	3	0	COLESLAW	344	n/a	0	n/a	n/a	n/a	n/a	n/a
4041716	RECOG_CONF	n/a	LTP066	ltpFR	0	3	0	COLESLAW	344	5	0	n/a	n/a	n/a	n/a	n/a
4043337	RECOG_TARGET	n/a	LTP066	ltpFR	0	3	0	SINK	1309	5	1	n/a	n/a	n/a	n/a	n/a
4044136	RECOG_RESP	n/a	LTP066	ltpFR	0	3	0	SINK	1309	n/a	1	n/a	n/a	n/a	n/a	n/a
4045213	RECOG_CONF	n/a	LTP066	ltpFR	0	3	0	SINK	1309	5	1	n/a	n/a	n/a	n/a	n/a
4048154	RECOG_TARGET	n/a	LTP066	ltpFR	0	3	0	CIGARETTE	309	5	0	n/a	n/a	n/a	n/a	n/a
4049135	RECOG_RESP	n/a	LTP066	ltpFR	0	3	0	CIGARETTE	309	n/a	0	n/a	n/a	n/a	n/a	n/a
4050067	RECOG_CONF	n/a	LTP066	ltpFR	0	3	0	CIGARETTE	309	5	0	n/a	n/a	n/a	n/a	n/a
4051595	RECOG_LURE	n/a	LTP066	ltpFR	0	3	n/a	SHOE	1288	4	n/a	n/a	n/a	n/a	n/a	n/a
4052781	RECOG_RESP	n/a	LTP066	ltpFR	0	3	n/a	SHOE	1288	n/a	n/a	n/a	n/a	n/a	n/a	n/a
4053844	RECOG_CONF	n/a	LTP066	ltpFR	0	3	n/a	SHOE	1288	4	n/a	n/a	n/a	n/a	n/a	n/a
4055270	RECOG_LURE	n/a	LTP066	ltpFR	0	3	n/a	SHRIMP	1297	5	n/a	n/a	n/a	n/a	n/a	n/a
4056164	RECOG_RESP	n/a	LTP066	ltpFR	0	3	n/a	SHRIMP	1297	n/a	n/a	n/a	n/a	n/a	n/a	n/a
4057316	RECOG_CONF	n/a	LTP066	ltpFR	0	3	n/a	SHRIMP	1297	5	n/a	n/a	n/a	n/a	n/a	n/a
4058878	RECOG_LURE	n/a	LTP066	ltpFR	0	3	n/a	ORCHESTRA	981	5	n/a	n/a	n/a	n/a	n/a	n/a
4059970	RECOG_RESP	n/a	LTP066	ltpFR	0	3	n/a	ORCHESTRA	981	n/a	n/a	n/a	n/a	n/a	n/a	n/a
4061831	RECOG_CONF	n/a	LTP066	ltpFR	0	3	n/a	ORCHESTRA	981	5	n/a	n/a	n/a	n/a	n/a	n/a
4063186	RECOG_TARGET	n/a	LTP066	ltpFR	0	3	-1	GERM	632	5	-1	n/a	n/a	n/a	n/a	n/a
4064180	RECOG_RESP	n/a	LTP066	ltpFR	0	3	-1	GERM	632	n/a	-1	n/a	n/a	n/a	n/a	n/a
4065293	RECOG_CONF	n/a	LTP066	ltpFR	0	3	-1	GERM	632	5	-1	n/a	n/a	n/a	n/a	n/a
4066701	RECOG_TARGET	n/a	LTP066	ltpFR	0	3	-1	STATUE	1374	5	-1	n/a	n/a	n/a	n/a	n/a
4067378	RECOG_RESP	n/a	LTP066	ltpFR	0	3	-1	STATUE	1374	n/a	-1	n/a	n/a	n/a	n/a	n/a
4069174	RECOG_CONF	n/a	LTP066	ltpFR	0	3	-1	STATUE	1374	5	-1	n/a	n/a	n/a	n/a	n/a
4073557	REC_START	n/a	LTP066	ltpFR	0	4	n/a	n/a	n/a	n/a	n/a	n/a	n/a	n/a	n/a	n/a
4073585	RECOG_LURE	n/a	LTP066	ltpFR	0	4	n/a	SMOG	1330	5	n/a	n/a	n/a	n/a	n/a	n/a
4074570	RECOG_RESP	n/a	LTP066	ltpFR	0	4	n/a	SMOG	1330	n/a	n/a	n/a	n/a	n/a	n/a	n/a
4075332	RECOG_CONF	n/a	LTP066	ltpFR	0	4	n/a	SMOG	1330	5	n/a	n/a	n/a	n/a	n/a	n/a
4077060	RECOG_TARGET	n/a	LTP066	ltpFR	0	4	1	TIDE	1465	5	0	n/a	n/a	n/a	n/a	n/a
4077832	RECOG_RESP	n/a	LTP066	ltpFR	0	4	1	TIDE	1465	n/a	0	n/a	n/a	n/a	n/a	n/a
4078700	RECOG_CONF	n/a	LTP066	ltpFR	0	4	1	TIDE	1465	5	0	n/a	n/a	n/a	n/a	n/a
4080650	RECOG_LURE	n/a	LTP066	ltpFR	0	4	n/a	RACKET	1155	4	n/a	n/a	n/a	n/a	n/a	n/a
4081733	RECOG_RESP	n/a	LTP066	ltpFR	0	4	n/a	RACKET	1155	n/a	n/a	n/a	n/a	n/a	n/a	n/a
4082431	RECOG_CONF	n/a	LTP066	ltpFR	0	4	n/a	RACKET	1155	4	n/a	n/a	n/a	n/a	n/a	n/a
4084234	RECOG_TARGET	n/a	LTP066	ltpFR	0	4	-1	PIGMENT	1066	5	-1	n/a	n/a	n/a	n/a	n/a
4085814	RECOG_RESP	n/a	LTP066	ltpFR	0	4	-1	PIGMENT	1066	n/a	-1	n/a	n/a	n/a	n/a	n/a
4088253	RECOG_CONF	n/a	LTP066	ltpFR	0	4	-1	PIGMENT	1066	5	-1	n/a	n/a	n/a	n/a	n/a
4089601	RECOG_TARGET	n/a	LTP066	ltpFR	0	4	1	PUDDLE	1140	5	0	n/a	n/a	n/a	n/a	n/a
4090653	RECOG_RESP	n/a	LTP066	ltpFR	0	4	1	PUDDLE	1140	n/a	0	n/a	n/a	n/a	n/a	n/a
4092010	RECOG_CONF	n/a	LTP066	ltpFR	0	4	1	PUDDLE	1140	5	0	n/a	n/a	n/a	n/a	n/a
4093600	RECOG_TARGET	n/a	LTP066	ltpFR	0	4	0	VETERAN	1561	5	1	n/a	n/a	n/a	n/a	n/a
4094394	RECOG_RESP	n/a	LTP066	ltpFR	0	4	0	VETERAN	1561	n/a	1	n/a	n/a	n/a	n/a	n/a
4096106	RECOG_CONF	n/a	LTP066	ltpFR	0	4	0	VETERAN	1561	5	1	n/a	n/a	n/a	n/a	n/a
4097883	RECOG_TARGET	n/a	LTP066	ltpFR	0	4	-1	VAULT	1550	5	-1	n/a	n/a	n/a	n/a	n/a
4098620	RECOG_RESP	n/a	LTP066	ltpFR	0	4	-1	VAULT	1550	n/a	-1	n/a	n/a	n/a	n/a	n/a
4099757	RECOG_CONF	n/a	LTP066	ltpFR	0	4	-1	VAULT	1550	5	-1	n/a	n/a	n/a	n/a	n/a
4101358	RECOG_LURE	n/a	LTP066	ltpFR	0	4	n/a	WART	1590	5	n/a	n/a	n/a	n/a	n/a	n/a
4102306	RECOG_RESP	n/a	LTP066	ltpFR	0	4	n/a	WART	1590	n/a	n/a	n/a	n/a	n/a	n/a	n/a
4103244	RECOG_CONF	n/a	LTP066	ltpFR	0	4	n/a	WART	1590	5	n/a	n/a	n/a	n/a	n/a	n/a
4105158	RECOG_TARGET	n/a	LTP066	ltpFR	0	4	0	OCTOPUS	971	5	1	n/a	n/a	n/a	n/a	n/a
4105779	RECOG_RESP	n/a	LTP066	ltpFR	0	4	0	OCTOPUS	971	n/a	1	n/a	n/a	n/a	n/a	n/a
4107031	RECOG_CONF	n/a	LTP066	ltpFR	0	4	0	OCTOPUS	971	5	1	n/a	n/a	n/a	n/a	n/a
4108690	RECOG_TARGET	n/a	LTP066	ltpFR	0	4	0	HEATER	698	4	1	n/a	n/a	n/a	n/a	n/a
4111241	RECOG_RESP	n/a	LTP066	ltpFR	0	4	0	HEATER	698	n/a	1	n/a	n/a	n/a	n/a	n/a
4112204	RECOG_CONF	n/a	LTP066	ltpFR	0	4	0	HEATER	698	4	1	n/a	n/a	n/a	n/a	n/a
4113816	RECOG_TARGET	n/a	LTP066	ltpFR	0	4	1	NOVEL	960	5	0	n/a	n/a	n/a	n/a	n/a
4114623	RECOG_RESP	n/a	LTP066	ltpFR	0	4	1	NOVEL	960	n/a	0	n/a	n/a	n/a	n/a	n/a
4116329	RECOG_CONF	n/a	LTP066	ltpFR	0	4	1	NOVEL	960	5	0	n/a	n/a	n/a	n/a	n/a
4117974	RECOG_LURE	n/a	LTP066	ltpFR	0	4	n/a	LAUNDRY	803	4	n/a	n/a	n/a	n/a	n/a	n/a
4119018	RECOG_RESP	n/a	LTP066	ltpFR	0	4	n/a	LAUNDRY	803	n/a	n/a	n/a	n/a	n/a	n/a	n/a
4120609	RECOG_CONF	n/a	LTP066	ltpFR	0	4	n/a	LAUNDRY	803	4	n/a	n/a	n/a	n/a	n/a	n/a
4122457	RECOG_LURE	n/a	LTP066	ltpFR	0	4	n/a	SUBWAY	1400	5	n/a	n/a	n/a	n/a	n/a	n/a
4123354	RECOG_RESP	n/a	LTP066	ltpFR	0	4	n/a	SUBWAY	1400	n/a	n/a	n/a	n/a	n/a	n/a	n/a
4124386	RECOG_CONF	n/a	LTP066	ltpFR	0	4	n/a	SUBWAY	1400	5	n/a	n/a	n/a	n/a	n/a	n/a
4126165	RECOG_TARGET	n/a	LTP066	ltpFR	0	4	0	PLUMBER	1091	5	1	n/a	n/a	n/a	n/a	n/a
4126831	RECOG_RESP	n/a	LTP066	ltpFR	0	4	0	PLUMBER	1091	n/a	1	n/a	n/a	n/a	n/a	n/a
4127881	RECOG_CONF	n/a	LTP066	ltpFR	0	4	0	PLUMBER	1091	5	1	n/a	n/a	n/a	n/a	n/a
4129814	RECOG_TARGET	n/a	LTP066	ltpFR	0	4	0	STEAM	1375	5	1	n/a	n/a	n/a	n/a	n/a
4130428	RECOG_RESP	n/a	LTP066	ltpFR	0	4	0	STEAM	1375	n/a	1	n/a	n/a	n/a	n/a	n/a
4132134	RECOG_CONF	n/a	LTP066	ltpFR	0	4	0	STEAM	1375	5	1	n/a	n/a	n/a	n/a	n/a
4133771	RECOG_LURE	n/a	LTP066	ltpFR	0	4	n/a	CHEERLEADER	288	4	n/a	n/a	n/a	n/a	n/a	n/a
4134673	RECOG_RESP	n/a	LTP066	ltpFR	0	4	n/a	CHEERLEADER	288	n/a	n/a	n/a	n/a	n/a	n/a	n/a
4136055	RECOG_CONF	n/a	LTP066	ltpFR	0	4	n/a	CHEERLEADER	288	4	n/a	n/a	n/a	n/a	n/a	n/a
4137855	RECOG_TARGET	n/a	LTP066	ltpFR	0	4	0	PIN	1072	5	0	n/a	n/a	n/a	n/a	n/a
4138424	RECOG_RESP	n/a	LTP066	ltpFR	0	4	0	PIN	1072	n/a	0	n/a	n/a	n/a	n/a	n/a
4139489	RECOG_CONF	n/a	LTP066	ltpFR	0	4	0	PIN	1072	5	0	n/a	n/a	n/a	n/a	n/a
4140464	RECOG_TARGET	n/a	LTP066	ltpFR	0	4	0	KEG	770	5	0	n/a	n/a	n/a	n/a	n/a
4142231	RECOG_RESP	n/a	LTP066	ltpFR	0	4	0	KEG	770	n/a	0	n/a	n/a	n/a	n/a	n/a
4143253	RECOG_CONF	n/a	LTP066	ltpFR	0	4	0	KEG	770	5	0	n/a	n/a	n/a	n/a	n/a
4144863	RECOG_TARGET	n/a	LTP066	ltpFR	0	4	0	BIBLE	124	5	0	n/a	n/a	n/a	n/a	n/a
4145553	RECOG_RESP	n/a	LTP066	ltpFR	0	4	0	BIBLE	124	n/a	0	n/a	n/a	n/a	n/a	n/a
4147369	RECOG_CONF	n/a	LTP066	ltpFR	0	4	0	BIBLE	124	5	0	n/a	n/a	n/a	n/a	n/a
4148871	RECOG_LURE	n/a	LTP066	ltpFR	0	4	n/a	PEBBLE	1035	5	n/a	n/a	n/a	n/a	n/a	n/a
4149799	RECOG_RESP	n/a	LTP066	ltpFR	0	4	n/a	PEBBLE	1035	n/a	n/a	n/a	n/a	n/a	n/a	n/a
4150886	RECOG_CONF	n/a	LTP066	ltpFR	0	4	n/a	PEBBLE	1035	5	n/a	n/a	n/a	n/a	n/a	n/a
4155053	REC_START	n/a	LTP066	ltpFR	0	5	n/a	n/a	n/a	n/a	n/a	n/a	n/a	n/a	n/a	n/a
4155087	RECOG_TARGET	n/a	LTP066	ltpFR	0	5	1	SCREEN	1253	5	0	n/a	n/a	n/a	n/a	n/a
4155876	RECOG_RESP	n/a	LTP066	ltpFR	0	5	1	SCREEN	1253	n/a	0	n/a	n/a	n/a	n/a	n/a
4156978	RECOG_CONF	n/a	LTP066	ltpFR	0	5	1	SCREEN	1253	5	0	n/a	n/a	n/a	n/a	n/a
4158686	RECOG_LURE	n/a	LTP066	ltpFR	0	5	n/a	BEEF	113	5	n/a	n/a	n/a	n/a	n/a	n/a
4159473	RECOG_RESP	n/a	LTP066	ltpFR	0	5	n/a	BEEF	113	n/a	n/a	n/a	n/a	n/a	n/a	n/a
4160445	RECOG_CONF	n/a	LTP066	ltpFR	0	5	n/a	BEEF	113	5	n/a	n/a	n/a	n/a	n/a	n/a
4162237	RECOG_TARGET	n/a	LTP066	ltpFR	0	5	-1	NOTEBOOK	959	5	-1	n/a	n/a	n/a	n/a	n/a
4162910	RECOG_RESP	n/a	LTP066	ltpFR	0	5	-1	NOTEBOOK	959	n/a	-1	n/a	n/a	n/a	n/a	n/a
4163897	RECOG_CONF	n/a	LTP066	ltpFR	0	5	-1	NOTEBOOK	959	5	-1	n/a	n/a	n/a	n/a	n/a
4165495	RECOG_TARGET	n/a	LTP066	ltpFR	0	5	1	BRACELET	163	4	0	n/a	n/a	n/a	n/a	n/a
4166133	RECOG_RESP	n/a	LTP066	ltpFR	0	5	1	BRACELET	163	n/a	0	n/a	n/a	n/a	n/a	n/a
4167913	RECOG_CONF	n/a	LTP066	ltpFR	0	5	1	BRACELET	163	4	0	n/a	n/a	n/a	n/a	n/a
4169635	RECOG_LURE	n/a	LTP066	ltpFR	0	5	n/a	NET	946	5	n/a	n/a	n/a	n/a	n/a	n/a
4170538	RECOG_RESP	n/a	LTP066	ltpFR	0	5	n/a	NET	946	n/a	n/a	n/a	n/a	n/a	n/a	n/a
4171770	RECOG_CONF	n/a	LTP066	ltpFR	0	5	n/a	NET	946	5	n/a	n/a	n/a	n/a	n/a	n/a
4173336	RECOG_TARGET	n/a	LTP066	ltpFR	0	5	1	SUSPECT	1415	4	1	n/a	n/a	n/a	n/a	n/a
4174718	RECOG_RESP	n/a	LTP066	ltpFR	0	5	1	SUSPECT	1415	n/a	1	n/a	n/a	n/a	n/a	n/a
4176239	RECOG_CONF	n/a	LTP066	ltpFR	0	5	1	SUSPECT	1415	4	1	n/a	n/a	n/a	n/a	n/a
4178011	RECOG_TARGET	n/a	LTP066	ltpFR	0	5	0	VIOLA	1570	5	0	n/a	n/a	n/a	n/a	n/a
4178754	RECOG_RESP	n/a	LTP066	ltpFR	0	5	0	VIOLA	1570	n/a	0	n/a	n/a	n/a	n/a	n/a
4180270	RECOG_CONF	n/a	LTP066	ltpFR	0	5	0	VIOLA	1570	5	0	n/a	n/a	n/a	n/a	n/a
4181986	RECOG_TARGET	n/a	LTP066	ltpFR	0	5	1	INMATE	738	5	1	n/a	n/a	n/a	n/a	n/a
4182675	RECOG_RESP	n/a	LTP066	ltpFR	0	5	1	INMATE	738	n/a	1	n/a	n/a	n/a	n/a	n/a
4183677	RECOG_CONF	n/a	LTP066	ltpFR	0	5	1	INMATE	738	5	1	n/a	n/a	n/a	n/a	n/a
4185227	RECOG_LURE	n/a	LTP066	ltpFR	0	5	n/a	PROTON	1132	5	n/a	n/a	n/a	n/a	n/a	n/a
4186401	RECOG_RESP	n/a	LTP066	ltpFR	0	5	n/a	PROTON	1132	n/a	n/a	n/a	n/a	n/a	n/a	n/a
4187324	RECOG_CONF	n/a	LTP066	ltpFR	0	5	n/a	PROTON	1132	5	n/a	n/a	n/a	n/a	n/a	n/a
4189418	RECOG_LURE	n/a	LTP066	ltpFR	0	5	n/a	CHEEK	287	5	n/a	n/a	n/a	n/a	n/a	n/a
4190308	RECOG_RESP	n/a	LTP066	ltpFR	0	5	n/a	CHEEK	287	n/a	n/a	n/a	n/a	n/a	n/a	n/a
4191250	RECOG_CONF	n/a	LTP066	ltpFR	0	5	n/a	CHEEK	287	5	n/a	n/a	n/a	n/a	n/a	n/a
4192860	RECOG_TARGET	n/a	LTP066	ltpFR	0	5	0	BISON	131	5	1	n/a	n/a	n/a	n/a	n/a
4193615	RECOG_RESP	n/a	LTP066	ltpFR	0	5	0	BISON	131	n/a	1	n/a	n/a	n/a	n/a	n/a
4194553	RECOG_CONF	n/a	LTP066	ltpFR	0	5	0	BISON	131	5	1	n/a	n/a	n/a	n/a	n/a
4196218	RECOG_LURE	n/a	LTP066	ltpFR	0	5	n/a	VEGETABLE	1552	5	n/a	n/a	n/a	n/a	n/a	n/a
4197172	RECOG_RESP	n/a	LTP066	ltpFR	0	5	n/a	VEGETABLE	1552	n/a	n/a	n/a	n/a	n/a	n/a	n/a
4198110	RECOG_CONF	n/a	LTP066	ltpFR	0	5	n/a	VEGETABLE	1552	5	n/a	n/a	n/a	n/a	n/a	n/a
4199633	RECOG_LURE	n/a	LTP066	ltpFR	0	5	n/a	SOLDIER	1344	4	n/a	n/a	n/a	n/a	n/a	n/a
4200809	RECOG_RESP	n/a	LTP066	ltpFR	0	5	n/a	SOLDIER	1344	n/a	n/a	n/a	n/a	n/a	n/a	n/a
4202674	RECOG_CONF	n/a	LTP066	ltpFR	0	5	n/a	SOLDIER	1344	4	n/a	n/a	n/a	n/a	n/a	n/a
4204234	RECOG_LURE	n/a	LTP066	ltpFR	0	5	n/a	FIELD	562	5	n/a	n/a	n/a	n/a	n/a	n/a
4205294	RECOG_RESP	n/a	LTP066	ltpFR	0	5	n/a	FIELD	562	n/a	n/a	n/a	n/a	n/a	n/a	n/a
4206226	RECOG_CONF	n/a	LTP066	ltpFR	0	5	n/a	FIELD	562	5	n/a	n/a	n/a	n/a	n/a	n/a
4207708	RECOG_TARGET	n/a	LTP066	ltpFR	0	5	1	LIMB	822	5	1	n/a	n/a	n/a	n/a	n/a
4208511	RECOG_RESP	n/a	LTP066	ltpFR	0	5	1	LIMB	822	n/a	1	n/a	n/a	n/a	n/a	n/a
4209978	RECOG_CONF	n/a	LTP066	ltpFR	0	5	1	LIMB	822	5	1	n/a	n/a	n/a	n/a	n/a
4211867	RECOG_TARGET	n/a	LTP066	ltpFR	0	5	0	TANK	1432	4	1	n/a	n/a	n/a	n/a	n/a
4212896	RECOG_RESP	n/a	LTP066	ltpFR	0	5	0	TANK	1432	n/a	1	n/a	n/a	n/a	n/a	n/a
4215081	RECOG_CONF	n/a	LTP066	ltpFR	0	5	0	TANK	1432	4	1	n/a	n/a	n/a	n/a	n/a
4217300	RECOG_LURE	n/a	LTP066	ltpFR	0	5	n/a	SIGN	1305	5	n/a	n/a	n/a	n/a	n/a	n/a
4218484	RECOG_RESP	n/a	LTP066	ltpFR	0	5	n/a	SIGN	1305	n/a	n/a	n/a	n/a	n/a	n/a	n/a
4219854	RECOG_CONF	n/a	LTP066	ltpFR	0	5	n/a	SIGN	1305	5	n/a	n/a	n/a	n/a	n/a	n/a
4222124	RECOG_TARGET	n/a	LTP066	ltpFR	0	5	-1	HEDGE	699	5	-1	n/a	n/a	n/a	n/a	n/a
4222879	RECOG_RESP	n/a	LTP066	ltpFR	0	5	-1	HEDGE	699	n/a	-1	n/a	n/a	n/a	n/a	n/a
4224061	RECOG_CONF	n/a	LTP066	ltpFR	0	5	-1	HEDGE	699	5	-1	n/a	n/a	n/a	n/a	n/a
4225656	RECOG_LURE	n/a	LTP066	ltpFR	0	5	n/a	ELEVATOR	524	5	n/a	n/a	n/a	n/a	n/a	n/a
4226450	RECOG_RESP	n/a	LTP066	ltpFR	0	5	n/a	ELEVATOR	524	n/a	n/a	n/a	n/a	n/a	n/a	n/a
4227458	RECOG_CONF	n/a	LTP066	ltpFR	0	5	n/a	ELEVATOR	524	5	n/a	n/a	n/a	n/a	n/a	n/a
4229349	RECOG_LURE	n/a	LTP066	ltpFR	0	5	n/a	PORT	1110	4	n/a	n/a	n/a	n/a	n/a	n/a
4230137	RECOG_RESP	n/a	LTP066	ltpFR	0	5	n/a	PORT	1110	n/a	n/a	n/a	n/a	n/a	n/a	n/a
4231868	RECOG_CONF	n/a	LTP066	ltpFR	0	5	n/a	PORT	1110	4	n/a	n/a	n/a	n/a	n/a	n/a
4236773	REC_START	n/a	LTP066	ltpFR	0	6	n/a	n/a	n/a	n/a	n/a	n/a	n/a	n/a	n/a	n/a
4236807	RECOG_TARGET	n/a	LTP066	ltpFR	0	6	1	UMBRELLA	1534	5	0	n/a	n/a	n/a	n/a	n/a
4237491	RECOG_RESP	n/a	LTP066	ltpFR	0	6	1	UMBRELLA	1534	n/a	0	n/a	n/a	n/a	n/a	n/a
4238599	RECOG_CONF	n/a	LTP066	ltpFR	0	6	1	UMBRELLA	1534	5	0	n/a	n/a	n/a	n/a	n/a
4240273	RECOG_LURE	n/a	LTP066	ltpFR	0	6	n/a	STAFF	1365	5	n/a	n/a	n/a	n/a	n/a	n/a
4241297	RECOG_RESP	n/a	LTP066	ltpFR	0	6	n/a	STAFF	1365	n/a	n/a	n/a	n/a	n/a	n/a	n/a
4242125	RECOG_CONF	n/a	LTP066	ltpFR	0	6	n/a	STAFF	1365	5	n/a	n/a	n/a	n/a	n/a	n/a
4244339	RECOG_TARGET	n/a	LTP066	ltpFR	0	6	-1	BANQUET	86	5	-1	n/a	n/a	n/a	n/a	n/a
4244924	RECOG_RESP	n/a	LTP066	ltpFR	0	6	-1	BANQUET	86	n/a	-1	n/a	n/a	n/a	n/a	n/a
4245712	RECOG_CONF	n/a	LTP066	ltpFR	0	6	-1	BANQUET	86	5	-1	n/a	n/a	n/a	n/a	n/a
4247372	RECOG_LURE	n/a	LTP066	ltpFR	0	6	n/a	TURNIP	1521	5	n/a	n/a	n/a	n/a	n/a	n/a
4248172	RECOG_RESP	n/a	LTP066	ltpFR	0	6	n/a	TURNIP	1521	n/a	n/a	n/a	n/a	n/a	n/a	n/a
4249114	RECOG_CONF	n/a	LTP066	ltpFR	0	6	n/a	TURNIP	1521	5	n/a	n/a	n/a	n/a	n/a	n/a
4250755	RECOG_TARGET	n/a	LTP066	ltpFR	0	6	0	BEET	115	5	0	n/a	n/a	n/a	n/a	n/a
4251594	RECOG_RESP	n/a	LTP066	ltpFR	0	6	0	BEET	115	n/a	0	n/a	n/a	n/a	n/a	n/a
4252561	RECOG_CONF	n/a	LTP066	ltpFR	0	6	0	BEET	115	5	0	n/a	n/a	n/a	n/a	n/a
4254297	RECOG_TARGET	n/a	LTP066	ltpFR	0	6	1	OTTER	986	5	1	n/a	n/a	n/a	n/a	n/a
4255041	RECOG_RESP	n/a	LTP066	ltpFR	0	6	1	OTTER	986	n/a	1	n/a	n/a	n/a	n/a	n/a
4256707	RECOG_CONF	n/a	LTP066	ltpFR	0	6	1	OTTER	986	5	1	n/a	n/a	n/a	n/a	n/a
4258280	RECOG_LURE	n/a	LTP066	ltpFR	0	6	n/a	CHIEF	298	5	n/a	n/a	n/a	n/a	n/a	n/a
4259227	RECOG_RESP	n/a	LTP066	ltpFR	0	6	n/a	CHIEF	298	n/a	n/a	n/a	n/a	n/a	n/a	n/a
4260099	RECOG_CONF	n/a	LTP066	ltpFR	0	6	n/a	CHIEF	298	5	n/a	n/a	n/a	n/a	n/a	n/a
4261963	RECOG_TARGET	n/a	LTP066	ltpFR	0	6	0	DONOR	485	5	1	n/a	n/a	n/a	n/a	n/a
4262639	RECOG_RESP	n/a	LTP066	ltpFR	0	6	0	DONOR	485	n/a	1	n/a	n/a	n/a	n/a	n/a
4264080	RECOG_CONF	n/a	LTP066	ltpFR	0	6	0	DONOR	485	5	1	n/a	n/a	n/a	n/a	n/a
4266171	RECOG_TARGET	n/a	LTP066	ltpFR	0	6	-1	TIMBER	1469	5	-1	n/a	n/a	n/a	n/a	n/a
4266949	RECOG_RESP	n/a	LTP066	ltpFR	0	6	-1	TIMBER	1469	n/a	-1	n/a	n/a	n/a	n/a	n/a
4267887	RECOG_CONF	n/a	LTP066	ltpFR	0	6	-1	TIMBER	1469	5	-1	n/a	n/a	n/a	n/a	n/a
4269554	RECOG_TARGET	n/a	LTP066	ltpFR	0	6	1	SILVERWARE	1308	5	0	n/a	n/a	n/a	n/a	n/a
4270342	RECOG_RESP	n/a	LTP066	ltpFR	0	6	1	SILVERWARE	1308	n/a	0	n/a	n/a	n/a	n/a	n/a
4271394	RECOG_CONF	n/a	LTP066	ltpFR	0	6	1	SILVERWARE	1308	5	0	n/a	n/a	n/a	n/a	n/a
4273029	RECOG_TARGET	n/a	LTP066	ltpFR	0	6	0	FLOOR	581	5	1	n/a	n/a	n/a	n/a	n/a
4273644	RECOG_RESP	n/a	LTP066	ltpFR	0	6	0	FLOOR	581	n/a	1	n/a	n/a	n/a	n/a	n/a
4275224	RECOG_CONF	n/a	LTP066	ltpFR	0	6	0	FLOOR	581	5	1	n/a	n/a	n/a	n/a	n/a
4276920	RECOG_TARGET	n/a	LTP066	ltpFR	0	6	0	CANVAS	234	5	1	n/a	n/a	n/a	n/a	n/a
4277730	RECOG_RESP	n/a	LTP066	ltpFR	0	6	0	CANVAS	234	n/a	1	n/a	n/a	n/a	n/a	n/a
4278802	RECOG_CONF	n/a	LTP066	ltpFR	0	6	0	CANVAS	234	5	1	n/a	n/a	n/a	n/a	n/a
4280727	RECOG_TARGET	n/a	LTP066	ltpFR	0	6	-1	FIREPLACE	570	5	-1	n/a	n/a	n/a	n/a	n/a
4282070	RECOG_RESP	n/a	LTP066	ltpFR	0	6	-1	FIREPLACE	570	n/a	-1	n/a	n/a	n/a	n/a	n/a
4283277	RECOG_CONF	n/a	LTP066	ltpFR	0	6	-1	FIREPLACE	570	5	-1	n/a	n/a	n/a	n/a	n/a
4284928	RECOG_LURE	n/a	LTP066	ltpFR	0	6	n/a	ARENA	37	5	n/a	n/a	n/a	n/a	n/a	n/a
4285916	RECOG_RESP	n/a	LTP066	ltpFR	0	6	n/a	ARENA	37	n/a	n/a	n/a	n/a	n/a	n/a	n/a
4286839	RECOG_CONF	n/a	LTP066	ltpFR	0	6	n/a	ARENA	37	5	n/a	n/a	n/a	n/a	n/a	n/a
4288768	RECOG_TARGET	n/a	LTP066	ltpFR	0	6	0	WHEAT	1602	5	1	n/a	n/a	n/a	n/a	n/a
4289648	RECOG_RESP	n/a	LTP066	ltpFR	0	6	0	WHEAT	1602	n/a	1	n/a	n/a	n/a	n/a	n/a
4290570	RECOG_CONF	n/a	LTP066	ltpFR	0	6	0	WHEAT	1602	5	1	n/a	n/a	n/a	n/a	n/a
4292153	RECOG_TARGET	n/a	LTP066	ltpFR	0	6	0	JAM	748	4	0	n/a	n/a	n/a	n/a	n/a
4293429	RECOG_RESP	n/a	LTP066	ltpFR	0	6	0	JAM	748	n/a	0	n/a	n/a	n/a	n/a	n/a
4294631	RECOG_CONF	n/a	LTP066	ltpFR	0	6	0	JAM	748	4	0	n/a	n/a	n/a	n/a	n/a
4296294	RECOG_LURE	n/a	LTP066	ltpFR	0	6	n/a	PLAQUE	1084	4	n/a	n/a	n/a	n/a	n/a	n/a
4297709	RECOG_RESP	n/a	LTP066	ltpFR	0	6	n/a	PLAQUE	1084	n/a	n/a	n/a	n/a	n/a	n/a	n/a
4298867	RECOG_CONF	n/a	LTP066	ltpFR	0	6	n/a	PLAQUE	1084	4	n/a	n/a	n/a	n/a	n/a	n/a
4300419	RECOG_TARGET	n/a	LTP066	ltpFR	0	6	-1	TYPIST	1532	5	-1	n/a	n/a	n/a	n/a	n/a
4301152	RECOG_RESP	n/a	LTP066	ltpFR	0	6	-1	TYPIST	1532	n/a	-1	n/a	n/a	n/a	n/a	n/a
4302378	RECOG_CONF	n/a	LTP066	ltpFR	0	6	-1	TYPIST	1532	5	-1	n/a	n/a	n/a	n/a	n/a
4303968	RECOG_TARGET	n/a	LTP066	ltpFR	0	6	1	SCROLL	1257	5	0	n/a	n/a	n/a	n/a	n/a
4304659	RECOG_RESP	n/a	LTP066	ltpFR	0	6	1	SCROLL	1257	n/a	0	n/a	n/a	n/a	n/a	n/a
4305674	RECOG_CONF	n/a	LTP066	ltpFR	0	6	1	SCROLL	1257	5	0	n/a	n/a	n/a	n/a	n/a
4307243	RECOG_TARGET	n/a	LTP066	ltpFR	0	6	1	VAMPIRE	1547	5	1	n/a	n/a	n/a	n/a	n/a
4308011	RECOG_RESP	n/a	LTP066	ltpFR	0	6	1	VAMPIRE	1547	n/a	1	n/a	n/a	n/a	n/a	n/a
4309627	RECOG_CONF	n/a	LTP066	ltpFR	0	6	1	VAMPIRE	1547	5	1	n/a	n/a	n/a	n/a	n/a
4313526	REC_START	n/a	LTP066	ltpFR	0	7	n/a	n/a	n/a	n/a	n/a	n/a	n/a	n/a	n/a	n/a
4313559	RECOG_TARGET	n/a	LTP066	ltpFR	0	7	1	ICEBERG	731	5	0	n/a	n/a	n/a	n/a	n/a
4314314	RECOG_RESP	n/a	LTP066	ltpFR	0	7	1	ICEBERG	731	n/a	0	n/a	n/a	n/a	n/a	n/a
4315197	RECOG_CONF	n/a	LTP066	ltpFR	0	7	1	ICEBERG	731	5	0	n/a	n/a	n/a	n/a	n/a
4316793	RECOG_TARGET	n/a	LTP066	ltpFR	0	7	-1	CLOTHES	327	5	-1	n/a	n/a	n/a	n/a	n/a
4317307	RECOG_RESP	n/a	LTP066	ltpFR	0	7	-1	CLOTHES	327	n/a	-1	n/a	n/a	n/a	n/a	n/a
4318260	RECOG_CONF	n/a	LTP066	ltpFR	0	7	-1	CLOTHES	327	5	-1	n/a	n/a	n/a	n/a	n/a
4319725	RECOG_TARGET	n/a	LTP066	ltpFR	0	7	0	CITY	314	5	1	n/a	n/a	n/a	n/a	n/a
4320315	RECOG_RESP	n/a	LTP066	ltpFR	0	7	0	CITY	314	n/a	1	n/a	n/a	n/a	n/a	n/a
4321642	RECOG_CONF	n/a	LTP066	ltpFR	0	7	0	CITY	314	5	1	n/a	n/a	n/a	n/a	n/a
4322834	RECOG_TARGET	n/a	LTP066	ltpFR	0	7	-1	SAPPHIRE	1234	4	-1	n/a	n/a	n/a	n/a	n/a
4323969	RECOG_RESP	n/a	LTP066	ltpFR	0	7	-1	SAPPHIRE	1234	n/a	-1	n/a	n/a	n/a	n/a	n/a
4325094	RECOG_CONF	n/a	LTP066	ltpFR	0	7	-1	SAPPHIRE	1234	4	-1	n/a	n/a	n/a	n/a	n/a
4326691	RECOG_TARGET	n/a	LTP066	ltpFR	0	7	0	CACTUS	215	5	1	n/a	n/a	n/a	n/a	n/a
4327329	RECOG_RESP	n/a	LTP066	ltpFR	0	7	0	CACTUS	215	n/a	1	n/a	n/a	n/a	n/a	n/a
4328147	RECOG_CONF	n/a	LTP066	ltpFR	0	7	0	CACTUS	215	5	1	n/a	n/a	n/a	n/a	n/a
4329740	RECOG_LURE	n/a	LTP066	ltpFR	0	7	n/a	RULER	1216	4	n/a	n/a	n/a	n/a	n/a	n/a
4330637	RECOG_RESP	n/a	LTP066	ltpFR	0	7	n/a	RULER	1216	n/a	n/a	n/a	n/a	n/a	n/a	n/a
4331505	RECOG_CONF	n/a	LTP066	ltpFR	0	7	n/a	RULER	1216	4	n/a	n/a	n/a	n/a	n/a	n/a
4333100	RECOG_LURE	n/a	LTP066	ltpFR	0	7	n/a	WIFE	1609	5	n/a	n/a	n/a	n/a	n/a	n/a
4334269	RECOG_RESP	n/a	LTP066	ltpFR	0	7	n/a	WIFE	1609	n/a	n/a	n/a	n/a	n/a	n/a	n/a
4335296	RECOG_CONF	n/a	LTP066	ltpFR	0	7	n/a	WIFE	1609	5	n/a	n/a	n/a	n/a	n/a	n/a
4336908	RECOG_TARGET	n/a	LTP066	ltpFR	0	7	1	RAZOR	1171	5	0	n/a	n/a	n/a	n/a	n/a
4337781	RECOG_RESP	n/a	LTP066	ltpFR	0	7	1	RAZOR	1171	n/a	0	n/a	n/a	n/a	n/a	n/a
4338738	RECOG_CONF	n/a	LTP066	ltpFR	0	7	1	RAZOR	1171	5	0	n/a	n/a	n/a	n/a	n/a
4340391	RECOG_TARGET	n/a	LTP066	ltpFR	0	7	-1	DICE	461	4	-1	n/a	n/a	n/a	n/a	n/a
4340993	RECOG_RESP	n/a	LTP066	ltpFR	0	7	-1	DICE	461	n/a	-1	n/a	n/a	n/a	n/a	n/a
4342026	RECOG_CONF	n/a	LTP066	ltpFR	0	7	-1	DICE	461	4	-1	n/a	n/a	n/a	n/a	n/a
4343599	RECOG_LURE	n/a	LTP066	ltpFR	0	7	n/a	ROSE	1212	4	n/a	n/a	n/a	n/a	n/a	n/a
4344241	RECOG_RESP	n/a	LTP066	ltpFR	0	7	n/a	ROSE	1212	n/a	n/a	n/a	n/a	n/a	n/a	n/a
4345429	RECOG_CONF	n/a	LTP066	ltpFR	0	7	n/a	ROSE	1212	4	n/a	n/a	n/a	n/a	n/a	n/a
4347124	RECOG_TARGET	n/a	LTP066	ltpFR	0	7	1	CREATURE	403	5	1	n/a	n/a	n/a	n/a	n/a
4347873	RECOG_RESP	n/a	LTP066	ltpFR	0	7	1	CREATURE	403	n/a	1	n/a	n/a	n/a	n/a	n/a
4349150	RECOG_CONF	n/a	LTP066	ltpFR	0	7	1	CREATURE	403	5	1	n/a	n/a	n/a	n/a	n/a
4350865	RECOG_LURE	n/a	LTP066	ltpFR	0	7	n/a	DART	440	4	n/a	n/a	n/a	n/a	n/a	n/a
4351948	RECOG_RESP	n/a	LTP066	ltpFR	0	7	n/a	DART	440	n/a	n/a	n/a	n/a	n/a	n/a	n/a
4353275	RECOG_CONF	n/a	LTP066	ltpFR	0	7	n/a	DART	440	4	n/a	n/a	n/a	n/a	n/a	n/a
4354840	RECOG_TARGET	n/a	LTP066	ltpFR	0	7	1	COLLEGE	346	5	0	n/a	n/a	n/a	n/a	n/a
4355445	RECOG_RESP	n/a	LTP066	ltpFR	0	7	1	COLLEGE	346	n/a	0	n/a	n/a	n/a	n/a	n/a
4356458	RECOG_CONF	n/a	LTP066	ltpFR	0	7	1	COLLEGE	346	5	0	n/a	n/a	n/a	n/a	n/a
4358106	RECOG_TARGET	n/a	LTP066	ltpFR	0	7	-1	PAINT	1003	5	-1	n/a	n/a	n/a	n/a	n/a
4358828	RECOG_RESP	n/a	LTP066	ltpFR	0	7	-1	PAINT	1003	n/a	-1	n/a	n/a	n/a	n/a	n/a
4359765	RECOG_CONF	n/a	LTP066	ltpFR	0	7	-1	PAINT	1003	5	-1	n/a	n/a	n/a	n/a	n/a
4361347	RECOG_LURE	n/a	LTP066	ltpFR	0	7	n/a	PAIL	1002	4	n/a	n/a	n/a	n/a	n/a	n/a
4362295	RECOG_RESP_VV	n/a	LTP066	ltpFR	0	7	n/a	PAIL	1002	n/a	n/a	n/a	n/a	n/a	n/a	n/a
4362829	RECOG_RESP	n/a	LTP066	ltpFR	0	7	n/a	PAIL	1002	n/a	n/a	n/a	n/a	n/a	n/a	n/a
4364121	RECOG_CONF	n/a	LTP066	ltpFR	0	7	n/a	PAIL	1002	4	n/a	n/a	n/a	n/a	n/a	n/a
4365713	RECOG_LURE	n/a	LTP066	ltpFR	0	7	n/a	SURF	1412	5	n/a	n/a	n/a	n/a	n/a	n/a
4366455	RECOG_RESP	n/a	LTP066	ltpFR	0	7	n/a	SURF	1412	n/a	n/a	n/a	n/a	n/a	n/a	n/a
4367363	RECOG_CONF	n/a	LTP066	ltpFR	0	7	n/a	SURF	1412	5	n/a	n/a	n/a	n/a	n/a	n/a
4369064	RECOG_TARGET	n/a	LTP066	ltpFR	0	7	0	CHIP	303	5	0	n/a	n/a	n/a	n/a	n/a
4369683	RECOG_RESP	n/a	LTP066	ltpFR	0	7	0	CHIP	303	n/a	0	n/a	n/a	n/a	n/a	n/a
4370641	RECOG_CONF	n/a	LTP066	ltpFR	0	7	0	CHIP	303	5	0	n/a	n/a	n/a	n/a	n/a
4372172	RECOG_TARGET	n/a	LTP066	ltpFR	0	7	-1	CUSTARD	429	5	-1	n/a	n/a	n/a	n/a	n/a
4373160	RECOG_RESP	n/a	LTP066	ltpFR	0	7	-1	CUSTARD	429	n/a	-1	n/a	n/a	n/a	n/a	n/a
4374093	RECOG_CONF	n/a	LTP066	ltpFR	0	7	-1	CUSTARD	429	5	-1	n/a	n/a	n/a	n/a	n/a
4375946	RECOG_LURE	n/a	LTP066	ltpFR	0	7	n/a	CHART	282	5	n/a	n/a	n/a	n/a	n/a	n/a
4376478	RECOG_RESP	n/a	LTP066	ltpFR	0	7	n/a	CHART	282	n/a	n/a	n/a	n/a	n/a	n/a	n/a
4378433	RECOG_CONF	n/a	LTP066	ltpFR	0	7	n/a	CHART	282	5	n/a	n/a	n/a	n/a	n/a	n/a
4380329	RECOG_TARGET	n/a	LTP066	ltpFR	0	7	0	BEAST	108	5	1	n/a	n/a	n/a	n/a	n/a
4381102	RECOG_RESP	n/a	LTP066	ltpFR	0	7	0	BEAST	108	n/a	1	n/a	n/a	n/a	n/a	n/a
4382863	RECOG_CONF	n/a	LTP066	ltpFR	0	7	0	BEAST	108	5	1	n/a	n/a	n/a	n/a	n/a
4386302	REC_START	n/a	LTP066	ltpFR	0	8	n/a	n/a	n/a	n/a	n/a	n/a	n/a	n/a	n/a	n/a
4386329	RECOG_TARGET	n/a	LTP066	ltpFR	0	8	1	DIME	466	5	0	n/a	n/a	n/a	n/a	n/a
4387270	RECOG_RESP	n/a	LTP066	ltpFR	0	8	1	DIME	466	n/a	0	n/a	n/a	n/a	n/a	n/a
4388325	RECOG_CONF	n/a	LTP066	ltpFR	0	8	1	DIME	466	5	0	n/a	n/a	n/a	n/a	n/a
4389736	RECOG_LURE	n/a	LTP066	ltpFR	0	8	n/a	HERO	706	4	n/a	n/a	n/a	n/a	n/a	n/a
4390617	RECOG_RESP	n/a	LTP066	ltpFR	0	8	n/a	HERO	706	n/a	n/a	n/a	n/a	n/a	n/a	n/a
4392013	RECOG_CONF	n/a	LTP066	ltpFR	0	8	n/a	HERO	706	4	n/a	n/a	n/a	n/a	n/a	n/a
4394062	RECOG_TARGET	n/a	LTP066	ltpFR	0	8	0	ROBIN	1199	5	0	n/a	n/a	n/a	n/a	n/a
4394788	RECOG_RESP	n/a	LTP066	ltpFR	0	8	0	ROBIN	1199	n/a	0	n/a	n/a	n/a	n/a	n/a
4395675	RECOG_CONF	n/a	LTP066	ltpFR	0	8	0	ROBIN	1199	5	0	n/a	n/a	n/a	n/a	n/a
4397420	RECOG_TARGET	n/a	LTP066	ltpFR	0	8	1	SWEATER	1419	5	0	n/a	n/a	n/a	n/a	n/a
4398110	RECOG_RESP	n/a	LTP066	ltpFR	0	8	1	SWEATER	1419	n/a	0	n/a	n/a	n/a	n/a	n/a
4398898	RECOG_CONF	n/a	LTP066	ltpFR	0	8	1	SWEATER	1419	5	0	n/a	n/a	n/a	n/a	n/a
4401320	RECOG_TARGET	n/a	LTP066	ltpFR	0	8	1	OX	994	5	1	n/a	n/a	n/a	n/a	n/a
4401926	RECOG_RESP	n/a	LTP066	ltpFR	0	8	1	OX	994	n/a	1	n/a	n/a	n/a	n/a	n/a
4402829	RECOG_CONF	n/a	LTP066	ltpFR	0	8	1	OX	994	5	1	n/a	n/a	n/a	n/a	n/a
4404444	RECOG_TARGET	n/a	LTP066	ltpFR	0	8	0	ANTEATER	26	5	1	n/a	n/a	n/a	n/a	n/a
4405518	RECOG_RESP	n/a	LTP066	ltpFR	0	8	0	ANTEATER	26	n/a	1	n/a	n/a	n/a	n/a	n/a
4406431	RECOG_CONF	n/a	LTP066	ltpFR	0	8	0	ANTEATER	26	5	1	n/a	n/a	n/a	n/a	n/a
4408436	RECOG_TARGET	n/a	LTP066	ltpFR	0	8	1	TUXEDO	1525	5	0	n/a	n/a	n/a	n/a	n/a
4409319	RECOG_RESP	n/a	LTP066	ltpFR	0	8	1	TUXEDO	1525	n/a	0	n/a	n/a	n/a	n/a	n/a
4410302	RECOG_CONF	n/a	LTP066	ltpFR	0	8	1	TUXEDO	1525	5	0	n/a	n/a	n/a	n/a	n/a
4411794	RECOG_LURE	n/a	LTP066	ltpFR	0	8	n/a	SHOWER	1296	4	n/a	n/a	n/a	n/a	n/a	n/a
4412941	RECOG_RESP	n/a	LTP066	ltpFR	0	8	n/a	SHOWER	1296	n/a	n/a	n/a	n/a	n/a	n/a	n/a
4414093	RECOG_CONF	n/a	LTP066	ltpFR	0	8	n/a	SHOWER	1296	4	n/a	n/a	n/a	n/a	n/a	n/a
4415569	RECOG_LURE	n/a	LTP066	ltpFR	0	8	n/a	GOVERNOR	651	5	n/a	n/a	n/a	n/a	n/a	n/a
4416578	RECOG_RESP	n/a	LTP066	ltpFR	0	8	n/a	GOVERNOR	651	n/a	n/a	n/a	n/a	n/a	n/a	n/a
4417411	RECOG_CONF	n/a	LTP066	ltpFR	0	8	n/a	GOVERNOR	651	5	n/a	n/a	n/a	n/a	n/a	n/a
4419118	RECOG_LURE	n/a	LTP066	ltpFR	0	8	n/a	APE	31	5	n/a	n/a	n/a	n/a	n/a	n/a
4419970	RECOG_RESP	n/a	LTP066	ltpFR	0	8	n/a	APE	31	n/a	n/a	n/a	n/a	n/a	n/a	n/a
4420968	RECOG_CONF	n/a	LTP066	ltpFR	0	8	n/a	APE	31	5	n/a	n/a	n/a	n/a	n/a	n/a
4422625	RECOG_LURE	n/a	LTP066	ltpFR	0	8	n/a	LETTER	813	5	n/a	n/a	n/a	n/a	n/a	n/a
