onset	duration	trial_type	sample	stim_file	subject	experiment	session	trial	task	item_name	item_num	recog_conf	resp	answer	test_x	test_y	test_z	color_b	color_g	color_r	case	font
245.12	n/a	SESS_START	122560	n/a	LTP231	ltpFR	7	n/a	n/a	n/a	n/a	4	n/a	n/a	0	0	0	n/a	n/a	n/a	n/a	n/a
479.76	n/a	START	239880	n/a	LTP231	ltpFR	7	n/a	n/a	n/a	n/a	n/a	n/a	n/a	n/a	n/a	n/a	n/a	n/a	n/a	n/a	n/a
479.81	n/a	PROB	239905	n/a	LTP231	ltpFR	7	n/a	n/a	n/a	n/a	n/a	n/a	19	7	5	7	n/a	n/a	n/a	n/a	n/a
492.76	n/a	PROB	246380	n/a	LTP231	ltpFR	7	n/a	n/a	n/a	n/a	n/a	n/a	20	8	7	5	n/a	n/a	n/a	n/a	n/a
498.734	n/a	STOP	249367	n/a	LTP231	ltpFR	7	n/a	n/a	n/a	n/a	n/a	n/a	n/a	n/a	n/a	n/a	n/a	n/a	n/a	n/a	n/a
626.404	n/a	WORD	313202	wordpools/wasnorm_wordpool_less_exclusions.txt	LTP231	ltpFR	7	1	1	BLANKET	135	n/a	0	n/a	0	0	0	0	0.5869140625	0.422607421875	lower	../fonts/zerothre.ttf
630.286	n/a	WORD	315143	wordpools/wasnorm_wordpool_less_exclusions.txt	LTP231	ltpFR	7	1	1	COUCH	386	n/a	0	n/a	0	0	0	0	0.5869140625	0.422607421875	lower	../fonts/zerothre.ttf
634.446	n/a	WORD	317223	wordpools/wasnorm_wordpool_less_exclusions.txt	LTP231	ltpFR	7	1	1	DOVE	491	n/a	1	n/a	0	0	0	0	0.5869140625	0.422607421875	lower	../fonts/zerothre.ttf
638.516	n/a	WORD	319258	wordpools/wasnorm_wordpool_less_exclusions.txt	LTP231	ltpFR	7	1	1	SEAGULL	1261	n/a	1	n/a	0	0	0	0	0.5869140625	0.422607421875	lower	../fonts/zerothre.ttf
642.462	n/a	WORD	321231	wordpools/wasnorm_wordpool_less_exclusions.txt	LTP231	ltpFR	7	1	1	HOSTESS	723	n/a	1	n/a	0	0	0	0	0.5869140625	0.422607421875	lower	../fonts/zerothre.ttf
646.594	n/a	WORD	323297	wordpools/wasnorm_wordpool_less_exclusions.txt	LTP231	ltpFR	7	1	1	TRACTOR	1493	n/a	0	n/a	0	0	0	0	0.5869140625	0.422607421875	lower	../fonts/zerothre.ttf
650.812	n/a	WORD	325406	wordpools/wasnorm_wordpool_less_exclusions.txt	LTP231	ltpFR	7	1	1	WALL	1582	n/a	0	n/a	0	0	0	0	0.5869140625	0.422607421875	lower	../fonts/zerothre.ttf
654.678	n/a	WORD	327339	wordpools/wasnorm_wordpool_less_exclusions.txt	LTP231	ltpFR	7	1	1	SERVER	1272	n/a	1	n/a	0	0	0	0	0.5869140625	0.422607421875	lower	../fonts/zerothre.ttf
658.576	n/a	WORD	329288	wordpools/wasnorm_wordpool_less_exclusions.txt	LTP231	ltpFR	7	1	1	STABLE	1363	n/a	0	n/a	0	0	0	0	0.5869140625	0.422607421875	lower	../fonts/zerothre.ttf
662.792	n/a	WORD	331396	wordpools/wasnorm_wordpool_less_exclusions.txt	LTP231	ltpFR	7	1	1	CRUMB	416	n/a	0	n/a	0	0	0	0	0.5869140625	0.422607421875	lower	../fonts/zerothre.ttf
666.858	n/a	WORD	333429	wordpools/wasnorm_wordpool_less_exclusions.txt	LTP231	ltpFR	7	1	1	BUN	197	n/a	0	n/a	0	0	0	0	0.5869140625	0.422607421875	lower	../fonts/zerothre.ttf
670.768	n/a	WORD	335384	wordpools/wasnorm_wordpool_less_exclusions.txt	LTP231	ltpFR	7	1	1	LEAF	808	n/a	0	n/a	0	0	0	0	0.5869140625	0.422607421875	lower	../fonts/zerothre.ttf
674.636	n/a	WORD	337318	wordpools/wasnorm_wordpool_less_exclusions.txt	LTP231	ltpFR	7	1	1	CROCODILE	411	n/a	1	n/a	0	0	0	0	0.5869140625	0.422607421875	lower	../fonts/zerothre.ttf
678.686	n/a	WORD	339343	wordpools/wasnorm_wordpool_less_exclusions.txt	LTP231	ltpFR	7	1	1	MOON	914	n/a	0	n/a	0	0	0	0	0.5869140625	0.422607421875	lower	../fonts/zerothre.ttf
682.786	n/a	WORD	341393	wordpools/wasnorm_wordpool_less_exclusions.txt	LTP231	ltpFR	7	1	1	PATH	1023	n/a	0	n/a	0	0	0	0	0.5869140625	0.422607421875	lower	../fonts/zerothre.ttf
686.716	n/a	WORD	343358	wordpools/wasnorm_wordpool_less_exclusions.txt	LTP231	ltpFR	7	1	1	CARPET	247	n/a	0	n/a	0	0	0	0	0.5869140625	0.422607421875	lower	../fonts/zerothre.ttf
689.728	n/a	START	344864	n/a	LTP231	ltpFR	7	n/a	n/a	n/a	n/a	n/a	n/a	n/a	n/a	n/a	n/a	n/a	n/a	n/a	n/a	n/a
690.732	n/a	PROB	345366	n/a	LTP231	ltpFR	7	n/a	n/a	n/a	n/a	n/a	n/a	7	2	1	4	n/a	n/a	n/a	n/a	n/a
697.728	n/a	STOP	348864	n/a	LTP231	ltpFR	7	n/a	n/a	n/a	n/a	n/a	n/a	n/a	n/a	n/a	n/a	n/a	n/a	n/a	n/a	n/a
699.634	n/a	REC_START	349817	n/a	LTP231	ltpFR	7	1	n/a	n/a	n/a	n/a	n/a	n/a	0	0	0	n/a	n/a	n/a	n/a	n/a
701.714	n/a	REC_WORD	350857	wordpools/wasnorm_wordpool_less_exclusions.txt	LTP231	ltpFR	7	1	1	LEAF	808	n/a	0	n/a	0	0	0	n/a	n/a	n/a	n/a	n/a
702.498	n/a	REC_WORD	351249	wordpools/wasnorm_wordpool_less_exclusions.txt	LTP231	ltpFR	7	1	1	PATH	1023	n/a	0	n/a	0	0	0	n/a	n/a	n/a	n/a	n/a
703.47	n/a	REC_WORD	351735	wordpools/wasnorm_wordpool_less_exclusions.txt	LTP231	ltpFR	7	1	1	WALL	1582	n/a	0	n/a	0	0	0	n/a	n/a	n/a	n/a	n/a
704.404	n/a	REC_WORD	352202	wordpools/wasnorm_wordpool_less_exclusions.txt	LTP231	ltpFR	7	1	1	CARPET	247	n/a	0	n/a	0	0	0	n/a	n/a	n/a	n/a	n/a
705.336	n/a	REC_WORD	352668	wordpools/wasnorm_wordpool_less_exclusions.txt	LTP231	ltpFR	7	1	1	COUCH	386	n/a	0	n/a	0	0	0	n/a	n/a	n/a	n/a	n/a
710.604	n/a	REC_WORD	355302	wordpools/wasnorm_wordpool_less_exclusions.txt	LTP231	ltpFR	7	1	1	DOVE	491	n/a	1	n/a	0	0	0	n/a	n/a	n/a	n/a	n/a
711.094	n/a	REC_WORD	355547	wordpools/wasnorm_wordpool_less_exclusions.txt	LTP231	ltpFR	7	1	1	SEAGULL	1261	n/a	1	n/a	0	0	0	n/a	n/a	n/a	n/a	n/a
723.696	n/a	REC_WORD	361848	wordpools/wasnorm_wordpool_less_exclusions.txt	LTP231	ltpFR	7	1	1	PATH	1023	n/a	0	n/a	0	0	0	n/a	n/a	n/a	n/a	n/a
731.746	n/a	REC_WORD	365873	wordpools/wasnorm_wordpool_less_exclusions.txt	LTP231	ltpFR	7	1	1	CRUMB	416	n/a	0	n/a	0	0	0	n/a	n/a	n/a	n/a	n/a
732.516	n/a	REC_WORD	366258	wordpools/wasnorm_wordpool_less_exclusions.txt	LTP231	ltpFR	7	1	1	BUN	197	n/a	0	n/a	0	0	0	n/a	n/a	n/a	n/a	n/a
734.276	n/a	REC_WORD	367138	wordpools/wasnorm_wordpool_less_exclusions.txt	LTP231	ltpFR	7	1	1	STABLE	1363	n/a	0	n/a	0	0	0	n/a	n/a	n/a	n/a	n/a
768.524	n/a	REC_WORD	384262	wordpools/wasnorm_wordpool_less_exclusions.txt	LTP231	ltpFR	7	1	1	SERVER	1272	n/a	1	n/a	0	0	0	n/a	n/a	n/a	n/a	n/a
788.44	n/a	START	394220	n/a	LTP231	ltpFR	7	n/a	n/a	n/a	n/a	n/a	n/a	n/a	n/a	n/a	n/a	n/a	n/a	n/a	n/a	n/a
789.958	n/a	PROB	394979	n/a	LTP231	ltpFR	7	n/a	n/a	n/a	n/a	n/a	n/a	12	2	2	8	n/a	n/a	n/a	n/a	n/a
793.224	n/a	PROB	396612	n/a	LTP231	ltpFR	7	n/a	n/a	n/a	n/a	n/a	n/a	7	3	3	1	n/a	n/a	n/a	n/a	n/a
795.75	n/a	STOP	397875	n/a	LTP231	ltpFR	7	n/a	n/a	n/a	n/a	n/a	n/a	n/a	n/a	n/a	n/a	n/a	n/a	n/a	n/a	n/a
797.508	n/a	WORD	398754	wordpools/wasnorm_wordpool_less_exclusions.txt	LTP231	ltpFR	7	2	0	UNDERWEAR	1537	n/a	0	n/a	0	0	0	1	0.412841796875	0.57763671875	upper	../fonts/amplitud.ttf
800.52	n/a	START	400260	n/a	LTP231	ltpFR	7	n/a	n/a	n/a	n/a	n/a	n/a	n/a	n/a	n/a	n/a	n/a	n/a	n/a	n/a	n/a
801.622	n/a	PROB	400811	n/a	LTP231	ltpFR	7	n/a	n/a	n/a	n/a	n/a	n/a	15	1	7	7	n/a	n/a	n/a	n/a	n/a
808.52	n/a	STOP	404260	n/a	LTP231	ltpFR	7	n/a	n/a	n/a	n/a	n/a	n/a	n/a	n/a	n/a	n/a	n/a	n/a	n/a	n/a	n/a
809.52	n/a	WORD	404760	wordpools/wasnorm_wordpool_less_exclusions.txt	LTP231	ltpFR	7	2	0	BOWL	158	n/a	0	n/a	0	0	0	1	0.412841796875	0.57763671875	upper	../fonts/amplitud.ttf
812.532	n/a	START	406266	n/a	LTP231	ltpFR	7	n/a	n/a	n/a	n/a	n/a	n/a	n/a	n/a	n/a	n/a	n/a	n/a	n/a	n/a	n/a
813.702	n/a	PROB	406851	n/a	LTP231	ltpFR	7	n/a	n/a	n/a	n/a	n/a	n/a	15	7	3	5	n/a	n/a	n/a	n/a	n/a
818.036	n/a	PROB	409018	n/a	LTP231	ltpFR	7	n/a	n/a	n/a	n/a	n/a	n/a	11	1	5	5	n/a	n/a	n/a	n/a	n/a
820.12	n/a	STOP	410060	n/a	LTP231	ltpFR	7	n/a	n/a	n/a	n/a	n/a	n/a	n/a	n/a	n/a	n/a	n/a	n/a	n/a	n/a	n/a
821.7	n/a	WORD	410850	wordpools/wasnorm_wordpool_less_exclusions.txt	LTP231	ltpFR	7	2	0	TEA	1439	n/a	0	n/a	0	0	0	1	0.412841796875	0.57763671875	upper	../fonts/amplitud.ttf
824.712	n/a	START	412356	n/a	LTP231	ltpFR	7	n/a	n/a	n/a	n/a	n/a	n/a	n/a	n/a	n/a	n/a	n/a	n/a	n/a	n/a	n/a
825.614	n/a	PROB	412807	n/a	LTP231	ltpFR	7	n/a	n/a	n/a	n/a	n/a	n/a	18	7	5	6	n/a	n/a	n/a	n/a	n/a
828.442	n/a	PROB	414221	n/a	LTP231	ltpFR	7	n/a	n/a	n/a	n/a	n/a	n/a	10	6	2	2	n/a	n/a	n/a	n/a	n/a
831.328	n/a	STOP	415664	n/a	LTP231	ltpFR	7	n/a	n/a	n/a	n/a	n/a	n/a	n/a	n/a	n/a	n/a	n/a	n/a	n/a	n/a	n/a
833.742	n/a	WORD	416871	wordpools/wasnorm_wordpool_less_exclusions.txt	LTP231	ltpFR	7	2	0	FOLDER	588	n/a	0	n/a	0	0	0	1	0.412841796875	0.57763671875	upper	../fonts/amplitud.ttf
836.758	n/a	START	418379	n/a	LTP231	ltpFR	7	n/a	n/a	n/a	n/a	n/a	n/a	n/a	n/a	n/a	n/a	n/a	n/a	n/a	n/a	n/a
837.828	n/a	PROB	418914	n/a	LTP231	ltpFR	7	n/a	n/a	n/a	n/a	n/a	n/a	20	9	2	9	n/a	n/a	n/a	n/a	n/a
840.936	n/a	PROB	420468	n/a	LTP231	ltpFR	7	n/a	n/a	n/a	n/a	n/a	n/a	11	1	1	9	n/a	n/a	n/a	n/a	n/a
843.712	n/a	STOP	421856	n/a	LTP231	ltpFR	7	n/a	n/a	n/a	n/a	n/a	n/a	n/a	n/a	n/a	n/a	n/a	n/a	n/a	n/a	n/a
845.704	n/a	WORD	422852	wordpools/wasnorm_wordpool_less_exclusions.txt	LTP231	ltpFR	7	2	0	LASER	801	n/a	0	n/a	0	0	0	1	0.412841796875	0.57763671875	upper	../fonts/amplitud.ttf
848.72	n/a	START	424360	n/a	LTP231	ltpFR	7	n/a	n/a	n/a	n/a	n/a	n/a	n/a	n/a	n/a	n/a	n/a	n/a	n/a	n/a	n/a
849.756	n/a	PROB	424878	n/a	LTP231	ltpFR	7	n/a	n/a	n/a	n/a	n/a	n/a	15	5	6	4	n/a	n/a	n/a	n/a	n/a
853.534	n/a	PROB	426767	n/a	LTP231	ltpFR	7	n/a	n/a	n/a	n/a	n/a	n/a	15	7	3	5	n/a	n/a	n/a	n/a	n/a
855.818	n/a	STOP	427909	n/a	LTP231	ltpFR	7	n/a	n/a	n/a	n/a	n/a	n/a	n/a	n/a	n/a	n/a	n/a	n/a	n/a	n/a	n/a
857.9	n/a	WORD	428950	wordpools/wasnorm_wordpool_less_exclusions.txt	LTP231	ltpFR	7	2	0	PORCH	1106	n/a	1	n/a	0	0	0	1	0.412841796875	0.57763671875	upper	../fonts/amplitud.ttf
860.916	n/a	START	430458	n/a	LTP231	ltpFR	7	n/a	n/a	n/a	n/a	n/a	n/a	n/a	n/a	n/a	n/a	n/a	n/a	n/a	n/a	n/a
861.882	n/a	PROB	430941	n/a	LTP231	ltpFR	7	n/a	n/a	n/a	n/a	n/a	n/a	10	8	1	1	n/a	n/a	n/a	n/a	n/a
864.04	n/a	PROB	432020	n/a	LTP231	ltpFR	7	n/a	n/a	n/a	n/a	n/a	n/a	19	8	5	6	n/a	n/a	n/a	n/a	n/a
868.658	n/a	STOP	434329	n/a	LTP231	ltpFR	7	n/a	n/a	n/a	n/a	n/a	n/a	n/a	n/a	n/a	n/a	n/a	n/a	n/a	n/a	n/a
869.934	n/a	WORD	434967	wordpools/wasnorm_wordpool_less_exclusions.txt	LTP231	ltpFR	7	2	0	SCREW	1254	n/a	0	n/a	0	0	0	1	0.412841796875	0.57763671875	upper	../fonts/amplitud.ttf
872.946	n/a	START	436473	n/a	LTP231	ltpFR	7	n/a	n/a	n/a	n/a	n/a	n/a	n/a	n/a	n/a	n/a	n/a	n/a	n/a	n/a	n/a
874.066	n/a	PROB	437033	n/a	LTP231	ltpFR	7	n/a	n/a	n/a	n/a	n/a	n/a	22	9	5	8	n/a	n/a	n/a	n/a	n/a
880.01	n/a	STOP	440005	n/a	LTP231	ltpFR	7	n/a	n/a	n/a	n/a	n/a	n/a	n/a	n/a	n/a	n/a	n/a	n/a	n/a	n/a	n/a
882.164	n/a	WORD	441082	wordpools/wasnorm_wordpool_less_exclusions.txt	LTP231	ltpFR	7	2	0	CARAVAN	242	n/a	1	n/a	0	0	0	1	0.412841796875	0.57763671875	upper	../fonts/amplitud.ttf
885.176	n/a	START	442588	n/a	LTP231	ltpFR	7	n/a	n/a	n/a	n/a	n/a	n/a	n/a	n/a	n/a	n/a	n/a	n/a	n/a	n/a	n/a
893.176	n/a	STOP	446588	n/a	LTP231	ltpFR	7	n/a	n/a	n/a	n/a	n/a	n/a	n/a	n/a	n/a	n/a	n/a	n/a	n/a	n/a	n/a
894.21	n/a	WORD	447105	wordpools/wasnorm_wordpool_less_exclusions.txt	LTP231	ltpFR	7	2	0	SHAMPOO	1274	n/a	0	n/a	0	0	0	1	0.412841796875	0.57763671875	upper	../fonts/amplitud.ttf
897.222	n/a	START	448611	n/a	LTP231	ltpFR	7	n/a	n/a	n/a	n/a	n/a	n/a	n/a	n/a	n/a	n/a	n/a	n/a	n/a	n/a	n/a
898.356	n/a	PROB	449178	n/a	LTP231	ltpFR	7	n/a	n/a	n/a	n/a	n/a	n/a	18	7	3	8	n/a	n/a	n/a	n/a	n/a
900.902	n/a	PROB	450451	n/a	LTP231	ltpFR	7	n/a	n/a	n/a	n/a	n/a	n/a	17	6	8	3	n/a	n/a	n/a	n/a	n/a
904.004	n/a	STOP	452002	n/a	LTP231	ltpFR	7	n/a	n/a	n/a	n/a	n/a	n/a	n/a	n/a	n/a	n/a	n/a	n/a	n/a	n/a	n/a
906.424	n/a	WORD	453212	wordpools/wasnorm_wordpool_less_exclusions.txt	LTP231	ltpFR	7	2	0	DISH	474	n/a	0	n/a	0	0	0	1	0.412841796875	0.57763671875	upper	../fonts/amplitud.ttf
909.436	n/a	START	454718	n/a	LTP231	ltpFR	7	n/a	n/a	n/a	n/a	n/a	n/a	n/a	n/a	n/a	n/a	n/a	n/a	n/a	n/a	n/a
910.372	n/a	PROB	455186	n/a	LTP231	ltpFR	7	n/a	n/a	n/a	n/a	n/a	n/a	19	6	5	8	n/a	n/a	n/a	n/a	n/a
914.132	n/a	PROB	457066	n/a	LTP231	ltpFR	7	n/a	n/a	n/a	n/a	n/a	n/a	11	2	7	2	n/a	n/a	n/a	n/a	n/a
917.068	n/a	STOP	458534	n/a	LTP231	ltpFR	7	n/a	n/a	n/a	n/a	n/a	n/a	n/a	n/a	n/a	n/a	n/a	n/a	n/a	n/a	n/a
918.486	n/a	WORD	459243	wordpools/wasnorm_wordpool_less_exclusions.txt	LTP231	ltpFR	7	2	0	MONEY	908	n/a	0	n/a	0	0	0	1	0.412841796875	0.57763671875	upper	../fonts/amplitud.ttf
921.498	n/a	START	460749	n/a	LTP231	ltpFR	7	n/a	n/a	n/a	n/a	n/a	n/a	n/a	n/a	n/a	n/a	n/a	n/a	n/a	n/a	n/a
922.33	n/a	PROB	461165	n/a	LTP231	ltpFR	7	n/a	n/a	n/a	n/a	n/a	n/a	4	1	2	1	n/a	n/a	n/a	n/a	n/a
924.054	n/a	PROB	462027	n/a	LTP231	ltpFR	7	n/a	n/a	n/a	n/a	n/a	n/a	9	1	2	6	n/a	n/a	n/a	n/a	n/a
926.698	n/a	PROB	463349	n/a	LTP231	ltpFR	7	n/a	n/a	n/a	n/a	n/a	n/a	9	2	3	4	n/a	n/a	n/a	n/a	n/a
928.878	n/a	STOP	464439	n/a	LTP231	ltpFR	7	n/a	n/a	n/a	n/a	n/a	n/a	n/a	n/a	n/a	n/a	n/a	n/a	n/a	n/a	n/a
930.35	n/a	WORD	465175	wordpools/wasnorm_wordpool_less_exclusions.txt	LTP231	ltpFR	7	2	0	PIPE	1073	n/a	0	n/a	0	0	0	1	0.412841796875	0.57763671875	upper	../fonts/amplitud.ttf
933.362	n/a	START	466681	n/a	LTP231	ltpFR	7	n/a	n/a	n/a	n/a	n/a	n/a	n/a	n/a	n/a	n/a	n/a	n/a	n/a	n/a	n/a
934.248	n/a	PROB	467124	n/a	LTP231	ltpFR	7	n/a	n/a	n/a	n/a	n/a	n/a	12	4	1	7	n/a	n/a	n/a	n/a	n/a
941.362	n/a	STOP	470681	n/a	LTP231	ltpFR	7	n/a	n/a	n/a	n/a	n/a	n/a	n/a	n/a	n/a	n/a	n/a	n/a	n/a	n/a	n/a
942.528	n/a	WORD	471264	wordpools/wasnorm_wordpool_less_exclusions.txt	LTP231	ltpFR	7	2	0	ROBE	1198	n/a	0	n/a	0	0	0	1	0.412841796875	0.57763671875	upper	../fonts/amplitud.ttf
945.54	n/a	START	472770	n/a	LTP231	ltpFR	7	n/a	n/a	n/a	n/a	n/a	n/a	n/a	n/a	n/a	n/a	n/a	n/a	n/a	n/a	n/a
946.526	n/a	PROB	473263	n/a	LTP231	ltpFR	7	n/a	n/a	n/a	n/a	n/a	n/a	13	2	2	9	n/a	n/a	n/a	n/a	n/a
950.526	n/a	PROB	475263	n/a	LTP231	ltpFR	7	n/a	n/a	n/a	n/a	n/a	n/a	17	4	7	6	n/a	n/a	n/a	n/a	n/a
953.214	n/a	STOP	476607	n/a	LTP231	ltpFR	7	n/a	n/a	n/a	n/a	n/a	n/a	n/a	n/a	n/a	n/a	n/a	n/a	n/a	n/a	n/a
954.608	n/a	WORD	477304	wordpools/wasnorm_wordpool_less_exclusions.txt	LTP231	ltpFR	7	2	0	SUGAR	1401	n/a	0	n/a	0	0	0	1	0.412841796875	0.57763671875	upper	../fonts/amplitud.ttf
957.62	n/a	START	478810	n/a	LTP231	ltpFR	7	n/a	n/a	n/a	n/a	n/a	n/a	n/a	n/a	n/a	n/a	n/a	n/a	n/a	n/a	n/a
958.756	n/a	PROB	479378	n/a	LTP231	ltpFR	7	n/a	n/a	n/a	n/a	n/a	n/a	10	1	3	6	n/a	n/a	n/a	n/a	n/a
961.33	n/a	PROB	480665	n/a	LTP231	ltpFR	7	n/a	n/a	n/a	n/a	n/a	n/a	16	8	6	2	n/a	n/a	n/a	n/a	n/a
965.62	n/a	STOP	482810	n/a	LTP231	ltpFR	7	n/a	n/a	n/a	n/a	n/a	n/a	n/a	n/a	n/a	n/a	n/a	n/a	n/a	n/a	n/a
966.47	n/a	WORD	483235	wordpools/wasnorm_wordpool_less_exclusions.txt	LTP231	ltpFR	7	2	0	CARRIAGE	248	n/a	1	n/a	0	0	0	1	0.412841796875	0.57763671875	upper	../fonts/amplitud.ttf
969.482	n/a	START	484741	n/a	LTP231	ltpFR	7	n/a	n/a	n/a	n/a	n/a	n/a	n/a	n/a	n/a	n/a	n/a	n/a	n/a	n/a	n/a
970.302	n/a	PROB	485151	n/a	LTP231	ltpFR	7	n/a	n/a	n/a	n/a	n/a	n/a	24	9	6	9	n/a	n/a	n/a	n/a	n/a
973.764	n/a	PROB	486882	n/a	LTP231	ltpFR	7	n/a	n/a	n/a	n/a	n/a	n/a	17	8	7	2	n/a	n/a	n/a	n/a	n/a
976.232	n/a	STOP	488116	n/a	LTP231	ltpFR	7	n/a	n/a	n/a	n/a	n/a	n/a	n/a	n/a	n/a	n/a	n/a	n/a	n/a	n/a	n/a
978.666	n/a	WORD	489333	wordpools/wasnorm_wordpool_less_exclusions.txt	LTP231	ltpFR	7	2	0	SADDLE	1221	n/a	0	n/a	0	0	0	1	0.412841796875	0.57763671875	upper	../fonts/amplitud.ttf
981.678	n/a	START	490839	n/a	LTP231	ltpFR	7	n/a	n/a	n/a	n/a	n/a	n/a	n/a	n/a	n/a	n/a	n/a	n/a	n/a	n/a	n/a
982.546	n/a	PROB	491273	n/a	LTP231	ltpFR	7	n/a	n/a	n/a	n/a	n/a	n/a	12	7	3	2	n/a	n/a	n/a	n/a	n/a
985.154	n/a	PROB	492577	n/a	LTP231	ltpFR	7	n/a	n/a	n/a	n/a	n/a	n/a	19	9	1	9	n/a	n/a	n/a	n/a	n/a
989.678	n/a	STOP	494839	n/a	LTP231	ltpFR	7	n/a	n/a	n/a	n/a	n/a	n/a	n/a	n/a	n/a	n/a	n/a	n/a	n/a	n/a	n/a
991.5	n/a	REC_START	495750	n/a	LTP231	ltpFR	7	2	n/a	n/a	n/a	n/a	n/a	n/a	0	0	0	n/a	n/a	n/a	n/a	n/a
995.814	n/a	REC_WORD	497907	wordpools/wasnorm_wordpool_less_exclusions.txt	LTP231	ltpFR	7	2	0	TEA	1439	n/a	0	n/a	0	0	0	n/a	n/a	n/a	n/a	n/a
1001.87	n/a	REC_WORD	500935	wordpools/wasnorm_wordpool_less_exclusions.txt	LTP231	ltpFR	7	2	0	CARRIAGE	248	n/a	1	n/a	0	0	0	n/a	n/a	n/a	n/a	n/a
1004.276	n/a	REC_WORD	502138	wordpools/wasnorm_wordpool_less_exclusions.txt	LTP231	ltpFR	7	2	0	ROBE	1198	n/a	0	n/a	0	0	0	n/a	n/a	n/a	n/a	n/a
1007.404	n/a	REC_WORD	503702	wordpools/wasnorm_wordpool_less_exclusions.txt	LTP231	ltpFR	7	2	0	UNDERWEAR	1537	n/a	0	n/a	0	0	0	n/a	n/a	n/a	n/a	n/a
1025.064	n/a	REC_WORD	512532	wordpools/wasnorm_wordpool_less_exclusions.txt	LTP231	ltpFR	7	2	0	SADDLE	1221	n/a	0	n/a	0	0	0	n/a	n/a	n/a	n/a	n/a
1081.994	n/a	WORD	540997	wordpools/wasnorm_wordpool_less_exclusions.txt	LTP231	ltpFR	7	3	0	TEACHER	1440	n/a	1	n/a	0	0	0	1	0.412841796875	0.57763671875	upper	../fonts/amplitud.ttf
1086.072	n/a	WORD	543036	wordpools/wasnorm_wordpool_less_exclusions.txt	LTP231	ltpFR	7	3	0	IRON	744	n/a	0	n/a	0	0	0	1	0.412841796875	0.57763671875	upper	../fonts/amplitud.ttf
1090.024	n/a	WORD	545012	wordpools/wasnorm_wordpool_less_exclusions.txt	LTP231	ltpFR	7	3	0	LAGOON	795	n/a	1	n/a	0	0	0	1	0.412841796875	0.57763671875	upper	../fonts/amplitud.ttf
1094.242	n/a	WORD	547121	wordpools/wasnorm_wordpool_less_exclusions.txt	LTP231	ltpFR	7	3	0	DRUM	502	n/a	1	n/a	0	0	0	1	0.412841796875	0.57763671875	upper	../fonts/amplitud.ttf
1098.206	n/a	WORD	549103	wordpools/wasnorm_wordpool_less_exclusions.txt	LTP231	ltpFR	7	3	0	STEREO	1378	n/a	1	n/a	0	0	0	1	0.412841796875	0.57763671875	upper	../fonts/amplitud.ttf
1102.154	n/a	WORD	551077	wordpools/wasnorm_wordpool_less_exclusions.txt	LTP231	ltpFR	7	3	0	WAIST	1579	n/a	1	n/a	0	0	0	1	0.412841796875	0.57763671875	upper	../fonts/amplitud.ttf
1106.2	n/a	WORD	553100	wordpools/wasnorm_wordpool_less_exclusions.txt	LTP231	ltpFR	7	3	0	RIB	1188	n/a	0	n/a	0	0	0	1	0.412841796875	0.57763671875	upper	../fonts/amplitud.ttf
1110.148	n/a	WORD	555074	wordpools/wasnorm_wordpool_less_exclusions.txt	LTP231	ltpFR	7	3	0	CENT	270	n/a	0	n/a	0	0	0	1	0.412841796875	0.57763671875	upper	../fonts/amplitud.ttf
1114.2	n/a	WORD	557100	wordpools/wasnorm_wordpool_less_exclusions.txt	LTP231	ltpFR	7	3	0	ANTEATER	26	n/a	1	n/a	0	0	0	1	0.412841796875	0.57763671875	upper	../fonts/amplitud.ttf
1118.3	n/a	WORD	559150	wordpools/wasnorm_wordpool_less_exclusions.txt	LTP231	ltpFR	7	3	0	PAN	1008	n/a	1	n/a	0	0	0	1	0.412841796875	0.57763671875	upper	../fonts/amplitud.ttf
1122.434	n/a	WORD	561217	wordpools/wasnorm_wordpool_less_exclusions.txt	LTP231	ltpFR	7	3	0	TREASURE	1500	n/a	1	n/a	0	0	0	1	0.412841796875	0.57763671875	upper	../fonts/amplitud.ttf
1126.28	n/a	WORD	563140	wordpools/wasnorm_wordpool_less_exclusions.txt	LTP231	ltpFR	7	3	0	ISLAND	745	n/a	1	n/a	0	0	0	1	0.412841796875	0.57763671875	upper	../fonts/amplitud.ttf
1130.228	n/a	WORD	565114	wordpools/wasnorm_wordpool_less_exclusions.txt	LTP231	ltpFR	7	3	0	TIDE	1465	n/a	1	n/a	0	0	0	1	0.412841796875	0.57763671875	upper	../fonts/amplitud.ttf
1134.11	n/a	WORD	567055	wordpools/wasnorm_wordpool_less_exclusions.txt	LTP231	ltpFR	7	3	0	CONTAINER	366	n/a	1	n/a	0	0	0	1	0.412841796875	0.57763671875	upper	../fonts/amplitud.ttf
1138.176	n/a	WORD	569088	wordpools/wasnorm_wordpool_less_exclusions.txt	LTP231	ltpFR	7	3	0	FOUNTAIN	597	n/a	1	n/a	0	0	0	1	0.412841796875	0.57763671875	upper	../fonts/amplitud.ttf
1142.17	n/a	WORD	571085	wordpools/wasnorm_wordpool_less_exclusions.txt	LTP231	ltpFR	7	3	0	SCENERY	1247	n/a	1	n/a	0	0	0	1	0.412841796875	0.57763671875	upper	../fonts/amplitud.ttf
1145.186	n/a	START	572593	n/a	LTP231	ltpFR	7	n/a	n/a	n/a	n/a	n/a	n/a	n/a	n/a	n/a	n/a	n/a	n/a	n/a	n/a	n/a
1146.388	n/a	PROB	573194	n/a	LTP231	ltpFR	7	n/a	n/a	n/a	n/a	n/a	n/a	15	3	7	5	n/a	n/a	n/a	n/a	n/a
1148.882	n/a	PROB	574441	n/a	LTP231	ltpFR	7	n/a	n/a	n/a	n/a	n/a	n/a	19	9	4	6	n/a	n/a	n/a	n/a	n/a
1152.584	n/a	STOP	576292	n/a	LTP231	ltpFR	7	n/a	n/a	n/a	n/a	n/a	n/a	n/a	n/a	n/a	n/a	n/a	n/a	n/a	n/a	n/a
1154.94	n/a	REC_START	577470	n/a	LTP231	ltpFR	7	3	n/a	n/a	n/a	n/a	n/a	n/a	0	0	0	n/a	n/a	n/a	n/a	n/a
1157.04	n/a	REC_WORD	578520	wordpools/wasnorm_wordpool_less_exclusions.txt	LTP231	ltpFR	7	3	0	SCENERY	1247	n/a	1	n/a	0	0	0	n/a	n/a	n/a	n/a	n/a
1158.028	n/a	REC_WORD	579014	wordpools/wasnorm_wordpool_less_exclusions.txt	LTP231	ltpFR	7	3	0	STEREO	1378	n/a	1	n/a	0	0	0	n/a	n/a	n/a	n/a	n/a
1159.028	n/a	REC_WORD_VV	579514	wordpools/wasnorm_wordpool_less_exclusions.txt	LTP231	ltpFR	7	3	n/a	<>	-1	n/a	n/a	n/a	0	0	0	n/a	n/a	n/a	n/a	n/a
1173.284	n/a	REC_WORD	586642	wordpools/wasnorm_wordpool_less_exclusions.txt	LTP231	ltpFR	7	3	0	RIB	1188	n/a	0	n/a	0	0	0	n/a	n/a	n/a	n/a	n/a
1174.148	n/a	REC_WORD	587074	wordpools/wasnorm_wordpool_less_exclusions.txt	LTP231	ltpFR	7	3	0	WAIST	1579	n/a	1	n/a	0	0	0	n/a	n/a	n/a	n/a	n/a
1190.94	n/a	REC_WORD	595470	wordpools/wasnorm_wordpool_less_exclusions.txt	LTP231	ltpFR	7	3	0	TEACHER	1440	n/a	1	n/a	0	0	0	n/a	n/a	n/a	n/a	n/a
1216.682	n/a	REC_WORD	608341	wordpools/wasnorm_wordpool_less_exclusions.txt	LTP231	ltpFR	7	3	0	CENT	270	n/a	0	n/a	0	0	0	n/a	n/a	n/a	n/a	n/a
1241.354	n/a	START	620677	n/a	LTP231	ltpFR	7	n/a	n/a	n/a	n/a	n/a	n/a	n/a	n/a	n/a	n/a	n/a	n/a	n/a	n/a	n/a
1242.872	n/a	PROB	621436	n/a	LTP231	ltpFR	7	n/a	n/a	n/a	n/a	n/a	n/a	15	8	5	2	n/a	n/a	n/a	n/a	n/a
1245.248	n/a	PROB	622624	n/a	LTP231	ltpFR	7	n/a	n/a	n/a	n/a	n/a	n/a	15	3	5	7	n/a	n/a	n/a	n/a	n/a
1249.356	n/a	STOP	624678	n/a	LTP231	ltpFR	7	n/a	n/a	n/a	n/a	n/a	n/a	n/a	n/a	n/a	n/a	n/a	n/a	n/a	n/a	n/a
1250.288	n/a	WORD	625144	wordpools/wasnorm_wordpool_less_exclusions.txt	LTP231	ltpFR	7	4	1	TUB	1514	n/a	0	n/a	0	0	0	0	0.5869140625	0.422607421875	lower	../fonts/zerothre.ttf
1253.3	n/a	START	626650	n/a	LTP231	ltpFR	7	n/a	n/a	n/a	n/a	n/a	n/a	n/a	n/a	n/a	n/a	n/a	n/a	n/a	n/a	n/a
1254.286	n/a	PROB	627143	n/a	LTP231	ltpFR	7	n/a	n/a	n/a	n/a	n/a	n/a	6	3	1	2	n/a	n/a	n/a	n/a	n/a
1257.042	n/a	PROB	628521	n/a	LTP231	ltpFR	7	n/a	n/a	n/a	n/a	n/a	n/a	12	2	4	6	n/a	n/a	n/a	n/a	n/a
1261.3	n/a	STOP	630650	n/a	LTP231	ltpFR	7	n/a	n/a	n/a	n/a	n/a	n/a	n/a	n/a	n/a	n/a	n/a	n/a	n/a	n/a	n/a
1262.452	n/a	WORD	631226	wordpools/wasnorm_wordpool_less_exclusions.txt	LTP231	ltpFR	7	4	1	SCREEN	1253	n/a	0	n/a	0	0	0	0	0.5869140625	0.422607421875	lower	../fonts/zerothre.ttf
1265.462	n/a	START	632731	n/a	LTP231	ltpFR	7	n/a	n/a	n/a	n/a	n/a	n/a	n/a	n/a	n/a	n/a	n/a	n/a	n/a	n/a	n/a
1266.598	n/a	PROB	633299	n/a	LTP231	ltpFR	7	n/a	n/a	n/a	n/a	n/a	n/a	14	7	6	1	n/a	n/a	n/a	n/a	n/a
1270.616	n/a	PROB	635308	n/a	LTP231	ltpFR	7	n/a	n/a	n/a	n/a	n/a	n/a	10	3	5	2	n/a	n/a	n/a	n/a	n/a
1273.04	n/a	STOP	636520	n/a	LTP231	ltpFR	7	n/a	n/a	n/a	n/a	n/a	n/a	n/a	n/a	n/a	n/a	n/a	n/a	n/a	n/a	n/a
1274.648	n/a	WORD	637324	wordpools/wasnorm_wordpool_less_exclusions.txt	LTP231	ltpFR	7	4	1	PRODUCER	1129	n/a	1	n/a	0	0	0	0	0.5869140625	0.422607421875	lower	../fonts/zerothre.ttf
1277.66	n/a	START	638830	n/a	LTP231	ltpFR	7	n/a	n/a	n/a	n/a	n/a	n/a	n/a	n/a	n/a	n/a	n/a	n/a	n/a	n/a	n/a
1278.592	n/a	PROB	639296	n/a	LTP231	ltpFR	7	n/a	n/a	n/a	n/a	n/a	n/a	13	9	2	2	n/a	n/a	n/a	n/a	n/a
1281.67	n/a	PROB	640835	n/a	LTP231	ltpFR	7	n/a	n/a	n/a	n/a	n/a	n/a	12	9	1	2	n/a	n/a	n/a	n/a	n/a
1285.66	n/a	STOP	642830	n/a	LTP231	ltpFR	7	n/a	n/a	n/a	n/a	n/a	n/a	n/a	n/a	n/a	n/a	n/a	n/a	n/a	n/a	n/a
1286.688	n/a	WORD	643344	wordpools/wasnorm_wordpool_less_exclusions.txt	LTP231	ltpFR	7	4	1	HOUND	724	n/a	1	n/a	0	0	0	0	0.5869140625	0.422607421875	lower	../fonts/zerothre.ttf
1289.706	n/a	START	644853	n/a	LTP231	ltpFR	7	n/a	n/a	n/a	n/a	n/a	n/a	n/a	n/a	n/a	n/a	n/a	n/a	n/a	n/a	n/a
1290.726	n/a	PROB	645363	n/a	LTP231	ltpFR	7	n/a	n/a	n/a	n/a	n/a	n/a	15	6	4	5	n/a	n/a	n/a	n/a	n/a
1292.578	n/a	PROB	646289	n/a	LTP231	ltpFR	7	n/a	n/a	n/a	n/a	n/a	n/a	9	1	6	2	n/a	n/a	n/a	n/a	n/a
1297.706	n/a	STOP	648853	n/a	LTP231	ltpFR	7	n/a	n/a	n/a	n/a	n/a	n/a	n/a	n/a	n/a	n/a	n/a	n/a	n/a	n/a	n/a
1298.872	n/a	WORD	649436	wordpools/wasnorm_wordpool_less_exclusions.txt	LTP231	ltpFR	7	4	1	OX	994	n/a	1	n/a	0	0	0	0	0.5869140625	0.422607421875	lower	../fonts/zerothre.ttf
1301.884	n/a	START	650942	n/a	LTP231	ltpFR	7	n/a	n/a	n/a	n/a	n/a	n/a	n/a	n/a	n/a	n/a	n/a	n/a	n/a	n/a	n/a
1302.738	n/a	PROB	651369	n/a	LTP231	ltpFR	7	n/a	n/a	n/a	n/a	n/a	n/a	12	1	2	9	n/a	n/a	n/a	n/a	n/a
1305.996	n/a	PROB	652998	n/a	LTP231	ltpFR	7	n/a	n/a	n/a	n/a	n/a	n/a	17	5	8	4	n/a	n/a	n/a	n/a	n/a
1309.226	n/a	STOP	654613	n/a	LTP231	ltpFR	7	n/a	n/a	n/a	n/a	n/a	n/a	n/a	n/a	n/a	n/a	n/a	n/a	n/a	n/a	n/a
1310.986	n/a	WORD	655493	wordpools/wasnorm_wordpool_less_exclusions.txt	LTP231	ltpFR	7	4	1	BARLEY	88	n/a	0	n/a	0	0	0	0	0.5869140625	0.422607421875	lower	../fonts/zerothre.ttf
1313.998	n/a	START	656999	n/a	LTP231	ltpFR	7	n/a	n/a	n/a	n/a	n/a	n/a	n/a	n/a	n/a	n/a	n/a	n/a	n/a	n/a	n/a
1314.968	n/a	PROB	657484	n/a	LTP231	ltpFR	7	n/a	n/a	n/a	n/a	n/a	n/a	17	1	9	7	n/a	n/a	n/a	n/a	n/a
1317.424	n/a	PROB	658712	n/a	LTP231	ltpFR	7	n/a	n/a	n/a	n/a	n/a	n/a	9	4	1	4	n/a	n/a	n/a	n/a	n/a
1320.602	n/a	STOP	660301	n/a	LTP231	ltpFR	7	n/a	n/a	n/a	n/a	n/a	n/a	n/a	n/a	n/a	n/a	n/a	n/a	n/a	n/a	n/a
1322.944	n/a	WORD	661472	wordpools/wasnorm_wordpool_less_exclusions.txt	LTP231	ltpFR	7	4	1	SWAN	1417	n/a	1	n/a	0	0	0	0	0.5869140625	0.422607421875	lower	../fonts/zerothre.ttf
1325.96	n/a	START	662980	n/a	LTP231	ltpFR	7	n/a	n/a	n/a	n/a	n/a	n/a	n/a	n/a	n/a	n/a	n/a	n/a	n/a	n/a	n/a
1326.864	n/a	PROB	663432	n/a	LTP231	ltpFR	7	n/a	n/a	n/a	n/a	n/a	n/a	17	6	3	8	n/a	n/a	n/a	n/a	n/a
1329.754	n/a	PROB	664877	n/a	LTP231	ltpFR	7	n/a	n/a	n/a	n/a	n/a	n/a	17	7	1	8	n/a	n/a	n/a	n/a	n/a
1332.97	n/a	STOP	666485	n/a	LTP231	ltpFR	7	n/a	n/a	n/a	n/a	n/a	n/a	n/a	n/a	n/a	n/a	n/a	n/a	n/a	n/a	n/a
1334.928	n/a	WORD	667464	wordpools/wasnorm_wordpool_less_exclusions.txt	LTP231	ltpFR	7	4	1	EMPLOYEE	531	n/a	1	n/a	0	0	0	0	0.5869140625	0.422607421875	lower	../fonts/zerothre.ttf
1337.94	n/a	START	668970	n/a	LTP231	ltpFR	7	n/a	n/a	n/a	n/a	n/a	n/a	n/a	n/a	n/a	n/a	n/a	n/a	n/a	n/a	n/a
1338.892	n/a	PROB	669446	n/a	LTP231	ltpFR	7	n/a	n/a	n/a	n/a	n/a	n/a	12	1	6	5	n/a	n/a	n/a	n/a	n/a
1345.938	n/a	STOP	672969	n/a	LTP231	ltpFR	7	n/a	n/a	n/a	n/a	n/a	n/a	n/a	n/a	n/a	n/a	n/a	n/a	n/a	n/a	n/a
1347.154	n/a	WORD	673577	wordpools/wasnorm_wordpool_less_exclusions.txt	LTP231	ltpFR	7	4	1	PAIL	1002	n/a	0	n/a	0	0	0	0	0.5869140625	0.422607421875	lower	../fonts/zerothre.ttf
1350.17	n/a	START	675085	n/a	LTP231	ltpFR	7	n/a	n/a	n/a	n/a	n/a	n/a	n/a	n/a	n/a	n/a	n/a	n/a	n/a	n/a	n/a
1351.056	n/a	PROB	675528	n/a	LTP231	ltpFR	7	n/a	n/a	n/a	n/a	n/a	n/a	20	8	6	6	n/a	n/a	n/a	n/a	n/a
1358.17	n/a	STOP	679085	n/a	LTP231	ltpFR	7	n/a	n/a	n/a	n/a	n/a	n/a	n/a	n/a	n/a	n/a	n/a	n/a	n/a	n/a	n/a
1359.17	n/a	WORD	679585	wordpools/wasnorm_wordpool_less_exclusions.txt	LTP231	ltpFR	7	4	1	LIST	830	n/a	0	n/a	0	0	0	0	0.5869140625	0.422607421875	lower	../fonts/zerothre.ttf
1362.182	n/a	START	681091	n/a	LTP231	ltpFR	7	n/a	n/a	n/a	n/a	n/a	n/a	n/a	n/a	n/a	n/a	n/a	n/a	n/a	n/a	n/a
1363.086	n/a	PROB	681543	n/a	LTP231	ltpFR	7	n/a	n/a	n/a	n/a	n/a	n/a	6	1	3	2	n/a	n/a	n/a	n/a	n/a
1365.946	n/a	PROB	682973	n/a	LTP231	ltpFR	7	n/a	n/a	n/a	n/a	n/a	n/a	7	1	2	4	n/a	n/a	n/a	n/a	n/a
1370.182	n/a	STOP	685091	n/a	LTP231	ltpFR	7	n/a	n/a	n/a	n/a	n/a	n/a	n/a	n/a	n/a	n/a	n/a	n/a	n/a	n/a	n/a
1371.112	n/a	WORD	685556	wordpools/wasnorm_wordpool_less_exclusions.txt	LTP231	ltpFR	7	4	1	CONDUCTOR	362	n/a	1	n/a	0	0	0	0	0.5869140625	0.422607421875	lower	../fonts/zerothre.ttf
1374.128	n/a	START	687064	n/a	LTP231	ltpFR	7	n/a	n/a	n/a	n/a	n/a	n/a	n/a	n/a	n/a	n/a	n/a	n/a	n/a	n/a	n/a
1375.266	n/a	PROB	687633	n/a	LTP231	ltpFR	7	n/a	n/a	n/a	n/a	n/a	n/a	21	7	8	5	n/a	n/a	n/a	n/a	n/a
1382.128	n/a	STOP	691064	n/a	LTP231	ltpFR	7	n/a	n/a	n/a	n/a	n/a	n/a	n/a	n/a	n/a	n/a	n/a	n/a	n/a	n/a	n/a
1383.146	n/a	WORD	691573	wordpools/wasnorm_wordpool_less_exclusions.txt	LTP231	ltpFR	7	4	1	PASTA	1021	n/a	0	n/a	0	0	0	0	0.5869140625	0.422607421875	lower	../fonts/zerothre.ttf
1386.158	n/a	START	693079	n/a	LTP231	ltpFR	7	n/a	n/a	n/a	n/a	n/a	n/a	n/a	n/a	n/a	n/a	n/a	n/a	n/a	n/a	n/a
1387.01	n/a	PROB	693505	n/a	LTP231	ltpFR	7	n/a	n/a	n/a	n/a	n/a	n/a	13	4	3	6	n/a	n/a	n/a	n/a	n/a
1390.804	n/a	PROB	695402	n/a	LTP231	ltpFR	7	n/a	n/a	n/a	n/a	n/a	n/a	15	1	5	9	n/a	n/a	n/a	n/a	n/a
1393.462	n/a	STOP	696731	n/a	LTP231	ltpFR	7	n/a	n/a	n/a	n/a	n/a	n/a	n/a	n/a	n/a	n/a	n/a	n/a	n/a	n/a	n/a
1395.07	n/a	WORD	697535	wordpools/wasnorm_wordpool_less_exclusions.txt	LTP231	ltpFR	7	4	1	ZUCCHINI	1638	n/a	1	n/a	0	0	0	0	0.5869140625	0.422607421875	lower	../fonts/zerothre.ttf
1398.086	n/a	START	699043	n/a	LTP231	ltpFR	7	n/a	n/a	n/a	n/a	n/a	n/a	n/a	n/a	n/a	n/a	n/a	n/a	n/a	n/a	n/a
1399.118	n/a	PROB	699559	n/a	LTP231	ltpFR	7	n/a	n/a	n/a	n/a	n/a	n/a	7	3	1	3	n/a	n/a	n/a	n/a	n/a
1401.73	n/a	PROB	700865	n/a	LTP231	ltpFR	7	n/a	n/a	n/a	n/a	n/a	n/a	18	4	9	5	n/a	n/a	n/a	n/a	n/a
1405.654	n/a	STOP	702827	n/a	LTP231	ltpFR	7	n/a	n/a	n/a	n/a	n/a	n/a	n/a	n/a	n/a	n/a	n/a	n/a	n/a	n/a	n/a
1407.054	n/a	WORD	703527	wordpools/wasnorm_wordpool_less_exclusions.txt	LTP231	ltpFR	7	4	1	PARSLEY	1016	n/a	0	n/a	0	0	0	0	0.5869140625	0.422607421875	lower	../fonts/zerothre.ttf
1410.064	n/a	START	705032	n/a	LTP231	ltpFR	7	n/a	n/a	n/a	n/a	n/a	n/a	n/a	n/a	n/a	n/a	n/a	n/a	n/a	n/a	n/a
1411.002	n/a	PROB	705501	n/a	LTP231	ltpFR	7	n/a	n/a	n/a	n/a	n/a	n/a	10	8	1	1	n/a	n/a	n/a	n/a	n/a
1418.064	n/a	STOP	709032	n/a	LTP231	ltpFR	7	n/a	n/a	n/a	n/a	n/a	n/a	n/a	n/a	n/a	n/a	n/a	n/a	n/a	n/a	n/a
1419.266	n/a	WORD	709633	wordpools/wasnorm_wordpool_less_exclusions.txt	LTP231	ltpFR	7	4	1	PUB	1135	n/a	0	n/a	0	0	0	0	0.5869140625	0.422607421875	lower	../fonts/zerothre.ttf
1422.28	n/a	START	711140	n/a	LTP231	ltpFR	7	n/a	n/a	n/a	n/a	n/a	n/a	n/a	n/a	n/a	n/a	n/a	n/a	n/a	n/a	n/a
1423.114	n/a	PROB	711557	n/a	LTP231	ltpFR	7	n/a	n/a	n/a	n/a	n/a	n/a	12	1	8	3	n/a	n/a	n/a	n/a	n/a
1426.458	n/a	PROB	713229	n/a	LTP231	ltpFR	7	n/a	n/a	n/a	n/a	n/a	n/a	15	4	6	5	n/a	n/a	n/a	n/a	n/a
1430.28	n/a	STOP	715140	n/a	LTP231	ltpFR	7	n/a	n/a	n/a	n/a	n/a	n/a	n/a	n/a	n/a	n/a	n/a	n/a	n/a	n/a	n/a
1431.346	n/a	WORD	715673	wordpools/wasnorm_wordpool_less_exclusions.txt	LTP231	ltpFR	7	4	1	PERSONNEL	1053	n/a	0	n/a	0	0	0	0	0.5869140625	0.422607421875	lower	../fonts/zerothre.ttf
1434.358	n/a	START	717179	n/a	LTP231	ltpFR	7	n/a	n/a	n/a	n/a	n/a	n/a	n/a	n/a	n/a	n/a	n/a	n/a	n/a	n/a	n/a
1435.544	n/a	PROB	717772	n/a	LTP231	ltpFR	7	n/a	n/a	n/a	n/a	n/a	n/a	16	3	6	7	n/a	n/a	n/a	n/a	n/a
1442.36	n/a	STOP	721180	n/a	LTP231	ltpFR	7	n/a	n/a	n/a	n/a	n/a	n/a	n/a	n/a	n/a	n/a	n/a	n/a	n/a	n/a	n/a
1444.162	n/a	REC_START	722081	n/a	LTP231	ltpFR	7	4	n/a	n/a	n/a	n/a	n/a	n/a	0	0	0	n/a	n/a	n/a	n/a	n/a
1446.352	n/a	REC_WORD	723176	wordpools/wasnorm_wordpool_less_exclusions.txt	LTP231	ltpFR	7	4	1	PARSLEY	1016	n/a	0	n/a	0	0	0	n/a	n/a	n/a	n/a	n/a
1447.352	n/a	REC_WORD_VV	723676	wordpools/wasnorm_wordpool_less_exclusions.txt	LTP231	ltpFR	7	4	n/a	<>	-1	n/a	n/a	n/a	0	0	0	n/a	n/a	n/a	n/a	n/a
1447.706	n/a	REC_WORD	723853	wordpools/wasnorm_wordpool_less_exclusions.txt	LTP231	ltpFR	7	4	1	BARLEY	88	n/a	0	n/a	0	0	0	n/a	n/a	n/a	n/a	n/a
1449.58	n/a	REC_WORD	724790	wordpools/wasnorm_wordpool_less_exclusions.txt	LTP231	ltpFR	7	4	1	PERSONNEL	1053	n/a	0	n/a	0	0	0	n/a	n/a	n/a	n/a	n/a
1450.58	n/a	REC_WORD_VV	725290	wordpools/wasnorm_wordpool_less_exclusions.txt	LTP231	ltpFR	7	4	n/a	<>	-1	n/a	n/a	n/a	0	0	0	n/a	n/a	n/a	n/a	n/a
1453.126	n/a	REC_WORD	726563	wordpools/wasnorm_wordpool_less_exclusions.txt	LTP231	ltpFR	7	4	1	ZUCCHINI	1638	n/a	1	n/a	0	0	0	n/a	n/a	n/a	n/a	n/a
1465.654	n/a	REC_WORD	732827	wordpools/wasnorm_wordpool_less_exclusions.txt	LTP231	ltpFR	7	4	1	OX	994	n/a	1	n/a	0	0	0	n/a	n/a	n/a	n/a	n/a
1494.22	n/a	REC_WORD	747110	wordpools/wasnorm_wordpool_less_exclusions.txt	LTP231	ltpFR	7	4	1	PAIL	1002	n/a	0	n/a	0	0	0	n/a	n/a	n/a	n/a	n/a
1541.484	n/a	WORD	770742	wordpools/wasnorm_wordpool_less_exclusions.txt	LTP231	ltpFR	7	5	0	LOBBY	836	n/a	2	n/a	0	0	0	1	0.412841796875	0.57763671875	upper	../fonts/amplitud.ttf
1542.57	n/a	KEY_MSG	771285	n/a	LTP231	ltpFR	7	5	n/a	n/a	n/a	n/a	n/a	n/a	0	0	0	n/a	n/a	n/a	n/a	n/a
1545.7	n/a	WORD	772850	wordpools/wasnorm_wordpool_less_exclusions.txt	LTP231	ltpFR	7	5	0	RESORT	1186	n/a	1	n/a	0	0	0	1	0.412841796875	0.57763671875	upper	../fonts/amplitud.ttf
1549.798	n/a	WORD	774899	wordpools/wasnorm_wordpool_less_exclusions.txt	LTP231	ltpFR	7	5	0	KITTEN	780	n/a	0	n/a	0	0	0	1	0.412841796875	0.57763671875	upper	../fonts/amplitud.ttf
1553.928	n/a	WORD	776964	wordpools/wasnorm_wordpool_less_exclusions.txt	LTP231	ltpFR	7	5	0	BUBBLE	183	n/a	0	n/a	0	0	0	1	0.412841796875	0.57763671875	upper	../fonts/amplitud.ttf
1557.996	n/a	WORD	778998	wordpools/wasnorm_wordpool_less_exclusions.txt	LTP231	ltpFR	7	5	0	ANTELOPE	27	n/a	1	n/a	0	0	0	1	0.412841796875	0.57763671875	upper	../fonts/amplitud.ttf
1561.878	n/a	WORD	780939	wordpools/wasnorm_wordpool_less_exclusions.txt	LTP231	ltpFR	7	5	0	ANKLE	24	n/a	0	n/a	0	0	0	1	0.412841796875	0.57763671875	upper	../fonts/amplitud.ttf
1565.91	n/a	WORD	782955	wordpools/wasnorm_wordpool_less_exclusions.txt	LTP231	ltpFR	7	5	0	CANDY	230	n/a	0	n/a	0	0	0	1	0.412841796875	0.57763671875	upper	../fonts/amplitud.ttf
1569.74	n/a	WORD	784870	wordpools/wasnorm_wordpool_less_exclusions.txt	LTP231	ltpFR	7	5	0	DEER	444	n/a	1	n/a	0	0	0	1	0.412841796875	0.57763671875	upper	../fonts/amplitud.ttf
1573.874	n/a	WORD	786937	wordpools/wasnorm_wordpool_less_exclusions.txt	LTP231	ltpFR	7	5	0	HIGHWAY	707	n/a	1	n/a	0	0	0	1	0.412841796875	0.57763671875	upper	../fonts/amplitud.ttf
1577.972	n/a	WORD	788986	wordpools/wasnorm_wordpool_less_exclusions.txt	LTP231	ltpFR	7	5	0	DRIVER	499	n/a	1	n/a	0	0	0	1	0.412841796875	0.57763671875	upper	../fonts/amplitud.ttf
1582.022	n/a	WORD	791011	wordpools/wasnorm_wordpool_less_exclusions.txt	LTP231	ltpFR	7	5	0	CHEST	295	n/a	1	n/a	0	0	0	1	0.412841796875	0.57763671875	upper	../fonts/amplitud.ttf
1585.852	n/a	WORD	792926	wordpools/wasnorm_wordpool_less_exclusions.txt	LTP231	ltpFR	7	5	0	COD	340	n/a	0	n/a	0	0	0	1	0.412841796875	0.57763671875	upper	../fonts/amplitud.ttf
1590.002	n/a	WORD	795001	wordpools/wasnorm_wordpool_less_exclusions.txt	LTP231	ltpFR	7	5	0	SALAD	1224	n/a	0	n/a	0	0	0	1	0.412841796875	0.57763671875	upper	../fonts/amplitud.ttf
1593.968	n/a	WORD	796984	wordpools/wasnorm_wordpool_less_exclusions.txt	LTP231	ltpFR	7	5	0	MUSHROOM	934	n/a	0	n/a	0	0	0	1	0.412841796875	0.57763671875	upper	../fonts/amplitud.ttf
1598.116	n/a	WORD	799058	wordpools/wasnorm_wordpool_less_exclusions.txt	LTP231	ltpFR	7	5	0	ELBOW	520	n/a	0	n/a	0	0	0	1	0.412841796875	0.57763671875	upper	../fonts/amplitud.ttf
1602.162	n/a	WORD	801081	wordpools/wasnorm_wordpool_less_exclusions.txt	LTP231	ltpFR	7	5	0	COLLEGE	346	n/a	1	n/a	0	0	0	1	0.412841796875	0.57763671875	upper	../fonts/amplitud.ttf
1605.176	n/a	START	802588	n/a	LTP231	ltpFR	7	n/a	n/a	n/a	n/a	n/a	n/a	n/a	n/a	n/a	n/a	n/a	n/a	n/a	n/a	n/a
1606.294	n/a	PROB	803147	n/a	LTP231	ltpFR	7	n/a	n/a	n/a	n/a	n/a	n/a	14	6	4	4	n/a	n/a	n/a	n/a	n/a
1609.108	n/a	PROB	804554	n/a	LTP231	ltpFR	7	n/a	n/a	n/a	n/a	n/a	n/a	16	5	7	4	n/a	n/a	n/a	n/a	n/a
1613.504	n/a	PROB	806752	n/a	LTP231	ltpFR	7	n/a	n/a	n/a	n/a	n/a	n/a	15	5	9	1	n/a	n/a	n/a	n/a	n/a
1615.128	n/a	PROB	807564	n/a	LTP231	ltpFR	7	n/a	n/a	n/a	n/a	n/a	n/a	14	9	3	2	n/a	n/a	n/a	n/a	n/a
1621.178	n/a	STOP	810589	n/a	LTP231	ltpFR	7	n/a	n/a	n/a	n/a	n/a	n/a	n/a	n/a	n/a	n/a	n/a	n/a	n/a	n/a	n/a
1623.062	n/a	REC_START	811531	n/a	LTP231	ltpFR	7	5	n/a	n/a	n/a	n/a	n/a	n/a	0	0	0	n/a	n/a	n/a	n/a	n/a
1625.92	n/a	REC_WORD	812960	wordpools/wasnorm_wordpool_less_exclusions.txt	LTP231	ltpFR	7	5	0	DEER	444	n/a	1	n/a	0	0	0	n/a	n/a	n/a	n/a	n/a
1626.768	n/a	REC_WORD	813384	wordpools/wasnorm_wordpool_less_exclusions.txt	LTP231	ltpFR	7	5	0	ANTELOPE	27	n/a	1	n/a	0	0	0	n/a	n/a	n/a	n/a	n/a
1627.916	n/a	REC_WORD	813958	wordpools/wasnorm_wordpool_less_exclusions.txt	LTP231	ltpFR	7	5	0	DRIVER	499	n/a	1	n/a	0	0	0	n/a	n/a	n/a	n/a	n/a
1628.964	n/a	REC_WORD	814482	wordpools/wasnorm_wordpool_less_exclusions.txt	LTP231	ltpFR	7	5	0	COD	340	n/a	0	n/a	0	0	0	n/a	n/a	n/a	n/a	n/a
1630.184	n/a	REC_WORD	815092	wordpools/wasnorm_wordpool_less_exclusions.txt	LTP231	ltpFR	7	5	0	SALAD	1224	n/a	0	n/a	0	0	0	n/a	n/a	n/a	n/a	n/a
1631.294	n/a	REC_WORD	815647	wordpools/wasnorm_wordpool_less_exclusions.txt	LTP231	ltpFR	7	5	0	MUSHROOM	934	n/a	0	n/a	0	0	0	n/a	n/a	n/a	n/a	n/a
1632.294	n/a	REC_WORD_VV	816147	wordpools/wasnorm_wordpool_less_exclusions.txt	LTP231	ltpFR	7	5	n/a	<>	-1	n/a	n/a	n/a	0	0	0	n/a	n/a	n/a	n/a	n/a
1633.784	n/a	REC_WORD	816892	wordpools/wasnorm_wordpool_less_exclusions.txt	LTP231	ltpFR	7	5	0	ANKLE	24	n/a	0	n/a	0	0	0	n/a	n/a	n/a	n/a	n/a
1637.266	n/a	REC_WORD	818633	wordpools/wasnorm_wordpool_less_exclusions.txt	LTP231	ltpFR	7	5	0	DEER	444	n/a	1	n/a	0	0	0	n/a	n/a	n/a	n/a	n/a
1638.648	n/a	REC_WORD	819324	wordpools/wasnorm_wordpool_less_exclusions.txt	LTP231	ltpFR	7	5	0	ANTELOPE	27	n/a	1	n/a	0	0	0	n/a	n/a	n/a	n/a	n/a
1641.85	n/a	REC_WORD	820925	wordpools/wasnorm_wordpool_less_exclusions.txt	LTP231	ltpFR	7	5	0	CHEST	295	n/a	1	n/a	0	0	0	n/a	n/a	n/a	n/a	n/a
1644.63	n/a	REC_WORD	822315	wordpools/wasnorm_wordpool_less_exclusions.txt	LTP231	ltpFR	7	5	0	HIGHWAY	707	n/a	1	n/a	0	0	0	n/a	n/a	n/a	n/a	n/a
1647.278	n/a	REC_WORD	823639	wordpools/wasnorm_wordpool_less_exclusions.txt	LTP231	ltpFR	7	5	0	CANDY	230	n/a	0	n/a	0	0	0	n/a	n/a	n/a	n/a	n/a
1727.244	n/a	START	863622	n/a	LTP231	ltpFR	7	n/a	n/a	n/a	n/a	n/a	n/a	n/a	n/a	n/a	n/a	n/a	n/a	n/a	n/a	n/a
1728.748	n/a	PROB	864374	n/a	LTP231	ltpFR	7	n/a	n/a	n/a	n/a	n/a	n/a	15	7	4	4	n/a	n/a	n/a	n/a	n/a
1735.244	n/a	STOP	867622	n/a	LTP231	ltpFR	7	n/a	n/a	n/a	n/a	n/a	n/a	n/a	n/a	n/a	n/a	n/a	n/a	n/a	n/a	n/a
1736.176	n/a	WORD	868088	wordpools/wasnorm_wordpool_less_exclusions.txt	LTP231	ltpFR	7	6	1	JAW	751	n/a	0	n/a	0	0	0	0	0.5869140625	0.422607421875	lower	../fonts/zerothre.ttf
1739.188	n/a	START	869594	n/a	LTP231	ltpFR	7	n/a	n/a	n/a	n/a	n/a	n/a	n/a	n/a	n/a	n/a	n/a	n/a	n/a	n/a	n/a
1740.36	n/a	PROB	870180	n/a	LTP231	ltpFR	7	n/a	n/a	n/a	n/a	n/a	n/a	12	5	5	2	n/a	n/a	n/a	n/a	n/a
1742.832	n/a	PROB	871416	n/a	LTP231	ltpFR	7	n/a	n/a	n/a	n/a	n/a	n/a	14	1	7	6	n/a	n/a	n/a	n/a	n/a
1747.19	n/a	STOP	873595	n/a	LTP231	ltpFR	7	n/a	n/a	n/a	n/a	n/a	n/a	n/a	n/a	n/a	n/a	n/a	n/a	n/a	n/a	n/a
1748.408	n/a	WORD	874204	wordpools/wasnorm_wordpool_less_exclusions.txt	LTP231	ltpFR	7	6	1	NUN	962	n/a	1	n/a	0	0	0	0	0.5869140625	0.422607421875	lower	../fonts/zerothre.ttf
1751.42	n/a	START	875710	n/a	LTP231	ltpFR	7	n/a	n/a	n/a	n/a	n/a	n/a	n/a	n/a	n/a	n/a	n/a	n/a	n/a	n/a	n/a
1752.386	n/a	PROB	876193	n/a	LTP231	ltpFR	7	n/a	n/a	n/a	n/a	n/a	n/a	11	1	1	9	n/a	n/a	n/a	n/a	n/a
1759.42	n/a	STOP	879710	n/a	LTP231	ltpFR	7	n/a	n/a	n/a	n/a	n/a	n/a	n/a	n/a	n/a	n/a	n/a	n/a	n/a	n/a	n/a
1760.586	n/a	WORD	880293	wordpools/wasnorm_wordpool_less_exclusions.txt	LTP231	ltpFR	7	6	1	YACHT	1629	n/a	0	n/a	0	0	0	0	0.5869140625	0.422607421875	lower	../fonts/zerothre.ttf
1763.6	n/a	START	881800	n/a	LTP231	ltpFR	7	n/a	n/a	n/a	n/a	n/a	n/a	n/a	n/a	n/a	n/a	n/a	n/a	n/a	n/a	n/a
1764.636	n/a	PROB	882318	n/a	LTP231	ltpFR	7	n/a	n/a	n/a	n/a	n/a	n/a	19	7	6	6	n/a	n/a	n/a	n/a	n/a
1768.012	n/a	PROB	884006	n/a	LTP231	ltpFR	7	n/a	n/a	n/a	n/a	n/a	n/a	3	1	1	1	n/a	n/a	n/a	n/a	n/a
1771.6	n/a	STOP	885800	n/a	LTP231	ltpFR	7	n/a	n/a	n/a	n/a	n/a	n/a	n/a	n/a	n/a	n/a	n/a	n/a	n/a	n/a	n/a
1772.434	n/a	WORD	886217	wordpools/wasnorm_wordpool_less_exclusions.txt	LTP231	ltpFR	7	6	1	WOLF	1619	n/a	1	n/a	0	0	0	0	0.5869140625	0.422607421875	lower	../fonts/zerothre.ttf
1775.446	n/a	START	887723	n/a	LTP231	ltpFR	7	n/a	n/a	n/a	n/a	n/a	n/a	n/a	n/a	n/a	n/a	n/a	n/a	n/a	n/a	n/a
1776.364	n/a	PROB	888182	n/a	LTP231	ltpFR	7	n/a	n/a	n/a	n/a	n/a	n/a	16	8	5	3	n/a	n/a	n/a	n/a	n/a
1779.204	n/a	PROB	889602	n/a	LTP231	ltpFR	7	n/a	n/a	n/a	n/a	n/a	n/a	13	9	1	3	n/a	n/a	n/a	n/a	n/a
1783.446	n/a	STOP	891723	n/a	LTP231	ltpFR	7	n/a	n/a	n/a	n/a	n/a	n/a	n/a	n/a	n/a	n/a	n/a	n/a	n/a	n/a	n/a
1784.662	n/a	WORD	892331	wordpools/wasnorm_wordpool_less_exclusions.txt	LTP231	ltpFR	7	6	1	TOOTHBRUSH	1482	n/a	0	n/a	0	0	0	0	0.5869140625	0.422607421875	lower	../fonts/zerothre.ttf
1787.674	n/a	START	893837	n/a	LTP231	ltpFR	7	n/a	n/a	n/a	n/a	n/a	n/a	n/a	n/a	n/a	n/a	n/a	n/a	n/a	n/a	n/a
1788.846	n/a	PROB	894423	n/a	LTP231	ltpFR	7	n/a	n/a	n/a	n/a	n/a	n/a	18	3	9	6	n/a	n/a	n/a	n/a	n/a
1795.674	n/a	STOP	897837	n/a	LTP231	ltpFR	7	n/a	n/a	n/a	n/a	n/a	n/a	n/a	n/a	n/a	n/a	n/a	n/a	n/a	n/a	n/a
1796.804	n/a	WORD	898402	wordpools/wasnorm_wordpool_less_exclusions.txt	LTP231	ltpFR	7	6	1	STEAM	1375	n/a	0	n/a	0	0	0	0	0.5869140625	0.422607421875	lower	../fonts/zerothre.ttf
1799.822	n/a	START	899911	n/a	LTP231	ltpFR	7	n/a	n/a	n/a	n/a	n/a	n/a	n/a	n/a	n/a	n/a	n/a	n/a	n/a	n/a	n/a
1800.704	n/a	PROB	900352	n/a	LTP231	ltpFR	7	n/a	n/a	n/a	n/a	n/a	n/a	11	6	2	3	n/a	n/a	n/a	n/a	n/a
1807.06	n/a	STOP	903530	n/a	LTP231	ltpFR	7	n/a	n/a	n/a	n/a	n/a	n/a	n/a	n/a	n/a	n/a	n/a	n/a	n/a	n/a	n/a
1809.002	n/a	WORD	904501	wordpools/wasnorm_wordpool_less_exclusions.txt	LTP231	ltpFR	7	6	1	PRAIRIE	1118	n/a	0	n/a	0	0	0	0	0.5869140625	0.422607421875	lower	../fonts/zerothre.ttf
1812.018	n/a	START	906009	n/a	LTP231	ltpFR	7	n/a	n/a	n/a	n/a	n/a	n/a	n/a	n/a	n/a	n/a	n/a	n/a	n/a	n/a	n/a
1813.222	n/a	PROB	906611	n/a	LTP231	ltpFR	7	n/a	n/a	n/a	n/a	n/a	n/a	17	3	6	8	n/a	n/a	n/a	n/a	n/a
1820.018	n/a	STOP	910009	n/a	LTP231	ltpFR	7	n/a	n/a	n/a	n/a	n/a	n/a	n/a	n/a	n/a	n/a	n/a	n/a	n/a	n/a	n/a
1820.952	n/a	WORD	910476	wordpools/wasnorm_wordpool_less_exclusions.txt	LTP231	ltpFR	7	6	1	CAT	257	n/a	n/a	n/a	0	0	0	0	0.5869140625	0.422607421875	lower	../fonts/zerothre.ttf
1823.996	n/a	SLOW_MSG	911998	n/a	LTP231	ltpFR	7	6	n/a	n/a	n/a	n/a	n/a	n/a	0	0	0	n/a	n/a	n/a	n/a	n/a
1825.52	n/a	START	912760	n/a	LTP231	ltpFR	7	n/a	n/a	n/a	n/a	n/a	n/a	n/a	n/a	n/a	n/a	n/a	n/a	n/a	n/a	n/a
1826.372	n/a	PROB	913186	n/a	LTP231	ltpFR	7	n/a	n/a	n/a	n/a	n/a	n/a	9	7	1	1	n/a	n/a	n/a	n/a	n/a
1829.112	n/a	PROB	914556	n/a	LTP231	ltpFR	7	n/a	n/a	n/a	n/a	n/a	n/a	12	5	2	5	n/a	n/a	n/a	n/a	n/a
1833.52	n/a	STOP	916760	n/a	LTP231	ltpFR	7	n/a	n/a	n/a	n/a	n/a	n/a	n/a	n/a	n/a	n/a	n/a	n/a	n/a	n/a	n/a
1834.7	n/a	WORD	917350	wordpools/wasnorm_wordpool_less_exclusions.txt	LTP231	ltpFR	7	6	1	LID	817	n/a	0	n/a	0	0	0	0	0.5869140625	0.422607421875	lower	../fonts/zerothre.ttf
1837.716	n/a	START	918858	n/a	LTP231	ltpFR	7	n/a	n/a	n/a	n/a	n/a	n/a	n/a	n/a	n/a	n/a	n/a	n/a	n/a	n/a	n/a
1838.802	n/a	PROB	919401	n/a	LTP231	ltpFR	7	n/a	n/a	n/a	n/a	n/a	n/a	14	4	8	2	n/a	n/a	n/a	n/a	n/a
1840.824	n/a	PROB	920412	n/a	LTP231	ltpFR	7	n/a	n/a	n/a	n/a	n/a	n/a	9	3	1	5	n/a	n/a	n/a	n/a	n/a
1845.716	n/a	STOP	922858	n/a	LTP231	ltpFR	7	n/a	n/a	n/a	n/a	n/a	n/a	n/a	n/a	n/a	n/a	n/a	n/a	n/a	n/a	n/a
1846.566	n/a	WORD	923283	wordpools/wasnorm_wordpool_less_exclusions.txt	LTP231	ltpFR	7	6	1	TULIP	1517	n/a	1	n/a	0	0	0	0	0.5869140625	0.422607421875	lower	../fonts/zerothre.ttf
1849.578	n/a	START	924789	n/a	LTP231	ltpFR	7	n/a	n/a	n/a	n/a	n/a	n/a	n/a	n/a	n/a	n/a	n/a	n/a	n/a	n/a	n/a
1850.448	n/a	PROB	925224	n/a	LTP231	ltpFR	7	n/a	n/a	n/a	n/a	n/a	n/a	11	5	1	5	n/a	n/a	n/a	n/a	n/a
1852.166	n/a	PROB	926083	n/a	LTP231	ltpFR	7	n/a	n/a	n/a	n/a	n/a	n/a	14	2	6	6	n/a	n/a	n/a	n/a	n/a
1857.578	n/a	STOP	928789	n/a	LTP231	ltpFR	7	n/a	n/a	n/a	n/a	n/a	n/a	n/a	n/a	n/a	n/a	n/a	n/a	n/a	n/a	n/a
1858.462	n/a	WORD	929231	wordpools/wasnorm_wordpool_less_exclusions.txt	LTP231	ltpFR	7	6	1	RAKE	1164	n/a	0	n/a	0	0	0	0	0.5869140625	0.422607421875	lower	../fonts/zerothre.ttf
1861.474	n/a	START	930737	n/a	LTP231	ltpFR	7	n/a	n/a	n/a	n/a	n/a	n/a	n/a	n/a	n/a	n/a	n/a	n/a	n/a	n/a	n/a
1862.64	n/a	PROB	931320	n/a	LTP231	ltpFR	7	n/a	n/a	n/a	n/a	n/a	n/a	18	7	3	8	n/a	n/a	n/a	n/a	n/a
1865.418	n/a	PROB	932709	n/a	LTP231	ltpFR	7	n/a	n/a	n/a	n/a	n/a	n/a	7	3	1	3	n/a	n/a	n/a	n/a	n/a
1869.474	n/a	STOP	934737	n/a	LTP231	ltpFR	7	n/a	n/a	n/a	n/a	n/a	n/a	n/a	n/a	n/a	n/a	n/a	n/a	n/a	n/a	n/a
1870.704	n/a	WORD	935352	wordpools/wasnorm_wordpool_less_exclusions.txt	LTP231	ltpFR	7	6	1	ELECTRON	522	n/a	0	n/a	0	0	0	0	0.5869140625	0.422607421875	lower	../fonts/zerothre.ttf
1873.72	n/a	START	936860	n/a	LTP231	ltpFR	7	n/a	n/a	n/a	n/a	n/a	n/a	n/a	n/a	n/a	n/a	n/a	n/a	n/a	n/a	n/a
1874.82	n/a	PROB	937410	n/a	LTP231	ltpFR	7	n/a	n/a	n/a	n/a	n/a	n/a	13	8	1	4	n/a	n/a	n/a	n/a	n/a
1878.584	n/a	PROB	939292	n/a	LTP231	ltpFR	7	n/a	n/a	n/a	n/a	n/a	n/a	13	6	5	2	n/a	n/a	n/a	n/a	n/a
1881.256	n/a	STOP	940628	n/a	LTP231	ltpFR	7	n/a	n/a	n/a	n/a	n/a	n/a	n/a	n/a	n/a	n/a	n/a	n/a	n/a	n/a	n/a
1882.754	n/a	WORD	941377	wordpools/wasnorm_wordpool_less_exclusions.txt	LTP231	ltpFR	7	6	1	BREAD	170	n/a	0	n/a	0	0	0	0	0.5869140625	0.422607421875	lower	../fonts/zerothre.ttf
1885.766	n/a	START	942883	n/a	LTP231	ltpFR	7	n/a	n/a	n/a	n/a	n/a	n/a	n/a	n/a	n/a	n/a	n/a	n/a	n/a	n/a	n/a
1886.702	n/a	PROB	943351	n/a	LTP231	ltpFR	7	n/a	n/a	n/a	n/a	n/a	n/a	14	6	6	6	n/a	n/a	n/a	n/a	n/a
1893.766	n/a	STOP	946883	n/a	LTP231	ltpFR	7	n/a	n/a	n/a	n/a	n/a	n/a	n/a	n/a	n/a	n/a	n/a	n/a	n/a	n/a	n/a
1894.784	n/a	WORD	947392	wordpools/wasnorm_wordpool_less_exclusions.txt	LTP231	ltpFR	7	6	1	WALLET	1583	n/a	0	n/a	0	0	0	0	0.5869140625	0.422607421875	lower	../fonts/zerothre.ttf
1897.796	n/a	START	948898	n/a	LTP231	ltpFR	7	n/a	n/a	n/a	n/a	n/a	n/a	n/a	n/a	n/a	n/a	n/a	n/a	n/a	n/a	n/a
1899.0	n/a	PROB	949500	n/a	LTP231	ltpFR	7	n/a	n/a	n/a	n/a	n/a	n/a	18	9	1	8	n/a	n/a	n/a	n/a	n/a
1901.058	n/a	PROB	950529	n/a	LTP231	ltpFR	7	n/a	n/a	n/a	n/a	n/a	n/a	12	3	5	4	n/a	n/a	n/a	n/a	n/a
1905.796	n/a	STOP	952898	n/a	LTP231	ltpFR	7	n/a	n/a	n/a	n/a	n/a	n/a	n/a	n/a	n/a	n/a	n/a	n/a	n/a	n/a	n/a
1906.712	n/a	WORD	953356	wordpools/wasnorm_wordpool_less_exclusions.txt	LTP231	ltpFR	7	6	1	QUARTER	1148	n/a	0	n/a	0	0	0	0	0.5869140625	0.422607421875	lower	../fonts/zerothre.ttf
1909.724	n/a	START	954862	n/a	LTP231	ltpFR	7	n/a	n/a	n/a	n/a	n/a	n/a	n/a	n/a	n/a	n/a	n/a	n/a	n/a	n/a	n/a
1910.724	n/a	PROB	955362	n/a	LTP231	ltpFR	7	n/a	n/a	n/a	n/a	n/a	n/a	19	9	4	6	n/a	n/a	n/a	n/a	n/a
1913.116	n/a	PROB	956558	n/a	LTP231	ltpFR	7	n/a	n/a	n/a	n/a	n/a	n/a	15	3	5	7	n/a	n/a	n/a	n/a	n/a
1917.724	n/a	STOP	958862	n/a	LTP231	ltpFR	7	n/a	n/a	n/a	n/a	n/a	n/a	n/a	n/a	n/a	n/a	n/a	n/a	n/a	n/a	n/a
1918.624	n/a	WORD	959312	wordpools/wasnorm_wordpool_less_exclusions.txt	LTP231	ltpFR	7	6	1	FOX	598	n/a	1	n/a	0	0	0	0	0.5869140625	0.422607421875	lower	../fonts/zerothre.ttf
1921.636	n/a	START	960818	n/a	LTP231	ltpFR	7	n/a	n/a	n/a	n/a	n/a	n/a	n/a	n/a	n/a	n/a	n/a	n/a	n/a	n/a	n/a
1922.64	n/a	PROB	961320	n/a	LTP231	ltpFR	7	n/a	n/a	n/a	n/a	n/a	n/a	16	5	8	3	n/a	n/a	n/a	n/a	n/a
1925.614	n/a	PROB	962807	n/a	LTP231	ltpFR	7	n/a	n/a	n/a	n/a	n/a	n/a	13	1	6	6	n/a	n/a	n/a	n/a	n/a
1928.394	n/a	STOP	964197	n/a	LTP231	ltpFR	7	n/a	n/a	n/a	n/a	n/a	n/a	n/a	n/a	n/a	n/a	n/a	n/a	n/a	n/a	n/a
1931.474	n/a	REC_START	965737	n/a	LTP231	ltpFR	7	6	n/a	n/a	n/a	n/a	n/a	n/a	0	0	0	n/a	n/a	n/a	n/a	n/a
1933.816	n/a	REC_WORD_VV	966908	wordpools/wasnorm_wordpool_less_exclusions.txt	LTP231	ltpFR	7	6	n/a	<>	-1	n/a	n/a	n/a	0	0	0	n/a	n/a	n/a	n/a	n/a
1934.348	n/a	REC_WORD	967174	wordpools/wasnorm_wordpool_less_exclusions.txt	LTP231	ltpFR	7	6	1	FOX	598	n/a	1	n/a	0	0	0	n/a	n/a	n/a	n/a	n/a
1935.348	n/a	REC_WORD_VV	967674	wordpools/wasnorm_wordpool_less_exclusions.txt	LTP231	ltpFR	7	6	n/a	<>	-1	n/a	n/a	n/a	0	0	0	n/a	n/a	n/a	n/a	n/a
1952.594	n/a	REC_WORD_VV	976297	wordpools/wasnorm_wordpool_less_exclusions.txt	LTP231	ltpFR	7	6	n/a	<>	-1	n/a	n/a	n/a	0	0	0	n/a	n/a	n/a	n/a	n/a
1960.022	n/a	REC_WORD	980011	wordpools/wasnorm_wordpool_less_exclusions.txt	LTP231	ltpFR	7	6	1	CAT	257	n/a	n/a	n/a	0	0	0	n/a	n/a	n/a	n/a	n/a
1963.214	n/a	REC_WORD	981607	wordpools/wasnorm_wordpool_less_exclusions.txt	LTP231	ltpFR	7	6	1	TULIP	1517	n/a	1	n/a	0	0	0	n/a	n/a	n/a	n/a	n/a
2020.794	n/a	START	1010397	n/a	LTP231	ltpFR	7	n/a	n/a	n/a	n/a	n/a	n/a	n/a	n/a	n/a	n/a	n/a	n/a	n/a	n/a	n/a
2022.304	n/a	PROB	1011152	n/a	LTP231	ltpFR	7	n/a	n/a	n/a	n/a	n/a	n/a	16	4	3	9	n/a	n/a	n/a	n/a	n/a
2027.47	n/a	PROB	1013735	n/a	LTP231	ltpFR	7	n/a	n/a	n/a	n/a	n/a	n/a	8	1	4	3	n/a	n/a	n/a	n/a	n/a
2031.134	n/a	PROB	1015567	n/a	LTP231	ltpFR	7	n/a	n/a	n/a	n/a	n/a	n/a	6	3	2	1	n/a	n/a	n/a	n/a	n/a
2033.694	n/a	PROB	1016847	n/a	LTP231	ltpFR	7	n/a	n/a	n/a	n/a	n/a	n/a	19	9	4	6	n/a	n/a	n/a	n/a	n/a
2035.896	n/a	STOP	1017948	n/a	LTP231	ltpFR	7	n/a	n/a	n/a	n/a	n/a	n/a	n/a	n/a	n/a	n/a	n/a	n/a	n/a	n/a	n/a
2037.91	n/a	WORD	1018955	wordpools/wasnorm_wordpool_less_exclusions.txt	LTP231	ltpFR	7	7	0	AIRCRAFT	11	n/a	1	n/a	0	0	0	1	0.412841796875	0.57763671875	upper	../fonts/amplitud.ttf
2040.926	n/a	START	1020463	n/a	LTP231	ltpFR	7	n/a	n/a	n/a	n/a	n/a	n/a	n/a	n/a	n/a	n/a	n/a	n/a	n/a	n/a	n/a
2041.844	n/a	PROB	1020922	n/a	LTP231	ltpFR	7	n/a	n/a	n/a	n/a	n/a	n/a	15	9	2	4	n/a	n/a	n/a	n/a	n/a
2045.306	n/a	PROB	1022653	n/a	LTP231	ltpFR	7	n/a	n/a	n/a	n/a	n/a	n/a	16	6	4	6	n/a	n/a	n/a	n/a	n/a
2049.572	n/a	PROB	1024786	n/a	LTP231	ltpFR	7	n/a	n/a	n/a	n/a	n/a	n/a	4	2	1	1	n/a	n/a	n/a	n/a	n/a
2051.516	n/a	PROB	1025758	n/a	LTP231	ltpFR	7	n/a	n/a	n/a	n/a	n/a	n/a	19	7	3	9	n/a	n/a	n/a	n/a	n/a
2053.62	n/a	PROB	1026810	n/a	LTP231	ltpFR	7	n/a	n/a	n/a	n/a	n/a	n/a	7	5	1	1	n/a	n/a	n/a	n/a	n/a
2056.926	n/a	STOP	1028463	n/a	LTP231	ltpFR	7	n/a	n/a	n/a	n/a	n/a	n/a	n/a	n/a	n/a	n/a	n/a	n/a	n/a	n/a	n/a
2058.124	n/a	WORD	1029062	wordpools/wasnorm_wordpool_less_exclusions.txt	LTP231	ltpFR	7	7	0	TUBA	1515	n/a	1	n/a	0	0	0	1	0.412841796875	0.57763671875	upper	../fonts/amplitud.ttf
2061.136	n/a	START	1030568	n/a	LTP231	ltpFR	7	n/a	n/a	n/a	n/a	n/a	n/a	n/a	n/a	n/a	n/a	n/a	n/a	n/a	n/a	n/a
2062.206	n/a	PROB	1031103	n/a	LTP231	ltpFR	7	n/a	n/a	n/a	n/a	n/a	n/a	10	6	2	2	n/a	n/a	n/a	n/a	n/a
2064.594	n/a	PROB	1032297	n/a	LTP231	ltpFR	7	n/a	n/a	n/a	n/a	n/a	n/a	15	6	8	1	n/a	n/a	n/a	n/a	n/a
2067.478	n/a	PROB	1033739	n/a	LTP231	ltpFR	7	n/a	n/a	n/a	n/a	n/a	n/a	6	4	1	1	n/a	n/a	n/a	n/a	n/a
2069.298	n/a	PROB	1034649	n/a	LTP231	ltpFR	7	n/a	n/a	n/a	n/a	n/a	n/a	12	3	5	4	n/a	n/a	n/a	n/a	n/a
2072.998	n/a	PROB	1036499	n/a	LTP231	ltpFR	7	n/a	n/a	n/a	n/a	n/a	n/a	15	7	6	2	n/a	n/a	n/a	n/a	n/a
2076.786	n/a	STOP	1038393	n/a	LTP231	ltpFR	7	n/a	n/a	n/a	n/a	n/a	n/a	n/a	n/a	n/a	n/a	n/a	n/a	n/a	n/a	n/a
2078.034	n/a	WORD	1039017	wordpools/wasnorm_wordpool_less_exclusions.txt	LTP231	ltpFR	7	7	0	FIDDLE	561	n/a	0	n/a	0	0	0	1	0.412841796875	0.57763671875	upper	../fonts/amplitud.ttf
2081.046	n/a	START	1040523	n/a	LTP231	ltpFR	7	n/a	n/a	n/a	n/a	n/a	n/a	n/a	n/a	n/a	n/a	n/a	n/a	n/a	n/a	n/a
2081.882	n/a	PROB	1040941	n/a	LTP231	ltpFR	7	n/a	n/a	n/a	n/a	n/a	n/a	21	9	7	5	n/a	n/a	n/a	n/a	n/a
2086.028	n/a	PROB	1043014	n/a	LTP231	ltpFR	7	n/a	n/a	n/a	n/a	n/a	n/a	14	9	1	4	n/a	n/a	n/a	n/a	n/a
2089.508	n/a	PROB	1044754	n/a	LTP231	ltpFR	7	n/a	n/a	n/a	n/a	n/a	n/a	18	7	2	9	n/a	n/a	n/a	n/a	n/a
2092.824	n/a	PROB	1046412	n/a	LTP231	ltpFR	7	n/a	n/a	n/a	n/a	n/a	n/a	17	8	2	7	n/a	n/a	n/a	n/a	n/a
2097.034	n/a	STOP	1048517	n/a	LTP231	ltpFR	7	n/a	n/a	n/a	n/a	n/a	n/a	n/a	n/a	n/a	n/a	n/a	n/a	n/a	n/a	n/a
2098.194	n/a	WORD	1049097	wordpools/wasnorm_wordpool_less_exclusions.txt	LTP231	ltpFR	7	7	0	UNICORN	1538	n/a	1	n/a	0	0	0	1	0.412841796875	0.57763671875	upper	../fonts/amplitud.ttf
2101.206	n/a	START	1050603	n/a	LTP231	ltpFR	7	n/a	n/a	n/a	n/a	n/a	n/a	n/a	n/a	n/a	n/a	n/a	n/a	n/a	n/a	n/a
2102.208	n/a	PROB	1051104	n/a	LTP231	ltpFR	7	n/a	n/a	n/a	n/a	n/a	n/a	12	7	3	2	n/a	n/a	n/a	n/a	n/a
2104.15	n/a	PROB	1052075	n/a	LTP231	ltpFR	7	n/a	n/a	n/a	n/a	n/a	n/a	20	6	9	5	n/a	n/a	n/a	n/a	n/a
2108.696	n/a	PROB	1054348	n/a	LTP231	ltpFR	7	n/a	n/a	n/a	n/a	n/a	n/a	17	6	9	2	n/a	n/a	n/a	n/a	n/a
2112.946	n/a	PROB	1056473	n/a	LTP231	ltpFR	7	n/a	n/a	n/a	n/a	n/a	n/a	19	7	5	7	n/a	n/a	n/a	n/a	n/a
2115.828	n/a	STOP	1057914	n/a	LTP231	ltpFR	7	n/a	n/a	n/a	n/a	n/a	n/a	n/a	n/a	n/a	n/a	n/a	n/a	n/a	n/a	n/a
2118.086	n/a	WORD	1059043	wordpools/wasnorm_wordpool_less_exclusions.txt	LTP231	ltpFR	7	7	0	SYRUP	1425	n/a	1	n/a	0	0	0	1	0.412841796875	0.57763671875	upper	../fonts/amplitud.ttf
2121.098	n/a	START	1060549	n/a	LTP231	ltpFR	7	n/a	n/a	n/a	n/a	n/a	n/a	n/a	n/a	n/a	n/a	n/a	n/a	n/a	n/a	n/a
2122.184	n/a	PROB	1061092	n/a	LTP231	ltpFR	7	n/a	n/a	n/a	n/a	n/a	n/a	13	5	6	2	n/a	n/a	n/a	n/a	n/a
2127.336	n/a	PROB	1063668	n/a	LTP231	ltpFR	7	n/a	n/a	n/a	n/a	n/a	n/a	8	2	1	5	n/a	n/a	n/a	n/a	n/a
2130.464	n/a	PROB	1065232	n/a	LTP231	ltpFR	7	n/a	n/a	n/a	n/a	n/a	n/a	12	8	2	2	n/a	n/a	n/a	n/a	n/a
2137.1	n/a	STOP	1068550	n/a	LTP231	ltpFR	7	n/a	n/a	n/a	n/a	n/a	n/a	n/a	n/a	n/a	n/a	n/a	n/a	n/a	n/a	n/a
2138.146	n/a	WORD	1069073	wordpools/wasnorm_wordpool_less_exclusions.txt	LTP231	ltpFR	7	7	0	LADDER	793	n/a	1	n/a	0	0	0	1	0.412841796875	0.57763671875	upper	../fonts/amplitud.ttf
2141.158	n/a	START	1070579	n/a	LTP231	ltpFR	7	n/a	n/a	n/a	n/a	n/a	n/a	n/a	n/a	n/a	n/a	n/a	n/a	n/a	n/a	n/a
2142.344	n/a	PROB	1071172	n/a	LTP231	ltpFR	7	n/a	n/a	n/a	n/a	n/a	n/a	19	9	6	4	n/a	n/a	n/a	n/a	n/a
2144.568	n/a	PROB	1072284	n/a	LTP231	ltpFR	7	n/a	n/a	n/a	n/a	n/a	n/a	17	8	2	7	n/a	n/a	n/a	n/a	n/a
2146.51	n/a	PROB	1073255	n/a	LTP231	ltpFR	7	n/a	n/a	n/a	n/a	n/a	n/a	14	6	2	6	n/a	n/a	n/a	n/a	n/a
2149.488	n/a	PROB	1074744	n/a	LTP231	ltpFR	7	n/a	n/a	n/a	n/a	n/a	n/a	23	7	9	7	n/a	n/a	n/a	n/a	n/a
2153.05	n/a	PROB	1076525	n/a	LTP231	ltpFR	7	n/a	n/a	n/a	n/a	n/a	n/a	26	9	9	8	n/a	n/a	n/a	n/a	n/a
2156.974	n/a	STOP	1078487	n/a	LTP231	ltpFR	7	n/a	n/a	n/a	n/a	n/a	n/a	n/a	n/a	n/a	n/a	n/a	n/a	n/a	n/a	n/a
2158.168	n/a	WORD	1079084	wordpools/wasnorm_wordpool_less_exclusions.txt	LTP231	ltpFR	7	7	0	CANNON	232	n/a	1	n/a	0	0	0	1	0.412841796875	0.57763671875	upper	../fonts/amplitud.ttf
2161.186	n/a	START	1080593	n/a	LTP231	ltpFR	7	n/a	n/a	n/a	n/a	n/a	n/a	n/a	n/a	n/a	n/a	n/a	n/a	n/a	n/a	n/a
2162.172	n/a	PROB	1081086	n/a	LTP231	ltpFR	7	n/a	n/a	n/a	n/a	n/a	n/a	18	6	8	4	n/a	n/a	n/a	n/a	n/a
2166.284	n/a	PROB	1083142	n/a	LTP231	ltpFR	7	n/a	n/a	n/a	n/a	n/a	n/a	21	6	8	7	n/a	n/a	n/a	n/a	n/a
2170.034	n/a	PROB	1085017	n/a	LTP231	ltpFR	7	n/a	n/a	n/a	n/a	n/a	n/a	20	9	3	8	n/a	n/a	n/a	n/a	n/a
2173.314	n/a	PROB	1086657	n/a	LTP231	ltpFR	7	n/a	n/a	n/a	n/a	n/a	n/a	7	1	5	1	n/a	n/a	n/a	n/a	n/a
2177.186	n/a	STOP	1088593	n/a	LTP231	ltpFR	7	n/a	n/a	n/a	n/a	n/a	n/a	n/a	n/a	n/a	n/a	n/a	n/a	n/a	n/a	n/a
2178.062	n/a	WORD	1089031	wordpools/wasnorm_wordpool_less_exclusions.txt	LTP231	ltpFR	7	7	0	SHEEP	1278	n/a	1	n/a	0	0	0	1	0.412841796875	0.57763671875	upper	../fonts/amplitud.ttf
2181.078	n/a	START	1090539	n/a	LTP231	ltpFR	7	n/a	n/a	n/a	n/a	n/a	n/a	n/a	n/a	n/a	n/a	n/a	n/a	n/a	n/a	n/a
2182.132	n/a	PROB	1091066	n/a	LTP231	ltpFR	7	n/a	n/a	n/a	n/a	n/a	n/a	15	6	6	3	n/a	n/a	n/a	n/a	n/a
2184.658	n/a	PROB	1092329	n/a	LTP231	ltpFR	7	n/a	n/a	n/a	n/a	n/a	n/a	21	6	8	7	n/a	n/a	n/a	n/a	n/a
2189.322	n/a	PROB	1094661	n/a	LTP231	ltpFR	7	n/a	n/a	n/a	n/a	n/a	n/a	10	1	2	7	n/a	n/a	n/a	n/a	n/a
2191.882	n/a	PROB	1095941	n/a	LTP231	ltpFR	7	n/a	n/a	n/a	n/a	n/a	n/a	7	1	2	4	n/a	n/a	n/a	n/a	n/a
2197.078	n/a	STOP	1098539	n/a	LTP231	ltpFR	7	n/a	n/a	n/a	n/a	n/a	n/a	n/a	n/a	n/a	n/a	n/a	n/a	n/a	n/a	n/a
2198.258	n/a	WORD	1099129	wordpools/wasnorm_wordpool_less_exclusions.txt	LTP231	ltpFR	7	7	0	PIRATE	1074	n/a	1	n/a	0	0	0	1	0.412841796875	0.57763671875	upper	../fonts/amplitud.ttf
2201.272	n/a	START	1100636	n/a	LTP231	ltpFR	7	n/a	n/a	n/a	n/a	n/a	n/a	n/a	n/a	n/a	n/a	n/a	n/a	n/a	n/a	n/a
2202.326	n/a	PROB	1101163	n/a	LTP231	ltpFR	7	n/a	n/a	n/a	n/a	n/a	n/a	11	3	5	3	n/a	n/a	n/a	n/a	n/a
2205.734	n/a	PROB	1102867	n/a	LTP231	ltpFR	7	n/a	n/a	n/a	n/a	n/a	n/a	12	3	6	3	n/a	n/a	n/a	n/a	n/a
2208.7	n/a	PROB	1104350	n/a	LTP231	ltpFR	7	n/a	n/a	n/a	n/a	n/a	n/a	17	7	4	6	n/a	n/a	n/a	n/a	n/a
2210.836	n/a	PROB	1105418	n/a	LTP231	ltpFR	7	n/a	n/a	n/a	n/a	n/a	n/a	9	6	1	2	n/a	n/a	n/a	n/a	n/a
2213.652	n/a	PROB	1106826	n/a	LTP231	ltpFR	7	n/a	n/a	n/a	n/a	n/a	n/a	20	6	7	7	n/a	n/a	n/a	n/a	n/a
2216.056	n/a	STOP	1108028	n/a	LTP231	ltpFR	7	n/a	n/a	n/a	n/a	n/a	n/a	n/a	n/a	n/a	n/a	n/a	n/a	n/a	n/a	n/a
2218.354	n/a	WORD	1109177	wordpools/wasnorm_wordpool_less_exclusions.txt	LTP231	ltpFR	7	7	0	RING	1193	n/a	0	n/a	0	0	0	1	0.412841796875	0.57763671875	upper	../fonts/amplitud.ttf
2221.366	n/a	START	1110683	n/a	LTP231	ltpFR	7	n/a	n/a	n/a	n/a	n/a	n/a	n/a	n/a	n/a	n/a	n/a	n/a	n/a	n/a	n/a
2222.536	n/a	PROB	1111268	n/a	LTP231	ltpFR	7	n/a	n/a	n/a	n/a	n/a	n/a	17	9	4	4	n/a	n/a	n/a	n/a	n/a
2226.684	n/a	PROB	1113342	n/a	LTP231	ltpFR	7	n/a	n/a	n/a	n/a	n/a	n/a	24	9	6	9	n/a	n/a	n/a	n/a	n/a
2231.03	n/a	PROB	1115515	n/a	LTP231	ltpFR	7	n/a	n/a	n/a	n/a	n/a	n/a	19	9	5	5	n/a	n/a	n/a	n/a	n/a
2233.808	n/a	PROB	1116904	n/a	LTP231	ltpFR	7	n/a	n/a	n/a	n/a	n/a	n/a	12	1	6	5	n/a	n/a	n/a	n/a	n/a
2236.41	n/a	STOP	1118205	n/a	LTP231	ltpFR	7	n/a	n/a	n/a	n/a	n/a	n/a	n/a	n/a	n/a	n/a	n/a	n/a	n/a	n/a	n/a
2238.33	n/a	WORD	1119165	wordpools/wasnorm_wordpool_less_exclusions.txt	LTP231	ltpFR	7	7	0	GOLD	647	n/a	0	n/a	0	0	0	1	0.412841796875	0.57763671875	upper	../fonts/amplitud.ttf
2241.342	n/a	START	1120671	n/a	LTP231	ltpFR	7	n/a	n/a	n/a	n/a	n/a	n/a	n/a	n/a	n/a	n/a	n/a	n/a	n/a	n/a	n/a
2242.312	n/a	PROB	1121156	n/a	LTP231	ltpFR	7	n/a	n/a	n/a	n/a	n/a	n/a	13	4	4	5	n/a	n/a	n/a	n/a	n/a
2245.888	n/a	PROB	1122944	n/a	LTP231	ltpFR	7	n/a	n/a	n/a	n/a	n/a	n/a	11	1	1	9	n/a	n/a	n/a	n/a	n/a
2247.644	n/a	PROB	1123822	n/a	LTP231	ltpFR	7	n/a	n/a	n/a	n/a	n/a	n/a	13	7	5	1	n/a	n/a	n/a	n/a	n/a
2250.822	n/a	PROB	1125411	n/a	LTP231	ltpFR	7	n/a	n/a	n/a	n/a	n/a	n/a	16	9	3	4	n/a	n/a	n/a	n/a	n/a
2254.24	n/a	PROB	1127120	n/a	LTP231	ltpFR	7	n/a	n/a	n/a	n/a	n/a	n/a	17	7	2	8	n/a	n/a	n/a	n/a	n/a
2256.356	n/a	STOP	1128178	n/a	LTP231	ltpFR	7	n/a	n/a	n/a	n/a	n/a	n/a	n/a	n/a	n/a	n/a	n/a	n/a	n/a	n/a	n/a
2258.306	n/a	WORD	1129153	wordpools/wasnorm_wordpool_less_exclusions.txt	LTP231	ltpFR	7	7	0	VESSEL	1558	n/a	1	n/a	0	0	0	1	0.412841796875	0.57763671875	upper	../fonts/amplitud.ttf
2261.318	n/a	START	1130659	n/a	LTP231	ltpFR	7	n/a	n/a	n/a	n/a	n/a	n/a	n/a	n/a	n/a	n/a	n/a	n/a	n/a	n/a	n/a
2262.418	n/a	PROB	1131209	n/a	LTP231	ltpFR	7	n/a	n/a	n/a	n/a	n/a	n/a	19	3	8	8	n/a	n/a	n/a	n/a	n/a
2265.194	n/a	PROB	1132597	n/a	LTP231	ltpFR	7	n/a	n/a	n/a	n/a	n/a	n/a	18	2	9	7	n/a	n/a	n/a	n/a	n/a
2268.172	n/a	PROB	1134086	n/a	LTP231	ltpFR	7	n/a	n/a	n/a	n/a	n/a	n/a	4	1	2	1	n/a	n/a	n/a	n/a	n/a
2269.712	n/a	PROB	1134856	n/a	LTP231	ltpFR	7	n/a	n/a	n/a	n/a	n/a	n/a	13	3	3	7	n/a	n/a	n/a	n/a	n/a
2272.71	n/a	PROB	1136355	n/a	LTP231	ltpFR	7	n/a	n/a	n/a	n/a	n/a	n/a	9	5	2	3	n/a	n/a	n/a	n/a	n/a
2277.32	n/a	STOP	1138660	n/a	LTP231	ltpFR	7	n/a	n/a	n/a	n/a	n/a	n/a	n/a	n/a	n/a	n/a	n/a	n/a	n/a	n/a	n/a
2278.5	n/a	WORD	1139250	wordpools/wasnorm_wordpool_less_exclusions.txt	LTP231	ltpFR	7	7	0	CREATURE	403	n/a	1	n/a	0	0	0	1	0.412841796875	0.57763671875	upper	../fonts/amplitud.ttf
2281.512	n/a	START	1140756	n/a	LTP231	ltpFR	7	n/a	n/a	n/a	n/a	n/a	n/a	n/a	n/a	n/a	n/a	n/a	n/a	n/a	n/a	n/a
2282.716	n/a	PROB	1141358	n/a	LTP231	ltpFR	7	n/a	n/a	n/a	n/a	n/a	n/a	8	4	3	1	n/a	n/a	n/a	n/a	n/a
2284.936	n/a	PROB	1142468	n/a	LTP231	ltpFR	7	n/a	n/a	n/a	n/a	n/a	n/a	15	7	2	6	n/a	n/a	n/a	n/a	n/a
2291.346	n/a	PROB	1145673	n/a	LTP231	ltpFR	7	n/a	n/a	n/a	n/a	n/a	n/a	18	5	8	5	n/a	n/a	n/a	n/a	n/a
2293.404	n/a	PROB	1146702	n/a	LTP231	ltpFR	7	n/a	n/a	n/a	n/a	n/a	n/a	15	8	3	3	n/a	n/a	n/a	n/a	n/a
2296.622	n/a	STOP	1148311	n/a	LTP231	ltpFR	7	n/a	n/a	n/a	n/a	n/a	n/a	n/a	n/a	n/a	n/a	n/a	n/a	n/a	n/a	n/a
2298.426	n/a	WORD	1149213	wordpools/wasnorm_wordpool_less_exclusions.txt	LTP231	ltpFR	7	7	0	MULE	931	n/a	1	n/a	0	0	0	1	0.412841796875	0.57763671875	upper	../fonts/amplitud.ttf
2301.438	n/a	START	1150719	n/a	LTP231	ltpFR	7	n/a	n/a	n/a	n/a	n/a	n/a	n/a	n/a	n/a	n/a	n/a	n/a	n/a	n/a	n/a
2302.538	n/a	PROB	1151269	n/a	LTP231	ltpFR	7	n/a	n/a	n/a	n/a	n/a	n/a	15	2	6	7	n/a	n/a	n/a	n/a	n/a
2306.234	n/a	PROB	1153117	n/a	LTP231	ltpFR	7	n/a	n/a	n/a	n/a	n/a	n/a	13	1	6	6	n/a	n/a	n/a	n/a	n/a
2308.848	n/a	PROB	1154424	n/a	LTP231	ltpFR	7	n/a	n/a	n/a	n/a	n/a	n/a	10	4	2	4	n/a	n/a	n/a	n/a	n/a
2311.27	n/a	PROB	1155635	n/a	LTP231	ltpFR	7	n/a	n/a	n/a	n/a	n/a	n/a	21	5	7	9	n/a	n/a	n/a	n/a	n/a
2317.44	n/a	STOP	1158720	n/a	LTP231	ltpFR	7	n/a	n/a	n/a	n/a	n/a	n/a	n/a	n/a	n/a	n/a	n/a	n/a	n/a	n/a	n/a
2318.47	n/a	WORD	1159235	wordpools/wasnorm_wordpool_less_exclusions.txt	LTP231	ltpFR	7	7	0	BATHTUB	100	n/a	2	n/a	0	0	0	1	0.412841796875	0.57763671875	upper	../fonts/amplitud.ttf
2319.674	n/a	KEY_MSG	1159837	n/a	LTP231	ltpFR	7	7	n/a	n/a	n/a	n/a	n/a	n/a	0	0	0	n/a	n/a	n/a	n/a	n/a
2321.482	n/a	START	1160741	n/a	LTP231	ltpFR	7	n/a	n/a	n/a	n/a	n/a	n/a	n/a	n/a	n/a	n/a	n/a	n/a	n/a	n/a	n/a
2322.502	n/a	PROB	1161251	n/a	LTP231	ltpFR	7	n/a	n/a	n/a	n/a	n/a	n/a	17	9	6	2	n/a	n/a	n/a	n/a	n/a
2327.554	n/a	PROB	1163777	n/a	LTP231	ltpFR	7	n/a	n/a	n/a	n/a	n/a	n/a	13	6	5	2	n/a	n/a	n/a	n/a	n/a
2330.13	n/a	PROB	1165065	n/a	LTP231	ltpFR	7	n/a	n/a	n/a	n/a	n/a	n/a	23	9	5	9	n/a	n/a	n/a	n/a	n/a
2333.508	n/a	PROB	1166754	n/a	LTP231	ltpFR	7	n/a	n/a	n/a	n/a	n/a	n/a	16	4	6	6	n/a	n/a	n/a	n/a	n/a
2337.112	n/a	STOP	1168556	n/a	LTP231	ltpFR	7	n/a	n/a	n/a	n/a	n/a	n/a	n/a	n/a	n/a	n/a	n/a	n/a	n/a	n/a	n/a
2338.312	n/a	WORD	1169156	wordpools/wasnorm_wordpool_less_exclusions.txt	LTP231	ltpFR	7	7	0	SOAP	1337	n/a	0	n/a	0	0	0	1	0.412841796875	0.57763671875	upper	../fonts/amplitud.ttf
2341.324	n/a	START	1170662	n/a	LTP231	ltpFR	7	n/a	n/a	n/a	n/a	n/a	n/a	n/a	n/a	n/a	n/a	n/a	n/a	n/a	n/a	n/a
2342.192	n/a	PROB	1171096	n/a	LTP231	ltpFR	7	n/a	n/a	n/a	n/a	n/a	n/a	17	9	5	3	n/a	n/a	n/a	n/a	n/a
2345.702	n/a	PROB	1172851	n/a	LTP231	ltpFR	7	n/a	n/a	n/a	n/a	n/a	n/a	15	3	4	8	n/a	n/a	n/a	n/a	n/a
2349.014	n/a	PROB	1174507	n/a	LTP231	ltpFR	7	n/a	n/a	n/a	n/a	n/a	n/a	11	1	7	3	n/a	n/a	n/a	n/a	n/a
2352.53	n/a	PROB	1176265	n/a	LTP231	ltpFR	7	n/a	n/a	n/a	n/a	n/a	n/a	15	8	6	1	n/a	n/a	n/a	n/a	n/a
2357.324	n/a	STOP	1178662	n/a	LTP231	ltpFR	7	n/a	n/a	n/a	n/a	n/a	n/a	n/a	n/a	n/a	n/a	n/a	n/a	n/a	n/a	n/a
2359.226	n/a	REC_START	1179613	n/a	LTP231	ltpFR	7	7	n/a	n/a	n/a	n/a	n/a	n/a	0	0	0	n/a	n/a	n/a	n/a	n/a
2360.528	n/a	REC_WORD	1180264	wordpools/wasnorm_wordpool_less_exclusions.txt	LTP231	ltpFR	7	7	0	VESSEL	1558	n/a	1	n/a	0	0	0	n/a	n/a	n/a	n/a	n/a
2361.734	n/a	REC_WORD	1180867	wordpools/wasnorm_wordpool_less_exclusions.txt	LTP231	ltpFR	7	7	n/a	MEAL	882	n/a	n/a	n/a	0	0	0	n/a	n/a	n/a	n/a	n/a
2363.52	n/a	REC_WORD	1181760	wordpools/wasnorm_wordpool_less_exclusions.txt	LTP231	ltpFR	7	7	0	SOAP	1337	n/a	0	n/a	0	0	0	n/a	n/a	n/a	n/a	n/a
2449.988	n/a	WORD	1224994	wordpools/wasnorm_wordpool_less_exclusions.txt	LTP231	ltpFR	7	8	1	SERGEANT	1269	n/a	1	n/a	0	0	0	0	0.5869140625	0.422607421875	lower	../fonts/zerothre.ttf
2454.066	n/a	WORD	1227033	wordpools/wasnorm_wordpool_less_exclusions.txt	LTP231	ltpFR	7	8	1	BEAKER	104	n/a	0	n/a	0	0	0	0	0.5869140625	0.422607421875	lower	../fonts/zerothre.ttf
2458.036	n/a	WORD	1229018	wordpools/wasnorm_wordpool_less_exclusions.txt	LTP231	ltpFR	7	8	1	DOORBELL	487	n/a	0	n/a	0	0	0	0	0.5869140625	0.422607421875	lower	../fonts/zerothre.ttf
2462.168	n/a	WORD	1231084	wordpools/wasnorm_wordpool_less_exclusions.txt	LTP231	ltpFR	7	8	1	ASSOCIATE	49	n/a	1	n/a	0	0	0	0	0.5869140625	0.422607421875	lower	../fonts/zerothre.ttf
2466.016	n/a	WORD	1233008	wordpools/wasnorm_wordpool_less_exclusions.txt	LTP231	ltpFR	7	8	1	CONSOLE	364	n/a	0	n/a	0	0	0	0	0.5869140625	0.422607421875	lower	../fonts/zerothre.ttf
2470.216	n/a	WORD	1235108	wordpools/wasnorm_wordpool_less_exclusions.txt	LTP231	ltpFR	7	8	1	FOE	587	n/a	0	n/a	0	0	0	0	0.5869140625	0.422607421875	lower	../fonts/zerothre.ttf
2474.366	n/a	WORD	1237183	wordpools/wasnorm_wordpool_less_exclusions.txt	LTP231	ltpFR	7	8	1	ARCHITECT	36	n/a	1	n/a	0	0	0	0	0.5869140625	0.422607421875	lower	../fonts/zerothre.ttf
2478.348	n/a	WORD	1239174	wordpools/wasnorm_wordpool_less_exclusions.txt	LTP231	ltpFR	7	8	1	SPIDER	1351	n/a	1	n/a	0	0	0	0	0.5869140625	0.422607421875	lower	../fonts/zerothre.ttf
2482.408	n/a	WORD	1241204	wordpools/wasnorm_wordpool_less_exclusions.txt	LTP231	ltpFR	7	8	1	MOTH	920	n/a	1	n/a	0	0	0	0	0.5869140625	0.422607421875	lower	../fonts/zerothre.ttf
2486.512	n/a	WORD	1243256	wordpools/wasnorm_wordpool_less_exclusions.txt	LTP231	ltpFR	7	8	1	COMMANDER	354	n/a	1	n/a	0	0	0	0	0.5869140625	0.422607421875	lower	../fonts/zerothre.ttf
2490.706	n/a	WORD	1245353	wordpools/wasnorm_wordpool_less_exclusions.txt	LTP231	ltpFR	7	8	1	ROOMMATE	1207	n/a	1	n/a	0	0	0	0	0.5869140625	0.422607421875	lower	../fonts/zerothre.ttf
2494.826	n/a	WORD	1247413	wordpools/wasnorm_wordpool_less_exclusions.txt	LTP231	ltpFR	7	8	1	WHISKERS	1605	n/a	0	n/a	0	0	0	0	0.5869140625	0.422607421875	lower	../fonts/zerothre.ttf
2498.958	n/a	WORD	1249479	wordpools/wasnorm_wordpool_less_exclusions.txt	LTP231	ltpFR	7	8	1	BANDANNA	80	n/a	0	n/a	0	0	0	0	0.5869140625	0.422607421875	lower	../fonts/zerothre.ttf
2502.924	n/a	WORD	1251462	wordpools/wasnorm_wordpool_less_exclusions.txt	LTP231	ltpFR	7	8	1	WIRE	1616	n/a	0	n/a	0	0	0	0	0.5869140625	0.422607421875	lower	../fonts/zerothre.ttf
2506.872	n/a	WORD	1253436	wordpools/wasnorm_wordpool_less_exclusions.txt	LTP231	ltpFR	7	8	1	TERRITORY	1452	n/a	0	n/a	0	0	0	0	0.5869140625	0.422607421875	lower	../fonts/zerothre.ttf
2511.038	n/a	WORD	1255519	wordpools/wasnorm_wordpool_less_exclusions.txt	LTP231	ltpFR	7	8	1	JEANS	752	n/a	0	n/a	0	0	0	0	0.5869140625	0.422607421875	lower	../fonts/zerothre.ttf
2516.944	n/a	REC_START	1258472	n/a	LTP231	ltpFR	7	8	n/a	n/a	n/a	n/a	n/a	n/a	0	0	0	n/a	n/a	n/a	n/a	n/a
2519.568	n/a	REC_WORD	1259784	wordpools/wasnorm_wordpool_less_exclusions.txt	LTP231	ltpFR	7	8	1	MOTH	920	n/a	1	n/a	0	0	0	n/a	n/a	n/a	n/a	n/a
2520.282	n/a	REC_WORD	1260141	wordpools/wasnorm_wordpool_less_exclusions.txt	LTP231	ltpFR	7	8	1	SPIDER	1351	n/a	1	n/a	0	0	0	n/a	n/a	n/a	n/a	n/a
2521.376	n/a	REC_WORD	1260688	wordpools/wasnorm_wordpool_less_exclusions.txt	LTP231	ltpFR	7	8	1	COMMANDER	354	n/a	1	n/a	0	0	0	n/a	n/a	n/a	n/a	n/a
2522.718	n/a	REC_WORD	1261359	wordpools/wasnorm_wordpool_less_exclusions.txt	LTP231	ltpFR	7	8	1	ROOMMATE	1207	n/a	1	n/a	0	0	0	n/a	n/a	n/a	n/a	n/a
2523.664	n/a	REC_WORD	1261832	wordpools/wasnorm_wordpool_less_exclusions.txt	LTP231	ltpFR	7	8	1	FOE	587	n/a	0	n/a	0	0	0	n/a	n/a	n/a	n/a	n/a
2525.536	n/a	REC_WORD	1262768	wordpools/wasnorm_wordpool_less_exclusions.txt	LTP231	ltpFR	7	8	1	ASSOCIATE	49	n/a	1	n/a	0	0	0	n/a	n/a	n/a	n/a	n/a
2532.356	n/a	REC_WORD	1266178	wordpools/wasnorm_wordpool_less_exclusions.txt	LTP231	ltpFR	7	8	1	MOTH	920	n/a	1	n/a	0	0	0	n/a	n/a	n/a	n/a	n/a
2533.438	n/a	REC_WORD	1266719	wordpools/wasnorm_wordpool_less_exclusions.txt	LTP231	ltpFR	7	8	1	BANDANNA	80	n/a	0	n/a	0	0	0	n/a	n/a	n/a	n/a	n/a
2534.566	n/a	REC_WORD	1267283	wordpools/wasnorm_wordpool_less_exclusions.txt	LTP231	ltpFR	7	8	1	WHISKERS	1605	n/a	0	n/a	0	0	0	n/a	n/a	n/a	n/a	n/a
2535.566	n/a	REC_WORD_VV	1267783	wordpools/wasnorm_wordpool_less_exclusions.txt	LTP231	ltpFR	7	8	n/a	<>	-1	n/a	n/a	n/a	0	0	0	n/a	n/a	n/a	n/a	n/a
2536.596	n/a	REC_WORD	1268298	wordpools/wasnorm_wordpool_less_exclusions.txt	LTP231	ltpFR	7	8	1	JEANS	752	n/a	0	n/a	0	0	0	n/a	n/a	n/a	n/a	n/a
2537.596	n/a	REC_WORD_VV	1268798	wordpools/wasnorm_wordpool_less_exclusions.txt	LTP231	ltpFR	7	8	n/a	<>	-1	n/a	n/a	n/a	0	0	0	n/a	n/a	n/a	n/a	n/a
2550.934	n/a	REC_WORD_VV	1275467	wordpools/wasnorm_wordpool_less_exclusions.txt	LTP231	ltpFR	7	8	n/a	<>	-1	n/a	n/a	n/a	0	0	0	n/a	n/a	n/a	n/a	n/a
2601.266	n/a	WORD	1300633	wordpools/wasnorm_wordpool_less_exclusions.txt	LTP231	ltpFR	7	9	1	BANKER	84	n/a	1	n/a	0	0	0	0	0.5869140625	0.422607421875	lower	../fonts/zerothre.ttf
2605.484	n/a	WORD	1302742	wordpools/wasnorm_wordpool_less_exclusions.txt	LTP231	ltpFR	7	9	1	SKYSCRAPER	1322	n/a	0	n/a	0	0	0	0	0.5869140625	0.422607421875	lower	../fonts/zerothre.ttf
2609.66	n/a	WORD	1304830	wordpools/wasnorm_wordpool_less_exclusions.txt	LTP231	ltpFR	7	9	1	FLEET	578	n/a	0	n/a	0	0	0	0	0.5869140625	0.422607421875	lower	../fonts/zerothre.ttf
2613.796	n/a	WORD	1306898	wordpools/wasnorm_wordpool_less_exclusions.txt	LTP231	ltpFR	7	9	1	MAILMAN	858	n/a	1	n/a	0	0	0	0	0.5869140625	0.422607421875	lower	../fonts/zerothre.ttf
2617.892	n/a	WORD	1308946	wordpools/wasnorm_wordpool_less_exclusions.txt	LTP231	ltpFR	7	9	1	MAILBOX	857	n/a	0	n/a	0	0	0	0	0.5869140625	0.422607421875	lower	../fonts/zerothre.ttf
2622.096	n/a	WORD	1311048	wordpools/wasnorm_wordpool_less_exclusions.txt	LTP231	ltpFR	7	9	1	BOYFRIEND	162	n/a	1	n/a	0	0	0	0	0.5869140625	0.422607421875	lower	../fonts/zerothre.ttf
2626.028	n/a	WORD	1313014	wordpools/wasnorm_wordpool_less_exclusions.txt	LTP231	ltpFR	7	9	1	OMELET	976	n/a	0	n/a	0	0	0	0	0.5869140625	0.422607421875	lower	../fonts/zerothre.ttf
2630.226	n/a	WORD	1315113	wordpools/wasnorm_wordpool_less_exclusions.txt	LTP231	ltpFR	7	9	1	BUTTON	207	n/a	0	n/a	0	0	0	0	0.5869140625	0.422607421875	lower	../fonts/zerothre.ttf
2634.09	n/a	WORD	1317045	wordpools/wasnorm_wordpool_less_exclusions.txt	LTP231	ltpFR	7	9	1	PHILOSOPHER	1054	n/a	1	n/a	0	0	0	0	0.5869140625	0.422607421875	lower	../fonts/zerothre.ttf
2638.274	n/a	WORD	1319137	wordpools/wasnorm_wordpool_less_exclusions.txt	LTP231	ltpFR	7	9	1	CHEMIST	292	n/a	1	n/a	0	0	0	0	0.5869140625	0.422607421875	lower	../fonts/zerothre.ttf
2642.122	n/a	WORD	1321061	wordpools/wasnorm_wordpool_less_exclusions.txt	LTP231	ltpFR	7	9	1	WAGON	1578	n/a	0	n/a	0	0	0	0	0.5869140625	0.422607421875	lower	../fonts/zerothre.ttf
2646.138	n/a	WORD	1323069	wordpools/wasnorm_wordpool_less_exclusions.txt	LTP231	ltpFR	7	9	1	WAREHOUSE	1588	n/a	0	n/a	0	0	0	0	0.5869140625	0.422607421875	lower	../fonts/zerothre.ttf
2650.17	n/a	WORD	1325085	wordpools/wasnorm_wordpool_less_exclusions.txt	LTP231	ltpFR	7	9	1	AUDIENCE	59	n/a	1	n/a	0	0	0	0	0.5869140625	0.422607421875	lower	../fonts/zerothre.ttf
2654.064	n/a	WORD	1327032	wordpools/wasnorm_wordpool_less_exclusions.txt	LTP231	ltpFR	7	9	1	PENNY	1045	n/a	0	n/a	0	0	0	0	0.5869140625	0.422607421875	lower	../fonts/zerothre.ttf
2657.896	n/a	WORD	1328948	wordpools/wasnorm_wordpool_less_exclusions.txt	LTP231	ltpFR	7	9	1	PERCH	1048	n/a	0	n/a	0	0	0	0	0.5869140625	0.422607421875	lower	../fonts/zerothre.ttf
2662.098	n/a	WORD	1331049	wordpools/wasnorm_wordpool_less_exclusions.txt	LTP231	ltpFR	7	9	1	CAGE	218	n/a	0	n/a	0	0	0	0	0.5869140625	0.422607421875	lower	../fonts/zerothre.ttf
2665.11	n/a	START	1332555	n/a	LTP231	ltpFR	7	n/a	n/a	n/a	n/a	n/a	n/a	n/a	n/a	n/a	n/a	n/a	n/a	n/a	n/a	n/a
2666.282	n/a	PROB	1333141	n/a	LTP231	ltpFR	7	n/a	n/a	n/a	n/a	n/a	n/a	16	7	4	5	n/a	n/a	n/a	n/a	n/a
2673.11	n/a	STOP	1336555	n/a	LTP231	ltpFR	7	n/a	n/a	n/a	n/a	n/a	n/a	n/a	n/a	n/a	n/a	n/a	n/a	n/a	n/a	n/a
2674.998	n/a	REC_START	1337499	n/a	LTP231	ltpFR	7	9	n/a	n/a	n/a	n/a	n/a	n/a	0	0	0	n/a	n/a	n/a	n/a	n/a
2677.278	n/a	REC_WORD	1338639	wordpools/wasnorm_wordpool_less_exclusions.txt	LTP231	ltpFR	7	9	1	CAGE	218	n/a	0	n/a	0	0	0	n/a	n/a	n/a	n/a	n/a
2678.874	n/a	REC_WORD	1339437	wordpools/wasnorm_wordpool_less_exclusions.txt	LTP231	ltpFR	7	9	1	PERCH	1048	n/a	0	n/a	0	0	0	n/a	n/a	n/a	n/a	n/a
2681.214	n/a	REC_WORD	1340607	wordpools/wasnorm_wordpool_less_exclusions.txt	LTP231	ltpFR	7	9	1	AUDIENCE	59	n/a	1	n/a	0	0	0	n/a	n/a	n/a	n/a	n/a
2683.004	n/a	REC_WORD	1341502	wordpools/wasnorm_wordpool_less_exclusions.txt	LTP231	ltpFR	7	9	1	WAREHOUSE	1588	n/a	0	n/a	0	0	0	n/a	n/a	n/a	n/a	n/a
2684.004	n/a	REC_WORD_VV	1342002	wordpools/wasnorm_wordpool_less_exclusions.txt	LTP231	ltpFR	7	9	n/a	<>	-1	n/a	n/a	n/a	0	0	0	n/a	n/a	n/a	n/a	n/a
2686.826	n/a	REC_WORD	1343413	wordpools/wasnorm_wordpool_less_exclusions.txt	LTP231	ltpFR	7	9	1	CHEMIST	292	n/a	1	n/a	0	0	0	n/a	n/a	n/a	n/a	n/a
2689.734	n/a	REC_WORD	1344867	wordpools/wasnorm_wordpool_less_exclusions.txt	LTP231	ltpFR	7	9	1	OMELET	976	n/a	0	n/a	0	0	0	n/a	n/a	n/a	n/a	n/a
2693.986	n/a	REC_WORD	1346993	wordpools/wasnorm_wordpool_less_exclusions.txt	LTP231	ltpFR	7	9	1	BOYFRIEND	162	n/a	1	n/a	0	0	0	n/a	n/a	n/a	n/a	n/a
2696.83	n/a	REC_WORD	1348415	wordpools/wasnorm_wordpool_less_exclusions.txt	LTP231	ltpFR	7	9	1	FLEET	578	n/a	0	n/a	0	0	0	n/a	n/a	n/a	n/a	n/a
2699.024	n/a	REC_WORD	1349512	wordpools/wasnorm_wordpool_less_exclusions.txt	LTP231	ltpFR	7	9	1	MAILBOX	857	n/a	0	n/a	0	0	0	n/a	n/a	n/a	n/a	n/a
2700.024	n/a	REC_WORD_VV	1350012	wordpools/wasnorm_wordpool_less_exclusions.txt	LTP231	ltpFR	7	9	n/a	<>	-1	n/a	n/a	n/a	0	0	0	n/a	n/a	n/a	n/a	n/a
2700.93	n/a	REC_WORD	1350465	wordpools/wasnorm_wordpool_less_exclusions.txt	LTP231	ltpFR	7	9	1	MAILMAN	858	n/a	1	n/a	0	0	0	n/a	n/a	n/a	n/a	n/a
2703.274	n/a	REC_WORD	1351637	wordpools/wasnorm_wordpool_less_exclusions.txt	LTP231	ltpFR	7	9	1	SKYSCRAPER	1322	n/a	0	n/a	0	0	0	n/a	n/a	n/a	n/a	n/a
2704.274	n/a	REC_WORD_VV	1352137	wordpools/wasnorm_wordpool_less_exclusions.txt	LTP231	ltpFR	7	9	n/a	<>	-1	n/a	n/a	n/a	0	0	0	n/a	n/a	n/a	n/a	n/a
2705.764	n/a	REC_WORD	1352882	wordpools/wasnorm_wordpool_less_exclusions.txt	LTP231	ltpFR	7	9	1	BANKER	84	n/a	1	n/a	0	0	0	n/a	n/a	n/a	n/a	n/a
2707.85	n/a	REC_WORD	1353925	wordpools/wasnorm_wordpool_less_exclusions.txt	LTP231	ltpFR	7	9	1	BUTTON	207	n/a	0	n/a	0	0	0	n/a	n/a	n/a	n/a	n/a
2725.242	n/a	REC_WORD_VV	1362621	wordpools/wasnorm_wordpool_less_exclusions.txt	LTP231	ltpFR	7	9	n/a	<>	-1	n/a	n/a	n/a	0	0	0	n/a	n/a	n/a	n/a	n/a
2759.604	n/a	WORD	1379802	wordpools/wasnorm_wordpool_less_exclusions.txt	LTP231	ltpFR	7	10	1	ITEM	746	n/a	0	n/a	0	0	0	0	0.5869140625	0.422607421875	lower	../fonts/zerothre.ttf
2763.804	n/a	WORD	1381902	wordpools/wasnorm_wordpool_less_exclusions.txt	LTP231	ltpFR	7	10	1	SLEEVE	1324	n/a	0	n/a	0	0	0	0	0.5869140625	0.422607421875	lower	../fonts/zerothre.ttf
2767.63	n/a	WORD	1383815	wordpools/wasnorm_wordpool_less_exclusions.txt	LTP231	ltpFR	7	10	1	PRIEST	1122	n/a	1	n/a	0	0	0	0	0.5869140625	0.422607421875	lower	../fonts/zerothre.ttf
2771.718	n/a	WORD	1385859	wordpools/wasnorm_wordpool_less_exclusions.txt	LTP231	ltpFR	7	10	1	BATH	98	n/a	0	n/a	0	0	0	0	0.5869140625	0.422607421875	lower	../fonts/zerothre.ttf
2775.566	n/a	WORD	1387783	wordpools/wasnorm_wordpool_less_exclusions.txt	LTP231	ltpFR	7	10	1	CERAMICS	271	n/a	0	n/a	0	0	0	0	0.5869140625	0.422607421875	lower	../fonts/zerothre.ttf
2779.514	n/a	WORD	1389757	wordpools/wasnorm_wordpool_less_exclusions.txt	LTP231	ltpFR	7	10	1	TWIG	1527	n/a	0	n/a	0	0	0	0	0.5869140625	0.422607421875	lower	../fonts/zerothre.ttf
2783.48	n/a	WORD	1391740	wordpools/wasnorm_wordpool_less_exclusions.txt	LTP231	ltpFR	7	10	1	PLANT	1083	n/a	1	n/a	0	0	0	0	0.5869140625	0.422607421875	lower	../fonts/zerothre.ttf
2787.342	n/a	WORD	1393671	wordpools/wasnorm_wordpool_less_exclusions.txt	LTP231	ltpFR	7	10	1	BUFFALO	186	n/a	1	n/a	0	0	0	0	0.5869140625	0.422607421875	lower	../fonts/zerothre.ttf
2791.238	n/a	WORD	1395619	wordpools/wasnorm_wordpool_less_exclusions.txt	LTP231	ltpFR	7	10	1	BEAR	106	n/a	1	n/a	0	0	0	0	0.5869140625	0.422607421875	lower	../fonts/zerothre.ttf
2795.09	n/a	WORD	1397545	wordpools/wasnorm_wordpool_less_exclusions.txt	LTP231	ltpFR	7	10	1	AGENT	10	n/a	1	n/a	0	0	0	0	0.5869140625	0.422607421875	lower	../fonts/zerothre.ttf
2799.004	n/a	WORD	1399502	wordpools/wasnorm_wordpool_less_exclusions.txt	LTP231	ltpFR	7	10	1	DETECTIVE	454	n/a	1	n/a	0	0	0	0	0.5869140625	0.422607421875	lower	../fonts/zerothre.ttf
2803.07	n/a	WORD	1401535	wordpools/wasnorm_wordpool_less_exclusions.txt	LTP231	ltpFR	7	10	1	PREACHER	1119	n/a	1	n/a	0	0	0	0	0.5869140625	0.422607421875	lower	../fonts/zerothre.ttf
2807.07	n/a	WORD	1403535	wordpools/wasnorm_wordpool_less_exclusions.txt	LTP231	ltpFR	7	10	1	JOINT	758	n/a	0	n/a	0	0	0	0	0.5869140625	0.422607421875	lower	../fonts/zerothre.ttf
2811.084	n/a	WORD	1405542	wordpools/wasnorm_wordpool_less_exclusions.txt	LTP231	ltpFR	7	10	1	WATER	1594	n/a	1	n/a	0	0	0	0	0.5869140625	0.422607421875	lower	../fonts/zerothre.ttf
2815.184	n/a	WORD	1407592	wordpools/wasnorm_wordpool_less_exclusions.txt	LTP231	ltpFR	7	10	1	BACK	65	n/a	0	n/a	0	0	0	0	0.5869140625	0.422607421875	lower	../fonts/zerothre.ttf
2819.212	n/a	WORD	1409606	wordpools/wasnorm_wordpool_less_exclusions.txt	LTP231	ltpFR	7	10	1	KETTLE	772	n/a	0	n/a	0	0	0	0	0.5869140625	0.422607421875	lower	../fonts/zerothre.ttf
2824.92	n/a	REC_START	1412460	n/a	LTP231	ltpFR	7	10	n/a	n/a	n/a	n/a	n/a	n/a	0	0	0	n/a	n/a	n/a	n/a	n/a
2826.244	n/a	REC_WORD	1413122	wordpools/wasnorm_wordpool_less_exclusions.txt	LTP231	ltpFR	7	10	1	KETTLE	772	n/a	0	n/a	0	0	0	n/a	n/a	n/a	n/a	n/a
2827.316	n/a	REC_WORD	1413658	wordpools/wasnorm_wordpool_less_exclusions.txt	LTP231	ltpFR	7	10	1	JOINT	758	n/a	0	n/a	0	0	0	n/a	n/a	n/a	n/a	n/a
2828.294	n/a	REC_WORD	1414147	wordpools/wasnorm_wordpool_less_exclusions.txt	LTP231	ltpFR	7	10	1	ITEM	746	n/a	0	n/a	0	0	0	n/a	n/a	n/a	n/a	n/a
2829.194	n/a	REC_WORD	1414597	wordpools/wasnorm_wordpool_less_exclusions.txt	LTP231	ltpFR	7	10	1	SLEEVE	1324	n/a	0	n/a	0	0	0	n/a	n/a	n/a	n/a	n/a
2830.348	n/a	REC_WORD	1415174	wordpools/wasnorm_wordpool_less_exclusions.txt	LTP231	ltpFR	7	10	1	PRIEST	1122	n/a	1	n/a	0	0	0	n/a	n/a	n/a	n/a	n/a
2831.616	n/a	REC_WORD	1415808	wordpools/wasnorm_wordpool_less_exclusions.txt	LTP231	ltpFR	7	10	0	BATHTUB	100	n/a	2	n/a	0	0	0	n/a	n/a	n/a	n/a	n/a
2832.494	n/a	REC_WORD	1416247	wordpools/wasnorm_wordpool_less_exclusions.txt	LTP231	ltpFR	7	10	1	CERAMICS	271	n/a	0	n/a	0	0	0	n/a	n/a	n/a	n/a	n/a
2834.19	n/a	REC_WORD	1417095	wordpools/wasnorm_wordpool_less_exclusions.txt	LTP231	ltpFR	7	10	1	BUFFALO	186	n/a	1	n/a	0	0	0	n/a	n/a	n/a	n/a	n/a
2835.666	n/a	REC_WORD	1417833	wordpools/wasnorm_wordpool_less_exclusions.txt	LTP231	ltpFR	7	10	1	BEAR	106	n/a	1	n/a	0	0	0	n/a	n/a	n/a	n/a	n/a
2868.578	n/a	REC_WORD	1434289	wordpools/wasnorm_wordpool_less_exclusions.txt	LTP231	ltpFR	7	10	1	WATER	1594	n/a	1	n/a	0	0	0	n/a	n/a	n/a	n/a	n/a
2870.226	n/a	REC_WORD	1435113	wordpools/wasnorm_wordpool_less_exclusions.txt	LTP231	ltpFR	7	10	1	JOINT	758	n/a	0	n/a	0	0	0	n/a	n/a	n/a	n/a	n/a
2874.066	n/a	REC_WORD	1437033	wordpools/wasnorm_wordpool_less_exclusions.txt	LTP231	ltpFR	7	10	1	PREACHER	1119	n/a	1	n/a	0	0	0	n/a	n/a	n/a	n/a	n/a
2876.776	n/a	REC_WORD	1438388	wordpools/wasnorm_wordpool_less_exclusions.txt	LTP231	ltpFR	7	10	1	DETECTIVE	454	n/a	1	n/a	0	0	0	n/a	n/a	n/a	n/a	n/a
2900.592	n/a	REST_REWET	1450296	n/a	LTP231	ltpFR	7	10	n/a	n/a	n/a	n/a	n/a	n/a	0	0	0	n/a	n/a	n/a	n/a	n/a
3331.222	n/a	WORD	1665611	wordpools/wasnorm_wordpool_less_exclusions.txt	LTP231	ltpFR	7	11	0	VALVE	1546	n/a	2	n/a	0	0	0	1	0.412841796875	0.57763671875	upper	../fonts/amplitud.ttf
3332.812	n/a	KEY_MSG	1666406	n/a	LTP231	ltpFR	7	11	n/a	n/a	n/a	n/a	n/a	n/a	0	0	0	n/a	n/a	n/a	n/a	n/a
3335.422	n/a	WORD	1667711	wordpools/wasnorm_wordpool_less_exclusions.txt	LTP231	ltpFR	7	11	0	PISTON	1076	n/a	0	n/a	0	0	0	1	0.412841796875	0.57763671875	upper	../fonts/amplitud.ttf
3339.368	n/a	WORD	1669684	wordpools/wasnorm_wordpool_less_exclusions.txt	LTP231	ltpFR	7	11	0	FROST	609	n/a	1	n/a	0	0	0	1	0.412841796875	0.57763671875	upper	../fonts/amplitud.ttf
3343.268	n/a	WORD	1671634	wordpools/wasnorm_wordpool_less_exclusions.txt	LTP231	ltpFR	7	11	0	VOLCANO	1575	n/a	1	n/a	0	0	0	1	0.412841796875	0.57763671875	upper	../fonts/amplitud.ttf
3347.364	n/a	WORD	1673682	wordpools/wasnorm_wordpool_less_exclusions.txt	LTP231	ltpFR	7	11	0	FRUIT	610	n/a	0	n/a	0	0	0	1	0.412841796875	0.57763671875	upper	../fonts/amplitud.ttf
3351.316	n/a	WORD	1675658	wordpools/wasnorm_wordpool_less_exclusions.txt	LTP231	ltpFR	7	11	0	FELLOW	558	n/a	1	n/a	0	0	0	1	0.412841796875	0.57763671875	upper	../fonts/amplitud.ttf
3355.482	n/a	WORD	1677741	wordpools/wasnorm_wordpool_less_exclusions.txt	LTP231	ltpFR	7	11	0	APARTMENT	30	n/a	1	n/a	0	0	0	1	0.412841796875	0.57763671875	upper	../fonts/amplitud.ttf
3359.482	n/a	WORD	1679741	wordpools/wasnorm_wordpool_less_exclusions.txt	LTP231	ltpFR	7	11	0	BRANDY	169	n/a	0	n/a	0	0	0	1	0.412841796875	0.57763671875	upper	../fonts/amplitud.ttf
3363.38	n/a	WORD	1681690	wordpools/wasnorm_wordpool_less_exclusions.txt	LTP231	ltpFR	7	11	0	CORD	379	n/a	0	n/a	0	0	0	1	0.412841796875	0.57763671875	upper	../fonts/amplitud.ttf
3367.558	n/a	WORD	1683779	wordpools/wasnorm_wordpool_less_exclusions.txt	LTP231	ltpFR	7	11	0	ELECTRICIAN	521	n/a	1	n/a	0	0	0	1	0.412841796875	0.57763671875	upper	../fonts/amplitud.ttf
3371.692	n/a	WORD	1685846	wordpools/wasnorm_wordpool_less_exclusions.txt	LTP231	ltpFR	7	11	0	DOLL	481	n/a	0	n/a	0	0	0	1	0.412841796875	0.57763671875	upper	../fonts/amplitud.ttf
3375.62	n/a	WORD	1687810	wordpools/wasnorm_wordpool_less_exclusions.txt	LTP231	ltpFR	7	11	0	DILL	465	n/a	0	n/a	0	0	0	1	0.412841796875	0.57763671875	upper	../fonts/amplitud.ttf
3379.524	n/a	WORD	1689762	wordpools/wasnorm_wordpool_less_exclusions.txt	LTP231	ltpFR	7	11	0	OATS	968	n/a	0	n/a	0	0	0	1	0.412841796875	0.57763671875	upper	../fonts/amplitud.ttf
3383.706	n/a	WORD	1691853	wordpools/wasnorm_wordpool_less_exclusions.txt	LTP231	ltpFR	7	11	0	OATMEAL	967	n/a	0	n/a	0	0	0	1	0.412841796875	0.57763671875	upper	../fonts/amplitud.ttf
3387.868	n/a	WORD	1693934	wordpools/wasnorm_wordpool_less_exclusions.txt	LTP231	ltpFR	7	11	0	DRINK	498	n/a	0	n/a	0	0	0	1	0.412841796875	0.57763671875	upper	../fonts/amplitud.ttf
3391.854	n/a	WORD	1695927	wordpools/wasnorm_wordpool_less_exclusions.txt	LTP231	ltpFR	7	11	0	SHERIFF	1284	n/a	1	n/a	0	0	0	1	0.412841796875	0.57763671875	upper	../fonts/amplitud.ttf
3394.866	n/a	START	1697433	n/a	LTP231	ltpFR	7	n/a	n/a	n/a	n/a	n/a	n/a	n/a	n/a	n/a	n/a	n/a	n/a	n/a	n/a	n/a
3395.92	n/a	PROB	1697960	n/a	LTP231	ltpFR	7	n/a	n/a	n/a	n/a	n/a	n/a	21	3	9	9	n/a	n/a	n/a	n/a	n/a
3400.182	n/a	PROB	1700091	n/a	LTP231	ltpFR	7	n/a	n/a	n/a	n/a	n/a	n/a	8	1	3	4	n/a	n/a	n/a	n/a	n/a
3402.594	n/a	PROB	1701297	n/a	LTP231	ltpFR	7	n/a	n/a	n/a	n/a	n/a	n/a	14	4	7	3	n/a	n/a	n/a	n/a	n/a
3410.866	n/a	STOP	1705433	n/a	LTP231	ltpFR	7	n/a	n/a	n/a	n/a	n/a	n/a	n/a	n/a	n/a	n/a	n/a	n/a	n/a	n/a	n/a
3412.714	n/a	REC_START	1706357	n/a	LTP231	ltpFR	7	11	n/a	n/a	n/a	n/a	n/a	n/a	0	0	0	n/a	n/a	n/a	n/a	n/a
3414.84	n/a	REC_WORD	1707420	wordpools/wasnorm_wordpool_less_exclusions.txt	LTP231	ltpFR	7	11	0	SHERIFF	1284	n/a	1	n/a	0	0	0	n/a	n/a	n/a	n/a	n/a
3416.152	n/a	REC_WORD	1708076	wordpools/wasnorm_wordpool_less_exclusions.txt	LTP231	ltpFR	7	11	0	FELLOW	558	n/a	1	n/a	0	0	0	n/a	n/a	n/a	n/a	n/a
3418.72	n/a	REC_WORD	1709360	wordpools/wasnorm_wordpool_less_exclusions.txt	LTP231	ltpFR	7	11	0	APARTMENT	30	n/a	1	n/a	0	0	0	n/a	n/a	n/a	n/a	n/a
3421.22	n/a	REC_WORD	1710610	wordpools/wasnorm_wordpool_less_exclusions.txt	LTP231	ltpFR	7	11	0	CORD	379	n/a	0	n/a	0	0	0	n/a	n/a	n/a	n/a	n/a
3423.236	n/a	REC_WORD	1711618	wordpools/wasnorm_wordpool_less_exclusions.txt	LTP231	ltpFR	7	11	0	VALVE	1546	n/a	2	n/a	0	0	0	n/a	n/a	n/a	n/a	n/a
3425.086	n/a	REC_WORD	1712543	wordpools/wasnorm_wordpool_less_exclusions.txt	LTP231	ltpFR	7	11	0	PISTON	1076	n/a	0	n/a	0	0	0	n/a	n/a	n/a	n/a	n/a
3434.226	n/a	REC_WORD	1717113	wordpools/wasnorm_wordpool_less_exclusions.txt	LTP231	ltpFR	7	11	0	DILL	465	n/a	0	n/a	0	0	0	n/a	n/a	n/a	n/a	n/a
3435.492	n/a	REC_WORD	1717746	wordpools/wasnorm_wordpool_less_exclusions.txt	LTP231	ltpFR	7	11	0	FRUIT	610	n/a	0	n/a	0	0	0	n/a	n/a	n/a	n/a	n/a
3437.214	n/a	REC_WORD	1718607	wordpools/wasnorm_wordpool_less_exclusions.txt	LTP231	ltpFR	7	11	0	OATS	968	n/a	0	n/a	0	0	0	n/a	n/a	n/a	n/a	n/a
3438.85	n/a	REC_WORD	1719425	wordpools/wasnorm_wordpool_less_exclusions.txt	LTP231	ltpFR	7	11	0	OATMEAL	967	n/a	0	n/a	0	0	0	n/a	n/a	n/a	n/a	n/a
3442.382	n/a	REC_WORD	1721191	wordpools/wasnorm_wordpool_less_exclusions.txt	LTP231	ltpFR	7	11	0	FROST	609	n/a	1	n/a	0	0	0	n/a	n/a	n/a	n/a	n/a
3444.288	n/a	REC_WORD	1722144	wordpools/wasnorm_wordpool_less_exclusions.txt	LTP231	ltpFR	7	11	0	VOLCANO	1575	n/a	1	n/a	0	0	0	n/a	n/a	n/a	n/a	n/a
3492.904	n/a	START	1746452	n/a	LTP231	ltpFR	7	n/a	n/a	n/a	n/a	n/a	n/a	n/a	n/a	n/a	n/a	n/a	n/a	n/a	n/a	n/a
3494.414	n/a	PROB	1747207	n/a	LTP231	ltpFR	7	n/a	n/a	n/a	n/a	n/a	n/a	18	1	9	8	n/a	n/a	n/a	n/a	n/a
3497.754	n/a	PROB	1748877	n/a	LTP231	ltpFR	7	n/a	n/a	n/a	n/a	n/a	n/a	8	4	1	3	n/a	n/a	n/a	n/a	n/a
3501.104	n/a	PROB	1750552	n/a	LTP231	ltpFR	7	n/a	n/a	n/a	n/a	n/a	n/a	15	6	3	6	n/a	n/a	n/a	n/a	n/a
3504.932	n/a	PROB	1752466	n/a	LTP231	ltpFR	7	n/a	n/a	n/a	n/a	n/a	n/a	12	1	7	4	n/a	n/a	n/a	n/a	n/a
3507.542	n/a	STOP	1753771	n/a	LTP231	ltpFR	7	n/a	n/a	n/a	n/a	n/a	n/a	n/a	n/a	n/a	n/a	n/a	n/a	n/a	n/a	n/a
3509.968	n/a	WORD	1754984	wordpools/wasnorm_wordpool_less_exclusions.txt	LTP231	ltpFR	7	12	1	CHALK	276	n/a	0	n/a	0	0	0	0	0.5869140625	0.422607421875	lower	../fonts/zerothre.ttf
3512.984	n/a	START	1756492	n/a	LTP231	ltpFR	7	n/a	n/a	n/a	n/a	n/a	n/a	n/a	n/a	n/a	n/a	n/a	n/a	n/a	n/a	n/a
3514.12	n/a	PROB	1757060	n/a	LTP231	ltpFR	7	n/a	n/a	n/a	n/a	n/a	n/a	27	9	9	9	n/a	n/a	n/a	n/a	n/a
3519.776	n/a	PROB	1759888	n/a	LTP231	ltpFR	7	n/a	n/a	n/a	n/a	n/a	n/a	15	5	7	3	n/a	n/a	n/a	n/a	n/a
3521.546	n/a	PROB	1760773	n/a	LTP231	ltpFR	7	n/a	n/a	n/a	n/a	n/a	n/a	11	2	8	1	n/a	n/a	n/a	n/a	n/a
3523.37	n/a	PROB	1761685	n/a	LTP231	ltpFR	7	n/a	n/a	n/a	n/a	n/a	n/a	15	6	5	4	n/a	n/a	n/a	n/a	n/a
3525.648	n/a	PROB	1762824	n/a	LTP231	ltpFR	7	n/a	n/a	n/a	n/a	n/a	n/a	18	3	7	8	n/a	n/a	n/a	n/a	n/a
3527.912	n/a	STOP	1763956	n/a	LTP231	ltpFR	7	n/a	n/a	n/a	n/a	n/a	n/a	n/a	n/a	n/a	n/a	n/a	n/a	n/a	n/a	n/a
3530.2	n/a	WORD	1765100	wordpools/wasnorm_wordpool_less_exclusions.txt	LTP231	ltpFR	7	12	1	SHUTTER	1300	n/a	0	n/a	0	0	0	0	0.5869140625	0.422607421875	lower	../fonts/zerothre.ttf
3533.212	n/a	START	1766606	n/a	LTP231	ltpFR	7	n/a	n/a	n/a	n/a	n/a	n/a	n/a	n/a	n/a	n/a	n/a	n/a	n/a	n/a	n/a
3534.232	n/a	PROB	1767116	n/a	LTP231	ltpFR	7	n/a	n/a	n/a	n/a	n/a	n/a	16	9	1	6	n/a	n/a	n/a	n/a	n/a
3538.076	n/a	PROB	1769038	n/a	LTP231	ltpFR	7	n/a	n/a	n/a	n/a	n/a	n/a	7	1	2	4	n/a	n/a	n/a	n/a	n/a
3540.002	n/a	PROB	1770001	n/a	LTP231	ltpFR	7	n/a	n/a	n/a	n/a	n/a	n/a	16	4	6	6	n/a	n/a	n/a	n/a	n/a
3542.976	n/a	PROB	1771488	n/a	LTP231	ltpFR	7	n/a	n/a	n/a	n/a	n/a	n/a	16	3	7	6	n/a	n/a	n/a	n/a	n/a
3544.972	n/a	PROB	1772486	n/a	LTP231	ltpFR	7	n/a	n/a	n/a	n/a	n/a	n/a	12	2	5	5	n/a	n/a	n/a	n/a	n/a
3546.644	n/a	PROB	1773322	n/a	LTP231	ltpFR	7	n/a	n/a	n/a	n/a	n/a	n/a	15	3	5	7	n/a	n/a	n/a	n/a	n/a
3548.992	n/a	STOP	1774496	n/a	LTP231	ltpFR	7	n/a	n/a	n/a	n/a	n/a	n/a	n/a	n/a	n/a	n/a	n/a	n/a	n/a	n/a	n/a
3550.272	n/a	WORD	1775136	wordpools/wasnorm_wordpool_less_exclusions.txt	LTP231	ltpFR	7	12	1	TONGUE	1479	n/a	0	n/a	0	0	0	0	0.5869140625	0.422607421875	lower	../fonts/zerothre.ttf
3553.288	n/a	START	1776644	n/a	LTP231	ltpFR	7	n/a	n/a	n/a	n/a	n/a	n/a	n/a	n/a	n/a	n/a	n/a	n/a	n/a	n/a	n/a
3554.442	n/a	PROB	1777221	n/a	LTP231	ltpFR	7	n/a	n/a	n/a	n/a	n/a	n/a	19	7	4	8	n/a	n/a	n/a	n/a	n/a
3559.038	n/a	PROB	1779519	n/a	LTP231	ltpFR	7	n/a	n/a	n/a	n/a	n/a	n/a	16	7	2	7	n/a	n/a	n/a	n/a	n/a
3562.82	n/a	PROB	1781410	n/a	LTP231	ltpFR	7	n/a	n/a	n/a	n/a	n/a	n/a	11	7	1	3	n/a	n/a	n/a	n/a	n/a
3565.328	n/a	PROB	1782664	n/a	LTP231	ltpFR	7	n/a	n/a	n/a	n/a	n/a	n/a	12	3	7	2	n/a	n/a	n/a	n/a	n/a
3569.288	n/a	STOP	1784644	n/a	LTP231	ltpFR	7	n/a	n/a	n/a	n/a	n/a	n/a	n/a	n/a	n/a	n/a	n/a	n/a	n/a	n/a	n/a
3570.268	n/a	WORD	1785134	wordpools/wasnorm_wordpool_less_exclusions.txt	LTP231	ltpFR	7	12	1	WHISTLE	1606	n/a	0	n/a	0	0	0	0	0.5869140625	0.422607421875	lower	../fonts/zerothre.ttf
3573.28	n/a	START	1786640	n/a	LTP231	ltpFR	7	n/a	n/a	n/a	n/a	n/a	n/a	n/a	n/a	n/a	n/a	n/a	n/a	n/a	n/a	n/a
3574.28	n/a	PROB	1787140	n/a	LTP231	ltpFR	7	n/a	n/a	n/a	n/a	n/a	n/a	17	8	6	3	n/a	n/a	n/a	n/a	n/a
3577.476	n/a	PROB	1788738	n/a	LTP231	ltpFR	7	n/a	n/a	n/a	n/a	n/a	n/a	14	3	7	4	n/a	n/a	n/a	n/a	n/a
3579.5	n/a	PROB	1789750	n/a	LTP231	ltpFR	7	n/a	n/a	n/a	n/a	n/a	n/a	20	7	9	4	n/a	n/a	n/a	n/a	n/a
3582.646	n/a	PROB	1791323	n/a	LTP231	ltpFR	7	n/a	n/a	n/a	n/a	n/a	n/a	13	2	4	7	n/a	n/a	n/a	n/a	n/a
3586.382	n/a	PROB	1793191	n/a	LTP231	ltpFR	7	n/a	n/a	n/a	n/a	n/a	n/a	9	3	2	4	n/a	n/a	n/a	n/a	n/a
3588.396	n/a	STOP	1794198	n/a	LTP231	ltpFR	7	n/a	n/a	n/a	n/a	n/a	n/a	n/a	n/a	n/a	n/a	n/a	n/a	n/a	n/a	n/a
3590.296	n/a	WORD	1795148	wordpools/wasnorm_wordpool_less_exclusions.txt	LTP231	ltpFR	7	12	1	DEPUTY	450	n/a	1	n/a	0	0	0	0	0.5869140625	0.422607421875	lower	../fonts/zerothre.ttf
3593.308	n/a	START	1796654	n/a	LTP231	ltpFR	7	n/a	n/a	n/a	n/a	n/a	n/a	n/a	n/a	n/a	n/a	n/a	n/a	n/a	n/a	n/a
3594.324	n/a	PROB	1797162	n/a	LTP231	ltpFR	7	n/a	n/a	n/a	n/a	n/a	n/a	20	6	5	9	n/a	n/a	n/a	n/a	n/a
3598.172	n/a	PROB	1799086	n/a	LTP231	ltpFR	7	n/a	n/a	n/a	n/a	n/a	n/a	17	8	2	7	n/a	n/a	n/a	n/a	n/a
3600.284	n/a	PROB	1800142	n/a	LTP231	ltpFR	7	n/a	n/a	n/a	n/a	n/a	n/a	19	9	7	3	n/a	n/a	n/a	n/a	n/a
3602.488	n/a	PROB	1801244	n/a	LTP231	ltpFR	7	n/a	n/a	n/a	n/a	n/a	n/a	13	3	7	3	n/a	n/a	n/a	n/a	n/a
3604.63	n/a	PROB	1802315	n/a	LTP231	ltpFR	7	n/a	n/a	n/a	n/a	n/a	n/a	18	4	8	6	n/a	n/a	n/a	n/a	n/a
3609.308	n/a	STOP	1804654	n/a	LTP231	ltpFR	7	n/a	n/a	n/a	n/a	n/a	n/a	n/a	n/a	n/a	n/a	n/a	n/a	n/a	n/a	n/a
3610.37	n/a	WORD	1805185	wordpools/wasnorm_wordpool_less_exclusions.txt	LTP231	ltpFR	7	12	1	ORANGE	980	n/a	1	n/a	0	0	0	0	0.5869140625	0.422607421875	lower	../fonts/zerothre.ttf
3613.384	n/a	START	1806692	n/a	LTP231	ltpFR	7	n/a	n/a	n/a	n/a	n/a	n/a	n/a	n/a	n/a	n/a	n/a	n/a	n/a	n/a	n/a
3614.204	n/a	PROB	1807102	n/a	LTP231	ltpFR	7	n/a	n/a	n/a	n/a	n/a	n/a	9	1	3	5	n/a	n/a	n/a	n/a	n/a
3616.48	n/a	PROB	1808240	n/a	LTP231	ltpFR	7	n/a	n/a	n/a	n/a	n/a	n/a	14	2	9	3	n/a	n/a	n/a	n/a	n/a
3619.302	n/a	PROB	1809651	n/a	LTP231	ltpFR	7	n/a	n/a	n/a	n/a	n/a	n/a	20	9	4	7	n/a	n/a	n/a	n/a	n/a
3623.402	n/a	PROB	1811701	n/a	LTP231	ltpFR	7	n/a	n/a	n/a	n/a	n/a	n/a	10	1	3	6	n/a	n/a	n/a	n/a	n/a
3626.312	n/a	PROB	1813156	n/a	LTP231	ltpFR	7	n/a	n/a	n/a	n/a	n/a	n/a	7	1	3	3	n/a	n/a	n/a	n/a	n/a
3628.364	n/a	STOP	1814182	n/a	LTP231	ltpFR	7	n/a	n/a	n/a	n/a	n/a	n/a	n/a	n/a	n/a	n/a	n/a	n/a	n/a	n/a	n/a
3630.332	n/a	WORD	1815166	wordpools/wasnorm_wordpool_less_exclusions.txt	LTP231	ltpFR	7	12	1	DONOR	485	n/a	1	n/a	0	0	0	0	0.5869140625	0.422607421875	lower	../fonts/zerothre.ttf
3633.344	n/a	START	1816672	n/a	LTP231	ltpFR	7	n/a	n/a	n/a	n/a	n/a	n/a	n/a	n/a	n/a	n/a	n/a	n/a	n/a	n/a	n/a
3634.382	n/a	PROB	1817191	n/a	LTP231	ltpFR	7	n/a	n/a	n/a	n/a	n/a	n/a	23	9	9	5	n/a	n/a	n/a	n/a	n/a
3638.258	n/a	PROB	1819129	n/a	LTP231	ltpFR	7	n/a	n/a	n/a	n/a	n/a	n/a	18	1	8	9	n/a	n/a	n/a	n/a	n/a
3640.718	n/a	PROB	1820359	n/a	LTP231	ltpFR	7	n/a	n/a	n/a	n/a	n/a	n/a	17	8	8	1	n/a	n/a	n/a	n/a	n/a
3642.726	n/a	PROB	1821363	n/a	LTP231	ltpFR	7	n/a	n/a	n/a	n/a	n/a	n/a	18	8	4	6	n/a	n/a	n/a	n/a	n/a
3645.234	n/a	PROB	1822617	n/a	LTP231	ltpFR	7	n/a	n/a	n/a	n/a	n/a	n/a	12	6	5	1	n/a	n/a	n/a	n/a	n/a
3649.344	n/a	STOP	1824672	n/a	LTP231	ltpFR	7	n/a	n/a	n/a	n/a	n/a	n/a	n/a	n/a	n/a	n/a	n/a	n/a	n/a	n/a	n/a
3650.544	n/a	WORD	1825272	wordpools/wasnorm_wordpool_less_exclusions.txt	LTP231	ltpFR	7	12	1	PUDDING	1139	n/a	0	n/a	0	0	0	0	0.5869140625	0.422607421875	lower	../fonts/zerothre.ttf
3653.556	n/a	START	1826778	n/a	LTP231	ltpFR	7	n/a	n/a	n/a	n/a	n/a	n/a	n/a	n/a	n/a	n/a	n/a	n/a	n/a	n/a	n/a
3654.408	n/a	PROB	1827204	n/a	LTP231	ltpFR	7	n/a	n/a	n/a	n/a	n/a	n/a	20	5	8	7	n/a	n/a	n/a	n/a	n/a
3657.8	n/a	PROB	1828900	n/a	LTP231	ltpFR	7	n/a	n/a	n/a	n/a	n/a	n/a	21	9	5	7	n/a	n/a	n/a	n/a	n/a
3661.082	n/a	PROB	1830541	n/a	LTP231	ltpFR	7	n/a	n/a	n/a	n/a	n/a	n/a	15	5	3	7	n/a	n/a	n/a	n/a	n/a
3663.41	n/a	PROB	1831705	n/a	LTP231	ltpFR	7	n/a	n/a	n/a	n/a	n/a	n/a	16	6	8	2	n/a	n/a	n/a	n/a	n/a
3665.4	n/a	PROB	1832700	n/a	LTP231	ltpFR	7	n/a	n/a	n/a	n/a	n/a	n/a	23	8	8	7	n/a	n/a	n/a	n/a	n/a
3669.11	n/a	STOP	1834555	n/a	LTP231	ltpFR	7	n/a	n/a	n/a	n/a	n/a	n/a	n/a	n/a	n/a	n/a	n/a	n/a	n/a	n/a	n/a
3670.452	n/a	WORD	1835226	wordpools/wasnorm_wordpool_less_exclusions.txt	LTP231	ltpFR	7	12	1	SPY	1360	n/a	1	n/a	0	0	0	0	0.5869140625	0.422607421875	lower	../fonts/zerothre.ttf
3673.464	n/a	START	1836732	n/a	LTP231	ltpFR	7	n/a	n/a	n/a	n/a	n/a	n/a	n/a	n/a	n/a	n/a	n/a	n/a	n/a	n/a	n/a
3674.332	n/a	PROB	1837166	n/a	LTP231	ltpFR	7	n/a	n/a	n/a	n/a	n/a	n/a	9	1	2	6	n/a	n/a	n/a	n/a	n/a
3677.21	n/a	PROB	1838605	n/a	LTP231	ltpFR	7	n/a	n/a	n/a	n/a	n/a	n/a	13	4	5	4	n/a	n/a	n/a	n/a	n/a
3681.946	n/a	PROB	1840973	n/a	LTP231	ltpFR	7	n/a	n/a	n/a	n/a	n/a	n/a	10	3	2	5	n/a	n/a	n/a	n/a	n/a
3684.618	n/a	PROB	1842309	n/a	LTP231	ltpFR	7	n/a	n/a	n/a	n/a	n/a	n/a	15	2	9	4	n/a	n/a	n/a	n/a	n/a
3689.466	n/a	STOP	1844733	n/a	LTP231	ltpFR	7	n/a	n/a	n/a	n/a	n/a	n/a	n/a	n/a	n/a	n/a	n/a	n/a	n/a	n/a	n/a
3690.492	n/a	WORD	1845246	wordpools/wasnorm_wordpool_less_exclusions.txt	LTP231	ltpFR	7	12	1	FARMER	553	n/a	1	n/a	0	0	0	0	0.5869140625	0.422607421875	lower	../fonts/zerothre.ttf
3693.508	n/a	START	1846754	n/a	LTP231	ltpFR	7	n/a	n/a	n/a	n/a	n/a	n/a	n/a	n/a	n/a	n/a	n/a	n/a	n/a	n/a	n/a
3694.376	n/a	PROB	1847188	n/a	LTP231	ltpFR	7	n/a	n/a	n/a	n/a	n/a	n/a	19	5	6	8	n/a	n/a	n/a	n/a	n/a
3697.1	n/a	PROB	1848550	n/a	LTP231	ltpFR	7	n/a	n/a	n/a	n/a	n/a	n/a	19	7	5	7	n/a	n/a	n/a	n/a	n/a
3699.598	n/a	PROB	1849799	n/a	LTP231	ltpFR	7	n/a	n/a	n/a	n/a	n/a	n/a	16	3	8	5	n/a	n/a	n/a	n/a	n/a
3702.454	n/a	PROB	1851227	n/a	LTP231	ltpFR	7	n/a	n/a	n/a	n/a	n/a	n/a	10	1	6	3	n/a	n/a	n/a	n/a	n/a
3705.264	n/a	PROB	1852632	n/a	LTP231	ltpFR	7	n/a	n/a	n/a	n/a	n/a	n/a	19	9	4	6	n/a	n/a	n/a	n/a	n/a
3709.508	n/a	STOP	1854754	n/a	LTP231	ltpFR	7	n/a	n/a	n/a	n/a	n/a	n/a	n/a	n/a	n/a	n/a	n/a	n/a	n/a	n/a	n/a
3710.618	n/a	WORD	1855309	wordpools/wasnorm_wordpool_less_exclusions.txt	LTP231	ltpFR	7	12	1	BEAN	105	n/a	1	n/a	0	0	0	0	0.5869140625	0.422607421875	lower	../fonts/zerothre.ttf
3713.634	n/a	START	1856817	n/a	LTP231	ltpFR	7	n/a	n/a	n/a	n/a	n/a	n/a	n/a	n/a	n/a	n/a	n/a	n/a	n/a	n/a	n/a
3714.704	n/a	PROB	1857352	n/a	LTP231	ltpFR	7	n/a	n/a	n/a	n/a	n/a	n/a	7	2	3	2	n/a	n/a	n/a	n/a	n/a
3718.18	n/a	PROB	1859090	n/a	LTP231	ltpFR	7	n/a	n/a	n/a	n/a	n/a	n/a	18	2	9	7	n/a	n/a	n/a	n/a	n/a
3720.992	n/a	PROB	1860496	n/a	LTP231	ltpFR	7	n/a	n/a	n/a	n/a	n/a	n/a	16	5	8	3	n/a	n/a	n/a	n/a	n/a
3725.106	n/a	PROB	1862553	n/a	LTP231	ltpFR	7	n/a	n/a	n/a	n/a	n/a	n/a	17	5	5	7	n/a	n/a	n/a	n/a	n/a
3727.164	n/a	PROB	1863582	n/a	LTP231	ltpFR	7	n/a	n/a	n/a	n/a	n/a	n/a	15	4	6	5	n/a	n/a	n/a	n/a	n/a
3728.826	n/a	STOP	1864413	n/a	LTP231	ltpFR	7	n/a	n/a	n/a	n/a	n/a	n/a	n/a	n/a	n/a	n/a	n/a	n/a	n/a	n/a	n/a
3730.682	n/a	WORD	1865341	wordpools/wasnorm_wordpool_less_exclusions.txt	LTP231	ltpFR	7	12	1	BAKER	71	n/a	1	n/a	0	0	0	0	0.5869140625	0.422607421875	lower	../fonts/zerothre.ttf
3733.694	n/a	START	1866847	n/a	LTP231	ltpFR	7	n/a	n/a	n/a	n/a	n/a	n/a	n/a	n/a	n/a	n/a	n/a	n/a	n/a	n/a	n/a
3734.646	n/a	PROB	1867323	n/a	LTP231	ltpFR	7	n/a	n/a	n/a	n/a	n/a	n/a	14	5	8	1	n/a	n/a	n/a	n/a	n/a
3737.772	n/a	PROB	1868886	n/a	LTP231	ltpFR	7	n/a	n/a	n/a	n/a	n/a	n/a	18	9	4	5	n/a	n/a	n/a	n/a	n/a
3740.684	n/a	PROB	1870342	n/a	LTP231	ltpFR	7	n/a	n/a	n/a	n/a	n/a	n/a	17	2	7	8	n/a	n/a	n/a	n/a	n/a
3743.714	n/a	PROB	1871857	n/a	LTP231	ltpFR	7	n/a	n/a	n/a	n/a	n/a	n/a	12	5	6	1	n/a	n/a	n/a	n/a	n/a
3745.952	n/a	PROB	1872976	n/a	LTP231	ltpFR	7	n/a	n/a	n/a	n/a	n/a	n/a	19	5	8	6	n/a	n/a	n/a	n/a	n/a
3749.226	n/a	STOP	1874613	n/a	LTP231	ltpFR	7	n/a	n/a	n/a	n/a	n/a	n/a	n/a	n/a	n/a	n/a	n/a	n/a	n/a	n/a	n/a
3750.808	n/a	WORD	1875404	wordpools/wasnorm_wordpool_less_exclusions.txt	LTP231	ltpFR	7	12	1	MUFFIN	929	n/a	0	n/a	0	0	0	0	0.5869140625	0.422607421875	lower	../fonts/zerothre.ttf
3753.82	n/a	START	1876910	n/a	LTP231	ltpFR	7	n/a	n/a	n/a	n/a	n/a	n/a	n/a	n/a	n/a	n/a	n/a	n/a	n/a	n/a	n/a
3754.656	n/a	PROB	1877328	n/a	LTP231	ltpFR	7	n/a	n/a	n/a	n/a	n/a	n/a	5	1	3	1	n/a	n/a	n/a	n/a	n/a
3757.432	n/a	PROB	1878716	n/a	LTP231	ltpFR	7	n/a	n/a	n/a	n/a	n/a	n/a	18	8	2	8	n/a	n/a	n/a	n/a	n/a
3759.32	n/a	PROB	1879660	n/a	LTP231	ltpFR	7	n/a	n/a	n/a	n/a	n/a	n/a	19	9	3	7	n/a	n/a	n/a	n/a	n/a
3761.496	n/a	PROB	1880748	n/a	LTP231	ltpFR	7	n/a	n/a	n/a	n/a	n/a	n/a	14	5	3	6	n/a	n/a	n/a	n/a	n/a
3764.592	n/a	PROB	1882296	n/a	LTP231	ltpFR	7	n/a	n/a	n/a	n/a	n/a	n/a	11	2	6	3	n/a	n/a	n/a	n/a	n/a
3769.82	n/a	STOP	1884910	n/a	LTP231	ltpFR	7	n/a	n/a	n/a	n/a	n/a	n/a	n/a	n/a	n/a	n/a	n/a	n/a	n/a	n/a	n/a
3770.748	n/a	WORD	1885374	wordpools/wasnorm_wordpool_less_exclusions.txt	LTP231	ltpFR	7	12	1	CHOCOLATE	306	n/a	0	n/a	0	0	0	0	0.5869140625	0.422607421875	lower	../fonts/zerothre.ttf
3773.764	n/a	START	1886882	n/a	LTP231	ltpFR	7	n/a	n/a	n/a	n/a	n/a	n/a	n/a	n/a	n/a	n/a	n/a	n/a	n/a	n/a	n/a
3774.818	n/a	PROB	1887409	n/a	LTP231	ltpFR	7	n/a	n/a	n/a	n/a	n/a	n/a	14	2	8	4	n/a	n/a	n/a	n/a	n/a
3776.67	n/a	PROB	1888335	n/a	LTP231	ltpFR	7	n/a	n/a	n/a	n/a	n/a	n/a	13	5	1	7	n/a	n/a	n/a	n/a	n/a
3780.304	n/a	PROB	1890152	n/a	LTP231	ltpFR	7	n/a	n/a	n/a	n/a	n/a	n/a	20	4	8	8	n/a	n/a	n/a	n/a	n/a
3783.602	n/a	PROB	1891801	n/a	LTP231	ltpFR	7	n/a	n/a	n/a	n/a	n/a	n/a	12	5	2	5	n/a	n/a	n/a	n/a	n/a
3785.572	n/a	PROB	1892786	n/a	LTP231	ltpFR	7	n/a	n/a	n/a	n/a	n/a	n/a	21	8	5	8	n/a	n/a	n/a	n/a	n/a
3789.764	n/a	STOP	1894882	n/a	LTP231	ltpFR	7	n/a	n/a	n/a	n/a	n/a	n/a	n/a	n/a	n/a	n/a	n/a	n/a	n/a	n/a	n/a
3790.76	n/a	WORD	1895380	wordpools/wasnorm_wordpool_less_exclusions.txt	LTP231	ltpFR	7	12	1	RADISH	1158	n/a	1	n/a	0	0	0	0	0.5869140625	0.422607421875	lower	../fonts/zerothre.ttf
3793.79	n/a	START	1896895	n/a	LTP231	ltpFR	7	n/a	n/a	n/a	n/a	n/a	n/a	n/a	n/a	n/a	n/a	n/a	n/a	n/a	n/a	n/a
3794.626	n/a	PROB	1897313	n/a	LTP231	ltpFR	7	n/a	n/a	n/a	n/a	n/a	n/a	12	3	8	1	n/a	n/a	n/a	n/a	n/a
3796.882	n/a	PROB	1898441	n/a	LTP231	ltpFR	7	n/a	n/a	n/a	n/a	n/a	n/a	12	1	6	5	n/a	n/a	n/a	n/a	n/a
3798.826	n/a	PROB	1899413	n/a	LTP231	ltpFR	7	n/a	n/a	n/a	n/a	n/a	n/a	18	7	6	5	n/a	n/a	n/a	n/a	n/a
3802.656	n/a	PROB	1901328	n/a	LTP231	ltpFR	7	n/a	n/a	n/a	n/a	n/a	n/a	7	5	1	1	n/a	n/a	n/a	n/a	n/a
3809.79	n/a	STOP	1904895	n/a	LTP231	ltpFR	7	n/a	n/a	n/a	n/a	n/a	n/a	n/a	n/a	n/a	n/a	n/a	n/a	n/a	n/a	n/a
3811.002	n/a	WORD	1905501	wordpools/wasnorm_wordpool_less_exclusions.txt	LTP231	ltpFR	7	12	1	WITCH	1617	n/a	1	n/a	0	0	0	0	0.5869140625	0.422607421875	lower	../fonts/zerothre.ttf
3814.018	n/a	START	1907009	n/a	LTP231	ltpFR	7	n/a	n/a	n/a	n/a	n/a	n/a	n/a	n/a	n/a	n/a	n/a	n/a	n/a	n/a	n/a
3814.87	n/a	PROB	1907435	n/a	LTP231	ltpFR	7	n/a	n/a	n/a	n/a	n/a	n/a	16	4	8	4	n/a	n/a	n/a	n/a	n/a
3817.394	n/a	PROB	1908697	n/a	LTP231	ltpFR	7	n/a	n/a	n/a	n/a	n/a	n/a	13	6	4	3	n/a	n/a	n/a	n/a	n/a
3819.402	n/a	PROB	1909701	n/a	LTP231	ltpFR	7	n/a	n/a	n/a	n/a	n/a	n/a	17	6	8	3	n/a	n/a	n/a	n/a	n/a
3822.16	n/a	PROB	1911080	n/a	LTP231	ltpFR	7	n/a	n/a	n/a	n/a	n/a	n/a	9	7	1	1	n/a	n/a	n/a	n/a	n/a
3823.888	n/a	PROB	1911944	n/a	LTP231	ltpFR	7	n/a	n/a	n/a	n/a	n/a	n/a	13	4	8	1	n/a	n/a	n/a	n/a	n/a
3827.25	n/a	PROB	1913625	n/a	LTP231	ltpFR	7	n/a	n/a	n/a	n/a	n/a	n/a	19	9	2	8	n/a	n/a	n/a	n/a	n/a
3829.302	n/a	STOP	1914651	n/a	LTP231	ltpFR	7	n/a	n/a	n/a	n/a	n/a	n/a	n/a	n/a	n/a	n/a	n/a	n/a	n/a	n/a	n/a
3831.92	n/a	REC_START	1915960	n/a	LTP231	ltpFR	7	12	n/a	n/a	n/a	n/a	n/a	n/a	0	0	0	n/a	n/a	n/a	n/a	n/a
3834.408	n/a	REC_WORD	1917204	wordpools/wasnorm_wordpool_less_exclusions.txt	LTP231	ltpFR	7	12	1	BEAN	105	n/a	1	n/a	0	0	0	n/a	n/a	n/a	n/a	n/a
3835.66	n/a	REC_WORD	1917830	wordpools/wasnorm_wordpool_less_exclusions.txt	LTP231	ltpFR	7	12	1	RADISH	1158	n/a	1	n/a	0	0	0	n/a	n/a	n/a	n/a	n/a
3837.318	n/a	REC_WORD	1918659	wordpools/wasnorm_wordpool_less_exclusions.txt	LTP231	ltpFR	7	12	1	WITCH	1617	n/a	1	n/a	0	0	0	n/a	n/a	n/a	n/a	n/a
3844.4	n/a	REC_WORD	1922200	wordpools/wasnorm_wordpool_less_exclusions.txt	LTP231	ltpFR	7	12	0	FRUIT	610	n/a	0	n/a	0	0	0	n/a	n/a	n/a	n/a	n/a
3911.67	n/a	START	1955835	n/a	LTP231	ltpFR	7	n/a	n/a	n/a	n/a	n/a	n/a	n/a	n/a	n/a	n/a	n/a	n/a	n/a	n/a	n/a
3913.18	n/a	PROB	1956590	n/a	LTP231	ltpFR	7	n/a	n/a	n/a	n/a	n/a	n/a	18	7	9	2	n/a	n/a	n/a	n/a	n/a
3919.644	n/a	STOP	1959822	n/a	LTP231	ltpFR	7	n/a	n/a	n/a	n/a	n/a	n/a	n/a	n/a	n/a	n/a	n/a	n/a	n/a	n/a	n/a
3920.574	n/a	WORD	1960287	wordpools/wasnorm_wordpool_less_exclusions.txt	LTP231	ltpFR	7	13	0	CHICK	296	n/a	0	n/a	0	0	0	1	0.412841796875	0.57763671875	upper	../fonts/amplitud.ttf
3923.586	n/a	START	1961793	n/a	LTP231	ltpFR	7	n/a	n/a	n/a	n/a	n/a	n/a	n/a	n/a	n/a	n/a	n/a	n/a	n/a	n/a	n/a
3924.57	n/a	PROB	1962285	n/a	LTP231	ltpFR	7	n/a	n/a	n/a	n/a	n/a	n/a	18	6	7	5	n/a	n/a	n/a	n/a	n/a
3927.402	n/a	PROB	1963701	n/a	LTP231	ltpFR	7	n/a	n/a	n/a	n/a	n/a	n/a	20	5	9	6	n/a	n/a	n/a	n/a	n/a
3930.324	n/a	STOP	1965162	n/a	LTP231	ltpFR	7	n/a	n/a	n/a	n/a	n/a	n/a	n/a	n/a	n/a	n/a	n/a	n/a	n/a	n/a	n/a
3932.734	n/a	WORD	1966367	wordpools/wasnorm_wordpool_less_exclusions.txt	LTP231	ltpFR	7	13	0	DICTIONARY	463	n/a	0	n/a	0	0	0	1	0.412841796875	0.57763671875	upper	../fonts/amplitud.ttf
3935.75	n/a	START	1967875	n/a	LTP231	ltpFR	7	n/a	n/a	n/a	n/a	n/a	n/a	n/a	n/a	n/a	n/a	n/a	n/a	n/a	n/a	n/a
3936.586	n/a	PROB	1968293	n/a	LTP231	ltpFR	7	n/a	n/a	n/a	n/a	n/a	n/a	20	8	7	5	n/a	n/a	n/a	n/a	n/a
3940.144	n/a	PROB	1970072	n/a	LTP231	ltpFR	7	n/a	n/a	n/a	n/a	n/a	n/a	16	8	5	3	n/a	n/a	n/a	n/a	n/a
3942.364	n/a	STOP	1971182	n/a	LTP231	ltpFR	7	n/a	n/a	n/a	n/a	n/a	n/a	n/a	n/a	n/a	n/a	n/a	n/a	n/a	n/a	n/a
3944.582	n/a	WORD	1972291	wordpools/wasnorm_wordpool_less_exclusions.txt	LTP231	ltpFR	7	13	0	RUNNER	1218	n/a	1	n/a	0	0	0	1	0.412841796875	0.57763671875	upper	../fonts/amplitud.ttf
3947.596	n/a	START	1973798	n/a	LTP231	ltpFR	7	n/a	n/a	n/a	n/a	n/a	n/a	n/a	n/a	n/a	n/a	n/a	n/a	n/a	n/a	n/a
3948.432	n/a	PROB	1974216	n/a	LTP231	ltpFR	7	n/a	n/a	n/a	n/a	n/a	n/a	14	6	4	4	n/a	n/a	n/a	n/a	n/a
3950.436	n/a	PROB	1975218	n/a	LTP231	ltpFR	7	n/a	n/a	n/a	n/a	n/a	n/a	9	3	1	5	n/a	n/a	n/a	n/a	n/a
3953.296	n/a	PROB	1976648	n/a	LTP231	ltpFR	7	n/a	n/a	n/a	n/a	n/a	n/a	19	4	9	6	n/a	n/a	n/a	n/a	n/a
3955.566	n/a	STOP	1977783	n/a	LTP231	ltpFR	7	n/a	n/a	n/a	n/a	n/a	n/a	n/a	n/a	n/a	n/a	n/a	n/a	n/a	n/a	n/a
3956.478	n/a	WORD	1978239	wordpools/wasnorm_wordpool_less_exclusions.txt	LTP231	ltpFR	7	13	0	SCRIBBLE	1256	n/a	0	n/a	0	0	0	1	0.412841796875	0.57763671875	upper	../fonts/amplitud.ttf
3959.49	n/a	START	1979745	n/a	LTP231	ltpFR	7	n/a	n/a	n/a	n/a	n/a	n/a	n/a	n/a	n/a	n/a	n/a	n/a	n/a	n/a	n/a
3960.41	n/a	PROB	1980205	n/a	LTP231	ltpFR	7	n/a	n/a	n/a	n/a	n/a	n/a	7	1	1	5	n/a	n/a	n/a	n/a	n/a
3962.262	n/a	PROB	1981131	n/a	LTP231	ltpFR	7	n/a	n/a	n/a	n/a	n/a	n/a	21	7	7	7	n/a	n/a	n/a	n/a	n/a
3967.492	n/a	STOP	1983746	n/a	LTP231	ltpFR	7	n/a	n/a	n/a	n/a	n/a	n/a	n/a	n/a	n/a	n/a	n/a	n/a	n/a	n/a	n/a
3968.508	n/a	WORD	1984254	wordpools/wasnorm_wordpool_less_exclusions.txt	LTP231	ltpFR	7	13	0	JOURNAL	760	n/a	0	n/a	0	0	0	1	0.412841796875	0.57763671875	upper	../fonts/amplitud.ttf
3971.52	n/a	START	1985760	n/a	LTP231	ltpFR	7	n/a	n/a	n/a	n/a	n/a	n/a	n/a	n/a	n/a	n/a	n/a	n/a	n/a	n/a	n/a
3972.622	n/a	PROB	1986311	n/a	LTP231	ltpFR	7	n/a	n/a	n/a	n/a	n/a	n/a	11	7	2	2	n/a	n/a	n/a	n/a	n/a
3979.52	n/a	STOP	1989760	n/a	LTP231	ltpFR	7	n/a	n/a	n/a	n/a	n/a	n/a	n/a	n/a	n/a	n/a	n/a	n/a	n/a	n/a	n/a
3980.47	n/a	WORD	1990235	wordpools/wasnorm_wordpool_less_exclusions.txt	LTP231	ltpFR	7	13	0	CORK	380	n/a	0	n/a	0	0	0	1	0.412841796875	0.57763671875	upper	../fonts/amplitud.ttf
3983.484	n/a	START	1991742	n/a	LTP231	ltpFR	7	n/a	n/a	n/a	n/a	n/a	n/a	n/a	n/a	n/a	n/a	n/a	n/a	n/a	n/a	n/a
3984.516	n/a	PROB	1992258	n/a	LTP231	ltpFR	7	n/a	n/a	n/a	n/a	n/a	n/a	14	7	3	4	n/a	n/a	n/a	n/a	n/a
3986.138	n/a	PROB	1993069	n/a	LTP231	ltpFR	7	n/a	n/a	n/a	n/a	n/a	n/a	15	1	8	6	n/a	n/a	n/a	n/a	n/a
3988.914	n/a	PROB	1994457	n/a	LTP231	ltpFR	7	n/a	n/a	n/a	n/a	n/a	n/a	13	5	7	1	n/a	n/a	n/a	n/a	n/a
3991.256	n/a	STOP	1995628	n/a	LTP231	ltpFR	7	n/a	n/a	n/a	n/a	n/a	n/a	n/a	n/a	n/a	n/a	n/a	n/a	n/a	n/a	n/a
