mstime	trial_type	stim_file	subject	experiment	session	trial	item_name	item_num	list	answer	test_x	test_y	test_z
0	SESS_START	n/a	LTP305	ltpFR2	15	n/a	n/a	n/a	n/a	n/a	0	0	0
13584	START	n/a	LTP305	ltpFR2	15	n/a	n/a	n/a	-1	n/a	n/a	n/a	n/a
13600	PROB	n/a	LTP305	ltpFR2	15	n/a	n/a	n/a	-1	12	2	1	9
15833	PROB	n/a	LTP305	ltpFR2	15	n/a	n/a	n/a	-1	13	1	3	9
18189	PROB	n/a	LTP305	ltpFR2	15	n/a	n/a	n/a	-1	8	3	4	1
19803	PROB	n/a	LTP305	ltpFR2	15	n/a	n/a	n/a	-1	11	8	2	1
21771	PROB	n/a	LTP305	ltpFR2	15	n/a	n/a	n/a	-1	17	7	3	7
23507	PROB	n/a	LTP305	ltpFR2	15	n/a	n/a	n/a	-1	14	5	1	8
25182	STOP	n/a	LTP305	ltpFR2	15	n/a	n/a	n/a	-1	n/a	n/a	n/a	n/a
62839	WORD	wordpools/wasnorm_wordpool_576.txt	LTP305	ltpFR2	15	1	SUITCASE	1403	n/a	n/a	0	0	0
65512	WORD	wordpools/wasnorm_wordpool_576.txt	LTP305	ltpFR2	15	1	POLICE	1098	n/a	n/a	0	0	0
67997	WORD	wordpools/wasnorm_wordpool_576.txt	LTP305	ltpFR2	15	1	LADY	794	n/a	n/a	0	0	0
70766	WORD	wordpools/wasnorm_wordpool_576.txt	LTP305	ltpFR2	15	1	WOMAN	1620	n/a	n/a	0	0	0
73467	WORD	wordpools/wasnorm_wordpool_576.txt	LTP305	ltpFR2	15	1	VIKING	1565	n/a	n/a	0	0	0
75903	WORD	wordpools/wasnorm_wordpool_576.txt	LTP305	ltpFR2	15	1	CRAYON	401	n/a	n/a	0	0	0
78371	WORD	wordpools/wasnorm_wordpool_576.txt	LTP305	ltpFR2	15	1	HORNET	718	n/a	n/a	0	0	0
80878	WORD	wordpools/wasnorm_wordpool_576.txt	LTP305	ltpFR2	15	1	GROUND	666	n/a	n/a	0	0	0
83614	WORD	wordpools/wasnorm_wordpool_576.txt	LTP305	ltpFR2	15	1	CHAUFFEUR	283	n/a	n/a	0	0	0
86165	WORD	wordpools/wasnorm_wordpool_576.txt	LTP305	ltpFR2	15	1	FIDDLE	561	n/a	n/a	0	0	0
88948	WORD	wordpools/wasnorm_wordpool_576.txt	LTP305	ltpFR2	15	1	BLOUSE	139	n/a	n/a	0	0	0
91533	WORD	wordpools/wasnorm_wordpool_576.txt	LTP305	ltpFR2	15	1	TILE	1468	n/a	n/a	0	0	0
94284	WORD	wordpools/wasnorm_wordpool_576.txt	LTP305	ltpFR2	15	1	MARKER	870	n/a	n/a	0	0	0
97087	WORD	wordpools/wasnorm_wordpool_576.txt	LTP305	ltpFR2	15	1	PISTOL	1075	n/a	n/a	0	0	0
99540	WORD	wordpools/wasnorm_wordpool_576.txt	LTP305	ltpFR2	15	1	ROCKET	1202	n/a	n/a	0	0	0
102058	WORD	wordpools/wasnorm_wordpool_576.txt	LTP305	ltpFR2	15	1	HIKER	708	n/a	n/a	0	0	0
104828	WORD	wordpools/wasnorm_wordpool_576.txt	LTP305	ltpFR2	15	1	SWITCH	1422	n/a	n/a	0	0	0
107262	WORD	wordpools/wasnorm_wordpool_576.txt	LTP305	ltpFR2	15	1	LAMP	798	n/a	n/a	0	0	0
110065	WORD	wordpools/wasnorm_wordpool_576.txt	LTP305	ltpFR2	15	1	FLAG	573	n/a	n/a	0	0	0
112751	WORD	wordpools/wasnorm_wordpool_576.txt	LTP305	ltpFR2	15	1	MISSILE	900	n/a	n/a	0	0	0
115202	WORD	wordpools/wasnorm_wordpool_576.txt	LTP305	ltpFR2	15	1	BLOCKADE	137	n/a	n/a	0	0	0
117688	WORD	wordpools/wasnorm_wordpool_576.txt	LTP305	ltpFR2	15	1	WASP	1593	n/a	n/a	0	0	0
120241	WORD	wordpools/wasnorm_wordpool_576.txt	LTP305	ltpFR2	15	1	GARBAGE	622	n/a	n/a	0	0	0
123025	WORD	wordpools/wasnorm_wordpool_576.txt	LTP305	ltpFR2	15	1	BUBBLE	183	n/a	n/a	0	0	0
124645	START	n/a	LTP305	ltpFR2	15	n/a	n/a	n/a	1	n/a	n/a	n/a	n/a
125590	DISTRACTOR	n/a	LTP305	ltpFR2	15	1	n/a	n/a	n/a	n/a	0	0	0
125612	PROB	n/a	LTP305	ltpFR2	15	n/a	n/a	n/a	1	11	4	2	5
128077	PROB	n/a	LTP305	ltpFR2	15	n/a	n/a	n/a	1	10	1	6	3
130327	PROB	n/a	LTP305	ltpFR2	15	n/a	n/a	n/a	1	27	9	9	9
133417	PROB	n/a	LTP305	ltpFR2	15	n/a	n/a	n/a	1	12	7	4	1
135449	PROB	n/a	LTP305	ltpFR2	15	n/a	n/a	n/a	1	19	7	5	7
137333	PROB	n/a	LTP305	ltpFR2	15	n/a	n/a	n/a	1	7	1	1	5
138803	PROB	n/a	LTP305	ltpFR2	15	n/a	n/a	n/a	1	10	8	1	1
140255	PROB	n/a	LTP305	ltpFR2	15	n/a	n/a	n/a	1	14	8	1	5
141755	PROB	n/a	LTP305	ltpFR2	15	n/a	n/a	n/a	1	17	5	6	6
144040	PROB	n/a	LTP305	ltpFR2	15	n/a	n/a	n/a	1	14	9	3	2
145992	PROB	n/a	LTP305	ltpFR2	15	n/a	n/a	n/a	1	6	4	1	1
147349	STOP	n/a	LTP305	ltpFR2	15	n/a	n/a	n/a	1	n/a	n/a	n/a	n/a
150500	REC_START	n/a	LTP305	ltpFR2	15	1	n/a	n/a	n/a	n/a	0	0	0
151490	REC_WORD	wordpools/wasnorm_wordpool_576.txt	LTP305	ltpFR2	15	1	VIKING	1565	n/a	n/a	0	0	0
152783	REC_WORD	wordpools/wasnorm_wordpool_576.txt	LTP305	ltpFR2	15	1	BLOUSE	139	n/a	n/a	0	0	0
154414	REC_WORD	wordpools/wasnorm_wordpool_576.txt	LTP305	ltpFR2	15	1	CHAUFFEUR	283	n/a	n/a	0	0	0
157452	REC_WORD	wordpools/wasnorm_wordpool_576.txt	LTP305	ltpFR2	15	1	BLOCKADE	137	n/a	n/a	0	0	0
161905	REC_WORD	wordpools/wasnorm_wordpool_576.txt	LTP305	ltpFR2	15	1	PISTOL	1075	n/a	n/a	0	0	0
240934	DISTRACTOR	n/a	LTP305	ltpFR2	15	2	n/a	n/a	n/a	n/a	0	0	0
240935	START	n/a	LTP305	ltpFR2	15	n/a	n/a	n/a	2	n/a	n/a	n/a	n/a
240948	PROB	n/a	LTP305	ltpFR2	15	n/a	n/a	n/a	2	18	7	4	7
243372	PROB	n/a	LTP305	ltpFR2	15	n/a	n/a	n/a	2	22	8	8	6
245390	PROB	n/a	LTP305	ltpFR2	15	n/a	n/a	n/a	2	3	1	1	1
246525	PROB	n/a	LTP305	ltpFR2	15	n/a	n/a	n/a	2	9	3	2	4
248078	PROB	n/a	LTP305	ltpFR2	15	n/a	n/a	n/a	2	13	2	6	5
250078	PROB	n/a	LTP305	ltpFR2	15	n/a	n/a	n/a	2	17	1	9	7
251714	PROB	n/a	LTP305	ltpFR2	15	n/a	n/a	n/a	2	20	8	5	7
253565	PROB	n/a	LTP305	ltpFR2	15	n/a	n/a	n/a	2	7	1	4	2
255816	PROB	n/a	LTP305	ltpFR2	15	n/a	n/a	n/a	2	22	7	9	6
257450	PROB	n/a	LTP305	ltpFR2	15	n/a	n/a	n/a	2	14	1	7	6
258985	PROB	n/a	LTP305	ltpFR2	15	n/a	n/a	n/a	2	11	1	3	7
260338	PROB	n/a	LTP305	ltpFR2	15	n/a	n/a	n/a	2	12	7	3	2
261907	PROB	n/a	LTP305	ltpFR2	15	n/a	n/a	n/a	2	11	5	5	1
264934	STOP	n/a	LTP305	ltpFR2	15	n/a	n/a	n/a	2	n/a	n/a	n/a	n/a
266036	WORD	wordpools/wasnorm_wordpool_576.txt	LTP305	ltpFR2	15	2	PILOT	1070	n/a	n/a	0	0	0
268705	WORD	wordpools/wasnorm_wordpool_576.txt	LTP305	ltpFR2	15	2	PIGEON	1065	n/a	n/a	0	0	0
271249	WORD	wordpools/wasnorm_wordpool_576.txt	LTP305	ltpFR2	15	2	KNAPSACK	783	n/a	n/a	0	0	0
273818	WORD	wordpools/wasnorm_wordpool_576.txt	LTP305	ltpFR2	15	2	PLAYGROUND	1087	n/a	n/a	0	0	0
276520	WORD	wordpools/wasnorm_wordpool_576.txt	LTP305	ltpFR2	15	2	SLIDE	1326	n/a	n/a	0	0	0
278989	WORD	wordpools/wasnorm_wordpool_576.txt	LTP305	ltpFR2	15	2	HANDBAG	684	n/a	n/a	0	0	0
281698	WORD	wordpools/wasnorm_wordpool_576.txt	LTP305	ltpFR2	15	2	JEANS	752	n/a	n/a	0	0	0
284126	WORD	wordpools/wasnorm_wordpool_576.txt	LTP305	ltpFR2	15	2	CONTRACT	368	n/a	n/a	0	0	0
286802	WORD	wordpools/wasnorm_wordpool_576.txt	LTP305	ltpFR2	15	2	POPCORN	1104	n/a	n/a	0	0	0
289521	WORD	wordpools/wasnorm_wordpool_576.txt	LTP305	ltpFR2	15	2	VENUS	1557	n/a	n/a	0	0	0
292100	WORD	wordpools/wasnorm_wordpool_576.txt	LTP305	ltpFR2	15	2	DRESSER	496	n/a	n/a	0	0	0
294669	WORD	wordpools/wasnorm_wordpool_576.txt	LTP305	ltpFR2	15	2	WORKER	1621	n/a	n/a	0	0	0
297177	WORD	wordpools/wasnorm_wordpool_576.txt	LTP305	ltpFR2	15	2	DRILL	497	n/a	n/a	0	0	0
299906	WORD	wordpools/wasnorm_wordpool_576.txt	LTP305	ltpFR2	15	2	TUBA	1515	n/a	n/a	0	0	0
302675	WORD	wordpools/wasnorm_wordpool_576.txt	LTP305	ltpFR2	15	2	MARS	873	n/a	n/a	0	0	0
305177	WORD	wordpools/wasnorm_wordpool_576.txt	LTP305	ltpFR2	15	2	FLEET	578	n/a	n/a	0	0	0
307613	WORD	wordpools/wasnorm_wordpool_576.txt	LTP305	ltpFR2	15	2	COMPASS	358	n/a	n/a	0	0	0
310314	WORD	wordpools/wasnorm_wordpool_576.txt	LTP305	ltpFR2	15	2	PEANUT	1032	n/a	n/a	0	0	0
313071	WORD	wordpools/wasnorm_wordpool_576.txt	LTP305	ltpFR2	15	2	DONKEY	484	n/a	n/a	0	0	0
315608	WORD	wordpools/wasnorm_wordpool_576.txt	LTP305	ltpFR2	15	2	RIVER	1194	n/a	n/a	0	0	0
318126	WORD	wordpools/wasnorm_wordpool_576.txt	LTP305	ltpFR2	15	2	JUDGE	761	n/a	n/a	0	0	0
320857	WORD	wordpools/wasnorm_wordpool_576.txt	LTP305	ltpFR2	15	2	WITNESS	1618	n/a	n/a	0	0	0
323609	WORD	wordpools/wasnorm_wordpool_576.txt	LTP305	ltpFR2	15	2	PARTNER	1017	n/a	n/a	0	0	0
326211	WORD	wordpools/wasnorm_wordpool_576.txt	LTP305	ltpFR2	15	2	TOURIST	1488	n/a	n/a	0	0	0
327829	START	n/a	LTP305	ltpFR2	15	n/a	n/a	n/a	3	n/a	n/a	n/a	n/a
328631	DISTRACTOR	n/a	LTP305	ltpFR2	15	2	n/a	n/a	n/a	n/a	0	0	0
328647	PROB	n/a	LTP305	ltpFR2	15	n/a	n/a	n/a	3	11	5	4	2
330513	PROB	n/a	LTP305	ltpFR2	15	n/a	n/a	n/a	3	15	1	7	7
331931	PROB	n/a	LTP305	ltpFR2	15	n/a	n/a	n/a	3	18	8	6	4
333798	PROB	n/a	LTP305	ltpFR2	15	n/a	n/a	n/a	3	18	9	2	7
335684	PROB	n/a	LTP305	ltpFR2	15	n/a	n/a	n/a	3	8	4	2	2
337100	PROB	n/a	LTP305	ltpFR2	15	n/a	n/a	n/a	3	17	2	7	8
338903	PROB	n/a	LTP305	ltpFR2	15	n/a	n/a	n/a	3	19	4	6	9
340557	PROB	n/a	LTP305	ltpFR2	15	n/a	n/a	n/a	3	15	2	5	8
342206	PROB	n/a	LTP305	ltpFR2	15	n/a	n/a	n/a	3	11	5	5	1
343689	PROB	n/a	LTP305	ltpFR2	15	n/a	n/a	n/a	3	9	1	5	3
344977	PROB	n/a	LTP305	ltpFR2	15	n/a	n/a	n/a	3	15	3	5	7
346858	PROB	n/a	LTP305	ltpFR2	15	n/a	n/a	n/a	3	1	5	1	7
348944	PROB	n/a	LTP305	ltpFR2	15	n/a	n/a	n/a	3	11	5	2	4
350614	STOP	n/a	LTP305	ltpFR2	15	n/a	n/a	n/a	3	n/a	n/a	n/a	n/a
353650	REC_START	n/a	LTP305	ltpFR2	15	2	n/a	n/a	n/a	n/a	0	0	0
354309	REC_WORD	wordpools/wasnorm_wordpool_576.txt	LTP305	ltpFR2	15	2	JUDGE	761	n/a	n/a	0	0	0
355476	REC_WORD	wordpools/wasnorm_wordpool_576.txt	LTP305	ltpFR2	15	2	WITNESS	1618	n/a	n/a	0	0	0
357102	REC_WORD	wordpools/wasnorm_wordpool_576.txt	LTP305	ltpFR2	15	2	PARTNER	1017	n/a	n/a	0	0	0
358631	REC_WORD	wordpools/wasnorm_wordpool_576.txt	LTP305	ltpFR2	15	2	TOURIST	1488	n/a	n/a	0	0	0
444119	WORD	wordpools/wasnorm_wordpool_576.txt	LTP305	ltpFR2	15	3	WINDOW	1611	n/a	n/a	0	0	0
446808	WORD	wordpools/wasnorm_wordpool_576.txt	LTP305	ltpFR2	15	3	NOVEL	960	n/a	n/a	0	0	0
449581	WORD	wordpools/wasnorm_wordpool_576.txt	LTP305	ltpFR2	15	3	PIZZA	1079	n/a	n/a	0	0	0
452061	WORD	wordpools/wasnorm_wordpool_576.txt	LTP305	ltpFR2	15	3	PLAZA	1088	n/a	n/a	0	0	0
454847	WORD	wordpools/wasnorm_wordpool_576.txt	LTP305	ltpFR2	15	3	GYMNAST	675	n/a	n/a	0	0	0
457453	WORD	wordpools/wasnorm_wordpool_576.txt	LTP305	ltpFR2	15	3	ICEBERG	731	n/a	n/a	0	0	0
459984	WORD	wordpools/wasnorm_wordpool_576.txt	LTP305	ltpFR2	15	3	KEEPER	769	n/a	n/a	0	0	0
462769	WORD	wordpools/wasnorm_wordpool_576.txt	LTP305	ltpFR2	15	3	PORTRAIT	1111	n/a	n/a	0	0	0
465454	WORD	wordpools/wasnorm_wordpool_576.txt	LTP305	ltpFR2	15	3	SCRIBBLE	1256	n/a	n/a	0	0	0
468240	WORD	wordpools/wasnorm_wordpool_576.txt	LTP305	ltpFR2	15	3	LIZARD	834	n/a	n/a	0	0	0
470708	WORD	wordpools/wasnorm_wordpool_576.txt	LTP305	ltpFR2	15	3	QUARTER	1148	n/a	n/a	0	0	0
473194	WORD	wordpools/wasnorm_wordpool_576.txt	LTP305	ltpFR2	15	3	TWIG	1527	n/a	n/a	0	0	0
475696	WORD	wordpools/wasnorm_wordpool_576.txt	LTP305	ltpFR2	15	3	MISTER	901	n/a	n/a	0	0	0
478380	WORD	wordpools/wasnorm_wordpool_576.txt	LTP305	ltpFR2	15	3	SCARECROW	1245	n/a	n/a	0	0	0
480883	WORD	wordpools/wasnorm_wordpool_576.txt	LTP305	ltpFR2	15	3	HEDGE	699	n/a	n/a	0	0	0
483350	WORD	wordpools/wasnorm_wordpool_576.txt	LTP305	ltpFR2	15	3	SMOG	1330	n/a	n/a	0	0	0
485778	WORD	wordpools/wasnorm_wordpool_576.txt	LTP305	ltpFR2	15	3	CLOUD	328	n/a	n/a	0	0	0
488305	WORD	wordpools/wasnorm_wordpool_576.txt	LTP305	ltpFR2	15	3	MARKET	871	n/a	n/a	0	0	0
491024	WORD	wordpools/wasnorm_wordpool_576.txt	LTP305	ltpFR2	15	3	SPARROW	1347	n/a	n/a	0	0	0
493767	WORD	wordpools/wasnorm_wordpool_576.txt	LTP305	ltpFR2	15	3	PASTA	1021	n/a	n/a	0	0	0
496529	WORD	wordpools/wasnorm_wordpool_576.txt	LTP305	ltpFR2	15	3	HOSTESS	723	n/a	n/a	0	0	0
498988	WORD	wordpools/wasnorm_wordpool_576.txt	LTP305	ltpFR2	15	3	SERVER	1272	n/a	n/a	0	0	0
501716	WORD	wordpools/wasnorm_wordpool_576.txt	LTP305	ltpFR2	15	3	COWBOY	395	n/a	n/a	0	0	0
504218	WORD	wordpools/wasnorm_wordpool_576.txt	LTP305	ltpFR2	15	3	MAMMAL	861	n/a	n/a	0	0	0
505828	START	n/a	LTP305	ltpFR2	15	n/a	n/a	n/a	4	n/a	n/a	n/a	n/a
506822	DISTRACTOR	n/a	LTP305	ltpFR2	15	3	n/a	n/a	n/a	n/a	0	0	0
506829	PROB	n/a	LTP305	ltpFR2	15	n/a	n/a	n/a	4	14	4	3	7
508776	PROB	n/a	LTP305	ltpFR2	15	n/a	n/a	n/a	4	17	9	3	5
514098	PROB	n/a	LTP305	ltpFR2	15	n/a	n/a	n/a	4	12	3	8	1
516650	PROB	n/a	LTP305	ltpFR2	15	n/a	n/a	n/a	4	21	5	9	7
518869	PROB	n/a	LTP305	ltpFR2	15	n/a	n/a	n/a	4	13	3	6	4
520321	PROB	n/a	LTP305	ltpFR2	15	n/a	n/a	n/a	4	13	4	2	7
522255	PROB	n/a	LTP305	ltpFR2	15	n/a	n/a	n/a	4	21	9	8	4
524923	PROB	n/a	LTP305	ltpFR2	15	n/a	n/a	n/a	4	14	8	5	1
526858	PROB	n/a	LTP305	ltpFR2	15	n/a	n/a	n/a	4	17	1	7	9
528654	STOP	n/a	LTP305	ltpFR2	15	n/a	n/a	n/a	4	n/a	n/a	n/a	n/a
531630	REC_START	n/a	LTP305	ltpFR2	15	3	n/a	n/a	n/a	n/a	0	0	0
533297	REC_WORD	wordpools/wasnorm_wordpool_576.txt	LTP305	ltpFR2	15	3	SPARROW	1347	n/a	n/a	0	0	0
534731	REC_WORD	wordpools/wasnorm_wordpool_576.txt	LTP305	ltpFR2	15	3	SCARECROW	1245	n/a	n/a	0	0	0
536581	REC_WORD	wordpools/wasnorm_wordpool_576.txt	LTP305	ltpFR2	15	3	NOVEL	960	n/a	n/a	0	0	0
537983	REC_WORD	wordpools/wasnorm_wordpool_576.txt	LTP305	ltpFR2	15	3	WINDOW	1611	n/a	n/a	0	0	0
540329	REC_WORD	wordpools/wasnorm_wordpool_576.txt	LTP305	ltpFR2	15	3	HOSTESS	723	n/a	n/a	0	0	0
622092	DISTRACTOR	n/a	LTP305	ltpFR2	15	4	n/a	n/a	n/a	n/a	0	0	0
622092	START	n/a	LTP305	ltpFR2	15	n/a	n/a	n/a	5	n/a	n/a	n/a	n/a
622105	PROB	n/a	LTP305	ltpFR2	15	n/a	n/a	n/a	5	23	9	9	5
624673	PROB	n/a	LTP305	ltpFR2	15	n/a	n/a	n/a	5	15	6	3	6
626742	PROB	n/a	LTP305	ltpFR2	15	n/a	n/a	n/a	5	9	2	1	6
628326	PROB	n/a	LTP305	ltpFR2	15	n/a	n/a	n/a	5	16	9	2	5
630228	PROB	n/a	LTP305	ltpFR2	15	n/a	n/a	n/a	5	18	3	5	9
632362	PROB	n/a	LTP305	ltpFR2	15	n/a	n/a	n/a	5	13	1	4	8
633664	PROB	n/a	LTP305	ltpFR2	15	n/a	n/a	n/a	5	16	7	4	5
635232	PROB	n/a	LTP305	ltpFR2	15	n/a	n/a	n/a	5	8	2	4	2
636853	PROB	n/a	LTP305	ltpFR2	15	n/a	n/a	n/a	5	14	3	7	4
638485	PROB	n/a	LTP305	ltpFR2	15	n/a	n/a	n/a	5	21	8	6	7
639956	PROB	n/a	LTP305	ltpFR2	15	n/a	n/a	n/a	5	21	8	4	9
641604	PROB	n/a	LTP305	ltpFR2	15	n/a	n/a	n/a	5	14	7	3	4
643105	PROB	n/a	LTP305	ltpFR2	15	n/a	n/a	n/a	5	20	6	9	5
645246	STOP	n/a	LTP305	ltpFR2	15	n/a	n/a	n/a	5	n/a	n/a	n/a	n/a
647143	WORD	wordpools/wasnorm_wordpool_576.txt	LTP305	ltpFR2	15	4	CLOCK	325	n/a	n/a	0	0	0
649812	WORD	wordpools/wasnorm_wordpool_576.txt	LTP305	ltpFR2	15	4	HORSE	719	n/a	n/a	0	0	0
652363	WORD	wordpools/wasnorm_wordpool_576.txt	LTP305	ltpFR2	15	4	STALLION	1369	n/a	n/a	0	0	0
655050	WORD	wordpools/wasnorm_wordpool_576.txt	LTP305	ltpFR2	15	4	LAVA	804	n/a	n/a	0	0	0
657851	WORD	wordpools/wasnorm_wordpool_576.txt	LTP305	ltpFR2	15	4	BLADE	134	n/a	n/a	0	0	0
660670	WORD	wordpools/wasnorm_wordpool_576.txt	LTP305	ltpFR2	15	4	SCALPEL	1243	n/a	n/a	0	0	0
663438	WORD	wordpools/wasnorm_wordpool_576.txt	LTP305	ltpFR2	15	4	FOOTBALL	591	n/a	n/a	0	0	0
666075	WORD	wordpools/wasnorm_wordpool_576.txt	LTP305	ltpFR2	15	4	RADISH	1158	n/a	n/a	0	0	0
668762	WORD	wordpools/wasnorm_wordpool_576.txt	LTP305	ltpFR2	15	4	SHORTCAKE	1292	n/a	n/a	0	0	0
671378	WORD	wordpools/wasnorm_wordpool_576.txt	LTP305	ltpFR2	15	4	ZEBRA	1635	n/a	n/a	0	0	0
673814	WORD	wordpools/wasnorm_wordpool_576.txt	LTP305	ltpFR2	15	4	TWISTER	1530	n/a	n/a	0	0	0
676315	WORD	wordpools/wasnorm_wordpool_576.txt	LTP305	ltpFR2	15	4	DANCER	437	n/a	n/a	0	0	0
678767	WORD	wordpools/wasnorm_wordpool_576.txt	LTP305	ltpFR2	15	4	LIGHTNING	820	n/a	n/a	0	0	0
681435	WORD	wordpools/wasnorm_wordpool_576.txt	LTP305	ltpFR2	15	4	HATCHET	691	n/a	n/a	0	0	0
683988	WORD	wordpools/wasnorm_wordpool_576.txt	LTP305	ltpFR2	15	4	PEACH	1031	n/a	n/a	0	0	0
686677	WORD	wordpools/wasnorm_wordpool_576.txt	LTP305	ltpFR2	15	4	TURKEY	1520	n/a	n/a	0	0	0
689113	WORD	wordpools/wasnorm_wordpool_576.txt	LTP305	ltpFR2	15	4	CASHEW	253	n/a	n/a	0	0	0
691644	WORD	wordpools/wasnorm_wordpool_576.txt	LTP305	ltpFR2	15	4	RECORD	1176	n/a	n/a	0	0	0
694079	WORD	wordpools/wasnorm_wordpool_576.txt	LTP305	ltpFR2	15	4	STICKER	1382	n/a	n/a	0	0	0
696498	WORD	wordpools/wasnorm_wordpool_576.txt	LTP305	ltpFR2	15	4	NEUTRON	947	n/a	n/a	0	0	0
699167	WORD	wordpools/wasnorm_wordpool_576.txt	LTP305	ltpFR2	15	4	WRENCH	1625	n/a	n/a	0	0	0
701706	WORD	wordpools/wasnorm_wordpool_576.txt	LTP305	ltpFR2	15	4	DAUGHTER	442	n/a	n/a	0	0	0
704521	WORD	wordpools/wasnorm_wordpool_576.txt	LTP305	ltpFR2	15	4	PACKAGE	997	n/a	n/a	0	0	0
706956	WORD	wordpools/wasnorm_wordpool_576.txt	LTP305	ltpFR2	15	4	UNCLE	1536	n/a	n/a	0	0	0
708563	START	n/a	LTP305	ltpFR2	15	n/a	n/a	n/a	6	n/a	n/a	n/a	n/a
709593	DISTRACTOR	n/a	LTP305	ltpFR2	15	4	n/a	n/a	n/a	n/a	0	0	0
709608	PROB	n/a	LTP305	ltpFR2	15	n/a	n/a	n/a	6	9	1	2	6
711645	PROB	n/a	LTP305	ltpFR2	15	n/a	n/a	n/a	6	20	7	8	5
714215	PROB	n/a	LTP305	ltpFR2	15	n/a	n/a	n/a	6	25	9	7	9
716217	PROB	n/a	LTP305	ltpFR2	15	n/a	n/a	n/a	6	12	5	1	6
718034	PROB	n/a	LTP305	ltpFR2	15	n/a	n/a	n/a	6	16	8	4	4
720019	PROB	n/a	LTP305	ltpFR2	15	n/a	n/a	n/a	6	9	5	1	3
721520	PROB	n/a	LTP305	ltpFR2	15	n/a	n/a	n/a	6	20	9	4	7
722872	PROB	n/a	LTP305	ltpFR2	15	n/a	n/a	n/a	6	19	9	1	9
724589	PROB	n/a	LTP305	ltpFR2	15	n/a	n/a	n/a	6	21	9	4	8
726243	PROB	n/a	LTP305	ltpFR2	15	n/a	n/a	n/a	6	9	1	6	2
727577	PROB	n/a	LTP305	ltpFR2	15	n/a	n/a	n/a	6	16	5	6	5
729026	PROB	n/a	LTP305	ltpFR2	15	n/a	n/a	n/a	6	17	6	9	2
732562	STOP	n/a	LTP305	ltpFR2	15	n/a	n/a	n/a	6	n/a	n/a	n/a	n/a
734351	REC_START	n/a	LTP305	ltpFR2	15	4	n/a	n/a	n/a	n/a	0	0	0
741645	REC_WORD	wordpools/wasnorm_wordpool_576.txt	LTP305	ltpFR2	15	4	WRENCH	1625	n/a	n/a	0	0	0
824806	WORD	wordpools/wasnorm_wordpool_576.txt	LTP305	ltpFR2	15	5	GREASE	660	n/a	n/a	0	0	0
827262	WORD	wordpools/wasnorm_wordpool_576.txt	LTP305	ltpFR2	15	5	LAKE	796	n/a	n/a	0	0	0
829864	WORD	wordpools/wasnorm_wordpool_576.txt	LTP305	ltpFR2	15	5	BUTCHER	203	n/a	n/a	0	0	0
832365	WORD	wordpools/wasnorm_wordpool_576.txt	LTP305	ltpFR2	15	5	HOUND	724	n/a	n/a	0	0	0
834851	WORD	wordpools/wasnorm_wordpool_576.txt	LTP305	ltpFR2	15	5	PUPPY	1144	n/a	n/a	0	0	0
837603	WORD	wordpools/wasnorm_wordpool_576.txt	LTP305	ltpFR2	15	5	PICTURE	1061	n/a	n/a	0	0	0
840172	WORD	wordpools/wasnorm_wordpool_576.txt	LTP305	ltpFR2	15	5	THRONE	1461	n/a	n/a	0	0	0
842741	WORD	wordpools/wasnorm_wordpool_576.txt	LTP305	ltpFR2	15	5	EUROPE	541	n/a	n/a	0	0	0
845176	WORD	wordpools/wasnorm_wordpool_576.txt	LTP305	ltpFR2	15	5	COMET	353	n/a	n/a	0	0	0
847778	WORD	wordpools/wasnorm_wordpool_576.txt	LTP305	ltpFR2	15	5	GRIZZLY	662	n/a	n/a	0	0	0
850363	WORD	wordpools/wasnorm_wordpool_576.txt	LTP305	ltpFR2	15	5	BEAST	108	n/a	n/a	0	0	0
852833	WORD	wordpools/wasnorm_wordpool_576.txt	LTP305	ltpFR2	15	5	MONEY	908	n/a	n/a	0	0	0
855569	WORD	wordpools/wasnorm_wordpool_576.txt	LTP305	ltpFR2	15	5	SPOUSE	1358	n/a	n/a	0	0	0
858137	WORD	wordpools/wasnorm_wordpool_576.txt	LTP305	ltpFR2	15	5	WAITRESS	1581	n/a	n/a	0	0	0
860806	WORD	wordpools/wasnorm_wordpool_576.txt	LTP305	ltpFR2	15	5	BLENDER	136	n/a	n/a	0	0	0
863508	WORD	wordpools/wasnorm_wordpool_576.txt	LTP305	ltpFR2	15	5	LETTUCE	814	n/a	n/a	0	0	0
866310	WORD	wordpools/wasnorm_wordpool_576.txt	LTP305	ltpFR2	15	5	SLIME	1327	n/a	n/a	0	0	0
868779	WORD	wordpools/wasnorm_wordpool_576.txt	LTP305	ltpFR2	15	5	FLESH	579	n/a	n/a	0	0	0
871363	WORD	wordpools/wasnorm_wordpool_576.txt	LTP305	ltpFR2	15	5	AUTHOR	61	n/a	n/a	0	0	0
874132	WORD	wordpools/wasnorm_wordpool_576.txt	LTP305	ltpFR2	15	5	SPOON	1357	n/a	n/a	0	0	0
876869	WORD	wordpools/wasnorm_wordpool_576.txt	LTP305	ltpFR2	15	5	JAPAN	749	n/a	n/a	0	0	0
879537	WORD	wordpools/wasnorm_wordpool_576.txt	LTP305	ltpFR2	15	5	VIRUS	1572	n/a	n/a	0	0	0
882256	WORD	wordpools/wasnorm_wordpool_576.txt	LTP305	ltpFR2	15	5	PISTON	1076	n/a	n/a	0	0	0
884925	WORD	wordpools/wasnorm_wordpool_576.txt	LTP305	ltpFR2	15	5	MARINE	869	n/a	n/a	0	0	0
886543	START	n/a	LTP305	ltpFR2	15	n/a	n/a	n/a	7	n/a	n/a	n/a	n/a
887479	DISTRACTOR	n/a	LTP305	ltpFR2	15	5	n/a	n/a	n/a	n/a	0	0	0
887493	PROB	n/a	LTP305	ltpFR2	15	n/a	n/a	n/a	7	22	8	6	8
889830	PROB	n/a	LTP305	ltpFR2	15	n/a	n/a	n/a	7	19	2	9	8
891798	PROB	n/a	LTP305	ltpFR2	15	n/a	n/a	n/a	7	17	5	8	7
893984	PROB	n/a	LTP305	ltpFR2	15	n/a	n/a	n/a	7	19	5	6	8
895718	PROB	n/a	LTP305	ltpFR2	15	n/a	n/a	n/a	7	12	2	3	7
897382	PROB	n/a	LTP305	ltpFR2	15	n/a	n/a	n/a	7	17	9	3	5
899298	PROB	n/a	LTP305	ltpFR2	15	n/a	n/a	n/a	7	19	6	8	5
901317	PROB	n/a	LTP305	ltpFR2	15	n/a	n/a	n/a	7	16	5	9	2
902872	PROB	n/a	LTP305	ltpFR2	15	n/a	n/a	n/a	7	18	6	4	8
904703	PROB	n/a	LTP305	ltpFR2	15	n/a	n/a	n/a	7	12	4	6	2
906739	PROB	n/a	LTP305	ltpFR2	15	n/a	n/a	n/a	7	15	4	3	8
909094	STOP	n/a	LTP305	ltpFR2	15	n/a	n/a	n/a	7	n/a	n/a	n/a	n/a
912410	REC_START	n/a	LTP305	ltpFR2	15	5	n/a	n/a	n/a	n/a	0	0	0
913632	REC_WORD	wordpools/wasnorm_wordpool_576.txt	LTP305	ltpFR2	15	5	SLIME	1327	n/a	n/a	0	0	0
917822	REC_WORD	wordpools/wasnorm_wordpool_576.txt	LTP305	ltpFR2	15	5	WAITRESS	1581	n/a	n/a	0	0	0
921135	REC_WORD	wordpools/wasnorm_wordpool_576.txt	LTP305	ltpFR2	15	5	WIFE	1609	n/a	n/a	0	0	0
929887	REC_WORD	wordpools/wasnorm_wordpool_576.txt	LTP305	ltpFR2	15	5	GRIZZLY	662	n/a	n/a	0	0	0
932126	REC_WORD	wordpools/wasnorm_wordpool_576.txt	LTP305	ltpFR2	15	5	COMET	353	n/a	n/a	0	0	0
935670	REC_WORD	wordpools/wasnorm_wordpool_576.txt	LTP305	ltpFR2	15	5	THRONE	1461	n/a	n/a	0	0	0
937554	REC_WORD	wordpools/wasnorm_wordpool_576.txt	LTP305	ltpFR2	15	5	EUROPE	541	n/a	n/a	0	0	0
1002839	WORD	wordpools/wasnorm_wordpool_576.txt	LTP305	ltpFR2	15	6	EMPIRE	530	n/a	n/a	0	0	0
1005281	WORD	wordpools/wasnorm_wordpool_576.txt	LTP305	ltpFR2	15	6	COLONEL	348	n/a	n/a	0	0	0
1008062	WORD	wordpools/wasnorm_wordpool_576.txt	LTP305	ltpFR2	15	6	CRATER	400	n/a	n/a	0	0	0
1010621	WORD	wordpools/wasnorm_wordpool_576.txt	LTP305	ltpFR2	15	6	TRANSPLANT	1496	n/a	n/a	0	0	0
1013223	WORD	wordpools/wasnorm_wordpool_576.txt	LTP305	ltpFR2	15	6	BACKBONE	66	n/a	n/a	0	0	0
1015875	WORD	wordpools/wasnorm_wordpool_576.txt	LTP305	ltpFR2	15	6	PUDDLE	1140	n/a	n/a	0	0	0
1018436	WORD	wordpools/wasnorm_wordpool_576.txt	LTP305	ltpFR2	15	6	ROD	1203	n/a	n/a	0	0	0
1020888	WORD	wordpools/wasnorm_wordpool_576.txt	LTP305	ltpFR2	15	6	TURTLE	1522	n/a	n/a	0	0	0
1023514	WORD	wordpools/wasnorm_wordpool_576.txt	LTP305	ltpFR2	15	6	HARP	689	n/a	n/a	0	0	0
1026027	WORD	wordpools/wasnorm_wordpool_576.txt	LTP305	ltpFR2	15	6	POSSUM	1112	n/a	n/a	0	0	0
1028629	WORD	wordpools/wasnorm_wordpool_576.txt	LTP305	ltpFR2	15	6	CHIPMUNK	304	n/a	n/a	0	0	0
1031098	WORD	wordpools/wasnorm_wordpool_576.txt	LTP305	ltpFR2	15	6	DONOR	485	n/a	n/a	0	0	0
1033599	WORD	wordpools/wasnorm_wordpool_576.txt	LTP305	ltpFR2	15	6	TRENCH	1503	n/a	n/a	0	0	0
1036267	WORD	wordpools/wasnorm_wordpool_576.txt	LTP305	ltpFR2	15	6	SHOVEL	1295	n/a	n/a	0	0	0
1038803	WORD	wordpools/wasnorm_wordpool_576.txt	LTP305	ltpFR2	15	6	FREEZER	604	n/a	n/a	0	0	0
1041507	WORD	wordpools/wasnorm_wordpool_576.txt	LTP305	ltpFR2	15	6	FRANCE	601	n/a	n/a	0	0	0
1044229	WORD	wordpools/wasnorm_wordpool_576.txt	LTP305	ltpFR2	15	6	SALAD	1224	n/a	n/a	0	0	0
1046794	WORD	wordpools/wasnorm_wordpool_576.txt	LTP305	ltpFR2	15	6	LEADER	807	n/a	n/a	0	0	0
1049345	WORD	wordpools/wasnorm_wordpool_576.txt	LTP305	ltpFR2	15	6	RAFT	1159	n/a	n/a	0	0	0
1052052	WORD	wordpools/wasnorm_wordpool_576.txt	LTP305	ltpFR2	15	6	HEART	697	n/a	n/a	0	0	0
1054784	WORD	wordpools/wasnorm_wordpool_576.txt	LTP305	ltpFR2	15	6	SADDLE	1221	n/a	n/a	0	0	0
1057402	WORD	wordpools/wasnorm_wordpool_576.txt	LTP305	ltpFR2	15	6	BARLEY	88	n/a	n/a	0	0	0
1059989	WORD	wordpools/wasnorm_wordpool_576.txt	LTP305	ltpFR2	15	6	LOVER	846	n/a	n/a	0	0	0
1062674	WORD	wordpools/wasnorm_wordpool_576.txt	LTP305	ltpFR2	15	6	IGLOO	734	n/a	n/a	0	0	0
1064292	START	n/a	LTP305	ltpFR2	15	n/a	n/a	n/a	8	n/a	n/a	n/a	n/a
1065412	DISTRACTOR	n/a	LTP305	ltpFR2	15	6	n/a	n/a	n/a	n/a	0	0	0
1065426	PROB	n/a	LTP305	ltpFR2	15	n/a	n/a	n/a	8	17	8	2	7
1068643	PROB	n/a	LTP305	ltpFR2	15	n/a	n/a	n/a	8	19	2	8	9
1071461	PROB	n/a	LTP305	ltpFR2	15	n/a	n/a	n/a	8	18	8	5	5
1072983	PROB	n/a	LTP305	ltpFR2	15	n/a	n/a	n/a	8	10	7	1	2
1074666	PROB	n/a	LTP305	ltpFR2	15	n/a	n/a	n/a	8	11	1	8	2
1076065	PROB	n/a	LTP305	ltpFR2	15	n/a	n/a	n/a	8	15	7	7	1
1077850	PROB	n/a	LTP305	ltpFR2	15	n/a	n/a	n/a	8	19	8	4	7
1079451	PROB	n/a	LTP305	ltpFR2	15	n/a	n/a	n/a	8	17	8	4	5
1081420	PROB	n/a	LTP305	ltpFR2	15	n/a	n/a	n/a	8	14	8	4	2
1083237	PROB	n/a	LTP305	ltpFR2	15	n/a	n/a	n/a	8	18	6	7	5
1084957	PROB	n/a	LTP305	ltpFR2	15	n/a	n/a	n/a	8	15	8	2	5
1086822	STOP	n/a	LTP305	ltpFR2	15	n/a	n/a	n/a	8	n/a	n/a	n/a	n/a
1090110	REC_START	n/a	LTP305	ltpFR2	15	6	n/a	n/a	n/a	n/a	0	0	0
1180569	WORD	wordpools/wasnorm_wordpool_576.txt	LTP305	ltpFR2	15	7	MEAT	883	n/a	n/a	0	0	0
1183086	WORD	wordpools/wasnorm_wordpool_576.txt	LTP305	ltpFR2	15	7	COUSIN	392	n/a	n/a	0	0	0
1185521	WORD	wordpools/wasnorm_wordpool_576.txt	LTP305	ltpFR2	15	7	LIPSTICK	829	n/a	n/a	0	0	0
1188094	WORD	wordpools/wasnorm_wordpool_576.txt	LTP305	ltpFR2	15	7	COURSE	390	n/a	n/a	0	0	0
1190541	WORD	wordpools/wasnorm_wordpool_576.txt	LTP305	ltpFR2	15	7	RECEIPT	1173	n/a	n/a	0	0	0
1193032	WORD	wordpools/wasnorm_wordpool_576.txt	LTP305	ltpFR2	15	7	SISTER	1312	n/a	n/a	0	0	0
1195751	WORD	wordpools/wasnorm_wordpool_576.txt	LTP305	ltpFR2	15	7	SLUG	1329	n/a	n/a	0	0	0
1198269	WORD	wordpools/wasnorm_wordpool_576.txt	LTP305	ltpFR2	15	7	SHELTER	1282	n/a	n/a	0	0	0
1200805	WORD	wordpools/wasnorm_wordpool_576.txt	LTP305	ltpFR2	15	7	DINER	467	n/a	n/a	0	0	0
1203535	WORD	wordpools/wasnorm_wordpool_576.txt	LTP305	ltpFR2	15	7	PARENT	1013	n/a	n/a	0	0	0
1206352	WORD	wordpools/wasnorm_wordpool_576.txt	LTP305	ltpFR2	15	7	FARMER	553	n/a	n/a	0	0	0
1208839	WORD	wordpools/wasnorm_wordpool_576.txt	LTP305	ltpFR2	15	7	COD	340	n/a	n/a	0	0	0
1211323	WORD	wordpools/wasnorm_wordpool_576.txt	LTP305	ltpFR2	15	7	TROUT	1511	n/a	n/a	0	0	0
1214026	WORD	wordpools/wasnorm_wordpool_576.txt	LTP305	ltpFR2	15	7	SCALLOP	1242	n/a	n/a	0	0	0
1216545	WORD	wordpools/wasnorm_wordpool_576.txt	LTP305	ltpFR2	15	7	POCKET	1093	n/a	n/a	0	0	0
1219311	WORD	wordpools/wasnorm_wordpool_576.txt	LTP305	ltpFR2	15	7	BANJO	82	n/a	n/a	0	0	0
1221839	WORD	wordpools/wasnorm_wordpool_576.txt	LTP305	ltpFR2	15	7	SURVEY	1414	n/a	n/a	0	0	0
1224492	WORD	wordpools/wasnorm_wordpool_576.txt	LTP305	ltpFR2	15	7	RUG	1215	n/a	n/a	0	0	0
1227236	WORD	wordpools/wasnorm_wordpool_576.txt	LTP305	ltpFR2	15	7	CEILING	265	n/a	n/a	0	0	0
1229963	WORD	wordpools/wasnorm_wordpool_576.txt	LTP305	ltpFR2	15	7	EGYPT	519	n/a	n/a	0	0	0
1232388	WORD	wordpools/wasnorm_wordpool_576.txt	LTP305	ltpFR2	15	7	BROTHER	179	n/a	n/a	0	0	0
1235084	WORD	wordpools/wasnorm_wordpool_576.txt	LTP305	ltpFR2	15	7	ZIPPER	1636	n/a	n/a	0	0	0
1237703	WORD	wordpools/wasnorm_wordpool_576.txt	LTP305	ltpFR2	15	7	MOTEL	919	n/a	n/a	0	0	0
1240496	WORD	wordpools/wasnorm_wordpool_576.txt	LTP305	ltpFR2	15	7	NIGHTGOWN	953	n/a	n/a	0	0	0
1242107	START	n/a	LTP305	ltpFR2	15	n/a	n/a	n/a	9	n/a	n/a	n/a	n/a
1243069	DISTRACTOR	n/a	LTP305	ltpFR2	15	7	n/a	n/a	n/a	n/a	0	0	0
1243081	PROB	n/a	LTP305	ltpFR2	15	n/a	n/a	n/a	9	23	8	9	6
1245858	PROB	n/a	LTP305	ltpFR2	15	n/a	n/a	n/a	9	20	5	7	8
1247441	PROB	n/a	LTP305	ltpFR2	15	n/a	n/a	n/a	9	13	3	8	2
1249694	PROB	n/a	LTP305	ltpFR2	15	n/a	n/a	n/a	9	9	2	5	2
1251360	PROB	n/a	LTP305	ltpFR2	15	n/a	n/a	n/a	9	12	6	1	5
1252963	PROB	n/a	LTP305	ltpFR2	15	n/a	n/a	n/a	9	21	4	9	8
1254496	PROB	n/a	LTP305	ltpFR2	15	n/a	n/a	n/a	9	19	2	9	8
1256917	PROB	n/a	LTP305	ltpFR2	15	n/a	n/a	n/a	9	11	5	5	1
1258183	PROB	n/a	LTP305	ltpFR2	15	n/a	n/a	n/a	9	18	5	7	6
1260739	PROB	n/a	LTP305	ltpFR2	15	n/a	n/a	n/a	9	8	2	4	2
1262172	PROB	n/a	LTP305	ltpFR2	15	n/a	n/a	n/a	9	19	8	2	9
1263705	PROB	n/a	LTP305	ltpFR2	15	n/a	n/a	n/a	9	21	9	7	5
1265510	STOP	n/a	LTP305	ltpFR2	15	n/a	n/a	n/a	9	n/a	n/a	n/a	n/a
1267925	REC_START	n/a	LTP305	ltpFR2	15	7	n/a	n/a	n/a	n/a	0	0	0
1358386	DISTRACTOR	n/a	LTP305	ltpFR2	15	8	n/a	n/a	n/a	n/a	0	0	0
1358386	START	n/a	LTP305	ltpFR2	15	n/a	n/a	n/a	10	n/a	n/a	n/a	n/a
1358399	PROB	n/a	LTP305	ltpFR2	15	n/a	n/a	n/a	10	15	3	6	6
1360952	PROB	n/a	LTP305	ltpFR2	15	n/a	n/a	n/a	10	11	6	4	1
1363240	PROB	n/a	LTP305	ltpFR2	15	n/a	n/a	n/a	10	11	1	8	2
1364672	PROB	n/a	LTP305	ltpFR2	15	n/a	n/a	n/a	10	19	1	9	9
1366509	PROB	n/a	LTP305	ltpFR2	15	n/a	n/a	n/a	10	17	8	3	6
1368993	PROB	n/a	LTP305	ltpFR2	15	n/a	n/a	n/a	10	12	1	5	6
1370462	PROB	n/a	LTP305	ltpFR2	15	n/a	n/a	n/a	10	9	4	1	4
1371763	PROB	n/a	LTP305	ltpFR2	15	n/a	n/a	n/a	10	13	9	3	1
1373646	PROB	n/a	LTP305	ltpFR2	15	n/a	n/a	n/a	10	10	1	2	7
1375162	PROB	n/a	LTP305	ltpFR2	15	n/a	n/a	n/a	10	17	6	3	8
1377565	PROB	n/a	LTP305	ltpFR2	15	n/a	n/a	n/a	10	9	6	1	2
1379135	PROB	n/a	LTP305	ltpFR2	15	n/a	n/a	n/a	10	14	6	3	5
1381574	STOP	n/a	LTP305	ltpFR2	15	n/a	n/a	n/a	10	n/a	n/a	n/a	n/a
1383371	WORD	wordpools/wasnorm_wordpool_576.txt	LTP305	ltpFR2	15	8	GLOVE	642	n/a	n/a	0	0	0
1385940	WORD	wordpools/wasnorm_wordpool_576.txt	LTP305	ltpFR2	15	8	WRIST	1626	n/a	n/a	0	0	0
1388759	WORD	wordpools/wasnorm_wordpool_576.txt	LTP305	ltpFR2	15	8	RIFLE	1192	n/a	n/a	0	0	0
1391561	WORD	wordpools/wasnorm_wordpool_576.txt	LTP305	ltpFR2	15	8	CORAL	378	n/a	n/a	0	0	0
1394213	WORD	wordpools/wasnorm_wordpool_576.txt	LTP305	ltpFR2	15	8	SIBLING	1301	n/a	n/a	0	0	0
1396731	WORD	wordpools/wasnorm_wordpool_576.txt	LTP305	ltpFR2	15	8	FUNGUS	614	n/a	n/a	0	0	0
1399383	WORD	wordpools/wasnorm_wordpool_576.txt	LTP305	ltpFR2	15	8	BOUQUET	157	n/a	n/a	0	0	0
1402169	WORD	wordpools/wasnorm_wordpool_576.txt	LTP305	ltpFR2	15	8	FIREMAN	569	n/a	n/a	0	0	0
1404709	WORD	wordpools/wasnorm_wordpool_576.txt	LTP305	ltpFR2	15	8	DRUG	501	n/a	n/a	0	0	0
1407473	WORD	wordpools/wasnorm_wordpool_576.txt	LTP305	ltpFR2	15	8	DRESS	495	n/a	n/a	0	0	0
1410008	WORD	wordpools/wasnorm_wordpool_576.txt	LTP305	ltpFR2	15	8	BUNNY	198	n/a	n/a	0	0	0
1412694	WORD	wordpools/wasnorm_wordpool_576.txt	LTP305	ltpFR2	15	8	OMELET	976	n/a	n/a	0	0	0
1415129	WORD	wordpools/wasnorm_wordpool_576.txt	LTP305	ltpFR2	15	8	BACON	67	n/a	n/a	0	0	0
1417714	WORD	wordpools/wasnorm_wordpool_576.txt	LTP305	ltpFR2	15	8	LION	827	n/a	n/a	0	0	0
1420331	WORD	wordpools/wasnorm_wordpool_576.txt	LTP305	ltpFR2	15	8	BUG	187	n/a	n/a	0	0	0
1422818	WORD	wordpools/wasnorm_wordpool_576.txt	LTP305	ltpFR2	15	8	MACHINE	852	n/a	n/a	0	0	0
1425407	WORD	wordpools/wasnorm_wordpool_576.txt	LTP305	ltpFR2	15	8	PICNIC	1060	n/a	n/a	0	0	0
1428222	WORD	wordpools/wasnorm_wordpool_576.txt	LTP305	ltpFR2	15	8	MUFFIN	929	n/a	n/a	0	0	0
1430708	WORD	wordpools/wasnorm_wordpool_576.txt	LTP305	ltpFR2	15	8	LACE	792	n/a	n/a	0	0	0
1433182	WORD	wordpools/wasnorm_wordpool_576.txt	LTP305	ltpFR2	15	8	POISON	1096	n/a	n/a	0	0	0
1435762	WORD	wordpools/wasnorm_wordpool_576.txt	LTP305	ltpFR2	15	8	ORCHID	982	n/a	n/a	0	0	0
1438236	WORD	wordpools/wasnorm_wordpool_576.txt	LTP305	ltpFR2	15	8	GARLIC	624	n/a	n/a	0	0	0
1440731	WORD	wordpools/wasnorm_wordpool_576.txt	LTP305	ltpFR2	15	8	CRIB	407	n/a	n/a	0	0	0
1443241	WORD	wordpools/wasnorm_wordpool_576.txt	LTP305	ltpFR2	15	8	ITEM	746	n/a	n/a	0	0	0
1444853	START	n/a	LTP305	ltpFR2	15	n/a	n/a	n/a	11	n/a	n/a	n/a	n/a
1445872	DISTRACTOR	n/a	LTP305	ltpFR2	15	8	n/a	n/a	n/a	n/a	0	0	0
1445886	PROB	n/a	LTP305	ltpFR2	15	n/a	n/a	n/a	11	25	9	9	8
1449661	PROB	n/a	LTP305	ltpFR2	15	n/a	n/a	n/a	11	13	8	2	3
1451094	PROB	n/a	LTP305	ltpFR2	15	n/a	n/a	n/a	11	18	7	6	5
1452813	PROB	n/a	LTP305	ltpFR2	15	n/a	n/a	n/a	11	18	7	2	9
1454698	PROB	n/a	LTP305	ltpFR2	15	n/a	n/a	n/a	11	21	9	6	6
1457331	PROB	n/a	LTP305	ltpFR2	15	n/a	n/a	n/a	11	22	7	9	6
1460401	PROB	n/a	LTP305	ltpFR2	15	n/a	n/a	n/a	11	21	7	8	6
1461955	PROB	n/a	LTP305	ltpFR2	15	n/a	n/a	n/a	11	10	4	1	5
1464139	PROB	n/a	LTP305	ltpFR2	15	n/a	n/a	n/a	11	18	8	2	8
1466140	PROB	n/a	LTP305	ltpFR2	15	n/a	n/a	n/a	11	9	3	2	7
1468238	STOP	n/a	LTP305	ltpFR2	15	n/a	n/a	n/a	11	n/a	n/a	n/a	n/a
1470629	REC_START	n/a	LTP305	ltpFR2	15	8	n/a	n/a	n/a	n/a	0	0	0
1471632	REC_WORD	wordpools/wasnorm_wordpool_576.txt	LTP305	ltpFR2	15	8	CRIB	407	n/a	n/a	0	0	0
1547160	REST_REWET	n/a	LTP305	ltpFR2	15	8	n/a	n/a	n/a	n/a	0	0	0
1931292	WORD	wordpools/wasnorm_wordpool_576.txt	LTP305	ltpFR2	15	9	MILK	895	n/a	n/a	0	0	0
1933915	WORD	wordpools/wasnorm_wordpool_576.txt	LTP305	ltpFR2	15	9	SKIRT	1319	n/a	n/a	0	0	0
1936459	WORD	wordpools/wasnorm_wordpool_576.txt	LTP305	ltpFR2	15	9	DORM	488	n/a	n/a	0	0	0
1939179	WORD	wordpools/wasnorm_wordpool_576.txt	LTP305	ltpFR2	15	9	LAGOON	795	n/a	n/a	0	0	0
1941855	WORD	wordpools/wasnorm_wordpool_576.txt	LTP305	ltpFR2	15	9	GANGSTER	620	n/a	n/a	0	0	0
1944448	WORD	wordpools/wasnorm_wordpool_576.txt	LTP305	ltpFR2	15	9	FLASHLIGHT	575	n/a	n/a	0	0	0
1947026	WORD	wordpools/wasnorm_wordpool_576.txt	LTP305	ltpFR2	15	9	LASER	801	n/a	n/a	0	0	0
1949495	WORD	wordpools/wasnorm_wordpool_576.txt	LTP305	ltpFR2	15	9	TRUCK	1512	n/a	n/a	0	0	0
1952122	WORD	wordpools/wasnorm_wordpool_576.txt	LTP305	ltpFR2	15	9	KNIFE	785	n/a	n/a	0	0	0
1954566	WORD	wordpools/wasnorm_wordpool_576.txt	LTP305	ltpFR2	15	9	PLATE	1086	n/a	n/a	0	0	0
1957184	WORD	wordpools/wasnorm_wordpool_576.txt	LTP305	ltpFR2	15	9	NECKLACE	940	n/a	n/a	0	0	0
1959711	WORD	wordpools/wasnorm_wordpool_576.txt	LTP305	ltpFR2	15	9	QUAIL	1147	n/a	n/a	0	0	0
1962412	WORD	wordpools/wasnorm_wordpool_576.txt	LTP305	ltpFR2	15	9	TORTOISE	1486	n/a	n/a	0	0	0
1964915	WORD	wordpools/wasnorm_wordpool_576.txt	LTP305	ltpFR2	15	9	TROMBONE	1508	n/a	n/a	0	0	0
1967694	WORD	wordpools/wasnorm_wordpool_576.txt	LTP305	ltpFR2	15	9	FRIEND	606	n/a	n/a	0	0	0
1970502	WORD	wordpools/wasnorm_wordpool_576.txt	LTP305	ltpFR2	15	9	PALACE	1006	n/a	n/a	0	0	0
1973137	WORD	wordpools/wasnorm_wordpool_576.txt	LTP305	ltpFR2	15	9	OFFICE	972	n/a	n/a	0	0	0
1975617	WORD	wordpools/wasnorm_wordpool_576.txt	LTP305	ltpFR2	15	9	BRIEFCASE	175	n/a	n/a	0	0	0
1978301	WORD	wordpools/wasnorm_wordpool_576.txt	LTP305	ltpFR2	15	9	SNAIL	1332	n/a	n/a	0	0	0
1980920	WORD	wordpools/wasnorm_wordpool_576.txt	LTP305	ltpFR2	15	9	WHISTLE	1606	n/a	n/a	0	0	0
1983388	WORD	wordpools/wasnorm_wordpool_576.txt	LTP305	ltpFR2	15	9	HAND	683	n/a	n/a	0	0	0
1986131	WORD	wordpools/wasnorm_wordpool_576.txt	LTP305	ltpFR2	15	9	FINGER	567	n/a	n/a	0	0	0
1988894	WORD	wordpools/wasnorm_wordpool_576.txt	LTP305	ltpFR2	15	9	BATHTUB	100	n/a	n/a	0	0	0
1991513	WORD	wordpools/wasnorm_wordpool_576.txt	LTP305	ltpFR2	15	9	MOP	916	n/a	n/a	0	0	0
1993120	START	n/a	LTP305	ltpFR2	15	n/a	n/a	n/a	12	n/a	n/a	n/a	n/a
1993993	DISTRACTOR	n/a	LTP305	ltpFR2	15	9	n/a	n/a	n/a	n/a	0	0	0
1994004	PROB	n/a	LTP305	ltpFR2	15	n/a	n/a	n/a	12	13	2	7	4
1996480	PROB	n/a	LTP305	ltpFR2	15	n/a	n/a	n/a	12	19	3	9	7
1999149	PROB	n/a	LTP305	ltpFR2	15	n/a	n/a	n/a	12	18	3	9	6
2004456	PROB	n/a	LTP305	ltpFR2	15	n/a	n/a	n/a	12	19	8	6	5
2006021	PROB	n/a	LTP305	ltpFR2	15	n/a	n/a	n/a	12	23	9	7	7
2007606	PROB	n/a	LTP305	ltpFR2	15	n/a	n/a	n/a	12	16	9	1	6
2009791	PROB	n/a	LTP305	ltpFR2	15	n/a	n/a	n/a	12	17	5	3	9
2012460	PROB	n/a	LTP305	ltpFR2	15	n/a	n/a	n/a	12	17	7	8	2
2014012	PROB	n/a	LTP305	ltpFR2	15	n/a	n/a	n/a	12	20	8	5	7
2017120	STOP	n/a	LTP305	ltpFR2	15	n/a	n/a	n/a	12	n/a	n/a	n/a	n/a
2018986	REC_START	n/a	LTP305	ltpFR2	15	9	n/a	n/a	n/a	n/a	0	0	0
2019637	REC_WORD	wordpools/wasnorm_wordpool_576.txt	LTP305	ltpFR2	15	9	MOP	916	n/a	n/a	0	0	0
2021722	REC_WORD	wordpools/wasnorm_wordpool_576.txt	LTP305	ltpFR2	15	9	OFFICE	972	n/a	n/a	0	0	0
2109441	DISTRACTOR	n/a	LTP305	ltpFR2	15	10	n/a	n/a	n/a	n/a	0	0	0
2109441	START	n/a	LTP305	ltpFR2	15	n/a	n/a	n/a	13	n/a	n/a	n/a	n/a
2109459	PROB	n/a	LTP305	ltpFR2	15	n/a	n/a	n/a	13	16	3	9	4
2111809	PROB	n/a	LTP305	ltpFR2	15	n/a	n/a	n/a	13	18	7	6	5
2113425	PROB	n/a	LTP305	ltpFR2	15	n/a	n/a	n/a	13	15	5	8	2
2115043	PROB	n/a	LTP305	ltpFR2	15	n/a	n/a	n/a	13	24	9	8	7
2116728	PROB	n/a	LTP305	ltpFR2	15	n/a	n/a	n/a	13	13	4	1	8
2118629	PROB	n/a	LTP305	ltpFR2	15	n/a	n/a	n/a	13	17	2	6	9
2120914	PROB	n/a	LTP305	ltpFR2	15	n/a	n/a	n/a	13	12	4	2	6
2122783	PROB	n/a	LTP305	ltpFR2	15	n/a	n/a	n/a	13	16	9	6	1
2124301	PROB	n/a	LTP305	ltpFR2	15	n/a	n/a	n/a	13	15	1	9	5
2125855	PROB	n/a	LTP305	ltpFR2	15	n/a	n/a	n/a	13	14	3	4	7
2127537	PROB	n/a	LTP305	ltpFR2	15	n/a	n/a	n/a	13	19	9	1	9
2129273	PROB	n/a	LTP305	ltpFR2	15	n/a	n/a	n/a	13	15	8	5	2
2131009	PROB	n/a	LTP305	ltpFR2	15	n/a	n/a	n/a	13	20	8	8	4
2132622	STOP	n/a	LTP305	ltpFR2	15	n/a	n/a	n/a	13	n/a	n/a	n/a	n/a
2134310	WORD	wordpools/wasnorm_wordpool_576.txt	LTP305	ltpFR2	15	10	ROBIN	1199	n/a	n/a	0	0	0
2137130	WORD	wordpools/wasnorm_wordpool_576.txt	LTP305	ltpFR2	15	10	SEAGULL	1261	n/a	n/a	0	0	0
2139898	WORD	wordpools/wasnorm_wordpool_576.txt	LTP305	ltpFR2	15	10	SCULPTURE	1258	n/a	n/a	0	0	0
2142650	WORD	wordpools/wasnorm_wordpool_576.txt	LTP305	ltpFR2	15	10	SPONGE	1355	n/a	n/a	0	0	0
2145273	WORD	wordpools/wasnorm_wordpool_576.txt	LTP305	ltpFR2	15	10	CRUTCH	417	n/a	n/a	0	0	0
2148020	WORD	wordpools/wasnorm_wordpool_576.txt	LTP305	ltpFR2	15	10	CARROT	249	n/a	n/a	0	0	0
2150657	WORD	wordpools/wasnorm_wordpool_576.txt	LTP305	ltpFR2	15	10	SAUSAGE	1238	n/a	n/a	0	0	0
2153463	WORD	wordpools/wasnorm_wordpool_576.txt	LTP305	ltpFR2	15	10	PORK	1108	n/a	n/a	0	0	0
2156161	WORD	wordpools/wasnorm_wordpool_576.txt	LTP305	ltpFR2	15	10	DRAWING	494	n/a	n/a	0	0	0
2158779	WORD	wordpools/wasnorm_wordpool_576.txt	LTP305	ltpFR2	15	10	RELISH	1183	n/a	n/a	0	0	0
2161347	WORD	wordpools/wasnorm_wordpool_576.txt	LTP305	ltpFR2	15	10	YARN	1631	n/a	n/a	0	0	0
2163933	WORD	wordpools/wasnorm_wordpool_576.txt	LTP305	ltpFR2	15	10	SNACK	1331	n/a	n/a	0	0	0
2166719	WORD	wordpools/wasnorm_wordpool_576.txt	LTP305	ltpFR2	15	10	TABLE	1426	n/a	n/a	0	0	0
2169286	WORD	wordpools/wasnorm_wordpool_576.txt	LTP305	ltpFR2	15	10	HOOK	715	n/a	n/a	0	0	0
2172006	WORD	wordpools/wasnorm_wordpool_576.txt	LTP305	ltpFR2	15	10	CANYON	235	n/a	n/a	0	0	0
2174715	WORD	wordpools/wasnorm_wordpool_576.txt	LTP305	ltpFR2	15	10	ULCER	1533	n/a	n/a	0	0	0
2177442	WORD	wordpools/wasnorm_wordpool_576.txt	LTP305	ltpFR2	15	10	WAITER	1580	n/a	n/a	0	0	0
2180103	WORD	wordpools/wasnorm_wordpool_576.txt	LTP305	ltpFR2	15	10	CREVICE	405	n/a	n/a	0	0	0
2182714	WORD	wordpools/wasnorm_wordpool_576.txt	LTP305	ltpFR2	15	10	PADDLE	1000	n/a	n/a	0	0	0
2185323	WORD	wordpools/wasnorm_wordpool_576.txt	LTP305	ltpFR2	15	10	FLOWER	584	n/a	n/a	0	0	0
2188043	WORD	wordpools/wasnorm_wordpool_576.txt	LTP305	ltpFR2	15	10	PEDAL	1037	n/a	n/a	0	0	0
2190545	WORD	wordpools/wasnorm_wordpool_576.txt	LTP305	ltpFR2	15	10	PROTON	1132	n/a	n/a	0	0	0
2193022	WORD	wordpools/wasnorm_wordpool_576.txt	LTP305	ltpFR2	15	10	PLAID	1080	n/a	n/a	0	0	0
2195808	WORD	wordpools/wasnorm_wordpool_576.txt	LTP305	ltpFR2	15	10	KIDNEY	776	n/a	n/a	0	0	0
2197418	START	n/a	LTP305	ltpFR2	15	n/a	n/a	n/a	14	n/a	n/a	n/a	n/a
2198352	DISTRACTOR	n/a	LTP305	ltpFR2	15	10	n/a	n/a	n/a	n/a	0	0	0
2198359	PROB	n/a	LTP305	ltpFR2	15	n/a	n/a	n/a	14	9	4	3	2
2200349	PROB	n/a	LTP305	ltpFR2	15	n/a	n/a	n/a	14	20	5	7	8
2202686	PROB	n/a	LTP305	ltpFR2	15	n/a	n/a	n/a	14	14	1	7	6
2204338	PROB	n/a	LTP305	ltpFR2	15	n/a	n/a	n/a	14	12	2	5	5
2205905	PROB	n/a	LTP305	ltpFR2	15	n/a	n/a	n/a	14	12	4	7	1
2208790	PROB	n/a	LTP305	ltpFR2	15	n/a	n/a	n/a	14	12	6	3	3
2211442	PROB	n/a	LTP305	ltpFR2	15	n/a	n/a	n/a	14	27	9	9	9
2213460	PROB	n/a	LTP305	ltpFR2	15	n/a	n/a	n/a	14	14	4	2	8
2215013	PROB	n/a	LTP305	ltpFR2	15	n/a	n/a	n/a	14	13	7	1	5
2216264	PROB	n/a	LTP305	ltpFR2	15	n/a	n/a	n/a	14	8	2	4	2
2221418	STOP	n/a	LTP305	ltpFR2	15	n/a	n/a	n/a	14	n/a	n/a	n/a	n/a
2223173	REC_START	n/a	LTP305	ltpFR2	15	10	n/a	n/a	n/a	n/a	0	0	0
2313645	WORD	wordpools/wasnorm_wordpool_576.txt	LTP305	ltpFR2	15	11	THREAD	1460	n/a	n/a	0	0	0
2316199	WORD	wordpools/wasnorm_wordpool_576.txt	LTP305	ltpFR2	15	11	SPOOL	1356	n/a	n/a	0	0	0
2319002	WORD	wordpools/wasnorm_wordpool_576.txt	LTP305	ltpFR2	15	11	PASTRY	1022	n/a	n/a	0	0	0
2321520	WORD	wordpools/wasnorm_wordpool_576.txt	LTP305	ltpFR2	15	11	SILK	1307	n/a	n/a	0	0	0
2324321	WORD	wordpools/wasnorm_wordpool_576.txt	LTP305	ltpFR2	15	11	GIFT	635	n/a	n/a	0	0	0
2326774	WORD	wordpools/wasnorm_wordpool_576.txt	LTP305	ltpFR2	15	11	BOX	159	n/a	n/a	0	0	0
2329459	WORD	wordpools/wasnorm_wordpool_576.txt	LTP305	ltpFR2	15	11	CRICKET	408	n/a	n/a	0	0	0
2332147	WORD	wordpools/wasnorm_wordpool_576.txt	LTP305	ltpFR2	15	11	COCOON	339	n/a	n/a	0	0	0
2334580	WORD	wordpools/wasnorm_wordpool_576.txt	LTP305	ltpFR2	15	11	MAILBOX	857	n/a	n/a	0	0	0
2337265	WORD	wordpools/wasnorm_wordpool_576.txt	LTP305	ltpFR2	15	11	VALVE	1546	n/a	n/a	0	0	0
2340034	WORD	wordpools/wasnorm_wordpool_576.txt	LTP305	ltpFR2	15	11	SHARK	1275	n/a	n/a	0	0	0
2342703	WORD	wordpools/wasnorm_wordpool_576.txt	LTP305	ltpFR2	15	11	RABBIT	1152	n/a	n/a	0	0	0
2345472	WORD	wordpools/wasnorm_wordpool_576.txt	LTP305	ltpFR2	15	11	PARROT	1015	n/a	n/a	0	0	0
2347991	WORD	wordpools/wasnorm_wordpool_576.txt	LTP305	ltpFR2	15	11	HUMAN	726	n/a	n/a	0	0	0
2350809	WORD	wordpools/wasnorm_wordpool_576.txt	LTP305	ltpFR2	15	11	OX	994	n/a	n/a	0	0	0
2353409	WORD	wordpools/wasnorm_wordpool_576.txt	LTP305	ltpFR2	15	11	TART	1436	n/a	n/a	0	0	0
2356163	WORD	wordpools/wasnorm_wordpool_576.txt	LTP305	ltpFR2	15	11	JUNGLE	764	n/a	n/a	0	0	0
2358615	WORD	wordpools/wasnorm_wordpool_576.txt	LTP305	ltpFR2	15	11	FILM	565	n/a	n/a	0	0	0
2361266	WORD	wordpools/wasnorm_wordpool_576.txt	LTP305	ltpFR2	15	11	CASKET	255	n/a	n/a	0	0	0
2364019	WORD	wordpools/wasnorm_wordpool_576.txt	LTP305	ltpFR2	15	11	LOFT	840	n/a	n/a	0	0	0
2366471	WORD	wordpools/wasnorm_wordpool_576.txt	LTP305	ltpFR2	15	11	DENTIST	447	n/a	n/a	0	0	0
2369223	WORD	wordpools/wasnorm_wordpool_576.txt	LTP305	ltpFR2	15	11	HAWK	692	n/a	n/a	0	0	0
2371897	WORD	wordpools/wasnorm_wordpool_576.txt	LTP305	ltpFR2	15	11	FRAGRANCE	599	n/a	n/a	0	0	0
2374494	WORD	wordpools/wasnorm_wordpool_576.txt	LTP305	ltpFR2	15	11	ICING	732	n/a	n/a	0	0	0
2376113	START	n/a	LTP305	ltpFR2	15	n/a	n/a	n/a	15	n/a	n/a	n/a	n/a
2377304	DISTRACTOR	n/a	LTP305	ltpFR2	15	11	n/a	n/a	n/a	n/a	0	0	0
2377312	PROB	n/a	LTP305	ltpFR2	15	n/a	n/a	n/a	15	22	7	6	9
2379565	PROB	n/a	LTP305	ltpFR2	15	n/a	n/a	n/a	15	6	1	4	1
2380696	PROB	n/a	LTP305	ltpFR2	15	n/a	n/a	n/a	15	20	6	5	9
2382603	PROB	n/a	LTP305	ltpFR2	15	n/a	n/a	n/a	15	20	7	6	7
2384541	PROB	n/a	LTP305	ltpFR2	15	n/a	n/a	n/a	15	10	3	2	5
2386200	PROB	n/a	LTP305	ltpFR2	15	n/a	n/a	n/a	15	20	9	8	3
2387676	PROB	n/a	LTP305	ltpFR2	15	n/a	n/a	n/a	15	12	4	1	7
2388993	PROB	n/a	LTP305	ltpFR2	15	n/a	n/a	n/a	15	20	8	3	9
2390374	PROB	n/a	LTP305	ltpFR2	15	n/a	n/a	n/a	15	17	9	7	1
2392479	PROB	n/a	LTP305	ltpFR2	15	n/a	n/a	n/a	15	16	2	6	8
2393861	PROB	n/a	LTP305	ltpFR2	15	n/a	n/a	n/a	15	20	9	4	7
2395213	PROB	n/a	LTP305	ltpFR2	15	n/a	n/a	n/a	15	16	7	1	8
2396597	PROB	n/a	LTP305	ltpFR2	15	n/a	n/a	n/a	15	12	7	2	3
2398282	PROB	n/a	LTP305	ltpFR2	15	n/a	n/a	n/a	15	13	5	2	6
2399686	STOP	n/a	LTP305	ltpFR2	15	n/a	n/a	n/a	15	n/a	n/a	n/a	n/a
2402018	REC_START	n/a	LTP305	ltpFR2	15	11	n/a	n/a	n/a	n/a	0	0	0
2402650	REC_WORD	wordpools/wasnorm_wordpool_576.txt	LTP305	ltpFR2	15	11	ICING	732	n/a	n/a	0	0	0
2403868	REC_WORD	wordpools/wasnorm_wordpool_576.txt	LTP305	ltpFR2	15	11	CASKET	255	n/a	n/a	0	0	0
2405249	REC_WORD	wordpools/wasnorm_wordpool_576.txt	LTP305	ltpFR2	15	11	LOFT	840	n/a	n/a	0	0	0
2406496	REC_WORD	wordpools/wasnorm_wordpool_576.txt	LTP305	ltpFR2	15	11	SPOOL	1356	n/a	n/a	0	0	0
2408569	REC_WORD	wordpools/wasnorm_wordpool_576.txt	LTP305	ltpFR2	15	11	THREAD	1460	n/a	n/a	0	0	0
2410109	REC_WORD	wordpools/wasnorm_wordpool_576.txt	LTP305	ltpFR2	15	11	FRAGRANCE	599	n/a	n/a	0	0	0
2411109	REC_WORD_VV	wordpools/wasnorm_wordpool_576.txt	LTP305	ltpFR2	15	11	<>	-1	n/a	n/a	0	0	0
2412346	REC_WORD	wordpools/wasnorm_wordpool_576.txt	LTP305	ltpFR2	15	11	PASTRY	1022	n/a	n/a	0	0	0
2492480	DISTRACTOR	n/a	LTP305	ltpFR2	15	12	n/a	n/a	n/a	n/a	0	0	0
2492481	START	n/a	LTP305	ltpFR2	15	n/a	n/a	n/a	16	n/a	n/a	n/a	n/a
2492494	PROB	n/a	LTP305	ltpFR2	15	n/a	n/a	n/a	16	14	1	5	8
2494828	PROB	n/a	LTP305	ltpFR2	15	n/a	n/a	n/a	16	17	8	8	1
2496897	PROB	n/a	LTP305	ltpFR2	15	n/a	n/a	n/a	16	17	6	8	3
2498649	PROB	n/a	LTP305	ltpFR2	15	n/a	n/a	n/a	16	19	9	3	7
2500449	PROB	n/a	LTP305	ltpFR2	15	n/a	n/a	n/a	16	11	1	5	5
2501685	PROB	n/a	LTP305	ltpFR2	15	n/a	n/a	n/a	16	9	2	5	2
2503168	PROB	n/a	LTP305	ltpFR2	15	n/a	n/a	n/a	16	12	8	2	2
2504688	PROB	n/a	LTP305	ltpFR2	15	n/a	n/a	n/a	16	16	9	2	5
2506320	PROB	n/a	LTP305	ltpFR2	15	n/a	n/a	n/a	16	13	3	5	5
2507826	PROB	n/a	LTP305	ltpFR2	15	n/a	n/a	n/a	16	10	6	1	3
2509323	PROB	n/a	LTP305	ltpFR2	15	n/a	n/a	n/a	16	12	4	3	5
2510762	PROB	n/a	LTP305	ltpFR2	15	n/a	n/a	n/a	16	15	5	2	8
2512160	PROB	n/a	LTP305	ltpFR2	15	n/a	n/a	n/a	16	7	2	1	4
2513695	PROB	n/a	LTP305	ltpFR2	15	n/a	n/a	n/a	16	18	1	8	9
2515405	STOP	n/a	LTP305	ltpFR2	15	n/a	n/a	n/a	16	n/a	n/a	n/a	n/a
2517503	WORD	wordpools/wasnorm_wordpool_576.txt	LTP305	ltpFR2	15	12	HAMPER	682	n/a	n/a	0	0	0
2520170	WORD	wordpools/wasnorm_wordpool_576.txt	LTP305	ltpFR2	15	12	CITRUS	313	n/a	n/a	0	0	0
2522805	WORD	wordpools/wasnorm_wordpool_576.txt	LTP305	ltpFR2	15	12	STUDENT	1395	n/a	n/a	0	0	0
2525608	WORD	wordpools/wasnorm_wordpool_576.txt	LTP305	ltpFR2	15	12	TEACHER	1440	n/a	n/a	0	0	0
2528392	WORD	wordpools/wasnorm_wordpool_576.txt	LTP305	ltpFR2	15	12	PUDDING	1139	n/a	n/a	0	0	0
2530995	WORD	wordpools/wasnorm_wordpool_576.txt	LTP305	ltpFR2	15	12	PIANO	1057	n/a	n/a	0	0	0
2533564	WORD	wordpools/wasnorm_wordpool_576.txt	LTP305	ltpFR2	15	12	ANKLE	24	n/a	n/a	0	0	0
2536199	WORD	wordpools/wasnorm_wordpool_576.txt	LTP305	ltpFR2	15	12	CRITIC	410	n/a	n/a	0	0	0
2538818	WORD	wordpools/wasnorm_wordpool_576.txt	LTP305	ltpFR2	15	12	CABBAGE	210	n/a	n/a	0	0	0
2541436	WORD	wordpools/wasnorm_wordpool_576.txt	LTP305	ltpFR2	15	12	MILDEW	893	n/a	n/a	0	0	0
2544039	WORD	wordpools/wasnorm_wordpool_576.txt	LTP305	ltpFR2	15	12	FOX	598	n/a	n/a	0	0	0
2546708	WORD	wordpools/wasnorm_wordpool_576.txt	LTP305	ltpFR2	15	12	CHURCH	307	n/a	n/a	0	0	0
2549393	WORD	wordpools/wasnorm_wordpool_576.txt	LTP305	ltpFR2	15	12	CHEST	295	n/a	n/a	0	0	0
2551962	WORD	wordpools/wasnorm_wordpool_576.txt	LTP305	ltpFR2	15	12	MARROW	872	n/a	n/a	0	0	0
2554447	WORD	wordpools/wasnorm_wordpool_576.txt	LTP305	ltpFR2	15	12	MAILMAN	858	n/a	n/a	0	0	0
2557250	WORD	wordpools/wasnorm_wordpool_576.txt	LTP305	ltpFR2	15	12	BALLOON	75	n/a	n/a	0	0	0
2559902	WORD	wordpools/wasnorm_wordpool_576.txt	LTP305	ltpFR2	15	12	LEG	809	n/a	n/a	0	0	0
2562336	WORD	wordpools/wasnorm_wordpool_576.txt	LTP305	ltpFR2	15	12	POSTAGE	1113	n/a	n/a	0	0	0
2564972	WORD	wordpools/wasnorm_wordpool_576.txt	LTP305	ltpFR2	15	12	LAPEL	800	n/a	n/a	0	0	0
2567456	WORD	wordpools/wasnorm_wordpool_576.txt	LTP305	ltpFR2	15	12	MAPLE	866	n/a	n/a	0	0	0
2570076	WORD	wordpools/wasnorm_wordpool_576.txt	LTP305	ltpFR2	15	12	WIFE	1609	n/a	n/a	0	0	0
2572862	WORD	wordpools/wasnorm_wordpool_576.txt	LTP305	ltpFR2	15	12	GLASS	639	n/a	n/a	0	0	0
2575395	WORD	wordpools/wasnorm_wordpool_576.txt	LTP305	ltpFR2	15	12	OZONE	996	n/a	n/a	0	0	0
2578099	WORD	wordpools/wasnorm_wordpool_576.txt	LTP305	ltpFR2	15	12	SPIDER	1351	n/a	n/a	0	0	0
2579718	START	n/a	LTP305	ltpFR2	15	n/a	n/a	n/a	17	n/a	n/a	n/a	n/a
2580803	DISTRACTOR	n/a	LTP305	ltpFR2	15	12	n/a	n/a	n/a	n/a	0	0	0
2580818	PROB	n/a	LTP305	ltpFR2	15	n/a	n/a	n/a	17	14	5	1	8
2583416	PROB	n/a	LTP305	ltpFR2	15	n/a	n/a	n/a	17	14	3	6	5
2584868	PROB	n/a	LTP305	ltpFR2	15	n/a	n/a	n/a	17	16	3	8	5
2587420	PROB	n/a	LTP305	ltpFR2	15	n/a	n/a	n/a	17	17	1	8	8
2589088	PROB	n/a	LTP305	ltpFR2	15	n/a	n/a	n/a	17	8	1	2	5
2590709	PROB	n/a	LTP305	ltpFR2	15	n/a	n/a	n/a	17	19	9	8	2
2592358	PROB	n/a	LTP305	ltpFR2	15	n/a	n/a	n/a	17	15	4	2	9
2594008	PROB	n/a	LTP305	ltpFR2	15	n/a	n/a	n/a	17	19	5	8	6
2595593	PROB	n/a	LTP305	ltpFR2	15	n/a	n/a	n/a	17	11	3	5	3
2597217	PROB	n/a	LTP305	ltpFR2	15	n/a	n/a	n/a	17	12	9	1	2
2599632	PROB	n/a	LTP305	ltpFR2	15	n/a	n/a	n/a	17	18	8	3	7
2601214	PROB	n/a	LTP305	ltpFR2	15	n/a	n/a	n/a	17	24	7	8	9
2602678	STOP	n/a	LTP305	ltpFR2	15	n/a	n/a	n/a	17	n/a	n/a	n/a	n/a
2605618	REC_START	n/a	LTP305	ltpFR2	15	12	n/a	n/a	n/a	n/a	0	0	0
2606199	REC_WORD	wordpools/wasnorm_wordpool_576.txt	LTP305	ltpFR2	15	12	SPIDER	1351	n/a	n/a	0	0	0
2696039	DISTRACTOR	n/a	LTP305	ltpFR2	15	13	n/a	n/a	n/a	n/a	0	0	0
2696040	START	n/a	LTP305	ltpFR2	15	n/a	n/a	n/a	18	n/a	n/a	n/a	n/a
2696054	PROB	n/a	LTP305	ltpFR2	15	n/a	n/a	n/a	18	17	3	6	8
2698834	PROB	n/a	LTP305	ltpFR2	15	n/a	n/a	n/a	18	11	1	1	9
2700167	PROB	n/a	LTP305	ltpFR2	15	n/a	n/a	n/a	18	17	6	2	9
2701985	PROB	n/a	LTP305	ltpFR2	15	n/a	n/a	n/a	18	11	1	8	2
2703202	PROB	n/a	LTP305	ltpFR2	15	n/a	n/a	n/a	18	16	2	6	8
2704803	PROB	n/a	LTP305	ltpFR2	15	n/a	n/a	n/a	18	18	7	9	2
2706505	PROB	n/a	LTP305	ltpFR2	15	n/a	n/a	n/a	18	5	2	2	1
2707623	PROB	n/a	LTP305	ltpFR2	15	n/a	n/a	n/a	18	9	2	2	5
2709057	PROB	n/a	LTP305	ltpFR2	15	n/a	n/a	n/a	18	17	9	2	6
2710943	PROB	n/a	LTP305	ltpFR2	15	n/a	n/a	n/a	18	21	4	8	9
2712577	PROB	n/a	LTP305	ltpFR2	15	n/a	n/a	n/a	18	18	7	2	9
2714679	PROB	n/a	LTP305	ltpFR2	15	n/a	n/a	n/a	18	19	7	6	6
2716780	PROB	n/a	LTP305	ltpFR2	15	n/a	n/a	n/a	18	10	1	8	1
2720030	STOP	n/a	LTP305	ltpFR2	15	n/a	n/a	n/a	18	n/a	n/a	n/a	n/a
2721237	WORD	wordpools/wasnorm_wordpool_576.txt	LTP305	ltpFR2	15	13	HEADBAND	696	n/a	n/a	0	0	0
2723994	WORD	wordpools/wasnorm_wordpool_576.txt	LTP305	ltpFR2	15	13	DANDRUFF	439	n/a	n/a	0	0	0
2726563	WORD	wordpools/wasnorm_wordpool_576.txt	LTP305	ltpFR2	15	13	CATTLE	261	n/a	n/a	0	0	0
2729027	WORD	wordpools/wasnorm_wordpool_576.txt	LTP305	ltpFR2	15	13	TOASTER	1472	n/a	n/a	0	0	0
2731800	WORD	wordpools/wasnorm_wordpool_576.txt	LTP305	ltpFR2	15	13	PEPPER	1047	n/a	n/a	0	0	0
2734518	WORD	wordpools/wasnorm_wordpool_576.txt	LTP305	ltpFR2	15	13	SPACE	1345	n/a	n/a	0	0	0
2737116	WORD	wordpools/wasnorm_wordpool_576.txt	LTP305	ltpFR2	15	13	RATTLE	1170	n/a	n/a	0	0	0
2739719	WORD	wordpools/wasnorm_wordpool_576.txt	LTP305	ltpFR2	15	13	COTTAGE	384	n/a	n/a	0	0	0
2742357	WORD	wordpools/wasnorm_wordpool_576.txt	LTP305	ltpFR2	15	13	GALLON	618	n/a	n/a	0	0	0
2745057	WORD	wordpools/wasnorm_wordpool_576.txt	LTP305	ltpFR2	15	13	CIGAR	308	n/a	n/a	0	0	0
2747792	WORD	wordpools/wasnorm_wordpool_576.txt	LTP305	ltpFR2	15	13	GUITAR	670	n/a	n/a	0	0	0
2750460	WORD	wordpools/wasnorm_wordpool_576.txt	LTP305	ltpFR2	15	13	SEAFOOD	1260	n/a	n/a	0	0	0
2752912	WORD	wordpools/wasnorm_wordpool_576.txt	LTP305	ltpFR2	15	13	BISON	131	n/a	n/a	0	0	0
2755564	WORD	wordpools/wasnorm_wordpool_576.txt	LTP305	ltpFR2	15	13	CREATURE	403	n/a	n/a	0	0	0
2758167	WORD	wordpools/wasnorm_wordpool_576.txt	LTP305	ltpFR2	15	13	FRECKLE	602	n/a	n/a	0	0	0
2760703	WORD	wordpools/wasnorm_wordpool_576.txt	LTP305	ltpFR2	15	13	SCOTCH	1251	n/a	n/a	0	0	0
2763456	WORD	wordpools/wasnorm_wordpool_576.txt	LTP305	ltpFR2	15	13	POET	1095	n/a	n/a	0	0	0
2766208	WORD	wordpools/wasnorm_wordpool_576.txt	LTP305	ltpFR2	15	13	GHETTO	633	n/a	n/a	0	0	0
2768743	WORD	wordpools/wasnorm_wordpool_576.txt	LTP305	ltpFR2	15	13	GRAVEL	659	n/a	n/a	0	0	0
2771427	WORD	wordpools/wasnorm_wordpool_576.txt	LTP305	ltpFR2	15	13	JOURNAL	760	n/a	n/a	0	0	0
2774030	WORD	wordpools/wasnorm_wordpool_576.txt	LTP305	ltpFR2	15	13	FOREHEAD	592	n/a	n/a	0	0	0
2776666	WORD	wordpools/wasnorm_wordpool_576.txt	LTP305	ltpFR2	15	13	HOOD	714	n/a	n/a	0	0	0
2779367	WORD	wordpools/wasnorm_wordpool_576.txt	LTP305	ltpFR2	15	13	GLOBE	641	n/a	n/a	0	0	0
2782137	WORD	wordpools/wasnorm_wordpool_576.txt	LTP305	ltpFR2	15	13	GIRL	637	n/a	n/a	0	0	0
2783756	START	n/a	LTP305	ltpFR2	15	n/a	n/a	n/a	19	n/a	n/a	n/a	n/a
2784796	DISTRACTOR	n/a	LTP305	ltpFR2	15	13	n/a	n/a	n/a	n/a	0	0	0
2784806	PROB	n/a	LTP305	ltpFR2	15	n/a	n/a	n/a	19	20	8	4	8
2787056	PROB	n/a	LTP305	ltpFR2	15	n/a	n/a	n/a	19	17	4	8	5
2789457	PROB	n/a	LTP305	ltpFR2	15	n/a	n/a	n/a	19	10	1	1	8
2790791	PROB	n/a	LTP305	ltpFR2	15	n/a	n/a	n/a	19	9	2	4	3
2794131	PROB	n/a	LTP305	ltpFR2	15	n/a	n/a	n/a	19	12	5	4	3
2795862	PROB	n/a	LTP305	ltpFR2	15	n/a	n/a	n/a	19	17	1	7	9
2797467	PROB	n/a	LTP305	ltpFR2	15	n/a	n/a	n/a	19	13	5	7	1
2798698	PROB	n/a	LTP305	ltpFR2	15	n/a	n/a	n/a	19	10	8	1	1
2799882	PROB	n/a	LTP305	ltpFR2	15	n/a	n/a	n/a	19	16	7	3	6
2801266	PROB	n/a	LTP305	ltpFR2	15	n/a	n/a	n/a	19	14	2	9	3
2803284	PROB	n/a	LTP305	ltpFR2	15	n/a	n/a	n/a	19	17	8	1	8
2804703	PROB	n/a	LTP305	ltpFR2	15	n/a	n/a	n/a	19	18	1	9	8
2806238	PROB	n/a	LTP305	ltpFR2	15	n/a	n/a	n/a	19	12	1	9	2
2807429	STOP	n/a	LTP305	ltpFR2	15	n/a	n/a	n/a	19	n/a	n/a	n/a	n/a
2809527	REC_START	n/a	LTP305	ltpFR2	15	13	n/a	n/a	n/a	n/a	0	0	0
2810621	REC_WORD	wordpools/wasnorm_wordpool_576.txt	LTP305	ltpFR2	15	13	GHETTO	633	n/a	n/a	0	0	0
2812095	REC_WORD	wordpools/wasnorm_wordpool_576.txt	LTP305	ltpFR2	15	13	JOURNAL	760	n/a	n/a	0	0	0
2899974	WORD	wordpools/wasnorm_wordpool_576.txt	LTP305	ltpFR2	15	14	STREAM	1392	n/a	n/a	0	0	0
2902497	WORD	wordpools/wasnorm_wordpool_576.txt	LTP305	ltpFR2	15	14	PAIL	1002	n/a	n/a	0	0	0
2905199	WORD	wordpools/wasnorm_wordpool_576.txt	LTP305	ltpFR2	15	14	DUST	508	n/a	n/a	0	0	0
2907850	WORD	wordpools/wasnorm_wordpool_576.txt	LTP305	ltpFR2	15	14	CLAM	315	n/a	n/a	0	0	0
2910359	WORD	wordpools/wasnorm_wordpool_576.txt	LTP305	ltpFR2	15	14	CUSTARD	429	n/a	n/a	0	0	0
2913096	WORD	wordpools/wasnorm_wordpool_576.txt	LTP305	ltpFR2	15	14	GARDEN	623	n/a	n/a	0	0	0
2915740	WORD	wordpools/wasnorm_wordpool_576.txt	LTP305	ltpFR2	15	14	SLOPE	1328	n/a	n/a	0	0	0
2918217	WORD	wordpools/wasnorm_wordpool_576.txt	LTP305	ltpFR2	15	14	EAGLE	512	n/a	n/a	0	0	0
2920986	WORD	wordpools/wasnorm_wordpool_576.txt	LTP305	ltpFR2	15	14	PASSAGE	1019	n/a	n/a	0	0	0
2923788	WORD	wordpools/wasnorm_wordpool_576.txt	LTP305	ltpFR2	15	14	CLIMBER	323	n/a	n/a	0	0	0
2926474	WORD	wordpools/wasnorm_wordpool_576.txt	LTP305	ltpFR2	15	14	DOUGHNUT	490	n/a	n/a	0	0	0
2929209	WORD	wordpools/wasnorm_wordpool_576.txt	LTP305	ltpFR2	15	14	OINTMENT	974	n/a	n/a	0	0	0
2931661	WORD	wordpools/wasnorm_wordpool_576.txt	LTP305	ltpFR2	15	14	ARMY	39	n/a	n/a	0	0	0
2934171	WORD	wordpools/wasnorm_wordpool_576.txt	LTP305	ltpFR2	15	14	CRAB	397	n/a	n/a	0	0	0
2936799	WORD	wordpools/wasnorm_wordpool_576.txt	LTP305	ltpFR2	15	14	CURTAIN	427	n/a	n/a	0	0	0
2939251	WORD	wordpools/wasnorm_wordpool_576.txt	LTP305	ltpFR2	15	14	BUGGY	188	n/a	n/a	0	0	0
2941677	WORD	wordpools/wasnorm_wordpool_576.txt	LTP305	ltpFR2	15	14	PATROL	1027	n/a	n/a	0	0	0
2944288	WORD	wordpools/wasnorm_wordpool_576.txt	LTP305	ltpFR2	15	14	SALMON	1227	n/a	n/a	0	0	0
2946713	WORD	wordpools/wasnorm_wordpool_576.txt	LTP305	ltpFR2	15	14	PERCH	1048	n/a	n/a	0	0	0
2949193	WORD	wordpools/wasnorm_wordpool_576.txt	LTP305	ltpFR2	15	14	JURY	766	n/a	n/a	0	0	0
2951727	WORD	wordpools/wasnorm_wordpool_576.txt	LTP305	ltpFR2	15	14	GRAVE	658	n/a	n/a	0	0	0
2954279	WORD	wordpools/wasnorm_wordpool_576.txt	LTP305	ltpFR2	15	14	WIDOW	1608	n/a	n/a	0	0	0
2957000	WORD	wordpools/wasnorm_wordpool_576.txt	LTP305	ltpFR2	15	14	DAISY	435	n/a	n/a	0	0	0
2959434	WORD	wordpools/wasnorm_wordpool_576.txt	LTP305	ltpFR2	15	14	BREAST	171	n/a	n/a	0	0	0
2961041	START	n/a	LTP305	ltpFR2	15	n/a	n/a	n/a	20	n/a	n/a	n/a	n/a
2962226	DISTRACTOR	n/a	LTP305	ltpFR2	15	14	n/a	n/a	n/a	n/a	0	0	0
2962237	PROB	n/a	LTP305	ltpFR2	15	n/a	n/a	n/a	20	17	7	3	7
2964367	PROB	n/a	LTP305	ltpFR2	15	n/a	n/a	n/a	20	11	5	5	1
2965687	PROB	n/a	LTP305	ltpFR2	15	n/a	n/a	n/a	20	14	2	8	4
2967589	PROB	n/a	LTP305	ltpFR2	15	n/a	n/a	n/a	20	14	5	8	1
2969256	PROB	n/a	LTP305	ltpFR2	15	n/a	n/a	n/a	20	18	2	8	8
2971177	PROB	n/a	LTP305	ltpFR2	15	n/a	n/a	n/a	20	17	6	3	8
2973443	PROB	n/a	LTP305	ltpFR2	15	n/a	n/a	n/a	20	15	7	3	5
2975945	PROB	n/a	LTP305	ltpFR2	15	n/a	n/a	n/a	20	11	4	5	2
2977531	PROB	n/a	LTP305	ltpFR2	15	n/a	n/a	n/a	20	23	6	9	8
2979263	PROB	n/a	LTP305	ltpFR2	15	n/a	n/a	n/a	20	11	5	2	4
2981016	PROB	n/a	LTP305	ltpFR2	15	n/a	n/a	n/a	20	5	1	1	3
2982033	PROB	n/a	LTP305	ltpFR2	15	n/a	n/a	n/a	20	15	4	5	8
2983910	STOP	n/a	LTP305	ltpFR2	15	n/a	n/a	n/a	20	n/a	n/a	n/a	n/a
2986971	REC_START	n/a	LTP305	ltpFR2	15	14	n/a	n/a	n/a	n/a	0	0	0
2988770	REC_WORD	wordpools/wasnorm_wordpool_576.txt	LTP305	ltpFR2	15	14	DAISY	435	n/a	n/a	0	0	0
3077429	DISTRACTOR	n/a	LTP305	ltpFR2	15	15	n/a	n/a	n/a	n/a	0	0	0
3077429	START	n/a	LTP305	ltpFR2	15	n/a	n/a	n/a	21	n/a	n/a	n/a	n/a
3077447	PROB	n/a	LTP305	ltpFR2	15	n/a	n/a	n/a	21	22	6	8	8
3079277	PROB	n/a	LTP305	ltpFR2	15	n/a	n/a	n/a	21	25	9	9	7
3081551	PROB	n/a	LTP305	ltpFR2	15	n/a	n/a	n/a	21	20	9	4	7
3083171	PROB	n/a	LTP305	ltpFR2	15	n/a	n/a	n/a	21	20	8	8	4
3084532	PROB	n/a	LTP305	ltpFR2	15	n/a	n/a	n/a	21	15	4	5	6
3086051	PROB	n/a	LTP305	ltpFR2	15	n/a	n/a	n/a	21	15	5	9	1
3087619	PROB	n/a	LTP305	ltpFR2	15	n/a	n/a	n/a	21	21	7	9	5
3089553	PROB	n/a	LTP305	ltpFR2	15	n/a	n/a	n/a	21	20	6	5	9
3091738	PROB	n/a	LTP305	ltpFR2	15	n/a	n/a	n/a	21	16	5	8	3
3093189	PROB	n/a	LTP305	ltpFR2	15	n/a	n/a	n/a	21	16	2	5	9
3095207	PROB	n/a	LTP305	ltpFR2	15	n/a	n/a	n/a	21	4	2	1	1
3096390	PROB	n/a	LTP305	ltpFR2	15	n/a	n/a	n/a	21	18	5	4	9
3098212	PROB	n/a	LTP305	ltpFR2	15	n/a	n/a	n/a	21	7	3	3	1
3100453	STOP	n/a	LTP305	ltpFR2	15	n/a	n/a	n/a	21	n/a	n/a	n/a	n/a
3102264	WORD	wordpools/wasnorm_wordpool_576.txt	LTP305	ltpFR2	15	15	ARM	38	n/a	n/a	0	0	0
3104783	WORD	wordpools/wasnorm_wordpool_576.txt	LTP305	ltpFR2	15	15	SHOULDER	1294	n/a	n/a	0	0	0
3107591	WORD	wordpools/wasnorm_wordpool_576.txt	LTP305	ltpFR2	15	15	YACHT	1629	n/a	n/a	0	0	0
3110071	WORD	wordpools/wasnorm_wordpool_576.txt	LTP305	ltpFR2	15	15	DASHBOARD	441	n/a	n/a	0	0	0
3112746	WORD	wordpools/wasnorm_wordpool_576.txt	LTP305	ltpFR2	15	15	FEMALE	559	n/a	n/a	0	0	0
3115324	WORD	wordpools/wasnorm_wordpool_576.txt	LTP305	ltpFR2	15	15	ATOM	55	n/a	n/a	0	0	0
3117844	WORD	wordpools/wasnorm_wordpool_576.txt	LTP305	ltpFR2	15	15	ACTRESS	6	n/a	n/a	0	0	0
3120602	WORD	wordpools/wasnorm_wordpool_576.txt	LTP305	ltpFR2	15	15	SODA	1341	n/a	n/a	0	0	0
3123347	WORD	wordpools/wasnorm_wordpool_576.txt	LTP305	ltpFR2	15	15	LEOPARD	812	n/a	n/a	0	0	0
3126107	WORD	wordpools/wasnorm_wordpool_576.txt	LTP305	ltpFR2	15	15	BLACKBOARD	133	n/a	n/a	0	0	0
3128752	WORD	wordpools/wasnorm_wordpool_576.txt	LTP305	ltpFR2	15	15	BINDER	127	n/a	n/a	0	0	0
3131505	WORD	wordpools/wasnorm_wordpool_576.txt	LTP305	ltpFR2	15	15	TYPIST	1532	n/a	n/a	0	0	0
3134256	WORD	wordpools/wasnorm_wordpool_576.txt	LTP305	ltpFR2	15	15	PAPER	1011	n/a	n/a	0	0	0
3136975	WORD	wordpools/wasnorm_wordpool_576.txt	LTP305	ltpFR2	15	15	SKILLET	1317	n/a	n/a	0	0	0
3139594	WORD	wordpools/wasnorm_wordpool_576.txt	LTP305	ltpFR2	15	15	LABEL	790	n/a	n/a	0	0	0
3142262	WORD	wordpools/wasnorm_wordpool_576.txt	LTP305	ltpFR2	15	15	CLOTHES	327	n/a	n/a	0	0	0
3145039	WORD	wordpools/wasnorm_wordpool_576.txt	LTP305	ltpFR2	15	15	BUREAU	199	n/a	n/a	0	0	0
3147791	WORD	wordpools/wasnorm_wordpool_576.txt	LTP305	ltpFR2	15	15	STAPLE	1371	n/a	n/a	0	0	0
3150477	WORD	wordpools/wasnorm_wordpool_576.txt	LTP305	ltpFR2	15	15	FLASK	576	n/a	n/a	0	0	0
3153021	WORD	wordpools/wasnorm_wordpool_576.txt	LTP305	ltpFR2	15	15	STAMP	1370	n/a	n/a	0	0	0
3155681	WORD	wordpools/wasnorm_wordpool_576.txt	LTP305	ltpFR2	15	15	SHELF	1280	n/a	n/a	0	0	0
3158357	WORD	wordpools/wasnorm_wordpool_576.txt	LTP305	ltpFR2	15	15	BRAKE	166	n/a	n/a	0	0	0
3161110	WORD	wordpools/wasnorm_wordpool_576.txt	LTP305	ltpFR2	15	15	LUMBER	848	n/a	n/a	0	0	0
3163862	WORD	wordpools/wasnorm_wordpool_576.txt	LTP305	ltpFR2	15	15	FRAME	600	n/a	n/a	0	0	0
3165474	START	n/a	LTP305	ltpFR2	15	n/a	n/a	n/a	22	n/a	n/a	n/a	n/a
3166466	DISTRACTOR	n/a	LTP305	ltpFR2	15	15	n/a	n/a	n/a	n/a	0	0	0
3166474	PROB	n/a	LTP305	ltpFR2	15	n/a	n/a	n/a	22	18	3	9	6
3169223	PROB	n/a	LTP305	ltpFR2	15	n/a	n/a	n/a	22	12	5	1	6
3170660	PROB	n/a	LTP305	ltpFR2	15	n/a	n/a	n/a	22	16	7	7	2
3172275	PROB	n/a	LTP305	ltpFR2	15	n/a	n/a	n/a	22	22	9	7	6
3173943	PROB	n/a	LTP305	ltpFR2	15	n/a	n/a	n/a	22	22	8	5	9
3176662	PROB	n/a	LTP305	ltpFR2	15	n/a	n/a	n/a	22	16	6	1	9
3177963	PROB	n/a	LTP305	ltpFR2	15	n/a	n/a	n/a	22	14	4	4	6
3180016	PROB	n/a	LTP305	ltpFR2	15	n/a	n/a	n/a	22	19	4	8	7
3181467	PROB	n/a	LTP305	ltpFR2	15	n/a	n/a	n/a	22	8	1	2	5
3183186	PROB	n/a	LTP305	ltpFR2	15	n/a	n/a	n/a	22	19	4	8	7
3184536	PROB	n/a	LTP305	ltpFR2	15	n/a	n/a	n/a	22	15	3	6	6
3186336	PROB	n/a	LTP305	ltpFR2	15	n/a	n/a	n/a	22	10	4	2	4
3189102	STOP	n/a	LTP305	ltpFR2	15	n/a	n/a	n/a	22	n/a	n/a	n/a	n/a
3191290	REC_START	n/a	LTP305	ltpFR2	15	15	n/a	n/a	n/a	n/a	0	0	0
3191986	REC_WORD	wordpools/wasnorm_wordpool_576.txt	LTP305	ltpFR2	15	15	LUMBER	848	n/a	n/a	0	0	0
3193263	REC_WORD	wordpools/wasnorm_wordpool_576.txt	LTP305	ltpFR2	15	15	BUREAU	199	n/a	n/a	0	0	0
3194637	REC_WORD	wordpools/wasnorm_wordpool_576.txt	LTP305	ltpFR2	15	15	CLOTHING	-1	n/a	n/a	0	0	0
3281737	DISTRACTOR	n/a	LTP305	ltpFR2	15	16	n/a	n/a	n/a	n/a	0	0	0
3281737	START	n/a	LTP305	ltpFR2	15	n/a	n/a	n/a	23	n/a	n/a	n/a	n/a
3281750	PROB	n/a	LTP305	ltpFR2	15	n/a	n/a	n/a	23	19	8	8	3
3284104	PROB	n/a	LTP305	ltpFR2	15	n/a	n/a	n/a	23	11	4	5	2
3285586	PROB	n/a	LTP305	ltpFR2	15	n/a	n/a	n/a	23	14	5	3	6
3287671	PROB	n/a	LTP305	ltpFR2	15	n/a	n/a	n/a	23	11	4	6	1
3289040	PROB	n/a	LTP305	ltpFR2	15	n/a	n/a	n/a	23	17	7	8	2
3290644	PROB	n/a	LTP305	ltpFR2	15	n/a	n/a	n/a	23	13	5	5	3
3292111	PROB	n/a	LTP305	ltpFR2	15	n/a	n/a	n/a	23	16	3	8	5
3293844	PROB	n/a	LTP305	ltpFR2	15	n/a	n/a	n/a	23	10	2	2	6
3295514	PROB	n/a	LTP305	ltpFR2	15	n/a	n/a	n/a	23	12	4	5	3
3297247	PROB	n/a	LTP305	ltpFR2	15	n/a	n/a	n/a	23	10	1	1	8
3298683	PROB	n/a	LTP305	ltpFR2	15	n/a	n/a	n/a	23	20	5	9	6
3300618	PROB	n/a	LTP305	ltpFR2	15	n/a	n/a	n/a	23	8	6	1	1
3302349	PROB	n/a	LTP305	ltpFR2	15	n/a	n/a	n/a	23	15	8	1	6
3305737	STOP	n/a	LTP305	ltpFR2	15	n/a	n/a	n/a	23	n/a	n/a	n/a	n/a
3306673	WORD	wordpools/wasnorm_wordpool_576.txt	LTP305	ltpFR2	15	16	PENGUIN	1044	n/a	n/a	0	0	0
3309272	WORD	wordpools/wasnorm_wordpool_576.txt	LTP305	ltpFR2	15	16	CASHIER	254	n/a	n/a	0	0	0
3311742	WORD	wordpools/wasnorm_wordpool_576.txt	LTP305	ltpFR2	15	16	CANDY	230	n/a	n/a	0	0	0
3314379	WORD	wordpools/wasnorm_wordpool_576.txt	LTP305	ltpFR2	15	16	NURSE	963	n/a	n/a	0	0	0
3317046	WORD	wordpools/wasnorm_wordpool_576.txt	LTP305	ltpFR2	15	16	TURNIP	1521	n/a	n/a	0	0	0
3319798	WORD	wordpools/wasnorm_wordpool_576.txt	LTP305	ltpFR2	15	16	AIRPLANE	12	n/a	n/a	0	0	0
3322316	WORD	wordpools/wasnorm_wordpool_576.txt	LTP305	ltpFR2	15	16	PATIENT	1024	n/a	n/a	0	0	0
3324919	WORD	wordpools/wasnorm_wordpool_576.txt	LTP305	ltpFR2	15	16	INFANT	737	n/a	n/a	0	0	0
3327474	WORD	wordpools/wasnorm_wordpool_576.txt	LTP305	ltpFR2	15	16	BIKE	125	n/a	n/a	0	0	0
3330026	WORD	wordpools/wasnorm_wordpool_576.txt	LTP305	ltpFR2	15	16	SIDEWALK	1303	n/a	n/a	0	0	0
3332624	WORD	wordpools/wasnorm_wordpool_576.txt	LTP305	ltpFR2	15	16	FLIPPER	580	n/a	n/a	0	0	0
3335375	WORD	wordpools/wasnorm_wordpool_576.txt	LTP305	ltpFR2	15	16	PECAN	1036	n/a	n/a	0	0	0
3338112	WORD	wordpools/wasnorm_wordpool_576.txt	LTP305	ltpFR2	15	16	LIVER	833	n/a	n/a	0	0	0
3340619	WORD	wordpools/wasnorm_wordpool_576.txt	LTP305	ltpFR2	15	16	BEEF	113	n/a	n/a	0	0	0
3343352	WORD	wordpools/wasnorm_wordpool_576.txt	LTP305	ltpFR2	15	16	POWDER	1117	n/a	n/a	0	0	0
3346002	WORD	wordpools/wasnorm_wordpool_576.txt	LTP305	ltpFR2	15	16	HELMET	702	n/a	n/a	0	0	0
3348658	WORD	wordpools/wasnorm_wordpool_576.txt	LTP305	ltpFR2	15	16	FRUIT	610	n/a	n/a	0	0	0
3351355	WORD	wordpools/wasnorm_wordpool_576.txt	LTP305	ltpFR2	15	16	MESSAGE	888	n/a	n/a	0	0	0
3353874	WORD	wordpools/wasnorm_wordpool_576.txt	LTP305	ltpFR2	15	16	CELLAR	267	n/a	n/a	0	0	0
3356358	WORD	wordpools/wasnorm_wordpool_576.txt	LTP305	ltpFR2	15	16	CAMEL	223	n/a	n/a	0	0	0
3359111	WORD	wordpools/wasnorm_wordpool_576.txt	LTP305	ltpFR2	15	16	TUTU	1524	n/a	n/a	0	0	0
3361630	WORD	wordpools/wasnorm_wordpool_576.txt	LTP305	ltpFR2	15	16	PIGMENT	1066	n/a	n/a	0	0	0
3364304	WORD	wordpools/wasnorm_wordpool_576.txt	LTP305	ltpFR2	15	16	CROSS	413	n/a	n/a	0	0	0
3366817	WORD	wordpools/wasnorm_wordpool_576.txt	LTP305	ltpFR2	15	16	CHAPEL	280	n/a	n/a	0	0	0
3368424	START	n/a	LTP305	ltpFR2	15	n/a	n/a	n/a	24	n/a	n/a	n/a	n/a
3369297	DISTRACTOR	n/a	LTP305	ltpFR2	15	16	n/a	n/a	n/a	n/a	0	0	0
3369308	PROB	n/a	LTP305	ltpFR2	15	n/a	n/a	n/a	24	17	9	2	6
3372475	PROB	n/a	LTP305	ltpFR2	15	n/a	n/a	n/a	24	22	9	9	4
3373926	PROB	n/a	LTP305	ltpFR2	15	n/a	n/a	n/a	24	4	2	1	1
3375194	PROB	n/a	LTP305	ltpFR2	15	n/a	n/a	n/a	24	17	9	4	4
3377030	PROB	n/a	LTP305	ltpFR2	15	n/a	n/a	n/a	24	18	5	8	5
3378948	PROB	n/a	LTP305	ltpFR2	15	n/a	n/a	n/a	24	24	8	7	9
3382900	PROB	n/a	LTP305	ltpFR2	15	n/a	n/a	n/a	24	13	2	6	5
3384802	PROB	n/a	LTP305	ltpFR2	15	n/a	n/a	n/a	24	19	4	6	9
3386418	PROB	n/a	LTP305	ltpFR2	15	n/a	n/a	n/a	24	18	7	7	4
3388222	PROB	n/a	LTP305	ltpFR2	15	n/a	n/a	n/a	24	21	9	8	4
3389906	PROB	n/a	LTP305	ltpFR2	15	n/a	n/a	n/a	24	16	8	2	6
3391206	STOP	n/a	LTP305	ltpFR2	15	n/a	n/a	n/a	24	n/a	n/a	n/a	n/a
3394194	REC_START	n/a	LTP305	ltpFR2	15	16	n/a	n/a	n/a	n/a	0	0	0
3395282	REC_WORD	wordpools/wasnorm_wordpool_576.txt	LTP305	ltpFR2	15	16	PIGMENT	1066	n/a	n/a	0	0	0
3396512	REC_WORD	wordpools/wasnorm_wordpool_576.txt	LTP305	ltpFR2	15	16	SIDEWALK	1303	n/a	n/a	0	0	0
3470727	REST_REWET	n/a	LTP305	ltpFR2	15	16	n/a	n/a	n/a	n/a	0	0	0
3802069	WORD	wordpools/wasnorm_wordpool_576.txt	LTP305	ltpFR2	15	17	CAPTIVE	240	n/a	n/a	0	0	0
3804600	WORD	wordpools/wasnorm_wordpool_576.txt	LTP305	ltpFR2	15	17	WARDROBE	1587	n/a	n/a	0	0	0
3807053	WORD	wordpools/wasnorm_wordpool_576.txt	LTP305	ltpFR2	15	17	SPHINX	1349	n/a	n/a	0	0	0
3809838	WORD	wordpools/wasnorm_wordpool_576.txt	LTP305	ltpFR2	15	17	SEAL	1262	n/a	n/a	0	0	0
3812524	WORD	wordpools/wasnorm_wordpool_576.txt	LTP305	ltpFR2	15	17	CARRIAGE	248	n/a	n/a	0	0	0
3815143	WORD	wordpools/wasnorm_wordpool_576.txt	LTP305	ltpFR2	15	17	COSTUME	383	n/a	n/a	0	0	0
3817928	WORD	wordpools/wasnorm_wordpool_576.txt	LTP305	ltpFR2	15	17	REBEL	1172	n/a	n/a	0	0	0
3820596	WORD	wordpools/wasnorm_wordpool_576.txt	LTP305	ltpFR2	15	17	BADGE	68	n/a	n/a	0	0	0
3823348	WORD	wordpools/wasnorm_wordpool_576.txt	LTP305	ltpFR2	15	17	GUARD	667	n/a	n/a	0	0	0
3825939	WORD	wordpools/wasnorm_wordpool_576.txt	LTP305	ltpFR2	15	17	BOARD	143	n/a	n/a	0	0	0
3828657	WORD	wordpools/wasnorm_wordpool_576.txt	LTP305	ltpFR2	15	17	SHORTS	1293	n/a	n/a	0	0	0
3831188	WORD	wordpools/wasnorm_wordpool_576.txt	LTP305	ltpFR2	15	17	SCARF	1246	n/a	n/a	0	0	0
3833907	WORD	wordpools/wasnorm_wordpool_576.txt	LTP305	ltpFR2	15	17	BOYFRIEND	162	n/a	n/a	0	0	0
3836575	WORD	wordpools/wasnorm_wordpool_576.txt	LTP305	ltpFR2	15	17	SHIRT	1287	n/a	n/a	0	0	0
3839061	WORD	wordpools/wasnorm_wordpool_576.txt	LTP305	ltpFR2	15	17	TWEEZERS	1526	n/a	n/a	0	0	0
3841785	WORD	wordpools/wasnorm_wordpool_576.txt	LTP305	ltpFR2	15	17	CATCHER	258	n/a	n/a	0	0	0
3844363	WORD	wordpools/wasnorm_wordpool_576.txt	LTP305	ltpFR2	15	17	COCKTAIL	338	n/a	n/a	0	0	0
3846950	WORD	wordpools/wasnorm_wordpool_576.txt	LTP305	ltpFR2	15	17	CROWN	415	n/a	n/a	0	0	0
3849535	WORD	wordpools/wasnorm_wordpool_576.txt	LTP305	ltpFR2	15	17	QUEEN	1149	n/a	n/a	0	0	0
3852293	WORD	wordpools/wasnorm_wordpool_576.txt	LTP305	ltpFR2	15	17	CONVICT	371	n/a	n/a	0	0	0
3854940	WORD	wordpools/wasnorm_wordpool_576.txt	LTP305	ltpFR2	15	17	EXPERT	543	n/a	n/a	0	0	0
3857390	WORD	wordpools/wasnorm_wordpool_576.txt	LTP305	ltpFR2	15	17	BODY	145	n/a	n/a	0	0	0
3859950	WORD	wordpools/wasnorm_wordpool_576.txt	LTP305	ltpFR2	15	17	APRON	35	n/a	n/a	0	0	0
3862478	WORD	wordpools/wasnorm_wordpool_576.txt	LTP305	ltpFR2	15	17	PRIMATE	1123	n/a	n/a	0	0	0
3864088	START	n/a	LTP305	ltpFR2	15	n/a	n/a	n/a	25	n/a	n/a	n/a	n/a
3865283	DISTRACTOR	n/a	LTP305	ltpFR2	15	17	n/a	n/a	n/a	n/a	0	0	0
3865296	PROB	n/a	LTP305	ltpFR2	15	n/a	n/a	n/a	25	16	8	1	7
3867286	PROB	n/a	LTP305	ltpFR2	15	n/a	n/a	n/a	25	19	8	8	3
3868921	PROB	n/a	LTP305	ltpFR2	15	n/a	n/a	n/a	25	17	8	1	8
3870623	PROB	n/a	LTP305	ltpFR2	15	n/a	n/a	n/a	25	16	5	9	2
3872024	PROB	n/a	LTP305	ltpFR2	15	n/a	n/a	n/a	25	16	5	3	8
3873359	PROB	n/a	LTP305	ltpFR2	15	n/a	n/a	n/a	25	18	9	6	3
3875309	PROB	n/a	LTP305	ltpFR2	15	n/a	n/a	n/a	25	16	3	6	7
3876812	PROB	n/a	LTP305	ltpFR2	15	n/a	n/a	n/a	25	16	7	8	1
3878214	PROB	n/a	LTP305	ltpFR2	15	n/a	n/a	n/a	25	16	1	6	9
3879446	PROB	n/a	LTP305	ltpFR2	15	n/a	n/a	n/a	25	17	3	7	7
3881166	PROB	n/a	LTP305	ltpFR2	15	n/a	n/a	n/a	25	9	1	4	4
3882685	PROB	n/a	LTP305	ltpFR2	15	n/a	n/a	n/a	25	7	1	1	5
3884168	PROB	n/a	LTP305	ltpFR2	15	n/a	n/a	n/a	25	6	1	4	1
3885354	PROB	n/a	LTP305	ltpFR2	15	n/a	n/a	n/a	25	20	8	6	6
3886678	STOP	n/a	LTP305	ltpFR2	15	n/a	n/a	n/a	25	n/a	n/a	n/a	n/a
3889922	REC_START	n/a	LTP305	ltpFR2	15	17	n/a	n/a	n/a	n/a	0	0	0
3891002	REC_WORD	wordpools/wasnorm_wordpool_576.txt	LTP305	ltpFR2	15	17	BODY	145	n/a	n/a	0	0	0
3892323	REC_WORD	wordpools/wasnorm_wordpool_576.txt	LTP305	ltpFR2	15	17	APRON	35	n/a	n/a	0	0	0
3894082	REC_WORD	wordpools/wasnorm_wordpool_576.txt	LTP305	ltpFR2	15	17	PRIMATE	1123	n/a	n/a	0	0	0
3980379	WORD	wordpools/wasnorm_wordpool_576.txt	LTP305	ltpFR2	15	18	SCISSORS	1250	n/a	n/a	0	0	0
3983103	WORD	wordpools/wasnorm_wordpool_576.txt	LTP305	ltpFR2	15	18	BUCKET	184	n/a	n/a	0	0	0
3985922	WORD	wordpools/wasnorm_wordpool_576.txt	LTP305	ltpFR2	15	18	CUPBOARD	425	n/a	n/a	0	0	0
3988591	WORD	wordpools/wasnorm_wordpool_576.txt	LTP305	ltpFR2	15	18	JELLY	755	n/a	n/a	0	0	0
3991226	WORD	wordpools/wasnorm_wordpool_576.txt	LTP305	ltpFR2	15	18	GAVEL	627	n/a	n/a	0	0	0
3994045	WORD	wordpools/wasnorm_wordpool_576.txt	LTP305	ltpFR2	15	18	BULLET	194	n/a	n/a	0	0	0
3996663	WORD	wordpools/wasnorm_wordpool_576.txt	LTP305	ltpFR2	15	18	SWORD	1423	n/a	n/a	0	0	0
3999216	WORD	wordpools/wasnorm_wordpool_576.txt	LTP305	ltpFR2	15	18	AGENT	10	n/a	n/a	0	0	0
4001985	WORD	wordpools/wasnorm_wordpool_576.txt	LTP305	ltpFR2	15	18	MOTOR	922	n/a	n/a	0	0	0
4004703	WORD	wordpools/wasnorm_wordpool_576.txt	LTP305	ltpFR2	15	18	BASEMENT	94	n/a	n/a	0	0	0
4007156	WORD	wordpools/wasnorm_wordpool_576.txt	LTP305	ltpFR2	15	18	OUTLAW	989	n/a	n/a	0	0	0
4009791	WORD	wordpools/wasnorm_wordpool_576.txt	LTP305	ltpFR2	15	18	BRACES	164	n/a	n/a	0	0	0
4012259	WORD	wordpools/wasnorm_wordpool_576.txt	LTP305	ltpFR2	15	18	AWARD	63	n/a	n/a	0	0	0
4015095	WORD	wordpools/wasnorm_wordpool_576.txt	LTP305	ltpFR2	15	18	SUSPECT	1415	n/a	n/a	0	0	0
4017814	WORD	wordpools/wasnorm_wordpool_576.txt	LTP305	ltpFR2	15	18	CABIN	211	n/a	n/a	0	0	0
4020364	WORD	wordpools/wasnorm_wordpool_576.txt	LTP305	ltpFR2	15	18	SNAKE	1333	n/a	n/a	0	0	0
4023152	WORD	wordpools/wasnorm_wordpool_576.txt	LTP305	ltpFR2	15	18	COBRA	336	n/a	n/a	0	0	0
4025770	WORD	wordpools/wasnorm_wordpool_576.txt	LTP305	ltpFR2	15	18	VICTIM	1562	n/a	n/a	0	0	0
4028270	WORD	wordpools/wasnorm_wordpool_576.txt	LTP305	ltpFR2	15	18	PUPIL	1143	n/a	n/a	0	0	0
4030925	WORD	wordpools/wasnorm_wordpool_576.txt	LTP305	ltpFR2	15	18	CHILD	299	n/a	n/a	0	0	0
4033709	WORD	wordpools/wasnorm_wordpool_576.txt	LTP305	ltpFR2	15	18	SUPPER	1411	n/a	n/a	0	0	0
4036410	WORD	wordpools/wasnorm_wordpool_576.txt	LTP305	ltpFR2	15	18	GRILL	661	n/a	n/a	0	0	0
4039163	WORD	wordpools/wasnorm_wordpool_576.txt	LTP305	ltpFR2	15	18	INMATE	738	n/a	n/a	0	0	0
4041949	WORD	wordpools/wasnorm_wordpool_576.txt	LTP305	ltpFR2	15	18	DRINK	498	n/a	n/a	0	0	0
4043567	START	n/a	LTP305	ltpFR2	15	n/a	n/a	n/a	26	n/a	n/a	n/a	n/a
4044734	DISTRACTOR	n/a	LTP305	ltpFR2	15	18	n/a	n/a	n/a	n/a	0	0	0
4044751	PROB	n/a	LTP305	ltpFR2	15	n/a	n/a	n/a	26	23	7	9	7
4047423	PROB	n/a	LTP305	ltpFR2	15	n/a	n/a	n/a	26	15	7	2	6
4049485	PROB	n/a	LTP305	ltpFR2	15	n/a	n/a	n/a	26	10	4	2	4
4051522	PROB	n/a	LTP305	ltpFR2	15	n/a	n/a	n/a	26	13	9	3	1
4053137	PROB	n/a	LTP305	ltpFR2	15	n/a	n/a	n/a	26	11	3	7	1
4054472	PROB	n/a	LTP305	ltpFR2	15	n/a	n/a	n/a	26	14	6	6	2
4055973	PROB	n/a	LTP305	ltpFR2	15	n/a	n/a	n/a	26	23	5	9	9
4058407	PROB	n/a	LTP305	ltpFR2	15	n/a	n/a	n/a	26	17	5	6	6
4060176	PROB	n/a	LTP305	ltpFR2	15	n/a	n/a	n/a	26	19	6	6	7
4062410	PROB	n/a	LTP305	ltpFR2	15	n/a	n/a	n/a	26	13	4	5	4
4064045	PROB	n/a	LTP305	ltpFR2	15	n/a	n/a	n/a	26	12	2	6	4
4065413	PROB	n/a	LTP305	ltpFR2	15	n/a	n/a	n/a	26	14	1	9	4
4066862	STOP	n/a	LTP305	ltpFR2	15	n/a	n/a	n/a	26	n/a	n/a	n/a	n/a
4069350	REC_START	n/a	LTP305	ltpFR2	15	18	n/a	n/a	n/a	n/a	0	0	0
4159780	WORD	wordpools/wasnorm_wordpool_576.txt	LTP305	ltpFR2	15	19	ASIA	46	n/a	n/a	0	0	0
4162290	WORD	wordpools/wasnorm_wordpool_576.txt	LTP305	ltpFR2	15	19	HONEY	713	n/a	n/a	0	0	0
4165076	WORD	wordpools/wasnorm_wordpool_576.txt	LTP305	ltpFR2	15	19	IDOL	733	n/a	n/a	0	0	0
4167861	WORD	wordpools/wasnorm_wordpool_576.txt	LTP305	ltpFR2	15	19	BEAVER	109	n/a	n/a	0	0	0
4170424	WORD	wordpools/wasnorm_wordpool_576.txt	LTP305	ltpFR2	15	19	GAZELLE	628	n/a	n/a	0	0	0
4172944	WORD	wordpools/wasnorm_wordpool_576.txt	LTP305	ltpFR2	15	19	CYCLONE	431	n/a	n/a	0	0	0
4175701	WORD	wordpools/wasnorm_wordpool_576.txt	LTP305	ltpFR2	15	19	SANDWICH	1232	n/a	n/a	0	0	0
4178499	WORD	wordpools/wasnorm_wordpool_576.txt	LTP305	ltpFR2	15	19	VAGRANT	1544	n/a	n/a	0	0	0
4181320	WORD	wordpools/wasnorm_wordpool_576.txt	LTP305	ltpFR2	15	19	CANAL	226	n/a	n/a	0	0	0
4183803	WORD	wordpools/wasnorm_wordpool_576.txt	LTP305	ltpFR2	15	19	BARREL	91	n/a	n/a	0	0	0
4186489	WORD	wordpools/wasnorm_wordpool_576.txt	LTP305	ltpFR2	15	19	BANK	83	n/a	n/a	0	0	0
4189173	WORD	wordpools/wasnorm_wordpool_576.txt	LTP305	ltpFR2	15	19	COIN	343	n/a	n/a	0	0	0
4191927	WORD	wordpools/wasnorm_wordpool_576.txt	LTP305	ltpFR2	15	19	BABY	64	n/a	n/a	0	0	0
4194414	WORD	wordpools/wasnorm_wordpool_576.txt	LTP305	ltpFR2	15	19	WHISKERS	1605	n/a	n/a	0	0	0
4196930	WORD	wordpools/wasnorm_wordpool_576.txt	LTP305	ltpFR2	15	19	MASK	876	n/a	n/a	0	0	0
4199583	WORD	wordpools/wasnorm_wordpool_576.txt	LTP305	ltpFR2	15	19	SERVANT	1271	n/a	n/a	0	0	0
4202284	WORD	wordpools/wasnorm_wordpool_576.txt	LTP305	ltpFR2	15	19	TERMITE	1451	n/a	n/a	0	0	0
4204756	WORD	wordpools/wasnorm_wordpool_576.txt	LTP305	ltpFR2	15	19	PANTHER	1009	n/a	n/a	0	0	0
4207256	WORD	wordpools/wasnorm_wordpool_576.txt	LTP305	ltpFR2	15	19	PIMPLE	1071	n/a	n/a	0	0	0
4210008	WORD	wordpools/wasnorm_wordpool_576.txt	LTP305	ltpFR2	15	19	XEROX	1628	n/a	n/a	0	0	0
4212477	WORD	wordpools/wasnorm_wordpool_576.txt	LTP305	ltpFR2	15	19	COUNTRY	388	n/a	n/a	0	0	0
4215295	WORD	wordpools/wasnorm_wordpool_576.txt	LTP305	ltpFR2	15	19	BRANCH	168	n/a	n/a	0	0	0
4217800	WORD	wordpools/wasnorm_wordpool_576.txt	LTP305	ltpFR2	15	19	SHRUB	1299	n/a	n/a	0	0	0
4220516	WORD	wordpools/wasnorm_wordpool_576.txt	LTP305	ltpFR2	15	19	APPLE	33	n/a	n/a	0	0	0
4222135	START	n/a	LTP305	ltpFR2	15	n/a	n/a	n/a	27	n/a	n/a	n/a	n/a
4223219	DISTRACTOR	n/a	LTP305	ltpFR2	15	19	n/a	n/a	n/a	n/a	0	0	0
4223236	PROB	n/a	LTP305	ltpFR2	15	n/a	n/a	n/a	27	15	8	1	6
4225618	PROB	n/a	LTP305	ltpFR2	15	n/a	n/a	n/a	27	21	4	8	9
4227106	PROB	n/a	LTP305	ltpFR2	15	n/a	n/a	n/a	27	12	1	7	4
4228470	PROB	n/a	LTP305	ltpFR2	15	n/a	n/a	n/a	27	19	3	9	7
4230972	PROB	n/a	LTP305	ltpFR2	15	n/a	n/a	n/a	27	20	9	8	3
4232443	PROB	n/a	LTP305	ltpFR2	15	n/a	n/a	n/a	27	20	4	4	8
4233975	PROB	n/a	LTP305	ltpFR2	15	n/a	n/a	n/a	27	10	6	2	2
4235943	PROB	n/a	LTP305	ltpFR2	15	n/a	n/a	n/a	27	10	1	5	4
4237343	PROB	n/a	LTP305	ltpFR2	15	n/a	n/a	n/a	27	13	6	5	2
4239897	PROB	n/a	LTP305	ltpFR2	15	n/a	n/a	n/a	27	7	1	4	2
4241568	PROB	n/a	LTP305	ltpFR2	15	n/a	n/a	n/a	27	14	5	6	3
4243282	PROB	n/a	LTP305	ltpFR2	15	n/a	n/a	n/a	27	19	7	7	5
4245038	STOP	n/a	LTP305	ltpFR2	15	n/a	n/a	n/a	27	n/a	n/a	n/a	n/a
4248006	REC_START	n/a	LTP305	ltpFR2	15	19	n/a	n/a	n/a	n/a	0	0	0
4338431	DISTRACTOR	n/a	LTP305	ltpFR2	15	20	n/a	n/a	n/a	n/a	0	0	0
4338431	START	n/a	LTP305	ltpFR2	15	n/a	n/a	n/a	28	n/a	n/a	n/a	n/a
4338444	PROB	n/a	LTP305	ltpFR2	15	n/a	n/a	n/a	28	21	9	8	4
4340798	PROB	n/a	LTP305	ltpFR2	15	n/a	n/a	n/a	28	20	8	7	5
4344168	PROB	n/a	LTP305	ltpFR2	15	n/a	n/a	n/a	28	16	2	5	9
4345951	PROB	n/a	LTP305	ltpFR2	15	n/a	n/a	n/a	28	20	8	8	4
4347736	PROB	n/a	LTP305	ltpFR2	15	n/a	n/a	n/a	28	18	3	6	9
4349955	PROB	n/a	LTP305	ltpFR2	15	n/a	n/a	n/a	28	20	4	8	8
4351422	PROB	n/a	LTP305	ltpFR2	15	n/a	n/a	n/a	28	15	4	5	6
4354593	PROB	n/a	LTP305	ltpFR2	15	n/a	n/a	n/a	28	6	1	4	1
4355659	PROB	n/a	LTP305	ltpFR2	15	n/a	n/a	n/a	28	22	5	8	9
4357177	PROB	n/a	LTP305	ltpFR2	15	n/a	n/a	n/a	28	24	8	9	7
4359845	PROB	n/a	LTP305	ltpFR2	15	n/a	n/a	n/a	28	13	8	1	4
4361174	STOP	n/a	LTP305	ltpFR2	15	n/a	n/a	n/a	28	n/a	n/a	n/a	n/a
4363469	WORD	wordpools/wasnorm_wordpool_576.txt	LTP305	ltpFR2	15	20	OUTDOORS	987	n/a	n/a	0	0	0
4366238	WORD	wordpools/wasnorm_wordpool_576.txt	LTP305	ltpFR2	15	20	FOREST	593	n/a	n/a	0	0	0
4368907	WORD	wordpools/wasnorm_wordpool_576.txt	LTP305	ltpFR2	15	20	MUMMY	932	n/a	n/a	0	0	0
4371349	WORD	wordpools/wasnorm_wordpool_576.txt	LTP305	ltpFR2	15	20	WORLD	1622	n/a	n/a	0	0	0
4373852	WORD	wordpools/wasnorm_wordpool_576.txt	LTP305	ltpFR2	15	20	OUTFIT	988	n/a	n/a	0	0	0
4376537	WORD	wordpools/wasnorm_wordpool_576.txt	LTP305	ltpFR2	15	20	LILY	821	n/a	n/a	0	0	0
4379189	WORD	wordpools/wasnorm_wordpool_576.txt	LTP305	ltpFR2	15	20	STOMACH	1384	n/a	n/a	0	0	0
4381667	WORD	wordpools/wasnorm_wordpool_576.txt	LTP305	ltpFR2	15	20	BELLY	119	n/a	n/a	0	0	0
4384136	WORD	wordpools/wasnorm_wordpool_576.txt	LTP305	ltpFR2	15	20	ROBBER	1197	n/a	n/a	0	0	0
4386895	WORD	wordpools/wasnorm_wordpool_576.txt	LTP305	ltpFR2	15	20	ONION	977	n/a	n/a	0	0	0
4389591	WORD	wordpools/wasnorm_wordpool_576.txt	LTP305	ltpFR2	15	20	NOMAD	955	n/a	n/a	0	0	0
4392076	WORD	wordpools/wasnorm_wordpool_576.txt	LTP305	ltpFR2	15	20	MATCH	878	n/a	n/a	0	0	0
4394784	WORD	wordpools/wasnorm_wordpool_576.txt	LTP305	ltpFR2	15	20	SALT	1229	n/a	n/a	0	0	0
4397263	WORD	wordpools/wasnorm_wordpool_576.txt	LTP305	ltpFR2	15	20	PARSLEY	1016	n/a	n/a	0	0	0
4399965	WORD	wordpools/wasnorm_wordpool_576.txt	LTP305	ltpFR2	15	20	COFFEE	341	n/a	n/a	0	0	0
4402769	WORD	wordpools/wasnorm_wordpool_576.txt	LTP305	ltpFR2	15	20	TUNNEL	1519	n/a	n/a	0	0	0
4405458	WORD	wordpools/wasnorm_wordpool_576.txt	LTP305	ltpFR2	15	20	ATLAS	53	n/a	n/a	0	0	0
4408106	WORD	wordpools/wasnorm_wordpool_576.txt	LTP305	ltpFR2	15	20	SUNSET	1408	n/a	n/a	0	0	0
4410813	WORD	wordpools/wasnorm_wordpool_576.txt	LTP305	ltpFR2	15	20	PEBBLE	1035	n/a	n/a	0	0	0
4413426	WORD	wordpools/wasnorm_wordpool_576.txt	LTP305	ltpFR2	15	20	SUBWAY	1400	n/a	n/a	0	0	0
4416030	WORD	wordpools/wasnorm_wordpool_576.txt	LTP305	ltpFR2	15	20	ELBOW	520	n/a	n/a	0	0	0
4418781	WORD	wordpools/wasnorm_wordpool_576.txt	LTP305	ltpFR2	15	20	ANTLER	29	n/a	n/a	0	0	0
4421300	WORD	wordpools/wasnorm_wordpool_576.txt	LTP305	ltpFR2	15	20	KITCHEN	778	n/a	n/a	0	0	0
4423786	WORD	wordpools/wasnorm_wordpool_576.txt	LTP305	ltpFR2	15	20	DENIM	446	n/a	n/a	0	0	0
4425403	START	n/a	LTP305	ltpFR2	15	n/a	n/a	n/a	29	n/a	n/a	n/a	n/a
4426522	DISTRACTOR	n/a	LTP305	ltpFR2	15	20	n/a	n/a	n/a	n/a	0	0	0
4426538	PROB	n/a	LTP305	ltpFR2	15	n/a	n/a	n/a	29	20	7	6	7
4428788	PROB	n/a	LTP305	ltpFR2	15	n/a	n/a	n/a	29	16	6	3	7
4430105	PROB	n/a	LTP305	ltpFR2	15	n/a	n/a	n/a	29	15	2	7	6
4432506	PROB	n/a	LTP305	ltpFR2	15	n/a	n/a	n/a	29	5	1	3	1
4433644	PROB	n/a	LTP305	ltpFR2	15	n/a	n/a	n/a	29	16	5	6	7
4435876	PROB	n/a	LTP305	ltpFR2	15	n/a	n/a	n/a	29	19	1	9	9
4437644	PROB	n/a	LTP305	ltpFR2	15	n/a	n/a	n/a	29	18	9	1	8
4439361	PROB	n/a	LTP305	ltpFR2	15	n/a	n/a	n/a	29	19	5	8	6
4441064	PROB	n/a	LTP305	ltpFR2	15	n/a	n/a	n/a	29	15	5	2	8
4442631	PROB	n/a	LTP305	ltpFR2	15	n/a	n/a	n/a	29	10	1	6	3
4444233	PROB	n/a	LTP305	ltpFR2	15	n/a	n/a	n/a	29	10	4	4	2
4445702	PROB	n/a	LTP305	ltpFR2	15	n/a	n/a	n/a	29	24	8	7	9
4448518	STOP	n/a	LTP305	ltpFR2	15	n/a	n/a	n/a	29	n/a	n/a	n/a	n/a
4451354	REC_START	n/a	LTP305	ltpFR2	15	20	n/a	n/a	n/a	n/a	0	0	0
4541796	DISTRACTOR	n/a	LTP305	ltpFR2	15	21	n/a	n/a	n/a	n/a	0	0	0
4541796	START	n/a	LTP305	ltpFR2	15	n/a	n/a	n/a	30	n/a	n/a	n/a	n/a
4541810	PROB	n/a	LTP305	ltpFR2	15	n/a	n/a	n/a	30	15	7	2	6
4544017	PROB	n/a	LTP305	ltpFR2	15	n/a	n/a	n/a	30	18	1	8	9
4545664	PROB	n/a	LTP305	ltpFR2	15	n/a	n/a	n/a	30	18	8	9	1
4547297	PROB	n/a	LTP305	ltpFR2	15	n/a	n/a	n/a	30	11	3	5	3
4549621	PROB	n/a	LTP305	ltpFR2	15	n/a	n/a	n/a	30	19	5	5	9
4551067	PROB	n/a	LTP305	ltpFR2	15	n/a	n/a	n/a	30	12	7	3	2
4552388	PROB	n/a	LTP305	ltpFR2	15	n/a	n/a	n/a	30	9	1	1	7
4553506	PROB	n/a	LTP305	ltpFR2	15	n/a	n/a	n/a	30	12	4	3	5
4555141	PROB	n/a	LTP305	ltpFR2	15	n/a	n/a	n/a	30	16	5	4	7
4556404	PROB	n/a	LTP305	ltpFR2	15	n/a	n/a	n/a	30	15	6	7	2
4557839	PROB	n/a	LTP305	ltpFR2	15	n/a	n/a	n/a	30	17	3	7	7
4559295	PROB	n/a	LTP305	ltpFR2	15	n/a	n/a	n/a	30	14	8	1	5
4561014	PROB	n/a	LTP305	ltpFR2	15	n/a	n/a	n/a	30	17	6	2	9
4562498	PROB	n/a	LTP305	ltpFR2	15	n/a	n/a	n/a	30	15	7	4	4
4565796	STOP	n/a	LTP305	ltpFR2	15	n/a	n/a	n/a	30	n/a	n/a	n/a	n/a
4566881	WORD	wordpools/wasnorm_wordpool_576.txt	LTP305	ltpFR2	15	21	STATUE	1374	n/a	n/a	0	0	0
4569551	WORD	wordpools/wasnorm_wordpool_576.txt	LTP305	ltpFR2	15	21	PRINCESS	1125	n/a	n/a	0	0	0
4572136	WORD	wordpools/wasnorm_wordpool_576.txt	LTP305	ltpFR2	15	21	RUST	1219	n/a	n/a	0	0	0
4574571	WORD	wordpools/wasnorm_wordpool_576.txt	LTP305	ltpFR2	15	21	TOMBSTONE	1478	n/a	n/a	0	0	0
4577313	WORD	wordpools/wasnorm_wordpool_576.txt	LTP305	ltpFR2	15	21	SUMMIT	1405	n/a	n/a	0	0	0
4579926	WORD	wordpools/wasnorm_wordpool_576.txt	LTP305	ltpFR2	15	21	LUGGAGE	847	n/a	n/a	0	0	0
4582393	WORD	wordpools/wasnorm_wordpool_576.txt	LTP305	ltpFR2	15	21	CLAMP	316	n/a	n/a	0	0	0
4585003	WORD	wordpools/wasnorm_wordpool_576.txt	LTP305	ltpFR2	15	21	DRAGON	492	n/a	n/a	0	0	0
4587447	WORD	wordpools/wasnorm_wordpool_576.txt	LTP305	ltpFR2	15	21	DIVER	476	n/a	n/a	0	0	0
4589941	WORD	wordpools/wasnorm_wordpool_576.txt	LTP305	ltpFR2	15	21	MARSH	874	n/a	n/a	0	0	0
4592552	WORD	wordpools/wasnorm_wordpool_576.txt	LTP305	ltpFR2	15	21	REPORT	1184	n/a	n/a	0	0	0
4595270	WORD	wordpools/wasnorm_wordpool_576.txt	LTP305	ltpFR2	15	21	ROOSTER	1209	n/a	n/a	0	0	0
4597756	WORD	wordpools/wasnorm_wordpool_576.txt	LTP305	ltpFR2	15	21	MEDAL	885	n/a	n/a	0	0	0
4600423	WORD	wordpools/wasnorm_wordpool_576.txt	LTP305	ltpFR2	15	21	CHEMIST	292	n/a	n/a	0	0	0
4603035	WORD	wordpools/wasnorm_wordpool_576.txt	LTP305	ltpFR2	15	21	ISLAND	745	n/a	n/a	0	0	0
4605670	WORD	wordpools/wasnorm_wordpool_576.txt	LTP305	ltpFR2	15	21	VALLEY	1545	n/a	n/a	0	0	0
4608206	WORD	wordpools/wasnorm_wordpool_576.txt	LTP305	ltpFR2	15	21	BEAKER	104	n/a	n/a	0	0	0
4610674	WORD	wordpools/wasnorm_wordpool_576.txt	LTP305	ltpFR2	15	21	BROOK	177	n/a	n/a	0	0	0
4613468	WORD	wordpools/wasnorm_wordpool_576.txt	LTP305	ltpFR2	15	21	SWIMMER	1420	n/a	n/a	0	0	0
4616212	WORD	wordpools/wasnorm_wordpool_576.txt	LTP305	ltpFR2	15	21	COOK	372	n/a	n/a	0	0	0
4618915	WORD	wordpools/wasnorm_wordpool_576.txt	LTP305	ltpFR2	15	21	LUNCH	849	n/a	n/a	0	0	0
4621389	WORD	wordpools/wasnorm_wordpool_576.txt	LTP305	ltpFR2	15	21	PLIERS	1089	n/a	n/a	0	0	0
4624043	WORD	wordpools/wasnorm_wordpool_576.txt	LTP305	ltpFR2	15	21	PERMIT	1051	n/a	n/a	0	0	0
4626504	WORD	wordpools/wasnorm_wordpool_576.txt	LTP305	ltpFR2	15	21	JELLO	754	n/a	n/a	0	0	0
4628112	START	n/a	LTP305	ltpFR2	15	n/a	n/a	n/a	31	n/a	n/a	n/a	n/a
4629007	DISTRACTOR	n/a	LTP305	ltpFR2	15	21	n/a	n/a	n/a	n/a	0	0	0
4629023	PROB	n/a	LTP305	ltpFR2	15	n/a	n/a	n/a	31	10	6	1	3
4631272	PROB	n/a	LTP305	ltpFR2	15	n/a	n/a	n/a	31	17	3	8	6
4633174	PROB	n/a	LTP305	ltpFR2	15	n/a	n/a	n/a	31	16	6	2	8
4634407	PROB	n/a	LTP305	ltpFR2	15	n/a	n/a	n/a	31	19	8	7	4
4635926	PROB	n/a	LTP305	ltpFR2	15	n/a	n/a	n/a	31	10	7	2	1
4637293	PROB	n/a	LTP305	ltpFR2	15	n/a	n/a	n/a	31	16	8	3	5
4638694	PROB	n/a	LTP305	ltpFR2	15	n/a	n/a	n/a	31	17	9	5	3
4640764	PROB	n/a	LTP305	ltpFR2	15	n/a	n/a	n/a	31	12	3	6	3
4643249	PROB	n/a	LTP305	ltpFR2	15	n/a	n/a	n/a	31	22	8	8	6
4644917	PROB	n/a	LTP305	ltpFR2	15	n/a	n/a	n/a	31	9	5	2	2
4646250	PROB	n/a	LTP305	ltpFR2	15	n/a	n/a	n/a	31	19	7	9	3
4648318	PROB	n/a	LTP305	ltpFR2	15	n/a	n/a	n/a	31	12	3	4	5
4649971	PROB	n/a	LTP305	ltpFR2	15	n/a	n/a	n/a	31	12	3	3	6
4651246	STOP	n/a	LTP305	ltpFR2	15	n/a	n/a	n/a	31	n/a	n/a	n/a	n/a
4654009	REC_START	n/a	LTP305	ltpFR2	15	21	n/a	n/a	n/a	n/a	0	0	0
4654669	REC_WORD	wordpools/wasnorm_wordpool_576.txt	LTP305	ltpFR2	15	21	JELLO	754	n/a	n/a	0	0	0
4656003	REC_WORD	wordpools/wasnorm_wordpool_576.txt	LTP305	ltpFR2	15	21	PLIERS	1089	n/a	n/a	0	0	0
4744468	DISTRACTOR	n/a	LTP305	ltpFR2	15	22	n/a	n/a	n/a	n/a	0	0	0
4744468	START	n/a	LTP305	ltpFR2	15	n/a	n/a	n/a	32	n/a	n/a	n/a	n/a
4744482	PROB	n/a	LTP305	ltpFR2	15	n/a	n/a	n/a	32	12	9	2	1
4746100	PROB	n/a	LTP305	ltpFR2	15	n/a	n/a	n/a	32	8	1	1	6
4747437	PROB	n/a	LTP305	ltpFR2	15	n/a	n/a	n/a	32	17	6	4	7
4749156	PROB	n/a	LTP305	ltpFR2	15	n/a	n/a	n/a	32	17	3	9	5
4751139	PROB	n/a	LTP305	ltpFR2	15	n/a	n/a	n/a	32	12	3	4	5
4752487	PROB	n/a	LTP305	ltpFR2	15	n/a	n/a	n/a	32	24	7	9	8
4753974	PROB	n/a	LTP305	ltpFR2	15	n/a	n/a	n/a	32	15	2	5	8
4755478	PROB	n/a	LTP305	ltpFR2	15	n/a	n/a	n/a	32	20	8	5	7
4756793	PROB	n/a	LTP305	ltpFR2	15	n/a	n/a	n/a	32	20	9	2	9
4758345	PROB	n/a	LTP305	ltpFR2	15	n/a	n/a	n/a	32	5	2	2	1
4759428	PROB	n/a	LTP305	ltpFR2	15	n/a	n/a	n/a	32	20	9	5	6
4761011	PROB	n/a	LTP305	ltpFR2	15	n/a	n/a	n/a	32	14	7	1	6
4762495	PROB	n/a	LTP305	ltpFR2	15	n/a	n/a	n/a	32	12	3	2	7
4763783	PROB	n/a	LTP305	ltpFR2	15	n/a	n/a	n/a	32	7	1	3	3
4765083	PROB	n/a	LTP305	ltpFR2	15	n/a	n/a	n/a	32	14	1	9	4
4766447	PROB	n/a	LTP305	ltpFR2	15	n/a	n/a	n/a	32	18	5	6	7
4767750	STOP	n/a	LTP305	ltpFR2	15	n/a	n/a	n/a	32	n/a	n/a	n/a	n/a
4769487	WORD	wordpools/wasnorm_wordpool_576.txt	LTP305	ltpFR2	15	22	WAGON	1578	n/a	n/a	0	0	0
4772176	WORD	wordpools/wasnorm_wordpool_576.txt	LTP305	ltpFR2	15	22	TRACTOR	1493	n/a	n/a	0	0	0
4774958	WORD	wordpools/wasnorm_wordpool_576.txt	LTP305	ltpFR2	15	22	STAR	1373	n/a	n/a	0	0	0
4777510	WORD	wordpools/wasnorm_wordpool_576.txt	LTP305	ltpFR2	15	22	LONDON	843	n/a	n/a	0	0	0
4779995	WORD	wordpools/wasnorm_wordpool_576.txt	LTP305	ltpFR2	15	22	HIGHWAY	707	n/a	n/a	0	0	0
4782697	WORD	wordpools/wasnorm_wordpool_576.txt	LTP305	ltpFR2	15	22	BRICK	172	n/a	n/a	0	0	0
4785380	WORD	wordpools/wasnorm_wordpool_576.txt	LTP305	ltpFR2	15	22	LADDER	793	n/a	n/a	0	0	0
4788001	WORD	wordpools/wasnorm_wordpool_576.txt	LTP305	ltpFR2	15	22	SOFTBALL	1343	n/a	n/a	0	0	0
4790524	WORD	wordpools/wasnorm_wordpool_576.txt	LTP305	ltpFR2	15	22	PRINCE	1124	n/a	n/a	0	0	0
4793304	WORD	wordpools/wasnorm_wordpool_576.txt	LTP305	ltpFR2	15	22	STAKE	1368	n/a	n/a	0	0	0
4796011	WORD	wordpools/wasnorm_wordpool_576.txt	LTP305	ltpFR2	15	22	FIREPLACE	570	n/a	n/a	0	0	0
4798831	WORD	wordpools/wasnorm_wordpool_576.txt	LTP305	ltpFR2	15	22	ORANGE	980	n/a	n/a	0	0	0
4801432	WORD	wordpools/wasnorm_wordpool_576.txt	LTP305	ltpFR2	15	22	UMPIRE	1535	n/a	n/a	0	0	0
4804130	WORD	wordpools/wasnorm_wordpool_576.txt	LTP305	ltpFR2	15	22	SUNRISE	1407	n/a	n/a	0	0	0
4806738	WORD	wordpools/wasnorm_wordpool_576.txt	LTP305	ltpFR2	15	22	DUSTPAN	509	n/a	n/a	0	0	0
4809507	WORD	wordpools/wasnorm_wordpool_576.txt	LTP305	ltpFR2	15	22	FRIAR	605	n/a	n/a	0	0	0
4812268	WORD	wordpools/wasnorm_wordpool_576.txt	LTP305	ltpFR2	15	22	GRAPE	654	n/a	n/a	0	0	0
4814844	WORD	wordpools/wasnorm_wordpool_576.txt	LTP305	ltpFR2	15	22	COOKBOOK	373	n/a	n/a	0	0	0
4817623	WORD	wordpools/wasnorm_wordpool_576.txt	LTP305	ltpFR2	15	22	CAFE	216	n/a	n/a	0	0	0
4820109	WORD	wordpools/wasnorm_wordpool_576.txt	LTP305	ltpFR2	15	22	WASHER	1592	n/a	n/a	0	0	0
4822567	WORD	wordpools/wasnorm_wordpool_576.txt	LTP305	ltpFR2	15	22	AIRPORT	13	n/a	n/a	0	0	0
4825012	WORD	wordpools/wasnorm_wordpool_576.txt	LTP305	ltpFR2	15	22	TABLET	1427	n/a	n/a	0	0	0
4827471	WORD	wordpools/wasnorm_wordpool_576.txt	LTP305	ltpFR2	15	22	DRIVER	499	n/a	n/a	0	0	0
4829923	WORD	wordpools/wasnorm_wordpool_576.txt	LTP305	ltpFR2	15	22	DOLPHIN	483	n/a	n/a	0	0	0
4831535	START	n/a	LTP305	ltpFR2	15	n/a	n/a	n/a	33	n/a	n/a	n/a	n/a
4832612	DISTRACTOR	n/a	LTP305	ltpFR2	15	22	n/a	n/a	n/a	n/a	0	0	0
4832619	PROB	n/a	LTP305	ltpFR2	15	n/a	n/a	n/a	33	9	2	1	6
4834494	PROB	n/a	LTP305	ltpFR2	15	n/a	n/a	n/a	33	17	8	7	2
4836693	PROB	n/a	LTP305	ltpFR2	15	n/a	n/a	n/a	33	16	4	7	5
4838127	PROB	n/a	LTP305	ltpFR2	15	n/a	n/a	n/a	33	11	3	3	5
4839427	PROB	n/a	LTP305	ltpFR2	15	n/a	n/a	n/a	33	18	5	7	6
4841147	PROB	n/a	LTP305	ltpFR2	15	n/a	n/a	n/a	33	16	9	2	5
4842581	PROB	n/a	LTP305	ltpFR2	15	n/a	n/a	n/a	33	23	6	8	9
4843900	PROB	n/a	LTP305	ltpFR2	15	n/a	n/a	n/a	33	6	1	4	1
4845050	PROB	n/a	LTP305	ltpFR2	15	n/a	n/a	n/a	33	18	1	8	9
4846719	PROB	n/a	LTP305	ltpFR2	15	n/a	n/a	n/a	33	14	9	3	2
4848087	PROB	n/a	LTP305	ltpFR2	15	n/a	n/a	n/a	33	14	9	4	1
4849822	PROB	n/a	LTP305	ltpFR2	15	n/a	n/a	n/a	33	23	7	9	6
4851455	PROB	n/a	LTP305	ltpFR2	15	n/a	n/a	n/a	33	25	8	7	7
4852975	PROB	n/a	LTP305	ltpFR2	15	n/a	n/a	n/a	33	14	2	5	7
4854277	STOP	n/a	LTP305	ltpFR2	15	n/a	n/a	n/a	33	n/a	n/a	n/a	n/a
4857446	REC_START	n/a	LTP305	ltpFR2	15	22	n/a	n/a	n/a	n/a	0	0	0
4860204	REC_WORD	wordpools/wasnorm_wordpool_576.txt	LTP305	ltpFR2	15	22	CAFE	216	n/a	n/a	0	0	0
4861991	REC_WORD	wordpools/wasnorm_wordpool_576.txt	LTP305	ltpFR2	15	22	DRIVER	499	n/a	n/a	0	0	0
4870169	REC_WORD	wordpools/wasnorm_wordpool_576.txt	LTP305	ltpFR2	15	22	LADDER	793	n/a	n/a	0	0	0
4871817	REC_WORD	wordpools/wasnorm_wordpool_576.txt	LTP305	ltpFR2	15	22	BRICK	172	n/a	n/a	0	0	0
4873379	REC_WORD	wordpools/wasnorm_wordpool_576.txt	LTP305	ltpFR2	15	22	HIGHWAY	707	n/a	n/a	0	0	0
4947919	WORD	wordpools/wasnorm_wordpool_576.txt	LTP305	ltpFR2	15	23	SHERIFF	1284	n/a	n/a	0	0	0
4950373	WORD	wordpools/wasnorm_wordpool_576.txt	LTP305	ltpFR2	15	23	HUSBAND	728	n/a	n/a	0	0	0
4953009	WORD	wordpools/wasnorm_wordpool_576.txt	LTP305	ltpFR2	15	23	COUNTY	389	n/a	n/a	0	0	0
4955794	WORD	wordpools/wasnorm_wordpool_576.txt	LTP305	ltpFR2	15	23	TAXI	1438	n/a	n/a	0	0	0
4958313	WORD	wordpools/wasnorm_wordpool_576.txt	LTP305	ltpFR2	15	23	MUSTARD	935	n/a	n/a	0	0	0
4960899	WORD	wordpools/wasnorm_wordpool_576.txt	LTP305	ltpFR2	15	23	KETCHUP	771	n/a	n/a	0	0	0
4963367	WORD	wordpools/wasnorm_wordpool_576.txt	LTP305	ltpFR2	15	23	FLUTE	585	n/a	n/a	0	0	0
4965986	WORD	wordpools/wasnorm_wordpool_576.txt	LTP305	ltpFR2	15	23	ACTOR	5	n/a	n/a	0	0	0
4968755	WORD	wordpools/wasnorm_wordpool_576.txt	LTP305	ltpFR2	15	23	TREAT	1501	n/a	n/a	0	0	0
4971357	WORD	wordpools/wasnorm_wordpool_576.txt	LTP305	ltpFR2	15	23	OYSTER	995	n/a	n/a	0	0	0
4974043	WORD	wordpools/wasnorm_wordpool_576.txt	LTP305	ltpFR2	15	23	CONCERT	360	n/a	n/a	0	0	0
4976678	WORD	wordpools/wasnorm_wordpool_576.txt	LTP305	ltpFR2	15	23	THIEF	1456	n/a	n/a	0	0	0
4979247	WORD	wordpools/wasnorm_wordpool_576.txt	LTP305	ltpFR2	15	23	COLLEGE	346	n/a	n/a	0	0	0
4981799	WORD	wordpools/wasnorm_wordpool_576.txt	LTP305	ltpFR2	15	23	COUCH	386	n/a	n/a	0	0	0
4984552	WORD	wordpools/wasnorm_wordpool_576.txt	LTP305	ltpFR2	15	23	HERO	706	n/a	n/a	0	0	0
4987170	WORD	wordpools/wasnorm_wordpool_576.txt	LTP305	ltpFR2	15	23	BLUEPRINT	142	n/a	n/a	0	0	0
4989705	WORD	wordpools/wasnorm_wordpool_576.txt	LTP305	ltpFR2	15	23	PERFUME	1049	n/a	n/a	0	0	0
4992239	WORD	wordpools/wasnorm_wordpool_576.txt	LTP305	ltpFR2	15	23	RACKET	1155	n/a	n/a	0	0	0
4994742	WORD	wordpools/wasnorm_wordpool_576.txt	LTP305	ltpFR2	15	23	JUGGLER	763	n/a	n/a	0	0	0
4997426	WORD	wordpools/wasnorm_wordpool_576.txt	LTP305	ltpFR2	15	23	FOOT	590	n/a	n/a	0	0	0
5000063	WORD	wordpools/wasnorm_wordpool_576.txt	LTP305	ltpFR2	15	23	SKETCH	1315	n/a	n/a	0	0	0
5002864	WORD	wordpools/wasnorm_wordpool_576.txt	LTP305	ltpFR2	15	23	PLASTER	1085	n/a	n/a	0	0	0
5005332	WORD	wordpools/wasnorm_wordpool_576.txt	LTP305	ltpFR2	15	23	PADDING	999	n/a	n/a	0	0	0
5007902	WORD	wordpools/wasnorm_wordpool_576.txt	LTP305	ltpFR2	15	23	ROBOT	1200	n/a	n/a	0	0	0
5009521	START	n/a	LTP305	ltpFR2	15	n/a	n/a	n/a	34	n/a	n/a	n/a	n/a
5010511	DISTRACTOR	n/a	LTP305	ltpFR2	15	23	n/a	n/a	n/a	n/a	0	0	0
5010520	PROB	n/a	LTP305	ltpFR2	15	n/a	n/a	n/a	34	23	4	9	9
5012640	PROB	n/a	LTP305	ltpFR2	15	n/a	n/a	n/a	34	17	5	9	3
5014386	PROB	n/a	LTP305	ltpFR2	15	n/a	n/a	n/a	34	14	3	5	6
5015888	PROB	n/a	LTP305	ltpFR2	15	n/a	n/a	n/a	34	19	9	4	6
5017439	PROB	n/a	LTP305	ltpFR2	15	n/a	n/a	n/a	34	18	6	3	9
5019361	PROB	n/a	LTP305	ltpFR2	15	n/a	n/a	n/a	34	15	7	6	2
5020876	PROB	n/a	LTP305	ltpFR2	15	n/a	n/a	n/a	34	17	8	8	1
5022511	PROB	n/a	LTP305	ltpFR2	15	n/a	n/a	n/a	34	20	8	6	6
5023981	PROB	n/a	LTP305	ltpFR2	15	n/a	n/a	n/a	34	9	1	4	4
5025382	PROB	n/a	LTP305	ltpFR2	15	n/a	n/a	n/a	34	23	9	6	2
5027663	PROB	n/a	LTP305	ltpFR2	15	n/a	n/a	n/a	34	12	7	3	2
5029482	PROB	n/a	LTP305	ltpFR2	15	n/a	n/a	n/a	34	20	8	4	8
5032269	STOP	n/a	LTP305	ltpFR2	15	n/a	n/a	n/a	34	n/a	n/a	n/a	n/a
5035291	REC_START	n/a	LTP305	ltpFR2	15	23	n/a	n/a	n/a	n/a	0	0	0
5036635	REC_WORD	wordpools/wasnorm_wordpool_576.txt	LTP305	ltpFR2	15	23	PADDING	999	n/a	n/a	0	0	0
5038353	REC_WORD	wordpools/wasnorm_wordpool_576.txt	LTP305	ltpFR2	15	23	ROBOT	1200	n/a	n/a	0	0	0
5125736	DISTRACTOR	n/a	LTP305	ltpFR2	15	24	n/a	n/a	n/a	n/a	0	0	0
5125736	START	n/a	LTP305	ltpFR2	15	n/a	n/a	n/a	35	n/a	n/a	n/a	n/a
5125749	PROB	n/a	LTP305	ltpFR2	15	n/a	n/a	n/a	35	16	5	7	4
5127587	PROB	n/a	LTP305	ltpFR2	15	n/a	n/a	n/a	35	23	8	7	8
5129169	PROB	n/a	LTP305	ltpFR2	15	n/a	n/a	n/a	35	11	3	2	6
5130724	PROB	n/a	LTP305	ltpFR2	15	n/a	n/a	n/a	35	16	3	4	9
5132437	PROB	n/a	LTP305	ltpFR2	15	n/a	n/a	n/a	35	10	1	6	3
5134174	PROB	n/a	LTP305	ltpFR2	15	n/a	n/a	n/a	35	14	6	3	5
5136060	PROB	n/a	LTP305	ltpFR2	15	n/a	n/a	n/a	35	23	8	9	5
5137425	PROB	n/a	LTP305	ltpFR2	15	n/a	n/a	n/a	35	11	3	3	5
5138829	PROB	n/a	LTP305	ltpFR2	15	n/a	n/a	n/a	35	13	9	5	3
5141196	PROB	n/a	LTP305	ltpFR2	15	n/a	n/a	n/a	35	15	7	4	4
5144498	PROB	n/a	LTP305	ltpFR2	15	n/a	n/a	n/a	35	15	8	1	6
5146017	PROB	n/a	LTP305	ltpFR2	15	n/a	n/a	n/a	35	25	8	8	9
5149736	STOP	n/a	LTP305	ltpFR2	15	n/a	n/a	n/a	35	n/a	n/a	n/a	n/a
5150606	WORD	wordpools/wasnorm_wordpool_576.txt	LTP305	ltpFR2	15	24	SWAMP	1416	n/a	n/a	0	0	0
5153158	WORD	wordpools/wasnorm_wordpool_576.txt	LTP305	ltpFR2	15	24	BRANDY	169	n/a	n/a	0	0	0
5155698	WORD	wordpools/wasnorm_wordpool_576.txt	LTP305	ltpFR2	15	24	BANKER	84	n/a	n/a	0	0	0
5158279	WORD	wordpools/wasnorm_wordpool_576.txt	LTP305	ltpFR2	15	24	BURGLAR	200	n/a	n/a	0	0	0
5160865	WORD	wordpools/wasnorm_wordpool_576.txt	LTP305	ltpFR2	15	24	PLUTO	1092	n/a	n/a	0	0	0
5163618	WORD	wordpools/wasnorm_wordpool_576.txt	LTP305	ltpFR2	15	24	VELVET	1555	n/a	n/a	0	0	0
5166285	WORD	wordpools/wasnorm_wordpool_576.txt	LTP305	ltpFR2	15	24	NAPKIN	937	n/a	n/a	0	0	0
5168922	WORD	wordpools/wasnorm_wordpool_576.txt	LTP305	ltpFR2	15	24	YOLK	1633	n/a	n/a	0	0	0
5171407	WORD	wordpools/wasnorm_wordpool_576.txt	LTP305	ltpFR2	15	24	BANQUET	86	n/a	n/a	0	0	0
5174143	WORD	wordpools/wasnorm_wordpool_576.txt	LTP305	ltpFR2	15	24	NOTEBOOK	959	n/a	n/a	0	0	0
5176862	WORD	wordpools/wasnorm_wordpool_576.txt	LTP305	ltpFR2	15	24	DIME	466	n/a	n/a	0	0	0
5179498	WORD	wordpools/wasnorm_wordpool_576.txt	LTP305	ltpFR2	15	24	EYELASH	546	n/a	n/a	0	0	0
5182217	WORD	wordpools/wasnorm_wordpool_576.txt	LTP305	ltpFR2	15	24	KLEENEX	782	n/a	n/a	0	0	0
5184735	WORD	wordpools/wasnorm_wordpool_576.txt	LTP305	ltpFR2	15	24	TEMPLE	1448	n/a	n/a	0	0	0
5187204	WORD	wordpools/wasnorm_wordpool_576.txt	LTP305	ltpFR2	15	24	PREACHER	1119	n/a	n/a	0	0	0
5189705	WORD	wordpools/wasnorm_wordpool_576.txt	LTP305	ltpFR2	15	24	MATTRESS	879	n/a	n/a	0	0	0
5192509	WORD	wordpools/wasnorm_wordpool_576.txt	LTP305	ltpFR2	15	24	STOVE	1388	n/a	n/a	0	0	0
5195111	WORD	wordpools/wasnorm_wordpool_576.txt	LTP305	ltpFR2	15	24	MONSTER	912	n/a	n/a	0	0	0
5197846	WORD	wordpools/wasnorm_wordpool_576.txt	LTP305	ltpFR2	15	24	GOBLIN	645	n/a	n/a	0	0	0
5200582	WORD	wordpools/wasnorm_wordpool_576.txt	LTP305	ltpFR2	15	24	RAZOR	1171	n/a	n/a	0	0	0
5203084	WORD	wordpools/wasnorm_wordpool_576.txt	LTP305	ltpFR2	15	24	CHAMPAGNE	278	n/a	n/a	0	0	0
5205853	WORD	wordpools/wasnorm_wordpool_576.txt	LTP305	ltpFR2	15	24	LODGE	839	n/a	n/a	0	0	0
5208420	WORD	wordpools/wasnorm_wordpool_576.txt	LTP305	ltpFR2	15	24	TRIBE	1505	n/a	n/a	0	0	0
5210873	WORD	wordpools/wasnorm_wordpool_576.txt	LTP305	ltpFR2	15	24	STONE	1385	n/a	n/a	0	0	0
5212492	START	n/a	LTP305	ltpFR2	15	n/a	n/a	n/a	36	n/a	n/a	n/a	n/a
5213376	DISTRACTOR	n/a	LTP305	ltpFR2	15	24	n/a	n/a	n/a	n/a	0	0	0
5213391	PROB	n/a	LTP305	ltpFR2	15	n/a	n/a	n/a	36	12	5	4	3
5216058	PROB	n/a	LTP305	ltpFR2	15	n/a	n/a	n/a	36	21	5	9	8
5217693	PROB	n/a	LTP305	ltpFR2	15	n/a	n/a	n/a	36	11	7	1	3
5218877	PROB	n/a	LTP305	ltpFR2	15	n/a	n/a	n/a	36	16	7	2	6
5220248	PROB	n/a	LTP305	ltpFR2	15	n/a	n/a	n/a	36	15	8	4	3
5221697	PROB	n/a	LTP305	ltpFR2	15	n/a	n/a	n/a	36	23	5	9	9
5223617	PROB	n/a	LTP305	ltpFR2	15	n/a	n/a	n/a	36	25	8	8	9
5225414	PROB	n/a	LTP305	ltpFR2	15	n/a	n/a	n/a	36	16	8	1	5
5226918	PROB	n/a	LTP305	ltpFR2	15	n/a	n/a	n/a	36	15	8	3	4
5228588	PROB	n/a	LTP305	ltpFR2	15	n/a	n/a	n/a	36	11	5	1	5
5229989	PROB	n/a	LTP305	ltpFR2	15	n/a	n/a	n/a	36	18	9	7	2
5231824	PROB	n/a	LTP305	ltpFR2	15	n/a	n/a	n/a	36	21	6	8	7
5233206	PROB	n/a	LTP305	ltpFR2	15	n/a	n/a	n/a	36	23	8	9	6
5235389	STOP	n/a	LTP305	ltpFR2	15	n/a	n/a	n/a	36	n/a	n/a	n/a	n/a
5238329	REC_START	n/a	LTP305	ltpFR2	15	24	n/a	n/a	n/a	n/a	0	0	0
5239764	REC_WORD	wordpools/wasnorm_wordpool_576.txt	LTP305	ltpFR2	15	24	BRANDY	169	n/a	n/a	0	0	0
5240972	REC_WORD	wordpools/wasnorm_wordpool_576.txt	LTP305	ltpFR2	15	24	CHAMPAGNE	278	n/a	n/a	0	0	0
5242571	REC_WORD	wordpools/wasnorm_wordpool_576.txt	LTP305	ltpFR2	15	24	SWAMP	1416	n/a	n/a	0	0	0
5244131	REC_WORD	wordpools/wasnorm_wordpool_576.txt	LTP305	ltpFR2	15	24	MONSTER	912	n/a	n/a	0	0	0
5245551	REC_WORD	wordpools/wasnorm_wordpool_576.txt	LTP305	ltpFR2	15	24	GOBLIN	645	n/a	n/a	0	0	0
5321600	SESS_END	n/a	LTP305	ltpFR2	15	24	n/a	n/a	n/a	n/a	0	0	0
