mstime	trial_type	stim_file	subject	experiment	session	trial	item_name	item_num	list	answer	test_x	test_y	test_z
0	SESS_START	n/a	LTP283	ltpFR2	16	n/a	n/a	n/a	n/a	n/a	0	0	0
15848	START	n/a	LTP283	ltpFR2	16	n/a	n/a	n/a	-1	n/a	n/a	n/a	n/a
15895	PROB	n/a	LTP283	ltpFR2	16	n/a	n/a	n/a	-1	14	6	3	5
18348	PROB	n/a	LTP283	ltpFR2	16	n/a	n/a	n/a	-1	16	6	1	9
19782	PROB	n/a	LTP283	ltpFR2	16	n/a	n/a	n/a	-1	13	3	4	6
21151	PROB	n/a	LTP283	ltpFR2	16	n/a	n/a	n/a	-1	17	9	6	2
23185	PROB	n/a	LTP283	ltpFR2	16	n/a	n/a	n/a	-1	21	8	8	5
24919	PROB	n/a	LTP283	ltpFR2	16	n/a	n/a	n/a	-1	21	9	4	8
26322	PROB	n/a	LTP283	ltpFR2	16	n/a	n/a	n/a	-1	10	3	5	2
27555	STOP	n/a	LTP283	ltpFR2	16	n/a	n/a	n/a	-1	n/a	n/a	n/a	n/a
63219	DISTRACTOR	n/a	LTP283	ltpFR2	16	1	n/a	n/a	n/a	n/a	0	0	0
63219	START	n/a	LTP283	ltpFR2	16	n/a	n/a	n/a	1	n/a	n/a	n/a	n/a
63284	PROB	n/a	LTP283	ltpFR2	16	n/a	n/a	n/a	1	9	6	2	1
64702	PROB	n/a	LTP283	ltpFR2	16	n/a	n/a	n/a	1	18	4	6	8
66120	PROB	n/a	LTP283	ltpFR2	16	n/a	n/a	n/a	1	13	3	7	3
67420	PROB	n/a	LTP283	ltpFR2	16	n/a	n/a	n/a	1	5	1	3	1
68571	PROB	n/a	LTP283	ltpFR2	16	n/a	n/a	n/a	1	13	2	4	7
70373	PROB	n/a	LTP283	ltpFR2	16	n/a	n/a	n/a	1	12	3	6	3
71890	PROB	n/a	LTP283	ltpFR2	16	n/a	n/a	n/a	1	20	6	8	6
73991	PROB	n/a	LTP283	ltpFR2	16	n/a	n/a	n/a	1	19	9	6	4
75783	PROB	n/a	LTP283	ltpFR2	16	n/a	n/a	n/a	1	20	7	6	7
77678	PROB	n/a	LTP283	ltpFR2	16	n/a	n/a	n/a	1	11	1	6	4
78962	PROB	n/a	LTP283	ltpFR2	16	n/a	n/a	n/a	1	15	1	5	9
80247	PROB	n/a	LTP283	ltpFR2	16	n/a	n/a	n/a	1	15	7	1	7
81798	PROB	n/a	LTP283	ltpFR2	16	n/a	n/a	n/a	1	18	7	7	4
83707	PROB	n/a	LTP283	ltpFR2	16	n/a	n/a	n/a	1	16	1	9	6
85375	PROB	n/a	LTP283	ltpFR2	16	n/a	n/a	n/a	1	11	4	1	6
86310	STOP	n/a	LTP283	ltpFR2	16	n/a	n/a	n/a	1	n/a	n/a	n/a	n/a
88405	WORD	wordpools/wasnorm_wordpool_576.txt	LTP283	ltpFR2	16	1	SADDLE	1221	n/a	n/a	0	0	0
91079	WORD	wordpools/wasnorm_wordpool_576.txt	LTP283	ltpFR2	16	1	DONKEY	484	n/a	n/a	0	0	0
93958	WORD	wordpools/wasnorm_wordpool_576.txt	LTP283	ltpFR2	16	1	ROOSTER	1209	n/a	n/a	0	0	0
96677	WORD	wordpools/wasnorm_wordpool_576.txt	LTP283	ltpFR2	16	1	TWIG	1527	n/a	n/a	0	0	0
99297	WORD	wordpools/wasnorm_wordpool_576.txt	LTP283	ltpFR2	16	1	STOVE	1388	n/a	n/a	0	0	0
101881	WORD	wordpools/wasnorm_wordpool_576.txt	LTP283	ltpFR2	16	1	COTTAGE	384	n/a	n/a	0	0	0
104576	WORD	wordpools/wasnorm_wordpool_576.txt	LTP283	ltpFR2	16	1	YOLK	1633	n/a	n/a	0	0	0
107286	WORD	wordpools/wasnorm_wordpool_576.txt	LTP283	ltpFR2	16	1	EGYPT	519	n/a	n/a	0	0	0
109988	WORD	wordpools/wasnorm_wordpool_576.txt	LTP283	ltpFR2	16	1	SPHINX	1349	n/a	n/a	0	0	0
112723	WORD	wordpools/wasnorm_wordpool_576.txt	LTP283	ltpFR2	16	1	SEAGULL	1261	n/a	n/a	0	0	0
115475	WORD	wordpools/wasnorm_wordpool_576.txt	LTP283	ltpFR2	16	1	APRON	35	n/a	n/a	0	0	0
118195	WORD	wordpools/wasnorm_wordpool_576.txt	LTP283	ltpFR2	16	1	ROD	1203	n/a	n/a	0	0	0
120830	WORD	wordpools/wasnorm_wordpool_576.txt	LTP283	ltpFR2	16	1	FEMALE	559	n/a	n/a	0	0	0
123522	WORD	wordpools/wasnorm_wordpool_576.txt	LTP283	ltpFR2	16	1	IDOL	733	n/a	n/a	0	0	0
126100	WORD	wordpools/wasnorm_wordpool_576.txt	LTP283	ltpFR2	16	1	HONEY	713	n/a	n/a	0	0	0
128953	WORD	wordpools/wasnorm_wordpool_576.txt	LTP283	ltpFR2	16	1	TWEEZERS	1526	n/a	n/a	0	0	0
131646	WORD	wordpools/wasnorm_wordpool_576.txt	LTP283	ltpFR2	16	1	GAVEL	627	n/a	n/a	0	0	0
134258	WORD	wordpools/wasnorm_wordpool_576.txt	LTP283	ltpFR2	16	1	PORK	1108	n/a	n/a	0	0	0
137093	WORD	wordpools/wasnorm_wordpool_576.txt	LTP283	ltpFR2	16	1	NOTEBOOK	959	n/a	n/a	0	0	0
139928	WORD	wordpools/wasnorm_wordpool_576.txt	LTP283	ltpFR2	16	1	RABBIT	1152	n/a	n/a	0	0	0
142547	WORD	wordpools/wasnorm_wordpool_576.txt	LTP283	ltpFR2	16	1	ROBIN	1199	n/a	n/a	0	0	0
145133	WORD	wordpools/wasnorm_wordpool_576.txt	LTP283	ltpFR2	16	1	FREEZER	604	n/a	n/a	0	0	0
147951	WORD	wordpools/wasnorm_wordpool_576.txt	LTP283	ltpFR2	16	1	CELLAR	267	n/a	n/a	0	0	0
150520	WORD	wordpools/wasnorm_wordpool_576.txt	LTP283	ltpFR2	16	1	HATCHET	691	n/a	n/a	0	0	0
152157	START	n/a	LTP283	ltpFR2	16	n/a	n/a	n/a	2	n/a	n/a	n/a	n/a
153127	DISTRACTOR	n/a	LTP283	ltpFR2	16	1	n/a	n/a	n/a	n/a	0	0	0
153198	PROB	n/a	LTP283	ltpFR2	16	n/a	n/a	n/a	2	18	5	6	7
155657	PROB	n/a	LTP283	ltpFR2	16	n/a	n/a	n/a	2	14	8	2	4
157025	PROB	n/a	LTP283	ltpFR2	16	n/a	n/a	n/a	2	17	7	8	2
158493	PROB	n/a	LTP283	ltpFR2	16	n/a	n/a	n/a	2	10	8	1	1
159771	PROB	n/a	LTP283	ltpFR2	16	n/a	n/a	n/a	2	13	3	9	1
161061	PROB	n/a	LTP283	ltpFR2	16	n/a	n/a	n/a	2	20	8	4	8
163264	PROB	n/a	LTP283	ltpFR2	16	n/a	n/a	n/a	2	21	3	9	9
164815	PROB	n/a	LTP283	ltpFR2	16	n/a	n/a	n/a	2	19	6	5	8
167335	PROB	n/a	LTP283	ltpFR2	16	n/a	n/a	n/a	2	15	4	9	2
169059	PROB	n/a	LTP283	ltpFR2	16	n/a	n/a	n/a	2	18	3	8	7
171086	PROB	n/a	LTP283	ltpFR2	16	n/a	n/a	n/a	2	15	1	6	8
172904	PROB	n/a	LTP283	ltpFR2	16	n/a	n/a	n/a	2	23	7	7	9
174506	PROB	n/a	LTP283	ltpFR2	16	n/a	n/a	n/a	2	12	3	1	8
175761	STOP	n/a	LTP283	ltpFR2	16	n/a	n/a	n/a	2	n/a	n/a	n/a	n/a
178176	REC_START	n/a	LTP283	ltpFR2	16	1	n/a	n/a	n/a	n/a	0	0	0
180001	REC_WORD	wordpools/wasnorm_wordpool_576.txt	LTP283	ltpFR2	16	1	SADDLE	1221	n/a	n/a	0	0	0
180732	REC_WORD	wordpools/wasnorm_wordpool_576.txt	LTP283	ltpFR2	16	1	DONKEY	484	n/a	n/a	0	0	0
181296	REC_WORD	wordpools/wasnorm_wordpool_576.txt	LTP283	ltpFR2	16	1	ROOSTER	1209	n/a	n/a	0	0	0
183080	REC_WORD	wordpools/wasnorm_wordpool_576.txt	LTP283	ltpFR2	16	1	COTTAGE	384	n/a	n/a	0	0	0
183492	REC_WORD	wordpools/wasnorm_wordpool_576.txt	LTP283	ltpFR2	16	1	STOVE	1388	n/a	n/a	0	0	0
184148	REC_WORD	wordpools/wasnorm_wordpool_576.txt	LTP283	ltpFR2	16	1	YOLK	1633	n/a	n/a	0	0	0
184773	REC_WORD	wordpools/wasnorm_wordpool_576.txt	LTP283	ltpFR2	16	1	APRON	35	n/a	n/a	0	0	0
185560	REC_WORD	wordpools/wasnorm_wordpool_576.txt	LTP283	ltpFR2	16	1	FEMALE	559	n/a	n/a	0	0	0
186093	REC_WORD	wordpools/wasnorm_wordpool_576.txt	LTP283	ltpFR2	16	1	ROD	1203	n/a	n/a	0	0	0
192945	REC_WORD	wordpools/wasnorm_wordpool_576.txt	LTP283	ltpFR2	16	1	PORK	1108	n/a	n/a	0	0	0
196550	REC_WORD	wordpools/wasnorm_wordpool_576.txt	LTP283	ltpFR2	16	1	RABBIT	1152	n/a	n/a	0	0	0
197030	REC_WORD	wordpools/wasnorm_wordpool_576.txt	LTP283	ltpFR2	16	1	ROBIN	1199	n/a	n/a	0	0	0
197634	REC_WORD	wordpools/wasnorm_wordpool_576.txt	LTP283	ltpFR2	16	1	FREEZER	604	n/a	n/a	0	0	0
198188	REC_WORD	wordpools/wasnorm_wordpool_576.txt	LTP283	ltpFR2	16	1	CELLAR	267	n/a	n/a	0	0	0
198699	REC_WORD	wordpools/wasnorm_wordpool_576.txt	LTP283	ltpFR2	16	1	HATCHET	691	n/a	n/a	0	0	0
203238	REC_WORD	wordpools/wasnorm_wordpool_576.txt	LTP283	ltpFR2	16	1	NOTEBOOK	959	n/a	n/a	0	0	0
205094	REC_WORD	wordpools/wasnorm_wordpool_576.txt	LTP283	ltpFR2	16	1	SEAGULL	1261	n/a	n/a	0	0	0
205965	REC_WORD	wordpools/wasnorm_wordpool_576.txt	LTP283	ltpFR2	16	1	TWEEZERS	1526	n/a	n/a	0	0	0
206717	REC_WORD	wordpools/wasnorm_wordpool_576.txt	LTP283	ltpFR2	16	1	HONEY	713	n/a	n/a	0	0	0
208112	REC_WORD	wordpools/wasnorm_wordpool_576.txt	LTP283	ltpFR2	16	1	EGYPT	519	n/a	n/a	0	0	0
208642	REC_WORD	wordpools/wasnorm_wordpool_576.txt	LTP283	ltpFR2	16	1	SPHINX	1349	n/a	n/a	0	0	0
214560	REC_WORD	wordpools/wasnorm_wordpool_576.txt	LTP283	ltpFR2	16	1	APRON	35	n/a	n/a	0	0	0
236145	REC_WORD	wordpools/wasnorm_wordpool_576.txt	LTP283	ltpFR2	16	1	FEMALE	559	n/a	n/a	0	0	0
269099	DISTRACTOR	n/a	LTP283	ltpFR2	16	2	n/a	n/a	n/a	n/a	0	0	0
269100	START	n/a	LTP283	ltpFR2	16	n/a	n/a	n/a	3	n/a	n/a	n/a	n/a
269166	PROB	n/a	LTP283	ltpFR2	16	n/a	n/a	n/a	3	11	3	7	1
270473	PROB	n/a	LTP283	ltpFR2	16	n/a	n/a	n/a	3	19	2	9	8
271767	PROB	n/a	LTP283	ltpFR2	16	n/a	n/a	n/a	3	1	3	3	9
273403	PROB	n/a	LTP283	ltpFR2	16	n/a	n/a	n/a	3	16	9	6	1
275036	PROB	n/a	LTP283	ltpFR2	16	n/a	n/a	n/a	3	6	2	1	3
276405	PROB	n/a	LTP283	ltpFR2	16	n/a	n/a	n/a	3	18	1	8	9
277889	PROB	n/a	LTP283	ltpFR2	16	n/a	n/a	n/a	3	19	9	2	8
279490	PROB	n/a	LTP283	ltpFR2	16	n/a	n/a	n/a	3	19	9	7	3
281075	PROB	n/a	LTP283	ltpFR2	16	n/a	n/a	n/a	3	12	7	3	2
282417	PROB	n/a	LTP283	ltpFR2	16	n/a	n/a	n/a	3	18	7	2	9
284212	PROB	n/a	LTP283	ltpFR2	16	n/a	n/a	n/a	3	18	4	5	9
285879	PROB	n/a	LTP283	ltpFR2	16	n/a	n/a	n/a	3	13	1	4	8
287879	PROB	n/a	LTP283	ltpFR2	16	n/a	n/a	n/a	3	10	5	2	3
290206	PROB	n/a	LTP283	ltpFR2	16	n/a	n/a	n/a	3	18	4	5	9
292318	STOP	n/a	LTP283	ltpFR2	16	n/a	n/a	n/a	3	n/a	n/a	n/a	n/a
294018	WORD	wordpools/wasnorm_wordpool_576.txt	LTP283	ltpFR2	16	2	ICEBERG	731	n/a	n/a	0	0	0
296771	WORD	wordpools/wasnorm_wordpool_576.txt	LTP283	ltpFR2	16	2	LOVER	846	n/a	n/a	0	0	0
299464	WORD	wordpools/wasnorm_wordpool_576.txt	LTP283	ltpFR2	16	2	CIGAR	308	n/a	n/a	0	0	0
302091	WORD	wordpools/wasnorm_wordpool_576.txt	LTP283	ltpFR2	16	2	ICING	732	n/a	n/a	0	0	0
304643	WORD	wordpools/wasnorm_wordpool_576.txt	LTP283	ltpFR2	16	2	LEADER	807	n/a	n/a	0	0	0
307320	WORD	wordpools/wasnorm_wordpool_576.txt	LTP283	ltpFR2	16	2	KLEENEX	782	n/a	n/a	0	0	0
309931	WORD	wordpools/wasnorm_wordpool_576.txt	LTP283	ltpFR2	16	2	BARREL	91	n/a	n/a	0	0	0
312717	WORD	wordpools/wasnorm_wordpool_576.txt	LTP283	ltpFR2	16	2	SALT	1229	n/a	n/a	0	0	0
315486	WORD	wordpools/wasnorm_wordpool_576.txt	LTP283	ltpFR2	16	2	ONION	977	n/a	n/a	0	0	0
318004	WORD	wordpools/wasnorm_wordpool_576.txt	LTP283	ltpFR2	16	2	BULLET	194	n/a	n/a	0	0	0
320622	WORD	wordpools/wasnorm_wordpool_576.txt	LTP283	ltpFR2	16	2	CAMEL	223	n/a	n/a	0	0	0
323343	WORD	wordpools/wasnorm_wordpool_576.txt	LTP283	ltpFR2	16	2	OZONE	996	n/a	n/a	0	0	0
326045	WORD	wordpools/wasnorm_wordpool_576.txt	LTP283	ltpFR2	16	2	COLONEL	348	n/a	n/a	0	0	0
328780	WORD	wordpools/wasnorm_wordpool_576.txt	LTP283	ltpFR2	16	2	PISTON	1076	n/a	n/a	0	0	0
331598	WORD	wordpools/wasnorm_wordpool_576.txt	LTP283	ltpFR2	16	2	SHOVEL	1295	n/a	n/a	0	0	0
334134	WORD	wordpools/wasnorm_wordpool_576.txt	LTP283	ltpFR2	16	2	TRUCK	1512	n/a	n/a	0	0	0
337002	WORD	wordpools/wasnorm_wordpool_576.txt	LTP283	ltpFR2	16	2	MOTOR	922	n/a	n/a	0	0	0
339754	WORD	wordpools/wasnorm_wordpool_576.txt	LTP283	ltpFR2	16	2	KIDNEY	776	n/a	n/a	0	0	0
342590	WORD	wordpools/wasnorm_wordpool_576.txt	LTP283	ltpFR2	16	2	SPOUSE	1358	n/a	n/a	0	0	0
345394	WORD	wordpools/wasnorm_wordpool_576.txt	LTP283	ltpFR2	16	2	HUMAN	726	n/a	n/a	0	0	0
348213	WORD	wordpools/wasnorm_wordpool_576.txt	LTP283	ltpFR2	16	2	POISON	1096	n/a	n/a	0	0	0
350814	WORD	wordpools/wasnorm_wordpool_576.txt	LTP283	ltpFR2	16	2	GRAVE	658	n/a	n/a	0	0	0
353633	WORD	wordpools/wasnorm_wordpool_576.txt	LTP283	ltpFR2	16	2	MASK	876	n/a	n/a	0	0	0
356310	WORD	wordpools/wasnorm_wordpool_576.txt	LTP283	ltpFR2	16	2	SALMON	1227	n/a	n/a	0	0	0
357954	START	n/a	LTP283	ltpFR2	16	n/a	n/a	n/a	4	n/a	n/a	n/a	n/a
358991	DISTRACTOR	n/a	LTP283	ltpFR2	16	2	n/a	n/a	n/a	n/a	0	0	0
359037	PROB	n/a	LTP283	ltpFR2	16	n/a	n/a	n/a	4	20	9	5	6
361323	PROB	n/a	LTP283	ltpFR2	16	n/a	n/a	n/a	4	14	2	6	6
363131	PROB	n/a	LTP283	ltpFR2	16	n/a	n/a	n/a	4	17	4	6	7
364658	PROB	n/a	LTP283	ltpFR2	16	n/a	n/a	n/a	4	10	1	3	6
365900	PROB	n/a	LTP283	ltpFR2	16	n/a	n/a	n/a	4	20	9	3	8
367262	PROB	n/a	LTP283	ltpFR2	16	n/a	n/a	n/a	4	11	4	5	2
368911	PROB	n/a	LTP283	ltpFR2	16	n/a	n/a	n/a	4	1	5	5	6
370213	PROB	n/a	LTP283	ltpFR2	16	n/a	n/a	n/a	4	21	7	9	5
374283	PROB	n/a	LTP283	ltpFR2	16	n/a	n/a	n/a	4	17	1	7	9
375951	PROB	n/a	LTP283	ltpFR2	16	n/a	n/a	n/a	4	2	9	3	9
377785	PROB	n/a	LTP283	ltpFR2	16	n/a	n/a	n/a	4	18	9	5	4
381954	STOP	n/a	LTP283	ltpFR2	16	n/a	n/a	n/a	4	n/a	n/a	n/a	n/a
383948	REC_START	n/a	LTP283	ltpFR2	16	2	n/a	n/a	n/a	n/a	0	0	0
384972	REC_WORD	wordpools/wasnorm_wordpool_576.txt	LTP283	ltpFR2	16	2	ICEBERG	731	n/a	n/a	0	0	0
385697	REC_WORD	wordpools/wasnorm_wordpool_576.txt	LTP283	ltpFR2	16	2	LOVER	846	n/a	n/a	0	0	0
390224	REC_WORD	wordpools/wasnorm_wordpool_576.txt	LTP283	ltpFR2	16	2	CIGAR	308	n/a	n/a	0	0	0
391753	REC_WORD	wordpools/wasnorm_wordpool_576.txt	LTP283	ltpFR2	16	2	ICING	732	n/a	n/a	0	0	0
396463	REC_WORD	wordpools/wasnorm_wordpool_576.txt	LTP283	ltpFR2	16	2	KLEENEX	782	n/a	n/a	0	0	0
397215	REC_WORD	wordpools/wasnorm_wordpool_576.txt	LTP283	ltpFR2	16	2	LEADER	807	n/a	n/a	0	0	0
398272	REC_WORD	wordpools/wasnorm_wordpool_576.txt	LTP283	ltpFR2	16	2	BARREL	91	n/a	n/a	0	0	0
401194	REC_WORD	wordpools/wasnorm_wordpool_576.txt	LTP283	ltpFR2	16	2	BULLET	194	n/a	n/a	0	0	0
401809	REC_WORD	wordpools/wasnorm_wordpool_576.txt	LTP283	ltpFR2	16	2	ONION	977	n/a	n/a	0	0	0
405190	REC_WORD	wordpools/wasnorm_wordpool_576.txt	LTP283	ltpFR2	16	2	CAMEL	223	n/a	n/a	0	0	0
405794	REC_WORD	wordpools/wasnorm_wordpool_576.txt	LTP283	ltpFR2	16	2	OZONE	996	n/a	n/a	0	0	0
410022	REC_WORD	wordpools/wasnorm_wordpool_576.txt	LTP283	ltpFR2	16	2	COLONEL	348	n/a	n/a	0	0	0
410658	REC_WORD	wordpools/wasnorm_wordpool_576.txt	LTP283	ltpFR2	16	2	PISTON	1076	n/a	n/a	0	0	0
416687	REC_WORD	wordpools/wasnorm_wordpool_576.txt	LTP283	ltpFR2	16	2	TRUCK	1512	n/a	n/a	0	0	0
417127	REC_WORD	wordpools/wasnorm_wordpool_576.txt	LTP283	ltpFR2	16	2	MOTOR	922	n/a	n/a	0	0	0
433966	REC_WORD	wordpools/wasnorm_wordpool_576.txt	LTP283	ltpFR2	16	2	KIDNEY	776	n/a	n/a	0	0	0
434491	REC_WORD	wordpools/wasnorm_wordpool_576.txt	LTP283	ltpFR2	16	2	HUMAN	726	n/a	n/a	0	0	0
436135	REC_WORD	wordpools/wasnorm_wordpool_576.txt	LTP283	ltpFR2	16	2	POISON	1096	n/a	n/a	0	0	0
439007	REC_WORD	wordpools/wasnorm_wordpool_576.txt	LTP283	ltpFR2	16	2	MASK	876	n/a	n/a	0	0	0
474947	WORD	wordpools/wasnorm_wordpool_576.txt	LTP283	ltpFR2	16	3	POLICE	1098	n/a	n/a	0	0	0
477548	WORD	wordpools/wasnorm_wordpool_576.txt	LTP283	ltpFR2	16	3	BADGE	68	n/a	n/a	0	0	0
480225	WORD	wordpools/wasnorm_wordpool_576.txt	LTP283	ltpFR2	16	3	BRICK	172	n/a	n/a	0	0	0
482986	WORD	wordpools/wasnorm_wordpool_576.txt	LTP283	ltpFR2	16	3	HORSE	719	n/a	n/a	0	0	0
485555	WORD	wordpools/wasnorm_wordpool_576.txt	LTP283	ltpFR2	16	3	SPARROW	1347	n/a	n/a	0	0	0
488090	WORD	wordpools/wasnorm_wordpool_576.txt	LTP283	ltpFR2	16	3	GALLON	618	n/a	n/a	0	0	0
490892	WORD	wordpools/wasnorm_wordpool_576.txt	LTP283	ltpFR2	16	3	AIRPORT	13	n/a	n/a	0	0	0
493678	WORD	wordpools/wasnorm_wordpool_576.txt	LTP283	ltpFR2	16	3	KEEPER	769	n/a	n/a	0	0	0
496397	WORD	wordpools/wasnorm_wordpool_576.txt	LTP283	ltpFR2	16	3	FOOTBALL	591	n/a	n/a	0	0	0
499091	WORD	wordpools/wasnorm_wordpool_576.txt	LTP283	ltpFR2	16	3	WHISTLE	1606	n/a	n/a	0	0	0
501635	WORD	wordpools/wasnorm_wordpool_576.txt	LTP283	ltpFR2	16	3	CORAL	378	n/a	n/a	0	0	0
504328	WORD	wordpools/wasnorm_wordpool_576.txt	LTP283	ltpFR2	16	3	SWAMP	1416	n/a	n/a	0	0	0
506839	WORD	wordpools/wasnorm_wordpool_576.txt	LTP283	ltpFR2	16	3	BUTCHER	203	n/a	n/a	0	0	0
509424	WORD	wordpools/wasnorm_wordpool_576.txt	LTP283	ltpFR2	16	3	SIDEWALK	1303	n/a	n/a	0	0	0
512177	WORD	wordpools/wasnorm_wordpool_576.txt	LTP283	ltpFR2	16	3	SNAKE	1333	n/a	n/a	0	0	0
514852	WORD	wordpools/wasnorm_wordpool_576.txt	LTP283	ltpFR2	16	3	HOSTESS	723	n/a	n/a	0	0	0
517564	WORD	wordpools/wasnorm_wordpool_576.txt	LTP283	ltpFR2	16	3	CHAUFFEUR	283	n/a	n/a	0	0	0
520367	WORD	wordpools/wasnorm_wordpool_576.txt	LTP283	ltpFR2	16	3	BIKE	125	n/a	n/a	0	0	0
523136	WORD	wordpools/wasnorm_wordpool_576.txt	LTP283	ltpFR2	16	3	SERVER	1272	n/a	n/a	0	0	0
525854	WORD	wordpools/wasnorm_wordpool_576.txt	LTP283	ltpFR2	16	3	POSSUM	1112	n/a	n/a	0	0	0
528623	WORD	wordpools/wasnorm_wordpool_576.txt	LTP283	ltpFR2	16	3	CITRUS	313	n/a	n/a	0	0	0
531300	WORD	wordpools/wasnorm_wordpool_576.txt	LTP283	ltpFR2	16	3	SHORTCAKE	1292	n/a	n/a	0	0	0
534060	WORD	wordpools/wasnorm_wordpool_576.txt	LTP283	ltpFR2	16	3	NIGHTGOWN	953	n/a	n/a	0	0	0
536580	WORD	wordpools/wasnorm_wordpool_576.txt	LTP283	ltpFR2	16	3	SUSPECT	1415	n/a	n/a	0	0	0
538216	START	n/a	LTP283	ltpFR2	16	n/a	n/a	n/a	5	n/a	n/a	n/a	n/a
539262	DISTRACTOR	n/a	LTP283	ltpFR2	16	3	n/a	n/a	n/a	n/a	0	0	0
539299	PROB	n/a	LTP283	ltpFR2	16	n/a	n/a	n/a	5	7	1	2	4
541833	PROB	n/a	LTP283	ltpFR2	16	n/a	n/a	n/a	5	11	2	1	8
543468	PROB	n/a	LTP283	ltpFR2	16	n/a	n/a	n/a	5	13	8	3	2
546354	PROB	n/a	LTP283	ltpFR2	16	n/a	n/a	n/a	5	12	2	2	8
548455	PROB	n/a	LTP283	ltpFR2	16	n/a	n/a	n/a	5	14	3	8	3
550408	PROB	n/a	LTP283	ltpFR2	16	n/a	n/a	n/a	5	18	7	8	3
552250	PROB	n/a	LTP283	ltpFR2	16	n/a	n/a	n/a	5	20	4	7	9
554200	PROB	n/a	LTP283	ltpFR2	16	n/a	n/a	n/a	5	18	6	5	7
555885	PROB	n/a	LTP283	ltpFR2	16	n/a	n/a	n/a	5	17	5	9	3
557512	PROB	n/a	LTP283	ltpFR2	16	n/a	n/a	n/a	5	1	3	7	4
562215	STOP	n/a	LTP283	ltpFR2	16	n/a	n/a	n/a	5	n/a	n/a	n/a	n/a
564194	REC_START	n/a	LTP283	ltpFR2	16	3	n/a	n/a	n/a	n/a	0	0	0
570581	REC_WORD	wordpools/wasnorm_wordpool_576.txt	LTP283	ltpFR2	16	3	SNAKE	1333	n/a	n/a	0	0	0
571578	REC_WORD	wordpools/wasnorm_wordpool_576.txt	LTP283	ltpFR2	16	3	BUTCHER	203	n/a	n/a	0	0	0
572031	REC_WORD	wordpools/wasnorm_wordpool_576.txt	LTP283	ltpFR2	16	3	SIDEWALK	1303	n/a	n/a	0	0	0
573139	REC_WORD	wordpools/wasnorm_wordpool_576.txt	LTP283	ltpFR2	16	3	POLICE	1098	n/a	n/a	0	0	0
573963	REC_WORD	wordpools/wasnorm_wordpool_576.txt	LTP283	ltpFR2	16	3	BADGE	68	n/a	n/a	0	0	0
580299	REC_WORD	wordpools/wasnorm_wordpool_576.txt	LTP283	ltpFR2	16	3	BRICK	172	n/a	n/a	0	0	0
580801	REC_WORD	wordpools/wasnorm_wordpool_576.txt	LTP283	ltpFR2	16	3	SPARROW	1347	n/a	n/a	0	0	0
581742	REC_WORD	wordpools/wasnorm_wordpool_576.txt	LTP283	ltpFR2	16	3	GALLON	618	n/a	n/a	0	0	0
583005	REC_WORD	wordpools/wasnorm_wordpool_576.txt	LTP283	ltpFR2	16	3	KEEPER	769	n/a	n/a	0	0	0
584616	REC_WORD	wordpools/wasnorm_wordpool_576.txt	LTP283	ltpFR2	16	3	AIRPORT	13	n/a	n/a	0	0	0
585194	REC_WORD	wordpools/wasnorm_wordpool_576.txt	LTP283	ltpFR2	16	3	CHAUFFEUR	283	n/a	n/a	0	0	0
585950	REC_WORD	wordpools/wasnorm_wordpool_576.txt	LTP283	ltpFR2	16	3	HOSTESS	723	n/a	n/a	0	0	0
586646	REC_WORD	wordpools/wasnorm_wordpool_576.txt	LTP283	ltpFR2	16	3	SERVER	1272	n/a	n/a	0	0	0
587749	REC_WORD	wordpools/wasnorm_wordpool_576.txt	LTP283	ltpFR2	16	3	BIKE	125	n/a	n/a	0	0	0
655175	WORD	wordpools/wasnorm_wordpool_576.txt	LTP283	ltpFR2	16	4	ORANGE	980	n/a	n/a	0	0	0
657743	WORD	wordpools/wasnorm_wordpool_576.txt	LTP283	ltpFR2	16	4	CARROT	249	n/a	n/a	0	0	0
660312	WORD	wordpools/wasnorm_wordpool_576.txt	LTP283	ltpFR2	16	4	QUEEN	1149	n/a	n/a	0	0	0
663097	WORD	wordpools/wasnorm_wordpool_576.txt	LTP283	ltpFR2	16	4	WORLD	1622	n/a	n/a	0	0	0
665683	WORD	wordpools/wasnorm_wordpool_576.txt	LTP283	ltpFR2	16	4	MARS	873	n/a	n/a	0	0	0
668169	WORD	wordpools/wasnorm_wordpool_576.txt	LTP283	ltpFR2	16	4	LOFT	840	n/a	n/a	0	0	0
670653	WORD	wordpools/wasnorm_wordpool_576.txt	LTP283	ltpFR2	16	4	ZEBRA	1635	n/a	n/a	0	0	0
673330	WORD	wordpools/wasnorm_wordpool_576.txt	LTP283	ltpFR2	16	4	BRAKE	166	n/a	n/a	0	0	0
675891	WORD	wordpools/wasnorm_wordpool_576.txt	LTP283	ltpFR2	16	4	PECAN	1036	n/a	n/a	0	0	0
678742	WORD	wordpools/wasnorm_wordpool_576.txt	LTP283	ltpFR2	16	4	MESSAGE	888	n/a	n/a	0	0	0
681528	WORD	wordpools/wasnorm_wordpool_576.txt	LTP283	ltpFR2	16	4	RAZOR	1171	n/a	n/a	0	0	0
684223	WORD	wordpools/wasnorm_wordpool_576.txt	LTP283	ltpFR2	16	4	PREACHER	1119	n/a	n/a	0	0	0
686924	WORD	wordpools/wasnorm_wordpool_576.txt	LTP283	ltpFR2	16	4	TABLET	1427	n/a	n/a	0	0	0
689608	WORD	wordpools/wasnorm_wordpool_576.txt	LTP283	ltpFR2	16	4	WHISKERS	1605	n/a	n/a	0	0	0
692371	WORD	wordpools/wasnorm_wordpool_576.txt	LTP283	ltpFR2	16	4	PERFUME	1049	n/a	n/a	0	0	0
694889	WORD	wordpools/wasnorm_wordpool_576.txt	LTP283	ltpFR2	16	4	SURVEY	1414	n/a	n/a	0	0	0
697591	WORD	wordpools/wasnorm_wordpool_576.txt	LTP283	ltpFR2	16	4	CRAB	397	n/a	n/a	0	0	0
700294	WORD	wordpools/wasnorm_wordpool_576.txt	LTP283	ltpFR2	16	4	STALLION	1369	n/a	n/a	0	0	0
702912	WORD	wordpools/wasnorm_wordpool_576.txt	LTP283	ltpFR2	16	4	GRIZZLY	662	n/a	n/a	0	0	0
705698	WORD	wordpools/wasnorm_wordpool_576.txt	LTP283	ltpFR2	16	4	SHELF	1280	n/a	n/a	0	0	0
708392	WORD	wordpools/wasnorm_wordpool_576.txt	LTP283	ltpFR2	16	4	BINDER	127	n/a	n/a	0	0	0
711220	WORD	wordpools/wasnorm_wordpool_576.txt	LTP283	ltpFR2	16	4	SHERIFF	1284	n/a	n/a	0	0	0
713938	WORD	wordpools/wasnorm_wordpool_576.txt	LTP283	ltpFR2	16	4	FRAGRANCE	599	n/a	n/a	0	0	0
716690	WORD	wordpools/wasnorm_wordpool_576.txt	LTP283	ltpFR2	16	4	HOOK	715	n/a	n/a	0	0	0
718326	START	n/a	LTP283	ltpFR2	16	n/a	n/a	n/a	6	n/a	n/a	n/a	n/a
719421	DISTRACTOR	n/a	LTP283	ltpFR2	16	4	n/a	n/a	n/a	n/a	0	0	0
719458	PROB	n/a	LTP283	ltpFR2	16	n/a	n/a	n/a	6	25	9	9	7
724364	PROB	n/a	LTP283	ltpFR2	16	n/a	n/a	n/a	6	6	3	1	3
725680	PROB	n/a	LTP283	ltpFR2	16	n/a	n/a	n/a	6	15	6	5	4
727899	PROB	n/a	LTP283	ltpFR2	16	n/a	n/a	n/a	6	13	6	3	4
729318	PROB	n/a	LTP283	ltpFR2	16	n/a	n/a	n/a	6	10	1	3	6
730684	PROB	n/a	LTP283	ltpFR2	16	n/a	n/a	n/a	6	19	7	4	8
733570	PROB	n/a	LTP283	ltpFR2	16	n/a	n/a	n/a	6	20	6	9	5
735289	PROB	n/a	LTP283	ltpFR2	16	n/a	n/a	n/a	6	10	5	2	3
736763	PROB	n/a	LTP283	ltpFR2	16	n/a	n/a	n/a	6	19	3	8	8
738624	PROB	n/a	LTP283	ltpFR2	16	n/a	n/a	n/a	6	17	1	8	8
740193	PROB	n/a	LTP283	ltpFR2	16	n/a	n/a	n/a	6	4	2	1	1
741224	STOP	n/a	LTP283	ltpFR2	16	n/a	n/a	n/a	6	n/a	n/a	n/a	n/a
744221	REC_START	n/a	LTP283	ltpFR2	16	4	n/a	n/a	n/a	n/a	0	0	0
747465	REC_WORD	wordpools/wasnorm_wordpool_576.txt	LTP283	ltpFR2	16	4	GRIZZLY	662	n/a	n/a	0	0	0
748092	REC_WORD	wordpools/wasnorm_wordpool_576.txt	LTP283	ltpFR2	16	4	FRAGRANCE	599	n/a	n/a	0	0	0
749092	REC_WORD_VV	wordpools/wasnorm_wordpool_576.txt	LTP283	ltpFR2	16	4	<>	-1	n/a	n/a	0	0	0
749559	REC_WORD	wordpools/wasnorm_wordpool_576.txt	LTP283	ltpFR2	16	4	PERFUME	1049	n/a	n/a	0	0	0
752226	REC_WORD	wordpools/wasnorm_wordpool_576.txt	LTP283	ltpFR2	16	4	MARS	873	n/a	n/a	0	0	0
752821	REC_WORD	wordpools/wasnorm_wordpool_576.txt	LTP283	ltpFR2	16	4	QUEEN	1149	n/a	n/a	0	0	0
754129	REC_WORD	wordpools/wasnorm_wordpool_576.txt	LTP283	ltpFR2	16	4	WORLD	1622	n/a	n/a	0	0	0
755871	REC_WORD	wordpools/wasnorm_wordpool_576.txt	LTP283	ltpFR2	16	4	CARROT	249	n/a	n/a	0	0	0
756461	REC_WORD	wordpools/wasnorm_wordpool_576.txt	LTP283	ltpFR2	16	4	ORANGE	980	n/a	n/a	0	0	0
835186	DISTRACTOR	n/a	LTP283	ltpFR2	16	5	n/a	n/a	n/a	n/a	0	0	0
835186	START	n/a	LTP283	ltpFR2	16	n/a	n/a	n/a	7	n/a	n/a	n/a	n/a
835252	PROB	n/a	LTP283	ltpFR2	16	n/a	n/a	n/a	7	14	2	9	3
836986	PROB	n/a	LTP283	ltpFR2	16	n/a	n/a	n/a	7	14	5	6	3
839172	PROB	n/a	LTP283	ltpFR2	16	n/a	n/a	n/a	7	6	1	4	1
840479	PROB	n/a	LTP283	ltpFR2	16	n/a	n/a	n/a	7	24	9	9	6
842292	PROB	n/a	LTP283	ltpFR2	16	n/a	n/a	n/a	7	12	3	8	1
843674	PROB	n/a	LTP283	ltpFR2	16	n/a	n/a	n/a	7	25	9	7	9
845860	PROB	n/a	LTP283	ltpFR2	16	n/a	n/a	n/a	7	18	9	3	6
847795	PROB	n/a	LTP283	ltpFR2	16	n/a	n/a	n/a	7	11	4	2	5
850030	PROB	n/a	LTP283	ltpFR2	16	n/a	n/a	n/a	7	16	6	2	8
851648	PROB	n/a	LTP283	ltpFR2	16	n/a	n/a	n/a	7	18	8	4	6
853099	PROB	n/a	LTP283	ltpFR2	16	n/a	n/a	n/a	7	20	3	8	9
854500	PROB	n/a	LTP283	ltpFR2	16	n/a	n/a	n/a	7	11	7	1	3
855768	PROB	n/a	LTP283	ltpFR2	16	n/a	n/a	n/a	7	13	7	4	2
857520	PROB	n/a	LTP283	ltpFR2	16	n/a	n/a	n/a	7	16	2	8	6
858818	STOP	n/a	LTP283	ltpFR2	16	n/a	n/a	n/a	7	n/a	n/a	n/a	n/a
860189	WORD	wordpools/wasnorm_wordpool_576.txt	LTP283	ltpFR2	16	5	PUDDING	1139	n/a	n/a	0	0	0
862924	WORD	wordpools/wasnorm_wordpool_576.txt	LTP283	ltpFR2	16	5	COFFEE	341	n/a	n/a	0	0	0
865742	WORD	wordpools/wasnorm_wordpool_576.txt	LTP283	ltpFR2	16	5	TRANSPLANT	1496	n/a	n/a	0	0	0
868445	WORD	wordpools/wasnorm_wordpool_576.txt	LTP283	ltpFR2	16	5	CHAPEL	280	n/a	n/a	0	0	0
871138	WORD	wordpools/wasnorm_wordpool_576.txt	LTP283	ltpFR2	16	5	BISON	131	n/a	n/a	0	0	0
873766	WORD	wordpools/wasnorm_wordpool_576.txt	LTP283	ltpFR2	16	5	MOP	916	n/a	n/a	0	0	0
876457	WORD	wordpools/wasnorm_wordpool_576.txt	LTP283	ltpFR2	16	5	KNIFE	785	n/a	n/a	0	0	0
879020	WORD	wordpools/wasnorm_wordpool_576.txt	LTP283	ltpFR2	16	5	SCALPEL	1243	n/a	n/a	0	0	0
881505	WORD	wordpools/wasnorm_wordpool_576.txt	LTP283	ltpFR2	16	5	TURTLE	1522	n/a	n/a	0	0	0
884182	WORD	wordpools/wasnorm_wordpool_576.txt	LTP283	ltpFR2	16	5	SLUG	1329	n/a	n/a	0	0	0
886910	WORD	wordpools/wasnorm_wordpool_576.txt	LTP283	ltpFR2	16	5	SWORD	1423	n/a	n/a	0	0	0
889602	WORD	wordpools/wasnorm_wordpool_576.txt	LTP283	ltpFR2	16	5	CHEMIST	292	n/a	n/a	0	0	0
892480	WORD	wordpools/wasnorm_wordpool_576.txt	LTP283	ltpFR2	16	5	BALLOON	75	n/a	n/a	0	0	0
895351	WORD	wordpools/wasnorm_wordpool_576.txt	LTP283	ltpFR2	16	5	TILE	1468	n/a	n/a	0	0	0
897985	WORD	wordpools/wasnorm_wordpool_576.txt	LTP283	ltpFR2	16	5	LONDON	843	n/a	n/a	0	0	0
900788	WORD	wordpools/wasnorm_wordpool_576.txt	LTP283	ltpFR2	16	5	DRILL	497	n/a	n/a	0	0	0
903290	WORD	wordpools/wasnorm_wordpool_576.txt	LTP283	ltpFR2	16	5	PICTURE	1061	n/a	n/a	0	0	0
905983	WORD	wordpools/wasnorm_wordpool_576.txt	LTP283	ltpFR2	16	5	PARSLEY	1016	n/a	n/a	0	0	0
908594	WORD	wordpools/wasnorm_wordpool_576.txt	LTP283	ltpFR2	16	5	SHRUB	1299	n/a	n/a	0	0	0
911330	WORD	wordpools/wasnorm_wordpool_576.txt	LTP283	ltpFR2	16	5	SPOOL	1356	n/a	n/a	0	0	0
914065	WORD	wordpools/wasnorm_wordpool_576.txt	LTP283	ltpFR2	16	5	PALACE	1006	n/a	n/a	0	0	0
916884	WORD	wordpools/wasnorm_wordpool_576.txt	LTP283	ltpFR2	16	5	PRINCE	1124	n/a	n/a	0	0	0
919669	WORD	wordpools/wasnorm_wordpool_576.txt	LTP283	ltpFR2	16	5	PROTON	1132	n/a	n/a	0	0	0
922305	WORD	wordpools/wasnorm_wordpool_576.txt	LTP283	ltpFR2	16	5	ZIPPER	1636	n/a	n/a	0	0	0
923940	START	n/a	LTP283	ltpFR2	16	n/a	n/a	n/a	8	n/a	n/a	n/a	n/a
925046	DISTRACTOR	n/a	LTP283	ltpFR2	16	5	n/a	n/a	n/a	n/a	0	0	0
925090	PROB	n/a	LTP283	ltpFR2	16	n/a	n/a	n/a	8	15	5	7	3
927041	PROB	n/a	LTP283	ltpFR2	16	n/a	n/a	n/a	8	9	3	4	2
929194	PROB	n/a	LTP283	ltpFR2	16	n/a	n/a	n/a	8	14	5	2	7
931061	PROB	n/a	LTP283	ltpFR2	16	n/a	n/a	n/a	8	13	1	7	5
933255	PROB	n/a	LTP283	ltpFR2	16	n/a	n/a	n/a	8	18	8	2	8
934664	PROB	n/a	LTP283	ltpFR2	16	n/a	n/a	n/a	8	7	5	1	1
935949	PROB	n/a	LTP283	ltpFR2	16	n/a	n/a	n/a	8	13	8	4	1
937600	PROB	n/a	LTP283	ltpFR2	16	n/a	n/a	n/a	8	16	7	5	4
939635	PROB	n/a	LTP283	ltpFR2	16	n/a	n/a	n/a	8	12	5	5	2
941019	PROB	n/a	LTP283	ltpFR2	16	n/a	n/a	n/a	8	16	5	4	7
943921	PROB	n/a	LTP283	ltpFR2	16	n/a	n/a	n/a	8	16	6	1	9
947430	STOP	n/a	LTP283	ltpFR2	16	n/a	n/a	n/a	8	n/a	n/a	n/a	n/a
950002	REC_START	n/a	LTP283	ltpFR2	16	5	n/a	n/a	n/a	n/a	0	0	0
954289	REC_WORD	wordpools/wasnorm_wordpool_576.txt	LTP283	ltpFR2	16	5	BALLOON	75	n/a	n/a	0	0	0
955399	REC_WORD	wordpools/wasnorm_wordpool_576.txt	LTP283	ltpFR2	16	5	TILE	1468	n/a	n/a	0	0	0
1040917	DISTRACTOR	n/a	LTP283	ltpFR2	16	6	n/a	n/a	n/a	n/a	0	0	0
1040917	START	n/a	LTP283	ltpFR2	16	n/a	n/a	n/a	9	n/a	n/a	n/a	n/a
1040983	PROB	n/a	LTP283	ltpFR2	16	n/a	n/a	n/a	9	1	2	6	8
1042575	PROB	n/a	LTP283	ltpFR2	16	n/a	n/a	n/a	9	15	5	6	4
1045060	PROB	n/a	LTP283	ltpFR2	16	n/a	n/a	n/a	9	9	4	1	4
1046572	PROB	n/a	LTP283	ltpFR2	16	n/a	n/a	n/a	9	11	5	2	4
1048538	PROB	n/a	LTP283	ltpFR2	16	n/a	n/a	n/a	9	14	7	6	1
1050131	PROB	n/a	LTP283	ltpFR2	16	n/a	n/a	n/a	9	14	8	2	4
1052009	PROB	n/a	LTP283	ltpFR2	16	n/a	n/a	n/a	9	13	7	1	5
1053766	PROB	n/a	LTP283	ltpFR2	16	n/a	n/a	n/a	9	6	2	1	3
1055112	PROB	n/a	LTP283	ltpFR2	16	n/a	n/a	n/a	9	7	2	2	3
1057896	PROB	n/a	LTP283	ltpFR2	16	n/a	n/a	n/a	9	13	8	3	2
1059514	PROB	n/a	LTP283	ltpFR2	16	n/a	n/a	n/a	9	9	1	2	6
1061150	PROB	n/a	LTP283	ltpFR2	16	n/a	n/a	n/a	9	16	1	6	9
1062767	PROB	n/a	LTP283	ltpFR2	16	n/a	n/a	n/a	9	5	2	1	3
1064219	STOP	n/a	LTP283	ltpFR2	16	n/a	n/a	n/a	9	n/a	n/a	n/a	n/a
1066086	WORD	wordpools/wasnorm_wordpool_576.txt	LTP283	ltpFR2	16	6	FOX	598	n/a	n/a	0	0	0
1068655	WORD	wordpools/wasnorm_wordpool_576.txt	LTP283	ltpFR2	16	6	TOASTER	1472	n/a	n/a	0	0	0
1071507	WORD	wordpools/wasnorm_wordpool_576.txt	LTP283	ltpFR2	16	6	SILK	1307	n/a	n/a	0	0	0
1074210	WORD	wordpools/wasnorm_wordpool_576.txt	LTP283	ltpFR2	16	6	CROSS	413	n/a	n/a	0	0	0
1076902	WORD	wordpools/wasnorm_wordpool_576.txt	LTP283	ltpFR2	16	6	GRAVEL	659	n/a	n/a	0	0	0
1079614	WORD	wordpools/wasnorm_wordpool_576.txt	LTP283	ltpFR2	16	6	VELVET	1555	n/a	n/a	0	0	0
1082334	WORD	wordpools/wasnorm_wordpool_576.txt	LTP283	ltpFR2	16	6	BATHTUB	100	n/a	n/a	0	0	0
1085136	WORD	wordpools/wasnorm_wordpool_576.txt	LTP283	ltpFR2	16	6	FRUIT	610	n/a	n/a	0	0	0
1087753	WORD	wordpools/wasnorm_wordpool_576.txt	LTP283	ltpFR2	16	6	APPLE	33	n/a	n/a	0	0	0
1090539	WORD	wordpools/wasnorm_wordpool_576.txt	LTP283	ltpFR2	16	6	SKETCH	1315	n/a	n/a	0	0	0
1093342	WORD	wordpools/wasnorm_wordpool_576.txt	LTP283	ltpFR2	16	6	HOOD	714	n/a	n/a	0	0	0
1096178	WORD	wordpools/wasnorm_wordpool_576.txt	LTP283	ltpFR2	16	6	COIN	343	n/a	n/a	0	0	0
1098853	WORD	wordpools/wasnorm_wordpool_576.txt	LTP283	ltpFR2	16	6	FLESH	579	n/a	n/a	0	0	0
1101398	WORD	wordpools/wasnorm_wordpool_576.txt	LTP283	ltpFR2	16	6	BOARD	143	n/a	n/a	0	0	0
1104217	WORD	wordpools/wasnorm_wordpool_576.txt	LTP283	ltpFR2	16	6	RACKET	1155	n/a	n/a	0	0	0
1107035	WORD	wordpools/wasnorm_wordpool_576.txt	LTP283	ltpFR2	16	6	SOFTBALL	1343	n/a	n/a	0	0	0
1109728	WORD	wordpools/wasnorm_wordpool_576.txt	LTP283	ltpFR2	16	6	FRECKLE	602	n/a	n/a	0	0	0
1112573	WORD	wordpools/wasnorm_wordpool_576.txt	LTP283	ltpFR2	16	6	POWDER	1117	n/a	n/a	0	0	0
1115177	WORD	wordpools/wasnorm_wordpool_576.txt	LTP283	ltpFR2	16	6	DIME	466	n/a	n/a	0	0	0
1117778	WORD	wordpools/wasnorm_wordpool_576.txt	LTP283	ltpFR2	16	6	JURY	766	n/a	n/a	0	0	0
1120414	WORD	wordpools/wasnorm_wordpool_576.txt	LTP283	ltpFR2	16	6	VALVE	1546	n/a	n/a	0	0	0
1122915	WORD	wordpools/wasnorm_wordpool_576.txt	LTP283	ltpFR2	16	6	OINTMENT	974	n/a	n/a	0	0	0
1125685	WORD	wordpools/wasnorm_wordpool_576.txt	LTP283	ltpFR2	16	6	COURSE	390	n/a	n/a	0	0	0
1128387	WORD	wordpools/wasnorm_wordpool_576.txt	LTP283	ltpFR2	16	6	GREASE	660	n/a	n/a	0	0	0
1130022	START	n/a	LTP283	ltpFR2	16	n/a	n/a	n/a	10	n/a	n/a	n/a	n/a
1131142	DISTRACTOR	n/a	LTP283	ltpFR2	16	6	n/a	n/a	n/a	n/a	0	0	0
1131190	PROB	n/a	LTP283	ltpFR2	16	n/a	n/a	n/a	10	19	5	7	7
1133674	PROB	n/a	LTP283	ltpFR2	16	n/a	n/a	n/a	10	16	5	5	6
1135041	PROB	n/a	LTP283	ltpFR2	16	n/a	n/a	n/a	10	11	4	6	1
1136360	PROB	n/a	LTP283	ltpFR2	16	n/a	n/a	n/a	10	17	9	1	7
1137951	PROB	n/a	LTP283	ltpFR2	16	n/a	n/a	n/a	10	18	3	9	6
1139929	PROB	n/a	LTP283	ltpFR2	16	n/a	n/a	n/a	10	18	9	5	4
1141614	PROB	n/a	LTP283	ltpFR2	16	n/a	n/a	n/a	10	1	6	1	5
1142897	PROB	n/a	LTP283	ltpFR2	16	n/a	n/a	n/a	10	13	2	2	9
1144834	PROB	n/a	LTP283	ltpFR2	16	n/a	n/a	n/a	10	9	2	3	4
1147651	PROB	n/a	LTP283	ltpFR2	16	n/a	n/a	n/a	10	16	4	8	4
1149502	PROB	n/a	LTP283	ltpFR2	16	n/a	n/a	n/a	10	12	3	1	8
1154022	STOP	n/a	LTP283	ltpFR2	16	n/a	n/a	n/a	10	n/a	n/a	n/a	n/a
1155984	REC_START	n/a	LTP283	ltpFR2	16	6	n/a	n/a	n/a	n/a	0	0	0
1184253	REC_WORD	wordpools/wasnorm_wordpool_576.txt	LTP283	ltpFR2	16	6	FRUIT	610	n/a	n/a	0	0	0
1185315	REC_WORD	wordpools/wasnorm_wordpool_576.txt	LTP283	ltpFR2	16	6	APPLE	33	n/a	n/a	0	0	0
1211331	REC_WORD	wordpools/wasnorm_wordpool_576.txt	LTP283	ltpFR2	16	6	BATHTUB	100	n/a	n/a	0	0	0
1246981	WORD	wordpools/wasnorm_wordpool_576.txt	LTP283	ltpFR2	16	7	DENTIST	447	n/a	n/a	0	0	0
1249799	WORD	wordpools/wasnorm_wordpool_576.txt	LTP283	ltpFR2	16	7	LADDER	793	n/a	n/a	0	0	0
1252552	WORD	wordpools/wasnorm_wordpool_576.txt	LTP283	ltpFR2	16	7	VALLEY	1545	n/a	n/a	0	0	0
1255421	WORD	wordpools/wasnorm_wordpool_576.txt	LTP283	ltpFR2	16	7	THIEF	1456	n/a	n/a	0	0	0
1258207	WORD	wordpools/wasnorm_wordpool_576.txt	LTP283	ltpFR2	16	7	DAUGHTER	442	n/a	n/a	0	0	0
1260692	WORD	wordpools/wasnorm_wordpool_576.txt	LTP283	ltpFR2	16	7	GARLIC	624	n/a	n/a	0	0	0
1263194	WORD	wordpools/wasnorm_wordpool_576.txt	LTP283	ltpFR2	16	7	LUNCH	849	n/a	n/a	0	0	0
1265730	WORD	wordpools/wasnorm_wordpool_576.txt	LTP283	ltpFR2	16	7	SLIME	1327	n/a	n/a	0	0	0
1268514	WORD	wordpools/wasnorm_wordpool_576.txt	LTP283	ltpFR2	16	7	CRIB	407	n/a	n/a	0	0	0
1271017	WORD	wordpools/wasnorm_wordpool_576.txt	LTP283	ltpFR2	16	7	RATTLE	1170	n/a	n/a	0	0	0
1273693	WORD	wordpools/wasnorm_wordpool_576.txt	LTP283	ltpFR2	16	7	STICKER	1382	n/a	n/a	0	0	0
1276439	WORD	wordpools/wasnorm_wordpool_576.txt	LTP283	ltpFR2	16	7	SUPPER	1411	n/a	n/a	0	0	0
1278923	WORD	wordpools/wasnorm_wordpool_576.txt	LTP283	ltpFR2	16	7	NURSE	963	n/a	n/a	0	0	0
1281759	WORD	wordpools/wasnorm_wordpool_576.txt	LTP283	ltpFR2	16	7	GIFT	635	n/a	n/a	0	0	0
1284345	WORD	wordpools/wasnorm_wordpool_576.txt	LTP283	ltpFR2	16	7	COOK	372	n/a	n/a	0	0	0
1286863	WORD	wordpools/wasnorm_wordpool_576.txt	LTP283	ltpFR2	16	7	KETCHUP	771	n/a	n/a	0	0	0
1289698	WORD	wordpools/wasnorm_wordpool_576.txt	LTP283	ltpFR2	16	7	TRIBE	1505	n/a	n/a	0	0	0
1292402	WORD	wordpools/wasnorm_wordpool_576.txt	LTP283	ltpFR2	16	7	PLASTER	1085	n/a	n/a	0	0	0
1295237	WORD	wordpools/wasnorm_wordpool_576.txt	LTP283	ltpFR2	16	7	PILOT	1070	n/a	n/a	0	0	0
1298005	WORD	wordpools/wasnorm_wordpool_576.txt	LTP283	ltpFR2	16	7	SWIMMER	1420	n/a	n/a	0	0	0
1300574	WORD	wordpools/wasnorm_wordpool_576.txt	LTP283	ltpFR2	16	7	STREAM	1392	n/a	n/a	0	0	0
1303294	WORD	wordpools/wasnorm_wordpool_576.txt	LTP283	ltpFR2	16	7	PATIENT	1024	n/a	n/a	0	0	0
1306112	WORD	wordpools/wasnorm_wordpool_576.txt	LTP283	ltpFR2	16	7	SKILLET	1317	n/a	n/a	0	0	0
1308614	WORD	wordpools/wasnorm_wordpool_576.txt	LTP283	ltpFR2	16	7	CLOUD	328	n/a	n/a	0	0	0
1310250	START	n/a	LTP283	ltpFR2	16	n/a	n/a	n/a	11	n/a	n/a	n/a	n/a
1311408	DISTRACTOR	n/a	LTP283	ltpFR2	16	7	n/a	n/a	n/a	n/a	0	0	0
1311449	PROB	n/a	LTP283	ltpFR2	16	n/a	n/a	n/a	11	10	4	1	5
1312967	PROB	n/a	LTP283	ltpFR2	16	n/a	n/a	n/a	11	19	8	3	8
1314751	PROB	n/a	LTP283	ltpFR2	16	n/a	n/a	n/a	11	13	1	5	7
1316904	PROB	n/a	LTP283	ltpFR2	16	n/a	n/a	n/a	11	21	4	9	8
1318722	PROB	n/a	LTP283	ltpFR2	16	n/a	n/a	n/a	11	10	2	7	1
1320456	PROB	n/a	LTP283	ltpFR2	16	n/a	n/a	n/a	11	14	2	8	4
1322058	PROB	n/a	LTP283	ltpFR2	16	n/a	n/a	n/a	11	19	7	3	9
1323534	PROB	n/a	LTP283	ltpFR2	16	n/a	n/a	n/a	11	18	9	5	4
1325278	PROB	n/a	LTP283	ltpFR2	16	n/a	n/a	n/a	11	12	3	7	2
1327044	PROB	n/a	LTP283	ltpFR2	16	n/a	n/a	n/a	11	14	1	4	9
1328553	PROB	n/a	LTP283	ltpFR2	16	n/a	n/a	n/a	11	14	4	4	6
1330115	PROB	n/a	LTP283	ltpFR2	16	n/a	n/a	n/a	11	20	9	9	2
1331589	PROB	n/a	LTP283	ltpFR2	16	n/a	n/a	n/a	11	12	7	4	1
1332916	STOP	n/a	LTP283	ltpFR2	16	n/a	n/a	n/a	11	n/a	n/a	n/a	n/a
1336312	REC_START	n/a	LTP283	ltpFR2	16	7	n/a	n/a	n/a	n/a	0	0	0
1339118	REC_WORD	wordpools/wasnorm_wordpool_576.txt	LTP283	ltpFR2	16	7	NURSE	963	n/a	n/a	0	0	0
1339939	REC_WORD	wordpools/wasnorm_wordpool_576.txt	LTP283	ltpFR2	16	7	PATIENT	1024	n/a	n/a	0	0	0
1397888	REC_WORD	wordpools/wasnorm_wordpool_576.txt	LTP283	ltpFR2	16	7	SWIMMER	1420	n/a	n/a	0	0	0
1398677	REC_WORD	wordpools/wasnorm_wordpool_576.txt	LTP283	ltpFR2	16	7	STREAM	1392	n/a	n/a	0	0	0
1427310	WORD	wordpools/wasnorm_wordpool_576.txt	LTP283	ltpFR2	16	8	INFANT	737	n/a	n/a	0	0	0
1430061	WORD	wordpools/wasnorm_wordpool_576.txt	LTP283	ltpFR2	16	8	LUGGAGE	847	n/a	n/a	0	0	0
1432754	WORD	wordpools/wasnorm_wordpool_576.txt	LTP283	ltpFR2	16	8	KNAPSACK	783	n/a	n/a	0	0	0
1435549	WORD	wordpools/wasnorm_wordpool_576.txt	LTP283	ltpFR2	16	8	BUNNY	198	n/a	n/a	0	0	0
1438185	WORD	wordpools/wasnorm_wordpool_576.txt	LTP283	ltpFR2	16	8	TORTOISE	1486	n/a	n/a	0	0	0
1441036	WORD	wordpools/wasnorm_wordpool_576.txt	LTP283	ltpFR2	16	8	GANGSTER	620	n/a	n/a	0	0	0
1443855	WORD	wordpools/wasnorm_wordpool_576.txt	LTP283	ltpFR2	16	8	SISTER	1312	n/a	n/a	0	0	0
1446531	WORD	wordpools/wasnorm_wordpool_576.txt	LTP283	ltpFR2	16	8	AGENT	10	n/a	n/a	0	0	0
1449261	WORD	wordpools/wasnorm_wordpool_576.txt	LTP283	ltpFR2	16	8	PLAYGROUND	1087	n/a	n/a	0	0	0
1451954	WORD	wordpools/wasnorm_wordpool_576.txt	LTP283	ltpFR2	16	8	ROBOT	1200	n/a	n/a	0	0	0
1454664	WORD	wordpools/wasnorm_wordpool_576.txt	LTP283	ltpFR2	16	8	COLLEGE	346	n/a	n/a	0	0	0
1457150	WORD	wordpools/wasnorm_wordpool_576.txt	LTP283	ltpFR2	16	8	SCOTCH	1251	n/a	n/a	0	0	0
1459935	WORD	wordpools/wasnorm_wordpool_576.txt	LTP283	ltpFR2	16	8	MUSTARD	935	n/a	n/a	0	0	0
1462554	WORD	wordpools/wasnorm_wordpool_576.txt	LTP283	ltpFR2	16	8	EMPIRE	530	n/a	n/a	0	0	0
1465373	WORD	wordpools/wasnorm_wordpool_576.txt	LTP283	ltpFR2	16	8	BEEF	113	n/a	n/a	0	0	0
1468109	WORD	wordpools/wasnorm_wordpool_576.txt	LTP283	ltpFR2	16	8	PANTHER	1009	n/a	n/a	0	0	0
1470694	WORD	wordpools/wasnorm_wordpool_576.txt	LTP283	ltpFR2	16	8	QUARTER	1148	n/a	n/a	0	0	0
1473513	WORD	wordpools/wasnorm_wordpool_576.txt	LTP283	ltpFR2	16	8	BANK	83	n/a	n/a	0	0	0
1476216	WORD	wordpools/wasnorm_wordpool_576.txt	LTP283	ltpFR2	16	8	COCKTAIL	338	n/a	n/a	0	0	0
1478733	WORD	wordpools/wasnorm_wordpool_576.txt	LTP283	ltpFR2	16	8	FOREST	593	n/a	n/a	0	0	0
1481336	WORD	wordpools/wasnorm_wordpool_576.txt	LTP283	ltpFR2	16	8	BUGGY	188	n/a	n/a	0	0	0
1484105	WORD	wordpools/wasnorm_wordpool_576.txt	LTP283	ltpFR2	16	8	BACKBONE	66	n/a	n/a	0	0	0
1486623	WORD	wordpools/wasnorm_wordpool_576.txt	LTP283	ltpFR2	16	8	LIVER	833	n/a	n/a	0	0	0
1489492	WORD	wordpools/wasnorm_wordpool_576.txt	LTP283	ltpFR2	16	8	TERMITE	1451	n/a	n/a	0	0	0
1491128	START	n/a	LTP283	ltpFR2	16	n/a	n/a	n/a	12	n/a	n/a	n/a	n/a
1492252	DISTRACTOR	n/a	LTP283	ltpFR2	16	8	n/a	n/a	n/a	n/a	0	0	0
1492295	PROB	n/a	LTP283	ltpFR2	16	n/a	n/a	n/a	12	17	2	9	6
1495830	PROB	n/a	LTP283	ltpFR2	16	n/a	n/a	n/a	12	22	7	7	8
1498974	PROB	n/a	LTP283	ltpFR2	16	n/a	n/a	n/a	12	20	7	9	4
1500500	PROB	n/a	LTP283	ltpFR2	16	n/a	n/a	n/a	12	12	4	3	5
1502542	PROB	n/a	LTP283	ltpFR2	16	n/a	n/a	n/a	12	18	4	8	6
1504254	PROB	n/a	LTP283	ltpFR2	16	n/a	n/a	n/a	12	13	3	6	4
1506039	PROB	n/a	LTP283	ltpFR2	16	n/a	n/a	n/a	12	17	3	5	9
1508073	PROB	n/a	LTP283	ltpFR2	16	n/a	n/a	n/a	12	14	4	1	9
1509701	PROB	n/a	LTP283	ltpFR2	16	n/a	n/a	n/a	12	18	9	8	1
1511351	PROB	n/a	LTP283	ltpFR2	16	n/a	n/a	n/a	12	13	2	7	4
1513494	PROB	n/a	LTP283	ltpFR2	16	n/a	n/a	n/a	12	18	3	7	8
1514971	STOP	n/a	LTP283	ltpFR2	16	n/a	n/a	n/a	12	n/a	n/a	n/a	n/a
1517274	REC_START	n/a	LTP283	ltpFR2	16	8	n/a	n/a	n/a	n/a	0	0	0
1524767	REC_WORD	wordpools/wasnorm_wordpool_576.txt	LTP283	ltpFR2	16	8	INFANT	737	n/a	n/a	0	0	0
1527332	REC_WORD	wordpools/wasnorm_wordpool_576.txt	LTP283	ltpFR2	16	8	GANGSTER	620	n/a	n/a	0	0	0
1528012	REC_WORD	wordpools/wasnorm_wordpool_576.txt	LTP283	ltpFR2	16	8	SISTER	1312	n/a	n/a	0	0	0
1529620	REC_WORD	wordpools/wasnorm_wordpool_576.txt	LTP283	ltpFR2	16	8	MUSTARD	935	n/a	n/a	0	0	0
1530287	REC_WORD	wordpools/wasnorm_wordpool_576.txt	LTP283	ltpFR2	16	8	ROBOT	1200	n/a	n/a	0	0	0
1532665	REC_WORD	wordpools/wasnorm_wordpool_576.txt	LTP283	ltpFR2	16	8	SCOTCH	1251	n/a	n/a	0	0	0
1533587	REC_WORD	wordpools/wasnorm_wordpool_576.txt	LTP283	ltpFR2	16	8	COLLEGE	346	n/a	n/a	0	0	0
1593884	REST_REWET	n/a	LTP283	ltpFR2	16	8	n/a	n/a	n/a	n/a	0	0	0
1939119	WORD	wordpools/wasnorm_wordpool_576.txt	LTP283	ltpFR2	16	9	MAMMAL	861	n/a	n/a	0	0	0
1941704	WORD	wordpools/wasnorm_wordpool_576.txt	LTP283	ltpFR2	16	9	BRIEFCASE	175	n/a	n/a	0	0	0
1944340	WORD	wordpools/wasnorm_wordpool_576.txt	LTP283	ltpFR2	16	9	REPORT	1184	n/a	n/a	0	0	0
1947209	WORD	wordpools/wasnorm_wordpool_576.txt	LTP283	ltpFR2	16	9	SODA	1341	n/a	n/a	0	0	0
1949743	WORD	wordpools/wasnorm_wordpool_576.txt	LTP283	ltpFR2	16	9	HUSBAND	728	n/a	n/a	0	0	0
1952562	WORD	wordpools/wasnorm_wordpool_576.txt	LTP283	ltpFR2	16	9	TUBA	1515	n/a	n/a	0	0	0
1955265	WORD	wordpools/wasnorm_wordpool_576.txt	LTP283	ltpFR2	16	9	DRIVER	499	n/a	n/a	0	0	0
1957800	WORD	wordpools/wasnorm_wordpool_576.txt	LTP283	ltpFR2	16	9	TAXI	1438	n/a	n/a	0	0	0
1960602	WORD	wordpools/wasnorm_wordpool_576.txt	LTP283	ltpFR2	16	9	CASHEW	253	n/a	n/a	0	0	0
1963138	WORD	wordpools/wasnorm_wordpool_576.txt	LTP283	ltpFR2	16	9	LION	827	n/a	n/a	0	0	0
1965639	WORD	wordpools/wasnorm_wordpool_576.txt	LTP283	ltpFR2	16	9	GUITAR	670	n/a	n/a	0	0	0
1968225	WORD	wordpools/wasnorm_wordpool_576.txt	LTP283	ltpFR2	16	9	OMELET	976	n/a	n/a	0	0	0
1970743	WORD	wordpools/wasnorm_wordpool_576.txt	LTP283	ltpFR2	16	9	WARDROBE	1587	n/a	n/a	0	0	0
1973495	WORD	wordpools/wasnorm_wordpool_576.txt	LTP283	ltpFR2	16	9	WAGON	1578	n/a	n/a	0	0	0
1976172	WORD	wordpools/wasnorm_wordpool_576.txt	LTP283	ltpFR2	16	9	LAGOON	795	n/a	n/a	0	0	0
1978699	WORD	wordpools/wasnorm_wordpool_576.txt	LTP283	ltpFR2	16	9	SUNSET	1408	n/a	n/a	0	0	0
1981418	WORD	wordpools/wasnorm_wordpool_576.txt	LTP283	ltpFR2	16	9	NOMAD	955	n/a	n/a	0	0	0
1983987	WORD	wordpools/wasnorm_wordpool_576.txt	LTP283	ltpFR2	16	9	TOURIST	1488	n/a	n/a	0	0	0
1986680	WORD	wordpools/wasnorm_wordpool_576.txt	LTP283	ltpFR2	16	9	SERVANT	1271	n/a	n/a	0	0	0
1989372	WORD	wordpools/wasnorm_wordpool_576.txt	LTP283	ltpFR2	16	9	PIGMENT	1066	n/a	n/a	0	0	0
1992228	WORD	wordpools/wasnorm_wordpool_576.txt	LTP283	ltpFR2	16	9	ANKLE	24	n/a	n/a	0	0	0
1994846	WORD	wordpools/wasnorm_wordpool_576.txt	LTP283	ltpFR2	16	9	COWBOY	395	n/a	n/a	0	0	0
1997549	WORD	wordpools/wasnorm_wordpool_576.txt	LTP283	ltpFR2	16	9	JELLY	755	n/a	n/a	0	0	0
2000067	WORD	wordpools/wasnorm_wordpool_576.txt	LTP283	ltpFR2	16	9	DRINK	498	n/a	n/a	0	0	0
2001702	START	n/a	LTP283	ltpFR2	16	n/a	n/a	n/a	13	n/a	n/a	n/a	n/a
2002586	DISTRACTOR	n/a	LTP283	ltpFR2	16	9	n/a	n/a	n/a	n/a	0	0	0
2002635	PROB	n/a	LTP283	ltpFR2	16	n/a	n/a	n/a	13	20	9	7	4
2005105	PROB	n/a	LTP283	ltpFR2	16	n/a	n/a	n/a	13	12	4	2	6
2006488	PROB	n/a	LTP283	ltpFR2	16	n/a	n/a	n/a	13	8	1	3	4
2008141	PROB	n/a	LTP283	ltpFR2	16	n/a	n/a	n/a	13	8	1	5	2
2009608	PROB	n/a	LTP283	ltpFR2	16	n/a	n/a	n/a	13	11	3	1	7
2010775	PROB	n/a	LTP283	ltpFR2	16	n/a	n/a	n/a	13	7	3	3	1
2012144	PROB	n/a	LTP283	ltpFR2	16	n/a	n/a	n/a	13	20	3	8	9
2013577	PROB	n/a	LTP283	ltpFR2	16	n/a	n/a	n/a	13	20	6	5	9
2014946	PROB	n/a	LTP283	ltpFR2	16	n/a	n/a	n/a	13	15	2	8	5
2016463	PROB	n/a	LTP283	ltpFR2	16	n/a	n/a	n/a	13	15	5	3	7
2018682	PROB	n/a	LTP283	ltpFR2	16	n/a	n/a	n/a	13	1	1	7	5
2025702	STOP	n/a	LTP283	ltpFR2	16	n/a	n/a	n/a	13	n/a	n/a	n/a	n/a
2027798	REC_START	n/a	LTP283	ltpFR2	16	9	n/a	n/a	n/a	n/a	0	0	0
2030389	REC_WORD	wordpools/wasnorm_wordpool_576.txt	LTP283	ltpFR2	16	9	HUSBAND	728	n/a	n/a	0	0	0
2031099	REC_WORD	wordpools/wasnorm_wordpool_576.txt	LTP283	ltpFR2	16	9	SODA	1341	n/a	n/a	0	0	0
2031721	REC_WORD	wordpools/wasnorm_wordpool_576.txt	LTP283	ltpFR2	16	9	MAMMAL	861	n/a	n/a	0	0	0
2032341	REC_WORD	wordpools/wasnorm_wordpool_576.txt	LTP283	ltpFR2	16	9	BRIEFCASE	175	n/a	n/a	0	0	0
2033192	REC_WORD	wordpools/wasnorm_wordpool_576.txt	LTP283	ltpFR2	16	9	REPORT	1184	n/a	n/a	0	0	0
2037450	REC_WORD	wordpools/wasnorm_wordpool_576.txt	LTP283	ltpFR2	16	9	TUBA	1515	n/a	n/a	0	0	0
2041766	REC_WORD	wordpools/wasnorm_wordpool_576.txt	LTP283	ltpFR2	16	9	CASHEW	253	n/a	n/a	0	0	0
2042351	REC_WORD	wordpools/wasnorm_wordpool_576.txt	LTP283	ltpFR2	16	9	LION	827	n/a	n/a	0	0	0
2043986	REC_WORD	wordpools/wasnorm_wordpool_576.txt	LTP283	ltpFR2	16	9	DRIVER	499	n/a	n/a	0	0	0
2045994	REC_WORD	wordpools/wasnorm_wordpool_576.txt	LTP283	ltpFR2	16	9	TAXI	1438	n/a	n/a	0	0	0
2052336	REC_WORD	wordpools/wasnorm_wordpool_576.txt	LTP283	ltpFR2	16	9	WAGON	1578	n/a	n/a	0	0	0
2052961	REC_WORD	wordpools/wasnorm_wordpool_576.txt	LTP283	ltpFR2	16	9	GUITAR	670	n/a	n/a	0	0	0
2053574	REC_WORD	wordpools/wasnorm_wordpool_576.txt	LTP283	ltpFR2	16	9	LAGOON	795	n/a	n/a	0	0	0
2054128	REC_WORD	wordpools/wasnorm_wordpool_576.txt	LTP283	ltpFR2	16	9	SUNSET	1408	n/a	n/a	0	0	0
2054908	REC_WORD	wordpools/wasnorm_wordpool_576.txt	LTP283	ltpFR2	16	9	LION	827	n/a	n/a	0	0	0
2064165	REC_WORD	wordpools/wasnorm_wordpool_576.txt	LTP283	ltpFR2	16	9	COWBOY	395	n/a	n/a	0	0	0
2065009	REC_WORD	wordpools/wasnorm_wordpool_576.txt	LTP283	ltpFR2	16	9	JELLY	755	n/a	n/a	0	0	0
2065450	REC_WORD	wordpools/wasnorm_wordpool_576.txt	LTP283	ltpFR2	16	9	SERVANT	1271	n/a	n/a	0	0	0
2066128	REC_WORD	wordpools/wasnorm_wordpool_576.txt	LTP283	ltpFR2	16	9	ANKLE	24	n/a	n/a	0	0	0
2066617	REC_WORD	wordpools/wasnorm_wordpool_576.txt	LTP283	ltpFR2	16	9	PIGMENT	1066	n/a	n/a	0	0	0
2067891	REC_WORD	wordpools/wasnorm_wordpool_576.txt	LTP283	ltpFR2	16	9	NOMAD	955	n/a	n/a	0	0	0
2068562	REC_WORD	wordpools/wasnorm_wordpool_576.txt	LTP283	ltpFR2	16	9	TOURIST	1488	n/a	n/a	0	0	0
2118795	WORD	wordpools/wasnorm_wordpool_576.txt	LTP283	ltpFR2	16	10	CRATER	400	n/a	n/a	0	0	0
2121471	WORD	wordpools/wasnorm_wordpool_576.txt	LTP283	ltpFR2	16	10	COUNTRY	388	n/a	n/a	0	0	0
2124142	WORD	wordpools/wasnorm_wordpool_576.txt	LTP283	ltpFR2	16	10	JAPAN	749	n/a	n/a	0	0	0
2127002	WORD	wordpools/wasnorm_wordpool_576.txt	LTP283	ltpFR2	16	10	GRILL	661	n/a	n/a	0	0	0
2129537	WORD	wordpools/wasnorm_wordpool_576.txt	LTP283	ltpFR2	16	10	HAWK	692	n/a	n/a	0	0	0
2132056	WORD	wordpools/wasnorm_wordpool_576.txt	LTP283	ltpFR2	16	10	PUPPY	1144	n/a	n/a	0	0	0
2134859	WORD	wordpools/wasnorm_wordpool_576.txt	LTP283	ltpFR2	16	10	GLOVE	642	n/a	n/a	0	0	0
2137728	WORD	wordpools/wasnorm_wordpool_576.txt	LTP283	ltpFR2	16	10	CANYON	235	n/a	n/a	0	0	0
2140463	WORD	wordpools/wasnorm_wordpool_576.txt	LTP283	ltpFR2	16	10	SCARECROW	1245	n/a	n/a	0	0	0
2143139	WORD	wordpools/wasnorm_wordpool_576.txt	LTP283	ltpFR2	16	10	CUSTARD	429	n/a	n/a	0	0	0
2145917	WORD	wordpools/wasnorm_wordpool_576.txt	LTP283	ltpFR2	16	10	HIKER	708	n/a	n/a	0	0	0
2148686	WORD	wordpools/wasnorm_wordpool_576.txt	LTP283	ltpFR2	16	10	CROWN	415	n/a	n/a	0	0	0
2151222	WORD	wordpools/wasnorm_wordpool_576.txt	LTP283	ltpFR2	16	10	DONOR	485	n/a	n/a	0	0	0
2154073	WORD	wordpools/wasnorm_wordpool_576.txt	LTP283	ltpFR2	16	10	STOMACH	1384	n/a	n/a	0	0	0
2156659	WORD	wordpools/wasnorm_wordpool_576.txt	LTP283	ltpFR2	16	10	PLAID	1080	n/a	n/a	0	0	0
2159528	WORD	wordpools/wasnorm_wordpool_576.txt	LTP283	ltpFR2	16	10	CONCERT	360	n/a	n/a	0	0	0
2162046	WORD	wordpools/wasnorm_wordpool_576.txt	LTP283	ltpFR2	16	10	DOUGHNUT	490	n/a	n/a	0	0	0
2164832	WORD	wordpools/wasnorm_wordpool_576.txt	LTP283	ltpFR2	16	10	HAND	683	n/a	n/a	0	0	0
2167418	WORD	wordpools/wasnorm_wordpool_576.txt	LTP283	ltpFR2	16	10	HANDBAG	684	n/a	n/a	0	0	0
2169903	WORD	wordpools/wasnorm_wordpool_576.txt	LTP283	ltpFR2	16	10	POCKET	1093	n/a	n/a	0	0	0
2172688	WORD	wordpools/wasnorm_wordpool_576.txt	LTP283	ltpFR2	16	10	YARN	1631	n/a	n/a	0	0	0
2175275	WORD	wordpools/wasnorm_wordpool_576.txt	LTP283	ltpFR2	16	10	PAPER	1011	n/a	n/a	0	0	0
2177776	WORD	wordpools/wasnorm_wordpool_576.txt	LTP283	ltpFR2	16	10	MATTRESS	879	n/a	n/a	0	0	0
2180478	WORD	wordpools/wasnorm_wordpool_576.txt	LTP283	ltpFR2	16	10	BLADE	134	n/a	n/a	0	0	0
2182114	START	n/a	LTP283	ltpFR2	16	n/a	n/a	n/a	14	n/a	n/a	n/a	n/a
2182976	DISTRACTOR	n/a	LTP283	ltpFR2	16	10	n/a	n/a	n/a	n/a	0	0	0
2183014	PROB	n/a	LTP283	ltpFR2	16	n/a	n/a	n/a	14	10	5	1	4
2184631	PROB	n/a	LTP283	ltpFR2	16	n/a	n/a	n/a	14	12	1	4	7
2186082	PROB	n/a	LTP283	ltpFR2	16	n/a	n/a	n/a	14	11	1	3	7
2187368	PROB	n/a	LTP283	ltpFR2	16	n/a	n/a	n/a	14	14	5	6	3
2189601	PROB	n/a	LTP283	ltpFR2	16	n/a	n/a	n/a	14	10	4	4	2
2191003	PROB	n/a	LTP283	ltpFR2	16	n/a	n/a	n/a	14	17	1	9	7
2192470	PROB	n/a	LTP283	ltpFR2	16	n/a	n/a	n/a	14	13	5	4	4
2194223	PROB	n/a	LTP283	ltpFR2	16	n/a	n/a	n/a	14	16	5	6	5
2195707	PROB	n/a	LTP283	ltpFR2	16	n/a	n/a	n/a	14	12	2	8	2
2197599	PROB	n/a	LTP283	ltpFR2	16	n/a	n/a	n/a	14	17	8	7	2
2199893	PROB	n/a	LTP283	ltpFR2	16	n/a	n/a	n/a	14	13	5	4	4
2202397	PROB	n/a	LTP283	ltpFR2	16	n/a	n/a	n/a	14	11	1	6	4
2203713	PROB	n/a	LTP283	ltpFR2	16	n/a	n/a	n/a	14	17	8	6	3
2205429	STOP	n/a	LTP283	ltpFR2	16	n/a	n/a	n/a	14	n/a	n/a	n/a	n/a
2208127	REC_START	n/a	LTP283	ltpFR2	16	10	n/a	n/a	n/a	n/a	0	0	0
2209588	REC_WORD	wordpools/wasnorm_wordpool_576.txt	LTP283	ltpFR2	16	10	PUPPY	1144	n/a	n/a	0	0	0
2210262	REC_WORD	wordpools/wasnorm_wordpool_576.txt	LTP283	ltpFR2	16	10	GLOVE	642	n/a	n/a	0	0	0
2210690	REC_WORD	wordpools/wasnorm_wordpool_576.txt	LTP283	ltpFR2	16	10	HAND	683	n/a	n/a	0	0	0
2211294	REC_WORD	wordpools/wasnorm_wordpool_576.txt	LTP283	ltpFR2	16	10	YARN	1631	n/a	n/a	0	0	0
2215320	REC_WORD	wordpools/wasnorm_wordpool_576.txt	LTP283	ltpFR2	16	10	CROWN	415	n/a	n/a	0	0	0
2215861	REC_WORD	wordpools/wasnorm_wordpool_576.txt	LTP283	ltpFR2	16	10	CRATER	400	n/a	n/a	0	0	0
2216348	REC_WORD	wordpools/wasnorm_wordpool_576.txt	LTP283	ltpFR2	16	10	COUNTRY	388	n/a	n/a	0	0	0
2216812	REC_WORD	wordpools/wasnorm_wordpool_576.txt	LTP283	ltpFR2	16	10	JAPAN	749	n/a	n/a	0	0	0
2218759	REC_WORD	wordpools/wasnorm_wordpool_576.txt	LTP283	ltpFR2	16	10	HAWK	692	n/a	n/a	0	0	0
2222905	REC_WORD	wordpools/wasnorm_wordpool_576.txt	LTP283	ltpFR2	16	10	POCKET	1093	n/a	n/a	0	0	0
2223349	REC_WORD	wordpools/wasnorm_wordpool_576.txt	LTP283	ltpFR2	16	10	HAND	683	n/a	n/a	0	0	0
2223757	REC_WORD	wordpools/wasnorm_wordpool_576.txt	LTP283	ltpFR2	16	10	GLOVE	642	n/a	n/a	0	0	0
2224204	REC_WORD	wordpools/wasnorm_wordpool_576.txt	LTP283	ltpFR2	16	10	HANDBAG	684	n/a	n/a	0	0	0
2228430	REC_WORD	wordpools/wasnorm_wordpool_576.txt	LTP283	ltpFR2	16	10	DONOR	485	n/a	n/a	0	0	0
2229243	REC_WORD	wordpools/wasnorm_wordpool_576.txt	LTP283	ltpFR2	16	10	CONCERT	360	n/a	n/a	0	0	0
2232687	REC_WORD	wordpools/wasnorm_wordpool_576.txt	LTP283	ltpFR2	16	10	CANYON	235	n/a	n/a	0	0	0
2233145	REC_WORD	wordpools/wasnorm_wordpool_576.txt	LTP283	ltpFR2	16	10	SCARECROW	1245	n/a	n/a	0	0	0
2233984	REC_WORD	wordpools/wasnorm_wordpool_576.txt	LTP283	ltpFR2	16	10	CUSTARD	429	n/a	n/a	0	0	0
2263906	REC_WORD	wordpools/wasnorm_wordpool_576.txt	LTP283	ltpFR2	16	10	HIKER	708	n/a	n/a	0	0	0
2299057	DISTRACTOR	n/a	LTP283	ltpFR2	16	11	n/a	n/a	n/a	n/a	0	0	0
2299057	START	n/a	LTP283	ltpFR2	16	n/a	n/a	n/a	15	n/a	n/a	n/a	n/a
2299125	PROB	n/a	LTP283	ltpFR2	16	n/a	n/a	n/a	15	15	3	7	5
2300591	PROB	n/a	LTP283	ltpFR2	16	n/a	n/a	n/a	15	16	6	9	1
2302098	PROB	n/a	LTP283	ltpFR2	16	n/a	n/a	n/a	15	11	3	7	1
2303643	PROB	n/a	LTP283	ltpFR2	16	n/a	n/a	n/a	15	17	5	6	6
2305295	PROB	n/a	LTP283	ltpFR2	16	n/a	n/a	n/a	15	11	3	1	7
2306553	PROB	n/a	LTP283	ltpFR2	16	n/a	n/a	n/a	15	13	3	4	6
2308164	PROB	n/a	LTP283	ltpFR2	16	n/a	n/a	n/a	15	6	3	2	1
2309605	PROB	n/a	LTP283	ltpFR2	16	n/a	n/a	n/a	15	8	5	1	2
2311082	PROB	n/a	LTP283	ltpFR2	16	n/a	n/a	n/a	15	15	6	2	7
2313784	PROB	n/a	LTP283	ltpFR2	16	n/a	n/a	n/a	15	9	6	1	2
2315220	PROB	n/a	LTP283	ltpFR2	16	n/a	n/a	n/a	15	1	5	3	8
2317738	PROB	n/a	LTP283	ltpFR2	16	n/a	n/a	n/a	15	13	2	8	3
2323057	STOP	n/a	LTP283	ltpFR2	16	n/a	n/a	n/a	15	n/a	n/a	n/a	n/a
2324076	WORD	wordpools/wasnorm_wordpool_576.txt	LTP283	ltpFR2	16	11	ULCER	1533	n/a	n/a	0	0	0
2326879	WORD	wordpools/wasnorm_wordpool_576.txt	LTP283	ltpFR2	16	11	BELLY	119	n/a	n/a	0	0	0
2329365	WORD	wordpools/wasnorm_wordpool_576.txt	LTP283	ltpFR2	16	11	WRIST	1626	n/a	n/a	0	0	0
2331866	WORD	wordpools/wasnorm_wordpool_576.txt	LTP283	ltpFR2	16	11	PLATE	1086	n/a	n/a	0	0	0
2334418	WORD	wordpools/wasnorm_wordpool_576.txt	LTP283	ltpFR2	16	11	PIGEON	1065	n/a	n/a	0	0	0
2337271	WORD	wordpools/wasnorm_wordpool_576.txt	LTP283	ltpFR2	16	11	PASTA	1021	n/a	n/a	0	0	0
2339755	WORD	wordpools/wasnorm_wordpool_576.txt	LTP283	ltpFR2	16	11	AWARD	63	n/a	n/a	0	0	0
2342448	WORD	wordpools/wasnorm_wordpool_576.txt	LTP283	ltpFR2	16	11	BRACES	164	n/a	n/a	0	0	0
2345278	WORD	wordpools/wasnorm_wordpool_576.txt	LTP283	ltpFR2	16	11	RIFLE	1192	n/a	n/a	0	0	0
2347795	WORD	wordpools/wasnorm_wordpool_576.txt	LTP283	ltpFR2	16	11	SPOON	1357	n/a	n/a	0	0	0
2350615	WORD	wordpools/wasnorm_wordpool_576.txt	LTP283	ltpFR2	16	11	CAFE	216	n/a	n/a	0	0	0
2353150	WORD	wordpools/wasnorm_wordpool_576.txt	LTP283	ltpFR2	16	11	WITNESS	1618	n/a	n/a	0	0	0
2355702	WORD	wordpools/wasnorm_wordpool_576.txt	LTP283	ltpFR2	16	11	OUTDOORS	987	n/a	n/a	0	0	0
2358454	WORD	wordpools/wasnorm_wordpool_576.txt	LTP283	ltpFR2	16	11	BOX	159	n/a	n/a	0	0	0
2361022	WORD	wordpools/wasnorm_wordpool_576.txt	LTP283	ltpFR2	16	11	ROBBER	1197	n/a	n/a	0	0	0
2363641	WORD	wordpools/wasnorm_wordpool_576.txt	LTP283	ltpFR2	16	11	HORNET	718	n/a	n/a	0	0	0
2366427	WORD	wordpools/wasnorm_wordpool_576.txt	LTP283	ltpFR2	16	11	STAMP	1370	n/a	n/a	0	0	0
2369104	WORD	wordpools/wasnorm_wordpool_576.txt	LTP283	ltpFR2	16	11	STAKE	1368	n/a	n/a	0	0	0
2371715	WORD	wordpools/wasnorm_wordpool_576.txt	LTP283	ltpFR2	16	11	MARINE	869	n/a	n/a	0	0	0
2374234	WORD	wordpools/wasnorm_wordpool_576.txt	LTP283	ltpFR2	16	11	CANAL	226	n/a	n/a	0	0	0
2376936	WORD	wordpools/wasnorm_wordpool_576.txt	LTP283	ltpFR2	16	11	CUPBOARD	425	n/a	n/a	0	0	0
2379454	WORD	wordpools/wasnorm_wordpool_576.txt	LTP283	ltpFR2	16	11	PERMIT	1051	n/a	n/a	0	0	0
2382056	WORD	wordpools/wasnorm_wordpool_576.txt	LTP283	ltpFR2	16	11	BUBBLE	183	n/a	n/a	0	0	0
2384775	WORD	wordpools/wasnorm_wordpool_576.txt	LTP283	ltpFR2	16	11	FINGER	567	n/a	n/a	0	0	0
2386412	START	n/a	LTP283	ltpFR2	16	n/a	n/a	n/a	16	n/a	n/a	n/a	n/a
2387586	DISTRACTOR	n/a	LTP283	ltpFR2	16	11	n/a	n/a	n/a	n/a	0	0	0
2387628	PROB	n/a	LTP283	ltpFR2	16	n/a	n/a	n/a	16	10	4	3	3
2389512	PROB	n/a	LTP283	ltpFR2	16	n/a	n/a	n/a	16	16	9	4	3
2391964	PROB	n/a	LTP283	ltpFR2	16	n/a	n/a	n/a	16	9	4	1	4
2393349	PROB	n/a	LTP283	ltpFR2	16	n/a	n/a	n/a	16	25	8	9	8
2395184	PROB	n/a	LTP283	ltpFR2	16	n/a	n/a	n/a	16	12	3	3	6
2397135	PROB	n/a	LTP283	ltpFR2	16	n/a	n/a	n/a	16	19	4	7	8
2398936	PROB	n/a	LTP283	ltpFR2	16	n/a	n/a	n/a	16	19	6	6	7
2401755	PROB	n/a	LTP283	ltpFR2	16	n/a	n/a	n/a	16	14	6	7	1
2404275	PROB	n/a	LTP283	ltpFR2	16	n/a	n/a	n/a	16	6	3	1	2
2405542	PROB	n/a	LTP283	ltpFR2	16	n/a	n/a	n/a	16	20	8	4	8
2407092	PROB	n/a	LTP283	ltpFR2	16	n/a	n/a	n/a	16	13	5	4	4
2409142	STOP	n/a	LTP283	ltpFR2	16	n/a	n/a	n/a	16	n/a	n/a	n/a	n/a
2412456	REC_START	n/a	LTP283	ltpFR2	16	11	n/a	n/a	n/a	n/a	0	0	0
2414839	REC_WORD	wordpools/wasnorm_wordpool_576.txt	LTP283	ltpFR2	16	11	FINGER	567	n/a	n/a	0	0	0
2415486	REC_WORD	wordpools/wasnorm_wordpool_576.txt	LTP283	ltpFR2	16	11	BUBBLE	183	n/a	n/a	0	0	0
2415894	REC_WORD	wordpools/wasnorm_wordpool_576.txt	LTP283	ltpFR2	16	11	MARINE	869	n/a	n/a	0	0	0
2416709	REC_WORD	wordpools/wasnorm_wordpool_576.txt	LTP283	ltpFR2	16	11	STAKE	1368	n/a	n/a	0	0	0
2418298	REC_WORD	wordpools/wasnorm_wordpool_576.txt	LTP283	ltpFR2	16	11	CANAL	226	n/a	n/a	0	0	0
2449439	REC_WORD	wordpools/wasnorm_wordpool_576.txt	LTP283	ltpFR2	16	11	OUTDOORS	987	n/a	n/a	0	0	0
2450261	REC_WORD	wordpools/wasnorm_wordpool_576.txt	LTP283	ltpFR2	16	11	PERMIT	1051	n/a	n/a	0	0	0
2474224	REC_WORD	wordpools/wasnorm_wordpool_576.txt	LTP283	ltpFR2	16	11	BOX	159	n/a	n/a	0	0	0
2476807	REC_WORD	wordpools/wasnorm_wordpool_576.txt	LTP283	ltpFR2	16	11	ROBBER	1197	n/a	n/a	0	0	0
2478533	REC_WORD	wordpools/wasnorm_wordpool_576.txt	LTP283	ltpFR2	16	11	HORNET	718	n/a	n/a	0	0	0
2480781	REC_WORD	wordpools/wasnorm_wordpool_576.txt	LTP283	ltpFR2	16	11	STAMP	1370	n/a	n/a	0	0	0
2503405	DISTRACTOR	n/a	LTP283	ltpFR2	16	12	n/a	n/a	n/a	n/a	0	0	0
2503406	START	n/a	LTP283	ltpFR2	16	n/a	n/a	n/a	17	n/a	n/a	n/a	n/a
2503470	PROB	n/a	LTP283	ltpFR2	16	n/a	n/a	n/a	17	18	7	3	8
2505629	PROB	n/a	LTP283	ltpFR2	16	n/a	n/a	n/a	17	9	3	5	1
2508191	PROB	n/a	LTP283	ltpFR2	16	n/a	n/a	n/a	17	13	9	2	2
2509691	PROB	n/a	LTP283	ltpFR2	16	n/a	n/a	n/a	17	18	1	8	9
2511377	PROB	n/a	LTP283	ltpFR2	16	n/a	n/a	n/a	17	10	3	1	6
2512677	PROB	n/a	LTP283	ltpFR2	16	n/a	n/a	n/a	17	17	3	9	5
2514846	PROB	n/a	LTP283	ltpFR2	16	n/a	n/a	n/a	17	10	2	2	6
2516114	PROB	n/a	LTP283	ltpFR2	16	n/a	n/a	n/a	17	17	3	8	6
2517915	PROB	n/a	LTP283	ltpFR2	16	n/a	n/a	n/a	17	19	6	7	5
2520318	PROB	n/a	LTP283	ltpFR2	16	n/a	n/a	n/a	17	15	3	3	9
2522035	PROB	n/a	LTP283	ltpFR2	16	n/a	n/a	n/a	17	17	9	4	4
2523576	PROB	n/a	LTP283	ltpFR2	16	n/a	n/a	n/a	17	15	8	3	4
2525255	PROB	n/a	LTP283	ltpFR2	16	n/a	n/a	n/a	17	19	4	6	9
2526410	STOP	n/a	LTP283	ltpFR2	16	n/a	n/a	n/a	17	n/a	n/a	n/a	n/a
2528423	WORD	wordpools/wasnorm_wordpool_576.txt	LTP283	ltpFR2	16	12	GLOBE	641	n/a	n/a	0	0	0
2530958	WORD	wordpools/wasnorm_wordpool_576.txt	LTP283	ltpFR2	16	12	JELLO	754	n/a	n/a	0	0	0
2533595	WORD	wordpools/wasnorm_wordpool_576.txt	LTP283	ltpFR2	16	12	WOMAN	1620	n/a	n/a	0	0	0
2536446	WORD	wordpools/wasnorm_wordpool_576.txt	LTP283	ltpFR2	16	12	REBEL	1172	n/a	n/a	0	0	0
2539032	WORD	wordpools/wasnorm_wordpool_576.txt	LTP283	ltpFR2	16	12	LODGE	839	n/a	n/a	0	0	0
2541584	WORD	wordpools/wasnorm_wordpool_576.txt	LTP283	ltpFR2	16	12	JUGGLER	763	n/a	n/a	0	0	0
2544387	WORD	wordpools/wasnorm_wordpool_576.txt	LTP283	ltpFR2	16	12	CHILD	299	n/a	n/a	0	0	0
2547189	WORD	wordpools/wasnorm_wordpool_576.txt	LTP283	ltpFR2	16	12	SCISSORS	1250	n/a	n/a	0	0	0
2550024	WORD	wordpools/wasnorm_wordpool_576.txt	LTP283	ltpFR2	16	12	DORM	488	n/a	n/a	0	0	0
2552609	WORD	wordpools/wasnorm_wordpool_576.txt	LTP283	ltpFR2	16	12	DAISY	435	n/a	n/a	0	0	0
2555330	WORD	wordpools/wasnorm_wordpool_576.txt	LTP283	ltpFR2	16	12	COSTUME	383	n/a	n/a	0	0	0
2558081	WORD	wordpools/wasnorm_wordpool_576.txt	LTP283	ltpFR2	16	12	GYMNAST	675	n/a	n/a	0	0	0
2560866	WORD	wordpools/wasnorm_wordpool_576.txt	LTP283	ltpFR2	16	12	SHARK	1275	n/a	n/a	0	0	0
2563561	WORD	wordpools/wasnorm_wordpool_576.txt	LTP283	ltpFR2	16	12	CATCHER	258	n/a	n/a	0	0	0
2566421	WORD	wordpools/wasnorm_wordpool_576.txt	LTP283	ltpFR2	16	12	BRANDY	169	n/a	n/a	0	0	0
2569096	WORD	wordpools/wasnorm_wordpool_576.txt	LTP283	ltpFR2	16	12	FLASK	576	n/a	n/a	0	0	0
2571741	WORD	wordpools/wasnorm_wordpool_576.txt	LTP283	ltpFR2	16	12	ACTOR	5	n/a	n/a	0	0	0
2574493	WORD	wordpools/wasnorm_wordpool_576.txt	LTP283	ltpFR2	16	12	STUDENT	1395	n/a	n/a	0	0	0
2577029	WORD	wordpools/wasnorm_wordpool_576.txt	LTP283	ltpFR2	16	12	PEPPER	1047	n/a	n/a	0	0	0
2579747	WORD	wordpools/wasnorm_wordpool_576.txt	LTP283	ltpFR2	16	12	TART	1436	n/a	n/a	0	0	0
2582567	WORD	wordpools/wasnorm_wordpool_576.txt	LTP283	ltpFR2	16	12	FLAG	573	n/a	n/a	0	0	0
2585170	WORD	wordpools/wasnorm_wordpool_576.txt	LTP283	ltpFR2	16	12	PADDLE	1000	n/a	n/a	0	0	0
2588037	WORD	wordpools/wasnorm_wordpool_576.txt	LTP283	ltpFR2	16	12	VIKING	1565	n/a	n/a	0	0	0
2590731	WORD	wordpools/wasnorm_wordpool_576.txt	LTP283	ltpFR2	16	12	PATROL	1027	n/a	n/a	0	0	0
2592377	START	n/a	LTP283	ltpFR2	16	n/a	n/a	n/a	18	n/a	n/a	n/a	n/a
2593261	DISTRACTOR	n/a	LTP283	ltpFR2	16	12	n/a	n/a	n/a	n/a	0	0	0
2593310	PROB	n/a	LTP283	ltpFR2	16	n/a	n/a	n/a	18	19	8	7	4
2595960	PROB	n/a	LTP283	ltpFR2	16	n/a	n/a	n/a	18	11	6	4	1
2597236	PROB	n/a	LTP283	ltpFR2	16	n/a	n/a	n/a	18	17	9	1	7
2598713	PROB	n/a	LTP283	ltpFR2	16	n/a	n/a	n/a	18	10	3	3	4
2600332	PROB	n/a	LTP283	ltpFR2	16	n/a	n/a	n/a	18	15	4	2	9
2602716	PROB	n/a	LTP283	ltpFR2	16	n/a	n/a	n/a	18	19	3	8	8
2604235	PROB	n/a	LTP283	ltpFR2	16	n/a	n/a	n/a	18	11	2	3	6
2605603	PROB	n/a	LTP283	ltpFR2	16	n/a	n/a	n/a	18	17	6	9	2
2607719	PROB	n/a	LTP283	ltpFR2	16	n/a	n/a	n/a	18	12	5	6	1
2609105	PROB	n/a	LTP283	ltpFR2	16	n/a	n/a	n/a	18	12	6	1	5
2610872	PROB	n/a	LTP283	ltpFR2	16	n/a	n/a	n/a	18	14	1	9	4
2612225	PROB	n/a	LTP283	ltpFR2	16	n/a	n/a	n/a	18	14	6	3	5
2615069	STOP	n/a	LTP283	ltpFR2	16	n/a	n/a	n/a	18	n/a	n/a	n/a	n/a
2618453	REC_START	n/a	LTP283	ltpFR2	16	12	n/a	n/a	n/a	n/a	0	0	0
2621253	REC_WORD	wordpools/wasnorm_wordpool_576.txt	LTP283	ltpFR2	16	12	PADDLE	1000	n/a	n/a	0	0	0
2621841	REC_WORD	wordpools/wasnorm_wordpool_576.txt	LTP283	ltpFR2	16	12	VIKING	1565	n/a	n/a	0	0	0
2622502	REC_WORD	wordpools/wasnorm_wordpool_576.txt	LTP283	ltpFR2	16	12	PATROL	1027	n/a	n/a	0	0	0
2625273	REC_WORD	wordpools/wasnorm_wordpool_576.txt	LTP283	ltpFR2	16	12	JELLO	754	n/a	n/a	0	0	0
2626364	REC_WORD	wordpools/wasnorm_wordpool_576.txt	LTP283	ltpFR2	16	12	GLOBE	641	n/a	n/a	0	0	0
2628450	REC_WORD	wordpools/wasnorm_wordpool_576.txt	LTP283	ltpFR2	16	12	WOMAN	1620	n/a	n/a	0	0	0
2629316	REC_WORD	wordpools/wasnorm_wordpool_576.txt	LTP283	ltpFR2	16	12	JUGGLER	763	n/a	n/a	0	0	0
2630105	REC_WORD	wordpools/wasnorm_wordpool_576.txt	LTP283	ltpFR2	16	12	LODGE	839	n/a	n/a	0	0	0
2630931	REC_WORD	wordpools/wasnorm_wordpool_576.txt	LTP283	ltpFR2	16	12	DAISY	435	n/a	n/a	0	0	0
2634021	REC_WORD	wordpools/wasnorm_wordpool_576.txt	LTP283	ltpFR2	16	12	SCISSORS	1250	n/a	n/a	0	0	0
2635021	REC_WORD_VV	wordpools/wasnorm_wordpool_576.txt	LTP283	ltpFR2	16	12	<>	-1	n/a	n/a	0	0	0
2635485	REC_WORD	wordpools/wasnorm_wordpool_576.txt	LTP283	ltpFR2	16	12	SHARK	1275	n/a	n/a	0	0	0
2636312	REC_WORD	wordpools/wasnorm_wordpool_576.txt	LTP283	ltpFR2	16	12	BRANDY	169	n/a	n/a	0	0	0
2638480	REC_WORD	wordpools/wasnorm_wordpool_576.txt	LTP283	ltpFR2	16	12	TART	1436	n/a	n/a	0	0	0
2641162	REC_WORD	wordpools/wasnorm_wordpool_576.txt	LTP283	ltpFR2	16	12	SALT	1229	n/a	n/a	0	0	0
2647098	REC_WORD	wordpools/wasnorm_wordpool_576.txt	LTP283	ltpFR2	16	12	ACTOR	5	n/a	n/a	0	0	0
2647547	REC_WORD	wordpools/wasnorm_wordpool_576.txt	LTP283	ltpFR2	16	12	STUDENT	1395	n/a	n/a	0	0	0
2650761	REC_WORD	wordpools/wasnorm_wordpool_576.txt	LTP283	ltpFR2	16	12	PADDLE	1000	n/a	n/a	0	0	0
2661305	REC_WORD	wordpools/wasnorm_wordpool_576.txt	LTP283	ltpFR2	16	12	REBEL	1172	n/a	n/a	0	0	0
2709387	DISTRACTOR	n/a	LTP283	ltpFR2	16	13	n/a	n/a	n/a	n/a	0	0	0
2709387	START	n/a	LTP283	ltpFR2	16	n/a	n/a	n/a	19	n/a	n/a	n/a	n/a
2709451	PROB	n/a	LTP283	ltpFR2	16	n/a	n/a	n/a	19	11	3	7	1
2710803	PROB	n/a	LTP283	ltpFR2	16	n/a	n/a	n/a	19	13	5	1	7
2713421	PROB	n/a	LTP283	ltpFR2	16	n/a	n/a	n/a	19	11	6	3	2
2715089	PROB	n/a	LTP283	ltpFR2	16	n/a	n/a	n/a	19	16	2	7	7
2717191	PROB	n/a	LTP283	ltpFR2	16	n/a	n/a	n/a	19	15	2	8	5
2718808	PROB	n/a	LTP283	ltpFR2	16	n/a	n/a	n/a	19	20	8	8	4
2720177	PROB	n/a	LTP283	ltpFR2	16	n/a	n/a	n/a	19	17	8	8	1
2721804	PROB	n/a	LTP283	ltpFR2	16	n/a	n/a	n/a	19	12	2	7	3
2723397	PROB	n/a	LTP283	ltpFR2	16	n/a	n/a	n/a	19	20	7	8	5
2725165	PROB	n/a	LTP283	ltpFR2	16	n/a	n/a	n/a	19	13	9	3	1
2726532	PROB	n/a	LTP283	ltpFR2	16	n/a	n/a	n/a	19	11	6	1	4
2727766	PROB	n/a	LTP283	ltpFR2	16	n/a	n/a	n/a	19	11	3	1	7
2729067	PROB	n/a	LTP283	ltpFR2	16	n/a	n/a	n/a	19	18	8	6	4
2730468	PROB	n/a	LTP283	ltpFR2	16	n/a	n/a	n/a	19	20	7	4	9
2731873	STOP	n/a	LTP283	ltpFR2	16	n/a	n/a	n/a	19	n/a	n/a	n/a	n/a
2734506	WORD	wordpools/wasnorm_wordpool_576.txt	LTP283	ltpFR2	16	13	BLENDER	136	n/a	n/a	0	0	0
2737359	WORD	wordpools/wasnorm_wordpool_576.txt	LTP283	ltpFR2	16	13	FLUTE	585	n/a	n/a	0	0	0
2740093	WORD	wordpools/wasnorm_wordpool_576.txt	LTP283	ltpFR2	16	13	SHELTER	1282	n/a	n/a	0	0	0
2742845	WORD	wordpools/wasnorm_wordpool_576.txt	LTP283	ltpFR2	16	13	PARTNER	1017	n/a	n/a	0	0	0
2745714	WORD	wordpools/wasnorm_wordpool_576.txt	LTP283	ltpFR2	16	13	LETTUCE	814	n/a	n/a	0	0	0
2748566	WORD	wordpools/wasnorm_wordpool_576.txt	LTP283	ltpFR2	16	13	PIANO	1057	n/a	n/a	0	0	0
2751419	WORD	wordpools/wasnorm_wordpool_576.txt	LTP283	ltpFR2	16	13	HEADBAND	696	n/a	n/a	0	0	0
2753938	WORD	wordpools/wasnorm_wordpool_576.txt	LTP283	ltpFR2	16	13	FOREHEAD	592	n/a	n/a	0	0	0
2756790	WORD	wordpools/wasnorm_wordpool_576.txt	LTP283	ltpFR2	16	13	FRANCE	601	n/a	n/a	0	0	0
2759426	WORD	wordpools/wasnorm_wordpool_576.txt	LTP283	ltpFR2	16	13	EUROPE	541	n/a	n/a	0	0	0
2762195	WORD	wordpools/wasnorm_wordpool_576.txt	LTP283	ltpFR2	16	13	PISTOL	1075	n/a	n/a	0	0	0
2764872	WORD	wordpools/wasnorm_wordpool_576.txt	LTP283	ltpFR2	16	13	LASER	801	n/a	n/a	0	0	0
2767598	WORD	wordpools/wasnorm_wordpool_576.txt	LTP283	ltpFR2	16	13	ORCHID	982	n/a	n/a	0	0	0
2770418	WORD	wordpools/wasnorm_wordpool_576.txt	LTP283	ltpFR2	16	13	TURNIP	1521	n/a	n/a	0	0	0
2773112	WORD	wordpools/wasnorm_wordpool_576.txt	LTP283	ltpFR2	16	13	COUNTY	389	n/a	n/a	0	0	0
2775871	WORD	wordpools/wasnorm_wordpool_576.txt	LTP283	ltpFR2	16	13	TREAT	1501	n/a	n/a	0	0	0
2778707	WORD	wordpools/wasnorm_wordpool_576.txt	LTP283	ltpFR2	16	13	GIRL	637	n/a	n/a	0	0	0
2781244	WORD	wordpools/wasnorm_wordpool_576.txt	LTP283	ltpFR2	16	13	BLUEPRINT	142	n/a	n/a	0	0	0
2783936	WORD	wordpools/wasnorm_wordpool_576.txt	LTP283	ltpFR2	16	13	GARDEN	623	n/a	n/a	0	0	0
2786530	WORD	wordpools/wasnorm_wordpool_576.txt	LTP283	ltpFR2	16	13	BODY	145	n/a	n/a	0	0	0
2789133	WORD	wordpools/wasnorm_wordpool_576.txt	LTP283	ltpFR2	16	13	WAITER	1580	n/a	n/a	0	0	0
2791967	WORD	wordpools/wasnorm_wordpool_576.txt	LTP283	ltpFR2	16	13	SCULPTURE	1258	n/a	n/a	0	0	0
2794553	WORD	wordpools/wasnorm_wordpool_576.txt	LTP283	ltpFR2	16	13	CARRIAGE	248	n/a	n/a	0	0	0
2797340	WORD	wordpools/wasnorm_wordpool_576.txt	LTP283	ltpFR2	16	13	PLIERS	1089	n/a	n/a	0	0	0
2798975	START	n/a	LTP283	ltpFR2	16	n/a	n/a	n/a	20	n/a	n/a	n/a	n/a
2800151	DISTRACTOR	n/a	LTP283	ltpFR2	16	13	n/a	n/a	n/a	n/a	0	0	0
2800192	PROB	n/a	LTP283	ltpFR2	16	n/a	n/a	n/a	20	10	3	1	6
2801758	PROB	n/a	LTP283	ltpFR2	16	n/a	n/a	n/a	20	9	2	5	2
2803294	PROB	n/a	LTP283	ltpFR2	16	n/a	n/a	n/a	20	20	6	5	9
2804628	PROB	n/a	LTP283	ltpFR2	16	n/a	n/a	n/a	20	14	8	1	5
2806513	PROB	n/a	LTP283	ltpFR2	16	n/a	n/a	n/a	20	14	5	8	1
2808231	PROB	n/a	LTP283	ltpFR2	16	n/a	n/a	n/a	20	16	3	9	4
2810072	PROB	n/a	LTP283	ltpFR2	16	n/a	n/a	n/a	20	7	4	2	1
2811650	PROB	n/a	LTP283	ltpFR2	16	n/a	n/a	n/a	20	14	3	9	2
2813501	PROB	n/a	LTP283	ltpFR2	16	n/a	n/a	n/a	20	9	2	4	3
2815737	PROB	n/a	LTP283	ltpFR2	16	n/a	n/a	n/a	20	10	8	1	1
2816887	PROB	n/a	LTP283	ltpFR2	16	n/a	n/a	n/a	20	16	7	3	6
2818256	PROB	n/a	LTP283	ltpFR2	16	n/a	n/a	n/a	20	22	6	9	7
2820624	PROB	n/a	LTP283	ltpFR2	16	n/a	n/a	n/a	20	19	3	8	8
2821957	STOP	n/a	LTP283	ltpFR2	16	n/a	n/a	n/a	20	n/a	n/a	n/a	n/a
2825036	REC_START	n/a	LTP283	ltpFR2	16	13	n/a	n/a	n/a	n/a	0	0	0
2827518	REC_WORD	wordpools/wasnorm_wordpool_576.txt	LTP283	ltpFR2	16	13	CARRIAGE	248	n/a	n/a	0	0	0
2828412	REC_WORD	wordpools/wasnorm_wordpool_576.txt	LTP283	ltpFR2	16	13	PLIERS	1089	n/a	n/a	0	0	0
2830030	REC_WORD	wordpools/wasnorm_wordpool_576.txt	LTP283	ltpFR2	16	13	SERVANT	1271	n/a	n/a	0	0	0
2831030	REC_WORD_VV	wordpools/wasnorm_wordpool_576.txt	LTP283	ltpFR2	16	13	<>	-1	n/a	n/a	0	0	0
2831868	REC_WORD	wordpools/wasnorm_wordpool_576.txt	LTP283	ltpFR2	16	13	FRANCE	601	n/a	n/a	0	0	0
2832546	REC_WORD	wordpools/wasnorm_wordpool_576.txt	LTP283	ltpFR2	16	13	EUROPE	541	n/a	n/a	0	0	0
2834625	REC_WORD	wordpools/wasnorm_wordpool_576.txt	LTP283	ltpFR2	16	13	GARDEN	623	n/a	n/a	0	0	0
2835261	REC_WORD	wordpools/wasnorm_wordpool_576.txt	LTP283	ltpFR2	16	13	BODY	145	n/a	n/a	0	0	0
2835715	REC_WORD	wordpools/wasnorm_wordpool_576.txt	LTP283	ltpFR2	16	13	HUMAN	726	n/a	n/a	0	0	0
2836350	REC_WORD	wordpools/wasnorm_wordpool_576.txt	LTP283	ltpFR2	16	13	SCULPTURE	1258	n/a	n/a	0	0	0
2848923	REC_WORD	wordpools/wasnorm_wordpool_576.txt	LTP283	ltpFR2	16	13	BLUEPRINT	142	n/a	n/a	0	0	0
2849531	REC_WORD	wordpools/wasnorm_wordpool_576.txt	LTP283	ltpFR2	16	13	BLENDER	136	n/a	n/a	0	0	0
2850094	REC_WORD	wordpools/wasnorm_wordpool_576.txt	LTP283	ltpFR2	16	13	FLUTE	585	n/a	n/a	0	0	0
2850661	REC_WORD	wordpools/wasnorm_wordpool_576.txt	LTP283	ltpFR2	16	13	PIANO	1057	n/a	n/a	0	0	0
2852179	REC_WORD	wordpools/wasnorm_wordpool_576.txt	LTP283	ltpFR2	16	13	PARTNER	1017	n/a	n/a	0	0	0
2857263	REC_WORD	wordpools/wasnorm_wordpool_576.txt	LTP283	ltpFR2	16	13	HEADBAND	696	n/a	n/a	0	0	0
2857897	REC_WORD	wordpools/wasnorm_wordpool_576.txt	LTP283	ltpFR2	16	13	FOREHEAD	592	n/a	n/a	0	0	0
2916051	WORD	wordpools/wasnorm_wordpool_576.txt	LTP283	ltpFR2	16	14	CURTAIN	427	n/a	n/a	0	0	0
2918669	WORD	wordpools/wasnorm_wordpool_576.txt	LTP283	ltpFR2	16	14	LUMBER	848	n/a	n/a	0	0	0
2921363	WORD	wordpools/wasnorm_wordpool_576.txt	LTP283	ltpFR2	16	14	SAUSAGE	1238	n/a	n/a	0	0	0
2924157	WORD	wordpools/wasnorm_wordpool_576.txt	LTP283	ltpFR2	16	14	BACON	67	n/a	n/a	0	0	0
2926742	WORD	wordpools/wasnorm_wordpool_576.txt	LTP283	ltpFR2	16	14	PORTRAIT	1111	n/a	n/a	0	0	0
2929561	WORD	wordpools/wasnorm_wordpool_576.txt	LTP283	ltpFR2	16	14	DRAWING	494	n/a	n/a	0	0	0
2932382	WORD	wordpools/wasnorm_wordpool_576.txt	LTP283	ltpFR2	16	14	RUG	1215	n/a	n/a	0	0	0
2935150	WORD	wordpools/wasnorm_wordpool_576.txt	LTP283	ltpFR2	16	14	SMOG	1330	n/a	n/a	0	0	0
2937668	WORD	wordpools/wasnorm_wordpool_576.txt	LTP283	ltpFR2	16	14	FLASHLIGHT	575	n/a	n/a	0	0	0
2940271	WORD	wordpools/wasnorm_wordpool_576.txt	LTP283	ltpFR2	16	14	HOUND	724	n/a	n/a	0	0	0
2943038	WORD	wordpools/wasnorm_wordpool_576.txt	LTP283	ltpFR2	16	14	HEDGE	699	n/a	n/a	0	0	0
2945740	WORD	wordpools/wasnorm_wordpool_576.txt	LTP283	ltpFR2	16	14	SCRIBBLE	1256	n/a	n/a	0	0	0
2948434	WORD	wordpools/wasnorm_wordpool_576.txt	LTP283	ltpFR2	16	14	FLOWER	584	n/a	n/a	0	0	0
2951246	WORD	wordpools/wasnorm_wordpool_576.txt	LTP283	ltpFR2	16	14	PENGUIN	1044	n/a	n/a	0	0	0
2953964	WORD	wordpools/wasnorm_wordpool_576.txt	LTP283	ltpFR2	16	14	COCOON	339	n/a	n/a	0	0	0
2956466	WORD	wordpools/wasnorm_wordpool_576.txt	LTP283	ltpFR2	16	14	RIVER	1194	n/a	n/a	0	0	0
2959319	WORD	wordpools/wasnorm_wordpool_576.txt	LTP283	ltpFR2	16	14	BLOUSE	139	n/a	n/a	0	0	0
2961853	WORD	wordpools/wasnorm_wordpool_576.txt	LTP283	ltpFR2	16	14	ASIA	46	n/a	n/a	0	0	0
2964606	WORD	wordpools/wasnorm_wordpool_576.txt	LTP283	ltpFR2	16	14	SPACE	1345	n/a	n/a	0	0	0
2967424	WORD	wordpools/wasnorm_wordpool_576.txt	LTP283	ltpFR2	16	14	PUDDLE	1140	n/a	n/a	0	0	0
2970295	WORD	wordpools/wasnorm_wordpool_576.txt	LTP283	ltpFR2	16	14	CLIMBER	323	n/a	n/a	0	0	0
2973012	WORD	wordpools/wasnorm_wordpool_576.txt	LTP283	ltpFR2	16	14	CABIN	211	n/a	n/a	0	0	0
2975881	WORD	wordpools/wasnorm_wordpool_576.txt	LTP283	ltpFR2	16	14	VIRUS	1572	n/a	n/a	0	0	0
2978584	WORD	wordpools/wasnorm_wordpool_576.txt	LTP283	ltpFR2	16	14	SHIRT	1287	n/a	n/a	0	0	0
2980221	START	n/a	LTP283	ltpFR2	16	n/a	n/a	n/a	21	n/a	n/a	n/a	n/a
2981207	DISTRACTOR	n/a	LTP283	ltpFR2	16	14	n/a	n/a	n/a	n/a	0	0	0
2981279	PROB	n/a	LTP283	ltpFR2	16	n/a	n/a	n/a	21	20	3	9	8
2983354	PROB	n/a	LTP283	ltpFR2	16	n/a	n/a	n/a	21	13	5	3	5
2984838	PROB	n/a	LTP283	ltpFR2	16	n/a	n/a	n/a	21	18	3	7	8
2986207	PROB	n/a	LTP283	ltpFR2	16	n/a	n/a	n/a	21	11	8	1	2
2987541	PROB	n/a	LTP283	ltpFR2	16	n/a	n/a	n/a	21	7	1	4	2
2988908	PROB	n/a	LTP283	ltpFR2	16	n/a	n/a	n/a	21	8	2	5	1
2990177	PROB	n/a	LTP283	ltpFR2	16	n/a	n/a	n/a	21	13	5	6	2
2991785	PROB	n/a	LTP283	ltpFR2	16	n/a	n/a	n/a	21	10	2	4	4
2993146	PROB	n/a	LTP283	ltpFR2	16	n/a	n/a	n/a	21	10	1	3	6
2994614	PROB	n/a	LTP283	ltpFR2	16	n/a	n/a	n/a	21	15	3	8	4
2996789	PROB	n/a	LTP283	ltpFR2	16	n/a	n/a	n/a	21	15	6	3	6
2999401	PROB	n/a	LTP283	ltpFR2	16	n/a	n/a	n/a	21	10	5	4	1
3000585	PROB	n/a	LTP283	ltpFR2	16	n/a	n/a	n/a	21	20	5	8	7
3002204	PROB	n/a	LTP283	ltpFR2	16	n/a	n/a	n/a	21	11	4	3	4
3003484	STOP	n/a	LTP283	ltpFR2	16	n/a	n/a	n/a	21	n/a	n/a	n/a	n/a
3006299	REC_START	n/a	LTP283	ltpFR2	16	14	n/a	n/a	n/a	n/a	0	0	0
3007921	REC_WORD	wordpools/wasnorm_wordpool_576.txt	LTP283	ltpFR2	16	14	VIRUS	1572	n/a	n/a	0	0	0
3008525	REC_WORD	wordpools/wasnorm_wordpool_576.txt	LTP283	ltpFR2	16	14	SHIRT	1287	n/a	n/a	0	0	0
3010192	REC_WORD	wordpools/wasnorm_wordpool_576.txt	LTP283	ltpFR2	16	14	CABIN	211	n/a	n/a	0	0	0
3013804	REC_WORD	wordpools/wasnorm_wordpool_576.txt	LTP283	ltpFR2	16	14	PENGUIN	1044	n/a	n/a	0	0	0
3014253	REC_WORD	wordpools/wasnorm_wordpool_576.txt	LTP283	ltpFR2	16	14	COCOON	339	n/a	n/a	0	0	0
3014857	REC_WORD	wordpools/wasnorm_wordpool_576.txt	LTP283	ltpFR2	16	14	RIVER	1194	n/a	n/a	0	0	0
3015560	REC_WORD	wordpools/wasnorm_wordpool_576.txt	LTP283	ltpFR2	16	14	BLOUSE	139	n/a	n/a	0	0	0
3016979	REC_WORD	wordpools/wasnorm_wordpool_576.txt	LTP283	ltpFR2	16	14	HOUND	724	n/a	n/a	0	0	0
3022670	REC_WORD	wordpools/wasnorm_wordpool_576.txt	LTP283	ltpFR2	16	14	HEDGE	699	n/a	n/a	0	0	0
3025069	REC_WORD	wordpools/wasnorm_wordpool_576.txt	LTP283	ltpFR2	16	14	CURTAIN	427	n/a	n/a	0	0	0
3025992	REC_WORD	wordpools/wasnorm_wordpool_576.txt	LTP283	ltpFR2	16	14	LUMBER	848	n/a	n/a	0	0	0
3026777	REC_WORD	wordpools/wasnorm_wordpool_576.txt	LTP283	ltpFR2	16	14	SAUSAGE	1238	n/a	n/a	0	0	0
3027730	REC_WORD	wordpools/wasnorm_wordpool_576.txt	LTP283	ltpFR2	16	14	BACON	67	n/a	n/a	0	0	0
3028291	REC_WORD	wordpools/wasnorm_wordpool_576.txt	LTP283	ltpFR2	16	14	DRAWING	494	n/a	n/a	0	0	0
3028865	REC_WORD	wordpools/wasnorm_wordpool_576.txt	LTP283	ltpFR2	16	14	SKETCH	1315	n/a	n/a	0	0	0
3029865	REC_WORD_VV	wordpools/wasnorm_wordpool_576.txt	LTP283	ltpFR2	16	14	<>	-1	n/a	n/a	0	0	0
3030784	REC_WORD	wordpools/wasnorm_wordpool_576.txt	LTP283	ltpFR2	16	14	PORTRAIT	1111	n/a	n/a	0	0	0
3033799	REC_WORD	wordpools/wasnorm_wordpool_576.txt	LTP283	ltpFR2	16	14	FOG	-1	n/a	n/a	0	0	0
3034778	REC_WORD	wordpools/wasnorm_wordpool_576.txt	LTP283	ltpFR2	16	14	SMOG	1330	n/a	n/a	0	0	0
3035853	REC_WORD	wordpools/wasnorm_wordpool_576.txt	LTP283	ltpFR2	16	14	SCRIBBLE	1256	n/a	n/a	0	0	0
3044848	REC_WORD	wordpools/wasnorm_wordpool_576.txt	LTP283	ltpFR2	16	14	SPACE	1345	n/a	n/a	0	0	0
3063294	REC_WORD	wordpools/wasnorm_wordpool_576.txt	LTP283	ltpFR2	16	14	FLASHLIGHT	575	n/a	n/a	0	0	0
3097264	DISTRACTOR	n/a	LTP283	ltpFR2	16	15	n/a	n/a	n/a	n/a	0	0	0
3097264	START	n/a	LTP283	ltpFR2	16	n/a	n/a	n/a	22	n/a	n/a	n/a	n/a
3097330	PROB	n/a	LTP283	ltpFR2	16	n/a	n/a	n/a	22	17	3	7	7
3099547	PROB	n/a	LTP283	ltpFR2	16	n/a	n/a	n/a	22	13	1	6	6
3101549	PROB	n/a	LTP283	ltpFR2	16	n/a	n/a	n/a	22	18	5	5	8
3102916	PROB	n/a	LTP283	ltpFR2	16	n/a	n/a	n/a	22	13	2	4	7
3105535	PROB	n/a	LTP283	ltpFR2	16	n/a	n/a	n/a	22	15	6	6	3
3107270	PROB	n/a	LTP283	ltpFR2	16	n/a	n/a	n/a	22	14	1	8	5
3109372	PROB	n/a	LTP283	ltpFR2	16	n/a	n/a	n/a	22	21	4	8	9
3110906	PROB	n/a	LTP283	ltpFR2	16	n/a	n/a	n/a	22	18	6	7	5
3114842	PROB	n/a	LTP283	ltpFR2	16	n/a	n/a	n/a	22	22	6	9	7
3117229	PROB	n/a	LTP283	ltpFR2	16	n/a	n/a	n/a	22	6	1	2	3
3118445	PROB	n/a	LTP283	ltpFR2	16	n/a	n/a	n/a	22	23	7	8	8
3120600	STOP	n/a	LTP283	ltpFR2	16	n/a	n/a	n/a	22	n/a	n/a	n/a	n/a
3122266	WORD	wordpools/wasnorm_wordpool_576.txt	LTP283	ltpFR2	16	15	MAILMAN	858	n/a	n/a	0	0	0
3125017	WORD	wordpools/wasnorm_wordpool_576.txt	LTP283	ltpFR2	16	15	CASKET	255	n/a	n/a	0	0	0
3127787	WORD	wordpools/wasnorm_wordpool_576.txt	LTP283	ltpFR2	16	15	TOMBSTONE	1478	n/a	n/a	0	0	0
3130390	WORD	wordpools/wasnorm_wordpool_576.txt	LTP283	ltpFR2	16	15	WRENCH	1625	n/a	n/a	0	0	0
3133191	WORD	wordpools/wasnorm_wordpool_576.txt	LTP283	ltpFR2	16	15	ANTLER	29	n/a	n/a	0	0	0
3135743	WORD	wordpools/wasnorm_wordpool_576.txt	LTP283	ltpFR2	16	15	XEROX	1628	n/a	n/a	0	0	0
3138229	WORD	wordpools/wasnorm_wordpool_576.txt	LTP283	ltpFR2	16	15	BASEMENT	94	n/a	n/a	0	0	0
3140905	WORD	wordpools/wasnorm_wordpool_576.txt	LTP283	ltpFR2	16	15	JUDGE	761	n/a	n/a	0	0	0
3143483	WORD	wordpools/wasnorm_wordpool_576.txt	LTP283	ltpFR2	16	15	VICTIM	1562	n/a	n/a	0	0	0
3145985	WORD	wordpools/wasnorm_wordpool_576.txt	LTP283	ltpFR2	16	15	CRITIC	410	n/a	n/a	0	0	0
3148587	WORD	wordpools/wasnorm_wordpool_576.txt	LTP283	ltpFR2	16	15	PLAZA	1088	n/a	n/a	0	0	0
3151206	WORD	wordpools/wasnorm_wordpool_576.txt	LTP283	ltpFR2	16	15	TUNNEL	1519	n/a	n/a	0	0	0
3153940	WORD	wordpools/wasnorm_wordpool_576.txt	LTP283	ltpFR2	16	15	AIRPLANE	12	n/a	n/a	0	0	0
3156492	WORD	wordpools/wasnorm_wordpool_576.txt	LTP283	ltpFR2	16	15	FRAME	600	n/a	n/a	0	0	0
3159028	WORD	wordpools/wasnorm_wordpool_576.txt	LTP283	ltpFR2	16	15	DRUG	501	n/a	n/a	0	0	0
3161547	WORD	wordpools/wasnorm_wordpool_576.txt	LTP283	ltpFR2	16	15	INMATE	738	n/a	n/a	0	0	0
3164167	WORD	wordpools/wasnorm_wordpool_576.txt	LTP283	ltpFR2	16	15	OUTLAW	989	n/a	n/a	0	0	0
3166650	WORD	wordpools/wasnorm_wordpool_576.txt	LTP283	ltpFR2	16	15	BOYFRIEND	162	n/a	n/a	0	0	0
3169453	WORD	wordpools/wasnorm_wordpool_576.txt	LTP283	ltpFR2	16	15	CHAMPAGNE	278	n/a	n/a	0	0	0
3172038	WORD	wordpools/wasnorm_wordpool_576.txt	LTP283	ltpFR2	16	15	DUSTPAN	509	n/a	n/a	0	0	0
3174790	WORD	wordpools/wasnorm_wordpool_576.txt	LTP283	ltpFR2	16	15	FILM	565	n/a	n/a	0	0	0
3177293	WORD	wordpools/wasnorm_wordpool_576.txt	LTP283	ltpFR2	16	15	NEUTRON	947	n/a	n/a	0	0	0
3180129	WORD	wordpools/wasnorm_wordpool_576.txt	LTP283	ltpFR2	16	15	POSTAGE	1113	n/a	n/a	0	0	0
3182898	WORD	wordpools/wasnorm_wordpool_576.txt	LTP283	ltpFR2	16	15	BURGLAR	200	n/a	n/a	0	0	0
3184533	START	n/a	LTP283	ltpFR2	16	n/a	n/a	n/a	23	n/a	n/a	n/a	n/a
3185576	DISTRACTOR	n/a	LTP283	ltpFR2	16	15	n/a	n/a	n/a	n/a	0	0	0
3185616	PROB	n/a	LTP283	ltpFR2	16	n/a	n/a	n/a	23	19	9	7	3
3187368	PROB	n/a	LTP283	ltpFR2	16	n/a	n/a	n/a	23	22	7	9	6
3189652	PROB	n/a	LTP283	ltpFR2	16	n/a	n/a	n/a	23	21	9	7	5
3192004	PROB	n/a	LTP283	ltpFR2	16	n/a	n/a	n/a	23	13	4	2	7
3194063	PROB	n/a	LTP283	ltpFR2	16	n/a	n/a	n/a	23	16	4	7	5
3196741	PROB	n/a	LTP283	ltpFR2	16	n/a	n/a	n/a	23	3	1	1	1
3198111	PROB	n/a	LTP283	ltpFR2	16	n/a	n/a	n/a	23	20	9	7	4
3199560	PROB	n/a	LTP283	ltpFR2	16	n/a	n/a	n/a	23	15	6	2	7
3201445	PROB	n/a	LTP283	ltpFR2	16	n/a	n/a	n/a	23	16	1	9	6
3202880	PROB	n/a	LTP283	ltpFR2	16	n/a	n/a	n/a	23	22	9	5	8
3204831	PROB	n/a	LTP283	ltpFR2	16	n/a	n/a	n/a	23	19	5	9	5
3206482	PROB	n/a	LTP283	ltpFR2	16	n/a	n/a	n/a	23	18	4	9	5
3207907	STOP	n/a	LTP283	ltpFR2	16	n/a	n/a	n/a	23	n/a	n/a	n/a	n/a
3210595	REC_START	n/a	LTP283	ltpFR2	16	15	n/a	n/a	n/a	n/a	0	0	0
3213668	REC_WORD	wordpools/wasnorm_wordpool_576.txt	LTP283	ltpFR2	16	15	POSTAGE	1113	n/a	n/a	0	0	0
3214210	REC_WORD	wordpools/wasnorm_wordpool_576.txt	LTP283	ltpFR2	16	15	MAILMAN	858	n/a	n/a	0	0	0
3215727	REC_WORD	wordpools/wasnorm_wordpool_576.txt	LTP283	ltpFR2	16	15	NEUTRON	947	n/a	n/a	0	0	0
3216556	REC_WORD	wordpools/wasnorm_wordpool_576.txt	LTP283	ltpFR2	16	15	WRENCH	1625	n/a	n/a	0	0	0
3221256	REC_WORD	wordpools/wasnorm_wordpool_576.txt	LTP283	ltpFR2	16	15	TOMBSTONE	1478	n/a	n/a	0	0	0
3222700	REC_WORD	wordpools/wasnorm_wordpool_576.txt	LTP283	ltpFR2	16	15	GRAVE	658	n/a	n/a	0	0	0
3223155	REC_WORD	wordpools/wasnorm_wordpool_576.txt	LTP283	ltpFR2	16	15	ANTLER	29	n/a	n/a	0	0	0
3224916	REC_WORD	wordpools/wasnorm_wordpool_576.txt	LTP283	ltpFR2	16	15	CASKET	255	n/a	n/a	0	0	0
3226353	REC_WORD	wordpools/wasnorm_wordpool_576.txt	LTP283	ltpFR2	16	15	ANTLER	29	n/a	n/a	0	0	0
3232959	REC_WORD	wordpools/wasnorm_wordpool_576.txt	LTP283	ltpFR2	16	15	JUDGE	761	n/a	n/a	0	0	0
3233434	REC_WORD	wordpools/wasnorm_wordpool_576.txt	LTP283	ltpFR2	16	15	CRITIC	410	n/a	n/a	0	0	0
3234010	REC_WORD	wordpools/wasnorm_wordpool_576.txt	LTP283	ltpFR2	16	15	OUTLAW	989	n/a	n/a	0	0	0
3234769	REC_WORD	wordpools/wasnorm_wordpool_576.txt	LTP283	ltpFR2	16	15	INMATE	738	n/a	n/a	0	0	0
3237202	REC_WORD	wordpools/wasnorm_wordpool_576.txt	LTP283	ltpFR2	16	15	FRAME	600	n/a	n/a	0	0	0
3237940	REC_WORD	wordpools/wasnorm_wordpool_576.txt	LTP283	ltpFR2	16	15	FILM	565	n/a	n/a	0	0	0
3241194	REC_WORD	wordpools/wasnorm_wordpool_576.txt	LTP283	ltpFR2	16	15	CHAMPAGNE	278	n/a	n/a	0	0	0
3242018	REC_WORD	wordpools/wasnorm_wordpool_576.txt	LTP283	ltpFR2	16	15	BOYFRIEND	162	n/a	n/a	0	0	0
3301609	WORD	wordpools/wasnorm_wordpool_576.txt	LTP283	ltpFR2	16	16	PEDAL	1037	n/a	n/a	0	0	0
3304095	WORD	wordpools/wasnorm_wordpool_576.txt	LTP283	ltpFR2	16	16	PIZZA	1079	n/a	n/a	0	0	0
3306648	WORD	wordpools/wasnorm_wordpool_576.txt	LTP283	ltpFR2	16	16	PERCH	1048	n/a	n/a	0	0	0
3309383	WORD	wordpools/wasnorm_wordpool_576.txt	LTP283	ltpFR2	16	16	NAPKIN	937	n/a	n/a	0	0	0
3311984	WORD	wordpools/wasnorm_wordpool_576.txt	LTP283	ltpFR2	16	16	SPONGE	1355	n/a	n/a	0	0	0
3314753	WORD	wordpools/wasnorm_wordpool_576.txt	LTP283	ltpFR2	16	16	HARP	689	n/a	n/a	0	0	0
3317273	WORD	wordpools/wasnorm_wordpool_576.txt	LTP283	ltpFR2	16	16	LEOPARD	812	n/a	n/a	0	0	0
3319773	WORD	wordpools/wasnorm_wordpool_576.txt	LTP283	ltpFR2	16	16	CEILING	265	n/a	n/a	0	0	0
3322508	WORD	wordpools/wasnorm_wordpool_576.txt	LTP283	ltpFR2	16	16	GROUND	666	n/a	n/a	0	0	0
3325212	WORD	wordpools/wasnorm_wordpool_576.txt	LTP283	ltpFR2	16	16	BARLEY	88	n/a	n/a	0	0	0
3327747	WORD	wordpools/wasnorm_wordpool_576.txt	LTP283	ltpFR2	16	16	TWISTER	1530	n/a	n/a	0	0	0
3330266	WORD	wordpools/wasnorm_wordpool_576.txt	LTP283	ltpFR2	16	16	CYCLONE	431	n/a	n/a	0	0	0
3333101	WORD	wordpools/wasnorm_wordpool_576.txt	LTP283	ltpFR2	16	16	SALAD	1224	n/a	n/a	0	0	0
3335870	WORD	wordpools/wasnorm_wordpool_576.txt	LTP283	ltpFR2	16	16	CABBAGE	210	n/a	n/a	0	0	0
3338605	WORD	wordpools/wasnorm_wordpool_576.txt	LTP283	ltpFR2	16	16	WASP	1593	n/a	n/a	0	0	0
3341299	WORD	wordpools/wasnorm_wordpool_576.txt	LTP283	ltpFR2	16	16	PRIMATE	1123	n/a	n/a	0	0	0
3343843	WORD	wordpools/wasnorm_wordpool_576.txt	LTP283	ltpFR2	16	16	BOUQUET	157	n/a	n/a	0	0	0
3346645	WORD	wordpools/wasnorm_wordpool_576.txt	LTP283	ltpFR2	16	16	MARSH	874	n/a	n/a	0	0	0
3349381	WORD	wordpools/wasnorm_wordpool_576.txt	LTP283	ltpFR2	16	16	FRIEND	606	n/a	n/a	0	0	0
3352082	WORD	wordpools/wasnorm_wordpool_576.txt	LTP283	ltpFR2	16	16	JUNGLE	764	n/a	n/a	0	0	0
3354701	WORD	wordpools/wasnorm_wordpool_576.txt	LTP283	ltpFR2	16	16	SUBWAY	1400	n/a	n/a	0	0	0
3357538	WORD	wordpools/wasnorm_wordpool_576.txt	LTP283	ltpFR2	16	16	PARROT	1015	n/a	n/a	0	0	0
3360215	WORD	wordpools/wasnorm_wordpool_576.txt	LTP283	ltpFR2	16	16	SNAIL	1332	n/a	n/a	0	0	0
3362941	WORD	wordpools/wasnorm_wordpool_576.txt	LTP283	ltpFR2	16	16	SANDWICH	1232	n/a	n/a	0	0	0
3364578	START	n/a	LTP283	ltpFR2	16	n/a	n/a	n/a	24	n/a	n/a	n/a	n/a
3365454	DISTRACTOR	n/a	LTP283	ltpFR2	16	16	n/a	n/a	n/a	n/a	0	0	0
3365494	PROB	n/a	LTP283	ltpFR2	16	n/a	n/a	n/a	24	14	1	9	4
3367650	PROB	n/a	LTP283	ltpFR2	16	n/a	n/a	n/a	24	14	5	1	8
3369446	PROB	n/a	LTP283	ltpFR2	16	n/a	n/a	n/a	24	23	5	9	9
3372150	PROB	n/a	LTP283	ltpFR2	16	n/a	n/a	n/a	24	18	9	2	7
3373816	PROB	n/a	LTP283	ltpFR2	16	n/a	n/a	n/a	24	20	7	7	6
3375159	PROB	n/a	LTP283	ltpFR2	16	n/a	n/a	n/a	24	20	7	7	6
3376485	PROB	n/a	LTP283	ltpFR2	16	n/a	n/a	n/a	24	17	2	7	8
3378271	PROB	n/a	LTP283	ltpFR2	16	n/a	n/a	n/a	24	13	4	3	6
3379822	PROB	n/a	LTP283	ltpFR2	16	n/a	n/a	n/a	24	19	9	5	5
3381248	PROB	n/a	LTP283	ltpFR2	16	n/a	n/a	n/a	24	15	6	4	5
3382724	PROB	n/a	LTP283	ltpFR2	16	n/a	n/a	n/a	24	21	8	4	9
3384109	PROB	n/a	LTP283	ltpFR2	16	n/a	n/a	n/a	24	23	8	8	7
3386285	PROB	n/a	LTP283	ltpFR2	16	n/a	n/a	n/a	24	8	2	3	3
3387658	STOP	n/a	LTP283	ltpFR2	16	n/a	n/a	n/a	24	n/a	n/a	n/a	n/a
3390622	REC_START	n/a	LTP283	ltpFR2	16	16	n/a	n/a	n/a	n/a	0	0	0
3392382	REC_WORD	wordpools/wasnorm_wordpool_576.txt	LTP283	ltpFR2	16	16	PARROT	1015	n/a	n/a	0	0	0
3392857	REC_WORD	wordpools/wasnorm_wordpool_576.txt	LTP283	ltpFR2	16	16	SNAIL	1332	n/a	n/a	0	0	0
3393622	REC_WORD	wordpools/wasnorm_wordpool_576.txt	LTP283	ltpFR2	16	16	MARSH	874	n/a	n/a	0	0	0
3394591	REC_WORD	wordpools/wasnorm_wordpool_576.txt	LTP283	ltpFR2	16	16	JUNGLE	764	n/a	n/a	0	0	0
3398639	REC_WORD	wordpools/wasnorm_wordpool_576.txt	LTP283	ltpFR2	16	16	FRIEND	606	n/a	n/a	0	0	0
3399255	REC_WORD	wordpools/wasnorm_wordpool_576.txt	LTP283	ltpFR2	16	16	CEILING	265	n/a	n/a	0	0	0
3400273	REC_WORD	wordpools/wasnorm_wordpool_576.txt	LTP283	ltpFR2	16	16	GROUND	666	n/a	n/a	0	0	0
3401110	REC_WORD	wordpools/wasnorm_wordpool_576.txt	LTP283	ltpFR2	16	16	BARLEY	88	n/a	n/a	0	0	0
3403489	REC_WORD	wordpools/wasnorm_wordpool_576.txt	LTP283	ltpFR2	16	16	PIZZA	1079	n/a	n/a	0	0	0
3403927	REC_WORD	wordpools/wasnorm_wordpool_576.txt	LTP283	ltpFR2	16	16	PERCH	1048	n/a	n/a	0	0	0
3404396	REC_WORD	wordpools/wasnorm_wordpool_576.txt	LTP283	ltpFR2	16	16	PEDAL	1037	n/a	n/a	0	0	0
3404907	REC_WORD	wordpools/wasnorm_wordpool_576.txt	LTP283	ltpFR2	16	16	SPONGE	1355	n/a	n/a	0	0	0
3406285	REC_WORD	wordpools/wasnorm_wordpool_576.txt	LTP283	ltpFR2	16	16	NAPKIN	937	n/a	n/a	0	0	0
3406866	REC_WORD	wordpools/wasnorm_wordpool_576.txt	LTP283	ltpFR2	16	16	HARP	689	n/a	n/a	0	0	0
3409315	REC_WORD	wordpools/wasnorm_wordpool_576.txt	LTP283	ltpFR2	16	16	SANDWICH	1232	n/a	n/a	0	0	0
3410315	REC_WORD_VV	wordpools/wasnorm_wordpool_576.txt	LTP283	ltpFR2	16	16	<>	-1	n/a	n/a	0	0	0
3411141	REC_WORD	wordpools/wasnorm_wordpool_576.txt	LTP283	ltpFR2	16	16	SALAD	1224	n/a	n/a	0	0	0
3413723	REC_WORD	wordpools/wasnorm_wordpool_576.txt	LTP283	ltpFR2	16	16	TWISTER	1530	n/a	n/a	0	0	0
3414247	REC_WORD	wordpools/wasnorm_wordpool_576.txt	LTP283	ltpFR2	16	16	CYCLONE	431	n/a	n/a	0	0	0
3424293	REC_WORD	wordpools/wasnorm_wordpool_576.txt	LTP283	ltpFR2	16	16	LEOPARD	812	n/a	n/a	0	0	0
3467227	REST_REWET	n/a	LTP283	ltpFR2	16	16	n/a	n/a	n/a	n/a	0	0	0
3699894	WORD	wordpools/wasnorm_wordpool_576.txt	LTP283	ltpFR2	16	17	CATTLE	261	n/a	n/a	0	0	0
3702730	WORD	wordpools/wasnorm_wordpool_576.txt	LTP283	ltpFR2	16	17	COMPASS	358	n/a	n/a	0	0	0
3705465	WORD	wordpools/wasnorm_wordpool_576.txt	LTP283	ltpFR2	16	17	BUG	187	n/a	n/a	0	0	0
3708084	WORD	wordpools/wasnorm_wordpool_576.txt	LTP283	ltpFR2	16	17	SHOULDER	1294	n/a	n/a	0	0	0
3710569	WORD	wordpools/wasnorm_wordpool_576.txt	LTP283	ltpFR2	16	17	IGLOO	734	n/a	n/a	0	0	0
3713273	WORD	wordpools/wasnorm_wordpool_576.txt	LTP283	ltpFR2	16	17	SKIRT	1319	n/a	n/a	0	0	0
3716091	WORD	wordpools/wasnorm_wordpool_576.txt	LTP283	ltpFR2	16	17	DRESS	495	n/a	n/a	0	0	0
3718727	WORD	wordpools/wasnorm_wordpool_576.txt	LTP283	ltpFR2	16	17	SLIDE	1326	n/a	n/a	0	0	0
3721511	WORD	wordpools/wasnorm_wordpool_576.txt	LTP283	ltpFR2	16	17	PADDING	999	n/a	n/a	0	0	0
3724382	WORD	wordpools/wasnorm_wordpool_576.txt	LTP283	ltpFR2	16	17	FLIPPER	580	n/a	n/a	0	0	0
3726933	WORD	wordpools/wasnorm_wordpool_576.txt	LTP283	ltpFR2	16	17	OX	994	n/a	n/a	0	0	0
3729625	WORD	wordpools/wasnorm_wordpool_576.txt	LTP283	ltpFR2	16	17	DUST	508	n/a	n/a	0	0	0
3732437	WORD	wordpools/wasnorm_wordpool_576.txt	LTP283	ltpFR2	16	17	HELMET	702	n/a	n/a	0	0	0
3735132	WORD	wordpools/wasnorm_wordpool_576.txt	LTP283	ltpFR2	16	17	TEMPLE	1448	n/a	n/a	0	0	0
3737625	WORD	wordpools/wasnorm_wordpool_576.txt	LTP283	ltpFR2	16	17	CLAMP	316	n/a	n/a	0	0	0
3740477	WORD	wordpools/wasnorm_wordpool_576.txt	LTP283	ltpFR2	16	17	BUCKET	184	n/a	n/a	0	0	0
3742979	WORD	wordpools/wasnorm_wordpool_576.txt	LTP283	ltpFR2	16	17	COBRA	336	n/a	n/a	0	0	0
3745673	WORD	wordpools/wasnorm_wordpool_576.txt	LTP283	ltpFR2	16	17	CRICKET	408	n/a	n/a	0	0	0
3748517	WORD	wordpools/wasnorm_wordpool_576.txt	LTP283	ltpFR2	16	17	PACKAGE	997	n/a	n/a	0	0	0
3751069	WORD	wordpools/wasnorm_wordpool_576.txt	LTP283	ltpFR2	16	17	SWITCH	1422	n/a	n/a	0	0	0
3753762	WORD	wordpools/wasnorm_wordpool_576.txt	LTP283	ltpFR2	16	17	KITCHEN	778	n/a	n/a	0	0	0
3756573	WORD	wordpools/wasnorm_wordpool_576.txt	LTP283	ltpFR2	16	17	COD	340	n/a	n/a	0	0	0
3759268	WORD	wordpools/wasnorm_wordpool_576.txt	LTP283	ltpFR2	16	17	FARMER	553	n/a	n/a	0	0	0
3762077	WORD	wordpools/wasnorm_wordpool_576.txt	LTP283	ltpFR2	16	17	TRACTOR	1493	n/a	n/a	0	0	0
3763713	START	n/a	LTP283	ltpFR2	16	n/a	n/a	n/a	25	n/a	n/a	n/a	n/a
3764532	DISTRACTOR	n/a	LTP283	ltpFR2	16	17	n/a	n/a	n/a	n/a	0	0	0
3764580	PROB	n/a	LTP283	ltpFR2	16	n/a	n/a	n/a	25	14	2	3	9
3766538	PROB	n/a	LTP283	ltpFR2	16	n/a	n/a	n/a	25	12	4	7	1
3769134	PROB	n/a	LTP283	ltpFR2	16	n/a	n/a	n/a	25	11	5	3	3
3771452	PROB	n/a	LTP283	ltpFR2	16	n/a	n/a	n/a	25	14	3	2	9
3773104	PROB	n/a	LTP283	ltpFR2	16	n/a	n/a	n/a	25	20	8	3	9
3774471	PROB	n/a	LTP283	ltpFR2	16	n/a	n/a	n/a	25	13	1	8	4
3776206	PROB	n/a	LTP283	ltpFR2	16	n/a	n/a	n/a	25	17	2	6	9
3778141	PROB	n/a	LTP283	ltpFR2	16	n/a	n/a	n/a	25	14	4	3	7
3779542	PROB	n/a	LTP283	ltpFR2	16	n/a	n/a	n/a	25	15	8	2	5
3781449	PROB	n/a	LTP283	ltpFR2	16	n/a	n/a	n/a	25	9	1	3	5
3783011	PROB	n/a	LTP283	ltpFR2	16	n/a	n/a	n/a	25	18	9	2	7
3784802	PROB	n/a	LTP283	ltpFR2	16	n/a	n/a	n/a	25	19	5	8	6
3787186	STOP	n/a	LTP283	ltpFR2	16	n/a	n/a	n/a	25	n/a	n/a	n/a	n/a
3789633	REC_START	n/a	LTP283	ltpFR2	16	17	n/a	n/a	n/a	n/a	0	0	0
3792791	REC_WORD	wordpools/wasnorm_wordpool_576.txt	LTP283	ltpFR2	16	17	FARMER	553	n/a	n/a	0	0	0
3793256	REC_WORD	wordpools/wasnorm_wordpool_576.txt	LTP283	ltpFR2	16	17	TRACTOR	1493	n/a	n/a	0	0	0
3798483	REC_WORD	wordpools/wasnorm_wordpool_576.txt	LTP283	ltpFR2	16	17	CATTLE	261	n/a	n/a	0	0	0
3799242	REC_WORD	wordpools/wasnorm_wordpool_576.txt	LTP283	ltpFR2	16	17	BUG	187	n/a	n/a	0	0	0
3799501	REC_WORD	wordpools/wasnorm_wordpool_576.txt	LTP283	ltpFR2	16	17	SHOULDER	1294	n/a	n/a	0	0	0
3800149	REC_WORD	wordpools/wasnorm_wordpool_576.txt	LTP283	ltpFR2	16	17	COMPASS	358	n/a	n/a	0	0	0
3802303	REC_WORD	wordpools/wasnorm_wordpool_576.txt	LTP283	ltpFR2	16	17	IGLOO	734	n/a	n/a	0	0	0
3804577	REC_WORD	wordpools/wasnorm_wordpool_576.txt	LTP283	ltpFR2	16	17	SLIDE	1326	n/a	n/a	0	0	0
3805821	REC_WORD	wordpools/wasnorm_wordpool_576.txt	LTP283	ltpFR2	16	17	SKIRT	1319	n/a	n/a	0	0	0
3806586	REC_WORD	wordpools/wasnorm_wordpool_576.txt	LTP283	ltpFR2	16	17	DRESS	495	n/a	n/a	0	0	0
3807244	REC_WORD	wordpools/wasnorm_wordpool_576.txt	LTP283	ltpFR2	16	17	PADDING	999	n/a	n/a	0	0	0
3807755	REC_WORD	wordpools/wasnorm_wordpool_576.txt	LTP283	ltpFR2	16	17	HELMET	702	n/a	n/a	0	0	0
3809669	REC_WORD	wordpools/wasnorm_wordpool_576.txt	LTP283	ltpFR2	16	17	OX	994	n/a	n/a	0	0	0
3811025	REC_WORD	wordpools/wasnorm_wordpool_576.txt	LTP283	ltpFR2	16	17	DUST	508	n/a	n/a	0	0	0
3814598	REC_WORD	wordpools/wasnorm_wordpool_576.txt	LTP283	ltpFR2	16	17	COD	340	n/a	n/a	0	0	0
3815070	REC_WORD	wordpools/wasnorm_wordpool_576.txt	LTP283	ltpFR2	16	17	COBRA	336	n/a	n/a	0	0	0
3815675	REC_WORD	wordpools/wasnorm_wordpool_576.txt	LTP283	ltpFR2	16	17	BUCKET	184	n/a	n/a	0	0	0
3816785	REC_WORD	wordpools/wasnorm_wordpool_576.txt	LTP283	ltpFR2	16	17	CRICKET	408	n/a	n/a	0	0	0
3817391	REC_WORD	wordpools/wasnorm_wordpool_576.txt	LTP283	ltpFR2	16	17	CLAMP	316	n/a	n/a	0	0	0
3821092	REC_WORD	wordpools/wasnorm_wordpool_576.txt	LTP283	ltpFR2	16	17	KITCHEN	778	n/a	n/a	0	0	0
3834548	REC_WORD	wordpools/wasnorm_wordpool_576.txt	LTP283	ltpFR2	16	17	FLIPPER	580	n/a	n/a	0	0	0
3842857	REC_WORD	wordpools/wasnorm_wordpool_576.txt	LTP283	ltpFR2	16	17	TEMPLE	1448	n/a	n/a	0	0	0
3880573	DISTRACTOR	n/a	LTP283	ltpFR2	16	18	n/a	n/a	n/a	n/a	0	0	0
3880573	START	n/a	LTP283	ltpFR2	16	n/a	n/a	n/a	26	n/a	n/a	n/a	n/a
3880639	PROB	n/a	LTP283	ltpFR2	16	n/a	n/a	n/a	26	11	1	1	9
3882807	PROB	n/a	LTP283	ltpFR2	16	n/a	n/a	n/a	26	18	8	6	4
3884392	PROB	n/a	LTP283	ltpFR2	16	n/a	n/a	n/a	26	12	5	2	5
3885960	PROB	n/a	LTP283	ltpFR2	16	n/a	n/a	n/a	26	14	6	5	3
3888212	PROB	n/a	LTP283	ltpFR2	16	n/a	n/a	n/a	26	22	8	6	8
3890364	PROB	n/a	LTP283	ltpFR2	16	n/a	n/a	n/a	26	19	7	4	8
3892772	PROB	n/a	LTP283	ltpFR2	16	n/a	n/a	n/a	26	20	4	8	8
3894033	PROB	n/a	LTP283	ltpFR2	16	n/a	n/a	n/a	26	18	5	4	9
3895617	PROB	n/a	LTP283	ltpFR2	16	n/a	n/a	n/a	26	20	8	5	7
3896901	PROB	n/a	LTP283	ltpFR2	16	n/a	n/a	n/a	26	12	7	1	4
3898437	PROB	n/a	LTP283	ltpFR2	16	n/a	n/a	n/a	26	13	3	2	8
3900306	PROB	n/a	LTP283	ltpFR2	16	n/a	n/a	n/a	26	12	1	8	3
3902539	PROB	n/a	LTP283	ltpFR2	16	n/a	n/a	n/a	26	14	4	4	6
3904375	STOP	n/a	LTP283	ltpFR2	16	n/a	n/a	n/a	26	n/a	n/a	n/a	n/a
3905927	WORD	wordpools/wasnorm_wordpool_576.txt	LTP283	ltpFR2	16	18	TUTU	1524	n/a	n/a	0	0	0
3908712	WORD	wordpools/wasnorm_wordpool_576.txt	LTP283	ltpFR2	16	18	RADISH	1158	n/a	n/a	0	0	0
3911447	WORD	wordpools/wasnorm_wordpool_576.txt	LTP283	ltpFR2	16	18	ELBOW	520	n/a	n/a	0	0	0
3914150	WORD	wordpools/wasnorm_wordpool_576.txt	LTP283	ltpFR2	16	18	SUMMIT	1405	n/a	n/a	0	0	0
3916684	WORD	wordpools/wasnorm_wordpool_576.txt	LTP283	ltpFR2	16	18	HIGHWAY	707	n/a	n/a	0	0	0
3919379	WORD	wordpools/wasnorm_wordpool_576.txt	LTP283	ltpFR2	16	18	WORKER	1621	n/a	n/a	0	0	0
3922207	WORD	wordpools/wasnorm_wordpool_576.txt	LTP283	ltpFR2	16	18	BANQUET	86	n/a	n/a	0	0	0
3924708	WORD	wordpools/wasnorm_wordpool_576.txt	LTP283	ltpFR2	16	18	COOKBOOK	373	n/a	n/a	0	0	0
3927594	WORD	wordpools/wasnorm_wordpool_576.txt	LTP283	ltpFR2	16	18	PEBBLE	1035	n/a	n/a	0	0	0
3930347	WORD	wordpools/wasnorm_wordpool_576.txt	LTP283	ltpFR2	16	18	VAGRANT	1544	n/a	n/a	0	0	0
3933098	WORD	wordpools/wasnorm_wordpool_576.txt	LTP283	ltpFR2	16	18	EYELASH	546	n/a	n/a	0	0	0
3935791	WORD	wordpools/wasnorm_wordpool_576.txt	LTP283	ltpFR2	16	18	DANCER	437	n/a	n/a	0	0	0
3938635	WORD	wordpools/wasnorm_wordpool_576.txt	LTP283	ltpFR2	16	18	CLOCK	325	n/a	n/a	0	0	0
3941454	WORD	wordpools/wasnorm_wordpool_576.txt	LTP283	ltpFR2	16	18	GUARD	667	n/a	n/a	0	0	0
3944207	WORD	wordpools/wasnorm_wordpool_576.txt	LTP283	ltpFR2	16	18	GHETTO	633	n/a	n/a	0	0	0
3946925	WORD	wordpools/wasnorm_wordpool_576.txt	LTP283	ltpFR2	16	18	LIZARD	834	n/a	n/a	0	0	0
3949710	WORD	wordpools/wasnorm_wordpool_576.txt	LTP283	ltpFR2	16	18	BRANCH	168	n/a	n/a	0	0	0
3952564	WORD	wordpools/wasnorm_wordpool_576.txt	LTP283	ltpFR2	16	18	PRINCESS	1125	n/a	n/a	0	0	0
3955066	WORD	wordpools/wasnorm_wordpool_576.txt	LTP283	ltpFR2	16	18	GARBAGE	622	n/a	n/a	0	0	0
3957800	WORD	wordpools/wasnorm_wordpool_576.txt	LTP283	ltpFR2	16	18	DRESSER	496	n/a	n/a	0	0	0
3960304	WORD	wordpools/wasnorm_wordpool_576.txt	LTP283	ltpFR2	16	18	WASHER	1592	n/a	n/a	0	0	0
3962855	WORD	wordpools/wasnorm_wordpool_576.txt	LTP283	ltpFR2	16	18	MARKER	870	n/a	n/a	0	0	0
3965358	WORD	wordpools/wasnorm_wordpool_576.txt	LTP283	ltpFR2	16	18	MEDAL	885	n/a	n/a	0	0	0
3967909	WORD	wordpools/wasnorm_wordpool_576.txt	LTP283	ltpFR2	16	18	SLOPE	1328	n/a	n/a	0	0	0
3969544	START	n/a	LTP283	ltpFR2	16	n/a	n/a	n/a	27	n/a	n/a	n/a	n/a
3970733	DISTRACTOR	n/a	LTP283	ltpFR2	16	18	n/a	n/a	n/a	n/a	0	0	0
3970778	PROB	n/a	LTP283	ltpFR2	16	n/a	n/a	n/a	27	22	8	8	6
3972896	PROB	n/a	LTP283	ltpFR2	16	n/a	n/a	n/a	27	16	8	1	7
3974481	PROB	n/a	LTP283	ltpFR2	16	n/a	n/a	n/a	27	25	7	8	9
3976717	PROB	n/a	LTP283	ltpFR2	16	n/a	n/a	n/a	27	14	1	7	6
3978252	PROB	n/a	LTP283	ltpFR2	16	n/a	n/a	n/a	27	14	8	2	4
3979635	PROB	n/a	LTP283	ltpFR2	16	n/a	n/a	n/a	27	19	8	8	3
3981404	PROB	n/a	LTP283	ltpFR2	16	n/a	n/a	n/a	27	16	8	3	5
3983255	PROB	n/a	LTP283	ltpFR2	16	n/a	n/a	n/a	27	16	9	5	2
3986207	PROB	n/a	LTP283	ltpFR2	16	n/a	n/a	n/a	27	19	7	9	3
3987858	PROB	n/a	LTP283	ltpFR2	16	n/a	n/a	n/a	27	11	1	1	9
3989042	PROB	n/a	LTP283	ltpFR2	16	n/a	n/a	n/a	27	16	8	5	3
3990584	PROB	n/a	LTP283	ltpFR2	16	n/a	n/a	n/a	27	17	4	8	5
3992033	STOP	n/a	LTP283	ltpFR2	16	n/a	n/a	n/a	27	n/a	n/a	n/a	n/a
3995564	REC_START	n/a	LTP283	ltpFR2	16	18	n/a	n/a	n/a	n/a	0	0	0
4001822	REC_WORD	wordpools/wasnorm_wordpool_576.txt	LTP283	ltpFR2	16	18	TUTU	1524	n/a	n/a	0	0	0
4002515	REC_WORD	wordpools/wasnorm_wordpool_576.txt	LTP283	ltpFR2	16	18	SUMMIT	1405	n/a	n/a	0	0	0
4003577	REC_WORD	wordpools/wasnorm_wordpool_576.txt	LTP283	ltpFR2	16	18	ELBOW	520	n/a	n/a	0	0	0
4004390	REC_WORD	wordpools/wasnorm_wordpool_576.txt	LTP283	ltpFR2	16	18	WORKER	1621	n/a	n/a	0	0	0
4005730	REC_WORD	wordpools/wasnorm_wordpool_576.txt	LTP283	ltpFR2	16	18	EYELASH	546	n/a	n/a	0	0	0
4006330	REC_WORD	wordpools/wasnorm_wordpool_576.txt	LTP283	ltpFR2	16	18	PEBBLE	1035	n/a	n/a	0	0	0
4012015	REC_WORD	wordpools/wasnorm_wordpool_576.txt	LTP283	ltpFR2	16	18	GUARD	667	n/a	n/a	0	0	0
4014807	REC_WORD	wordpools/wasnorm_wordpool_576.txt	LTP283	ltpFR2	16	18	DRESSER	496	n/a	n/a	0	0	0
4017090	REC_WORD	wordpools/wasnorm_wordpool_576.txt	LTP283	ltpFR2	16	18	WASHER	1592	n/a	n/a	0	0	0
4018640	REC_WORD	wordpools/wasnorm_wordpool_576.txt	LTP283	ltpFR2	16	18	MARKER	870	n/a	n/a	0	0	0
4019347	REC_WORD	wordpools/wasnorm_wordpool_576.txt	LTP283	ltpFR2	16	18	MEDAL	885	n/a	n/a	0	0	0
4024481	REC_WORD	wordpools/wasnorm_wordpool_576.txt	LTP283	ltpFR2	16	18	HIGHWAY	707	n/a	n/a	0	0	0
4086571	WORD	wordpools/wasnorm_wordpool_576.txt	LTP283	ltpFR2	16	19	STATUE	1374	n/a	n/a	0	0	0
4089207	WORD	wordpools/wasnorm_wordpool_576.txt	LTP283	ltpFR2	16	19	FRIAR	605	n/a	n/a	0	0	0
4091898	WORD	wordpools/wasnorm_wordpool_576.txt	LTP283	ltpFR2	16	19	MACHINE	852	n/a	n/a	0	0	0
4094644	WORD	wordpools/wasnorm_wordpool_576.txt	LTP283	ltpFR2	16	19	HAMPER	682	n/a	n/a	0	0	0
4097338	WORD	wordpools/wasnorm_wordpool_576.txt	LTP283	ltpFR2	16	19	WINDOW	1611	n/a	n/a	0	0	0
4099848	WORD	wordpools/wasnorm_wordpool_576.txt	LTP283	ltpFR2	16	19	GLASS	639	n/a	n/a	0	0	0
4102716	WORD	wordpools/wasnorm_wordpool_576.txt	LTP283	ltpFR2	16	19	CHURCH	307	n/a	n/a	0	0	0
4105319	WORD	wordpools/wasnorm_wordpool_576.txt	LTP283	ltpFR2	16	19	PASSAGE	1019	n/a	n/a	0	0	0
4108021	WORD	wordpools/wasnorm_wordpool_576.txt	LTP283	ltpFR2	16	19	TRENCH	1503	n/a	n/a	0	0	0
4110657	WORD	wordpools/wasnorm_wordpool_576.txt	LTP283	ltpFR2	16	19	MISSILE	900	n/a	n/a	0	0	0
4113441	WORD	wordpools/wasnorm_wordpool_576.txt	LTP283	ltpFR2	16	19	OFFICE	972	n/a	n/a	0	0	0
4116295	WORD	wordpools/wasnorm_wordpool_576.txt	LTP283	ltpFR2	16	19	SUNRISE	1407	n/a	n/a	0	0	0
4119080	WORD	wordpools/wasnorm_wordpool_576.txt	LTP283	ltpFR2	16	19	CLOTHES	327	n/a	n/a	0	0	0
4121848	WORD	wordpools/wasnorm_wordpool_576.txt	LTP283	ltpFR2	16	19	NOVEL	960	n/a	n/a	0	0	0
4124552	WORD	wordpools/wasnorm_wordpool_576.txt	LTP283	ltpFR2	16	19	AUTHOR	61	n/a	n/a	0	0	0
4127104	WORD	wordpools/wasnorm_wordpool_576.txt	LTP283	ltpFR2	16	19	TEACHER	1440	n/a	n/a	0	0	0
4129738	WORD	wordpools/wasnorm_wordpool_576.txt	LTP283	ltpFR2	16	19	ROCKET	1202	n/a	n/a	0	0	0
4132375	WORD	wordpools/wasnorm_wordpool_576.txt	LTP283	ltpFR2	16	19	BROTHER	179	n/a	n/a	0	0	0
4134909	WORD	wordpools/wasnorm_wordpool_576.txt	LTP283	ltpFR2	16	19	DINER	467	n/a	n/a	0	0	0
4137397	WORD	wordpools/wasnorm_wordpool_576.txt	LTP283	ltpFR2	16	19	DANDRUFF	439	n/a	n/a	0	0	0
4140088	WORD	wordpools/wasnorm_wordpool_576.txt	LTP283	ltpFR2	16	19	PLUTO	1092	n/a	n/a	0	0	0
4142666	WORD	wordpools/wasnorm_wordpool_576.txt	LTP283	ltpFR2	16	19	COMET	353	n/a	n/a	0	0	0
4145269	WORD	wordpools/wasnorm_wordpool_576.txt	LTP283	ltpFR2	16	19	RUST	1219	n/a	n/a	0	0	0
4148154	WORD	wordpools/wasnorm_wordpool_576.txt	LTP283	ltpFR2	16	19	PIMPLE	1071	n/a	n/a	0	0	0
4149789	START	n/a	LTP283	ltpFR2	16	n/a	n/a	n/a	28	n/a	n/a	n/a	n/a
4150888	DISTRACTOR	n/a	LTP283	ltpFR2	16	19	n/a	n/a	n/a	n/a	0	0	0
4150922	PROB	n/a	LTP283	ltpFR2	16	n/a	n/a	n/a	28	6	3	2	1
4153225	PROB	n/a	LTP283	ltpFR2	16	n/a	n/a	n/a	28	13	2	3	8
4154792	PROB	n/a	LTP283	ltpFR2	16	n/a	n/a	n/a	28	15	9	3	3
4156277	PROB	n/a	LTP283	ltpFR2	16	n/a	n/a	n/a	28	19	8	3	8
4157944	PROB	n/a	LTP283	ltpFR2	16	n/a	n/a	n/a	28	16	2	8	6
4159813	PROB	n/a	LTP283	ltpFR2	16	n/a	n/a	n/a	28	13	3	3	7
4161414	PROB	n/a	LTP283	ltpFR2	16	n/a	n/a	n/a	28	11	2	5	4
4163665	PROB	n/a	LTP283	ltpFR2	16	n/a	n/a	n/a	28	23	9	9	5
4166567	PROB	n/a	LTP283	ltpFR2	16	n/a	n/a	n/a	28	14	5	2	7
4168403	PROB	n/a	LTP283	ltpFR2	16	n/a	n/a	n/a	28	20	7	4	9
4170938	PROB	n/a	LTP283	ltpFR2	16	n/a	n/a	n/a	28	9	2	5	2
4172273	PROB	n/a	LTP283	ltpFR2	16	n/a	n/a	n/a	28	18	9	2	7
4173640	STOP	n/a	LTP283	ltpFR2	16	n/a	n/a	n/a	28	n/a	n/a	n/a	n/a
4175917	REC_START	n/a	LTP283	ltpFR2	16	19	n/a	n/a	n/a	n/a	0	0	0
4177323	REC_WORD	wordpools/wasnorm_wordpool_576.txt	LTP283	ltpFR2	16	19	PLUTO	1092	n/a	n/a	0	0	0
4178037	REC_WORD	wordpools/wasnorm_wordpool_576.txt	LTP283	ltpFR2	16	19	COMET	353	n/a	n/a	0	0	0
4178731	REC_WORD	wordpools/wasnorm_wordpool_576.txt	LTP283	ltpFR2	16	19	BROTHER	179	n/a	n/a	0	0	0
4179195	REC_WORD	wordpools/wasnorm_wordpool_576.txt	LTP283	ltpFR2	16	19	FRIAR	605	n/a	n/a	0	0	0
4179822	REC_WORD	wordpools/wasnorm_wordpool_576.txt	LTP283	ltpFR2	16	19	STATUE	1374	n/a	n/a	0	0	0
4180822	REC_WORD_VV	wordpools/wasnorm_wordpool_576.txt	LTP283	ltpFR2	16	19	<>	-1	n/a	n/a	0	0	0
4184043	REC_WORD	wordpools/wasnorm_wordpool_576.txt	LTP283	ltpFR2	16	19	HAMPER	682	n/a	n/a	0	0	0
4184531	REC_WORD	wordpools/wasnorm_wordpool_576.txt	LTP283	ltpFR2	16	19	MACHINE	852	n/a	n/a	0	0	0
4185235	REC_WORD	wordpools/wasnorm_wordpool_576.txt	LTP283	ltpFR2	16	19	CHURCH	307	n/a	n/a	0	0	0
4186042	REC_WORD	wordpools/wasnorm_wordpool_576.txt	LTP283	ltpFR2	16	19	PASSAGE	1019	n/a	n/a	0	0	0
4187123	REC_WORD	wordpools/wasnorm_wordpool_576.txt	LTP283	ltpFR2	16	19	OFFICE	972	n/a	n/a	0	0	0
4187713	REC_WORD	wordpools/wasnorm_wordpool_576.txt	LTP283	ltpFR2	16	19	SUNRISE	1407	n/a	n/a	0	0	0
4188696	REC_WORD	wordpools/wasnorm_wordpool_576.txt	LTP283	ltpFR2	16	19	AUTHOR	61	n/a	n/a	0	0	0
4189184	REC_WORD	wordpools/wasnorm_wordpool_576.txt	LTP283	ltpFR2	16	19	NOVEL	960	n/a	n/a	0	0	0
4200071	REC_WORD	wordpools/wasnorm_wordpool_576.txt	LTP283	ltpFR2	16	19	GLASS	639	n/a	n/a	0	0	0
4200683	REC_WORD	wordpools/wasnorm_wordpool_576.txt	LTP283	ltpFR2	16	19	WINDOW	1611	n/a	n/a	0	0	0
4203825	REC_WORD	wordpools/wasnorm_wordpool_576.txt	LTP283	ltpFR2	16	19	DINER	467	n/a	n/a	0	0	0
4208107	REC_WORD	wordpools/wasnorm_wordpool_576.txt	LTP283	ltpFR2	16	19	RUST	1219	n/a	n/a	0	0	0
4213036	REC_WORD	wordpools/wasnorm_wordpool_576.txt	LTP283	ltpFR2	16	19	CLOTHES	327	n/a	n/a	0	0	0
4220936	REC_WORD	wordpools/wasnorm_wordpool_576.txt	LTP283	ltpFR2	16	19	TEACHER	1440	n/a	n/a	0	0	0
4223483	REC_WORD	wordpools/wasnorm_wordpool_576.txt	LTP283	ltpFR2	16	19	CHURCH	307	n/a	n/a	0	0	0
4266914	WORD	wordpools/wasnorm_wordpool_576.txt	LTP283	ltpFR2	16	20	EAGLE	512	n/a	n/a	0	0	0
4269784	WORD	wordpools/wasnorm_wordpool_576.txt	LTP283	ltpFR2	16	20	BANJO	82	n/a	n/a	0	0	0
4272519	WORD	wordpools/wasnorm_wordpool_576.txt	LTP283	ltpFR2	16	20	TROMBONE	1508	n/a	n/a	0	0	0
4275356	WORD	wordpools/wasnorm_wordpool_576.txt	LTP283	ltpFR2	16	20	PICNIC	1060	n/a	n/a	0	0	0
4278108	WORD	wordpools/wasnorm_wordpool_576.txt	LTP283	ltpFR2	16	20	UNCLE	1536	n/a	n/a	0	0	0
4280975	WORD	wordpools/wasnorm_wordpool_576.txt	LTP283	ltpFR2	16	20	STONE	1385	n/a	n/a	0	0	0
4283778	WORD	wordpools/wasnorm_wordpool_576.txt	LTP283	ltpFR2	16	20	SNACK	1331	n/a	n/a	0	0	0
4286597	WORD	wordpools/wasnorm_wordpool_576.txt	LTP283	ltpFR2	16	20	SUITCASE	1403	n/a	n/a	0	0	0
4289417	WORD	wordpools/wasnorm_wordpool_576.txt	LTP283	ltpFR2	16	20	PEACH	1031	n/a	n/a	0	0	0
4292286	WORD	wordpools/wasnorm_wordpool_576.txt	LTP283	ltpFR2	16	20	MISTER	901	n/a	n/a	0	0	0
4295122	WORD	wordpools/wasnorm_wordpool_576.txt	LTP283	ltpFR2	16	20	HEART	697	n/a	n/a	0	0	0
4297889	WORD	wordpools/wasnorm_wordpool_576.txt	LTP283	ltpFR2	16	20	FIREPLACE	570	n/a	n/a	0	0	0
4300582	WORD	wordpools/wasnorm_wordpool_576.txt	LTP283	ltpFR2	16	20	MATCH	878	n/a	n/a	0	0	0
4303128	WORD	wordpools/wasnorm_wordpool_576.txt	LTP283	ltpFR2	16	20	GOBLIN	645	n/a	n/a	0	0	0
4305678	WORD	wordpools/wasnorm_wordpool_576.txt	LTP283	ltpFR2	16	20	LEG	809	n/a	n/a	0	0	0
4308481	WORD	wordpools/wasnorm_wordpool_576.txt	LTP283	ltpFR2	16	20	POPCORN	1104	n/a	n/a	0	0	0
4311335	WORD	wordpools/wasnorm_wordpool_576.txt	LTP283	ltpFR2	16	20	SEAFOOD	1260	n/a	n/a	0	0	0
4313969	WORD	wordpools/wasnorm_wordpool_576.txt	LTP283	ltpFR2	16	20	LAKE	796	n/a	n/a	0	0	0
4316676	WORD	wordpools/wasnorm_wordpool_576.txt	LTP283	ltpFR2	16	20	EXPERT	543	n/a	n/a	0	0	0
4319225	WORD	wordpools/wasnorm_wordpool_576.txt	LTP283	ltpFR2	16	20	CONVICT	371	n/a	n/a	0	0	0
4321825	WORD	wordpools/wasnorm_wordpool_576.txt	LTP283	ltpFR2	16	20	PEANUT	1032	n/a	n/a	0	0	0
4324519	WORD	wordpools/wasnorm_wordpool_576.txt	LTP283	ltpFR2	16	20	FOOT	590	n/a	n/a	0	0	0
4327247	WORD	wordpools/wasnorm_wordpool_576.txt	LTP283	ltpFR2	16	20	ACTRESS	6	n/a	n/a	0	0	0
4329849	WORD	wordpools/wasnorm_wordpool_576.txt	LTP283	ltpFR2	16	20	NECKLACE	940	n/a	n/a	0	0	0
4331485	START	n/a	LTP283	ltpFR2	16	n/a	n/a	n/a	29	n/a	n/a	n/a	n/a
4332381	DISTRACTOR	n/a	LTP283	ltpFR2	16	20	n/a	n/a	n/a	n/a	0	0	0
4332418	PROB	n/a	LTP283	ltpFR2	16	n/a	n/a	n/a	29	18	7	3	8
4334209	PROB	n/a	LTP283	ltpFR2	16	n/a	n/a	n/a	29	20	9	9	2
4335594	PROB	n/a	LTP283	ltpFR2	16	n/a	n/a	n/a	29	14	9	4	1
4337388	PROB	n/a	LTP283	ltpFR2	16	n/a	n/a	n/a	29	16	4	4	8
4338789	PROB	n/a	LTP283	ltpFR2	16	n/a	n/a	n/a	29	9	7	1	1
4340090	PROB	n/a	LTP283	ltpFR2	16	n/a	n/a	n/a	29	10	4	4	2
4341359	PROB	n/a	LTP283	ltpFR2	16	n/a	n/a	n/a	29	14	3	6	5
4343550	PROB	n/a	LTP283	ltpFR2	16	n/a	n/a	n/a	29	17	7	5	5
4344877	PROB	n/a	LTP283	ltpFR2	16	n/a	n/a	n/a	29	7	3	2	2
4346620	PROB	n/a	LTP283	ltpFR2	16	n/a	n/a	n/a	29	10	1	3	6
4347813	PROB	n/a	LTP283	ltpFR2	16	n/a	n/a	n/a	29	18	7	8	3
4349132	PROB	n/a	LTP283	ltpFR2	16	n/a	n/a	n/a	29	23	8	6	9
4351583	PROB	n/a	LTP283	ltpFR2	16	n/a	n/a	n/a	29	2	4	8	9
4353401	PROB	n/a	LTP283	ltpFR2	16	n/a	n/a	n/a	29	22	4	9	9
4355199	STOP	n/a	LTP283	ltpFR2	16	n/a	n/a	n/a	29	n/a	n/a	n/a	n/a
