onset	duration	trial_type	sample	stim_file	subject	experiment	session	trial	task	item_name	item_num	recog_resp	recog_conf	resp	answer	test_x	test_y	test_z	color_r	color_g	color_b	case	font
398.44	n/a	SESS_START	199220	n/a	LTP239	ltpFR	9	n/a	n/a	n/a	n/a	1	n/a	n/a	n/a	0	0	0	n/a	n/a	n/a	n/a	n/a
469.808	n/a	START	234904	n/a	LTP239	ltpFR	9	n/a	n/a	n/a	n/a	n/a	n/a	n/a	n/a	n/a	n/a	n/a	n/a	n/a	n/a	n/a	n/a
469.858	n/a	PROB	234929	n/a	LTP239	ltpFR	9	n/a	n/a	n/a	n/a	n/a	n/a	n/a	25	8	9	8	n/a	n/a	n/a	n/a	n/a
474.158	n/a	PROB	237079	n/a	LTP239	ltpFR	9	n/a	n/a	n/a	n/a	n/a	n/a	n/a	12	8	1	3	n/a	n/a	n/a	n/a	n/a
477.118	n/a	PROB	238559	n/a	LTP239	ltpFR	9	n/a	n/a	n/a	n/a	n/a	n/a	n/a	23	8	9	6	n/a	n/a	n/a	n/a	n/a
480.146	n/a	PROB	240073	n/a	LTP239	ltpFR	9	n/a	n/a	n/a	n/a	n/a	n/a	n/a	17	4	6	7	n/a	n/a	n/a	n/a	n/a
482.254	n/a	PROB	241127	n/a	LTP239	ltpFR	9	n/a	n/a	n/a	n/a	n/a	n/a	n/a	24	7	8	9	n/a	n/a	n/a	n/a	n/a
485.316	n/a	PROB	242658	n/a	LTP239	ltpFR	9	n/a	n/a	n/a	n/a	n/a	n/a	n/a	22	7	6	9	n/a	n/a	n/a	n/a	n/a
489.81	n/a	STOP	244905	n/a	LTP239	ltpFR	9	n/a	n/a	n/a	n/a	n/a	n/a	n/a	n/a	n/a	n/a	n/a	n/a	n/a	n/a	n/a	n/a
568.902	n/a	WORD	284451	wordpools/wasnorm_wordpool_less_exclusions.txt	LTP239	ltpFR	9	1	1	BRACES	164	1	n/a	0	n/a	0	0	0	0.57763671875	0.412841796875	1	lower	zerothre.ttf
572.984	n/a	WORD	286492	wordpools/wasnorm_wordpool_less_exclusions.txt	LTP239	ltpFR	9	1	1	COCKTAIL	338	n/a	n/a	0	n/a	0	0	0	0.57763671875	0.412841796875	1	lower	zerothre.ttf
576.966	n/a	WORD	288483	wordpools/wasnorm_wordpool_less_exclusions.txt	LTP239	ltpFR	9	1	1	PEDESTRIAN	1038	n/a	n/a	1	n/a	0	0	0	0.57763671875	0.412841796875	1	lower	zerothre.ttf
581.048	n/a	WORD	290524	wordpools/wasnorm_wordpool_less_exclusions.txt	LTP239	ltpFR	9	1	1	CLARINET	317	n/a	n/a	0	n/a	0	0	0	0.57763671875	0.412841796875	1	lower	zerothre.ttf
585.014	n/a	WORD	292507	wordpools/wasnorm_wordpool_less_exclusions.txt	LTP239	ltpFR	9	1	1	TYPIST	1532	n/a	n/a	1	n/a	0	0	0	0.57763671875	0.412841796875	1	lower	zerothre.ttf
588.912	n/a	WORD	294456	wordpools/wasnorm_wordpool_less_exclusions.txt	LTP239	ltpFR	9	1	1	BOTTLE	153	n/a	n/a	0	n/a	0	0	0	0.57763671875	0.412841796875	1	lower	zerothre.ttf
592.76	n/a	WORD	296380	wordpools/wasnorm_wordpool_less_exclusions.txt	LTP239	ltpFR	9	1	1	DISC	473	n/a	n/a	0	n/a	0	0	0	0.57763671875	0.412841796875	1	lower	zerothre.ttf
596.676	n/a	WORD	298338	wordpools/wasnorm_wordpool_less_exclusions.txt	LTP239	ltpFR	9	1	1	STRING	1394	n/a	n/a	0	n/a	0	0	0	0.57763671875	0.412841796875	1	lower	zerothre.ttf
600.858	n/a	WORD	300429	wordpools/wasnorm_wordpool_less_exclusions.txt	LTP239	ltpFR	9	1	1	WORM	1623	n/a	n/a	1	n/a	0	0	0	0.57763671875	0.412841796875	1	lower	zerothre.ttf
604.94	n/a	WORD	302470	wordpools/wasnorm_wordpool_less_exclusions.txt	LTP239	ltpFR	9	1	1	SNAKE	1333	n/a	n/a	1	n/a	0	0	0	0.57763671875	0.412841796875	1	lower	zerothre.ttf
609.072	n/a	WORD	304536	wordpools/wasnorm_wordpool_less_exclusions.txt	LTP239	ltpFR	9	1	1	SOCIETY	1338	n/a	n/a	1	n/a	0	0	0	0.57763671875	0.412841796875	1	lower	zerothre.ttf
613.072	n/a	WORD	306536	wordpools/wasnorm_wordpool_less_exclusions.txt	LTP239	ltpFR	9	1	1	SERVER	1272	n/a	n/a	1	n/a	0	0	0	0.57763671875	0.412841796875	1	lower	zerothre.ttf
617.154	n/a	WORD	308577	wordpools/wasnorm_wordpool_less_exclusions.txt	LTP239	ltpFR	9	1	1	COUGAR	387	n/a	n/a	1	n/a	0	0	0	0.57763671875	0.412841796875	1	lower	zerothre.ttf
621.286	n/a	WORD	310643	wordpools/wasnorm_wordpool_less_exclusions.txt	LTP239	ltpFR	9	1	1	ORCHESTRA	981	n/a	n/a	1	n/a	0	0	0	0.57763671875	0.412841796875	1	lower	zerothre.ttf
625.352	n/a	WORD	312676	wordpools/wasnorm_wordpool_less_exclusions.txt	LTP239	ltpFR	9	1	1	LAMP	798	n/a	n/a	0	n/a	0	0	0	0.57763671875	0.412841796875	1	lower	zerothre.ttf
629.446	n/a	WORD	314723	wordpools/wasnorm_wordpool_less_exclusions.txt	LTP239	ltpFR	9	1	1	PORCH	1106	n/a	n/a	0	n/a	0	0	0	0.57763671875	0.412841796875	1	lower	zerothre.ttf
632.462	n/a	START	316231	n/a	LTP239	ltpFR	9	n/a	n/a	n/a	n/a	n/a	n/a	n/a	n/a	n/a	n/a	n/a	n/a	n/a	n/a	n/a	n/a
633.332	n/a	PROB	316666	n/a	LTP239	ltpFR	9	n/a	n/a	n/a	n/a	n/a	n/a	n/a	17	3	8	6	n/a	n/a	n/a	n/a	n/a
636.122	n/a	PROB	318061	n/a	LTP239	ltpFR	9	n/a	n/a	n/a	n/a	n/a	n/a	n/a	12	5	4	3	n/a	n/a	n/a	n/a	n/a
637.85	n/a	PROB	318925	n/a	LTP239	ltpFR	9	n/a	n/a	n/a	n/a	n/a	n/a	n/a	15	3	3	9	n/a	n/a	n/a	n/a	n/a
639.796	n/a	STOP	319898	n/a	LTP239	ltpFR	9	n/a	n/a	n/a	n/a	n/a	n/a	n/a	n/a	n/a	n/a	n/a	n/a	n/a	n/a	n/a	n/a
642.266	n/a	REC_START	321133	n/a	LTP239	ltpFR	9	1	n/a	n/a	n/a	n/a	n/a	n/a	n/a	0	0	0	n/a	n/a	n/a	n/a	n/a
651.42	n/a	REC_WORD	325710	wordpools/wasnorm_wordpool_less_exclusions.txt	LTP239	ltpFR	9	1	1	WORM	1623	n/a	n/a	1	n/a	0	0	0	n/a	n/a	n/a	n/a	n/a
652.116	n/a	REC_WORD	326058	wordpools/wasnorm_wordpool_less_exclusions.txt	LTP239	ltpFR	9	1	1	SNAKE	1333	n/a	n/a	1	n/a	0	0	0	n/a	n/a	n/a	n/a	n/a
653.124	n/a	REC_WORD	326562	wordpools/wasnorm_wordpool_less_exclusions.txt	LTP239	ltpFR	9	1	1	PEDESTRIAN	1038	n/a	n/a	1	n/a	0	0	0	n/a	n/a	n/a	n/a	n/a
654.348	n/a	REC_WORD	327174	wordpools/wasnorm_wordpool_less_exclusions.txt	LTP239	ltpFR	9	1	1	TYPIST	1532	n/a	n/a	1	n/a	0	0	0	n/a	n/a	n/a	n/a	n/a
656.492	n/a	REC_WORD	328246	wordpools/wasnorm_wordpool_less_exclusions.txt	LTP239	ltpFR	9	1	1	ORCHESTRA	981	n/a	n/a	1	n/a	0	0	0	n/a	n/a	n/a	n/a	n/a
657.386	n/a	REC_WORD	328693	wordpools/wasnorm_wordpool_less_exclusions.txt	LTP239	ltpFR	9	1	1	SOCIETY	1338	n/a	n/a	1	n/a	0	0	0	n/a	n/a	n/a	n/a	n/a
662.522	n/a	REC_WORD	331261	wordpools/wasnorm_wordpool_less_exclusions.txt	LTP239	ltpFR	9	1	1	BRACES	164	n/a	n/a	0	n/a	0	0	0	n/a	n/a	n/a	n/a	n/a
664.218	n/a	REC_WORD	332109	wordpools/wasnorm_wordpool_less_exclusions.txt	LTP239	ltpFR	9	1	1	LAMP	798	n/a	n/a	0	n/a	0	0	0	n/a	n/a	n/a	n/a	n/a
716.906	n/a	REC_WORD	358453	wordpools/wasnorm_wordpool_less_exclusions.txt	LTP239	ltpFR	9	1	1	CLARINET	317	n/a	n/a	0	n/a	0	0	0	n/a	n/a	n/a	n/a	n/a
774.204	n/a	START	387102	n/a	LTP239	ltpFR	9	n/a	n/a	n/a	n/a	n/a	n/a	n/a	n/a	n/a	n/a	n/a	n/a	n/a	n/a	n/a	n/a
775.708	n/a	PROB	387854	n/a	LTP239	ltpFR	9	n/a	n/a	n/a	n/a	n/a	n/a	n/a	14	5	3	6	n/a	n/a	n/a	n/a	n/a
777.768	n/a	PROB	388884	n/a	LTP239	ltpFR	9	n/a	n/a	n/a	n/a	n/a	n/a	n/a	17	7	4	6	n/a	n/a	n/a	n/a	n/a
782.204	n/a	STOP	391102	n/a	LTP239	ltpFR	9	n/a	n/a	n/a	n/a	n/a	n/a	n/a	n/a	n/a	n/a	n/a	n/a	n/a	n/a	n/a	n/a
783.188	n/a	WORD	391594	wordpools/wasnorm_wordpool_less_exclusions.txt	LTP239	ltpFR	9	2	1	ENEMY	534	n/a	n/a	1	n/a	0	0	0	0.57763671875	0.412841796875	1	lower	zerothre.ttf
786.2	n/a	START	393100	n/a	LTP239	ltpFR	9	n/a	n/a	n/a	n/a	n/a	n/a	n/a	n/a	n/a	n/a	n/a	n/a	n/a	n/a	n/a	n/a
787.216	n/a	PROB	393608	n/a	LTP239	ltpFR	9	n/a	n/a	n/a	n/a	n/a	n/a	n/a	27	9	9	9	n/a	n/a	n/a	n/a	n/a
789.546	n/a	PROB	394773	n/a	LTP239	ltpFR	9	n/a	n/a	n/a	n/a	n/a	n/a	n/a	14	7	4	3	n/a	n/a	n/a	n/a	n/a
791.316	n/a	PROB	395658	n/a	LTP239	ltpFR	9	n/a	n/a	n/a	n/a	n/a	n/a	n/a	19	9	9	1	n/a	n/a	n/a	n/a	n/a
793.204	n/a	STOP	396602	n/a	LTP239	ltpFR	9	n/a	n/a	n/a	n/a	n/a	n/a	n/a	n/a	n/a	n/a	n/a	n/a	n/a	n/a	n/a	n/a
795.334	n/a	WORD	397667	wordpools/wasnorm_wordpool_less_exclusions.txt	LTP239	ltpFR	9	2	1	BALLOON	75	n/a	n/a	0	n/a	0	0	0	0.57763671875	0.412841796875	1	lower	zerothre.ttf
798.346	n/a	START	399173	n/a	LTP239	ltpFR	9	n/a	n/a	n/a	n/a	n/a	n/a	n/a	n/a	n/a	n/a	n/a	n/a	n/a	n/a	n/a	n/a
799.518	n/a	PROB	399759	n/a	LTP239	ltpFR	9	n/a	n/a	n/a	n/a	n/a	n/a	n/a	21	5	7	9	n/a	n/a	n/a	n/a	n/a
801.374	n/a	PROB	400687	n/a	LTP239	ltpFR	9	n/a	n/a	n/a	n/a	n/a	n/a	n/a	4	2	1	1	n/a	n/a	n/a	n/a	n/a
802.762	n/a	PROB	401381	n/a	LTP239	ltpFR	9	n/a	n/a	n/a	n/a	n/a	n/a	n/a	9	2	4	3	n/a	n/a	n/a	n/a	n/a
806.346	n/a	STOP	403173	n/a	LTP239	ltpFR	9	n/a	n/a	n/a	n/a	n/a	n/a	n/a	n/a	n/a	n/a	n/a	n/a	n/a	n/a	n/a	n/a
807.28	n/a	WORD	403640	wordpools/wasnorm_wordpool_less_exclusions.txt	LTP239	ltpFR	9	2	1	HAM	678	n/a	n/a	0	n/a	0	0	0	0.57763671875	0.412841796875	1	lower	zerothre.ttf
810.292	n/a	START	405146	n/a	LTP239	ltpFR	9	n/a	n/a	n/a	n/a	n/a	n/a	n/a	n/a	n/a	n/a	n/a	n/a	n/a	n/a	n/a	n/a
811.346	n/a	PROB	405673	n/a	LTP239	ltpFR	9	n/a	n/a	n/a	n/a	n/a	n/a	n/a	13	3	7	3	n/a	n/a	n/a	n/a	n/a
815.496	n/a	PROB	407748	n/a	LTP239	ltpFR	9	n/a	n/a	n/a	n/a	n/a	n/a	n/a	13	1	4	8	n/a	n/a	n/a	n/a	n/a
817.702	n/a	STOP	408851	n/a	LTP239	ltpFR	9	n/a	n/a	n/a	n/a	n/a	n/a	n/a	n/a	n/a	n/a	n/a	n/a	n/a	n/a	n/a	n/a
819.16	n/a	WORD	409580	wordpools/wasnorm_wordpool_less_exclusions.txt	LTP239	ltpFR	9	2	0	GANG	619	n/a	n/a	0	n/a	0	0	0	0.422607421875	0.5869140625	0	upper	amplitud.ttf
822.17	n/a	START	411085	n/a	LTP239	ltpFR	9	n/a	n/a	n/a	n/a	n/a	n/a	n/a	n/a	n/a	n/a	n/a	n/a	n/a	n/a	n/a	n/a
823.09	n/a	PROB	411545	n/a	LTP239	ltpFR	9	n/a	n/a	n/a	n/a	n/a	n/a	n/a	1	7	4	1	n/a	n/a	n/a	n/a	n/a
825.4	n/a	PROB	412700	n/a	LTP239	ltpFR	9	n/a	n/a	n/a	n/a	n/a	n/a	n/a	13	3	7	3	n/a	n/a	n/a	n/a	n/a
826.968	n/a	PROB	413484	n/a	LTP239	ltpFR	9	n/a	n/a	n/a	n/a	n/a	n/a	n/a	17	2	5	9	n/a	n/a	n/a	n/a	n/a
829.518	n/a	STOP	414759	n/a	LTP239	ltpFR	9	n/a	n/a	n/a	n/a	n/a	n/a	n/a	n/a	n/a	n/a	n/a	n/a	n/a	n/a	n/a	n/a
831.218	n/a	WORD	415609	wordpools/wasnorm_wordpool_less_exclusions.txt	LTP239	ltpFR	9	2	0	SODA	1341	n/a	n/a	0	n/a	0	0	0	0.422607421875	0.5869140625	0	upper	amplitud.ttf
834.234	n/a	START	417117	n/a	LTP239	ltpFR	9	n/a	n/a	n/a	n/a	n/a	n/a	n/a	n/a	n/a	n/a	n/a	n/a	n/a	n/a	n/a	n/a
835.254	n/a	PROB	417627	n/a	LTP239	ltpFR	9	n/a	n/a	n/a	n/a	n/a	n/a	n/a	20	6	7	7	n/a	n/a	n/a	n/a	n/a
837.696	n/a	PROB	418848	n/a	LTP239	ltpFR	9	n/a	n/a	n/a	n/a	n/a	n/a	n/a	24	8	7	9	n/a	n/a	n/a	n/a	n/a
842.234	n/a	STOP	421117	n/a	LTP239	ltpFR	9	n/a	n/a	n/a	n/a	n/a	n/a	n/a	n/a	n/a	n/a	n/a	n/a	n/a	n/a	n/a	n/a
843.1	n/a	WORD	421550	wordpools/wasnorm_wordpool_less_exclusions.txt	LTP239	ltpFR	9	2	0	BREAST	171	n/a	n/a	0	n/a	0	0	0	0.422607421875	0.5869140625	0	upper	amplitud.ttf
846.112	n/a	START	423056	n/a	LTP239	ltpFR	9	n/a	n/a	n/a	n/a	n/a	n/a	n/a	n/a	n/a	n/a	n/a	n/a	n/a	n/a	n/a	n/a
847.246	n/a	PROB	423623	n/a	LTP239	ltpFR	9	n/a	n/a	n/a	n/a	n/a	n/a	n/a	1	7	4	1	n/a	n/a	n/a	n/a	n/a
849.386	n/a	PROB	424693	n/a	LTP239	ltpFR	9	n/a	n/a	n/a	n/a	n/a	n/a	n/a	15	4	3	8	n/a	n/a	n/a	n/a	n/a
854.104	n/a	STOP	427052	n/a	LTP239	ltpFR	9	n/a	n/a	n/a	n/a	n/a	n/a	n/a	n/a	n/a	n/a	n/a	n/a	n/a	n/a	n/a	n/a
855.13	n/a	WORD	427565	wordpools/wasnorm_wordpool_less_exclusions.txt	LTP239	ltpFR	9	2	0	CHICK	296	n/a	n/a	0	n/a	0	0	0	0.422607421875	0.5869140625	0	upper	amplitud.ttf
858.142	n/a	START	429071	n/a	LTP239	ltpFR	9	n/a	n/a	n/a	n/a	n/a	n/a	n/a	n/a	n/a	n/a	n/a	n/a	n/a	n/a	n/a	n/a
859.278	n/a	PROB	429639	n/a	LTP239	ltpFR	9	n/a	n/a	n/a	n/a	n/a	n/a	n/a	13	6	6	1	n/a	n/a	n/a	n/a	n/a
860.932	n/a	PROB	430466	n/a	LTP239	ltpFR	9	n/a	n/a	n/a	n/a	n/a	n/a	n/a	26	8	9	8	n/a	n/a	n/a	n/a	n/a
866.12	n/a	STOP	433060	n/a	LTP239	ltpFR	9	n/a	n/a	n/a	n/a	n/a	n/a	n/a	n/a	n/a	n/a	n/a	n/a	n/a	n/a	n/a	n/a
867.206	n/a	WORD	433603	wordpools/wasnorm_wordpool_less_exclusions.txt	LTP239	ltpFR	9	2	0	CANARY	227	n/a	n/a	0	n/a	0	0	0	0.422607421875	0.5869140625	0	upper	amplitud.ttf
870.22	n/a	START	435110	n/a	LTP239	ltpFR	9	n/a	n/a	n/a	n/a	n/a	n/a	n/a	n/a	n/a	n/a	n/a	n/a	n/a	n/a	n/a	n/a
871.388	n/a	PROB	435694	n/a	LTP239	ltpFR	9	n/a	n/a	n/a	n/a	n/a	n/a	n/a	16	6	2	8	n/a	n/a	n/a	n/a	n/a
874.216	n/a	PROB	437108	n/a	LTP239	ltpFR	9	n/a	n/a	n/a	n/a	n/a	n/a	n/a	11	5	5	1	n/a	n/a	n/a	n/a	n/a
875.574	n/a	PROB	437787	n/a	LTP239	ltpFR	9	n/a	n/a	n/a	n/a	n/a	n/a	n/a	11	1	1	9	n/a	n/a	n/a	n/a	n/a
877.336	n/a	STOP	438668	n/a	LTP239	ltpFR	9	n/a	n/a	n/a	n/a	n/a	n/a	n/a	n/a	n/a	n/a	n/a	n/a	n/a	n/a	n/a	n/a
879.188	n/a	WORD	439594	wordpools/wasnorm_wordpool_less_exclusions.txt	LTP239	ltpFR	9	2	0	QUAIL	1147	n/a	n/a	1	n/a	0	0	0	0.422607421875	0.5869140625	0	upper	amplitud.ttf
882.2	n/a	START	441100	n/a	LTP239	ltpFR	9	n/a	n/a	n/a	n/a	n/a	n/a	n/a	n/a	n/a	n/a	n/a	n/a	n/a	n/a	n/a	n/a
883.37	n/a	PROB	441685	n/a	LTP239	ltpFR	9	n/a	n/a	n/a	n/a	n/a	n/a	n/a	23	7	7	9	n/a	n/a	n/a	n/a	n/a
885.342	n/a	PROB	442671	n/a	LTP239	ltpFR	9	n/a	n/a	n/a	n/a	n/a	n/a	n/a	13	7	2	3	n/a	n/a	n/a	n/a	n/a
890.2	n/a	STOP	445100	n/a	LTP239	ltpFR	9	n/a	n/a	n/a	n/a	n/a	n/a	n/a	n/a	n/a	n/a	n/a	n/a	n/a	n/a	n/a	n/a
891.314	n/a	WORD	445657	wordpools/wasnorm_wordpool_less_exclusions.txt	LTP239	ltpFR	9	2	1	SOFTBALL	1343	n/a	n/a	0	n/a	0	0	0	0.57763671875	0.412841796875	1	lower	zerothre.ttf
894.33	n/a	START	447165	n/a	LTP239	ltpFR	9	n/a	n/a	n/a	n/a	n/a	n/a	n/a	n/a	n/a	n/a	n/a	n/a	n/a	n/a	n/a	n/a
895.2	n/a	PROB	447600	n/a	LTP239	ltpFR	9	n/a	n/a	n/a	n/a	n/a	n/a	n/a	8	3	1	4	n/a	n/a	n/a	n/a	n/a
897.692	n/a	PROB	448846	n/a	LTP239	ltpFR	9	n/a	n/a	n/a	n/a	n/a	n/a	n/a	21	8	9	2	n/a	n/a	n/a	n/a	n/a
899.764	n/a	PROB	449882	n/a	LTP239	ltpFR	9	n/a	n/a	n/a	n/a	n/a	n/a	n/a	17	1	8	8	n/a	n/a	n/a	n/a	n/a
901.466	n/a	STOP	450733	n/a	LTP239	ltpFR	9	n/a	n/a	n/a	n/a	n/a	n/a	n/a	n/a	n/a	n/a	n/a	n/a	n/a	n/a	n/a	n/a
903.498	n/a	WORD	451749	wordpools/wasnorm_wordpool_less_exclusions.txt	LTP239	ltpFR	9	2	1	TICKET	1464	n/a	n/a	0	n/a	0	0	0	0.57763671875	0.412841796875	1	lower	zerothre.ttf
906.51	n/a	START	453255	n/a	LTP239	ltpFR	9	n/a	n/a	n/a	n/a	n/a	n/a	n/a	n/a	n/a	n/a	n/a	n/a	n/a	n/a	n/a	n/a
907.614	n/a	PROB	453807	n/a	LTP239	ltpFR	9	n/a	n/a	n/a	n/a	n/a	n/a	n/a	11	2	6	3	n/a	n/a	n/a	n/a	n/a
909.572	n/a	PROB	454786	n/a	LTP239	ltpFR	9	n/a	n/a	n/a	n/a	n/a	n/a	n/a	20	8	3	9	n/a	n/a	n/a	n/a	n/a
911.512	n/a	PROB	455756	n/a	LTP239	ltpFR	9	n/a	n/a	n/a	n/a	n/a	n/a	n/a	7	2	4	1	n/a	n/a	n/a	n/a	n/a
913.69	n/a	STOP	456845	n/a	LTP239	ltpFR	9	n/a	n/a	n/a	n/a	n/a	n/a	n/a	n/a	n/a	n/a	n/a	n/a	n/a	n/a	n/a	n/a
915.61	n/a	WORD	457805	wordpools/wasnorm_wordpool_less_exclusions.txt	LTP239	ltpFR	9	2	1	VIKING	1565	n/a	n/a	1	n/a	0	0	0	0.57763671875	0.412841796875	1	lower	zerothre.ttf
918.622	n/a	START	459311	n/a	LTP239	ltpFR	9	n/a	n/a	n/a	n/a	n/a	n/a	n/a	n/a	n/a	n/a	n/a	n/a	n/a	n/a	n/a	n/a
919.69	n/a	PROB	459845	n/a	LTP239	ltpFR	9	n/a	n/a	n/a	n/a	n/a	n/a	n/a	16	4	5	7	n/a	n/a	n/a	n/a	n/a
921.866	n/a	PROB	460933	n/a	LTP239	ltpFR	9	n/a	n/a	n/a	n/a	n/a	n/a	n/a	21	5	7	7	n/a	n/a	n/a	n/a	n/a
923.62	n/a	PROB	461810	n/a	LTP239	ltpFR	9	n/a	n/a	n/a	n/a	n/a	n/a	n/a	16	5	6	5	n/a	n/a	n/a	n/a	n/a
925.93	n/a	STOP	462965	n/a	LTP239	ltpFR	9	n/a	n/a	n/a	n/a	n/a	n/a	n/a	n/a	n/a	n/a	n/a	n/a	n/a	n/a	n/a	n/a
927.59	n/a	WORD	463795	wordpools/wasnorm_wordpool_less_exclusions.txt	LTP239	ltpFR	9	2	1	VINE	1568	n/a	n/a	1	n/a	0	0	0	0.57763671875	0.412841796875	1	lower	zerothre.ttf
930.602	n/a	START	465301	n/a	LTP239	ltpFR	9	n/a	n/a	n/a	n/a	n/a	n/a	n/a	n/a	n/a	n/a	n/a	n/a	n/a	n/a	n/a	n/a
931.468	n/a	PROB	465734	n/a	LTP239	ltpFR	9	n/a	n/a	n/a	n/a	n/a	n/a	n/a	16	9	6	1	n/a	n/a	n/a	n/a	n/a
934.094	n/a	PROB	467047	n/a	LTP239	ltpFR	9	n/a	n/a	n/a	n/a	n/a	n/a	n/a	13	2	5	6	n/a	n/a	n/a	n/a	n/a
935.968	n/a	PROB	467984	n/a	LTP239	ltpFR	9	n/a	n/a	n/a	n/a	n/a	n/a	n/a	23	9	9	5	n/a	n/a	n/a	n/a	n/a
938.012	n/a	STOP	469006	n/a	LTP239	ltpFR	9	n/a	n/a	n/a	n/a	n/a	n/a	n/a	n/a	n/a	n/a	n/a	n/a	n/a	n/a	n/a	n/a
939.536	n/a	WORD	469768	wordpools/wasnorm_wordpool_less_exclusions.txt	LTP239	ltpFR	9	2	1	PAWN	1030	n/a	n/a	0	n/a	0	0	0	0.57763671875	0.412841796875	1	lower	zerothre.ttf
942.548	n/a	START	471274	n/a	LTP239	ltpFR	9	n/a	n/a	n/a	n/a	n/a	n/a	n/a	n/a	n/a	n/a	n/a	n/a	n/a	n/a	n/a	n/a
943.384	n/a	PROB	471692	n/a	LTP239	ltpFR	9	n/a	n/a	n/a	n/a	n/a	n/a	n/a	13	7	5	1	n/a	n/a	n/a	n/a	n/a
945.388	n/a	PROB	472694	n/a	LTP239	ltpFR	9	n/a	n/a	n/a	n/a	n/a	n/a	n/a	19	9	6	4	n/a	n/a	n/a	n/a	n/a
947.718	n/a	PROB	473859	n/a	LTP239	ltpFR	9	n/a	n/a	n/a	n/a	n/a	n/a	n/a	20	8	8	6	n/a	n/a	n/a	n/a	n/a
949.87	n/a	STOP	474935	n/a	LTP239	ltpFR	9	n/a	n/a	n/a	n/a	n/a	n/a	n/a	n/a	n/a	n/a	n/a	n/a	n/a	n/a	n/a	n/a
951.662	n/a	WORD	475831	wordpools/wasnorm_wordpool_less_exclusions.txt	LTP239	ltpFR	9	2	0	MOTH	920	n/a	n/a	0	n/a	0	0	0	0.422607421875	0.5869140625	0	upper	amplitud.ttf
954.678	n/a	START	477339	n/a	LTP239	ltpFR	9	n/a	n/a	n/a	n/a	n/a	n/a	n/a	n/a	n/a	n/a	n/a	n/a	n/a	n/a	n/a	n/a
955.698	n/a	PROB	477849	n/a	LTP239	ltpFR	9	n/a	n/a	n/a	n/a	n/a	n/a	n/a	15	2	8	5	n/a	n/a	n/a	n/a	n/a
957.668	n/a	PROB	478834	n/a	LTP239	ltpFR	9	n/a	n/a	n/a	n/a	n/a	n/a	n/a	19	3	8	8	n/a	n/a	n/a	n/a	n/a
959.424	n/a	PROB	479712	n/a	LTP239	ltpFR	9	n/a	n/a	n/a	n/a	n/a	n/a	n/a	16	5	3	8	n/a	n/a	n/a	n/a	n/a
961.468	n/a	STOP	480734	n/a	LTP239	ltpFR	9	n/a	n/a	n/a	n/a	n/a	n/a	n/a	n/a	n/a	n/a	n/a	n/a	n/a	n/a	n/a	n/a
963.74	n/a	WORD	481870	wordpools/wasnorm_wordpool_less_exclusions.txt	LTP239	ltpFR	9	2	0	CAPTAIN	239	n/a	n/a	1	n/a	0	0	0	0.422607421875	0.5869140625	0	upper	amplitud.ttf
966.756	n/a	START	483378	n/a	LTP239	ltpFR	9	n/a	n/a	n/a	n/a	n/a	n/a	n/a	n/a	n/a	n/a	n/a	n/a	n/a	n/a	n/a	n/a
967.81	n/a	PROB	483905	n/a	LTP239	ltpFR	9	n/a	n/a	n/a	n/a	n/a	n/a	n/a	15	9	3	3	n/a	n/a	n/a	n/a	n/a
969.596	n/a	PROB	484798	n/a	LTP239	ltpFR	9	n/a	n/a	n/a	n/a	n/a	n/a	n/a	17	8	7	2	n/a	n/a	n/a	n/a	n/a
974.75	n/a	STOP	487375	n/a	LTP239	ltpFR	9	n/a	n/a	n/a	n/a	n/a	n/a	n/a	n/a	n/a	n/a	n/a	n/a	n/a	n/a	n/a	n/a
976.724	n/a	REC_START	488362	n/a	LTP239	ltpFR	9	2	n/a	n/a	n/a	n/a	n/a	n/a	n/a	0	0	0	n/a	n/a	n/a	n/a	n/a
979.378	n/a	REC_WORD	489689	wordpools/wasnorm_wordpool_less_exclusions.txt	LTP239	ltpFR	9	2	0	CAPTAIN	239	n/a	n/a	1	n/a	0	0	0	n/a	n/a	n/a	n/a	n/a
980.606	n/a	REC_WORD	490303	wordpools/wasnorm_wordpool_less_exclusions.txt	LTP239	ltpFR	9	2	1	ENEMY	534	n/a	n/a	1	n/a	0	0	0	n/a	n/a	n/a	n/a	n/a
981.678	n/a	REC_WORD	490839	wordpools/wasnorm_wordpool_less_exclusions.txt	LTP239	ltpFR	9	2	1	BALLOON	75	n/a	n/a	0	n/a	0	0	0	n/a	n/a	n/a	n/a	n/a
1002.496	n/a	REC_WORD	501248	wordpools/wasnorm_wordpool_less_exclusions.txt	LTP239	ltpFR	9	2	0	GANG	619	n/a	n/a	0	n/a	0	0	0	n/a	n/a	n/a	n/a	n/a
1003.31	n/a	REC_WORD	501655	wordpools/wasnorm_wordpool_less_exclusions.txt	LTP239	ltpFR	9	2	0	MOTH	920	n/a	n/a	0	n/a	0	0	0	n/a	n/a	n/a	n/a	n/a
1004.268	n/a	REC_WORD	502134	wordpools/wasnorm_wordpool_less_exclusions.txt	LTP239	ltpFR	9	2	0	CHICK	296	n/a	n/a	0	n/a	0	0	0	n/a	n/a	n/a	n/a	n/a
1005.29	n/a	REC_WORD	502645	wordpools/wasnorm_wordpool_less_exclusions.txt	LTP239	ltpFR	9	2	0	BREAST	171	n/a	n/a	0	n/a	0	0	0	n/a	n/a	n/a	n/a	n/a
1133.928	n/a	WORD	566964	wordpools/wasnorm_wordpool_less_exclusions.txt	LTP239	ltpFR	9	3	0	DRIVEWAY	500	n/a	n/a	1	n/a	0	0	0	0.422607421875	0.5869140625	0	upper	amplitud.ttf
1137.826	n/a	WORD	568913	wordpools/wasnorm_wordpool_less_exclusions.txt	LTP239	ltpFR	9	3	0	GARAGE	621	n/a	n/a	1	n/a	0	0	0	0.422607421875	0.5869140625	0	upper	amplitud.ttf
1141.772	n/a	WORD	570886	wordpools/wasnorm_wordpool_less_exclusions.txt	LTP239	ltpFR	9	3	0	CHICKEN	297	n/a	n/a	0	n/a	0	0	0	0.422607421875	0.5869140625	0	upper	amplitud.ttf
1145.79	n/a	WORD	572895	wordpools/wasnorm_wordpool_less_exclusions.txt	LTP239	ltpFR	9	3	0	SUPERMARKET	1409	n/a	n/a	1	n/a	0	0	0	0.422607421875	0.5869140625	0	upper	amplitud.ttf
1149.99	n/a	WORD	574995	wordpools/wasnorm_wordpool_less_exclusions.txt	LTP239	ltpFR	9	3	0	CARPENTER	246	n/a	n/a	1	n/a	0	0	0	0.422607421875	0.5869140625	0	upper	amplitud.ttf
1154.134	n/a	WORD	577067	wordpools/wasnorm_wordpool_less_exclusions.txt	LTP239	ltpFR	9	3	0	FAN	551	n/a	n/a	0	n/a	0	0	0	0.422607421875	0.5869140625	0	upper	amplitud.ttf
1158.352	n/a	WORD	579176	wordpools/wasnorm_wordpool_less_exclusions.txt	LTP239	ltpFR	9	3	0	TWIG	1527	n/a	n/a	0	n/a	0	0	0	0.422607421875	0.5869140625	0	upper	amplitud.ttf
1162.37	n/a	WORD	581185	wordpools/wasnorm_wordpool_less_exclusions.txt	LTP239	ltpFR	9	3	0	SHOWER	1296	n/a	n/a	1	n/a	0	0	0	0.422607421875	0.5869140625	0	upper	amplitud.ttf
1166.218	n/a	WORD	583109	wordpools/wasnorm_wordpool_less_exclusions.txt	LTP239	ltpFR	9	3	0	BEVERAGE	123	n/a	n/a	0	n/a	0	0	0	0.422607421875	0.5869140625	0	upper	amplitud.ttf
1170.096	n/a	WORD	585048	wordpools/wasnorm_wordpool_less_exclusions.txt	LTP239	ltpFR	9	3	0	KIDNEY	776	n/a	n/a	0	n/a	0	0	0	0.422607421875	0.5869140625	0	upper	amplitud.ttf
1174.132	n/a	WORD	587066	wordpools/wasnorm_wordpool_less_exclusions.txt	LTP239	ltpFR	9	3	0	PEBBLE	1035	n/a	n/a	0	n/a	0	0	0	0.422607421875	0.5869140625	0	upper	amplitud.ttf
1178.014	n/a	WORD	589007	wordpools/wasnorm_wordpool_less_exclusions.txt	LTP239	ltpFR	9	3	0	SHAMPOO	1274	n/a	n/a	0	n/a	0	0	0	0.422607421875	0.5869140625	0	upper	amplitud.ttf
1182.08	n/a	WORD	591040	wordpools/wasnorm_wordpool_less_exclusions.txt	LTP239	ltpFR	9	3	0	PUMP	1141	n/a	n/a	0	n/a	0	0	0	0.422607421875	0.5869140625	0	upper	amplitud.ttf
1186.078	n/a	WORD	593039	wordpools/wasnorm_wordpool_less_exclusions.txt	LTP239	ltpFR	9	3	0	FIG	563	n/a	n/a	0	n/a	0	0	0	0.422607421875	0.5869140625	0	upper	amplitud.ttf
1190.244	n/a	WORD	595122	wordpools/wasnorm_wordpool_less_exclusions.txt	LTP239	ltpFR	9	3	0	CHAIN	273	n/a	n/a	1	n/a	0	0	0	0.422607421875	0.5869140625	0	upper	amplitud.ttf
1194.072	n/a	WORD	597036	wordpools/wasnorm_wordpool_less_exclusions.txt	LTP239	ltpFR	9	3	0	ARTERY	41	n/a	n/a	0	n/a	0	0	0	0.422607421875	0.5869140625	0	upper	amplitud.ttf
1197.086	n/a	START	598543	n/a	LTP239	ltpFR	9	n/a	n/a	n/a	n/a	n/a	n/a	n/a	n/a	n/a	n/a	n/a	n/a	n/a	n/a	n/a	n/a
1197.924	n/a	PROB	598962	n/a	LTP239	ltpFR	9	n/a	n/a	n/a	n/a	n/a	n/a	n/a	13	9	2	2	n/a	n/a	n/a	n/a	n/a
1199.994	n/a	PROB	599997	n/a	LTP239	ltpFR	9	n/a	n/a	n/a	n/a	n/a	n/a	n/a	8	6	1	2	n/a	n/a	n/a	n/a	n/a
1202.906	n/a	PROB	601453	n/a	LTP239	ltpFR	9	n/a	n/a	n/a	n/a	n/a	n/a	n/a	10	6	2	2	n/a	n/a	n/a	n/a	n/a
1205.046	n/a	PROB	602523	n/a	LTP239	ltpFR	9	n/a	n/a	n/a	n/a	n/a	n/a	n/a	17	7	8	2	n/a	n/a	n/a	n/a	n/a
1206.77	n/a	PROB	603385	n/a	LTP239	ltpFR	9	n/a	n/a	n/a	n/a	n/a	n/a	n/a	16	7	5	4	n/a	n/a	n/a	n/a	n/a
1209.246	n/a	PROB	604623	n/a	LTP239	ltpFR	9	n/a	n/a	n/a	n/a	n/a	n/a	n/a	11	5	2	4	n/a	n/a	n/a	n/a	n/a
1211.522	n/a	STOP	605761	n/a	LTP239	ltpFR	9	n/a	n/a	n/a	n/a	n/a	n/a	n/a	n/a	n/a	n/a	n/a	n/a	n/a	n/a	n/a	n/a
1215.006	n/a	REC_START	607503	n/a	LTP239	ltpFR	9	3	n/a	n/a	n/a	n/a	n/a	n/a	n/a	0	0	0	n/a	n/a	n/a	n/a	n/a
1216.546	n/a	REC_WORD	608273	wordpools/wasnorm_wordpool_less_exclusions.txt	LTP239	ltpFR	9	3	0	ARTERY	41	n/a	n/a	0	n/a	0	0	0	n/a	n/a	n/a	n/a	n/a
1217.73	n/a	REC_WORD	608865	wordpools/wasnorm_wordpool_less_exclusions.txt	LTP239	ltpFR	9	3	0	CHAIN	273	n/a	n/a	1	n/a	0	0	0	n/a	n/a	n/a	n/a	n/a
1229.816	n/a	REC_WORD	614908	wordpools/wasnorm_wordpool_less_exclusions.txt	LTP239	ltpFR	9	3	0	DRIVEWAY	500	n/a	n/a	1	n/a	0	0	0	n/a	n/a	n/a	n/a	n/a
1230.75	n/a	REC_WORD	615375	wordpools/wasnorm_wordpool_less_exclusions.txt	LTP239	ltpFR	9	3	0	GARAGE	621	n/a	n/a	1	n/a	0	0	0	n/a	n/a	n/a	n/a	n/a
1231.336	n/a	REC_WORD	615668	wordpools/wasnorm_wordpool_less_exclusions.txt	LTP239	ltpFR	9	3	0	SUPERMARKET	1409	n/a	n/a	1	n/a	0	0	0	n/a	n/a	n/a	n/a	n/a
1232.422	n/a	REC_WORD	616211	wordpools/wasnorm_wordpool_less_exclusions.txt	LTP239	ltpFR	9	3	0	CHICKEN	297	n/a	n/a	0	n/a	0	0	0	n/a	n/a	n/a	n/a	n/a
1348.382	n/a	WORD	674191	wordpools/wasnorm_wordpool_less_exclusions.txt	LTP239	ltpFR	9	4	0	BEAST	108	n/a	n/a	1	n/a	0	0	0	0.422607421875	0.5869140625	0	upper	amplitud.ttf
1352.28	n/a	WORD	676140	wordpools/wasnorm_wordpool_less_exclusions.txt	LTP239	ltpFR	9	4	0	CHIPMUNK	304	n/a	n/a	0	n/a	0	0	0	0.422607421875	0.5869140625	0	upper	amplitud.ttf
1356.312	n/a	WORD	678156	wordpools/wasnorm_wordpool_less_exclusions.txt	LTP239	ltpFR	9	4	0	GRADUATE	653	n/a	n/a	1	n/a	0	0	0	0.422607421875	0.5869140625	0	upper	amplitud.ttf
1360.31	n/a	WORD	680155	wordpools/wasnorm_wordpool_less_exclusions.txt	LTP239	ltpFR	9	4	1	CRAB	397	n/a	n/a	1	n/a	0	0	0	0.57763671875	0.412841796875	1	lower	zerothre.ttf
1364.526	n/a	WORD	682263	wordpools/wasnorm_wordpool_less_exclusions.txt	LTP239	ltpFR	9	4	1	BUILDER	190	n/a	n/a	0	n/a	0	0	0	0.57763671875	0.412841796875	1	lower	zerothre.ttf
1368.474	n/a	WORD	684237	wordpools/wasnorm_wordpool_less_exclusions.txt	LTP239	ltpFR	9	4	1	MUSHROOM	934	n/a	n/a	1	n/a	0	0	0	0.57763671875	0.412841796875	1	lower	zerothre.ttf
1372.356	n/a	WORD	686178	wordpools/wasnorm_wordpool_less_exclusions.txt	LTP239	ltpFR	9	4	1	COLESLAW	344	n/a	n/a	0	n/a	0	0	0	0.57763671875	0.412841796875	1	lower	zerothre.ttf
1376.438	n/a	WORD	688219	wordpools/wasnorm_wordpool_less_exclusions.txt	LTP239	ltpFR	9	4	0	BULLETIN	195	n/a	n/a	0	n/a	0	0	0	0.422607421875	0.5869140625	0	upper	amplitud.ttf
1380.638	n/a	WORD	690319	wordpools/wasnorm_wordpool_less_exclusions.txt	LTP239	ltpFR	9	4	0	TIE	1466	n/a	n/a	1	n/a	0	0	0	0.422607421875	0.5869140625	0	upper	amplitud.ttf
1384.704	n/a	WORD	692352	wordpools/wasnorm_wordpool_less_exclusions.txt	LTP239	ltpFR	9	4	1	SHED	1277	n/a	n/a	0	n/a	0	0	0	0.57763671875	0.412841796875	1	lower	zerothre.ttf
1388.786	n/a	WORD	694393	wordpools/wasnorm_wordpool_less_exclusions.txt	LTP239	ltpFR	9	4	1	COTTAGE	384	n/a	n/a	0	n/a	0	0	0	0.57763671875	0.412841796875	1	lower	zerothre.ttf
1392.784	n/a	WORD	696392	wordpools/wasnorm_wordpool_less_exclusions.txt	LTP239	ltpFR	9	4	1	STAR	1373	n/a	n/a	n/a	n/a	0	0	0	0.57763671875	0.412841796875	1	lower	zerothre.ttf
1395.828	n/a	SLOW_MSG	697914	n/a	LTP239	ltpFR	9	4	n/a	n/a	n/a	n/a	n/a	n/a	n/a	0	0	0	n/a	n/a	n/a	n/a	n/a
1398.356	n/a	WORD	699178	wordpools/wasnorm_wordpool_less_exclusions.txt	LTP239	ltpFR	9	4	1	TROUSERS	1510	n/a	n/a	0	n/a	0	0	0	0.57763671875	0.412841796875	1	lower	zerothre.ttf
1402.3	n/a	WORD	701150	wordpools/wasnorm_wordpool_less_exclusions.txt	LTP239	ltpFR	9	4	0	INSTRUCTOR	741	n/a	n/a	1	n/a	0	0	0	0.422607421875	0.5869140625	0	upper	amplitud.ttf
1406.168	n/a	WORD	703084	wordpools/wasnorm_wordpool_less_exclusions.txt	LTP239	ltpFR	9	4	0	GALAXY	617	n/a	n/a	1	n/a	0	0	0	0.422607421875	0.5869140625	0	upper	amplitud.ttf
1410.066	n/a	WORD	705033	wordpools/wasnorm_wordpool_less_exclusions.txt	LTP239	ltpFR	9	4	0	STATUE	1374	n/a	n/a	1	n/a	0	0	0	0.422607421875	0.5869140625	0	upper	amplitud.ttf
1413.078	n/a	START	706539	n/a	LTP239	ltpFR	9	n/a	n/a	n/a	n/a	n/a	n/a	n/a	n/a	n/a	n/a	n/a	n/a	n/a	n/a	n/a	n/a
1413.948	n/a	PROB	706974	n/a	LTP239	ltpFR	9	n/a	n/a	n/a	n/a	n/a	n/a	n/a	7	2	4	1	n/a	n/a	n/a	n/a	n/a
1417.106	n/a	PROB	708553	n/a	LTP239	ltpFR	9	n/a	n/a	n/a	n/a	n/a	n/a	n/a	12	1	2	9	n/a	n/a	n/a	n/a	n/a
1421.078	n/a	STOP	710539	n/a	LTP239	ltpFR	9	n/a	n/a	n/a	n/a	n/a	n/a	n/a	n/a	n/a	n/a	n/a	n/a	n/a	n/a	n/a	n/a
1422.868	n/a	REC_START	711434	n/a	LTP239	ltpFR	9	4	n/a	n/a	n/a	n/a	n/a	n/a	n/a	0	0	0	n/a	n/a	n/a	n/a	n/a
1424.144	n/a	REC_WORD	712072	wordpools/wasnorm_wordpool_less_exclusions.txt	LTP239	ltpFR	9	4	0	GALAXY	617	n/a	n/a	1	n/a	0	0	0	n/a	n/a	n/a	n/a	n/a
1425.28	n/a	REC_WORD	712640	wordpools/wasnorm_wordpool_less_exclusions.txt	LTP239	ltpFR	9	4	1	STAR	1373	n/a	n/a	n/a	n/a	0	0	0	n/a	n/a	n/a	n/a	n/a
1426.938	n/a	REC_WORD	713469	wordpools/wasnorm_wordpool_less_exclusions.txt	LTP239	ltpFR	9	4	0	CHIPMUNK	304	n/a	n/a	0	n/a	0	0	0	n/a	n/a	n/a	n/a	n/a
1432.47	n/a	REC_WORD	716235	wordpools/wasnorm_wordpool_less_exclusions.txt	LTP239	ltpFR	9	4	0	BEVERAGE	123	n/a	n/a	0	n/a	0	0	0	n/a	n/a	n/a	n/a	n/a
1435.814	n/a	REC_WORD	717907	wordpools/wasnorm_wordpool_less_exclusions.txt	LTP239	ltpFR	9	4	1	MUSHROOM	934	n/a	n/a	1	n/a	0	0	0	n/a	n/a	n/a	n/a	n/a
1633.086	n/a	START	816543	n/a	LTP239	ltpFR	9	n/a	n/a	n/a	n/a	n/a	n/a	n/a	n/a	n/a	n/a	n/a	n/a	n/a	n/a	n/a	n/a
1634.592	n/a	PROB	817296	n/a	LTP239	ltpFR	9	n/a	n/a	n/a	n/a	n/a	n/a	n/a	21	9	3	9	n/a	n/a	n/a	n/a	n/a
1637.05	n/a	PROB	818525	n/a	LTP239	ltpFR	9	n/a	n/a	n/a	n/a	n/a	n/a	n/a	15	4	8	3	n/a	n/a	n/a	n/a	n/a
1638.892	n/a	PROB	819446	n/a	LTP239	ltpFR	9	n/a	n/a	n/a	n/a	n/a	n/a	n/a	15	4	5	6	n/a	n/a	n/a	n/a	n/a
1640.512	n/a	STOP	820256	n/a	LTP239	ltpFR	9	n/a	n/a	n/a	n/a	n/a	n/a	n/a	n/a	n/a	n/a	n/a	n/a	n/a	n/a	n/a	n/a
1642.032	n/a	WORD	821016	wordpools/wasnorm_wordpool_less_exclusions.txt	LTP239	ltpFR	9	5	0	PASSAGE	1019	n/a	n/a	0	n/a	0	0	0	0.422607421875	0.5869140625	0	upper	amplitud.ttf
1645.048	n/a	START	822524	n/a	LTP239	ltpFR	9	n/a	n/a	n/a	n/a	n/a	n/a	n/a	n/a	n/a	n/a	n/a	n/a	n/a	n/a	n/a	n/a
1645.984	n/a	PROB	822992	n/a	LTP239	ltpFR	9	n/a	n/a	n/a	n/a	n/a	n/a	n/a	15	5	6	4	n/a	n/a	n/a	n/a	n/a
1647.878	n/a	PROB	823939	n/a	LTP239	ltpFR	9	n/a	n/a	n/a	n/a	n/a	n/a	n/a	17	5	6	7	n/a	n/a	n/a	n/a	n/a
1653.05	n/a	STOP	826525	n/a	LTP239	ltpFR	9	n/a	n/a	n/a	n/a	n/a	n/a	n/a	n/a	n/a	n/a	n/a	n/a	n/a	n/a	n/a	n/a
1653.962	n/a	WORD	826981	wordpools/wasnorm_wordpool_less_exclusions.txt	LTP239	ltpFR	9	5	0	ROOM	1206	n/a	n/a	1	n/a	0	0	0	0.422607421875	0.5869140625	0	upper	amplitud.ttf
1656.978	n/a	START	828489	n/a	LTP239	ltpFR	9	n/a	n/a	n/a	n/a	n/a	n/a	n/a	n/a	n/a	n/a	n/a	n/a	n/a	n/a	n/a	n/a
1657.796	n/a	PROB	828898	n/a	LTP239	ltpFR	9	n/a	n/a	n/a	n/a	n/a	n/a	n/a	22	9	9	4	n/a	n/a	n/a	n/a	n/a
1659.65	n/a	PROB	829825	n/a	LTP239	ltpFR	9	n/a	n/a	n/a	n/a	n/a	n/a	n/a	6	7	2	7	n/a	n/a	n/a	n/a	n/a
1664.978	n/a	STOP	832489	n/a	LTP239	ltpFR	9	n/a	n/a	n/a	n/a	n/a	n/a	n/a	n/a	n/a	n/a	n/a	n/a	n/a	n/a	n/a	n/a
1666.062	n/a	WORD	833031	wordpools/wasnorm_wordpool_less_exclusions.txt	LTP239	ltpFR	9	5	0	FAUCET	555	n/a	n/a	0	n/a	0	0	0	0.422607421875	0.5869140625	0	upper	amplitud.ttf
1669.074	n/a	START	834537	n/a	LTP239	ltpFR	9	n/a	n/a	n/a	n/a	n/a	n/a	n/a	n/a	n/a	n/a	n/a	n/a	n/a	n/a	n/a	n/a
1670.178	n/a	PROB	835089	n/a	LTP239	ltpFR	9	n/a	n/a	n/a	n/a	n/a	n/a	n/a	15	5	4	6	n/a	n/a	n/a	n/a	n/a
1672.048	n/a	PROB	836024	n/a	LTP239	ltpFR	9	n/a	n/a	n/a	n/a	n/a	n/a	n/a	15	6	5	4	n/a	n/a	n/a	n/a	n/a
1673.988	n/a	PROB	836994	n/a	LTP239	ltpFR	9	n/a	n/a	n/a	n/a	n/a	n/a	n/a	61	5	3	8	n/a	n/a	n/a	n/a	n/a
1676.594	n/a	STOP	838297	n/a	LTP239	ltpFR	9	n/a	n/a	n/a	n/a	n/a	n/a	n/a	n/a	n/a	n/a	n/a	n/a	n/a	n/a	n/a	n/a
1678.02	n/a	WORD	839010	wordpools/wasnorm_wordpool_less_exclusions.txt	LTP239	ltpFR	9	5	0	SLEEVE	1324	n/a	n/a	0	n/a	0	0	0	0.422607421875	0.5869140625	0	upper	amplitud.ttf
1681.036	n/a	START	840518	n/a	LTP239	ltpFR	9	n/a	n/a	n/a	n/a	n/a	n/a	n/a	n/a	n/a	n/a	n/a	n/a	n/a	n/a	n/a	n/a
1681.89	n/a	PROB	840945	n/a	LTP239	ltpFR	9	n/a	n/a	n/a	n/a	n/a	n/a	n/a	19	9	4	6	n/a	n/a	n/a	n/a	n/a
1684.01	n/a	PROB	842005	n/a	LTP239	ltpFR	9	n/a	n/a	n/a	n/a	n/a	n/a	n/a	13	7	3	3	n/a	n/a	n/a	n/a	n/a
1686.352	n/a	PROB	843176	n/a	LTP239	ltpFR	9	n/a	n/a	n/a	n/a	n/a	n/a	n/a	11	3	6	2	n/a	n/a	n/a	n/a	n/a
1688.532	n/a	STOP	844266	n/a	LTP239	ltpFR	9	n/a	n/a	n/a	n/a	n/a	n/a	n/a	n/a	n/a	n/a	n/a	n/a	n/a	n/a	n/a	n/a
1689.87	n/a	WORD	844935	wordpools/wasnorm_wordpool_less_exclusions.txt	LTP239	ltpFR	9	5	0	SHORTS	1293	n/a	n/a	0	n/a	0	0	0	0.422607421875	0.5869140625	0	upper	amplitud.ttf
1692.882	n/a	START	846441	n/a	LTP239	ltpFR	9	n/a	n/a	n/a	n/a	n/a	n/a	n/a	n/a	n/a	n/a	n/a	n/a	n/a	n/a	n/a	n/a
1693.83	n/a	PROB	846915	n/a	LTP239	ltpFR	9	n/a	n/a	n/a	n/a	n/a	n/a	n/a	19	4	8	7	n/a	n/a	n/a	n/a	n/a
1695.788	n/a	PROB	847894	n/a	LTP239	ltpFR	9	n/a	n/a	n/a	n/a	n/a	n/a	n/a	11	7	1	3	n/a	n/a	n/a	n/a	n/a
1697.648	n/a	PROB	848824	n/a	LTP239	ltpFR	9	n/a	n/a	n/a	n/a	n/a	n/a	n/a	12	6	5	1	n/a	n/a	n/a	n/a	n/a
1700.882	n/a	STOP	850441	n/a	LTP239	ltpFR	9	n/a	n/a	n/a	n/a	n/a	n/a	n/a	n/a	n/a	n/a	n/a	n/a	n/a	n/a	n/a	n/a
1701.764	n/a	WORD	850882	wordpools/wasnorm_wordpool_less_exclusions.txt	LTP239	ltpFR	9	5	0	CURB	426	n/a	n/a	1	n/a	0	0	0	0.422607421875	0.5869140625	0	upper	amplitud.ttf
1704.778	n/a	START	852389	n/a	LTP239	ltpFR	9	n/a	n/a	n/a	n/a	n/a	n/a	n/a	n/a	n/a	n/a	n/a	n/a	n/a	n/a	n/a	n/a
1705.764	n/a	PROB	852882	n/a	LTP239	ltpFR	9	n/a	n/a	n/a	n/a	n/a	n/a	n/a	20	8	7	5	n/a	n/a	n/a	n/a	n/a
1708.068	n/a	PROB	854034	n/a	LTP239	ltpFR	9	n/a	n/a	n/a	n/a	n/a	n/a	n/a	17	7	9	1	n/a	n/a	n/a	n/a	n/a
1711.732	n/a	STOP	855866	n/a	LTP239	ltpFR	9	n/a	n/a	n/a	n/a	n/a	n/a	n/a	n/a	n/a	n/a	n/a	n/a	n/a	n/a	n/a	n/a
1713.778	n/a	WORD	856889	wordpools/wasnorm_wordpool_less_exclusions.txt	LTP239	ltpFR	9	5	0	PEAR	1033	n/a	n/a	0	n/a	0	0	0	0.422607421875	0.5869140625	0	upper	amplitud.ttf
1716.79	n/a	START	858395	n/a	LTP239	ltpFR	9	n/a	n/a	n/a	n/a	n/a	n/a	n/a	n/a	n/a	n/a	n/a	n/a	n/a	n/a	n/a	n/a
1717.994	n/a	PROB	858997	n/a	LTP239	ltpFR	9	n/a	n/a	n/a	n/a	n/a	n/a	n/a	20	5	7	8	n/a	n/a	n/a	n/a	n/a
1719.918	n/a	PROB	859959	n/a	LTP239	ltpFR	9	n/a	n/a	n/a	n/a	n/a	n/a	n/a	12	1	9	2	n/a	n/a	n/a	n/a	n/a
1721.604	n/a	PROB	860802	n/a	LTP239	ltpFR	9	n/a	n/a	n/a	n/a	n/a	n/a	n/a	4	2	1	2	n/a	n/a	n/a	n/a	n/a
1724.79	n/a	STOP	862395	n/a	LTP239	ltpFR	9	n/a	n/a	n/a	n/a	n/a	n/a	n/a	n/a	n/a	n/a	n/a	n/a	n/a	n/a	n/a	n/a
1725.79	n/a	WORD	862895	wordpools/wasnorm_wordpool_less_exclusions.txt	LTP239	ltpFR	9	5	0	MAILMAN	858	n/a	n/a	1	n/a	0	0	0	0.422607421875	0.5869140625	0	upper	amplitud.ttf
1728.802	n/a	START	864401	n/a	LTP239	ltpFR	9	n/a	n/a	n/a	n/a	n/a	n/a	n/a	n/a	n/a	n/a	n/a	n/a	n/a	n/a	n/a	n/a
1730.006	n/a	PROB	865003	n/a	LTP239	ltpFR	9	n/a	n/a	n/a	n/a	n/a	n/a	n/a	10	3	3	4	n/a	n/a	n/a	n/a	n/a
1732.73	n/a	PROB	866365	n/a	LTP239	ltpFR	9	n/a	n/a	n/a	n/a	n/a	n/a	n/a	15	5	2	8	n/a	n/a	n/a	n/a	n/a
1734.57	n/a	PROB	867285	n/a	LTP239	ltpFR	9	n/a	n/a	n/a	n/a	n/a	n/a	n/a	13	5	2	3	n/a	n/a	n/a	n/a	n/a
1736.254	n/a	STOP	868127	n/a	LTP239	ltpFR	9	n/a	n/a	n/a	n/a	n/a	n/a	n/a	n/a	n/a	n/a	n/a	n/a	n/a	n/a	n/a	n/a
1737.716	n/a	WORD	868858	wordpools/wasnorm_wordpool_less_exclusions.txt	LTP239	ltpFR	9	5	0	MITTEN	902	n/a	n/a	0	n/a	0	0	0	0.422607421875	0.5869140625	0	upper	amplitud.ttf
1740.73	n/a	START	870365	n/a	LTP239	ltpFR	9	n/a	n/a	n/a	n/a	n/a	n/a	n/a	n/a	n/a	n/a	n/a	n/a	n/a	n/a	n/a	n/a
1741.6	n/a	PROB	870800	n/a	LTP239	ltpFR	9	n/a	n/a	n/a	n/a	n/a	n/a	n/a	9	5	1	3	n/a	n/a	n/a	n/a	n/a
1743.76	n/a	PROB	871880	n/a	LTP239	ltpFR	9	n/a	n/a	n/a	n/a	n/a	n/a	n/a	16	5	6	5	n/a	n/a	n/a	n/a	n/a
1745.864	n/a	PROB	872932	n/a	LTP239	ltpFR	9	n/a	n/a	n/a	n/a	n/a	n/a	n/a	10	1	5	4	n/a	n/a	n/a	n/a	n/a
1748.462	n/a	STOP	874231	n/a	LTP239	ltpFR	9	n/a	n/a	n/a	n/a	n/a	n/a	n/a	n/a	n/a	n/a	n/a	n/a	n/a	n/a	n/a	n/a
1749.728	n/a	WORD	874864	wordpools/wasnorm_wordpool_less_exclusions.txt	LTP239	ltpFR	9	5	0	BEDROOM	111	n/a	n/a	0	n/a	0	0	0	0.422607421875	0.5869140625	0	upper	amplitud.ttf
1752.744	n/a	START	876372	n/a	LTP239	ltpFR	9	n/a	n/a	n/a	n/a	n/a	n/a	n/a	n/a	n/a	n/a	n/a	n/a	n/a	n/a	n/a	n/a
1753.562	n/a	PROB	876781	n/a	LTP239	ltpFR	9	n/a	n/a	n/a	n/a	n/a	n/a	n/a	14	2	3	9	n/a	n/a	n/a	n/a	n/a
1755.85	n/a	PROB	877925	n/a	LTP239	ltpFR	9	n/a	n/a	n/a	n/a	n/a	n/a	n/a	20	7	9	4	n/a	n/a	n/a	n/a	n/a
1758.28	n/a	PROB	879140	n/a	LTP239	ltpFR	9	n/a	n/a	n/a	n/a	n/a	n/a	n/a	17	5	4	8	n/a	n/a	n/a	n/a	n/a
1760.39	n/a	STOP	880195	n/a	LTP239	ltpFR	9	n/a	n/a	n/a	n/a	n/a	n/a	n/a	n/a	n/a	n/a	n/a	n/a	n/a	n/a	n/a	n/a
1761.66	n/a	WORD	880830	wordpools/wasnorm_wordpool_less_exclusions.txt	LTP239	ltpFR	9	5	0	OTTER	986	n/a	n/a	0	n/a	0	0	0	0.422607421875	0.5869140625	0	upper	amplitud.ttf
1764.672	n/a	START	882336	n/a	LTP239	ltpFR	9	n/a	n/a	n/a	n/a	n/a	n/a	n/a	n/a	n/a	n/a	n/a	n/a	n/a	n/a	n/a	n/a
1765.676	n/a	PROB	882838	n/a	LTP239	ltpFR	9	n/a	n/a	n/a	n/a	n/a	n/a	n/a	14	2	5	7	n/a	n/a	n/a	n/a	n/a
1767.53	n/a	PROB	883765	n/a	LTP239	ltpFR	9	n/a	n/a	n/a	n/a	n/a	n/a	n/a	16	4	9	3	n/a	n/a	n/a	n/a	n/a
1769.674	n/a	PROB	884837	n/a	LTP239	ltpFR	9	n/a	n/a	n/a	n/a	n/a	n/a	n/a	16	9	5	2	n/a	n/a	n/a	n/a	n/a
1772.296	n/a	STOP	886148	n/a	LTP239	ltpFR	9	n/a	n/a	n/a	n/a	n/a	n/a	n/a	n/a	n/a	n/a	n/a	n/a	n/a	n/a	n/a	n/a
1773.606	n/a	WORD	886803	wordpools/wasnorm_wordpool_less_exclusions.txt	LTP239	ltpFR	9	5	0	MARINE	869	n/a	n/a	0	n/a	0	0	0	0.422607421875	0.5869140625	0	upper	amplitud.ttf
1776.618	n/a	START	888309	n/a	LTP239	ltpFR	9	n/a	n/a	n/a	n/a	n/a	n/a	n/a	n/a	n/a	n/a	n/a	n/a	n/a	n/a	n/a	n/a
1777.722	n/a	PROB	888861	n/a	LTP239	ltpFR	9	n/a	n/a	n/a	n/a	n/a	n/a	n/a	12	8	1	3	n/a	n/a	n/a	n/a	n/a
1779.83	n/a	PROB	889915	n/a	LTP239	ltpFR	9	n/a	n/a	n/a	n/a	n/a	n/a	n/a	10	5	3	2	n/a	n/a	n/a	n/a	n/a
1783.832	n/a	STOP	891916	n/a	LTP239	ltpFR	9	n/a	n/a	n/a	n/a	n/a	n/a	n/a	n/a	n/a	n/a	n/a	n/a	n/a	n/a	n/a	n/a
1785.698	n/a	WORD	892849	wordpools/wasnorm_wordpool_less_exclusions.txt	LTP239	ltpFR	9	5	0	PIANO	1057	n/a	n/a	1	n/a	0	0	0	0.422607421875	0.5869140625	0	upper	amplitud.ttf
1788.714	n/a	START	894357	n/a	LTP239	ltpFR	9	n/a	n/a	n/a	n/a	n/a	n/a	n/a	n/a	n/a	n/a	n/a	n/a	n/a	n/a	n/a	n/a
1789.6	n/a	PROB	894800	n/a	LTP239	ltpFR	9	n/a	n/a	n/a	n/a	n/a	n/a	n/a	16	9	2	5	n/a	n/a	n/a	n/a	n/a
1791.604	n/a	PROB	895802	n/a	LTP239	ltpFR	9	n/a	n/a	n/a	n/a	n/a	n/a	n/a	16	5	9	2	n/a	n/a	n/a	n/a	n/a
1794.466	n/a	PROB	897233	n/a	LTP239	ltpFR	9	n/a	n/a	n/a	n/a	n/a	n/a	n/a	15	9	1	7	n/a	n/a	n/a	n/a	n/a
1796.256	n/a	STOP	898128	n/a	LTP239	ltpFR	9	n/a	n/a	n/a	n/a	n/a	n/a	n/a	n/a	n/a	n/a	n/a	n/a	n/a	n/a	n/a	n/a
1797.848	n/a	WORD	898924	wordpools/wasnorm_wordpool_less_exclusions.txt	LTP239	ltpFR	9	5	0	STAGE	1366	n/a	n/a	1	n/a	0	0	0	0.422607421875	0.5869140625	0	upper	amplitud.ttf
1800.862	n/a	START	900431	n/a	LTP239	ltpFR	9	n/a	n/a	n/a	n/a	n/a	n/a	n/a	n/a	n/a	n/a	n/a	n/a	n/a	n/a	n/a	n/a
1801.878	n/a	PROB	900939	n/a	LTP239	ltpFR	9	n/a	n/a	n/a	n/a	n/a	n/a	n/a	20	5	9	6	n/a	n/a	n/a	n/a	n/a
1804.47	n/a	PROB	902235	n/a	LTP239	ltpFR	9	n/a	n/a	n/a	n/a	n/a	n/a	n/a	13	3	1	9	n/a	n/a	n/a	n/a	n/a
1808.862	n/a	STOP	904431	n/a	LTP239	ltpFR	9	n/a	n/a	n/a	n/a	n/a	n/a	n/a	n/a	n/a	n/a	n/a	n/a	n/a	n/a	n/a	n/a
1809.962	n/a	WORD	904981	wordpools/wasnorm_wordpool_less_exclusions.txt	LTP239	ltpFR	9	5	0	MOTEL	919	n/a	n/a	1	n/a	0	0	0	0.422607421875	0.5869140625	0	upper	amplitud.ttf
1812.974	n/a	START	906487	n/a	LTP239	ltpFR	9	n/a	n/a	n/a	n/a	n/a	n/a	n/a	n/a	n/a	n/a	n/a	n/a	n/a	n/a	n/a	n/a
1814.128	n/a	PROB	907064	n/a	LTP239	ltpFR	9	n/a	n/a	n/a	n/a	n/a	n/a	n/a	10	1	6	3	n/a	n/a	n/a	n/a	n/a
1816.232	n/a	PROB	908116	n/a	LTP239	ltpFR	9	n/a	n/a	n/a	n/a	n/a	n/a	n/a	11	1	7	3	n/a	n/a	n/a	n/a	n/a
1817.842	n/a	PROB	908921	n/a	LTP239	ltpFR	9	n/a	n/a	n/a	n/a	n/a	n/a	n/a	15	5	7	3	n/a	n/a	n/a	n/a	n/a
1819.924	n/a	STOP	909962	n/a	LTP239	ltpFR	9	n/a	n/a	n/a	n/a	n/a	n/a	n/a	n/a	n/a	n/a	n/a	n/a	n/a	n/a	n/a	n/a
1821.872	n/a	WORD	910936	wordpools/wasnorm_wordpool_less_exclusions.txt	LTP239	ltpFR	9	5	0	STAMP	1370	n/a	n/a	0	n/a	0	0	0	0.422607421875	0.5869140625	0	upper	amplitud.ttf
1824.886	n/a	START	912443	n/a	LTP239	ltpFR	9	n/a	n/a	n/a	n/a	n/a	n/a	n/a	n/a	n/a	n/a	n/a	n/a	n/a	n/a	n/a	n/a
1826.024	n/a	PROB	913012	n/a	LTP239	ltpFR	9	n/a	n/a	n/a	n/a	n/a	n/a	n/a	14	5	2	7	n/a	n/a	n/a	n/a	n/a
1828.918	n/a	PROB	914459	n/a	LTP239	ltpFR	9	n/a	n/a	n/a	n/a	n/a	n/a	n/a	17	2	9	6	n/a	n/a	n/a	n/a	n/a
1830.91	n/a	PROB	915455	n/a	LTP239	ltpFR	9	n/a	n/a	n/a	n/a	n/a	n/a	n/a	17	4	6	7	n/a	n/a	n/a	n/a	n/a
1832.69	n/a	STOP	916345	n/a	LTP239	ltpFR	9	n/a	n/a	n/a	n/a	n/a	n/a	n/a	n/a	n/a	n/a	n/a	n/a	n/a	n/a	n/a	n/a
1834.656	n/a	REC_START	917328	n/a	LTP239	ltpFR	9	5	n/a	n/a	n/a	n/a	n/a	n/a	n/a	0	0	0	n/a	n/a	n/a	n/a	n/a
1842.888	n/a	REC_WORD	921444	wordpools/wasnorm_wordpool_less_exclusions.txt	LTP239	ltpFR	9	5	n/a	BED	110	n/a	n/a	n/a	n/a	0	0	0	n/a	n/a	n/a	n/a	n/a
1844.724	n/a	REC_WORD	922362	wordpools/wasnorm_wordpool_less_exclusions.txt	LTP239	ltpFR	9	5	n/a	WALLET	1583	n/a	n/a	n/a	n/a	0	0	0	n/a	n/a	n/a	n/a	n/a
1851.662	n/a	REC_WORD	925831	wordpools/wasnorm_wordpool_less_exclusions.txt	LTP239	ltpFR	9	5	n/a	WATCH	-1	n/a	n/a	n/a	n/a	0	0	0	n/a	n/a	n/a	n/a	n/a
1858.154	n/a	REC_WORD	929077	wordpools/wasnorm_wordpool_less_exclusions.txt	LTP239	ltpFR	9	5	0	MITTEN	902	n/a	n/a	0	n/a	0	0	0	n/a	n/a	n/a	n/a	n/a
1859.012	n/a	REC_WORD	929506	wordpools/wasnorm_wordpool_less_exclusions.txt	LTP239	ltpFR	9	5	0	STAMP	1370	n/a	n/a	0	n/a	0	0	0	n/a	n/a	n/a	n/a	n/a
1867.564	n/a	REC_WORD	933782	wordpools/wasnorm_wordpool_less_exclusions.txt	LTP239	ltpFR	9	5	0	ROOM	1206	n/a	n/a	1	n/a	0	0	0	n/a	n/a	n/a	n/a	n/a
1987.24	n/a	START	993620	n/a	LTP239	ltpFR	9	n/a	n/a	n/a	n/a	n/a	n/a	n/a	n/a	n/a	n/a	n/a	n/a	n/a	n/a	n/a	n/a
1988.746	n/a	PROB	994373	n/a	LTP239	ltpFR	9	n/a	n/a	n/a	n/a	n/a	n/a	n/a	12	7	1	4	n/a	n/a	n/a	n/a	n/a
1991.702	n/a	PROB	995851	n/a	LTP239	ltpFR	9	n/a	n/a	n/a	n/a	n/a	n/a	n/a	16	5	4	7	n/a	n/a	n/a	n/a	n/a
1994.132	n/a	PROB	997066	n/a	LTP239	ltpFR	9	n/a	n/a	n/a	n/a	n/a	n/a	n/a	22	7	6	9	n/a	n/a	n/a	n/a	n/a
1998.026	n/a	PROB	999013	n/a	LTP239	ltpFR	9	n/a	n/a	n/a	n/a	n/a	n/a	n/a	23	9	9	5	n/a	n/a	n/a	n/a	n/a
1999.77	n/a	PROB	999885	n/a	LTP239	ltpFR	9	n/a	n/a	n/a	n/a	n/a	n/a	n/a	13	6	1	6	n/a	n/a	n/a	n/a	n/a
2001.238	n/a	PROB	1000619	n/a	LTP239	ltpFR	9	n/a	n/a	n/a	n/a	n/a	n/a	n/a	3	1	1	1	n/a	n/a	n/a	n/a	n/a
2002.444	n/a	STOP	1001222	n/a	LTP239	ltpFR	9	n/a	n/a	n/a	n/a	n/a	n/a	n/a	n/a	n/a	n/a	n/a	n/a	n/a	n/a	n/a	n/a
2004.354	n/a	WORD	1002177	wordpools/wasnorm_wordpool_less_exclusions.txt	LTP239	ltpFR	9	6	1	BROCCOLI	176	n/a	n/a	2	n/a	0	0	0	0.57763671875	0.412841796875	1	lower	zerothre.ttf
2005.676	n/a	KEY_MSG	1002838	n/a	LTP239	ltpFR	9	6	n/a	n/a	n/a	n/a	n/a	n/a	n/a	0	0	0	n/a	n/a	n/a	n/a	n/a
2007.368	n/a	START	1003684	n/a	LTP239	ltpFR	9	n/a	n/a	n/a	n/a	n/a	n/a	n/a	n/a	n/a	n/a	n/a	n/a	n/a	n/a	n/a	n/a
2008.484	n/a	PROB	1004242	n/a	LTP239	ltpFR	9	n/a	n/a	n/a	n/a	n/a	n/a	n/a	20	8	8	4	n/a	n/a	n/a	n/a	n/a
2010.524	n/a	PROB	1005262	n/a	LTP239	ltpFR	9	n/a	n/a	n/a	n/a	n/a	n/a	n/a	13	3	7	3	n/a	n/a	n/a	n/a	n/a
2012.098	n/a	PROB	1006049	n/a	LTP239	ltpFR	9	n/a	n/a	n/a	n/a	n/a	n/a	n/a	23	5	9	9	n/a	n/a	n/a	n/a	n/a
2013.838	n/a	PROB	1006919	n/a	LTP239	ltpFR	9	n/a	n/a	n/a	n/a	n/a	n/a	n/a	14	1	4	9	n/a	n/a	n/a	n/a	n/a
2017.418	n/a	PROB	1008709	n/a	LTP239	ltpFR	9	n/a	n/a	n/a	n/a	n/a	n/a	n/a	8	6	1	1	n/a	n/a	n/a	n/a	n/a
2018.772	n/a	PROB	1009386	n/a	LTP239	ltpFR	9	n/a	n/a	n/a	n/a	n/a	n/a	n/a	18	6	4	8	n/a	n/a	n/a	n/a	n/a
2022.902	n/a	STOP	1011451	n/a	LTP239	ltpFR	9	n/a	n/a	n/a	n/a	n/a	n/a	n/a	n/a	n/a	n/a	n/a	n/a	n/a	n/a	n/a	n/a
2024.544	n/a	WORD	1012272	wordpools/wasnorm_wordpool_less_exclusions.txt	LTP239	ltpFR	9	6	1	PARROT	1015	n/a	n/a	1	n/a	0	0	0	0.57763671875	0.412841796875	1	lower	zerothre.ttf
2027.56	n/a	START	1013780	n/a	LTP239	ltpFR	9	n/a	n/a	n/a	n/a	n/a	n/a	n/a	n/a	n/a	n/a	n/a	n/a	n/a	n/a	n/a	n/a
2028.464	n/a	PROB	1014232	n/a	LTP239	ltpFR	9	n/a	n/a	n/a	n/a	n/a	n/a	n/a	8	4	3	1	n/a	n/a	n/a	n/a	n/a
2030.136	n/a	PROB	1015068	n/a	LTP239	ltpFR	9	n/a	n/a	n/a	n/a	n/a	n/a	n/a	18	4	9	5	n/a	n/a	n/a	n/a	n/a
2032.362	n/a	PROB	1016181	n/a	LTP239	ltpFR	9	n/a	n/a	n/a	n/a	n/a	n/a	n/a	12	4	4	4	n/a	n/a	n/a	n/a	n/a
2033.864	n/a	PROB	1016932	n/a	LTP239	ltpFR	9	n/a	n/a	n/a	n/a	n/a	n/a	n/a	13	4	1	8	n/a	n/a	n/a	n/a	n/a
2036.456	n/a	PROB	1018228	n/a	LTP239	ltpFR	9	n/a	n/a	n/a	n/a	n/a	n/a	n/a	18	5	5	8	n/a	n/a	n/a	n/a	n/a
2038.364	n/a	PROB	1019182	n/a	LTP239	ltpFR	9	n/a	n/a	n/a	n/a	n/a	n/a	n/a	14	5	4	5	n/a	n/a	n/a	n/a	n/a
2040.426	n/a	PROB	1020213	n/a	LTP239	ltpFR	9	n/a	n/a	n/a	n/a	n/a	n/a	n/a	19	4	9	6	n/a	n/a	n/a	n/a	n/a
2042.806	n/a	STOP	1021403	n/a	LTP239	ltpFR	9	n/a	n/a	n/a	n/a	n/a	n/a	n/a	n/a	n/a	n/a	n/a	n/a	n/a	n/a	n/a	n/a
2044.642	n/a	WORD	1022321	wordpools/wasnorm_wordpool_less_exclusions.txt	LTP239	ltpFR	9	6	1	DUCK	504	n/a	n/a	0	n/a	0	0	0	0.57763671875	0.412841796875	1	lower	zerothre.ttf
2047.654	n/a	START	1023827	n/a	LTP239	ltpFR	9	n/a	n/a	n/a	n/a	n/a	n/a	n/a	n/a	n/a	n/a	n/a	n/a	n/a	n/a	n/a	n/a
2048.842	n/a	PROB	1024421	n/a	LTP239	ltpFR	9	n/a	n/a	n/a	n/a	n/a	n/a	n/a	11	1	3	7	n/a	n/a	n/a	n/a	n/a
2050.296	n/a	PROB	1025148	n/a	LTP239	ltpFR	9	n/a	n/a	n/a	n/a	n/a	n/a	n/a	10	4	1	5	n/a	n/a	n/a	n/a	n/a
2052.522	n/a	PROB	1026261	n/a	LTP239	ltpFR	9	n/a	n/a	n/a	n/a	n/a	n/a	n/a	20	8	9	5	n/a	n/a	n/a	n/a	n/a
2054.66	n/a	PROB	1027330	n/a	LTP239	ltpFR	9	n/a	n/a	n/a	n/a	n/a	n/a	n/a	15	7	2	6	n/a	n/a	n/a	n/a	n/a
2057.17	n/a	PROB	1028585	n/a	LTP239	ltpFR	9	n/a	n/a	n/a	n/a	n/a	n/a	n/a	10	3	2	7	n/a	n/a	n/a	n/a	n/a
2059.562	n/a	PROB	1029781	n/a	LTP239	ltpFR	9	n/a	n/a	n/a	n/a	n/a	n/a	n/a	9	6	1	2	n/a	n/a	n/a	n/a	n/a
2063.656	n/a	STOP	1031828	n/a	LTP239	ltpFR	9	n/a	n/a	n/a	n/a	n/a	n/a	n/a	n/a	n/a	n/a	n/a	n/a	n/a	n/a	n/a	n/a
2064.518	n/a	WORD	1032259	wordpools/wasnorm_wordpool_less_exclusions.txt	LTP239	ltpFR	9	6	0	KETCHUP	771	n/a	n/a	1	n/a	0	0	0	0.422607421875	0.5869140625	0	upper	amplitud.ttf
2067.53	n/a	START	1033765	n/a	LTP239	ltpFR	9	n/a	n/a	n/a	n/a	n/a	n/a	n/a	n/a	n/a	n/a	n/a	n/a	n/a	n/a	n/a	n/a
2068.684	n/a	PROB	1034342	n/a	LTP239	ltpFR	9	n/a	n/a	n/a	n/a	n/a	n/a	n/a	19	7	8	4	n/a	n/a	n/a	n/a	n/a
2070.856	n/a	PROB	1035428	n/a	LTP239	ltpFR	9	n/a	n/a	n/a	n/a	n/a	n/a	n/a	9	4	2	3	n/a	n/a	n/a	n/a	n/a
2072.666	n/a	PROB	1036333	n/a	LTP239	ltpFR	9	n/a	n/a	n/a	n/a	n/a	n/a	n/a	17	4	8	5	n/a	n/a	n/a	n/a	n/a
2075.042	n/a	PROB	1037521	n/a	LTP239	ltpFR	9	n/a	n/a	n/a	n/a	n/a	n/a	n/a	18	5	4	9	n/a	n/a	n/a	n/a	n/a
2077.23	n/a	PROB	1038615	n/a	LTP239	ltpFR	9	n/a	n/a	n/a	n/a	n/a	n/a	n/a	8	1	5	2	n/a	n/a	n/a	n/a	n/a
2079.32	n/a	PROB	1039660	n/a	LTP239	ltpFR	9	n/a	n/a	n/a	n/a	n/a	n/a	n/a	31	3	8	1	n/a	n/a	n/a	n/a	n/a
2083.112	n/a	STOP	1041556	n/a	LTP239	ltpFR	9	n/a	n/a	n/a	n/a	n/a	n/a	n/a	n/a	n/a	n/a	n/a	n/a	n/a	n/a	n/a	n/a
2084.394	n/a	WORD	1042197	wordpools/wasnorm_wordpool_less_exclusions.txt	LTP239	ltpFR	9	6	0	DOLPHIN	483	n/a	n/a	n/a	n/a	0	0	0	0.422607421875	0.5869140625	0	upper	amplitud.ttf
2087.438	n/a	SLOW_MSG	1043719	n/a	LTP239	ltpFR	9	6	n/a	n/a	n/a	n/a	n/a	n/a	n/a	0	0	0	n/a	n/a	n/a	n/a	n/a
2088.962	n/a	START	1044481	n/a	LTP239	ltpFR	9	n/a	n/a	n/a	n/a	n/a	n/a	n/a	n/a	n/a	n/a	n/a	n/a	n/a	n/a	n/a	n/a
2089.864	n/a	PROB	1044932	n/a	LTP239	ltpFR	9	n/a	n/a	n/a	n/a	n/a	n/a	n/a	18	5	4	9	n/a	n/a	n/a	n/a	n/a
2092.906	n/a	PROB	1046453	n/a	LTP239	ltpFR	9	n/a	n/a	n/a	n/a	n/a	n/a	n/a	11	1	5	5	n/a	n/a	n/a	n/a	n/a
2094.26	n/a	PROB	1047130	n/a	LTP239	ltpFR	9	n/a	n/a	n/a	n/a	n/a	n/a	n/a	1	1	5	6	n/a	n/a	n/a	n/a	n/a
2095.934	n/a	PROB	1047967	n/a	LTP239	ltpFR	9	n/a	n/a	n/a	n/a	n/a	n/a	n/a	19	8	3	8	n/a	n/a	n/a	n/a	n/a
2098.058	n/a	PROB	1049029	n/a	LTP239	ltpFR	9	n/a	n/a	n/a	n/a	n/a	n/a	n/a	21	9	8	5	n/a	n/a	n/a	n/a	n/a
2100.87	n/a	PROB	1050435	n/a	LTP239	ltpFR	9	n/a	n/a	n/a	n/a	n/a	n/a	n/a	20	7	5	8	n/a	n/a	n/a	n/a	n/a
2103.078	n/a	PROB	1051539	n/a	LTP239	ltpFR	9	n/a	n/a	n/a	n/a	n/a	n/a	n/a	12	1	3	8	n/a	n/a	n/a	n/a	n/a
2104.93	n/a	STOP	1052465	n/a	LTP239	ltpFR	9	n/a	n/a	n/a	n/a	n/a	n/a	n/a	n/a	n/a	n/a	n/a	n/a	n/a	n/a	n/a	n/a
2105.81	n/a	WORD	1052905	wordpools/wasnorm_wordpool_less_exclusions.txt	LTP239	ltpFR	9	6	1	CHEERLEADER	288	n/a	n/a	1	n/a	0	0	0	0.57763671875	0.412841796875	1	lower	zerothre.ttf
2108.82	n/a	START	1054410	n/a	LTP239	ltpFR	9	n/a	n/a	n/a	n/a	n/a	n/a	n/a	n/a	n/a	n/a	n/a	n/a	n/a	n/a	n/a	n/a
2109.758	n/a	PROB	1054879	n/a	LTP239	ltpFR	9	n/a	n/a	n/a	n/a	n/a	n/a	n/a	17	2	8	7	n/a	n/a	n/a	n/a	n/a
2112.146	n/a	PROB	1056073	n/a	LTP239	ltpFR	9	n/a	n/a	n/a	n/a	n/a	n/a	n/a	11	5	3	3	n/a	n/a	n/a	n/a	n/a
2115.462	n/a	PROB	1057731	n/a	LTP239	ltpFR	9	n/a	n/a	n/a	n/a	n/a	n/a	n/a	16	7	4	5	n/a	n/a	n/a	n/a	n/a
2117.818	n/a	PROB	1058909	n/a	LTP239	ltpFR	9	n/a	n/a	n/a	n/a	n/a	n/a	n/a	15	6	8	3	n/a	n/a	n/a	n/a	n/a
2120.294	n/a	PROB	1060147	n/a	LTP239	ltpFR	9	n/a	n/a	n/a	n/a	n/a	n/a	n/a	16	6	7	3	n/a	n/a	n/a	n/a	n/a
2124.822	n/a	STOP	1062411	n/a	LTP239	ltpFR	9	n/a	n/a	n/a	n/a	n/a	n/a	n/a	n/a	n/a	n/a	n/a	n/a	n/a	n/a	n/a	n/a
2126.002	n/a	WORD	1063001	wordpools/wasnorm_wordpool_less_exclusions.txt	LTP239	ltpFR	9	6	1	MARROW	872	n/a	n/a	1	n/a	0	0	0	0.57763671875	0.412841796875	1	lower	zerothre.ttf
2129.014	n/a	START	1064507	n/a	LTP239	ltpFR	9	n/a	n/a	n/a	n/a	n/a	n/a	n/a	n/a	n/a	n/a	n/a	n/a	n/a	n/a	n/a	n/a
2129.936	n/a	PROB	1064968	n/a	LTP239	ltpFR	9	n/a	n/a	n/a	n/a	n/a	n/a	n/a	11	5	5	1	n/a	n/a	n/a	n/a	n/a
2131.406	n/a	PROB	1065703	n/a	LTP239	ltpFR	9	n/a	n/a	n/a	n/a	n/a	n/a	n/a	12	4	5	3	n/a	n/a	n/a	n/a	n/a
2133.196	n/a	PROB	1066598	n/a	LTP239	ltpFR	9	n/a	n/a	n/a	n/a	n/a	n/a	n/a	5	1	3	1	n/a	n/a	n/a	n/a	n/a
2134.514	n/a	PROB	1067257	n/a	LTP239	ltpFR	9	n/a	n/a	n/a	n/a	n/a	n/a	n/a	14	1	8	5	n/a	n/a	n/a	n/a	n/a
2136.56	n/a	PROB	1068280	n/a	LTP239	ltpFR	9	n/a	n/a	n/a	n/a	n/a	n/a	n/a	9	1	6	2	n/a	n/a	n/a	n/a	n/a
2138.546	n/a	PROB	1069273	n/a	LTP239	ltpFR	9	n/a	n/a	n/a	n/a	n/a	n/a	n/a	13	3	6	4	n/a	n/a	n/a	n/a	n/a
2142.094	n/a	PROB	1071047	n/a	LTP239	ltpFR	9	n/a	n/a	n/a	n/a	n/a	n/a	n/a	21	8	7	6	n/a	n/a	n/a	n/a	n/a
2144.956	n/a	STOP	1072478	n/a	LTP239	ltpFR	9	n/a	n/a	n/a	n/a	n/a	n/a	n/a	n/a	n/a	n/a	n/a	n/a	n/a	n/a	n/a	n/a
2146.16	n/a	WORD	1073080	wordpools/wasnorm_wordpool_less_exclusions.txt	LTP239	ltpFR	9	6	1	WAGON	1578	n/a	n/a	0	n/a	0	0	0	0.57763671875	0.412841796875	1	lower	zerothre.ttf
2149.176	n/a	START	1074588	n/a	LTP239	ltpFR	9	n/a	n/a	n/a	n/a	n/a	n/a	n/a	n/a	n/a	n/a	n/a	n/a	n/a	n/a	n/a	n/a
2150.178	n/a	PROB	1075089	n/a	LTP239	ltpFR	9	n/a	n/a	n/a	n/a	n/a	n/a	n/a	18	3	8	7	n/a	n/a	n/a	n/a	n/a
2152.7	n/a	PROB	1076350	n/a	LTP239	ltpFR	9	n/a	n/a	n/a	n/a	n/a	n/a	n/a	21	9	4	8	n/a	n/a	n/a	n/a	n/a
2154.696	n/a	PROB	1077348	n/a	LTP239	ltpFR	9	n/a	n/a	n/a	n/a	n/a	n/a	n/a	15	8	6	1	n/a	n/a	n/a	n/a	n/a
2156.598	n/a	PROB	1078299	n/a	LTP239	ltpFR	9	n/a	n/a	n/a	n/a	n/a	n/a	n/a	11	2	7	2	n/a	n/a	n/a	n/a	n/a
2159.494	n/a	PROB	1079747	n/a	LTP239	ltpFR	9	n/a	n/a	n/a	n/a	n/a	n/a	n/a	16	4	9	3	n/a	n/a	n/a	n/a	n/a
2162.004	n/a	PROB	1081002	n/a	LTP239	ltpFR	9	n/a	n/a	n/a	n/a	n/a	n/a	n/a	14	7	1	6	n/a	n/a	n/a	n/a	n/a
2164.452	n/a	STOP	1082226	n/a	LTP239	ltpFR	9	n/a	n/a	n/a	n/a	n/a	n/a	n/a	n/a	n/a	n/a	n/a	n/a	n/a	n/a	n/a	n/a
2166.19	n/a	WORD	1083095	wordpools/wasnorm_wordpool_less_exclusions.txt	LTP239	ltpFR	9	6	0	HAY	693	n/a	n/a	n/a	n/a	0	0	0	0.422607421875	0.5869140625	0	upper	amplitud.ttf
2169.234	n/a	SLOW_MSG	1084617	n/a	LTP239	ltpFR	9	6	n/a	n/a	n/a	n/a	n/a	n/a	n/a	0	0	0	n/a	n/a	n/a	n/a	n/a
2170.758	n/a	START	1085379	n/a	LTP239	ltpFR	9	n/a	n/a	n/a	n/a	n/a	n/a	n/a	n/a	n/a	n/a	n/a	n/a	n/a	n/a	n/a	n/a
2171.76	n/a	PROB	1085880	n/a	LTP239	ltpFR	9	n/a	n/a	n/a	n/a	n/a	n/a	n/a	16	9	3	4	n/a	n/a	n/a	n/a	n/a
2174.538	n/a	PROB	1087269	n/a	LTP239	ltpFR	9	n/a	n/a	n/a	n/a	n/a	n/a	n/a	12	5	6	1	n/a	n/a	n/a	n/a	n/a
2176.912	n/a	PROB	1088456	n/a	LTP239	ltpFR	9	n/a	n/a	n/a	n/a	n/a	n/a	n/a	22	8	9	5	n/a	n/a	n/a	n/a	n/a
2179.17	n/a	PROB	1089585	n/a	LTP239	ltpFR	9	n/a	n/a	n/a	n/a	n/a	n/a	n/a	22	5	8	9	n/a	n/a	n/a	n/a	n/a
2182.598	n/a	PROB	1091299	n/a	LTP239	ltpFR	9	n/a	n/a	n/a	n/a	n/a	n/a	n/a	19	6	9	4	n/a	n/a	n/a	n/a	n/a
2185.686	n/a	STOP	1092843	n/a	LTP239	ltpFR	9	n/a	n/a	n/a	n/a	n/a	n/a	n/a	n/a	n/a	n/a	n/a	n/a	n/a	n/a	n/a	n/a
2187.838	n/a	WORD	1093919	wordpools/wasnorm_wordpool_less_exclusions.txt	LTP239	ltpFR	9	6	0	INTESTINE	742	n/a	n/a	0	n/a	0	0	0	0.422607421875	0.5869140625	0	upper	amplitud.ttf
2190.85	n/a	START	1095425	n/a	LTP239	ltpFR	9	n/a	n/a	n/a	n/a	n/a	n/a	n/a	n/a	n/a	n/a	n/a	n/a	n/a	n/a	n/a	n/a
2191.922	n/a	PROB	1095961	n/a	LTP239	ltpFR	9	n/a	n/a	n/a	n/a	n/a	n/a	n/a	17	3	7	7	n/a	n/a	n/a	n/a	n/a
2195.0	n/a	PROB	1097500	n/a	LTP239	ltpFR	9	n/a	n/a	n/a	n/a	n/a	n/a	n/a	23	5	8	9	n/a	n/a	n/a	n/a	n/a
2198.496	n/a	PROB	1099248	n/a	LTP239	ltpFR	9	n/a	n/a	n/a	n/a	n/a	n/a	n/a	10	1	6	3	n/a	n/a	n/a	n/a	n/a
2200.97	n/a	PROB	1100485	n/a	LTP239	ltpFR	9	n/a	n/a	n/a	n/a	n/a	n/a	n/a	17	6	3	8	n/a	n/a	n/a	n/a	n/a
2203.178	n/a	PROB	1101589	n/a	LTP239	ltpFR	9	n/a	n/a	n/a	n/a	n/a	n/a	n/a	12	6	5	1	n/a	n/a	n/a	n/a	n/a
2206.022	n/a	STOP	1103011	n/a	LTP239	ltpFR	9	n/a	n/a	n/a	n/a	n/a	n/a	n/a	n/a	n/a	n/a	n/a	n/a	n/a	n/a	n/a	n/a
2207.798	n/a	WORD	1103899	wordpools/wasnorm_wordpool_less_exclusions.txt	LTP239	ltpFR	9	6	0	ELECTRON	522	n/a	n/a	0	n/a	0	0	0	0.422607421875	0.5869140625	0	upper	amplitud.ttf
2210.81	n/a	START	1105405	n/a	LTP239	ltpFR	9	n/a	n/a	n/a	n/a	n/a	n/a	n/a	n/a	n/a	n/a	n/a	n/a	n/a	n/a	n/a	n/a
2211.664	n/a	PROB	1105832	n/a	LTP239	ltpFR	9	n/a	n/a	n/a	n/a	n/a	n/a	n/a	15	8	4	3	n/a	n/a	n/a	n/a	n/a
2213.818	n/a	PROB	1106909	n/a	LTP239	ltpFR	9	n/a	n/a	n/a	n/a	n/a	n/a	n/a	23	9	5	9	n/a	n/a	n/a	n/a	n/a
2216.968	n/a	PROB	1108484	n/a	LTP239	ltpFR	9	n/a	n/a	n/a	n/a	n/a	n/a	n/a	25	8	8	9	n/a	n/a	n/a	n/a	n/a
2219.624	n/a	PROB	1109812	n/a	LTP239	ltpFR	9	n/a	n/a	n/a	n/a	n/a	n/a	n/a	27	2	7	8	n/a	n/a	n/a	n/a	n/a
2222.3	n/a	PROB	1111150	n/a	LTP239	ltpFR	9	n/a	n/a	n/a	n/a	n/a	n/a	n/a	14	1	6	7	n/a	n/a	n/a	n/a	n/a
2226.81	n/a	STOP	1113405	n/a	LTP239	ltpFR	9	n/a	n/a	n/a	n/a	n/a	n/a	n/a	n/a	n/a	n/a	n/a	n/a	n/a	n/a	n/a	n/a
2227.944	n/a	WORD	1113972	wordpools/wasnorm_wordpool_less_exclusions.txt	LTP239	ltpFR	9	6	0	EYE	545	n/a	n/a	0	n/a	0	0	0	0.422607421875	0.5869140625	0	upper	amplitud.ttf
2230.954	n/a	START	1115477	n/a	LTP239	ltpFR	9	n/a	n/a	n/a	n/a	n/a	n/a	n/a	n/a	n/a	n/a	n/a	n/a	n/a	n/a	n/a	n/a
2231.99	n/a	PROB	1115995	n/a	LTP239	ltpFR	9	n/a	n/a	n/a	n/a	n/a	n/a	n/a	17	4	8	5	n/a	n/a	n/a	n/a	n/a
2235.82	n/a	PROB	1117910	n/a	LTP239	ltpFR	9	n/a	n/a	n/a	n/a	n/a	n/a	n/a	14	2	5	7	n/a	n/a	n/a	n/a	n/a
2237.948	n/a	PROB	1118974	n/a	LTP239	ltpFR	9	n/a	n/a	n/a	n/a	n/a	n/a	n/a	12	5	4	3	n/a	n/a	n/a	n/a	n/a
2240.172	n/a	PROB	1120086	n/a	LTP239	ltpFR	9	n/a	n/a	n/a	n/a	n/a	n/a	n/a	22	5	8	9	n/a	n/a	n/a	n/a	n/a
2242.882	n/a	PROB	1121441	n/a	LTP239	ltpFR	9	n/a	n/a	n/a	n/a	n/a	n/a	n/a	15	4	7	4	n/a	n/a	n/a	n/a	n/a
2246.956	n/a	STOP	1123478	n/a	LTP239	ltpFR	9	n/a	n/a	n/a	n/a	n/a	n/a	n/a	n/a	n/a	n/a	n/a	n/a	n/a	n/a	n/a	n/a
2247.966	n/a	WORD	1123983	wordpools/wasnorm_wordpool_less_exclusions.txt	LTP239	ltpFR	9	6	0	TAXI	1438	n/a	n/a	0	n/a	0	0	0	0.422607421875	0.5869140625	0	upper	amplitud.ttf
2250.98	n/a	START	1125490	n/a	LTP239	ltpFR	9	n/a	n/a	n/a	n/a	n/a	n/a	n/a	n/a	n/a	n/a	n/a	n/a	n/a	n/a	n/a	n/a
2251.866	n/a	PROB	1125933	n/a	LTP239	ltpFR	9	n/a	n/a	n/a	n/a	n/a	n/a	n/a	19	9	3	7	n/a	n/a	n/a	n/a	n/a
2253.854	n/a	PROB	1126927	n/a	LTP239	ltpFR	9	n/a	n/a	n/a	n/a	n/a	n/a	n/a	17	3	5	9	n/a	n/a	n/a	n/a	n/a
2256.314	n/a	PROB	1128157	n/a	LTP239	ltpFR	9	n/a	n/a	n/a	n/a	n/a	n/a	n/a	11	1	1	9	n/a	n/a	n/a	n/a	n/a
2258.254	n/a	PROB	1129127	n/a	LTP239	ltpFR	9	n/a	n/a	n/a	n/a	n/a	n/a	n/a	15	6	7	2	n/a	n/a	n/a	n/a	n/a
2260.446	n/a	PROB	1130223	n/a	LTP239	ltpFR	9	n/a	n/a	n/a	n/a	n/a	n/a	n/a	19	4	8	7	n/a	n/a	n/a	n/a	n/a
2262.654	n/a	PROB	1131327	n/a	LTP239	ltpFR	9	n/a	n/a	n/a	n/a	n/a	n/a	n/a	17	7	7	3	n/a	n/a	n/a	n/a	n/a
2265.482	n/a	STOP	1132741	n/a	LTP239	ltpFR	9	n/a	n/a	n/a	n/a	n/a	n/a	n/a	n/a	n/a	n/a	n/a	n/a	n/a	n/a	n/a	n/a
2268.108	n/a	WORD	1134054	wordpools/wasnorm_wordpool_less_exclusions.txt	LTP239	ltpFR	9	6	0	MOTOR	922	n/a	n/a	0	n/a	0	0	0	0.422607421875	0.5869140625	0	upper	amplitud.ttf
2271.124	n/a	START	1135562	n/a	LTP239	ltpFR	9	n/a	n/a	n/a	n/a	n/a	n/a	n/a	n/a	n/a	n/a	n/a	n/a	n/a	n/a	n/a	n/a
2272.008	n/a	PROB	1136004	n/a	LTP239	ltpFR	9	n/a	n/a	n/a	n/a	n/a	n/a	n/a	17	5	5	7	n/a	n/a	n/a	n/a	n/a
2274.634	n/a	PROB	1137317	n/a	LTP239	ltpFR	9	n/a	n/a	n/a	n/a	n/a	n/a	n/a	20	4	9	7	n/a	n/a	n/a	n/a	n/a
2276.992	n/a	PROB	1138496	n/a	LTP239	ltpFR	9	n/a	n/a	n/a	n/a	n/a	n/a	n/a	20	9	8	3	n/a	n/a	n/a	n/a	n/a
2281.544	n/a	PROB	1140772	n/a	LTP239	ltpFR	9	n/a	n/a	n/a	n/a	n/a	n/a	n/a	14	3	7	4	n/a	n/a	n/a	n/a	n/a
2287.114	n/a	STOP	1143557	n/a	LTP239	ltpFR	9	n/a	n/a	n/a	n/a	n/a	n/a	n/a	n/a	n/a	n/a	n/a	n/a	n/a	n/a	n/a	n/a
2288.138	n/a	WORD	1144069	wordpools/wasnorm_wordpool_less_exclusions.txt	LTP239	ltpFR	9	6	1	LETTUCE	814	n/a	n/a	0	n/a	0	0	0	0.57763671875	0.412841796875	1	lower	zerothre.ttf
2291.152	n/a	START	1145576	n/a	LTP239	ltpFR	9	n/a	n/a	n/a	n/a	n/a	n/a	n/a	n/a	n/a	n/a	n/a	n/a	n/a	n/a	n/a	n/a
2292.238	n/a	PROB	1146119	n/a	LTP239	ltpFR	9	n/a	n/a	n/a	n/a	n/a	n/a	n/a	17	7	6	4	n/a	n/a	n/a	n/a	n/a
2294.23	n/a	PROB	1147115	n/a	LTP239	ltpFR	9	n/a	n/a	n/a	n/a	n/a	n/a	n/a	22	8	9	5	n/a	n/a	n/a	n/a	n/a
2296.986	n/a	PROB	1148493	n/a	LTP239	ltpFR	9	n/a	n/a	n/a	n/a	n/a	n/a	n/a	1	9	6	1	n/a	n/a	n/a	n/a	n/a
2299.198	n/a	PROB	1149599	n/a	LTP239	ltpFR	9	n/a	n/a	n/a	n/a	n/a	n/a	n/a	18	3	8	7	n/a	n/a	n/a	n/a	n/a
2302.022	n/a	PROB	1151011	n/a	LTP239	ltpFR	9	n/a	n/a	n/a	n/a	n/a	n/a	n/a	17	3	9	5	n/a	n/a	n/a	n/a	n/a
2304.682	n/a	PROB	1152341	n/a	LTP239	ltpFR	9	n/a	n/a	n/a	n/a	n/a	n/a	n/a	21	6	6	9	n/a	n/a	n/a	n/a	n/a
2306.444	n/a	STOP	1153222	n/a	LTP239	ltpFR	9	n/a	n/a	n/a	n/a	n/a	n/a	n/a	n/a	n/a	n/a	n/a	n/a	n/a	n/a	n/a	n/a
2308.244	n/a	WORD	1154122	wordpools/wasnorm_wordpool_less_exclusions.txt	LTP239	ltpFR	9	6	1	NEUTRON	947	n/a	n/a	0	n/a	0	0	0	0.57763671875	0.412841796875	1	lower	zerothre.ttf
2311.262	n/a	START	1155631	n/a	LTP239	ltpFR	9	n/a	n/a	n/a	n/a	n/a	n/a	n/a	n/a	n/a	n/a	n/a	n/a	n/a	n/a	n/a	n/a
2312.132	n/a	PROB	1156066	n/a	LTP239	ltpFR	9	n/a	n/a	n/a	n/a	n/a	n/a	n/a	17	7	7	3	n/a	n/a	n/a	n/a	n/a
2315.056	n/a	PROB	1157528	n/a	LTP239	ltpFR	9	n/a	n/a	n/a	n/a	n/a	n/a	n/a	23	7	8	7	n/a	n/a	n/a	n/a	n/a
2318.304	n/a	PROB	1159152	n/a	LTP239	ltpFR	9	n/a	n/a	n/a	n/a	n/a	n/a	n/a	21	8	6	7	n/a	n/a	n/a	n/a	n/a
2321.88	n/a	PROB	1160940	n/a	LTP239	ltpFR	9	n/a	n/a	n/a	n/a	n/a	n/a	n/a	26	8	9	9	n/a	n/a	n/a	n/a	n/a
2327.262	n/a	STOP	1163631	n/a	LTP239	ltpFR	9	n/a	n/a	n/a	n/a	n/a	n/a	n/a	n/a	n/a	n/a	n/a	n/a	n/a	n/a	n/a	n/a
2329.164	n/a	REC_START	1164582	n/a	LTP239	ltpFR	9	6	n/a	n/a	n/a	n/a	n/a	n/a	n/a	0	0	0	n/a	n/a	n/a	n/a	n/a
2333.314	n/a	REC_WORD	1166657	wordpools/wasnorm_wordpool_less_exclusions.txt	LTP239	ltpFR	9	6	0	ELECTRON	522	n/a	n/a	0	n/a	0	0	0	n/a	n/a	n/a	n/a	n/a
2342.184	n/a	REC_WORD	1171092	wordpools/wasnorm_wordpool_less_exclusions.txt	LTP239	ltpFR	9	6	n/a	DOCUMENT	479	n/a	n/a	n/a	n/a	0	0	0	n/a	n/a	n/a	n/a	n/a
2458.088	n/a	WORD	1229044	wordpools/wasnorm_wordpool_less_exclusions.txt	LTP239	ltpFR	9	7	1	RAKE	1164	n/a	n/a	0	n/a	0	0	0	0.57763671875	0.412841796875	1	lower	zerothre.ttf
2462.0	n/a	WORD	1231000	wordpools/wasnorm_wordpool_less_exclusions.txt	LTP239	ltpFR	9	7	1	POLICE	1098	n/a	n/a	1	n/a	0	0	0	0.57763671875	0.412841796875	1	lower	zerothre.ttf
2466.148	n/a	WORD	1233074	wordpools/wasnorm_wordpool_less_exclusions.txt	LTP239	ltpFR	9	7	1	OFFICER	973	n/a	n/a	1	n/a	0	0	0	0.57763671875	0.412841796875	1	lower	zerothre.ttf
2470.332	n/a	WORD	1235166	wordpools/wasnorm_wordpool_less_exclusions.txt	LTP239	ltpFR	9	7	1	EMERALD	528	n/a	n/a	0	n/a	0	0	0	0.57763671875	0.412841796875	1	lower	zerothre.ttf
2474.212	n/a	WORD	1237106	wordpools/wasnorm_wordpool_less_exclusions.txt	LTP239	ltpFR	9	7	1	WEED	1599	n/a	n/a	0	n/a	0	0	0	0.57763671875	0.412841796875	1	lower	zerothre.ttf
2478.144	n/a	WORD	1239072	wordpools/wasnorm_wordpool_less_exclusions.txt	LTP239	ltpFR	9	7	1	CANNON	232	n/a	n/a	0	n/a	0	0	0	0.57763671875	0.412841796875	1	lower	zerothre.ttf
2482.248	n/a	WORD	1241124	wordpools/wasnorm_wordpool_less_exclusions.txt	LTP239	ltpFR	9	7	1	ARMY	39	n/a	n/a	1	n/a	0	0	0	0.57763671875	0.412841796875	1	lower	zerothre.ttf
2486.364	n/a	WORD	1243182	wordpools/wasnorm_wordpool_less_exclusions.txt	LTP239	ltpFR	9	7	1	BUNNY	198	n/a	n/a	1	n/a	0	0	0	0.57763671875	0.412841796875	1	lower	zerothre.ttf
2490.428	n/a	WORD	1245214	wordpools/wasnorm_wordpool_less_exclusions.txt	LTP239	ltpFR	9	7	1	GRAVEL	659	n/a	n/a	1	n/a	0	0	0	0.57763671875	0.412841796875	1	lower	zerothre.ttf
2494.344	n/a	WORD	1247172	wordpools/wasnorm_wordpool_less_exclusions.txt	LTP239	ltpFR	9	7	1	ANT	25	n/a	n/a	1	n/a	0	0	0	0.57763671875	0.412841796875	1	lower	zerothre.ttf
2498.292	n/a	WORD	1249146	wordpools/wasnorm_wordpool_less_exclusions.txt	LTP239	ltpFR	9	7	1	YOLK	1633	n/a	n/a	0	n/a	0	0	0	0.57763671875	0.412841796875	1	lower	zerothre.ttf
2502.208	n/a	WORD	1251104	wordpools/wasnorm_wordpool_less_exclusions.txt	LTP239	ltpFR	9	7	1	LIEUTENANT	818	n/a	n/a	1	n/a	0	0	0	0.57763671875	0.412841796875	1	lower	zerothre.ttf
2506.236	n/a	WORD	1253118	wordpools/wasnorm_wordpool_less_exclusions.txt	LTP239	ltpFR	9	7	1	VEGETABLE	1552	n/a	n/a	0	n/a	0	0	0	0.57763671875	0.412841796875	1	lower	zerothre.ttf
2510.338	n/a	WORD	1255169	wordpools/wasnorm_wordpool_less_exclusions.txt	LTP239	ltpFR	9	7	1	DILL	465	n/a	n/a	0	n/a	0	0	0	0.57763671875	0.412841796875	1	lower	zerothre.ttf
2514.316	n/a	WORD	1257158	wordpools/wasnorm_wordpool_less_exclusions.txt	LTP239	ltpFR	9	7	1	BALL	73	n/a	n/a	1	n/a	0	0	0	0.57763671875	0.412841796875	1	lower	zerothre.ttf
2518.52	n/a	WORD	1259260	wordpools/wasnorm_wordpool_less_exclusions.txt	LTP239	ltpFR	9	7	1	SURVEY	1414	n/a	n/a	0	n/a	0	0	0	0.57763671875	0.412841796875	1	lower	zerothre.ttf
2524.342	n/a	REC_START	1262171	n/a	LTP239	ltpFR	9	7	n/a	n/a	n/a	n/a	n/a	n/a	n/a	0	0	0	n/a	n/a	n/a	n/a	n/a
2527.136	n/a	REC_WORD	1263568	wordpools/wasnorm_wordpool_less_exclusions.txt	LTP239	ltpFR	9	7	1	DILL	465	n/a	n/a	0	n/a	0	0	0	n/a	n/a	n/a	n/a	n/a
2528.512	n/a	REC_WORD	1264256	wordpools/wasnorm_wordpool_less_exclusions.txt	LTP239	ltpFR	9	7	1	BALL	73	n/a	n/a	1	n/a	0	0	0	n/a	n/a	n/a	n/a	n/a
2535.776	n/a	REC_WORD	1267888	wordpools/wasnorm_wordpool_less_exclusions.txt	LTP239	ltpFR	9	7	1	POLICE	1098	n/a	n/a	1	n/a	0	0	0	n/a	n/a	n/a	n/a	n/a
2536.5	n/a	REC_WORD	1268250	wordpools/wasnorm_wordpool_less_exclusions.txt	LTP239	ltpFR	9	7	1	OFFICER	973	n/a	n/a	1	n/a	0	0	0	n/a	n/a	n/a	n/a	n/a
2541.638	n/a	REC_WORD	1270819	wordpools/wasnorm_wordpool_less_exclusions.txt	LTP239	ltpFR	9	7	n/a	WRENCH	1625	n/a	n/a	n/a	n/a	0	0	0	n/a	n/a	n/a	n/a	n/a
2563.046	n/a	REC_WORD	1281523	wordpools/wasnorm_wordpool_less_exclusions.txt	LTP239	ltpFR	9	7	1	RAKE	1164	n/a	n/a	0	n/a	0	0	0	n/a	n/a	n/a	n/a	n/a
2666.902	n/a	WORD	1333451	wordpools/wasnorm_wordpool_less_exclusions.txt	LTP239	ltpFR	9	8	0	EUROPE	541	n/a	n/a	1	n/a	0	0	0	0.422607421875	0.5869140625	0	upper	amplitud.ttf
2670.902	n/a	WORD	1335451	wordpools/wasnorm_wordpool_less_exclusions.txt	LTP239	ltpFR	9	8	0	LILY	821	n/a	n/a	0	n/a	0	0	0	0.422607421875	0.5869140625	0	upper	amplitud.ttf
2674.846	n/a	WORD	1337423	wordpools/wasnorm_wordpool_less_exclusions.txt	LTP239	ltpFR	9	8	1	FLOWER	584	n/a	n/a	1	n/a	0	0	0	0.57763671875	0.412841796875	1	lower	zerothre.ttf
2678.866	n/a	WORD	1339433	wordpools/wasnorm_wordpool_less_exclusions.txt	LTP239	ltpFR	9	8	1	OATMEAL	967	n/a	n/a	0	n/a	0	0	0	0.57763671875	0.412841796875	1	lower	zerothre.ttf
2683.082	n/a	WORD	1341541	wordpools/wasnorm_wordpool_less_exclusions.txt	LTP239	ltpFR	9	8	0	PENGUIN	1044	n/a	n/a	0	n/a	0	0	0	0.422607421875	0.5869140625	0	upper	amplitud.ttf
2687.012	n/a	WORD	1343506	wordpools/wasnorm_wordpool_less_exclusions.txt	LTP239	ltpFR	9	8	0	REFEREE	1178	n/a	n/a	0	n/a	0	0	0	0.422607421875	0.5869140625	0	upper	amplitud.ttf
2691.18	n/a	WORD	1345590	wordpools/wasnorm_wordpool_less_exclusions.txt	LTP239	ltpFR	9	8	0	RAM	1165	n/a	n/a	0	n/a	0	0	0	0.422607421875	0.5869140625	0	upper	amplitud.ttf
2695.024	n/a	WORD	1347512	wordpools/wasnorm_wordpool_less_exclusions.txt	LTP239	ltpFR	9	8	1	BAKER	71	n/a	n/a	1	n/a	0	0	0	0.57763671875	0.412841796875	1	lower	zerothre.ttf
2698.908	n/a	WORD	1349454	wordpools/wasnorm_wordpool_less_exclusions.txt	LTP239	ltpFR	9	8	1	PARSLEY	1016	n/a	n/a	0	n/a	0	0	0	0.57763671875	0.412841796875	1	lower	zerothre.ttf
2702.87	n/a	WORD	1351435	wordpools/wasnorm_wordpool_less_exclusions.txt	LTP239	ltpFR	9	8	1	BATHTUB	100	n/a	n/a	0	n/a	0	0	0	0.57763671875	0.412841796875	1	lower	zerothre.ttf
2707.04	n/a	WORD	1353520	wordpools/wasnorm_wordpool_less_exclusions.txt	LTP239	ltpFR	9	8	1	BACK	65	n/a	n/a	0	n/a	0	0	0	0.57763671875	0.412841796875	1	lower	zerothre.ttf
2711.072	n/a	WORD	1355536	wordpools/wasnorm_wordpool_less_exclusions.txt	LTP239	ltpFR	9	8	1	TUXEDO	1525	n/a	n/a	0	n/a	0	0	0	0.57763671875	0.412841796875	1	lower	zerothre.ttf
2715.138	n/a	WORD	1357569	wordpools/wasnorm_wordpool_less_exclusions.txt	LTP239	ltpFR	9	8	1	ISLAND	745	n/a	n/a	0	n/a	0	0	0	0.57763671875	0.412841796875	1	lower	zerothre.ttf
2719.286	n/a	WORD	1359643	wordpools/wasnorm_wordpool_less_exclusions.txt	LTP239	ltpFR	9	8	0	SNORKEL	1336	n/a	n/a	0	n/a	0	0	0	0.422607421875	0.5869140625	0	upper	amplitud.ttf
2723.318	n/a	WORD	1361659	wordpools/wasnorm_wordpool_less_exclusions.txt	LTP239	ltpFR	9	8	0	HERB	704	n/a	n/a	0	n/a	0	0	0	0.422607421875	0.5869140625	0	upper	amplitud.ttf
2727.536	n/a	WORD	1363768	wordpools/wasnorm_wordpool_less_exclusions.txt	LTP239	ltpFR	9	8	0	DIVER	476	n/a	n/a	0	n/a	0	0	0	0.422607421875	0.5869140625	0	upper	amplitud.ttf
2730.546	n/a	START	1365273	n/a	LTP239	ltpFR	9	n/a	n/a	n/a	n/a	n/a	n/a	n/a	n/a	n/a	n/a	n/a	n/a	n/a	n/a	n/a	n/a
2731.6	n/a	PROB	1365800	n/a	LTP239	ltpFR	9	n/a	n/a	n/a	n/a	n/a	n/a	n/a	18	5	7	6	n/a	n/a	n/a	n/a	n/a
2735.846	n/a	PROB	1367923	n/a	LTP239	ltpFR	9	n/a	n/a	n/a	n/a	n/a	n/a	n/a	17	6	3	8	n/a	n/a	n/a	n/a	n/a
2737.65	n/a	STOP	1368825	n/a	LTP239	ltpFR	9	n/a	n/a	n/a	n/a	n/a	n/a	n/a	n/a	n/a	n/a	n/a	n/a	n/a	n/a	n/a	n/a
2740.502	n/a	REC_START	1370251	n/a	LTP239	ltpFR	9	8	n/a	n/a	n/a	n/a	n/a	n/a	n/a	0	0	0	n/a	n/a	n/a	n/a	n/a
2742.83	n/a	REC_WORD	1371415	wordpools/wasnorm_wordpool_less_exclusions.txt	LTP239	ltpFR	9	8	0	SNORKEL	1336	n/a	n/a	0	n/a	0	0	0	n/a	n/a	n/a	n/a	n/a
2797.492	n/a	REC_WORD	1398746	wordpools/wasnorm_wordpool_less_exclusions.txt	LTP239	ltpFR	9	8	0	RAM	1165	n/a	n/a	0	n/a	0	0	0	n/a	n/a	n/a	n/a	n/a
2799.754	n/a	REC_WORD	1399877	wordpools/wasnorm_wordpool_less_exclusions.txt	LTP239	ltpFR	9	8	1	DUCK	504	n/a	n/a	0	n/a	0	0	0	n/a	n/a	n/a	n/a	n/a
2987.98	n/a	START	1493990	n/a	LTP239	ltpFR	9	n/a	n/a	n/a	n/a	n/a	n/a	n/a	n/a	n/a	n/a	n/a	n/a	n/a	n/a	n/a	n/a
2989.498	n/a	PROB	1494749	n/a	LTP239	ltpFR	9	n/a	n/a	n/a	n/a	n/a	n/a	n/a	18	5	7	6	n/a	n/a	n/a	n/a	n/a
2991.478	n/a	PROB	1495739	n/a	LTP239	ltpFR	9	n/a	n/a	n/a	n/a	n/a	n/a	n/a	16	8	1	7	n/a	n/a	n/a	n/a	n/a
2994.02	n/a	PROB	1497010	n/a	LTP239	ltpFR	9	n/a	n/a	n/a	n/a	n/a	n/a	n/a	13	3	7	3	n/a	n/a	n/a	n/a	n/a
2995.906	n/a	PROB	1497953	n/a	LTP239	ltpFR	9	n/a	n/a	n/a	n/a	n/a	n/a	n/a	13	4	7	1	n/a	n/a	n/a	n/a	n/a
2998.22	n/a	PROB	1499110	n/a	LTP239	ltpFR	9	n/a	n/a	n/a	n/a	n/a	n/a	n/a	16	5	7	4	n/a	n/a	n/a	n/a	n/a
3000.41	n/a	PROB	1500205	n/a	LTP239	ltpFR	9	n/a	n/a	n/a	n/a	n/a	n/a	n/a	17	7	1	9	n/a	n/a	n/a	n/a	n/a
3002.456	n/a	STOP	1501228	n/a	LTP239	ltpFR	9	n/a	n/a	n/a	n/a	n/a	n/a	n/a	n/a	n/a	n/a	n/a	n/a	n/a	n/a	n/a	n/a
3005.078	n/a	WORD	1502539	wordpools/wasnorm_wordpool_less_exclusions.txt	LTP239	ltpFR	9	9	1	DOLLAR	482	n/a	n/a	0	n/a	0	0	0	0.57763671875	0.412841796875	1	lower	zerothre.ttf
3008.09	n/a	START	1504045	n/a	LTP239	ltpFR	9	n/a	n/a	n/a	n/a	n/a	n/a	n/a	n/a	n/a	n/a	n/a	n/a	n/a	n/a	n/a	n/a
3009.01	n/a	PROB	1504505	n/a	LTP239	ltpFR	9	n/a	n/a	n/a	n/a	n/a	n/a	n/a	25	9	9	7	n/a	n/a	n/a	n/a	n/a
3011.768	n/a	PROB	1505884	n/a	LTP239	ltpFR	9	n/a	n/a	n/a	n/a	n/a	n/a	n/a	15	5	3	7	n/a	n/a	n/a	n/a	n/a
3015.582	n/a	PROB	1507791	n/a	LTP239	ltpFR	9	n/a	n/a	n/a	n/a	n/a	n/a	n/a	17	6	5	6	n/a	n/a	n/a	n/a	n/a
3017.356	n/a	PROB	1508678	n/a	LTP239	ltpFR	9	n/a	n/a	n/a	n/a	n/a	n/a	n/a	17	6	8	3	n/a	n/a	n/a	n/a	n/a
3019.598	n/a	PROB	1509799	n/a	LTP239	ltpFR	9	n/a	n/a	n/a	n/a	n/a	n/a	n/a	11	2	2	7	n/a	n/a	n/a	n/a	n/a
3021.508	n/a	PROB	1510754	n/a	LTP239	ltpFR	9	n/a	n/a	n/a	n/a	n/a	n/a	n/a	16	4	6	6	n/a	n/a	n/a	n/a	n/a
3023.426	n/a	STOP	1511713	n/a	LTP239	ltpFR	9	n/a	n/a	n/a	n/a	n/a	n/a	n/a	n/a	n/a	n/a	n/a	n/a	n/a	n/a	n/a	n/a
3025.238	n/a	WORD	1512619	wordpools/wasnorm_wordpool_less_exclusions.txt	LTP239	ltpFR	9	9	1	NICKEL	950	n/a	n/a	0	n/a	0	0	0	0.57763671875	0.412841796875	1	lower	zerothre.ttf
3028.25	n/a	START	1514125	n/a	LTP239	ltpFR	9	n/a	n/a	n/a	n/a	n/a	n/a	n/a	n/a	n/a	n/a	n/a	n/a	n/a	n/a	n/a	n/a
3029.172	n/a	PROB	1514586	n/a	LTP239	ltpFR	9	n/a	n/a	n/a	n/a	n/a	n/a	n/a	17	6	6	5	n/a	n/a	n/a	n/a	n/a
3030.806	n/a	PROB	1515403	n/a	LTP239	ltpFR	9	n/a	n/a	n/a	n/a	n/a	n/a	n/a	1	6	5	4	n/a	n/a	n/a	n/a	n/a
3032.798	n/a	PROB	1516399	n/a	LTP239	ltpFR	9	n/a	n/a	n/a	n/a	n/a	n/a	n/a	21	9	9	3	n/a	n/a	n/a	n/a	n/a
3035.022	n/a	PROB	1517511	n/a	LTP239	ltpFR	9	n/a	n/a	n/a	n/a	n/a	n/a	n/a	18	6	3	9	n/a	n/a	n/a	n/a	n/a
3037.834	n/a	PROB	1518917	n/a	LTP239	ltpFR	9	n/a	n/a	n/a	n/a	n/a	n/a	n/a	26	9	8	9	n/a	n/a	n/a	n/a	n/a
3041.38	n/a	PROB	1520690	n/a	LTP239	ltpFR	9	n/a	n/a	n/a	n/a	n/a	n/a	n/a	18	3	6	9	n/a	n/a	n/a	n/a	n/a
3043.89	n/a	STOP	1521945	n/a	LTP239	ltpFR	9	n/a	n/a	n/a	n/a	n/a	n/a	n/a	n/a	n/a	n/a	n/a	n/a	n/a	n/a	n/a	n/a
3045.164	n/a	WORD	1522582	wordpools/wasnorm_wordpool_less_exclusions.txt	LTP239	ltpFR	9	9	1	PERCH	1048	n/a	n/a	0	n/a	0	0	0	0.57763671875	0.412841796875	1	lower	zerothre.ttf
3048.178	n/a	START	1524089	n/a	LTP239	ltpFR	9	n/a	n/a	n/a	n/a	n/a	n/a	n/a	n/a	n/a	n/a	n/a	n/a	n/a	n/a	n/a	n/a
3049.294	n/a	PROB	1524647	n/a	LTP239	ltpFR	9	n/a	n/a	n/a	n/a	n/a	n/a	n/a	12	3	4	5	n/a	n/a	n/a	n/a	n/a
3051.536	n/a	PROB	1525768	n/a	LTP239	ltpFR	9	n/a	n/a	n/a	n/a	n/a	n/a	n/a	11	3	3	5	n/a	n/a	n/a	n/a	n/a
3053.544	n/a	PROB	1526772	n/a	LTP239	ltpFR	9	n/a	n/a	n/a	n/a	n/a	n/a	n/a	11	7	2	2	n/a	n/a	n/a	n/a	n/a
3055.032	n/a	PROB	1527516	n/a	LTP239	ltpFR	9	n/a	n/a	n/a	n/a	n/a	n/a	n/a	12	9	3	1	n/a	n/a	n/a	n/a	n/a
3057.224	n/a	PROB	1528612	n/a	LTP239	ltpFR	9	n/a	n/a	n/a	n/a	n/a	n/a	n/a	11	1	4	6	n/a	n/a	n/a	n/a	n/a
3058.934	n/a	PROB	1529467	n/a	LTP239	ltpFR	9	n/a	n/a	n/a	n/a	n/a	n/a	n/a	10	1	3	6	n/a	n/a	n/a	n/a	n/a
3061.272	n/a	PROB	1530636	n/a	LTP239	ltpFR	9	n/a	n/a	n/a	n/a	n/a	n/a	n/a	23	8	6	9	n/a	n/a	n/a	n/a	n/a
3063.988	n/a	STOP	1531994	n/a	LTP239	ltpFR	9	n/a	n/a	n/a	n/a	n/a	n/a	n/a	n/a	n/a	n/a	n/a	n/a	n/a	n/a	n/a	n/a
3065.274	n/a	WORD	1532637	wordpools/wasnorm_wordpool_less_exclusions.txt	LTP239	ltpFR	9	9	0	MICROWAVE	892	n/a	n/a	0	n/a	0	0	0	0.422607421875	0.5869140625	0	upper	amplitud.ttf
3068.288	n/a	START	1534144	n/a	LTP239	ltpFR	9	n/a	n/a	n/a	n/a	n/a	n/a	n/a	n/a	n/a	n/a	n/a	n/a	n/a	n/a	n/a	n/a
3069.342	n/a	PROB	1534671	n/a	LTP239	ltpFR	9	n/a	n/a	n/a	n/a	n/a	n/a	n/a	8	3	2	3	n/a	n/a	n/a	n/a	n/a
3071.45	n/a	PROB	1535725	n/a	LTP239	ltpFR	9	n/a	n/a	n/a	n/a	n/a	n/a	n/a	19	8	3	8	n/a	n/a	n/a	n/a	n/a
3074.106	n/a	PROB	1537053	n/a	LTP239	ltpFR	9	n/a	n/a	n/a	n/a	n/a	n/a	n/a	14	3	8	3	n/a	n/a	n/a	n/a	n/a
3078.672	n/a	PROB	1539336	n/a	LTP239	ltpFR	9	n/a	n/a	n/a	n/a	n/a	n/a	n/a	10	4	1	5	n/a	n/a	n/a	n/a	n/a
3081.47	n/a	PROB	1540735	n/a	LTP239	ltpFR	9	n/a	n/a	n/a	n/a	n/a	n/a	n/a	11	3	2	6	n/a	n/a	n/a	n/a	n/a
3083.172	n/a	STOP	1541586	n/a	LTP239	ltpFR	9	n/a	n/a	n/a	n/a	n/a	n/a	n/a	n/a	n/a	n/a	n/a	n/a	n/a	n/a	n/a	n/a
3085.47	n/a	WORD	1542735	wordpools/wasnorm_wordpool_less_exclusions.txt	LTP239	ltpFR	9	9	0	COURT	391	n/a	n/a	n/a	n/a	0	0	0	0.422607421875	0.5869140625	0	upper	amplitud.ttf
3088.514	n/a	SLOW_MSG	1544257	n/a	LTP239	ltpFR	9	9	n/a	n/a	n/a	n/a	n/a	n/a	n/a	0	0	0	n/a	n/a	n/a	n/a	n/a
3090.038	n/a	START	1545019	n/a	LTP239	ltpFR	9	n/a	n/a	n/a	n/a	n/a	n/a	n/a	n/a	n/a	n/a	n/a	n/a	n/a	n/a	n/a	n/a
3090.924	n/a	PROB	1545462	n/a	LTP239	ltpFR	9	n/a	n/a	n/a	n/a	n/a	n/a	n/a	25	8	8	9	n/a	n/a	n/a	n/a	n/a
3093.802	n/a	PROB	1546901	n/a	LTP239	ltpFR	9	n/a	n/a	n/a	n/a	n/a	n/a	n/a	10	2	1	7	n/a	n/a	n/a	n/a	n/a
3095.974	n/a	PROB	1547987	n/a	LTP239	ltpFR	9	n/a	n/a	n/a	n/a	n/a	n/a	n/a	13	4	4	5	n/a	n/a	n/a	n/a	n/a
3098.298	n/a	PROB	1549149	n/a	LTP239	ltpFR	9	n/a	n/a	n/a	n/a	n/a	n/a	n/a	13	2	6	5	n/a	n/a	n/a	n/a	n/a
3101.312	n/a	PROB	1550656	n/a	LTP239	ltpFR	9	n/a	n/a	n/a	n/a	n/a	n/a	n/a	15	5	6	4	n/a	n/a	n/a	n/a	n/a
3103.284	n/a	PROB	1551642	n/a	LTP239	ltpFR	9	n/a	n/a	n/a	n/a	n/a	n/a	n/a	19	2	8	9	n/a	n/a	n/a	n/a	n/a
3105.166	n/a	STOP	1552583	n/a	LTP239	ltpFR	9	n/a	n/a	n/a	n/a	n/a	n/a	n/a	n/a	n/a	n/a	n/a	n/a	n/a	n/a	n/a	n/a
3107.082	n/a	WORD	1553541	wordpools/wasnorm_wordpool_less_exclusions.txt	LTP239	ltpFR	9	9	0	OATS	968	n/a	n/a	0	n/a	0	0	0	0.422607421875	0.5869140625	0	upper	amplitud.ttf
3110.098	n/a	START	1555049	n/a	LTP239	ltpFR	9	n/a	n/a	n/a	n/a	n/a	n/a	n/a	n/a	n/a	n/a	n/a	n/a	n/a	n/a	n/a	n/a
3111.034	n/a	PROB	1555517	n/a	LTP239	ltpFR	9	n/a	n/a	n/a	n/a	n/a	n/a	n/a	17	5	5	7	n/a	n/a	n/a	n/a	n/a
3112.954	n/a	PROB	1556477	n/a	LTP239	ltpFR	9	n/a	n/a	n/a	n/a	n/a	n/a	n/a	14	8	4	2	n/a	n/a	n/a	n/a	n/a
3115.714	n/a	PROB	1557857	n/a	LTP239	ltpFR	9	n/a	n/a	n/a	n/a	n/a	n/a	n/a	7	3	1	3	n/a	n/a	n/a	n/a	n/a
3118.876	n/a	PROB	1559438	n/a	LTP239	ltpFR	9	n/a	n/a	n/a	n/a	n/a	n/a	n/a	13	3	6	4	n/a	n/a	n/a	n/a	n/a
3120.632	n/a	PROB	1560316	n/a	LTP239	ltpFR	9	n/a	n/a	n/a	n/a	n/a	n/a	n/a	14	2	4	8	n/a	n/a	n/a	n/a	n/a
3123.226	n/a	PROB	1561613	n/a	LTP239	ltpFR	9	n/a	n/a	n/a	n/a	n/a	n/a	n/a	22	6	8	8	n/a	n/a	n/a	n/a	n/a
3125.296	n/a	STOP	1562648	n/a	LTP239	ltpFR	9	n/a	n/a	n/a	n/a	n/a	n/a	n/a	n/a	n/a	n/a	n/a	n/a	n/a	n/a	n/a	n/a
3126.962	n/a	WORD	1563481	wordpools/wasnorm_wordpool_less_exclusions.txt	LTP239	ltpFR	9	9	0	CARRIAGE	248	n/a	n/a	n/a	n/a	0	0	0	0.422607421875	0.5869140625	0	upper	amplitud.ttf
3130.008	n/a	SLOW_MSG	1565004	n/a	LTP239	ltpFR	9	9	n/a	n/a	n/a	n/a	n/a	n/a	n/a	0	0	0	n/a	n/a	n/a	n/a	n/a
3131.542	n/a	START	1565771	n/a	LTP239	ltpFR	9	n/a	n/a	n/a	n/a	n/a	n/a	n/a	n/a	n/a	n/a	n/a	n/a	n/a	n/a	n/a	n/a
3132.432	n/a	PROB	1566216	n/a	LTP239	ltpFR	9	n/a	n/a	n/a	n/a	n/a	n/a	n/a	17	4	7	6	n/a	n/a	n/a	n/a	n/a
3135.272	n/a	PROB	1567636	n/a	LTP239	ltpFR	9	n/a	n/a	n/a	n/a	n/a	n/a	n/a	11	5	4	2	n/a	n/a	n/a	n/a	n/a
3137.548	n/a	PROB	1568774	n/a	LTP239	ltpFR	9	n/a	n/a	n/a	n/a	n/a	n/a	n/a	19	9	9	1	n/a	n/a	n/a	n/a	n/a
3139.354	n/a	PROB	1569677	n/a	LTP239	ltpFR	9	n/a	n/a	n/a	n/a	n/a	n/a	n/a	12	5	4	3	n/a	n/a	n/a	n/a	n/a
3141.714	n/a	PROB	1570857	n/a	LTP239	ltpFR	9	n/a	n/a	n/a	n/a	n/a	n/a	n/a	22	8	9	6	n/a	n/a	n/a	n/a	n/a
3144.34	n/a	PROB	1572170	n/a	LTP239	ltpFR	9	n/a	n/a	n/a	n/a	n/a	n/a	n/a	14	2	4	8	n/a	n/a	n/a	n/a	n/a
3146.8	n/a	STOP	1573400	n/a	LTP239	ltpFR	9	n/a	n/a	n/a	n/a	n/a	n/a	n/a	n/a	n/a	n/a	n/a	n/a	n/a	n/a	n/a	n/a
3148.594	n/a	WORD	1574297	wordpools/wasnorm_wordpool_less_exclusions.txt	LTP239	ltpFR	9	9	1	UNIFORM	1539	n/a	n/a	0	n/a	0	0	0	0.57763671875	0.412841796875	1	lower	zerothre.ttf
3151.606	n/a	START	1575803	n/a	LTP239	ltpFR	9	n/a	n/a	n/a	n/a	n/a	n/a	n/a	n/a	n/a	n/a	n/a	n/a	n/a	n/a	n/a	n/a
3152.692	n/a	PROB	1576346	n/a	LTP239	ltpFR	9	n/a	n/a	n/a	n/a	n/a	n/a	n/a	18	3	6	9	n/a	n/a	n/a	n/a	n/a
3155.804	n/a	PROB	1577902	n/a	LTP239	ltpFR	9	n/a	n/a	n/a	n/a	n/a	n/a	n/a	19	7	6	6	n/a	n/a	n/a	n/a	n/a
3158.014	n/a	PROB	1579007	n/a	LTP239	ltpFR	9	n/a	n/a	n/a	n/a	n/a	n/a	n/a	13	7	4	2	n/a	n/a	n/a	n/a	n/a
3160.036	n/a	PROB	1580018	n/a	LTP239	ltpFR	9	n/a	n/a	n/a	n/a	n/a	n/a	n/a	11	1	5	5	n/a	n/a	n/a	n/a	n/a
3161.456	n/a	PROB	1580728	n/a	LTP239	ltpFR	9	n/a	n/a	n/a	n/a	n/a	n/a	n/a	18	6	8	4	n/a	n/a	n/a	n/a	n/a
3163.15	n/a	PROB	1581575	n/a	LTP239	ltpFR	9	n/a	n/a	n/a	n/a	n/a	n/a	n/a	16	9	4	3	n/a	n/a	n/a	n/a	n/a
3165.086	n/a	PROB	1582543	n/a	LTP239	ltpFR	9	n/a	n/a	n/a	n/a	n/a	n/a	n/a	14	8	4	2	n/a	n/a	n/a	n/a	n/a
3167.026	n/a	STOP	1583513	n/a	LTP239	ltpFR	9	n/a	n/a	n/a	n/a	n/a	n/a	n/a	n/a	n/a	n/a	n/a	n/a	n/a	n/a	n/a	n/a
3168.738	n/a	WORD	1584369	wordpools/wasnorm_wordpool_less_exclusions.txt	LTP239	ltpFR	9	9	1	JOKER	759	n/a	n/a	1	n/a	0	0	0	0.57763671875	0.412841796875	1	lower	zerothre.ttf
3171.75	n/a	START	1585875	n/a	LTP239	ltpFR	9	n/a	n/a	n/a	n/a	n/a	n/a	n/a	n/a	n/a	n/a	n/a	n/a	n/a	n/a	n/a	n/a
3172.954	n/a	PROB	1586477	n/a	LTP239	ltpFR	9	n/a	n/a	n/a	n/a	n/a	n/a	n/a	15	2	4	9	n/a	n/a	n/a	n/a	n/a
3174.774	n/a	PROB	1587387	n/a	LTP239	ltpFR	9	n/a	n/a	n/a	n/a	n/a	n/a	n/a	18	7	3	8	n/a	n/a	n/a	n/a	n/a
3176.902	n/a	PROB	1588451	n/a	LTP239	ltpFR	9	n/a	n/a	n/a	n/a	n/a	n/a	n/a	20	3	9	8	n/a	n/a	n/a	n/a	n/a
3179.244	n/a	PROB	1589622	n/a	LTP239	ltpFR	9	n/a	n/a	n/a	n/a	n/a	n/a	n/a	16	1	9	6	n/a	n/a	n/a	n/a	n/a
3184.344	n/a	PROB	1592172	n/a	LTP239	ltpFR	9	n/a	n/a	n/a	n/a	n/a	n/a	n/a	8	2	2	4	n/a	n/a	n/a	n/a	n/a
3187.73	n/a	STOP	1593865	n/a	LTP239	ltpFR	9	n/a	n/a	n/a	n/a	n/a	n/a	n/a	n/a	n/a	n/a	n/a	n/a	n/a	n/a	n/a	n/a
3188.748	n/a	WORD	1594374	wordpools/wasnorm_wordpool_less_exclusions.txt	LTP239	ltpFR	9	9	0	SUPPER	1411	n/a	n/a	0	n/a	0	0	0	0.422607421875	0.5869140625	0	upper	amplitud.ttf
3191.758	n/a	START	1595879	n/a	LTP239	ltpFR	9	n/a	n/a	n/a	n/a	n/a	n/a	n/a	n/a	n/a	n/a	n/a	n/a	n/a	n/a	n/a	n/a
3192.88	n/a	PROB	1596440	n/a	LTP239	ltpFR	9	n/a	n/a	n/a	n/a	n/a	n/a	n/a	17	8	6	3	n/a	n/a	n/a	n/a	n/a
3195.15	n/a	PROB	1597575	n/a	LTP239	ltpFR	9	n/a	n/a	n/a	n/a	n/a	n/a	n/a	21	9	6	6	n/a	n/a	n/a	n/a	n/a
3197.71	n/a	PROB	1598855	n/a	LTP239	ltpFR	9	n/a	n/a	n/a	n/a	n/a	n/a	n/a	15	6	1	8	n/a	n/a	n/a	n/a	n/a
3202.35	n/a	PROB	1601175	n/a	LTP239	ltpFR	9	n/a	n/a	n/a	n/a	n/a	n/a	n/a	21	9	4	8	n/a	n/a	n/a	n/a	n/a
3207.758	n/a	STOP	1603879	n/a	LTP239	ltpFR	9	n/a	n/a	n/a	n/a	n/a	n/a	n/a	n/a	n/a	n/a	n/a	n/a	n/a	n/a	n/a	n/a
3208.84	n/a	WORD	1604420	wordpools/wasnorm_wordpool_less_exclusions.txt	LTP239	ltpFR	9	9	0	BOOT	150	n/a	n/a	0	n/a	0	0	0	0.422607421875	0.5869140625	0	upper	amplitud.ttf
3211.852	n/a	START	1605926	n/a	LTP239	ltpFR	9	n/a	n/a	n/a	n/a	n/a	n/a	n/a	n/a	n/a	n/a	n/a	n/a	n/a	n/a	n/a	n/a
3212.89	n/a	PROB	1606445	n/a	LTP239	ltpFR	9	n/a	n/a	n/a	n/a	n/a	n/a	n/a	14	3	9	2	n/a	n/a	n/a	n/a	n/a
3215.566	n/a	PROB	1607783	n/a	LTP239	ltpFR	9	n/a	n/a	n/a	n/a	n/a	n/a	n/a	11	4	4	3	n/a	n/a	n/a	n/a	n/a
3218.374	n/a	PROB	1609187	n/a	LTP239	ltpFR	9	n/a	n/a	n/a	n/a	n/a	n/a	n/a	15	5	2	8	n/a	n/a	n/a	n/a	n/a
3220.03	n/a	PROB	1610015	n/a	LTP239	ltpFR	9	n/a	n/a	n/a	n/a	n/a	n/a	n/a	18	7	2	9	n/a	n/a	n/a	n/a	n/a
3222.204	n/a	PROB	1611102	n/a	LTP239	ltpFR	9	n/a	n/a	n/a	n/a	n/a	n/a	n/a	13	3	5	5	n/a	n/a	n/a	n/a	n/a
3225.232	n/a	PROB	1612616	n/a	LTP239	ltpFR	9	n/a	n/a	n/a	n/a	n/a	n/a	n/a	8	1	6	1	n/a	n/a	n/a	n/a	n/a
3226.684	n/a	STOP	1613342	n/a	LTP239	ltpFR	9	n/a	n/a	n/a	n/a	n/a	n/a	n/a	n/a	n/a	n/a	n/a	n/a	n/a	n/a	n/a	n/a
3228.968	n/a	WORD	1614484	wordpools/wasnorm_wordpool_less_exclusions.txt	LTP239	ltpFR	9	9	0	SCAPEGOAT	1244	n/a	n/a	0	n/a	0	0	0	0.422607421875	0.5869140625	0	upper	amplitud.ttf
3231.98	n/a	START	1615990	n/a	LTP239	ltpFR	9	n/a	n/a	n/a	n/a	n/a	n/a	n/a	n/a	n/a	n/a	n/a	n/a	n/a	n/a	n/a	n/a
3232.928	n/a	PROB	1616464	n/a	LTP239	ltpFR	9	n/a	n/a	n/a	n/a	n/a	n/a	n/a	20	9	3	8	n/a	n/a	n/a	n/a	n/a
3235.806	n/a	PROB	1617903	n/a	LTP239	ltpFR	9	n/a	n/a	n/a	n/a	n/a	n/a	n/a	18	6	8	4	n/a	n/a	n/a	n/a	n/a
3238.284	n/a	PROB	1619142	n/a	LTP239	ltpFR	9	n/a	n/a	n/a	n/a	n/a	n/a	n/a	10	2	7	1	n/a	n/a	n/a	n/a	n/a
3242.7	n/a	PROB	1621350	n/a	LTP239	ltpFR	9	n/a	n/a	n/a	n/a	n/a	n/a	n/a	16	4	9	3	n/a	n/a	n/a	n/a	n/a
3244.59	n/a	PROB	1622295	n/a	LTP239	ltpFR	9	n/a	n/a	n/a	n/a	n/a	n/a	n/a	15	6	8	1	n/a	n/a	n/a	n/a	n/a
3247.982	n/a	STOP	1623991	n/a	LTP239	ltpFR	9	n/a	n/a	n/a	n/a	n/a	n/a	n/a	n/a	n/a	n/a	n/a	n/a	n/a	n/a	n/a	n/a
3248.844	n/a	WORD	1624422	wordpools/wasnorm_wordpool_less_exclusions.txt	LTP239	ltpFR	9	9	0	CREEK	404	n/a	n/a	n/a	n/a	0	0	0	0.422607421875	0.5869140625	0	upper	amplitud.ttf
3251.888	n/a	SLOW_MSG	1625944	n/a	LTP239	ltpFR	9	9	n/a	n/a	n/a	n/a	n/a	n/a	n/a	0	0	0	n/a	n/a	n/a	n/a	n/a
3253.412	n/a	START	1626706	n/a	LTP239	ltpFR	9	n/a	n/a	n/a	n/a	n/a	n/a	n/a	n/a	n/a	n/a	n/a	n/a	n/a	n/a	n/a	n/a
3254.38	n/a	PROB	1627190	n/a	LTP239	ltpFR	9	n/a	n/a	n/a	n/a	n/a	n/a	n/a	9	7	1	1	n/a	n/a	n/a	n/a	n/a
3256.068	n/a	PROB	1628034	n/a	LTP239	ltpFR	9	n/a	n/a	n/a	n/a	n/a	n/a	n/a	15	7	6	2	n/a	n/a	n/a	n/a	n/a
3257.808	n/a	PROB	1628904	n/a	LTP239	ltpFR	9	n/a	n/a	n/a	n/a	n/a	n/a	n/a	16	6	3	7	n/a	n/a	n/a	n/a	n/a
3262.028	n/a	PROB	1631014	n/a	LTP239	ltpFR	9	n/a	n/a	n/a	n/a	n/a	n/a	n/a	17	1	9	7	n/a	n/a	n/a	n/a	n/a
3269.412	n/a	STOP	1634706	n/a	LTP239	ltpFR	9	n/a	n/a	n/a	n/a	n/a	n/a	n/a	n/a	n/a	n/a	n/a	n/a	n/a	n/a	n/a	n/a
3270.626	n/a	WORD	1635313	wordpools/wasnorm_wordpool_less_exclusions.txt	LTP239	ltpFR	9	9	1	CORAL	378	n/a	n/a	0	n/a	0	0	0	0.57763671875	0.412841796875	1	lower	zerothre.ttf
3273.638	n/a	START	1636819	n/a	LTP239	ltpFR	9	n/a	n/a	n/a	n/a	n/a	n/a	n/a	n/a	n/a	n/a	n/a	n/a	n/a	n/a	n/a	n/a
3274.826	n/a	PROB	1637413	n/a	LTP239	ltpFR	9	n/a	n/a	n/a	n/a	n/a	n/a	n/a	10	8	1	1	n/a	n/a	n/a	n/a	n/a
3276.612	n/a	PROB	1638306	n/a	LTP239	ltpFR	9	n/a	n/a	n/a	n/a	n/a	n/a	n/a	19	8	2	9	n/a	n/a	n/a	n/a	n/a
3278.904	n/a	PROB	1639452	n/a	LTP239	ltpFR	9	n/a	n/a	n/a	n/a	n/a	n/a	n/a	16	6	1	9	n/a	n/a	n/a	n/a	n/a
3280.812	n/a	PROB	1640406	n/a	LTP239	ltpFR	9	n/a	n/a	n/a	n/a	n/a	n/a	n/a	12	5	6	1	n/a	n/a	n/a	n/a	n/a
3283.022	n/a	PROB	1641511	n/a	LTP239	ltpFR	9	n/a	n/a	n/a	n/a	n/a	n/a	n/a	13	6	2	5	n/a	n/a	n/a	n/a	n/a
3286.868	n/a	PROB	1643434	n/a	LTP239	ltpFR	9	n/a	n/a	n/a	n/a	n/a	n/a	n/a	12	4	5	3	n/a	n/a	n/a	n/a	n/a
3288.528	n/a	STOP	1644264	n/a	LTP239	ltpFR	9	n/a	n/a	n/a	n/a	n/a	n/a	n/a	n/a	n/a	n/a	n/a	n/a	n/a	n/a	n/a	n/a
3290.836	n/a	WORD	1645418	wordpools/wasnorm_wordpool_less_exclusions.txt	LTP239	ltpFR	9	9	1	PIGEON	1065	n/a	n/a	1	n/a	0	0	0	0.57763671875	0.412841796875	1	lower	zerothre.ttf
3293.85	n/a	START	1646925	n/a	LTP239	ltpFR	9	n/a	n/a	n/a	n/a	n/a	n/a	n/a	n/a	n/a	n/a	n/a	n/a	n/a	n/a	n/a	n/a
3294.802	n/a	PROB	1647401	n/a	LTP239	ltpFR	9	n/a	n/a	n/a	n/a	n/a	n/a	n/a	15	9	3	2	n/a	n/a	n/a	n/a	n/a
3297.028	n/a	PROB	1648514	n/a	LTP239	ltpFR	9	n/a	n/a	n/a	n/a	n/a	n/a	n/a	15	3	6	6	n/a	n/a	n/a	n/a	n/a
3299.752	n/a	PROB	1649876	n/a	LTP239	ltpFR	9	n/a	n/a	n/a	n/a	n/a	n/a	n/a	16	6	7	1	n/a	n/a	n/a	n/a	n/a
3301.83	n/a	PROB	1650915	n/a	LTP239	ltpFR	9	n/a	n/a	n/a	n/a	n/a	n/a	n/a	15	4	4	7	n/a	n/a	n/a	n/a	n/a
3305.272	n/a	PROB	1652636	n/a	LTP239	ltpFR	9	n/a	n/a	n/a	n/a	n/a	n/a	n/a	21	7	9	5	n/a	n/a	n/a	n/a	n/a
3309.416	n/a	STOP	1654708	n/a	LTP239	ltpFR	9	n/a	n/a	n/a	n/a	n/a	n/a	n/a	n/a	n/a	n/a	n/a	n/a	n/a	n/a	n/a	n/a
3310.762	n/a	WORD	1655381	wordpools/wasnorm_wordpool_less_exclusions.txt	LTP239	ltpFR	9	9	1	OYSTER	995	n/a	n/a	1	n/a	0	0	0	0.57763671875	0.412841796875	1	lower	zerothre.ttf
3313.776	n/a	START	1656888	n/a	LTP239	ltpFR	9	n/a	n/a	n/a	n/a	n/a	n/a	n/a	n/a	n/a	n/a	n/a	n/a	n/a	n/a	n/a	n/a
3314.646	n/a	PROB	1657323	n/a	LTP239	ltpFR	9	n/a	n/a	n/a	n/a	n/a	n/a	n/a	17	9	5	3	n/a	n/a	n/a	n/a	n/a
3316.9	n/a	PROB	1658450	n/a	LTP239	ltpFR	9	n/a	n/a	n/a	n/a	n/a	n/a	n/a	15	5	9	1	n/a	n/a	n/a	n/a	n/a
3319.844	n/a	PROB	1659922	n/a	LTP239	ltpFR	9	n/a	n/a	n/a	n/a	n/a	n/a	n/a	12	7	2	3	n/a	n/a	n/a	n/a	n/a
3322.42	n/a	PROB	1661210	n/a	LTP239	ltpFR	9	n/a	n/a	n/a	n/a	n/a	n/a	n/a	12	2	8	2	n/a	n/a	n/a	n/a	n/a
3324.88	n/a	PROB	1662440	n/a	LTP239	ltpFR	9	n/a	n/a	n/a	n/a	n/a	n/a	n/a	16	3	9	4	n/a	n/a	n/a	n/a	n/a
3328.674	n/a	STOP	1664337	n/a	LTP239	ltpFR	9	n/a	n/a	n/a	n/a	n/a	n/a	n/a	n/a	n/a	n/a	n/a	n/a	n/a	n/a	n/a	n/a
3331.678	n/a	REC_START	1665839	n/a	LTP239	ltpFR	9	9	n/a	n/a	n/a	n/a	n/a	n/a	n/a	0	0	0	n/a	n/a	n/a	n/a	n/a
3340.528	n/a	REC_WORD	1670264	wordpools/wasnorm_wordpool_less_exclusions.txt	LTP239	ltpFR	9	9	1	OYSTER	995	n/a	n/a	1	n/a	0	0	0	n/a	n/a	n/a	n/a	n/a
3348.594	n/a	REC_WORD	1674297	wordpools/wasnorm_wordpool_less_exclusions.txt	LTP239	ltpFR	9	9	0	SCAPEGOAT	1244	n/a	n/a	0	n/a	0	0	0	n/a	n/a	n/a	n/a	n/a
3357.366	n/a	REC_WORD	1678683	wordpools/wasnorm_wordpool_less_exclusions.txt	LTP239	ltpFR	9	9	0	CREEK	404	n/a	n/a	n/a	n/a	0	0	0	n/a	n/a	n/a	n/a	n/a
4049.332	n/a	START	2024666	n/a	LTP239	ltpFR	9	n/a	n/a	n/a	n/a	n/a	n/a	n/a	n/a	n/a	n/a	n/a	n/a	n/a	n/a	n/a	n/a
4050.842	n/a	PROB	2025421	n/a	LTP239	ltpFR	9	n/a	n/a	n/a	n/a	n/a	n/a	n/a	19	8	4	7	n/a	n/a	n/a	n/a	n/a
4054.89	n/a	PROB	2027445	n/a	LTP239	ltpFR	9	n/a	n/a	n/a	n/a	n/a	n/a	n/a	21	7	6	8	n/a	n/a	n/a	n/a	n/a
4057.256	n/a	STOP	2028628	n/a	LTP239	ltpFR	9	n/a	n/a	n/a	n/a	n/a	n/a	n/a	n/a	n/a	n/a	n/a	n/a	n/a	n/a	n/a	n/a
4058.438	n/a	WORD	2029219	wordpools/wasnorm_wordpool_less_exclusions.txt	LTP239	ltpFR	9	10	0	PATIO	1025	n/a	n/a	0	n/a	0	0	0	0.422607421875	0.5869140625	0	upper	amplitud.ttf
4061.45	n/a	START	2030725	n/a	LTP239	ltpFR	9	n/a	n/a	n/a	n/a	n/a	n/a	n/a	n/a	n/a	n/a	n/a	n/a	n/a	n/a	n/a	n/a
4062.552	n/a	PROB	2031276	n/a	LTP239	ltpFR	9	n/a	n/a	n/a	n/a	n/a	n/a	n/a	14	3	8	3	n/a	n/a	n/a	n/a	n/a
4065.226	n/a	PROB	2032613	n/a	LTP239	ltpFR	9	n/a	n/a	n/a	n/a	n/a	n/a	n/a	11	2	3	6	n/a	n/a	n/a	n/a	n/a
4067.668	n/a	PROB	2033834	n/a	LTP239	ltpFR	9	n/a	n/a	n/a	n/a	n/a	n/a	n/a	15	3	6	6	n/a	n/a	n/a	n/a	n/a
4069.178	n/a	STOP	2034589	n/a	LTP239	ltpFR	9	n/a	n/a	n/a	n/a	n/a	n/a	n/a	n/a	n/a	n/a	n/a	n/a	n/a	n/a	n/a	n/a
4070.312	n/a	WORD	2035156	wordpools/wasnorm_wordpool_less_exclusions.txt	LTP239	ltpFR	9	10	0	SEAT	1264	n/a	n/a	0	n/a	0	0	0	0.422607421875	0.5869140625	0	upper	amplitud.ttf
4073.328	n/a	START	2036664	n/a	LTP239	ltpFR	9	n/a	n/a	n/a	n/a	n/a	n/a	n/a	n/a	n/a	n/a	n/a	n/a	n/a	n/a	n/a	n/a
4074.332	n/a	PROB	2037166	n/a	LTP239	ltpFR	9	n/a	n/a	n/a	n/a	n/a	n/a	n/a	18	7	5	6	n/a	n/a	n/a	n/a	n/a
4076.704	n/a	PROB	2038352	n/a	LTP239	ltpFR	9	n/a	n/a	n/a	n/a	n/a	n/a	n/a	12	2	8	2	n/a	n/a	n/a	n/a	n/a
4078.844	n/a	PROB	2039422	n/a	LTP239	ltpFR	9	n/a	n/a	n/a	n/a	n/a	n/a	n/a	19	3	7	9	n/a	n/a	n/a	n/a	n/a
4080.642	n/a	STOP	2040321	n/a	LTP239	ltpFR	9	n/a	n/a	n/a	n/a	n/a	n/a	n/a	n/a	n/a	n/a	n/a	n/a	n/a	n/a	n/a	n/a
4082.53	n/a	WORD	2041265	wordpools/wasnorm_wordpool_less_exclusions.txt	LTP239	ltpFR	9	10	0	GUEST	669	n/a	n/a	0	n/a	0	0	0	0.422607421875	0.5869140625	0	upper	amplitud.ttf
4085.542	n/a	START	2042771	n/a	LTP239	ltpFR	9	n/a	n/a	n/a	n/a	n/a	n/a	n/a	n/a	n/a	n/a	n/a	n/a	n/a	n/a	n/a	n/a
4086.662	n/a	PROB	2043331	n/a	LTP239	ltpFR	9	n/a	n/a	n/a	n/a	n/a	n/a	n/a	17	8	3	6	n/a	n/a	n/a	n/a	n/a
4088.716	n/a	PROB	2044358	n/a	LTP239	ltpFR	9	n/a	n/a	n/a	n/a	n/a	n/a	n/a	15	4	7	4	n/a	n/a	n/a	n/a	n/a
4090.774	n/a	PROB	2045387	n/a	LTP239	ltpFR	9	n/a	n/a	n/a	n/a	n/a	n/a	n/a	14	6	3	5	n/a	n/a	n/a	n/a	n/a
4093.21	n/a	STOP	2046605	n/a	LTP239	ltpFR	9	n/a	n/a	n/a	n/a	n/a	n/a	n/a	n/a	n/a	n/a	n/a	n/a	n/a	n/a	n/a	n/a
4094.442	n/a	WORD	2047221	wordpools/wasnorm_wordpool_less_exclusions.txt	LTP239	ltpFR	9	10	0	POSSUM	1112	n/a	n/a	1	n/a	0	0	0	0.422607421875	0.5869140625	0	upper	amplitud.ttf
4097.454	n/a	START	2048727	n/a	LTP239	ltpFR	9	n/a	n/a	n/a	n/a	n/a	n/a	n/a	n/a	n/a	n/a	n/a	n/a	n/a	n/a	n/a	n/a
4098.586	n/a	PROB	2049293	n/a	LTP239	ltpFR	9	n/a	n/a	n/a	n/a	n/a	n/a	n/a	16	9	2	5	n/a	n/a	n/a	n/a	n/a
4100.614	n/a	PROB	2050307	n/a	LTP239	ltpFR	9	n/a	n/a	n/a	n/a	n/a	n/a	n/a	20	4	7	9	n/a	n/a	n/a	n/a	n/a
4102.636	n/a	PROB	2051318	n/a	LTP239	ltpFR	9	n/a	n/a	n/a	n/a	n/a	n/a	n/a	18	8	1	9	n/a	n/a	n/a	n/a	n/a
4104.642	n/a	STOP	2052321	n/a	LTP239	ltpFR	9	n/a	n/a	n/a	n/a	n/a	n/a	n/a	n/a	n/a	n/a	n/a	n/a	n/a	n/a	n/a	n/a
4106.286	n/a	WORD	2053143	wordpools/wasnorm_wordpool_less_exclusions.txt	LTP239	ltpFR	9	10	0	WALRUS	1585	n/a	n/a	1	n/a	0	0	0	0.422607421875	0.5869140625	0	upper	amplitud.ttf
4109.3	n/a	START	2054650	n/a	LTP239	ltpFR	9	n/a	n/a	n/a	n/a	n/a	n/a	n/a	n/a	n/a	n/a	n/a	n/a	n/a	n/a	n/a	n/a
4110.118	n/a	PROB	2055059	n/a	LTP239	ltpFR	9	n/a	n/a	n/a	n/a	n/a	n/a	n/a	12	1	9	2	n/a	n/a	n/a	n/a	n/a
4111.788	n/a	PROB	2055894	n/a	LTP239	ltpFR	9	n/a	n/a	n/a	n/a	n/a	n/a	n/a	19	7	4	8	n/a	n/a	n/a	n/a	n/a
4113.662	n/a	PROB	2056831	n/a	LTP239	ltpFR	9	n/a	n/a	n/a	n/a	n/a	n/a	n/a	10	2	1	7	n/a	n/a	n/a	n/a	n/a
4117.3	n/a	STOP	2058650	n/a	LTP239	ltpFR	9	n/a	n/a	n/a	n/a	n/a	n/a	n/a	n/a	n/a	n/a	n/a	n/a	n/a	n/a	n/a	n/a
4118.432	n/a	WORD	2059216	wordpools/wasnorm_wordpool_less_exclusions.txt	LTP239	ltpFR	9	10	0	ROOMMATE	1207	n/a	n/a	1	n/a	0	0	0	0.422607421875	0.5869140625	0	upper	amplitud.ttf
4121.444	n/a	START	2060722	n/a	LTP239	ltpFR	9	n/a	n/a	n/a	n/a	n/a	n/a	n/a	n/a	n/a	n/a	n/a	n/a	n/a	n/a	n/a	n/a
4122.498	n/a	PROB	2061249	n/a	LTP239	ltpFR	9	n/a	n/a	n/a	n/a	n/a	n/a	n/a	12	2	4	6	n/a	n/a	n/a	n/a	n/a
4124.686	n/a	PROB	2062343	n/a	LTP239	ltpFR	9	n/a	n/a	n/a	n/a	n/a	n/a	n/a	13	5	4	4	n/a	n/a	n/a	n/a	n/a
4128.412	n/a	STOP	2064206	n/a	LTP239	ltpFR	9	n/a	n/a	n/a	n/a	n/a	n/a	n/a	n/a	n/a	n/a	n/a	n/a	n/a	n/a	n/a	n/a
4130.396	n/a	WORD	2065198	wordpools/wasnorm_wordpool_less_exclusions.txt	LTP239	ltpFR	9	10	0	SIGNATURE	1306	n/a	n/a	0	n/a	0	0	0	0.422607421875	0.5869140625	0	upper	amplitud.ttf
4133.408	n/a	START	2066704	n/a	LTP239	ltpFR	9	n/a	n/a	n/a	n/a	n/a	n/a	n/a	n/a	n/a	n/a	n/a	n/a	n/a	n/a	n/a	n/a
4134.558	n/a	PROB	2067279	n/a	LTP239	ltpFR	9	n/a	n/a	n/a	n/a	n/a	n/a	n/a	11	3	5	3	n/a	n/a	n/a	n/a	n/a
4136.666	n/a	PROB	2068333	n/a	LTP239	ltpFR	9	n/a	n/a	n/a	n/a	n/a	n/a	n/a	2	7	7	9	n/a	n/a	n/a	n/a	n/a
4138.64	n/a	PROB	2069320	n/a	LTP239	ltpFR	9	n/a	n/a	n/a	n/a	n/a	n/a	n/a	18	7	3	8	n/a	n/a	n/a	n/a	n/a
4140.908	n/a	STOP	2070454	n/a	LTP239	ltpFR	9	n/a	n/a	n/a	n/a	n/a	n/a	n/a	n/a	n/a	n/a	n/a	n/a	n/a	n/a	n/a	n/a
4142.27	n/a	WORD	2071135	wordpools/wasnorm_wordpool_less_exclusions.txt	LTP239	ltpFR	9	10	0	FLESH	579	n/a	n/a	1	n/a	0	0	0	0.422607421875	0.5869140625	0	upper	amplitud.ttf
4145.288	n/a	START	2072644	n/a	LTP239	ltpFR	9	n/a	n/a	n/a	n/a	n/a	n/a	n/a	n/a	n/a	n/a	n/a	n/a	n/a	n/a	n/a	n/a
4146.172	n/a	PROB	2073086	n/a	LTP239	ltpFR	9	n/a	n/a	n/a	n/a	n/a	n/a	n/a	14	2	9	3	n/a	n/a	n/a	n/a	n/a
4148.88	n/a	PROB	2074440	n/a	LTP239	ltpFR	9	n/a	n/a	n/a	n/a	n/a	n/a	n/a	17	7	2	8	n/a	n/a	n/a	n/a	n/a
4152.022	n/a	STOP	2076011	n/a	LTP239	ltpFR	9	n/a	n/a	n/a	n/a	n/a	n/a	n/a	n/a	n/a	n/a	n/a	n/a	n/a	n/a	n/a	n/a
4154.232	n/a	WORD	2077116	wordpools/wasnorm_wordpool_less_exclusions.txt	LTP239	ltpFR	9	10	0	RAZOR	1171	n/a	n/a	0	n/a	0	0	0	0.422607421875	0.5869140625	0	upper	amplitud.ttf
4157.248	n/a	START	2078624	n/a	LTP239	ltpFR	9	n/a	n/a	n/a	n/a	n/a	n/a	n/a	n/a	n/a	n/a	n/a	n/a	n/a	n/a	n/a	n/a
4158.318	n/a	PROB	2079159	n/a	LTP239	ltpFR	9	n/a	n/a	n/a	n/a	n/a	n/a	n/a	15	8	1	6	n/a	n/a	n/a	n/a	n/a
4160.506	n/a	PROB	2080253	n/a	LTP239	ltpFR	9	n/a	n/a	n/a	n/a	n/a	n/a	n/a	19	8	5	6	n/a	n/a	n/a	n/a	n/a
4162.718	n/a	PROB	2081359	n/a	LTP239	ltpFR	9	n/a	n/a	n/a	n/a	n/a	n/a	n/a	18	6	6	6	n/a	n/a	n/a	n/a	n/a
4164.542	n/a	STOP	2082271	n/a	LTP239	ltpFR	9	n/a	n/a	n/a	n/a	n/a	n/a	n/a	n/a	n/a	n/a	n/a	n/a	n/a	n/a	n/a	n/a
4166.3	n/a	WORD	2083150	wordpools/wasnorm_wordpool_less_exclusions.txt	LTP239	ltpFR	9	10	0	SPHINX	1349	n/a	n/a	1	n/a	0	0	0	0.422607421875	0.5869140625	0	upper	amplitud.ttf
4169.312	n/a	START	2084656	n/a	LTP239	ltpFR	9	n/a	n/a	n/a	n/a	n/a	n/a	n/a	n/a	n/a	n/a	n/a	n/a	n/a	n/a	n/a	n/a
4170.312	n/a	PROB	2085156	n/a	LTP239	ltpFR	9	n/a	n/a	n/a	n/a	n/a	n/a	n/a	15	6	5	4	n/a	n/a	n/a	n/a	n/a
4171.938	n/a	PROB	2085969	n/a	LTP239	ltpFR	9	n/a	n/a	n/a	n/a	n/a	n/a	n/a	15	6	5	4	n/a	n/a	n/a	n/a	n/a
4173.226	n/a	PROB	2086613	n/a	LTP239	ltpFR	9	n/a	n/a	n/a	n/a	n/a	n/a	n/a	12	2	5	5	n/a	n/a	n/a	n/a	n/a
4175.162	n/a	PROB	2087581	n/a	LTP239	ltpFR	9	n/a	n/a	n/a	n/a	n/a	n/a	n/a	14	3	9	1	n/a	n/a	n/a	n/a	n/a
4176.83	n/a	STOP	2088415	n/a	LTP239	ltpFR	9	n/a	n/a	n/a	n/a	n/a	n/a	n/a	n/a	n/a	n/a	n/a	n/a	n/a	n/a	n/a	n/a
4178.374	n/a	WORD	2089187	wordpools/wasnorm_wordpool_less_exclusions.txt	LTP239	ltpFR	9	10	0	MOVIE	927	n/a	n/a	1	n/a	0	0	0	0.422607421875	0.5869140625	0	upper	amplitud.ttf
4181.39	n/a	START	2090695	n/a	LTP239	ltpFR	9	n/a	n/a	n/a	n/a	n/a	n/a	n/a	n/a	n/a	n/a	n/a	n/a	n/a	n/a	n/a	n/a
4182.326	n/a	PROB	2091163	n/a	LTP239	ltpFR	9	n/a	n/a	n/a	n/a	n/a	n/a	n/a	8	1	2	5	n/a	n/a	n/a	n/a	n/a
4183.98	n/a	PROB	2091990	n/a	LTP239	ltpFR	9	n/a	n/a	n/a	n/a	n/a	n/a	n/a	14	1	7	6	n/a	n/a	n/a	n/a	n/a
4185.924	n/a	PROB	2092962	n/a	LTP239	ltpFR	9	n/a	n/a	n/a	n/a	n/a	n/a	n/a	24	8	7	9	n/a	n/a	n/a	n/a	n/a
4188.416	n/a	STOP	2094208	n/a	LTP239	ltpFR	9	n/a	n/a	n/a	n/a	n/a	n/a	n/a	n/a	n/a	n/a	n/a	n/a	n/a	n/a	n/a	n/a
4190.304	n/a	WORD	2095152	wordpools/wasnorm_wordpool_less_exclusions.txt	LTP239	ltpFR	9	10	0	FUR	615	n/a	n/a	0	n/a	0	0	0	0.422607421875	0.5869140625	0	upper	amplitud.ttf
4193.32	n/a	START	2096660	n/a	LTP239	ltpFR	9	n/a	n/a	n/a	n/a	n/a	n/a	n/a	n/a	n/a	n/a	n/a	n/a	n/a	n/a	n/a	n/a
4194.504	n/a	PROB	2097252	n/a	LTP239	ltpFR	9	n/a	n/a	n/a	n/a	n/a	n/a	n/a	16	6	5	5	n/a	n/a	n/a	n/a	n/a
4197.716	n/a	PROB	2098858	n/a	LTP239	ltpFR	9	n/a	n/a	n/a	n/a	n/a	n/a	n/a	16	7	2	7	n/a	n/a	n/a	n/a	n/a
4199.656	n/a	PROB	2099828	n/a	LTP239	ltpFR	9	n/a	n/a	n/a	n/a	n/a	n/a	n/a	18	4	7	7	n/a	n/a	n/a	n/a	n/a
4201.136	n/a	STOP	2100568	n/a	LTP239	ltpFR	9	n/a	n/a	n/a	n/a	n/a	n/a	n/a	n/a	n/a	n/a	n/a	n/a	n/a	n/a	n/a	n/a
4202.288	n/a	WORD	2101144	wordpools/wasnorm_wordpool_less_exclusions.txt	LTP239	ltpFR	9	10	0	OX	994	n/a	n/a	1	n/a	0	0	0	0.422607421875	0.5869140625	0	upper	amplitud.ttf
4205.3	n/a	START	2102650	n/a	LTP239	ltpFR	9	n/a	n/a	n/a	n/a	n/a	n/a	n/a	n/a	n/a	n/a	n/a	n/a	n/a	n/a	n/a	n/a
4206.136	n/a	PROB	2103068	n/a	LTP239	ltpFR	9	n/a	n/a	n/a	n/a	n/a	n/a	n/a	13	2	7	4	n/a	n/a	n/a	n/a	n/a
4208.858	n/a	PROB	2104429	n/a	LTP239	ltpFR	9	n/a	n/a	n/a	n/a	n/a	n/a	n/a	25	9	7	9	n/a	n/a	n/a	n/a	n/a
4213.298	n/a	STOP	2106649	n/a	LTP239	ltpFR	9	n/a	n/a	n/a	n/a	n/a	n/a	n/a	n/a	n/a	n/a	n/a	n/a	n/a	n/a	n/a	n/a
4214.328	n/a	WORD	2107164	wordpools/wasnorm_wordpool_less_exclusions.txt	LTP239	ltpFR	9	10	0	SAUCER	1237	n/a	n/a	0	n/a	0	0	0	0.422607421875	0.5869140625	0	upper	amplitud.ttf
4217.344	n/a	START	2108672	n/a	LTP239	ltpFR	9	n/a	n/a	n/a	n/a	n/a	n/a	n/a	n/a	n/a	n/a	n/a	n/a	n/a	n/a	n/a	n/a
4218.198	n/a	PROB	2109099	n/a	LTP239	ltpFR	9	n/a	n/a	n/a	n/a	n/a	n/a	n/a	15	5	2	8	n/a	n/a	n/a	n/a	n/a
4220.084	n/a	PROB	2110042	n/a	LTP239	ltpFR	9	n/a	n/a	n/a	n/a	n/a	n/a	n/a	14	7	5	2	n/a	n/a	n/a	n/a	n/a
4222.048	n/a	PROB	2111024	n/a	LTP239	ltpFR	9	n/a	n/a	n/a	n/a	n/a	n/a	n/a	21	5	9	7	n/a	n/a	n/a	n/a	n/a
4225.25	n/a	STOP	2112625	n/a	LTP239	ltpFR	9	n/a	n/a	n/a	n/a	n/a	n/a	n/a	n/a	n/a	n/a	n/a	n/a	n/a	n/a	n/a	n/a
4226.458	n/a	WORD	2113229	wordpools/wasnorm_wordpool_less_exclusions.txt	LTP239	ltpFR	9	10	0	CHARCOAL	281	n/a	n/a	0	n/a	0	0	0	0.422607421875	0.5869140625	0	upper	amplitud.ttf
4229.474	n/a	START	2114737	n/a	LTP239	ltpFR	9	n/a	n/a	n/a	n/a	n/a	n/a	n/a	n/a	n/a	n/a	n/a	n/a	n/a	n/a	n/a	n/a
4230.41	n/a	PROB	2115205	n/a	LTP239	ltpFR	9	n/a	n/a	n/a	n/a	n/a	n/a	n/a	12	9	2	1	n/a	n/a	n/a	n/a	n/a
4234.056	n/a	PROB	2117028	n/a	LTP239	ltpFR	9	n/a	n/a	n/a	n/a	n/a	n/a	n/a	19	8	6	5	n/a	n/a	n/a	n/a	n/a
4236.338	n/a	STOP	2118169	n/a	LTP239	ltpFR	9	n/a	n/a	n/a	n/a	n/a	n/a	n/a	n/a	n/a	n/a	n/a	n/a	n/a	n/a	n/a	n/a
4238.408	n/a	WORD	2119204	wordpools/wasnorm_wordpool_less_exclusions.txt	LTP239	ltpFR	9	10	0	PERSON	1052	n/a	n/a	1	n/a	0	0	0	0.422607421875	0.5869140625	0	upper	amplitud.ttf
4241.42	n/a	START	2120710	n/a	LTP239	ltpFR	9	n/a	n/a	n/a	n/a	n/a	n/a	n/a	n/a	n/a	n/a	n/a	n/a	n/a	n/a	n/a	n/a
4242.49	n/a	PROB	2121245	n/a	LTP239	ltpFR	9	n/a	n/a	n/a	n/a	n/a	n/a	n/a	11	6	3	2	n/a	n/a	n/a	n/a	n/a
4244.544	n/a	PROB	2122272	n/a	LTP239	ltpFR	9	n/a	n/a	n/a	n/a	n/a	n/a	n/a	15	6	4	5	n/a	n/a	n/a	n/a	n/a
4246.854	n/a	PROB	2123427	n/a	LTP239	ltpFR	9	n/a	n/a	n/a	n/a	n/a	n/a	n/a	12	4	5	3	n/a	n/a	n/a	n/a	n/a
4248.522	n/a	STOP	2124261	n/a	LTP239	ltpFR	9	n/a	n/a	n/a	n/a	n/a	n/a	n/a	n/a	n/a	n/a	n/a	n/a	n/a	n/a	n/a	n/a
4251.324	n/a	REC_START	2125662	n/a	LTP239	ltpFR	9	10	n/a	n/a	n/a	n/a	n/a	n/a	n/a	0	0	0	n/a	n/a	n/a	n/a	n/a
4252.96	n/a	REC_WORD	2126480	wordpools/wasnorm_wordpool_less_exclusions.txt	LTP239	ltpFR	9	10	0	WALRUS	1585	n/a	n/a	1	n/a	0	0	0	n/a	n/a	n/a	n/a	n/a
4254.606	n/a	REC_WORD	2127303	wordpools/wasnorm_wordpool_less_exclusions.txt	LTP239	ltpFR	9	10	0	SAUCER	1237	n/a	n/a	0	n/a	0	0	0	n/a	n/a	n/a	n/a	n/a
4256.178	n/a	REC_WORD	2128089	wordpools/wasnorm_wordpool_less_exclusions.txt	LTP239	ltpFR	9	10	0	CHARCOAL	281	n/a	n/a	0	n/a	0	0	0	n/a	n/a	n/a	n/a	n/a
4259.726	n/a	REC_WORD	2129863	wordpools/wasnorm_wordpool_less_exclusions.txt	LTP239	ltpFR	9	10	0	PERSON	1052	n/a	n/a	1	n/a	0	0	0	n/a	n/a	n/a	n/a	n/a
4262.27	n/a	REC_WORD	2131135	wordpools/wasnorm_wordpool_less_exclusions.txt	LTP239	ltpFR	9	10	0	SIGNATURE	1306	n/a	n/a	0	n/a	0	0	0	n/a	n/a	n/a	n/a	n/a
4268.53	n/a	REC_WORD	2134265	wordpools/wasnorm_wordpool_less_exclusions.txt	LTP239	ltpFR	9	10	0	POSSUM	1112	n/a	n/a	1	n/a	0	0	0	n/a	n/a	n/a	n/a	n/a
4307.15	n/a	REC_WORD	2153575	wordpools/wasnorm_wordpool_less_exclusions.txt	LTP239	ltpFR	9	10	0	PATIO	1025	n/a	n/a	0	n/a	0	0	0	n/a	n/a	n/a	n/a	n/a
4313.666	n/a	REC_WORD	2156833	wordpools/wasnorm_wordpool_less_exclusions.txt	LTP239	ltpFR	9	10	n/a	CHAIR	274	n/a	n/a	n/a	n/a	0	0	0	n/a	n/a	n/a	n/a	n/a
4315.824	n/a	REC_WORD	2157912	wordpools/wasnorm_wordpool_less_exclusions.txt	LTP239	ltpFR	9	10	0	SEAT	1264	n/a	n/a	0	n/a	0	0	0	n/a	n/a	n/a	n/a	n/a
4326.976	n/a	REST_REWET	2163488	n/a	LTP239	ltpFR	9	10	n/a	n/a	n/a	n/a	n/a	n/a	n/a	0	0	0	n/a	n/a	n/a	n/a	n/a
4336.986	n/a	WORD	2168493	wordpools/wasnorm_wordpool_less_exclusions.txt	LTP239	ltpFR	9	11	0	GOO	648	n/a	n/a	0	n/a	0	0	0	0.422607421875	0.5869140625	0	upper	amplitud.ttf
4340.816	n/a	WORD	2170408	wordpools/wasnorm_wordpool_less_exclusions.txt	LTP239	ltpFR	9	11	0	PRAIRIE	1118	n/a	n/a	1	n/a	0	0	0	0.422607421875	0.5869140625	0	upper	amplitud.ttf
4345.012	n/a	WORD	2172506	wordpools/wasnorm_wordpool_less_exclusions.txt	LTP239	ltpFR	9	11	0	BALCONY	72	n/a	n/a	1	n/a	0	0	0	0.422607421875	0.5869140625	0	upper	amplitud.ttf
4349.182	n/a	WORD	2174591	wordpools/wasnorm_wordpool_less_exclusions.txt	LTP239	ltpFR	9	11	1	CHEESE	289	n/a	n/a	0	n/a	0	0	0	0.57763671875	0.412841796875	1	lower	zerothre.ttf
4353.23	n/a	WORD	2176615	wordpools/wasnorm_wordpool_less_exclusions.txt	LTP239	ltpFR	9	11	1	BANQUET	86	n/a	n/a	0	n/a	0	0	0	0.57763671875	0.412841796875	1	lower	zerothre.ttf
4357.162	n/a	WORD	2178581	wordpools/wasnorm_wordpool_less_exclusions.txt	LTP239	ltpFR	9	11	1	SANDWICH	1232	n/a	n/a	0	n/a	0	0	0	0.57763671875	0.412841796875	1	lower	zerothre.ttf
4361.012	n/a	WORD	2180506	wordpools/wasnorm_wordpool_less_exclusions.txt	LTP239	ltpFR	9	11	1	WAITER	1580	n/a	n/a	1	n/a	0	0	0	0.57763671875	0.412841796875	1	lower	zerothre.ttf
4365.026	n/a	WORD	2182513	wordpools/wasnorm_wordpool_less_exclusions.txt	LTP239	ltpFR	9	11	1	ACTRESS	6	n/a	n/a	1	n/a	0	0	0	0.57763671875	0.412841796875	1	lower	zerothre.ttf
4369.158	n/a	WORD	2184579	wordpools/wasnorm_wordpool_less_exclusions.txt	LTP239	ltpFR	9	11	0	ACTOR	5	n/a	n/a	1	n/a	0	0	0	0.422607421875	0.5869140625	0	upper	amplitud.ttf
4373.058	n/a	WORD	2186529	wordpools/wasnorm_wordpool_less_exclusions.txt	LTP239	ltpFR	9	11	0	CHEDDAR	286	n/a	n/a	1	n/a	0	0	0	0.422607421875	0.5869140625	0	upper	amplitud.ttf
4377.122	n/a	WORD	2188561	wordpools/wasnorm_wordpool_less_exclusions.txt	LTP239	ltpFR	9	11	0	PAIL	1002	n/a	n/a	0	n/a	0	0	0	0.422607421875	0.5869140625	0	upper	amplitud.ttf
4381.2	n/a	WORD	2190600	wordpools/wasnorm_wordpool_less_exclusions.txt	LTP239	ltpFR	9	11	0	SKUNK	1321	n/a	n/a	0	n/a	0	0	0	0.422607421875	0.5869140625	0	upper	amplitud.ttf
4385.35	n/a	WORD	2192675	wordpools/wasnorm_wordpool_less_exclusions.txt	LTP239	ltpFR	9	11	0	CREVICE	405	n/a	n/a	0	n/a	0	0	0	0.422607421875	0.5869140625	0	upper	amplitud.ttf
4389.402	n/a	WORD	2194701	wordpools/wasnorm_wordpool_less_exclusions.txt	LTP239	ltpFR	9	11	1	MAID	856	n/a	n/a	1	n/a	0	0	0	0.57763671875	0.412841796875	1	lower	zerothre.ttf
4393.284	n/a	WORD	2196642	wordpools/wasnorm_wordpool_less_exclusions.txt	LTP239	ltpFR	9	11	1	PERFUME	1049	n/a	n/a	0	n/a	0	0	0	0.57763671875	0.412841796875	1	lower	zerothre.ttf
4397.45	n/a	WORD	2198725	wordpools/wasnorm_wordpool_less_exclusions.txt	LTP239	ltpFR	9	11	1	BONE	148	n/a	n/a	0	n/a	0	0	0	0.57763671875	0.412841796875	1	lower	zerothre.ttf
4400.462	n/a	START	2200231	n/a	LTP239	ltpFR	9	n/a	n/a	n/a	n/a	n/a	n/a	n/a	n/a	n/a	n/a	n/a	n/a	n/a	n/a	n/a	n/a
4401.482	n/a	PROB	2200741	n/a	LTP239	ltpFR	9	n/a	n/a	n/a	n/a	n/a	n/a	n/a	12	5	2	5	n/a	n/a	n/a	n/a	n/a
4403.854	n/a	PROB	2201927	n/a	LTP239	ltpFR	9	n/a	n/a	n/a	n/a	n/a	n/a	n/a	14	6	3	5	n/a	n/a	n/a	n/a	n/a
4405.71	n/a	PROB	2202855	n/a	LTP239	ltpFR	9	n/a	n/a	n/a	n/a	n/a	n/a	n/a	16	3	7	6	n/a	n/a	n/a	n/a	n/a
4407.622	n/a	PROB	2203811	n/a	LTP239	ltpFR	9	n/a	n/a	n/a	n/a	n/a	n/a	n/a	22	4	9	9	n/a	n/a	n/a	n/a	n/a
4409.592	n/a	PROB	2204796	n/a	LTP239	ltpFR	9	n/a	n/a	n/a	n/a	n/a	n/a	n/a	23	9	8	5	n/a	n/a	n/a	n/a	n/a
4411.5	n/a	PROB	2205750	n/a	LTP239	ltpFR	9	n/a	n/a	n/a	n/a	n/a	n/a	n/a	19	9	4	6	n/a	n/a	n/a	n/a	n/a
4413.728	n/a	PROB	2206864	n/a	LTP239	ltpFR	9	n/a	n/a	n/a	n/a	n/a	n/a	n/a	6	1	2	3	n/a	n/a	n/a	n/a	n/a
4415.252	n/a	STOP	2207626	n/a	LTP239	ltpFR	9	n/a	n/a	n/a	n/a	n/a	n/a	n/a	n/a	n/a	n/a	n/a	n/a	n/a	n/a	n/a	n/a
4418.264	n/a	REC_START	2209132	n/a	LTP239	ltpFR	9	11	n/a	n/a	n/a	n/a	n/a	n/a	n/a	0	0	0	n/a	n/a	n/a	n/a	n/a
4419.36	n/a	REC_WORD	2209680	wordpools/wasnorm_wordpool_less_exclusions.txt	LTP239	ltpFR	9	11	0	SKUNK	1321	n/a	n/a	0	n/a	0	0	0	n/a	n/a	n/a	n/a	n/a
4421.052	n/a	REC_WORD	2210526	wordpools/wasnorm_wordpool_less_exclusions.txt	LTP239	ltpFR	9	11	0	CREVICE	405	n/a	n/a	0	n/a	0	0	0	n/a	n/a	n/a	n/a	n/a
4425.502	n/a	REC_WORD	2212751	wordpools/wasnorm_wordpool_less_exclusions.txt	LTP239	ltpFR	9	11	0	ACTOR	5	n/a	n/a	1	n/a	0	0	0	n/a	n/a	n/a	n/a	n/a
4426.36	n/a	REC_WORD	2213180	wordpools/wasnorm_wordpool_less_exclusions.txt	LTP239	ltpFR	9	11	1	ACTRESS	6	n/a	n/a	1	n/a	0	0	0	n/a	n/a	n/a	n/a	n/a
4430.78	n/a	REC_WORD	2215390	wordpools/wasnorm_wordpool_less_exclusions.txt	LTP239	ltpFR	9	11	1	WAITER	1580	n/a	n/a	1	n/a	0	0	0	n/a	n/a	n/a	n/a	n/a
4438.308	n/a	REC_WORD	2219154	wordpools/wasnorm_wordpool_less_exclusions.txt	LTP239	ltpFR	9	11	0	PRAIRIE	1118	n/a	n/a	1	n/a	0	0	0	n/a	n/a	n/a	n/a	n/a
4443.676	n/a	REC_WORD	2221838	wordpools/wasnorm_wordpool_less_exclusions.txt	LTP239	ltpFR	9	11	0	FLESH	579	n/a	n/a	1	n/a	0	0	0	n/a	n/a	n/a	n/a	n/a
4444.372	n/a	REC_WORD	2222186	wordpools/wasnorm_wordpool_less_exclusions.txt	LTP239	ltpFR	9	11	0	FUR	615	n/a	n/a	0	n/a	0	0	0	n/a	n/a	n/a	n/a	n/a
4487.456	n/a	REC_WORD	2243728	wordpools/wasnorm_wordpool_less_exclusions.txt	LTP239	ltpFR	9	11	0	PAIL	1002	n/a	n/a	0	n/a	0	0	0	n/a	n/a	n/a	n/a	n/a
4507.136	n/a	WORD	2253568	wordpools/wasnorm_wordpool_less_exclusions.txt	LTP239	ltpFR	9	12	1	BOY	161	n/a	n/a	1	n/a	0	0	0	0.57763671875	0.412841796875	1	lower	zerothre.ttf
4511.114	n/a	WORD	2255557	wordpools/wasnorm_wordpool_less_exclusions.txt	LTP239	ltpFR	9	12	1	MOTHER	921	n/a	n/a	1	n/a	0	0	0	0.57763671875	0.412841796875	1	lower	zerothre.ttf
4515.182	n/a	WORD	2257591	wordpools/wasnorm_wordpool_less_exclusions.txt	LTP239	ltpFR	9	12	1	BOSS	152	n/a	n/a	1	n/a	0	0	0	0.57763671875	0.412841796875	1	lower	zerothre.ttf
4519.332	n/a	WORD	2259666	wordpools/wasnorm_wordpool_less_exclusions.txt	LTP239	ltpFR	9	12	1	WATER	1594	n/a	n/a	0	n/a	0	0	0	0.57763671875	0.412841796875	1	lower	zerothre.ttf
4523.432	n/a	WORD	2261716	wordpools/wasnorm_wordpool_less_exclusions.txt	LTP239	ltpFR	9	12	1	ROCKET	1202	n/a	n/a	0	n/a	0	0	0	0.57763671875	0.412841796875	1	lower	zerothre.ttf
4527.43	n/a	WORD	2263715	wordpools/wasnorm_wordpool_less_exclusions.txt	LTP239	ltpFR	9	12	1	SWEATER	1419	n/a	n/a	0	n/a	0	0	0	0.57763671875	0.412841796875	1	lower	zerothre.ttf
4531.394	n/a	WORD	2265697	wordpools/wasnorm_wordpool_less_exclusions.txt	LTP239	ltpFR	9	12	1	CORPORATION	382	n/a	n/a	0	n/a	0	0	0	0.57763671875	0.412841796875	1	lower	zerothre.ttf
4535.226	n/a	WORD	2267613	wordpools/wasnorm_wordpool_less_exclusions.txt	LTP239	ltpFR	9	12	1	LAUNDRY	803	n/a	n/a	0	n/a	0	0	0	0.57763671875	0.412841796875	1	lower	zerothre.ttf
4539.074	n/a	WORD	2269537	wordpools/wasnorm_wordpool_less_exclusions.txt	LTP239	ltpFR	9	12	1	HANGER	687	n/a	n/a	0	n/a	0	0	0	0.57763671875	0.412841796875	1	lower	zerothre.ttf
4543.186	n/a	WORD	2271593	wordpools/wasnorm_wordpool_less_exclusions.txt	LTP239	ltpFR	9	12	1	SHELL	1281	n/a	n/a	0	n/a	0	0	0	0.57763671875	0.412841796875	1	lower	zerothre.ttf
4547.222	n/a	WORD	2273611	wordpools/wasnorm_wordpool_less_exclusions.txt	LTP239	ltpFR	9	12	1	MAMMAL	861	n/a	n/a	1	n/a	0	0	0	0.57763671875	0.412841796875	1	lower	zerothre.ttf
4551.418	n/a	WORD	2275709	wordpools/wasnorm_wordpool_less_exclusions.txt	LTP239	ltpFR	9	12	1	RACCOON	1153	n/a	n/a	1	n/a	0	0	0	0.57763671875	0.412841796875	1	lower	zerothre.ttf
4555.318	n/a	WORD	2277659	wordpools/wasnorm_wordpool_less_exclusions.txt	LTP239	ltpFR	9	12	1	MOAT	903	n/a	n/a	0	n/a	0	0	0	0.57763671875	0.412841796875	1	lower	zerothre.ttf
