mstime	trial_type	stim_file	subject	experiment	session	trial	task	item_name	item_num	recog_conf	resp	color_b	color_g	color_r	case	font
0	SESS_START	n/a	LTP249	ltpFR	16	n/a	n/a	n/a	n/a	3	n/a	n/a	n/a	n/a	n/a	n/a
54393	WORD	wordpools/wasnorm_wordpool_less_exclusions.txt	LTP249	ltpFR	16	1	1	ORCHID	982	n/a	1	1	0.412841796875	0.57763671875	lower	../fonts/zerothre.ttf
58442	WORD	wordpools/wasnorm_wordpool_less_exclusions.txt	LTP249	ltpFR	16	1	1	COACH	331	n/a	1	1	0.412841796875	0.57763671875	lower	../fonts/zerothre.ttf
62621	WORD	wordpools/wasnorm_wordpool_less_exclusions.txt	LTP249	ltpFR	16	1	1	GANG	619	n/a	1	1	0.412841796875	0.57763671875	lower	../fonts/zerothre.ttf
66639	WORD	wordpools/wasnorm_wordpool_less_exclusions.txt	LTP249	ltpFR	16	1	1	COCOON	339	n/a	0	1	0.412841796875	0.57763671875	lower	../fonts/zerothre.ttf
70805	WORD	wordpools/wasnorm_wordpool_less_exclusions.txt	LTP249	ltpFR	16	1	1	REFEREE	1178	n/a	1	1	0.412841796875	0.57763671875	lower	../fonts/zerothre.ttf
74987	WORD	wordpools/wasnorm_wordpool_less_exclusions.txt	LTP249	ltpFR	16	1	0	LEOPARD	812	n/a	0	0	0.5869140625	0.422607421875	upper	../fonts/amplitud.ttf
79103	WORD	wordpools/wasnorm_wordpool_less_exclusions.txt	LTP249	ltpFR	16	1	0	TELEPHONE	1445	n/a	0	0	0.5869140625	0.422607421875	upper	../fonts/amplitud.ttf
83001	WORD	wordpools/wasnorm_wordpool_less_exclusions.txt	LTP249	ltpFR	16	1	0	BLENDER	136	n/a	0	0	0.5869140625	0.422607421875	upper	../fonts/amplitud.ttf
86916	WORD	wordpools/wasnorm_wordpool_less_exclusions.txt	LTP249	ltpFR	16	1	0	QUILT	1151	n/a	1	0	0.5869140625	0.422607421875	upper	../fonts/amplitud.ttf
91081	WORD	wordpools/wasnorm_wordpool_less_exclusions.txt	LTP249	ltpFR	16	1	1	THIMBLE	1458	n/a	0	1	0.412841796875	0.57763671875	lower	../fonts/zerothre.ttf
95148	WORD	wordpools/wasnorm_wordpool_less_exclusions.txt	LTP249	ltpFR	16	1	1	MOUSE	925	n/a	1	1	0.412841796875	0.57763671875	lower	../fonts/zerothre.ttf
99246	WORD	wordpools/wasnorm_wordpool_less_exclusions.txt	LTP249	ltpFR	16	1	1	PATH	1023	n/a	0	1	0.412841796875	0.57763671875	lower	../fonts/zerothre.ttf
103461	WORD	wordpools/wasnorm_wordpool_less_exclusions.txt	LTP249	ltpFR	16	1	0	CURB	426	n/a	0	0	0.5869140625	0.422607421875	upper	../fonts/amplitud.ttf
107523	WORD	wordpools/wasnorm_wordpool_less_exclusions.txt	LTP249	ltpFR	16	1	0	BOOT	150	n/a	0	0	0.5869140625	0.422607421875	upper	../fonts/amplitud.ttf
111458	WORD	wordpools/wasnorm_wordpool_less_exclusions.txt	LTP249	ltpFR	16	1	0	SHOELACE	1289	n/a	0	0	0.5869140625	0.422607421875	upper	../fonts/amplitud.ttf
115374	WORD	wordpools/wasnorm_wordpool_less_exclusions.txt	LTP249	ltpFR	16	1	0	REFRIGERATOR	1179	n/a	1	0	0.5869140625	0.422607421875	upper	../fonts/amplitud.ttf
121095	REC_START	n/a	LTP249	ltpFR	16	1	n/a	n/a	n/a	n/a	n/a	n/a	n/a	n/a	n/a	n/a
122181	REC_WORD	wordpools/wasnorm_wordpool_less_exclusions.txt	LTP249	ltpFR	16	1	0	CURB	426	n/a	0	n/a	n/a	n/a	n/a	n/a
123173	REC_WORD	wordpools/wasnorm_wordpool_less_exclusions.txt	LTP249	ltpFR	16	1	0	BOOT	150	n/a	0	n/a	n/a	n/a	n/a	n/a
124241	REC_WORD	wordpools/wasnorm_wordpool_less_exclusions.txt	LTP249	ltpFR	16	1	0	REFRIGERATOR	1179	n/a	1	n/a	n/a	n/a	n/a	n/a
126237	REC_WORD	wordpools/wasnorm_wordpool_less_exclusions.txt	LTP249	ltpFR	16	1	0	SHOELACE	1289	n/a	0	n/a	n/a	n/a	n/a	n/a
128570	REC_WORD	wordpools/wasnorm_wordpool_less_exclusions.txt	LTP249	ltpFR	16	1	0	LEOPARD	812	n/a	0	n/a	n/a	n/a	n/a	n/a
130032	REC_WORD	wordpools/wasnorm_wordpool_less_exclusions.txt	LTP249	ltpFR	16	1	1	PATH	1023	n/a	0	n/a	n/a	n/a	n/a	n/a
133936	REC_WORD	wordpools/wasnorm_wordpool_less_exclusions.txt	LTP249	ltpFR	16	1	1	REFEREE	1178	n/a	1	n/a	n/a	n/a	n/a	n/a
135345	REC_WORD	wordpools/wasnorm_wordpool_less_exclusions.txt	LTP249	ltpFR	16	1	1	COACH	331	n/a	1	n/a	n/a	n/a	n/a	n/a
136696	REC_WORD	wordpools/wasnorm_wordpool_less_exclusions.txt	LTP249	ltpFR	16	1	1	GANG	619	n/a	1	n/a	n/a	n/a	n/a	n/a
138256	REC_WORD	wordpools/wasnorm_wordpool_less_exclusions.txt	LTP249	ltpFR	16	1	1	ORCHID	982	n/a	1	n/a	n/a	n/a	n/a	n/a
139513	REC_WORD	wordpools/wasnorm_wordpool_less_exclusions.txt	LTP249	ltpFR	16	1	1	COCOON	339	n/a	0	n/a	n/a	n/a	n/a	n/a
142671	REC_WORD	wordpools/wasnorm_wordpool_less_exclusions.txt	LTP249	ltpFR	16	1	0	LEOPARD	812	n/a	0	n/a	n/a	n/a	n/a	n/a
143547	REC_WORD	wordpools/wasnorm_wordpool_less_exclusions.txt	LTP249	ltpFR	16	1	0	BLENDER	136	n/a	0	n/a	n/a	n/a	n/a	n/a
157147	REC_WORD	wordpools/wasnorm_wordpool_less_exclusions.txt	LTP249	ltpFR	16	1	1	THIMBLE	1458	n/a	0	n/a	n/a	n/a	n/a	n/a
216471	WORD	wordpools/wasnorm_wordpool_less_exclusions.txt	LTP249	ltpFR	16	2	0	OFFICER	973	n/a	1	0	0.5869140625	0.422607421875	upper	../fonts/amplitud.ttf
220333	WORD	wordpools/wasnorm_wordpool_less_exclusions.txt	LTP249	ltpFR	16	2	0	CUFF	423	n/a	0	0	0.5869140625	0.422607421875	upper	../fonts/amplitud.ttf
224384	WORD	wordpools/wasnorm_wordpool_less_exclusions.txt	LTP249	ltpFR	16	2	0	SHACK	1273	n/a	1	0	0.5869140625	0.422607421875	upper	../fonts/amplitud.ttf
228530	WORD	wordpools/wasnorm_wordpool_less_exclusions.txt	LTP249	ltpFR	16	2	0	NICOTINE	951	n/a	0	0	0.5869140625	0.422607421875	upper	../fonts/amplitud.ttf
232362	WORD	wordpools/wasnorm_wordpool_less_exclusions.txt	LTP249	ltpFR	16	2	0	LEVER	815	n/a	0	0	0.5869140625	0.422607421875	upper	../fonts/amplitud.ttf
236313	WORD	wordpools/wasnorm_wordpool_less_exclusions.txt	LTP249	ltpFR	16	2	1	POPCORN	1104	n/a	0	1	0.412841796875	0.57763671875	lower	../fonts/zerothre.ttf
240377	WORD	wordpools/wasnorm_wordpool_less_exclusions.txt	LTP249	ltpFR	16	2	1	CREEK	404	n/a	0	1	0.412841796875	0.57763671875	lower	../fonts/zerothre.ttf
244557	WORD	wordpools/wasnorm_wordpool_less_exclusions.txt	LTP249	ltpFR	16	2	1	OFFICE	972	n/a	0	1	0.412841796875	0.57763671875	lower	../fonts/zerothre.ttf
248572	WORD	wordpools/wasnorm_wordpool_less_exclusions.txt	LTP249	ltpFR	16	2	0	PERCH	1048	n/a	1	0	0.5869140625	0.422607421875	upper	../fonts/amplitud.ttf
252523	WORD	wordpools/wasnorm_wordpool_less_exclusions.txt	LTP249	ltpFR	16	2	0	ROBIN	1199	n/a	0	0	0.5869140625	0.422607421875	upper	../fonts/amplitud.ttf
256455	WORD	wordpools/wasnorm_wordpool_less_exclusions.txt	LTP249	ltpFR	16	2	0	SHARK	1275	n/a	1	0	0.5869140625	0.422607421875	upper	../fonts/amplitud.ttf
260601	WORD	wordpools/wasnorm_wordpool_less_exclusions.txt	LTP249	ltpFR	16	2	1	RAFT	1159	n/a	0	1	0.412841796875	0.57763671875	lower	../fonts/zerothre.ttf
264803	WORD	wordpools/wasnorm_wordpool_less_exclusions.txt	LTP249	ltpFR	16	2	1	COLLEGE	346	n/a	0	1	0.412841796875	0.57763671875	lower	../fonts/zerothre.ttf
268734	WORD	wordpools/wasnorm_wordpool_less_exclusions.txt	LTP249	ltpFR	16	2	1	ACTRESS	6	n/a	1	1	0.412841796875	0.57763671875	lower	../fonts/zerothre.ttf
272917	WORD	wordpools/wasnorm_wordpool_less_exclusions.txt	LTP249	ltpFR	16	2	1	WELL	1600	n/a	0	1	0.412841796875	0.57763671875	lower	../fonts/zerothre.ttf
277049	WORD	wordpools/wasnorm_wordpool_less_exclusions.txt	LTP249	ltpFR	16	2	1	LAGOON	795	n/a	0	1	0.412841796875	0.57763671875	lower	../fonts/zerothre.ttf
283157	REC_START	n/a	LTP249	ltpFR	16	2	n/a	n/a	n/a	n/a	n/a	n/a	n/a	n/a	n/a	n/a
283805	REC_WORD	wordpools/wasnorm_wordpool_less_exclusions.txt	LTP249	ltpFR	16	2	1	ACTRESS	6	n/a	1	n/a	n/a	n/a	n/a	n/a
285028	REC_WORD	wordpools/wasnorm_wordpool_less_exclusions.txt	LTP249	ltpFR	16	2	1	WELL	1600	n/a	0	n/a	n/a	n/a	n/a	n/a
286172	REC_WORD	wordpools/wasnorm_wordpool_less_exclusions.txt	LTP249	ltpFR	16	2	1	LAGOON	795	n/a	0	n/a	n/a	n/a	n/a	n/a
288364	REC_WORD	wordpools/wasnorm_wordpool_less_exclusions.txt	LTP249	ltpFR	16	2	1	OFFICE	972	n/a	0	n/a	n/a	n/a	n/a	n/a
289714	REC_WORD	wordpools/wasnorm_wordpool_less_exclusions.txt	LTP249	ltpFR	16	2	0	OFFICER	973	n/a	1	n/a	n/a	n/a	n/a	n/a
291421	REC_WORD	wordpools/wasnorm_wordpool_less_exclusions.txt	LTP249	ltpFR	16	2	0	CUFF	423	n/a	0	n/a	n/a	n/a	n/a	n/a
294487	REC_WORD	wordpools/wasnorm_wordpool_less_exclusions.txt	LTP249	ltpFR	16	2	0	PERCH	1048	n/a	1	n/a	n/a	n/a	n/a	n/a
296002	REC_WORD	wordpools/wasnorm_wordpool_less_exclusions.txt	LTP249	ltpFR	16	2	0	ROBIN	1199	n/a	0	n/a	n/a	n/a	n/a	n/a
297311	REC_WORD	wordpools/wasnorm_wordpool_less_exclusions.txt	LTP249	ltpFR	16	2	0	SHARK	1275	n/a	1	n/a	n/a	n/a	n/a	n/a
314406	REC_WORD	wordpools/wasnorm_wordpool_less_exclusions.txt	LTP249	ltpFR	16	2	1	LAGOON	795	n/a	0	n/a	n/a	n/a	n/a	n/a
318956	REC_WORD	wordpools/wasnorm_wordpool_less_exclusions.txt	LTP249	ltpFR	16	2	0	NICOTINE	951	n/a	0	n/a	n/a	n/a	n/a	n/a
381861	WORD	wordpools/wasnorm_wordpool_less_exclusions.txt	LTP249	ltpFR	16	3	0	CAPE	237	n/a	0	0	0.5869140625	0.422607421875	upper	../fonts/amplitud.ttf
386010	WORD	wordpools/wasnorm_wordpool_less_exclusions.txt	LTP249	ltpFR	16	3	0	SEAFOOD	1260	n/a	0	0	0.5869140625	0.422607421875	upper	../fonts/amplitud.ttf
390210	WORD	wordpools/wasnorm_wordpool_less_exclusions.txt	LTP249	ltpFR	16	3	0	TERRITORY	1452	n/a	1	0	0.5869140625	0.422607421875	upper	../fonts/amplitud.ttf
394421	WORD	wordpools/wasnorm_wordpool_less_exclusions.txt	LTP249	ltpFR	16	3	0	BLOUSE	139	n/a	0	0	0.5869140625	0.422607421875	upper	../fonts/amplitud.ttf
398554	WORD	wordpools/wasnorm_wordpool_less_exclusions.txt	LTP249	ltpFR	16	3	0	SWEATER	1419	n/a	0	0	0.5869140625	0.422607421875	upper	../fonts/amplitud.ttf
402388	WORD	wordpools/wasnorm_wordpool_less_exclusions.txt	LTP249	ltpFR	16	3	0	FLEET	578	n/a	1	0	0.5869140625	0.422607421875	upper	../fonts/amplitud.ttf
406237	WORD	wordpools/wasnorm_wordpool_less_exclusions.txt	LTP249	ltpFR	16	3	0	BOOTH	151	n/a	1	0	0.5869140625	0.422607421875	upper	../fonts/amplitud.ttf
410401	WORD	wordpools/wasnorm_wordpool_less_exclusions.txt	LTP249	ltpFR	16	3	0	CHAIR	274	n/a	1	0	0.5869140625	0.422607421875	upper	../fonts/amplitud.ttf
414400	WORD	wordpools/wasnorm_wordpool_less_exclusions.txt	LTP249	ltpFR	16	3	0	PEPPER	1047	n/a	0	0	0.5869140625	0.422607421875	upper	../fonts/amplitud.ttf
418232	WORD	wordpools/wasnorm_wordpool_less_exclusions.txt	LTP249	ltpFR	16	3	0	SHRUB	1299	n/a	1	0	0.5869140625	0.422607421875	upper	../fonts/amplitud.ttf
422147	WORD	wordpools/wasnorm_wordpool_less_exclusions.txt	LTP249	ltpFR	16	3	0	MILITARY	894	n/a	1	0	0.5869140625	0.422607421875	upper	../fonts/amplitud.ttf
426246	WORD	wordpools/wasnorm_wordpool_less_exclusions.txt	LTP249	ltpFR	16	3	0	TANGERINE	1431	n/a	0	0	0.5869140625	0.422607421875	upper	../fonts/amplitud.ttf
430457	WORD	wordpools/wasnorm_wordpool_less_exclusions.txt	LTP249	ltpFR	16	3	0	FRUIT	610	n/a	0	0	0.5869140625	0.422607421875	upper	../fonts/amplitud.ttf
434643	WORD	wordpools/wasnorm_wordpool_less_exclusions.txt	LTP249	ltpFR	16	3	0	SWORD	1423	n/a	1	0	0.5869140625	0.422607421875	upper	../fonts/amplitud.ttf
438842	WORD	wordpools/wasnorm_wordpool_less_exclusions.txt	LTP249	ltpFR	16	3	0	LUMBER	848	n/a	1	0	0.5869140625	0.422607421875	upper	../fonts/amplitud.ttf
442757	WORD	wordpools/wasnorm_wordpool_less_exclusions.txt	LTP249	ltpFR	16	3	0	SOFA	1342	n/a	1	0	0.5869140625	0.422607421875	upper	../fonts/amplitud.ttf
448747	REC_START	n/a	LTP249	ltpFR	16	3	n/a	n/a	n/a	n/a	n/a	n/a	n/a	n/a	n/a	n/a
449663	REC_WORD	wordpools/wasnorm_wordpool_less_exclusions.txt	LTP249	ltpFR	16	3	0	LUMBER	848	n/a	1	n/a	n/a	n/a	n/a	n/a
450979	REC_WORD	wordpools/wasnorm_wordpool_less_exclusions.txt	LTP249	ltpFR	16	3	0	SOFA	1342	n/a	1	n/a	n/a	n/a	n/a	n/a
452290	REC_WORD	wordpools/wasnorm_wordpool_less_exclusions.txt	LTP249	ltpFR	16	3	0	TANGERINE	1431	n/a	0	n/a	n/a	n/a	n/a	n/a
453722	REC_WORD	wordpools/wasnorm_wordpool_less_exclusions.txt	LTP249	ltpFR	16	3	0	FRUIT	610	n/a	0	n/a	n/a	n/a	n/a	n/a
455305	REC_WORD	wordpools/wasnorm_wordpool_less_exclusions.txt	LTP249	ltpFR	16	3	0	PEPPER	1047	n/a	0	n/a	n/a	n/a	n/a	n/a
457510	REC_WORD	wordpools/wasnorm_wordpool_less_exclusions.txt	LTP249	ltpFR	16	3	0	FLEET	578	n/a	1	n/a	n/a	n/a	n/a	n/a
458995	REC_WORD	wordpools/wasnorm_wordpool_less_exclusions.txt	LTP249	ltpFR	16	3	0	MILITARY	894	n/a	1	n/a	n/a	n/a	n/a	n/a
460652	REC_WORD	wordpools/wasnorm_wordpool_less_exclusions.txt	LTP249	ltpFR	16	3	0	TERRITORY	1452	n/a	1	n/a	n/a	n/a	n/a	n/a
462315	REC_WORD	wordpools/wasnorm_wordpool_less_exclusions.txt	LTP249	ltpFR	16	3	n/a	COUCH	386	n/a	n/a	n/a	n/a	n/a	n/a	n/a
464781	REC_WORD	wordpools/wasnorm_wordpool_less_exclusions.txt	LTP249	ltpFR	16	3	0	BLOUSE	139	n/a	0	n/a	n/a	n/a	n/a	n/a
466257	REC_WORD	wordpools/wasnorm_wordpool_less_exclusions.txt	LTP249	ltpFR	16	3	0	CAPE	237	n/a	0	n/a	n/a	n/a	n/a	n/a
468599	REC_WORD	wordpools/wasnorm_wordpool_less_exclusions.txt	LTP249	ltpFR	16	3	0	SWEATER	1419	n/a	0	n/a	n/a	n/a	n/a	n/a
543303	WORD	wordpools/wasnorm_wordpool_less_exclusions.txt	LTP249	ltpFR	16	4	1	RANCH	1166	n/a	0	1	0.412841796875	0.57763671875	lower	../fonts/zerothre.ttf
547431	WORD	wordpools/wasnorm_wordpool_less_exclusions.txt	LTP249	ltpFR	16	4	1	CHIPMUNK	304	n/a	1	1	0.412841796875	0.57763671875	lower	../fonts/zerothre.ttf
551300	WORD	wordpools/wasnorm_wordpool_less_exclusions.txt	LTP249	ltpFR	16	4	1	WHEEL	1603	n/a	0	1	0.412841796875	0.57763671875	lower	../fonts/zerothre.ttf
555262	WORD	wordpools/wasnorm_wordpool_less_exclusions.txt	LTP249	ltpFR	16	4	1	CARRIAGE	248	n/a	0	1	0.412841796875	0.57763671875	lower	../fonts/zerothre.ttf
559463	WORD	wordpools/wasnorm_wordpool_less_exclusions.txt	LTP249	ltpFR	16	4	1	RUNNER	1218	n/a	0	1	0.412841796875	0.57763671875	lower	../fonts/zerothre.ttf
563579	WORD	wordpools/wasnorm_wordpool_less_exclusions.txt	LTP249	ltpFR	16	4	1	TORTOISE	1486	n/a	1	1	0.412841796875	0.57763671875	lower	../fonts/zerothre.ttf
567691	WORD	wordpools/wasnorm_wordpool_less_exclusions.txt	LTP249	ltpFR	16	4	1	STATUE	1374	n/a	0	1	0.412841796875	0.57763671875	lower	../fonts/zerothre.ttf
571793	WORD	wordpools/wasnorm_wordpool_less_exclusions.txt	LTP249	ltpFR	16	4	1	TULIP	1517	n/a	1	1	0.412841796875	0.57763671875	lower	../fonts/zerothre.ttf
575875	WORD	wordpools/wasnorm_wordpool_less_exclusions.txt	LTP249	ltpFR	16	4	1	MEADOW	881	n/a	0	1	0.412841796875	0.57763671875	lower	../fonts/zerothre.ttf
579971	WORD	wordpools/wasnorm_wordpool_less_exclusions.txt	LTP249	ltpFR	16	4	1	SHRINE	1298	n/a	0	1	0.412841796875	0.57763671875	lower	../fonts/zerothre.ttf
584188	WORD	wordpools/wasnorm_wordpool_less_exclusions.txt	LTP249	ltpFR	16	4	1	DISHWASHER	475	n/a	0	1	0.412841796875	0.57763671875	lower	../fonts/zerothre.ttf
588306	WORD	wordpools/wasnorm_wordpool_less_exclusions.txt	LTP249	ltpFR	16	4	1	SHOWER	1296	n/a	0	1	0.412841796875	0.57763671875	lower	../fonts/zerothre.ttf
592188	WORD	wordpools/wasnorm_wordpool_less_exclusions.txt	LTP249	ltpFR	16	4	1	OX	994	n/a	1	1	0.412841796875	0.57763671875	lower	../fonts/zerothre.ttf
596353	WORD	wordpools/wasnorm_wordpool_less_exclusions.txt	LTP249	ltpFR	16	4	1	NOMAD	955	n/a	1	1	0.412841796875	0.57763671875	lower	../fonts/zerothre.ttf
600318	WORD	wordpools/wasnorm_wordpool_less_exclusions.txt	LTP249	ltpFR	16	4	1	HAT	690	n/a	0	1	0.412841796875	0.57763671875	lower	../fonts/zerothre.ttf
604430	WORD	wordpools/wasnorm_wordpool_less_exclusions.txt	LTP249	ltpFR	16	4	1	DILL	465	n/a	1	1	0.412841796875	0.57763671875	lower	../fonts/zerothre.ttf
610207	REC_START	n/a	LTP249	ltpFR	16	4	n/a	n/a	n/a	n/a	n/a	n/a	n/a	n/a	n/a	n/a
611926	REC_WORD	wordpools/wasnorm_wordpool_less_exclusions.txt	LTP249	ltpFR	16	4	1	HAT	690	n/a	0	n/a	n/a	n/a	n/a	n/a
613183	REC_WORD	wordpools/wasnorm_wordpool_less_exclusions.txt	LTP249	ltpFR	16	4	1	DILL	465	n/a	1	n/a	n/a	n/a	n/a	n/a
614626	REC_WORD	wordpools/wasnorm_wordpool_less_exclusions.txt	LTP249	ltpFR	16	4	1	OX	994	n/a	1	n/a	n/a	n/a	n/a	n/a
616214	REC_WORD	wordpools/wasnorm_wordpool_less_exclusions.txt	LTP249	ltpFR	16	4	1	DISHWASHER	475	n/a	0	n/a	n/a	n/a	n/a	n/a
617976	REC_WORD	wordpools/wasnorm_wordpool_less_exclusions.txt	LTP249	ltpFR	16	4	1	RUNNER	1218	n/a	0	n/a	n/a	n/a	n/a	n/a
619606	REC_WORD	wordpools/wasnorm_wordpool_less_exclusions.txt	LTP249	ltpFR	16	4	1	NOMAD	955	n/a	1	n/a	n/a	n/a	n/a	n/a
621585	REC_WORD	wordpools/wasnorm_wordpool_less_exclusions.txt	LTP249	ltpFR	16	4	1	RANCH	1166	n/a	0	n/a	n/a	n/a	n/a	n/a
623610	REC_WORD	wordpools/wasnorm_wordpool_less_exclusions.txt	LTP249	ltpFR	16	4	1	CARRIAGE	248	n/a	0	n/a	n/a	n/a	n/a	n/a
625322	REC_WORD	wordpools/wasnorm_wordpool_less_exclusions.txt	LTP249	ltpFR	16	4	1	WHEEL	1603	n/a	0	n/a	n/a	n/a	n/a	n/a
696747	WORD	wordpools/wasnorm_wordpool_less_exclusions.txt	LTP249	ltpFR	16	5	0	PECAN	1036	n/a	0	0	0.5869140625	0.422607421875	upper	../fonts/amplitud.ttf
700796	WORD	wordpools/wasnorm_wordpool_less_exclusions.txt	LTP249	ltpFR	16	5	0	DOG	480	n/a	1	0	0.5869140625	0.422607421875	upper	../fonts/amplitud.ttf
704794	WORD	wordpools/wasnorm_wordpool_less_exclusions.txt	LTP249	ltpFR	16	5	0	VACUUM	1543	n/a	1	0	0.5869140625	0.422607421875	upper	../fonts/amplitud.ttf
708776	WORD	wordpools/wasnorm_wordpool_less_exclusions.txt	LTP249	ltpFR	16	5	1	MICROPHONE	890	n/a	0	1	0.412841796875	0.57763671875	lower	../fonts/zerothre.ttf
712942	WORD	wordpools/wasnorm_wordpool_less_exclusions.txt	LTP249	ltpFR	16	5	1	NEWSSTAND	949	n/a	0	1	0.412841796875	0.57763671875	lower	../fonts/zerothre.ttf
716870	WORD	wordpools/wasnorm_wordpool_less_exclusions.txt	LTP249	ltpFR	16	5	1	RAG	1160	n/a	0	1	0.412841796875	0.57763671875	lower	../fonts/zerothre.ttf
720989	WORD	wordpools/wasnorm_wordpool_less_exclusions.txt	LTP249	ltpFR	16	5	0	WOLF	1619	n/a	1	0	0.5869140625	0.422607421875	upper	../fonts/amplitud.ttf
724987	WORD	wordpools/wasnorm_wordpool_less_exclusions.txt	LTP249	ltpFR	16	5	0	SLEIGH	1325	n/a	1	0	0.5869140625	0.422607421875	upper	../fonts/amplitud.ttf
729187	WORD	wordpools/wasnorm_wordpool_less_exclusions.txt	LTP249	ltpFR	16	5	1	ESCALATOR	539	n/a	0	1	0.412841796875	0.57763671875	lower	../fonts/zerothre.ttf
733236	WORD	wordpools/wasnorm_wordpool_less_exclusions.txt	LTP249	ltpFR	16	5	1	WALNUT	1584	n/a	1	1	0.412841796875	0.57763671875	lower	../fonts/zerothre.ttf
737397	WORD	wordpools/wasnorm_wordpool_less_exclusions.txt	LTP249	ltpFR	16	5	1	CASHEW	253	n/a	1	1	0.412841796875	0.57763671875	lower	../fonts/zerothre.ttf
741333	WORD	wordpools/wasnorm_wordpool_less_exclusions.txt	LTP249	ltpFR	16	5	1	DANCER	437	n/a	1	1	0.412841796875	0.57763671875	lower	../fonts/zerothre.ttf
745365	WORD	wordpools/wasnorm_wordpool_less_exclusions.txt	LTP249	ltpFR	16	5	1	UMPIRE	1535	n/a	1	1	0.412841796875	0.57763671875	lower	../fonts/zerothre.ttf
749446	WORD	wordpools/wasnorm_wordpool_less_exclusions.txt	LTP249	ltpFR	16	5	0	CANNON	232	n/a	1	0	0.5869140625	0.422607421875	upper	../fonts/amplitud.ttf
753428	WORD	wordpools/wasnorm_wordpool_less_exclusions.txt	LTP249	ltpFR	16	5	0	DRIVEWAY	500	n/a	1	0	0.5869140625	0.422607421875	upper	../fonts/amplitud.ttf
757310	WORD	wordpools/wasnorm_wordpool_less_exclusions.txt	LTP249	ltpFR	16	5	0	PASSENGER	1020	n/a	1	0	0.5869140625	0.422607421875	upper	../fonts/amplitud.ttf
763098	REC_START	n/a	LTP249	ltpFR	16	5	n/a	n/a	n/a	n/a	n/a	n/a	n/a	n/a	n/a	n/a
764323	REC_WORD	wordpools/wasnorm_wordpool_less_exclusions.txt	LTP249	ltpFR	16	5	0	CANNON	232	n/a	1	n/a	n/a	n/a	n/a	n/a
765621	REC_WORD	wordpools/wasnorm_wordpool_less_exclusions.txt	LTP249	ltpFR	16	5	0	PASSENGER	1020	n/a	1	n/a	n/a	n/a	n/a	n/a
767023	REC_WORD	wordpools/wasnorm_wordpool_less_exclusions.txt	LTP249	ltpFR	16	5	0	PECAN	1036	n/a	0	n/a	n/a	n/a	n/a	n/a
768585	REC_WORD	wordpools/wasnorm_wordpool_less_exclusions.txt	LTP249	ltpFR	16	5	1	WALNUT	1584	n/a	1	n/a	n/a	n/a	n/a	n/a
769900	REC_WORD	wordpools/wasnorm_wordpool_less_exclusions.txt	LTP249	ltpFR	16	5	1	CASHEW	253	n/a	1	n/a	n/a	n/a	n/a	n/a
771352	REC_WORD	wordpools/wasnorm_wordpool_less_exclusions.txt	LTP249	ltpFR	16	5	0	DOG	480	n/a	1	n/a	n/a	n/a	n/a	n/a
773134	REC_WORD	wordpools/wasnorm_wordpool_less_exclusions.txt	LTP249	ltpFR	16	5	0	WOLF	1619	n/a	1	n/a	n/a	n/a	n/a	n/a
774551	REC_WORD	wordpools/wasnorm_wordpool_less_exclusions.txt	LTP249	ltpFR	16	5	1	ESCALATOR	539	n/a	0	n/a	n/a	n/a	n/a	n/a
777179	REC_WORD	wordpools/wasnorm_wordpool_less_exclusions.txt	LTP249	ltpFR	16	5	1	DANCER	437	n/a	1	n/a	n/a	n/a	n/a	n/a
830314	REC_WORD	wordpools/wasnorm_wordpool_less_exclusions.txt	LTP249	ltpFR	16	5	1	MICROPHONE	890	n/a	0	n/a	n/a	n/a	n/a	n/a
854843	WORD	wordpools/wasnorm_wordpool_less_exclusions.txt	LTP249	ltpFR	16	6	-1	CREAM	402	n/a	-1	1	1.0	1.0	upper	../fonts/Verdana.ttf
858989	WORD	wordpools/wasnorm_wordpool_less_exclusions.txt	LTP249	ltpFR	16	6	-1	VENUS	1557	n/a	-1	1	1.0	1.0	upper	../fonts/Verdana.ttf
862870	WORD	wordpools/wasnorm_wordpool_less_exclusions.txt	LTP249	ltpFR	16	6	-1	PLANET	1082	n/a	-1	1	1.0	1.0	upper	../fonts/Verdana.ttf
866939	WORD	wordpools/wasnorm_wordpool_less_exclusions.txt	LTP249	ltpFR	16	6	-1	HOSE	720	n/a	-1	1	1.0	1.0	upper	../fonts/Verdana.ttf
870954	WORD	wordpools/wasnorm_wordpool_less_exclusions.txt	LTP249	ltpFR	16	6	-1	HEATER	698	n/a	-1	1	1.0	1.0	upper	../fonts/Verdana.ttf
874936	WORD	wordpools/wasnorm_wordpool_less_exclusions.txt	LTP249	ltpFR	16	6	-1	NECKLACE	940	n/a	-1	1	1.0	1.0	upper	../fonts/Verdana.ttf
879085	WORD	wordpools/wasnorm_wordpool_less_exclusions.txt	LTP249	ltpFR	16	6	-1	JUPITER	765	n/a	-1	1	1.0	1.0	upper	../fonts/Verdana.ttf
882932	WORD	wordpools/wasnorm_wordpool_less_exclusions.txt	LTP249	ltpFR	16	6	-1	POOL	1103	n/a	-1	1	1.0	1.0	upper	../fonts/Verdana.ttf
886914	WORD	wordpools/wasnorm_wordpool_less_exclusions.txt	LTP249	ltpFR	16	6	-1	BOUILLON	154	n/a	-1	1	1.0	1.0	upper	../fonts/Verdana.ttf
891026	WORD	wordpools/wasnorm_wordpool_less_exclusions.txt	LTP249	ltpFR	16	6	-1	TYPEWRITER	1531	n/a	-1	1	1.0	1.0	upper	../fonts/Verdana.ttf
895146	WORD	wordpools/wasnorm_wordpool_less_exclusions.txt	LTP249	ltpFR	16	6	-1	SEED	1266	n/a	-1	1	1.0	1.0	upper	../fonts/Verdana.ttf
899278	WORD	wordpools/wasnorm_wordpool_less_exclusions.txt	LTP249	ltpFR	16	6	-1	PEAR	1033	n/a	-1	1	1.0	1.0	upper	../fonts/Verdana.ttf
903105	WORD	wordpools/wasnorm_wordpool_less_exclusions.txt	LTP249	ltpFR	16	6	-1	COFFEE	341	n/a	-1	1	1.0	1.0	upper	../fonts/Verdana.ttf
906936	WORD	wordpools/wasnorm_wordpool_less_exclusions.txt	LTP249	ltpFR	16	6	-1	KETTLE	772	n/a	-1	1	1.0	1.0	upper	../fonts/Verdana.ttf
910935	WORD	wordpools/wasnorm_wordpool_less_exclusions.txt	LTP249	ltpFR	16	6	-1	JUGGLER	763	n/a	-1	1	1.0	1.0	upper	../fonts/Verdana.ttf
914850	WORD	wordpools/wasnorm_wordpool_less_exclusions.txt	LTP249	ltpFR	16	6	-1	CARNIVAL	245	n/a	-1	1	1.0	1.0	upper	../fonts/Verdana.ttf
920458	REC_START	n/a	LTP249	ltpFR	16	6	n/a	n/a	n/a	n/a	n/a	n/a	n/a	n/a	n/a	n/a
921150	REC_WORD	wordpools/wasnorm_wordpool_less_exclusions.txt	LTP249	ltpFR	16	6	-1	JUGGLER	763	n/a	-1	n/a	n/a	n/a	n/a	n/a
922203	REC_WORD	wordpools/wasnorm_wordpool_less_exclusions.txt	LTP249	ltpFR	16	6	-1	CARNIVAL	245	n/a	-1	n/a	n/a	n/a	n/a	n/a
923430	REC_WORD	wordpools/wasnorm_wordpool_less_exclusions.txt	LTP249	ltpFR	16	6	-1	SEED	1266	n/a	-1	n/a	n/a	n/a	n/a	n/a
924712	REC_WORD	wordpools/wasnorm_wordpool_less_exclusions.txt	LTP249	ltpFR	16	6	-1	PEAR	1033	n/a	-1	n/a	n/a	n/a	n/a	n/a
925895	REC_WORD	wordpools/wasnorm_wordpool_less_exclusions.txt	LTP249	ltpFR	16	6	-1	COFFEE	341	n/a	-1	n/a	n/a	n/a	n/a	n/a
927150	REC_WORD	wordpools/wasnorm_wordpool_less_exclusions.txt	LTP249	ltpFR	16	6	-1	KETTLE	772	n/a	-1	n/a	n/a	n/a	n/a	n/a
928502	REC_WORD	wordpools/wasnorm_wordpool_less_exclusions.txt	LTP249	ltpFR	16	6	-1	JUPITER	765	n/a	-1	n/a	n/a	n/a	n/a	n/a
929675	REC_WORD	wordpools/wasnorm_wordpool_less_exclusions.txt	LTP249	ltpFR	16	6	-1	VENUS	1557	n/a	-1	n/a	n/a	n/a	n/a	n/a
931117	REC_WORD	wordpools/wasnorm_wordpool_less_exclusions.txt	LTP249	ltpFR	16	6	-1	PLANET	1082	n/a	-1	n/a	n/a	n/a	n/a	n/a
933023	REC_WORD	wordpools/wasnorm_wordpool_less_exclusions.txt	LTP249	ltpFR	16	6	-1	NECKLACE	940	n/a	-1	n/a	n/a	n/a	n/a	n/a
935843	REC_WORD	wordpools/wasnorm_wordpool_less_exclusions.txt	LTP249	ltpFR	16	6	-1	BOUILLON	154	n/a	-1	n/a	n/a	n/a	n/a	n/a
954777	REC_WORD	wordpools/wasnorm_wordpool_less_exclusions.txt	LTP249	ltpFR	16	6	-1	HEATER	698	n/a	-1	n/a	n/a	n/a	n/a	n/a
1016202	WORD	wordpools/wasnorm_wordpool_less_exclusions.txt	LTP249	ltpFR	16	7	1	ANTENNA	28	n/a	0	1	0.412841796875	0.57763671875	lower	../fonts/zerothre.ttf
1020335	WORD	wordpools/wasnorm_wordpool_less_exclusions.txt	LTP249	ltpFR	16	7	1	HARP	689	n/a	0	1	0.412841796875	0.57763671875	lower	../fonts/zerothre.ttf
1024412	WORD	wordpools/wasnorm_wordpool_less_exclusions.txt	LTP249	ltpFR	16	7	1	SHEARS	1276	n/a	0	1	0.412841796875	0.57763671875	lower	../fonts/zerothre.ttf
1028248	WORD	wordpools/wasnorm_wordpool_less_exclusions.txt	LTP249	ltpFR	16	7	0	HEN	703	n/a	0	0	0.5869140625	0.422607421875	upper	../fonts/amplitud.ttf
1032446	WORD	wordpools/wasnorm_wordpool_less_exclusions.txt	LTP249	ltpFR	16	7	0	SHORTS	1293	n/a	0	0	0.5869140625	0.422607421875	upper	../fonts/amplitud.ttf
1036528	WORD	wordpools/wasnorm_wordpool_less_exclusions.txt	LTP249	ltpFR	16	7	0	RAISIN	1163	n/a	0	0	0.5869140625	0.422607421875	upper	../fonts/amplitud.ttf
1040376	WORD	wordpools/wasnorm_wordpool_less_exclusions.txt	LTP249	ltpFR	16	7	0	TUSK	1523	n/a	0	0	0.5869140625	0.422607421875	upper	../fonts/amplitud.ttf
1044292	WORD	wordpools/wasnorm_wordpool_less_exclusions.txt	LTP249	ltpFR	16	7	1	ELEPHANT	523	n/a	1	1	0.412841796875	0.57763671875	lower	../fonts/zerothre.ttf
1048139	WORD	wordpools/wasnorm_wordpool_less_exclusions.txt	LTP249	ltpFR	16	7	1	MECHANIC	884	n/a	1	1	0.412841796875	0.57763671875	lower	../fonts/zerothre.ttf
1051986	WORD	wordpools/wasnorm_wordpool_less_exclusions.txt	LTP249	ltpFR	16	7	1	FROG	608	n/a	1	1	0.412841796875	0.57763671875	lower	../fonts/zerothre.ttf
1056085	WORD	wordpools/wasnorm_wordpool_less_exclusions.txt	LTP249	ltpFR	16	7	1	CHAIRPERSON	275	n/a	1	1	0.412841796875	0.57763671875	lower	../fonts/zerothre.ttf
1059983	WORD	wordpools/wasnorm_wordpool_less_exclusions.txt	LTP249	ltpFR	16	7	1	CLIPPERS	324	n/a	0	1	0.412841796875	0.57763671875	lower	../fonts/zerothre.ttf
1063828	WORD	wordpools/wasnorm_wordpool_less_exclusions.txt	LTP249	ltpFR	16	7	0	GOWN	652	n/a	1	0	0.5869140625	0.422607421875	upper	../fonts/amplitud.ttf
1067679	WORD	wordpools/wasnorm_wordpool_less_exclusions.txt	LTP249	ltpFR	16	7	0	BARREL	91	n/a	1	0	0.5869140625	0.422607421875	upper	../fonts/amplitud.ttf
1071761	WORD	wordpools/wasnorm_wordpool_less_exclusions.txt	LTP249	ltpFR	16	7	0	COLESLAW	344	n/a	0	0	0.5869140625	0.422607421875	upper	../fonts/amplitud.ttf
1075943	WORD	wordpools/wasnorm_wordpool_less_exclusions.txt	LTP249	ltpFR	16	7	0	RICE	1190	n/a	0	0	0.5869140625	0.422607421875	upper	../fonts/amplitud.ttf
1081816	REC_START	n/a	LTP249	ltpFR	16	7	n/a	n/a	n/a	n/a	n/a	n/a	n/a	n/a	n/a	n/a
1082991	REC_WORD	wordpools/wasnorm_wordpool_less_exclusions.txt	LTP249	ltpFR	16	7	0	RICE	1190	n/a	0	n/a	n/a	n/a	n/a	n/a
1084338	REC_WORD	wordpools/wasnorm_wordpool_less_exclusions.txt	LTP249	ltpFR	16	7	0	GOWN	652	n/a	1	n/a	n/a	n/a	n/a	n/a
1085853	REC_WORD	wordpools/wasnorm_wordpool_less_exclusions.txt	LTP249	ltpFR	16	7	1	ANTENNA	28	n/a	0	n/a	n/a	n/a	n/a	n/a
1087526	REC_WORD	wordpools/wasnorm_wordpool_less_exclusions.txt	LTP249	ltpFR	16	7	0	HEN	703	n/a	0	n/a	n/a	n/a	n/a	n/a
1090484	REC_WORD_VV	wordpools/wasnorm_wordpool_less_exclusions.txt	LTP249	ltpFR	16	7	n/a	<>	-1	n/a	n/a	n/a	n/a	n/a	n/a	n/a
1093984	REC_WORD	wordpools/wasnorm_wordpool_less_exclusions.txt	LTP249	ltpFR	16	7	0	TUSK	1523	n/a	0	n/a	n/a	n/a	n/a	n/a
1095259	REC_WORD	wordpools/wasnorm_wordpool_less_exclusions.txt	LTP249	ltpFR	16	7	1	ELEPHANT	523	n/a	1	n/a	n/a	n/a	n/a	n/a
1097241	REC_WORD	wordpools/wasnorm_wordpool_less_exclusions.txt	LTP249	ltpFR	16	7	1	SHEARS	1276	n/a	0	n/a	n/a	n/a	n/a	n/a
1104692	REC_WORD	wordpools/wasnorm_wordpool_less_exclusions.txt	LTP249	ltpFR	16	7	1	CHAIRPERSON	275	n/a	1	n/a	n/a	n/a	n/a	n/a
1106067	REC_WORD	wordpools/wasnorm_wordpool_less_exclusions.txt	LTP249	ltpFR	16	7	n/a	ATTENDANT	-1	n/a	n/a	n/a	n/a	n/a	n/a	n/a
1109846	REC_WORD	wordpools/wasnorm_wordpool_less_exclusions.txt	LTP249	ltpFR	16	7	0	SHORTS	1293	n/a	0	n/a	n/a	n/a	n/a	n/a
1114218	REC_WORD	wordpools/wasnorm_wordpool_less_exclusions.txt	LTP249	ltpFR	16	7	0	RICE	1190	n/a	0	n/a	n/a	n/a	n/a	n/a
1141995	REC_WORD	wordpools/wasnorm_wordpool_less_exclusions.txt	LTP249	ltpFR	16	7	1	FROG	608	n/a	1	n/a	n/a	n/a	n/a	n/a
1178547	WORD	wordpools/wasnorm_wordpool_less_exclusions.txt	LTP249	ltpFR	16	8	0	SHERIFF	1284	n/a	1	0	0.5869140625	0.422607421875	upper	../fonts/amplitud.ttf
1182696	WORD	wordpools/wasnorm_wordpool_less_exclusions.txt	LTP249	ltpFR	16	8	0	AGENT	10	n/a	1	0	0.5869140625	0.422607421875	upper	../fonts/amplitud.ttf
1186694	WORD	wordpools/wasnorm_wordpool_less_exclusions.txt	LTP249	ltpFR	16	8	0	MINER	896	n/a	1	0	0.5869140625	0.422607421875	upper	../fonts/amplitud.ttf
1190826	WORD	wordpools/wasnorm_wordpool_less_exclusions.txt	LTP249	ltpFR	16	8	0	BANJO	82	n/a	1	0	0.5869140625	0.422607421875	upper	../fonts/amplitud.ttf
1195039	WORD	wordpools/wasnorm_wordpool_less_exclusions.txt	LTP249	ltpFR	16	8	0	SPICE	1350	n/a	0	0	0.5869140625	0.422607421875	upper	../fonts/amplitud.ttf
1199057	WORD	wordpools/wasnorm_wordpool_less_exclusions.txt	LTP249	ltpFR	16	8	0	SENATE	1267	n/a	1	0	0.5869140625	0.422607421875	upper	../fonts/amplitud.ttf
1203174	WORD	wordpools/wasnorm_wordpool_less_exclusions.txt	LTP249	ltpFR	16	8	0	OWL	992	n/a	0	0	0.5869140625	0.422607421875	upper	../fonts/amplitud.ttf
1207121	WORD	wordpools/wasnorm_wordpool_less_exclusions.txt	LTP249	ltpFR	16	8	0	COOKBOOK	373	n/a	0	0	0.5869140625	0.422607421875	upper	../fonts/amplitud.ttf
1211321	WORD	wordpools/wasnorm_wordpool_less_exclusions.txt	LTP249	ltpFR	16	8	0	SWAMP	1416	n/a	1	0	0.5869140625	0.422607421875	upper	../fonts/amplitud.ttf
1215199	WORD	wordpools/wasnorm_wordpool_less_exclusions.txt	LTP249	ltpFR	16	8	0	GRAVEL	659	n/a	0	0	0.5869140625	0.422607421875	upper	../fonts/amplitud.ttf
1219032	WORD	wordpools/wasnorm_wordpool_less_exclusions.txt	LTP249	ltpFR	16	8	0	LIGHTER	819	n/a	0	0	0.5869140625	0.422607421875	upper	../fonts/amplitud.ttf
1223166	WORD	wordpools/wasnorm_wordpool_less_exclusions.txt	LTP249	ltpFR	16	8	0	RIB	1188	n/a	0	0	0.5869140625	0.422607421875	upper	../fonts/amplitud.ttf
1227214	WORD	wordpools/wasnorm_wordpool_less_exclusions.txt	LTP249	ltpFR	16	8	0	ROOST	1208	n/a	1	0	0.5869140625	0.422607421875	upper	../fonts/amplitud.ttf
1231330	WORD	wordpools/wasnorm_wordpool_less_exclusions.txt	LTP249	ltpFR	16	8	0	VIOLA	1570	n/a	1	0	0.5869140625	0.422607421875	upper	../fonts/amplitud.ttf
1235194	WORD	wordpools/wasnorm_wordpool_less_exclusions.txt	LTP249	ltpFR	16	8	0	OATS	968	n/a	0	0	0.5869140625	0.422607421875	upper	../fonts/amplitud.ttf
1239143	WORD	wordpools/wasnorm_wordpool_less_exclusions.txt	LTP249	ltpFR	16	8	0	BARLEY	88	n/a	0	0	0.5869140625	0.422607421875	upper	../fonts/amplitud.ttf
1244864	REC_START	n/a	LTP249	ltpFR	16	8	n/a	n/a	n/a	n/a	n/a	n/a	n/a	n/a	n/a	n/a
1246102	REC_WORD	wordpools/wasnorm_wordpool_less_exclusions.txt	LTP249	ltpFR	16	8	0	OATS	968	n/a	0	n/a	n/a	n/a	n/a	n/a
1247314	REC_WORD	wordpools/wasnorm_wordpool_less_exclusions.txt	LTP249	ltpFR	16	8	0	BARLEY	88	n/a	0	n/a	n/a	n/a	n/a	n/a
1248877	REC_WORD	wordpools/wasnorm_wordpool_less_exclusions.txt	LTP249	ltpFR	16	8	0	OWL	992	n/a	0	n/a	n/a	n/a	n/a	n/a
1251790	REC_WORD	wordpools/wasnorm_wordpool_less_exclusions.txt	LTP249	ltpFR	16	8	0	SHERIFF	1284	n/a	1	n/a	n/a	n/a	n/a	n/a
1253059	REC_WORD	wordpools/wasnorm_wordpool_less_exclusions.txt	LTP249	ltpFR	16	8	0	AGENT	10	n/a	1	n/a	n/a	n/a	n/a	n/a
1254309	REC_WORD	wordpools/wasnorm_wordpool_less_exclusions.txt	LTP249	ltpFR	16	8	0	SENATE	1267	n/a	1	n/a	n/a	n/a	n/a	n/a
1270975	REC_WORD	wordpools/wasnorm_wordpool_less_exclusions.txt	LTP249	ltpFR	16	8	0	ROOST	1208	n/a	1	n/a	n/a	n/a	n/a	n/a
1274366	REC_WORD	wordpools/wasnorm_wordpool_less_exclusions.txt	LTP249	ltpFR	16	8	0	SPICE	1350	n/a	0	n/a	n/a	n/a	n/a	n/a
1313873	REC_WORD	wordpools/wasnorm_wordpool_less_exclusions.txt	LTP249	ltpFR	16	8	0	BANJO	82	n/a	1	n/a	n/a	n/a	n/a	n/a
1314393	REC_WORD	wordpools/wasnorm_wordpool_less_exclusions.txt	LTP249	ltpFR	16	8	0	VIOLA	1570	n/a	1	n/a	n/a	n/a	n/a	n/a
1335455	WORD	wordpools/wasnorm_wordpool_less_exclusions.txt	LTP249	ltpFR	16	9	1	BRACES	164	n/a	0	1	0.412841796875	0.57763671875	lower	../fonts/zerothre.ttf
1339620	WORD	wordpools/wasnorm_wordpool_less_exclusions.txt	LTP249	ltpFR	16	9	1	RELATIVE	1182	n/a	1	1	0.412841796875	0.57763671875	lower	../fonts/zerothre.ttf
1343669	WORD	wordpools/wasnorm_wordpool_less_exclusions.txt	LTP249	ltpFR	16	9	0	BIOLOGIST	128	n/a	1	0	0.5869140625	0.422607421875	upper	../fonts/amplitud.ttf
1347751	WORD	wordpools/wasnorm_wordpool_less_exclusions.txt	LTP249	ltpFR	16	9	0	CLASS	318	n/a	1	0	0.5869140625	0.422607421875	upper	../fonts/amplitud.ttf
1351749	WORD	wordpools/wasnorm_wordpool_less_exclusions.txt	LTP249	ltpFR	16	9	0	ATTORNEY	58	n/a	1	0	0.5869140625	0.422607421875	upper	../fonts/amplitud.ttf
1355611	WORD	wordpools/wasnorm_wordpool_less_exclusions.txt	LTP249	ltpFR	16	9	0	GENERAL	630	n/a	1	0	0.5869140625	0.422607421875	upper	../fonts/amplitud.ttf
1359659	WORD	wordpools/wasnorm_wordpool_less_exclusions.txt	LTP249	ltpFR	16	9	1	PLATE	1086	n/a	0	1	0.412841796875	0.57763671875	lower	../fonts/zerothre.ttf
1363728	WORD	wordpools/wasnorm_wordpool_less_exclusions.txt	LTP249	ltpFR	16	9	1	LILY	821	n/a	1	1	0.412841796875	0.57763671875	lower	../fonts/zerothre.ttf
1367576	WORD	wordpools/wasnorm_wordpool_less_exclusions.txt	LTP249	ltpFR	16	9	1	LOCK	838	n/a	0	1	0.412841796875	0.57763671875	lower	../fonts/zerothre.ttf
1371607	WORD	wordpools/wasnorm_wordpool_less_exclusions.txt	LTP249	ltpFR	16	9	1	HINGE	709	n/a	0	1	0.412841796875	0.57763671875	lower	../fonts/zerothre.ttf
1375757	WORD	wordpools/wasnorm_wordpool_less_exclusions.txt	LTP249	ltpFR	16	9	0	EMERALD	528	n/a	0	0	0.5869140625	0.422607421875	upper	../fonts/amplitud.ttf
1379838	WORD	wordpools/wasnorm_wordpool_less_exclusions.txt	LTP249	ltpFR	16	9	0	CAULIFLOWER	262	n/a	0	0	0.5869140625	0.422607421875	upper	../fonts/amplitud.ttf
1383717	WORD	wordpools/wasnorm_wordpool_less_exclusions.txt	LTP249	ltpFR	16	9	0	PEDAL	1037	n/a	0	0	0.5869140625	0.422607421875	upper	../fonts/amplitud.ttf
1387768	WORD	wordpools/wasnorm_wordpool_less_exclusions.txt	LTP249	ltpFR	16	9	0	COLONEL	348	n/a	1	0	0.5869140625	0.422607421875	upper	../fonts/amplitud.ttf
1391764	WORD	wordpools/wasnorm_wordpool_less_exclusions.txt	LTP249	ltpFR	16	9	1	GROCERIES	663	n/a	0	1	0.412841796875	0.57763671875	lower	../fonts/zerothre.ttf
1395598	WORD	wordpools/wasnorm_wordpool_less_exclusions.txt	LTP249	ltpFR	16	9	1	HUMAN	726	n/a	1	1	0.412841796875	0.57763671875	lower	../fonts/zerothre.ttf
1401238	REC_START	n/a	LTP249	ltpFR	16	9	n/a	n/a	n/a	n/a	n/a	n/a	n/a	n/a	n/a	n/a
1401863	REC_WORD	wordpools/wasnorm_wordpool_less_exclusions.txt	LTP249	ltpFR	16	9	0	ATTORNEY	58	n/a	1	n/a	n/a	n/a	n/a	n/a
1403220	REC_WORD	wordpools/wasnorm_wordpool_less_exclusions.txt	LTP249	ltpFR	16	9	0	GENERAL	630	n/a	1	n/a	n/a	n/a	n/a	n/a
1404449	REC_WORD	wordpools/wasnorm_wordpool_less_exclusions.txt	LTP249	ltpFR	16	9	0	COLONEL	348	n/a	1	n/a	n/a	n/a	n/a	n/a
1406448	REC_WORD	wordpools/wasnorm_wordpool_less_exclusions.txt	LTP249	ltpFR	16	9	1	HUMAN	726	n/a	1	n/a	n/a	n/a	n/a	n/a
1407840	REC_WORD	wordpools/wasnorm_wordpool_less_exclusions.txt	LTP249	ltpFR	16	9	1	LILY	821	n/a	1	n/a	n/a	n/a	n/a	n/a
1408954	REC_WORD	wordpools/wasnorm_wordpool_less_exclusions.txt	LTP249	ltpFR	16	9	1	LOCK	838	n/a	0	n/a	n/a	n/a	n/a	n/a
1410222	REC_WORD	wordpools/wasnorm_wordpool_less_exclusions.txt	LTP249	ltpFR	16	9	1	HINGE	709	n/a	0	n/a	n/a	n/a	n/a	n/a
1411588	REC_WORD	wordpools/wasnorm_wordpool_less_exclusions.txt	LTP249	ltpFR	16	9	1	PLATE	1086	n/a	0	n/a	n/a	n/a	n/a	n/a
1412805	REC_WORD	wordpools/wasnorm_wordpool_less_exclusions.txt	LTP249	ltpFR	16	9	0	BIOLOGIST	128	n/a	1	n/a	n/a	n/a	n/a	n/a
1413970	REC_WORD	wordpools/wasnorm_wordpool_less_exclusions.txt	LTP249	ltpFR	16	9	0	CLASS	318	n/a	1	n/a	n/a	n/a	n/a	n/a
1450921	REC_WORD	wordpools/wasnorm_wordpool_less_exclusions.txt	LTP249	ltpFR	16	9	0	EMERALD	528	n/a	0	n/a	n/a	n/a	n/a	n/a
1459050	REC_WORD	wordpools/wasnorm_wordpool_less_exclusions.txt	LTP249	ltpFR	16	9	1	GROCERIES	663	n/a	0	n/a	n/a	n/a	n/a	n/a
1502234	WORD	wordpools/wasnorm_wordpool_less_exclusions.txt	LTP249	ltpFR	16	10	1	WORKER	1621	n/a	1	1	0.412841796875	0.57763671875	lower	../fonts/zerothre.ttf
1506333	WORD	wordpools/wasnorm_wordpool_less_exclusions.txt	LTP249	ltpFR	16	10	1	BUSH	202	n/a	1	1	0.412841796875	0.57763671875	lower	../fonts/zerothre.ttf
1510181	WORD	wordpools/wasnorm_wordpool_less_exclusions.txt	LTP249	ltpFR	16	10	1	COMMUNITY	356	n/a	1	1	0.412841796875	0.57763671875	lower	../fonts/zerothre.ttf
1514229	WORD	wordpools/wasnorm_wordpool_less_exclusions.txt	LTP249	ltpFR	16	10	1	STRANGER	1389	n/a	1	1	0.412841796875	0.57763671875	lower	../fonts/zerothre.ttf
1518191	WORD	wordpools/wasnorm_wordpool_less_exclusions.txt	LTP249	ltpFR	16	10	1	GUEST	669	n/a	1	1	0.412841796875	0.57763671875	lower	../fonts/zerothre.ttf
1522243	WORD	wordpools/wasnorm_wordpool_less_exclusions.txt	LTP249	ltpFR	16	10	1	CANDIDATE	228	n/a	1	1	0.412841796875	0.57763671875	lower	../fonts/zerothre.ttf
1526458	WORD	wordpools/wasnorm_wordpool_less_exclusions.txt	LTP249	ltpFR	16	10	1	DINNER	468	n/a	0	1	0.412841796875	0.57763671875	lower	../fonts/zerothre.ttf
1530573	WORD	wordpools/wasnorm_wordpool_less_exclusions.txt	LTP249	ltpFR	16	10	1	CHARCOAL	281	n/a	0	1	0.412841796875	0.57763671875	lower	../fonts/zerothre.ttf
1534572	WORD	wordpools/wasnorm_wordpool_less_exclusions.txt	LTP249	ltpFR	16	10	1	CARPENTER	246	n/a	1	1	0.412841796875	0.57763671875	lower	../fonts/zerothre.ttf
1538737	WORD	wordpools/wasnorm_wordpool_less_exclusions.txt	LTP249	ltpFR	16	10	1	HAMMER	680	n/a	0	1	0.412841796875	0.57763671875	lower	../fonts/zerothre.ttf
1542585	WORD	wordpools/wasnorm_wordpool_less_exclusions.txt	LTP249	ltpFR	16	10	1	VILLAGE	1566	n/a	1	1	0.412841796875	0.57763671875	lower	../fonts/zerothre.ttf
1546480	WORD	wordpools/wasnorm_wordpool_less_exclusions.txt	LTP249	ltpFR	16	10	1	PERSONNEL	1053	n/a	1	1	0.412841796875	0.57763671875	lower	../fonts/zerothre.ttf
1550682	WORD	wordpools/wasnorm_wordpool_less_exclusions.txt	LTP249	ltpFR	16	10	1	STAIRS	1367	n/a	0	1	0.412841796875	0.57763671875	lower	../fonts/zerothre.ttf
1554728	WORD	wordpools/wasnorm_wordpool_less_exclusions.txt	LTP249	ltpFR	16	10	1	ROCKET	1202	n/a	0	1	0.412841796875	0.57763671875	lower	../fonts/zerothre.ttf
1558679	WORD	wordpools/wasnorm_wordpool_less_exclusions.txt	LTP249	ltpFR	16	10	1	CAFETERIA	217	n/a	0	1	0.412841796875	0.57763671875	lower	../fonts/zerothre.ttf
1562808	WORD	wordpools/wasnorm_wordpool_less_exclusions.txt	LTP249	ltpFR	16	10	1	CRAB	397	n/a	1	1	0.412841796875	0.57763671875	lower	../fonts/zerothre.ttf
1568651	REC_START	n/a	LTP249	ltpFR	16	10	n/a	n/a	n/a	n/a	n/a	n/a	n/a	n/a	n/a	n/a
1569380	REC_WORD	wordpools/wasnorm_wordpool_less_exclusions.txt	LTP249	ltpFR	16	10	1	CAFETERIA	217	n/a	0	n/a	n/a	n/a	n/a	n/a
1570982	REC_WORD	wordpools/wasnorm_wordpool_less_exclusions.txt	LTP249	ltpFR	16	10	1	DINNER	468	n/a	0	n/a	n/a	n/a	n/a	n/a
1572185	REC_WORD	wordpools/wasnorm_wordpool_less_exclusions.txt	LTP249	ltpFR	16	10	1	CRAB	397	n/a	1	n/a	n/a	n/a	n/a	n/a
1573388	REC_WORD	wordpools/wasnorm_wordpool_less_exclusions.txt	LTP249	ltpFR	16	10	n/a	STAIRCASE	-1	n/a	n/a	n/a	n/a	n/a	n/a	n/a
1574567	REC_WORD	wordpools/wasnorm_wordpool_less_exclusions.txt	LTP249	ltpFR	16	10	1	HAMMER	680	n/a	0	n/a	n/a	n/a	n/a	n/a
1575798	REC_WORD	wordpools/wasnorm_wordpool_less_exclusions.txt	LTP249	ltpFR	16	10	1	COMMUNITY	356	n/a	1	n/a	n/a	n/a	n/a	n/a
1577219	REC_WORD	wordpools/wasnorm_wordpool_less_exclusions.txt	LTP249	ltpFR	16	10	1	VILLAGE	1566	n/a	1	n/a	n/a	n/a	n/a	n/a
1583564	REC_WORD	wordpools/wasnorm_wordpool_less_exclusions.txt	LTP249	ltpFR	16	10	1	BUSH	202	n/a	1	n/a	n/a	n/a	n/a	n/a
1586719	REC_WORD	wordpools/wasnorm_wordpool_less_exclusions.txt	LTP249	ltpFR	16	10	1	GUEST	669	n/a	1	n/a	n/a	n/a	n/a	n/a
1659492	WORD	wordpools/wasnorm_wordpool_less_exclusions.txt	LTP249	ltpFR	16	11	1	DOUGH	489	n/a	0	1	0.412841796875	0.57763671875	lower	../fonts/zerothre.ttf
1663658	WORD	wordpools/wasnorm_wordpool_less_exclusions.txt	LTP249	ltpFR	16	11	1	UNICORN	1538	n/a	1	1	0.412841796875	0.57763671875	lower	../fonts/zerothre.ttf
1667606	WORD	wordpools/wasnorm_wordpool_less_exclusions.txt	LTP249	ltpFR	16	11	1	PONY	1102	n/a	1	1	0.412841796875	0.57763671875	lower	../fonts/zerothre.ttf
1671471	WORD	wordpools/wasnorm_wordpool_less_exclusions.txt	LTP249	ltpFR	16	11	1	WEED	1599	n/a	1	1	0.412841796875	0.57763671875	lower	../fonts/zerothre.ttf
1675637	WORD	wordpools/wasnorm_wordpool_less_exclusions.txt	LTP249	ltpFR	16	11	1	BERRY	122	n/a	1	1	0.412841796875	0.57763671875	lower	../fonts/zerothre.ttf
1679484	WORD	wordpools/wasnorm_wordpool_less_exclusions.txt	LTP249	ltpFR	16	11	1	PAIL	1002	n/a	0	1	0.412841796875	0.57763671875	lower	../fonts/zerothre.ttf
1683513	WORD	wordpools/wasnorm_wordpool_less_exclusions.txt	LTP249	ltpFR	16	11	1	NOVEL	960	n/a	0	1	0.412841796875	0.57763671875	lower	../fonts/zerothre.ttf
1687498	WORD	wordpools/wasnorm_wordpool_less_exclusions.txt	LTP249	ltpFR	16	11	1	ESSAY	540	n/a	0	1	0.412841796875	0.57763671875	lower	../fonts/zerothre.ttf
1691664	WORD	wordpools/wasnorm_wordpool_less_exclusions.txt	LTP249	ltpFR	16	11	1	RASPBERRY	1168	n/a	1	1	0.412841796875	0.57763671875	lower	../fonts/zerothre.ttf
1695592	WORD	wordpools/wasnorm_wordpool_less_exclusions.txt	LTP249	ltpFR	16	11	1	BROCCOLI	176	n/a	1	1	0.412841796875	0.57763671875	lower	../fonts/zerothre.ttf
1699711	WORD	wordpools/wasnorm_wordpool_less_exclusions.txt	LTP249	ltpFR	16	11	1	BLUEJAY	141	n/a	1	1	0.412841796875	0.57763671875	lower	../fonts/zerothre.ttf
1703676	WORD	wordpools/wasnorm_wordpool_less_exclusions.txt	LTP249	ltpFR	16	11	1	THIGH	1457	n/a	1	1	0.412841796875	0.57763671875	lower	../fonts/zerothre.ttf
1707791	WORD	wordpools/wasnorm_wordpool_less_exclusions.txt	LTP249	ltpFR	16	11	1	REEF	1177	n/a	1	1	0.412841796875	0.57763671875	lower	../fonts/zerothre.ttf
1711990	WORD	wordpools/wasnorm_wordpool_less_exclusions.txt	LTP249	ltpFR	16	11	1	PAGE	1001	n/a	0	1	0.412841796875	0.57763671875	lower	../fonts/zerothre.ttf
1716154	WORD	wordpools/wasnorm_wordpool_less_exclusions.txt	LTP249	ltpFR	16	11	1	FARM	552	n/a	0	1	0.412841796875	0.57763671875	lower	../fonts/zerothre.ttf
1720139	WORD	wordpools/wasnorm_wordpool_less_exclusions.txt	LTP249	ltpFR	16	11	1	BEAVER	109	n/a	1	1	0.412841796875	0.57763671875	lower	../fonts/zerothre.ttf
1725793	REC_START	n/a	LTP249	ltpFR	16	11	n/a	n/a	n/a	n/a	n/a	n/a	n/a	n/a	n/a	n/a
1726492	REC_WORD	wordpools/wasnorm_wordpool_less_exclusions.txt	LTP249	ltpFR	16	11	1	BEAVER	109	n/a	1	n/a	n/a	n/a	n/a	n/a
1727460	REC_WORD	wordpools/wasnorm_wordpool_less_exclusions.txt	LTP249	ltpFR	16	11	1	PAGE	1001	n/a	0	n/a	n/a	n/a	n/a	n/a
1728588	REC_WORD	wordpools/wasnorm_wordpool_less_exclusions.txt	LTP249	ltpFR	16	11	1	ESSAY	540	n/a	0	n/a	n/a	n/a	n/a	n/a
1730173	REC_WORD	wordpools/wasnorm_wordpool_less_exclusions.txt	LTP249	ltpFR	16	11	1	NOVEL	960	n/a	0	n/a	n/a	n/a	n/a	n/a
1731299	REC_WORD	wordpools/wasnorm_wordpool_less_exclusions.txt	LTP249	ltpFR	16	11	1	FARM	552	n/a	0	n/a	n/a	n/a	n/a	n/a
1736245	REC_WORD	wordpools/wasnorm_wordpool_less_exclusions.txt	LTP249	ltpFR	16	11	1	THIGH	1457	n/a	1	n/a	n/a	n/a	n/a	n/a
1747517	REC_WORD	wordpools/wasnorm_wordpool_less_exclusions.txt	LTP249	ltpFR	16	11	1	BERRY	122	n/a	1	n/a	n/a	n/a	n/a	n/a
1748658	REC_WORD	wordpools/wasnorm_wordpool_less_exclusions.txt	LTP249	ltpFR	16	11	1	RASPBERRY	1168	n/a	1	n/a	n/a	n/a	n/a	n/a
1816234	WORD	wordpools/wasnorm_wordpool_less_exclusions.txt	LTP249	ltpFR	16	12	-1	SLOPE	1328	n/a	-1	1	1.0	1.0	upper	../fonts/Verdana.ttf
1820350	WORD	wordpools/wasnorm_wordpool_less_exclusions.txt	LTP249	ltpFR	16	12	-1	GORILLA	650	n/a	-1	1	1.0	1.0	upper	../fonts/Verdana.ttf
1824315	WORD	wordpools/wasnorm_wordpool_less_exclusions.txt	LTP249	ltpFR	16	12	-1	BUTTON	207	n/a	-1	1	1.0	1.0	upper	../fonts/Verdana.ttf
1828412	WORD	wordpools/wasnorm_wordpool_less_exclusions.txt	LTP249	ltpFR	16	12	-1	PIE	1062	n/a	-1	1	1.0	1.0	upper	../fonts/Verdana.ttf
1832278	WORD	wordpools/wasnorm_wordpool_less_exclusions.txt	LTP249	ltpFR	16	12	-1	DOUGHNUT	490	n/a	-1	1	1.0	1.0	upper	../fonts/Verdana.ttf
1836139	WORD	wordpools/wasnorm_wordpool_less_exclusions.txt	LTP249	ltpFR	16	12	-1	UNDERWEAR	1537	n/a	-1	1	1.0	1.0	upper	../fonts/Verdana.ttf
1840040	WORD	wordpools/wasnorm_wordpool_less_exclusions.txt	LTP249	ltpFR	16	12	-1	CUPBOARD	425	n/a	-1	1	1.0	1.0	upper	../fonts/Verdana.ttf
1844071	WORD	wordpools/wasnorm_wordpool_less_exclusions.txt	LTP249	ltpFR	16	12	-1	CONTAINER	366	n/a	-1	1	1.0	1.0	upper	../fonts/Verdana.ttf
1848221	WORD	wordpools/wasnorm_wordpool_less_exclusions.txt	LTP249	ltpFR	16	12	-1	WILDERNESS	1610	n/a	-1	1	1.0	1.0	upper	../fonts/Verdana.ttf
1852102	WORD	wordpools/wasnorm_wordpool_less_exclusions.txt	LTP249	ltpFR	16	12	-1	LUNCH	849	n/a	-1	1	1.0	1.0	upper	../fonts/Verdana.ttf
1856080	WORD	wordpools/wasnorm_wordpool_less_exclusions.txt	LTP249	ltpFR	16	12	-1	APARTMENT	30	n/a	-1	1	1.0	1.0	upper	../fonts/Verdana.ttf
1860283	WORD	wordpools/wasnorm_wordpool_less_exclusions.txt	LTP249	ltpFR	16	12	-1	SPHINX	1349	n/a	-1	1	1.0	1.0	upper	../fonts/Verdana.ttf
1864365	WORD	wordpools/wasnorm_wordpool_less_exclusions.txt	LTP249	ltpFR	16	12	-1	CLIMBER	323	n/a	-1	1	1.0	1.0	upper	../fonts/Verdana.ttf
1868280	WORD	wordpools/wasnorm_wordpool_less_exclusions.txt	LTP249	ltpFR	16	12	-1	BATH	98	n/a	-1	1	1.0	1.0	upper	../fonts/Verdana.ttf
1872110	WORD	wordpools/wasnorm_wordpool_less_exclusions.txt	LTP249	ltpFR	16	12	-1	BATHTUB	100	n/a	-1	1	1.0	1.0	upper	../fonts/Verdana.ttf
1876260	WORD	wordpools/wasnorm_wordpool_less_exclusions.txt	LTP249	ltpFR	16	12	-1	SUBURB	1399	n/a	-1	1	1.0	1.0	upper	../fonts/Verdana.ttf
1882201	REC_START	n/a	LTP249	ltpFR	16	12	n/a	n/a	n/a	n/a	n/a	n/a	n/a	n/a	n/a	n/a
1883101	REC_WORD	wordpools/wasnorm_wordpool_less_exclusions.txt	LTP249	ltpFR	16	12	-1	BATH	98	n/a	-1	n/a	n/a	n/a	n/a	n/a
1883984	REC_WORD	wordpools/wasnorm_wordpool_less_exclusions.txt	LTP249	ltpFR	16	12	-1	BATHTUB	100	n/a	-1	n/a	n/a	n/a	n/a	n/a
1884928	REC_WORD	wordpools/wasnorm_wordpool_less_exclusions.txt	LTP249	ltpFR	16	12	-1	SUBURB	1399	n/a	-1	n/a	n/a	n/a	n/a	n/a
1886264	REC_WORD	wordpools/wasnorm_wordpool_less_exclusions.txt	LTP249	ltpFR	16	12	-1	CLIMBER	323	n/a	-1	n/a	n/a	n/a	n/a	n/a
1887283	REC_WORD	wordpools/wasnorm_wordpool_less_exclusions.txt	LTP249	ltpFR	16	12	-1	GORILLA	650	n/a	-1	n/a	n/a	n/a	n/a	n/a
1890961	REC_WORD	wordpools/wasnorm_wordpool_less_exclusions.txt	LTP249	ltpFR	16	12	-1	SLOPE	1328	n/a	-1	n/a	n/a	n/a	n/a	n/a
1957850	REST_REWET	n/a	LTP249	ltpFR	16	12	n/a	n/a	n/a	n/a	n/a	n/a	n/a	n/a	n/a	n/a
2217629	WORD	wordpools/wasnorm_wordpool_less_exclusions.txt	LTP249	ltpFR	16	13	-1	BASKET	95	n/a	-1	1	1.0	1.0	upper	../fonts/Verdana.ttf
2221778	WORD	wordpools/wasnorm_wordpool_less_exclusions.txt	LTP249	ltpFR	16	13	-1	ALMANAC	17	n/a	-1	1	1.0	1.0	upper	../fonts/Verdana.ttf
2225977	WORD	wordpools/wasnorm_wordpool_less_exclusions.txt	LTP249	ltpFR	16	13	-1	SICKLE	1302	n/a	-1	1	1.0	1.0	upper	../fonts/Verdana.ttf
2229842	WORD	wordpools/wasnorm_wordpool_less_exclusions.txt	LTP249	ltpFR	16	13	-1	TEA	1439	n/a	-1	1	1.0	1.0	upper	../fonts/Verdana.ttf
2233706	WORD	wordpools/wasnorm_wordpool_less_exclusions.txt	LTP249	ltpFR	16	13	-1	GLASS	639	n/a	-1	1	1.0	1.0	upper	../fonts/Verdana.ttf
2237906	WORD	wordpools/wasnorm_wordpool_less_exclusions.txt	LTP249	ltpFR	16	13	-1	OMELET	976	n/a	-1	1	1.0	1.0	upper	../fonts/Verdana.ttf
2241988	WORD	wordpools/wasnorm_wordpool_less_exclusions.txt	LTP249	ltpFR	16	13	-1	FAMILY	550	n/a	-1	1	1.0	1.0	upper	../fonts/Verdana.ttf
2246033	WORD	wordpools/wasnorm_wordpool_less_exclusions.txt	LTP249	ltpFR	16	13	-1	GRASS	655	n/a	-1	1	1.0	1.0	upper	../fonts/Verdana.ttf
2249951	WORD	wordpools/wasnorm_wordpool_less_exclusions.txt	LTP249	ltpFR	16	13	-1	WATERFALL	1595	n/a	-1	1	1.0	1.0	upper	../fonts/Verdana.ttf
2253849	WORD	wordpools/wasnorm_wordpool_less_exclusions.txt	LTP249	ltpFR	16	13	-1	PICKLE	1059	n/a	-1	1	1.0	1.0	upper	../fonts/Verdana.ttf
2257931	WORD	wordpools/wasnorm_wordpool_less_exclusions.txt	LTP249	ltpFR	16	13	-1	RELISH	1183	n/a	-1	1	1.0	1.0	upper	../fonts/Verdana.ttf
2261879	WORD	wordpools/wasnorm_wordpool_less_exclusions.txt	LTP249	ltpFR	16	13	-1	ENCYCLOPEDIA	533	n/a	-1	1	1.0	1.0	upper	../fonts/Verdana.ttf
2265828	WORD	wordpools/wasnorm_wordpool_less_exclusions.txt	LTP249	ltpFR	16	13	-1	FACTORY	548	n/a	-1	1	1.0	1.0	upper	../fonts/Verdana.ttf
2269893	WORD	wordpools/wasnorm_wordpool_less_exclusions.txt	LTP249	ltpFR	16	13	-1	COUCH	386	n/a	-1	1	1.0	1.0	upper	../fonts/Verdana.ttf
2274008	WORD	wordpools/wasnorm_wordpool_less_exclusions.txt	LTP249	ltpFR	16	13	-1	PEACH	1031	n/a	-1	1	1.0	1.0	upper	../fonts/Verdana.ttf
2278225	WORD	wordpools/wasnorm_wordpool_less_exclusions.txt	LTP249	ltpFR	16	13	-1	STRAWBERRY	1391	n/a	-1	1	1.0	1.0	upper	../fonts/Verdana.ttf
2283863	REC_START	n/a	LTP249	ltpFR	16	13	n/a	n/a	n/a	n/a	n/a	n/a	n/a	n/a	n/a	n/a
2284473	REC_WORD	wordpools/wasnorm_wordpool_less_exclusions.txt	LTP249	ltpFR	16	13	-1	STRAWBERRY	1391	n/a	-1	n/a	n/a	n/a	n/a	n/a
2285757	REC_WORD	wordpools/wasnorm_wordpool_less_exclusions.txt	LTP249	ltpFR	16	13	-1	PEACH	1031	n/a	-1	n/a	n/a	n/a	n/a	n/a
2286977	REC_WORD	wordpools/wasnorm_wordpool_less_exclusions.txt	LTP249	ltpFR	16	13	-1	PICKLE	1059	n/a	-1	n/a	n/a	n/a	n/a	n/a
2288162	REC_WORD	wordpools/wasnorm_wordpool_less_exclusions.txt	LTP249	ltpFR	16	13	-1	RELISH	1183	n/a	-1	n/a	n/a	n/a	n/a	n/a
2289546	REC_WORD	wordpools/wasnorm_wordpool_less_exclusions.txt	LTP249	ltpFR	16	13	-1	WATERFALL	1595	n/a	-1	n/a	n/a	n/a	n/a	n/a
2290857	REC_WORD	wordpools/wasnorm_wordpool_less_exclusions.txt	LTP249	ltpFR	16	13	-1	ALMANAC	17	n/a	-1	n/a	n/a	n/a	n/a	n/a
2291883	REC_WORD	wordpools/wasnorm_wordpool_less_exclusions.txt	LTP249	ltpFR	16	13	-1	ENCYCLOPEDIA	533	n/a	-1	n/a	n/a	n/a	n/a	n/a
2297717	REC_WORD	wordpools/wasnorm_wordpool_less_exclusions.txt	LTP249	ltpFR	16	13	-1	BASKET	95	n/a	-1	n/a	n/a	n/a	n/a	n/a
2317523	REC_WORD	wordpools/wasnorm_wordpool_less_exclusions.txt	LTP249	ltpFR	16	13	-1	TEA	1439	n/a	-1	n/a	n/a	n/a	n/a	n/a
2373567	WORD	wordpools/wasnorm_wordpool_less_exclusions.txt	LTP249	ltpFR	16	14	0	MOVIE	927	n/a	1	0	0.5869140625	0.422607421875	upper	../fonts/amplitud.ttf
2377632	WORD	wordpools/wasnorm_wordpool_less_exclusions.txt	LTP249	ltpFR	16	14	0	DUNE	506	n/a	1	0	0.5869140625	0.422607421875	upper	../fonts/amplitud.ttf
2381647	WORD	wordpools/wasnorm_wordpool_less_exclusions.txt	LTP249	ltpFR	16	14	0	TRAY	1498	n/a	1	0	0.5869140625	0.422607421875	upper	../fonts/amplitud.ttf
2385576	WORD	wordpools/wasnorm_wordpool_less_exclusions.txt	LTP249	ltpFR	16	14	0	GENTLEMAN	631	n/a	1	0	0.5869140625	0.422607421875	upper	../fonts/amplitud.ttf
2389594	WORD	wordpools/wasnorm_wordpool_less_exclusions.txt	LTP249	ltpFR	16	14	1	HARE	688	n/a	1	1	0.412841796875	0.57763671875	lower	../fonts/zerothre.ttf
2393576	WORD	wordpools/wasnorm_wordpool_less_exclusions.txt	LTP249	ltpFR	16	14	1	STAR	1373	n/a	0	1	0.412841796875	0.57763671875	lower	../fonts/zerothre.ttf
2397792	WORD	wordpools/wasnorm_wordpool_less_exclusions.txt	LTP249	ltpFR	16	14	1	SPARROW	1347	n/a	1	1	0.412841796875	0.57763671875	lower	../fonts/zerothre.ttf
2401740	WORD	wordpools/wasnorm_wordpool_less_exclusions.txt	LTP249	ltpFR	16	14	1	SWAN	1417	n/a	1	1	0.412841796875	0.57763671875	lower	../fonts/zerothre.ttf
2405922	WORD	wordpools/wasnorm_wordpool_less_exclusions.txt	LTP249	ltpFR	16	14	1	GODDESS	646	n/a	1	1	0.412841796875	0.57763671875	lower	../fonts/zerothre.ttf
2410088	WORD	wordpools/wasnorm_wordpool_less_exclusions.txt	LTP249	ltpFR	16	14	0	COOK	372	n/a	1	0	0.5869140625	0.422607421875	upper	../fonts/amplitud.ttf
2414201	WORD	wordpools/wasnorm_wordpool_less_exclusions.txt	LTP249	ltpFR	16	14	0	BARK	87	n/a	0	0	0.5869140625	0.422607421875	upper	../fonts/amplitud.ttf
2418283	WORD	wordpools/wasnorm_wordpool_less_exclusions.txt	LTP249	ltpFR	16	14	0	HOUND	724	n/a	1	0	0.5869140625	0.422607421875	upper	../fonts/amplitud.ttf
2422268	WORD	wordpools/wasnorm_wordpool_less_exclusions.txt	LTP249	ltpFR	16	14	0	TRIGGER	1507	n/a	0	0	0.5869140625	0.422607421875	upper	../fonts/amplitud.ttf
2426267	WORD	wordpools/wasnorm_wordpool_less_exclusions.txt	LTP249	ltpFR	16	14	1	CORK	380	n/a	0	1	0.412841796875	0.57763671875	lower	../fonts/zerothre.ttf
2430465	WORD	wordpools/wasnorm_wordpool_less_exclusions.txt	LTP249	ltpFR	16	14	1	MOON	914	n/a	0	1	0.412841796875	0.57763671875	lower	../fonts/zerothre.ttf
2434647	WORD	wordpools/wasnorm_wordpool_less_exclusions.txt	LTP249	ltpFR	16	14	1	BUTLER	204	n/a	1	1	0.412841796875	0.57763671875	lower	../fonts/zerothre.ttf
2440605	REC_START	n/a	LTP249	ltpFR	16	14	n/a	n/a	n/a	n/a	n/a	n/a	n/a	n/a	n/a	n/a
2441418	REC_WORD	wordpools/wasnorm_wordpool_less_exclusions.txt	LTP249	ltpFR	16	14	1	BUTLER	204	n/a	1	n/a	n/a	n/a	n/a	n/a
2442360	REC_WORD	wordpools/wasnorm_wordpool_less_exclusions.txt	LTP249	ltpFR	16	14	1	CORK	380	n/a	0	n/a	n/a	n/a	n/a	n/a
2443732	REC_WORD	wordpools/wasnorm_wordpool_less_exclusions.txt	LTP249	ltpFR	16	14	1	SPARROW	1347	n/a	1	n/a	n/a	n/a	n/a	n/a
2446193	REC_WORD	wordpools/wasnorm_wordpool_less_exclusions.txt	LTP249	ltpFR	16	14	1	SWAN	1417	n/a	1	n/a	n/a	n/a	n/a	n/a
2449592	REC_WORD	wordpools/wasnorm_wordpool_less_exclusions.txt	LTP249	ltpFR	16	14	0	TRAY	1498	n/a	1	n/a	n/a	n/a	n/a	n/a
2510293	REC_WORD	wordpools/wasnorm_wordpool_less_exclusions.txt	LTP249	ltpFR	16	14	1	STAR	1373	n/a	0	n/a	n/a	n/a	n/a	n/a
2511430	REC_WORD	wordpools/wasnorm_wordpool_less_exclusions.txt	LTP249	ltpFR	16	14	1	MOON	914	n/a	0	n/a	n/a	n/a	n/a	n/a
2512480	REC_WORD	wordpools/wasnorm_wordpool_less_exclusions.txt	LTP249	ltpFR	16	14	1	GODDESS	646	n/a	1	n/a	n/a	n/a	n/a	n/a
2555202	WORD	wordpools/wasnorm_wordpool_less_exclusions.txt	LTP249	ltpFR	16	15	-1	FLY	586	n/a	-1	1	1.0	1.0	upper	../fonts/Verdana.ttf
2559116	WORD	wordpools/wasnorm_wordpool_less_exclusions.txt	LTP249	ltpFR	16	15	-1	FELLOW	558	n/a	-1	1	1.0	1.0	upper	../fonts/Verdana.ttf
2563146	WORD	wordpools/wasnorm_wordpool_less_exclusions.txt	LTP249	ltpFR	16	15	-1	SLEEVE	1324	n/a	-1	1	1.0	1.0	upper	../fonts/Verdana.ttf
2567013	WORD	wordpools/wasnorm_wordpool_less_exclusions.txt	LTP249	ltpFR	16	15	-1	SLACKS	1323	n/a	-1	1	1.0	1.0	upper	../fonts/Verdana.ttf
2570860	WORD	wordpools/wasnorm_wordpool_less_exclusions.txt	LTP249	ltpFR	16	15	-1	DISH	474	n/a	-1	1	1.0	1.0	upper	../fonts/Verdana.ttf
2574909	WORD	wordpools/wasnorm_wordpool_less_exclusions.txt	LTP249	ltpFR	16	15	-1	CHESS	294	n/a	-1	1	1.0	1.0	upper	../fonts/Verdana.ttf
2578841	WORD	wordpools/wasnorm_wordpool_less_exclusions.txt	LTP249	ltpFR	16	15	-1	TROUT	1511	n/a	-1	1	1.0	1.0	upper	../fonts/Verdana.ttf
2582806	WORD	wordpools/wasnorm_wordpool_less_exclusions.txt	LTP249	ltpFR	16	15	-1	SHRIMP	1297	n/a	-1	1	1.0	1.0	upper	../fonts/Verdana.ttf
2586884	WORD	wordpools/wasnorm_wordpool_less_exclusions.txt	LTP249	ltpFR	16	15	-1	BANQUET	86	n/a	-1	1	1.0	1.0	upper	../fonts/Verdana.ttf
2590866	WORD	wordpools/wasnorm_wordpool_less_exclusions.txt	LTP249	ltpFR	16	15	-1	PRUNE	1134	n/a	-1	1	1.0	1.0	upper	../fonts/Verdana.ttf
2594968	WORD	wordpools/wasnorm_wordpool_less_exclusions.txt	LTP249	ltpFR	16	15	-1	HELICOPTER	701	n/a	-1	1	1.0	1.0	upper	../fonts/Verdana.ttf
2599097	WORD	wordpools/wasnorm_wordpool_less_exclusions.txt	LTP249	ltpFR	16	15	-1	HOSTESS	723	n/a	-1	1	1.0	1.0	upper	../fonts/Verdana.ttf
2603015	WORD	wordpools/wasnorm_wordpool_less_exclusions.txt	LTP249	ltpFR	16	15	-1	SCISSORS	1250	n/a	-1	1	1.0	1.0	upper	../fonts/Verdana.ttf
2606876	WORD	wordpools/wasnorm_wordpool_less_exclusions.txt	LTP249	ltpFR	16	15	-1	PUMPKIN	1142	n/a	-1	1	1.0	1.0	upper	../fonts/Verdana.ttf
2610761	WORD	wordpools/wasnorm_wordpool_less_exclusions.txt	LTP249	ltpFR	16	15	-1	TICKET	1464	n/a	-1	1	1.0	1.0	upper	../fonts/Verdana.ttf
2614625	WORD	wordpools/wasnorm_wordpool_less_exclusions.txt	LTP249	ltpFR	16	15	-1	DICE	461	n/a	-1	1	1.0	1.0	upper	../fonts/Verdana.ttf
2620398	REC_START	n/a	LTP249	ltpFR	16	15	n/a	n/a	n/a	n/a	n/a	n/a	n/a	n/a	n/a	n/a
2620851	REC_WORD	wordpools/wasnorm_wordpool_less_exclusions.txt	LTP249	ltpFR	16	15	-1	HOSTESS	723	n/a	-1	n/a	n/a	n/a	n/a	n/a
2621588	REC_WORD	wordpools/wasnorm_wordpool_less_exclusions.txt	LTP249	ltpFR	16	15	-1	SCISSORS	1250	n/a	-1	n/a	n/a	n/a	n/a	n/a
2623058	REC_WORD	wordpools/wasnorm_wordpool_less_exclusions.txt	LTP249	ltpFR	16	15	-1	PUMPKIN	1142	n/a	-1	n/a	n/a	n/a	n/a	n/a
2624011	REC_WORD	wordpools/wasnorm_wordpool_less_exclusions.txt	LTP249	ltpFR	16	15	-1	TICKET	1464	n/a	-1	n/a	n/a	n/a	n/a	n/a
2625289	REC_WORD	wordpools/wasnorm_wordpool_less_exclusions.txt	LTP249	ltpFR	16	15	-1	DICE	461	n/a	-1	n/a	n/a	n/a	n/a	n/a
2626498	REC_WORD	wordpools/wasnorm_wordpool_less_exclusions.txt	LTP249	ltpFR	16	15	-1	FLY	586	n/a	-1	n/a	n/a	n/a	n/a	n/a
2627586	REC_WORD	wordpools/wasnorm_wordpool_less_exclusions.txt	LTP249	ltpFR	16	15	-1	SHRIMP	1297	n/a	-1	n/a	n/a	n/a	n/a	n/a
2628650	REC_WORD	wordpools/wasnorm_wordpool_less_exclusions.txt	LTP249	ltpFR	16	15	-1	TROUT	1511	n/a	-1	n/a	n/a	n/a	n/a	n/a
2692928	REC_WORD	wordpools/wasnorm_wordpool_less_exclusions.txt	LTP249	ltpFR	16	15	-1	DISH	474	n/a	-1	n/a	n/a	n/a	n/a	n/a
2712211	WORD	wordpools/wasnorm_wordpool_less_exclusions.txt	LTP249	ltpFR	16	16	0	COBBLER	335	n/a	1	0	0.5869140625	0.422607421875	upper	../fonts/amplitud.ttf
2716126	WORD	wordpools/wasnorm_wordpool_less_exclusions.txt	LTP249	ltpFR	16	16	0	BUCKLE	185	n/a	0	0	0.5869140625	0.422607421875	upper	../fonts/amplitud.ttf
2720308	WORD	wordpools/wasnorm_wordpool_less_exclusions.txt	LTP249	ltpFR	16	16	0	GIFT	635	n/a	0	0	0.5869140625	0.422607421875	upper	../fonts/amplitud.ttf
2724353	WORD	wordpools/wasnorm_wordpool_less_exclusions.txt	LTP249	ltpFR	16	16	0	SPONGE	1355	n/a	0	0	0.5869140625	0.422607421875	upper	../fonts/amplitud.ttf
2728521	WORD	wordpools/wasnorm_wordpool_less_exclusions.txt	LTP249	ltpFR	16	16	0	HAMMOCK	681	n/a	1	0	0.5869140625	0.422607421875	upper	../fonts/amplitud.ttf
2732486	WORD	wordpools/wasnorm_wordpool_less_exclusions.txt	LTP249	ltpFR	16	16	0	HELMET	702	n/a	1	0	0.5869140625	0.422607421875	upper	../fonts/amplitud.ttf
2736702	WORD	wordpools/wasnorm_wordpool_less_exclusions.txt	LTP249	ltpFR	16	16	0	RACK	1154	n/a	1	0	0.5869140625	0.422607421875	upper	../fonts/amplitud.ttf
2740814	WORD	wordpools/wasnorm_wordpool_less_exclusions.txt	LTP249	ltpFR	16	16	0	PILLOW	1069	n/a	1	0	0.5869140625	0.422607421875	upper	../fonts/amplitud.ttf
2745000	WORD	wordpools/wasnorm_wordpool_less_exclusions.txt	LTP249	ltpFR	16	16	0	HALL	677	n/a	1	0	0.5869140625	0.422607421875	upper	../fonts/amplitud.ttf
2748865	WORD	wordpools/wasnorm_wordpool_less_exclusions.txt	LTP249	ltpFR	16	16	0	COCKTAIL	338	n/a	0	0	0.5869140625	0.422607421875	upper	../fonts/amplitud.ttf
2752930	WORD	wordpools/wasnorm_wordpool_less_exclusions.txt	LTP249	ltpFR	16	16	0	RABBIT	1152	n/a	0	0	0.5869140625	0.422607421875	upper	../fonts/amplitud.ttf
2756825	WORD	wordpools/wasnorm_wordpool_less_exclusions.txt	LTP249	ltpFR	16	16	0	BUNNY	198	n/a	0	0	0.5869140625	0.422607421875	upper	../fonts/amplitud.ttf
2760860	WORD	wordpools/wasnorm_wordpool_less_exclusions.txt	LTP249	ltpFR	16	16	0	SAXOPHONE	1240	n/a	1	0	0.5869140625	0.422607421875	upper	../fonts/amplitud.ttf
2764842	WORD	wordpools/wasnorm_wordpool_less_exclusions.txt	LTP249	ltpFR	16	16	0	DOLPHIN	483	n/a	1	0	0.5869140625	0.422607421875	upper	../fonts/amplitud.ttf
2768907	WORD	wordpools/wasnorm_wordpool_less_exclusions.txt	LTP249	ltpFR	16	16	0	LOBBY	836	n/a	1	0	0.5869140625	0.422607421875	upper	../fonts/amplitud.ttf
2772986	WORD	wordpools/wasnorm_wordpool_less_exclusions.txt	LTP249	ltpFR	16	16	0	BUBBLE	183	n/a	0	0	0.5869140625	0.422607421875	upper	../fonts/amplitud.ttf
2778862	REC_START	n/a	LTP249	ltpFR	16	16	n/a	n/a	n/a	n/a	n/a	n/a	n/a	n/a	n/a	n/a
2779762	REC_WORD	wordpools/wasnorm_wordpool_less_exclusions.txt	LTP249	ltpFR	16	16	0	BUBBLE	183	n/a	0	n/a	n/a	n/a	n/a	n/a
2780849	REC_WORD	wordpools/wasnorm_wordpool_less_exclusions.txt	LTP249	ltpFR	16	16	0	SAXOPHONE	1240	n/a	1	n/a	n/a	n/a	n/a	n/a
2782569	REC_WORD	wordpools/wasnorm_wordpool_less_exclusions.txt	LTP249	ltpFR	16	16	n/a	HALLWAY	-1	n/a	n/a	n/a	n/a	n/a	n/a	n/a
2787229	REC_WORD	wordpools/wasnorm_wordpool_less_exclusions.txt	LTP249	ltpFR	16	16	0	BUNNY	198	n/a	0	n/a	n/a	n/a	n/a	n/a
2788603	REC_WORD	wordpools/wasnorm_wordpool_less_exclusions.txt	LTP249	ltpFR	16	16	0	RABBIT	1152	n/a	0	n/a	n/a	n/a	n/a	n/a
2797299	REC_WORD	wordpools/wasnorm_wordpool_less_exclusions.txt	LTP249	ltpFR	16	16	0	COBBLER	335	n/a	1	n/a	n/a	n/a	n/a	n/a
2802504	REC_WORD	wordpools/wasnorm_wordpool_less_exclusions.txt	LTP249	ltpFR	16	16	0	HAMMOCK	681	n/a	1	n/a	n/a	n/a	n/a	n/a
2805034	REC_WORD	wordpools/wasnorm_wordpool_less_exclusions.txt	LTP249	ltpFR	16	16	0	HELMET	702	n/a	1	n/a	n/a	n/a	n/a	n/a
2844072	REC_WORD	wordpools/wasnorm_wordpool_less_exclusions.txt	LTP249	ltpFR	16	16	-1	PRUNE	1134	n/a	-1	n/a	n/a	n/a	n/a	n/a
2876146	REC_START	n/a	LTP249	ltpFR	16	n/a	n/a	n/a	n/a	n/a	n/a	n/a	n/a	n/a	n/a	n/a
2877570	FFR_REC_WORD	wordpools/wasnorm_wordpool_less_exclusions.txt	LTP249	ltpFR	16	n/a	-1	PRUNE	1134	n/a	-1	n/a	n/a	n/a	n/a	n/a
2878700	FFR_REC_WORD	wordpools/wasnorm_wordpool_less_exclusions.txt	LTP249	ltpFR	16	n/a	1	CASHEW	253	n/a	1	n/a	n/a	n/a	n/a	n/a
2880230	FFR_REC_WORD	wordpools/wasnorm_wordpool_less_exclusions.txt	LTP249	ltpFR	16	n/a	0	PECAN	1036	n/a	0	n/a	n/a	n/a	n/a	n/a
2881558	FFR_REC_WORD	wordpools/wasnorm_wordpool_less_exclusions.txt	LTP249	ltpFR	16	n/a	1	WALNUT	1584	n/a	1	n/a	n/a	n/a	n/a	n/a
2885769	FFR_REC_WORD	wordpools/wasnorm_wordpool_less_exclusions.txt	LTP249	ltpFR	16	n/a	-1	KETTLE	772	n/a	-1	n/a	n/a	n/a	n/a	n/a
2886951	FFR_REC_WORD	wordpools/wasnorm_wordpool_less_exclusions.txt	LTP249	ltpFR	16	n/a	-1	COFFEE	341	n/a	-1	n/a	n/a	n/a	n/a	n/a
2889461	FFR_REC_WORD	wordpools/wasnorm_wordpool_less_exclusions.txt	LTP249	ltpFR	16	n/a	-1	TEA	1439	n/a	-1	n/a	n/a	n/a	n/a	n/a
2890713	FFR_REC_WORD	wordpools/wasnorm_wordpool_less_exclusions.txt	LTP249	ltpFR	16	n/a	1	BERRY	122	n/a	1	n/a	n/a	n/a	n/a	n/a
2892593	FFR_REC_WORD	wordpools/wasnorm_wordpool_less_exclusions.txt	LTP249	ltpFR	16	n/a	1	RASPBERRY	1168	n/a	1	n/a	n/a	n/a	n/a	n/a
2895043	FFR_REC_WORD	wordpools/wasnorm_wordpool_less_exclusions.txt	LTP249	ltpFR	16	n/a	1	DINNER	468	n/a	0	n/a	n/a	n/a	n/a	n/a
2896145	FFR_REC_WORD	wordpools/wasnorm_wordpool_less_exclusions.txt	LTP249	ltpFR	16	n/a	1	GROCERIES	663	n/a	0	n/a	n/a	n/a	n/a	n/a
2899233	FFR_REC_WORD	wordpools/wasnorm_wordpool_less_exclusions.txt	LTP249	ltpFR	16	n/a	n/a	SHORTCAKE	1292	n/a	n/a	n/a	n/a	n/a	n/a	n/a
2909198	FFR_REC_WORD	wordpools/wasnorm_wordpool_less_exclusions.txt	LTP249	ltpFR	16	n/a	-1	ENCYCLOPEDIA	533	n/a	-1	n/a	n/a	n/a	n/a	n/a
2910932	FFR_REC_WORD	wordpools/wasnorm_wordpool_less_exclusions.txt	LTP249	ltpFR	16	n/a	-1	ALMANAC	17	n/a	-1	n/a	n/a	n/a	n/a	n/a
2912388	FFR_REC_WORD	wordpools/wasnorm_wordpool_less_exclusions.txt	LTP249	ltpFR	16	n/a	1	ESSAY	540	n/a	0	n/a	n/a	n/a	n/a	n/a
2913506	FFR_REC_WORD	wordpools/wasnorm_wordpool_less_exclusions.txt	LTP249	ltpFR	16	n/a	1	NOVEL	960	n/a	0	n/a	n/a	n/a	n/a	n/a
2914758	FFR_REC_WORD	wordpools/wasnorm_wordpool_less_exclusions.txt	LTP249	ltpFR	16	n/a	1	PAGE	1001	n/a	0	n/a	n/a	n/a	n/a	n/a
2916724	FFR_REC_WORD	wordpools/wasnorm_wordpool_less_exclusions.txt	LTP249	ltpFR	16	n/a	0	COBBLER	335	n/a	1	n/a	n/a	n/a	n/a	n/a
2923234	FFR_REC_WORD	wordpools/wasnorm_wordpool_less_exclusions.txt	LTP249	ltpFR	16	n/a	0	SHACK	1273	n/a	1	n/a	n/a	n/a	n/a	n/a
2924576	FFR_REC_WORD	wordpools/wasnorm_wordpool_less_exclusions.txt	LTP249	ltpFR	16	n/a	0	DOLPHIN	483	n/a	1	n/a	n/a	n/a	n/a	n/a
2927270	FFR_REC_WORD	wordpools/wasnorm_wordpool_less_exclusions.txt	LTP249	ltpFR	16	n/a	0	WOLF	1619	n/a	1	n/a	n/a	n/a	n/a	n/a
2928621	FFR_REC_WORD	wordpools/wasnorm_wordpool_less_exclusions.txt	LTP249	ltpFR	16	n/a	0	HOUND	724	n/a	1	n/a	n/a	n/a	n/a	n/a
2930822	FFR_REC_WORD	wordpools/wasnorm_wordpool_less_exclusions.txt	LTP249	ltpFR	16	n/a	0	DOG	480	n/a	1	n/a	n/a	n/a	n/a	n/a
2932049	FFR_REC_WORD	wordpools/wasnorm_wordpool_less_exclusions.txt	LTP249	ltpFR	16	n/a	0	OWL	992	n/a	0	n/a	n/a	n/a	n/a	n/a
2934448	FFR_REC_WORD	wordpools/wasnorm_wordpool_less_exclusions.txt	LTP249	ltpFR	16	n/a	1	BLUEJAY	141	n/a	1	n/a	n/a	n/a	n/a	n/a
2935505	FFR_REC_WORD	wordpools/wasnorm_wordpool_less_exclusions.txt	LTP249	ltpFR	16	n/a	1	SPARROW	1347	n/a	1	n/a	n/a	n/a	n/a	n/a
2938269	FFR_REC_WORD	wordpools/wasnorm_wordpool_less_exclusions.txt	LTP249	ltpFR	16	n/a	1	SWAN	1417	n/a	1	n/a	n/a	n/a	n/a	n/a
2940063	FFR_REC_WORD	wordpools/wasnorm_wordpool_less_exclusions.txt	LTP249	ltpFR	16	n/a	1	FROG	608	n/a	1	n/a	n/a	n/a	n/a	n/a
2942746	FFR_REC_WORD	wordpools/wasnorm_wordpool_less_exclusions.txt	LTP249	ltpFR	16	n/a	-1	FLY	586	n/a	-1	n/a	n/a	n/a	n/a	n/a
2947104	FFR_REC_WORD	wordpools/wasnorm_wordpool_less_exclusions.txt	LTP249	ltpFR	16	n/a	-1	GORILLA	650	n/a	-1	n/a	n/a	n/a	n/a	n/a
2949005	FFR_REC_WORD	wordpools/wasnorm_wordpool_less_exclusions.txt	LTP249	ltpFR	16	n/a	0	LEOPARD	812	n/a	0	n/a	n/a	n/a	n/a	n/a
2952579	FFR_REC_WORD	wordpools/wasnorm_wordpool_less_exclusions.txt	LTP249	ltpFR	16	n/a	1	HUMAN	726	n/a	1	n/a	n/a	n/a	n/a	n/a
2959027	FFR_REC_WORD	wordpools/wasnorm_wordpool_less_exclusions.txt	LTP249	ltpFR	16	n/a	0	HALL	677	n/a	1	n/a	n/a	n/a	n/a	n/a
2959347	FFR_REC_WORD	wordpools/wasnorm_wordpool_less_exclusions.txt	LTP249	ltpFR	16	n/a	n/a	WAY	-1	n/a	n/a	n/a	n/a	n/a	n/a	n/a
2960130	FFR_REC_WORD	wordpools/wasnorm_wordpool_less_exclusions.txt	LTP249	ltpFR	16	n/a	1	OFFICE	972	n/a	0	n/a	n/a	n/a	n/a	n/a
2961462	FFR_REC_WORD	wordpools/wasnorm_wordpool_less_exclusions.txt	LTP249	ltpFR	16	n/a	-1	BATH	98	n/a	-1	n/a	n/a	n/a	n/a	n/a
2962579	FFR_REC_WORD	wordpools/wasnorm_wordpool_less_exclusions.txt	LTP249	ltpFR	16	n/a	-1	CLIMBER	323	n/a	-1	n/a	n/a	n/a	n/a	n/a
2963806	FFR_REC_WORD	wordpools/wasnorm_wordpool_less_exclusions.txt	LTP249	ltpFR	16	n/a	-1	BATHTUB	100	n/a	-1	n/a	n/a	n/a	n/a	n/a
2964929	FFR_REC_WORD	wordpools/wasnorm_wordpool_less_exclusions.txt	LTP249	ltpFR	16	n/a	0	EMERALD	528	n/a	0	n/a	n/a	n/a	n/a	n/a
2967199	FFR_REC_WORD	wordpools/wasnorm_wordpool_less_exclusions.txt	LTP249	ltpFR	16	n/a	1	DISHWASHER	475	n/a	0	n/a	n/a	n/a	n/a	n/a
2968331	FFR_REC_WORD	wordpools/wasnorm_wordpool_less_exclusions.txt	LTP249	ltpFR	16	n/a	-1	CONTAINER	366	n/a	-1	n/a	n/a	n/a	n/a	n/a
2969738	FFR_REC_WORD	wordpools/wasnorm_wordpool_less_exclusions.txt	LTP249	ltpFR	16	n/a	-1	UNDERWEAR	1537	n/a	-1	n/a	n/a	n/a	n/a	n/a
2970895	FFR_REC_WORD	wordpools/wasnorm_wordpool_less_exclusions.txt	LTP249	ltpFR	16	n/a	0	BLOUSE	139	n/a	0	n/a	n/a	n/a	n/a	n/a
2972003	FFR_REC_WORD	wordpools/wasnorm_wordpool_less_exclusions.txt	LTP249	ltpFR	16	n/a	0	CAPE	237	n/a	0	n/a	n/a	n/a	n/a	n/a
2973015	FFR_REC_WORD	wordpools/wasnorm_wordpool_less_exclusions.txt	LTP249	ltpFR	16	n/a	-1	SLEEVE	1324	n/a	-1	n/a	n/a	n/a	n/a	n/a
2974422	FFR_REC_WORD	wordpools/wasnorm_wordpool_less_exclusions.txt	LTP249	ltpFR	16	n/a	0	SHORTS	1293	n/a	0	n/a	n/a	n/a	n/a	n/a
2978801	FFR_REC_WORD	wordpools/wasnorm_wordpool_less_exclusions.txt	LTP249	ltpFR	16	n/a	0	HAMMOCK	681	n/a	1	n/a	n/a	n/a	n/a	n/a
2980199	FFR_REC_WORD	wordpools/wasnorm_wordpool_less_exclusions.txt	LTP249	ltpFR	16	n/a	0	BLENDER	136	n/a	0	n/a	n/a	n/a	n/a	n/a
2981421	FFR_REC_WORD	wordpools/wasnorm_wordpool_less_exclusions.txt	LTP249	ltpFR	16	n/a	0	HELMET	702	n/a	1	n/a	n/a	n/a	n/a	n/a
2983476	FFR_REC_WORD	wordpools/wasnorm_wordpool_less_exclusions.txt	LTP249	ltpFR	16	n/a	n/a	STAIRCASE	-1	n/a	n/a	n/a	n/a	n/a	n/a	n/a
2987458	FFR_REC_WORD	wordpools/wasnorm_wordpool_less_exclusions.txt	LTP249	ltpFR	16	n/a	-1	BUTTON	207	n/a	-1	n/a	n/a	n/a	n/a	n/a
2989084	FFR_REC_WORD	wordpools/wasnorm_wordpool_less_exclusions.txt	LTP249	ltpFR	16	n/a	0	RICE	1190	n/a	0	n/a	n/a	n/a	n/a	n/a
2994047	FFR_REC_WORD	wordpools/wasnorm_wordpool_less_exclusions.txt	LTP249	ltpFR	16	n/a	1	THIGH	1457	n/a	1	n/a	n/a	n/a	n/a	n/a
2995788	FFR_REC_WORD	wordpools/wasnorm_wordpool_less_exclusions.txt	LTP249	ltpFR	16	n/a	1	COCOON	339	n/a	0	n/a	n/a	n/a	n/a	n/a
2998457	FFR_REC_WORD	wordpools/wasnorm_wordpool_less_exclusions.txt	LTP249	ltpFR	16	n/a	1	ANTENNA	28	n/a	0	n/a	n/a	n/a	n/a	n/a
3001361	FFR_REC_WORD	wordpools/wasnorm_wordpool_less_exclusions.txt	LTP249	ltpFR	16	n/a	0	PEDAL	1037	n/a	0	n/a	n/a	n/a	n/a	n/a
3002449	FFR_REC_WORD	wordpools/wasnorm_wordpool_less_exclusions.txt	LTP249	ltpFR	16	n/a	n/a	LOVER	846	n/a	n/a	n/a	n/a	n/a	n/a	n/a
3003651	FFR_REC_WORD	wordpools/wasnorm_wordpool_less_exclusions.txt	LTP249	ltpFR	16	n/a	-1	BOUILLON	154	n/a	-1	n/a	n/a	n/a	n/a	n/a
3009113	FFR_REC_WORD	wordpools/wasnorm_wordpool_less_exclusions.txt	LTP249	ltpFR	16	n/a	1	HAMMER	680	n/a	0	n/a	n/a	n/a	n/a	n/a
3010550	FFR_REC_WORD	wordpools/wasnorm_wordpool_less_exclusions.txt	LTP249	ltpFR	16	n/a	-1	SCISSORS	1250	n/a	-1	n/a	n/a	n/a	n/a	n/a
3012710	FFR_REC_WORD	wordpools/wasnorm_wordpool_less_exclusions.txt	LTP249	ltpFR	16	n/a	1	SHEARS	1276	n/a	0	n/a	n/a	n/a	n/a	n/a
3022658	FFR_REC_WORD	wordpools/wasnorm_wordpool_less_exclusions.txt	LTP249	ltpFR	16	n/a	1	GODDESS	646	n/a	1	n/a	n/a	n/a	n/a	n/a
3023778	FFR_REC_WORD	wordpools/wasnorm_wordpool_less_exclusions.txt	LTP249	ltpFR	16	n/a	1	STAR	1373	n/a	0	n/a	n/a	n/a	n/a	n/a
3025287	FFR_REC_WORD	wordpools/wasnorm_wordpool_less_exclusions.txt	LTP249	ltpFR	16	n/a	1	MOON	914	n/a	0	n/a	n/a	n/a	n/a	n/a
3026579	FFR_REC_WORD	wordpools/wasnorm_wordpool_less_exclusions.txt	LTP249	ltpFR	16	n/a	-1	PLANET	1082	n/a	-1	n/a	n/a	n/a	n/a	n/a
3028290	FFR_REC_WORD	wordpools/wasnorm_wordpool_less_exclusions.txt	LTP249	ltpFR	16	n/a	-1	VENUS	1557	n/a	-1	n/a	n/a	n/a	n/a	n/a
3031019	FFR_REC_WORD	wordpools/wasnorm_wordpool_less_exclusions.txt	LTP249	ltpFR	16	n/a	-1	JUPITER	765	n/a	-1	n/a	n/a	n/a	n/a	n/a
3034117	FFR_REC_WORD	wordpools/wasnorm_wordpool_less_exclusions.txt	LTP249	ltpFR	16	n/a	1	UNICORN	1538	n/a	1	n/a	n/a	n/a	n/a	n/a
3035454	FFR_REC_WORD	wordpools/wasnorm_wordpool_less_exclusions.txt	LTP249	ltpFR	16	n/a	1	NOMAD	955	n/a	1	n/a	n/a	n/a	n/a	n/a
3038217	FFR_REC_WORD	wordpools/wasnorm_wordpool_less_exclusions.txt	LTP249	ltpFR	16	n/a	1	BUSH	202	n/a	1	n/a	n/a	n/a	n/a	n/a
3040383	FFR_REC_WORD	wordpools/wasnorm_wordpool_less_exclusions.txt	LTP249	ltpFR	16	n/a	1	LAGOON	795	n/a	0	n/a	n/a	n/a	n/a	n/a
3041814	FFR_REC_WORD	wordpools/wasnorm_wordpool_less_exclusions.txt	LTP249	ltpFR	16	n/a	1	MEADOW	881	n/a	0	n/a	n/a	n/a	n/a	n/a
3043186	FFR_REC_WORD	wordpools/wasnorm_wordpool_less_exclusions.txt	LTP249	ltpFR	16	n/a	1	VILLAGE	1566	n/a	1	n/a	n/a	n/a	n/a	n/a
3045770	FFR_REC_WORD	wordpools/wasnorm_wordpool_less_exclusions.txt	LTP249	ltpFR	16	n/a	1	COMMUNITY	356	n/a	1	n/a	n/a	n/a	n/a	n/a
3047182	FFR_REC_WORD	wordpools/wasnorm_wordpool_less_exclusions.txt	LTP249	ltpFR	16	n/a	1	GUEST	669	n/a	1	n/a	n/a	n/a	n/a	n/a
3048714	FFR_REC_WORD	wordpools/wasnorm_wordpool_less_exclusions.txt	LTP249	ltpFR	16	n/a	0	AGENT	10	n/a	1	n/a	n/a	n/a	n/a	n/a
3051103	FFR_REC_WORD	wordpools/wasnorm_wordpool_less_exclusions.txt	LTP249	ltpFR	16	n/a	0	SHERIFF	1284	n/a	1	n/a	n/a	n/a	n/a	n/a
3052660	FFR_REC_WORD	wordpools/wasnorm_wordpool_less_exclusions.txt	LTP249	ltpFR	16	n/a	0	OFFICER	973	n/a	1	n/a	n/a	n/a	n/a	n/a
3054061	FFR_REC_WORD	wordpools/wasnorm_wordpool_less_exclusions.txt	LTP249	ltpFR	16	n/a	0	CUFF	423	n/a	0	n/a	n/a	n/a	n/a	n/a
3056127	FFR_REC_WORD	wordpools/wasnorm_wordpool_less_exclusions.txt	LTP249	ltpFR	16	n/a	1	ELEPHANT	523	n/a	1	n/a	n/a	n/a	n/a	n/a
3057898	FFR_REC_WORD	wordpools/wasnorm_wordpool_less_exclusions.txt	LTP249	ltpFR	16	n/a	0	TUSK	1523	n/a	0	n/a	n/a	n/a	n/a	n/a
3063400	FFR_REC_WORD	wordpools/wasnorm_wordpool_less_exclusions.txt	LTP249	ltpFR	16	n/a	0	ATTORNEY	58	n/a	1	n/a	n/a	n/a	n/a	n/a
3064832	FFR_REC_WORD	wordpools/wasnorm_wordpool_less_exclusions.txt	LTP249	ltpFR	16	n/a	0	GENERAL	630	n/a	1	n/a	n/a	n/a	n/a	n/a
3066134	FFR_REC_WORD	wordpools/wasnorm_wordpool_less_exclusions.txt	LTP249	ltpFR	16	n/a	n/a	COMMANDER	354	n/a	n/a	n/a	n/a	n/a	n/a	n/a
3070828	FFR_REC_WORD	wordpools/wasnorm_wordpool_less_exclusions.txt	LTP249	ltpFR	16	n/a	0	MILITARY	894	n/a	1	n/a	n/a	n/a	n/a	n/a
3072147	FFR_REC_WORD	wordpools/wasnorm_wordpool_less_exclusions.txt	LTP249	ltpFR	16	n/a	0	FLEET	578	n/a	1	n/a	n/a	n/a	n/a	n/a
3073876	FFR_REC_WORD	wordpools/wasnorm_wordpool_less_exclusions.txt	LTP249	ltpFR	16	n/a	0	TERRITORY	1452	n/a	1	n/a	n/a	n/a	n/a	n/a
3076560	FFR_REC_WORD	wordpools/wasnorm_wordpool_less_exclusions.txt	LTP249	ltpFR	16	n/a	0	SHOELACE	1289	n/a	0	n/a	n/a	n/a	n/a	n/a
3078077	FFR_REC_WORD	wordpools/wasnorm_wordpool_less_exclusions.txt	LTP249	ltpFR	16	n/a	0	BOOT	150	n/a	0	n/a	n/a	n/a	n/a	n/a
3091851	FFR_REC_WORD	wordpools/wasnorm_wordpool_less_exclusions.txt	LTP249	ltpFR	16	n/a	0	BUNNY	198	n/a	0	n/a	n/a	n/a	n/a	n/a
3093133	FFR_REC_WORD	wordpools/wasnorm_wordpool_less_exclusions.txt	LTP249	ltpFR	16	n/a	1	HARE	688	n/a	1	n/a	n/a	n/a	n/a	n/a
3097153	FFR_REC_WORD	wordpools/wasnorm_wordpool_less_exclusions.txt	LTP249	ltpFR	16	n/a	-1	SHRIMP	1297	n/a	-1	n/a	n/a	n/a	n/a	n/a
3098490	FFR_REC_WORD	wordpools/wasnorm_wordpool_less_exclusions.txt	LTP249	ltpFR	16	n/a	-1	TROUT	1511	n/a	-1	n/a	n/a	n/a	n/a	n/a
3101513	FFR_REC_WORD	wordpools/wasnorm_wordpool_less_exclusions.txt	LTP249	ltpFR	16	n/a	0	SEAFOOD	1260	n/a	0	n/a	n/a	n/a	n/a	n/a
3116370	FFR_REC_WORD	wordpools/wasnorm_wordpool_less_exclusions.txt	LTP249	ltpFR	16	n/a	-1	WATERFALL	1595	n/a	-1	n/a	n/a	n/a	n/a	n/a
3129480	FFR_REC_WORD	wordpools/wasnorm_wordpool_less_exclusions.txt	LTP249	ltpFR	16	n/a	0	SHACK	1273	n/a	1	n/a	n/a	n/a	n/a	n/a
3151210	FFR_REC_WORD	wordpools/wasnorm_wordpool_less_exclusions.txt	LTP249	ltpFR	16	n/a	1	MICROPHONE	890	n/a	0	n/a	n/a	n/a	n/a	n/a
3155441	FFR_REC_WORD	wordpools/wasnorm_wordpool_less_exclusions.txt	LTP249	ltpFR	16	n/a	1	REFEREE	1178	n/a	1	n/a	n/a	n/a	n/a	n/a
3156489	FFR_REC_WORD	wordpools/wasnorm_wordpool_less_exclusions.txt	LTP249	ltpFR	16	n/a	1	DANCER	437	n/a	1	n/a	n/a	n/a	n/a	n/a
3158813	FFR_REC_WORD	wordpools/wasnorm_wordpool_less_exclusions.txt	LTP249	ltpFR	16	n/a	1	UMPIRE	1535	n/a	1	n/a	n/a	n/a	n/a	n/a
3232120	REC_START	n/a	LTP249	ltpFR	16	1	n/a	n/a	n/a	n/a	n/a	n/a	n/a	n/a	n/a	n/a
3232170	RECOG_TARGET	n/a	LTP249	ltpFR	16	1	0	SOFA	1342	3	1	n/a	n/a	n/a	n/a	n/a
3233375	RECOG_RESP	n/a	LTP249	ltpFR	16	1	0	SOFA	1342	n/a	1	n/a	n/a	n/a	n/a	n/a
3234024	RECOG_CONF	n/a	LTP249	ltpFR	16	1	0	SOFA	1342	3	1	n/a	n/a	n/a	n/a	n/a
3235632	RECOG_LURE	n/a	LTP249	ltpFR	16	1	n/a	SPACE	1345	2	n/a	n/a	n/a	n/a	n/a	n/a
3236582	RECOG_RESP	n/a	LTP249	ltpFR	16	1	n/a	SPACE	1345	n/a	n/a	n/a	n/a	n/a	n/a	n/a
3237166	RECOG_CONF	n/a	LTP249	ltpFR	16	1	n/a	SPACE	1345	2	n/a	n/a	n/a	n/a	n/a	n/a
3238861	RECOG_TARGET	n/a	LTP249	ltpFR	16	1	0	DUNE	506	3	1	n/a	n/a	n/a	n/a	n/a
3239546	RECOG_RESP	n/a	LTP249	ltpFR	16	1	0	DUNE	506	n/a	1	n/a	n/a	n/a	n/a	n/a
3240181	RECOG_CONF	n/a	LTP249	ltpFR	16	1	0	DUNE	506	3	1	n/a	n/a	n/a	n/a	n/a
3241789	RECOG_TARGET	n/a	LTP249	ltpFR	16	1	0	ROBIN	1199	4	0	n/a	n/a	n/a	n/a	n/a
3242593	RECOG_RESP	n/a	LTP249	ltpFR	16	1	0	ROBIN	1199	n/a	0	n/a	n/a	n/a	n/a	n/a
3243105	RECOG_CONF	n/a	LTP249	ltpFR	16	1	0	ROBIN	1199	4	0	n/a	n/a	n/a	n/a	n/a
3244767	RECOG_TARGET	n/a	LTP249	ltpFR	16	1	0	SAXOPHONE	1240	5	1	n/a	n/a	n/a	n/a	n/a
3245372	RECOG_RESP	n/a	LTP249	ltpFR	16	1	0	SAXOPHONE	1240	n/a	1	n/a	n/a	n/a	n/a	n/a
3245849	RECOG_CONF	n/a	LTP249	ltpFR	16	1	0	SAXOPHONE	1240	5	1	n/a	n/a	n/a	n/a	n/a
3247527	RECOG_TARGET	n/a	LTP249	ltpFR	16	1	0	EMERALD	528	5	0	n/a	n/a	n/a	n/a	n/a
3248080	RECOG_RESP	n/a	LTP249	ltpFR	16	1	0	EMERALD	528	n/a	0	n/a	n/a	n/a	n/a	n/a
3248600	RECOG_CONF	n/a	LTP249	ltpFR	16	1	0	EMERALD	528	5	0	n/a	n/a	n/a	n/a	n/a
3250272	RECOG_LURE	n/a	LTP249	ltpFR	16	1	n/a	DOORBELL	487	1	n/a	n/a	n/a	n/a	n/a	n/a
3251125	RECOG_RESP	n/a	LTP249	ltpFR	16	1	n/a	DOORBELL	487	n/a	n/a	n/a	n/a	n/a	n/a	n/a
3251602	RECOG_CONF	n/a	LTP249	ltpFR	16	1	n/a	DOORBELL	487	1	n/a	n/a	n/a	n/a	n/a	n/a
3253300	RECOG_TARGET	n/a	LTP249	ltpFR	16	1	1	THIGH	1457	5	1	n/a	n/a	n/a	n/a	n/a
3253878	RECOG_RESP	n/a	LTP249	ltpFR	16	1	1	THIGH	1457	n/a	1	n/a	n/a	n/a	n/a	n/a
3254354	RECOG_CONF	n/a	LTP249	ltpFR	16	1	1	THIGH	1457	5	1	n/a	n/a	n/a	n/a	n/a
3255926	RECOG_LURE	n/a	LTP249	ltpFR	16	1	n/a	PUBLICATION	1136	2	n/a	n/a	n/a	n/a	n/a	n/a
3256840	RECOG_RESP	n/a	LTP249	ltpFR	16	1	n/a	PUBLICATION	1136	n/a	n/a	n/a	n/a	n/a	n/a	n/a
3257393	RECOG_CONF	n/a	LTP249	ltpFR	16	1	n/a	PUBLICATION	1136	2	n/a	n/a	n/a	n/a	n/a	n/a
3258920	RECOG_TARGET	n/a	LTP249	ltpFR	16	1	-1	SLOPE	1328	5	-1	n/a	n/a	n/a	n/a	n/a
3259475	RECOG_RESP	n/a	LTP249	ltpFR	16	1	-1	SLOPE	1328	n/a	-1	n/a	n/a	n/a	n/a	n/a
3259991	RECOG_CONF	n/a	LTP249	ltpFR	16	1	-1	SLOPE	1328	5	-1	n/a	n/a	n/a	n/a	n/a
3261647	RECOG_TARGET	n/a	LTP249	ltpFR	16	1	1	CHARCOAL	281	5	0	n/a	n/a	n/a	n/a	n/a
3262292	RECOG_RESP	n/a	LTP249	ltpFR	16	1	1	CHARCOAL	281	n/a	0	n/a	n/a	n/a	n/a	n/a
3262736	RECOG_CONF	n/a	LTP249	ltpFR	16	1	1	CHARCOAL	281	5	0	n/a	n/a	n/a	n/a	n/a
3264408	RECOG_LURE	n/a	LTP249	ltpFR	16	1	n/a	TENT	1449	1	n/a	n/a	n/a	n/a	n/a	n/a
3265279	RECOG_RESP	n/a	LTP249	ltpFR	16	1	n/a	TENT	1449	n/a	n/a	n/a	n/a	n/a	n/a	n/a
3265811	RECOG_CONF	n/a	LTP249	ltpFR	16	1	n/a	TENT	1449	1	n/a	n/a	n/a	n/a	n/a	n/a
3267353	RECOG_TARGET	n/a	LTP249	ltpFR	16	1	0	PERCH	1048	5	1	n/a	n/a	n/a	n/a	n/a
3268142	RECOG_RESP	n/a	LTP249	ltpFR	16	1	0	PERCH	1048	n/a	1	n/a	n/a	n/a	n/a	n/a
3268632	RECOG_CONF	n/a	LTP249	ltpFR	16	1	0	PERCH	1048	5	1	n/a	n/a	n/a	n/a	n/a
3270096	RECOG_TARGET	n/a	LTP249	ltpFR	16	1	0	GENERAL	630	5	1	n/a	n/a	n/a	n/a	n/a
3270780	RECOG_RESP	n/a	LTP249	ltpFR	16	1	0	GENERAL	630	n/a	1	n/a	n/a	n/a	n/a	n/a
3271274	RECOG_CONF	n/a	LTP249	ltpFR	16	1	0	GENERAL	630	5	1	n/a	n/a	n/a	n/a	n/a
3272940	RECOG_TARGET	n/a	LTP249	ltpFR	16	1	0	SHORTS	1293	5	0	n/a	n/a	n/a	n/a	n/a
3273518	RECOG_RESP	n/a	LTP249	ltpFR	16	1	0	SHORTS	1293	n/a	0	n/a	n/a	n/a	n/a	n/a
3274011	RECOG_CONF	n/a	LTP249	ltpFR	16	1	0	SHORTS	1293	5	0	n/a	n/a	n/a	n/a	n/a
3275533	RECOG_TARGET	n/a	LTP249	ltpFR	16	1	1	OX	994	5	1	n/a	n/a	n/a	n/a	n/a
3276111	RECOG_RESP	n/a	LTP249	ltpFR	16	1	1	OX	994	n/a	1	n/a	n/a	n/a	n/a	n/a
3276711	RECOG_CONF	n/a	LTP249	ltpFR	16	1	1	OX	994	5	1	n/a	n/a	n/a	n/a	n/a
3278325	RECOG_TARGET	n/a	LTP249	ltpFR	16	1	0	COLONEL	348	5	1	n/a	n/a	n/a	n/a	n/a
3278972	RECOG_RESP	n/a	LTP249	ltpFR	16	1	0	COLONEL	348	n/a	1	n/a	n/a	n/a	n/a	n/a
3279504	RECOG_CONF	n/a	LTP249	ltpFR	16	1	0	COLONEL	348	5	1	n/a	n/a	n/a	n/a	n/a
3281003	RECOG_LURE	n/a	LTP249	ltpFR	16	1	n/a	PEDESTRIAN	1038	2	n/a	n/a	n/a	n/a	n/a	n/a
3282026	RECOG_RESP	n/a	LTP249	ltpFR	16	1	n/a	PEDESTRIAN	1038	n/a	n/a	n/a	n/a	n/a	n/a	n/a
3282640	RECOG_CONF	n/a	LTP249	ltpFR	16	1	n/a	PEDESTRIAN	1038	2	n/a	n/a	n/a	n/a	n/a	n/a
3284217	RECOG_LURE	n/a	LTP249	ltpFR	16	1	n/a	BADGE	68	3	n/a	n/a	n/a	n/a	n/a	n/a
3285064	RECOG_RESP	n/a	LTP249	ltpFR	16	1	n/a	BADGE	68	n/a	n/a	n/a	n/a	n/a	n/a	n/a
3285608	RECOG_CONF	n/a	LTP249	ltpFR	16	1	n/a	BADGE	68	3	n/a	n/a	n/a	n/a	n/a	n/a
3287144	RECOG_TARGET	n/a	LTP249	ltpFR	16	1	1	BRACES	164	1	0	n/a	n/a	n/a	n/a	n/a
3288562	RECOG_RESP	n/a	LTP249	ltpFR	16	1	1	BRACES	164	n/a	0	n/a	n/a	n/a	n/a	n/a
3289064	RECOG_CONF	n/a	LTP249	ltpFR	16	1	1	BRACES	164	1	0	n/a	n/a	n/a	n/a	n/a
3303795	REC_START	n/a	LTP249	ltpFR	16	2	n/a	n/a	n/a	n/a	n/a	n/a	n/a	n/a	n/a	n/a
3303856	RECOG_TARGET	n/a	LTP249	ltpFR	16	2	1	HINGE	709	5	0	n/a	n/a	n/a	n/a	n/a
3304627	RECOG_RESP	n/a	LTP249	ltpFR	16	2	1	HINGE	709	n/a	0	n/a	n/a	n/a	n/a	n/a
3305114	RECOG_CONF	n/a	LTP249	ltpFR	16	2	1	HINGE	709	5	0	n/a	n/a	n/a	n/a	n/a
3306784	RECOG_TARGET	n/a	LTP249	ltpFR	16	2	1	WHEEL	1603	5	0	n/a	n/a	n/a	n/a	n/a
3307618	RECOG_RESP	n/a	LTP249	ltpFR	16	2	1	WHEEL	1603	n/a	0	n/a	n/a	n/a	n/a	n/a
3308067	RECOG_CONF	n/a	LTP249	ltpFR	16	2	1	WHEEL	1603	5	0	n/a	n/a	n/a	n/a	n/a
3309695	RECOG_TARGET	n/a	LTP249	ltpFR	16	2	0	RABBIT	1152	5	0	n/a	n/a	n/a	n/a	n/a
3310228	RECOG_RESP	n/a	LTP249	ltpFR	16	2	0	RABBIT	1152	n/a	0	n/a	n/a	n/a	n/a	n/a
3310668	RECOG_CONF	n/a	LTP249	ltpFR	16	2	0	RABBIT	1152	5	0	n/a	n/a	n/a	n/a	n/a
3312388	RECOG_LURE	n/a	LTP249	ltpFR	16	2	n/a	AMBULANCE	19	2	n/a	n/a	n/a	n/a	n/a	n/a
3313079	RECOG_RESP	n/a	LTP249	ltpFR	16	2	n/a	AMBULANCE	19	n/a	n/a	n/a	n/a	n/a	n/a	n/a
3313635	RECOG_CONF	n/a	LTP249	ltpFR	16	2	n/a	AMBULANCE	19	2	n/a	n/a	n/a	n/a	n/a	n/a
3315166	RECOG_TARGET	n/a	LTP249	ltpFR	16	2	1	RAG	1160	5	0	n/a	n/a	n/a	n/a	n/a
3315703	RECOG_RESP	n/a	LTP249	ltpFR	16	2	1	RAG	1160	n/a	0	n/a	n/a	n/a	n/a	n/a
3316174	RECOG_CONF	n/a	LTP249	ltpFR	16	2	1	RAG	1160	5	0	n/a	n/a	n/a	n/a	n/a
3317775	RECOG_TARGET	n/a	LTP249	ltpFR	16	2	1	UMPIRE	1535	5	1	n/a	n/a	n/a	n/a	n/a
3318550	RECOG_RESP	n/a	LTP249	ltpFR	16	2	1	UMPIRE	1535	n/a	1	n/a	n/a	n/a	n/a	n/a
3319002	RECOG_CONF	n/a	LTP249	ltpFR	16	2	1	UMPIRE	1535	5	1	n/a	n/a	n/a	n/a	n/a
3320733	RECOG_LURE	n/a	LTP249	ltpFR	16	2	n/a	FLOWER	584	3	n/a	n/a	n/a	n/a	n/a	n/a
3321503	RECOG_RESP	n/a	LTP249	ltpFR	16	2	n/a	FLOWER	584	n/a	n/a	n/a	n/a	n/a	n/a	n/a
3322318	RECOG_CONF	n/a	LTP249	ltpFR	16	2	n/a	FLOWER	584	3	n/a	n/a	n/a	n/a	n/a	n/a
3323915	RECOG_TARGET	n/a	LTP249	ltpFR	16	2	0	BUBBLE	183	5	0	n/a	n/a	n/a	n/a	n/a
3324523	RECOG_RESP	n/a	LTP249	ltpFR	16	2	0	BUBBLE	183	n/a	0	n/a	n/a	n/a	n/a	n/a
3325091	RECOG_CONF	n/a	LTP249	ltpFR	16	2	0	BUBBLE	183	5	0	n/a	n/a	n/a	n/a	n/a
3326606	RECOG_TARGET	n/a	LTP249	ltpFR	16	2	0	RICE	1190	5	0	n/a	n/a	n/a	n/a	n/a
3327106	RECOG_RESP	n/a	LTP249	ltpFR	16	2	0	RICE	1190	n/a	0	n/a	n/a	n/a	n/a	n/a
3327614	RECOG_CONF	n/a	LTP249	ltpFR	16	2	0	RICE	1190	5	0	n/a	n/a	n/a	n/a	n/a
3329303	RECOG_TARGET	n/a	LTP249	ltpFR	16	2	-1	DISH	474	5	-1	n/a	n/a	n/a	n/a	n/a
3329855	RECOG_RESP	n/a	LTP249	ltpFR	16	2	-1	DISH	474	n/a	-1	n/a	n/a	n/a	n/a	n/a
3330346	RECOG_CONF	n/a	LTP249	ltpFR	16	2	-1	DISH	474	5	-1	n/a	n/a	n/a	n/a	n/a
3331845	RECOG_TARGET	n/a	LTP249	ltpFR	16	2	0	WOLF	1619	5	1	n/a	n/a	n/a	n/a	n/a
3332302	RECOG_RESP	n/a	LTP249	ltpFR	16	2	0	WOLF	1619	n/a	1	n/a	n/a	n/a	n/a	n/a
3332809	RECOG_CONF	n/a	LTP249	ltpFR	16	2	0	WOLF	1619	5	1	n/a	n/a	n/a	n/a	n/a
3334372	RECOG_TARGET	n/a	LTP249	ltpFR	16	2	1	FARM	552	5	0	n/a	n/a	n/a	n/a	n/a
3334842	RECOG_RESP	n/a	LTP249	ltpFR	16	2	1	FARM	552	n/a	0	n/a	n/a	n/a	n/a	n/a
3335398	RECOG_CONF	n/a	LTP249	ltpFR	16	2	1	FARM	552	5	0	n/a	n/a	n/a	n/a	n/a
3336881	RECOG_LURE	n/a	LTP249	ltpFR	16	2	n/a	STALLION	1369	4	n/a	n/a	n/a	n/a	n/a	n/a
3337753	RECOG_RESP	n/a	LTP249	ltpFR	16	2	n/a	STALLION	1369	n/a	n/a	n/a	n/a	n/a	n/a	n/a
3338236	RECOG_CONF	n/a	LTP249	ltpFR	16	2	n/a	STALLION	1369	4	n/a	n/a	n/a	n/a	n/a	n/a
3339959	RECOG_TARGET	n/a	LTP249	ltpFR	16	2	1	ACTRESS	6	1	1	n/a	n/a	n/a	n/a	n/a
3340629	RECOG_RESP	n/a	LTP249	ltpFR	16	2	1	ACTRESS	6	n/a	1	n/a	n/a	n/a	n/a	n/a
3341170	RECOG_CONF	n/a	LTP249	ltpFR	16	2	1	ACTRESS	6	1	1	n/a	n/a	n/a	n/a	n/a
3342786	RECOG_TARGET	n/a	LTP249	ltpFR	16	2	0	COOKBOOK	373	1	0	n/a	n/a	n/a	n/a	n/a
3343686	RECOG_RESP	n/a	LTP249	ltpFR	16	2	0	COOKBOOK	373	n/a	0	n/a	n/a	n/a	n/a	n/a
3344226	RECOG_CONF	n/a	LTP249	ltpFR	16	2	0	COOKBOOK	373	1	0	n/a	n/a	n/a	n/a	n/a
3345781	RECOG_TARGET	n/a	LTP249	ltpFR	16	2	1	CHAIRPERSON	275	3	1	n/a	n/a	n/a	n/a	n/a
3346806	RECOG_RESP	n/a	LTP249	ltpFR	16	2	1	CHAIRPERSON	275	n/a	1	n/a	n/a	n/a	n/a	n/a
3347295	RECOG_CONF	n/a	LTP249	ltpFR	16	2	1	CHAIRPERSON	275	3	1	n/a	n/a	n/a	n/a	n/a
3348792	RECOG_LURE	n/a	LTP249	ltpFR	16	2	n/a	PARTNER	1017	2	n/a	n/a	n/a	n/a	n/a	n/a
3349557	RECOG_RESP	n/a	LTP249	ltpFR	16	2	n/a	PARTNER	1017	n/a	n/a	n/a	n/a	n/a	n/a	n/a
3350066	RECOG_CONF	n/a	LTP249	ltpFR	16	2	n/a	PARTNER	1017	2	n/a	n/a	n/a	n/a	n/a	n/a
3351620	RECOG_LURE	n/a	LTP249	ltpFR	16	2	n/a	BALLERINA	74	1	n/a	n/a	n/a	n/a	n/a	n/a
3352586	RECOG_RESP	n/a	LTP249	ltpFR	16	2	n/a	BALLERINA	74	n/a	n/a	n/a	n/a	n/a	n/a	n/a
3353092	RECOG_CONF	n/a	LTP249	ltpFR	16	2	n/a	BALLERINA	74	1	n/a	n/a	n/a	n/a	n/a	n/a
3354664	RECOG_TARGET	n/a	LTP249	ltpFR	16	2	-1	PUMPKIN	1142	4	-1	n/a	n/a	n/a	n/a	n/a
3355211	RECOG_RESP	n/a	LTP249	ltpFR	16	2	-1	PUMPKIN	1142	n/a	-1	n/a	n/a	n/a	n/a	n/a
3355679	RECOG_CONF	n/a	LTP249	ltpFR	16	2	-1	PUMPKIN	1142	4	-1	n/a	n/a	n/a	n/a	n/a
3357258	RECOG_TARGET	n/a	LTP249	ltpFR	16	2	1	MICROPHONE	890	4	0	n/a	n/a	n/a	n/a	n/a
3357812	RECOG_RESP	n/a	LTP249	ltpFR	16	2	1	MICROPHONE	890	n/a	0	n/a	n/a	n/a	n/a	n/a
3358376	RECOG_CONF	n/a	LTP249	ltpFR	16	2	1	MICROPHONE	890	4	0	n/a	n/a	n/a	n/a	n/a
3366581	REC_START	n/a	LTP249	ltpFR	16	3	n/a	n/a	n/a	n/a	n/a	n/a	n/a	n/a	n/a	n/a
3366626	RECOG_TARGET	n/a	LTP249	ltpFR	16	3	0	MINER	896	5	1	n/a	n/a	n/a	n/a	n/a
3367346	RECOG_RESP	n/a	LTP249	ltpFR	16	3	0	MINER	896	n/a	1	n/a	n/a	n/a	n/a	n/a
3367835	RECOG_CONF	n/a	LTP249	ltpFR	16	3	0	MINER	896	5	1	n/a	n/a	n/a	n/a	n/a
3369420	RECOG_TARGET	n/a	LTP249	ltpFR	16	3	-1	GORILLA	650	5	-1	n/a	n/a	n/a	n/a	n/a
3369911	RECOG_RESP	n/a	LTP249	ltpFR	16	3	-1	GORILLA	650	n/a	-1	n/a	n/a	n/a	n/a	n/a
3370400	RECOG_CONF	n/a	LTP249	ltpFR	16	3	-1	GORILLA	650	5	-1	n/a	n/a	n/a	n/a	n/a
3371896	RECOG_TARGET	n/a	LTP249	ltpFR	16	3	-1	SLACKS	1323	2	-1	n/a	n/a	n/a	n/a	n/a
3372542	RECOG_RESP	n/a	LTP249	ltpFR	16	3	-1	SLACKS	1323	n/a	-1	n/a	n/a	n/a	n/a	n/a
3373145	RECOG_CONF	n/a	LTP249	ltpFR	16	3	-1	SLACKS	1323	2	-1	n/a	n/a	n/a	n/a	n/a
3374720	RECOG_TARGET	n/a	LTP249	ltpFR	16	3	1	UNICORN	1538	5	1	n/a	n/a	n/a	n/a	n/a
3375312	RECOG_RESP	n/a	LTP249	ltpFR	16	3	1	UNICORN	1538	n/a	1	n/a	n/a	n/a	n/a	n/a
3375865	RECOG_CONF	n/a	LTP249	ltpFR	16	3	1	UNICORN	1538	5	1	n/a	n/a	n/a	n/a	n/a
3377348	RECOG_TARGET	n/a	LTP249	ltpFR	16	3	-1	HEATER	698	5	-1	n/a	n/a	n/a	n/a	n/a
3377975	RECOG_RESP	n/a	LTP249	ltpFR	16	3	-1	HEATER	698	n/a	-1	n/a	n/a	n/a	n/a	n/a
3378425	RECOG_CONF	n/a	LTP249	ltpFR	16	3	-1	HEATER	698	5	-1	n/a	n/a	n/a	n/a	n/a
3379976	RECOG_LURE	n/a	LTP249	ltpFR	16	3	n/a	CRACKER	398	4	n/a	n/a	n/a	n/a	n/a	n/a
3380733	RECOG_RESP	n/a	LTP249	ltpFR	16	3	n/a	CRACKER	398	n/a	n/a	n/a	n/a	n/a	n/a	n/a
3381302	RECOG_CONF	n/a	LTP249	ltpFR	16	3	n/a	CRACKER	398	4	n/a	n/a	n/a	n/a	n/a	n/a
3382837	RECOG_TARGET	n/a	LTP249	ltpFR	16	3	-1	PIE	1062	4	-1	n/a	n/a	n/a	n/a	n/a
3383569	RECOG_RESP	n/a	LTP249	ltpFR	16	3	-1	PIE	1062	n/a	-1	n/a	n/a	n/a	n/a	n/a
3384038	RECOG_CONF	n/a	LTP249	ltpFR	16	3	-1	PIE	1062	4	-1	n/a	n/a	n/a	n/a	n/a
3385581	RECOG_TARGET	n/a	LTP249	ltpFR	16	3	-1	OMELET	976	3	-1	n/a	n/a	n/a	n/a	n/a
3386340	RECOG_RESP	n/a	LTP249	ltpFR	16	3	-1	OMELET	976	n/a	-1	n/a	n/a	n/a	n/a	n/a
3386944	RECOG_CONF	n/a	LTP249	ltpFR	16	3	-1	OMELET	976	3	-1	n/a	n/a	n/a	n/a	n/a
3388609	RECOG_TARGET	n/a	LTP249	ltpFR	16	3	-1	BATH	98	5	-1	n/a	n/a	n/a	n/a	n/a
3389121	RECOG_RESP	n/a	LTP249	ltpFR	16	3	-1	BATH	98	n/a	-1	n/a	n/a	n/a	n/a	n/a
3389603	RECOG_CONF	n/a	LTP249	ltpFR	16	3	-1	BATH	98	5	-1	n/a	n/a	n/a	n/a	n/a
3391203	RECOG_TARGET	n/a	LTP249	ltpFR	16	3	0	LOBBY	836	2	1	n/a	n/a	n/a	n/a	n/a
3392032	RECOG_RESP	n/a	LTP249	ltpFR	16	3	0	LOBBY	836	n/a	1	n/a	n/a	n/a	n/a	n/a
3392565	RECOG_CONF	n/a	LTP249	ltpFR	16	3	0	LOBBY	836	2	1	n/a	n/a	n/a	n/a	n/a
3394181	RECOG_TARGET	n/a	LTP249	ltpFR	16	3	0	COOK	372	5	1	n/a	n/a	n/a	n/a	n/a
3394730	RECOG_RESP	n/a	LTP249	ltpFR	16	3	0	COOK	372	n/a	1	n/a	n/a	n/a	n/a	n/a
3395206	RECOG_CONF	n/a	LTP249	ltpFR	16	3	0	COOK	372	5	1	n/a	n/a	n/a	n/a	n/a
3396723	RECOG_TARGET	n/a	LTP249	ltpFR	16	3	0	VIOLA	1570	5	1	n/a	n/a	n/a	n/a	n/a
3397494	RECOG_RESP	n/a	LTP249	ltpFR	16	3	0	VIOLA	1570	n/a	1	n/a	n/a	n/a	n/a	n/a
3397994	RECOG_CONF	n/a	LTP249	ltpFR	16	3	0	VIOLA	1570	5	1	n/a	n/a	n/a	n/a	n/a
3399500	RECOG_TARGET	n/a	LTP249	ltpFR	16	3	-1	TYPEWRITER	1531	1	-1	n/a	n/a	n/a	n/a	n/a
3400393	RECOG_RESP	n/a	LTP249	ltpFR	16	3	-1	TYPEWRITER	1531	n/a	-1	n/a	n/a	n/a	n/a	n/a
3400853	RECOG_CONF	n/a	LTP249	ltpFR	16	3	-1	TYPEWRITER	1531	1	-1	n/a	n/a	n/a	n/a	n/a
3402441	RECOG_TARGET	n/a	LTP249	ltpFR	16	3	-1	JUPITER	765	5	-1	n/a	n/a	n/a	n/a	n/a
3402987	RECOG_RESP	n/a	LTP249	ltpFR	16	3	-1	JUPITER	765	n/a	-1	n/a	n/a	n/a	n/a	n/a
3403485	RECOG_CONF	n/a	LTP249	ltpFR	16	3	-1	JUPITER	765	5	-1	n/a	n/a	n/a	n/a	n/a
3404971	RECOG_TARGET	n/a	LTP249	ltpFR	16	3	0	DOG	480	5	1	n/a	n/a	n/a	n/a	n/a
3405461	RECOG_RESP	n/a	LTP249	ltpFR	16	3	0	DOG	480	n/a	1	n/a	n/a	n/a	n/a	n/a
3405937	RECOG_CONF	n/a	LTP249	ltpFR	16	3	0	DOG	480	5	1	n/a	n/a	n/a	n/a	n/a
3407443	RECOG_TARGET	n/a	LTP249	ltpFR	16	3	0	NICOTINE	951	5	0	n/a	n/a	n/a	n/a	n/a
3407994	RECOG_RESP	n/a	LTP249	ltpFR	16	3	0	NICOTINE	951	n/a	0	n/a	n/a	n/a	n/a	n/a
3408491	RECOG_CONF	n/a	LTP249	ltpFR	16	3	0	NICOTINE	951	5	0	n/a	n/a	n/a	n/a	n/a
3410073	RECOG_TARGET	n/a	LTP249	ltpFR	16	3	1	CARPENTER	246	1	1	n/a	n/a	n/a	n/a	n/a
3410586	RECOG_RESP	n/a	LTP249	ltpFR	16	3	1	CARPENTER	246	n/a	1	n/a	n/a	n/a	n/a	n/a
3411164	RECOG_CONF	n/a	LTP249	ltpFR	16	3	1	CARPENTER	246	1	1	n/a	n/a	n/a	n/a	n/a
3412800	RECOG_LURE	n/a	LTP249	ltpFR	16	3	n/a	ZEBRA	1635	1	n/a	n/a	n/a	n/a	n/a	n/a
3413674	RECOG_RESP	n/a	LTP249	ltpFR	16	3	n/a	ZEBRA	1635	n/a	n/a	n/a	n/a	n/a	n/a	n/a
3414316	RECOG_CONF	n/a	LTP249	ltpFR	16	3	n/a	ZEBRA	1635	1	n/a	n/a	n/a	n/a	n/a	n/a
3415929	RECOG_TARGET	n/a	LTP249	ltpFR	16	3	0	CANNON	232	5	1	n/a	n/a	n/a	n/a	n/a
3416553	RECOG_RESP	n/a	LTP249	ltpFR	16	3	0	CANNON	232	n/a	1	n/a	n/a	n/a	n/a	n/a
3417047	RECOG_CONF	n/a	LTP249	ltpFR	16	3	0	CANNON	232	5	1	n/a	n/a	n/a	n/a	n/a
3418555	RECOG_TARGET	n/a	LTP249	ltpFR	16	3	-1	FELLOW	558	4	-1	n/a	n/a	n/a	n/a	n/a
3419361	RECOG_RESP	n/a	LTP249	ltpFR	16	3	-1	FELLOW	558	n/a	-1	n/a	n/a	n/a	n/a	n/a
3419875	RECOG_CONF	n/a	LTP249	ltpFR	16	3	-1	FELLOW	558	4	-1	n/a	n/a	n/a	n/a	n/a
3437898	REC_START	n/a	LTP249	ltpFR	16	4	n/a	n/a	n/a	n/a	n/a	n/a	n/a	n/a	n/a	n/a
3437945	RECOG_TARGET	n/a	LTP249	ltpFR	16	4	1	RANCH	1166	5	0	n/a	n/a	n/a	n/a	n/a
3438546	RECOG_RESP	n/a	LTP249	ltpFR	16	4	1	RANCH	1166	n/a	0	n/a	n/a	n/a	n/a	n/a
3439003	RECOG_CONF	n/a	LTP249	ltpFR	16	4	1	RANCH	1166	5	0	n/a	n/a	n/a	n/a	n/a
3440521	RECOG_TARGET	n/a	LTP249	ltpFR	16	4	1	CANDIDATE	228	1	1	n/a	n/a	n/a	n/a	n/a
3440951	RECOG_RESP	n/a	LTP249	ltpFR	16	4	1	CANDIDATE	228	n/a	1	n/a	n/a	n/a	n/a	n/a
3441462	RECOG_CONF	n/a	LTP249	ltpFR	16	4	1	CANDIDATE	228	1	1	n/a	n/a	n/a	n/a	n/a
3443111	RECOG_TARGET	n/a	LTP249	ltpFR	16	4	0	LEOPARD	812	5	0	n/a	n/a	n/a	n/a	n/a
3443594	RECOG_RESP	n/a	LTP249	ltpFR	16	4	0	LEOPARD	812	n/a	0	n/a	n/a	n/a	n/a	n/a
3444019	RECOG_CONF	n/a	LTP249	ltpFR	16	4	0	LEOPARD	812	5	0	n/a	n/a	n/a	n/a	n/a
3445607	RECOG_LURE	n/a	LTP249	ltpFR	16	4	n/a	CHILD	299	3	n/a	n/a	n/a	n/a	n/a	n/a
3446335	RECOG_RESP	n/a	LTP249	ltpFR	16	4	n/a	CHILD	299	n/a	n/a	n/a	n/a	n/a	n/a	n/a
3446823	RECOG_CONF	n/a	LTP249	ltpFR	16	4	n/a	CHILD	299	3	n/a	n/a	n/a	n/a	n/a	n/a
3448218	RECOG_TARGET	n/a	LTP249	ltpFR	16	4	0	BLENDER	136	5	0	n/a	n/a	n/a	n/a	n/a
3448940	RECOG_RESP	n/a	LTP249	ltpFR	16	4	0	BLENDER	136	n/a	0	n/a	n/a	n/a	n/a	n/a
3449372	RECOG_CONF	n/a	LTP249	ltpFR	16	4	0	BLENDER	136	5	0	n/a	n/a	n/a	n/a	n/a
3450877	RECOG_TARGET	n/a	LTP249	ltpFR	16	4	0	COBBLER	335	5	1	n/a	n/a	n/a	n/a	n/a
3451377	RECOG_RESP	n/a	LTP249	ltpFR	16	4	0	COBBLER	335	n/a	1	n/a	n/a	n/a	n/a	n/a
3451831	RECOG_CONF	n/a	LTP249	ltpFR	16	4	0	COBBLER	335	5	1	n/a	n/a	n/a	n/a	n/a
3453317	RECOG_TARGET	n/a	LTP249	ltpFR	16	4	1	HARE	688	5	1	n/a	n/a	n/a	n/a	n/a
3453804	RECOG_RESP	n/a	LTP249	ltpFR	16	4	1	HARE	688	n/a	1	n/a	n/a	n/a	n/a	n/a
3454316	RECOG_CONF	n/a	LTP249	ltpFR	16	4	1	HARE	688	5	1	n/a	n/a	n/a	n/a	n/a
3455829	RECOG_TARGET	n/a	LTP249	ltpFR	16	4	0	BUCKLE	185	5	0	n/a	n/a	n/a	n/a	n/a
3456296	RECOG_RESP	n/a	LTP249	ltpFR	16	4	0	BUCKLE	185	n/a	0	n/a	n/a	n/a	n/a	n/a
3456757	RECOG_CONF	n/a	LTP249	ltpFR	16	4	0	BUCKLE	185	5	0	n/a	n/a	n/a	n/a	n/a
3458340	RECOG_TARGET	n/a	LTP249	ltpFR	16	4	0	QUILT	1151	3	1	n/a	n/a	n/a	n/a	n/a
3458947	RECOG_RESP	n/a	LTP249	ltpFR	16	4	0	QUILT	1151	n/a	1	n/a	n/a	n/a	n/a	n/a
3459490	RECOG_CONF	n/a	LTP249	ltpFR	16	4	0	QUILT	1151	3	1	n/a	n/a	n/a	n/a	n/a
3460998	RECOG_TARGET	n/a	LTP249	ltpFR	16	4	0	LUMBER	848	5	1	n/a	n/a	n/a	n/a	n/a
3461547	RECOG_RESP	n/a	LTP249	ltpFR	16	4	0	LUMBER	848	n/a	1	n/a	n/a	n/a	n/a	n/a
3462088	RECOG_CONF	n/a	LTP249	ltpFR	16	4	0	LUMBER	848	5	1	n/a	n/a	n/a	n/a	n/a
3463639	RECOG_LURE	n/a	LTP249	ltpFR	16	4	n/a	CONVENT	370	5	n/a	n/a	n/a	n/a	n/a	n/a
3464432	RECOG_RESP	n/a	LTP249	ltpFR	16	4	n/a	CONVENT	370	n/a	n/a	n/a	n/a	n/a	n/a	n/a
3464912	RECOG_CONF	n/a	LTP249	ltpFR	16	4	n/a	CONVENT	370	5	n/a	n/a	n/a	n/a	n/a	n/a
3466402	RECOG_TARGET	n/a	LTP249	ltpFR	16	4	0	VACUUM	1543	4	1	n/a	n/a	n/a	n/a	n/a
3467268	RECOG_RESP	n/a	LTP249	ltpFR	16	4	0	VACUUM	1543	n/a	1	n/a	n/a	n/a	n/a	n/a
3467765	RECOG_CONF	n/a	LTP249	ltpFR	16	4	0	VACUUM	1543	4	1	n/a	n/a	n/a	n/a	n/a
3469314	RECOG_TARGET	n/a	LTP249	ltpFR	16	4	-1	SHRIMP	1297	5	-1	n/a	n/a	n/a	n/a	n/a
3469863	RECOG_RESP	n/a	LTP249	ltpFR	16	4	-1	SHRIMP	1297	n/a	-1	n/a	n/a	n/a	n/a	n/a
3470349	RECOG_CONF	n/a	LTP249	ltpFR	16	4	-1	SHRIMP	1297	5	-1	n/a	n/a	n/a	n/a	n/a
3471722	RECOG_TARGET	n/a	LTP249	ltpFR	16	4	-1	SICKLE	1302	5	-1	n/a	n/a	n/a	n/a	n/a
3472152	RECOG_RESP	n/a	LTP249	ltpFR	16	4	-1	SICKLE	1302	n/a	-1	n/a	n/a	n/a	n/a	n/a
3472635	RECOG_CONF	n/a	LTP249	ltpFR	16	4	-1	SICKLE	1302	5	-1	n/a	n/a	n/a	n/a	n/a
3474166	RECOG_TARGET	n/a	LTP249	ltpFR	16	4	0	GIFT	635	5	0	n/a	n/a	n/a	n/a	n/a
3474764	RECOG_RESP	n/a	LTP249	ltpFR	16	4	0	GIFT	635	n/a	0	n/a	n/a	n/a	n/a	n/a
3475208	RECOG_CONF	n/a	LTP249	ltpFR	16	4	0	GIFT	635	5	0	n/a	n/a	n/a	n/a	n/a
3476691	RECOG_LURE	n/a	LTP249	ltpFR	16	4	n/a	HORIZON	717	3	n/a	n/a	n/a	n/a	n/a	n/a
3477492	RECOG_RESP	n/a	LTP249	ltpFR	16	4	n/a	HORIZON	717	n/a	n/a	n/a	n/a	n/a	n/a	n/a
3477993	RECOG_CONF	n/a	LTP249	ltpFR	16	4	n/a	HORIZON	717	3	n/a	n/a	n/a	n/a	n/a	n/a
3479565	RECOG_LURE	n/a	LTP249	ltpFR	16	4	n/a	BARN	89	1	n/a	n/a	n/a	n/a	n/a	n/a
3480127	RECOG_RESP	n/a	LTP249	ltpFR	16	4	n/a	BARN	89	n/a	n/a	n/a	n/a	n/a	n/a	n/a
3480680	RECOG_CONF	n/a	LTP249	ltpFR	16	4	n/a	BARN	89	1	n/a	n/a	n/a	n/a	n/a	n/a
3482313	RECOG_TARGET	n/a	LTP249	ltpFR	16	4	0	SLEIGH	1325	5	1	n/a	n/a	n/a	n/a	n/a
3483085	RECOG_RESP	n/a	LTP249	ltpFR	16	4	0	SLEIGH	1325	n/a	1	n/a	n/a	n/a	n/a	n/a
3483567	RECOG_CONF	n/a	LTP249	ltpFR	16	4	0	SLEIGH	1325	5	1	n/a	n/a	n/a	n/a	n/a
3485106	RECOG_TARGET	n/a	LTP249	ltpFR	16	4	-1	SUBURB	1399	5	-1	n/a	n/a	n/a	n/a	n/a
3485744	RECOG_RESP	n/a	LTP249	ltpFR	16	4	-1	SUBURB	1399	n/a	-1	n/a	n/a	n/a	n/a	n/a
3486223	RECOG_CONF	n/a	LTP249	ltpFR	16	4	-1	SUBURB	1399	5	-1	n/a	n/a	n/a	n/a	n/a
3487783	RECOG_TARGET	n/a	LTP249	ltpFR	16	4	-1	WILDERNESS	1610	3	-1	n/a	n/a	n/a	n/a	n/a
3488303	RECOG_RESP	n/a	LTP249	ltpFR	16	4	-1	WILDERNESS	1610	n/a	-1	n/a	n/a	n/a	n/a	n/a
3488952	RECOG_CONF	n/a	LTP249	ltpFR	16	4	-1	WILDERNESS	1610	3	-1	n/a	n/a	n/a	n/a	n/a
3500081	REC_START	n/a	LTP249	ltpFR	16	5	n/a	n/a	n/a	n/a	n/a	n/a	n/a	n/a	n/a	n/a
3500130	RECOG_LURE	n/a	LTP249	ltpFR	16	5	n/a	LIMB	822	4	n/a	n/a	n/a	n/a	n/a	n/a
3501004	RECOG_RESP	n/a	LTP249	ltpFR	16	5	n/a	LIMB	822	n/a	n/a	n/a	n/a	n/a	n/a	n/a
3501454	RECOG_CONF	n/a	LTP249	ltpFR	16	5	n/a	LIMB	822	4	n/a	n/a	n/a	n/a	n/a	n/a
3503040	RECOG_LURE	n/a	LTP249	ltpFR	16	5	n/a	MAT	877	1	n/a	n/a	n/a	n/a	n/a	n/a
3504096	RECOG_RESP	n/a	LTP249	ltpFR	16	5	n/a	MAT	877	n/a	n/a	n/a	n/a	n/a	n/a	n/a
3505025	RECOG_CONF	n/a	LTP249	ltpFR	16	5	n/a	MAT	877	1	n/a	n/a	n/a	n/a	n/a	n/a
3506701	RECOG_LURE	n/a	LTP249	ltpFR	16	5	n/a	TAPE	1433	2	n/a	n/a	n/a	n/a	n/a	n/a
3507502	RECOG_RESP	n/a	LTP249	ltpFR	16	5	n/a	TAPE	1433	n/a	n/a	n/a	n/a	n/a	n/a	n/a
3508129	RECOG_CONF	n/a	LTP249	ltpFR	16	5	n/a	TAPE	1433	2	n/a	n/a	n/a	n/a	n/a	n/a
3509615	RECOG_TARGET	n/a	LTP249	ltpFR	16	5	-1	NECKLACE	940	5	-1	n/a	n/a	n/a	n/a	n/a
3510263	RECOG_RESP	n/a	LTP249	ltpFR	16	5	-1	NECKLACE	940	n/a	-1	n/a	n/a	n/a	n/a	n/a
3510752	RECOG_CONF	n/a	LTP249	ltpFR	16	5	-1	NECKLACE	940	5	-1	n/a	n/a	n/a	n/a	n/a
3512310	RECOG_TARGET	n/a	LTP249	ltpFR	16	5	1	MEADOW	881	5	0	n/a	n/a	n/a	n/a	n/a
3512934	RECOG_RESP	n/a	LTP249	ltpFR	16	5	1	MEADOW	881	n/a	0	n/a	n/a	n/a	n/a	n/a
3513416	RECOG_CONF	n/a	LTP249	ltpFR	16	5	1	MEADOW	881	5	0	n/a	n/a	n/a	n/a	n/a
3514918	RECOG_TARGET	n/a	LTP249	ltpFR	16	5	0	DRIVEWAY	500	3	1	n/a	n/a	n/a	n/a	n/a
3515681	RECOG_RESP	n/a	LTP249	ltpFR	16	5	0	DRIVEWAY	500	n/a	1	n/a	n/a	n/a	n/a	n/a
3516267	RECOG_CONF	n/a	LTP249	ltpFR	16	5	0	DRIVEWAY	500	3	1	n/a	n/a	n/a	n/a	n/a
3517843	RECOG_LURE	n/a	LTP249	ltpFR	16	5	n/a	MARINE	869	4	n/a	n/a	n/a	n/a	n/a	n/a
3518706	RECOG_RESP	n/a	LTP249	ltpFR	16	5	n/a	MARINE	869	n/a	n/a	n/a	n/a	n/a	n/a	n/a
3519206	RECOG_CONF	n/a	LTP249	ltpFR	16	5	n/a	MARINE	869	4	n/a	n/a	n/a	n/a	n/a	n/a
3520791	RECOG_TARGET	n/a	LTP249	ltpFR	16	5	1	PLATE	1086	5	0	n/a	n/a	n/a	n/a	n/a
3521341	RECOG_RESP	n/a	LTP249	ltpFR	16	5	1	PLATE	1086	n/a	0	n/a	n/a	n/a	n/a	n/a
3521816	RECOG_CONF	n/a	LTP249	ltpFR	16	5	1	PLATE	1086	5	0	n/a	n/a	n/a	n/a	n/a
3523368	RECOG_TARGET	n/a	LTP249	ltpFR	16	5	1	GODDESS	646	5	1	n/a	n/a	n/a	n/a	n/a
3523891	RECOG_RESP	n/a	LTP249	ltpFR	16	5	1	GODDESS	646	n/a	1	n/a	n/a	n/a	n/a	n/a
3524430	RECOG_CONF	n/a	LTP249	ltpFR	16	5	1	GODDESS	646	5	1	n/a	n/a	n/a	n/a	n/a
3525910	RECOG_TARGET	n/a	LTP249	ltpFR	16	5	0	SENATE	1267	5	1	n/a	n/a	n/a	n/a	n/a
3526461	RECOG_RESP	n/a	LTP249	ltpFR	16	5	0	SENATE	1267	n/a	1	n/a	n/a	n/a	n/a	n/a
3526832	RECOG_CONF	n/a	LTP249	ltpFR	16	5	0	SENATE	1267	5	1	n/a	n/a	n/a	n/a	n/a
3528550	RECOG_TARGET	n/a	LTP249	ltpFR	16	5	1	SHEARS	1276	5	0	n/a	n/a	n/a	n/a	n/a
3529022	RECOG_RESP	n/a	LTP249	ltpFR	16	5	1	SHEARS	1276	n/a	0	n/a	n/a	n/a	n/a	n/a
3529479	RECOG_CONF	n/a	LTP249	ltpFR	16	5	1	SHEARS	1276	5	0	n/a	n/a	n/a	n/a	n/a
3530895	RECOG_TARGET	n/a	LTP249	ltpFR	16	5	-1	CONTAINER	366	5	-1	n/a	n/a	n/a	n/a	n/a
3531489	RECOG_RESP	n/a	LTP249	ltpFR	16	5	-1	CONTAINER	366	n/a	-1	n/a	n/a	n/a	n/a	n/a
3531940	RECOG_CONF	n/a	LTP249	ltpFR	16	5	-1	CONTAINER	366	5	-1	n/a	n/a	n/a	n/a	n/a
3533519	RECOG_TARGET	n/a	LTP249	ltpFR	16	5	-1	SPHINX	1349	5	-1	n/a	n/a	n/a	n/a	n/a
3534211	RECOG_RESP	n/a	LTP249	ltpFR	16	5	-1	SPHINX	1349	n/a	-1	n/a	n/a	n/a	n/a	n/a
3534767	RECOG_CONF	n/a	LTP249	ltpFR	16	5	-1	SPHINX	1349	5	-1	n/a	n/a	n/a	n/a	n/a
3536383	RECOG_TARGET	n/a	LTP249	ltpFR	16	5	1	WALNUT	1584	5	1	n/a	n/a	n/a	n/a	n/a
3536965	RECOG_RESP	n/a	LTP249	ltpFR	16	5	1	WALNUT	1584	n/a	1	n/a	n/a	n/a	n/a	n/a
3537411	RECOG_CONF	n/a	LTP249	ltpFR	16	5	1	WALNUT	1584	5	1	n/a	n/a	n/a	n/a	n/a
3538758	RECOG_TARGET	n/a	LTP249	ltpFR	16	5	-1	COFFEE	341	5	-1	n/a	n/a	n/a	n/a	n/a
3539210	RECOG_RESP	n/a	LTP249	ltpFR	16	5	-1	COFFEE	341	n/a	-1	n/a	n/a	n/a	n/a	n/a
3539636	RECOG_CONF	n/a	LTP249	ltpFR	16	5	-1	COFFEE	341	5	-1	n/a	n/a	n/a	n/a	n/a
3541432	RECOG_LURE	n/a	LTP249	ltpFR	16	5	n/a	SAGE	1222	5	n/a	n/a	n/a	n/a	n/a	n/a
3542129	RECOG_RESP	n/a	LTP249	ltpFR	16	5	n/a	SAGE	1222	n/a	n/a	n/a	n/a	n/a	n/a	n/a
3542659	RECOG_CONF	n/a	LTP249	ltpFR	16	5	n/a	SAGE	1222	5	n/a	n/a	n/a	n/a	n/a	n/a
3544263	RECOG_TARGET	n/a	LTP249	ltpFR	16	5	-1	DICE	461	4	-1	n/a	n/a	n/a	n/a	n/a
3544996	RECOG_RESP	n/a	LTP249	ltpFR	16	5	-1	DICE	461	n/a	-1	n/a	n/a	n/a	n/a	n/a
3545463	RECOG_CONF	n/a	LTP249	ltpFR	16	5	-1	DICE	461	4	-1	n/a	n/a	n/a	n/a	n/a
3546956	RECOG_TARGET	n/a	LTP249	ltpFR	16	5	1	CREEK	404	3	0	n/a	n/a	n/a	n/a	n/a
3547816	RECOG_RESP	n/a	LTP249	ltpFR	16	5	1	CREEK	404	n/a	0	n/a	n/a	n/a	n/a	n/a
3548321	RECOG_CONF	n/a	LTP249	ltpFR	16	5	1	CREEK	404	3	0	n/a	n/a	n/a	n/a	n/a
3549950	RECOG_TARGET	n/a	LTP249	ltpFR	16	5	0	LEVER	815	5	0	n/a	n/a	n/a	n/a	n/a
3550675	RECOG_RESP	n/a	LTP249	ltpFR	16	5	0	LEVER	815	n/a	0	n/a	n/a	n/a	n/a	n/a
3551145	RECOG_CONF	n/a	LTP249	ltpFR	16	5	0	LEVER	815	5	0	n/a	n/a	n/a	n/a	n/a
3552811	RECOG_LURE	n/a	LTP249	ltpFR	16	5	n/a	ASHTRAY	45	3	n/a	n/a	n/a	n/a	n/a	n/a
3553444	RECOG_RESP	n/a	LTP249	ltpFR	16	5	n/a	ASHTRAY	45	n/a	n/a	n/a	n/a	n/a	n/a	n/a
3554094	RECOG_CONF	n/a	LTP249	ltpFR	16	5	n/a	ASHTRAY	45	3	n/a	n/a	n/a	n/a	n/a	n/a
3563627	REC_START	n/a	LTP249	ltpFR	16	6	n/a	n/a	n/a	n/a	n/a	n/a	n/a	n/a	n/a	n/a
3563669	RECOG_TARGET	n/a	LTP249	ltpFR	16	6	-1	PEAR	1033	5	-1	n/a	n/a	n/a	n/a	n/a
3564327	RECOG_RESP	n/a	LTP249	ltpFR	16	6	-1	PEAR	1033	n/a	-1	n/a	n/a	n/a	n/a	n/a
3564816	RECOG_CONF	n/a	LTP249	ltpFR	16	6	-1	PEAR	1033	5	-1	n/a	n/a	n/a	n/a	n/a
3566296	RECOG_LURE	n/a	LTP249	ltpFR	16	6	n/a	NEPTUNE	943	1	n/a	n/a	n/a	n/a	n/a	n/a
3567381	RECOG_RESP	n/a	LTP249	ltpFR	16	6	n/a	NEPTUNE	943	n/a	n/a	n/a	n/a	n/a	n/a	n/a
3567868	RECOG_CONF	n/a	LTP249	ltpFR	16	6	n/a	NEPTUNE	943	1	n/a	n/a	n/a	n/a	n/a	n/a
3569491	RECOG_TARGET	n/a	LTP249	ltpFR	16	6	0	CHAIR	274	3	1	n/a	n/a	n/a	n/a	n/a
3570461	RECOG_RESP	n/a	LTP249	ltpFR	16	6	0	CHAIR	274	n/a	1	n/a	n/a	n/a	n/a	n/a
3570917	RECOG_CONF	n/a	LTP249	ltpFR	16	6	0	CHAIR	274	3	1	n/a	n/a	n/a	n/a	n/a
3572599	RECOG_TARGET	n/a	LTP249	ltpFR	16	6	0	HOUND	724	5	1	n/a	n/a	n/a	n/a	n/a
3573153	RECOG_RESP	n/a	LTP249	ltpFR	16	6	0	HOUND	724	n/a	1	n/a	n/a	n/a	n/a	n/a
3573624	RECOG_CONF	n/a	LTP249	ltpFR	16	6	0	HOUND	724	5	1	n/a	n/a	n/a	n/a	n/a
3575197	RECOG_LURE	n/a	LTP249	ltpFR	16	6	n/a	ALBUM	14	3	n/a	n/a	n/a	n/a	n/a	n/a
3575925	RECOG_RESP	n/a	LTP249	ltpFR	16	6	n/a	ALBUM	14	n/a	n/a	n/a	n/a	n/a	n/a	n/a
3576470	RECOG_CONF	n/a	LTP249	ltpFR	16	6	n/a	ALBUM	14	3	n/a	n/a	n/a	n/a	n/a	n/a
3577939	RECOG_LURE	n/a	LTP249	ltpFR	16	6	n/a	ANGEL	22	4	n/a	n/a	n/a	n/a	n/a	n/a
3578596	RECOG_RESP	n/a	LTP249	ltpFR	16	6	n/a	ANGEL	22	n/a	n/a	n/a	n/a	n/a	n/a	n/a
3579046	RECOG_CONF	n/a	LTP249	ltpFR	16	6	n/a	ANGEL	22	4	n/a	n/a	n/a	n/a	n/a	n/a
3580750	RECOG_TARGET	n/a	LTP249	ltpFR	16	6	1	COMMUNITY	356	5	1	n/a	n/a	n/a	n/a	n/a
3581453	RECOG_RESP	n/a	LTP249	ltpFR	16	6	1	COMMUNITY	356	n/a	1	n/a	n/a	n/a	n/a	n/a
3581914	RECOG_CONF	n/a	LTP249	ltpFR	16	6	1	COMMUNITY	356	5	1	n/a	n/a	n/a	n/a	n/a
3583494	RECOG_LURE	n/a	LTP249	ltpFR	16	6	n/a	UNIVERSE	1540	5	n/a	n/a	n/a	n/a	n/a	n/a
3584257	RECOG_RESP	n/a	LTP249	ltpFR	16	6	n/a	UNIVERSE	1540	n/a	n/a	n/a	n/a	n/a	n/a	n/a
3584688	RECOG_CONF	n/a	LTP249	ltpFR	16	6	n/a	UNIVERSE	1540	5	n/a	n/a	n/a	n/a	n/a	n/a
3586355	RECOG_TARGET	n/a	LTP249	ltpFR	16	6	0	SHOELACE	1289	5	0	n/a	n/a	n/a	n/a	n/a
3586993	RECOG_RESP	n/a	LTP249	ltpFR	16	6	0	SHOELACE	1289	n/a	0	n/a	n/a	n/a	n/a	n/a
3587458	RECOG_CONF	n/a	LTP249	ltpFR	16	6	0	SHOELACE	1289	5	0	n/a	n/a	n/a	n/a	n/a
3589048	RECOG_LURE	n/a	LTP249	ltpFR	16	6	n/a	BIBLE	124	1	n/a	n/a	n/a	n/a	n/a	n/a
3589435	RECOG_RESP	n/a	LTP249	ltpFR	16	6	n/a	BIBLE	124	n/a	n/a	n/a	n/a	n/a	n/a	n/a
3590033	RECOG_CONF	n/a	LTP249	ltpFR	16	6	n/a	BIBLE	124	1	n/a	n/a	n/a	n/a	n/a	n/a
