onset	duration	trial_type	sample	stim_file	subject	experiment	session	trial	item_name	item_num	list	answer	test_x	test_y	test_z
214.048	n/a	SESS_START	107024	n/a	LTP290	ltpFR2	10	n/a	n/a	n/a	n/a	n/a	0	0	0
227.562	n/a	START	113781	n/a	LTP290	ltpFR2	10	n/a	n/a	n/a	-1	n/a	n/a	n/a	n/a
227.594	n/a	PROB	113797	n/a	LTP290	ltpFR2	10	n/a	n/a	n/a	-1	11	6	4	1
229.192	n/a	PROB	114596	n/a	LTP290	ltpFR2	10	n/a	n/a	n/a	-1	17	6	9	2
230.84	n/a	PROB	115420	n/a	LTP290	ltpFR2	10	n/a	n/a	n/a	-1	18	4	6	8
231.972	n/a	PROB	115986	n/a	LTP290	ltpFR2	10	n/a	n/a	n/a	-1	11	5	3	3
233.386	n/a	PROB	116693	n/a	LTP290	ltpFR2	10	n/a	n/a	n/a	-1	14	8	4	2
234.816	n/a	PROB	117408	n/a	LTP290	ltpFR2	10	n/a	n/a	n/a	-1	8	2	1	5
236.066	n/a	PROB	118033	n/a	LTP290	ltpFR2	10	n/a	n/a	n/a	-1	18	9	7	2
237.646	n/a	PROB	118823	n/a	LTP290	ltpFR2	10	n/a	n/a	n/a	-1	15	3	9	3
239.328	n/a	STOP	119664	n/a	LTP290	ltpFR2	10	n/a	n/a	n/a	-1	n/a	n/a	n/a	n/a
270.448	n/a	WORD	135224	wordpools/wasnorm_wordpool_576.txt	LTP290	ltpFR2	10	1	MAMMAL	861	n/a	n/a	0	0	0
273.128	n/a	WORD	136564	wordpools/wasnorm_wordpool_576.txt	LTP290	ltpFR2	10	1	ICING	732	n/a	n/a	0	0	0
275.656	n/a	WORD	137828	wordpools/wasnorm_wordpool_576.txt	LTP290	ltpFR2	10	1	SHORTCAKE	1292	n/a	n/a	0	0	0
278.452	n/a	WORD	139226	wordpools/wasnorm_wordpool_576.txt	LTP290	ltpFR2	10	1	FILM	565	n/a	n/a	0	0	0
281.116	n/a	WORD	140558	wordpools/wasnorm_wordpool_576.txt	LTP290	ltpFR2	10	1	SPIDER	1351	n/a	n/a	0	0	0
283.694	n/a	WORD	141847	wordpools/wasnorm_wordpool_576.txt	LTP290	ltpFR2	10	1	BEAVER	109	n/a	n/a	0	0	0
286.192	n/a	WORD	143096	wordpools/wasnorm_wordpool_576.txt	LTP290	ltpFR2	10	1	PIANO	1057	n/a	n/a	0	0	0
288.77	n/a	WORD	144385	wordpools/wasnorm_wordpool_576.txt	LTP290	ltpFR2	10	1	QUEEN	1149	n/a	n/a	0	0	0
291.384	n/a	WORD	145692	wordpools/wasnorm_wordpool_576.txt	LTP290	ltpFR2	10	1	JURY	766	n/a	n/a	0	0	0
293.83	n/a	WORD	146915	wordpools/wasnorm_wordpool_576.txt	LTP290	ltpFR2	10	1	DRUG	501	n/a	n/a	0	0	0
296.41	n/a	WORD	148205	wordpools/wasnorm_wordpool_576.txt	LTP290	ltpFR2	10	1	COLONEL	348	n/a	n/a	0	0	0
299.206	n/a	WORD	149603	wordpools/wasnorm_wordpool_576.txt	LTP290	ltpFR2	10	1	CLIMBER	323	n/a	n/a	0	0	0
301.986	n/a	WORD	150993	wordpools/wasnorm_wordpool_576.txt	LTP290	ltpFR2	10	1	LADDER	793	n/a	n/a	0	0	0
304.73	n/a	WORD	152365	wordpools/wasnorm_wordpool_576.txt	LTP290	ltpFR2	10	1	DRAWING	494	n/a	n/a	0	0	0
307.294	n/a	WORD	153647	wordpools/wasnorm_wordpool_576.txt	LTP290	ltpFR2	10	1	POSSUM	1112	n/a	n/a	0	0	0
309.974	n/a	WORD	154987	wordpools/wasnorm_wordpool_576.txt	LTP290	ltpFR2	10	1	CHIPMUNK	304	n/a	n/a	0	0	0
312.468	n/a	WORD	156234	wordpools/wasnorm_wordpool_576.txt	LTP290	ltpFR2	10	1	VALLEY	1545	n/a	n/a	0	0	0
315.132	n/a	WORD	157566	wordpools/wasnorm_wordpool_576.txt	LTP290	ltpFR2	10	1	FRAME	600	n/a	n/a	0	0	0
317.876	n/a	WORD	158938	wordpools/wasnorm_wordpool_576.txt	LTP290	ltpFR2	10	1	JOURNAL	760	n/a	n/a	0	0	0
320.574	n/a	WORD	160287	wordpools/wasnorm_wordpool_576.txt	LTP290	ltpFR2	10	1	DRAGON	492	n/a	n/a	0	0	0
323.104	n/a	WORD	161552	wordpools/wasnorm_wordpool_576.txt	LTP290	ltpFR2	10	1	INMATE	738	n/a	n/a	0	0	0
325.918	n/a	WORD	162959	wordpools/wasnorm_wordpool_576.txt	LTP290	ltpFR2	10	1	WRIST	1626	n/a	n/a	0	0	0
328.428	n/a	WORD	164214	wordpools/wasnorm_wordpool_576.txt	LTP290	ltpFR2	10	1	BLUEPRINT	142	n/a	n/a	0	0	0
331.042	n/a	WORD	165521	wordpools/wasnorm_wordpool_576.txt	LTP290	ltpFR2	10	1	TROMBONE	1508	n/a	n/a	0	0	0
332.656	n/a	START	166328	n/a	LTP290	ltpFR2	10	n/a	n/a	n/a	1	n/a	n/a	n/a	n/a
333.824	n/a	DISTRACTOR	166912	n/a	LTP290	ltpFR2	10	1	n/a	n/a	n/a	n/a	0	0	0
333.838	n/a	PROB	166919	n/a	LTP290	ltpFR2	10	n/a	n/a	n/a	1	10	3	2	5
335.868	n/a	PROB	167934	n/a	LTP290	ltpFR2	10	n/a	n/a	n/a	1	14	6	3	5
337.266	n/a	PROB	168633	n/a	LTP290	ltpFR2	10	n/a	n/a	n/a	1	10	1	5	4
338.414	n/a	PROB	169207	n/a	LTP290	ltpFR2	10	n/a	n/a	n/a	1	19	7	7	5
339.812	n/a	PROB	169906	n/a	LTP290	ltpFR2	10	n/a	n/a	n/a	1	10	3	4	3
341.11	n/a	PROB	170555	n/a	LTP290	ltpFR2	10	n/a	n/a	n/a	1	17	7	9	1
342.492	n/a	PROB	171246	n/a	LTP290	ltpFR2	10	n/a	n/a	n/a	1	19	4	9	6
344.206	n/a	PROB	172103	n/a	LTP290	ltpFR2	10	n/a	n/a	n/a	1	13	4	2	7
345.704	n/a	PROB	172852	n/a	LTP290	ltpFR2	10	n/a	n/a	n/a	1	17	6	8	3
347.684	n/a	PROB	173842	n/a	LTP290	ltpFR2	10	n/a	n/a	n/a	1	19	7	6	6
349.398	n/a	PROB	174699	n/a	LTP290	ltpFR2	10	n/a	n/a	n/a	1	15	1	9	5
350.612	n/a	PROB	175306	n/a	LTP290	ltpFR2	10	n/a	n/a	n/a	1	17	9	6	2
352.212	n/a	PROB	176106	n/a	LTP290	ltpFR2	10	n/a	n/a	n/a	1	18	2	8	8
353.508	n/a	PROB	176754	n/a	LTP290	ltpFR2	10	n/a	n/a	n/a	1	17	6	9	2
355.41	n/a	STOP	177705	n/a	LTP290	ltpFR2	10	n/a	n/a	n/a	1	n/a	n/a	n/a	n/a
358.534	n/a	REC_START	179267	n/a	LTP290	ltpFR2	10	1	n/a	n/a	n/a	n/a	0	0	0
359.33	n/a	REC_WORD	179665	wordpools/wasnorm_wordpool_576.txt	LTP290	ltpFR2	10	1	INMATE	738	n/a	n/a	0	0	0
359.866	n/a	REC_WORD	179933	wordpools/wasnorm_wordpool_576.txt	LTP290	ltpFR2	10	1	WRIST	1626	n/a	n/a	0	0	0
360.612	n/a	REC_WORD	180306	wordpools/wasnorm_wordpool_576.txt	LTP290	ltpFR2	10	1	MAMMAL	861	n/a	n/a	0	0	0
449.218	n/a	DISTRACTOR	224609	n/a	LTP290	ltpFR2	10	2	n/a	n/a	n/a	n/a	0	0	0
449.218	n/a	START	224609	n/a	LTP290	ltpFR2	10	n/a	n/a	n/a	2	n/a	n/a	n/a	n/a
449.25	n/a	PROB	224625	n/a	LTP290	ltpFR2	10	n/a	n/a	n/a	2	20	9	7	4
450.848	n/a	PROB	225424	n/a	LTP290	ltpFR2	10	n/a	n/a	n/a	2	6	3	1	2
452.28	n/a	PROB	226140	n/a	LTP290	ltpFR2	10	n/a	n/a	n/a	2	17	8	1	8
454.358	n/a	PROB	227179	n/a	LTP290	ltpFR2	10	n/a	n/a	n/a	2	10	4	4	2
455.74	n/a	PROB	227870	n/a	LTP290	ltpFR2	10	n/a	n/a	n/a	2	11	6	3	2
456.922	n/a	PROB	228461	n/a	LTP290	ltpFR2	10	n/a	n/a	n/a	2	17	7	4	6
458.386	n/a	PROB	229193	n/a	LTP290	ltpFR2	10	n/a	n/a	n/a	2	10	1	6	3
460.234	n/a	PROB	230117	n/a	LTP290	ltpFR2	10	n/a	n/a	n/a	2	10	3	5	2
461.614	n/a	PROB	230807	n/a	LTP290	ltpFR2	10	n/a	n/a	n/a	2	9	5	1	3
463.296	n/a	PROB	231648	n/a	LTP290	ltpFR2	10	n/a	n/a	n/a	2	18	3	9	6
465.028	n/a	PROB	232514	n/a	LTP290	ltpFR2	10	n/a	n/a	n/a	2	13	3	3	5
467.208	n/a	PROB	233604	n/a	LTP290	ltpFR2	10	n/a	n/a	n/a	2	13	4	7	2
470.22	n/a	PROB	235110	n/a	LTP290	ltpFR2	10	n/a	n/a	n/a	2	12	6	4	2
471.716	n/a	PROB	235858	n/a	LTP290	ltpFR2	10	n/a	n/a	n/a	2	12	2	6	4
472.828	n/a	STOP	236414	n/a	LTP290	ltpFR2	10	n/a	n/a	n/a	2	n/a	n/a	n/a	n/a
474.328	n/a	WORD	237164	wordpools/wasnorm_wordpool_576.txt	LTP290	ltpFR2	10	2	MOP	916	n/a	n/a	0	0	0
476.808	n/a	WORD	238404	wordpools/wasnorm_wordpool_576.txt	LTP290	ltpFR2	10	2	YOLK	1633	n/a	n/a	0	0	0
479.438	n/a	WORD	239719	wordpools/wasnorm_wordpool_576.txt	LTP290	ltpFR2	10	2	SKILLET	1317	n/a	n/a	0	0	0
482.218	n/a	WORD	241109	wordpools/wasnorm_wordpool_576.txt	LTP290	ltpFR2	10	2	ONION	977	n/a	n/a	0	0	0
484.88	n/a	WORD	242440	wordpools/wasnorm_wordpool_576.txt	LTP290	ltpFR2	10	2	NECKLACE	940	n/a	n/a	0	0	0
487.594	n/a	WORD	243797	wordpools/wasnorm_wordpool_576.txt	LTP290	ltpFR2	10	2	MONSTER	912	n/a	n/a	0	0	0
490.356	n/a	WORD	245178	wordpools/wasnorm_wordpool_576.txt	LTP290	ltpFR2	10	2	AGENT	10	n/a	n/a	0	0	0
492.986	n/a	WORD	246493	wordpools/wasnorm_wordpool_576.txt	LTP290	ltpFR2	10	2	FLAG	573	n/a	n/a	0	0	0
495.764	n/a	WORD	247882	wordpools/wasnorm_wordpool_576.txt	LTP290	ltpFR2	10	2	JAPAN	749	n/a	n/a	0	0	0
498.394	n/a	WORD	249197	wordpools/wasnorm_wordpool_576.txt	LTP290	ltpFR2	10	2	MASK	876	n/a	n/a	0	0	0
500.906	n/a	WORD	250453	wordpools/wasnorm_wordpool_576.txt	LTP290	ltpFR2	10	2	RECORD	1176	n/a	n/a	0	0	0
503.386	n/a	WORD	251693	wordpools/wasnorm_wordpool_576.txt	LTP290	ltpFR2	10	2	NURSE	963	n/a	n/a	0	0	0
505.9	n/a	WORD	252950	wordpools/wasnorm_wordpool_576.txt	LTP290	ltpFR2	10	2	GRAPE	654	n/a	n/a	0	0	0
508.396	n/a	WORD	254198	wordpools/wasnorm_wordpool_576.txt	LTP290	ltpFR2	10	2	CHAMPAGNE	278	n/a	n/a	0	0	0
510.942	n/a	WORD	255471	wordpools/wasnorm_wordpool_576.txt	LTP290	ltpFR2	10	2	CRUTCH	417	n/a	n/a	0	0	0
513.454	n/a	WORD	256727	wordpools/wasnorm_wordpool_576.txt	LTP290	ltpFR2	10	2	NAPKIN	937	n/a	n/a	0	0	0
516.118	n/a	WORD	258059	wordpools/wasnorm_wordpool_576.txt	LTP290	ltpFR2	10	2	CEILING	265	n/a	n/a	0	0	0
518.764	n/a	WORD	259382	wordpools/wasnorm_wordpool_576.txt	LTP290	ltpFR2	10	2	SLUG	1329	n/a	n/a	0	0	0
521.46	n/a	WORD	260730	wordpools/wasnorm_wordpool_576.txt	LTP290	ltpFR2	10	2	SHIRT	1287	n/a	n/a	0	0	0
524.19	n/a	WORD	262095	wordpools/wasnorm_wordpool_576.txt	LTP290	ltpFR2	10	2	DONOR	485	n/a	n/a	0	0	0
526.634	n/a	WORD	263317	wordpools/wasnorm_wordpool_576.txt	LTP290	ltpFR2	10	2	LEADER	807	n/a	n/a	0	0	0
529.232	n/a	WORD	264616	wordpools/wasnorm_wordpool_576.txt	LTP290	ltpFR2	10	2	SNAIL	1332	n/a	n/a	0	0	0
531.794	n/a	WORD	265897	wordpools/wasnorm_wordpool_576.txt	LTP290	ltpFR2	10	2	BADGE	68	n/a	n/a	0	0	0
534.34	n/a	WORD	267170	wordpools/wasnorm_wordpool_576.txt	LTP290	ltpFR2	10	2	KETCHUP	771	n/a	n/a	0	0	0
535.956	n/a	START	267978	n/a	LTP290	ltpFR2	10	n/a	n/a	n/a	3	n/a	n/a	n/a	n/a
537.112	n/a	DISTRACTOR	268556	n/a	LTP290	ltpFR2	10	2	n/a	n/a	n/a	n/a	0	0	0
537.12	n/a	PROB	268560	n/a	LTP290	ltpFR2	10	n/a	n/a	n/a	3	13	3	5	5
538.4	n/a	PROB	269200	n/a	LTP290	ltpFR2	10	n/a	n/a	n/a	3	25	7	7	9
540.514	n/a	PROB	270257	n/a	LTP290	ltpFR2	10	n/a	n/a	n/a	3	19	4	6	9
541.746	n/a	PROB	270873	n/a	LTP290	ltpFR2	10	n/a	n/a	n/a	3	16	3	5	8
543.028	n/a	PROB	271514	n/a	LTP290	ltpFR2	10	n/a	n/a	n/a	3	19	9	5	5
544.276	n/a	PROB	272138	n/a	LTP290	ltpFR2	10	n/a	n/a	n/a	3	14	5	1	8
545.574	n/a	PROB	272787	n/a	LTP290	ltpFR2	10	n/a	n/a	n/a	3	18	3	6	9
546.772	n/a	PROB	273386	n/a	LTP290	ltpFR2	10	n/a	n/a	n/a	3	19	6	8	5
548.47	n/a	PROB	274235	n/a	LTP290	ltpFR2	10	n/a	n/a	n/a	3	16	2	9	5
549.734	n/a	PROB	274867	n/a	LTP290	ltpFR2	10	n/a	n/a	n/a	3	19	9	4	6
551.414	n/a	PROB	275707	n/a	LTP290	ltpFR2	10	n/a	n/a	n/a	3	19	4	6	9
552.68	n/a	PROB	276340	n/a	LTP290	ltpFR2	10	n/a	n/a	n/a	3	21	7	6	8
555.26	n/a	PROB	277630	n/a	LTP290	ltpFR2	10	n/a	n/a	n/a	3	20	9	5	6
556.64	n/a	PROB	278320	n/a	LTP290	ltpFR2	10	n/a	n/a	n/a	3	7	2	4	1
558.072	n/a	PROB	279036	n/a	LTP290	ltpFR2	10	n/a	n/a	n/a	3	13	3	6	4
559.302	n/a	STOP	279651	n/a	LTP290	ltpFR2	10	n/a	n/a	n/a	3	n/a	n/a	n/a	n/a
561.904	n/a	REC_START	280952	n/a	LTP290	ltpFR2	10	2	n/a	n/a	n/a	n/a	0	0	0
567.176	n/a	REC_WORD	283588	wordpools/wasnorm_wordpool_576.txt	LTP290	ltpFR2	10	2	KETCHUP	771	n/a	n/a	0	0	0
567.794	n/a	REC_WORD	283897	wordpools/wasnorm_wordpool_576.txt	LTP290	ltpFR2	10	2	BADGE	68	n/a	n/a	0	0	0
652.55	n/a	DISTRACTOR	326275	n/a	LTP290	ltpFR2	10	3	n/a	n/a	n/a	n/a	0	0	0
652.55	n/a	START	326275	n/a	LTP290	ltpFR2	10	n/a	n/a	n/a	4	n/a	n/a	n/a	n/a
652.582	n/a	PROB	326291	n/a	LTP290	ltpFR2	10	n/a	n/a	n/a	4	14	4	6	4
653.798	n/a	PROB	326899	n/a	LTP290	ltpFR2	10	n/a	n/a	n/a	4	14	4	9	1
654.964	n/a	PROB	327482	n/a	LTP290	ltpFR2	10	n/a	n/a	n/a	4	13	3	9	1
656.91	n/a	PROB	328455	n/a	LTP290	ltpFR2	10	n/a	n/a	n/a	4	25	9	8	6
659.224	n/a	PROB	329612	n/a	LTP290	ltpFR2	10	n/a	n/a	n/a	4	12	1	4	7
661.138	n/a	PROB	330569	n/a	LTP290	ltpFR2	10	n/a	n/a	n/a	4	19	9	2	8
662.884	n/a	PROB	331442	n/a	LTP290	ltpFR2	10	n/a	n/a	n/a	4	17	3	8	6
665.314	n/a	PROB	332657	n/a	LTP290	ltpFR2	10	n/a	n/a	n/a	4	14	8	1	5
666.728	n/a	PROB	333364	n/a	LTP290	ltpFR2	10	n/a	n/a	n/a	4	10	5	4	1
668.01	n/a	PROB	334005	n/a	LTP290	ltpFR2	10	n/a	n/a	n/a	4	16	7	8	1
669.606	n/a	PROB	334803	n/a	LTP290	ltpFR2	10	n/a	n/a	n/a	4	18	2	9	7
671.238	n/a	PROB	335619	n/a	LTP290	ltpFR2	10	n/a	n/a	n/a	4	19	8	3	8
673.202	n/a	PROB	336601	n/a	LTP290	ltpFR2	10	n/a	n/a	n/a	4	19	7	9	3
674.984	n/a	PROB	337492	n/a	LTP290	ltpFR2	10	n/a	n/a	n/a	4	16	7	5	4
676.478	n/a	STOP	338239	n/a	LTP290	ltpFR2	10	n/a	n/a	n/a	4	n/a	n/a	n/a	n/a
677.578	n/a	WORD	338789	wordpools/wasnorm_wordpool_576.txt	LTP290	ltpFR2	10	3	BIKE	125	n/a	n/a	0	0	0
680.042	n/a	WORD	340021	wordpools/wasnorm_wordpool_576.txt	LTP290	ltpFR2	10	3	LEG	809	n/a	n/a	0	0	0
682.688	n/a	WORD	341344	wordpools/wasnorm_wordpool_576.txt	LTP290	ltpFR2	10	3	RABBIT	1152	n/a	n/a	0	0	0
685.316	n/a	WORD	342658	wordpools/wasnorm_wordpool_576.txt	LTP290	ltpFR2	10	3	CAMEL	223	n/a	n/a	0	0	0
688.08	n/a	WORD	344040	wordpools/wasnorm_wordpool_576.txt	LTP290	ltpFR2	10	3	LADY	794	n/a	n/a	0	0	0
690.808	n/a	WORD	345404	wordpools/wasnorm_wordpool_576.txt	LTP290	ltpFR2	10	3	HUMAN	726	n/a	n/a	0	0	0
693.504	n/a	WORD	346752	wordpools/wasnorm_wordpool_576.txt	LTP290	ltpFR2	10	3	WRENCH	1625	n/a	n/a	0	0	0
696.318	n/a	WORD	348159	wordpools/wasnorm_wordpool_576.txt	LTP290	ltpFR2	10	3	PLIERS	1089	n/a	n/a	0	0	0
699.13	n/a	WORD	349565	wordpools/wasnorm_wordpool_576.txt	LTP290	ltpFR2	10	3	TRACTOR	1493	n/a	n/a	0	0	0
701.692	n/a	WORD	350846	wordpools/wasnorm_wordpool_576.txt	LTP290	ltpFR2	10	3	TORTOISE	1486	n/a	n/a	0	0	0
704.272	n/a	WORD	352136	wordpools/wasnorm_wordpool_576.txt	LTP290	ltpFR2	10	3	JEANS	752	n/a	n/a	0	0	0
706.834	n/a	WORD	353417	wordpools/wasnorm_wordpool_576.txt	LTP290	ltpFR2	10	3	WAITER	1580	n/a	n/a	0	0	0
709.43	n/a	WORD	354715	wordpools/wasnorm_wordpool_576.txt	LTP290	ltpFR2	10	3	PLATE	1086	n/a	n/a	0	0	0
711.86	n/a	WORD	355930	wordpools/wasnorm_wordpool_576.txt	LTP290	ltpFR2	10	3	MONEY	908	n/a	n/a	0	0	0
714.406	n/a	WORD	357203	wordpools/wasnorm_wordpool_576.txt	LTP290	ltpFR2	10	3	SUMMIT	1405	n/a	n/a	0	0	0
717.07	n/a	WORD	358535	wordpools/wasnorm_wordpool_576.txt	LTP290	ltpFR2	10	3	CATTLE	261	n/a	n/a	0	0	0
719.866	n/a	WORD	359933	wordpools/wasnorm_wordpool_576.txt	LTP290	ltpFR2	10	3	COTTAGE	384	n/a	n/a	0	0	0
722.578	n/a	WORD	361289	wordpools/wasnorm_wordpool_576.txt	LTP290	ltpFR2	10	3	SUBWAY	1400	n/a	n/a	0	0	0
725.192	n/a	WORD	362596	wordpools/wasnorm_wordpool_576.txt	LTP290	ltpFR2	10	3	QUARTER	1148	n/a	n/a	0	0	0
727.738	n/a	WORD	363869	wordpools/wasnorm_wordpool_576.txt	LTP290	ltpFR2	10	3	SCARECROW	1245	n/a	n/a	0	0	0
730.534	n/a	WORD	365267	wordpools/wasnorm_wordpool_576.txt	LTP290	ltpFR2	10	3	GUARD	667	n/a	n/a	0	0	0
733.148	n/a	WORD	366574	wordpools/wasnorm_wordpool_576.txt	LTP290	ltpFR2	10	3	PREACHER	1119	n/a	n/a	0	0	0
735.792	n/a	WORD	367896	wordpools/wasnorm_wordpool_576.txt	LTP290	ltpFR2	10	3	CROSS	413	n/a	n/a	0	0	0
738.522	n/a	WORD	369261	wordpools/wasnorm_wordpool_576.txt	LTP290	ltpFR2	10	3	ICEBERG	731	n/a	n/a	0	0	0
740.138	n/a	START	370069	n/a	LTP290	ltpFR2	10	n/a	n/a	n/a	5	n/a	n/a	n/a	n/a
741.236	n/a	DISTRACTOR	370618	n/a	LTP290	ltpFR2	10	3	n/a	n/a	n/a	n/a	0	0	0
741.252	n/a	PROB	370626	n/a	LTP290	ltpFR2	10	n/a	n/a	n/a	5	15	7	3	5
743.05	n/a	PROB	371525	n/a	LTP290	ltpFR2	10	n/a	n/a	n/a	5	26	9	8	9
744.696	n/a	PROB	372348	n/a	LTP290	ltpFR2	10	n/a	n/a	n/a	5	15	9	4	2
746.376	n/a	PROB	373188	n/a	LTP290	ltpFR2	10	n/a	n/a	n/a	5	15	9	3	3
748.026	n/a	PROB	374013	n/a	LTP290	ltpFR2	10	n/a	n/a	n/a	5	13	1	9	3
749.338	n/a	PROB	374669	n/a	LTP290	ltpFR2	10	n/a	n/a	n/a	5	19	2	9	8
751.02	n/a	PROB	375510	n/a	LTP290	ltpFR2	10	n/a	n/a	n/a	5	16	2	7	7
752.85	n/a	PROB	376425	n/a	LTP290	ltpFR2	10	n/a	n/a	n/a	5	7	2	3	2
754.216	n/a	PROB	377108	n/a	LTP290	ltpFR2	10	n/a	n/a	n/a	5	17	2	8	7
755.696	n/a	PROB	377848	n/a	LTP290	ltpFR2	10	n/a	n/a	n/a	5	14	2	4	8
757.078	n/a	PROB	378539	n/a	LTP290	ltpFR2	10	n/a	n/a	n/a	5	16	6	6	4
758.708	n/a	PROB	379354	n/a	LTP290	ltpFR2	10	n/a	n/a	n/a	5	13	9	3	1
760.29	n/a	PROB	380145	n/a	LTP290	ltpFR2	10	n/a	n/a	n/a	5	20	5	7	8
761.886	n/a	PROB	380943	n/a	LTP290	ltpFR2	10	n/a	n/a	n/a	5	12	3	3	6
763.408	n/a	STOP	381704	n/a	LTP290	ltpFR2	10	n/a	n/a	n/a	5	n/a	n/a	n/a	n/a
765.982	n/a	REC_START	382991	n/a	LTP290	ltpFR2	10	3	n/a	n/a	n/a	n/a	0	0	0
767.68	n/a	REC_WORD	383840	wordpools/wasnorm_wordpool_576.txt	LTP290	ltpFR2	10	3	BIKE	125	n/a	n/a	0	0	0
768.214	n/a	REC_WORD	384107	wordpools/wasnorm_wordpool_576.txt	LTP290	ltpFR2	10	3	LEG	809	n/a	n/a	0	0	0
769.126	n/a	REC_WORD	384563	wordpools/wasnorm_wordpool_576.txt	LTP290	ltpFR2	10	3	RABBIT	1152	n/a	n/a	0	0	0
774.128	n/a	REC_WORD	387064	wordpools/wasnorm_wordpool_576.txt	LTP290	ltpFR2	10	3	CROSS	413	n/a	n/a	0	0	0
774.724	n/a	REC_WORD	387362	wordpools/wasnorm_wordpool_576.txt	LTP290	ltpFR2	10	3	ICEBERG	731	n/a	n/a	0	0	0
780.312	n/a	REC_WORD	390156	wordpools/wasnorm_wordpool_576.txt	LTP290	ltpFR2	10	3	DENIM	446	n/a	n/a	0	0	0
780.974	n/a	REC_WORD	390487	wordpools/wasnorm_wordpool_576.txt	LTP290	ltpFR2	10	3	PLATE	1086	n/a	n/a	0	0	0
781.482	n/a	REC_WORD	390741	wordpools/wasnorm_wordpool_576.txt	LTP290	ltpFR2	10	3	MONEY	908	n/a	n/a	0	0	0
786.566	n/a	REC_WORD	393283	wordpools/wasnorm_wordpool_576.txt	LTP290	ltpFR2	10	3	WAITER	1580	n/a	n/a	0	0	0
856.662	n/a	WORD	428331	wordpools/wasnorm_wordpool_576.txt	LTP290	ltpFR2	10	4	BEAKER	104	n/a	n/a	0	0	0
859.21	n/a	WORD	429605	wordpools/wasnorm_wordpool_576.txt	LTP290	ltpFR2	10	4	BELLY	119	n/a	n/a	0	0	0
861.906	n/a	WORD	430953	wordpools/wasnorm_wordpool_576.txt	LTP290	ltpFR2	10	4	ACTOR	5	n/a	n/a	0	0	0
864.718	n/a	WORD	432359	wordpools/wasnorm_wordpool_576.txt	LTP290	ltpFR2	10	4	RIVER	1194	n/a	n/a	0	0	0
867.232	n/a	WORD	433616	wordpools/wasnorm_wordpool_576.txt	LTP290	ltpFR2	10	4	ISLAND	745	n/a	n/a	0	0	0
869.776	n/a	WORD	434888	wordpools/wasnorm_wordpool_576.txt	LTP290	ltpFR2	10	4	LAVA	804	n/a	n/a	0	0	0
872.59	n/a	WORD	436295	wordpools/wasnorm_wordpool_576.txt	LTP290	ltpFR2	10	4	ZIPPER	1636	n/a	n/a	0	0	0
875.386	n/a	WORD	437693	wordpools/wasnorm_wordpool_576.txt	LTP290	ltpFR2	10	4	ARM	38	n/a	n/a	0	0	0
877.864	n/a	WORD	438932	wordpools/wasnorm_wordpool_576.txt	LTP290	ltpFR2	10	4	CUSTARD	429	n/a	n/a	0	0	0
880.296	n/a	WORD	440148	wordpools/wasnorm_wordpool_576.txt	LTP290	ltpFR2	10	4	CASHIER	254	n/a	n/a	0	0	0
882.992	n/a	WORD	441496	wordpools/wasnorm_wordpool_576.txt	LTP290	ltpFR2	10	4	COUSIN	392	n/a	n/a	0	0	0
885.554	n/a	WORD	442777	wordpools/wasnorm_wordpool_576.txt	LTP290	ltpFR2	10	4	FLASK	576	n/a	n/a	0	0	0
888.234	n/a	WORD	444117	wordpools/wasnorm_wordpool_576.txt	LTP290	ltpFR2	10	4	PLAID	1080	n/a	n/a	0	0	0
890.664	n/a	WORD	445332	wordpools/wasnorm_wordpool_576.txt	LTP290	ltpFR2	10	4	LAKE	796	n/a	n/a	0	0	0
893.194	n/a	WORD	446597	wordpools/wasnorm_wordpool_576.txt	LTP290	ltpFR2	10	4	COOKBOOK	373	n/a	n/a	0	0	0
895.788	n/a	WORD	447894	wordpools/wasnorm_wordpool_576.txt	LTP290	ltpFR2	10	4	SNACK	1331	n/a	n/a	0	0	0
898.318	n/a	WORD	449159	wordpools/wasnorm_wordpool_576.txt	LTP290	ltpFR2	10	4	HOOK	715	n/a	n/a	0	0	0
900.916	n/a	WORD	450458	wordpools/wasnorm_wordpool_576.txt	LTP290	ltpFR2	10	4	BLADE	134	n/a	n/a	0	0	0
903.428	n/a	WORD	451714	wordpools/wasnorm_wordpool_576.txt	LTP290	ltpFR2	10	4	CHEST	295	n/a	n/a	0	0	0
905.908	n/a	WORD	452954	wordpools/wasnorm_wordpool_576.txt	LTP290	ltpFR2	10	4	WASHER	1592	n/a	n/a	0	0	0
908.67	n/a	WORD	454335	wordpools/wasnorm_wordpool_576.txt	LTP290	ltpFR2	10	4	GIFT	635	n/a	n/a	0	0	0
911.184	n/a	WORD	455592	wordpools/wasnorm_wordpool_576.txt	LTP290	ltpFR2	10	4	BOX	159	n/a	n/a	0	0	0
913.946	n/a	WORD	456973	wordpools/wasnorm_wordpool_576.txt	LTP290	ltpFR2	10	4	CANAL	226	n/a	n/a	0	0	0
916.692	n/a	WORD	458346	wordpools/wasnorm_wordpool_576.txt	LTP290	ltpFR2	10	4	LACE	792	n/a	n/a	0	0	0
918.306	n/a	START	459153	n/a	LTP290	ltpFR2	10	n/a	n/a	n/a	6	n/a	n/a	n/a	n/a
919.218	n/a	DISTRACTOR	459609	n/a	LTP290	ltpFR2	10	4	n/a	n/a	n/a	n/a	0	0	0
919.222	n/a	PROB	459611	n/a	LTP290	ltpFR2	10	n/a	n/a	n/a	6	15	9	3	3
920.852	n/a	PROB	460426	n/a	LTP290	ltpFR2	10	n/a	n/a	n/a	6	13	3	5	5
922.482	n/a	PROB	461241	n/a	LTP290	ltpFR2	10	n/a	n/a	n/a	6	9	5	3	1
924.248	n/a	PROB	462124	n/a	LTP290	ltpFR2	10	n/a	n/a	n/a	6	17	9	5	3
926.112	n/a	PROB	463056	n/a	LTP290	ltpFR2	10	n/a	n/a	n/a	6	10	5	2	3
927.574	n/a	PROB	463787	n/a	LTP290	ltpFR2	10	n/a	n/a	n/a	6	12	8	2	2
928.79	n/a	PROB	464395	n/a	LTP290	ltpFR2	10	n/a	n/a	n/a	6	13	4	3	6
930.32	n/a	PROB	465160	n/a	LTP290	ltpFR2	10	n/a	n/a	n/a	6	16	6	5	5
931.818	n/a	PROB	465909	n/a	LTP290	ltpFR2	10	n/a	n/a	n/a	6	18	4	5	9
933.268	n/a	PROB	466634	n/a	LTP290	ltpFR2	10	n/a	n/a	n/a	6	12	5	1	6
935.248	n/a	PROB	467624	n/a	LTP290	ltpFR2	10	n/a	n/a	n/a	6	19	8	8	3
936.778	n/a	PROB	468389	n/a	LTP290	ltpFR2	10	n/a	n/a	n/a	6	13	3	3	7
938.608	n/a	PROB	469304	n/a	LTP290	ltpFR2	10	n/a	n/a	n/a	6	16	5	8	3
940.058	n/a	PROB	470029	n/a	LTP290	ltpFR2	10	n/a	n/a	n/a	6	7	2	2	3
941.546	n/a	STOP	470773	n/a	LTP290	ltpFR2	10	n/a	n/a	n/a	6	n/a	n/a	n/a	n/a
944.052	n/a	REC_START	472026	n/a	LTP290	ltpFR2	10	4	n/a	n/a	n/a	n/a	0	0	0
945.556	n/a	REC_WORD	472778	wordpools/wasnorm_wordpool_576.txt	LTP290	ltpFR2	10	4	LACE	792	n/a	n/a	0	0	0
946.324	n/a	REC_WORD	473162	wordpools/wasnorm_wordpool_576.txt	LTP290	ltpFR2	10	4	CANAL	226	n/a	n/a	0	0	0
950.078	n/a	REC_WORD	475039	wordpools/wasnorm_wordpool_576.txt	LTP290	ltpFR2	10	4	CUSTARD	429	n/a	n/a	0	0	0
950.654	n/a	REC_WORD	475327	wordpools/wasnorm_wordpool_576.txt	LTP290	ltpFR2	10	4	ARM	38	n/a	n/a	0	0	0
1034.682	n/a	DISTRACTOR	517341	n/a	LTP290	ltpFR2	10	5	n/a	n/a	n/a	n/a	0	0	0
1034.682	n/a	START	517341	n/a	LTP290	ltpFR2	10	n/a	n/a	n/a	7	n/a	n/a	n/a	n/a
1034.716	n/a	PROB	517358	n/a	LTP290	ltpFR2	10	n/a	n/a	n/a	7	16	6	4	6
1035.932	n/a	PROB	517966	n/a	LTP290	ltpFR2	10	n/a	n/a	n/a	7	17	5	6	6
1037.378	n/a	PROB	518689	n/a	LTP290	ltpFR2	10	n/a	n/a	n/a	7	23	8	9	6
1042.47	n/a	PROB	521235	n/a	LTP290	ltpFR2	10	n/a	n/a	n/a	7	20	6	9	5
1043.954	n/a	PROB	521977	n/a	LTP290	ltpFR2	10	n/a	n/a	n/a	7	7	3	1	3
1045.252	n/a	PROB	522626	n/a	LTP290	ltpFR2	10	n/a	n/a	n/a	7	9	4	1	4
1046.682	n/a	PROB	523341	n/a	LTP290	ltpFR2	10	n/a	n/a	n/a	7	7	2	4	1
1047.914	n/a	PROB	523957	n/a	LTP290	ltpFR2	10	n/a	n/a	n/a	7	18	7	9	2
1049.91	n/a	PROB	524955	n/a	LTP290	ltpFR2	10	n/a	n/a	n/a	7	10	2	5	3
1051.442	n/a	PROB	525721	n/a	LTP290	ltpFR2	10	n/a	n/a	n/a	7	19	9	1	9
1053.356	n/a	PROB	526678	n/a	LTP290	ltpFR2	10	n/a	n/a	n/a	7	18	7	2	9
1055.054	n/a	PROB	527527	n/a	LTP290	ltpFR2	10	n/a	n/a	n/a	7	17	9	2	6
1056.65	n/a	PROB	528325	n/a	LTP290	ltpFR2	10	n/a	n/a	n/a	7	14	3	4	7
1058.228	n/a	STOP	529114	n/a	LTP290	ltpFR2	10	n/a	n/a	n/a	7	n/a	n/a	n/a	n/a
1059.664	n/a	WORD	529832	wordpools/wasnorm_wordpool_576.txt	LTP290	ltpFR2	10	5	COSTUME	383	n/a	n/a	0	0	0
1062.226	n/a	WORD	531113	wordpools/wasnorm_wordpool_576.txt	LTP290	ltpFR2	10	5	PEPPER	1047	n/a	n/a	0	0	0
1065.04	n/a	WORD	532520	wordpools/wasnorm_wordpool_576.txt	LTP290	ltpFR2	10	5	CASKET	255	n/a	n/a	0	0	0
1067.668	n/a	WORD	533834	wordpools/wasnorm_wordpool_576.txt	LTP290	ltpFR2	10	5	MARS	873	n/a	n/a	0	0	0
1070.348	n/a	WORD	535174	wordpools/wasnorm_wordpool_576.txt	LTP290	ltpFR2	10	5	MOTOR	922	n/a	n/a	0	0	0
1072.96	n/a	WORD	536480	wordpools/wasnorm_wordpool_576.txt	LTP290	ltpFR2	10	5	SCRIBBLE	1256	n/a	n/a	0	0	0
1075.64	n/a	WORD	537820	wordpools/wasnorm_wordpool_576.txt	LTP290	ltpFR2	10	5	TREAT	1501	n/a	n/a	0	0	0
1078.386	n/a	WORD	539193	wordpools/wasnorm_wordpool_576.txt	LTP290	ltpFR2	10	5	WIDOW	1608	n/a	n/a	0	0	0
1080.864	n/a	WORD	540432	wordpools/wasnorm_wordpool_576.txt	LTP290	ltpFR2	10	5	SALT	1229	n/a	n/a	0	0	0
1083.36	n/a	WORD	541680	wordpools/wasnorm_wordpool_576.txt	LTP290	ltpFR2	10	5	EXPERT	543	n/a	n/a	0	0	0
1085.808	n/a	WORD	542904	wordpools/wasnorm_wordpool_576.txt	LTP290	ltpFR2	10	5	TEACHER	1440	n/a	n/a	0	0	0
1088.486	n/a	WORD	544243	wordpools/wasnorm_wordpool_576.txt	LTP290	ltpFR2	10	5	BRACES	164	n/a	n/a	0	0	0
1091.034	n/a	WORD	545517	wordpools/wasnorm_wordpool_576.txt	LTP290	ltpFR2	10	5	HAWK	692	n/a	n/a	0	0	0
1093.846	n/a	WORD	546923	wordpools/wasnorm_wordpool_576.txt	LTP290	ltpFR2	10	5	DINER	467	n/a	n/a	0	0	0
1096.592	n/a	WORD	548296	wordpools/wasnorm_wordpool_576.txt	LTP290	ltpFR2	10	5	FLASHLIGHT	575	n/a	n/a	0	0	0
1099.138	n/a	WORD	549569	wordpools/wasnorm_wordpool_576.txt	LTP290	ltpFR2	10	5	LAMP	798	n/a	n/a	0	0	0
1101.85	n/a	WORD	550925	wordpools/wasnorm_wordpool_576.txt	LTP290	ltpFR2	10	5	DAISY	435	n/a	n/a	0	0	0
1104.446	n/a	WORD	552223	wordpools/wasnorm_wordpool_576.txt	LTP290	ltpFR2	10	5	PECAN	1036	n/a	n/a	0	0	0
1107.044	n/a	WORD	553522	wordpools/wasnorm_wordpool_576.txt	LTP290	ltpFR2	10	5	HIKER	708	n/a	n/a	0	0	0
1109.804	n/a	WORD	554902	wordpools/wasnorm_wordpool_576.txt	LTP290	ltpFR2	10	5	DRINK	498	n/a	n/a	0	0	0
1112.6	n/a	WORD	556300	wordpools/wasnorm_wordpool_576.txt	LTP290	ltpFR2	10	5	XEROX	1628	n/a	n/a	0	0	0
1115.082	n/a	WORD	557541	wordpools/wasnorm_wordpool_576.txt	LTP290	ltpFR2	10	5	DENTIST	447	n/a	n/a	0	0	0
1117.726	n/a	WORD	558863	wordpools/wasnorm_wordpool_576.txt	LTP290	ltpFR2	10	5	DRILL	497	n/a	n/a	0	0	0
1120.19	n/a	WORD	560095	wordpools/wasnorm_wordpool_576.txt	LTP290	ltpFR2	10	5	DIME	466	n/a	n/a	0	0	0
1121.804	n/a	START	560902	n/a	LTP290	ltpFR2	10	n/a	n/a	n/a	8	n/a	n/a	n/a	n/a
1122.84	n/a	DISTRACTOR	561420	n/a	LTP290	ltpFR2	10	5	n/a	n/a	n/a	n/a	0	0	0
1122.852	n/a	PROB	561426	n/a	LTP290	ltpFR2	10	n/a	n/a	n/a	8	19	9	3	7
1124.25	n/a	PROB	562125	n/a	LTP290	ltpFR2	10	n/a	n/a	n/a	8	11	1	2	8
1125.548	n/a	PROB	562774	n/a	LTP290	ltpFR2	10	n/a	n/a	n/a	8	16	9	5	2
1127.346	n/a	PROB	563673	n/a	LTP290	ltpFR2	10	n/a	n/a	n/a	8	20	8	4	8
1129.044	n/a	PROB	564522	n/a	LTP290	ltpFR2	10	n/a	n/a	n/a	8	27	9	9	9
1130.658	n/a	PROB	565329	n/a	LTP290	ltpFR2	10	n/a	n/a	n/a	8	22	6	7	9
1134.752	n/a	PROB	567376	n/a	LTP290	ltpFR2	10	n/a	n/a	n/a	8	15	4	5	6
1136.332	n/a	PROB	568166	n/a	LTP290	ltpFR2	10	n/a	n/a	n/a	8	13	7	3	3
1137.598	n/a	PROB	568799	n/a	LTP290	ltpFR2	10	n/a	n/a	n/a	8	9	5	1	3
1139.246	n/a	PROB	569623	n/a	LTP290	ltpFR2	10	n/a	n/a	n/a	8	16	3	4	9
1140.742	n/a	PROB	570371	n/a	LTP290	ltpFR2	10	n/a	n/a	n/a	8	17	6	6	5
1142.856	n/a	PROB	571428	n/a	LTP290	ltpFR2	10	n/a	n/a	n/a	8	19	9	8	2
1144.86	n/a	STOP	572430	n/a	LTP290	ltpFR2	10	n/a	n/a	n/a	8	n/a	n/a	n/a	n/a
1147.7	n/a	REC_START	573850	n/a	LTP290	ltpFR2	10	5	n/a	n/a	n/a	n/a	0	0	0
1150.104	n/a	REC_WORD	575052	wordpools/wasnorm_wordpool_576.txt	LTP290	ltpFR2	10	5	HAWK	692	n/a	n/a	0	0	0
1150.658	n/a	REC_WORD	575329	wordpools/wasnorm_wordpool_576.txt	LTP290	ltpFR2	10	5	DINER	467	n/a	n/a	0	0	0
1151.324	n/a	REC_WORD	575662	wordpools/wasnorm_wordpool_576.txt	LTP290	ltpFR2	10	5	FLASHLIGHT	575	n/a	n/a	0	0	0
1152.13	n/a	REC_WORD	576065	wordpools/wasnorm_wordpool_576.txt	LTP290	ltpFR2	10	5	LAMP	798	n/a	n/a	0	0	0
1154.226	n/a	REC_WORD	577113	wordpools/wasnorm_wordpool_576.txt	LTP290	ltpFR2	10	5	DAISY	435	n/a	n/a	0	0	0
1158.25	n/a	REC_WORD	579125	wordpools/wasnorm_wordpool_576.txt	LTP290	ltpFR2	10	5	HIKER	708	n/a	n/a	0	0	0
1159.962	n/a	REC_WORD	579981	wordpools/wasnorm_wordpool_576.txt	LTP290	ltpFR2	10	5	XEROX	1628	n/a	n/a	0	0	0
1164.14	n/a	REC_WORD	582070	wordpools/wasnorm_wordpool_576.txt	LTP290	ltpFR2	10	5	DENTIST	447	n/a	n/a	0	0	0
1165.114	n/a	REC_WORD	582557	wordpools/wasnorm_wordpool_576.txt	LTP290	ltpFR2	10	5	DRILL	497	n/a	n/a	0	0	0
1238.348	n/a	WORD	619174	wordpools/wasnorm_wordpool_576.txt	LTP290	ltpFR2	10	6	PICTURE	1061	n/a	n/a	0	0	0
1240.978	n/a	WORD	620489	wordpools/wasnorm_wordpool_576.txt	LTP290	ltpFR2	10	6	SEAL	1262	n/a	n/a	0	0	0
1243.656	n/a	WORD	621828	wordpools/wasnorm_wordpool_576.txt	LTP290	ltpFR2	10	6	CHEMIST	292	n/a	n/a	0	0	0
1246.188	n/a	WORD	623094	wordpools/wasnorm_wordpool_576.txt	LTP290	ltpFR2	10	6	PUPIL	1143	n/a	n/a	0	0	0
1248.966	n/a	WORD	624483	wordpools/wasnorm_wordpool_576.txt	LTP290	ltpFR2	10	6	COURSE	390	n/a	n/a	0	0	0
1251.396	n/a	WORD	625698	wordpools/wasnorm_wordpool_576.txt	LTP290	ltpFR2	10	6	OYSTER	995	n/a	n/a	0	0	0
1254.126	n/a	WORD	627063	wordpools/wasnorm_wordpool_576.txt	LTP290	ltpFR2	10	6	KIDNEY	776	n/a	n/a	0	0	0
1256.788	n/a	WORD	628394	wordpools/wasnorm_wordpool_576.txt	LTP290	ltpFR2	10	6	SPHINX	1349	n/a	n/a	0	0	0
1259.6	n/a	WORD	629800	wordpools/wasnorm_wordpool_576.txt	LTP290	ltpFR2	10	6	POCKET	1093	n/a	n/a	0	0	0
1262.246	n/a	WORD	631123	wordpools/wasnorm_wordpool_576.txt	LTP290	ltpFR2	10	6	TROUT	1511	n/a	n/a	0	0	0
1264.908	n/a	WORD	632454	wordpools/wasnorm_wordpool_576.txt	LTP290	ltpFR2	10	6	CRAB	397	n/a	n/a	0	0	0
1267.722	n/a	WORD	633861	wordpools/wasnorm_wordpool_576.txt	LTP290	ltpFR2	10	6	NOMAD	955	n/a	n/a	0	0	0
1270.5	n/a	WORD	635250	wordpools/wasnorm_wordpool_576.txt	LTP290	ltpFR2	10	6	GHETTO	633	n/a	n/a	0	0	0
1272.998	n/a	WORD	636499	wordpools/wasnorm_wordpool_576.txt	LTP290	ltpFR2	10	6	BATHTUB	100	n/a	n/a	0	0	0
1275.726	n/a	WORD	637863	wordpools/wasnorm_wordpool_576.txt	LTP290	ltpFR2	10	6	MARKER	870	n/a	n/a	0	0	0
1278.306	n/a	WORD	639153	wordpools/wasnorm_wordpool_576.txt	LTP290	ltpFR2	10	6	MARSH	874	n/a	n/a	0	0	0
1280.952	n/a	WORD	640476	wordpools/wasnorm_wordpool_576.txt	LTP290	ltpFR2	10	6	PUDDLE	1140	n/a	n/a	0	0	0
1283.448	n/a	WORD	641724	wordpools/wasnorm_wordpool_576.txt	LTP290	ltpFR2	10	6	MISTER	901	n/a	n/a	0	0	0
1286.062	n/a	WORD	643031	wordpools/wasnorm_wordpool_576.txt	LTP290	ltpFR2	10	6	SCALPEL	1243	n/a	n/a	0	0	0
1288.49	n/a	WORD	644245	wordpools/wasnorm_wordpool_576.txt	LTP290	ltpFR2	10	6	FRIEND	606	n/a	n/a	0	0	0
1290.988	n/a	WORD	645494	wordpools/wasnorm_wordpool_576.txt	LTP290	ltpFR2	10	6	EGYPT	519	n/a	n/a	0	0	0
1293.45	n/a	WORD	646725	wordpools/wasnorm_wordpool_576.txt	LTP290	ltpFR2	10	6	CANDY	230	n/a	n/a	0	0	0
1296.214	n/a	WORD	648107	wordpools/wasnorm_wordpool_576.txt	LTP290	ltpFR2	10	6	SPONGE	1355	n/a	n/a	0	0	0
1298.842	n/a	WORD	649421	wordpools/wasnorm_wordpool_576.txt	LTP290	ltpFR2	10	6	PARROT	1015	n/a	n/a	0	0	0
1300.456	n/a	START	650228	n/a	LTP290	ltpFR2	10	n/a	n/a	n/a	9	n/a	n/a	n/a	n/a
1301.36	n/a	DISTRACTOR	650680	n/a	LTP290	ltpFR2	10	6	n/a	n/a	n/a	n/a	0	0	0
1301.372	n/a	PROB	650686	n/a	LTP290	ltpFR2	10	n/a	n/a	n/a	9	13	1	8	4
1302.852	n/a	PROB	651426	n/a	LTP290	ltpFR2	10	n/a	n/a	n/a	9	19	8	4	7
1305.068	n/a	PROB	652534	n/a	LTP290	ltpFR2	10	n/a	n/a	n/a	9	11	2	4	5
1306.332	n/a	PROB	653166	n/a	LTP290	ltpFR2	10	n/a	n/a	n/a	9	20	6	8	6
1310.194	n/a	PROB	655097	n/a	LTP290	ltpFR2	10	n/a	n/a	n/a	9	20	4	9	7
1311.64	n/a	PROB	655820	n/a	LTP290	ltpFR2	10	n/a	n/a	n/a	9	14	4	9	1
1313.072	n/a	PROB	656536	n/a	LTP290	ltpFR2	10	n/a	n/a	n/a	9	13	6	5	2
1314.502	n/a	PROB	657251	n/a	LTP290	ltpFR2	10	n/a	n/a	n/a	9	21	9	8	4
1316.218	n/a	PROB	658109	n/a	LTP290	ltpFR2	10	n/a	n/a	n/a	9	13	4	3	6
1317.848	n/a	PROB	658924	n/a	LTP290	ltpFR2	10	n/a	n/a	n/a	9	13	5	3	5
1319.196	n/a	PROB	659598	n/a	LTP290	ltpFR2	10	n/a	n/a	n/a	9	19	7	5	7
1320.876	n/a	PROB	660438	n/a	LTP290	ltpFR2	10	n/a	n/a	n/a	9	13	3	4	6
1322.656	n/a	PROB	661328	n/a	LTP290	ltpFR2	10	n/a	n/a	n/a	9	15	8	5	2
1323.862	n/a	STOP	661931	n/a	LTP290	ltpFR2	10	n/a	n/a	n/a	9	n/a	n/a	n/a	n/a
1326.252	n/a	REC_START	663126	n/a	LTP290	ltpFR2	10	6	n/a	n/a	n/a	n/a	0	0	0
1330.376	n/a	REC_WORD	665188	wordpools/wasnorm_wordpool_576.txt	LTP290	ltpFR2	10	6	SCALPEL	1243	n/a	n/a	0	0	0
1416.934	n/a	DISTRACTOR	708467	n/a	LTP290	ltpFR2	10	7	n/a	n/a	n/a	n/a	0	0	0
1416.934	n/a	START	708467	n/a	LTP290	ltpFR2	10	n/a	n/a	n/a	10	n/a	n/a	n/a	n/a
1416.968	n/a	PROB	708484	n/a	LTP290	ltpFR2	10	n/a	n/a	n/a	10	11	2	6	3
1418.598	n/a	PROB	709299	n/a	LTP290	ltpFR2	10	n/a	n/a	n/a	10	4	1	1	2
1419.93	n/a	PROB	709965	n/a	LTP290	ltpFR2	10	n/a	n/a	n/a	10	15	4	2	9
1421.626	n/a	PROB	710813	n/a	LTP290	ltpFR2	10	n/a	n/a	n/a	10	20	9	9	2
1423.076	n/a	PROB	711538	n/a	LTP290	ltpFR2	10	n/a	n/a	n/a	10	16	6	3	7
1424.372	n/a	PROB	712186	n/a	LTP290	ltpFR2	10	n/a	n/a	n/a	10	15	7	1	7
1425.688	n/a	PROB	712844	n/a	LTP290	ltpFR2	10	n/a	n/a	n/a	10	16	8	3	5
1427.252	n/a	PROB	713626	n/a	LTP290	ltpFR2	10	n/a	n/a	n/a	10	22	9	9	4
1428.582	n/a	PROB	714291	n/a	LTP290	ltpFR2	10	n/a	n/a	n/a	10	16	4	3	9
1430.73	n/a	PROB	715365	n/a	LTP290	ltpFR2	10	n/a	n/a	n/a	10	20	6	8	6
1432.196	n/a	PROB	716098	n/a	LTP290	ltpFR2	10	n/a	n/a	n/a	10	8	4	2	2
1433.708	n/a	PROB	716854	n/a	LTP290	ltpFR2	10	n/a	n/a	n/a	10	17	5	4	8
1435.522	n/a	PROB	717761	n/a	LTP290	ltpFR2	10	n/a	n/a	n/a	10	17	6	2	9
1437.288	n/a	PROB	718644	n/a	LTP290	ltpFR2	10	n/a	n/a	n/a	10	11	1	4	6
1438.418	n/a	PROB	719209	n/a	LTP290	ltpFR2	10	n/a	n/a	n/a	10	13	9	2	2
1439.992	n/a	STOP	719996	n/a	LTP290	ltpFR2	10	n/a	n/a	n/a	10	n/a	n/a	n/a	n/a
1442.098	n/a	WORD	721049	wordpools/wasnorm_wordpool_576.txt	LTP290	ltpFR2	10	7	STONE	1385	n/a	n/a	0	0	0
1444.876	n/a	WORD	722438	wordpools/wasnorm_wordpool_576.txt	LTP290	ltpFR2	10	7	SADDLE	1221	n/a	n/a	0	0	0
1447.422	n/a	WORD	723711	wordpools/wasnorm_wordpool_576.txt	LTP290	ltpFR2	10	7	VELVET	1555	n/a	n/a	0	0	0
1450.202	n/a	WORD	725101	wordpools/wasnorm_wordpool_576.txt	LTP290	ltpFR2	10	7	DANCER	437	n/a	n/a	0	0	0
1452.898	n/a	WORD	726449	wordpools/wasnorm_wordpool_576.txt	LTP290	ltpFR2	10	7	RACKET	1155	n/a	n/a	0	0	0
1455.444	n/a	WORD	727722	wordpools/wasnorm_wordpool_576.txt	LTP290	ltpFR2	10	7	BROTHER	179	n/a	n/a	0	0	0
1457.874	n/a	WORD	728937	wordpools/wasnorm_wordpool_576.txt	LTP290	ltpFR2	10	7	SIDEWALK	1303	n/a	n/a	0	0	0
1460.67	n/a	WORD	730335	wordpools/wasnorm_wordpool_576.txt	LTP290	ltpFR2	10	7	CHAPEL	280	n/a	n/a	0	0	0
1463.15	n/a	WORD	731575	wordpools/wasnorm_wordpool_576.txt	LTP290	ltpFR2	10	7	IDOL	733	n/a	n/a	0	0	0
1465.662	n/a	WORD	732831	wordpools/wasnorm_wordpool_576.txt	LTP290	ltpFR2	10	7	JUGGLER	763	n/a	n/a	0	0	0
1468.258	n/a	WORD	734129	wordpools/wasnorm_wordpool_576.txt	LTP290	ltpFR2	10	7	FLUTE	585	n/a	n/a	0	0	0
1470.972	n/a	WORD	735486	wordpools/wasnorm_wordpool_576.txt	LTP290	ltpFR2	10	7	NEUTRON	947	n/a	n/a	0	0	0
1473.45	n/a	WORD	736725	wordpools/wasnorm_wordpool_576.txt	LTP290	ltpFR2	10	7	FIREMAN	569	n/a	n/a	0	0	0
1476.098	n/a	WORD	738049	wordpools/wasnorm_wordpool_576.txt	LTP290	ltpFR2	10	7	MAPLE	866	n/a	n/a	0	0	0
1478.56	n/a	WORD	739280	wordpools/wasnorm_wordpool_576.txt	LTP290	ltpFR2	10	7	DUST	508	n/a	n/a	0	0	0
1481.338	n/a	WORD	740669	wordpools/wasnorm_wordpool_576.txt	LTP290	ltpFR2	10	7	SILK	1307	n/a	n/a	0	0	0
1483.952	n/a	WORD	741976	wordpools/wasnorm_wordpool_576.txt	LTP290	ltpFR2	10	7	SCARF	1246	n/a	n/a	0	0	0
1486.63	n/a	WORD	743315	wordpools/wasnorm_wordpool_576.txt	LTP290	ltpFR2	10	7	RUG	1215	n/a	n/a	0	0	0
1489.426	n/a	WORD	744713	wordpools/wasnorm_wordpool_576.txt	LTP290	ltpFR2	10	7	GROUND	666	n/a	n/a	0	0	0
1491.856	n/a	WORD	745928	wordpools/wasnorm_wordpool_576.txt	LTP290	ltpFR2	10	7	BUCKET	184	n/a	n/a	0	0	0
1494.336	n/a	WORD	747168	wordpools/wasnorm_wordpool_576.txt	LTP290	ltpFR2	10	7	SHELTER	1282	n/a	n/a	0	0	0
1496.898	n/a	WORD	748449	wordpools/wasnorm_wordpool_576.txt	LTP290	ltpFR2	10	7	WAGON	1578	n/a	n/a	0	0	0
1499.712	n/a	WORD	749856	wordpools/wasnorm_wordpool_576.txt	LTP290	ltpFR2	10	7	CHURCH	307	n/a	n/a	0	0	0
1502.176	n/a	WORD	751088	wordpools/wasnorm_wordpool_576.txt	LTP290	ltpFR2	10	7	TEMPLE	1448	n/a	n/a	0	0	0
1503.788	n/a	START	751894	n/a	LTP290	ltpFR2	10	n/a	n/a	n/a	11	n/a	n/a	n/a	n/a
1504.628	n/a	DISTRACTOR	752314	n/a	LTP290	ltpFR2	10	7	n/a	n/a	n/a	n/a	0	0	0
1504.638	n/a	PROB	752319	n/a	LTP290	ltpFR2	10	n/a	n/a	n/a	11	9	1	6	2
1506.202	n/a	PROB	753101	n/a	LTP290	ltpFR2	10	n/a	n/a	n/a	11	18	7	8	3
1507.782	n/a	PROB	753891	n/a	LTP290	ltpFR2	10	n/a	n/a	n/a	11	12	5	6	1
1510.08	n/a	PROB	755040	n/a	LTP290	ltpFR2	10	n/a	n/a	n/a	11	11	1	1	9
1511.162	n/a	PROB	755581	n/a	LTP290	ltpFR2	10	n/a	n/a	n/a	11	18	8	3	7
1512.326	n/a	PROB	756163	n/a	LTP290	ltpFR2	10	n/a	n/a	n/a	11	12	4	6	2
1513.524	n/a	PROB	756762	n/a	LTP290	ltpFR2	10	n/a	n/a	n/a	11	13	2	6	5
1516.62	n/a	PROB	758310	n/a	LTP290	ltpFR2	10	n/a	n/a	n/a	11	12	5	4	3
1518.916	n/a	PROB	759458	n/a	LTP290	ltpFR2	10	n/a	n/a	n/a	11	8	5	1	2
1521.114	n/a	PROB	760557	n/a	LTP290	ltpFR2	10	n/a	n/a	n/a	11	14	3	2	9
1522.694	n/a	PROB	761347	n/a	LTP290	ltpFR2	10	n/a	n/a	n/a	11	19	6	9	4
1524.208	n/a	PROB	762104	n/a	LTP290	ltpFR2	10	n/a	n/a	n/a	11	17	5	6	6
1527.788	n/a	STOP	763894	n/a	LTP290	ltpFR2	10	n/a	n/a	n/a	11	n/a	n/a	n/a	n/a
1529.684	n/a	REC_START	764842	n/a	LTP290	ltpFR2	10	7	n/a	n/a	n/a	n/a	0	0	0
1620.35	n/a	WORD	810175	wordpools/wasnorm_wordpool_576.txt	LTP290	ltpFR2	10	8	BISON	131	n/a	n/a	0	0	0
1622.846	n/a	WORD	811423	wordpools/wasnorm_wordpool_576.txt	LTP290	ltpFR2	10	8	LEOPARD	812	n/a	n/a	0	0	0
1625.392	n/a	WORD	812696	wordpools/wasnorm_wordpool_576.txt	LTP290	ltpFR2	10	8	TURTLE	1522	n/a	n/a	0	0	0
1628.056	n/a	WORD	814028	wordpools/wasnorm_wordpool_576.txt	LTP290	ltpFR2	10	8	FIREPLACE	570	n/a	n/a	0	0	0
1630.75	n/a	WORD	815375	wordpools/wasnorm_wordpool_576.txt	LTP290	ltpFR2	10	8	CARRIAGE	248	n/a	n/a	0	0	0
1633.396	n/a	WORD	816698	wordpools/wasnorm_wordpool_576.txt	LTP290	ltpFR2	10	8	MILDEW	893	n/a	n/a	0	0	0
1636.094	n/a	WORD	818047	wordpools/wasnorm_wordpool_576.txt	LTP290	ltpFR2	10	8	GLOBE	641	n/a	n/a	0	0	0
1638.656	n/a	WORD	819328	wordpools/wasnorm_wordpool_576.txt	LTP290	ltpFR2	10	8	GLOVE	642	n/a	n/a	0	0	0
1641.17	n/a	WORD	820585	wordpools/wasnorm_wordpool_576.txt	LTP290	ltpFR2	10	8	BRAKE	166	n/a	n/a	0	0	0
1643.966	n/a	WORD	821983	wordpools/wasnorm_wordpool_576.txt	LTP290	ltpFR2	10	8	GARLIC	624	n/a	n/a	0	0	0
1646.51	n/a	WORD	823255	wordpools/wasnorm_wordpool_576.txt	LTP290	ltpFR2	10	8	CLOCK	325	n/a	n/a	0	0	0
1649.008	n/a	WORD	824504	wordpools/wasnorm_wordpool_576.txt	LTP290	ltpFR2	10	8	EYELASH	546	n/a	n/a	0	0	0
1651.786	n/a	WORD	825893	wordpools/wasnorm_wordpool_576.txt	LTP290	ltpFR2	10	8	PERFUME	1049	n/a	n/a	0	0	0
1654.3	n/a	WORD	827150	wordpools/wasnorm_wordpool_576.txt	LTP290	ltpFR2	10	8	BUREAU	199	n/a	n/a	0	0	0
1657.012	n/a	WORD	828506	wordpools/wasnorm_wordpool_576.txt	LTP290	ltpFR2	10	8	DRESSER	496	n/a	n/a	0	0	0
1659.608	n/a	WORD	829804	wordpools/wasnorm_wordpool_576.txt	LTP290	ltpFR2	10	8	SANDWICH	1232	n/a	n/a	0	0	0
1662.038	n/a	WORD	831019	wordpools/wasnorm_wordpool_576.txt	LTP290	ltpFR2	10	8	LIPSTICK	829	n/a	n/a	0	0	0
1664.534	n/a	WORD	832267	wordpools/wasnorm_wordpool_576.txt	LTP290	ltpFR2	10	8	MATCH	878	n/a	n/a	0	0	0
1667.03	n/a	WORD	833515	wordpools/wasnorm_wordpool_576.txt	LTP290	ltpFR2	10	8	CRICKET	408	n/a	n/a	0	0	0
1669.576	n/a	WORD	834788	wordpools/wasnorm_wordpool_576.txt	LTP290	ltpFR2	10	8	PLAZA	1088	n/a	n/a	0	0	0
1672.322	n/a	WORD	836161	wordpools/wasnorm_wordpool_576.txt	LTP290	ltpFR2	10	8	OMELET	976	n/a	n/a	0	0	0
1675.02	n/a	WORD	837510	wordpools/wasnorm_wordpool_576.txt	LTP290	ltpFR2	10	8	WORLD	1622	n/a	n/a	0	0	0
1677.514	n/a	WORD	838757	wordpools/wasnorm_wordpool_576.txt	LTP290	ltpFR2	10	8	PARSLEY	1016	n/a	n/a	0	0	0
1680.212	n/a	WORD	840106	wordpools/wasnorm_wordpool_576.txt	LTP290	ltpFR2	10	8	BANQUET	86	n/a	n/a	0	0	0
1681.824	n/a	START	840912	n/a	LTP290	ltpFR2	10	n/a	n/a	n/a	12	n/a	n/a	n/a	n/a
1682.92	n/a	DISTRACTOR	841460	n/a	LTP290	ltpFR2	10	8	n/a	n/a	n/a	n/a	0	0	0
1682.94	n/a	PROB	841470	n/a	LTP290	ltpFR2	10	n/a	n/a	n/a	12	15	7	5	3
1685.238	n/a	PROB	842619	n/a	LTP290	ltpFR2	10	n/a	n/a	n/a	12	15	5	6	4
1686.85	n/a	PROB	843425	n/a	LTP290	ltpFR2	10	n/a	n/a	n/a	12	12	7	1	4
1688.3	n/a	PROB	844150	n/a	LTP290	ltpFR2	10	n/a	n/a	n/a	12	18	3	7	8
1689.53	n/a	PROB	844765	n/a	LTP290	ltpFR2	10	n/a	n/a	n/a	12	22	9	5	8
1690.962	n/a	PROB	845481	n/a	LTP290	ltpFR2	10	n/a	n/a	n/a	12	24	8	7	9
1693.492	n/a	PROB	846746	n/a	LTP290	ltpFR2	10	n/a	n/a	n/a	12	13	2	7	4
1695.19	n/a	PROB	847595	n/a	LTP290	ltpFR2	10	n/a	n/a	n/a	12	20	9	4	7
1697.154	n/a	PROB	848577	n/a	LTP290	ltpFR2	10	n/a	n/a	n/a	12	17	4	9	4
1699.134	n/a	PROB	849567	n/a	LTP290	ltpFR2	10	n/a	n/a	n/a	12	20	3	9	8
1701.912	n/a	PROB	850956	n/a	LTP290	ltpFR2	10	n/a	n/a	n/a	12	13	4	3	6
1705.826	n/a	STOP	852913	n/a	LTP290	ltpFR2	10	n/a	n/a	n/a	12	n/a	n/a	n/a	n/a
1707.738	n/a	REC_START	853869	n/a	LTP290	ltpFR2	10	8	n/a	n/a	n/a	n/a	0	0	0
1709.426	n/a	REC_WORD	854713	wordpools/wasnorm_wordpool_576.txt	LTP290	ltpFR2	10	8	BISON	131	n/a	n/a	0	0	0
1709.92	n/a	REC_WORD	854960	wordpools/wasnorm_wordpool_576.txt	LTP290	ltpFR2	10	8	LEOPARD	812	n/a	n/a	0	0	0
1714.264	n/a	REC_WORD	857132	wordpools/wasnorm_wordpool_576.txt	LTP290	ltpFR2	10	8	TORTOISE	1486	n/a	n/a	0	0	0
1715.024	n/a	REC_WORD	857512	wordpools/wasnorm_wordpool_576.txt	LTP290	ltpFR2	10	8	FIREPLACE	570	n/a	n/a	0	0	0
1717.776	n/a	REC_WORD	858888	wordpools/wasnorm_wordpool_576.txt	LTP290	ltpFR2	10	8	CARRIAGE	248	n/a	n/a	0	0	0
1718.224	n/a	REC_WORD	859112	wordpools/wasnorm_wordpool_576.txt	LTP290	ltpFR2	10	8	MILDEW	893	n/a	n/a	0	0	0
1718.804	n/a	REC_WORD	859402	wordpools/wasnorm_wordpool_576.txt	LTP290	ltpFR2	10	8	GLOBE	641	n/a	n/a	0	0	0
1719.954	n/a	REC_WORD	859977	wordpools/wasnorm_wordpool_576.txt	LTP290	ltpFR2	10	8	WORLD	1622	n/a	n/a	0	0	0
1721.784	n/a	REC_WORD	860892	wordpools/wasnorm_wordpool_576.txt	LTP290	ltpFR2	10	8	GARLIC	624	n/a	n/a	0	0	0
1722.208	n/a	REC_WORD	861104	wordpools/wasnorm_wordpool_576.txt	LTP290	ltpFR2	10	8	CLOCK	325	n/a	n/a	0	0	0
1722.86	n/a	REC_WORD	861430	wordpools/wasnorm_wordpool_576.txt	LTP290	ltpFR2	10	8	EYELASH	546	n/a	n/a	0	0	0
1723.492	n/a	REC_WORD	861746	wordpools/wasnorm_wordpool_576.txt	LTP290	ltpFR2	10	8	PERFUME	1049	n/a	n/a	0	0	0
1724.694	n/a	REC_WORD	862347	wordpools/wasnorm_wordpool_576.txt	LTP290	ltpFR2	10	8	DRESSER	496	n/a	n/a	0	0	0
1725.314	n/a	REC_WORD	862657	wordpools/wasnorm_wordpool_576.txt	LTP290	ltpFR2	10	8	BUREAU	199	n/a	n/a	0	0	0
1727.582	n/a	REC_WORD	863791	wordpools/wasnorm_wordpool_576.txt	LTP290	ltpFR2	10	8	SANDWICH	1232	n/a	n/a	0	0	0
1728.464	n/a	REC_WORD	864232	wordpools/wasnorm_wordpool_576.txt	LTP290	ltpFR2	10	8	CRICKET	408	n/a	n/a	0	0	0
1729.506	n/a	REC_WORD	864753	wordpools/wasnorm_wordpool_576.txt	LTP290	ltpFR2	10	8	MATCH	878	n/a	n/a	0	0	0
1730.232	n/a	REC_WORD	865116	wordpools/wasnorm_wordpool_576.txt	LTP290	ltpFR2	10	8	PLAZA	1088	n/a	n/a	0	0	0
1732.85	n/a	REC_WORD	866425	wordpools/wasnorm_wordpool_576.txt	LTP290	ltpFR2	10	8	OMELET	976	n/a	n/a	0	0	0
1734.584	n/a	REC_WORD	867292	wordpools/wasnorm_wordpool_576.txt	LTP290	ltpFR2	10	8	LIPSTICK	829	n/a	n/a	0	0	0
1784.374	n/a	REST_REWET	892187	n/a	LTP290	ltpFR2	10	8	n/a	n/a	n/a	n/a	0	0	0
2147.884	n/a	DISTRACTOR	1073942	n/a	LTP290	ltpFR2	10	9	n/a	n/a	n/a	n/a	0	0	0
2147.884	n/a	START	1073942	n/a	LTP290	ltpFR2	10	n/a	n/a	n/a	13	n/a	n/a	n/a	n/a
2147.918	n/a	PROB	1073959	n/a	LTP290	ltpFR2	10	n/a	n/a	n/a	13	20	7	9	4
2149.532	n/a	PROB	1074766	n/a	LTP290	ltpFR2	10	n/a	n/a	n/a	13	25	7	9	9
2151.362	n/a	PROB	1075681	n/a	LTP290	ltpFR2	10	n/a	n/a	n/a	13	14	8	1	5
2152.844	n/a	PROB	1076422	n/a	LTP290	ltpFR2	10	n/a	n/a	n/a	13	16	7	1	8
2154.16	n/a	PROB	1077080	n/a	LTP290	ltpFR2	10	n/a	n/a	n/a	13	18	3	7	8
2155.358	n/a	PROB	1077679	n/a	LTP290	ltpFR2	10	n/a	n/a	n/a	13	14	6	5	3
2156.754	n/a	PROB	1078377	n/a	LTP290	ltpFR2	10	n/a	n/a	n/a	13	11	2	3	6
2158.054	n/a	PROB	1079027	n/a	LTP290	ltpFR2	10	n/a	n/a	n/a	13	20	3	9	8
2159.9	n/a	PROB	1079950	n/a	LTP290	ltpFR2	10	n/a	n/a	n/a	13	11	6	4	1
2161.0	n/a	PROB	1080500	n/a	LTP290	ltpFR2	10	n/a	n/a	n/a	13	20	8	4	8
2162.596	n/a	PROB	1081298	n/a	LTP290	ltpFR2	10	n/a	n/a	n/a	13	16	3	7	3
2164.046	n/a	PROB	1082023	n/a	LTP290	ltpFR2	10	n/a	n/a	n/a	13	16	4	5	7
2167.274	n/a	PROB	1083637	n/a	LTP290	ltpFR2	10	n/a	n/a	n/a	13	13	8	3	2
2170.88	n/a	STOP	1085440	n/a	LTP290	ltpFR2	10	n/a	n/a	n/a	13	n/a	n/a	n/a	n/a
2172.764	n/a	WORD	1086382	wordpools/wasnorm_wordpool_576.txt	LTP290	ltpFR2	10	9	DENIM	446	n/a	n/a	0	0	0
2175.41	n/a	WORD	1087705	wordpools/wasnorm_wordpool_576.txt	LTP290	ltpFR2	10	9	DRESS	495	n/a	n/a	0	0	0
2178.092	n/a	WORD	1089046	wordpools/wasnorm_wordpool_576.txt	LTP290	ltpFR2	10	9	PUPPY	1144	n/a	n/a	0	0	0
2180.636	n/a	WORD	1090318	wordpools/wasnorm_wordpool_576.txt	LTP290	ltpFR2	10	9	BLENDER	136	n/a	n/a	0	0	0
2183.4	n/a	WORD	1091700	wordpools/wasnorm_wordpool_576.txt	LTP290	ltpFR2	10	9	SUPPER	1411	n/a	n/a	0	0	0
2186.064	n/a	WORD	1093032	wordpools/wasnorm_wordpool_576.txt	LTP290	ltpFR2	10	9	GRILL	661	n/a	n/a	0	0	0
2188.742	n/a	WORD	1094371	wordpools/wasnorm_wordpool_576.txt	LTP290	ltpFR2	10	9	PLAYGROUND	1087	n/a	n/a	0	0	0
2191.42	n/a	WORD	1095710	wordpools/wasnorm_wordpool_576.txt	LTP290	ltpFR2	10	9	TURKEY	1520	n/a	n/a	0	0	0
2193.952	n/a	WORD	1096976	wordpools/wasnorm_wordpool_576.txt	LTP290	ltpFR2	10	9	CHAUFFEUR	283	n/a	n/a	0	0	0
2196.73	n/a	WORD	1098365	wordpools/wasnorm_wordpool_576.txt	LTP290	ltpFR2	10	9	MUMMY	932	n/a	n/a	0	0	0
2199.526	n/a	WORD	1099763	wordpools/wasnorm_wordpool_576.txt	LTP290	ltpFR2	10	9	ANTLER	29	n/a	n/a	0	0	0
2202.272	n/a	WORD	1101136	wordpools/wasnorm_wordpool_576.txt	LTP290	ltpFR2	10	9	PUDDING	1139	n/a	n/a	0	0	0
2205.084	n/a	WORD	1102542	wordpools/wasnorm_wordpool_576.txt	LTP290	ltpFR2	10	9	COFFEE	341	n/a	n/a	0	0	0
2207.53	n/a	WORD	1103765	wordpools/wasnorm_wordpool_576.txt	LTP290	ltpFR2	10	9	ROBIN	1199	n/a	n/a	0	0	0
2210.16	n/a	WORD	1105080	wordpools/wasnorm_wordpool_576.txt	LTP290	ltpFR2	10	9	ROOSTER	1209	n/a	n/a	0	0	0
2212.838	n/a	WORD	1106419	wordpools/wasnorm_wordpool_576.txt	LTP290	ltpFR2	10	9	LETTUCE	814	n/a	n/a	0	0	0
2215.368	n/a	WORD	1107684	wordpools/wasnorm_wordpool_576.txt	LTP290	ltpFR2	10	9	GARBAGE	622	n/a	n/a	0	0	0
2217.848	n/a	WORD	1108924	wordpools/wasnorm_wordpool_576.txt	LTP290	ltpFR2	10	9	KNAPSACK	783	n/a	n/a	0	0	0
2220.578	n/a	WORD	1110289	wordpools/wasnorm_wordpool_576.txt	LTP290	ltpFR2	10	9	UMPIRE	1535	n/a	n/a	0	0	0
2223.29	n/a	WORD	1111645	wordpools/wasnorm_wordpool_576.txt	LTP290	ltpFR2	10	9	SOFTBALL	1343	n/a	n/a	0	0	0
2226.086	n/a	WORD	1113043	wordpools/wasnorm_wordpool_576.txt	LTP290	ltpFR2	10	9	PRINCESS	1125	n/a	n/a	0	0	0
2228.648	n/a	WORD	1114324	wordpools/wasnorm_wordpool_576.txt	LTP290	ltpFR2	10	9	TRUCK	1512	n/a	n/a	0	0	0
2231.096	n/a	WORD	1115548	wordpools/wasnorm_wordpool_576.txt	LTP290	ltpFR2	10	9	WOMAN	1620	n/a	n/a	0	0	0
2233.908	n/a	WORD	1116954	wordpools/wasnorm_wordpool_576.txt	LTP290	ltpFR2	10	9	WHISTLE	1606	n/a	n/a	0	0	0
2235.522	n/a	START	1117761	n/a	LTP290	ltpFR2	10	n/a	n/a	n/a	14	n/a	n/a	n/a	n/a
2236.482	n/a	DISTRACTOR	1118241	n/a	LTP290	ltpFR2	10	9	n/a	n/a	n/a	n/a	0	0	0
2236.486	n/a	PROB	1118243	n/a	LTP290	ltpFR2	10	n/a	n/a	n/a	14	13	5	3	5
2237.802	n/a	PROB	1118901	n/a	LTP290	ltpFR2	10	n/a	n/a	n/a	14	12	8	1	3
2239.2	n/a	PROB	1119600	n/a	LTP290	ltpFR2	10	n/a	n/a	n/a	14	13	3	3	7
2240.748	n/a	PROB	1120374	n/a	LTP290	ltpFR2	10	n/a	n/a	n/a	14	13	5	2	6
2242.394	n/a	PROB	1121197	n/a	LTP290	ltpFR2	10	n/a	n/a	n/a	14	15	3	9	3
2243.826	n/a	PROB	1121913	n/a	LTP290	ltpFR2	10	n/a	n/a	n/a	14	13	3	6	4
2245.506	n/a	PROB	1122753	n/a	LTP290	ltpFR2	10	n/a	n/a	n/a	14	16	6	4	6
2246.688	n/a	PROB	1123344	n/a	LTP290	ltpFR2	10	n/a	n/a	n/a	14	14	2	5	7
2247.988	n/a	PROB	1123994	n/a	LTP290	ltpFR2	10	n/a	n/a	n/a	14	21	6	7	9
2249.6	n/a	PROB	1124800	n/a	LTP290	ltpFR2	10	n/a	n/a	n/a	14	18	8	2	8
2251.2	n/a	PROB	1125600	n/a	LTP290	ltpFR2	10	n/a	n/a	n/a	14	10	8	1	1
2252.396	n/a	PROB	1126198	n/a	LTP290	ltpFR2	10	n/a	n/a	n/a	14	7	1	2	4
2255.358	n/a	PROB	1127679	n/a	LTP290	ltpFR2	10	n/a	n/a	n/a	14	9	4	1	4
2256.656	n/a	PROB	1128328	n/a	LTP290	ltpFR2	10	n/a	n/a	n/a	14	16	6	1	9
2258.754	n/a	STOP	1129377	n/a	LTP290	ltpFR2	10	n/a	n/a	n/a	14	n/a	n/a	n/a	n/a
2261.402	n/a	REC_START	1130701	n/a	LTP290	ltpFR2	10	9	n/a	n/a	n/a	n/a	0	0	0
2262.584	n/a	REC_WORD	1131292	wordpools/wasnorm_wordpool_576.txt	LTP290	ltpFR2	10	9	SOFTBALL	1343	n/a	n/a	0	0	0
2263.218	n/a	REC_WORD	1131609	wordpools/wasnorm_wordpool_576.txt	LTP290	ltpFR2	10	9	PRINCESS	1125	n/a	n/a	0	0	0
2268.184	n/a	REC_WORD	1134092	wordpools/wasnorm_wordpool_576.txt	LTP290	ltpFR2	10	9	WOMAN	1620	n/a	n/a	0	0	0
2268.59	n/a	REC_WORD	1134295	wordpools/wasnorm_wordpool_576.txt	LTP290	ltpFR2	10	9	WHISTLE	1606	n/a	n/a	0	0	0
2273.93	n/a	REC_WORD	1136965	wordpools/wasnorm_wordpool_576.txt	LTP290	ltpFR2	10	9	MUMMY	932	n/a	n/a	0	0	0
2274.456	n/a	REC_WORD	1137228	wordpools/wasnorm_wordpool_576.txt	LTP290	ltpFR2	10	9	ANTLER	29	n/a	n/a	0	0	0
2276.34	n/a	REC_WORD	1138170	wordpools/wasnorm_wordpool_576.txt	LTP290	ltpFR2	10	9	DENIM	446	n/a	n/a	0	0	0
2276.786	n/a	REC_WORD	1138393	wordpools/wasnorm_wordpool_576.txt	LTP290	ltpFR2	10	9	PUPPY	1144	n/a	n/a	0	0	0
2277.306	n/a	REC_WORD	1138653	wordpools/wasnorm_wordpool_576.txt	LTP290	ltpFR2	10	9	DRESS	495	n/a	n/a	0	0	0
2352.068	n/a	WORD	1176034	wordpools/wasnorm_wordpool_576.txt	LTP290	ltpFR2	10	10	GAVEL	627	n/a	n/a	0	0	0
2354.63	n/a	WORD	1177315	wordpools/wasnorm_wordpool_576.txt	LTP290	ltpFR2	10	10	RUST	1219	n/a	n/a	0	0	0
2357.16	n/a	WORD	1178580	wordpools/wasnorm_wordpool_576.txt	LTP290	ltpFR2	10	10	FOOTBALL	591	n/a	n/a	0	0	0
2359.606	n/a	WORD	1179803	wordpools/wasnorm_wordpool_576.txt	LTP290	ltpFR2	10	10	KNIFE	785	n/a	n/a	0	0	0
2362.036	n/a	WORD	1181018	wordpools/wasnorm_wordpool_576.txt	LTP290	ltpFR2	10	10	MOTEL	919	n/a	n/a	0	0	0
2364.532	n/a	WORD	1182266	wordpools/wasnorm_wordpool_576.txt	LTP290	ltpFR2	10	10	CONVICT	371	n/a	n/a	0	0	0
2367.178	n/a	WORD	1183589	wordpools/wasnorm_wordpool_576.txt	LTP290	ltpFR2	10	10	OUTLAW	989	n/a	n/a	0	0	0
2369.806	n/a	WORD	1184903	wordpools/wasnorm_wordpool_576.txt	LTP290	ltpFR2	10	10	BOUQUET	157	n/a	n/a	0	0	0
2372.486	n/a	WORD	1186243	wordpools/wasnorm_wordpool_576.txt	LTP290	ltpFR2	10	10	DIVER	476	n/a	n/a	0	0	0
2375.282	n/a	WORD	1187641	wordpools/wasnorm_wordpool_576.txt	LTP290	ltpFR2	10	10	RAFT	1159	n/a	n/a	0	0	0
2377.812	n/a	WORD	1188906	wordpools/wasnorm_wordpool_576.txt	LTP290	ltpFR2	10	10	CATCHER	258	n/a	n/a	0	0	0
2380.608	n/a	WORD	1190304	wordpools/wasnorm_wordpool_576.txt	LTP290	ltpFR2	10	10	FOREST	593	n/a	n/a	0	0	0
2383.038	n/a	WORD	1191519	wordpools/wasnorm_wordpool_576.txt	LTP290	ltpFR2	10	10	ELBOW	520	n/a	n/a	0	0	0
2385.782	n/a	WORD	1192891	wordpools/wasnorm_wordpool_576.txt	LTP290	ltpFR2	10	10	SIBLING	1301	n/a	n/a	0	0	0
2388.362	n/a	WORD	1194181	wordpools/wasnorm_wordpool_576.txt	LTP290	ltpFR2	10	10	DOLPHIN	483	n/a	n/a	0	0	0
2391.11	n/a	WORD	1195555	wordpools/wasnorm_wordpool_576.txt	LTP290	ltpFR2	10	10	DANDRUFF	439	n/a	n/a	0	0	0
2393.738	n/a	WORD	1196869	wordpools/wasnorm_wordpool_576.txt	LTP290	ltpFR2	10	10	AWARD	63	n/a	n/a	0	0	0
2396.218	n/a	WORD	1198109	wordpools/wasnorm_wordpool_576.txt	LTP290	ltpFR2	10	10	TWEEZERS	1526	n/a	n/a	0	0	0
2398.914	n/a	WORD	1199457	wordpools/wasnorm_wordpool_576.txt	LTP290	ltpFR2	10	10	TRANSPLANT	1496	n/a	n/a	0	0	0
2401.626	n/a	WORD	1200813	wordpools/wasnorm_wordpool_576.txt	LTP290	ltpFR2	10	10	MEDAL	885	n/a	n/a	0	0	0
2404.256	n/a	WORD	1202128	wordpools/wasnorm_wordpool_576.txt	LTP290	ltpFR2	10	10	THREAD	1460	n/a	n/a	0	0	0
2406.852	n/a	WORD	1203426	wordpools/wasnorm_wordpool_576.txt	LTP290	ltpFR2	10	10	HEADBAND	696	n/a	n/a	0	0	0
2409.398	n/a	WORD	1204699	wordpools/wasnorm_wordpool_576.txt	LTP290	ltpFR2	10	10	ARMY	39	n/a	n/a	0	0	0
2411.962	n/a	WORD	1205981	wordpools/wasnorm_wordpool_576.txt	LTP290	ltpFR2	10	10	HEDGE	699	n/a	n/a	0	0	0
2413.574	n/a	START	1206787	n/a	LTP290	ltpFR2	10	n/a	n/a	n/a	15	n/a	n/a	n/a	n/a
2414.75	n/a	DISTRACTOR	1207375	n/a	LTP290	ltpFR2	10	10	n/a	n/a	n/a	n/a	0	0	0
2414.756	n/a	PROB	1207378	n/a	LTP290	ltpFR2	10	n/a	n/a	n/a	15	12	2	2	8
2415.972	n/a	PROB	1207986	n/a	LTP290	ltpFR2	10	n/a	n/a	n/a	15	14	2	9	3
2418.334	n/a	PROB	1209167	n/a	LTP290	ltpFR2	10	n/a	n/a	n/a	15	8	1	5	2
2419.716	n/a	PROB	1209858	n/a	LTP290	ltpFR2	10	n/a	n/a	n/a	15	8	1	5	2
2420.864	n/a	PROB	1210432	n/a	LTP290	ltpFR2	10	n/a	n/a	n/a	15	8	1	6	1
2422.03	n/a	PROB	1211015	n/a	LTP290	ltpFR2	10	n/a	n/a	n/a	15	9	3	3	3
2423.146	n/a	PROB	1211573	n/a	LTP290	ltpFR2	10	n/a	n/a	n/a	15	16	6	1	9
2425.06	n/a	PROB	1212530	n/a	LTP290	ltpFR2	10	n/a	n/a	n/a	15	12	4	7	1
2426.34	n/a	PROB	1213170	n/a	LTP290	ltpFR2	10	n/a	n/a	n/a	15	18	5	4	9
2427.904	n/a	PROB	1213952	n/a	LTP290	ltpFR2	10	n/a	n/a	n/a	15	17	3	8	6
2429.534	n/a	PROB	1214767	n/a	LTP290	ltpFR2	10	n/a	n/a	n/a	15	21	9	4	9
2431.316	n/a	PROB	1215658	n/a	LTP290	ltpFR2	10	n/a	n/a	n/a	15	12	7	2	3
2433.048	n/a	PROB	1216524	n/a	LTP290	ltpFR2	10	n/a	n/a	n/a	15	12	9	2	1
2434.296	n/a	PROB	1217148	n/a	LTP290	ltpFR2	10	n/a	n/a	n/a	15	18	6	5	7
2435.994	n/a	PROB	1217997	n/a	LTP290	ltpFR2	10	n/a	n/a	n/a	15	11	5	3	3
2437.508	n/a	STOP	1218754	n/a	LTP290	ltpFR2	10	n/a	n/a	n/a	15	n/a	n/a	n/a	n/a
2439.454	n/a	REC_START	1219727	n/a	LTP290	ltpFR2	10	10	n/a	n/a	n/a	n/a	0	0	0
2443.656	n/a	REC_WORD	1221828	wordpools/wasnorm_wordpool_576.txt	LTP290	ltpFR2	10	10	GAVEL	627	n/a	n/a	0	0	0
2444.686	n/a	REC_WORD	1222343	wordpools/wasnorm_wordpool_576.txt	LTP290	ltpFR2	10	10	OUTLAW	989	n/a	n/a	0	0	0
2445.132	n/a	REC_WORD	1222566	wordpools/wasnorm_wordpool_576.txt	LTP290	ltpFR2	10	10	CONVICT	371	n/a	n/a	0	0	0
2530.136	n/a	WORD	1265068	wordpools/wasnorm_wordpool_576.txt	LTP290	ltpFR2	10	11	POET	1095	n/a	n/a	0	0	0
2532.666	n/a	WORD	1266333	wordpools/wasnorm_wordpool_576.txt	LTP290	ltpFR2	10	11	BURGLAR	200	n/a	n/a	0	0	0
2535.33	n/a	WORD	1267665	wordpools/wasnorm_wordpool_576.txt	LTP290	ltpFR2	10	11	THIEF	1456	n/a	n/a	0	0	0
2538.108	n/a	WORD	1269054	wordpools/wasnorm_wordpool_576.txt	LTP290	ltpFR2	10	11	CRIB	407	n/a	n/a	0	0	0
2540.686	n/a	WORD	1270343	wordpools/wasnorm_wordpool_576.txt	LTP290	ltpFR2	10	11	TOASTER	1472	n/a	n/a	0	0	0
2543.184	n/a	WORD	1271592	wordpools/wasnorm_wordpool_576.txt	LTP290	ltpFR2	10	11	TUTU	1524	n/a	n/a	0	0	0
2545.78	n/a	WORD	1272890	wordpools/wasnorm_wordpool_576.txt	LTP290	ltpFR2	10	11	VIKING	1565	n/a	n/a	0	0	0
2548.226	n/a	WORD	1274113	wordpools/wasnorm_wordpool_576.txt	LTP290	ltpFR2	10	11	PORK	1108	n/a	n/a	0	0	0
2550.94	n/a	WORD	1275470	wordpools/wasnorm_wordpool_576.txt	LTP290	ltpFR2	10	11	POISON	1096	n/a	n/a	0	0	0
2553.5	n/a	WORD	1276750	wordpools/wasnorm_wordpool_576.txt	LTP290	ltpFR2	10	11	SISTER	1312	n/a	n/a	0	0	0
2556.082	n/a	WORD	1278041	wordpools/wasnorm_wordpool_576.txt	LTP290	ltpFR2	10	11	HEART	697	n/a	n/a	0	0	0
2558.694	n/a	WORD	1279347	wordpools/wasnorm_wordpool_576.txt	LTP290	ltpFR2	10	11	CREATURE	403	n/a	n/a	0	0	0
2561.29	n/a	WORD	1280645	wordpools/wasnorm_wordpool_576.txt	LTP290	ltpFR2	10	11	RATTLE	1170	n/a	n/a	0	0	0
2564.002	n/a	WORD	1282001	wordpools/wasnorm_wordpool_576.txt	LTP290	ltpFR2	10	11	INFANT	737	n/a	n/a	0	0	0
2566.598	n/a	WORD	1283299	wordpools/wasnorm_wordpool_576.txt	LTP290	ltpFR2	10	11	BUGGY	188	n/a	n/a	0	0	0
2569.046	n/a	WORD	1284523	wordpools/wasnorm_wordpool_576.txt	LTP290	ltpFR2	10	11	EUROPE	541	n/a	n/a	0	0	0
2571.64	n/a	WORD	1285820	wordpools/wasnorm_wordpool_576.txt	LTP290	ltpFR2	10	11	CLAM	315	n/a	n/a	0	0	0
2574.27	n/a	WORD	1287135	wordpools/wasnorm_wordpool_576.txt	LTP290	ltpFR2	10	11	SLIME	1327	n/a	n/a	0	0	0
2577.0	n/a	WORD	1288500	wordpools/wasnorm_wordpool_576.txt	LTP290	ltpFR2	10	11	PERCH	1048	n/a	n/a	0	0	0
2579.662	n/a	WORD	1289831	wordpools/wasnorm_wordpool_576.txt	LTP290	ltpFR2	10	11	SLOPE	1328	n/a	n/a	0	0	0
2582.442	n/a	WORD	1291221	wordpools/wasnorm_wordpool_576.txt	LTP290	ltpFR2	10	11	PATROL	1027	n/a	n/a	0	0	0
2585.156	n/a	WORD	1292578	wordpools/wasnorm_wordpool_576.txt	LTP290	ltpFR2	10	11	TWIG	1527	n/a	n/a	0	0	0
2587.834	n/a	WORD	1293917	wordpools/wasnorm_wordpool_576.txt	LTP290	ltpFR2	10	11	LUMBER	848	n/a	n/a	0	0	0
2590.58	n/a	WORD	1295290	wordpools/wasnorm_wordpool_576.txt	LTP290	ltpFR2	10	11	BABY	64	n/a	n/a	0	0	0
2592.196	n/a	START	1296098	n/a	LTP290	ltpFR2	10	n/a	n/a	n/a	16	n/a	n/a	n/a	n/a
2593.06	n/a	DISTRACTOR	1296530	n/a	LTP290	ltpFR2	10	11	n/a	n/a	n/a	n/a	0	0	0
2593.06	n/a	PROB	1296530	n/a	LTP290	ltpFR2	10	n/a	n/a	n/a	16	24	6	9	9
2594.99	n/a	PROB	1297495	n/a	LTP290	ltpFR2	10	n/a	n/a	n/a	16	13	9	2	2
2596.306	n/a	PROB	1298153	n/a	LTP290	ltpFR2	10	n/a	n/a	n/a	16	8	2	3	3
2597.97	n/a	PROB	1298985	n/a	LTP290	ltpFR2	10	n/a	n/a	n/a	16	16	5	4	7
2599.384	n/a	PROB	1299692	n/a	LTP290	ltpFR2	10	n/a	n/a	n/a	16	14	4	5	5
2601.714	n/a	PROB	1300857	n/a	LTP290	ltpFR2	10	n/a	n/a	n/a	16	13	4	3	6
2603.41	n/a	PROB	1301705	n/a	LTP290	ltpFR2	10	n/a	n/a	n/a	16	8	1	4	3
2605.16	n/a	PROB	1302580	n/a	LTP290	ltpFR2	10	n/a	n/a	n/a	16	7	1	2	4
2606.956	n/a	PROB	1303478	n/a	LTP290	ltpFR2	10	n/a	n/a	n/a	16	16	3	5	8
2608.586	n/a	PROB	1304293	n/a	LTP290	ltpFR2	10	n/a	n/a	n/a	16	15	5	5	5
2609.802	n/a	PROB	1304901	n/a	LTP290	ltpFR2	10	n/a	n/a	n/a	16	17	3	6	8
2611.914	n/a	PROB	1305957	n/a	LTP290	ltpFR2	10	n/a	n/a	n/a	16	19	5	7	7
2613.712	n/a	PROB	1306856	n/a	LTP290	ltpFR2	10	n/a	n/a	n/a	16	19	8	9	2
2615.2	n/a	STOP	1307600	n/a	LTP290	ltpFR2	10	n/a	n/a	n/a	16	n/a	n/a	n/a	n/a
2618.024	n/a	REC_START	1309012	n/a	LTP290	ltpFR2	10	11	n/a	n/a	n/a	n/a	0	0	0
2624.94	n/a	REC_WORD	1312470	wordpools/wasnorm_wordpool_576.txt	LTP290	ltpFR2	10	11	POET	1095	n/a	n/a	0	0	0
2708.672	n/a	DISTRACTOR	1354336	n/a	LTP290	ltpFR2	10	12	n/a	n/a	n/a	n/a	0	0	0
2708.672	n/a	START	1354336	n/a	LTP290	ltpFR2	10	n/a	n/a	n/a	17	n/a	n/a	n/a	n/a
2708.704	n/a	PROB	1354352	n/a	LTP290	ltpFR2	10	n/a	n/a	n/a	17	15	5	4	6
2709.97	n/a	PROB	1354985	n/a	LTP290	ltpFR2	10	n/a	n/a	n/a	17	15	8	3	4
2712.898	n/a	PROB	1356449	n/a	LTP290	ltpFR2	10	n/a	n/a	n/a	17	20	8	9	3
2714.896	n/a	PROB	1357448	n/a	LTP290	ltpFR2	10	n/a	n/a	n/a	17	10	2	6	2
2716.128	n/a	PROB	1358064	n/a	LTP290	ltpFR2	10	n/a	n/a	n/a	17	6	1	2	3
2717.84	n/a	PROB	1358920	n/a	LTP290	ltpFR2	10	n/a	n/a	n/a	17	18	3	8	7
2719.356	n/a	PROB	1359678	n/a	LTP290	ltpFR2	10	n/a	n/a	n/a	17	22	7	8	7
2722.884	n/a	PROB	1361442	n/a	LTP290	ltpFR2	10	n/a	n/a	n/a	17	14	5	8	1
2725.846	n/a	PROB	1362923	n/a	LTP290	ltpFR2	10	n/a	n/a	n/a	17	18	7	2	8
2728.126	n/a	PROB	1364063	n/a	LTP290	ltpFR2	10	n/a	n/a	n/a	17	20	8	5	7
2729.64	n/a	PROB	1364820	n/a	LTP290	ltpFR2	10	n/a	n/a	n/a	17	12	5	6	1
2731.2	n/a	STOP	1365600	n/a	LTP290	ltpFR2	10	n/a	n/a	n/a	17	n/a	n/a	n/a	n/a
2733.6	n/a	WORD	1366800	wordpools/wasnorm_wordpool_576.txt	LTP290	ltpFR2	10	12	NIGHTGOWN	953	n/a	n/a	0	0	0
2736.164	n/a	WORD	1368082	wordpools/wasnorm_wordpool_576.txt	LTP290	ltpFR2	10	12	JUNGLE	764	n/a	n/a	0	0	0
2738.644	n/a	WORD	1369322	wordpools/wasnorm_wordpool_576.txt	LTP290	ltpFR2	10	12	BUTCHER	203	n/a	n/a	0	0	0
2741.158	n/a	WORD	1370579	wordpools/wasnorm_wordpool_576.txt	LTP290	ltpFR2	10	12	SPOON	1357	n/a	n/a	0	0	0
2743.736	n/a	WORD	1371868	wordpools/wasnorm_wordpool_576.txt	LTP290	ltpFR2	10	12	BALLOON	75	n/a	n/a	0	0	0
2746.25	n/a	WORD	1373125	wordpools/wasnorm_wordpool_576.txt	LTP290	ltpFR2	10	12	JELLY	755	n/a	n/a	0	0	0
2748.746	n/a	WORD	1374373	wordpools/wasnorm_wordpool_576.txt	LTP290	ltpFR2	10	12	ZEBRA	1635	n/a	n/a	0	0	0
2751.526	n/a	WORD	1375763	wordpools/wasnorm_wordpool_576.txt	LTP290	ltpFR2	10	12	ANKLE	24	n/a	n/a	0	0	0
2754.206	n/a	WORD	1377103	wordpools/wasnorm_wordpool_576.txt	LTP290	ltpFR2	10	12	GALLON	618	n/a	n/a	0	0	0
2757.018	n/a	WORD	1378509	wordpools/wasnorm_wordpool_576.txt	LTP290	ltpFR2	10	12	VAGRANT	1544	n/a	n/a	0	0	0
2759.464	n/a	WORD	1379732	wordpools/wasnorm_wordpool_576.txt	LTP290	ltpFR2	10	12	COUNTY	389	n/a	n/a	0	0	0
2762.244	n/a	WORD	1381122	wordpools/wasnorm_wordpool_576.txt	LTP290	ltpFR2	10	12	AIRPORT	13	n/a	n/a	0	0	0
2764.904	n/a	WORD	1382452	wordpools/wasnorm_wordpool_576.txt	LTP290	ltpFR2	10	12	SHOULDER	1294	n/a	n/a	0	0	0
2767.484	n/a	WORD	1383742	wordpools/wasnorm_wordpool_576.txt	LTP290	ltpFR2	10	12	PLUTO	1092	n/a	n/a	0	0	0
2770.114	n/a	WORD	1385057	wordpools/wasnorm_wordpool_576.txt	LTP290	ltpFR2	10	12	SHOVEL	1295	n/a	n/a	0	0	0
2772.876	n/a	WORD	1386438	wordpools/wasnorm_wordpool_576.txt	LTP290	ltpFR2	10	12	TRENCH	1503	n/a	n/a	0	0	0
2775.49	n/a	WORD	1387745	wordpools/wasnorm_wordpool_576.txt	LTP290	ltpFR2	10	12	LABEL	790	n/a	n/a	0	0	0
2778.02	n/a	WORD	1389010	wordpools/wasnorm_wordpool_576.txt	LTP290	ltpFR2	10	12	DONKEY	484	n/a	n/a	0	0	0
2780.698	n/a	WORD	1390349	wordpools/wasnorm_wordpool_576.txt	LTP290	ltpFR2	10	12	PISTON	1076	n/a	n/a	0	0	0
2783.228	n/a	WORD	1391614	wordpools/wasnorm_wordpool_576.txt	LTP290	ltpFR2	10	12	ROBBER	1197	n/a	n/a	0	0	0
2785.89	n/a	WORD	1392945	wordpools/wasnorm_wordpool_576.txt	LTP290	ltpFR2	10	12	MILK	895	n/a	n/a	0	0	0
2788.702	n/a	WORD	1394351	wordpools/wasnorm_wordpool_576.txt	LTP290	ltpFR2	10	12	ASIA	46	n/a	n/a	0	0	0
2791.398	n/a	WORD	1395699	wordpools/wasnorm_wordpool_576.txt	LTP290	ltpFR2	10	12	COUNTRY	388	n/a	n/a	0	0	0
2794.196	n/a	WORD	1397098	wordpools/wasnorm_wordpool_576.txt	LTP290	ltpFR2	10	12	GIRL	637	n/a	n/a	0	0	0
2795.81	n/a	START	1397905	n/a	LTP290	ltpFR2	10	n/a	n/a	n/a	18	n/a	n/a	n/a	n/a
2796.998	n/a	DISTRACTOR	1398499	n/a	LTP290	ltpFR2	10	12	n/a	n/a	n/a	n/a	0	0	0
2797.008	n/a	PROB	1398504	n/a	LTP290	ltpFR2	10	n/a	n/a	n/a	18	12	8	2	2
2798.988	n/a	PROB	1399494	n/a	LTP290	ltpFR2	10	n/a	n/a	n/a	18	16	7	1	8
2801.036	n/a	PROB	1400518	n/a	LTP290	ltpFR2	10	n/a	n/a	n/a	18	22	6	8	6
2803.032	n/a	PROB	1401516	n/a	LTP290	ltpFR2	10	n/a	n/a	n/a	18	14	5	2	7
2804.33	n/a	PROB	1402165	n/a	LTP290	ltpFR2	10	n/a	n/a	n/a	18	7	1	3	3
2805.744	n/a	PROB	1402872	n/a	LTP290	ltpFR2	10	n/a	n/a	n/a	18	7	1	4	2
2807.26	n/a	PROB	1403630	n/a	LTP290	ltpFR2	10	n/a	n/a	n/a	18	13	3	8	2
2808.706	n/a	PROB	1404353	n/a	LTP290	ltpFR2	10	n/a	n/a	n/a	18	14	2	6	6
2810.904	n/a	PROB	1405452	n/a	LTP290	ltpFR2	10	n/a	n/a	n/a	18	12	9	2	1
2812.202	n/a	PROB	1406101	n/a	LTP290	ltpFR2	10	n/a	n/a	n/a	18	14	1	7	6
2813.966	n/a	PROB	1406983	n/a	LTP290	ltpFR2	10	n/a	n/a	n/a	18	9	7	1	1
2815.896	n/a	PROB	1407948	n/a	LTP290	ltpFR2	10	n/a	n/a	n/a	18	15	3	7	5
2819.81	n/a	STOP	1409905	n/a	LTP290	ltpFR2	10	n/a	n/a	n/a	18	n/a	n/a	n/a	n/a
2821.654	n/a	REC_START	1410827	n/a	LTP290	ltpFR2	10	12	n/a	n/a	n/a	n/a	0	0	0
2825.276	n/a	REC_WORD	1412638	wordpools/wasnorm_wordpool_576.txt	LTP290	ltpFR2	10	12	COUNTRY	388	n/a	n/a	0	0	0
2825.93	n/a	REC_WORD	1412965	wordpools/wasnorm_wordpool_576.txt	LTP290	ltpFR2	10	12	GIRL	637	n/a	n/a	0	0	0
2831.768	n/a	REC_WORD	1415884	wordpools/wasnorm_wordpool_576.txt	LTP290	ltpFR2	10	12	JUNGLE	764	n/a	n/a	0	0	0
2832.256	n/a	REC_WORD	1416128	wordpools/wasnorm_wordpool_576.txt	LTP290	ltpFR2	10	12	NIGHTGOWN	953	n/a	n/a	0	0	0
2832.924	n/a	REC_WORD	1416462	wordpools/wasnorm_wordpool_576.txt	LTP290	ltpFR2	10	12	BUTCHER	203	n/a	n/a	0	0	0
2912.404	n/a	WORD	1456202	wordpools/wasnorm_wordpool_576.txt	LTP290	ltpFR2	10	13	BRICK	172	n/a	n/a	0	0	0
2915.2	n/a	WORD	1457600	wordpools/wasnorm_wordpool_576.txt	LTP290	ltpFR2	10	13	BODY	145	n/a	n/a	0	0	0
2917.928	n/a	WORD	1458964	wordpools/wasnorm_wordpool_576.txt	LTP290	ltpFR2	10	13	KITCHEN	778	n/a	n/a	0	0	0
2920.574	n/a	WORD	1460287	wordpools/wasnorm_wordpool_576.txt	LTP290	ltpFR2	10	13	STAR	1373	n/a	n/a	0	0	0
2923.304	n/a	WORD	1461652	wordpools/wasnorm_wordpool_576.txt	LTP290	ltpFR2	10	13	OZONE	996	n/a	n/a	0	0	0
2926.0	n/a	WORD	1463000	wordpools/wasnorm_wordpool_576.txt	LTP290	ltpFR2	10	13	PRINCE	1124	n/a	n/a	0	0	0
2928.546	n/a	WORD	1464273	wordpools/wasnorm_wordpool_576.txt	LTP290	ltpFR2	10	13	FLEET	578	n/a	n/a	0	0	0
2931.226	n/a	WORD	1465613	wordpools/wasnorm_wordpool_576.txt	LTP290	ltpFR2	10	13	PIGMENT	1066	n/a	n/a	0	0	0
2933.706	n/a	WORD	1466853	wordpools/wasnorm_wordpool_576.txt	LTP290	ltpFR2	10	13	CLAMP	316	n/a	n/a	0	0	0
2936.402	n/a	WORD	1468201	wordpools/wasnorm_wordpool_576.txt	LTP290	ltpFR2	10	13	STOMACH	1384	n/a	n/a	0	0	0
2938.998	n/a	WORD	1469499	wordpools/wasnorm_wordpool_576.txt	LTP290	ltpFR2	10	13	ULCER	1533	n/a	n/a	0	0	0
2941.61	n/a	WORD	1470805	wordpools/wasnorm_wordpool_576.txt	LTP290	ltpFR2	10	13	SPOUSE	1358	n/a	n/a	0	0	0
2944.274	n/a	WORD	1472137	wordpools/wasnorm_wordpool_576.txt	LTP290	ltpFR2	10	13	WIFE	1609	n/a	n/a	0	0	0
2946.902	n/a	WORD	1473451	wordpools/wasnorm_wordpool_576.txt	LTP290	ltpFR2	10	13	GRIZZLY	662	n/a	n/a	0	0	0
2949.648	n/a	WORD	1474824	wordpools/wasnorm_wordpool_576.txt	LTP290	ltpFR2	10	13	APRON	35	n/a	n/a	0	0	0
2952.41	n/a	WORD	1476205	wordpools/wasnorm_wordpool_576.txt	LTP290	ltpFR2	10	13	PALACE	1006	n/a	n/a	0	0	0
2955.09	n/a	WORD	1477545	wordpools/wasnorm_wordpool_576.txt	LTP290	ltpFR2	10	13	ITEM	746	n/a	n/a	0	0	0
2957.736	n/a	WORD	1478868	wordpools/wasnorm_wordpool_576.txt	LTP290	ltpFR2	10	13	PILOT	1070	n/a	n/a	0	0	0
2960.398	n/a	WORD	1480199	wordpools/wasnorm_wordpool_576.txt	LTP290	ltpFR2	10	13	BEAST	108	n/a	n/a	0	0	0
2963.178	n/a	WORD	1481589	wordpools/wasnorm_wordpool_576.txt	LTP290	ltpFR2	10	13	MEAT	883	n/a	n/a	0	0	0
2965.608	n/a	WORD	1482804	wordpools/wasnorm_wordpool_576.txt	LTP290	ltpFR2	10	13	TILE	1468	n/a	n/a	0	0	0
2968.088	n/a	WORD	1484044	wordpools/wasnorm_wordpool_576.txt	LTP290	ltpFR2	10	13	LIVER	833	n/a	n/a	0	0	0
2970.7	n/a	WORD	1485350	wordpools/wasnorm_wordpool_576.txt	LTP290	ltpFR2	10	13	CRATER	400	n/a	n/a	0	0	0
2973.462	n/a	WORD	1486731	wordpools/wasnorm_wordpool_576.txt	LTP290	ltpFR2	10	13	STAKE	1368	n/a	n/a	0	0	0
2975.078	n/a	START	1487539	n/a	LTP290	ltpFR2	10	n/a	n/a	n/a	19	n/a	n/a	n/a	n/a
2975.914	n/a	DISTRACTOR	1487957	n/a	LTP290	ltpFR2	10	13	n/a	n/a	n/a	n/a	0	0	0
2975.926	n/a	PROB	1487963	n/a	LTP290	ltpFR2	10	n/a	n/a	n/a	19	17	6	5	6
2978.406	n/a	PROB	1489203	n/a	LTP290	ltpFR2	10	n/a	n/a	n/a	19	15	7	7	1
2979.554	n/a	PROB	1489777	n/a	LTP290	ltpFR2	10	n/a	n/a	n/a	19	19	6	9	4
2981.534	n/a	PROB	1490767	n/a	LTP290	ltpFR2	10	n/a	n/a	n/a	19	7	3	1	3
2983.232	n/a	PROB	1491616	n/a	LTP290	ltpFR2	10	n/a	n/a	n/a	19	11	4	2	5
2984.63	n/a	PROB	1492315	n/a	LTP290	ltpFR2	10	n/a	n/a	n/a	19	16	2	5	9
2986.046	n/a	PROB	1493023	n/a	LTP290	ltpFR2	10	n/a	n/a	n/a	19	26	9	9	8
2988.176	n/a	PROB	1494088	n/a	LTP290	ltpFR2	10	n/a	n/a	n/a	19	22	6	9	7
2989.756	n/a	PROB	1494878	n/a	LTP290	ltpFR2	10	n/a	n/a	n/a	19	15	8	2	5
2991.172	n/a	PROB	1495586	n/a	LTP290	ltpFR2	10	n/a	n/a	n/a	19	19	5	8	6
2993.152	n/a	PROB	1496576	n/a	LTP290	ltpFR2	10	n/a	n/a	n/a	19	21	9	3	9
2994.814	n/a	PROB	1497407	n/a	LTP290	ltpFR2	10	n/a	n/a	n/a	19	5	2	1	2
2996.646	n/a	PROB	1498323	n/a	LTP290	ltpFR2	10	n/a	n/a	n/a	19	14	3	9	2
2998.06	n/a	STOP	1499030	n/a	LTP290	ltpFR2	10	n/a	n/a	n/a	19	n/a	n/a	n/a	n/a
3000.906	n/a	REC_START	1500453	n/a	LTP290	ltpFR2	10	13	n/a	n/a	n/a	n/a	0	0	0
3007.924	n/a	REC_WORD	1503962	wordpools/wasnorm_wordpool_576.txt	LTP290	ltpFR2	10	13	BRICK	172	n/a	n/a	0	0	0
3008.41	n/a	REC_WORD	1504205	wordpools/wasnorm_wordpool_576.txt	LTP290	ltpFR2	10	13	BODY	145	n/a	n/a	0	0	0
3091.572	n/a	WORD	1545786	wordpools/wasnorm_wordpool_576.txt	LTP290	ltpFR2	10	14	HAND	683	n/a	n/a	0	0	0
3094.118	n/a	WORD	1547059	wordpools/wasnorm_wordpool_576.txt	LTP290	ltpFR2	10	14	SUNSET	1408	n/a	n/a	0	0	0
3096.648	n/a	WORD	1548324	wordpools/wasnorm_wordpool_576.txt	LTP290	ltpFR2	10	14	PARENT	1013	n/a	n/a	0	0	0
3099.394	n/a	WORD	1549697	wordpools/wasnorm_wordpool_576.txt	LTP290	ltpFR2	10	14	KEEPER	769	n/a	n/a	0	0	0
3102.074	n/a	WORD	1551037	wordpools/wasnorm_wordpool_576.txt	LTP290	ltpFR2	10	14	GAZELLE	628	n/a	n/a	0	0	0
3104.702	n/a	WORD	1552351	wordpools/wasnorm_wordpool_576.txt	LTP290	ltpFR2	10	14	COCKTAIL	338	n/a	n/a	0	0	0
3107.182	n/a	WORD	1553591	wordpools/wasnorm_wordpool_576.txt	LTP290	ltpFR2	10	14	CREVICE	405	n/a	n/a	0	0	0
3109.844	n/a	WORD	1554922	wordpools/wasnorm_wordpool_576.txt	LTP290	ltpFR2	10	14	SUITCASE	1403	n/a	n/a	0	0	0
3112.39	n/a	WORD	1556195	wordpools/wasnorm_wordpool_576.txt	LTP290	ltpFR2	10	14	EAGLE	512	n/a	n/a	0	0	0
3114.87	n/a	WORD	1557435	wordpools/wasnorm_wordpool_576.txt	LTP290	ltpFR2	10	14	LIGHTNING	820	n/a	n/a	0	0	0
3117.416	n/a	WORD	1558708	wordpools/wasnorm_wordpool_576.txt	LTP290	ltpFR2	10	14	DRIVER	499	n/a	n/a	0	0	0
3120.08	n/a	WORD	1560040	wordpools/wasnorm_wordpool_576.txt	LTP290	ltpFR2	10	14	SWORD	1423	n/a	n/a	0	0	0
3122.542	n/a	WORD	1561271	wordpools/wasnorm_wordpool_576.txt	LTP290	ltpFR2	10	14	SCISSORS	1250	n/a	n/a	0	0	0
3125.222	n/a	WORD	1562611	wordpools/wasnorm_wordpool_576.txt	LTP290	ltpFR2	10	14	CITRUS	313	n/a	n/a	0	0	0
3127.952	n/a	WORD	1563976	wordpools/wasnorm_wordpool_576.txt	LTP290	ltpFR2	10	14	APPLE	33	n/a	n/a	0	0	0
3130.712	n/a	WORD	1565356	wordpools/wasnorm_wordpool_576.txt	LTP290	ltpFR2	10	14	COIN	343	n/a	n/a	0	0	0
3133.508	n/a	WORD	1566754	wordpools/wasnorm_wordpool_576.txt	LTP290	ltpFR2	10	14	PROTON	1132	n/a	n/a	0	0	0
3136.19	n/a	WORD	1568095	wordpools/wasnorm_wordpool_576.txt	LTP290	ltpFR2	10	14	AIRPLANE	12	n/a	n/a	0	0	0
3138.618	n/a	WORD	1569309	wordpools/wasnorm_wordpool_576.txt	LTP290	ltpFR2	10	14	SUNRISE	1407	n/a	n/a	0	0	0
3141.364	n/a	WORD	1570682	wordpools/wasnorm_wordpool_576.txt	LTP290	ltpFR2	10	14	BANK	83	n/a	n/a	0	0	0
3144.06	n/a	WORD	1572030	wordpools/wasnorm_wordpool_576.txt	LTP290	ltpFR2	10	14	OX	994	n/a	n/a	0	0	0
3146.84	n/a	WORD	1573420	wordpools/wasnorm_wordpool_576.txt	LTP290	ltpFR2	10	14	SKIRT	1319	n/a	n/a	0	0	0
3149.486	n/a	WORD	1574743	wordpools/wasnorm_wordpool_576.txt	LTP290	ltpFR2	10	14	BASEMENT	94	n/a	n/a	0	0	0
3152.016	n/a	WORD	1576008	wordpools/wasnorm_wordpool_576.txt	LTP290	ltpFR2	10	14	FARMER	553	n/a	n/a	0	0	0
3153.63	n/a	START	1576815	n/a	LTP290	ltpFR2	10	n/a	n/a	n/a	20	n/a	n/a	n/a	n/a
3154.468	n/a	DISTRACTOR	1577234	n/a	LTP290	ltpFR2	10	14	n/a	n/a	n/a	n/a	0	0	0
3154.478	n/a	PROB	1577239	n/a	LTP290	ltpFR2	10	n/a	n/a	n/a	20	15	5	5	5
3155.726	n/a	PROB	1577863	n/a	LTP290	ltpFR2	10	n/a	n/a	n/a	20	14	4	5	5
3157.69	n/a	PROB	1578845	n/a	LTP290	ltpFR2	10	n/a	n/a	n/a	20	12	2	6	4
3159.056	n/a	PROB	1579528	n/a	LTP290	ltpFR2	10	n/a	n/a	n/a	20	17	2	7	8
3160.602	n/a	PROB	1580301	n/a	LTP290	ltpFR2	10	n/a	n/a	n/a	20	20	3	8	9
3162.152	n/a	PROB	1581076	n/a	LTP290	ltpFR2	10	n/a	n/a	n/a	20	16	1	9	6
3163.432	n/a	PROB	1581716	n/a	LTP290	ltpFR2	10	n/a	n/a	n/a	20	12	5	6	1
3164.796	n/a	PROB	1582398	n/a	LTP290	ltpFR2	10	n/a	n/a	n/a	20	16	7	3	6
3165.912	n/a	PROB	1582956	n/a	LTP290	ltpFR2	10	n/a	n/a	n/a	20	14	5	7	2
3167.228	n/a	PROB	1583614	n/a	LTP290	ltpFR2	10	n/a	n/a	n/a	20	10	3	5	2
3168.79	n/a	PROB	1584395	n/a	LTP290	ltpFR2	10	n/a	n/a	n/a	20	21	5	8	9
3170.206	n/a	PROB	1585103	n/a	LTP290	ltpFR2	10	n/a	n/a	n/a	20	14	2	5	7
3172.834	n/a	PROB	1586417	n/a	LTP290	ltpFR2	10	n/a	n/a	n/a	20	16	2	7	7
3174.184	n/a	PROB	1587092	n/a	LTP290	ltpFR2	10	n/a	n/a	n/a	20	16	6	2	8
3177.63	n/a	STOP	1588815	n/a	LTP290	ltpFR2	10	n/a	n/a	n/a	20	n/a	n/a	n/a	n/a
3179.542	n/a	REC_START	1589771	n/a	LTP290	ltpFR2	10	14	n/a	n/a	n/a	n/a	0	0	0
3184.056	n/a	REC_WORD	1592028	wordpools/wasnorm_wordpool_576.txt	LTP290	ltpFR2	10	14	COIN	343	n/a	n/a	0	0	0
3270.242	n/a	WORD	1635121	wordpools/wasnorm_wordpool_576.txt	LTP290	ltpFR2	10	15	GUITAR	670	n/a	n/a	0	0	0
3272.752	n/a	WORD	1636376	wordpools/wasnorm_wordpool_576.txt	LTP290	ltpFR2	10	15	CONCERT	360	n/a	n/a	0	0	0
3275.532	n/a	WORD	1637766	wordpools/wasnorm_wordpool_576.txt	LTP290	ltpFR2	10	15	HANDBAG	684	n/a	n/a	0	0	0
3278.146	n/a	WORD	1639073	wordpools/wasnorm_wordpool_576.txt	LTP290	ltpFR2	10	15	ACTRESS	6	n/a	n/a	0	0	0
3280.924	n/a	WORD	1640462	wordpools/wasnorm_wordpool_576.txt	LTP290	ltpFR2	10	15	MAILBOX	857	n/a	n/a	0	0	0
3283.42	n/a	WORD	1641710	wordpools/wasnorm_wordpool_576.txt	LTP290	ltpFR2	10	15	SEAGULL	1261	n/a	n/a	0	0	0
3286.118	n/a	WORD	1643059	wordpools/wasnorm_wordpool_576.txt	LTP290	ltpFR2	10	15	SHORTS	1293	n/a	n/a	0	0	0
3288.68	n/a	WORD	1644340	wordpools/wasnorm_wordpool_576.txt	LTP290	ltpFR2	10	15	CLOTHES	327	n/a	n/a	0	0	0
3291.476	n/a	WORD	1645738	wordpools/wasnorm_wordpool_576.txt	LTP290	ltpFR2	10	15	MISSILE	900	n/a	n/a	0	0	0
3294.072	n/a	WORD	1647036	wordpools/wasnorm_wordpool_576.txt	LTP290	ltpFR2	10	15	PISTOL	1075	n/a	n/a	0	0	0
3296.568	n/a	WORD	1648284	wordpools/wasnorm_wordpool_576.txt	LTP290	ltpFR2	10	15	RELISH	1183	n/a	n/a	0	0	0
3299.114	n/a	WORD	1649557	wordpools/wasnorm_wordpool_576.txt	LTP290	ltpFR2	10	15	PASSAGE	1019	n/a	n/a	0	0	0
3301.626	n/a	WORD	1650813	wordpools/wasnorm_wordpool_576.txt	LTP290	ltpFR2	10	15	SCALLOP	1242	n/a	n/a	0	0	0
3304.108	n/a	WORD	1652054	wordpools/wasnorm_wordpool_576.txt	LTP290	ltpFR2	10	15	SHARK	1275	n/a	n/a	0	0	0
3306.602	n/a	WORD	1653301	wordpools/wasnorm_wordpool_576.txt	LTP290	ltpFR2	10	15	SPARROW	1347	n/a	n/a	0	0	0
3309.15	n/a	WORD	1654575	wordpools/wasnorm_wordpool_576.txt	LTP290	ltpFR2	10	15	POSTAGE	1113	n/a	n/a	0	0	0
3311.712	n/a	WORD	1655856	wordpools/wasnorm_wordpool_576.txt	LTP290	ltpFR2	10	15	AUTHOR	61	n/a	n/a	0	0	0
3314.16	n/a	WORD	1657080	wordpools/wasnorm_wordpool_576.txt	LTP290	ltpFR2	10	15	VIRUS	1572	n/a	n/a	0	0	0
3316.656	n/a	WORD	1658328	wordpools/wasnorm_wordpool_576.txt	LTP290	ltpFR2	10	15	PADDLE	1000	n/a	n/a	0	0	0
3319.418	n/a	WORD	1659709	wordpools/wasnorm_wordpool_576.txt	LTP290	ltpFR2	10	15	PARTNER	1017	n/a	n/a	0	0	0
3321.998	n/a	WORD	1660999	wordpools/wasnorm_wordpool_576.txt	LTP290	ltpFR2	10	15	TWISTER	1530	n/a	n/a	0	0	0
3324.81	n/a	WORD	1662405	wordpools/wasnorm_wordpool_576.txt	LTP290	ltpFR2	10	15	TART	1436	n/a	n/a	0	0	0
3327.44	n/a	WORD	1663720	wordpools/wasnorm_wordpool_576.txt	LTP290	ltpFR2	10	15	CLOUD	328	n/a	n/a	0	0	0
3330.12	n/a	WORD	1665060	wordpools/wasnorm_wordpool_576.txt	LTP290	ltpFR2	10	15	YACHT	1629	n/a	n/a	0	0	0
3331.732	n/a	START	1665866	n/a	LTP290	ltpFR2	10	n/a	n/a	n/a	21	n/a	n/a	n/a	n/a
3332.576	n/a	DISTRACTOR	1666288	n/a	LTP290	ltpFR2	10	15	n/a	n/a	n/a	n/a	0	0	0
3332.582	n/a	PROB	1666291	n/a	LTP290	ltpFR2	10	n/a	n/a	n/a	21	19	9	2	8
3334.628	n/a	PROB	1667314	n/a	LTP290	ltpFR2	10	n/a	n/a	n/a	21	10	1	3	6
3335.876	n/a	PROB	1667938	n/a	LTP290	ltpFR2	10	n/a	n/a	n/a	21	7	4	1	2
3337.44	n/a	PROB	1668720	n/a	LTP290	ltpFR2	10	n/a	n/a	n/a	21	16	7	1	8
3338.738	n/a	PROB	1669369	n/a	LTP290	ltpFR2	10	n/a	n/a	n/a	21	17	6	7	4
3340.22	n/a	PROB	1670110	n/a	LTP290	ltpFR2	10	n/a	n/a	n/a	21	21	7	8	6
3341.652	n/a	PROB	1670826	n/a	LTP290	ltpFR2	10	n/a	n/a	n/a	21	14	3	2	9
3343.1	n/a	PROB	1671550	n/a	LTP290	ltpFR2	10	n/a	n/a	n/a	21	14	5	1	8
3344.63	n/a	PROB	1672315	n/a	LTP290	ltpFR2	10	n/a	n/a	n/a	21	15	4	9	2
3346.162	n/a	PROB	1673081	n/a	LTP290	ltpFR2	10	n/a	n/a	n/a	21	18	4	9	5
3348.276	n/a	PROB	1674138	n/a	LTP290	ltpFR2	10	n/a	n/a	n/a	21	3	1	1	1
3349.274	n/a	PROB	1674637	n/a	LTP290	ltpFR2	10	n/a	n/a	n/a	21	12	4	2	6
3350.554	n/a	PROB	1675277	n/a	LTP290	ltpFR2	10	n/a	n/a	n/a	21	16	7	4	5
3352.302	n/a	PROB	1676151	n/a	LTP290	ltpFR2	10	n/a	n/a	n/a	21	18	9	4	5
3354.384	n/a	STOP	1677192	n/a	LTP290	ltpFR2	10	n/a	n/a	n/a	21	n/a	n/a	n/a	n/a
3357.528	n/a	REC_START	1678764	n/a	LTP290	ltpFR2	10	15	n/a	n/a	n/a	n/a	0	0	0
3401.178	n/a	REC_WORD	1700589	wordpools/wasnorm_wordpool_576.txt	LTP290	ltpFR2	10	15	GUITAR	670	n/a	n/a	0	0	0
3401.696	n/a	REC_WORD	1700848	wordpools/wasnorm_wordpool_576.txt	LTP290	ltpFR2	10	15	CONCERT	360	n/a	n/a	0	0	0
3448.178	n/a	DISTRACTOR	1724089	n/a	LTP290	ltpFR2	10	16	n/a	n/a	n/a	n/a	0	0	0
3448.178	n/a	START	1724089	n/a	LTP290	ltpFR2	10	n/a	n/a	n/a	22	n/a	n/a	n/a	n/a
3448.21	n/a	PROB	1724105	n/a	LTP290	ltpFR2	10	n/a	n/a	n/a	22	12	6	2	4
3449.74	n/a	PROB	1724870	n/a	LTP290	ltpFR2	10	n/a	n/a	n/a	22	21	7	8	6
3451.404	n/a	PROB	1725702	n/a	LTP290	ltpFR2	10	n/a	n/a	n/a	22	17	6	5	6
3453.136	n/a	PROB	1726568	n/a	LTP290	ltpFR2	10	n/a	n/a	n/a	22	13	7	2	4
3454.684	n/a	PROB	1727342	n/a	LTP290	ltpFR2	10	n/a	n/a	n/a	22	13	2	4	7
3457.878	n/a	PROB	1728939	n/a	LTP290	ltpFR2	10	n/a	n/a	n/a	22	16	9	7	1
3459.926	n/a	PROB	1729963	n/a	LTP290	ltpFR2	10	n/a	n/a	n/a	22	12	5	3	4
3462.056	n/a	PROB	1731028	n/a	LTP290	ltpFR2	10	n/a	n/a	n/a	22	13	9	2	2
3463.536	n/a	PROB	1731768	n/a	LTP290	ltpFR2	10	n/a	n/a	n/a	22	23	5	9	9
3465.65	n/a	PROB	1732825	n/a	LTP290	ltpFR2	10	n/a	n/a	n/a	22	12	8	1	3
3467.0	n/a	PROB	1733500	n/a	LTP290	ltpFR2	10	n/a	n/a	n/a	22	18	8	8	2
3468.446	n/a	PROB	1734223	n/a	LTP290	ltpFR2	10	n/a	n/a	n/a	22	20	7	6	7
3472.178	n/a	STOP	1736089	n/a	LTP290	ltpFR2	10	n/a	n/a	n/a	22	n/a	n/a	n/a	n/a
3473.324	n/a	WORD	1736662	wordpools/wasnorm_wordpool_576.txt	LTP290	ltpFR2	10	16	PLASTER	1085	n/a	n/a	0	0	0
3476.02	n/a	WORD	1738010	wordpools/wasnorm_wordpool_576.txt	LTP290	ltpFR2	10	16	SHRUB	1299	n/a	n/a	0	0	0
3478.832	n/a	WORD	1739416	wordpools/wasnorm_wordpool_576.txt	LTP290	ltpFR2	10	16	PEACH	1031	n/a	n/a	0	0	0
3481.56	n/a	WORD	1740780	wordpools/wasnorm_wordpool_576.txt	LTP290	ltpFR2	10	16	MAILMAN	858	n/a	n/a	0	0	0
3484.192	n/a	WORD	1742096	wordpools/wasnorm_wordpool_576.txt	LTP290	ltpFR2	10	16	WINDOW	1611	n/a	n/a	0	0	0
3486.754	n/a	WORD	1743377	wordpools/wasnorm_wordpool_576.txt	LTP290	ltpFR2	10	16	LUGGAGE	847	n/a	n/a	0	0	0
3489.4	n/a	WORD	1744700	wordpools/wasnorm_wordpool_576.txt	LTP290	ltpFR2	10	16	STICKER	1382	n/a	n/a	0	0	0
3491.996	n/a	WORD	1745998	wordpools/wasnorm_wordpool_576.txt	LTP290	ltpFR2	10	16	GRAVEL	659	n/a	n/a	0	0	0
3494.592	n/a	WORD	1747296	wordpools/wasnorm_wordpool_576.txt	LTP290	ltpFR2	10	16	LIZARD	834	n/a	n/a	0	0	0
3497.088	n/a	WORD	1748544	wordpools/wasnorm_wordpool_576.txt	LTP290	ltpFR2	10	16	SCULPTURE	1258	n/a	n/a	0	0	0
3499.518	n/a	WORD	1749759	wordpools/wasnorm_wordpool_576.txt	LTP290	ltpFR2	10	16	LAPEL	800	n/a	n/a	0	0	0
3502.28	n/a	WORD	1751140	wordpools/wasnorm_wordpool_576.txt	LTP290	ltpFR2	10	16	BLOUSE	139	n/a	n/a	0	0	0
3505.026	n/a	WORD	1752513	wordpools/wasnorm_wordpool_576.txt	LTP290	ltpFR2	10	16	FRANCE	601	n/a	n/a	0	0	0
3507.822	n/a	WORD	1753911	wordpools/wasnorm_wordpool_576.txt	LTP290	ltpFR2	10	16	FRAGRANCE	599	n/a	n/a	0	0	0
3510.368	n/a	WORD	1755184	wordpools/wasnorm_wordpool_576.txt	LTP290	ltpFR2	10	16	CABIN	211	n/a	n/a	0	0	0
3512.864	n/a	WORD	1756432	wordpools/wasnorm_wordpool_576.txt	LTP290	ltpFR2	10	16	STALLION	1369	n/a	n/a	0	0	0
3515.526	n/a	WORD	1757763	wordpools/wasnorm_wordpool_576.txt	LTP290	ltpFR2	10	16	FRIAR	605	n/a	n/a	0	0	0
3518.224	n/a	WORD	1759112	wordpools/wasnorm_wordpool_576.txt	LTP290	ltpFR2	10	16	VALVE	1546	n/a	n/a	0	0	0
3520.786	n/a	WORD	1760393	wordpools/wasnorm_wordpool_576.txt	LTP290	ltpFR2	10	16	RIFLE	1192	n/a	n/a	0	0	0
3523.498	n/a	WORD	1761749	wordpools/wasnorm_wordpool_576.txt	LTP290	ltpFR2	10	16	STAPLE	1371	n/a	n/a	0	0	0
3526.078	n/a	WORD	1763039	wordpools/wasnorm_wordpool_576.txt	LTP290	ltpFR2	10	16	STATUE	1374	n/a	n/a	0	0	0
3528.874	n/a	WORD	1764437	wordpools/wasnorm_wordpool_576.txt	LTP290	ltpFR2	10	16	PATIENT	1024	n/a	n/a	0	0	0
3531.37	n/a	WORD	1765685	wordpools/wasnorm_wordpool_576.txt	LTP290	ltpFR2	10	16	VENUS	1557	n/a	n/a	0	0	0
3533.968	n/a	WORD	1766984	wordpools/wasnorm_wordpool_576.txt	LTP290	ltpFR2	10	16	LONDON	843	n/a	n/a	0	0	0
3535.58	n/a	START	1767790	n/a	LTP290	ltpFR2	10	n/a	n/a	n/a	23	n/a	n/a	n/a	n/a
3536.66	n/a	DISTRACTOR	1768330	n/a	LTP290	ltpFR2	10	16	n/a	n/a	n/a	n/a	0	0	0
3536.662	n/a	PROB	1768331	n/a	LTP290	ltpFR2	10	n/a	n/a	n/a	23	22	9	7	6
3538.676	n/a	PROB	1769338	n/a	LTP290	ltpFR2	10	n/a	n/a	n/a	23	17	9	6	2
3540.522	n/a	PROB	1770261	n/a	LTP290	ltpFR2	10	n/a	n/a	n/a	23	19	3	9	7
3542.586	n/a	PROB	1771293	n/a	LTP290	ltpFR2	10	n/a	n/a	n/a	23	17	7	3	7
3544.168	n/a	PROB	1772084	n/a	LTP290	ltpFR2	10	n/a	n/a	n/a	23	24	9	5	9
3545.832	n/a	PROB	1772916	n/a	LTP290	ltpFR2	10	n/a	n/a	n/a	23	19	8	5	6
3547.796	n/a	PROB	1773898	n/a	LTP290	ltpFR2	10	n/a	n/a	n/a	23	16	4	4	8
3549.112	n/a	PROB	1774556	n/a	LTP290	ltpFR2	10	n/a	n/a	n/a	23	19	9	6	4
3550.626	n/a	PROB	1775313	n/a	LTP290	ltpFR2	10	n/a	n/a	n/a	23	6	2	3	1
3551.974	n/a	PROB	1775987	n/a	LTP290	ltpFR2	10	n/a	n/a	n/a	23	17	7	2	8
3553.904	n/a	PROB	1776952	n/a	LTP290	ltpFR2	10	n/a	n/a	n/a	23	15	8	4	3
3555.552	n/a	PROB	1777776	n/a	LTP290	ltpFR2	10	n/a	n/a	n/a	23	12	3	3	6
3559.582	n/a	STOP	1779791	n/a	LTP290	ltpFR2	10	n/a	n/a	n/a	23	n/a	n/a	n/a	n/a
3561.376	n/a	REC_START	1780688	n/a	LTP290	ltpFR2	10	16	n/a	n/a	n/a	n/a	0	0	0
3564.992	n/a	REC_WORD	1782496	wordpools/wasnorm_wordpool_576.txt	LTP290	ltpFR2	10	16	BLOUSE	139	n/a	n/a	0	0	0
3565.432	n/a	REC_WORD	1782716	wordpools/wasnorm_wordpool_576.txt	LTP290	ltpFR2	10	16	LAPEL	800	n/a	n/a	0	0	0
3565.916	n/a	REC_WORD	1782958	wordpools/wasnorm_wordpool_576.txt	LTP290	ltpFR2	10	16	FRANCE	601	n/a	n/a	0	0	0
3637.98	n/a	REST_REWET	1818990	n/a	LTP290	ltpFR2	10	16	n/a	n/a	n/a	n/a	0	0	0
3873.664	n/a	DISTRACTOR	1936832	n/a	LTP290	ltpFR2	10	17	n/a	n/a	n/a	n/a	0	0	0
3873.664	n/a	START	1936832	n/a	LTP290	ltpFR2	10	n/a	n/a	n/a	24	n/a	n/a	n/a	n/a
3873.698	n/a	PROB	1936849	n/a	LTP290	ltpFR2	10	n/a	n/a	n/a	24	17	6	5	6
3876.094	n/a	PROB	1938047	n/a	LTP290	ltpFR2	10	n/a	n/a	n/a	24	7	4	1	2
3878.092	n/a	PROB	1939046	n/a	LTP290	ltpFR2	10	n/a	n/a	n/a	24	9	2	6	1
3881.02	n/a	PROB	1940510	n/a	LTP290	ltpFR2	10	n/a	n/a	n/a	24	16	4	3	9
3882.45	n/a	PROB	1941225	n/a	LTP290	ltpFR2	10	n/a	n/a	n/a	24	20	7	6	7
3884.116	n/a	PROB	1942058	n/a	LTP290	ltpFR2	10	n/a	n/a	n/a	24	14	4	4	6
3887.726	n/a	PROB	1943863	n/a	LTP290	ltpFR2	10	n/a	n/a	n/a	24	13	5	4	4
3889.574	n/a	PROB	1944787	n/a	LTP290	ltpFR2	10	n/a	n/a	n/a	24	17	5	8	4
3891.256	n/a	PROB	1945628	n/a	LTP290	ltpFR2	10	n/a	n/a	n/a	24	21	9	7	6
3892.97	n/a	PROB	1946485	n/a	LTP290	ltpFR2	10	n/a	n/a	n/a	24	16	9	6	1
3896.488	n/a	STOP	1948244	n/a	LTP290	ltpFR2	10	n/a	n/a	n/a	24	n/a	n/a	n/a	n/a
3898.726	n/a	WORD	1949363	wordpools/wasnorm_wordpool_576.txt	LTP290	ltpFR2	10	17	CANYON	235	n/a	n/a	0	0	0
3901.208	n/a	WORD	1950604	wordpools/wasnorm_wordpool_576.txt	LTP290	ltpFR2	10	17	GOBLIN	645	n/a	n/a	0	0	0
3903.686	n/a	WORD	1951843	wordpools/wasnorm_wordpool_576.txt	LTP290	ltpFR2	10	17	BANKER	84	n/a	n/a	0	0	0
3906.266	n/a	WORD	1953133	wordpools/wasnorm_wordpool_576.txt	LTP290	ltpFR2	10	17	CRAYON	401	n/a	n/a	0	0	0
3908.694	n/a	WORD	1954347	wordpools/wasnorm_wordpool_576.txt	LTP290	ltpFR2	10	17	TRIBE	1505	n/a	n/a	0	0	0
3911.326	n/a	WORD	1955663	wordpools/wasnorm_wordpool_576.txt	LTP290	ltpFR2	10	17	MUFFIN	929	n/a	n/a	0	0	0
3913.888	n/a	WORD	1956944	wordpools/wasnorm_wordpool_576.txt	LTP290	ltpFR2	10	17	GARDEN	623	n/a	n/a	0	0	0
3916.334	n/a	WORD	1958167	wordpools/wasnorm_wordpool_576.txt	LTP290	ltpFR2	10	17	TERMITE	1451	n/a	n/a	0	0	0
3919.08	n/a	WORD	1959540	wordpools/wasnorm_wordpool_576.txt	LTP290	ltpFR2	10	17	OUTFIT	988	n/a	n/a	0	0	0
3921.56	n/a	WORD	1960780	wordpools/wasnorm_wordpool_576.txt	LTP290	ltpFR2	10	17	HAMPER	682	n/a	n/a	0	0	0
3924.354	n/a	WORD	1962177	wordpools/wasnorm_wordpool_576.txt	LTP290	ltpFR2	10	17	RECEIPT	1173	n/a	n/a	0	0	0
3927.086	n/a	WORD	1963543	wordpools/wasnorm_wordpool_576.txt	LTP290	ltpFR2	10	17	CUPBOARD	425	n/a	n/a	0	0	0
3929.896	n/a	WORD	1964948	wordpools/wasnorm_wordpool_576.txt	LTP290	ltpFR2	10	17	SHELF	1280	n/a	n/a	0	0	0
3932.56	n/a	WORD	1966280	wordpools/wasnorm_wordpool_576.txt	LTP290	ltpFR2	10	17	FRECKLE	602	n/a	n/a	0	0	0
3935.074	n/a	WORD	1967537	wordpools/wasnorm_wordpool_576.txt	LTP290	ltpFR2	10	17	PIMPLE	1071	n/a	n/a	0	0	0
3937.884	n/a	WORD	1968942	wordpools/wasnorm_wordpool_576.txt	LTP290	ltpFR2	10	17	WITNESS	1618	n/a	n/a	0	0	0
3940.53	n/a	WORD	1970265	wordpools/wasnorm_wordpool_576.txt	LTP290	ltpFR2	10	17	FOOT	590	n/a	n/a	0	0	0
3943.278	n/a	WORD	1971639	wordpools/wasnorm_wordpool_576.txt	LTP290	ltpFR2	10	17	GLASS	639	n/a	n/a	0	0	0
3945.806	n/a	WORD	1972903	wordpools/wasnorm_wordpool_576.txt	LTP290	ltpFR2	10	17	PEANUT	1032	n/a	n/a	0	0	0
3948.37	n/a	WORD	1974185	wordpools/wasnorm_wordpool_576.txt	LTP290	ltpFR2	10	17	PANTHER	1009	n/a	n/a	0	0	0
3951.1	n/a	WORD	1975550	wordpools/wasnorm_wordpool_576.txt	LTP290	ltpFR2	10	17	TUBA	1515	n/a	n/a	0	0	0
3953.712	n/a	WORD	1976856	wordpools/wasnorm_wordpool_576.txt	LTP290	ltpFR2	10	17	GANGSTER	620	n/a	n/a	0	0	0
3956.342	n/a	WORD	1978171	wordpools/wasnorm_wordpool_576.txt	LTP290	ltpFR2	10	17	ORCHID	982	n/a	n/a	0	0	0
3958.956	n/a	WORD	1979478	wordpools/wasnorm_wordpool_576.txt	LTP290	ltpFR2	10	17	SPOOL	1356	n/a	n/a	0	0	0
3960.568	n/a	START	1980284	n/a	LTP290	ltpFR2	10	n/a	n/a	n/a	25	n/a	n/a	n/a	n/a
3961.392	n/a	DISTRACTOR	1980696	n/a	LTP290	ltpFR2	10	17	n/a	n/a	n/a	n/a	0	0	0
3961.4	n/a	PROB	1980700	n/a	LTP290	ltpFR2	10	n/a	n/a	n/a	25	19	7	7	5
3963.398	n/a	PROB	1981699	n/a	LTP290	ltpFR2	10	n/a	n/a	n/a	25	14	1	6	7
3964.762	n/a	PROB	1982381	n/a	LTP290	ltpFR2	10	n/a	n/a	n/a	25	13	1	4	8
3966.426	n/a	PROB	1983213	n/a	LTP290	ltpFR2	10	n/a	n/a	n/a	25	14	2	9	3
3967.874	n/a	PROB	1983937	n/a	LTP290	ltpFR2	10	n/a	n/a	n/a	25	10	2	4	4
3969.738	n/a	PROB	1984869	n/a	LTP290	ltpFR2	10	n/a	n/a	n/a	25	15	4	4	7
3971.986	n/a	PROB	1985993	n/a	LTP290	ltpFR2	10	n/a	n/a	n/a	25	15	9	3	3
3973.966	n/a	PROB	1986983	n/a	LTP290	ltpFR2	10	n/a	n/a	n/a	25	11	5	2	4
3975.364	n/a	PROB	1987682	n/a	LTP290	ltpFR2	10	n/a	n/a	n/a	25	14	2	9	3
3976.928	n/a	PROB	1988464	n/a	LTP290	ltpFR2	10	n/a	n/a	n/a	25	17	8	6	3
3978.608	n/a	PROB	1989304	n/a	LTP290	ltpFR2	10	n/a	n/a	n/a	25	12	5	1	6
3979.84	n/a	PROB	1989920	n/a	LTP290	ltpFR2	10	n/a	n/a	n/a	25	17	9	4	4
3981.804	n/a	PROB	1990902	n/a	LTP290	ltpFR2	10	n/a	n/a	n/a	25	11	4	6	1
3984.568	n/a	STOP	1992284	n/a	LTP290	ltpFR2	10	n/a	n/a	n/a	25	n/a	n/a	n/a	n/a
3986.446	n/a	REC_START	1993223	n/a	LTP290	ltpFR2	10	17	n/a	n/a	n/a	n/a	0	0	0
3988.732	n/a	REC_WORD	1994366	wordpools/wasnorm_wordpool_576.txt	LTP290	ltpFR2	10	17	FRECKLE	602	n/a	n/a	0	0	0
3989.182	n/a	REC_WORD	1994591	wordpools/wasnorm_wordpool_576.txt	LTP290	ltpFR2	10	17	SHELF	1280	n/a	n/a	0	0	0
3990.202	n/a	REC_WORD	1995101	wordpools/wasnorm_wordpool_576.txt	LTP290	ltpFR2	10	17	PIMPLE	1071	n/a	n/a	0	0	0
3991.034	n/a	REC_WORD	1995517	wordpools/wasnorm_wordpool_576.txt	LTP290	ltpFR2	10	17	WITNESS	1618	n/a	n/a	0	0	0
4077.13	n/a	DISTRACTOR	2038565	n/a	LTP290	ltpFR2	10	18	n/a	n/a	n/a	n/a	0	0	0
4077.13	n/a	START	2038565	n/a	LTP290	ltpFR2	10	n/a	n/a	n/a	26	n/a	n/a	n/a	n/a
4077.164	n/a	PROB	2038582	n/a	LTP290	ltpFR2	10	n/a	n/a	n/a	26	17	3	5	9
4078.744	n/a	PROB	2039372	n/a	LTP290	ltpFR2	10	n/a	n/a	n/a	26	13	3	5	5
4080.158	n/a	PROB	2040079	n/a	LTP290	ltpFR2	10	n/a	n/a	n/a	26	17	3	9	5
4082.156	n/a	PROB	2041078	n/a	LTP290	ltpFR2	10	n/a	n/a	n/a	26	15	4	8	3
4084.186	n/a	PROB	2042093	n/a	LTP290	ltpFR2	10	n/a	n/a	n/a	26	17	3	8	6
4086.116	n/a	PROB	2043058	n/a	LTP290	ltpFR2	10	n/a	n/a	n/a	26	11	2	4	5
4087.746	n/a	PROB	2043873	n/a	LTP290	ltpFR2	10	n/a	n/a	n/a	26	20	8	9	3
4090.608	n/a	PROB	2045304	n/a	LTP290	ltpFR2	10	n/a	n/a	n/a	26	17	7	7	3
4093.156	n/a	PROB	2046578	n/a	LTP290	ltpFR2	10	n/a	n/a	n/a	26	20	6	5	9
4094.936	n/a	PROB	2047468	n/a	LTP290	ltpFR2	10	n/a	n/a	n/a	26	19	1	9	9
4096.534	n/a	PROB	2048267	n/a	LTP290	ltpFR2	10	n/a	n/a	n/a	26	13	3	8	2
4097.998	n/a	PROB	2048999	n/a	LTP290	ltpFR2	10	n/a	n/a	n/a	26	16	2	9	5
4099.85	n/a	STOP	2049925	n/a	LTP290	ltpFR2	10	n/a	n/a	n/a	26	n/a	n/a	n/a	n/a
4102.242	n/a	WORD	2051121	wordpools/wasnorm_wordpool_576.txt	LTP290	ltpFR2	10	18	SEAFOOD	1260	n/a	n/a	0	0	0
4104.688	n/a	WORD	2052344	wordpools/wasnorm_wordpool_576.txt	LTP290	ltpFR2	10	18	BREAST	171	n/a	n/a	0	0	0
4107.118	n/a	WORD	2053559	wordpools/wasnorm_wordpool_576.txt	LTP290	ltpFR2	10	18	HARP	689	n/a	n/a	0	0	0
4109.58	n/a	WORD	2054790	wordpools/wasnorm_wordpool_576.txt	LTP290	ltpFR2	10	18	NOVEL	960	n/a	n/a	0	0	0
4112.376	n/a	WORD	2056188	wordpools/wasnorm_wordpool_576.txt	LTP290	ltpFR2	10	18	BINDER	127	n/a	n/a	0	0	0
4115.09	n/a	WORD	2057545	wordpools/wasnorm_wordpool_576.txt	LTP290	ltpFR2	10	18	COLLEGE	346	n/a	n/a	0	0	0
4117.636	n/a	WORD	2058818	wordpools/wasnorm_wordpool_576.txt	LTP290	ltpFR2	10	18	DUSTPAN	509	n/a	n/a	0	0	0
4120.448	n/a	WORD	2060224	wordpools/wasnorm_wordpool_576.txt	LTP290	ltpFR2	10	18	LODGE	839	n/a	n/a	0	0	0
4123.178	n/a	WORD	2061589	wordpools/wasnorm_wordpool_576.txt	LTP290	ltpFR2	10	18	HELMET	702	n/a	n/a	0	0	0
4125.858	n/a	WORD	2062929	wordpools/wasnorm_wordpool_576.txt	LTP290	ltpFR2	10	18	HERO	706	n/a	n/a	0	0	0
4128.652	n/a	WORD	2064326	wordpools/wasnorm_wordpool_576.txt	LTP290	ltpFR2	10	18	CONTRACT	368	n/a	n/a	0	0	0
4131.15	n/a	WORD	2065575	wordpools/wasnorm_wordpool_576.txt	LTP290	ltpFR2	10	18	DORM	488	n/a	n/a	0	0	0
4133.912	n/a	WORD	2066956	wordpools/wasnorm_wordpool_576.txt	LTP290	ltpFR2	10	18	ROD	1203	n/a	n/a	0	0	0
4136.542	n/a	WORD	2068271	wordpools/wasnorm_wordpool_576.txt	LTP290	ltpFR2	10	18	CELLAR	267	n/a	n/a	0	0	0
4139.038	n/a	WORD	2069519	wordpools/wasnorm_wordpool_576.txt	LTP290	ltpFR2	10	18	FUNGUS	614	n/a	n/a	0	0	0
4141.5	n/a	WORD	2070750	wordpools/wasnorm_wordpool_576.txt	LTP290	ltpFR2	10	18	PASTRY	1022	n/a	n/a	0	0	0
4144.248	n/a	WORD	2072124	wordpools/wasnorm_wordpool_576.txt	LTP290	ltpFR2	10	18	CORAL	378	n/a	n/a	0	0	0
4146.742	n/a	WORD	2073371	wordpools/wasnorm_wordpool_576.txt	LTP290	ltpFR2	10	18	PEBBLE	1035	n/a	n/a	0	0	0
4149.422	n/a	WORD	2074711	wordpools/wasnorm_wordpool_576.txt	LTP290	ltpFR2	10	18	SUSPECT	1415	n/a	n/a	0	0	0
4152.068	n/a	WORD	2076034	wordpools/wasnorm_wordpool_576.txt	LTP290	ltpFR2	10	18	FIDDLE	561	n/a	n/a	0	0	0
4154.648	n/a	WORD	2077324	wordpools/wasnorm_wordpool_576.txt	LTP290	ltpFR2	10	18	RAZOR	1171	n/a	n/a	0	0	0
4157.094	n/a	WORD	2078547	wordpools/wasnorm_wordpool_576.txt	LTP290	ltpFR2	10	18	FOREHEAD	592	n/a	n/a	0	0	0
4159.806	n/a	WORD	2079903	wordpools/wasnorm_wordpool_576.txt	LTP290	ltpFR2	10	18	COCOON	339	n/a	n/a	0	0	0
4162.238	n/a	WORD	2081119	wordpools/wasnorm_wordpool_576.txt	LTP290	ltpFR2	10	18	LION	827	n/a	n/a	0	0	0
4163.85	n/a	START	2081925	n/a	LTP290	ltpFR2	10	n/a	n/a	n/a	27	n/a	n/a	n/a	n/a
4164.962	n/a	DISTRACTOR	2082481	n/a	LTP290	ltpFR2	10	18	n/a	n/a	n/a	n/a	0	0	0
4164.966	n/a	PROB	2082483	n/a	LTP290	ltpFR2	10	n/a	n/a	n/a	27	11	4	5	2
4166.596	n/a	PROB	2083298	n/a	LTP290	ltpFR2	10	n/a	n/a	n/a	27	5	1	2	2
4167.762	n/a	PROB	2083881	n/a	LTP290	ltpFR2	10	n/a	n/a	n/a	27	10	1	6	3
4169.076	n/a	PROB	2084538	n/a	LTP290	ltpFR2	10	n/a	n/a	n/a	27	14	1	9	4
4170.524	n/a	PROB	2085262	n/a	LTP290	ltpFR2	10	n/a	n/a	n/a	27	16	7	4	5
4171.906	n/a	PROB	2085953	n/a	LTP290	ltpFR2	10	n/a	n/a	n/a	27	12	3	3	6
4173.42	n/a	PROB	2086710	n/a	LTP290	ltpFR2	10	n/a	n/a	n/a	27	9	3	4	2
4175.55	n/a	PROB	2087775	n/a	LTP290	ltpFR2	10	n/a	n/a	n/a	27	18	5	9	4
4176.982	n/a	PROB	2088491	n/a	LTP290	ltpFR2	10	n/a	n/a	n/a	27	11	3	2	6
4178.644	n/a	PROB	2089322	n/a	LTP290	ltpFR2	10	n/a	n/a	n/a	27	8	4	3	1
4180.276	n/a	PROB	2090138	n/a	LTP290	ltpFR2	10	n/a	n/a	n/a	27	14	8	5	1
4181.94	n/a	PROB	2090970	n/a	LTP290	ltpFR2	10	n/a	n/a	n/a	27	17	2	6	9
4183.72	n/a	PROB	2091860	n/a	LTP290	ltpFR2	10	n/a	n/a	n/a	27	11	4	3	4
4185.186	n/a	PROB	2092593	n/a	LTP290	ltpFR2	10	n/a	n/a	n/a	27	7	2	3	2
4186.81	n/a	STOP	2093405	n/a	LTP290	ltpFR2	10	n/a	n/a	n/a	27	n/a	n/a	n/a	n/a
4189.712	n/a	REC_START	2094856	n/a	LTP290	ltpFR2	10	18	n/a	n/a	n/a	n/a	0	0	0
4280.346	n/a	DISTRACTOR	2140173	n/a	LTP290	ltpFR2	10	19	n/a	n/a	n/a	n/a	0	0	0
4280.346	n/a	START	2140173	n/a	LTP290	ltpFR2	10	n/a	n/a	n/a	28	n/a	n/a	n/a	n/a
4280.378	n/a	PROB	2140189	n/a	LTP290	ltpFR2	10	n/a	n/a	n/a	28	13	6	5	2
4281.942	n/a	PROB	2140971	n/a	LTP290	ltpFR2	10	n/a	n/a	n/a	28	20	8	6	6
4283.756	n/a	PROB	2141878	n/a	LTP290	ltpFR2	10	n/a	n/a	n/a	28	20	5	6	9
4285.272	n/a	PROB	2142636	n/a	LTP290	ltpFR2	10	n/a	n/a	n/a	28	16	7	3	6
4286.486	n/a	PROB	2143243	n/a	LTP290	ltpFR2	10	n/a	n/a	n/a	28	16	2	5	9
4288.102	n/a	PROB	2144051	n/a	LTP290	ltpFR2	10	n/a	n/a	n/a	28	15	3	3	9
4290.164	n/a	PROB	2145082	n/a	LTP290	ltpFR2	10	n/a	n/a	n/a	28	12	2	1	9
4291.628	n/a	PROB	2145814	n/a	LTP290	ltpFR2	10	n/a	n/a	n/a	28	9	1	7	1
4292.91	n/a	PROB	2146455	n/a	LTP290	ltpFR2	10	n/a	n/a	n/a	28	18	9	5	4
4294.326	n/a	PROB	2147163	n/a	LTP290	ltpFR2	10	n/a	n/a	n/a	28	10	2	6	2
4296.488	n/a	PROB	2148244	n/a	LTP290	ltpFR2	10	n/a	n/a	n/a	28	15	2	4	9
4298.236	n/a	PROB	2149118	n/a	LTP290	ltpFR2	10	n/a	n/a	n/a	28	20	6	9	5
4300.648	n/a	PROB	2150324	n/a	LTP290	ltpFR2	10	n/a	n/a	n/a	28	23	9	5	9
4302.712	n/a	PROB	2151356	n/a	LTP290	ltpFR2	10	n/a	n/a	n/a	28	15	2	9	4
4304.206	n/a	STOP	2152103	n/a	LTP290	ltpFR2	10	n/a	n/a	n/a	28	n/a	n/a	n/a	n/a
4305.226	n/a	WORD	2152613	wordpools/wasnorm_wordpool_576.txt	LTP290	ltpFR2	10	19	CROWN	415	n/a	n/a	0	0	0
4307.654	n/a	WORD	2153827	wordpools/wasnorm_wordpool_576.txt	LTP290	ltpFR2	10	19	THRONE	1461	n/a	n/a	0	0	0
4310.252	n/a	WORD	2155126	wordpools/wasnorm_wordpool_576.txt	LTP290	ltpFR2	10	19	PACKAGE	997	n/a	n/a	0	0	0
4312.83	n/a	WORD	2156415	wordpools/wasnorm_wordpool_576.txt	LTP290	ltpFR2	10	19	GRAVE	658	n/a	n/a	0	0	0
4315.46	n/a	WORD	2157730	wordpools/wasnorm_wordpool_576.txt	LTP290	ltpFR2	10	19	BARLEY	88	n/a	n/a	0	0	0
4318.024	n/a	WORD	2159012	wordpools/wasnorm_wordpool_576.txt	LTP290	ltpFR2	10	19	UNCLE	1536	n/a	n/a	0	0	0
4320.602	n/a	WORD	2160301	wordpools/wasnorm_wordpool_576.txt	LTP290	ltpFR2	10	19	POLICE	1098	n/a	n/a	0	0	0
4323.364	n/a	WORD	2161682	wordpools/wasnorm_wordpool_576.txt	LTP290	ltpFR2	10	19	BLOCKADE	137	n/a	n/a	0	0	0
4325.81	n/a	WORD	2162905	wordpools/wasnorm_wordpool_576.txt	LTP290	ltpFR2	10	19	STAMP	1370	n/a	n/a	0	0	0
4328.624	n/a	WORD	2164312	wordpools/wasnorm_wordpool_576.txt	LTP290	ltpFR2	10	19	TABLE	1426	n/a	n/a	0	0	0
4331.186	n/a	WORD	2165593	wordpools/wasnorm_wordpool_576.txt	LTP290	ltpFR2	10	19	PIZZA	1079	n/a	n/a	0	0	0
4333.866	n/a	WORD	2166933	wordpools/wasnorm_wordpool_576.txt	LTP290	ltpFR2	10	19	TOMBSTONE	1478	n/a	n/a	0	0	0
4336.578	n/a	WORD	2168289	wordpools/wasnorm_wordpool_576.txt	LTP290	ltpFR2	10	19	HIGHWAY	707	n/a	n/a	0	0	0
4339.242	n/a	WORD	2169621	wordpools/wasnorm_wordpool_576.txt	LTP290	ltpFR2	10	19	COUCH	386	n/a	n/a	0	0	0
4341.836	n/a	WORD	2170918	wordpools/wasnorm_wordpool_576.txt	LTP290	ltpFR2	10	19	CARROT	249	n/a	n/a	0	0	0
4344.334	n/a	WORD	2172167	wordpools/wasnorm_wordpool_576.txt	LTP290	ltpFR2	10	19	HORSE	719	n/a	n/a	0	0	0
4347.014	n/a	WORD	2173507	wordpools/wasnorm_wordpool_576.txt	LTP290	ltpFR2	10	19	YARN	1631	n/a	n/a	0	0	0
4349.808	n/a	WORD	2174904	wordpools/wasnorm_wordpool_576.txt	LTP290	ltpFR2	10	19	BOYFRIEND	162	n/a	n/a	0	0	0
4352.604	n/a	WORD	2176302	wordpools/wasnorm_wordpool_576.txt	LTP290	ltpFR2	10	19	BUG	187	n/a	n/a	0	0	0
4355.284	n/a	WORD	2177642	wordpools/wasnorm_wordpool_576.txt	LTP290	ltpFR2	10	19	LUNCH	849	n/a	n/a	0	0	0
4358.08	n/a	WORD	2179040	wordpools/wasnorm_wordpool_576.txt	LTP290	ltpFR2	10	19	BANJO	82	n/a	n/a	0	0	0
4360.876	n/a	WORD	2180438	wordpools/wasnorm_wordpool_576.txt	LTP290	ltpFR2	10	19	COWBOY	395	n/a	n/a	0	0	0
4363.688	n/a	WORD	2181844	wordpools/wasnorm_wordpool_576.txt	LTP290	ltpFR2	10	19	CYCLONE	431	n/a	n/a	0	0	0
4366.252	n/a	WORD	2183126	wordpools/wasnorm_wordpool_576.txt	LTP290	ltpFR2	10	19	BRANDY	169	n/a	n/a	0	0	0
4367.866	n/a	START	2183933	n/a	LTP290	ltpFR2	10	n/a	n/a	n/a	29	n/a	n/a	n/a	n/a
4368.756	n/a	DISTRACTOR	2184378	n/a	LTP290	ltpFR2	10	19	n/a	n/a	n/a	n/a	0	0	0
4368.764	n/a	PROB	2184382	n/a	LTP290	ltpFR2	10	n/a	n/a	n/a	29	10	7	2	1
4369.862	n/a	PROB	2184931	n/a	LTP290	ltpFR2	10	n/a	n/a	n/a	29	19	4	9	6
4371.61	n/a	PROB	2185805	n/a	LTP290	ltpFR2	10	n/a	n/a	n/a	29	8	1	5	2
4373.374	n/a	PROB	2186687	n/a	LTP290	ltpFR2	10	n/a	n/a	n/a	29	14	6	7	1
4374.772	n/a	PROB	2187386	n/a	LTP290	ltpFR2	10	n/a	n/a	n/a	29	13	5	3	5
4376.054	n/a	PROB	2188027	n/a	LTP290	ltpFR2	10	n/a	n/a	n/a	29	10	2	7	1
4377.152	n/a	PROB	2188576	n/a	LTP290	ltpFR2	10	n/a	n/a	n/a	29	18	7	9	2
4379.482	n/a	PROB	2189741	n/a	LTP290	ltpFR2	10	n/a	n/a	n/a	29	20	7	9	4
4381.878	n/a	PROB	2190939	n/a	LTP290	ltpFR2	10	n/a	n/a	n/a	29	13	4	4	5
4384.092	n/a	PROB	2192046	n/a	LTP290	ltpFR2	10	n/a	n/a	n/a	29	23	9	6	8
4385.906	n/a	PROB	2192953	n/a	LTP290	ltpFR2	10	n/a	n/a	n/a	29	12	7	2	3
4387.288	n/a	PROB	2193644	n/a	LTP290	ltpFR2	10	n/a	n/a	n/a	29	21	9	7	5
4388.968	n/a	PROB	2194484	n/a	LTP290	ltpFR2	10	n/a	n/a	n/a	29	21	7	6	9
4390.406	n/a	STOP	2195203	n/a	LTP290	ltpFR2	10	n/a	n/a	n/a	29	n/a	n/a	n/a	n/a
4393.778	n/a	REC_START	2196889	n/a	LTP290	ltpFR2	10	19	n/a	n/a	n/a	n/a	0	0	0
4396.18	n/a	REC_WORD	2198090	wordpools/wasnorm_wordpool_576.txt	LTP290	ltpFR2	10	19	CROWN	415	n/a	n/a	0	0	0
4396.736	n/a	REC_WORD	2198368	wordpools/wasnorm_wordpool_576.txt	LTP290	ltpFR2	10	19	THORN	1459	n/a	n/a	0	0	0
4397.436	n/a	REC_WORD	2198718	wordpools/wasnorm_wordpool_576.txt	LTP290	ltpFR2	10	19	GRAVE	658	n/a	n/a	0	0	0
4398.592	n/a	REC_WORD	2199296	wordpools/wasnorm_wordpool_576.txt	LTP290	ltpFR2	10	19	BARLEY	88	n/a	n/a	0	0	0
4402.026	n/a	REC_WORD	2201013	wordpools/wasnorm_wordpool_576.txt	LTP290	ltpFR2	10	19	PACKAGE	997	n/a	n/a	0	0	0
4484.426	n/a	DISTRACTOR	2242213	n/a	LTP290	ltpFR2	10	20	n/a	n/a	n/a	n/a	0	0	0
4484.426	n/a	START	2242213	n/a	LTP290	ltpFR2	10	n/a	n/a	n/a	30	n/a	n/a	n/a	n/a
4484.46	n/a	PROB	2242230	n/a	LTP290	ltpFR2	10	n/a	n/a	n/a	30	13	1	8	4
4486.124	n/a	PROB	2243062	n/a	LTP290	ltpFR2	10	n/a	n/a	n/a	30	8	2	1	5
4488.204	n/a	PROB	2244102	n/a	LTP290	ltpFR2	10	n/a	n/a	n/a	30	12	6	1	5
4489.634	n/a	PROB	2244817	n/a	LTP290	ltpFR2	10	n/a	n/a	n/a	30	17	5	4	8
4491.982	n/a	PROB	2245991	n/a	LTP290	ltpFR2	10	n/a	n/a	n/a	30	12	1	4	7
4493.496	n/a	PROB	2246748	n/a	LTP290	ltpFR2	10	n/a	n/a	n/a	30	14	2	5	7
4494.944	n/a	PROB	2247472	n/a	LTP290	ltpFR2	10	n/a	n/a	n/a	30	14	5	5	4
4496.126	n/a	PROB	2248063	n/a	LTP290	ltpFR2	10	n/a	n/a	n/a	30	23	9	6	8
4501.6	n/a	PROB	2250800	n/a	LTP290	ltpFR2	10	n/a	n/a	n/a	30	18	3	6	9
4503.216	n/a	PROB	2251608	n/a	LTP290	ltpFR2	10	n/a	n/a	n/a	30	17	4	9	4
4505.51	n/a	PROB	2252755	n/a	LTP290	ltpFR2	10	n/a	n/a	n/a	30	18	3	9	6
4507.678	n/a	STOP	2253839	n/a	LTP290	ltpFR2	10	n/a	n/a	n/a	30	n/a	n/a	n/a	n/a
4509.388	n/a	WORD	2254694	wordpools/wasnorm_wordpool_576.txt	LTP290	ltpFR2	10	20	REPORT	1184	n/a	n/a	0	0	0
4512.186	n/a	WORD	2256093	wordpools/wasnorm_wordpool_576.txt	LTP290	ltpFR2	10	20	SWIMMER	1420	n/a	n/a	0	0	0
4514.78	n/a	WORD	2257390	wordpools/wasnorm_wordpool_576.txt	LTP290	ltpFR2	10	20	BROOK	177	n/a	n/a	0	0	0
4517.312	n/a	WORD	2258656	wordpools/wasnorm_wordpool_576.txt	LTP290	ltpFR2	10	20	MARKET	871	n/a	n/a	0	0	0
4520.108	n/a	WORD	2260054	wordpools/wasnorm_wordpool_576.txt	LTP290	ltpFR2	10	20	MACHINE	852	n/a	n/a	0	0	0
4522.57	n/a	WORD	2261285	wordpools/wasnorm_wordpool_576.txt	LTP290	ltpFR2	10	20	WAITRESS	1581	n/a	n/a	0	0	0
4525.05	n/a	WORD	2262525	wordpools/wasnorm_wordpool_576.txt	LTP290	ltpFR2	10	20	NOTEBOOK	959	n/a	n/a	0	0	0
4527.812	n/a	WORD	2263906	wordpools/wasnorm_wordpool_576.txt	LTP290	ltpFR2	10	20	WARDROBE	1587	n/a	n/a	0	0	0
4530.292	n/a	WORD	2265146	wordpools/wasnorm_wordpool_576.txt	LTP290	ltpFR2	10	20	QUAIL	1147	n/a	n/a	0	0	0
4533.088	n/a	WORD	2266544	wordpools/wasnorm_wordpool_576.txt	LTP290	ltpFR2	10	20	CIGAR	308	n/a	n/a	0	0	0
4535.766	n/a	WORD	2267883	wordpools/wasnorm_wordpool_576.txt	LTP290	ltpFR2	10	20	CAFE	216	n/a	n/a	0	0	0
4538.348	n/a	WORD	2269174	wordpools/wasnorm_wordpool_576.txt	LTP290	ltpFR2	10	20	SWITCH	1422	n/a	n/a	0	0	0
4540.81	n/a	WORD	2270405	wordpools/wasnorm_wordpool_576.txt	LTP290	ltpFR2	10	20	LASER	801	n/a	n/a	0	0	0
4543.388	n/a	WORD	2271694	wordpools/wasnorm_wordpool_576.txt	LTP290	ltpFR2	10	20	SKETCH	1315	n/a	n/a	0	0	0
4545.886	n/a	WORD	2272943	wordpools/wasnorm_wordpool_576.txt	LTP290	ltpFR2	10	20	ROBOT	1200	n/a	n/a	0	0	0
4548.68	n/a	WORD	2274340	wordpools/wasnorm_wordpool_576.txt	LTP290	ltpFR2	10	20	SODA	1341	n/a	n/a	0	0	0
4551.376	n/a	WORD	2275688	wordpools/wasnorm_wordpool_576.txt	LTP290	ltpFR2	10	20	SALMON	1227	n/a	n/a	0	0	0
4554.124	n/a	WORD	2277062	wordpools/wasnorm_wordpool_576.txt	LTP290	ltpFR2	10	20	MARINE	869	n/a	n/a	0	0	0
4556.936	n/a	WORD	2278468	wordpools/wasnorm_wordpool_576.txt	LTP290	ltpFR2	10	20	CAPTIVE	240	n/a	n/a	0	0	0
4559.514	n/a	WORD	2279757	wordpools/wasnorm_wordpool_576.txt	LTP290	ltpFR2	10	20	WHISKERS	1605	n/a	n/a	0	0	0
4562.178	n/a	WORD	2281089	wordpools/wasnorm_wordpool_576.txt	LTP290	ltpFR2	10	20	SHERIFF	1284	n/a	n/a	0	0	0
4564.674	n/a	WORD	2282337	wordpools/wasnorm_wordpool_576.txt	LTP290	ltpFR2	10	20	SPACE	1345	n/a	n/a	0	0	0
4567.122	n/a	WORD	2283561	wordpools/wasnorm_wordpool_576.txt	LTP290	ltpFR2	10	20	VICTIM	1562	n/a	n/a	0	0	0
4569.8	n/a	WORD	2284900	wordpools/wasnorm_wordpool_576.txt	LTP290	ltpFR2	10	20	COOK	372	n/a	n/a	0	0	0
4571.414	n/a	START	2285707	n/a	LTP290	ltpFR2	10	n/a	n/a	n/a	31	n/a	n/a	n/a	n/a
4572.586	n/a	DISTRACTOR	2286293	n/a	LTP290	ltpFR2	10	20	n/a	n/a	n/a	n/a	0	0	0
4572.596	n/a	PROB	2286298	n/a	LTP290	ltpFR2	10	n/a	n/a	n/a	31	12	2	3	7
4574.26	n/a	PROB	2287130	n/a	LTP290	ltpFR2	10	n/a	n/a	n/a	31	16	4	4	8
4575.906	n/a	PROB	2287953	n/a	LTP290	ltpFR2	10	n/a	n/a	n/a	31	21	8	5	8
4577.256	n/a	PROB	2288628	n/a	LTP290	ltpFR2	10	n/a	n/a	n/a	31	10	3	2	5
4579.368	n/a	PROB	2289684	n/a	LTP290	ltpFR2	10	n/a	n/a	n/a	31	19	5	6	8
4581.1	n/a	PROB	2290550	n/a	LTP290	ltpFR2	10	n/a	n/a	n/a	31	12	3	3	6
4582.38	n/a	PROB	2291190	n/a	LTP290	ltpFR2	10	n/a	n/a	n/a	31	10	1	3	6
4584.876	n/a	PROB	2292438	n/a	LTP290	ltpFR2	10	n/a	n/a	n/a	31	8	3	2	3
4586.64	n/a	PROB	2293320	n/a	LTP290	ltpFR2	10	n/a	n/a	n/a	31	14	4	3	7
4587.99	n/a	PROB	2293995	n/a	LTP290	ltpFR2	10	n/a	n/a	n/a	31	17	9	6	2
4589.504	n/a	PROB	2294752	n/a	LTP290	ltpFR2	10	n/a	n/a	n/a	31	12	1	6	5
4591.168	n/a	PROB	2295584	n/a	LTP290	ltpFR2	10	n/a	n/a	n/a	31	15	3	7	5
4592.666	n/a	PROB	2296333	n/a	LTP290	ltpFR2	10	n/a	n/a	n/a	31	12	1	8	3
4594.0	n/a	STOP	2297000	n/a	LTP290	ltpFR2	10	n/a	n/a	n/a	31	n/a	n/a	n/a	n/a
4597.344	n/a	REC_START	2298672	n/a	LTP290	ltpFR2	10	20	n/a	n/a	n/a	n/a	0	0	0
4687.992	n/a	DISTRACTOR	2343996	n/a	LTP290	ltpFR2	10	21	n/a	n/a	n/a	n/a	0	0	0
4687.992	n/a	START	2343996	n/a	LTP290	ltpFR2	10	n/a	n/a	n/a	32	n/a	n/a	n/a	n/a
4688.026	n/a	PROB	2344013	n/a	LTP290	ltpFR2	10	n/a	n/a	n/a	32	20	5	7	8
4689.606	n/a	PROB	2344803	n/a	LTP290	ltpFR2	10	n/a	n/a	n/a	32	21	5	8	9
4691.172	n/a	PROB	2345586	n/a	LTP290	ltpFR2	10	n/a	n/a	n/a	32	27	9	9	9
4692.802	n/a	PROB	2346401	n/a	LTP290	ltpFR2	10	n/a	n/a	n/a	32	20	3	9	8
4694.898	n/a	PROB	2347449	n/a	LTP290	ltpFR2	10	n/a	n/a	n/a	32	12	3	8	1
4696.696	n/a	PROB	2348348	n/a	LTP290	ltpFR2	10	n/a	n/a	n/a	32	5	2	2	1
4697.76	n/a	PROB	2348880	n/a	LTP290	ltpFR2	10	n/a	n/a	n/a	32	11	2	7	2
4699.26	n/a	PROB	2349630	n/a	LTP290	ltpFR2	10	n/a	n/a	n/a	32	14	7	6	1
4700.806	n/a	PROB	2350403	n/a	LTP290	ltpFR2	10	n/a	n/a	n/a	32	15	9	5	1
4702.62	n/a	PROB	2351310	n/a	LTP290	ltpFR2	10	n/a	n/a	n/a	32	15	1	5	9
4704.666	n/a	PROB	2352333	n/a	LTP290	ltpFR2	10	n/a	n/a	n/a	32	11	3	1	7
4706.648	n/a	PROB	2353324	n/a	LTP290	ltpFR2	10	n/a	n/a	n/a	32	15	7	4	4
4708.61	n/a	PROB	2354305	n/a	LTP290	ltpFR2	10	n/a	n/a	n/a	32	19	9	3	7
4709.994	n/a	PROB	2354997	n/a	LTP290	ltpFR2	10	n/a	n/a	n/a	32	23	9	7	7
4711.922	n/a	STOP	2355961	n/a	LTP290	ltpFR2	10	n/a	n/a	n/a	32	n/a	n/a	n/a	n/a
4712.854	n/a	WORD	2356427	wordpools/wasnorm_wordpool_576.txt	LTP290	ltpFR2	10	21	HORNET	718	n/a	n/a	0	0	0
4715.484	n/a	WORD	2357742	wordpools/wasnorm_wordpool_576.txt	LTP290	ltpFR2	10	21	WORKER	1621	n/a	n/a	0	0	0
4718.264	n/a	WORD	2359132	wordpools/wasnorm_wordpool_576.txt	LTP290	ltpFR2	10	21	LOFT	840	n/a	n/a	0	0	0
4720.942	n/a	WORD	2360471	wordpools/wasnorm_wordpool_576.txt	LTP290	ltpFR2	10	21	CRITIC	410	n/a	n/a	0	0	0
4723.638	n/a	WORD	2361819	wordpools/wasnorm_wordpool_576.txt	LTP290	ltpFR2	10	21	IGLOO	734	n/a	n/a	0	0	0
4726.07	n/a	WORD	2363035	wordpools/wasnorm_wordpool_576.txt	LTP290	ltpFR2	10	21	PAPER	1011	n/a	n/a	0	0	0
4728.764	n/a	WORD	2364382	wordpools/wasnorm_wordpool_576.txt	LTP290	ltpFR2	10	21	STREAM	1392	n/a	n/a	0	0	0
4731.46	n/a	WORD	2365730	wordpools/wasnorm_wordpool_576.txt	LTP290	ltpFR2	10	21	FREEZER	604	n/a	n/a	0	0	0
4733.956	n/a	WORD	2366978	wordpools/wasnorm_wordpool_576.txt	LTP290	ltpFR2	10	21	HATCHET	691	n/a	n/a	0	0	0
4736.42	n/a	WORD	2368210	wordpools/wasnorm_wordpool_576.txt	LTP290	ltpFR2	10	21	CABBAGE	210	n/a	n/a	0	0	0
4738.966	n/a	WORD	2369483	wordpools/wasnorm_wordpool_576.txt	LTP290	ltpFR2	10	21	FINGER	567	n/a	n/a	0	0	0
4741.678	n/a	WORD	2370839	wordpools/wasnorm_wordpool_576.txt	LTP290	ltpFR2	10	21	PEDAL	1037	n/a	n/a	0	0	0
4744.176	n/a	WORD	2372088	wordpools/wasnorm_wordpool_576.txt	LTP290	ltpFR2	10	21	TURNIP	1521	n/a	n/a	0	0	0
4746.87	n/a	WORD	2373435	wordpools/wasnorm_wordpool_576.txt	LTP290	ltpFR2	10	21	COD	340	n/a	n/a	0	0	0
