onset	duration	trial_type	sample	stim_file	subject	experiment	session	trial	task	item_name	item_num	recog_resp	recog_conf	resp	answer	test_x	test_y	test_z	color_r	color_g	color_b	case	font
326.596	n/a	SESS_START	163298	n/a	LTP274	ltpFR	14	n/a	n/a	n/a	n/a	0	2	n/a	n/a	0	0	0	n/a	n/a	n/a	n/a	n/a
354.084	n/a	START	177042	n/a	LTP274	ltpFR	14	n/a	n/a	n/a	n/a	n/a	n/a	n/a	n/a	n/a	n/a	n/a	n/a	n/a	n/a	n/a	n/a
354.134	n/a	PROB	177067	n/a	LTP274	ltpFR	14	n/a	n/a	n/a	n/a	n/a	n/a	n/a	10	5	4	1	n/a	n/a	n/a	n/a	n/a
355.388	n/a	PROB	177694	n/a	LTP274	ltpFR	14	n/a	n/a	n/a	n/a	n/a	n/a	n/a	16	3	5	8	n/a	n/a	n/a	n/a	n/a
357.362	n/a	PROB	178681	n/a	LTP274	ltpFR	14	n/a	n/a	n/a	n/a	n/a	n/a	n/a	24	8	9	7	n/a	n/a	n/a	n/a	n/a
359.252	n/a	PROB	179626	n/a	LTP274	ltpFR	14	n/a	n/a	n/a	n/a	n/a	n/a	n/a	10	2	2	6	n/a	n/a	n/a	n/a	n/a
360.29	n/a	PROB	180145	n/a	LTP274	ltpFR	14	n/a	n/a	n/a	n/a	n/a	n/a	n/a	20	9	6	5	n/a	n/a	n/a	n/a	n/a
361.51	n/a	PROB	180755	n/a	LTP274	ltpFR	14	n/a	n/a	n/a	n/a	n/a	n/a	n/a	8	3	1	4	n/a	n/a	n/a	n/a	n/a
362.498	n/a	PROB	181249	n/a	LTP274	ltpFR	14	n/a	n/a	n/a	n/a	n/a	n/a	n/a	8	2	1	5	n/a	n/a	n/a	n/a	n/a
363.434	n/a	PROB	181717	n/a	LTP274	ltpFR	14	n/a	n/a	n/a	n/a	n/a	n/a	n/a	13	1	7	5	n/a	n/a	n/a	n/a	n/a
364.422	n/a	PROB	182211	n/a	LTP274	ltpFR	14	n/a	n/a	n/a	n/a	n/a	n/a	n/a	20	8	6	4	n/a	n/a	n/a	n/a	n/a
365.812	n/a	PROB	182906	n/a	LTP274	ltpFR	14	n/a	n/a	n/a	n/a	n/a	n/a	n/a	16	4	7	5	n/a	n/a	n/a	n/a	n/a
367.736	n/a	PROB	183868	n/a	LTP274	ltpFR	14	n/a	n/a	n/a	n/a	n/a	n/a	n/a	15	8	4	3	n/a	n/a	n/a	n/a	n/a
368.756	n/a	PROB	184378	n/a	LTP274	ltpFR	14	n/a	n/a	n/a	n/a	n/a	n/a	n/a	15	8	3	4	n/a	n/a	n/a	n/a	n/a
369.894	n/a	PROB	184947	n/a	LTP274	ltpFR	14	n/a	n/a	n/a	n/a	n/a	n/a	n/a	15	5	9	1	n/a	n/a	n/a	n/a	n/a
370.864	n/a	PROB	185432	n/a	LTP274	ltpFR	14	n/a	n/a	n/a	n/a	n/a	n/a	n/a	2	5	7	9	n/a	n/a	n/a	n/a	n/a
372.596	n/a	STOP	186298	n/a	LTP274	ltpFR	14	n/a	n/a	n/a	n/a	n/a	n/a	n/a	n/a	n/a	n/a	n/a	n/a	n/a	n/a	n/a	n/a
402.42	n/a	START	201210	n/a	LTP274	ltpFR	14	n/a	n/a	n/a	n/a	n/a	n/a	n/a	n/a	n/a	n/a	n/a	n/a	n/a	n/a	n/a	n/a
403.924	n/a	PROB	201962	n/a	LTP274	ltpFR	14	n/a	n/a	n/a	n/a	n/a	n/a	n/a	21	9	9	3	n/a	n/a	n/a	n/a	n/a
405.212	n/a	PROB	202606	n/a	LTP274	ltpFR	14	n/a	n/a	n/a	n/a	n/a	n/a	n/a	14	6	1	7	n/a	n/a	n/a	n/a	n/a
406.3	n/a	PROB	203150	n/a	LTP274	ltpFR	14	n/a	n/a	n/a	n/a	n/a	n/a	n/a	11	4	3	3	n/a	n/a	n/a	n/a	n/a
407.37	n/a	PROB	203685	n/a	LTP274	ltpFR	14	n/a	n/a	n/a	n/a	n/a	n/a	n/a	14	2	3	9	n/a	n/a	n/a	n/a	n/a
409.92	n/a	STOP	204960	n/a	LTP274	ltpFR	14	n/a	n/a	n/a	n/a	n/a	n/a	n/a	n/a	n/a	n/a	n/a	n/a	n/a	n/a	n/a	n/a
411.568	n/a	WORD	205784	wordpools/wasnorm_wordpool_less_exclusions.txt	LTP274	ltpFR	14	1	0	RESORT	1186	0	3	1	n/a	0	0	0	0.422607421875	0.5869140625	0	lower	amplitud.ttf
414.582	n/a	START	207291	n/a	LTP274	ltpFR	14	n/a	n/a	n/a	n/a	n/a	n/a	n/a	n/a	n/a	n/a	n/a	n/a	n/a	n/a	n/a	n/a
415.4	n/a	PROB	207700	n/a	LTP274	ltpFR	14	n/a	n/a	n/a	n/a	n/a	n/a	n/a	16	1	6	9	n/a	n/a	n/a	n/a	n/a
416.37	n/a	PROB	208185	n/a	LTP274	ltpFR	14	n/a	n/a	n/a	n/a	n/a	n/a	n/a	19	6	9	4	n/a	n/a	n/a	n/a	n/a
417.776	n/a	PROB	208888	n/a	LTP274	ltpFR	14	n/a	n/a	n/a	n/a	n/a	n/a	n/a	15	7	6	2	n/a	n/a	n/a	n/a	n/a
418.83	n/a	PROB	209415	n/a	LTP274	ltpFR	14	n/a	n/a	n/a	n/a	n/a	n/a	n/a	18	7	8	3	n/a	n/a	n/a	n/a	n/a
419.834	n/a	PROB	209917	n/a	LTP274	ltpFR	14	n/a	n/a	n/a	n/a	n/a	n/a	n/a	11	7	3	1	n/a	n/a	n/a	n/a	n/a
420.806	n/a	PROB	210403	n/a	LTP274	ltpFR	14	n/a	n/a	n/a	n/a	n/a	n/a	n/a	10	4	5	1	n/a	n/a	n/a	n/a	n/a
421.648	n/a	STOP	210824	n/a	LTP274	ltpFR	14	n/a	n/a	n/a	n/a	n/a	n/a	n/a	n/a	n/a	n/a	n/a	n/a	n/a	n/a	n/a	n/a
423.63	n/a	WORD	211815	wordpools/wasnorm_wordpool_less_exclusions.txt	LTP274	ltpFR	14	1	0	TOTE	1487	1	2	0	n/a	0	0	0	0.422607421875	0.5869140625	0	lower	amplitud.ttf
426.644	n/a	START	213322	n/a	LTP274	ltpFR	14	n/a	n/a	n/a	n/a	n/a	n/a	n/a	n/a	n/a	n/a	n/a	n/a	n/a	n/a	n/a	n/a
427.53	n/a	PROB	213765	n/a	LTP274	ltpFR	14	n/a	n/a	n/a	n/a	n/a	n/a	n/a	19	5	8	6	n/a	n/a	n/a	n/a	n/a
429.17	n/a	PROB	214585	n/a	LTP274	ltpFR	14	n/a	n/a	n/a	n/a	n/a	n/a	n/a	6	1	4	1	n/a	n/a	n/a	n/a	n/a
431.68	n/a	PROB	215840	n/a	LTP274	ltpFR	14	n/a	n/a	n/a	n/a	n/a	n/a	n/a	15	3	8	4	n/a	n/a	n/a	n/a	n/a
432.65	n/a	PROB	216325	n/a	LTP274	ltpFR	14	n/a	n/a	n/a	n/a	n/a	n/a	n/a	21	8	4	9	n/a	n/a	n/a	n/a	n/a
433.706	n/a	STOP	216853	n/a	LTP274	ltpFR	14	n/a	n/a	n/a	n/a	n/a	n/a	n/a	n/a	n/a	n/a	n/a	n/a	n/a	n/a	n/a	n/a
435.712	n/a	WORD	217856	wordpools/wasnorm_wordpool_less_exclusions.txt	LTP274	ltpFR	14	1	0	PASSAGE	1019	0	n/a	1	n/a	0	0	0	0.422607421875	0.5869140625	0	lower	amplitud.ttf
438.724	n/a	START	219362	n/a	LTP274	ltpFR	14	n/a	n/a	n/a	n/a	n/a	n/a	n/a	n/a	n/a	n/a	n/a	n/a	n/a	n/a	n/a	n/a
439.894	n/a	PROB	219947	n/a	LTP274	ltpFR	14	n/a	n/a	n/a	n/a	n/a	n/a	n/a	22	6	8	8	n/a	n/a	n/a	n/a	n/a
441.366	n/a	PROB	220683	n/a	LTP274	ltpFR	14	n/a	n/a	n/a	n/a	n/a	n/a	n/a	5	1	1	3	n/a	n/a	n/a	n/a	n/a
442.436	n/a	PROB	221218	n/a	LTP274	ltpFR	14	n/a	n/a	n/a	n/a	n/a	n/a	n/a	13	1	9	3	n/a	n/a	n/a	n/a	n/a
443.726	n/a	PROB	221863	n/a	LTP274	ltpFR	14	n/a	n/a	n/a	n/a	n/a	n/a	n/a	17	7	3	7	n/a	n/a	n/a	n/a	n/a
444.964	n/a	PROB	222482	n/a	LTP274	ltpFR	14	n/a	n/a	n/a	n/a	n/a	n/a	n/a	10	7	2	1	n/a	n/a	n/a	n/a	n/a
445.826	n/a	STOP	222913	n/a	LTP274	ltpFR	14	n/a	n/a	n/a	n/a	n/a	n/a	n/a	n/a	n/a	n/a	n/a	n/a	n/a	n/a	n/a	n/a
447.792	n/a	WORD	223896	wordpools/wasnorm_wordpool_less_exclusions.txt	LTP274	ltpFR	14	1	0	BUSH	202	n/a	n/a	0	n/a	0	0	0	0.422607421875	0.5869140625	0	lower	amplitud.ttf
450.804	n/a	START	225402	n/a	LTP274	ltpFR	14	n/a	n/a	n/a	n/a	n/a	n/a	n/a	n/a	n/a	n/a	n/a	n/a	n/a	n/a	n/a	n/a
451.638	n/a	PROB	225819	n/a	LTP274	ltpFR	14	n/a	n/a	n/a	n/a	n/a	n/a	n/a	17	4	4	9	n/a	n/a	n/a	n/a	n/a
453.346	n/a	PROB	226673	n/a	LTP274	ltpFR	14	n/a	n/a	n/a	n/a	n/a	n/a	n/a	15	6	6	3	n/a	n/a	n/a	n/a	n/a
454.182	n/a	PROB	227091	n/a	LTP274	ltpFR	14	n/a	n/a	n/a	n/a	n/a	n/a	n/a	6	3	2	1	n/a	n/a	n/a	n/a	n/a
455.018	n/a	PROB	227509	n/a	LTP274	ltpFR	14	n/a	n/a	n/a	n/a	n/a	n/a	n/a	22	6	6	8	n/a	n/a	n/a	n/a	n/a
456.204	n/a	PROB	228102	n/a	LTP274	ltpFR	14	n/a	n/a	n/a	n/a	n/a	n/a	n/a	18	2	8	8	n/a	n/a	n/a	n/a	n/a
457.546	n/a	STOP	228773	n/a	LTP274	ltpFR	14	n/a	n/a	n/a	n/a	n/a	n/a	n/a	n/a	n/a	n/a	n/a	n/a	n/a	n/a	n/a	n/a
459.672	n/a	WORD	229836	wordpools/wasnorm_wordpool_less_exclusions.txt	LTP274	ltpFR	14	1	0	SAP	1233	n/a	n/a	0	n/a	0	0	0	0.422607421875	0.5869140625	0	lower	amplitud.ttf
462.684	n/a	START	231342	n/a	LTP274	ltpFR	14	n/a	n/a	n/a	n/a	n/a	n/a	n/a	n/a	n/a	n/a	n/a	n/a	n/a	n/a	n/a	n/a
463.704	n/a	PROB	231852	n/a	LTP274	ltpFR	14	n/a	n/a	n/a	n/a	n/a	n/a	n/a	15	7	5	2	n/a	n/a	n/a	n/a	n/a
465.088	n/a	PROB	232544	n/a	LTP274	ltpFR	14	n/a	n/a	n/a	n/a	n/a	n/a	n/a	6	1	2	3	n/a	n/a	n/a	n/a	n/a
466.162	n/a	PROB	233081	n/a	LTP274	ltpFR	14	n/a	n/a	n/a	n/a	n/a	n/a	n/a	21	6	7	8	n/a	n/a	n/a	n/a	n/a
467.616	n/a	PROB	233808	n/a	LTP274	ltpFR	14	n/a	n/a	n/a	n/a	n/a	n/a	n/a	13	3	1	9	n/a	n/a	n/a	n/a	n/a
468.638	n/a	PROB	234319	n/a	LTP274	ltpFR	14	n/a	n/a	n/a	n/a	n/a	n/a	n/a	14	7	6	1	n/a	n/a	n/a	n/a	n/a
470.034	n/a	STOP	235017	n/a	LTP274	ltpFR	14	n/a	n/a	n/a	n/a	n/a	n/a	n/a	n/a	n/a	n/a	n/a	n/a	n/a	n/a	n/a	n/a
471.616	n/a	WORD	235808	wordpools/wasnorm_wordpool_less_exclusions.txt	LTP274	ltpFR	14	1	0	PALM	1007	n/a	n/a	0	n/a	0	0	0	0.422607421875	0.5869140625	0	lower	amplitud.ttf
474.628	n/a	START	237314	n/a	LTP274	ltpFR	14	n/a	n/a	n/a	n/a	n/a	n/a	n/a	n/a	n/a	n/a	n/a	n/a	n/a	n/a	n/a	n/a
475.53	n/a	PROB	237765	n/a	LTP274	ltpFR	14	n/a	n/a	n/a	n/a	n/a	n/a	n/a	15	6	5	2	n/a	n/a	n/a	n/a	n/a
476.534	n/a	PROB	238267	n/a	LTP274	ltpFR	14	n/a	n/a	n/a	n/a	n/a	n/a	n/a	14	3	4	7	n/a	n/a	n/a	n/a	n/a
478.106	n/a	PROB	239053	n/a	LTP274	ltpFR	14	n/a	n/a	n/a	n/a	n/a	n/a	n/a	22	6	8	8	n/a	n/a	n/a	n/a	n/a
479.278	n/a	PROB	239639	n/a	LTP274	ltpFR	14	n/a	n/a	n/a	n/a	n/a	n/a	n/a	23	6	8	9	n/a	n/a	n/a	n/a	n/a
480.566	n/a	PROB	240283	n/a	LTP274	ltpFR	14	n/a	n/a	n/a	n/a	n/a	n/a	n/a	17	1	9	7	n/a	n/a	n/a	n/a	n/a
481.964	n/a	STOP	240982	n/a	LTP274	ltpFR	14	n/a	n/a	n/a	n/a	n/a	n/a	n/a	n/a	n/a	n/a	n/a	n/a	n/a	n/a	n/a	n/a
483.762	n/a	WORD	241881	wordpools/wasnorm_wordpool_less_exclusions.txt	LTP274	ltpFR	14	1	0	SNORKEL	1336	n/a	n/a	1	n/a	0	0	0	0.422607421875	0.5869140625	0	lower	amplitud.ttf
486.774	n/a	START	243387	n/a	LTP274	ltpFR	14	n/a	n/a	n/a	n/a	n/a	n/a	n/a	n/a	n/a	n/a	n/a	n/a	n/a	n/a	n/a	n/a
487.66	n/a	PROB	243830	n/a	LTP274	ltpFR	14	n/a	n/a	n/a	n/a	n/a	n/a	n/a	11	2	3	6	n/a	n/a	n/a	n/a	n/a
489.046	n/a	PROB	244523	n/a	LTP274	ltpFR	14	n/a	n/a	n/a	n/a	n/a	n/a	n/a	21	4	8	9	n/a	n/a	n/a	n/a	n/a
490.622	n/a	PROB	245311	n/a	LTP274	ltpFR	14	n/a	n/a	n/a	n/a	n/a	n/a	n/a	21	9	7	5	n/a	n/a	n/a	n/a	n/a
491.726	n/a	PROB	245863	n/a	LTP274	ltpFR	14	n/a	n/a	n/a	n/a	n/a	n/a	n/a	15	2	4	9	n/a	n/a	n/a	n/a	n/a
492.862	n/a	PROB	246431	n/a	LTP274	ltpFR	14	n/a	n/a	n/a	n/a	n/a	n/a	n/a	13	7	3	3	n/a	n/a	n/a	n/a	n/a
494.146	n/a	STOP	247073	n/a	LTP274	ltpFR	14	n/a	n/a	n/a	n/a	n/a	n/a	n/a	n/a	n/a	n/a	n/a	n/a	n/a	n/a	n/a	n/a
495.692	n/a	WORD	247846	wordpools/wasnorm_wordpool_less_exclusions.txt	LTP274	ltpFR	14	1	0	DIVER	476	n/a	n/a	1	n/a	0	0	0	0.422607421875	0.5869140625	0	lower	amplitud.ttf
498.704	n/a	START	249352	n/a	LTP274	ltpFR	14	n/a	n/a	n/a	n/a	n/a	n/a	n/a	n/a	n/a	n/a	n/a	n/a	n/a	n/a	n/a	n/a
499.674	n/a	PROB	249837	n/a	LTP274	ltpFR	14	n/a	n/a	n/a	n/a	n/a	n/a	n/a	8	2	3	3	n/a	n/a	n/a	n/a	n/a
501.212	n/a	PROB	250606	n/a	LTP274	ltpFR	14	n/a	n/a	n/a	n/a	n/a	n/a	n/a	18	4	7	7	n/a	n/a	n/a	n/a	n/a
502.334	n/a	PROB	251167	n/a	LTP274	ltpFR	14	n/a	n/a	n/a	n/a	n/a	n/a	n/a	13	1	7	5	n/a	n/a	n/a	n/a	n/a
503.604	n/a	PROB	251802	n/a	LTP274	ltpFR	14	n/a	n/a	n/a	n/a	n/a	n/a	n/a	6	3	2	1	n/a	n/a	n/a	n/a	n/a
504.758	n/a	PROB	252379	n/a	LTP274	ltpFR	14	n/a	n/a	n/a	n/a	n/a	n/a	n/a	18	8	2	8	n/a	n/a	n/a	n/a	n/a
505.98	n/a	STOP	252990	n/a	LTP274	ltpFR	14	n/a	n/a	n/a	n/a	n/a	n/a	n/a	n/a	n/a	n/a	n/a	n/a	n/a	n/a	n/a	n/a
507.602	n/a	WORD	253801	wordpools/wasnorm_wordpool_less_exclusions.txt	LTP274	ltpFR	14	1	0	CRITIC	410	n/a	n/a	0	n/a	0	0	0	0.422607421875	0.5869140625	0	lower	amplitud.ttf
510.614	n/a	START	255307	n/a	LTP274	ltpFR	14	n/a	n/a	n/a	n/a	n/a	n/a	n/a	n/a	n/a	n/a	n/a	n/a	n/a	n/a	n/a	n/a
511.652	n/a	PROB	255826	n/a	LTP274	ltpFR	14	n/a	n/a	n/a	n/a	n/a	n/a	n/a	17	7	5	5	n/a	n/a	n/a	n/a	n/a
512.856	n/a	PROB	256428	n/a	LTP274	ltpFR	14	n/a	n/a	n/a	n/a	n/a	n/a	n/a	15	5	2	8	n/a	n/a	n/a	n/a	n/a
513.91	n/a	PROB	256955	n/a	LTP274	ltpFR	14	n/a	n/a	n/a	n/a	n/a	n/a	n/a	17	9	7	1	n/a	n/a	n/a	n/a	n/a
515.248	n/a	PROB	257624	n/a	LTP274	ltpFR	14	n/a	n/a	n/a	n/a	n/a	n/a	n/a	19	5	7	7	n/a	n/a	n/a	n/a	n/a
517.038	n/a	PROB	258519	n/a	LTP274	ltpFR	14	n/a	n/a	n/a	n/a	n/a	n/a	n/a	10	1	7	2	n/a	n/a	n/a	n/a	n/a
517.918	n/a	STOP	258959	n/a	LTP274	ltpFR	14	n/a	n/a	n/a	n/a	n/a	n/a	n/a	n/a	n/a	n/a	n/a	n/a	n/a	n/a	n/a	n/a
519.566	n/a	WORD	259783	wordpools/wasnorm_wordpool_less_exclusions.txt	LTP274	ltpFR	14	1	0	BISON	131	n/a	n/a	1	n/a	0	0	0	0.422607421875	0.5869140625	0	lower	amplitud.ttf
522.578	n/a	START	261289	n/a	LTP274	ltpFR	14	n/a	n/a	n/a	n/a	n/a	n/a	n/a	n/a	n/a	n/a	n/a	n/a	n/a	n/a	n/a	n/a
523.766	n/a	PROB	261883	n/a	LTP274	ltpFR	14	n/a	n/a	n/a	n/a	n/a	n/a	n/a	15	1	5	9	n/a	n/a	n/a	n/a	n/a
524.584	n/a	PROB	262292	n/a	LTP274	ltpFR	14	n/a	n/a	n/a	n/a	n/a	n/a	n/a	17	4	7	6	n/a	n/a	n/a	n/a	n/a
526.056	n/a	PROB	263028	n/a	LTP274	ltpFR	14	n/a	n/a	n/a	n/a	n/a	n/a	n/a	11	2	1	8	n/a	n/a	n/a	n/a	n/a
526.962	n/a	PROB	263481	n/a	LTP274	ltpFR	14	n/a	n/a	n/a	n/a	n/a	n/a	n/a	5	1	2	2	n/a	n/a	n/a	n/a	n/a
527.698	n/a	PROB	263849	n/a	LTP274	ltpFR	14	n/a	n/a	n/a	n/a	n/a	n/a	n/a	8	1	3	4	n/a	n/a	n/a	n/a	n/a
528.55	n/a	PROB	264275	n/a	LTP274	ltpFR	14	n/a	n/a	n/a	n/a	n/a	n/a	n/a	5	2	2	1	n/a	n/a	n/a	n/a	n/a
529.212	n/a	STOP	264606	n/a	LTP274	ltpFR	14	n/a	n/a	n/a	n/a	n/a	n/a	n/a	n/a	n/a	n/a	n/a	n/a	n/a	n/a	n/a	n/a
531.678	n/a	WORD	265839	wordpools/wasnorm_wordpool_less_exclusions.txt	LTP274	ltpFR	14	1	0	SHORTS	1293	n/a	n/a	0	n/a	0	0	0	0.422607421875	0.5869140625	0	lower	amplitud.ttf
534.69	n/a	START	267345	n/a	LTP274	ltpFR	14	n/a	n/a	n/a	n/a	n/a	n/a	n/a	n/a	n/a	n/a	n/a	n/a	n/a	n/a	n/a	n/a
535.88	n/a	PROB	267940	n/a	LTP274	ltpFR	14	n/a	n/a	n/a	n/a	n/a	n/a	n/a	17	7	8	2	n/a	n/a	n/a	n/a	n/a
537.116	n/a	PROB	268558	n/a	LTP274	ltpFR	14	n/a	n/a	n/a	n/a	n/a	n/a	n/a	19	4	8	7	n/a	n/a	n/a	n/a	n/a
538.336	n/a	PROB	269168	n/a	LTP274	ltpFR	14	n/a	n/a	n/a	n/a	n/a	n/a	n/a	5	2	1	2	n/a	n/a	n/a	n/a	n/a
539.138	n/a	PROB	269569	n/a	LTP274	ltpFR	14	n/a	n/a	n/a	n/a	n/a	n/a	n/a	14	1	6	7	n/a	n/a	n/a	n/a	n/a
540.194	n/a	PROB	270097	n/a	LTP274	ltpFR	14	n/a	n/a	n/a	n/a	n/a	n/a	n/a	14	5	1	7	n/a	n/a	n/a	n/a	n/a
541.55	n/a	STOP	270775	n/a	LTP274	ltpFR	14	n/a	n/a	n/a	n/a	n/a	n/a	n/a	n/a	n/a	n/a	n/a	n/a	n/a	n/a	n/a	n/a
543.874	n/a	WORD	271937	wordpools/wasnorm_wordpool_less_exclusions.txt	LTP274	ltpFR	14	1	0	SCALLOP	1242	n/a	n/a	0	n/a	0	0	0	0.422607421875	0.5869140625	0	lower	amplitud.ttf
546.888	n/a	START	273444	n/a	LTP274	ltpFR	14	n/a	n/a	n/a	n/a	n/a	n/a	n/a	n/a	n/a	n/a	n/a	n/a	n/a	n/a	n/a	n/a
547.99	n/a	PROB	273995	n/a	LTP274	ltpFR	14	n/a	n/a	n/a	n/a	n/a	n/a	n/a	12	6	3	3	n/a	n/a	n/a	n/a	n/a
549.396	n/a	PROB	274698	n/a	LTP274	ltpFR	14	n/a	n/a	n/a	n/a	n/a	n/a	n/a	9	2	1	6	n/a	n/a	n/a	n/a	n/a
550.534	n/a	PROB	275267	n/a	LTP274	ltpFR	14	n/a	n/a	n/a	n/a	n/a	n/a	n/a	19	9	6	4	n/a	n/a	n/a	n/a	n/a
551.706	n/a	PROB	275853	n/a	LTP274	ltpFR	14	n/a	n/a	n/a	n/a	n/a	n/a	n/a	20	8	3	9	n/a	n/a	n/a	n/a	n/a
553.008	n/a	PROB	276504	n/a	LTP274	ltpFR	14	n/a	n/a	n/a	n/a	n/a	n/a	n/a	21	8	9	6	n/a	n/a	n/a	n/a	n/a
554.014	n/a	STOP	277007	n/a	LTP274	ltpFR	14	n/a	n/a	n/a	n/a	n/a	n/a	n/a	n/a	n/a	n/a	n/a	n/a	n/a	n/a	n/a	n/a
556.106	n/a	WORD	278053	wordpools/wasnorm_wordpool_less_exclusions.txt	LTP274	ltpFR	14	1	0	BANQUET	86	n/a	n/a	1	n/a	0	0	0	0.422607421875	0.5869140625	0	lower	amplitud.ttf
559.118	n/a	START	279559	n/a	LTP274	ltpFR	14	n/a	n/a	n/a	n/a	n/a	n/a	n/a	n/a	n/a	n/a	n/a	n/a	n/a	n/a	n/a	n/a
560.204	n/a	PROB	280102	n/a	LTP274	ltpFR	14	n/a	n/a	n/a	n/a	n/a	n/a	n/a	14	5	6	3	n/a	n/a	n/a	n/a	n/a
561.842	n/a	PROB	280921	n/a	LTP274	ltpFR	14	n/a	n/a	n/a	n/a	n/a	n/a	n/a	9	3	2	4	n/a	n/a	n/a	n/a	n/a
563.032	n/a	PROB	281516	n/a	LTP274	ltpFR	14	n/a	n/a	n/a	n/a	n/a	n/a	n/a	6	2	3	1	n/a	n/a	n/a	n/a	n/a
563.886	n/a	PROB	281943	n/a	LTP274	ltpFR	14	n/a	n/a	n/a	n/a	n/a	n/a	n/a	20	2	9	9	n/a	n/a	n/a	n/a	n/a
565.072	n/a	PROB	282536	n/a	LTP274	ltpFR	14	n/a	n/a	n/a	n/a	n/a	n/a	n/a	19	9	9	1	n/a	n/a	n/a	n/a	n/a
566.102	n/a	STOP	283051	n/a	LTP274	ltpFR	14	n/a	n/a	n/a	n/a	n/a	n/a	n/a	n/a	n/a	n/a	n/a	n/a	n/a	n/a	n/a	n/a
568.134	n/a	WORD	284067	wordpools/wasnorm_wordpool_less_exclusions.txt	LTP274	ltpFR	14	1	0	INN	739	n/a	n/a	1	n/a	0	0	0	0.422607421875	0.5869140625	0	lower	amplitud.ttf
571.146	n/a	START	285573	n/a	LTP274	ltpFR	14	n/a	n/a	n/a	n/a	n/a	n/a	n/a	n/a	n/a	n/a	n/a	n/a	n/a	n/a	n/a	n/a
572.282	n/a	PROB	286141	n/a	LTP274	ltpFR	14	n/a	n/a	n/a	n/a	n/a	n/a	n/a	15	5	3	7	n/a	n/a	n/a	n/a	n/a
573.672	n/a	PROB	286836	n/a	LTP274	ltpFR	14	n/a	n/a	n/a	n/a	n/a	n/a	n/a	22	9	7	6	n/a	n/a	n/a	n/a	n/a
576.098	n/a	PROB	288049	n/a	LTP274	ltpFR	14	n/a	n/a	n/a	n/a	n/a	n/a	n/a	21	7	7	7	n/a	n/a	n/a	n/a	n/a
577.17	n/a	PROB	288585	n/a	LTP274	ltpFR	14	n/a	n/a	n/a	n/a	n/a	n/a	n/a	16	9	1	6	n/a	n/a	n/a	n/a	n/a
578.128	n/a	STOP	289064	n/a	LTP274	ltpFR	14	n/a	n/a	n/a	n/a	n/a	n/a	n/a	n/a	n/a	n/a	n/a	n/a	n/a	n/a	n/a	n/a
579.98	n/a	WORD	289990	wordpools/wasnorm_wordpool_less_exclusions.txt	LTP274	ltpFR	14	1	0	PITCHFORK	1078	n/a	n/a	1	n/a	0	0	0	0.422607421875	0.5869140625	0	lower	amplitud.ttf
582.992	n/a	START	291496	n/a	LTP274	ltpFR	14	n/a	n/a	n/a	n/a	n/a	n/a	n/a	n/a	n/a	n/a	n/a	n/a	n/a	n/a	n/a	n/a
584.062	n/a	PROB	292031	n/a	LTP274	ltpFR	14	n/a	n/a	n/a	n/a	n/a	n/a	n/a	18	9	7	2	n/a	n/a	n/a	n/a	n/a
585.484	n/a	PROB	292742	n/a	LTP274	ltpFR	14	n/a	n/a	n/a	n/a	n/a	n/a	n/a	13	8	1	4	n/a	n/a	n/a	n/a	n/a
586.772	n/a	PROB	293386	n/a	LTP274	ltpFR	14	n/a	n/a	n/a	n/a	n/a	n/a	n/a	12	7	2	3	n/a	n/a	n/a	n/a	n/a
588.328	n/a	PROB	294164	n/a	LTP274	ltpFR	14	n/a	n/a	n/a	n/a	n/a	n/a	n/a	14	1	5	7	n/a	n/a	n/a	n/a	n/a
589.432	n/a	PROB	294716	n/a	LTP274	ltpFR	14	n/a	n/a	n/a	n/a	n/a	n/a	n/a	5	1	2	2	n/a	n/a	n/a	n/a	n/a
590.264	n/a	STOP	295132	n/a	LTP274	ltpFR	14	n/a	n/a	n/a	n/a	n/a	n/a	n/a	n/a	n/a	n/a	n/a	n/a	n/a	n/a	n/a	n/a
592.042	n/a	WORD	296021	wordpools/wasnorm_wordpool_less_exclusions.txt	LTP274	ltpFR	14	1	0	POCKET	1093	n/a	n/a	0	n/a	0	0	0	0.422607421875	0.5869140625	0	lower	amplitud.ttf
595.054	n/a	START	297527	n/a	LTP274	ltpFR	14	n/a	n/a	n/a	n/a	n/a	n/a	n/a	n/a	n/a	n/a	n/a	n/a	n/a	n/a	n/a	n/a
596.024	n/a	PROB	298012	n/a	LTP274	ltpFR	14	n/a	n/a	n/a	n/a	n/a	n/a	n/a	14	3	6	5	n/a	n/a	n/a	n/a	n/a
597.696	n/a	PROB	298848	n/a	LTP274	ltpFR	14	n/a	n/a	n/a	n/a	n/a	n/a	n/a	8	3	2	3	n/a	n/a	n/a	n/a	n/a
599.002	n/a	PROB	299501	n/a	LTP274	ltpFR	14	n/a	n/a	n/a	n/a	n/a	n/a	n/a	11	3	6	2	n/a	n/a	n/a	n/a	n/a
601.094	n/a	PROB	300547	n/a	LTP274	ltpFR	14	n/a	n/a	n/a	n/a	n/a	n/a	n/a	15	5	6	4	n/a	n/a	n/a	n/a	n/a
601.994	n/a	STOP	300997	n/a	LTP274	ltpFR	14	n/a	n/a	n/a	n/a	n/a	n/a	n/a	n/a	n/a	n/a	n/a	n/a	n/a	n/a	n/a	n/a
604.826	n/a	REC_START	302413	n/a	LTP274	ltpFR	14	1	n/a	n/a	n/a	n/a	n/a	n/a	n/a	0	0	0	n/a	n/a	n/a	n/a	n/a
608.174	n/a	REC_WORD	304087	wordpools/wasnorm_wordpool_less_exclusions.txt	LTP274	ltpFR	14	1	0	RESORT	1186	n/a	n/a	1	n/a	0	0	0	n/a	n/a	n/a	n/a	n/a
608.916	n/a	REC_WORD	304458	wordpools/wasnorm_wordpool_less_exclusions.txt	LTP274	ltpFR	14	1	0	PASSAGE	1019	n/a	n/a	1	n/a	0	0	0	n/a	n/a	n/a	n/a	n/a
610.572	n/a	REC_WORD	305286	wordpools/wasnorm_wordpool_less_exclusions.txt	LTP274	ltpFR	14	1	0	INN	739	n/a	n/a	1	n/a	0	0	0	n/a	n/a	n/a	n/a	n/a
611.108	n/a	REC_WORD	305554	wordpools/wasnorm_wordpool_less_exclusions.txt	LTP274	ltpFR	14	1	0	BANQUET	86	n/a	n/a	1	n/a	0	0	0	n/a	n/a	n/a	n/a	n/a
611.704	n/a	REC_WORD	305852	wordpools/wasnorm_wordpool_less_exclusions.txt	LTP274	ltpFR	14	1	0	PITCHFORK	1078	n/a	n/a	1	n/a	0	0	0	n/a	n/a	n/a	n/a	n/a
629.754	n/a	REC_WORD	314877	wordpools/wasnorm_wordpool_less_exclusions.txt	LTP274	ltpFR	14	1	0	SNORKEL	1336	n/a	n/a	1	n/a	0	0	0	n/a	n/a	n/a	n/a	n/a
631.344	n/a	REC_WORD	315672	wordpools/wasnorm_wordpool_less_exclusions.txt	LTP274	ltpFR	14	1	0	PALM	1007	n/a	n/a	0	n/a	0	0	0	n/a	n/a	n/a	n/a	n/a
637.288	n/a	REC_WORD	318644	wordpools/wasnorm_wordpool_less_exclusions.txt	LTP274	ltpFR	14	1	0	SHORTS	1293	n/a	n/a	0	n/a	0	0	0	n/a	n/a	n/a	n/a	n/a
640.658	n/a	REC_WORD	320329	wordpools/wasnorm_wordpool_less_exclusions.txt	LTP274	ltpFR	14	1	0	BISON	131	n/a	n/a	1	n/a	0	0	0	n/a	n/a	n/a	n/a	n/a
683.878	n/a	WORD	341939	wordpools/wasnorm_wordpool_less_exclusions.txt	LTP274	ltpFR	14	2	0	SCARF	1246	n/a	n/a	0	n/a	0	0	0	0.422607421875	0.5869140625	0	lower	amplitud.ttf
687.76	n/a	WORD	343880	wordpools/wasnorm_wordpool_less_exclusions.txt	LTP274	ltpFR	14	2	0	LITERATURE	831	n/a	n/a	0	n/a	0	0	0	0.422607421875	0.5869140625	0	lower	amplitud.ttf
691.64	n/a	WORD	345820	wordpools/wasnorm_wordpool_less_exclusions.txt	LTP274	ltpFR	14	2	0	SIGNATURE	1306	n/a	n/a	0	n/a	0	0	0	0.422607421875	0.5869140625	0	lower	amplitud.ttf
695.756	n/a	WORD	347878	wordpools/wasnorm_wordpool_less_exclusions.txt	LTP274	ltpFR	14	2	0	EMPLOYER	532	n/a	n/a	1	n/a	0	0	0	0.422607421875	0.5869140625	0	lower	amplitud.ttf
699.956	n/a	WORD	349978	wordpools/wasnorm_wordpool_less_exclusions.txt	LTP274	ltpFR	14	2	0	NECKLACE	940	n/a	n/a	0	n/a	0	0	0	0.422607421875	0.5869140625	0	lower	amplitud.ttf
704.168	n/a	WORD	352084	wordpools/wasnorm_wordpool_less_exclusions.txt	LTP274	ltpFR	14	2	0	ARENA	37	n/a	n/a	1	n/a	0	0	0	0.422607421875	0.5869140625	0	lower	amplitud.ttf
708.204	n/a	WORD	354102	wordpools/wasnorm_wordpool_less_exclusions.txt	LTP274	ltpFR	14	2	0	ALMANAC	17	n/a	n/a	0	n/a	0	0	0	0.422607421875	0.5869140625	0	lower	amplitud.ttf
712.068	n/a	WORD	356034	wordpools/wasnorm_wordpool_less_exclusions.txt	LTP274	ltpFR	14	2	0	WINE	1613	n/a	n/a	0	n/a	0	0	0	0.422607421875	0.5869140625	0	lower	amplitud.ttf
716.25	n/a	WORD	358125	wordpools/wasnorm_wordpool_less_exclusions.txt	LTP274	ltpFR	14	2	0	SALOON	1228	n/a	n/a	1	n/a	0	0	0	0.422607421875	0.5869140625	0	lower	amplitud.ttf
720.164	n/a	WORD	360082	wordpools/wasnorm_wordpool_less_exclusions.txt	LTP274	ltpFR	14	2	0	TILE	1468	n/a	n/a	0	n/a	0	0	0	0.422607421875	0.5869140625	0	lower	amplitud.ttf
724.046	n/a	WORD	362023	wordpools/wasnorm_wordpool_less_exclusions.txt	LTP274	ltpFR	14	2	0	SHELF	1280	n/a	n/a	1	n/a	0	0	0	0.422607421875	0.5869140625	0	lower	amplitud.ttf
727.878	n/a	WORD	363939	wordpools/wasnorm_wordpool_less_exclusions.txt	LTP274	ltpFR	14	2	0	PERSONNEL	1053	n/a	n/a	1	n/a	0	0	0	0.422607421875	0.5869140625	0	lower	amplitud.ttf
731.776	n/a	WORD	365888	wordpools/wasnorm_wordpool_less_exclusions.txt	LTP274	ltpFR	14	2	0	COOKIE	374	n/a	n/a	0	n/a	0	0	0	0.422607421875	0.5869140625	0	lower	amplitud.ttf
735.826	n/a	WORD	367913	wordpools/wasnorm_wordpool_less_exclusions.txt	LTP274	ltpFR	14	2	0	VITAMIN	1574	n/a	n/a	0	n/a	0	0	0	0.422607421875	0.5869140625	0	lower	amplitud.ttf
739.806	n/a	WORD	369903	wordpools/wasnorm_wordpool_less_exclusions.txt	LTP274	ltpFR	14	2	0	QUAIL	1147	n/a	n/a	1	n/a	0	0	0	0.422607421875	0.5869140625	0	lower	amplitud.ttf
743.874	n/a	WORD	371937	wordpools/wasnorm_wordpool_less_exclusions.txt	LTP274	ltpFR	14	2	0	PARROT	1015	n/a	n/a	1	n/a	0	0	0	0.422607421875	0.5869140625	0	lower	amplitud.ttf
746.886	n/a	START	373443	n/a	LTP274	ltpFR	14	n/a	n/a	n/a	n/a	n/a	n/a	n/a	n/a	n/a	n/a	n/a	n/a	n/a	n/a	n/a	n/a
747.756	n/a	PROB	373878	n/a	LTP274	ltpFR	14	n/a	n/a	n/a	n/a	n/a	n/a	n/a	13	1	4	8	n/a	n/a	n/a	n/a	n/a
749.124	n/a	PROB	374562	n/a	LTP274	ltpFR	14	n/a	n/a	n/a	n/a	n/a	n/a	n/a	15	1	5	9	n/a	n/a	n/a	n/a	n/a
750.13	n/a	PROB	375065	n/a	LTP274	ltpFR	14	n/a	n/a	n/a	n/a	n/a	n/a	n/a	22	6	7	9	n/a	n/a	n/a	n/a	n/a
751.754	n/a	PROB	375877	n/a	LTP274	ltpFR	14	n/a	n/a	n/a	n/a	n/a	n/a	n/a	16	7	2	7	n/a	n/a	n/a	n/a	n/a
752.822	n/a	PROB	376411	n/a	LTP274	ltpFR	14	n/a	n/a	n/a	n/a	n/a	n/a	n/a	17	4	4	9	n/a	n/a	n/a	n/a	n/a
754.048	n/a	STOP	377024	n/a	LTP274	ltpFR	14	n/a	n/a	n/a	n/a	n/a	n/a	n/a	n/a	n/a	n/a	n/a	n/a	n/a	n/a	n/a	n/a
756.74	n/a	REC_START	378370	n/a	LTP274	ltpFR	14	2	n/a	n/a	n/a	n/a	n/a	n/a	n/a	0	0	0	n/a	n/a	n/a	n/a	n/a
758.3	n/a	REC_WORD	379150	wordpools/wasnorm_wordpool_less_exclusions.txt	LTP274	ltpFR	14	2	0	QUAIL	1147	n/a	n/a	1	n/a	0	0	0	n/a	n/a	n/a	n/a	n/a
759.326	n/a	REC_WORD	379663	wordpools/wasnorm_wordpool_less_exclusions.txt	LTP274	ltpFR	14	2	0	PARROT	1015	n/a	n/a	1	n/a	0	0	0	n/a	n/a	n/a	n/a	n/a
765.75	n/a	REC_WORD	382875	wordpools/wasnorm_wordpool_less_exclusions.txt	LTP274	ltpFR	14	2	0	SALOON	1228	n/a	n/a	1	n/a	0	0	0	n/a	n/a	n/a	n/a	n/a
769.56	n/a	REC_WORD	384780	wordpools/wasnorm_wordpool_less_exclusions.txt	LTP274	ltpFR	14	2	0	WINE	1613	n/a	n/a	0	n/a	0	0	0	n/a	n/a	n/a	n/a	n/a
819.98	n/a	REC_WORD	409990	wordpools/wasnorm_wordpool_less_exclusions.txt	LTP274	ltpFR	14	2	0	EMPLOYER	532	n/a	n/a	1	n/a	0	0	0	n/a	n/a	n/a	n/a	n/a
820.606	n/a	REC_WORD	410303	wordpools/wasnorm_wordpool_less_exclusions.txt	LTP274	ltpFR	14	2	0	SIGNATURE	1306	n/a	n/a	0	n/a	0	0	0	n/a	n/a	n/a	n/a	n/a
823.724	n/a	REC_WORD	411862	wordpools/wasnorm_wordpool_less_exclusions.txt	LTP274	ltpFR	14	2	0	LITERATURE	831	n/a	n/a	0	n/a	0	0	0	n/a	n/a	n/a	n/a	n/a
836.828	n/a	WORD	418414	wordpools/wasnorm_wordpool_less_exclusions.txt	LTP274	ltpFR	14	3	1	NET	946	n/a	n/a	0	n/a	0	0	0	0.57763671875	0.412841796875	1	upper	zerothre.ttf
841.044	n/a	WORD	420522	wordpools/wasnorm_wordpool_less_exclusions.txt	LTP274	ltpFR	14	3	1	DOOR	486	n/a	n/a	0	n/a	0	0	0	0.57763671875	0.412841796875	1	upper	zerothre.ttf
845.076	n/a	WORD	422538	wordpools/wasnorm_wordpool_less_exclusions.txt	LTP274	ltpFR	14	3	1	KIDNEY	776	n/a	n/a	1	n/a	0	0	0	0.57763671875	0.412841796875	1	upper	zerothre.ttf
849.006	n/a	WORD	424503	wordpools/wasnorm_wordpool_less_exclusions.txt	LTP274	ltpFR	14	3	1	PHILOSOPHER	1054	n/a	n/a	1	n/a	0	0	0	0.57763671875	0.412841796875	1	upper	zerothre.ttf
852.956	n/a	WORD	426478	wordpools/wasnorm_wordpool_less_exclusions.txt	LTP274	ltpFR	14	3	1	BIOLOGIST	128	n/a	n/a	1	n/a	0	0	0	0.57763671875	0.412841796875	1	upper	zerothre.ttf
857.038	n/a	WORD	428519	wordpools/wasnorm_wordpool_less_exclusions.txt	LTP274	ltpFR	14	3	1	THERMOMETER	1453	n/a	n/a	0	n/a	0	0	0	0.57763671875	0.412841796875	1	upper	zerothre.ttf
861.088	n/a	WORD	430544	wordpools/wasnorm_wordpool_less_exclusions.txt	LTP274	ltpFR	14	3	1	POOL	1103	n/a	n/a	0	n/a	0	0	0	0.57763671875	0.412841796875	1	upper	zerothre.ttf
865.12	n/a	WORD	432560	wordpools/wasnorm_wordpool_less_exclusions.txt	LTP274	ltpFR	14	3	1	MAID	856	n/a	n/a	1	n/a	0	0	0	0.57763671875	0.412841796875	1	upper	zerothre.ttf
869.118	n/a	WORD	434559	wordpools/wasnorm_wordpool_less_exclusions.txt	LTP274	ltpFR	14	3	1	BEARD	107	n/a	n/a	0	n/a	0	0	0	0.57763671875	0.412841796875	1	upper	zerothre.ttf
873.316	n/a	WORD	436658	wordpools/wasnorm_wordpool_less_exclusions.txt	LTP274	ltpFR	14	3	1	ASH	44	n/a	n/a	0	n/a	0	0	0	0.57763671875	0.412841796875	1	upper	zerothre.ttf
877.216	n/a	WORD	438608	wordpools/wasnorm_wordpool_less_exclusions.txt	LTP274	ltpFR	14	3	1	CAMEL	223	n/a	n/a	1	n/a	0	0	0	0.57763671875	0.412841796875	1	upper	zerothre.ttf
881.282	n/a	WORD	440641	wordpools/wasnorm_wordpool_less_exclusions.txt	LTP274	ltpFR	14	3	1	HEART	697	n/a	n/a	0	n/a	0	0	0	0.57763671875	0.412841796875	1	upper	zerothre.ttf
885.43	n/a	WORD	442715	wordpools/wasnorm_wordpool_less_exclusions.txt	LTP274	ltpFR	14	3	1	HINGE	709	n/a	n/a	0	n/a	0	0	0	0.57763671875	0.412841796875	1	upper	zerothre.ttf
889.446	n/a	WORD	444723	wordpools/wasnorm_wordpool_less_exclusions.txt	LTP274	ltpFR	14	3	1	NOSE	957	n/a	n/a	0	n/a	0	0	0	0.57763671875	0.412841796875	1	upper	zerothre.ttf
893.478	n/a	WORD	446739	wordpools/wasnorm_wordpool_less_exclusions.txt	LTP274	ltpFR	14	3	1	SLIDE	1326	n/a	n/a	0	n/a	0	0	0	0.57763671875	0.412841796875	1	upper	zerothre.ttf
897.594	n/a	WORD	448797	wordpools/wasnorm_wordpool_less_exclusions.txt	LTP274	ltpFR	14	3	1	LAGOON	795	n/a	n/a	0	n/a	0	0	0	0.57763671875	0.412841796875	1	upper	zerothre.ttf
900.606	n/a	START	450303	n/a	LTP274	ltpFR	14	n/a	n/a	n/a	n/a	n/a	n/a	n/a	n/a	n/a	n/a	n/a	n/a	n/a	n/a	n/a	n/a
901.66	n/a	PROB	450830	n/a	LTP274	ltpFR	14	n/a	n/a	n/a	n/a	n/a	n/a	n/a	8	1	4	3	n/a	n/a	n/a	n/a	n/a
903.014	n/a	PROB	451507	n/a	LTP274	ltpFR	14	n/a	n/a	n/a	n/a	n/a	n/a	n/a	14	8	2	4	n/a	n/a	n/a	n/a	n/a
904.216	n/a	PROB	452108	n/a	LTP274	ltpFR	14	n/a	n/a	n/a	n/a	n/a	n/a	n/a	20	7	7	6	n/a	n/a	n/a	n/a	n/a
906.964	n/a	PROB	453482	n/a	LTP274	ltpFR	14	n/a	n/a	n/a	n/a	n/a	n/a	n/a	13	2	3	8	n/a	n/a	n/a	n/a	n/a
908.184	n/a	PROB	454092	n/a	LTP274	ltpFR	14	n/a	n/a	n/a	n/a	n/a	n/a	n/a	15	2	7	5	n/a	n/a	n/a	n/a	n/a
909.522	n/a	PROB	454761	n/a	LTP274	ltpFR	14	n/a	n/a	n/a	n/a	n/a	n/a	n/a	19	6	5	8	n/a	n/a	n/a	n/a	n/a
911.21	n/a	PROB	455605	n/a	LTP274	ltpFR	14	n/a	n/a	n/a	n/a	n/a	n/a	n/a	21	9	3	9	n/a	n/a	n/a	n/a	n/a
912.264	n/a	PROB	456132	n/a	LTP274	ltpFR	14	n/a	n/a	n/a	n/a	n/a	n/a	n/a	17	4	6	7	n/a	n/a	n/a	n/a	n/a
913.67	n/a	PROB	456835	n/a	LTP274	ltpFR	14	n/a	n/a	n/a	n/a	n/a	n/a	n/a	12	2	2	8	n/a	n/a	n/a	n/a	n/a
914.708	n/a	PROB	457354	n/a	LTP274	ltpFR	14	n/a	n/a	n/a	n/a	n/a	n/a	n/a	21	6	9	6	n/a	n/a	n/a	n/a	n/a
916.306	n/a	STOP	458153	n/a	LTP274	ltpFR	14	n/a	n/a	n/a	n/a	n/a	n/a	n/a	n/a	n/a	n/a	n/a	n/a	n/a	n/a	n/a	n/a
918.44	n/a	REC_START	459220	n/a	LTP274	ltpFR	14	3	n/a	n/a	n/a	n/a	n/a	n/a	n/a	0	0	0	n/a	n/a	n/a	n/a	n/a
921.11	n/a	REC_WORD	460555	wordpools/wasnorm_wordpool_less_exclusions.txt	LTP274	ltpFR	14	3	1	LAGOON	795	n/a	n/a	0	n/a	0	0	0	n/a	n/a	n/a	n/a	n/a
922.042	n/a	REC_WORD	461021	wordpools/wasnorm_wordpool_less_exclusions.txt	LTP274	ltpFR	14	3	1	MAID	856	n/a	n/a	1	n/a	0	0	0	n/a	n/a	n/a	n/a	n/a
922.906	n/a	REC_WORD	461453	wordpools/wasnorm_wordpool_less_exclusions.txt	LTP274	ltpFR	14	3	1	BIOLOGIST	128	n/a	n/a	1	n/a	0	0	0	n/a	n/a	n/a	n/a	n/a
933.548	n/a	REC_WORD	466774	wordpools/wasnorm_wordpool_less_exclusions.txt	LTP274	ltpFR	14	3	1	DOOR	486	n/a	n/a	0	n/a	0	0	0	n/a	n/a	n/a	n/a	n/a
996.774	n/a	WORD	498387	wordpools/wasnorm_wordpool_less_exclusions.txt	LTP274	ltpFR	14	4	1	JEANS	752	n/a	n/a	0	n/a	0	0	0	0.57763671875	0.412841796875	1	upper	zerothre.ttf
1000.906	n/a	WORD	500453	wordpools/wasnorm_wordpool_less_exclusions.txt	LTP274	ltpFR	14	4	1	DENIM	446	n/a	n/a	0	n/a	0	0	0	0.57763671875	0.412841796875	1	upper	zerothre.ttf
1004.92	n/a	WORD	502460	wordpools/wasnorm_wordpool_less_exclusions.txt	LTP274	ltpFR	14	4	1	SUIT	1402	n/a	n/a	0	n/a	0	0	0	0.57763671875	0.412841796875	1	upper	zerothre.ttf
1009.104	n/a	WORD	504552	wordpools/wasnorm_wordpool_less_exclusions.txt	LTP274	ltpFR	14	4	0	OYSTER	995	n/a	n/a	0	n/a	0	0	0	0.422607421875	0.5869140625	0	lower	amplitud.ttf
1013.236	n/a	WORD	506618	wordpools/wasnorm_wordpool_less_exclusions.txt	LTP274	ltpFR	14	4	0	SCOTCH	1251	n/a	n/a	0	n/a	0	0	0	0.422607421875	0.5869140625	0	lower	amplitud.ttf
1017.402	n/a	WORD	508701	wordpools/wasnorm_wordpool_less_exclusions.txt	LTP274	ltpFR	14	4	0	DIAGRAM	456	n/a	n/a	0	n/a	0	0	0	0.422607421875	0.5869140625	0	lower	amplitud.ttf
1021.466	n/a	WORD	510733	wordpools/wasnorm_wordpool_less_exclusions.txt	LTP274	ltpFR	14	4	1	RUNNER	1218	n/a	n/a	1	n/a	0	0	0	0.57763671875	0.412841796875	1	upper	zerothre.ttf
1025.464	n/a	WORD	512732	wordpools/wasnorm_wordpool_less_exclusions.txt	LTP274	ltpFR	14	4	1	PEDESTRIAN	1038	n/a	n/a	1	n/a	0	0	0	0.57763671875	0.412841796875	1	upper	zerothre.ttf
1029.548	n/a	WORD	514774	wordpools/wasnorm_wordpool_less_exclusions.txt	LTP274	ltpFR	14	4	1	LAMB	797	n/a	n/a	1	n/a	0	0	0	0.57763671875	0.412841796875	1	upper	zerothre.ttf
1033.48	n/a	WORD	516740	wordpools/wasnorm_wordpool_less_exclusions.txt	LTP274	ltpFR	14	4	1	DANDELION	438	n/a	n/a	0	n/a	0	0	0	0.57763671875	0.412841796875	1	upper	zerothre.ttf
1037.662	n/a	WORD	518831	wordpools/wasnorm_wordpool_less_exclusions.txt	LTP274	ltpFR	14	4	1	CRAB	397	n/a	n/a	0	n/a	0	0	0	0.57763671875	0.412841796875	1	upper	zerothre.ttf
1041.544	n/a	WORD	520772	wordpools/wasnorm_wordpool_less_exclusions.txt	LTP274	ltpFR	14	4	0	SHEEP	1278	n/a	n/a	1	n/a	0	0	0	0.422607421875	0.5869140625	0	lower	amplitud.ttf
1045.694	n/a	WORD	522847	wordpools/wasnorm_wordpool_less_exclusions.txt	LTP274	ltpFR	14	4	0	COUNTRY	388	n/a	n/a	0	n/a	0	0	0	0.422607421875	0.5869140625	0	lower	amplitud.ttf
1049.894	n/a	WORD	524947	wordpools/wasnorm_wordpool_less_exclusions.txt	LTP274	ltpFR	14	4	0	CITY	314	n/a	n/a	1	n/a	0	0	0	0.422607421875	0.5869140625	0	lower	amplitud.ttf
1053.742	n/a	WORD	526871	wordpools/wasnorm_wordpool_less_exclusions.txt	LTP274	ltpFR	14	4	0	LABYRINTH	791	n/a	n/a	1	n/a	0	0	0	0.422607421875	0.5869140625	0	lower	amplitud.ttf
1057.706	n/a	WORD	528853	wordpools/wasnorm_wordpool_less_exclusions.txt	LTP274	ltpFR	14	4	0	OUTFIT	988	n/a	n/a	0	n/a	0	0	0	0.422607421875	0.5869140625	0	lower	amplitud.ttf
1060.718	n/a	START	530359	n/a	LTP274	ltpFR	14	n/a	n/a	n/a	n/a	n/a	n/a	n/a	n/a	n/a	n/a	n/a	n/a	n/a	n/a	n/a	n/a
1061.822	n/a	PROB	530911	n/a	LTP274	ltpFR	14	n/a	n/a	n/a	n/a	n/a	n/a	n/a	18	4	9	5	n/a	n/a	n/a	n/a	n/a
1064.328	n/a	PROB	532164	n/a	LTP274	ltpFR	14	n/a	n/a	n/a	n/a	n/a	n/a	n/a	17	9	7	1	n/a	n/a	n/a	n/a	n/a
1065.72	n/a	PROB	532860	n/a	LTP274	ltpFR	14	n/a	n/a	n/a	n/a	n/a	n/a	n/a	8	1	1	6	n/a	n/a	n/a	n/a	n/a
1066.59	n/a	PROB	533295	n/a	LTP274	ltpFR	14	n/a	n/a	n/a	n/a	n/a	n/a	n/a	12	3	4	5	n/a	n/a	n/a	n/a	n/a
1067.908	n/a	STOP	533954	n/a	LTP274	ltpFR	14	n/a	n/a	n/a	n/a	n/a	n/a	n/a	n/a	n/a	n/a	n/a	n/a	n/a	n/a	n/a	n/a
1070.606	n/a	REC_START	535303	n/a	LTP274	ltpFR	14	4	n/a	n/a	n/a	n/a	n/a	n/a	n/a	0	0	0	n/a	n/a	n/a	n/a	n/a
1071.604	n/a	REC_WORD	535802	wordpools/wasnorm_wordpool_less_exclusions.txt	LTP274	ltpFR	14	4	0	LABYRINTH	791	n/a	n/a	1	n/a	0	0	0	n/a	n/a	n/a	n/a	n/a
1072.434	n/a	REC_WORD	536217	wordpools/wasnorm_wordpool_less_exclusions.txt	LTP274	ltpFR	14	4	0	CITY	314	n/a	n/a	1	n/a	0	0	0	n/a	n/a	n/a	n/a	n/a
1075.18	n/a	REC_WORD	537590	wordpools/wasnorm_wordpool_less_exclusions.txt	LTP274	ltpFR	14	4	0	COUNTRY	388	n/a	n/a	0	n/a	0	0	0	n/a	n/a	n/a	n/a	n/a
1151.48	n/a	START	575740	n/a	LTP274	ltpFR	14	n/a	n/a	n/a	n/a	n/a	n/a	n/a	n/a	n/a	n/a	n/a	n/a	n/a	n/a	n/a	n/a
1152.986	n/a	PROB	576493	n/a	LTP274	ltpFR	14	n/a	n/a	n/a	n/a	n/a	n/a	n/a	22	7	6	9	n/a	n/a	n/a	n/a	n/a
1154.708	n/a	PROB	577354	n/a	LTP274	ltpFR	14	n/a	n/a	n/a	n/a	n/a	n/a	n/a	15	5	3	7	n/a	n/a	n/a	n/a	n/a
1156.232	n/a	PROB	578116	n/a	LTP274	ltpFR	14	n/a	n/a	n/a	n/a	n/a	n/a	n/a	11	2	4	5	n/a	n/a	n/a	n/a	n/a
1157.336	n/a	PROB	578668	n/a	LTP274	ltpFR	14	n/a	n/a	n/a	n/a	n/a	n/a	n/a	17	6	7	4	n/a	n/a	n/a	n/a	n/a
1158.638	n/a	PROB	579319	n/a	LTP274	ltpFR	14	n/a	n/a	n/a	n/a	n/a	n/a	n/a	9	6	2	1	n/a	n/a	n/a	n/a	n/a
1160.832	n/a	PROB	580416	n/a	LTP274	ltpFR	14	n/a	n/a	n/a	n/a	n/a	n/a	n/a	19	7	4	8	n/a	n/a	n/a	n/a	n/a
1162.088	n/a	PROB	581044	n/a	LTP274	ltpFR	14	n/a	n/a	n/a	n/a	n/a	n/a	n/a	17	8	4	5	n/a	n/a	n/a	n/a	n/a
1163.542	n/a	PROB	581771	n/a	LTP274	ltpFR	14	n/a	n/a	n/a	n/a	n/a	n/a	n/a	8	2	1	5	n/a	n/a	n/a	n/a	n/a
1164.798	n/a	PROB	582399	n/a	LTP274	ltpFR	14	n/a	n/a	n/a	n/a	n/a	n/a	n/a	21	8	6	7	n/a	n/a	n/a	n/a	n/a
1166.206	n/a	STOP	583103	n/a	LTP274	ltpFR	14	n/a	n/a	n/a	n/a	n/a	n/a	n/a	n/a	n/a	n/a	n/a	n/a	n/a	n/a	n/a	n/a
1168.496	n/a	WORD	584248	wordpools/wasnorm_wordpool_less_exclusions.txt	LTP274	ltpFR	14	5	0	BARRACUDA	90	n/a	n/a	0	n/a	0	0	0	0.422607421875	0.5869140625	0	lower	amplitud.ttf
1171.508	n/a	START	585754	n/a	LTP274	ltpFR	14	n/a	n/a	n/a	n/a	n/a	n/a	n/a	n/a	n/a	n/a	n/a	n/a	n/a	n/a	n/a	n/a
1172.344	n/a	PROB	586172	n/a	LTP274	ltpFR	14	n/a	n/a	n/a	n/a	n/a	n/a	n/a	16	1	8	7	n/a	n/a	n/a	n/a	n/a
1174.114	n/a	PROB	587057	n/a	LTP274	ltpFR	14	n/a	n/a	n/a	n/a	n/a	n/a	n/a	18	8	3	7	n/a	n/a	n/a	n/a	n/a
1175.69	n/a	PROB	587845	n/a	LTP274	ltpFR	14	n/a	n/a	n/a	n/a	n/a	n/a	n/a	19	9	5	5	n/a	n/a	n/a	n/a	n/a
1176.794	n/a	PROB	588397	n/a	LTP274	ltpFR	14	n/a	n/a	n/a	n/a	n/a	n/a	n/a	13	4	2	7	n/a	n/a	n/a	n/a	n/a
1178.398	n/a	PROB	589199	n/a	LTP274	ltpFR	14	n/a	n/a	n/a	n/a	n/a	n/a	n/a	14	8	2	4	n/a	n/a	n/a	n/a	n/a
1179.47	n/a	PROB	589735	n/a	LTP274	ltpFR	14	n/a	n/a	n/a	n/a	n/a	n/a	n/a	21	6	6	9	n/a	n/a	n/a	n/a	n/a
1180.474	n/a	PROB	590237	n/a	LTP274	ltpFR	14	n/a	n/a	n/a	n/a	n/a	n/a	n/a	16	7	5	3	n/a	n/a	n/a	n/a	n/a
1182.148	n/a	PROB	591074	n/a	LTP274	ltpFR	14	n/a	n/a	n/a	n/a	n/a	n/a	n/a	20	9	9	2	n/a	n/a	n/a	n/a	n/a
1183.452	n/a	PROB	591726	n/a	LTP274	ltpFR	14	n/a	n/a	n/a	n/a	n/a	n/a	n/a	21	7	5	9	n/a	n/a	n/a	n/a	n/a
1185.226	n/a	PROB	592613	n/a	LTP274	ltpFR	14	n/a	n/a	n/a	n/a	n/a	n/a	n/a	17	9	3	5	n/a	n/a	n/a	n/a	n/a
1186.496	n/a	STOP	593248	n/a	LTP274	ltpFR	14	n/a	n/a	n/a	n/a	n/a	n/a	n/a	n/a	n/a	n/a	n/a	n/a	n/a	n/a	n/a	n/a
1188.572	n/a	WORD	594286	wordpools/wasnorm_wordpool_less_exclusions.txt	LTP274	ltpFR	14	5	0	HAM	678	n/a	n/a	1	n/a	0	0	0	0.422607421875	0.5869140625	0	lower	amplitud.ttf
1191.584	n/a	START	595792	n/a	LTP274	ltpFR	14	n/a	n/a	n/a	n/a	n/a	n/a	n/a	n/a	n/a	n/a	n/a	n/a	n/a	n/a	n/a	n/a
1192.52	n/a	PROB	596260	n/a	LTP274	ltpFR	14	n/a	n/a	n/a	n/a	n/a	n/a	n/a	16	6	6	4	n/a	n/a	n/a	n/a	n/a
1193.608	n/a	PROB	596804	n/a	LTP274	ltpFR	14	n/a	n/a	n/a	n/a	n/a	n/a	n/a	9	2	6	1	n/a	n/a	n/a	n/a	n/a
1194.696	n/a	PROB	597348	n/a	LTP274	ltpFR	14	n/a	n/a	n/a	n/a	n/a	n/a	n/a	11	3	2	6	n/a	n/a	n/a	n/a	n/a
1196.25	n/a	PROB	598125	n/a	LTP274	ltpFR	14	n/a	n/a	n/a	n/a	n/a	n/a	n/a	12	7	1	4	n/a	n/a	n/a	n/a	n/a
1198.458	n/a	PROB	599229	n/a	LTP274	ltpFR	14	n/a	n/a	n/a	n/a	n/a	n/a	n/a	12	4	1	7	n/a	n/a	n/a	n/a	n/a
1199.446	n/a	PROB	599723	n/a	LTP274	ltpFR	14	n/a	n/a	n/a	n/a	n/a	n/a	n/a	21	9	9	3	n/a	n/a	n/a	n/a	n/a
1200.502	n/a	PROB	600251	n/a	LTP274	ltpFR	14	n/a	n/a	n/a	n/a	n/a	n/a	n/a	16	9	5	1	n/a	n/a	n/a	n/a	n/a
1201.454	n/a	PROB	600727	n/a	LTP274	ltpFR	14	n/a	n/a	n/a	n/a	n/a	n/a	n/a	18	8	8	6	n/a	n/a	n/a	n/a	n/a
1203.312	n/a	PROB	601656	n/a	LTP274	ltpFR	14	n/a	n/a	n/a	n/a	n/a	n/a	n/a	18	2	8	8	n/a	n/a	n/a	n/a	n/a
1206.57	n/a	STOP	603285	n/a	LTP274	ltpFR	14	n/a	n/a	n/a	n/a	n/a	n/a	n/a	n/a	n/a	n/a	n/a	n/a	n/a	n/a	n/a	n/a
1208.464	n/a	WORD	604232	wordpools/wasnorm_wordpool_less_exclusions.txt	LTP274	ltpFR	14	5	0	BASSINET	97	n/a	n/a	1	n/a	0	0	0	0.422607421875	0.5869140625	0	lower	amplitud.ttf
1211.476	n/a	START	605738	n/a	LTP274	ltpFR	14	n/a	n/a	n/a	n/a	n/a	n/a	n/a	n/a	n/a	n/a	n/a	n/a	n/a	n/a	n/a	n/a
1212.528	n/a	PROB	606264	n/a	LTP274	ltpFR	14	n/a	n/a	n/a	n/a	n/a	n/a	n/a	14	9	2	3	n/a	n/a	n/a	n/a	n/a
1213.97	n/a	PROB	606985	n/a	LTP274	ltpFR	14	n/a	n/a	n/a	n/a	n/a	n/a	n/a	16	4	6	6	n/a	n/a	n/a	n/a	n/a
1215.072	n/a	PROB	607536	n/a	LTP274	ltpFR	14	n/a	n/a	n/a	n/a	n/a	n/a	n/a	11	6	3	2	n/a	n/a	n/a	n/a	n/a
1216.546	n/a	PROB	608273	n/a	LTP274	ltpFR	14	n/a	n/a	n/a	n/a	n/a	n/a	n/a	18	3	6	9	n/a	n/a	n/a	n/a	n/a
1217.682	n/a	PROB	608841	n/a	LTP274	ltpFR	14	n/a	n/a	n/a	n/a	n/a	n/a	n/a	8	2	2	4	n/a	n/a	n/a	n/a	n/a
1218.906	n/a	PROB	609453	n/a	LTP274	ltpFR	14	n/a	n/a	n/a	n/a	n/a	n/a	n/a	13	4	3	6	n/a	n/a	n/a	n/a	n/a
1220.476	n/a	PROB	610238	n/a	LTP274	ltpFR	14	n/a	n/a	n/a	n/a	n/a	n/a	n/a	17	7	6	4	n/a	n/a	n/a	n/a	n/a
1221.734	n/a	PROB	610867	n/a	LTP274	ltpFR	14	n/a	n/a	n/a	n/a	n/a	n/a	n/a	12	6	4	2	n/a	n/a	n/a	n/a	n/a
1223.338	n/a	PROB	611669	n/a	LTP274	ltpFR	14	n/a	n/a	n/a	n/a	n/a	n/a	n/a	16	6	4	6	n/a	n/a	n/a	n/a	n/a
1224.826	n/a	PROB	612413	n/a	LTP274	ltpFR	14	n/a	n/a	n/a	n/a	n/a	n/a	n/a	15	2	8	5	n/a	n/a	n/a	n/a	n/a
1226.514	n/a	STOP	613257	n/a	LTP274	ltpFR	14	n/a	n/a	n/a	n/a	n/a	n/a	n/a	n/a	n/a	n/a	n/a	n/a	n/a	n/a	n/a	n/a
1228.474	n/a	WORD	614237	wordpools/wasnorm_wordpool_less_exclusions.txt	LTP274	ltpFR	14	5	0	ROPE	1211	n/a	n/a	0	n/a	0	0	0	0.422607421875	0.5869140625	0	lower	amplitud.ttf
1231.486	n/a	START	615743	n/a	LTP274	ltpFR	14	n/a	n/a	n/a	n/a	n/a	n/a	n/a	n/a	n/a	n/a	n/a	n/a	n/a	n/a	n/a	n/a
1232.54	n/a	PROB	616270	n/a	LTP274	ltpFR	14	n/a	n/a	n/a	n/a	n/a	n/a	n/a	12	3	3	6	n/a	n/a	n/a	n/a	n/a
1234.078	n/a	PROB	617039	n/a	LTP274	ltpFR	14	n/a	n/a	n/a	n/a	n/a	n/a	n/a	12	1	8	3	n/a	n/a	n/a	n/a	n/a
1235.936	n/a	PROB	617968	n/a	LTP274	ltpFR	14	n/a	n/a	n/a	n/a	n/a	n/a	n/a	20	4	9	7	n/a	n/a	n/a	n/a	n/a
1237.66	n/a	PROB	618830	n/a	LTP274	ltpFR	14	n/a	n/a	n/a	n/a	n/a	n/a	n/a	15	3	4	8	n/a	n/a	n/a	n/a	n/a
1238.848	n/a	PROB	619424	n/a	LTP274	ltpFR	14	n/a	n/a	n/a	n/a	n/a	n/a	n/a	23	8	9	6	n/a	n/a	n/a	n/a	n/a
1240.386	n/a	PROB	620193	n/a	LTP274	ltpFR	14	n/a	n/a	n/a	n/a	n/a	n/a	n/a	12	7	3	2	n/a	n/a	n/a	n/a	n/a
1241.692	n/a	PROB	620846	n/a	LTP274	ltpFR	14	n/a	n/a	n/a	n/a	n/a	n/a	n/a	16	8	6	2	n/a	n/a	n/a	n/a	n/a
1242.864	n/a	PROB	621432	n/a	LTP274	ltpFR	14	n/a	n/a	n/a	n/a	n/a	n/a	n/a	19	5	8	6	n/a	n/a	n/a	n/a	n/a
1244.302	n/a	PROB	622151	n/a	LTP274	ltpFR	14	n/a	n/a	n/a	n/a	n/a	n/a	n/a	15	2	8	5	n/a	n/a	n/a	n/a	n/a
1245.964	n/a	STOP	622982	n/a	LTP274	ltpFR	14	n/a	n/a	n/a	n/a	n/a	n/a	n/a	n/a	n/a	n/a	n/a	n/a	n/a	n/a	n/a	n/a
1248.366	n/a	WORD	624183	wordpools/wasnorm_wordpool_less_exclusions.txt	LTP274	ltpFR	14	5	0	GIRAFFE	636	n/a	n/a	1	n/a	0	0	0	0.422607421875	0.5869140625	0	lower	amplitud.ttf
1251.38	n/a	START	625690	n/a	LTP274	ltpFR	14	n/a	n/a	n/a	n/a	n/a	n/a	n/a	n/a	n/a	n/a	n/a	n/a	n/a	n/a	n/a	n/a
1252.5	n/a	PROB	626250	n/a	LTP274	ltpFR	14	n/a	n/a	n/a	n/a	n/a	n/a	n/a	19	5	7	7	n/a	n/a	n/a	n/a	n/a
1253.772	n/a	PROB	626886	n/a	LTP274	ltpFR	14	n/a	n/a	n/a	n/a	n/a	n/a	n/a	8	1	4	3	n/a	n/a	n/a	n/a	n/a
1254.726	n/a	PROB	627363	n/a	LTP274	ltpFR	14	n/a	n/a	n/a	n/a	n/a	n/a	n/a	13	4	5	4	n/a	n/a	n/a	n/a	n/a
1256.582	n/a	PROB	628291	n/a	LTP274	ltpFR	14	n/a	n/a	n/a	n/a	n/a	n/a	n/a	15	6	1	8	n/a	n/a	n/a	n/a	n/a
1257.636	n/a	PROB	628818	n/a	LTP274	ltpFR	14	n/a	n/a	n/a	n/a	n/a	n/a	n/a	18	5	5	8	n/a	n/a	n/a	n/a	n/a
1258.708	n/a	PROB	629354	n/a	LTP274	ltpFR	14	n/a	n/a	n/a	n/a	n/a	n/a	n/a	14	9	1	4	n/a	n/a	n/a	n/a	n/a
1259.896	n/a	PROB	629948	n/a	LTP274	ltpFR	14	n/a	n/a	n/a	n/a	n/a	n/a	n/a	20	8	4	8	n/a	n/a	n/a	n/a	n/a
1261.468	n/a	PROB	630734	n/a	LTP274	ltpFR	14	n/a	n/a	n/a	n/a	n/a	n/a	n/a	10	4	5	1	n/a	n/a	n/a	n/a	n/a
1262.774	n/a	PROB	631387	n/a	LTP274	ltpFR	14	n/a	n/a	n/a	n/a	n/a	n/a	n/a	12	3	6	3	n/a	n/a	n/a	n/a	n/a
1264.46	n/a	PROB	632230	n/a	LTP274	ltpFR	14	n/a	n/a	n/a	n/a	n/a	n/a	n/a	13	5	5	3	n/a	n/a	n/a	n/a	n/a
1265.366	n/a	PROB	632683	n/a	LTP274	ltpFR	14	n/a	n/a	n/a	n/a	n/a	n/a	n/a	16	6	3	7	n/a	n/a	n/a	n/a	n/a
1266.38	n/a	STOP	633190	n/a	LTP274	ltpFR	14	n/a	n/a	n/a	n/a	n/a	n/a	n/a	n/a	n/a	n/a	n/a	n/a	n/a	n/a	n/a	n/a
1268.542	n/a	WORD	634271	wordpools/wasnorm_wordpool_less_exclusions.txt	LTP274	ltpFR	14	5	0	CART	250	n/a	n/a	1	n/a	0	0	0	0.422607421875	0.5869140625	0	lower	amplitud.ttf
1271.556	n/a	START	635778	n/a	LTP274	ltpFR	14	n/a	n/a	n/a	n/a	n/a	n/a	n/a	n/a	n/a	n/a	n/a	n/a	n/a	n/a	n/a	n/a
1272.576	n/a	PROB	636288	n/a	LTP274	ltpFR	14	n/a	n/a	n/a	n/a	n/a	n/a	n/a	15	2	8	5	n/a	n/a	n/a	n/a	n/a
1273.68	n/a	PROB	636840	n/a	LTP274	ltpFR	14	n/a	n/a	n/a	n/a	n/a	n/a	n/a	15	1	6	8	n/a	n/a	n/a	n/a	n/a
1275.27	n/a	PROB	637635	n/a	LTP274	ltpFR	14	n/a	n/a	n/a	n/a	n/a	n/a	n/a	12	4	2	6	n/a	n/a	n/a	n/a	n/a
1276.576	n/a	PROB	638288	n/a	LTP274	ltpFR	14	n/a	n/a	n/a	n/a	n/a	n/a	n/a	17	5	8	4	n/a	n/a	n/a	n/a	n/a
1278.598	n/a	PROB	639299	n/a	LTP274	ltpFR	14	n/a	n/a	n/a	n/a	n/a	n/a	n/a	14	4	5	5	n/a	n/a	n/a	n/a	n/a
1279.652	n/a	PROB	639826	n/a	LTP274	ltpFR	14	n/a	n/a	n/a	n/a	n/a	n/a	n/a	21	8	4	9	n/a	n/a	n/a	n/a	n/a
1280.842	n/a	PROB	640421	n/a	LTP274	ltpFR	14	n/a	n/a	n/a	n/a	n/a	n/a	n/a	16	4	2	9	n/a	n/a	n/a	n/a	n/a
1282.062	n/a	PROB	641031	n/a	LTP274	ltpFR	14	n/a	n/a	n/a	n/a	n/a	n/a	n/a	19	5	5	9	n/a	n/a	n/a	n/a	n/a
1283.368	n/a	PROB	641684	n/a	LTP274	ltpFR	14	n/a	n/a	n/a	n/a	n/a	n/a	n/a	11	2	7	2	n/a	n/a	n/a	n/a	n/a
1284.724	n/a	PROB	642362	n/a	LTP274	ltpFR	14	n/a	n/a	n/a	n/a	n/a	n/a	n/a	12	2	6	4	n/a	n/a	n/a	n/a	n/a
1285.944	n/a	PROB	642972	n/a	LTP274	ltpFR	14	n/a	n/a	n/a	n/a	n/a	n/a	n/a	17	7	8	2	n/a	n/a	n/a	n/a	n/a
1287.302	n/a	STOP	643651	n/a	LTP274	ltpFR	14	n/a	n/a	n/a	n/a	n/a	n/a	n/a	n/a	n/a	n/a	n/a	n/a	n/a	n/a	n/a	n/a
1288.62	n/a	WORD	644310	wordpools/wasnorm_wordpool_less_exclusions.txt	LTP274	ltpFR	14	5	1	MOTH	920	n/a	n/a	1	n/a	0	0	0	0.57763671875	0.412841796875	1	upper	zerothre.ttf
1291.632	n/a	START	645816	n/a	LTP274	ltpFR	14	n/a	n/a	n/a	n/a	n/a	n/a	n/a	n/a	n/a	n/a	n/a	n/a	n/a	n/a	n/a	n/a
1292.466	n/a	PROB	646233	n/a	LTP274	ltpFR	14	n/a	n/a	n/a	n/a	n/a	n/a	n/a	12	7	3	2	n/a	n/a	n/a	n/a	n/a
1293.908	n/a	PROB	646954	n/a	LTP274	ltpFR	14	n/a	n/a	n/a	n/a	n/a	n/a	n/a	14	5	3	4	n/a	n/a	n/a	n/a	n/a
1296.084	n/a	PROB	648042	n/a	LTP274	ltpFR	14	n/a	n/a	n/a	n/a	n/a	n/a	n/a	10	1	2	7	n/a	n/a	n/a	n/a	n/a
1298.812	n/a	PROB	649406	n/a	LTP274	ltpFR	14	n/a	n/a	n/a	n/a	n/a	n/a	n/a	12	1	6	5	n/a	n/a	n/a	n/a	n/a
1299.898	n/a	PROB	649949	n/a	LTP274	ltpFR	14	n/a	n/a	n/a	n/a	n/a	n/a	n/a	12	7	3	2	n/a	n/a	n/a	n/a	n/a
1301.454	n/a	PROB	650727	n/a	LTP274	ltpFR	14	n/a	n/a	n/a	n/a	n/a	n/a	n/a	15	2	7	6	n/a	n/a	n/a	n/a	n/a
1302.876	n/a	PROB	651438	n/a	LTP274	ltpFR	14	n/a	n/a	n/a	n/a	n/a	n/a	n/a	20	9	6	5	n/a	n/a	n/a	n/a	n/a
1304.548	n/a	PROB	652274	n/a	LTP274	ltpFR	14	n/a	n/a	n/a	n/a	n/a	n/a	n/a	17	7	4	6	n/a	n/a	n/a	n/a	n/a
1305.972	n/a	PROB	652986	n/a	LTP274	ltpFR	14	n/a	n/a	n/a	n/a	n/a	n/a	n/a	15	7	2	4	n/a	n/a	n/a	n/a	n/a
1307.462	n/a	STOP	653731	n/a	LTP274	ltpFR	14	n/a	n/a	n/a	n/a	n/a	n/a	n/a	n/a	n/a	n/a	n/a	n/a	n/a	n/a	n/a	n/a
1308.832	n/a	WORD	654416	wordpools/wasnorm_wordpool_less_exclusions.txt	LTP274	ltpFR	14	5	1	GRASSHOPPER	656	n/a	n/a	1	n/a	0	0	0	0.57763671875	0.412841796875	1	upper	zerothre.ttf
1311.844	n/a	START	655922	n/a	LTP274	ltpFR	14	n/a	n/a	n/a	n/a	n/a	n/a	n/a	n/a	n/a	n/a	n/a	n/a	n/a	n/a	n/a	n/a
1313.016	n/a	PROB	656508	n/a	LTP274	ltpFR	14	n/a	n/a	n/a	n/a	n/a	n/a	n/a	15	6	8	1	n/a	n/a	n/a	n/a	n/a
1313.968	n/a	PROB	656984	n/a	LTP274	ltpFR	14	n/a	n/a	n/a	n/a	n/a	n/a	n/a	15	9	4	2	n/a	n/a	n/a	n/a	n/a
1315.072	n/a	PROB	657536	n/a	LTP274	ltpFR	14	n/a	n/a	n/a	n/a	n/a	n/a	n/a	15	8	4	3	n/a	n/a	n/a	n/a	n/a
1316.948	n/a	PROB	658474	n/a	LTP274	ltpFR	14	n/a	n/a	n/a	n/a	n/a	n/a	n/a	6	1	3	2	n/a	n/a	n/a	n/a	n/a
1317.868	n/a	PROB	658934	n/a	LTP274	ltpFR	14	n/a	n/a	n/a	n/a	n/a	n/a	n/a	10	2	7	1	n/a	n/a	n/a	n/a	n/a
1319.64	n/a	PROB	659820	n/a	LTP274	ltpFR	14	n/a	n/a	n/a	n/a	n/a	n/a	n/a	18	8	3	7	n/a	n/a	n/a	n/a	n/a
1321.076	n/a	PROB	660538	n/a	LTP274	ltpFR	14	n/a	n/a	n/a	n/a	n/a	n/a	n/a	12	3	1	9	n/a	n/a	n/a	n/a	n/a
1322.6	n/a	PROB	661300	n/a	LTP274	ltpFR	14	n/a	n/a	n/a	n/a	n/a	n/a	n/a	22	6	7	9	n/a	n/a	n/a	n/a	n/a
1324.056	n/a	PROB	662028	n/a	LTP274	ltpFR	14	n/a	n/a	n/a	n/a	n/a	n/a	n/a	16	9	1	6	n/a	n/a	n/a	n/a	n/a
1325.226	n/a	PROB	662613	n/a	LTP274	ltpFR	14	n/a	n/a	n/a	n/a	n/a	n/a	n/a	14	2	3	9	n/a	n/a	n/a	n/a	n/a
1326.832	n/a	STOP	663416	n/a	LTP274	ltpFR	14	n/a	n/a	n/a	n/a	n/a	n/a	n/a	n/a	n/a	n/a	n/a	n/a	n/a	n/a	n/a	n/a
1328.774	n/a	WORD	664387	wordpools/wasnorm_wordpool_less_exclusions.txt	LTP274	ltpFR	14	5	0	OMELET	976	n/a	n/a	1	n/a	0	0	0	0.422607421875	0.5869140625	0	lower	amplitud.ttf
1331.788	n/a	START	665894	n/a	LTP274	ltpFR	14	n/a	n/a	n/a	n/a	n/a	n/a	n/a	n/a	n/a	n/a	n/a	n/a	n/a	n/a	n/a	n/a
1332.992	n/a	PROB	666496	n/a	LTP274	ltpFR	14	n/a	n/a	n/a	n/a	n/a	n/a	n/a	7	3	1	3	n/a	n/a	n/a	n/a	n/a
1335.048	n/a	PROB	667524	n/a	LTP274	ltpFR	14	n/a	n/a	n/a	n/a	n/a	n/a	n/a	11	7	1	3	n/a	n/a	n/a	n/a	n/a
1336.906	n/a	PROB	668453	n/a	LTP274	ltpFR	14	n/a	n/a	n/a	n/a	n/a	n/a	n/a	7	2	4	1	n/a	n/a	n/a	n/a	n/a
1338.058	n/a	PROB	669029	n/a	LTP274	ltpFR	14	n/a	n/a	n/a	n/a	n/a	n/a	n/a	12	9	1	2	n/a	n/a	n/a	n/a	n/a
1339.046	n/a	PROB	669523	n/a	LTP274	ltpFR	14	n/a	n/a	n/a	n/a	n/a	n/a	n/a	13	8	4	1	n/a	n/a	n/a	n/a	n/a
1340.252	n/a	PROB	670126	n/a	LTP274	ltpFR	14	n/a	n/a	n/a	n/a	n/a	n/a	n/a	18	5	6	7	n/a	n/a	n/a	n/a	n/a
1341.808	n/a	PROB	670904	n/a	LTP274	ltpFR	14	n/a	n/a	n/a	n/a	n/a	n/a	n/a	12	4	6	2	n/a	n/a	n/a	n/a	n/a
1343.246	n/a	PROB	671623	n/a	LTP274	ltpFR	14	n/a	n/a	n/a	n/a	n/a	n/a	n/a	11	4	3	4	n/a	n/a	n/a	n/a	n/a
1344.618	n/a	PROB	672309	n/a	LTP274	ltpFR	14	n/a	n/a	n/a	n/a	n/a	n/a	n/a	16	4	6	6	n/a	n/a	n/a	n/a	n/a
1346.09	n/a	PROB	673045	n/a	LTP274	ltpFR	14	n/a	n/a	n/a	n/a	n/a	n/a	n/a	15	5	2	7	n/a	n/a	n/a	n/a	n/a
1347.4	n/a	STOP	673700	n/a	LTP274	ltpFR	14	n/a	n/a	n/a	n/a	n/a	n/a	n/a	n/a	n/a	n/a	n/a	n/a	n/a	n/a	n/a	n/a
1348.634	n/a	WORD	674317	wordpools/wasnorm_wordpool_less_exclusions.txt	LTP274	ltpFR	14	5	0	POWDER	1117	n/a	n/a	0	n/a	0	0	0	0.422607421875	0.5869140625	0	lower	amplitud.ttf
1351.646	n/a	START	675823	n/a	LTP274	ltpFR	14	n/a	n/a	n/a	n/a	n/a	n/a	n/a	n/a	n/a	n/a	n/a	n/a	n/a	n/a	n/a	n/a
1352.464	n/a	PROB	676232	n/a	LTP274	ltpFR	14	n/a	n/a	n/a	n/a	n/a	n/a	n/a	17	4	5	8	n/a	n/a	n/a	n/a	n/a
1354.27	n/a	PROB	677135	n/a	LTP274	ltpFR	14	n/a	n/a	n/a	n/a	n/a	n/a	n/a	13	4	1	8	n/a	n/a	n/a	n/a	n/a
1355.46	n/a	PROB	677730	n/a	LTP274	ltpFR	14	n/a	n/a	n/a	n/a	n/a	n/a	n/a	15	2	7	6	n/a	n/a	n/a	n/a	n/a
1356.798	n/a	PROB	678399	n/a	LTP274	ltpFR	14	n/a	n/a	n/a	n/a	n/a	n/a	n/a	15	9	1	5	n/a	n/a	n/a	n/a	n/a
1357.854	n/a	PROB	678927	n/a	LTP274	ltpFR	14	n/a	n/a	n/a	n/a	n/a	n/a	n/a	13	1	7	5	n/a	n/a	n/a	n/a	n/a
1360.426	n/a	PROB	680213	n/a	LTP274	ltpFR	14	n/a	n/a	n/a	n/a	n/a	n/a	n/a	13	1	7	5	n/a	n/a	n/a	n/a	n/a
1361.5	n/a	PROB	680750	n/a	LTP274	ltpFR	14	n/a	n/a	n/a	n/a	n/a	n/a	n/a	23	7	7	9	n/a	n/a	n/a	n/a	n/a
1364.41	n/a	PROB	682205	n/a	LTP274	ltpFR	14	n/a	n/a	n/a	n/a	n/a	n/a	n/a	10	4	4	2	n/a	n/a	n/a	n/a	n/a
1365.414	n/a	PROB	682707	n/a	LTP274	ltpFR	14	n/a	n/a	n/a	n/a	n/a	n/a	n/a	15	4	9	2	n/a	n/a	n/a	n/a	n/a
1366.546	n/a	STOP	683273	n/a	LTP274	ltpFR	14	n/a	n/a	n/a	n/a	n/a	n/a	n/a	n/a	n/a	n/a	n/a	n/a	n/a	n/a	n/a	n/a
1368.862	n/a	WORD	684431	wordpools/wasnorm_wordpool_less_exclusions.txt	LTP274	ltpFR	14	5	1	STREAM	1392	n/a	n/a	1	n/a	0	0	0	0.57763671875	0.412841796875	1	upper	zerothre.ttf
1371.874	n/a	START	685937	n/a	LTP274	ltpFR	14	n/a	n/a	n/a	n/a	n/a	n/a	n/a	n/a	n/a	n/a	n/a	n/a	n/a	n/a	n/a	n/a
1372.778	n/a	PROB	686389	n/a	LTP274	ltpFR	14	n/a	n/a	n/a	n/a	n/a	n/a	n/a	22	9	8	5	n/a	n/a	n/a	n/a	n/a
1374.332	n/a	PROB	687166	n/a	LTP274	ltpFR	14	n/a	n/a	n/a	n/a	n/a	n/a	n/a	15	4	5	6	n/a	n/a	n/a	n/a	n/a
1375.486	n/a	PROB	687743	n/a	LTP274	ltpFR	14	n/a	n/a	n/a	n/a	n/a	n/a	n/a	14	1	9	4	n/a	n/a	n/a	n/a	n/a
1376.926	n/a	PROB	688463	n/a	LTP274	ltpFR	14	n/a	n/a	n/a	n/a	n/a	n/a	n/a	8	1	6	1	n/a	n/a	n/a	n/a	n/a
1377.944	n/a	PROB	688972	n/a	LTP274	ltpFR	14	n/a	n/a	n/a	n/a	n/a	n/a	n/a	21	5	9	7	n/a	n/a	n/a	n/a	n/a
1379.754	n/a	PROB	689877	n/a	LTP274	ltpFR	14	n/a	n/a	n/a	n/a	n/a	n/a	n/a	17	4	4	9	n/a	n/a	n/a	n/a	n/a
1381.274	n/a	PROB	690637	n/a	LTP274	ltpFR	14	n/a	n/a	n/a	n/a	n/a	n/a	n/a	19	8	7	4	n/a	n/a	n/a	n/a	n/a
1382.496	n/a	PROB	691248	n/a	LTP274	ltpFR	14	n/a	n/a	n/a	n/a	n/a	n/a	n/a	17	5	4	8	n/a	n/a	n/a	n/a	n/a
1383.852	n/a	PROB	691926	n/a	LTP274	ltpFR	14	n/a	n/a	n/a	n/a	n/a	n/a	n/a	19	6	7	6	n/a	n/a	n/a	n/a	n/a
1385.39	n/a	PROB	692695	n/a	LTP274	ltpFR	14	n/a	n/a	n/a	n/a	n/a	n/a	n/a	14	4	8	6	n/a	n/a	n/a	n/a	n/a
1386.562	n/a	STOP	693281	n/a	LTP274	ltpFR	14	n/a	n/a	n/a	n/a	n/a	n/a	n/a	n/a	n/a	n/a	n/a	n/a	n/a	n/a	n/a	n/a
1388.872	n/a	WORD	694436	wordpools/wasnorm_wordpool_less_exclusions.txt	LTP274	ltpFR	14	5	1	HELICOPTER	701	n/a	n/a	0	n/a	0	0	0	0.57763671875	0.412841796875	1	upper	zerothre.ttf
1391.884	n/a	START	695942	n/a	LTP274	ltpFR	14	n/a	n/a	n/a	n/a	n/a	n/a	n/a	n/a	n/a	n/a	n/a	n/a	n/a	n/a	n/a	n/a
1392.77	n/a	PROB	696385	n/a	LTP274	ltpFR	14	n/a	n/a	n/a	n/a	n/a	n/a	n/a	22	5	9	8	n/a	n/a	n/a	n/a	n/a
1394.04	n/a	PROB	697020	n/a	LTP274	ltpFR	14	n/a	n/a	n/a	n/a	n/a	n/a	n/a	17	8	8	1	n/a	n/a	n/a	n/a	n/a
1395.38	n/a	PROB	697690	n/a	LTP274	ltpFR	14	n/a	n/a	n/a	n/a	n/a	n/a	n/a	19	3	8	8	n/a	n/a	n/a	n/a	n/a
1396.818	n/a	PROB	698409	n/a	LTP274	ltpFR	14	n/a	n/a	n/a	n/a	n/a	n/a	n/a	15	4	4	7	n/a	n/a	n/a	n/a	n/a
1398.324	n/a	PROB	699162	n/a	LTP274	ltpFR	14	n/a	n/a	n/a	n/a	n/a	n/a	n/a	14	8	5	1	n/a	n/a	n/a	n/a	n/a
1399.576	n/a	PROB	699788	n/a	LTP274	ltpFR	14	n/a	n/a	n/a	n/a	n/a	n/a	n/a	15	7	2	5	n/a	n/a	n/a	n/a	n/a
1401.15	n/a	PROB	700575	n/a	LTP274	ltpFR	14	n/a	n/a	n/a	n/a	n/a	n/a	n/a	10	1	5	4	n/a	n/a	n/a	n/a	n/a
1402.454	n/a	PROB	701227	n/a	LTP274	ltpFR	14	n/a	n/a	n/a	n/a	n/a	n/a	n/a	13	4	2	7	n/a	n/a	n/a	n/a	n/a
1405.18	n/a	PROB	702590	n/a	LTP274	ltpFR	14	n/a	n/a	n/a	n/a	n/a	n/a	n/a	9	3	1	5	n/a	n/a	n/a	n/a	n/a
1406.22	n/a	PROB	703110	n/a	LTP274	ltpFR	14	n/a	n/a	n/a	n/a	n/a	n/a	n/a	21	9	3	9	n/a	n/a	n/a	n/a	n/a
1407.316	n/a	STOP	703658	n/a	LTP274	ltpFR	14	n/a	n/a	n/a	n/a	n/a	n/a	n/a	n/a	n/a	n/a	n/a	n/a	n/a	n/a	n/a	n/a
1408.966	n/a	WORD	704483	wordpools/wasnorm_wordpool_less_exclusions.txt	LTP274	ltpFR	14	5	1	DUSTPAN	509	n/a	n/a	0	n/a	0	0	0	0.57763671875	0.412841796875	1	upper	zerothre.ttf
1411.978	n/a	START	705989	n/a	LTP274	ltpFR	14	n/a	n/a	n/a	n/a	n/a	n/a	n/a	n/a	n/a	n/a	n/a	n/a	n/a	n/a	n/a	n/a
1413.18	n/a	PROB	706590	n/a	LTP274	ltpFR	14	n/a	n/a	n/a	n/a	n/a	n/a	n/a	13	1	8	4	n/a	n/a	n/a	n/a	n/a
1414.05	n/a	PROB	707025	n/a	LTP274	ltpFR	14	n/a	n/a	n/a	n/a	n/a	n/a	n/a	10	5	4	1	n/a	n/a	n/a	n/a	n/a
1415.088	n/a	PROB	707544	n/a	LTP274	ltpFR	14	n/a	n/a	n/a	n/a	n/a	n/a	n/a	1	9	1	3	n/a	n/a	n/a	n/a	n/a
1416.108	n/a	PROB	708054	n/a	LTP274	ltpFR	14	n/a	n/a	n/a	n/a	n/a	n/a	n/a	11	3	6	2	n/a	n/a	n/a	n/a	n/a
1417.614	n/a	PROB	708807	n/a	LTP274	ltpFR	14	n/a	n/a	n/a	n/a	n/a	n/a	n/a	15	7	5	3	n/a	n/a	n/a	n/a	n/a
1418.65	n/a	PROB	709325	n/a	LTP274	ltpFR	14	n/a	n/a	n/a	n/a	n/a	n/a	n/a	17	6	5	6	n/a	n/a	n/a	n/a	n/a
1420.472	n/a	PROB	710236	n/a	LTP274	ltpFR	14	n/a	n/a	n/a	n/a	n/a	n/a	n/a	13	6	2	5	n/a	n/a	n/a	n/a	n/a
1421.612	n/a	PROB	710806	n/a	LTP274	ltpFR	14	n/a	n/a	n/a	n/a	n/a	n/a	n/a	9	4	4	1	n/a	n/a	n/a	n/a	n/a
1422.616	n/a	PROB	711308	n/a	LTP274	ltpFR	14	n/a	n/a	n/a	n/a	n/a	n/a	n/a	21	3	9	9	n/a	n/a	n/a	n/a	n/a
1423.772	n/a	PROB	711886	n/a	LTP274	ltpFR	14	n/a	n/a	n/a	n/a	n/a	n/a	n/a	9	5	1	3	n/a	n/a	n/a	n/a	n/a
1424.94	n/a	PROB	712470	n/a	LTP274	ltpFR	14	n/a	n/a	n/a	n/a	n/a	n/a	n/a	16	7	4	5	n/a	n/a	n/a	n/a	n/a
1426.462	n/a	STOP	713231	n/a	LTP274	ltpFR	14	n/a	n/a	n/a	n/a	n/a	n/a	n/a	n/a	n/a	n/a	n/a	n/a	n/a	n/a	n/a	n/a
1428.976	n/a	WORD	714488	wordpools/wasnorm_wordpool_less_exclusions.txt	LTP274	ltpFR	14	5	1	SAND	1230	n/a	n/a	0	n/a	0	0	0	0.57763671875	0.412841796875	1	upper	zerothre.ttf
1431.988	n/a	START	715994	n/a	LTP274	ltpFR	14	n/a	n/a	n/a	n/a	n/a	n/a	n/a	n/a	n/a	n/a	n/a	n/a	n/a	n/a	n/a	n/a
1432.824	n/a	PROB	716412	n/a	LTP274	ltpFR	14	n/a	n/a	n/a	n/a	n/a	n/a	n/a	22	4	9	9	n/a	n/a	n/a	n/a	n/a
1434.294	n/a	PROB	717147	n/a	LTP274	ltpFR	14	n/a	n/a	n/a	n/a	n/a	n/a	n/a	9	1	6	2	n/a	n/a	n/a	n/a	n/a
1435.448	n/a	PROB	717724	n/a	LTP274	ltpFR	14	n/a	n/a	n/a	n/a	n/a	n/a	n/a	19	7	9	3	n/a	n/a	n/a	n/a	n/a
1437.072	n/a	PROB	718536	n/a	LTP274	ltpFR	14	n/a	n/a	n/a	n/a	n/a	n/a	n/a	19	9	5	5	n/a	n/a	n/a	n/a	n/a
1438.276	n/a	PROB	719138	n/a	LTP274	ltpFR	14	n/a	n/a	n/a	n/a	n/a	n/a	n/a	8	1	3	4	n/a	n/a	n/a	n/a	n/a
1439.662	n/a	PROB	719831	n/a	LTP274	ltpFR	14	n/a	n/a	n/a	n/a	n/a	n/a	n/a	13	3	2	8	n/a	n/a	n/a	n/a	n/a
1440.854	n/a	PROB	720427	n/a	LTP274	ltpFR	14	n/a	n/a	n/a	n/a	n/a	n/a	n/a	20	3	9	8	n/a	n/a	n/a	n/a	n/a
1442.324	n/a	PROB	721162	n/a	LTP274	ltpFR	14	n/a	n/a	n/a	n/a	n/a	n/a	n/a	17	2	6	9	n/a	n/a	n/a	n/a	n/a
1443.696	n/a	PROB	721848	n/a	LTP274	ltpFR	14	n/a	n/a	n/a	n/a	n/a	n/a	n/a	11	6	3	2	n/a	n/a	n/a	n/a	n/a
1445.186	n/a	PROB	722593	n/a	LTP274	ltpFR	14	n/a	n/a	n/a	n/a	n/a	n/a	n/a	15	6	8	1	n/a	n/a	n/a	n/a	n/a
1446.206	n/a	PROB	723103	n/a	LTP274	ltpFR	14	n/a	n/a	n/a	n/a	n/a	n/a	n/a	14	8	5	1	n/a	n/a	n/a	n/a	n/a
1447.502	n/a	STOP	723751	n/a	LTP274	ltpFR	14	n/a	n/a	n/a	n/a	n/a	n/a	n/a	n/a	n/a	n/a	n/a	n/a	n/a	n/a	n/a	n/a
1449.068	n/a	WORD	724534	wordpools/wasnorm_wordpool_less_exclusions.txt	LTP274	ltpFR	14	5	1	JUGGLER	763	n/a	n/a	1	n/a	0	0	0	0.57763671875	0.412841796875	1	upper	zerothre.ttf
1452.08	n/a	START	726040	n/a	LTP274	ltpFR	14	n/a	n/a	n/a	n/a	n/a	n/a	n/a	n/a	n/a	n/a	n/a	n/a	n/a	n/a	n/a	n/a
1452.916	n/a	PROB	726458	n/a	LTP274	ltpFR	14	n/a	n/a	n/a	n/a	n/a	n/a	n/a	14	5	8	1	n/a	n/a	n/a	n/a	n/a
1454.07	n/a	PROB	727035	n/a	LTP274	ltpFR	14	n/a	n/a	n/a	n/a	n/a	n/a	n/a	9	4	4	1	n/a	n/a	n/a	n/a	n/a
1455.072	n/a	PROB	727536	n/a	LTP274	ltpFR	14	n/a	n/a	n/a	n/a	n/a	n/a	n/a	7	4	2	1	n/a	n/a	n/a	n/a	n/a
1456.562	n/a	PROB	728281	n/a	LTP274	ltpFR	14	n/a	n/a	n/a	n/a	n/a	n/a	n/a	22	7	6	9	n/a	n/a	n/a	n/a	n/a
1458.772	n/a	PROB	729386	n/a	LTP274	ltpFR	14	n/a	n/a	n/a	n/a	n/a	n/a	n/a	169	6	5	8	n/a	n/a	n/a	n/a	n/a
1460.008	n/a	PROB	730004	n/a	LTP274	ltpFR	14	n/a	n/a	n/a	n/a	n/a	n/a	n/a	20	7	7	6	n/a	n/a	n/a	n/a	n/a
1461.398	n/a	PROB	730699	n/a	LTP274	ltpFR	14	n/a	n/a	n/a	n/a	n/a	n/a	n/a	15	1	9	5	n/a	n/a	n/a	n/a	n/a
1462.518	n/a	PROB	731259	n/a	LTP274	ltpFR	14	n/a	n/a	n/a	n/a	n/a	n/a	n/a	21	6	8	7	n/a	n/a	n/a	n/a	n/a
1464.474	n/a	PROB	732237	n/a	LTP274	ltpFR	14	n/a	n/a	n/a	n/a	n/a	n/a	n/a	20	7	5	8	n/a	n/a	n/a	n/a	n/a
1465.848	n/a	PROB	732924	n/a	LTP274	ltpFR	14	n/a	n/a	n/a	n/a	n/a	n/a	n/a	17	7	6	4	n/a	n/a	n/a	n/a	n/a
1466.96	n/a	STOP	733480	n/a	LTP274	ltpFR	14	n/a	n/a	n/a	n/a	n/a	n/a	n/a	n/a	n/a	n/a	n/a	n/a	n/a	n/a	n/a	n/a
1468.994	n/a	WORD	734497	wordpools/wasnorm_wordpool_less_exclusions.txt	LTP274	ltpFR	14	5	1	ACROBAT	4	n/a	n/a	1	n/a	0	0	0	0.57763671875	0.412841796875	1	upper	zerothre.ttf
1472.006	n/a	START	736003	n/a	LTP274	ltpFR	14	n/a	n/a	n/a	n/a	n/a	n/a	n/a	n/a	n/a	n/a	n/a	n/a	n/a	n/a	n/a	n/a
1473.01	n/a	PROB	736505	n/a	LTP274	ltpFR	14	n/a	n/a	n/a	n/a	n/a	n/a	n/a	13	8	3	2	n/a	n/a	n/a	n/a	n/a
1474.23	n/a	PROB	737115	n/a	LTP274	ltpFR	14	n/a	n/a	n/a	n/a	n/a	n/a	n/a	26	8	9	9	n/a	n/a	n/a	n/a	n/a
1475.736	n/a	PROB	737868	n/a	LTP274	ltpFR	14	n/a	n/a	n/a	n/a	n/a	n/a	n/a	18	9	2	7	n/a	n/a	n/a	n/a	n/a
1477.074	n/a	PROB	738537	n/a	LTP274	ltpFR	14	n/a	n/a	n/a	n/a	n/a	n/a	n/a	13	2	8	3	n/a	n/a	n/a	n/a	n/a
1478.176	n/a	PROB	739088	n/a	LTP274	ltpFR	14	n/a	n/a	n/a	n/a	n/a	n/a	n/a	1	2	5	6	n/a	n/a	n/a	n/a	n/a
1479.264	n/a	PROB	739632	n/a	LTP274	ltpFR	14	n/a	n/a	n/a	n/a	n/a	n/a	n/a	23	8	6	9	n/a	n/a	n/a	n/a	n/a
1481.658	n/a	PROB	740829	n/a	LTP274	ltpFR	14	n/a	n/a	n/a	n/a	n/a	n/a	n/a	21	9	8	4	n/a	n/a	n/a	n/a	n/a
1482.814	n/a	PROB	741407	n/a	LTP274	ltpFR	14	n/a	n/a	n/a	n/a	n/a	n/a	n/a	18	9	5	4	n/a	n/a	n/a	n/a	n/a
1484.418	n/a	PROB	742209	n/a	LTP274	ltpFR	14	n/a	n/a	n/a	n/a	n/a	n/a	n/a	19	7	7	5	n/a	n/a	n/a	n/a	n/a
1485.624	n/a	PROB	742812	n/a	LTP274	ltpFR	14	n/a	n/a	n/a	n/a	n/a	n/a	n/a	16	2	8	6	n/a	n/a	n/a	n/a	n/a
1486.722	n/a	STOP	743361	n/a	LTP274	ltpFR	14	n/a	n/a	n/a	n/a	n/a	n/a	n/a	n/a	n/a	n/a	n/a	n/a	n/a	n/a	n/a	n/a
1489.858	n/a	REC_START	744929	n/a	LTP274	ltpFR	14	5	n/a	n/a	n/a	n/a	n/a	n/a	n/a	0	0	0	n/a	n/a	n/a	n/a	n/a
1493.194	n/a	REC_WORD	746597	wordpools/wasnorm_wordpool_less_exclusions.txt	LTP274	ltpFR	14	5	1	ACROBAT	4	n/a	n/a	1	n/a	0	0	0	n/a	n/a	n/a	n/a	n/a
1494.366	n/a	REC_WORD	747183	wordpools/wasnorm_wordpool_less_exclusions.txt	LTP274	ltpFR	14	5	1	JUGGLER	763	n/a	n/a	1	n/a	0	0	0	n/a	n/a	n/a	n/a	n/a
1495.35	n/a	REC_WORD	747675	wordpools/wasnorm_wordpool_less_exclusions.txt	LTP274	ltpFR	14	5	1	STREAM	1392	n/a	n/a	1	n/a	0	0	0	n/a	n/a	n/a	n/a	n/a
1502.666	n/a	REC_WORD	751333	wordpools/wasnorm_wordpool_less_exclusions.txt	LTP274	ltpFR	14	5	1	GRASSHOPPER	656	n/a	n/a	1	n/a	0	0	0	n/a	n/a	n/a	n/a	n/a
1504.348	n/a	REC_WORD	752174	wordpools/wasnorm_wordpool_less_exclusions.txt	LTP274	ltpFR	14	5	1	MOTH	920	n/a	n/a	1	n/a	0	0	0	n/a	n/a	n/a	n/a	n/a
1576.974	n/a	START	788487	n/a	LTP274	ltpFR	14	n/a	n/a	n/a	n/a	n/a	n/a	n/a	n/a	n/a	n/a	n/a	n/a	n/a	n/a	n/a	n/a
1578.478	n/a	PROB	789239	n/a	LTP274	ltpFR	14	n/a	n/a	n/a	n/a	n/a	n/a	n/a	5	2	1	2	n/a	n/a	n/a	n/a	n/a
1579.718	n/a	PROB	789859	n/a	LTP274	ltpFR	14	n/a	n/a	n/a	n/a	n/a	n/a	n/a	15	9	3	3	n/a	n/a	n/a	n/a	n/a
1581.572	n/a	PROB	790786	n/a	LTP274	ltpFR	14	n/a	n/a	n/a	n/a	n/a	n/a	n/a	12	2	1	9	n/a	n/a	n/a	n/a	n/a
1582.964	n/a	PROB	791482	n/a	LTP274	ltpFR	14	n/a	n/a	n/a	n/a	n/a	n/a	n/a	20	9	5	6	n/a	n/a	n/a	n/a	n/a
1584.75	n/a	STOP	792375	n/a	LTP274	ltpFR	14	n/a	n/a	n/a	n/a	n/a	n/a	n/a	n/a	n/a	n/a	n/a	n/a	n/a	n/a	n/a	n/a
1586.142	n/a	WORD	793071	wordpools/wasnorm_wordpool_less_exclusions.txt	LTP274	ltpFR	14	6	1	SHOVEL	1295	n/a	n/a	0	n/a	0	0	0	0.57763671875	0.412841796875	1	upper	zerothre.ttf
1589.154	n/a	START	794577	n/a	LTP274	ltpFR	14	n/a	n/a	n/a	n/a	n/a	n/a	n/a	n/a	n/a	n/a	n/a	n/a	n/a	n/a	n/a	n/a
1590.156	n/a	PROB	795078	n/a	LTP274	ltpFR	14	n/a	n/a	n/a	n/a	n/a	n/a	n/a	17	8	6	3	n/a	n/a	n/a	n/a	n/a
1592.128	n/a	PROB	796064	n/a	LTP274	ltpFR	14	n/a	n/a	n/a	n/a	n/a	n/a	n/a	20	7	9	4	n/a	n/a	n/a	n/a	n/a
1593.418	n/a	PROB	796709	n/a	LTP274	ltpFR	14	n/a	n/a	n/a	n/a	n/a	n/a	n/a	22	7	7	8	n/a	n/a	n/a	n/a	n/a
1595.026	n/a	PROB	797513	n/a	LTP274	ltpFR	14	n/a	n/a	n/a	n/a	n/a	n/a	n/a	8	1	5	2	n/a	n/a	n/a	n/a	n/a
1595.942	n/a	STOP	797971	n/a	LTP274	ltpFR	14	n/a	n/a	n/a	n/a	n/a	n/a	n/a	n/a	n/a	n/a	n/a	n/a	n/a	n/a	n/a	n/a
1598.388	n/a	WORD	799194	wordpools/wasnorm_wordpool_less_exclusions.txt	LTP274	ltpFR	14	6	1	DIGGER	464	n/a	n/a	1	n/a	0	0	0	0.57763671875	0.412841796875	1	upper	zerothre.ttf
1601.4	n/a	START	800700	n/a	LTP274	ltpFR	14	n/a	n/a	n/a	n/a	n/a	n/a	n/a	n/a	n/a	n/a	n/a	n/a	n/a	n/a	n/a	n/a
1602.27	n/a	PROB	801135	n/a	LTP274	ltpFR	14	n/a	n/a	n/a	n/a	n/a	n/a	n/a	13	1	8	4	n/a	n/a	n/a	n/a	n/a
1603.288	n/a	PROB	801644	n/a	LTP274	ltpFR	14	n/a	n/a	n/a	n/a	n/a	n/a	n/a	15	1	8	5	n/a	n/a	n/a	n/a	n/a
1604.562	n/a	PROB	802281	n/a	LTP274	ltpFR	14	n/a	n/a	n/a	n/a	n/a	n/a	n/a	18	2	7	9	n/a	n/a	n/a	n/a	n/a
1606.318	n/a	PROB	803159	n/a	LTP274	ltpFR	14	n/a	n/a	n/a	n/a	n/a	n/a	n/a	10	1	1	8	n/a	n/a	n/a	n/a	n/a
1607.44	n/a	PROB	803720	n/a	LTP274	ltpFR	14	n/a	n/a	n/a	n/a	n/a	n/a	n/a	8	5	2	1	n/a	n/a	n/a	n/a	n/a
1608.19	n/a	STOP	804095	n/a	LTP274	ltpFR	14	n/a	n/a	n/a	n/a	n/a	n/a	n/a	n/a	n/a	n/a	n/a	n/a	n/a	n/a	n/a	n/a
1610.602	n/a	WORD	805301	wordpools/wasnorm_wordpool_less_exclusions.txt	LTP274	ltpFR	14	6	1	WAITRESS	1581	n/a	n/a	1	n/a	0	0	0	0.57763671875	0.412841796875	1	upper	zerothre.ttf
1613.614	n/a	START	806807	n/a	LTP274	ltpFR	14	n/a	n/a	n/a	n/a	n/a	n/a	n/a	n/a	n/a	n/a	n/a	n/a	n/a	n/a	n/a	n/a
1614.582	n/a	PROB	807291	n/a	LTP274	ltpFR	14	n/a	n/a	n/a	n/a	n/a	n/a	n/a	18	5	7	6	n/a	n/a	n/a	n/a	n/a
1615.988	n/a	PROB	807994	n/a	LTP274	ltpFR	14	n/a	n/a	n/a	n/a	n/a	n/a	n/a	13	8	1	4	n/a	n/a	n/a	n/a	n/a
1617.028	n/a	PROB	808514	n/a	LTP274	ltpFR	14	n/a	n/a	n/a	n/a	n/a	n/a	n/a	14	3	7	4	n/a	n/a	n/a	n/a	n/a
1619.068	n/a	PROB	809534	n/a	LTP274	ltpFR	14	n/a	n/a	n/a	n/a	n/a	n/a	n/a	13	1	6	5	n/a	n/a	n/a	n/a	n/a
1620.232	n/a	STOP	810116	n/a	LTP274	ltpFR	14	n/a	n/a	n/a	n/a	n/a	n/a	n/a	n/a	n/a	n/a	n/a	n/a	n/a	n/a	n/a	n/a
1622.48	n/a	WORD	811240	wordpools/wasnorm_wordpool_less_exclusions.txt	LTP274	ltpFR	14	6	1	TAPE	1433	n/a	n/a	0	n/a	0	0	0	0.57763671875	0.412841796875	1	upper	zerothre.ttf
1625.492	n/a	START	812746	n/a	LTP274	ltpFR	14	n/a	n/a	n/a	n/a	n/a	n/a	n/a	n/a	n/a	n/a	n/a	n/a	n/a	n/a	n/a	n/a
1626.612	n/a	PROB	813306	n/a	LTP274	ltpFR	14	n/a	n/a	n/a	n/a	n/a	n/a	n/a	11	5	1	5	n/a	n/a	n/a	n/a	n/a
1628.084	n/a	PROB	814042	n/a	LTP274	ltpFR	14	n/a	n/a	n/a	n/a	n/a	n/a	n/a	25	7	9	9	n/a	n/a	n/a	n/a	n/a
1629.942	n/a	PROB	814971	n/a	LTP274	ltpFR	14	n/a	n/a	n/a	n/a	n/a	n/a	n/a	11	7	1	3	n/a	n/a	n/a	n/a	n/a
1631.012	n/a	PROB	815506	n/a	LTP274	ltpFR	14	n/a	n/a	n/a	n/a	n/a	n/a	n/a	10	2	2	6	n/a	n/a	n/a	n/a	n/a
1632.2	n/a	STOP	816100	n/a	LTP274	ltpFR	14	n/a	n/a	n/a	n/a	n/a	n/a	n/a	n/a	n/a	n/a	n/a	n/a	n/a	n/a	n/a	n/a
1634.392	n/a	WORD	817196	wordpools/wasnorm_wordpool_less_exclusions.txt	LTP274	ltpFR	14	6	0	WHISKERS	1605	n/a	n/a	0	n/a	0	0	0	0.422607421875	0.5869140625	0	lower	amplitud.ttf
1637.404	n/a	START	818702	n/a	LTP274	ltpFR	14	n/a	n/a	n/a	n/a	n/a	n/a	n/a	n/a	n/a	n/a	n/a	n/a	n/a	n/a	n/a	n/a
1638.408	n/a	PROB	819204	n/a	LTP274	ltpFR	14	n/a	n/a	n/a	n/a	n/a	n/a	n/a	13	4	5	4	n/a	n/a	n/a	n/a	n/a
1639.746	n/a	PROB	819873	n/a	LTP274	ltpFR	14	n/a	n/a	n/a	n/a	n/a	n/a	n/a	11	9	1	1	n/a	n/a	n/a	n/a	n/a
1640.768	n/a	PROB	820384	n/a	LTP274	ltpFR	14	n/a	n/a	n/a	n/a	n/a	n/a	n/a	11	4	4	3	n/a	n/a	n/a	n/a	n/a
1641.872	n/a	PROB	820936	n/a	LTP274	ltpFR	14	n/a	n/a	n/a	n/a	n/a	n/a	n/a	15	7	5	2	n/a	n/a	n/a	n/a	n/a
1643.024	n/a	PROB	821512	n/a	LTP274	ltpFR	14	n/a	n/a	n/a	n/a	n/a	n/a	n/a	14	7	1	6	n/a	n/a	n/a	n/a	n/a
1644.672	n/a	STOP	822336	n/a	LTP274	ltpFR	14	n/a	n/a	n/a	n/a	n/a	n/a	n/a	n/a	n/a	n/a	n/a	n/a	n/a	n/a	n/a	n/a
1646.47	n/a	WORD	823235	wordpools/wasnorm_wordpool_less_exclusions.txt	LTP274	ltpFR	14	6	0	WOMAN	1620	n/a	n/a	1	n/a	0	0	0	0.422607421875	0.5869140625	0	lower	amplitud.ttf
1649.484	n/a	START	824742	n/a	LTP274	ltpFR	14	n/a	n/a	n/a	n/a	n/a	n/a	n/a	n/a	n/a	n/a	n/a	n/a	n/a	n/a	n/a	n/a
1650.688	n/a	PROB	825344	n/a	LTP274	ltpFR	14	n/a	n/a	n/a	n/a	n/a	n/a	n/a	10	3	2	5	n/a	n/a	n/a	n/a	n/a
1652.11	n/a	PROB	826055	n/a	LTP274	ltpFR	14	n/a	n/a	n/a	n/a	n/a	n/a	n/a	20	3	9	8	n/a	n/a	n/a	n/a	n/a
1653.23	n/a	PROB	826615	n/a	LTP274	ltpFR	14	n/a	n/a	n/a	n/a	n/a	n/a	n/a	15	7	5	3	n/a	n/a	n/a	n/a	n/a
1654.302	n/a	PROB	827151	n/a	LTP274	ltpFR	14	n/a	n/a	n/a	n/a	n/a	n/a	n/a	19	2	6	9	n/a	n/a	n/a	n/a	n/a
1656.898	n/a	STOP	828449	n/a	LTP274	ltpFR	14	n/a	n/a	n/a	n/a	n/a	n/a	n/a	n/a	n/a	n/a	n/a	n/a	n/a	n/a	n/a	n/a
1658.668	n/a	WORD	829334	wordpools/wasnorm_wordpool_less_exclusions.txt	LTP274	ltpFR	14	6	0	SOCKET	1340	n/a	n/a	0	n/a	0	0	0	0.422607421875	0.5869140625	0	lower	amplitud.ttf
1661.68	n/a	START	830840	n/a	LTP274	ltpFR	14	n/a	n/a	n/a	n/a	n/a	n/a	n/a	n/a	n/a	n/a	n/a	n/a	n/a	n/a	n/a	n/a
1662.65	n/a	PROB	831325	n/a	LTP274	ltpFR	14	n/a	n/a	n/a	n/a	n/a	n/a	n/a	15	1	9	5	n/a	n/a	n/a	n/a	n/a
1663.67	n/a	PROB	831835	n/a	LTP274	ltpFR	14	n/a	n/a	n/a	n/a	n/a	n/a	n/a	12	1	2	9	n/a	n/a	n/a	n/a	n/a
1664.874	n/a	PROB	832437	n/a	LTP274	ltpFR	14	n/a	n/a	n/a	n/a	n/a	n/a	n/a	11	5	1	5	n/a	n/a	n/a	n/a	n/a
1665.83	n/a	PROB	832915	n/a	LTP274	ltpFR	14	n/a	n/a	n/a	n/a	n/a	n/a	n/a	17	8	6	3	n/a	n/a	n/a	n/a	n/a
1667.502	n/a	PROB	833751	n/a	LTP274	ltpFR	14	n/a	n/a	n/a	n/a	n/a	n/a	n/a	15	9	3	3	n/a	n/a	n/a	n/a	n/a
1668.61	n/a	STOP	834305	n/a	LTP274	ltpFR	14	n/a	n/a	n/a	n/a	n/a	n/a	n/a	n/a	n/a	n/a	n/a	n/a	n/a	n/a	n/a	n/a
1670.832	n/a	WORD	835416	wordpools/wasnorm_wordpool_less_exclusions.txt	LTP274	ltpFR	14	6	0	BLACKBOARD	133	n/a	n/a	1	n/a	0	0	0	0.422607421875	0.5869140625	0	lower	amplitud.ttf
1673.846	n/a	START	836923	n/a	LTP274	ltpFR	14	n/a	n/a	n/a	n/a	n/a	n/a	n/a	n/a	n/a	n/a	n/a	n/a	n/a	n/a	n/a	n/a
1674.932	n/a	PROB	837466	n/a	LTP274	ltpFR	14	n/a	n/a	n/a	n/a	n/a	n/a	n/a	16	4	7	5	n/a	n/a	n/a	n/a	n/a
1676.838	n/a	PROB	838419	n/a	LTP274	ltpFR	14	n/a	n/a	n/a	n/a	n/a	n/a	n/a	212	5	8	9	n/a	n/a	n/a	n/a	n/a
1678.762	n/a	PROB	839381	n/a	LTP274	ltpFR	14	n/a	n/a	n/a	n/a	n/a	n/a	n/a	1	6	3	4	n/a	n/a	n/a	n/a	n/a
1680.016	n/a	PROB	840008	n/a	LTP274	ltpFR	14	n/a	n/a	n/a	n/a	n/a	n/a	n/a	15	4	5	6	n/a	n/a	n/a	n/a	n/a
1681.618	n/a	STOP	840809	n/a	LTP274	ltpFR	14	n/a	n/a	n/a	n/a	n/a	n/a	n/a	n/a	n/a	n/a	n/a	n/a	n/a	n/a	n/a	n/a
1682.794	n/a	WORD	841397	wordpools/wasnorm_wordpool_less_exclusions.txt	LTP274	ltpFR	14	6	0	OBOE	969	n/a	n/a	0	n/a	0	0	0	0.422607421875	0.5869140625	0	lower	amplitud.ttf
1685.806	n/a	START	842903	n/a	LTP274	ltpFR	14	n/a	n/a	n/a	n/a	n/a	n/a	n/a	n/a	n/a	n/a	n/a	n/a	n/a	n/a	n/a	n/a
1686.944	n/a	PROB	843472	n/a	LTP274	ltpFR	14	n/a	n/a	n/a	n/a	n/a	n/a	n/a	16	5	5	6	n/a	n/a	n/a	n/a	n/a
1688.13	n/a	PROB	844065	n/a	LTP274	ltpFR	14	n/a	n/a	n/a	n/a	n/a	n/a	n/a	19	7	7	5	n/a	n/a	n/a	n/a	n/a
1689.62	n/a	PROB	844810	n/a	LTP274	ltpFR	14	n/a	n/a	n/a	n/a	n/a	n/a	n/a	19	5	5	9	n/a	n/a	n/a	n/a	n/a
1690.724	n/a	PROB	845362	n/a	LTP274	ltpFR	14	n/a	n/a	n/a	n/a	n/a	n/a	n/a	22	8	9	5	n/a	n/a	n/a	n/a	n/a
1692.048	n/a	PROB	846024	n/a	LTP274	ltpFR	14	n/a	n/a	n/a	n/a	n/a	n/a	n/a	16	7	6	5	n/a	n/a	n/a	n/a	n/a
1693.148	n/a	STOP	846574	n/a	LTP274	ltpFR	14	n/a	n/a	n/a	n/a	n/a	n/a	n/a	n/a	n/a	n/a	n/a	n/a	n/a	n/a	n/a	n/a
1694.758	n/a	WORD	847379	wordpools/wasnorm_wordpool_less_exclusions.txt	LTP274	ltpFR	14	6	1	PUPIL	1143	n/a	n/a	1	n/a	0	0	0	0.57763671875	0.412841796875	1	upper	zerothre.ttf
1697.77	n/a	START	848885	n/a	LTP274	ltpFR	14	n/a	n/a	n/a	n/a	n/a	n/a	n/a	n/a	n/a	n/a	n/a	n/a	n/a	n/a	n/a	n/a
1698.79	n/a	PROB	849395	n/a	LTP274	ltpFR	14	n/a	n/a	n/a	n/a	n/a	n/a	n/a	19	8	5	6	n/a	n/a	n/a	n/a	n/a
1700.344	n/a	PROB	850172	n/a	LTP274	ltpFR	14	n/a	n/a	n/a	n/a	n/a	n/a	n/a	19	8	9	2	n/a	n/a	n/a	n/a	n/a
1702.084	n/a	PROB	851042	n/a	LTP274	ltpFR	14	n/a	n/a	n/a	n/a	n/a	n/a	n/a	10	5	2	3	n/a	n/a	n/a	n/a	n/a
1703.404	n/a	PROB	851702	n/a	LTP274	ltpFR	14	n/a	n/a	n/a	n/a	n/a	n/a	n/a	13	8	1	4	n/a	n/a	n/a	n/a	n/a
1704.42	n/a	STOP	852210	n/a	LTP274	ltpFR	14	n/a	n/a	n/a	n/a	n/a	n/a	n/a	n/a	n/a	n/a	n/a	n/a	n/a	n/a	n/a	n/a
1706.736	n/a	WORD	853368	wordpools/wasnorm_wordpool_less_exclusions.txt	LTP274	ltpFR	14	6	1	RAZOR	1171	n/a	n/a	1	n/a	0	0	0	0.57763671875	0.412841796875	1	upper	zerothre.ttf
1709.748	n/a	START	854874	n/a	LTP274	ltpFR	14	n/a	n/a	n/a	n/a	n/a	n/a	n/a	n/a	n/a	n/a	n/a	n/a	n/a	n/a	n/a	n/a
1710.82	n/a	PROB	855410	n/a	LTP274	ltpFR	14	n/a	n/a	n/a	n/a	n/a	n/a	n/a	11	7	3	1	n/a	n/a	n/a	n/a	n/a
1712.124	n/a	PROB	856062	n/a	LTP274	ltpFR	14	n/a	n/a	n/a	n/a	n/a	n/a	n/a	18	6	6	6	n/a	n/a	n/a	n/a	n/a
1713.126	n/a	PROB	856563	n/a	LTP274	ltpFR	14	n/a	n/a	n/a	n/a	n/a	n/a	n/a	15	9	4	2	n/a	n/a	n/a	n/a	n/a
1714.13	n/a	PROB	857065	n/a	LTP274	ltpFR	14	n/a	n/a	n/a	n/a	n/a	n/a	n/a	12	9	1	2	n/a	n/a	n/a	n/a	n/a
1717.75	n/a	STOP	858875	n/a	LTP274	ltpFR	14	n/a	n/a	n/a	n/a	n/a	n/a	n/a	n/a	n/a	n/a	n/a	n/a	n/a	n/a	n/a	n/a
1718.798	n/a	WORD	859399	wordpools/wasnorm_wordpool_less_exclusions.txt	LTP274	ltpFR	14	6	1	CREW	406	n/a	n/a	1	n/a	0	0	0	0.57763671875	0.412841796875	1	upper	zerothre.ttf
1721.812	n/a	START	860906	n/a	LTP274	ltpFR	14	n/a	n/a	n/a	n/a	n/a	n/a	n/a	n/a	n/a	n/a	n/a	n/a	n/a	n/a	n/a	n/a
1722.932	n/a	PROB	861466	n/a	LTP274	ltpFR	14	n/a	n/a	n/a	n/a	n/a	n/a	n/a	20	9	7	4	n/a	n/a	n/a	n/a	n/a
1724.268	n/a	PROB	862134	n/a	LTP274	ltpFR	14	n/a	n/a	n/a	n/a	n/a	n/a	n/a	13	2	8	3	n/a	n/a	n/a	n/a	n/a
1725.356	n/a	PROB	862678	n/a	LTP274	ltpFR	14	n/a	n/a	n/a	n/a	n/a	n/a	n/a	17	6	3	8	n/a	n/a	n/a	n/a	n/a
1729.812	n/a	STOP	864906	n/a	LTP274	ltpFR	14	n/a	n/a	n/a	n/a	n/a	n/a	n/a	n/a	n/a	n/a	n/a	n/a	n/a	n/a	n/a	n/a
1730.746	n/a	WORD	865373	wordpools/wasnorm_wordpool_less_exclusions.txt	LTP274	ltpFR	14	6	1	PLANT	1083	n/a	n/a	1	n/a	0	0	0	0.57763671875	0.412841796875	1	upper	zerothre.ttf
1733.758	n/a	START	866879	n/a	LTP274	ltpFR	14	n/a	n/a	n/a	n/a	n/a	n/a	n/a	n/a	n/a	n/a	n/a	n/a	n/a	n/a	n/a	n/a
1734.828	n/a	PROB	867414	n/a	LTP274	ltpFR	14	n/a	n/a	n/a	n/a	n/a	n/a	n/a	20	5	7	8	n/a	n/a	n/a	n/a	n/a
1736.616	n/a	PROB	868308	n/a	LTP274	ltpFR	14	n/a	n/a	n/a	n/a	n/a	n/a	n/a	10	5	2	3	n/a	n/a	n/a	n/a	n/a
1737.922	n/a	PROB	868961	n/a	LTP274	ltpFR	14	n/a	n/a	n/a	n/a	n/a	n/a	n/a	20	8	7	5	n/a	n/a	n/a	n/a	n/a
1739.36	n/a	PROB	869680	n/a	LTP274	ltpFR	14	n/a	n/a	n/a	n/a	n/a	n/a	n/a	23	9	8	6	n/a	n/a	n/a	n/a	n/a
1741.086	n/a	STOP	870543	n/a	LTP274	ltpFR	14	n/a	n/a	n/a	n/a	n/a	n/a	n/a	n/a	n/a	n/a	n/a	n/a	n/a	n/a	n/a	n/a
1742.706	n/a	WORD	871353	wordpools/wasnorm_wordpool_less_exclusions.txt	LTP274	ltpFR	14	6	0	TREE	1502	n/a	n/a	1	n/a	0	0	0	0.422607421875	0.5869140625	0	lower	amplitud.ttf
1745.72	n/a	START	872860	n/a	LTP274	ltpFR	14	n/a	n/a	n/a	n/a	n/a	n/a	n/a	n/a	n/a	n/a	n/a	n/a	n/a	n/a	n/a	n/a
1746.57	n/a	PROB	873285	n/a	LTP274	ltpFR	14	n/a	n/a	n/a	n/a	n/a	n/a	n/a	9	4	2	3	n/a	n/a	n/a	n/a	n/a
1748.796	n/a	PROB	874398	n/a	LTP274	ltpFR	14	n/a	n/a	n/a	n/a	n/a	n/a	n/a	14	5	5	4	n/a	n/a	n/a	n/a	n/a
1749.852	n/a	PROB	874926	n/a	LTP274	ltpFR	14	n/a	n/a	n/a	n/a	n/a	n/a	n/a	18	3	7	8	n/a	n/a	n/a	n/a	n/a
1751.072	n/a	PROB	875536	n/a	LTP274	ltpFR	14	n/a	n/a	n/a	n/a	n/a	n/a	n/a	18	9	8	1	n/a	n/a	n/a	n/a	n/a
1752.23	n/a	STOP	876115	n/a	LTP274	ltpFR	14	n/a	n/a	n/a	n/a	n/a	n/a	n/a	n/a	n/a	n/a	n/a	n/a	n/a	n/a	n/a	n/a
1754.87	n/a	WORD	877435	wordpools/wasnorm_wordpool_less_exclusions.txt	LTP274	ltpFR	14	6	0	CALENDAR	221	n/a	n/a	0	n/a	0	0	0	0.422607421875	0.5869140625	0	lower	amplitud.ttf
1757.882	n/a	START	878941	n/a	LTP274	ltpFR	14	n/a	n/a	n/a	n/a	n/a	n/a	n/a	n/a	n/a	n/a	n/a	n/a	n/a	n/a	n/a	n/a
1759.068	n/a	PROB	879534	n/a	LTP274	ltpFR	14	n/a	n/a	n/a	n/a	n/a	n/a	n/a	16	7	6	3	n/a	n/a	n/a	n/a	n/a
1760.324	n/a	PROB	880162	n/a	LTP274	ltpFR	14	n/a	n/a	n/a	n/a	n/a	n/a	n/a	14	8	3	3	n/a	n/a	n/a	n/a	n/a
1761.562	n/a	PROB	880781	n/a	LTP274	ltpFR	14	n/a	n/a	n/a	n/a	n/a	n/a	n/a	12	3	2	7	n/a	n/a	n/a	n/a	n/a
1763.052	n/a	PROB	881526	n/a	LTP274	ltpFR	14	n/a	n/a	n/a	n/a	n/a	n/a	n/a	14	5	3	6	n/a	n/a	n/a	n/a	n/a
1764.446	n/a	STOP	882223	n/a	LTP274	ltpFR	14	n/a	n/a	n/a	n/a	n/a	n/a	n/a	n/a	n/a	n/a	n/a	n/a	n/a	n/a	n/a	n/a
1766.848	n/a	WORD	883424	wordpools/wasnorm_wordpool_less_exclusions.txt	LTP274	ltpFR	14	6	0	COOKBOOK	373	n/a	n/a	1	n/a	0	0	0	0.422607421875	0.5869140625	0	lower	amplitud.ttf
1769.862	n/a	START	884931	n/a	LTP274	ltpFR	14	n/a	n/a	n/a	n/a	n/a	n/a	n/a	n/a	n/a	n/a	n/a	n/a	n/a	n/a	n/a	n/a
1770.932	n/a	PROB	885466	n/a	LTP274	ltpFR	14	n/a	n/a	n/a	n/a	n/a	n/a	n/a	18	6	8	4	n/a	n/a	n/a	n/a	n/a
1772.888	n/a	PROB	886444	n/a	LTP274	ltpFR	14	n/a	n/a	n/a	n/a	n/a	n/a	n/a	2	5	8	9	n/a	n/a	n/a	n/a	n/a
1774.814	n/a	PROB	887407	n/a	LTP274	ltpFR	14	n/a	n/a	n/a	n/a	n/a	n/a	n/a	22	8	8	6	n/a	n/a	n/a	n/a	n/a
1776.168	n/a	PROB	888084	n/a	LTP274	ltpFR	14	n/a	n/a	n/a	n/a	n/a	n/a	n/a	19	6	4	9	n/a	n/a	n/a	n/a	n/a
1777.376	n/a	STOP	888688	n/a	LTP274	ltpFR	14	n/a	n/a	n/a	n/a	n/a	n/a	n/a	n/a	n/a	n/a	n/a	n/a	n/a	n/a	n/a	n/a
1779.682	n/a	REC_START	889841	n/a	LTP274	ltpFR	14	6	n/a	n/a	n/a	n/a	n/a	n/a	n/a	0	0	0	n/a	n/a	n/a	n/a	n/a
1781.572	n/a	REC_WORD	890786	wordpools/wasnorm_wordpool_less_exclusions.txt	LTP274	ltpFR	14	6	0	OBOE	969	n/a	n/a	0	n/a	0	0	0	n/a	n/a	n/a	n/a	n/a
1782.232	n/a	REC_WORD	891116	wordpools/wasnorm_wordpool_less_exclusions.txt	LTP274	ltpFR	14	6	1	PUPIL	1143	n/a	n/a	1	n/a	0	0	0	n/a	n/a	n/a	n/a	n/a
1782.924	n/a	REC_WORD_VV	891462	wordpools/wasnorm_wordpool_less_exclusions.txt	LTP274	ltpFR	14	6	n/a	<>	-1	n/a	n/a	n/a	n/a	0	0	0	n/a	n/a	n/a	n/a	n/a
1783.208	n/a	REC_WORD	891604	wordpools/wasnorm_wordpool_less_exclusions.txt	LTP274	ltpFR	14	6	0	COOKBOOK	373	n/a	n/a	1	n/a	0	0	0	n/a	n/a	n/a	n/a	n/a
1784.84	n/a	REC_WORD	892420	wordpools/wasnorm_wordpool_less_exclusions.txt	LTP274	ltpFR	14	6	1	WAITRESS	1581	n/a	n/a	1	n/a	0	0	0	n/a	n/a	n/a	n/a	n/a
1785.556	n/a	REC_WORD	892778	wordpools/wasnorm_wordpool_less_exclusions.txt	LTP274	ltpFR	14	6	1	DIGGER	464	n/a	n/a	1	n/a	0	0	0	n/a	n/a	n/a	n/a	n/a
1786.006	n/a	REC_WORD	893003	wordpools/wasnorm_wordpool_less_exclusions.txt	LTP274	ltpFR	14	6	1	SHOVEL	1295	n/a	n/a	0	n/a	0	0	0	n/a	n/a	n/a	n/a	n/a
1855.336	n/a	REST_REWET	927668	n/a	LTP274	ltpFR	14	6	n/a	n/a	n/a	n/a	n/a	n/a	n/a	0	0	0	n/a	n/a	n/a	n/a	n/a
2151.586	n/a	WORD	1075793	wordpools/wasnorm_wordpool_less_exclusions.txt	LTP274	ltpFR	14	7	0	TERMITE	1451	n/a	n/a	0	n/a	0	0	0	0.422607421875	0.5869140625	0	lower	amplitud.ttf
2155.6	n/a	WORD	1077800	wordpools/wasnorm_wordpool_less_exclusions.txt	LTP274	ltpFR	14	7	0	ROOST	1208	n/a	n/a	1	n/a	0	0	0	0.422607421875	0.5869140625	0	lower	amplitud.ttf
2159.784	n/a	WORD	1079892	wordpools/wasnorm_wordpool_less_exclusions.txt	LTP274	ltpFR	14	7	0	MEAT	883	n/a	n/a	1	n/a	0	0	0	0.422607421875	0.5869140625	0	lower	amplitud.ttf
2163.998	n/a	WORD	1081999	wordpools/wasnorm_wordpool_less_exclusions.txt	LTP274	ltpFR	14	7	0	BEAN	105	n/a	n/a	0	n/a	0	0	0	0.422607421875	0.5869140625	0	lower	amplitud.ttf
2167.898	n/a	WORD	1083949	wordpools/wasnorm_wordpool_less_exclusions.txt	LTP274	ltpFR	14	7	0	CABINET	212	n/a	n/a	1	n/a	0	0	0	0.422607421875	0.5869140625	0	lower	amplitud.ttf
2172.048	n/a	WORD	1086024	wordpools/wasnorm_wordpool_less_exclusions.txt	LTP274	ltpFR	14	7	0	DAUGHTER	442	n/a	n/a	1	n/a	0	0	0	0.422607421875	0.5869140625	0	lower	amplitud.ttf
2176.012	n/a	WORD	1088006	wordpools/wasnorm_wordpool_less_exclusions.txt	LTP274	ltpFR	14	7	0	FARMER	553	n/a	n/a	1	n/a	0	0	0	0.422607421875	0.5869140625	0	lower	amplitud.ttf
2179.928	n/a	WORD	1089964	wordpools/wasnorm_wordpool_less_exclusions.txt	LTP274	ltpFR	14	7	0	PAPER	1011	n/a	n/a	0	n/a	0	0	0	0.422607421875	0.5869140625	0	lower	amplitud.ttf
2183.792	n/a	WORD	1091896	wordpools/wasnorm_wordpool_less_exclusions.txt	LTP274	ltpFR	14	7	0	MOAT	903	n/a	n/a	1	n/a	0	0	0	0.422607421875	0.5869140625	0	lower	amplitud.ttf
2187.774	n/a	WORD	1093887	wordpools/wasnorm_wordpool_less_exclusions.txt	LTP274	ltpFR	14	7	0	BOYFRIEND	162	n/a	n/a	1	n/a	0	0	0	0.422607421875	0.5869140625	0	lower	amplitud.ttf
2191.824	n/a	WORD	1095912	wordpools/wasnorm_wordpool_less_exclusions.txt	LTP274	ltpFR	14	7	0	TUNNEL	1519	n/a	n/a	1	n/a	0	0	0	0.422607421875	0.5869140625	0	lower	amplitud.ttf
2195.938	n/a	WORD	1097969	wordpools/wasnorm_wordpool_less_exclusions.txt	LTP274	ltpFR	14	7	0	BANK	83	n/a	n/a	1	n/a	0	0	0	0.422607421875	0.5869140625	0	lower	amplitud.ttf
2199.988	n/a	WORD	1099994	wordpools/wasnorm_wordpool_less_exclusions.txt	LTP274	ltpFR	14	7	0	PENNY	1045	n/a	n/a	0	n/a	0	0	0	0.422607421875	0.5869140625	0	lower	amplitud.ttf
2204.084	n/a	WORD	1102042	wordpools/wasnorm_wordpool_less_exclusions.txt	LTP274	ltpFR	14	7	0	CALF	222	n/a	n/a	1	n/a	0	0	0	0.422607421875	0.5869140625	0	lower	amplitud.ttf
2208.052	n/a	WORD	1104026	wordpools/wasnorm_wordpool_less_exclusions.txt	LTP274	ltpFR	14	7	0	FAUCET	555	n/a	n/a	0	n/a	0	0	0	0.422607421875	0.5869140625	0	lower	amplitud.ttf
2212.068	n/a	WORD	1106034	wordpools/wasnorm_wordpool_less_exclusions.txt	LTP274	ltpFR	14	7	0	ATMOSPHERE	54	n/a	n/a	1	n/a	0	0	0	0.422607421875	0.5869140625	0	lower	amplitud.ttf
2218.074	n/a	REC_START	1109037	n/a	LTP274	ltpFR	14	7	n/a	n/a	n/a	n/a	n/a	n/a	n/a	0	0	0	n/a	n/a	n/a	n/a	n/a
2219.428	n/a	REC_WORD	1109714	wordpools/wasnorm_wordpool_less_exclusions.txt	LTP274	ltpFR	14	7	0	ATMOSPHERE	54	n/a	n/a	1	n/a	0	0	0	n/a	n/a	n/a	n/a	n/a
2220.488	n/a	REC_WORD	1110244	wordpools/wasnorm_wordpool_less_exclusions.txt	LTP274	ltpFR	14	7	0	FARMER	553	n/a	n/a	1	n/a	0	0	0	n/a	n/a	n/a	n/a	n/a
2223.964	n/a	REC_WORD	1111982	wordpools/wasnorm_wordpool_less_exclusions.txt	LTP274	ltpFR	14	7	0	DAUGHTER	442	n/a	n/a	1	n/a	0	0	0	n/a	n/a	n/a	n/a	n/a
2227.596	n/a	REC_WORD	1113798	wordpools/wasnorm_wordpool_less_exclusions.txt	LTP274	ltpFR	14	7	0	BOYFRIEND	162	n/a	n/a	1	n/a	0	0	0	n/a	n/a	n/a	n/a	n/a
2230.39	n/a	REC_WORD	1115195	wordpools/wasnorm_wordpool_less_exclusions.txt	LTP274	ltpFR	14	7	0	MOAT	903	n/a	n/a	1	n/a	0	0	0	n/a	n/a	n/a	n/a	n/a
2232.892	n/a	REC_WORD	1116446	wordpools/wasnorm_wordpool_less_exclusions.txt	LTP274	ltpFR	14	7	0	CALF	222	n/a	n/a	1	n/a	0	0	0	n/a	n/a	n/a	n/a	n/a
2239.284	n/a	REC_WORD	1119642	wordpools/wasnorm_wordpool_less_exclusions.txt	LTP274	ltpFR	14	7	0	TERMITE	1451	n/a	n/a	0	n/a	0	0	0	n/a	n/a	n/a	n/a	n/a
2241.038	n/a	REC_WORD	1120519	wordpools/wasnorm_wordpool_less_exclusions.txt	LTP274	ltpFR	14	7	0	MEAT	883	n/a	n/a	1	n/a	0	0	0	n/a	n/a	n/a	n/a	n/a
2294.834	n/a	START	1147417	n/a	LTP274	ltpFR	14	n/a	n/a	n/a	n/a	n/a	n/a	n/a	n/a	n/a	n/a	n/a	n/a	n/a	n/a	n/a	n/a
2296.338	n/a	PROB	1148169	n/a	LTP274	ltpFR	14	n/a	n/a	n/a	n/a	n/a	n/a	n/a	14	2	4	8	n/a	n/a	n/a	n/a	n/a
2297.796	n/a	PROB	1148898	n/a	LTP274	ltpFR	14	n/a	n/a	n/a	n/a	n/a	n/a	n/a	13	3	1	7	n/a	n/a	n/a	n/a	n/a
2298.882	n/a	PROB	1149441	n/a	LTP274	ltpFR	14	n/a	n/a	n/a	n/a	n/a	n/a	n/a	11	4	2	5	n/a	n/a	n/a	n/a	n/a
2300.338	n/a	PROB	1150169	n/a	LTP274	ltpFR	14	n/a	n/a	n/a	n/a	n/a	n/a	n/a	11	9	1	1	n/a	n/a	n/a	n/a	n/a
2301.826	n/a	PROB	1150913	n/a	LTP274	ltpFR	14	n/a	n/a	n/a	n/a	n/a	n/a	n/a	18	9	8	1	n/a	n/a	n/a	n/a	n/a
2303.148	n/a	PROB	1151574	n/a	LTP274	ltpFR	14	n/a	n/a	n/a	n/a	n/a	n/a	n/a	11	5	2	4	n/a	n/a	n/a	n/a	n/a
2304.218	n/a	PROB	1152109	n/a	LTP274	ltpFR	14	n/a	n/a	n/a	n/a	n/a	n/a	n/a	19	6	7	6	n/a	n/a	n/a	n/a	n/a
2305.656	n/a	PROB	1152828	n/a	LTP274	ltpFR	14	n/a	n/a	n/a	n/a	n/a	n/a	n/a	13	4	5	4	n/a	n/a	n/a	n/a	n/a
2307.364	n/a	PROB	1153682	n/a	LTP274	ltpFR	14	n/a	n/a	n/a	n/a	n/a	n/a	n/a	12	5	6	1	n/a	n/a	n/a	n/a	n/a
2308.484	n/a	PROB	1154242	n/a	LTP274	ltpFR	14	n/a	n/a	n/a	n/a	n/a	n/a	n/a	18	5	5	8	n/a	n/a	n/a	n/a	n/a
2309.572	n/a	STOP	1154786	n/a	LTP274	ltpFR	14	n/a	n/a	n/a	n/a	n/a	n/a	n/a	n/a	n/a	n/a	n/a	n/a	n/a	n/a	n/a	n/a
2311.696	n/a	WORD	1155848	wordpools/wasnorm_wordpool_less_exclusions.txt	LTP274	ltpFR	14	8	0	CUP	424	n/a	n/a	0	n/a	0	0	0	0.422607421875	0.5869140625	0	lower	amplitud.ttf
2314.71	n/a	START	1157355	n/a	LTP274	ltpFR	14	n/a	n/a	n/a	n/a	n/a	n/a	n/a	n/a	n/a	n/a	n/a	n/a	n/a	n/a	n/a	n/a
2315.778	n/a	PROB	1157889	n/a	LTP274	ltpFR	14	n/a	n/a	n/a	n/a	n/a	n/a	n/a	17	6	9	2	n/a	n/a	n/a	n/a	n/a
2318.89	n/a	PROB	1159445	n/a	LTP274	ltpFR	14	n/a	n/a	n/a	n/a	n/a	n/a	n/a	13	1	4	7	n/a	n/a	n/a	n/a	n/a
2319.88	n/a	PROB	1159940	n/a	LTP274	ltpFR	14	n/a	n/a	n/a	n/a	n/a	n/a	n/a	7	1	4	2	n/a	n/a	n/a	n/a	n/a
2322.304	n/a	PROB	1161152	n/a	LTP274	ltpFR	14	n/a	n/a	n/a	n/a	n/a	n/a	n/a	18	8	1	9	n/a	n/a	n/a	n/a	n/a
2325.348	n/a	PROB	1162674	n/a	LTP274	ltpFR	14	n/a	n/a	n/a	n/a	n/a	n/a	n/a	12	2	5	5	n/a	n/a	n/a	n/a	n/a
2326.2	n/a	PROB	1163100	n/a	LTP274	ltpFR	14	n/a	n/a	n/a	n/a	n/a	n/a	n/a	23	7	7	9	n/a	n/a	n/a	n/a	n/a
2327.624	n/a	PROB	1163812	n/a	LTP274	ltpFR	14	n/a	n/a	n/a	n/a	n/a	n/a	n/a	21	8	9	4	n/a	n/a	n/a	n/a	n/a
2329.064	n/a	PROB	1164532	n/a	LTP274	ltpFR	14	n/a	n/a	n/a	n/a	n/a	n/a	n/a	9	6	1	2	n/a	n/a	n/a	n/a	n/a
2330.046	n/a	STOP	1165023	n/a	LTP274	ltpFR	14	n/a	n/a	n/a	n/a	n/a	n/a	n/a	n/a	n/a	n/a	n/a	n/a	n/a	n/a	n/a	n/a
2331.724	n/a	WORD	1165862	wordpools/wasnorm_wordpool_less_exclusions.txt	LTP274	ltpFR	14	8	0	OATS	968	n/a	n/a	0	n/a	0	0	0	0.422607421875	0.5869140625	0	lower	amplitud.ttf
2334.736	n/a	START	1167368	n/a	LTP274	ltpFR	14	n/a	n/a	n/a	n/a	n/a	n/a	n/a	n/a	n/a	n/a	n/a	n/a	n/a	n/a	n/a	n/a
2335.856	n/a	PROB	1167928	n/a	LTP274	ltpFR	14	n/a	n/a	n/a	n/a	n/a	n/a	n/a	18	8	5	5	n/a	n/a	n/a	n/a	n/a
2336.96	n/a	PROB	1168480	n/a	LTP274	ltpFR	14	n/a	n/a	n/a	n/a	n/a	n/a	n/a	21	9	7	5	n/a	n/a	n/a	n/a	n/a
2338.316	n/a	PROB	1169158	n/a	LTP274	ltpFR	14	n/a	n/a	n/a	n/a	n/a	n/a	n/a	20	3	8	9	n/a	n/a	n/a	n/a	n/a
2340.556	n/a	PROB	1170278	n/a	LTP274	ltpFR	14	n/a	n/a	n/a	n/a	n/a	n/a	n/a	13	1	5	7	n/a	n/a	n/a	n/a	n/a
2341.898	n/a	PROB	1170949	n/a	LTP274	ltpFR	14	n/a	n/a	n/a	n/a	n/a	n/a	n/a	12	2	5	5	n/a	n/a	n/a	n/a	n/a
2342.818	n/a	PROB	1171409	n/a	LTP274	ltpFR	14	n/a	n/a	n/a	n/a	n/a	n/a	n/a	25	9	8	8	n/a	n/a	n/a	n/a	n/a
2345.36	n/a	PROB	1172680	n/a	LTP274	ltpFR	14	n/a	n/a	n/a	n/a	n/a	n/a	n/a	17	2	5	7	n/a	n/a	n/a	n/a	n/a
2347.114	n/a	PROB	1173557	n/a	LTP274	ltpFR	14	n/a	n/a	n/a	n/a	n/a	n/a	n/a	14	1	6	7	n/a	n/a	n/a	n/a	n/a
2348.938	n/a	PROB	1174469	n/a	LTP274	ltpFR	14	n/a	n/a	n/a	n/a	n/a	n/a	n/a	17	8	5	4	n/a	n/a	n/a	n/a	n/a
2350.142	n/a	STOP	1175071	n/a	LTP274	ltpFR	14	n/a	n/a	n/a	n/a	n/a	n/a	n/a	n/a	n/a	n/a	n/a	n/a	n/a	n/a	n/a	n/a
2351.8	n/a	WORD	1175900	wordpools/wasnorm_wordpool_less_exclusions.txt	LTP274	ltpFR	14	8	0	WOLF	1619	n/a	n/a	1	n/a	0	0	0	0.422607421875	0.5869140625	0	lower	amplitud.ttf
2354.814	n/a	START	1177407	n/a	LTP274	ltpFR	14	n/a	n/a	n/a	n/a	n/a	n/a	n/a	n/a	n/a	n/a	n/a	n/a	n/a	n/a	n/a	n/a
2355.666	n/a	PROB	1177833	n/a	LTP274	ltpFR	14	n/a	n/a	n/a	n/a	n/a	n/a	n/a	19	8	4	7	n/a	n/a	n/a	n/a	n/a
2357.874	n/a	PROB	1178937	n/a	LTP274	ltpFR	14	n/a	n/a	n/a	n/a	n/a	n/a	n/a	16	7	7	2	n/a	n/a	n/a	n/a	n/a
2358.996	n/a	PROB	1179498	n/a	LTP274	ltpFR	14	n/a	n/a	n/a	n/a	n/a	n/a	n/a	14	6	7	1	n/a	n/a	n/a	n/a	n/a
2360.066	n/a	PROB	1180033	n/a	LTP274	ltpFR	14	n/a	n/a	n/a	n/a	n/a	n/a	n/a	17	4	9	4	n/a	n/a	n/a	n/a	n/a
2361.872	n/a	PROB	1180936	n/a	LTP274	ltpFR	14	n/a	n/a	n/a	n/a	n/a	n/a	n/a	19	6	7	6	n/a	n/a	n/a	n/a	n/a
2364.098	n/a	PROB	1182049	n/a	LTP274	ltpFR	14	n/a	n/a	n/a	n/a	n/a	n/a	n/a	16	2	5	9	n/a	n/a	n/a	n/a	n/a
2365.334	n/a	PROB	1182667	n/a	LTP274	ltpFR	14	n/a	n/a	n/a	n/a	n/a	n/a	n/a	8	2	3	3	n/a	n/a	n/a	n/a	n/a
2366.976	n/a	PROB	1183488	n/a	LTP274	ltpFR	14	n/a	n/a	n/a	n/a	n/a	n/a	n/a	18	9	5	4	n/a	n/a	n/a	n/a	n/a
2368.514	n/a	PROB	1184257	n/a	LTP274	ltpFR	14	n/a	n/a	n/a	n/a	n/a	n/a	n/a	14	4	7	3	n/a	n/a	n/a	n/a	n/a
2369.768	n/a	STOP	1184884	n/a	LTP274	ltpFR	14	n/a	n/a	n/a	n/a	n/a	n/a	n/a	n/a	n/a	n/a	n/a	n/a	n/a	n/a	n/a	n/a
2371.76	n/a	WORD	1185880	wordpools/wasnorm_wordpool_less_exclusions.txt	LTP274	ltpFR	14	8	0	FELLOW	558	n/a	n/a	0	n/a	0	0	0	0.422607421875	0.5869140625	0	lower	amplitud.ttf
2374.774	n/a	START	1187387	n/a	LTP274	ltpFR	14	n/a	n/a	n/a	n/a	n/a	n/a	n/a	n/a	n/a	n/a	n/a	n/a	n/a	n/a	n/a	n/a
2375.742	n/a	PROB	1187871	n/a	LTP274	ltpFR	14	n/a	n/a	n/a	n/a	n/a	n/a	n/a	20	8	6	6	n/a	n/a	n/a	n/a	n/a
2377.13	n/a	PROB	1188565	n/a	LTP274	ltpFR	14	n/a	n/a	n/a	n/a	n/a	n/a	n/a	11	5	5	1	n/a	n/a	n/a	n/a	n/a
2378.036	n/a	PROB	1189018	n/a	LTP274	ltpFR	14	n/a	n/a	n/a	n/a	n/a	n/a	n/a	19	8	6	5	n/a	n/a	n/a	n/a	n/a
2379.49	n/a	PROB	1189745	n/a	LTP274	ltpFR	14	n/a	n/a	n/a	n/a	n/a	n/a	n/a	16	5	6	5	n/a	n/a	n/a	n/a	n/a
2380.66	n/a	PROB	1190330	n/a	LTP274	ltpFR	14	n/a	n/a	n/a	n/a	n/a	n/a	n/a	20	6	6	8	n/a	n/a	n/a	n/a	n/a
2382.216	n/a	PROB	1191108	n/a	LTP274	ltpFR	14	n/a	n/a	n/a	n/a	n/a	n/a	n/a	15	4	3	8	n/a	n/a	n/a	n/a	n/a
2383.538	n/a	PROB	1191769	n/a	LTP274	ltpFR	14	n/a	n/a	n/a	n/a	n/a	n/a	n/a	18	2	8	6	n/a	n/a	n/a	n/a	n/a
2384.69	n/a	PROB	1192345	n/a	LTP274	ltpFR	14	n/a	n/a	n/a	n/a	n/a	n/a	n/a	4	4	7	3	n/a	n/a	n/a	n/a	n/a
2386.482	n/a	PROB	1193241	n/a	LTP274	ltpFR	14	n/a	n/a	n/a	n/a	n/a	n/a	n/a	20	8	4	8	n/a	n/a	n/a	n/a	n/a
2388.156	n/a	PROB	1194078	n/a	LTP274	ltpFR	14	n/a	n/a	n/a	n/a	n/a	n/a	n/a	3	3	7	3	n/a	n/a	n/a	n/a	n/a
2390.774	n/a	STOP	1195387	n/a	LTP274	ltpFR	14	n/a	n/a	n/a	n/a	n/a	n/a	n/a	n/a	n/a	n/a	n/a	n/a	n/a	n/a	n/a	n/a
2391.618	n/a	WORD	1195809	wordpools/wasnorm_wordpool_less_exclusions.txt	LTP274	ltpFR	14	8	1	PLATE	1086	n/a	n/a	1	n/a	0	0	0	0.57763671875	0.412841796875	1	upper	zerothre.ttf
2394.632	n/a	START	1197316	n/a	LTP274	ltpFR	14	n/a	n/a	n/a	n/a	n/a	n/a	n/a	n/a	n/a	n/a	n/a	n/a	n/a	n/a	n/a	n/a
2395.534	n/a	PROB	1197767	n/a	LTP274	ltpFR	14	n/a	n/a	n/a	n/a	n/a	n/a	n/a	12	3	4	5	n/a	n/a	n/a	n/a	n/a
2396.672	n/a	PROB	1198336	n/a	LTP274	ltpFR	14	n/a	n/a	n/a	n/a	n/a	n/a	n/a	25	8	8	9	n/a	n/a	n/a	n/a	n/a
2399.066	n/a	PROB	1199533	n/a	LTP274	ltpFR	14	n/a	n/a	n/a	n/a	n/a	n/a	n/a	13	3	3	7	n/a	n/a	n/a	n/a	n/a
2400.32	n/a	PROB	1200160	n/a	LTP274	ltpFR	14	n/a	n/a	n/a	n/a	n/a	n/a	n/a	11	1	8	2	n/a	n/a	n/a	n/a	n/a
2401.322	n/a	PROB	1200661	n/a	LTP274	ltpFR	14	n/a	n/a	n/a	n/a	n/a	n/a	n/a	11	5	2	4	n/a	n/a	n/a	n/a	n/a
2403.8	n/a	PROB	1201900	n/a	LTP274	ltpFR	14	n/a	n/a	n/a	n/a	n/a	n/a	n/a	19	9	4	6	n/a	n/a	n/a	n/a	n/a
2405.488	n/a	PROB	1202744	n/a	LTP274	ltpFR	14	n/a	n/a	n/a	n/a	n/a	n/a	n/a	14	8	1	5	n/a	n/a	n/a	n/a	n/a
2406.542	n/a	PROB	1203271	n/a	LTP274	ltpFR	14	n/a	n/a	n/a	n/a	n/a	n/a	n/a	3	1	1	1	n/a	n/a	n/a	n/a	n/a
2408.516	n/a	PROB	1204258	n/a	LTP274	ltpFR	14	n/a	n/a	n/a	n/a	n/a	n/a	n/a	14	5	3	6	n/a	n/a	n/a	n/a	n/a
2410.066	n/a	STOP	1205033	n/a	LTP274	ltpFR	14	n/a	n/a	n/a	n/a	n/a	n/a	n/a	n/a	n/a	n/a	n/a	n/a	n/a	n/a	n/a	n/a
2411.68	n/a	WORD	1205840	wordpools/wasnorm_wordpool_less_exclusions.txt	LTP274	ltpFR	14	8	1	BEAKER	104	n/a	n/a	0	n/a	0	0	0	0.57763671875	0.412841796875	1	upper	zerothre.ttf
2414.692	n/a	START	1207346	n/a	LTP274	ltpFR	14	n/a	n/a	n/a	n/a	n/a	n/a	n/a	n/a	n/a	n/a	n/a	n/a	n/a	n/a	n/a	n/a
2415.694	n/a	PROB	1207847	n/a	LTP274	ltpFR	14	n/a	n/a	n/a	n/a	n/a	n/a	n/a	17	1	9	7	n/a	n/a	n/a	n/a	n/a
2416.832	n/a	PROB	1208416	n/a	LTP274	ltpFR	14	n/a	n/a	n/a	n/a	n/a	n/a	n/a	19	6	7	6	n/a	n/a	n/a	n/a	n/a
2417.97	n/a	PROB	1208985	n/a	LTP274	ltpFR	14	n/a	n/a	n/a	n/a	n/a	n/a	n/a	8	4	2	2	n/a	n/a	n/a	n/a	n/a
2418.924	n/a	PROB	1209462	n/a	LTP274	ltpFR	14	n/a	n/a	n/a	n/a	n/a	n/a	n/a	17	5	3	9	n/a	n/a	n/a	n/a	n/a
2420.362	n/a	PROB	1210181	n/a	LTP274	ltpFR	14	n/a	n/a	n/a	n/a	n/a	n/a	n/a	26	9	9	7	n/a	n/a	n/a	n/a	n/a
2422.722	n/a	PROB	1211361	n/a	LTP274	ltpFR	14	n/a	n/a	n/a	n/a	n/a	n/a	n/a	14	5	6	3	n/a	n/a	n/a	n/a	n/a
2425.448	n/a	PROB	1212724	n/a	LTP274	ltpFR	14	n/a	n/a	n/a	n/a	n/a	n/a	n/a	13	7	5	1	n/a	n/a	n/a	n/a	n/a
2426.468	n/a	PROB	1213234	n/a	LTP274	ltpFR	14	n/a	n/a	n/a	n/a	n/a	n/a	n/a	10	6	1	3	n/a	n/a	n/a	n/a	n/a
2427.59	n/a	PROB	1213795	n/a	LTP274	ltpFR	14	n/a	n/a	n/a	n/a	n/a	n/a	n/a	15	2	3	7	n/a	n/a	n/a	n/a	n/a
2428.576	n/a	PROB	1214288	n/a	LTP274	ltpFR	14	n/a	n/a	n/a	n/a	n/a	n/a	n/a	8	2	1	5	n/a	n/a	n/a	n/a	n/a
2429.73	n/a	STOP	1214865	n/a	LTP274	ltpFR	14	n/a	n/a	n/a	n/a	n/a	n/a	n/a	n/a	n/a	n/a	n/a	n/a	n/a	n/a	n/a	n/a
2431.622	n/a	WORD	1215811	wordpools/wasnorm_wordpool_less_exclusions.txt	LTP274	ltpFR	14	8	1	FLASK	576	n/a	n/a	0	n/a	0	0	0	0.57763671875	0.412841796875	1	upper	zerothre.ttf
2434.634	n/a	START	1217317	n/a	LTP274	ltpFR	14	n/a	n/a	n/a	n/a	n/a	n/a	n/a	n/a	n/a	n/a	n/a	n/a	n/a	n/a	n/a	n/a
2435.822	n/a	PROB	1217911	n/a	LTP274	ltpFR	14	n/a	n/a	n/a	n/a	n/a	n/a	n/a	18	1	8	9	n/a	n/a	n/a	n/a	n/a
2436.942	n/a	PROB	1218471	n/a	LTP274	ltpFR	14	n/a	n/a	n/a	n/a	n/a	n/a	n/a	18	7	9	2	n/a	n/a	n/a	n/a	n/a
2438.18	n/a	PROB	1219090	n/a	LTP274	ltpFR	14	n/a	n/a	n/a	n/a	n/a	n/a	n/a	13	4	4	5	n/a	n/a	n/a	n/a	n/a
2439.618	n/a	PROB	1219809	n/a	LTP274	ltpFR	14	n/a	n/a	n/a	n/a	n/a	n/a	n/a	11	5	4	2	n/a	n/a	n/a	n/a	n/a
2440.724	n/a	PROB	1220362	n/a	LTP274	ltpFR	14	n/a	n/a	n/a	n/a	n/a	n/a	n/a	8	1	2	5	n/a	n/a	n/a	n/a	n/a
2441.694	n/a	PROB	1220847	n/a	LTP274	ltpFR	14	n/a	n/a	n/a	n/a	n/a	n/a	n/a	16	6	1	9	n/a	n/a	n/a	n/a	n/a
2442.814	n/a	PROB	1221407	n/a	LTP274	ltpFR	14	n/a	n/a	n/a	n/a	n/a	n/a	n/a	9	7	1	1	n/a	n/a	n/a	n/a	n/a
2443.802	n/a	PROB	1221901	n/a	LTP274	ltpFR	14	n/a	n/a	n/a	n/a	n/a	n/a	n/a	16	5	2	9	n/a	n/a	n/a	n/a	n/a
2445.206	n/a	PROB	1222603	n/a	LTP274	ltpFR	14	n/a	n/a	n/a	n/a	n/a	n/a	n/a	17	4	4	9	n/a	n/a	n/a	n/a	n/a
2446.66	n/a	PROB	1223330	n/a	LTP274	ltpFR	14	n/a	n/a	n/a	n/a	n/a	n/a	n/a	15	4	7	4	n/a	n/a	n/a	n/a	n/a
2447.934	n/a	PROB	1223967	n/a	LTP274	ltpFR	14	n/a	n/a	n/a	n/a	n/a	n/a	n/a	17	2	8	9	n/a	n/a	n/a	n/a	n/a
2449.508	n/a	STOP	1224754	n/a	LTP274	ltpFR	14	n/a	n/a	n/a	n/a	n/a	n/a	n/a	n/a	n/a	n/a	n/a	n/a	n/a	n/a	n/a	n/a
2451.566	n/a	WORD	1225783	wordpools/wasnorm_wordpool_less_exclusions.txt	LTP274	ltpFR	14	8	1	MERMAID	887	n/a	n/a	1	n/a	0	0	0	0.57763671875	0.412841796875	1	upper	zerothre.ttf
2454.578	n/a	START	1227289	n/a	LTP274	ltpFR	14	n/a	n/a	n/a	n/a	n/a	n/a	n/a	n/a	n/a	n/a	n/a	n/a	n/a	n/a	n/a	n/a
2455.396	n/a	PROB	1227698	n/a	LTP274	ltpFR	14	n/a	n/a	n/a	n/a	n/a	n/a	n/a	16	6	6	4	n/a	n/a	n/a	n/a	n/a
2457.02	n/a	PROB	1228510	n/a	LTP274	ltpFR	14	n/a	n/a	n/a	n/a	n/a	n/a	n/a	12	2	4	6	n/a	n/a	n/a	n/a	n/a
2458.174	n/a	PROB	1229087	n/a	LTP274	ltpFR	14	n/a	n/a	n/a	n/a	n/a	n/a	n/a	19	6	6	7	n/a	n/a	n/a	n/a	n/a
2459.646	n/a	PROB	1229823	n/a	LTP274	ltpFR	14	n/a	n/a	n/a	n/a	n/a	n/a	n/a	12	9	2	1	n/a	n/a	n/a	n/a	n/a
2463.224	n/a	PROB	1231612	n/a	LTP274	ltpFR	14	n/a	n/a	n/a	n/a	n/a	n/a	n/a	18	8	2	8	n/a	n/a	n/a	n/a	n/a
2464.882	n/a	PROB	1232441	n/a	LTP274	ltpFR	14	n/a	n/a	n/a	n/a	n/a	n/a	n/a	17	9	7	1	n/a	n/a	n/a	n/a	n/a
2466.27	n/a	PROB	1233135	n/a	LTP274	ltpFR	14	n/a	n/a	n/a	n/a	n/a	n/a	n/a	7	2	1	4	n/a	n/a	n/a	n/a	n/a
2467.878	n/a	PROB	1233939	n/a	LTP274	ltpFR	14	n/a	n/a	n/a	n/a	n/a	n/a	n/a	10	1	8	1	n/a	n/a	n/a	n/a	n/a
2470.578	n/a	STOP	1235289	n/a	LTP274	ltpFR	14	n/a	n/a	n/a	n/a	n/a	n/a	n/a	n/a	n/a	n/a	n/a	n/a	n/a	n/a	n/a	n/a
2471.692	n/a	WORD	1235846	wordpools/wasnorm_wordpool_less_exclusions.txt	LTP274	ltpFR	14	8	0	PILL	1068	n/a	n/a	0	n/a	0	0	0	0.422607421875	0.5869140625	0	lower	amplitud.ttf
2474.704	n/a	START	1237352	n/a	LTP274	ltpFR	14	n/a	n/a	n/a	n/a	n/a	n/a	n/a	n/a	n/a	n/a	n/a	n/a	n/a	n/a	n/a	n/a
2475.624	n/a	PROB	1237812	n/a	LTP274	ltpFR	14	n/a	n/a	n/a	n/a	n/a	n/a	n/a	18	7	6	5	n/a	n/a	n/a	n/a	n/a
2476.912	n/a	PROB	1238456	n/a	LTP274	ltpFR	14	n/a	n/a	n/a	n/a	n/a	n/a	n/a	13	4	8	1	n/a	n/a	n/a	n/a	n/a
2478.082	n/a	PROB	1239041	n/a	LTP274	ltpFR	14	n/a	n/a	n/a	n/a	n/a	n/a	n/a	16	7	5	4	n/a	n/a	n/a	n/a	n/a
2479.472	n/a	PROB	1239736	n/a	LTP274	ltpFR	14	n/a	n/a	n/a	n/a	n/a	n/a	n/a	15	3	4	8	n/a	n/a	n/a	n/a	n/a
2480.71	n/a	PROB	1240355	n/a	LTP274	ltpFR	14	n/a	n/a	n/a	n/a	n/a	n/a	n/a	12	2	7	3	n/a	n/a	n/a	n/a	n/a
2482.332	n/a	PROB	1241166	n/a	LTP274	ltpFR	14	n/a	n/a	n/a	n/a	n/a	n/a	n/a	17	1	8	8	n/a	n/a	n/a	n/a	n/a
2483.552	n/a	PROB	1241776	n/a	LTP274	ltpFR	14	n/a	n/a	n/a	n/a	n/a	n/a	n/a	15	4	9	3	n/a	n/a	n/a	n/a	n/a
2484.758	n/a	PROB	1242379	n/a	LTP274	ltpFR	14	n/a	n/a	n/a	n/a	n/a	n/a	n/a	14	3	3	8	n/a	n/a	n/a	n/a	n/a
2486.596	n/a	PROB	1243298	n/a	LTP274	ltpFR	14	n/a	n/a	n/a	n/a	n/a	n/a	n/a	14	4	6	4	n/a	n/a	n/a	n/a	n/a
2488.49	n/a	PROB	1244245	n/a	LTP274	ltpFR	14	n/a	n/a	n/a	n/a	n/a	n/a	n/a	17	5	6	6	n/a	n/a	n/a	n/a	n/a
2489.822	n/a	STOP	1244911	n/a	LTP274	ltpFR	14	n/a	n/a	n/a	n/a	n/a	n/a	n/a	n/a	n/a	n/a	n/a	n/a	n/a	n/a	n/a	n/a
2491.618	n/a	WORD	1245809	wordpools/wasnorm_wordpool_less_exclusions.txt	LTP274	ltpFR	14	8	0	JAW	751	n/a	n/a	0	n/a	0	0	0	0.422607421875	0.5869140625	0	lower	amplitud.ttf
2494.63	n/a	START	1247315	n/a	LTP274	ltpFR	14	n/a	n/a	n/a	n/a	n/a	n/a	n/a	n/a	n/a	n/a	n/a	n/a	n/a	n/a	n/a	n/a
2495.466	n/a	PROB	1247733	n/a	LTP274	ltpFR	14	n/a	n/a	n/a	n/a	n/a	n/a	n/a	16	2	5	9	n/a	n/a	n/a	n/a	n/a
2496.688	n/a	PROB	1248344	n/a	LTP274	ltpFR	14	n/a	n/a	n/a	n/a	n/a	n/a	n/a	11	5	1	5	n/a	n/a	n/a	n/a	n/a
2497.892	n/a	PROB	1248946	n/a	LTP274	ltpFR	14	n/a	n/a	n/a	n/a	n/a	n/a	n/a	7	2	3	2	n/a	n/a	n/a	n/a	n/a
2499.432	n/a	PROB	1249716	n/a	LTP274	ltpFR	14	n/a	n/a	n/a	n/a	n/a	n/a	n/a	24	8	9	7	n/a	n/a	n/a	n/a	n/a
2501.438	n/a	PROB	1250719	n/a	LTP274	ltpFR	14	n/a	n/a	n/a	n/a	n/a	n/a	n/a	16	6	9	1	n/a	n/a	n/a	n/a	n/a
2502.558	n/a	PROB	1251279	n/a	LTP274	ltpFR	14	n/a	n/a	n/a	n/a	n/a	n/a	n/a	18	3	8	7	n/a	n/a	n/a	n/a	n/a
2503.916	n/a	PROB	1251958	n/a	LTP274	ltpFR	14	n/a	n/a	n/a	n/a	n/a	n/a	n/a	11	2	1	8	n/a	n/a	n/a	n/a	n/a
2504.936	n/a	PROB	1252468	n/a	LTP274	ltpFR	14	n/a	n/a	n/a	n/a	n/a	n/a	n/a	13	8	1	4	n/a	n/a	n/a	n/a	n/a
2505.94	n/a	PROB	1252970	n/a	LTP274	ltpFR	14	n/a	n/a	n/a	n/a	n/a	n/a	n/a	17	3	5	9	n/a	n/a	n/a	n/a	n/a
2507.244	n/a	PROB	1253622	n/a	LTP274	ltpFR	14	n/a	n/a	n/a	n/a	n/a	n/a	n/a	13	2	6	5	n/a	n/a	n/a	n/a	n/a
2508.316	n/a	PROB	1254158	n/a	LTP274	ltpFR	14	n/a	n/a	n/a	n/a	n/a	n/a	n/a	7	3	3	1	n/a	n/a	n/a	n/a	n/a
2509.126	n/a	STOP	1254563	n/a	LTP274	ltpFR	14	n/a	n/a	n/a	n/a	n/a	n/a	n/a	n/a	n/a	n/a	n/a	n/a	n/a	n/a	n/a	n/a
2511.612	n/a	WORD	1255806	wordpools/wasnorm_wordpool_less_exclusions.txt	LTP274	ltpFR	14	8	0	STALLION	1369	n/a	n/a	1	n/a	0	0	0	0.422607421875	0.5869140625	0	lower	amplitud.ttf
2514.624	n/a	START	1257312	n/a	LTP274	ltpFR	14	n/a	n/a	n/a	n/a	n/a	n/a	n/a	n/a	n/a	n/a	n/a	n/a	n/a	n/a	n/a	n/a
2515.526	n/a	PROB	1257763	n/a	LTP274	ltpFR	14	n/a	n/a	n/a	n/a	n/a	n/a	n/a	15	7	6	2	n/a	n/a	n/a	n/a	n/a
2516.564	n/a	PROB	1258282	n/a	LTP274	ltpFR	14	n/a	n/a	n/a	n/a	n/a	n/a	n/a	18	9	2	7	n/a	n/a	n/a	n/a	n/a
2517.65	n/a	PROB	1258825	n/a	LTP274	ltpFR	14	n/a	n/a	n/a	n/a	n/a	n/a	n/a	15	2	7	6	n/a	n/a	n/a	n/a	n/a
2518.686	n/a	PROB	1259343	n/a	LTP274	ltpFR	14	n/a	n/a	n/a	n/a	n/a	n/a	n/a	6	2	1	3	n/a	n/a	n/a	n/a	n/a
2519.844	n/a	PROB	1259922	n/a	LTP274	ltpFR	14	n/a	n/a	n/a	n/a	n/a	n/a	n/a	14	2	4	8	n/a	n/a	n/a	n/a	n/a
2521.362	n/a	PROB	1260681	n/a	LTP274	ltpFR	14	n/a	n/a	n/a	n/a	n/a	n/a	n/a	10	3	3	4	n/a	n/a	n/a	n/a	n/a
2522.922	n/a	PROB	1261461	n/a	LTP274	ltpFR	14	n/a	n/a	n/a	n/a	n/a	n/a	n/a	17	5	8	4	n/a	n/a	n/a	n/a	n/a
2524.56	n/a	PROB	1262280	n/a	LTP274	ltpFR	14	n/a	n/a	n/a	n/a	n/a	n/a	n/a	17	5	4	8	n/a	n/a	n/a	n/a	n/a
2526.402	n/a	PROB	1263201	n/a	LTP274	ltpFR	14	n/a	n/a	n/a	n/a	n/a	n/a	n/a	14	5	8	1	n/a	n/a	n/a	n/a	n/a
2527.654	n/a	PROB	1263827	n/a	LTP274	ltpFR	14	n/a	n/a	n/a	n/a	n/a	n/a	n/a	16	4	9	3	n/a	n/a	n/a	n/a	n/a
2529.044	n/a	PROB	1264522	n/a	LTP274	ltpFR	14	n/a	n/a	n/a	n/a	n/a	n/a	n/a	18	1	8	9	n/a	n/a	n/a	n/a	n/a
2529.976	n/a	STOP	1264988	n/a	LTP274	ltpFR	14	n/a	n/a	n/a	n/a	n/a	n/a	n/a	n/a	n/a	n/a	n/a	n/a	n/a	n/a	n/a	n/a
2531.554	n/a	WORD	1265777	wordpools/wasnorm_wordpool_less_exclusions.txt	LTP274	ltpFR	14	8	0	LEADER	807	n/a	n/a	0	n/a	0	0	0	0.422607421875	0.5869140625	0	lower	amplitud.ttf
2534.566	n/a	START	1267283	n/a	LTP274	ltpFR	14	n/a	n/a	n/a	n/a	n/a	n/a	n/a	n/a	n/a	n/a	n/a	n/a	n/a	n/a	n/a	n/a
2535.602	n/a	PROB	1267801	n/a	LTP274	ltpFR	14	n/a	n/a	n/a	n/a	n/a	n/a	n/a	15	5	1	9	n/a	n/a	n/a	n/a	n/a
2536.522	n/a	PROB	1268261	n/a	LTP274	ltpFR	14	n/a	n/a	n/a	n/a	n/a	n/a	n/a	16	2	8	6	n/a	n/a	n/a	n/a	n/a
2537.692	n/a	PROB	1268846	n/a	LTP274	ltpFR	14	n/a	n/a	n/a	n/a	n/a	n/a	n/a	17	5	7	5	n/a	n/a	n/a	n/a	n/a
2538.766	n/a	PROB	1269383	n/a	LTP274	ltpFR	14	n/a	n/a	n/a	n/a	n/a	n/a	n/a	12	2	2	8	n/a	n/a	n/a	n/a	n/a
2539.936	n/a	PROB	1269968	n/a	LTP274	ltpFR	14	n/a	n/a	n/a	n/a	n/a	n/a	n/a	7	1	5	1	n/a	n/a	n/a	n/a	n/a
2540.922	n/a	PROB	1270461	n/a	LTP274	ltpFR	14	n/a	n/a	n/a	n/a	n/a	n/a	n/a	15	5	8	2	n/a	n/a	n/a	n/a	n/a
2542.026	n/a	PROB	1271013	n/a	LTP274	ltpFR	14	n/a	n/a	n/a	n/a	n/a	n/a	n/a	15	5	2	9	n/a	n/a	n/a	n/a	n/a
2544.488	n/a	PROB	1272244	n/a	LTP274	ltpFR	14	n/a	n/a	n/a	n/a	n/a	n/a	n/a	8	3	3	2	n/a	n/a	n/a	n/a	n/a
2545.958	n/a	PROB	1272979	n/a	LTP274	ltpFR	14	n/a	n/a	n/a	n/a	n/a	n/a	n/a	3	1	1	1	n/a	n/a	n/a	n/a	n/a
2547.014	n/a	PROB	1273507	n/a	LTP274	ltpFR	14	n/a	n/a	n/a	n/a	n/a	n/a	n/a	17	8	4	5	n/a	n/a	n/a	n/a	n/a
2549.592	n/a	STOP	1274796	n/a	LTP274	ltpFR	14	n/a	n/a	n/a	n/a	n/a	n/a	n/a	n/a	n/a	n/a	n/a	n/a	n/a	n/a	n/a	n/a
2551.714	n/a	WORD	1275857	wordpools/wasnorm_wordpool_less_exclusions.txt	LTP274	ltpFR	14	8	1	AUTHOR	61	n/a	n/a	3	n/a	0	0	0	0.57763671875	0.412841796875	1	upper	zerothre.ttf
2554.34	n/a	KEY_MSG	1277170	n/a	LTP274	ltpFR	14	8	n/a	n/a	n/a	n/a	n/a	n/a	n/a	0	0	0	n/a	n/a	n/a	n/a	n/a
2555.864	n/a	START	1277932	n/a	LTP274	ltpFR	14	n/a	n/a	n/a	n/a	n/a	n/a	n/a	n/a	n/a	n/a	n/a	n/a	n/a	n/a	n/a	n/a
2556.902	n/a	PROB	1278451	n/a	LTP274	ltpFR	14	n/a	n/a	n/a	n/a	n/a	n/a	n/a	16	4	9	3	n/a	n/a	n/a	n/a	n/a
2558.29	n/a	PROB	1279145	n/a	LTP274	ltpFR	14	n/a	n/a	n/a	n/a	n/a	n/a	n/a	14	1	9	4	n/a	n/a	n/a	n/a	n/a
2559.526	n/a	PROB	1279763	n/a	LTP274	ltpFR	14	n/a	n/a	n/a	n/a	n/a	n/a	n/a	12	7	4	1	n/a	n/a	n/a	n/a	n/a
2561.65	n/a	PROB	1280825	n/a	LTP274	ltpFR	14	n/a	n/a	n/a	n/a	n/a	n/a	n/a	17	1	9	7	n/a	n/a	n/a	n/a	n/a
2563.526	n/a	PROB	1281763	n/a	LTP274	ltpFR	14	n/a	n/a	n/a	n/a	n/a	n/a	n/a	12	1	3	8	n/a	n/a	n/a	n/a	n/a
2566.186	n/a	PROB	1283093	n/a	LTP274	ltpFR	14	n/a	n/a	n/a	n/a	n/a	n/a	n/a	13	9	1	3	n/a	n/a	n/a	n/a	n/a
2568.446	n/a	PROB	1284223	n/a	LTP274	ltpFR	14	n/a	n/a	n/a	n/a	n/a	n/a	n/a	17	6	9	2	n/a	n/a	n/a	n/a	n/a
2569.582	n/a	PROB	1284791	n/a	LTP274	ltpFR	14	n/a	n/a	n/a	n/a	n/a	n/a	n/a	15	5	9	1	n/a	n/a	n/a	n/a	n/a
2570.858	n/a	STOP	1285429	n/a	LTP274	ltpFR	14	n/a	n/a	n/a	n/a	n/a	n/a	n/a	n/a	n/a	n/a	n/a	n/a	n/a	n/a	n/a	n/a
2572.712	n/a	WORD	1286356	wordpools/wasnorm_wordpool_less_exclusions.txt	LTP274	ltpFR	14	8	1	DICTIONARY	463	n/a	n/a	1	n/a	0	0	0	0.57763671875	0.412841796875	1	upper	zerothre.ttf
2575.724	n/a	START	1287862	n/a	LTP274	ltpFR	14	n/a	n/a	n/a	n/a	n/a	n/a	n/a	n/a	n/a	n/a	n/a	n/a	n/a	n/a	n/a	n/a
2576.66	n/a	PROB	1288330	n/a	LTP274	ltpFR	14	n/a	n/a	n/a	n/a	n/a	n/a	n/a	15	3	3	9	n/a	n/a	n/a	n/a	n/a
2577.98	n/a	PROB	1288990	n/a	LTP274	ltpFR	14	n/a	n/a	n/a	n/a	n/a	n/a	n/a	15	5	2	6	n/a	n/a	n/a	n/a	n/a
2580.12	n/a	PROB	1290060	n/a	LTP274	ltpFR	14	n/a	n/a	n/a	n/a	n/a	n/a	n/a	18	9	8	1	n/a	n/a	n/a	n/a	n/a
2581.378	n/a	PROB	1290689	n/a	LTP274	ltpFR	14	n/a	n/a	n/a	n/a	n/a	n/a	n/a	9	3	3	3	n/a	n/a	n/a	n/a	n/a
2582.564	n/a	PROB	1291282	n/a	LTP274	ltpFR	14	n/a	n/a	n/a	n/a	n/a	n/a	n/a	14	8	1	5	n/a	n/a	n/a	n/a	n/a
2583.67	n/a	PROB	1291835	n/a	LTP274	ltpFR	14	n/a	n/a	n/a	n/a	n/a	n/a	n/a	17	9	4	4	n/a	n/a	n/a	n/a	n/a
2584.924	n/a	PROB	1292462	n/a	LTP274	ltpFR	14	n/a	n/a	n/a	n/a	n/a	n/a	n/a	21	7	8	6	n/a	n/a	n/a	n/a	n/a
2586.53	n/a	PROB	1293265	n/a	LTP274	ltpFR	14	n/a	n/a	n/a	n/a	n/a	n/a	n/a	14	6	7	1	n/a	n/a	n/a	n/a	n/a
2587.534	n/a	PROB	1293767	n/a	LTP274	ltpFR	14	n/a	n/a	n/a	n/a	n/a	n/a	n/a	17	2	8	7	n/a	n/a	n/a	n/a	n/a
2588.69	n/a	PROB	1294345	n/a	LTP274	ltpFR	14	n/a	n/a	n/a	n/a	n/a	n/a	n/a	16	7	6	3	n/a	n/a	n/a	n/a	n/a
2589.944	n/a	PROB	1294972	n/a	LTP274	ltpFR	14	n/a	n/a	n/a	n/a	n/a	n/a	n/a	8	2	5	1	n/a	n/a	n/a	n/a	n/a
2590.884	n/a	STOP	1295442	n/a	LTP274	ltpFR	14	n/a	n/a	n/a	n/a	n/a	n/a	n/a	n/a	n/a	n/a	n/a	n/a	n/a	n/a	n/a	n/a
2592.654	n/a	WORD	1296327	wordpools/wasnorm_wordpool_less_exclusions.txt	LTP274	ltpFR	14	8	1	CARTON	251	n/a	n/a	0	n/a	0	0	0	0.57763671875	0.412841796875	1	upper	zerothre.ttf
2595.666	n/a	START	1297833	n/a	LTP274	ltpFR	14	n/a	n/a	n/a	n/a	n/a	n/a	n/a	n/a	n/a	n/a	n/a	n/a	n/a	n/a	n/a	n/a
2596.838	n/a	PROB	1298419	n/a	LTP274	ltpFR	14	n/a	n/a	n/a	n/a	n/a	n/a	n/a	1	6	1	3	n/a	n/a	n/a	n/a	n/a
2598.292	n/a	PROB	1299146	n/a	LTP274	ltpFR	14	n/a	n/a	n/a	n/a	n/a	n/a	n/a	19	5	5	9	n/a	n/a	n/a	n/a	n/a
2600.116	n/a	PROB	1300058	n/a	LTP274	ltpFR	14	n/a	n/a	n/a	n/a	n/a	n/a	n/a	27	9	9	9	n/a	n/a	n/a	n/a	n/a
2601.354	n/a	PROB	1300677	n/a	LTP274	ltpFR	14	n/a	n/a	n/a	n/a	n/a	n/a	n/a	17	3	9	5	n/a	n/a	n/a	n/a	n/a
2603.46	n/a	PROB	1301730	n/a	LTP274	ltpFR	14	n/a	n/a	n/a	n/a	n/a	n/a	n/a	12	6	5	1	n/a	n/a	n/a	n/a	n/a
2604.666	n/a	PROB	1302333	n/a	LTP274	ltpFR	14	n/a	n/a	n/a	n/a	n/a	n/a	n/a	6	2	3	1	n/a	n/a	n/a	n/a	n/a
2605.588	n/a	PROB	1302794	n/a	LTP274	ltpFR	14	n/a	n/a	n/a	n/a	n/a	n/a	n/a	11	2	6	3	n/a	n/a	n/a	n/a	n/a
2607.044	n/a	PROB	1303522	n/a	LTP274	ltpFR	14	n/a	n/a	n/a	n/a	n/a	n/a	n/a	1	6	3	1	n/a	n/a	n/a	n/a	n/a
2608.096	n/a	PROB	1304048	n/a	LTP274	ltpFR	14	n/a	n/a	n/a	n/a	n/a	n/a	n/a	17	9	4	4	n/a	n/a	n/a	n/a	n/a
2609.82	n/a	PROB	1304910	n/a	LTP274	ltpFR	14	n/a	n/a	n/a	n/a	n/a	n/a	n/a	18	8	8	6	n/a	n/a	n/a	n/a	n/a
2611.372	n/a	STOP	1305686	n/a	LTP274	ltpFR	14	n/a	n/a	n/a	n/a	n/a	n/a	n/a	n/a	n/a	n/a	n/a	n/a	n/a	n/a	n/a	n/a
2612.596	n/a	WORD	1306298	wordpools/wasnorm_wordpool_less_exclusions.txt	LTP274	ltpFR	14	8	1	COW	393	n/a	n/a	1	n/a	0	0	0	0.57763671875	0.412841796875	1	upper	zerothre.ttf
2615.608	n/a	START	1307804	n/a	LTP274	ltpFR	14	n/a	n/a	n/a	n/a	n/a	n/a	n/a	n/a	n/a	n/a	n/a	n/a	n/a	n/a	n/a	n/a
2616.71	n/a	PROB	1308355	n/a	LTP274	ltpFR	14	n/a	n/a	n/a	n/a	n/a	n/a	n/a	16	5	7	4	n/a	n/a	n/a	n/a	n/a
2618.534	n/a	PROB	1309267	n/a	LTP274	ltpFR	14	n/a	n/a	n/a	n/a	n/a	n/a	n/a	14	5	8	1	n/a	n/a	n/a	n/a	n/a
2619.74	n/a	PROB	1309870	n/a	LTP274	ltpFR	14	n/a	n/a	n/a	n/a	n/a	n/a	n/a	22	8	6	8	n/a	n/a	n/a	n/a	n/a
2621.398	n/a	PROB	1310699	n/a	LTP274	ltpFR	14	n/a	n/a	n/a	n/a	n/a	n/a	n/a	16	4	9	3	n/a	n/a	n/a	n/a	n/a
2623.504	n/a	PROB	1311752	n/a	LTP274	ltpFR	14	n/a	n/a	n/a	n/a	n/a	n/a	n/a	10	1	7	2	n/a	n/a	n/a	n/a	n/a
2624.576	n/a	PROB	1312288	n/a	LTP274	ltpFR	14	n/a	n/a	n/a	n/a	n/a	n/a	n/a	17	4	9	4	n/a	n/a	n/a	n/a	n/a
2626.2	n/a	PROB	1313100	n/a	LTP274	ltpFR	14	n/a	n/a	n/a	n/a	n/a	n/a	n/a	13	2	2	9	n/a	n/a	n/a	n/a	n/a
2627.42	n/a	PROB	1313710	n/a	LTP274	ltpFR	14	n/a	n/a	n/a	n/a	n/a	n/a	n/a	18	1	8	9	n/a	n/a	n/a	n/a	n/a
2628.524	n/a	PROB	1314262	n/a	LTP274	ltpFR	14	n/a	n/a	n/a	n/a	n/a	n/a	n/a	23	7	9	7	n/a	n/a	n/a	n/a	n/a
2630.83	n/a	STOP	1315415	n/a	LTP274	ltpFR	14	n/a	n/a	n/a	n/a	n/a	n/a	n/a	n/a	n/a	n/a	n/a	n/a	n/a	n/a	n/a	n/a
2633.494	n/a	REC_START	1316747	n/a	LTP274	ltpFR	14	8	n/a	n/a	n/a	n/a	n/a	n/a	n/a	0	0	0	n/a	n/a	n/a	n/a	n/a
2639.12	n/a	REC_WORD	1319560	wordpools/wasnorm_wordpool_less_exclusions.txt	LTP274	ltpFR	14	8	1	COW	393	n/a	n/a	1	n/a	0	0	0	n/a	n/a	n/a	n/a	n/a
2739.148	n/a	WORD	1369574	wordpools/wasnorm_wordpool_less_exclusions.txt	LTP274	ltpFR	14	9	1	TAVERN	1437	n/a	n/a	1	n/a	0	0	0	0.57763671875	0.412841796875	1	upper	zerothre.ttf
2743.23	n/a	WORD	1371615	wordpools/wasnorm_wordpool_less_exclusions.txt	LTP274	ltpFR	14	9	1	SACK	1220	n/a	n/a	0	n/a	0	0	0	0.57763671875	0.412841796875	1	upper	zerothre.ttf
2747.446	n/a	WORD	1373723	wordpools/wasnorm_wordpool_less_exclusions.txt	LTP274	ltpFR	14	9	1	MASCARA	875	n/a	n/a	0	n/a	0	0	0	0.57763671875	0.412841796875	1	upper	zerothre.ttf
2751.578	n/a	WORD	1375789	wordpools/wasnorm_wordpool_less_exclusions.txt	LTP274	ltpFR	14	9	1	FACE	547	n/a	n/a	0	n/a	0	0	0	0.57763671875	0.412841796875	1	upper	zerothre.ttf
2755.762	n/a	WORD	1377881	wordpools/wasnorm_wordpool_less_exclusions.txt	LTP274	ltpFR	14	9	1	WICK	1607	n/a	n/a	0	n/a	0	0	0	0.57763671875	0.412841796875	1	upper	zerothre.ttf
2759.66	n/a	WORD	1379830	wordpools/wasnorm_wordpool_less_exclusions.txt	LTP274	ltpFR	14	9	1	CHARCOAL	281	n/a	n/a	0	n/a	0	0	0	0.57763671875	0.412841796875	1	upper	zerothre.ttf
2763.724	n/a	WORD	1381862	wordpools/wasnorm_wordpool_less_exclusions.txt	LTP274	ltpFR	14	9	1	CAT	257	n/a	n/a	1	n/a	0	0	0	0.57763671875	0.412841796875	1	upper	zerothre.ttf
2767.722	n/a	WORD	1383861	wordpools/wasnorm_wordpool_less_exclusions.txt	LTP274	ltpFR	14	9	1	STAKE	1368	n/a	n/a	1	n/a	0	0	0	0.57763671875	0.412841796875	1	upper	zerothre.ttf
