mstime	trial_type	stim_file	subject	experiment	session	trial	task	item_name	item_num	recog_resp	recog_conf	resp	answer	test_x	test_y	test_z	color_r	color_g	color_b	case	font
0	SESS_START	n/a	LTP153	ltpFR	12	n/a	n/a	n/a	n/a	0	n/a	n/a	n/a	0	0	0	n/a	n/a	n/a	n/a	n/a
43374	START	n/a	LTP153	ltpFR	12	n/a	n/a	n/a	n/a	n/a	n/a	n/a	n/a	n/a	n/a	n/a	n/a	n/a	n/a	n/a	n/a
43407	PROB	n/a	LTP153	ltpFR	12	n/a	n/a	n/a	n/a	n/a	n/a	n/a	19	3	7	9	n/a	n/a	n/a	n/a	n/a
45155	PROB	n/a	LTP153	ltpFR	12	n/a	n/a	n/a	n/a	n/a	n/a	n/a	14	7	5	2	n/a	n/a	n/a	n/a	n/a
46519	PROB	n/a	LTP153	ltpFR	12	n/a	n/a	n/a	n/a	n/a	n/a	n/a	12	7	4	1	n/a	n/a	n/a	n/a	n/a
48217	PROB	n/a	LTP153	ltpFR	12	n/a	n/a	n/a	n/a	n/a	n/a	n/a	10	6	3	1	n/a	n/a	n/a	n/a	n/a
49565	PROB	n/a	LTP153	ltpFR	12	n/a	n/a	n/a	n/a	n/a	n/a	n/a	22	9	7	6	n/a	n/a	n/a	n/a	n/a
51429	PROB	n/a	LTP153	ltpFR	12	n/a	n/a	n/a	n/a	n/a	n/a	n/a	7	4	2	1	n/a	n/a	n/a	n/a	n/a
52743	PROB	n/a	LTP153	ltpFR	12	n/a	n/a	n/a	n/a	n/a	n/a	n/a	13	5	1	7	n/a	n/a	n/a	n/a	n/a
54341	PROB	n/a	LTP153	ltpFR	12	n/a	n/a	n/a	n/a	n/a	n/a	n/a	17	2	9	6	n/a	n/a	n/a	n/a	n/a
55955	PROB	n/a	LTP153	ltpFR	12	n/a	n/a	n/a	n/a	n/a	n/a	n/a	17	1	7	9	n/a	n/a	n/a	n/a	n/a
57370	PROB	n/a	LTP153	ltpFR	12	n/a	n/a	n/a	n/a	n/a	n/a	n/a	17	9	4	4	n/a	n/a	n/a	n/a	n/a
60449	PROB	n/a	LTP153	ltpFR	12	n/a	n/a	n/a	n/a	n/a	n/a	n/a	13	7	5	1	n/a	n/a	n/a	n/a	n/a
61857	STOP	n/a	LTP153	ltpFR	12	n/a	n/a	n/a	n/a	n/a	n/a	n/a	n/a	n/a	n/a	n/a	n/a	n/a	n/a	n/a	n/a
128547	WORD	wordpools/wasnorm_wordpool.txt	LTP153	ltpFR	12	1	0	SKUNK	1321	n/a	n/a	0	n/a	0	0	0	0.57763671875	0.412841796875	1	upper	zerothre.ttf
132674	WORD	wordpools/wasnorm_wordpool.txt	LTP153	ltpFR	12	1	0	DEODORANT	448	n/a	n/a	0	n/a	0	0	0	0.57763671875	0.412841796875	1	upper	zerothre.ttf
136601	WORD	wordpools/wasnorm_wordpool.txt	LTP153	ltpFR	12	1	0	SUITCASE	1403	n/a	n/a	1	n/a	0	0	0	0.57763671875	0.412841796875	1	upper	zerothre.ttf
140695	WORD	wordpools/wasnorm_wordpool.txt	LTP153	ltpFR	12	1	0	GIRL	637	n/a	n/a	1	n/a	0	0	0	0.57763671875	0.412841796875	1	upper	zerothre.ttf
144906	WORD	wordpools/wasnorm_wordpool.txt	LTP153	ltpFR	12	1	1	BASKET	95	n/a	n/a	0	n/a	0	0	0	0.422607421875	0.5869140625	0	lower	amplitud.ttf
148733	WORD	wordpools/wasnorm_wordpool.txt	LTP153	ltpFR	12	1	1	BARREL	91	n/a	n/a	0	n/a	0	0	0	0.422607421875	0.5869140625	0	lower	amplitud.ttf
152761	WORD	wordpools/wasnorm_wordpool.txt	LTP153	ltpFR	12	1	1	ANGEL	22	n/a	n/a	0	n/a	0	0	0	0.422607421875	0.5869140625	0	lower	amplitud.ttf
156671	WORD	wordpools/wasnorm_wordpool.txt	LTP153	ltpFR	12	1	1	FEMALE	559	n/a	n/a	1	n/a	0	0	0	0.422607421875	0.5869140625	0	lower	amplitud.ttf
160632	WORD	wordpools/wasnorm_wordpool.txt	LTP153	ltpFR	12	1	1	SEED	1266	n/a	n/a	0	n/a	0	0	0	0.422607421875	0.5869140625	0	lower	amplitud.ttf
164776	WORD	wordpools/wasnorm_wordpool.txt	LTP153	ltpFR	12	1	0	PLANT	1083	n/a	n/a	1	n/a	0	0	0	0.57763671875	0.412841796875	1	upper	zerothre.ttf
168770	WORD	wordpools/wasnorm_wordpool.txt	LTP153	ltpFR	12	1	0	SQUIRREL	1362	n/a	n/a	1	n/a	0	0	0	0.57763671875	0.412841796875	1	upper	zerothre.ttf
172747	WORD	wordpools/wasnorm_wordpool.txt	LTP153	ltpFR	12	1	0	SCOUT	1252	n/a	n/a	1	n/a	0	0	0	0.57763671875	0.412841796875	1	upper	zerothre.ttf
176625	WORD	wordpools/wasnorm_wordpool.txt	LTP153	ltpFR	12	1	0	RADIO	1157	n/a	n/a	0	n/a	0	0	0	0.57763671875	0.412841796875	1	upper	zerothre.ttf
180586	WORD	wordpools/wasnorm_wordpool.txt	LTP153	ltpFR	12	1	1	CONCERT	360	n/a	n/a	0	n/a	0	0	0	0.422607421875	0.5869140625	0	lower	amplitud.ttf
184780	WORD	wordpools/wasnorm_wordpool.txt	LTP153	ltpFR	12	1	1	STOOL	1386	n/a	n/a	0	n/a	0	0	0	0.422607421875	0.5869140625	0	lower	amplitud.ttf
188923	WORD	wordpools/wasnorm_wordpool.txt	LTP153	ltpFR	12	1	1	CORK	380	n/a	n/a	0	n/a	0	0	0	0.422607421875	0.5869140625	0	lower	amplitud.ttf
191936	START	n/a	LTP153	ltpFR	12	n/a	n/a	n/a	n/a	n/a	n/a	n/a	n/a	n/a	n/a	n/a	n/a	n/a	n/a	n/a	n/a
192917	PROB	n/a	LTP153	ltpFR	12	n/a	n/a	n/a	n/a	n/a	n/a	n/a	16	2	9	5	n/a	n/a	n/a	n/a	n/a
194914	PROB	n/a	LTP153	ltpFR	12	n/a	n/a	n/a	n/a	n/a	n/a	n/a	15	2	9	2	n/a	n/a	n/a	n/a	n/a
196879	PROB	n/a	LTP153	ltpFR	12	n/a	n/a	n/a	n/a	n/a	n/a	n/a	14	2	8	4	n/a	n/a	n/a	n/a	n/a
198968	STOP	n/a	LTP153	ltpFR	12	n/a	n/a	n/a	n/a	n/a	n/a	n/a	n/a	n/a	n/a	n/a	n/a	n/a	n/a	n/a	n/a
201821	REC_START	n/a	LTP153	ltpFR	12	1	n/a	n/a	n/a	n/a	n/a	n/a	n/a	0	0	0	n/a	n/a	n/a	n/a	n/a
203581	REC_WORD	wordpools/wasnorm_wordpool.txt	LTP153	ltpFR	12	1	0	SKUNK	1321	n/a	n/a	0	n/a	0	0	0	n/a	n/a	n/a	n/a	n/a
204584	REC_WORD	wordpools/wasnorm_wordpool.txt	LTP153	ltpFR	12	1	0	SQUIRREL	1362	n/a	n/a	1	n/a	0	0	0	n/a	n/a	n/a	n/a	n/a
206410	REC_WORD	wordpools/wasnorm_wordpool.txt	LTP153	ltpFR	12	1	1	BARREL	91	n/a	n/a	0	n/a	0	0	0	n/a	n/a	n/a	n/a	n/a
208480	REC_WORD	wordpools/wasnorm_wordpool.txt	LTP153	ltpFR	12	1	0	SCOUT	1252	n/a	n/a	1	n/a	0	0	0	n/a	n/a	n/a	n/a	n/a
209268	REC_WORD	wordpools/wasnorm_wordpool.txt	LTP153	ltpFR	12	1	1	FEMALE	559	n/a	n/a	1	n/a	0	0	0	n/a	n/a	n/a	n/a	n/a
210845	REC_WORD	wordpools/wasnorm_wordpool.txt	LTP153	ltpFR	12	1	0	GIRL	637	n/a	n/a	1	n/a	0	0	0	n/a	n/a	n/a	n/a	n/a
213893	REC_WORD	wordpools/wasnorm_wordpool.txt	LTP153	ltpFR	12	1	0	SUITCASE	1403	n/a	n/a	1	n/a	0	0	0	n/a	n/a	n/a	n/a	n/a
214916	REC_WORD	wordpools/wasnorm_wordpool.txt	LTP153	ltpFR	12	1	0	DEODORANT	448	n/a	n/a	0	n/a	0	0	0	n/a	n/a	n/a	n/a	n/a
220638	REC_WORD	wordpools/wasnorm_wordpool.txt	LTP153	ltpFR	12	1	0	RADIO	1157	n/a	n/a	0	n/a	0	0	0	n/a	n/a	n/a	n/a	n/a
225347	REC_WORD	wordpools/wasnorm_wordpool.txt	LTP153	ltpFR	12	1	1	SEED	1266	n/a	n/a	0	n/a	0	0	0	n/a	n/a	n/a	n/a	n/a
226560	REC_WORD	wordpools/wasnorm_wordpool.txt	LTP153	ltpFR	12	1	1	ANGEL	22	n/a	n/a	0	n/a	0	0	0	n/a	n/a	n/a	n/a	n/a
229368	REC_WORD	wordpools/wasnorm_wordpool.txt	LTP153	ltpFR	12	1	1	CONCERT	360	n/a	n/a	0	n/a	0	0	0	n/a	n/a	n/a	n/a	n/a
250256	REC_WORD	wordpools/wasnorm_wordpool.txt	LTP153	ltpFR	12	1	1	BASKET	95	n/a	n/a	0	n/a	0	0	0	n/a	n/a	n/a	n/a	n/a
251717	REC_WORD_VV	wordpools/wasnorm_wordpool.txt	LTP153	ltpFR	12	1	n/a	<>	-1	n/a	n/a	n/a	n/a	0	0	0	n/a	n/a	n/a	n/a	n/a
294499	START	n/a	LTP153	ltpFR	12	n/a	n/a	n/a	n/a	n/a	n/a	n/a	n/a	n/a	n/a	n/a	n/a	n/a	n/a	n/a	n/a
296013	PROB	n/a	LTP153	ltpFR	12	n/a	n/a	n/a	n/a	n/a	n/a	n/a	7	1	2	4	n/a	n/a	n/a	n/a	n/a
297862	PROB	n/a	LTP153	ltpFR	12	n/a	n/a	n/a	n/a	n/a	n/a	n/a	21	8	8	5	n/a	n/a	n/a	n/a	n/a
299192	PROB	n/a	LTP153	ltpFR	12	n/a	n/a	n/a	n/a	n/a	n/a	n/a	21	8	6	7	n/a	n/a	n/a	n/a	n/a
301648	STOP	n/a	LTP153	ltpFR	12	n/a	n/a	n/a	n/a	n/a	n/a	n/a	n/a	n/a	n/a	n/a	n/a	n/a	n/a	n/a	n/a
303702	WORD	wordpools/wasnorm_wordpool.txt	LTP153	ltpFR	12	2	0	TRAITOR	1495	n/a	n/a	1	n/a	0	0	0	0.57763671875	0.412841796875	1	upper	zerothre.ttf
306715	START	n/a	LTP153	ltpFR	12	n/a	n/a	n/a	n/a	n/a	n/a	n/a	n/a	n/a	n/a	n/a	n/a	n/a	n/a	n/a	n/a
307880	PROB	n/a	LTP153	ltpFR	12	n/a	n/a	n/a	n/a	n/a	n/a	n/a	20	9	2	9	n/a	n/a	n/a	n/a	n/a
309510	PROB	n/a	LTP153	ltpFR	12	n/a	n/a	n/a	n/a	n/a	n/a	n/a	8	5	1	2	n/a	n/a	n/a	n/a	n/a
311307	PROB	n/a	LTP153	ltpFR	12	n/a	n/a	n/a	n/a	n/a	n/a	n/a	17	4	8	5	n/a	n/a	n/a	n/a	n/a
312922	PROB	n/a	LTP153	ltpFR	12	n/a	n/a	n/a	n/a	n/a	n/a	n/a	14	3	3	8	n/a	n/a	n/a	n/a	n/a
314280	STOP	n/a	LTP153	ltpFR	12	n/a	n/a	n/a	n/a	n/a	n/a	n/a	n/a	n/a	n/a	n/a	n/a	n/a	n/a	n/a	n/a
315885	WORD	wordpools/wasnorm_wordpool.txt	LTP153	ltpFR	12	2	0	TOMBSTONE	1478	n/a	n/a	1	n/a	0	0	0	0.57763671875	0.412841796875	1	upper	zerothre.ttf
318897	START	n/a	LTP153	ltpFR	12	n/a	n/a	n/a	n/a	n/a	n/a	n/a	n/a	n/a	n/a	n/a	n/a	n/a	n/a	n/a	n/a
319944	PROB	n/a	LTP153	ltpFR	12	n/a	n/a	n/a	n/a	n/a	n/a	n/a	11	1	9	1	n/a	n/a	n/a	n/a	n/a
321808	PROB	n/a	LTP153	ltpFR	12	n/a	n/a	n/a	n/a	n/a	n/a	n/a	12	5	5	2	n/a	n/a	n/a	n/a	n/a
322923	PROB	n/a	LTP153	ltpFR	12	n/a	n/a	n/a	n/a	n/a	n/a	n/a	18	4	6	8	n/a	n/a	n/a	n/a	n/a
324155	PROB	n/a	LTP153	ltpFR	12	n/a	n/a	n/a	n/a	n/a	n/a	n/a	6	1	4	1	n/a	n/a	n/a	n/a	n/a
325480	STOP	n/a	LTP153	ltpFR	12	n/a	n/a	n/a	n/a	n/a	n/a	n/a	n/a	n/a	n/a	n/a	n/a	n/a	n/a	n/a	n/a
328099	WORD	wordpools/wasnorm_wordpool.txt	LTP153	ltpFR	12	2	0	RAG	1160	n/a	n/a	0	n/a	0	0	0	0.57763671875	0.412841796875	1	upper	zerothre.ttf
331112	START	n/a	LTP153	ltpFR	12	n/a	n/a	n/a	n/a	n/a	n/a	n/a	n/a	n/a	n/a	n/a	n/a	n/a	n/a	n/a	n/a
332093	PROB	n/a	LTP153	ltpFR	12	n/a	n/a	n/a	n/a	n/a	n/a	n/a	9	3	2	4	n/a	n/a	n/a	n/a	n/a
333324	PROB	n/a	LTP153	ltpFR	12	n/a	n/a	n/a	n/a	n/a	n/a	n/a	18	5	4	9	n/a	n/a	n/a	n/a	n/a
335521	PROB	n/a	LTP153	ltpFR	12	n/a	n/a	n/a	n/a	n/a	n/a	n/a	22	5	8	9	n/a	n/a	n/a	n/a	n/a
338489	STOP	n/a	LTP153	ltpFR	12	n/a	n/a	n/a	n/a	n/a	n/a	n/a	n/a	n/a	n/a	n/a	n/a	n/a	n/a	n/a	n/a
339931	WORD	wordpools/wasnorm_wordpool.txt	LTP153	ltpFR	12	2	0	SPONGE	1355	n/a	n/a	0	n/a	0	0	0	0.57763671875	0.412841796875	1	upper	zerothre.ttf
342944	START	n/a	LTP153	ltpFR	12	n/a	n/a	n/a	n/a	n/a	n/a	n/a	n/a	n/a	n/a	n/a	n/a	n/a	n/a	n/a	n/a
343825	PROB	n/a	LTP153	ltpFR	12	n/a	n/a	n/a	n/a	n/a	n/a	n/a	10	3	6	1	n/a	n/a	n/a	n/a	n/a
345606	PROB	n/a	LTP153	ltpFR	12	n/a	n/a	n/a	n/a	n/a	n/a	n/a	19	8	2	9	n/a	n/a	n/a	n/a	n/a
347287	PROB	n/a	LTP153	ltpFR	12	n/a	n/a	n/a	n/a	n/a	n/a	n/a	16	7	5	4	n/a	n/a	n/a	n/a	n/a
348886	PROB	n/a	LTP153	ltpFR	12	n/a	n/a	n/a	n/a	n/a	n/a	n/a	12	2	6	4	n/a	n/a	n/a	n/a	n/a
350688	STOP	n/a	LTP153	ltpFR	12	n/a	n/a	n/a	n/a	n/a	n/a	n/a	n/a	n/a	n/a	n/a	n/a	n/a	n/a	n/a	n/a
351780	WORD	wordpools/wasnorm_wordpool.txt	LTP153	ltpFR	12	2	0	PICKLE	1059	n/a	n/a	0	n/a	0	0	0	0.57763671875	0.412841796875	1	upper	zerothre.ttf
354793	START	n/a	LTP153	ltpFR	12	n/a	n/a	n/a	n/a	n/a	n/a	n/a	n/a	n/a	n/a	n/a	n/a	n/a	n/a	n/a	n/a
355758	PROB	n/a	LTP153	ltpFR	12	n/a	n/a	n/a	n/a	n/a	n/a	n/a	4	2	1	1	n/a	n/a	n/a	n/a	n/a
357222	PROB	n/a	LTP153	ltpFR	12	n/a	n/a	n/a	n/a	n/a	n/a	n/a	13	4	7	2	n/a	n/a	n/a	n/a	n/a
359119	PROB	n/a	LTP153	ltpFR	12	n/a	n/a	n/a	n/a	n/a	n/a	n/a	15	7	1	7	n/a	n/a	n/a	n/a	n/a
360600	PROB	n/a	LTP153	ltpFR	12	n/a	n/a	n/a	n/a	n/a	n/a	n/a	26	8	9	9	n/a	n/a	n/a	n/a	n/a
362496	STOP	n/a	LTP153	ltpFR	12	n/a	n/a	n/a	n/a	n/a	n/a	n/a	n/a	n/a	n/a	n/a	n/a	n/a	n/a	n/a	n/a
363979	WORD	wordpools/wasnorm_wordpool.txt	LTP153	ltpFR	12	2	0	PARROT	1015	n/a	n/a	0	n/a	0	0	0	0.57763671875	0.412841796875	1	upper	zerothre.ttf
366991	START	n/a	LTP153	ltpFR	12	n/a	n/a	n/a	n/a	n/a	n/a	n/a	n/a	n/a	n/a	n/a	n/a	n/a	n/a	n/a	n/a
367973	PROB	n/a	LTP153	ltpFR	12	n/a	n/a	n/a	n/a	n/a	n/a	n/a	19	7	3	9	n/a	n/a	n/a	n/a	n/a
369470	PROB	n/a	LTP153	ltpFR	12	n/a	n/a	n/a	n/a	n/a	n/a	n/a	18	9	4	5	n/a	n/a	n/a	n/a	n/a
370951	PROB	n/a	LTP153	ltpFR	12	n/a	n/a	n/a	n/a	n/a	n/a	n/a	7	2	4	1	n/a	n/a	n/a	n/a	n/a
372266	PROB	n/a	LTP153	ltpFR	12	n/a	n/a	n/a	n/a	n/a	n/a	n/a	13	3	7	3	n/a	n/a	n/a	n/a	n/a
374991	STOP	n/a	LTP153	ltpFR	12	n/a	n/a	n/a	n/a	n/a	n/a	n/a	n/a	n/a	n/a	n/a	n/a	n/a	n/a	n/a	n/a
375811	WORD	wordpools/wasnorm_wordpool.txt	LTP153	ltpFR	12	2	0	PENGUIN	1044	n/a	n/a	1	n/a	0	0	0	0.57763671875	0.412841796875	1	upper	zerothre.ttf
378824	START	n/a	LTP153	ltpFR	12	n/a	n/a	n/a	n/a	n/a	n/a	n/a	n/a	n/a	n/a	n/a	n/a	n/a	n/a	n/a	n/a
379921	PROB	n/a	LTP153	ltpFR	12	n/a	n/a	n/a	n/a	n/a	n/a	n/a	11	4	3	4	n/a	n/a	n/a	n/a	n/a
381652	PROB	n/a	LTP153	ltpFR	12	n/a	n/a	n/a	n/a	n/a	n/a	n/a	13	5	2	6	n/a	n/a	n/a	n/a	n/a
383050	PROB	n/a	LTP153	ltpFR	12	n/a	n/a	n/a	n/a	n/a	n/a	n/a	15	5	8	3	n/a	n/a	n/a	n/a	n/a
384865	PROB	n/a	LTP153	ltpFR	12	n/a	n/a	n/a	n/a	n/a	n/a	n/a	16	7	4	5	n/a	n/a	n/a	n/a	n/a
386624	STOP	n/a	LTP153	ltpFR	12	n/a	n/a	n/a	n/a	n/a	n/a	n/a	n/a	n/a	n/a	n/a	n/a	n/a	n/a	n/a	n/a
387793	WORD	wordpools/wasnorm_wordpool.txt	LTP153	ltpFR	12	2	0	WALRUS	1585	n/a	n/a	1	n/a	0	0	0	0.57763671875	0.412841796875	1	upper	zerothre.ttf
390806	START	n/a	LTP153	ltpFR	12	n/a	n/a	n/a	n/a	n/a	n/a	n/a	n/a	n/a	n/a	n/a	n/a	n/a	n/a	n/a	n/a
391987	PROB	n/a	LTP153	ltpFR	12	n/a	n/a	n/a	n/a	n/a	n/a	n/a	23	7	9	7	n/a	n/a	n/a	n/a	n/a
394034	PROB	n/a	LTP153	ltpFR	12	n/a	n/a	n/a	n/a	n/a	n/a	n/a	19	7	7	5	n/a	n/a	n/a	n/a	n/a
395565	PROB	n/a	LTP153	ltpFR	12	n/a	n/a	n/a	n/a	n/a	n/a	n/a	18	1	8	9	n/a	n/a	n/a	n/a	n/a
396746	PROB	n/a	LTP153	ltpFR	12	n/a	n/a	n/a	n/a	n/a	n/a	n/a	12	2	8	2	n/a	n/a	n/a	n/a	n/a
397704	STOP	n/a	LTP153	ltpFR	12	n/a	n/a	n/a	n/a	n/a	n/a	n/a	n/a	n/a	n/a	n/a	n/a	n/a	n/a	n/a	n/a
399725	WORD	wordpools/wasnorm_wordpool.txt	LTP153	ltpFR	12	2	0	LOAF	835	n/a	n/a	0	n/a	0	0	0	0.57763671875	0.412841796875	1	upper	zerothre.ttf
402738	START	n/a	LTP153	ltpFR	12	n/a	n/a	n/a	n/a	n/a	n/a	n/a	n/a	n/a	n/a	n/a	n/a	n/a	n/a	n/a	n/a
403753	PROB	n/a	LTP153	ltpFR	12	n/a	n/a	n/a	n/a	n/a	n/a	n/a	22	6	7	9	n/a	n/a	n/a	n/a	n/a
405200	PROB	n/a	LTP153	ltpFR	12	n/a	n/a	n/a	n/a	n/a	n/a	n/a	18	7	6	5	n/a	n/a	n/a	n/a	n/a
407630	PROB	n/a	LTP153	ltpFR	12	n/a	n/a	n/a	n/a	n/a	n/a	n/a	16	5	4	7	n/a	n/a	n/a	n/a	n/a
409968	STOP	n/a	LTP153	ltpFR	12	n/a	n/a	n/a	n/a	n/a	n/a	n/a	n/a	n/a	n/a	n/a	n/a	n/a	n/a	n/a	n/a
411707	WORD	wordpools/wasnorm_wordpool.txt	LTP153	ltpFR	12	2	0	TWIN	1528	n/a	n/a	1	n/a	0	0	0	0.57763671875	0.412841796875	1	upper	zerothre.ttf
414720	START	n/a	LTP153	ltpFR	12	n/a	n/a	n/a	n/a	n/a	n/a	n/a	n/a	n/a	n/a	n/a	n/a	n/a	n/a	n/a	n/a
415718	PROB	n/a	LTP153	ltpFR	12	n/a	n/a	n/a	n/a	n/a	n/a	n/a	15	5	2	8	n/a	n/a	n/a	n/a	n/a
417332	PROB	n/a	LTP153	ltpFR	12	n/a	n/a	n/a	n/a	n/a	n/a	n/a	6	1	4	1	n/a	n/a	n/a	n/a	n/a
418680	PROB	n/a	LTP153	ltpFR	12	n/a	n/a	n/a	n/a	n/a	n/a	n/a	17	3	9	5	n/a	n/a	n/a	n/a	n/a
420361	PROB	n/a	LTP153	ltpFR	12	n/a	n/a	n/a	n/a	n/a	n/a	n/a	7	3	1	3	n/a	n/a	n/a	n/a	n/a
421568	STOP	n/a	LTP153	ltpFR	12	n/a	n/a	n/a	n/a	n/a	n/a	n/a	n/a	n/a	n/a	n/a	n/a	n/a	n/a	n/a	n/a
423606	WORD	wordpools/wasnorm_wordpool.txt	LTP153	ltpFR	12	2	0	MOLECULE	905	n/a	n/a	1	n/a	0	0	0	0.57763671875	0.412841796875	1	upper	zerothre.ttf
426619	START	n/a	LTP153	ltpFR	12	n/a	n/a	n/a	n/a	n/a	n/a	n/a	n/a	n/a	n/a	n/a	n/a	n/a	n/a	n/a	n/a
427700	PROB	n/a	LTP153	ltpFR	12	n/a	n/a	n/a	n/a	n/a	n/a	n/a	23	6	8	9	n/a	n/a	n/a	n/a	n/a
430429	PROB	n/a	LTP153	ltpFR	12	n/a	n/a	n/a	n/a	n/a	n/a	n/a	17	9	2	6	n/a	n/a	n/a	n/a	n/a
432576	PROB	n/a	LTP153	ltpFR	12	n/a	n/a	n/a	n/a	n/a	n/a	n/a	10	3	4	3	n/a	n/a	n/a	n/a	n/a
434352	STOP	n/a	LTP153	ltpFR	12	n/a	n/a	n/a	n/a	n/a	n/a	n/a	n/a	n/a	n/a	n/a	n/a	n/a	n/a	n/a	n/a
435588	WORD	wordpools/wasnorm_wordpool.txt	LTP153	ltpFR	12	2	0	SHIRT	1287	n/a	n/a	0	n/a	0	0	0	0.57763671875	0.412841796875	1	upper	zerothre.ttf
438601	START	n/a	LTP153	ltpFR	12	n/a	n/a	n/a	n/a	n/a	n/a	n/a	n/a	n/a	n/a	n/a	n/a	n/a	n/a	n/a	n/a
439516	PROB	n/a	LTP153	ltpFR	12	n/a	n/a	n/a	n/a	n/a	n/a	n/a	13	4	3	6	n/a	n/a	n/a	n/a	n/a
441296	PROB	n/a	LTP153	ltpFR	12	n/a	n/a	n/a	n/a	n/a	n/a	n/a	10	4	4	2	n/a	n/a	n/a	n/a	n/a
442711	PROB	n/a	LTP153	ltpFR	12	n/a	n/a	n/a	n/a	n/a	n/a	n/a	18	9	8	1	n/a	n/a	n/a	n/a	n/a
444176	PROB	n/a	LTP153	ltpFR	12	n/a	n/a	n/a	n/a	n/a	n/a	n/a	11	4	3	4	n/a	n/a	n/a	n/a	n/a
445680	STOP	n/a	LTP153	ltpFR	12	n/a	n/a	n/a	n/a	n/a	n/a	n/a	n/a	n/a	n/a	n/a	n/a	n/a	n/a	n/a	n/a
447554	WORD	wordpools/wasnorm_wordpool.txt	LTP153	ltpFR	12	2	0	SLIME	1327	n/a	n/a	0	n/a	0	0	0	0.57763671875	0.412841796875	1	upper	zerothre.ttf
450583	START	n/a	LTP153	ltpFR	12	n/a	n/a	n/a	n/a	n/a	n/a	n/a	n/a	n/a	n/a	n/a	n/a	n/a	n/a	n/a	n/a
451548	PROB	n/a	LTP153	ltpFR	12	n/a	n/a	n/a	n/a	n/a	n/a	n/a	22	8	8	6	n/a	n/a	n/a	n/a	n/a
452813	PROB	n/a	LTP153	ltpFR	12	n/a	n/a	n/a	n/a	n/a	n/a	n/a	16	4	9	3	n/a	n/a	n/a	n/a	n/a
454710	PROB	n/a	LTP153	ltpFR	12	n/a	n/a	n/a	n/a	n/a	n/a	n/a	12	3	2	7	n/a	n/a	n/a	n/a	n/a
456191	PROB	n/a	LTP153	ltpFR	12	n/a	n/a	n/a	n/a	n/a	n/a	n/a	19	9	7	3	n/a	n/a	n/a	n/a	n/a
457664	STOP	n/a	LTP153	ltpFR	12	n/a	n/a	n/a	n/a	n/a	n/a	n/a	n/a	n/a	n/a	n/a	n/a	n/a	n/a	n/a	n/a
459569	WORD	wordpools/wasnorm_wordpool.txt	LTP153	ltpFR	12	2	0	ATOM	55	n/a	n/a	0	n/a	0	0	0	0.57763671875	0.412841796875	1	upper	zerothre.ttf
462582	START	n/a	LTP153	ltpFR	12	n/a	n/a	n/a	n/a	n/a	n/a	n/a	n/a	n/a	n/a	n/a	n/a	n/a	n/a	n/a	n/a
463596	PROB	n/a	LTP153	ltpFR	12	n/a	n/a	n/a	n/a	n/a	n/a	n/a	12	8	1	4	n/a	n/a	n/a	n/a	n/a
465061	PROB	n/a	LTP153	ltpFR	12	n/a	n/a	n/a	n/a	n/a	n/a	n/a	21	8	5	8	n/a	n/a	n/a	n/a	n/a
466808	PROB	n/a	LTP153	ltpFR	12	n/a	n/a	n/a	n/a	n/a	n/a	n/a	18	3	7	8	n/a	n/a	n/a	n/a	n/a
467874	PROB	n/a	LTP153	ltpFR	12	n/a	n/a	n/a	n/a	n/a	n/a	n/a	8	1	1	6	n/a	n/a	n/a	n/a	n/a
469072	PROB	n/a	LTP153	ltpFR	12	n/a	n/a	n/a	n/a	n/a	n/a	n/a	16	2	7	7	n/a	n/a	n/a	n/a	n/a
470344	STOP	n/a	LTP153	ltpFR	12	n/a	n/a	n/a	n/a	n/a	n/a	n/a	n/a	n/a	n/a	n/a	n/a	n/a	n/a	n/a	n/a
471402	WORD	wordpools/wasnorm_wordpool.txt	LTP153	ltpFR	12	2	0	MINK	897	n/a	n/a	1	n/a	0	0	0	0.57763671875	0.412841796875	1	upper	zerothre.ttf
474414	START	n/a	LTP153	ltpFR	12	n/a	n/a	n/a	n/a	n/a	n/a	n/a	n/a	n/a	n/a	n/a	n/a	n/a	n/a	n/a	n/a
475312	PROB	n/a	LTP153	ltpFR	12	n/a	n/a	n/a	n/a	n/a	n/a	n/a	16	8	1	7	n/a	n/a	n/a	n/a	n/a
476610	PROB	n/a	LTP153	ltpFR	12	n/a	n/a	n/a	n/a	n/a	n/a	n/a	21	9	7	6	n/a	n/a	n/a	n/a	n/a
478008	PROB	n/a	LTP153	ltpFR	12	n/a	n/a	n/a	n/a	n/a	n/a	n/a	17	5	8	4	n/a	n/a	n/a	n/a	n/a
480688	PROB	n/a	LTP153	ltpFR	12	n/a	n/a	n/a	n/a	n/a	n/a	n/a	26	8	9	9	n/a	n/a	n/a	n/a	n/a
482056	STOP	n/a	LTP153	ltpFR	12	n/a	n/a	n/a	n/a	n/a	n/a	n/a	n/a	n/a	n/a	n/a	n/a	n/a	n/a	n/a	n/a
483467	WORD	wordpools/wasnorm_wordpool.txt	LTP153	ltpFR	12	2	0	YACHT	1629	n/a	n/a	1	n/a	0	0	0	0.57763671875	0.412841796875	1	upper	zerothre.ttf
486479	START	n/a	LTP153	ltpFR	12	n/a	n/a	n/a	n/a	n/a	n/a	n/a	n/a	n/a	n/a	n/a	n/a	n/a	n/a	n/a	n/a
487461	PROB	n/a	LTP153	ltpFR	12	n/a	n/a	n/a	n/a	n/a	n/a	n/a	19	4	9	6	n/a	n/a	n/a	n/a	n/a
489125	PROB	n/a	LTP153	ltpFR	12	n/a	n/a	n/a	n/a	n/a	n/a	n/a	16	9	2	5	n/a	n/a	n/a	n/a	n/a
490789	PROB	n/a	LTP153	ltpFR	12	n/a	n/a	n/a	n/a	n/a	n/a	n/a	18	4	5	9	n/a	n/a	n/a	n/a	n/a
492187	PROB	n/a	LTP153	ltpFR	12	n/a	n/a	n/a	n/a	n/a	n/a	n/a	10	3	5	2	n/a	n/a	n/a	n/a	n/a
494232	STOP	n/a	LTP153	ltpFR	12	n/a	n/a	n/a	n/a	n/a	n/a	n/a	n/a	n/a	n/a	n/a	n/a	n/a	n/a	n/a	n/a
496332	REC_START	n/a	LTP153	ltpFR	12	2	n/a	n/a	n/a	n/a	n/a	n/a	n/a	0	0	0	n/a	n/a	n/a	n/a	n/a
497310	REC_WORD	wordpools/wasnorm_wordpool.txt	LTP153	ltpFR	12	2	0	ATOM	55	n/a	n/a	0	n/a	0	0	0	n/a	n/a	n/a	n/a	n/a
498327	REC_WORD	wordpools/wasnorm_wordpool.txt	LTP153	ltpFR	12	2	0	MOLECULE	905	n/a	n/a	1	n/a	0	0	0	n/a	n/a	n/a	n/a	n/a
499579	REC_WORD	wordpools/wasnorm_wordpool.txt	LTP153	ltpFR	12	2	0	YACHT	1629	n/a	n/a	1	n/a	0	0	0	n/a	n/a	n/a	n/a	n/a
500782	REC_WORD	wordpools/wasnorm_wordpool.txt	LTP153	ltpFR	12	2	0	MINK	897	n/a	n/a	1	n/a	0	0	0	n/a	n/a	n/a	n/a	n/a
502413	REC_WORD	wordpools/wasnorm_wordpool.txt	LTP153	ltpFR	12	2	0	TOMBSTONE	1478	n/a	n/a	1	n/a	0	0	0	n/a	n/a	n/a	n/a	n/a
503565	REC_WORD	wordpools/wasnorm_wordpool.txt	LTP153	ltpFR	12	2	0	TRAITOR	1495	n/a	n/a	1	n/a	0	0	0	n/a	n/a	n/a	n/a	n/a
507042	REC_WORD	wordpools/wasnorm_wordpool.txt	LTP153	ltpFR	12	2	0	SHIRT	1287	n/a	n/a	0	n/a	0	0	0	n/a	n/a	n/a	n/a	n/a
507890	REC_WORD	wordpools/wasnorm_wordpool.txt	LTP153	ltpFR	12	2	0	SLIME	1327	n/a	n/a	0	n/a	0	0	0	n/a	n/a	n/a	n/a	n/a
528229	REC_WORD	wordpools/wasnorm_wordpool.txt	LTP153	ltpFR	12	2	0	PARROT	1015	n/a	n/a	0	n/a	0	0	0	n/a	n/a	n/a	n/a	n/a
556979	REC_WORD	wordpools/wasnorm_wordpool.txt	LTP153	ltpFR	12	2	0	TWIN	1528	n/a	n/a	1	n/a	0	0	0	n/a	n/a	n/a	n/a	n/a
620912	WORD	wordpools/wasnorm_wordpool.txt	LTP153	ltpFR	12	3	1	BIBLE	124	n/a	n/a	0	n/a	0	0	0	0.422607421875	0.5869140625	0	lower	amplitud.ttf
624822	WORD	wordpools/wasnorm_wordpool.txt	LTP153	ltpFR	12	3	1	GROCERIES	663	n/a	n/a	0	n/a	0	0	0	0.422607421875	0.5869140625	0	lower	amplitud.ttf
628933	WORD	wordpools/wasnorm_wordpool.txt	LTP153	ltpFR	12	3	1	FUNERAL	613	n/a	n/a	0	n/a	0	0	0	0.422607421875	0.5869140625	0	lower	amplitud.ttf
633127	WORD	wordpools/wasnorm_wordpool.txt	LTP153	ltpFR	12	3	1	DIVER	476	n/a	n/a	1	n/a	0	0	0	0.422607421875	0.5869140625	0	lower	amplitud.ttf
637021	WORD	wordpools/wasnorm_wordpool.txt	LTP153	ltpFR	12	3	1	FAUCET	555	n/a	n/a	0	n/a	0	0	0	0.422607421875	0.5869140625	0	lower	amplitud.ttf
640883	WORD	wordpools/wasnorm_wordpool.txt	LTP153	ltpFR	12	3	0	WOUND	1624	n/a	n/a	0	n/a	0	0	0	0.57763671875	0.412841796875	1	upper	zerothre.ttf
645059	WORD	wordpools/wasnorm_wordpool.txt	LTP153	ltpFR	12	3	0	BUCKET	184	n/a	n/a	1	n/a	0	0	0	0.57763671875	0.412841796875	1	upper	zerothre.ttf
649253	WORD	wordpools/wasnorm_wordpool.txt	LTP153	ltpFR	12	3	0	BOOK	149	n/a	n/a	0	n/a	0	0	0	0.57763671875	0.412841796875	1	upper	zerothre.ttf
653263	WORD	wordpools/wasnorm_wordpool.txt	LTP153	ltpFR	12	3	0	CIGAR	308	n/a	n/a	0	n/a	0	0	0	0.57763671875	0.412841796875	1	upper	zerothre.ttf
657257	WORD	wordpools/wasnorm_wordpool.txt	LTP153	ltpFR	12	3	0	GUITAR	670	n/a	n/a	1	n/a	0	0	0	0.57763671875	0.412841796875	1	upper	zerothre.ttf
661152	WORD	wordpools/wasnorm_wordpool.txt	LTP153	ltpFR	12	3	1	WELL	1600	n/a	n/a	0	n/a	0	0	0	0.422607421875	0.5869140625	0	lower	amplitud.ttf
665312	WORD	wordpools/wasnorm_wordpool.txt	LTP153	ltpFR	12	3	1	CASKET	255	n/a	n/a	0	n/a	0	0	0	0.422607421875	0.5869140625	0	lower	amplitud.ttf
669306	WORD	wordpools/wasnorm_wordpool.txt	LTP153	ltpFR	12	3	1	PILOT	1070	n/a	n/a	1	n/a	0	0	0	0.422607421875	0.5869140625	0	lower	amplitud.ttf
673516	WORD	wordpools/wasnorm_wordpool.txt	LTP153	ltpFR	12	3	0	STEWARDESS	1381	n/a	n/a	1	n/a	0	0	0	0.57763671875	0.412841796875	1	upper	zerothre.ttf
677677	WORD	wordpools/wasnorm_wordpool.txt	LTP153	ltpFR	12	3	0	DENTIST	447	n/a	n/a	1	n/a	0	0	0	0.57763671875	0.412841796875	1	upper	zerothre.ttf
681771	WORD	wordpools/wasnorm_wordpool.txt	LTP153	ltpFR	12	3	0	BEAVER	109	n/a	n/a	1	n/a	0	0	0	0.57763671875	0.412841796875	1	upper	zerothre.ttf
687429	REC_START	n/a	LTP153	ltpFR	12	3	n/a	n/a	n/a	n/a	n/a	n/a	n/a	0	0	0	n/a	n/a	n/a	n/a	n/a
688157	REC_WORD	wordpools/wasnorm_wordpool.txt	LTP153	ltpFR	12	3	0	BEAVER	109	n/a	n/a	1	n/a	0	0	0	n/a	n/a	n/a	n/a	n/a
689040	REC_WORD	wordpools/wasnorm_wordpool.txt	LTP153	ltpFR	12	3	0	DENTIST	447	n/a	n/a	1	n/a	0	0	0	n/a	n/a	n/a	n/a	n/a
689778	REC_WORD	wordpools/wasnorm_wordpool.txt	LTP153	ltpFR	12	3	0	STEWARDESS	1381	n/a	n/a	1	n/a	0	0	0	n/a	n/a	n/a	n/a	n/a
690778	REC_WORD_VV	wordpools/wasnorm_wordpool.txt	LTP153	ltpFR	12	3	n/a	<>	-1	n/a	n/a	n/a	n/a	0	0	0	n/a	n/a	n/a	n/a	n/a
690961	REC_WORD	wordpools/wasnorm_wordpool.txt	LTP153	ltpFR	12	3	1	WELL	1600	n/a	n/a	0	n/a	0	0	0	n/a	n/a	n/a	n/a	n/a
693899	REC_WORD	wordpools/wasnorm_wordpool.txt	LTP153	ltpFR	12	3	1	DIVER	476	n/a	n/a	1	n/a	0	0	0	n/a	n/a	n/a	n/a	n/a
695974	REC_WORD	wordpools/wasnorm_wordpool.txt	LTP153	ltpFR	12	3	1	FUNERAL	613	n/a	n/a	0	n/a	0	0	0	n/a	n/a	n/a	n/a	n/a
696852	REC_WORD	wordpools/wasnorm_wordpool.txt	LTP153	ltpFR	12	3	1	BIBLE	124	n/a	n/a	0	n/a	0	0	0	n/a	n/a	n/a	n/a	n/a
697880	REC_WORD	wordpools/wasnorm_wordpool.txt	LTP153	ltpFR	12	3	0	BOOK	149	n/a	n/a	0	n/a	0	0	0	n/a	n/a	n/a	n/a	n/a
706461	REC_WORD	wordpools/wasnorm_wordpool.txt	LTP153	ltpFR	12	3	0	BEAVER	109	n/a	n/a	1	n/a	0	0	0	n/a	n/a	n/a	n/a	n/a
708830	REC_WORD_VV	wordpools/wasnorm_wordpool.txt	LTP153	ltpFR	12	3	n/a	<>	-1	n/a	n/a	n/a	n/a	0	0	0	n/a	n/a	n/a	n/a	n/a
713041	REC_WORD	wordpools/wasnorm_wordpool.txt	LTP153	ltpFR	12	3	n/a	ELK	526	n/a	n/a	n/a	n/a	0	0	0	n/a	n/a	n/a	n/a	n/a
716178	REC_WORD	wordpools/wasnorm_wordpool.txt	LTP153	ltpFR	12	3	1	FAUCET	555	n/a	n/a	0	n/a	0	0	0	n/a	n/a	n/a	n/a	n/a
724694	REC_WORD	wordpools/wasnorm_wordpool.txt	LTP153	ltpFR	12	3	0	WOUND	1624	n/a	n/a	0	n/a	0	0	0	n/a	n/a	n/a	n/a	n/a
726804	REC_WORD_VV	wordpools/wasnorm_wordpool.txt	LTP153	ltpFR	12	3	n/a	<>	-1	n/a	n/a	n/a	n/a	0	0	0	n/a	n/a	n/a	n/a	n/a
731399	REC_WORD	wordpools/wasnorm_wordpool.txt	LTP153	ltpFR	12	3	1	PILOT	1070	n/a	n/a	1	n/a	0	0	0	n/a	n/a	n/a	n/a	n/a
737241	REC_WORD	wordpools/wasnorm_wordpool.txt	LTP153	ltpFR	12	3	n/a	GROCERY	664	n/a	n/a	n/a	n/a	0	0	0	n/a	n/a	n/a	n/a	n/a
743476	REC_WORD_VV	wordpools/wasnorm_wordpool.txt	LTP153	ltpFR	12	3	n/a	<>	-1	n/a	n/a	n/a	n/a	0	0	0	n/a	n/a	n/a	n/a	n/a
852582	WORD	wordpools/wasnorm_wordpool.txt	LTP153	ltpFR	12	4	0	LAMP	798	n/a	n/a	1	n/a	0	0	0	0.57763671875	0.412841796875	1	upper	zerothre.ttf
856526	WORD	wordpools/wasnorm_wordpool.txt	LTP153	ltpFR	12	4	0	SHUTTER	1300	n/a	n/a	1	n/a	0	0	0	0.57763671875	0.412841796875	1	upper	zerothre.ttf
860421	WORD	wordpools/wasnorm_wordpool.txt	LTP153	ltpFR	12	4	0	BARN	89	n/a	n/a	1	n/a	0	0	0	0.57763671875	0.412841796875	1	upper	zerothre.ttf
864531	WORD	wordpools/wasnorm_wordpool.txt	LTP153	ltpFR	12	4	0	AMBULANCE	19	n/a	n/a	1	n/a	0	0	0	0.57763671875	0.412841796875	1	upper	zerothre.ttf
868442	WORD	wordpools/wasnorm_wordpool.txt	LTP153	ltpFR	12	4	0	STAPLE	1371	n/a	n/a	0	n/a	0	0	0	0.57763671875	0.412841796875	1	upper	zerothre.ttf
872436	WORD	wordpools/wasnorm_wordpool.txt	LTP153	ltpFR	12	4	0	WHISKERS	1605	n/a	n/a	0	n/a	0	0	0	0.57763671875	0.412841796875	1	upper	zerothre.ttf
876397	WORD	wordpools/wasnorm_wordpool.txt	LTP153	ltpFR	12	4	0	RIBBON	1189	n/a	n/a	0	n/a	0	0	0	0.57763671875	0.412841796875	1	upper	zerothre.ttf
880574	WORD	wordpools/wasnorm_wordpool.txt	LTP153	ltpFR	12	4	0	VEHICLE	1553	n/a	n/a	1	n/a	0	0	0	0.57763671875	0.412841796875	1	upper	zerothre.ttf
884418	WORD	wordpools/wasnorm_wordpool.txt	LTP153	ltpFR	12	4	0	MOTOR	922	n/a	n/a	1	n/a	0	0	0	0.57763671875	0.412841796875	1	upper	zerothre.ttf
888412	WORD	wordpools/wasnorm_wordpool.txt	LTP153	ltpFR	12	4	0	MOTH	920	n/a	n/a	0	n/a	0	0	0	0.57763671875	0.412841796875	1	upper	zerothre.ttf
892440	WORD	wordpools/wasnorm_wordpool.txt	LTP153	ltpFR	12	4	0	FURNITURE	616	n/a	n/a	1	n/a	0	0	0	0.57763671875	0.412841796875	1	upper	zerothre.ttf
896633	WORD	wordpools/wasnorm_wordpool.txt	LTP153	ltpFR	12	4	0	BRICK	172	n/a	n/a	0	n/a	0	0	0	0.57763671875	0.412841796875	1	upper	zerothre.ttf
900544	WORD	wordpools/wasnorm_wordpool.txt	LTP153	ltpFR	12	4	0	HERD	705	n/a	n/a	1	n/a	0	0	0	0.57763671875	0.412841796875	1	upper	zerothre.ttf
904505	WORD	wordpools/wasnorm_wordpool.txt	LTP153	ltpFR	12	4	0	BUTTERFLY	206	n/a	n/a	0	n/a	0	0	0	0.57763671875	0.412841796875	1	upper	zerothre.ttf
908582	WORD	wordpools/wasnorm_wordpool.txt	LTP153	ltpFR	12	4	0	BOX	159	n/a	n/a	0	n/a	0	0	0	0.57763671875	0.412841796875	1	upper	zerothre.ttf
912559	WORD	wordpools/wasnorm_wordpool.txt	LTP153	ltpFR	12	4	0	TOMB	1477	n/a	n/a	1	n/a	0	0	0	0.57763671875	0.412841796875	1	upper	zerothre.ttf
915572	START	n/a	LTP153	ltpFR	12	n/a	n/a	n/a	n/a	n/a	n/a	n/a	n/a	n/a	n/a	n/a	n/a	n/a	n/a	n/a	n/a
916520	PROB	n/a	LTP153	ltpFR	12	n/a	n/a	n/a	n/a	n/a	n/a	n/a	12	4	4	4	n/a	n/a	n/a	n/a	n/a
918384	PROB	n/a	LTP153	ltpFR	12	n/a	n/a	n/a	n/a	n/a	n/a	n/a	18	9	8	1	n/a	n/a	n/a	n/a	n/a
919799	PROB	n/a	LTP153	ltpFR	12	n/a	n/a	n/a	n/a	n/a	n/a	n/a	15	4	3	8	n/a	n/a	n/a	n/a	n/a
921147	PROB	n/a	LTP153	ltpFR	12	n/a	n/a	n/a	n/a	n/a	n/a	n/a	16	4	5	7	n/a	n/a	n/a	n/a	n/a
922628	PROB	n/a	LTP153	ltpFR	12	n/a	n/a	n/a	n/a	n/a	n/a	n/a	14	3	9	2	n/a	n/a	n/a	n/a	n/a
924175	PROB	n/a	LTP153	ltpFR	12	n/a	n/a	n/a	n/a	n/a	n/a	n/a	15	5	5	5	n/a	n/a	n/a	n/a	n/a
925207	PROB	n/a	LTP153	ltpFR	12	n/a	n/a	n/a	n/a	n/a	n/a	n/a	11	3	3	5	n/a	n/a	n/a	n/a	n/a
926805	PROB	n/a	LTP153	ltpFR	12	n/a	n/a	n/a	n/a	n/a	n/a	n/a	8	2	3	3	n/a	n/a	n/a	n/a	n/a
928269	PROB	n/a	LTP153	ltpFR	12	n/a	n/a	n/a	n/a	n/a	n/a	n/a	13	3	9	1	n/a	n/a	n/a	n/a	n/a
929651	PROB	n/a	LTP153	ltpFR	12	n/a	n/a	n/a	n/a	n/a	n/a	n/a	16	9	6	1	n/a	n/a	n/a	n/a	n/a
930992	STOP	n/a	LTP153	ltpFR	12	n/a	n/a	n/a	n/a	n/a	n/a	n/a	n/a	n/a	n/a	n/a	n/a	n/a	n/a	n/a	n/a
933429	REC_START	n/a	LTP153	ltpFR	12	4	n/a	n/a	n/a	n/a	n/a	n/a	n/a	0	0	0	n/a	n/a	n/a	n/a	n/a
934940	REC_WORD	wordpools/wasnorm_wordpool.txt	LTP153	ltpFR	12	4	0	BARN	89	n/a	n/a	1	n/a	0	0	0	n/a	n/a	n/a	n/a	n/a
935868	REC_WORD	wordpools/wasnorm_wordpool.txt	LTP153	ltpFR	12	4	0	LAMP	798	n/a	n/a	1	n/a	0	0	0	n/a	n/a	n/a	n/a	n/a
937644	REC_WORD	wordpools/wasnorm_wordpool.txt	LTP153	ltpFR	12	4	0	SHUTTER	1300	n/a	n/a	1	n/a	0	0	0	n/a	n/a	n/a	n/a	n/a
938797	REC_WORD	wordpools/wasnorm_wordpool.txt	LTP153	ltpFR	12	4	0	AMBULANCE	19	n/a	n/a	1	n/a	0	0	0	n/a	n/a	n/a	n/a	n/a
939769	REC_WORD	wordpools/wasnorm_wordpool.txt	LTP153	ltpFR	12	4	0	VEHICLE	1553	n/a	n/a	1	n/a	0	0	0	n/a	n/a	n/a	n/a	n/a
941061	REC_WORD	wordpools/wasnorm_wordpool.txt	LTP153	ltpFR	12	4	0	STAPLE	1371	n/a	n/a	0	n/a	0	0	0	n/a	n/a	n/a	n/a	n/a
942224	REC_WORD	wordpools/wasnorm_wordpool.txt	LTP153	ltpFR	12	4	0	MOTH	920	n/a	n/a	0	n/a	0	0	0	n/a	n/a	n/a	n/a	n/a
943481	REC_WORD	wordpools/wasnorm_wordpool.txt	LTP153	ltpFR	12	4	0	BUTTERFLY	206	n/a	n/a	0	n/a	0	0	0	n/a	n/a	n/a	n/a	n/a
944788	REC_WORD	wordpools/wasnorm_wordpool.txt	LTP153	ltpFR	12	4	0	WHISKERS	1605	n/a	n/a	0	n/a	0	0	0	n/a	n/a	n/a	n/a	n/a
945788	REC_WORD_VV	wordpools/wasnorm_wordpool.txt	LTP153	ltpFR	12	4	n/a	<>	-1	n/a	n/a	n/a	n/a	0	0	0	n/a	n/a	n/a	n/a	n/a
982323	REC_WORD	wordpools/wasnorm_wordpool.txt	LTP153	ltpFR	12	4	0	BRICK	172	n/a	n/a	0	n/a	0	0	0	n/a	n/a	n/a	n/a	n/a
984917	REC_WORD	wordpools/wasnorm_wordpool.txt	LTP153	ltpFR	12	4	0	BOX	159	n/a	n/a	0	n/a	0	0	0	n/a	n/a	n/a	n/a	n/a
1018268	WORD	wordpools/wasnorm_wordpool.txt	LTP153	ltpFR	12	5	1	JET	756	n/a	n/a	0	n/a	0	0	0	0.422607421875	0.5869140625	0	lower	amplitud.ttf
1022279	WORD	wordpools/wasnorm_wordpool.txt	LTP153	ltpFR	12	5	1	CONDUCTOR	362	n/a	n/a	1	n/a	0	0	0	0.422607421875	0.5869140625	0	lower	amplitud.ttf
1026173	WORD	wordpools/wasnorm_wordpool.txt	LTP153	ltpFR	12	5	1	NOMAD	955	n/a	n/a	1	n/a	0	0	0	0.422607421875	0.5869140625	0	lower	amplitud.ttf
1030067	WORD	wordpools/wasnorm_wordpool.txt	LTP153	ltpFR	12	5	1	HELICOPTER	701	n/a	n/a	0	n/a	0	0	0	0.422607421875	0.5869140625	0	lower	amplitud.ttf
1033962	WORD	wordpools/wasnorm_wordpool.txt	LTP153	ltpFR	12	5	1	CHISEL	305	n/a	n/a	0	n/a	0	0	0	0.422607421875	0.5869140625	0	lower	amplitud.ttf
1038039	WORD	wordpools/wasnorm_wordpool.txt	LTP153	ltpFR	12	5	1	PEBBLE	1035	n/a	n/a	0	n/a	0	0	0	0.422607421875	0.5869140625	0	lower	amplitud.ttf
1042183	WORD	wordpools/wasnorm_wordpool.txt	LTP153	ltpFR	12	5	1	ORCHESTRA	981	n/a	n/a	0	n/a	0	0	0	0.422607421875	0.5869140625	0	lower	amplitud.ttf
1046010	WORD	wordpools/wasnorm_wordpool.txt	LTP153	ltpFR	12	5	1	BELL	118	n/a	n/a	0	n/a	0	0	0	0.422607421875	0.5869140625	0	lower	amplitud.ttf
1050071	WORD	wordpools/wasnorm_wordpool.txt	LTP153	ltpFR	12	5	1	DAISY	435	n/a	n/a	1	n/a	0	0	0	0.422607421875	0.5869140625	0	lower	amplitud.ttf
1054165	WORD	wordpools/wasnorm_wordpool.txt	LTP153	ltpFR	12	5	1	TURNIP	1521	n/a	n/a	1	n/a	0	0	0	0.422607421875	0.5869140625	0	lower	amplitud.ttf
1058159	WORD	wordpools/wasnorm_wordpool.txt	LTP153	ltpFR	12	5	1	ROBBER	1197	n/a	n/a	1	n/a	0	0	0	0.422607421875	0.5869140625	0	lower	amplitud.ttf
1062219	WORD	wordpools/wasnorm_wordpool.txt	LTP153	ltpFR	12	5	1	MARINE	869	n/a	n/a	1	n/a	0	0	0	0.422607421875	0.5869140625	0	lower	amplitud.ttf
1066114	WORD	wordpools/wasnorm_wordpool.txt	LTP153	ltpFR	12	5	1	SOCKET	1340	n/a	n/a	0	n/a	0	0	0	0.422607421875	0.5869140625	0	lower	amplitud.ttf
1070024	WORD	wordpools/wasnorm_wordpool.txt	LTP153	ltpFR	12	5	1	CORD	379	n/a	n/a	0	n/a	0	0	0	0.422607421875	0.5869140625	0	lower	amplitud.ttf
1073935	WORD	wordpools/wasnorm_wordpool.txt	LTP153	ltpFR	12	5	1	SILK	1307	n/a	n/a	0	n/a	0	0	0	0.422607421875	0.5869140625	0	lower	amplitud.ttf
1078029	WORD	wordpools/wasnorm_wordpool.txt	LTP153	ltpFR	12	5	1	SKIN	1318	n/a	n/a	0	n/a	0	0	0	0.422607421875	0.5869140625	0	lower	amplitud.ttf
1081041	START	n/a	LTP153	ltpFR	12	n/a	n/a	n/a	n/a	n/a	n/a	n/a	n/a	n/a	n/a	n/a	n/a	n/a	n/a	n/a	n/a
1081990	PROB	n/a	LTP153	ltpFR	12	n/a	n/a	n/a	n/a	n/a	n/a	n/a	16	7	3	6	n/a	n/a	n/a	n/a	n/a
1083721	PROB	n/a	LTP153	ltpFR	12	n/a	n/a	n/a	n/a	n/a	n/a	n/a	17	7	6	4	n/a	n/a	n/a	n/a	n/a
1085202	PROB	n/a	LTP153	ltpFR	12	n/a	n/a	n/a	n/a	n/a	n/a	n/a	13	6	1	6	n/a	n/a	n/a	n/a	n/a
1087215	PROB	n/a	LTP153	ltpFR	12	n/a	n/a	n/a	n/a	n/a	n/a	n/a	11	4	5	2	n/a	n/a	n/a	n/a	n/a
1088544	STOP	n/a	LTP153	ltpFR	12	n/a	n/a	n/a	n/a	n/a	n/a	n/a	n/a	n/a	n/a	n/a	n/a	n/a	n/a	n/a	n/a
1090845	REC_START	n/a	LTP153	ltpFR	12	5	n/a	n/a	n/a	n/a	n/a	n/a	n/a	0	0	0	n/a	n/a	n/a	n/a	n/a
1092810	REC_WORD	wordpools/wasnorm_wordpool.txt	LTP153	ltpFR	12	5	1	JET	756	n/a	n/a	0	n/a	0	0	0	n/a	n/a	n/a	n/a	n/a
1093653	REC_WORD	wordpools/wasnorm_wordpool.txt	LTP153	ltpFR	12	5	1	HELICOPTER	701	n/a	n/a	0	n/a	0	0	0	n/a	n/a	n/a	n/a	n/a
1094653	REC_WORD_VV	wordpools/wasnorm_wordpool.txt	LTP153	ltpFR	12	5	n/a	<>	-1	n/a	n/a	n/a	n/a	0	0	0	n/a	n/a	n/a	n/a	n/a
1094786	REC_WORD	wordpools/wasnorm_wordpool.txt	LTP153	ltpFR	12	5	1	CONDUCTOR	362	n/a	n/a	1	n/a	0	0	0	n/a	n/a	n/a	n/a	n/a
1097270	REC_WORD	wordpools/wasnorm_wordpool.txt	LTP153	ltpFR	12	5	1	ROBBER	1197	n/a	n/a	1	n/a	0	0	0	n/a	n/a	n/a	n/a	n/a
1098457	REC_WORD	wordpools/wasnorm_wordpool.txt	LTP153	ltpFR	12	5	1	MARINE	869	n/a	n/a	1	n/a	0	0	0	n/a	n/a	n/a	n/a	n/a
1110779	REC_WORD	wordpools/wasnorm_wordpool.txt	LTP153	ltpFR	12	5	1	NOMAD	955	n/a	n/a	1	n/a	0	0	0	n/a	n/a	n/a	n/a	n/a
1113802	REC_WORD	wordpools/wasnorm_wordpool.txt	LTP153	ltpFR	12	5	1	SKIN	1318	n/a	n/a	0	n/a	0	0	0	n/a	n/a	n/a	n/a	n/a
1115663	REC_WORD	wordpools/wasnorm_wordpool.txt	LTP153	ltpFR	12	5	1	DAISY	435	n/a	n/a	1	n/a	0	0	0	n/a	n/a	n/a	n/a	n/a
1116432	REC_WORD	wordpools/wasnorm_wordpool.txt	LTP153	ltpFR	12	5	1	TURNIP	1521	n/a	n/a	1	n/a	0	0	0	n/a	n/a	n/a	n/a	n/a
1159458	REC_WORD	wordpools/wasnorm_wordpool.txt	LTP153	ltpFR	12	5	1	SILK	1307	n/a	n/a	0	n/a	0	0	0	n/a	n/a	n/a	n/a	n/a
1179761	START	n/a	LTP153	ltpFR	12	n/a	n/a	n/a	n/a	n/a	n/a	n/a	n/a	n/a	n/a	n/a	n/a	n/a	n/a	n/a	n/a
1181275	PROB	n/a	LTP153	ltpFR	12	n/a	n/a	n/a	n/a	n/a	n/a	n/a	18	9	7	2	n/a	n/a	n/a	n/a	n/a
1182689	PROB	n/a	LTP153	ltpFR	12	n/a	n/a	n/a	n/a	n/a	n/a	n/a	8	5	2	1	n/a	n/a	n/a	n/a	n/a
1183872	PROB	n/a	LTP153	ltpFR	12	n/a	n/a	n/a	n/a	n/a	n/a	n/a	8	3	2	3	n/a	n/a	n/a	n/a	n/a
1185269	PROB	n/a	LTP153	ltpFR	12	n/a	n/a	n/a	n/a	n/a	n/a	n/a	15	7	5	3	n/a	n/a	n/a	n/a	n/a
1186776	STOP	n/a	LTP153	ltpFR	12	n/a	n/a	n/a	n/a	n/a	n/a	n/a	n/a	n/a	n/a	n/a	n/a	n/a	n/a	n/a	n/a
1188764	WORD	wordpools/wasnorm_wordpool.txt	LTP153	ltpFR	12	6	1	SWAN	1417	n/a	n/a	1	n/a	0	0	0	0.422607421875	0.5869140625	0	lower	amplitud.ttf
1191776	START	n/a	LTP153	ltpFR	12	n/a	n/a	n/a	n/a	n/a	n/a	n/a	n/a	n/a	n/a	n/a	n/a	n/a	n/a	n/a	n/a
1192791	PROB	n/a	LTP153	ltpFR	12	n/a	n/a	n/a	n/a	n/a	n/a	n/a	14	8	2	4	n/a	n/a	n/a	n/a	n/a
1194222	PROB	n/a	LTP153	ltpFR	12	n/a	n/a	n/a	n/a	n/a	n/a	n/a	18	8	8	2	n/a	n/a	n/a	n/a	n/a
1195454	PROB	n/a	LTP153	ltpFR	12	n/a	n/a	n/a	n/a	n/a	n/a	n/a	16	7	2	7	n/a	n/a	n/a	n/a	n/a
1196785	PROB	n/a	LTP153	ltpFR	12	n/a	n/a	n/a	n/a	n/a	n/a	n/a	22	7	7	8	n/a	n/a	n/a	n/a	n/a
1198457	STOP	n/a	LTP153	ltpFR	12	n/a	n/a	n/a	n/a	n/a	n/a	n/a	n/a	n/a	n/a	n/a	n/a	n/a	n/a	n/a	n/a
1200663	WORD	wordpools/wasnorm_wordpool.txt	LTP153	ltpFR	12	6	1	MARKET	871	n/a	n/a	0	n/a	0	0	0	0.422607421875	0.5869140625	0	lower	amplitud.ttf
1203675	START	n/a	LTP153	ltpFR	12	n/a	n/a	n/a	n/a	n/a	n/a	n/a	n/a	n/a	n/a	n/a	n/a	n/a	n/a	n/a	n/a
1204707	PROB	n/a	LTP153	ltpFR	12	n/a	n/a	n/a	n/a	n/a	n/a	n/a	14	6	4	4	n/a	n/a	n/a	n/a	n/a
1206254	PROB	n/a	LTP153	ltpFR	12	n/a	n/a	n/a	n/a	n/a	n/a	n/a	8	1	4	3	n/a	n/a	n/a	n/a	n/a
1207903	PROB	n/a	LTP153	ltpFR	12	n/a	n/a	n/a	n/a	n/a	n/a	n/a	11	4	2	5	n/a	n/a	n/a	n/a	n/a
1209433	PROB	n/a	LTP153	ltpFR	12	n/a	n/a	n/a	n/a	n/a	n/a	n/a	20	6	8	6	n/a	n/a	n/a	n/a	n/a
1210912	STOP	n/a	LTP153	ltpFR	12	n/a	n/a	n/a	n/a	n/a	n/a	n/a	n/a	n/a	n/a	n/a	n/a	n/a	n/a	n/a	n/a
1212795	WORD	wordpools/wasnorm_wordpool.txt	LTP153	ltpFR	12	6	1	SINK	1309	n/a	n/a	0	n/a	0	0	0	0.422607421875	0.5869140625	0	lower	amplitud.ttf
1215807	START	n/a	LTP153	ltpFR	12	n/a	n/a	n/a	n/a	n/a	n/a	n/a	n/a	n/a	n/a	n/a	n/a	n/a	n/a	n/a	n/a
1216972	PROB	n/a	LTP153	ltpFR	12	n/a	n/a	n/a	n/a	n/a	n/a	n/a	11	9	1	1	n/a	n/a	n/a	n/a	n/a
1218286	PROB	n/a	LTP153	ltpFR	12	n/a	n/a	n/a	n/a	n/a	n/a	n/a	14	4	4	6	n/a	n/a	n/a	n/a	n/a
1219817	PROB	n/a	LTP153	ltpFR	12	n/a	n/a	n/a	n/a	n/a	n/a	n/a	13	8	1	4	n/a	n/a	n/a	n/a	n/a
1221249	PROB	n/a	LTP153	ltpFR	12	n/a	n/a	n/a	n/a	n/a	n/a	n/a	13	8	2	3	n/a	n/a	n/a	n/a	n/a
1222345	STOP	n/a	LTP153	ltpFR	12	n/a	n/a	n/a	n/a	n/a	n/a	n/a	n/a	n/a	n/a	n/a	n/a	n/a	n/a	n/a	n/a
1224643	WORD	wordpools/wasnorm_wordpool.txt	LTP153	ltpFR	12	6	1	MOTORCYCLE	923	n/a	n/a	0	n/a	0	0	0	0.422607421875	0.5869140625	0	lower	amplitud.ttf
1227656	START	n/a	LTP153	ltpFR	12	n/a	n/a	n/a	n/a	n/a	n/a	n/a	n/a	n/a	n/a	n/a	n/a	n/a	n/a	n/a	n/a
1228638	PROB	n/a	LTP153	ltpFR	12	n/a	n/a	n/a	n/a	n/a	n/a	n/a	14	3	3	8	n/a	n/a	n/a	n/a	n/a
1229919	PROB	n/a	LTP153	ltpFR	12	n/a	n/a	n/a	n/a	n/a	n/a	n/a	15	7	6	2	n/a	n/a	n/a	n/a	n/a
1231234	PROB	n/a	LTP153	ltpFR	12	n/a	n/a	n/a	n/a	n/a	n/a	n/a	14	2	9	3	n/a	n/a	n/a	n/a	n/a
1232781	PROB	n/a	LTP153	ltpFR	12	n/a	n/a	n/a	n/a	n/a	n/a	n/a	18	6	6	6	n/a	n/a	n/a	n/a	n/a
1234096	PROB	n/a	LTP153	ltpFR	12	n/a	n/a	n/a	n/a	n/a	n/a	n/a	17	8	8	1	n/a	n/a	n/a	n/a	n/a
1235609	STOP	n/a	LTP153	ltpFR	12	n/a	n/a	n/a	n/a	n/a	n/a	n/a	n/a	n/a	n/a	n/a	n/a	n/a	n/a	n/a	n/a
1236559	WORD	wordpools/wasnorm_wordpool.txt	LTP153	ltpFR	12	6	1	TILE	1468	n/a	n/a	0	n/a	0	0	0	0.422607421875	0.5869140625	0	lower	amplitud.ttf
1239572	START	n/a	LTP153	ltpFR	12	n/a	n/a	n/a	n/a	n/a	n/a	n/a	n/a	n/a	n/a	n/a	n/a	n/a	n/a	n/a	n/a
1240486	PROB	n/a	LTP153	ltpFR	12	n/a	n/a	n/a	n/a	n/a	n/a	n/a	22	8	7	8	n/a	n/a	n/a	n/a	n/a
1242851	PROB	n/a	LTP153	ltpFR	12	n/a	n/a	n/a	n/a	n/a	n/a	n/a	14	6	4	4	n/a	n/a	n/a	n/a	n/a
1244530	PROB	n/a	LTP153	ltpFR	12	n/a	n/a	n/a	n/a	n/a	n/a	n/a	14	1	6	7	n/a	n/a	n/a	n/a	n/a
1245962	PROB	n/a	LTP153	ltpFR	12	n/a	n/a	n/a	n/a	n/a	n/a	n/a	12	6	3	3	n/a	n/a	n/a	n/a	n/a
1247273	STOP	n/a	LTP153	ltpFR	12	n/a	n/a	n/a	n/a	n/a	n/a	n/a	n/a	n/a	n/a	n/a	n/a	n/a	n/a	n/a	n/a
1248441	WORD	wordpools/wasnorm_wordpool.txt	LTP153	ltpFR	12	6	1	POTTERY	1116	n/a	n/a	0	n/a	0	0	0	0.422607421875	0.5869140625	0	lower	amplitud.ttf
1251454	START	n/a	LTP153	ltpFR	12	n/a	n/a	n/a	n/a	n/a	n/a	n/a	n/a	n/a	n/a	n/a	n/a	n/a	n/a	n/a	n/a
1252402	PROB	n/a	LTP153	ltpFR	12	n/a	n/a	n/a	n/a	n/a	n/a	n/a	19	7	3	9	n/a	n/a	n/a	n/a	n/a
1253567	PROB	n/a	LTP153	ltpFR	12	n/a	n/a	n/a	n/a	n/a	n/a	n/a	9	1	3	5	n/a	n/a	n/a	n/a	n/a
1254932	PROB	n/a	LTP153	ltpFR	12	n/a	n/a	n/a	n/a	n/a	n/a	n/a	18	7	4	7	n/a	n/a	n/a	n/a	n/a
1256396	PROB	n/a	LTP153	ltpFR	12	n/a	n/a	n/a	n/a	n/a	n/a	n/a	11	3	2	6	n/a	n/a	n/a	n/a	n/a
1257544	PROB	n/a	LTP153	ltpFR	12	n/a	n/a	n/a	n/a	n/a	n/a	n/a	19	6	4	9	n/a	n/a	n/a	n/a	n/a
1258528	STOP	n/a	LTP153	ltpFR	12	n/a	n/a	n/a	n/a	n/a	n/a	n/a	n/a	n/a	n/a	n/a	n/a	n/a	n/a	n/a	n/a
1260623	WORD	wordpools/wasnorm_wordpool.txt	LTP153	ltpFR	12	6	1	SPY	1360	n/a	n/a	1	n/a	0	0	0	0.422607421875	0.5869140625	0	lower	amplitud.ttf
1263636	START	n/a	LTP153	ltpFR	12	n/a	n/a	n/a	n/a	n/a	n/a	n/a	n/a	n/a	n/a	n/a	n/a	n/a	n/a	n/a	n/a
1264467	PROB	n/a	LTP153	ltpFR	12	n/a	n/a	n/a	n/a	n/a	n/a	n/a	23	9	6	8	n/a	n/a	n/a	n/a	n/a
1267396	PROB	n/a	LTP153	ltpFR	12	n/a	n/a	n/a	n/a	n/a	n/a	n/a	11	2	8	1	n/a	n/a	n/a	n/a	n/a
1269227	PROB	n/a	LTP153	ltpFR	12	n/a	n/a	n/a	n/a	n/a	n/a	n/a	19	7	4	8	n/a	n/a	n/a	n/a	n/a
1270993	STOP	n/a	LTP153	ltpFR	12	n/a	n/a	n/a	n/a	n/a	n/a	n/a	n/a	n/a	n/a	n/a	n/a	n/a	n/a	n/a	n/a
1272572	WORD	wordpools/wasnorm_wordpool.txt	LTP153	ltpFR	12	6	1	TOURIST	1488	n/a	n/a	1	n/a	0	0	0	0.422607421875	0.5869140625	0	lower	amplitud.ttf
1275584	START	n/a	LTP153	ltpFR	12	n/a	n/a	n/a	n/a	n/a	n/a	n/a	n/a	n/a	n/a	n/a	n/a	n/a	n/a	n/a	n/a
1276766	PROB	n/a	LTP153	ltpFR	12	n/a	n/a	n/a	n/a	n/a	n/a	n/a	15	6	3	6	n/a	n/a	n/a	n/a	n/a
1278147	PROB	n/a	LTP153	ltpFR	12	n/a	n/a	n/a	n/a	n/a	n/a	n/a	18	7	6	5	n/a	n/a	n/a	n/a	n/a
1279794	PROB	n/a	LTP153	ltpFR	12	n/a	n/a	n/a	n/a	n/a	n/a	n/a	10	2	3	5	n/a	n/a	n/a	n/a	n/a
1280926	PROB	n/a	LTP153	ltpFR	12	n/a	n/a	n/a	n/a	n/a	n/a	n/a	17	2	9	6	n/a	n/a	n/a	n/a	n/a
1282553	STOP	n/a	LTP153	ltpFR	12	n/a	n/a	n/a	n/a	n/a	n/a	n/a	n/a	n/a	n/a	n/a	n/a	n/a	n/a	n/a	n/a
1284770	WORD	wordpools/wasnorm_wordpool.txt	LTP153	ltpFR	12	6	1	MECHANIC	884	n/a	n/a	1	n/a	0	0	0	0.422607421875	0.5869140625	0	lower	amplitud.ttf
1287783	START	n/a	LTP153	ltpFR	12	n/a	n/a	n/a	n/a	n/a	n/a	n/a	n/a	n/a	n/a	n/a	n/a	n/a	n/a	n/a	n/a
1288964	PROB	n/a	LTP153	ltpFR	12	n/a	n/a	n/a	n/a	n/a	n/a	n/a	17	8	5	4	n/a	n/a	n/a	n/a	n/a
1290445	PROB	n/a	LTP153	ltpFR	12	n/a	n/a	n/a	n/a	n/a	n/a	n/a	17	7	3	7	n/a	n/a	n/a	n/a	n/a
1291527	PROB	n/a	LTP153	ltpFR	12	n/a	n/a	n/a	n/a	n/a	n/a	n/a	18	5	5	8	n/a	n/a	n/a	n/a	n/a
1292609	PROB	n/a	LTP153	ltpFR	12	n/a	n/a	n/a	n/a	n/a	n/a	n/a	16	9	4	3	n/a	n/a	n/a	n/a	n/a
1293923	PROB	n/a	LTP153	ltpFR	12	n/a	n/a	n/a	n/a	n/a	n/a	n/a	19	7	8	4	n/a	n/a	n/a	n/a	n/a
1295505	STOP	n/a	LTP153	ltpFR	12	n/a	n/a	n/a	n/a	n/a	n/a	n/a	n/a	n/a	n/a	n/a	n/a	n/a	n/a	n/a	n/a
1296837	WORD	wordpools/wasnorm_wordpool.txt	LTP153	ltpFR	12	6	1	BUS	201	n/a	n/a	0	n/a	0	0	0	0.422607421875	0.5869140625	0	lower	amplitud.ttf
1299849	START	n/a	LTP153	ltpFR	12	n/a	n/a	n/a	n/a	n/a	n/a	n/a	n/a	n/a	n/a	n/a	n/a	n/a	n/a	n/a	n/a
1300897	PROB	n/a	LTP153	ltpFR	12	n/a	n/a	n/a	n/a	n/a	n/a	n/a	11	2	5	4	n/a	n/a	n/a	n/a	n/a
1302161	PROB	n/a	LTP153	ltpFR	12	n/a	n/a	n/a	n/a	n/a	n/a	n/a	13	1	4	8	n/a	n/a	n/a	n/a	n/a
1303393	PROB	n/a	LTP153	ltpFR	12	n/a	n/a	n/a	n/a	n/a	n/a	n/a	17	7	5	5	n/a	n/a	n/a	n/a	n/a
1304641	PROB	n/a	LTP153	ltpFR	12	n/a	n/a	n/a	n/a	n/a	n/a	n/a	16	4	3	9	n/a	n/a	n/a	n/a	n/a
1305840	PROB	n/a	LTP153	ltpFR	12	n/a	n/a	n/a	n/a	n/a	n/a	n/a	8	3	3	2	n/a	n/a	n/a	n/a	n/a
1306937	STOP	n/a	LTP153	ltpFR	12	n/a	n/a	n/a	n/a	n/a	n/a	n/a	n/a	n/a	n/a	n/a	n/a	n/a	n/a	n/a	n/a
1308984	WORD	wordpools/wasnorm_wordpool.txt	LTP153	ltpFR	12	6	1	PERCH	1048	n/a	n/a	0	n/a	0	0	0	0.422607421875	0.5869140625	0	lower	amplitud.ttf
1311997	START	n/a	LTP153	ltpFR	12	n/a	n/a	n/a	n/a	n/a	n/a	n/a	n/a	n/a	n/a	n/a	n/a	n/a	n/a	n/a	n/a
1313061	PROB	n/a	LTP153	ltpFR	12	n/a	n/a	n/a	n/a	n/a	n/a	n/a	18	2	5	8	n/a	n/a	n/a	n/a	n/a
1314626	PROB	n/a	LTP153	ltpFR	12	n/a	n/a	n/a	n/a	n/a	n/a	n/a	17	8	6	3	n/a	n/a	n/a	n/a	n/a
1317954	PROB	n/a	LTP153	ltpFR	12	n/a	n/a	n/a	n/a	n/a	n/a	n/a	14	6	6	2	n/a	n/a	n/a	n/a	n/a
1319113	STOP	n/a	LTP153	ltpFR	12	n/a	n/a	n/a	n/a	n/a	n/a	n/a	n/a	n/a	n/a	n/a	n/a	n/a	n/a	n/a	n/a
1320884	WORD	wordpools/wasnorm_wordpool.txt	LTP153	ltpFR	12	6	1	KITCHEN	778	n/a	n/a	0	n/a	0	0	0	0.422607421875	0.5869140625	0	lower	amplitud.ttf
1323897	START	n/a	LTP153	ltpFR	12	n/a	n/a	n/a	n/a	n/a	n/a	n/a	n/a	n/a	n/a	n/a	n/a	n/a	n/a	n/a	n/a
1324727	PROB	n/a	LTP153	ltpFR	12	n/a	n/a	n/a	n/a	n/a	n/a	n/a	11	4	3	4	n/a	n/a	n/a	n/a	n/a
1326192	PROB	n/a	LTP153	ltpFR	12	n/a	n/a	n/a	n/a	n/a	n/a	n/a	9	1	5	3	n/a	n/a	n/a	n/a	n/a
1327556	PROB	n/a	LTP153	ltpFR	12	n/a	n/a	n/a	n/a	n/a	n/a	n/a	15	3	6	6	n/a	n/a	n/a	n/a	n/a
1329171	PROB	n/a	LTP153	ltpFR	12	n/a	n/a	n/a	n/a	n/a	n/a	n/a	11	1	8	2	n/a	n/a	n/a	n/a	n/a
1330737	STOP	n/a	LTP153	ltpFR	12	n/a	n/a	n/a	n/a	n/a	n/a	n/a	n/a	n/a	n/a	n/a	n/a	n/a	n/a	n/a	n/a
1332799	WORD	wordpools/wasnorm_wordpool.txt	LTP153	ltpFR	12	6	1	AGENT	10	n/a	n/a	1	n/a	0	0	0	0.422607421875	0.5869140625	0	lower	amplitud.ttf
1335811	START	n/a	LTP153	ltpFR	12	n/a	n/a	n/a	n/a	n/a	n/a	n/a	n/a	n/a	n/a	n/a	n/a	n/a	n/a	n/a	n/a
1336959	PROB	n/a	LTP153	ltpFR	12	n/a	n/a	n/a	n/a	n/a	n/a	n/a	23	6	9	8	n/a	n/a	n/a	n/a	n/a
1339056	PROB	n/a	LTP153	ltpFR	12	n/a	n/a	n/a	n/a	n/a	n/a	n/a	12	4	2	6	n/a	n/a	n/a	n/a	n/a
1340154	PROB	n/a	LTP153	ltpFR	12	n/a	n/a	n/a	n/a	n/a	n/a	n/a	17	6	7	4	n/a	n/a	n/a	n/a	n/a
1341502	PROB	n/a	LTP153	ltpFR	12	n/a	n/a	n/a	n/a	n/a	n/a	n/a	23	7	8	8	n/a	n/a	n/a	n/a	n/a
1343705	STOP	n/a	LTP153	ltpFR	12	n/a	n/a	n/a	n/a	n/a	n/a	n/a	n/a	n/a	n/a	n/a	n/a	n/a	n/a	n/a	n/a
1344748	WORD	wordpools/wasnorm_wordpool.txt	LTP153	ltpFR	12	6	1	POPE	1105	n/a	n/a	1	n/a	0	0	0	0.422607421875	0.5869140625	0	lower	amplitud.ttf
1347760	START	n/a	LTP153	ltpFR	12	n/a	n/a	n/a	n/a	n/a	n/a	n/a	n/a	n/a	n/a	n/a	n/a	n/a	n/a	n/a	n/a
1348791	PROB	n/a	LTP153	ltpFR	12	n/a	n/a	n/a	n/a	n/a	n/a	n/a	12	1	4	7	n/a	n/a	n/a	n/a	n/a
1350139	PROB	n/a	LTP153	ltpFR	12	n/a	n/a	n/a	n/a	n/a	n/a	n/a	15	9	2	4	n/a	n/a	n/a	n/a	n/a
1351604	PROB	n/a	LTP153	ltpFR	12	n/a	n/a	n/a	n/a	n/a	n/a	n/a	14	1	8	5	n/a	n/a	n/a	n/a	n/a
1353035	PROB	n/a	LTP153	ltpFR	12	n/a	n/a	n/a	n/a	n/a	n/a	n/a	15	2	8	5	n/a	n/a	n/a	n/a	n/a
1354441	STOP	n/a	LTP153	ltpFR	12	n/a	n/a	n/a	n/a	n/a	n/a	n/a	n/a	n/a	n/a	n/a	n/a	n/a	n/a	n/a	n/a
1356963	WORD	wordpools/wasnorm_wordpool.txt	LTP153	ltpFR	12	6	1	BEAN	105	n/a	n/a	0	n/a	0	0	0	0.422607421875	0.5869140625	0	lower	amplitud.ttf
1359975	START	n/a	LTP153	ltpFR	12	n/a	n/a	n/a	n/a	n/a	n/a	n/a	n/a	n/a	n/a	n/a	n/a	n/a	n/a	n/a	n/a
1361056	PROB	n/a	LTP153	ltpFR	12	n/a	n/a	n/a	n/a	n/a	n/a	n/a	8	2	3	3	n/a	n/a	n/a	n/a	n/a
1362205	PROB	n/a	LTP153	ltpFR	12	n/a	n/a	n/a	n/a	n/a	n/a	n/a	9	3	4	2	n/a	n/a	n/a	n/a	n/a
1363569	PROB	n/a	LTP153	ltpFR	12	n/a	n/a	n/a	n/a	n/a	n/a	n/a	13	4	2	7	n/a	n/a	n/a	n/a	n/a
1365267	PROB	n/a	LTP153	ltpFR	12	n/a	n/a	n/a	n/a	n/a	n/a	n/a	18	9	5	4	n/a	n/a	n/a	n/a	n/a
1366842	STOP	n/a	LTP153	ltpFR	12	n/a	n/a	n/a	n/a	n/a	n/a	n/a	n/a	n/a	n/a	n/a	n/a	n/a	n/a	n/a	n/a
1369144	WORD	wordpools/wasnorm_wordpool.txt	LTP153	ltpFR	12	6	1	FRUIT	610	n/a	n/a	0	n/a	0	0	0	0.422607421875	0.5869140625	0	lower	amplitud.ttf
1372157	START	n/a	LTP153	ltpFR	12	n/a	n/a	n/a	n/a	n/a	n/a	n/a	n/a	n/a	n/a	n/a	n/a	n/a	n/a	n/a	n/a
1373188	PROB	n/a	LTP153	ltpFR	12	n/a	n/a	n/a	n/a	n/a	n/a	n/a	14	7	4	3	n/a	n/a	n/a	n/a	n/a
1374503	PROB	n/a	LTP153	ltpFR	12	n/a	n/a	n/a	n/a	n/a	n/a	n/a	17	7	6	4	n/a	n/a	n/a	n/a	n/a
1375902	PROB	n/a	LTP153	ltpFR	12	n/a	n/a	n/a	n/a	n/a	n/a	n/a	14	7	1	6	n/a	n/a	n/a	n/a	n/a
1377199	PROB	n/a	LTP153	ltpFR	12	n/a	n/a	n/a	n/a	n/a	n/a	n/a	16	6	4	6	n/a	n/a	n/a	n/a	n/a
1380157	STOP	n/a	LTP153	ltpFR	12	n/a	n/a	n/a	n/a	n/a	n/a	n/a	n/a	n/a	n/a	n/a	n/a	n/a	n/a	n/a	n/a
1382026	REC_START	n/a	LTP153	ltpFR	12	6	n/a	n/a	n/a	n/a	n/a	n/a	n/a	0	0	0	n/a	n/a	n/a	n/a	n/a
1383173	REC_WORD	wordpools/wasnorm_wordpool.txt	LTP153	ltpFR	12	6	1	FRUIT	610	n/a	n/a	0	n/a	0	0	0	n/a	n/a	n/a	n/a	n/a
1384375	REC_WORD	wordpools/wasnorm_wordpool.txt	LTP153	ltpFR	12	6	1	SWAN	1417	n/a	n/a	1	n/a	0	0	0	n/a	n/a	n/a	n/a	n/a
1385842	REC_WORD	wordpools/wasnorm_wordpool.txt	LTP153	ltpFR	12	6	1	MARKET	871	n/a	n/a	0	n/a	0	0	0	n/a	n/a	n/a	n/a	n/a
1397600	REC_WORD	wordpools/wasnorm_wordpool.txt	LTP153	ltpFR	12	6	1	AGENT	10	n/a	n/a	1	n/a	0	0	0	n/a	n/a	n/a	n/a	n/a
1398503	REC_WORD	wordpools/wasnorm_wordpool.txt	LTP153	ltpFR	12	6	1	SPY	1360	n/a	n/a	1	n/a	0	0	0	n/a	n/a	n/a	n/a	n/a
1399503	REC_WORD_VV	wordpools/wasnorm_wordpool.txt	LTP153	ltpFR	12	6	n/a	<>	-1	n/a	n/a	n/a	n/a	0	0	0	n/a	n/a	n/a	n/a	n/a
1418877	REC_WORD	wordpools/wasnorm_wordpool.txt	LTP153	ltpFR	12	6	1	KITCHEN	778	n/a	n/a	0	n/a	0	0	0	n/a	n/a	n/a	n/a	n/a
1466599	START	n/a	LTP153	ltpFR	12	n/a	n/a	n/a	n/a	n/a	n/a	n/a	n/a	n/a	n/a	n/a	n/a	n/a	n/a	n/a	n/a
1468113	PROB	n/a	LTP153	ltpFR	12	n/a	n/a	n/a	n/a	n/a	n/a	n/a	10	3	4	3	n/a	n/a	n/a	n/a	n/a
1470443	PROB	n/a	LTP153	ltpFR	12	n/a	n/a	n/a	n/a	n/a	n/a	n/a	16	3	4	9	n/a	n/a	n/a	n/a	n/a
1472007	PROB	n/a	LTP153	ltpFR	12	n/a	n/a	n/a	n/a	n/a	n/a	n/a	11	3	2	6	n/a	n/a	n/a	n/a	n/a
1473156	PROB	n/a	LTP153	ltpFR	12	n/a	n/a	n/a	n/a	n/a	n/a	n/a	10	1	7	2	n/a	n/a	n/a	n/a	n/a
1474487	PROB	n/a	LTP153	ltpFR	12	n/a	n/a	n/a	n/a	n/a	n/a	n/a	16	6	2	8	n/a	n/a	n/a	n/a	n/a
1475752	PROB	n/a	LTP153	ltpFR	12	n/a	n/a	n/a	n/a	n/a	n/a	n/a	11	5	2	4	n/a	n/a	n/a	n/a	n/a
1477266	PROB	n/a	LTP153	ltpFR	12	n/a	n/a	n/a	n/a	n/a	n/a	n/a	17	8	6	3	n/a	n/a	n/a	n/a	n/a
1479097	PROB	n/a	LTP153	ltpFR	12	n/a	n/a	n/a	n/a	n/a	n/a	n/a	11	3	3	5	n/a	n/a	n/a	n/a	n/a
1480528	PROB	n/a	LTP153	ltpFR	12	n/a	n/a	n/a	n/a	n/a	n/a	n/a	7	2	2	3	n/a	n/a	n/a	n/a	n/a
1481842	STOP	n/a	LTP153	ltpFR	12	n/a	n/a	n/a	n/a	n/a	n/a	n/a	n/a	n/a	n/a	n/a	n/a	n/a	n/a	n/a	n/a
1483707	WORD	wordpools/wasnorm_wordpool.txt	LTP153	ltpFR	12	7	0	CORAL	378	n/a	n/a	0	n/a	0	0	0	0.57763671875	0.412841796875	1	upper	zerothre.ttf
1486719	START	n/a	LTP153	ltpFR	12	n/a	n/a	n/a	n/a	n/a	n/a	n/a	n/a	n/a	n/a	n/a	n/a	n/a	n/a	n/a	n/a
1487667	PROB	n/a	LTP153	ltpFR	12	n/a	n/a	n/a	n/a	n/a	n/a	n/a	12	4	3	5	n/a	n/a	n/a	n/a	n/a
1489931	PROB	n/a	LTP153	ltpFR	12	n/a	n/a	n/a	n/a	n/a	n/a	n/a	25	9	9	7	n/a	n/a	n/a	n/a	n/a
1493292	PROB	n/a	LTP153	ltpFR	12	n/a	n/a	n/a	n/a	n/a	n/a	n/a	19	3	9	7	n/a	n/a	n/a	n/a	n/a
1494790	PROB	n/a	LTP153	ltpFR	12	n/a	n/a	n/a	n/a	n/a	n/a	n/a	19	7	5	7	n/a	n/a	n/a	n/a	n/a
1496637	PROB	n/a	LTP153	ltpFR	12	n/a	n/a	n/a	n/a	n/a	n/a	n/a	9	6	2	1	n/a	n/a	n/a	n/a	n/a
1497903	PROB	n/a	LTP153	ltpFR	12	n/a	n/a	n/a	n/a	n/a	n/a	n/a	17	5	3	9	n/a	n/a	n/a	n/a	n/a
1499200	PROB	n/a	LTP153	ltpFR	12	n/a	n/a	n/a	n/a	n/a	n/a	n/a	9	3	1	5	n/a	n/a	n/a	n/a	n/a
1500348	PROB	n/a	LTP153	ltpFR	12	n/a	n/a	n/a	n/a	n/a	n/a	n/a	11	1	4	6	n/a	n/a	n/a	n/a	n/a
1501553	STOP	n/a	LTP153	ltpFR	12	n/a	n/a	n/a	n/a	n/a	n/a	n/a	n/a	n/a	n/a	n/a	n/a	n/a	n/a	n/a	n/a
1503594	WORD	wordpools/wasnorm_wordpool.txt	LTP153	ltpFR	12	7	0	BOAT	144	n/a	n/a	1	n/a	0	0	0	0.57763671875	0.412841796875	1	upper	zerothre.ttf
1506606	START	n/a	LTP153	ltpFR	12	n/a	n/a	n/a	n/a	n/a	n/a	n/a	n/a	n/a	n/a	n/a	n/a	n/a	n/a	n/a	n/a
1507538	PROB	n/a	LTP153	ltpFR	12	n/a	n/a	n/a	n/a	n/a	n/a	n/a	22	9	5	8	n/a	n/a	n/a	n/a	n/a
1510400	PROB	n/a	LTP153	ltpFR	12	n/a	n/a	n/a	n/a	n/a	n/a	n/a	17	2	7	8	n/a	n/a	n/a	n/a	n/a
1512031	PROB	n/a	LTP153	ltpFR	12	n/a	n/a	n/a	n/a	n/a	n/a	n/a	12	2	5	5	n/a	n/a	n/a	n/a	n/a
1513312	PROB	n/a	LTP153	ltpFR	12	n/a	n/a	n/a	n/a	n/a	n/a	n/a	7	2	1	4	n/a	n/a	n/a	n/a	n/a
1514477	PROB	n/a	LTP153	ltpFR	12	n/a	n/a	n/a	n/a	n/a	n/a	n/a	14	2	6	6	n/a	n/a	n/a	n/a	n/a
1515925	PROB	n/a	LTP153	ltpFR	12	n/a	n/a	n/a	n/a	n/a	n/a	n/a	19	5	9	5	n/a	n/a	n/a	n/a	n/a
1517673	PROB	n/a	LTP153	ltpFR	12	n/a	n/a	n/a	n/a	n/a	n/a	n/a	8	1	1	6	n/a	n/a	n/a	n/a	n/a
1519021	PROB	n/a	LTP153	ltpFR	12	n/a	n/a	n/a	n/a	n/a	n/a	n/a	18	2	9	7	n/a	n/a	n/a	n/a	n/a
1520651	PROB	n/a	LTP153	ltpFR	12	n/a	n/a	n/a	n/a	n/a	n/a	n/a	12	3	3	6	n/a	n/a	n/a	n/a	n/a
1521858	STOP	n/a	LTP153	ltpFR	12	n/a	n/a	n/a	n/a	n/a	n/a	n/a	n/a	n/a	n/a	n/a	n/a	n/a	n/a	n/a	n/a
1523697	WORD	wordpools/wasnorm_wordpool.txt	LTP153	ltpFR	12	7	1	MUG	930	n/a	n/a	0	n/a	0	0	0	0.422607421875	0.5869140625	0	lower	amplitud.ttf
1526710	START	n/a	LTP153	ltpFR	12	n/a	n/a	n/a	n/a	n/a	n/a	n/a	n/a	n/a	n/a	n/a	n/a	n/a	n/a	n/a	n/a
1527658	PROB	n/a	LTP153	ltpFR	12	n/a	n/a	n/a	n/a	n/a	n/a	n/a	16	1	8	7	n/a	n/a	n/a	n/a	n/a
1529971	PROB	n/a	LTP153	ltpFR	12	n/a	n/a	n/a	n/a	n/a	n/a	n/a	24	9	7	8	n/a	n/a	n/a	n/a	n/a
1532916	PROB	n/a	LTP153	ltpFR	12	n/a	n/a	n/a	n/a	n/a	n/a	n/a	25	9	9	7	n/a	n/a	n/a	n/a	n/a
1534764	PROB	n/a	LTP153	ltpFR	12	n/a	n/a	n/a	n/a	n/a	n/a	n/a	20	5	8	7	n/a	n/a	n/a	n/a	n/a
1537643	PROB	n/a	LTP153	ltpFR	12	n/a	n/a	n/a	n/a	n/a	n/a	n/a	9	3	3	3	n/a	n/a	n/a	n/a	n/a
1538774	PROB	n/a	LTP153	ltpFR	12	n/a	n/a	n/a	n/a	n/a	n/a	n/a	12	4	4	4	n/a	n/a	n/a	n/a	n/a
1540122	PROB	n/a	LTP153	ltpFR	12	n/a	n/a	n/a	n/a	n/a	n/a	n/a	11	7	3	1	n/a	n/a	n/a	n/a	n/a
1541689	STOP	n/a	LTP153	ltpFR	12	n/a	n/a	n/a	n/a	n/a	n/a	n/a	n/a	n/a	n/a	n/a	n/a	n/a	n/a	n/a	n/a
1543534	WORD	wordpools/wasnorm_wordpool.txt	LTP153	ltpFR	12	7	1	PISTOL	1075	n/a	n/a	0	n/a	0	0	0	0.422607421875	0.5869140625	0	lower	amplitud.ttf
1546547	START	n/a	LTP153	ltpFR	12	n/a	n/a	n/a	n/a	n/a	n/a	n/a	n/a	n/a	n/a	n/a	n/a	n/a	n/a	n/a	n/a
1547528	PROB	n/a	LTP153	ltpFR	12	n/a	n/a	n/a	n/a	n/a	n/a	n/a	14	8	3	3	n/a	n/a	n/a	n/a	n/a
1548860	PROB	n/a	LTP153	ltpFR	12	n/a	n/a	n/a	n/a	n/a	n/a	n/a	16	2	6	8	n/a	n/a	n/a	n/a	n/a
1550074	PROB	n/a	LTP153	ltpFR	12	n/a	n/a	n/a	n/a	n/a	n/a	n/a	17	9	7	1	n/a	n/a	n/a	n/a	n/a
1553053	PROB	n/a	LTP153	ltpFR	12	n/a	n/a	n/a	n/a	n/a	n/a	n/a	16	6	1	9	n/a	n/a	n/a	n/a	n/a
1554468	PROB	n/a	LTP153	ltpFR	12	n/a	n/a	n/a	n/a	n/a	n/a	n/a	16	8	5	3	n/a	n/a	n/a	n/a	n/a
1556598	PROB	n/a	LTP153	ltpFR	12	n/a	n/a	n/a	n/a	n/a	n/a	n/a	18	6	5	7	n/a	n/a	n/a	n/a	n/a
1558212	PROB	n/a	LTP153	ltpFR	12	n/a	n/a	n/a	n/a	n/a	n/a	n/a	16	9	6	1	n/a	n/a	n/a	n/a	n/a
1560159	PROB	n/a	LTP153	ltpFR	12	n/a	n/a	n/a	n/a	n/a	n/a	n/a	21	6	9	6	n/a	n/a	n/a	n/a	n/a
1561713	STOP	n/a	LTP153	ltpFR	12	n/a	n/a	n/a	n/a	n/a	n/a	n/a	n/a	n/a	n/a	n/a	n/a	n/a	n/a	n/a	n/a
1563587	WORD	wordpools/wasnorm_wordpool.txt	LTP153	ltpFR	12	7	1	SHINGLE	1285	n/a	n/a	0	n/a	0	0	0	0.422607421875	0.5869140625	0	lower	amplitud.ttf
1566600	START	n/a	LTP153	ltpFR	12	n/a	n/a	n/a	n/a	n/a	n/a	n/a	n/a	n/a	n/a	n/a	n/a	n/a	n/a	n/a	n/a
1567548	PROB	n/a	LTP153	ltpFR	12	n/a	n/a	n/a	n/a	n/a	n/a	n/a	20	9	8	3	n/a	n/a	n/a	n/a	n/a
1569612	PROB	n/a	LTP153	ltpFR	12	n/a	n/a	n/a	n/a	n/a	n/a	n/a	13	5	1	7	n/a	n/a	n/a	n/a	n/a
1571159	PROB	n/a	LTP153	ltpFR	12	n/a	n/a	n/a	n/a	n/a	n/a	n/a	14	4	9	1	n/a	n/a	n/a	n/a	n/a
1573273	PROB	n/a	LTP153	ltpFR	12	n/a	n/a	n/a	n/a	n/a	n/a	n/a	15	5	5	5	n/a	n/a	n/a	n/a	n/a
1574238	PROB	n/a	LTP153	ltpFR	12	n/a	n/a	n/a	n/a	n/a	n/a	n/a	15	5	7	3	n/a	n/a	n/a	n/a	n/a
1575903	PROB	n/a	LTP153	ltpFR	12	n/a	n/a	n/a	n/a	n/a	n/a	n/a	19	3	7	9	n/a	n/a	n/a	n/a	n/a
1577017	PROB	n/a	LTP153	ltpFR	12	n/a	n/a	n/a	n/a	n/a	n/a	n/a	15	9	5	1	n/a	n/a	n/a	n/a	n/a
1578465	PROB	n/a	LTP153	ltpFR	12	n/a	n/a	n/a	n/a	n/a	n/a	n/a	14	6	7	1	n/a	n/a	n/a	n/a	n/a
1580662	PROB	n/a	LTP153	ltpFR	12	n/a	n/a	n/a	n/a	n/a	n/a	n/a	20	4	9	7	n/a	n/a	n/a	n/a	n/a
1582209	STOP	n/a	LTP153	ltpFR	12	n/a	n/a	n/a	n/a	n/a	n/a	n/a	n/a	n/a	n/a	n/a	n/a	n/a	n/a	n/a	n/a
1583424	WORD	wordpools/wasnorm_wordpool.txt	LTP153	ltpFR	12	7	1	WORLD	1622	n/a	n/a	0	n/a	0	0	0	0.422607421875	0.5869140625	0	lower	amplitud.ttf
1586437	START	n/a	LTP153	ltpFR	12	n/a	n/a	n/a	n/a	n/a	n/a	n/a	n/a	n/a	n/a	n/a	n/a	n/a	n/a	n/a	n/a
1587602	PROB	n/a	LTP153	ltpFR	12	n/a	n/a	n/a	n/a	n/a	n/a	n/a	9	3	2	4	n/a	n/a	n/a	n/a	n/a
1588950	PROB	n/a	LTP153	ltpFR	12	n/a	n/a	n/a	n/a	n/a	n/a	n/a	19	7	5	7	n/a	n/a	n/a	n/a	n/a
1590397	PROB	n/a	LTP153	ltpFR	12	n/a	n/a	n/a	n/a	n/a	n/a	n/a	12	2	5	6	n/a	n/a	n/a	n/a	n/a
1592328	PROB	n/a	LTP153	ltpFR	12	n/a	n/a	n/a	n/a	n/a	n/a	n/a	15	6	8	1	n/a	n/a	n/a	n/a	n/a
1594458	PROB	n/a	LTP153	ltpFR	12	n/a	n/a	n/a	n/a	n/a	n/a	n/a	10	4	2	4	n/a	n/a	n/a	n/a	n/a
1595989	PROB	n/a	LTP153	ltpFR	12	n/a	n/a	n/a	n/a	n/a	n/a	n/a	9	1	2	6	n/a	n/a	n/a	n/a	n/a
1597320	PROB	n/a	LTP153	ltpFR	12	n/a	n/a	n/a	n/a	n/a	n/a	n/a	21	9	8	4	n/a	n/a	n/a	n/a	n/a
1600283	PROB	n/a	LTP153	ltpFR	12	n/a	n/a	n/a	n/a	n/a	n/a	n/a	21	8	6	7	n/a	n/a	n/a	n/a	n/a
1602385	STOP	n/a	LTP153	ltpFR	12	n/a	n/a	n/a	n/a	n/a	n/a	n/a	n/a	n/a	n/a	n/a	n/a	n/a	n/a	n/a	n/a
1603445	WORD	wordpools/wasnorm_wordpool.txt	LTP153	ltpFR	12	7	0	BATHROOM	99	n/a	n/a	1	n/a	0	0	0	0.57763671875	0.412841796875	1	upper	zerothre.ttf
1606457	START	n/a	LTP153	ltpFR	12	n/a	n/a	n/a	n/a	n/a	n/a	n/a	n/a	n/a	n/a	n/a	n/a	n/a	n/a	n/a	n/a
1607588	PROB	n/a	LTP153	ltpFR	12	n/a	n/a	n/a	n/a	n/a	n/a	n/a	16	5	5	6	n/a	n/a	n/a	n/a	n/a
1608803	PROB	n/a	LTP153	ltpFR	12	n/a	n/a	n/a	n/a	n/a	n/a	n/a	13	9	1	3	n/a	n/a	n/a	n/a	n/a
1610051	PROB	n/a	LTP153	ltpFR	12	n/a	n/a	n/a	n/a	n/a	n/a	n/a	20	8	6	6	n/a	n/a	n/a	n/a	n/a
1612098	PROB	n/a	LTP153	ltpFR	12	n/a	n/a	n/a	n/a	n/a	n/a	n/a	20	8	4	8	n/a	n/a	n/a	n/a	n/a
1613696	PROB	n/a	LTP153	ltpFR	12	n/a	n/a	n/a	n/a	n/a	n/a	n/a	19	9	7	3	n/a	n/a	n/a	n/a	n/a
1614828	PROB	n/a	LTP153	ltpFR	12	n/a	n/a	n/a	n/a	n/a	n/a	n/a	12	6	1	5	n/a	n/a	n/a	n/a	n/a
1616658	PROB	n/a	LTP153	ltpFR	12	n/a	n/a	n/a	n/a	n/a	n/a	n/a	13	3	7	3	n/a	n/a	n/a	n/a	n/a
1617973	PROB	n/a	LTP153	ltpFR	12	n/a	n/a	n/a	n/a	n/a	n/a	n/a	8	2	5	1	n/a	n/a	n/a	n/a	n/a
1619321	PROB	n/a	LTP153	ltpFR	12	n/a	n/a	n/a	n/a	n/a	n/a	n/a	19	6	9	4	n/a	n/a	n/a	n/a	n/a
1620819	PROB	n/a	LTP153	ltpFR	12	n/a	n/a	n/a	n/a	n/a	n/a	n/a	20	7	6	7	n/a	n/a	n/a	n/a	n/a
1622425	STOP	n/a	LTP153	ltpFR	12	n/a	n/a	n/a	n/a	n/a	n/a	n/a	n/a	n/a	n/a	n/a	n/a	n/a	n/a	n/a	n/a
1623365	WORD	wordpools/wasnorm_wordpool.txt	LTP153	ltpFR	12	7	0	MILK	895	n/a	n/a	0	n/a	0	0	0	0.57763671875	0.412841796875	1	upper	zerothre.ttf
1626377	START	n/a	LTP153	ltpFR	12	n/a	n/a	n/a	n/a	n/a	n/a	n/a	n/a	n/a	n/a	n/a	n/a	n/a	n/a	n/a	n/a
1627392	PROB	n/a	LTP153	ltpFR	12	n/a	n/a	n/a	n/a	n/a	n/a	n/a	17	8	8	1	n/a	n/a	n/a	n/a	n/a
1628874	PROB	n/a	LTP153	ltpFR	12	n/a	n/a	n/a	n/a	n/a	n/a	n/a	18	9	6	3	n/a	n/a	n/a	n/a	n/a
1630604	PROB	n/a	LTP153	ltpFR	12	n/a	n/a	n/a	n/a	n/a	n/a	n/a	16	6	9	1	n/a	n/a	n/a	n/a	n/a
1632002	PROB	n/a	LTP153	ltpFR	12	n/a	n/a	n/a	n/a	n/a	n/a	n/a	19	4	7	8	n/a	n/a	n/a	n/a	n/a
1634132	PROB	n/a	LTP153	ltpFR	12	n/a	n/a	n/a	n/a	n/a	n/a	n/a	17	3	7	7	n/a	n/a	n/a	n/a	n/a
1635613	PROB	n/a	LTP153	ltpFR	12	n/a	n/a	n/a	n/a	n/a	n/a	n/a	19	5	6	8	n/a	n/a	n/a	n/a	n/a
1636961	PROB	n/a	LTP153	ltpFR	12	n/a	n/a	n/a	n/a	n/a	n/a	n/a	18	8	4	6	n/a	n/a	n/a	n/a	n/a
1638409	PROB	n/a	LTP153	ltpFR	12	n/a	n/a	n/a	n/a	n/a	n/a	n/a	13	2	8	3	n/a	n/a	n/a	n/a	n/a
1640106	PROB	n/a	LTP153	ltpFR	12	n/a	n/a	n/a	n/a	n/a	n/a	n/a	10	3	4	3	n/a	n/a	n/a	n/a	n/a
1641585	STOP	n/a	LTP153	ltpFR	12	n/a	n/a	n/a	n/a	n/a	n/a	n/a	n/a	n/a	n/a	n/a	n/a	n/a	n/a	n/a	n/a
1643219	WORD	wordpools/wasnorm_wordpool.txt	LTP153	ltpFR	12	7	0	SHACK	1273	n/a	n/a	1	n/a	0	0	0	0.57763671875	0.412841796875	1	upper	zerothre.ttf
1646231	START	n/a	LTP153	ltpFR	12	n/a	n/a	n/a	n/a	n/a	n/a	n/a	n/a	n/a	n/a	n/a	n/a	n/a	n/a	n/a	n/a
1647329	PROB	n/a	LTP153	ltpFR	12	n/a	n/a	n/a	n/a	n/a	n/a	n/a	16	5	3	8	n/a	n/a	n/a	n/a	n/a
1648744	PROB	n/a	LTP153	ltpFR	12	n/a	n/a	n/a	n/a	n/a	n/a	n/a	11	5	1	5	n/a	n/a	n/a	n/a	n/a
1650042	PROB	n/a	LTP153	ltpFR	12	n/a	n/a	n/a	n/a	n/a	n/a	n/a	15	5	7	3	n/a	n/a	n/a	n/a	n/a
1651223	PROB	n/a	LTP153	ltpFR	12	n/a	n/a	n/a	n/a	n/a	n/a	n/a	20	5	7	8	n/a	n/a	n/a	n/a	n/a
1652704	PROB	n/a	LTP153	ltpFR	12	n/a	n/a	n/a	n/a	n/a	n/a	n/a	12	2	6	4	n/a	n/a	n/a	n/a	n/a
1653769	PROB	n/a	LTP153	ltpFR	12	n/a	n/a	n/a	n/a	n/a	n/a	n/a	18	3	6	9	n/a	n/a	n/a	n/a	n/a
1655766	PROB	n/a	LTP153	ltpFR	12	n/a	n/a	n/a	n/a	n/a	n/a	n/a	11	2	8	1	n/a	n/a	n/a	n/a	n/a
1656882	PROB	n/a	LTP153	ltpFR	12	n/a	n/a	n/a	n/a	n/a	n/a	n/a	19	3	8	8	n/a	n/a	n/a	n/a	n/a
1658846	PROB	n/a	LTP153	ltpFR	12	n/a	n/a	n/a	n/a	n/a	n/a	n/a	15	2	5	8	n/a	n/a	n/a	n/a	n/a
1660476	PROB	n/a	LTP153	ltpFR	12	n/a	n/a	n/a	n/a	n/a	n/a	n/a	11	2	1	8	n/a	n/a	n/a	n/a	n/a
1661609	STOP	n/a	LTP153	ltpFR	12	n/a	n/a	n/a	n/a	n/a	n/a	n/a	n/a	n/a	n/a	n/a	n/a	n/a	n/a	n/a	n/a
1663388	WORD	wordpools/wasnorm_wordpool.txt	LTP153	ltpFR	12	7	0	POLYESTER	1100	n/a	n/a	0	n/a	0	0	0	0.57763671875	0.412841796875	1	upper	zerothre.ttf
1666401	START	n/a	LTP153	ltpFR	12	n/a	n/a	n/a	n/a	n/a	n/a	n/a	n/a	n/a	n/a	n/a	n/a	n/a	n/a	n/a	n/a
1667615	PROB	n/a	LTP153	ltpFR	12	n/a	n/a	n/a	n/a	n/a	n/a	n/a	14	7	5	2	n/a	n/a	n/a	n/a	n/a
1668848	PROB	n/a	LTP153	ltpFR	12	n/a	n/a	n/a	n/a	n/a	n/a	n/a	16	6	9	1	n/a	n/a	n/a	n/a	n/a
1670261	PROB	n/a	LTP153	ltpFR	12	n/a	n/a	n/a	n/a	n/a	n/a	n/a	12	4	6	2	n/a	n/a	n/a	n/a	n/a
1671376	PROB	n/a	LTP153	ltpFR	12	n/a	n/a	n/a	n/a	n/a	n/a	n/a	9	1	4	4	n/a	n/a	n/a	n/a	n/a
1672575	PROB	n/a	LTP153	ltpFR	12	n/a	n/a	n/a	n/a	n/a	n/a	n/a	11	4	6	1	n/a	n/a	n/a	n/a	n/a
1673656	PROB	n/a	LTP153	ltpFR	12	n/a	n/a	n/a	n/a	n/a	n/a	n/a	9	5	2	2	n/a	n/a	n/a	n/a	n/a
1676036	PROB	n/a	LTP153	ltpFR	12	n/a	n/a	n/a	n/a	n/a	n/a	n/a	16	9	2	4	n/a	n/a	n/a	n/a	n/a
1677834	PROB	n/a	LTP153	ltpFR	12	n/a	n/a	n/a	n/a	n/a	n/a	n/a	12	3	2	7	n/a	n/a	n/a	n/a	n/a
1679165	PROB	n/a	LTP153	ltpFR	12	n/a	n/a	n/a	n/a	n/a	n/a	n/a	9	6	1	2	n/a	n/a	n/a	n/a	n/a
1680696	PROB	n/a	LTP153	ltpFR	12	n/a	n/a	n/a	n/a	n/a	n/a	n/a	12	5	3	4	n/a	n/a	n/a	n/a	n/a
1682249	STOP	n/a	LTP153	ltpFR	12	n/a	n/a	n/a	n/a	n/a	n/a	n/a	n/a	n/a	n/a	n/a	n/a	n/a	n/a	n/a	n/a
1683475	WORD	wordpools/wasnorm_wordpool.txt	LTP153	ltpFR	12	7	1	PANTS	1010	n/a	n/a	0	n/a	0	0	0	0.422607421875	0.5869140625	0	lower	amplitud.ttf
1686488	START	n/a	LTP153	ltpFR	12	n/a	n/a	n/a	n/a	n/a	n/a	n/a	n/a	n/a	n/a	n/a	n/a	n/a	n/a	n/a	n/a
1687619	PROB	n/a	LTP153	ltpFR	12	n/a	n/a	n/a	n/a	n/a	n/a	n/a	21	8	4	9	n/a	n/a	n/a	n/a	n/a
1689599	PROB	n/a	LTP153	ltpFR	12	n/a	n/a	n/a	n/a	n/a	n/a	n/a	24	8	8	8	n/a	n/a	n/a	n/a	n/a
1691313	PROB	n/a	LTP153	ltpFR	12	n/a	n/a	n/a	n/a	n/a	n/a	n/a	14	4	1	9	n/a	n/a	n/a	n/a	n/a
1692728	PROB	n/a	LTP153	ltpFR	12	n/a	n/a	n/a	n/a	n/a	n/a	n/a	25	9	8	7	n/a	n/a	n/a	n/a	n/a
1695124	PROB	n/a	LTP153	ltpFR	12	n/a	n/a	n/a	n/a	n/a	n/a	n/a	6	1	2	3	n/a	n/a	n/a	n/a	n/a
1697970	PROB	n/a	LTP153	ltpFR	12	n/a	n/a	n/a	n/a	n/a	n/a	n/a	14	3	6	5	n/a	n/a	n/a	n/a	n/a
1699518	PROB	n/a	LTP153	ltpFR	12	n/a	n/a	n/a	n/a	n/a	n/a	n/a	14	6	1	7	n/a	n/a	n/a	n/a	n/a
1702487	STOP	n/a	LTP153	ltpFR	12	n/a	n/a	n/a	n/a	n/a	n/a	n/a	n/a	n/a	n/a	n/a	n/a	n/a	n/a	n/a	n/a
1703379	WORD	wordpools/wasnorm_wordpool.txt	LTP153	ltpFR	12	7	1	STUDENT	1395	n/a	n/a	1	n/a	0	0	0	0.422607421875	0.5869140625	0	lower	amplitud.ttf
1706391	START	n/a	LTP153	ltpFR	12	n/a	n/a	n/a	n/a	n/a	n/a	n/a	n/a	n/a	n/a	n/a	n/a	n/a	n/a	n/a	n/a
1707572	PROB	n/a	LTP153	ltpFR	12	n/a	n/a	n/a	n/a	n/a	n/a	n/a	16	1	8	7	n/a	n/a	n/a	n/a	n/a
1709420	PROB	n/a	LTP153	ltpFR	12	n/a	n/a	n/a	n/a	n/a	n/a	n/a	21	9	7	5	n/a	n/a	n/a	n/a	n/a
1711250	PROB	n/a	LTP153	ltpFR	12	n/a	n/a	n/a	n/a	n/a	n/a	n/a	21	9	7	5	n/a	n/a	n/a	n/a	n/a
1712532	PROB	n/a	LTP153	ltpFR	12	n/a	n/a	n/a	n/a	n/a	n/a	n/a	24	8	7	9	n/a	n/a	n/a	n/a	n/a
1715494	PROB	n/a	LTP153	ltpFR	12	n/a	n/a	n/a	n/a	n/a	n/a	n/a	18	8	6	4	n/a	n/a	n/a	n/a	n/a
1717574	PROB	n/a	LTP153	ltpFR	12	n/a	n/a	n/a	n/a	n/a	n/a	n/a	15	1	7	7	n/a	n/a	n/a	n/a	n/a
1718772	PROB	n/a	LTP153	ltpFR	12	n/a	n/a	n/a	n/a	n/a	n/a	n/a	16	8	5	3	n/a	n/a	n/a	n/a	n/a
1720403	PROB	n/a	LTP153	ltpFR	12	n/a	n/a	n/a	n/a	n/a	n/a	n/a	18	1	9	8	n/a	n/a	n/a	n/a	n/a
1721689	STOP	n/a	LTP153	ltpFR	12	n/a	n/a	n/a	n/a	n/a	n/a	n/a	n/a	n/a	n/a	n/a	n/a	n/a	n/a	n/a	n/a
1723415	WORD	wordpools/wasnorm_wordpool.txt	LTP153	ltpFR	12	7	1	WORM	1623	n/a	n/a	1	n/a	0	0	0	0.422607421875	0.5869140625	0	lower	amplitud.ttf
1726428	START	n/a	LTP153	ltpFR	12	n/a	n/a	n/a	n/a	n/a	n/a	n/a	n/a	n/a	n/a	n/a	n/a	n/a	n/a	n/a	n/a
1727360	PROB	n/a	LTP153	ltpFR	12	n/a	n/a	n/a	n/a	n/a	n/a	n/a	15	2	9	4	n/a	n/a	n/a	n/a	n/a
1729390	PROB	n/a	LTP153	ltpFR	12	n/a	n/a	n/a	n/a	n/a	n/a	n/a	12	7	4	1	n/a	n/a	n/a	n/a	n/a
1730921	PROB	n/a	LTP153	ltpFR	12	n/a	n/a	n/a	n/a	n/a	n/a	n/a	22	9	6	7	n/a	n/a	n/a	n/a	n/a
1734499	PROB	n/a	LTP153	ltpFR	12	n/a	n/a	n/a	n/a	n/a	n/a	n/a	13	4	5	4	n/a	n/a	n/a	n/a	n/a
1735898	PROB	n/a	LTP153	ltpFR	12	n/a	n/a	n/a	n/a	n/a	n/a	n/a	12	7	4	1	n/a	n/a	n/a	n/a	n/a
1737661	PROB	n/a	LTP153	ltpFR	12	n/a	n/a	n/a	n/a	n/a	n/a	n/a	14	3	3	8	n/a	n/a	n/a	n/a	n/a
1738909	PROB	n/a	LTP153	ltpFR	12	n/a	n/a	n/a	n/a	n/a	n/a	n/a	12	4	3	5	n/a	n/a	n/a	n/a	n/a
1740307	PROB	n/a	LTP153	ltpFR	12	n/a	n/a	n/a	n/a	n/a	n/a	n/a	20	9	4	7	n/a	n/a	n/a	n/a	n/a
1742265	STOP	n/a	LTP153	ltpFR	12	n/a	n/a	n/a	n/a	n/a	n/a	n/a	n/a	n/a	n/a	n/a	n/a	n/a	n/a	n/a	n/a
1743452	WORD	wordpools/wasnorm_wordpool.txt	LTP153	ltpFR	12	7	1	PLUMBER	1091	n/a	n/a	1	n/a	0	0	0	0.422607421875	0.5869140625	0	lower	amplitud.ttf
1746465	START	n/a	LTP153	ltpFR	12	n/a	n/a	n/a	n/a	n/a	n/a	n/a	n/a	n/a	n/a	n/a	n/a	n/a	n/a	n/a	n/a
1747313	PROB	n/a	LTP153	ltpFR	12	n/a	n/a	n/a	n/a	n/a	n/a	n/a	9	1	2	6	n/a	n/a	n/a	n/a	n/a
1748794	PROB	n/a	LTP153	ltpFR	12	n/a	n/a	n/a	n/a	n/a	n/a	n/a	12	4	7	1	n/a	n/a	n/a	n/a	n/a
1749909	PROB	n/a	LTP153	ltpFR	12	n/a	n/a	n/a	n/a	n/a	n/a	n/a	19	8	3	8	n/a	n/a	n/a	n/a	n/a
1752472	PROB	n/a	LTP153	ltpFR	12	n/a	n/a	n/a	n/a	n/a	n/a	n/a	19	9	4	6	n/a	n/a	n/a	n/a	n/a
1754619	PROB	n/a	LTP153	ltpFR	12	n/a	n/a	n/a	n/a	n/a	n/a	n/a	12	4	1	7	n/a	n/a	n/a	n/a	n/a
1756033	PROB	n/a	LTP153	ltpFR	12	n/a	n/a	n/a	n/a	n/a	n/a	n/a	20	9	8	3	n/a	n/a	n/a	n/a	n/a
1758613	PROB	n/a	LTP153	ltpFR	12	n/a	n/a	n/a	n/a	n/a	n/a	n/a	13	2	8	3	n/a	n/a	n/a	n/a	n/a
1759745	PROB	n/a	LTP153	ltpFR	12	n/a	n/a	n/a	n/a	n/a	n/a	n/a	12	9	2	1	n/a	n/a	n/a	n/a	n/a
1761081	STOP	n/a	LTP153	ltpFR	12	n/a	n/a	n/a	n/a	n/a	n/a	n/a	n/a	n/a	n/a	n/a	n/a	n/a	n/a	n/a	n/a
1763639	WORD	wordpools/wasnorm_wordpool.txt	LTP153	ltpFR	12	7	0	TREE	1502	n/a	n/a	1	n/a	0	0	0	0.57763671875	0.412841796875	1	upper	zerothre.ttf
1766651	START	n/a	LTP153	ltpFR	12	n/a	n/a	n/a	n/a	n/a	n/a	n/a	n/a	n/a	n/a	n/a	n/a	n/a	n/a	n/a	n/a
1767616	PROB	n/a	LTP153	ltpFR	12	n/a	n/a	n/a	n/a	n/a	n/a	n/a	10	3	6	1	n/a	n/a	n/a	n/a	n/a
1769247	PROB	n/a	LTP153	ltpFR	12	n/a	n/a	n/a	n/a	n/a	n/a	n/a	16	4	8	4	n/a	n/a	n/a	n/a	n/a
1770978	PROB	n/a	LTP153	ltpFR	12	n/a	n/a	n/a	n/a	n/a	n/a	n/a	13	6	6	1	n/a	n/a	n/a	n/a	n/a
1772426	PROB	n/a	LTP153	ltpFR	12	n/a	n/a	n/a	n/a	n/a	n/a	n/a	14	1	4	9	n/a	n/a	n/a	n/a	n/a
1773858	PROB	n/a	LTP153	ltpFR	12	n/a	n/a	n/a	n/a	n/a	n/a	n/a	17	7	2	8	n/a	n/a	n/a	n/a	n/a
1775438	PROB	n/a	LTP153	ltpFR	12	n/a	n/a	n/a	n/a	n/a	n/a	n/a	11	4	3	4	n/a	n/a	n/a	n/a	n/a
1776969	PROB	n/a	LTP153	ltpFR	12	n/a	n/a	n/a	n/a	n/a	n/a	n/a	13	6	3	4	n/a	n/a	n/a	n/a	n/a
1778184	PROB	n/a	LTP153	ltpFR	12	n/a	n/a	n/a	n/a	n/a	n/a	n/a	16	3	9	4	n/a	n/a	n/a	n/a	n/a
1780064	PROB	n/a	LTP153	ltpFR	12	n/a	n/a	n/a	n/a	n/a	n/a	n/a	15	6	5	4	n/a	n/a	n/a	n/a	n/a
1782201	STOP	n/a	LTP153	ltpFR	12	n/a	n/a	n/a	n/a	n/a	n/a	n/a	n/a	n/a	n/a	n/a	n/a	n/a	n/a	n/a	n/a
1783759	WORD	wordpools/wasnorm_wordpool.txt	LTP153	ltpFR	12	7	0	ROOT	1210	n/a	n/a	1	n/a	0	0	0	0.57763671875	0.412841796875	1	upper	zerothre.ttf
1786771	START	n/a	LTP153	ltpFR	12	n/a	n/a	n/a	n/a	n/a	n/a	n/a	n/a	n/a	n/a	n/a	n/a	n/a	n/a	n/a	n/a
1787769	PROB	n/a	LTP153	ltpFR	12	n/a	n/a	n/a	n/a	n/a	n/a	n/a	9	1	3	5	n/a	n/a	n/a	n/a	n/a
1789084	PROB	n/a	LTP153	ltpFR	12	n/a	n/a	n/a	n/a	n/a	n/a	n/a	18	8	1	9	n/a	n/a	n/a	n/a	n/a
1790499	PROB	n/a	LTP153	ltpFR	12	n/a	n/a	n/a	n/a	n/a	n/a	n/a	15	7	7	1	n/a	n/a	n/a	n/a	n/a
1791647	PROB	n/a	LTP153	ltpFR	12	n/a	n/a	n/a	n/a	n/a	n/a	n/a	9	4	1	4	n/a	n/a	n/a	n/a	n/a
1792863	PROB	n/a	LTP153	ltpFR	12	n/a	n/a	n/a	n/a	n/a	n/a	n/a	10	2	3	5	n/a	n/a	n/a	n/a	n/a
1794126	PROB	n/a	LTP153	ltpFR	12	n/a	n/a	n/a	n/a	n/a	n/a	n/a	21	6	7	8	n/a	n/a	n/a	n/a	n/a
1795608	PROB	n/a	LTP153	ltpFR	12	n/a	n/a	n/a	n/a	n/a	n/a	n/a	22	7	7	8	n/a	n/a	n/a	n/a	n/a
1797055	PROB	n/a	LTP153	ltpFR	12	n/a	n/a	n/a	n/a	n/a	n/a	n/a	13	1	8	4	n/a	n/a	n/a	n/a	n/a
1798570	PROB	n/a	LTP153	ltpFR	12	n/a	n/a	n/a	n/a	n/a	n/a	n/a	15	5	5	5	n/a	n/a	n/a	n/a	n/a
1799535	PROB	n/a	LTP153	ltpFR	12	n/a	n/a	n/a	n/a	n/a	n/a	n/a	15	3	9	3	n/a	n/a	n/a	n/a	n/a
1800950	PROB	n/a	LTP153	ltpFR	12	n/a	n/a	n/a	n/a	n/a	n/a	n/a	10	2	7	1	n/a	n/a	n/a	n/a	n/a
1802537	STOP	n/a	LTP153	ltpFR	12	n/a	n/a	n/a	n/a	n/a	n/a	n/a	n/a	n/a	n/a	n/a	n/a	n/a	n/a	n/a	n/a
1804595	REC_START	n/a	LTP153	ltpFR	12	7	n/a	n/a	n/a	n/a	n/a	n/a	n/a	0	0	0	n/a	n/a	n/a	n/a	n/a
1805159	REC_WORD	wordpools/wasnorm_wordpool.txt	LTP153	ltpFR	12	7	0	TREE	1502	n/a	n/a	1	n/a	0	0	0	n/a	n/a	n/a	n/a	n/a
1806500	REC_WORD	wordpools/wasnorm_wordpool.txt	LTP153	ltpFR	12	7	1	WORM	1623	n/a	n/a	1	n/a	0	0	0	n/a	n/a	n/a	n/a	n/a
1820753	REC_WORD	wordpools/wasnorm_wordpool.txt	LTP153	ltpFR	12	7	0	CORAL	378	n/a	n/a	0	n/a	0	0	0	n/a	n/a	n/a	n/a	n/a
1822160	REC_WORD	wordpools/wasnorm_wordpool.txt	LTP153	ltpFR	12	7	0	BOAT	144	n/a	n/a	1	n/a	0	0	0	n/a	n/a	n/a	n/a	n/a
1910702	WORD	wordpools/wasnorm_wordpool.txt	LTP153	ltpFR	12	8	1	TABLET	1427	n/a	n/a	0	n/a	0	0	0	0.422607421875	0.5869140625	0	lower	amplitud.ttf
1914880	WORD	wordpools/wasnorm_wordpool.txt	LTP153	ltpFR	12	8	1	PATROL	1027	n/a	n/a	0	n/a	0	0	0	0.422607421875	0.5869140625	0	lower	amplitud.ttf
1919073	WORD	wordpools/wasnorm_wordpool.txt	LTP153	ltpFR	12	8	0	CHAUFFEUR	283	n/a	n/a	1	n/a	0	0	0	0.57763671875	0.412841796875	1	upper	zerothre.ttf
1923017	WORD	wordpools/wasnorm_wordpool.txt	LTP153	ltpFR	12	8	0	JAPAN	749	n/a	n/a	1	n/a	0	0	0	0.57763671875	0.412841796875	1	upper	zerothre.ttf
1926945	WORD	wordpools/wasnorm_wordpool.txt	LTP153	ltpFR	12	8	0	FIST	572	n/a	n/a	0	n/a	0	0	0	0.57763671875	0.412841796875	1	upper	zerothre.ttf
1931022	WORD	wordpools/wasnorm_wordpool.txt	LTP153	ltpFR	12	8	0	MITTEN	902	n/a	n/a	0	n/a	0	0	0	0.57763671875	0.412841796875	1	upper	zerothre.ttf
1935133	WORD	wordpools/wasnorm_wordpool.txt	LTP153	ltpFR	12	8	0	VITAMIN	1574	n/a	n/a	0	n/a	0	0	0	0.57763671875	0.412841796875	1	upper	zerothre.ttf
1939027	WORD	wordpools/wasnorm_wordpool.txt	LTP153	ltpFR	12	8	1	CHEST	295	n/a	n/a	0	n/a	0	0	0	0.422607421875	0.5869140625	0	lower	amplitud.ttf
1942988	WORD	wordpools/wasnorm_wordpool.txt	LTP153	ltpFR	12	8	1	BANDANNA	80	n/a	n/a	0	n/a	0	0	0	0.422607421875	0.5869140625	0	lower	amplitud.ttf
1946849	WORD	wordpools/wasnorm_wordpool.txt	LTP153	ltpFR	12	8	0	WINGS	1614	n/a	n/a	1	n/a	0	0	0	0.57763671875	0.412841796875	1	upper	zerothre.ttf
1950709	WORD	wordpools/wasnorm_wordpool.txt	LTP153	ltpFR	12	8	0	SWORD	1423	n/a	n/a	1	n/a	0	0	0	0.57763671875	0.412841796875	1	upper	zerothre.ttf
1954887	WORD	wordpools/wasnorm_wordpool.txt	LTP153	ltpFR	12	8	0	SCROLL	1257	n/a	n/a	0	n/a	0	0	0	0.57763671875	0.412841796875	1	upper	zerothre.ttf
1959030	WORD	wordpools/wasnorm_wordpool.txt	LTP153	ltpFR	12	8	1	SKULL	1320	n/a	n/a	0	n/a	0	0	0	0.422607421875	0.5869140625	0	lower	amplitud.ttf
1963174	WORD	wordpools/wasnorm_wordpool.txt	LTP153	ltpFR	12	8	1	SHORE	1291	n/a	n/a	0	n/a	0	0	0	0.422607421875	0.5869140625	0	lower	amplitud.ttf
1967085	WORD	wordpools/wasnorm_wordpool.txt	LTP153	ltpFR	12	8	1	REEF	1177	n/a	n/a	1	n/a	0	0	0	0.422607421875	0.5869140625	0	lower	amplitud.ttf
1971229	WORD	wordpools/wasnorm_wordpool.txt	LTP153	ltpFR	12	8	1	CANARY	227	n/a	n/a	1	n/a	0	0	0	0.422607421875	0.5869140625	0	lower	amplitud.ttf
1974241	START	n/a	LTP153	ltpFR	12	n/a	n/a	n/a	n/a	n/a	n/a	n/a	n/a	n/a	n/a	n/a	n/a	n/a	n/a	n/a	n/a
1975056	PROB	n/a	LTP153	ltpFR	12	n/a	n/a	n/a	n/a	n/a	n/a	n/a	14	7	1	6	n/a	n/a	n/a	n/a	n/a
1976871	PROB	n/a	LTP153	ltpFR	12	n/a	n/a	n/a	n/a	n/a	n/a	n/a	10	2	1	7	n/a	n/a	n/a	n/a	n/a
1978002	PROB	n/a	LTP153	ltpFR	12	n/a	n/a	n/a	n/a	n/a	n/a	n/a	17	8	3	6	n/a	n/a	n/a	n/a	n/a
1979799	PROB	n/a	LTP153	ltpFR	12	n/a	n/a	n/a	n/a	n/a	n/a	n/a	12	4	3	5	n/a	n/a	n/a	n/a	n/a
1981330	PROB	n/a	LTP153	ltpFR	12	n/a	n/a	n/a	n/a	n/a	n/a	n/a	9	2	2	5	n/a	n/a	n/a	n/a	n/a
1982412	PROB	n/a	LTP153	ltpFR	12	n/a	n/a	n/a	n/a	n/a	n/a	n/a	11	5	2	4	n/a	n/a	n/a	n/a	n/a
1984675	PROB	n/a	LTP153	ltpFR	12	n/a	n/a	n/a	n/a	n/a	n/a	n/a	13	5	5	3	n/a	n/a	n/a	n/a	n/a
1985740	PROB	n/a	LTP153	ltpFR	12	n/a	n/a	n/a	n/a	n/a	n/a	n/a	16	3	9	4	n/a	n/a	n/a	n/a	n/a
1987305	PROB	n/a	LTP153	ltpFR	12	n/a	n/a	n/a	n/a	n/a	n/a	n/a	16	6	5	5	n/a	n/a	n/a	n/a	n/a
1988486	PROB	n/a	LTP153	ltpFR	12	n/a	n/a	n/a	n/a	n/a	n/a	n/a	14	3	9	2	n/a	n/a	n/a	n/a	n/a
1989882	STOP	n/a	LTP153	ltpFR	12	n/a	n/a	n/a	n/a	n/a	n/a	n/a	n/a	n/a	n/a	n/a	n/a	n/a	n/a	n/a	n/a
1991998	REC_START	n/a	LTP153	ltpFR	12	8	n/a	n/a	n/a	n/a	n/a	n/a	n/a	0	0	0	n/a	n/a	n/a	n/a	n/a
1993774	REC_WORD	wordpools/wasnorm_wordpool.txt	LTP153	ltpFR	12	8	1	CANARY	227	n/a	n/a	1	n/a	0	0	0	n/a	n/a	n/a	n/a	n/a
1995220	REC_WORD	wordpools/wasnorm_wordpool.txt	LTP153	ltpFR	12	8	1	SKULL	1320	n/a	n/a	0	n/a	0	0	0	n/a	n/a	n/a	n/a	n/a
1999446	REC_WORD	wordpools/wasnorm_wordpool.txt	LTP153	ltpFR	12	8	1	REEF	1177	n/a	n/a	1	n/a	0	0	0	n/a	n/a	n/a	n/a	n/a
2004509	REC_WORD	wordpools/wasnorm_wordpool.txt	LTP153	ltpFR	12	8	0	CHAUFFEUR	283	n/a	n/a	1	n/a	0	0	0	n/a	n/a	n/a	n/a	n/a
2005509	REC_WORD_VV	wordpools/wasnorm_wordpool.txt	LTP153	ltpFR	12	8	n/a	<>	-1	n/a	n/a	n/a	n/a	0	0	0	n/a	n/a	n/a	n/a	n/a
2005732	REC_WORD	wordpools/wasnorm_wordpool.txt	LTP153	ltpFR	12	8	1	TABLET	1427	n/a	n/a	0	n/a	0	0	0	n/a	n/a	n/a	n/a	n/a
2010431	REC_WORD	wordpools/wasnorm_wordpool.txt	LTP153	ltpFR	12	8	1	PATROL	1027	n/a	n/a	0	n/a	0	0	0	n/a	n/a	n/a	n/a	n/a
2011439	REC_WORD	wordpools/wasnorm_wordpool.txt	LTP153	ltpFR	12	8	0	JAPAN	749	n/a	n/a	1	n/a	0	0	0	n/a	n/a	n/a	n/a	n/a
2014547	REC_WORD	wordpools/wasnorm_wordpool.txt	LTP153	ltpFR	12	8	0	MITTEN	902	n/a	n/a	0	n/a	0	0	0	n/a	n/a	n/a	n/a	n/a
2015215	REC_WORD	wordpools/wasnorm_wordpool.txt	LTP153	ltpFR	12	8	0	FIST	572	n/a	n/a	0	n/a	0	0	0	n/a	n/a	n/a	n/a	n/a
2071030	WORD	wordpools/wasnorm_wordpool.txt	LTP153	ltpFR	12	9	0	FRIES	607	n/a	n/a	0	n/a	0	0	0	0.57763671875	0.412841796875	1	upper	zerothre.ttf
2075257	WORD	wordpools/wasnorm_wordpool.txt	LTP153	ltpFR	12	9	0	BUN	197	n/a	n/a	0	n/a	0	0	0	0.57763671875	0.412841796875	1	upper	zerothre.ttf
2079101	WORD	wordpools/wasnorm_wordpool.txt	LTP153	ltpFR	12	9	1	GRIZZLY	662	n/a	n/a	1	n/a	0	0	0	0.422607421875	0.5869140625	0	lower	amplitud.ttf
2083078	WORD	wordpools/wasnorm_wordpool.txt	LTP153	ltpFR	12	9	1	ANIMAL	23	n/a	n/a	1	n/a	0	0	0	0.422607421875	0.5869140625	0	lower	amplitud.ttf
2087022	WORD	wordpools/wasnorm_wordpool.txt	LTP153	ltpFR	12	9	1	TICK	1463	n/a	n/a	1	n/a	0	0	0	0.422607421875	0.5869140625	0	lower	amplitud.ttf
2091216	WORD	wordpools/wasnorm_wordpool.txt	LTP153	ltpFR	12	9	1	BRIDGE	174	n/a	n/a	0	n/a	0	0	0	0.422607421875	0.5869140625	0	lower	amplitud.ttf
2095194	WORD	wordpools/wasnorm_wordpool.txt	LTP153	ltpFR	12	9	0	CRITIC	410	n/a	n/a	1	n/a	0	0	0	0.57763671875	0.412841796875	1	upper	zerothre.ttf
2099387	WORD	wordpools/wasnorm_wordpool.txt	LTP153	ltpFR	12	9	0	DIRECTOR	471	n/a	n/a	1	n/a	0	0	0	0.57763671875	0.412841796875	1	upper	zerothre.ttf
2103298	WORD	wordpools/wasnorm_wordpool.txt	LTP153	ltpFR	12	9	1	RAILROAD	1162	n/a	n/a	0	n/a	0	0	0	0.422607421875	0.5869140625	0	lower	amplitud.ttf
2107226	WORD	wordpools/wasnorm_wordpool.txt	LTP153	ltpFR	12	9	1	DISHWASHER	475	n/a	n/a	1	n/a	0	0	0	0.422607421875	0.5869140625	0	lower	amplitud.ttf
2111386	WORD	wordpools/wasnorm_wordpool.txt	LTP153	ltpFR	12	9	1	QUILT	1151	n/a	n/a	0	n/a	0	0	0	0.422607421875	0.5869140625	0	lower	amplitud.ttf
2115214	WORD	wordpools/wasnorm_wordpool.txt	LTP153	ltpFR	12	9	1	CLAY	320	n/a	n/a	0	n/a	0	0	0	0.422607421875	0.5869140625	0	lower	amplitud.ttf
2119374	WORD	wordpools/wasnorm_wordpool.txt	LTP153	ltpFR	12	9	0	NAVIGATOR	938	n/a	n/a	1	n/a	0	0	0	0.57763671875	0.412841796875	1	upper	zerothre.ttf
2123401	WORD	wordpools/wasnorm_wordpool.txt	LTP153	ltpFR	12	9	0	MATTRESS	879	n/a	n/a	1	n/a	0	0	0	0.57763671875	0.412841796875	1	upper	zerothre.ttf
2127229	WORD	wordpools/wasnorm_wordpool.txt	LTP153	ltpFR	12	9	0	RAIL	1161	n/a	n/a	1	n/a	0	0	0	0.57763671875	0.412841796875	1	upper	zerothre.ttf
2131157	WORD	wordpools/wasnorm_wordpool.txt	LTP153	ltpFR	12	9	0	LOLLIPOP	842	n/a	n/a	0	n/a	0	0	0	0.57763671875	0.412841796875	1	upper	zerothre.ttf
2136866	REC_START	n/a	LTP153	ltpFR	12	9	n/a	n/a	n/a	n/a	n/a	n/a	n/a	0	0	0	n/a	n/a	n/a	n/a	n/a
2137699	REC_WORD	wordpools/wasnorm_wordpool.txt	LTP153	ltpFR	12	9	0	BUN	197	n/a	n/a	0	n/a	0	0	0	n/a	n/a	n/a	n/a	n/a
2138402	REC_WORD	wordpools/wasnorm_wordpool.txt	LTP153	ltpFR	12	9	0	FRIES	607	n/a	n/a	0	n/a	0	0	0	n/a	n/a	n/a	n/a	n/a
2139402	REC_WORD_VV	wordpools/wasnorm_wordpool.txt	LTP153	ltpFR	12	9	n/a	<>	-1	n/a	n/a	n/a	n/a	0	0	0	n/a	n/a	n/a	n/a	n/a
2140832	REC_WORD_VV	wordpools/wasnorm_wordpool.txt	LTP153	ltpFR	12	9	n/a	<>	-1	n/a	n/a	n/a	n/a	0	0	0	n/a	n/a	n/a	n/a	n/a
2143361	REC_WORD	wordpools/wasnorm_wordpool.txt	LTP153	ltpFR	12	9	0	LOLLIPOP	842	n/a	n/a	0	n/a	0	0	0	n/a	n/a	n/a	n/a	n/a
2146449	REC_WORD	wordpools/wasnorm_wordpool.txt	LTP153	ltpFR	12	9	1	TICK	1463	n/a	n/a	1	n/a	0	0	0	n/a	n/a	n/a	n/a	n/a
2147232	REC_WORD	wordpools/wasnorm_wordpool.txt	LTP153	ltpFR	12	9	1	ANIMAL	23	n/a	n/a	1	n/a	0	0	0	n/a	n/a	n/a	n/a	n/a
2148040	REC_WORD	wordpools/wasnorm_wordpool.txt	LTP153	ltpFR	12	9	1	GRIZZLY	662	n/a	n/a	1	n/a	0	0	0	n/a	n/a	n/a	n/a	n/a
2156581	REC_WORD	wordpools/wasnorm_wordpool.txt	LTP153	ltpFR	12	9	0	NAVIGATOR	938	n/a	n/a	1	n/a	0	0	0	n/a	n/a	n/a	n/a	n/a
2157581	REC_WORD_VV	wordpools/wasnorm_wordpool.txt	LTP153	ltpFR	12	9	n/a	<>	-1	n/a	n/a	n/a	n/a	0	0	0	n/a	n/a	n/a	n/a	n/a
2215647	WORD	wordpools/wasnorm_wordpool.txt	LTP153	ltpFR	12	10	1	TIDE	1465	n/a	n/a	0	n/a	0	0	0	0.422607421875	0.5869140625	0	lower	amplitud.ttf
2219691	WORD	wordpools/wasnorm_wordpool.txt	LTP153	ltpFR	12	10	1	RABBIT	1152	n/a	n/a	1	n/a	0	0	0	0.422607421875	0.5869140625	0	lower	amplitud.ttf
2223869	WORD	wordpools/wasnorm_wordpool.txt	LTP153	ltpFR	12	10	1	DRIVER	499	n/a	n/a	1	n/a	0	0	0	0.422607421875	0.5869140625	0	lower	amplitud.ttf
2227829	WORD	wordpools/wasnorm_wordpool.txt	LTP153	ltpFR	12	10	0	CRYSTAL	418	n/a	n/a	0	n/a	0	0	0	0.57763671875	0.412841796875	1	upper	zerothre.ttf
2231690	WORD	wordpools/wasnorm_wordpool.txt	LTP153	ltpFR	12	10	0	ROBOT	1200	n/a	n/a	1	n/a	0	0	0	0.57763671875	0.412841796875	1	upper	zerothre.ttf
2235567	WORD	wordpools/wasnorm_wordpool.txt	LTP153	ltpFR	12	10	0	COMB	351	n/a	n/a	0	n/a	0	0	0	0.57763671875	0.412841796875	1	upper	zerothre.ttf
2239561	WORD	wordpools/wasnorm_wordpool.txt	LTP153	ltpFR	12	10	0	BALL	73	n/a	n/a	0	n/a	0	0	0	0.57763671875	0.412841796875	1	upper	zerothre.ttf
2243456	WORD	wordpools/wasnorm_wordpool.txt	LTP153	ltpFR	12	10	1	DAM	436	n/a	n/a	0	n/a	0	0	0	0.422607421875	0.5869140625	0	lower	amplitud.ttf
2247300	WORD	wordpools/wasnorm_wordpool.txt	LTP153	ltpFR	12	10	1	TOMATO	1476	n/a	n/a	0	n/a	0	0	0	0.422607421875	0.5869140625	0	lower	amplitud.ttf
2251277	WORD	wordpools/wasnorm_wordpool.txt	LTP153	ltpFR	12	10	0	SIRLOIN	1311	n/a	n/a	0	n/a	0	0	0	0.57763671875	0.412841796875	1	upper	zerothre.ttf
2255421	WORD	wordpools/wasnorm_wordpool.txt	LTP153	ltpFR	12	10	0	UNDERWEAR	1537	n/a	n/a	0	n/a	0	0	0	0.57763671875	0.412841796875	1	upper	zerothre.ttf
2259565	WORD	wordpools/wasnorm_wordpool.txt	LTP153	ltpFR	12	10	0	COSTUME	383	n/a	n/a	1	n/a	0	0	0	0.57763671875	0.412841796875	1	upper	zerothre.ttf
2263476	WORD	wordpools/wasnorm_wordpool.txt	LTP153	ltpFR	12	10	0	ASTRONAUT	51	n/a	n/a	1	n/a	0	0	0	0.57763671875	0.412841796875	1	upper	zerothre.ttf
2267603	WORD	wordpools/wasnorm_wordpool.txt	LTP153	ltpFR	12	10	1	WITNESS	1618	n/a	n/a	1	n/a	0	0	0	0.422607421875	0.5869140625	0	lower	amplitud.ttf
2271480	WORD	wordpools/wasnorm_wordpool.txt	LTP153	ltpFR	12	10	1	JURY	766	n/a	n/a	1	n/a	0	0	0	0.422607421875	0.5869140625	0	lower	amplitud.ttf
2275524	WORD	wordpools/wasnorm_wordpool.txt	LTP153	ltpFR	12	10	1	COURSE	390	n/a	n/a	0	n/a	0	0	0	0.422607421875	0.5869140625	0	lower	amplitud.ttf
2278537	START	n/a	LTP153	ltpFR	12	n/a	n/a	n/a	n/a	n/a	n/a	n/a	n/a	n/a	n/a	n/a	n/a	n/a	n/a	n/a	n/a
2279352	PROB	n/a	LTP153	ltpFR	12	n/a	n/a	n/a	n/a	n/a	n/a	n/a	12	2	9	1	n/a	n/a	n/a	n/a	n/a
2280983	PROB	n/a	LTP153	ltpFR	12	n/a	n/a	n/a	n/a	n/a	n/a	n/a	9	1	6	2	n/a	n/a	n/a	n/a	n/a
2282414	PROB	n/a	LTP153	ltpFR	12	n/a	n/a	n/a	n/a	n/a	n/a	n/a	6	4	1	1	n/a	n/a	n/a	n/a	n/a
2283529	PROB	n/a	LTP153	ltpFR	12	n/a	n/a	n/a	n/a	n/a	n/a	n/a	16	8	4	4	n/a	n/a	n/a	n/a	n/a
2285049	STOP	n/a	LTP153	ltpFR	12	n/a	n/a	n/a	n/a	n/a	n/a	n/a	n/a	n/a	n/a	n/a	n/a	n/a	n/a	n/a	n/a
2288323	REC_START	n/a	LTP153	ltpFR	12	10	n/a	n/a	n/a	n/a	n/a	n/a	n/a	0	0	0	n/a	n/a	n/a	n/a	n/a
2290408	REC_WORD	wordpools/wasnorm_wordpool.txt	LTP153	ltpFR	12	10	1	RABBIT	1152	n/a	n/a	1	n/a	0	0	0	n/a	n/a	n/a	n/a	n/a
2294124	REC_WORD	wordpools/wasnorm_wordpool.txt	LTP153	ltpFR	12	10	1	COURSE	390	n/a	n/a	0	n/a	0	0	0	n/a	n/a	n/a	n/a	n/a
2295402	REC_WORD	wordpools/wasnorm_wordpool.txt	LTP153	ltpFR	12	10	1	JURY	766	n/a	n/a	1	n/a	0	0	0	n/a	n/a	n/a	n/a	n/a
2297467	REC_WORD	wordpools/wasnorm_wordpool.txt	LTP153	ltpFR	12	10	1	WITNESS	1618	n/a	n/a	1	n/a	0	0	0	n/a	n/a	n/a	n/a	n/a
2304296	REC_WORD	wordpools/wasnorm_wordpool.txt	LTP153	ltpFR	12	10	1	TIDE	1465	n/a	n/a	0	n/a	0	0	0	n/a	n/a	n/a	n/a	n/a
2328466	REC_WORD	wordpools/wasnorm_wordpool.txt	LTP153	ltpFR	12	10	1	TOMATO	1476	n/a	n/a	0	n/a	0	0	0	n/a	n/a	n/a	n/a	n/a
2363909	REST_REWET	n/a	LTP153	ltpFR	12	10	n/a	n/a	n/a	n/a	n/a	n/a	n/a	0	0	0	n/a	n/a	n/a	n/a	n/a
2724122	START	n/a	LTP153	ltpFR	12	n/a	n/a	n/a	n/a	n/a	n/a	n/a	n/a	n/a	n/a	n/a	n/a	n/a	n/a	n/a	n/a
2725636	PROB	n/a	LTP153	ltpFR	12	n/a	n/a	n/a	n/a	n/a	n/a	n/a	6	1	1	4	n/a	n/a	n/a	n/a	n/a
2726885	PROB	n/a	LTP153	ltpFR	12	n/a	n/a	n/a	n/a	n/a	n/a	n/a	17	1	7	9	n/a	n/a	n/a	n/a	n/a
2728947	PROB	n/a	LTP153	ltpFR	12	n/a	n/a	n/a	n/a	n/a	n/a	n/a	12	2	2	8	n/a	n/a	n/a	n/a	n/a
2730445	PROB	n/a	LTP153	ltpFR	12	n/a	n/a	n/a	n/a	n/a	n/a	n/a	18	7	4	7	n/a	n/a	n/a	n/a	n/a
2731943	PROB	n/a	LTP153	ltpFR	12	n/a	n/a	n/a	n/a	n/a	n/a	n/a	20	8	3	9	n/a	n/a	n/a	n/a	n/a
2734056	PROB	n/a	LTP153	ltpFR	12	n/a	n/a	n/a	n/a	n/a	n/a	n/a	12	7	3	2	n/a	n/a	n/a	n/a	n/a
2735438	PROB	n/a	LTP153	ltpFR	12	n/a	n/a	n/a	n/a	n/a	n/a	n/a	10	1	7	2	n/a	n/a	n/a	n/a	n/a
2736952	PROB	n/a	LTP153	ltpFR	12	n/a	n/a	n/a	n/a	n/a	n/a	n/a	15	7	1	7	n/a	n/a	n/a	n/a	n/a
2738200	PROB	n/a	LTP153	ltpFR	12	n/a	n/a	n/a	n/a	n/a	n/a	n/a	12	2	2	8	n/a	n/a	n/a	n/a	n/a
2739521	STOP	n/a	LTP153	ltpFR	12	n/a	n/a	n/a	n/a	n/a	n/a	n/a	n/a	n/a	n/a	n/a	n/a	n/a	n/a	n/a	n/a
2741046	WORD	wordpools/wasnorm_wordpool.txt	LTP153	ltpFR	12	11	1	HOE	711	n/a	n/a	0	n/a	0	0	0	0.422607421875	0.5869140625	0	lower	amplitud.ttf
2744059	START	n/a	LTP153	ltpFR	12	n/a	n/a	n/a	n/a	n/a	n/a	n/a	n/a	n/a	n/a	n/a	n/a	n/a	n/a	n/a	n/a
2744924	PROB	n/a	LTP153	ltpFR	12	n/a	n/a	n/a	n/a	n/a	n/a	n/a	15	8	5	2	n/a	n/a	n/a	n/a	n/a
2746271	PROB	n/a	LTP153	ltpFR	12	n/a	n/a	n/a	n/a	n/a	n/a	n/a	19	4	7	8	n/a	n/a	n/a	n/a	n/a
2748019	PROB	n/a	LTP153	ltpFR	12	n/a	n/a	n/a	n/a	n/a	n/a	n/a	14	5	5	4	n/a	n/a	n/a	n/a	n/a
2749167	PROB	n/a	LTP153	ltpFR	12	n/a	n/a	n/a	n/a	n/a	n/a	n/a	14	4	2	8	n/a	n/a	n/a	n/a	n/a
2750532	PROB	n/a	LTP153	ltpFR	12	n/a	n/a	n/a	n/a	n/a	n/a	n/a	15	9	2	4	n/a	n/a	n/a	n/a	n/a
2752296	PROB	n/a	LTP153	ltpFR	12	n/a	n/a	n/a	n/a	n/a	n/a	n/a	15	5	4	6	n/a	n/a	n/a	n/a	n/a
2753845	PROB	n/a	LTP153	ltpFR	12	n/a	n/a	n/a	n/a	n/a	n/a	n/a	19	7	3	9	n/a	n/a	n/a	n/a	n/a
2755125	PROB	n/a	LTP153	ltpFR	12	n/a	n/a	n/a	n/a	n/a	n/a	n/a	11	4	3	4	n/a	n/a	n/a	n/a	n/a
2757188	PROB	n/a	LTP153	ltpFR	12	n/a	n/a	n/a	n/a	n/a	n/a	n/a	8	1	1	6	n/a	n/a	n/a	n/a	n/a
2758254	PROB	n/a	LTP153	ltpFR	12	n/a	n/a	n/a	n/a	n/a	n/a	n/a	11	6	4	1	n/a	n/a	n/a	n/a	n/a
2759553	STOP	n/a	LTP153	ltpFR	12	n/a	n/a	n/a	n/a	n/a	n/a	n/a	n/a	n/a	n/a	n/a	n/a	n/a	n/a	n/a	n/a
2760950	WORD	wordpools/wasnorm_wordpool.txt	LTP153	ltpFR	12	11	1	HAWK	692	n/a	n/a	1	n/a	0	0	0	0.422607421875	0.5869140625	0	lower	amplitud.ttf
2763962	START	n/a	LTP153	ltpFR	12	n/a	n/a	n/a	n/a	n/a	n/a	n/a	n/a	n/a	n/a	n/a	n/a	n/a	n/a	n/a	n/a
2764794	PROB	n/a	LTP153	ltpFR	12	n/a	n/a	n/a	n/a	n/a	n/a	n/a	16	4	4	8	n/a	n/a	n/a	n/a	n/a
2766842	PROB	n/a	LTP153	ltpFR	12	n/a	n/a	n/a	n/a	n/a	n/a	n/a	21	4	9	8	n/a	n/a	n/a	n/a	n/a
2768621	PROB	n/a	LTP153	ltpFR	12	n/a	n/a	n/a	n/a	n/a	n/a	n/a	9	2	6	1	n/a	n/a	n/a	n/a	n/a
2770019	PROB	n/a	LTP153	ltpFR	12	n/a	n/a	n/a	n/a	n/a	n/a	n/a	12	1	6	5	n/a	n/a	n/a	n/a	n/a
2771717	PROB	n/a	LTP153	ltpFR	12	n/a	n/a	n/a	n/a	n/a	n/a	n/a	14	9	4	1	n/a	n/a	n/a	n/a	n/a
2774013	PROB	n/a	LTP153	ltpFR	12	n/a	n/a	n/a	n/a	n/a	n/a	n/a	17	4	6	7	n/a	n/a	n/a	n/a	n/a
2775262	PROB	n/a	LTP153	ltpFR	12	n/a	n/a	n/a	n/a	n/a	n/a	n/a	22	6	9	7	n/a	n/a	n/a	n/a	n/a
2777458	PROB	n/a	LTP153	ltpFR	12	n/a	n/a	n/a	n/a	n/a	n/a	n/a	16	6	6	4	n/a	n/a	n/a	n/a	n/a
2778577	STOP	n/a	LTP153	ltpFR	12	n/a	n/a	n/a	n/a	n/a	n/a	n/a	n/a	n/a	n/a	n/a	n/a	n/a	n/a	n/a	n/a
2781070	WORD	wordpools/wasnorm_wordpool.txt	LTP153	ltpFR	12	11	1	CITY	314	n/a	n/a	0	n/a	0	0	0	0.422607421875	0.5869140625	0	lower	amplitud.ttf
2784082	START	n/a	LTP153	ltpFR	12	n/a	n/a	n/a	n/a	n/a	n/a	n/a	n/a	n/a	n/a	n/a	n/a	n/a	n/a	n/a	n/a
2785147	PROB	n/a	LTP153	ltpFR	12	n/a	n/a	n/a	n/a	n/a	n/a	n/a	6	1	2	3	n/a	n/a	n/a	n/a	n/a
2786345	PROB	n/a	LTP153	ltpFR	12	n/a	n/a	n/a	n/a	n/a	n/a	n/a	23	9	7	8	n/a	n/a	n/a	n/a	n/a
2788442	PROB	n/a	LTP153	ltpFR	12	n/a	n/a	n/a	n/a	n/a	n/a	n/a	17	9	6	2	n/a	n/a	n/a	n/a	n/a
2790772	PROB	n/a	LTP153	ltpFR	12	n/a	n/a	n/a	n/a	n/a	n/a	n/a	14	2	7	5	n/a	n/a	n/a	n/a	n/a
2792469	PROB	n/a	LTP153	ltpFR	12	n/a	n/a	n/a	n/a	n/a	n/a	n/a	9	6	2	1	n/a	n/a	n/a	n/a	n/a
2793601	PROB	n/a	LTP153	ltpFR	12	n/a	n/a	n/a	n/a	n/a	n/a	n/a	14	1	9	4	n/a	n/a	n/a	n/a	n/a
2794850	PROB	n/a	LTP153	ltpFR	12	n/a	n/a	n/a	n/a	n/a	n/a	n/a	27	9	9	9	n/a	n/a	n/a	n/a	n/a
2796230	PROB	n/a	LTP153	ltpFR	12	n/a	n/a	n/a	n/a	n/a	n/a	n/a	15	7	5	3	n/a	n/a	n/a	n/a	n/a
2798127	PROB	n/a	LTP153	ltpFR	12	n/a	n/a	n/a	n/a	n/a	n/a	n/a	16	2	5	9	n/a	n/a	n/a	n/a	n/a
2799385	STOP	n/a	LTP153	ltpFR	12	n/a	n/a	n/a	n/a	n/a	n/a	n/a	n/a	n/a	n/a	n/a	n/a	n/a	n/a	n/a	n/a
2800956	WORD	wordpools/wasnorm_wordpool.txt	LTP153	ltpFR	12	11	1	PEN	1041	n/a	n/a	0	n/a	0	0	0	0.422607421875	0.5869140625	0	lower	amplitud.ttf
2803969	START	n/a	LTP153	ltpFR	12	n/a	n/a	n/a	n/a	n/a	n/a	n/a	n/a	n/a	n/a	n/a	n/a	n/a	n/a	n/a	n/a
2804801	PROB	n/a	LTP153	ltpFR	12	n/a	n/a	n/a	n/a	n/a	n/a	n/a	15	4	9	2	n/a	n/a	n/a	n/a	n/a
2806914	PROB	n/a	LTP153	ltpFR	12	n/a	n/a	n/a	n/a	n/a	n/a	n/a	16	3	9	4	n/a	n/a	n/a	n/a	n/a
2808562	PROB	n/a	LTP153	ltpFR	12	n/a	n/a	n/a	n/a	n/a	n/a	n/a	14	2	5	7	n/a	n/a	n/a	n/a	n/a
2809793	PROB	n/a	LTP153	ltpFR	12	n/a	n/a	n/a	n/a	n/a	n/a	n/a	13	9	1	3	n/a	n/a	n/a	n/a	n/a
2811291	PROB	n/a	LTP153	ltpFR	12	n/a	n/a	n/a	n/a	n/a	n/a	n/a	13	4	5	4	n/a	n/a	n/a	n/a	n/a
2813172	PROB	n/a	LTP153	ltpFR	12	n/a	n/a	n/a	n/a	n/a	n/a	n/a	18	9	8	1	n/a	n/a	n/a	n/a	n/a
2815069	PROB	n/a	LTP153	ltpFR	12	n/a	n/a	n/a	n/a	n/a	n/a	n/a	12	7	3	2	n/a	n/a	n/a	n/a	n/a
2816400	PROB	n/a	LTP153	ltpFR	12	n/a	n/a	n/a	n/a	n/a	n/a	n/a	10	1	5	4	n/a	n/a	n/a	n/a	n/a
2817732	PROB	n/a	LTP153	ltpFR	12	n/a	n/a	n/a	n/a	n/a	n/a	n/a	9	1	3	5	n/a	n/a	n/a	n/a	n/a
2819217	STOP	n/a	LTP153	ltpFR	12	n/a	n/a	n/a	n/a	n/a	n/a	n/a	n/a	n/a	n/a	n/a	n/a	n/a	n/a	n/a	n/a
2820960	WORD	wordpools/wasnorm_wordpool.txt	LTP153	ltpFR	12	11	1	QUILL	1150	n/a	n/a	0	n/a	0	0	0	0.422607421875	0.5869140625	0	lower	amplitud.ttf
2823973	START	n/a	LTP153	ltpFR	12	n/a	n/a	n/a	n/a	n/a	n/a	n/a	n/a	n/a	n/a	n/a	n/a	n/a	n/a	n/a	n/a
2824855	PROB	n/a	LTP153	ltpFR	12	n/a	n/a	n/a	n/a	n/a	n/a	n/a	7	5	1	1	n/a	n/a	n/a	n/a	n/a
2826119	PROB	n/a	LTP153	ltpFR	12	n/a	n/a	n/a	n/a	n/a	n/a	n/a	15	3	8	4	n/a	n/a	n/a	n/a	n/a
2828266	PROB	n/a	LTP153	ltpFR	12	n/a	n/a	n/a	n/a	n/a	n/a	n/a	17	9	6	2	n/a	n/a	n/a	n/a	n/a
2829830	PROB	n/a	LTP153	ltpFR	12	n/a	n/a	n/a	n/a	n/a	n/a	n/a	13	6	3	4	n/a	n/a	n/a	n/a	n/a
2831161	PROB	n/a	LTP153	ltpFR	12	n/a	n/a	n/a	n/a	n/a	n/a	n/a	25	7	9	9	n/a	n/a	n/a	n/a	n/a
2832959	PROB	n/a	LTP153	ltpFR	12	n/a	n/a	n/a	n/a	n/a	n/a	n/a	21	8	7	7	n/a	n/a	n/a	n/a	n/a
2836753	PROB	n/a	LTP153	ltpFR	12	n/a	n/a	n/a	n/a	n/a	n/a	n/a	12	3	8	1	n/a	n/a	n/a	n/a	n/a
2839081	STOP	n/a	LTP153	ltpFR	12	n/a	n/a	n/a	n/a	n/a	n/a	n/a	n/a	n/a	n/a	n/a	n/a	n/a	n/a	n/a	n/a
2840898	WORD	wordpools/wasnorm_wordpool.txt	LTP153	ltpFR	12	11	1	EUROPE	541	n/a	n/a	0	n/a	0	0	0	0.422607421875	0.5869140625	0	lower	amplitud.ttf
2843909	START	n/a	LTP153	ltpFR	12	n/a	n/a	n/a	n/a	n/a	n/a	n/a	n/a	n/a	n/a	n/a	n/a	n/a	n/a	n/a	n/a
2844741	PROB	n/a	LTP153	ltpFR	12	n/a	n/a	n/a	n/a	n/a	n/a	n/a	19	6	7	6	n/a	n/a	n/a	n/a	n/a
2847071	PROB	n/a	LTP153	ltpFR	12	n/a	n/a	n/a	n/a	n/a	n/a	n/a	10	3	2	5	n/a	n/a	n/a	n/a	n/a
2848352	PROB	n/a	LTP153	ltpFR	12	n/a	n/a	n/a	n/a	n/a	n/a	n/a	17	8	6	3	n/a	n/a	n/a	n/a	n/a
2850000	PROB	n/a	LTP153	ltpFR	12	n/a	n/a	n/a	n/a	n/a	n/a	n/a	15	5	1	9	n/a	n/a	n/a	n/a	n/a
2851581	PROB	n/a	LTP153	ltpFR	12	n/a	n/a	n/a	n/a	n/a	n/a	n/a	17	6	9	2	n/a	n/a	n/a	n/a	n/a
2854077	PROB	n/a	LTP153	ltpFR	12	n/a	n/a	n/a	n/a	n/a	n/a	n/a	12	5	4	3	n/a	n/a	n/a	n/a	n/a
2855458	PROB	n/a	LTP153	ltpFR	12	n/a	n/a	n/a	n/a	n/a	n/a	n/a	5	2	1	2	n/a	n/a	n/a	n/a	n/a
2856557	PROB	n/a	LTP153	ltpFR	12	n/a	n/a	n/a	n/a	n/a	n/a	n/a	15	9	2	4	n/a	n/a	n/a	n/a	n/a
2858154	PROB	n/a	LTP153	ltpFR	12	n/a	n/a	n/a	n/a	n/a	n/a	n/a	18	1	8	9	n/a	n/a	n/a	n/a	n/a
2859385	STOP	n/a	LTP153	ltpFR	12	n/a	n/a	n/a	n/a	n/a	n/a	n/a	n/a	n/a	n/a	n/a	n/a	n/a	n/a	n/a	n/a
2860851	WORD	wordpools/wasnorm_wordpool.txt	LTP153	ltpFR	12	11	1	DIGGER	464	n/a	n/a	1	n/a	0	0	0	0.422607421875	0.5869140625	0	lower	amplitud.ttf
2863864	START	n/a	LTP153	ltpFR	12	n/a	n/a	n/a	n/a	n/a	n/a	n/a	n/a	n/a	n/a	n/a	n/a	n/a	n/a	n/a	n/a
2864778	PROB	n/a	LTP153	ltpFR	12	n/a	n/a	n/a	n/a	n/a	n/a	n/a	14	3	9	2	n/a	n/a	n/a	n/a	n/a
2866775	PROB	n/a	LTP153	ltpFR	12	n/a	n/a	n/a	n/a	n/a	n/a	n/a	8	1	5	2	n/a	n/a	n/a	n/a	n/a
2868223	PROB	n/a	LTP153	ltpFR	12	n/a	n/a	n/a	n/a	n/a	n/a	n/a	18	7	4	7	n/a	n/a	n/a	n/a	n/a
2869787	PROB	n/a	LTP153	ltpFR	12	n/a	n/a	n/a	n/a	n/a	n/a	n/a	7	4	2	1	n/a	n/a	n/a	n/a	n/a
2871002	PROB	n/a	LTP153	ltpFR	12	n/a	n/a	n/a	n/a	n/a	n/a	n/a	13	6	1	6	n/a	n/a	n/a	n/a	n/a
2872433	PROB	n/a	LTP153	ltpFR	12	n/a	n/a	n/a	n/a	n/a	n/a	n/a	22	9	5	8	n/a	n/a	n/a	n/a	n/a
2874847	PROB	n/a	LTP153	ltpFR	12	n/a	n/a	n/a	n/a	n/a	n/a	n/a	17	4	4	9	n/a	n/a	n/a	n/a	n/a
2876926	PROB	n/a	LTP153	ltpFR	12	n/a	n/a	n/a	n/a	n/a	n/a	n/a	21	7	7	8	n/a	n/a	n/a	n/a	n/a
2879864	STOP	n/a	LTP153	ltpFR	12	n/a	n/a	n/a	n/a	n/a	n/a	n/a	n/a	n/a	n/a	n/a	n/a	n/a	n/a	n/a	n/a
2880704	WORD	wordpools/wasnorm_wordpool.txt	LTP153	ltpFR	12	11	1	LIME	823	n/a	n/a	0	n/a	0	0	0	0.422607421875	0.5869140625	0	lower	amplitud.ttf
2883717	START	n/a	LTP153	ltpFR	12	n/a	n/a	n/a	n/a	n/a	n/a	n/a	n/a	n/a	n/a	n/a	n/a	n/a	n/a	n/a	n/a
2884681	PROB	n/a	LTP153	ltpFR	12	n/a	n/a	n/a	n/a	n/a	n/a	n/a	19	5	7	7	n/a	n/a	n/a	n/a	n/a
2885946	PROB	n/a	LTP153	ltpFR	12	n/a	n/a	n/a	n/a	n/a	n/a	n/a	9	3	2	4	n/a	n/a	n/a	n/a	n/a
2887078	PROB	n/a	LTP153	ltpFR	12	n/a	n/a	n/a	n/a	n/a	n/a	n/a	22	9	5	8	n/a	n/a	n/a	n/a	n/a
2889607	PROB	n/a	LTP153	ltpFR	12	n/a	n/a	n/a	n/a	n/a	n/a	n/a	9	3	3	3	n/a	n/a	n/a	n/a	n/a
2890606	PROB	n/a	LTP153	ltpFR	12	n/a	n/a	n/a	n/a	n/a	n/a	n/a	15	1	5	9	n/a	n/a	n/a	n/a	n/a
2892104	PROB	n/a	LTP153	ltpFR	12	n/a	n/a	n/a	n/a	n/a	n/a	n/a	7	3	1	2	n/a	n/a	n/a	n/a	n/a
2893835	PROB	n/a	LTP153	ltpFR	12	n/a	n/a	n/a	n/a	n/a	n/a	n/a	11	8	2	1	n/a	n/a	n/a	n/a	n/a
2895415	PROB	n/a	LTP153	ltpFR	12	n/a	n/a	n/a	n/a	n/a	n/a	n/a	15	3	5	7	n/a	n/a	n/a	n/a	n/a
2896946	PROB	n/a	LTP153	ltpFR	12	n/a	n/a	n/a	n/a	n/a	n/a	n/a	14	2	4	8	n/a	n/a	n/a	n/a	n/a
2898697	STOP	n/a	LTP153	ltpFR	12	n/a	n/a	n/a	n/a	n/a	n/a	n/a	n/a	n/a	n/a	n/a	n/a	n/a	n/a	n/a	n/a
2900574	WORD	wordpools/wasnorm_wordpool.txt	LTP153	ltpFR	12	11	1	VILLAGE	1566	n/a	n/a	0	n/a	0	0	0	0.422607421875	0.5869140625	0	lower	amplitud.ttf
2903587	START	n/a	LTP153	ltpFR	12	n/a	n/a	n/a	n/a	n/a	n/a	n/a	n/a	n/a	n/a	n/a	n/a	n/a	n/a	n/a	n/a
2904735	PROB	n/a	LTP153	ltpFR	12	n/a	n/a	n/a	n/a	n/a	n/a	n/a	14	4	9	1	n/a	n/a	n/a	n/a	n/a
2906149	PROB	n/a	LTP153	ltpFR	12	n/a	n/a	n/a	n/a	n/a	n/a	n/a	9	1	3	5	n/a	n/a	n/a	n/a	n/a
2907664	PROB	n/a	LTP153	ltpFR	12	n/a	n/a	n/a	n/a	n/a	n/a	n/a	8	2	3	3	n/a	n/a	n/a	n/a	n/a
2910626	PROB	n/a	LTP153	ltpFR	12	n/a	n/a	n/a	n/a	n/a	n/a	n/a	10	3	5	2	n/a	n/a	n/a	n/a	n/a
2912573	PROB	n/a	LTP153	ltpFR	12	n/a	n/a	n/a	n/a	n/a	n/a	n/a	14	7	1	6	n/a	n/a	n/a	n/a	n/a
2914088	PROB	n/a	LTP153	ltpFR	12	n/a	n/a	n/a	n/a	n/a	n/a	n/a	27	9	9	9	n/a	n/a	n/a	n/a	n/a
2915469	PROB	n/a	LTP153	ltpFR	12	n/a	n/a	n/a	n/a	n/a	n/a	n/a	19	5	5	9	n/a	n/a	n/a	n/a	n/a
2916617	PROB	n/a	LTP153	ltpFR	12	n/a	n/a	n/a	n/a	n/a	n/a	n/a	20	4	9	7	n/a	n/a	n/a	n/a	n/a
2918057	STOP	n/a	LTP153	ltpFR	12	n/a	n/a	n/a	n/a	n/a	n/a	n/a	n/a	n/a	n/a	n/a	n/a	n/a	n/a	n/a	n/a
2920595	WORD	wordpools/wasnorm_wordpool.txt	LTP153	ltpFR	12	11	1	BIKE	125	n/a	n/a	0	n/a	0	0	0	0.422607421875	0.5869140625	0	lower	amplitud.ttf
2923607	START	n/a	LTP153	ltpFR	12	n/a	n/a	n/a	n/a	n/a	n/a	n/a	n/a	n/a	n/a	n/a	n/a	n/a	n/a	n/a	n/a
2924722	PROB	n/a	LTP153	ltpFR	12	n/a	n/a	n/a	n/a	n/a	n/a	n/a	9	2	6	1	n/a	n/a	n/a	n/a	n/a
2926186	PROB	n/a	LTP153	ltpFR	12	n/a	n/a	n/a	n/a	n/a	n/a	n/a	17	7	4	6	n/a	n/a	n/a	n/a	n/a
2929481	PROB	n/a	LTP153	ltpFR	12	n/a	n/a	n/a	n/a	n/a	n/a	n/a	8	1	1	6	n/a	n/a	n/a	n/a	n/a
2930463	PROB	n/a	LTP153	ltpFR	12	n/a	n/a	n/a	n/a	n/a	n/a	n/a	18	9	8	1	n/a	n/a	n/a	n/a	n/a
2931862	PROB	n/a	LTP153	ltpFR	12	n/a	n/a	n/a	n/a	n/a	n/a	n/a	16	5	9	2	n/a	n/a	n/a	n/a	n/a
2933708	PROB	n/a	LTP153	ltpFR	12	n/a	n/a	n/a	n/a	n/a	n/a	n/a	17	5	5	7	n/a	n/a	n/a	n/a	n/a
2935139	PROB	n/a	LTP153	ltpFR	12	n/a	n/a	n/a	n/a	n/a	n/a	n/a	24	8	8	8	n/a	n/a	n/a	n/a	n/a
2936554	PROB	n/a	LTP153	ltpFR	12	n/a	n/a	n/a	n/a	n/a	n/a	n/a	23	8	9	6	n/a	n/a	n/a	n/a	n/a
2939481	STOP	n/a	LTP153	ltpFR	12	n/a	n/a	n/a	n/a	n/a	n/a	n/a	n/a	n/a	n/a	n/a	n/a	n/a	n/a	n/a	n/a
2940814	WORD	wordpools/wasnorm_wordpool.txt	LTP153	ltpFR	12	11	1	PELICAN	1039	n/a	n/a	1	n/a	0	0	0	0.422607421875	0.5869140625	0	lower	amplitud.ttf
2943827	START	n/a	LTP153	ltpFR	12	n/a	n/a	n/a	n/a	n/a	n/a	n/a	n/a	n/a	n/a	n/a	n/a	n/a	n/a	n/a	n/a
2944908	PROB	n/a	LTP153	ltpFR	12	n/a	n/a	n/a	n/a	n/a	n/a	n/a	19	5	7	7	n/a	n/a	n/a	n/a	n/a
2946306	PROB	n/a	LTP153	ltpFR	12	n/a	n/a	n/a	n/a	n/a	n/a	n/a	22	9	8	5	n/a	n/a	n/a	n/a	n/a
2949934	PROB	n/a	LTP153	ltpFR	12	n/a	n/a	n/a	n/a	n/a	n/a	n/a	21	7	8	7	n/a	n/a	n/a	n/a	n/a
2952081	PROB	n/a	LTP153	ltpFR	12	n/a	n/a	n/a	n/a	n/a	n/a	n/a	17	9	2	6	n/a	n/a	n/a	n/a	n/a
2953928	PROB	n/a	LTP153	ltpFR	12	n/a	n/a	n/a	n/a	n/a	n/a	n/a	16	3	7	6	n/a	n/a	n/a	n/a	n/a
2955043	PROB	n/a	LTP153	ltpFR	12	n/a	n/a	n/a	n/a	n/a	n/a	n/a	19	9	6	4	n/a	n/a	n/a	n/a	n/a
2956424	PROB	n/a	LTP153	ltpFR	12	n/a	n/a	n/a	n/a	n/a	n/a	n/a	16	8	4	4	n/a	n/a	n/a	n/a	n/a
2957756	PROB	n/a	LTP153	ltpFR	12	n/a	n/a	n/a	n/a	n/a	n/a	n/a	16	4	4	8	n/a	n/a	n/a	n/a	n/a
2959529	STOP	n/a	LTP153	ltpFR	12	n/a	n/a	n/a	n/a	n/a	n/a	n/a	n/a	n/a	n/a	n/a	n/a	n/a	n/a	n/a	n/a
2960951	WORD	wordpools/wasnorm_wordpool.txt	LTP153	ltpFR	12	11	1	GARLIC	624	n/a	n/a	0	n/a	0	0	0	0.422607421875	0.5869140625	0	lower	amplitud.ttf
2963964	START	n/a	LTP153	ltpFR	12	n/a	n/a	n/a	n/a	n/a	n/a	n/a	n/a	n/a	n/a	n/a	n/a	n/a	n/a	n/a	n/a
2965145	PROB	n/a	LTP153	ltpFR	12	n/a	n/a	n/a	n/a	n/a	n/a	n/a	14	8	3	3	n/a	n/a	n/a	n/a	n/a
2966543	PROB	n/a	LTP153	ltpFR	12	n/a	n/a	n/a	n/a	n/a	n/a	n/a	16	5	4	7	n/a	n/a	n/a	n/a	n/a
2967924	PROB	n/a	LTP153	ltpFR	12	n/a	n/a	n/a	n/a	n/a	n/a	n/a	15	4	3	8	n/a	n/a	n/a	n/a	n/a
2969355	PROB	n/a	LTP153	ltpFR	12	n/a	n/a	n/a	n/a	n/a	n/a	n/a	17	2	9	6	n/a	n/a	n/a	n/a	n/a
2970986	PROB	n/a	LTP153	ltpFR	12	n/a	n/a	n/a	n/a	n/a	n/a	n/a	19	5	9	5	n/a	n/a	n/a	n/a	n/a
2972317	PROB	n/a	LTP153	ltpFR	12	n/a	n/a	n/a	n/a	n/a	n/a	n/a	13	1	4	8	n/a	n/a	n/a	n/a	n/a
2973782	PROB	n/a	LTP153	ltpFR	12	n/a	n/a	n/a	n/a	n/a	n/a	n/a	14	5	2	7	n/a	n/a	n/a	n/a	n/a
2975213	PROB	n/a	LTP153	ltpFR	12	n/a	n/a	n/a	n/a	n/a	n/a	n/a	12	5	2	5	n/a	n/a	n/a	n/a	n/a
2976461	PROB	n/a	LTP153	ltpFR	12	n/a	n/a	n/a	n/a	n/a	n/a	n/a	16	8	2	6	n/a	n/a	n/a	n/a	n/a
2979964	STOP	n/a	LTP153	ltpFR	12	n/a	n/a	n/a	n/a	n/a	n/a	n/a	n/a	n/a	n/a	n/a	n/a	n/a	n/a	n/a	n/a
2981071	WORD	wordpools/wasnorm_wordpool.txt	LTP153	ltpFR	12	11	1	COLOGNE	347	n/a	n/a	0	n/a	0	0	0	0.422607421875	0.5869140625	0	lower	amplitud.ttf
2984084	START	n/a	LTP153	ltpFR	12	n/a	n/a	n/a	n/a	n/a	n/a	n/a	n/a	n/a	n/a	n/a	n/a	n/a	n/a	n/a	n/a
2984965	PROB	n/a	LTP153	ltpFR	12	n/a	n/a	n/a	n/a	n/a	n/a	n/a	18	7	6	5	n/a	n/a	n/a	n/a	n/a
2987361	PROB	n/a	LTP153	ltpFR	12	n/a	n/a	n/a	n/a	n/a	n/a	n/a	14	9	3	2	n/a	n/a	n/a	n/a	n/a
2988709	PROB	n/a	LTP153	ltpFR	12	n/a	n/a	n/a	n/a	n/a	n/a	n/a	15	2	6	3	n/a	n/a	n/a	n/a	n/a
2990657	PROB	n/a	LTP153	ltpFR	12	n/a	n/a	n/a	n/a	n/a	n/a	n/a	13	1	3	9	n/a	n/a	n/a	n/a	n/a
2992537	PROB	n/a	LTP153	ltpFR	12	n/a	n/a	n/a	n/a	n/a	n/a	n/a	9	1	6	2	n/a	n/a	n/a	n/a	n/a
2993968	PROB	n/a	LTP153	ltpFR	12	n/a	n/a	n/a	n/a	n/a	n/a	n/a	12	4	1	7	n/a	n/a	n/a	n/a	n/a
2995499	PROB	n/a	LTP153	ltpFR	12	n/a	n/a	n/a	n/a	n/a	n/a	n/a	11	7	1	3	n/a	n/a	n/a	n/a	n/a
2996764	PROB	n/a	LTP153	ltpFR	12	n/a	n/a	n/a	n/a	n/a	n/a	n/a	10	4	4	2	n/a	n/a	n/a	n/a	n/a
2998145	PROB	n/a	LTP153	ltpFR	12	n/a	n/a	n/a	n/a	n/a	n/a	n/a	9	6	1	2	n/a	n/a	n/a	n/a	n/a
2999401	STOP	n/a	LTP153	ltpFR	12	n/a	n/a	n/a	n/a	n/a	n/a	n/a	n/a	n/a	n/a	n/a	n/a	n/a	n/a	n/a	n/a
3001108	WORD	wordpools/wasnorm_wordpool.txt	LTP153	ltpFR	12	11	1	APPLICATION	34	n/a	n/a	0	n/a	0	0	0	0.422607421875	0.5869140625	0	lower	amplitud.ttf
3004120	START	n/a	LTP153	ltpFR	12	n/a	n/a	n/a	n/a	n/a	n/a	n/a	n/a	n/a	n/a	n/a	n/a	n/a	n/a	n/a	n/a
3005202	PROB	n/a	LTP153	ltpFR	12	n/a	n/a	n/a	n/a	n/a	n/a	n/a	13	1	7	5	n/a	n/a	n/a	n/a	n/a
3006599	PROB	n/a	LTP153	ltpFR	12	n/a	n/a	n/a	n/a	n/a	n/a	n/a	13	6	5	2	n/a	n/a	n/a	n/a	n/a
3008064	PROB	n/a	LTP153	ltpFR	12	n/a	n/a	n/a	n/a	n/a	n/a	n/a	19	3	7	9	n/a	n/a	n/a	n/a	n/a
3009196	PROB	n/a	LTP153	ltpFR	12	n/a	n/a	n/a	n/a	n/a	n/a	n/a	6	1	3	2	n/a	n/a	n/a	n/a	n/a
3010410	PROB	n/a	LTP153	ltpFR	12	n/a	n/a	n/a	n/a	n/a	n/a	n/a	15	8	4	3	n/a	n/a	n/a	n/a	n/a
3011642	PROB	n/a	LTP153	ltpFR	12	n/a	n/a	n/a	n/a	n/a	n/a	n/a	23	7	9	7	n/a	n/a	n/a	n/a	n/a
3013323	PROB	n/a	LTP153	ltpFR	12	n/a	n/a	n/a	n/a	n/a	n/a	n/a	10	1	8	1	n/a	n/a	n/a	n/a	n/a
3014521	PROB	n/a	LTP153	ltpFR	12	n/a	n/a	n/a	n/a	n/a	n/a	n/a	18	9	4	5	n/a	n/a	n/a	n/a	n/a
3016085	PROB	n/a	LTP153	ltpFR	12	n/a	n/a	n/a	n/a	n/a	n/a	n/a	16	2	5	9	n/a	n/a	n/a	n/a	n/a
3017367	PROB	n/a	LTP153	ltpFR	12	n/a	n/a	n/a	n/a	n/a	n/a	n/a	19	8	8	3	n/a	n/a	n/a	n/a	n/a
3018969	STOP	n/a	LTP153	ltpFR	12	n/a	n/a	n/a	n/a	n/a	n/a	n/a	n/a	n/a	n/a	n/a	n/a	n/a	n/a	n/a	n/a
3021011	WORD	wordpools/wasnorm_wordpool.txt	LTP153	ltpFR	12	11	1	SISTER	1312	n/a	n/a	1	n/a	0	0	0	0.422607421875	0.5869140625	0	lower	amplitud.ttf
3024024	START	n/a	LTP153	ltpFR	12	n/a	n/a	n/a	n/a	n/a	n/a	n/a	n/a	n/a	n/a	n/a	n/a	n/a	n/a	n/a	n/a
3025222	PROB	n/a	LTP153	ltpFR	12	n/a	n/a	n/a	n/a	n/a	n/a	n/a	13	5	4	4	n/a	n/a	n/a	n/a	n/a
3026786	PROB	n/a	LTP153	ltpFR	12	n/a	n/a	n/a	n/a	n/a	n/a	n/a	16	1	9	6	n/a	n/a	n/a	n/a	n/a
3028400	PROB	n/a	LTP153	ltpFR	12	n/a	n/a	n/a	n/a	n/a	n/a	n/a	23	9	7	7	n/a	n/a	n/a	n/a	n/a
3029782	PROB	n/a	LTP153	ltpFR	12	n/a	n/a	n/a	n/a	n/a	n/a	n/a	13	5	7	1	n/a	n/a	n/a	n/a	n/a
3031196	PROB	n/a	LTP153	ltpFR	12	n/a	n/a	n/a	n/a	n/a	n/a	n/a	12	3	5	4	n/a	n/a	n/a	n/a	n/a
3033127	PROB	n/a	LTP153	ltpFR	12	n/a	n/a	n/a	n/a	n/a	n/a	n/a	15	8	2	5	n/a	n/a	n/a	n/a	n/a
3034225	PROB	n/a	LTP153	ltpFR	12	n/a	n/a	n/a	n/a	n/a	n/a	n/a	19	7	5	7	n/a	n/a	n/a	n/a	n/a
3036006	PROB	n/a	LTP153	ltpFR	12	n/a	n/a	n/a	n/a	n/a	n/a	n/a	17	8	6	3	n/a	n/a	n/a	n/a	n/a
3037520	PROB	n/a	LTP153	ltpFR	12	n/a	n/a	n/a	n/a	n/a	n/a	n/a	19	5	5	9	n/a	n/a	n/a	n/a	n/a
3038553	STOP	n/a	LTP153	ltpFR	12	n/a	n/a	n/a	n/a	n/a	n/a	n/a	n/a	n/a	n/a	n/a	n/a	n/a	n/a	n/a	n/a
3040915	WORD	wordpools/wasnorm_wordpool.txt	LTP153	ltpFR	12	11	1	CONVENT	370	n/a	n/a	0	n/a	0	0	0	0.422607421875	0.5869140625	0	lower	amplitud.ttf
3043927	START	n/a	LTP153	ltpFR	12	n/a	n/a	n/a	n/a	n/a	n/a	n/a	n/a	n/a	n/a	n/a	n/a	n/a	n/a	n/a	n/a
3044792	PROB	n/a	LTP153	ltpFR	12	n/a	n/a	n/a	n/a	n/a	n/a	n/a	18	8	1	9	n/a	n/a	n/a	n/a	n/a
3046507	PROB	n/a	LTP153	ltpFR	12	n/a	n/a	n/a	n/a	n/a	n/a	n/a	19	7	4	8	n/a	n/a	n/a	n/a	n/a
3048587	PROB	n/a	LTP153	ltpFR	12	n/a	n/a	n/a	n/a	n/a	n/a	n/a	8	3	2	3	n/a	n/a	n/a	n/a	n/a
3050151	PROB	n/a	LTP153	ltpFR	12	n/a	n/a	n/a	n/a	n/a	n/a	n/a	14	8	1	5	n/a	n/a	n/a	n/a	n/a
3051599	PROB	n/a	LTP153	ltpFR	12	n/a	n/a	n/a	n/a	n/a	n/a	n/a	21	9	9	3	n/a	n/a	n/a	n/a	n/a
3053030	PROB	n/a	LTP153	ltpFR	12	n/a	n/a	n/a	n/a	n/a	n/a	n/a	9	4	3	2	n/a	n/a	n/a	n/a	n/a
3054711	PROB	n/a	LTP153	ltpFR	12	n/a	n/a	n/a	n/a	n/a	n/a	n/a	15	8	5	3	n/a	n/a	n/a	n/a	n/a
3056242	PROB	n/a	LTP153	ltpFR	12	n/a	n/a	n/a	n/a	n/a	n/a	n/a	7	3	2	2	n/a	n/a	n/a	n/a	n/a
3059927	STOP	n/a	LTP153	ltpFR	12	n/a	n/a	n/a	n/a	n/a	n/a	n/a	n/a	n/a	n/a	n/a	n/a	n/a	n/a	n/a	n/a
3061701	REC_START	n/a	LTP153	ltpFR	12	11	n/a	n/a	n/a	n/a	n/a	n/a	n/a	0	0	0	n/a	n/a	n/a	n/a	n/a
3062888	REC_WORD	wordpools/wasnorm_wordpool.txt	LTP153	ltpFR	12	11	1	PELICAN	1039	n/a	n/a	1	n/a	0	0	0	n/a	n/a	n/a	n/a	n/a
3063826	REC_WORD	wordpools/wasnorm_wordpool.txt	LTP153	ltpFR	12	11	1	SISTER	1312	n/a	n/a	1	n/a	0	0	0	n/a	n/a	n/a	n/a	n/a
3065198	REC_WORD	wordpools/wasnorm_wordpool.txt	LTP153	ltpFR	12	11	1	DIGGER	464	n/a	n/a	1	n/a	0	0	0	n/a	n/a	n/a	n/a	n/a
3068371	REC_WORD	wordpools/wasnorm_wordpool.txt	LTP153	ltpFR	12	11	1	BIKE	125	n/a	n/a	0	n/a	0	0	0	n/a	n/a	n/a	n/a	n/a
3069348	REC_WORD	wordpools/wasnorm_wordpool.txt	LTP153	ltpFR	12	11	1	COLOGNE	347	n/a	n/a	0	n/a	0	0	0	n/a	n/a	n/a	n/a	n/a
3070795	REC_WORD	wordpools/wasnorm_wordpool.txt	LTP153	ltpFR	12	11	1	VILLAGE	1566	n/a	n/a	0	n/a	0	0	0	n/a	n/a	n/a	n/a	n/a
3073623	REC_WORD	wordpools/wasnorm_wordpool.txt	LTP153	ltpFR	12	11	1	HAWK	692	n/a	n/a	1	n/a	0	0	0	n/a	n/a	n/a	n/a	n/a
3074581	REC_WORD	wordpools/wasnorm_wordpool.txt	LTP153	ltpFR	12	11	1	HOE	711	n/a	n/a	0	n/a	0	0	0	n/a	n/a	n/a	n/a	n/a
3075279	REC_WORD	wordpools/wasnorm_wordpool.txt	LTP153	ltpFR	12	11	1	CITY	314	n/a	n/a	0	n/a	0	0	0	n/a	n/a	n/a	n/a	n/a
3145276	START	n/a	LTP153	ltpFR	12	n/a	n/a	n/a	n/a	n/a	n/a	n/a	n/a	n/a	n/a	n/a	n/a	n/a	n/a	n/a	n/a
3146790	PROB	n/a	LTP153	ltpFR	12	n/a	n/a	n/a	n/a	n/a	n/a	n/a	18	6	4	8	n/a	n/a	n/a	n/a	n/a
3148987	PROB	n/a	LTP153	ltpFR	12	n/a	n/a	n/a	n/a	n/a	n/a	n/a	13	3	3	7	n/a	n/a	n/a	n/a	n/a
3150368	PROB	n/a	LTP153	ltpFR	12	n/a	n/a	n/a	n/a	n/a	n/a	n/a	17	5	6	6	n/a	n/a	n/a	n/a	n/a
3151777	STOP	n/a	LTP153	ltpFR	12	n/a	n/a	n/a	n/a	n/a	n/a	n/a	n/a	n/a	n/a	n/a	n/a	n/a	n/a	n/a	n/a
3154096	WORD	wordpools/wasnorm_wordpool.txt	LTP153	ltpFR	12	12	0	NOTE	958	n/a	n/a	0	n/a	0	0	0	0.57763671875	0.412841796875	1	upper	zerothre.ttf
3157109	START	n/a	LTP153	ltpFR	12	n/a	n/a	n/a	n/a	n/a	n/a	n/a	n/a	n/a	n/a	n/a	n/a	n/a	n/a	n/a	n/a
3158306	PROB	n/a	LTP153	ltpFR	12	n/a	n/a	n/a	n/a	n/a	n/a	n/a	17	9	4	4	n/a	n/a	n/a	n/a	n/a
3159838	PROB	n/a	LTP153	ltpFR	12	n/a	n/a	n/a	n/a	n/a	n/a	n/a	17	9	2	6	n/a	n/a	n/a	n/a	n/a
3161551	PROB	n/a	LTP153	ltpFR	12	n/a	n/a	n/a	n/a	n/a	n/a	n/a	12	3	3	6	n/a	n/a	n/a	n/a	n/a
3163049	PROB	n/a	LTP153	ltpFR	12	n/a	n/a	n/a	n/a	n/a	n/a	n/a	19	6	4	9	n/a	n/a	n/a	n/a	n/a
3164993	STOP	n/a	LTP153	ltpFR	12	n/a	n/a	n/a	n/a	n/a	n/a	n/a	n/a	n/a	n/a	n/a	n/a	n/a	n/a	n/a	n/a
3165995	WORD	wordpools/wasnorm_wordpool.txt	LTP153	ltpFR	12	12	0	PIANO	1057	n/a	n/a	1	n/a	0	0	0	0.57763671875	0.412841796875	1	upper	zerothre.ttf
3169008	START	n/a	LTP153	ltpFR	12	n/a	n/a	n/a	n/a	n/a	n/a	n/a	n/a	n/a	n/a	n/a	n/a	n/a	n/a	n/a	n/a
3169939	PROB	n/a	LTP153	ltpFR	12	n/a	n/a	n/a	n/a	n/a	n/a	n/a	10	4	4	2	n/a	n/a	n/a	n/a	n/a
3171254	PROB	n/a	LTP153	ltpFR	12	n/a	n/a	n/a	n/a	n/a	n/a	n/a	16	3	7	6	n/a	n/a	n/a	n/a	n/a
3173667	PROB	n/a	LTP153	ltpFR	12	n/a	n/a	n/a	n/a	n/a	n/a	n/a	19	3	8	8	n/a	n/a	n/a	n/a	n/a
3175481	STOP	n/a	LTP153	ltpFR	12	n/a	n/a	n/a	n/a	n/a	n/a	n/a	n/a	n/a	n/a	n/a	n/a	n/a	n/a	n/a	n/a
3177878	WORD	wordpools/wasnorm_wordpool.txt	LTP153	ltpFR	12	12	0	SAP	1233	n/a	n/a	0	n/a	0	0	0	0.57763671875	0.412841796875	1	upper	zerothre.ttf
3180891	START	n/a	LTP153	ltpFR	12	n/a	n/a	n/a	n/a	n/a	n/a	n/a	n/a	n/a	n/a	n/a	n/a	n/a	n/a	n/a	n/a
3181839	PROB	n/a	LTP153	ltpFR	12	n/a	n/a	n/a	n/a	n/a	n/a	n/a	15	6	5	4	n/a	n/a	n/a	n/a	n/a
3183668	PROB	n/a	LTP153	ltpFR	12	n/a	n/a	n/a	n/a	n/a	n/a	n/a	19	9	2	8	n/a	n/a	n/a	n/a	n/a
3185516	PROB	n/a	LTP153	ltpFR	12	n/a	n/a	n/a	n/a	n/a	n/a	n/a	12	1	6	5	n/a	n/a	n/a	n/a	n/a
3188890	STOP	n/a	LTP153	ltpFR	12	n/a	n/a	n/a	n/a	n/a	n/a	n/a	n/a	n/a	n/a	n/a	n/a	n/a	n/a	n/a	n/a
3190075	WORD	wordpools/wasnorm_wordpool.txt	LTP153	ltpFR	12	12	0	SUPPER	1411	n/a	n/a	1	n/a	0	0	0	0.57763671875	0.412841796875	1	upper	zerothre.ttf
3193088	START	n/a	LTP153	ltpFR	12	n/a	n/a	n/a	n/a	n/a	n/a	n/a	n/a	n/a	n/a	n/a	n/a	n/a	n/a	n/a	n/a
3193986	PROB	n/a	LTP153	ltpFR	12	n/a	n/a	n/a	n/a	n/a	n/a	n/a	17	3	7	7	n/a	n/a	n/a	n/a	n/a
3195601	PROB	n/a	LTP153	ltpFR	12	n/a	n/a	n/a	n/a	n/a	n/a	n/a	13	2	4	7	n/a	n/a	n/a	n/a	n/a
3197048	PROB	n/a	LTP153	ltpFR	12	n/a	n/a	n/a	n/a	n/a	n/a	n/a	5	1	2	2	n/a	n/a	n/a	n/a	n/a
3198313	PROB	n/a	LTP153	ltpFR	12	n/a	n/a	n/a	n/a	n/a	n/a	n/a	18	6	3	9	n/a	n/a	n/a	n/a	n/a
3199495	PROB	n/a	LTP153	ltpFR	12	n/a	n/a	n/a	n/a	n/a	n/a	n/a	17	1	9	7	n/a	n/a	n/a	n/a	n/a
3200737	STOP	n/a	LTP153	ltpFR	12	n/a	n/a	n/a	n/a	n/a	n/a	n/a	n/a	n/a	n/a	n/a	n/a	n/a	n/a	n/a	n/a
