mstime	trial_type	stim_file	subject	experiment	session	trial	task	item_name	item_num	recog_resp	recog_conf	resp	color_r	color_g	color_b	case	font
0	SESS_START	n/a	LTP133	ltpFR	6	n/a	n/a	n/a	n/a	0	3	n/a	n/a	n/a	n/a	n/a	n/a
88753	WORD	wordpools/wasnorm_wordpool.txt	LTP133	ltpFR	6	1	0	CASKET	255	0	n/a	0	0.57763671875	0.412841796875	1	lower	zerothre.ttf
92818	WORD	wordpools/wasnorm_wordpool.txt	LTP133	ltpFR	6	1	0	SKULL	1320	n/a	n/a	0	0.57763671875	0.412841796875	1	lower	zerothre.ttf
96668	WORD	wordpools/wasnorm_wordpool.txt	LTP133	ltpFR	6	1	1	ROCK	1201	n/a	n/a	0	0.422607421875	0.5869140625	0	upper	amplitud.ttf
100667	WORD	wordpools/wasnorm_wordpool.txt	LTP133	ltpFR	6	1	1	VIDEO	1564	n/a	n/a	0	0.422607421875	0.5869140625	0	upper	amplitud.ttf
104756	WORD	wordpools/wasnorm_wordpool.txt	LTP133	ltpFR	6	1	1	CANARY	227	n/a	n/a	1	0.422607421875	0.5869140625	0	upper	amplitud.ttf
108888	WORD	wordpools/wasnorm_wordpool.txt	LTP133	ltpFR	6	1	1	GULL	671	n/a	n/a	1	0.422607421875	0.5869140625	0	upper	amplitud.ttf
112995	WORD	wordpools/wasnorm_wordpool.txt	LTP133	ltpFR	6	1	0	DUNE	506	n/a	n/a	1	0.57763671875	0.412841796875	1	lower	zerothre.ttf
116876	WORD	wordpools/wasnorm_wordpool.txt	LTP133	ltpFR	6	1	0	PLANT	1083	n/a	n/a	0	0.57763671875	0.412841796875	1	lower	zerothre.ttf
121008	WORD	wordpools/wasnorm_wordpool.txt	LTP133	ltpFR	6	1	0	BROCCOLI	176	n/a	n/a	0	0.57763671875	0.412841796875	1	lower	zerothre.ttf
125166	WORD	wordpools/wasnorm_wordpool.txt	LTP133	ltpFR	6	1	0	ELEPHANT	523	n/a	n/a	1	0.57763671875	0.412841796875	1	lower	zerothre.ttf
129030	WORD	wordpools/wasnorm_wordpool.txt	LTP133	ltpFR	6	1	1	CONSOLE	364	n/a	n/a	0	0.422607421875	0.5869140625	0	upper	amplitud.ttf
132904	WORD	wordpools/wasnorm_wordpool.txt	LTP133	ltpFR	6	1	1	LIVER	833	n/a	n/a	0	0.422607421875	0.5869140625	0	upper	amplitud.ttf
137112	WORD	wordpools/wasnorm_wordpool.txt	LTP133	ltpFR	6	1	1	STONE	1385	n/a	n/a	0	0.422607421875	0.5869140625	0	upper	amplitud.ttf
141285	WORD	wordpools/wasnorm_wordpool.txt	LTP133	ltpFR	6	1	1	TICKET	1464	n/a	n/a	0	0.422607421875	0.5869140625	0	upper	amplitud.ttf
145101	WORD	wordpools/wasnorm_wordpool.txt	LTP133	ltpFR	6	1	0	CAPTIVE	240	n/a	n/a	1	0.57763671875	0.412841796875	1	lower	zerothre.ttf
148940	WORD	wordpools/wasnorm_wordpool.txt	LTP133	ltpFR	6	1	0	DILL	465	n/a	n/a	0	0.57763671875	0.412841796875	1	lower	zerothre.ttf
154855	REC_START	n/a	LTP133	ltpFR	6	1	n/a	n/a	n/a	n/a	n/a	n/a	n/a	n/a	n/a	n/a	n/a
156162	REC_WORD	wordpools/wasnorm_wordpool.txt	LTP133	ltpFR	6	1	0	DILL	465	n/a	n/a	0	n/a	n/a	n/a	n/a	n/a
157309	REC_WORD	wordpools/wasnorm_wordpool.txt	LTP133	ltpFR	6	1	1	TICKET	1464	n/a	n/a	0	n/a	n/a	n/a	n/a	n/a
158656	REC_WORD	wordpools/wasnorm_wordpool.txt	LTP133	ltpFR	6	1	1	CONSOLE	364	n/a	n/a	0	n/a	n/a	n/a	n/a	n/a
160312	REC_WORD	wordpools/wasnorm_wordpool.txt	LTP133	ltpFR	6	1	1	STONE	1385	n/a	n/a	0	n/a	n/a	n/a	n/a	n/a
162128	REC_WORD	wordpools/wasnorm_wordpool.txt	LTP133	ltpFR	6	1	1	ROCK	1201	n/a	n/a	0	n/a	n/a	n/a	n/a	n/a
164303	REC_WORD	wordpools/wasnorm_wordpool.txt	LTP133	ltpFR	6	1	1	VIDEO	1564	n/a	n/a	0	n/a	n/a	n/a	n/a	n/a
166718	REC_WORD	wordpools/wasnorm_wordpool.txt	LTP133	ltpFR	6	1	0	CASKET	255	n/a	n/a	0	n/a	n/a	n/a	n/a	n/a
168093	REC_WORD	wordpools/wasnorm_wordpool.txt	LTP133	ltpFR	6	1	0	SKULL	1320	n/a	n/a	0	n/a	n/a	n/a	n/a	n/a
170649	REC_WORD	wordpools/wasnorm_wordpool.txt	LTP133	ltpFR	6	1	1	CANARY	227	n/a	n/a	1	n/a	n/a	n/a	n/a	n/a
172175	REC_WORD	wordpools/wasnorm_wordpool.txt	LTP133	ltpFR	6	1	1	GULL	671	n/a	n/a	1	n/a	n/a	n/a	n/a	n/a
176690	REC_WORD	wordpools/wasnorm_wordpool.txt	LTP133	ltpFR	6	1	1	TICKET	1464	n/a	n/a	0	n/a	n/a	n/a	n/a	n/a
185969	REC_WORD	wordpools/wasnorm_wordpool.txt	LTP133	ltpFR	6	1	1	LIVER	833	n/a	n/a	0	n/a	n/a	n/a	n/a	n/a
194041	REC_WORD	wordpools/wasnorm_wordpool.txt	LTP133	ltpFR	6	1	0	CAPTIVE	240	n/a	n/a	1	n/a	n/a	n/a	n/a	n/a
233777	WORD	wordpools/wasnorm_wordpool.txt	LTP133	ltpFR	6	2	1	MAT	877	n/a	n/a	0	0.422607421875	0.5869140625	0	upper	amplitud.ttf
237925	WORD	wordpools/wasnorm_wordpool.txt	LTP133	ltpFR	6	2	1	CLIFF	322	n/a	n/a	0	0.422607421875	0.5869140625	0	upper	amplitud.ttf
241765	WORD	wordpools/wasnorm_wordpool.txt	LTP133	ltpFR	6	2	0	DORM	488	n/a	n/a	1	0.57763671875	0.412841796875	1	lower	zerothre.ttf
245789	WORD	wordpools/wasnorm_wordpool.txt	LTP133	ltpFR	6	2	0	ROOF	1205	n/a	n/a	1	0.57763671875	0.412841796875	1	lower	zerothre.ttf
249622	WORD	wordpools/wasnorm_wordpool.txt	LTP133	ltpFR	6	2	1	DIAL	457	n/a	n/a	0	0.422607421875	0.5869140625	0	upper	amplitud.ttf
253662	WORD	wordpools/wasnorm_wordpool.txt	LTP133	ltpFR	6	2	1	CATCHER	258	n/a	n/a	1	0.422607421875	0.5869140625	0	upper	amplitud.ttf
257751	WORD	wordpools/wasnorm_wordpool.txt	LTP133	ltpFR	6	2	1	COMMUNITY	356	n/a	n/a	0	0.422607421875	0.5869140625	0	upper	amplitud.ttf
261925	WORD	wordpools/wasnorm_wordpool.txt	LTP133	ltpFR	6	2	0	GANGSTER	620	n/a	n/a	1	0.57763671875	0.412841796875	1	lower	zerothre.ttf
265982	WORD	wordpools/wasnorm_wordpool.txt	LTP133	ltpFR	6	2	0	BLOUSE	139	n/a	n/a	0	0.57763671875	0.412841796875	1	lower	zerothre.ttf
269939	WORD	wordpools/wasnorm_wordpool.txt	LTP133	ltpFR	6	2	0	BEVERAGE	123	n/a	n/a	0	0.57763671875	0.412841796875	1	lower	zerothre.ttf
274097	WORD	wordpools/wasnorm_wordpool.txt	LTP133	ltpFR	6	2	0	BRAN	167	n/a	n/a	0	0.57763671875	0.412841796875	1	lower	zerothre.ttf
278245	WORD	wordpools/wasnorm_wordpool.txt	LTP133	ltpFR	6	2	0	CATERPILLAR	259	n/a	n/a	0	0.57763671875	0.412841796875	1	lower	zerothre.ttf
282169	WORD	wordpools/wasnorm_wordpool.txt	LTP133	ltpFR	6	2	0	SPIDER	1351	n/a	n/a	0	0.57763671875	0.412841796875	1	lower	zerothre.ttf
286217	WORD	wordpools/wasnorm_wordpool.txt	LTP133	ltpFR	6	2	1	SCOTCH	1251	n/a	n/a	0	0.422607421875	0.5869140625	0	upper	amplitud.ttf
290207	WORD	wordpools/wasnorm_wordpool.txt	LTP133	ltpFR	6	2	1	TROUSERS	1510	n/a	n/a	0	0.422607421875	0.5869140625	0	upper	amplitud.ttf
294314	WORD	wordpools/wasnorm_wordpool.txt	LTP133	ltpFR	6	2	1	ANIMAL	23	n/a	n/a	1	0.422607421875	0.5869140625	0	upper	amplitud.ttf
300354	REC_START	n/a	LTP133	ltpFR	6	2	n/a	n/a	n/a	n/a	n/a	n/a	n/a	n/a	n/a	n/a	n/a
301990	REC_WORD	wordpools/wasnorm_wordpool.txt	LTP133	ltpFR	6	2	1	ANIMAL	23	n/a	n/a	1	n/a	n/a	n/a	n/a	n/a
302992	REC_WORD	wordpools/wasnorm_wordpool.txt	LTP133	ltpFR	6	2	1	SCOTCH	1251	n/a	n/a	0	n/a	n/a	n/a	n/a	n/a
304479	REC_WORD	wordpools/wasnorm_wordpool.txt	LTP133	ltpFR	6	2	1	TROUSERS	1510	n/a	n/a	0	n/a	n/a	n/a	n/a	n/a
306146	REC_WORD	wordpools/wasnorm_wordpool.txt	LTP133	ltpFR	6	2	0	BEVERAGE	123	n/a	n/a	0	n/a	n/a	n/a	n/a	n/a
309084	REC_WORD	wordpools/wasnorm_wordpool.txt	LTP133	ltpFR	6	2	0	BLOUSE	139	n/a	n/a	0	n/a	n/a	n/a	n/a	n/a
310356	REC_WORD	wordpools/wasnorm_wordpool.txt	LTP133	ltpFR	6	2	0	DORM	488	n/a	n/a	1	n/a	n/a	n/a	n/a	n/a
311743	REC_WORD	wordpools/wasnorm_wordpool.txt	LTP133	ltpFR	6	2	0	ROOF	1205	n/a	n/a	1	n/a	n/a	n/a	n/a	n/a
328066	REC_WORD	wordpools/wasnorm_wordpool.txt	LTP133	ltpFR	6	2	1	CLIFF	322	n/a	n/a	0	n/a	n/a	n/a	n/a	n/a
337549	REC_WORD	wordpools/wasnorm_wordpool.txt	LTP133	ltpFR	6	2	1	COMMUNITY	356	n/a	n/a	0	n/a	n/a	n/a	n/a	n/a
345586	REC_WORD	wordpools/wasnorm_wordpool.txt	LTP133	ltpFR	6	2	0	GANGSTER	620	n/a	n/a	1	n/a	n/a	n/a	n/a	n/a
356431	REC_WORD	wordpools/wasnorm_wordpool.txt	LTP133	ltpFR	6	2	1	ANIMAL	23	n/a	n/a	1	n/a	n/a	n/a	n/a	n/a
385157	WORD	wordpools/wasnorm_wordpool.txt	LTP133	ltpFR	6	3	0	CROWN	415	n/a	n/a	0	0.57763671875	0.412841796875	1	lower	zerothre.ttf
389005	WORD	wordpools/wasnorm_wordpool.txt	LTP133	ltpFR	6	3	0	MERMAID	887	n/a	n/a	1	0.57763671875	0.412841796875	1	lower	zerothre.ttf
393020	WORD	wordpools/wasnorm_wordpool.txt	LTP133	ltpFR	6	3	0	FIDDLE	561	n/a	n/a	0	0.57763671875	0.412841796875	1	lower	zerothre.ttf
397061	WORD	wordpools/wasnorm_wordpool.txt	LTP133	ltpFR	6	3	0	SERPENT	1270	n/a	n/a	0	0.57763671875	0.412841796875	1	lower	zerothre.ttf
400959	WORD	wordpools/wasnorm_wordpool.txt	LTP133	ltpFR	6	3	0	ALLIGATOR	16	n/a	n/a	1	0.57763671875	0.412841796875	1	lower	zerothre.ttf
404974	WORD	wordpools/wasnorm_wordpool.txt	LTP133	ltpFR	6	3	0	KING	777	n/a	n/a	1	0.57763671875	0.412841796875	1	lower	zerothre.ttf
409057	WORD	wordpools/wasnorm_wordpool.txt	LTP133	ltpFR	6	3	0	SERVANT	1271	n/a	n/a	1	0.57763671875	0.412841796875	1	lower	zerothre.ttf
412996	WORD	wordpools/wasnorm_wordpool.txt	LTP133	ltpFR	6	3	0	WAITRESS	1581	n/a	n/a	1	0.57763671875	0.412841796875	1	lower	zerothre.ttf
416861	WORD	wordpools/wasnorm_wordpool.txt	LTP133	ltpFR	6	3	0	PLAID	1080	n/a	n/a	0	0.57763671875	0.412841796875	1	lower	zerothre.ttf
420760	WORD	wordpools/wasnorm_wordpool.txt	LTP133	ltpFR	6	3	0	POND	1101	n/a	n/a	1	0.57763671875	0.412841796875	1	lower	zerothre.ttf
424809	WORD	wordpools/wasnorm_wordpool.txt	LTP133	ltpFR	6	3	0	CHEST	295	n/a	n/a	0	0.57763671875	0.412841796875	1	lower	zerothre.ttf
428865	WORD	wordpools/wasnorm_wordpool.txt	LTP133	ltpFR	6	3	0	EDITOR	516	n/a	n/a	1	0.57763671875	0.412841796875	1	lower	zerothre.ttf
432707	WORD	wordpools/wasnorm_wordpool.txt	LTP133	ltpFR	6	3	0	ARTICLE	42	n/a	n/a	0	0.57763671875	0.412841796875	1	lower	zerothre.ttf
436572	WORD	wordpools/wasnorm_wordpool.txt	LTP133	ltpFR	6	3	0	SALAD	1224	n/a	n/a	0	0.57763671875	0.412841796875	1	lower	zerothre.ttf
440696	WORD	wordpools/wasnorm_wordpool.txt	LTP133	ltpFR	6	3	0	COMMANDER	354	n/a	n/a	1	0.57763671875	0.412841796875	1	lower	zerothre.ttf
444561	WORD	wordpools/wasnorm_wordpool.txt	LTP133	ltpFR	6	3	0	TUXEDO	1525	n/a	n/a	1	0.57763671875	0.412841796875	1	lower	zerothre.ttf
450384	REC_START	n/a	LTP133	ltpFR	6	3	n/a	n/a	n/a	n/a	n/a	n/a	n/a	n/a	n/a	n/a	n/a
451870	REC_WORD	wordpools/wasnorm_wordpool.txt	LTP133	ltpFR	6	3	0	TUXEDO	1525	n/a	n/a	1	n/a	n/a	n/a	n/a	n/a
453362	REC_WORD	wordpools/wasnorm_wordpool.txt	LTP133	ltpFR	6	3	0	COMMANDER	354	n/a	n/a	1	n/a	n/a	n/a	n/a	n/a
456235	REC_WORD	wordpools/wasnorm_wordpool.txt	LTP133	ltpFR	6	3	0	SERVANT	1271	n/a	n/a	1	n/a	n/a	n/a	n/a	n/a
458256	REC_WORD	wordpools/wasnorm_wordpool.txt	LTP133	ltpFR	6	3	0	WAITRESS	1581	n/a	n/a	1	n/a	n/a	n/a	n/a	n/a
460241	REC_WORD	wordpools/wasnorm_wordpool.txt	LTP133	ltpFR	6	3	0	KING	777	n/a	n/a	1	n/a	n/a	n/a	n/a	n/a
471251	REC_WORD	wordpools/wasnorm_wordpool.txt	LTP133	ltpFR	6	3	0	CROWN	415	n/a	n/a	0	n/a	n/a	n/a	n/a	n/a
472918	REC_WORD	wordpools/wasnorm_wordpool.txt	LTP133	ltpFR	6	3	0	MERMAID	887	n/a	n/a	1	n/a	n/a	n/a	n/a	n/a
474663	REC_WORD	wordpools/wasnorm_wordpool.txt	LTP133	ltpFR	6	3	0	FIDDLE	561	n/a	n/a	0	n/a	n/a	n/a	n/a	n/a
509753	REC_WORD	wordpools/wasnorm_wordpool.txt	LTP133	ltpFR	6	3	0	SKULL	1320	n/a	n/a	0	n/a	n/a	n/a	n/a	n/a
537395	WORD	wordpools/wasnorm_wordpool.txt	LTP133	ltpFR	6	4	1	REPTILE	1185	n/a	n/a	1	0.422607421875	0.5869140625	0	upper	amplitud.ttf
541576	WORD	wordpools/wasnorm_wordpool.txt	LTP133	ltpFR	6	4	1	PAINT	1003	n/a	n/a	0	0.422607421875	0.5869140625	0	upper	amplitud.ttf
545650	WORD	wordpools/wasnorm_wordpool.txt	LTP133	ltpFR	6	4	1	SURGEON	1413	n/a	n/a	1	0.422607421875	0.5869140625	0	upper	amplitud.ttf
549839	WORD	wordpools/wasnorm_wordpool.txt	LTP133	ltpFR	6	4	1	COUNTY	389	n/a	n/a	0	0.422607421875	0.5869140625	0	upper	amplitud.ttf
553779	WORD	wordpools/wasnorm_wordpool.txt	LTP133	ltpFR	6	4	1	BRICK	172	n/a	n/a	0	0.422607421875	0.5869140625	0	upper	amplitud.ttf
557903	WORD	wordpools/wasnorm_wordpool.txt	LTP133	ltpFR	6	4	1	CASTLE	256	n/a	n/a	0	0.422607421875	0.5869140625	0	upper	amplitud.ttf
562077	WORD	wordpools/wasnorm_wordpool.txt	LTP133	ltpFR	6	4	1	HOSPITAL	721	n/a	n/a	0	0.422607421875	0.5869140625	0	upper	amplitud.ttf
566068	WORD	wordpools/wasnorm_wordpool.txt	LTP133	ltpFR	6	4	1	SUBURB	1399	n/a	n/a	0	0.422607421875	0.5869140625	0	upper	amplitud.ttf
570024	WORD	wordpools/wasnorm_wordpool.txt	LTP133	ltpFR	6	4	1	GARAGE	621	n/a	n/a	0	0.422607421875	0.5869140625	0	upper	amplitud.ttf
573897	WORD	wordpools/wasnorm_wordpool.txt	LTP133	ltpFR	6	4	1	CUSTOMER	430	n/a	n/a	1	0.422607421875	0.5869140625	0	upper	amplitud.ttf
577821	WORD	wordpools/wasnorm_wordpool.txt	LTP133	ltpFR	6	4	1	CASH	252	n/a	n/a	0	0.422607421875	0.5869140625	0	upper	amplitud.ttf
582003	WORD	wordpools/wasnorm_wordpool.txt	LTP133	ltpFR	6	4	1	CHEMIST	292	n/a	n/a	1	0.422607421875	0.5869140625	0	upper	amplitud.ttf
586127	WORD	wordpools/wasnorm_wordpool.txt	LTP133	ltpFR	6	4	1	BEAKER	104	n/a	n/a	0	0.422607421875	0.5869140625	0	upper	amplitud.ttf
590142	WORD	wordpools/wasnorm_wordpool.txt	LTP133	ltpFR	6	4	1	SHRUB	1299	n/a	n/a	1	0.422607421875	0.5869140625	0	upper	amplitud.ttf
594074	WORD	wordpools/wasnorm_wordpool.txt	LTP133	ltpFR	6	4	1	SEED	1266	n/a	n/a	1	0.422607421875	0.5869140625	0	upper	amplitud.ttf
598248	WORD	wordpools/wasnorm_wordpool.txt	LTP133	ltpFR	6	4	1	APARTMENT	30	n/a	n/a	0	0.422607421875	0.5869140625	0	upper	amplitud.ttf
603945	REC_START	n/a	LTP133	ltpFR	6	4	n/a	n/a	n/a	n/a	n/a	n/a	n/a	n/a	n/a	n/a	n/a
605656	REC_WORD	wordpools/wasnorm_wordpool.txt	LTP133	ltpFR	6	4	1	APARTMENT	30	n/a	n/a	0	n/a	n/a	n/a	n/a	n/a
606843	REC_WORD	wordpools/wasnorm_wordpool.txt	LTP133	ltpFR	6	4	1	COUNTY	389	n/a	n/a	0	n/a	n/a	n/a	n/a	n/a
608300	REC_WORD	wordpools/wasnorm_wordpool.txt	LTP133	ltpFR	6	4	1	SEED	1266	n/a	n/a	1	n/a	n/a	n/a	n/a	n/a
609782	REC_WORD	wordpools/wasnorm_wordpool.txt	LTP133	ltpFR	6	4	1	SHRUB	1299	n/a	n/a	1	n/a	n/a	n/a	n/a	n/a
622049	REC_WORD	wordpools/wasnorm_wordpool.txt	LTP133	ltpFR	6	4	1	BEAKER	104	n/a	n/a	0	n/a	n/a	n/a	n/a	n/a
623675	REC_WORD	wordpools/wasnorm_wordpool.txt	LTP133	ltpFR	6	4	1	CHEMIST	292	n/a	n/a	1	n/a	n/a	n/a	n/a	n/a
625715	REC_WORD	wordpools/wasnorm_wordpool.txt	LTP133	ltpFR	6	4	1	SURGEON	1413	n/a	n/a	1	n/a	n/a	n/a	n/a	n/a
627666	REC_WORD	wordpools/wasnorm_wordpool.txt	LTP133	ltpFR	6	4	1	HOSPITAL	721	n/a	n/a	0	n/a	n/a	n/a	n/a	n/a
652644	REC_WORD	wordpools/wasnorm_wordpool.txt	LTP133	ltpFR	6	4	1	REPTILE	1185	n/a	n/a	1	n/a	n/a	n/a	n/a	n/a
746403	WORD	wordpools/wasnorm_wordpool.txt	LTP133	ltpFR	6	5	-1	DIRT	472	n/a	n/a	-1	1.0	1.0	1	upper	Verdana.ttf
750585	WORD	wordpools/wasnorm_wordpool.txt	LTP133	ltpFR	6	5	-1	DUST	508	n/a	n/a	-1	1.0	1.0	1	upper	Verdana.ttf
754417	WORD	wordpools/wasnorm_wordpool.txt	LTP133	ltpFR	6	5	-1	SPACE	1345	n/a	n/a	-1	1.0	1.0	1	upper	Verdana.ttf
758616	WORD	wordpools/wasnorm_wordpool.txt	LTP133	ltpFR	6	5	-1	PASSENGER	1020	n/a	n/a	-1	1.0	1.0	1	upper	Verdana.ttf
762673	WORD	wordpools/wasnorm_wordpool.txt	LTP133	ltpFR	6	5	-1	COYOTE	396	n/a	n/a	-1	1.0	1.0	1	upper	Verdana.ttf
766795	WORD	wordpools/wasnorm_wordpool.txt	LTP133	ltpFR	6	5	-1	DIAMOND	458	n/a	n/a	-1	1.0	1.0	1	upper	Verdana.ttf
770877	WORD	wordpools/wasnorm_wordpool.txt	LTP133	ltpFR	6	5	-1	COURT	391	n/a	n/a	-1	1.0	1.0	1	upper	Verdana.ttf
774917	WORD	wordpools/wasnorm_wordpool.txt	LTP133	ltpFR	6	5	-1	KNAPSACK	783	n/a	n/a	-1	1.0	1.0	1	upper	Verdana.ttf
778908	WORD	wordpools/wasnorm_wordpool.txt	LTP133	ltpFR	6	5	-1	PACKAGE	997	n/a	n/a	-1	1.0	1.0	1	upper	Verdana.ttf
782973	WORD	wordpools/wasnorm_wordpool.txt	LTP133	ltpFR	6	5	-1	AIRCRAFT	11	n/a	n/a	-1	1.0	1.0	1	upper	Verdana.ttf
786863	WORD	wordpools/wasnorm_wordpool.txt	LTP133	ltpFR	6	5	-1	UTENSIL	1542	n/a	n/a	-1	1.0	1.0	1	upper	Verdana.ttf
790912	WORD	wordpools/wasnorm_wordpool.txt	LTP133	ltpFR	6	5	-1	BRUSH	182	n/a	n/a	-1	1.0	1.0	1	upper	Verdana.ttf
795044	WORD	wordpools/wasnorm_wordpool.txt	LTP133	ltpFR	6	5	-1	HEADBAND	696	n/a	n/a	-1	1.0	1.0	1	upper	Verdana.ttf
799185	WORD	wordpools/wasnorm_wordpool.txt	LTP133	ltpFR	6	5	-1	DRIVEWAY	500	n/a	n/a	-1	1.0	1.0	1	upper	Verdana.ttf
803158	WORD	wordpools/wasnorm_wordpool.txt	LTP133	ltpFR	6	5	-1	GIRAFFE	636	n/a	n/a	-1	1.0	1.0	1	upper	Verdana.ttf
807023	WORD	wordpools/wasnorm_wordpool.txt	LTP133	ltpFR	6	5	-1	HELICOPTER	701	n/a	n/a	-1	1.0	1.0	1	upper	Verdana.ttf
812729	REC_START	n/a	LTP133	ltpFR	6	5	n/a	n/a	n/a	n/a	n/a	n/a	n/a	n/a	n/a	n/a	n/a
814500	REC_WORD	wordpools/wasnorm_wordpool.txt	LTP133	ltpFR	6	5	-1	GIRAFFE	636	n/a	n/a	-1	n/a	n/a	n/a	n/a	n/a
815837	REC_WORD	wordpools/wasnorm_wordpool.txt	LTP133	ltpFR	6	5	-1	HELICOPTER	701	n/a	n/a	-1	n/a	n/a	n/a	n/a	n/a
817583	REC_WORD	wordpools/wasnorm_wordpool.txt	LTP133	ltpFR	6	5	-1	DRIVEWAY	500	n/a	n/a	-1	n/a	n/a	n/a	n/a	n/a
819354	REC_WORD	wordpools/wasnorm_wordpool.txt	LTP133	ltpFR	6	5	-1	KNAPSACK	783	n/a	n/a	-1	n/a	n/a	n/a	n/a	n/a
823724	REC_WORD	wordpools/wasnorm_wordpool.txt	LTP133	ltpFR	6	5	-1	DIRT	472	n/a	n/a	-1	n/a	n/a	n/a	n/a	n/a
825126	REC_WORD	wordpools/wasnorm_wordpool.txt	LTP133	ltpFR	6	5	-1	DUST	508	n/a	n/a	-1	n/a	n/a	n/a	n/a	n/a
826866	REC_WORD	wordpools/wasnorm_wordpool.txt	LTP133	ltpFR	6	5	-1	SPACE	1345	n/a	n/a	-1	n/a	n/a	n/a	n/a	n/a
828832	REC_WORD	wordpools/wasnorm_wordpool.txt	LTP133	ltpFR	6	5	-1	PASSENGER	1020	n/a	n/a	-1	n/a	n/a	n/a	n/a	n/a
906804	WORD	wordpools/wasnorm_wordpool.txt	LTP133	ltpFR	6	6	0	FUGITIVE	612	n/a	n/a	1	0.57763671875	0.412841796875	1	lower	zerothre.ttf
910902	WORD	wordpools/wasnorm_wordpool.txt	LTP133	ltpFR	6	6	0	JUVENILE	767	n/a	n/a	1	0.57763671875	0.412841796875	1	lower	zerothre.ttf
914859	WORD	wordpools/wasnorm_wordpool.txt	LTP133	ltpFR	6	6	0	AUTOMOBILE	62	n/a	n/a	1	0.57763671875	0.412841796875	1	lower	zerothre.ttf
918783	WORD	wordpools/wasnorm_wordpool.txt	LTP133	ltpFR	6	6	0	SALESMAN	1225	n/a	n/a	1	0.57763671875	0.412841796875	1	lower	zerothre.ttf
922806	WORD	wordpools/wasnorm_wordpool.txt	LTP133	ltpFR	6	6	1	VICTIM	1562	n/a	n/a	1	0.422607421875	0.5869140625	0	upper	amplitud.ttf
926930	WORD	wordpools/wasnorm_wordpool.txt	LTP133	ltpFR	6	6	1	PELICAN	1039	n/a	n/a	1	0.422607421875	0.5869140625	0	upper	amplitud.ttf
930837	WORD	wordpools/wasnorm_wordpool.txt	LTP133	ltpFR	6	6	1	LIMB	822	n/a	n/a	0	0.422607421875	0.5869140625	0	upper	amplitud.ttf
934686	WORD	wordpools/wasnorm_wordpool.txt	LTP133	ltpFR	6	6	1	CHALK	276	n/a	n/a	0	0.422607421875	0.5869140625	0	upper	amplitud.ttf
938826	WORD	wordpools/wasnorm_wordpool.txt	LTP133	ltpFR	6	6	1	FEAST	556	n/a	n/a	1	0.422607421875	0.5869140625	0	upper	amplitud.ttf
942924	WORD	wordpools/wasnorm_wordpool.txt	LTP133	ltpFR	6	6	1	DEODORANT	448	n/a	n/a	0	0.422607421875	0.5869140625	0	upper	amplitud.ttf
947014	WORD	wordpools/wasnorm_wordpool.txt	LTP133	ltpFR	6	6	0	CHAIR	274	n/a	n/a	0	0.57763671875	0.412841796875	1	lower	zerothre.ttf
951097	WORD	wordpools/wasnorm_wordpool.txt	LTP133	ltpFR	6	6	0	LOUNGE	845	n/a	n/a	1	0.57763671875	0.412841796875	1	lower	zerothre.ttf
955179	WORD	wordpools/wasnorm_wordpool.txt	LTP133	ltpFR	6	6	0	DICE	461	n/a	n/a	0	0.57763671875	0.412841796875	1	lower	zerothre.ttf
959018	WORD	wordpools/wasnorm_wordpool.txt	LTP133	ltpFR	6	6	0	COLOGNE	347	n/a	n/a	0	0.57763671875	0.412841796875	1	lower	zerothre.ttf
962850	WORD	wordpools/wasnorm_wordpool.txt	LTP133	ltpFR	6	6	1	POLICE	1098	n/a	n/a	1	0.422607421875	0.5869140625	0	upper	amplitud.ttf
966757	WORD	wordpools/wasnorm_wordpool.txt	LTP133	ltpFR	6	6	1	CRUTCH	417	n/a	n/a	0	0.422607421875	0.5869140625	0	upper	amplitud.ttf
972772	REC_START	n/a	LTP133	ltpFR	6	6	n/a	n/a	n/a	n/a	n/a	n/a	n/a	n/a	n/a	n/a	n/a
974747	REC_WORD	wordpools/wasnorm_wordpool.txt	LTP133	ltpFR	6	6	1	CRUTCH	417	n/a	n/a	0	n/a	n/a	n/a	n/a	n/a
976014	REC_WORD	wordpools/wasnorm_wordpool.txt	LTP133	ltpFR	6	6	1	POLICE	1098	n/a	n/a	1	n/a	n/a	n/a	n/a	n/a
977706	REC_WORD	wordpools/wasnorm_wordpool.txt	LTP133	ltpFR	6	6	0	CHAIR	274	n/a	n/a	0	n/a	n/a	n/a	n/a	n/a
979242	REC_WORD	wordpools/wasnorm_wordpool.txt	LTP133	ltpFR	6	6	0	LOUNGE	845	n/a	n/a	1	n/a	n/a	n/a	n/a	n/a
980978	REC_WORD	wordpools/wasnorm_wordpool.txt	LTP133	ltpFR	6	6	0	DICE	461	n/a	n/a	0	n/a	n/a	n/a	n/a	n/a
986441	REC_WORD	wordpools/wasnorm_wordpool.txt	LTP133	ltpFR	6	6	0	AUTOMOBILE	62	n/a	n/a	1	n/a	n/a	n/a	n/a	n/a
988192	REC_WORD	wordpools/wasnorm_wordpool.txt	LTP133	ltpFR	6	6	0	SALESMAN	1225	n/a	n/a	1	n/a	n/a	n/a	n/a	n/a
989923	REC_WORD	wordpools/wasnorm_wordpool.txt	LTP133	ltpFR	6	6	0	FUGITIVE	612	n/a	n/a	1	n/a	n/a	n/a	n/a	n/a
992522	REC_WORD	wordpools/wasnorm_wordpool.txt	LTP133	ltpFR	6	6	0	JUVENILE	767	n/a	n/a	1	n/a	n/a	n/a	n/a	n/a
1010356	REC_WORD	wordpools/wasnorm_wordpool.txt	LTP133	ltpFR	6	6	1	VICTIM	1562	n/a	n/a	1	n/a	n/a	n/a	n/a	n/a
1016063	REC_WORD	wordpools/wasnorm_wordpool.txt	LTP133	ltpFR	6	6	1	LIMB	822	n/a	n/a	0	n/a	n/a	n/a	n/a	n/a
1093272	WORD	wordpools/wasnorm_wordpool.txt	LTP133	ltpFR	6	7	0	MAID	856	n/a	n/a	1	0.57763671875	0.412841796875	1	lower	zerothre.ttf
1097245	WORD	wordpools/wasnorm_wordpool.txt	LTP133	ltpFR	6	7	0	WICK	1607	n/a	n/a	0	0.57763671875	0.412841796875	1	lower	zerothre.ttf
1101435	WORD	wordpools/wasnorm_wordpool.txt	LTP133	ltpFR	6	7	0	EMERALD	528	n/a	n/a	0	0.57763671875	0.412841796875	1	lower	zerothre.ttf
1105551	WORD	wordpools/wasnorm_wordpool.txt	LTP133	ltpFR	6	7	0	GOAT	644	n/a	n/a	0	0.57763671875	0.412841796875	1	lower	zerothre.ttf
1109633	WORD	wordpools/wasnorm_wordpool.txt	LTP133	ltpFR	6	7	1	PARIS	1014	n/a	n/a	0	0.422607421875	0.5869140625	0	upper	amplitud.ttf
1113523	WORD	wordpools/wasnorm_wordpool.txt	LTP133	ltpFR	6	7	1	PLASTER	1085	n/a	n/a	0	0.422607421875	0.5869140625	0	upper	amplitud.ttf
1117455	WORD	wordpools/wasnorm_wordpool.txt	LTP133	ltpFR	6	7	1	BEET	115	n/a	n/a	0	0.422607421875	0.5869140625	0	upper	amplitud.ttf
1121570	WORD	wordpools/wasnorm_wordpool.txt	LTP133	ltpFR	6	7	1	SPINACH	1352	n/a	n/a	1	0.422607421875	0.5869140625	0	upper	amplitud.ttf
1125619	WORD	wordpools/wasnorm_wordpool.txt	LTP133	ltpFR	6	7	1	GHETTO	633	n/a	n/a	0	0.422607421875	0.5869140625	0	upper	amplitud.ttf
1129534	WORD	wordpools/wasnorm_wordpool.txt	LTP133	ltpFR	6	7	0	VEAL	1551	n/a	n/a	0	0.57763671875	0.412841796875	1	lower	zerothre.ttf
1133457	WORD	wordpools/wasnorm_wordpool.txt	LTP133	ltpFR	6	7	0	PEDESTRIAN	1038	n/a	n/a	1	0.57763671875	0.412841796875	1	lower	zerothre.ttf
1137456	WORD	wordpools/wasnorm_wordpool.txt	LTP133	ltpFR	6	7	1	CANYON	235	n/a	n/a	0	0.422607421875	0.5869140625	0	upper	amplitud.ttf
1141280	WORD	wordpools/wasnorm_wordpool.txt	LTP133	ltpFR	6	7	1	GHOST	634	n/a	n/a	1	0.422607421875	0.5869140625	0	upper	amplitud.ttf
1145470	WORD	wordpools/wasnorm_wordpool.txt	LTP133	ltpFR	6	7	1	RADISH	1158	n/a	n/a	0	0.422607421875	0.5869140625	0	upper	amplitud.ttf
1149627	WORD	wordpools/wasnorm_wordpool.txt	LTP133	ltpFR	6	7	0	BLUEJAY	141	n/a	n/a	0	0.57763671875	0.412841796875	1	lower	zerothre.ttf
1153534	WORD	wordpools/wasnorm_wordpool.txt	LTP133	ltpFR	6	7	0	QUAIL	1147	n/a	n/a	0	0.57763671875	0.412841796875	1	lower	zerothre.ttf
1159232	REC_START	n/a	LTP133	ltpFR	6	7	n/a	n/a	n/a	n/a	n/a	n/a	n/a	n/a	n/a	n/a	n/a
1161367	REC_WORD	wordpools/wasnorm_wordpool.txt	LTP133	ltpFR	6	7	0	BLUEJAY	141	n/a	n/a	0	n/a	n/a	n/a	n/a	n/a
1163023	REC_WORD	wordpools/wasnorm_wordpool.txt	LTP133	ltpFR	6	7	0	QUAIL	1147	n/a	n/a	0	n/a	n/a	n/a	n/a	n/a
1167164	REC_WORD	wordpools/wasnorm_wordpool.txt	LTP133	ltpFR	6	7	1	SPINACH	1352	n/a	n/a	1	n/a	n/a	n/a	n/a	n/a
1178608	REC_WORD	wordpools/wasnorm_wordpool.txt	LTP133	ltpFR	6	7	1	BEET	115	n/a	n/a	0	n/a	n/a	n/a	n/a	n/a
1182449	REC_WORD	wordpools/wasnorm_wordpool.txt	LTP133	ltpFR	6	7	1	RADISH	1158	n/a	n/a	0	n/a	n/a	n/a	n/a	n/a
1190825	REC_WORD	wordpools/wasnorm_wordpool.txt	LTP133	ltpFR	6	7	0	MAID	856	n/a	n/a	1	n/a	n/a	n/a	n/a	n/a
1309719	WORD	wordpools/wasnorm_wordpool.txt	LTP133	ltpFR	6	8	1	PASTA	1021	n/a	n/a	0	0.422607421875	0.5869140625	0	upper	amplitud.ttf
1313909	WORD	wordpools/wasnorm_wordpool.txt	LTP133	ltpFR	6	8	1	RAIL	1161	n/a	n/a	0	0.422607421875	0.5869140625	0	upper	amplitud.ttf
1318033	WORD	wordpools/wasnorm_wordpool.txt	LTP133	ltpFR	6	8	1	BEAN	105	n/a	n/a	0	0.422607421875	0.5869140625	0	upper	amplitud.ttf
1322207	WORD	wordpools/wasnorm_wordpool.txt	LTP133	ltpFR	6	8	1	SPAGHETTI	1346	n/a	n/a	0	0.422607421875	0.5869140625	0	upper	amplitud.ttf
1326172	WORD	wordpools/wasnorm_wordpool.txt	LTP133	ltpFR	6	8	1	PONY	1102	n/a	n/a	1	0.422607421875	0.5869140625	0	upper	amplitud.ttf
1329986	WORD	wordpools/wasnorm_wordpool.txt	LTP133	ltpFR	6	8	1	CROW	414	n/a	n/a	1	0.422607421875	0.5869140625	0	upper	amplitud.ttf
1334186	WORD	wordpools/wasnorm_wordpool.txt	LTP133	ltpFR	6	8	1	OLIVE	975	n/a	n/a	0	0.422607421875	0.5869140625	0	upper	amplitud.ttf
1338376	WORD	wordpools/wasnorm_wordpool.txt	LTP133	ltpFR	6	8	1	BARLEY	88	n/a	n/a	0	0.422607421875	0.5869140625	0	upper	amplitud.ttf
1342466	WORD	wordpools/wasnorm_wordpool.txt	LTP133	ltpFR	6	8	1	CUSTARD	429	n/a	n/a	0	0.422607421875	0.5869140625	0	upper	amplitud.ttf
1346565	WORD	wordpools/wasnorm_wordpool.txt	LTP133	ltpFR	6	8	1	CASHIER	254	n/a	n/a	1	0.422607421875	0.5869140625	0	upper	amplitud.ttf
1350455	WORD	wordpools/wasnorm_wordpool.txt	LTP133	ltpFR	6	8	1	SNEAKER	1334	n/a	n/a	0	0.422607421875	0.5869140625	0	upper	amplitud.ttf
1354645	WORD	wordpools/wasnorm_wordpool.txt	LTP133	ltpFR	6	8	1	KNOT	788	n/a	n/a	0	0.422607421875	0.5869140625	0	upper	amplitud.ttf
1358726	WORD	wordpools/wasnorm_wordpool.txt	LTP133	ltpFR	6	8	1	COD	340	n/a	n/a	1	0.422607421875	0.5869140625	0	upper	amplitud.ttf
1362634	WORD	wordpools/wasnorm_wordpool.txt	LTP133	ltpFR	6	8	1	WHALE	1601	n/a	n/a	1	0.422607421875	0.5869140625	0	upper	amplitud.ttf
1366649	WORD	wordpools/wasnorm_wordpool.txt	LTP133	ltpFR	6	8	1	WATERFALL	1595	n/a	n/a	0	0.422607421875	0.5869140625	0	upper	amplitud.ttf
1370465	WORD	wordpools/wasnorm_wordpool.txt	LTP133	ltpFR	6	8	1	OCEAN	970	n/a	n/a	0	0.422607421875	0.5869140625	0	upper	amplitud.ttf
1376230	REC_START	n/a	LTP133	ltpFR	6	8	n/a	n/a	n/a	n/a	n/a	n/a	n/a	n/a	n/a	n/a	n/a
1378285	REC_WORD	wordpools/wasnorm_wordpool.txt	LTP133	ltpFR	6	8	1	WATERFALL	1595	n/a	n/a	0	n/a	n/a	n/a	n/a	n/a
1379782	REC_WORD	wordpools/wasnorm_wordpool.txt	LTP133	ltpFR	6	8	1	OCEAN	970	n/a	n/a	0	n/a	n/a	n/a	n/a	n/a
1381508	REC_WORD	wordpools/wasnorm_wordpool.txt	LTP133	ltpFR	6	8	1	WHALE	1601	n/a	n/a	1	n/a	n/a	n/a	n/a	n/a
1382974	REC_WORD	wordpools/wasnorm_wordpool.txt	LTP133	ltpFR	6	8	1	COD	340	n/a	n/a	1	n/a	n/a	n/a	n/a	n/a
1384840	REC_WORD	wordpools/wasnorm_wordpool.txt	LTP133	ltpFR	6	8	1	PASTA	1021	n/a	n/a	0	n/a	n/a	n/a	n/a	n/a
1386541	REC_WORD	wordpools/wasnorm_wordpool.txt	LTP133	ltpFR	6	8	1	SPAGHETTI	1346	n/a	n/a	0	n/a	n/a	n/a	n/a	n/a
1388686	REC_WORD	wordpools/wasnorm_wordpool.txt	LTP133	ltpFR	6	8	1	BARLEY	88	n/a	n/a	0	n/a	n/a	n/a	n/a	n/a
1390817	REC_WORD	wordpools/wasnorm_wordpool.txt	LTP133	ltpFR	6	8	1	BEAN	105	n/a	n/a	0	n/a	n/a	n/a	n/a	n/a
1407419	REC_WORD	wordpools/wasnorm_wordpool.txt	LTP133	ltpFR	6	8	1	OLIVE	975	n/a	n/a	0	n/a	n/a	n/a	n/a	n/a
1420564	REC_WORD	wordpools/wasnorm_wordpool.txt	LTP133	ltpFR	6	8	1	CUSTARD	429	n/a	n/a	0	n/a	n/a	n/a	n/a	n/a
1507224	WORD	wordpools/wasnorm_wordpool.txt	LTP133	ltpFR	6	9	-1	MINER	896	n/a	n/a	-1	1.0	1.0	1	upper	Verdana.ttf
1511406	WORD	wordpools/wasnorm_wordpool.txt	LTP133	ltpFR	6	9	-1	GREASE	660	n/a	n/a	-1	1.0	1.0	1	upper	Verdana.ttf
1515555	WORD	wordpools/wasnorm_wordpool.txt	LTP133	ltpFR	6	9	-1	AUNT	60	n/a	n/a	-1	1.0	1.0	1	upper	Verdana.ttf
1519595	WORD	wordpools/wasnorm_wordpool.txt	LTP133	ltpFR	6	9	-1	SKETCH	1315	n/a	n/a	-1	1.0	1.0	1	upper	Verdana.ttf
1523469	WORD	wordpools/wasnorm_wordpool.txt	LTP133	ltpFR	6	9	-1	DELINQUENT	445	n/a	n/a	-1	1.0	1.0	1	upper	Verdana.ttf
1527417	WORD	wordpools/wasnorm_wordpool.txt	LTP133	ltpFR	6	9	-1	LAPEL	800	n/a	n/a	-1	1.0	1.0	1	upper	Verdana.ttf
1531574	WORD	wordpools/wasnorm_wordpool.txt	LTP133	ltpFR	6	9	-1	WALL	1582	n/a	n/a	-1	1.0	1.0	1	upper	Verdana.ttf
1535481	WORD	wordpools/wasnorm_wordpool.txt	LTP133	ltpFR	6	9	-1	GUITAR	670	n/a	n/a	-1	1.0	1.0	1	upper	Verdana.ttf
1539363	WORD	wordpools/wasnorm_wordpool.txt	LTP133	ltpFR	6	9	-1	TIDE	1465	n/a	n/a	-1	1.0	1.0	1	upper	Verdana.ttf
1543428	WORD	wordpools/wasnorm_wordpool.txt	LTP133	ltpFR	6	9	-1	BATHTUB	100	n/a	n/a	-1	1.0	1.0	1	upper	Verdana.ttf
1547268	WORD	wordpools/wasnorm_wordpool.txt	LTP133	ltpFR	6	9	-1	MANSION	864	n/a	n/a	-1	1.0	1.0	1	upper	Verdana.ttf
1551309	WORD	wordpools/wasnorm_wordpool.txt	LTP133	ltpFR	6	9	-1	CHERRY	293	n/a	n/a	-1	1.0	1.0	1	upper	Verdana.ttf
1555182	WORD	wordpools/wasnorm_wordpool.txt	LTP133	ltpFR	6	9	-1	DUNGEON	507	n/a	n/a	-1	1.0	1.0	1	upper	Verdana.ttf
1559173	WORD	wordpools/wasnorm_wordpool.txt	LTP133	ltpFR	6	9	-1	TANK	1432	n/a	n/a	-1	1.0	1.0	1	upper	Verdana.ttf
1562995	WORD	wordpools/wasnorm_wordpool.txt	LTP133	ltpFR	6	9	-1	GENERAL	630	n/a	n/a	-1	1.0	1.0	1	upper	Verdana.ttf
1567170	WORD	wordpools/wasnorm_wordpool.txt	LTP133	ltpFR	6	9	-1	CONCERT	360	n/a	n/a	-1	1.0	1.0	1	upper	Verdana.ttf
1573110	REC_START	n/a	LTP133	ltpFR	6	9	n/a	n/a	n/a	n/a	n/a	n/a	n/a	n/a	n/a	n/a	n/a
1574661	REC_WORD	wordpools/wasnorm_wordpool.txt	LTP133	ltpFR	6	9	-1	CONCERT	360	n/a	n/a	-1	n/a	n/a	n/a	n/a	n/a
1576283	REC_WORD	wordpools/wasnorm_wordpool.txt	LTP133	ltpFR	6	9	-1	GENERAL	630	n/a	n/a	-1	n/a	n/a	n/a	n/a	n/a
1577919	REC_WORD	wordpools/wasnorm_wordpool.txt	LTP133	ltpFR	6	9	-1	DELINQUENT	445	n/a	n/a	-1	n/a	n/a	n/a	n/a	n/a
1579835	REC_WORD	wordpools/wasnorm_wordpool.txt	LTP133	ltpFR	6	9	-1	AUNT	60	n/a	n/a	-1	n/a	n/a	n/a	n/a	n/a
1606738	REC_WORD	wordpools/wasnorm_wordpool.txt	LTP133	ltpFR	6	9	-1	MANSION	864	n/a	n/a	-1	n/a	n/a	n/a	n/a	n/a
1608310	REC_WORD	wordpools/wasnorm_wordpool.txt	LTP133	ltpFR	6	9	-1	CHERRY	293	n/a	n/a	-1	n/a	n/a	n/a	n/a	n/a
1611428	REC_WORD	wordpools/wasnorm_wordpool.txt	LTP133	ltpFR	6	9	-1	TIDE	1465	n/a	n/a	-1	n/a	n/a	n/a	n/a	n/a
1616197	REC_WORD	wordpools/wasnorm_wordpool.txt	LTP133	ltpFR	6	9	-1	DUNGEON	507	n/a	n/a	-1	n/a	n/a	n/a	n/a	n/a
1617993	REC_WORD	wordpools/wasnorm_wordpool.txt	LTP133	ltpFR	6	9	-1	TANK	1432	n/a	n/a	-1	n/a	n/a	n/a	n/a	n/a
1730053	WORD	wordpools/wasnorm_wordpool.txt	LTP133	ltpFR	6	10	1	MEADOW	881	n/a	n/a	0	0.422607421875	0.5869140625	0	upper	amplitud.ttf
1734085	WORD	wordpools/wasnorm_wordpool.txt	LTP133	ltpFR	6	10	1	CHICKEN	297	n/a	n/a	1	0.422607421875	0.5869140625	0	upper	amplitud.ttf
1738051	WORD	wordpools/wasnorm_wordpool.txt	LTP133	ltpFR	6	10	1	MEAT	883	n/a	n/a	0	0.422607421875	0.5869140625	0	upper	amplitud.ttf
1742199	WORD	wordpools/wasnorm_wordpool.txt	LTP133	ltpFR	6	10	1	PEAR	1033	n/a	n/a	1	0.422607421875	0.5869140625	0	upper	amplitud.ttf
1746098	WORD	wordpools/wasnorm_wordpool.txt	LTP133	ltpFR	6	10	0	PUMPKIN	1142	n/a	n/a	0	0.57763671875	0.412841796875	1	lower	zerothre.ttf
1750020	WORD	wordpools/wasnorm_wordpool.txt	LTP133	ltpFR	6	10	0	LIGHTER	819	n/a	n/a	0	0.57763671875	0.412841796875	1	lower	zerothre.ttf
1753919	WORD	wordpools/wasnorm_wordpool.txt	LTP133	ltpFR	6	10	0	SECRETARY	1265	n/a	n/a	1	0.57763671875	0.412841796875	1	lower	zerothre.ttf
1758127	WORD	wordpools/wasnorm_wordpool.txt	LTP133	ltpFR	6	10	0	BOY	161	n/a	n/a	1	0.57763671875	0.412841796875	1	lower	zerothre.ttf
1762325	WORD	wordpools/wasnorm_wordpool.txt	LTP133	ltpFR	6	10	1	BEAR	106	n/a	n/a	1	0.422607421875	0.5869140625	0	upper	amplitud.ttf
1766224	WORD	wordpools/wasnorm_wordpool.txt	LTP133	ltpFR	6	10	1	PATIENT	1024	n/a	n/a	1	0.422607421875	0.5869140625	0	upper	amplitud.ttf
1770406	WORD	wordpools/wasnorm_wordpool.txt	LTP133	ltpFR	6	10	0	SKIN	1318	n/a	n/a	0	0.57763671875	0.412841796875	1	lower	zerothre.ttf
1774479	WORD	wordpools/wasnorm_wordpool.txt	LTP133	ltpFR	6	10	0	PIGMENT	1066	n/a	n/a	0	0.57763671875	0.412841796875	1	lower	zerothre.ttf
1778336	WORD	wordpools/wasnorm_wordpool.txt	LTP133	ltpFR	6	10	0	SLIME	1327	n/a	n/a	0	0.57763671875	0.412841796875	1	lower	zerothre.ttf
1782443	WORD	wordpools/wasnorm_wordpool.txt	LTP133	ltpFR	6	10	0	PIPE	1073	n/a	n/a	0	0.57763671875	0.412841796875	1	lower	zerothre.ttf
1786475	WORD	wordpools/wasnorm_wordpool.txt	LTP133	ltpFR	6	10	1	PURSE	1145	n/a	n/a	0	0.422607421875	0.5869140625	0	upper	amplitud.ttf
1790532	WORD	wordpools/wasnorm_wordpool.txt	LTP133	ltpFR	6	10	1	MANAGER	863	n/a	n/a	1	0.422607421875	0.5869140625	0	upper	amplitud.ttf
1796255	REC_START	n/a	LTP133	ltpFR	6	10	n/a	n/a	n/a	n/a	n/a	n/a	n/a	n/a	n/a	n/a	n/a
1797921	REC_WORD	wordpools/wasnorm_wordpool.txt	LTP133	ltpFR	6	10	1	MANAGER	863	n/a	n/a	1	n/a	n/a	n/a	n/a	n/a
1799458	REC_WORD	wordpools/wasnorm_wordpool.txt	LTP133	ltpFR	6	10	1	PURSE	1145	n/a	n/a	0	n/a	n/a	n/a	n/a	n/a
1801139	REC_WORD	wordpools/wasnorm_wordpool.txt	LTP133	ltpFR	6	10	0	PIGMENT	1066	n/a	n/a	0	n/a	n/a	n/a	n/a	n/a
1802680	REC_WORD	wordpools/wasnorm_wordpool.txt	LTP133	ltpFR	6	10	0	SLIME	1327	n/a	n/a	0	n/a	n/a	n/a	n/a	n/a
1809046	REC_WORD	wordpools/wasnorm_wordpool.txt	LTP133	ltpFR	6	10	1	MEADOW	881	n/a	n/a	0	n/a	n/a	n/a	n/a	n/a
1822844	REC_WORD	wordpools/wasnorm_wordpool.txt	LTP133	ltpFR	6	10	1	MEAT	883	n/a	n/a	0	n/a	n/a	n/a	n/a	n/a
1824356	REC_WORD	wordpools/wasnorm_wordpool.txt	LTP133	ltpFR	6	10	1	CHICKEN	297	n/a	n/a	1	n/a	n/a	n/a	n/a	n/a
1837531	REC_WORD	wordpools/wasnorm_wordpool.txt	LTP133	ltpFR	6	10	0	BOY	161	n/a	n/a	1	n/a	n/a	n/a	n/a	n/a
1838972	REC_WORD	wordpools/wasnorm_wordpool.txt	LTP133	ltpFR	6	10	0	SKIN	1318	n/a	n/a	0	n/a	n/a	n/a	n/a	n/a
1941002	WORD	wordpools/wasnorm_wordpool.txt	LTP133	ltpFR	6	11	0	FLASK	576	n/a	n/a	0	0.57763671875	0.412841796875	1	lower	zerothre.ttf
1944868	WORD	wordpools/wasnorm_wordpool.txt	LTP133	ltpFR	6	11	0	WINE	1613	n/a	n/a	0	0.57763671875	0.412841796875	1	lower	zerothre.ttf
1948991	WORD	wordpools/wasnorm_wordpool.txt	LTP133	ltpFR	6	11	0	MAP	865	n/a	n/a	0	0.57763671875	0.412841796875	1	lower	zerothre.ttf
1953049	WORD	wordpools/wasnorm_wordpool.txt	LTP133	ltpFR	6	11	0	CONE	363	n/a	n/a	0	0.57763671875	0.412841796875	1	lower	zerothre.ttf
1957056	WORD	wordpools/wasnorm_wordpool.txt	LTP133	ltpFR	6	11	0	PLAZA	1088	n/a	n/a	1	0.57763671875	0.412841796875	1	lower	zerothre.ttf
1960895	WORD	wordpools/wasnorm_wordpool.txt	LTP133	ltpFR	6	11	0	FREEZER	604	n/a	n/a	0	0.57763671875	0.412841796875	1	lower	zerothre.ttf
1965070	WORD	wordpools/wasnorm_wordpool.txt	LTP133	ltpFR	6	11	0	DIPLOMA	470	n/a	n/a	0	0.57763671875	0.412841796875	1	lower	zerothre.ttf
1969177	WORD	wordpools/wasnorm_wordpool.txt	LTP133	ltpFR	6	11	0	SCHOOL	1248	n/a	n/a	1	0.57763671875	0.412841796875	1	lower	zerothre.ttf
1973108	WORD	wordpools/wasnorm_wordpool.txt	LTP133	ltpFR	6	11	0	HOOP	716	n/a	n/a	0	0.57763671875	0.412841796875	1	lower	zerothre.ttf
1977115	WORD	wordpools/wasnorm_wordpool.txt	LTP133	ltpFR	6	11	0	COLLEGE	346	n/a	n/a	1	0.57763671875	0.412841796875	1	lower	zerothre.ttf
1981039	WORD	wordpools/wasnorm_wordpool.txt	LTP133	ltpFR	6	11	0	PARENT	1013	n/a	n/a	1	0.57763671875	0.412841796875	1	lower	zerothre.ttf
1985196	WORD	wordpools/wasnorm_wordpool.txt	LTP133	ltpFR	6	11	0	PELT	1040	n/a	n/a	0	0.57763671875	0.412841796875	1	lower	zerothre.ttf
1989369	WORD	wordpools/wasnorm_wordpool.txt	LTP133	ltpFR	6	11	0	WALRUS	1585	n/a	n/a	1	0.57763671875	0.412841796875	1	lower	zerothre.ttf
1993335	WORD	wordpools/wasnorm_wordpool.txt	LTP133	ltpFR	6	11	0	STORE	1387	n/a	n/a	1	0.57763671875	0.412841796875	1	lower	zerothre.ttf
1997325	WORD	wordpools/wasnorm_wordpool.txt	LTP133	ltpFR	6	11	0	GALLON	618	n/a	n/a	0	0.57763671875	0.412841796875	1	lower	zerothre.ttf
2001365	WORD	wordpools/wasnorm_wordpool.txt	LTP133	ltpFR	6	11	0	HIGHWAY	707	n/a	n/a	1	0.57763671875	0.412841796875	1	lower	zerothre.ttf
2007247	REC_START	n/a	LTP133	ltpFR	6	11	n/a	n/a	n/a	n/a	n/a	n/a	n/a	n/a	n/a	n/a	n/a
2009337	REC_WORD	wordpools/wasnorm_wordpool.txt	LTP133	ltpFR	6	11	0	HIGHWAY	707	n/a	n/a	1	n/a	n/a	n/a	n/a	n/a
2010879	REC_WORD	wordpools/wasnorm_wordpool.txt	LTP133	ltpFR	6	11	0	GALLON	618	n/a	n/a	0	n/a	n/a	n/a	n/a	n/a
2012280	REC_WORD	wordpools/wasnorm_wordpool.txt	LTP133	ltpFR	6	11	0	STORE	1387	n/a	n/a	1	n/a	n/a	n/a	n/a	n/a
2016311	REC_WORD	wordpools/wasnorm_wordpool.txt	LTP133	ltpFR	6	11	0	COLLEGE	346	n/a	n/a	1	n/a	n/a	n/a	n/a	n/a
2017867	REC_WORD	wordpools/wasnorm_wordpool.txt	LTP133	ltpFR	6	11	0	SCHOOL	1248	n/a	n/a	1	n/a	n/a	n/a	n/a	n/a
2024428	REC_WORD	wordpools/wasnorm_wordpool.txt	LTP133	ltpFR	6	11	0	PELT	1040	n/a	n/a	0	n/a	n/a	n/a	n/a	n/a
2026323	REC_WORD	wordpools/wasnorm_wordpool.txt	LTP133	ltpFR	6	11	0	WALRUS	1585	n/a	n/a	1	n/a	n/a	n/a	n/a	n/a
2116049	WORD	wordpools/wasnorm_wordpool.txt	LTP133	ltpFR	6	12	1	SUBWAY	1400	n/a	n/a	0	0.422607421875	0.5869140625	0	upper	amplitud.ttf
2120181	WORD	wordpools/wasnorm_wordpool.txt	LTP133	ltpFR	6	12	1	REEF	1177	n/a	n/a	1	0.422607421875	0.5869140625	0	upper	amplitud.ttf
2124113	WORD	wordpools/wasnorm_wordpool.txt	LTP133	ltpFR	6	12	1	SIDING	1304	n/a	n/a	0	0.422607421875	0.5869140625	0	upper	amplitud.ttf
2127986	WORD	wordpools/wasnorm_wordpool.txt	LTP133	ltpFR	6	12	1	ANKLE	24	n/a	n/a	0	0.422607421875	0.5869140625	0	upper	amplitud.ttf
2131843	WORD	wordpools/wasnorm_wordpool.txt	LTP133	ltpFR	6	12	1	KNEE	784	n/a	n/a	0	0.422607421875	0.5869140625	0	upper	amplitud.ttf
2135750	WORD	wordpools/wasnorm_wordpool.txt	LTP133	ltpFR	6	12	1	WAVE	1596	n/a	n/a	0	0.422607421875	0.5869140625	0	upper	amplitud.ttf
2139823	WORD	wordpools/wasnorm_wordpool.txt	LTP133	ltpFR	6	12	1	WARRIOR	1589	n/a	n/a	1	0.422607421875	0.5869140625	0	upper	amplitud.ttf
2143690	WORD	wordpools/wasnorm_wordpool.txt	LTP133	ltpFR	6	12	1	FLAG	573	n/a	n/a	0	0.422607421875	0.5869140625	0	upper	amplitud.ttf
2147680	WORD	wordpools/wasnorm_wordpool.txt	LTP133	ltpFR	6	12	1	OREGANO	983	n/a	n/a	0	0.422607421875	0.5869140625	0	upper	amplitud.ttf
2151860	WORD	wordpools/wasnorm_wordpool.txt	LTP133	ltpFR	6	12	1	PLATE	1086	n/a	n/a	0	0.422607421875	0.5869140625	0	upper	amplitud.ttf
2155992	WORD	wordpools/wasnorm_wordpool.txt	LTP133	ltpFR	6	12	1	SCENERY	1247	n/a	n/a	1	0.422607421875	0.5869140625	0	upper	amplitud.ttf
2159908	WORD	wordpools/wasnorm_wordpool.txt	LTP133	ltpFR	6	12	1	TWIN	1528	n/a	n/a	1	0.422607421875	0.5869140625	0	upper	amplitud.ttf
2163798	WORD	wordpools/wasnorm_wordpool.txt	LTP133	ltpFR	6	12	1	KID	775	n/a	n/a	1	0.422607421875	0.5869140625	0	upper	amplitud.ttf
2167946	WORD	wordpools/wasnorm_wordpool.txt	LTP133	ltpFR	6	12	1	HERB	704	n/a	n/a	1	0.422607421875	0.5869140625	0	upper	amplitud.ttf
2172054	WORD	wordpools/wasnorm_wordpool.txt	LTP133	ltpFR	6	12	1	MOTEL	919	n/a	n/a	0	0.422607421875	0.5869140625	0	upper	amplitud.ttf
2176061	WORD	wordpools/wasnorm_wordpool.txt	LTP133	ltpFR	6	12	1	RESORT	1186	n/a	n/a	0	0.422607421875	0.5869140625	0	upper	amplitud.ttf
2182009	REC_START	n/a	LTP133	ltpFR	6	12	n/a	n/a	n/a	n/a	n/a	n/a	n/a	n/a	n/a	n/a	n/a
2183715	REC_WORD	wordpools/wasnorm_wordpool.txt	LTP133	ltpFR	6	12	1	RESORT	1186	n/a	n/a	0	n/a	n/a	n/a	n/a	n/a
2185082	REC_WORD	wordpools/wasnorm_wordpool.txt	LTP133	ltpFR	6	12	1	MOTEL	919	n/a	n/a	0	n/a	n/a	n/a	n/a	n/a
2186992	REC_WORD	wordpools/wasnorm_wordpool.txt	LTP133	ltpFR	6	12	1	OREGANO	983	n/a	n/a	0	n/a	n/a	n/a	n/a	n/a
2191602	REC_WORD	wordpools/wasnorm_wordpool.txt	LTP133	ltpFR	6	12	1	SCENERY	1247	n/a	n/a	1	n/a	n/a	n/a	n/a	n/a
2221549	REC_WORD	wordpools/wasnorm_wordpool.txt	LTP133	ltpFR	6	12	1	ANKLE	24	n/a	n/a	0	n/a	n/a	n/a	n/a	n/a
2256569	REC_WORD	wordpools/wasnorm_wordpool.txt	LTP133	ltpFR	6	12	1	WAVE	1596	n/a	n/a	0	n/a	n/a	n/a	n/a	n/a
2257607	REST_REWET	n/a	LTP133	ltpFR	6	12	n/a	n/a	n/a	n/a	n/a	n/a	n/a	n/a	n/a	n/a	n/a
2673634	WORD	wordpools/wasnorm_wordpool.txt	LTP133	ltpFR	6	13	-1	FROST	609	n/a	n/a	-1	1.0	1.0	1	upper	Verdana.ttf
2677566	WORD	wordpools/wasnorm_wordpool.txt	LTP133	ltpFR	6	13	-1	REFRIGERATOR	1179	n/a	n/a	-1	1.0	1.0	1	upper	Verdana.ttf
2681706	WORD	wordpools/wasnorm_wordpool.txt	LTP133	ltpFR	6	13	-1	RICE	1190	n/a	n/a	-1	1.0	1.0	1	upper	Verdana.ttf
2685729	WORD	wordpools/wasnorm_wordpool.txt	LTP133	ltpFR	6	13	-1	CAFE	216	n/a	n/a	-1	1.0	1.0	1	upper	Verdana.ttf
2689819	WORD	wordpools/wasnorm_wordpool.txt	LTP133	ltpFR	6	13	-1	LUNG	850	n/a	n/a	-1	1.0	1.0	1	upper	Verdana.ttf
2693901	WORD	wordpools/wasnorm_wordpool.txt	LTP133	ltpFR	6	13	-1	SNAKE	1333	n/a	n/a	-1	1.0	1.0	1	upper	Verdana.ttf
2698050	WORD	wordpools/wasnorm_wordpool.txt	LTP133	ltpFR	6	13	-1	ACTOR	5	n/a	n/a	-1	1.0	1.0	1	upper	Verdana.ttf
2701956	WORD	wordpools/wasnorm_wordpool.txt	LTP133	ltpFR	6	13	-1	CLOWN	330	n/a	n/a	-1	1.0	1.0	1	upper	Verdana.ttf
2705905	WORD	wordpools/wasnorm_wordpool.txt	LTP133	ltpFR	6	13	-1	PARTNER	1017	n/a	n/a	-1	1.0	1.0	1	upper	Verdana.ttf
2709878	WORD	wordpools/wasnorm_wordpool.txt	LTP133	ltpFR	6	13	-1	VISITOR	1573	n/a	n/a	-1	1.0	1.0	1	upper	Verdana.ttf
2713910	WORD	wordpools/wasnorm_wordpool.txt	LTP133	ltpFR	6	13	-1	COMMITTEE	355	n/a	n/a	-1	1.0	1.0	1	upper	Verdana.ttf
2717917	WORD	wordpools/wasnorm_wordpool.txt	LTP133	ltpFR	6	13	-1	SWAMP	1416	n/a	n/a	-1	1.0	1.0	1	upper	Verdana.ttf
2721857	WORD	wordpools/wasnorm_wordpool.txt	LTP133	ltpFR	6	13	-1	CUP	424	n/a	n/a	-1	1.0	1.0	1	upper	Verdana.ttf
2725798	WORD	wordpools/wasnorm_wordpool.txt	LTP133	ltpFR	6	13	-1	HAWK	692	n/a	n/a	-1	1.0	1.0	1	upper	Verdana.ttf
2729788	WORD	wordpools/wasnorm_wordpool.txt	LTP133	ltpFR	6	13	-1	AUDIENCE	59	n/a	n/a	-1	1.0	1.0	1	upper	Verdana.ttf
2733671	WORD	wordpools/wasnorm_wordpool.txt	LTP133	ltpFR	6	13	-1	SKI	1316	n/a	n/a	-1	1.0	1.0	1	upper	Verdana.ttf
2739619	REC_START	n/a	LTP133	ltpFR	6	13	n/a	n/a	n/a	n/a	n/a	n/a	n/a	n/a	n/a	n/a	n/a
2741354	REC_WORD	wordpools/wasnorm_wordpool.txt	LTP133	ltpFR	6	13	-1	SKI	1316	n/a	n/a	-1	n/a	n/a	n/a	n/a	n/a
2742707	REC_WORD	wordpools/wasnorm_wordpool.txt	LTP133	ltpFR	6	13	-1	AUDIENCE	59	n/a	n/a	-1	n/a	n/a	n/a	n/a	n/a
2744248	REC_WORD	wordpools/wasnorm_wordpool.txt	LTP133	ltpFR	6	13	-1	HAWK	692	n/a	n/a	-1	n/a	n/a	n/a	n/a	n/a
2749486	REC_WORD	wordpools/wasnorm_wordpool.txt	LTP133	ltpFR	6	13	-1	ACTOR	5	n/a	n/a	-1	n/a	n/a	n/a	n/a	n/a
2751247	REC_WORD	wordpools/wasnorm_wordpool.txt	LTP133	ltpFR	6	13	-1	SNAKE	1333	n/a	n/a	-1	n/a	n/a	n/a	n/a	n/a
2753058	REC_WORD	wordpools/wasnorm_wordpool.txt	LTP133	ltpFR	6	13	-1	REFRIGERATOR	1179	n/a	n/a	-1	n/a	n/a	n/a	n/a	n/a
2755358	REC_WORD	wordpools/wasnorm_wordpool.txt	LTP133	ltpFR	6	13	-1	RICE	1190	n/a	n/a	-1	n/a	n/a	n/a	n/a	n/a
2758740	REC_WORD	wordpools/wasnorm_wordpool.txt	LTP133	ltpFR	6	13	-1	SWAMP	1416	n/a	n/a	-1	n/a	n/a	n/a	n/a	n/a
2768074	REC_WORD	wordpools/wasnorm_wordpool.txt	LTP133	ltpFR	6	13	-1	COMMITTEE	355	n/a	n/a	-1	n/a	n/a	n/a	n/a	n/a
2780775	REC_WORD	wordpools/wasnorm_wordpool.txt	LTP133	ltpFR	6	13	-1	FROST	609	n/a	n/a	-1	n/a	n/a	n/a	n/a	n/a
2783344	REC_WORD	wordpools/wasnorm_wordpool.txt	LTP133	ltpFR	6	13	-1	VISITOR	1573	n/a	n/a	-1	n/a	n/a	n/a	n/a	n/a
2867947	WORD	wordpools/wasnorm_wordpool.txt	LTP133	ltpFR	6	14	0	HAT	690	n/a	n/a	0	0.57763671875	0.412841796875	1	lower	zerothre.ttf
2871879	WORD	wordpools/wasnorm_wordpool.txt	LTP133	ltpFR	6	14	0	GLUE	643	n/a	n/a	0	0.57763671875	0.412841796875	1	lower	zerothre.ttf
2875761	WORD	wordpools/wasnorm_wordpool.txt	LTP133	ltpFR	6	14	0	SAW	1239	n/a	n/a	0	0.57763671875	0.412841796875	1	lower	zerothre.ttf
2879661	WORD	wordpools/wasnorm_wordpool.txt	LTP133	ltpFR	6	14	0	JACKET	747	n/a	n/a	0	0.57763671875	0.412841796875	1	lower	zerothre.ttf
2883659	WORD	wordpools/wasnorm_wordpool.txt	LTP133	ltpFR	6	14	0	NECK	939	n/a	n/a	0	0.57763671875	0.412841796875	1	lower	zerothre.ttf
2887641	WORD	wordpools/wasnorm_wordpool.txt	LTP133	ltpFR	6	14	0	FOREHEAD	592	n/a	n/a	0	0.57763671875	0.412841796875	1	lower	zerothre.ttf
2891515	WORD	wordpools/wasnorm_wordpool.txt	LTP133	ltpFR	6	14	0	VOLLEYBALL	1576	n/a	n/a	0	0.57763671875	0.412841796875	1	lower	zerothre.ttf
2895355	WORD	wordpools/wasnorm_wordpool.txt	LTP133	ltpFR	6	14	0	CAP	236	n/a	n/a	0	0.57763671875	0.412841796875	1	lower	zerothre.ttf
2899195	WORD	wordpools/wasnorm_wordpool.txt	LTP133	ltpFR	6	14	0	RECORD	1176	n/a	n/a	0	0.57763671875	0.412841796875	1	lower	zerothre.ttf
2903244	WORD	wordpools/wasnorm_wordpool.txt	LTP133	ltpFR	6	14	0	MINK	897	n/a	n/a	0	0.57763671875	0.412841796875	1	lower	zerothre.ttf
2907234	WORD	wordpools/wasnorm_wordpool.txt	LTP133	ltpFR	6	14	0	CITIZEN	312	n/a	n/a	1	0.57763671875	0.412841796875	1	lower	zerothre.ttf
2911066	WORD	wordpools/wasnorm_wordpool.txt	LTP133	ltpFR	6	14	0	FLUTE	585	n/a	n/a	0	0.57763671875	0.412841796875	1	lower	zerothre.ttf
2915265	WORD	wordpools/wasnorm_wordpool.txt	LTP133	ltpFR	6	14	0	MUSHROOM	934	n/a	n/a	0	0.57763671875	0.412841796875	1	lower	zerothre.ttf
2919321	WORD	wordpools/wasnorm_wordpool.txt	LTP133	ltpFR	6	14	0	OUTLAW	989	n/a	n/a	0	0.57763671875	0.412841796875	1	lower	zerothre.ttf
2923145	WORD	wordpools/wasnorm_wordpool.txt	LTP133	ltpFR	6	14	0	BURGLAR	200	n/a	n/a	1	0.57763671875	0.412841796875	1	lower	zerothre.ttf
2927277	WORD	wordpools/wasnorm_wordpool.txt	LTP133	ltpFR	6	14	0	KITCHEN	778	n/a	n/a	1	0.57763671875	0.412841796875	1	lower	zerothre.ttf
2932991	REC_START	n/a	LTP133	ltpFR	6	14	n/a	n/a	n/a	n/a	n/a	n/a	n/a	n/a	n/a	n/a	n/a
2934462	REC_WORD	wordpools/wasnorm_wordpool.txt	LTP133	ltpFR	6	14	0	KITCHEN	778	n/a	n/a	1	n/a	n/a	n/a	n/a	n/a
2935849	REC_WORD	wordpools/wasnorm_wordpool.txt	LTP133	ltpFR	6	14	0	OUTLAW	989	n/a	n/a	0	n/a	n/a	n/a	n/a	n/a
2937231	REC_WORD	wordpools/wasnorm_wordpool.txt	LTP133	ltpFR	6	14	0	BURGLAR	200	n/a	n/a	1	n/a	n/a	n/a	n/a	n/a
2938927	REC_WORD	wordpools/wasnorm_wordpool.txt	LTP133	ltpFR	6	14	0	MUSHROOM	934	n/a	n/a	0	n/a	n/a	n/a	n/a	n/a
2941472	REC_WORD	wordpools/wasnorm_wordpool.txt	LTP133	ltpFR	6	14	0	NECK	939	n/a	n/a	0	n/a	n/a	n/a	n/a	n/a
2943911	REC_WORD	wordpools/wasnorm_wordpool.txt	LTP133	ltpFR	6	14	0	FOREHEAD	592	n/a	n/a	0	n/a	n/a	n/a	n/a	n/a
2952182	REC_WORD	wordpools/wasnorm_wordpool.txt	LTP133	ltpFR	6	14	0	CITIZEN	312	n/a	n/a	1	n/a	n/a	n/a	n/a	n/a
2961501	REC_WORD	wordpools/wasnorm_wordpool.txt	LTP133	ltpFR	6	14	0	MINK	897	n/a	n/a	0	n/a	n/a	n/a	n/a	n/a
3078357	WORD	wordpools/wasnorm_wordpool.txt	LTP133	ltpFR	6	15	1	OINTMENT	974	n/a	n/a	0	0.422607421875	0.5869140625	0	upper	amplitud.ttf
3082238	WORD	wordpools/wasnorm_wordpool.txt	LTP133	ltpFR	6	15	1	YACHT	1629	n/a	n/a	0	0.422607421875	0.5869140625	0	upper	amplitud.ttf
3086337	WORD	wordpools/wasnorm_wordpool.txt	LTP133	ltpFR	6	15	1	CAULIFLOWER	262	n/a	n/a	0	0.422607421875	0.5869140625	0	upper	amplitud.ttf
3090452	WORD	wordpools/wasnorm_wordpool.txt	LTP133	ltpFR	6	15	0	BISON	131	n/a	n/a	1	0.57763671875	0.412841796875	1	lower	zerothre.ttf
3094317	WORD	wordpools/wasnorm_wordpool.txt	LTP133	ltpFR	6	15	0	CROCODILE	411	n/a	n/a	1	0.57763671875	0.412841796875	1	lower	zerothre.ttf
3098441	WORD	wordpools/wasnorm_wordpool.txt	LTP133	ltpFR	6	15	0	CHEESE	289	n/a	n/a	0	0.57763671875	0.412841796875	1	lower	zerothre.ttf
3102356	WORD	wordpools/wasnorm_wordpool.txt	LTP133	ltpFR	6	15	1	CHEMICAL	291	n/a	n/a	0	0.422607421875	0.5869140625	0	upper	amplitud.ttf
3106213	WORD	wordpools/wasnorm_wordpool.txt	LTP133	ltpFR	6	15	1	BOXER	160	n/a	n/a	1	0.422607421875	0.5869140625	0	upper	amplitud.ttf
3110245	WORD	wordpools/wasnorm_wordpool.txt	LTP133	ltpFR	6	15	1	SCOUT	1252	n/a	n/a	1	0.422607421875	0.5869140625	0	upper	amplitud.ttf
3114060	WORD	wordpools/wasnorm_wordpool.txt	LTP133	ltpFR	6	15	1	PORT	1110	n/a	n/a	0	0.422607421875	0.5869140625	0	upper	amplitud.ttf
3118076	WORD	wordpools/wasnorm_wordpool.txt	LTP133	ltpFR	6	15	1	WOUND	1624	n/a	n/a	0	0.422607421875	0.5869140625	0	upper	amplitud.ttf
3121915	WORD	wordpools/wasnorm_wordpool.txt	LTP133	ltpFR	6	15	0	SHORTS	1293	n/a	n/a	0	0.57763671875	0.412841796875	1	lower	zerothre.ttf
3126014	WORD	wordpools/wasnorm_wordpool.txt	LTP133	ltpFR	6	15	0	FORT	595	n/a	n/a	1	0.57763671875	0.412841796875	1	lower	zerothre.ttf
3129995	WORD	wordpools/wasnorm_wordpool.txt	LTP133	ltpFR	6	15	0	STUMP	1396	n/a	n/a	0	0.57763671875	0.412841796875	1	lower	zerothre.ttf
3134095	WORD	wordpools/wasnorm_wordpool.txt	LTP133	ltpFR	6	15	0	ASTRONAUT	51	n/a	n/a	1	0.57763671875	0.412841796875	1	lower	zerothre.ttf
3138001	WORD	wordpools/wasnorm_wordpool.txt	LTP133	ltpFR	6	15	0	GALAXY	617	n/a	n/a	1	0.57763671875	0.412841796875	1	lower	zerothre.ttf
3143609	REC_START	n/a	LTP133	ltpFR	6	15	n/a	n/a	n/a	n/a	n/a	n/a	n/a	n/a	n/a	n/a	n/a
3144971	REC_WORD	wordpools/wasnorm_wordpool.txt	LTP133	ltpFR	6	15	0	ASTRONAUT	51	n/a	n/a	1	n/a	n/a	n/a	n/a	n/a
3146572	REC_WORD	wordpools/wasnorm_wordpool.txt	LTP133	ltpFR	6	15	0	GALAXY	617	n/a	n/a	1	n/a	n/a	n/a	n/a	n/a
3149216	REC_WORD	wordpools/wasnorm_wordpool.txt	LTP133	ltpFR	6	15	0	FORT	595	n/a	n/a	1	n/a	n/a	n/a	n/a	n/a
3153187	REC_WORD	wordpools/wasnorm_wordpool.txt	LTP133	ltpFR	6	15	0	CROCODILE	411	n/a	n/a	1	n/a	n/a	n/a	n/a	n/a
3155417	REC_WORD	wordpools/wasnorm_wordpool.txt	LTP133	ltpFR	6	15	0	BISON	131	n/a	n/a	1	n/a	n/a	n/a	n/a	n/a
3167365	REC_WORD	wordpools/wasnorm_wordpool.txt	LTP133	ltpFR	6	15	1	CAULIFLOWER	262	n/a	n/a	0	n/a	n/a	n/a	n/a	n/a
3169894	REC_WORD	wordpools/wasnorm_wordpool.txt	LTP133	ltpFR	6	15	1	CHEMICAL	291	n/a	n/a	0	n/a	n/a	n/a	n/a	n/a
3186147	REC_WORD	wordpools/wasnorm_wordpool.txt	LTP133	ltpFR	6	15	1	PORT	1110	n/a	n/a	0	n/a	n/a	n/a	n/a	n/a
3202006	REC_WORD	wordpools/wasnorm_wordpool.txt	LTP133	ltpFR	6	15	1	WOUND	1624	n/a	n/a	0	n/a	n/a	n/a	n/a	n/a
3203832	REC_WORD	wordpools/wasnorm_wordpool.txt	LTP133	ltpFR	6	15	0	SHORTS	1293	n/a	n/a	0	n/a	n/a	n/a	n/a	n/a
3291913	WORD	wordpools/wasnorm_wordpool.txt	LTP133	ltpFR	6	16	-1	CARROT	249	n/a	n/a	-1	1.0	1.0	1	upper	Verdana.ttf
3296037	WORD	wordpools/wasnorm_wordpool.txt	LTP133	ltpFR	6	16	-1	TORTOISE	1486	n/a	n/a	-1	1.0	1.0	1	upper	Verdana.ttf
3300194	WORD	wordpools/wasnorm_wordpool.txt	LTP133	ltpFR	6	16	-1	ASTEROID	50	n/a	n/a	-1	1.0	1.0	1	upper	Verdana.ttf
3304343	WORD	wordpools/wasnorm_wordpool.txt	LTP133	ltpFR	6	16	-1	MARBLE	867	n/a	n/a	-1	1.0	1.0	1	upper	Verdana.ttf
3308541	WORD	wordpools/wasnorm_wordpool.txt	LTP133	ltpFR	6	16	-1	RAKE	1164	n/a	n/a	-1	1.0	1.0	1	upper	Verdana.ttf
3312623	WORD	wordpools/wasnorm_wordpool.txt	LTP133	ltpFR	6	16	-1	CHILD	299	n/a	n/a	-1	1.0	1.0	1	upper	Verdana.ttf
3316447	WORD	wordpools/wasnorm_wordpool.txt	LTP133	ltpFR	6	16	-1	BIOLOGIST	128	n/a	n/a	-1	1.0	1.0	1	upper	Verdana.ttf
3320562	WORD	wordpools/wasnorm_wordpool.txt	LTP133	ltpFR	6	16	-1	FAUCET	555	n/a	n/a	-1	1.0	1.0	1	upper	Verdana.ttf
3324410	WORD	wordpools/wasnorm_wordpool.txt	LTP133	ltpFR	6	16	-1	JEANS	752	n/a	n/a	-1	1.0	1.0	1	upper	Verdana.ttf
3328351	WORD	wordpools/wasnorm_wordpool.txt	LTP133	ltpFR	6	16	-1	ITEM	746	n/a	n/a	-1	1.0	1.0	1	upper	Verdana.ttf
3332383	WORD	wordpools/wasnorm_wordpool.txt	LTP133	ltpFR	6	16	-1	CHIMPANZEE	302	n/a	n/a	-1	1.0	1.0	1	upper	Verdana.ttf
3336273	WORD	wordpools/wasnorm_wordpool.txt	LTP133	ltpFR	6	16	-1	CRIB	407	n/a	n/a	-1	1.0	1.0	1	upper	Verdana.ttf
3340180	WORD	wordpools/wasnorm_wordpool.txt	LTP133	ltpFR	6	16	-1	SUBMARINE	1398	n/a	n/a	-1	1.0	1.0	1	upper	Verdana.ttf
3344137	WORD	wordpools/wasnorm_wordpool.txt	LTP133	ltpFR	6	16	-1	FIG	563	n/a	n/a	-1	1.0	1.0	1	upper	Verdana.ttf
3348035	WORD	wordpools/wasnorm_wordpool.txt	LTP133	ltpFR	6	16	-1	PENGUIN	1044	n/a	n/a	-1	1.0	1.0	1	upper	Verdana.ttf
3351991	WORD	wordpools/wasnorm_wordpool.txt	LTP133	ltpFR	6	16	-1	WINGS	1614	n/a	n/a	-1	1.0	1.0	1	upper	Verdana.ttf
3357898	REC_START	n/a	LTP133	ltpFR	6	16	n/a	n/a	n/a	n/a	n/a	n/a	n/a	n/a	n/a	n/a	n/a
3360028	REC_WORD	wordpools/wasnorm_wordpool.txt	LTP133	ltpFR	6	16	-1	WINGS	1614	n/a	n/a	-1	n/a	n/a	n/a	n/a	n/a
3361470	REC_WORD	wordpools/wasnorm_wordpool.txt	LTP133	ltpFR	6	16	-1	PENGUIN	1044	n/a	n/a	-1	n/a	n/a	n/a	n/a	n/a
3363266	REC_WORD	wordpools/wasnorm_wordpool.txt	LTP133	ltpFR	6	16	-1	FIG	563	n/a	n/a	-1	n/a	n/a	n/a	n/a	n/a
3364941	REC_WORD	wordpools/wasnorm_wordpool.txt	LTP133	ltpFR	6	16	-1	SUBMARINE	1398	n/a	n/a	-1	n/a	n/a	n/a	n/a	n/a
3375862	REC_WORD	wordpools/wasnorm_wordpool.txt	LTP133	ltpFR	6	16	-1	MARBLE	867	n/a	n/a	-1	n/a	n/a	n/a	n/a	n/a
3378206	REC_WORD	wordpools/wasnorm_wordpool.txt	LTP133	ltpFR	6	16	-1	ASTEROID	50	n/a	n/a	-1	n/a	n/a	n/a	n/a	n/a
3380206	REC_WORD	wordpools/wasnorm_wordpool.txt	LTP133	ltpFR	6	16	-1	RAKE	1164	n/a	n/a	-1	n/a	n/a	n/a	n/a	n/a
3400661	REC_WORD	wordpools/wasnorm_wordpool.txt	LTP133	ltpFR	6	16	-1	CHIMPANZEE	302	n/a	n/a	-1	n/a	n/a	n/a	n/a	n/a
3545998	REC_START	n/a	LTP133	ltpFR	6	n/a	n/a	n/a	n/a	n/a	n/a	n/a	n/a	n/a	n/a	n/a	n/a
3548318	FFR_REC_WORD	wordpools/wasnorm_wordpool.txt	LTP133	ltpFR	6	n/a	0	ASTRONAUT	51	n/a	n/a	1	n/a	n/a	n/a	n/a	n/a
3549899	FFR_REC_WORD	wordpools/wasnorm_wordpool.txt	LTP133	ltpFR	6	n/a	0	GALAXY	617	n/a	n/a	1	n/a	n/a	n/a	n/a	n/a
3552089	FFR_REC_WORD	wordpools/wasnorm_wordpool.txt	LTP133	ltpFR	6	n/a	0	CAPTIVE	240	n/a	n/a	1	n/a	n/a	n/a	n/a	n/a
3554124	FFR_REC_WORD	wordpools/wasnorm_wordpool.txt	LTP133	ltpFR	6	n/a	0	GANGSTER	620	n/a	n/a	1	n/a	n/a	n/a	n/a	n/a
3556120	FFR_REC_WORD	wordpools/wasnorm_wordpool.txt	LTP133	ltpFR	6	n/a	0	BURGLAR	200	n/a	n/a	1	n/a	n/a	n/a	n/a	n/a
3563723	FFR_REC_WORD	wordpools/wasnorm_wordpool.txt	LTP133	ltpFR	6	n/a	0	BISON	131	n/a	n/a	1	n/a	n/a	n/a	n/a	n/a
3565354	FFR_REC_WORD	wordpools/wasnorm_wordpool.txt	LTP133	ltpFR	6	n/a	0	CROCODILE	411	n/a	n/a	1	n/a	n/a	n/a	n/a	n/a
3568172	FFR_REC_WORD	wordpools/wasnorm_wordpool.txt	LTP133	ltpFR	6	n/a	-1	HAWK	692	n/a	n/a	-1	n/a	n/a	n/a	n/a	n/a
3570582	FFR_REC_WORD	wordpools/wasnorm_wordpool.txt	LTP133	ltpFR	6	n/a	0	QUAIL	1147	n/a	n/a	0	n/a	n/a	n/a	n/a	n/a
3572787	FFR_REC_WORD	wordpools/wasnorm_wordpool.txt	LTP133	ltpFR	6	n/a	1	CHICKEN	297	n/a	n/a	1	n/a	n/a	n/a	n/a	n/a
3574857	FFR_REC_WORD	wordpools/wasnorm_wordpool.txt	LTP133	ltpFR	6	n/a	1	MEAT	883	n/a	n/a	0	n/a	n/a	n/a	n/a	n/a
3578723	FFR_REC_WORD	wordpools/wasnorm_wordpool.txt	LTP133	ltpFR	6	n/a	0	VEAL	1551	n/a	n/a	0	n/a	n/a	n/a	n/a	n/a
3583373	FFR_REC_WORD	wordpools/wasnorm_wordpool.txt	LTP133	ltpFR	6	n/a	1	GULL	671	n/a	n/a	1	n/a	n/a	n/a	n/a	n/a
3590711	FFR_REC_WORD	wordpools/wasnorm_wordpool.txt	LTP133	ltpFR	6	n/a	1	RADISH	1158	n/a	n/a	0	n/a	n/a	n/a	n/a	n/a
3592147	FFR_REC_WORD	wordpools/wasnorm_wordpool.txt	LTP133	ltpFR	6	n/a	1	SPINACH	1352	n/a	n/a	1	n/a	n/a	n/a	n/a	n/a
3607872	FFR_REC_WORD	wordpools/wasnorm_wordpool.txt	LTP133	ltpFR	6	n/a	1	WAVE	1596	n/a	n/a	0	n/a	n/a	n/a	n/a	n/a
3609538	FFR_REC_WORD	wordpools/wasnorm_wordpool.txt	LTP133	ltpFR	6	n/a	-1	TIDE	1465	n/a	n/a	-1	n/a	n/a	n/a	n/a	n/a
3618393	FFR_REC_WORD	wordpools/wasnorm_wordpool.txt	LTP133	ltpFR	6	n/a	0	NECK	939	n/a	n/a	0	n/a	n/a	n/a	n/a	n/a
3619894	FFR_REC_WORD	wordpools/wasnorm_wordpool.txt	LTP133	ltpFR	6	n/a	0	FOREHEAD	592	n/a	n/a	0	n/a	n/a	n/a	n/a	n/a
3621785	FFR_REC_WORD	wordpools/wasnorm_wordpool.txt	LTP133	ltpFR	6	n/a	1	ANKLE	24	n/a	n/a	0	n/a	n/a	n/a	n/a	n/a
3624479	FFR_REC_WORD	wordpools/wasnorm_wordpool.txt	LTP133	ltpFR	6	n/a	1	LIVER	833	n/a	n/a	0	n/a	n/a	n/a	n/a	n/a
3627338	FFR_REC_WORD	wordpools/wasnorm_wordpool.txt	LTP133	ltpFR	6	n/a	-1	REFRIGERATOR	1179	n/a	n/a	-1	n/a	n/a	n/a	n/a	n/a
3629328	FFR_REC_WORD	wordpools/wasnorm_wordpool.txt	LTP133	ltpFR	6	n/a	0	FREEZER	604	n/a	n/a	0	n/a	n/a	n/a	n/a	n/a
3640139	FFR_REC_WORD	wordpools/wasnorm_wordpool.txt	LTP133	ltpFR	6	n/a	-1	PACKAGE	997	n/a	n/a	-1	n/a	n/a	n/a	n/a	n/a
3642937	FFR_REC_WORD	wordpools/wasnorm_wordpool.txt	LTP133	ltpFR	6	n/a	-1	KNAPSACK	783	n/a	n/a	-1	n/a	n/a	n/a	n/a	n/a
3646479	FFR_REC_WORD	wordpools/wasnorm_wordpool.txt	LTP133	ltpFR	6	n/a	-1	RICE	1190	n/a	n/a	-1	n/a	n/a	n/a	n/a	n/a
3647881	FFR_REC_WORD	wordpools/wasnorm_wordpool.txt	LTP133	ltpFR	6	n/a	1	PASTA	1021	n/a	n/a	0	n/a	n/a	n/a	n/a	n/a
3649173	FFR_REC_WORD	wordpools/wasnorm_wordpool.txt	LTP133	ltpFR	6	n/a	1	SPAGHETTI	1346	n/a	n/a	0	n/a	n/a	n/a	n/a	n/a
3654621	FFR_REC_WORD	wordpools/wasnorm_wordpool.txt	LTP133	ltpFR	6	n/a	0	SHORTS	1293	n/a	n/a	0	n/a	n/a	n/a	n/a	n/a
3657200	FFR_REC_WORD	wordpools/wasnorm_wordpool.txt	LTP133	ltpFR	6	n/a	0	BLOUSE	139	n/a	n/a	0	n/a	n/a	n/a	n/a	n/a
3663780	FFR_REC_WORD	wordpools/wasnorm_wordpool.txt	LTP133	ltpFR	6	n/a	1	BARLEY	88	n/a	n/a	0	n/a	n/a	n/a	n/a	n/a
3673373	FFR_REC_WORD	wordpools/wasnorm_wordpool.txt	LTP133	ltpFR	6	n/a	0	SAW	1239	n/a	n/a	0	n/a	n/a	n/a	n/a	n/a
3685565	FFR_REC_WORD	wordpools/wasnorm_wordpool.txt	LTP133	ltpFR	6	n/a	-1	SNAKE	1333	n/a	n/a	-1	n/a	n/a	n/a	n/a	n/a
3687182	FFR_REC_WORD	wordpools/wasnorm_wordpool.txt	LTP133	ltpFR	6	n/a	0	SERPENT	1270	n/a	n/a	0	n/a	n/a	n/a	n/a	n/a
3696086	FFR_REC_WORD	wordpools/wasnorm_wordpool.txt	LTP133	ltpFR	6	n/a	-1	SPACE	1345	n/a	n/a	-1	n/a	n/a	n/a	n/a	n/a
3697713	FFR_REC_WORD	wordpools/wasnorm_wordpool.txt	LTP133	ltpFR	6	n/a	-1	DUST	508	n/a	n/a	-1	n/a	n/a	n/a	n/a	n/a
3699030	FFR_REC_WORD	wordpools/wasnorm_wordpool.txt	LTP133	ltpFR	6	n/a	-1	DIRT	472	n/a	n/a	-1	n/a	n/a	n/a	n/a	n/a
3700527	FFR_REC_WORD	wordpools/wasnorm_wordpool.txt	LTP133	ltpFR	6	n/a	0	MAID	856	n/a	n/a	1	n/a	n/a	n/a	n/a	n/a
3707735	FFR_REC_WORD	wordpools/wasnorm_wordpool.txt	LTP133	ltpFR	6	n/a	1	TICKET	1464	n/a	n/a	0	n/a	n/a	n/a	n/a	n/a
3710638	FFR_REC_WORD	wordpools/wasnorm_wordpool.txt	LTP133	ltpFR	6	n/a	0	FORT	595	n/a	n/a	1	n/a	n/a	n/a	n/a	n/a
3714819	FFR_REC_WORD	wordpools/wasnorm_wordpool.txt	LTP133	ltpFR	6	n/a	1	BEAN	105	n/a	n/a	0	n/a	n/a	n/a	n/a	n/a
3721459	FFR_REC_WORD	wordpools/wasnorm_wordpool.txt	LTP133	ltpFR	6	n/a	1	ROCK	1201	n/a	n/a	0	n/a	n/a	n/a	n/a	n/a
3723155	FFR_REC_WORD	wordpools/wasnorm_wordpool.txt	LTP133	ltpFR	6	n/a	1	VIDEO	1564	n/a	n/a	0	n/a	n/a	n/a	n/a	n/a
3725425	FFR_REC_WORD	wordpools/wasnorm_wordpool.txt	LTP133	ltpFR	6	n/a	1	STONE	1385	n/a	n/a	0	n/a	n/a	n/a	n/a	n/a
3731102	FFR_REC_WORD	wordpools/wasnorm_wordpool.txt	LTP133	ltpFR	6	n/a	1	COMMUNITY	356	n/a	n/a	0	n/a	n/a	n/a	n/a	n/a
3732973	FFR_REC_WORD	wordpools/wasnorm_wordpool.txt	LTP133	ltpFR	6	n/a	1	COUNTY	389	n/a	n/a	0	n/a	n/a	n/a	n/a	n/a
3735248	FFR_REC_WORD	wordpools/wasnorm_wordpool.txt	LTP133	ltpFR	6	n/a	0	DORM	488	n/a	n/a	1	n/a	n/a	n/a	n/a	n/a
3736989	FFR_REC_WORD	wordpools/wasnorm_wordpool.txt	LTP133	ltpFR	6	n/a	-1	CAFE	216	n/a	n/a	-1	n/a	n/a	n/a	n/a	n/a
3738974	FFR_REC_WORD	wordpools/wasnorm_wordpool.txt	LTP133	ltpFR	6	n/a	0	STORE	1387	n/a	n/a	1	n/a	n/a	n/a	n/a	n/a
3754828	FFR_REC_WORD	wordpools/wasnorm_wordpool.txt	LTP133	ltpFR	6	n/a	0	FLUTE	585	n/a	n/a	0	n/a	n/a	n/a	n/a	n/a
3758834	FFR_REC_WORD	wordpools/wasnorm_wordpool.txt	LTP133	ltpFR	6	n/a	1	MEADOW	881	n/a	n/a	0	n/a	n/a	n/a	n/a	n/a
3763259	FFR_REC_WORD	wordpools/wasnorm_wordpool.txt	LTP133	ltpFR	6	n/a	1	WHALE	1601	n/a	n/a	1	n/a	n/a	n/a	n/a	n/a
3777711	FFR_REC_WORD	wordpools/wasnorm_wordpool.txt	LTP133	ltpFR	6	n/a	-1	SKI	1316	n/a	n/a	-1	n/a	n/a	n/a	n/a	n/a
3811759	FFR_REC_WORD	wordpools/wasnorm_wordpool.txt	LTP133	ltpFR	6	n/a	-1	RAKE	1164	n/a	n/a	-1	n/a	n/a	n/a	n/a	n/a
3813654	FFR_REC_WORD	wordpools/wasnorm_wordpool.txt	LTP133	ltpFR	6	n/a	-1	ASTEROID	50	n/a	n/a	-1	n/a	n/a	n/a	n/a	n/a
3823687	FFR_REC_WORD	wordpools/wasnorm_wordpool.txt	LTP133	ltpFR	6	n/a	1	WATERFALL	1595	n/a	n/a	0	n/a	n/a	n/a	n/a	n/a
3834263	FFR_REC_WORD	wordpools/wasnorm_wordpool.txt	LTP133	ltpFR	6	n/a	1	SEED	1266	n/a	n/a	1	n/a	n/a	n/a	n/a	n/a
3929961	REC_START	n/a	LTP133	ltpFR	6	1	n/a	n/a	n/a	n/a	n/a	n/a	n/a	n/a	n/a	n/a	n/a
3930002	RECOG_LURE	n/a	LTP133	ltpFR	6	1	n/a	OUTDOORS	987	0	3	n/a	n/a	n/a	n/a	n/a	n/a
3931789	RECOG_RESP	n/a	LTP133	ltpFR	6	1	n/a	OUTDOORS	987	0	n/a	n/a	n/a	n/a	n/a	n/a	n/a
3932979	RECOG_CONF	n/a	LTP133	ltpFR	6	1	n/a	OUTDOORS	987	n/a	3	n/a	n/a	n/a	n/a	n/a	n/a
3934377	RECOG_TARGET	n/a	LTP133	ltpFR	6	1	0	FLUTE	585	1	5	0	n/a	n/a	n/a	n/a	n/a
3935183	RECOG_RESP	n/a	LTP133	ltpFR	6	1	0	FLUTE	585	1	n/a	0	n/a	n/a	n/a	n/a	n/a
3935988	RECOG_CONF	n/a	LTP133	ltpFR	6	1	0	FLUTE	585	n/a	5	0	n/a	n/a	n/a	n/a	n/a
3937476	RECOG_LURE	n/a	LTP133	ltpFR	6	1	n/a	WHISTLE	1606	0	3	n/a	n/a	n/a	n/a	n/a	n/a
3938696	RECOG_RESP	n/a	LTP133	ltpFR	6	1	n/a	WHISTLE	1606	0	n/a	n/a	n/a	n/a	n/a	n/a	n/a
3939499	RECOG_CONF	n/a	LTP133	ltpFR	6	1	n/a	WHISTLE	1606	n/a	3	n/a	n/a	n/a	n/a	n/a	n/a
3940882	RECOG_TARGET	n/a	LTP133	ltpFR	6	1	-1	SWAMP	1416	1	5	-1	n/a	n/a	n/a	n/a	n/a
3941868	RECOG_RESP	n/a	LTP133	ltpFR	6	1	-1	SWAMP	1416	1	n/a	-1	n/a	n/a	n/a	n/a	n/a
3942639	RECOG_CONF	n/a	LTP133	ltpFR	6	1	-1	SWAMP	1416	n/a	5	-1	n/a	n/a	n/a	n/a	n/a
3944156	RECOG_LURE	n/a	LTP133	ltpFR	6	1	n/a	FACE	547	0	4	n/a	n/a	n/a	n/a	n/a	n/a
3945164	RECOG_RESP	n/a	LTP133	ltpFR	6	1	n/a	FACE	547	0	n/a	n/a	n/a	n/a	n/a	n/a	n/a
3945880	RECOG_CONF	n/a	LTP133	ltpFR	6	1	n/a	FACE	547	n/a	4	n/a	n/a	n/a	n/a	n/a	n/a
3947330	RECOG_LURE	n/a	LTP133	ltpFR	6	1	n/a	BISCUIT	130	0	5	n/a	n/a	n/a	n/a	n/a	n/a
3948261	RECOG_RESP	n/a	LTP133	ltpFR	6	1	n/a	BISCUIT	130	0	n/a	n/a	n/a	n/a	n/a	n/a	n/a
3948911	RECOG_CONF	n/a	LTP133	ltpFR	6	1	n/a	BISCUIT	130	n/a	5	n/a	n/a	n/a	n/a	n/a	n/a
3950396	RECOG_LURE	n/a	LTP133	ltpFR	6	1	n/a	SHACK	1273	0	4	n/a	n/a	n/a	n/a	n/a	n/a
3951391	RECOG_RESP	n/a	LTP133	ltpFR	6	1	n/a	SHACK	1273	0	n/a	n/a	n/a	n/a	n/a	n/a	n/a
3952085	RECOG_CONF	n/a	LTP133	ltpFR	6	1	n/a	SHACK	1273	n/a	4	n/a	n/a	n/a	n/a	n/a	n/a
3953461	RECOG_TARGET	n/a	LTP133	ltpFR	6	1	0	OUTLAW	989	0	2	0	n/a	n/a	n/a	n/a	n/a
3955489	RECOG_RESP	n/a	LTP133	ltpFR	6	1	0	OUTLAW	989	0	n/a	0	n/a	n/a	n/a	n/a	n/a
3956408	RECOG_CONF	n/a	LTP133	ltpFR	6	1	0	OUTLAW	989	n/a	2	0	n/a	n/a	n/a	n/a	n/a
3957742	RECOG_TARGET	n/a	LTP133	ltpFR	6	1	1	ANIMAL	23	1	5	1	n/a	n/a	n/a	n/a	n/a
3958820	RECOG_RESP	n/a	LTP133	ltpFR	6	1	1	ANIMAL	23	1	n/a	1	n/a	n/a	n/a	n/a	n/a
3959608	RECOG_CONF	n/a	LTP133	ltpFR	6	1	1	ANIMAL	23	n/a	5	1	n/a	n/a	n/a	n/a	n/a
3960916	RECOG_LURE	n/a	LTP133	ltpFR	6	1	n/a	NEUTRON	947	0	4	n/a	n/a	n/a	n/a	n/a	n/a
3962022	RECOG_RESP	n/a	LTP133	ltpFR	6	1	n/a	NEUTRON	947	0	n/a	n/a	n/a	n/a	n/a	n/a	n/a
3962802	RECOG_CONF	n/a	LTP133	ltpFR	6	1	n/a	NEUTRON	947	n/a	4	n/a	n/a	n/a	n/a	n/a	n/a
3964116	RECOG_TARGET	n/a	LTP133	ltpFR	6	1	1	CHICKEN	297	1	5	1	n/a	n/a	n/a	n/a	n/a
3964954	RECOG_RESP	n/a	LTP133	ltpFR	6	1	1	CHICKEN	297	1	n/a	1	n/a	n/a	n/a	n/a	n/a
3965695	RECOG_CONF	n/a	LTP133	ltpFR	6	1	1	CHICKEN	297	n/a	5	1	n/a	n/a	n/a	n/a	n/a
3967107	RECOG_LURE	n/a	LTP133	ltpFR	6	1	n/a	ROBBER	1197	0	4	n/a	n/a	n/a	n/a	n/a	n/a
3968266	RECOG_RESP	n/a	LTP133	ltpFR	6	1	n/a	ROBBER	1197	0	n/a	n/a	n/a	n/a	n/a	n/a	n/a
3968940	RECOG_CONF	n/a	LTP133	ltpFR	6	1	n/a	ROBBER	1197	n/a	4	n/a	n/a	n/a	n/a	n/a	n/a
3970489	RECOG_LURE	n/a	LTP133	ltpFR	6	1	n/a	TIGER	1467	0	4	n/a	n/a	n/a	n/a	n/a	n/a
3971367	RECOG_RESP	n/a	LTP133	ltpFR	6	1	n/a	TIGER	1467	0	n/a	n/a	n/a	n/a	n/a	n/a	n/a
3972058	RECOG_CONF	n/a	LTP133	ltpFR	6	1	n/a	TIGER	1467	n/a	4	n/a	n/a	n/a	n/a	n/a	n/a
3973538	RECOG_LURE	n/a	LTP133	ltpFR	6	1	n/a	COURSE	390	0	3	n/a	n/a	n/a	n/a	n/a	n/a
3974928	RECOG_RESP	n/a	LTP133	ltpFR	6	1	n/a	COURSE	390	0	n/a	n/a	n/a	n/a	n/a	n/a	n/a
3975593	RECOG_CONF	n/a	LTP133	ltpFR	6	1	n/a	COURSE	390	n/a	3	n/a	n/a	n/a	n/a	n/a	n/a
3977161	RECOG_TARGET	n/a	LTP133	ltpFR	6	1	0	FREEZER	604	1	5	0	n/a	n/a	n/a	n/a	n/a
3978616	RECOG_RESP	n/a	LTP133	ltpFR	6	1	0	FREEZER	604	1	n/a	0	n/a	n/a	n/a	n/a	n/a
3979393	RECOG_CONF	n/a	LTP133	ltpFR	6	1	0	FREEZER	604	n/a	5	0	n/a	n/a	n/a	n/a	n/a
3980842	RECOG_LURE	n/a	LTP133	ltpFR	6	1	n/a	ESCALATOR	539	0	5	n/a	n/a	n/a	n/a	n/a	n/a
3982071	RECOG_RESP	n/a	LTP133	ltpFR	6	1	n/a	ESCALATOR	539	0	n/a	n/a	n/a	n/a	n/a	n/a	n/a
3982833	RECOG_CONF	n/a	LTP133	ltpFR	6	1	n/a	ESCALATOR	539	n/a	5	n/a	n/a	n/a	n/a	n/a	n/a
3984200	RECOG_LURE	n/a	LTP133	ltpFR	6	1	n/a	CORN	381	0	3	n/a	n/a	n/a	n/a	n/a	n/a
3985524	RECOG_RESP	n/a	LTP133	ltpFR	6	1	n/a	CORN	381	0	n/a	n/a	n/a	n/a	n/a	n/a	n/a
3986213	RECOG_CONF	n/a	LTP133	ltpFR	6	1	n/a	CORN	381	n/a	3	n/a	n/a	n/a	n/a	n/a	n/a
3987674	RECOG_TARGET	n/a	LTP133	ltpFR	6	1	0	FOREHEAD	592	1	5	0	n/a	n/a	n/a	n/a	n/a
3988520	RECOG_RESP	n/a	LTP133	ltpFR	6	1	0	FOREHEAD	592	1	n/a	0	n/a	n/a	n/a	n/a	n/a
3989354	RECOG_CONF	n/a	LTP133	ltpFR	6	1	0	FOREHEAD	592	n/a	5	0	n/a	n/a	n/a	n/a	n/a
3990781	RECOG_TARGET	n/a	LTP133	ltpFR	6	1	1	SURGEON	1413	1	5	1	n/a	n/a	n/a	n/a	n/a
3991727	RECOG_RESP	n/a	LTP133	ltpFR	6	1	1	SURGEON	1413	1	n/a	1	n/a	n/a	n/a	n/a	n/a
3992435	RECOG_CONF	n/a	LTP133	ltpFR	6	1	1	SURGEON	1413	n/a	5	1	n/a	n/a	n/a	n/a	n/a
3993871	RECOG_LURE	n/a	LTP133	ltpFR	6	1	n/a	ORANGE	980	0	4	n/a	n/a	n/a	n/a	n/a	n/a
3994975	RECOG_RESP	n/a	LTP133	ltpFR	6	1	n/a	ORANGE	980	0	n/a	n/a	n/a	n/a	n/a	n/a	n/a
3995602	RECOG_CONF	n/a	LTP133	ltpFR	6	1	n/a	ORANGE	980	n/a	4	n/a	n/a	n/a	n/a	n/a	n/a
4003878	REC_START	n/a	LTP133	ltpFR	6	2	n/a	n/a	n/a	n/a	n/a	n/a	n/a	n/a	n/a	n/a	n/a
4003909	RECOG_LURE	n/a	LTP133	ltpFR	6	2	n/a	ISLAND	745	0	4	n/a	n/a	n/a	n/a	n/a	n/a
4004896	RECOG_RESP	n/a	LTP133	ltpFR	6	2	n/a	ISLAND	745	0	n/a	n/a	n/a	n/a	n/a	n/a	n/a
4005731	RECOG_CONF	n/a	LTP133	ltpFR	6	2	n/a	ISLAND	745	n/a	4	n/a	n/a	n/a	n/a	n/a	n/a
4007117	RECOG_TARGET	n/a	LTP133	ltpFR	6	2	0	PELT	1040	1	5	0	n/a	n/a	n/a	n/a	n/a
4007873	RECOG_RESP	n/a	LTP133	ltpFR	6	2	0	PELT	1040	1	n/a	0	n/a	n/a	n/a	n/a	n/a
4008762	RECOG_CONF	n/a	LTP133	ltpFR	6	2	0	PELT	1040	n/a	5	0	n/a	n/a	n/a	n/a	n/a
4010066	RECOG_LURE	n/a	LTP133	ltpFR	6	2	n/a	SHARK	1275	0	1	n/a	n/a	n/a	n/a	n/a	n/a
4011292	RECOG_RESP	n/a	LTP133	ltpFR	6	2	n/a	SHARK	1275	0	n/a	n/a	n/a	n/a	n/a	n/a	n/a
4013381	RECOG_CONF	n/a	LTP133	ltpFR	6	2	n/a	SHARK	1275	n/a	1	n/a	n/a	n/a	n/a	n/a	n/a
4014706	RECOG_TARGET	n/a	LTP133	ltpFR	6	2	1	PAINT	1003	1	5	0	n/a	n/a	n/a	n/a	n/a
4019135	RECOG_RESP	n/a	LTP133	ltpFR	6	2	1	PAINT	1003	1	n/a	0	n/a	n/a	n/a	n/a	n/a
4020086	RECOG_CONF	n/a	LTP133	ltpFR	6	2	1	PAINT	1003	n/a	5	0	n/a	n/a	n/a	n/a	n/a
4021546	RECOG_LURE	n/a	LTP133	ltpFR	6	2	n/a	DETECTIVE	454	0	3	n/a	n/a	n/a	n/a	n/a	n/a
4023343	RECOG_RESP	n/a	LTP133	ltpFR	6	2	n/a	DETECTIVE	454	0	n/a	n/a	n/a	n/a	n/a	n/a	n/a
4024194	RECOG_CONF	n/a	LTP133	ltpFR	6	2	n/a	DETECTIVE	454	n/a	3	n/a	n/a	n/a	n/a	n/a	n/a
4025569	RECOG_TARGET	n/a	LTP133	ltpFR	6	2	1	SNEAKER	1334	1	5	0	n/a	n/a	n/a	n/a	n/a
4026572	RECOG_RESP	n/a	LTP133	ltpFR	6	2	1	SNEAKER	1334	1	n/a	0	n/a	n/a	n/a	n/a	n/a
4027282	RECOG_CONF	n/a	LTP133	ltpFR	6	2	1	SNEAKER	1334	n/a	5	0	n/a	n/a	n/a	n/a	n/a
4028917	RECOG_TARGET	n/a	LTP133	ltpFR	6	2	1	PURSE	1145	1	5	0	n/a	n/a	n/a	n/a	n/a
4029652	RECOG_RESP	n/a	LTP133	ltpFR	6	2	1	PURSE	1145	1	n/a	0	n/a	n/a	n/a	n/a	n/a
4030572	RECOG_CONF	n/a	LTP133	ltpFR	6	2	1	PURSE	1145	n/a	5	0	n/a	n/a	n/a	n/a	n/a
4031858	RECOG_TARGET	n/a	LTP133	ltpFR	6	2	-1	COYOTE	396	1	5	-1	n/a	n/a	n/a	n/a	n/a
4032603	RECOG_RESP	n/a	LTP133	ltpFR	6	2	-1	COYOTE	396	1	n/a	-1	n/a	n/a	n/a	n/a	n/a
4033436	RECOG_CONF	n/a	LTP133	ltpFR	6	2	-1	COYOTE	396	n/a	5	-1	n/a	n/a	n/a	n/a	n/a
4034798	RECOG_TARGET	n/a	LTP133	ltpFR	6	2	0	WAITRESS	1581	1	5	1	n/a	n/a	n/a	n/a	n/a
4035506	RECOG_RESP	n/a	LTP133	ltpFR	6	2	0	WAITRESS	1581	1	n/a	1	n/a	n/a	n/a	n/a	n/a
4036279	RECOG_CONF	n/a	LTP133	ltpFR	6	2	0	WAITRESS	1581	n/a	5	1	n/a	n/a	n/a	n/a	n/a
4037706	RECOG_TARGET	n/a	LTP133	ltpFR	6	2	1	FLAG	573	1	5	0	n/a	n/a	n/a	n/a	n/a
4038673	RECOG_RESP	n/a	LTP133	ltpFR	6	2	1	FLAG	573	1	n/a	0	n/a	n/a	n/a	n/a	n/a
4039401	RECOG_CONF	n/a	LTP133	ltpFR	6	2	1	FLAG	573	n/a	5	0	n/a	n/a	n/a	n/a	n/a
4040697	RECOG_TARGET	n/a	LTP133	ltpFR	6	2	1	CASH	252	1	5	0	n/a	n/a	n/a	n/a	n/a
4042258	RECOG_RESP	n/a	LTP133	ltpFR	6	2	1	CASH	252	1	n/a	0	n/a	n/a	n/a	n/a	n/a
4042991	RECOG_CONF	n/a	LTP133	ltpFR	6	2	1	CASH	252	n/a	5	0	n/a	n/a	n/a	n/a	n/a
4044321	RECOG_LURE	n/a	LTP133	ltpFR	6	2	n/a	POLITICIAN	1099	0	1	n/a	n/a	n/a	n/a	n/a	n/a
4046103	RECOG_RESP	n/a	LTP133	ltpFR	6	2	n/a	POLITICIAN	1099	0	n/a	n/a	n/a	n/a	n/a	n/a	n/a
4047133	RECOG_CONF	n/a	LTP133	ltpFR	6	2	n/a	POLITICIAN	1099	n/a	1	n/a	n/a	n/a	n/a	n/a	n/a
4048461	RECOG_LURE	n/a	LTP133	ltpFR	6	2	n/a	SPHINX	1349	0	4	n/a	n/a	n/a	n/a	n/a	n/a
4049347	RECOG_RESP	n/a	LTP133	ltpFR	6	2	n/a	SPHINX	1349	0	n/a	n/a	n/a	n/a	n/a	n/a	n/a
4050086	RECOG_CONF	n/a	LTP133	ltpFR	6	2	n/a	SPHINX	1349	n/a	4	n/a	n/a	n/a	n/a	n/a	n/a
4051510	RECOG_TARGET	n/a	LTP133	ltpFR	6	2	1	MAT	877	1	5	0	n/a	n/a	n/a	n/a	n/a
4052465	RECOG_RESP	n/a	LTP133	ltpFR	6	2	1	MAT	877	1	n/a	0	n/a	n/a	n/a	n/a	n/a
4053194	RECOG_CONF	n/a	LTP133	ltpFR	6	2	1	MAT	877	n/a	5	0	n/a	n/a	n/a	n/a	n/a
4054542	RECOG_TARGET	n/a	LTP133	ltpFR	6	2	1	CATCHER	258	1	5	1	n/a	n/a	n/a	n/a	n/a
4055259	RECOG_RESP	n/a	LTP133	ltpFR	6	2	1	CATCHER	258	1	n/a	1	n/a	n/a	n/a	n/a	n/a
4055936	RECOG_CONF	n/a	LTP133	ltpFR	6	2	1	CATCHER	258	n/a	5	1	n/a	n/a	n/a	n/a	n/a
4057283	RECOG_TARGET	n/a	LTP133	ltpFR	6	2	0	POND	1101	0	2	1	n/a	n/a	n/a	n/a	n/a
4058228	RECOG_RESP	n/a	LTP133	ltpFR	6	2	0	POND	1101	0	n/a	1	n/a	n/a	n/a	n/a	n/a
4059105	RECOG_CONF	n/a	LTP133	ltpFR	6	2	0	POND	1101	n/a	2	1	n/a	n/a	n/a	n/a	n/a
4060423	RECOG_LURE	n/a	LTP133	ltpFR	6	2	n/a	CREW	406	0	3	n/a	n/a	n/a	n/a	n/a	n/a
4062387	RECOG_RESP	n/a	LTP133	ltpFR	6	2	n/a	CREW	406	0	n/a	n/a	n/a	n/a	n/a	n/a	n/a
4063220	RECOG_CONF	n/a	LTP133	ltpFR	6	2	n/a	CREW	406	n/a	3	n/a	n/a	n/a	n/a	n/a	n/a
4064597	RECOG_LURE	n/a	LTP133	ltpFR	6	2	n/a	LOAF	835	0	3	n/a	n/a	n/a	n/a	n/a	n/a
4065692	RECOG_RESP	n/a	LTP133	ltpFR	6	2	n/a	LOAF	835	0	n/a	n/a	n/a	n/a	n/a	n/a	n/a
4066465	RECOG_CONF	n/a	LTP133	ltpFR	6	2	n/a	LOAF	835	n/a	3	n/a	n/a	n/a	n/a	n/a	n/a
4067928	RECOG_TARGET	n/a	LTP133	ltpFR	6	2	0	EDITOR	516	0	2	1	n/a	n/a	n/a	n/a	n/a
4069378	RECOG_RESP	n/a	LTP133	ltpFR	6	2	0	EDITOR	516	0	n/a	1	n/a	n/a	n/a	n/a	n/a
4070170	RECOG_CONF	n/a	LTP133	ltpFR	6	2	0	EDITOR	516	n/a	2	1	n/a	n/a	n/a	n/a	n/a
4071544	RECOG_TARGET	n/a	LTP133	ltpFR	6	2	0	SLIME	1327	1	5	0	n/a	n/a	n/a	n/a	n/a
4072442	RECOG_RESP	n/a	LTP133	ltpFR	6	2	0	SLIME	1327	1	n/a	0	n/a	n/a	n/a	n/a	n/a
4073435	RECOG_CONF	n/a	LTP133	ltpFR	6	2	0	SLIME	1327	n/a	5	0	n/a	n/a	n/a	n/a	n/a
4083727	REC_START	n/a	LTP133	ltpFR	6	3	n/a	n/a	n/a	n/a	n/a	n/a	n/a	n/a	n/a	n/a	n/a
4083764	RECOG_TARGET	n/a	LTP133	ltpFR	6	3	1	HOSPITAL	721	1	5	0	n/a	n/a	n/a	n/a	n/a
4084618	RECOG_RESP	n/a	LTP133	ltpFR	6	3	1	HOSPITAL	721	1	n/a	0	n/a	n/a	n/a	n/a	n/a
4085388	RECOG_CONF	n/a	LTP133	ltpFR	6	3	1	HOSPITAL	721	n/a	5	0	n/a	n/a	n/a	n/a	n/a
4086746	RECOG_LURE	n/a	LTP133	ltpFR	6	3	n/a	THREAD	1460	0	2	n/a	n/a	n/a	n/a	n/a	n/a
4088336	RECOG_RESP	n/a	LTP133	ltpFR	6	3	n/a	THREAD	1460	0	n/a	n/a	n/a	n/a	n/a	n/a	n/a
4089275	RECOG_CONF	n/a	LTP133	ltpFR	6	3	n/a	THREAD	1460	n/a	2	n/a	n/a	n/a	n/a	n/a	n/a
4090688	RECOG_LURE	n/a	LTP133	ltpFR	6	3	n/a	MAILBOX	857	0	4	n/a	n/a	n/a	n/a	n/a	n/a
4091519	RECOG_RESP	n/a	LTP133	ltpFR	6	3	n/a	MAILBOX	857	0	n/a	n/a	n/a	n/a	n/a	n/a	n/a
4092223	RECOG_CONF	n/a	LTP133	ltpFR	6	3	n/a	MAILBOX	857	n/a	4	n/a	n/a	n/a	n/a	n/a	n/a
4093553	RECOG_LURE	n/a	LTP133	ltpFR	6	3	n/a	CLAW	319	0	4	n/a	n/a	n/a	n/a	n/a	n/a
4094578	RECOG_RESP	n/a	LTP133	ltpFR	6	3	n/a	CLAW	319	0	n/a	n/a	n/a	n/a	n/a	n/a	n/a
4095270	RECOG_CONF	n/a	LTP133	ltpFR	6	3	n/a	CLAW	319	n/a	4	n/a	n/a	n/a	n/a	n/a	n/a
4096619	RECOG_LURE	n/a	LTP133	ltpFR	6	3	n/a	TENT	1449	0	4	n/a	n/a	n/a	n/a	n/a	n/a
4097486	RECOG_RESP	n/a	LTP133	ltpFR	6	3	n/a	TENT	1449	0	n/a	n/a	n/a	n/a	n/a	n/a	n/a
4098189	RECOG_CONF	n/a	LTP133	ltpFR	6	3	n/a	TENT	1449	n/a	4	n/a	n/a	n/a	n/a	n/a	n/a
4099518	RECOG_TARGET	n/a	LTP133	ltpFR	6	3	0	COLLEGE	346	1	5	1	n/a	n/a	n/a	n/a	n/a
4100306	RECOG_RESP	n/a	LTP133	ltpFR	6	3	0	COLLEGE	346	1	n/a	1	n/a	n/a	n/a	n/a	n/a
4101048	RECOG_CONF	n/a	LTP133	ltpFR	6	3	0	COLLEGE	346	n/a	5	1	n/a	n/a	n/a	n/a	n/a
4102483	RECOG_LURE	n/a	LTP133	ltpFR	6	3	n/a	ALLEY	15	0	4	n/a	n/a	n/a	n/a	n/a	n/a
4103235	RECOG_RESP	n/a	LTP133	ltpFR	6	3	n/a	ALLEY	15	0	n/a	n/a	n/a	n/a	n/a	n/a	n/a
4103886	RECOG_CONF	n/a	LTP133	ltpFR	6	3	n/a	ALLEY	15	n/a	4	n/a	n/a	n/a	n/a	n/a	n/a
4105357	RECOG_TARGET	n/a	LTP133	ltpFR	6	3	1	SUBWAY	1400	1	5	0	n/a	n/a	n/a	n/a	n/a
4106059	RECOG_RESP	n/a	LTP133	ltpFR	6	3	1	SUBWAY	1400	1	n/a	0	n/a	n/a	n/a	n/a	n/a
4106839	RECOG_CONF	n/a	LTP133	ltpFR	6	3	1	SUBWAY	1400	n/a	5	0	n/a	n/a	n/a	n/a	n/a
4108156	RECOG_LURE	n/a	LTP133	ltpFR	6	3	n/a	BASKETBALL	96	0	3	n/a	n/a	n/a	n/a	n/a	n/a
4109401	RECOG_RESP	n/a	LTP133	ltpFR	6	3	n/a	BASKETBALL	96	0	n/a	n/a	n/a	n/a	n/a	n/a	n/a
4110102	RECOG_CONF	n/a	LTP133	ltpFR	6	3	n/a	BASKETBALL	96	n/a	3	n/a	n/a	n/a	n/a	n/a	n/a
4111605	RECOG_TARGET	n/a	LTP133	ltpFR	6	3	1	LIVER	833	1	5	0	n/a	n/a	n/a	n/a	n/a
4112373	RECOG_RESP	n/a	LTP133	ltpFR	6	3	1	LIVER	833	1	n/a	0	n/a	n/a	n/a	n/a	n/a
4113225	RECOG_CONF	n/a	LTP133	ltpFR	6	3	1	LIVER	833	n/a	5	0	n/a	n/a	n/a	n/a	n/a
4114462	RECOG_TARGET	n/a	LTP133	ltpFR	6	3	1	TWIN	1528	1	5	1	n/a	n/a	n/a	n/a	n/a
4115209	RECOG_RESP	n/a	LTP133	ltpFR	6	3	1	TWIN	1528	1	n/a	1	n/a	n/a	n/a	n/a	n/a
4116008	RECOG_CONF	n/a	LTP133	ltpFR	6	3	1	TWIN	1528	n/a	5	1	n/a	n/a	n/a	n/a	n/a
4117270	RECOG_TARGET	n/a	LTP133	ltpFR	6	3	1	CANYON	235	1	5	0	n/a	n/a	n/a	n/a	n/a
4117974	RECOG_RESP	n/a	LTP133	ltpFR	6	3	1	CANYON	235	1	n/a	0	n/a	n/a	n/a	n/a	n/a
4118734	RECOG_CONF	n/a	LTP133	ltpFR	6	3	1	CANYON	235	n/a	5	0	n/a	n/a	n/a	n/a	n/a
4120177	RECOG_TARGET	n/a	LTP133	ltpFR	6	3	0	SCHOOL	1248	1	5	1	n/a	n/a	n/a	n/a	n/a
4120922	RECOG_RESP	n/a	LTP133	ltpFR	6	3	0	SCHOOL	1248	1	n/a	1	n/a	n/a	n/a	n/a	n/a
4121706	RECOG_CONF	n/a	LTP133	ltpFR	6	3	0	SCHOOL	1248	n/a	5	1	n/a	n/a	n/a	n/a	n/a
4123076	RECOG_LURE	n/a	LTP133	ltpFR	6	3	n/a	TRIBE	1505	0	3	n/a	n/a	n/a	n/a	n/a	n/a
4124039	RECOG_RESP	n/a	LTP133	ltpFR	6	3	n/a	TRIBE	1505	0	n/a	n/a	n/a	n/a	n/a	n/a	n/a
4124702	RECOG_CONF	n/a	LTP133	ltpFR	6	3	n/a	TRIBE	1505	n/a	3	n/a	n/a	n/a	n/a	n/a	n/a
4126150	RECOG_TARGET	n/a	LTP133	ltpFR	6	3	0	BROCCOLI	176	0	3	0	n/a	n/a	n/a	n/a	n/a
4127485	RECOG_RESP	n/a	LTP133	ltpFR	6	3	0	BROCCOLI	176	0	n/a	0	n/a	n/a	n/a	n/a	n/a
4128201	RECOG_CONF	n/a	LTP133	ltpFR	6	3	0	BROCCOLI	176	n/a	3	0	n/a	n/a	n/a	n/a	n/a
4129674	RECOG_LURE	n/a	LTP133	ltpFR	6	3	n/a	PAGE	1001	0	2	n/a	n/a	n/a	n/a	n/a	n/a
4131431	RECOG_RESP	n/a	LTP133	ltpFR	6	3	n/a	PAGE	1001	0	n/a	n/a	n/a	n/a	n/a	n/a	n/a
4132204	RECOG_CONF	n/a	LTP133	ltpFR	6	3	n/a	PAGE	1001	n/a	2	n/a	n/a	n/a	n/a	n/a	n/a
4133606	RECOG_TARGET	n/a	LTP133	ltpFR	6	3	1	CASTLE	256	1	3	0	n/a	n/a	n/a	n/a	n/a
4134424	RECOG_RESP	n/a	LTP133	ltpFR	6	3	1	CASTLE	256	1	n/a	0	n/a	n/a	n/a	n/a	n/a
4135164	RECOG_CONF	n/a	LTP133	ltpFR	6	3	1	CASTLE	256	n/a	3	0	n/a	n/a	n/a	n/a	n/a
4136538	RECOG_TARGET	n/a	LTP133	ltpFR	6	3	-1	WINGS	1614	1	5	-1	n/a	n/a	n/a	n/a	n/a
4137561	RECOG_RESP	n/a	LTP133	ltpFR	6	3	-1	WINGS	1614	1	n/a	-1	n/a	n/a	n/a	n/a	n/a
4138275	RECOG_CONF	n/a	LTP133	ltpFR	6	3	-1	WINGS	1614	n/a	5	-1	n/a	n/a	n/a	n/a	n/a
4139579	RECOG_TARGET	n/a	LTP133	ltpFR	6	3	0	SKULL	1320	1	5	0	n/a	n/a	n/a	n/a	n/a
4140460	RECOG_RESP	n/a	LTP133	ltpFR	6	3	0	SKULL	1320	1	n/a	0	n/a	n/a	n/a	n/a	n/a
4141132	RECOG_CONF	n/a	LTP133	ltpFR	6	3	0	SKULL	1320	n/a	5	0	n/a	n/a	n/a	n/a	n/a
4142494	RECOG_TARGET	n/a	LTP133	ltpFR	6	3	1	CANARY	227	1	5	1	n/a	n/a	n/a	n/a	n/a
4143236	RECOG_RESP	n/a	LTP133	ltpFR	6	3	1	CANARY	227	1	n/a	1	n/a	n/a	n/a	n/a	n/a
4144075	RECOG_CONF	n/a	LTP133	ltpFR	6	3	1	CANARY	227	n/a	5	1	n/a	n/a	n/a	n/a	n/a
4224511	REC_START	n/a	LTP133	ltpFR	6	4	n/a	n/a	n/a	n/a	n/a	n/a	n/a	n/a	n/a	n/a	n/a
4224548	RECOG_TARGET	n/a	LTP133	ltpFR	6	4	-1	UTENSIL	1542	1	4	-1	n/a	n/a	n/a	n/a	n/a
4225707	RECOG_RESP	n/a	LTP133	ltpFR	6	4	-1	UTENSIL	1542	1	n/a	-1	n/a	n/a	n/a	n/a	n/a
4226347	RECOG_CONF	n/a	LTP133	ltpFR	6	4	-1	UTENSIL	1542	n/a	4	-1	n/a	n/a	n/a	n/a	n/a
4227846	RECOG_TARGET	n/a	LTP133	ltpFR	6	4	0	JACKET	747	1	5	0	n/a	n/a	n/a	n/a	n/a
4228538	RECOG_RESP	n/a	LTP133	ltpFR	6	4	0	JACKET	747	1	n/a	0	n/a	n/a	n/a	n/a	n/a
4229166	RECOG_CONF	n/a	LTP133	ltpFR	6	4	0	JACKET	747	n/a	5	0	n/a	n/a	n/a	n/a	n/a
4230579	RECOG_TARGET	n/a	LTP133	ltpFR	6	4	1	REPTILE	1185	1	5	1	n/a	n/a	n/a	n/a	n/a
4231235	RECOG_RESP	n/a	LTP133	ltpFR	6	4	1	REPTILE	1185	1	n/a	1	n/a	n/a	n/a	n/a	n/a
4231929	RECOG_CONF	n/a	LTP133	ltpFR	6	4	1	REPTILE	1185	n/a	5	1	n/a	n/a	n/a	n/a	n/a
4233337	RECOG_TARGET	n/a	LTP133	ltpFR	6	4	-1	SKETCH	1315	1	5	-1	n/a	n/a	n/a	n/a	n/a
4233949	RECOG_RESP	n/a	LTP133	ltpFR	6	4	-1	SKETCH	1315	1	n/a	-1	n/a	n/a	n/a	n/a	n/a
4234554	RECOG_CONF	n/a	LTP133	ltpFR	6	4	-1	SKETCH	1315	n/a	5	-1	n/a	n/a	n/a	n/a	n/a
4235868	RECOG_TARGET	n/a	LTP133	ltpFR	6	4	0	PLAZA	1088	1	5	1	n/a	n/a	n/a	n/a	n/a
4236551	RECOG_RESP	n/a	LTP133	ltpFR	6	4	0	PLAZA	1088	1	n/a	1	n/a	n/a	n/a	n/a	n/a
4237347	RECOG_CONF	n/a	LTP133	ltpFR	6	4	0	PLAZA	1088	n/a	5	1	n/a	n/a	n/a	n/a	n/a
4238535	RECOG_LURE	n/a	LTP133	ltpFR	6	4	n/a	TEAM	1441	0	4	n/a	n/a	n/a	n/a	n/a	n/a
4239272	RECOG_RESP	n/a	LTP133	ltpFR	6	4	n/a	TEAM	1441	0	n/a	n/a	n/a	n/a	n/a	n/a	n/a
4239837	RECOG_CONF	n/a	LTP133	ltpFR	6	4	n/a	TEAM	1441	n/a	4	n/a	n/a	n/a	n/a	n/a	n/a
4241234	RECOG_TARGET	n/a	LTP133	ltpFR	6	4	0	PUMPKIN	1142	1	5	0	n/a	n/a	n/a	n/a	n/a
4241895	RECOG_RESP	n/a	LTP133	ltpFR	6	4	0	PUMPKIN	1142	1	n/a	0	n/a	n/a	n/a	n/a	n/a
4242704	RECOG_CONF	n/a	LTP133	ltpFR	6	4	0	PUMPKIN	1142	n/a	5	0	n/a	n/a	n/a	n/a	n/a
4243974	RECOG_TARGET	n/a	LTP133	ltpFR	6	4	0	SPIDER	1351	1	5	0	n/a	n/a	n/a	n/a	n/a
4244655	RECOG_RESP	n/a	LTP133	ltpFR	6	4	0	SPIDER	1351	1	n/a	0	n/a	n/a	n/a	n/a	n/a
4245342	RECOG_CONF	n/a	LTP133	ltpFR	6	4	0	SPIDER	1351	n/a	5	0	n/a	n/a	n/a	n/a	n/a
4246699	RECOG_TARGET	n/a	LTP133	ltpFR	6	4	0	HIGHWAY	707	1	5	1	n/a	n/a	n/a	n/a	n/a
4247384	RECOG_RESP	n/a	LTP133	ltpFR	6	4	0	HIGHWAY	707	1	n/a	1	n/a	n/a	n/a	n/a	n/a
4248053	RECOG_CONF	n/a	LTP133	ltpFR	6	4	0	HIGHWAY	707	n/a	5	1	n/a	n/a	n/a	n/a	n/a
4249398	RECOG_TARGET	n/a	LTP133	ltpFR	6	4	-1	PARTNER	1017	1	5	-1	n/a	n/a	n/a	n/a	n/a
4250030	RECOG_RESP	n/a	LTP133	ltpFR	6	4	-1	PARTNER	1017	1	n/a	-1	n/a	n/a	n/a	n/a	n/a
4250796	RECOG_CONF	n/a	LTP133	ltpFR	6	4	-1	PARTNER	1017	n/a	5	-1	n/a	n/a	n/a	n/a	n/a
4251987	RECOG_TARGET	n/a	LTP133	ltpFR	6	4	1	PASTA	1021	1	5	0	n/a	n/a	n/a	n/a	n/a
4252535	RECOG_RESP	n/a	LTP133	ltpFR	6	4	1	PASTA	1021	1	n/a	0	n/a	n/a	n/a	n/a	n/a
4253270	RECOG_CONF	n/a	LTP133	ltpFR	6	4	1	PASTA	1021	n/a	5	0	n/a	n/a	n/a	n/a	n/a
4254462	RECOG_TARGET	n/a	LTP133	ltpFR	6	4	0	STUMP	1396	1	5	0	n/a	n/a	n/a	n/a	n/a
4255035	RECOG_RESP	n/a	LTP133	ltpFR	6	4	0	STUMP	1396	1	n/a	0	n/a	n/a	n/a	n/a	n/a
4255671	RECOG_CONF	n/a	LTP133	ltpFR	6	4	0	STUMP	1396	n/a	5	0	n/a	n/a	n/a	n/a	n/a
4256952	RECOG_LURE	n/a	LTP133	ltpFR	6	4	n/a	POSTAGE	1113	0	4	n/a	n/a	n/a	n/a	n/a	n/a
4257729	RECOG_RESP	n/a	LTP133	ltpFR	6	4	n/a	POSTAGE	1113	0	n/a	n/a	n/a	n/a	n/a	n/a	n/a
4258429	RECOG_CONF	n/a	LTP133	ltpFR	6	4	n/a	POSTAGE	1113	n/a	4	n/a	n/a	n/a	n/a	n/a	n/a
4259785	RECOG_LURE	n/a	LTP133	ltpFR	6	4	n/a	BOOT	150	0	4	n/a	n/a	n/a	n/a	n/a	n/a
4260592	RECOG_RESP	n/a	LTP133	ltpFR	6	4	n/a	BOOT	150	0	n/a	n/a	n/a	n/a	n/a	n/a	n/a
4261392	RECOG_CONF	n/a	LTP133	ltpFR	6	4	n/a	BOOT	150	n/a	4	n/a	n/a	n/a	n/a	n/a	n/a
4262551	RECOG_TARGET	n/a	LTP133	ltpFR	6	4	-1	CHERRY	293	1	5	-1	n/a	n/a	n/a	n/a	n/a
4263237	RECOG_RESP	n/a	LTP133	ltpFR	6	4	-1	CHERRY	293	1	n/a	-1	n/a	n/a	n/a	n/a	n/a
4263986	RECOG_CONF	n/a	LTP133	ltpFR	6	4	-1	CHERRY	293	n/a	5	-1	n/a	n/a	n/a	n/a	n/a
4265250	RECOG_LURE	n/a	LTP133	ltpFR	6	4	n/a	MICROSCOPE	891	0	4	n/a	n/a	n/a	n/a	n/a	n/a
4266159	RECOG_RESP	n/a	LTP133	ltpFR	6	4	n/a	MICROSCOPE	891	0	n/a	n/a	n/a	n/a	n/a	n/a	n/a
4266929	RECOG_CONF	n/a	LTP133	ltpFR	6	4	n/a	MICROSCOPE	891	n/a	4	n/a	n/a	n/a	n/a	n/a	n/a
4268191	RECOG_TARGET	n/a	LTP133	ltpFR	6	4	0	FORT	595	1	5	1	n/a	n/a	n/a	n/a	n/a
4268977	RECOG_RESP	n/a	LTP133	ltpFR	6	4	0	FORT	595	1	n/a	1	n/a	n/a	n/a	n/a	n/a
4270015	RECOG_CONF	n/a	LTP133	ltpFR	6	4	0	FORT	595	n/a	5	1	n/a	n/a	n/a	n/a	n/a
4271398	RECOG_LURE	n/a	LTP133	ltpFR	6	4	n/a	BANJO	82	0	5	n/a	n/a	n/a	n/a	n/a	n/a
4272317	RECOG_RESP	n/a	LTP133	ltpFR	6	4	n/a	BANJO	82	0	n/a	n/a	n/a	n/a	n/a	n/a	n/a
4273071	RECOG_CONF	n/a	LTP133	ltpFR	6	4	n/a	BANJO	82	n/a	5	n/a	n/a	n/a	n/a	n/a	n/a
4274422	RECOG_LURE	n/a	LTP133	ltpFR	6	4	n/a	MAGNET	855	0	4	n/a	n/a	n/a	n/a	n/a	n/a
4275284	RECOG_RESP	n/a	LTP133	ltpFR	6	4	n/a	MAGNET	855	0	n/a	n/a	n/a	n/a	n/a	n/a	n/a
4275970	RECOG_CONF	n/a	LTP133	ltpFR	6	4	n/a	MAGNET	855	n/a	4	n/a	n/a	n/a	n/a	n/a	n/a
4277304	RECOG_LURE	n/a	LTP133	ltpFR	6	4	n/a	TOAST	1471	0	4	n/a	n/a	n/a	n/a	n/a	n/a
4278104	RECOG_RESP	n/a	LTP133	ltpFR	6	4	n/a	TOAST	1471	0	n/a	n/a	n/a	n/a	n/a	n/a	n/a
4278771	RECOG_CONF	n/a	LTP133	ltpFR	6	4	n/a	TOAST	1471	n/a	4	n/a	n/a	n/a	n/a	n/a	n/a
4286762	REC_START	n/a	LTP133	ltpFR	6	5	n/a	n/a	n/a	n/a	n/a	n/a	n/a	n/a	n/a	n/a	n/a
4286800	RECOG_TARGET	n/a	LTP133	ltpFR	6	5	1	SCENERY	1247	1	5	1	n/a	n/a	n/a	n/a	n/a
4287541	RECOG_RESP	n/a	LTP133	ltpFR	6	5	1	SCENERY	1247	1	n/a	1	n/a	n/a	n/a	n/a	n/a
4288236	RECOG_CONF	n/a	LTP133	ltpFR	6	5	1	SCENERY	1247	n/a	5	1	n/a	n/a	n/a	n/a	n/a
4289558	RECOG_TARGET	n/a	LTP133	ltpFR	6	5	-1	JEANS	752	1	5	-1	n/a	n/a	n/a	n/a	n/a
4290181	RECOG_RESP	n/a	LTP133	ltpFR	6	5	-1	JEANS	752	1	n/a	-1	n/a	n/a	n/a	n/a	n/a
4290822	RECOG_CONF	n/a	LTP133	ltpFR	6	5	-1	JEANS	752	n/a	5	-1	n/a	n/a	n/a	n/a	n/a
4292099	RECOG_LURE	n/a	LTP133	ltpFR	6	5	n/a	CEILING	265	0	4	n/a	n/a	n/a	n/a	n/a	n/a
4292850	RECOG_RESP	n/a	LTP133	ltpFR	6	5	n/a	CEILING	265	0	n/a	n/a	n/a	n/a	n/a	n/a	n/a
4293482	RECOG_CONF	n/a	LTP133	ltpFR	6	5	n/a	CEILING	265	n/a	4	n/a	n/a	n/a	n/a	n/a	n/a
4294789	RECOG_LURE	n/a	LTP133	ltpFR	6	5	n/a	ASPIRIN	47	0	5	n/a	n/a	n/a	n/a	n/a	n/a
4295573	RECOG_RESP	n/a	LTP133	ltpFR	6	5	n/a	ASPIRIN	47	0	n/a	n/a	n/a	n/a	n/a	n/a	n/a
4296187	RECOG_CONF	n/a	LTP133	ltpFR	6	5	n/a	ASPIRIN	47	n/a	5	n/a	n/a	n/a	n/a	n/a	n/a
4297547	RECOG_TARGET	n/a	LTP133	ltpFR	6	5	0	MERMAID	887	1	5	1	n/a	n/a	n/a	n/a	n/a
4298202	RECOG_RESP	n/a	LTP133	ltpFR	6	5	0	MERMAID	887	1	n/a	1	n/a	n/a	n/a	n/a	n/a
4298894	RECOG_CONF	n/a	LTP133	ltpFR	6	5	0	MERMAID	887	n/a	5	1	n/a	n/a	n/a	n/a	n/a
4300213	RECOG_TARGET	n/a	LTP133	ltpFR	6	5	-1	KNAPSACK	783	1	5	-1	n/a	n/a	n/a	n/a	n/a
4300811	RECOG_RESP	n/a	LTP133	ltpFR	6	5	-1	KNAPSACK	783	1	n/a	-1	n/a	n/a	n/a	n/a	n/a
4301653	RECOG_CONF	n/a	LTP133	ltpFR	6	5	-1	KNAPSACK	783	n/a	5	-1	n/a	n/a	n/a	n/a	n/a
4302961	RECOG_LURE	n/a	LTP133	ltpFR	6	5	n/a	DISH	474	0	1	n/a	n/a	n/a	n/a	n/a	n/a
4304511	RECOG_RESP	n/a	LTP133	ltpFR	6	5	n/a	DISH	474	0	n/a	n/a	n/a	n/a	n/a	n/a	n/a
4305356	RECOG_CONF	n/a	LTP133	ltpFR	6	5	n/a	DISH	474	n/a	1	n/a	n/a	n/a	n/a	n/a	n/a
4306735	RECOG_TARGET	n/a	LTP133	ltpFR	6	5	0	SHORTS	1293	1	5	0	n/a	n/a	n/a	n/a	n/a
4307332	RECOG_RESP	n/a	LTP133	ltpFR	6	5	0	SHORTS	1293	1	n/a	0	n/a	n/a	n/a	n/a	n/a
4308115	RECOG_CONF	n/a	LTP133	ltpFR	6	5	0	SHORTS	1293	n/a	5	0	n/a	n/a	n/a	n/a	n/a
4309426	RECOG_TARGET	n/a	LTP133	ltpFR	6	5	-1	SKI	1316	1	5	-1	n/a	n/a	n/a	n/a	n/a
4310146	RECOG_RESP	n/a	LTP133	ltpFR	6	5	-1	SKI	1316	1	n/a	-1	n/a	n/a	n/a	n/a	n/a
4310955	RECOG_CONF	n/a	LTP133	ltpFR	6	5	-1	SKI	1316	n/a	5	-1	n/a	n/a	n/a	n/a	n/a
4312292	RECOG_TARGET	n/a	LTP133	ltpFR	6	5	-1	COMMITTEE	355	1	5	-1	n/a	n/a	n/a	n/a	n/a
4312879	RECOG_RESP	n/a	LTP133	ltpFR	6	5	-1	COMMITTEE	355	1	n/a	-1	n/a	n/a	n/a	n/a	n/a
4313674	RECOG_CONF	n/a	LTP133	ltpFR	6	5	-1	COMMITTEE	355	n/a	5	-1	n/a	n/a	n/a	n/a	n/a
4314965	RECOG_TARGET	n/a	LTP133	ltpFR	6	5	0	KITCHEN	778	1	4	1	n/a	n/a	n/a	n/a	n/a
4315981	RECOG_RESP	n/a	LTP133	ltpFR	6	5	0	KITCHEN	778	1	n/a	1	n/a	n/a	n/a	n/a	n/a
4317108	RECOG_CONF	n/a	LTP133	ltpFR	6	5	0	KITCHEN	778	n/a	4	1	n/a	n/a	n/a	n/a	n/a
4318356	RECOG_TARGET	n/a	LTP133	ltpFR	6	5	-1	DRIVEWAY	500	1	5	-1	n/a	n/a	n/a	n/a	n/a
4319325	RECOG_RESP	n/a	LTP133	ltpFR	6	5	-1	DRIVEWAY	500	1	n/a	-1	n/a	n/a	n/a	n/a	n/a
4320161	RECOG_CONF	n/a	LTP133	ltpFR	6	5	-1	DRIVEWAY	500	n/a	5	-1	n/a	n/a	n/a	n/a	n/a
4321414	RECOG_TARGET	n/a	LTP133	ltpFR	6	5	1	LIMB	822	1	5	0	n/a	n/a	n/a	n/a	n/a
4322120	RECOG_RESP	n/a	LTP133	ltpFR	6	5	1	LIMB	822	1	n/a	0	n/a	n/a	n/a	n/a	n/a
4322968	RECOG_CONF	n/a	LTP133	ltpFR	6	5	1	LIMB	822	n/a	5	0	n/a	n/a	n/a	n/a	n/a
4324363	RECOG_TARGET	n/a	LTP133	ltpFR	6	5	1	PEAR	1033	1	5	1	n/a	n/a	n/a	n/a	n/a
4325038	RECOG_RESP	n/a	LTP133	ltpFR	6	5	1	PEAR	1033	1	n/a	1	n/a	n/a	n/a	n/a	n/a
4325777	RECOG_CONF	n/a	LTP133	ltpFR	6	5	1	PEAR	1033	n/a	5	1	n/a	n/a	n/a	n/a	n/a
4327220	RECOG_TARGET	n/a	LTP133	ltpFR	6	5	1	SPINACH	1352	1	5	1	n/a	n/a	n/a	n/a	n/a
4327882	RECOG_RESP	n/a	LTP133	ltpFR	6	5	1	SPINACH	1352	1	n/a	1	n/a	n/a	n/a	n/a	n/a
4328691	RECOG_CONF	n/a	LTP133	ltpFR	6	5	1	SPINACH	1352	n/a	5	1	n/a	n/a	n/a	n/a	n/a
4330061	RECOG_TARGET	n/a	LTP133	ltpFR	6	5	1	REEF	1177	1	5	1	n/a	n/a	n/a	n/a	n/a
4330903	RECOG_RESP	n/a	LTP133	ltpFR	6	5	1	REEF	1177	1	n/a	1	n/a	n/a	n/a	n/a	n/a
4331719	RECOG_CONF	n/a	LTP133	ltpFR	6	5	1	REEF	1177	n/a	5	1	n/a	n/a	n/a	n/a	n/a
4333017	RECOG_TARGET	n/a	LTP133	ltpFR	6	5	1	PLATE	1086	0	2	0	n/a	n/a	n/a	n/a	n/a
4334636	RECOG_RESP	n/a	LTP133	ltpFR	6	5	1	PLATE	1086	0	n/a	0	n/a	n/a	n/a	n/a	n/a
4335455	RECOG_CONF	n/a	LTP133	ltpFR	6	5	1	PLATE	1086	n/a	2	0	n/a	n/a	n/a	n/a	n/a
4336791	RECOG_TARGET	n/a	LTP133	ltpFR	6	5	-1	HEADBAND	696	1	5	-1	n/a	n/a	n/a	n/a	n/a
4337869	RECOG_RESP	n/a	LTP133	ltpFR	6	5	-1	HEADBAND	696	1	n/a	-1	n/a	n/a	n/a	n/a	n/a
4338679	RECOG_CONF	n/a	LTP133	ltpFR	6	5	-1	HEADBAND	696	n/a	5	-1	n/a	n/a	n/a	n/a	n/a
4339989	RECOG_TARGET	n/a	LTP133	ltpFR	6	5	1	MEADOW	881	1	5	0	n/a	n/a	n/a	n/a	n/a
4340619	RECOG_RESP	n/a	LTP133	ltpFR	6	5	1	MEADOW	881	1	n/a	0	n/a	n/a	n/a	n/a	n/a
4341369	RECOG_CONF	n/a	LTP133	ltpFR	6	5	1	MEADOW	881	n/a	5	0	n/a	n/a	n/a	n/a	n/a
4342805	RECOG_TARGET	n/a	LTP133	ltpFR	6	5	1	PLASTER	1085	1	5	0	n/a	n/a	n/a	n/a	n/a
4343488	RECOG_RESP	n/a	LTP133	ltpFR	6	5	1	PLASTER	1085	1	n/a	0	n/a	n/a	n/a	n/a	n/a
4344247	RECOG_CONF	n/a	LTP133	ltpFR	6	5	1	PLASTER	1085	n/a	5	0	n/a	n/a	n/a	n/a	n/a
4459037	REC_START	n/a	LTP133	ltpFR	6	6	n/a	n/a	n/a	n/a	n/a	n/a	n/a	n/a	n/a	n/a	n/a
4459073	RECOG_LURE	n/a	LTP133	ltpFR	6	6	n/a	BRAIN	165	0	4	n/a	n/a	n/a	n/a	n/a	n/a
4459979	RECOG_RESP	n/a	LTP133	ltpFR	6	6	n/a	BRAIN	165	0	n/a	n/a	n/a	n/a	n/a	n/a	n/a
4460657	RECOG_CONF	n/a	LTP133	ltpFR	6	6	n/a	BRAIN	165	n/a	4	n/a	n/a	n/a	n/a	n/a	n/a
4462105	RECOG_TARGET	n/a	LTP133	ltpFR	6	6	0	FIDDLE	561	1	4	0	n/a	n/a	n/a	n/a	n/a
4463027	RECOG_RESP	n/a	LTP133	ltpFR	6	6	0	FIDDLE	561	1	n/a	0	n/a	n/a	n/a	n/a	n/a
4463881	RECOG_CONF	n/a	LTP133	ltpFR	6	6	0	FIDDLE	561	n/a	4	0	n/a	n/a	n/a	n/a	n/a
4465212	RECOG_LURE	n/a	LTP133	ltpFR	6	6	n/a	ROSE	1212	0	4	n/a	n/a	n/a	n/a	n/a	n/a
4466182	RECOG_RESP	n/a	LTP133	ltpFR	6	6	n/a	ROSE	1212	0	n/a	n/a	n/a	n/a	n/a	n/a	n/a
4466850	RECOG_CONF	n/a	LTP133	ltpFR	6	6	n/a	ROSE	1212	n/a	4	n/a	n/a	n/a	n/a	n/a	n/a
4468286	RECOG_LURE	n/a	LTP133	ltpFR	6	6	n/a	MOLECULE	905	0	4	n/a	n/a	n/a	n/a	n/a	n/a
4469189	RECOG_RESP	n/a	LTP133	ltpFR	6	6	n/a	MOLECULE	905	0	n/a	n/a	n/a	n/a	n/a	n/a	n/a
4469967	RECOG_CONF	n/a	LTP133	ltpFR	6	6	n/a	MOLECULE	905	n/a	4	n/a	n/a	n/a	n/a	n/a	n/a
4471177	RECOG_LURE	n/a	LTP133	ltpFR	6	6	n/a	PHOTO	1055	0	5	n/a	n/a	n/a	n/a	n/a	n/a
4472169	RECOG_RESP	n/a	LTP133	ltpFR	6	6	n/a	PHOTO	1055	0	n/a	n/a	n/a	n/a	n/a	n/a	n/a
4472825	RECOG_CONF	n/a	LTP133	ltpFR	6	6	n/a	PHOTO	1055	n/a	5	n/a	n/a	n/a	n/a	n/a	n/a
4474251	RECOG_TARGET	n/a	LTP133	ltpFR	6	6	1	VICTIM	1562	1	5	1	n/a	n/a	n/a	n/a	n/a
4475081	RECOG_RESP	n/a	LTP133	ltpFR	6	6	1	VICTIM	1562	1	n/a	1	n/a	n/a	n/a	n/a	n/a
4475814	RECOG_CONF	n/a	LTP133	ltpFR	6	6	1	VICTIM	1562	n/a	5	1	n/a	n/a	n/a	n/a	n/a
4477266	RECOG_LURE	n/a	LTP133	ltpFR	6	6	n/a	DIME	466	0	4	n/a	n/a	n/a	n/a	n/a	n/a
4478154	RECOG_RESP	n/a	LTP133	ltpFR	6	6	n/a	DIME	466	0	n/a	n/a	n/a	n/a	n/a	n/a	n/a
4478840	RECOG_CONF	n/a	LTP133	ltpFR	6	6	n/a	DIME	466	n/a	4	n/a	n/a	n/a	n/a	n/a	n/a
4480249	RECOG_TARGET	n/a	LTP133	ltpFR	6	6	1	BRICK	172	1	5	0	n/a	n/a	n/a	n/a	n/a
4480963	RECOG_RESP	n/a	LTP133	ltpFR	6	6	1	BRICK	172	1	n/a	0	n/a	n/a	n/a	n/a	n/a
4481790	RECOG_CONF	n/a	LTP133	ltpFR	6	6	1	BRICK	172	n/a	5	0	n/a	n/a	n/a	n/a	n/a
4483114	RECOG_TARGET	n/a	LTP133	ltpFR	6	6	-1	CHILD	299	1	5	-1	n/a	n/a	n/a	n/a	n/a
4483792	RECOG_RESP	n/a	LTP133	ltpFR	6	6	-1	CHILD	299	1	n/a	-1	n/a	n/a	n/a	n/a	n/a
4484626	RECOG_CONF	n/a	LTP133	ltpFR	6	6	-1	CHILD	299	n/a	5	-1	n/a	n/a	n/a	n/a	n/a
4485954	RECOG_LURE	n/a	LTP133	ltpFR	6	6	n/a	GROCERY	664	0	3	n/a	n/a	n/a	n/a	n/a	n/a
4487494	RECOG_RESP	n/a	LTP133	ltpFR	6	6	n/a	GROCERY	664	0	n/a	n/a	n/a	n/a	n/a	n/a	n/a
4488184	RECOG_CONF	n/a	LTP133	ltpFR	6	6	n/a	GROCERY	664	n/a	3	n/a	n/a	n/a	n/a	n/a	n/a
4489753	RECOG_TARGET	n/a	LTP133	ltpFR	6	6	-1	DIRT	472	1	5	-1	n/a	n/a	n/a	n/a	n/a
4490453	RECOG_RESP	n/a	LTP133	ltpFR	6	6	-1	DIRT	472	1	n/a	-1	n/a	n/a	n/a	n/a	n/a
4491217	RECOG_CONF	n/a	LTP133	ltpFR	6	6	-1	DIRT	472	n/a	5	-1	n/a	n/a	n/a	n/a	n/a
4492553	RECOG_TARGET	n/a	LTP133	ltpFR	6	6	-1	CAFE	216	1	5	-1	n/a	n/a	n/a	n/a	n/a
4493228	RECOG_RESP	n/a	LTP133	ltpFR	6	6	-1	CAFE	216	1	n/a	-1	n/a	n/a	n/a	n/a	n/a
4493991	RECOG_CONF	n/a	LTP133	ltpFR	6	6	-1	CAFE	216	n/a	5	-1	n/a	n/a	n/a	n/a	n/a
4495360	RECOG_TARGET	n/a	LTP133	ltpFR	6	6	0	BOY	161	1	4	1	n/a	n/a	n/a	n/a	n/a
4496477	RECOG_RESP	n/a	LTP133	ltpFR	6	6	0	BOY	161	1	n/a	1	n/a	n/a	n/a	n/a	n/a
4497299	RECOG_CONF	n/a	LTP133	ltpFR	6	6	0	BOY	161	n/a	4	1	n/a	n/a	n/a	n/a	n/a
4498634	RECOG_TARGET	n/a	LTP133	ltpFR	6	6	-1	PACKAGE	997	1	5	-1	n/a	n/a	n/a	n/a	n/a
4499278	RECOG_RESP	n/a	LTP133	ltpFR	6	6	-1	PACKAGE	997	1	n/a	-1	n/a	n/a	n/a	n/a	n/a
4500069	RECOG_CONF	n/a	LTP133	ltpFR	6	6	-1	PACKAGE	997	n/a	5	-1	n/a	n/a	n/a	n/a	n/a
4501333	RECOG_LURE	n/a	LTP133	ltpFR	6	6	n/a	PICTURE	1061	0	4	n/a	n/a	n/a	n/a	n/a	n/a
4502432	RECOG_RESP	n/a	LTP133	ltpFR	6	6	n/a	PICTURE	1061	0	n/a	n/a	n/a	n/a	n/a	n/a	n/a
4503027	RECOG_CONF	n/a	LTP133	ltpFR	6	6	n/a	PICTURE	1061	n/a	4	n/a	n/a	n/a	n/a	n/a	n/a
4504540	RECOG_LURE	n/a	LTP133	ltpFR	6	6	n/a	CABLE	213	0	3	n/a	n/a	n/a	n/a	n/a	n/a
4505920	RECOG_RESP	n/a	LTP133	ltpFR	6	6	n/a	CABLE	213	0	n/a	n/a	n/a	n/a	n/a	n/a	n/a
4506559	RECOG_CONF	n/a	LTP133	ltpFR	6	6	n/a	CABLE	213	n/a	3	n/a	n/a	n/a	n/a	n/a	n/a
4507955	RECOG_LURE	n/a	LTP133	ltpFR	6	6	n/a	CABBAGE	210	0	2	n/a	n/a	n/a	n/a	n/a	n/a
4509570	RECOG_RESP	n/a	LTP133	ltpFR	6	6	n/a	CABBAGE	210	0	n/a	n/a	n/a	n/a	n/a	n/a	n/a
4510308	RECOG_CONF	n/a	LTP133	ltpFR	6	6	n/a	CABBAGE	210	n/a	2	n/a	n/a	n/a	n/a	n/a	n/a
4511621	RECOG_TARGET	n/a	LTP133	ltpFR	6	6	1	OINTMENT	974	1	5	0	n/a	n/a	n/a	n/a	n/a
4512366	RECOG_RESP	n/a	LTP133	ltpFR	6	6	1	OINTMENT	974	1	n/a	0	n/a	n/a	n/a	n/a	n/a
4513060	RECOG_CONF	n/a	LTP133	ltpFR	6	6	1	OINTMENT	974	n/a	5	0	n/a	n/a	n/a	n/a	n/a
4514495	RECOG_LURE	n/a	LTP133	ltpFR	6	6	n/a	CARD	243	0	3	n/a	n/a	n/a	n/a	n/a	n/a
4515808	RECOG_RESP	n/a	LTP133	ltpFR	6	6	n/a	CARD	243	0	n/a	n/a	n/a	n/a	n/a	n/a	n/a
4516508	RECOG_CONF	n/a	LTP133	ltpFR	6	6	n/a	CARD	243	n/a	3	n/a	n/a	n/a	n/a	n/a	n/a
4517876	RECOG_TARGET	n/a	LTP133	ltpFR	6	6	-1	AUDIENCE	59	1	5	-1	n/a	n/a	n/a	n/a	n/a
4518722	RECOG_RESP	n/a	LTP133	ltpFR	6	6	-1	AUDIENCE	59	1	n/a	-1	n/a	n/a	n/a	n/a	n/a
4519416	RECOG_CONF	n/a	LTP133	ltpFR	6	6	-1	AUDIENCE	59	n/a	5	-1	n/a	n/a	n/a	n/a	n/a
4524700	REC_START	n/a	LTP133	ltpFR	6	7	n/a	n/a	n/a	n/a	n/a	n/a	n/a	n/a	n/a	n/a	n/a
4524740	RECOG_TARGET	n/a	LTP133	ltpFR	6	7	0	CROCODILE	411	1	5	1	n/a	n/a	n/a	n/a	n/a
4525922	RECOG_RESP	n/a	LTP133	ltpFR	6	7	0	CROCODILE	411	1	n/a	1	n/a	n/a	n/a	n/a	n/a
4526615	RECOG_CONF	n/a	LTP133	ltpFR	6	7	0	CROCODILE	411	n/a	5	1	n/a	n/a	n/a	n/a	n/a
4528057	RECOG_TARGET	n/a	LTP133	ltpFR	6	7	0	STORE	1387	1	5	1	n/a	n/a	n/a	n/a	n/a
4528864	RECOG_RESP	n/a	LTP133	ltpFR	6	7	0	STORE	1387	1	n/a	1	n/a	n/a	n/a	n/a	n/a
4529553	RECOG_CONF	n/a	LTP133	ltpFR	6	7	0	STORE	1387	n/a	5	1	n/a	n/a	n/a	n/a	n/a
4530938	RECOG_LURE	n/a	LTP133	ltpFR	6	7	n/a	MAN	862	0	3	n/a	n/a	n/a	n/a	n/a	n/a
4532384	RECOG_RESP	n/a	LTP133	ltpFR	6	7	n/a	MAN	862	0	n/a	n/a	n/a	n/a	n/a	n/a	n/a
4533783	RECOG_CONF	n/a	LTP133	ltpFR	6	7	n/a	MAN	862	n/a	3	n/a	n/a	n/a	n/a	n/a	n/a
4535196	RECOG_LURE	n/a	LTP133	ltpFR	6	7	n/a	ORNAMENT	985	0	2	n/a	n/a	n/a	n/a	n/a	n/a
4536476	RECOG_RESP	n/a	LTP133	ltpFR	6	7	n/a	ORNAMENT	985	0	n/a	n/a	n/a	n/a	n/a	n/a	n/a
4537397	RECOG_CONF	n/a	LTP133	ltpFR	6	7	n/a	ORNAMENT	985	n/a	2	n/a	n/a	n/a	n/a	n/a	n/a
4538777	RECOG_TARGET	n/a	LTP133	ltpFR	6	7	0	GALAXY	617	1	5	1	n/a	n/a	n/a	n/a	n/a
4539455	RECOG_RESP	n/a	LTP133	ltpFR	6	7	0	GALAXY	617	1	n/a	1	n/a	n/a	n/a	n/a	n/a
4540214	RECOG_CONF	n/a	LTP133	ltpFR	6	7	0	GALAXY	617	n/a	5	1	n/a	n/a	n/a	n/a	n/a
4541602	RECOG_LURE	n/a	LTP133	ltpFR	6	7	n/a	KANGAROO	768	0	5	n/a	n/a	n/a	n/a	n/a	n/a
4542573	RECOG_RESP	n/a	LTP133	ltpFR	6	7	n/a	KANGAROO	768	0	n/a	n/a	n/a	n/a	n/a	n/a	n/a
4543362	RECOG_CONF	n/a	LTP133	ltpFR	6	7	n/a	KANGAROO	768	n/a	5	n/a	n/a	n/a	n/a	n/a	n/a
4544617	RECOG_TARGET	n/a	LTP133	ltpFR	6	7	0	BURGLAR	200	1	5	1	n/a	n/a	n/a	n/a	n/a
4545363	RECOG_RESP	n/a	LTP133	ltpFR	6	7	0	BURGLAR	200	1	n/a	1	n/a	n/a	n/a	n/a	n/a
4546141	RECOG_CONF	n/a	LTP133	ltpFR	6	7	0	BURGLAR	200	n/a	5	1	n/a	n/a	n/a	n/a	n/a
4547566	RECOG_TARGET	n/a	LTP133	ltpFR	6	7	1	RAIL	1161	1	5	0	n/a	n/a	n/a	n/a	n/a
4548315	RECOG_RESP	n/a	LTP133	ltpFR	6	7	1	RAIL	1161	1	n/a	0	n/a	n/a	n/a	n/a	n/a
4549168	RECOG_CONF	n/a	LTP133	ltpFR	6	7	1	RAIL	1161	n/a	5	0	n/a	n/a	n/a	n/a	n/a
4550657	RECOG_TARGET	n/a	LTP133	ltpFR	6	7	0	TUXEDO	1525	1	5	1	n/a	n/a	n/a	n/a	n/a
4551459	RECOG_RESP	n/a	LTP133	ltpFR	6	7	0	TUXEDO	1525	1	n/a	1	n/a	n/a	n/a	n/a	n/a
4552332	RECOG_CONF	n/a	LTP133	ltpFR	6	7	0	TUXEDO	1525	n/a	5	1	n/a	n/a	n/a	n/a	n/a
4553673	RECOG_TARGET	n/a	LTP133	ltpFR	6	7	1	MANAGER	863	1	2	1	n/a	n/a	n/a	n/a	n/a
4557425	RECOG_RESP	n/a	LTP133	ltpFR	6	7	1	MANAGER	863	1	n/a	1	n/a	n/a	n/a	n/a	n/a
4558167	RECOG_CONF	n/a	LTP133	ltpFR	6	7	1	MANAGER	863	n/a	2	1	n/a	n/a	n/a	n/a	n/a
4559620	RECOG_LURE	n/a	LTP133	ltpFR	6	7	n/a	ROBOT	1200	0	2	n/a	n/a	n/a	n/a	n/a	n/a
4561113	RECOG_RESP	n/a	LTP133	ltpFR	6	7	n/a	ROBOT	1200	0	n/a	n/a	n/a	n/a	n/a	n/a	n/a
4561916	RECOG_CONF	n/a	LTP133	ltpFR	6	7	n/a	ROBOT	1200	n/a	2	n/a	n/a	n/a	n/a	n/a	n/a
4563302	RECOG_TARGET	n/a	LTP133	ltpFR	6	7	1	WATERFALL	1595	1	5	0	n/a	n/a	n/a	n/a	n/a
4563979	RECOG_RESP	n/a	LTP133	ltpFR	6	7	1	WATERFALL	1595	1	n/a	0	n/a	n/a	n/a	n/a	n/a
4564731	RECOG_CONF	n/a	LTP133	ltpFR	6	7	1	WATERFALL	1595	n/a	5	0	n/a	n/a	n/a	n/a	n/a
4566143	RECOG_TARGET	n/a	LTP133	ltpFR	6	7	0	RECORD	1176	1	5	0	n/a	n/a	n/a	n/a	n/a
4568686	RECOG_RESP	n/a	LTP133	ltpFR	6	7	0	RECORD	1176	1	n/a	0	n/a	n/a	n/a	n/a	n/a
4569407	RECOG_CONF	n/a	LTP133	ltpFR	6	7	0	RECORD	1176	n/a	5	0	n/a	n/a	n/a	n/a	n/a
4570765	RECOG_TARGET	n/a	LTP133	ltpFR	6	7	-1	CUP	424	1	5	-1	n/a	n/a	n/a	n/a	n/a
4571888	RECOG_RESP	n/a	LTP133	ltpFR	6	7	-1	CUP	424	1	n/a	-1	n/a	n/a	n/a	n/a	n/a
4572646	RECOG_CONF	n/a	LTP133	ltpFR	6	7	-1	CUP	424	n/a	5	-1	n/a	n/a	n/a	n/a	n/a
4574023	RECOG_LURE	n/a	LTP133	ltpFR	6	7	n/a	GRATE	657	0	3	n/a	n/a	n/a	n/a	n/a	n/a
4575709	RECOG_RESP	n/a	LTP133	ltpFR	6	7	n/a	GRATE	657	0	n/a	n/a	n/a	n/a	n/a	n/a	n/a
4576395	RECOG_CONF	n/a	LTP133	ltpFR	6	7	n/a	GRATE	657	n/a	3	n/a	n/a	n/a	n/a	n/a	n/a
4577880	RECOG_LURE	n/a	LTP133	ltpFR	6	7	n/a	MOTHER	921	0	4	n/a	n/a	n/a	n/a	n/a	n/a
4578767	RECOG_RESP	n/a	LTP133	ltpFR	6	7	n/a	MOTHER	921	0	n/a	n/a	n/a	n/a	n/a	n/a	n/a
4579410	RECOG_CONF	n/a	LTP133	ltpFR	6	7	n/a	MOTHER	921	n/a	4	n/a	n/a	n/a	n/a	n/a	n/a
4580737	RECOG_TARGET	n/a	LTP133	ltpFR	6	7	0	GLUE	643	1	5	0	n/a	n/a	n/a	n/a	n/a
4581676	RECOG_RESP	n/a	LTP133	ltpFR	6	7	0	GLUE	643	1	n/a	0	n/a	n/a	n/a	n/a	n/a
4582399	RECOG_CONF	n/a	LTP133	ltpFR	6	7	0	GLUE	643	n/a	5	0	n/a	n/a	n/a	n/a	n/a
4583761	RECOG_TARGET	n/a	LTP133	ltpFR	6	7	0	BEVERAGE	123	1	2	0	n/a	n/a	n/a	n/a	n/a
4584590	RECOG_RESP	n/a	LTP133	ltpFR	6	7	0	BEVERAGE	123	1	n/a	0	n/a	n/a	n/a	n/a	n/a
4585559	RECOG_CONF	n/a	LTP133	ltpFR	6	7	0	BEVERAGE	123	n/a	2	0	n/a	n/a	n/a	n/a	n/a
4586876	RECOG_TARGET	n/a	LTP133	ltpFR	6	7	0	ELEPHANT	523	0	3	1	n/a	n/a	n/a	n/a	n/a
4588558	RECOG_RESP	n/a	LTP133	ltpFR	6	7	0	ELEPHANT	523	0	n/a	1	n/a	n/a	n/a	n/a	n/a
4589248	RECOG_CONF	n/a	LTP133	ltpFR	6	7	0	ELEPHANT	523	n/a	3	1	n/a	n/a	n/a	n/a	n/a
4590684	RECOG_TARGET	n/a	LTP133	ltpFR	6	7	-1	REFRIGERATOR	1179	1	5	-1	n/a	n/a	n/a	n/a	n/a
4591675	RECOG_RESP	n/a	LTP133	ltpFR	6	7	-1	REFRIGERATOR	1179	1	n/a	-1	n/a	n/a	n/a	n/a	n/a
4592426	RECOG_CONF	n/a	LTP133	ltpFR	6	7	-1	REFRIGERATOR	1179	n/a	5	-1	n/a	n/a	n/a	n/a	n/a
4660950	REC_START	n/a	LTP133	ltpFR	6	8	n/a	n/a	n/a	n/a	n/a	n/a	n/a	n/a	n/a	n/a	n/a
4660983	RECOG_TARGET	n/a	LTP133	ltpFR	6	8	1	WHALE	1601	1	5	1	n/a	n/a	n/a	n/a	n/a
4661695	RECOG_RESP	n/a	LTP133	ltpFR	6	8	1	WHALE	1601	1	n/a	1	n/a	n/a	n/a	n/a	n/a
4662391	RECOG_CONF	n/a	LTP133	ltpFR	6	8	1	WHALE	1601	n/a	5	1	n/a	n/a	n/a	n/a	n/a
4663816	RECOG_LURE	n/a	LTP133	ltpFR	6	8	n/a	NAIL	936	0	2	n/a	n/a	n/a	n/a	n/a	n/a
4664809	RECOG_RESP	n/a	LTP133	ltpFR	6	8	n/a	NAIL	936	0	n/a	n/a	n/a	n/a	n/a	n/a	n/a
4665540	RECOG_CONF	n/a	LTP133	ltpFR	6	8	n/a	NAIL	936	n/a	2	n/a	n/a	n/a	n/a	n/a	n/a
4666798	RECOG_LURE	n/a	LTP133	ltpFR	6	8	n/a	MONGOOSE	909	0	5	n/a	n/a	n/a	n/a	n/a	n/a
4667697	RECOG_RESP	n/a	LTP133	ltpFR	6	8	n/a	MONGOOSE	909	0	n/a	n/a	n/a	n/a	n/a	n/a	n/a
4668348	RECOG_CONF	n/a	LTP133	ltpFR	6	8	n/a	MONGOOSE	909	n/a	5	n/a	n/a	n/a	n/a	n/a	n/a
4669839	RECOG_LURE	n/a	LTP133	ltpFR	6	8	n/a	TANGERINE	1431	0	4	n/a	n/a	n/a	n/a	n/a	n/a
4671046	RECOG_RESP	n/a	LTP133	ltpFR	6	8	n/a	TANGERINE	1431	0	n/a	n/a	n/a	n/a	n/a	n/a	n/a
4671820	RECOG_CONF	n/a	LTP133	ltpFR	6	8	n/a	TANGERINE	1431	n/a	4	n/a	n/a	n/a	n/a	n/a	n/a
4673280	RECOG_TARGET	n/a	LTP133	ltpFR	6	8	0	QUAIL	1147	1	5	0	n/a	n/a	n/a	n/a	n/a
4673948	RECOG_RESP	n/a	LTP133	ltpFR	6	8	0	QUAIL	1147	1	n/a	0	n/a	n/a	n/a	n/a	n/a
4674660	RECOG_CONF	n/a	LTP133	ltpFR	6	8	0	QUAIL	1147	n/a	5	0	n/a	n/a	n/a	n/a	n/a
4676071	RECOG_TARGET	n/a	LTP133	ltpFR	6	8	1	CHEMICAL	291	1	5	0	n/a	n/a	n/a	n/a	n/a
4676787	RECOG_RESP	n/a	LTP133	ltpFR	6	8	1	CHEMICAL	291	1	n/a	0	n/a	n/a	n/a	n/a	n/a
4677512	RECOG_CONF	n/a	LTP133	ltpFR	6	8	1	CHEMICAL	291	n/a	5	0	n/a	n/a	n/a	n/a	n/a
4678910	RECOG_TARGET	n/a	LTP133	ltpFR	6	8	-1	SNAKE	1333	1	5	-1	n/a	n/a	n/a	n/a	n/a
4679661	RECOG_RESP	n/a	LTP133	ltpFR	6	8	-1	SNAKE	1333	1	n/a	-1	n/a	n/a	n/a	n/a	n/a
4680416	RECOG_CONF	n/a	LTP133	ltpFR	6	8	-1	SNAKE	1333	n/a	5	-1	n/a	n/a	n/a	n/a	n/a
4681793	RECOG_TARGET	n/a	LTP133	ltpFR	6	8	0	HOOP	716	0	3	0	n/a	n/a	n/a	n/a	n/a
4683354	RECOG_RESP	n/a	LTP133	ltpFR	6	8	0	HOOP	716	0	n/a	0	n/a	n/a	n/a	n/a	n/a
4684137	RECOG_CONF	n/a	LTP133	ltpFR	6	8	0	HOOP	716	n/a	3	0	n/a	n/a	n/a	n/a	n/a
4685551	RECOG_LURE	n/a	LTP133	ltpFR	6	8	n/a	TAR	1435	0	4	n/a	n/a	n/a	n/a	n/a	n/a
4686528	RECOG_RESP	n/a	LTP133	ltpFR	6	8	n/a	TAR	1435	0	n/a	n/a	n/a	n/a	n/a	n/a	n/a
4687159	RECOG_CONF	n/a	LTP133	ltpFR	6	8	n/a	TAR	1435	n/a	4	n/a	n/a	n/a	n/a	n/a	n/a
4688624	RECOG_TARGET	n/a	LTP133	ltpFR	6	8	1	MOTEL	919	1	5	0	n/a	n/a	n/a	n/a	n/a
4689294	RECOG_RESP	n/a	LTP133	ltpFR	6	8	1	MOTEL	919	1	n/a	0	n/a	n/a	n/a	n/a	n/a
4690083	RECOG_CONF	n/a	LTP133	ltpFR	6	8	1	MOTEL	919	n/a	5	0	n/a	n/a	n/a	n/a	n/a
4691432	RECOG_TARGET	n/a	LTP133	ltpFR	6	8	1	SCOTCH	1251	1	5	0	n/a	n/a	n/a	n/a	n/a
4692300	RECOG_RESP	n/a	LTP133	ltpFR	6	8	1	SCOTCH	1251	1	n/a	0	n/a	n/a	n/a	n/a	n/a
4693132	RECOG_CONF	n/a	LTP133	ltpFR	6	8	1	SCOTCH	1251	n/a	5	0	n/a	n/a	n/a	n/a	n/a
4694531	RECOG_LURE	n/a	LTP133	ltpFR	6	8	n/a	VAULT	1550	0	4	n/a	n/a	n/a	n/a	n/a	n/a
4695568	RECOG_RESP	n/a	LTP133	ltpFR	6	8	n/a	VAULT	1550	0	n/a	n/a	n/a	n/a	n/a	n/a	n/a
4696349	RECOG_CONF	n/a	LTP133	ltpFR	6	8	n/a	VAULT	1550	n/a	4	n/a	n/a	n/a	n/a	n/a	n/a
4697912	RECOG_LURE	n/a	LTP133	ltpFR	6	8	n/a	FRIES	607	0	4	n/a	n/a	n/a	n/a	n/a	n/a
4700643	RECOG_RESP	n/a	LTP133	ltpFR	6	8	n/a	FRIES	607	0	n/a	n/a	n/a	n/a	n/a	n/a	n/a
4701304	RECOG_CONF	n/a	LTP133	ltpFR	6	8	n/a	FRIES	607	n/a	4	n/a	n/a	n/a	n/a	n/a	n/a
4702768	RECOG_TARGET	n/a	LTP133	ltpFR	6	8	0	DORM	488	1	5	1	n/a	n/a	n/a	n/a	n/a
4703506	RECOG_RESP	n/a	LTP133	ltpFR	6	8	0	DORM	488	1	n/a	1	n/a	n/a	n/a	n/a	n/a
4704273	RECOG_CONF	n/a	LTP133	ltpFR	6	8	0	DORM	488	n/a	5	1	n/a	n/a	n/a	n/a	n/a
4705677	RECOG_LURE	n/a	LTP133	ltpFR	6	8	n/a	SOFTBALL	1343	0	4	n/a	n/a	n/a	n/a	n/a	n/a
4706696	RECOG_RESP	n/a	LTP133	ltpFR	6	8	n/a	SOFTBALL	1343	0	n/a	n/a	n/a	n/a	n/a	n/a	n/a
4707359	RECOG_CONF	n/a	LTP133	ltpFR	6	8	n/a	SOFTBALL	1343	n/a	4	n/a	n/a	n/a	n/a	n/a	n/a
4708825	RECOG_LURE	n/a	LTP133	ltpFR	6	8	n/a	WIRE	1616	0	4	n/a	n/a	n/a	n/a	n/a	n/a
4709758	RECOG_RESP	n/a	LTP133	ltpFR	6	8	n/a	WIRE	1616	0	n/a	n/a	n/a	n/a	n/a	n/a	n/a
4710472	RECOG_CONF	n/a	LTP133	ltpFR	6	8	n/a	WIRE	1616	n/a	4	n/a	n/a	n/a	n/a	n/a	n/a
4711915	RECOG_LURE	n/a	LTP133	ltpFR	6	8	n/a	PECAN	1036	0	4	n/a	n/a	n/a	n/a	n/a	n/a
4712721	RECOG_RESP	n/a	LTP133	ltpFR	6	8	n/a	PECAN	1036	0	n/a	n/a	n/a	n/a	n/a	n/a	n/a
4713453	RECOG_CONF	n/a	LTP133	ltpFR	6	8	n/a	PECAN	1036	n/a	4	n/a	n/a	n/a	n/a	n/a	n/a
4714847	RECOG_TARGET	n/a	LTP133	ltpFR	6	8	0	BLUEJAY	141	1	5	0	n/a	n/a	n/a	n/a	n/a
4717103	RECOG_RESP	n/a	LTP133	ltpFR	6	8	0	BLUEJAY	141	1	n/a	0	n/a	n/a	n/a	n/a	n/a
4717777	RECOG_CONF	n/a	LTP133	ltpFR	6	8	0	BLUEJAY	141	n/a	5	0	n/a	n/a	n/a	n/a	n/a
4719189	RECOG_TARGET	n/a	LTP133	ltpFR	6	8	0	WICK	1607	1	4	0	n/a	n/a	n/a	n/a	n/a
4720498	RECOG_RESP	n/a	LTP133	ltpFR	6	8	0	WICK	1607	1	n/a	0	n/a	n/a	n/a	n/a	n/a
4721164	RECOG_CONF	n/a	LTP133	ltpFR	6	8	0	WICK	1607	n/a	4	0	n/a	n/a	n/a	n/a	n/a
4722537	RECOG_TARGET	n/a	LTP133	ltpFR	6	8	1	PONY	1102	1	5	1	n/a	n/a	n/a	n/a	n/a
4723226	RECOG_RESP	n/a	LTP133	ltpFR	6	8	1	PONY	1102	1	n/a	1	n/a	n/a	n/a	n/a	n/a
4724021	RECOG_CONF	n/a	LTP133	ltpFR	6	8	1	PONY	1102	n/a	5	1	n/a	n/a	n/a	n/a	n/a
4730545	REC_START	n/a	LTP133	ltpFR	6	9	n/a	n/a	n/a	n/a	n/a	n/a	n/a	n/a	n/a	n/a	n/a
4730584	RECOG_TARGET	n/a	LTP133	ltpFR	6	9	0	LOUNGE	845	1	5	1	n/a	n/a	n/a	n/a	n/a
4731376	RECOG_RESP	n/a	LTP133	ltpFR	6	9	0	LOUNGE	845	1	n/a	1	n/a	n/a	n/a	n/a	n/a
4732055	RECOG_CONF	n/a	LTP133	ltpFR	6	9	0	LOUNGE	845	n/a	5	1	n/a	n/a	n/a	n/a	n/a
4733442	RECOG_TARGET	n/a	LTP133	ltpFR	6	9	0	CHEST	295	1	5	0	n/a	n/a	n/a	n/a	n/a
4734123	RECOG_RESP	n/a	LTP133	ltpFR	6	9	0	CHEST	295	1	n/a	0	n/a	n/a	n/a	n/a	n/a
4734850	RECOG_CONF	n/a	LTP133	ltpFR	6	9	0	CHEST	295	n/a	5	0	n/a	n/a	n/a	n/a	n/a
4736183	RECOG_LURE	n/a	LTP133	ltpFR	6	9	n/a	FISH	571	0	2	n/a	n/a	n/a	n/a	n/a	n/a
4738962	RECOG_RESP	n/a	LTP133	ltpFR	6	9	n/a	FISH	571	0	n/a	n/a	n/a	n/a	n/a	n/a	n/a
4739644	RECOG_CONF	n/a	LTP133	ltpFR	6	9	n/a	FISH	571	n/a	2	n/a	n/a	n/a	n/a	n/a	n/a
4740963	RECOG_TARGET	n/a	LTP133	ltpFR	6	9	1	SEED	1266	1	5	1	n/a	n/a	n/a	n/a	n/a
4741633	RECOG_RESP	n/a	LTP133	ltpFR	6	9	1	SEED	1266	1	n/a	1	n/a	n/a	n/a	n/a	n/a
4742513	RECOG_CONF	n/a	LTP133	ltpFR	6	9	1	SEED	1266	n/a	5	1	n/a	n/a	n/a	n/a	n/a
4743770	RECOG_TARGET	n/a	LTP133	ltpFR	6	9	-1	TORTOISE	1486	1	5	-1	n/a	n/a	n/a	n/a	n/a
4744527	RECOG_RESP	n/a	LTP133	ltpFR	6	9	-1	TORTOISE	1486	1	n/a	-1	n/a	n/a	n/a	n/a	n/a
4745346	RECOG_CONF	n/a	LTP133	ltpFR	6	9	-1	TORTOISE	1486	n/a	5	-1	n/a	n/a	n/a	n/a	n/a
4746612	RECOG_TARGET	n/a	LTP133	ltpFR	6	9	1	RESORT	1186	1	5	0	n/a	n/a	n/a	n/a	n/a
4747827	RECOG_RESP	n/a	LTP133	ltpFR	6	9	1	RESORT	1186	1	n/a	0	n/a	n/a	n/a	n/a	n/a
4749198	RECOG_CONF	n/a	LTP133	ltpFR	6	9	1	RESORT	1186	n/a	5	0	n/a	n/a	n/a	n/a	n/a
4750694	RECOG_LURE	n/a	LTP133	ltpFR	6	9	n/a	DAISY	435	0	5	n/a	n/a	n/a	n/a	n/a	n/a
4751597	RECOG_RESP	n/a	LTP133	ltpFR	6	9	n/a	DAISY	435	0	n/a	n/a	n/a	n/a	n/a	n/a	n/a
4752292	RECOG_CONF	n/a	LTP133	ltpFR	6	9	n/a	DAISY	435	n/a	5	n/a	n/a	n/a	n/a	n/a	n/a
4753635	RECOG_TARGET	n/a	LTP133	ltpFR	6	9	0	GOAT	644	0	2	0	n/a	n/a	n/a	n/a	n/a
4755498	RECOG_RESP	n/a	LTP133	ltpFR	6	9	0	GOAT	644	0	n/a	0	n/a	n/a	n/a	n/a	n/a
4756254	RECOG_CONF	n/a	LTP133	ltpFR	6	9	0	GOAT	644	n/a	2	0	n/a	n/a	n/a	n/a	n/a
4757592	RECOG_LURE	n/a	LTP133	ltpFR	6	9	n/a	LACE	792	0	3	n/a	n/a	n/a	n/a	n/a	n/a
4759465	RECOG_RESP	n/a	LTP133	ltpFR	6	9	n/a	LACE	792	0	n/a	n/a	n/a	n/a	n/a	n/a	n/a
4760226	RECOG_CONF	n/a	LTP133	ltpFR	6	9	n/a	LACE	792	n/a	3	n/a	n/a	n/a	n/a	n/a	n/a
4761632	RECOG_LURE	n/a	LTP133	ltpFR	6	9	n/a	SHOE	1288	0	3	n/a	n/a	n/a	n/a	n/a	n/a
4762656	RECOG_RESP	n/a	LTP133	ltpFR	6	9	n/a	SHOE	1288	0	n/a	n/a	n/a	n/a	n/a	n/a	n/a
