mstime	trial_type	stim_file	subject	experiment	session	trial	task	item_name	item_num	recog_resp	recog_conf	resp	answer	test_x	test_y	test_z	color_r	color_g	color_b	case	font
0	SESS_START	n/a	LTP229	ltpFR	8	n/a	n/a	n/a	n/a	1	3	n/a	n/a	0	0	0	n/a	n/a	n/a	n/a	n/a
41265	START	n/a	LTP229	ltpFR	8	n/a	n/a	n/a	n/a	n/a	n/a	n/a	n/a	n/a	n/a	n/a	n/a	n/a	n/a	n/a	n/a
41314	PROB	n/a	LTP229	ltpFR	8	n/a	n/a	n/a	n/a	n/a	n/a	n/a	12	1	2	9	n/a	n/a	n/a	n/a	n/a
44342	PROB	n/a	LTP229	ltpFR	8	n/a	n/a	n/a	n/a	n/a	n/a	n/a	13	8	4	1	n/a	n/a	n/a	n/a	n/a
46382	PROB	n/a	LTP229	ltpFR	8	n/a	n/a	n/a	n/a	n/a	n/a	n/a	12	8	2	2	n/a	n/a	n/a	n/a	n/a
48390	PROB	n/a	LTP229	ltpFR	8	n/a	n/a	n/a	n/a	n/a	n/a	n/a	19	5	7	8	n/a	n/a	n/a	n/a	n/a
53660	PROB	n/a	LTP229	ltpFR	8	n/a	n/a	n/a	n/a	n/a	n/a	n/a	26	8	8	6	n/a	n/a	n/a	n/a	n/a
61264	STOP	n/a	LTP229	ltpFR	8	n/a	n/a	n/a	n/a	n/a	n/a	n/a	n/a	n/a	n/a	n/a	n/a	n/a	n/a	n/a	n/a
101557	WORD	wordpools/wasnorm_wordpool_less_exclusions.txt	LTP229	ltpFR	8	1	0	XEROX	1628	0	1	0	n/a	0	0	0	0.57763671875	0.412841796875	1	lower	amplitud.ttf
105522	WORD	wordpools/wasnorm_wordpool_less_exclusions.txt	LTP229	ltpFR	8	1	0	WILDERNESS	1610	0	n/a	1	n/a	0	0	0	0.57763671875	0.412841796875	1	lower	amplitud.ttf
109403	WORD	wordpools/wasnorm_wordpool_less_exclusions.txt	LTP229	ltpFR	8	1	0	SOFA	1342	n/a	n/a	1	n/a	0	0	0	0.57763671875	0.412841796875	1	lower	amplitud.ttf
113515	WORD	wordpools/wasnorm_wordpool_less_exclusions.txt	LTP229	ltpFR	8	1	0	CAMEL	223	n/a	n/a	1	n/a	0	0	0	0.57763671875	0.412841796875	1	lower	amplitud.ttf
117735	WORD	wordpools/wasnorm_wordpool_less_exclusions.txt	LTP229	ltpFR	8	1	1	ANTEATER	26	n/a	n/a	1	n/a	0	0	0	0.422607421875	0.5869140625	0	upper	zerothre.ttf
121700	WORD	wordpools/wasnorm_wordpool_less_exclusions.txt	LTP229	ltpFR	8	1	1	RAZOR	1171	n/a	n/a	0	n/a	0	0	0	0.422607421875	0.5869140625	0	upper	zerothre.ttf
125798	WORD	wordpools/wasnorm_wordpool_less_exclusions.txt	LTP229	ltpFR	8	1	1	SIREN	1310	n/a	n/a	0	n/a	0	0	0	0.422607421875	0.5869140625	0	upper	zerothre.ttf
129830	WORD	wordpools/wasnorm_wordpool_less_exclusions.txt	LTP229	ltpFR	8	1	1	MICROSCOPE	891	n/a	n/a	0	n/a	0	0	0	0.422607421875	0.5869140625	0	upper	zerothre.ttf
133929	WORD	wordpools/wasnorm_wordpool_less_exclusions.txt	LTP229	ltpFR	8	1	1	BLUEJAY	141	n/a	n/a	1	n/a	0	0	0	0.422607421875	0.5869140625	0	upper	zerothre.ttf
138028	WORD	wordpools/wasnorm_wordpool_less_exclusions.txt	LTP229	ltpFR	8	1	1	CANARY	227	n/a	n/a	1	n/a	0	0	0	0.422607421875	0.5869140625	0	upper	zerothre.ttf
142026	WORD	wordpools/wasnorm_wordpool_less_exclusions.txt	LTP229	ltpFR	8	1	0	SEAT	1264	n/a	n/a	1	n/a	0	0	0	0.57763671875	0.412841796875	1	lower	amplitud.ttf
146041	WORD	wordpools/wasnorm_wordpool_less_exclusions.txt	LTP229	ltpFR	8	1	0	CACTUS	215	n/a	n/a	1	n/a	0	0	0	0.57763671875	0.412841796875	1	lower	amplitud.ttf
149956	WORD	wordpools/wasnorm_wordpool_less_exclusions.txt	LTP229	ltpFR	8	1	0	QUILT	1151	n/a	n/a	0	n/a	0	0	0	0.57763671875	0.412841796875	1	lower	amplitud.ttf
153854	WORD	wordpools/wasnorm_wordpool_less_exclusions.txt	LTP229	ltpFR	8	1	0	MATTRESS	879	n/a	n/a	1	n/a	0	0	0	0.57763671875	0.412841796875	1	lower	amplitud.ttf
157986	WORD	wordpools/wasnorm_wordpool_less_exclusions.txt	LTP229	ltpFR	8	1	1	DONKEY	484	n/a	n/a	1	n/a	0	0	0	0.422607421875	0.5869140625	0	upper	zerothre.ttf
162035	WORD	wordpools/wasnorm_wordpool_less_exclusions.txt	LTP229	ltpFR	8	1	1	BEAKER	104	n/a	n/a	0	n/a	0	0	0	0.422607421875	0.5869140625	0	upper	zerothre.ttf
165047	START	n/a	LTP229	ltpFR	8	n/a	n/a	n/a	n/a	n/a	n/a	n/a	n/a	n/a	n/a	n/a	n/a	n/a	n/a	n/a	n/a
166147	PROB	n/a	LTP229	ltpFR	8	n/a	n/a	n/a	n/a	n/a	n/a	n/a	18	3	8	7	n/a	n/a	n/a	n/a	n/a
173047	STOP	n/a	LTP229	ltpFR	8	n/a	n/a	n/a	n/a	n/a	n/a	n/a	n/a	n/a	n/a	n/a	n/a	n/a	n/a	n/a	n/a
174968	REC_START	n/a	LTP229	ltpFR	8	1	n/a	n/a	n/a	n/a	n/a	n/a	n/a	0	0	0	n/a	n/a	n/a	n/a	n/a
176125	REC_WORD	wordpools/wasnorm_wordpool_less_exclusions.txt	LTP229	ltpFR	8	1	0	XEROX	1628	n/a	n/a	0	n/a	0	0	0	n/a	n/a	n/a	n/a	n/a
178330	REC_WORD	wordpools/wasnorm_wordpool_less_exclusions.txt	LTP229	ltpFR	8	1	n/a	MACHINE	852	n/a	n/a	n/a	n/a	0	0	0	n/a	n/a	n/a	n/a	n/a
181323	REC_WORD	wordpools/wasnorm_wordpool_less_exclusions.txt	LTP229	ltpFR	8	1	0	MATTRESS	879	n/a	n/a	1	n/a	0	0	0	n/a	n/a	n/a	n/a	n/a
182650	REC_WORD	wordpools/wasnorm_wordpool_less_exclusions.txt	LTP229	ltpFR	8	1	0	SOFA	1342	n/a	n/a	1	n/a	0	0	0	n/a	n/a	n/a	n/a	n/a
184810	REC_WORD	wordpools/wasnorm_wordpool_less_exclusions.txt	LTP229	ltpFR	8	1	0	QUILT	1151	n/a	n/a	0	n/a	0	0	0	n/a	n/a	n/a	n/a	n/a
186152	REC_WORD	wordpools/wasnorm_wordpool_less_exclusions.txt	LTP229	ltpFR	8	1	1	ANTEATER	26	n/a	n/a	1	n/a	0	0	0	n/a	n/a	n/a	n/a	n/a
187734	REC_WORD	wordpools/wasnorm_wordpool_less_exclusions.txt	LTP229	ltpFR	8	1	0	CAMEL	223	n/a	n/a	1	n/a	0	0	0	n/a	n/a	n/a	n/a	n/a
189175	REC_WORD	wordpools/wasnorm_wordpool_less_exclusions.txt	LTP229	ltpFR	8	1	0	WILDERNESS	1610	n/a	n/a	1	n/a	0	0	0	n/a	n/a	n/a	n/a	n/a
192288	REC_WORD	wordpools/wasnorm_wordpool_less_exclusions.txt	LTP229	ltpFR	8	1	1	DONKEY	484	n/a	n/a	1	n/a	0	0	0	n/a	n/a	n/a	n/a	n/a
203219	REC_WORD	wordpools/wasnorm_wordpool_less_exclusions.txt	LTP229	ltpFR	8	1	1	BEAKER	104	n/a	n/a	0	n/a	0	0	0	n/a	n/a	n/a	n/a	n/a
204386	REC_WORD	wordpools/wasnorm_wordpool_less_exclusions.txt	LTP229	ltpFR	8	1	1	MICROSCOPE	891	n/a	n/a	0	n/a	0	0	0	n/a	n/a	n/a	n/a	n/a
223083	REC_WORD	wordpools/wasnorm_wordpool_less_exclusions.txt	LTP229	ltpFR	8	1	0	CAMEL	223	n/a	n/a	1	n/a	0	0	0	n/a	n/a	n/a	n/a	n/a
226815	REC_WORD	wordpools/wasnorm_wordpool_less_exclusions.txt	LTP229	ltpFR	8	1	1	ANTEATER	26	n/a	n/a	1	n/a	0	0	0	n/a	n/a	n/a	n/a	n/a
271414	START	n/a	LTP229	ltpFR	8	n/a	n/a	n/a	n/a	n/a	n/a	n/a	n/a	n/a	n/a	n/a	n/a	n/a	n/a	n/a	n/a
272920	PROB	n/a	LTP229	ltpFR	8	n/a	n/a	n/a	n/a	n/a	n/a	n/a	20	6	6	8	n/a	n/a	n/a	n/a	n/a
279414	STOP	n/a	LTP229	ltpFR	8	n/a	n/a	n/a	n/a	n/a	n/a	n/a	n/a	n/a	n/a	n/a	n/a	n/a	n/a	n/a	n/a
280565	WORD	wordpools/wasnorm_wordpool_less_exclusions.txt	LTP229	ltpFR	8	2	0	CHECK	284	n/a	n/a	1	n/a	0	0	0	0.57763671875	0.412841796875	1	lower	amplitud.ttf
283577	START	n/a	LTP229	ltpFR	8	n/a	n/a	n/a	n/a	n/a	n/a	n/a	n/a	n/a	n/a	n/a	n/a	n/a	n/a	n/a	n/a
284430	PROB	n/a	LTP229	ltpFR	8	n/a	n/a	n/a	n/a	n/a	n/a	n/a	18	6	9	2	n/a	n/a	n/a	n/a	n/a
288679	PROB	n/a	LTP229	ltpFR	8	n/a	n/a	n/a	n/a	n/a	n/a	n/a	17	5	3	7	n/a	n/a	n/a	n/a	n/a
291095	STOP	n/a	LTP229	ltpFR	8	n/a	n/a	n/a	n/a	n/a	n/a	n/a	n/a	n/a	n/a	n/a	n/a	n/a	n/a	n/a	n/a
292460	WORD	wordpools/wasnorm_wordpool_less_exclusions.txt	LTP229	ltpFR	8	2	0	BENCH	121	n/a	n/a	1	n/a	0	0	0	0.57763671875	0.412841796875	1	lower	amplitud.ttf
295472	START	n/a	LTP229	ltpFR	8	n/a	n/a	n/a	n/a	n/a	n/a	n/a	n/a	n/a	n/a	n/a	n/a	n/a	n/a	n/a	n/a
296508	PROB	n/a	LTP229	ltpFR	8	n/a	n/a	n/a	n/a	n/a	n/a	n/a	21	6	9	5	n/a	n/a	n/a	n/a	n/a
303472	STOP	n/a	LTP229	ltpFR	8	n/a	n/a	n/a	n/a	n/a	n/a	n/a	n/a	n/a	n/a	n/a	n/a	n/a	n/a	n/a	n/a
304472	WORD	wordpools/wasnorm_wordpool_less_exclusions.txt	LTP229	ltpFR	8	2	0	TONGUE	1479	n/a	n/a	1	n/a	0	0	0	0.57763671875	0.412841796875	1	lower	amplitud.ttf
307484	START	n/a	LTP229	ltpFR	8	n/a	n/a	n/a	n/a	n/a	n/a	n/a	n/a	n/a	n/a	n/a	n/a	n/a	n/a	n/a	n/a
308701	PROB	n/a	LTP229	ltpFR	8	n/a	n/a	n/a	n/a	n/a	n/a	n/a	12	8	2	2	n/a	n/a	n/a	n/a	n/a
310929	PROB	n/a	LTP229	ltpFR	8	n/a	n/a	n/a	n/a	n/a	n/a	n/a	8	5	1	2	n/a	n/a	n/a	n/a	n/a
314495	STOP	n/a	LTP229	ltpFR	8	n/a	n/a	n/a	n/a	n/a	n/a	n/a	n/a	n/a	n/a	n/a	n/a	n/a	n/a	n/a	n/a
316513	WORD	wordpools/wasnorm_wordpool_less_exclusions.txt	LTP229	ltpFR	8	2	0	CATHEDRAL	260	n/a	n/a	1	n/a	0	0	0	0.57763671875	0.412841796875	1	lower	amplitud.ttf
319529	START	n/a	LTP229	ltpFR	8	n/a	n/a	n/a	n/a	n/a	n/a	n/a	n/a	n/a	n/a	n/a	n/a	n/a	n/a	n/a	n/a
320532	PROB	n/a	LTP229	ltpFR	8	n/a	n/a	n/a	n/a	n/a	n/a	n/a	8	2	1	5	n/a	n/a	n/a	n/a	n/a
322573	PROB	n/a	LTP229	ltpFR	8	n/a	n/a	n/a	n/a	n/a	n/a	n/a	10	1	2	7	n/a	n/a	n/a	n/a	n/a
327529	STOP	n/a	LTP229	ltpFR	8	n/a	n/a	n/a	n/a	n/a	n/a	n/a	n/a	n/a	n/a	n/a	n/a	n/a	n/a	n/a	n/a
328445	WORD	wordpools/wasnorm_wordpool_less_exclusions.txt	LTP229	ltpFR	8	2	0	ANIMAL	23	n/a	n/a	1	n/a	0	0	0	0.57763671875	0.412841796875	1	lower	amplitud.ttf
331457	START	n/a	LTP229	ltpFR	8	n/a	n/a	n/a	n/a	n/a	n/a	n/a	n/a	n/a	n/a	n/a	n/a	n/a	n/a	n/a	n/a
332440	PROB	n/a	LTP229	ltpFR	8	n/a	n/a	n/a	n/a	n/a	n/a	n/a	16	8	3	5	n/a	n/a	n/a	n/a	n/a
337680	PROB	n/a	LTP229	ltpFR	8	n/a	n/a	n/a	n/a	n/a	n/a	n/a	8	5	2	1	n/a	n/a	n/a	n/a	n/a
339055	STOP	n/a	LTP229	ltpFR	8	n/a	n/a	n/a	n/a	n/a	n/a	n/a	n/a	n/a	n/a	n/a	n/a	n/a	n/a	n/a	n/a
340541	WORD	wordpools/wasnorm_wordpool_less_exclusions.txt	LTP229	ltpFR	8	2	0	PASSENGER	1020	n/a	n/a	1	n/a	0	0	0	0.57763671875	0.412841796875	1	lower	amplitud.ttf
343553	START	n/a	LTP229	ltpFR	8	n/a	n/a	n/a	n/a	n/a	n/a	n/a	n/a	n/a	n/a	n/a	n/a	n/a	n/a	n/a	n/a
344389	PROB	n/a	LTP229	ltpFR	8	n/a	n/a	n/a	n/a	n/a	n/a	n/a	16	1	9	6	n/a	n/a	n/a	n/a	n/a
346163	PROB	n/a	LTP229	ltpFR	8	n/a	n/a	n/a	n/a	n/a	n/a	n/a	16	3	5	8	n/a	n/a	n/a	n/a	n/a
348251	PROB	n/a	LTP229	ltpFR	8	n/a	n/a	n/a	n/a	n/a	n/a	n/a	17	1	8	8	n/a	n/a	n/a	n/a	n/a
351553	STOP	n/a	LTP229	ltpFR	8	n/a	n/a	n/a	n/a	n/a	n/a	n/a	n/a	n/a	n/a	n/a	n/a	n/a	n/a	n/a	n/a
352653	WORD	wordpools/wasnorm_wordpool_less_exclusions.txt	LTP229	ltpFR	8	2	0	DOLLAR	482	n/a	n/a	0	n/a	0	0	0	0.57763671875	0.412841796875	1	lower	amplitud.ttf
355665	START	n/a	LTP229	ltpFR	8	n/a	n/a	n/a	n/a	n/a	n/a	n/a	n/a	n/a	n/a	n/a	n/a	n/a	n/a	n/a	n/a
356652	PROB	n/a	LTP229	ltpFR	8	n/a	n/a	n/a	n/a	n/a	n/a	n/a	14	5	4	5	n/a	n/a	n/a	n/a	n/a
363665	STOP	n/a	LTP229	ltpFR	8	n/a	n/a	n/a	n/a	n/a	n/a	n/a	n/a	n/a	n/a	n/a	n/a	n/a	n/a	n/a	n/a
364732	WORD	wordpools/wasnorm_wordpool_less_exclusions.txt	LTP229	ltpFR	8	2	0	CORK	380	n/a	n/a	0	n/a	0	0	0	0.57763671875	0.412841796875	1	lower	amplitud.ttf
367744	START	n/a	LTP229	ltpFR	8	n/a	n/a	n/a	n/a	n/a	n/a	n/a	n/a	n/a	n/a	n/a	n/a	n/a	n/a	n/a	n/a
368915	PROB	n/a	LTP229	ltpFR	8	n/a	n/a	n/a	n/a	n/a	n/a	n/a	14	3	9	2	n/a	n/a	n/a	n/a	n/a
371056	PROB	n/a	LTP229	ltpFR	8	n/a	n/a	n/a	n/a	n/a	n/a	n/a	20	8	3	9	n/a	n/a	n/a	n/a	n/a
374983	STOP	n/a	LTP229	ltpFR	8	n/a	n/a	n/a	n/a	n/a	n/a	n/a	n/a	n/a	n/a	n/a	n/a	n/a	n/a	n/a	n/a
376727	WORD	wordpools/wasnorm_wordpool_less_exclusions.txt	LTP229	ltpFR	8	2	0	SEAL	1262	n/a	n/a	1	n/a	0	0	0	0.57763671875	0.412841796875	1	lower	amplitud.ttf
379739	START	n/a	LTP229	ltpFR	8	n/a	n/a	n/a	n/a	n/a	n/a	n/a	n/a	n/a	n/a	n/a	n/a	n/a	n/a	n/a	n/a
380588	PROB	n/a	LTP229	ltpFR	8	n/a	n/a	n/a	n/a	n/a	n/a	n/a	8	2	2	4	n/a	n/a	n/a	n/a	n/a
382378	PROB	n/a	LTP229	ltpFR	8	n/a	n/a	n/a	n/a	n/a	n/a	n/a	13	3	7	3	n/a	n/a	n/a	n/a	n/a
384186	PROB	n/a	LTP229	ltpFR	8	n/a	n/a	n/a	n/a	n/a	n/a	n/a	18	3	8	7	n/a	n/a	n/a	n/a	n/a
386567	STOP	n/a	LTP229	ltpFR	8	n/a	n/a	n/a	n/a	n/a	n/a	n/a	n/a	n/a	n/a	n/a	n/a	n/a	n/a	n/a	n/a
388606	WORD	wordpools/wasnorm_wordpool_less_exclusions.txt	LTP229	ltpFR	8	2	0	STABLE	1363	n/a	n/a	1	n/a	0	0	0	0.57763671875	0.412841796875	1	lower	amplitud.ttf
391618	START	n/a	LTP229	ltpFR	8	n/a	n/a	n/a	n/a	n/a	n/a	n/a	n/a	n/a	n/a	n/a	n/a	n/a	n/a	n/a	n/a
392520	PROB	n/a	LTP229	ltpFR	8	n/a	n/a	n/a	n/a	n/a	n/a	n/a	9	4	1	7	n/a	n/a	n/a	n/a	n/a
399503	STOP	n/a	LTP229	ltpFR	8	n/a	n/a	n/a	n/a	n/a	n/a	n/a	n/a	n/a	n/a	n/a	n/a	n/a	n/a	n/a	n/a
400534	WORD	wordpools/wasnorm_wordpool_less_exclusions.txt	LTP229	ltpFR	8	2	0	MULE	931	n/a	n/a	1	n/a	0	0	0	0.57763671875	0.412841796875	1	lower	amplitud.ttf
403546	START	n/a	LTP229	ltpFR	8	n/a	n/a	n/a	n/a	n/a	n/a	n/a	n/a	n/a	n/a	n/a	n/a	n/a	n/a	n/a	n/a
404696	PROB	n/a	LTP229	ltpFR	8	n/a	n/a	n/a	n/a	n/a	n/a	n/a	24	9	8	6	n/a	n/a	n/a	n/a	n/a
411007	STOP	n/a	LTP229	ltpFR	8	n/a	n/a	n/a	n/a	n/a	n/a	n/a	n/a	n/a	n/a	n/a	n/a	n/a	n/a	n/a	n/a
412629	WORD	wordpools/wasnorm_wordpool_less_exclusions.txt	LTP229	ltpFR	8	2	0	CREATURE	403	n/a	n/a	1	n/a	0	0	0	0.57763671875	0.412841796875	1	lower	amplitud.ttf
415642	START	n/a	LTP229	ltpFR	8	n/a	n/a	n/a	n/a	n/a	n/a	n/a	n/a	n/a	n/a	n/a	n/a	n/a	n/a	n/a	n/a
416628	PROB	n/a	LTP229	ltpFR	8	n/a	n/a	n/a	n/a	n/a	n/a	n/a	18	7	8	3	n/a	n/a	n/a	n/a	n/a
419468	PROB	n/a	LTP229	ltpFR	8	n/a	n/a	n/a	n/a	n/a	n/a	n/a	18	9	8	1	n/a	n/a	n/a	n/a	n/a
422168	STOP	n/a	LTP229	ltpFR	8	n/a	n/a	n/a	n/a	n/a	n/a	n/a	n/a	n/a	n/a	n/a	n/a	n/a	n/a	n/a	n/a
424675	WORD	wordpools/wasnorm_wordpool_less_exclusions.txt	LTP229	ltpFR	8	2	0	POSSUM	1112	n/a	n/a	1	n/a	0	0	0	0.57763671875	0.412841796875	1	lower	amplitud.ttf
427687	START	n/a	LTP229	ltpFR	8	n/a	n/a	n/a	n/a	n/a	n/a	n/a	n/a	n/a	n/a	n/a	n/a	n/a	n/a	n/a	n/a
428837	PROB	n/a	LTP229	ltpFR	8	n/a	n/a	n/a	n/a	n/a	n/a	n/a	21	8	3	9	n/a	n/a	n/a	n/a	n/a
431530	PROB	n/a	LTP229	ltpFR	8	n/a	n/a	n/a	n/a	n/a	n/a	n/a	26	8	9	9	n/a	n/a	n/a	n/a	n/a
434687	STOP	n/a	LTP229	ltpFR	8	n/a	n/a	n/a	n/a	n/a	n/a	n/a	n/a	n/a	n/a	n/a	n/a	n/a	n/a	n/a	n/a
436637	WORD	wordpools/wasnorm_wordpool_less_exclusions.txt	LTP229	ltpFR	8	2	0	PORTRAIT	1111	n/a	n/a	1	n/a	0	0	0	0.57763671875	0.412841796875	1	lower	amplitud.ttf
439648	START	n/a	LTP229	ltpFR	8	n/a	n/a	n/a	n/a	n/a	n/a	n/a	n/a	n/a	n/a	n/a	n/a	n/a	n/a	n/a	n/a
440614	PROB	n/a	LTP229	ltpFR	8	n/a	n/a	n/a	n/a	n/a	n/a	n/a	16	8	7	1	n/a	n/a	n/a	n/a	n/a
442760	PROB	n/a	LTP229	ltpFR	8	n/a	n/a	n/a	n/a	n/a	n/a	n/a	16	3	5	8	n/a	n/a	n/a	n/a	n/a
447648	STOP	n/a	LTP229	ltpFR	8	n/a	n/a	n/a	n/a	n/a	n/a	n/a	n/a	n/a	n/a	n/a	n/a	n/a	n/a	n/a	n/a
448615	WORD	wordpools/wasnorm_wordpool_less_exclusions.txt	LTP229	ltpFR	8	2	0	LENS	811	n/a	n/a	0	n/a	0	0	0	0.57763671875	0.412841796875	1	lower	amplitud.ttf
451627	START	n/a	LTP229	ltpFR	8	n/a	n/a	n/a	n/a	n/a	n/a	n/a	n/a	n/a	n/a	n/a	n/a	n/a	n/a	n/a	n/a
452513	PROB	n/a	LTP229	ltpFR	8	n/a	n/a	n/a	n/a	n/a	n/a	n/a	11	2	3	6	n/a	n/a	n/a	n/a	n/a
457299	PROB	n/a	LTP229	ltpFR	8	n/a	n/a	n/a	n/a	n/a	n/a	n/a	18	6	8	4	n/a	n/a	n/a	n/a	n/a
459599	STOP	n/a	LTP229	ltpFR	8	n/a	n/a	n/a	n/a	n/a	n/a	n/a	n/a	n/a	n/a	n/a	n/a	n/a	n/a	n/a	n/a
460660	WORD	wordpools/wasnorm_wordpool_less_exclusions.txt	LTP229	ltpFR	8	2	0	AIRPLANE	12	n/a	n/a	1	n/a	0	0	0	0.57763671875	0.412841796875	1	lower	amplitud.ttf
463672	START	n/a	LTP229	ltpFR	8	n/a	n/a	n/a	n/a	n/a	n/a	n/a	n/a	n/a	n/a	n/a	n/a	n/a	n/a	n/a	n/a
464789	PROB	n/a	LTP229	ltpFR	8	n/a	n/a	n/a	n/a	n/a	n/a	n/a	14	9	2	3	n/a	n/a	n/a	n/a	n/a
467620	PROB	n/a	LTP229	ltpFR	8	n/a	n/a	n/a	n/a	n/a	n/a	n/a	15	4	4	7	n/a	n/a	n/a	n/a	n/a
471671	STOP	n/a	LTP229	ltpFR	8	n/a	n/a	n/a	n/a	n/a	n/a	n/a	n/a	n/a	n/a	n/a	n/a	n/a	n/a	n/a	n/a
473489	REC_START	n/a	LTP229	ltpFR	8	2	n/a	n/a	n/a	n/a	n/a	n/a	n/a	0	0	0	n/a	n/a	n/a	n/a	n/a
474975	REC_WORD	wordpools/wasnorm_wordpool_less_exclusions.txt	LTP229	ltpFR	8	2	0	AIRPLANE	12	n/a	n/a	1	n/a	0	0	0	n/a	n/a	n/a	n/a	n/a
477086	REC_WORD	wordpools/wasnorm_wordpool_less_exclusions.txt	LTP229	ltpFR	8	2	0	MULE	931	n/a	n/a	1	n/a	0	0	0	n/a	n/a	n/a	n/a	n/a
478232	REC_WORD	wordpools/wasnorm_wordpool_less_exclusions.txt	LTP229	ltpFR	8	2	0	CATHEDRAL	260	n/a	n/a	1	n/a	0	0	0	n/a	n/a	n/a	n/a	n/a
479899	REC_WORD	wordpools/wasnorm_wordpool_less_exclusions.txt	LTP229	ltpFR	8	2	0	TONGUE	1479	n/a	n/a	1	n/a	0	0	0	n/a	n/a	n/a	n/a	n/a
481326	REC_WORD	wordpools/wasnorm_wordpool_less_exclusions.txt	LTP229	ltpFR	8	2	0	CHECK	284	n/a	n/a	1	n/a	0	0	0	n/a	n/a	n/a	n/a	n/a
482783	REC_WORD	wordpools/wasnorm_wordpool_less_exclusions.txt	LTP229	ltpFR	8	2	n/a	BALANCE	-1	n/a	n/a	n/a	n/a	0	0	0	n/a	n/a	n/a	n/a	n/a
486360	REC_WORD	wordpools/wasnorm_wordpool_less_exclusions.txt	LTP229	ltpFR	8	2	0	CREATURE	403	n/a	n/a	1	n/a	0	0	0	n/a	n/a	n/a	n/a	n/a
501740	REC_WORD	wordpools/wasnorm_wordpool_less_exclusions.txt	LTP229	ltpFR	8	2	0	CORK	380	n/a	n/a	0	n/a	0	0	0	n/a	n/a	n/a	n/a	n/a
503386	REC_WORD	wordpools/wasnorm_wordpool_less_exclusions.txt	LTP229	ltpFR	8	2	0	LENS	811	n/a	n/a	0	n/a	0	0	0	n/a	n/a	n/a	n/a	n/a
536846	REC_WORD	wordpools/wasnorm_wordpool_less_exclusions.txt	LTP229	ltpFR	8	2	0	STABLE	1363	n/a	n/a	1	n/a	0	0	0	n/a	n/a	n/a	n/a	n/a
560855	WORD	wordpools/wasnorm_wordpool_less_exclusions.txt	LTP229	ltpFR	8	3	1	CORN	381	n/a	n/a	1	n/a	0	0	0	0.422607421875	0.5869140625	0	upper	zerothre.ttf
564753	WORD	wordpools/wasnorm_wordpool_less_exclusions.txt	LTP229	ltpFR	8	3	1	CHEMICAL	291	n/a	n/a	1	n/a	0	0	0	0.422607421875	0.5869140625	0	upper	zerothre.ttf
568848	WORD	wordpools/wasnorm_wordpool_less_exclusions.txt	LTP229	ltpFR	8	3	1	MOLECULE	905	n/a	n/a	1	n/a	0	0	0	0.422607421875	0.5869140625	0	upper	zerothre.ttf
572683	WORD	wordpools/wasnorm_wordpool_less_exclusions.txt	LTP229	ltpFR	8	3	1	CRAB	397	n/a	n/a	1	n/a	0	0	0	0.422607421875	0.5869140625	0	upper	zerothre.ttf
576698	WORD	wordpools/wasnorm_wordpool_less_exclusions.txt	LTP229	ltpFR	8	3	1	NICOTINE	951	n/a	n/a	1	n/a	0	0	0	0.422607421875	0.5869140625	0	upper	zerothre.ttf
580759	WORD	wordpools/wasnorm_wordpool_less_exclusions.txt	LTP229	ltpFR	8	3	1	SILVERWARE	1308	n/a	n/a	0	n/a	0	0	0	0.422607421875	0.5869140625	0	upper	zerothre.ttf
584791	WORD	wordpools/wasnorm_wordpool_less_exclusions.txt	LTP229	ltpFR	8	3	1	BEET	115	n/a	n/a	1	n/a	0	0	0	0.422607421875	0.5869140625	0	upper	zerothre.ttf
588626	WORD	wordpools/wasnorm_wordpool_less_exclusions.txt	LTP229	ltpFR	8	3	1	FUDGE	611	n/a	n/a	0	n/a	0	0	0	0.422607421875	0.5869140625	0	upper	zerothre.ttf
592825	WORD	wordpools/wasnorm_wordpool_less_exclusions.txt	LTP229	ltpFR	8	3	1	JUG	762	n/a	n/a	1	n/a	0	0	0	0.422607421875	0.5869140625	0	upper	zerothre.ttf
596790	WORD	wordpools/wasnorm_wordpool_less_exclusions.txt	LTP229	ltpFR	8	3	1	ICE	730	n/a	n/a	1	n/a	0	0	0	0.422607421875	0.5869140625	0	upper	zerothre.ttf
600668	WORD	wordpools/wasnorm_wordpool_less_exclusions.txt	LTP229	ltpFR	8	3	1	CARDINAL	244	n/a	n/a	1	n/a	0	0	0	0.422607421875	0.5869140625	0	upper	zerothre.ttf
604737	WORD	wordpools/wasnorm_wordpool_less_exclusions.txt	LTP229	ltpFR	8	3	1	SHARK	1275	n/a	n/a	1	n/a	0	0	0	0.422607421875	0.5869140625	0	upper	zerothre.ttf
608715	WORD	wordpools/wasnorm_wordpool_less_exclusions.txt	LTP229	ltpFR	8	3	1	ATHLETE	52	n/a	n/a	1	n/a	0	0	0	0.422607421875	0.5869140625	0	upper	zerothre.ttf
612562	WORD	wordpools/wasnorm_wordpool_less_exclusions.txt	LTP229	ltpFR	8	3	1	SEAGULL	1261	n/a	n/a	1	n/a	0	0	0	0.422607421875	0.5869140625	0	upper	zerothre.ttf
616665	WORD	wordpools/wasnorm_wordpool_less_exclusions.txt	LTP229	ltpFR	8	3	1	SNAIL	1332	n/a	n/a	1	n/a	0	0	0	0.422607421875	0.5869140625	0	upper	zerothre.ttf
620593	WORD	wordpools/wasnorm_wordpool_less_exclusions.txt	LTP229	ltpFR	8	3	1	SLUG	1329	n/a	n/a	1	n/a	0	0	0	0.422607421875	0.5869140625	0	upper	zerothre.ttf
623608	START	n/a	LTP229	ltpFR	8	n/a	n/a	n/a	n/a	n/a	n/a	n/a	n/a	n/a	n/a	n/a	n/a	n/a	n/a	n/a	n/a
624495	PROB	n/a	LTP229	ltpFR	8	n/a	n/a	n/a	n/a	n/a	n/a	n/a	11	1	9	1	n/a	n/a	n/a	n/a	n/a
627071	PROB	n/a	LTP229	ltpFR	8	n/a	n/a	n/a	n/a	n/a	n/a	n/a	8	2	5	1	n/a	n/a	n/a	n/a	n/a
628543	PROB	n/a	LTP229	ltpFR	8	n/a	n/a	n/a	n/a	n/a	n/a	n/a	12	1	9	2	n/a	n/a	n/a	n/a	n/a
630230	PROB	n/a	LTP229	ltpFR	8	n/a	n/a	n/a	n/a	n/a	n/a	n/a	11	1	8	2	n/a	n/a	n/a	n/a	n/a
631885	PROB	n/a	LTP229	ltpFR	8	n/a	n/a	n/a	n/a	n/a	n/a	n/a	29	6	6	7	n/a	n/a	n/a	n/a	n/a
639607	STOP	n/a	LTP229	ltpFR	8	n/a	n/a	n/a	n/a	n/a	n/a	n/a	n/a	n/a	n/a	n/a	n/a	n/a	n/a	n/a	n/a
641360	REC_START	n/a	LTP229	ltpFR	8	3	n/a	n/a	n/a	n/a	n/a	n/a	n/a	0	0	0	n/a	n/a	n/a	n/a	n/a
642557	REC_WORD	wordpools/wasnorm_wordpool_less_exclusions.txt	LTP229	ltpFR	8	3	1	CORN	381	n/a	n/a	1	n/a	0	0	0	n/a	n/a	n/a	n/a	n/a
643729	REC_WORD	wordpools/wasnorm_wordpool_less_exclusions.txt	LTP229	ltpFR	8	3	1	CHEMICAL	291	n/a	n/a	1	n/a	0	0	0	n/a	n/a	n/a	n/a	n/a
645106	REC_WORD	wordpools/wasnorm_wordpool_less_exclusions.txt	LTP229	ltpFR	8	3	1	MOLECULE	905	n/a	n/a	1	n/a	0	0	0	n/a	n/a	n/a	n/a	n/a
646728	REC_WORD	wordpools/wasnorm_wordpool_less_exclusions.txt	LTP229	ltpFR	8	3	1	BEET	115	n/a	n/a	1	n/a	0	0	0	n/a	n/a	n/a	n/a	n/a
649975	REC_WORD	wordpools/wasnorm_wordpool_less_exclusions.txt	LTP229	ltpFR	8	3	1	ICE	730	n/a	n/a	1	n/a	0	0	0	n/a	n/a	n/a	n/a	n/a
652170	REC_WORD	wordpools/wasnorm_wordpool_less_exclusions.txt	LTP229	ltpFR	8	3	1	FUDGE	611	n/a	n/a	0	n/a	0	0	0	n/a	n/a	n/a	n/a	n/a
653831	REC_WORD	wordpools/wasnorm_wordpool_less_exclusions.txt	LTP229	ltpFR	8	3	1	SILVERWARE	1308	n/a	n/a	0	n/a	0	0	0	n/a	n/a	n/a	n/a	n/a
657019	REC_WORD	wordpools/wasnorm_wordpool_less_exclusions.txt	LTP229	ltpFR	8	3	1	JUG	762	n/a	n/a	1	n/a	0	0	0	n/a	n/a	n/a	n/a	n/a
668418	REC_WORD	wordpools/wasnorm_wordpool_less_exclusions.txt	LTP229	ltpFR	8	3	1	CARDINAL	244	n/a	n/a	1	n/a	0	0	0	n/a	n/a	n/a	n/a	n/a
672953	REC_WORD	wordpools/wasnorm_wordpool_less_exclusions.txt	LTP229	ltpFR	8	3	1	ATHLETE	52	n/a	n/a	1	n/a	0	0	0	n/a	n/a	n/a	n/a	n/a
688213	REC_WORD	wordpools/wasnorm_wordpool_less_exclusions.txt	LTP229	ltpFR	8	3	1	BLUEJAY	141	n/a	n/a	1	n/a	0	0	0	n/a	n/a	n/a	n/a	n/a
690758	REC_WORD	wordpools/wasnorm_wordpool_less_exclusions.txt	LTP229	ltpFR	8	3	1	CANARY	227	n/a	n/a	1	n/a	0	0	0	n/a	n/a	n/a	n/a	n/a
703249	REC_WORD	wordpools/wasnorm_wordpool_less_exclusions.txt	LTP229	ltpFR	8	3	1	ICE	730	n/a	n/a	1	n/a	0	0	0	n/a	n/a	n/a	n/a	n/a
722648	WORD	wordpools/wasnorm_wordpool_less_exclusions.txt	LTP229	ltpFR	8	4	0	SPARROW	1347	n/a	n/a	1	n/a	0	0	0	0.57763671875	0.412841796875	1	lower	amplitud.ttf
726563	WORD	wordpools/wasnorm_wordpool_less_exclusions.txt	LTP229	ltpFR	8	4	0	SLEEVE	1324	n/a	n/a	0	n/a	0	0	0	0.57763671875	0.412841796875	1	lower	amplitud.ttf
730778	WORD	wordpools/wasnorm_wordpool_less_exclusions.txt	LTP229	ltpFR	8	4	1	MINER	896	n/a	n/a	1	n/a	0	0	0	0.422607421875	0.5869140625	0	upper	zerothre.ttf
734940	WORD	wordpools/wasnorm_wordpool_less_exclusions.txt	LTP229	ltpFR	8	4	1	PELICAN	1039	n/a	n/a	1	n/a	0	0	0	0.422607421875	0.5869140625	0	upper	zerothre.ttf
739161	WORD	wordpools/wasnorm_wordpool_less_exclusions.txt	LTP229	ltpFR	8	4	1	PARCEL	1012	n/a	n/a	1	n/a	0	0	0	0.422607421875	0.5869140625	0	upper	zerothre.ttf
743327	WORD	wordpools/wasnorm_wordpool_less_exclusions.txt	LTP229	ltpFR	8	4	1	TIGER	1467	n/a	n/a	1	n/a	0	0	0	0.422607421875	0.5869140625	0	upper	zerothre.ttf
747342	WORD	wordpools/wasnorm_wordpool_less_exclusions.txt	LTP229	ltpFR	8	4	0	GALAXY	617	n/a	n/a	1	n/a	0	0	0	0.57763671875	0.412841796875	1	lower	amplitud.ttf
751324	WORD	wordpools/wasnorm_wordpool_less_exclusions.txt	LTP229	ltpFR	8	4	0	ATLAS	53	n/a	n/a	0	n/a	0	0	0	0.57763671875	0.412841796875	1	lower	amplitud.ttf
755339	WORD	wordpools/wasnorm_wordpool_less_exclusions.txt	LTP229	ltpFR	8	4	0	CAGE	218	n/a	n/a	0	n/a	0	0	0	0.57763671875	0.412841796875	1	lower	amplitud.ttf
759382	WORD	wordpools/wasnorm_wordpool_less_exclusions.txt	LTP229	ltpFR	8	4	1	TORCH	1484	n/a	n/a	0	n/a	0	0	0	0.422607421875	0.5869140625	0	upper	zerothre.ttf
763569	WORD	wordpools/wasnorm_wordpool_less_exclusions.txt	LTP229	ltpFR	8	4	1	BIBLE	124	n/a	n/a	0	n/a	0	0	0	0.422607421875	0.5869140625	0	upper	zerothre.ttf
767747	WORD	wordpools/wasnorm_wordpool_less_exclusions.txt	LTP229	ltpFR	8	4	1	GODDESS	646	n/a	n/a	0	n/a	0	0	0	0.422607421875	0.5869140625	0	upper	zerothre.ttf
771913	WORD	wordpools/wasnorm_wordpool_less_exclusions.txt	LTP229	ltpFR	8	4	1	FARM	552	n/a	n/a	1	n/a	0	0	0	0.422607421875	0.5869140625	0	upper	zerothre.ttf
775978	WORD	wordpools/wasnorm_wordpool_less_exclusions.txt	LTP229	ltpFR	8	4	0	RACCOON	1153	n/a	n/a	1	n/a	0	0	0	0.57763671875	0.412841796875	1	lower	amplitud.ttf
779964	WORD	wordpools/wasnorm_wordpool_less_exclusions.txt	LTP229	ltpFR	8	4	0	COOK	372	n/a	n/a	1	n/a	0	0	0	0.57763671875	0.412841796875	1	lower	amplitud.ttf
784164	WORD	wordpools/wasnorm_wordpool_less_exclusions.txt	LTP229	ltpFR	8	4	0	WINGS	1614	n/a	n/a	0	n/a	0	0	0	0.57763671875	0.412841796875	1	lower	amplitud.ttf
790154	REC_START	n/a	LTP229	ltpFR	8	4	n/a	n/a	n/a	n/a	n/a	n/a	n/a	0	0	0	n/a	n/a	n/a	n/a	n/a
790977	REC_WORD	wordpools/wasnorm_wordpool_less_exclusions.txt	LTP229	ltpFR	8	4	0	WINGS	1614	n/a	n/a	0	n/a	0	0	0	n/a	n/a	n/a	n/a	n/a
792339	REC_WORD	wordpools/wasnorm_wordpool_less_exclusions.txt	LTP229	ltpFR	8	4	0	COOK	372	n/a	n/a	1	n/a	0	0	0	n/a	n/a	n/a	n/a	n/a
795257	REC_WORD	wordpools/wasnorm_wordpool_less_exclusions.txt	LTP229	ltpFR	8	4	0	GALAXY	617	n/a	n/a	1	n/a	0	0	0	n/a	n/a	n/a	n/a	n/a
796609	REC_WORD	wordpools/wasnorm_wordpool_less_exclusions.txt	LTP229	ltpFR	8	4	1	TIGER	1467	n/a	n/a	1	n/a	0	0	0	n/a	n/a	n/a	n/a	n/a
798136	REC_WORD	wordpools/wasnorm_wordpool_less_exclusions.txt	LTP229	ltpFR	8	4	0	ATLAS	53	n/a	n/a	0	n/a	0	0	0	n/a	n/a	n/a	n/a	n/a
799672	REC_WORD	wordpools/wasnorm_wordpool_less_exclusions.txt	LTP229	ltpFR	8	4	0	CAGE	218	n/a	n/a	0	n/a	0	0	0	n/a	n/a	n/a	n/a	n/a
801059	REC_WORD	wordpools/wasnorm_wordpool_less_exclusions.txt	LTP229	ltpFR	8	4	1	BIBLE	124	n/a	n/a	0	n/a	0	0	0	n/a	n/a	n/a	n/a	n/a
802670	REC_WORD	wordpools/wasnorm_wordpool_less_exclusions.txt	LTP229	ltpFR	8	4	1	TORCH	1484	n/a	n/a	0	n/a	0	0	0	n/a	n/a	n/a	n/a	n/a
804172	REC_WORD	wordpools/wasnorm_wordpool_less_exclusions.txt	LTP229	ltpFR	8	4	1	FARM	552	n/a	n/a	1	n/a	0	0	0	n/a	n/a	n/a	n/a	n/a
807844	REC_WORD	wordpools/wasnorm_wordpool_less_exclusions.txt	LTP229	ltpFR	8	4	0	RACCOON	1153	n/a	n/a	1	n/a	0	0	0	n/a	n/a	n/a	n/a	n/a
813586	REC_WORD	wordpools/wasnorm_wordpool_less_exclusions.txt	LTP229	ltpFR	8	4	1	PELICAN	1039	n/a	n/a	1	n/a	0	0	0	n/a	n/a	n/a	n/a	n/a
814813	REC_WORD	wordpools/wasnorm_wordpool_less_exclusions.txt	LTP229	ltpFR	8	4	1	SEAGULL	1261	n/a	n/a	1	n/a	0	0	0	n/a	n/a	n/a	n/a	n/a
854498	REC_WORD	wordpools/wasnorm_wordpool_less_exclusions.txt	LTP229	ltpFR	8	4	0	COOK	372	n/a	n/a	1	n/a	0	0	0	n/a	n/a	n/a	n/a	n/a
856478	REC_WORD	wordpools/wasnorm_wordpool_less_exclusions.txt	LTP229	ltpFR	8	4	1	MINER	896	n/a	n/a	1	n/a	0	0	0	n/a	n/a	n/a	n/a	n/a
872998	WORD	wordpools/wasnorm_wordpool_less_exclusions.txt	LTP229	ltpFR	8	5	1	CONTRACTOR	369	n/a	n/a	1	n/a	0	0	0	0.422607421875	0.5869140625	0	upper	zerothre.ttf
876996	WORD	wordpools/wasnorm_wordpool_less_exclusions.txt	LTP229	ltpFR	8	5	1	TREAD	1499	n/a	n/a	0	n/a	0	0	0	0.422607421875	0.5869140625	0	upper	zerothre.ttf
881128	WORD	wordpools/wasnorm_wordpool_less_exclusions.txt	LTP229	ltpFR	8	5	1	BEAVER	109	n/a	n/a	1	n/a	0	0	0	0.422607421875	0.5869140625	0	upper	zerothre.ttf
884956	WORD	wordpools/wasnorm_wordpool_less_exclusions.txt	LTP229	ltpFR	8	5	0	MOTEL	919	n/a	n/a	1	n/a	0	0	0	0.57763671875	0.412841796875	1	lower	amplitud.ttf
889021	WORD	wordpools/wasnorm_wordpool_less_exclusions.txt	LTP229	ltpFR	8	5	0	VESSEL	1558	n/a	n/a	1	n/a	0	0	0	0.57763671875	0.412841796875	1	lower	amplitud.ttf
892889	WORD	wordpools/wasnorm_wordpool_less_exclusions.txt	LTP229	ltpFR	8	5	1	PIER	1063	n/a	n/a	0	n/a	0	0	0	0.422607421875	0.5869140625	0	upper	zerothre.ttf
896951	WORD	wordpools/wasnorm_wordpool_less_exclusions.txt	LTP229	ltpFR	8	5	1	KEEPER	769	n/a	n/a	1	n/a	0	0	0	0.422607421875	0.5869140625	0	upper	zerothre.ttf
900869	WORD	wordpools/wasnorm_wordpool_less_exclusions.txt	LTP229	ltpFR	8	5	1	CELLO	268	n/a	n/a	1	n/a	0	0	0	0.422607421875	0.5869140625	0	upper	zerothre.ttf
905048	WORD	wordpools/wasnorm_wordpool_less_exclusions.txt	LTP229	ltpFR	8	5	1	SOFTBALL	1343	n/a	n/a	1	n/a	0	0	0	0.422607421875	0.5869140625	0	upper	zerothre.ttf
909017	WORD	wordpools/wasnorm_wordpool_less_exclusions.txt	LTP229	ltpFR	8	5	1	SHRIMP	1297	n/a	n/a	1	n/a	0	0	0	0.422607421875	0.5869140625	0	upper	zerothre.ttf
913099	WORD	wordpools/wasnorm_wordpool_less_exclusions.txt	LTP229	ltpFR	8	5	0	HOOK	715	n/a	n/a	0	n/a	0	0	0	0.57763671875	0.412841796875	1	lower	amplitud.ttf
916963	WORD	wordpools/wasnorm_wordpool_less_exclusions.txt	LTP229	ltpFR	8	5	0	PLANET	1082	n/a	n/a	1	n/a	0	0	0	0.57763671875	0.412841796875	1	lower	amplitud.ttf
920795	WORD	wordpools/wasnorm_wordpool_less_exclusions.txt	LTP229	ltpFR	8	5	0	FLOWER	584	n/a	n/a	1	n/a	0	0	0	0.57763671875	0.412841796875	1	lower	amplitud.ttf
924823	WORD	wordpools/wasnorm_wordpool_less_exclusions.txt	LTP229	ltpFR	8	5	0	ATMOSPHERE	54	n/a	n/a	1	n/a	0	0	0	0.57763671875	0.412841796875	1	lower	amplitud.ttf
928674	WORD	wordpools/wasnorm_wordpool_less_exclusions.txt	LTP229	ltpFR	8	5	0	ROOM	1206	n/a	n/a	1	n/a	0	0	0	0.57763671875	0.412841796875	1	lower	amplitud.ttf
932552	WORD	wordpools/wasnorm_wordpool_less_exclusions.txt	LTP229	ltpFR	8	5	0	VIOLIN	1571	n/a	n/a	1	n/a	0	0	0	0.57763671875	0.412841796875	1	lower	amplitud.ttf
935567	START	n/a	LTP229	ltpFR	8	n/a	n/a	n/a	n/a	n/a	n/a	n/a	n/a	n/a	n/a	n/a	n/a	n/a	n/a	n/a	n/a
936520	PROB	n/a	LTP229	ltpFR	8	n/a	n/a	n/a	n/a	n/a	n/a	n/a	25	7	9	8	n/a	n/a	n/a	n/a	n/a
943360	STOP	n/a	LTP229	ltpFR	8	n/a	n/a	n/a	n/a	n/a	n/a	n/a	n/a	n/a	n/a	n/a	n/a	n/a	n/a	n/a	n/a
945421	REC_START	n/a	LTP229	ltpFR	8	5	n/a	n/a	n/a	n/a	n/a	n/a	n/a	0	0	0	n/a	n/a	n/a	n/a	n/a
946394	REC_WORD	wordpools/wasnorm_wordpool_less_exclusions.txt	LTP229	ltpFR	8	5	1	CELLO	268	n/a	n/a	1	n/a	0	0	0	n/a	n/a	n/a	n/a	n/a
947506	REC_WORD	wordpools/wasnorm_wordpool_less_exclusions.txt	LTP229	ltpFR	8	5	0	VIOLIN	1571	n/a	n/a	1	n/a	0	0	0	n/a	n/a	n/a	n/a	n/a
951238	REC_WORD	wordpools/wasnorm_wordpool_less_exclusions.txt	LTP229	ltpFR	8	5	1	TREAD	1499	n/a	n/a	0	n/a	0	0	0	n/a	n/a	n/a	n/a	n/a
956027	REC_WORD	wordpools/wasnorm_wordpool_less_exclusions.txt	LTP229	ltpFR	8	5	1	SOFTBALL	1343	n/a	n/a	1	n/a	0	0	0	n/a	n/a	n/a	n/a	n/a
965909	REC_WORD	wordpools/wasnorm_wordpool_less_exclusions.txt	LTP229	ltpFR	8	5	0	FLOWER	584	n/a	n/a	1	n/a	0	0	0	n/a	n/a	n/a	n/a	n/a
969760	REC_WORD	wordpools/wasnorm_wordpool_less_exclusions.txt	LTP229	ltpFR	8	5	0	ROOM	1206	n/a	n/a	1	n/a	0	0	0	n/a	n/a	n/a	n/a	n/a
988797	REC_WORD	wordpools/wasnorm_wordpool_less_exclusions.txt	LTP229	ltpFR	8	5	1	SHRIMP	1297	n/a	n/a	1	n/a	0	0	0	n/a	n/a	n/a	n/a	n/a
992529	REC_WORD	wordpools/wasnorm_wordpool_less_exclusions.txt	LTP229	ltpFR	8	5	0	ATMOSPHERE	54	n/a	n/a	1	n/a	0	0	0	n/a	n/a	n/a	n/a	n/a
1009550	REC_WORD	wordpools/wasnorm_wordpool_less_exclusions.txt	LTP229	ltpFR	8	5	0	VESSEL	1558	n/a	n/a	1	n/a	0	0	0	n/a	n/a	n/a	n/a	n/a
1018385	REC_WORD	wordpools/wasnorm_wordpool_less_exclusions.txt	LTP229	ltpFR	8	5	1	CONTRACTOR	369	n/a	n/a	1	n/a	0	0	0	n/a	n/a	n/a	n/a	n/a
1022295	START	n/a	LTP229	ltpFR	8	n/a	n/a	n/a	n/a	n/a	n/a	n/a	n/a	n/a	n/a	n/a	n/a	n/a	n/a	n/a	n/a
1023812	PROB	n/a	LTP229	ltpFR	8	n/a	n/a	n/a	n/a	n/a	n/a	n/a	16	5	6	5	n/a	n/a	n/a	n/a	n/a
1025904	PROB	n/a	LTP229	ltpFR	8	n/a	n/a	n/a	n/a	n/a	n/a	n/a	19	9	2	7	n/a	n/a	n/a	n/a	n/a
1030294	STOP	n/a	LTP229	ltpFR	8	n/a	n/a	n/a	n/a	n/a	n/a	n/a	n/a	n/a	n/a	n/a	n/a	n/a	n/a	n/a	n/a
1031195	WORD	wordpools/wasnorm_wordpool_less_exclusions.txt	LTP229	ltpFR	8	6	0	UNIFORM	1539	n/a	n/a	n/a	n/a	0	0	0	0.57763671875	0.412841796875	1	lower	amplitud.ttf
1034240	SLOW_MSG	n/a	LTP229	ltpFR	8	6	n/a	n/a	n/a	n/a	n/a	n/a	n/a	0	0	0	n/a	n/a	n/a	n/a	n/a
1035762	START	n/a	LTP229	ltpFR	8	n/a	n/a	n/a	n/a	n/a	n/a	n/a	n/a	n/a	n/a	n/a	n/a	n/a	n/a	n/a	n/a
1036648	PROB	n/a	LTP229	ltpFR	8	n/a	n/a	n/a	n/a	n/a	n/a	n/a	13	5	3	3	n/a	n/a	n/a	n/a	n/a
1040760	PROB	n/a	LTP229	ltpFR	8	n/a	n/a	n/a	n/a	n/a	n/a	n/a	9	5	2	2	n/a	n/a	n/a	n/a	n/a
1042296	STOP	n/a	LTP229	ltpFR	8	n/a	n/a	n/a	n/a	n/a	n/a	n/a	n/a	n/a	n/a	n/a	n/a	n/a	n/a	n/a	n/a
1044658	WORD	wordpools/wasnorm_wordpool_less_exclusions.txt	LTP229	ltpFR	8	6	0	MISTER	901	n/a	n/a	1	n/a	0	0	0	0.57763671875	0.412841796875	1	lower	amplitud.ttf
1047673	START	n/a	LTP229	ltpFR	8	n/a	n/a	n/a	n/a	n/a	n/a	n/a	n/a	n/a	n/a	n/a	n/a	n/a	n/a	n/a	n/a
1048676	PROB	n/a	LTP229	ltpFR	8	n/a	n/a	n/a	n/a	n/a	n/a	n/a	13	2	4	7	n/a	n/a	n/a	n/a	n/a
1055673	STOP	n/a	LTP229	ltpFR	8	n/a	n/a	n/a	n/a	n/a	n/a	n/a	n/a	n/a	n/a	n/a	n/a	n/a	n/a	n/a	n/a
1056790	WORD	wordpools/wasnorm_wordpool_less_exclusions.txt	LTP229	ltpFR	8	6	1	JOURNAL	760	n/a	n/a	1	n/a	0	0	0	0.422607421875	0.5869140625	0	upper	zerothre.ttf
1059802	START	n/a	LTP229	ltpFR	8	n/a	n/a	n/a	n/a	n/a	n/a	n/a	n/a	n/a	n/a	n/a	n/a	n/a	n/a	n/a	n/a
1060839	PROB	n/a	LTP229	ltpFR	8	n/a	n/a	n/a	n/a	n/a	n/a	n/a	6	4	1	1	n/a	n/a	n/a	n/a	n/a
1062759	PROB	n/a	LTP229	ltpFR	8	n/a	n/a	n/a	n/a	n/a	n/a	n/a	7	1	4	2	n/a	n/a	n/a	n/a	n/a
1067802	STOP	n/a	LTP229	ltpFR	8	n/a	n/a	n/a	n/a	n/a	n/a	n/a	n/a	n/a	n/a	n/a	n/a	n/a	n/a	n/a	n/a
1068702	WORD	wordpools/wasnorm_wordpool_less_exclusions.txt	LTP229	ltpFR	8	6	1	LITERATURE	831	n/a	n/a	0	n/a	0	0	0	0.422607421875	0.5869140625	0	upper	zerothre.ttf
1071714	START	n/a	LTP229	ltpFR	8	n/a	n/a	n/a	n/a	n/a	n/a	n/a	n/a	n/a	n/a	n/a	n/a	n/a	n/a	n/a	n/a
1072700	PROB	n/a	LTP229	ltpFR	8	n/a	n/a	n/a	n/a	n/a	n/a	n/a	12	1	6	5	n/a	n/a	n/a	n/a	n/a
1076678	PROB	n/a	LTP229	ltpFR	8	n/a	n/a	n/a	n/a	n/a	n/a	n/a	20	8	4	9	n/a	n/a	n/a	n/a	n/a
1079671	STOP	n/a	LTP229	ltpFR	8	n/a	n/a	n/a	n/a	n/a	n/a	n/a	n/a	n/a	n/a	n/a	n/a	n/a	n/a	n/a	n/a
1080881	WORD	wordpools/wasnorm_wordpool_less_exclusions.txt	LTP229	ltpFR	8	6	1	PERSON	1052	n/a	n/a	1	n/a	0	0	0	0.422607421875	0.5869140625	0	upper	zerothre.ttf
1083893	START	n/a	LTP229	ltpFR	8	n/a	n/a	n/a	n/a	n/a	n/a	n/a	n/a	n/a	n/a	n/a	n/a	n/a	n/a	n/a	n/a
1085043	PROB	n/a	LTP229	ltpFR	8	n/a	n/a	n/a	n/a	n/a	n/a	n/a	13	4	8	1	n/a	n/a	n/a	n/a	n/a
1087038	PROB	n/a	LTP229	ltpFR	8	n/a	n/a	n/a	n/a	n/a	n/a	n/a	8	6	1	1	n/a	n/a	n/a	n/a	n/a
1088577	PROB	n/a	LTP229	ltpFR	8	n/a	n/a	n/a	n/a	n/a	n/a	n/a	18	5	4	9	n/a	n/a	n/a	n/a	n/a
1091893	STOP	n/a	LTP229	ltpFR	8	n/a	n/a	n/a	n/a	n/a	n/a	n/a	n/a	n/a	n/a	n/a	n/a	n/a	n/a	n/a	n/a
1092726	WORD	wordpools/wasnorm_wordpool_less_exclusions.txt	LTP229	ltpFR	8	6	1	EAGLE	512	n/a	n/a	1	n/a	0	0	0	0.422607421875	0.5869140625	0	upper	zerothre.ttf
1095738	START	n/a	LTP229	ltpFR	8	n/a	n/a	n/a	n/a	n/a	n/a	n/a	n/a	n/a	n/a	n/a	n/a	n/a	n/a	n/a	n/a
1096641	PROB	n/a	LTP229	ltpFR	8	n/a	n/a	n/a	n/a	n/a	n/a	n/a	13	9	1	3	n/a	n/a	n/a	n/a	n/a
1098577	PROB	n/a	LTP229	ltpFR	8	n/a	n/a	n/a	n/a	n/a	n/a	n/a	24	8	8	8	n/a	n/a	n/a	n/a	n/a
1103738	STOP	n/a	LTP229	ltpFR	8	n/a	n/a	n/a	n/a	n/a	n/a	n/a	n/a	n/a	n/a	n/a	n/a	n/a	n/a	n/a	n/a
1104935	WORD	wordpools/wasnorm_wordpool_less_exclusions.txt	LTP229	ltpFR	8	6	0	KNEE	784	n/a	n/a	0	n/a	0	0	0	0.57763671875	0.412841796875	1	lower	amplitud.ttf
1107950	START	n/a	LTP229	ltpFR	8	n/a	n/a	n/a	n/a	n/a	n/a	n/a	n/a	n/a	n/a	n/a	n/a	n/a	n/a	n/a	n/a
1109037	PROB	n/a	LTP229	ltpFR	8	n/a	n/a	n/a	n/a	n/a	n/a	n/a	12	1	5	6	n/a	n/a	n/a	n/a	n/a
1110773	PROB	n/a	LTP229	ltpFR	8	n/a	n/a	n/a	n/a	n/a	n/a	n/a	11	7	3	1	n/a	n/a	n/a	n/a	n/a
1112180	PROB	n/a	LTP229	ltpFR	8	n/a	n/a	n/a	n/a	n/a	n/a	n/a	18	6	6	6	n/a	n/a	n/a	n/a	n/a
1113655	PROB	n/a	LTP229	ltpFR	8	n/a	n/a	n/a	n/a	n/a	n/a	n/a	20	8	4	6	n/a	n/a	n/a	n/a	n/a
1115887	STOP	n/a	LTP229	ltpFR	8	n/a	n/a	n/a	n/a	n/a	n/a	n/a	n/a	n/a	n/a	n/a	n/a	n/a	n/a	n/a	n/a
1117131	WORD	wordpools/wasnorm_wordpool_less_exclusions.txt	LTP229	ltpFR	8	6	0	WRIST	1626	n/a	n/a	1	n/a	0	0	0	0.57763671875	0.412841796875	1	lower	amplitud.ttf
1120146	START	n/a	LTP229	ltpFR	8	n/a	n/a	n/a	n/a	n/a	n/a	n/a	n/a	n/a	n/a	n/a	n/a	n/a	n/a	n/a	n/a
1121083	PROB	n/a	LTP229	ltpFR	8	n/a	n/a	n/a	n/a	n/a	n/a	n/a	18	9	1	8	n/a	n/a	n/a	n/a	n/a
1124007	PROB	n/a	LTP229	ltpFR	8	n/a	n/a	n/a	n/a	n/a	n/a	n/a	14	7	6	1	n/a	n/a	n/a	n/a	n/a
1128145	STOP	n/a	LTP229	ltpFR	8	n/a	n/a	n/a	n/a	n/a	n/a	n/a	n/a	n/a	n/a	n/a	n/a	n/a	n/a	n/a	n/a
1129261	WORD	wordpools/wasnorm_wordpool_less_exclusions.txt	LTP229	ltpFR	8	6	0	GAZELLE	628	n/a	n/a	1	n/a	0	0	0	0.57763671875	0.412841796875	1	lower	amplitud.ttf
1132276	START	n/a	LTP229	ltpFR	8	n/a	n/a	n/a	n/a	n/a	n/a	n/a	n/a	n/a	n/a	n/a	n/a	n/a	n/a	n/a	n/a
1133330	PROB	n/a	LTP229	ltpFR	8	n/a	n/a	n/a	n/a	n/a	n/a	n/a	12	3	3	6	n/a	n/a	n/a	n/a	n/a
1140276	STOP	n/a	LTP229	ltpFR	8	n/a	n/a	n/a	n/a	n/a	n/a	n/a	n/a	n/a	n/a	n/a	n/a	n/a	n/a	n/a	n/a
1141443	WORD	wordpools/wasnorm_wordpool_less_exclusions.txt	LTP229	ltpFR	8	6	0	PRIMATE	1123	n/a	n/a	1	n/a	0	0	0	0.57763671875	0.412841796875	1	lower	amplitud.ttf
1144455	START	n/a	LTP229	ltpFR	8	n/a	n/a	n/a	n/a	n/a	n/a	n/a	n/a	n/a	n/a	n/a	n/a	n/a	n/a	n/a	n/a
1145475	PROB	n/a	LTP229	ltpFR	8	n/a	n/a	n/a	n/a	n/a	n/a	n/a	14	4	4	6	n/a	n/a	n/a	n/a	n/a
1152454	STOP	n/a	LTP229	ltpFR	8	n/a	n/a	n/a	n/a	n/a	n/a	n/a	n/a	n/a	n/a	n/a	n/a	n/a	n/a	n/a	n/a
1153388	WORD	wordpools/wasnorm_wordpool_less_exclusions.txt	LTP229	ltpFR	8	6	1	PEOPLE	1046	n/a	n/a	1	n/a	0	0	0	0.422607421875	0.5869140625	0	upper	zerothre.ttf
1156400	START	n/a	LTP229	ltpFR	8	n/a	n/a	n/a	n/a	n/a	n/a	n/a	n/a	n/a	n/a	n/a	n/a	n/a	n/a	n/a	n/a
1157520	PROB	n/a	LTP229	ltpFR	8	n/a	n/a	n/a	n/a	n/a	n/a	n/a	10	6	3	1	n/a	n/a	n/a	n/a	n/a
1159345	PROB	n/a	LTP229	ltpFR	8	n/a	n/a	n/a	n/a	n/a	n/a	n/a	21	5	8	8	n/a	n/a	n/a	n/a	n/a
1164399	STOP	n/a	LTP229	ltpFR	8	n/a	n/a	n/a	n/a	n/a	n/a	n/a	n/a	n/a	n/a	n/a	n/a	n/a	n/a	n/a	n/a
1165463	WORD	wordpools/wasnorm_wordpool_less_exclusions.txt	LTP229	ltpFR	8	6	1	PERCH	1048	n/a	n/a	0	n/a	0	0	0	0.422607421875	0.5869140625	0	upper	zerothre.ttf
1168478	START	n/a	LTP229	ltpFR	8	n/a	n/a	n/a	n/a	n/a	n/a	n/a	n/a	n/a	n/a	n/a	n/a	n/a	n/a	n/a	n/a
1169632	PROB	n/a	LTP229	ltpFR	8	n/a	n/a	n/a	n/a	n/a	n/a	n/a	16	3	9	4	n/a	n/a	n/a	n/a	n/a
1174975	STOP	n/a	LTP229	ltpFR	8	n/a	n/a	n/a	n/a	n/a	n/a	n/a	n/a	n/a	n/a	n/a	n/a	n/a	n/a	n/a	n/a
1177625	WORD	wordpools/wasnorm_wordpool_less_exclusions.txt	LTP229	ltpFR	8	6	1	PAGE	1001	n/a	n/a	0	n/a	0	0	0	0.422607421875	0.5869140625	0	upper	zerothre.ttf
1180641	START	n/a	LTP229	ltpFR	8	n/a	n/a	n/a	n/a	n/a	n/a	n/a	n/a	n/a	n/a	n/a	n/a	n/a	n/a	n/a	n/a
1181774	PROB	n/a	LTP229	ltpFR	8	n/a	n/a	n/a	n/a	n/a	n/a	n/a	3	1	1	1	n/a	n/a	n/a	n/a	n/a
1183581	PROB	n/a	LTP229	ltpFR	8	n/a	n/a	n/a	n/a	n/a	n/a	n/a	17	9	2	6	n/a	n/a	n/a	n/a	n/a
1188007	STOP	n/a	LTP229	ltpFR	8	n/a	n/a	n/a	n/a	n/a	n/a	n/a	n/a	n/a	n/a	n/a	n/a	n/a	n/a	n/a	n/a
1189624	WORD	wordpools/wasnorm_wordpool_less_exclusions.txt	LTP229	ltpFR	8	6	1	SHIRT	1287	n/a	n/a	0	n/a	0	0	0	0.422607421875	0.5869140625	0	upper	zerothre.ttf
1192636	START	n/a	LTP229	ltpFR	8	n/a	n/a	n/a	n/a	n/a	n/a	n/a	n/a	n/a	n/a	n/a	n/a	n/a	n/a	n/a	n/a
1193656	PROB	n/a	LTP229	ltpFR	8	n/a	n/a	n/a	n/a	n/a	n/a	n/a	10	6	2	2	n/a	n/a	n/a	n/a	n/a
1196463	PROB	n/a	LTP229	ltpFR	8	n/a	n/a	n/a	n/a	n/a	n/a	n/a	10	8	1	1	n/a	n/a	n/a	n/a	n/a
1200636	STOP	n/a	LTP229	ltpFR	8	n/a	n/a	n/a	n/a	n/a	n/a	n/a	n/a	n/a	n/a	n/a	n/a	n/a	n/a	n/a	n/a
1201499	WORD	wordpools/wasnorm_wordpool_less_exclusions.txt	LTP229	ltpFR	8	6	0	TOURIST	1488	n/a	n/a	1	n/a	0	0	0	0.57763671875	0.412841796875	1	lower	amplitud.ttf
1204514	START	n/a	LTP229	ltpFR	8	n/a	n/a	n/a	n/a	n/a	n/a	n/a	n/a	n/a	n/a	n/a	n/a	n/a	n/a	n/a	n/a
1205368	PROB	n/a	LTP229	ltpFR	8	n/a	n/a	n/a	n/a	n/a	n/a	n/a	21	8	4	9	n/a	n/a	n/a	n/a	n/a
1212514	STOP	n/a	LTP229	ltpFR	8	n/a	n/a	n/a	n/a	n/a	n/a	n/a	n/a	n/a	n/a	n/a	n/a	n/a	n/a	n/a	n/a
1213414	WORD	wordpools/wasnorm_wordpool_less_exclusions.txt	LTP229	ltpFR	8	6	0	TRUCK	1512	n/a	n/a	1	n/a	0	0	0	0.57763671875	0.412841796875	1	lower	amplitud.ttf
1216426	START	n/a	LTP229	ltpFR	8	n/a	n/a	n/a	n/a	n/a	n/a	n/a	n/a	n/a	n/a	n/a	n/a	n/a	n/a	n/a	n/a
1217496	PROB	n/a	LTP229	ltpFR	8	n/a	n/a	n/a	n/a	n/a	n/a	n/a	21	8	3	9	n/a	n/a	n/a	n/a	n/a
1221072	PROB	n/a	LTP229	ltpFR	8	n/a	n/a	n/a	n/a	n/a	n/a	n/a	12	3	1	8	n/a	n/a	n/a	n/a	n/a
1224272	STOP	n/a	LTP229	ltpFR	8	n/a	n/a	n/a	n/a	n/a	n/a	n/a	n/a	n/a	n/a	n/a	n/a	n/a	n/a	n/a	n/a
1226197	REC_START	n/a	LTP229	ltpFR	8	6	n/a	n/a	n/a	n/a	n/a	n/a	n/a	0	0	0	n/a	n/a	n/a	n/a	n/a
1227135	REC_WORD	wordpools/wasnorm_wordpool_less_exclusions.txt	LTP229	ltpFR	8	6	1	PERCH	1048	n/a	n/a	0	n/a	0	0	0	n/a	n/a	n/a	n/a	n/a
1229215	REC_WORD	wordpools/wasnorm_wordpool_less_exclusions.txt	LTP229	ltpFR	8	6	1	PERSON	1052	n/a	n/a	1	n/a	0	0	0	n/a	n/a	n/a	n/a	n/a
1230722	REC_WORD	wordpools/wasnorm_wordpool_less_exclusions.txt	LTP229	ltpFR	8	6	1	PEOPLE	1046	n/a	n/a	1	n/a	0	0	0	n/a	n/a	n/a	n/a	n/a
1233196	REC_WORD	wordpools/wasnorm_wordpool_less_exclusions.txt	LTP229	ltpFR	8	6	1	LITERATURE	831	n/a	n/a	0	n/a	0	0	0	n/a	n/a	n/a	n/a	n/a
1234688	REC_WORD	wordpools/wasnorm_wordpool_less_exclusions.txt	LTP229	ltpFR	8	6	1	JOURNAL	760	n/a	n/a	1	n/a	0	0	0	n/a	n/a	n/a	n/a	n/a
1236109	REC_WORD	wordpools/wasnorm_wordpool_less_exclusions.txt	LTP229	ltpFR	8	6	1	PAGE	1001	n/a	n/a	0	n/a	0	0	0	n/a	n/a	n/a	n/a	n/a
1239322	REC_WORD	wordpools/wasnorm_wordpool_less_exclusions.txt	LTP229	ltpFR	8	6	0	MISTER	901	n/a	n/a	1	n/a	0	0	0	n/a	n/a	n/a	n/a	n/a
1249299	REC_WORD	wordpools/wasnorm_wordpool_less_exclusions.txt	LTP229	ltpFR	8	6	0	PRIMATE	1123	n/a	n/a	1	n/a	0	0	0	n/a	n/a	n/a	n/a	n/a
1265326	REC_WORD_VV	wordpools/wasnorm_wordpool_less_exclusions.txt	LTP229	ltpFR	8	6	n/a	<>	-1	n/a	n/a	n/a	n/a	0	0	0	n/a	n/a	n/a	n/a	n/a
1266326	REC_WORD_VV	wordpools/wasnorm_wordpool_less_exclusions.txt	LTP229	ltpFR	8	6	n/a	<>	-1	n/a	n/a	n/a	n/a	0	0	0	n/a	n/a	n/a	n/a	n/a
1289578	REC_WORD	wordpools/wasnorm_wordpool_less_exclusions.txt	LTP229	ltpFR	8	6	0	PASSENGER	1020	n/a	n/a	1	n/a	0	0	0	n/a	n/a	n/a	n/a	n/a
1305010	START	n/a	LTP229	ltpFR	8	n/a	n/a	n/a	n/a	n/a	n/a	n/a	n/a	n/a	n/a	n/a	n/a	n/a	n/a	n/a	n/a
1306515	PROB	n/a	LTP229	ltpFR	8	n/a	n/a	n/a	n/a	n/a	n/a	n/a	4	1	2	1	n/a	n/a	n/a	n/a	n/a
1309041	PROB	n/a	LTP229	ltpFR	8	n/a	n/a	n/a	n/a	n/a	n/a	n/a	23	6	8	9	n/a	n/a	n/a	n/a	n/a
1316017	PROB	n/a	LTP229	ltpFR	8	n/a	n/a	n/a	n/a	n/a	n/a	n/a	9	1	5	3	n/a	n/a	n/a	n/a	n/a
1321010	STOP	n/a	LTP229	ltpFR	8	n/a	n/a	n/a	n/a	n/a	n/a	n/a	n/a	n/a	n/a	n/a	n/a	n/a	n/a	n/a	n/a
1322225	WORD	wordpools/wasnorm_wordpool_less_exclusions.txt	LTP229	ltpFR	8	7	0	HAND	683	n/a	n/a	1	n/a	0	0	0	0.57763671875	0.412841796875	1	lower	amplitud.ttf
1325237	START	n/a	LTP229	ltpFR	8	n/a	n/a	n/a	n/a	n/a	n/a	n/a	n/a	n/a	n/a	n/a	n/a	n/a	n/a	n/a	n/a
1326157	PROB	n/a	LTP229	ltpFR	8	n/a	n/a	n/a	n/a	n/a	n/a	n/a	12	3	1	8	n/a	n/a	n/a	n/a	n/a
1327841	PROB	n/a	LTP229	ltpFR	8	n/a	n/a	n/a	n/a	n/a	n/a	n/a	8	1	7	4	n/a	n/a	n/a	n/a	n/a
1329448	PROB	n/a	LTP229	ltpFR	8	n/a	n/a	n/a	n/a	n/a	n/a	n/a	12	1	6	5	n/a	n/a	n/a	n/a	n/a
1341237	STOP	n/a	LTP229	ltpFR	8	n/a	n/a	n/a	n/a	n/a	n/a	n/a	n/a	n/a	n/a	n/a	n/a	n/a	n/a	n/a	n/a
1342149	WORD	wordpools/wasnorm_wordpool_less_exclusions.txt	LTP229	ltpFR	8	7	0	ELBOW	520	n/a	n/a	1	n/a	0	0	0	0.57763671875	0.412841796875	1	lower	amplitud.ttf
1345162	START	n/a	LTP229	ltpFR	8	n/a	n/a	n/a	n/a	n/a	n/a	n/a	n/a	n/a	n/a	n/a	n/a	n/a	n/a	n/a	n/a
1346030	PROB	n/a	LTP229	ltpFR	8	n/a	n/a	n/a	n/a	n/a	n/a	n/a	19	4	9	6	n/a	n/a	n/a	n/a	n/a
1350092	PROB	n/a	LTP229	ltpFR	8	n/a	n/a	n/a	n/a	n/a	n/a	n/a	18	6	9	3	n/a	n/a	n/a	n/a	n/a
1352505	PROB	n/a	LTP229	ltpFR	8	n/a	n/a	n/a	n/a	n/a	n/a	n/a	18	5	7	6	n/a	n/a	n/a	n/a	n/a
1357018	PROB	n/a	LTP229	ltpFR	8	n/a	n/a	n/a	n/a	n/a	n/a	n/a	16	5	6	5	n/a	n/a	n/a	n/a	n/a
1360463	STOP	n/a	LTP229	ltpFR	8	n/a	n/a	n/a	n/a	n/a	n/a	n/a	n/a	n/a	n/a	n/a	n/a	n/a	n/a	n/a	n/a
1362205	WORD	wordpools/wasnorm_wordpool_less_exclusions.txt	LTP229	ltpFR	8	7	0	IDOL	733	n/a	n/a	1	n/a	0	0	0	0.57763671875	0.412841796875	1	lower	amplitud.ttf
1365221	START	n/a	LTP229	ltpFR	8	n/a	n/a	n/a	n/a	n/a	n/a	n/a	n/a	n/a	n/a	n/a	n/a	n/a	n/a	n/a	n/a
1366424	PROB	n/a	LTP229	ltpFR	8	n/a	n/a	n/a	n/a	n/a	n/a	n/a	15	6	3	6	n/a	n/a	n/a	n/a	n/a
1371088	PROB	n/a	LTP229	ltpFR	8	n/a	n/a	n/a	n/a	n/a	n/a	n/a	16	4	9	3	n/a	n/a	n/a	n/a	n/a
1375926	PROB	n/a	LTP229	ltpFR	8	n/a	n/a	n/a	n/a	n/a	n/a	n/a	10	6	1	3	n/a	n/a	n/a	n/a	n/a
1381221	STOP	n/a	LTP229	ltpFR	8	n/a	n/a	n/a	n/a	n/a	n/a	n/a	n/a	n/a	n/a	n/a	n/a	n/a	n/a	n/a	n/a
1382285	WORD	wordpools/wasnorm_wordpool_less_exclusions.txt	LTP229	ltpFR	8	7	0	CHEDDAR	286	n/a	n/a	0	n/a	0	0	0	0.57763671875	0.412841796875	1	lower	amplitud.ttf
1385297	START	n/a	LTP229	ltpFR	8	n/a	n/a	n/a	n/a	n/a	n/a	n/a	n/a	n/a	n/a	n/a	n/a	n/a	n/a	n/a	n/a
1386399	PROB	n/a	LTP229	ltpFR	8	n/a	n/a	n/a	n/a	n/a	n/a	n/a	14	4	1	9	n/a	n/a	n/a	n/a	n/a
1390929	PROB	n/a	LTP229	ltpFR	8	n/a	n/a	n/a	n/a	n/a	n/a	n/a	18	8	7	3	n/a	n/a	n/a	n/a	n/a
1393539	PROB	n/a	LTP229	ltpFR	8	n/a	n/a	n/a	n/a	n/a	n/a	n/a	20	9	2	9	n/a	n/a	n/a	n/a	n/a
1396082	PROB	n/a	LTP229	ltpFR	8	n/a	n/a	n/a	n/a	n/a	n/a	n/a	9	3	3	3	n/a	n/a	n/a	n/a	n/a
1401297	STOP	n/a	LTP229	ltpFR	8	n/a	n/a	n/a	n/a	n/a	n/a	n/a	n/a	n/a	n/a	n/a	n/a	n/a	n/a	n/a	n/a
1402142	WORD	wordpools/wasnorm_wordpool_less_exclusions.txt	LTP229	ltpFR	8	7	0	LIP	828	n/a	n/a	0	n/a	0	0	0	0.57763671875	0.412841796875	1	lower	amplitud.ttf
1405155	START	n/a	LTP229	ltpFR	8	n/a	n/a	n/a	n/a	n/a	n/a	n/a	n/a	n/a	n/a	n/a	n/a	n/a	n/a	n/a	n/a
1406023	PROB	n/a	LTP229	ltpFR	8	n/a	n/a	n/a	n/a	n/a	n/a	n/a	15	6	5	4	n/a	n/a	n/a	n/a	n/a
1407793	PROB	n/a	LTP229	ltpFR	8	n/a	n/a	n/a	n/a	n/a	n/a	n/a	21	9	4	7	n/a	n/a	n/a	n/a	n/a
1412849	PROB	n/a	LTP229	ltpFR	8	n/a	n/a	n/a	n/a	n/a	n/a	n/a	7	1	5	1	n/a	n/a	n/a	n/a	n/a
1414836	PROB	n/a	LTP229	ltpFR	8	n/a	n/a	n/a	n/a	n/a	n/a	n/a	9	1	6	2	n/a	n/a	n/a	n/a	n/a
1416964	PROB	n/a	LTP229	ltpFR	8	n/a	n/a	n/a	n/a	n/a	n/a	n/a	15	9	1	5	n/a	n/a	n/a	n/a	n/a
1421154	STOP	n/a	LTP229	ltpFR	8	n/a	n/a	n/a	n/a	n/a	n/a	n/a	n/a	n/a	n/a	n/a	n/a	n/a	n/a	n/a	n/a
1422352	WORD	wordpools/wasnorm_wordpool_less_exclusions.txt	LTP229	ltpFR	8	7	0	KNAPSACK	783	n/a	n/a	0	n/a	0	0	0	0.57763671875	0.412841796875	1	lower	amplitud.ttf
1425364	START	n/a	LTP229	ltpFR	8	n/a	n/a	n/a	n/a	n/a	n/a	n/a	n/a	n/a	n/a	n/a	n/a	n/a	n/a	n/a	n/a
1426217	PROB	n/a	LTP229	ltpFR	8	n/a	n/a	n/a	n/a	n/a	n/a	n/a	23	9	8	6	n/a	n/a	n/a	n/a	n/a
1441364	STOP	n/a	LTP229	ltpFR	8	n/a	n/a	n/a	n/a	n/a	n/a	n/a	n/a	n/a	n/a	n/a	n/a	n/a	n/a	n/a	n/a
1442227	WORD	wordpools/wasnorm_wordpool_less_exclusions.txt	LTP229	ltpFR	8	7	0	OUTLAW	989	n/a	n/a	1	n/a	0	0	0	0.57763671875	0.412841796875	1	lower	amplitud.ttf
1445239	START	n/a	LTP229	ltpFR	8	n/a	n/a	n/a	n/a	n/a	n/a	n/a	n/a	n/a	n/a	n/a	n/a	n/a	n/a	n/a	n/a
1446141	PROB	n/a	LTP229	ltpFR	8	n/a	n/a	n/a	n/a	n/a	n/a	n/a	14	2	5	7	n/a	n/a	n/a	n/a	n/a
1448145	PROB	n/a	LTP229	ltpFR	8	n/a	n/a	n/a	n/a	n/a	n/a	n/a	11	6	3	2	n/a	n/a	n/a	n/a	n/a
1451157	PROB	n/a	LTP229	ltpFR	8	n/a	n/a	n/a	n/a	n/a	n/a	n/a	16	3	6	7	n/a	n/a	n/a	n/a	n/a
1456376	PROB	n/a	LTP229	ltpFR	8	n/a	n/a	n/a	n/a	n/a	n/a	n/a	13	6	5	2	n/a	n/a	n/a	n/a	n/a
1458885	PROB	n/a	LTP229	ltpFR	8	n/a	n/a	n/a	n/a	n/a	n/a	n/a	11	3	4	4	n/a	n/a	n/a	n/a	n/a
1461176	STOP	n/a	LTP229	ltpFR	8	n/a	n/a	n/a	n/a	n/a	n/a	n/a	n/a	n/a	n/a	n/a	n/a	n/a	n/a	n/a	n/a
1462419	WORD	wordpools/wasnorm_wordpool_less_exclusions.txt	LTP229	ltpFR	8	7	0	SUSPECT	1415	n/a	n/a	1	n/a	0	0	0	0.57763671875	0.412841796875	1	lower	amplitud.ttf
1465431	START	n/a	LTP229	ltpFR	8	n/a	n/a	n/a	n/a	n/a	n/a	n/a	n/a	n/a	n/a	n/a	n/a	n/a	n/a	n/a	n/a
1466335	PROB	n/a	LTP229	ltpFR	8	n/a	n/a	n/a	n/a	n/a	n/a	n/a	23	8	7	8	n/a	n/a	n/a	n/a	n/a
1469646	PROB	n/a	LTP229	ltpFR	8	n/a	n/a	n/a	n/a	n/a	n/a	n/a	18	5	7	6	n/a	n/a	n/a	n/a	n/a
1478530	PROB	n/a	LTP229	ltpFR	8	n/a	n/a	n/a	n/a	n/a	n/a	n/a	19	3	8	8	n/a	n/a	n/a	n/a	n/a
1481200	STOP	n/a	LTP229	ltpFR	8	n/a	n/a	n/a	n/a	n/a	n/a	n/a	n/a	n/a	n/a	n/a	n/a	n/a	n/a	n/a	n/a
1482312	WORD	wordpools/wasnorm_wordpool_less_exclusions.txt	LTP229	ltpFR	8	7	0	CRATER	400	n/a	n/a	1	n/a	0	0	0	0.57763671875	0.412841796875	1	lower	amplitud.ttf
1485324	START	n/a	LTP229	ltpFR	8	n/a	n/a	n/a	n/a	n/a	n/a	n/a	n/a	n/a	n/a	n/a	n/a	n/a	n/a	n/a	n/a
1486426	PROB	n/a	LTP229	ltpFR	8	n/a	n/a	n/a	n/a	n/a	n/a	n/a	16	5	6	5	n/a	n/a	n/a	n/a	n/a
1488180	PROB	n/a	LTP229	ltpFR	8	n/a	n/a	n/a	n/a	n/a	n/a	n/a	26	9	8	9	n/a	n/a	n/a	n/a	n/a
1490943	PROB	n/a	LTP229	ltpFR	8	n/a	n/a	n/a	n/a	n/a	n/a	n/a	6	4	1	1	n/a	n/a	n/a	n/a	n/a
1492512	PROB	n/a	LTP229	ltpFR	8	n/a	n/a	n/a	n/a	n/a	n/a	n/a	19	5	9	5	n/a	n/a	n/a	n/a	n/a
1494406	PROB	n/a	LTP229	ltpFR	8	n/a	n/a	n/a	n/a	n/a	n/a	n/a	15	2	6	7	n/a	n/a	n/a	n/a	n/a
1499040	PROB	n/a	LTP229	ltpFR	8	n/a	n/a	n/a	n/a	n/a	n/a	n/a	18	2	8	9	n/a	n/a	n/a	n/a	n/a
1500863	STOP	n/a	LTP229	ltpFR	8	n/a	n/a	n/a	n/a	n/a	n/a	n/a	n/a	n/a	n/a	n/a	n/a	n/a	n/a	n/a	n/a
1502153	WORD	wordpools/wasnorm_wordpool_less_exclusions.txt	LTP229	ltpFR	8	7	0	BROCCOLI	176	n/a	n/a	0	n/a	0	0	0	0.57763671875	0.412841796875	1	lower	amplitud.ttf
1505166	START	n/a	LTP229	ltpFR	8	n/a	n/a	n/a	n/a	n/a	n/a	n/a	n/a	n/a	n/a	n/a	n/a	n/a	n/a	n/a	n/a
1506168	PROB	n/a	LTP229	ltpFR	8	n/a	n/a	n/a	n/a	n/a	n/a	n/a	15	5	7	3	n/a	n/a	n/a	n/a	n/a
1508459	PROB	n/a	LTP229	ltpFR	8	n/a	n/a	n/a	n/a	n/a	n/a	n/a	11	6	4	1	n/a	n/a	n/a	n/a	n/a
1510217	PROB	n/a	LTP229	ltpFR	8	n/a	n/a	n/a	n/a	n/a	n/a	n/a	5	2	1	2	n/a	n/a	n/a	n/a	n/a
1512258	PROB	n/a	LTP229	ltpFR	8	n/a	n/a	n/a	n/a	n/a	n/a	n/a	12	7	1	4	n/a	n/a	n/a	n/a	n/a
1514465	PROB	n/a	LTP229	ltpFR	8	n/a	n/a	n/a	n/a	n/a	n/a	n/a	14	2	7	5	n/a	n/a	n/a	n/a	n/a
1517858	PROB	n/a	LTP229	ltpFR	8	n/a	n/a	n/a	n/a	n/a	n/a	n/a	11	1	4	6	n/a	n/a	n/a	n/a	n/a
1520479	STOP	n/a	LTP229	ltpFR	8	n/a	n/a	n/a	n/a	n/a	n/a	n/a	n/a	n/a	n/a	n/a	n/a	n/a	n/a	n/a	n/a
1522262	WORD	wordpools/wasnorm_wordpool_less_exclusions.txt	LTP229	ltpFR	8	7	0	DIAPER	459	n/a	n/a	1	n/a	0	0	0	0.57763671875	0.412841796875	1	lower	amplitud.ttf
1525274	START	n/a	LTP229	ltpFR	8	n/a	n/a	n/a	n/a	n/a	n/a	n/a	n/a	n/a	n/a	n/a	n/a	n/a	n/a	n/a	n/a
1526194	PROB	n/a	LTP229	ltpFR	8	n/a	n/a	n/a	n/a	n/a	n/a	n/a	17	9	7	1	n/a	n/a	n/a	n/a	n/a
1528765	PROB	n/a	LTP229	ltpFR	8	n/a	n/a	n/a	n/a	n/a	n/a	n/a	17	4	9	4	n/a	n/a	n/a	n/a	n/a
1532433	PROB	n/a	LTP229	ltpFR	8	n/a	n/a	n/a	n/a	n/a	n/a	n/a	19	6	4	9	n/a	n/a	n/a	n/a	n/a
1534102	PROB	n/a	LTP229	ltpFR	8	n/a	n/a	n/a	n/a	n/a	n/a	n/a	25	9	9	7	n/a	n/a	n/a	n/a	n/a
1537619	PROB	n/a	LTP229	ltpFR	8	n/a	n/a	n/a	n/a	n/a	n/a	n/a	17	3	6	8	n/a	n/a	n/a	n/a	n/a
1540607	STOP	n/a	LTP229	ltpFR	8	n/a	n/a	n/a	n/a	n/a	n/a	n/a	n/a	n/a	n/a	n/a	n/a	n/a	n/a	n/a	n/a
1542154	WORD	wordpools/wasnorm_wordpool_less_exclusions.txt	LTP229	ltpFR	8	7	0	DOLL	481	n/a	n/a	0	n/a	0	0	0	0.57763671875	0.412841796875	1	lower	amplitud.ttf
1545166	START	n/a	LTP229	ltpFR	8	n/a	n/a	n/a	n/a	n/a	n/a	n/a	n/a	n/a	n/a	n/a	n/a	n/a	n/a	n/a	n/a
1546336	PROB	n/a	LTP229	ltpFR	8	n/a	n/a	n/a	n/a	n/a	n/a	n/a	14	4	9	1	n/a	n/a	n/a	n/a	n/a
1548540	PROB	n/a	LTP229	ltpFR	8	n/a	n/a	n/a	n/a	n/a	n/a	n/a	12	6	5	1	n/a	n/a	n/a	n/a	n/a
1551234	PROB	n/a	LTP229	ltpFR	8	n/a	n/a	n/a	n/a	n/a	n/a	n/a	9	2	4	3	n/a	n/a	n/a	n/a	n/a
1553843	PROB	n/a	LTP229	ltpFR	8	n/a	n/a	n/a	n/a	n/a	n/a	n/a	13	8	3	2	n/a	n/a	n/a	n/a	n/a
1556788	PROB	n/a	LTP229	ltpFR	8	n/a	n/a	n/a	n/a	n/a	n/a	n/a	12	1	2	9	n/a	n/a	n/a	n/a	n/a
1561166	STOP	n/a	LTP229	ltpFR	8	n/a	n/a	n/a	n/a	n/a	n/a	n/a	n/a	n/a	n/a	n/a	n/a	n/a	n/a	n/a	n/a
1562280	WORD	wordpools/wasnorm_wordpool_less_exclusions.txt	LTP229	ltpFR	8	7	0	ZOO	1637	n/a	n/a	1	n/a	0	0	0	0.57763671875	0.412841796875	1	lower	amplitud.ttf
1565292	START	n/a	LTP229	ltpFR	8	n/a	n/a	n/a	n/a	n/a	n/a	n/a	n/a	n/a	n/a	n/a	n/a	n/a	n/a	n/a	n/a
1566478	PROB	n/a	LTP229	ltpFR	8	n/a	n/a	n/a	n/a	n/a	n/a	n/a	19	4	7	8	n/a	n/a	n/a	n/a	n/a
1569904	PROB	n/a	LTP229	ltpFR	8	n/a	n/a	n/a	n/a	n/a	n/a	n/a	15	6	7	2	n/a	n/a	n/a	n/a	n/a
1574338	PROB	n/a	LTP229	ltpFR	8	n/a	n/a	n/a	n/a	n/a	n/a	n/a	21	7	9	4	n/a	n/a	n/a	n/a	n/a
1580927	STOP	n/a	LTP229	ltpFR	8	n/a	n/a	n/a	n/a	n/a	n/a	n/a	n/a	n/a	n/a	n/a	n/a	n/a	n/a	n/a	n/a
1582505	WORD	wordpools/wasnorm_wordpool_less_exclusions.txt	LTP229	ltpFR	8	7	0	CLAW	319	n/a	n/a	1	n/a	0	0	0	0.57763671875	0.412841796875	1	lower	amplitud.ttf
1585517	START	n/a	LTP229	ltpFR	8	n/a	n/a	n/a	n/a	n/a	n/a	n/a	n/a	n/a	n/a	n/a	n/a	n/a	n/a	n/a	n/a
1586370	PROB	n/a	LTP229	ltpFR	8	n/a	n/a	n/a	n/a	n/a	n/a	n/a	7	2	4	1	n/a	n/a	n/a	n/a	n/a
1589377	PROB	n/a	LTP229	ltpFR	8	n/a	n/a	n/a	n/a	n/a	n/a	n/a	14	3	7	4	n/a	n/a	n/a	n/a	n/a
1591100	PROB	n/a	LTP229	ltpFR	8	n/a	n/a	n/a	n/a	n/a	n/a	n/a	9	2	1	6	n/a	n/a	n/a	n/a	n/a
1594818	PROB	n/a	LTP229	ltpFR	8	n/a	n/a	n/a	n/a	n/a	n/a	n/a	19	6	7	6	n/a	n/a	n/a	n/a	n/a
1601516	STOP	n/a	LTP229	ltpFR	8	n/a	n/a	n/a	n/a	n/a	n/a	n/a	n/a	n/a	n/a	n/a	n/a	n/a	n/a	n/a	n/a
1602463	WORD	wordpools/wasnorm_wordpool_less_exclusions.txt	LTP229	ltpFR	8	7	0	PALM	1007	n/a	n/a	1	n/a	0	0	0	0.57763671875	0.412841796875	1	lower	amplitud.ttf
1605476	START	n/a	LTP229	ltpFR	8	n/a	n/a	n/a	n/a	n/a	n/a	n/a	n/a	n/a	n/a	n/a	n/a	n/a	n/a	n/a	n/a
1606428	PROB	n/a	LTP229	ltpFR	8	n/a	n/a	n/a	n/a	n/a	n/a	n/a	13	1	6	6	n/a	n/a	n/a	n/a	n/a
1609787	PROB	n/a	LTP229	ltpFR	8	n/a	n/a	n/a	n/a	n/a	n/a	n/a	8	1	4	3	n/a	n/a	n/a	n/a	n/a
1611828	PROB	n/a	LTP229	ltpFR	8	n/a	n/a	n/a	n/a	n/a	n/a	n/a	17	6	6	5	n/a	n/a	n/a	n/a	n/a
1614124	PROB	n/a	LTP229	ltpFR	8	n/a	n/a	n/a	n/a	n/a	n/a	n/a	11	7	2	2	n/a	n/a	n/a	n/a	n/a
1616463	PROB	n/a	LTP229	ltpFR	8	n/a	n/a	n/a	n/a	n/a	n/a	n/a	10	1	2	7	n/a	n/a	n/a	n/a	n/a
1619009	PROB	n/a	LTP229	ltpFR	8	n/a	n/a	n/a	n/a	n/a	n/a	n/a	10	1	6	3	n/a	n/a	n/a	n/a	n/a
1621272	STOP	n/a	LTP229	ltpFR	8	n/a	n/a	n/a	n/a	n/a	n/a	n/a	n/a	n/a	n/a	n/a	n/a	n/a	n/a	n/a	n/a
1622439	WORD	wordpools/wasnorm_wordpool_less_exclusions.txt	LTP229	ltpFR	8	7	0	PUPIL	1143	n/a	n/a	1	n/a	0	0	0	0.57763671875	0.412841796875	1	lower	amplitud.ttf
1625450	START	n/a	LTP229	ltpFR	8	n/a	n/a	n/a	n/a	n/a	n/a	n/a	n/a	n/a	n/a	n/a	n/a	n/a	n/a	n/a	n/a
1626484	PROB	n/a	LTP229	ltpFR	8	n/a	n/a	n/a	n/a	n/a	n/a	n/a	21	3	8	9	n/a	n/a	n/a	n/a	n/a
1630733	PROB	n/a	LTP229	ltpFR	8	n/a	n/a	n/a	n/a	n/a	n/a	n/a	17	3	6	8	n/a	n/a	n/a	n/a	n/a
1637309	PROB	n/a	LTP229	ltpFR	8	n/a	n/a	n/a	n/a	n/a	n/a	n/a	16	7	7	2	n/a	n/a	n/a	n/a	n/a
1639350	PROB	n/a	LTP229	ltpFR	8	n/a	n/a	n/a	n/a	n/a	n/a	n/a	14	7	4	3	n/a	n/a	n/a	n/a	n/a
1641272	STOP	n/a	LTP229	ltpFR	8	n/a	n/a	n/a	n/a	n/a	n/a	n/a	n/a	n/a	n/a	n/a	n/a	n/a	n/a	n/a	n/a
1643269	REC_START	n/a	LTP229	ltpFR	8	7	n/a	n/a	n/a	n/a	n/a	n/a	n/a	0	0	0	n/a	n/a	n/a	n/a	n/a
1644142	REC_WORD	wordpools/wasnorm_wordpool_less_exclusions.txt	LTP229	ltpFR	8	7	0	PALM	1007	n/a	n/a	1	n/a	0	0	0	n/a	n/a	n/a	n/a	n/a
1645519	REC_WORD	wordpools/wasnorm_wordpool_less_exclusions.txt	LTP229	ltpFR	8	7	0	WRIST	1626	n/a	n/a	1	n/a	0	0	0	n/a	n/a	n/a	n/a	n/a
1647025	REC_WORD	wordpools/wasnorm_wordpool_less_exclusions.txt	LTP229	ltpFR	8	7	0	ELBOW	520	n/a	n/a	1	n/a	0	0	0	n/a	n/a	n/a	n/a	n/a
1649330	REC_WORD	wordpools/wasnorm_wordpool_less_exclusions.txt	LTP229	ltpFR	8	7	0	SUSPECT	1415	n/a	n/a	1	n/a	0	0	0	n/a	n/a	n/a	n/a	n/a
1650802	REC_WORD	wordpools/wasnorm_wordpool_less_exclusions.txt	LTP229	ltpFR	8	7	0	OUTLAW	989	n/a	n/a	1	n/a	0	0	0	n/a	n/a	n/a	n/a	n/a
1652897	REC_WORD	wordpools/wasnorm_wordpool_less_exclusions.txt	LTP229	ltpFR	8	7	0	ZOO	1637	n/a	n/a	1	n/a	0	0	0	n/a	n/a	n/a	n/a	n/a
1695385	REC_WORD	wordpools/wasnorm_wordpool_less_exclusions.txt	LTP229	ltpFR	8	7	0	DIAPER	459	n/a	n/a	1	n/a	0	0	0	n/a	n/a	n/a	n/a	n/a
1696717	REC_WORD	wordpools/wasnorm_wordpool_less_exclusions.txt	LTP229	ltpFR	8	7	0	HAND	683	n/a	n/a	1	n/a	0	0	0	n/a	n/a	n/a	n/a	n/a
1727903	START	n/a	LTP229	ltpFR	8	n/a	n/a	n/a	n/a	n/a	n/a	n/a	n/a	n/a	n/a	n/a	n/a	n/a	n/a	n/a	n/a
1729409	PROB	n/a	LTP229	ltpFR	8	n/a	n/a	n/a	n/a	n/a	n/a	n/a	17	8	2	7	n/a	n/a	n/a	n/a	n/a
1731780	PROB	n/a	LTP229	ltpFR	8	n/a	n/a	n/a	n/a	n/a	n/a	n/a	12	8	3	1	n/a	n/a	n/a	n/a	n/a
1733922	PROB	n/a	LTP229	ltpFR	8	n/a	n/a	n/a	n/a	n/a	n/a	n/a	9	1	6	2	n/a	n/a	n/a	n/a	n/a
1736699	PROB	n/a	LTP229	ltpFR	8	n/a	n/a	n/a	n/a	n/a	n/a	n/a	15	2	9	4	n/a	n/a	n/a	n/a	n/a
1738861	PROB	n/a	LTP229	ltpFR	8	n/a	n/a	n/a	n/a	n/a	n/a	n/a	18	8	6	4	n/a	n/a	n/a	n/a	n/a
1743413	STOP	n/a	LTP229	ltpFR	8	n/a	n/a	n/a	n/a	n/a	n/a	n/a	n/a	n/a	n/a	n/a	n/a	n/a	n/a	n/a	n/a
1744897	WORD	wordpools/wasnorm_wordpool_less_exclusions.txt	LTP229	ltpFR	8	8	1	REPORT	1184	n/a	n/a	0	n/a	0	0	0	0.422607421875	0.5869140625	0	upper	zerothre.ttf
1747912	START	n/a	LTP229	ltpFR	8	n/a	n/a	n/a	n/a	n/a	n/a	n/a	n/a	n/a	n/a	n/a	n/a	n/a	n/a	n/a	n/a
1748782	PROB	n/a	LTP229	ltpFR	8	n/a	n/a	n/a	n/a	n/a	n/a	n/a	14	5	8	1	n/a	n/a	n/a	n/a	n/a
1754985	PROB	n/a	LTP229	ltpFR	8	n/a	n/a	n/a	n/a	n/a	n/a	n/a	16	4	4	8	n/a	n/a	n/a	n/a	n/a
1756728	PROB	n/a	LTP229	ltpFR	8	n/a	n/a	n/a	n/a	n/a	n/a	n/a	6	2	3	1	n/a	n/a	n/a	n/a	n/a
1758682	PROB	n/a	LTP229	ltpFR	8	n/a	n/a	n/a	n/a	n/a	n/a	n/a	6	3	2	1	n/a	n/a	n/a	n/a	n/a
1760438	PROB	n/a	LTP229	ltpFR	8	n/a	n/a	n/a	n/a	n/a	n/a	n/a	9	4	3	2	n/a	n/a	n/a	n/a	n/a
1763912	STOP	n/a	LTP229	ltpFR	8	n/a	n/a	n/a	n/a	n/a	n/a	n/a	n/a	n/a	n/a	n/a	n/a	n/a	n/a	n/a	n/a
1765006	WORD	wordpools/wasnorm_wordpool_less_exclusions.txt	LTP229	ltpFR	8	8	1	PUMP	1141	n/a	n/a	0	n/a	0	0	0	0.422607421875	0.5869140625	0	upper	zerothre.ttf
1768022	START	n/a	LTP229	ltpFR	8	n/a	n/a	n/a	n/a	n/a	n/a	n/a	n/a	n/a	n/a	n/a	n/a	n/a	n/a	n/a	n/a
1768840	PROB	n/a	LTP229	ltpFR	8	n/a	n/a	n/a	n/a	n/a	n/a	n/a	21	6	9	5	n/a	n/a	n/a	n/a	n/a
1773504	PROB	n/a	LTP229	ltpFR	8	n/a	n/a	n/a	n/a	n/a	n/a	n/a	9	5	2	2	n/a	n/a	n/a	n/a	n/a
1775529	PROB	n/a	LTP229	ltpFR	8	n/a	n/a	n/a	n/a	n/a	n/a	n/a	11	3	4	4	n/a	n/a	n/a	n/a	n/a
1778206	PROB	n/a	LTP229	ltpFR	8	n/a	n/a	n/a	n/a	n/a	n/a	n/a	11	6	2	3	n/a	n/a	n/a	n/a	n/a
1784022	STOP	n/a	LTP229	ltpFR	8	n/a	n/a	n/a	n/a	n/a	n/a	n/a	n/a	n/a	n/a	n/a	n/a	n/a	n/a	n/a	n/a
1784951	WORD	wordpools/wasnorm_wordpool_less_exclusions.txt	LTP229	ltpFR	8	8	1	SCOUT	1252	n/a	n/a	1	n/a	0	0	0	0.422607421875	0.5869140625	0	upper	zerothre.ttf
1787963	START	n/a	LTP229	ltpFR	8	n/a	n/a	n/a	n/a	n/a	n/a	n/a	n/a	n/a	n/a	n/a	n/a	n/a	n/a	n/a	n/a
1788966	PROB	n/a	LTP229	ltpFR	8	n/a	n/a	n/a	n/a	n/a	n/a	n/a	9	3	3	3	n/a	n/a	n/a	n/a	n/a
1790285	PROB	n/a	LTP229	ltpFR	8	n/a	n/a	n/a	n/a	n/a	n/a	n/a	17	2	8	7	n/a	n/a	n/a	n/a	n/a
1795537	PROB	n/a	LTP229	ltpFR	8	n/a	n/a	n/a	n/a	n/a	n/a	n/a	16	1	7	8	n/a	n/a	n/a	n/a	n/a
1797195	PROB	n/a	LTP229	ltpFR	8	n/a	n/a	n/a	n/a	n/a	n/a	n/a	10	1	4	5	n/a	n/a	n/a	n/a	n/a
1799067	PROB	n/a	LTP229	ltpFR	8	n/a	n/a	n/a	n/a	n/a	n/a	n/a	9	2	4	3	n/a	n/a	n/a	n/a	n/a
1801426	PROB	n/a	LTP229	ltpFR	8	n/a	n/a	n/a	n/a	n/a	n/a	n/a	19	4	6	9	n/a	n/a	n/a	n/a	n/a
1803192	STOP	n/a	LTP229	ltpFR	8	n/a	n/a	n/a	n/a	n/a	n/a	n/a	n/a	n/a	n/a	n/a	n/a	n/a	n/a	n/a	n/a
1804806	WORD	wordpools/wasnorm_wordpool_less_exclusions.txt	LTP229	ltpFR	8	8	1	GIRL	637	n/a	n/a	1	n/a	0	0	0	0.422607421875	0.5869140625	0	upper	zerothre.ttf
1807821	START	n/a	LTP229	ltpFR	8	n/a	n/a	n/a	n/a	n/a	n/a	n/a	n/a	n/a	n/a	n/a	n/a	n/a	n/a	n/a	n/a
1808904	PROB	n/a	LTP229	ltpFR	8	n/a	n/a	n/a	n/a	n/a	n/a	n/a	15	7	1	7	n/a	n/a	n/a	n/a	n/a
1811365	PROB	n/a	LTP229	ltpFR	8	n/a	n/a	n/a	n/a	n/a	n/a	n/a	21	3	8	9	n/a	n/a	n/a	n/a	n/a
1818440	PROB	n/a	LTP229	ltpFR	8	n/a	n/a	n/a	n/a	n/a	n/a	n/a	10	1	6	2	n/a	n/a	n/a	n/a	n/a
1822695	STOP	n/a	LTP229	ltpFR	8	n/a	n/a	n/a	n/a	n/a	n/a	n/a	n/a	n/a	n/a	n/a	n/a	n/a	n/a	n/a	n/a
1824647	WORD	wordpools/wasnorm_wordpool_less_exclusions.txt	LTP229	ltpFR	8	8	1	SPONGE	1355	n/a	n/a	0	n/a	0	0	0	0.422607421875	0.5869140625	0	upper	zerothre.ttf
1827663	START	n/a	LTP229	ltpFR	8	n/a	n/a	n/a	n/a	n/a	n/a	n/a	n/a	n/a	n/a	n/a	n/a	n/a	n/a	n/a	n/a
1828616	PROB	n/a	LTP229	ltpFR	8	n/a	n/a	n/a	n/a	n/a	n/a	n/a	15	1	6	8	n/a	n/a	n/a	n/a	n/a
1831473	PROB	n/a	LTP229	ltpFR	8	n/a	n/a	n/a	n/a	n/a	n/a	n/a	9	2	6	1	n/a	n/a	n/a	n/a	n/a
1833480	PROB	n/a	LTP229	ltpFR	8	n/a	n/a	n/a	n/a	n/a	n/a	n/a	6	2	1	3	n/a	n/a	n/a	n/a	n/a
1835672	PROB	n/a	LTP229	ltpFR	8	n/a	n/a	n/a	n/a	n/a	n/a	n/a	19	6	8	5	n/a	n/a	n/a	n/a	n/a
1838734	PROB	n/a	LTP229	ltpFR	8	n/a	n/a	n/a	n/a	n/a	n/a	n/a	13	8	3	2	n/a	n/a	n/a	n/a	n/a
1841929	PROB	n/a	LTP229	ltpFR	8	n/a	n/a	n/a	n/a	n/a	n/a	n/a	16	5	3	8	n/a	n/a	n/a	n/a	n/a
1843519	STOP	n/a	LTP229	ltpFR	8	n/a	n/a	n/a	n/a	n/a	n/a	n/a	n/a	n/a	n/a	n/a	n/a	n/a	n/a	n/a	n/a
1844660	WORD	wordpools/wasnorm_wordpool_less_exclusions.txt	LTP229	ltpFR	8	8	1	SPINACH	1352	n/a	n/a	0	n/a	0	0	0	0.422607421875	0.5869140625	0	upper	zerothre.ttf
1847672	START	n/a	LTP229	ltpFR	8	n/a	n/a	n/a	n/a	n/a	n/a	n/a	n/a	n/a	n/a	n/a	n/a	n/a	n/a	n/a	n/a
1848608	PROB	n/a	LTP229	ltpFR	8	n/a	n/a	n/a	n/a	n/a	n/a	n/a	11	4	4	3	n/a	n/a	n/a	n/a	n/a
1850649	PROB	n/a	LTP229	ltpFR	8	n/a	n/a	n/a	n/a	n/a	n/a	n/a	15	6	1	8	n/a	n/a	n/a	n/a	n/a
1853356	PROB	n/a	LTP229	ltpFR	8	n/a	n/a	n/a	n/a	n/a	n/a	n/a	9	2	1	6	n/a	n/a	n/a	n/a	n/a
1856317	PROB	n/a	LTP229	ltpFR	8	n/a	n/a	n/a	n/a	n/a	n/a	n/a	9	5	2	2	n/a	n/a	n/a	n/a	n/a
1858525	PROB	n/a	LTP229	ltpFR	8	n/a	n/a	n/a	n/a	n/a	n/a	n/a	24	8	8	8	n/a	n/a	n/a	n/a	n/a
1863672	STOP	n/a	LTP229	ltpFR	8	n/a	n/a	n/a	n/a	n/a	n/a	n/a	n/a	n/a	n/a	n/a	n/a	n/a	n/a	n/a	n/a
1864852	WORD	wordpools/wasnorm_wordpool_less_exclusions.txt	LTP229	ltpFR	8	8	1	WRITER	1627	n/a	n/a	1	n/a	0	0	0	0.422607421875	0.5869140625	0	upper	zerothre.ttf
1867864	START	n/a	LTP229	ltpFR	8	n/a	n/a	n/a	n/a	n/a	n/a	n/a	n/a	n/a	n/a	n/a	n/a	n/a	n/a	n/a	n/a
1868914	PROB	n/a	LTP229	ltpFR	8	n/a	n/a	n/a	n/a	n/a	n/a	n/a	17	6	3	8	n/a	n/a	n/a	n/a	n/a
1872361	PROB	n/a	LTP229	ltpFR	8	n/a	n/a	n/a	n/a	n/a	n/a	n/a	19	4	8	7	n/a	n/a	n/a	n/a	n/a
1883863	STOP	n/a	LTP229	ltpFR	8	n/a	n/a	n/a	n/a	n/a	n/a	n/a	n/a	n/a	n/a	n/a	n/a	n/a	n/a	n/a	n/a
1884844	WORD	wordpools/wasnorm_wordpool_less_exclusions.txt	LTP229	ltpFR	8	8	1	SPRINKLE	1359	n/a	n/a	1	n/a	0	0	0	0.422607421875	0.5869140625	0	upper	zerothre.ttf
1887856	START	n/a	LTP229	ltpFR	8	n/a	n/a	n/a	n/a	n/a	n/a	n/a	n/a	n/a	n/a	n/a	n/a	n/a	n/a	n/a	n/a
1888776	PROB	n/a	LTP229	ltpFR	8	n/a	n/a	n/a	n/a	n/a	n/a	n/a	16	7	5	4	n/a	n/a	n/a	n/a	n/a
1895029	PROB	n/a	LTP229	ltpFR	8	n/a	n/a	n/a	n/a	n/a	n/a	n/a	11	4	5	2	n/a	n/a	n/a	n/a	n/a
1896986	PROB	n/a	LTP229	ltpFR	8	n/a	n/a	n/a	n/a	n/a	n/a	n/a	10	3	6	1	n/a	n/a	n/a	n/a	n/a
1899128	PROB	n/a	LTP229	ltpFR	8	n/a	n/a	n/a	n/a	n/a	n/a	n/a	10	2	7	1	n/a	n/a	n/a	n/a	n/a
1903855	STOP	n/a	LTP229	ltpFR	8	n/a	n/a	n/a	n/a	n/a	n/a	n/a	n/a	n/a	n/a	n/a	n/a	n/a	n/a	n/a	n/a
1904903	WORD	wordpools/wasnorm_wordpool_less_exclusions.txt	LTP229	ltpFR	8	8	1	ENGINEER	536	n/a	n/a	1	n/a	0	0	0	0.422607421875	0.5869140625	0	upper	zerothre.ttf
1907915	START	n/a	LTP229	ltpFR	8	n/a	n/a	n/a	n/a	n/a	n/a	n/a	n/a	n/a	n/a	n/a	n/a	n/a	n/a	n/a	n/a
1909069	PROB	n/a	LTP229	ltpFR	8	n/a	n/a	n/a	n/a	n/a	n/a	n/a	16	5	6	5	n/a	n/a	n/a	n/a	n/a
1910688	PROB	n/a	LTP229	ltpFR	8	n/a	n/a	n/a	n/a	n/a	n/a	n/a	18	7	7	4	n/a	n/a	n/a	n/a	n/a
1913402	PROB	n/a	LTP229	ltpFR	8	n/a	n/a	n/a	n/a	n/a	n/a	n/a	12	3	3	6	n/a	n/a	n/a	n/a	n/a
1915778	PROB	n/a	LTP229	ltpFR	8	n/a	n/a	n/a	n/a	n/a	n/a	n/a	14	1	7	6	n/a	n/a	n/a	n/a	n/a
1923914	STOP	n/a	LTP229	ltpFR	8	n/a	n/a	n/a	n/a	n/a	n/a	n/a	n/a	n/a	n/a	n/a	n/a	n/a	n/a	n/a	n/a
1925113	WORD	wordpools/wasnorm_wordpool_less_exclusions.txt	LTP229	ltpFR	8	8	1	MONEY	908	n/a	n/a	1	n/a	0	0	0	0.422607421875	0.5869140625	0	upper	zerothre.ttf
1928125	START	n/a	LTP229	ltpFR	8	n/a	n/a	n/a	n/a	n/a	n/a	n/a	n/a	n/a	n/a	n/a	n/a	n/a	n/a	n/a	n/a
1929074	PROB	n/a	LTP229	ltpFR	8	n/a	n/a	n/a	n/a	n/a	n/a	n/a	11	2	5	4	n/a	n/a	n/a	n/a	n/a
1932371	PROB	n/a	LTP229	ltpFR	8	n/a	n/a	n/a	n/a	n/a	n/a	n/a	16	8	6	2	n/a	n/a	n/a	n/a	n/a
1935198	PROB	n/a	LTP229	ltpFR	8	n/a	n/a	n/a	n/a	n/a	n/a	n/a	20	9	3	8	n/a	n/a	n/a	n/a	n/a
1939213	PROB	n/a	LTP229	ltpFR	8	n/a	n/a	n/a	n/a	n/a	n/a	n/a	18	6	3	9	n/a	n/a	n/a	n/a	n/a
1944124	STOP	n/a	LTP229	ltpFR	8	n/a	n/a	n/a	n/a	n/a	n/a	n/a	n/a	n/a	n/a	n/a	n/a	n/a	n/a	n/a	n/a
1945273	WORD	wordpools/wasnorm_wordpool_less_exclusions.txt	LTP229	ltpFR	8	8	1	MARINE	869	n/a	n/a	1	n/a	0	0	0	0.422607421875	0.5869140625	0	upper	zerothre.ttf
1948285	START	n/a	LTP229	ltpFR	8	n/a	n/a	n/a	n/a	n/a	n/a	n/a	n/a	n/a	n/a	n/a	n/a	n/a	n/a	n/a	n/a
1949322	PROB	n/a	LTP229	ltpFR	8	n/a	n/a	n/a	n/a	n/a	n/a	n/a	17	6	8	3	n/a	n/a	n/a	n/a	n/a
1952445	PROB	n/a	LTP229	ltpFR	8	n/a	n/a	n/a	n/a	n/a	n/a	n/a	14	2	3	9	n/a	n/a	n/a	n/a	n/a
1957050	PROB	n/a	LTP229	ltpFR	8	n/a	n/a	n/a	n/a	n/a	n/a	n/a	8	1	5	2	n/a	n/a	n/a	n/a	n/a
1958689	PROB	n/a	LTP229	ltpFR	8	n/a	n/a	n/a	n/a	n/a	n/a	n/a	20	9	6	5	n/a	n/a	n/a	n/a	n/a
1963887	STOP	n/a	LTP229	ltpFR	8	n/a	n/a	n/a	n/a	n/a	n/a	n/a	n/a	n/a	n/a	n/a	n/a	n/a	n/a	n/a	n/a
1965161	WORD	wordpools/wasnorm_wordpool_less_exclusions.txt	LTP229	ltpFR	8	8	1	REEF	1177	n/a	n/a	0	n/a	0	0	0	0.422607421875	0.5869140625	0	upper	zerothre.ttf
1968177	START	n/a	LTP229	ltpFR	8	n/a	n/a	n/a	n/a	n/a	n/a	n/a	n/a	n/a	n/a	n/a	n/a	n/a	n/a	n/a	n/a
1969125	PROB	n/a	LTP229	ltpFR	8	n/a	n/a	n/a	n/a	n/a	n/a	n/a	18	7	7	4	n/a	n/a	n/a	n/a	n/a
1972204	PROB	n/a	LTP229	ltpFR	8	n/a	n/a	n/a	n/a	n/a	n/a	n/a	14	6	2	6	n/a	n/a	n/a	n/a	n/a
1975536	PROB	n/a	LTP229	ltpFR	8	n/a	n/a	n/a	n/a	n/a	n/a	n/a	7	2	1	4	n/a	n/a	n/a	n/a	n/a
1978376	PROB	n/a	LTP229	ltpFR	8	n/a	n/a	n/a	n/a	n/a	n/a	n/a	9	1	1	7	n/a	n/a	n/a	n/a	n/a
1979769	PROB	n/a	LTP229	ltpFR	8	n/a	n/a	n/a	n/a	n/a	n/a	n/a	13	3	4	6	n/a	n/a	n/a	n/a	n/a
1984015	STOP	n/a	LTP229	ltpFR	8	n/a	n/a	n/a	n/a	n/a	n/a	n/a	n/a	n/a	n/a	n/a	n/a	n/a	n/a	n/a	n/a
1985005	WORD	wordpools/wasnorm_wordpool_less_exclusions.txt	LTP229	ltpFR	8	8	1	SALAD	1224	n/a	n/a	1	n/a	0	0	0	0.422607421875	0.5869140625	0	upper	zerothre.ttf
1988017	START	n/a	LTP229	ltpFR	8	n/a	n/a	n/a	n/a	n/a	n/a	n/a	n/a	n/a	n/a	n/a	n/a	n/a	n/a	n/a	n/a
1989004	PROB	n/a	LTP229	ltpFR	8	n/a	n/a	n/a	n/a	n/a	n/a	n/a	12	3	8	1	n/a	n/a	n/a	n/a	n/a
1991442	PROB	n/a	LTP229	ltpFR	8	n/a	n/a	n/a	n/a	n/a	n/a	n/a	13	4	2	7	n/a	n/a	n/a	n/a	n/a
1993818	PROB	n/a	LTP229	ltpFR	8	n/a	n/a	n/a	n/a	n/a	n/a	n/a	10	3	3	4	n/a	n/a	n/a	n/a	n/a
1997398	PROB	n/a	LTP229	ltpFR	8	n/a	n/a	n/a	n/a	n/a	n/a	n/a	14	2	5	7	n/a	n/a	n/a	n/a	n/a
1999340	PROB	n/a	LTP229	ltpFR	8	n/a	n/a	n/a	n/a	n/a	n/a	n/a	17	9	5	3	n/a	n/a	n/a	n/a	n/a
2003015	STOP	n/a	LTP229	ltpFR	8	n/a	n/a	n/a	n/a	n/a	n/a	n/a	n/a	n/a	n/a	n/a	n/a	n/a	n/a	n/a	n/a
2004880	WORD	wordpools/wasnorm_wordpool_less_exclusions.txt	LTP229	ltpFR	8	8	1	CUCUMBER	421	n/a	n/a	1	n/a	0	0	0	0.422607421875	0.5869140625	0	upper	zerothre.ttf
2007892	START	n/a	LTP229	ltpFR	8	n/a	n/a	n/a	n/a	n/a	n/a	n/a	n/a	n/a	n/a	n/a	n/a	n/a	n/a	n/a	n/a
2009063	PROB	n/a	LTP229	ltpFR	8	n/a	n/a	n/a	n/a	n/a	n/a	n/a	14	9	3	2	n/a	n/a	n/a	n/a	n/a
2010932	PROB	n/a	LTP229	ltpFR	8	n/a	n/a	n/a	n/a	n/a	n/a	n/a	15	5	8	2	n/a	n/a	n/a	n/a	n/a
2013977	PROB	n/a	LTP229	ltpFR	8	n/a	n/a	n/a	n/a	n/a	n/a	n/a	23	8	7	8	n/a	n/a	n/a	n/a	n/a
2018228	PROB	n/a	LTP229	ltpFR	8	n/a	n/a	n/a	n/a	n/a	n/a	n/a	9	3	4	2	n/a	n/a	n/a	n/a	n/a
2023892	STOP	n/a	LTP229	ltpFR	8	n/a	n/a	n/a	n/a	n/a	n/a	n/a	n/a	n/a	n/a	n/a	n/a	n/a	n/a	n/a	n/a
2024989	WORD	wordpools/wasnorm_wordpool_less_exclusions.txt	LTP229	ltpFR	8	8	1	TERMINAL	1450	n/a	n/a	1	n/a	0	0	0	0.422607421875	0.5869140625	0	upper	zerothre.ttf
2028001	START	n/a	LTP229	ltpFR	8	n/a	n/a	n/a	n/a	n/a	n/a	n/a	n/a	n/a	n/a	n/a	n/a	n/a	n/a	n/a	n/a
2029134	PROB	n/a	LTP229	ltpFR	8	n/a	n/a	n/a	n/a	n/a	n/a	n/a	15	3	4	9	n/a	n/a	n/a	n/a	n/a
2034705	PROB	n/a	LTP229	ltpFR	8	n/a	n/a	n/a	n/a	n/a	n/a	n/a	11	1	9	1	n/a	n/a	n/a	n/a	n/a
2036144	PROB	n/a	LTP229	ltpFR	8	n/a	n/a	n/a	n/a	n/a	n/a	n/a	16	8	1	7	n/a	n/a	n/a	n/a	n/a
2040661	PROB	n/a	LTP229	ltpFR	8	n/a	n/a	n/a	n/a	n/a	n/a	n/a	8	2	4	2	n/a	n/a	n/a	n/a	n/a
2042623	STOP	n/a	LTP229	ltpFR	8	n/a	n/a	n/a	n/a	n/a	n/a	n/a	n/a	n/a	n/a	n/a	n/a	n/a	n/a	n/a	n/a
2045028	WORD	wordpools/wasnorm_wordpool_less_exclusions.txt	LTP229	ltpFR	8	8	1	LOCK	838	n/a	n/a	1	n/a	0	0	0	0.422607421875	0.5869140625	0	upper	zerothre.ttf
2048043	START	n/a	LTP229	ltpFR	8	n/a	n/a	n/a	n/a	n/a	n/a	n/a	n/a	n/a	n/a	n/a	n/a	n/a	n/a	n/a	n/a
2049009	PROB	n/a	LTP229	ltpFR	8	n/a	n/a	n/a	n/a	n/a	n/a	n/a	20	4	8	8	n/a	n/a	n/a	n/a	n/a
2051753	PROB	n/a	LTP229	ltpFR	8	n/a	n/a	n/a	n/a	n/a	n/a	n/a	7	1	1	5	n/a	n/a	n/a	n/a	n/a
2053310	PROB	n/a	LTP229	ltpFR	8	n/a	n/a	n/a	n/a	n/a	n/a	n/a	15	3	7	5	n/a	n/a	n/a	n/a	n/a
2054835	PROB	n/a	LTP229	ltpFR	8	n/a	n/a	n/a	n/a	n/a	n/a	n/a	15	2	8	5	n/a	n/a	n/a	n/a	n/a
2056872	PROB	n/a	LTP229	ltpFR	8	n/a	n/a	n/a	n/a	n/a	n/a	n/a	12	5	4	3	n/a	n/a	n/a	n/a	n/a
2058900	PROB	n/a	LTP229	ltpFR	8	n/a	n/a	n/a	n/a	n/a	n/a	n/a	11	2	4	5	n/a	n/a	n/a	n/a	n/a
2064043	STOP	n/a	LTP229	ltpFR	8	n/a	n/a	n/a	n/a	n/a	n/a	n/a	n/a	n/a	n/a	n/a	n/a	n/a	n/a	n/a	n/a
2065861	REC_START	n/a	LTP229	ltpFR	8	8	n/a	n/a	n/a	n/a	n/a	n/a	n/a	0	0	0	n/a	n/a	n/a	n/a	n/a
2066938	REC_WORD	wordpools/wasnorm_wordpool_less_exclusions.txt	LTP229	ltpFR	8	8	1	CUCUMBER	421	n/a	n/a	1	n/a	0	0	0	n/a	n/a	n/a	n/a	n/a
2067876	REC_WORD	wordpools/wasnorm_wordpool_less_exclusions.txt	LTP229	ltpFR	8	8	1	SALAD	1224	n/a	n/a	1	n/a	0	0	0	n/a	n/a	n/a	n/a	n/a
2069068	REC_WORD	wordpools/wasnorm_wordpool_less_exclusions.txt	LTP229	ltpFR	8	8	1	SPINACH	1352	n/a	n/a	0	n/a	0	0	0	n/a	n/a	n/a	n/a	n/a
2070934	REC_WORD	wordpools/wasnorm_wordpool_less_exclusions.txt	LTP229	ltpFR	8	8	1	TERMINAL	1450	n/a	n/a	1	n/a	0	0	0	n/a	n/a	n/a	n/a	n/a
2072774	REC_WORD	wordpools/wasnorm_wordpool_less_exclusions.txt	LTP229	ltpFR	8	8	1	SCOUT	1252	n/a	n/a	1	n/a	0	0	0	n/a	n/a	n/a	n/a	n/a
2074391	REC_WORD	wordpools/wasnorm_wordpool_less_exclusions.txt	LTP229	ltpFR	8	8	1	GIRL	637	n/a	n/a	1	n/a	0	0	0	n/a	n/a	n/a	n/a	n/a
2087217	REC_WORD	wordpools/wasnorm_wordpool_less_exclusions.txt	LTP229	ltpFR	8	8	1	MARINE	869	n/a	n/a	1	n/a	0	0	0	n/a	n/a	n/a	n/a	n/a
2129860	REC_WORD	wordpools/wasnorm_wordpool_less_exclusions.txt	LTP229	ltpFR	8	8	1	REEF	1177	n/a	n/a	0	n/a	0	0	0	n/a	n/a	n/a	n/a	n/a
2147251	WORD	wordpools/wasnorm_wordpool_less_exclusions.txt	LTP229	ltpFR	8	9	1	MARGARINE	868	n/a	n/a	1	n/a	0	0	0	0.422607421875	0.5869140625	0	upper	zerothre.ttf
2151382	WORD	wordpools/wasnorm_wordpool_less_exclusions.txt	LTP229	ltpFR	8	9	1	SAP	1233	n/a	n/a	0	n/a	0	0	0	0.422607421875	0.5869140625	0	upper	zerothre.ttf
2155281	WORD	wordpools/wasnorm_wordpool_less_exclusions.txt	LTP229	ltpFR	8	9	1	FLY	586	n/a	n/a	0	n/a	0	0	0	0.422607421875	0.5869140625	0	upper	zerothre.ttf
2159196	WORD	wordpools/wasnorm_wordpool_less_exclusions.txt	LTP229	ltpFR	8	9	1	MOTOR	922	n/a	n/a	0	n/a	0	0	0	0.422607421875	0.5869140625	0	upper	zerothre.ttf
2163345	WORD	wordpools/wasnorm_wordpool_less_exclusions.txt	LTP229	ltpFR	8	9	1	BED	110	n/a	n/a	1	n/a	0	0	0	0.422607421875	0.5869140625	0	upper	zerothre.ttf
2167343	WORD	wordpools/wasnorm_wordpool_less_exclusions.txt	LTP229	ltpFR	8	9	1	OZONE	996	n/a	n/a	1	n/a	0	0	0	0.422607421875	0.5869140625	0	upper	zerothre.ttf
2171208	WORD	wordpools/wasnorm_wordpool_less_exclusions.txt	LTP229	ltpFR	8	9	1	COLESLAW	344	n/a	n/a	1	n/a	0	0	0	0.422607421875	0.5869140625	0	upper	zerothre.ttf
2175406	WORD	wordpools/wasnorm_wordpool_less_exclusions.txt	LTP229	ltpFR	8	9	1	RICE	1190	n/a	n/a	1	n/a	0	0	0	0.422607421875	0.5869140625	0	upper	zerothre.ttf
2179555	WORD	wordpools/wasnorm_wordpool_less_exclusions.txt	LTP229	ltpFR	8	9	1	BANKER	84	n/a	n/a	1	n/a	0	0	0	0.422607421875	0.5869140625	0	upper	zerothre.ttf
2183520	WORD	wordpools/wasnorm_wordpool_less_exclusions.txt	LTP229	ltpFR	8	9	1	DIPLOMA	470	n/a	n/a	0	n/a	0	0	0	0.422607421875	0.5869140625	0	upper	zerothre.ttf
2187682	WORD	wordpools/wasnorm_wordpool_less_exclusions.txt	LTP229	ltpFR	8	9	1	GRADUATE	653	n/a	n/a	1	n/a	0	0	0	0.422607421875	0.5869140625	0	upper	zerothre.ttf
2191902	WORD	wordpools/wasnorm_wordpool_less_exclusions.txt	LTP229	ltpFR	8	9	1	OWNER	993	n/a	n/a	1	n/a	0	0	0	0.422607421875	0.5869140625	0	upper	zerothre.ttf
2196000	WORD	wordpools/wasnorm_wordpool_less_exclusions.txt	LTP229	ltpFR	8	9	1	TOWER	1490	n/a	n/a	0	n/a	0	0	0	0.422607421875	0.5869140625	0	upper	zerothre.ttf
2199898	WORD	wordpools/wasnorm_wordpool_less_exclusions.txt	LTP229	ltpFR	8	9	1	LASER	801	n/a	n/a	0	n/a	0	0	0	0.422607421875	0.5869140625	0	upper	zerothre.ttf
2203914	WORD	wordpools/wasnorm_wordpool_less_exclusions.txt	LTP229	ltpFR	8	9	1	BIRD	129	n/a	n/a	1	n/a	0	0	0	0.422607421875	0.5869140625	0	upper	zerothre.ttf
2207979	WORD	wordpools/wasnorm_wordpool_less_exclusions.txt	LTP229	ltpFR	8	9	1	MOSS	918	n/a	n/a	1	n/a	0	0	0	0.422607421875	0.5869140625	0	upper	zerothre.ttf
2210991	START	n/a	LTP229	ltpFR	8	n/a	n/a	n/a	n/a	n/a	n/a	n/a	n/a	n/a	n/a	n/a	n/a	n/a	n/a	n/a	n/a
2212027	PROB	n/a	LTP229	ltpFR	8	n/a	n/a	n/a	n/a	n/a	n/a	n/a	11	4	3	4	n/a	n/a	n/a	n/a	n/a
2216190	PROB	n/a	LTP229	ltpFR	8	n/a	n/a	n/a	n/a	n/a	n/a	n/a	19	9	9	1	n/a	n/a	n/a	n/a	n/a
2218218	PROB	n/a	LTP229	ltpFR	8	n/a	n/a	n/a	n/a	n/a	n/a	n/a	10	1	6	3	n/a	n/a	n/a	n/a	n/a
2220944	PROB	n/a	LTP229	ltpFR	8	n/a	n/a	n/a	n/a	n/a	n/a	n/a	20	7	4	9	n/a	n/a	n/a	n/a	n/a
2226990	STOP	n/a	LTP229	ltpFR	8	n/a	n/a	n/a	n/a	n/a	n/a	n/a	n/a	n/a	n/a	n/a	n/a	n/a	n/a	n/a	n/a
2228791	REC_START	n/a	LTP229	ltpFR	8	9	n/a	n/a	n/a	n/a	n/a	n/a	n/a	0	0	0	n/a	n/a	n/a	n/a	n/a
2230242	REC_WORD	wordpools/wasnorm_wordpool_less_exclusions.txt	LTP229	ltpFR	8	9	1	BED	110	n/a	n/a	1	n/a	0	0	0	n/a	n/a	n/a	n/a	n/a
2231160	REC_WORD	wordpools/wasnorm_wordpool_less_exclusions.txt	LTP229	ltpFR	8	9	1	OZONE	996	n/a	n/a	1	n/a	0	0	0	n/a	n/a	n/a	n/a	n/a
2232522	REC_WORD	wordpools/wasnorm_wordpool_less_exclusions.txt	LTP229	ltpFR	8	9	1	MARGARINE	868	n/a	n/a	1	n/a	0	0	0	n/a	n/a	n/a	n/a	n/a
2233684	REC_WORD	wordpools/wasnorm_wordpool_less_exclusions.txt	LTP229	ltpFR	8	9	1	SAP	1233	n/a	n/a	0	n/a	0	0	0	n/a	n/a	n/a	n/a	n/a
2244684	REC_WORD	wordpools/wasnorm_wordpool_less_exclusions.txt	LTP229	ltpFR	8	9	1	DIPLOMA	470	n/a	n/a	0	n/a	0	0	0	n/a	n/a	n/a	n/a	n/a
2245817	REC_WORD	wordpools/wasnorm_wordpool_less_exclusions.txt	LTP229	ltpFR	8	9	1	GRADUATE	653	n/a	n/a	1	n/a	0	0	0	n/a	n/a	n/a	n/a	n/a
2273813	REC_WORD	wordpools/wasnorm_wordpool_less_exclusions.txt	LTP229	ltpFR	8	9	1	COLESLAW	344	n/a	n/a	1	n/a	0	0	0	n/a	n/a	n/a	n/a	n/a
2275395	REC_WORD	wordpools/wasnorm_wordpool_less_exclusions.txt	LTP229	ltpFR	8	9	1	RICE	1190	n/a	n/a	1	n/a	0	0	0	n/a	n/a	n/a	n/a	n/a
2277266	REC_WORD	wordpools/wasnorm_wordpool_less_exclusions.txt	LTP229	ltpFR	8	9	1	BANKER	84	n/a	n/a	1	n/a	0	0	0	n/a	n/a	n/a	n/a	n/a
2291808	REC_WORD	wordpools/wasnorm_wordpool_less_exclusions.txt	LTP229	ltpFR	8	9	1	BED	110	n/a	n/a	1	n/a	0	0	0	n/a	n/a	n/a	n/a	n/a
2293125	REC_WORD	wordpools/wasnorm_wordpool_less_exclusions.txt	LTP229	ltpFR	8	9	1	OZONE	996	n/a	n/a	1	n/a	0	0	0	n/a	n/a	n/a	n/a	n/a
2313376	WORD	wordpools/wasnorm_wordpool_less_exclusions.txt	LTP229	ltpFR	8	10	1	SUBURB	1399	n/a	n/a	0	n/a	0	0	0	0.422607421875	0.5869140625	0	upper	zerothre.ttf
2317592	WORD	wordpools/wasnorm_wordpool_less_exclusions.txt	LTP229	ltpFR	8	10	1	CAP	236	n/a	n/a	0	n/a	0	0	0	0.422607421875	0.5869140625	0	upper	zerothre.ttf
2321607	WORD	wordpools/wasnorm_wordpool_less_exclusions.txt	LTP229	ltpFR	8	10	0	VEST	1559	n/a	n/a	0	n/a	0	0	0	0.57763671875	0.412841796875	1	lower	amplitud.ttf
2325438	WORD	wordpools/wasnorm_wordpool_less_exclusions.txt	LTP229	ltpFR	8	10	0	FLAG	573	n/a	n/a	1	n/a	0	0	0	0.57763671875	0.412841796875	1	lower	amplitud.ttf
2329654	WORD	wordpools/wasnorm_wordpool_less_exclusions.txt	LTP229	ltpFR	8	10	1	SEA	1259	n/a	n/a	3	n/a	0	0	0	0.422607421875	0.5869140625	0	upper	zerothre.ttf
2330641	KEY_MSG	n/a	LTP229	ltpFR	8	10	n/a	n/a	n/a	n/a	n/a	n/a	n/a	0	0	0	n/a	n/a	n/a	n/a	n/a
2333870	WORD	wordpools/wasnorm_wordpool_less_exclusions.txt	LTP229	ltpFR	8	10	1	TIDE	1465	n/a	n/a	1	n/a	0	0	0	0.422607421875	0.5869140625	0	upper	zerothre.ttf
2337835	WORD	wordpools/wasnorm_wordpool_less_exclusions.txt	LTP229	ltpFR	8	10	0	LAPEL	800	n/a	n/a	1	n/a	0	0	0	0.57763671875	0.412841796875	1	lower	amplitud.ttf
2341867	WORD	wordpools/wasnorm_wordpool_less_exclusions.txt	LTP229	ltpFR	8	10	0	RODENT	1204	n/a	n/a	1	n/a	0	0	0	0.57763671875	0.412841796875	1	lower	amplitud.ttf
2345915	WORD	wordpools/wasnorm_wordpool_less_exclusions.txt	LTP229	ltpFR	8	10	0	MOUSE	925	n/a	n/a	1	n/a	0	0	0	0.57763671875	0.412841796875	1	lower	amplitud.ttf
2349914	WORD	wordpools/wasnorm_wordpool_less_exclusions.txt	LTP229	ltpFR	8	10	0	KING	777	n/a	n/a	1	n/a	0	0	0	0.57763671875	0.412841796875	1	lower	amplitud.ttf
2354046	WORD	wordpools/wasnorm_wordpool_less_exclusions.txt	LTP229	ltpFR	8	10	0	BUFFALO	186	n/a	n/a	1	n/a	0	0	0	0.57763671875	0.412841796875	1	lower	amplitud.ttf
2357961	WORD	wordpools/wasnorm_wordpool_less_exclusions.txt	LTP229	ltpFR	8	10	0	BUTTON	207	n/a	n/a	0	n/a	0	0	0	0.57763671875	0.412841796875	1	lower	amplitud.ttf
2362060	WORD	wordpools/wasnorm_wordpool_less_exclusions.txt	LTP229	ltpFR	8	10	1	RULER	1216	n/a	n/a	0	n/a	0	0	0	0.422607421875	0.5869140625	0	upper	zerothre.ttf
2365958	WORD	wordpools/wasnorm_wordpool_less_exclusions.txt	LTP229	ltpFR	8	10	1	EUROPE	541	n/a	n/a	1	n/a	0	0	0	0.422607421875	0.5869140625	0	upper	zerothre.ttf
2370090	WORD	wordpools/wasnorm_wordpool_less_exclusions.txt	LTP229	ltpFR	8	10	1	CLIMBER	323	n/a	n/a	1	n/a	0	0	0	0.422607421875	0.5869140625	0	upper	zerothre.ttf
2374135	WORD	wordpools/wasnorm_wordpool_less_exclusions.txt	LTP229	ltpFR	8	10	1	TREAT	1501	n/a	n/a	0	n/a	0	0	0	0.422607421875	0.5869140625	0	upper	zerothre.ttf
2377151	START	n/a	LTP229	ltpFR	8	n/a	n/a	n/a	n/a	n/a	n/a	n/a	n/a	n/a	n/a	n/a	n/a	n/a	n/a	n/a	n/a
2377970	PROB	n/a	LTP229	ltpFR	8	n/a	n/a	n/a	n/a	n/a	n/a	n/a	18	7	4	7	n/a	n/a	n/a	n/a	n/a
2380893	PROB	n/a	LTP229	ltpFR	8	n/a	n/a	n/a	n/a	n/a	n/a	n/a	17	6	4	7	n/a	n/a	n/a	n/a	n/a
2382516	PROB	n/a	LTP229	ltpFR	8	n/a	n/a	n/a	n/a	n/a	n/a	n/a	14	4	9	1	n/a	n/a	n/a	n/a	n/a
2384383	STOP	n/a	LTP229	ltpFR	8	n/a	n/a	n/a	n/a	n/a	n/a	n/a	n/a	n/a	n/a	n/a	n/a	n/a	n/a	n/a	n/a
2386971	REC_START	n/a	LTP229	ltpFR	8	10	n/a	n/a	n/a	n/a	n/a	n/a	n/a	0	0	0	n/a	n/a	n/a	n/a	n/a
2387794	REC_WORD	wordpools/wasnorm_wordpool_less_exclusions.txt	LTP229	ltpFR	8	10	0	LAPEL	800	n/a	n/a	1	n/a	0	0	0	n/a	n/a	n/a	n/a	n/a
2389300	REC_WORD	wordpools/wasnorm_wordpool_less_exclusions.txt	LTP229	ltpFR	8	10	0	VEST	1559	n/a	n/a	0	n/a	0	0	0	n/a	n/a	n/a	n/a	n/a
2390767	REC_WORD	wordpools/wasnorm_wordpool_less_exclusions.txt	LTP229	ltpFR	8	10	0	FLAG	573	n/a	n/a	1	n/a	0	0	0	n/a	n/a	n/a	n/a	n/a
2392383	REC_WORD	wordpools/wasnorm_wordpool_less_exclusions.txt	LTP229	ltpFR	8	10	0	RODENT	1204	n/a	n/a	1	n/a	0	0	0	n/a	n/a	n/a	n/a	n/a
2393980	REC_WORD	wordpools/wasnorm_wordpool_less_exclusions.txt	LTP229	ltpFR	8	10	0	MOUSE	925	n/a	n/a	1	n/a	0	0	0	n/a	n/a	n/a	n/a	n/a
2395691	REC_WORD	wordpools/wasnorm_wordpool_less_exclusions.txt	LTP229	ltpFR	8	10	0	KING	777	n/a	n/a	1	n/a	0	0	0	n/a	n/a	n/a	n/a	n/a
2397936	REC_WORD	wordpools/wasnorm_wordpool_less_exclusions.txt	LTP229	ltpFR	8	10	1	SEA	1259	n/a	n/a	3	n/a	0	0	0	n/a	n/a	n/a	n/a	n/a
2399737	REC_WORD	wordpools/wasnorm_wordpool_less_exclusions.txt	LTP229	ltpFR	8	10	1	TIDE	1465	n/a	n/a	1	n/a	0	0	0	n/a	n/a	n/a	n/a	n/a
2401697	REC_WORD	wordpools/wasnorm_wordpool_less_exclusions.txt	LTP229	ltpFR	8	10	1	SUBURB	1399	n/a	n/a	0	n/a	0	0	0	n/a	n/a	n/a	n/a	n/a
2404132	REC_WORD	wordpools/wasnorm_wordpool_less_exclusions.txt	LTP229	ltpFR	8	10	1	CAP	236	n/a	n/a	0	n/a	0	0	0	n/a	n/a	n/a	n/a	n/a
2448436	REC_WORD	wordpools/wasnorm_wordpool_less_exclusions.txt	LTP229	ltpFR	8	10	0	LAPEL	800	n/a	n/a	1	n/a	0	0	0	n/a	n/a	n/a	n/a	n/a
2462622	REST_REWET	n/a	LTP229	ltpFR	8	10	n/a	n/a	n/a	n/a	n/a	n/a	n/a	0	0	0	n/a	n/a	n/a	n/a	n/a
2796180	WORD	wordpools/wasnorm_wordpool_less_exclusions.txt	LTP229	ltpFR	8	11	1	STADIUM	1364	n/a	n/a	0	n/a	0	0	0	0.422607421875	0.5869140625	0	upper	zerothre.ttf
2800329	WORD	wordpools/wasnorm_wordpool_less_exclusions.txt	LTP229	ltpFR	8	11	1	FIELD	562	n/a	n/a	0	n/a	0	0	0	0.422607421875	0.5869140625	0	upper	zerothre.ttf
2804410	WORD	wordpools/wasnorm_wordpool_less_exclusions.txt	LTP229	ltpFR	8	11	1	SHACK	1273	n/a	n/a	0	n/a	0	0	0	0.422607421875	0.5869140625	0	upper	zerothre.ttf
2808408	WORD	wordpools/wasnorm_wordpool_less_exclusions.txt	LTP229	ltpFR	8	11	1	BASKETBALL	96	n/a	n/a	0	n/a	0	0	0	0.422607421875	0.5869140625	0	upper	zerothre.ttf
2812354	WORD	wordpools/wasnorm_wordpool_less_exclusions.txt	LTP229	ltpFR	8	11	0	PUCK	1138	n/a	n/a	0	n/a	0	0	0	0.57763671875	0.412841796875	1	lower	amplitud.ttf
2816552	WORD	wordpools/wasnorm_wordpool_less_exclusions.txt	LTP229	ltpFR	8	11	0	BUTTERFLY	206	n/a	n/a	0	n/a	0	0	0	0.57763671875	0.412841796875	1	lower	amplitud.ttf
2820604	WORD	wordpools/wasnorm_wordpool_less_exclusions.txt	LTP229	ltpFR	8	11	0	ROOMMATE	1207	n/a	n/a	1	n/a	0	0	0	0.57763671875	0.412841796875	1	lower	amplitud.ttf
2824435	WORD	wordpools/wasnorm_wordpool_less_exclusions.txt	LTP229	ltpFR	8	11	0	FELLOW	558	n/a	n/a	1	n/a	0	0	0	0.57763671875	0.412841796875	1	lower	amplitud.ttf
2828430	WORD	wordpools/wasnorm_wordpool_less_exclusions.txt	LTP229	ltpFR	8	11	0	FOOTBALL	591	n/a	n/a	1	n/a	0	0	0	0.57763671875	0.412841796875	1	lower	amplitud.ttf
2832262	WORD	wordpools/wasnorm_wordpool_less_exclusions.txt	LTP229	ltpFR	8	11	1	SKI	1316	n/a	n/a	1	n/a	0	0	0	0.422607421875	0.5869140625	0	upper	zerothre.ttf
2836281	WORD	wordpools/wasnorm_wordpool_less_exclusions.txt	LTP229	ltpFR	8	11	1	COACH	331	n/a	n/a	1	n/a	0	0	0	0.422607421875	0.5869140625	0	upper	zerothre.ttf
2840425	WORD	wordpools/wasnorm_wordpool_less_exclusions.txt	LTP229	ltpFR	8	11	1	SODA	1341	n/a	n/a	1	n/a	0	0	0	0.422607421875	0.5869140625	0	upper	zerothre.ttf
2844345	WORD	wordpools/wasnorm_wordpool_less_exclusions.txt	LTP229	ltpFR	8	11	1	DAD	433	n/a	n/a	1	n/a	0	0	0	0.422607421875	0.5869140625	0	upper	zerothre.ttf
2848343	WORD	wordpools/wasnorm_wordpool_less_exclusions.txt	LTP229	ltpFR	8	11	0	MASCARA	875	n/a	n/a	0	n/a	0	0	0	0.57763671875	0.412841796875	1	lower	amplitud.ttf
2852458	WORD	wordpools/wasnorm_wordpool_less_exclusions.txt	LTP229	ltpFR	8	11	0	VOLLEYBALL	1576	n/a	n/a	1	n/a	0	0	0	0.57763671875	0.412841796875	1	lower	amplitud.ttf
2856290	WORD	wordpools/wasnorm_wordpool_less_exclusions.txt	LTP229	ltpFR	8	11	0	DOVE	491	n/a	n/a	0	n/a	0	0	0	0.57763671875	0.412841796875	1	lower	amplitud.ttf
2862095	REC_START	n/a	LTP229	ltpFR	8	11	n/a	n/a	n/a	n/a	n/a	n/a	n/a	0	0	0	n/a	n/a	n/a	n/a	n/a
2862823	REC_WORD	wordpools/wasnorm_wordpool_less_exclusions.txt	LTP229	ltpFR	8	11	0	DOVE	491	n/a	n/a	0	n/a	0	0	0	n/a	n/a	n/a	n/a	n/a
2863946	REC_WORD	wordpools/wasnorm_wordpool_less_exclusions.txt	LTP229	ltpFR	8	11	1	BASKETBALL	96	n/a	n/a	0	n/a	0	0	0	n/a	n/a	n/a	n/a	n/a
2865182	REC_WORD	wordpools/wasnorm_wordpool_less_exclusions.txt	LTP229	ltpFR	8	11	0	FOOTBALL	591	n/a	n/a	1	n/a	0	0	0	n/a	n/a	n/a	n/a	n/a
2866649	REC_WORD	wordpools/wasnorm_wordpool_less_exclusions.txt	LTP229	ltpFR	8	11	0	VOLLEYBALL	1576	n/a	n/a	1	n/a	0	0	0	n/a	n/a	n/a	n/a	n/a
2868256	REC_WORD	wordpools/wasnorm_wordpool_less_exclusions.txt	LTP229	ltpFR	8	11	1	COACH	331	n/a	n/a	1	n/a	0	0	0	n/a	n/a	n/a	n/a	n/a
2870630	REC_WORD	wordpools/wasnorm_wordpool_less_exclusions.txt	LTP229	ltpFR	8	11	0	BUTTERFLY	206	n/a	n/a	0	n/a	0	0	0	n/a	n/a	n/a	n/a	n/a
2872012	REC_WORD	wordpools/wasnorm_wordpool_less_exclusions.txt	LTP229	ltpFR	8	11	0	FELLOW	558	n/a	n/a	1	n/a	0	0	0	n/a	n/a	n/a	n/a	n/a
2873624	REC_WORD	wordpools/wasnorm_wordpool_less_exclusions.txt	LTP229	ltpFR	8	11	0	ROOMMATE	1207	n/a	n/a	1	n/a	0	0	0	n/a	n/a	n/a	n/a	n/a
2875554	REC_WORD	wordpools/wasnorm_wordpool_less_exclusions.txt	LTP229	ltpFR	8	11	0	PUCK	1138	n/a	n/a	0	n/a	0	0	0	n/a	n/a	n/a	n/a	n/a
2882548	REC_WORD	wordpools/wasnorm_wordpool_less_exclusions.txt	LTP229	ltpFR	8	11	1	STADIUM	1364	n/a	n/a	0	n/a	0	0	0	n/a	n/a	n/a	n/a	n/a
2883701	REC_WORD	wordpools/wasnorm_wordpool_less_exclusions.txt	LTP229	ltpFR	8	11	1	SHACK	1273	n/a	n/a	0	n/a	0	0	0	n/a	n/a	n/a	n/a	n/a
2885347	REC_WORD	wordpools/wasnorm_wordpool_less_exclusions.txt	LTP229	ltpFR	8	11	1	FIELD	562	n/a	n/a	0	n/a	0	0	0	n/a	n/a	n/a	n/a	n/a
2894186	REC_WORD	wordpools/wasnorm_wordpool_less_exclusions.txt	LTP229	ltpFR	8	11	1	SKI	1316	n/a	n/a	1	n/a	0	0	0	n/a	n/a	n/a	n/a	n/a
2915464	REC_WORD	wordpools/wasnorm_wordpool_less_exclusions.txt	LTP229	ltpFR	8	11	1	BASKETBALL	96	n/a	n/a	0	n/a	0	0	0	n/a	n/a	n/a	n/a	n/a
2942560	START	n/a	LTP229	ltpFR	8	n/a	n/a	n/a	n/a	n/a	n/a	n/a	n/a	n/a	n/a	n/a	n/a	n/a	n/a	n/a	n/a
2944070	PROB	n/a	LTP229	ltpFR	8	n/a	n/a	n/a	n/a	n/a	n/a	n/a	12	3	6	3	n/a	n/a	n/a	n/a	n/a
2946676	PROB	n/a	LTP229	ltpFR	8	n/a	n/a	n/a	n/a	n/a	n/a	n/a	26	9	8	9	n/a	n/a	n/a	n/a	n/a
2949304	STOP	n/a	LTP229	ltpFR	8	n/a	n/a	n/a	n/a	n/a	n/a	n/a	n/a	n/a	n/a	n/a	n/a	n/a	n/a	n/a	n/a
2951598	WORD	wordpools/wasnorm_wordpool_less_exclusions.txt	LTP229	ltpFR	8	12	0	CONTAINER	366	n/a	n/a	1	n/a	0	0	0	0.57763671875	0.412841796875	1	lower	amplitud.ttf
2954610	START	n/a	LTP229	ltpFR	8	n/a	n/a	n/a	n/a	n/a	n/a	n/a	n/a	n/a	n/a	n/a	n/a	n/a	n/a	n/a	n/a
2955496	PROB	n/a	LTP229	ltpFR	8	n/a	n/a	n/a	n/a	n/a	n/a	n/a	18	2	9	7	n/a	n/a	n/a	n/a	n/a
2962609	STOP	n/a	LTP229	ltpFR	8	n/a	n/a	n/a	n/a	n/a	n/a	n/a	n/a	n/a	n/a	n/a	n/a	n/a	n/a	n/a	n/a
2963794	WORD	wordpools/wasnorm_wordpool_less_exclusions.txt	LTP229	ltpFR	8	12	0	DISH	474	n/a	n/a	1	n/a	0	0	0	0.57763671875	0.412841796875	1	lower	amplitud.ttf
2966806	START	n/a	LTP229	ltpFR	8	n/a	n/a	n/a	n/a	n/a	n/a	n/a	n/a	n/a	n/a	n/a	n/a	n/a	n/a	n/a	n/a
2967792	PROB	n/a	LTP229	ltpFR	8	n/a	n/a	n/a	n/a	n/a	n/a	n/a	13	6	1	6	n/a	n/a	n/a	n/a	n/a
2970266	PROB	n/a	LTP229	ltpFR	8	n/a	n/a	n/a	n/a	n/a	n/a	n/a	18	8	5	5	n/a	n/a	n/a	n/a	n/a
2971837	PROB	n/a	LTP229	ltpFR	8	n/a	n/a	n/a	n/a	n/a	n/a	n/a	15	4	8	3	n/a	n/a	n/a	n/a	n/a
2974336	STOP	n/a	LTP229	ltpFR	8	n/a	n/a	n/a	n/a	n/a	n/a	n/a	n/a	n/a	n/a	n/a	n/a	n/a	n/a	n/a	n/a
2975705	WORD	wordpools/wasnorm_wordpool_less_exclusions.txt	LTP229	ltpFR	8	12	0	CHISEL	305	n/a	n/a	0	n/a	0	0	0	0.57763671875	0.412841796875	1	lower	amplitud.ttf
2978717	START	n/a	LTP229	ltpFR	8	n/a	n/a	n/a	n/a	n/a	n/a	n/a	n/a	n/a	n/a	n/a	n/a	n/a	n/a	n/a	n/a
2979905	PROB	n/a	LTP229	ltpFR	8	n/a	n/a	n/a	n/a	n/a	n/a	n/a	13	1	6	6	n/a	n/a	n/a	n/a	n/a
2981674	PROB	n/a	LTP229	ltpFR	8	n/a	n/a	n/a	n/a	n/a	n/a	n/a	9	2	2	5	n/a	n/a	n/a	n/a	n/a
2986717	STOP	n/a	LTP229	ltpFR	8	n/a	n/a	n/a	n/a	n/a	n/a	n/a	n/a	n/a	n/a	n/a	n/a	n/a	n/a	n/a	n/a
2987600	WORD	wordpools/wasnorm_wordpool_less_exclusions.txt	LTP229	ltpFR	8	12	0	SCREWDRIVER	1255	n/a	n/a	0	n/a	0	0	0	0.57763671875	0.412841796875	1	lower	amplitud.ttf
2990612	START	n/a	LTP229	ltpFR	8	n/a	n/a	n/a	n/a	n/a	n/a	n/a	n/a	n/a	n/a	n/a	n/a	n/a	n/a	n/a	n/a
2991779	PROB	n/a	LTP229	ltpFR	8	n/a	n/a	n/a	n/a	n/a	n/a	n/a	22	9	9	4	n/a	n/a	n/a	n/a	n/a
2998612	STOP	n/a	LTP229	ltpFR	8	n/a	n/a	n/a	n/a	n/a	n/a	n/a	n/a	n/a	n/a	n/a	n/a	n/a	n/a	n/a	n/a
2999830	WORD	wordpools/wasnorm_wordpool_less_exclusions.txt	LTP229	ltpFR	8	12	0	APE	31	n/a	n/a	1	n/a	0	0	0	0.57763671875	0.412841796875	1	lower	amplitud.ttf
3002842	START	n/a	LTP229	ltpFR	8	n/a	n/a	n/a	n/a	n/a	n/a	n/a	n/a	n/a	n/a	n/a	n/a	n/a	n/a	n/a	n/a
3003979	PROB	n/a	LTP229	ltpFR	8	n/a	n/a	n/a	n/a	n/a	n/a	n/a	19	6	7	6	n/a	n/a	n/a	n/a	n/a
3008960	PROB	n/a	LTP229	ltpFR	8	n/a	n/a	n/a	n/a	n/a	n/a	n/a	9	2	3	4	n/a	n/a	n/a	n/a	n/a
3010447	STOP	n/a	LTP229	ltpFR	8	n/a	n/a	n/a	n/a	n/a	n/a	n/a	n/a	n/a	n/a	n/a	n/a	n/a	n/a	n/a	n/a
3011691	WORD	wordpools/wasnorm_wordpool_less_exclusions.txt	LTP229	ltpFR	8	12	0	CEILING	265	n/a	n/a	1	n/a	0	0	0	0.57763671875	0.412841796875	1	lower	amplitud.ttf
3014703	START	n/a	LTP229	ltpFR	8	n/a	n/a	n/a	n/a	n/a	n/a	n/a	n/a	n/a	n/a	n/a	n/a	n/a	n/a	n/a	n/a
3015840	PROB	n/a	LTP229	ltpFR	8	n/a	n/a	n/a	n/a	n/a	n/a	n/a	16	5	9	2	n/a	n/a	n/a	n/a	n/a
3018730	PROB	n/a	LTP229	ltpFR	8	n/a	n/a	n/a	n/a	n/a	n/a	n/a	14	6	7	1	n/a	n/a	n/a	n/a	n/a
3022703	STOP	n/a	LTP229	ltpFR	8	n/a	n/a	n/a	n/a	n/a	n/a	n/a	n/a	n/a	n/a	n/a	n/a	n/a	n/a	n/a	n/a
3023682	WORD	wordpools/wasnorm_wordpool_less_exclusions.txt	LTP229	ltpFR	8	12	0	CABIN	211	n/a	n/a	1	n/a	0	0	0	0.57763671875	0.412841796875	1	lower	amplitud.ttf
3026698	START	n/a	LTP229	ltpFR	8	n/a	n/a	n/a	n/a	n/a	n/a	n/a	n/a	n/a	n/a	n/a	n/a	n/a	n/a	n/a	n/a
3027735	PROB	n/a	LTP229	ltpFR	8	n/a	n/a	n/a	n/a	n/a	n/a	n/a	16	9	3	4	n/a	n/a	n/a	n/a	n/a
3034698	STOP	n/a	LTP229	ltpFR	8	n/a	n/a	n/a	n/a	n/a	n/a	n/a	n/a	n/a	n/a	n/a	n/a	n/a	n/a	n/a	n/a
3035564	WORD	wordpools/wasnorm_wordpool_less_exclusions.txt	LTP229	ltpFR	8	12	0	RUM	1217	n/a	n/a	1	n/a	0	0	0	0.57763671875	0.412841796875	1	lower	amplitud.ttf
3038576	START	n/a	LTP229	ltpFR	8	n/a	n/a	n/a	n/a	n/a	n/a	n/a	n/a	n/a	n/a	n/a	n/a	n/a	n/a	n/a	n/a
3039596	PROB	n/a	LTP229	ltpFR	8	n/a	n/a	n/a	n/a	n/a	n/a	n/a	22	9	9	4	n/a	n/a	n/a	n/a	n/a
3045407	STOP	n/a	LTP229	ltpFR	8	n/a	n/a	n/a	n/a	n/a	n/a	n/a	n/a	n/a	n/a	n/a	n/a	n/a	n/a	n/a	n/a
3047556	WORD	wordpools/wasnorm_wordpool_less_exclusions.txt	LTP229	ltpFR	8	12	0	GOWN	652	n/a	n/a	1	n/a	0	0	0	0.57763671875	0.412841796875	1	lower	amplitud.ttf
3050572	START	n/a	LTP229	ltpFR	8	n/a	n/a	n/a	n/a	n/a	n/a	n/a	n/a	n/a	n/a	n/a	n/a	n/a	n/a	n/a	n/a
3051709	PROB	n/a	LTP229	ltpFR	8	n/a	n/a	n/a	n/a	n/a	n/a	n/a	9	2	1	6	n/a	n/a	n/a	n/a	n/a
3058572	STOP	n/a	LTP229	ltpFR	8	n/a	n/a	n/a	n/a	n/a	n/a	n/a	n/a	n/a	n/a	n/a	n/a	n/a	n/a	n/a	n/a
3059789	WORD	wordpools/wasnorm_wordpool_less_exclusions.txt	LTP229	ltpFR	8	12	0	LADY	794	n/a	n/a	1	n/a	0	0	0	0.57763671875	0.412841796875	1	lower	amplitud.ttf
3062801	START	n/a	LTP229	ltpFR	8	n/a	n/a	n/a	n/a	n/a	n/a	n/a	n/a	n/a	n/a	n/a	n/a	n/a	n/a	n/a	n/a
3063871	PROB	n/a	LTP229	ltpFR	8	n/a	n/a	n/a	n/a	n/a	n/a	n/a	17	7	1	8	n/a	n/a	n/a	n/a	n/a
3069053	PROB	n/a	LTP229	ltpFR	8	n/a	n/a	n/a	n/a	n/a	n/a	n/a	18	6	6	6	n/a	n/a	n/a	n/a	n/a
3070719	STOP	n/a	LTP229	ltpFR	8	n/a	n/a	n/a	n/a	n/a	n/a	n/a	n/a	n/a	n/a	n/a	n/a	n/a	n/a	n/a	n/a
3071885	WORD	wordpools/wasnorm_wordpool_less_exclusions.txt	LTP229	ltpFR	8	12	0	BATHROOM	99	n/a	n/a	1	n/a	0	0	0	0.57763671875	0.412841796875	1	lower	amplitud.ttf
3074896	START	n/a	LTP229	ltpFR	8	n/a	n/a	n/a	n/a	n/a	n/a	n/a	n/a	n/a	n/a	n/a	n/a	n/a	n/a	n/a	n/a
3076013	PROB	n/a	LTP229	ltpFR	8	n/a	n/a	n/a	n/a	n/a	n/a	n/a	20	9	3	7	n/a	n/a	n/a	n/a	n/a
3082896	STOP	n/a	LTP229	ltpFR	8	n/a	n/a	n/a	n/a	n/a	n/a	n/a	n/a	n/a	n/a	n/a	n/a	n/a	n/a	n/a	n/a
3083897	WORD	wordpools/wasnorm_wordpool_less_exclusions.txt	LTP229	ltpFR	8	12	0	VEIN	1554	n/a	n/a	1	n/a	0	0	0	0.57763671875	0.412841796875	1	lower	amplitud.ttf
3086908	START	n/a	LTP229	ltpFR	8	n/a	n/a	n/a	n/a	n/a	n/a	n/a	n/a	n/a	n/a	n/a	n/a	n/a	n/a	n/a	n/a
3087807	PROB	n/a	LTP229	ltpFR	8	n/a	n/a	n/a	n/a	n/a	n/a	n/a	5	3	1	1	n/a	n/a	n/a	n/a	n/a
3089484	PROB	n/a	LTP229	ltpFR	8	n/a	n/a	n/a	n/a	n/a	n/a	n/a	12	1	9	2	n/a	n/a	n/a	n/a	n/a
3091087	PROB	n/a	LTP229	ltpFR	8	n/a	n/a	n/a	n/a	n/a	n/a	n/a	10	1	6	3	n/a	n/a	n/a	n/a	n/a
3094908	STOP	n/a	LTP229	ltpFR	8	n/a	n/a	n/a	n/a	n/a	n/a	n/a	n/a	n/a	n/a	n/a	n/a	n/a	n/a	n/a	n/a
3095821	WORD	wordpools/wasnorm_wordpool_less_exclusions.txt	LTP229	ltpFR	8	12	0	SCOTCH	1251	n/a	n/a	1	n/a	0	0	0	0.57763671875	0.412841796875	1	lower	amplitud.ttf
3098837	START	n/a	LTP229	ltpFR	8	n/a	n/a	n/a	n/a	n/a	n/a	n/a	n/a	n/a	n/a	n/a	n/a	n/a	n/a	n/a	n/a
3100007	PROB	n/a	LTP229	ltpFR	8	n/a	n/a	n/a	n/a	n/a	n/a	n/a	14	5	2	7	n/a	n/a	n/a	n/a	n/a
3101793	PROB	n/a	LTP229	ltpFR	8	n/a	n/a	n/a	n/a	n/a	n/a	n/a	5	3	1	1	n/a	n/a	n/a	n/a	n/a
3103082	PROB	n/a	LTP229	ltpFR	8	n/a	n/a	n/a	n/a	n/a	n/a	n/a	16	4	9	3	n/a	n/a	n/a	n/a	n/a
3106272	STOP	n/a	LTP229	ltpFR	8	n/a	n/a	n/a	n/a	n/a	n/a	n/a	n/a	n/a	n/a	n/a	n/a	n/a	n/a	n/a	n/a
3108021	WORD	wordpools/wasnorm_wordpool_less_exclusions.txt	LTP229	ltpFR	8	12	0	CHIPMUNK	304	n/a	n/a	1	n/a	0	0	0	0.57763671875	0.412841796875	1	lower	amplitud.ttf
3111033	START	n/a	LTP229	ltpFR	8	n/a	n/a	n/a	n/a	n/a	n/a	n/a	n/a	n/a	n/a	n/a	n/a	n/a	n/a	n/a	n/a
3111952	PROB	n/a	LTP229	ltpFR	8	n/a	n/a	n/a	n/a	n/a	n/a	n/a	14	4	7	3	n/a	n/a	n/a	n/a	n/a
3113659	PROB	n/a	LTP229	ltpFR	8	n/a	n/a	n/a	n/a	n/a	n/a	n/a	15	6	3	7	n/a	n/a	n/a	n/a	n/a
3119033	STOP	n/a	LTP229	ltpFR	8	n/a	n/a	n/a	n/a	n/a	n/a	n/a	n/a	n/a	n/a	n/a	n/a	n/a	n/a	n/a	n/a
3120184	WORD	wordpools/wasnorm_wordpool_less_exclusions.txt	LTP229	ltpFR	8	12	0	MARBLE	867	n/a	n/a	1	n/a	0	0	0	0.57763671875	0.412841796875	1	lower	amplitud.ttf
3123196	START	n/a	LTP229	ltpFR	8	n/a	n/a	n/a	n/a	n/a	n/a	n/a	n/a	n/a	n/a	n/a	n/a	n/a	n/a	n/a	n/a
3124027	PROB	n/a	LTP229	ltpFR	8	n/a	n/a	n/a	n/a	n/a	n/a	n/a	7	5	1	1	n/a	n/a	n/a	n/a	n/a
3125587	PROB	n/a	LTP229	ltpFR	8	n/a	n/a	n/a	n/a	n/a	n/a	n/a	10	1	5	4	n/a	n/a	n/a	n/a	n/a
3128059	PROB	n/a	LTP229	ltpFR	8	n/a	n/a	n/a	n/a	n/a	n/a	n/a	19	7	5	7	n/a	n/a	n/a	n/a	n/a
3130471	STOP	n/a	LTP229	ltpFR	8	n/a	n/a	n/a	n/a	n/a	n/a	n/a	n/a	n/a	n/a	n/a	n/a	n/a	n/a	n/a	n/a
3132392	WORD	wordpools/wasnorm_wordpool_less_exclusions.txt	LTP229	ltpFR	8	12	0	COSTUME	383	n/a	n/a	1	n/a	0	0	0	0.57763671875	0.412841796875	1	lower	amplitud.ttf
3135408	START	n/a	LTP229	ltpFR	8	n/a	n/a	n/a	n/a	n/a	n/a	n/a	n/a	n/a	n/a	n/a	n/a	n/a	n/a	n/a	n/a
3136495	PROB	n/a	LTP229	ltpFR	8	n/a	n/a	n/a	n/a	n/a	n/a	n/a	11	2	1	8	n/a	n/a	n/a	n/a	n/a
3143406	STOP	n/a	LTP229	ltpFR	8	n/a	n/a	n/a	n/a	n/a	n/a	n/a	n/a	n/a	n/a	n/a	n/a	n/a	n/a	n/a	n/a
3145363	REC_START	n/a	LTP229	ltpFR	8	12	n/a	n/a	n/a	n/a	n/a	n/a	n/a	0	0	0	n/a	n/a	n/a	n/a	n/a
3146131	REC_WORD	wordpools/wasnorm_wordpool_less_exclusions.txt	LTP229	ltpFR	8	12	0	SCOTCH	1251	n/a	n/a	1	n/a	0	0	0	n/a	n/a	n/a	n/a	n/a
3147368	REC_WORD	wordpools/wasnorm_wordpool_less_exclusions.txt	LTP229	ltpFR	8	12	0	RUM	1217	n/a	n/a	1	n/a	0	0	0	n/a	n/a	n/a	n/a	n/a
3148935	REC_WORD	wordpools/wasnorm_wordpool_less_exclusions.txt	LTP229	ltpFR	8	12	0	COSTUME	383	n/a	n/a	1	n/a	0	0	0	n/a	n/a	n/a	n/a	n/a
3150262	REC_WORD	wordpools/wasnorm_wordpool_less_exclusions.txt	LTP229	ltpFR	8	12	0	GOWN	652	n/a	n/a	1	n/a	0	0	0	n/a	n/a	n/a	n/a	n/a
3151723	REC_WORD	wordpools/wasnorm_wordpool_less_exclusions.txt	LTP229	ltpFR	8	12	0	CHIPMUNK	304	n/a	n/a	1	n/a	0	0	0	n/a	n/a	n/a	n/a	n/a
3153240	REC_WORD	wordpools/wasnorm_wordpool_less_exclusions.txt	LTP229	ltpFR	8	12	0	APE	31	n/a	n/a	1	n/a	0	0	0	n/a	n/a	n/a	n/a	n/a
3154956	REC_WORD	wordpools/wasnorm_wordpool_less_exclusions.txt	LTP229	ltpFR	8	12	0	DISH	474	n/a	n/a	1	n/a	0	0	0	n/a	n/a	n/a	n/a	n/a
3156303	REC_WORD	wordpools/wasnorm_wordpool_less_exclusions.txt	LTP229	ltpFR	8	12	0	CONTAINER	366	n/a	n/a	1	n/a	0	0	0	n/a	n/a	n/a	n/a	n/a
3177789	REC_WORD	wordpools/wasnorm_wordpool_less_exclusions.txt	LTP229	ltpFR	8	12	0	LADY	794	n/a	n/a	1	n/a	0	0	0	n/a	n/a	n/a	n/a	n/a
3179645	REC_WORD	wordpools/wasnorm_wordpool_less_exclusions.txt	LTP229	ltpFR	8	12	0	BATHROOM	99	n/a	n/a	1	n/a	0	0	0	n/a	n/a	n/a	n/a	n/a
3205736	REC_WORD	wordpools/wasnorm_wordpool_less_exclusions.txt	LTP229	ltpFR	8	12	0	SCREWDRIVER	1255	n/a	n/a	0	n/a	0	0	0	n/a	n/a	n/a	n/a	n/a
3208210	REC_WORD	wordpools/wasnorm_wordpool_less_exclusions.txt	LTP229	ltpFR	8	12	0	CHISEL	305	n/a	n/a	0	n/a	0	0	0	n/a	n/a	n/a	n/a	n/a
3249322	REC_START	n/a	LTP229	ltpFR	8	1	n/a	n/a	n/a	n/a	n/a	n/a	n/a	0	0	0	n/a	n/a	n/a	n/a	n/a
3249371	RECOG_TARGET	n/a	LTP229	ltpFR	8	1	1	BEAVER	109	0	1	1	n/a	0	0	0	n/a	n/a	n/a	n/a	n/a
3252574	RECOG_RESP	n/a	LTP229	ltpFR	8	1	1	BEAVER	109	0	n/a	1	n/a	0	0	0	n/a	n/a	n/a	n/a	n/a
3253781	RECOG_CONF	n/a	LTP229	ltpFR	8	1	1	BEAVER	109	n/a	1	1	n/a	0	0	0	n/a	n/a	n/a	n/a	n/a
3255807	RECOG_TARGET	n/a	LTP229	ltpFR	8	1	1	ENGINEER	536	1	5	1	n/a	0	0	0	n/a	n/a	n/a	n/a	n/a
3256384	RECOG_RESP	n/a	LTP229	ltpFR	8	1	1	ENGINEER	536	1	n/a	1	n/a	0	0	0	n/a	n/a	n/a	n/a	n/a
3257447	RECOG_CONF	n/a	LTP229	ltpFR	8	1	1	ENGINEER	536	n/a	5	1	n/a	0	0	0	n/a	n/a	n/a	n/a	n/a
3259325	RECOG_TARGET	n/a	LTP229	ltpFR	8	1	0	MARBLE	867	1	5	1	n/a	0	0	0	n/a	n/a	n/a	n/a	n/a
3259916	RECOG_RESP	n/a	LTP229	ltpFR	8	1	0	MARBLE	867	1	n/a	1	n/a	0	0	0	n/a	n/a	n/a	n/a	n/a
3260846	RECOG_CONF	n/a	LTP229	ltpFR	8	1	0	MARBLE	867	n/a	5	1	n/a	0	0	0	n/a	n/a	n/a	n/a	n/a
3262704	RECOG_TARGET	n/a	LTP229	ltpFR	8	1	0	SEAT	1264	1	4	1	n/a	0	0	0	n/a	n/a	n/a	n/a	n/a
3263527	RECOG_RESP	n/a	LTP229	ltpFR	8	1	0	SEAT	1264	1	n/a	1	n/a	0	0	0	n/a	n/a	n/a	n/a	n/a
3264430	RECOG_CONF	n/a	LTP229	ltpFR	8	1	0	SEAT	1264	n/a	4	1	n/a	0	0	0	n/a	n/a	n/a	n/a	n/a
3266116	RECOG_TARGET	n/a	LTP229	ltpFR	8	1	0	SCREWDRIVER	1255	1	5	0	n/a	0	0	0	n/a	n/a	n/a	n/a	n/a
3266783	RECOG_RESP	n/a	LTP229	ltpFR	8	1	0	SCREWDRIVER	1255	1	n/a	0	n/a	0	0	0	n/a	n/a	n/a	n/a	n/a
3267725	RECOG_CONF	n/a	LTP229	ltpFR	8	1	0	SCREWDRIVER	1255	n/a	5	0	n/a	0	0	0	n/a	n/a	n/a	n/a	n/a
3269492	RECOG_TARGET	n/a	LTP229	ltpFR	8	1	0	BATHROOM	99	1	5	1	n/a	0	0	0	n/a	n/a	n/a	n/a	n/a
3270214	RECOG_RESP	n/a	LTP229	ltpFR	8	1	0	BATHROOM	99	1	n/a	1	n/a	0	0	0	n/a	n/a	n/a	n/a	n/a
3271134	RECOG_CONF	n/a	LTP229	ltpFR	8	1	0	BATHROOM	99	n/a	5	1	n/a	0	0	0	n/a	n/a	n/a	n/a	n/a
3272909	RECOG_TARGET	n/a	LTP229	ltpFR	8	1	0	BUTTON	207	1	5	0	n/a	0	0	0	n/a	n/a	n/a	n/a	n/a
3274167	RECOG_RESP	n/a	LTP229	ltpFR	8	1	0	BUTTON	207	1	n/a	0	n/a	0	0	0	n/a	n/a	n/a	n/a	n/a
3275081	RECOG_CONF	n/a	LTP229	ltpFR	8	1	0	BUTTON	207	n/a	5	0	n/a	0	0	0	n/a	n/a	n/a	n/a	n/a
3276907	RECOG_TARGET	n/a	LTP229	ltpFR	8	1	1	ICE	730	1	5	1	n/a	0	0	0	n/a	n/a	n/a	n/a	n/a
3277503	RECOG_RESP	n/a	LTP229	ltpFR	8	1	1	ICE	730	1	n/a	1	n/a	0	0	0	n/a	n/a	n/a	n/a	n/a
3278349	RECOG_CONF	n/a	LTP229	ltpFR	8	1	1	ICE	730	n/a	5	1	n/a	0	0	0	n/a	n/a	n/a	n/a	n/a
3280119	RECOG_TARGET	n/a	LTP229	ltpFR	8	1	1	JOURNAL	760	1	5	1	n/a	0	0	0	n/a	n/a	n/a	n/a	n/a
3280663	RECOG_RESP	n/a	LTP229	ltpFR	8	1	1	JOURNAL	760	1	n/a	1	n/a	0	0	0	n/a	n/a	n/a	n/a	n/a
3281568	RECOG_CONF	n/a	LTP229	ltpFR	8	1	1	JOURNAL	760	n/a	5	1	n/a	0	0	0	n/a	n/a	n/a	n/a	n/a
3283215	RECOG_TARGET	n/a	LTP229	ltpFR	8	1	1	SUBURB	1399	1	5	0	n/a	0	0	0	n/a	n/a	n/a	n/a	n/a
3283874	RECOG_RESP	n/a	LTP229	ltpFR	8	1	1	SUBURB	1399	1	n/a	0	n/a	0	0	0	n/a	n/a	n/a	n/a	n/a
3284802	RECOG_CONF	n/a	LTP229	ltpFR	8	1	1	SUBURB	1399	n/a	5	0	n/a	0	0	0	n/a	n/a	n/a	n/a	n/a
3286594	RECOG_TARGET	n/a	LTP229	ltpFR	8	1	1	SNAIL	1332	1	5	1	n/a	0	0	0	n/a	n/a	n/a	n/a	n/a
3287112	RECOG_RESP	n/a	LTP229	ltpFR	8	1	1	SNAIL	1332	1	n/a	1	n/a	0	0	0	n/a	n/a	n/a	n/a	n/a
3288010	RECOG_CONF	n/a	LTP229	ltpFR	8	1	1	SNAIL	1332	n/a	5	1	n/a	0	0	0	n/a	n/a	n/a	n/a	n/a
3289839	RECOG_LURE	n/a	LTP229	ltpFR	8	1	n/a	UTENSIL	1542	0	4	n/a	n/a	0	0	0	n/a	n/a	n/a	n/a	n/a
3290698	RECOG_RESP	n/a	LTP229	ltpFR	8	1	n/a	UTENSIL	1542	0	n/a	n/a	n/a	0	0	0	n/a	n/a	n/a	n/a	n/a
3291637	RECOG_CONF	n/a	LTP229	ltpFR	8	1	n/a	UTENSIL	1542	n/a	4	n/a	n/a	0	0	0	n/a	n/a	n/a	n/a	n/a
3293470	RECOG_TARGET	n/a	LTP229	ltpFR	8	1	0	MOUSE	925	1	5	1	n/a	0	0	0	n/a	n/a	n/a	n/a	n/a
3294211	RECOG_RESP	n/a	LTP229	ltpFR	8	1	0	MOUSE	925	1	n/a	1	n/a	0	0	0	n/a	n/a	n/a	n/a	n/a
3295074	RECOG_CONF	n/a	LTP229	ltpFR	8	1	0	MOUSE	925	n/a	5	1	n/a	0	0	0	n/a	n/a	n/a	n/a	n/a
3296849	RECOG_TARGET	n/a	LTP229	ltpFR	8	1	1	MOTOR	922	1	5	0	n/a	0	0	0	n/a	n/a	n/a	n/a	n/a
3297477	RECOG_RESP	n/a	LTP229	ltpFR	8	1	1	MOTOR	922	1	n/a	0	n/a	0	0	0	n/a	n/a	n/a	n/a	n/a
3298382	RECOG_CONF	n/a	LTP229	ltpFR	8	1	1	MOTOR	922	n/a	5	0	n/a	0	0	0	n/a	n/a	n/a	n/a	n/a
3300259	RECOG_TARGET	n/a	LTP229	ltpFR	8	1	0	DOLLAR	482	0	3	0	n/a	0	0	0	n/a	n/a	n/a	n/a	n/a
3301043	RECOG_RESP	n/a	LTP229	ltpFR	8	1	0	DOLLAR	482	0	n/a	0	n/a	0	0	0	n/a	n/a	n/a	n/a	n/a
3302036	RECOG_CONF	n/a	LTP229	ltpFR	8	1	0	DOLLAR	482	n/a	3	0	n/a	0	0	0	n/a	n/a	n/a	n/a	n/a
3303842	RECOG_LURE	n/a	LTP229	ltpFR	8	1	n/a	SILK	1307	0	1	n/a	n/a	0	0	0	n/a	n/a	n/a	n/a	n/a
3305364	RECOG_RESP	n/a	LTP229	ltpFR	8	1	n/a	SILK	1307	0	n/a	n/a	n/a	0	0	0	n/a	n/a	n/a	n/a	n/a
3306416	RECOG_CONF	n/a	LTP229	ltpFR	8	1	n/a	SILK	1307	n/a	1	n/a	n/a	0	0	0	n/a	n/a	n/a	n/a	n/a
3308125	RECOG_TARGET	n/a	LTP229	ltpFR	8	1	1	LASER	801	1	5	0	n/a	0	0	0	n/a	n/a	n/a	n/a	n/a
3308685	RECOG_RESP	n/a	LTP229	ltpFR	8	1	1	LASER	801	1	n/a	0	n/a	0	0	0	n/a	n/a	n/a	n/a	n/a
3309769	RECOG_CONF	n/a	LTP229	ltpFR	8	1	1	LASER	801	n/a	5	0	n/a	0	0	0	n/a	n/a	n/a	n/a	n/a
3311471	RECOG_TARGET	n/a	LTP229	ltpFR	8	1	0	MASCARA	875	1	5	0	n/a	0	0	0	n/a	n/a	n/a	n/a	n/a
3312063	RECOG_RESP	n/a	LTP229	ltpFR	8	1	0	MASCARA	875	1	n/a	0	n/a	0	0	0	n/a	n/a	n/a	n/a	n/a
3315157	RECOG_CONF	n/a	LTP229	ltpFR	8	1	0	MASCARA	875	n/a	5	0	n/a	0	0	0	n/a	n/a	n/a	n/a	n/a
3316925	RECOG_TARGET	n/a	LTP229	ltpFR	8	1	0	LAPEL	800	1	5	1	n/a	0	0	0	n/a	n/a	n/a	n/a	n/a
3317482	RECOG_RESP	n/a	LTP229	ltpFR	8	1	0	LAPEL	800	1	n/a	1	n/a	0	0	0	n/a	n/a	n/a	n/a	n/a
3318411	RECOG_CONF	n/a	LTP229	ltpFR	8	1	0	LAPEL	800	n/a	5	1	n/a	0	0	0	n/a	n/a	n/a	n/a	n/a
3320234	RECOG_TARGET	n/a	LTP229	ltpFR	8	1	1	TREAT	1501	1	4	0	n/a	0	0	0	n/a	n/a	n/a	n/a	n/a
3320761	RECOG_RESP	n/a	LTP229	ltpFR	8	1	1	TREAT	1501	1	n/a	0	n/a	0	0	0	n/a	n/a	n/a	n/a	n/a
3321709	RECOG_CONF	n/a	LTP229	ltpFR	8	1	1	TREAT	1501	n/a	4	0	n/a	0	0	0	n/a	n/a	n/a	n/a	n/a
3332361	REC_START	n/a	LTP229	ltpFR	8	2	n/a	n/a	n/a	n/a	n/a	n/a	n/a	0	0	0	n/a	n/a	n/a	n/a	n/a
3332416	RECOG_LURE	n/a	LTP229	ltpFR	8	2	n/a	ALLIGATOR	16	0	5	n/a	n/a	0	0	0	n/a	n/a	n/a	n/a	n/a
3333169	RECOG_RESP	n/a	LTP229	ltpFR	8	2	n/a	ALLIGATOR	16	0	n/a	n/a	n/a	0	0	0	n/a	n/a	n/a	n/a	n/a
3334182	RECOG_CONF	n/a	LTP229	ltpFR	8	2	n/a	ALLIGATOR	16	n/a	5	n/a	n/a	0	0	0	n/a	n/a	n/a	n/a	n/a
3336030	RECOG_TARGET	n/a	LTP229	ltpFR	8	2	1	MICROSCOPE	891	1	5	0	n/a	0	0	0	n/a	n/a	n/a	n/a	n/a
3336633	RECOG_RESP	n/a	LTP229	ltpFR	8	2	1	MICROSCOPE	891	1	n/a	0	n/a	0	0	0	n/a	n/a	n/a	n/a	n/a
3337584	RECOG_CONF	n/a	LTP229	ltpFR	8	2	1	MICROSCOPE	891	n/a	5	0	n/a	0	0	0	n/a	n/a	n/a	n/a	n/a
3339376	RECOG_TARGET	n/a	LTP229	ltpFR	8	2	0	AIRPLANE	12	1	5	1	n/a	0	0	0	n/a	n/a	n/a	n/a	n/a
3339863	RECOG_RESP	n/a	LTP229	ltpFR	8	2	0	AIRPLANE	12	1	n/a	1	n/a	0	0	0	n/a	n/a	n/a	n/a	n/a
3340694	RECOG_CONF	n/a	LTP229	ltpFR	8	2	0	AIRPLANE	12	n/a	5	1	n/a	0	0	0	n/a	n/a	n/a	n/a	n/a
3342372	RECOG_TARGET	n/a	LTP229	ltpFR	8	2	0	FELLOW	558	1	5	1	n/a	0	0	0	n/a	n/a	n/a	n/a	n/a
3343215	RECOG_RESP_VV	n/a	LTP229	ltpFR	8	2	0	FELLOW	558	1	n/a	1	n/a	0	0	0	n/a	n/a	n/a	n/a	n/a
3344086	RECOG_RESP	n/a	LTP229	ltpFR	8	2	0	FELLOW	558	1	n/a	1	n/a	0	0	0	n/a	n/a	n/a	n/a	n/a
3345165	RECOG_CONF	n/a	LTP229	ltpFR	8	2	0	FELLOW	558	n/a	5	1	n/a	0	0	0	n/a	n/a	n/a	n/a	n/a
3346951	RECOG_LURE	n/a	LTP229	ltpFR	8	2	n/a	LOFT	840	0	5	n/a	n/a	0	0	0	n/a	n/a	n/a	n/a	n/a
3347568	RECOG_RESP	n/a	LTP229	ltpFR	8	2	n/a	LOFT	840	0	n/a	n/a	n/a	0	0	0	n/a	n/a	n/a	n/a	n/a
3348297	RECOG_CONF	n/a	LTP229	ltpFR	8	2	n/a	LOFT	840	n/a	5	n/a	n/a	0	0	0	n/a	n/a	n/a	n/a	n/a
3349912	RECOG_LURE	n/a	LTP229	ltpFR	8	2	n/a	NEST	945	0	5	n/a	n/a	0	0	0	n/a	n/a	n/a	n/a	n/a
3350565	RECOG_RESP	n/a	LTP229	ltpFR	8	2	n/a	NEST	945	0	n/a	n/a	n/a	0	0	0	n/a	n/a	n/a	n/a	n/a
3351329	RECOG_CONF	n/a	LTP229	ltpFR	8	2	n/a	NEST	945	n/a	5	n/a	n/a	0	0	0	n/a	n/a	n/a	n/a	n/a
3353094	RECOG_TARGET	n/a	LTP229	ltpFR	8	2	0	COSTUME	383	1	5	1	n/a	0	0	0	n/a	n/a	n/a	n/a	n/a
3353696	RECOG_RESP	n/a	LTP229	ltpFR	8	2	0	COSTUME	383	1	n/a	1	n/a	0	0	0	n/a	n/a	n/a	n/a	n/a
3354546	RECOG_CONF	n/a	LTP229	ltpFR	8	2	0	COSTUME	383	n/a	5	1	n/a	0	0	0	n/a	n/a	n/a	n/a	n/a
3356190	RECOG_TARGET	n/a	LTP229	ltpFR	8	2	0	TOURIST	1488	1	5	1	n/a	0	0	0	n/a	n/a	n/a	n/a	n/a
3356751	RECOG_RESP	n/a	LTP229	ltpFR	8	2	0	TOURIST	1488	1	n/a	1	n/a	0	0	0	n/a	n/a	n/a	n/a	n/a
3357688	RECOG_CONF	n/a	LTP229	ltpFR	8	2	0	TOURIST	1488	n/a	5	1	n/a	0	0	0	n/a	n/a	n/a	n/a	n/a
3359519	RECOG_TARGET	n/a	LTP229	ltpFR	8	2	0	SCOTCH	1251	1	5	1	n/a	0	0	0	n/a	n/a	n/a	n/a	n/a
3360013	RECOG_RESP	n/a	LTP229	ltpFR	8	2	0	SCOTCH	1251	1	n/a	1	n/a	0	0	0	n/a	n/a	n/a	n/a	n/a
3360879	RECOG_CONF	n/a	LTP229	ltpFR	8	2	0	SCOTCH	1251	n/a	5	1	n/a	0	0	0	n/a	n/a	n/a	n/a	n/a
3362614	RECOG_TARGET	n/a	LTP229	ltpFR	8	2	1	RAZOR	1171	1	5	0	n/a	0	0	0	n/a	n/a	n/a	n/a	n/a
3363163	RECOG_RESP	n/a	LTP229	ltpFR	8	2	1	RAZOR	1171	1	n/a	0	n/a	0	0	0	n/a	n/a	n/a	n/a	n/a
3364049	RECOG_CONF	n/a	LTP229	ltpFR	8	2	1	RAZOR	1171	n/a	5	0	n/a	0	0	0	n/a	n/a	n/a	n/a	n/a
3365872	RECOG_TARGET	n/a	LTP229	ltpFR	8	2	0	PUPIL	1143	1	5	1	n/a	0	0	0	n/a	n/a	n/a	n/a	n/a
3366424	RECOG_RESP	n/a	LTP229	ltpFR	8	2	0	PUPIL	1143	1	n/a	1	n/a	0	0	0	n/a	n/a	n/a	n/a	n/a
3367422	RECOG_CONF	n/a	LTP229	ltpFR	8	2	0	PUPIL	1143	n/a	5	1	n/a	0	0	0	n/a	n/a	n/a	n/a	n/a
3369372	RECOG_TARGET	n/a	LTP229	ltpFR	8	2	0	KING	777	1	5	1	n/a	0	0	0	n/a	n/a	n/a	n/a	n/a
3369865	RECOG_RESP	n/a	LTP229	ltpFR	8	2	0	KING	777	1	n/a	1	n/a	0	0	0	n/a	n/a	n/a	n/a	n/a
3370763	RECOG_CONF	n/a	LTP229	ltpFR	8	2	0	KING	777	n/a	5	1	n/a	0	0	0	n/a	n/a	n/a	n/a	n/a
