mstime	trial_type	stim_file	subject	experiment	session	trial	item_name	item_num	list	answer	test_x	test_y	test_z
0	SESS_START	n/a	LTP307	ltpFR2	23	n/a	n/a	n/a	n/a	n/a	0	0	0
26891	START	n/a	LTP307	ltpFR2	23	n/a	n/a	n/a	-1	n/a	n/a	n/a	n/a
26907	PROB	n/a	LTP307	ltpFR2	23	n/a	n/a	n/a	-1	15	7	2	6
28655	PROB	n/a	LTP307	ltpFR2	23	n/a	n/a	n/a	-1	15	9	5	1
30173	PROB	n/a	LTP307	ltpFR2	23	n/a	n/a	n/a	-1	13	4	8	1
31389	PROB	n/a	LTP307	ltpFR2	23	n/a	n/a	n/a	-1	16	6	3	7
32791	PROB	n/a	LTP307	ltpFR2	23	n/a	n/a	n/a	-1	5	1	1	3
33792	PROB	n/a	LTP307	ltpFR2	23	n/a	n/a	n/a	-1	15	2	9	4
34993	PROB	n/a	LTP307	ltpFR2	23	n/a	n/a	n/a	-1	11	4	4	3
36210	PROB	n/a	LTP307	ltpFR2	23	n/a	n/a	n/a	-1	16	7	1	8
37294	PROB	n/a	LTP307	ltpFR2	23	n/a	n/a	n/a	-1	19	6	6	7
38788	STOP	n/a	LTP307	ltpFR2	23	n/a	n/a	n/a	-1	n/a	n/a	n/a	n/a
67481	WORD	wordpools/wasnorm_wordpool_576.txt	LTP307	ltpFR2	23	1	BUILDING	191	n/a	n/a	0	0	0
70070	WORD	wordpools/wasnorm_wordpool_576.txt	LTP307	ltpFR2	23	1	SUGAR	1401	n/a	n/a	0	0	0
72622	WORD	wordpools/wasnorm_wordpool_576.txt	LTP307	ltpFR2	23	1	COLUMN	350	n/a	n/a	0	0	0
75390	WORD	wordpools/wasnorm_wordpool_576.txt	LTP307	ltpFR2	23	1	HOOD	714	n/a	n/a	0	0	0
77910	WORD	wordpools/wasnorm_wordpool_576.txt	LTP307	ltpFR2	23	1	CABOOSE	214	n/a	n/a	0	0	0
80579	WORD	wordpools/wasnorm_wordpool_576.txt	LTP307	ltpFR2	23	1	BARREL	91	n/a	n/a	0	0	0
83396	WORD	wordpools/wasnorm_wordpool_576.txt	LTP307	ltpFR2	23	1	VALVE	1546	n/a	n/a	0	0	0
86066	WORD	wordpools/wasnorm_wordpool_576.txt	LTP307	ltpFR2	23	1	PLAQUE	1084	n/a	n/a	0	0	0
88753	WORD	wordpools/wasnorm_wordpool_576.txt	LTP307	ltpFR2	23	1	CHEMIST	292	n/a	n/a	0	0	0
91236	WORD	wordpools/wasnorm_wordpool_576.txt	LTP307	ltpFR2	23	1	FLASK	576	n/a	n/a	0	0	0
93957	WORD	wordpools/wasnorm_wordpool_576.txt	LTP307	ltpFR2	23	1	DIVER	476	n/a	n/a	0	0	0
96475	WORD	wordpools/wasnorm_wordpool_576.txt	LTP307	ltpFR2	23	1	BUREAU	199	n/a	n/a	0	0	0
99044	WORD	wordpools/wasnorm_wordpool_576.txt	LTP307	ltpFR2	23	1	BURGLAR	200	n/a	n/a	0	0	0
101513	WORD	wordpools/wasnorm_wordpool_576.txt	LTP307	ltpFR2	23	1	OUTLAW	989	n/a	n/a	0	0	0
104314	WORD	wordpools/wasnorm_wordpool_576.txt	LTP307	ltpFR2	23	1	COUCH	386	n/a	n/a	0	0	0
107018	WORD	wordpools/wasnorm_wordpool_576.txt	LTP307	ltpFR2	23	1	DOLPHIN	483	n/a	n/a	0	0	0
109621	WORD	wordpools/wasnorm_wordpool_576.txt	LTP307	ltpFR2	23	1	THREAD	1460	n/a	n/a	0	0	0
112155	WORD	wordpools/wasnorm_wordpool_576.txt	LTP307	ltpFR2	23	1	FRAME	600	n/a	n/a	0	0	0
114891	WORD	wordpools/wasnorm_wordpool_576.txt	LTP307	ltpFR2	23	1	DUNGEON	507	n/a	n/a	0	0	0
117476	WORD	wordpools/wasnorm_wordpool_576.txt	LTP307	ltpFR2	23	1	VICTIM	1562	n/a	n/a	0	0	0
120112	WORD	wordpools/wasnorm_wordpool_576.txt	LTP307	ltpFR2	23	1	CAPTIVE	240	n/a	n/a	0	0	0
122664	WORD	wordpools/wasnorm_wordpool_576.txt	LTP307	ltpFR2	23	1	RIBBON	1189	n/a	n/a	0	0	0
125332	WORD	wordpools/wasnorm_wordpool_576.txt	LTP307	ltpFR2	23	1	TABLE	1426	n/a	n/a	0	0	0
127919	WORD	wordpools/wasnorm_wordpool_576.txt	LTP307	ltpFR2	23	1	KETTLE	772	n/a	n/a	0	0	0
129537	START	n/a	LTP307	ltpFR2	23	n/a	n/a	n/a	1	n/a	n/a	n/a	n/a
130684	DISTRACTOR	n/a	LTP307	ltpFR2	23	1	n/a	n/a	n/a	n/a	0	0	0
130688	PROB	n/a	LTP307	ltpFR2	23	n/a	n/a	n/a	1	12	2	2	8
132005	PROB	n/a	LTP307	ltpFR2	23	n/a	n/a	n/a	1	14	8	4	2
133254	PROB	n/a	LTP307	ltpFR2	23	n/a	n/a	n/a	1	15	1	5	9
134674	PROB	n/a	LTP307	ltpFR2	23	n/a	n/a	n/a	1	15	9	1	5
136174	PROB	n/a	LTP307	ltpFR2	23	n/a	n/a	n/a	1	15	8	4	3
137409	PROB	n/a	LTP307	ltpFR2	23	n/a	n/a	n/a	1	14	9	2	3
139628	PROB	n/a	LTP307	ltpFR2	23	n/a	n/a	n/a	1	22	9	9	4
140862	PROB	n/a	LTP307	ltpFR2	23	n/a	n/a	n/a	1	14	1	4	9
142195	PROB	n/a	LTP307	ltpFR2	23	n/a	n/a	n/a	1	6	1	4	1
143462	PROB	n/a	LTP307	ltpFR2	23	n/a	n/a	n/a	1	17	5	7	5
144781	PROB	n/a	LTP307	ltpFR2	23	n/a	n/a	n/a	1	10	2	4	4
146049	PROB	n/a	LTP307	ltpFR2	23	n/a	n/a	n/a	1	21	8	9	4
147266	PROB	n/a	LTP307	ltpFR2	23	n/a	n/a	n/a	1	19	8	2	9
148517	PROB	n/a	LTP307	ltpFR2	23	n/a	n/a	n/a	1	18	4	7	7
149902	PROB	n/a	LTP307	ltpFR2	23	n/a	n/a	n/a	1	16	7	5	4
152004	PROB	n/a	LTP307	ltpFR2	23	n/a	n/a	n/a	1	19	6	8	5
153208	STOP	n/a	LTP307	ltpFR2	23	n/a	n/a	n/a	1	n/a	n/a	n/a	n/a
155374	REC_START	n/a	LTP307	ltpFR2	23	1	n/a	n/a	n/a	n/a	0	0	0
156546	REC_WORD	wordpools/wasnorm_wordpool_576.txt	LTP307	ltpFR2	23	1	BUILDING	191	n/a	n/a	0	0	0
157378	REC_WORD	wordpools/wasnorm_wordpool_576.txt	LTP307	ltpFR2	23	1	CHEMIST	292	n/a	n/a	0	0	0
158200	REC_WORD	wordpools/wasnorm_wordpool_576.txt	LTP307	ltpFR2	23	1	FLASK	576	n/a	n/a	0	0	0
160240	REC_WORD	wordpools/wasnorm_wordpool_576.txt	LTP307	ltpFR2	23	1	VALVE	1546	n/a	n/a	0	0	0
160971	REC_WORD	wordpools/wasnorm_wordpool_576.txt	LTP307	ltpFR2	23	1	PLAQUE	1084	n/a	n/a	0	0	0
162295	REC_WORD	wordpools/wasnorm_wordpool_576.txt	LTP307	ltpFR2	23	1	COUCH	386	n/a	n/a	0	0	0
163062	REC_WORD	wordpools/wasnorm_wordpool_576.txt	LTP307	ltpFR2	23	1	SUGAR	1401	n/a	n/a	0	0	0
164643	REC_WORD	wordpools/wasnorm_wordpool_576.txt	LTP307	ltpFR2	23	1	COLUMN	350	n/a	n/a	0	0	0
166447	REC_WORD	wordpools/wasnorm_wordpool_576.txt	LTP307	ltpFR2	23	1	DOLPHIN	483	n/a	n/a	0	0	0
167204	REC_WORD	wordpools/wasnorm_wordpool_576.txt	LTP307	ltpFR2	23	1	DIVER	476	n/a	n/a	0	0	0
168020	REC_WORD	wordpools/wasnorm_wordpool_576.txt	LTP307	ltpFR2	23	1	THREAD	1460	n/a	n/a	0	0	0
169175	REC_WORD	wordpools/wasnorm_wordpool_576.txt	LTP307	ltpFR2	23	1	BUREAU	199	n/a	n/a	0	0	0
170178	REC_WORD	wordpools/wasnorm_wordpool_576.txt	LTP307	ltpFR2	23	1	OUTLAW	989	n/a	n/a	0	0	0
172787	REC_WORD	wordpools/wasnorm_wordpool_576.txt	LTP307	ltpFR2	23	1	BUREAU	199	n/a	n/a	0	0	0
174219	REC_WORD	wordpools/wasnorm_wordpool_576.txt	LTP307	ltpFR2	23	1	VICTIM	1562	n/a	n/a	0	0	0
175046	REC_WORD	wordpools/wasnorm_wordpool_576.txt	LTP307	ltpFR2	23	1	CAPTIVE	240	n/a	n/a	0	0	0
176154	REC_WORD	wordpools/wasnorm_wordpool_576.txt	LTP307	ltpFR2	23	1	DUNGEON	507	n/a	n/a	0	0	0
208148	REC_WORD	wordpools/wasnorm_wordpool_576.txt	LTP307	ltpFR2	23	1	CABOOSE	214	n/a	n/a	0	0	0
214617	REC_WORD	wordpools/wasnorm_wordpool_576.txt	LTP307	ltpFR2	23	1	HOOD	714	n/a	n/a	0	0	0
224971	REC_WORD	wordpools/wasnorm_wordpool_576.txt	LTP307	ltpFR2	23	1	RIBBON	1189	n/a	n/a	0	0	0
226339	REC_WORD	wordpools/wasnorm_wordpool_576.txt	LTP307	ltpFR2	23	1	TABLE	1426	n/a	n/a	0	0	0
245812	WORD	wordpools/wasnorm_wordpool_576.txt	LTP307	ltpFR2	23	2	REPTILE	1185	n/a	n/a	0	0	0
248248	WORD	wordpools/wasnorm_wordpool_576.txt	LTP307	ltpFR2	23	2	DAD	433	n/a	n/a	0	0	0
250851	WORD	wordpools/wasnorm_wordpool_576.txt	LTP307	ltpFR2	23	2	MUFFIN	929	n/a	n/a	0	0	0
253535	WORD	wordpools/wasnorm_wordpool_576.txt	LTP307	ltpFR2	23	2	WAIST	1579	n/a	n/a	0	0	0
256180	WORD	wordpools/wasnorm_wordpool_576.txt	LTP307	ltpFR2	23	2	JEEP	753	n/a	n/a	0	0	0
258757	WORD	wordpools/wasnorm_wordpool_576.txt	LTP307	ltpFR2	23	2	CONSOLE	364	n/a	n/a	0	0	0
261185	WORD	wordpools/wasnorm_wordpool_576.txt	LTP307	ltpFR2	23	2	PORT	1110	n/a	n/a	0	0	0
263671	WORD	wordpools/wasnorm_wordpool_576.txt	LTP307	ltpFR2	23	2	BRIDE	173	n/a	n/a	0	0	0
266190	WORD	wordpools/wasnorm_wordpool_576.txt	LTP307	ltpFR2	23	2	YARD	1630	n/a	n/a	0	0	0
268782	WORD	wordpools/wasnorm_wordpool_576.txt	LTP307	ltpFR2	23	2	MONGOOSE	909	n/a	n/a	0	0	0
271243	WORD	wordpools/wasnorm_wordpool_576.txt	LTP307	ltpFR2	23	2	CHAMPAGNE	278	n/a	n/a	0	0	0
273730	WORD	wordpools/wasnorm_wordpool_576.txt	LTP307	ltpFR2	23	2	PROTON	1132	n/a	n/a	0	0	0
276354	WORD	wordpools/wasnorm_wordpool_576.txt	LTP307	ltpFR2	23	2	LANDSCAPE	799	n/a	n/a	0	0	0
278868	WORD	wordpools/wasnorm_wordpool_576.txt	LTP307	ltpFR2	23	2	WAITRESS	1581	n/a	n/a	0	0	0
281407	WORD	wordpools/wasnorm_wordpool_576.txt	LTP307	ltpFR2	23	2	HIGHWAY	707	n/a	n/a	0	0	0
283989	WORD	wordpools/wasnorm_wordpool_576.txt	LTP307	ltpFR2	23	2	CARPET	247	n/a	n/a	0	0	0
286613	WORD	wordpools/wasnorm_wordpool_576.txt	LTP307	ltpFR2	23	2	SARDINE	1235	n/a	n/a	0	0	0
289264	WORD	wordpools/wasnorm_wordpool_576.txt	LTP307	ltpFR2	23	2	SHRIMP	1297	n/a	n/a	0	0	0
291879	WORD	wordpools/wasnorm_wordpool_576.txt	LTP307	ltpFR2	23	2	MARINE	869	n/a	n/a	0	0	0
294665	WORD	wordpools/wasnorm_wordpool_576.txt	LTP307	ltpFR2	23	2	PANTS	1010	n/a	n/a	0	0	0
297233	WORD	wordpools/wasnorm_wordpool_576.txt	LTP307	ltpFR2	23	2	SPINACH	1352	n/a	n/a	0	0	0
299690	WORD	wordpools/wasnorm_wordpool_576.txt	LTP307	ltpFR2	23	2	CHICKEN	297	n/a	n/a	0	0	0
302488	WORD	wordpools/wasnorm_wordpool_576.txt	LTP307	ltpFR2	23	2	NOTEBOOK	959	n/a	n/a	0	0	0
305090	WORD	wordpools/wasnorm_wordpool_576.txt	LTP307	ltpFR2	23	2	CAMEL	223	n/a	n/a	0	0	0
306696	START	n/a	LTP307	ltpFR2	23	n/a	n/a	n/a	2	n/a	n/a	n/a	n/a
307624	DISTRACTOR	n/a	LTP307	ltpFR2	23	2	n/a	n/a	n/a	n/a	0	0	0
307629	PROB	n/a	LTP307	ltpFR2	23	n/a	n/a	n/a	2	10	4	3	3
308879	PROB	n/a	LTP307	ltpFR2	23	n/a	n/a	n/a	2	9	1	1	7
309945	PROB	n/a	LTP307	ltpFR2	23	n/a	n/a	n/a	2	19	3	7	9
311328	PROB	n/a	LTP307	ltpFR2	23	n/a	n/a	n/a	2	8	1	3	4
312328	PROB	n/a	LTP307	ltpFR2	23	n/a	n/a	n/a	2	19	8	9	2
313664	PROB	n/a	LTP307	ltpFR2	23	n/a	n/a	n/a	2	12	2	7	3
314715	PROB	n/a	LTP307	ltpFR2	23	n/a	n/a	n/a	2	15	6	6	3
315850	PROB	n/a	LTP307	ltpFR2	23	n/a	n/a	n/a	2	13	3	4	6
317500	PROB	n/a	LTP307	ltpFR2	23	n/a	n/a	n/a	2	13	9	2	2
318551	PROB	n/a	LTP307	ltpFR2	23	n/a	n/a	n/a	2	12	8	3	1
319571	PROB	n/a	LTP307	ltpFR2	23	n/a	n/a	n/a	2	11	1	6	4
320536	PROB	n/a	LTP307	ltpFR2	23	n/a	n/a	n/a	2	15	8	1	6
321554	PROB	n/a	LTP307	ltpFR2	23	n/a	n/a	n/a	2	17	4	7	6
323973	PROB	n/a	LTP307	ltpFR2	23	n/a	n/a	n/a	2	14	5	4	5
325107	PROB	n/a	LTP307	ltpFR2	23	n/a	n/a	n/a	2	14	4	4	6
326240	PROB	n/a	LTP307	ltpFR2	23	n/a	n/a	n/a	2	14	6	2	6
327492	PROB	n/a	LTP307	ltpFR2	23	n/a	n/a	n/a	2	11	1	6	4
328543	PROB	n/a	LTP307	ltpFR2	23	n/a	n/a	n/a	2	15	5	3	7
329800	STOP	n/a	LTP307	ltpFR2	23	n/a	n/a	n/a	2	n/a	n/a	n/a	n/a
332482	REC_START	n/a	LTP307	ltpFR2	23	2	n/a	n/a	n/a	n/a	0	0	0
333342	REC_WORD	wordpools/wasnorm_wordpool_576.txt	LTP307	ltpFR2	23	2	REPTILE	1185	n/a	n/a	0	0	0
334183	REC_WORD	wordpools/wasnorm_wordpool_576.txt	LTP307	ltpFR2	23	2	MONGOOSE	909	n/a	n/a	0	0	0
334862	REC_WORD	wordpools/wasnorm_wordpool_576.txt	LTP307	ltpFR2	23	2	CHAMPAGNE	278	n/a	n/a	0	0	0
336119	REC_WORD	wordpools/wasnorm_wordpool_576.txt	LTP307	ltpFR2	23	2	BRIDE	173	n/a	n/a	0	0	0
337397	REC_WORD	wordpools/wasnorm_wordpool_576.txt	LTP307	ltpFR2	23	2	WAITRESS	1581	n/a	n/a	0	0	0
339870	REC_WORD	wordpools/wasnorm_wordpool_576.txt	LTP307	ltpFR2	23	2	CAMEL	223	n/a	n/a	0	0	0
350074	REC_WORD	wordpools/wasnorm_wordpool_576.txt	LTP307	ltpFR2	23	2	JEEP	753	n/a	n/a	0	0	0
350950	REC_WORD	wordpools/wasnorm_wordpool_576.txt	LTP307	ltpFR2	23	2	MUFFIN	929	n/a	n/a	0	0	0
351828	REC_WORD	wordpools/wasnorm_wordpool_576.txt	LTP307	ltpFR2	23	2	WAIST	1579	n/a	n/a	0	0	0
352382	REC_WORD	wordpools/wasnorm_wordpool_576.txt	LTP307	ltpFR2	23	2	SPINACH	1352	n/a	n/a	0	0	0
354190	REC_WORD	wordpools/wasnorm_wordpool_576.txt	LTP307	ltpFR2	23	2	CHICKEN	297	n/a	n/a	0	0	0
355298	REC_WORD	wordpools/wasnorm_wordpool_576.txt	LTP307	ltpFR2	23	2	SHRIMP	1297	n/a	n/a	0	0	0
356271	REC_WORD	wordpools/wasnorm_wordpool_576.txt	LTP307	ltpFR2	23	2	PANTS	1010	n/a	n/a	0	0	0
363441	REC_WORD	wordpools/wasnorm_wordpool_576.txt	LTP307	ltpFR2	23	2	NOTEBOOK	959	n/a	n/a	0	0	0
370880	REC_WORD	wordpools/wasnorm_wordpool_576.txt	LTP307	ltpFR2	23	2	CAMEL	223	n/a	n/a	0	0	0
378332	REC_WORD	wordpools/wasnorm_wordpool_576.txt	LTP307	ltpFR2	23	2	PORT	1110	n/a	n/a	0	0	0
422921	WORD	wordpools/wasnorm_wordpool_576.txt	LTP307	ltpFR2	23	3	RACCOON	1153	n/a	n/a	0	0	0
425707	WORD	wordpools/wasnorm_wordpool_576.txt	LTP307	ltpFR2	23	3	WOLF	1619	n/a	n/a	0	0	0
428475	WORD	wordpools/wasnorm_wordpool_576.txt	LTP307	ltpFR2	23	3	TIGER	1467	n/a	n/a	0	0	0
430928	WORD	wordpools/wasnorm_wordpool_576.txt	LTP307	ltpFR2	23	3	SNOB	1335	n/a	n/a	0	0	0
433501	WORD	wordpools/wasnorm_wordpool_576.txt	LTP307	ltpFR2	23	3	PIRATE	1074	n/a	n/a	0	0	0
436265	WORD	wordpools/wasnorm_wordpool_576.txt	LTP307	ltpFR2	23	3	CAPTAIN	239	n/a	n/a	0	0	0
438901	WORD	wordpools/wasnorm_wordpool_576.txt	LTP307	ltpFR2	23	3	PORK	1108	n/a	n/a	0	0	0
441441	WORD	wordpools/wasnorm_wordpool_576.txt	LTP307	ltpFR2	23	3	SALESMAN	1225	n/a	n/a	0	0	0
444138	WORD	wordpools/wasnorm_wordpool_576.txt	LTP307	ltpFR2	23	3	SNEAKER	1334	n/a	n/a	0	0	0
446874	WORD	wordpools/wasnorm_wordpool_576.txt	LTP307	ltpFR2	23	3	LAKE	796	n/a	n/a	0	0	0
449594	WORD	wordpools/wasnorm_wordpool_576.txt	LTP307	ltpFR2	23	3	CHISEL	305	n/a	n/a	0	0	0
452335	WORD	wordpools/wasnorm_wordpool_576.txt	LTP307	ltpFR2	23	3	SCRIBBLE	1256	n/a	n/a	0	0	0
454981	WORD	wordpools/wasnorm_wordpool_576.txt	LTP307	ltpFR2	23	3	KITTEN	780	n/a	n/a	0	0	0
457741	WORD	wordpools/wasnorm_wordpool_576.txt	LTP307	ltpFR2	23	3	STOVE	1388	n/a	n/a	0	0	0
460434	WORD	wordpools/wasnorm_wordpool_576.txt	LTP307	ltpFR2	23	3	HAMMER	680	n/a	n/a	0	0	0
463137	WORD	wordpools/wasnorm_wordpool_576.txt	LTP307	ltpFR2	23	3	DOCTOR	478	n/a	n/a	0	0	0
465848	WORD	wordpools/wasnorm_wordpool_576.txt	LTP307	ltpFR2	23	3	STOCKING	1383	n/a	n/a	0	0	0
468549	WORD	wordpools/wasnorm_wordpool_576.txt	LTP307	ltpFR2	23	3	PERSON	1052	n/a	n/a	0	0	0
471061	WORD	wordpools/wasnorm_wordpool_576.txt	LTP307	ltpFR2	23	3	SCOTCH	1251	n/a	n/a	0	0	0
473805	WORD	wordpools/wasnorm_wordpool_576.txt	LTP307	ltpFR2	23	3	MOUNTAIN	924	n/a	n/a	0	0	0
476331	WORD	wordpools/wasnorm_wordpool_576.txt	LTP307	ltpFR2	23	3	HUSBAND	728	n/a	n/a	0	0	0
478750	WORD	wordpools/wasnorm_wordpool_576.txt	LTP307	ltpFR2	23	3	FOX	598	n/a	n/a	0	0	0
481501	WORD	wordpools/wasnorm_wordpool_576.txt	LTP307	ltpFR2	23	3	RUBY	1214	n/a	n/a	0	0	0
484187	WORD	wordpools/wasnorm_wordpool_576.txt	LTP307	ltpFR2	23	3	SPHINX	1349	n/a	n/a	0	0	0
485799	START	n/a	LTP307	ltpFR2	23	n/a	n/a	n/a	3	n/a	n/a	n/a	n/a
486893	DISTRACTOR	n/a	LTP307	ltpFR2	23	3	n/a	n/a	n/a	n/a	0	0	0
486900	PROB	n/a	LTP307	ltpFR2	23	n/a	n/a	n/a	3	18	4	9	5
488624	PROB	n/a	LTP307	ltpFR2	23	n/a	n/a	n/a	3	22	5	9	8
490676	PROB	n/a	LTP307	ltpFR2	23	n/a	n/a	n/a	3	10	1	5	4
491776	PROB	n/a	LTP307	ltpFR2	23	n/a	n/a	n/a	3	10	3	4	3
492878	PROB	n/a	LTP307	ltpFR2	23	n/a	n/a	n/a	3	22	8	7	7
494160	PROB	n/a	LTP307	ltpFR2	23	n/a	n/a	n/a	3	12	6	1	5
495228	PROB	n/a	LTP307	ltpFR2	23	n/a	n/a	n/a	3	15	6	6	3
496295	PROB	n/a	LTP307	ltpFR2	23	n/a	n/a	n/a	3	16	5	5	6
497297	PROB	n/a	LTP307	ltpFR2	23	n/a	n/a	n/a	3	15	9	2	4
498381	PROB	n/a	LTP307	ltpFR2	23	n/a	n/a	n/a	3	15	2	7	6
499448	PROB	n/a	LTP307	ltpFR2	23	n/a	n/a	n/a	3	10	1	2	7
500516	PROB	n/a	LTP307	ltpFR2	23	n/a	n/a	n/a	3	9	4	2	3
502719	PROB	n/a	LTP307	ltpFR2	23	n/a	n/a	n/a	3	21	6	6	9
504038	PROB	n/a	LTP307	ltpFR2	23	n/a	n/a	n/a	3	13	4	6	3
505420	PROB	n/a	LTP307	ltpFR2	23	n/a	n/a	n/a	3	14	9	4	1
506590	PROB	n/a	LTP307	ltpFR2	23	n/a	n/a	n/a	3	11	8	1	2
507674	PROB	n/a	LTP307	ltpFR2	23	n/a	n/a	n/a	3	21	9	7	6
509334	STOP	n/a	LTP307	ltpFR2	23	n/a	n/a	n/a	3	n/a	n/a	n/a	n/a
511695	REC_START	n/a	LTP307	ltpFR2	23	3	n/a	n/a	n/a	n/a	0	0	0
516780	REC_WORD	wordpools/wasnorm_wordpool_576.txt	LTP307	ltpFR2	23	3	SCRIBBLE	1256	n/a	n/a	0	0	0
517647	REC_WORD	wordpools/wasnorm_wordpool_576.txt	LTP307	ltpFR2	23	3	LAKE	796	n/a	n/a	0	0	0
518271	REC_WORD	wordpools/wasnorm_wordpool_576.txt	LTP307	ltpFR2	23	3	SNEAKER	1334	n/a	n/a	0	0	0
519086	REC_WORD	wordpools/wasnorm_wordpool_576.txt	LTP307	ltpFR2	23	3	CHISEL	305	n/a	n/a	0	0	0
519895	REC_WORD	wordpools/wasnorm_wordpool_576.txt	LTP307	ltpFR2	23	3	TIGER	1467	n/a	n/a	0	0	0
520683	REC_WORD	wordpools/wasnorm_wordpool_576.txt	LTP307	ltpFR2	23	3	WOLF	1619	n/a	n/a	0	0	0
521958	REC_WORD	wordpools/wasnorm_wordpool_576.txt	LTP307	ltpFR2	23	3	FOX	598	n/a	n/a	0	0	0
526453	REC_WORD	wordpools/wasnorm_wordpool_576.txt	LTP307	ltpFR2	23	3	SNAKE	1333	n/a	n/a	0	0	0
530231	REC_WORD	wordpools/wasnorm_wordpool_576.txt	LTP307	ltpFR2	23	3	PORK	1108	n/a	n/a	0	0	0
530981	REC_WORD	wordpools/wasnorm_wordpool_576.txt	LTP307	ltpFR2	23	3	RUBY	1214	n/a	n/a	0	0	0
532448	REC_WORD	wordpools/wasnorm_wordpool_576.txt	LTP307	ltpFR2	23	3	SPHINX	1349	n/a	n/a	0	0	0
543675	REC_WORD	wordpools/wasnorm_wordpool_576.txt	LTP307	ltpFR2	23	3	SALESMAN	1225	n/a	n/a	0	0	0
545090	REC_WORD	wordpools/wasnorm_wordpool_576.txt	LTP307	ltpFR2	23	3	PERSON	1052	n/a	n/a	0	0	0
545847	REC_WORD	wordpools/wasnorm_wordpool_576.txt	LTP307	ltpFR2	23	3	SCOTCH	1251	n/a	n/a	0	0	0
546767	REC_WORD	wordpools/wasnorm_wordpool_576.txt	LTP307	ltpFR2	23	3	MOUNTAIN	924	n/a	n/a	0	0	0
547627	REC_WORD	wordpools/wasnorm_wordpool_576.txt	LTP307	ltpFR2	23	3	HUSBAND	728	n/a	n/a	0	0	0
550856	REC_WORD	wordpools/wasnorm_wordpool_576.txt	LTP307	ltpFR2	23	3	HAMMER	680	n/a	n/a	0	0	0
552633	REC_WORD	wordpools/wasnorm_wordpool_576.txt	LTP307	ltpFR2	23	3	DOCTOR	478	n/a	n/a	0	0	0
557218	REC_WORD	wordpools/wasnorm_wordpool_576.txt	LTP307	ltpFR2	23	3	PIRATE	1074	n/a	n/a	0	0	0
557901	REC_WORD	wordpools/wasnorm_wordpool_576.txt	LTP307	ltpFR2	23	3	CAPTAIN	239	n/a	n/a	0	0	0
559061	REC_WORD	wordpools/wasnorm_wordpool_576.txt	LTP307	ltpFR2	23	3	KITTEN	780	n/a	n/a	0	0	0
560915	REC_WORD	wordpools/wasnorm_wordpool_576.txt	LTP307	ltpFR2	23	3	STOVE	1388	n/a	n/a	0	0	0
602164	WORD	wordpools/wasnorm_wordpool_576.txt	LTP307	ltpFR2	23	4	SLIME	1327	n/a	n/a	0	0	0
604785	WORD	wordpools/wasnorm_wordpool_576.txt	LTP307	ltpFR2	23	4	CANAL	226	n/a	n/a	0	0	0
607519	WORD	wordpools/wasnorm_wordpool_576.txt	LTP307	ltpFR2	23	4	PECAN	1036	n/a	n/a	0	0	0
610089	WORD	wordpools/wasnorm_wordpool_576.txt	LTP307	ltpFR2	23	4	HAYSTACK	694	n/a	n/a	0	0	0
612876	WORD	wordpools/wasnorm_wordpool_576.txt	LTP307	ltpFR2	23	4	CIRCUS	311	n/a	n/a	0	0	0
615560	WORD	wordpools/wasnorm_wordpool_576.txt	LTP307	ltpFR2	23	4	ACORN	3	n/a	n/a	0	0	0
618345	WORD	wordpools/wasnorm_wordpool_576.txt	LTP307	ltpFR2	23	4	PANTHER	1009	n/a	n/a	0	0	0
621047	WORD	wordpools/wasnorm_wordpool_576.txt	LTP307	ltpFR2	23	4	HOUSE	725	n/a	n/a	0	0	0
623850	WORD	wordpools/wasnorm_wordpool_576.txt	LTP307	ltpFR2	23	4	BOTTLE	153	n/a	n/a	0	0	0
626551	WORD	wordpools/wasnorm_wordpool_576.txt	LTP307	ltpFR2	23	4	CRYSTAL	418	n/a	n/a	0	0	0
629005	WORD	wordpools/wasnorm_wordpool_576.txt	LTP307	ltpFR2	23	4	PICKLE	1059	n/a	n/a	0	0	0
631575	WORD	wordpools/wasnorm_wordpool_576.txt	LTP307	ltpFR2	23	4	NEEDLE	941	n/a	n/a	0	0	0
634041	WORD	wordpools/wasnorm_wordpool_576.txt	LTP307	ltpFR2	23	4	JUDGE	761	n/a	n/a	0	0	0
636510	WORD	wordpools/wasnorm_wordpool_576.txt	LTP307	ltpFR2	23	4	LOUNGE	845	n/a	n/a	0	0	0
639032	WORD	wordpools/wasnorm_wordpool_576.txt	LTP307	ltpFR2	23	4	TAVERN	1437	n/a	n/a	0	0	0
641734	WORD	wordpools/wasnorm_wordpool_576.txt	LTP307	ltpFR2	23	4	CASHEW	253	n/a	n/a	0	0	0
644499	WORD	wordpools/wasnorm_wordpool_576.txt	LTP307	ltpFR2	23	4	BISCUIT	130	n/a	n/a	0	0	0
647255	WORD	wordpools/wasnorm_wordpool_576.txt	LTP307	ltpFR2	23	4	SIDING	1304	n/a	n/a	0	0	0
649921	WORD	wordpools/wasnorm_wordpool_576.txt	LTP307	ltpFR2	23	4	CACTUS	215	n/a	n/a	0	0	0
652342	WORD	wordpools/wasnorm_wordpool_576.txt	LTP307	ltpFR2	23	4	MEADOW	881	n/a	n/a	0	0	0
655075	WORD	wordpools/wasnorm_wordpool_576.txt	LTP307	ltpFR2	23	4	HANDCUFFS	685	n/a	n/a	0	0	0
657848	WORD	wordpools/wasnorm_wordpool_576.txt	LTP307	ltpFR2	23	4	ULCER	1533	n/a	n/a	0	0	0
660516	WORD	wordpools/wasnorm_wordpool_576.txt	LTP307	ltpFR2	23	4	JURY	766	n/a	n/a	0	0	0
663032	WORD	wordpools/wasnorm_wordpool_576.txt	LTP307	ltpFR2	23	4	CROOK	412	n/a	n/a	0	0	0
664638	START	n/a	LTP307	ltpFR2	23	n/a	n/a	n/a	4	n/a	n/a	n/a	n/a
665587	DISTRACTOR	n/a	LTP307	ltpFR2	23	4	n/a	n/a	n/a	n/a	0	0	0
665600	PROB	n/a	LTP307	ltpFR2	23	n/a	n/a	n/a	4	10	4	5	1
666801	PROB	n/a	LTP307	ltpFR2	23	n/a	n/a	n/a	4	14	4	4	6
667986	PROB	n/a	LTP307	ltpFR2	23	n/a	n/a	n/a	4	10	5	1	4
669052	PROB	n/a	LTP307	ltpFR2	23	n/a	n/a	n/a	4	16	8	2	6
670402	PROB	n/a	LTP307	ltpFR2	23	n/a	n/a	n/a	4	20	9	4	7
672940	PROB	n/a	LTP307	ltpFR2	23	n/a	n/a	n/a	4	10	4	3	3
674089	PROB	n/a	LTP307	ltpFR2	23	n/a	n/a	n/a	4	7	2	1	4
675406	PROB	n/a	LTP307	ltpFR2	23	n/a	n/a	n/a	4	13	3	3	7
676675	PROB	n/a	LTP307	ltpFR2	23	n/a	n/a	n/a	4	19	6	5	8
677959	PROB	n/a	LTP307	ltpFR2	23	n/a	n/a	n/a	4	18	3	8	7
679376	PROB	n/a	LTP307	ltpFR2	23	n/a	n/a	n/a	4	9	6	1	2
681512	PROB	n/a	LTP307	ltpFR2	23	n/a	n/a	n/a	4	21	6	8	7
683080	PROB	n/a	LTP307	ltpFR2	23	n/a	n/a	n/a	4	16	6	9	1
684313	PROB	n/a	LTP307	ltpFR2	23	n/a	n/a	n/a	4	15	5	8	2
685616	PROB	n/a	LTP307	ltpFR2	23	n/a	n/a	n/a	4	12	2	4	6
686682	PROB	n/a	LTP307	ltpFR2	23	n/a	n/a	n/a	4	13	8	3	2
687846	STOP	n/a	LTP307	ltpFR2	23	n/a	n/a	n/a	4	n/a	n/a	n/a	n/a
690436	REC_START	n/a	LTP307	ltpFR2	23	4	n/a	n/a	n/a	n/a	0	0	0
691561	REC_WORD	wordpools/wasnorm_wordpool_576.txt	LTP307	ltpFR2	23	4	CROOK	412	n/a	n/a	0	0	0
692382	REC_WORD	wordpools/wasnorm_wordpool_576.txt	LTP307	ltpFR2	23	4	ULCER	1533	n/a	n/a	0	0	0
693081	REC_WORD	wordpools/wasnorm_wordpool_576.txt	LTP307	ltpFR2	23	4	JUDGE	761	n/a	n/a	0	0	0
693832	REC_WORD	wordpools/wasnorm_wordpool_576.txt	LTP307	ltpFR2	23	4	JURY	766	n/a	n/a	0	0	0
694615	REC_WORD	wordpools/wasnorm_wordpool_576.txt	LTP307	ltpFR2	23	4	HANDCUFFS	685	n/a	n/a	0	0	0
697989	REC_WORD	wordpools/wasnorm_wordpool_576.txt	LTP307	ltpFR2	23	4	LOUNGE	845	n/a	n/a	0	0	0
698703	REC_WORD	wordpools/wasnorm_wordpool_576.txt	LTP307	ltpFR2	23	4	TAVERN	1437	n/a	n/a	0	0	0
699557	REC_WORD	wordpools/wasnorm_wordpool_576.txt	LTP307	ltpFR2	23	4	BOTTLE	153	n/a	n/a	0	0	0
700239	REC_WORD	wordpools/wasnorm_wordpool_576.txt	LTP307	ltpFR2	23	4	CASHEW	253	n/a	n/a	0	0	0
701158	REC_WORD	wordpools/wasnorm_wordpool_576.txt	LTP307	ltpFR2	23	4	PECAN	1036	n/a	n/a	0	0	0
701896	REC_WORD	wordpools/wasnorm_wordpool_576.txt	LTP307	ltpFR2	23	4	CANAL	226	n/a	n/a	0	0	0
703709	REC_WORD	wordpools/wasnorm_wordpool_576.txt	LTP307	ltpFR2	23	4	HOUSE	725	n/a	n/a	0	0	0
704374	REC_WORD	wordpools/wasnorm_wordpool_576.txt	LTP307	ltpFR2	23	4	SIDING	1304	n/a	n/a	0	0	0
705195	REC_WORD	wordpools/wasnorm_wordpool_576.txt	LTP307	ltpFR2	23	4	CACTUS	215	n/a	n/a	0	0	0
705999	REC_WORD	wordpools/wasnorm_wordpool_576.txt	LTP307	ltpFR2	23	4	MEADOW	881	n/a	n/a	0	0	0
708476	REC_WORD	wordpools/wasnorm_wordpool_576.txt	LTP307	ltpFR2	23	4	CRYSTAL	418	n/a	n/a	0	0	0
715991	REC_WORD	wordpools/wasnorm_wordpool_576.txt	LTP307	ltpFR2	23	4	PANTHER	1009	n/a	n/a	0	0	0
780871	WORD	wordpools/wasnorm_wordpool_576.txt	LTP307	ltpFR2	23	5	PLUMBER	1091	n/a	n/a	0	0	0
783327	WORD	wordpools/wasnorm_wordpool_576.txt	LTP307	ltpFR2	23	5	SPIDER	1351	n/a	n/a	0	0	0
785893	WORD	wordpools/wasnorm_wordpool_576.txt	LTP307	ltpFR2	23	5	FLANNEL	574	n/a	n/a	0	0	0
788629	WORD	wordpools/wasnorm_wordpool_576.txt	LTP307	ltpFR2	23	5	FREEZER	604	n/a	n/a	0	0	0
791180	WORD	wordpools/wasnorm_wordpool_576.txt	LTP307	ltpFR2	23	5	SCARF	1246	n/a	n/a	0	0	0
793983	WORD	wordpools/wasnorm_wordpool_576.txt	LTP307	ltpFR2	23	5	QUAIL	1147	n/a	n/a	0	0	0
796619	WORD	wordpools/wasnorm_wordpool_576.txt	LTP307	ltpFR2	23	5	APPLE	33	n/a	n/a	0	0	0
799404	WORD	wordpools/wasnorm_wordpool_576.txt	LTP307	ltpFR2	23	5	GRAVE	658	n/a	n/a	0	0	0
801840	WORD	wordpools/wasnorm_wordpool_576.txt	LTP307	ltpFR2	23	5	CASKET	255	n/a	n/a	0	0	0
804442	WORD	wordpools/wasnorm_wordpool_576.txt	LTP307	ltpFR2	23	5	FRIES	607	n/a	n/a	0	0	0
806930	WORD	wordpools/wasnorm_wordpool_576.txt	LTP307	ltpFR2	23	5	SALAD	1224	n/a	n/a	0	0	0
809697	WORD	wordpools/wasnorm_wordpool_576.txt	LTP307	ltpFR2	23	5	GAZELLE	628	n/a	n/a	0	0	0
812465	WORD	wordpools/wasnorm_wordpool_576.txt	LTP307	ltpFR2	23	5	CABBAGE	210	n/a	n/a	0	0	0
815035	WORD	wordpools/wasnorm_wordpool_576.txt	LTP307	ltpFR2	23	5	PLAYGROUND	1087	n/a	n/a	0	0	0
817689	WORD	wordpools/wasnorm_wordpool_576.txt	LTP307	ltpFR2	23	5	SPARROW	1347	n/a	n/a	0	0	0
820272	WORD	wordpools/wasnorm_wordpool_576.txt	LTP307	ltpFR2	23	5	FUNGUS	614	n/a	n/a	0	0	0
823009	WORD	wordpools/wasnorm_wordpool_576.txt	LTP307	ltpFR2	23	5	CLERK	321	n/a	n/a	0	0	0
825494	WORD	wordpools/wasnorm_wordpool_576.txt	LTP307	ltpFR2	23	5	FOUNTAIN	597	n/a	n/a	0	0	0
828279	WORD	wordpools/wasnorm_wordpool_576.txt	LTP307	ltpFR2	23	5	PENCIL	1042	n/a	n/a	0	0	0
830983	WORD	wordpools/wasnorm_wordpool_576.txt	LTP307	ltpFR2	23	5	PARROT	1015	n/a	n/a	0	0	0
833500	WORD	wordpools/wasnorm_wordpool_576.txt	LTP307	ltpFR2	23	5	BEDROOM	111	n/a	n/a	0	0	0
836220	WORD	wordpools/wasnorm_wordpool_576.txt	LTP307	ltpFR2	23	5	TUBA	1515	n/a	n/a	0	0	0
838723	WORD	wordpools/wasnorm_wordpool_576.txt	LTP307	ltpFR2	23	5	WHISTLE	1606	n/a	n/a	0	0	0
841274	WORD	wordpools/wasnorm_wordpool_576.txt	LTP307	ltpFR2	23	5	ELK	526	n/a	n/a	0	0	0
842894	START	n/a	LTP307	ltpFR2	23	n/a	n/a	n/a	5	n/a	n/a	n/a	n/a
843767	DISTRACTOR	n/a	LTP307	ltpFR2	23	5	n/a	n/a	n/a	n/a	0	0	0
843777	PROB	n/a	LTP307	ltpFR2	23	n/a	n/a	n/a	5	15	3	7	5
845043	PROB	n/a	LTP307	ltpFR2	23	n/a	n/a	n/a	5	16	2	5	9
847028	PROB	n/a	LTP307	ltpFR2	23	n/a	n/a	n/a	5	13	4	5	4
848596	PROB	n/a	LTP307	ltpFR2	23	n/a	n/a	n/a	5	18	8	1	9
849680	PROB	n/a	LTP307	ltpFR2	23	n/a	n/a	n/a	5	19	8	7	4
850915	PROB	n/a	LTP307	ltpFR2	23	n/a	n/a	n/a	5	9	3	4	2
852231	PROB	n/a	LTP307	ltpFR2	23	n/a	n/a	n/a	5	13	9	2	2
853315	PROB	n/a	LTP307	ltpFR2	23	n/a	n/a	n/a	5	18	6	8	4
854701	PROB	n/a	LTP307	ltpFR2	23	n/a	n/a	n/a	5	20	4	7	9
856019	PROB	n/a	LTP307	ltpFR2	23	n/a	n/a	n/a	5	12	6	2	4
857168	PROB	n/a	LTP307	ltpFR2	23	n/a	n/a	n/a	5	21	6	8	7
858989	PROB	n/a	LTP307	ltpFR2	23	n/a	n/a	n/a	5	19	5	6	8
860238	PROB	n/a	LTP307	ltpFR2	23	n/a	n/a	n/a	5	22	8	7	7
861374	PROB	n/a	LTP307	ltpFR2	23	n/a	n/a	n/a	5	13	7	3	3
862357	PROB	n/a	LTP307	ltpFR2	23	n/a	n/a	n/a	5	21	9	7	6
865191	PROB	n/a	LTP307	ltpFR2	23	n/a	n/a	n/a	5	15	2	4	9
866348	STOP	n/a	LTP307	ltpFR2	23	n/a	n/a	n/a	5	n/a	n/a	n/a	n/a
868846	REC_START	n/a	LTP307	ltpFR2	23	5	n/a	n/a	n/a	n/a	0	0	0
874412	REC_WORD	wordpools/wasnorm_wordpool_576.txt	LTP307	ltpFR2	23	5	BEDROOM	111	n/a	n/a	0	0	0
876491	REC_WORD	wordpools/wasnorm_wordpool_576.txt	LTP307	ltpFR2	23	5	ELK	526	n/a	n/a	0	0	0
877436	REC_WORD	wordpools/wasnorm_wordpool_576.txt	LTP307	ltpFR2	23	5	GAZELLE	628	n/a	n/a	0	0	0
878526	REC_WORD	wordpools/wasnorm_wordpool_576.txt	LTP307	ltpFR2	23	5	WHISTLE	1606	n/a	n/a	0	0	0
879383	REC_WORD	wordpools/wasnorm_wordpool_576.txt	LTP307	ltpFR2	23	5	TUBA	1515	n/a	n/a	0	0	0
880803	REC_WORD	wordpools/wasnorm_wordpool_576.txt	LTP307	ltpFR2	23	5	FOUNTAIN	597	n/a	n/a	0	0	0
881640	REC_WORD	wordpools/wasnorm_wordpool_576.txt	LTP307	ltpFR2	23	5	PLAYGROUND	1087	n/a	n/a	0	0	0
882498	REC_WORD	wordpools/wasnorm_wordpool_576.txt	LTP307	ltpFR2	23	5	SPARROW	1347	n/a	n/a	0	0	0
883712	REC_WORD	wordpools/wasnorm_wordpool_576.txt	LTP307	ltpFR2	23	5	PARROT	1015	n/a	n/a	0	0	0
884600	REC_WORD	wordpools/wasnorm_wordpool_576.txt	LTP307	ltpFR2	23	5	PENCIL	1042	n/a	n/a	0	0	0
892916	REC_WORD	wordpools/wasnorm_wordpool_576.txt	LTP307	ltpFR2	23	5	FUNGUS	614	n/a	n/a	0	0	0
893799	REC_WORD	wordpools/wasnorm_wordpool_576.txt	LTP307	ltpFR2	23	5	CLERK	321	n/a	n/a	0	0	0
898657	REC_WORD	wordpools/wasnorm_wordpool_576.txt	LTP307	ltpFR2	23	5	SPIDER	1351	n/a	n/a	0	0	0
899616	REC_WORD	wordpools/wasnorm_wordpool_576.txt	LTP307	ltpFR2	23	5	PLUMBER	1091	n/a	n/a	0	0	0
900494	REC_WORD	wordpools/wasnorm_wordpool_576.txt	LTP307	ltpFR2	23	5	FLANNEL	574	n/a	n/a	0	0	0
903969	REC_WORD	wordpools/wasnorm_wordpool_576.txt	LTP307	ltpFR2	23	5	QUAIL	1147	n/a	n/a	0	0	0
904698	REC_WORD	wordpools/wasnorm_wordpool_576.txt	LTP307	ltpFR2	23	5	SCARF	1246	n/a	n/a	0	0	0
905638	REC_WORD	wordpools/wasnorm_wordpool_576.txt	LTP307	ltpFR2	23	5	FREEZER	604	n/a	n/a	0	0	0
907916	REC_WORD	wordpools/wasnorm_wordpool_576.txt	LTP307	ltpFR2	23	5	APPLE	33	n/a	n/a	0	0	0
959270	DISTRACTOR	n/a	LTP307	ltpFR2	23	6	n/a	n/a	n/a	n/a	0	0	0
959270	START	n/a	LTP307	ltpFR2	23	n/a	n/a	n/a	6	n/a	n/a	n/a	n/a
959285	PROB	n/a	LTP307	ltpFR2	23	n/a	n/a	n/a	6	13	4	2	7
961136	PROB	n/a	LTP307	ltpFR2	23	n/a	n/a	n/a	6	22	6	7	9
963403	PROB	n/a	LTP307	ltpFR2	23	n/a	n/a	n/a	6	22	6	7	9
965072	PROB	n/a	LTP307	ltpFR2	23	n/a	n/a	n/a	6	19	9	2	8
966624	PROB	n/a	LTP307	ltpFR2	23	n/a	n/a	n/a	6	6	4	1	1
967492	PROB	n/a	LTP307	ltpFR2	23	n/a	n/a	n/a	6	12	2	7	3
968558	PROB	n/a	LTP307	ltpFR2	23	n/a	n/a	n/a	6	16	6	7	3
969743	PROB	n/a	LTP307	ltpFR2	23	n/a	n/a	n/a	6	13	6	4	3
971079	PROB	n/a	LTP307	ltpFR2	23	n/a	n/a	n/a	6	20	6	7	7
972629	PROB	n/a	LTP307	ltpFR2	23	n/a	n/a	n/a	6	17	3	5	9
974782	PROB	n/a	LTP307	ltpFR2	23	n/a	n/a	n/a	6	17	8	7	2
976032	PROB	n/a	LTP307	ltpFR2	23	n/a	n/a	n/a	6	18	7	4	7
977431	PROB	n/a	LTP307	ltpFR2	23	n/a	n/a	n/a	6	13	3	4	6
978568	PROB	n/a	LTP307	ltpFR2	23	n/a	n/a	n/a	6	14	1	8	5
979752	PROB	n/a	LTP307	ltpFR2	23	n/a	n/a	n/a	6	9	4	3	2
981052	PROB	n/a	LTP307	ltpFR2	23	n/a	n/a	n/a	6	15	7	1	7
982034	STOP	n/a	LTP307	ltpFR2	23	n/a	n/a	n/a	6	n/a	n/a	n/a	n/a
984334	WORD	wordpools/wasnorm_wordpool_576.txt	LTP307	ltpFR2	23	6	VENUS	1557	n/a	n/a	0	0	0
986902	WORD	wordpools/wasnorm_wordpool_576.txt	LTP307	ltpFR2	23	6	CLOTHES	327	n/a	n/a	0	0	0
989419	WORD	wordpools/wasnorm_wordpool_576.txt	LTP307	ltpFR2	23	6	SIRLOIN	1311	n/a	n/a	0	0	0
991873	WORD	wordpools/wasnorm_wordpool_576.txt	LTP307	ltpFR2	23	6	PISTOL	1075	n/a	n/a	0	0	0
994608	WORD	wordpools/wasnorm_wordpool_576.txt	LTP307	ltpFR2	23	6	FRANCE	601	n/a	n/a	0	0	0
997427	WORD	wordpools/wasnorm_wordpool_576.txt	LTP307	ltpFR2	23	6	LASER	801	n/a	n/a	0	0	0
1000179	WORD	wordpools/wasnorm_wordpool_576.txt	LTP307	ltpFR2	23	6	WARDROBE	1587	n/a	n/a	0	0	0
1002638	WORD	wordpools/wasnorm_wordpool_576.txt	LTP307	ltpFR2	23	6	NOMAD	955	n/a	n/a	0	0	0
1005200	WORD	wordpools/wasnorm_wordpool_576.txt	LTP307	ltpFR2	23	6	COWBOY	395	n/a	n/a	0	0	0
1007669	WORD	wordpools/wasnorm_wordpool_576.txt	LTP307	ltpFR2	23	6	MONARCH	906	n/a	n/a	0	0	0
1010321	WORD	wordpools/wasnorm_wordpool_576.txt	LTP307	ltpFR2	23	6	STRANGER	1389	n/a	n/a	0	0	0
1012991	WORD	wordpools/wasnorm_wordpool_576.txt	LTP307	ltpFR2	23	6	BACKBONE	66	n/a	n/a	0	0	0
1015581	WORD	wordpools/wasnorm_wordpool_576.txt	LTP307	ltpFR2	23	6	CLAMP	316	n/a	n/a	0	0	0
1018029	WORD	wordpools/wasnorm_wordpool_576.txt	LTP307	ltpFR2	23	6	FAUCET	555	n/a	n/a	0	0	0
1020514	WORD	wordpools/wasnorm_wordpool_576.txt	LTP307	ltpFR2	23	6	GRASS	655	n/a	n/a	0	0	0
1023020	WORD	wordpools/wasnorm_wordpool_576.txt	LTP307	ltpFR2	23	6	BODY	145	n/a	n/a	0	0	0
1025535	WORD	wordpools/wasnorm_wordpool_576.txt	LTP307	ltpFR2	23	6	ANGEL	22	n/a	n/a	0	0	0
1028186	WORD	wordpools/wasnorm_wordpool_576.txt	LTP307	ltpFR2	23	6	FRIAR	605	n/a	n/a	0	0	0
1030639	WORD	wordpools/wasnorm_wordpool_576.txt	LTP307	ltpFR2	23	6	CHAPEL	280	n/a	n/a	0	0	0
1033175	WORD	wordpools/wasnorm_wordpool_576.txt	LTP307	ltpFR2	23	6	CABLE	213	n/a	n/a	0	0	0
1035881	WORD	wordpools/wasnorm_wordpool_576.txt	LTP307	ltpFR2	23	6	GANGSTER	620	n/a	n/a	0	0	0
1038529	WORD	wordpools/wasnorm_wordpool_576.txt	LTP307	ltpFR2	23	6	CRUTCH	417	n/a	n/a	0	0	0
1041048	WORD	wordpools/wasnorm_wordpool_576.txt	LTP307	ltpFR2	23	6	ANKLE	24	n/a	n/a	0	0	0
1043770	WORD	wordpools/wasnorm_wordpool_576.txt	LTP307	ltpFR2	23	6	TORCH	1484	n/a	n/a	0	0	0
1045385	START	n/a	LTP307	ltpFR2	23	n/a	n/a	n/a	7	n/a	n/a	n/a	n/a
1046571	DISTRACTOR	n/a	LTP307	ltpFR2	23	6	n/a	n/a	n/a	n/a	0	0	0
1046587	PROB	n/a	LTP307	ltpFR2	23	n/a	n/a	n/a	7	10	3	5	2
1047922	PROB	n/a	LTP307	ltpFR2	23	n/a	n/a	n/a	7	16	3	6	7
1049623	PROB	n/a	LTP307	ltpFR2	23	n/a	n/a	n/a	7	6	1	4	1
1050574	PROB	n/a	LTP307	ltpFR2	23	n/a	n/a	n/a	7	14	3	4	7
1051957	PROB	n/a	LTP307	ltpFR2	23	n/a	n/a	n/a	7	17	5	7	5
1053294	PROB	n/a	LTP307	ltpFR2	23	n/a	n/a	n/a	7	14	4	7	3
1054759	PROB	n/a	LTP307	ltpFR2	23	n/a	n/a	n/a	7	14	9	3	2
1055996	PROB	n/a	LTP307	ltpFR2	23	n/a	n/a	n/a	7	13	3	5	5
1057147	PROB	n/a	LTP307	ltpFR2	23	n/a	n/a	n/a	7	15	6	4	5
1058215	PROB	n/a	LTP307	ltpFR2	23	n/a	n/a	n/a	7	12	5	2	5
1059331	PROB	n/a	LTP307	ltpFR2	23	n/a	n/a	n/a	7	14	5	5	4
1060316	PROB	n/a	LTP307	ltpFR2	23	n/a	n/a	n/a	7	17	9	4	4
1061984	PROB	n/a	LTP307	ltpFR2	23	n/a	n/a	n/a	7	21	9	9	3
1063235	PROB	n/a	LTP307	ltpFR2	23	n/a	n/a	n/a	7	15	4	7	4
1065070	PROB	n/a	LTP307	ltpFR2	23	n/a	n/a	n/a	7	9	2	3	4
1066372	PROB	n/a	LTP307	ltpFR2	23	n/a	n/a	n/a	7	18	7	4	7
1069385	STOP	n/a	LTP307	ltpFR2	23	n/a	n/a	n/a	7	n/a	n/a	n/a	n/a
1071325	REC_START	n/a	LTP307	ltpFR2	23	6	n/a	n/a	n/a	n/a	0	0	0
1072765	REC_WORD	wordpools/wasnorm_wordpool_576.txt	LTP307	ltpFR2	23	6	CHAPEL	280	n/a	n/a	0	0	0
1073537	REC_WORD	wordpools/wasnorm_wordpool_576.txt	LTP307	ltpFR2	23	6	FRIAR	605	n/a	n/a	0	0	0
1074304	REC_WORD	wordpools/wasnorm_wordpool_576.txt	LTP307	ltpFR2	23	6	GANGSTER	620	n/a	n/a	0	0	0
1075143	REC_WORD	wordpools/wasnorm_wordpool_576.txt	LTP307	ltpFR2	23	6	ANGEL	22	n/a	n/a	0	0	0
1075847	REC_WORD	wordpools/wasnorm_wordpool_576.txt	LTP307	ltpFR2	23	6	CRUTCH	417	n/a	n/a	0	0	0
1078039	REC_WORD	wordpools/wasnorm_wordpool_576.txt	LTP307	ltpFR2	23	6	TORCH	1484	n/a	n/a	0	0	0
1079416	REC_WORD	wordpools/wasnorm_wordpool_576.txt	LTP307	ltpFR2	23	6	FRANCE	601	n/a	n/a	0	0	0
1080240	REC_WORD	wordpools/wasnorm_wordpool_576.txt	LTP307	ltpFR2	23	6	CLOTHES	327	n/a	n/a	0	0	0
1081074	REC_WORD	wordpools/wasnorm_wordpool_576.txt	LTP307	ltpFR2	23	6	WARDROBE	1587	n/a	n/a	0	0	0
1082517	REC_WORD	wordpools/wasnorm_wordpool_576.txt	LTP307	ltpFR2	23	6	BACKBONE	66	n/a	n/a	0	0	0
1083166	REC_WORD	wordpools/wasnorm_wordpool_576.txt	LTP307	ltpFR2	23	6	STRANGER	1389	n/a	n/a	0	0	0
1085789	REC_WORD	wordpools/wasnorm_wordpool_576.txt	LTP307	ltpFR2	23	6	LASER	801	n/a	n/a	0	0	0
1086622	REC_WORD	wordpools/wasnorm_wordpool_576.txt	LTP307	ltpFR2	23	6	PISTOL	1075	n/a	n/a	0	0	0
1091458	REC_WORD	wordpools/wasnorm_wordpool_576.txt	LTP307	ltpFR2	23	6	GRASS	655	n/a	n/a	0	0	0
1092225	REC_WORD	wordpools/wasnorm_wordpool_576.txt	LTP307	ltpFR2	23	6	BODY	145	n/a	n/a	0	0	0
1092972	REC_WORD	wordpools/wasnorm_wordpool_576.txt	LTP307	ltpFR2	23	6	ANGEL	22	n/a	n/a	0	0	0
1108593	REC_WORD	wordpools/wasnorm_wordpool_576.txt	LTP307	ltpFR2	23	6	SIRLOIN	1311	n/a	n/a	0	0	0
1129470	REC_WORD	wordpools/wasnorm_wordpool_576.txt	LTP307	ltpFR2	23	6	CABLE	213	n/a	n/a	0	0	0
1137615	REC_WORD	wordpools/wasnorm_wordpool_576.txt	LTP307	ltpFR2	23	6	COWBOY	395	n/a	n/a	0	0	0
1138314	REC_WORD	wordpools/wasnorm_wordpool_576.txt	LTP307	ltpFR2	23	6	MONARCH	906	n/a	n/a	0	0	0
1161748	DISTRACTOR	n/a	LTP307	ltpFR2	23	7	n/a	n/a	n/a	n/a	0	0	0
1161749	START	n/a	LTP307	ltpFR2	23	n/a	n/a	n/a	8	n/a	n/a	n/a	n/a
1161765	PROB	n/a	LTP307	ltpFR2	23	n/a	n/a	n/a	8	15	5	8	2
1162932	PROB	n/a	LTP307	ltpFR2	23	n/a	n/a	n/a	8	11	5	5	1
1163900	PROB	n/a	LTP307	ltpFR2	23	n/a	n/a	n/a	8	8	1	6	1
1165017	PROB	n/a	LTP307	ltpFR2	23	n/a	n/a	n/a	8	13	4	7	2
1166603	PROB	n/a	LTP307	ltpFR2	23	n/a	n/a	n/a	8	19	9	6	4
1167785	PROB	n/a	LTP307	ltpFR2	23	n/a	n/a	n/a	8	15	1	6	8
1168786	PROB	n/a	LTP307	ltpFR2	23	n/a	n/a	n/a	8	10	6	3	1
1169854	PROB	n/a	LTP307	ltpFR2	23	n/a	n/a	n/a	8	23	7	8	8
1171922	PROB	n/a	LTP307	ltpFR2	23	n/a	n/a	n/a	8	20	8	3	9
1173422	PROB	n/a	LTP307	ltpFR2	23	n/a	n/a	n/a	8	14	4	2	8
1174674	PROB	n/a	LTP307	ltpFR2	23	n/a	n/a	n/a	8	16	4	3	9
1176208	PROB	n/a	LTP307	ltpFR2	23	n/a	n/a	n/a	8	19	8	6	5
1177509	PROB	n/a	LTP307	ltpFR2	23	n/a	n/a	n/a	8	22	7	6	9
1179244	PROB	n/a	LTP307	ltpFR2	23	n/a	n/a	n/a	8	17	4	8	5
1180746	PROB	n/a	LTP307	ltpFR2	23	n/a	n/a	n/a	8	13	4	4	5
1182264	PROB	n/a	LTP307	ltpFR2	23	n/a	n/a	n/a	8	12	2	9	1
1183413	PROB	n/a	LTP307	ltpFR2	23	n/a	n/a	n/a	8	10	2	2	6
1184706	STOP	n/a	LTP307	ltpFR2	23	n/a	n/a	n/a	8	n/a	n/a	n/a	n/a
1186735	WORD	wordpools/wasnorm_wordpool_576.txt	LTP307	ltpFR2	23	7	FARM	552	n/a	n/a	0	0	0
1189370	WORD	wordpools/wasnorm_wordpool_576.txt	LTP307	ltpFR2	23	7	SAUCER	1237	n/a	n/a	0	0	0
1192014	WORD	wordpools/wasnorm_wordpool_576.txt	LTP307	ltpFR2	23	7	QUEEN	1149	n/a	n/a	0	0	0
1194809	WORD	wordpools/wasnorm_wordpool_576.txt	LTP307	ltpFR2	23	7	STREET	1393	n/a	n/a	0	0	0
1197569	WORD	wordpools/wasnorm_wordpool_576.txt	LTP307	ltpFR2	23	7	MOTHER	921	n/a	n/a	0	0	0
1200105	WORD	wordpools/wasnorm_wordpool_576.txt	LTP307	ltpFR2	23	7	CREVICE	405	n/a	n/a	0	0	0
1202690	WORD	wordpools/wasnorm_wordpool_576.txt	LTP307	ltpFR2	23	7	SHELF	1280	n/a	n/a	0	0	0
1205274	WORD	wordpools/wasnorm_wordpool_576.txt	LTP307	ltpFR2	23	7	ATHLETE	52	n/a	n/a	0	0	0
1207911	WORD	wordpools/wasnorm_wordpool_576.txt	LTP307	ltpFR2	23	7	FIELD	562	n/a	n/a	0	0	0
1210412	WORD	wordpools/wasnorm_wordpool_576.txt	LTP307	ltpFR2	23	7	GRIZZLY	662	n/a	n/a	0	0	0
1212915	WORD	wordpools/wasnorm_wordpool_576.txt	LTP307	ltpFR2	23	7	NAPKIN	937	n/a	n/a	0	0	0
1215685	WORD	wordpools/wasnorm_wordpool_576.txt	LTP307	ltpFR2	23	7	CONCRETE	361	n/a	n/a	0	0	0
1218386	WORD	wordpools/wasnorm_wordpool_576.txt	LTP307	ltpFR2	23	7	PIGEON	1065	n/a	n/a	0	0	0
1221179	WORD	wordpools/wasnorm_wordpool_576.txt	LTP307	ltpFR2	23	7	PERCH	1048	n/a	n/a	0	0	0
1223992	WORD	wordpools/wasnorm_wordpool_576.txt	LTP307	ltpFR2	23	7	NOVEL	960	n/a	n/a	0	0	0
1226761	WORD	wordpools/wasnorm_wordpool_576.txt	LTP307	ltpFR2	23	7	LAUNDRY	803	n/a	n/a	0	0	0
1229395	WORD	wordpools/wasnorm_wordpool_576.txt	LTP307	ltpFR2	23	7	FATHER	554	n/a	n/a	0	0	0
1232098	WORD	wordpools/wasnorm_wordpool_576.txt	LTP307	ltpFR2	23	7	COLLEGE	346	n/a	n/a	0	0	0
1234767	WORD	wordpools/wasnorm_wordpool_576.txt	LTP307	ltpFR2	23	7	COURSE	390	n/a	n/a	0	0	0
1237535	WORD	wordpools/wasnorm_wordpool_576.txt	LTP307	ltpFR2	23	7	ROBBER	1197	n/a	n/a	0	0	0
1240189	WORD	wordpools/wasnorm_wordpool_576.txt	LTP307	ltpFR2	23	7	CONVICT	371	n/a	n/a	0	0	0
1242892	WORD	wordpools/wasnorm_wordpool_576.txt	LTP307	ltpFR2	23	7	ADULT	8	n/a	n/a	0	0	0
1245443	WORD	wordpools/wasnorm_wordpool_576.txt	LTP307	ltpFR2	23	7	CAPE	237	n/a	n/a	0	0	0
1248062	WORD	wordpools/wasnorm_wordpool_576.txt	LTP307	ltpFR2	23	7	JAR	750	n/a	n/a	0	0	0
1249670	START	n/a	LTP307	ltpFR2	23	n/a	n/a	n/a	9	n/a	n/a	n/a	n/a
1250733	DISTRACTOR	n/a	LTP307	ltpFR2	23	7	n/a	n/a	n/a	n/a	0	0	0
1250748	PROB	n/a	LTP307	ltpFR2	23	n/a	n/a	n/a	9	22	9	5	8
1252920	PROB	n/a	LTP307	ltpFR2	23	n/a	n/a	n/a	9	19	2	8	9
1254138	PROB	n/a	LTP307	ltpFR2	23	n/a	n/a	n/a	9	11	1	4	6
1255138	PROB	n/a	LTP307	ltpFR2	23	n/a	n/a	n/a	9	14	1	5	8
1256324	PROB	n/a	LTP307	ltpFR2	23	n/a	n/a	n/a	9	7	1	1	5
1257440	PROB	n/a	LTP307	ltpFR2	23	n/a	n/a	n/a	9	17	7	7	3
1259827	PROB	n/a	LTP307	ltpFR2	23	n/a	n/a	n/a	9	21	5	9	7
1261277	PROB	n/a	LTP307	ltpFR2	23	n/a	n/a	n/a	9	16	8	7	1
1262295	PROB	n/a	LTP307	ltpFR2	23	n/a	n/a	n/a	9	12	3	5	4
1263726	PROB	n/a	LTP307	ltpFR2	23	n/a	n/a	n/a	9	24	8	7	9
1265630	PROB	n/a	LTP307	ltpFR2	23	n/a	n/a	n/a	9	18	3	6	9
1267116	PROB	n/a	LTP307	ltpFR2	23	n/a	n/a	n/a	9	10	7	1	2
1268250	PROB	n/a	LTP307	ltpFR2	23	n/a	n/a	n/a	9	10	4	3	3
1269334	PROB	n/a	LTP307	ltpFR2	23	n/a	n/a	n/a	9	19	3	9	7
1270497	PROB	n/a	LTP307	ltpFR2	23	n/a	n/a	n/a	9	17	4	8	5
1272333	STOP	n/a	LTP307	ltpFR2	23	n/a	n/a	n/a	9	n/a	n/a	n/a	n/a
1275608	REC_START	n/a	LTP307	ltpFR2	23	7	n/a	n/a	n/a	n/a	0	0	0
1276540	REC_WORD	wordpools/wasnorm_wordpool_576.txt	LTP307	ltpFR2	23	7	JAR	750	n/a	n/a	0	0	0
1277516	REC_WORD	wordpools/wasnorm_wordpool_576.txt	LTP307	ltpFR2	23	7	CONCRETE	361	n/a	n/a	0	0	0
1278617	REC_WORD	wordpools/wasnorm_wordpool_576.txt	LTP307	ltpFR2	23	7	PERCH	1048	n/a	n/a	0	0	0
1279517	REC_WORD	wordpools/wasnorm_wordpool_576.txt	LTP307	ltpFR2	23	7	PIGEON	1065	n/a	n/a	0	0	0
1280354	REC_WORD	wordpools/wasnorm_wordpool_576.txt	LTP307	ltpFR2	23	7	COLLEGE	346	n/a	n/a	0	0	0
1281260	REC_WORD	wordpools/wasnorm_wordpool_576.txt	LTP307	ltpFR2	23	7	COURSE	390	n/a	n/a	0	0	0
1282085	REC_WORD	wordpools/wasnorm_wordpool_576.txt	LTP307	ltpFR2	23	7	ADULT	8	n/a	n/a	0	0	0
1283080	REC_WORD	wordpools/wasnorm_wordpool_576.txt	LTP307	ltpFR2	23	7	CAPE	237	n/a	n/a	0	0	0
1285723	REC_WORD	wordpools/wasnorm_wordpool_576.txt	LTP307	ltpFR2	23	7	ATHLETE	52	n/a	n/a	0	0	0
1286633	REC_WORD	wordpools/wasnorm_wordpool_576.txt	LTP307	ltpFR2	23	7	FIELD	562	n/a	n/a	0	0	0
1289458	REC_WORD	wordpools/wasnorm_wordpool_576.txt	LTP307	ltpFR2	23	7	STREET	1393	n/a	n/a	0	0	0
1294216	REC_WORD	wordpools/wasnorm_wordpool_576.txt	LTP307	ltpFR2	23	7	STREET	1393	n/a	n/a	0	0	0
1295243	REC_WORD	wordpools/wasnorm_wordpool_576.txt	LTP307	ltpFR2	23	7	MOTHER	921	n/a	n/a	0	0	0
1296767	REC_WORD	wordpools/wasnorm_wordpool_576.txt	LTP307	ltpFR2	23	7	FATHER	554	n/a	n/a	0	0	0
1302892	REC_WORD	wordpools/wasnorm_wordpool_576.txt	LTP307	ltpFR2	23	7	FARM	552	n/a	n/a	0	0	0
1303821	REC_WORD	wordpools/wasnorm_wordpool_576.txt	LTP307	ltpFR2	23	7	SAUCER	1237	n/a	n/a	0	0	0
1310471	REC_WORD	wordpools/wasnorm_wordpool_576.txt	LTP307	ltpFR2	23	7	QUEEN	1149	n/a	n/a	0	0	0
1316359	REC_WORD	wordpools/wasnorm_wordpool_576.txt	LTP307	ltpFR2	23	7	LAUNDRY	803	n/a	n/a	0	0	0
1324850	REC_WORD	wordpools/wasnorm_wordpool_576.txt	LTP307	ltpFR2	23	7	NOVEL	960	n/a	n/a	0	0	0
1333134	REC_WORD	wordpools/wasnorm_wordpool_576.txt	LTP307	ltpFR2	23	7	GRIZZLY	662	n/a	n/a	0	0	0
1334228	REC_WORD	wordpools/wasnorm_wordpool_576.txt	LTP307	ltpFR2	23	7	NAPKIN	937	n/a	n/a	0	0	0
1345268	REC_WORD	wordpools/wasnorm_wordpool_576.txt	LTP307	ltpFR2	23	7	CREVICE	405	n/a	n/a	0	0	0
1346982	REC_WORD	wordpools/wasnorm_wordpool_576.txt	LTP307	ltpFR2	23	7	SHELF	1280	n/a	n/a	0	0	0
1366049	DISTRACTOR	n/a	LTP307	ltpFR2	23	8	n/a	n/a	n/a	n/a	0	0	0
1366049	START	n/a	LTP307	ltpFR2	23	n/a	n/a	n/a	10	n/a	n/a	n/a	n/a
1366062	PROB	n/a	LTP307	ltpFR2	23	n/a	n/a	n/a	10	6	2	1	3
1367130	PROB	n/a	LTP307	ltpFR2	23	n/a	n/a	n/a	10	16	4	8	4
1368664	PROB	n/a	LTP307	ltpFR2	23	n/a	n/a	n/a	10	12	2	9	1
1369780	PROB	n/a	LTP307	ltpFR2	23	n/a	n/a	n/a	10	13	5	5	3
1370799	PROB	n/a	LTP307	ltpFR2	23	n/a	n/a	n/a	10	15	3	8	4
1372182	PROB	n/a	LTP307	ltpFR2	23	n/a	n/a	n/a	10	9	6	2	1
1374350	PROB	n/a	LTP307	ltpFR2	23	n/a	n/a	n/a	10	24	8	9	7
1377637	PROB	n/a	LTP307	ltpFR2	23	n/a	n/a	n/a	10	9	6	1	2
1378654	PROB	n/a	LTP307	ltpFR2	23	n/a	n/a	n/a	10	21	8	7	6
1379822	PROB	n/a	LTP307	ltpFR2	23	n/a	n/a	n/a	10	17	6	5	6
1381591	PROB	n/a	LTP307	ltpFR2	23	n/a	n/a	n/a	10	15	9	4	2
1382691	PROB	n/a	LTP307	ltpFR2	23	n/a	n/a	n/a	10	16	2	9	5
1384143	PROB	n/a	LTP307	ltpFR2	23	n/a	n/a	n/a	10	15	2	8	5
1385460	PROB	n/a	LTP307	ltpFR2	23	n/a	n/a	n/a	10	16	1	7	8
1386526	PROB	n/a	LTP307	ltpFR2	23	n/a	n/a	n/a	10	12	7	4	1
1387595	PROB	n/a	LTP307	ltpFR2	23	n/a	n/a	n/a	10	20	7	6	7
1388842	STOP	n/a	LTP307	ltpFR2	23	n/a	n/a	n/a	10	n/a	n/a	n/a	n/a
1390950	WORD	wordpools/wasnorm_wordpool_576.txt	LTP307	ltpFR2	23	8	KIDNEY	776	n/a	n/a	0	0	0
1393685	WORD	wordpools/wasnorm_wordpool_576.txt	LTP307	ltpFR2	23	8	MUMMY	932	n/a	n/a	0	0	0
1396269	WORD	wordpools/wasnorm_wordpool_576.txt	LTP307	ltpFR2	23	8	RESORT	1186	n/a	n/a	0	0	0
1398755	WORD	wordpools/wasnorm_wordpool_576.txt	LTP307	ltpFR2	23	8	WRITER	1627	n/a	n/a	0	0	0
1401189	WORD	wordpools/wasnorm_wordpool_576.txt	LTP307	ltpFR2	23	8	SWAMP	1416	n/a	n/a	0	0	0
1403865	WORD	wordpools/wasnorm_wordpool_576.txt	LTP307	ltpFR2	23	8	RAFT	1159	n/a	n/a	0	0	0
1406311	WORD	wordpools/wasnorm_wordpool_576.txt	LTP307	ltpFR2	23	8	PAIL	1002	n/a	n/a	0	0	0
1409019	WORD	wordpools/wasnorm_wordpool_576.txt	LTP307	ltpFR2	23	8	SENATE	1267	n/a	n/a	0	0	0
1411783	WORD	wordpools/wasnorm_wordpool_576.txt	LTP307	ltpFR2	23	8	PUMPKIN	1142	n/a	n/a	0	0	0
1414289	WORD	wordpools/wasnorm_wordpool_576.txt	LTP307	ltpFR2	23	8	LOVER	846	n/a	n/a	0	0	0
1416943	WORD	wordpools/wasnorm_wordpool_576.txt	LTP307	ltpFR2	23	8	CHIPMUNK	304	n/a	n/a	0	0	0
1419639	WORD	wordpools/wasnorm_wordpool_576.txt	LTP307	ltpFR2	23	8	BISON	131	n/a	n/a	0	0	0
1422357	WORD	wordpools/wasnorm_wordpool_576.txt	LTP307	ltpFR2	23	8	PORPOISE	1109	n/a	n/a	0	0	0
1424959	WORD	wordpools/wasnorm_wordpool_576.txt	LTP307	ltpFR2	23	8	SPRINKLE	1359	n/a	n/a	0	0	0
1427427	WORD	wordpools/wasnorm_wordpool_576.txt	LTP307	ltpFR2	23	8	PARENT	1013	n/a	n/a	0	0	0
1430204	WORD	wordpools/wasnorm_wordpool_576.txt	LTP307	ltpFR2	23	8	COCKTAIL	338	n/a	n/a	0	0	0
1432673	WORD	wordpools/wasnorm_wordpool_576.txt	LTP307	ltpFR2	23	8	PALACE	1006	n/a	n/a	0	0	0
1435324	WORD	wordpools/wasnorm_wordpool_576.txt	LTP307	ltpFR2	23	8	UMPIRE	1535	n/a	n/a	0	0	0
1438111	WORD	wordpools/wasnorm_wordpool_576.txt	LTP307	ltpFR2	23	8	SOFTBALL	1343	n/a	n/a	0	0	0
1440805	WORD	wordpools/wasnorm_wordpool_576.txt	LTP307	ltpFR2	23	8	BUCKET	184	n/a	n/a	0	0	0
1443349	WORD	wordpools/wasnorm_wordpool_576.txt	LTP307	ltpFR2	23	8	SERVANT	1271	n/a	n/a	0	0	0
1446035	WORD	wordpools/wasnorm_wordpool_576.txt	LTP307	ltpFR2	23	8	SKUNK	1321	n/a	n/a	0	0	0
1448771	WORD	wordpools/wasnorm_wordpool_576.txt	LTP307	ltpFR2	23	8	HEART	697	n/a	n/a	0	0	0
1451272	WORD	wordpools/wasnorm_wordpool_576.txt	LTP307	ltpFR2	23	8	FOLDER	588	n/a	n/a	0	0	0
1452883	START	n/a	LTP307	ltpFR2	23	n/a	n/a	n/a	11	n/a	n/a	n/a	n/a
1454030	DISTRACTOR	n/a	LTP307	ltpFR2	23	8	n/a	n/a	n/a	n/a	0	0	0
1454042	PROB	n/a	LTP307	ltpFR2	23	n/a	n/a	n/a	11	24	8	8	8
1456200	PROB	n/a	LTP307	ltpFR2	23	n/a	n/a	n/a	11	22	6	9	7
1458236	PROB	n/a	LTP307	ltpFR2	23	n/a	n/a	n/a	11	12	1	6	5
1459235	PROB	n/a	LTP307	ltpFR2	23	n/a	n/a	n/a	11	18	2	9	7
1460552	PROB	n/a	LTP307	ltpFR2	23	n/a	n/a	n/a	11	15	5	5	5
1461486	PROB	n/a	LTP307	ltpFR2	23	n/a	n/a	n/a	11	3	1	1	1
1462504	PROB	n/a	LTP307	ltpFR2	23	n/a	n/a	n/a	11	10	3	5	2
1464090	PROB	n/a	LTP307	ltpFR2	23	n/a	n/a	n/a	11	5	2	1	2
1465092	PROB	n/a	LTP307	ltpFR2	23	n/a	n/a	n/a	11	17	5	7	5
1466626	PROB	n/a	LTP307	ltpFR2	23	n/a	n/a	n/a	11	11	3	3	5
1468043	PROB	n/a	LTP307	ltpFR2	23	n/a	n/a	n/a	11	16	7	6	3
1469445	PROB	n/a	LTP307	ltpFR2	23	n/a	n/a	n/a	11	9	2	1	6
1470580	PROB	n/a	LTP307	ltpFR2	23	n/a	n/a	n/a	11	19	7	3	9
1471730	PROB	n/a	LTP307	ltpFR2	23	n/a	n/a	n/a	11	15	3	7	5
1473531	PROB	n/a	LTP307	ltpFR2	23	n/a	n/a	n/a	11	12	6	4	2
1474581	PROB	n/a	LTP307	ltpFR2	23	n/a	n/a	n/a	11	17	7	1	9
1475726	STOP	n/a	LTP307	ltpFR2	23	n/a	n/a	n/a	11	n/a	n/a	n/a	n/a
1478620	REC_START	n/a	LTP307	ltpFR2	23	8	n/a	n/a	n/a	n/a	0	0	0
1480504	REC_WORD	wordpools/wasnorm_wordpool_576.txt	LTP307	ltpFR2	23	8	HEART	697	n/a	n/a	0	0	0
1481420	REC_WORD	wordpools/wasnorm_wordpool_576.txt	LTP307	ltpFR2	23	8	MUMMY	932	n/a	n/a	0	0	0
1482131	REC_WORD	wordpools/wasnorm_wordpool_576.txt	LTP307	ltpFR2	23	8	KIDNEY	776	n/a	n/a	0	0	0
1482777	REC_WORD	wordpools/wasnorm_wordpool_576.txt	LTP307	ltpFR2	23	8	SWAMP	1416	n/a	n/a	0	0	0
1483747	REC_WORD	wordpools/wasnorm_wordpool_576.txt	LTP307	ltpFR2	23	8	RAFT	1159	n/a	n/a	0	0	0
1485111	REC_WORD	wordpools/wasnorm_wordpool_576.txt	LTP307	ltpFR2	23	8	RESORT	1186	n/a	n/a	0	0	0
1486063	REC_WORD	wordpools/wasnorm_wordpool_576.txt	LTP307	ltpFR2	23	8	PAIL	1002	n/a	n/a	0	0	0
1488076	REC_WORD	wordpools/wasnorm_wordpool_576.txt	LTP307	ltpFR2	23	8	LOVER	846	n/a	n/a	0	0	0
1488772	REC_WORD	wordpools/wasnorm_wordpool_576.txt	LTP307	ltpFR2	23	8	CHIPMUNK	304	n/a	n/a	0	0	0
1489542	REC_WORD	wordpools/wasnorm_wordpool_576.txt	LTP307	ltpFR2	23	8	BISON	131	n/a	n/a	0	0	0
1530915	REC_WORD	wordpools/wasnorm_wordpool_576.txt	LTP307	ltpFR2	23	8	PUMPKIN	1142	n/a	n/a	0	0	0
1555162	REST_REWET	n/a	LTP307	ltpFR2	23	8	n/a	n/a	n/a	n/a	0	0	0
1821410	DISTRACTOR	n/a	LTP307	ltpFR2	23	9	n/a	n/a	n/a	n/a	0	0	0
1821410	START	n/a	LTP307	ltpFR2	23	n/a	n/a	n/a	12	n/a	n/a	n/a	n/a
1821426	PROB	n/a	LTP307	ltpFR2	23	n/a	n/a	n/a	12	14	8	5	1
1822678	PROB	n/a	LTP307	ltpFR2	23	n/a	n/a	n/a	12	18	9	4	5
1824195	PROB	n/a	LTP307	ltpFR2	23	n/a	n/a	n/a	12	22	6	9	7
1825914	PROB	n/a	LTP307	ltpFR2	23	n/a	n/a	n/a	12	14	9	1	4
1827050	PROB	n/a	LTP307	ltpFR2	23	n/a	n/a	n/a	12	20	5	7	8
1828649	PROB	n/a	LTP307	ltpFR2	23	n/a	n/a	n/a	12	20	7	8	5
1829649	PROB	n/a	LTP307	ltpFR2	23	n/a	n/a	n/a	12	12	2	2	8
1830800	PROB	n/a	LTP307	ltpFR2	23	n/a	n/a	n/a	12	14	2	3	9
1832485	PROB	n/a	LTP307	ltpFR2	23	n/a	n/a	n/a	12	12	1	3	8
1833603	PROB	n/a	LTP307	ltpFR2	23	n/a	n/a	n/a	12	16	4	5	7
1834770	PROB	n/a	LTP307	ltpFR2	23	n/a	n/a	n/a	12	22	4	9	9
1836072	PROB	n/a	LTP307	ltpFR2	23	n/a	n/a	n/a	12	14	4	1	9
1837139	PROB	n/a	LTP307	ltpFR2	23	n/a	n/a	n/a	12	25	9	9	7
1838609	PROB	n/a	LTP307	ltpFR2	23	n/a	n/a	n/a	12	19	4	8	7
1840190	PROB	n/a	LTP307	ltpFR2	23	n/a	n/a	n/a	12	5	3	1	1
1841126	PROB	n/a	LTP307	ltpFR2	23	n/a	n/a	n/a	12	19	8	5	6
1842727	PROB	n/a	LTP307	ltpFR2	23	n/a	n/a	n/a	12	15	5	1	9
1843988	STOP	n/a	LTP307	ltpFR2	23	n/a	n/a	n/a	12	n/a	n/a	n/a	n/a
1846513	WORD	wordpools/wasnorm_wordpool_576.txt	LTP307	ltpFR2	23	9	INSECT	740	n/a	n/a	0	0	0
1849216	WORD	wordpools/wasnorm_wordpool_576.txt	LTP307	ltpFR2	23	9	LIVER	833	n/a	n/a	0	0	0
1851685	WORD	wordpools/wasnorm_wordpool_576.txt	LTP307	ltpFR2	23	9	JOINT	758	n/a	n/a	0	0	0
1854403	WORD	wordpools/wasnorm_wordpool_576.txt	LTP307	ltpFR2	23	9	TROPHY	1509	n/a	n/a	0	0	0
1857043	WORD	wordpools/wasnorm_wordpool_576.txt	LTP307	ltpFR2	23	9	TORTOISE	1486	n/a	n/a	0	0	0
1859558	WORD	wordpools/wasnorm_wordpool_576.txt	LTP307	ltpFR2	23	9	SNAIL	1332	n/a	n/a	0	0	0
1862111	WORD	wordpools/wasnorm_wordpool_576.txt	LTP307	ltpFR2	23	9	COBWEB	337	n/a	n/a	0	0	0
1864896	WORD	wordpools/wasnorm_wordpool_576.txt	LTP307	ltpFR2	23	9	LAMP	798	n/a	n/a	0	0	0
1867702	WORD	wordpools/wasnorm_wordpool_576.txt	LTP307	ltpFR2	23	9	FRIEND	606	n/a	n/a	0	0	0
1870237	WORD	wordpools/wasnorm_wordpool_576.txt	LTP307	ltpFR2	23	9	SPOOL	1356	n/a	n/a	0	0	0
1872902	WORD	wordpools/wasnorm_wordpool_576.txt	LTP307	ltpFR2	23	9	CREATURE	403	n/a	n/a	0	0	0
1875504	WORD	wordpools/wasnorm_wordpool_576.txt	LTP307	ltpFR2	23	9	GALLON	618	n/a	n/a	0	0	0
1878079	WORD	wordpools/wasnorm_wordpool_576.txt	LTP307	ltpFR2	23	9	SPONGE	1355	n/a	n/a	0	0	0
1880642	WORD	wordpools/wasnorm_wordpool_576.txt	LTP307	ltpFR2	23	9	LIZARD	834	n/a	n/a	0	0	0
1883209	WORD	wordpools/wasnorm_wordpool_576.txt	LTP307	ltpFR2	23	9	KEYBOARD	774	n/a	n/a	0	0	0
1885679	WORD	wordpools/wasnorm_wordpool_576.txt	LTP307	ltpFR2	23	9	SIBLING	1301	n/a	n/a	0	0	0
1888137	WORD	wordpools/wasnorm_wordpool_576.txt	LTP307	ltpFR2	23	9	LITTER	832	n/a	n/a	0	0	0
1890767	WORD	wordpools/wasnorm_wordpool_576.txt	LTP307	ltpFR2	23	9	JOURNAL	760	n/a	n/a	0	0	0
1893234	WORD	wordpools/wasnorm_wordpool_576.txt	LTP307	ltpFR2	23	9	TRIGGER	1507	n/a	n/a	0	0	0
1895994	WORD	wordpools/wasnorm_wordpool_576.txt	LTP307	ltpFR2	23	9	ROCKET	1202	n/a	n/a	0	0	0
1898590	WORD	wordpools/wasnorm_wordpool_576.txt	LTP307	ltpFR2	23	9	MISSILE	900	n/a	n/a	0	0	0
1901181	WORD	wordpools/wasnorm_wordpool_576.txt	LTP307	ltpFR2	23	9	BEEF	113	n/a	n/a	0	0	0
1903618	WORD	wordpools/wasnorm_wordpool_576.txt	LTP307	ltpFR2	23	9	FLASHLIGHT	575	n/a	n/a	0	0	0
1906112	WORD	wordpools/wasnorm_wordpool_576.txt	LTP307	ltpFR2	23	9	SLEEVE	1324	n/a	n/a	0	0	0
1907722	START	n/a	LTP307	ltpFR2	23	n/a	n/a	n/a	13	n/a	n/a	n/a	n/a
1908729	DISTRACTOR	n/a	LTP307	ltpFR2	23	9	n/a	n/a	n/a	n/a	0	0	0
1908738	PROB	n/a	LTP307	ltpFR2	23	n/a	n/a	n/a	13	14	2	4	8
1911383	PROB	n/a	LTP307	ltpFR2	23	n/a	n/a	n/a	13	11	2	1	8
1912584	PROB	n/a	LTP307	ltpFR2	23	n/a	n/a	n/a	13	14	6	1	7
1913886	PROB	n/a	LTP307	ltpFR2	23	n/a	n/a	n/a	13	19	6	4	9
1915135	PROB	n/a	LTP307	ltpFR2	23	n/a	n/a	n/a	13	10	7	1	2
1916252	PROB	n/a	LTP307	ltpFR2	23	n/a	n/a	n/a	13	15	2	7	6
1917587	PROB	n/a	LTP307	ltpFR2	23	n/a	n/a	n/a	13	12	1	3	8
1918622	PROB	n/a	LTP307	ltpFR2	23	n/a	n/a	n/a	13	13	3	5	5
1919789	PROB	n/a	LTP307	ltpFR2	23	n/a	n/a	n/a	13	18	8	4	6
1921456	PROB	n/a	LTP307	ltpFR2	23	n/a	n/a	n/a	13	25	9	7	9
1923275	PROB	n/a	LTP307	ltpFR2	23	n/a	n/a	n/a	13	17	4	5	8
1924810	PROB	n/a	LTP307	ltpFR2	23	n/a	n/a	n/a	13	12	4	1	7
1925829	PROB	n/a	LTP307	ltpFR2	23	n/a	n/a	n/a	13	9	5	3	1
1926912	PROB	n/a	LTP307	ltpFR2	23	n/a	n/a	n/a	13	18	6	3	9
1928512	PROB	n/a	LTP307	ltpFR2	23	n/a	n/a	n/a	13	16	3	9	4
1931722	STOP	n/a	LTP307	ltpFR2	23	n/a	n/a	n/a	13	n/a	n/a	n/a	n/a
1933484	REC_START	n/a	LTP307	ltpFR2	23	9	n/a	n/a	n/a	n/a	0	0	0
1935859	REC_WORD	wordpools/wasnorm_wordpool_576.txt	LTP307	ltpFR2	23	9	INSECT	740	n/a	n/a	0	0	0
1937005	REC_WORD	wordpools/wasnorm_wordpool_576.txt	LTP307	ltpFR2	23	9	COBWEB	337	n/a	n/a	0	0	0
1937916	REC_WORD	wordpools/wasnorm_wordpool_576.txt	LTP307	ltpFR2	23	9	LIZARD	834	n/a	n/a	0	0	0
1939194	REC_WORD	wordpools/wasnorm_wordpool_576.txt	LTP307	ltpFR2	23	9	SNAIL	1332	n/a	n/a	0	0	0
1940864	REC_WORD	wordpools/wasnorm_wordpool_576.txt	LTP307	ltpFR2	23	9	TRIGGER	1507	n/a	n/a	0	0	0
1941794	REC_WORD	wordpools/wasnorm_wordpool_576.txt	LTP307	ltpFR2	23	9	JOINT	758	n/a	n/a	0	0	0
1942811	REC_WORD	wordpools/wasnorm_wordpool_576.txt	LTP307	ltpFR2	23	9	SPOOL	1356	n/a	n/a	0	0	0
1945449	REC_WORD	wordpools/wasnorm_wordpool_576.txt	LTP307	ltpFR2	23	9	LIZARD	834	n/a	n/a	0	0	0
1946852	REC_WORD	wordpools/wasnorm_wordpool_576.txt	LTP307	ltpFR2	23	9	SLEEVE	1324	n/a	n/a	0	0	0
1947932	REC_WORD	wordpools/wasnorm_wordpool_576.txt	LTP307	ltpFR2	23	9	LIVER	833	n/a	n/a	0	0	0
1949072	REC_WORD	wordpools/wasnorm_wordpool_576.txt	LTP307	ltpFR2	23	9	BEEF	113	n/a	n/a	0	0	0
1949880	REC_WORD	wordpools/wasnorm_wordpool_576.txt	LTP307	ltpFR2	23	9	FLASHLIGHT	575	n/a	n/a	0	0	0
1950810	REC_WORD	wordpools/wasnorm_wordpool_576.txt	LTP307	ltpFR2	23	9	LAMP	798	n/a	n/a	0	0	0
1951816	REC_WORD	wordpools/wasnorm_wordpool_576.txt	LTP307	ltpFR2	23	9	SIBLING	1301	n/a	n/a	0	0	0
1952746	REC_WORD	wordpools/wasnorm_wordpool_576.txt	LTP307	ltpFR2	23	9	FRIEND	606	n/a	n/a	0	0	0
1955127	REC_WORD	wordpools/wasnorm_wordpool_576.txt	LTP307	ltpFR2	23	9	CREATURE	403	n/a	n/a	0	0	0
1958157	REC_WORD	wordpools/wasnorm_wordpool_576.txt	LTP307	ltpFR2	23	9	JOURNAL	760	n/a	n/a	0	0	0
1959603	REC_WORD	wordpools/wasnorm_wordpool_576.txt	LTP307	ltpFR2	23	9	ROCKET	1202	n/a	n/a	0	0	0
1960329	REC_WORD	wordpools/wasnorm_wordpool_576.txt	LTP307	ltpFR2	23	9	MISSILE	900	n/a	n/a	0	0	0
2023957	WORD	wordpools/wasnorm_wordpool_576.txt	LTP307	ltpFR2	23	10	BENCH	121	n/a	n/a	0	0	0
2026423	WORD	wordpools/wasnorm_wordpool_576.txt	LTP307	ltpFR2	23	10	MAMMAL	861	n/a	n/a	0	0	0
2028976	WORD	wordpools/wasnorm_wordpool_576.txt	LTP307	ltpFR2	23	10	GAUZE	626	n/a	n/a	0	0	0
2031544	WORD	wordpools/wasnorm_wordpool_576.txt	LTP307	ltpFR2	23	10	DAGGER	434	n/a	n/a	0	0	0
2034082	WORD	wordpools/wasnorm_wordpool_576.txt	LTP307	ltpFR2	23	10	BASKET	95	n/a	n/a	0	0	0
2036567	WORD	wordpools/wasnorm_wordpool_576.txt	LTP307	ltpFR2	23	10	ANCHOR	21	n/a	n/a	0	0	0
2039251	WORD	wordpools/wasnorm_wordpool_576.txt	LTP307	ltpFR2	23	10	DECK	443	n/a	n/a	0	0	0
2041821	WORD	wordpools/wasnorm_wordpool_576.txt	LTP307	ltpFR2	23	10	TROUSERS	1510	n/a	n/a	0	0	0
2044272	WORD	wordpools/wasnorm_wordpool_576.txt	LTP307	ltpFR2	23	10	OUTFIT	988	n/a	n/a	0	0	0
2046925	WORD	wordpools/wasnorm_wordpool_576.txt	LTP307	ltpFR2	23	10	MERMAID	887	n/a	n/a	0	0	0
2049578	WORD	wordpools/wasnorm_wordpool_576.txt	LTP307	ltpFR2	23	10	SNORKEL	1336	n/a	n/a	0	0	0
2052295	WORD	wordpools/wasnorm_wordpool_576.txt	LTP307	ltpFR2	23	10	SOFA	1342	n/a	n/a	0	0	0
2054764	WORD	wordpools/wasnorm_wordpool_576.txt	LTP307	ltpFR2	23	10	BELT	120	n/a	n/a	0	0	0
2057499	WORD	wordpools/wasnorm_wordpool_576.txt	LTP307	ltpFR2	23	10	STATUE	1374	n/a	n/a	0	0	0
2060218	WORD	wordpools/wasnorm_wordpool_576.txt	LTP307	ltpFR2	23	10	POSSUM	1112	n/a	n/a	0	0	0
2062722	WORD	wordpools/wasnorm_wordpool_576.txt	LTP307	ltpFR2	23	10	PLASTER	1085	n/a	n/a	0	0	0
2065540	WORD	wordpools/wasnorm_wordpool_576.txt	LTP307	ltpFR2	23	10	LETTER	813	n/a	n/a	0	0	0
2067975	WORD	wordpools/wasnorm_wordpool_576.txt	LTP307	ltpFR2	23	10	SAILOR	1223	n/a	n/a	0	0	0
2070763	WORD	wordpools/wasnorm_wordpool_576.txt	LTP307	ltpFR2	23	10	CLOSET	326	n/a	n/a	0	0	0
2073246	WORD	wordpools/wasnorm_wordpool_576.txt	LTP307	ltpFR2	23	10	PEANUT	1032	n/a	n/a	0	0	0
2075681	WORD	wordpools/wasnorm_wordpool_576.txt	LTP307	ltpFR2	23	10	CIGAR	308	n/a	n/a	0	0	0
2078269	WORD	wordpools/wasnorm_wordpool_576.txt	LTP307	ltpFR2	23	10	BASEBALL	93	n/a	n/a	0	0	0
2081003	WORD	wordpools/wasnorm_wordpool_576.txt	LTP307	ltpFR2	23	10	TOOTHBRUSH	1482	n/a	n/a	0	0	0
2083755	WORD	wordpools/wasnorm_wordpool_576.txt	LTP307	ltpFR2	23	10	POWDER	1117	n/a	n/a	0	0	0
2085372	START	n/a	LTP307	ltpFR2	23	n/a	n/a	n/a	14	n/a	n/a	n/a	n/a
2086408	DISTRACTOR	n/a	LTP307	ltpFR2	23	10	n/a	n/a	n/a	n/a	0	0	0
2086423	PROB	n/a	LTP307	ltpFR2	23	n/a	n/a	n/a	14	18	6	8	4
2088141	PROB	n/a	LTP307	ltpFR2	23	n/a	n/a	n/a	14	12	4	2	6
2089675	PROB	n/a	LTP307	ltpFR2	23	n/a	n/a	n/a	14	14	2	7	5
2090860	PROB	n/a	LTP307	ltpFR2	23	n/a	n/a	n/a	14	16	6	9	1
2091878	PROB	n/a	LTP307	ltpFR2	23	n/a	n/a	n/a	14	15	6	6	3
2093012	PROB	n/a	LTP307	ltpFR2	23	n/a	n/a	n/a	14	19	5	8	6
2094913	PROB	n/a	LTP307	ltpFR2	23	n/a	n/a	n/a	14	24	6	9	9
2096529	PROB	n/a	LTP307	ltpFR2	23	n/a	n/a	n/a	14	6	3	2	1
2097515	PROB	n/a	LTP307	ltpFR2	23	n/a	n/a	n/a	14	15	4	2	9
2098717	PROB	n/a	LTP307	ltpFR2	23	n/a	n/a	n/a	14	12	2	7	3
2099783	PROB	n/a	LTP307	ltpFR2	23	n/a	n/a	n/a	14	13	5	7	1
2100951	PROB	n/a	LTP307	ltpFR2	23	n/a	n/a	n/a	14	16	7	5	4
2102270	PROB	n/a	LTP307	ltpFR2	23	n/a	n/a	n/a	14	20	7	4	9
2103937	PROB	n/a	LTP307	ltpFR2	23	n/a	n/a	n/a	14	16	4	4	8
2105104	PROB	n/a	LTP307	ltpFR2	23	n/a	n/a	n/a	14	12	2	3	7
2106337	PROB	n/a	LTP307	ltpFR2	23	n/a	n/a	n/a	14	20	9	6	5
2107656	PROB	n/a	LTP307	ltpFR2	23	n/a	n/a	n/a	14	13	2	6	5
2108927	STOP	n/a	LTP307	ltpFR2	23	n/a	n/a	n/a	14	n/a	n/a	n/a	n/a
2111291	REC_START	n/a	LTP307	ltpFR2	23	10	n/a	n/a	n/a	n/a	0	0	0
2112617	REC_WORD	wordpools/wasnorm_wordpool_576.txt	LTP307	ltpFR2	23	10	SAILOR	1223	n/a	n/a	0	0	0
2113496	REC_WORD	wordpools/wasnorm_wordpool_576.txt	LTP307	ltpFR2	23	10	LETTER	813	n/a	n/a	0	0	0
2114041	REC_WORD	wordpools/wasnorm_wordpool_576.txt	LTP307	ltpFR2	23	10	CIGAR	308	n/a	n/a	0	0	0
2114918	REC_WORD	wordpools/wasnorm_wordpool_576.txt	LTP307	ltpFR2	23	10	PEANUT	1032	n/a	n/a	0	0	0
2115672	REC_WORD	wordpools/wasnorm_wordpool_576.txt	LTP307	ltpFR2	23	10	CLOSET	326	n/a	n/a	0	0	0
2116544	REC_WORD	wordpools/wasnorm_wordpool_576.txt	LTP307	ltpFR2	23	10	BASEBALL	93	n/a	n/a	0	0	0
2118117	REC_WORD	wordpools/wasnorm_wordpool_576.txt	LTP307	ltpFR2	23	10	TOOTHBRUSH	1482	n/a	n/a	0	0	0
2118938	REC_WORD	wordpools/wasnorm_wordpool_576.txt	LTP307	ltpFR2	23	10	POWDER	1117	n/a	n/a	0	0	0
2123256	REC_WORD	wordpools/wasnorm_wordpool_576.txt	LTP307	ltpFR2	23	10	TROUSERS	1510	n/a	n/a	0	0	0
2125399	REC_WORD	wordpools/wasnorm_wordpool_576.txt	LTP307	ltpFR2	23	10	BENCH	121	n/a	n/a	0	0	0
2126204	REC_WORD	wordpools/wasnorm_wordpool_576.txt	LTP307	ltpFR2	23	10	OUTFIT	988	n/a	n/a	0	0	0
2135971	REC_WORD	wordpools/wasnorm_wordpool_576.txt	LTP307	ltpFR2	23	10	SNORKEL	1336	n/a	n/a	0	0	0
2136925	REC_WORD	wordpools/wasnorm_wordpool_576.txt	LTP307	ltpFR2	23	10	MERMAID	887	n/a	n/a	0	0	0
2144765	REC_WORD	wordpools/wasnorm_wordpool_576.txt	LTP307	ltpFR2	23	10	MAMMAL	861	n/a	n/a	0	0	0
2147411	REC_WORD	wordpools/wasnorm_wordpool_576.txt	LTP307	ltpFR2	23	10	DAGGER	434	n/a	n/a	0	0	0
2148227	REC_WORD	wordpools/wasnorm_wordpool_576.txt	LTP307	ltpFR2	23	10	GAUZE	626	n/a	n/a	0	0	0
2148999	REC_WORD	wordpools/wasnorm_wordpool_576.txt	LTP307	ltpFR2	23	10	BASKET	95	n/a	n/a	0	0	0
2150594	REC_WORD	wordpools/wasnorm_wordpool_576.txt	LTP307	ltpFR2	23	10	ANCHOR	21	n/a	n/a	0	0	0
2201726	WORD	wordpools/wasnorm_wordpool_576.txt	LTP307	ltpFR2	23	11	ONION	977	n/a	n/a	0	0	0
2204150	WORD	wordpools/wasnorm_wordpool_576.txt	LTP307	ltpFR2	23	11	GARLIC	624	n/a	n/a	0	0	0
2206881	WORD	wordpools/wasnorm_wordpool_576.txt	LTP307	ltpFR2	23	11	GHETTO	633	n/a	n/a	0	0	0
2209684	WORD	wordpools/wasnorm_wordpool_576.txt	LTP307	ltpFR2	23	11	DAUGHTER	442	n/a	n/a	0	0	0
2212168	WORD	wordpools/wasnorm_wordpool_576.txt	LTP307	ltpFR2	23	11	PEPPER	1047	n/a	n/a	0	0	0
2214626	WORD	wordpools/wasnorm_wordpool_576.txt	LTP307	ltpFR2	23	11	SIDEWALK	1303	n/a	n/a	0	0	0
2217311	WORD	wordpools/wasnorm_wordpool_576.txt	LTP307	ltpFR2	23	11	SERGEANT	1269	n/a	n/a	0	0	0
2220093	WORD	wordpools/wasnorm_wordpool_576.txt	LTP307	ltpFR2	23	11	SHEPHERD	1283	n/a	n/a	0	0	0
2222699	WORD	wordpools/wasnorm_wordpool_576.txt	LTP307	ltpFR2	23	11	STICKER	1382	n/a	n/a	0	0	0
2225251	WORD	wordpools/wasnorm_wordpool_576.txt	LTP307	ltpFR2	23	11	KEEPER	769	n/a	n/a	0	0	0
2228016	WORD	wordpools/wasnorm_wordpool_576.txt	LTP307	ltpFR2	23	11	ACTRESS	6	n/a	n/a	0	0	0
2230518	WORD	wordpools/wasnorm_wordpool_576.txt	LTP307	ltpFR2	23	11	SUBURB	1399	n/a	n/a	0	0	0
2233136	WORD	wordpools/wasnorm_wordpool_576.txt	LTP307	ltpFR2	23	11	ATTIC	56	n/a	n/a	0	0	0
2235744	WORD	wordpools/wasnorm_wordpool_576.txt	LTP307	ltpFR2	23	11	COUGAR	387	n/a	n/a	0	0	0
2238358	WORD	wordpools/wasnorm_wordpool_576.txt	LTP307	ltpFR2	23	11	DOG	480	n/a	n/a	0	0	0
2240794	WORD	wordpools/wasnorm_wordpool_576.txt	LTP307	ltpFR2	23	11	BASEMENT	94	n/a	n/a	0	0	0
2243429	WORD	wordpools/wasnorm_wordpool_576.txt	LTP307	ltpFR2	23	11	SOCKET	1340	n/a	n/a	0	0	0
2246101	WORD	wordpools/wasnorm_wordpool_576.txt	LTP307	ltpFR2	23	11	ACTOR	5	n/a	n/a	0	0	0
2248918	WORD	wordpools/wasnorm_wordpool_576.txt	LTP307	ltpFR2	23	11	RAILROAD	1162	n/a	n/a	0	0	0
2251721	WORD	wordpools/wasnorm_wordpool_576.txt	LTP307	ltpFR2	23	11	EARRING	514	n/a	n/a	0	0	0
2254288	WORD	wordpools/wasnorm_wordpool_576.txt	LTP307	ltpFR2	23	11	LEMON	810	n/a	n/a	0	0	0
2256875	WORD	wordpools/wasnorm_wordpool_576.txt	LTP307	ltpFR2	23	11	BANJO	82	n/a	n/a	0	0	0
2259376	WORD	wordpools/wasnorm_wordpool_576.txt	LTP307	ltpFR2	23	11	WINDSHIELD	1612	n/a	n/a	0	0	0
2261930	WORD	wordpools/wasnorm_wordpool_576.txt	LTP307	ltpFR2	23	11	GARAGE	621	n/a	n/a	0	0	0
2263547	START	n/a	LTP307	ltpFR2	23	n/a	n/a	n/a	15	n/a	n/a	n/a	n/a
2264385	DISTRACTOR	n/a	LTP307	ltpFR2	23	11	n/a	n/a	n/a	n/a	0	0	0
2264398	PROB	n/a	LTP307	ltpFR2	23	n/a	n/a	n/a	15	13	6	4	3
2265684	PROB	n/a	LTP307	ltpFR2	23	n/a	n/a	n/a	15	18	8	8	2
2267067	PROB	n/a	LTP307	ltpFR2	23	n/a	n/a	n/a	15	17	5	9	3
2268719	PROB	n/a	LTP307	ltpFR2	23	n/a	n/a	n/a	15	16	4	6	6
2269855	PROB	n/a	LTP307	ltpFR2	23	n/a	n/a	n/a	15	21	5	7	9
2272791	PROB	n/a	LTP307	ltpFR2	23	n/a	n/a	n/a	15	15	4	8	3
2273989	PROB	n/a	LTP307	ltpFR2	23	n/a	n/a	n/a	15	14	8	2	4
2275525	PROB	n/a	LTP307	ltpFR2	23	n/a	n/a	n/a	15	19	7	8	4
2276677	PROB	n/a	LTP307	ltpFR2	23	n/a	n/a	n/a	15	18	8	1	9
2277811	PROB	n/a	LTP307	ltpFR2	23	n/a	n/a	n/a	15	14	1	8	5
2278977	PROB	n/a	LTP307	ltpFR2	23	n/a	n/a	n/a	15	9	3	3	3
2280144	PROB	n/a	LTP307	ltpFR2	23	n/a	n/a	n/a	15	12	5	1	6
2281161	PROB	n/a	LTP307	ltpFR2	23	n/a	n/a	n/a	15	11	3	6	2
2282396	PROB	n/a	LTP307	ltpFR2	23	n/a	n/a	n/a	15	12	3	2	7
2283480	PROB	n/a	LTP307	ltpFR2	23	n/a	n/a	n/a	15	17	6	3	8
2284899	PROB	n/a	LTP307	ltpFR2	23	n/a	n/a	n/a	15	14	2	6	6
2286062	STOP	n/a	LTP307	ltpFR2	23	n/a	n/a	n/a	15	n/a	n/a	n/a	n/a
2289487	REC_START	n/a	LTP307	ltpFR2	23	11	n/a	n/a	n/a	n/a	0	0	0
2290474	REC_WORD	wordpools/wasnorm_wordpool_576.txt	LTP307	ltpFR2	23	11	ONION	977	n/a	n/a	0	0	0
2291199	REC_WORD	wordpools/wasnorm_wordpool_576.txt	LTP307	ltpFR2	23	11	GARAGE	621	n/a	n/a	0	0	0
2291977	REC_WORD	wordpools/wasnorm_wordpool_576.txt	LTP307	ltpFR2	23	11	PEPPER	1047	n/a	n/a	0	0	0
2292759	REC_WORD	wordpools/wasnorm_wordpool_576.txt	LTP307	ltpFR2	23	11	LEMON	810	n/a	n/a	0	0	0
2293588	REC_WORD	wordpools/wasnorm_wordpool_576.txt	LTP307	ltpFR2	23	11	BANJO	82	n/a	n/a	0	0	0
2294457	REC_WORD	wordpools/wasnorm_wordpool_576.txt	LTP307	ltpFR2	23	11	DAUGHTER	442	n/a	n/a	0	0	0
2295174	REC_WORD	wordpools/wasnorm_wordpool_576.txt	LTP307	ltpFR2	23	11	SIDEWALK	1303	n/a	n/a	0	0	0
2296031	REC_WORD	wordpools/wasnorm_wordpool_576.txt	LTP307	ltpFR2	23	11	BASEMENT	94	n/a	n/a	0	0	0
2296747	REC_WORD	wordpools/wasnorm_wordpool_576.txt	LTP307	ltpFR2	23	11	SOCKET	1340	n/a	n/a	0	0	0
2297588	REC_WORD	wordpools/wasnorm_wordpool_576.txt	LTP307	ltpFR2	23	11	SUBURB	1399	n/a	n/a	0	0	0
2298636	REC_WORD	wordpools/wasnorm_wordpool_576.txt	LTP307	ltpFR2	23	11	DOG	480	n/a	n/a	0	0	0
2299946	REC_WORD	wordpools/wasnorm_wordpool_576.txt	LTP307	ltpFR2	23	11	SHEPHERD	1283	n/a	n/a	0	0	0
2302119	REC_WORD	wordpools/wasnorm_wordpool_576.txt	LTP307	ltpFR2	23	11	SERGEANT	1269	n/a	n/a	0	0	0
2303692	REC_WORD	wordpools/wasnorm_wordpool_576.txt	LTP307	ltpFR2	23	11	STICKER	1382	n/a	n/a	0	0	0
2304694	REC_WORD	wordpools/wasnorm_wordpool_576.txt	LTP307	ltpFR2	23	11	KEEPER	769	n/a	n/a	0	0	0
2305583	REC_WORD	wordpools/wasnorm_wordpool_576.txt	LTP307	ltpFR2	23	11	ACTRESS	6	n/a	n/a	0	0	0
2306493	REC_WORD	wordpools/wasnorm_wordpool_576.txt	LTP307	ltpFR2	23	11	ACTOR	5	n/a	n/a	0	0	0
2307470	REC_WORD	wordpools/wasnorm_wordpool_576.txt	LTP307	ltpFR2	23	11	RAILROAD	1162	n/a	n/a	0	0	0
2308420	REC_WORD	wordpools/wasnorm_wordpool_576.txt	LTP307	ltpFR2	23	11	WINDSHIELD	1612	n/a	n/a	0	0	0
2379925	WORD	wordpools/wasnorm_wordpool_576.txt	LTP307	ltpFR2	23	12	CRADLE	399	n/a	n/a	0	0	0
2382517	WORD	wordpools/wasnorm_wordpool_576.txt	LTP307	ltpFR2	23	12	POLICE	1098	n/a	n/a	0	0	0
2385329	WORD	wordpools/wasnorm_wordpool_576.txt	LTP307	ltpFR2	23	12	COUNTY	389	n/a	n/a	0	0	0
2388006	WORD	wordpools/wasnorm_wordpool_576.txt	LTP307	ltpFR2	23	12	DENIM	446	n/a	n/a	0	0	0
2390540	WORD	wordpools/wasnorm_wordpool_576.txt	LTP307	ltpFR2	23	12	BLOUSE	139	n/a	n/a	0	0	0
2393152	WORD	wordpools/wasnorm_wordpool_576.txt	LTP307	ltpFR2	23	12	COBRA	336	n/a	n/a	0	0	0
2395596	WORD	wordpools/wasnorm_wordpool_576.txt	LTP307	ltpFR2	23	12	CORAL	378	n/a	n/a	0	0	0
2398065	WORD	wordpools/wasnorm_wordpool_576.txt	LTP307	ltpFR2	23	12	FEMALE	559	n/a	n/a	0	0	0
2400676	WORD	wordpools/wasnorm_wordpool_576.txt	LTP307	ltpFR2	23	12	REBEL	1172	n/a	n/a	0	0	0
2403285	WORD	wordpools/wasnorm_wordpool_576.txt	LTP307	ltpFR2	23	12	PRISON	1127	n/a	n/a	0	0	0
2406063	WORD	wordpools/wasnorm_wordpool_576.txt	LTP307	ltpFR2	23	12	HONEY	713	n/a	n/a	0	0	0
2408765	WORD	wordpools/wasnorm_wordpool_576.txt	LTP307	ltpFR2	23	12	STUMP	1396	n/a	n/a	0	0	0
2411550	WORD	wordpools/wasnorm_wordpool_576.txt	LTP307	ltpFR2	23	12	FROST	609	n/a	n/a	0	0	0
2414252	WORD	wordpools/wasnorm_wordpool_576.txt	LTP307	ltpFR2	23	12	POISON	1096	n/a	n/a	0	0	0
2417039	WORD	wordpools/wasnorm_wordpool_576.txt	LTP307	ltpFR2	23	12	FIGHTER	564	n/a	n/a	0	0	0
2419499	WORD	wordpools/wasnorm_wordpool_576.txt	LTP307	ltpFR2	23	12	BRAKE	166	n/a	n/a	0	0	0
2422070	WORD	wordpools/wasnorm_wordpool_576.txt	LTP307	ltpFR2	23	12	SURVEY	1414	n/a	n/a	0	0	0
2424804	WORD	wordpools/wasnorm_wordpool_576.txt	LTP307	ltpFR2	23	12	WOMAN	1620	n/a	n/a	0	0	0
2427246	WORD	wordpools/wasnorm_wordpool_576.txt	LTP307	ltpFR2	23	12	FLAG	573	n/a	n/a	0	0	0
2429925	WORD	wordpools/wasnorm_wordpool_576.txt	LTP307	ltpFR2	23	12	BATHROOM	99	n/a	n/a	0	0	0
2432434	WORD	wordpools/wasnorm_wordpool_576.txt	LTP307	ltpFR2	23	12	RULER	1216	n/a	n/a	0	0	0
2435080	WORD	wordpools/wasnorm_wordpool_576.txt	LTP307	ltpFR2	23	12	STABLE	1363	n/a	n/a	0	0	0
2437755	WORD	wordpools/wasnorm_wordpool_576.txt	LTP307	ltpFR2	23	12	PUPPY	1144	n/a	n/a	0	0	0
2440500	WORD	wordpools/wasnorm_wordpool_576.txt	LTP307	ltpFR2	23	12	HOUND	724	n/a	n/a	0	0	0
2442109	START	n/a	LTP307	ltpFR2	23	n/a	n/a	n/a	16	n/a	n/a	n/a	n/a
2443247	DISTRACTOR	n/a	LTP307	ltpFR2	23	12	n/a	n/a	n/a	n/a	0	0	0
2443254	PROB	n/a	LTP307	ltpFR2	23	n/a	n/a	n/a	16	19	7	5	7
2444978	PROB	n/a	LTP307	ltpFR2	23	n/a	n/a	n/a	16	13	1	8	4
2446061	PROB	n/a	LTP307	ltpFR2	23	n/a	n/a	n/a	16	7	2	2	3
2447679	PROB	n/a	LTP307	ltpFR2	23	n/a	n/a	n/a	16	17	9	6	2
2448915	PROB	n/a	LTP307	ltpFR2	23	n/a	n/a	n/a	16	14	8	2	4
2450247	PROB	n/a	LTP307	ltpFR2	23	n/a	n/a	n/a	16	8	2	4	2
2451949	PROB	n/a	LTP307	ltpFR2	23	n/a	n/a	n/a	16	17	7	1	9
2453349	PROB	n/a	LTP307	ltpFR2	23	n/a	n/a	n/a	16	9	1	4	4
2454886	PROB	n/a	LTP307	ltpFR2	23	n/a	n/a	n/a	16	9	1	1	7
2456071	PROB	n/a	LTP307	ltpFR2	23	n/a	n/a	n/a	16	20	6	8	6
2457553	PROB	n/a	LTP307	ltpFR2	23	n/a	n/a	n/a	16	14	9	3	2
2458821	PROB	n/a	LTP307	ltpFR2	23	n/a	n/a	n/a	16	8	1	5	2
2459956	PROB	n/a	LTP307	ltpFR2	23	n/a	n/a	n/a	16	20	6	7	7
2461124	PROB	n/a	LTP307	ltpFR2	23	n/a	n/a	n/a	16	20	7	9	4
2462909	PROB	n/a	LTP307	ltpFR2	23	n/a	n/a	n/a	16	12	6	3	3
2464092	PROB	n/a	LTP307	ltpFR2	23	n/a	n/a	n/a	16	22	6	9	7
2465645	STOP	n/a	LTP307	ltpFR2	23	n/a	n/a	n/a	16	n/a	n/a	n/a	n/a
2467863	REC_START	n/a	LTP307	ltpFR2	23	12	n/a	n/a	n/a	n/a	0	0	0
2469221	REC_WORD	wordpools/wasnorm_wordpool_576.txt	LTP307	ltpFR2	23	12	COUNTY	389	n/a	n/a	0	0	0
2471503	REC_WORD	wordpools/wasnorm_wordpool_576.txt	LTP307	ltpFR2	23	12	BATHROOM	99	n/a	n/a	0	0	0
2473466	REC_WORD	wordpools/wasnorm_wordpool_576.txt	LTP307	ltpFR2	23	12	COBRA	336	n/a	n/a	0	0	0
2474583	REC_WORD	wordpools/wasnorm_wordpool_576.txt	LTP307	ltpFR2	23	12	PRISON	1127	n/a	n/a	0	0	0
2475492	REC_WORD	wordpools/wasnorm_wordpool_576.txt	LTP307	ltpFR2	23	12	HONEY	713	n/a	n/a	0	0	0
2476215	REC_WORD	wordpools/wasnorm_wordpool_576.txt	LTP307	ltpFR2	23	12	STUMP	1396	n/a	n/a	0	0	0
2477251	REC_WORD	wordpools/wasnorm_wordpool_576.txt	LTP307	ltpFR2	23	12	FROST	609	n/a	n/a	0	0	0
2478120	REC_WORD	wordpools/wasnorm_wordpool_576.txt	LTP307	ltpFR2	23	12	POISON	1096	n/a	n/a	0	0	0
2479078	REC_WORD	wordpools/wasnorm_wordpool_576.txt	LTP307	ltpFR2	23	12	FIGHTER	564	n/a	n/a	0	0	0
2479980	REC_WORD	wordpools/wasnorm_wordpool_576.txt	LTP307	ltpFR2	23	12	REBEL	1172	n/a	n/a	0	0	0
2482345	REC_WORD	wordpools/wasnorm_wordpool_576.txt	LTP307	ltpFR2	23	12	CORAL	378	n/a	n/a	0	0	0
2485550	REC_WORD	wordpools/wasnorm_wordpool_576.txt	LTP307	ltpFR2	23	12	DENIM	446	n/a	n/a	0	0	0
2486361	REC_WORD	wordpools/wasnorm_wordpool_576.txt	LTP307	ltpFR2	23	12	BLOUSE	139	n/a	n/a	0	0	0
2487212	REC_WORD	wordpools/wasnorm_wordpool_576.txt	LTP307	ltpFR2	23	12	RULER	1216	n/a	n/a	0	0	0
2487964	REC_WORD	wordpools/wasnorm_wordpool_576.txt	LTP307	ltpFR2	23	12	STABLE	1363	n/a	n/a	0	0	0
2490189	REC_WORD	wordpools/wasnorm_wordpool_576.txt	LTP307	ltpFR2	23	12	PUPPY	1144	n/a	n/a	0	0	0
2490946	REC_WORD	wordpools/wasnorm_wordpool_576.txt	LTP307	ltpFR2	23	12	HOUND	724	n/a	n/a	0	0	0
2506440	REC_WORD	wordpools/wasnorm_wordpool_576.txt	LTP307	ltpFR2	23	12	CRADLE	399	n/a	n/a	0	0	0
2558319	DISTRACTOR	n/a	LTP307	ltpFR2	23	13	n/a	n/a	n/a	n/a	0	0	0
2558319	START	n/a	LTP307	ltpFR2	23	n/a	n/a	n/a	17	n/a	n/a	n/a	n/a
2558334	PROB	n/a	LTP307	ltpFR2	23	n/a	n/a	n/a	17	12	2	3	7
2559585	PROB	n/a	LTP307	ltpFR2	23	n/a	n/a	n/a	17	23	6	9	8
2562472	PROB	n/a	LTP307	ltpFR2	23	n/a	n/a	n/a	17	19	5	5	9
2563623	PROB	n/a	LTP307	ltpFR2	23	n/a	n/a	n/a	17	22	6	9	7
2565155	PROB	n/a	LTP307	ltpFR2	23	n/a	n/a	n/a	17	20	8	3	9
2566775	PROB	n/a	LTP307	ltpFR2	23	n/a	n/a	n/a	17	11	1	1	9
2567808	PROB	n/a	LTP307	ltpFR2	23	n/a	n/a	n/a	17	16	3	8	5
2569542	PROB	n/a	LTP307	ltpFR2	23	n/a	n/a	n/a	17	11	4	2	5
2570745	PROB	n/a	LTP307	ltpFR2	23	n/a	n/a	n/a	17	20	6	8	6
2571863	PROB	n/a	LTP307	ltpFR2	23	n/a	n/a	n/a	17	17	8	6	3
2573330	PROB	n/a	LTP307	ltpFR2	23	n/a	n/a	n/a	17	14	3	9	2
2574998	PROB	n/a	LTP307	ltpFR2	23	n/a	n/a	n/a	17	17	2	7	4
2577417	PROB	n/a	LTP307	ltpFR2	23	n/a	n/a	n/a	17	18	8	7	3
2578650	PROB	n/a	LTP307	ltpFR2	23	n/a	n/a	n/a	17	14	2	6	6
2579970	PROB	n/a	LTP307	ltpFR2	23	n/a	n/a	n/a	17	18	9	1	8
2580986	STOP	n/a	LTP307	ltpFR2	23	n/a	n/a	n/a	17	n/a	n/a	n/a	n/a
2583455	WORD	wordpools/wasnorm_wordpool_576.txt	LTP307	ltpFR2	23	13	LOBSTER	837	n/a	n/a	0	0	0
2586244	WORD	wordpools/wasnorm_wordpool_576.txt	LTP307	ltpFR2	23	13	GLASS	639	n/a	n/a	0	0	0
2588861	WORD	wordpools/wasnorm_wordpool_576.txt	LTP307	ltpFR2	23	13	DRAGON	492	n/a	n/a	0	0	0
2591412	WORD	wordpools/wasnorm_wordpool_576.txt	LTP307	ltpFR2	23	13	SKILLET	1317	n/a	n/a	0	0	0
2593918	WORD	wordpools/wasnorm_wordpool_576.txt	LTP307	ltpFR2	23	13	SPICE	1350	n/a	n/a	0	0	0
2596482	WORD	wordpools/wasnorm_wordpool_576.txt	LTP307	ltpFR2	23	13	WRIST	1626	n/a	n/a	0	0	0
2599002	WORD	wordpools/wasnorm_wordpool_576.txt	LTP307	ltpFR2	23	13	MARBLE	867	n/a	n/a	0	0	0
2601541	WORD	wordpools/wasnorm_wordpool_576.txt	LTP307	ltpFR2	23	13	BREAST	171	n/a	n/a	0	0	0
2604355	WORD	wordpools/wasnorm_wordpool_576.txt	LTP307	ltpFR2	23	13	MILK	895	n/a	n/a	0	0	0
2607162	WORD	wordpools/wasnorm_wordpool_576.txt	LTP307	ltpFR2	23	13	WINDOW	1611	n/a	n/a	0	0	0
2609778	WORD	wordpools/wasnorm_wordpool_576.txt	LTP307	ltpFR2	23	13	PLUM	1090	n/a	n/a	0	0	0
2612467	WORD	wordpools/wasnorm_wordpool_576.txt	LTP307	ltpFR2	23	13	TERMITE	1451	n/a	n/a	0	0	0
2615147	WORD	wordpools/wasnorm_wordpool_576.txt	LTP307	ltpFR2	23	13	SILK	1307	n/a	n/a	0	0	0
2617600	WORD	wordpools/wasnorm_wordpool_576.txt	LTP307	ltpFR2	23	13	PADDING	999	n/a	n/a	0	0	0
2620035	WORD	wordpools/wasnorm_wordpool_576.txt	LTP307	ltpFR2	23	13	VICTOR	1563	n/a	n/a	0	0	0
2622710	WORD	wordpools/wasnorm_wordpool_576.txt	LTP307	ltpFR2	23	13	PARTY	1018	n/a	n/a	0	0	0
2625328	WORD	wordpools/wasnorm_wordpool_576.txt	LTP307	ltpFR2	23	13	SKIRT	1319	n/a	n/a	0	0	0
2627908	WORD	wordpools/wasnorm_wordpool_576.txt	LTP307	ltpFR2	23	13	SICKLE	1302	n/a	n/a	0	0	0
2630627	WORD	wordpools/wasnorm_wordpool_576.txt	LTP307	ltpFR2	23	13	COLONEL	348	n/a	n/a	0	0	0
2633345	WORD	wordpools/wasnorm_wordpool_576.txt	LTP307	ltpFR2	23	13	REPORT	1184	n/a	n/a	0	0	0
2636039	WORD	wordpools/wasnorm_wordpool_576.txt	LTP307	ltpFR2	23	13	PAPER	1011	n/a	n/a	0	0	0
2638633	WORD	wordpools/wasnorm_wordpool_576.txt	LTP307	ltpFR2	23	13	GUARD	667	n/a	n/a	0	0	0
2641268	WORD	wordpools/wasnorm_wordpool_576.txt	LTP307	ltpFR2	23	13	WAX	1597	n/a	n/a	0	0	0
2643788	WORD	wordpools/wasnorm_wordpool_576.txt	LTP307	ltpFR2	23	13	SHIRT	1287	n/a	n/a	0	0	0
2645397	START	n/a	LTP307	ltpFR2	23	n/a	n/a	n/a	18	n/a	n/a	n/a	n/a
2646344	DISTRACTOR	n/a	LTP307	ltpFR2	23	13	n/a	n/a	n/a	n/a	0	0	0
2646355	PROB	n/a	LTP307	ltpFR2	23	n/a	n/a	n/a	18	21	9	4	8
2648941	PROB	n/a	LTP307	ltpFR2	23	n/a	n/a	n/a	18	6	1	3	2
2649925	PROB	n/a	LTP307	ltpFR2	23	n/a	n/a	n/a	18	16	8	6	2
2651109	PROB	n/a	LTP307	ltpFR2	23	n/a	n/a	n/a	18	8	2	4	2
2652293	PROB	n/a	LTP307	ltpFR2	23	n/a	n/a	n/a	18	18	7	3	8
2653444	PROB	n/a	LTP307	ltpFR2	23	n/a	n/a	n/a	18	20	9	8	3
2654762	PROB	n/a	LTP307	ltpFR2	23	n/a	n/a	n/a	18	16	6	4	6
2656063	PROB	n/a	LTP307	ltpFR2	23	n/a	n/a	n/a	18	25	7	9	9
2657714	PROB	n/a	LTP307	ltpFR2	23	n/a	n/a	n/a	18	17	3	8	6
2659148	PROB	n/a	LTP307	ltpFR2	23	n/a	n/a	n/a	18	16	8	4	4
2660298	PROB	n/a	LTP307	ltpFR2	23	n/a	n/a	n/a	18	17	3	6	8
2661967	PROB	n/a	LTP307	ltpFR2	23	n/a	n/a	n/a	18	9	1	5	3
2663019	PROB	n/a	LTP307	ltpFR2	23	n/a	n/a	n/a	18	22	8	9	5
2664369	PROB	n/a	LTP307	ltpFR2	23	n/a	n/a	n/a	18	12	3	5	4
2665637	PROB	n/a	LTP307	ltpFR2	23	n/a	n/a	n/a	18	22	7	6	9
2667405	PROB	n/a	LTP307	ltpFR2	23	n/a	n/a	n/a	18	10	3	1	6
2668540	STOP	n/a	LTP307	ltpFR2	23	n/a	n/a	n/a	18	n/a	n/a	n/a	n/a
2671291	REC_START	n/a	LTP307	ltpFR2	23	13	n/a	n/a	n/a	n/a	0	0	0
2671992	REC_WORD	wordpools/wasnorm_wordpool_576.txt	LTP307	ltpFR2	23	13	LOBSTER	837	n/a	n/a	0	0	0
2672812	REC_WORD	wordpools/wasnorm_wordpool_576.txt	LTP307	ltpFR2	23	13	CLASS	318	n/a	n/a	0	0	0
2673957	REC_WORD	wordpools/wasnorm_wordpool_576.txt	LTP307	ltpFR2	23	13	BREAST	171	n/a	n/a	0	0	0
2674806	REC_WORD	wordpools/wasnorm_wordpool_576.txt	LTP307	ltpFR2	23	13	MILK	895	n/a	n/a	0	0	0
2676548	REC_WORD	wordpools/wasnorm_wordpool_576.txt	LTP307	ltpFR2	23	13	PARTY	1018	n/a	n/a	0	0	0
2678654	REC_WORD	wordpools/wasnorm_wordpool_576.txt	LTP307	ltpFR2	23	13	SKILLET	1317	n/a	n/a	0	0	0
2679777	REC_WORD	wordpools/wasnorm_wordpool_576.txt	LTP307	ltpFR2	23	13	WRIST	1626	n/a	n/a	0	0	0
2680712	REC_WORD	wordpools/wasnorm_wordpool_576.txt	LTP307	ltpFR2	23	13	SPICE	1350	n/a	n/a	0	0	0
2683915	REC_WORD	wordpools/wasnorm_wordpool_576.txt	LTP307	ltpFR2	23	13	SILK	1307	n/a	n/a	0	0	0
2684792	REC_WORD	wordpools/wasnorm_wordpool_576.txt	LTP307	ltpFR2	23	13	PADDING	999	n/a	n/a	0	0	0
2685609	REC_WORD	wordpools/wasnorm_wordpool_576.txt	LTP307	ltpFR2	23	13	VICTOR	1563	n/a	n/a	0	0	0
2690485	REC_WORD	wordpools/wasnorm_wordpool_576.txt	LTP307	ltpFR2	23	13	WINDOW	1611	n/a	n/a	0	0	0
2691240	REC_WORD	wordpools/wasnorm_wordpool_576.txt	LTP307	ltpFR2	23	13	TERMITE	1451	n/a	n/a	0	0	0
2697817	REC_WORD	wordpools/wasnorm_wordpool_576.txt	LTP307	ltpFR2	23	13	FIGHTER	564	n/a	n/a	0	0	0
2703808	REC_WORD	wordpools/wasnorm_wordpool_576.txt	LTP307	ltpFR2	23	13	PAPER	1011	n/a	n/a	0	0	0
2707023	REC_WORD	wordpools/wasnorm_wordpool_576.txt	LTP307	ltpFR2	23	13	COLONEL	348	n/a	n/a	0	0	0
2709745	REC_WORD	wordpools/wasnorm_wordpool_576.txt	LTP307	ltpFR2	23	13	SKIRT	1319	n/a	n/a	0	0	0
2761749	DISTRACTOR	n/a	LTP307	ltpFR2	23	14	n/a	n/a	n/a	n/a	0	0	0
2761750	START	n/a	LTP307	ltpFR2	23	n/a	n/a	n/a	19	n/a	n/a	n/a	n/a
2761766	PROB	n/a	LTP307	ltpFR2	23	n/a	n/a	n/a	19	15	5	1	9
2763782	PROB	n/a	LTP307	ltpFR2	23	n/a	n/a	n/a	19	20	8	6	6
2764934	PROB	n/a	LTP307	ltpFR2	23	n/a	n/a	n/a	19	14	2	6	6
2766103	PROB	n/a	LTP307	ltpFR2	23	n/a	n/a	n/a	19	4	1	2	1
2767037	PROB	n/a	LTP307	ltpFR2	23	n/a	n/a	n/a	19	14	5	3	6
2768387	PROB	n/a	LTP307	ltpFR2	23	n/a	n/a	n/a	19	14	6	6	2
2769438	PROB	n/a	LTP307	ltpFR2	23	n/a	n/a	n/a	19	13	1	5	7
2770554	PROB	n/a	LTP307	ltpFR2	23	n/a	n/a	n/a	19	20	8	3	9
2771856	PROB	n/a	LTP307	ltpFR2	23	n/a	n/a	n/a	19	25	9	8	8
2774675	PROB	n/a	LTP307	ltpFR2	23	n/a	n/a	n/a	19	13	6	1	6
2775726	PROB	n/a	LTP307	ltpFR2	23	n/a	n/a	n/a	19	11	2	6	3
2776926	PROB	n/a	LTP307	ltpFR2	23	n/a	n/a	n/a	19	19	2	9	8
2778177	PROB	n/a	LTP307	ltpFR2	23	n/a	n/a	n/a	19	16	8	1	7
2779144	PROB	n/a	LTP307	ltpFR2	23	n/a	n/a	n/a	19	18	3	8	7
2780579	PROB	n/a	LTP307	ltpFR2	23	n/a	n/a	n/a	19	13	2	8	3
2781914	PROB	n/a	LTP307	ltpFR2	23	n/a	n/a	n/a	19	19	9	3	7
2783532	PROB	n/a	LTP307	ltpFR2	23	n/a	n/a	n/a	19	15	2	8	5
2784922	STOP	n/a	LTP307	ltpFR2	23	n/a	n/a	n/a	19	n/a	n/a	n/a	n/a
2786702	WORD	wordpools/wasnorm_wordpool_576.txt	LTP307	ltpFR2	23	14	DAISY	435	n/a	n/a	0	0	0
2789186	WORD	wordpools/wasnorm_wordpool_576.txt	LTP307	ltpFR2	23	14	HAND	683	n/a	n/a	0	0	0
2791606	WORD	wordpools/wasnorm_wordpool_576.txt	LTP307	ltpFR2	23	14	SEASHORE	1263	n/a	n/a	0	0	0
2794258	WORD	wordpools/wasnorm_wordpool_576.txt	LTP307	ltpFR2	23	14	VILLAIN	1567	n/a	n/a	0	0	0
2797061	WORD	wordpools/wasnorm_wordpool_576.txt	LTP307	ltpFR2	23	14	SLIDE	1326	n/a	n/a	0	0	0
2799846	WORD	wordpools/wasnorm_wordpool_576.txt	LTP307	ltpFR2	23	14	CANVAS	234	n/a	n/a	0	0	0
2802581	WORD	wordpools/wasnorm_wordpool_576.txt	LTP307	ltpFR2	23	14	SUNRISE	1407	n/a	n/a	0	0	0
2805334	WORD	wordpools/wasnorm_wordpool_576.txt	LTP307	ltpFR2	23	14	SAND	1230	n/a	n/a	0	0	0
2807805	WORD	wordpools/wasnorm_wordpool_576.txt	LTP307	ltpFR2	23	14	THICKET	1455	n/a	n/a	0	0	0
2810303	WORD	wordpools/wasnorm_wordpool_576.txt	LTP307	ltpFR2	23	14	ORANGE	980	n/a	n/a	0	0	0
2813106	WORD	wordpools/wasnorm_wordpool_576.txt	LTP307	ltpFR2	23	14	PARCEL	1012	n/a	n/a	0	0	0
2815675	WORD	wordpools/wasnorm_wordpool_576.txt	LTP307	ltpFR2	23	14	CARTON	251	n/a	n/a	0	0	0
2818277	WORD	wordpools/wasnorm_wordpool_576.txt	LTP307	ltpFR2	23	14	SHACK	1273	n/a	n/a	0	0	0
2820964	WORD	wordpools/wasnorm_wordpool_576.txt	LTP307	ltpFR2	23	14	ZIPPER	1636	n/a	n/a	0	0	0
2823481	WORD	wordpools/wasnorm_wordpool_576.txt	LTP307	ltpFR2	23	14	CAFE	216	n/a	n/a	0	0	0
2826067	WORD	wordpools/wasnorm_wordpool_576.txt	LTP307	ltpFR2	23	14	FROG	608	n/a	n/a	0	0	0
2828769	WORD	wordpools/wasnorm_wordpool_576.txt	LTP307	ltpFR2	23	14	LIST	830	n/a	n/a	0	0	0
2831437	WORD	wordpools/wasnorm_wordpool_576.txt	LTP307	ltpFR2	23	14	SCHOOL	1248	n/a	n/a	0	0	0
2833873	WORD	wordpools/wasnorm_wordpool_576.txt	LTP307	ltpFR2	23	14	BANDIT	81	n/a	n/a	0	0	0
2836613	WORD	wordpools/wasnorm_wordpool_576.txt	LTP307	ltpFR2	23	14	DRIVEWAY	500	n/a	n/a	0	0	0
2839132	WORD	wordpools/wasnorm_wordpool_576.txt	LTP307	ltpFR2	23	14	FREEWAY	603	n/a	n/a	0	0	0
2841764	WORD	wordpools/wasnorm_wordpool_576.txt	LTP307	ltpFR2	23	14	LACE	792	n/a	n/a	0	0	0
2844464	WORD	wordpools/wasnorm_wordpool_576.txt	LTP307	ltpFR2	23	14	KIWI	781	n/a	n/a	0	0	0
2847250	WORD	wordpools/wasnorm_wordpool_576.txt	LTP307	ltpFR2	23	14	PAVEMENT	1028	n/a	n/a	0	0	0
2848858	START	n/a	LTP307	ltpFR2	23	n/a	n/a	n/a	20	n/a	n/a	n/a	n/a
2849736	DISTRACTOR	n/a	LTP307	ltpFR2	23	14	n/a	n/a	n/a	n/a	0	0	0
2849742	PROB	n/a	LTP307	ltpFR2	23	n/a	n/a	n/a	20	19	9	1	9
2851086	PROB	n/a	LTP307	ltpFR2	23	n/a	n/a	n/a	20	9	6	2	1
2852136	PROB	n/a	LTP307	ltpFR2	23	n/a	n/a	n/a	20	21	6	9	6
2853520	PROB	n/a	LTP307	ltpFR2	23	n/a	n/a	n/a	20	16	2	8	6
2854689	PROB	n/a	LTP307	ltpFR2	23	n/a	n/a	n/a	20	18	5	7	6
2856640	PROB	n/a	LTP307	ltpFR2	23	n/a	n/a	n/a	20	17	9	1	7
2857809	PROB	n/a	LTP307	ltpFR2	23	n/a	n/a	n/a	20	12	7	1	4
2860509	PROB	n/a	LTP307	ltpFR2	23	n/a	n/a	n/a	20	14	3	5	6
2861896	PROB	n/a	LTP307	ltpFR2	23	n/a	n/a	n/a	20	20	7	6	9
2863295	PROB	n/a	LTP307	ltpFR2	23	n/a	n/a	n/a	20	6	4	1	1
2864229	PROB	n/a	LTP307	ltpFR2	23	n/a	n/a	n/a	20	18	7	2	9
2866014	PROB	n/a	LTP307	ltpFR2	23	n/a	n/a	n/a	20	18	4	5	9
2867617	PROB	n/a	LTP307	ltpFR2	23	n/a	n/a	n/a	20	13	5	5	3
2868902	PROB	n/a	LTP307	ltpFR2	23	n/a	n/a	n/a	20	8	2	5	1
2869985	PROB	n/a	LTP307	ltpFR2	23	n/a	n/a	n/a	20	11	3	6	2
2871356	STOP	n/a	LTP307	ltpFR2	23	n/a	n/a	n/a	20	n/a	n/a	n/a	n/a
2874624	REC_START	n/a	LTP307	ltpFR2	23	14	n/a	n/a	n/a	n/a	0	0	0
2875791	REC_WORD	wordpools/wasnorm_wordpool_576.txt	LTP307	ltpFR2	23	14	BANDIT	81	n/a	n/a	0	0	0
2876560	REC_WORD	wordpools/wasnorm_wordpool_576.txt	LTP307	ltpFR2	23	14	KIWI	781	n/a	n/a	0	0	0
2877407	REC_WORD	wordpools/wasnorm_wordpool_576.txt	LTP307	ltpFR2	23	14	LACE	792	n/a	n/a	0	0	0
2878146	REC_WORD	wordpools/wasnorm_wordpool_576.txt	LTP307	ltpFR2	23	14	FREEWAY	603	n/a	n/a	0	0	0
2880528	REC_WORD	wordpools/wasnorm_wordpool_576.txt	LTP307	ltpFR2	23	14	DRIVEWAY	500	n/a	n/a	0	0	0
2881424	REC_WORD	wordpools/wasnorm_wordpool_576.txt	LTP307	ltpFR2	23	14	PAVEMENT	1028	n/a	n/a	0	0	0
2885299	REC_WORD	wordpools/wasnorm_wordpool_576.txt	LTP307	ltpFR2	23	14	ORANGE	980	n/a	n/a	0	0	0
2886817	REC_WORD	wordpools/wasnorm_wordpool_576.txt	LTP307	ltpFR2	23	14	CAFE	216	n/a	n/a	0	0	0
2888562	REC_WORD	wordpools/wasnorm_wordpool_576.txt	LTP307	ltpFR2	23	14	CAPTAIN	239	n/a	n/a	0	0	0
2890174	REC_WORD	wordpools/wasnorm_wordpool_576.txt	LTP307	ltpFR2	23	14	SHACK	1273	n/a	n/a	0	0	0
2891067	REC_WORD	wordpools/wasnorm_wordpool_576.txt	LTP307	ltpFR2	23	14	ZIPPER	1636	n/a	n/a	0	0	0
2892760	REC_WORD	wordpools/wasnorm_wordpool_576.txt	LTP307	ltpFR2	23	14	FROG	608	n/a	n/a	0	0	0
2893584	REC_WORD	wordpools/wasnorm_wordpool_576.txt	LTP307	ltpFR2	23	14	LIST	830	n/a	n/a	0	0	0
2896615	REC_WORD	wordpools/wasnorm_wordpool_576.txt	LTP307	ltpFR2	23	14	SUNRISE	1407	n/a	n/a	0	0	0
2897605	REC_WORD	wordpools/wasnorm_wordpool_576.txt	LTP307	ltpFR2	23	14	SEASHORE	1263	n/a	n/a	0	0	0
2898915	REC_WORD	wordpools/wasnorm_wordpool_576.txt	LTP307	ltpFR2	23	14	CANVAS	234	n/a	n/a	0	0	0
2900987	REC_WORD	wordpools/wasnorm_wordpool_576.txt	LTP307	ltpFR2	23	14	VILLAIN	1567	n/a	n/a	0	0	0
2901950	REC_WORD	wordpools/wasnorm_wordpool_576.txt	LTP307	ltpFR2	23	14	DAISY	435	n/a	n/a	0	0	0
2902860	REC_WORD	wordpools/wasnorm_wordpool_576.txt	LTP307	ltpFR2	23	14	THICKET	1455	n/a	n/a	0	0	0
2903679	REC_WORD	wordpools/wasnorm_wordpool_576.txt	LTP307	ltpFR2	23	14	SAND	1230	n/a	n/a	0	0	0
2908371	REC_WORD	wordpools/wasnorm_wordpool_576.txt	LTP307	ltpFR2	23	14	SLIDE	1326	n/a	n/a	0	0	0
2927270	REC_WORD	wordpools/wasnorm_wordpool_576.txt	LTP307	ltpFR2	23	14	SCHOOL	1248	n/a	n/a	0	0	0
2944036	REC_WORD	wordpools/wasnorm_wordpool_576.txt	LTP307	ltpFR2	23	14	HAND	683	n/a	n/a	0	0	0
2965058	WORD	wordpools/wasnorm_wordpool_576.txt	LTP307	ltpFR2	23	15	GROUND	666	n/a	n/a	0	0	0
2967595	WORD	wordpools/wasnorm_wordpool_576.txt	LTP307	ltpFR2	23	15	SWORD	1423	n/a	n/a	0	0	0
2970281	WORD	wordpools/wasnorm_wordpool_576.txt	LTP307	ltpFR2	23	15	HEEL	700	n/a	n/a	0	0	0
2972749	WORD	wordpools/wasnorm_wordpool_576.txt	LTP307	ltpFR2	23	15	COBBLER	335	n/a	n/a	0	0	0
2975300	WORD	wordpools/wasnorm_wordpool_576.txt	LTP307	ltpFR2	23	15	YACHT	1629	n/a	n/a	0	0	0
2977920	WORD	wordpools/wasnorm_wordpool_576.txt	LTP307	ltpFR2	23	15	HEADBAND	696	n/a	n/a	0	0	0
2980388	WORD	wordpools/wasnorm_wordpool_576.txt	LTP307	ltpFR2	23	15	LEOPARD	812	n/a	n/a	0	0	0
2982992	WORD	wordpools/wasnorm_wordpool_576.txt	LTP307	ltpFR2	23	15	SANDWICH	1232	n/a	n/a	0	0	0
2985443	WORD	wordpools/wasnorm_wordpool_576.txt	LTP307	ltpFR2	23	15	POCKET	1093	n/a	n/a	0	0	0
2988194	WORD	wordpools/wasnorm_wordpool_576.txt	LTP307	ltpFR2	23	15	WALNUT	1584	n/a	n/a	0	0	0
2990682	WORD	wordpools/wasnorm_wordpool_576.txt	LTP307	ltpFR2	23	15	ALMOND	18	n/a	n/a	0	0	0
2993166	WORD	wordpools/wasnorm_wordpool_576.txt	LTP307	ltpFR2	23	15	CEILING	265	n/a	n/a	0	0	0
2995653	WORD	wordpools/wasnorm_wordpool_576.txt	LTP307	ltpFR2	23	15	SISTER	1312	n/a	n/a	0	0	0
2998287	WORD	wordpools/wasnorm_wordpool_576.txt	LTP307	ltpFR2	23	15	BOULDER	155	n/a	n/a	0	0	0
3000891	WORD	wordpools/wasnorm_wordpool_576.txt	LTP307	ltpFR2	23	15	PITCHFORK	1078	n/a	n/a	0	0	0
3003659	WORD	wordpools/wasnorm_wordpool_576.txt	LTP307	ltpFR2	23	15	DWARF	510	n/a	n/a	0	0	0
3006343	WORD	wordpools/wasnorm_wordpool_576.txt	LTP307	ltpFR2	23	15	SERVER	1272	n/a	n/a	0	0	0
3008897	WORD	wordpools/wasnorm_wordpool_576.txt	LTP307	ltpFR2	23	15	BROTHER	179	n/a	n/a	0	0	0
3011448	WORD	wordpools/wasnorm_wordpool_576.txt	LTP307	ltpFR2	23	15	MAGNET	855	n/a	n/a	0	0	0
3014184	WORD	wordpools/wasnorm_wordpool_576.txt	LTP307	ltpFR2	23	15	ATTIRE	57	n/a	n/a	0	0	0
3016954	WORD	wordpools/wasnorm_wordpool_576.txt	LTP307	ltpFR2	23	15	SWEATER	1419	n/a	n/a	0	0	0
3019421	WORD	wordpools/wasnorm_wordpool_576.txt	LTP307	ltpFR2	23	15	COSTUME	383	n/a	n/a	0	0	0
3022108	WORD	wordpools/wasnorm_wordpool_576.txt	LTP307	ltpFR2	23	15	BANDAGE	79	n/a	n/a	0	0	0
3024660	WORD	wordpools/wasnorm_wordpool_576.txt	LTP307	ltpFR2	23	15	GIRAFFE	636	n/a	n/a	0	0	0
3026278	START	n/a	LTP307	ltpFR2	23	n/a	n/a	n/a	21	n/a	n/a	n/a	n/a
3027189	DISTRACTOR	n/a	LTP307	ltpFR2	23	15	n/a	n/a	n/a	n/a	0	0	0
3027195	PROB	n/a	LTP307	ltpFR2	23	n/a	n/a	n/a	21	6	1	4	1
3028663	PROB	n/a	LTP307	ltpFR2	23	n/a	n/a	n/a	21	15	3	6	6
3029996	PROB	n/a	LTP307	ltpFR2	23	n/a	n/a	n/a	21	13	4	3	6
3031480	PROB	n/a	LTP307	ltpFR2	23	n/a	n/a	n/a	21	17	2	8	7
3032765	PROB	n/a	LTP307	ltpFR2	23	n/a	n/a	n/a	21	13	5	3	5
3034399	PROB	n/a	LTP307	ltpFR2	23	n/a	n/a	n/a	21	20	9	9	2
3035635	PROB	n/a	LTP307	ltpFR2	23	n/a	n/a	n/a	21	15	8	2	5
3037569	PROB	n/a	LTP307	ltpFR2	23	n/a	n/a	n/a	21	19	7	9	3
3038854	PROB	n/a	LTP307	ltpFR2	23	n/a	n/a	n/a	21	22	7	8	7
3040121	PROB	n/a	LTP307	ltpFR2	23	n/a	n/a	n/a	21	13	3	4	6
3041323	PROB	n/a	LTP307	ltpFR2	23	n/a	n/a	n/a	21	15	8	5	2
3043423	PROB	n/a	LTP307	ltpFR2	23	n/a	n/a	n/a	21	10	1	4	5
3044659	PROB	n/a	LTP307	ltpFR2	23	n/a	n/a	n/a	21	12	3	7	2
3045810	PROB	n/a	LTP307	ltpFR2	23	n/a	n/a	n/a	21	16	6	5	5
3046895	PROB	n/a	LTP307	ltpFR2	23	n/a	n/a	n/a	21	9	5	3	1
3047979	PROB	n/a	LTP307	ltpFR2	23	n/a	n/a	n/a	21	12	6	3	3
3049228	STOP	n/a	LTP307	ltpFR2	23	n/a	n/a	n/a	21	n/a	n/a	n/a	n/a
3052232	REC_START	n/a	LTP307	ltpFR2	23	15	n/a	n/a	n/a	n/a	0	0	0
3053382	REC_WORD	wordpools/wasnorm_wordpool_576.txt	LTP307	ltpFR2	23	15	GROUND	666	n/a	n/a	0	0	0
3054056	REC_WORD	wordpools/wasnorm_wordpool_576.txt	LTP307	ltpFR2	23	15	SWORD	1423	n/a	n/a	0	0	0
3054959	REC_WORD	wordpools/wasnorm_wordpool_576.txt	LTP307	ltpFR2	23	15	YACHT	1629	n/a	n/a	0	0	0
3056014	REC_WORD	wordpools/wasnorm_wordpool_576.txt	LTP307	ltpFR2	23	15	SWEATER	1419	n/a	n/a	0	0	0
3056915	REC_WORD	wordpools/wasnorm_wordpool_576.txt	LTP307	ltpFR2	23	15	OUTFIT	988	n/a	n/a	0	0	0
3058270	REC_WORD	wordpools/wasnorm_wordpool_576.txt	LTP307	ltpFR2	23	15	POCKET	1093	n/a	n/a	0	0	0
3059517	REC_WORD	wordpools/wasnorm_wordpool_576.txt	LTP307	ltpFR2	23	15	ATTIRE	57	n/a	n/a	0	0	0
3060864	REC_WORD	wordpools/wasnorm_wordpool_576.txt	LTP307	ltpFR2	23	15	BROTHER	179	n/a	n/a	0	0	0
3061372	REC_WORD	wordpools/wasnorm_wordpool_576.txt	LTP307	ltpFR2	23	15	SISTER	1312	n/a	n/a	0	0	0
3062065	REC_WORD	wordpools/wasnorm_wordpool_576.txt	LTP307	ltpFR2	23	15	CEILING	265	n/a	n/a	0	0	0
3063358	REC_WORD	wordpools/wasnorm_wordpool_576.txt	LTP307	ltpFR2	23	15	GIRAFFE	636	n/a	n/a	0	0	0
3064921	REC_WORD	wordpools/wasnorm_wordpool_576.txt	LTP307	ltpFR2	23	15	LEOPARD	812	n/a	n/a	0	0	0
3065784	REC_WORD	wordpools/wasnorm_wordpool_576.txt	LTP307	ltpFR2	23	15	SANDWICH	1232	n/a	n/a	0	0	0
3069379	REC_WORD	wordpools/wasnorm_wordpool_576.txt	LTP307	ltpFR2	23	15	BOULDER	155	n/a	n/a	0	0	0
3070088	REC_WORD	wordpools/wasnorm_wordpool_576.txt	LTP307	ltpFR2	23	15	PITCHFORK	1078	n/a	n/a	0	0	0
3070774	REC_WORD	wordpools/wasnorm_wordpool_576.txt	LTP307	ltpFR2	23	15	SERVER	1272	n/a	n/a	0	0	0
3075335	REC_WORD	wordpools/wasnorm_wordpool_576.txt	LTP307	ltpFR2	23	15	DWARF	510	n/a	n/a	0	0	0
3088635	REC_WORD	wordpools/wasnorm_wordpool_576.txt	LTP307	ltpFR2	23	15	BANDIT	81	n/a	n/a	0	0	0
3122871	REC_WORD	wordpools/wasnorm_wordpool_576.txt	LTP307	ltpFR2	23	15	WALNUT	1584	n/a	n/a	0	0	0
3123511	REC_WORD	wordpools/wasnorm_wordpool_576.txt	LTP307	ltpFR2	23	15	LEOPARD	812	n/a	n/a	0	0	0
3142664	DISTRACTOR	n/a	LTP307	ltpFR2	23	16	n/a	n/a	n/a	n/a	0	0	0
3142664	START	n/a	LTP307	ltpFR2	23	n/a	n/a	n/a	22	n/a	n/a	n/a	n/a
3142680	PROB	n/a	LTP307	ltpFR2	23	n/a	n/a	n/a	22	17	6	2	9
3144037	PROB	n/a	LTP307	ltpFR2	23	n/a	n/a	n/a	22	10	1	1	8
3145204	PROB	n/a	LTP307	ltpFR2	23	n/a	n/a	n/a	22	13	2	8	3
3146490	PROB	n/a	LTP307	ltpFR2	23	n/a	n/a	n/a	22	22	9	5	9
3147924	PROB	n/a	LTP307	ltpFR2	23	n/a	n/a	n/a	22	22	9	7	6
3149508	PROB	n/a	LTP307	ltpFR2	23	n/a	n/a	n/a	22	22	8	7	7
3150660	PROB	n/a	LTP307	ltpFR2	23	n/a	n/a	n/a	22	19	9	7	3
3151945	PROB	n/a	LTP307	ltpFR2	23	n/a	n/a	n/a	22	15	7	5	3
3153079	PROB	n/a	LTP307	ltpFR2	23	n/a	n/a	n/a	22	8	3	3	2
3154647	PROB	n/a	LTP307	ltpFR2	23	n/a	n/a	n/a	22	16	6	9	1
3155749	PROB	n/a	LTP307	ltpFR2	23	n/a	n/a	n/a	22	14	7	3	4
3156848	PROB	n/a	LTP307	ltpFR2	23	n/a	n/a	n/a	22	17	7	6	4
3158584	PROB	n/a	LTP307	ltpFR2	23	n/a	n/a	n/a	22	18	3	8	7
3159984	PROB	n/a	LTP307	ltpFR2	23	n/a	n/a	n/a	22	11	4	5	2
3161151	PROB	n/a	LTP307	ltpFR2	23	n/a	n/a	n/a	22	16	1	6	9
3162134	PROB	n/a	LTP307	ltpFR2	23	n/a	n/a	n/a	22	18	7	6	5
3163503	PROB	n/a	LTP307	ltpFR2	23	n/a	n/a	n/a	22	18	5	9	4
3165344	STOP	n/a	LTP307	ltpFR2	23	n/a	n/a	n/a	22	n/a	n/a	n/a	n/a
3167551	WORD	wordpools/wasnorm_wordpool_576.txt	LTP307	ltpFR2	23	16	SHINGLE	1285	n/a	n/a	0	0	0
3170287	WORD	wordpools/wasnorm_wordpool_576.txt	LTP307	ltpFR2	23	16	CASTLE	256	n/a	n/a	0	0	0
3172790	WORD	wordpools/wasnorm_wordpool_576.txt	LTP307	ltpFR2	23	16	FEATHER	557	n/a	n/a	0	0	0
3175346	WORD	wordpools/wasnorm_wordpool_576.txt	LTP307	ltpFR2	23	16	WINGS	1614	n/a	n/a	0	0	0
3178128	WORD	wordpools/wasnorm_wordpool_576.txt	LTP307	ltpFR2	23	16	SHAMPOO	1274	n/a	n/a	0	0	0
3180813	WORD	wordpools/wasnorm_wordpool_576.txt	LTP307	ltpFR2	23	16	DART	440	n/a	n/a	0	0	0
3183536	WORD	wordpools/wasnorm_wordpool_576.txt	LTP307	ltpFR2	23	16	CHECKERS	285	n/a	n/a	0	0	0
3186171	WORD	wordpools/wasnorm_wordpool_576.txt	LTP307	ltpFR2	23	16	POET	1095	n/a	n/a	0	0	0
3188770	WORD	wordpools/wasnorm_wordpool_576.txt	LTP307	ltpFR2	23	16	BLUEJAY	141	n/a	n/a	0	0	0
3191471	WORD	wordpools/wasnorm_wordpool_576.txt	LTP307	ltpFR2	23	16	FOOTBALL	591	n/a	n/a	0	0	0
3194191	WORD	wordpools/wasnorm_wordpool_576.txt	LTP307	ltpFR2	23	16	CLIMBER	323	n/a	n/a	0	0	0
3196731	WORD	wordpools/wasnorm_wordpool_576.txt	LTP307	ltpFR2	23	16	BUGLE	189	n/a	n/a	0	0	0
3199449	WORD	wordpools/wasnorm_wordpool_576.txt	LTP307	ltpFR2	23	16	KNUCKLE	789	n/a	n/a	0	0	0
3201899	WORD	wordpools/wasnorm_wordpool_576.txt	LTP307	ltpFR2	23	16	FIST	572	n/a	n/a	0	0	0
3204353	WORD	wordpools/wasnorm_wordpool_576.txt	LTP307	ltpFR2	23	16	TRUMPET	1513	n/a	n/a	0	0	0
3207004	WORD	wordpools/wasnorm_wordpool_576.txt	LTP307	ltpFR2	23	16	COOKIE	374	n/a	n/a	0	0	0
3209591	WORD	wordpools/wasnorm_wordpool_576.txt	LTP307	ltpFR2	23	16	LOFT	840	n/a	n/a	0	0	0
3212124	WORD	wordpools/wasnorm_wordpool_576.txt	LTP307	ltpFR2	23	16	KLEENEX	782	n/a	n/a	0	0	0
3214596	WORD	wordpools/wasnorm_wordpool_576.txt	LTP307	ltpFR2	23	16	PICTURE	1061	n/a	n/a	0	0	0
3217294	WORD	wordpools/wasnorm_wordpool_576.txt	LTP307	ltpFR2	23	16	SHEARS	1276	n/a	n/a	0	0	0
3220065	WORD	wordpools/wasnorm_wordpool_576.txt	LTP307	ltpFR2	23	16	PAINTING	1005	n/a	n/a	0	0	0
3222767	WORD	wordpools/wasnorm_wordpool_576.txt	LTP307	ltpFR2	23	16	NEPHEW	942	n/a	n/a	0	0	0
3225220	WORD	wordpools/wasnorm_wordpool_576.txt	LTP307	ltpFR2	23	16	ITEM	746	n/a	n/a	0	0	0
3227737	WORD	wordpools/wasnorm_wordpool_576.txt	LTP307	ltpFR2	23	16	GRAVEL	659	n/a	n/a	0	0	0
3229356	START	n/a	LTP307	ltpFR2	23	n/a	n/a	n/a	23	n/a	n/a	n/a	n/a
3230521	DISTRACTOR	n/a	LTP307	ltpFR2	23	16	n/a	n/a	n/a	n/a	0	0	0
3230539	PROB	n/a	LTP307	ltpFR2	23	n/a	n/a	n/a	23	15	4	8	3
3232644	PROB	n/a	LTP307	ltpFR2	23	n/a	n/a	n/a	23	16	9	3	4
3234078	PROB	n/a	LTP307	ltpFR2	23	n/a	n/a	n/a	23	15	2	9	4
3235526	PROB	n/a	LTP307	ltpFR2	23	n/a	n/a	n/a	23	21	6	8	7
3236931	PROB	n/a	LTP307	ltpFR2	23	n/a	n/a	n/a	23	12	7	4	1
3238096	PROB	n/a	LTP307	ltpFR2	23	n/a	n/a	n/a	23	17	5	3	9
3239565	PROB	n/a	LTP307	ltpFR2	23	n/a	n/a	n/a	23	24	8	8	8
3240767	PROB	n/a	LTP307	ltpFR2	23	n/a	n/a	n/a	23	13	6	5	2
3242035	PROB	n/a	LTP307	ltpFR2	23	n/a	n/a	n/a	23	9	3	5	1
3243235	PROB	n/a	LTP307	ltpFR2	23	n/a	n/a	n/a	23	19	9	1	9
3244384	PROB	n/a	LTP307	ltpFR2	23	n/a	n/a	n/a	23	16	6	5	5
3245820	PROB	n/a	LTP307	ltpFR2	23	n/a	n/a	n/a	23	21	6	9	6
3247006	PROB	n/a	LTP307	ltpFR2	23	n/a	n/a	n/a	23	16	5	2	9
3249039	PROB	n/a	LTP307	ltpFR2	23	n/a	n/a	n/a	23	9	1	6	2
3250107	PROB	n/a	LTP307	ltpFR2	23	n/a	n/a	n/a	23	6	1	3	2
3251473	PROB	n/a	LTP307	ltpFR2	23	n/a	n/a	n/a	23	17	2	7	8
3252645	STOP	n/a	LTP307	ltpFR2	23	n/a	n/a	n/a	23	n/a	n/a	n/a	n/a
3255178	REC_START	n/a	LTP307	ltpFR2	23	16	n/a	n/a	n/a	n/a	0	0	0
3256141	REC_WORD	wordpools/wasnorm_wordpool_576.txt	LTP307	ltpFR2	23	16	SHAMPOO	1274	n/a	n/a	0	0	0
3256978	REC_WORD	wordpools/wasnorm_wordpool_576.txt	LTP307	ltpFR2	23	16	CASTLE	256	n/a	n/a	0	0	0
3257783	REC_WORD	wordpools/wasnorm_wordpool_576.txt	LTP307	ltpFR2	23	16	NEPHEW	942	n/a	n/a	0	0	0
3258506	REC_WORD	wordpools/wasnorm_wordpool_576.txt	LTP307	ltpFR2	23	16	ITEM	746	n/a	n/a	0	0	0
3259239	REC_WORD	wordpools/wasnorm_wordpool_576.txt	LTP307	ltpFR2	23	16	GRAVEL	659	n/a	n/a	0	0	0
3260279	REC_WORD	wordpools/wasnorm_wordpool_576.txt	LTP307	ltpFR2	23	16	FEATHER	557	n/a	n/a	0	0	0
3261231	REC_WORD	wordpools/wasnorm_wordpool_576.txt	LTP307	ltpFR2	23	16	SHEARS	1276	n/a	n/a	0	0	0
3276314	REC_WORD	wordpools/wasnorm_wordpool_576.txt	LTP307	ltpFR2	23	16	DANCER	437	n/a	n/a	0	0	0
3331706	REST_REWET	n/a	LTP307	ltpFR2	23	16	n/a	n/a	n/a	n/a	0	0	0
3582557	DISTRACTOR	n/a	LTP307	ltpFR2	23	17	n/a	n/a	n/a	n/a	0	0	0
3582557	START	n/a	LTP307	ltpFR2	23	n/a	n/a	n/a	24	n/a	n/a	n/a	n/a
3582573	PROB	n/a	LTP307	ltpFR2	23	n/a	n/a	n/a	24	17	8	3	6
3584441	PROB	n/a	LTP307	ltpFR2	23	n/a	n/a	n/a	24	19	2	9	8
3585642	PROB	n/a	LTP307	ltpFR2	23	n/a	n/a	n/a	24	17	4	9	4
3587060	PROB	n/a	LTP307	ltpFR2	23	n/a	n/a	n/a	24	20	5	6	9
3588443	PROB	n/a	LTP307	ltpFR2	23	n/a	n/a	n/a	24	15	2	9	4
3589563	PROB	n/a	LTP307	ltpFR2	23	n/a	n/a	n/a	24	17	8	5	4
3591932	PROB	n/a	LTP307	ltpFR2	23	n/a	n/a	n/a	24	19	7	9	3
3593281	PROB	n/a	LTP307	ltpFR2	23	n/a	n/a	n/a	24	15	6	3	6
3594499	PROB	n/a	LTP307	ltpFR2	23	n/a	n/a	n/a	24	19	8	5	6
3595933	PROB	n/a	LTP307	ltpFR2	23	n/a	n/a	n/a	24	20	5	7	8
3597619	PROB	n/a	LTP307	ltpFR2	23	n/a	n/a	n/a	24	7	3	1	3
3599003	PROB	n/a	LTP307	ltpFR2	23	n/a	n/a	n/a	24	20	6	5	9
3600404	PROB	n/a	LTP307	ltpFR2	23	n/a	n/a	n/a	24	14	2	4	8
3601538	PROB	n/a	LTP307	ltpFR2	23	n/a	n/a	n/a	24	16	5	8	3
3603524	PROB	n/a	LTP307	ltpFR2	23	n/a	n/a	n/a	24	20	8	3	9
3604808	PROB	n/a	LTP307	ltpFR2	23	n/a	n/a	n/a	24	15	4	8	3
3606004	STOP	n/a	LTP307	ltpFR2	23	n/a	n/a	n/a	24	n/a	n/a	n/a	n/a
3607694	WORD	wordpools/wasnorm_wordpool_576.txt	LTP307	ltpFR2	23	17	CHEST	295	n/a	n/a	0	0	0
3610396	WORD	wordpools/wasnorm_wordpool_576.txt	LTP307	ltpFR2	23	17	DOORBELL	487	n/a	n/a	0	0	0
3613139	WORD	wordpools/wasnorm_wordpool_576.txt	LTP307	ltpFR2	23	17	PLAID	1080	n/a	n/a	0	0	0
3615693	WORD	wordpools/wasnorm_wordpool_576.txt	LTP307	ltpFR2	23	17	SHORTS	1293	n/a	n/a	0	0	0
3618361	WORD	wordpools/wasnorm_wordpool_576.txt	LTP307	ltpFR2	23	17	BRIDGE	174	n/a	n/a	0	0	0
3620948	WORD	wordpools/wasnorm_wordpool_576.txt	LTP307	ltpFR2	23	17	DENTIST	447	n/a	n/a	0	0	0
3623399	WORD	wordpools/wasnorm_wordpool_576.txt	LTP307	ltpFR2	23	17	STONE	1385	n/a	n/a	0	0	0
3626135	WORD	wordpools/wasnorm_wordpool_576.txt	LTP307	ltpFR2	23	17	NEUTRON	947	n/a	n/a	0	0	0
3628603	WORD	wordpools/wasnorm_wordpool_576.txt	LTP307	ltpFR2	23	17	BEAKER	104	n/a	n/a	0	0	0
3631023	WORD	wordpools/wasnorm_wordpool_576.txt	LTP307	ltpFR2	23	17	STAIRS	1367	n/a	n/a	0	0	0
3633708	WORD	wordpools/wasnorm_wordpool_576.txt	LTP307	ltpFR2	23	17	BUGGY	188	n/a	n/a	0	0	0
3636159	WORD	wordpools/wasnorm_wordpool_576.txt	LTP307	ltpFR2	23	17	CUPBOARD	425	n/a	n/a	0	0	0
3638802	WORD	wordpools/wasnorm_wordpool_576.txt	LTP307	ltpFR2	23	17	COFFEE	341	n/a	n/a	0	0	0
3641498	WORD	wordpools/wasnorm_wordpool_576.txt	LTP307	ltpFR2	23	17	TEAPOT	1442	n/a	n/a	0	0	0
3644124	WORD	wordpools/wasnorm_wordpool_576.txt	LTP307	ltpFR2	23	17	STRING	1394	n/a	n/a	0	0	0
3646843	WORD	wordpools/wasnorm_wordpool_576.txt	LTP307	ltpFR2	23	17	MANSION	864	n/a	n/a	0	0	0
3649421	WORD	wordpools/wasnorm_wordpool_576.txt	LTP307	ltpFR2	23	17	CATCHER	258	n/a	n/a	0	0	0
3651863	WORD	wordpools/wasnorm_wordpool_576.txt	LTP307	ltpFR2	23	17	STAPLE	1371	n/a	n/a	0	0	0
3654343	WORD	wordpools/wasnorm_wordpool_576.txt	LTP307	ltpFR2	23	17	SHOELACE	1289	n/a	n/a	0	0	0
3657095	WORD	wordpools/wasnorm_wordpool_576.txt	LTP307	ltpFR2	23	17	SERPENT	1270	n/a	n/a	0	0	0
3659564	WORD	wordpools/wasnorm_wordpool_576.txt	LTP307	ltpFR2	23	17	AIRCRAFT	11	n/a	n/a	0	0	0
3662366	WORD	wordpools/wasnorm_wordpool_576.txt	LTP307	ltpFR2	23	17	LOBBY	836	n/a	n/a	0	0	0
3664919	WORD	wordpools/wasnorm_wordpool_576.txt	LTP307	ltpFR2	23	17	WATER	1594	n/a	n/a	0	0	0
3667487	WORD	wordpools/wasnorm_wordpool_576.txt	LTP307	ltpFR2	23	17	SKATE	1313	n/a	n/a	0	0	0
3669094	START	n/a	LTP307	ltpFR2	23	n/a	n/a	n/a	25	n/a	n/a	n/a	n/a
3670200	DISTRACTOR	n/a	LTP307	ltpFR2	23	17	n/a	n/a	n/a	n/a	0	0	0
3670206	PROB	n/a	LTP307	ltpFR2	23	n/a	n/a	n/a	25	18	8	5	5
3672461	PROB	n/a	LTP307	ltpFR2	23	n/a	n/a	n/a	25	23	7	9	7
3675213	PROB	n/a	LTP307	ltpFR2	23	n/a	n/a	n/a	25	9	2	1	6
3676431	PROB	n/a	LTP307	ltpFR2	23	n/a	n/a	n/a	25	22	8	8	6
3677999	PROB	n/a	LTP307	ltpFR2	23	n/a	n/a	n/a	25	15	7	5	3
3679117	PROB	n/a	LTP307	ltpFR2	23	n/a	n/a	n/a	25	9	4	1	4
3680368	PROB	n/a	LTP307	ltpFR2	23	n/a	n/a	n/a	25	16	6	1	9
3681486	PROB	n/a	LTP307	ltpFR2	23	n/a	n/a	n/a	25	16	3	5	8
3683752	PROB	n/a	LTP307	ltpFR2	23	n/a	n/a	n/a	25	16	3	7	6
3684839	PROB	n/a	LTP307	ltpFR2	23	n/a	n/a	n/a	25	22	9	6	7
3686054	PROB	n/a	LTP307	ltpFR2	23	n/a	n/a	n/a	25	15	8	2	5
3687253	PROB	n/a	LTP307	ltpFR2	23	n/a	n/a	n/a	25	10	2	6	2
3688420	PROB	n/a	LTP307	ltpFR2	23	n/a	n/a	n/a	25	13	7	2	5
3690809	PROB	n/a	LTP307	ltpFR2	23	n/a	n/a	n/a	25	13	6	1	6
3691790	STOP	n/a	LTP307	ltpFR2	23	n/a	n/a	n/a	25	n/a	n/a	n/a	n/a
3694894	REC_START	n/a	LTP307	ltpFR2	23	17	n/a	n/a	n/a	n/a	0	0	0
3696818	REC_WORD	wordpools/wasnorm_wordpool_576.txt	LTP307	ltpFR2	23	17	CUPBOARD	425	n/a	n/a	0	0	0
3697647	REC_WORD	wordpools/wasnorm_wordpool_576.txt	LTP307	ltpFR2	23	17	COFFEE	341	n/a	n/a	0	0	0
3698303	REC_WORD	wordpools/wasnorm_wordpool_576.txt	LTP307	ltpFR2	23	17	STONE	1385	n/a	n/a	0	0	0
3699233	REC_WORD	wordpools/wasnorm_wordpool_576.txt	LTP307	ltpFR2	23	17	NEUTRON	947	n/a	n/a	0	0	0
3700002	REC_WORD	wordpools/wasnorm_wordpool_576.txt	LTP307	ltpFR2	23	17	BEAKER	104	n/a	n/a	0	0	0
3700597	REC_WORD	wordpools/wasnorm_wordpool_576.txt	LTP307	ltpFR2	23	17	STAIRS	1367	n/a	n/a	0	0	0
3703950	REC_WORD	wordpools/wasnorm_wordpool_576.txt	LTP307	ltpFR2	23	17	BUGGY	188	n/a	n/a	0	0	0
3711737	REC_WORD	wordpools/wasnorm_wordpool_576.txt	LTP307	ltpFR2	23	17	DOORBELL	487	n/a	n/a	0	0	0
3713374	REC_WORD	wordpools/wasnorm_wordpool_576.txt	LTP307	ltpFR2	23	17	SHORTS	1293	n/a	n/a	0	0	0
3717459	REC_WORD	wordpools/wasnorm_wordpool_576.txt	LTP307	ltpFR2	23	17	PLAID	1080	n/a	n/a	0	0	0
3720580	REC_WORD	wordpools/wasnorm_wordpool_576.txt	LTP307	ltpFR2	23	17	BRIDGE	174	n/a	n/a	0	0	0
3785335	WORD	wordpools/wasnorm_wordpool_576.txt	LTP307	ltpFR2	23	18	BATHTUB	100	n/a	n/a	0	0	0
3787772	WORD	wordpools/wasnorm_wordpool_576.txt	LTP307	ltpFR2	23	18	TYPIST	1532	n/a	n/a	0	0	0
3790473	WORD	wordpools/wasnorm_wordpool_576.txt	LTP307	ltpFR2	23	18	MARSH	874	n/a	n/a	0	0	0
3793077	WORD	wordpools/wasnorm_wordpool_576.txt	LTP307	ltpFR2	23	18	TWIG	1527	n/a	n/a	0	0	0
3795684	WORD	wordpools/wasnorm_wordpool_576.txt	LTP307	ltpFR2	23	18	BIBLE	124	n/a	n/a	0	0	0
3798184	WORD	wordpools/wasnorm_wordpool_576.txt	LTP307	ltpFR2	23	18	GODDESS	646	n/a	n/a	0	0	0
3800632	WORD	wordpools/wasnorm_wordpool_576.txt	LTP307	ltpFR2	23	18	LUNCH	849	n/a	n/a	0	0	0
3803133	WORD	wordpools/wasnorm_wordpool_576.txt	LTP307	ltpFR2	23	18	WAREHOUSE	1588	n/a	n/a	0	0	0
3805586	WORD	wordpools/wasnorm_wordpool_576.txt	LTP307	ltpFR2	23	18	SCAPEGOAT	1244	n/a	n/a	0	0	0
3808344	WORD	wordpools/wasnorm_wordpool_576.txt	LTP307	ltpFR2	23	18	HANGER	687	n/a	n/a	0	0	0
3810929	WORD	wordpools/wasnorm_wordpool_576.txt	LTP307	ltpFR2	23	18	JACKET	747	n/a	n/a	0	0	0
3813598	WORD	wordpools/wasnorm_wordpool_576.txt	LTP307	ltpFR2	23	18	BEETLE	116	n/a	n/a	0	0	0
3816166	WORD	wordpools/wasnorm_wordpool_576.txt	LTP307	ltpFR2	23	18	SWATTER	1418	n/a	n/a	0	0	0
3818653	WORD	wordpools/wasnorm_wordpool_576.txt	LTP307	ltpFR2	23	18	FOREST	593	n/a	n/a	0	0	0
3821321	WORD	wordpools/wasnorm_wordpool_576.txt	LTP307	ltpFR2	23	18	SUITE	1404	n/a	n/a	0	0	0
3824069	WORD	wordpools/wasnorm_wordpool_576.txt	LTP307	ltpFR2	23	18	SCOUT	1252	n/a	n/a	0	0	0
3826661	WORD	wordpools/wasnorm_wordpool_576.txt	LTP307	ltpFR2	23	18	PEOPLE	1046	n/a	n/a	0	0	0
3829155	WORD	wordpools/wasnorm_wordpool_576.txt	LTP307	ltpFR2	23	18	TREAT	1501	n/a	n/a	0	0	0
3831707	WORD	wordpools/wasnorm_wordpool_576.txt	LTP307	ltpFR2	23	18	PARSLEY	1016	n/a	n/a	0	0	0
3834258	WORD	wordpools/wasnorm_wordpool_576.txt	LTP307	ltpFR2	23	18	NICKEL	950	n/a	n/a	0	0	0
3836952	WORD	wordpools/wasnorm_wordpool_576.txt	LTP307	ltpFR2	23	18	MASK	876	n/a	n/a	0	0	0
3839704	WORD	wordpools/wasnorm_wordpool_576.txt	LTP307	ltpFR2	23	18	OFFICE	972	n/a	n/a	0	0	0
3842281	WORD	wordpools/wasnorm_wordpool_576.txt	LTP307	ltpFR2	23	18	BROOK	177	n/a	n/a	0	0	0
3844869	WORD	wordpools/wasnorm_wordpool_576.txt	LTP307	ltpFR2	23	18	ICEBERG	731	n/a	n/a	0	0	0
3846477	START	n/a	LTP307	ltpFR2	23	n/a	n/a	n/a	26	n/a	n/a	n/a	n/a
3847659	DISTRACTOR	n/a	LTP307	ltpFR2	23	18	n/a	n/a	n/a	n/a	0	0	0
3847670	PROB	n/a	LTP307	ltpFR2	23	n/a	n/a	n/a	26	18	3	6	9
3850187	PROB	n/a	LTP307	ltpFR2	23	n/a	n/a	n/a	26	11	6	1	4
3851171	PROB	n/a	LTP307	ltpFR2	23	n/a	n/a	n/a	26	7	5	1	1
3852290	PROB	n/a	LTP307	ltpFR2	23	n/a	n/a	n/a	26	9	5	1	3
3853524	PROB	n/a	LTP307	ltpFR2	23	n/a	n/a	n/a	26	10	2	5	3
3854858	PROB	n/a	LTP307	ltpFR2	23	n/a	n/a	n/a	26	17	2	9	6
3856078	PROB	n/a	LTP307	ltpFR2	23	n/a	n/a	n/a	26	19	4	8	7
3857292	PROB	n/a	LTP307	ltpFR2	23	n/a	n/a	n/a	26	11	2	8	1
3858311	PROB	n/a	LTP307	ltpFR2	23	n/a	n/a	n/a	26	17	8	4	5
3859680	PROB	n/a	LTP307	ltpFR2	23	n/a	n/a	n/a	26	12	8	3	1
3860746	PROB	n/a	LTP307	ltpFR2	23	n/a	n/a	n/a	26	15	5	7	3
3861964	PROB	n/a	LTP307	ltpFR2	23	n/a	n/a	n/a	26	20	7	7	6
3863648	PROB	n/a	LTP307	ltpFR2	23	n/a	n/a	n/a	26	18	8	6	4
3864849	PROB	n/a	LTP307	ltpFR2	23	n/a	n/a	n/a	26	12	2	8	1
3866018	PROB	n/a	LTP307	ltpFR2	23	n/a	n/a	n/a	26	16	6	7	3
