onset	duration	trial_type	sample	stim_file	subject	experiment	session	trial	task	item_name	item_num	recog_conf	resp	color_b	color_g	color_r	case	font
224.568	n/a	SESS_START	112284	n/a	LTP074	ltpFR	14	n/a	n/a	n/a	n/a	4	n/a	n/a	n/a	n/a	n/a	n/a
274.086	n/a	WORD	137043	wordpools/wasnorm_wordpool.txt	LTP074	ltpFR	14	1	1	ANCHOR	21	n/a	1	1	0.412841796875	0.57763671875	upper	../fonts/amplitud.ttf
277.936	n/a	WORD	138968	wordpools/wasnorm_wordpool.txt	LTP074	ltpFR	14	1	1	CARNIVAL	245	n/a	0	1	0.412841796875	0.57763671875	upper	../fonts/amplitud.ttf
281.86	n/a	WORD	140930	wordpools/wasnorm_wordpool.txt	LTP074	ltpFR	14	1	0	TECHNICIAN	1443	n/a	1	0	0.5869140625	0.422607421875	lower	../fonts/zerothre.ttf
286.018	n/a	WORD	143009	wordpools/wasnorm_wordpool.txt	LTP074	ltpFR	14	1	0	COMPUTER	359	n/a	1	0	0.5869140625	0.422607421875	lower	../fonts/zerothre.ttf
289.844	n/a	WORD	144922	wordpools/wasnorm_wordpool.txt	LTP074	ltpFR	14	1	0	FLIPPER	580	n/a	0	0	0.5869140625	0.422607421875	lower	../fonts/zerothre.ttf
293.718	n/a	WORD	146859	wordpools/wasnorm_wordpool.txt	LTP074	ltpFR	14	1	0	SECRETARY	1265	n/a	1	0	0.5869140625	0.422607421875	lower	../fonts/zerothre.ttf
297.692	n/a	WORD	148846	wordpools/wasnorm_wordpool.txt	LTP074	ltpFR	14	1	1	PEOPLE	1046	n/a	1	1	0.412841796875	0.57763671875	upper	../fonts/amplitud.ttf
301.542	n/a	WORD	150771	wordpools/wasnorm_wordpool.txt	LTP074	ltpFR	14	1	1	TAG	1429	n/a	0	1	0.412841796875	0.57763671875	upper	../fonts/amplitud.ttf
305.65	n/a	WORD	152825	wordpools/wasnorm_wordpool.txt	LTP074	ltpFR	14	1	1	CARAVAN	242	n/a	0	1	0.412841796875	0.57763671875	upper	../fonts/amplitud.ttf
309.818	n/a	WORD	154909	wordpools/wasnorm_wordpool.txt	LTP074	ltpFR	14	1	1	NOSE	957	n/a	0	1	0.412841796875	0.57763671875	upper	../fonts/amplitud.ttf
314.002	n/a	WORD	157001	wordpools/wasnorm_wordpool.txt	LTP074	ltpFR	14	1	0	LEADER	807	n/a	1	0	0.5869140625	0.422607421875	lower	../fonts/zerothre.ttf
317.868	n/a	WORD	158934	wordpools/wasnorm_wordpool.txt	LTP074	ltpFR	14	1	0	FIN	566	n/a	0	0	0.5869140625	0.422607421875	lower	../fonts/zerothre.ttf
322.058	n/a	WORD	161029	wordpools/wasnorm_wordpool.txt	LTP074	ltpFR	14	1	0	FLUTE	585	n/a	0	0	0.5869140625	0.422607421875	lower	../fonts/zerothre.ttf
326.118	n/a	WORD	163059	wordpools/wasnorm_wordpool.txt	LTP074	ltpFR	14	1	0	RECORD	1176	n/a	0	0	0.5869140625	0.422607421875	lower	../fonts/zerothre.ttf
330.226	n/a	WORD	165113	wordpools/wasnorm_wordpool.txt	LTP074	ltpFR	14	1	1	PERSONNEL	1053	n/a	1	1	0.412841796875	0.57763671875	upper	../fonts/amplitud.ttf
334.21	n/a	WORD	167105	wordpools/wasnorm_wordpool.txt	LTP074	ltpFR	14	1	1	DIPLOMA	470	n/a	0	1	0.412841796875	0.57763671875	upper	../fonts/amplitud.ttf
339.792	n/a	REC_START	169896	n/a	LTP074	ltpFR	14	1	n/a	n/a	n/a	n/a	n/a	n/a	n/a	n/a	n/a	n/a
340.77	n/a	REC_WORD	170385	wordpools/wasnorm_wordpool.txt	LTP074	ltpFR	14	1	0	RECORD	1176	n/a	0	n/a	n/a	n/a	n/a	n/a
341.368	n/a	REC_WORD	170684	wordpools/wasnorm_wordpool.txt	LTP074	ltpFR	14	1	0	FLUTE	585	n/a	0	n/a	n/a	n/a	n/a	n/a
342.008	n/a	REC_WORD	171004	wordpools/wasnorm_wordpool.txt	LTP074	ltpFR	14	1	1	PERSONNEL	1053	n/a	1	n/a	n/a	n/a	n/a	n/a
342.792	n/a	REC_WORD	171396	wordpools/wasnorm_wordpool.txt	LTP074	ltpFR	14	1	1	DIPLOMA	470	n/a	0	n/a	n/a	n/a	n/a	n/a
346.606	n/a	REC_WORD	173303	wordpools/wasnorm_wordpool.txt	LTP074	ltpFR	14	1	0	TECHNICIAN	1443	n/a	1	n/a	n/a	n/a	n/a	n/a
347.326	n/a	REC_WORD	173663	wordpools/wasnorm_wordpool.txt	LTP074	ltpFR	14	1	1	ANCHOR	21	n/a	1	n/a	n/a	n/a	n/a	n/a
347.914	n/a	REC_WORD	173957	wordpools/wasnorm_wordpool.txt	LTP074	ltpFR	14	1	1	CARNIVAL	245	n/a	0	n/a	n/a	n/a	n/a	n/a
352.808	n/a	REC_WORD	176404	wordpools/wasnorm_wordpool.txt	LTP074	ltpFR	14	1	1	PEOPLE	1046	n/a	1	n/a	n/a	n/a	n/a	n/a
353.912	n/a	REC_WORD	176956	wordpools/wasnorm_wordpool.txt	LTP074	ltpFR	14	1	1	TAG	1429	n/a	0	n/a	n/a	n/a	n/a	n/a
360.462	n/a	REC_WORD	180231	wordpools/wasnorm_wordpool.txt	LTP074	ltpFR	14	1	1	CARAVAN	242	n/a	0	n/a	n/a	n/a	n/a	n/a
362.986	n/a	REC_WORD	181493	wordpools/wasnorm_wordpool.txt	LTP074	ltpFR	14	1	0	FIN	566	n/a	0	n/a	n/a	n/a	n/a	n/a
363.858	n/a	REC_WORD	181929	wordpools/wasnorm_wordpool.txt	LTP074	ltpFR	14	1	1	NOSE	957	n/a	0	n/a	n/a	n/a	n/a	n/a
382.786	n/a	REC_WORD	191393	wordpools/wasnorm_wordpool.txt	LTP074	ltpFR	14	1	0	FLIPPER	580	n/a	0	n/a	n/a	n/a	n/a	n/a
383.31	n/a	REC_WORD	191655	wordpools/wasnorm_wordpool.txt	LTP074	ltpFR	14	1	0	COMPUTER	359	n/a	1	n/a	n/a	n/a	n/a	n/a
383.898	n/a	REC_WORD	191949	wordpools/wasnorm_wordpool.txt	LTP074	ltpFR	14	1	0	SECRETARY	1265	n/a	1	n/a	n/a	n/a	n/a	n/a
392.166	n/a	REC_WORD	196083	wordpools/wasnorm_wordpool.txt	LTP074	ltpFR	14	1	1	PERSONNEL	1053	n/a	1	n/a	n/a	n/a	n/a	n/a
420.522	n/a	WORD	210261	wordpools/wasnorm_wordpool.txt	LTP074	ltpFR	14	2	0	VET	1560	n/a	1	0	0.5869140625	0.422607421875	lower	../fonts/zerothre.ttf
424.68	n/a	WORD	212340	wordpools/wasnorm_wordpool.txt	LTP074	ltpFR	14	2	0	RUST	1219	n/a	0	0	0.5869140625	0.422607421875	lower	../fonts/zerothre.ttf
428.89	n/a	WORD	214445	wordpools/wasnorm_wordpool.txt	LTP074	ltpFR	14	2	1	DRIVER	499	n/a	1	1	0.412841796875	0.57763671875	upper	../fonts/amplitud.ttf
432.948	n/a	WORD	216474	wordpools/wasnorm_wordpool.txt	LTP074	ltpFR	14	2	1	ESSAY	540	n/a	0	1	0.412841796875	0.57763671875	upper	../fonts/amplitud.ttf
437.048	n/a	WORD	218524	wordpools/wasnorm_wordpool.txt	LTP074	ltpFR	14	2	1	LOCK	838	n/a	0	1	0.412841796875	0.57763671875	upper	../fonts/amplitud.ttf
441.048	n/a	WORD	220524	wordpools/wasnorm_wordpool.txt	LTP074	ltpFR	14	2	1	COMEDIAN	352	n/a	1	1	0.412841796875	0.57763671875	upper	../fonts/amplitud.ttf
445.156	n/a	WORD	222578	wordpools/wasnorm_wordpool.txt	LTP074	ltpFR	14	2	1	DOCUMENT	479	n/a	0	1	0.412841796875	0.57763671875	upper	../fonts/amplitud.ttf
449.348	n/a	WORD	224674	wordpools/wasnorm_wordpool.txt	LTP074	ltpFR	14	2	1	CABINET	212	n/a	0	1	0.412841796875	0.57763671875	upper	../fonts/amplitud.ttf
453.314	n/a	WORD	226657	wordpools/wasnorm_wordpool.txt	LTP074	ltpFR	14	2	0	POISON	1096	n/a	0	0	0.5869140625	0.422607421875	lower	../fonts/zerothre.ttf
457.29	n/a	WORD	228645	wordpools/wasnorm_wordpool.txt	LTP074	ltpFR	14	2	0	ARM	38	n/a	0	0	0.5869140625	0.422607421875	lower	../fonts/zerothre.ttf
461.43	n/a	WORD	230715	wordpools/wasnorm_wordpool.txt	LTP074	ltpFR	14	2	0	DINOSAUR	469	n/a	1	0	0.5869140625	0.422607421875	lower	../fonts/zerothre.ttf
465.338	n/a	WORD	232669	wordpools/wasnorm_wordpool.txt	LTP074	ltpFR	14	2	0	KIWI	781	n/a	0	0	0.5869140625	0.422607421875	lower	../fonts/zerothre.ttf
469.388	n/a	WORD	234694	wordpools/wasnorm_wordpool.txt	LTP074	ltpFR	14	2	1	TREAD	1499	n/a	0	1	0.412841796875	0.57763671875	upper	../fonts/amplitud.ttf
473.52	n/a	WORD	236760	wordpools/wasnorm_wordpool.txt	LTP074	ltpFR	14	2	1	BUCKET	184	n/a	0	1	0.412841796875	0.57763671875	upper	../fonts/amplitud.ttf
477.348	n/a	WORD	238674	wordpools/wasnorm_wordpool.txt	LTP074	ltpFR	14	2	0	TURKEY	1520	n/a	1	0	0.5869140625	0.422607421875	lower	../fonts/zerothre.ttf
481.23	n/a	WORD	240615	wordpools/wasnorm_wordpool.txt	LTP074	ltpFR	14	2	0	YOKE	1632	n/a	0	0	0.5869140625	0.422607421875	lower	../fonts/zerothre.ttf
486.93	n/a	REC_START	243465	n/a	LTP074	ltpFR	14	2	n/a	n/a	n/a	n/a	n/a	n/a	n/a	n/a	n/a	n/a
488.348	n/a	REC_WORD	244174	wordpools/wasnorm_wordpool.txt	LTP074	ltpFR	14	2	1	TREAD	1499	n/a	0	n/a	n/a	n/a	n/a	n/a
489.016	n/a	REC_WORD	244508	wordpools/wasnorm_wordpool.txt	LTP074	ltpFR	14	2	1	BUCKET	184	n/a	0	n/a	n/a	n/a	n/a	n/a
489.71	n/a	REC_WORD	244855	wordpools/wasnorm_wordpool.txt	LTP074	ltpFR	14	2	0	TURKEY	1520	n/a	1	n/a	n/a	n/a	n/a	n/a
490.512	n/a	REC_WORD	245256	wordpools/wasnorm_wordpool.txt	LTP074	ltpFR	14	2	0	YOKE	1632	n/a	0	n/a	n/a	n/a	n/a	n/a
494.094	n/a	REC_WORD	247047	wordpools/wasnorm_wordpool.txt	LTP074	ltpFR	14	2	0	ARM	38	n/a	0	n/a	n/a	n/a	n/a	n/a
494.962	n/a	REC_WORD	247481	wordpools/wasnorm_wordpool.txt	LTP074	ltpFR	14	2	0	DINOSAUR	469	n/a	1	n/a	n/a	n/a	n/a	n/a
505.738	n/a	REC_WORD	252869	wordpools/wasnorm_wordpool.txt	LTP074	ltpFR	14	2	1	COMEDIAN	352	n/a	1	n/a	n/a	n/a	n/a	n/a
506.572	n/a	REC_WORD	253286	wordpools/wasnorm_wordpool.txt	LTP074	ltpFR	14	2	1	LOCK	838	n/a	0	n/a	n/a	n/a	n/a	n/a
507.11	n/a	REC_WORD	253555	wordpools/wasnorm_wordpool.txt	LTP074	ltpFR	14	2	1	ESSAY	540	n/a	0	n/a	n/a	n/a	n/a	n/a
508.686	n/a	REC_WORD	254343	wordpools/wasnorm_wordpool.txt	LTP074	ltpFR	14	2	1	DOCUMENT	479	n/a	0	n/a	n/a	n/a	n/a	n/a
509.326	n/a	REC_WORD	254663	wordpools/wasnorm_wordpool.txt	LTP074	ltpFR	14	2	0	POISON	1096	n/a	0	n/a	n/a	n/a	n/a	n/a
509.978	n/a	REC_WORD	254989	wordpools/wasnorm_wordpool.txt	LTP074	ltpFR	14	2	1	CABINET	212	n/a	0	n/a	n/a	n/a	n/a	n/a
521.428	n/a	REC_WORD	260714	wordpools/wasnorm_wordpool.txt	LTP074	ltpFR	14	2	0	VET	1560	n/a	1	n/a	n/a	n/a	n/a	n/a
522.038	n/a	REC_WORD	261019	wordpools/wasnorm_wordpool.txt	LTP074	ltpFR	14	2	1	DRIVER	499	n/a	1	n/a	n/a	n/a	n/a	n/a
522.716	n/a	REC_WORD	261358	wordpools/wasnorm_wordpool.txt	LTP074	ltpFR	14	2	0	RUST	1219	n/a	0	n/a	n/a	n/a	n/a	n/a
525.256	n/a	REC_WORD	262628	wordpools/wasnorm_wordpool.txt	LTP074	ltpFR	14	2	0	KIWI	781	n/a	0	n/a	n/a	n/a	n/a	n/a
566.828	n/a	WORD	283414	wordpools/wasnorm_wordpool.txt	LTP074	ltpFR	14	3	-1	ENVELOPE	537	n/a	-1	1	1.0	1.0	upper	../fonts/Verdana.ttf
570.66	n/a	WORD	285330	wordpools/wasnorm_wordpool.txt	LTP074	ltpFR	14	3	-1	HOOD	714	n/a	-1	1	1.0	1.0	upper	../fonts/Verdana.ttf
574.542	n/a	WORD	287271	wordpools/wasnorm_wordpool.txt	LTP074	ltpFR	14	3	-1	CYLINDER	432	n/a	-1	1	1.0	1.0	upper	../fonts/Verdana.ttf
578.692	n/a	WORD	289346	wordpools/wasnorm_wordpool.txt	LTP074	ltpFR	14	3	-1	HEAD	695	n/a	-1	1	1.0	1.0	upper	../fonts/Verdana.ttf
582.668	n/a	WORD	291334	wordpools/wasnorm_wordpool.txt	LTP074	ltpFR	14	3	-1	KNIFE	785	n/a	-1	1	1.0	1.0	upper	../fonts/Verdana.ttf
586.836	n/a	WORD	293418	wordpools/wasnorm_wordpool.txt	LTP074	ltpFR	14	3	-1	CHIEF	298	n/a	-1	1	1.0	1.0	upper	../fonts/Verdana.ttf
590.81	n/a	WORD	295405	wordpools/wasnorm_wordpool.txt	LTP074	ltpFR	14	3	-1	POTATO	1115	n/a	-1	1	1.0	1.0	upper	../fonts/Verdana.ttf
594.894	n/a	WORD	297447	wordpools/wasnorm_wordpool.txt	LTP074	ltpFR	14	3	-1	BREAD	170	n/a	-1	1	1.0	1.0	upper	../fonts/Verdana.ttf
598.742	n/a	WORD	299371	wordpools/wasnorm_wordpool.txt	LTP074	ltpFR	14	3	-1	GIFT	635	n/a	-1	1	1.0	1.0	upper	../fonts/Verdana.ttf
602.886	n/a	WORD	301443	wordpools/wasnorm_wordpool.txt	LTP074	ltpFR	14	3	-1	CLAMP	316	n/a	-1	1	1.0	1.0	upper	../fonts/Verdana.ttf
606.776	n/a	WORD	303388	wordpools/wasnorm_wordpool.txt	LTP074	ltpFR	14	3	-1	POSTAGE	1113	n/a	-1	1	1.0	1.0	upper	../fonts/Verdana.ttf
610.802	n/a	WORD	305401	wordpools/wasnorm_wordpool.txt	LTP074	ltpFR	14	3	-1	POSSUM	1112	n/a	-1	1	1.0	1.0	upper	../fonts/Verdana.ttf
614.952	n/a	WORD	307476	wordpools/wasnorm_wordpool.txt	LTP074	ltpFR	14	3	-1	CREATURE	403	n/a	-1	1	1.0	1.0	upper	../fonts/Verdana.ttf
619.126	n/a	WORD	309563	wordpools/wasnorm_wordpool.txt	LTP074	ltpFR	14	3	-1	DINER	467	n/a	-1	1	1.0	1.0	upper	../fonts/Verdana.ttf
622.968	n/a	WORD	311484	wordpools/wasnorm_wordpool.txt	LTP074	ltpFR	14	3	-1	MARKET	871	n/a	-1	1	1.0	1.0	upper	../fonts/Verdana.ttf
626.902	n/a	WORD	313451	wordpools/wasnorm_wordpool.txt	LTP074	ltpFR	14	3	-1	COAT	333	n/a	-1	1	1.0	1.0	upper	../fonts/Verdana.ttf
632.926	n/a	REC_START	316463	n/a	LTP074	ltpFR	14	3	n/a	n/a	n/a	n/a	n/a	n/a	n/a	n/a	n/a	n/a
633.894	n/a	REC_WORD	316947	wordpools/wasnorm_wordpool.txt	LTP074	ltpFR	14	3	-1	CREATURE	403	n/a	-1	n/a	n/a	n/a	n/a	n/a
634.638	n/a	REC_WORD	317319	wordpools/wasnorm_wordpool.txt	LTP074	ltpFR	14	3	-1	DINER	467	n/a	-1	n/a	n/a	n/a	n/a	n/a
635.246	n/a	REC_WORD	317623	wordpools/wasnorm_wordpool.txt	LTP074	ltpFR	14	3	-1	MARKET	871	n/a	-1	n/a	n/a	n/a	n/a	n/a
635.95	n/a	REC_WORD	317975	wordpools/wasnorm_wordpool.txt	LTP074	ltpFR	14	3	-1	COAT	333	n/a	-1	n/a	n/a	n/a	n/a	n/a
637.7	n/a	REC_WORD	318850	wordpools/wasnorm_wordpool.txt	LTP074	ltpFR	14	3	-1	POSSUM	1112	n/a	-1	n/a	n/a	n/a	n/a	n/a
638.782	n/a	REC_WORD	319391	wordpools/wasnorm_wordpool.txt	LTP074	ltpFR	14	3	-1	CLAMP	316	n/a	-1	n/a	n/a	n/a	n/a	n/a
639.582	n/a	REC_WORD	319791	wordpools/wasnorm_wordpool.txt	LTP074	ltpFR	14	3	-1	POSTAGE	1113	n/a	-1	n/a	n/a	n/a	n/a	n/a
641.766	n/a	REC_WORD	320883	wordpools/wasnorm_wordpool.txt	LTP074	ltpFR	14	3	-1	ENVELOPE	537	n/a	-1	n/a	n/a	n/a	n/a	n/a
642.292	n/a	REC_WORD	321146	wordpools/wasnorm_wordpool.txt	LTP074	ltpFR	14	3	-1	CYLINDER	432	n/a	-1	n/a	n/a	n/a	n/a	n/a
643.058	n/a	REC_WORD	321529	wordpools/wasnorm_wordpool.txt	LTP074	ltpFR	14	3	-1	HOOD	714	n/a	-1	n/a	n/a	n/a	n/a	n/a
644.886	n/a	REC_WORD	322443	wordpools/wasnorm_wordpool.txt	LTP074	ltpFR	14	3	-1	CHIEF	298	n/a	-1	n/a	n/a	n/a	n/a	n/a
645.428	n/a	REC_WORD	322714	wordpools/wasnorm_wordpool.txt	LTP074	ltpFR	14	3	-1	KNIFE	785	n/a	-1	n/a	n/a	n/a	n/a	n/a
645.962	n/a	REC_WORD	322981	wordpools/wasnorm_wordpool.txt	LTP074	ltpFR	14	3	-1	HEAD	695	n/a	-1	n/a	n/a	n/a	n/a	n/a
649.724	n/a	REC_WORD	324862	wordpools/wasnorm_wordpool.txt	LTP074	ltpFR	14	3	-1	POTATO	1115	n/a	-1	n/a	n/a	n/a	n/a	n/a
650.428	n/a	REC_WORD	325214	wordpools/wasnorm_wordpool.txt	LTP074	ltpFR	14	3	-1	BREAD	170	n/a	-1	n/a	n/a	n/a	n/a	n/a
650.836	n/a	REC_WORD	325418	wordpools/wasnorm_wordpool.txt	LTP074	ltpFR	14	3	-1	GIFT	635	n/a	-1	n/a	n/a	n/a	n/a	n/a
743.206	n/a	WORD	371603	wordpools/wasnorm_wordpool.txt	LTP074	ltpFR	14	4	-1	DISH	474	n/a	-1	1	1.0	1.0	upper	../fonts/Verdana.ttf
747.074	n/a	WORD	373537	wordpools/wasnorm_wordpool.txt	LTP074	ltpFR	14	4	-1	BARREL	91	n/a	-1	1	1.0	1.0	upper	../fonts/Verdana.ttf
751.132	n/a	WORD	375566	wordpools/wasnorm_wordpool.txt	LTP074	ltpFR	14	4	-1	SALOON	1228	n/a	-1	1	1.0	1.0	upper	../fonts/Verdana.ttf
755.156	n/a	WORD	377578	wordpools/wasnorm_wordpool.txt	LTP074	ltpFR	14	4	-1	MINT	898	n/a	-1	1	1.0	1.0	upper	../fonts/Verdana.ttf
759.214	n/a	WORD	379607	wordpools/wasnorm_wordpool.txt	LTP074	ltpFR	14	4	-1	CAB	209	n/a	-1	1	1.0	1.0	upper	../fonts/Verdana.ttf
763.148	n/a	WORD	381574	wordpools/wasnorm_wordpool.txt	LTP074	ltpFR	14	4	-1	SILVERWARE	1308	n/a	-1	1	1.0	1.0	upper	../fonts/Verdana.ttf
767.172	n/a	WORD	383586	wordpools/wasnorm_wordpool.txt	LTP074	ltpFR	14	4	-1	OATS	968	n/a	-1	1	1.0	1.0	upper	../fonts/Verdana.ttf
771.28	n/a	WORD	385640	wordpools/wasnorm_wordpool.txt	LTP074	ltpFR	14	4	-1	CITRUS	313	n/a	-1	1	1.0	1.0	upper	../fonts/Verdana.ttf
775.396	n/a	WORD	387698	wordpools/wasnorm_wordpool.txt	LTP074	ltpFR	14	4	-1	BEER	114	n/a	-1	1	1.0	1.0	upper	../fonts/Verdana.ttf
779.588	n/a	WORD	389794	wordpools/wasnorm_wordpool.txt	LTP074	ltpFR	14	4	-1	NICKEL	950	n/a	-1	1	1.0	1.0	upper	../fonts/Verdana.ttf
783.746	n/a	WORD	391873	wordpools/wasnorm_wordpool.txt	LTP074	ltpFR	14	4	-1	FACTORY	548	n/a	-1	1	1.0	1.0	upper	../fonts/Verdana.ttf
787.888	n/a	WORD	393944	wordpools/wasnorm_wordpool.txt	LTP074	ltpFR	14	4	-1	TERMINAL	1450	n/a	-1	1	1.0	1.0	upper	../fonts/Verdana.ttf
792.088	n/a	WORD	396044	wordpools/wasnorm_wordpool.txt	LTP074	ltpFR	14	4	-1	CONDUCTOR	362	n/a	-1	1	1.0	1.0	upper	../fonts/Verdana.ttf
796.064	n/a	WORD	398032	wordpools/wasnorm_wordpool.txt	LTP074	ltpFR	14	4	-1	THRONE	1461	n/a	-1	1	1.0	1.0	upper	../fonts/Verdana.ttf
800.072	n/a	WORD	400036	wordpools/wasnorm_wordpool.txt	LTP074	ltpFR	14	4	-1	CROWN	415	n/a	-1	1	1.0	1.0	upper	../fonts/Verdana.ttf
804.112	n/a	WORD	402056	wordpools/wasnorm_wordpool.txt	LTP074	ltpFR	14	4	-1	VAN	1548	n/a	-1	1	1.0	1.0	upper	../fonts/Verdana.ttf
809.848	n/a	REC_START	404924	n/a	LTP074	ltpFR	14	4	n/a	n/a	n/a	n/a	n/a	n/a	n/a	n/a	n/a	n/a
811.044	n/a	REC_WORD	405522	wordpools/wasnorm_wordpool.txt	LTP074	ltpFR	14	4	-1	CONDUCTOR	362	n/a	-1	n/a	n/a	n/a	n/a	n/a
811.972	n/a	REC_WORD	405986	wordpools/wasnorm_wordpool.txt	LTP074	ltpFR	14	4	-1	CROWN	415	n/a	-1	n/a	n/a	n/a	n/a	n/a
812.656	n/a	REC_WORD	406328	wordpools/wasnorm_wordpool.txt	LTP074	ltpFR	14	4	-1	THRONE	1461	n/a	-1	n/a	n/a	n/a	n/a	n/a
813.928	n/a	REC_WORD	406964	wordpools/wasnorm_wordpool.txt	LTP074	ltpFR	14	4	-1	VAN	1548	n/a	-1	n/a	n/a	n/a	n/a	n/a
818.996	n/a	REC_WORD	409498	wordpools/wasnorm_wordpool.txt	LTP074	ltpFR	14	4	n/a	PLATE	1086	n/a	n/a	n/a	n/a	n/a	n/a	n/a
819.97	n/a	REC_WORD	409985	wordpools/wasnorm_wordpool.txt	LTP074	ltpFR	14	4	-1	BARREL	91	n/a	-1	n/a	n/a	n/a	n/a	n/a
821.038	n/a	REC_WORD	410519	wordpools/wasnorm_wordpool.txt	LTP074	ltpFR	14	4	n/a	SILK	1307	n/a	n/a	n/a	n/a	n/a	n/a	n/a
822.748	n/a	REC_WORD	411374	wordpools/wasnorm_wordpool.txt	LTP074	ltpFR	14	4	-1	SALOON	1228	n/a	-1	n/a	n/a	n/a	n/a	n/a
827.268	n/a	REC_WORD	413634	wordpools/wasnorm_wordpool.txt	LTP074	ltpFR	14	4	-1	NICKEL	950	n/a	-1	n/a	n/a	n/a	n/a	n/a
827.798	n/a	REC_WORD	413899	wordpools/wasnorm_wordpool.txt	LTP074	ltpFR	14	4	-1	FACTORY	548	n/a	-1	n/a	n/a	n/a	n/a	n/a
828.56	n/a	REC_WORD	414280	wordpools/wasnorm_wordpool.txt	LTP074	ltpFR	14	4	-1	TERMINAL	1450	n/a	-1	n/a	n/a	n/a	n/a	n/a
839.452	n/a	REC_WORD	419726	wordpools/wasnorm_wordpool.txt	LTP074	ltpFR	14	4	-1	MINT	898	n/a	-1	n/a	n/a	n/a	n/a	n/a
843.486	n/a	REC_WORD	421743	wordpools/wasnorm_wordpool.txt	LTP074	ltpFR	14	4	n/a	TAXI	1438	n/a	n/a	n/a	n/a	n/a	n/a	n/a
847.258	n/a	REC_WORD	423629	wordpools/wasnorm_wordpool.txt	LTP074	ltpFR	14	4	n/a	PLATE	1086	n/a	n/a	n/a	n/a	n/a	n/a	n/a
848.38	n/a	REC_WORD	424190	wordpools/wasnorm_wordpool.txt	LTP074	ltpFR	14	4	-1	SILVERWARE	1308	n/a	-1	n/a	n/a	n/a	n/a	n/a
925.926	n/a	WORD	462963	wordpools/wasnorm_wordpool.txt	LTP074	ltpFR	14	5	0	PREDATOR	1120	n/a	1	0	0.5869140625	0.422607421875	lower	../fonts/zerothre.ttf
929.86	n/a	WORD	464930	wordpools/wasnorm_wordpool.txt	LTP074	ltpFR	14	5	0	CASHEW	253	n/a	0	0	0.5869140625	0.422607421875	lower	../fonts/zerothre.ttf
933.716	n/a	WORD	466858	wordpools/wasnorm_wordpool.txt	LTP074	ltpFR	14	5	0	SQUIRREL	1362	n/a	0	0	0.5869140625	0.422607421875	lower	../fonts/zerothre.ttf
937.626	n/a	WORD	468813	wordpools/wasnorm_wordpool.txt	LTP074	ltpFR	14	5	1	SURVEY	1414	n/a	1	1	0.412841796875	0.57763671875	upper	../fonts/amplitud.ttf
941.484	n/a	WORD	470742	wordpools/wasnorm_wordpool.txt	LTP074	ltpFR	14	5	1	GOVERNOR	651	n/a	1	1	0.412841796875	0.57763671875	upper	../fonts/amplitud.ttf
945.526	n/a	WORD	472763	wordpools/wasnorm_wordpool.txt	LTP074	ltpFR	14	5	0	HATCHET	691	n/a	0	0	0.5869140625	0.422607421875	lower	../fonts/zerothre.ttf
949.6	n/a	WORD	474800	wordpools/wasnorm_wordpool.txt	LTP074	ltpFR	14	5	0	BED	110	n/a	1	0	0.5869140625	0.422607421875	lower	../fonts/zerothre.ttf
953.558	n/a	WORD	476779	wordpools/wasnorm_wordpool.txt	LTP074	ltpFR	14	5	0	TRIBE	1505	n/a	1	0	0.5869140625	0.422607421875	lower	../fonts/zerothre.ttf
957.534	n/a	WORD	478767	wordpools/wasnorm_wordpool.txt	LTP074	ltpFR	14	5	0	COWBOY	395	n/a	1	0	0.5869140625	0.422607421875	lower	../fonts/zerothre.ttf
961.684	n/a	WORD	480842	wordpools/wasnorm_wordpool.txt	LTP074	ltpFR	14	5	0	WOLF	1619	n/a	1	0	0.5869140625	0.422607421875	lower	../fonts/zerothre.ttf
965.808	n/a	WORD	482904	wordpools/wasnorm_wordpool.txt	LTP074	ltpFR	14	5	1	HAMMOCK	681	n/a	0	1	0.412841796875	0.57763671875	upper	../fonts/amplitud.ttf
969.632	n/a	WORD	484816	wordpools/wasnorm_wordpool.txt	LTP074	ltpFR	14	5	1	BANDAGE	79	n/a	0	1	0.412841796875	0.57763671875	upper	../fonts/amplitud.ttf
973.458	n/a	WORD	486729	wordpools/wasnorm_wordpool.txt	LTP074	ltpFR	14	5	1	SCISSORS	1250	n/a	0	1	0.412841796875	0.57763671875	upper	../fonts/amplitud.ttf
977.334	n/a	WORD	488667	wordpools/wasnorm_wordpool.txt	LTP074	ltpFR	14	5	1	LADY	794	n/a	1	1	0.412841796875	0.57763671875	upper	../fonts/amplitud.ttf
981.292	n/a	WORD	490646	wordpools/wasnorm_wordpool.txt	LTP074	ltpFR	14	5	1	BEAVER	109	n/a	1	1	0.412841796875	0.57763671875	upper	../fonts/amplitud.ttf
985.15	n/a	WORD	492575	wordpools/wasnorm_wordpool.txt	LTP074	ltpFR	14	5	1	JUG	762	n/a	0	1	0.412841796875	0.57763671875	upper	../fonts/amplitud.ttf
990.858	n/a	REC_START	495429	n/a	LTP074	ltpFR	14	5	n/a	n/a	n/a	n/a	n/a	n/a	n/a	n/a	n/a	n/a
991.342	n/a	REC_WORD	495671	wordpools/wasnorm_wordpool.txt	LTP074	ltpFR	14	5	1	SCISSORS	1250	n/a	0	n/a	n/a	n/a	n/a	n/a
992.148	n/a	REC_WORD	496074	wordpools/wasnorm_wordpool.txt	LTP074	ltpFR	14	5	1	LADY	794	n/a	1	n/a	n/a	n/a	n/a	n/a
992.74	n/a	REC_WORD	496370	wordpools/wasnorm_wordpool.txt	LTP074	ltpFR	14	5	1	BEAVER	109	n/a	1	n/a	n/a	n/a	n/a	n/a
993.522	n/a	REC_WORD	496761	wordpools/wasnorm_wordpool.txt	LTP074	ltpFR	14	5	1	JUG	762	n/a	0	n/a	n/a	n/a	n/a	n/a
994.958	n/a	REC_WORD	497479	wordpools/wasnorm_wordpool.txt	LTP074	ltpFR	14	5	0	WOLF	1619	n/a	1	n/a	n/a	n/a	n/a	n/a
996.622	n/a	REC_WORD	498311	wordpools/wasnorm_wordpool.txt	LTP074	ltpFR	14	5	1	BANDAGE	79	n/a	0	n/a	n/a	n/a	n/a	n/a
997.624	n/a	REC_WORD	498812	wordpools/wasnorm_wordpool.txt	LTP074	ltpFR	14	5	1	HAMMOCK	681	n/a	0	n/a	n/a	n/a	n/a	n/a
999.634	n/a	REC_WORD	499817	wordpools/wasnorm_wordpool.txt	LTP074	ltpFR	14	5	1	GOVERNOR	651	n/a	1	n/a	n/a	n/a	n/a	n/a
1000.17	n/a	REC_WORD	500085	wordpools/wasnorm_wordpool.txt	LTP074	ltpFR	14	5	0	HATCHET	691	n/a	0	n/a	n/a	n/a	n/a	n/a
1000.816	n/a	REC_WORD	500408	wordpools/wasnorm_wordpool.txt	LTP074	ltpFR	14	5	1	SURVEY	1414	n/a	1	n/a	n/a	n/a	n/a	n/a
1003.162	n/a	REC_WORD	501581	wordpools/wasnorm_wordpool.txt	LTP074	ltpFR	14	5	0	SQUIRREL	1362	n/a	0	n/a	n/a	n/a	n/a	n/a
1003.752	n/a	REC_WORD	501876	wordpools/wasnorm_wordpool.txt	LTP074	ltpFR	14	5	0	PREDATOR	1120	n/a	1	n/a	n/a	n/a	n/a	n/a
1004.298	n/a	REC_WORD	502149	wordpools/wasnorm_wordpool.txt	LTP074	ltpFR	14	5	0	CASHEW	253	n/a	0	n/a	n/a	n/a	n/a	n/a
1022.064	n/a	REC_WORD	511032	wordpools/wasnorm_wordpool.txt	LTP074	ltpFR	14	5	1	SURVEY	1414	n/a	1	n/a	n/a	n/a	n/a	n/a
1029.946	n/a	REC_WORD	514973	wordpools/wasnorm_wordpool.txt	LTP074	ltpFR	14	5	0	TRIBE	1505	n/a	1	n/a	n/a	n/a	n/a	n/a
1030.7	n/a	REC_WORD	515350	wordpools/wasnorm_wordpool.txt	LTP074	ltpFR	14	5	0	BED	110	n/a	1	n/a	n/a	n/a	n/a	n/a
1031.124	n/a	REC_WORD	515562	wordpools/wasnorm_wordpool.txt	LTP074	ltpFR	14	5	0	COWBOY	395	n/a	1	n/a	n/a	n/a	n/a	n/a
1161.668	n/a	WORD	580834	wordpools/wasnorm_wordpool.txt	LTP074	ltpFR	14	6	-1	CHAPEL	280	n/a	-1	1	1.0	1.0	upper	../fonts/Verdana.ttf
1165.744	n/a	WORD	582872	wordpools/wasnorm_wordpool.txt	LTP074	ltpFR	14	6	-1	WINE	1613	n/a	-1	1	1.0	1.0	upper	../fonts/Verdana.ttf
1169.762	n/a	WORD	584881	wordpools/wasnorm_wordpool.txt	LTP074	ltpFR	14	6	-1	MOAT	903	n/a	-1	1	1.0	1.0	upper	../fonts/Verdana.ttf
1173.912	n/a	WORD	586956	wordpools/wasnorm_wordpool.txt	LTP074	ltpFR	14	6	-1	TOE	1473	n/a	-1	1	1.0	1.0	upper	../fonts/Verdana.ttf
1177.794	n/a	WORD	588897	wordpools/wasnorm_wordpool.txt	LTP074	ltpFR	14	6	-1	COCKTAIL	338	n/a	-1	1	1.0	1.0	upper	../fonts/Verdana.ttf
1181.944	n/a	WORD	590972	wordpools/wasnorm_wordpool.txt	LTP074	ltpFR	14	6	-1	SCENERY	1247	n/a	-1	1	1.0	1.0	upper	../fonts/Verdana.ttf
1185.928	n/a	WORD	592964	wordpools/wasnorm_wordpool.txt	LTP074	ltpFR	14	6	-1	BUS	201	n/a	-1	1	1.0	1.0	upper	../fonts/Verdana.ttf
1189.836	n/a	WORD	594918	wordpools/wasnorm_wordpool.txt	LTP074	ltpFR	14	6	-1	PEAR	1033	n/a	-1	1	1.0	1.0	upper	../fonts/Verdana.ttf
1193.686	n/a	WORD	596843	wordpools/wasnorm_wordpool.txt	LTP074	ltpFR	14	6	-1	CACTUS	215	n/a	-1	1	1.0	1.0	upper	../fonts/Verdana.ttf
1197.776	n/a	WORD	598888	wordpools/wasnorm_wordpool.txt	LTP074	ltpFR	14	6	-1	BASKET	95	n/a	-1	1	1.0	1.0	upper	../fonts/Verdana.ttf
1201.794	n/a	WORD	600897	wordpools/wasnorm_wordpool.txt	LTP074	ltpFR	14	6	-1	COUCH	386	n/a	-1	1	1.0	1.0	upper	../fonts/Verdana.ttf
1205.776	n/a	WORD	602888	wordpools/wasnorm_wordpool.txt	LTP074	ltpFR	14	6	-1	BRIDGE	174	n/a	-1	1	1.0	1.0	upper	../fonts/Verdana.ttf
1209.718	n/a	WORD	604859	wordpools/wasnorm_wordpool.txt	LTP074	ltpFR	14	6	-1	CLERK	321	n/a	-1	1	1.0	1.0	upper	../fonts/Verdana.ttf
1213.844	n/a	WORD	606922	wordpools/wasnorm_wordpool.txt	LTP074	ltpFR	14	6	-1	TYPIST	1532	n/a	-1	1	1.0	1.0	upper	../fonts/Verdana.ttf
1217.978	n/a	WORD	608989	wordpools/wasnorm_wordpool.txt	LTP074	ltpFR	14	6	-1	CASTLE	256	n/a	-1	1	1.0	1.0	upper	../fonts/Verdana.ttf
1222.16	n/a	WORD	611080	wordpools/wasnorm_wordpool.txt	LTP074	ltpFR	14	6	-1	CHESS	294	n/a	-1	1	1.0	1.0	upper	../fonts/Verdana.ttf
1228.112	n/a	REC_START	614056	n/a	LTP074	ltpFR	14	6	n/a	n/a	n/a	n/a	n/a	n/a	n/a	n/a	n/a	n/a
1229.094	n/a	REC_WORD	614547	wordpools/wasnorm_wordpool.txt	LTP074	ltpFR	14	6	-1	CLERK	321	n/a	-1	n/a	n/a	n/a	n/a	n/a
1229.692	n/a	REC_WORD	614846	wordpools/wasnorm_wordpool.txt	LTP074	ltpFR	14	6	-1	TYPIST	1532	n/a	-1	n/a	n/a	n/a	n/a	n/a
1230.262	n/a	REC_WORD	615131	wordpools/wasnorm_wordpool.txt	LTP074	ltpFR	14	6	-1	CASTLE	256	n/a	-1	n/a	n/a	n/a	n/a	n/a
1230.856	n/a	REC_WORD	615428	wordpools/wasnorm_wordpool.txt	LTP074	ltpFR	14	6	n/a	CHEST	295	n/a	n/a	n/a	n/a	n/a	n/a	n/a
1231.738	n/a	REC_WORD	615869	wordpools/wasnorm_wordpool.txt	LTP074	ltpFR	14	6	-1	CHESS	294	n/a	-1	n/a	n/a	n/a	n/a	n/a
1234.208	n/a	REC_WORD	617104	wordpools/wasnorm_wordpool.txt	LTP074	ltpFR	14	6	-1	TOE	1473	n/a	-1	n/a	n/a	n/a	n/a	n/a
1234.866	n/a	REC_WORD	617433	wordpools/wasnorm_wordpool.txt	LTP074	ltpFR	14	6	-1	COCKTAIL	338	n/a	-1	n/a	n/a	n/a	n/a	n/a
1236.378	n/a	REC_WORD	618189	wordpools/wasnorm_wordpool.txt	LTP074	ltpFR	14	6	n/a	LANDSCAPE	799	n/a	n/a	n/a	n/a	n/a	n/a	n/a
1237.984	n/a	REC_WORD	618992	wordpools/wasnorm_wordpool.txt	LTP074	ltpFR	14	6	-1	SCENERY	1247	n/a	-1	n/a	n/a	n/a	n/a	n/a
1241.93	n/a	REC_WORD	620965	wordpools/wasnorm_wordpool.txt	LTP074	ltpFR	14	6	n/a	CHURCH	307	n/a	n/a	n/a	n/a	n/a	n/a	n/a
1242.898	n/a	REC_WORD	621449	wordpools/wasnorm_wordpool.txt	LTP074	ltpFR	14	6	-1	CHAPEL	280	n/a	-1	n/a	n/a	n/a	n/a	n/a
1244.11	n/a	REC_WORD	622055	wordpools/wasnorm_wordpool.txt	LTP074	ltpFR	14	6	-1	MOAT	903	n/a	-1	n/a	n/a	n/a	n/a	n/a
1245.288	n/a	REC_WORD	622644	wordpools/wasnorm_wordpool.txt	LTP074	ltpFR	14	6	-1	WINE	1613	n/a	-1	n/a	n/a	n/a	n/a	n/a
1254.144	n/a	REC_WORD	627072	wordpools/wasnorm_wordpool.txt	LTP074	ltpFR	14	6	-1	CHAPEL	280	n/a	-1	n/a	n/a	n/a	n/a	n/a
1256.168	n/a	REC_WORD	628084	wordpools/wasnorm_wordpool.txt	LTP074	ltpFR	14	6	-1	TOE	1473	n/a	-1	n/a	n/a	n/a	n/a	n/a
1261.426	n/a	REC_WORD	630713	wordpools/wasnorm_wordpool.txt	LTP074	ltpFR	14	6	-1	CASTLE	256	n/a	-1	n/a	n/a	n/a	n/a	n/a
1274.568	n/a	REC_WORD	637284	wordpools/wasnorm_wordpool.txt	LTP074	ltpFR	14	6	-1	CLERK	321	n/a	-1	n/a	n/a	n/a	n/a	n/a
1275.54	n/a	REC_WORD	637770	wordpools/wasnorm_wordpool.txt	LTP074	ltpFR	14	6	-1	TYPIST	1532	n/a	-1	n/a	n/a	n/a	n/a	n/a
1290.826	n/a	REC_WORD	645413	wordpools/wasnorm_wordpool.txt	LTP074	ltpFR	14	6	-1	BUS	201	n/a	-1	n/a	n/a	n/a	n/a	n/a
1291.53	n/a	REC_WORD	645765	wordpools/wasnorm_wordpool.txt	LTP074	ltpFR	14	6	-1	CACTUS	215	n/a	-1	n/a	n/a	n/a	n/a	n/a
1295.092	n/a	REC_WORD	647546	wordpools/wasnorm_wordpool.txt	LTP074	ltpFR	14	6	n/a	FRUIT	610	n/a	n/a	n/a	n/a	n/a	n/a	n/a
1296.074	n/a	REC_WORD	648037	wordpools/wasnorm_wordpool.txt	LTP074	ltpFR	14	6	-1	PEAR	1033	n/a	-1	n/a	n/a	n/a	n/a	n/a
1302.56	n/a	REC_WORD	651280	wordpools/wasnorm_wordpool.txt	LTP074	ltpFR	14	6	-1	BUS	201	n/a	-1	n/a	n/a	n/a	n/a	n/a
1308.448	n/a	WORD	654224	wordpools/wasnorm_wordpool.txt	LTP074	ltpFR	14	7	1	KITTEN	780	n/a	1	1	0.412841796875	0.57763671875	upper	../fonts/amplitud.ttf
1312.326	n/a	WORD	656163	wordpools/wasnorm_wordpool.txt	LTP074	ltpFR	14	7	1	PORTRAIT	1111	n/a	0	1	0.412841796875	0.57763671875	upper	../fonts/amplitud.ttf
1316.324	n/a	WORD	658162	wordpools/wasnorm_wordpool.txt	LTP074	ltpFR	14	7	1	SAPPHIRE	1234	n/a	0	1	0.412841796875	0.57763671875	upper	../fonts/amplitud.ttf
1320.506	n/a	WORD	660253	wordpools/wasnorm_wordpool.txt	LTP074	ltpFR	14	7	1	PISTON	1076	n/a	0	1	0.412841796875	0.57763671875	upper	../fonts/amplitud.ttf
1324.374	n/a	WORD	662187	wordpools/wasnorm_wordpool.txt	LTP074	ltpFR	14	7	1	CONVICT	371	n/a	1	1	0.412841796875	0.57763671875	upper	../fonts/amplitud.ttf
1328.298	n/a	WORD	664149	wordpools/wasnorm_wordpool.txt	LTP074	ltpFR	14	7	0	EMERALD	528	n/a	0	0	0.5869140625	0.422607421875	lower	../fonts/zerothre.ttf
1332.292	n/a	WORD	666146	wordpools/wasnorm_wordpool.txt	LTP074	ltpFR	14	7	0	FLAG	573	n/a	1	0	0.5869140625	0.422607421875	lower	../fonts/zerothre.ttf
1336.406	n/a	WORD	668203	wordpools/wasnorm_wordpool.txt	LTP074	ltpFR	14	7	0	RODENT	1204	n/a	0	0	0.5869140625	0.422607421875	lower	../fonts/zerothre.ttf
1340.266	n/a	WORD	670133	wordpools/wasnorm_wordpool.txt	LTP074	ltpFR	14	7	1	PLANE	1081	n/a	1	1	0.412841796875	0.57763671875	upper	../fonts/amplitud.ttf
1344.432	n/a	WORD	672216	wordpools/wasnorm_wordpool.txt	LTP074	ltpFR	14	7	1	LUGGAGE	847	n/a	0	1	0.412841796875	0.57763671875	upper	../fonts/amplitud.ttf
1348.306	n/a	WORD	674153	wordpools/wasnorm_wordpool.txt	LTP074	ltpFR	14	7	1	SHOWER	1296	n/a	0	1	0.412841796875	0.57763671875	upper	../fonts/amplitud.ttf
1352.506	n/a	WORD	676253	wordpools/wasnorm_wordpool.txt	LTP074	ltpFR	14	7	0	TOWEL	1489	n/a	0	0	0.5869140625	0.422607421875	lower	../fonts/zerothre.ttf
1356.464	n/a	WORD	678232	wordpools/wasnorm_wordpool.txt	LTP074	ltpFR	14	7	0	PAINTER	1004	n/a	0	0	0.5869140625	0.422607421875	lower	../fonts/zerothre.ttf
1360.548	n/a	WORD	680274	wordpools/wasnorm_wordpool.txt	LTP074	ltpFR	14	7	0	TRASH	1497	n/a	0	0	0.5869140625	0.422607421875	lower	../fonts/zerothre.ttf
1364.656	n/a	WORD	682328	wordpools/wasnorm_wordpool.txt	LTP074	ltpFR	14	7	0	ENEMY	534	n/a	1	0	0.5869140625	0.422607421875	lower	../fonts/zerothre.ttf
1368.798	n/a	WORD	684399	wordpools/wasnorm_wordpool.txt	LTP074	ltpFR	14	7	0	LOVER	846	n/a	1	0	0.5869140625	0.422607421875	lower	../fonts/zerothre.ttf
1374.866	n/a	REC_START	687433	n/a	LTP074	ltpFR	14	7	n/a	n/a	n/a	n/a	n/a	n/a	n/a	n/a	n/a	n/a
1375.384	n/a	REC_WORD	687692	wordpools/wasnorm_wordpool.txt	LTP074	ltpFR	14	7	0	PAINTER	1004	n/a	0	n/a	n/a	n/a	n/a	n/a
1375.968	n/a	REC_WORD	687984	wordpools/wasnorm_wordpool.txt	LTP074	ltpFR	14	7	0	ENEMY	534	n/a	1	n/a	n/a	n/a	n/a	n/a
1376.482	n/a	REC_WORD	688241	wordpools/wasnorm_wordpool.txt	LTP074	ltpFR	14	7	0	TRASH	1497	n/a	0	n/a	n/a	n/a	n/a	n/a
1377.924	n/a	REC_WORD	688962	wordpools/wasnorm_wordpool.txt	LTP074	ltpFR	14	7	0	LOVER	846	n/a	1	n/a	n/a	n/a	n/a	n/a
1379.664	n/a	REC_WORD	689832	wordpools/wasnorm_wordpool.txt	LTP074	ltpFR	14	7	1	LUGGAGE	847	n/a	0	n/a	n/a	n/a	n/a	n/a
1380.412	n/a	REC_WORD	690206	wordpools/wasnorm_wordpool.txt	LTP074	ltpFR	14	7	0	TOWEL	1489	n/a	0	n/a	n/a	n/a	n/a	n/a
1380.862	n/a	REC_WORD	690431	wordpools/wasnorm_wordpool.txt	LTP074	ltpFR	14	7	1	SHOWER	1296	n/a	0	n/a	n/a	n/a	n/a	n/a
1383.81	n/a	REC_WORD	691905	wordpools/wasnorm_wordpool.txt	LTP074	ltpFR	14	7	n/a	RAT	1169	n/a	n/a	n/a	n/a	n/a	n/a	n/a
1386.02	n/a	REC_WORD	693010	wordpools/wasnorm_wordpool.txt	LTP074	ltpFR	14	7	0	RODENT	1204	n/a	0	n/a	n/a	n/a	n/a	n/a
1387.84	n/a	REC_WORD	693920	wordpools/wasnorm_wordpool.txt	LTP074	ltpFR	14	7	n/a	RAT	1169	n/a	n/a	n/a	n/a	n/a	n/a	n/a
1389.492	n/a	REC_WORD	694746	wordpools/wasnorm_wordpool.txt	LTP074	ltpFR	14	7	1	PLANE	1081	n/a	1	n/a	n/a	n/a	n/a	n/a
1390.65	n/a	REC_WORD	695325	wordpools/wasnorm_wordpool.txt	LTP074	ltpFR	14	7	0	FLAG	573	n/a	1	n/a	n/a	n/a	n/a	n/a
1395.894	n/a	REC_WORD	697947	wordpools/wasnorm_wordpool.txt	LTP074	ltpFR	14	7	1	KITTEN	780	n/a	1	n/a	n/a	n/a	n/a	n/a
1396.646	n/a	REC_WORD	698323	wordpools/wasnorm_wordpool.txt	LTP074	ltpFR	14	7	1	SAPPHIRE	1234	n/a	0	n/a	n/a	n/a	n/a	n/a
1402.474	n/a	REC_WORD	701237	wordpools/wasnorm_wordpool.txt	LTP074	ltpFR	14	7	1	PORTRAIT	1111	n/a	0	n/a	n/a	n/a	n/a	n/a
1405.652	n/a	REC_WORD	702826	wordpools/wasnorm_wordpool.txt	LTP074	ltpFR	14	7	n/a	JEWEL	757	n/a	n/a	n/a	n/a	n/a	n/a	n/a
1409.548	n/a	REC_WORD	704774	wordpools/wasnorm_wordpool.txt	LTP074	ltpFR	14	7	0	EMERALD	528	n/a	0	n/a	n/a	n/a	n/a	n/a
1410.49	n/a	REC_WORD	705245	wordpools/wasnorm_wordpool.txt	LTP074	ltpFR	14	7	1	PISTON	1076	n/a	0	n/a	n/a	n/a	n/a	n/a
1412.132	n/a	REC_WORD	706066	wordpools/wasnorm_wordpool.txt	LTP074	ltpFR	14	7	1	CONVICT	371	n/a	1	n/a	n/a	n/a	n/a	n/a
1417.446	n/a	REC_WORD	708723	wordpools/wasnorm_wordpool.txt	LTP074	ltpFR	14	7	1	KITTEN	780	n/a	1	n/a	n/a	n/a	n/a	n/a
1418.572	n/a	REC_WORD	709286	wordpools/wasnorm_wordpool.txt	LTP074	ltpFR	14	7	1	CONVICT	371	n/a	1	n/a	n/a	n/a	n/a	n/a
1424.49	n/a	REC_WORD	712245	wordpools/wasnorm_wordpool.txt	LTP074	ltpFR	14	7	0	FLAG	573	n/a	1	n/a	n/a	n/a	n/a	n/a
1425.936	n/a	REC_WORD	712968	wordpools/wasnorm_wordpool.txt	LTP074	ltpFR	14	7	1	LUGGAGE	847	n/a	0	n/a	n/a	n/a	n/a	n/a
1429.344	n/a	REC_WORD_VV	714672	wordpools/wasnorm_wordpool.txt	LTP074	ltpFR	14	7	n/a	<>	-1	n/a	n/a	n/a	n/a	n/a	n/a	n/a
1460.62	n/a	WORD	730310	wordpools/wasnorm_wordpool.txt	LTP074	ltpFR	14	8	0	DIRECTOR	471	n/a	1	0	0.5869140625	0.422607421875	lower	../fonts/zerothre.ttf
1464.528	n/a	WORD	732264	wordpools/wasnorm_wordpool.txt	LTP074	ltpFR	14	8	0	TONGUE	1479	n/a	0	0	0.5869140625	0.422607421875	lower	../fonts/zerothre.ttf
1468.694	n/a	WORD	734347	wordpools/wasnorm_wordpool.txt	LTP074	ltpFR	14	8	0	ANIMAL	23	n/a	1	0	0.5869140625	0.422607421875	lower	../fonts/zerothre.ttf
1472.828	n/a	WORD	736414	wordpools/wasnorm_wordpool.txt	LTP074	ltpFR	14	8	0	SNAKE	1333	n/a	0	0	0.5869140625	0.422607421875	lower	../fonts/zerothre.ttf
1476.812	n/a	WORD	738406	wordpools/wasnorm_wordpool.txt	LTP074	ltpFR	14	8	0	WORKER	1621	n/a	1	0	0.5869140625	0.422607421875	lower	../fonts/zerothre.ttf
1481.02	n/a	WORD	740510	wordpools/wasnorm_wordpool.txt	LTP074	ltpFR	14	8	0	BOSS	152	n/a	1	0	0.5869140625	0.422607421875	lower	../fonts/zerothre.ttf
1484.92	n/a	WORD	742460	wordpools/wasnorm_wordpool.txt	LTP074	ltpFR	14	8	0	SUPERMARKET	1409	n/a	1	0	0.5869140625	0.422607421875	lower	../fonts/zerothre.ttf
1488.828	n/a	WORD	744414	wordpools/wasnorm_wordpool.txt	LTP074	ltpFR	14	8	0	TRIGGER	1507	n/a	1	0	0.5869140625	0.422607421875	lower	../fonts/zerothre.ttf
1492.97	n/a	WORD	746485	wordpools/wasnorm_wordpool.txt	LTP074	ltpFR	14	8	0	BUTLER	204	n/a	1	0	0.5869140625	0.422607421875	lower	../fonts/zerothre.ttf
1497.012	n/a	WORD	748506	wordpools/wasnorm_wordpool.txt	LTP074	ltpFR	14	8	0	GROCERY	664	n/a	1	0	0.5869140625	0.422607421875	lower	../fonts/zerothre.ttf
1501.078	n/a	WORD	750539	wordpools/wasnorm_wordpool.txt	LTP074	ltpFR	14	8	0	COMMUNITY	356	n/a	1	0	0.5869140625	0.422607421875	lower	../fonts/zerothre.ttf
1504.986	n/a	WORD	752493	wordpools/wasnorm_wordpool.txt	LTP074	ltpFR	14	8	0	CITY	314	n/a	1	0	0.5869140625	0.422607421875	lower	../fonts/zerothre.ttf
1509.036	n/a	WORD	754518	wordpools/wasnorm_wordpool.txt	LTP074	ltpFR	14	8	0	STAGE	1366	n/a	1	0	0.5869140625	0.422607421875	lower	../fonts/zerothre.ttf
1513.22	n/a	WORD	756610	wordpools/wasnorm_wordpool.txt	LTP074	ltpFR	14	8	0	CHARCOAL	281	n/a	0	0	0.5869140625	0.422607421875	lower	../fonts/zerothre.ttf
1517.052	n/a	WORD	758526	wordpools/wasnorm_wordpool.txt	LTP074	ltpFR	14	8	0	COWARD	394	n/a	1	0	0.5869140625	0.422607421875	lower	../fonts/zerothre.ttf
1521.036	n/a	WORD	760518	wordpools/wasnorm_wordpool.txt	LTP074	ltpFR	14	8	0	FILM	565	n/a	0	0	0.5869140625	0.422607421875	lower	../fonts/zerothre.ttf
1526.962	n/a	REC_START	763481	n/a	LTP074	ltpFR	14	8	n/a	n/a	n/a	n/a	n/a	n/a	n/a	n/a	n/a	n/a
1527.19	n/a	REC_WORD	763595	wordpools/wasnorm_wordpool.txt	LTP074	ltpFR	14	8	0	STAGE	1366	n/a	1	n/a	n/a	n/a	n/a	n/a
1528.006	n/a	REC_WORD	764003	wordpools/wasnorm_wordpool.txt	LTP074	ltpFR	14	8	0	CHARCOAL	281	n/a	0	n/a	n/a	n/a	n/a	n/a
1534.32	n/a	REC_WORD	767160	wordpools/wasnorm_wordpool.txt	LTP074	ltpFR	14	8	0	FILM	565	n/a	0	n/a	n/a	n/a	n/a	n/a
1537.214	n/a	REC_WORD	768607	wordpools/wasnorm_wordpool.txt	LTP074	ltpFR	14	8	0	DIRECTOR	471	n/a	1	n/a	n/a	n/a	n/a	n/a
1537.942	n/a	REC_WORD	768971	wordpools/wasnorm_wordpool.txt	LTP074	ltpFR	14	8	0	TONGUE	1479	n/a	0	n/a	n/a	n/a	n/a	n/a
1538.378	n/a	REC_WORD	769189	wordpools/wasnorm_wordpool.txt	LTP074	ltpFR	14	8	0	ANIMAL	23	n/a	1	n/a	n/a	n/a	n/a	n/a
1539.554	n/a	REC_WORD	769777	wordpools/wasnorm_wordpool.txt	LTP074	ltpFR	14	8	0	SNAKE	1333	n/a	0	n/a	n/a	n/a	n/a	n/a
1540.268	n/a	REC_WORD	770134	wordpools/wasnorm_wordpool.txt	LTP074	ltpFR	14	8	0	WORKER	1621	n/a	1	n/a	n/a	n/a	n/a	n/a
1540.776	n/a	REC_WORD	770388	wordpools/wasnorm_wordpool.txt	LTP074	ltpFR	14	8	0	BOSS	152	n/a	1	n/a	n/a	n/a	n/a	n/a
1542.526	n/a	REC_WORD	771263	wordpools/wasnorm_wordpool.txt	LTP074	ltpFR	14	8	0	BUTLER	204	n/a	1	n/a	n/a	n/a	n/a	n/a
1542.974	n/a	REC_WORD	771487	wordpools/wasnorm_wordpool.txt	LTP074	ltpFR	14	8	0	TRIGGER	1507	n/a	1	n/a	n/a	n/a	n/a	n/a
1543.418	n/a	REC_WORD	771709	wordpools/wasnorm_wordpool.txt	LTP074	ltpFR	14	8	0	SUPERMARKET	1409	n/a	1	n/a	n/a	n/a	n/a	n/a
1547.844	n/a	REC_WORD	773922	wordpools/wasnorm_wordpool.txt	LTP074	ltpFR	14	8	0	GROCERY	664	n/a	1	n/a	n/a	n/a	n/a	n/a
1548.378	n/a	REC_WORD	774189	wordpools/wasnorm_wordpool.txt	LTP074	ltpFR	14	8	0	COMMUNITY	356	n/a	1	n/a	n/a	n/a	n/a	n/a
1548.956	n/a	REC_WORD	774478	wordpools/wasnorm_wordpool.txt	LTP074	ltpFR	14	8	0	CITY	314	n/a	1	n/a	n/a	n/a	n/a	n/a
1549.606	n/a	REC_WORD	774803	wordpools/wasnorm_wordpool.txt	LTP074	ltpFR	14	8	0	STAGE	1366	n/a	1	n/a	n/a	n/a	n/a	n/a
1562.582	n/a	REC_WORD	781291	wordpools/wasnorm_wordpool.txt	LTP074	ltpFR	14	8	0	DIRECTOR	471	n/a	1	n/a	n/a	n/a	n/a	n/a
1564.074	n/a	REC_WORD	782037	wordpools/wasnorm_wordpool.txt	LTP074	ltpFR	14	8	0	SNAKE	1333	n/a	0	n/a	n/a	n/a	n/a	n/a
1570.234	n/a	REC_WORD	785117	wordpools/wasnorm_wordpool.txt	LTP074	ltpFR	14	8	0	BUTLER	204	n/a	1	n/a	n/a	n/a	n/a	n/a
1572.09	n/a	REC_WORD	786045	wordpools/wasnorm_wordpool.txt	LTP074	ltpFR	14	8	0	CITY	314	n/a	1	n/a	n/a	n/a	n/a	n/a
1576.136	n/a	REC_WORD	788068	wordpools/wasnorm_wordpool.txt	LTP074	ltpFR	14	8	0	STAGE	1366	n/a	1	n/a	n/a	n/a	n/a	n/a
1578.052	n/a	REC_WORD_VV	789026	wordpools/wasnorm_wordpool.txt	LTP074	ltpFR	14	8	n/a	<>	-1	n/a	n/a	n/a	n/a	n/a	n/a	n/a
1623.176	n/a	WORD	811588	wordpools/wasnorm_wordpool.txt	LTP074	ltpFR	14	9	0	ORGAN	984	n/a	0	0	0.5869140625	0.422607421875	lower	../fonts/zerothre.ttf
1627.208	n/a	WORD	813604	wordpools/wasnorm_wordpool.txt	LTP074	ltpFR	14	9	0	ABDOMEN	1	n/a	1	0	0.5869140625	0.422607421875	lower	../fonts/zerothre.ttf
1631.2	n/a	WORD	815600	wordpools/wasnorm_wordpool.txt	LTP074	ltpFR	14	9	1	LOOP	844	n/a	0	1	0.412841796875	0.57763671875	upper	../fonts/amplitud.ttf
1635.408	n/a	WORD	817704	wordpools/wasnorm_wordpool.txt	LTP074	ltpFR	14	9	1	SCARF	1246	n/a	0	1	0.412841796875	0.57763671875	upper	../fonts/amplitud.ttf
1639.59	n/a	WORD	819795	wordpools/wasnorm_wordpool.txt	LTP074	ltpFR	14	9	1	JUDGE	761	n/a	1	1	0.412841796875	0.57763671875	upper	../fonts/amplitud.ttf
1643.666	n/a	WORD	821833	wordpools/wasnorm_wordpool.txt	LTP074	ltpFR	14	9	1	PELT	1040	n/a	0	1	0.412841796875	0.57763671875	upper	../fonts/amplitud.ttf
1647.85	n/a	WORD	823925	wordpools/wasnorm_wordpool.txt	LTP074	ltpFR	14	9	0	RIDER	1191	n/a	1	0	0.5869140625	0.422607421875	lower	../fonts/zerothre.ttf
1651.824	n/a	WORD	825912	wordpools/wasnorm_wordpool.txt	LTP074	ltpFR	14	9	0	PONY	1102	n/a	1	0	0.5869140625	0.422607421875	lower	../fonts/zerothre.ttf
1655.706	n/a	WORD	827853	wordpools/wasnorm_wordpool.txt	LTP074	ltpFR	14	9	1	HORSE	719	n/a	1	1	0.412841796875	0.57763671875	upper	../fonts/amplitud.ttf
1659.772	n/a	WORD	829886	wordpools/wasnorm_wordpool.txt	LTP074	ltpFR	14	9	1	ALLEY	15	n/a	0	1	0.412841796875	0.57763671875	upper	../fonts/amplitud.ttf
1663.916	n/a	WORD	831958	wordpools/wasnorm_wordpool.txt	LTP074	ltpFR	14	9	1	LASER	801	n/a	0	1	0.412841796875	0.57763671875	upper	../fonts/amplitud.ttf
1667.848	n/a	WORD	833924	wordpools/wasnorm_wordpool.txt	LTP074	ltpFR	14	9	1	CABIN	211	n/a	0	1	0.412841796875	0.57763671875	upper	../fonts/amplitud.ttf
1671.78	n/a	WORD	835890	wordpools/wasnorm_wordpool.txt	LTP074	ltpFR	14	9	0	CARROT	249	n/a	0	0	0.5869140625	0.422607421875	lower	../fonts/zerothre.ttf
1675.948	n/a	WORD	837974	wordpools/wasnorm_wordpool.txt	LTP074	ltpFR	14	9	0	JUNGLE	764	n/a	1	0	0.5869140625	0.422607421875	lower	../fonts/zerothre.ttf
1679.832	n/a	WORD	839916	wordpools/wasnorm_wordpool.txt	LTP074	ltpFR	14	9	0	JURY	766	n/a	1	0	0.5869140625	0.422607421875	lower	../fonts/zerothre.ttf
1683.972	n/a	WORD	841986	wordpools/wasnorm_wordpool.txt	LTP074	ltpFR	14	9	0	SUIT	1402	n/a	0	0	0.5869140625	0.422607421875	lower	../fonts/zerothre.ttf
1689.958	n/a	REC_START	844979	n/a	LTP074	ltpFR	14	9	n/a	n/a	n/a	n/a	n/a	n/a	n/a	n/a	n/a	n/a
1690.66	n/a	REC_WORD	845330	wordpools/wasnorm_wordpool.txt	LTP074	ltpFR	14	9	0	CARROT	249	n/a	0	n/a	n/a	n/a	n/a	n/a
1691.21	n/a	REC_WORD	845605	wordpools/wasnorm_wordpool.txt	LTP074	ltpFR	14	9	0	JUNGLE	764	n/a	1	n/a	n/a	n/a	n/a	n/a
1691.928	n/a	REC_WORD	845964	wordpools/wasnorm_wordpool.txt	LTP074	ltpFR	14	9	0	JURY	766	n/a	1	n/a	n/a	n/a	n/a	n/a
1692.498	n/a	REC_WORD	846249	wordpools/wasnorm_wordpool.txt	LTP074	ltpFR	14	9	0	SUIT	1402	n/a	0	n/a	n/a	n/a	n/a	n/a
1693.33	n/a	REC_WORD	846665	wordpools/wasnorm_wordpool.txt	LTP074	ltpFR	14	9	1	ALLEY	15	n/a	0	n/a	n/a	n/a	n/a	n/a
1693.898	n/a	REC_WORD	846949	wordpools/wasnorm_wordpool.txt	LTP074	ltpFR	14	9	1	LASER	801	n/a	0	n/a	n/a	n/a	n/a	n/a
1694.692	n/a	REC_WORD	847346	wordpools/wasnorm_wordpool.txt	LTP074	ltpFR	14	9	1	CABIN	211	n/a	0	n/a	n/a	n/a	n/a	n/a
1701.94	n/a	REC_WORD_VV	850970	wordpools/wasnorm_wordpool.txt	LTP074	ltpFR	14	9	n/a	<>	-1	n/a	n/a	n/a	n/a	n/a	n/a	n/a
1702.356	n/a	REC_WORD_VV	851178	wordpools/wasnorm_wordpool.txt	LTP074	ltpFR	14	9	n/a	<>	-1	n/a	n/a	n/a	n/a	n/a	n/a	n/a
1708.282	n/a	REC_WORD	854141	wordpools/wasnorm_wordpool.txt	LTP074	ltpFR	14	9	0	PONY	1102	n/a	1	n/a	n/a	n/a	n/a	n/a
1708.744	n/a	REC_WORD	854372	wordpools/wasnorm_wordpool.txt	LTP074	ltpFR	14	9	0	RIDER	1191	n/a	1	n/a	n/a	n/a	n/a	n/a
1709.334	n/a	REC_WORD	854667	wordpools/wasnorm_wordpool.txt	LTP074	ltpFR	14	9	1	HORSE	719	n/a	1	n/a	n/a	n/a	n/a	n/a
1713.968	n/a	REC_WORD	856984	wordpools/wasnorm_wordpool.txt	LTP074	ltpFR	14	9	n/a	FIRST	-1	n/a	n/a	n/a	n/a	n/a	n/a	n/a
1714.582	n/a	REC_WORD	857291	wordpools/wasnorm_wordpool.txt	LTP074	ltpFR	14	9	n/a	TWO	-1	n/a	n/a	n/a	n/a	n/a	n/a	n/a
1726.86	n/a	REC_WORD	863430	wordpools/wasnorm_wordpool.txt	LTP074	ltpFR	14	9	n/a	FUR	615	n/a	n/a	n/a	n/a	n/a	n/a	n/a
1728.806	n/a	REC_WORD	864403	wordpools/wasnorm_wordpool.txt	LTP074	ltpFR	14	9	1	JUDGE	761	n/a	1	n/a	n/a	n/a	n/a	n/a
1729.524	n/a	REC_WORD	864762	wordpools/wasnorm_wordpool.txt	LTP074	ltpFR	14	9	1	PELT	1040	n/a	0	n/a	n/a	n/a	n/a	n/a
1730.832	n/a	REC_WORD	865416	wordpools/wasnorm_wordpool.txt	LTP074	ltpFR	14	9	1	SCARF	1246	n/a	0	n/a	n/a	n/a	n/a	n/a
1735.312	n/a	REC_WORD	867656	wordpools/wasnorm_wordpool.txt	LTP074	ltpFR	14	9	n/a	BOW	-1	n/a	n/a	n/a	n/a	n/a	n/a	n/a
1737.836	n/a	REC_WORD	868918	wordpools/wasnorm_wordpool.txt	LTP074	ltpFR	14	9	0	ABDOMEN	1	n/a	1	n/a	n/a	n/a	n/a	n/a
1739.148	n/a	REC_WORD	869574	wordpools/wasnorm_wordpool.txt	LTP074	ltpFR	14	9	0	ORGAN	984	n/a	0	n/a	n/a	n/a	n/a	n/a
1739.88	n/a	REC_WORD	869940	wordpools/wasnorm_wordpool.txt	LTP074	ltpFR	14	9	1	LOOP	844	n/a	0	n/a	n/a	n/a	n/a	n/a
1743.678	n/a	REC_WORD	871839	wordpools/wasnorm_wordpool.txt	LTP074	ltpFR	14	9	0	ABDOMEN	1	n/a	1	n/a	n/a	n/a	n/a	n/a
1744.152	n/a	REC_WORD_VV	872076	wordpools/wasnorm_wordpool.txt	LTP074	ltpFR	14	9	n/a	<>	-1	n/a	n/a	n/a	n/a	n/a	n/a	n/a
1746.326	n/a	REC_WORD	873163	wordpools/wasnorm_wordpool.txt	LTP074	ltpFR	14	9	1	JUDGE	761	n/a	1	n/a	n/a	n/a	n/a	n/a
1747.32	n/a	REC_WORD_VV	873660	wordpools/wasnorm_wordpool.txt	LTP074	ltpFR	14	9	n/a	<>	-1	n/a	n/a	n/a	n/a	n/a	n/a	n/a
1752.104	n/a	REC_WORD	876052	wordpools/wasnorm_wordpool.txt	LTP074	ltpFR	14	9	0	JUNGLE	764	n/a	1	n/a	n/a	n/a	n/a	n/a
1752.778	n/a	REC_WORD_VV	876389	wordpools/wasnorm_wordpool.txt	LTP074	ltpFR	14	9	n/a	<>	-1	n/a	n/a	n/a	n/a	n/a	n/a	n/a
1755.926	n/a	REC_WORD	877963	wordpools/wasnorm_wordpool.txt	LTP074	ltpFR	14	9	0	PONY	1102	n/a	1	n/a	n/a	n/a	n/a	n/a
1756.448	n/a	REC_WORD_VV	878224	wordpools/wasnorm_wordpool.txt	LTP074	ltpFR	14	9	n/a	<>	-1	n/a	n/a	n/a	n/a	n/a	n/a	n/a
1776.644	n/a	WORD	888322	wordpools/wasnorm_wordpool.txt	LTP074	ltpFR	14	10	0	CREVICE	405	n/a	0	0	0.5869140625	0.422607421875	lower	../fonts/zerothre.ttf
1780.536	n/a	WORD	890268	wordpools/wasnorm_wordpool.txt	LTP074	ltpFR	14	10	0	VIDEO	1564	n/a	0	0	0.5869140625	0.422607421875	lower	../fonts/zerothre.ttf
1784.728	n/a	WORD	892364	wordpools/wasnorm_wordpool.txt	LTP074	ltpFR	14	10	0	COTTAGE	384	n/a	1	0	0.5869140625	0.422607421875	lower	../fonts/zerothre.ttf
1788.736	n/a	WORD	894368	wordpools/wasnorm_wordpool.txt	LTP074	ltpFR	14	10	0	SHACK	1273	n/a	1	0	0.5869140625	0.422607421875	lower	../fonts/zerothre.ttf
1792.812	n/a	WORD	896406	wordpools/wasnorm_wordpool.txt	LTP074	ltpFR	14	10	0	DIRT	472	n/a	0	0	0.5869140625	0.422607421875	lower	../fonts/zerothre.ttf
1796.912	n/a	WORD	898456	wordpools/wasnorm_wordpool.txt	LTP074	ltpFR	14	10	0	CLAW	319	n/a	0	0	0.5869140625	0.422607421875	lower	../fonts/zerothre.ttf
1800.744	n/a	WORD	900372	wordpools/wasnorm_wordpool.txt	LTP074	ltpFR	14	10	0	CARTON	251	n/a	0	0	0.5869140625	0.422607421875	lower	../fonts/zerothre.ttf
1804.636	n/a	WORD	902318	wordpools/wasnorm_wordpool.txt	LTP074	ltpFR	14	10	0	PACKAGE	997	n/a	0	0	0.5869140625	0.422607421875	lower	../fonts/zerothre.ttf
1808.644	n/a	WORD	904322	wordpools/wasnorm_wordpool.txt	LTP074	ltpFR	14	10	0	ICE	730	n/a	0	0	0.5869140625	0.422607421875	lower	../fonts/zerothre.ttf
1812.778	n/a	WORD	906389	wordpools/wasnorm_wordpool.txt	LTP074	ltpFR	14	10	0	CREW	406	n/a	1	0	0.5869140625	0.422607421875	lower	../fonts/zerothre.ttf
1816.618	n/a	WORD	908309	wordpools/wasnorm_wordpool.txt	LTP074	ltpFR	14	10	0	ZEBRA	1635	n/a	1	0	0.5869140625	0.422607421875	lower	../fonts/zerothre.ttf
1820.636	n/a	WORD	910318	wordpools/wasnorm_wordpool.txt	LTP074	ltpFR	14	10	0	CUBE	420	n/a	0	0	0.5869140625	0.422607421875	lower	../fonts/zerothre.ttf
1824.684	n/a	WORD	912342	wordpools/wasnorm_wordpool.txt	LTP074	ltpFR	14	10	0	BOAT	144	n/a	1	0	0.5869140625	0.422607421875	lower	../fonts/zerothre.ttf
1828.81	n/a	WORD	914405	wordpools/wasnorm_wordpool.txt	LTP074	ltpFR	14	10	0	TYPEWRITER	1531	n/a	1	0	0.5869140625	0.422607421875	lower	../fonts/zerothre.ttf
1832.886	n/a	WORD	916443	wordpools/wasnorm_wordpool.txt	LTP074	ltpFR	14	10	0	POET	1095	n/a	1	0	0.5869140625	0.422607421875	lower	../fonts/zerothre.ttf
1836.86	n/a	WORD	918430	wordpools/wasnorm_wordpool.txt	LTP074	ltpFR	14	10	0	SKILLET	1317	n/a	0	0	0.5869140625	0.422607421875	lower	../fonts/zerothre.ttf
1842.494	n/a	REC_START	921247	n/a	LTP074	ltpFR	14	10	n/a	n/a	n/a	n/a	n/a	n/a	n/a	n/a	n/a	n/a
1843.172	n/a	REC_WORD	921586	wordpools/wasnorm_wordpool.txt	LTP074	ltpFR	14	10	0	POET	1095	n/a	1	n/a	n/a	n/a	n/a	n/a
1843.7	n/a	REC_WORD	921850	wordpools/wasnorm_wordpool.txt	LTP074	ltpFR	14	10	0	TYPEWRITER	1531	n/a	1	n/a	n/a	n/a	n/a	n/a
1846.214	n/a	REC_WORD	923107	wordpools/wasnorm_wordpool.txt	LTP074	ltpFR	14	10	0	BOAT	144	n/a	1	n/a	n/a	n/a	n/a	n/a
1846.658	n/a	REC_WORD	923329	wordpools/wasnorm_wordpool.txt	LTP074	ltpFR	14	10	0	SKILLET	1317	n/a	0	n/a	n/a	n/a	n/a	n/a
1848.44	n/a	REC_WORD	924220	wordpools/wasnorm_wordpool.txt	LTP074	ltpFR	14	10	0	VIDEO	1564	n/a	0	n/a	n/a	n/a	n/a	n/a
1849.412	n/a	REC_WORD	924706	wordpools/wasnorm_wordpool.txt	LTP074	ltpFR	14	10	0	CREVICE	405	n/a	0	n/a	n/a	n/a	n/a	n/a
1851.768	n/a	REC_WORD	925884	wordpools/wasnorm_wordpool.txt	LTP074	ltpFR	14	10	1	CABIN	211	n/a	0	n/a	n/a	n/a	n/a	n/a
1854.082	n/a	REC_WORD	927041	wordpools/wasnorm_wordpool.txt	LTP074	ltpFR	14	10	0	COTTAGE	384	n/a	1	n/a	n/a	n/a	n/a	n/a
1855.28	n/a	REC_WORD	927640	wordpools/wasnorm_wordpool.txt	LTP074	ltpFR	14	10	0	SHACK	1273	n/a	1	n/a	n/a	n/a	n/a	n/a
1856.058	n/a	REC_WORD	928029	wordpools/wasnorm_wordpool.txt	LTP074	ltpFR	14	10	0	DIRT	472	n/a	0	n/a	n/a	n/a	n/a	n/a
1856.592	n/a	REC_WORD	928296	wordpools/wasnorm_wordpool.txt	LTP074	ltpFR	14	10	0	CLAW	319	n/a	0	n/a	n/a	n/a	n/a	n/a
1861.136	n/a	REC_WORD_VV	930568	wordpools/wasnorm_wordpool.txt	LTP074	ltpFR	14	10	n/a	<>	-1	n/a	n/a	n/a	n/a	n/a	n/a	n/a
1861.872	n/a	REC_WORD_VV	930936	wordpools/wasnorm_wordpool.txt	LTP074	ltpFR	14	10	n/a	<>	-1	n/a	n/a	n/a	n/a	n/a	n/a	n/a
1862.014	n/a	REC_WORD_VV	931007	wordpools/wasnorm_wordpool.txt	LTP074	ltpFR	14	10	n/a	<>	-1	n/a	n/a	n/a	n/a	n/a	n/a	n/a
1874.668	n/a	REC_WORD	937334	wordpools/wasnorm_wordpool.txt	LTP074	ltpFR	14	10	0	SHACK	1273	n/a	1	n/a	n/a	n/a	n/a	n/a
1875.536	n/a	REC_WORD	937768	wordpools/wasnorm_wordpool.txt	LTP074	ltpFR	14	10	0	DIRT	472	n/a	0	n/a	n/a	n/a	n/a	n/a
1876.07	n/a	REC_WORD	938035	wordpools/wasnorm_wordpool.txt	LTP074	ltpFR	14	10	0	CLAW	319	n/a	0	n/a	n/a	n/a	n/a	n/a
1883.942	n/a	REC_WORD	941971	wordpools/wasnorm_wordpool.txt	LTP074	ltpFR	14	10	0	ZEBRA	1635	n/a	1	n/a	n/a	n/a	n/a	n/a
1885.508	n/a	REC_WORD	942754	wordpools/wasnorm_wordpool.txt	LTP074	ltpFR	14	10	0	ZEBRA	1635	n/a	1	n/a	n/a	n/a	n/a	n/a
1906.706	n/a	REC_WORD	953353	wordpools/wasnorm_wordpool.txt	LTP074	ltpFR	14	10	0	POET	1095	n/a	1	n/a	n/a	n/a	n/a	n/a
1914.608	n/a	REC_WORD	957304	wordpools/wasnorm_wordpool.txt	LTP074	ltpFR	14	10	0	PACKAGE	997	n/a	0	n/a	n/a	n/a	n/a	n/a
1915.92	n/a	REC_WORD	957960	wordpools/wasnorm_wordpool.txt	LTP074	ltpFR	14	10	0	ICE	730	n/a	0	n/a	n/a	n/a	n/a	n/a
1924.816	n/a	WORD	962408	wordpools/wasnorm_wordpool.txt	LTP074	ltpFR	14	11	1	COMET	353	n/a	2	1	0.412841796875	0.57763671875	upper	../fonts/amplitud.ttf
1925.782	n/a	KEY_MSG	962891	n/a	LTP074	ltpFR	14	11	n/a	n/a	n/a	n/a	n/a	n/a	n/a	n/a	n/a	n/a
1929.0	n/a	WORD	964500	wordpools/wasnorm_wordpool.txt	LTP074	ltpFR	14	11	1	SENATOR	1268	n/a	1	1	0.412841796875	0.57763671875	upper	../fonts/amplitud.ttf
1933.208	n/a	WORD	966604	wordpools/wasnorm_wordpool.txt	LTP074	ltpFR	14	11	1	FOLLOWER	589	n/a	1	1	0.412841796875	0.57763671875	upper	../fonts/amplitud.ttf
1937.308	n/a	WORD	968654	wordpools/wasnorm_wordpool.txt	LTP074	ltpFR	14	11	1	CAPTAIN	239	n/a	1	1	0.412841796875	0.57763671875	upper	../fonts/amplitud.ttf
1941.448	n/a	WORD	970724	wordpools/wasnorm_wordpool.txt	LTP074	ltpFR	14	11	1	WHISKERS	1605	n/a	0	1	0.412841796875	0.57763671875	upper	../fonts/amplitud.ttf
1945.332	n/a	WORD	972666	wordpools/wasnorm_wordpool.txt	LTP074	ltpFR	14	11	1	DIGGER	464	n/a	1	1	0.412841796875	0.57763671875	upper	../fonts/amplitud.ttf
1949.358	n/a	WORD	974679	wordpools/wasnorm_wordpool.txt	LTP074	ltpFR	14	11	1	SCULPTURE	1258	n/a	0	1	0.412841796875	0.57763671875	upper	../fonts/amplitud.ttf
1953.274	n/a	WORD	976637	wordpools/wasnorm_wordpool.txt	LTP074	ltpFR	14	11	1	IDOL	733	n/a	1	1	0.412841796875	0.57763671875	upper	../fonts/amplitud.ttf
1957.35	n/a	WORD	978675	wordpools/wasnorm_wordpool.txt	LTP074	ltpFR	14	11	1	LITERATURE	831	n/a	0	1	0.412841796875	0.57763671875	upper	../fonts/amplitud.ttf
1961.192	n/a	WORD	980596	wordpools/wasnorm_wordpool.txt	LTP074	ltpFR	14	11	1	APPLE	33	n/a	1	1	0.412841796875	0.57763671875	upper	../fonts/amplitud.ttf
1965.174	n/a	WORD	982587	wordpools/wasnorm_wordpool.txt	LTP074	ltpFR	14	11	1	TART	1436	n/a	0	1	0.412841796875	0.57763671875	upper	../fonts/amplitud.ttf
1969.124	n/a	WORD	984562	wordpools/wasnorm_wordpool.txt	LTP074	ltpFR	14	11	1	RASPBERRY	1168	n/a	1	1	0.412841796875	0.57763671875	upper	../fonts/amplitud.ttf
1972.974	n/a	WORD	986487	wordpools/wasnorm_wordpool.txt	LTP074	ltpFR	14	11	1	ORANGE	980	n/a	1	1	0.412841796875	0.57763671875	upper	../fonts/amplitud.ttf
1976.908	n/a	WORD	988454	wordpools/wasnorm_wordpool.txt	LTP074	ltpFR	14	11	1	OAR	966	n/a	0	1	0.412841796875	0.57763671875	upper	../fonts/amplitud.ttf
1981.024	n/a	WORD	990512	wordpools/wasnorm_wordpool.txt	LTP074	ltpFR	14	11	1	COIN	343	n/a	0	1	0.412841796875	0.57763671875	upper	../fonts/amplitud.ttf
1985.198	n/a	WORD	992599	wordpools/wasnorm_wordpool.txt	LTP074	ltpFR	14	11	1	FLESH	579	n/a	0	1	0.412841796875	0.57763671875	upper	../fonts/amplitud.ttf
1990.764	n/a	REC_START	995382	n/a	LTP074	ltpFR	14	11	n/a	n/a	n/a	n/a	n/a	n/a	n/a	n/a	n/a	n/a
1991.508	n/a	REC_WORD	995754	wordpools/wasnorm_wordpool.txt	LTP074	ltpFR	14	11	1	ORANGE	980	n/a	1	n/a	n/a	n/a	n/a	n/a
1992.046	n/a	REC_WORD	996023	wordpools/wasnorm_wordpool.txt	LTP074	ltpFR	14	11	1	OAR	966	n/a	0	n/a	n/a	n/a	n/a	n/a
1992.454	n/a	REC_WORD	996227	wordpools/wasnorm_wordpool.txt	LTP074	ltpFR	14	11	1	COIN	343	n/a	0	n/a	n/a	n/a	n/a	n/a
1992.874	n/a	REC_WORD	996437	wordpools/wasnorm_wordpool.txt	LTP074	ltpFR	14	11	1	FLESH	579	n/a	0	n/a	n/a	n/a	n/a	n/a
1993.718	n/a	REC_WORD	996859	wordpools/wasnorm_wordpool.txt	LTP074	ltpFR	14	11	1	APPLE	33	n/a	1	n/a	n/a	n/a	n/a	n/a
1994.206	n/a	REC_WORD	997103	wordpools/wasnorm_wordpool.txt	LTP074	ltpFR	14	11	1	RASPBERRY	1168	n/a	1	n/a	n/a	n/a	n/a	n/a
1994.944	n/a	REC_WORD	997472	wordpools/wasnorm_wordpool.txt	LTP074	ltpFR	14	11	1	TART	1436	n/a	0	n/a	n/a	n/a	n/a	n/a
1997.854	n/a	REC_WORD	998927	wordpools/wasnorm_wordpool.txt	LTP074	ltpFR	14	11	1	COMET	353	n/a	2	n/a	n/a	n/a	n/a	n/a
1999.042	n/a	REC_WORD	999521	wordpools/wasnorm_wordpool.txt	LTP074	ltpFR	14	11	1	GOVERNOR	651	n/a	1	n/a	n/a	n/a	n/a	n/a
1999.7	n/a	REC_WORD	999850	wordpools/wasnorm_wordpool.txt	LTP074	ltpFR	14	11	1	FOLLOWER	589	n/a	1	n/a	n/a	n/a	n/a	n/a
2000.592	n/a	REC_WORD	1000296	wordpools/wasnorm_wordpool.txt	LTP074	ltpFR	14	11	1	CAPTAIN	239	n/a	1	n/a	n/a	n/a	n/a	n/a
2001.136	n/a	REC_WORD	1000568	wordpools/wasnorm_wordpool.txt	LTP074	ltpFR	14	11	1	WHISKERS	1605	n/a	0	n/a	n/a	n/a	n/a	n/a
2001.766	n/a	REC_WORD	1000883	wordpools/wasnorm_wordpool.txt	LTP074	ltpFR	14	11	1	DIGGER	464	n/a	1	n/a	n/a	n/a	n/a	n/a
2005.816	n/a	REC_WORD_VV	1002908	wordpools/wasnorm_wordpool.txt	LTP074	ltpFR	14	11	n/a	<>	-1	n/a	n/a	n/a	n/a	n/a	n/a	n/a
2011.12	n/a	REC_WORD	1005560	wordpools/wasnorm_wordpool.txt	LTP074	ltpFR	14	11	1	COMET	353	n/a	2	n/a	n/a	n/a	n/a	n/a
2012.99	n/a	REC_WORD	1006495	wordpools/wasnorm_wordpool.txt	LTP074	ltpFR	14	11	1	WHISKERS	1605	n/a	0	n/a	n/a	n/a	n/a	n/a
2016.802	n/a	REC_WORD	1008401	wordpools/wasnorm_wordpool.txt	LTP074	ltpFR	14	11	1	RASPBERRY	1168	n/a	1	n/a	n/a	n/a	n/a	n/a
2018.224	n/a	REC_WORD	1009112	wordpools/wasnorm_wordpool.txt	LTP074	ltpFR	14	11	1	ORANGE	980	n/a	1	n/a	n/a	n/a	n/a	n/a
2038.454	n/a	REC_WORD	1019227	wordpools/wasnorm_wordpool.txt	LTP074	ltpFR	14	11	n/a	INBETWEEN	-1	n/a	n/a	n/a	n/a	n/a	n/a	n/a
2079.08	n/a	WORD	1039540	wordpools/wasnorm_wordpool.txt	LTP074	ltpFR	14	12	1	MAID	856	n/a	1	1	0.412841796875	0.57763671875	upper	../fonts/amplitud.ttf
2083.138	n/a	WORD	1041569	wordpools/wasnorm_wordpool.txt	LTP074	ltpFR	14	12	1	SCARECROW	1245	n/a	0	1	0.412841796875	0.57763671875	upper	../fonts/amplitud.ttf
2087.204	n/a	WORD	1043602	wordpools/wasnorm_wordpool.txt	LTP074	ltpFR	14	12	1	PUMPKIN	1142	n/a	1	1	0.412841796875	0.57763671875	upper	../fonts/amplitud.ttf
2091.404	n/a	WORD	1045702	wordpools/wasnorm_wordpool.txt	LTP074	ltpFR	14	12	1	TUBE	1516	n/a	0	1	0.412841796875	0.57763671875	upper	../fonts/amplitud.ttf
2095.444	n/a	WORD	1047722	wordpools/wasnorm_wordpool.txt	LTP074	ltpFR	14	12	1	TROUT	1511	n/a	1	1	0.412841796875	0.57763671875	upper	../fonts/amplitud.ttf
2099.51	n/a	WORD	1049755	wordpools/wasnorm_wordpool.txt	LTP074	ltpFR	14	12	1	MOTH	920	n/a	1	1	0.412841796875	0.57763671875	upper	../fonts/amplitud.ttf
2103.404	n/a	WORD	1051702	wordpools/wasnorm_wordpool.txt	LTP074	ltpFR	14	12	1	RAIL	1161	n/a	0	1	0.412841796875	0.57763671875	upper	../fonts/amplitud.ttf
2107.32	n/a	WORD	1053660	wordpools/wasnorm_wordpool.txt	LTP074	ltpFR	14	12	1	TRAIN	1494	n/a	0	1	0.412841796875	0.57763671875	upper	../fonts/amplitud.ttf
2111.212	n/a	WORD	1055606	wordpools/wasnorm_wordpool.txt	LTP074	ltpFR	14	12	1	NET	946	n/a	0	1	0.412841796875	0.57763671875	upper	../fonts/amplitud.ttf
2115.07	n/a	WORD	1057535	wordpools/wasnorm_wordpool.txt	LTP074	ltpFR	14	12	1	ANTENNA	28	n/a	0	1	0.412841796875	0.57763671875	upper	../fonts/amplitud.ttf
2119.17	n/a	WORD	1059585	wordpools/wasnorm_wordpool.txt	LTP074	ltpFR	14	12	1	REEF	1177	n/a	1	1	0.412841796875	0.57763671875	upper	../fonts/amplitud.ttf
2123.188	n/a	WORD	1061594	wordpools/wasnorm_wordpool.txt	LTP074	ltpFR	14	12	1	WATER	1594	n/a	0	1	0.412841796875	0.57763671875	upper	../fonts/amplitud.ttf
2127.236	n/a	WORD	1063618	wordpools/wasnorm_wordpool.txt	LTP074	ltpFR	14	12	1	SKELETON	1314	n/a	0	1	0.412841796875	0.57763671875	upper	../fonts/amplitud.ttf
2131.378	n/a	WORD	1065689	wordpools/wasnorm_wordpool.txt	LTP074	ltpFR	14	12	1	PILOT	1070	n/a	1	1	0.412841796875	0.57763671875	upper	../fonts/amplitud.ttf
2135.202	n/a	WORD	1067601	wordpools/wasnorm_wordpool.txt	LTP074	ltpFR	14	12	1	PARROT	1015	n/a	1	1	0.412841796875	0.57763671875	upper	../fonts/amplitud.ttf
2139.17	n/a	WORD	1069585	wordpools/wasnorm_wordpool.txt	LTP074	ltpFR	14	12	1	BUTTERFLY	206	n/a	1	1	0.412841796875	0.57763671875	upper	../fonts/amplitud.ttf
2145.038	n/a	REC_START	1072519	n/a	LTP074	ltpFR	14	12	n/a	n/a	n/a	n/a	n/a	n/a	n/a	n/a	n/a	n/a
2145.796	n/a	REC_WORD	1072898	wordpools/wasnorm_wordpool.txt	LTP074	ltpFR	14	12	1	SKELETON	1314	n/a	0	n/a	n/a	n/a	n/a	n/a
2146.718	n/a	REC_WORD	1073359	wordpools/wasnorm_wordpool.txt	LTP074	ltpFR	14	12	1	PILOT	1070	n/a	1	n/a	n/a	n/a	n/a	n/a
2148.59	n/a	REC_WORD	1074295	wordpools/wasnorm_wordpool.txt	LTP074	ltpFR	14	12	1	BUTTERFLY	206	n/a	1	n/a	n/a	n/a	n/a	n/a
2150.196	n/a	REC_WORD	1075098	wordpools/wasnorm_wordpool.txt	LTP074	ltpFR	14	12	1	MOTH	920	n/a	1	n/a	n/a	n/a	n/a	n/a
2150.82	n/a	REC_WORD	1075410	wordpools/wasnorm_wordpool.txt	LTP074	ltpFR	14	12	1	TUBE	1516	n/a	0	n/a	n/a	n/a	n/a	n/a
2151.392	n/a	REC_WORD	1075696	wordpools/wasnorm_wordpool.txt	LTP074	ltpFR	14	12	1	TROUT	1511	n/a	1	n/a	n/a	n/a	n/a	n/a
2153.168	n/a	REC_WORD	1076584	wordpools/wasnorm_wordpool.txt	LTP074	ltpFR	14	12	1	MAID	856	n/a	1	n/a	n/a	n/a	n/a	n/a
2153.792	n/a	REC_WORD	1076896	wordpools/wasnorm_wordpool.txt	LTP074	ltpFR	14	12	1	PUMPKIN	1142	n/a	1	n/a	n/a	n/a	n/a	n/a
2154.376	n/a	REC_WORD	1077188	wordpools/wasnorm_wordpool.txt	LTP074	ltpFR	14	12	1	SCARECROW	1245	n/a	0	n/a	n/a	n/a	n/a	n/a
2165.082	n/a	REC_WORD	1082541	wordpools/wasnorm_wordpool.txt	LTP074	ltpFR	14	12	1	MAID	856	n/a	1	n/a	n/a	n/a	n/a	n/a
2166.44	n/a	REC_WORD	1083220	wordpools/wasnorm_wordpool.txt	LTP074	ltpFR	14	12	1	TROUT	1511	n/a	1	n/a	n/a	n/a	n/a	n/a
2172.516	n/a	REC_WORD	1086258	wordpools/wasnorm_wordpool.txt	LTP074	ltpFR	14	12	n/a	SEA	1259	n/a	n/a	n/a	n/a	n/a	n/a	n/a
2173.852	n/a	REC_WORD	1086926	wordpools/wasnorm_wordpool.txt	LTP074	ltpFR	14	12	1	WATER	1594	n/a	0	n/a	n/a	n/a	n/a	n/a
2174.382	n/a	REC_WORD	1087191	wordpools/wasnorm_wordpool.txt	LTP074	ltpFR	14	12	1	REEF	1177	n/a	1	n/a	n/a	n/a	n/a	n/a
2174.84	n/a	REC_WORD	1087420	wordpools/wasnorm_wordpool.txt	LTP074	ltpFR	14	12	1	ANTENNA	28	n/a	0	n/a	n/a	n/a	n/a	n/a
2179.11	n/a	REC_WORD	1089555	wordpools/wasnorm_wordpool.txt	LTP074	ltpFR	14	12	1	MAID	856	n/a	1	n/a	n/a	n/a	n/a	n/a
2179.76	n/a	REC_WORD	1089880	wordpools/wasnorm_wordpool.txt	LTP074	ltpFR	14	12	1	TROUT	1511	n/a	1	n/a	n/a	n/a	n/a	n/a
2180.542	n/a	REC_WORD	1090271	wordpools/wasnorm_wordpool.txt	LTP074	ltpFR	14	12	1	REEF	1177	n/a	1	n/a	n/a	n/a	n/a	n/a
2189.742	n/a	REC_WORD	1094871	wordpools/wasnorm_wordpool.txt	LTP074	ltpFR	14	12	1	SKELETON	1314	n/a	0	n/a	n/a	n/a	n/a	n/a
2190.696	n/a	REC_WORD	1095348	wordpools/wasnorm_wordpool.txt	LTP074	ltpFR	14	12	1	PILOT	1070	n/a	1	n/a	n/a	n/a	n/a	n/a
2196.772	n/a	REC_WORD	1098386	wordpools/wasnorm_wordpool.txt	LTP074	ltpFR	14	12	1	PARROT	1015	n/a	1	n/a	n/a	n/a	n/a	n/a
2209.448	n/a	REC_WORD_VV	1104724	wordpools/wasnorm_wordpool.txt	LTP074	ltpFR	14	12	n/a	<>	-1	n/a	n/a	n/a	n/a	n/a	n/a	n/a
2210.098	n/a	REC_WORD_VV	1105049	wordpools/wasnorm_wordpool.txt	LTP074	ltpFR	14	12	n/a	<>	-1	n/a	n/a	n/a	n/a	n/a	n/a	n/a
2220.65	n/a	REST_REWET	1110325	n/a	LTP074	ltpFR	14	12	n/a	n/a	n/a	n/a	n/a	n/a	n/a	n/a	n/a	n/a
2548.408	n/a	WORD	1274204	wordpools/wasnorm_wordpool.txt	LTP074	ltpFR	14	13	1	GARLIC	624	n/a	0	1	0.412841796875	0.57763671875	upper	../fonts/amplitud.ttf
2552.25	n/a	WORD	1276125	wordpools/wasnorm_wordpool.txt	LTP074	ltpFR	14	13	1	TWIG	1527	n/a	0	1	0.412841796875	0.57763671875	upper	../fonts/amplitud.ttf
2556.25	n/a	WORD	1278125	wordpools/wasnorm_wordpool.txt	LTP074	ltpFR	14	13	1	TRANSPLANT	1496	n/a	0	1	0.412841796875	0.57763671875	upper	../fonts/amplitud.ttf
2560.242	n/a	WORD	1280121	wordpools/wasnorm_wordpool.txt	LTP074	ltpFR	14	13	0	MOTOR	922	n/a	0	0	0.5869140625	0.422607421875	lower	../fonts/zerothre.ttf
2564.326	n/a	WORD	1282163	wordpools/wasnorm_wordpool.txt	LTP074	ltpFR	14	13	0	VIOLA	1570	n/a	1	0	0.5869140625	0.422607421875	lower	../fonts/zerothre.ttf
2568.392	n/a	WORD	1284196	wordpools/wasnorm_wordpool.txt	LTP074	ltpFR	14	13	0	LOLLIPOP	842	n/a	0	0	0.5869140625	0.422607421875	lower	../fonts/zerothre.ttf
2572.498	n/a	WORD	1286249	wordpools/wasnorm_wordpool.txt	LTP074	ltpFR	14	13	0	PILL	1068	n/a	0	0	0.5869140625	0.422607421875	lower	../fonts/zerothre.ttf
2576.64	n/a	WORD	1288320	wordpools/wasnorm_wordpool.txt	LTP074	ltpFR	14	13	1	BRUNETTE	181	n/a	0	1	0.412841796875	0.57763671875	upper	../fonts/amplitud.ttf
2580.558	n/a	WORD	1290279	wordpools/wasnorm_wordpool.txt	LTP074	ltpFR	14	13	1	LAGOON	795	n/a	0	1	0.412841796875	0.57763671875	upper	../fonts/amplitud.ttf
2584.658	n/a	WORD	1292329	wordpools/wasnorm_wordpool.txt	LTP074	ltpFR	14	13	0	STREAM	1392	n/a	1	0	0.5869140625	0.422607421875	lower	../fonts/zerothre.ttf
2588.64	n/a	WORD	1294320	wordpools/wasnorm_wordpool.txt	LTP074	ltpFR	14	13	0	ATTIC	56	n/a	1	0	0.5869140625	0.422607421875	lower	../fonts/zerothre.ttf
2592.74	n/a	WORD	1296370	wordpools/wasnorm_wordpool.txt	LTP074	ltpFR	14	13	0	OWNER	993	n/a	1	0	0.5869140625	0.422607421875	lower	../fonts/zerothre.ttf
2596.848	n/a	WORD	1298424	wordpools/wasnorm_wordpool.txt	LTP074	ltpFR	14	13	0	HARP	689	n/a	1	0	0.5869140625	0.422607421875	lower	../fonts/zerothre.ttf
2600.824	n/a	WORD	1300412	wordpools/wasnorm_wordpool.txt	LTP074	ltpFR	14	13	1	MAPLE	866	n/a	0	1	0.412841796875	0.57763671875	upper	../fonts/amplitud.ttf
2604.958	n/a	WORD	1302479	wordpools/wasnorm_wordpool.txt	LTP074	ltpFR	14	13	1	KANGAROO	768	n/a	1	1	0.412841796875	0.57763671875	upper	../fonts/amplitud.ttf
2608.908	n/a	WORD	1304454	wordpools/wasnorm_wordpool.txt	LTP074	ltpFR	14	13	1	PURSE	1145	n/a	0	1	0.412841796875	0.57763671875	upper	../fonts/amplitud.ttf
2614.95	n/a	REC_START	1307475	n/a	LTP074	ltpFR	14	13	n/a	n/a	n/a	n/a	n/a	n/a	n/a	n/a	n/a	n/a
2615.378	n/a	REC_WORD	1307689	wordpools/wasnorm_wordpool.txt	LTP074	ltpFR	14	13	1	MAPLE	866	n/a	0	n/a	n/a	n/a	n/a	n/a
2615.994	n/a	REC_WORD	1307997	wordpools/wasnorm_wordpool.txt	LTP074	ltpFR	14	13	1	KANGAROO	768	n/a	1	n/a	n/a	n/a	n/a	n/a
2616.732	n/a	REC_WORD	1308366	wordpools/wasnorm_wordpool.txt	LTP074	ltpFR	14	13	0	HARP	689	n/a	1	n/a	n/a	n/a	n/a	n/a
2617.544	n/a	REC_WORD	1308772	wordpools/wasnorm_wordpool.txt	LTP074	ltpFR	14	13	1	PURSE	1145	n/a	0	n/a	n/a	n/a	n/a	n/a
2619.02	n/a	REC_WORD	1309510	wordpools/wasnorm_wordpool.txt	LTP074	ltpFR	14	13	0	MOTOR	922	n/a	0	n/a	n/a	n/a	n/a	n/a
2620.112	n/a	REC_WORD	1310056	wordpools/wasnorm_wordpool.txt	LTP074	ltpFR	14	13	0	LOLLIPOP	842	n/a	0	n/a	n/a	n/a	n/a	n/a
2621.076	n/a	REC_WORD	1310538	wordpools/wasnorm_wordpool.txt	LTP074	ltpFR	14	13	0	VIOLA	1570	n/a	1	n/a	n/a	n/a	n/a	n/a
2624.568	n/a	REC_WORD	1312284	wordpools/wasnorm_wordpool.txt	LTP074	ltpFR	14	13	1	BRUNETTE	181	n/a	0	n/a	n/a	n/a	n/a	n/a
2625.396	n/a	REC_WORD	1312698	wordpools/wasnorm_wordpool.txt	LTP074	ltpFR	14	13	1	LAGOON	795	n/a	0	n/a	n/a	n/a	n/a	n/a
2626.26	n/a	REC_WORD	1313130	wordpools/wasnorm_wordpool.txt	LTP074	ltpFR	14	13	0	PILL	1068	n/a	0	n/a	n/a	n/a	n/a	n/a
2629.502	n/a	REC_WORD	1314751	wordpools/wasnorm_wordpool.txt	LTP074	ltpFR	14	13	1	BRUNETTE	181	n/a	0	n/a	n/a	n/a	n/a	n/a
2630.5	n/a	REC_WORD	1315250	wordpools/wasnorm_wordpool.txt	LTP074	ltpFR	14	13	1	LAGOON	795	n/a	0	n/a	n/a	n/a	n/a	n/a
2631.698	n/a	REC_WORD	1315849	wordpools/wasnorm_wordpool.txt	LTP074	ltpFR	14	13	0	PILL	1068	n/a	0	n/a	n/a	n/a	n/a	n/a
2637.066	n/a	REC_WORD	1318533	wordpools/wasnorm_wordpool.txt	LTP074	ltpFR	14	13	0	OWNER	993	n/a	1	n/a	n/a	n/a	n/a	n/a
2638.158	n/a	REC_WORD	1319079	wordpools/wasnorm_wordpool.txt	LTP074	ltpFR	14	13	0	OWNER	993	n/a	1	n/a	n/a	n/a	n/a	n/a
2639.446	n/a	REC_WORD	1319723	wordpools/wasnorm_wordpool.txt	LTP074	ltpFR	14	13	0	STREAM	1392	n/a	1	n/a	n/a	n/a	n/a	n/a
2640.354	n/a	REC_WORD	1320177	wordpools/wasnorm_wordpool.txt	LTP074	ltpFR	14	13	0	ATTIC	56	n/a	1	n/a	n/a	n/a	n/a	n/a
2642.604	n/a	REC_WORD	1321302	wordpools/wasnorm_wordpool.txt	LTP074	ltpFR	14	13	0	LOLLIPOP	842	n/a	0	n/a	n/a	n/a	n/a	n/a
2644.464	n/a	REC_WORD	1322232	wordpools/wasnorm_wordpool.txt	LTP074	ltpFR	14	13	0	OWNER	993	n/a	1	n/a	n/a	n/a	n/a	n/a
2646.08	n/a	REC_WORD	1323040	wordpools/wasnorm_wordpool.txt	LTP074	ltpFR	14	13	0	PILL	1068	n/a	0	n/a	n/a	n/a	n/a	n/a
2647.816	n/a	REC_WORD	1323908	wordpools/wasnorm_wordpool.txt	LTP074	ltpFR	14	13	1	LAGOON	795	n/a	0	n/a	n/a	n/a	n/a	n/a
2654.546	n/a	REC_WORD_VV	1327273	wordpools/wasnorm_wordpool.txt	LTP074	ltpFR	14	13	n/a	<>	-1	n/a	n/a	n/a	n/a	n/a	n/a	n/a
2661.466	n/a	REC_WORD_VV	1330733	wordpools/wasnorm_wordpool.txt	LTP074	ltpFR	14	13	n/a	<>	-1	n/a	n/a	n/a	n/a	n/a	n/a	n/a
2668.43	n/a	REC_WORD_VV	1334215	wordpools/wasnorm_wordpool.txt	LTP074	ltpFR	14	13	n/a	<>	-1	n/a	n/a	n/a	n/a	n/a	n/a	n/a
2671.878	n/a	REC_WORD	1335939	wordpools/wasnorm_wordpool.txt	LTP074	ltpFR	14	13	1	GARLIC	624	n/a	0	n/a	n/a	n/a	n/a	n/a
2672.596	n/a	REC_WORD	1336298	wordpools/wasnorm_wordpool.txt	LTP074	ltpFR	14	13	1	TWIG	1527	n/a	0	n/a	n/a	n/a	n/a	n/a
2673.3	n/a	REC_WORD	1336650	wordpools/wasnorm_wordpool.txt	LTP074	ltpFR	14	13	1	TRANSPLANT	1496	n/a	0	n/a	n/a	n/a	n/a	n/a
2699.172	n/a	WORD	1349586	wordpools/wasnorm_wordpool.txt	LTP074	ltpFR	14	14	0	LUNG	850	n/a	0	0	0.5869140625	0.422607421875	lower	../fonts/zerothre.ttf
2703.188	n/a	WORD	1351594	wordpools/wasnorm_wordpool.txt	LTP074	ltpFR	14	14	0	GARAGE	621	n/a	1	0	0.5869140625	0.422607421875	lower	../fonts/zerothre.ttf
2707.022	n/a	WORD	1353511	wordpools/wasnorm_wordpool.txt	LTP074	ltpFR	14	14	0	THICKET	1455	n/a	1	0	0.5869140625	0.422607421875	lower	../fonts/zerothre.ttf
2711.022	n/a	WORD	1355511	wordpools/wasnorm_wordpool.txt	LTP074	ltpFR	14	14	0	LANDSCAPE	799	n/a	1	0	0.5869140625	0.422607421875	lower	../fonts/zerothre.ttf
2714.846	n/a	WORD	1357423	wordpools/wasnorm_wordpool.txt	LTP074	ltpFR	14	14	0	CLAY	320	n/a	0	0	0.5869140625	0.422607421875	lower	../fonts/zerothre.ttf
2718.938	n/a	WORD	1359469	wordpools/wasnorm_wordpool.txt	LTP074	ltpFR	14	14	0	ATMOSPHERE	54	n/a	1	0	0.5869140625	0.422607421875	lower	../fonts/zerothre.ttf
2723.02	n/a	WORD	1361510	wordpools/wasnorm_wordpool.txt	LTP074	ltpFR	14	14	0	BROCCOLI	176	n/a	0	0	0.5869140625	0.422607421875	lower	../fonts/zerothre.ttf
2727.112	n/a	WORD	1363556	wordpools/wasnorm_wordpool.txt	LTP074	ltpFR	14	14	0	CAFE	216	n/a	1	0	0.5869140625	0.422607421875	lower	../fonts/zerothre.ttf
2731.254	n/a	WORD	1365627	wordpools/wasnorm_wordpool.txt	LTP074	ltpFR	14	14	0	RICE	1190	n/a	0	0	0.5869140625	0.422607421875	lower	../fonts/zerothre.ttf
2735.146	n/a	WORD	1367573	wordpools/wasnorm_wordpool.txt	LTP074	ltpFR	14	14	0	WASHER	1592	n/a	1	0	0.5869140625	0.422607421875	lower	../fonts/zerothre.ttf
2739.286	n/a	WORD	1369643	wordpools/wasnorm_wordpool.txt	LTP074	ltpFR	14	14	0	TRIANGLE	1504	n/a	0	0	0.5869140625	0.422607421875	lower	../fonts/zerothre.ttf
2743.286	n/a	WORD	1371643	wordpools/wasnorm_wordpool.txt	LTP074	ltpFR	14	14	0	COMPANION	357	n/a	1	0	0.5869140625	0.422607421875	lower	../fonts/zerothre.ttf
2747.412	n/a	WORD	1373706	wordpools/wasnorm_wordpool.txt	LTP074	ltpFR	14	14	0	VISITOR	1573	n/a	1	0	0.5869140625	0.422607421875	lower	../fonts/zerothre.ttf
2751.612	n/a	WORD	1375806	wordpools/wasnorm_wordpool.txt	LTP074	ltpFR	14	14	0	EXPERT	543	n/a	1	0	0.5869140625	0.422607421875	lower	../fonts/zerothre.ttf
2755.686	n/a	WORD	1377843	wordpools/wasnorm_wordpool.txt	LTP074	ltpFR	14	14	0	FREEWAY	603	n/a	0	0	0.5869140625	0.422607421875	lower	../fonts/zerothre.ttf
2759.552	n/a	WORD	1379776	wordpools/wasnorm_wordpool.txt	LTP074	ltpFR	14	14	0	LIME	823	n/a	0	0	0.5869140625	0.422607421875	lower	../fonts/zerothre.ttf
2765.22	n/a	REC_START	1382610	n/a	LTP074	ltpFR	14	14	n/a	n/a	n/a	n/a	n/a	n/a	n/a	n/a	n/a	n/a
2765.7	n/a	REC_WORD	1382850	wordpools/wasnorm_wordpool.txt	LTP074	ltpFR	14	14	0	EXPERT	543	n/a	1	n/a	n/a	n/a	n/a	n/a
2766.272	n/a	REC_WORD	1383136	wordpools/wasnorm_wordpool.txt	LTP074	ltpFR	14	14	0	VISITOR	1573	n/a	1	n/a	n/a	n/a	n/a	n/a
2766.85	n/a	REC_WORD	1383425	wordpools/wasnorm_wordpool.txt	LTP074	ltpFR	14	14	0	FREEWAY	603	n/a	0	n/a	n/a	n/a	n/a	n/a
2767.652	n/a	REC_WORD	1383826	wordpools/wasnorm_wordpool.txt	LTP074	ltpFR	14	14	0	LIME	823	n/a	0	n/a	n/a	n/a	n/a	n/a
2768.668	n/a	REC_WORD	1384334	wordpools/wasnorm_wordpool.txt	LTP074	ltpFR	14	14	0	GARAGE	621	n/a	1	n/a	n/a	n/a	n/a	n/a
2769.462	n/a	REC_WORD	1384731	wordpools/wasnorm_wordpool.txt	LTP074	ltpFR	14	14	0	LUNG	850	n/a	0	n/a	n/a	n/a	n/a	n/a
2770.02	n/a	REC_WORD	1385010	wordpools/wasnorm_wordpool.txt	LTP074	ltpFR	14	14	0	THICKET	1455	n/a	1	n/a	n/a	n/a	n/a	n/a
2771.278	n/a	REC_WORD	1385639	wordpools/wasnorm_wordpool.txt	LTP074	ltpFR	14	14	0	LANDSCAPE	799	n/a	1	n/a	n/a	n/a	n/a	n/a
2772.196	n/a	REC_WORD	1386098	wordpools/wasnorm_wordpool.txt	LTP074	ltpFR	14	14	0	CLAY	320	n/a	0	n/a	n/a	n/a	n/a	n/a
2772.928	n/a	REC_WORD	1386464	wordpools/wasnorm_wordpool.txt	LTP074	ltpFR	14	14	0	ATMOSPHERE	54	n/a	1	n/a	n/a	n/a	n/a	n/a
2787.426	n/a	REC_WORD	1393713	wordpools/wasnorm_wordpool.txt	LTP074	ltpFR	14	14	0	FREEWAY	603	n/a	0	n/a	n/a	n/a	n/a	n/a
2792.36	n/a	REC_WORD	1396180	wordpools/wasnorm_wordpool.txt	LTP074	ltpFR	14	14	n/a	BAKER	71	n/a	n/a	n/a	n/a	n/a	n/a	n/a
2795.932	n/a	REC_WORD	1397966	wordpools/wasnorm_wordpool.txt	LTP074	ltpFR	14	14	0	FREEWAY	603	n/a	0	n/a	n/a	n/a	n/a	n/a
2805.44	n/a	REC_WORD	1402720	wordpools/wasnorm_wordpool.txt	LTP074	ltpFR	14	14	n/a	PARTNER	1017	n/a	n/a	n/a	n/a	n/a	n/a	n/a
2810.28	n/a	REC_WORD	1405140	wordpools/wasnorm_wordpool.txt	LTP074	ltpFR	14	14	0	FREEWAY	603	n/a	0	n/a	n/a	n/a	n/a	n/a
2818.626	n/a	REC_WORD	1409313	wordpools/wasnorm_wordpool.txt	LTP074	ltpFR	14	14	0	WASHER	1592	n/a	1	n/a	n/a	n/a	n/a	n/a
2819.296	n/a	REC_WORD	1409648	wordpools/wasnorm_wordpool.txt	LTP074	ltpFR	14	14	0	TRIANGLE	1504	n/a	0	n/a	n/a	n/a	n/a	n/a
2822.778	n/a	REC_WORD	1411389	wordpools/wasnorm_wordpool.txt	LTP074	ltpFR	14	14	0	WASHER	1592	n/a	1	n/a	n/a	n/a	n/a	n/a
2824.444	n/a	REC_WORD	1412222	wordpools/wasnorm_wordpool.txt	LTP074	ltpFR	14	14	0	EXPERT	543	n/a	1	n/a	n/a	n/a	n/a	n/a
2827.502	n/a	REC_WORD	1413751	wordpools/wasnorm_wordpool.txt	LTP074	ltpFR	14	14	0	LUNG	850	n/a	0	n/a	n/a	n/a	n/a	n/a
2839.076	n/a	REC_WORD	1419538	wordpools/wasnorm_wordpool.txt	LTP074	ltpFR	14	14	0	ATMOSPHERE	54	n/a	1	n/a	n/a	n/a	n/a	n/a
2846.892	n/a	WORD	1423446	wordpools/wasnorm_wordpool.txt	LTP074	ltpFR	14	15	1	ROOSTER	1209	n/a	1	1	0.412841796875	0.57763671875	upper	../fonts/amplitud.ttf
2850.858	n/a	WORD	1425429	wordpools/wasnorm_wordpool.txt	LTP074	ltpFR	14	15	1	PLIERS	1089	n/a	0	1	0.412841796875	0.57763671875	upper	../fonts/amplitud.ttf
2854.816	n/a	WORD	1427408	wordpools/wasnorm_wordpool.txt	LTP074	ltpFR	14	15	1	UTENSIL	1542	n/a	0	1	0.412841796875	0.57763671875	upper	../fonts/amplitud.ttf
2858.984	n/a	WORD	1429492	wordpools/wasnorm_wordpool.txt	LTP074	ltpFR	14	15	1	RADISH	1158	n/a	1	1	0.412841796875	0.57763671875	upper	../fonts/amplitud.ttf
2863.058	n/a	WORD	1431529	wordpools/wasnorm_wordpool.txt	LTP074	ltpFR	14	15	1	BREAST	171	n/a	0	1	0.412841796875	0.57763671875	upper	../fonts/amplitud.ttf
2867.042	n/a	WORD	1433521	wordpools/wasnorm_wordpool.txt	LTP074	ltpFR	14	15	1	SHOE	1288	n/a	0	1	0.412841796875	0.57763671875	upper	../fonts/amplitud.ttf
2871.184	n/a	WORD	1435592	wordpools/wasnorm_wordpool.txt	LTP074	ltpFR	14	15	1	ASSISTANT	48	n/a	1	1	0.412841796875	0.57763671875	upper	../fonts/amplitud.ttf
2875.108	n/a	WORD	1437554	wordpools/wasnorm_wordpool.txt	LTP074	ltpFR	14	15	1	TEACHER	1440	n/a	1	1	0.412841796875	0.57763671875	upper	../fonts/amplitud.ttf
2879.0	n/a	WORD	1439500	wordpools/wasnorm_wordpool.txt	LTP074	ltpFR	14	15	1	MUFFIN	929	n/a	0	1	0.412841796875	0.57763671875	upper	../fonts/amplitud.ttf
2883.042	n/a	WORD	1441521	wordpools/wasnorm_wordpool.txt	LTP074	ltpFR	14	15	1	BISCUIT	130	n/a	0	1	0.412841796875	0.57763671875	upper	../fonts/amplitud.ttf
2886.874	n/a	WORD	1443437	wordpools/wasnorm_wordpool.txt	LTP074	ltpFR	14	15	1	NITROGEN	954	n/a	0	1	0.412841796875	0.57763671875	upper	../fonts/amplitud.ttf
2890.982	n/a	WORD	1445491	wordpools/wasnorm_wordpool.txt	LTP074	ltpFR	14	15	1	PANTHER	1009	n/a	1	1	0.412841796875	0.57763671875	upper	../fonts/amplitud.ttf
2894.942	n/a	WORD	1447471	wordpools/wasnorm_wordpool.txt	LTP074	ltpFR	14	15	1	PASSAGE	1019	n/a	0	1	0.412841796875	0.57763671875	upper	../fonts/amplitud.ttf
2898.958	n/a	WORD	1449479	wordpools/wasnorm_wordpool.txt	LTP074	ltpFR	14	15	1	ONION	977	n/a	0	1	0.412841796875	0.57763671875	upper	../fonts/amplitud.ttf
2903.016	n/a	WORD	1451508	wordpools/wasnorm_wordpool.txt	LTP074	ltpFR	14	15	1	ROSE	1212	n/a	1	1	0.412841796875	0.57763671875	upper	../fonts/amplitud.ttf
2907.15	n/a	WORD	1453575	wordpools/wasnorm_wordpool.txt	LTP074	ltpFR	14	15	1	AUTHOR	61	n/a	1	1	0.412841796875	0.57763671875	upper	../fonts/amplitud.ttf
2912.774	n/a	REC_START	1456387	n/a	LTP074	ltpFR	14	15	n/a	n/a	n/a	n/a	n/a	n/a	n/a	n/a	n/a	n/a
2913.462	n/a	REC_WORD	1456731	wordpools/wasnorm_wordpool.txt	LTP074	ltpFR	14	15	1	PASSAGE	1019	n/a	0	n/a	n/a	n/a	n/a	n/a
2914.126	n/a	REC_WORD	1457063	wordpools/wasnorm_wordpool.txt	LTP074	ltpFR	14	15	1	ONION	977	n/a	0	n/a	n/a	n/a	n/a	n/a
2914.684	n/a	REC_WORD	1457342	wordpools/wasnorm_wordpool.txt	LTP074	ltpFR	14	15	1	ROSE	1212	n/a	1	n/a	n/a	n/a	n/a	n/a
2915.314	n/a	REC_WORD	1457657	wordpools/wasnorm_wordpool.txt	LTP074	ltpFR	14	15	1	AUTHOR	61	n/a	1	n/a	n/a	n/a	n/a	n/a
2916.466	n/a	REC_WORD	1458233	wordpools/wasnorm_wordpool.txt	LTP074	ltpFR	14	15	1	ROOSTER	1209	n/a	1	n/a	n/a	n/a	n/a	n/a
2917.144	n/a	REC_WORD	1458572	wordpools/wasnorm_wordpool.txt	LTP074	ltpFR	14	15	1	PLIERS	1089	n/a	0	n/a	n/a	n/a	n/a	n/a
2917.832	n/a	REC_WORD	1458916	wordpools/wasnorm_wordpool.txt	LTP074	ltpFR	14	15	1	UTENSIL	1542	n/a	0	n/a	n/a	n/a	n/a	n/a
2920.432	n/a	REC_WORD	1460216	wordpools/wasnorm_wordpool.txt	LTP074	ltpFR	14	15	1	TEACHER	1440	n/a	1	n/a	n/a	n/a	n/a	n/a
2921.098	n/a	REC_WORD	1460549	wordpools/wasnorm_wordpool.txt	LTP074	ltpFR	14	15	1	ASSISTANT	48	n/a	1	n/a	n/a	n/a	n/a	n/a
2921.888	n/a	REC_WORD	1460944	wordpools/wasnorm_wordpool.txt	LTP074	ltpFR	14	15	1	MUFFIN	929	n/a	0	n/a	n/a	n/a	n/a	n/a
2924.622	n/a	REC_WORD	1462311	wordpools/wasnorm_wordpool.txt	LTP074	ltpFR	14	15	1	BISCUIT	130	n/a	0	n/a	n/a	n/a	n/a	n/a
2929.422	n/a	REC_WORD	1464711	wordpools/wasnorm_wordpool.txt	LTP074	ltpFR	14	15	1	BISCUIT	130	n/a	0	n/a	n/a	n/a	n/a	n/a
2940.408	n/a	REC_WORD_VV	1470204	wordpools/wasnorm_wordpool.txt	LTP074	ltpFR	14	15	n/a	<>	-1	n/a	n/a	n/a	n/a	n/a	n/a	n/a
2941.496	n/a	REC_WORD_VV	1470748	wordpools/wasnorm_wordpool.txt	LTP074	ltpFR	14	15	n/a	<>	-1	n/a	n/a	n/a	n/a	n/a	n/a	n/a
2944.498	n/a	REC_WORD	1472249	wordpools/wasnorm_wordpool.txt	LTP074	ltpFR	14	15	1	RADISH	1158	n/a	1	n/a	n/a	n/a	n/a	n/a
2945.166	n/a	REC_WORD	1472583	wordpools/wasnorm_wordpool.txt	LTP074	ltpFR	14	15	1	BREAST	171	n/a	0	n/a	n/a	n/a	n/a	n/a
2945.66	n/a	REC_WORD	1472830	wordpools/wasnorm_wordpool.txt	LTP074	ltpFR	14	15	1	SHOE	1288	n/a	0	n/a	n/a	n/a	n/a	n/a
2951.816	n/a	REC_WORD	1475908	wordpools/wasnorm_wordpool.txt	LTP074	ltpFR	14	15	1	MUFFIN	929	n/a	0	n/a	n/a	n/a	n/a	n/a
2953.018	n/a	REC_WORD	1476509	wordpools/wasnorm_wordpool.txt	LTP074	ltpFR	14	15	1	BISCUIT	130	n/a	0	n/a	n/a	n/a	n/a	n/a
2961.486	n/a	REC_WORD_VV	1480743	wordpools/wasnorm_wordpool.txt	LTP074	ltpFR	14	15	n/a	<>	-1	n/a	n/a	n/a	n/a	n/a	n/a	n/a
2963.55	n/a	REC_WORD_VV	1481775	wordpools/wasnorm_wordpool.txt	LTP074	ltpFR	14	15	n/a	<>	-1	n/a	n/a	n/a	n/a	n/a	n/a	n/a
2965.522	n/a	REC_WORD_VV	1482761	wordpools/wasnorm_wordpool.txt	LTP074	ltpFR	14	15	n/a	<>	-1	n/a	n/a	n/a	n/a	n/a	n/a	n/a
2976.786	n/a	REC_WORD	1488393	wordpools/wasnorm_wordpool.txt	LTP074	ltpFR	14	15	1	BISCUIT	130	n/a	0	n/a	n/a	n/a	n/a	n/a
2984.994	n/a	REC_WORD	1492497	wordpools/wasnorm_wordpool.txt	LTP074	ltpFR	14	15	1	ROSE	1212	n/a	1	n/a	n/a	n/a	n/a	n/a
2993.788	n/a	WORD	1496894	wordpools/wasnorm_wordpool.txt	LTP074	ltpFR	14	16	-1	HEDGE	699	n/a	-1	1	1.0	1.0	upper	../fonts/Verdana.ttf
2997.98	n/a	WORD	1498990	wordpools/wasnorm_wordpool.txt	LTP074	ltpFR	14	16	-1	GRASSHOPPER	656	n/a	-1	1	1.0	1.0	upper	../fonts/Verdana.ttf
3001.83	n/a	WORD	1500915	wordpools/wasnorm_wordpool.txt	LTP074	ltpFR	14	16	-1	FLOOR	581	n/a	-1	1	1.0	1.0	upper	../fonts/Verdana.ttf
3005.796	n/a	WORD	1502898	wordpools/wasnorm_wordpool.txt	LTP074	ltpFR	14	16	-1	BOTTLE	153	n/a	-1	1	1.0	1.0	upper	../fonts/Verdana.ttf
3009.62	n/a	WORD	1504810	wordpools/wasnorm_wordpool.txt	LTP074	ltpFR	14	16	-1	MARROW	872	n/a	-1	1	1.0	1.0	upper	../fonts/Verdana.ttf
3013.596	n/a	WORD	1506798	wordpools/wasnorm_wordpool.txt	LTP074	ltpFR	14	16	-1	PUPPY	1144	n/a	-1	1	1.0	1.0	upper	../fonts/Verdana.ttf
3017.746	n/a	WORD	1508873	wordpools/wasnorm_wordpool.txt	LTP074	ltpFR	14	16	-1	TAIL	1430	n/a	-1	1	1.0	1.0	upper	../fonts/Verdana.ttf
3021.762	n/a	WORD	1510881	wordpools/wasnorm_wordpool.txt	LTP074	ltpFR	14	16	-1	NEEDLE	941	n/a	-1	1	1.0	1.0	upper	../fonts/Verdana.ttf
3025.946	n/a	WORD	1512973	wordpools/wasnorm_wordpool.txt	LTP074	ltpFR	14	16	-1	NIGHTGOWN	953	n/a	-1	1	1.0	1.0	upper	../fonts/Verdana.ttf
3030.072	n/a	WORD	1515036	wordpools/wasnorm_wordpool.txt	LTP074	ltpFR	14	16	-1	SPIT	1354	n/a	-1	1	1.0	1.0	upper	../fonts/Verdana.ttf
3034.112	n/a	WORD	1517056	wordpools/wasnorm_wordpool.txt	LTP074	ltpFR	14	16	-1	SMOG	1330	n/a	-1	1	1.0	1.0	upper	../fonts/Verdana.ttf
3038.088	n/a	WORD	1519044	wordpools/wasnorm_wordpool.txt	LTP074	ltpFR	14	16	-1	CORK	380	n/a	-1	1	1.0	1.0	upper	../fonts/Verdana.ttf
3042.188	n/a	WORD	1521094	wordpools/wasnorm_wordpool.txt	LTP074	ltpFR	14	16	-1	RUG	1215	n/a	-1	1	1.0	1.0	upper	../fonts/Verdana.ttf
3046.162	n/a	WORD	1523081	wordpools/wasnorm_wordpool.txt	LTP074	ltpFR	14	16	-1	FLOUR	583	n/a	-1	1	1.0	1.0	upper	../fonts/Verdana.ttf
3050.012	n/a	WORD	1525006	wordpools/wasnorm_wordpool.txt	LTP074	ltpFR	14	16	-1	SHORTCAKE	1292	n/a	-1	1	1.0	1.0	upper	../fonts/Verdana.ttf
3053.946	n/a	WORD	1526973	wordpools/wasnorm_wordpool.txt	LTP074	ltpFR	14	16	-1	POPCORN	1104	n/a	-1	1	1.0	1.0	upper	../fonts/Verdana.ttf
3059.78	n/a	REC_START	1529890	n/a	LTP074	ltpFR	14	16	n/a	n/a	n/a	n/a	n/a	n/a	n/a	n/a	n/a	n/a
3060.238	n/a	REC_WORD	1530119	wordpools/wasnorm_wordpool.txt	LTP074	ltpFR	14	16	-1	RUG	1215	n/a	-1	n/a	n/a	n/a	n/a	n/a
3060.728	n/a	REC_WORD	1530364	wordpools/wasnorm_wordpool.txt	LTP074	ltpFR	14	16	n/a	FLOWER	584	n/a	n/a	n/a	n/a	n/a	n/a	n/a
3061.58	n/a	REC_WORD	1530790	wordpools/wasnorm_wordpool.txt	LTP074	ltpFR	14	16	-1	SHORTCAKE	1292	n/a	-1	n/a	n/a	n/a	n/a	n/a
3062.932	n/a	REC_WORD	1531466	wordpools/wasnorm_wordpool.txt	LTP074	ltpFR	14	16	-1	POPCORN	1104	n/a	-1	n/a	n/a	n/a	n/a	n/a
3064.952	n/a	REC_WORD	1532476	wordpools/wasnorm_wordpool.txt	LTP074	ltpFR	14	16	-1	HEDGE	699	n/a	-1	n/a	n/a	n/a	n/a	n/a
3065.94	n/a	REC_WORD	1532970	wordpools/wasnorm_wordpool.txt	LTP074	ltpFR	14	16	-1	FLOOR	581	n/a	-1	n/a	n/a	n/a	n/a	n/a
3067.238	n/a	REC_WORD	1533619	wordpools/wasnorm_wordpool.txt	LTP074	ltpFR	14	16	-1	GRASSHOPPER	656	n/a	-1	n/a	n/a	n/a	n/a	n/a
3070.436	n/a	REC_WORD_VV	1535218	wordpools/wasnorm_wordpool.txt	LTP074	ltpFR	14	16	n/a	<>	-1	n/a	n/a	n/a	n/a	n/a	n/a	n/a
3084.698	n/a	REC_WORD	1542349	wordpools/wasnorm_wordpool.txt	LTP074	ltpFR	14	16	n/a	DOG	480	n/a	n/a	n/a	n/a	n/a	n/a	n/a
3086.076	n/a	REC_WORD	1543038	wordpools/wasnorm_wordpool.txt	LTP074	ltpFR	14	16	-1	PUPPY	1144	n/a	-1	n/a	n/a	n/a	n/a	n/a
3086.74	n/a	REC_WORD	1543370	wordpools/wasnorm_wordpool.txt	LTP074	ltpFR	14	16	-1	BOTTLE	153	n/a	-1	n/a	n/a	n/a	n/a	n/a
3087.372	n/a	REC_WORD	1543686	wordpools/wasnorm_wordpool.txt	LTP074	ltpFR	14	16	-1	MARROW	872	n/a	-1	n/a	n/a	n/a	n/a	n/a
3088.59	n/a	REC_WORD	1544295	wordpools/wasnorm_wordpool.txt	LTP074	ltpFR	14	16	-1	NEEDLE	941	n/a	-1	n/a	n/a	n/a	n/a	n/a
3089.248	n/a	REC_WORD	1544624	wordpools/wasnorm_wordpool.txt	LTP074	ltpFR	14	16	-1	TAIL	1430	n/a	-1	n/a	n/a	n/a	n/a	n/a
3090.022	n/a	REC_WORD	1545011	wordpools/wasnorm_wordpool.txt	LTP074	ltpFR	14	16	-1	NIGHTGOWN	953	n/a	-1	n/a	n/a	n/a	n/a	n/a
3092.98	n/a	REC_WORD	1546490	wordpools/wasnorm_wordpool.txt	LTP074	ltpFR	14	16	-1	SHORTCAKE	1292	n/a	-1	n/a	n/a	n/a	n/a	n/a
3093.982	n/a	REC_WORD	1546991	wordpools/wasnorm_wordpool.txt	LTP074	ltpFR	14	16	-1	GRASSHOPPER	656	n/a	-1	n/a	n/a	n/a	n/a	n/a
3095.006	n/a	REC_WORD	1547503	wordpools/wasnorm_wordpool.txt	LTP074	ltpFR	14	16	-1	NEEDLE	941	n/a	-1	n/a	n/a	n/a	n/a	n/a
3097.27	n/a	REC_WORD	1548635	wordpools/wasnorm_wordpool.txt	LTP074	ltpFR	14	16	-1	PUPPY	1144	n/a	-1	n/a	n/a	n/a	n/a	n/a
3100.458	n/a	REC_WORD_VV	1550229	wordpools/wasnorm_wordpool.txt	LTP074	ltpFR	14	16	n/a	<>	-1	n/a	n/a	n/a	n/a	n/a	n/a	n/a
3113.37	n/a	REC_WORD_VV	1556685	wordpools/wasnorm_wordpool.txt	LTP074	ltpFR	14	16	n/a	<>	-1	n/a	n/a	n/a	n/a	n/a	n/a	n/a
3157.052	n/a	REC_START	1578526	n/a	LTP074	ltpFR	14	n/a	n/a	n/a	n/a	n/a	n/a	n/a	n/a	n/a	n/a	n/a
3157.386	n/a	FFR_REC_WORD	1578693	wordpools/wasnorm_wordpool.txt	LTP074	ltpFR	14	n/a	-1	NEEDLE	941	n/a	-1	n/a	n/a	n/a	n/a	n/a
3157.866	n/a	FFR_REC_WORD	1578933	wordpools/wasnorm_wordpool.txt	LTP074	ltpFR	14	n/a	-1	TAIL	1430	n/a	-1	n/a	n/a	n/a	n/a	n/a
3158.322	n/a	FFR_REC_WORD	1579161	wordpools/wasnorm_wordpool.txt	LTP074	ltpFR	14	n/a	-1	NIGHTGOWN	953	n/a	-1	n/a	n/a	n/a	n/a	n/a
3159.036	n/a	FFR_REC_WORD	1579518	wordpools/wasnorm_wordpool.txt	LTP074	ltpFR	14	n/a	-1	PUPPY	1144	n/a	-1	n/a	n/a	n/a	n/a	n/a
3159.71	n/a	FFR_REC_WORD	1579855	wordpools/wasnorm_wordpool.txt	LTP074	ltpFR	14	n/a	-1	MARROW	872	n/a	-1	n/a	n/a	n/a	n/a	n/a
3160.378	n/a	FFR_REC_WORD	1580189	wordpools/wasnorm_wordpool.txt	LTP074	ltpFR	14	n/a	-1	BOTTLE	153	n/a	-1	n/a	n/a	n/a	n/a	n/a
3161.022	n/a	FFR_REC_WORD	1580511	wordpools/wasnorm_wordpool.txt	LTP074	ltpFR	14	n/a	-1	GRASSHOPPER	656	n/a	-1	n/a	n/a	n/a	n/a	n/a
3161.88	n/a	FFR_REC_WORD	1580940	wordpools/wasnorm_wordpool.txt	LTP074	ltpFR	14	n/a	-1	FLOOR	581	n/a	-1	n/a	n/a	n/a	n/a	n/a
3163.152	n/a	FFR_REC_WORD	1581576	wordpools/wasnorm_wordpool.txt	LTP074	ltpFR	14	n/a	-1	HEDGE	699	n/a	-1	n/a	n/a	n/a	n/a	n/a
3165.01	n/a	FFR_REC_WORD	1582505	wordpools/wasnorm_wordpool.txt	LTP074	ltpFR	14	n/a	0	THICKET	1455	n/a	1	n/a	n/a	n/a	n/a	n/a
3165.558	n/a	FFR_REC_WORD	1582779	wordpools/wasnorm_wordpool.txt	LTP074	ltpFR	14	n/a	0	GARAGE	621	n/a	1	n/a	n/a	n/a	n/a	n/a
3166.352	n/a	FFR_REC_WORD	1583176	wordpools/wasnorm_wordpool.txt	LTP074	ltpFR	14	n/a	0	LUNG	850	n/a	0	n/a	n/a	n/a	n/a	n/a
3167.838	n/a	FFR_REC_WORD	1583919	wordpools/wasnorm_wordpool.txt	LTP074	ltpFR	14	n/a	n/a	STRAWBERRY	1391	n/a	n/a	n/a	n/a	n/a	n/a	n/a
3169.924	n/a	FFR_REC_WORD	1584962	wordpools/wasnorm_wordpool.txt	LTP074	ltpFR	14	n/a	1	TART	1436	n/a	0	n/a	n/a	n/a	n/a	n/a
3170.426	n/a	FFR_REC_WORD	1585213	wordpools/wasnorm_wordpool.txt	LTP074	ltpFR	14	n/a	1	RASPBERRY	1168	n/a	1	n/a	n/a	n/a	n/a	n/a
3171.55	n/a	FFR_REC_WORD	1585775	wordpools/wasnorm_wordpool.txt	LTP074	ltpFR	14	n/a	1	ORANGE	980	n/a	1	n/a	n/a	n/a	n/a	n/a
3172.288	n/a	FFR_REC_WORD	1586144	wordpools/wasnorm_wordpool.txt	LTP074	ltpFR	14	n/a	1	COIN	343	n/a	0	n/a	n/a	n/a	n/a	n/a
3174.902	n/a	FFR_REC_WORD	1587451	wordpools/wasnorm_wordpool.txt	LTP074	ltpFR	14	n/a	1	PLANE	1081	n/a	1	n/a	n/a	n/a	n/a	n/a
3176.184	n/a	FFR_REC_WORD	1588092	wordpools/wasnorm_wordpool.txt	LTP074	ltpFR	14	n/a	1	PILOT	1070	n/a	1	n/a	n/a	n/a	n/a	n/a
3176.992	n/a	FFR_REC_WORD	1588496	wordpools/wasnorm_wordpool.txt	LTP074	ltpFR	14	n/a	1	SKELETON	1314	n/a	0	n/a	n/a	n/a	n/a	n/a
3177.91	n/a	FFR_REC_WORD	1588955	wordpools/wasnorm_wordpool.txt	LTP074	ltpFR	14	n/a	1	PARROT	1015	n/a	1	n/a	n/a	n/a	n/a	n/a
3178.734	n/a	FFR_REC_WORD	1589367	wordpools/wasnorm_wordpool.txt	LTP074	ltpFR	14	n/a	1	ROSE	1212	n/a	1	n/a	n/a	n/a	n/a	n/a
3180.304	n/a	FFR_REC_WORD	1590152	wordpools/wasnorm_wordpool.txt	LTP074	ltpFR	14	n/a	1	BISCUIT	130	n/a	0	n/a	n/a	n/a	n/a	n/a
3180.972	n/a	FFR_REC_WORD	1590486	wordpools/wasnorm_wordpool.txt	LTP074	ltpFR	14	n/a	1	MUFFIN	929	n/a	0	n/a	n/a	n/a	n/a	n/a
3181.812	n/a	FFR_REC_WORD	1590906	wordpools/wasnorm_wordpool.txt	LTP074	ltpFR	14	n/a	1	TEACHER	1440	n/a	1	n/a	n/a	n/a	n/a	n/a
3182.514	n/a	FFR_REC_WORD	1591257	wordpools/wasnorm_wordpool.txt	LTP074	ltpFR	14	n/a	1	ASSISTANT	48	n/a	1	n/a	n/a	n/a	n/a	n/a
3185.554	n/a	FFR_REC_WORD	1592777	wordpools/wasnorm_wordpool.txt	LTP074	ltpFR	14	n/a	0	ANIMAL	23	n/a	1	n/a	n/a	n/a	n/a	n/a
3187.344	n/a	FFR_REC_WORD	1593672	wordpools/wasnorm_wordpool.txt	LTP074	ltpFR	14	n/a	0	ANIMAL	23	n/a	1	n/a	n/a	n/a	n/a	n/a
3189.814	n/a	FFR_REC_WORD	1594907	wordpools/wasnorm_wordpool.txt	LTP074	ltpFR	14	n/a	1	HORSE	719	n/a	1	n/a	n/a	n/a	n/a	n/a
3190.512	n/a	FFR_REC_WORD	1595256	wordpools/wasnorm_wordpool.txt	LTP074	ltpFR	14	n/a	0	PONY	1102	n/a	1	n/a	n/a	n/a	n/a	n/a
3191.286	n/a	FFR_REC_WORD	1595643	wordpools/wasnorm_wordpool.txt	LTP074	ltpFR	14	n/a	0	RIDER	1191	n/a	1	n/a	n/a	n/a	n/a	n/a
3196.11	n/a	FFR_REC_WORD	1598055	wordpools/wasnorm_wordpool.txt	LTP074	ltpFR	14	n/a	1	TROUT	1511	n/a	1	n/a	n/a	n/a	n/a	n/a
3197.092	n/a	FFR_REC_WORD	1598546	wordpools/wasnorm_wordpool.txt	LTP074	ltpFR	14	n/a	1	TUBE	1516	n/a	0	n/a	n/a	n/a	n/a	n/a
3199.142	n/a	FFR_REC_WORD	1599571	wordpools/wasnorm_wordpool.txt	LTP074	ltpFR	14	n/a	1	BUTTERFLY	206	n/a	1	n/a	n/a	n/a	n/a	n/a
3200.116	n/a	FFR_REC_WORD	1600058	wordpools/wasnorm_wordpool.txt	LTP074	ltpFR	14	n/a	1	MOTH	920	n/a	1	n/a	n/a	n/a	n/a	n/a
3205.688	n/a	FFR_REC_WORD	1602844	wordpools/wasnorm_wordpool.txt	LTP074	ltpFR	14	n/a	0	WORKER	1621	n/a	1	n/a	n/a	n/a	n/a	n/a
3209.7	n/a	FFR_REC_WORD	1604850	wordpools/wasnorm_wordpool.txt	LTP074	ltpFR	14	n/a	1	GOVERNOR	651	n/a	1	n/a	n/a	n/a	n/a	n/a
3210.284	n/a	FFR_REC_WORD	1605142	wordpools/wasnorm_wordpool.txt	LTP074	ltpFR	14	n/a	1	COMET	353	n/a	2	n/a	n/a	n/a	n/a	n/a
3210.816	n/a	FFR_REC_WORD	1605408	wordpools/wasnorm_wordpool.txt	LTP074	ltpFR	14	n/a	1	FOLLOWER	589	n/a	1	n/a	n/a	n/a	n/a	n/a
3211.804	n/a	FFR_REC_WORD	1605902	wordpools/wasnorm_wordpool.txt	LTP074	ltpFR	14	n/a	1	CAPTAIN	239	n/a	1	n/a	n/a	n/a	n/a	n/a
3212.524	n/a	FFR_REC_WORD	1606262	wordpools/wasnorm_wordpool.txt	LTP074	ltpFR	14	n/a	1	WHISKERS	1605	n/a	0	n/a	n/a	n/a	n/a	n/a
3213.62	n/a	FFR_REC_WORD	1606810	wordpools/wasnorm_wordpool.txt	LTP074	ltpFR	14	n/a	1	DIGGER	464	n/a	1	n/a	n/a	n/a	n/a	n/a
3218.62	n/a	FFR_REC_WORD	1609310	wordpools/wasnorm_wordpool.txt	LTP074	ltpFR	14	n/a	0	BOSS	152	n/a	1	n/a	n/a	n/a	n/a	n/a
3219.946	n/a	FFR_REC_WORD	1609973	wordpools/wasnorm_wordpool.txt	LTP074	ltpFR	14	n/a	0	SNAKE	1333	n/a	0	n/a	n/a	n/a	n/a	n/a
3221.762	n/a	FFR_REC_WORD	1610881	wordpools/wasnorm_wordpool.txt	LTP074	ltpFR	14	n/a	0	WORKER	1621	n/a	1	n/a	n/a	n/a	n/a	n/a
3223.01	n/a	FFR_REC_WORD	1611505	wordpools/wasnorm_wordpool.txt	LTP074	ltpFR	14	n/a	0	DIRECTOR	471	n/a	1	n/a	n/a	n/a	n/a	n/a
3224.59	n/a	FFR_REC_WORD	1612295	wordpools/wasnorm_wordpool.txt	LTP074	ltpFR	14	n/a	0	TONGUE	1479	n/a	0	n/a	n/a	n/a	n/a	n/a
3225.294	n/a	FFR_REC_WORD	1612647	wordpools/wasnorm_wordpool.txt	LTP074	ltpFR	14	n/a	0	ANIMAL	23	n/a	1	n/a	n/a	n/a	n/a	n/a
3226.836	n/a	FFR_REC_WORD	1613418	wordpools/wasnorm_wordpool.txt	LTP074	ltpFR	14	n/a	0	FILM	565	n/a	0	n/a	n/a	n/a	n/a	n/a
3234.982	n/a	FFR_REC_WORD	1617491	wordpools/wasnorm_wordpool.txt	LTP074	ltpFR	14	n/a	n/a	PAPER	1011	n/a	n/a	n/a	n/a	n/a	n/a	n/a
3236.64	n/a	FFR_REC_WORD	1618320	wordpools/wasnorm_wordpool.txt	LTP074	ltpFR	14	n/a	1	ESSAY	540	n/a	0	n/a	n/a	n/a	n/a	n/a
3237.302	n/a	FFR_REC_WORD	1618651	wordpools/wasnorm_wordpool.txt	LTP074	ltpFR	14	n/a	1	CABINET	212	n/a	0	n/a	n/a	n/a	n/a	n/a
3238.116	n/a	FFR_REC_WORD	1619058	wordpools/wasnorm_wordpool.txt	LTP074	ltpFR	14	n/a	0	POISON	1096	n/a	0	n/a	n/a	n/a	n/a	n/a
3239.218	n/a	FFR_REC_WORD	1619609	wordpools/wasnorm_wordpool.txt	LTP074	ltpFR	14	n/a	1	DOCUMENT	479	n/a	0	n/a	n/a	n/a	n/a	n/a
3240.516	n/a	FFR_REC_WORD	1620258	wordpools/wasnorm_wordpool.txt	LTP074	ltpFR	14	n/a	1	LOCK	838	n/a	0	n/a	n/a	n/a	n/a	n/a
3242.466	n/a	FFR_REC_WORD	1621233	wordpools/wasnorm_wordpool.txt	LTP074	ltpFR	14	n/a	n/a	CAPTIVE	240	n/a	n/a	n/a	n/a	n/a	n/a	n/a
3250.834	n/a	FFR_REC_WORD	1625417	wordpools/wasnorm_wordpool.txt	LTP074	ltpFR	14	n/a	n/a	KID	775	n/a	n/a	n/a	n/a	n/a	n/a	n/a
3252.56	n/a	FFR_REC_WORD	1626280	wordpools/wasnorm_wordpool.txt	LTP074	ltpFR	14	n/a	0	COMMUNITY	356	n/a	1	n/a	n/a	n/a	n/a	n/a
3253.472	n/a	FFR_REC_WORD	1626736	wordpools/wasnorm_wordpool.txt	LTP074	ltpFR	14	n/a	0	CITY	314	n/a	1	n/a	n/a	n/a	n/a	n/a
3256.026	n/a	FFR_REC_WORD	1628013	wordpools/wasnorm_wordpool.txt	LTP074	ltpFR	14	n/a	0	ATMOSPHERE	54	n/a	1	n/a	n/a	n/a	n/a	n/a
3257.374	n/a	FFR_REC_WORD	1628687	wordpools/wasnorm_wordpool.txt	LTP074	ltpFR	14	n/a	0	CLAY	320	n/a	0	n/a	n/a	n/a	n/a	n/a
3258.266	n/a	FFR_REC_WORD	1629133	wordpools/wasnorm_wordpool.txt	LTP074	ltpFR	14	n/a	0	LANDSCAPE	799	n/a	1	n/a	n/a	n/a	n/a	n/a
3261.264	n/a	FFR_REC_WORD	1630632	wordpools/wasnorm_wordpool.txt	LTP074	ltpFR	14	n/a	0	LANDSCAPE	799	n/a	1	n/a	n/a	n/a	n/a	n/a
3262.996	n/a	FFR_REC_WORD	1631498	wordpools/wasnorm_wordpool.txt	LTP074	ltpFR	14	n/a	-1	SCENERY	1247	n/a	-1	n/a	n/a	n/a	n/a	n/a
3265.834	n/a	FFR_REC_WORD	1632917	wordpools/wasnorm_wordpool.txt	LTP074	ltpFR	14	n/a	-1	TOE	1473	n/a	-1	n/a	n/a	n/a	n/a	n/a
3267.376	n/a	FFR_REC_WORD	1633688	wordpools/wasnorm_wordpool.txt	LTP074	ltpFR	14	n/a	1	SHOE	1288	n/a	0	n/a	n/a	n/a	n/a	n/a
3268.638	n/a	FFR_REC_WORD	1634319	wordpools/wasnorm_wordpool.txt	LTP074	ltpFR	14	n/a	1	RADISH	1158	n/a	1	n/a	n/a	n/a	n/a	n/a
3270.964	n/a	FFR_REC_WORD	1635482	wordpools/wasnorm_wordpool.txt	LTP074	ltpFR	14	n/a	1	BREAST	171	n/a	0	n/a	n/a	n/a	n/a	n/a
3271.902	n/a	FFR_REC_WORD	1635951	wordpools/wasnorm_wordpool.txt	LTP074	ltpFR	14	n/a	1	GARLIC	624	n/a	0	n/a	n/a	n/a	n/a	n/a
3273.582	n/a	FFR_REC_WORD	1636791	wordpools/wasnorm_wordpool.txt	LTP074	ltpFR	14	n/a	1	TWIG	1527	n/a	0	n/a	n/a	n/a	n/a	n/a
3276.126	n/a	FFR_REC_WORD	1638063	wordpools/wasnorm_wordpool.txt	LTP074	ltpFR	14	n/a	1	TRANSPLANT	1496	n/a	0	n/a	n/a	n/a	n/a	n/a
3282.946	n/a	FFR_REC_WORD	1641473	wordpools/wasnorm_wordpool.txt	LTP074	ltpFR	14	n/a	n/a	FOOD	-1	n/a	n/a	n/a	n/a	n/a	n/a	n/a
3284.478	n/a	FFR_REC_WORD	1642239	wordpools/wasnorm_wordpool.txt	LTP074	ltpFR	14	n/a	n/a	FOOD	-1	n/a	n/a	n/a	n/a	n/a	n/a	n/a
3286.134	n/a	FFR_REC_WORD	1643067	wordpools/wasnorm_wordpool.txt	LTP074	ltpFR	14	n/a	-1	SHORTCAKE	1292	n/a	-1	n/a	n/a	n/a	n/a	n/a
3286.74	n/a	FFR_REC_WORD	1643370	wordpools/wasnorm_wordpool.txt	LTP074	ltpFR	14	n/a	-1	FLOUR	583	n/a	-1	n/a	n/a	n/a	n/a	n/a
3287.846	n/a	FFR_REC_WORD	1643923	wordpools/wasnorm_wordpool.txt	LTP074	ltpFR	14	n/a	-1	RUG	1215	n/a	-1	n/a	n/a	n/a	n/a	n/a
3295.294	n/a	FFR_REC_WORD	1647647	wordpools/wasnorm_wordpool.txt	LTP074	ltpFR	14	n/a	0	ARM	38	n/a	0	n/a	n/a	n/a	n/a	n/a
3296.486	n/a	FFR_REC_WORD	1648243	wordpools/wasnorm_wordpool.txt	LTP074	ltpFR	14	n/a	0	ICE	730	n/a	0	n/a	n/a	n/a	n/a	n/a
3297.154	n/a	FFR_REC_WORD	1648577	wordpools/wasnorm_wordpool.txt	LTP074	ltpFR	14	n/a	0	PACKAGE	997	n/a	0	n/a	n/a	n/a	n/a	n/a
3299.72	n/a	FFR_REC_WORD	1649860	wordpools/wasnorm_wordpool.txt	LTP074	ltpFR	14	n/a	0	CARTON	251	n/a	0	n/a	n/a	n/a	n/a	n/a
3304.554	n/a	FFR_REC_WORD	1652277	wordpools/wasnorm_wordpool.txt	LTP074	ltpFR	14	n/a	1	FLESH	579	n/a	0	n/a	n/a	n/a	n/a	n/a
3307.75	n/a	FFR_REC_WORD	1653875	wordpools/wasnorm_wordpool.txt	LTP074	ltpFR	14	n/a	1	PEOPLE	1046	n/a	1	n/a	n/a	n/a	n/a	n/a
3309.498	n/a	FFR_REC_WORD	1654749	wordpools/wasnorm_wordpool.txt	LTP074	ltpFR	14	n/a	1	PEOPLE	1046	n/a	1	n/a	n/a	n/a	n/a	n/a
3313.074	n/a	FFR_REC_WORD	1656537	wordpools/wasnorm_wordpool.txt	LTP074	ltpFR	14	n/a	n/a	ENGINEER	536	n/a	n/a	n/a	n/a	n/a	n/a	n/a
3313.892	n/a	FFR_REC_WORD	1656946	wordpools/wasnorm_wordpool.txt	LTP074	ltpFR	14	n/a	-1	CROWN	415	n/a	-1	n/a	n/a	n/a	n/a	n/a
3316.512	n/a	FFR_REC_WORD	1658256	wordpools/wasnorm_wordpool.txt	LTP074	ltpFR	14	n/a	n/a	CHAIR	274	n/a	n/a	n/a	n/a	n/a	n/a	n/a
3323.142	n/a	FFR_REC_WORD	1661571	wordpools/wasnorm_wordpool.txt	LTP074	ltpFR	14	n/a	-1	THRONE	1461	n/a	-1	n/a	n/a	n/a	n/a	n/a
3328.276	n/a	FFR_REC_WORD	1664138	wordpools/wasnorm_wordpool.txt	LTP074	ltpFR	14	n/a	0	CLAW	319	n/a	0	n/a	n/a	n/a	n/a	n/a
3328.948	n/a	FFR_REC_WORD	1664474	wordpools/wasnorm_wordpool.txt	LTP074	ltpFR	14	n/a	0	DIRT	472	n/a	0	n/a	n/a	n/a	n/a	n/a
3330.916	n/a	FFR_REC_WORD	1665458	wordpools/wasnorm_wordpool.txt	LTP074	ltpFR	14	n/a	1	PORTRAIT	1111	n/a	0	n/a	n/a	n/a	n/a	n/a
3331.624	n/a	FFR_REC_WORD	1665812	wordpools/wasnorm_wordpool.txt	LTP074	ltpFR	14	n/a	1	KITTEN	780	n/a	1	n/a	n/a	n/a	n/a	n/a
3332.592	n/a	FFR_REC_WORD	1666296	wordpools/wasnorm_wordpool.txt	LTP074	ltpFR	14	n/a	1	SAPPHIRE	1234	n/a	0	n/a	n/a	n/a	n/a	n/a
3333.348	n/a	FFR_REC_WORD	1666674	wordpools/wasnorm_wordpool.txt	LTP074	ltpFR	14	n/a	0	EMERALD	528	n/a	0	n/a	n/a	n/a	n/a	n/a
3335.14	n/a	FFR_REC_WORD	1667570	wordpools/wasnorm_wordpool.txt	LTP074	ltpFR	14	n/a	0	CREVICE	405	n/a	0	n/a	n/a	n/a	n/a	n/a
3335.734	n/a	FFR_REC_WORD	1667867	wordpools/wasnorm_wordpool.txt	LTP074	ltpFR	14	n/a	0	COTTAGE	384	n/a	1	n/a	n/a	n/a	n/a	n/a
3336.502	n/a	FFR_REC_WORD	1668251	wordpools/wasnorm_wordpool.txt	LTP074	ltpFR	14	n/a	0	SHACK	1273	n/a	1	n/a	n/a	n/a	n/a	n/a
3339.032	n/a	FFR_REC_WORD	1669516	wordpools/wasnorm_wordpool.txt	LTP074	ltpFR	14	n/a	n/a	PICTURE	1061	n/a	n/a	n/a	n/a	n/a	n/a	n/a
3342.848	n/a	FFR_REC_WORD	1671424	wordpools/wasnorm_wordpool.txt	LTP074	ltpFR	14	n/a	1	PISTON	1076	n/a	0	n/a	n/a	n/a	n/a	n/a
3355.8	n/a	FFR_REC_WORD	1677900	wordpools/wasnorm_wordpool.txt	LTP074	ltpFR	14	n/a	0	ANIMAL	23	n/a	1	n/a	n/a	n/a	n/a	n/a
3361.82	n/a	FFR_REC_WORD	1680910	wordpools/wasnorm_wordpool.txt	LTP074	ltpFR	14	n/a	0	ANIMAL	23	n/a	1	n/a	n/a	n/a	n/a	n/a
3377.666	n/a	FFR_REC_WORD	1688833	wordpools/wasnorm_wordpool.txt	LTP074	ltpFR	14	n/a	1	WATER	1594	n/a	0	n/a	n/a	n/a	n/a	n/a
3378.392	n/a	FFR_REC_WORD	1689196	wordpools/wasnorm_wordpool.txt	LTP074	ltpFR	14	n/a	1	REEF	1177	n/a	1	n/a	n/a	n/a	n/a	n/a
3378.862	n/a	FFR_REC_WORD	1689431	wordpools/wasnorm_wordpool.txt	LTP074	ltpFR	14	n/a	1	ANTENNA	28	n/a	0	n/a	n/a	n/a	n/a	n/a
3386.786	n/a	FFR_REC_WORD	1693393	wordpools/wasnorm_wordpool.txt	LTP074	ltpFR	14	n/a	1	LAGOON	795	n/a	0	n/a	n/a	n/a	n/a	n/a
3387.614	n/a	FFR_REC_WORD	1693807	wordpools/wasnorm_wordpool.txt	LTP074	ltpFR	14	n/a	0	PILL	1068	n/a	0	n/a	n/a	n/a	n/a	n/a
3388.282	n/a	FFR_REC_WORD	1694141	wordpools/wasnorm_wordpool.txt	LTP074	ltpFR	14	n/a	1	BRUNETTE	181	n/a	0	n/a	n/a	n/a	n/a	n/a
3391.284	n/a	FFR_REC_WORD	1695642	wordpools/wasnorm_wordpool.txt	LTP074	ltpFR	14	n/a	1	PEOPLE	1046	n/a	1	n/a	n/a	n/a	n/a	n/a
3396.618	n/a	FFR_REC_WORD	1698309	wordpools/wasnorm_wordpool.txt	LTP074	ltpFR	14	n/a	n/a	PARTNER	1017	n/a	n/a	n/a	n/a	n/a	n/a	n/a
3401.692	n/a	FFR_REC_WORD	1700846	wordpools/wasnorm_wordpool.txt	LTP074	ltpFR	14	n/a	0	ENEMY	534	n/a	1	n/a	n/a	n/a	n/a	n/a
3402.99	n/a	FFR_REC_WORD	1701495	wordpools/wasnorm_wordpool.txt	LTP074	ltpFR	14	n/a	0	EXPERT	543	n/a	1	n/a	n/a	n/a	n/a	n/a
3406.172	n/a	FFR_REC_WORD	1703086	wordpools/wasnorm_wordpool.txt	LTP074	ltpFR	14	n/a	0	TYPEWRITER	1531	n/a	1	n/a	n/a	n/a	n/a	n/a
3409.33	n/a	FFR_REC_WORD	1704665	wordpools/wasnorm_wordpool.txt	LTP074	ltpFR	14	n/a	0	POET	1095	n/a	1	n/a	n/a	n/a	n/a	n/a
3410.054	n/a	FFR_REC_WORD	1705027	wordpools/wasnorm_wordpool.txt	LTP074	ltpFR	14	n/a	0	BOAT	144	n/a	1	n/a	n/a	n/a	n/a	n/a
3414.614	n/a	FFR_REC_WORD	1707307	wordpools/wasnorm_wordpool.txt	LTP074	ltpFR	14	n/a	n/a	CASHIER	254	n/a	n/a	n/a	n/a	n/a	n/a	n/a
3418.042	n/a	FFR_REC_WORD	1709021	wordpools/wasnorm_wordpool.txt	LTP074	ltpFR	14	n/a	0	SUPERMARKET	1409	n/a	1	n/a	n/a	n/a	n/a	n/a
3419.014	n/a	FFR_REC_WORD	1709507	wordpools/wasnorm_wordpool.txt	LTP074	ltpFR	14	n/a	0	GROCERY	664	n/a	1	n/a	n/a	n/a	n/a	n/a
3419.932	n/a	FFR_REC_WORD	1709966	wordpools/wasnorm_wordpool.txt	LTP074	ltpFR	14	n/a	0	BUTLER	204	n/a	1	n/a	n/a	n/a	n/a	n/a
3420.57	n/a	FFR_REC_WORD	1710285	wordpools/wasnorm_wordpool.txt	LTP074	ltpFR	14	n/a	0	TRIGGER	1507	n/a	1	n/a	n/a	n/a	n/a	n/a
3421.788	n/a	FFR_REC_WORD	1710894	wordpools/wasnorm_wordpool.txt	LTP074	ltpFR	14	n/a	1	MAID	856	n/a	1	n/a	n/a	n/a	n/a	n/a
3422.348	n/a	FFR_REC_WORD	1711174	wordpools/wasnorm_wordpool.txt	LTP074	ltpFR	14	n/a	1	SCARECROW	1245	n/a	0	n/a	n/a	n/a	n/a	n/a
3423.31	n/a	FFR_REC_WORD	1711655	wordpools/wasnorm_wordpool.txt	LTP074	ltpFR	14	n/a	1	PUMPKIN	1142	n/a	1	n/a	n/a	n/a	n/a	n/a
3429.81	n/a	FFR_REC_WORD	1714905	wordpools/wasnorm_wordpool.txt	LTP074	ltpFR	14	n/a	n/a	FOOD	-1	n/a	n/a	n/a	n/a	n/a	n/a	n/a
3438.38	n/a	FFR_REC_WORD	1719190	wordpools/wasnorm_wordpool.txt	LTP074	ltpFR	14	n/a	n/a	PLACES	-1	n/a	n/a	n/a	n/a	n/a	n/a	n/a
3473.252	n/a	REC_START	1736626	n/a	LTP074	ltpFR	14	1	n/a	n/a	n/a	n/a	n/a	n/a	n/a	n/a	n/a	n/a
3473.292	n/a	RECOG_TARGET	1736646	n/a	LTP074	ltpFR	14	1	0	SUPERMARKET	1409	5	1	n/a	n/a	n/a	n/a	n/a
3474.154	n/a	RECOG_RESP	1737077	n/a	LTP074	ltpFR	14	1	0	SUPERMARKET	1409	n/a	1	n/a	n/a	n/a	n/a	n/a
3474.772	n/a	RECOG_CONF	1737386	n/a	LTP074	ltpFR	14	1	0	SUPERMARKET	1409	5	1	n/a	n/a	n/a	n/a	n/a
3476.302	n/a	RECOG_TARGET	1738151	n/a	LTP074	ltpFR	14	1	1	RASPBERRY	1168	5	1	n/a	n/a	n/a	n/a	n/a
3477.048	n/a	RECOG_RESP	1738524	n/a	LTP074	ltpFR	14	1	1	RASPBERRY	1168	n/a	1	n/a	n/a	n/a	n/a	n/a
3477.678	n/a	RECOG_CONF	1738839	n/a	LTP074	ltpFR	14	1	1	RASPBERRY	1168	5	1	n/a	n/a	n/a	n/a	n/a
3478.984	n/a	RECOG_TARGET	1739492	n/a	LTP074	ltpFR	14	1	1	LAGOON	795	5	0	n/a	n/a	n/a	n/a	n/a
3479.742	n/a	RECOG_RESP	1739871	n/a	LTP074	ltpFR	14	1	1	LAGOON	795	n/a	0	n/a	n/a	n/a	n/a	n/a
3480.3	n/a	RECOG_CONF	1740150	n/a	LTP074	ltpFR	14	1	1	LAGOON	795	5	0	n/a	n/a	n/a	n/a	n/a
3481.634	n/a	RECOG_TARGET	1740817	n/a	LTP074	ltpFR	14	1	1	ASSISTANT	48	5	1	n/a	n/a	n/a	n/a	n/a
3482.302	n/a	RECOG_RESP	1741151	n/a	LTP074	ltpFR	14	1	1	ASSISTANT	48	n/a	1	n/a	n/a	n/a	n/a	n/a
3482.84	n/a	RECOG_CONF	1741420	n/a	LTP074	ltpFR	14	1	1	ASSISTANT	48	5	1	n/a	n/a	n/a	n/a	n/a
3484.176	n/a	RECOG_TARGET	1742088	n/a	LTP074	ltpFR	14	1	1	KITTEN	780	5	1	n/a	n/a	n/a	n/a	n/a
3484.702	n/a	RECOG_RESP	1742351	n/a	LTP074	ltpFR	14	1	1	KITTEN	780	n/a	1	n/a	n/a	n/a	n/a	n/a
3485.096	n/a	RECOG_CONF	1742548	n/a	LTP074	ltpFR	14	1	1	KITTEN	780	5	1	n/a	n/a	n/a	n/a	n/a
3486.508	n/a	RECOG_LURE	1743254	n/a	LTP074	ltpFR	14	1	n/a	TIGER	1467	3	n/a	n/a	n/a	n/a	n/a	n/a
3487.26	n/a	RECOG_RESP	1743630	n/a	LTP074	ltpFR	14	1	n/a	TIGER	1467	n/a	n/a	n/a	n/a	n/a	n/a	n/a
3487.754	n/a	RECOG_CONF	1743877	n/a	LTP074	ltpFR	14	1	n/a	TIGER	1467	3	n/a	n/a	n/a	n/a	n/a	n/a
3489.192	n/a	RECOG_TARGET	1744596	n/a	LTP074	ltpFR	14	1	0	TRIBE	1505	2	1	n/a	n/a	n/a	n/a	n/a
3489.894	n/a	RECOG_RESP	1744947	n/a	LTP074	ltpFR	14	1	0	TRIBE	1505	n/a	1	n/a	n/a	n/a	n/a	n/a
3490.668	n/a	RECOG_CONF	1745334	n/a	LTP074	ltpFR	14	1	0	TRIBE	1505	2	1	n/a	n/a	n/a	n/a	n/a
3491.934	n/a	RECOG_TARGET	1745967	n/a	LTP074	ltpFR	14	1	0	SNAKE	1333	5	0	n/a	n/a	n/a	n/a	n/a
3492.744	n/a	RECOG_RESP	1746372	n/a	LTP074	ltpFR	14	1	0	SNAKE	1333	n/a	0	n/a	n/a	n/a	n/a	n/a
3493.208	n/a	RECOG_CONF	1746604	n/a	LTP074	ltpFR	14	1	0	SNAKE	1333	5	0	n/a	n/a	n/a	n/a	n/a
3494.724	n/a	RECOG_LURE	1747362	n/a	LTP074	ltpFR	14	1	n/a	BLENDER	136	4	n/a	n/a	n/a	n/a	n/a	n/a
3495.506	n/a	RECOG_RESP	1747753	n/a	LTP074	ltpFR	14	1	n/a	BLENDER	136	n/a	n/a	n/a	n/a	n/a	n/a	n/a
3495.976	n/a	RECOG_CONF	1747988	n/a	LTP074	ltpFR	14	1	n/a	BLENDER	136	4	n/a	n/a	n/a	n/a	n/a	n/a
3497.31	n/a	RECOG_TARGET	1748655	n/a	LTP074	ltpFR	14	1	-1	FLOUR	583	4	-1	n/a	n/a	n/a	n/a	n/a
3498.626	n/a	RECOG_RESP	1749313	n/a	LTP074	ltpFR	14	1	-1	FLOUR	583	n/a	-1	n/a	n/a	n/a	n/a	n/a
3499.118	n/a	RECOG_CONF	1749559	n/a	LTP074	ltpFR	14	1	-1	FLOUR	583	4	-1	n/a	n/a	n/a	n/a	n/a
3500.6	n/a	RECOG_LURE	1750300	n/a	LTP074	ltpFR	14	1	n/a	QUILT	1151	5	n/a	n/a	n/a	n/a	n/a	n/a
3501.598	n/a	RECOG_RESP	1750799	n/a	LTP074	ltpFR	14	1	n/a	QUILT	1151	n/a	n/a	n/a	n/a	n/a	n/a	n/a
3502.068	n/a	RECOG_CONF	1751034	n/a	LTP074	ltpFR	14	1	n/a	QUILT	1151	5	n/a	n/a	n/a	n/a	n/a	n/a
3503.5	n/a	RECOG_TARGET	1751750	n/a	LTP074	ltpFR	14	1	1	ANCHOR	21	5	1	n/a	n/a	n/a	n/a	n/a
3504.108	n/a	RECOG_RESP	1752054	n/a	LTP074	ltpFR	14	1	1	ANCHOR	21	n/a	1	n/a	n/a	n/a	n/a	n/a
3504.596	n/a	RECOG_CONF	1752298	n/a	LTP074	ltpFR	14	1	1	ANCHOR	21	5	1	n/a	n/a	n/a	n/a	n/a
3506.018	n/a	RECOG_LURE	1753009	n/a	LTP074	ltpFR	14	1	n/a	DYNAMITE	511	5	n/a	n/a	n/a	n/a	n/a	n/a
3506.672	n/a	RECOG_RESP	1753336	n/a	LTP074	ltpFR	14	1	n/a	DYNAMITE	511	n/a	n/a	n/a	n/a	n/a	n/a	n/a
3507.114	n/a	RECOG_CONF	1753557	n/a	LTP074	ltpFR	14	1	n/a	DYNAMITE	511	5	n/a	n/a	n/a	n/a	n/a	n/a
3508.492	n/a	RECOG_TARGET	1754246	n/a	LTP074	ltpFR	14	1	-1	POTATO	1115	5	-1	n/a	n/a	n/a	n/a	n/a
3509.146	n/a	RECOG_RESP	1754573	n/a	LTP074	ltpFR	14	1	-1	POTATO	1115	n/a	-1	n/a	n/a	n/a	n/a	n/a
3509.658	n/a	RECOG_CONF	1754829	n/a	LTP074	ltpFR	14	1	-1	POTATO	1115	5	-1	n/a	n/a	n/a	n/a	n/a
3510.958	n/a	RECOG_LURE	1755479	n/a	LTP074	ltpFR	14	1	n/a	MONSTER	912	1	n/a	n/a	n/a	n/a	n/a	n/a
3512.39	n/a	RECOG_RESP	1756195	n/a	LTP074	ltpFR	14	1	n/a	MONSTER	912	n/a	n/a	n/a	n/a	n/a	n/a	n/a
3512.908	n/a	RECOG_CONF	1756454	n/a	LTP074	ltpFR	14	1	n/a	MONSTER	912	1	n/a	n/a	n/a	n/a	n/a	n/a
3514.35	n/a	RECOG_LURE	1757175	n/a	LTP074	ltpFR	14	1	n/a	CABBAGE	210	4	n/a	n/a	n/a	n/a	n/a	n/a
3515.144	n/a	RECOG_RESP	1757572	n/a	LTP074	ltpFR	14	1	n/a	CABBAGE	210	n/a	n/a	n/a	n/a	n/a	n/a	n/a
3515.632	n/a	RECOG_CONF	1757816	n/a	LTP074	ltpFR	14	1	n/a	CABBAGE	210	4	n/a	n/a	n/a	n/a	n/a	n/a
3517.092	n/a	RECOG_TARGET	1758546	n/a	LTP074	ltpFR	14	1	1	PERSONNEL	1053	5	1	n/a	n/a	n/a	n/a	n/a
3518.048	n/a	RECOG_RESP	1759024	n/a	LTP074	ltpFR	14	1	1	PERSONNEL	1053	n/a	1	n/a	n/a	n/a	n/a	n/a
3518.536	n/a	RECOG_CONF	1759268	n/a	LTP074	ltpFR	14	1	1	PERSONNEL	1053	5	1	n/a	n/a	n/a	n/a	n/a
3519.892	n/a	RECOG_TARGET	1759946	n/a	LTP074	ltpFR	14	1	0	COWBOY	395	5	1	n/a	n/a	n/a	n/a	n/a
3520.692	n/a	RECOG_RESP	1760346	n/a	LTP074	ltpFR	14	1	0	COWBOY	395	n/a	1	n/a	n/a	n/a	n/a	n/a
3521.11	n/a	RECOG_CONF	1760555	n/a	LTP074	ltpFR	14	1	0	COWBOY	395	5	1	n/a	n/a	n/a	n/a	n/a
