mstime	trial_type	stim_file	subject	experiment	session	trial	task	item_name	item_num	recog_resp	recog_conf	resp	answer	test_x	test_y	test_z	color_r	color_g	color_b	case	font
0	SESS_START	n/a	LTP199	ltpFR	11	n/a	n/a	n/a	n/a	1	3	n/a	n/a	0	0	0	n/a	n/a	n/a	n/a	n/a
47277	START	n/a	LTP199	ltpFR	11	n/a	n/a	n/a	n/a	n/a	n/a	n/a	n/a	n/a	n/a	n/a	n/a	n/a	n/a	n/a	n/a
47327	PROB	n/a	LTP199	ltpFR	11	n/a	n/a	n/a	n/a	n/a	n/a	n/a	16	1	9	6	n/a	n/a	n/a	n/a	n/a
48883	PROB	n/a	LTP199	ltpFR	11	n/a	n/a	n/a	n/a	n/a	n/a	n/a	17	8	1	8	n/a	n/a	n/a	n/a	n/a
50238	PROB	n/a	LTP199	ltpFR	11	n/a	n/a	n/a	n/a	n/a	n/a	n/a	15	5	6	4	n/a	n/a	n/a	n/a	n/a
51660	PROB	n/a	LTP199	ltpFR	11	n/a	n/a	n/a	n/a	n/a	n/a	n/a	26	9	9	8	n/a	n/a	n/a	n/a	n/a
53406	PROB	n/a	LTP199	ltpFR	11	n/a	n/a	n/a	n/a	n/a	n/a	n/a	11	4	2	5	n/a	n/a	n/a	n/a	n/a
54778	PROB	n/a	LTP199	ltpFR	11	n/a	n/a	n/a	n/a	n/a	n/a	n/a	20	5	7	8	n/a	n/a	n/a	n/a	n/a
55999	PROB	n/a	LTP199	ltpFR	11	n/a	n/a	n/a	n/a	n/a	n/a	n/a	15	5	2	8	n/a	n/a	n/a	n/a	n/a
57237	PROB	n/a	LTP199	ltpFR	11	n/a	n/a	n/a	n/a	n/a	n/a	n/a	20	8	7	5	n/a	n/a	n/a	n/a	n/a
59345	PROB	n/a	LTP199	ltpFR	11	n/a	n/a	n/a	n/a	n/a	n/a	n/a	10	3	5	2	n/a	n/a	n/a	n/a	n/a
60560	PROB	n/a	LTP199	ltpFR	11	n/a	n/a	n/a	n/a	n/a	n/a	n/a	17	2	6	9	n/a	n/a	n/a	n/a	n/a
62082	PROB	n/a	LTP199	ltpFR	11	n/a	n/a	n/a	n/a	n/a	n/a	n/a	22	9	7	6	n/a	n/a	n/a	n/a	n/a
64441	PROB	n/a	LTP199	ltpFR	11	n/a	n/a	n/a	n/a	n/a	n/a	n/a	15	7	6	2	n/a	n/a	n/a	n/a	n/a
66033	STOP	n/a	LTP199	ltpFR	11	n/a	n/a	n/a	n/a	n/a	n/a	n/a	n/a	n/a	n/a	n/a	n/a	n/a	n/a	n/a	n/a
123789	START	n/a	LTP199	ltpFR	11	n/a	n/a	n/a	n/a	n/a	n/a	n/a	n/a	n/a	n/a	n/a	n/a	n/a	n/a	n/a	n/a
125304	PROB	n/a	LTP199	ltpFR	11	n/a	n/a	n/a	n/a	n/a	n/a	n/a	15	5	4	6	n/a	n/a	n/a	n/a	n/a
126860	PROB	n/a	LTP199	ltpFR	11	n/a	n/a	n/a	n/a	n/a	n/a	n/a	14	9	4	1	n/a	n/a	n/a	n/a	n/a
128299	PROB	n/a	LTP199	ltpFR	11	n/a	n/a	n/a	n/a	n/a	n/a	n/a	8	3	4	1	n/a	n/a	n/a	n/a	n/a
129788	PROB	n/a	LTP199	ltpFR	11	n/a	n/a	n/a	n/a	n/a	n/a	n/a	21	5	7	9	n/a	n/a	n/a	n/a	n/a
131537	STOP	n/a	LTP199	ltpFR	11	n/a	n/a	n/a	n/a	n/a	n/a	n/a	n/a	n/a	n/a	n/a	n/a	n/a	n/a	n/a	n/a
132973	WORD	wordpools/wasnorm_wordpool_less_exclusions.txt	LTP199	ltpFR	11	1	0	CROW	414	1	n/a	1	n/a	0	0	0	0.57763671875	0.412841796875	1	upper	amplitud.ttf
135985	START	n/a	LTP199	ltpFR	11	n/a	n/a	n/a	n/a	n/a	n/a	n/a	n/a	n/a	n/a	n/a	n/a	n/a	n/a	n/a	n/a
137165	PROB	n/a	LTP199	ltpFR	11	n/a	n/a	n/a	n/a	n/a	n/a	n/a	15	4	2	9	n/a	n/a	n/a	n/a	n/a
138577	PROB	n/a	LTP199	ltpFR	11	n/a	n/a	n/a	n/a	n/a	n/a	n/a	19	5	5	9	n/a	n/a	n/a	n/a	n/a
139581	PROB	n/a	LTP199	ltpFR	11	n/a	n/a	n/a	n/a	n/a	n/a	n/a	11	2	3	6	n/a	n/a	n/a	n/a	n/a
140886	PROB	n/a	LTP199	ltpFR	11	n/a	n/a	n/a	n/a	n/a	n/a	n/a	14	7	1	6	n/a	n/a	n/a	n/a	n/a
142721	STOP	n/a	LTP199	ltpFR	11	n/a	n/a	n/a	n/a	n/a	n/a	n/a	n/a	n/a	n/a	n/a	n/a	n/a	n/a	n/a	n/a
145102	WORD	wordpools/wasnorm_wordpool_less_exclusions.txt	LTP199	ltpFR	11	1	0	PARROT	1015	1	n/a	1	n/a	0	0	0	0.57763671875	0.412841796875	1	upper	amplitud.ttf
148114	START	n/a	LTP199	ltpFR	11	n/a	n/a	n/a	n/a	n/a	n/a	n/a	n/a	n/a	n/a	n/a	n/a	n/a	n/a	n/a	n/a
149244	PROB	n/a	LTP199	ltpFR	11	n/a	n/a	n/a	n/a	n/a	n/a	n/a	15	5	7	3	n/a	n/a	n/a	n/a	n/a
151001	PROB	n/a	LTP199	ltpFR	11	n/a	n/a	n/a	n/a	n/a	n/a	n/a	20	8	8	4	n/a	n/a	n/a	n/a	n/a
152306	PROB	n/a	LTP199	ltpFR	11	n/a	n/a	n/a	n/a	n/a	n/a	n/a	15	2	9	4	n/a	n/a	n/a	n/a	n/a
153349	PROB	n/a	LTP199	ltpFR	11	n/a	n/a	n/a	n/a	n/a	n/a	n/a	14	4	5	5	n/a	n/a	n/a	n/a	n/a
156113	STOP	n/a	LTP199	ltpFR	11	n/a	n/a	n/a	n/a	n/a	n/a	n/a	n/a	n/a	n/a	n/a	n/a	n/a	n/a	n/a	n/a
157348	WORD	wordpools/wasnorm_wordpool_less_exclusions.txt	LTP199	ltpFR	11	1	1	TROUSERS	1510	n/a	n/a	0	n/a	0	0	0	0.422607421875	0.5869140625	0	lower	zerothre.ttf
160360	START	n/a	LTP199	ltpFR	11	n/a	n/a	n/a	n/a	n/a	n/a	n/a	n/a	n/a	n/a	n/a	n/a	n/a	n/a	n/a	n/a
161380	PROB	n/a	LTP199	ltpFR	11	n/a	n/a	n/a	n/a	n/a	n/a	n/a	13	3	8	2	n/a	n/a	n/a	n/a	n/a
162628	PROB	n/a	LTP199	ltpFR	11	n/a	n/a	n/a	n/a	n/a	n/a	n/a	14	2	5	7	n/a	n/a	n/a	n/a	n/a
163665	PROB	n/a	LTP199	ltpFR	11	n/a	n/a	n/a	n/a	n/a	n/a	n/a	9	3	1	5	n/a	n/a	n/a	n/a	n/a
165506	PROB	n/a	LTP199	ltpFR	11	n/a	n/a	n/a	n/a	n/a	n/a	n/a	18	9	7	2	n/a	n/a	n/a	n/a	n/a
167113	STOP	n/a	LTP199	ltpFR	11	n/a	n/a	n/a	n/a	n/a	n/a	n/a	n/a	n/a	n/a	n/a	n/a	n/a	n/a	n/a	n/a
169370	WORD	wordpools/wasnorm_wordpool_less_exclusions.txt	LTP199	ltpFR	11	1	1	FLANNEL	574	n/a	n/a	0	n/a	0	0	0	0.422607421875	0.5869140625	0	lower	zerothre.ttf
172382	START	n/a	LTP199	ltpFR	11	n/a	n/a	n/a	n/a	n/a	n/a	n/a	n/a	n/a	n/a	n/a	n/a	n/a	n/a	n/a	n/a
173224	PROB	n/a	LTP199	ltpFR	11	n/a	n/a	n/a	n/a	n/a	n/a	n/a	14	5	2	7	n/a	n/a	n/a	n/a	n/a
174255	PROB	n/a	LTP199	ltpFR	11	n/a	n/a	n/a	n/a	n/a	n/a	n/a	10	3	1	6	n/a	n/a	n/a	n/a	n/a
175594	PROB	n/a	LTP199	ltpFR	11	n/a	n/a	n/a	n/a	n/a	n/a	n/a	11	5	1	5	n/a	n/a	n/a	n/a	n/a
176587	PROB	n/a	LTP199	ltpFR	11	n/a	n/a	n/a	n/a	n/a	n/a	n/a	11	9	1	1	n/a	n/a	n/a	n/a	n/a
178026	PROB	n/a	LTP199	ltpFR	11	n/a	n/a	n/a	n/a	n/a	n/a	n/a	16	5	5	6	n/a	n/a	n/a	n/a	n/a
178849	STOP	n/a	LTP199	ltpFR	11	n/a	n/a	n/a	n/a	n/a	n/a	n/a	n/a	n/a	n/a	n/a	n/a	n/a	n/a	n/a	n/a
181439	WORD	wordpools/wasnorm_wordpool_less_exclusions.txt	LTP199	ltpFR	11	1	1	MANAGER	863	n/a	n/a	1	n/a	0	0	0	0.422607421875	0.5869140625	0	lower	zerothre.ttf
184451	START	n/a	LTP199	ltpFR	11	n/a	n/a	n/a	n/a	n/a	n/a	n/a	n/a	n/a	n/a	n/a	n/a	n/a	n/a	n/a	n/a
185469	PROB	n/a	LTP199	ltpFR	11	n/a	n/a	n/a	n/a	n/a	n/a	n/a	20	8	5	7	n/a	n/a	n/a	n/a	n/a
186920	PROB	n/a	LTP199	ltpFR	11	n/a	n/a	n/a	n/a	n/a	n/a	n/a	13	6	2	5	n/a	n/a	n/a	n/a	n/a
188565	PROB	n/a	LTP199	ltpFR	11	n/a	n/a	n/a	n/a	n/a	n/a	n/a	14	5	2	7	n/a	n/a	n/a	n/a	n/a
189529	PROB	n/a	LTP199	ltpFR	11	n/a	n/a	n/a	n/a	n/a	n/a	n/a	9	1	5	3	n/a	n/a	n/a	n/a	n/a
191265	STOP	n/a	LTP199	ltpFR	11	n/a	n/a	n/a	n/a	n/a	n/a	n/a	n/a	n/a	n/a	n/a	n/a	n/a	n/a	n/a	n/a
193568	WORD	wordpools/wasnorm_wordpool_less_exclusions.txt	LTP199	ltpFR	11	1	0	HEDGE	699	n/a	n/a	1	n/a	0	0	0	0.57763671875	0.412841796875	1	upper	amplitud.ttf
196580	START	n/a	LTP199	ltpFR	11	n/a	n/a	n/a	n/a	n/a	n/a	n/a	n/a	n/a	n/a	n/a	n/a	n/a	n/a	n/a	n/a
197449	PROB	n/a	LTP199	ltpFR	11	n/a	n/a	n/a	n/a	n/a	n/a	n/a	11	1	9	1	n/a	n/a	n/a	n/a	n/a
198497	PROB	n/a	LTP199	ltpFR	11	n/a	n/a	n/a	n/a	n/a	n/a	n/a	14	6	7	1	n/a	n/a	n/a	n/a	n/a
200203	PROB	n/a	LTP199	ltpFR	11	n/a	n/a	n/a	n/a	n/a	n/a	n/a	10	5	4	1	n/a	n/a	n/a	n/a	n/a
201257	PROB	n/a	LTP199	ltpFR	11	n/a	n/a	n/a	n/a	n/a	n/a	n/a	16	8	5	3	n/a	n/a	n/a	n/a	n/a
203137	STOP	n/a	LTP199	ltpFR	11	n/a	n/a	n/a	n/a	n/a	n/a	n/a	n/a	n/a	n/a	n/a	n/a	n/a	n/a	n/a	n/a
205523	WORD	wordpools/wasnorm_wordpool_less_exclusions.txt	LTP199	ltpFR	11	1	0	CASH	252	n/a	n/a	0	n/a	0	0	0	0.57763671875	0.412841796875	1	upper	amplitud.ttf
208535	START	n/a	LTP199	ltpFR	11	n/a	n/a	n/a	n/a	n/a	n/a	n/a	n/a	n/a	n/a	n/a	n/a	n/a	n/a	n/a	n/a
209695	PROB	n/a	LTP199	ltpFR	11	n/a	n/a	n/a	n/a	n/a	n/a	n/a	16	6	3	7	n/a	n/a	n/a	n/a	n/a
210883	PROB	n/a	LTP199	ltpFR	11	n/a	n/a	n/a	n/a	n/a	n/a	n/a	19	6	6	7	n/a	n/a	n/a	n/a	n/a
212064	PROB	n/a	LTP199	ltpFR	11	n/a	n/a	n/a	n/a	n/a	n/a	n/a	23	6	8	9	n/a	n/a	n/a	n/a	n/a
213754	PROB	n/a	LTP199	ltpFR	11	n/a	n/a	n/a	n/a	n/a	n/a	n/a	15	6	1	8	n/a	n/a	n/a	n/a	n/a
215289	STOP	n/a	LTP199	ltpFR	11	n/a	n/a	n/a	n/a	n/a	n/a	n/a	n/a	n/a	n/a	n/a	n/a	n/a	n/a	n/a	n/a
217384	WORD	wordpools/wasnorm_wordpool_less_exclusions.txt	LTP199	ltpFR	11	1	1	TUBA	1515	n/a	n/a	0	n/a	0	0	0	0.422607421875	0.5869140625	0	lower	zerothre.ttf
220396	START	n/a	LTP199	ltpFR	11	n/a	n/a	n/a	n/a	n/a	n/a	n/a	n/a	n/a	n/a	n/a	n/a	n/a	n/a	n/a	n/a
221439	PROB	n/a	LTP199	ltpFR	11	n/a	n/a	n/a	n/a	n/a	n/a	n/a	12	8	3	1	n/a	n/a	n/a	n/a	n/a
222504	PROB	n/a	LTP199	ltpFR	11	n/a	n/a	n/a	n/a	n/a	n/a	n/a	8	3	4	1	n/a	n/a	n/a	n/a	n/a
223473	PROB	n/a	LTP199	ltpFR	11	n/a	n/a	n/a	n/a	n/a	n/a	n/a	19	9	4	6	n/a	n/a	n/a	n/a	n/a
224779	PROB	n/a	LTP199	ltpFR	11	n/a	n/a	n/a	n/a	n/a	n/a	n/a	11	8	2	1	n/a	n/a	n/a	n/a	n/a
226084	PROB	n/a	LTP199	ltpFR	11	n/a	n/a	n/a	n/a	n/a	n/a	n/a	15	3	6	6	n/a	n/a	n/a	n/a	n/a
227161	STOP	n/a	LTP199	ltpFR	11	n/a	n/a	n/a	n/a	n/a	n/a	n/a	n/a	n/a	n/a	n/a	n/a	n/a	n/a	n/a	n/a
229336	WORD	wordpools/wasnorm_wordpool_less_exclusions.txt	LTP199	ltpFR	11	1	1	CAMEL	223	n/a	n/a	1	n/a	0	0	0	0.422607421875	0.5869140625	0	lower	zerothre.ttf
232348	START	n/a	LTP199	ltpFR	11	n/a	n/a	n/a	n/a	n/a	n/a	n/a	n/a	n/a	n/a	n/a	n/a	n/a	n/a	n/a	n/a
233384	PROB	n/a	LTP199	ltpFR	11	n/a	n/a	n/a	n/a	n/a	n/a	n/a	18	8	3	7	n/a	n/a	n/a	n/a	n/a
234616	PROB	n/a	LTP199	ltpFR	11	n/a	n/a	n/a	n/a	n/a	n/a	n/a	5	2	1	2	n/a	n/a	n/a	n/a	n/a
235620	PROB	n/a	LTP199	ltpFR	11	n/a	n/a	n/a	n/a	n/a	n/a	n/a	15	6	5	4	n/a	n/a	n/a	n/a	n/a
236730	PROB	n/a	LTP199	ltpFR	11	n/a	n/a	n/a	n/a	n/a	n/a	n/a	15	1	9	5	n/a	n/a	n/a	n/a	n/a
237617	PROB	n/a	LTP199	ltpFR	11	n/a	n/a	n/a	n/a	n/a	n/a	n/a	8	3	4	1	n/a	n/a	n/a	n/a	n/a
238564	PROB	n/a	LTP199	ltpFR	11	n/a	n/a	n/a	n/a	n/a	n/a	n/a	15	1	9	5	n/a	n/a	n/a	n/a	n/a
239313	STOP	n/a	LTP199	ltpFR	11	n/a	n/a	n/a	n/a	n/a	n/a	n/a	n/a	n/a	n/a	n/a	n/a	n/a	n/a	n/a	n/a
241415	WORD	wordpools/wasnorm_wordpool_less_exclusions.txt	LTP199	ltpFR	11	1	1	WORKER	1621	n/a	n/a	1	n/a	0	0	0	0.422607421875	0.5869140625	0	lower	zerothre.ttf
244426	START	n/a	LTP199	ltpFR	11	n/a	n/a	n/a	n/a	n/a	n/a	n/a	n/a	n/a	n/a	n/a	n/a	n/a	n/a	n/a	n/a
245413	PROB	n/a	LTP199	ltpFR	11	n/a	n/a	n/a	n/a	n/a	n/a	n/a	10	2	7	1	n/a	n/a	n/a	n/a	n/a
246584	PROB	n/a	LTP199	ltpFR	11	n/a	n/a	n/a	n/a	n/a	n/a	n/a	16	7	6	3	n/a	n/a	n/a	n/a	n/a
250124	PROB	n/a	LTP199	ltpFR	11	n/a	n/a	n/a	n/a	n/a	n/a	n/a	24	9	6	9	n/a	n/a	n/a	n/a	n/a
252185	STOP	n/a	LTP199	ltpFR	11	n/a	n/a	n/a	n/a	n/a	n/a	n/a	n/a	n/a	n/a	n/a	n/a	n/a	n/a	n/a	n/a
253259	WORD	wordpools/wasnorm_wordpool_less_exclusions.txt	LTP199	ltpFR	11	1	1	BUGLE	189	n/a	n/a	1	n/a	0	0	0	0.422607421875	0.5869140625	0	lower	zerothre.ttf
256271	START	n/a	LTP199	ltpFR	11	n/a	n/a	n/a	n/a	n/a	n/a	n/a	n/a	n/a	n/a	n/a	n/a	n/a	n/a	n/a	n/a
257174	PROB	n/a	LTP199	ltpFR	11	n/a	n/a	n/a	n/a	n/a	n/a	n/a	12	7	4	1	n/a	n/a	n/a	n/a	n/a
258523	PROB	n/a	LTP199	ltpFR	11	n/a	n/a	n/a	n/a	n/a	n/a	n/a	6	3	1	2	n/a	n/a	n/a	n/a	n/a
259734	PROB	n/a	LTP199	ltpFR	11	n/a	n/a	n/a	n/a	n/a	n/a	n/a	12	7	2	3	n/a	n/a	n/a	n/a	n/a
261641	PROB	n/a	LTP199	ltpFR	11	n/a	n/a	n/a	n/a	n/a	n/a	n/a	11	3	5	3	n/a	n/a	n/a	n/a	n/a
262833	STOP	n/a	LTP199	ltpFR	11	n/a	n/a	n/a	n/a	n/a	n/a	n/a	n/a	n/a	n/a	n/a	n/a	n/a	n/a	n/a	n/a
265248	WORD	wordpools/wasnorm_wordpool_less_exclusions.txt	LTP199	ltpFR	11	1	1	SEED	1266	n/a	n/a	0	n/a	0	0	0	0.422607421875	0.5869140625	0	lower	zerothre.ttf
268260	START	n/a	LTP199	ltpFR	11	n/a	n/a	n/a	n/a	n/a	n/a	n/a	n/a	n/a	n/a	n/a	n/a	n/a	n/a	n/a	n/a
269270	PROB	n/a	LTP199	ltpFR	11	n/a	n/a	n/a	n/a	n/a	n/a	n/a	16	8	7	1	n/a	n/a	n/a	n/a	n/a
270725	PROB	n/a	LTP199	ltpFR	11	n/a	n/a	n/a	n/a	n/a	n/a	n/a	22	5	9	8	n/a	n/a	n/a	n/a	n/a
272114	PROB	n/a	LTP199	ltpFR	11	n/a	n/a	n/a	n/a	n/a	n/a	n/a	15	9	5	1	n/a	n/a	n/a	n/a	n/a
273402	PROB	n/a	LTP199	ltpFR	11	n/a	n/a	n/a	n/a	n/a	n/a	n/a	17	9	4	4	n/a	n/a	n/a	n/a	n/a
274761	STOP	n/a	LTP199	ltpFR	11	n/a	n/a	n/a	n/a	n/a	n/a	n/a	n/a	n/a	n/a	n/a	n/a	n/a	n/a	n/a	n/a
277333	WORD	wordpools/wasnorm_wordpool_less_exclusions.txt	LTP199	ltpFR	11	1	0	SHOWER	1296	n/a	n/a	1	n/a	0	0	0	0.57763671875	0.412841796875	1	upper	amplitud.ttf
280345	START	n/a	LTP199	ltpFR	11	n/a	n/a	n/a	n/a	n/a	n/a	n/a	n/a	n/a	n/a	n/a	n/a	n/a	n/a	n/a	n/a
281181	PROB	n/a	LTP199	ltpFR	11	n/a	n/a	n/a	n/a	n/a	n/a	n/a	18	7	6	5	n/a	n/a	n/a	n/a	n/a
282697	PROB	n/a	LTP199	ltpFR	11	n/a	n/a	n/a	n/a	n/a	n/a	n/a	7	2	2	3	n/a	n/a	n/a	n/a	n/a
283785	PROB	n/a	LTP199	ltpFR	11	n/a	n/a	n/a	n/a	n/a	n/a	n/a	20	8	5	7	n/a	n/a	n/a	n/a	n/a
285458	PROB	n/a	LTP199	ltpFR	11	n/a	n/a	n/a	n/a	n/a	n/a	n/a	22	5	9	8	n/a	n/a	n/a	n/a	n/a
286813	PROB	n/a	LTP199	ltpFR	11	n/a	n/a	n/a	n/a	n/a	n/a	n/a	19	3	8	8	n/a	n/a	n/a	n/a	n/a
288113	STOP	n/a	LTP199	ltpFR	11	n/a	n/a	n/a	n/a	n/a	n/a	n/a	n/a	n/a	n/a	n/a	n/a	n/a	n/a	n/a	n/a
289395	WORD	wordpools/wasnorm_wordpool_less_exclusions.txt	LTP199	ltpFR	11	1	0	DOVE	491	n/a	n/a	1	n/a	0	0	0	0.57763671875	0.412841796875	1	upper	amplitud.ttf
292407	START	n/a	LTP199	ltpFR	11	n/a	n/a	n/a	n/a	n/a	n/a	n/a	n/a	n/a	n/a	n/a	n/a	n/a	n/a	n/a	n/a
293337	PROB	n/a	LTP199	ltpFR	11	n/a	n/a	n/a	n/a	n/a	n/a	n/a	21	9	4	8	n/a	n/a	n/a	n/a	n/a
294977	PROB	n/a	LTP199	ltpFR	11	n/a	n/a	n/a	n/a	n/a	n/a	n/a	15	4	2	7	n/a	n/a	n/a	n/a	n/a
296505	PROB	n/a	LTP199	ltpFR	11	n/a	n/a	n/a	n/a	n/a	n/a	n/a	12	5	5	2	n/a	n/a	n/a	n/a	n/a
297704	PROB	n/a	LTP199	ltpFR	11	n/a	n/a	n/a	n/a	n/a	n/a	n/a	12	7	1	4	n/a	n/a	n/a	n/a	n/a
298849	STOP	n/a	LTP199	ltpFR	11	n/a	n/a	n/a	n/a	n/a	n/a	n/a	n/a	n/a	n/a	n/a	n/a	n/a	n/a	n/a	n/a
301508	WORD	wordpools/wasnorm_wordpool_less_exclusions.txt	LTP199	ltpFR	11	1	0	AFRICA	9	n/a	n/a	1	n/a	0	0	0	0.57763671875	0.412841796875	1	upper	amplitud.ttf
304520	START	n/a	LTP199	ltpFR	11	n/a	n/a	n/a	n/a	n/a	n/a	n/a	n/a	n/a	n/a	n/a	n/a	n/a	n/a	n/a	n/a
305456	PROB	n/a	LTP199	ltpFR	11	n/a	n/a	n/a	n/a	n/a	n/a	n/a	11	6	1	4	n/a	n/a	n/a	n/a	n/a
306828	PROB	n/a	LTP199	ltpFR	11	n/a	n/a	n/a	n/a	n/a	n/a	n/a	17	6	7	4	n/a	n/a	n/a	n/a	n/a
309354	PROB	n/a	LTP199	ltpFR	11	n/a	n/a	n/a	n/a	n/a	n/a	n/a	18	8	7	3	n/a	n/a	n/a	n/a	n/a
310993	STOP	n/a	LTP199	ltpFR	11	n/a	n/a	n/a	n/a	n/a	n/a	n/a	n/a	n/a	n/a	n/a	n/a	n/a	n/a	n/a	n/a
313369	WORD	wordpools/wasnorm_wordpool_less_exclusions.txt	LTP199	ltpFR	11	1	0	CIGAR	308	n/a	n/a	0	n/a	0	0	0	0.57763671875	0.412841796875	1	upper	amplitud.ttf
316381	START	n/a	LTP199	ltpFR	11	n/a	n/a	n/a	n/a	n/a	n/a	n/a	n/a	n/a	n/a	n/a	n/a	n/a	n/a	n/a	n/a
317401	PROB	n/a	LTP199	ltpFR	11	n/a	n/a	n/a	n/a	n/a	n/a	n/a	18	8	6	5	n/a	n/a	n/a	n/a	n/a
318967	PROB	n/a	LTP199	ltpFR	11	n/a	n/a	n/a	n/a	n/a	n/a	n/a	18	8	3	7	n/a	n/a	n/a	n/a	n/a
321109	PROB	n/a	LTP199	ltpFR	11	n/a	n/a	n/a	n/a	n/a	n/a	n/a	18	8	2	8	n/a	n/a	n/a	n/a	n/a
322079	PROB	n/a	LTP199	ltpFR	11	n/a	n/a	n/a	n/a	n/a	n/a	n/a	13	3	4	6	n/a	n/a	n/a	n/a	n/a
323729	STOP	n/a	LTP199	ltpFR	11	n/a	n/a	n/a	n/a	n/a	n/a	n/a	n/a	n/a	n/a	n/a	n/a	n/a	n/a	n/a	n/a
326252	REC_START	n/a	LTP199	ltpFR	11	1	n/a	n/a	n/a	n/a	n/a	n/a	n/a	0	0	0	n/a	n/a	n/a	n/a	n/a
327783	REC_WORD	wordpools/wasnorm_wordpool_less_exclusions.txt	LTP199	ltpFR	11	1	0	CROW	414	n/a	n/a	1	n/a	0	0	0	n/a	n/a	n/a	n/a	n/a
328731	REC_WORD	wordpools/wasnorm_wordpool_less_exclusions.txt	LTP199	ltpFR	11	1	0	PARROT	1015	n/a	n/a	1	n/a	0	0	0	n/a	n/a	n/a	n/a	n/a
330003	REC_WORD	wordpools/wasnorm_wordpool_less_exclusions.txt	LTP199	ltpFR	11	1	1	TROUSERS	1510	n/a	n/a	0	n/a	0	0	0	n/a	n/a	n/a	n/a	n/a
331779	REC_WORD	wordpools/wasnorm_wordpool_less_exclusions.txt	LTP199	ltpFR	11	1	1	FLANNEL	574	n/a	n/a	0	n/a	0	0	0	n/a	n/a	n/a	n/a	n/a
334653	REC_WORD	wordpools/wasnorm_wordpool_less_exclusions.txt	LTP199	ltpFR	11	1	1	MANAGER	863	n/a	n/a	1	n/a	0	0	0	n/a	n/a	n/a	n/a	n/a
335561	REC_WORD	wordpools/wasnorm_wordpool_less_exclusions.txt	LTP199	ltpFR	11	1	1	WORKER	1621	n/a	n/a	1	n/a	0	0	0	n/a	n/a	n/a	n/a	n/a
337511	REC_WORD	wordpools/wasnorm_wordpool_less_exclusions.txt	LTP199	ltpFR	11	1	1	MANAGER	863	n/a	n/a	1	n/a	0	0	0	n/a	n/a	n/a	n/a	n/a
340011	REC_WORD	wordpools/wasnorm_wordpool_less_exclusions.txt	LTP199	ltpFR	11	1	0	SHOWER	1296	n/a	n/a	1	n/a	0	0	0	n/a	n/a	n/a	n/a	n/a
341452	REC_WORD	wordpools/wasnorm_wordpool_less_exclusions.txt	LTP199	ltpFR	11	1	0	AFRICA	9	n/a	n/a	1	n/a	0	0	0	n/a	n/a	n/a	n/a	n/a
342450	REC_WORD	wordpools/wasnorm_wordpool_less_exclusions.txt	LTP199	ltpFR	11	1	0	CIGAR	308	n/a	n/a	0	n/a	0	0	0	n/a	n/a	n/a	n/a	n/a
360319	REC_WORD	wordpools/wasnorm_wordpool_less_exclusions.txt	LTP199	ltpFR	11	1	0	DOVE	491	n/a	n/a	1	n/a	0	0	0	n/a	n/a	n/a	n/a	n/a
412235	WORD	wordpools/wasnorm_wordpool_less_exclusions.txt	LTP199	ltpFR	11	2	1	LAMB	797	n/a	n/a	1	n/a	0	0	0	0.422607421875	0.5869140625	0	lower	zerothre.ttf
416374	WORD	wordpools/wasnorm_wordpool_less_exclusions.txt	LTP199	ltpFR	11	2	1	FAUCET	555	n/a	n/a	0	n/a	0	0	0	0.422607421875	0.5869140625	0	lower	zerothre.ttf
420322	WORD	wordpools/wasnorm_wordpool_less_exclusions.txt	LTP199	ltpFR	11	2	1	SEAT	1264	n/a	n/a	0	n/a	0	0	0	0.422607421875	0.5869140625	0	lower	zerothre.ttf
424521	WORD	wordpools/wasnorm_wordpool_less_exclusions.txt	LTP199	ltpFR	11	2	1	STOOL	1386	n/a	n/a	0	n/a	0	0	0	0.422607421875	0.5869140625	0	lower	zerothre.ttf
428704	WORD	wordpools/wasnorm_wordpool_less_exclusions.txt	LTP199	ltpFR	11	2	0	TICKET	1464	n/a	n/a	0	n/a	0	0	0	0.57763671875	0.412841796875	1	upper	amplitud.ttf
432652	WORD	wordpools/wasnorm_wordpool_less_exclusions.txt	LTP199	ltpFR	11	2	0	STICKER	1382	n/a	n/a	0	n/a	0	0	0	0.57763671875	0.412841796875	1	upper	amplitud.ttf
436784	WORD	wordpools/wasnorm_wordpool_less_exclusions.txt	LTP199	ltpFR	11	2	0	CHAUFFEUR	283	n/a	n/a	1	n/a	0	0	0	0.57763671875	0.412841796875	1	upper	amplitud.ttf
440893	WORD	wordpools/wasnorm_wordpool_less_exclusions.txt	LTP199	ltpFR	11	2	1	DESIGNER	451	n/a	n/a	1	n/a	0	0	0	0.422607421875	0.5869140625	0	lower	zerothre.ttf
444881	WORD	wordpools/wasnorm_wordpool_less_exclusions.txt	LTP199	ltpFR	11	2	1	OTTER	986	n/a	n/a	1	n/a	0	0	0	0.422607421875	0.5869140625	0	lower	zerothre.ttf
448863	WORD	wordpools/wasnorm_wordpool_less_exclusions.txt	LTP199	ltpFR	11	2	0	CREATURE	403	n/a	n/a	1	n/a	0	0	0	0.57763671875	0.412841796875	1	upper	amplitud.ttf
452738	WORD	wordpools/wasnorm_wordpool_less_exclusions.txt	LTP199	ltpFR	11	2	0	COUGAR	387	n/a	n/a	1	n/a	0	0	0	0.57763671875	0.412841796875	1	upper	amplitud.ttf
456659	WORD	wordpools/wasnorm_wordpool_less_exclusions.txt	LTP199	ltpFR	11	2	0	CRICKET	408	n/a	n/a	0	n/a	0	0	0	0.57763671875	0.412841796875	1	upper	amplitud.ttf
460601	WORD	wordpools/wasnorm_wordpool_less_exclusions.txt	LTP199	ltpFR	11	2	0	CLIFF	322	n/a	n/a	1	n/a	0	0	0	0.57763671875	0.412841796875	1	upper	amplitud.ttf
464549	WORD	wordpools/wasnorm_wordpool_less_exclusions.txt	LTP199	ltpFR	11	2	0	CARAVAN	242	n/a	n/a	1	n/a	0	0	0	0.57763671875	0.412841796875	1	upper	amplitud.ttf
468771	WORD	wordpools/wasnorm_wordpool_less_exclusions.txt	LTP199	ltpFR	11	2	1	DANDRUFF	439	n/a	n/a	0	n/a	0	0	0	0.422607421875	0.5869140625	0	lower	zerothre.ttf
472820	WORD	wordpools/wasnorm_wordpool_less_exclusions.txt	LTP199	ltpFR	11	2	1	BRAN	167	n/a	n/a	0	n/a	0	0	0	0.422607421875	0.5869140625	0	lower	zerothre.ttf
475832	START	n/a	LTP199	ltpFR	11	n/a	n/a	n/a	n/a	n/a	n/a	n/a	n/a	n/a	n/a	n/a	n/a	n/a	n/a	n/a	n/a
476896	PROB	n/a	LTP199	ltpFR	11	n/a	n/a	n/a	n/a	n/a	n/a	n/a	18	4	7	7	n/a	n/a	n/a	n/a	n/a
478468	PROB	n/a	LTP199	ltpFR	11	n/a	n/a	n/a	n/a	n/a	n/a	n/a	18	8	7	3	n/a	n/a	n/a	n/a	n/a
479796	PROB	n/a	LTP199	ltpFR	11	n/a	n/a	n/a	n/a	n/a	n/a	n/a	16	9	1	6	n/a	n/a	n/a	n/a	n/a
480884	PROB	n/a	LTP199	ltpFR	11	n/a	n/a	n/a	n/a	n/a	n/a	n/a	17	8	3	6	n/a	n/a	n/a	n/a	n/a
482132	PROB	n/a	LTP199	ltpFR	11	n/a	n/a	n/a	n/a	n/a	n/a	n/a	9	5	3	1	n/a	n/a	n/a	n/a	n/a
483097	STOP	n/a	LTP199	ltpFR	11	n/a	n/a	n/a	n/a	n/a	n/a	n/a	n/a	n/a	n/a	n/a	n/a	n/a	n/a	n/a	n/a
485713	REC_START	n/a	LTP199	ltpFR	11	2	n/a	n/a	n/a	n/a	n/a	n/a	n/a	0	0	0	n/a	n/a	n/a	n/a	n/a
487125	REC_WORD	wordpools/wasnorm_wordpool_less_exclusions.txt	LTP199	ltpFR	11	2	1	LAMB	797	n/a	n/a	1	n/a	0	0	0	n/a	n/a	n/a	n/a	n/a
488796	REC_WORD	wordpools/wasnorm_wordpool_less_exclusions.txt	LTP199	ltpFR	11	2	0	CHAUFFEUR	283	n/a	n/a	1	n/a	0	0	0	n/a	n/a	n/a	n/a	n/a
490362	REC_WORD	wordpools/wasnorm_wordpool_less_exclusions.txt	LTP199	ltpFR	11	2	1	DESIGNER	451	n/a	n/a	1	n/a	0	0	0	n/a	n/a	n/a	n/a	n/a
494692	REC_WORD	wordpools/wasnorm_wordpool_less_exclusions.txt	LTP199	ltpFR	11	2	1	SEAT	1264	n/a	n/a	0	n/a	0	0	0	n/a	n/a	n/a	n/a	n/a
495490	REC_WORD	wordpools/wasnorm_wordpool_less_exclusions.txt	LTP199	ltpFR	11	2	1	STOOL	1386	n/a	n/a	0	n/a	0	0	0	n/a	n/a	n/a	n/a	n/a
497242	REC_WORD	wordpools/wasnorm_wordpool_less_exclusions.txt	LTP199	ltpFR	11	2	0	TICKET	1464	n/a	n/a	0	n/a	0	0	0	n/a	n/a	n/a	n/a	n/a
499511	REC_WORD	wordpools/wasnorm_wordpool_less_exclusions.txt	LTP199	ltpFR	11	2	0	STICKER	1382	n/a	n/a	0	n/a	0	0	0	n/a	n/a	n/a	n/a	n/a
503457	REC_WORD	wordpools/wasnorm_wordpool_less_exclusions.txt	LTP199	ltpFR	11	2	1	BRAN	167	n/a	n/a	0	n/a	0	0	0	n/a	n/a	n/a	n/a	n/a
507503	REC_WORD	wordpools/wasnorm_wordpool_less_exclusions.txt	LTP199	ltpFR	11	2	1	OTTER	986	n/a	n/a	1	n/a	0	0	0	n/a	n/a	n/a	n/a	n/a
508406	REC_WORD	wordpools/wasnorm_wordpool_less_exclusions.txt	LTP199	ltpFR	11	2	0	CREATURE	403	n/a	n/a	1	n/a	0	0	0	n/a	n/a	n/a	n/a	n/a
510566	REC_WORD	wordpools/wasnorm_wordpool_less_exclusions.txt	LTP199	ltpFR	11	2	0	COUGAR	387	n/a	n/a	1	n/a	0	0	0	n/a	n/a	n/a	n/a	n/a
511978	REC_WORD	wordpools/wasnorm_wordpool_less_exclusions.txt	LTP199	ltpFR	11	2	1	DANDRUFF	439	n/a	n/a	0	n/a	0	0	0	n/a	n/a	n/a	n/a	n/a
514842	REC_WORD	wordpools/wasnorm_wordpool_less_exclusions.txt	LTP199	ltpFR	11	2	0	CRICKET	408	n/a	n/a	0	n/a	0	0	0	n/a	n/a	n/a	n/a	n/a
597472	START	n/a	LTP199	ltpFR	11	n/a	n/a	n/a	n/a	n/a	n/a	n/a	n/a	n/a	n/a	n/a	n/a	n/a	n/a	n/a	n/a
598989	PROB	n/a	LTP199	ltpFR	11	n/a	n/a	n/a	n/a	n/a	n/a	n/a	18	3	9	6	n/a	n/a	n/a	n/a	n/a
600578	PROB	n/a	LTP199	ltpFR	11	n/a	n/a	n/a	n/a	n/a	n/a	n/a	10	1	4	5	n/a	n/a	n/a	n/a	n/a
601800	PROB	n/a	LTP199	ltpFR	11	n/a	n/a	n/a	n/a	n/a	n/a	n/a	15	7	3	5	n/a	n/a	n/a	n/a	n/a
602670	PROB	n/a	LTP199	ltpFR	11	n/a	n/a	n/a	n/a	n/a	n/a	n/a	23	8	7	8	n/a	n/a	n/a	n/a	n/a
604785	STOP	n/a	LTP199	ltpFR	11	n/a	n/a	n/a	n/a	n/a	n/a	n/a	n/a	n/a	n/a	n/a	n/a	n/a	n/a	n/a	n/a
606407	WORD	wordpools/wasnorm_wordpool_less_exclusions.txt	LTP199	ltpFR	11	3	1	BAY	102	n/a	n/a	0	n/a	0	0	0	0.422607421875	0.5869140625	0	lower	zerothre.ttf
609419	START	n/a	LTP199	ltpFR	11	n/a	n/a	n/a	n/a	n/a	n/a	n/a	n/a	n/a	n/a	n/a	n/a	n/a	n/a	n/a	n/a
610572	PROB	n/a	LTP199	ltpFR	11	n/a	n/a	n/a	n/a	n/a	n/a	n/a	16	8	6	4	n/a	n/a	n/a	n/a	n/a
612273	PROB	n/a	LTP199	ltpFR	11	n/a	n/a	n/a	n/a	n/a	n/a	n/a	22	5	8	9	n/a	n/a	n/a	n/a	n/a
613985	PROB	n/a	LTP199	ltpFR	11	n/a	n/a	n/a	n/a	n/a	n/a	n/a	10	5	4	1	n/a	n/a	n/a	n/a	n/a
615033	PROB	n/a	LTP199	ltpFR	11	n/a	n/a	n/a	n/a	n/a	n/a	n/a	20	7	9	4	n/a	n/a	n/a	n/a	n/a
616193	STOP	n/a	LTP199	ltpFR	11	n/a	n/a	n/a	n/a	n/a	n/a	n/a	n/a	n/a	n/a	n/a	n/a	n/a	n/a	n/a	n/a
618580	WORD	wordpools/wasnorm_wordpool_less_exclusions.txt	LTP199	ltpFR	11	3	1	MARINE	869	n/a	n/a	1	n/a	0	0	0	0.422607421875	0.5869140625	0	lower	zerothre.ttf
621598	START	n/a	LTP199	ltpFR	11	n/a	n/a	n/a	n/a	n/a	n/a	n/a	n/a	n/a	n/a	n/a	n/a	n/a	n/a	n/a	n/a
622701	PROB	n/a	LTP199	ltpFR	11	n/a	n/a	n/a	n/a	n/a	n/a	n/a	19	6	9	4	n/a	n/a	n/a	n/a	n/a
624385	PROB	n/a	LTP199	ltpFR	11	n/a	n/a	n/a	n/a	n/a	n/a	n/a	11	6	2	3	n/a	n/a	n/a	n/a	n/a
626208	PROB	n/a	LTP199	ltpFR	11	n/a	n/a	n/a	n/a	n/a	n/a	n/a	15	4	9	2	n/a	n/a	n/a	n/a	n/a
627453	PROB	n/a	LTP199	ltpFR	11	n/a	n/a	n/a	n/a	n/a	n/a	n/a	18	6	7	5	n/a	n/a	n/a	n/a	n/a
628977	STOP	n/a	LTP199	ltpFR	11	n/a	n/a	n/a	n/a	n/a	n/a	n/a	n/a	n/a	n/a	n/a	n/a	n/a	n/a	n/a	n/a
630782	WORD	wordpools/wasnorm_wordpool_less_exclusions.txt	LTP199	ltpFR	11	3	1	GENERAL	630	n/a	n/a	1	n/a	0	0	0	0.422607421875	0.5869140625	0	lower	zerothre.ttf
633794	START	n/a	LTP199	ltpFR	11	n/a	n/a	n/a	n/a	n/a	n/a	n/a	n/a	n/a	n/a	n/a	n/a	n/a	n/a	n/a	n/a
634814	PROB	n/a	LTP199	ltpFR	11	n/a	n/a	n/a	n/a	n/a	n/a	n/a	18	6	6	6	n/a	n/a	n/a	n/a	n/a
636347	PROB	n/a	LTP199	ltpFR	11	n/a	n/a	n/a	n/a	n/a	n/a	n/a	13	7	2	4	n/a	n/a	n/a	n/a	n/a
637953	PROB	n/a	LTP199	ltpFR	11	n/a	n/a	n/a	n/a	n/a	n/a	n/a	8	5	1	2	n/a	n/a	n/a	n/a	n/a
639197	PROB	n/a	LTP199	ltpFR	11	n/a	n/a	n/a	n/a	n/a	n/a	n/a	11	6	4	1	n/a	n/a	n/a	n/a	n/a
641794	STOP	n/a	LTP199	ltpFR	11	n/a	n/a	n/a	n/a	n/a	n/a	n/a	n/a	n/a	n/a	n/a	n/a	n/a	n/a	n/a	n/a
642888	WORD	wordpools/wasnorm_wordpool_less_exclusions.txt	LTP199	ltpFR	11	3	1	TROUT	1511	n/a	n/a	1	n/a	0	0	0	0.422607421875	0.5869140625	0	lower	zerothre.ttf
645900	START	n/a	LTP199	ltpFR	11	n/a	n/a	n/a	n/a	n/a	n/a	n/a	n/a	n/a	n/a	n/a	n/a	n/a	n/a	n/a	n/a
646842	PROB	n/a	LTP199	ltpFR	11	n/a	n/a	n/a	n/a	n/a	n/a	n/a	11	3	5	3	n/a	n/a	n/a	n/a	n/a
648526	PROB	n/a	LTP199	ltpFR	11	n/a	n/a	n/a	n/a	n/a	n/a	n/a	23	8	6	9	n/a	n/a	n/a	n/a	n/a
650935	PROB	n/a	LTP199	ltpFR	11	n/a	n/a	n/a	n/a	n/a	n/a	n/a	15	4	5	6	n/a	n/a	n/a	n/a	n/a
652089	PROB	n/a	LTP199	ltpFR	11	n/a	n/a	n/a	n/a	n/a	n/a	n/a	7	5	1	1	n/a	n/a	n/a	n/a	n/a
653129	STOP	n/a	LTP199	ltpFR	11	n/a	n/a	n/a	n/a	n/a	n/a	n/a	n/a	n/a	n/a	n/a	n/a	n/a	n/a	n/a	n/a
654833	WORD	wordpools/wasnorm_wordpool_less_exclusions.txt	LTP199	ltpFR	11	3	1	WHALE	1601	n/a	n/a	1	n/a	0	0	0	0.422607421875	0.5869140625	0	lower	zerothre.ttf
657845	START	n/a	LTP199	ltpFR	11	n/a	n/a	n/a	n/a	n/a	n/a	n/a	n/a	n/a	n/a	n/a	n/a	n/a	n/a	n/a	n/a
658737	PROB	n/a	LTP199	ltpFR	11	n/a	n/a	n/a	n/a	n/a	n/a	n/a	18	8	9	1	n/a	n/a	n/a	n/a	n/a
660109	PROB	n/a	LTP199	ltpFR	11	n/a	n/a	n/a	n/a	n/a	n/a	n/a	16	2	7	7	n/a	n/a	n/a	n/a	n/a
661424	PROB	n/a	LTP199	ltpFR	11	n/a	n/a	n/a	n/a	n/a	n/a	n/a	15	4	5	6	n/a	n/a	n/a	n/a	n/a
662629	PROB	n/a	LTP199	ltpFR	11	n/a	n/a	n/a	n/a	n/a	n/a	n/a	12	3	3	6	n/a	n/a	n/a	n/a	n/a
664319	PROB	n/a	LTP199	ltpFR	11	n/a	n/a	n/a	n/a	n/a	n/a	n/a	17	9	1	7	n/a	n/a	n/a	n/a	n/a
665657	STOP	n/a	LTP199	ltpFR	11	n/a	n/a	n/a	n/a	n/a	n/a	n/a	n/a	n/a	n/a	n/a	n/a	n/a	n/a	n/a	n/a
667062	WORD	wordpools/wasnorm_wordpool_less_exclusions.txt	LTP199	ltpFR	11	3	1	SUITCASE	1403	n/a	n/a	0	n/a	0	0	0	0.422607421875	0.5869140625	0	lower	zerothre.ttf
670074	START	n/a	LTP199	ltpFR	11	n/a	n/a	n/a	n/a	n/a	n/a	n/a	n/a	n/a	n/a	n/a	n/a	n/a	n/a	n/a	n/a
671278	PROB	n/a	LTP199	ltpFR	11	n/a	n/a	n/a	n/a	n/a	n/a	n/a	13	5	7	1	n/a	n/a	n/a	n/a	n/a
672834	PROB	n/a	LTP199	ltpFR	11	n/a	n/a	n/a	n/a	n/a	n/a	n/a	12	7	1	4	n/a	n/a	n/a	n/a	n/a
674212	PROB	n/a	LTP199	ltpFR	11	n/a	n/a	n/a	n/a	n/a	n/a	n/a	17	8	6	5	n/a	n/a	n/a	n/a	n/a
675885	PROB	n/a	LTP199	ltpFR	11	n/a	n/a	n/a	n/a	n/a	n/a	n/a	10	1	5	4	n/a	n/a	n/a	n/a	n/a
677049	STOP	n/a	LTP199	ltpFR	11	n/a	n/a	n/a	n/a	n/a	n/a	n/a	n/a	n/a	n/a	n/a	n/a	n/a	n/a	n/a	n/a
679265	WORD	wordpools/wasnorm_wordpool_less_exclusions.txt	LTP199	ltpFR	11	3	1	BANQUET	86	n/a	n/a	0	n/a	0	0	0	0.422607421875	0.5869140625	0	lower	zerothre.ttf
682276	START	n/a	LTP199	ltpFR	11	n/a	n/a	n/a	n/a	n/a	n/a	n/a	n/a	n/a	n/a	n/a	n/a	n/a	n/a	n/a	n/a
683357	PROB	n/a	LTP199	ltpFR	11	n/a	n/a	n/a	n/a	n/a	n/a	n/a	19	6	6	7	n/a	n/a	n/a	n/a	n/a
685103	PROB	n/a	LTP199	ltpFR	11	n/a	n/a	n/a	n/a	n/a	n/a	n/a	20	4	8	8	n/a	n/a	n/a	n/a	n/a
687295	PROB	n/a	LTP199	ltpFR	11	n/a	n/a	n/a	n/a	n/a	n/a	n/a	14	6	1	7	n/a	n/a	n/a	n/a	n/a
688342	PROB	n/a	LTP199	ltpFR	11	n/a	n/a	n/a	n/a	n/a	n/a	n/a	11	2	6	3	n/a	n/a	n/a	n/a	n/a
689425	STOP	n/a	LTP199	ltpFR	11	n/a	n/a	n/a	n/a	n/a	n/a	n/a	n/a	n/a	n/a	n/a	n/a	n/a	n/a	n/a	n/a
691488	WORD	wordpools/wasnorm_wordpool_less_exclusions.txt	LTP199	ltpFR	11	3	1	DEPUTY	450	n/a	n/a	1	n/a	0	0	0	0.422607421875	0.5869140625	0	lower	zerothre.ttf
694506	START	n/a	LTP199	ltpFR	11	n/a	n/a	n/a	n/a	n/a	n/a	n/a	n/a	n/a	n/a	n/a	n/a	n/a	n/a	n/a	n/a
695436	PROB	n/a	LTP199	ltpFR	11	n/a	n/a	n/a	n/a	n/a	n/a	n/a	10	6	2	2	n/a	n/a	n/a	n/a	n/a
697059	PROB	n/a	LTP199	ltpFR	11	n/a	n/a	n/a	n/a	n/a	n/a	n/a	22	8	9	5	n/a	n/a	n/a	n/a	n/a
698504	PROB	n/a	LTP199	ltpFR	11	n/a	n/a	n/a	n/a	n/a	n/a	n/a	18	5	9	4	n/a	n/a	n/a	n/a	n/a
700043	PROB	n/a	LTP199	ltpFR	11	n/a	n/a	n/a	n/a	n/a	n/a	n/a	11	6	2	3	n/a	n/a	n/a	n/a	n/a
701737	STOP	n/a	LTP199	ltpFR	11	n/a	n/a	n/a	n/a	n/a	n/a	n/a	n/a	n/a	n/a	n/a	n/a	n/a	n/a	n/a	n/a
703483	WORD	wordpools/wasnorm_wordpool_less_exclusions.txt	LTP199	ltpFR	11	3	1	UNIFORM	1539	n/a	n/a	0	n/a	0	0	0	0.422607421875	0.5869140625	0	lower	zerothre.ttf
706495	START	n/a	LTP199	ltpFR	11	n/a	n/a	n/a	n/a	n/a	n/a	n/a	n/a	n/a	n/a	n/a	n/a	n/a	n/a	n/a	n/a
707655	PROB	n/a	LTP199	ltpFR	11	n/a	n/a	n/a	n/a	n/a	n/a	n/a	18	8	3	7	n/a	n/a	n/a	n/a	n/a
708709	PROB	n/a	LTP199	ltpFR	11	n/a	n/a	n/a	n/a	n/a	n/a	n/a	21	8	6	7	n/a	n/a	n/a	n/a	n/a
710426	PROB	n/a	LTP199	ltpFR	11	n/a	n/a	n/a	n/a	n/a	n/a	n/a	15	5	6	4	n/a	n/a	n/a	n/a	n/a
711563	PROB	n/a	LTP199	ltpFR	11	n/a	n/a	n/a	n/a	n/a	n/a	n/a	14	8	1	5	n/a	n/a	n/a	n/a	n/a
714481	STOP	n/a	LTP199	ltpFR	11	n/a	n/a	n/a	n/a	n/a	n/a	n/a	n/a	n/a	n/a	n/a	n/a	n/a	n/a	n/a	n/a
715351	WORD	wordpools/wasnorm_wordpool_less_exclusions.txt	LTP199	ltpFR	11	3	1	SILVERWARE	1308	n/a	n/a	0	n/a	0	0	0	0.422607421875	0.5869140625	0	lower	zerothre.ttf
718362	START	n/a	LTP199	ltpFR	11	n/a	n/a	n/a	n/a	n/a	n/a	n/a	n/a	n/a	n/a	n/a	n/a	n/a	n/a	n/a	n/a
719483	PROB	n/a	LTP199	ltpFR	11	n/a	n/a	n/a	n/a	n/a	n/a	n/a	10	1	8	1	n/a	n/a	n/a	n/a	n/a
720564	PROB	n/a	LTP199	ltpFR	11	n/a	n/a	n/a	n/a	n/a	n/a	n/a	20	9	4	7	n/a	n/a	n/a	n/a	n/a
721769	PROB	n/a	LTP199	ltpFR	11	n/a	n/a	n/a	n/a	n/a	n/a	n/a	10	1	6	3	n/a	n/a	n/a	n/a	n/a
723659	PROB	n/a	LTP199	ltpFR	11	n/a	n/a	n/a	n/a	n/a	n/a	n/a	9	3	1	5	n/a	n/a	n/a	n/a	n/a
724857	STOP	n/a	LTP199	ltpFR	11	n/a	n/a	n/a	n/a	n/a	n/a	n/a	n/a	n/a	n/a	n/a	n/a	n/a	n/a	n/a	n/a
727222	WORD	wordpools/wasnorm_wordpool_less_exclusions.txt	LTP199	ltpFR	11	3	1	PASTRY	1022	n/a	n/a	0	n/a	0	0	0	0.422607421875	0.5869140625	0	lower	zerothre.ttf
730234	START	n/a	LTP199	ltpFR	11	n/a	n/a	n/a	n/a	n/a	n/a	n/a	n/a	n/a	n/a	n/a	n/a	n/a	n/a	n/a	n/a
731053	PROB	n/a	LTP199	ltpFR	11	n/a	n/a	n/a	n/a	n/a	n/a	n/a	16	2	5	9	n/a	n/a	n/a	n/a	n/a
732308	PROB	n/a	LTP199	ltpFR	11	n/a	n/a	n/a	n/a	n/a	n/a	n/a	12	6	1	5	n/a	n/a	n/a	n/a	n/a
733530	PROB	n/a	LTP199	ltpFR	11	n/a	n/a	n/a	n/a	n/a	n/a	n/a	10	7	2	1	n/a	n/a	n/a	n/a	n/a
734567	PROB	n/a	LTP199	ltpFR	11	n/a	n/a	n/a	n/a	n/a	n/a	n/a	25	9	8	8	n/a	n/a	n/a	n/a	n/a
738234	STOP	n/a	LTP199	ltpFR	11	n/a	n/a	n/a	n/a	n/a	n/a	n/a	n/a	n/a	n/a	n/a	n/a	n/a	n/a	n/a	n/a
739107	WORD	wordpools/wasnorm_wordpool_less_exclusions.txt	LTP199	ltpFR	11	3	1	TOAST	1471	n/a	n/a	0	n/a	0	0	0	0.422607421875	0.5869140625	0	lower	zerothre.ttf
742119	START	n/a	LTP199	ltpFR	11	n/a	n/a	n/a	n/a	n/a	n/a	n/a	n/a	n/a	n/a	n/a	n/a	n/a	n/a	n/a	n/a
742948	PROB	n/a	LTP199	ltpFR	11	n/a	n/a	n/a	n/a	n/a	n/a	n/a	12	3	6	3	n/a	n/a	n/a	n/a	n/a
744253	PROB	n/a	LTP199	ltpFR	11	n/a	n/a	n/a	n/a	n/a	n/a	n/a	15	9	2	4	n/a	n/a	n/a	n/a	n/a
745341	PROB	n/a	LTP199	ltpFR	11	n/a	n/a	n/a	n/a	n/a	n/a	n/a	15	8	4	3	n/a	n/a	n/a	n/a	n/a
746886	PROB	n/a	LTP199	ltpFR	11	n/a	n/a	n/a	n/a	n/a	n/a	n/a	21	6	9	6	n/a	n/a	n/a	n/a	n/a
748302	PROB	n/a	LTP199	ltpFR	11	n/a	n/a	n/a	n/a	n/a	n/a	n/a	22	7	9	6	n/a	n/a	n/a	n/a	n/a
749681	STOP	n/a	LTP199	ltpFR	11	n/a	n/a	n/a	n/a	n/a	n/a	n/a	n/a	n/a	n/a	n/a	n/a	n/a	n/a	n/a	n/a
751169	WORD	wordpools/wasnorm_wordpool_less_exclusions.txt	LTP199	ltpFR	11	3	1	TUSK	1523	n/a	n/a	0	n/a	0	0	0	0.422607421875	0.5869140625	0	lower	zerothre.ttf
754181	START	n/a	LTP199	ltpFR	11	n/a	n/a	n/a	n/a	n/a	n/a	n/a	n/a	n/a	n/a	n/a	n/a	n/a	n/a	n/a	n/a
755111	PROB	n/a	LTP199	ltpFR	11	n/a	n/a	n/a	n/a	n/a	n/a	n/a	16	9	2	5	n/a	n/a	n/a	n/a	n/a
756499	PROB	n/a	LTP199	ltpFR	11	n/a	n/a	n/a	n/a	n/a	n/a	n/a	11	2	8	1	n/a	n/a	n/a	n/a	n/a
757475	PROB	n/a	LTP199	ltpFR	11	n/a	n/a	n/a	n/a	n/a	n/a	n/a	13	4	4	5	n/a	n/a	n/a	n/a	n/a
758747	PROB	n/a	LTP199	ltpFR	11	n/a	n/a	n/a	n/a	n/a	n/a	n/a	20	3	8	9	n/a	n/a	n/a	n/a	n/a
761569	STOP	n/a	LTP199	ltpFR	11	n/a	n/a	n/a	n/a	n/a	n/a	n/a	n/a	n/a	n/a	n/a	n/a	n/a	n/a	n/a	n/a
763331	WORD	wordpools/wasnorm_wordpool_less_exclusions.txt	LTP199	ltpFR	11	3	1	CLIMBER	323	n/a	n/a	1	n/a	0	0	0	0.422607421875	0.5869140625	0	lower	zerothre.ttf
766343	START	n/a	LTP199	ltpFR	11	n/a	n/a	n/a	n/a	n/a	n/a	n/a	n/a	n/a	n/a	n/a	n/a	n/a	n/a	n/a	n/a
767441	PROB	n/a	LTP199	ltpFR	11	n/a	n/a	n/a	n/a	n/a	n/a	n/a	18	7	5	6	n/a	n/a	n/a	n/a	n/a
768702	PROB	n/a	LTP199	ltpFR	11	n/a	n/a	n/a	n/a	n/a	n/a	n/a	18	8	6	5	n/a	n/a	n/a	n/a	n/a
770324	PROB	n/a	LTP199	ltpFR	11	n/a	n/a	n/a	n/a	n/a	n/a	n/a	15	4	3	8	n/a	n/a	n/a	n/a	n/a
774343	STOP	n/a	LTP199	ltpFR	11	n/a	n/a	n/a	n/a	n/a	n/a	n/a	n/a	n/a	n/a	n/a	n/a	n/a	n/a	n/a	n/a
775327	WORD	wordpools/wasnorm_wordpool_less_exclusions.txt	LTP199	ltpFR	11	3	1	SHED	1277	n/a	n/a	0	n/a	0	0	0	0.422607421875	0.5869140625	0	lower	zerothre.ttf
778339	START	n/a	LTP199	ltpFR	11	n/a	n/a	n/a	n/a	n/a	n/a	n/a	n/a	n/a	n/a	n/a	n/a	n/a	n/a	n/a	n/a
779325	PROB	n/a	LTP199	ltpFR	11	n/a	n/a	n/a	n/a	n/a	n/a	n/a	16	8	4	4	n/a	n/a	n/a	n/a	n/a
780479	PROB	n/a	LTP199	ltpFR	11	n/a	n/a	n/a	n/a	n/a	n/a	n/a	14	3	4	7	n/a	n/a	n/a	n/a	n/a
782230	PROB	n/a	LTP199	ltpFR	11	n/a	n/a	n/a	n/a	n/a	n/a	n/a	21	7	5	9	n/a	n/a	n/a	n/a	n/a
783468	PROB	n/a	LTP199	ltpFR	11	n/a	n/a	n/a	n/a	n/a	n/a	n/a	8	5	1	2	n/a	n/a	n/a	n/a	n/a
784538	PROB	n/a	LTP199	ltpFR	11	n/a	n/a	n/a	n/a	n/a	n/a	n/a	11	6	2	3	n/a	n/a	n/a	n/a	n/a
785561	STOP	n/a	LTP199	ltpFR	11	n/a	n/a	n/a	n/a	n/a	n/a	n/a	n/a	n/a	n/a	n/a	n/a	n/a	n/a	n/a	n/a
787389	WORD	wordpools/wasnorm_wordpool_less_exclusions.txt	LTP199	ltpFR	11	3	1	TREAD	1499	n/a	n/a	0	n/a	0	0	0	0.422607421875	0.5869140625	0	lower	zerothre.ttf
790400	START	n/a	LTP199	ltpFR	11	n/a	n/a	n/a	n/a	n/a	n/a	n/a	n/a	n/a	n/a	n/a	n/a	n/a	n/a	n/a	n/a
791347	PROB	n/a	LTP199	ltpFR	11	n/a	n/a	n/a	n/a	n/a	n/a	n/a	26	9	9	8	n/a	n/a	n/a	n/a	n/a
792836	PROB	n/a	LTP199	ltpFR	11	n/a	n/a	n/a	n/a	n/a	n/a	n/a	12	2	7	3	n/a	n/a	n/a	n/a	n/a
794024	PROB	n/a	LTP199	ltpFR	11	n/a	n/a	n/a	n/a	n/a	n/a	n/a	13	2	9	2	n/a	n/a	n/a	n/a	n/a
795245	PROB	n/a	LTP199	ltpFR	11	n/a	n/a	n/a	n/a	n/a	n/a	n/a	13	3	1	9	n/a	n/a	n/a	n/a	n/a
796801	PROB	n/a	LTP199	ltpFR	11	n/a	n/a	n/a	n/a	n/a	n/a	n/a	15	6	4	5	n/a	n/a	n/a	n/a	n/a
797593	STOP	n/a	LTP199	ltpFR	11	n/a	n/a	n/a	n/a	n/a	n/a	n/a	n/a	n/a	n/a	n/a	n/a	n/a	n/a	n/a	n/a
800181	REC_START	n/a	LTP199	ltpFR	11	3	n/a	n/a	n/a	n/a	n/a	n/a	n/a	0	0	0	n/a	n/a	n/a	n/a	n/a
804247	REC_WORD	wordpools/wasnorm_wordpool_less_exclusions.txt	LTP199	ltpFR	11	3	1	MARINE	869	n/a	n/a	1	n/a	0	0	0	n/a	n/a	n/a	n/a	n/a
805244	REC_WORD	wordpools/wasnorm_wordpool_less_exclusions.txt	LTP199	ltpFR	11	3	1	GENERAL	630	n/a	n/a	1	n/a	0	0	0	n/a	n/a	n/a	n/a	n/a
806925	REC_WORD	wordpools/wasnorm_wordpool_less_exclusions.txt	LTP199	ltpFR	11	3	1	DEPUTY	450	n/a	n/a	1	n/a	0	0	0	n/a	n/a	n/a	n/a	n/a
808118	REC_WORD_VV	wordpools/wasnorm_wordpool_less_exclusions.txt	LTP199	ltpFR	11	3	n/a	<>	-1	n/a	n/a	n/a	n/a	0	0	0	n/a	n/a	n/a	n/a	n/a
810328	REC_WORD	wordpools/wasnorm_wordpool_less_exclusions.txt	LTP199	ltpFR	11	3	1	UNIFORM	1539	n/a	n/a	0	n/a	0	0	0	n/a	n/a	n/a	n/a	n/a
812473	REC_WORD	wordpools/wasnorm_wordpool_less_exclusions.txt	LTP199	ltpFR	11	3	1	TREAD	1499	n/a	n/a	0	n/a	0	0	0	n/a	n/a	n/a	n/a	n/a
813920	REC_WORD	wordpools/wasnorm_wordpool_less_exclusions.txt	LTP199	ltpFR	11	3	n/a	SUBMARINE	1398	n/a	n/a	n/a	n/a	0	0	0	n/a	n/a	n/a	n/a	n/a
817930	REC_WORD	wordpools/wasnorm_wordpool_less_exclusions.txt	LTP199	ltpFR	11	3	1	BANQUET	86	n/a	n/a	0	n/a	0	0	0	n/a	n/a	n/a	n/a	n/a
825074	REC_WORD	wordpools/wasnorm_wordpool_less_exclusions.txt	LTP199	ltpFR	11	3	1	WHALE	1601	n/a	n/a	1	n/a	0	0	0	n/a	n/a	n/a	n/a	n/a
853051	REC_WORD	wordpools/wasnorm_wordpool_less_exclusions.txt	LTP199	ltpFR	11	3	1	PASTRY	1022	n/a	n/a	0	n/a	0	0	0	n/a	n/a	n/a	n/a	n/a
854557	REC_WORD	wordpools/wasnorm_wordpool_less_exclusions.txt	LTP199	ltpFR	11	3	1	TOAST	1471	n/a	n/a	0	n/a	0	0	0	n/a	n/a	n/a	n/a	n/a
903828	START	n/a	LTP199	ltpFR	11	n/a	n/a	n/a	n/a	n/a	n/a	n/a	n/a	n/a	n/a	n/a	n/a	n/a	n/a	n/a	n/a
905344	PROB	n/a	LTP199	ltpFR	11	n/a	n/a	n/a	n/a	n/a	n/a	n/a	14	2	7	5	n/a	n/a	n/a	n/a	n/a
906755	PROB	n/a	LTP199	ltpFR	11	n/a	n/a	n/a	n/a	n/a	n/a	n/a	11	1	1	9	n/a	n/a	n/a	n/a	n/a
907987	PROB	n/a	LTP199	ltpFR	11	n/a	n/a	n/a	n/a	n/a	n/a	n/a	18	3	7	8	n/a	n/a	n/a	n/a	n/a
909024	PROB	n/a	LTP199	ltpFR	11	n/a	n/a	n/a	n/a	n/a	n/a	n/a	16	1	8	7	n/a	n/a	n/a	n/a	n/a
910296	PROB	n/a	LTP199	ltpFR	11	n/a	n/a	n/a	n/a	n/a	n/a	n/a	20	4	7	9	n/a	n/a	n/a	n/a	n/a
911701	PROB	n/a	LTP199	ltpFR	11	n/a	n/a	n/a	n/a	n/a	n/a	n/a	8	5	2	1	n/a	n/a	n/a	n/a	n/a
912644	PROB	n/a	LTP199	ltpFR	11	n/a	n/a	n/a	n/a	n/a	n/a	n/a	21	5	7	9	n/a	n/a	n/a	n/a	n/a
913916	PROB	n/a	LTP199	ltpFR	11	n/a	n/a	n/a	n/a	n/a	n/a	n/a	6	3	1	2	n/a	n/a	n/a	n/a	n/a
914997	PROB	n/a	LTP199	ltpFR	11	n/a	n/a	n/a	n/a	n/a	n/a	n/a	12	4	2	6	n/a	n/a	n/a	n/a	n/a
916335	PROB	n/a	LTP199	ltpFR	11	n/a	n/a	n/a	n/a	n/a	n/a	n/a	11	1	6	4	n/a	n/a	n/a	n/a	n/a
917412	PROB	n/a	LTP199	ltpFR	11	n/a	n/a	n/a	n/a	n/a	n/a	n/a	20	9	5	6	n/a	n/a	n/a	n/a	n/a
918729	STOP	n/a	LTP199	ltpFR	11	n/a	n/a	n/a	n/a	n/a	n/a	n/a	n/a	n/a	n/a	n/a	n/a	n/a	n/a	n/a	n/a
920741	WORD	wordpools/wasnorm_wordpool_less_exclusions.txt	LTP199	ltpFR	11	4	1	SCULPTURE	1258	n/a	n/a	0	n/a	0	0	0	0.422607421875	0.5869140625	0	lower	zerothre.ttf
923753	START	n/a	LTP199	ltpFR	11	n/a	n/a	n/a	n/a	n/a	n/a	n/a	n/a	n/a	n/a	n/a	n/a	n/a	n/a	n/a	n/a
924650	PROB	n/a	LTP199	ltpFR	11	n/a	n/a	n/a	n/a	n/a	n/a	n/a	14	3	5	6	n/a	n/a	n/a	n/a	n/a
926172	PROB	n/a	LTP199	ltpFR	11	n/a	n/a	n/a	n/a	n/a	n/a	n/a	9	4	1	4	n/a	n/a	n/a	n/a	n/a
927929	PROB	n/a	LTP199	ltpFR	11	n/a	n/a	n/a	n/a	n/a	n/a	n/a	15	9	4	2	n/a	n/a	n/a	n/a	n/a
929250	PROB	n/a	LTP199	ltpFR	11	n/a	n/a	n/a	n/a	n/a	n/a	n/a	14	2	7	5	n/a	n/a	n/a	n/a	n/a
930422	PROB	n/a	LTP199	ltpFR	11	n/a	n/a	n/a	n/a	n/a	n/a	n/a	17	7	8	2	n/a	n/a	n/a	n/a	n/a
931917	PROB	n/a	LTP199	ltpFR	11	n/a	n/a	n/a	n/a	n/a	n/a	n/a	14	6	2	6	n/a	n/a	n/a	n/a	n/a
933533	PROB	n/a	LTP199	ltpFR	11	n/a	n/a	n/a	n/a	n/a	n/a	n/a	14	9	2	3	n/a	n/a	n/a	n/a	n/a
934911	PROB	n/a	LTP199	ltpFR	11	n/a	n/a	n/a	n/a	n/a	n/a	n/a	12	3	8	1	n/a	n/a	n/a	n/a	n/a
936210	PROB	n/a	LTP199	ltpFR	11	n/a	n/a	n/a	n/a	n/a	n/a	n/a	9	2	1	6	n/a	n/a	n/a	n/a	n/a
938657	STOP	n/a	LTP199	ltpFR	11	n/a	n/a	n/a	n/a	n/a	n/a	n/a	n/a	n/a	n/a	n/a	n/a	n/a	n/a	n/a	n/a
940967	WORD	wordpools/wasnorm_wordpool_less_exclusions.txt	LTP199	ltpFR	11	4	1	MONUMENT	913	n/a	n/a	0	n/a	0	0	0	0.422607421875	0.5869140625	0	lower	zerothre.ttf
943979	START	n/a	LTP199	ltpFR	11	n/a	n/a	n/a	n/a	n/a	n/a	n/a	n/a	n/a	n/a	n/a	n/a	n/a	n/a	n/a	n/a
944815	PROB	n/a	LTP199	ltpFR	11	n/a	n/a	n/a	n/a	n/a	n/a	n/a	14	9	4	1	n/a	n/a	n/a	n/a	n/a
946382	PROB	n/a	LTP199	ltpFR	11	n/a	n/a	n/a	n/a	n/a	n/a	n/a	12	1	9	2	n/a	n/a	n/a	n/a	n/a
947887	PROB	n/a	LTP199	ltpFR	11	n/a	n/a	n/a	n/a	n/a	n/a	n/a	16	7	3	6	n/a	n/a	n/a	n/a	n/a
948925	PROB	n/a	LTP199	ltpFR	11	n/a	n/a	n/a	n/a	n/a	n/a	n/a	16	2	5	9	n/a	n/a	n/a	n/a	n/a
950068	PROB	n/a	LTP199	ltpFR	11	n/a	n/a	n/a	n/a	n/a	n/a	n/a	15	5	7	3	n/a	n/a	n/a	n/a	n/a
951150	PROB	n/a	LTP199	ltpFR	11	n/a	n/a	n/a	n/a	n/a	n/a	n/a	14	6	2	6	n/a	n/a	n/a	n/a	n/a
952488	PROB	n/a	LTP199	ltpFR	11	n/a	n/a	n/a	n/a	n/a	n/a	n/a	18	4	9	5	n/a	n/a	n/a	n/a	n/a
954445	PROB	n/a	LTP199	ltpFR	11	n/a	n/a	n/a	n/a	n/a	n/a	n/a	9	1	2	6	n/a	n/a	n/a	n/a	n/a
955683	PROB	n/a	LTP199	ltpFR	11	n/a	n/a	n/a	n/a	n/a	n/a	n/a	11	5	3	3	n/a	n/a	n/a	n/a	n/a
956995	PROB	n/a	LTP199	ltpFR	11	n/a	n/a	n/a	n/a	n/a	n/a	n/a	6	1	2	3	n/a	n/a	n/a	n/a	n/a
958092	PROB	n/a	LTP199	ltpFR	11	n/a	n/a	n/a	n/a	n/a	n/a	n/a	15	2	4	9	n/a	n/a	n/a	n/a	n/a
959625	STOP	n/a	LTP199	ltpFR	11	n/a	n/a	n/a	n/a	n/a	n/a	n/a	n/a	n/a	n/a	n/a	n/a	n/a	n/a	n/a	n/a
961020	WORD	wordpools/wasnorm_wordpool_less_exclusions.txt	LTP199	ltpFR	11	4	1	MECHANIC	884	n/a	n/a	1	n/a	0	0	0	0.422607421875	0.5869140625	0	lower	zerothre.ttf
964032	START	n/a	LTP199	ltpFR	11	n/a	n/a	n/a	n/a	n/a	n/a	n/a	n/a	n/a	n/a	n/a	n/a	n/a	n/a	n/a	n/a
965186	PROB	n/a	LTP199	ltpFR	11	n/a	n/a	n/a	n/a	n/a	n/a	n/a	13	8	3	2	n/a	n/a	n/a	n/a	n/a
966892	PROB	n/a	LTP199	ltpFR	11	n/a	n/a	n/a	n/a	n/a	n/a	n/a	1	8	2	1	n/a	n/a	n/a	n/a	n/a
968973	PROB	n/a	LTP199	ltpFR	11	n/a	n/a	n/a	n/a	n/a	n/a	n/a	19	8	3	8	n/a	n/a	n/a	n/a	n/a
970891	PROB	n/a	LTP199	ltpFR	11	n/a	n/a	n/a	n/a	n/a	n/a	n/a	13	8	4	1	n/a	n/a	n/a	n/a	n/a
972229	PROB	n/a	LTP199	ltpFR	11	n/a	n/a	n/a	n/a	n/a	n/a	n/a	15	1	5	9	n/a	n/a	n/a	n/a	n/a
973306	PROB	n/a	LTP199	ltpFR	11	n/a	n/a	n/a	n/a	n/a	n/a	n/a	20	6	7	7	n/a	n/a	n/a	n/a	n/a
975180	PROB	n/a	LTP199	ltpFR	11	n/a	n/a	n/a	n/a	n/a	n/a	n/a	11	3	2	6	n/a	n/a	n/a	n/a	n/a
976234	PROB	n/a	LTP199	ltpFR	11	n/a	n/a	n/a	n/a	n/a	n/a	n/a	14	2	6	6	n/a	n/a	n/a	n/a	n/a
977733	PROB	n/a	LTP199	ltpFR	11	n/a	n/a	n/a	n/a	n/a	n/a	n/a	7	2	2	3	n/a	n/a	n/a	n/a	n/a
978921	STOP	n/a	LTP199	ltpFR	11	n/a	n/a	n/a	n/a	n/a	n/a	n/a	n/a	n/a	n/a	n/a	n/a	n/a	n/a	n/a	n/a
980979	WORD	wordpools/wasnorm_wordpool_less_exclusions.txt	LTP199	ltpFR	11	4	1	DRIVER	499	n/a	n/a	1	n/a	0	0	0	0.422607421875	0.5869140625	0	lower	zerothre.ttf
983991	START	n/a	LTP199	ltpFR	11	n/a	n/a	n/a	n/a	n/a	n/a	n/a	n/a	n/a	n/a	n/a	n/a	n/a	n/a	n/a	n/a
985201	PROB	n/a	LTP199	ltpFR	11	n/a	n/a	n/a	n/a	n/a	n/a	n/a	20	9	2	9	n/a	n/a	n/a	n/a	n/a
987637	PROB	n/a	LTP199	ltpFR	11	n/a	n/a	n/a	n/a	n/a	n/a	n/a	18	3	9	6	n/a	n/a	n/a	n/a	n/a
989477	PROB	n/a	LTP199	ltpFR	11	n/a	n/a	n/a	n/a	n/a	n/a	n/a	9	5	3	1	n/a	n/a	n/a	n/a	n/a
990481	PROB	n/a	LTP199	ltpFR	11	n/a	n/a	n/a	n/a	n/a	n/a	n/a	17	6	6	5	n/a	n/a	n/a	n/a	n/a
991853	PROB	n/a	LTP199	ltpFR	11	n/a	n/a	n/a	n/a	n/a	n/a	n/a	14	7	2	5	n/a	n/a	n/a	n/a	n/a
993030	PROB	n/a	LTP199	ltpFR	11	n/a	n/a	n/a	n/a	n/a	n/a	n/a	20	8	5	7	n/a	n/a	n/a	n/a	n/a
994312	PROB	n/a	LTP199	ltpFR	11	n/a	n/a	n/a	n/a	n/a	n/a	n/a	22	9	6	7	n/a	n/a	n/a	n/a	n/a
995774	PROB	n/a	LTP199	ltpFR	11	n/a	n/a	n/a	n/a	n/a	n/a	n/a	18	6	8	4	n/a	n/a	n/a	n/a	n/a
997213	PROB	n/a	LTP199	ltpFR	11	n/a	n/a	n/a	n/a	n/a	n/a	n/a	18	2	9	7	n/a	n/a	n/a	n/a	n/a
998394	PROB	n/a	LTP199	ltpFR	11	n/a	n/a	n/a	n/a	n/a	n/a	n/a	16	1	7	8	n/a	n/a	n/a	n/a	n/a
999545	STOP	n/a	LTP199	ltpFR	11	n/a	n/a	n/a	n/a	n/a	n/a	n/a	n/a	n/a	n/a	n/a	n/a	n/a	n/a	n/a	n/a
1000960	WORD	wordpools/wasnorm_wordpool_less_exclusions.txt	LTP199	ltpFR	11	4	1	BAND	78	n/a	n/a	0	n/a	0	0	0	0.422607421875	0.5869140625	0	lower	zerothre.ttf
1003972	START	n/a	LTP199	ltpFR	11	n/a	n/a	n/a	n/a	n/a	n/a	n/a	n/a	n/a	n/a	n/a	n/a	n/a	n/a	n/a	n/a
1005143	PROB	n/a	LTP199	ltpFR	11	n/a	n/a	n/a	n/a	n/a	n/a	n/a	20	6	6	8	n/a	n/a	n/a	n/a	n/a
1006692	PROB	n/a	LTP199	ltpFR	11	n/a	n/a	n/a	n/a	n/a	n/a	n/a	8	1	4	3	n/a	n/a	n/a	n/a	n/a
1009704	PROB	n/a	LTP199	ltpFR	11	n/a	n/a	n/a	n/a	n/a	n/a	n/a	18	8	9	1	n/a	n/a	n/a	n/a	n/a
1011092	PROB	n/a	LTP199	ltpFR	11	n/a	n/a	n/a	n/a	n/a	n/a	n/a	17	4	5	8	n/a	n/a	n/a	n/a	n/a
1012380	PROB	n/a	LTP199	ltpFR	11	n/a	n/a	n/a	n/a	n/a	n/a	n/a	20	8	8	4	n/a	n/a	n/a	n/a	n/a
1013568	PROB	n/a	LTP199	ltpFR	11	n/a	n/a	n/a	n/a	n/a	n/a	n/a	15	5	8	2	n/a	n/a	n/a	n/a	n/a
1014829	PROB	n/a	LTP199	ltpFR	11	n/a	n/a	n/a	n/a	n/a	n/a	n/a	15	9	3	3	n/a	n/a	n/a	n/a	n/a
1016117	PROB	n/a	LTP199	ltpFR	11	n/a	n/a	n/a	n/a	n/a	n/a	n/a	21	8	8	5	n/a	n/a	n/a	n/a	n/a
1017868	PROB	n/a	LTP199	ltpFR	11	n/a	n/a	n/a	n/a	n/a	n/a	n/a	11	4	3	4	n/a	n/a	n/a	n/a	n/a
1019897	STOP	n/a	LTP199	ltpFR	11	n/a	n/a	n/a	n/a	n/a	n/a	n/a	n/a	n/a	n/a	n/a	n/a	n/a	n/a	n/a	n/a
1021130	WORD	wordpools/wasnorm_wordpool_less_exclusions.txt	LTP199	ltpFR	11	4	1	WATERFALL	1595	n/a	n/a	0	n/a	0	0	0	0.422607421875	0.5869140625	0	lower	zerothre.ttf
1024142	START	n/a	LTP199	ltpFR	11	n/a	n/a	n/a	n/a	n/a	n/a	n/a	n/a	n/a	n/a	n/a	n/a	n/a	n/a	n/a	n/a
1025078	PROB	n/a	LTP199	ltpFR	11	n/a	n/a	n/a	n/a	n/a	n/a	n/a	12	6	3	3	n/a	n/a	n/a	n/a	n/a
1027203	PROB	n/a	LTP199	ltpFR	11	n/a	n/a	n/a	n/a	n/a	n/a	n/a	11	7	1	3	n/a	n/a	n/a	n/a	n/a
1028407	PROB	n/a	LTP199	ltpFR	11	n/a	n/a	n/a	n/a	n/a	n/a	n/a	19	5	6	8	n/a	n/a	n/a	n/a	n/a
1031067	PROB	n/a	LTP199	ltpFR	11	n/a	n/a	n/a	n/a	n/a	n/a	n/a	11	1	5	5	n/a	n/a	n/a	n/a	n/a
1032496	PROB	n/a	LTP199	ltpFR	11	n/a	n/a	n/a	n/a	n/a	n/a	n/a	17	8	5	4	n/a	n/a	n/a	n/a	n/a
1034112	PROB	n/a	LTP199	ltpFR	11	n/a	n/a	n/a	n/a	n/a	n/a	n/a	19	9	4	6	n/a	n/a	n/a	n/a	n/a
1035601	PROB	n/a	LTP199	ltpFR	11	n/a	n/a	n/a	n/a	n/a	n/a	n/a	16	2	6	8	n/a	n/a	n/a	n/a	n/a
1037458	PROB	n/a	LTP199	ltpFR	11	n/a	n/a	n/a	n/a	n/a	n/a	n/a	14	1	8	5	n/a	n/a	n/a	n/a	n/a
1038849	STOP	n/a	LTP199	ltpFR	11	n/a	n/a	n/a	n/a	n/a	n/a	n/a	n/a	n/a	n/a	n/a	n/a	n/a	n/a	n/a	n/a
1041356	WORD	wordpools/wasnorm_wordpool_less_exclusions.txt	LTP199	ltpFR	11	4	1	OCTOPUS	971	n/a	n/a	1	n/a	0	0	0	0.422607421875	0.5869140625	0	lower	zerothre.ttf
1044368	START	n/a	LTP199	ltpFR	11	n/a	n/a	n/a	n/a	n/a	n/a	n/a	n/a	n/a	n/a	n/a	n/a	n/a	n/a	n/a	n/a
1045244	PROB	n/a	LTP199	ltpFR	11	n/a	n/a	n/a	n/a	n/a	n/a	n/a	9	5	1	3	n/a	n/a	n/a	n/a	n/a
1047168	PROB	n/a	LTP199	ltpFR	11	n/a	n/a	n/a	n/a	n/a	n/a	n/a	14	6	2	5	n/a	n/a	n/a	n/a	n/a
1048523	PROB	n/a	LTP199	ltpFR	11	n/a	n/a	n/a	n/a	n/a	n/a	n/a	13	4	4	5	n/a	n/a	n/a	n/a	n/a
1050463	PROB	n/a	LTP199	ltpFR	11	n/a	n/a	n/a	n/a	n/a	n/a	n/a	18	8	6	4	n/a	n/a	n/a	n/a	n/a
1051701	PROB	n/a	LTP199	ltpFR	11	n/a	n/a	n/a	n/a	n/a	n/a	n/a	10	3	3	4	n/a	n/a	n/a	n/a	n/a
1052967	PROB	n/a	LTP199	ltpFR	11	n/a	n/a	n/a	n/a	n/a	n/a	n/a	15	6	3	6	n/a	n/a	n/a	n/a	n/a
1054154	PROB	n/a	LTP199	ltpFR	11	n/a	n/a	n/a	n/a	n/a	n/a	n/a	22	9	7	6	n/a	n/a	n/a	n/a	n/a
1057517	PROB	n/a	LTP199	ltpFR	11	n/a	n/a	n/a	n/a	n/a	n/a	n/a	16	3	9	4	n/a	n/a	n/a	n/a	n/a
1058817	STOP	n/a	LTP199	ltpFR	11	n/a	n/a	n/a	n/a	n/a	n/a	n/a	n/a	n/a	n/a	n/a	n/a	n/a	n/a	n/a	n/a
1061432	WORD	wordpools/wasnorm_wordpool_less_exclusions.txt	LTP199	ltpFR	11	4	1	CLAM	315	n/a	n/a	1	n/a	0	0	0	0.422607421875	0.5869140625	0	lower	zerothre.ttf
1064444	START	n/a	LTP199	ltpFR	11	n/a	n/a	n/a	n/a	n/a	n/a	n/a	n/a	n/a	n/a	n/a	n/a	n/a	n/a	n/a	n/a
1065386	PROB	n/a	LTP199	ltpFR	11	n/a	n/a	n/a	n/a	n/a	n/a	n/a	19	3	7	9	n/a	n/a	n/a	n/a	n/a
1066668	PROB	n/a	LTP199	ltpFR	11	n/a	n/a	n/a	n/a	n/a	n/a	n/a	8	1	1	6	n/a	n/a	n/a	n/a	n/a
1069100	PROB	n/a	LTP199	ltpFR	11	n/a	n/a	n/a	n/a	n/a	n/a	n/a	14	6	3	5	n/a	n/a	n/a	n/a	n/a
1070288	PROB	n/a	LTP199	ltpFR	11	n/a	n/a	n/a	n/a	n/a	n/a	n/a	18	8	1	9	n/a	n/a	n/a	n/a	n/a
1073661	PROB	n/a	LTP199	ltpFR	11	n/a	n/a	n/a	n/a	n/a	n/a	n/a	15	9	3	3	n/a	n/a	n/a	n/a	n/a
1074933	PROB	n/a	LTP199	ltpFR	11	n/a	n/a	n/a	n/a	n/a	n/a	n/a	18	5	6	7	n/a	n/a	n/a	n/a	n/a
1075903	PROB	n/a	LTP199	ltpFR	11	n/a	n/a	n/a	n/a	n/a	n/a	n/a	20	8	7	5	n/a	n/a	n/a	n/a	n/a
1080444	STOP	n/a	LTP199	ltpFR	11	n/a	n/a	n/a	n/a	n/a	n/a	n/a	n/a	n/a	n/a	n/a	n/a	n/a	n/a	n/a	n/a
1081547	WORD	wordpools/wasnorm_wordpool_less_exclusions.txt	LTP199	ltpFR	11	4	1	BOUILLON	154	n/a	n/a	0	n/a	0	0	0	0.422607421875	0.5869140625	0	lower	zerothre.ttf
1084559	START	n/a	LTP199	ltpFR	11	n/a	n/a	n/a	n/a	n/a	n/a	n/a	n/a	n/a	n/a	n/a	n/a	n/a	n/a	n/a	n/a
1085489	PROB	n/a	LTP199	ltpFR	11	n/a	n/a	n/a	n/a	n/a	n/a	n/a	4	2	1	1	n/a	n/a	n/a	n/a	n/a
1086475	PROB	n/a	LTP199	ltpFR	11	n/a	n/a	n/a	n/a	n/a	n/a	n/a	25	9	7	9	n/a	n/a	n/a	n/a	n/a
1088333	PROB	n/a	LTP199	ltpFR	11	n/a	n/a	n/a	n/a	n/a	n/a	n/a	15	5	1	9	n/a	n/a	n/a	n/a	n/a
1089571	PROB	n/a	LTP199	ltpFR	11	n/a	n/a	n/a	n/a	n/a	n/a	n/a	15	8	6	1	n/a	n/a	n/a	n/a	n/a
1090949	PROB	n/a	LTP199	ltpFR	11	n/a	n/a	n/a	n/a	n/a	n/a	n/a	15	2	6	7	n/a	n/a	n/a	n/a	n/a
1092415	PROB	n/a	LTP199	ltpFR	11	n/a	n/a	n/a	n/a	n/a	n/a	n/a	15	1	7	6	n/a	n/a	n/a	n/a	n/a
1093620	PROB	n/a	LTP199	ltpFR	11	n/a	n/a	n/a	n/a	n/a	n/a	n/a	17	9	4	4	n/a	n/a	n/a	n/a	n/a
1095583	PROB	n/a	LTP199	ltpFR	11	n/a	n/a	n/a	n/a	n/a	n/a	n/a	14	4	3	7	n/a	n/a	n/a	n/a	n/a
1097123	PROB	n/a	LTP199	ltpFR	11	n/a	n/a	n/a	n/a	n/a	n/a	n/a	18	6	7	5	n/a	n/a	n/a	n/a	n/a
1098494	PROB	n/a	LTP199	ltpFR	11	n/a	n/a	n/a	n/a	n/a	n/a	n/a	12	4	5	3	n/a	n/a	n/a	n/a	n/a
1099865	STOP	n/a	LTP199	ltpFR	11	n/a	n/a	n/a	n/a	n/a	n/a	n/a	n/a	n/a	n/a	n/a	n/a	n/a	n/a	n/a	n/a
1101539	WORD	wordpools/wasnorm_wordpool_less_exclusions.txt	LTP199	ltpFR	11	4	1	LAVA	804	n/a	n/a	0	n/a	0	0	0	0.422607421875	0.5869140625	0	lower	zerothre.ttf
1104551	START	n/a	LTP199	ltpFR	11	n/a	n/a	n/a	n/a	n/a	n/a	n/a	n/a	n/a	n/a	n/a	n/a	n/a	n/a	n/a	n/a
1105437	PROB	n/a	LTP199	ltpFR	11	n/a	n/a	n/a	n/a	n/a	n/a	n/a	23	8	6	9	n/a	n/a	n/a	n/a	n/a
1107572	PROB	n/a	LTP199	ltpFR	11	n/a	n/a	n/a	n/a	n/a	n/a	n/a	12	9	1	2	n/a	n/a	n/a	n/a	n/a
1108967	PROB	n/a	LTP199	ltpFR	11	n/a	n/a	n/a	n/a	n/a	n/a	n/a	14	2	6	6	n/a	n/a	n/a	n/a	n/a
1110165	PROB	n/a	LTP199	ltpFR	11	n/a	n/a	n/a	n/a	n/a	n/a	n/a	18	2	8	8	n/a	n/a	n/a	n/a	n/a
1111176	PROB	n/a	LTP199	ltpFR	11	n/a	n/a	n/a	n/a	n/a	n/a	n/a	12	5	4	3	n/a	n/a	n/a	n/a	n/a
1112775	PROB	n/a	LTP199	ltpFR	11	n/a	n/a	n/a	n/a	n/a	n/a	n/a	7	3	3	1	n/a	n/a	n/a	n/a	n/a
1115435	PROB	n/a	LTP199	ltpFR	11	n/a	n/a	n/a	n/a	n/a	n/a	n/a	10	6	2	2	n/a	n/a	n/a	n/a	n/a
1116931	PROB	n/a	LTP199	ltpFR	11	n/a	n/a	n/a	n/a	n/a	n/a	n/a	12	8	3	1	n/a	n/a	n/a	n/a	n/a
1118246	PROB	n/a	LTP199	ltpFR	11	n/a	n/a	n/a	n/a	n/a	n/a	n/a	20	8	5	7	n/a	n/a	n/a	n/a	n/a
1119513	STOP	n/a	LTP199	ltpFR	11	n/a	n/a	n/a	n/a	n/a	n/a	n/a	n/a	n/a	n/a	n/a	n/a	n/a	n/a	n/a	n/a
1121765	WORD	wordpools/wasnorm_wordpool_less_exclusions.txt	LTP199	ltpFR	11	4	1	FLUTE	585	n/a	n/a	0	n/a	0	0	0	0.422607421875	0.5869140625	0	lower	zerothre.ttf
1124777	START	n/a	LTP199	ltpFR	11	n/a	n/a	n/a	n/a	n/a	n/a	n/a	n/a	n/a	n/a	n/a	n/a	n/a	n/a	n/a	n/a
1125925	PROB	n/a	LTP199	ltpFR	11	n/a	n/a	n/a	n/a	n/a	n/a	n/a	15	9	2	4	n/a	n/a	n/a	n/a	n/a
1127548	PROB	n/a	LTP199	ltpFR	11	n/a	n/a	n/a	n/a	n/a	n/a	n/a	19	4	6	9	n/a	n/a	n/a	n/a	n/a
1128574	PROB	n/a	LTP199	ltpFR	11	n/a	n/a	n/a	n/a	n/a	n/a	n/a	17	4	5	8	n/a	n/a	n/a	n/a	n/a
1129997	PROB	n/a	LTP199	ltpFR	11	n/a	n/a	n/a	n/a	n/a	n/a	n/a	11	6	3	2	n/a	n/a	n/a	n/a	n/a
1131787	PROB	n/a	LTP199	ltpFR	11	n/a	n/a	n/a	n/a	n/a	n/a	n/a	11	3	3	5	n/a	n/a	n/a	n/a	n/a
1133376	PROB	n/a	LTP199	ltpFR	11	n/a	n/a	n/a	n/a	n/a	n/a	n/a	8	5	1	2	n/a	n/a	n/a	n/a	n/a
1134591	PROB	n/a	LTP199	ltpFR	11	n/a	n/a	n/a	n/a	n/a	n/a	n/a	22	7	7	8	n/a	n/a	n/a	n/a	n/a
1135896	PROB	n/a	LTP199	ltpFR	11	n/a	n/a	n/a	n/a	n/a	n/a	n/a	14	5	4	5	n/a	n/a	n/a	n/a	n/a
1137050	PROB	n/a	LTP199	ltpFR	11	n/a	n/a	n/a	n/a	n/a	n/a	n/a	14	7	5	2	n/a	n/a	n/a	n/a	n/a
1138345	PROB	n/a	LTP199	ltpFR	11	n/a	n/a	n/a	n/a	n/a	n/a	n/a	12	4	7	1	n/a	n/a	n/a	n/a	n/a
1139361	STOP	n/a	LTP199	ltpFR	11	n/a	n/a	n/a	n/a	n/a	n/a	n/a	n/a	n/a	n/a	n/a	n/a	n/a	n/a	n/a	n/a
1141668	WORD	wordpools/wasnorm_wordpool_less_exclusions.txt	LTP199	ltpFR	11	4	1	FINGERNAIL	568	n/a	n/a	0	n/a	0	0	0	0.422607421875	0.5869140625	0	lower	zerothre.ttf
1144686	START	n/a	LTP199	ltpFR	11	n/a	n/a	n/a	n/a	n/a	n/a	n/a	n/a	n/a	n/a	n/a	n/a	n/a	n/a	n/a	n/a
1145683	PROB	n/a	LTP199	ltpFR	11	n/a	n/a	n/a	n/a	n/a	n/a	n/a	17	8	2	7	n/a	n/a	n/a	n/a	n/a
1146726	PROB	n/a	LTP199	ltpFR	11	n/a	n/a	n/a	n/a	n/a	n/a	n/a	19	5	6	8	n/a	n/a	n/a	n/a	n/a
1148259	PROB	n/a	LTP199	ltpFR	11	n/a	n/a	n/a	n/a	n/a	n/a	n/a	17	5	7	5	n/a	n/a	n/a	n/a	n/a
1149654	PROB	n/a	LTP199	ltpFR	11	n/a	n/a	n/a	n/a	n/a	n/a	n/a	9	3	3	3	n/a	n/a	n/a	n/a	n/a
1151187	PROB	n/a	LTP199	ltpFR	11	n/a	n/a	n/a	n/a	n/a	n/a	n/a	14	6	1	7	n/a	n/a	n/a	n/a	n/a
1152274	PROB	n/a	LTP199	ltpFR	11	n/a	n/a	n/a	n/a	n/a	n/a	n/a	6	1	1	4	n/a	n/a	n/a	n/a	n/a
1153378	PROB	n/a	LTP199	ltpFR	11	n/a	n/a	n/a	n/a	n/a	n/a	n/a	10	1	3	6	n/a	n/a	n/a	n/a	n/a
1154633	PROB	n/a	LTP199	ltpFR	11	n/a	n/a	n/a	n/a	n/a	n/a	n/a	13	5	7	1	n/a	n/a	n/a	n/a	n/a
1155871	PROB	n/a	LTP199	ltpFR	11	n/a	n/a	n/a	n/a	n/a	n/a	n/a	11	5	4	2	n/a	n/a	n/a	n/a	n/a
1158799	PROB	n/a	LTP199	ltpFR	11	n/a	n/a	n/a	n/a	n/a	n/a	n/a	12	7	1	4	n/a	n/a	n/a	n/a	n/a
1159889	STOP	n/a	LTP199	ltpFR	11	n/a	n/a	n/a	n/a	n/a	n/a	n/a	n/a	n/a	n/a	n/a	n/a	n/a	n/a	n/a	n/a
1161643	WORD	wordpools/wasnorm_wordpool_less_exclusions.txt	LTP199	ltpFR	11	4	1	CLIPPERS	324	n/a	n/a	0	n/a	0	0	0	0.422607421875	0.5869140625	0	lower	zerothre.ttf
1164655	START	n/a	LTP199	ltpFR	11	n/a	n/a	n/a	n/a	n/a	n/a	n/a	n/a	n/a	n/a	n/a	n/a	n/a	n/a	n/a	n/a
1165524	PROB	n/a	LTP199	ltpFR	11	n/a	n/a	n/a	n/a	n/a	n/a	n/a	21	6	8	7	n/a	n/a	n/a	n/a	n/a
1168124	PROB	n/a	LTP199	ltpFR	11	n/a	n/a	n/a	n/a	n/a	n/a	n/a	11	8	2	1	n/a	n/a	n/a	n/a	n/a
1170192	PROB	n/a	LTP199	ltpFR	11	n/a	n/a	n/a	n/a	n/a	n/a	n/a	12	3	8	1	n/a	n/a	n/a	n/a	n/a
1171319	PROB	n/a	LTP199	ltpFR	11	n/a	n/a	n/a	n/a	n/a	n/a	n/a	22	9	6	7	n/a	n/a	n/a	n/a	n/a
1173237	PROB	n/a	LTP199	ltpFR	11	n/a	n/a	n/a	n/a	n/a	n/a	n/a	11	6	4	1	n/a	n/a	n/a	n/a	n/a
1174307	PROB	n/a	LTP199	ltpFR	11	n/a	n/a	n/a	n/a	n/a	n/a	n/a	15	4	3	8	n/a	n/a	n/a	n/a	n/a
1175411	PROB	n/a	LTP199	ltpFR	11	n/a	n/a	n/a	n/a	n/a	n/a	n/a	24	7	9	8	n/a	n/a	n/a	n/a	n/a
1177887	PROB	n/a	LTP199	ltpFR	11	n/a	n/a	n/a	n/a	n/a	n/a	n/a	9	2	4	3	n/a	n/a	n/a	n/a	n/a
1179665	STOP	n/a	LTP199	ltpFR	11	n/a	n/a	n/a	n/a	n/a	n/a	n/a	n/a	n/a	n/a	n/a	n/a	n/a	n/a	n/a	n/a
1181685	WORD	wordpools/wasnorm_wordpool_less_exclusions.txt	LTP199	ltpFR	11	4	1	BLADE	134	n/a	n/a	0	n/a	0	0	0	0.422607421875	0.5869140625	0	lower	zerothre.ttf
1184697	START	n/a	LTP199	ltpFR	11	n/a	n/a	n/a	n/a	n/a	n/a	n/a	n/a	n/a	n/a	n/a	n/a	n/a	n/a	n/a	n/a
1185606	PROB	n/a	LTP199	ltpFR	11	n/a	n/a	n/a	n/a	n/a	n/a	n/a	10	5	2	3	n/a	n/a	n/a	n/a	n/a
1187858	PROB	n/a	LTP199	ltpFR	11	n/a	n/a	n/a	n/a	n/a	n/a	n/a	13	3	6	4	n/a	n/a	n/a	n/a	n/a
1189197	PROB	n/a	LTP199	ltpFR	11	n/a	n/a	n/a	n/a	n/a	n/a	n/a	18	8	1	9	n/a	n/a	n/a	n/a	n/a
1190876	PROB	n/a	LTP199	ltpFR	11	n/a	n/a	n/a	n/a	n/a	n/a	n/a	18	9	8	1	n/a	n/a	n/a	n/a	n/a
1192883	PROB	n/a	LTP199	ltpFR	11	n/a	n/a	n/a	n/a	n/a	n/a	n/a	18	1	8	9	n/a	n/a	n/a	n/a	n/a
1194048	PROB	n/a	LTP199	ltpFR	11	n/a	n/a	n/a	n/a	n/a	n/a	n/a	16	3	7	6	n/a	n/a	n/a	n/a	n/a
1195286	PROB	n/a	LTP199	ltpFR	11	n/a	n/a	n/a	n/a	n/a	n/a	n/a	16	5	6	5	n/a	n/a	n/a	n/a	n/a
1196631	PROB	n/a	LTP199	ltpFR	11	n/a	n/a	n/a	n/a	n/a	n/a	n/a	10	1	1	8	n/a	n/a	n/a	n/a	n/a
1197997	PROB	n/a	LTP199	ltpFR	11	n/a	n/a	n/a	n/a	n/a	n/a	n/a	12	6	1	5	n/a	n/a	n/a	n/a	n/a
1199281	STOP	n/a	LTP199	ltpFR	11	n/a	n/a	n/a	n/a	n/a	n/a	n/a	n/a	n/a	n/a	n/a	n/a	n/a	n/a	n/a	n/a
1201817	WORD	wordpools/wasnorm_wordpool_less_exclusions.txt	LTP199	ltpFR	11	4	1	PAW	1029	n/a	n/a	0	n/a	0	0	0	0.422607421875	0.5869140625	0	lower	zerothre.ttf
1204829	START	n/a	LTP199	ltpFR	11	n/a	n/a	n/a	n/a	n/a	n/a	n/a	n/a	n/a	n/a	n/a	n/a	n/a	n/a	n/a	n/a
1205893	PROB	n/a	LTP199	ltpFR	11	n/a	n/a	n/a	n/a	n/a	n/a	n/a	11	6	1	4	n/a	n/a	n/a	n/a	n/a
1207499	PROB	n/a	LTP199	ltpFR	11	n/a	n/a	n/a	n/a	n/a	n/a	n/a	13	3	4	6	n/a	n/a	n/a	n/a	n/a
1209931	PROB	n/a	LTP199	ltpFR	11	n/a	n/a	n/a	n/a	n/a	n/a	n/a	25	7	9	9	n/a	n/a	n/a	n/a	n/a
1211604	PROB	n/a	LTP199	ltpFR	11	n/a	n/a	n/a	n/a	n/a	n/a	n/a	24	6	9	9	n/a	n/a	n/a	n/a	n/a
1213455	PROB	n/a	LTP199	ltpFR	11	n/a	n/a	n/a	n/a	n/a	n/a	n/a	10	2	6	2	n/a	n/a	n/a	n/a	n/a
1215144	PROB	n/a	LTP199	ltpFR	11	n/a	n/a	n/a	n/a	n/a	n/a	n/a	9	2	2	5	n/a	n/a	n/a	n/a	n/a
1216299	PROB	n/a	LTP199	ltpFR	11	n/a	n/a	n/a	n/a	n/a	n/a	n/a	11	3	2	6	n/a	n/a	n/a	n/a	n/a
1220817	STOP	n/a	LTP199	ltpFR	11	n/a	n/a	n/a	n/a	n/a	n/a	n/a	n/a	n/a	n/a	n/a	n/a	n/a	n/a	n/a	n/a
1221976	WORD	wordpools/wasnorm_wordpool_less_exclusions.txt	LTP199	ltpFR	11	4	1	HEADBAND	696	n/a	n/a	0	n/a	0	0	0	0.422607421875	0.5869140625	0	lower	zerothre.ttf
1224988	START	n/a	LTP199	ltpFR	11	n/a	n/a	n/a	n/a	n/a	n/a	n/a	n/a	n/a	n/a	n/a	n/a	n/a	n/a	n/a	n/a
1226075	PROB	n/a	LTP199	ltpFR	11	n/a	n/a	n/a	n/a	n/a	n/a	n/a	24	8	8	8	n/a	n/a	n/a	n/a	n/a
1227524	PROB	n/a	LTP199	ltpFR	11	n/a	n/a	n/a	n/a	n/a	n/a	n/a	17	4	6	7	n/a	n/a	n/a	n/a	n/a
1228852	PROB	n/a	LTP199	ltpFR	11	n/a	n/a	n/a	n/a	n/a	n/a	n/a	20	6	6	8	n/a	n/a	n/a	n/a	n/a
1230318	PROB	n/a	LTP199	ltpFR	11	n/a	n/a	n/a	n/a	n/a	n/a	n/a	18	7	8	3	n/a	n/a	n/a	n/a	n/a
1231964	PROB	n/a	LTP199	ltpFR	11	n/a	n/a	n/a	n/a	n/a	n/a	n/a	20	8	9	3	n/a	n/a	n/a	n/a	n/a
1233637	PROB	n/a	LTP199	ltpFR	11	n/a	n/a	n/a	n/a	n/a	n/a	n/a	15	5	6	4	n/a	n/a	n/a	n/a	n/a
1235053	PROB	n/a	LTP199	ltpFR	11	n/a	n/a	n/a	n/a	n/a	n/a	n/a	14	2	4	6	n/a	n/a	n/a	n/a	n/a
1236826	PROB	n/a	LTP199	ltpFR	11	n/a	n/a	n/a	n/a	n/a	n/a	n/a	18	7	6	5	n/a	n/a	n/a	n/a	n/a
1238382	PROB	n/a	LTP199	ltpFR	11	n/a	n/a	n/a	n/a	n/a	n/a	n/a	16	5	2	9	n/a	n/a	n/a	n/a	n/a
1239905	STOP	n/a	LTP199	ltpFR	11	n/a	n/a	n/a	n/a	n/a	n/a	n/a	n/a	n/a	n/a	n/a	n/a	n/a	n/a	n/a	n/a
1242939	REC_START	n/a	LTP199	ltpFR	11	4	n/a	n/a	n/a	n/a	n/a	n/a	n/a	0	0	0	n/a	n/a	n/a	n/a	n/a
1244979	REC_WORD	wordpools/wasnorm_wordpool_less_exclusions.txt	LTP199	ltpFR	11	4	1	SCULPTURE	1258	n/a	n/a	0	n/a	0	0	0	n/a	n/a	n/a	n/a	n/a
1246476	REC_WORD	wordpools/wasnorm_wordpool_less_exclusions.txt	LTP199	ltpFR	11	4	1	MONUMENT	913	n/a	n/a	0	n/a	0	0	0	n/a	n/a	n/a	n/a	n/a
1253260	REC_WORD	wordpools/wasnorm_wordpool_less_exclusions.txt	LTP199	ltpFR	11	4	1	OCTOPUS	971	n/a	n/a	1	n/a	0	0	0	n/a	n/a	n/a	n/a	n/a
1255161	REC_WORD	wordpools/wasnorm_wordpool_less_exclusions.txt	LTP199	ltpFR	11	4	1	CLAM	315	n/a	n/a	1	n/a	0	0	0	n/a	n/a	n/a	n/a	n/a
1262838	REC_WORD	wordpools/wasnorm_wordpool_less_exclusions.txt	LTP199	ltpFR	11	4	1	FLUTE	585	n/a	n/a	0	n/a	0	0	0	n/a	n/a	n/a	n/a	n/a
1263866	REC_WORD	wordpools/wasnorm_wordpool_less_exclusions.txt	LTP199	ltpFR	11	4	1	BAND	78	n/a	n/a	0	n/a	0	0	0	n/a	n/a	n/a	n/a	n/a
1267812	REC_WORD	wordpools/wasnorm_wordpool_less_exclusions.txt	LTP199	ltpFR	11	4	1	BOUILLON	154	n/a	n/a	0	n/a	0	0	0	n/a	n/a	n/a	n/a	n/a
1307407	REC_WORD	wordpools/wasnorm_wordpool_less_exclusions.txt	LTP199	ltpFR	11	4	1	PAW	1029	n/a	n/a	0	n/a	0	0	0	n/a	n/a	n/a	n/a	n/a
1310700	REC_WORD	wordpools/wasnorm_wordpool_less_exclusions.txt	LTP199	ltpFR	11	4	1	FINGERNAIL	568	n/a	n/a	0	n/a	0	0	0	n/a	n/a	n/a	n/a	n/a
1339881	WORD	wordpools/wasnorm_wordpool_less_exclusions.txt	LTP199	ltpFR	11	5	1	UMBRELLA	1534	n/a	n/a	0	n/a	0	0	0	0.422607421875	0.5869140625	0	lower	zerothre.ttf
1344097	WORD	wordpools/wasnorm_wordpool_less_exclusions.txt	LTP199	ltpFR	11	5	1	INFANT	737	n/a	n/a	1	n/a	0	0	0	0.422607421875	0.5869140625	0	lower	zerothre.ttf
1348286	WORD	wordpools/wasnorm_wordpool_less_exclusions.txt	LTP199	ltpFR	11	5	0	REFEREE	1178	n/a	n/a	1	n/a	0	0	0	0.57763671875	0.412841796875	1	upper	amplitud.ttf
1352267	WORD	wordpools/wasnorm_wordpool_less_exclusions.txt	LTP199	ltpFR	11	5	0	UMPIRE	1535	n/a	n/a	1	n/a	0	0	0	0.57763671875	0.412841796875	1	upper	amplitud.ttf
1356149	WORD	wordpools/wasnorm_wordpool_less_exclusions.txt	LTP199	ltpFR	11	5	0	LADY	794	n/a	n/a	1	n/a	0	0	0	0.57763671875	0.412841796875	1	upper	amplitud.ttf
1359997	WORD	wordpools/wasnorm_wordpool_less_exclusions.txt	LTP199	ltpFR	11	5	1	BLUEPRINT	142	n/a	n/a	0	n/a	0	0	0	0.422607421875	0.5869140625	0	lower	zerothre.ttf
1364028	WORD	wordpools/wasnorm_wordpool_less_exclusions.txt	LTP199	ltpFR	11	5	1	TRACTOR	1493	n/a	n/a	0	n/a	0	0	0	0.422607421875	0.5869140625	0	lower	zerothre.ttf
1368244	WORD	wordpools/wasnorm_wordpool_less_exclusions.txt	LTP199	ltpFR	11	5	1	PECAN	1036	n/a	n/a	0	n/a	0	0	0	0.422607421875	0.5869140625	0	lower	zerothre.ttf
1372259	WORD	wordpools/wasnorm_wordpool_less_exclusions.txt	LTP199	ltpFR	11	5	0	PANTHER	1009	n/a	n/a	1	n/a	0	0	0	0.57763671875	0.412841796875	1	upper	amplitud.ttf
1376341	WORD	wordpools/wasnorm_wordpool_less_exclusions.txt	LTP199	ltpFR	11	5	0	CAVE	263	n/a	n/a	1	n/a	0	0	0	0.57763671875	0.412841796875	1	upper	amplitud.ttf
1380451	WORD	wordpools/wasnorm_wordpool_less_exclusions.txt	LTP199	ltpFR	11	5	0	SQUIRREL	1362	n/a	n/a	0	n/a	0	0	0	0.57763671875	0.412841796875	1	upper	amplitud.ttf
1384606	WORD	wordpools/wasnorm_wordpool_less_exclusions.txt	LTP199	ltpFR	11	5	0	TAIL	1430	n/a	n/a	0	n/a	0	0	0	0.57763671875	0.412841796875	1	upper	amplitud.ttf
1388722	WORD	wordpools/wasnorm_wordpool_less_exclusions.txt	LTP199	ltpFR	11	5	0	TRENCH	1503	n/a	n/a	1	n/a	0	0	0	0.57763671875	0.412841796875	1	upper	amplitud.ttf
1392787	WORD	wordpools/wasnorm_wordpool_less_exclusions.txt	LTP199	ltpFR	11	5	1	HAT	690	n/a	n/a	0	n/a	0	0	0	0.422607421875	0.5869140625	0	lower	zerothre.ttf
1396902	WORD	wordpools/wasnorm_wordpool_less_exclusions.txt	LTP199	ltpFR	11	5	1	CLAW	319	n/a	n/a	0	n/a	0	0	0	0.422607421875	0.5869140625	0	lower	zerothre.ttf
1400744	WORD	wordpools/wasnorm_wordpool_less_exclusions.txt	LTP199	ltpFR	11	5	1	FOOTBALL	591	n/a	n/a	0	n/a	0	0	0	0.422607421875	0.5869140625	0	lower	zerothre.ttf
1403756	START	n/a	LTP199	ltpFR	11	n/a	n/a	n/a	n/a	n/a	n/a	n/a	n/a	n/a	n/a	n/a	n/a	n/a	n/a	n/a	n/a
1404732	PROB	n/a	LTP199	ltpFR	11	n/a	n/a	n/a	n/a	n/a	n/a	n/a	12	2	6	4	n/a	n/a	n/a	n/a	n/a
1407001	PROB	n/a	LTP199	ltpFR	11	n/a	n/a	n/a	n/a	n/a	n/a	n/a	15	1	9	5	n/a	n/a	n/a	n/a	n/a
1408005	PROB	n/a	LTP199	ltpFR	11	n/a	n/a	n/a	n/a	n/a	n/a	n/a	12	2	7	3	n/a	n/a	n/a	n/a	n/a
1409199	PROB	n/a	LTP199	ltpFR	11	n/a	n/a	n/a	n/a	n/a	n/a	n/a	14	4	8	2	n/a	n/a	n/a	n/a	n/a
1410217	STOP	n/a	LTP199	ltpFR	11	n/a	n/a	n/a	n/a	n/a	n/a	n/a	n/a	n/a	n/a	n/a	n/a	n/a	n/a	n/a	n/a
1413677	REC_START	n/a	LTP199	ltpFR	11	5	n/a	n/a	n/a	n/a	n/a	n/a	n/a	0	0	0	n/a	n/a	n/a	n/a	n/a
1415627	REC_WORD	wordpools/wasnorm_wordpool_less_exclusions.txt	LTP199	ltpFR	11	5	1	UMBRELLA	1534	n/a	n/a	0	n/a	0	0	0	n/a	n/a	n/a	n/a	n/a
1416680	REC_WORD	wordpools/wasnorm_wordpool_less_exclusions.txt	LTP199	ltpFR	11	5	1	INFANT	737	n/a	n/a	1	n/a	0	0	0	n/a	n/a	n/a	n/a	n/a
1418067	REC_WORD	wordpools/wasnorm_wordpool_less_exclusions.txt	LTP199	ltpFR	11	5	0	REFEREE	1178	n/a	n/a	1	n/a	0	0	0	n/a	n/a	n/a	n/a	n/a
1419444	REC_WORD	wordpools/wasnorm_wordpool_less_exclusions.txt	LTP199	ltpFR	11	5	0	UMPIRE	1535	n/a	n/a	1	n/a	0	0	0	n/a	n/a	n/a	n/a	n/a
1421245	REC_WORD	wordpools/wasnorm_wordpool_less_exclusions.txt	LTP199	ltpFR	11	5	0	LADY	794	n/a	n/a	1	n/a	0	0	0	n/a	n/a	n/a	n/a	n/a
1428154	REC_WORD	wordpools/wasnorm_wordpool_less_exclusions.txt	LTP199	ltpFR	11	5	1	PECAN	1036	n/a	n/a	0	n/a	0	0	0	n/a	n/a	n/a	n/a	n/a
1429167	REC_WORD	wordpools/wasnorm_wordpool_less_exclusions.txt	LTP199	ltpFR	11	5	0	PANTHER	1009	n/a	n/a	1	n/a	0	0	0	n/a	n/a	n/a	n/a	n/a
1431676	REC_WORD	wordpools/wasnorm_wordpool_less_exclusions.txt	LTP199	ltpFR	11	5	0	TRENCH	1503	n/a	n/a	1	n/a	0	0	0	n/a	n/a	n/a	n/a	n/a
1432609	REC_WORD	wordpools/wasnorm_wordpool_less_exclusions.txt	LTP199	ltpFR	11	5	0	CAVE	263	n/a	n/a	1	n/a	0	0	0	n/a	n/a	n/a	n/a	n/a
1433461	REC_WORD	wordpools/wasnorm_wordpool_less_exclusions.txt	LTP199	ltpFR	11	5	0	SQUIRREL	1362	n/a	n/a	0	n/a	0	0	0	n/a	n/a	n/a	n/a	n/a
1435348	REC_WORD	wordpools/wasnorm_wordpool_less_exclusions.txt	LTP199	ltpFR	11	5	0	TAIL	1430	n/a	n/a	0	n/a	0	0	0	n/a	n/a	n/a	n/a	n/a
1444387	REC_WORD	wordpools/wasnorm_wordpool_less_exclusions.txt	LTP199	ltpFR	11	5	1	HAT	690	n/a	n/a	0	n/a	0	0	0	n/a	n/a	n/a	n/a	n/a
1480984	REC_WORD	wordpools/wasnorm_wordpool_less_exclusions.txt	LTP199	ltpFR	11	5	1	CLAW	319	n/a	n/a	0	n/a	0	0	0	n/a	n/a	n/a	n/a	n/a
1495936	WORD	wordpools/wasnorm_wordpool_less_exclusions.txt	LTP199	ltpFR	11	6	0	PEN	1041	n/a	n/a	0	n/a	0	0	0	0.57763671875	0.412841796875	1	upper	amplitud.ttf
1499851	WORD	wordpools/wasnorm_wordpool_less_exclusions.txt	LTP199	ltpFR	11	6	0	BOULEVARD	156	n/a	n/a	1	n/a	0	0	0	0.57763671875	0.412841796875	1	upper	amplitud.ttf
1503933	WORD	wordpools/wasnorm_wordpool_less_exclusions.txt	LTP199	ltpFR	11	6	1	ENEMY	534	n/a	n/a	1	n/a	0	0	0	0.422607421875	0.5869140625	0	lower	zerothre.ttf
1507820	WORD	wordpools/wasnorm_wordpool_less_exclusions.txt	LTP199	ltpFR	11	6	1	TEAPOT	1442	n/a	n/a	0	n/a	0	0	0	0.422607421875	0.5869140625	0	lower	zerothre.ttf
1511769	WORD	wordpools/wasnorm_wordpool_less_exclusions.txt	LTP199	ltpFR	11	6	1	FREEWAY	603	n/a	n/a	0	n/a	0	0	0	0.422607421875	0.5869140625	0	lower	zerothre.ttf
1515644	WORD	wordpools/wasnorm_wordpool_less_exclusions.txt	LTP199	ltpFR	11	6	1	COMPANION	357	n/a	n/a	1	n/a	0	0	0	0.422607421875	0.5869140625	0	lower	zerothre.ttf
1519749	WORD	wordpools/wasnorm_wordpool_less_exclusions.txt	LTP199	ltpFR	11	6	1	PILOT	1070	n/a	n/a	1	n/a	0	0	0	0.422607421875	0.5869140625	0	lower	zerothre.ttf
1523864	WORD	wordpools/wasnorm_wordpool_less_exclusions.txt	LTP199	ltpFR	11	6	0	TABLET	1427	n/a	n/a	0	n/a	0	0	0	0.57763671875	0.412841796875	1	upper	amplitud.ttf
1527722	WORD	wordpools/wasnorm_wordpool_less_exclusions.txt	LTP199	ltpFR	11	6	0	HANGER	687	n/a	n/a	0	n/a	0	0	0	0.57763671875	0.412841796875	1	upper	amplitud.ttf
1531871	WORD	wordpools/wasnorm_wordpool_less_exclusions.txt	LTP199	ltpFR	11	6	1	COSTUME	383	n/a	n/a	0	n/a	0	0	0	0.422607421875	0.5869140625	0	lower	zerothre.ttf
1535943	WORD	wordpools/wasnorm_wordpool_less_exclusions.txt	LTP199	ltpFR	11	6	1	TECHNICIAN	1443	n/a	n/a	1	n/a	0	0	0	0.422607421875	0.5869140625	0	lower	zerothre.ttf
1540008	WORD	wordpools/wasnorm_wordpool_less_exclusions.txt	LTP199	ltpFR	11	6	1	TUBE	1516	n/a	n/a	0	n/a	0	0	0	0.422607421875	0.5869140625	0	lower	zerothre.ttf
1544117	WORD	wordpools/wasnorm_wordpool_less_exclusions.txt	LTP199	ltpFR	11	6	0	DOLLAR	482	n/a	n/a	0	n/a	0	0	0	0.57763671875	0.412841796875	1	upper	amplitud.ttf
1548116	WORD	wordpools/wasnorm_wordpool_less_exclusions.txt	LTP199	ltpFR	11	6	0	COIN	343	n/a	n/a	0	n/a	0	0	0	0.57763671875	0.412841796875	1	upper	amplitud.ttf
1552131	WORD	wordpools/wasnorm_wordpool_less_exclusions.txt	LTP199	ltpFR	11	6	0	WINE	1613	n/a	n/a	1	n/a	0	0	0	0.57763671875	0.412841796875	1	upper	amplitud.ttf
1556119	WORD	wordpools/wasnorm_wordpool_less_exclusions.txt	LTP199	ltpFR	11	6	0	SIBLING	1301	n/a	n/a	1	n/a	0	0	0	0.57763671875	0.412841796875	1	upper	amplitud.ttf
1559131	START	n/a	LTP199	ltpFR	11	n/a	n/a	n/a	n/a	n/a	n/a	n/a	n/a	n/a	n/a	n/a	n/a	n/a	n/a	n/a	n/a
1560078	PROB	n/a	LTP199	ltpFR	11	n/a	n/a	n/a	n/a	n/a	n/a	n/a	13	4	3	6	n/a	n/a	n/a	n/a	n/a
1561924	PROB	n/a	LTP199	ltpFR	11	n/a	n/a	n/a	n/a	n/a	n/a	n/a	19	6	5	8	n/a	n/a	n/a	n/a	n/a
1563028	PROB	n/a	LTP199	ltpFR	11	n/a	n/a	n/a	n/a	n/a	n/a	n/a	9	4	1	4	n/a	n/a	n/a	n/a	n/a
1564032	PROB	n/a	LTP199	ltpFR	11	n/a	n/a	n/a	n/a	n/a	n/a	n/a	15	6	3	6	n/a	n/a	n/a	n/a	n/a
1565113	PROB	n/a	LTP199	ltpFR	11	n/a	n/a	n/a	n/a	n/a	n/a	n/a	1	4	4	9	n/a	n/a	n/a	n/a	n/a
1566341	PROB	n/a	LTP199	ltpFR	11	n/a	n/a	n/a	n/a	n/a	n/a	n/a	7	4	1	2	n/a	n/a	n/a	n/a	n/a
1568047	PROB	n/a	LTP199	ltpFR	11	n/a	n/a	n/a	n/a	n/a	n/a	n/a	10	6	1	3	n/a	n/a	n/a	n/a	n/a
1569948	PROB	n/a	LTP199	ltpFR	11	n/a	n/a	n/a	n/a	n/a	n/a	n/a	21	8	9	4	n/a	n/a	n/a	n/a	n/a
1572307	PROB	n/a	LTP199	ltpFR	11	n/a	n/a	n/a	n/a	n/a	n/a	n/a	19	7	8	4	n/a	n/a	n/a	n/a	n/a
1573857	STOP	n/a	LTP199	ltpFR	11	n/a	n/a	n/a	n/a	n/a	n/a	n/a	n/a	n/a	n/a	n/a	n/a	n/a	n/a	n/a	n/a
1576982	REC_START	n/a	LTP199	ltpFR	11	6	n/a	n/a	n/a	n/a	n/a	n/a	n/a	0	0	0	n/a	n/a	n/a	n/a	n/a
1591269	REC_WORD	wordpools/wasnorm_wordpool_less_exclusions.txt	LTP199	ltpFR	11	6	0	PEN	1041	n/a	n/a	0	n/a	0	0	0	n/a	n/a	n/a	n/a	n/a
1592536	REC_WORD	wordpools/wasnorm_wordpool_less_exclusions.txt	LTP199	ltpFR	11	6	0	BOULEVARD	156	n/a	n/a	1	n/a	0	0	0	n/a	n/a	n/a	n/a	n/a
1594028	REC_WORD	wordpools/wasnorm_wordpool_less_exclusions.txt	LTP199	ltpFR	11	6	1	ENEMY	534	n/a	n/a	1	n/a	0	0	0	n/a	n/a	n/a	n/a	n/a
1596003	REC_WORD	wordpools/wasnorm_wordpool_less_exclusions.txt	LTP199	ltpFR	11	6	1	FREEWAY	603	n/a	n/a	0	n/a	0	0	0	n/a	n/a	n/a	n/a	n/a
1599401	REC_WORD	wordpools/wasnorm_wordpool_less_exclusions.txt	LTP199	ltpFR	11	6	1	COMPANION	357	n/a	n/a	1	n/a	0	0	0	n/a	n/a	n/a	n/a	n/a
1600882	REC_WORD	wordpools/wasnorm_wordpool_less_exclusions.txt	LTP199	ltpFR	11	6	1	PILOT	1070	n/a	n/a	1	n/a	0	0	0	n/a	n/a	n/a	n/a	n/a
1691322	WORD	wordpools/wasnorm_wordpool_less_exclusions.txt	LTP199	ltpFR	11	7	0	BUSH	202	n/a	n/a	1	n/a	0	0	0	0.57763671875	0.412841796875	1	upper	amplitud.ttf
1695254	WORD	wordpools/wasnorm_wordpool_less_exclusions.txt	LTP199	ltpFR	11	7	0	BARN	89	n/a	n/a	1	n/a	0	0	0	0.57763671875	0.412841796875	1	upper	amplitud.ttf
1699436	WORD	wordpools/wasnorm_wordpool_less_exclusions.txt	LTP199	ltpFR	11	7	0	CATTLE	261	n/a	n/a	1	n/a	0	0	0	0.57763671875	0.412841796875	1	upper	amplitud.ttf
1703652	WORD	wordpools/wasnorm_wordpool_less_exclusions.txt	LTP199	ltpFR	11	7	0	MOTOR	922	n/a	n/a	1	n/a	0	0	0	0.57763671875	0.412841796875	1	upper	amplitud.ttf
1707851	WORD	wordpools/wasnorm_wordpool_less_exclusions.txt	LTP199	ltpFR	11	7	0	OUTLAW	989	n/a	n/a	1	n/a	0	0	0	0.57763671875	0.412841796875	1	upper	amplitud.ttf
1711856	WORD	wordpools/wasnorm_wordpool_less_exclusions.txt	LTP199	ltpFR	11	7	0	DINNER	468	n/a	n/a	0	n/a	0	0	0	0.57763671875	0.412841796875	1	upper	amplitud.ttf
1715921	WORD	wordpools/wasnorm_wordpool_less_exclusions.txt	LTP199	ltpFR	11	7	0	THUMB	1462	n/a	n/a	0	n/a	0	0	0	0.57763671875	0.412841796875	1	upper	amplitud.ttf
1720148	WORD	wordpools/wasnorm_wordpool_less_exclusions.txt	LTP199	ltpFR	11	7	0	MITTEN	902	n/a	n/a	0	n/a	0	0	0	0.57763671875	0.412841796875	1	upper	amplitud.ttf
1724186	WORD	wordpools/wasnorm_wordpool_less_exclusions.txt	LTP199	ltpFR	11	7	0	VEGETABLE	1552	n/a	n/a	0	n/a	0	0	0	0.57763671875	0.412841796875	1	upper	amplitud.ttf
1728050	WORD	wordpools/wasnorm_wordpool_less_exclusions.txt	LTP199	ltpFR	11	7	0	COBBLER	335	n/a	n/a	1	n/a	0	0	0	0.57763671875	0.412841796875	1	upper	amplitud.ttf
1732026	WORD	wordpools/wasnorm_wordpool_less_exclusions.txt	LTP199	ltpFR	11	7	0	RESTAURANT	1187	n/a	n/a	1	n/a	0	0	0	0.57763671875	0.412841796875	1	upper	amplitud.ttf
1735863	WORD	wordpools/wasnorm_wordpool_less_exclusions.txt	LTP199	ltpFR	11	7	0	POLICE	1098	n/a	n/a	1	n/a	0	0	0	0.57763671875	0.412841796875	1	upper	amplitud.ttf
1739788	WORD	wordpools/wasnorm_wordpool_less_exclusions.txt	LTP199	ltpFR	11	7	0	WINDSHIELD	1612	n/a	n/a	1	n/a	0	0	0	0.57763671875	0.412841796875	1	upper	amplitud.ttf
1743810	WORD	wordpools/wasnorm_wordpool_less_exclusions.txt	LTP199	ltpFR	11	7	0	SUGAR	1401	n/a	n/a	0	n/a	0	0	0	0.57763671875	0.412841796875	1	upper	amplitud.ttf
1747718	WORD	wordpools/wasnorm_wordpool_less_exclusions.txt	LTP199	ltpFR	11	7	0	SILK	1307	n/a	n/a	0	n/a	0	0	0	0.57763671875	0.412841796875	1	upper	amplitud.ttf
1751934	WORD	wordpools/wasnorm_wordpool_less_exclusions.txt	LTP199	ltpFR	11	7	0	TURKEY	1520	n/a	n/a	1	n/a	0	0	0	0.57763671875	0.412841796875	1	upper	amplitud.ttf
1757596	REC_START	n/a	LTP199	ltpFR	11	7	n/a	n/a	n/a	n/a	n/a	n/a	n/a	0	0	0	n/a	n/a	n/a	n/a	n/a
1762290	REC_WORD	wordpools/wasnorm_wordpool_less_exclusions.txt	LTP199	ltpFR	11	7	0	TURKEY	1520	n/a	n/a	1	n/a	0	0	0	n/a	n/a	n/a	n/a	n/a
1769564	REC_WORD	wordpools/wasnorm_wordpool_less_exclusions.txt	LTP199	ltpFR	11	7	0	DINNER	468	n/a	n/a	0	n/a	0	0	0	n/a	n/a	n/a	n/a	n/a
1770985	REC_WORD	wordpools/wasnorm_wordpool_less_exclusions.txt	LTP199	ltpFR	11	7	0	VEGETABLE	1552	n/a	n/a	0	n/a	0	0	0	n/a	n/a	n/a	n/a	n/a
1772866	REC_WORD	wordpools/wasnorm_wordpool_less_exclusions.txt	LTP199	ltpFR	11	7	0	WINDSHIELD	1612	n/a	n/a	1	n/a	0	0	0	n/a	n/a	n/a	n/a	n/a
1773829	REC_WORD	wordpools/wasnorm_wordpool_less_exclusions.txt	LTP199	ltpFR	11	7	0	POLICE	1098	n/a	n/a	1	n/a	0	0	0	n/a	n/a	n/a	n/a	n/a
1779072	REC_WORD	wordpools/wasnorm_wordpool_less_exclusions.txt	LTP199	ltpFR	11	7	0	BUSH	202	n/a	n/a	1	n/a	0	0	0	n/a	n/a	n/a	n/a	n/a
1780030	REC_WORD	wordpools/wasnorm_wordpool_less_exclusions.txt	LTP199	ltpFR	11	7	0	BARN	89	n/a	n/a	1	n/a	0	0	0	n/a	n/a	n/a	n/a	n/a
1780908	REC_WORD	wordpools/wasnorm_wordpool_less_exclusions.txt	LTP199	ltpFR	11	7	0	CATTLE	261	n/a	n/a	1	n/a	0	0	0	n/a	n/a	n/a	n/a	n/a
1856462	START	n/a	LTP199	ltpFR	11	n/a	n/a	n/a	n/a	n/a	n/a	n/a	n/a	n/a	n/a	n/a	n/a	n/a	n/a	n/a	n/a
1857973	PROB	n/a	LTP199	ltpFR	11	n/a	n/a	n/a	n/a	n/a	n/a	n/a	18	9	2	7	n/a	n/a	n/a	n/a	n/a
1859356	PROB	n/a	LTP199	ltpFR	11	n/a	n/a	n/a	n/a	n/a	n/a	n/a	21	5	7	9	n/a	n/a	n/a	n/a	n/a
1861202	PROB	n/a	LTP199	ltpFR	11	n/a	n/a	n/a	n/a	n/a	n/a	n/a	20	7	7	6	n/a	n/a	n/a	n/a	n/a
1862607	PROB	n/a	LTP199	ltpFR	11	n/a	n/a	n/a	n/a	n/a	n/a	n/a	15	5	6	5	n/a	n/a	n/a	n/a	n/a
1863497	STOP	n/a	LTP199	ltpFR	11	n/a	n/a	n/a	n/a	n/a	n/a	n/a	n/a	n/a	n/a	n/a	n/a	n/a	n/a	n/a	n/a
1865334	WORD	wordpools/wasnorm_wordpool_less_exclusions.txt	LTP199	ltpFR	11	8	1	DINER	467	n/a	n/a	0	n/a	0	0	0	0.422607421875	0.5869140625	0	lower	zerothre.ttf
1868346	START	n/a	LTP199	ltpFR	11	n/a	n/a	n/a	n/a	n/a	n/a	n/a	n/a	n/a	n/a	n/a	n/a	n/a	n/a	n/a	n/a
1869232	PROB	n/a	LTP199	ltpFR	11	n/a	n/a	n/a	n/a	n/a	n/a	n/a	13	2	9	2	n/a	n/a	n/a	n/a	n/a
1870548	PROB	n/a	LTP199	ltpFR	11	n/a	n/a	n/a	n/a	n/a	n/a	n/a	10	3	4	3	n/a	n/a	n/a	n/a	n/a
1873291	PROB	n/a	LTP199	ltpFR	11	n/a	n/a	n/a	n/a	n/a	n/a	n/a	15	2	5	8	n/a	n/a	n/a	n/a	n/a
1874764	PROB	n/a	LTP199	ltpFR	11	n/a	n/a	n/a	n/a	n/a	n/a	n/a	21	5	9	7	n/a	n/a	n/a	n/a	n/a
1876241	STOP	n/a	LTP199	ltpFR	11	n/a	n/a	n/a	n/a	n/a	n/a	n/a	n/a	n/a	n/a	n/a	n/a	n/a	n/a	n/a	n/a
1877340	WORD	wordpools/wasnorm_wordpool_less_exclusions.txt	LTP199	ltpFR	11	8	1	BUREAU	199	n/a	n/a	0	n/a	0	0	0	0.422607421875	0.5869140625	0	lower	zerothre.ttf
1880352	START	n/a	LTP199	ltpFR	11	n/a	n/a	n/a	n/a	n/a	n/a	n/a	n/a	n/a	n/a	n/a	n/a	n/a	n/a	n/a	n/a
1881405	PROB	n/a	LTP199	ltpFR	11	n/a	n/a	n/a	n/a	n/a	n/a	n/a	12	1	8	3	n/a	n/a	n/a	n/a	n/a
1883011	PROB	n/a	LTP199	ltpFR	11	n/a	n/a	n/a	n/a	n/a	n/a	n/a	11	4	1	6	n/a	n/a	n/a	n/a	n/a
1884366	PROB	n/a	LTP199	ltpFR	11	n/a	n/a	n/a	n/a	n/a	n/a	n/a	13	8	4	1	n/a	n/a	n/a	n/a	n/a
1886849	STOP	n/a	LTP199	ltpFR	11	n/a	n/a	n/a	n/a	n/a	n/a	n/a	n/a	n/a	n/a	n/a	n/a	n/a	n/a	n/a	n/a
1889302	WORD	wordpools/wasnorm_wordpool_less_exclusions.txt	LTP199	ltpFR	11	8	1	FRIEND	606	n/a	n/a	1	n/a	0	0	0	0.422607421875	0.5869140625	0	lower	zerothre.ttf
1892320	START	n/a	LTP199	ltpFR	11	n/a	n/a	n/a	n/a	n/a	n/a	n/a	n/a	n/a	n/a	n/a	n/a	n/a	n/a	n/a	n/a
1893373	PROB	n/a	LTP199	ltpFR	11	n/a	n/a	n/a	n/a	n/a	n/a	n/a	16	3	8	5	n/a	n/a	n/a	n/a	n/a
1894572	PROB	n/a	LTP199	ltpFR	11	n/a	n/a	n/a	n/a	n/a	n/a	n/a	17	7	9	1	n/a	n/a	n/a	n/a	n/a
1896194	PROB	n/a	LTP199	ltpFR	11	n/a	n/a	n/a	n/a	n/a	n/a	n/a	20	9	4	7	n/a	n/a	n/a	n/a	n/a
1897572	PROB	n/a	LTP199	ltpFR	11	n/a	n/a	n/a	n/a	n/a	n/a	n/a	23	7	7	9	n/a	n/a	n/a	n/a	n/a
1899385	STOP	n/a	LTP199	ltpFR	11	n/a	n/a	n/a	n/a	n/a	n/a	n/a	n/a	n/a	n/a	n/a	n/a	n/a	n/a	n/a	n/a
1901498	WORD	wordpools/wasnorm_wordpool_less_exclusions.txt	LTP199	ltpFR	11	8	1	SALT	1229	n/a	n/a	0	n/a	0	0	0	0.422607421875	0.5869140625	0	lower	zerothre.ttf
1904516	START	n/a	LTP199	ltpFR	11	n/a	n/a	n/a	n/a	n/a	n/a	n/a	n/a	n/a	n/a	n/a	n/a	n/a	n/a	n/a	n/a
1905536	PROB	n/a	LTP199	ltpFR	11	n/a	n/a	n/a	n/a	n/a	n/a	n/a	14	3	2	9	n/a	n/a	n/a	n/a	n/a
1907018	PROB	n/a	LTP199	ltpFR	11	n/a	n/a	n/a	n/a	n/a	n/a	n/a	15	4	2	9	n/a	n/a	n/a	n/a	n/a
1908190	PROB	n/a	LTP199	ltpFR	11	n/a	n/a	n/a	n/a	n/a	n/a	n/a	13	7	4	2	n/a	n/a	n/a	n/a	n/a
1909327	PROB	n/a	LTP199	ltpFR	11	n/a	n/a	n/a	n/a	n/a	n/a	n/a	16	3	5	8	n/a	n/a	n/a	n/a	n/a
1910448	PROB	n/a	LTP199	ltpFR	11	n/a	n/a	n/a	n/a	n/a	n/a	n/a	12	7	1	4	n/a	n/a	n/a	n/a	n/a
1911649	STOP	n/a	LTP199	ltpFR	11	n/a	n/a	n/a	n/a	n/a	n/a	n/a	n/a	n/a	n/a	n/a	n/a	n/a	n/a	n/a	n/a
1913409	WORD	wordpools/wasnorm_wordpool_less_exclusions.txt	LTP199	ltpFR	11	8	0	CLAY	320	n/a	n/a	0	n/a	0	0	0	0.57763671875	0.412841796875	1	upper	amplitud.ttf
1916421	START	n/a	LTP199	ltpFR	11	n/a	n/a	n/a	n/a	n/a	n/a	n/a	n/a	n/a	n/a	n/a	n/a	n/a	n/a	n/a	n/a
1917464	PROB	n/a	LTP199	ltpFR	11	n/a	n/a	n/a	n/a	n/a	n/a	n/a	16	1	7	8	n/a	n/a	n/a	n/a	n/a
1918612	PROB	n/a	LTP199	ltpFR	11	n/a	n/a	n/a	n/a	n/a	n/a	n/a	18	9	1	8	n/a	n/a	n/a	n/a	n/a
1920804	PROB	n/a	LTP199	ltpFR	11	n/a	n/a	n/a	n/a	n/a	n/a	n/a	16	5	4	7	n/a	n/a	n/a	n/a	n/a
1922142	PROB	n/a	LTP199	ltpFR	11	n/a	n/a	n/a	n/a	n/a	n/a	n/a	19	4	7	8	n/a	n/a	n/a	n/a	n/a
1923161	STOP	n/a	LTP199	ltpFR	11	n/a	n/a	n/a	n/a	n/a	n/a	n/a	n/a	n/a	n/a	n/a	n/a	n/a	n/a	n/a	n/a
1925287	WORD	wordpools/wasnorm_wordpool_less_exclusions.txt	LTP199	ltpFR	11	8	0	COOLER	375	n/a	n/a	1	n/a	0	0	0	0.57763671875	0.412841796875	1	upper	amplitud.ttf
1928299	START	n/a	LTP199	ltpFR	11	n/a	n/a	n/a	n/a	n/a	n/a	n/a	n/a	n/a	n/a	n/a	n/a	n/a	n/a	n/a	n/a
1929493	PROB	n/a	LTP199	ltpFR	11	n/a	n/a	n/a	n/a	n/a	n/a	n/a	17	8	6	3	n/a	n/a	n/a	n/a	n/a
1931935	PROB	n/a	LTP199	ltpFR	11	n/a	n/a	n/a	n/a	n/a	n/a	n/a	12	3	8	1	n/a	n/a	n/a	n/a	n/a
1932933	PROB	n/a	LTP199	ltpFR	11	n/a	n/a	n/a	n/a	n/a	n/a	n/a	16	4	4	8	n/a	n/a	n/a	n/a	n/a
1936298	STOP	n/a	LTP199	ltpFR	11	n/a	n/a	n/a	n/a	n/a	n/a	n/a	n/a	n/a	n/a	n/a	n/a	n/a	n/a	n/a	n/a
1937283	WORD	wordpools/wasnorm_wordpool_less_exclusions.txt	LTP199	ltpFR	11	8	0	POPCORN	1104	n/a	n/a	0	n/a	0	0	0	0.57763671875	0.412841796875	1	upper	amplitud.ttf
1940301	START	n/a	LTP199	ltpFR	11	n/a	n/a	n/a	n/a	n/a	n/a	n/a	n/a	n/a	n/a	n/a	n/a	n/a	n/a	n/a	n/a
1941371	PROB	n/a	LTP199	ltpFR	11	n/a	n/a	n/a	n/a	n/a	n/a	n/a	18	8	7	3	n/a	n/a	n/a	n/a	n/a
1943245	PROB	n/a	LTP199	ltpFR	11	n/a	n/a	n/a	n/a	n/a	n/a	n/a	10	4	1	5	n/a	n/a	n/a	n/a	n/a
1944349	PROB	n/a	LTP199	ltpFR	11	n/a	n/a	n/a	n/a	n/a	n/a	n/a	12	8	1	1	n/a	n/a	n/a	n/a	n/a
1945396	PROB	n/a	LTP199	ltpFR	11	n/a	n/a	n/a	n/a	n/a	n/a	n/a	14	6	7	1	n/a	n/a	n/a	n/a	n/a
1947225	STOP	n/a	LTP199	ltpFR	11	n/a	n/a	n/a	n/a	n/a	n/a	n/a	n/a	n/a	n/a	n/a	n/a	n/a	n/a	n/a	n/a
1949311	WORD	wordpools/wasnorm_wordpool_less_exclusions.txt	LTP199	ltpFR	11	8	0	ACTRESS	6	n/a	n/a	1	n/a	0	0	0	0.57763671875	0.412841796875	1	upper	amplitud.ttf
1952323	START	n/a	LTP199	ltpFR	11	n/a	n/a	n/a	n/a	n/a	n/a	n/a	n/a	n/a	n/a	n/a	n/a	n/a	n/a	n/a	n/a
1953149	PROB	n/a	LTP199	ltpFR	11	n/a	n/a	n/a	n/a	n/a	n/a	n/a	24	9	8	7	n/a	n/a	n/a	n/a	n/a
1955752	PROB	n/a	LTP199	ltpFR	11	n/a	n/a	n/a	n/a	n/a	n/a	n/a	22	9	6	7	n/a	n/a	n/a	n/a	n/a
1957643	PROB	n/a	LTP199	ltpFR	11	n/a	n/a	n/a	n/a	n/a	n/a	n/a	14	2	7	5	n/a	n/a	n/a	n/a	n/a
1958937	STOP	n/a	LTP199	ltpFR	11	n/a	n/a	n/a	n/a	n/a	n/a	n/a	n/a	n/a	n/a	n/a	n/a	n/a	n/a	n/a	n/a
1961430	WORD	wordpools/wasnorm_wordpool_less_exclusions.txt	LTP199	ltpFR	11	8	0	CHEEK	287	n/a	n/a	1	n/a	0	0	0	0.57763671875	0.412841796875	1	upper	amplitud.ttf
1964442	START	n/a	LTP199	ltpFR	11	n/a	n/a	n/a	n/a	n/a	n/a	n/a	n/a	n/a	n/a	n/a	n/a	n/a	n/a	n/a	n/a
1965405	PROB	n/a	LTP199	ltpFR	11	n/a	n/a	n/a	n/a	n/a	n/a	n/a	11	2	7	2	n/a	n/a	n/a	n/a	n/a
1966710	PROB	n/a	LTP199	ltpFR	11	n/a	n/a	n/a	n/a	n/a	n/a	n/a	24	9	8	7	n/a	n/a	n/a	n/a	n/a
1968500	PROB	n/a	LTP199	ltpFR	11	n/a	n/a	n/a	n/a	n/a	n/a	n/a	17	2	9	6	n/a	n/a	n/a	n/a	n/a
1969939	PROB	n/a	LTP199	ltpFR	11	n/a	n/a	n/a	n/a	n/a	n/a	n/a	15	7	6	2	n/a	n/a	n/a	n/a	n/a
1971921	STOP	n/a	LTP199	ltpFR	11	n/a	n/a	n/a	n/a	n/a	n/a	n/a	n/a	n/a	n/a	n/a	n/a	n/a	n/a	n/a	n/a
1973519	WORD	wordpools/wasnorm_wordpool_less_exclusions.txt	LTP199	ltpFR	11	8	0	SENATOR	1268	n/a	n/a	1	n/a	0	0	0	0.57763671875	0.412841796875	1	upper	amplitud.ttf
1976531	START	n/a	LTP199	ltpFR	11	n/a	n/a	n/a	n/a	n/a	n/a	n/a	n/a	n/a	n/a	n/a	n/a	n/a	n/a	n/a	n/a
1977373	PROB	n/a	LTP199	ltpFR	11	n/a	n/a	n/a	n/a	n/a	n/a	n/a	10	3	2	5	n/a	n/a	n/a	n/a	n/a
1978756	PROB	n/a	LTP199	ltpFR	11	n/a	n/a	n/a	n/a	n/a	n/a	n/a	15	9	5	1	n/a	n/a	n/a	n/a	n/a
1980060	PROB	n/a	LTP199	ltpFR	11	n/a	n/a	n/a	n/a	n/a	n/a	n/a	6	3	1	2	n/a	n/a	n/a	n/a	n/a
1982486	PROB	n/a	LTP199	ltpFR	11	n/a	n/a	n/a	n/a	n/a	n/a	n/a	10	4	2	4	n/a	n/a	n/a	n/a	n/a
1983641	STOP	n/a	LTP199	ltpFR	11	n/a	n/a	n/a	n/a	n/a	n/a	n/a	n/a	n/a	n/a	n/a	n/a	n/a	n/a	n/a	n/a
1985537	WORD	wordpools/wasnorm_wordpool_less_exclusions.txt	LTP199	ltpFR	11	8	1	COOKIE	374	n/a	n/a	0	n/a	0	0	0	0.422607421875	0.5869140625	0	lower	zerothre.ttf
1988549	START	n/a	LTP199	ltpFR	11	n/a	n/a	n/a	n/a	n/a	n/a	n/a	n/a	n/a	n/a	n/a	n/a	n/a	n/a	n/a	n/a
1989653	PROB	n/a	LTP199	ltpFR	11	n/a	n/a	n/a	n/a	n/a	n/a	n/a	16	9	2	5	n/a	n/a	n/a	n/a	n/a
1990891	PROB	n/a	LTP199	ltpFR	11	n/a	n/a	n/a	n/a	n/a	n/a	n/a	12	2	4	6	n/a	n/a	n/a	n/a	n/a
1992039	PROB	n/a	LTP199	ltpFR	11	n/a	n/a	n/a	n/a	n/a	n/a	n/a	9	1	7	1	n/a	n/a	n/a	n/a	n/a
1993160	PROB	n/a	LTP199	ltpFR	11	n/a	n/a	n/a	n/a	n/a	n/a	n/a	14	3	2	9	n/a	n/a	n/a	n/a	n/a
1994314	PROB	n/a	LTP199	ltpFR	11	n/a	n/a	n/a	n/a	n/a	n/a	n/a	14	9	1	4	n/a	n/a	n/a	n/a	n/a
1995841	STOP	n/a	LTP199	ltpFR	11	n/a	n/a	n/a	n/a	n/a	n/a	n/a	n/a	n/a	n/a	n/a	n/a	n/a	n/a	n/a	n/a
1997660	WORD	wordpools/wasnorm_wordpool_less_exclusions.txt	LTP199	ltpFR	11	8	1	CHAMPAGNE	278	n/a	n/a	0	n/a	0	0	0	0.422607421875	0.5869140625	0	lower	zerothre.ttf
2000672	START	n/a	LTP199	ltpFR	11	n/a	n/a	n/a	n/a	n/a	n/a	n/a	n/a	n/a	n/a	n/a	n/a	n/a	n/a	n/a	n/a
2001859	PROB	n/a	LTP199	ltpFR	11	n/a	n/a	n/a	n/a	n/a	n/a	n/a	10	2	1	7	n/a	n/a	n/a	n/a	n/a
2003097	PROB	n/a	LTP199	ltpFR	11	n/a	n/a	n/a	n/a	n/a	n/a	n/a	12	3	2	7	n/a	n/a	n/a	n/a	n/a
2004291	PROB	n/a	LTP199	ltpFR	11	n/a	n/a	n/a	n/a	n/a	n/a	n/a	22	9	5	8	n/a	n/a	n/a	n/a	n/a
2005740	PROB	n/a	LTP199	ltpFR	11	n/a	n/a	n/a	n/a	n/a	n/a	n/a	15	5	7	3	n/a	n/a	n/a	n/a	n/a
2008671	STOP	n/a	LTP199	ltpFR	11	n/a	n/a	n/a	n/a	n/a	n/a	n/a	n/a	n/a	n/a	n/a	n/a	n/a	n/a	n/a	n/a
2009728	WORD	wordpools/wasnorm_wordpool_less_exclusions.txt	LTP199	ltpFR	11	8	1	FISH	571	n/a	n/a	1	n/a	0	0	0	0.422607421875	0.5869140625	0	lower	zerothre.ttf
2012740	START	n/a	LTP199	ltpFR	11	n/a	n/a	n/a	n/a	n/a	n/a	n/a	n/a	n/a	n/a	n/a	n/a	n/a	n/a	n/a	n/a
2013827	PROB	n/a	LTP199	ltpFR	11	n/a	n/a	n/a	n/a	n/a	n/a	n/a	18	5	4	9	n/a	n/a	n/a	n/a	n/a
2015092	PROB	n/a	LTP199	ltpFR	11	n/a	n/a	n/a	n/a	n/a	n/a	n/a	18	6	9	3	n/a	n/a	n/a	n/a	n/a
2016537	PROB	n/a	LTP199	ltpFR	11	n/a	n/a	n/a	n/a	n/a	n/a	n/a	16	7	5	4	n/a	n/a	n/a	n/a	n/a
2020739	STOP	n/a	LTP199	ltpFR	11	n/a	n/a	n/a	n/a	n/a	n/a	n/a	n/a	n/a	n/a	n/a	n/a	n/a	n/a	n/a	n/a
2021784	WORD	wordpools/wasnorm_wordpool_less_exclusions.txt	LTP199	ltpFR	11	8	1	BOWL	158	n/a	n/a	0	n/a	0	0	0	0.422607421875	0.5869140625	0	lower	zerothre.ttf
2024796	START	n/a	LTP199	ltpFR	11	n/a	n/a	n/a	n/a	n/a	n/a	n/a	n/a	n/a	n/a	n/a	n/a	n/a	n/a	n/a	n/a
2025983	PROB	n/a	LTP199	ltpFR	11	n/a	n/a	n/a	n/a	n/a	n/a	n/a	19	7	8	4	n/a	n/a	n/a	n/a	n/a
2028209	PROB	n/a	LTP199	ltpFR	11	n/a	n/a	n/a	n/a	n/a	n/a	n/a	16	7	6	3	n/a	n/a	n/a	n/a	n/a
2029654	PROB	n/a	LTP199	ltpFR	11	n/a	n/a	n/a	n/a	n/a	n/a	n/a	10	3	1	6	n/a	n/a	n/a	n/a	n/a
2031225	STOP	n/a	LTP199	ltpFR	11	n/a	n/a	n/a	n/a	n/a	n/a	n/a	n/a	n/a	n/a	n/a	n/a	n/a	n/a	n/a	n/a
2033930	WORD	wordpools/wasnorm_wordpool_less_exclusions.txt	LTP199	ltpFR	11	8	0	BUILDER	190	n/a	n/a	1	n/a	0	0	0	0.57763671875	0.412841796875	1	upper	amplitud.ttf
2036948	START	n/a	LTP199	ltpFR	11	n/a	n/a	n/a	n/a	n/a	n/a	n/a	n/a	n/a	n/a	n/a	n/a	n/a	n/a	n/a	n/a
2038135	PROB	n/a	LTP199	ltpFR	11	n/a	n/a	n/a	n/a	n/a	n/a	n/a	22	8	9	5	n/a	n/a	n/a	n/a	n/a
2039608	PROB	n/a	LTP199	ltpFR	11	n/a	n/a	n/a	n/a	n/a	n/a	n/a	15	6	1	8	n/a	n/a	n/a	n/a	n/a
2041548	PROB	n/a	LTP199	ltpFR	11	n/a	n/a	n/a	n/a	n/a	n/a	n/a	9	2	4	3	n/a	n/a	n/a	n/a	n/a
2043425	STOP	n/a	LTP199	ltpFR	11	n/a	n/a	n/a	n/a	n/a	n/a	n/a	n/a	n/a	n/a	n/a	n/a	n/a	n/a	n/a	n/a
2046049	WORD	wordpools/wasnorm_wordpool_less_exclusions.txt	LTP199	ltpFR	11	8	0	CONTRACTOR	369	n/a	n/a	1	n/a	0	0	0	0.57763671875	0.412841796875	1	upper	amplitud.ttf
2049060	START	n/a	LTP199	ltpFR	11	n/a	n/a	n/a	n/a	n/a	n/a	n/a	n/a	n/a	n/a	n/a	n/a	n/a	n/a	n/a	n/a
2050041	PROB	n/a	LTP199	ltpFR	11	n/a	n/a	n/a	n/a	n/a	n/a	n/a	19	7	3	9	n/a	n/a	n/a	n/a	n/a
2051429	PROB	n/a	LTP199	ltpFR	11	n/a	n/a	n/a	n/a	n/a	n/a	n/a	19	6	5	8	n/a	n/a	n/a	n/a	n/a
2052534	PROB	n/a	LTP199	ltpFR	11	n/a	n/a	n/a	n/a	n/a	n/a	n/a	20	3	9	8	n/a	n/a	n/a	n/a	n/a
2054213	PROB	n/a	LTP199	ltpFR	11	n/a	n/a	n/a	n/a	n/a	n/a	n/a	16	1	8	7	n/a	n/a	n/a	n/a	n/a
2055713	STOP	n/a	LTP199	ltpFR	11	n/a	n/a	n/a	n/a	n/a	n/a	n/a	n/a	n/a	n/a	n/a	n/a	n/a	n/a	n/a	n/a
2058942	REC_START	n/a	LTP199	ltpFR	11	8	n/a	n/a	n/a	n/a	n/a	n/a	n/a	0	0	0	n/a	n/a	n/a	n/a	n/a
2063092	REC_WORD	wordpools/wasnorm_wordpool_less_exclusions.txt	LTP199	ltpFR	11	8	1	FRIEND	606	n/a	n/a	1	n/a	0	0	0	n/a	n/a	n/a	n/a	n/a
2064080	REC_WORD	wordpools/wasnorm_wordpool_less_exclusions.txt	LTP199	ltpFR	11	8	1	SALT	1229	n/a	n/a	0	n/a	0	0	0	n/a	n/a	n/a	n/a	n/a
2065552	REC_WORD	wordpools/wasnorm_wordpool_less_exclusions.txt	LTP199	ltpFR	11	8	1	CHAMPAGNE	278	n/a	n/a	0	n/a	0	0	0	n/a	n/a	n/a	n/a	n/a
2067378	REC_WORD	wordpools/wasnorm_wordpool_less_exclusions.txt	LTP199	ltpFR	11	8	1	DINER	467	n/a	n/a	0	n/a	0	0	0	n/a	n/a	n/a	n/a	n/a
2068345	REC_WORD	wordpools/wasnorm_wordpool_less_exclusions.txt	LTP199	ltpFR	11	8	1	BUREAU	199	n/a	n/a	0	n/a	0	0	0	n/a	n/a	n/a	n/a	n/a
2100802	REC_WORD	wordpools/wasnorm_wordpool_less_exclusions.txt	LTP199	ltpFR	11	8	0	CONTRACTOR	369	n/a	n/a	1	n/a	0	0	0	n/a	n/a	n/a	n/a	n/a
2105755	REC_WORD	wordpools/wasnorm_wordpool_less_exclusions.txt	LTP199	ltpFR	11	8	0	CLAY	320	n/a	n/a	0	n/a	0	0	0	n/a	n/a	n/a	n/a	n/a
2152600	WORD	wordpools/wasnorm_wordpool_less_exclusions.txt	LTP199	ltpFR	11	9	0	SHEET	1279	n/a	n/a	0	n/a	0	0	0	0.57763671875	0.412841796875	1	upper	amplitud.ttf
2156732	WORD	wordpools/wasnorm_wordpool_less_exclusions.txt	LTP199	ltpFR	11	9	0	EMPLOYEE	531	n/a	n/a	1	n/a	0	0	0	0.57763671875	0.412841796875	1	upper	amplitud.ttf
2160925	WORD	wordpools/wasnorm_wordpool_less_exclusions.txt	LTP199	ltpFR	11	9	0	THIMBLE	1458	n/a	n/a	0	n/a	0	0	0	0.57763671875	0.412841796875	1	upper	amplitud.ttf
2164796	WORD	wordpools/wasnorm_wordpool_less_exclusions.txt	LTP199	ltpFR	11	9	0	FARMER	553	n/a	n/a	1	n/a	0	0	0	0.57763671875	0.412841796875	1	upper	amplitud.ttf
2168979	WORD	wordpools/wasnorm_wordpool_less_exclusions.txt	LTP199	ltpFR	11	9	0	TAR	1435	n/a	n/a	1	n/a	0	0	0	0.57763671875	0.412841796875	1	upper	amplitud.ttf
2172944	WORD	wordpools/wasnorm_wordpool_less_exclusions.txt	LTP199	ltpFR	11	9	0	COOK	372	n/a	n/a	1	n/a	0	0	0	0.57763671875	0.412841796875	1	upper	amplitud.ttf
2177120	WORD	wordpools/wasnorm_wordpool_less_exclusions.txt	LTP199	ltpFR	11	9	0	APRON	35	n/a	n/a	0	n/a	0	0	0	0.57763671875	0.412841796875	1	upper	amplitud.ttf
2181292	WORD	wordpools/wasnorm_wordpool_less_exclusions.txt	LTP199	ltpFR	11	9	0	SOCIETY	1338	n/a	n/a	1	n/a	0	0	0	0.57763671875	0.412841796875	1	upper	amplitud.ttf
2185206	WORD	wordpools/wasnorm_wordpool_less_exclusions.txt	LTP199	ltpFR	11	9	0	PARIS	1014	n/a	n/a	1	n/a	0	0	0	0.57763671875	0.412841796875	1	upper	amplitud.ttf
2189171	WORD	wordpools/wasnorm_wordpool_less_exclusions.txt	LTP199	ltpFR	11	9	0	DONKEY	484	n/a	n/a	1	n/a	0	0	0	0.57763671875	0.412841796875	1	upper	amplitud.ttf
2193230	WORD	wordpools/wasnorm_wordpool_less_exclusions.txt	LTP199	ltpFR	11	9	0	CHISEL	305	n/a	n/a	0	n/a	0	0	0	0.57763671875	0.412841796875	1	upper	amplitud.ttf
2197379	WORD	wordpools/wasnorm_wordpool_less_exclusions.txt	LTP199	ltpFR	11	9	0	LUMBER	848	n/a	n/a	1	n/a	0	0	0	0.57763671875	0.412841796875	1	upper	amplitud.ttf
2201395	WORD	wordpools/wasnorm_wordpool_less_exclusions.txt	LTP199	ltpFR	11	9	0	ZUCCHINI	1638	n/a	n/a	0	n/a	0	0	0	0.57763671875	0.412841796875	1	upper	amplitud.ttf
2205282	WORD	wordpools/wasnorm_wordpool_less_exclusions.txt	LTP199	ltpFR	11	9	0	BEET	115	n/a	n/a	0	n/a	0	0	0	0.57763671875	0.412841796875	1	upper	amplitud.ttf
2209147	WORD	wordpools/wasnorm_wordpool_less_exclusions.txt	LTP199	ltpFR	11	9	0	YARN	1631	n/a	n/a	0	n/a	0	0	0	0.57763671875	0.412841796875	1	upper	amplitud.ttf
2213279	WORD	wordpools/wasnorm_wordpool_less_exclusions.txt	LTP199	ltpFR	11	9	0	HAY	693	n/a	n/a	0	n/a	0	0	0	0.57763671875	0.412841796875	1	upper	amplitud.ttf
2216291	START	n/a	LTP199	ltpFR	11	n/a	n/a	n/a	n/a	n/a	n/a	n/a	n/a	n/a	n/a	n/a	n/a	n/a	n/a	n/a	n/a
2217361	PROB	n/a	LTP199	ltpFR	11	n/a	n/a	n/a	n/a	n/a	n/a	n/a	16	5	2	9	n/a	n/a	n/a	n/a	n/a
2218994	PROB	n/a	LTP199	ltpFR	11	n/a	n/a	n/a	n/a	n/a	n/a	n/a	20	5	6	9	n/a	n/a	n/a	n/a	n/a
2221493	PROB	n/a	LTP199	ltpFR	11	n/a	n/a	n/a	n/a	n/a	n/a	n/a	23	7	6	8	n/a	n/a	n/a	n/a	n/a
2223043	PROB	n/a	LTP199	ltpFR	11	n/a	n/a	n/a	n/a	n/a	n/a	n/a	13	2	9	2	n/a	n/a	n/a	n/a	n/a
2224588	PROB	n/a	LTP199	ltpFR	11	n/a	n/a	n/a	n/a	n/a	n/a	n/a	13	2	4	7	n/a	n/a	n/a	n/a	n/a
2228068	PROB	n/a	LTP199	ltpFR	11	n/a	n/a	n/a	n/a	n/a	n/a	n/a	20	8	5	7	n/a	n/a	n/a	n/a	n/a
2229367	PROB	n/a	LTP199	ltpFR	11	n/a	n/a	n/a	n/a	n/a	n/a	n/a	9	2	1	6	n/a	n/a	n/a	n/a	n/a
2230761	STOP	n/a	LTP199	ltpFR	11	n/a	n/a	n/a	n/a	n/a	n/a	n/a	n/a	n/a	n/a	n/a	n/a	n/a	n/a	n/a	n/a
2234135	REC_START	n/a	LTP199	ltpFR	11	9	n/a	n/a	n/a	n/a	n/a	n/a	n/a	0	0	0	n/a	n/a	n/a	n/a	n/a
2239872	REC_WORD	wordpools/wasnorm_wordpool_less_exclusions.txt	LTP199	ltpFR	11	9	0	SHEET	1279	n/a	n/a	0	n/a	0	0	0	n/a	n/a	n/a	n/a	n/a
2241029	REC_WORD	wordpools/wasnorm_wordpool_less_exclusions.txt	LTP199	ltpFR	11	9	0	EMPLOYEE	531	n/a	n/a	1	n/a	0	0	0	n/a	n/a	n/a	n/a	n/a
2242725	REC_WORD	wordpools/wasnorm_wordpool_less_exclusions.txt	LTP199	ltpFR	11	9	0	THIMBLE	1458	n/a	n/a	0	n/a	0	0	0	n/a	n/a	n/a	n/a	n/a
2245020	REC_WORD	wordpools/wasnorm_wordpool_less_exclusions.txt	LTP199	ltpFR	11	9	0	YARN	1631	n/a	n/a	0	n/a	0	0	0	n/a	n/a	n/a	n/a	n/a
2245619	REC_WORD	wordpools/wasnorm_wordpool_less_exclusions.txt	LTP199	ltpFR	11	9	0	HAY	693	n/a	n/a	0	n/a	0	0	0	n/a	n/a	n/a	n/a	n/a
2249440	REC_WORD	wordpools/wasnorm_wordpool_less_exclusions.txt	LTP199	ltpFR	11	9	0	ZUCCHINI	1638	n/a	n/a	0	n/a	0	0	0	n/a	n/a	n/a	n/a	n/a
2260525	REC_WORD	wordpools/wasnorm_wordpool_less_exclusions.txt	LTP199	ltpFR	11	9	0	PARIS	1014	n/a	n/a	1	n/a	0	0	0	n/a	n/a	n/a	n/a	n/a
2331525	START	n/a	LTP199	ltpFR	11	n/a	n/a	n/a	n/a	n/a	n/a	n/a	n/a	n/a	n/a	n/a	n/a	n/a	n/a	n/a	n/a
2333041	PROB	n/a	LTP199	ltpFR	11	n/a	n/a	n/a	n/a	n/a	n/a	n/a	14	3	6	5	n/a	n/a	n/a	n/a	n/a
2334513	PROB	n/a	LTP199	ltpFR	11	n/a	n/a	n/a	n/a	n/a	n/a	n/a	13	6	1	6	n/a	n/a	n/a	n/a	n/a
2335650	PROB	n/a	LTP199	ltpFR	11	n/a	n/a	n/a	n/a	n/a	n/a	n/a	6	2	3	1	n/a	n/a	n/a	n/a	n/a
2336838	PROB	n/a	LTP199	ltpFR	11	n/a	n/a	n/a	n/a	n/a	n/a	n/a	10	2	7	1	n/a	n/a	n/a	n/a	n/a
2337892	PROB	n/a	LTP199	ltpFR	11	n/a	n/a	n/a	n/a	n/a	n/a	n/a	17	6	6	5	n/a	n/a	n/a	n/a	n/a
2339699	PROB	n/a	LTP199	ltpFR	11	n/a	n/a	n/a	n/a	n/a	n/a	n/a	13	7	2	4	n/a	n/a	n/a	n/a	n/a
2341021	PROB	n/a	LTP199	ltpFR	11	n/a	n/a	n/a	n/a	n/a	n/a	n/a	17	5	5	7	n/a	n/a	n/a	n/a	n/a
2342131	PROB	n/a	LTP199	ltpFR	11	n/a	n/a	n/a	n/a	n/a	n/a	n/a	13	7	1	5	n/a	n/a	n/a	n/a	n/a
2343346	PROB	n/a	LTP199	ltpFR	11	n/a	n/a	n/a	n/a	n/a	n/a	n/a	20	5	8	7	n/a	n/a	n/a	n/a	n/a
2344601	PROB	n/a	LTP199	ltpFR	11	n/a	n/a	n/a	n/a	n/a	n/a	n/a	16	3	6	7	n/a	n/a	n/a	n/a	n/a
2346361	STOP	n/a	LTP199	ltpFR	11	n/a	n/a	n/a	n/a	n/a	n/a	n/a	n/a	n/a	n/a	n/a	n/a	n/a	n/a	n/a	n/a
2348405	WORD	wordpools/wasnorm_wordpool_less_exclusions.txt	LTP199	ltpFR	11	10	0	PIGEON	1065	n/a	n/a	1	n/a	0	0	0	0.57763671875	0.412841796875	1	upper	amplitud.ttf
2351417	START	n/a	LTP199	ltpFR	11	n/a	n/a	n/a	n/a	n/a	n/a	n/a	n/a	n/a	n/a	n/a	n/a	n/a	n/a	n/a	n/a
2352253	PROB	n/a	LTP199	ltpFR	11	n/a	n/a	n/a	n/a	n/a	n/a	n/a	8	1	5	2	n/a	n/a	n/a	n/a	n/a
2354003	PROB	n/a	LTP199	ltpFR	11	n/a	n/a	n/a	n/a	n/a	n/a	n/a	9	4	2	3	n/a	n/a	n/a	n/a	n/a
2356931	PROB	n/a	LTP199	ltpFR	11	n/a	n/a	n/a	n/a	n/a	n/a	n/a	18	6	6	6	n/a	n/a	n/a	n/a	n/a
2358269	PROB	n/a	LTP199	ltpFR	11	n/a	n/a	n/a	n/a	n/a	n/a	n/a	14	2	9	3	n/a	n/a	n/a	n/a	n/a
2359580	PROB	n/a	LTP199	ltpFR	11	n/a	n/a	n/a	n/a	n/a	n/a	n/a	24	8	9	7	n/a	n/a	n/a	n/a	n/a
2361303	PROB	n/a	LTP199	ltpFR	11	n/a	n/a	n/a	n/a	n/a	n/a	n/a	9	5	1	3	n/a	n/a	n/a	n/a	n/a
2362525	PROB	n/a	LTP199	ltpFR	11	n/a	n/a	n/a	n/a	n/a	n/a	n/a	9	2	3	4	n/a	n/a	n/a	n/a	n/a
2363880	PROB	n/a	LTP199	ltpFR	11	n/a	n/a	n/a	n/a	n/a	n/a	n/a	22	8	9	5	n/a	n/a	n/a	n/a	n/a
2365285	PROB	n/a	LTP199	ltpFR	11	n/a	n/a	n/a	n/a	n/a	n/a	n/a	21	9	7	5	n/a	n/a	n/a	n/a	n/a
2366849	STOP	n/a	LTP199	ltpFR	11	n/a	n/a	n/a	n/a	n/a	n/a	n/a	n/a	n/a	n/a	n/a	n/a	n/a	n/a	n/a	n/a
2368263	WORD	wordpools/wasnorm_wordpool_less_exclusions.txt	LTP199	ltpFR	11	10	0	CHIP	303	n/a	n/a	0	n/a	0	0	0	0.57763671875	0.412841796875	1	upper	amplitud.ttf
2371275	START	n/a	LTP199	ltpFR	11	n/a	n/a	n/a	n/a	n/a	n/a	n/a	n/a	n/a	n/a	n/a	n/a	n/a	n/a	n/a	n/a
2372322	PROB	n/a	LTP199	ltpFR	11	n/a	n/a	n/a	n/a	n/a	n/a	n/a	16	4	4	8	n/a	n/a	n/a	n/a	n/a
2373901	PROB	n/a	LTP199	ltpFR	11	n/a	n/a	n/a	n/a	n/a	n/a	n/a	21	7	8	6	n/a	n/a	n/a	n/a	n/a
2375484	PROB	n/a	LTP199	ltpFR	11	n/a	n/a	n/a	n/a	n/a	n/a	n/a	7	2	2	3	n/a	n/a	n/a	n/a	n/a
2376872	PROB	n/a	LTP199	ltpFR	11	n/a	n/a	n/a	n/a	n/a	n/a	n/a	12	2	1	9	n/a	n/a	n/a	n/a	n/a
2378813	PROB	n/a	LTP199	ltpFR	11	n/a	n/a	n/a	n/a	n/a	n/a	n/a	25	8	9	8	n/a	n/a	n/a	n/a	n/a
2380570	PROB	n/a	LTP199	ltpFR	11	n/a	n/a	n/a	n/a	n/a	n/a	n/a	24	8	5	9	n/a	n/a	n/a	n/a	n/a
2382249	PROB	n/a	LTP199	ltpFR	11	n/a	n/a	n/a	n/a	n/a	n/a	n/a	9	5	1	3	n/a	n/a	n/a	n/a	n/a
2383604	PROB	n/a	LTP199	ltpFR	11	n/a	n/a	n/a	n/a	n/a	n/a	n/a	20	9	4	7	n/a	n/a	n/a	n/a	n/a
2385187	PROB	n/a	LTP199	ltpFR	11	n/a	n/a	n/a	n/a	n/a	n/a	n/a	21	6	7	8	n/a	n/a	n/a	n/a	n/a
2386449	STOP	n/a	LTP199	ltpFR	11	n/a	n/a	n/a	n/a	n/a	n/a	n/a	n/a	n/a	n/a	n/a	n/a	n/a	n/a	n/a	n/a
2388366	WORD	wordpools/wasnorm_wordpool_less_exclusions.txt	LTP199	ltpFR	11	10	0	BALLERINA	74	n/a	n/a	1	n/a	0	0	0	0.57763671875	0.412841796875	1	upper	amplitud.ttf
2391378	START	n/a	LTP199	ltpFR	11	n/a	n/a	n/a	n/a	n/a	n/a	n/a	n/a	n/a	n/a	n/a	n/a	n/a	n/a	n/a	n/a
2392554	PROB	n/a	LTP199	ltpFR	11	n/a	n/a	n/a	n/a	n/a	n/a	n/a	10	2	2	6	n/a	n/a	n/a	n/a	n/a
2394338	PROB	n/a	LTP199	ltpFR	11	n/a	n/a	n/a	n/a	n/a	n/a	n/a	27	9	9	9	n/a	n/a	n/a	n/a	n/a
2396168	PROB	n/a	LTP199	ltpFR	11	n/a	n/a	n/a	n/a	n/a	n/a	n/a	25	9	8	8	n/a	n/a	n/a	n/a	n/a
2397874	PROB	n/a	LTP199	ltpFR	11	n/a	n/a	n/a	n/a	n/a	n/a	n/a	15	4	3	8	n/a	n/a	n/a	n/a	n/a
2399073	PROB	n/a	LTP199	ltpFR	11	n/a	n/a	n/a	n/a	n/a	n/a	n/a	11	8	2	1	n/a	n/a	n/a	n/a	n/a
2400411	PROB	n/a	LTP199	ltpFR	11	n/a	n/a	n/a	n/a	n/a	n/a	n/a	13	6	5	2	n/a	n/a	n/a	n/a	n/a
2401772	PROB	n/a	LTP199	ltpFR	11	n/a	n/a	n/a	n/a	n/a	n/a	n/a	10	3	2	3	n/a	n/a	n/a	n/a	n/a
2403423	PROB	n/a	LTP199	ltpFR	11	n/a	n/a	n/a	n/a	n/a	n/a	n/a	11	1	2	8	n/a	n/a	n/a	n/a	n/a
2404717	PROB	n/a	LTP199	ltpFR	11	n/a	n/a	n/a	n/a	n/a	n/a	n/a	17	8	6	3	n/a	n/a	n/a	n/a	n/a
2406337	STOP	n/a	LTP199	ltpFR	11	n/a	n/a	n/a	n/a	n/a	n/a	n/a	n/a	n/a	n/a	n/a	n/a	n/a	n/a	n/a	n/a
2408515	WORD	wordpools/wasnorm_wordpool_less_exclusions.txt	LTP199	ltpFR	11	10	0	BIRD	129	n/a	n/a	1	n/a	0	0	0	0.57763671875	0.412841796875	1	upper	amplitud.ttf
2411527	START	n/a	LTP199	ltpFR	11	n/a	n/a	n/a	n/a	n/a	n/a	n/a	n/a	n/a	n/a	n/a	n/a	n/a	n/a	n/a	n/a
2412680	PROB	n/a	LTP199	ltpFR	11	n/a	n/a	n/a	n/a	n/a	n/a	n/a	22	7	7	8	n/a	n/a	n/a	n/a	n/a
2414631	PROB	n/a	LTP199	ltpFR	11	n/a	n/a	n/a	n/a	n/a	n/a	n/a	16	5	9	2	n/a	n/a	n/a	n/a	n/a
2416388	PROB	n/a	LTP199	ltpFR	11	n/a	n/a	n/a	n/a	n/a	n/a	n/a	14	5	7	3	n/a	n/a	n/a	n/a	n/a
2418245	PROB	n/a	LTP199	ltpFR	11	n/a	n/a	n/a	n/a	n/a	n/a	n/a	15	2	8	5	n/a	n/a	n/a	n/a	n/a
2419232	PROB	n/a	LTP199	ltpFR	11	n/a	n/a	n/a	n/a	n/a	n/a	n/a	17	6	2	9	n/a	n/a	n/a	n/a	n/a
2421815	PROB	n/a	LTP199	ltpFR	11	n/a	n/a	n/a	n/a	n/a	n/a	n/a	17	5	8	4	n/a	n/a	n/a	n/a	n/a
2423281	PROB	n/a	LTP199	ltpFR	11	n/a	n/a	n/a	n/a	n/a	n/a	n/a	13	2	9	2	n/a	n/a	n/a	n/a	n/a
2424776	PROB	n/a	LTP199	ltpFR	11	n/a	n/a	n/a	n/a	n/a	n/a	n/a	9	1	2	6	n/a	n/a	n/a	n/a	n/a
2425964	PROB	n/a	LTP199	ltpFR	11	n/a	n/a	n/a	n/a	n/a	n/a	n/a	18	4	8	6	n/a	n/a	n/a	n/a	n/a
2427249	STOP	n/a	LTP199	ltpFR	11	n/a	n/a	n/a	n/a	n/a	n/a	n/a	n/a	n/a	n/a	n/a	n/a	n/a	n/a	n/a	n/a
2428484	WORD	wordpools/wasnorm_wordpool_less_exclusions.txt	LTP199	ltpFR	11	10	1	BUTTON	207	n/a	n/a	0	n/a	0	0	0	0.422607421875	0.5869140625	0	lower	zerothre.ttf
2431502	START	n/a	LTP199	ltpFR	11	n/a	n/a	n/a	n/a	n/a	n/a	n/a	n/a	n/a	n/a	n/a	n/a	n/a	n/a	n/a	n/a
2432338	PROB	n/a	LTP199	ltpFR	11	n/a	n/a	n/a	n/a	n/a	n/a	n/a	10	3	4	3	n/a	n/a	n/a	n/a	n/a
2433977	PROB	n/a	LTP199	ltpFR	11	n/a	n/a	n/a	n/a	n/a	n/a	n/a	13	5	5	3	n/a	n/a	n/a	n/a	n/a
2435075	PROB	n/a	LTP199	ltpFR	11	n/a	n/a	n/a	n/a	n/a	n/a	n/a	6	3	1	2	n/a	n/a	n/a	n/a	n/a
2436119	PROB	n/a	LTP199	ltpFR	11	n/a	n/a	n/a	n/a	n/a	n/a	n/a	16	9	5	2	n/a	n/a	n/a	n/a	n/a
2437842	PROB	n/a	LTP199	ltpFR	11	n/a	n/a	n/a	n/a	n/a	n/a	n/a	25	8	8	9	n/a	n/a	n/a	n/a	n/a
2439776	PROB	n/a	LTP199	ltpFR	11	n/a	n/a	n/a	n/a	n/a	n/a	n/a	17	9	1	7	n/a	n/a	n/a	n/a	n/a
2441271	PROB	n/a	LTP199	ltpFR	11	n/a	n/a	n/a	n/a	n/a	n/a	n/a	18	7	6	5	n/a	n/a	n/a	n/a	n/a
2442643	PROB	n/a	LTP199	ltpFR	11	n/a	n/a	n/a	n/a	n/a	n/a	n/a	20	7	5	8	n/a	n/a	n/a	n/a	n/a
2444115	PROB	n/a	LTP199	ltpFR	11	n/a	n/a	n/a	n/a	n/a	n/a	n/a	12	9	2	1	n/a	n/a	n/a	n/a	n/a
2445581	PROB	n/a	LTP199	ltpFR	11	n/a	n/a	n/a	n/a	n/a	n/a	n/a	17	5	3	9	n/a	n/a	n/a	n/a	n/a
2446817	STOP	n/a	LTP199	ltpFR	11	n/a	n/a	n/a	n/a	n/a	n/a	n/a	n/a	n/a	n/a	n/a	n/a	n/a	n/a	n/a	n/a
2448632	WORD	wordpools/wasnorm_wordpool_less_exclusions.txt	LTP199	ltpFR	11	10	1	OCEAN	970	n/a	n/a	0	n/a	0	0	0	0.422607421875	0.5869140625	0	lower	zerothre.ttf
2451644	START	n/a	LTP199	ltpFR	11	n/a	n/a	n/a	n/a	n/a	n/a	n/a	n/a	n/a	n/a	n/a	n/a	n/a	n/a	n/a	n/a
2452664	PROB	n/a	LTP199	ltpFR	11	n/a	n/a	n/a	n/a	n/a	n/a	n/a	12	4	7	1	n/a	n/a	n/a	n/a	n/a
2454331	PROB	n/a	LTP199	ltpFR	11	n/a	n/a	n/a	n/a	n/a	n/a	n/a	6	1	1	4	n/a	n/a	n/a	n/a	n/a
2455452	PROB	n/a	LTP199	ltpFR	11	n/a	n/a	n/a	n/a	n/a	n/a	n/a	8	4	3	1	n/a	n/a	n/a	n/a	n/a
2457315	PROB	n/a	LTP199	ltpFR	11	n/a	n/a	n/a	n/a	n/a	n/a	n/a	19	7	3	9	n/a	n/a	n/a	n/a	n/a
2458419	PROB	n/a	LTP199	ltpFR	11	n/a	n/a	n/a	n/a	n/a	n/a	n/a	15	2	9	4	n/a	n/a	n/a	n/a	n/a
2459517	PROB	n/a	LTP199	ltpFR	11	n/a	n/a	n/a	n/a	n/a	n/a	n/a	18	8	5	5	n/a	n/a	n/a	n/a	n/a
2460544	PROB	n/a	LTP199	ltpFR	11	n/a	n/a	n/a	n/a	n/a	n/a	n/a	17	8	6	3	n/a	n/a	n/a	n/a	n/a
2461866	PROB	n/a	LTP199	ltpFR	11	n/a	n/a	n/a	n/a	n/a	n/a	n/a	19	8	8	3	n/a	n/a	n/a	n/a	n/a
2463248	PROB	n/a	LTP199	ltpFR	11	n/a	n/a	n/a	n/a	n/a	n/a	n/a	24	9	6	9	n/a	n/a	n/a	n/a	n/a
2464743	PROB	n/a	LTP199	ltpFR	11	n/a	n/a	n/a	n/a	n/a	n/a	n/a	18	4	8	6	n/a	n/a	n/a	n/a	n/a
2466121	STOP	n/a	LTP199	ltpFR	11	n/a	n/a	n/a	n/a	n/a	n/a	n/a	n/a	n/a	n/a	n/a	n/a	n/a	n/a	n/a	n/a
2468608	WORD	wordpools/wasnorm_wordpool_less_exclusions.txt	LTP199	ltpFR	11	10	1	NEUTRON	947	n/a	n/a	0	n/a	0	0	0	0.422607421875	0.5869140625	0	lower	zerothre.ttf
2471620	START	n/a	LTP199	ltpFR	11	n/a	n/a	n/a	n/a	n/a	n/a	n/a	n/a	n/a	n/a	n/a	n/a	n/a	n/a	n/a	n/a
2472456	PROB	n/a	LTP199	ltpFR	11	n/a	n/a	n/a	n/a	n/a	n/a	n/a	23	9	9	7	n/a	n/a	n/a	n/a	n/a
2474139	PROB	n/a	LTP199	ltpFR	11	n/a	n/a	n/a	n/a	n/a	n/a	n/a	15	6	5	4	n/a	n/a	n/a	n/a	n/a
2476387	PROB	n/a	LTP199	ltpFR	11	n/a	n/a	n/a	n/a	n/a	n/a	n/a	20	8	7	5	n/a	n/a	n/a	n/a	n/a
2478294	PROB	n/a	LTP199	ltpFR	11	n/a	n/a	n/a	n/a	n/a	n/a	n/a	16	7	5	4	n/a	n/a	n/a	n/a	n/a
2480001	PROB	n/a	LTP199	ltpFR	11	n/a	n/a	n/a	n/a	n/a	n/a	n/a	8	2	4	2	n/a	n/a	n/a	n/a	n/a
2481684	PROB	n/a	LTP199	ltpFR	11	n/a	n/a	n/a	n/a	n/a	n/a	n/a	19	5	6	8	n/a	n/a	n/a	n/a	n/a
2482805	PROB	n/a	LTP199	ltpFR	11	n/a	n/a	n/a	n/a	n/a	n/a	n/a	14	2	8	4	n/a	n/a	n/a	n/a	n/a
2483782	PROB	n/a	LTP199	ltpFR	11	n/a	n/a	n/a	n/a	n/a	n/a	n/a	10	4	2	4	n/a	n/a	n/a	n/a	n/a
2485030	PROB	n/a	LTP199	ltpFR	11	n/a	n/a	n/a	n/a	n/a	n/a	n/a	16	8	3	5	n/a	n/a	n/a	n/a	n/a
2486225	STOP	n/a	LTP199	ltpFR	11	n/a	n/a	n/a	n/a	n/a	n/a	n/a	n/a	n/a	n/a	n/a	n/a	n/a	n/a	n/a	n/a
2488694	WORD	wordpools/wasnorm_wordpool_less_exclusions.txt	LTP199	ltpFR	11	10	1	ELECTRON	522	n/a	n/a	0	n/a	0	0	0	0.422607421875	0.5869140625	0	lower	zerothre.ttf
2491706	START	n/a	LTP199	ltpFR	11	n/a	n/a	n/a	n/a	n/a	n/a	n/a	n/a	n/a	n/a	n/a	n/a	n/a	n/a	n/a	n/a
2492665	PROB	n/a	LTP199	ltpFR	11	n/a	n/a	n/a	n/a	n/a	n/a	n/a	7	2	3	2	n/a	n/a	n/a	n/a	n/a
2494723	PROB	n/a	LTP199	ltpFR	11	n/a	n/a	n/a	n/a	n/a	n/a	n/a	11	2	5	4	n/a	n/a	n/a	n/a	n/a
2496891	PROB	n/a	LTP199	ltpFR	11	n/a	n/a	n/a	n/a	n/a	n/a	n/a	17	6	3	8	n/a	n/a	n/a	n/a	n/a
2498347	PROB	n/a	LTP199	ltpFR	11	n/a	n/a	n/a	n/a	n/a	n/a	n/a	15	1	8	6	n/a	n/a	n/a	n/a	n/a
2499618	PROB	n/a	LTP199	ltpFR	11	n/a	n/a	n/a	n/a	n/a	n/a	n/a	8	2	4	2	n/a	n/a	n/a	n/a	n/a
2500796	PROB	n/a	LTP199	ltpFR	11	n/a	n/a	n/a	n/a	n/a	n/a	n/a	10	6	3	1	n/a	n/a	n/a	n/a	n/a
2502178	PROB	n/a	LTP199	ltpFR	11	n/a	n/a	n/a	n/a	n/a	n/a	n/a	6	2	1	3	n/a	n/a	n/a	n/a	n/a
2503684	PROB	n/a	LTP199	ltpFR	11	n/a	n/a	n/a	n/a	n/a	n/a	n/a	10	8	1	1	n/a	n/a	n/a	n/a	n/a
2504710	PROB	n/a	LTP199	ltpFR	11	n/a	n/a	n/a	n/a	n/a	n/a	n/a	16	3	6	7	n/a	n/a	n/a	n/a	n/a
2506137	STOP	n/a	LTP199	ltpFR	11	n/a	n/a	n/a	n/a	n/a	n/a	n/a	n/a	n/a	n/a	n/a	n/a	n/a	n/a	n/a	n/a
2508686	WORD	wordpools/wasnorm_wordpool_less_exclusions.txt	LTP199	ltpFR	11	10	1	PANTS	1010	n/a	n/a	0	n/a	0	0	0	0.422607421875	0.5869140625	0	lower	zerothre.ttf
2511698	START	n/a	LTP199	ltpFR	11	n/a	n/a	n/a	n/a	n/a	n/a	n/a	n/a	n/a	n/a	n/a	n/a	n/a	n/a	n/a	n/a
2512791	PROB	n/a	LTP199	ltpFR	11	n/a	n/a	n/a	n/a	n/a	n/a	n/a	13	4	3	6	n/a	n/a	n/a	n/a	n/a
2514280	PROB	n/a	LTP199	ltpFR	11	n/a	n/a	n/a	n/a	n/a	n/a	n/a	10	5	3	2	n/a	n/a	n/a	n/a	n/a
2515578	PROB	n/a	LTP199	ltpFR	11	n/a	n/a	n/a	n/a	n/a	n/a	n/a	14	6	7	1	n/a	n/a	n/a	n/a	n/a
2517201	PROB	n/a	LTP199	ltpFR	11	n/a	n/a	n/a	n/a	n/a	n/a	n/a	13	3	2	8	n/a	n/a	n/a	n/a	n/a
2518941	PROB	n/a	LTP199	ltpFR	11	n/a	n/a	n/a	n/a	n/a	n/a	n/a	18	6	8	6	n/a	n/a	n/a	n/a	n/a
2520397	PROB	n/a	LTP199	ltpFR	11	n/a	n/a	n/a	n/a	n/a	n/a	n/a	17	9	3	5	n/a	n/a	n/a	n/a	n/a
2521858	PROB	n/a	LTP199	ltpFR	11	n/a	n/a	n/a	n/a	n/a	n/a	n/a	6	1	2	3	n/a	n/a	n/a	n/a	n/a
2522912	PROB	n/a	LTP199	ltpFR	11	n/a	n/a	n/a	n/a	n/a	n/a	n/a	7	5	1	1	n/a	n/a	n/a	n/a	n/a
2523893	PROB	n/a	LTP199	ltpFR	11	n/a	n/a	n/a	n/a	n/a	n/a	n/a	19	3	7	9	n/a	n/a	n/a	n/a	n/a
2524964	PROB	n/a	LTP199	ltpFR	11	n/a	n/a	n/a	n/a	n/a	n/a	n/a	16	9	5	2	n/a	n/a	n/a	n/a	n/a
2527081	STOP	n/a	LTP199	ltpFR	11	n/a	n/a	n/a	n/a	n/a	n/a	n/a	n/a	n/a	n/a	n/a	n/a	n/a	n/a	n/a	n/a
2528778	WORD	wordpools/wasnorm_wordpool_less_exclusions.txt	LTP199	ltpFR	11	10	1	LOG	841	n/a	n/a	0	n/a	0	0	0	0.422607421875	0.5869140625	0	lower	zerothre.ttf
2531790	START	n/a	LTP199	ltpFR	11	n/a	n/a	n/a	n/a	n/a	n/a	n/a	n/a	n/a	n/a	n/a	n/a	n/a	n/a	n/a	n/a
2532749	PROB	n/a	LTP199	ltpFR	11	n/a	n/a	n/a	n/a	n/a	n/a	n/a	13	5	3	5	n/a	n/a	n/a	n/a	n/a
2534740	PROB	n/a	LTP199	ltpFR	11	n/a	n/a	n/a	n/a	n/a	n/a	n/a	12	4	1	7	n/a	n/a	n/a	n/a	n/a
2536173	PROB	n/a	LTP199	ltpFR	11	n/a	n/a	n/a	n/a	n/a	n/a	n/a	23	9	5	9	n/a	n/a	n/a	n/a	n/a
2538046	PROB	n/a	LTP199	ltpFR	11	n/a	n/a	n/a	n/a	n/a	n/a	n/a	20	4	8	8	n/a	n/a	n/a	n/a	n/a
2539569	PROB	n/a	LTP199	ltpFR	11	n/a	n/a	n/a	n/a	n/a	n/a	n/a	18	3	6	9	n/a	n/a	n/a	n/a	n/a
2540757	PROB	n/a	LTP199	ltpFR	11	n/a	n/a	n/a	n/a	n/a	n/a	n/a	19	7	7	4	n/a	n/a	n/a	n/a	n/a
2542697	PROB	n/a	LTP199	ltpFR	11	n/a	n/a	n/a	n/a	n/a	n/a	n/a	15	3	6	6	n/a	n/a	n/a	n/a	n/a
2544259	PROB	n/a	LTP199	ltpFR	11	n/a	n/a	n/a	n/a	n/a	n/a	n/a	19	6	9	4	n/a	n/a	n/a	n/a	n/a
2545692	PROB	n/a	LTP199	ltpFR	11	n/a	n/a	n/a	n/a	n/a	n/a	n/a	15	4	4	7	n/a	n/a	n/a	n/a	n/a
2546713	STOP	n/a	LTP199	ltpFR	11	n/a	n/a	n/a	n/a	n/a	n/a	n/a	n/a	n/a	n/a	n/a	n/a	n/a	n/a	n/a	n/a
2548877	WORD	wordpools/wasnorm_wordpool_less_exclusions.txt	LTP199	ltpFR	11	10	0	RECEPTIONIST	1174	n/a	n/a	1	n/a	0	0	0	0.57763671875	0.412841796875	1	upper	amplitud.ttf
2551889	START	n/a	LTP199	ltpFR	11	n/a	n/a	n/a	n/a	n/a	n/a	n/a	n/a	n/a	n/a	n/a	n/a	n/a	n/a	n/a	n/a
2552969	PROB	n/a	LTP199	ltpFR	11	n/a	n/a	n/a	n/a	n/a	n/a	n/a	12	3	5	4	n/a	n/a	n/a	n/a	n/a
2554448	PROB	n/a	LTP199	ltpFR	11	n/a	n/a	n/a	n/a	n/a	n/a	n/a	20	9	7	4	n/a	n/a	n/a	n/a	n/a
2557168	PROB	n/a	LTP199	ltpFR	11	n/a	n/a	n/a	n/a	n/a	n/a	n/a	23	7	8	8	n/a	n/a	n/a	n/a	n/a
2559444	PROB	n/a	LTP199	ltpFR	11	n/a	n/a	n/a	n/a	n/a	n/a	n/a	8	2	3	3	n/a	n/a	n/a	n/a	n/a
2561006	PROB	n/a	LTP199	ltpFR	11	n/a	n/a	n/a	n/a	n/a	n/a	n/a	7	2	3	2	n/a	n/a	n/a	n/a	n/a
2562277	PROB	n/a	LTP199	ltpFR	11	n/a	n/a	n/a	n/a	n/a	n/a	n/a	21	3	9	9	n/a	n/a	n/a	n/a	n/a
2563883	PROB	n/a	LTP199	ltpFR	11	n/a	n/a	n/a	n/a	n/a	n/a	n/a	8	4	2	2	n/a	n/a	n/a	n/a	n/a
2566069	PROB	n/a	LTP199	ltpFR	11	n/a	n/a	n/a	n/a	n/a	n/a	n/a	12	2	7	3	n/a	n/a	n/a	n/a	n/a
2567785	STOP	n/a	LTP199	ltpFR	11	n/a	n/a	n/a	n/a	n/a	n/a	n/a	n/a	n/a	n/a	n/a	n/a	n/a	n/a	n/a	n/a
2569053	WORD	wordpools/wasnorm_wordpool_less_exclusions.txt	LTP199	ltpFR	11	10	0	FOLDER	588	n/a	n/a	0	n/a	0	0	0	0.57763671875	0.412841796875	1	upper	amplitud.ttf
2572065	START	n/a	LTP199	ltpFR	11	n/a	n/a	n/a	n/a	n/a	n/a	n/a	n/a	n/a	n/a	n/a	n/a	n/a	n/a	n/a	n/a
2573252	PROB	n/a	LTP199	ltpFR	11	n/a	n/a	n/a	n/a	n/a	n/a	n/a	14	7	2	5	n/a	n/a	n/a	n/a	n/a
2574434	PROB	n/a	LTP199	ltpFR	11	n/a	n/a	n/a	n/a	n/a	n/a	n/a	18	5	6	7	n/a	n/a	n/a	n/a	n/a
2575504	PROB	n/a	LTP199	ltpFR	11	n/a	n/a	n/a	n/a	n/a	n/a	n/a	11	2	5	4	n/a	n/a	n/a	n/a	n/a
