mstime	trial_type	stim_file	subject	experiment	session	trial	task	item_name	item_num	recog_conf	resp	answer	test_x	test_y	test_z	color_b	color_g	color_r	case	font
0	SESS_START	n/a	LTP251	ltpFR	15	n/a	n/a	n/a	n/a	5	n/a	n/a	0	0	0	n/a	n/a	n/a	n/a	n/a
14128	START	n/a	LTP251	ltpFR	15	n/a	n/a	n/a	n/a	n/a	n/a	n/a	n/a	n/a	n/a	n/a	n/a	n/a	n/a	n/a
14161	PROB	n/a	LTP251	ltpFR	15	n/a	n/a	n/a	n/a	n/a	n/a	19	9	6	4	n/a	n/a	n/a	n/a	n/a
15991	PROB	n/a	LTP251	ltpFR	15	n/a	n/a	n/a	n/a	n/a	n/a	8	1	3	4	n/a	n/a	n/a	n/a	n/a
17538	PROB	n/a	LTP251	ltpFR	15	n/a	n/a	n/a	n/a	n/a	n/a	16	6	3	7	n/a	n/a	n/a	n/a	n/a
19270	PROB	n/a	LTP251	ltpFR	15	n/a	n/a	n/a	n/a	n/a	n/a	18	3	9	6	n/a	n/a	n/a	n/a	n/a
21101	PROB	n/a	LTP251	ltpFR	15	n/a	n/a	n/a	n/a	n/a	n/a	23	9	7	7	n/a	n/a	n/a	n/a	n/a
24645	PROB	n/a	LTP251	ltpFR	15	n/a	n/a	n/a	n/a	n/a	n/a	23	5	9	7	n/a	n/a	n/a	n/a	n/a
29355	PROB	n/a	LTP251	ltpFR	15	n/a	n/a	n/a	n/a	n/a	n/a	13	8	4	1	n/a	n/a	n/a	n/a	n/a
31002	PROB	n/a	LTP251	ltpFR	15	n/a	n/a	n/a	n/a	n/a	n/a	5	2	1	2	n/a	n/a	n/a	n/a	n/a
32861	STOP	n/a	LTP251	ltpFR	15	n/a	n/a	n/a	n/a	n/a	n/a	n/a	n/a	n/a	n/a	n/a	n/a	n/a	n/a	n/a
53468	WORD	wordpools/wasnorm_wordpool_less_exclusions.txt	LTP251	ltpFR	15	1	0	EMPEROR	529	4	1	n/a	0	0	0	0	0.5869140625	0.422607421875	lower	../fonts/amplitud.ttf
57297	WORD	wordpools/wasnorm_wordpool_less_exclusions.txt	LTP251	ltpFR	15	1	0	CHAPEL	280	2	1	n/a	0	0	0	0	0.5869140625	0.422607421875	lower	../fonts/amplitud.ttf
61407	WORD	wordpools/wasnorm_wordpool_less_exclusions.txt	LTP251	ltpFR	15	1	0	NOSE	957	n/a	0	n/a	0	0	0	0	0.5869140625	0.422607421875	lower	../fonts/amplitud.ttf
65351	WORD	wordpools/wasnorm_wordpool_less_exclusions.txt	LTP251	ltpFR	15	1	0	QUEEN	1149	n/a	1	n/a	0	0	0	0	0.5869140625	0.422607421875	lower	../fonts/amplitud.ttf
69429	WORD	wordpools/wasnorm_wordpool_less_exclusions.txt	LTP251	ltpFR	15	1	1	TEAM	1441	n/a	1	n/a	0	0	0	1	0.412841796875	0.57763671875	upper	../fonts/zerothre.ttf
73406	WORD	wordpools/wasnorm_wordpool_less_exclusions.txt	LTP251	ltpFR	15	1	1	FRECKLE	602	n/a	0	n/a	0	0	0	1	0.412841796875	0.57763671875	upper	../fonts/zerothre.ttf
77499	WORD	wordpools/wasnorm_wordpool_less_exclusions.txt	LTP251	ltpFR	15	1	0	PIGMENT	1066	n/a	1	n/a	0	0	0	0	0.5869140625	0.422607421875	lower	../fonts/amplitud.ttf
81560	WORD	wordpools/wasnorm_wordpool_less_exclusions.txt	LTP251	ltpFR	15	1	0	CHIEF	298	n/a	1	n/a	0	0	0	0	0.5869140625	0.422607421875	lower	../fonts/amplitud.ttf
85470	WORD	wordpools/wasnorm_wordpool_less_exclusions.txt	LTP251	ltpFR	15	1	0	MANAGER	863	n/a	1	n/a	0	0	0	0	0.5869140625	0.422607421875	lower	../fonts/amplitud.ttf
89498	WORD	wordpools/wasnorm_wordpool_less_exclusions.txt	LTP251	ltpFR	15	1	0	HOOP	716	n/a	1	n/a	0	0	0	0	0.5869140625	0.422607421875	lower	../fonts/amplitud.ttf
93658	WORD	wordpools/wasnorm_wordpool_less_exclusions.txt	LTP251	ltpFR	15	1	1	PIER	1063	n/a	0	n/a	0	0	0	1	0.412841796875	0.57763671875	upper	../fonts/zerothre.ttf
97785	WORD	wordpools/wasnorm_wordpool_less_exclusions.txt	LTP251	ltpFR	15	1	1	PIGEON	1065	n/a	1	n/a	0	0	0	1	0.412841796875	0.57763671875	upper	../fonts/zerothre.ttf
101946	WORD	wordpools/wasnorm_wordpool_less_exclusions.txt	LTP251	ltpFR	15	1	1	TABLET	1427	n/a	1	n/a	0	0	0	1	0.412841796875	0.57763671875	upper	../fonts/zerothre.ttf
106006	WORD	wordpools/wasnorm_wordpool_less_exclusions.txt	LTP251	ltpFR	15	1	1	STAPLER	1372	n/a	0	n/a	0	0	0	1	0.412841796875	0.57763671875	upper	../fonts/zerothre.ttf
110184	WORD	wordpools/wasnorm_wordpool_less_exclusions.txt	LTP251	ltpFR	15	1	1	DOCUMENT	479	n/a	0	n/a	0	0	0	1	0.412841796875	0.57763671875	upper	../fonts/zerothre.ttf
114295	WORD	wordpools/wasnorm_wordpool_less_exclusions.txt	LTP251	ltpFR	15	1	1	SCROLL	1257	n/a	0	n/a	0	0	0	1	0.412841796875	0.57763671875	upper	../fonts/zerothre.ttf
117307	START	n/a	LTP251	ltpFR	15	n/a	n/a	n/a	n/a	n/a	n/a	n/a	n/a	n/a	n/a	n/a	n/a	n/a	n/a	n/a
118405	PROB	n/a	LTP251	ltpFR	15	n/a	n/a	n/a	n/a	n/a	n/a	9	4	4	1	n/a	n/a	n/a	n/a	n/a
119886	PROB	n/a	LTP251	ltpFR	15	n/a	n/a	n/a	n/a	n/a	n/a	13	1	9	3	n/a	n/a	n/a	n/a	n/a
121600	PROB	n/a	LTP251	ltpFR	15	n/a	n/a	n/a	n/a	n/a	n/a	20	6	7	7	n/a	n/a	n/a	n/a	n/a
123981	STOP	n/a	LTP251	ltpFR	15	n/a	n/a	n/a	n/a	n/a	n/a	n/a	n/a	n/a	n/a	n/a	n/a	n/a	n/a	n/a
127093	REC_START	n/a	LTP251	ltpFR	15	1	n/a	n/a	n/a	n/a	n/a	n/a	0	0	0	n/a	n/a	n/a	n/a	n/a
128145	REC_WORD	wordpools/wasnorm_wordpool_less_exclusions.txt	LTP251	ltpFR	15	1	1	SCROLL	1257	n/a	0	n/a	0	0	0	n/a	n/a	n/a	n/a	n/a
129627	REC_WORD	wordpools/wasnorm_wordpool_less_exclusions.txt	LTP251	ltpFR	15	1	1	DOCUMENT	479	n/a	0	n/a	0	0	0	n/a	n/a	n/a	n/a	n/a
132698	REC_WORD	wordpools/wasnorm_wordpool_less_exclusions.txt	LTP251	ltpFR	15	1	1	PIGEON	1065	n/a	1	n/a	0	0	0	n/a	n/a	n/a	n/a	n/a
135488	REC_WORD	wordpools/wasnorm_wordpool_less_exclusions.txt	LTP251	ltpFR	15	1	0	NOSE	957	n/a	0	n/a	0	0	0	n/a	n/a	n/a	n/a	n/a
137755	REC_WORD	wordpools/wasnorm_wordpool_less_exclusions.txt	LTP251	ltpFR	15	1	1	TEAM	1441	n/a	1	n/a	0	0	0	n/a	n/a	n/a	n/a	n/a
139609	REC_WORD	wordpools/wasnorm_wordpool_less_exclusions.txt	LTP251	ltpFR	15	1	1	FRECKLE	602	n/a	0	n/a	0	0	0	n/a	n/a	n/a	n/a	n/a
141877	REC_WORD	wordpools/wasnorm_wordpool_less_exclusions.txt	LTP251	ltpFR	15	1	0	EMPEROR	529	n/a	1	n/a	0	0	0	n/a	n/a	n/a	n/a	n/a
144584	REC_WORD	wordpools/wasnorm_wordpool_less_exclusions.txt	LTP251	ltpFR	15	1	0	PIGMENT	1066	n/a	1	n/a	0	0	0	n/a	n/a	n/a	n/a	n/a
204992	START	n/a	LTP251	ltpFR	15	n/a	n/a	n/a	n/a	n/a	n/a	n/a	n/a	n/a	n/a	n/a	n/a	n/a	n/a	n/a
206506	PROB	n/a	LTP251	ltpFR	15	n/a	n/a	n/a	n/a	n/a	n/a	14	5	7	2	n/a	n/a	n/a	n/a	n/a
209120	PROB	n/a	LTP251	ltpFR	15	n/a	n/a	n/a	n/a	n/a	n/a	12	2	5	5	n/a	n/a	n/a	n/a	n/a
210401	PROB	n/a	LTP251	ltpFR	15	n/a	n/a	n/a	n/a	n/a	n/a	14	2	8	5	n/a	n/a	n/a	n/a	n/a
212949	STOP	n/a	LTP251	ltpFR	15	n/a	n/a	n/a	n/a	n/a	n/a	n/a	n/a	n/a	n/a	n/a	n/a	n/a	n/a	n/a
213879	WORD	wordpools/wasnorm_wordpool_less_exclusions.txt	LTP251	ltpFR	15	2	0	VEIN	1554	n/a	0	n/a	0	0	0	0	0.5869140625	0.422607421875	lower	../fonts/amplitud.ttf
216891	START	n/a	LTP251	ltpFR	15	n/a	n/a	n/a	n/a	n/a	n/a	n/a	n/a	n/a	n/a	n/a	n/a	n/a	n/a	n/a
218073	PROB	n/a	LTP251	ltpFR	15	n/a	n/a	n/a	n/a	n/a	n/a	15	2	4	9	n/a	n/a	n/a	n/a	n/a
219919	PROB	n/a	LTP251	ltpFR	15	n/a	n/a	n/a	n/a	n/a	n/a	17	7	8	2	n/a	n/a	n/a	n/a	n/a
221584	PROB	n/a	LTP251	ltpFR	15	n/a	n/a	n/a	n/a	n/a	n/a	12	3	7	2	n/a	n/a	n/a	n/a	n/a
223717	STOP	n/a	LTP251	ltpFR	15	n/a	n/a	n/a	n/a	n/a	n/a	n/a	n/a	n/a	n/a	n/a	n/a	n/a	n/a	n/a
225761	WORD	wordpools/wasnorm_wordpool_less_exclusions.txt	LTP251	ltpFR	15	2	0	SCREW	1254	n/a	0	n/a	0	0	0	0	0.5869140625	0.422607421875	lower	../fonts/amplitud.ttf
228773	START	n/a	LTP251	ltpFR	15	n/a	n/a	n/a	n/a	n/a	n/a	n/a	n/a	n/a	n/a	n/a	n/a	n/a	n/a	n/a
229788	PROB	n/a	LTP251	ltpFR	15	n/a	n/a	n/a	n/a	n/a	n/a	17	3	9	5	n/a	n/a	n/a	n/a	n/a
236773	STOP	n/a	LTP251	ltpFR	15	n/a	n/a	n/a	n/a	n/a	n/a	n/a	n/a	n/a	n/a	n/a	n/a	n/a	n/a	n/a
237809	WORD	wordpools/wasnorm_wordpool_less_exclusions.txt	LTP251	ltpFR	15	2	1	OWNER	993	n/a	0	n/a	0	0	0	1	0.412841796875	0.57763671875	upper	../fonts/zerothre.ttf
240822	START	n/a	LTP251	ltpFR	15	n/a	n/a	n/a	n/a	n/a	n/a	n/a	n/a	n/a	n/a	n/a	n/a	n/a	n/a	n/a
241670	PROB	n/a	LTP251	ltpFR	15	n/a	n/a	n/a	n/a	n/a	n/a	17	8	5	4	n/a	n/a	n/a	n/a	n/a
244234	PROB	n/a	LTP251	ltpFR	15	n/a	n/a	n/a	n/a	n/a	n/a	21	9	7	5	n/a	n/a	n/a	n/a	n/a
246331	PROB	n/a	LTP251	ltpFR	15	n/a	n/a	n/a	n/a	n/a	n/a	15	3	6	6	n/a	n/a	n/a	n/a	n/a
248557	STOP	n/a	LTP251	ltpFR	15	n/a	n/a	n/a	n/a	n/a	n/a	n/a	n/a	n/a	n/a	n/a	n/a	n/a	n/a	n/a
249908	WORD	wordpools/wasnorm_wordpool_less_exclusions.txt	LTP251	ltpFR	15	2	1	SISTER	1312	n/a	0	n/a	0	0	0	1	0.412841796875	0.57763671875	upper	../fonts/zerothre.ttf
252921	START	n/a	LTP251	ltpFR	15	n/a	n/a	n/a	n/a	n/a	n/a	n/a	n/a	n/a	n/a	n/a	n/a	n/a	n/a	n/a
253786	PROB	n/a	LTP251	ltpFR	15	n/a	n/a	n/a	n/a	n/a	n/a	1	7	7	7	n/a	n/a	n/a	n/a	n/a
256300	PROB	n/a	LTP251	ltpFR	15	n/a	n/a	n/a	n/a	n/a	n/a	18	8	4	6	n/a	n/a	n/a	n/a	n/a
258413	PROB	n/a	LTP251	ltpFR	15	n/a	n/a	n/a	n/a	n/a	n/a	18	5	4	9	n/a	n/a	n/a	n/a	n/a
260454	STOP	n/a	LTP251	ltpFR	15	n/a	n/a	n/a	n/a	n/a	n/a	n/a	n/a	n/a	n/a	n/a	n/a	n/a	n/a	n/a
262024	WORD	wordpools/wasnorm_wordpool_less_exclusions.txt	LTP251	ltpFR	15	2	1	DIRECTOR	471	n/a	0	n/a	0	0	0	1	0.412841796875	0.57763671875	upper	../fonts/zerothre.ttf
265037	START	n/a	LTP251	ltpFR	15	n/a	n/a	n/a	n/a	n/a	n/a	n/a	n/a	n/a	n/a	n/a	n/a	n/a	n/a	n/a
266235	PROB	n/a	LTP251	ltpFR	15	n/a	n/a	n/a	n/a	n/a	n/a	16	7	2	7	n/a	n/a	n/a	n/a	n/a
268332	PROB	n/a	LTP251	ltpFR	15	n/a	n/a	n/a	n/a	n/a	n/a	23	9	8	6	n/a	n/a	n/a	n/a	n/a
273037	STOP	n/a	LTP251	ltpFR	15	n/a	n/a	n/a	n/a	n/a	n/a	n/a	n/a	n/a	n/a	n/a	n/a	n/a	n/a	n/a
273922	WORD	wordpools/wasnorm_wordpool_less_exclusions.txt	LTP251	ltpFR	15	2	1	JAW	751	n/a	0	n/a	0	0	0	1	0.412841796875	0.57763671875	upper	../fonts/zerothre.ttf
276935	START	n/a	LTP251	ltpFR	15	n/a	n/a	n/a	n/a	n/a	n/a	n/a	n/a	n/a	n/a	n/a	n/a	n/a	n/a	n/a
278084	PROB	n/a	LTP251	ltpFR	15	n/a	n/a	n/a	n/a	n/a	n/a	12	9	7	6	n/a	n/a	n/a	n/a	n/a
282692	PROB	n/a	LTP251	ltpFR	15	n/a	n/a	n/a	n/a	n/a	n/a	16	6	5	5	n/a	n/a	n/a	n/a	n/a
284102	STOP	n/a	LTP251	ltpFR	15	n/a	n/a	n/a	n/a	n/a	n/a	n/a	n/a	n/a	n/a	n/a	n/a	n/a	n/a	n/a
285904	WORD	wordpools/wasnorm_wordpool_less_exclusions.txt	LTP251	ltpFR	15	2	1	SEAL	1262	n/a	0	n/a	0	0	0	1	0.412841796875	0.57763671875	upper	../fonts/zerothre.ttf
288917	START	n/a	LTP251	ltpFR	15	n/a	n/a	n/a	n/a	n/a	n/a	n/a	n/a	n/a	n/a	n/a	n/a	n/a	n/a	n/a
289882	PROB	n/a	LTP251	ltpFR	15	n/a	n/a	n/a	n/a	n/a	n/a	9	5	1	3	n/a	n/a	n/a	n/a	n/a
291629	PROB	n/a	LTP251	ltpFR	15	n/a	n/a	n/a	n/a	n/a	n/a	15	6	4	5	n/a	n/a	n/a	n/a	n/a
293493	PROB	n/a	LTP251	ltpFR	15	n/a	n/a	n/a	n/a	n/a	n/a	14	4	3	7	n/a	n/a	n/a	n/a	n/a
295058	PROB	n/a	LTP251	ltpFR	15	n/a	n/a	n/a	n/a	n/a	n/a	20	6	5	9	n/a	n/a	n/a	n/a	n/a
296749	STOP	n/a	LTP251	ltpFR	15	n/a	n/a	n/a	n/a	n/a	n/a	n/a	n/a	n/a	n/a	n/a	n/a	n/a	n/a	n/a
298003	WORD	wordpools/wasnorm_wordpool_less_exclusions.txt	LTP251	ltpFR	15	2	0	ENVELOPE	537	n/a	0	n/a	0	0	0	0	0.5869140625	0.422607421875	lower	../fonts/amplitud.ttf
301017	START	n/a	LTP251	ltpFR	15	n/a	n/a	n/a	n/a	n/a	n/a	n/a	n/a	n/a	n/a	n/a	n/a	n/a	n/a	n/a
302181	PROB	n/a	LTP251	ltpFR	15	n/a	n/a	n/a	n/a	n/a	n/a	16	3	4	9	n/a	n/a	n/a	n/a	n/a
304361	PROB	n/a	LTP251	ltpFR	15	n/a	n/a	n/a	n/a	n/a	n/a	12	4	7	1	n/a	n/a	n/a	n/a	n/a
309016	STOP	n/a	LTP251	ltpFR	15	n/a	n/a	n/a	n/a	n/a	n/a	n/a	n/a	n/a	n/a	n/a	n/a	n/a	n/a	n/a
309885	WORD	wordpools/wasnorm_wordpool_less_exclusions.txt	LTP251	ltpFR	15	2	0	RACCOON	1153	n/a	0	n/a	0	0	0	0	0.5869140625	0.422607421875	lower	../fonts/amplitud.ttf
312898	START	n/a	LTP251	ltpFR	15	n/a	n/a	n/a	n/a	n/a	n/a	n/a	n/a	n/a	n/a	n/a	n/a	n/a	n/a	n/a
313729	PROB	n/a	LTP251	ltpFR	15	n/a	n/a	n/a	n/a	n/a	n/a	21	6	6	9	n/a	n/a	n/a	n/a	n/a
316525	PROB	n/a	LTP251	ltpFR	15	n/a	n/a	n/a	n/a	n/a	n/a	10	7	2	1	n/a	n/a	n/a	n/a	n/a
320877	STOP	n/a	LTP251	ltpFR	15	n/a	n/a	n/a	n/a	n/a	n/a	n/a	n/a	n/a	n/a	n/a	n/a	n/a	n/a	n/a
321901	WORD	wordpools/wasnorm_wordpool_less_exclusions.txt	LTP251	ltpFR	15	2	1	RANCH	1166	n/a	0	n/a	0	0	0	1	0.412841796875	0.57763671875	upper	../fonts/zerothre.ttf
324913	START	n/a	LTP251	ltpFR	15	n/a	n/a	n/a	n/a	n/a	n/a	n/a	n/a	n/a	n/a	n/a	n/a	n/a	n/a	n/a
325861	PROB	n/a	LTP251	ltpFR	15	n/a	n/a	n/a	n/a	n/a	n/a	12	3	2	7	n/a	n/a	n/a	n/a	n/a
327892	PROB	n/a	LTP251	ltpFR	15	n/a	n/a	n/a	n/a	n/a	n/a	22	8	7	7	n/a	n/a	n/a	n/a	n/a
330671	PROB	n/a	LTP251	ltpFR	15	n/a	n/a	n/a	n/a	n/a	n/a	20	7	7	6	n/a	n/a	n/a	n/a	n/a
332589	STOP	n/a	LTP251	ltpFR	15	n/a	n/a	n/a	n/a	n/a	n/a	n/a	n/a	n/a	n/a	n/a	n/a	n/a	n/a	n/a
333783	WORD	wordpools/wasnorm_wordpool_less_exclusions.txt	LTP251	ltpFR	15	2	1	FILM	565	n/a	0	n/a	0	0	0	1	0.412841796875	0.57763671875	upper	../fonts/zerothre.ttf
336795	START	n/a	LTP251	ltpFR	15	n/a	n/a	n/a	n/a	n/a	n/a	n/a	n/a	n/a	n/a	n/a	n/a	n/a	n/a	n/a
337694	PROB	n/a	LTP251	ltpFR	15	n/a	n/a	n/a	n/a	n/a	n/a	8	1	3	4	n/a	n/a	n/a	n/a	n/a
339574	PROB	n/a	LTP251	ltpFR	15	n/a	n/a	n/a	n/a	n/a	n/a	19	3	7	9	n/a	n/a	n/a	n/a	n/a
341173	PROB	n/a	LTP251	ltpFR	15	n/a	n/a	n/a	n/a	n/a	n/a	12	4	5	3	n/a	n/a	n/a	n/a	n/a
342786	PROB	n/a	LTP251	ltpFR	15	n/a	n/a	n/a	n/a	n/a	n/a	15	3	4	8	n/a	n/a	n/a	n/a	n/a
344677	STOP	n/a	LTP251	ltpFR	15	n/a	n/a	n/a	n/a	n/a	n/a	n/a	n/a	n/a	n/a	n/a	n/a	n/a	n/a	n/a
345865	WORD	wordpools/wasnorm_wordpool_less_exclusions.txt	LTP251	ltpFR	15	2	1	GOBLIN	645	n/a	0	n/a	0	0	0	1	0.412841796875	0.57763671875	upper	../fonts/zerothre.ttf
348877	START	n/a	LTP251	ltpFR	15	n/a	n/a	n/a	n/a	n/a	n/a	n/a	n/a	n/a	n/a	n/a	n/a	n/a	n/a	n/a
349759	PROB	n/a	LTP251	ltpFR	15	n/a	n/a	n/a	n/a	n/a	n/a	13	3	7	3	n/a	n/a	n/a	n/a	n/a
351191	PROB	n/a	LTP251	ltpFR	15	n/a	n/a	n/a	n/a	n/a	n/a	13	7	5	1	n/a	n/a	n/a	n/a	n/a
353122	PROB	n/a	LTP251	ltpFR	15	n/a	n/a	n/a	n/a	n/a	n/a	22	8	6	8	n/a	n/a	n/a	n/a	n/a
356877	STOP	n/a	LTP251	ltpFR	15	n/a	n/a	n/a	n/a	n/a	n/a	n/a	n/a	n/a	n/a	n/a	n/a	n/a	n/a	n/a
357947	WORD	wordpools/wasnorm_wordpool_less_exclusions.txt	LTP251	ltpFR	15	2	0	WHEEL	1603	n/a	2	n/a	0	0	0	0	0.5869140625	0.422607421875	lower	../fonts/amplitud.ttf
359063	KEY_MSG	n/a	LTP251	ltpFR	15	2	n/a	n/a	n/a	n/a	n/a	n/a	0	0	0	n/a	n/a	n/a	n/a	n/a
360959	START	n/a	LTP251	ltpFR	15	n/a	n/a	n/a	n/a	n/a	n/a	n/a	n/a	n/a	n/a	n/a	n/a	n/a	n/a	n/a
362092	PROB	n/a	LTP251	ltpFR	15	n/a	n/a	n/a	n/a	n/a	n/a	17	5	8	4	n/a	n/a	n/a	n/a	n/a
364870	PROB	n/a	LTP251	ltpFR	15	n/a	n/a	n/a	n/a	n/a	n/a	13	2	9	2	n/a	n/a	n/a	n/a	n/a
368941	STOP	n/a	LTP251	ltpFR	15	n/a	n/a	n/a	n/a	n/a	n/a	n/a	n/a	n/a	n/a	n/a	n/a	n/a	n/a	n/a
369946	WORD	wordpools/wasnorm_wordpool_less_exclusions.txt	LTP251	ltpFR	15	2	0	SALIVA	1226	n/a	0	n/a	0	0	0	0	0.5869140625	0.422607421875	lower	../fonts/amplitud.ttf
372958	START	n/a	LTP251	ltpFR	15	n/a	n/a	n/a	n/a	n/a	n/a	n/a	n/a	n/a	n/a	n/a	n/a	n/a	n/a	n/a
373940	PROB	n/a	LTP251	ltpFR	15	n/a	n/a	n/a	n/a	n/a	n/a	4	1	1	2	n/a	n/a	n/a	n/a	n/a
375288	PROB	n/a	LTP251	ltpFR	15	n/a	n/a	n/a	n/a	n/a	n/a	16	5	6	5	n/a	n/a	n/a	n/a	n/a
377219	PROB	n/a	LTP251	ltpFR	15	n/a	n/a	n/a	n/a	n/a	n/a	14	2	6	6	n/a	n/a	n/a	n/a	n/a
378849	PROB	n/a	LTP251	ltpFR	15	n/a	n/a	n/a	n/a	n/a	n/a	13	3	2	8	n/a	n/a	n/a	n/a	n/a
380573	STOP	n/a	LTP251	ltpFR	15	n/a	n/a	n/a	n/a	n/a	n/a	n/a	n/a	n/a	n/a	n/a	n/a	n/a	n/a	n/a
382028	WORD	wordpools/wasnorm_wordpool_less_exclusions.txt	LTP251	ltpFR	15	2	0	BAIT	70	n/a	0	n/a	0	0	0	0	0.5869140625	0.422607421875	lower	../fonts/amplitud.ttf
385041	START	n/a	LTP251	ltpFR	15	n/a	n/a	n/a	n/a	n/a	n/a	n/a	n/a	n/a	n/a	n/a	n/a	n/a	n/a	n/a
385905	PROB	n/a	LTP251	ltpFR	15	n/a	n/a	n/a	n/a	n/a	n/a	20	7	9	4	n/a	n/a	n/a	n/a	n/a
387869	PROB	n/a	LTP251	ltpFR	15	n/a	n/a	n/a	n/a	n/a	n/a	19	3	9	7	n/a	n/a	n/a	n/a	n/a
389633	PROB	n/a	LTP251	ltpFR	15	n/a	n/a	n/a	n/a	n/a	n/a	16	2	8	6	n/a	n/a	n/a	n/a	n/a
393041	STOP	n/a	LTP251	ltpFR	15	n/a	n/a	n/a	n/a	n/a	n/a	n/a	n/a	n/a	n/a	n/a	n/a	n/a	n/a	n/a
394160	WORD	wordpools/wasnorm_wordpool_less_exclusions.txt	LTP251	ltpFR	15	2	0	COD	340	n/a	0	n/a	0	0	0	0	0.5869140625	0.422607421875	lower	../fonts/amplitud.ttf
397173	START	n/a	LTP251	ltpFR	15	n/a	n/a	n/a	n/a	n/a	n/a	n/a	n/a	n/a	n/a	n/a	n/a	n/a	n/a	n/a
398188	PROB	n/a	LTP251	ltpFR	15	n/a	n/a	n/a	n/a	n/a	n/a	12	1	7	4	n/a	n/a	n/a	n/a	n/a
405172	STOP	n/a	LTP251	ltpFR	15	n/a	n/a	n/a	n/a	n/a	n/a	n/a	n/a	n/a	n/a	n/a	n/a	n/a	n/a	n/a
407075	REC_START	n/a	LTP251	ltpFR	15	2	n/a	n/a	n/a	n/a	n/a	n/a	0	0	0	n/a	n/a	n/a	n/a	n/a
407881	REC_WORD	wordpools/wasnorm_wordpool_less_exclusions.txt	LTP251	ltpFR	15	2	0	VEIN	1554	n/a	0	n/a	0	0	0	n/a	n/a	n/a	n/a	n/a
409115	REC_WORD	wordpools/wasnorm_wordpool_less_exclusions.txt	LTP251	ltpFR	15	2	0	SCREW	1254	n/a	0	n/a	0	0	0	n/a	n/a	n/a	n/a	n/a
410760	REC_WORD	wordpools/wasnorm_wordpool_less_exclusions.txt	LTP251	ltpFR	15	2	0	SALIVA	1226	n/a	0	n/a	0	0	0	n/a	n/a	n/a	n/a	n/a
412340	REC_WORD	wordpools/wasnorm_wordpool_less_exclusions.txt	LTP251	ltpFR	15	2	0	RACCOON	1153	n/a	0	n/a	0	0	0	n/a	n/a	n/a	n/a	n/a
413986	REC_WORD	wordpools/wasnorm_wordpool_less_exclusions.txt	LTP251	ltpFR	15	2	0	COD	340	n/a	0	n/a	0	0	0	n/a	n/a	n/a	n/a	n/a
415724	REC_WORD	wordpools/wasnorm_wordpool_less_exclusions.txt	LTP251	ltpFR	15	2	0	WHEEL	1603	n/a	2	n/a	0	0	0	n/a	n/a	n/a	n/a	n/a
428618	REC_WORD	wordpools/wasnorm_wordpool_less_exclusions.txt	LTP251	ltpFR	15	2	1	SISTER	1312	n/a	0	n/a	0	0	0	n/a	n/a	n/a	n/a	n/a
485341	WORD	wordpools/wasnorm_wordpool_less_exclusions.txt	LTP251	ltpFR	15	3	0	CABOOSE	214	n/a	1	n/a	0	0	0	0	0.5869140625	0.422607421875	lower	../fonts/amplitud.ttf
489351	WORD	wordpools/wasnorm_wordpool_less_exclusions.txt	LTP251	ltpFR	15	3	0	SIDEWALK	1303	n/a	1	n/a	0	0	0	0	0.5869140625	0.422607421875	lower	../fonts/amplitud.ttf
493246	WORD	wordpools/wasnorm_wordpool_less_exclusions.txt	LTP251	ltpFR	15	3	0	FOLDER	588	n/a	0	n/a	0	0	0	0	0.5869140625	0.422607421875	lower	../fonts/amplitud.ttf
497256	WORD	wordpools/wasnorm_wordpool_less_exclusions.txt	LTP251	ltpFR	15	3	0	RAIL	1161	n/a	1	n/a	0	0	0	0	0.5869140625	0.422607421875	lower	../fonts/amplitud.ttf
501234	WORD	wordpools/wasnorm_wordpool_less_exclusions.txt	LTP251	ltpFR	15	3	0	SHORE	1291	n/a	1	n/a	0	0	0	0	0.5869140625	0.422607421875	lower	../fonts/amplitud.ttf
505061	WORD	wordpools/wasnorm_wordpool_less_exclusions.txt	LTP251	ltpFR	15	3	0	MAILBOX	857	n/a	1	n/a	0	0	0	0	0.5869140625	0.422607421875	lower	../fonts/amplitud.ttf
508971	WORD	wordpools/wasnorm_wordpool_less_exclusions.txt	LTP251	ltpFR	15	3	0	SLEEVE	1324	n/a	0	n/a	0	0	0	0	0.5869140625	0.422607421875	lower	../fonts/amplitud.ttf
512949	WORD	wordpools/wasnorm_wordpool_less_exclusions.txt	LTP251	ltpFR	15	3	0	CROSS	413	n/a	1	n/a	0	0	0	0	0.5869140625	0.422607421875	lower	../fonts/amplitud.ttf
517110	WORD	wordpools/wasnorm_wordpool_less_exclusions.txt	LTP251	ltpFR	15	3	0	BRANDY	169	n/a	0	n/a	0	0	0	0	0.5869140625	0.422607421875	lower	../fonts/amplitud.ttf
521154	WORD	wordpools/wasnorm_wordpool_less_exclusions.txt	LTP251	ltpFR	15	3	0	BUTTER	205	n/a	0	n/a	0	0	0	0	0.5869140625	0.422607421875	lower	../fonts/amplitud.ttf
525198	WORD	wordpools/wasnorm_wordpool_less_exclusions.txt	LTP251	ltpFR	15	3	0	BUN	197	n/a	0	n/a	0	0	0	0	0.5869140625	0.422607421875	lower	../fonts/amplitud.ttf
529225	WORD	wordpools/wasnorm_wordpool_less_exclusions.txt	LTP251	ltpFR	15	3	0	INN	739	n/a	1	n/a	0	0	0	0	0.5869140625	0.422607421875	lower	../fonts/amplitud.ttf
533436	WORD	wordpools/wasnorm_wordpool_less_exclusions.txt	LTP251	ltpFR	15	3	0	CABIN	211	n/a	1	n/a	0	0	0	0	0.5869140625	0.422607421875	lower	../fonts/amplitud.ttf
537446	WORD	wordpools/wasnorm_wordpool_less_exclusions.txt	LTP251	ltpFR	15	3	0	COAT	333	n/a	1	n/a	0	0	0	0	0.5869140625	0.422607421875	lower	../fonts/amplitud.ttf
541307	WORD	wordpools/wasnorm_wordpool_less_exclusions.txt	LTP251	ltpFR	15	3	0	NECKLACE	940	n/a	1	n/a	0	0	0	0	0.5869140625	0.422607421875	lower	../fonts/amplitud.ttf
545384	WORD	wordpools/wasnorm_wordpool_less_exclusions.txt	LTP251	ltpFR	15	3	0	BEAD	103	n/a	1	n/a	0	0	0	0	0.5869140625	0.422607421875	lower	../fonts/amplitud.ttf
548397	START	n/a	LTP251	ltpFR	15	n/a	n/a	n/a	n/a	n/a	n/a	n/a	n/a	n/a	n/a	n/a	n/a	n/a	n/a	n/a
549494	PROB	n/a	LTP251	ltpFR	15	n/a	n/a	n/a	n/a	n/a	n/a	12	5	1	6	n/a	n/a	n/a	n/a	n/a
551259	PROB	n/a	LTP251	ltpFR	15	n/a	n/a	n/a	n/a	n/a	n/a	10	3	6	1	n/a	n/a	n/a	n/a	n/a
552889	PROB	n/a	LTP251	ltpFR	15	n/a	n/a	n/a	n/a	n/a	n/a	21	7	9	7	n/a	n/a	n/a	n/a	n/a
555053	PROB	n/a	LTP251	ltpFR	15	n/a	n/a	n/a	n/a	n/a	n/a	15	2	4	9	n/a	n/a	n/a	n/a	n/a
556816	PROB	n/a	LTP251	ltpFR	15	n/a	n/a	n/a	n/a	n/a	n/a	19	6	7	6	n/a	n/a	n/a	n/a	n/a
559779	PROB	n/a	LTP251	ltpFR	15	n/a	n/a	n/a	n/a	n/a	n/a	23	9	7	6	n/a	n/a	n/a	n/a	n/a
562791	PROB	n/a	LTP251	ltpFR	15	n/a	n/a	n/a	n/a	n/a	n/a	17	4	7	6	n/a	n/a	n/a	n/a	n/a
564326	STOP	n/a	LTP251	ltpFR	15	n/a	n/a	n/a	n/a	n/a	n/a	n/a	n/a	n/a	n/a	n/a	n/a	n/a	n/a	n/a
566220	REC_START	n/a	LTP251	ltpFR	15	3	n/a	n/a	n/a	n/a	n/a	n/a	0	0	0	n/a	n/a	n/a	n/a	n/a
566583	REC_WORD	wordpools/wasnorm_wordpool_less_exclusions.txt	LTP251	ltpFR	15	3	0	FOLDER	588	n/a	0	n/a	0	0	0	n/a	n/a	n/a	n/a	n/a
567886	REC_WORD	wordpools/wasnorm_wordpool_less_exclusions.txt	LTP251	ltpFR	15	3	0	SLEEVE	1324	n/a	0	n/a	0	0	0	n/a	n/a	n/a	n/a	n/a
569591	REC_WORD	wordpools/wasnorm_wordpool_less_exclusions.txt	LTP251	ltpFR	15	3	0	BRANDY	169	n/a	0	n/a	0	0	0	n/a	n/a	n/a	n/a	n/a
571060	REC_WORD	wordpools/wasnorm_wordpool_less_exclusions.txt	LTP251	ltpFR	15	3	0	BUTTER	205	n/a	0	n/a	0	0	0	n/a	n/a	n/a	n/a	n/a
572726	REC_WORD	wordpools/wasnorm_wordpool_less_exclusions.txt	LTP251	ltpFR	15	3	0	BUN	197	n/a	0	n/a	0	0	0	n/a	n/a	n/a	n/a	n/a
574315	REC_WORD	wordpools/wasnorm_wordpool_less_exclusions.txt	LTP251	ltpFR	15	3	0	NECKLACE	940	n/a	1	n/a	0	0	0	n/a	n/a	n/a	n/a	n/a
576558	REC_WORD	wordpools/wasnorm_wordpool_less_exclusions.txt	LTP251	ltpFR	15	3	n/a	BEAN	105	n/a	n/a	n/a	0	0	0	n/a	n/a	n/a	n/a	n/a
579058	REC_WORD	wordpools/wasnorm_wordpool_less_exclusions.txt	LTP251	ltpFR	15	3	0	BEAD	103	n/a	1	n/a	0	0	0	n/a	n/a	n/a	n/a	n/a
582848	REC_WORD	wordpools/wasnorm_wordpool_less_exclusions.txt	LTP251	ltpFR	15	3	0	INN	739	n/a	1	n/a	0	0	0	n/a	n/a	n/a	n/a	n/a
588870	REC_WORD	wordpools/wasnorm_wordpool_less_exclusions.txt	LTP251	ltpFR	15	3	0	CABOOSE	214	n/a	1	n/a	0	0	0	n/a	n/a	n/a	n/a	n/a
596909	REC_WORD	wordpools/wasnorm_wordpool_less_exclusions.txt	LTP251	ltpFR	15	3	0	MAILBOX	857	n/a	1	n/a	0	0	0	n/a	n/a	n/a	n/a	n/a
645369	START	n/a	LTP251	ltpFR	15	n/a	n/a	n/a	n/a	n/a	n/a	n/a	n/a	n/a	n/a	n/a	n/a	n/a	n/a	n/a
646882	PROB	n/a	LTP251	ltpFR	15	n/a	n/a	n/a	n/a	n/a	n/a	14	4	6	4	n/a	n/a	n/a	n/a	n/a
648579	PROB	n/a	LTP251	ltpFR	15	n/a	n/a	n/a	n/a	n/a	n/a	10	1	4	5	n/a	n/a	n/a	n/a	n/a
650261	PROB	n/a	LTP251	ltpFR	15	n/a	n/a	n/a	n/a	n/a	n/a	11	4	3	4	n/a	n/a	n/a	n/a	n/a
652906	PROB	n/a	LTP251	ltpFR	15	n/a	n/a	n/a	n/a	n/a	n/a	18	2	9	7	n/a	n/a	n/a	n/a	n/a
654803	PROB	n/a	LTP251	ltpFR	15	n/a	n/a	n/a	n/a	n/a	n/a	6	2	3	1	n/a	n/a	n/a	n/a	n/a
656834	PROB	n/a	LTP251	ltpFR	15	n/a	n/a	n/a	n/a	n/a	n/a	16	2	8	6	n/a	n/a	n/a	n/a	n/a
659031	PROB	n/a	LTP251	ltpFR	15	n/a	n/a	n/a	n/a	n/a	n/a	12	4	7	1	n/a	n/a	n/a	n/a	n/a
660965	STOP	n/a	LTP251	ltpFR	15	n/a	n/a	n/a	n/a	n/a	n/a	n/a	n/a	n/a	n/a	n/a	n/a	n/a	n/a	n/a
662575	WORD	wordpools/wasnorm_wordpool_less_exclusions.txt	LTP251	ltpFR	15	4	1	NOVEL	960	n/a	0	n/a	0	0	0	1	0.412841796875	0.57763671875	upper	../fonts/zerothre.ttf
665588	START	n/a	LTP251	ltpFR	15	n/a	n/a	n/a	n/a	n/a	n/a	n/a	n/a	n/a	n/a	n/a	n/a	n/a	n/a	n/a
666486	PROB	n/a	LTP251	ltpFR	15	n/a	n/a	n/a	n/a	n/a	n/a	15	6	2	7	n/a	n/a	n/a	n/a	n/a
668916	PROB	n/a	LTP251	ltpFR	15	n/a	n/a	n/a	n/a	n/a	n/a	19	8	5	6	n/a	n/a	n/a	n/a	n/a
672062	PROB	n/a	LTP251	ltpFR	15	n/a	n/a	n/a	n/a	n/a	n/a	17	7	2	8	n/a	n/a	n/a	n/a	n/a
674242	PROB	n/a	LTP251	ltpFR	15	n/a	n/a	n/a	n/a	n/a	n/a	15	8	1	6	n/a	n/a	n/a	n/a	n/a
677836	PROB	n/a	LTP251	ltpFR	15	n/a	n/a	n/a	n/a	n/a	n/a	13	3	6	4	n/a	n/a	n/a	n/a	n/a
681588	STOP	n/a	LTP251	ltpFR	15	n/a	n/a	n/a	n/a	n/a	n/a	n/a	n/a	n/a	n/a	n/a	n/a	n/a	n/a	n/a
682479	WORD	wordpools/wasnorm_wordpool_less_exclusions.txt	LTP251	ltpFR	15	4	1	ALMANAC	17	n/a	0	n/a	0	0	0	1	0.412841796875	0.57763671875	upper	../fonts/zerothre.ttf
685491	START	n/a	LTP251	ltpFR	15	n/a	n/a	n/a	n/a	n/a	n/a	n/a	n/a	n/a	n/a	n/a	n/a	n/a	n/a	n/a
686689	PROB	n/a	LTP251	ltpFR	15	n/a	n/a	n/a	n/a	n/a	n/a	19	8	5	6	n/a	n/a	n/a	n/a	n/a
689002	PROB	n/a	LTP251	ltpFR	15	n/a	n/a	n/a	n/a	n/a	n/a	13	3	9	1	n/a	n/a	n/a	n/a	n/a
692199	PROB	n/a	LTP251	ltpFR	15	n/a	n/a	n/a	n/a	n/a	n/a	7	1	2	4	n/a	n/a	n/a	n/a	n/a
694229	PROB	n/a	LTP251	ltpFR	15	n/a	n/a	n/a	n/a	n/a	n/a	8	1	3	6	n/a	n/a	n/a	n/a	n/a
695792	PROB	n/a	LTP251	ltpFR	15	n/a	n/a	n/a	n/a	n/a	n/a	13	6	4	3	n/a	n/a	n/a	n/a	n/a
697258	PROB	n/a	LTP251	ltpFR	15	n/a	n/a	n/a	n/a	n/a	n/a	17	8	3	6	n/a	n/a	n/a	n/a	n/a
700469	STOP	n/a	LTP251	ltpFR	15	n/a	n/a	n/a	n/a	n/a	n/a	n/a	n/a	n/a	n/a	n/a	n/a	n/a	n/a	n/a
702532	WORD	wordpools/wasnorm_wordpool_less_exclusions.txt	LTP251	ltpFR	15	4	1	BOARD	143	n/a	0	n/a	0	0	0	1	0.412841796875	0.57763671875	upper	../fonts/zerothre.ttf
705545	START	n/a	LTP251	ltpFR	15	n/a	n/a	n/a	n/a	n/a	n/a	n/a	n/a	n/a	n/a	n/a	n/a	n/a	n/a	n/a
706742	PROB	n/a	LTP251	ltpFR	15	n/a	n/a	n/a	n/a	n/a	n/a	14	2	4	8	n/a	n/a	n/a	n/a	n/a
708606	PROB	n/a	LTP251	ltpFR	15	n/a	n/a	n/a	n/a	n/a	n/a	14	8	5	1	n/a	n/a	n/a	n/a	n/a
711569	PROB	n/a	LTP251	ltpFR	15	n/a	n/a	n/a	n/a	n/a	n/a	24	9	6	9	n/a	n/a	n/a	n/a	n/a
714266	PROB	n/a	LTP251	ltpFR	15	n/a	n/a	n/a	n/a	n/a	n/a	24	9	6	9	n/a	n/a	n/a	n/a	n/a
716544	PROB	n/a	LTP251	ltpFR	15	n/a	n/a	n/a	n/a	n/a	n/a	8	3	1	4	n/a	n/a	n/a	n/a	n/a
721544	STOP	n/a	LTP251	ltpFR	15	n/a	n/a	n/a	n/a	n/a	n/a	n/a	n/a	n/a	n/a	n/a	n/a	n/a	n/a	n/a
722403	WORD	wordpools/wasnorm_wordpool_less_exclusions.txt	LTP251	ltpFR	15	4	0	ARTIST	43	n/a	1	n/a	0	0	0	0	0.5869140625	0.422607421875	lower	../fonts/amplitud.ttf
725416	START	n/a	LTP251	ltpFR	15	n/a	n/a	n/a	n/a	n/a	n/a	n/a	n/a	n/a	n/a	n/a	n/a	n/a	n/a	n/a
726314	PROB	n/a	LTP251	ltpFR	15	n/a	n/a	n/a	n/a	n/a	n/a	20	7	5	8	n/a	n/a	n/a	n/a	n/a
728128	PROB	n/a	LTP251	ltpFR	15	n/a	n/a	n/a	n/a	n/a	n/a	16	4	4	8	n/a	n/a	n/a	n/a	n/a
730607	PROB	n/a	LTP251	ltpFR	15	n/a	n/a	n/a	n/a	n/a	n/a	11	4	3	4	n/a	n/a	n/a	n/a	n/a
733204	PROB	n/a	LTP251	ltpFR	15	n/a	n/a	n/a	n/a	n/a	n/a	18	9	3	6	n/a	n/a	n/a	n/a	n/a
735134	PROB	n/a	LTP251	ltpFR	15	n/a	n/a	n/a	n/a	n/a	n/a	15	7	5	3	n/a	n/a	n/a	n/a	n/a
737364	PROB	n/a	LTP251	ltpFR	15	n/a	n/a	n/a	n/a	n/a	n/a	16	6	7	3	n/a	n/a	n/a	n/a	n/a
739145	PROB	n/a	LTP251	ltpFR	15	n/a	n/a	n/a	n/a	n/a	n/a	14	1	7	6	n/a	n/a	n/a	n/a	n/a
740925	STOP	n/a	LTP251	ltpFR	15	n/a	n/a	n/a	n/a	n/a	n/a	n/a	n/a	n/a	n/a	n/a	n/a	n/a	n/a	n/a
742572	WORD	wordpools/wasnorm_wordpool_less_exclusions.txt	LTP251	ltpFR	15	4	0	BRICK	172	n/a	0	n/a	0	0	0	0	0.5869140625	0.422607421875	lower	../fonts/amplitud.ttf
745585	START	n/a	LTP251	ltpFR	15	n/a	n/a	n/a	n/a	n/a	n/a	n/a	n/a	n/a	n/a	n/a	n/a	n/a	n/a	n/a
746749	PROB	n/a	LTP251	ltpFR	15	n/a	n/a	n/a	n/a	n/a	n/a	12	3	8	1	n/a	n/a	n/a	n/a	n/a
750860	PROB	n/a	LTP251	ltpFR	15	n/a	n/a	n/a	n/a	n/a	n/a	10	6	1	3	n/a	n/a	n/a	n/a	n/a
752940	PROB	n/a	LTP251	ltpFR	15	n/a	n/a	n/a	n/a	n/a	n/a	13	2	4	7	n/a	n/a	n/a	n/a	n/a
754804	PROB	n/a	LTP251	ltpFR	15	n/a	n/a	n/a	n/a	n/a	n/a	15	6	3	6	n/a	n/a	n/a	n/a	n/a
757483	PROB	n/a	LTP251	ltpFR	15	n/a	n/a	n/a	n/a	n/a	n/a	21	3	9	9	n/a	n/a	n/a	n/a	n/a
759298	PROB	n/a	LTP251	ltpFR	15	n/a	n/a	n/a	n/a	n/a	n/a	11	3	6	2	n/a	n/a	n/a	n/a	n/a
761174	STOP	n/a	LTP251	ltpFR	15	n/a	n/a	n/a	n/a	n/a	n/a	n/a	n/a	n/a	n/a	n/a	n/a	n/a	n/a	n/a
762460	WORD	wordpools/wasnorm_wordpool_less_exclusions.txt	LTP251	ltpFR	15	4	0	PENGUIN	1044	n/a	1	n/a	0	0	0	0	0.5869140625	0.422607421875	lower	../fonts/amplitud.ttf
765472	START	n/a	LTP251	ltpFR	15	n/a	n/a	n/a	n/a	n/a	n/a	n/a	n/a	n/a	n/a	n/a	n/a	n/a	n/a	n/a
766670	PROB	n/a	LTP251	ltpFR	15	n/a	n/a	n/a	n/a	n/a	n/a	18	5	4	9	n/a	n/a	n/a	n/a	n/a
768633	PROB	n/a	LTP251	ltpFR	15	n/a	n/a	n/a	n/a	n/a	n/a	9	1	2	6	n/a	n/a	n/a	n/a	n/a
770215	PROB	n/a	LTP251	ltpFR	15	n/a	n/a	n/a	n/a	n/a	n/a	20	5	9	6	n/a	n/a	n/a	n/a	n/a
772196	PROB	n/a	LTP251	ltpFR	15	n/a	n/a	n/a	n/a	n/a	n/a	12	3	1	8	n/a	n/a	n/a	n/a	n/a
773809	PROB	n/a	LTP251	ltpFR	15	n/a	n/a	n/a	n/a	n/a	n/a	11	4	2	5	n/a	n/a	n/a	n/a	n/a
776505	PROB	n/a	LTP251	ltpFR	15	n/a	n/a	n/a	n/a	n/a	n/a	10	6	2	2	n/a	n/a	n/a	n/a	n/a
778170	PROB	n/a	LTP251	ltpFR	15	n/a	n/a	n/a	n/a	n/a	n/a	20	9	3	8	n/a	n/a	n/a	n/a	n/a
781472	STOP	n/a	LTP251	ltpFR	15	n/a	n/a	n/a	n/a	n/a	n/a	n/a	n/a	n/a	n/a	n/a	n/a	n/a	n/a	n/a
782629	WORD	wordpools/wasnorm_wordpool_less_exclusions.txt	LTP251	ltpFR	15	4	0	SWAN	1417	n/a	1	n/a	0	0	0	0	0.5869140625	0.422607421875	lower	../fonts/amplitud.ttf
785642	START	n/a	LTP251	ltpFR	15	n/a	n/a	n/a	n/a	n/a	n/a	n/a	n/a	n/a	n/a	n/a	n/a	n/a	n/a	n/a
786723	PROB	n/a	LTP251	ltpFR	15	n/a	n/a	n/a	n/a	n/a	n/a	21	8	4	9	n/a	n/a	n/a	n/a	n/a
789104	PROB	n/a	LTP251	ltpFR	15	n/a	n/a	n/a	n/a	n/a	n/a	14	2	4	8	n/a	n/a	n/a	n/a	n/a
790833	PROB	n/a	LTP251	ltpFR	15	n/a	n/a	n/a	n/a	n/a	n/a	17	5	9	3	n/a	n/a	n/a	n/a	n/a
793563	PROB	n/a	LTP251	ltpFR	15	n/a	n/a	n/a	n/a	n/a	n/a	14	4	2	8	n/a	n/a	n/a	n/a	n/a
795128	PROB	n/a	LTP251	ltpFR	15	n/a	n/a	n/a	n/a	n/a	n/a	15	7	2	6	n/a	n/a	n/a	n/a	n/a
797490	PROB	n/a	LTP251	ltpFR	15	n/a	n/a	n/a	n/a	n/a	n/a	11	6	4	1	n/a	n/a	n/a	n/a	n/a
799072	PROB	n/a	LTP251	ltpFR	15	n/a	n/a	n/a	n/a	n/a	n/a	17	3	7	7	n/a	n/a	n/a	n/a	n/a
800845	STOP	n/a	LTP251	ltpFR	15	n/a	n/a	n/a	n/a	n/a	n/a	n/a	n/a	n/a	n/a	n/a	n/a	n/a	n/a	n/a
802566	WORD	wordpools/wasnorm_wordpool_less_exclusions.txt	LTP251	ltpFR	15	4	1	BREAST	171	n/a	0	n/a	0	0	0	1	0.412841796875	0.57763671875	upper	../fonts/zerothre.ttf
805579	START	n/a	LTP251	ltpFR	15	n/a	n/a	n/a	n/a	n/a	n/a	n/a	n/a	n/a	n/a	n/a	n/a	n/a	n/a	n/a
806710	PROB	n/a	LTP251	ltpFR	15	n/a	n/a	n/a	n/a	n/a	n/a	20	4	7	9	n/a	n/a	n/a	n/a	n/a
809307	PROB	n/a	LTP251	ltpFR	15	n/a	n/a	n/a	n/a	n/a	n/a	21	6	8	7	n/a	n/a	n/a	n/a	n/a
811885	PROB	n/a	LTP251	ltpFR	15	n/a	n/a	n/a	n/a	n/a	n/a	10	3	5	2	n/a	n/a	n/a	n/a	n/a
813916	PROB	n/a	LTP251	ltpFR	15	n/a	n/a	n/a	n/a	n/a	n/a	18	8	2	8	n/a	n/a	n/a	n/a	n/a
815646	PROB	n/a	LTP251	ltpFR	15	n/a	n/a	n/a	n/a	n/a	n/a	15	9	5	1	n/a	n/a	n/a	n/a	n/a
817577	PROB	n/a	LTP251	ltpFR	15	n/a	n/a	n/a	n/a	n/a	n/a	1	3	7	9	n/a	n/a	n/a	n/a	n/a
819259	PROB	n/a	LTP251	ltpFR	15	n/a	n/a	n/a	n/a	n/a	n/a	21	8	8	5	n/a	n/a	n/a	n/a	n/a
820957	STOP	n/a	LTP251	ltpFR	15	n/a	n/a	n/a	n/a	n/a	n/a	n/a	n/a	n/a	n/a	n/a	n/a	n/a	n/a	n/a
822470	WORD	wordpools/wasnorm_wordpool_less_exclusions.txt	LTP251	ltpFR	15	4	1	SLUG	1329	n/a	0	n/a	0	0	0	1	0.412841796875	0.57763671875	upper	../fonts/zerothre.ttf
825482	START	n/a	LTP251	ltpFR	15	n/a	n/a	n/a	n/a	n/a	n/a	n/a	n/a	n/a	n/a	n/a	n/a	n/a	n/a	n/a
826331	PROB	n/a	LTP251	ltpFR	15	n/a	n/a	n/a	n/a	n/a	n/a	10	4	5	1	n/a	n/a	n/a	n/a	n/a
827728	PROB	n/a	LTP251	ltpFR	15	n/a	n/a	n/a	n/a	n/a	n/a	10	3	1	4	n/a	n/a	n/a	n/a	n/a
829277	PROB	n/a	LTP251	ltpFR	15	n/a	n/a	n/a	n/a	n/a	n/a	12	1	4	7	n/a	n/a	n/a	n/a	n/a
830840	PROB	n/a	LTP251	ltpFR	15	n/a	n/a	n/a	n/a	n/a	n/a	11	4	3	4	n/a	n/a	n/a	n/a	n/a
832505	PROB	n/a	LTP251	ltpFR	15	n/a	n/a	n/a	n/a	n/a	n/a	10	3	6	1	n/a	n/a	n/a	n/a	n/a
835235	PROB	n/a	LTP251	ltpFR	15	n/a	n/a	n/a	n/a	n/a	n/a	14	8	1	5	n/a	n/a	n/a	n/a	n/a
837249	PROB	n/a	LTP251	ltpFR	15	n/a	n/a	n/a	n/a	n/a	n/a	17	7	5	5	n/a	n/a	n/a	n/a	n/a
839395	PROB	n/a	LTP251	ltpFR	15	n/a	n/a	n/a	n/a	n/a	n/a	16	8	6	2	n/a	n/a	n/a	n/a	n/a
841102	STOP	n/a	LTP251	ltpFR	15	n/a	n/a	n/a	n/a	n/a	n/a	n/a	n/a	n/a	n/a	n/a	n/a	n/a	n/a	n/a
842590	WORD	wordpools/wasnorm_wordpool_less_exclusions.txt	LTP251	ltpFR	15	4	0	STOMACH	1384	n/a	1	n/a	0	0	0	0	0.5869140625	0.422607421875	lower	../fonts/amplitud.ttf
845602	START	n/a	LTP251	ltpFR	15	n/a	n/a	n/a	n/a	n/a	n/a	n/a	n/a	n/a	n/a	n/a	n/a	n/a	n/a	n/a
846567	PROB	n/a	LTP251	ltpFR	15	n/a	n/a	n/a	n/a	n/a	n/a	11	5	3	3	n/a	n/a	n/a	n/a	n/a
849862	PROB	n/a	LTP251	ltpFR	15	n/a	n/a	n/a	n/a	n/a	n/a	12	2	3	7	n/a	n/a	n/a	n/a	n/a
851328	PROB	n/a	LTP251	ltpFR	15	n/a	n/a	n/a	n/a	n/a	n/a	9	3	2	4	n/a	n/a	n/a	n/a	n/a
853823	PROB	n/a	LTP251	ltpFR	15	n/a	n/a	n/a	n/a	n/a	n/a	18	7	4	7	n/a	n/a	n/a	n/a	n/a
856320	PROB	n/a	LTP251	ltpFR	15	n/a	n/a	n/a	n/a	n/a	n/a	22	6	9	7	n/a	n/a	n/a	n/a	n/a
858317	PROB	n/a	LTP251	ltpFR	15	n/a	n/a	n/a	n/a	n/a	n/a	11	6	2	3	n/a	n/a	n/a	n/a	n/a
861602	STOP	n/a	LTP251	ltpFR	15	n/a	n/a	n/a	n/a	n/a	n/a	n/a	n/a	n/a	n/a	n/a	n/a	n/a	n/a	n/a
862560	WORD	wordpools/wasnorm_wordpool_less_exclusions.txt	LTP251	ltpFR	15	4	0	DART	440	n/a	0	n/a	0	0	0	0	0.5869140625	0.422607421875	lower	../fonts/amplitud.ttf
865572	START	n/a	LTP251	ltpFR	15	n/a	n/a	n/a	n/a	n/a	n/a	n/a	n/a	n/a	n/a	n/a	n/a	n/a	n/a	n/a
866405	PROB	n/a	LTP251	ltpFR	15	n/a	n/a	n/a	n/a	n/a	n/a	21	7	7	7	n/a	n/a	n/a	n/a	n/a
867818	PROB	n/a	LTP251	ltpFR	15	n/a	n/a	n/a	n/a	n/a	n/a	18	4	9	5	n/a	n/a	n/a	n/a	n/a
869999	PROB	n/a	LTP251	ltpFR	15	n/a	n/a	n/a	n/a	n/a	n/a	16	8	7	1	n/a	n/a	n/a	n/a	n/a
871746	PROB	n/a	LTP251	ltpFR	15	n/a	n/a	n/a	n/a	n/a	n/a	11	1	8	2	n/a	n/a	n/a	n/a	n/a
873411	PROB	n/a	LTP251	ltpFR	15	n/a	n/a	n/a	n/a	n/a	n/a	21	8	5	8	n/a	n/a	n/a	n/a	n/a
875275	PROB	n/a	LTP251	ltpFR	15	n/a	n/a	n/a	n/a	n/a	n/a	12	2	4	6	n/a	n/a	n/a	n/a	n/a
876622	PROB	n/a	LTP251	ltpFR	15	n/a	n/a	n/a	n/a	n/a	n/a	20	9	4	7	n/a	n/a	n/a	n/a	n/a
879169	PROB	n/a	LTP251	ltpFR	15	n/a	n/a	n/a	n/a	n/a	n/a	14	4	9	1	n/a	n/a	n/a	n/a	n/a
880941	STOP	n/a	LTP251	ltpFR	15	n/a	n/a	n/a	n/a	n/a	n/a	n/a	n/a	n/a	n/a	n/a	n/a	n/a	n/a	n/a
882448	WORD	wordpools/wasnorm_wordpool_less_exclusions.txt	LTP251	ltpFR	15	4	0	STOVE	1388	n/a	1	n/a	0	0	0	0	0.5869140625	0.422607421875	lower	../fonts/amplitud.ttf
885460	START	n/a	LTP251	ltpFR	15	n/a	n/a	n/a	n/a	n/a	n/a	n/a	n/a	n/a	n/a	n/a	n/a	n/a	n/a	n/a
886292	PROB	n/a	LTP251	ltpFR	15	n/a	n/a	n/a	n/a	n/a	n/a	17	7	5	5	n/a	n/a	n/a	n/a	n/a
888073	PROB	n/a	LTP251	ltpFR	15	n/a	n/a	n/a	n/a	n/a	n/a	11	2	8	1	n/a	n/a	n/a	n/a	n/a
889969	PROB	n/a	LTP251	ltpFR	15	n/a	n/a	n/a	n/a	n/a	n/a	17	5	5	7	n/a	n/a	n/a	n/a	n/a
891401	PROB	n/a	LTP251	ltpFR	15	n/a	n/a	n/a	n/a	n/a	n/a	19	6	6	7	n/a	n/a	n/a	n/a	n/a
893065	PROB	n/a	LTP251	ltpFR	15	n/a	n/a	n/a	n/a	n/a	n/a	14	1	9	4	n/a	n/a	n/a	n/a	n/a
894628	PROB	n/a	LTP251	ltpFR	15	n/a	n/a	n/a	n/a	n/a	n/a	18	8	2	8	n/a	n/a	n/a	n/a	n/a
897607	PROB	n/a	LTP251	ltpFR	15	n/a	n/a	n/a	n/a	n/a	n/a	24	7	9	8	n/a	n/a	n/a	n/a	n/a
901460	STOP	n/a	LTP251	ltpFR	15	n/a	n/a	n/a	n/a	n/a	n/a	n/a	n/a	n/a	n/a	n/a	n/a	n/a	n/a	n/a
902418	WORD	wordpools/wasnorm_wordpool_less_exclusions.txt	LTP251	ltpFR	15	4	0	MAGNET	855	n/a	0	n/a	0	0	0	0	0.5869140625	0.422607421875	lower	../fonts/amplitud.ttf
905430	START	n/a	LTP251	ltpFR	15	n/a	n/a	n/a	n/a	n/a	n/a	n/a	n/a	n/a	n/a	n/a	n/a	n/a	n/a	n/a
906295	PROB	n/a	LTP251	ltpFR	15	n/a	n/a	n/a	n/a	n/a	n/a	11	5	1	5	n/a	n/a	n/a	n/a	n/a
907576	PROB	n/a	LTP251	ltpFR	15	n/a	n/a	n/a	n/a	n/a	n/a	17	4	8	5	n/a	n/a	n/a	n/a	n/a
909308	PROB	n/a	LTP251	ltpFR	15	n/a	n/a	n/a	n/a	n/a	n/a	12	2	7	3	n/a	n/a	n/a	n/a	n/a
910788	PROB	n/a	LTP251	ltpFR	15	n/a	n/a	n/a	n/a	n/a	n/a	18	9	8	1	n/a	n/a	n/a	n/a	n/a
912951	PROB	n/a	LTP251	ltpFR	15	n/a	n/a	n/a	n/a	n/a	n/a	13	4	1	8	n/a	n/a	n/a	n/a	n/a
914915	PROB	n/a	LTP251	ltpFR	15	n/a	n/a	n/a	n/a	n/a	n/a	11	1	2	8	n/a	n/a	n/a	n/a	n/a
916397	PROB	n/a	LTP251	ltpFR	15	n/a	n/a	n/a	n/a	n/a	n/a	15	1	9	5	n/a	n/a	n/a	n/a	n/a
918111	PROB	n/a	LTP251	ltpFR	15	n/a	n/a	n/a	n/a	n/a	n/a	18	2	8	8	n/a	n/a	n/a	n/a	n/a
921429	STOP	n/a	LTP251	ltpFR	15	n/a	n/a	n/a	n/a	n/a	n/a	n/a	n/a	n/a	n/a	n/a	n/a	n/a	n/a	n/a
922504	WORD	wordpools/wasnorm_wordpool_less_exclusions.txt	LTP251	ltpFR	15	4	1	HUMAN	726	n/a	0	n/a	0	0	0	1	0.412841796875	0.57763671875	upper	../fonts/zerothre.ttf
925516	START	n/a	LTP251	ltpFR	15	n/a	n/a	n/a	n/a	n/a	n/a	n/a	n/a	n/a	n/a	n/a	n/a	n/a	n/a	n/a
926631	PROB	n/a	LTP251	ltpFR	15	n/a	n/a	n/a	n/a	n/a	n/a	12	4	2	6	n/a	n/a	n/a	n/a	n/a
928313	PROB	n/a	LTP251	ltpFR	15	n/a	n/a	n/a	n/a	n/a	n/a	14	2	3	9	n/a	n/a	n/a	n/a	n/a
930226	PROB	n/a	LTP251	ltpFR	15	n/a	n/a	n/a	n/a	n/a	n/a	23	7	8	8	n/a	n/a	n/a	n/a	n/a
934087	PROB	n/a	LTP251	ltpFR	15	n/a	n/a	n/a	n/a	n/a	n/a	18	7	6	5	n/a	n/a	n/a	n/a	n/a
935867	PROB	n/a	LTP251	ltpFR	15	n/a	n/a	n/a	n/a	n/a	n/a	7	5	1	1	n/a	n/a	n/a	n/a	n/a
937216	PROB	n/a	LTP251	ltpFR	15	n/a	n/a	n/a	n/a	n/a	n/a	13	1	5	7	n/a	n/a	n/a	n/a	n/a
938796	PROB	n/a	LTP251	ltpFR	15	n/a	n/a	n/a	n/a	n/a	n/a	8	1	6	1	n/a	n/a	n/a	n/a	n/a
940022	STOP	n/a	LTP251	ltpFR	15	n/a	n/a	n/a	n/a	n/a	n/a	n/a	n/a	n/a	n/a	n/a	n/a	n/a	n/a	n/a
942425	WORD	wordpools/wasnorm_wordpool_less_exclusions.txt	LTP251	ltpFR	15	4	1	POT	1114	n/a	0	n/a	0	0	0	1	0.412841796875	0.57763671875	upper	../fonts/zerothre.ttf
945437	START	n/a	LTP251	ltpFR	15	n/a	n/a	n/a	n/a	n/a	n/a	n/a	n/a	n/a	n/a	n/a	n/a	n/a	n/a	n/a
946269	PROB	n/a	LTP251	ltpFR	15	n/a	n/a	n/a	n/a	n/a	n/a	17	5	6	6	n/a	n/a	n/a	n/a	n/a
948349	PROB	n/a	LTP251	ltpFR	15	n/a	n/a	n/a	n/a	n/a	n/a	16	7	1	8	n/a	n/a	n/a	n/a	n/a
949746	PROB	n/a	LTP251	ltpFR	15	n/a	n/a	n/a	n/a	n/a	n/a	21	9	3	9	n/a	n/a	n/a	n/a	n/a
951710	PROB	n/a	LTP251	ltpFR	15	n/a	n/a	n/a	n/a	n/a	n/a	15	3	4	8	n/a	n/a	n/a	n/a	n/a
953342	PROB	n/a	LTP251	ltpFR	15	n/a	n/a	n/a	n/a	n/a	n/a	18	6	5	7	n/a	n/a	n/a	n/a	n/a
954955	PROB	n/a	LTP251	ltpFR	15	n/a	n/a	n/a	n/a	n/a	n/a	14	6	6	2	n/a	n/a	n/a	n/a	n/a
956852	PROB	n/a	LTP251	ltpFR	15	n/a	n/a	n/a	n/a	n/a	n/a	21	9	3	9	n/a	n/a	n/a	n/a	n/a
961436	STOP	n/a	LTP251	ltpFR	15	n/a	n/a	n/a	n/a	n/a	n/a	n/a	n/a	n/a	n/a	n/a	n/a	n/a	n/a	n/a
962262	WORD	wordpools/wasnorm_wordpool_less_exclusions.txt	LTP251	ltpFR	15	4	1	SPOOL	1356	n/a	0	n/a	0	0	0	1	0.412841796875	0.57763671875	upper	../fonts/zerothre.ttf
965274	START	n/a	LTP251	ltpFR	15	n/a	n/a	n/a	n/a	n/a	n/a	n/a	n/a	n/a	n/a	n/a	n/a	n/a	n/a	n/a
966272	PROB	n/a	LTP251	ltpFR	15	n/a	n/a	n/a	n/a	n/a	n/a	14	1	7	6	n/a	n/a	n/a	n/a	n/a
968186	PROB	n/a	LTP251	ltpFR	15	n/a	n/a	n/a	n/a	n/a	n/a	15	7	1	7	n/a	n/a	n/a	n/a	n/a
969500	PROB	n/a	LTP251	ltpFR	15	n/a	n/a	n/a	n/a	n/a	n/a	16	8	3	5	n/a	n/a	n/a	n/a	n/a
971198	PROB	n/a	LTP251	ltpFR	15	n/a	n/a	n/a	n/a	n/a	n/a	16	6	9	1	n/a	n/a	n/a	n/a	n/a
973079	PROB	n/a	LTP251	ltpFR	15	n/a	n/a	n/a	n/a	n/a	n/a	22	7	8	7	n/a	n/a	n/a	n/a	n/a
975259	PROB	n/a	LTP251	ltpFR	15	n/a	n/a	n/a	n/a	n/a	n/a	13	8	1	4	n/a	n/a	n/a	n/a	n/a
978454	PROB	n/a	LTP251	ltpFR	15	n/a	n/a	n/a	n/a	n/a	n/a	14	5	7	2	n/a	n/a	n/a	n/a	n/a
979757	STOP	n/a	LTP251	ltpFR	15	n/a	n/a	n/a	n/a	n/a	n/a	n/a	n/a	n/a	n/a	n/a	n/a	n/a	n/a	n/a
983131	REC_START	n/a	LTP251	ltpFR	15	4	n/a	n/a	n/a	n/a	n/a	n/a	0	0	0	n/a	n/a	n/a	n/a	n/a
984290	REC_WORD	wordpools/wasnorm_wordpool_less_exclusions.txt	LTP251	ltpFR	15	4	0	DART	440	n/a	0	n/a	0	0	0	n/a	n/a	n/a	n/a	n/a
985486	REC_WORD	wordpools/wasnorm_wordpool_less_exclusions.txt	LTP251	ltpFR	15	4	1	SLUG	1329	n/a	0	n/a	0	0	0	n/a	n/a	n/a	n/a	n/a
987175	REC_WORD	wordpools/wasnorm_wordpool_less_exclusions.txt	LTP251	ltpFR	15	4	0	STOMACH	1384	n/a	1	n/a	0	0	0	n/a	n/a	n/a	n/a	n/a
997090	REC_WORD	wordpools/wasnorm_wordpool_less_exclusions.txt	LTP251	ltpFR	15	4	1	HUMAN	726	n/a	0	n/a	0	0	0	n/a	n/a	n/a	n/a	n/a
1059965	START	n/a	LTP251	ltpFR	15	n/a	n/a	n/a	n/a	n/a	n/a	n/a	n/a	n/a	n/a	n/a	n/a	n/a	n/a	n/a
1061479	PROB	n/a	LTP251	ltpFR	15	n/a	n/a	n/a	n/a	n/a	n/a	20	8	5	7	n/a	n/a	n/a	n/a	n/a
1063144	PROB	n/a	LTP251	ltpFR	15	n/a	n/a	n/a	n/a	n/a	n/a	23	9	6	8	n/a	n/a	n/a	n/a	n/a
1067964	STOP	n/a	LTP251	ltpFR	15	n/a	n/a	n/a	n/a	n/a	n/a	n/a	n/a	n/a	n/a	n/a	n/a	n/a	n/a	n/a
1068818	WORD	wordpools/wasnorm_wordpool_less_exclusions.txt	LTP251	ltpFR	15	5	1	POLICE	1098	n/a	0	n/a	0	0	0	1	0.412841796875	0.57763671875	upper	../fonts/zerothre.ttf
1071831	START	n/a	LTP251	ltpFR	15	n/a	n/a	n/a	n/a	n/a	n/a	n/a	n/a	n/a	n/a	n/a	n/a	n/a	n/a	n/a
1072729	PROB	n/a	LTP251	ltpFR	15	n/a	n/a	n/a	n/a	n/a	n/a	20	9	8	3	n/a	n/a	n/a	n/a	n/a
1075043	PROB	n/a	LTP251	ltpFR	15	n/a	n/a	n/a	n/a	n/a	n/a	16	2	7	7	n/a	n/a	n/a	n/a	n/a
1076856	PROB	n/a	LTP251	ltpFR	15	n/a	n/a	n/a	n/a	n/a	n/a	11	2	8	1	n/a	n/a	n/a	n/a	n/a
1078326	STOP	n/a	LTP251	ltpFR	15	n/a	n/a	n/a	n/a	n/a	n/a	n/a	n/a	n/a	n/a	n/a	n/a	n/a	n/a	n/a
1080651	WORD	wordpools/wasnorm_wordpool_less_exclusions.txt	LTP251	ltpFR	15	5	1	OFFICER	973	n/a	0	n/a	0	0	0	1	0.412841796875	0.57763671875	upper	../fonts/zerothre.ttf
1083663	START	n/a	LTP251	ltpFR	15	n/a	n/a	n/a	n/a	n/a	n/a	n/a	n/a	n/a	n/a	n/a	n/a	n/a	n/a	n/a
1084611	PROB	n/a	LTP251	ltpFR	15	n/a	n/a	n/a	n/a	n/a	n/a	11	1	9	1	n/a	n/a	n/a	n/a	n/a
1086143	PROB	n/a	LTP251	ltpFR	15	n/a	n/a	n/a	n/a	n/a	n/a	18	9	4	5	n/a	n/a	n/a	n/a	n/a
1088423	PROB	n/a	LTP251	ltpFR	15	n/a	n/a	n/a	n/a	n/a	n/a	9	3	4	2	n/a	n/a	n/a	n/a	n/a
1090541	STOP	n/a	LTP251	ltpFR	15	n/a	n/a	n/a	n/a	n/a	n/a	n/a	n/a	n/a	n/a	n/a	n/a	n/a	n/a	n/a
1092633	WORD	wordpools/wasnorm_wordpool_less_exclusions.txt	LTP251	ltpFR	15	5	0	CAFE	216	n/a	1	n/a	0	0	0	0	0.5869140625	0.422607421875	lower	../fonts/amplitud.ttf
1095645	START	n/a	LTP251	ltpFR	15	n/a	n/a	n/a	n/a	n/a	n/a	n/a	n/a	n/a	n/a	n/a	n/a	n/a	n/a	n/a
1096793	PROB	n/a	LTP251	ltpFR	15	n/a	n/a	n/a	n/a	n/a	n/a	22	7	8	7	n/a	n/a	n/a	n/a	n/a
1099024	PROB	n/a	LTP251	ltpFR	15	n/a	n/a	n/a	n/a	n/a	n/a	14	3	4	7	n/a	n/a	n/a	n/a	n/a
1100637	PROB	n/a	LTP251	ltpFR	15	n/a	n/a	n/a	n/a	n/a	n/a	21	6	6	9	n/a	n/a	n/a	n/a	n/a
1103525	STOP	n/a	LTP251	ltpFR	15	n/a	n/a	n/a	n/a	n/a	n/a	n/a	n/a	n/a	n/a	n/a	n/a	n/a	n/a	n/a
1104615	WORD	wordpools/wasnorm_wordpool_less_exclusions.txt	LTP251	ltpFR	15	5	0	ZOO	1637	n/a	1	n/a	0	0	0	0	0.5869140625	0.422607421875	lower	../fonts/amplitud.ttf
1107627	START	n/a	LTP251	ltpFR	15	n/a	n/a	n/a	n/a	n/a	n/a	n/a	n/a	n/a	n/a	n/a	n/a	n/a	n/a	n/a
1108775	PROB	n/a	LTP251	ltpFR	15	n/a	n/a	n/a	n/a	n/a	n/a	13	2	8	3	n/a	n/a	n/a	n/a	n/a
1110656	PROB	n/a	LTP251	ltpFR	15	n/a	n/a	n/a	n/a	n/a	n/a	20	8	7	5	n/a	n/a	n/a	n/a	n/a
1112520	PROB	n/a	LTP251	ltpFR	15	n/a	n/a	n/a	n/a	n/a	n/a	16	5	2	9	n/a	n/a	n/a	n/a	n/a
1114118	STOP	n/a	LTP251	ltpFR	15	n/a	n/a	n/a	n/a	n/a	n/a	n/a	n/a	n/a	n/a	n/a	n/a	n/a	n/a	n/a
1116448	WORD	wordpools/wasnorm_wordpool_less_exclusions.txt	LTP251	ltpFR	15	5	0	CORAL	378	n/a	1	n/a	0	0	0	0	0.5869140625	0.422607421875	lower	../fonts/amplitud.ttf
1119461	START	n/a	LTP251	ltpFR	15	n/a	n/a	n/a	n/a	n/a	n/a	n/a	n/a	n/a	n/a	n/a	n/a	n/a	n/a	n/a
1120276	PROB	n/a	LTP251	ltpFR	15	n/a	n/a	n/a	n/a	n/a	n/a	15	9	4	2	n/a	n/a	n/a	n/a	n/a
1122223	PROB	n/a	LTP251	ltpFR	15	n/a	n/a	n/a	n/a	n/a	n/a	12	3	2	7	n/a	n/a	n/a	n/a	n/a
1124003	PROB	n/a	LTP251	ltpFR	15	n/a	n/a	n/a	n/a	n/a	n/a	15	1	7	7	n/a	n/a	n/a	n/a	n/a
1125484	PROB	n/a	LTP251	ltpFR	15	n/a	n/a	n/a	n/a	n/a	n/a	12	1	9	2	n/a	n/a	n/a	n/a	n/a
1127078	STOP	n/a	LTP251	ltpFR	15	n/a	n/a	n/a	n/a	n/a	n/a	n/a	n/a	n/a	n/a	n/a	n/a	n/a	n/a	n/a
1128479	WORD	wordpools/wasnorm_wordpool_less_exclusions.txt	LTP251	ltpFR	15	5	1	PRINCESS	1125	n/a	0	n/a	0	0	0	1	0.412841796875	0.57763671875	upper	../fonts/zerothre.ttf
1131492	START	n/a	LTP251	ltpFR	15	n/a	n/a	n/a	n/a	n/a	n/a	n/a	n/a	n/a	n/a	n/a	n/a	n/a	n/a	n/a
1132490	PROB	n/a	LTP251	ltpFR	15	n/a	n/a	n/a	n/a	n/a	n/a	12	9	2	1	n/a	n/a	n/a	n/a	n/a
1133738	PROB	n/a	LTP251	ltpFR	15	n/a	n/a	n/a	n/a	n/a	n/a	15	5	5	5	n/a	n/a	n/a	n/a	n/a
1134936	PROB	n/a	LTP251	ltpFR	15	n/a	n/a	n/a	n/a	n/a	n/a	22	7	6	9	n/a	n/a	n/a	n/a	n/a
1139477	STOP	n/a	LTP251	ltpFR	15	n/a	n/a	n/a	n/a	n/a	n/a	n/a	n/a	n/a	n/a	n/a	n/a	n/a	n/a	n/a
1140396	WORD	wordpools/wasnorm_wordpool_less_exclusions.txt	LTP251	ltpFR	15	5	1	CROWN	415	n/a	0	n/a	0	0	0	1	0.412841796875	0.57763671875	upper	../fonts/zerothre.ttf
1143408	START	n/a	LTP251	ltpFR	15	n/a	n/a	n/a	n/a	n/a	n/a	n/a	n/a	n/a	n/a	n/a	n/a	n/a	n/a	n/a
1144340	PROB	n/a	LTP251	ltpFR	15	n/a	n/a	n/a	n/a	n/a	n/a	8	6	1	1	n/a	n/a	n/a	n/a	n/a
1145670	PROB	n/a	LTP251	ltpFR	15	n/a	n/a	n/a	n/a	n/a	n/a	21	7	5	9	n/a	n/a	n/a	n/a	n/a
1147152	PROB	n/a	LTP251	ltpFR	15	n/a	n/a	n/a	n/a	n/a	n/a	18	9	6	3	n/a	n/a	n/a	n/a	n/a
1148699	PROB	n/a	LTP251	ltpFR	15	n/a	n/a	n/a	n/a	n/a	n/a	10	1	2	7	n/a	n/a	n/a	n/a	n/a
1149909	STOP	n/a	LTP251	ltpFR	15	n/a	n/a	n/a	n/a	n/a	n/a	n/a	n/a	n/a	n/a	n/a	n/a	n/a	n/a	n/a
1152361	WORD	wordpools/wasnorm_wordpool_less_exclusions.txt	LTP251	ltpFR	15	5	0	BASEMENT	94	n/a	1	n/a	0	0	0	0	0.5869140625	0.422607421875	lower	../fonts/amplitud.ttf
1155374	START	n/a	LTP251	ltpFR	15	n/a	n/a	n/a	n/a	n/a	n/a	n/a	n/a	n/a	n/a	n/a	n/a	n/a	n/a	n/a
1156205	PROB	n/a	LTP251	ltpFR	15	n/a	n/a	n/a	n/a	n/a	n/a	25	8	9	8	n/a	n/a	n/a	n/a	n/a
1160216	PROB	n/a	LTP251	ltpFR	15	n/a	n/a	n/a	n/a	n/a	n/a	21	7	5	9	n/a	n/a	n/a	n/a	n/a
1162358	STOP	n/a	LTP251	ltpFR	15	n/a	n/a	n/a	n/a	n/a	n/a	n/a	n/a	n/a	n/a	n/a	n/a	n/a	n/a	n/a
1164293	WORD	wordpools/wasnorm_wordpool_less_exclusions.txt	LTP251	ltpFR	15	5	0	CREATURE	403	n/a	1	n/a	0	0	0	0	0.5869140625	0.422607421875	lower	../fonts/amplitud.ttf
1167306	START	n/a	LTP251	ltpFR	15	n/a	n/a	n/a	n/a	n/a	n/a	n/a	n/a	n/a	n/a	n/a	n/a	n/a	n/a	n/a
1168354	PROB	n/a	LTP251	ltpFR	15	n/a	n/a	n/a	n/a	n/a	n/a	10	1	3	6	n/a	n/a	n/a	n/a	n/a
1170351	PROB	n/a	LTP251	ltpFR	15	n/a	n/a	n/a	n/a	n/a	n/a	13	6	6	1	n/a	n/a	n/a	n/a	n/a
1171532	PROB	n/a	LTP251	ltpFR	15	n/a	n/a	n/a	n/a	n/a	n/a	9	3	5	1	n/a	n/a	n/a	n/a	n/a
1172946	PROB	n/a	LTP251	ltpFR	15	n/a	n/a	n/a	n/a	n/a	n/a	18	8	6	4	n/a	n/a	n/a	n/a	n/a
1174493	STOP	n/a	LTP251	ltpFR	15	n/a	n/a	n/a	n/a	n/a	n/a	n/a	n/a	n/a	n/a	n/a	n/a	n/a	n/a	n/a
1176375	WORD	wordpools/wasnorm_wordpool_less_exclusions.txt	LTP251	ltpFR	15	5	0	WHALE	1601	n/a	1	n/a	0	0	0	0	0.5869140625	0.422607421875	lower	../fonts/amplitud.ttf
1179388	START	n/a	LTP251	ltpFR	15	n/a	n/a	n/a	n/a	n/a	n/a	n/a	n/a	n/a	n/a	n/a	n/a	n/a	n/a	n/a
1180585	PROB	n/a	LTP251	ltpFR	15	n/a	n/a	n/a	n/a	n/a	n/a	15	3	7	5	n/a	n/a	n/a	n/a	n/a
1182383	PROB	n/a	LTP251	ltpFR	15	n/a	n/a	n/a	n/a	n/a	n/a	7	1	1	5	n/a	n/a	n/a	n/a	n/a
1183680	PROB	n/a	LTP251	ltpFR	15	n/a	n/a	n/a	n/a	n/a	n/a	20	4	7	9	n/a	n/a	n/a	n/a	n/a
1186438	STOP	n/a	LTP251	ltpFR	15	n/a	n/a	n/a	n/a	n/a	n/a	n/a	n/a	n/a	n/a	n/a	n/a	n/a	n/a	n/a
1188441	WORD	wordpools/wasnorm_wordpool_less_exclusions.txt	LTP251	ltpFR	15	5	0	DUCK	504	n/a	1	n/a	0	0	0	0	0.5869140625	0.422607421875	lower	../fonts/amplitud.ttf
1191453	START	n/a	LTP251	ltpFR	15	n/a	n/a	n/a	n/a	n/a	n/a	n/a	n/a	n/a	n/a	n/a	n/a	n/a	n/a	n/a
1192268	PROB	n/a	LTP251	ltpFR	15	n/a	n/a	n/a	n/a	n/a	n/a	10	2	4	4	n/a	n/a	n/a	n/a	n/a
1193848	PROB	n/a	LTP251	ltpFR	15	n/a	n/a	n/a	n/a	n/a	n/a	14	7	6	1	n/a	n/a	n/a	n/a	n/a
1195629	PROB	n/a	LTP251	ltpFR	15	n/a	n/a	n/a	n/a	n/a	n/a	13	4	2	7	n/a	n/a	n/a	n/a	n/a
1197493	PROB	n/a	LTP251	ltpFR	15	n/a	n/a	n/a	n/a	n/a	n/a	9	2	6	1	n/a	n/a	n/a	n/a	n/a
1199310	STOP	n/a	LTP251	ltpFR	15	n/a	n/a	n/a	n/a	n/a	n/a	n/a	n/a	n/a	n/a	n/a	n/a	n/a	n/a	n/a
1200638	WORD	wordpools/wasnorm_wordpool_less_exclusions.txt	LTP251	ltpFR	15	5	0	TUBE	1516	n/a	1	n/a	0	0	0	0	0.5869140625	0.422607421875	lower	../fonts/amplitud.ttf
1203651	START	n/a	LTP251	ltpFR	15	n/a	n/a	n/a	n/a	n/a	n/a	n/a	n/a	n/a	n/a	n/a	n/a	n/a	n/a	n/a
1204782	PROB	n/a	LTP251	ltpFR	15	n/a	n/a	n/a	n/a	n/a	n/a	19	5	5	9	n/a	n/a	n/a	n/a	n/a
1206181	PROB	n/a	LTP251	ltpFR	15	n/a	n/a	n/a	n/a	n/a	n/a	14	4	8	2	n/a	n/a	n/a	n/a	n/a
1208826	PROB	n/a	LTP251	ltpFR	15	n/a	n/a	n/a	n/a	n/a	n/a	14	3	6	5	n/a	n/a	n/a	n/a	n/a
1210621	STOP	n/a	LTP251	ltpFR	15	n/a	n/a	n/a	n/a	n/a	n/a	n/a	n/a	n/a	n/a	n/a	n/a	n/a	n/a	n/a
1212837	WORD	wordpools/wasnorm_wordpool_less_exclusions.txt	LTP251	ltpFR	15	5	1	TAIL	1430	n/a	3	n/a	0	0	0	1	0.412841796875	0.57763671875	upper	../fonts/zerothre.ttf
1213437	KEY_MSG	n/a	LTP251	ltpFR	15	5	n/a	n/a	n/a	n/a	n/a	n/a	0	0	0	n/a	n/a	n/a	n/a	n/a
1215849	START	n/a	LTP251	ltpFR	15	n/a	n/a	n/a	n/a	n/a	n/a	n/a	n/a	n/a	n/a	n/a	n/a	n/a	n/a	n/a
1216997	PROB	n/a	LTP251	ltpFR	15	n/a	n/a	n/a	n/a	n/a	n/a	15	4	4	7	n/a	n/a	n/a	n/a	n/a
1219411	PROB	n/a	LTP251	ltpFR	15	n/a	n/a	n/a	n/a	n/a	n/a	17	2	9	6	n/a	n/a	n/a	n/a	n/a
1222323	PROB	n/a	LTP251	ltpFR	15	n/a	n/a	n/a	n/a	n/a	n/a	12	3	7	2	n/a	n/a	n/a	n/a	n/a
1223717	STOP	n/a	LTP251	ltpFR	15	n/a	n/a	n/a	n/a	n/a	n/a	n/a	n/a	n/a	n/a	n/a	n/a	n/a	n/a	n/a
1224902	WORD	wordpools/wasnorm_wordpool_less_exclusions.txt	LTP251	ltpFR	15	5	1	CATERPILLAR	259	n/a	0	n/a	0	0	0	1	0.412841796875	0.57763671875	upper	../fonts/zerothre.ttf
1227914	START	n/a	LTP251	ltpFR	15	n/a	n/a	n/a	n/a	n/a	n/a	n/a	n/a	n/a	n/a	n/a	n/a	n/a	n/a	n/a
1229080	PROB	n/a	LTP251	ltpFR	15	n/a	n/a	n/a	n/a	n/a	n/a	13	8	1	4	n/a	n/a	n/a	n/a	n/a
1230926	PROB	n/a	LTP251	ltpFR	15	n/a	n/a	n/a	n/a	n/a	n/a	16	4	6	6	n/a	n/a	n/a	n/a	n/a
1233888	PROB	n/a	LTP251	ltpFR	15	n/a	n/a	n/a	n/a	n/a	n/a	16	3	9	4	n/a	n/a	n/a	n/a	n/a
1235837	STOP	n/a	LTP251	ltpFR	15	n/a	n/a	n/a	n/a	n/a	n/a	n/a	n/a	n/a	n/a	n/a	n/a	n/a	n/a	n/a
1237085	WORD	wordpools/wasnorm_wordpool_less_exclusions.txt	LTP251	ltpFR	15	5	1	PICNIC	1060	n/a	0	n/a	0	0	0	1	0.412841796875	0.57763671875	upper	../fonts/zerothre.ttf
1240097	START	n/a	LTP251	ltpFR	15	n/a	n/a	n/a	n/a	n/a	n/a	n/a	n/a	n/a	n/a	n/a	n/a	n/a	n/a	n/a
1241312	PROB	n/a	LTP251	ltpFR	15	n/a	n/a	n/a	n/a	n/a	n/a	19	6	5	8	n/a	n/a	n/a	n/a	n/a
1243392	PROB	n/a	LTP251	ltpFR	15	n/a	n/a	n/a	n/a	n/a	n/a	17	4	7	6	n/a	n/a	n/a	n/a	n/a
1245554	PROB	n/a	LTP251	ltpFR	15	n/a	n/a	n/a	n/a	n/a	n/a	12	3	5	4	n/a	n/a	n/a	n/a	n/a
1247326	STOP	n/a	LTP251	ltpFR	15	n/a	n/a	n/a	n/a	n/a	n/a	n/a	n/a	n/a	n/a	n/a	n/a	n/a	n/a	n/a
1249300	WORD	wordpools/wasnorm_wordpool_less_exclusions.txt	LTP251	ltpFR	15	5	1	CANARY	227	n/a	1	n/a	0	0	0	1	0.412841796875	0.57763671875	upper	../fonts/zerothre.ttf
1252312	START	n/a	LTP251	ltpFR	15	n/a	n/a	n/a	n/a	n/a	n/a	n/a	n/a	n/a	n/a	n/a	n/a	n/a	n/a	n/a
1253161	PROB	n/a	LTP251	ltpFR	15	n/a	n/a	n/a	n/a	n/a	n/a	19	6	5	8	n/a	n/a	n/a	n/a	n/a
1255007	PROB	n/a	LTP251	ltpFR	15	n/a	n/a	n/a	n/a	n/a	n/a	22	4	9	9	n/a	n/a	n/a	n/a	n/a
1257603	PROB	n/a	LTP251	ltpFR	15	n/a	n/a	n/a	n/a	n/a	n/a	19	4	8	7	n/a	n/a	n/a	n/a	n/a
1259829	STOP	n/a	LTP251	ltpFR	15	n/a	n/a	n/a	n/a	n/a	n/a	n/a	n/a	n/a	n/a	n/a	n/a	n/a	n/a	n/a
1262148	REC_START	n/a	LTP251	ltpFR	15	5	n/a	n/a	n/a	n/a	n/a	n/a	0	0	0	n/a	n/a	n/a	n/a	n/a
1263929	REC_WORD	wordpools/wasnorm_wordpool_less_exclusions.txt	LTP251	ltpFR	15	5	0	CORAL	378	n/a	1	n/a	0	0	0	n/a	n/a	n/a	n/a	n/a
1265939	REC_WORD	wordpools/wasnorm_wordpool_less_exclusions.txt	LTP251	ltpFR	15	5	1	CANARY	227	n/a	1	n/a	0	0	0	n/a	n/a	n/a	n/a	n/a
1341312	WORD	wordpools/wasnorm_wordpool_less_exclusions.txt	LTP251	ltpFR	15	6	1	KITTEN	780	n/a	1	n/a	0	0	0	1	0.412841796875	0.57763671875	upper	../fonts/zerothre.ttf
1345505	WORD	wordpools/wasnorm_wordpool_less_exclusions.txt	LTP251	ltpFR	15	6	1	PLUTO	1092	n/a	0	n/a	0	0	0	1	0.412841796875	0.57763671875	upper	../fonts/zerothre.ttf
1349582	WORD	wordpools/wasnorm_wordpool_less_exclusions.txt	LTP251	ltpFR	15	6	1	EARTH	515	n/a	0	n/a	0	0	0	1	0.412841796875	0.57763671875	upper	../fonts/zerothre.ttf
1353759	WORD	wordpools/wasnorm_wordpool_less_exclusions.txt	LTP251	ltpFR	15	6	1	GRILL	661	n/a	0	n/a	0	0	0	1	0.412841796875	0.57763671875	upper	../fonts/zerothre.ttf
1357853	WORD	wordpools/wasnorm_wordpool_less_exclusions.txt	LTP251	ltpFR	15	6	1	TIE	1466	n/a	0	n/a	0	0	0	1	0.412841796875	0.57763671875	upper	../fonts/zerothre.ttf
1361914	WORD	wordpools/wasnorm_wordpool_less_exclusions.txt	LTP251	ltpFR	15	6	1	STEP	1377	n/a	0	n/a	0	0	0	1	0.412841796875	0.57763671875	upper	../fonts/zerothre.ttf
1365941	WORD	wordpools/wasnorm_wordpool_less_exclusions.txt	LTP251	ltpFR	15	6	1	CLIMBER	323	n/a	0	n/a	0	0	0	1	0.412841796875	0.57763671875	upper	../fonts/zerothre.ttf
1369869	WORD	wordpools/wasnorm_wordpool_less_exclusions.txt	LTP251	ltpFR	15	6	1	SNACK	1331	n/a	0	n/a	0	0	0	1	0.412841796875	0.57763671875	upper	../fonts/zerothre.ttf
1374047	WORD	wordpools/wasnorm_wordpool_less_exclusions.txt	LTP251	ltpFR	15	6	1	WAITER	1580	n/a	0	n/a	0	0	0	1	0.412841796875	0.57763671875	upper	../fonts/zerothre.ttf
1377923	WORD	wordpools/wasnorm_wordpool_less_exclusions.txt	LTP251	ltpFR	15	6	1	SERVER	1272	n/a	0	n/a	0	0	0	1	0.412841796875	0.57763671875	upper	../fonts/zerothre.ttf
1381917	WORD	wordpools/wasnorm_wordpool_less_exclusions.txt	LTP251	ltpFR	15	6	1	FOOT	590	n/a	0	n/a	0	0	0	1	0.412841796875	0.57763671875	upper	../fonts/zerothre.ttf
1385762	WORD	wordpools/wasnorm_wordpool_less_exclusions.txt	LTP251	ltpFR	15	6	1	RIB	1188	n/a	0	n/a	0	0	0	1	0.412841796875	0.57763671875	upper	../fonts/zerothre.ttf
1389822	WORD	wordpools/wasnorm_wordpool_less_exclusions.txt	LTP251	ltpFR	15	6	1	SHEPHERD	1283	n/a	0	n/a	0	0	0	1	0.412841796875	0.57763671875	upper	../fonts/zerothre.ttf
1393933	WORD	wordpools/wasnorm_wordpool_less_exclusions.txt	LTP251	ltpFR	15	6	1	FEAST	556	n/a	0	n/a	0	0	0	1	0.412841796875	0.57763671875	upper	../fonts/zerothre.ttf
1397927	WORD	wordpools/wasnorm_wordpool_less_exclusions.txt	LTP251	ltpFR	15	6	1	BOOT	150	n/a	0	n/a	0	0	0	1	0.412841796875	0.57763671875	upper	../fonts/zerothre.ttf
1401854	WORD	wordpools/wasnorm_wordpool_less_exclusions.txt	LTP251	ltpFR	15	6	1	VALVE	1546	n/a	0	n/a	0	0	0	1	0.412841796875	0.57763671875	upper	../fonts/zerothre.ttf
1407763	REC_START	n/a	LTP251	ltpFR	15	6	n/a	n/a	n/a	n/a	n/a	n/a	0	0	0	n/a	n/a	n/a	n/a	n/a
1409148	REC_WORD	wordpools/wasnorm_wordpool_less_exclusions.txt	LTP251	ltpFR	15	6	1	VALVE	1546	n/a	0	n/a	0	0	0	n/a	n/a	n/a	n/a	n/a
1410685	REC_WORD	wordpools/wasnorm_wordpool_less_exclusions.txt	LTP251	ltpFR	15	6	1	BOOT	150	n/a	0	n/a	0	0	0	n/a	n/a	n/a	n/a	n/a
1411994	REC_WORD	wordpools/wasnorm_wordpool_less_exclusions.txt	LTP251	ltpFR	15	6	1	SHEPHERD	1283	n/a	0	n/a	0	0	0	n/a	n/a	n/a	n/a	n/a
1413932	REC_WORD	wordpools/wasnorm_wordpool_less_exclusions.txt	LTP251	ltpFR	15	6	1	EARTH	515	n/a	0	n/a	0	0	0	n/a	n/a	n/a	n/a	n/a
1486312	WORD	wordpools/wasnorm_wordpool_less_exclusions.txt	LTP251	ltpFR	15	7	0	MASCARA	875	n/a	0	n/a	0	0	0	0	0.5869140625	0.422607421875	lower	../fonts/amplitud.ttf
1490190	WORD	wordpools/wasnorm_wordpool_less_exclusions.txt	LTP251	ltpFR	15	7	0	BALLERINA	74	n/a	1	n/a	0	0	0	0	0.5869140625	0.422607421875	lower	../fonts/amplitud.ttf
1494384	WORD	wordpools/wasnorm_wordpool_less_exclusions.txt	LTP251	ltpFR	15	7	0	CAFETERIA	217	n/a	1	n/a	0	0	0	0	0.5869140625	0.422607421875	lower	../fonts/amplitud.ttf
1498361	WORD	wordpools/wasnorm_wordpool_less_exclusions.txt	LTP251	ltpFR	15	7	0	MAID	856	n/a	1	n/a	0	0	0	0	0.5869140625	0.422607421875	lower	../fonts/amplitud.ttf
1502222	WORD	wordpools/wasnorm_wordpool_less_exclusions.txt	LTP251	ltpFR	15	7	0	LEMON	810	n/a	1	n/a	0	0	0	0	0.5869140625	0.422607421875	lower	../fonts/amplitud.ttf
1506266	WORD	wordpools/wasnorm_wordpool_less_exclusions.txt	LTP251	ltpFR	15	7	0	SAUSAGE	1238	n/a	1	n/a	0	0	0	0	0.5869140625	0.422607421875	lower	../fonts/amplitud.ttf
1510143	WORD	wordpools/wasnorm_wordpool_less_exclusions.txt	LTP251	ltpFR	15	7	0	VIOLIN	1571	n/a	1	n/a	0	0	0	0	0.5869140625	0.422607421875	lower	../fonts/amplitud.ttf
1514354	WORD	wordpools/wasnorm_wordpool_less_exclusions.txt	LTP251	ltpFR	15	7	0	FIDDLE	561	n/a	1	n/a	0	0	0	0	0.5869140625	0.422607421875	lower	../fonts/amplitud.ttf
1518463	WORD	wordpools/wasnorm_wordpool_less_exclusions.txt	LTP251	ltpFR	15	7	0	BEET	115	n/a	1	n/a	0	0	0	0	0.5869140625	0.422607421875	lower	../fonts/amplitud.ttf
1522624	WORD	wordpools/wasnorm_wordpool_less_exclusions.txt	LTP251	ltpFR	15	7	0	PEACH	1031	n/a	0	n/a	0	0	0	0	0.5869140625	0.422607421875	lower	../fonts/amplitud.ttf
1526701	WORD	wordpools/wasnorm_wordpool_less_exclusions.txt	LTP251	ltpFR	15	7	0	WRIST	1626	n/a	1	n/a	0	0	0	0	0.5869140625	0.422607421875	lower	../fonts/amplitud.ttf
1530828	WORD	wordpools/wasnorm_wordpool_less_exclusions.txt	LTP251	ltpFR	15	7	0	HAND	683	n/a	0	n/a	0	0	0	0	0.5869140625	0.422607421875	lower	../fonts/amplitud.ttf
1534856	WORD	wordpools/wasnorm_wordpool_less_exclusions.txt	LTP251	ltpFR	15	7	0	ASIA	46	n/a	1	n/a	0	0	0	0	0.5869140625	0.422607421875	lower	../fonts/amplitud.ttf
1538949	WORD	wordpools/wasnorm_wordpool_less_exclusions.txt	LTP251	ltpFR	15	7	0	CLOVE	329	n/a	1	n/a	0	0	0	0	0.5869140625	0.422607421875	lower	../fonts/amplitud.ttf
1542993	WORD	wordpools/wasnorm_wordpool_less_exclusions.txt	LTP251	ltpFR	15	7	0	NICOTINE	951	n/a	1	n/a	0	0	0	0	0.5869140625	0.422607421875	lower	../fonts/amplitud.ttf
1547172	WORD	wordpools/wasnorm_wordpool_less_exclusions.txt	LTP251	ltpFR	15	7	0	STRAWBERRY	1391	n/a	0	n/a	0	0	0	0	0.5869140625	0.422607421875	lower	../fonts/amplitud.ttf
1550184	START	n/a	LTP251	ltpFR	15	n/a	n/a	n/a	n/a	n/a	n/a	n/a	n/a	n/a	n/a	n/a	n/a	n/a	n/a	n/a
1551332	PROB	n/a	LTP251	ltpFR	15	n/a	n/a	n/a	n/a	n/a	n/a	14	2	4	8	n/a	n/a	n/a	n/a	n/a
1555259	PROB	n/a	LTP251	ltpFR	15	n/a	n/a	n/a	n/a	n/a	n/a	19	6	9	4	n/a	n/a	n/a	n/a	n/a
1557054	STOP	n/a	LTP251	ltpFR	15	n/a	n/a	n/a	n/a	n/a	n/a	n/a	n/a	n/a	n/a	n/a	n/a	n/a	n/a	n/a
1559969	REC_START	n/a	LTP251	ltpFR	15	7	n/a	n/a	n/a	n/a	n/a	n/a	0	0	0	n/a	n/a	n/a	n/a	n/a
1560691	REC_WORD	wordpools/wasnorm_wordpool_less_exclusions.txt	LTP251	ltpFR	15	7	0	MASCARA	875	n/a	0	n/a	0	0	0	n/a	n/a	n/a	n/a	n/a
1562473	REC_WORD	wordpools/wasnorm_wordpool_less_exclusions.txt	LTP251	ltpFR	15	7	0	LEMON	810	n/a	1	n/a	0	0	0	n/a	n/a	n/a	n/a	n/a
1563977	REC_WORD	wordpools/wasnorm_wordpool_less_exclusions.txt	LTP251	ltpFR	15	7	0	BEET	115	n/a	1	n/a	0	0	0	n/a	n/a	n/a	n/a	n/a
1565421	REC_WORD	wordpools/wasnorm_wordpool_less_exclusions.txt	LTP251	ltpFR	15	7	0	PEACH	1031	n/a	0	n/a	0	0	0	n/a	n/a	n/a	n/a	n/a
1566970	REC_WORD	wordpools/wasnorm_wordpool_less_exclusions.txt	LTP251	ltpFR	15	7	0	STRAWBERRY	1391	n/a	0	n/a	0	0	0	n/a	n/a	n/a	n/a	n/a
1568895	REC_WORD	wordpools/wasnorm_wordpool_less_exclusions.txt	LTP251	ltpFR	15	7	0	HAND	683	n/a	0	n/a	0	0	0	n/a	n/a	n/a	n/a	n/a
1581700	REC_WORD	wordpools/wasnorm_wordpool_less_exclusions.txt	LTP251	ltpFR	15	7	0	CLOVE	329	n/a	1	n/a	0	0	0	n/a	n/a	n/a	n/a	n/a
1585102	REC_WORD	wordpools/wasnorm_wordpool_less_exclusions.txt	LTP251	ltpFR	15	7	0	ASIA	46	n/a	1	n/a	0	0	0	n/a	n/a	n/a	n/a	n/a
1637221	START	n/a	LTP251	ltpFR	15	n/a	n/a	n/a	n/a	n/a	n/a	n/a	n/a	n/a	n/a	n/a	n/a	n/a	n/a	n/a
1638734	PROB	n/a	LTP251	ltpFR	15	n/a	n/a	n/a	n/a	n/a	n/a	12	1	7	4	n/a	n/a	n/a	n/a	n/a
1640947	PROB	n/a	LTP251	ltpFR	15	n/a	n/a	n/a	n/a	n/a	n/a	14	9	3	2	n/a	n/a	n/a	n/a	n/a
1642911	PROB	n/a	LTP251	ltpFR	15	n/a	n/a	n/a	n/a	n/a	n/a	14	2	3	9	n/a	n/a	n/a	n/a	n/a
1644669	STOP	n/a	LTP251	ltpFR	15	n/a	n/a	n/a	n/a	n/a	n/a	n/a	n/a	n/a	n/a	n/a	n/a	n/a	n/a	n/a
1646340	WORD	wordpools/wasnorm_wordpool_less_exclusions.txt	LTP251	ltpFR	15	8	1	CATCHER	258	n/a	0	n/a	0	0	0	1	0.412841796875	0.57763671875	upper	../fonts/zerothre.ttf
1649353	START	n/a	LTP251	ltpFR	15	n/a	n/a	n/a	n/a	n/a	n/a	n/a	n/a	n/a	n/a	n/a	n/a	n/a	n/a	n/a
1650549	PROB	n/a	LTP251	ltpFR	15	n/a	n/a	n/a	n/a	n/a	n/a	18	8	8	2	n/a	n/a	n/a	n/a	n/a
1653113	PROB	n/a	LTP251	ltpFR	15	n/a	n/a	n/a	n/a	n/a	n/a	14	2	3	9	n/a	n/a	n/a	n/a	n/a
1654610	PROB	n/a	LTP251	ltpFR	15	n/a	n/a	n/a	n/a	n/a	n/a	10	4	1	5	n/a	n/a	n/a	n/a	n/a
1656158	STOP	n/a	LTP251	ltpFR	15	n/a	n/a	n/a	n/a	n/a	n/a	n/a	n/a	n/a	n/a	n/a	n/a	n/a	n/a	n/a
1658239	WORD	wordpools/wasnorm_wordpool_less_exclusions.txt	LTP251	ltpFR	15	8	1	APRON	35	n/a	0	n/a	0	0	0	1	0.412841796875	0.57763671875	upper	../fonts/zerothre.ttf
1661251	START	n/a	LTP251	ltpFR	15	n/a	n/a	n/a	n/a	n/a	n/a	n/a	n/a	n/a	n/a	n/a	n/a	n/a	n/a	n/a
1662366	PROB	n/a	LTP251	ltpFR	15	n/a	n/a	n/a	n/a	n/a	n/a	19	8	3	8	n/a	n/a	n/a	n/a	n/a
1663880	PROB	n/a	LTP251	ltpFR	15	n/a	n/a	n/a	n/a	n/a	n/a	13	4	3	6	n/a	n/a	n/a	n/a	n/a
1665445	PROB	n/a	LTP251	ltpFR	15	n/a	n/a	n/a	n/a	n/a	n/a	11	4	2	5	n/a	n/a	n/a	n/a	n/a
1666842	PROB	n/a	LTP251	ltpFR	15	n/a	n/a	n/a	n/a	n/a	n/a	12	2	6	4	n/a	n/a	n/a	n/a	n/a
1668038	STOP	n/a	LTP251	ltpFR	15	n/a	n/a	n/a	n/a	n/a	n/a	n/a	n/a	n/a	n/a	n/a	n/a	n/a	n/a	n/a
1670271	WORD	wordpools/wasnorm_wordpool_less_exclusions.txt	LTP251	ltpFR	15	8	1	DRIVER	499	n/a	0	n/a	0	0	0	1	0.412841796875	0.57763671875	upper	../fonts/zerothre.ttf
1673284	START	n/a	LTP251	ltpFR	15	n/a	n/a	n/a	n/a	n/a	n/a	n/a	n/a	n/a	n/a	n/a	n/a	n/a	n/a	n/a
1674265	PROB	n/a	LTP251	ltpFR	15	n/a	n/a	n/a	n/a	n/a	n/a	17	8	3	6	n/a	n/a	n/a	n/a	n/a
1677859	PROB	n/a	LTP251	ltpFR	15	n/a	n/a	n/a	n/a	n/a	n/a	11	6	2	3	n/a	n/a	n/a	n/a	n/a
1680374	STOP	n/a	LTP251	ltpFR	15	n/a	n/a	n/a	n/a	n/a	n/a	n/a	n/a	n/a	n/a	n/a	n/a	n/a	n/a	n/a
1682286	WORD	wordpools/wasnorm_wordpool_less_exclusions.txt	LTP251	ltpFR	15	8	1	AGENT	10	n/a	0	n/a	0	0	0	1	0.412841796875	0.57763671875	upper	../fonts/zerothre.ttf
1685299	START	n/a	LTP251	ltpFR	15	n/a	n/a	n/a	n/a	n/a	n/a	n/a	n/a	n/a	n/a	n/a	n/a	n/a	n/a	n/a
1686230	PROB	n/a	LTP251	ltpFR	15	n/a	n/a	n/a	n/a	n/a	n/a	16	4	8	3	n/a	n/a	n/a	n/a	n/a
1688427	PROB	n/a	LTP251	ltpFR	15	n/a	n/a	n/a	n/a	n/a	n/a	10	2	1	7	n/a	n/a	n/a	n/a	n/a
1693299	STOP	n/a	LTP251	ltpFR	15	n/a	n/a	n/a	n/a	n/a	n/a	n/a	n/a	n/a	n/a	n/a	n/a	n/a	n/a	n/a
1694169	WORD	wordpools/wasnorm_wordpool_less_exclusions.txt	LTP251	ltpFR	15	8	1	CAP	236	n/a	0	n/a	0	0	0	1	0.412841796875	0.57763671875	upper	../fonts/zerothre.ttf
1697181	START	n/a	LTP251	ltpFR	15	n/a	n/a	n/a	n/a	n/a	n/a	n/a	n/a	n/a	n/a	n/a	n/a	n/a	n/a	n/a
1698163	PROB	n/a	LTP251	ltpFR	15	n/a	n/a	n/a	n/a	n/a	n/a	12	3	3	6	n/a	n/a	n/a	n/a	n/a
1700359	PROB	n/a	LTP251	ltpFR	15	n/a	n/a	n/a	n/a	n/a	n/a	8	1	5	2	n/a	n/a	n/a	n/a	n/a
1702472	PROB	n/a	LTP251	ltpFR	15	n/a	n/a	n/a	n/a	n/a	n/a	18	3	7	8	n/a	n/a	n/a	n/a	n/a
1704262	STOP	n/a	LTP251	ltpFR	15	n/a	n/a	n/a	n/a	n/a	n/a	n/a	n/a	n/a	n/a	n/a	n/a	n/a	n/a	n/a
1706317	WORD	wordpools/wasnorm_wordpool_less_exclusions.txt	LTP251	ltpFR	15	8	1	WAVE	1596	n/a	0	n/a	0	0	0	1	0.412841796875	0.57763671875	upper	../fonts/zerothre.ttf
1709330	START	n/a	LTP251	ltpFR	15	n/a	n/a	n/a	n/a	n/a	n/a	n/a	n/a	n/a	n/a	n/a	n/a	n/a	n/a	n/a
1710195	PROB	n/a	LTP251	ltpFR	15	n/a	n/a	n/a	n/a	n/a	n/a	7	1	1	5	n/a	n/a	n/a	n/a	n/a
1711775	PROB	n/a	LTP251	ltpFR	15	n/a	n/a	n/a	n/a	n/a	n/a	15	5	8	2	n/a	n/a	n/a	n/a	n/a
1714587	PROB	n/a	LTP251	ltpFR	15	n/a	n/a	n/a	n/a	n/a	n/a	6	3	2	1	n/a	n/a	n/a	n/a	n/a
1716541	STOP	n/a	LTP251	ltpFR	15	n/a	n/a	n/a	n/a	n/a	n/a	n/a	n/a	n/a	n/a	n/a	n/a	n/a	n/a	n/a
1718233	WORD	wordpools/wasnorm_wordpool_less_exclusions.txt	LTP251	ltpFR	15	8	1	UMPIRE	1535	n/a	0	n/a	0	0	0	1	0.412841796875	0.57763671875	upper	../fonts/zerothre.ttf
1721245	START	n/a	LTP251	ltpFR	15	n/a	n/a	n/a	n/a	n/a	n/a	n/a	n/a	n/a	n/a	n/a	n/a	n/a	n/a	n/a
1722127	PROB	n/a	LTP251	ltpFR	15	n/a	n/a	n/a	n/a	n/a	n/a	23	9	6	8	n/a	n/a	n/a	n/a	n/a
1726154	PROB	n/a	LTP251	ltpFR	15	n/a	n/a	n/a	n/a	n/a	n/a	12	2	4	6	n/a	n/a	n/a	n/a	n/a
1727701	STOP	n/a	LTP251	ltpFR	15	n/a	n/a	n/a	n/a	n/a	n/a	n/a	n/a	n/a	n/a	n/a	n/a	n/a	n/a	n/a
1730348	WORD	wordpools/wasnorm_wordpool_less_exclusions.txt	LTP251	ltpFR	15	8	1	RUST	1219	n/a	0	n/a	0	0	0	1	0.412841796875	0.57763671875	upper	../fonts/zerothre.ttf
1733360	START	n/a	LTP251	ltpFR	15	n/a	n/a	n/a	n/a	n/a	n/a	n/a	n/a	n/a	n/a	n/a	n/a	n/a	n/a	n/a
1734292	PROB	n/a	LTP251	ltpFR	15	n/a	n/a	n/a	n/a	n/a	n/a	18	4	6	6	n/a	n/a	n/a	n/a	n/a
1736272	PROB	n/a	LTP251	ltpFR	15	n/a	n/a	n/a	n/a	n/a	n/a	18	6	4	8	n/a	n/a	n/a	n/a	n/a
1737603	PROB	n/a	LTP251	ltpFR	15	n/a	n/a	n/a	n/a	n/a	n/a	13	5	4	4	n/a	n/a	n/a	n/a	n/a
1740318	STOP	n/a	LTP251	ltpFR	15	n/a	n/a	n/a	n/a	n/a	n/a	n/a	n/a	n/a	n/a	n/a	n/a	n/a	n/a	n/a
1742363	WORD	wordpools/wasnorm_wordpool_less_exclusions.txt	LTP251	ltpFR	15	8	1	BULL	193	n/a	0	n/a	0	0	0	1	0.412841796875	0.57763671875	upper	../fonts/zerothre.ttf
1745376	START	n/a	LTP251	ltpFR	15	n/a	n/a	n/a	n/a	n/a	n/a	n/a	n/a	n/a	n/a	n/a	n/a	n/a	n/a	n/a
1746241	PROB	n/a	LTP251	ltpFR	15	n/a	n/a	n/a	n/a	n/a	n/a	19	9	2	8	n/a	n/a	n/a	n/a	n/a
1748338	PROB	n/a	LTP251	ltpFR	15	n/a	n/a	n/a	n/a	n/a	n/a	13	8	3	2	n/a	n/a	n/a	n/a	n/a
1750035	PROB	n/a	LTP251	ltpFR	15	n/a	n/a	n/a	n/a	n/a	n/a	19	8	4	7	n/a	n/a	n/a	n/a	n/a
1751829	STOP	n/a	LTP251	ltpFR	15	n/a	n/a	n/a	n/a	n/a	n/a	n/a	n/a	n/a	n/a	n/a	n/a	n/a	n/a	n/a
1754395	WORD	wordpools/wasnorm_wordpool_less_exclusions.txt	LTP251	ltpFR	15	8	1	HORSE	719	n/a	1	n/a	0	0	0	1	0.412841796875	0.57763671875	upper	../fonts/zerothre.ttf
1757408	START	n/a	LTP251	ltpFR	15	n/a	n/a	n/a	n/a	n/a	n/a	n/a	n/a	n/a	n/a	n/a	n/a	n/a	n/a	n/a
1758456	PROB	n/a	LTP251	ltpFR	15	n/a	n/a	n/a	n/a	n/a	n/a	8	3	3	2	n/a	n/a	n/a	n/a	n/a
1760003	PROB	n/a	LTP251	ltpFR	15	n/a	n/a	n/a	n/a	n/a	n/a	9	3	2	4	n/a	n/a	n/a	n/a	n/a
1762832	PROB	n/a	LTP251	ltpFR	15	n/a	n/a	n/a	n/a	n/a	n/a	8	1	5	2	n/a	n/a	n/a	n/a	n/a
1764246	STOP	n/a	LTP251	ltpFR	15	n/a	n/a	n/a	n/a	n/a	n/a	n/a	n/a	n/a	n/a	n/a	n/a	n/a	n/a	n/a
1766543	WORD	wordpools/wasnorm_wordpool_less_exclusions.txt	LTP251	ltpFR	15	8	1	LOBBY	836	n/a	0	n/a	0	0	0	1	0.412841796875	0.57763671875	upper	../fonts/zerothre.ttf
1769555	START	n/a	LTP251	ltpFR	15	n/a	n/a	n/a	n/a	n/a	n/a	n/a	n/a	n/a	n/a	n/a	n/a	n/a	n/a	n/a
1770703	PROB	n/a	LTP251	ltpFR	15	n/a	n/a	n/a	n/a	n/a	n/a	16	4	3	9	n/a	n/a	n/a	n/a	n/a
1772567	PROB	n/a	LTP251	ltpFR	15	n/a	n/a	n/a	n/a	n/a	n/a	19	7	9	3	n/a	n/a	n/a	n/a	n/a
1774664	PROB	n/a	LTP251	ltpFR	15	n/a	n/a	n/a	n/a	n/a	n/a	17	8	7	2	n/a	n/a	n/a	n/a	n/a
1776973	STOP	n/a	LTP251	ltpFR	15	n/a	n/a	n/a	n/a	n/a	n/a	n/a	n/a	n/a	n/a	n/a	n/a	n/a	n/a	n/a
1778508	WORD	wordpools/wasnorm_wordpool_less_exclusions.txt	LTP251	ltpFR	15	8	1	DOUGHNUT	490	n/a	0	n/a	0	0	0	1	0.412841796875	0.57763671875	upper	../fonts/zerothre.ttf
1781521	START	n/a	LTP251	ltpFR	15	n/a	n/a	n/a	n/a	n/a	n/a	n/a	n/a	n/a	n/a	n/a	n/a	n/a	n/a	n/a
1782370	PROB	n/a	LTP251	ltpFR	15	n/a	n/a	n/a	n/a	n/a	n/a	18	3	7	8	n/a	n/a	n/a	n/a	n/a
1783767	PROB	n/a	LTP251	ltpFR	15	n/a	n/a	n/a	n/a	n/a	n/a	17	9	4	4	n/a	n/a	n/a	n/a	n/a
1785764	PROB	n/a	LTP251	ltpFR	15	n/a	n/a	n/a	n/a	n/a	n/a	16	7	8	1	n/a	n/a	n/a	n/a	n/a
1788414	STOP	n/a	LTP251	ltpFR	15	n/a	n/a	n/a	n/a	n/a	n/a	n/a	n/a	n/a	n/a	n/a	n/a	n/a	n/a	n/a
1790640	WORD	wordpools/wasnorm_wordpool_less_exclusions.txt	LTP251	ltpFR	15	8	1	HOUSE	725	n/a	0	n/a	0	0	0	1	0.412841796875	0.57763671875	upper	../fonts/zerothre.ttf
1793653	START	n/a	LTP251	ltpFR	15	n/a	n/a	n/a	n/a	n/a	n/a	n/a	n/a	n/a	n/a	n/a	n/a	n/a	n/a	n/a
1794534	PROB	n/a	LTP251	ltpFR	15	n/a	n/a	n/a	n/a	n/a	n/a	21	5	8	9	n/a	n/a	n/a	n/a	n/a
1796648	PROB	n/a	LTP251	ltpFR	15	n/a	n/a	n/a	n/a	n/a	n/a	17	3	9	5	n/a	n/a	n/a	n/a	n/a
1798545	PROB	n/a	LTP251	ltpFR	15	n/a	n/a	n/a	n/a	n/a	n/a	13	2	3	8	n/a	n/a	n/a	n/a	n/a
1800206	STOP	n/a	LTP251	ltpFR	15	n/a	n/a	n/a	n/a	n/a	n/a	n/a	n/a	n/a	n/a	n/a	n/a	n/a	n/a	n/a
1802789	WORD	wordpools/wasnorm_wordpool_less_exclusions.txt	LTP251	ltpFR	15	8	1	COMMUNITY	356	n/a	0	n/a	0	0	0	1	0.412841796875	0.57763671875	upper	../fonts/zerothre.ttf
1805801	START	n/a	LTP251	ltpFR	15	n/a	n/a	n/a	n/a	n/a	n/a	n/a	n/a	n/a	n/a	n/a	n/a	n/a	n/a	n/a
1806683	PROB	n/a	LTP251	ltpFR	15	n/a	n/a	n/a	n/a	n/a	n/a	15	6	3	6	n/a	n/a	n/a	n/a	n/a
1809396	PROB	n/a	LTP251	ltpFR	15	n/a	n/a	n/a	n/a	n/a	n/a	17	4	5	8	n/a	n/a	n/a	n/a	n/a
1811177	PROB	n/a	LTP251	ltpFR	15	n/a	n/a	n/a	n/a	n/a	n/a	12	6	1	5	n/a	n/a	n/a	n/a	n/a
1812829	STOP	n/a	LTP251	ltpFR	15	n/a	n/a	n/a	n/a	n/a	n/a	n/a	n/a	n/a	n/a	n/a	n/a	n/a	n/a	n/a
1814887	WORD	wordpools/wasnorm_wordpool_less_exclusions.txt	LTP251	ltpFR	15	8	1	WATER	1594	n/a	0	n/a	0	0	0	1	0.412841796875	0.57763671875	upper	../fonts/zerothre.ttf
1817900	START	n/a	LTP251	ltpFR	15	n/a	n/a	n/a	n/a	n/a	n/a	n/a	n/a	n/a	n/a	n/a	n/a	n/a	n/a	n/a
1818898	PROB	n/a	LTP251	ltpFR	15	n/a	n/a	n/a	n/a	n/a	n/a	13	5	3	5	n/a	n/a	n/a	n/a	n/a
1822427	PROB	n/a	LTP251	ltpFR	15	n/a	n/a	n/a	n/a	n/a	n/a	17	4	8	5	n/a	n/a	n/a	n/a	n/a
1825899	STOP	n/a	LTP251	ltpFR	15	n/a	n/a	n/a	n/a	n/a	n/a	n/a	n/a	n/a	n/a	n/a	n/a	n/a	n/a	n/a
1827037	WORD	wordpools/wasnorm_wordpool_less_exclusions.txt	LTP251	ltpFR	15	8	1	POOL	1103	n/a	0	n/a	0	0	0	1	0.412841796875	0.57763671875	upper	../fonts/zerothre.ttf
1830049	START	n/a	LTP251	ltpFR	15	n/a	n/a	n/a	n/a	n/a	n/a	n/a	n/a	n/a	n/a	n/a	n/a	n/a	n/a	n/a
1830913	PROB	n/a	LTP251	ltpFR	15	n/a	n/a	n/a	n/a	n/a	n/a	10	5	3	2	n/a	n/a	n/a	n/a	n/a
1833277	PROB	n/a	LTP251	ltpFR	15	n/a	n/a	n/a	n/a	n/a	n/a	14	9	4	2	n/a	n/a	n/a	n/a	n/a
1835191	PROB	n/a	LTP251	ltpFR	15	n/a	n/a	n/a	n/a	n/a	n/a	6	2	2	2	n/a	n/a	n/a	n/a	n/a
1838049	STOP	n/a	LTP251	ltpFR	15	n/a	n/a	n/a	n/a	n/a	n/a	n/a	n/a	n/a	n/a	n/a	n/a	n/a	n/a	n/a
1839867	REC_START	n/a	LTP251	ltpFR	15	8	n/a	n/a	n/a	n/a	n/a	n/a	0	0	0	n/a	n/a	n/a	n/a	n/a
1841232	REC_WORD	wordpools/wasnorm_wordpool_less_exclusions.txt	LTP251	ltpFR	15	8	1	BULL	193	n/a	0	n/a	0	0	0	n/a	n/a	n/a	n/a	n/a
1842595	REC_WORD	wordpools/wasnorm_wordpool_less_exclusions.txt	LTP251	ltpFR	15	8	1	HORSE	719	n/a	1	n/a	0	0	0	n/a	n/a	n/a	n/a	n/a
1916752	START	n/a	LTP251	ltpFR	15	n/a	n/a	n/a	n/a	n/a	n/a	n/a	n/a	n/a	n/a	n/a	n/a	n/a	n/a	n/a
1918267	PROB	n/a	LTP251	ltpFR	15	n/a	n/a	n/a	n/a	n/a	n/a	21	8	5	8	n/a	n/a	n/a	n/a	n/a
1922195	PROB	n/a	LTP251	ltpFR	15	n/a	n/a	n/a	n/a	n/a	n/a	9	3	4	2	n/a	n/a	n/a	n/a	n/a
1923691	PROB	n/a	LTP251	ltpFR	15	n/a	n/a	n/a	n/a	n/a	n/a	22	6	9	7	n/a	n/a	n/a	n/a	n/a
1926704	PROB	n/a	LTP251	ltpFR	15	n/a	n/a	n/a	n/a	n/a	n/a	18	7	9	2	n/a	n/a	n/a	n/a	n/a
1928717	PROB	n/a	LTP251	ltpFR	15	n/a	n/a	n/a	n/a	n/a	n/a	11	2	4	5	n/a	n/a	n/a	n/a	n/a
1930100	PROB	n/a	LTP251	ltpFR	15	n/a	n/a	n/a	n/a	n/a	n/a	19	7	5	7	n/a	n/a	n/a	n/a	n/a
1931845	STOP	n/a	LTP251	ltpFR	15	n/a	n/a	n/a	n/a	n/a	n/a	n/a	n/a	n/a	n/a	n/a	n/a	n/a	n/a	n/a
1933660	WORD	wordpools/wasnorm_wordpool_less_exclusions.txt	LTP251	ltpFR	15	9	0	LODGE	839	n/a	1	n/a	0	0	0	0	0.5869140625	0.422607421875	lower	../fonts/amplitud.ttf
1936672	START	n/a	LTP251	ltpFR	15	n/a	n/a	n/a	n/a	n/a	n/a	n/a	n/a	n/a	n/a	n/a	n/a	n/a	n/a	n/a
1937671	PROB	n/a	LTP251	ltpFR	15	n/a	n/a	n/a	n/a	n/a	n/a	14	5	7	2	n/a	n/a	n/a	n/a	n/a
1940185	PROB	n/a	LTP251	ltpFR	15	n/a	n/a	n/a	n/a	n/a	n/a	12	5	4	3	n/a	n/a	n/a	n/a	n/a
1941948	PROB	n/a	LTP251	ltpFR	15	n/a	n/a	n/a	n/a	n/a	n/a	15	9	2	4	n/a	n/a	n/a	n/a	n/a
1943462	PROB	n/a	LTP251	ltpFR	15	n/a	n/a	n/a	n/a	n/a	n/a	12	7	1	4	n/a	n/a	n/a	n/a	n/a
1945177	PROB	n/a	LTP251	ltpFR	15	n/a	n/a	n/a	n/a	n/a	n/a	12	2	4	6	n/a	n/a	n/a	n/a	n/a
1946557	PROB	n/a	LTP251	ltpFR	15	n/a	n/a	n/a	n/a	n/a	n/a	13	3	5	4	n/a	n/a	n/a	n/a	n/a
1948206	PROB	n/a	LTP251	ltpFR	15	n/a	n/a	n/a	n/a	n/a	n/a	21	9	5	7	n/a	n/a	n/a	n/a	n/a
1952158	STOP	n/a	LTP251	ltpFR	15	n/a	n/a	n/a	n/a	n/a	n/a	n/a	n/a	n/a	n/a	n/a	n/a	n/a	n/a	n/a
1953846	WORD	wordpools/wasnorm_wordpool_less_exclusions.txt	LTP251	ltpFR	15	9	0	PERCH	1048	n/a	1	n/a	0	0	0	0	0.5869140625	0.422607421875	lower	../fonts/amplitud.ttf
1956859	START	n/a	LTP251	ltpFR	15	n/a	n/a	n/a	n/a	n/a	n/a	n/a	n/a	n/a	n/a	n/a	n/a	n/a	n/a	n/a
1957840	PROB	n/a	LTP251	ltpFR	15	n/a	n/a	n/a	n/a	n/a	n/a	18	7	3	8	n/a	n/a	n/a	n/a	n/a
1959471	PROB	n/a	LTP251	ltpFR	15	n/a	n/a	n/a	n/a	n/a	n/a	9	7	1	1	n/a	n/a	n/a	n/a	n/a
1960936	PROB	n/a	LTP251	ltpFR	15	n/a	n/a	n/a	n/a	n/a	n/a	13	4	8	1	n/a	n/a	n/a	n/a	n/a
1962301	PROB	n/a	LTP251	ltpFR	15	n/a	n/a	n/a	n/a	n/a	n/a	15	1	5	9	n/a	n/a	n/a	n/a	n/a
1964448	PROB	n/a	LTP251	ltpFR	15	n/a	n/a	n/a	n/a	n/a	n/a	15	7	1	7	n/a	n/a	n/a	n/a	n/a
1966296	PROB	n/a	LTP251	ltpFR	15	n/a	n/a	n/a	n/a	n/a	n/a	16	5	6	5	n/a	n/a	n/a	n/a	n/a
1968309	PROB	n/a	LTP251	ltpFR	15	n/a	n/a	n/a	n/a	n/a	n/a	12	7	4	1	n/a	n/a	n/a	n/a	n/a
1970456	PROB	n/a	LTP251	ltpFR	15	n/a	n/a	n/a	n/a	n/a	n/a	12	8	1	4	n/a	n/a	n/a	n/a	n/a
1972749	STOP	n/a	LTP251	ltpFR	15	n/a	n/a	n/a	n/a	n/a	n/a	n/a	n/a	n/a	n/a	n/a	n/a	n/a	n/a	n/a
1973800	WORD	wordpools/wasnorm_wordpool_less_exclusions.txt	LTP251	ltpFR	15	9	0	WINGS	1614	n/a	0	n/a	0	0	0	0	0.5869140625	0.422607421875	lower	../fonts/amplitud.ttf
1976813	START	n/a	LTP251	ltpFR	15	n/a	n/a	n/a	n/a	n/a	n/a	n/a	n/a	n/a	n/a	n/a	n/a	n/a	n/a	n/a
1977844	PROB	n/a	LTP251	ltpFR	15	n/a	n/a	n/a	n/a	n/a	n/a	9	2	6	1	n/a	n/a	n/a	n/a	n/a
1979708	PROB	n/a	LTP251	ltpFR	15	n/a	n/a	n/a	n/a	n/a	n/a	9	6	1	2	n/a	n/a	n/a	n/a	n/a
1982055	PROB	n/a	LTP251	ltpFR	15	n/a	n/a	n/a	n/a	n/a	n/a	12	5	1	6	n/a	n/a	n/a	n/a	n/a
1984069	PROB	n/a	LTP251	ltpFR	15	n/a	n/a	n/a	n/a	n/a	n/a	19	6	6	7	n/a	n/a	n/a	n/a	n/a
1987712	PROB	n/a	LTP251	ltpFR	15	n/a	n/a	n/a	n/a	n/a	n/a	15	6	2	7	n/a	n/a	n/a	n/a	n/a
1989311	PROB	n/a	LTP251	ltpFR	15	n/a	n/a	n/a	n/a	n/a	n/a	17	7	7	3	n/a	n/a	n/a	n/a	n/a
1991645	STOP	n/a	LTP251	ltpFR	15	n/a	n/a	n/a	n/a	n/a	n/a	n/a	n/a	n/a	n/a	n/a	n/a	n/a	n/a	n/a
1994021	WORD	wordpools/wasnorm_wordpool_less_exclusions.txt	LTP251	ltpFR	15	9	0	COMMITTEE	355	n/a	1	n/a	0	0	0	0	0.5869140625	0.422607421875	lower	../fonts/amplitud.ttf
1997033	START	n/a	LTP251	ltpFR	15	n/a	n/a	n/a	n/a	n/a	n/a	n/a	n/a	n/a	n/a	n/a	n/a	n/a	n/a	n/a
1997931	PROB	n/a	LTP251	ltpFR	15	n/a	n/a	n/a	n/a	n/a	n/a	21	6	6	9	n/a	n/a	n/a	n/a	n/a
1999611	PROB	n/a	LTP251	ltpFR	15	n/a	n/a	n/a	n/a	n/a	n/a	13	1	7	5	n/a	n/a	n/a	n/a	n/a
2001825	PROB	n/a	LTP251	ltpFR	15	n/a	n/a	n/a	n/a	n/a	n/a	21	7	9	7	n/a	n/a	n/a	n/a	n/a
2004754	PROB	n/a	LTP251	ltpFR	15	n/a	n/a	n/a	n/a	n/a	n/a	16	4	9	3	n/a	n/a	n/a	n/a	n/a
2007035	PROB	n/a	LTP251	ltpFR	15	n/a	n/a	n/a	n/a	n/a	n/a	22	9	6	7	n/a	n/a	n/a	n/a	n/a
2010396	PROB	n/a	LTP251	ltpFR	15	n/a	n/a	n/a	n/a	n/a	n/a	13	2	6	5	n/a	n/a	n/a	n/a	n/a
2012653	STOP	n/a	LTP251	ltpFR	15	n/a	n/a	n/a	n/a	n/a	n/a	n/a	n/a	n/a	n/a	n/a	n/a	n/a	n/a	n/a
2013973	WORD	wordpools/wasnorm_wordpool_less_exclusions.txt	LTP251	ltpFR	15	9	0	COACH	331	n/a	1	n/a	0	0	0	0	0.5869140625	0.422607421875	lower	../fonts/amplitud.ttf
2016986	START	n/a	LTP251	ltpFR	15	n/a	n/a	n/a	n/a	n/a	n/a	n/a	n/a	n/a	n/a	n/a	n/a	n/a	n/a	n/a
2018018	PROB	n/a	LTP251	ltpFR	15	n/a	n/a	n/a	n/a	n/a	n/a	8	2	4	2	n/a	n/a	n/a	n/a	n/a
2020148	PROB	n/a	LTP251	ltpFR	15	n/a	n/a	n/a	n/a	n/a	n/a	27	9	9	9	n/a	n/a	n/a	n/a	n/a
2022760	PROB	n/a	LTP251	ltpFR	15	n/a	n/a	n/a	n/a	n/a	n/a	10	3	5	2	n/a	n/a	n/a	n/a	n/a
2024641	PROB	n/a	LTP251	ltpFR	15	n/a	n/a	n/a	n/a	n/a	n/a	18	7	9	3	n/a	n/a	n/a	n/a	n/a
2027371	PROB	n/a	LTP251	ltpFR	15	n/a	n/a	n/a	n/a	n/a	n/a	10	2	4	4	n/a	n/a	n/a	n/a	n/a
2029185	PROB	n/a	LTP251	ltpFR	15	n/a	n/a	n/a	n/a	n/a	n/a	15	3	8	4	n/a	n/a	n/a	n/a	n/a
2031925	STOP	n/a	LTP251	ltpFR	15	n/a	n/a	n/a	n/a	n/a	n/a	n/a	n/a	n/a	n/a	n/a	n/a	n/a	n/a	n/a
2034194	WORD	wordpools/wasnorm_wordpool_less_exclusions.txt	LTP251	ltpFR	15	9	0	CRUMB	416	n/a	1	n/a	0	0	0	0	0.5869140625	0.422607421875	lower	../fonts/amplitud.ttf
2037223	START	n/a	LTP251	ltpFR	15	n/a	n/a	n/a	n/a	n/a	n/a	n/a	n/a	n/a	n/a	n/a	n/a	n/a	n/a	n/a
2038371	PROB	n/a	LTP251	ltpFR	15	n/a	n/a	n/a	n/a	n/a	n/a	16	3	9	3	n/a	n/a	n/a	n/a	n/a
2040717	PROB	n/a	LTP251	ltpFR	15	n/a	n/a	n/a	n/a	n/a	n/a	19	9	7	3	n/a	n/a	n/a	n/a	n/a
2042432	PROB	n/a	LTP251	ltpFR	15	n/a	n/a	n/a	n/a	n/a	n/a	10	1	2	7	n/a	n/a	n/a	n/a	n/a
2043795	PROB	n/a	LTP251	ltpFR	15	n/a	n/a	n/a	n/a	n/a	n/a	7	3	1	3	n/a	n/a	n/a	n/a	n/a
2045593	PROB	n/a	LTP251	ltpFR	15	n/a	n/a	n/a	n/a	n/a	n/a	21	8	9	4	n/a	n/a	n/a	n/a	n/a
2048671	PROB	n/a	LTP251	ltpFR	15	n/a	n/a	n/a	n/a	n/a	n/a	10	4	4	2	n/a	n/a	n/a	n/a	n/a
2050220	PROB	n/a	LTP251	ltpFR	15	n/a	n/a	n/a	n/a	n/a	n/a	5	1	3	1	n/a	n/a	n/a	n/a	n/a
2051567	PROB	n/a	LTP251	ltpFR	15	n/a	n/a	n/a	n/a	n/a	n/a	12	2	8	2	n/a	n/a	n/a	n/a	n/a
2052973	STOP	n/a	LTP251	ltpFR	15	n/a	n/a	n/a	n/a	n/a	n/a	n/a	n/a	n/a	n/a	n/a	n/a	n/a	n/a	n/a
2054331	WORD	wordpools/wasnorm_wordpool_less_exclusions.txt	LTP251	ltpFR	15	9	0	COBBLER	335	n/a	1	n/a	0	0	0	0	0.5869140625	0.422607421875	lower	../fonts/amplitud.ttf
2057343	START	n/a	LTP251	ltpFR	15	n/a	n/a	n/a	n/a	n/a	n/a	n/a	n/a	n/a	n/a	n/a	n/a	n/a	n/a	n/a
2058458	PROB	n/a	LTP251	ltpFR	15	n/a	n/a	n/a	n/a	n/a	n/a	10	7	2	1	n/a	n/a	n/a	n/a	n/a
2060770	PROB	n/a	LTP251	ltpFR	15	n/a	n/a	n/a	n/a	n/a	n/a	12	8	1	3	n/a	n/a	n/a	n/a	n/a
2063466	PROB	n/a	LTP251	ltpFR	15	n/a	n/a	n/a	n/a	n/a	n/a	10	1	3	6	n/a	n/a	n/a	n/a	n/a
2066030	PROB	n/a	LTP251	ltpFR	15	n/a	n/a	n/a	n/a	n/a	n/a	18	6	7	5	n/a	n/a	n/a	n/a	n/a
2068210	PROB	n/a	LTP251	ltpFR	15	n/a	n/a	n/a	n/a	n/a	n/a	5	1	1	3	n/a	n/a	n/a	n/a	n/a
2069474	PROB	n/a	LTP251	ltpFR	15	n/a	n/a	n/a	n/a	n/a	n/a	14	5	9	2	n/a	n/a	n/a	n/a	n/a
2072046	STOP	n/a	LTP251	ltpFR	15	n/a	n/a	n/a	n/a	n/a	n/a	n/a	n/a	n/a	n/a	n/a	n/a	n/a	n/a	n/a
2074499	WORD	wordpools/wasnorm_wordpool_less_exclusions.txt	LTP251	ltpFR	15	9	0	BANANA	77	n/a	0	n/a	0	0	0	0	0.5869140625	0.422607421875	lower	../fonts/amplitud.ttf
2077512	START	n/a	LTP251	ltpFR	15	n/a	n/a	n/a	n/a	n/a	n/a	n/a	n/a	n/a	n/a	n/a	n/a	n/a	n/a	n/a
2078593	PROB	n/a	LTP251	ltpFR	15	n/a	n/a	n/a	n/a	n/a	n/a	11	9	1	1	n/a	n/a	n/a	n/a	n/a
2080823	PROB	n/a	LTP251	ltpFR	15	n/a	n/a	n/a	n/a	n/a	n/a	20	9	5	6	n/a	n/a	n/a	n/a	n/a
2083619	PROB	n/a	LTP251	ltpFR	15	n/a	n/a	n/a	n/a	n/a	n/a	17	8	8	1	n/a	n/a	n/a	n/a	n/a
2085218	PROB	n/a	LTP251	ltpFR	15	n/a	n/a	n/a	n/a	n/a	n/a	18	8	6	3	n/a	n/a	n/a	n/a	n/a
2087298	PROB	n/a	LTP251	ltpFR	15	n/a	n/a	n/a	n/a	n/a	n/a	25	7	9	8	n/a	n/a	n/a	n/a	n/a
2090227	PROB	n/a	LTP251	ltpFR	15	n/a	n/a	n/a	n/a	n/a	n/a	16	5	3	8	n/a	n/a	n/a	n/a	n/a
2093512	STOP	n/a	LTP251	ltpFR	15	n/a	n/a	n/a	n/a	n/a	n/a	n/a	n/a	n/a	n/a	n/a	n/a	n/a	n/a	n/a
2094354	WORD	wordpools/wasnorm_wordpool_less_exclusions.txt	LTP251	ltpFR	15	9	0	THREAD	1460	n/a	0	n/a	0	0	0	0	0.5869140625	0.422607421875	lower	../fonts/amplitud.ttf
2097367	START	n/a	LTP251	ltpFR	15	n/a	n/a	n/a	n/a	n/a	n/a	n/a	n/a	n/a	n/a	n/a	n/a	n/a	n/a	n/a
2098232	PROB	n/a	LTP251	ltpFR	15	n/a	n/a	n/a	n/a	n/a	n/a	15	5	9	1	n/a	n/a	n/a	n/a	n/a
2100312	PROB	n/a	LTP251	ltpFR	15	n/a	n/a	n/a	n/a	n/a	n/a	17	5	5	7	n/a	n/a	n/a	n/a	n/a
2102009	PROB	n/a	LTP251	ltpFR	15	n/a	n/a	n/a	n/a	n/a	n/a	12	5	2	5	n/a	n/a	n/a	n/a	n/a
2103756	PROB	n/a	LTP251	ltpFR	15	n/a	n/a	n/a	n/a	n/a	n/a	11	3	2	6	n/a	n/a	n/a	n/a	n/a
2105520	PROB	n/a	LTP251	ltpFR	15	n/a	n/a	n/a	n/a	n/a	n/a	19	8	8	3	n/a	n/a	n/a	n/a	n/a
2107102	PROB	n/a	LTP251	ltpFR	15	n/a	n/a	n/a	n/a	n/a	n/a	14	2	6	6	n/a	n/a	n/a	n/a	n/a
2108832	PROB	n/a	LTP251	ltpFR	15	n/a	n/a	n/a	n/a	n/a	n/a	22	8	9	5	n/a	n/a	n/a	n/a	n/a
2111577	PROB	n/a	LTP251	ltpFR	15	n/a	n/a	n/a	n/a	n/a	n/a	14	1	9	4	n/a	n/a	n/a	n/a	n/a
2113004	STOP	n/a	LTP251	ltpFR	15	n/a	n/a	n/a	n/a	n/a	n/a	n/a	n/a	n/a	n/a	n/a	n/a	n/a	n/a	n/a
2114424	WORD	wordpools/wasnorm_wordpool_less_exclusions.txt	LTP251	ltpFR	15	9	0	PONY	1102	n/a	1	n/a	0	0	0	0	0.5869140625	0.422607421875	lower	../fonts/amplitud.ttf
2117437	START	n/a	LTP251	ltpFR	15	n/a	n/a	n/a	n/a	n/a	n/a	n/a	n/a	n/a	n/a	n/a	n/a	n/a	n/a	n/a
2118634	PROB	n/a	LTP251	ltpFR	15	n/a	n/a	n/a	n/a	n/a	n/a	10	1	5	4	n/a	n/a	n/a	n/a	n/a
2120780	PROB	n/a	LTP251	ltpFR	15	n/a	n/a	n/a	n/a	n/a	n/a	17	2	8	7	n/a	n/a	n/a	n/a	n/a
2122312	PROB	n/a	LTP251	ltpFR	15	n/a	n/a	n/a	n/a	n/a	n/a	16	6	4	6	n/a	n/a	n/a	n/a	n/a
2124126	PROB	n/a	LTP251	ltpFR	15	n/a	n/a	n/a	n/a	n/a	n/a	21	6	7	8	n/a	n/a	n/a	n/a	n/a
2126440	PROB	n/a	LTP251	ltpFR	15	n/a	n/a	n/a	n/a	n/a	n/a	12	3	2	7	n/a	n/a	n/a	n/a	n/a
2128303	PROB	n/a	LTP251	ltpFR	15	n/a	n/a	n/a	n/a	n/a	n/a	15	9	3	3	n/a	n/a	n/a	n/a	n/a
2133437	STOP	n/a	LTP251	ltpFR	15	n/a	n/a	n/a	n/a	n/a	n/a	n/a	n/a	n/a	n/a	n/a	n/a	n/a	n/a	n/a
2134643	WORD	wordpools/wasnorm_wordpool_less_exclusions.txt	LTP251	ltpFR	15	9	0	SCREWDRIVER	1255	n/a	0	n/a	0	0	0	0	0.5869140625	0.422607421875	lower	../fonts/amplitud.ttf
2137656	START	n/a	LTP251	ltpFR	15	n/a	n/a	n/a	n/a	n/a	n/a	n/a	n/a	n/a	n/a	n/a	n/a	n/a	n/a	n/a
2138570	PROB	n/a	LTP251	ltpFR	15	n/a	n/a	n/a	n/a	n/a	n/a	13	1	4	9	n/a	n/a	n/a	n/a	n/a
2142565	PROB	n/a	LTP251	ltpFR	15	n/a	n/a	n/a	n/a	n/a	n/a	12	3	1	8	n/a	n/a	n/a	n/a	n/a
2144628	PROB	n/a	LTP251	ltpFR	15	n/a	n/a	n/a	n/a	n/a	n/a	15	3	5	7	n/a	n/a	n/a	n/a	n/a
2147009	PROB	n/a	LTP251	ltpFR	15	n/a	n/a	n/a	n/a	n/a	n/a	17	9	4	4	n/a	n/a	n/a	n/a	n/a
2149305	PROB	n/a	LTP251	ltpFR	15	n/a	n/a	n/a	n/a	n/a	n/a	12	2	3	7	n/a	n/a	n/a	n/a	n/a
2150769	PROB	n/a	LTP251	ltpFR	15	n/a	n/a	n/a	n/a	n/a	n/a	14	6	2	6	n/a	n/a	n/a	n/a	n/a
2153206	STOP	n/a	LTP251	ltpFR	15	n/a	n/a	n/a	n/a	n/a	n/a	n/a	n/a	n/a	n/a	n/a	n/a	n/a	n/a	n/a
2154630	WORD	wordpools/wasnorm_wordpool_less_exclusions.txt	LTP251	ltpFR	15	9	0	GRAVEL	659	n/a	0	n/a	0	0	0	0	0.5869140625	0.422607421875	lower	../fonts/amplitud.ttf
2157642	START	n/a	LTP251	ltpFR	15	n/a	n/a	n/a	n/a	n/a	n/a	n/a	n/a	n/a	n/a	n/a	n/a	n/a	n/a	n/a
2158774	PROB	n/a	LTP251	ltpFR	15	n/a	n/a	n/a	n/a	n/a	n/a	24	9	9	6	n/a	n/a	n/a	n/a	n/a
2161404	PROB	n/a	LTP251	ltpFR	15	n/a	n/a	n/a	n/a	n/a	n/a	19	8	5	6	n/a	n/a	n/a	n/a	n/a
2163716	PROB	n/a	LTP251	ltpFR	15	n/a	n/a	n/a	n/a	n/a	n/a	11	7	2	2	n/a	n/a	n/a	n/a	n/a
2165398	PROB	n/a	LTP251	ltpFR	15	n/a	n/a	n/a	n/a	n/a	n/a	12	4	7	1	n/a	n/a	n/a	n/a	n/a
2166895	PROB	n/a	LTP251	ltpFR	15	n/a	n/a	n/a	n/a	n/a	n/a	9	4	2	3	n/a	n/a	n/a	n/a	n/a
2170257	PROB	n/a	LTP251	ltpFR	15	n/a	n/a	n/a	n/a	n/a	n/a	17	8	5	4	n/a	n/a	n/a	n/a	n/a
2173062	STOP	n/a	LTP251	ltpFR	15	n/a	n/a	n/a	n/a	n/a	n/a	n/a	n/a	n/a	n/a	n/a	n/a	n/a	n/a	n/a
2174583	WORD	wordpools/wasnorm_wordpool_less_exclusions.txt	LTP251	ltpFR	15	9	0	LOAF	835	n/a	1	n/a	0	0	0	0	0.5869140625	0.422607421875	lower	../fonts/amplitud.ttf
2177596	START	n/a	LTP251	ltpFR	15	n/a	n/a	n/a	n/a	n/a	n/a	n/a	n/a	n/a	n/a	n/a	n/a	n/a	n/a	n/a
2178727	PROB	n/a	LTP251	ltpFR	15	n/a	n/a	n/a	n/a	n/a	n/a	14	8	2	4	n/a	n/a	n/a	n/a	n/a
2182023	PROB	n/a	LTP251	ltpFR	15	n/a	n/a	n/a	n/a	n/a	n/a	11	7	2	2	n/a	n/a	n/a	n/a	n/a
2184187	PROB	n/a	LTP251	ltpFR	15	n/a	n/a	n/a	n/a	n/a	n/a	19	6	8	5	n/a	n/a	n/a	n/a	n/a
2187082	PROB	n/a	LTP251	ltpFR	15	n/a	n/a	n/a	n/a	n/a	n/a	12	8	3	1	n/a	n/a	n/a	n/a	n/a
2188646	PROB	n/a	LTP251	ltpFR	15	n/a	n/a	n/a	n/a	n/a	n/a	14	2	5	7	n/a	n/a	n/a	n/a	n/a
2190793	PROB	n/a	LTP251	ltpFR	15	n/a	n/a	n/a	n/a	n/a	n/a	19	6	8	5	n/a	n/a	n/a	n/a	n/a
2192797	STOP	n/a	LTP251	ltpFR	15	n/a	n/a	n/a	n/a	n/a	n/a	n/a	n/a	n/a	n/a	n/a	n/a	n/a	n/a	n/a
2194637	WORD	wordpools/wasnorm_wordpool_less_exclusions.txt	LTP251	ltpFR	15	9	0	DORM	488	n/a	1	n/a	0	0	0	0	0.5869140625	0.422607421875	lower	../fonts/amplitud.ttf
2197649	START	n/a	LTP251	ltpFR	15	n/a	n/a	n/a	n/a	n/a	n/a	n/a	n/a	n/a	n/a	n/a	n/a	n/a	n/a	n/a
2198531	PROB	n/a	LTP251	ltpFR	15	n/a	n/a	n/a	n/a	n/a	n/a	13	2	9	2	n/a	n/a	n/a	n/a	n/a
2201028	PROB	n/a	LTP251	ltpFR	15	n/a	n/a	n/a	n/a	n/a	n/a	17	3	7	7	n/a	n/a	n/a	n/a	n/a
2202825	PROB	n/a	LTP251	ltpFR	15	n/a	n/a	n/a	n/a	n/a	n/a	10	1	1	8	n/a	n/a	n/a	n/a	n/a
2204440	PROB	n/a	LTP251	ltpFR	15	n/a	n/a	n/a	n/a	n/a	n/a	25	8	8	9	n/a	n/a	n/a	n/a	n/a
2208849	PROB	n/a	LTP251	ltpFR	15	n/a	n/a	n/a	n/a	n/a	n/a	9	1	7	1	n/a	n/a	n/a	n/a	n/a
2210115	PROB	n/a	LTP251	ltpFR	15	n/a	n/a	n/a	n/a	n/a	n/a	19	9	5	5	n/a	n/a	n/a	n/a	n/a
2213649	STOP	n/a	LTP251	ltpFR	15	n/a	n/a	n/a	n/a	n/a	n/a	n/a	n/a	n/a	n/a	n/a	n/a	n/a	n/a	n/a
2214707	WORD	wordpools/wasnorm_wordpool_less_exclusions.txt	LTP251	ltpFR	15	9	0	BOX	159	n/a	1	n/a	0	0	0	0	0.5869140625	0.422607421875	lower	../fonts/amplitud.ttf
2217719	START	n/a	LTP251	ltpFR	15	n/a	n/a	n/a	n/a	n/a	n/a	n/a	n/a	n/a	n/a	n/a	n/a	n/a	n/a	n/a
2218801	PROB	n/a	LTP251	ltpFR	15	n/a	n/a	n/a	n/a	n/a	n/a	18	5	4	8	n/a	n/a	n/a	n/a	n/a
2221463	PROB	n/a	LTP251	ltpFR	15	n/a	n/a	n/a	n/a	n/a	n/a	16	3	7	6	n/a	n/a	n/a	n/a	n/a
2223345	PROB	n/a	LTP251	ltpFR	15	n/a	n/a	n/a	n/a	n/a	n/a	8	1	6	1	n/a	n/a	n/a	n/a	n/a
2224625	PROB	n/a	LTP251	ltpFR	15	n/a	n/a	n/a	n/a	n/a	n/a	16	9	1	6	n/a	n/a	n/a	n/a	n/a
2226224	PROB	n/a	LTP251	ltpFR	15	n/a	n/a	n/a	n/a	n/a	n/a	16	2	9	5	n/a	n/a	n/a	n/a	n/a
2228819	PROB	n/a	LTP251	ltpFR	15	n/a	n/a	n/a	n/a	n/a	n/a	12	2	3	7	n/a	n/a	n/a	n/a	n/a
2230683	PROB	n/a	LTP251	ltpFR	15	n/a	n/a	n/a	n/a	n/a	n/a	7	1	5	1	n/a	n/a	n/a	n/a	n/a
2233070	STOP	n/a	LTP251	ltpFR	15	n/a	n/a	n/a	n/a	n/a	n/a	n/a	n/a	n/a	n/a	n/a	n/a	n/a	n/a	n/a
2234777	WORD	wordpools/wasnorm_wordpool_less_exclusions.txt	LTP251	ltpFR	15	9	0	COIN	343	n/a	0	n/a	0	0	0	0	0.5869140625	0.422607421875	lower	../fonts/amplitud.ttf
2237789	START	n/a	LTP251	ltpFR	15	n/a	n/a	n/a	n/a	n/a	n/a	n/a	n/a	n/a	n/a	n/a	n/a	n/a	n/a	n/a
2238671	PROB	n/a	LTP251	ltpFR	15	n/a	n/a	n/a	n/a	n/a	n/a	19	8	5	6	n/a	n/a	n/a	n/a	n/a
2241966	PROB	n/a	LTP251	ltpFR	15	n/a	n/a	n/a	n/a	n/a	n/a	13	1	6	6	n/a	n/a	n/a	n/a	n/a
2243930	PROB	n/a	LTP251	ltpFR	15	n/a	n/a	n/a	n/a	n/a	n/a	3	1	1	1	n/a	n/a	n/a	n/a	n/a
2245329	PROB	n/a	LTP251	ltpFR	15	n/a	n/a	n/a	n/a	n/a	n/a	18	8	8	2	n/a	n/a	n/a	n/a	n/a
2248341	PROB	n/a	LTP251	ltpFR	15	n/a	n/a	n/a	n/a	n/a	n/a	14	6	5	3	n/a	n/a	n/a	n/a	n/a
2250853	PROB	n/a	LTP251	ltpFR	15	n/a	n/a	n/a	n/a	n/a	n/a	20	3	8	9	n/a	n/a	n/a	n/a	n/a
2252845	STOP	n/a	LTP251	ltpFR	15	n/a	n/a	n/a	n/a	n/a	n/a	n/a	n/a	n/a	n/a	n/a	n/a	n/a	n/a	n/a
2255663	REC_START	n/a	LTP251	ltpFR	15	9	n/a	n/a	n/a	n/a	n/a	n/a	0	0	0	n/a	n/a	n/a	n/a	n/a
2257248	REC_WORD	wordpools/wasnorm_wordpool_less_exclusions.txt	LTP251	ltpFR	15	9	0	BANANA	77	n/a	0	n/a	0	0	0	n/a	n/a	n/a	n/a	n/a
2258775	REC_WORD	wordpools/wasnorm_wordpool_less_exclusions.txt	LTP251	ltpFR	15	9	0	WINGS	1614	n/a	0	n/a	0	0	0	n/a	n/a	n/a	n/a	n/a
2260298	REC_WORD	wordpools/wasnorm_wordpool_less_exclusions.txt	LTP251	ltpFR	15	9	0	SCREWDRIVER	1255	n/a	0	n/a	0	0	0	n/a	n/a	n/a	n/a	n/a
2334578	WORD	wordpools/wasnorm_wordpool_less_exclusions.txt	LTP251	ltpFR	15	10	1	RAG	1160	n/a	0	n/a	0	0	0	1	0.412841796875	0.57763671875	upper	../fonts/zerothre.ttf
2338472	WORD	wordpools/wasnorm_wordpool_less_exclusions.txt	LTP251	ltpFR	15	10	1	COCKTAIL	338	n/a	0	n/a	0	0	0	1	0.412841796875	0.57763671875	upper	../fonts/zerothre.ttf
2342516	WORD	wordpools/wasnorm_wordpool_less_exclusions.txt	LTP251	ltpFR	15	10	1	REGISTER	1180	n/a	0	n/a	0	0	0	1	0.412841796875	0.57763671875	upper	../fonts/zerothre.ttf
2346394	WORD	wordpools/wasnorm_wordpool_less_exclusions.txt	LTP251	ltpFR	15	10	1	EWE	542	n/a	0	n/a	0	0	0	1	0.412841796875	0.57763671875	upper	../fonts/zerothre.ttf
2350255	WORD	wordpools/wasnorm_wordpool_less_exclusions.txt	LTP251	ltpFR	15	10	1	LAMB	797	n/a	1	n/a	0	0	0	1	0.412841796875	0.57763671875	upper	../fonts/zerothre.ttf
2354333	WORD	wordpools/wasnorm_wordpool_less_exclusions.txt	LTP251	ltpFR	15	10	0	DIME	466	n/a	1	n/a	0	0	0	0	0.5869140625	0.422607421875	lower	../fonts/amplitud.ttf
2358243	WORD	wordpools/wasnorm_wordpool_less_exclusions.txt	LTP251	ltpFR	15	10	0	WALLET	1583	n/a	1	n/a	0	0	0	0	0.5869140625	0.422607421875	lower	../fonts/amplitud.ttf
2362454	WORD	wordpools/wasnorm_wordpool_less_exclusions.txt	LTP251	ltpFR	15	10	0	HANDBAG	684	n/a	1	n/a	0	0	0	0	0.5869140625	0.422607421875	lower	../fonts/amplitud.ttf
2366580	WORD	wordpools/wasnorm_wordpool_less_exclusions.txt	LTP251	ltpFR	15	10	0	CRAB	397	n/a	1	n/a	0	0	0	0	0.5869140625	0.422607421875	lower	../fonts/amplitud.ttf
2370541	WORD	wordpools/wasnorm_wordpool_less_exclusions.txt	LTP251	ltpFR	15	10	0	VET	1560	n/a	0	n/a	0	0	0	0	0.5869140625	0.422607421875	lower	../fonts/amplitud.ttf
2374601	WORD	wordpools/wasnorm_wordpool_less_exclusions.txt	LTP251	ltpFR	15	10	0	FLOOR	581	n/a	1	n/a	0	0	0	0	0.5869140625	0.422607421875	lower	../fonts/amplitud.ttf
2378479	WORD	wordpools/wasnorm_wordpool_less_exclusions.txt	LTP251	ltpFR	15	10	1	DRYER	503	n/a	0	n/a	0	0	0	1	0.412841796875	0.57763671875	upper	../fonts/zerothre.ttf
2382391	WORD	wordpools/wasnorm_wordpool_less_exclusions.txt	LTP251	ltpFR	15	10	1	ROCKET	1202	n/a	0	n/a	0	0	0	1	0.412841796875	0.57763671875	upper	../fonts/zerothre.ttf
2386235	WORD	wordpools/wasnorm_wordpool_less_exclusions.txt	LTP251	ltpFR	15	10	1	DYNAMITE	511	n/a	0	n/a	0	0	0	1	0.412841796875	0.57763671875	upper	../fonts/zerothre.ttf
2390212	WORD	wordpools/wasnorm_wordpool_less_exclusions.txt	LTP251	ltpFR	15	10	0	LOBSTER	837	n/a	2	n/a	0	0	0	0	0.5869140625	0.422607421875	lower	../fonts/amplitud.ttf
2391444	KEY_MSG	n/a	LTP251	ltpFR	15	10	n/a	n/a	n/a	n/a	n/a	n/a	0	0	0	n/a	n/a	n/a	n/a	n/a
2394290	WORD	wordpools/wasnorm_wordpool_less_exclusions.txt	LTP251	ltpFR	15	10	0	OWL	992	n/a	1	n/a	0	0	0	0	0.5869140625	0.422607421875	lower	../fonts/amplitud.ttf
2397302	START	n/a	LTP251	ltpFR	15	n/a	n/a	n/a	n/a	n/a	n/a	n/a	n/a	n/a	n/a	n/a	n/a	n/a	n/a	n/a
2398482	PROB	n/a	LTP251	ltpFR	15	n/a	n/a	n/a	n/a	n/a	n/a	12	3	7	2	n/a	n/a	n/a	n/a	n/a
2400314	PROB	n/a	LTP251	ltpFR	15	n/a	n/a	n/a	n/a	n/a	n/a	17	7	4	6	n/a	n/a	n/a	n/a	n/a
2402344	PROB	n/a	LTP251	ltpFR	15	n/a	n/a	n/a	n/a	n/a	n/a	14	1	6	7	n/a	n/a	n/a	n/a	n/a
2404025	PROB	n/a	LTP251	ltpFR	15	n/a	n/a	n/a	n/a	n/a	n/a	18	9	7	2	n/a	n/a	n/a	n/a	n/a
2406603	PROB	n/a	LTP251	ltpFR	15	n/a	n/a	n/a	n/a	n/a	n/a	20	6	5	9	n/a	n/a	n/a	n/a	n/a
2408917	PROB	n/a	LTP251	ltpFR	15	n/a	n/a	n/a	n/a	n/a	n/a	14	7	4	2	n/a	n/a	n/a	n/a	n/a
2410498	PROB	n/a	LTP251	ltpFR	15	n/a	n/a	n/a	n/a	n/a	n/a	13	7	3	3	n/a	n/a	n/a	n/a	n/a
2412238	STOP	n/a	LTP251	ltpFR	15	n/a	n/a	n/a	n/a	n/a	n/a	n/a	n/a	n/a	n/a	n/a	n/a	n/a	n/a	n/a
2415209	REC_START	n/a	LTP251	ltpFR	15	10	n/a	n/a	n/a	n/a	n/a	n/a	0	0	0	n/a	n/a	n/a	n/a	n/a
2415938	REC_WORD	wordpools/wasnorm_wordpool_less_exclusions.txt	LTP251	ltpFR	15	10	1	EWE	542	n/a	0	n/a	0	0	0	n/a	n/a	n/a	n/a	n/a
2417494	REC_WORD	wordpools/wasnorm_wordpool_less_exclusions.txt	LTP251	ltpFR	15	10	1	LAMB	797	n/a	1	n/a	0	0	0	n/a	n/a	n/a	n/a	n/a
2418929	REC_WORD	wordpools/wasnorm_wordpool_less_exclusions.txt	LTP251	ltpFR	15	10	0	LOBSTER	837	n/a	2	n/a	0	0	0	n/a	n/a	n/a	n/a	n/a
2420590	REC_WORD	wordpools/wasnorm_wordpool_less_exclusions.txt	LTP251	ltpFR	15	10	0	WALLET	1583	n/a	1	n/a	0	0	0	n/a	n/a	n/a	n/a	n/a
2425931	REC_WORD	wordpools/wasnorm_wordpool_less_exclusions.txt	LTP251	ltpFR	15	10	0	OWL	992	n/a	1	n/a	0	0	0	n/a	n/a	n/a	n/a	n/a
2490811	REST_REWET	n/a	LTP251	ltpFR	15	10	n/a	n/a	n/a	n/a	n/a	n/a	0	0	0	n/a	n/a	n/a	n/a	n/a
2870843	WORD	wordpools/wasnorm_wordpool_less_exclusions.txt	LTP251	ltpFR	15	11	0	OCTOPUS	971	n/a	0	n/a	0	0	0	0	0.5869140625	0.422607421875	lower	../fonts/amplitud.ttf
2874721	WORD	wordpools/wasnorm_wordpool_less_exclusions.txt	LTP251	ltpFR	15	11	0	WOMAN	1620	n/a	1	n/a	0	0	0	0	0.5869140625	0.422607421875	lower	../fonts/amplitud.ttf
2878898	WORD	wordpools/wasnorm_wordpool_less_exclusions.txt	LTP251	ltpFR	15	11	0	MISTER	901	n/a	1	n/a	0	0	0	0	0.5869140625	0.422607421875	lower	../fonts/amplitud.ttf
2882959	WORD	wordpools/wasnorm_wordpool_less_exclusions.txt	LTP251	ltpFR	15	11	0	KNOT	788	n/a	0	n/a	0	0	0	0	0.5869140625	0.422607421875	lower	../fonts/amplitud.ttf
2887104	WORD	wordpools/wasnorm_wordpool_less_exclusions.txt	LTP251	ltpFR	15	11	1	AIRPLANE	12	n/a	0	n/a	0	0	0	1	0.412841796875	0.57763671875	upper	../fonts/zerothre.ttf
2891014	WORD	wordpools/wasnorm_wordpool_less_exclusions.txt	LTP251	ltpFR	15	11	1	VENT	1556	n/a	0	n/a	0	0	0	1	0.412841796875	0.57763671875	upper	../fonts/zerothre.ttf
2895225	WORD	wordpools/wasnorm_wordpool_less_exclusions.txt	LTP251	ltpFR	15	11	0	LIEUTENANT	818	n/a	1	n/a	0	0	0	0	0.5869140625	0.422607421875	lower	../fonts/amplitud.ttf
2899319	WORD	wordpools/wasnorm_wordpool_less_exclusions.txt	LTP251	ltpFR	15	11	0	INSTRUCTOR	741	n/a	1	n/a	0	0	0	0	0.5869140625	0.422607421875	lower	../fonts/amplitud.ttf
2903528	WORD	wordpools/wasnorm_wordpool_less_exclusions.txt	LTP251	ltpFR	15	11	1	OUTFIT	988	n/a	0	n/a	0	0	0	1	0.412841796875	0.57763671875	upper	../fonts/zerothre.ttf
2907440	WORD	wordpools/wasnorm_wordpool_less_exclusions.txt	LTP251	ltpFR	15	11	1	LAPEL	800	n/a	0	n/a	0	0	0	1	0.412841796875	0.57763671875	upper	../fonts/zerothre.ttf
2911417	WORD	wordpools/wasnorm_wordpool_less_exclusions.txt	LTP251	ltpFR	15	11	1	PAIL	1002	n/a	0	n/a	0	0	0	1	0.412841796875	0.57763671875	upper	../fonts/zerothre.ttf
2915461	WORD	wordpools/wasnorm_wordpool_less_exclusions.txt	LTP251	ltpFR	15	11	1	SWAMP	1416	n/a	0	n/a	0	0	0	1	0.412841796875	0.57763671875	upper	../fonts/zerothre.ttf
2919604	WORD	wordpools/wasnorm_wordpool_less_exclusions.txt	LTP251	ltpFR	15	11	1	BUTTON	207	n/a	0	n/a	0	0	0	1	0.412841796875	0.57763671875	upper	../fonts/zerothre.ttf
2923581	WORD	wordpools/wasnorm_wordpool_less_exclusions.txt	LTP251	ltpFR	15	11	1	FLY	586	n/a	0	n/a	0	0	0	1	0.412841796875	0.57763671875	upper	../fonts/zerothre.ttf
2927592	WORD	wordpools/wasnorm_wordpool_less_exclusions.txt	LTP251	ltpFR	15	11	0	GUARDIAN	668	n/a	1	n/a	0	0	0	0	0.5869140625	0.422607421875	lower	../fonts/amplitud.ttf
2931503	WORD	wordpools/wasnorm_wordpool_less_exclusions.txt	LTP251	ltpFR	15	11	0	SHRIMP	1297	n/a	0	n/a	0	0	0	0	0.5869140625	0.422607421875	lower	../fonts/amplitud.ttf
2937412	REC_START	n/a	LTP251	ltpFR	15	11	n/a	n/a	n/a	n/a	n/a	n/a	0	0	0	n/a	n/a	n/a	n/a	n/a
2938164	REC_WORD	wordpools/wasnorm_wordpool_less_exclusions.txt	LTP251	ltpFR	15	11	0	GUARDIAN	668	n/a	1	n/a	0	0	0	n/a	n/a	n/a	n/a	n/a
2939473	REC_WORD	wordpools/wasnorm_wordpool_less_exclusions.txt	LTP251	ltpFR	15	11	0	SHRIMP	1297	n/a	0	n/a	0	0	0	n/a	n/a	n/a	n/a	n/a
2941068	REC_WORD	wordpools/wasnorm_wordpool_less_exclusions.txt	LTP251	ltpFR	15	11	0	LIEUTENANT	818	n/a	1	n/a	0	0	0	n/a	n/a	n/a	n/a	n/a
2943163	REC_WORD	wordpools/wasnorm_wordpool_less_exclusions.txt	LTP251	ltpFR	15	11	1	FLY	586	n/a	0	n/a	0	0	0	n/a	n/a	n/a	n/a	n/a
3015943	WORD	wordpools/wasnorm_wordpool_less_exclusions.txt	LTP251	ltpFR	15	12	1	CATHEDRAL	260	n/a	0	n/a	0	0	0	1	0.412841796875	0.57763671875	upper	../fonts/zerothre.ttf
3019888	WORD	wordpools/wasnorm_wordpool_less_exclusions.txt	LTP251	ltpFR	15	12	1	BEAST	108	n/a	0	n/a	0	0	0	1	0.412841796875	0.57763671875	upper	../fonts/zerothre.ttf
3024099	WORD	wordpools/wasnorm_wordpool_less_exclusions.txt	LTP251	ltpFR	15	12	1	LASER	801	n/a	0	n/a	0	0	0	1	0.412841796875	0.57763671875	upper	../fonts/zerothre.ttf
3027975	WORD	wordpools/wasnorm_wordpool_less_exclusions.txt	LTP251	ltpFR	15	12	1	MONASTERY	907	n/a	1	n/a	0	0	0	1	0.412841796875	0.57763671875	upper	../fonts/zerothre.ttf
3032003	WORD	wordpools/wasnorm_wordpool_less_exclusions.txt	LTP251	ltpFR	15	12	1	TOWER	1490	n/a	0	n/a	0	0	0	1	0.412841796875	0.57763671875	upper	../fonts/zerothre.ttf
3036114	WORD	wordpools/wasnorm_wordpool_less_exclusions.txt	LTP251	ltpFR	15	12	1	DAM	436	n/a	0	n/a	0	0	0	1	0.412841796875	0.57763671875	upper	../fonts/zerothre.ttf
3040108	WORD	wordpools/wasnorm_wordpool_less_exclusions.txt	LTP251	ltpFR	15	12	1	RELISH	1183	n/a	0	n/a	0	0	0	1	0.412841796875	0.57763671875	upper	../fonts/zerothre.ttf
3044136	WORD	wordpools/wasnorm_wordpool_less_exclusions.txt	LTP251	ltpFR	15	12	1	FISH	571	n/a	0	n/a	0	0	0	1	0.412841796875	0.57763671875	upper	../fonts/zerothre.ttf
3048329	WORD	wordpools/wasnorm_wordpool_less_exclusions.txt	LTP251	ltpFR	15	12	1	SALMON	1227	n/a	0	n/a	0	0	0	1	0.412841796875	0.57763671875	upper	../fonts/zerothre.ttf
3052174	WORD	wordpools/wasnorm_wordpool_less_exclusions.txt	LTP251	ltpFR	15	12	1	TORTOISE	1486	n/a	1	n/a	0	0	0	1	0.412841796875	0.57763671875	upper	../fonts/zerothre.ttf
3056134	WORD	wordpools/wasnorm_wordpool_less_exclusions.txt	LTP251	ltpFR	15	12	1	VICTOR	1563	n/a	0	n/a	0	0	0	1	0.412841796875	0.57763671875	upper	../fonts/zerothre.ttf
3060345	WORD	wordpools/wasnorm_wordpool_less_exclusions.txt	LTP251	ltpFR	15	12	1	RADISH	1158	n/a	0	n/a	0	0	0	1	0.412841796875	0.57763671875	upper	../fonts/zerothre.ttf
3064339	WORD	wordpools/wasnorm_wordpool_less_exclusions.txt	LTP251	ltpFR	15	12	1	CHERRY	293	n/a	1	n/a	0	0	0	1	0.412841796875	0.57763671875	upper	../fonts/zerothre.ttf
3068233	WORD	wordpools/wasnorm_wordpool_less_exclusions.txt	LTP251	ltpFR	15	12	1	TOMATO	1476	n/a	1	n/a	0	0	0	1	0.412841796875	0.57763671875	upper	../fonts/zerothre.ttf
3072160	WORD	wordpools/wasnorm_wordpool_less_exclusions.txt	LTP251	ltpFR	15	12	1	CYCLONE	431	n/a	1	n/a	0	0	0	1	0.412841796875	0.57763671875	upper	../fonts/zerothre.ttf
3076055	WORD	wordpools/wasnorm_wordpool_less_exclusions.txt	LTP251	ltpFR	15	12	1	HORIZON	717	n/a	n/a	n/a	0	0	0	1	0.412841796875	0.57763671875	upper	../fonts/zerothre.ttf
3079083	SLOW_MSG	n/a	LTP251	ltpFR	15	12	n/a	n/a	n/a	n/a	n/a	n/a	0	0	0	n/a	n/a	n/a	n/a	n/a
3080614	START	n/a	LTP251	ltpFR	15	n/a	n/a	n/a	n/a	n/a	n/a	n/a	n/a	n/a	n/a	n/a	n/a	n/a	n/a	n/a
3081645	PROB	n/a	LTP251	ltpFR	15	n/a	n/a	n/a	n/a	n/a	n/a	20	7	8	5	n/a	n/a	n/a	n/a	n/a
3084043	PROB	n/a	LTP251	ltpFR	15	n/a	n/a	n/a	n/a	n/a	n/a	17	3	7	7	n/a	n/a	n/a	n/a	n/a
3086023	PROB	n/a	LTP251	ltpFR	15	n/a	n/a	n/a	n/a	n/a	n/a	17	7	9	2	n/a	n/a	n/a	n/a	n/a
3088143	STOP	n/a	LTP251	ltpFR	15	n/a	n/a	n/a	n/a	n/a	n/a	n/a	n/a	n/a	n/a	n/a	n/a	n/a	n/a	n/a
3090466	REC_START	n/a	LTP251	ltpFR	15	12	n/a	n/a	n/a	n/a	n/a	n/a	0	0	0	n/a	n/a	n/a	n/a	n/a
3091013	REC_WORD	wordpools/wasnorm_wordpool_less_exclusions.txt	LTP251	ltpFR	15	12	1	CHERRY	293	n/a	1	n/a	0	0	0	n/a	n/a	n/a	n/a	n/a
3093193	REC_WORD	wordpools/wasnorm_wordpool_less_exclusions.txt	LTP251	ltpFR	15	12	1	TOMATO	1476	n/a	1	n/a	0	0	0	n/a	n/a	n/a	n/a	n/a
3176305	REC_START	n/a	LTP251	ltpFR	15	n/a	n/a	n/a	n/a	n/a	n/a	n/a	0	0	0	n/a	n/a	n/a	n/a	n/a
3177392	FFR_REC_WORD	wordpools/wasnorm_wordpool_less_exclusions.txt	LTP251	ltpFR	15	n/a	0	STRAWBERRY	1391	n/a	0	n/a	0	0	0	n/a	n/a	n/a	n/a	n/a
3178964	FFR_REC_WORD	wordpools/wasnorm_wordpool_less_exclusions.txt	LTP251	ltpFR	15	n/a	n/a	LIME	823	n/a	n/a	n/a	0	0	0	n/a	n/a	n/a	n/a	n/a
3180643	FFR_REC_WORD	wordpools/wasnorm_wordpool_less_exclusions.txt	LTP251	ltpFR	15	n/a	0	LIEUTENANT	818	n/a	1	n/a	0	0	0	n/a	n/a	n/a	n/a	n/a
3182800	FFR_REC_WORD	wordpools/wasnorm_wordpool_less_exclusions.txt	LTP251	ltpFR	15	n/a	0	INN	739	n/a	1	n/a	0	0	0	n/a	n/a	n/a	n/a	n/a
3184277	FFR_REC_WORD	wordpools/wasnorm_wordpool_less_exclusions.txt	LTP251	ltpFR	15	n/a	n/a	SHEEP	1278	n/a	n/a	n/a	0	0	0	n/a	n/a	n/a	n/a	n/a
3185913	FFR_REC_WORD	wordpools/wasnorm_wordpool_less_exclusions.txt	LTP251	ltpFR	15	n/a	1	EWE	542	n/a	0	n/a	0	0	0	n/a	n/a	n/a	n/a	n/a
3188128	FFR_REC_WORD	wordpools/wasnorm_wordpool_less_exclusions.txt	LTP251	ltpFR	15	n/a	1	FLY	586	n/a	0	n/a	0	0	0	n/a	n/a	n/a	n/a	n/a
3190123	FFR_REC_WORD	wordpools/wasnorm_wordpool_less_exclusions.txt	LTP251	ltpFR	15	n/a	1	MONASTERY	907	n/a	1	n/a	0	0	0	n/a	n/a	n/a	n/a	n/a
3192124	FFR_REC_WORD	wordpools/wasnorm_wordpool_less_exclusions.txt	LTP251	ltpFR	15	n/a	1	TOWER	1490	n/a	0	n/a	0	0	0	n/a	n/a	n/a	n/a	n/a
3193750	FFR_REC_WORD	wordpools/wasnorm_wordpool_less_exclusions.txt	LTP251	ltpFR	15	n/a	1	CATHEDRAL	260	n/a	0	n/a	0	0	0	n/a	n/a	n/a	n/a	n/a
3197372	FFR_REC_WORD	wordpools/wasnorm_wordpool_less_exclusions.txt	LTP251	ltpFR	15	n/a	0	NOSE	957	n/a	0	n/a	0	0	0	n/a	n/a	n/a	n/a	n/a
3199138	FFR_REC_WORD	wordpools/wasnorm_wordpool_less_exclusions.txt	LTP251	ltpFR	15	n/a	n/a	ELBOW	520	n/a	n/a	n/a	0	0	0	n/a	n/a	n/a	n/a	n/a
3200769	FFR_REC_WORD	wordpools/wasnorm_wordpool_less_exclusions.txt	LTP251	ltpFR	15	n/a	0	WRIST	1626	n/a	1	n/a	0	0	0	n/a	n/a	n/a	n/a	n/a
3202341	FFR_REC_WORD	wordpools/wasnorm_wordpool_less_exclusions.txt	LTP251	ltpFR	15	n/a	n/a	FACE	547	n/a	n/a	n/a	0	0	0	n/a	n/a	n/a	n/a	n/a
3206416	FFR_REC_WORD	wordpools/wasnorm_wordpool_less_exclusions.txt	LTP251	ltpFR	15	n/a	1	DOCUMENT	479	n/a	0	n/a	0	0	0	n/a	n/a	n/a	n/a	n/a
3208486	FFR_REC_WORD	wordpools/wasnorm_wordpool_less_exclusions.txt	LTP251	ltpFR	15	n/a	1	SCROLL	1257	n/a	0	n/a	0	0	0	n/a	n/a	n/a	n/a	n/a
3212223	FFR_REC_WORD	wordpools/wasnorm_wordpool_less_exclusions.txt	LTP251	ltpFR	15	n/a	0	CORAL	378	n/a	1	n/a	0	0	0	n/a	n/a	n/a	n/a	n/a
3238633	FFR_REC_WORD	wordpools/wasnorm_wordpool_less_exclusions.txt	LTP251	ltpFR	15	n/a	n/a	LIPSTICK	829	n/a	n/a	n/a	0	0	0	n/a	n/a	n/a	n/a	n/a
3240274	FFR_REC_WORD	wordpools/wasnorm_wordpool_less_exclusions.txt	LTP251	ltpFR	15	n/a	0	MASCARA	875	n/a	0	n/a	0	0	0	n/a	n/a	n/a	n/a	n/a
3257615	FFR_REC_WORD	wordpools/wasnorm_wordpool_less_exclusions.txt	LTP251	ltpFR	15	n/a	1	HUMAN	726	n/a	0	n/a	0	0	0	n/a	n/a	n/a	n/a	n/a
3259256	FFR_REC_WORD	wordpools/wasnorm_wordpool_less_exclusions.txt	LTP251	ltpFR	15	n/a	1	SISTER	1312	n/a	0	n/a	0	0	0	n/a	n/a	n/a	n/a	n/a
3499174	REC_START	n/a	LTP251	ltpFR	15	1	n/a	n/a	n/a	n/a	n/a	n/a	0	0	0	n/a	n/a	n/a	n/a	n/a
3499206	RECOG_TARGET	n/a	LTP251	ltpFR	15	1	1	VICTOR	1563	5	0	n/a	0	0	0	n/a	n/a	n/a	n/a	n/a
3500330	RECOG_RESP	n/a	LTP251	ltpFR	15	1	1	VICTOR	1563	n/a	0	n/a	0	0	0	n/a	n/a	n/a	n/a	n/a
3501272	RECOG_CONF	n/a	LTP251	ltpFR	15	1	1	VICTOR	1563	5	0	n/a	0	0	0	n/a	n/a	n/a	n/a	n/a
3503067	RECOG_TARGET	n/a	LTP251	ltpFR	15	1	0	RAIL	1161	2	1	n/a	0	0	0	n/a	n/a	n/a	n/a	n/a
3503758	RECOG_RESP	n/a	LTP251	ltpFR	15	1	0	RAIL	1161	n/a	1	n/a	0	0	0	n/a	n/a	n/a	n/a	n/a
3504644	RECOG_CONF	n/a	LTP251	ltpFR	15	1	0	RAIL	1161	2	1	n/a	0	0	0	n/a	n/a	n/a	n/a	n/a
3506279	RECOG_TARGET	n/a	LTP251	ltpFR	15	1	0	ZOO	1637	2	1	n/a	0	0	0	n/a	n/a	n/a	n/a	n/a
3506856	RECOG_RESP	n/a	LTP251	ltpFR	15	1	0	ZOO	1637	n/a	1	n/a	0	0	0	n/a	n/a	n/a	n/a	n/a
3507768	RECOG_CONF	n/a	LTP251	ltpFR	15	1	0	ZOO	1637	2	1	n/a	0	0	0	n/a	n/a	n/a	n/a	n/a
3509391	RECOG_TARGET	n/a	LTP251	ltpFR	15	1	0	PENGUIN	1044	5	1	n/a	0	0	0	n/a	n/a	n/a	n/a	n/a
3510020	RECOG_RESP	n/a	LTP251	ltpFR	15	1	0	PENGUIN	1044	n/a	1	n/a	0	0	0	n/a	n/a	n/a	n/a	n/a
3510832	RECOG_CONF	n/a	LTP251	ltpFR	15	1	0	PENGUIN	1044	5	1	n/a	0	0	0	n/a	n/a	n/a	n/a	n/a
3512568	RECOG_TARGET	n/a	LTP251	ltpFR	15	1	1	SPOOL	1356	1	0	n/a	0	0	0	n/a	n/a	n/a	n/a	n/a
3513654	RECOG_RESP	n/a	LTP251	ltpFR	15	1	1	SPOOL	1356	n/a	0	n/a	0	0	0	n/a	n/a	n/a	n/a	n/a
3514517	RECOG_CONF	n/a	LTP251	ltpFR	15	1	1	SPOOL	1356	1	0	n/a	0	0	0	n/a	n/a	n/a	n/a	n/a
3516097	RECOG_TARGET	n/a	LTP251	ltpFR	15	1	0	NECKLACE	940	5	1	n/a	0	0	0	n/a	n/a	n/a	n/a	n/a
3516682	RECOG_RESP	n/a	LTP251	ltpFR	15	1	0	NECKLACE	940	n/a	1	n/a	0	0	0	n/a	n/a	n/a	n/a	n/a
3517522	RECOG_CONF	n/a	LTP251	ltpFR	15	1	0	NECKLACE	940	5	1	n/a	0	0	0	n/a	n/a	n/a	n/a	n/a
3519193	RECOG_TARGET	n/a	LTP251	ltpFR	15	1	0	CREATURE	403	1	1	n/a	0	0	0	n/a	n/a	n/a	n/a	n/a
3519852	RECOG_RESP	n/a	LTP251	ltpFR	15	1	0	CREATURE	403	n/a	1	n/a	0	0	0	n/a	n/a	n/a	n/a	n/a
3520730	RECOG_CONF	n/a	LTP251	ltpFR	15	1	0	CREATURE	403	1	1	n/a	0	0	0	n/a	n/a	n/a	n/a	n/a
3522455	RECOG_TARGET	n/a	LTP251	ltpFR	15	1	1	CATCHER	258	5	0	n/a	0	0	0	n/a	n/a	n/a	n/a	n/a
3523010	RECOG_RESP	n/a	LTP251	ltpFR	15	1	1	CATCHER	258	n/a	0	n/a	0	0	0	n/a	n/a	n/a	n/a	n/a
3523883	RECOG_CONF	n/a	LTP251	ltpFR	15	1	1	CATCHER	258	5	0	n/a	0	0	0	n/a	n/a	n/a	n/a	n/a
3525715	RECOG_LURE	n/a	LTP251	ltpFR	15	1	n/a	HUT	729	1	n/a	n/a	0	0	0	n/a	n/a	n/a	n/a	n/a
3526450	RECOG_RESP	n/a	LTP251	ltpFR	15	1	n/a	HUT	729	n/a	n/a	n/a	0	0	0	n/a	n/a	n/a	n/a	n/a
3527435	RECOG_CONF	n/a	LTP251	ltpFR	15	1	n/a	HUT	729	1	n/a	n/a	0	0	0	n/a	n/a	n/a	n/a	n/a
3529078	RECOG_TARGET	n/a	LTP251	ltpFR	15	1	0	FLOOR	581	1	1	n/a	0	0	0	n/a	n/a	n/a	n/a	n/a
3529940	RECOG_RESP	n/a	LTP251	ltpFR	15	1	0	FLOOR	581	n/a	1	n/a	0	0	0	n/a	n/a	n/a	n/a	n/a
3531146	RECOG_CONF	n/a	LTP251	ltpFR	15	1	0	FLOOR	581	1	1	n/a	0	0	0	n/a	n/a	n/a	n/a	n/a
3532821	RECOG_LURE	n/a	LTP251	ltpFR	15	1	n/a	JEEP	753	5	n/a	n/a	0	0	0	n/a	n/a	n/a	n/a	n/a
3533542	RECOG_RESP	n/a	LTP251	ltpFR	15	1	n/a	JEEP	753	n/a	n/a	n/a	0	0	0	n/a	n/a	n/a	n/a	n/a
3534460	RECOG_CONF	n/a	LTP251	ltpFR	15	1	n/a	JEEP	753	5	n/a	n/a	0	0	0	n/a	n/a	n/a	n/a	n/a
3536151	RECOG_TARGET	n/a	LTP251	ltpFR	15	1	0	BRANDY	169	5	0	n/a	0	0	0	n/a	n/a	n/a	n/a	n/a
3536890	RECOG_RESP	n/a	LTP251	ltpFR	15	1	0	BRANDY	169	n/a	0	n/a	0	0	0	n/a	n/a	n/a	n/a	n/a
3537823	RECOG_CONF	n/a	LTP251	ltpFR	15	1	0	BRANDY	169	5	0	n/a	0	0	0	n/a	n/a	n/a	n/a	n/a
3539545	RECOG_LURE	n/a	LTP251	ltpFR	15	1	n/a	BRIDGE	174	2	n/a	n/a	0	0	0	n/a	n/a	n/a	n/a	n/a
3540001	RECOG_RESP	n/a	LTP251	ltpFR	15	1	n/a	BRIDGE	174	n/a	n/a	n/a	0	0	0	n/a	n/a	n/a	n/a	n/a
3540984	RECOG_CONF	n/a	LTP251	ltpFR	15	1	n/a	BRIDGE	174	2	n/a	n/a	0	0	0	n/a	n/a	n/a	n/a	n/a
3542557	RECOG_TARGET	n/a	LTP251	ltpFR	15	1	1	TIE	1466	3	0	n/a	0	0	0	n/a	n/a	n/a	n/a	n/a
3543374	RECOG_RESP	n/a	LTP251	ltpFR	15	1	1	TIE	1466	n/a	0	n/a	0	0	0	n/a	n/a	n/a	n/a	n/a
3544326	RECOG_CONF	n/a	LTP251	ltpFR	15	1	1	TIE	1466	3	0	n/a	0	0	0	n/a	n/a	n/a	n/a	n/a
3546086	RECOG_TARGET	n/a	LTP251	ltpFR	15	1	0	RACCOON	1153	4	0	n/a	0	0	0	n/a	n/a	n/a	n/a	n/a
3546527	RECOG_RESP	n/a	LTP251	ltpFR	15	1	0	RACCOON	1153	n/a	0	n/a	0	0	0	n/a	n/a	n/a	n/a	n/a
3547431	RECOG_CONF	n/a	LTP251	ltpFR	15	1	0	RACCOON	1153	4	0	n/a	0	0	0	n/a	n/a	n/a	n/a	n/a
3549181	RECOG_TARGET	n/a	LTP251	ltpFR	15	1	0	VEIN	1554	5	0	n/a	0	0	0	n/a	n/a	n/a	n/a	n/a
3549639	RECOG_RESP	n/a	LTP251	ltpFR	15	1	0	VEIN	1554	n/a	0	n/a	0	0	0	n/a	n/a	n/a	n/a	n/a
3550462	RECOG_CONF	n/a	LTP251	ltpFR	15	1	0	VEIN	1554	5	0	n/a	0	0	0	n/a	n/a	n/a	n/a	n/a
