onset	duration	trial_type	sample	stim_file	subject	experiment	session	trial	task	item_name	item_num	recog_resp	recog_conf	resp	color_r	color_g	color_b	case	font
226.194	n/a	SESS_START	113097	n/a	LTP068	ltpFR	3	n/a	n/a	n/a	n/a	0	5	n/a	n/a	n/a	n/a	n/a	n/a
304.992	n/a	WORD	152496	wordpools/wasnorm_wordpool.txt	LTP068	ltpFR	3	1	0	CATCHER	258	0	3	1	0.57763671875	0.412841796875	1	lower	zerothre.ttf
308.842	n/a	WORD	154421	wordpools/wasnorm_wordpool.txt	LTP068	ltpFR	3	1	0	HOOP	716	1	n/a	1	0.57763671875	0.412841796875	1	lower	zerothre.ttf
312.868	n/a	WORD	156434	wordpools/wasnorm_wordpool.txt	LTP068	ltpFR	3	1	0	GIRAFFE	636	n/a	n/a	1	0.57763671875	0.412841796875	1	lower	zerothre.ttf
316.716	n/a	WORD	158358	wordpools/wasnorm_wordpool.txt	LTP068	ltpFR	3	1	0	FLANNEL	574	n/a	n/a	0	0.57763671875	0.412841796875	1	lower	zerothre.ttf
320.816	n/a	WORD	160408	wordpools/wasnorm_wordpool.txt	LTP068	ltpFR	3	1	0	MAGNET	855	n/a	n/a	0	0.57763671875	0.412841796875	1	lower	zerothre.ttf
324.832	n/a	WORD	162416	wordpools/wasnorm_wordpool.txt	LTP068	ltpFR	3	1	1	BLACKBOARD	133	n/a	n/a	0	0.422607421875	0.5869140625	0	upper	amplitud.ttf
328.774	n/a	WORD	164387	wordpools/wasnorm_wordpool.txt	LTP068	ltpFR	3	1	1	BULLETIN	195	n/a	n/a	0	0.422607421875	0.5869140625	0	upper	amplitud.ttf
332.94	n/a	WORD	166470	wordpools/wasnorm_wordpool.txt	LTP068	ltpFR	3	1	1	CATERPILLAR	259	n/a	n/a	1	0.422607421875	0.5869140625	0	upper	amplitud.ttf
336.784	n/a	WORD	168392	wordpools/wasnorm_wordpool.txt	LTP068	ltpFR	3	1	1	OX	994	n/a	n/a	1	0.422607421875	0.5869140625	0	upper	amplitud.ttf
340.942	n/a	WORD	170471	wordpools/wasnorm_wordpool.txt	LTP068	ltpFR	3	1	1	HATCHET	691	n/a	n/a	0	0.422607421875	0.5869140625	0	upper	amplitud.ttf
344.94	n/a	WORD	172470	wordpools/wasnorm_wordpool.txt	LTP068	ltpFR	3	1	0	PRINTER	1126	n/a	n/a	0	0.57763671875	0.412841796875	1	lower	zerothre.ttf
348.798	n/a	WORD	174399	wordpools/wasnorm_wordpool.txt	LTP068	ltpFR	3	1	0	AIRCRAFT	11	n/a	n/a	1	0.57763671875	0.412841796875	1	lower	zerothre.ttf
352.982	n/a	WORD	176491	wordpools/wasnorm_wordpool.txt	LTP068	ltpFR	3	1	0	STEWARDESS	1381	n/a	n/a	1	0.57763671875	0.412841796875	1	lower	zerothre.ttf
357.19	n/a	WORD	178595	wordpools/wasnorm_wordpool.txt	LTP068	ltpFR	3	1	1	SURGEON	1413	n/a	n/a	1	0.422607421875	0.5869140625	0	upper	amplitud.ttf
361.232	n/a	WORD	180616	wordpools/wasnorm_wordpool.txt	LTP068	ltpFR	3	1	1	PRIEST	1122	n/a	n/a	1	0.422607421875	0.5869140625	0	upper	amplitud.ttf
365.39	n/a	WORD	182695	wordpools/wasnorm_wordpool.txt	LTP068	ltpFR	3	1	1	ROACH	1195	n/a	n/a	1	0.422607421875	0.5869140625	0	upper	amplitud.ttf
371.39	n/a	REC_START	185695	n/a	LTP068	ltpFR	3	1	n/a	n/a	n/a	n/a	n/a	n/a	n/a	n/a	n/a	n/a	n/a
372.366	n/a	REC_WORD	186183	wordpools/wasnorm_wordpool.txt	LTP068	ltpFR	3	1	1	HATCHET	691	n/a	n/a	0	n/a	n/a	n/a	n/a	n/a
373.192	n/a	REC_WORD	186596	wordpools/wasnorm_wordpool.txt	LTP068	ltpFR	3	1	0	AIRCRAFT	11	n/a	n/a	1	n/a	n/a	n/a	n/a	n/a
374.07	n/a	REC_WORD	187035	wordpools/wasnorm_wordpool.txt	LTP068	ltpFR	3	1	0	PRINTER	1126	n/a	n/a	0	n/a	n/a	n/a	n/a	n/a
374.784	n/a	REC_WORD	187392	wordpools/wasnorm_wordpool.txt	LTP068	ltpFR	3	1	0	STEWARDESS	1381	n/a	n/a	1	n/a	n/a	n/a	n/a	n/a
376.01	n/a	REC_WORD	188005	wordpools/wasnorm_wordpool.txt	LTP068	ltpFR	3	1	1	PRIEST	1122	n/a	n/a	1	n/a	n/a	n/a	n/a	n/a
380.756	n/a	REC_WORD	190378	wordpools/wasnorm_wordpool.txt	LTP068	ltpFR	3	1	1	OX	994	n/a	n/a	1	n/a	n/a	n/a	n/a	n/a
381.43	n/a	REC_WORD	190715	wordpools/wasnorm_wordpool.txt	LTP068	ltpFR	3	1	1	CATERPILLAR	259	n/a	n/a	1	n/a	n/a	n/a	n/a	n/a
382.316	n/a	REC_WORD	191158	wordpools/wasnorm_wordpool.txt	LTP068	ltpFR	3	1	0	FLANNEL	574	n/a	n/a	0	n/a	n/a	n/a	n/a	n/a
383.126	n/a	REC_WORD	191563	wordpools/wasnorm_wordpool.txt	LTP068	ltpFR	3	1	0	MAGNET	855	n/a	n/a	0	n/a	n/a	n/a	n/a	n/a
383.858	n/a	REC_WORD	191929	wordpools/wasnorm_wordpool.txt	LTP068	ltpFR	3	1	0	HOOP	716	n/a	n/a	1	n/a	n/a	n/a	n/a	n/a
387.688	n/a	REC_WORD	193844	wordpools/wasnorm_wordpool.txt	LTP068	ltpFR	3	1	1	SURGEON	1413	n/a	n/a	1	n/a	n/a	n/a	n/a	n/a
463.93	n/a	WORD	231965	wordpools/wasnorm_wordpool.txt	LTP068	ltpFR	3	2	1	REEF	1177	n/a	n/a	1	0.422607421875	0.5869140625	0	upper	amplitud.ttf
468.062	n/a	WORD	234031	wordpools/wasnorm_wordpool.txt	LTP068	ltpFR	3	2	1	SINK	1309	n/a	n/a	0	0.422607421875	0.5869140625	0	upper	amplitud.ttf
472.104	n/a	WORD	236052	wordpools/wasnorm_wordpool.txt	LTP068	ltpFR	3	2	0	TANK	1432	n/a	n/a	1	0.57763671875	0.412841796875	1	lower	zerothre.ttf
476.17	n/a	WORD	238085	wordpools/wasnorm_wordpool.txt	LTP068	ltpFR	3	2	0	PANTHER	1009	n/a	n/a	1	0.57763671875	0.412841796875	1	lower	zerothre.ttf
480.254	n/a	WORD	240127	wordpools/wasnorm_wordpool.txt	LTP068	ltpFR	3	2	1	SAGE	1222	n/a	n/a	1	0.422607421875	0.5869140625	0	upper	amplitud.ttf
484.072	n/a	WORD	242036	wordpools/wasnorm_wordpool.txt	LTP068	ltpFR	3	2	1	OREGANO	983	n/a	n/a	0	0.422607421875	0.5869140625	0	upper	amplitud.ttf
488.03	n/a	WORD	244015	wordpools/wasnorm_wordpool.txt	LTP068	ltpFR	3	2	1	FELLOW	558	n/a	n/a	1	0.422607421875	0.5869140625	0	upper	amplitud.ttf
491.904	n/a	WORD	245952	wordpools/wasnorm_wordpool.txt	LTP068	ltpFR	3	2	1	TURTLE	1522	n/a	n/a	1	0.422607421875	0.5869140625	0	upper	amplitud.ttf
495.82	n/a	WORD	247910	wordpools/wasnorm_wordpool.txt	LTP068	ltpFR	3	2	1	FAIRY	549	n/a	n/a	1	0.422607421875	0.5869140625	0	upper	amplitud.ttf
499.978	n/a	WORD	249989	wordpools/wasnorm_wordpool.txt	LTP068	ltpFR	3	2	1	MAGICIAN	854	n/a	n/a	1	0.422607421875	0.5869140625	0	upper	amplitud.ttf
504.054	n/a	WORD	252027	wordpools/wasnorm_wordpool.txt	LTP068	ltpFR	3	2	0	ROOMMATE	1207	n/a	n/a	n/a	0.57763671875	0.412841796875	1	lower	zerothre.ttf
507.078	n/a	SLOW_MSG	253539	n/a	LTP068	ltpFR	3	2	n/a	n/a	n/a	n/a	n/a	n/a	n/a	n/a	n/a	n/a	n/a
509.512	n/a	WORD	254756	wordpools/wasnorm_wordpool.txt	LTP068	ltpFR	3	2	0	THIEF	1456	n/a	n/a	1	0.57763671875	0.412841796875	1	lower	zerothre.ttf
513.604	n/a	WORD	256802	wordpools/wasnorm_wordpool.txt	LTP068	ltpFR	3	2	0	SANDWICH	1232	n/a	n/a	0	0.57763671875	0.412841796875	1	lower	zerothre.ttf
517.744	n/a	WORD	258872	wordpools/wasnorm_wordpool.txt	LTP068	ltpFR	3	2	0	BOOTH	151	n/a	n/a	1	0.57763671875	0.412841796875	1	lower	zerothre.ttf
521.702	n/a	WORD	260851	wordpools/wasnorm_wordpool.txt	LTP068	ltpFR	3	2	0	SHELL	1281	n/a	n/a	1	0.57763671875	0.412841796875	1	lower	zerothre.ttf
525.56	n/a	WORD	262780	wordpools/wasnorm_wordpool.txt	LTP068	ltpFR	3	2	0	SALMON	1227	n/a	n/a	0	0.57763671875	0.412841796875	1	lower	zerothre.ttf
531.254	n/a	REC_START	265627	n/a	LTP068	ltpFR	3	2	n/a	n/a	n/a	n/a	n/a	n/a	n/a	n/a	n/a	n/a	n/a
532.166	n/a	REC_WORD	266083	wordpools/wasnorm_wordpool.txt	LTP068	ltpFR	3	2	0	THIEF	1456	n/a	n/a	1	n/a	n/a	n/a	n/a	n/a
533.084	n/a	REC_WORD	266542	wordpools/wasnorm_wordpool.txt	LTP068	ltpFR	3	2	0	SANDWICH	1232	n/a	n/a	0	n/a	n/a	n/a	n/a	n/a
534.174	n/a	REC_WORD	267087	wordpools/wasnorm_wordpool.txt	LTP068	ltpFR	3	2	n/a	BOOT	150	n/a	n/a	n/a	n/a	n/a	n/a	n/a	n/a
534.958	n/a	REC_WORD	267479	wordpools/wasnorm_wordpool.txt	LTP068	ltpFR	3	2	0	SHELL	1281	n/a	n/a	1	n/a	n/a	n/a	n/a	n/a
536.252	n/a	REC_WORD	268126	wordpools/wasnorm_wordpool.txt	LTP068	ltpFR	3	2	0	SALMON	1227	n/a	n/a	0	n/a	n/a	n/a	n/a	n/a
538.718	n/a	REC_WORD	269359	wordpools/wasnorm_wordpool.txt	LTP068	ltpFR	3	2	1	REEF	1177	n/a	n/a	1	n/a	n/a	n/a	n/a	n/a
542.198	n/a	REC_WORD	271099	wordpools/wasnorm_wordpool.txt	LTP068	ltpFR	3	2	1	MAGICIAN	854	n/a	n/a	1	n/a	n/a	n/a	n/a	n/a
543.414	n/a	REC_WORD	271707	wordpools/wasnorm_wordpool.txt	LTP068	ltpFR	3	2	1	FAIRY	549	n/a	n/a	1	n/a	n/a	n/a	n/a	n/a
563.794	n/a	REC_WORD	281897	wordpools/wasnorm_wordpool.txt	LTP068	ltpFR	3	2	0	TANK	1432	n/a	n/a	1	n/a	n/a	n/a	n/a	n/a
566.186	n/a	REC_WORD	283093	wordpools/wasnorm_wordpool.txt	LTP068	ltpFR	3	2	1	SAGE	1222	n/a	n/a	1	n/a	n/a	n/a	n/a	n/a
567.232	n/a	REC_WORD	283616	wordpools/wasnorm_wordpool.txt	LTP068	ltpFR	3	2	1	OREGANO	983	n/a	n/a	0	n/a	n/a	n/a	n/a	n/a
614.918	n/a	WORD	307459	wordpools/wasnorm_wordpool.txt	LTP068	ltpFR	3	3	-1	FLESH	579	n/a	n/a	-1	1.0	1.0	1	upper	Verdana.ttf
619.026	n/a	WORD	309513	wordpools/wasnorm_wordpool.txt	LTP068	ltpFR	3	3	-1	CLIPPERS	324	n/a	n/a	-1	1.0	1.0	1	upper	Verdana.ttf
623.216	n/a	WORD	311608	wordpools/wasnorm_wordpool.txt	LTP068	ltpFR	3	3	-1	ASSISTANT	48	n/a	n/a	-1	1.0	1.0	1	upper	Verdana.ttf
627.076	n/a	WORD	313538	wordpools/wasnorm_wordpool.txt	LTP068	ltpFR	3	3	-1	FLUTE	585	n/a	n/a	-1	1.0	1.0	1	upper	Verdana.ttf
631.092	n/a	WORD	315546	wordpools/wasnorm_wordpool.txt	LTP068	ltpFR	3	3	-1	WINDSHIELD	1612	n/a	n/a	-1	1.0	1.0	1	upper	Verdana.ttf
635.042	n/a	WORD	317521	wordpools/wasnorm_wordpool.txt	LTP068	ltpFR	3	3	-1	AUTOMOBILE	62	n/a	n/a	-1	1.0	1.0	1	upper	Verdana.ttf
639.116	n/a	WORD	319558	wordpools/wasnorm_wordpool.txt	LTP068	ltpFR	3	3	-1	LIMOUSINE	824	n/a	n/a	-1	1.0	1.0	1	upper	Verdana.ttf
643.124	n/a	WORD	321562	wordpools/wasnorm_wordpool.txt	LTP068	ltpFR	3	3	-1	PISTON	1076	n/a	n/a	-1	1.0	1.0	1	upper	Verdana.ttf
646.958	n/a	WORD	323479	wordpools/wasnorm_wordpool.txt	LTP068	ltpFR	3	3	-1	TICKET	1464	n/a	n/a	-1	1.0	1.0	1	upper	Verdana.ttf
651.108	n/a	WORD	325554	wordpools/wasnorm_wordpool.txt	LTP068	ltpFR	3	3	-1	CRAYON	401	n/a	n/a	-1	1.0	1.0	1	upper	Verdana.ttf
655.09	n/a	WORD	327545	wordpools/wasnorm_wordpool.txt	LTP068	ltpFR	3	3	-1	MARKER	870	n/a	n/a	-1	1.0	1.0	1	upper	Verdana.ttf
659.166	n/a	WORD	329583	wordpools/wasnorm_wordpool.txt	LTP068	ltpFR	3	3	-1	PEN	1041	n/a	n/a	-1	1.0	1.0	1	upper	Verdana.ttf
663.282	n/a	WORD	331641	wordpools/wasnorm_wordpool.txt	LTP068	ltpFR	3	3	-1	CELLO	268	n/a	n/a	-1	1.0	1.0	1	upper	Verdana.ttf
667.2	n/a	WORD	333600	wordpools/wasnorm_wordpool.txt	LTP068	ltpFR	3	3	-1	DRYER	503	n/a	n/a	-1	1.0	1.0	1	upper	Verdana.ttf
671.098	n/a	WORD	335549	wordpools/wasnorm_wordpool.txt	LTP068	ltpFR	3	3	-1	PRINCE	1124	n/a	n/a	-1	1.0	1.0	1	upper	Verdana.ttf
675.298	n/a	WORD	337649	wordpools/wasnorm_wordpool.txt	LTP068	ltpFR	3	3	-1	GOVERNOR	651	n/a	n/a	-1	1.0	1.0	1	upper	Verdana.ttf
681.042	n/a	REC_START	340521	n/a	LTP068	ltpFR	3	3	n/a	n/a	n/a	n/a	n/a	n/a	n/a	n/a	n/a	n/a	n/a
681.892	n/a	REC_WORD	340946	wordpools/wasnorm_wordpool.txt	LTP068	ltpFR	3	3	-1	PEN	1041	n/a	n/a	-1	n/a	n/a	n/a	n/a	n/a
682.808	n/a	REC_WORD	341404	wordpools/wasnorm_wordpool.txt	LTP068	ltpFR	3	3	-1	CELLO	268	n/a	n/a	-1	n/a	n/a	n/a	n/a	n/a
684.324	n/a	REC_WORD	342162	wordpools/wasnorm_wordpool.txt	LTP068	ltpFR	3	3	-1	PRINCE	1124	n/a	n/a	-1	n/a	n/a	n/a	n/a	n/a
685.566	n/a	REC_WORD	342783	wordpools/wasnorm_wordpool.txt	LTP068	ltpFR	3	3	-1	GOVERNOR	651	n/a	n/a	-1	n/a	n/a	n/a	n/a	n/a
695.664	n/a	REC_WORD	347832	wordpools/wasnorm_wordpool.txt	LTP068	ltpFR	3	3	-1	FLESH	579	n/a	n/a	-1	n/a	n/a	n/a	n/a	n/a
698.372	n/a	REC_WORD	349186	wordpools/wasnorm_wordpool.txt	LTP068	ltpFR	3	3	1	HATCHET	691	n/a	n/a	0	n/a	n/a	n/a	n/a	n/a
704.34	n/a	REC_WORD	352170	wordpools/wasnorm_wordpool.txt	LTP068	ltpFR	3	3	-1	PISTON	1076	n/a	n/a	-1	n/a	n/a	n/a	n/a	n/a
706.034	n/a	REC_WORD	353017	wordpools/wasnorm_wordpool.txt	LTP068	ltpFR	3	3	-1	LIMOUSINE	824	n/a	n/a	-1	n/a	n/a	n/a	n/a	n/a
719.088	n/a	REC_WORD	359544	wordpools/wasnorm_wordpool.txt	LTP068	ltpFR	3	3	-1	CLIPPERS	324	n/a	n/a	-1	n/a	n/a	n/a	n/a	n/a
760.03	n/a	WORD	380015	wordpools/wasnorm_wordpool.txt	LTP068	ltpFR	3	4	1	FUDGE	611	n/a	n/a	0	0.422607421875	0.5869140625	0	upper	amplitud.ttf
764.064	n/a	WORD	382032	wordpools/wasnorm_wordpool.txt	LTP068	ltpFR	3	4	1	COTTAGE	384	n/a	n/a	0	0.422607421875	0.5869140625	0	upper	amplitud.ttf
767.996	n/a	WORD	383998	wordpools/wasnorm_wordpool.txt	LTP068	ltpFR	3	4	1	CONDUCTOR	362	n/a	n/a	1	0.422607421875	0.5869140625	0	upper	amplitud.ttf
771.954	n/a	WORD	385977	wordpools/wasnorm_wordpool.txt	LTP068	ltpFR	3	4	0	ARM	38	n/a	n/a	0	0.57763671875	0.412841796875	1	lower	zerothre.ttf
776.022	n/a	WORD	388011	wordpools/wasnorm_wordpool.txt	LTP068	ltpFR	3	4	0	PORCH	1106	n/a	n/a	1	0.57763671875	0.412841796875	1	lower	zerothre.ttf
779.996	n/a	WORD	389998	wordpools/wasnorm_wordpool.txt	LTP068	ltpFR	3	4	0	BAKER	71	n/a	n/a	1	0.57763671875	0.412841796875	1	lower	zerothre.ttf
784.004	n/a	WORD	392002	wordpools/wasnorm_wordpool.txt	LTP068	ltpFR	3	4	0	SHORTCAKE	1292	n/a	n/a	0	0.57763671875	0.412841796875	1	lower	zerothre.ttf
787.83	n/a	WORD	393915	wordpools/wasnorm_wordpool.txt	LTP068	ltpFR	3	4	0	PROFESSOR	1131	n/a	n/a	1	0.57763671875	0.412841796875	1	lower	zerothre.ttf
791.862	n/a	WORD	395931	wordpools/wasnorm_wordpool.txt	LTP068	ltpFR	3	4	0	PUPIL	1143	n/a	n/a	0	0.57763671875	0.412841796875	1	lower	zerothre.ttf
795.72	n/a	WORD	397860	wordpools/wasnorm_wordpool.txt	LTP068	ltpFR	3	4	1	TRUCK	1512	n/a	n/a	0	0.422607421875	0.5869140625	0	upper	amplitud.ttf
799.57	n/a	WORD	399785	wordpools/wasnorm_wordpool.txt	LTP068	ltpFR	3	4	1	TECHNICIAN	1443	n/a	n/a	1	0.422607421875	0.5869140625	0	upper	amplitud.ttf
803.554	n/a	WORD	401777	wordpools/wasnorm_wordpool.txt	LTP068	ltpFR	3	4	1	MULE	931	n/a	n/a	1	0.422607421875	0.5869140625	0	upper	amplitud.ttf
807.512	n/a	WORD	403756	wordpools/wasnorm_wordpool.txt	LTP068	ltpFR	3	4	1	POTATO	1115	n/a	n/a	1	0.422607421875	0.5869140625	0	upper	amplitud.ttf
811.512	n/a	WORD	405756	wordpools/wasnorm_wordpool.txt	LTP068	ltpFR	3	4	1	THIGH	1457	n/a	n/a	0	0.422607421875	0.5869140625	0	upper	amplitud.ttf
815.588	n/a	WORD	407794	wordpools/wasnorm_wordpool.txt	LTP068	ltpFR	3	4	0	TEAM	1441	n/a	n/a	1	0.57763671875	0.412841796875	1	lower	zerothre.ttf
819.554	n/a	WORD	409777	wordpools/wasnorm_wordpool.txt	LTP068	ltpFR	3	4	0	WINGS	1614	n/a	n/a	0	0.57763671875	0.412841796875	1	lower	zerothre.ttf
825.378	n/a	REC_START	412689	n/a	LTP068	ltpFR	3	4	n/a	n/a	n/a	n/a	n/a	n/a	n/a	n/a	n/a	n/a	n/a
826.352	n/a	REC_WORD	413176	wordpools/wasnorm_wordpool.txt	LTP068	ltpFR	3	4	1	MULE	931	n/a	n/a	1	n/a	n/a	n/a	n/a	n/a
827.192	n/a	REC_WORD	413596	wordpools/wasnorm_wordpool.txt	LTP068	ltpFR	3	4	1	POTATO	1115	n/a	n/a	1	n/a	n/a	n/a	n/a	n/a
828.416	n/a	REC_WORD	414208	wordpools/wasnorm_wordpool.txt	LTP068	ltpFR	3	4	1	THIGH	1457	n/a	n/a	0	n/a	n/a	n/a	n/a	n/a
829.66	n/a	REC_WORD	414830	wordpools/wasnorm_wordpool.txt	LTP068	ltpFR	3	4	0	TEAM	1441	n/a	n/a	1	n/a	n/a	n/a	n/a	n/a
831.258	n/a	REC_WORD	415629	wordpools/wasnorm_wordpool.txt	LTP068	ltpFR	3	4	0	WINGS	1614	n/a	n/a	0	n/a	n/a	n/a	n/a	n/a
845.388	n/a	REC_WORD	422694	wordpools/wasnorm_wordpool.txt	LTP068	ltpFR	3	4	1	TECHNICIAN	1443	n/a	n/a	1	n/a	n/a	n/a	n/a	n/a
860.424	n/a	REC_WORD	430212	wordpools/wasnorm_wordpool.txt	LTP068	ltpFR	3	4	0	ARM	38	n/a	n/a	0	n/a	n/a	n/a	n/a	n/a
863.196	n/a	REC_WORD	431598	wordpools/wasnorm_wordpool.txt	LTP068	ltpFR	3	4	1	POTATO	1115	n/a	n/a	1	n/a	n/a	n/a	n/a	n/a
904.434	n/a	WORD	452217	wordpools/wasnorm_wordpool.txt	LTP068	ltpFR	3	5	-1	PARROT	1015	n/a	n/a	-1	1.0	1.0	1	upper	Verdana.ttf
908.384	n/a	WORD	454192	wordpools/wasnorm_wordpool.txt	LTP068	ltpFR	3	5	-1	DOLL	481	n/a	n/a	-1	1.0	1.0	1	upper	Verdana.ttf
912.526	n/a	WORD	456263	wordpools/wasnorm_wordpool.txt	LTP068	ltpFR	3	5	-1	MOTH	920	n/a	n/a	-1	1.0	1.0	1	upper	Verdana.ttf
916.66	n/a	WORD	458330	wordpools/wasnorm_wordpool.txt	LTP068	ltpFR	3	5	-1	DOCTOR	478	n/a	n/a	-1	1.0	1.0	1	upper	Verdana.ttf
920.71	n/a	WORD	460355	wordpools/wasnorm_wordpool.txt	LTP068	ltpFR	3	5	-1	NEST	945	n/a	n/a	-1	1.0	1.0	1	upper	Verdana.ttf
924.884	n/a	WORD	462442	wordpools/wasnorm_wordpool.txt	LTP068	ltpFR	3	5	-1	OTTER	986	n/a	n/a	-1	1.0	1.0	1	upper	Verdana.ttf
928.8	n/a	WORD	464400	wordpools/wasnorm_wordpool.txt	LTP068	ltpFR	3	5	-1	FUR	615	n/a	n/a	-1	1.0	1.0	1	upper	Verdana.ttf
933.0	n/a	WORD	466500	wordpools/wasnorm_wordpool.txt	LTP068	ltpFR	3	5	-1	CASHEW	253	n/a	n/a	-1	1.0	1.0	1	upper	Verdana.ttf
936.826	n/a	WORD	468413	wordpools/wasnorm_wordpool.txt	LTP068	ltpFR	3	5	-1	VICTOR	1563	n/a	n/a	-1	1.0	1.0	1	upper	Verdana.ttf
940.91	n/a	WORD	470455	wordpools/wasnorm_wordpool.txt	LTP068	ltpFR	3	5	-1	MEDAL	885	n/a	n/a	-1	1.0	1.0	1	upper	Verdana.ttf
944.876	n/a	WORD	472438	wordpools/wasnorm_wordpool.txt	LTP068	ltpFR	3	5	-1	STAPLER	1372	n/a	n/a	-1	1.0	1.0	1	upper	Verdana.ttf
948.876	n/a	WORD	474438	wordpools/wasnorm_wordpool.txt	LTP068	ltpFR	3	5	-1	STAPLE	1371	n/a	n/a	-1	1.0	1.0	1	upper	Verdana.ttf
952.8	n/a	WORD	476400	wordpools/wasnorm_wordpool.txt	LTP068	ltpFR	3	5	-1	CUE	422	n/a	n/a	-1	1.0	1.0	1	upper	Verdana.ttf
956.808	n/a	WORD	478404	wordpools/wasnorm_wordpool.txt	LTP068	ltpFR	3	5	-1	MEDICINE	886	n/a	n/a	-1	1.0	1.0	1	upper	Verdana.ttf
960.834	n/a	WORD	480417	wordpools/wasnorm_wordpool.txt	LTP068	ltpFR	3	5	-1	PLANET	1082	n/a	n/a	-1	1.0	1.0	1	upper	Verdana.ttf
964.724	n/a	WORD	482362	wordpools/wasnorm_wordpool.txt	LTP068	ltpFR	3	5	-1	WHALE	1601	n/a	n/a	-1	1.0	1.0	1	upper	Verdana.ttf
970.558	n/a	REC_START	485279	n/a	LTP068	ltpFR	3	5	n/a	n/a	n/a	n/a	n/a	n/a	n/a	n/a	n/a	n/a	n/a
971.074	n/a	REC_WORD	485537	wordpools/wasnorm_wordpool.txt	LTP068	ltpFR	3	5	-1	MEDICINE	886	n/a	n/a	-1	n/a	n/a	n/a	n/a	n/a
971.65	n/a	REC_WORD	485825	wordpools/wasnorm_wordpool.txt	LTP068	ltpFR	3	5	-1	PLANET	1082	n/a	n/a	-1	n/a	n/a	n/a	n/a	n/a
972.362	n/a	REC_WORD	486181	wordpools/wasnorm_wordpool.txt	LTP068	ltpFR	3	5	-1	WHALE	1601	n/a	n/a	-1	n/a	n/a	n/a	n/a	n/a
973.02	n/a	REC_WORD	486510	wordpools/wasnorm_wordpool.txt	LTP068	ltpFR	3	5	-1	STAPLE	1371	n/a	n/a	-1	n/a	n/a	n/a	n/a	n/a
973.784	n/a	REC_WORD	486892	wordpools/wasnorm_wordpool.txt	LTP068	ltpFR	3	5	-1	STAPLER	1372	n/a	n/a	-1	n/a	n/a	n/a	n/a	n/a
975.376	n/a	REC_WORD	487688	wordpools/wasnorm_wordpool.txt	LTP068	ltpFR	3	5	-1	CUE	422	n/a	n/a	-1	n/a	n/a	n/a	n/a	n/a
976.284	n/a	REC_WORD	488142	wordpools/wasnorm_wordpool.txt	LTP068	ltpFR	3	5	-1	CASHEW	253	n/a	n/a	-1	n/a	n/a	n/a	n/a	n/a
1053.314	n/a	WORD	526657	wordpools/wasnorm_wordpool.txt	LTP068	ltpFR	3	6	-1	TREAD	1499	n/a	n/a	-1	1.0	1.0	1	upper	Verdana.ttf
1057.14	n/a	WORD	528570	wordpools/wasnorm_wordpool.txt	LTP068	ltpFR	3	6	-1	HOME	712	n/a	n/a	-1	1.0	1.0	1	upper	Verdana.ttf
1061.296	n/a	WORD	530648	wordpools/wasnorm_wordpool.txt	LTP068	ltpFR	3	6	-1	BANDANNA	80	n/a	n/a	-1	1.0	1.0	1	upper	Verdana.ttf
1065.448	n/a	WORD	532724	wordpools/wasnorm_wordpool.txt	LTP068	ltpFR	3	6	-1	SALOON	1228	n/a	n/a	-1	1.0	1.0	1	upper	Verdana.ttf
1069.422	n/a	WORD	534711	wordpools/wasnorm_wordpool.txt	LTP068	ltpFR	3	6	-1	SKUNK	1321	n/a	n/a	-1	1.0	1.0	1	upper	Verdana.ttf
1073.488	n/a	WORD	536744	wordpools/wasnorm_wordpool.txt	LTP068	ltpFR	3	6	-1	VINEGAR	1569	n/a	n/a	-1	1.0	1.0	1	upper	Verdana.ttf
1077.58	n/a	WORD	538790	wordpools/wasnorm_wordpool.txt	LTP068	ltpFR	3	6	-1	GARAGE	621	n/a	n/a	-1	1.0	1.0	1	upper	Verdana.ttf
1081.688	n/a	WORD	540844	wordpools/wasnorm_wordpool.txt	LTP068	ltpFR	3	6	-1	TIDE	1465	n/a	n/a	-1	1.0	1.0	1	upper	Verdana.ttf
1085.864	n/a	WORD	542932	wordpools/wasnorm_wordpool.txt	LTP068	ltpFR	3	6	-1	BLENDER	136	n/a	n/a	-1	1.0	1.0	1	upper	Verdana.ttf
1089.746	n/a	WORD	544873	wordpools/wasnorm_wordpool.txt	LTP068	ltpFR	3	6	-1	WAX	1597	n/a	n/a	-1	1.0	1.0	1	upper	Verdana.ttf
1093.58	n/a	WORD	546790	wordpools/wasnorm_wordpool.txt	LTP068	ltpFR	3	6	-1	STEM	1376	n/a	n/a	-1	1.0	1.0	1	upper	Verdana.ttf
1097.496	n/a	WORD	548748	wordpools/wasnorm_wordpool.txt	LTP068	ltpFR	3	6	-1	MAT	877	n/a	n/a	-1	1.0	1.0	1	upper	Verdana.ttf
1101.346	n/a	WORD	550673	wordpools/wasnorm_wordpool.txt	LTP068	ltpFR	3	6	-1	STOOL	1386	n/a	n/a	-1	1.0	1.0	1	upper	Verdana.ttf
1105.362	n/a	WORD	552681	wordpools/wasnorm_wordpool.txt	LTP068	ltpFR	3	6	-1	TABLE	1426	n/a	n/a	-1	1.0	1.0	1	upper	Verdana.ttf
1109.372	n/a	WORD	554686	wordpools/wasnorm_wordpool.txt	LTP068	ltpFR	3	6	-1	SWAMP	1416	n/a	n/a	-1	1.0	1.0	1	upper	Verdana.ttf
1113.496	n/a	WORD	556748	wordpools/wasnorm_wordpool.txt	LTP068	ltpFR	3	6	-1	BRAKE	166	n/a	n/a	-1	1.0	1.0	1	upper	Verdana.ttf
1119.354	n/a	REC_START	559677	n/a	LTP068	ltpFR	3	6	n/a	n/a	n/a	n/a	n/a	n/a	n/a	n/a	n/a	n/a	n/a
1123.948	n/a	REC_WORD	561974	wordpools/wasnorm_wordpool.txt	LTP068	ltpFR	3	6	-1	STEM	1376	n/a	n/a	-1	n/a	n/a	n/a	n/a	n/a
1124.934	n/a	REC_WORD	562467	wordpools/wasnorm_wordpool.txt	LTP068	ltpFR	3	6	-1	MAT	877	n/a	n/a	-1	n/a	n/a	n/a	n/a	n/a
1125.416	n/a	REC_WORD	562708	wordpools/wasnorm_wordpool.txt	LTP068	ltpFR	3	6	-1	TABLE	1426	n/a	n/a	-1	n/a	n/a	n/a	n/a	n/a
1129.2	n/a	REC_WORD	564600	wordpools/wasnorm_wordpool.txt	LTP068	ltpFR	3	6	-1	BLENDER	136	n/a	n/a	-1	n/a	n/a	n/a	n/a	n/a
1199.786	n/a	WORD	599893	wordpools/wasnorm_wordpool.txt	LTP068	ltpFR	3	7	1	TOMATO	1476	n/a	n/a	1	0.422607421875	0.5869140625	0	upper	amplitud.ttf
1203.744	n/a	WORD	601872	wordpools/wasnorm_wordpool.txt	LTP068	ltpFR	3	7	1	HORSE	719	n/a	n/a	1	0.422607421875	0.5869140625	0	upper	amplitud.ttf
1207.594	n/a	WORD	603797	wordpools/wasnorm_wordpool.txt	LTP068	ltpFR	3	7	0	COWBOY	395	n/a	n/a	1	0.57763671875	0.412841796875	1	lower	zerothre.ttf
1211.76	n/a	WORD	605880	wordpools/wasnorm_wordpool.txt	LTP068	ltpFR	3	7	0	SOFTBALL	1343	n/a	n/a	0	0.57763671875	0.412841796875	1	lower	zerothre.ttf
1215.96	n/a	WORD	607980	wordpools/wasnorm_wordpool.txt	LTP068	ltpFR	3	7	0	BANKER	84	n/a	n/a	1	0.57763671875	0.412841796875	1	lower	zerothre.ttf
1219.96	n/a	WORD	609980	wordpools/wasnorm_wordpool.txt	LTP068	ltpFR	3	7	0	NOOSE	956	n/a	n/a	0	0.57763671875	0.412841796875	1	lower	zerothre.ttf
1223.81	n/a	WORD	611905	wordpools/wasnorm_wordpool.txt	LTP068	ltpFR	3	7	0	BOWL	158	n/a	n/a	0	0.57763671875	0.412841796875	1	lower	zerothre.ttf
1227.91	n/a	WORD	613955	wordpools/wasnorm_wordpool.txt	LTP068	ltpFR	3	7	1	SANDPAPER	1231	n/a	n/a	0	0.422607421875	0.5869140625	0	upper	amplitud.ttf
1231.852	n/a	WORD	615926	wordpools/wasnorm_wordpool.txt	LTP068	ltpFR	3	7	1	RAG	1160	n/a	n/a	0	0.422607421875	0.5869140625	0	upper	amplitud.ttf
1235.668	n/a	WORD	617834	wordpools/wasnorm_wordpool.txt	LTP068	ltpFR	3	7	0	HIP	710	n/a	n/a	1	0.57763671875	0.412841796875	1	lower	zerothre.ttf
1239.844	n/a	WORD	619922	wordpools/wasnorm_wordpool.txt	LTP068	ltpFR	3	7	0	UNIVERSE	1540	n/a	n/a	1	0.57763671875	0.412841796875	1	lower	zerothre.ttf
1243.752	n/a	WORD	621876	wordpools/wasnorm_wordpool.txt	LTP068	ltpFR	3	7	0	GLOBE	641	n/a	n/a	1	0.57763671875	0.412841796875	1	lower	zerothre.ttf
1247.718	n/a	WORD	623859	wordpools/wasnorm_wordpool.txt	LTP068	ltpFR	3	7	1	PASSENGER	1020	n/a	n/a	1	0.422607421875	0.5869140625	0	upper	amplitud.ttf
1251.618	n/a	WORD	625809	wordpools/wasnorm_wordpool.txt	LTP068	ltpFR	3	7	1	MARROW	872	n/a	n/a	0	0.422607421875	0.5869140625	0	upper	amplitud.ttf
1255.492	n/a	WORD	627746	wordpools/wasnorm_wordpool.txt	LTP068	ltpFR	3	7	1	CROOK	412	n/a	n/a	1	0.422607421875	0.5869140625	0	upper	amplitud.ttf
1259.45	n/a	WORD	629725	wordpools/wasnorm_wordpool.txt	LTP068	ltpFR	3	7	1	VALVE	1546	n/a	n/a	0	0.422607421875	0.5869140625	0	upper	amplitud.ttf
1265.31	n/a	REC_START	632655	n/a	LTP068	ltpFR	3	7	n/a	n/a	n/a	n/a	n/a	n/a	n/a	n/a	n/a	n/a	n/a
1266.03	n/a	REC_WORD	633015	wordpools/wasnorm_wordpool.txt	LTP068	ltpFR	3	7	1	MARROW	872	n/a	n/a	0	n/a	n/a	n/a	n/a	n/a
1266.848	n/a	REC_WORD	633424	wordpools/wasnorm_wordpool.txt	LTP068	ltpFR	3	7	1	CROOK	412	n/a	n/a	1	n/a	n/a	n/a	n/a	n/a
1267.504	n/a	REC_WORD_VV	633752	wordpools/wasnorm_wordpool.txt	LTP068	ltpFR	3	7	n/a	<>	-1	n/a	n/a	n/a	n/a	n/a	n/a	n/a	n/a
1267.934	n/a	REC_WORD	633967	wordpools/wasnorm_wordpool.txt	LTP068	ltpFR	3	7	1	VALVE	1546	n/a	n/a	0	n/a	n/a	n/a	n/a	n/a
1268.832	n/a	REC_WORD	634416	wordpools/wasnorm_wordpool.txt	LTP068	ltpFR	3	7	0	NOOSE	956	n/a	n/a	0	n/a	n/a	n/a	n/a	n/a
1269.968	n/a	REC_WORD	634984	wordpools/wasnorm_wordpool.txt	LTP068	ltpFR	3	7	0	BOWL	158	n/a	n/a	0	n/a	n/a	n/a	n/a	n/a
1270.584	n/a	REC_WORD	635292	wordpools/wasnorm_wordpool.txt	LTP068	ltpFR	3	7	0	HIP	710	n/a	n/a	1	n/a	n/a	n/a	n/a	n/a
1272.656	n/a	REC_WORD	636328	wordpools/wasnorm_wordpool.txt	LTP068	ltpFR	3	7	0	UNIVERSE	1540	n/a	n/a	1	n/a	n/a	n/a	n/a	n/a
1276.886	n/a	REC_WORD	638443	wordpools/wasnorm_wordpool.txt	LTP068	ltpFR	3	7	1	HORSE	719	n/a	n/a	1	n/a	n/a	n/a	n/a	n/a
1279.86	n/a	REC_WORD	639930	wordpools/wasnorm_wordpool.txt	LTP068	ltpFR	3	7	1	SANDPAPER	1231	n/a	n/a	0	n/a	n/a	n/a	n/a	n/a
1283.084	n/a	REC_WORD	641542	wordpools/wasnorm_wordpool.txt	LTP068	ltpFR	3	7	1	VALVE	1546	n/a	n/a	0	n/a	n/a	n/a	n/a	n/a
1284.084	n/a	REC_WORD_VV	642042	wordpools/wasnorm_wordpool.txt	LTP068	ltpFR	3	7	n/a	<>	-1	n/a	n/a	n/a	n/a	n/a	n/a	n/a	n/a
1346.198	n/a	WORD	673099	wordpools/wasnorm_wordpool.txt	LTP068	ltpFR	3	8	1	DUSTPAN	509	n/a	n/a	2	0.422607421875	0.5869140625	0	upper	amplitud.ttf
1347.416	n/a	KEY_MSG	673708	n/a	LTP068	ltpFR	3	8	n/a	n/a	n/a	n/a	n/a	n/a	n/a	n/a	n/a	n/a	n/a
1350.106	n/a	WORD	675053	wordpools/wasnorm_wordpool.txt	LTP068	ltpFR	3	8	1	TOOTHPASTE	1483	n/a	n/a	0	0.422607421875	0.5869140625	0	upper	amplitud.ttf
1354.14	n/a	WORD	677070	wordpools/wasnorm_wordpool.txt	LTP068	ltpFR	3	8	1	WALRUS	1585	n/a	n/a	1	0.422607421875	0.5869140625	0	upper	amplitud.ttf
1358.264	n/a	WORD	679132	wordpools/wasnorm_wordpool.txt	LTP068	ltpFR	3	8	1	DIVER	476	n/a	n/a	1	0.422607421875	0.5869140625	0	upper	amplitud.ttf
1362.448	n/a	WORD	681224	wordpools/wasnorm_wordpool.txt	LTP068	ltpFR	3	8	1	BROOM	178	n/a	n/a	0	0.422607421875	0.5869140625	0	upper	amplitud.ttf
1366.348	n/a	WORD	683174	wordpools/wasnorm_wordpool.txt	LTP068	ltpFR	3	8	1	NOSE	957	n/a	n/a	0	0.422607421875	0.5869140625	0	upper	amplitud.ttf
1370.39	n/a	WORD	685195	wordpools/wasnorm_wordpool.txt	LTP068	ltpFR	3	8	1	PILOT	1070	n/a	n/a	1	0.422607421875	0.5869140625	0	upper	amplitud.ttf
1374.506	n/a	WORD	687253	wordpools/wasnorm_wordpool.txt	LTP068	ltpFR	3	8	1	AIRPORT	13	n/a	n/a	0	0.422607421875	0.5869140625	0	upper	amplitud.ttf
1378.414	n/a	WORD	689207	wordpools/wasnorm_wordpool.txt	LTP068	ltpFR	3	8	1	CORN	381	n/a	n/a	1	0.422607421875	0.5869140625	0	upper	amplitud.ttf
1382.306	n/a	WORD	691153	wordpools/wasnorm_wordpool.txt	LTP068	ltpFR	3	8	1	HOUSE	725	n/a	n/a	0	0.422607421875	0.5869140625	0	upper	amplitud.ttf
1386.256	n/a	WORD	693128	wordpools/wasnorm_wordpool.txt	LTP068	ltpFR	3	8	1	TRENCH	1503	n/a	n/a	0	0.422607421875	0.5869140625	0	upper	amplitud.ttf
1390.33	n/a	WORD	695165	wordpools/wasnorm_wordpool.txt	LTP068	ltpFR	3	8	1	SOLDIER	1344	n/a	n/a	1	0.422607421875	0.5869140625	0	upper	amplitud.ttf
1394.372	n/a	WORD	697186	wordpools/wasnorm_wordpool.txt	LTP068	ltpFR	3	8	1	LOG	841	n/a	n/a	0	0.422607421875	0.5869140625	0	upper	amplitud.ttf
1398.222	n/a	WORD	699111	wordpools/wasnorm_wordpool.txt	LTP068	ltpFR	3	8	1	FOREHEAD	592	n/a	n/a	0	0.422607421875	0.5869140625	0	upper	amplitud.ttf
1402.214	n/a	WORD	701107	wordpools/wasnorm_wordpool.txt	LTP068	ltpFR	3	8	1	COLOGNE	347	n/a	n/a	0	0.422607421875	0.5869140625	0	upper	amplitud.ttf
1406.264	n/a	WORD	703132	wordpools/wasnorm_wordpool.txt	LTP068	ltpFR	3	8	1	CRICKET	408	n/a	n/a	1	0.422607421875	0.5869140625	0	upper	amplitud.ttf
1412.248	n/a	REC_START	706124	n/a	LTP068	ltpFR	3	8	n/a	n/a	n/a	n/a	n/a	n/a	n/a	n/a	n/a	n/a	n/a
1412.964	n/a	REC_WORD	706482	wordpools/wasnorm_wordpool.txt	LTP068	ltpFR	3	8	1	CORN	381	n/a	n/a	1	n/a	n/a	n/a	n/a	n/a
1413.668	n/a	REC_WORD	706834	wordpools/wasnorm_wordpool.txt	LTP068	ltpFR	3	8	1	HOUSE	725	n/a	n/a	0	n/a	n/a	n/a	n/a	n/a
1414.79	n/a	REC_WORD	707395	wordpools/wasnorm_wordpool.txt	LTP068	ltpFR	3	8	1	LOG	841	n/a	n/a	0	n/a	n/a	n/a	n/a	n/a
1415.61	n/a	REC_WORD	707805	wordpools/wasnorm_wordpool.txt	LTP068	ltpFR	3	8	1	TRENCH	1503	n/a	n/a	0	n/a	n/a	n/a	n/a	n/a
1418.818	n/a	REC_WORD	709409	wordpools/wasnorm_wordpool.txt	LTP068	ltpFR	3	8	-1	HOME	712	n/a	n/a	-1	n/a	n/a	n/a	n/a	n/a
1422.418	n/a	REC_WORD	711209	wordpools/wasnorm_wordpool.txt	LTP068	ltpFR	3	8	1	WALRUS	1585	n/a	n/a	1	n/a	n/a	n/a	n/a	n/a
1424.544	n/a	REC_WORD	712272	wordpools/wasnorm_wordpool.txt	LTP068	ltpFR	3	8	1	CRICKET	408	n/a	n/a	1	n/a	n/a	n/a	n/a	n/a
1428.048	n/a	REC_WORD	714024	wordpools/wasnorm_wordpool.txt	LTP068	ltpFR	3	8	1	NOSE	957	n/a	n/a	0	n/a	n/a	n/a	n/a	n/a
1436.956	n/a	REC_WORD	718478	wordpools/wasnorm_wordpool.txt	LTP068	ltpFR	3	8	1	LOG	841	n/a	n/a	0	n/a	n/a	n/a	n/a	n/a
1437.956	n/a	REC_WORD_VV	718978	wordpools/wasnorm_wordpool.txt	LTP068	ltpFR	3	8	n/a	<>	-1	n/a	n/a	n/a	n/a	n/a	n/a	n/a	n/a
1491.52	n/a	WORD	745760	wordpools/wasnorm_wordpool.txt	LTP068	ltpFR	3	9	-1	ROBE	1198	n/a	n/a	-1	1.0	1.0	1	upper	Verdana.ttf
1495.354	n/a	WORD	747677	wordpools/wasnorm_wordpool.txt	LTP068	ltpFR	3	9	-1	RACK	1154	n/a	n/a	-1	1.0	1.0	1	upper	Verdana.ttf
1499.302	n/a	WORD	749651	wordpools/wasnorm_wordpool.txt	LTP068	ltpFR	3	9	-1	COLLEGE	346	n/a	n/a	-1	1.0	1.0	1	upper	Verdana.ttf
1503.42	n/a	WORD	751710	wordpools/wasnorm_wordpool.txt	LTP068	ltpFR	3	9	-1	LOBSTER	837	n/a	n/a	-1	1.0	1.0	1	upper	Verdana.ttf
1507.486	n/a	WORD	753743	wordpools/wasnorm_wordpool.txt	LTP068	ltpFR	3	9	-1	POOL	1103	n/a	n/a	-1	1.0	1.0	1	upper	Verdana.ttf
1511.418	n/a	WORD	755709	wordpools/wasnorm_wordpool.txt	LTP068	ltpFR	3	9	-1	CROCODILE	411	n/a	n/a	-1	1.0	1.0	1	upper	Verdana.ttf
1515.244	n/a	WORD	757622	wordpools/wasnorm_wordpool.txt	LTP068	ltpFR	3	9	-1	CLOWN	330	n/a	n/a	-1	1.0	1.0	1	upper	Verdana.ttf
1519.086	n/a	WORD	759543	wordpools/wasnorm_wordpool.txt	LTP068	ltpFR	3	9	-1	TOURIST	1488	n/a	n/a	-1	1.0	1.0	1	upper	Verdana.ttf
1522.894	n/a	WORD	761447	wordpools/wasnorm_wordpool.txt	LTP068	ltpFR	3	9	-1	ISLAND	745	n/a	n/a	-1	1.0	1.0	1	upper	Verdana.ttf
1526.968	n/a	WORD	763484	wordpools/wasnorm_wordpool.txt	LTP068	ltpFR	3	9	-1	MONSTER	912	n/a	n/a	-1	1.0	1.0	1	upper	Verdana.ttf
1530.836	n/a	WORD	765418	wordpools/wasnorm_wordpool.txt	LTP068	ltpFR	3	9	-1	SYRINGE	1424	n/a	n/a	-1	1.0	1.0	1	upper	Verdana.ttf
1535.002	n/a	WORD	767501	wordpools/wasnorm_wordpool.txt	LTP068	ltpFR	3	9	-1	RACKET	1155	n/a	n/a	-1	1.0	1.0	1	upper	Verdana.ttf
1538.878	n/a	WORD	769439	wordpools/wasnorm_wordpool.txt	LTP068	ltpFR	3	9	-1	BAIT	70	n/a	n/a	-1	1.0	1.0	1	upper	Verdana.ttf
1542.694	n/a	WORD	771347	wordpools/wasnorm_wordpool.txt	LTP068	ltpFR	3	9	-1	TRIGGER	1507	n/a	n/a	-1	1.0	1.0	1	upper	Verdana.ttf
1546.668	n/a	WORD	773334	wordpools/wasnorm_wordpool.txt	LTP068	ltpFR	3	9	-1	MONASTERY	907	n/a	n/a	-1	1.0	1.0	1	upper	Verdana.ttf
1550.702	n/a	WORD	775351	wordpools/wasnorm_wordpool.txt	LTP068	ltpFR	3	9	-1	FRIAR	605	n/a	n/a	-1	1.0	1.0	1	upper	Verdana.ttf
1556.484	n/a	REC_START	778242	n/a	LTP068	ltpFR	3	9	n/a	n/a	n/a	n/a	n/a	n/a	n/a	n/a	n/a	n/a	n/a
1556.894	n/a	REC_WORD	778447	wordpools/wasnorm_wordpool.txt	LTP068	ltpFR	3	9	-1	MONASTERY	907	n/a	n/a	-1	n/a	n/a	n/a	n/a	n/a
1557.816	n/a	REC_WORD	778908	wordpools/wasnorm_wordpool.txt	LTP068	ltpFR	3	9	-1	FRIAR	605	n/a	n/a	-1	n/a	n/a	n/a	n/a	n/a
1558.78	n/a	REC_WORD	779390	wordpools/wasnorm_wordpool.txt	LTP068	ltpFR	3	9	-1	CROCODILE	411	n/a	n/a	-1	n/a	n/a	n/a	n/a	n/a
1559.908	n/a	REC_WORD	779954	wordpools/wasnorm_wordpool.txt	LTP068	ltpFR	3	9	-1	POOL	1103	n/a	n/a	-1	n/a	n/a	n/a	n/a	n/a
1561.74	n/a	REC_WORD	780870	wordpools/wasnorm_wordpool.txt	LTP068	ltpFR	3	9	n/a	LOUNGE	845	n/a	n/a	n/a	n/a	n/a	n/a	n/a	n/a
1563.376	n/a	REC_WORD	781688	wordpools/wasnorm_wordpool.txt	LTP068	ltpFR	3	9	-1	TOURIST	1488	n/a	n/a	-1	n/a	n/a	n/a	n/a	n/a
1564.578	n/a	REC_WORD	782289	wordpools/wasnorm_wordpool.txt	LTP068	ltpFR	3	9	-1	ISLAND	745	n/a	n/a	-1	n/a	n/a	n/a	n/a	n/a
1660.048	n/a	WORD	830024	wordpools/wasnorm_wordpool.txt	LTP068	ltpFR	3	10	0	QUAIL	1147	n/a	n/a	1	0.57763671875	0.412841796875	1	lower	zerothre.ttf
1664.114	n/a	WORD	832057	wordpools/wasnorm_wordpool.txt	LTP068	ltpFR	3	10	0	ATTIRE	57	n/a	n/a	1	0.57763671875	0.412841796875	1	lower	zerothre.ttf
1668.066	n/a	WORD	834033	wordpools/wasnorm_wordpool.txt	LTP068	ltpFR	3	10	0	GROCERY	664	n/a	n/a	1	0.57763671875	0.412841796875	1	lower	zerothre.ttf
1672.132	n/a	WORD	836066	wordpools/wasnorm_wordpool.txt	LTP068	ltpFR	3	10	0	COIN	343	n/a	n/a	0	0.57763671875	0.412841796875	1	lower	zerothre.ttf
1675.964	n/a	WORD	837982	wordpools/wasnorm_wordpool.txt	LTP068	ltpFR	3	10	0	HUSBAND	728	n/a	n/a	1	0.57763671875	0.412841796875	1	lower	zerothre.ttf
1679.864	n/a	WORD	839932	wordpools/wasnorm_wordpool.txt	LTP068	ltpFR	3	10	1	BOXER	160	n/a	n/a	1	0.422607421875	0.5869140625	0	upper	amplitud.ttf
1684.03	n/a	WORD	842015	wordpools/wasnorm_wordpool.txt	LTP068	ltpFR	3	10	1	COYOTE	396	n/a	n/a	1	0.422607421875	0.5869140625	0	upper	amplitud.ttf
1688.206	n/a	WORD	844103	wordpools/wasnorm_wordpool.txt	LTP068	ltpFR	3	10	0	APE	31	n/a	n/a	1	0.57763671875	0.412841796875	1	lower	zerothre.ttf
1692.34	n/a	WORD	846170	wordpools/wasnorm_wordpool.txt	LTP068	ltpFR	3	10	0	TELEVISION	1447	n/a	n/a	1	0.57763671875	0.412841796875	1	lower	zerothre.ttf
1696.206	n/a	WORD	848103	wordpools/wasnorm_wordpool.txt	LTP068	ltpFR	3	10	0	GOWN	652	n/a	n/a	1	0.57763671875	0.412841796875	1	lower	zerothre.ttf
1700.348	n/a	WORD	850174	wordpools/wasnorm_wordpool.txt	LTP068	ltpFR	3	10	1	BILL	126	n/a	n/a	1	0.422607421875	0.5869140625	0	upper	amplitud.ttf
1704.298	n/a	WORD	852149	wordpools/wasnorm_wordpool.txt	LTP068	ltpFR	3	10	1	CONSUMER	365	n/a	n/a	1	0.422607421875	0.5869140625	0	upper	amplitud.ttf
1708.456	n/a	WORD	854228	wordpools/wasnorm_wordpool.txt	LTP068	ltpFR	3	10	1	DOVE	491	n/a	n/a	1	0.422607421875	0.5869140625	0	upper	amplitud.ttf
1712.448	n/a	WORD	856224	wordpools/wasnorm_wordpool.txt	LTP068	ltpFR	3	10	1	GULL	671	n/a	n/a	1	0.422607421875	0.5869140625	0	upper	amplitud.ttf
1716.606	n/a	WORD	858303	wordpools/wasnorm_wordpool.txt	LTP068	ltpFR	3	10	1	CORPORATION	382	n/a	n/a	0	0.422607421875	0.5869140625	0	upper	amplitud.ttf
1720.814	n/a	WORD	860407	wordpools/wasnorm_wordpool.txt	LTP068	ltpFR	3	10	1	ENEMY	534	n/a	n/a	1	0.422607421875	0.5869140625	0	upper	amplitud.ttf
1726.448	n/a	REC_START	863224	n/a	LTP068	ltpFR	3	10	n/a	n/a	n/a	n/a	n/a	n/a	n/a	n/a	n/a	n/a	n/a
1727.1	n/a	REC_WORD	863550	wordpools/wasnorm_wordpool.txt	LTP068	ltpFR	3	10	1	DOVE	491	n/a	n/a	1	n/a	n/a	n/a	n/a	n/a
1728.228	n/a	REC_WORD	864114	wordpools/wasnorm_wordpool.txt	LTP068	ltpFR	3	10	1	GULL	671	n/a	n/a	1	n/a	n/a	n/a	n/a	n/a
1729.09	n/a	REC_WORD	864545	wordpools/wasnorm_wordpool.txt	LTP068	ltpFR	3	10	1	CORPORATION	382	n/a	n/a	0	n/a	n/a	n/a	n/a	n/a
1731.032	n/a	REC_WORD	865516	wordpools/wasnorm_wordpool.txt	LTP068	ltpFR	3	10	1	ENEMY	534	n/a	n/a	1	n/a	n/a	n/a	n/a	n/a
1733.602	n/a	REC_WORD_VV	866801	wordpools/wasnorm_wordpool.txt	LTP068	ltpFR	3	10	n/a	<>	-1	n/a	n/a	n/a	n/a	n/a	n/a	n/a	n/a
1734.602	n/a	REC_WORD_VV	867301	wordpools/wasnorm_wordpool.txt	LTP068	ltpFR	3	10	n/a	<>	-1	n/a	n/a	n/a	n/a	n/a	n/a	n/a	n/a
1736.174	n/a	REC_WORD	868087	wordpools/wasnorm_wordpool.txt	LTP068	ltpFR	3	10	0	COIN	343	n/a	n/a	0	n/a	n/a	n/a	n/a	n/a
1738.16	n/a	REC_WORD	869080	wordpools/wasnorm_wordpool.txt	LTP068	ltpFR	3	10	0	QUAIL	1147	n/a	n/a	1	n/a	n/a	n/a	n/a	n/a
1808.762	n/a	WORD	904381	wordpools/wasnorm_wordpool.txt	LTP068	ltpFR	3	11	0	BOAT	144	n/a	n/a	1	0.57763671875	0.412841796875	1	lower	zerothre.ttf
1812.81	n/a	WORD	906405	wordpools/wasnorm_wordpool.txt	LTP068	ltpFR	3	11	0	SAUSAGE	1238	n/a	n/a	0	0.57763671875	0.412841796875	1	lower	zerothre.ttf
1816.878	n/a	WORD	908439	wordpools/wasnorm_wordpool.txt	LTP068	ltpFR	3	11	0	TOOL	1480	n/a	n/a	0	0.57763671875	0.412841796875	1	lower	zerothre.ttf
1820.978	n/a	WORD	910489	wordpools/wasnorm_wordpool.txt	LTP068	ltpFR	3	11	0	DRUM	502	n/a	n/a	1	0.57763671875	0.412841796875	1	lower	zerothre.ttf
1824.952	n/a	WORD	912476	wordpools/wasnorm_wordpool.txt	LTP068	ltpFR	3	11	0	BAND	78	n/a	n/a	1	0.57763671875	0.412841796875	1	lower	zerothre.ttf
1828.81	n/a	WORD	914405	wordpools/wasnorm_wordpool.txt	LTP068	ltpFR	3	11	0	ATHLETE	52	n/a	n/a	1	0.57763671875	0.412841796875	1	lower	zerothre.ttf
1832.96	n/a	WORD	916480	wordpools/wasnorm_wordpool.txt	LTP068	ltpFR	3	11	0	EXPERT	543	n/a	n/a	1	0.57763671875	0.412841796875	1	lower	zerothre.ttf
1837.028	n/a	WORD	918514	wordpools/wasnorm_wordpool.txt	LTP068	ltpFR	3	11	0	VESSEL	1558	n/a	n/a	0	0.57763671875	0.412841796875	1	lower	zerothre.ttf
1841.128	n/a	WORD	920564	wordpools/wasnorm_wordpool.txt	LTP068	ltpFR	3	11	0	ROOST	1208	n/a	n/a	1	0.57763671875	0.412841796875	1	lower	zerothre.ttf
1845.336	n/a	WORD	922668	wordpools/wasnorm_wordpool.txt	LTP068	ltpFR	3	11	0	PERCH	1048	n/a	n/a	1	0.57763671875	0.412841796875	1	lower	zerothre.ttf
1849.202	n/a	WORD	924601	wordpools/wasnorm_wordpool.txt	LTP068	ltpFR	3	11	0	PASTRY	1022	n/a	n/a	0	0.57763671875	0.412841796875	1	lower	zerothre.ttf
1853.094	n/a	WORD	926547	wordpools/wasnorm_wordpool.txt	LTP068	ltpFR	3	11	0	BRACELET	163	n/a	n/a	0	0.57763671875	0.412841796875	1	lower	zerothre.ttf
1857.11	n/a	WORD	928555	wordpools/wasnorm_wordpool.txt	LTP068	ltpFR	3	11	0	CHAMPION	279	n/a	n/a	1	0.57763671875	0.412841796875	1	lower	zerothre.ttf
1860.978	n/a	WORD	930489	wordpools/wasnorm_wordpool.txt	LTP068	ltpFR	3	11	0	GRILL	661	n/a	n/a	n/a	0.57763671875	0.412841796875	1	lower	zerothre.ttf
1864.002	n/a	SLOW_MSG	932001	n/a	LTP068	ltpFR	3	11	n/a	n/a	n/a	n/a	n/a	n/a	n/a	n/a	n/a	n/a	n/a
1866.568	n/a	WORD	933284	wordpools/wasnorm_wordpool.txt	LTP068	ltpFR	3	11	0	INTESTINE	742	n/a	n/a	0	0.57763671875	0.412841796875	1	lower	zerothre.ttf
1870.56	n/a	WORD	935280	wordpools/wasnorm_wordpool.txt	LTP068	ltpFR	3	11	0	COBWEB	337	n/a	n/a	0	0.57763671875	0.412841796875	1	lower	zerothre.ttf
1876.526	n/a	REC_START	938263	n/a	LTP068	ltpFR	3	11	n/a	n/a	n/a	n/a	n/a	n/a	n/a	n/a	n/a	n/a	n/a
1877.384	n/a	REC_WORD	938692	wordpools/wasnorm_wordpool.txt	LTP068	ltpFR	3	11	0	COBWEB	337	n/a	n/a	0	n/a	n/a	n/a	n/a	n/a
1878.404	n/a	REC_WORD	939202	wordpools/wasnorm_wordpool.txt	LTP068	ltpFR	3	11	0	INTESTINE	742	n/a	n/a	0	n/a	n/a	n/a	n/a	n/a
1881.578	n/a	REC_WORD	940789	wordpools/wasnorm_wordpool.txt	LTP068	ltpFR	3	11	0	DRUM	502	n/a	n/a	1	n/a	n/a	n/a	n/a	n/a
1883.014	n/a	REC_WORD	941507	wordpools/wasnorm_wordpool.txt	LTP068	ltpFR	3	11	0	BAND	78	n/a	n/a	1	n/a	n/a	n/a	n/a	n/a
1884.912	n/a	REC_WORD	942456	wordpools/wasnorm_wordpool.txt	LTP068	ltpFR	3	11	0	TOOL	1480	n/a	n/a	0	n/a	n/a	n/a	n/a	n/a
1892.704	n/a	REC_WORD	946352	wordpools/wasnorm_wordpool.txt	LTP068	ltpFR	3	11	n/a	ARTIST	43	n/a	n/a	n/a	n/a	n/a	n/a	n/a	n/a
1894.736	n/a	REC_WORD_VV	947368	wordpools/wasnorm_wordpool.txt	LTP068	ltpFR	3	11	n/a	<>	-1	n/a	n/a	n/a	n/a	n/a	n/a	n/a	n/a
1895.924	n/a	REC_WORD	947962	wordpools/wasnorm_wordpool.txt	LTP068	ltpFR	3	11	0	COBWEB	337	n/a	n/a	0	n/a	n/a	n/a	n/a	n/a
1955.182	n/a	WORD	977591	wordpools/wasnorm_wordpool.txt	LTP068	ltpFR	3	12	1	UNIVERSITY	1541	n/a	n/a	0	0.422607421875	0.5869140625	0	upper	amplitud.ttf
1959.19	n/a	WORD	979595	wordpools/wasnorm_wordpool.txt	LTP068	ltpFR	3	12	1	JUGGLER	763	n/a	n/a	1	0.422607421875	0.5869140625	0	upper	amplitud.ttf
1963.398	n/a	WORD	981699	wordpools/wasnorm_wordpool.txt	LTP068	ltpFR	3	12	1	SCIENTIST	1249	n/a	n/a	1	0.422607421875	0.5869140625	0	upper	amplitud.ttf
1967.216	n/a	WORD	983608	wordpools/wasnorm_wordpool.txt	LTP068	ltpFR	3	12	1	BEAKER	104	n/a	n/a	0	0.422607421875	0.5869140625	0	upper	amplitud.ttf
1971.032	n/a	WORD	985516	wordpools/wasnorm_wordpool.txt	LTP068	ltpFR	3	12	1	CLAM	315	n/a	n/a	0	0.422607421875	0.5869140625	0	upper	amplitud.ttf
1975.074	n/a	WORD	987537	wordpools/wasnorm_wordpool.txt	LTP068	ltpFR	3	12	1	SQUIRREL	1362	n/a	n/a	1	0.422607421875	0.5869140625	0	upper	amplitud.ttf
1978.982	n/a	WORD	989491	wordpools/wasnorm_wordpool.txt	LTP068	ltpFR	3	12	1	STAFF	1365	n/a	n/a	0	0.422607421875	0.5869140625	0	upper	amplitud.ttf
1983.024	n/a	WORD	991512	wordpools/wasnorm_wordpool.txt	LTP068	ltpFR	3	12	1	PEAR	1033	n/a	n/a	1	0.422607421875	0.5869140625	0	upper	amplitud.ttf
1986.856	n/a	WORD	993428	wordpools/wasnorm_wordpool.txt	LTP068	ltpFR	3	12	1	BEDROOM	111	n/a	n/a	0	0.422607421875	0.5869140625	0	upper	amplitud.ttf
1990.932	n/a	WORD	995466	wordpools/wasnorm_wordpool.txt	LTP068	ltpFR	3	12	1	CHIPMUNK	304	n/a	n/a	1	0.422607421875	0.5869140625	0	upper	amplitud.ttf
1994.94	n/a	WORD	997470	wordpools/wasnorm_wordpool.txt	LTP068	ltpFR	3	12	1	LASER	801	n/a	n/a	0	0.422607421875	0.5869140625	0	upper	amplitud.ttf
1998.99	n/a	WORD	999495	wordpools/wasnorm_wordpool.txt	LTP068	ltpFR	3	12	1	BULLET	194	n/a	n/a	0	0.422607421875	0.5869140625	0	upper	amplitud.ttf
2003.098	n/a	WORD	1001549	wordpools/wasnorm_wordpool.txt	LTP068	ltpFR	3	12	1	TORCH	1484	n/a	n/a	0	0.422607421875	0.5869140625	0	upper	amplitud.ttf
2007.222	n/a	WORD	1003611	wordpools/wasnorm_wordpool.txt	LTP068	ltpFR	3	12	1	FLASHLIGHT	575	n/a	n/a	0	0.422607421875	0.5869140625	0	upper	amplitud.ttf
2011.424	n/a	WORD	1005712	wordpools/wasnorm_wordpool.txt	LTP068	ltpFR	3	12	1	ACORN	3	n/a	n/a	1	0.422607421875	0.5869140625	0	upper	amplitud.ttf
2015.472	n/a	WORD	1007736	wordpools/wasnorm_wordpool.txt	LTP068	ltpFR	3	12	1	PRIMATE	1123	n/a	n/a	1	0.422607421875	0.5869140625	0	upper	amplitud.ttf
2021.282	n/a	REC_START	1010641	n/a	LTP068	ltpFR	3	12	n/a	n/a	n/a	n/a	n/a	n/a	n/a	n/a	n/a	n/a	n/a
2022.332	n/a	REC_WORD	1011166	wordpools/wasnorm_wordpool.txt	LTP068	ltpFR	3	12	1	CHIPMUNK	304	n/a	n/a	1	n/a	n/a	n/a	n/a	n/a
2023.266	n/a	REC_WORD	1011633	wordpools/wasnorm_wordpool.txt	LTP068	ltpFR	3	12	1	LASER	801	n/a	n/a	0	n/a	n/a	n/a	n/a	n/a
2024.354	n/a	REC_WORD	1012177	wordpools/wasnorm_wordpool.txt	LTP068	ltpFR	3	12	1	BULLET	194	n/a	n/a	0	n/a	n/a	n/a	n/a	n/a
2025.294	n/a	REC_WORD	1012647	wordpools/wasnorm_wordpool.txt	LTP068	ltpFR	3	12	1	TORCH	1484	n/a	n/a	0	n/a	n/a	n/a	n/a	n/a
2026.244	n/a	REC_WORD	1013122	wordpools/wasnorm_wordpool.txt	LTP068	ltpFR	3	12	1	FLASHLIGHT	575	n/a	n/a	0	n/a	n/a	n/a	n/a	n/a
2029.244	n/a	REC_WORD	1014622	wordpools/wasnorm_wordpool.txt	LTP068	ltpFR	3	12	1	PRIMATE	1123	n/a	n/a	1	n/a	n/a	n/a	n/a	n/a
2030.63	n/a	REC_WORD	1015315	wordpools/wasnorm_wordpool.txt	LTP068	ltpFR	3	12	1	SQUIRREL	1362	n/a	n/a	1	n/a	n/a	n/a	n/a	n/a
2035.69	n/a	REC_WORD	1017845	wordpools/wasnorm_wordpool.txt	LTP068	ltpFR	3	12	1	JUGGLER	763	n/a	n/a	1	n/a	n/a	n/a	n/a	n/a
2037.564	n/a	REC_WORD	1018782	wordpools/wasnorm_wordpool.txt	LTP068	ltpFR	3	12	1	UNIVERSITY	1541	n/a	n/a	0	n/a	n/a	n/a	n/a	n/a
2440.62	n/a	WORD	1220310	wordpools/wasnorm_wordpool.txt	LTP068	ltpFR	3	13	1	BISON	131	n/a	n/a	1	0.422607421875	0.5869140625	0	upper	amplitud.ttf
2444.546	n/a	WORD	1222273	wordpools/wasnorm_wordpool.txt	LTP068	ltpFR	3	13	1	GAZELLE	628	n/a	n/a	1	0.422607421875	0.5869140625	0	upper	amplitud.ttf
2448.612	n/a	WORD	1224306	wordpools/wasnorm_wordpool.txt	LTP068	ltpFR	3	13	1	TUTU	1524	n/a	n/a	n/a	0.422607421875	0.5869140625	0	upper	amplitud.ttf
2451.636	n/a	SLOW_MSG	1225818	n/a	LTP068	ltpFR	3	13	n/a	n/a	n/a	n/a	n/a	n/a	n/a	n/a	n/a	n/a	n/a
2453.978	n/a	WORD	1226989	wordpools/wasnorm_wordpool.txt	LTP068	ltpFR	3	13	1	PEDESTRIAN	1038	n/a	n/a	1	0.422607421875	0.5869140625	0	upper	amplitud.ttf
2458.01	n/a	WORD	1229005	wordpools/wasnorm_wordpool.txt	LTP068	ltpFR	3	13	1	LAGOON	795	n/a	n/a	0	0.422607421875	0.5869140625	0	upper	amplitud.ttf
2462.154	n/a	WORD	1231077	wordpools/wasnorm_wordpool.txt	LTP068	ltpFR	3	13	1	RUBY	1214	n/a	n/a	0	0.422607421875	0.5869140625	0	upper	amplitud.ttf
2466.236	n/a	WORD	1233118	wordpools/wasnorm_wordpool.txt	LTP068	ltpFR	3	13	1	SIDEWALK	1303	n/a	n/a	0	0.422607421875	0.5869140625	0	upper	amplitud.ttf
2470.094	n/a	WORD	1235047	wordpools/wasnorm_wordpool.txt	LTP068	ltpFR	3	13	1	TORNADO	1485	n/a	n/a	0	0.422607421875	0.5869140625	0	upper	amplitud.ttf
2473.952	n/a	WORD	1236976	wordpools/wasnorm_wordpool.txt	LTP068	ltpFR	3	13	1	CHEMIST	292	n/a	n/a	1	0.422607421875	0.5869140625	0	upper	amplitud.ttf
2477.968	n/a	WORD	1238984	wordpools/wasnorm_wordpool.txt	LTP068	ltpFR	3	13	1	GOLD	647	n/a	n/a	0	0.422607421875	0.5869140625	0	upper	amplitud.ttf
2481.928	n/a	WORD	1240964	wordpools/wasnorm_wordpool.txt	LTP068	ltpFR	3	13	1	EMERALD	528	n/a	n/a	0	0.422607421875	0.5869140625	0	upper	amplitud.ttf
2485.86	n/a	WORD	1242930	wordpools/wasnorm_wordpool.txt	LTP068	ltpFR	3	13	1	CRATER	400	n/a	n/a	0	0.422607421875	0.5869140625	0	upper	amplitud.ttf
2489.728	n/a	WORD	1244864	wordpools/wasnorm_wordpool.txt	LTP068	ltpFR	3	13	1	FRECKLE	602	n/a	n/a	0	0.422607421875	0.5869140625	0	upper	amplitud.ttf
2493.602	n/a	WORD	1246801	wordpools/wasnorm_wordpool.txt	LTP068	ltpFR	3	13	1	RAZOR	1171	n/a	n/a	0	0.422607421875	0.5869140625	0	upper	amplitud.ttf
2497.768	n/a	WORD	1248884	wordpools/wasnorm_wordpool.txt	LTP068	ltpFR	3	13	1	CONVICT	371	n/a	n/a	1	0.422607421875	0.5869140625	0	upper	amplitud.ttf
2501.618	n/a	WORD	1250809	wordpools/wasnorm_wordpool.txt	LTP068	ltpFR	3	13	1	CRIMINAL	409	n/a	n/a	1	0.422607421875	0.5869140625	0	upper	amplitud.ttf
2507.528	n/a	REC_START	1253764	n/a	LTP068	ltpFR	3	13	n/a	n/a	n/a	n/a	n/a	n/a	n/a	n/a	n/a	n/a	n/a
2509.314	n/a	REC_WORD	1254657	wordpools/wasnorm_wordpool.txt	LTP068	ltpFR	3	13	1	CRIMINAL	409	n/a	n/a	1	n/a	n/a	n/a	n/a	n/a
2510.076	n/a	REC_WORD	1255038	wordpools/wasnorm_wordpool.txt	LTP068	ltpFR	3	13	1	CONVICT	371	n/a	n/a	1	n/a	n/a	n/a	n/a	n/a
2514.226	n/a	REC_WORD	1257113	wordpools/wasnorm_wordpool.txt	LTP068	ltpFR	3	13	1	BISON	131	n/a	n/a	1	n/a	n/a	n/a	n/a	n/a
2518.856	n/a	REC_WORD	1259428	wordpools/wasnorm_wordpool.txt	LTP068	ltpFR	3	13	1	SIDEWALK	1303	n/a	n/a	0	n/a	n/a	n/a	n/a	n/a
2586.674	n/a	WORD	1293337	wordpools/wasnorm_wordpool.txt	LTP068	ltpFR	3	14	0	KEG	770	n/a	n/a	1	0.57763671875	0.412841796875	1	lower	zerothre.ttf
2590.608	n/a	WORD	1295304	wordpools/wasnorm_wordpool.txt	LTP068	ltpFR	3	14	0	BATHTUB	100	n/a	n/a	0	0.57763671875	0.412841796875	1	lower	zerothre.ttf
2594.592	n/a	WORD	1297296	wordpools/wasnorm_wordpool.txt	LTP068	ltpFR	3	14	0	WINDOW	1611	n/a	n/a	1	0.57763671875	0.412841796875	1	lower	zerothre.ttf
2598.608	n/a	WORD	1299304	wordpools/wasnorm_wordpool.txt	LTP068	ltpFR	3	14	1	AUTHOR	61	n/a	n/a	1	0.422607421875	0.5869140625	0	upper	amplitud.ttf
2602.716	n/a	WORD	1301358	wordpools/wasnorm_wordpool.txt	LTP068	ltpFR	3	14	1	LIST	830	n/a	n/a	0	0.422607421875	0.5869140625	0	upper	amplitud.ttf
2606.866	n/a	WORD	1303433	wordpools/wasnorm_wordpool.txt	LTP068	ltpFR	3	14	1	MOUSE	925	n/a	n/a	1	0.422607421875	0.5869140625	0	upper	amplitud.ttf
2610.916	n/a	WORD	1305458	wordpools/wasnorm_wordpool.txt	LTP068	ltpFR	3	14	1	SPOUSE	1358	n/a	n/a	1	0.422607421875	0.5869140625	0	upper	amplitud.ttf
2614.882	n/a	WORD	1307441	wordpools/wasnorm_wordpool.txt	LTP068	ltpFR	3	14	1	WIFE	1609	n/a	n/a	1	0.422607421875	0.5869140625	0	upper	amplitud.ttf
2618.998	n/a	WORD	1309499	wordpools/wasnorm_wordpool.txt	LTP068	ltpFR	3	14	1	PAN	1008	n/a	n/a	0	0.422607421875	0.5869140625	0	upper	amplitud.ttf
2622.956	n/a	WORD	1311478	wordpools/wasnorm_wordpool.txt	LTP068	ltpFR	3	14	0	CAFETERIA	217	n/a	n/a	1	0.57763671875	0.412841796875	1	lower	zerothre.ttf
2627.064	n/a	WORD	1313532	wordpools/wasnorm_wordpool.txt	LTP068	ltpFR	3	14	0	POCKETBOOK	1094	n/a	n/a	0	0.57763671875	0.412841796875	1	lower	zerothre.ttf
2631.24	n/a	WORD	1315620	wordpools/wasnorm_wordpool.txt	LTP068	ltpFR	3	14	1	KANGAROO	768	n/a	n/a	1	0.422607421875	0.5869140625	0	upper	amplitud.ttf
2635.09	n/a	WORD	1317545	wordpools/wasnorm_wordpool.txt	LTP068	ltpFR	3	14	1	FLASK	576	n/a	n/a	0	0.422607421875	0.5869140625	0	upper	amplitud.ttf
2639.19	n/a	WORD	1319595	wordpools/wasnorm_wordpool.txt	LTP068	ltpFR	3	14	0	JOINT	758	n/a	n/a	0	0.57763671875	0.412841796875	1	lower	zerothre.ttf
2643.256	n/a	WORD	1321628	wordpools/wasnorm_wordpool.txt	LTP068	ltpFR	3	14	0	BANQUET	86	n/a	n/a	1	0.57763671875	0.412841796875	1	lower	zerothre.ttf
2647.132	n/a	WORD	1323566	wordpools/wasnorm_wordpool.txt	LTP068	ltpFR	3	14	0	COUSIN	392	n/a	n/a	1	0.57763671875	0.412841796875	1	lower	zerothre.ttf
2652.882	n/a	REC_START	1326441	n/a	LTP068	ltpFR	3	14	n/a	n/a	n/a	n/a	n/a	n/a	n/a	n/a	n/a	n/a	n/a
2654.128	n/a	REC_WORD	1327064	wordpools/wasnorm_wordpool.txt	LTP068	ltpFR	3	14	0	COUSIN	392	n/a	n/a	1	n/a	n/a	n/a	n/a	n/a
2655.174	n/a	REC_WORD	1327587	wordpools/wasnorm_wordpool.txt	LTP068	ltpFR	3	14	0	BANQUET	86	n/a	n/a	1	n/a	n/a	n/a	n/a	n/a
2655.914	n/a	REC_WORD	1327957	wordpools/wasnorm_wordpool.txt	LTP068	ltpFR	3	14	0	CAFETERIA	217	n/a	n/a	1	n/a	n/a	n/a	n/a	n/a
2656.97	n/a	REC_WORD	1328485	wordpools/wasnorm_wordpool.txt	LTP068	ltpFR	3	14	1	KANGAROO	768	n/a	n/a	1	n/a	n/a	n/a	n/a	n/a
2658.114	n/a	REC_WORD	1329057	wordpools/wasnorm_wordpool.txt	LTP068	ltpFR	3	14	0	POCKETBOOK	1094	n/a	n/a	0	n/a	n/a	n/a	n/a	n/a
2660.66	n/a	REC_WORD	1330330	wordpools/wasnorm_wordpool.txt	LTP068	ltpFR	3	14	1	WIFE	1609	n/a	n/a	1	n/a	n/a	n/a	n/a	n/a
2681.998	n/a	REC_WORD	1340999	wordpools/wasnorm_wordpool.txt	LTP068	ltpFR	3	14	0	JOINT	758	n/a	n/a	0	n/a	n/a	n/a	n/a	n/a
2743.962	n/a	WORD	1371981	wordpools/wasnorm_wordpool.txt	LTP068	ltpFR	3	15	0	ELF	525	n/a	n/a	1	0.57763671875	0.412841796875	1	lower	zerothre.ttf
2748.088	n/a	WORD	1374044	wordpools/wasnorm_wordpool.txt	LTP068	ltpFR	3	15	0	CLIFF	322	n/a	n/a	1	0.57763671875	0.412841796875	1	lower	zerothre.ttf
2752.086	n/a	WORD	1376043	wordpools/wasnorm_wordpool.txt	LTP068	ltpFR	3	15	0	SLACKS	1323	n/a	n/a	0	0.57763671875	0.412841796875	1	lower	zerothre.ttf
2756.278	n/a	WORD	1378139	wordpools/wasnorm_wordpool.txt	LTP068	ltpFR	3	15	0	CREW	406	n/a	n/a	1	0.57763671875	0.412841796875	1	lower	zerothre.ttf
2760.194	n/a	WORD	1380097	wordpools/wasnorm_wordpool.txt	LTP068	ltpFR	3	15	0	SAILOR	1223	n/a	n/a	1	0.57763671875	0.412841796875	1	lower	zerothre.ttf
2764.296	n/a	WORD	1382148	wordpools/wasnorm_wordpool.txt	LTP068	ltpFR	3	15	0	CHICKEN	297	n/a	n/a	1	0.57763671875	0.412841796875	1	lower	zerothre.ttf
2768.436	n/a	WORD	1384218	wordpools/wasnorm_wordpool.txt	LTP068	ltpFR	3	15	0	BARTENDER	92	n/a	n/a	1	0.57763671875	0.412841796875	1	lower	zerothre.ttf
2772.62	n/a	WORD	1386310	wordpools/wasnorm_wordpool.txt	LTP068	ltpFR	3	15	0	ELM	527	n/a	n/a	1	0.57763671875	0.412841796875	1	lower	zerothre.ttf
2776.702	n/a	WORD	1388351	wordpools/wasnorm_wordpool.txt	LTP068	ltpFR	3	15	0	PLANT	1083	n/a	n/a	0	0.57763671875	0.412841796875	1	lower	zerothre.ttf
2780.86	n/a	WORD	1390430	wordpools/wasnorm_wordpool.txt	LTP068	ltpFR	3	15	0	HERB	704	n/a	n/a	0	0.57763671875	0.412841796875	1	lower	zerothre.ttf
2784.928	n/a	WORD	1392464	wordpools/wasnorm_wordpool.txt	LTP068	ltpFR	3	15	0	CANYON	235	n/a	n/a	1	0.57763671875	0.412841796875	1	lower	zerothre.ttf
2789.044	n/a	WORD	1394522	wordpools/wasnorm_wordpool.txt	LTP068	ltpFR	3	15	0	DECK	443	n/a	n/a	0	0.57763671875	0.412841796875	1	lower	zerothre.ttf
2792.994	n/a	WORD	1396497	wordpools/wasnorm_wordpool.txt	LTP068	ltpFR	3	15	0	NERVE	944	n/a	n/a	0	0.57763671875	0.412841796875	1	lower	zerothre.ttf
2797.02	n/a	WORD	1398510	wordpools/wasnorm_wordpool.txt	LTP068	ltpFR	3	15	0	PHILOSOPHER	1054	n/a	n/a	1	0.57763671875	0.412841796875	1	lower	zerothre.ttf
2801.028	n/a	WORD	1400514	wordpools/wasnorm_wordpool.txt	LTP068	ltpFR	3	15	0	STEAM	1375	n/a	n/a	0	0.57763671875	0.412841796875	1	lower	zerothre.ttf
2805.02	n/a	WORD	1402510	wordpools/wasnorm_wordpool.txt	LTP068	ltpFR	3	15	0	SHIRT	1287	n/a	n/a	0	0.57763671875	0.412841796875	1	lower	zerothre.ttf
2810.762	n/a	REC_START	1405381	n/a	LTP068	ltpFR	3	15	n/a	n/a	n/a	n/a	n/a	n/a	n/a	n/a	n/a	n/a	n/a
2811.346	n/a	REC_WORD	1405673	wordpools/wasnorm_wordpool.txt	LTP068	ltpFR	3	15	0	PLANT	1083	n/a	n/a	0	n/a	n/a	n/a	n/a	n/a
2812.438	n/a	REC_WORD	1406219	wordpools/wasnorm_wordpool.txt	LTP068	ltpFR	3	15	0	DECK	443	n/a	n/a	0	n/a	n/a	n/a	n/a	n/a
2816.594	n/a	REC_WORD	1408297	wordpools/wasnorm_wordpool.txt	LTP068	ltpFR	3	15	0	HERB	704	n/a	n/a	0	n/a	n/a	n/a	n/a	n/a
2817.514	n/a	REC_WORD	1408757	wordpools/wasnorm_wordpool.txt	LTP068	ltpFR	3	15	0	PHILOSOPHER	1054	n/a	n/a	1	n/a	n/a	n/a	n/a	n/a
2818.562	n/a	REC_WORD	1409281	wordpools/wasnorm_wordpool.txt	LTP068	ltpFR	3	15	0	STEAM	1375	n/a	n/a	0	n/a	n/a	n/a	n/a	n/a
2830.576	n/a	REC_WORD_VV	1415288	wordpools/wasnorm_wordpool.txt	LTP068	ltpFR	3	15	n/a	<>	-1	n/a	n/a	n/a	n/a	n/a	n/a	n/a	n/a
2840.288	n/a	REC_WORD_VV	1420144	wordpools/wasnorm_wordpool.txt	LTP068	ltpFR	3	15	n/a	<>	-1	n/a	n/a	n/a	n/a	n/a	n/a	n/a	n/a
2843.908	n/a	REC_WORD	1421954	wordpools/wasnorm_wordpool.txt	LTP068	ltpFR	3	15	1	FLASK	576	n/a	n/a	0	n/a	n/a	n/a	n/a	n/a
2848.734	n/a	REC_WORD	1424367	wordpools/wasnorm_wordpool.txt	LTP068	ltpFR	3	15	0	SHIRT	1287	n/a	n/a	0	n/a	n/a	n/a	n/a	n/a
2850.126	n/a	REC_WORD	1425063	wordpools/wasnorm_wordpool.txt	LTP068	ltpFR	3	15	n/a	PANTS	1010	n/a	n/a	n/a	n/a	n/a	n/a	n/a	n/a
2852.55	n/a	REC_WORD	1426275	wordpools/wasnorm_wordpool.txt	LTP068	ltpFR	3	15	0	SLACKS	1323	n/a	n/a	0	n/a	n/a	n/a	n/a	n/a
2893.068	n/a	WORD	1446534	wordpools/wasnorm_wordpool.txt	LTP068	ltpFR	3	16	0	WATERFALL	1595	n/a	n/a	1	0.57763671875	0.412841796875	1	lower	zerothre.ttf
2897.016	n/a	WORD	1448508	wordpools/wasnorm_wordpool.txt	LTP068	ltpFR	3	16	0	SURF	1412	n/a	n/a	1	0.57763671875	0.412841796875	1	lower	zerothre.ttf
2900.966	n/a	WORD	1450483	wordpools/wasnorm_wordpool.txt	LTP068	ltpFR	3	16	0	FEAST	556	n/a	n/a	1	0.57763671875	0.412841796875	1	lower	zerothre.ttf
2905.066	n/a	WORD	1452533	wordpools/wasnorm_wordpool.txt	LTP068	ltpFR	3	16	0	SLEIGH	1325	n/a	n/a	1	0.57763671875	0.412841796875	1	lower	zerothre.ttf
2908.916	n/a	WORD	1454458	wordpools/wasnorm_wordpool.txt	LTP068	ltpFR	3	16	0	MUSEUM	933	n/a	n/a	1	0.57763671875	0.412841796875	1	lower	zerothre.ttf
2912.9	n/a	WORD	1456450	wordpools/wasnorm_wordpool.txt	LTP068	ltpFR	3	16	0	BIBLE	124	n/a	n/a	n/a	0.57763671875	0.412841796875	1	lower	zerothre.ttf
2915.924	n/a	SLOW_MSG	1457962	n/a	LTP068	ltpFR	3	16	n/a	n/a	n/a	n/a	n/a	n/a	n/a	n/a	n/a	n/a	n/a
2918.474	n/a	WORD	1459237	wordpools/wasnorm_wordpool.txt	LTP068	ltpFR	3	16	0	CHARCOAL	281	n/a	n/a	0	0.57763671875	0.412841796875	1	lower	zerothre.ttf
2922.316	n/a	WORD	1461158	wordpools/wasnorm_wordpool.txt	LTP068	ltpFR	3	16	0	ANGEL	22	n/a	n/a	1	0.57763671875	0.412841796875	1	lower	zerothre.ttf
2926.166	n/a	WORD	1463083	wordpools/wasnorm_wordpool.txt	LTP068	ltpFR	3	16	0	PITCHFORK	1078	n/a	n/a	1	0.57763671875	0.412841796875	1	lower	zerothre.ttf
2930.016	n/a	WORD	1465008	wordpools/wasnorm_wordpool.txt	LTP068	ltpFR	3	16	0	PLIERS	1089	n/a	n/a	0	0.57763671875	0.412841796875	1	lower	zerothre.ttf
2933.908	n/a	WORD	1466954	wordpools/wasnorm_wordpool.txt	LTP068	ltpFR	3	16	0	BENCH	121	n/a	n/a	1	0.57763671875	0.412841796875	1	lower	zerothre.ttf
2937.732	n/a	WORD	1468866	wordpools/wasnorm_wordpool.txt	LTP068	ltpFR	3	16	0	TUXEDO	1525	n/a	n/a	0	0.57763671875	0.412841796875	1	lower	zerothre.ttf
2941.708	n/a	WORD	1470854	wordpools/wasnorm_wordpool.txt	LTP068	ltpFR	3	16	0	JUNGLE	764	n/a	n/a	1	0.57763671875	0.412841796875	1	lower	zerothre.ttf
2945.574	n/a	WORD	1472787	wordpools/wasnorm_wordpool.txt	LTP068	ltpFR	3	16	0	PALM	1007	n/a	n/a	1	0.57763671875	0.412841796875	1	lower	zerothre.ttf
2949.498	n/a	WORD	1474749	wordpools/wasnorm_wordpool.txt	LTP068	ltpFR	3	16	0	STOMACH	1384	n/a	n/a	1	0.57763671875	0.412841796875	1	lower	zerothre.ttf
2953.69	n/a	WORD	1476845	wordpools/wasnorm_wordpool.txt	LTP068	ltpFR	3	16	0	SEAT	1264	n/a	n/a	1	0.57763671875	0.412841796875	1	lower	zerothre.ttf
2959.408	n/a	REC_START	1479704	n/a	LTP068	ltpFR	3	16	n/a	n/a	n/a	n/a	n/a	n/a	n/a	n/a	n/a	n/a	n/a
2961.144	n/a	REC_WORD	1480572	wordpools/wasnorm_wordpool.txt	LTP068	ltpFR	3	16	0	BENCH	121	n/a	n/a	1	n/a	n/a	n/a	n/a	n/a
2962.292	n/a	REC_WORD	1481146	wordpools/wasnorm_wordpool.txt	LTP068	ltpFR	3	16	0	TUXEDO	1525	n/a	n/a	0	n/a	n/a	n/a	n/a	n/a
2963.874	n/a	REC_WORD	1481937	wordpools/wasnorm_wordpool.txt	LTP068	ltpFR	3	16	0	PLIERS	1089	n/a	n/a	0	n/a	n/a	n/a	n/a	n/a
2965.334	n/a	REC_WORD	1482667	wordpools/wasnorm_wordpool.txt	LTP068	ltpFR	3	16	0	PALM	1007	n/a	n/a	1	n/a	n/a	n/a	n/a	n/a
2973.582	n/a	REC_WORD	1486791	wordpools/wasnorm_wordpool.txt	LTP068	ltpFR	3	16	0	PHILOSOPHER	1054	n/a	n/a	1	n/a	n/a	n/a	n/a	n/a
2983.226	n/a	REC_WORD_VV	1491613	wordpools/wasnorm_wordpool.txt	LTP068	ltpFR	3	16	n/a	<>	-1	n/a	n/a	n/a	n/a	n/a	n/a	n/a	n/a
2985.504	n/a	REC_WORD	1492752	wordpools/wasnorm_wordpool.txt	LTP068	ltpFR	3	16	0	PITCHFORK	1078	n/a	n/a	1	n/a	n/a	n/a	n/a	n/a
2988.656	n/a	REC_WORD	1494328	wordpools/wasnorm_wordpool.txt	LTP068	ltpFR	3	16	0	BIBLE	124	n/a	n/a	n/a	n/a	n/a	n/a	n/a	n/a
3052.772	n/a	REC_START	1526386	n/a	LTP068	ltpFR	3	1	n/a	n/a	n/a	n/a	n/a	n/a	n/a	n/a	n/a	n/a	n/a
3052.804	n/a	RECOG_TARGET	1526402	n/a	LTP068	ltpFR	3	1	0	UNIVERSE	1540	1	5	1	n/a	n/a	n/a	n/a	n/a
3054.058	n/a	RECOG_RESP	1527029	n/a	LTP068	ltpFR	3	1	0	UNIVERSE	1540	1	n/a	1	n/a	n/a	n/a	n/a	n/a
3055.71	n/a	RECOG_CONF	1527855	n/a	LTP068	ltpFR	3	1	0	UNIVERSE	1540	n/a	5	1	n/a	n/a	n/a	n/a	n/a
3057.162	n/a	RECOG_LURE	1528581	n/a	LTP068	ltpFR	3	1	n/a	HAND	683	0	5	n/a	n/a	n/a	n/a	n/a	n/a
3057.89	n/a	RECOG_RESP	1528945	n/a	LTP068	ltpFR	3	1	n/a	HAND	683	0	n/a	n/a	n/a	n/a	n/a	n/a	n/a
3058.702	n/a	RECOG_CONF	1529351	n/a	LTP068	ltpFR	3	1	n/a	HAND	683	n/a	5	n/a	n/a	n/a	n/a	n/a	n/a
3059.978	n/a	RECOG_TARGET	1529989	n/a	LTP068	ltpFR	3	1	0	NERVE	944	1	5	0	n/a	n/a	n/a	n/a	n/a
3060.644	n/a	RECOG_RESP	1530322	n/a	LTP068	ltpFR	3	1	0	NERVE	944	1	n/a	0	n/a	n/a	n/a	n/a	n/a
3061.322	n/a	RECOG_CONF	1530661	n/a	LTP068	ltpFR	3	1	0	NERVE	944	n/a	5	0	n/a	n/a	n/a	n/a	n/a
3062.68	n/a	RECOG_TARGET	1531340	n/a	LTP068	ltpFR	3	1	0	PUPIL	1143	1	5	0	n/a	n/a	n/a	n/a	n/a
3063.254	n/a	RECOG_RESP	1531627	n/a	LTP068	ltpFR	3	1	0	PUPIL	1143	1	n/a	0	n/a	n/a	n/a	n/a	n/a
3063.904	n/a	RECOG_CONF	1531952	n/a	LTP068	ltpFR	3	1	0	PUPIL	1143	n/a	5	0	n/a	n/a	n/a	n/a	n/a
3065.188	n/a	RECOG_TARGET	1532594	n/a	LTP068	ltpFR	3	1	0	JUNGLE	764	1	5	1	n/a	n/a	n/a	n/a	n/a
3065.758	n/a	RECOG_RESP	1532879	n/a	LTP068	ltpFR	3	1	0	JUNGLE	764	1	n/a	1	n/a	n/a	n/a	n/a	n/a
3066.314	n/a	RECOG_CONF	1533157	n/a	LTP068	ltpFR	3	1	0	JUNGLE	764	n/a	5	1	n/a	n/a	n/a	n/a	n/a
3067.746	n/a	RECOG_LURE	1533873	n/a	LTP068	ltpFR	3	1	n/a	TIE	1466	0	4	n/a	n/a	n/a	n/a	n/a	n/a
3068.446	n/a	RECOG_RESP	1534223	n/a	LTP068	ltpFR	3	1	n/a	TIE	1466	0	n/a	n/a	n/a	n/a	n/a	n/a	n/a
3069.13	n/a	RECOG_CONF	1534565	n/a	LTP068	ltpFR	3	1	n/a	TIE	1466	n/a	4	n/a	n/a	n/a	n/a	n/a	n/a
3070.278	n/a	RECOG_TARGET	1535139	n/a	LTP068	ltpFR	3	1	-1	TREAD	1499	0	3	-1	n/a	n/a	n/a	n/a	n/a
3070.916	n/a	RECOG_RESP	1535458	n/a	LTP068	ltpFR	3	1	-1	TREAD	1499	0	n/a	-1	n/a	n/a	n/a	n/a	n/a
3071.474	n/a	RECOG_CONF	1535737	n/a	LTP068	ltpFR	3	1	-1	TREAD	1499	n/a	3	-1	n/a	n/a	n/a	n/a	n/a
3072.904	n/a	RECOG_TARGET	1536452	n/a	LTP068	ltpFR	3	1	0	CANYON	235	1	5	1	n/a	n/a	n/a	n/a	n/a
3073.49	n/a	RECOG_RESP	1536745	n/a	LTP068	ltpFR	3	1	0	CANYON	235	1	n/a	1	n/a	n/a	n/a	n/a	n/a
3074.124	n/a	RECOG_CONF	1537062	n/a	LTP068	ltpFR	3	1	0	CANYON	235	n/a	5	1	n/a	n/a	n/a	n/a	n/a
3075.336	n/a	RECOG_TARGET	1537668	n/a	LTP068	ltpFR	3	1	0	PASTRY	1022	1	5	0	n/a	n/a	n/a	n/a	n/a
3075.984	n/a	RECOG_RESP	1537992	n/a	LTP068	ltpFR	3	1	0	PASTRY	1022	1	n/a	0	n/a	n/a	n/a	n/a	n/a
3076.574	n/a	RECOG_CONF	1538287	n/a	LTP068	ltpFR	3	1	0	PASTRY	1022	n/a	5	0	n/a	n/a	n/a	n/a	n/a
3077.928	n/a	RECOG_TARGET	1538964	n/a	LTP068	ltpFR	3	1	-1	CROCODILE	411	1	2	-1	n/a	n/a	n/a	n/a	n/a
3078.818	n/a	RECOG_RESP	1539409	n/a	LTP068	ltpFR	3	1	-1	CROCODILE	411	1	n/a	-1	n/a	n/a	n/a	n/a	n/a
3079.436	n/a	RECOG_CONF	1539718	n/a	LTP068	ltpFR	3	1	-1	CROCODILE	411	n/a	2	-1	n/a	n/a	n/a	n/a	n/a
3080.786	n/a	RECOG_TARGET	1540393	n/a	LTP068	ltpFR	3	1	-1	CUE	422	1	5	-1	n/a	n/a	n/a	n/a	n/a
3081.252	n/a	RECOG_RESP	1540626	n/a	LTP068	ltpFR	3	1	-1	CUE	422	1	n/a	-1	n/a	n/a	n/a	n/a	n/a
3081.842	n/a	RECOG_CONF	1540921	n/a	LTP068	ltpFR	3	1	-1	CUE	422	n/a	5	-1	n/a	n/a	n/a	n/a	n/a
3083.238	n/a	RECOG_LURE	1541619	n/a	LTP068	ltpFR	3	1	n/a	UNICORN	1538	0	5	n/a	n/a	n/a	n/a	n/a	n/a
3083.978	n/a	RECOG_RESP	1541989	n/a	LTP068	ltpFR	3	1	n/a	UNICORN	1538	0	n/a	n/a	n/a	n/a	n/a	n/a	n/a
3084.592	n/a	RECOG_CONF	1542296	n/a	LTP068	ltpFR	3	1	n/a	UNICORN	1538	n/a	5	n/a	n/a	n/a	n/a	n/a	n/a
3085.92	n/a	RECOG_TARGET	1542960	n/a	LTP068	ltpFR	3	1	1	CRICKET	408	1	5	1	n/a	n/a	n/a	n/a	n/a
3086.392	n/a	RECOG_RESP	1543196	n/a	LTP068	ltpFR	3	1	1	CRICKET	408	1	n/a	1	n/a	n/a	n/a	n/a	n/a
3087.028	n/a	RECOG_CONF	1543514	n/a	LTP068	ltpFR	3	1	1	CRICKET	408	n/a	5	1	n/a	n/a	n/a	n/a	n/a
3088.262	n/a	RECOG_TARGET	1544131	n/a	LTP068	ltpFR	3	1	1	PAN	1008	1	5	0	n/a	n/a	n/a	n/a	n/a
3088.742	n/a	RECOG_RESP	1544371	n/a	LTP068	ltpFR	3	1	1	PAN	1008	1	n/a	0	n/a	n/a	n/a	n/a	n/a
3089.326	n/a	RECOG_CONF	1544663	n/a	LTP068	ltpFR	3	1	1	PAN	1008	n/a	5	0	n/a	n/a	n/a	n/a	n/a
3090.612	n/a	RECOG_TARGET	1545306	n/a	LTP068	ltpFR	3	1	-1	RACK	1154	1	2	-1	n/a	n/a	n/a	n/a	n/a
3091.67	n/a	RECOG_RESP	1545835	n/a	LTP068	ltpFR	3	1	-1	RACK	1154	1	n/a	-1	n/a	n/a	n/a	n/a	n/a
3092.418	n/a	RECOG_CONF	1546209	n/a	LTP068	ltpFR	3	1	-1	RACK	1154	n/a	2	-1	n/a	n/a	n/a	n/a	n/a
3093.586	n/a	RECOG_TARGET	1546793	n/a	LTP068	ltpFR	3	1	1	BOXER	160	0	4	1	n/a	n/a	n/a	n/a	n/a
3094.324	n/a	RECOG_RESP	1547162	n/a	LTP068	ltpFR	3	1	1	BOXER	160	0	n/a	1	n/a	n/a	n/a	n/a	n/a
3094.802	n/a	RECOG_CONF	1547401	n/a	LTP068	ltpFR	3	1	1	BOXER	160	n/a	4	1	n/a	n/a	n/a	n/a	n/a
3096.262	n/a	RECOG_TARGET	1548131	n/a	LTP068	ltpFR	3	1	-1	CLIPPERS	324	1	5	-1	n/a	n/a	n/a	n/a	n/a
3097.098	n/a	RECOG_RESP	1548549	n/a	LTP068	ltpFR	3	1	-1	CLIPPERS	324	1	n/a	-1	n/a	n/a	n/a	n/a	n/a
3097.734	n/a	RECOG_CONF	1548867	n/a	LTP068	ltpFR	3	1	-1	CLIPPERS	324	n/a	5	-1	n/a	n/a	n/a	n/a	n/a
3099.07	n/a	RECOG_LURE	1549535	n/a	LTP068	ltpFR	3	1	n/a	WHEAT	1602	0	5	n/a	n/a	n/a	n/a	n/a	n/a
3099.722	n/a	RECOG_RESP	1549861	n/a	LTP068	ltpFR	3	1	n/a	WHEAT	1602	0	n/a	n/a	n/a	n/a	n/a	n/a	n/a
3100.286	n/a	RECOG_CONF	1550143	n/a	LTP068	ltpFR	3	1	n/a	WHEAT	1602	n/a	5	n/a	n/a	n/a	n/a	n/a	n/a
3101.636	n/a	RECOG_TARGET	1550818	n/a	LTP068	ltpFR	3	1	0	HERB	704	1	5	0	n/a	n/a	n/a	n/a	n/a
3102.2	n/a	RECOG_RESP	1551100	n/a	LTP068	ltpFR	3	1	0	HERB	704	1	n/a	0	n/a	n/a	n/a	n/a	n/a
3102.76	n/a	RECOG_CONF	1551380	n/a	LTP068	ltpFR	3	1	0	HERB	704	n/a	5	0	n/a	n/a	n/a	n/a	n/a
3104.096	n/a	RECOG_TARGET	1552048	n/a	LTP068	ltpFR	3	1	1	CATERPILLAR	259	1	5	1	n/a	n/a	n/a	n/a	n/a
3104.99	n/a	RECOG_RESP	1552495	n/a	LTP068	ltpFR	3	1	1	CATERPILLAR	259	1	n/a	1	n/a	n/a	n/a	n/a	n/a
3105.612	n/a	RECOG_CONF	1552806	n/a	LTP068	ltpFR	3	1	1	CATERPILLAR	259	n/a	5	1	n/a	n/a	n/a	n/a	n/a
3108.448	n/a	REC_START	1554224	n/a	LTP068	ltpFR	3	2	n/a	n/a	n/a	n/a	n/a	n/a	n/a	n/a	n/a	n/a	n/a
3108.478	n/a	RECOG_TARGET	1554239	n/a	LTP068	ltpFR	3	2	0	HIP	710	1	5	1	n/a	n/a	n/a	n/a	n/a
3109.102	n/a	RECOG_RESP	1554551	n/a	LTP068	ltpFR	3	2	0	HIP	710	1	n/a	1	n/a	n/a	n/a	n/a	n/a
3109.742	n/a	RECOG_CONF	1554871	n/a	LTP068	ltpFR	3	2	0	HIP	710	n/a	5	1	n/a	n/a	n/a	n/a	n/a
3110.986	n/a	RECOG_LURE	1555493	n/a	LTP068	ltpFR	3	2	n/a	YACHT	1629	0	5	n/a	n/a	n/a	n/a	n/a	n/a
3111.586	n/a	RECOG_RESP	1555793	n/a	LTP068	ltpFR	3	2	n/a	YACHT	1629	0	n/a	n/a	n/a	n/a	n/a	n/a	n/a
3112.084	n/a	RECOG_CONF	1556042	n/a	LTP068	ltpFR	3	2	n/a	YACHT	1629	n/a	5	n/a	n/a	n/a	n/a	n/a	n/a
3113.378	n/a	RECOG_LURE	1556689	n/a	LTP068	ltpFR	3	2	n/a	SKI	1316	0	5	n/a	n/a	n/a	n/a	n/a	n/a
3114.106	n/a	RECOG_RESP	1557053	n/a	LTP068	ltpFR	3	2	n/a	SKI	1316	0	n/a	n/a	n/a	n/a	n/a	n/a	n/a
3114.686	n/a	RECOG_CONF	1557343	n/a	LTP068	ltpFR	3	2	n/a	SKI	1316	n/a	5	n/a	n/a	n/a	n/a	n/a	n/a
3116.086	n/a	RECOG_TARGET	1558043	n/a	LTP068	ltpFR	3	2	1	SOLDIER	1344	1	5	1	n/a	n/a	n/a	n/a	n/a
3116.704	n/a	RECOG_RESP	1558352	n/a	LTP068	ltpFR	3	2	1	SOLDIER	1344	1	n/a	1	n/a	n/a	n/a	n/a	n/a
3117.28	n/a	RECOG_CONF	1558640	n/a	LTP068	ltpFR	3	2	1	SOLDIER	1344	n/a	5	1	n/a	n/a	n/a	n/a	n/a
3118.686	n/a	RECOG_TARGET	1559343	n/a	LTP068	ltpFR	3	2	1	BILL	126	1	2	1	n/a	n/a	n/a	n/a	n/a
3119.622	n/a	RECOG_RESP	1559811	n/a	LTP068	ltpFR	3	2	1	BILL	126	1	n/a	1	n/a	n/a	n/a	n/a	n/a
3120.208	n/a	RECOG_CONF	1560104	n/a	LTP068	ltpFR	3	2	1	BILL	126	n/a	2	1	n/a	n/a	n/a	n/a	n/a
3121.528	n/a	RECOG_LURE	1560764	n/a	LTP068	ltpFR	3	2	n/a	BLUEPRINT	142	1	1	n/a	n/a	n/a	n/a	n/a	n/a
3122.482	n/a	RECOG_RESP	1561241	n/a	LTP068	ltpFR	3	2	n/a	BLUEPRINT	142	1	n/a	n/a	n/a	n/a	n/a	n/a	n/a
3123.22	n/a	RECOG_CONF	1561610	n/a	LTP068	ltpFR	3	2	n/a	BLUEPRINT	142	n/a	1	n/a	n/a	n/a	n/a	n/a	n/a
3124.486	n/a	RECOG_LURE	1562243	n/a	LTP068	ltpFR	3	2	n/a	FRIEND	606	0	4	n/a	n/a	n/a	n/a	n/a	n/a
3125.854	n/a	RECOG_RESP	1562927	n/a	LTP068	ltpFR	3	2	n/a	FRIEND	606	0	n/a	n/a	n/a	n/a	n/a	n/a	n/a
3126.356	n/a	RECOG_CONF	1563178	n/a	LTP068	ltpFR	3	2	n/a	FRIEND	606	n/a	4	n/a	n/a	n/a	n/a	n/a	n/a
3127.736	n/a	RECOG_TARGET	1563868	n/a	LTP068	ltpFR	3	2	1	HATCHET	691	1	5	0	n/a	n/a	n/a	n/a	n/a
3128.25	n/a	RECOG_RESP	1564125	n/a	LTP068	ltpFR	3	2	1	HATCHET	691	1	n/a	0	n/a	n/a	n/a	n/a	n/a
3128.816	n/a	RECOG_CONF	1564408	n/a	LTP068	ltpFR	3	2	1	HATCHET	691	n/a	5	0	n/a	n/a	n/a	n/a	n/a
3130.194	n/a	RECOG_TARGET	1565097	n/a	LTP068	ltpFR	3	2	0	KEG	770	1	5	1	n/a	n/a	n/a	n/a	n/a
3130.654	n/a	RECOG_RESP	1565327	n/a	LTP068	ltpFR	3	2	0	KEG	770	1	n/a	1	n/a	n/a	n/a	n/a	n/a
3131.362	n/a	RECOG_CONF	1565681	n/a	LTP068	ltpFR	3	2	0	KEG	770	n/a	5	1	n/a	n/a	n/a	n/a	n/a
3132.652	n/a	RECOG_TARGET	1566326	n/a	LTP068	ltpFR	3	2	1	CONDUCTOR	362	0	2	1	n/a	n/a	n/a	n/a	n/a
3134.23	n/a	RECOG_RESP	1567115	n/a	LTP068	ltpFR	3	2	1	CONDUCTOR	362	0	n/a	1	n/a	n/a	n/a	n/a	n/a
3135.024	n/a	RECOG_CONF	1567512	n/a	LTP068	ltpFR	3	2	1	CONDUCTOR	362	n/a	2	1	n/a	n/a	n/a	n/a	n/a
3136.252	n/a	RECOG_LURE	1568126	n/a	LTP068	ltpFR	3	2	n/a	HUMAN	726	1	1	n/a	n/a	n/a	n/a	n/a	n/a
3137.928	n/a	RECOG_RESP	1568964	n/a	LTP068	ltpFR	3	2	n/a	HUMAN	726	1	n/a	n/a	n/a	n/a	n/a	n/a	n/a
3138.776	n/a	RECOG_CONF	1569388	n/a	LTP068	ltpFR	3	2	n/a	HUMAN	726	n/a	1	n/a	n/a	n/a	n/a	n/a	n/a
3140.102	n/a	RECOG_TARGET	1570051	n/a	LTP068	ltpFR	3	2	0	SLACKS	1323	1	5	0	n/a	n/a	n/a	n/a	n/a
3141.03	n/a	RECOG_RESP	1570515	n/a	LTP068	ltpFR	3	2	0	SLACKS	1323	1	n/a	0	n/a	n/a	n/a	n/a	n/a
3141.668	n/a	RECOG_CONF	1570834	n/a	LTP068	ltpFR	3	2	0	SLACKS	1323	n/a	5	0	n/a	n/a	n/a	n/a	n/a
3142.968	n/a	RECOG_TARGET	1571484	n/a	LTP068	ltpFR	3	2	1	SQUIRREL	1362	1	5	1	n/a	n/a	n/a	n/a	n/a
3143.834	n/a	RECOG_RESP	1571917	n/a	LTP068	ltpFR	3	2	1	SQUIRREL	1362	1	n/a	1	n/a	n/a	n/a	n/a	n/a
3144.448	n/a	RECOG_CONF	1572224	n/a	LTP068	ltpFR	3	2	1	SQUIRREL	1362	n/a	5	1	n/a	n/a	n/a	n/a	n/a
3145.794	n/a	RECOG_TARGET	1572897	n/a	LTP068	ltpFR	3	2	1	COLOGNE	347	1	5	0	n/a	n/a	n/a	n/a	n/a
3146.438	n/a	RECOG_RESP	1573219	n/a	LTP068	ltpFR	3	2	1	COLOGNE	347	1	n/a	0	n/a	n/a	n/a	n/a	n/a
3147.052	n/a	RECOG_CONF	1573526	n/a	LTP068	ltpFR	3	2	1	COLOGNE	347	n/a	5	0	n/a	n/a	n/a	n/a	n/a
3148.502	n/a	RECOG_TARGET	1574251	n/a	LTP068	ltpFR	3	2	0	BOWL	158	1	5	0	n/a	n/a	n/a	n/a	n/a
3149.772	n/a	RECOG_RESP	1574886	n/a	LTP068	ltpFR	3	2	0	BOWL	158	1	n/a	0	n/a	n/a	n/a	n/a	n/a
3150.524	n/a	RECOG_CONF	1575262	n/a	LTP068	ltpFR	3	2	0	BOWL	158	n/a	5	0	n/a	n/a	n/a	n/a	n/a
3151.91	n/a	RECOG_TARGET	1575955	n/a	LTP068	ltpFR	3	2	1	PEDESTRIAN	1038	1	1	1	n/a	n/a	n/a	n/a	n/a
3152.614	n/a	RECOG_RESP	1576307	n/a	LTP068	ltpFR	3	2	1	PEDESTRIAN	1038	1	n/a	1	n/a	n/a	n/a	n/a	n/a
3153.274	n/a	RECOG_CONF	1576637	n/a	LTP068	ltpFR	3	2	1	PEDESTRIAN	1038	n/a	1	1	n/a	n/a	n/a	n/a	n/a
3154.594	n/a	RECOG_TARGET	1577297	n/a	LTP068	ltpFR	3	2	1	BROOM	178	1	5	0	n/a	n/a	n/a	n/a	n/a
3155.258	n/a	RECOG_RESP	1577629	n/a	LTP068	ltpFR	3	2	1	BROOM	178	1	n/a	0	n/a	n/a	n/a	n/a	n/a
3155.896	n/a	RECOG_CONF	1577948	n/a	LTP068	ltpFR	3	2	1	BROOM	178	n/a	5	0	n/a	n/a	n/a	n/a	n/a
3157.386	n/a	RECOG_TARGET	1578693	n/a	LTP068	ltpFR	3	2	-1	MONASTERY	907	1	5	-1	n/a	n/a	n/a	n/a	n/a
3158.692	n/a	RECOG_RESP	1579346	n/a	LTP068	ltpFR	3	2	-1	MONASTERY	907	1	n/a	-1	n/a	n/a	n/a	n/a	n/a
3159.52	n/a	RECOG_CONF	1579760	n/a	LTP068	ltpFR	3	2	-1	MONASTERY	907	n/a	5	-1	n/a	n/a	n/a	n/a	n/a
3160.802	n/a	RECOG_TARGET	1580401	n/a	LTP068	ltpFR	3	2	0	PROFESSOR	1131	1	4	1	n/a	n/a	n/a	n/a	n/a
3161.574	n/a	RECOG_RESP	1580787	n/a	LTP068	ltpFR	3	2	0	PROFESSOR	1131	1	n/a	1	n/a	n/a	n/a	n/a	n/a
3162.552	n/a	RECOG_CONF	1581276	n/a	LTP068	ltpFR	3	2	0	PROFESSOR	1131	n/a	4	1	n/a	n/a	n/a	n/a	n/a
3163.802	n/a	RECOG_LURE	1581901	n/a	LTP068	ltpFR	3	2	n/a	FARM	552	0	1	n/a	n/a	n/a	n/a	n/a	n/a
3164.628	n/a	RECOG_RESP	1582314	n/a	LTP068	ltpFR	3	2	n/a	FARM	552	0	n/a	n/a	n/a	n/a	n/a	n/a	n/a
3165.646	n/a	RECOG_CONF	1582823	n/a	LTP068	ltpFR	3	2	n/a	FARM	552	n/a	1	n/a	n/a	n/a	n/a	n/a	n/a
3168.652	n/a	REC_START	1584326	n/a	LTP068	ltpFR	3	3	n/a	n/a	n/a	n/a	n/a	n/a	n/a	n/a	n/a	n/a	n/a
3168.686	n/a	RECOG_TARGET	1584343	n/a	LTP068	ltpFR	3	3	-1	MEDAL	885	0	2	-1	n/a	n/a	n/a	n/a	n/a
3170.094	n/a	RECOG_RESP	1585047	n/a	LTP068	ltpFR	3	3	-1	MEDAL	885	0	n/a	-1	n/a	n/a	n/a	n/a	n/a
3170.802	n/a	RECOG_CONF	1585401	n/a	LTP068	ltpFR	3	3	-1	MEDAL	885	n/a	2	-1	n/a	n/a	n/a	n/a	n/a
3172.036	n/a	RECOG_TARGET	1586018	n/a	LTP068	ltpFR	3	3	0	STEAM	1375	1	5	0	n/a	n/a	n/a	n/a	n/a
3172.738	n/a	RECOG_RESP	1586369	n/a	LTP068	ltpFR	3	3	0	STEAM	1375	1	n/a	0	n/a	n/a	n/a	n/a	n/a
3173.406	n/a	RECOG_CONF	1586703	n/a	LTP068	ltpFR	3	3	0	STEAM	1375	n/a	5	0	n/a	n/a	n/a	n/a	n/a
3174.744	n/a	RECOG_TARGET	1587372	n/a	LTP068	ltpFR	3	3	1	COYOTE	396	1	4	1	n/a	n/a	n/a	n/a	n/a
3177.128	n/a	RECOG_RESP	1588564	n/a	LTP068	ltpFR	3	3	1	COYOTE	396	1	n/a	1	n/a	n/a	n/a	n/a	n/a
3177.766	n/a	RECOG_CONF	1588883	n/a	LTP068	ltpFR	3	3	1	COYOTE	396	n/a	4	1	n/a	n/a	n/a	n/a	n/a
3179.102	n/a	RECOG_TARGET	1589551	n/a	LTP068	ltpFR	3	3	1	GOLD	647	0	1	0	n/a	n/a	n/a	n/a	n/a
3180.52	n/a	RECOG_RESP	1590260	n/a	LTP068	ltpFR	3	3	1	GOLD	647	0	n/a	0	n/a	n/a	n/a	n/a	n/a
3181.218	n/a	RECOG_CONF	1590609	n/a	LTP068	ltpFR	3	3	1	GOLD	647	n/a	1	0	n/a	n/a	n/a	n/a	n/a
3182.55	n/a	RECOG_TARGET	1591275	n/a	LTP068	ltpFR	3	3	0	CAFETERIA	217	1	5	1	n/a	n/a	n/a	n/a	n/a
3183.782	n/a	RECOG_RESP	1591891	n/a	LTP068	ltpFR	3	3	0	CAFETERIA	217	1	n/a	1	n/a	n/a	n/a	n/a	n/a
3184.42	n/a	RECOG_CONF	1592210	n/a	LTP068	ltpFR	3	3	0	CAFETERIA	217	n/a	5	1	n/a	n/a	n/a	n/a	n/a
3185.8	n/a	RECOG_TARGET	1592900	n/a	LTP068	ltpFR	3	3	1	MARROW	872	1	5	0	n/a	n/a	n/a	n/a	n/a
3186.496	n/a	RECOG_RESP	1593248	n/a	LTP068	ltpFR	3	3	1	MARROW	872	1	n/a	0	n/a	n/a	n/a	n/a	n/a
3187.072	n/a	RECOG_CONF	1593536	n/a	LTP068	ltpFR	3	3	1	MARROW	872	n/a	5	0	n/a	n/a	n/a	n/a	n/a
3188.55	n/a	RECOG_TARGET	1594275	n/a	LTP068	ltpFR	3	3	0	SANDWICH	1232	1	2	0	n/a	n/a	n/a	n/a	n/a
3190.812	n/a	RECOG_RESP	1595406	n/a	LTP068	ltpFR	3	3	0	SANDWICH	1232	1	n/a	0	n/a	n/a	n/a	n/a	n/a
3191.626	n/a	RECOG_CONF	1595813	n/a	LTP068	ltpFR	3	3	0	SANDWICH	1232	n/a	2	0	n/a	n/a	n/a	n/a	n/a
3192.934	n/a	RECOG_LURE	1596467	n/a	LTP068	ltpFR	3	3	n/a	ROCKET	1202	0	1	n/a	n/a	n/a	n/a	n/a	n/a
3194.43	n/a	RECOG_RESP	1597215	n/a	LTP068	ltpFR	3	3	n/a	ROCKET	1202	0	n/a	n/a	n/a	n/a	n/a	n/a	n/a
3195.228	n/a	RECOG_CONF	1597614	n/a	LTP068	ltpFR	3	3	n/a	ROCKET	1202	n/a	1	n/a	n/a	n/a	n/a	n/a	n/a
3196.61	n/a	RECOG_LURE	1598305	n/a	LTP068	ltpFR	3	3	n/a	CAP	236	1	2	n/a	n/a	n/a	n/a	n/a	n/a
3197.114	n/a	RECOG_RESP	1598557	n/a	LTP068	ltpFR	3	3	n/a	CAP	236	1	n/a	n/a	n/a	n/a	n/a	n/a	n/a
3198.022	n/a	RECOG_CONF	1599011	n/a	LTP068	ltpFR	3	3	n/a	CAP	236	n/a	2	n/a	n/a	n/a	n/a	n/a	n/a
3199.318	n/a	RECOG_TARGET	1599659	n/a	LTP068	ltpFR	3	3	1	SCIENTIST	1249	0	1	1	n/a	n/a	n/a	n/a	n/a
3200.77	n/a	RECOG_RESP	1600385	n/a	LTP068	ltpFR	3	3	1	SCIENTIST	1249	0	n/a	1	n/a	n/a	n/a	n/a	n/a
3202.032	n/a	RECOG_CONF	1601016	n/a	LTP068	ltpFR	3	3	1	SCIENTIST	1249	n/a	1	1	n/a	n/a	n/a	n/a	n/a
3203.258	n/a	RECOG_TARGET	1601629	n/a	LTP068	ltpFR	3	3	-1	CRAYON	401	1	5	-1	n/a	n/a	n/a	n/a	n/a
3204.546	n/a	RECOG_RESP	1602273	n/a	LTP068	ltpFR	3	3	-1	CRAYON	401	1	n/a	-1	n/a	n/a	n/a	n/a	n/a
3205.23	n/a	RECOG_CONF	1602615	n/a	LTP068	ltpFR	3	3	-1	CRAYON	401	n/a	5	-1	n/a	n/a	n/a	n/a	n/a
3206.584	n/a	RECOG_LURE	1603292	n/a	LTP068	ltpFR	3	3	n/a	CAMERA	224	0	2	n/a	n/a	n/a	n/a	n/a	n/a
3208.402	n/a	RECOG_RESP	1604201	n/a	LTP068	ltpFR	3	3	n/a	CAMERA	224	0	n/a	n/a	n/a	n/a	n/a	n/a	n/a
3209.086	n/a	RECOG_CONF	1604543	n/a	LTP068	ltpFR	3	3	n/a	CAMERA	224	n/a	2	n/a	n/a	n/a	n/a	n/a	n/a
3210.334	n/a	RECOG_LURE	1605167	n/a	LTP068	ltpFR	3	3	n/a	FISH	571	0	2	n/a	n/a	n/a	n/a	n/a	n/a
3211.432	n/a	RECOG_RESP	1605716	n/a	LTP068	ltpFR	3	3	n/a	FISH	571	0	n/a	n/a	n/a	n/a	n/a	n/a	n/a
3212.11	n/a	RECOG_CONF	1606055	n/a	LTP068	ltpFR	3	3	n/a	FISH	571	n/a	2	n/a	n/a	n/a	n/a	n/a	n/a
3213.31	n/a	RECOG_TARGET	1606655	n/a	LTP068	ltpFR	3	3	1	THIGH	1457	1	5	0	n/a	n/a	n/a	n/a	n/a
3214.146	n/a	RECOG_RESP	1607073	n/a	LTP068	ltpFR	3	3	1	THIGH	1457	1	n/a	0	n/a	n/a	n/a	n/a	n/a
3214.912	n/a	RECOG_CONF	1607456	n/a	LTP068	ltpFR	3	3	1	THIGH	1457	n/a	5	0	n/a	n/a	n/a	n/a	n/a
3216.152	n/a	RECOG_TARGET	1608076	n/a	LTP068	ltpFR	3	3	1	PILOT	1070	1	2	1	n/a	n/a	n/a	n/a	n/a
3219.394	n/a	RECOG_RESP	1609697	n/a	LTP068	ltpFR	3	3	1	PILOT	1070	1	n/a	1	n/a	n/a	n/a	n/a	n/a
3220.216	n/a	RECOG_CONF	1610108	n/a	LTP068	ltpFR	3	3	1	PILOT	1070	n/a	2	1	n/a	n/a	n/a	n/a	n/a
3221.542	n/a	RECOG_TARGET	1610771	n/a	LTP068	ltpFR	3	3	1	BULLET	194	1	5	0	n/a	n/a	n/a	n/a	n/a
3222.748	n/a	RECOG_RESP	1611374	n/a	LTP068	ltpFR	3	3	1	BULLET	194	1	n/a	0	n/a	n/a	n/a	n/a	n/a
3223.468	n/a	RECOG_CONF	1611734	n/a	LTP068	ltpFR	3	3	1	BULLET	194	n/a	5	0	n/a	n/a	n/a	n/a	n/a
3225.05	n/a	RECOG_LURE	1612525	n/a	LTP068	ltpFR	3	3	n/a	RAISIN	1163	0	2	n/a	n/a	n/a	n/a	n/a	n/a
3226.308	n/a	RECOG_RESP	1613154	n/a	LTP068	ltpFR	3	3	n/a	RAISIN	1163	0	n/a	n/a	n/a	n/a	n/a	n/a	n/a
3227.166	n/a	RECOG_CONF	1613583	n/a	LTP068	ltpFR	3	3	n/a	RAISIN	1163	n/a	2	n/a	n/a	n/a	n/a	n/a	n/a
3228.358	n/a	RECOG_LURE	1614179	n/a	LTP068	ltpFR	3	3	n/a	CAKE	219	1	2	n/a	n/a	n/a	n/a	n/a	n/a
3229.312	n/a	RECOG_RESP	1614656	n/a	LTP068	ltpFR	3	3	n/a	CAKE	219	1	n/a	n/a	n/a	n/a	n/a	n/a	n/a
3230.12	n/a	RECOG_CONF	1615060	n/a	LTP068	ltpFR	3	3	n/a	CAKE	219	n/a	2	n/a	n/a	n/a	n/a	n/a	n/a
3231.424	n/a	RECOG_LURE	1615712	n/a	LTP068	ltpFR	3	3	n/a	STONE	1385	0	1	n/a	n/a	n/a	n/a	n/a	n/a
3232.48	n/a	RECOG_RESP	1616240	n/a	LTP068	ltpFR	3	3	n/a	STONE	1385	0	n/a	n/a	n/a	n/a	n/a	n/a	n/a
3233.284	n/a	RECOG_CONF	1616642	n/a	LTP068	ltpFR	3	3	n/a	STONE	1385	n/a	1	n/a	n/a	n/a	n/a	n/a	n/a
3234.616	n/a	RECOG_TARGET	1617308	n/a	LTP068	ltpFR	3	3	1	TORNADO	1485	1	3	0	n/a	n/a	n/a	n/a	n/a
3235.598	n/a	RECOG_RESP	1617799	n/a	LTP068	ltpFR	3	3	1	TORNADO	1485	1	n/a	0	n/a	n/a	n/a	n/a	n/a
3236.326	n/a	RECOG_CONF	1618163	n/a	LTP068	ltpFR	3	3	1	TORNADO	1485	n/a	3	0	n/a	n/a	n/a	n/a	n/a
3239.914	n/a	REC_START	1619957	n/a	LTP068	ltpFR	3	4	n/a	n/a	n/a	n/a	n/a	n/a	n/a	n/a	n/a	n/a	n/a
3239.95	n/a	RECOG_LURE	1619975	n/a	LTP068	ltpFR	3	4	n/a	PACKAGE	997	0	2	n/a	n/a	n/a	n/a	n/a	n/a
3242.124	n/a	RECOG_RESP	1621062	n/a	LTP068	ltpFR	3	4	n/a	PACKAGE	997	0	n/a	n/a	n/a	n/a	n/a	n/a	n/a
3243.032	n/a	RECOG_CONF	1621516	n/a	LTP068	ltpFR	3	4	n/a	PACKAGE	997	n/a	2	n/a	n/a	n/a	n/a	n/a	n/a
3244.35	n/a	RECOG_TARGET	1622175	n/a	LTP068	ltpFR	3	4	1	OREGANO	983	1	5	0	n/a	n/a	n/a	n/a	n/a
3245.162	n/a	RECOG_RESP	1622581	n/a	LTP068	ltpFR	3	4	1	OREGANO	983	1	n/a	0	n/a	n/a	n/a	n/a	n/a
3245.994	n/a	RECOG_CONF	1622997	n/a	LTP068	ltpFR	3	4	1	OREGANO	983	n/a	5	0	n/a	n/a	n/a	n/a	n/a
3247.316	n/a	RECOG_TARGET	1623658	n/a	LTP068	ltpFR	3	4	1	MAGICIAN	854	0	2	1	n/a	n/a	n/a	n/a	n/a
3248.01	n/a	RECOG_RESP	1624005	n/a	LTP068	ltpFR	3	4	1	MAGICIAN	854	0	n/a	1	n/a	n/a	n/a	n/a	n/a
3248.708	n/a	RECOG_CONF	1624354	n/a	LTP068	ltpFR	3	4	1	MAGICIAN	854	n/a	2	1	n/a	n/a	n/a	n/a	n/a
3250.016	n/a	RECOG_TARGET	1625008	n/a	LTP068	ltpFR	3	4	0	ROOST	1208	1	5	1	n/a	n/a	n/a	n/a	n/a
3250.734	n/a	RECOG_RESP	1625367	n/a	LTP068	ltpFR	3	4	0	ROOST	1208	1	n/a	1	n/a	n/a	n/a	n/a	n/a
3251.512	n/a	RECOG_CONF	1625756	n/a	LTP068	ltpFR	3	4	0	ROOST	1208	n/a	5	1	n/a	n/a	n/a	n/a	n/a
3252.84	n/a	RECOG_TARGET	1626420	n/a	LTP068	ltpFR	3	4	1	RAZOR	1171	1	3	0	n/a	n/a	n/a	n/a	n/a
3253.518	n/a	RECOG_RESP	1626759	n/a	LTP068	ltpFR	3	4	1	RAZOR	1171	1	n/a	0	n/a	n/a	n/a	n/a	n/a
3254.226	n/a	RECOG_CONF	1627113	n/a	LTP068	ltpFR	3	4	1	RAZOR	1171	n/a	3	0	n/a	n/a	n/a	n/a	n/a
3255.55	n/a	RECOG_TARGET	1627775	n/a	LTP068	ltpFR	3	4	-1	ROBE	1198	0	1	-1	n/a	n/a	n/a	n/a	n/a
3256.652	n/a	RECOG_RESP	1628326	n/a	LTP068	ltpFR	3	4	-1	ROBE	1198	0	n/a	-1	n/a	n/a	n/a	n/a	n/a
3257.464	n/a	RECOG_CONF	1628732	n/a	LTP068	ltpFR	3	4	-1	ROBE	1198	n/a	1	-1	n/a	n/a	n/a	n/a	n/a
3258.674	n/a	RECOG_TARGET	1629337	n/a	LTP068	ltpFR	3	4	1	FUDGE	611	1	5	0	n/a	n/a	n/a	n/a	n/a
3259.236	n/a	RECOG_RESP	1629618	n/a	LTP068	ltpFR	3	4	1	FUDGE	611	1	n/a	0	n/a	n/a	n/a	n/a	n/a
3259.85	n/a	RECOG_CONF	1629925	n/a	LTP068	ltpFR	3	4	1	FUDGE	611	n/a	5	0	n/a	n/a	n/a	n/a	n/a
3261.174	n/a	RECOG_TARGET	1630587	n/a	LTP068	ltpFR	3	4	1	LASER	801	1	5	0	n/a	n/a	n/a	n/a	n/a
3261.79	n/a	RECOG_RESP	1630895	n/a	LTP068	ltpFR	3	4	1	LASER	801	1	n/a	0	n/a	n/a	n/a	n/a	n/a
3262.45	n/a	RECOG_CONF	1631225	n/a	LTP068	ltpFR	3	4	1	LASER	801	n/a	5	0	n/a	n/a	n/a	n/a	n/a
3263.84	n/a	RECOG_TARGET	1631920	n/a	LTP068	ltpFR	3	4	-1	MEDICINE	886	0	2	-1	n/a	n/a	n/a	n/a	n/a
3264.498	n/a	RECOG_RESP	1632249	n/a	LTP068	ltpFR	3	4	-1	MEDICINE	886	0	n/a	-1	n/a	n/a	n/a	n/a	n/a
3265.132	n/a	RECOG_CONF	1632566	n/a	LTP068	ltpFR	3	4	-1	MEDICINE	886	n/a	2	-1	n/a	n/a	n/a	n/a	n/a
3266.316	n/a	RECOG_TARGET	1633158	n/a	LTP068	ltpFR	3	4	0	BARTENDER	92	1	5	1	n/a	n/a	n/a	n/a	n/a
3267.138	n/a	RECOG_RESP	1633569	n/a	LTP068	ltpFR	3	4	0	BARTENDER	92	1	n/a	1	n/a	n/a	n/a	n/a	n/a
3267.928	n/a	RECOG_CONF	1633964	n/a	LTP068	ltpFR	3	4	0	BARTENDER	92	n/a	5	1	n/a	n/a	n/a	n/a	n/a
3269.206	n/a	RECOG_TARGET	1634603	n/a	LTP068	ltpFR	3	4	0	GOWN	652	1	5	1	n/a	n/a	n/a	n/a	n/a
3269.766	n/a	RECOG_RESP	1634883	n/a	LTP068	ltpFR	3	4	0	GOWN	652	1	n/a	1	n/a	n/a	n/a	n/a	n/a
3270.478	n/a	RECOG_CONF	1635239	n/a	LTP068	ltpFR	3	4	0	GOWN	652	n/a	5	1	n/a	n/a	n/a	n/a	n/a
3271.866	n/a	RECOG_LURE	1635933	n/a	LTP068	ltpFR	3	4	n/a	WAIST	1579	0	4	n/a	n/a	n/a	n/a	n/a	n/a
3272.526	n/a	RECOG_RESP	1636263	n/a	LTP068	ltpFR	3	4	n/a	WAIST	1579	0	n/a	n/a	n/a	n/a	n/a	n/a	n/a
3273.14	n/a	RECOG_CONF	1636570	n/a	LTP068	ltpFR	3	4	n/a	WAIST	1579	n/a	4	n/a	n/a	n/a	n/a	n/a	n/a
3274.514	n/a	RECOG_TARGET	1637257	n/a	LTP068	ltpFR	3	4	-1	FUR	615	0	2	-1	n/a	n/a	n/a	n/a	n/a
3275.268	n/a	RECOG_RESP	1637634	n/a	LTP068	ltpFR	3	4	-1	FUR	615	0	n/a	-1	n/a	n/a	n/a	n/a	n/a
3275.948	n/a	RECOG_CONF	1637974	n/a	LTP068	ltpFR	3	4	-1	FUR	615	n/a	2	-1	n/a	n/a	n/a	n/a	n/a
3277.116	n/a	RECOG_TARGET	1638558	n/a	LTP068	ltpFR	3	4	-1	TOURIST	1488	1	5	-1	n/a	n/a	n/a	n/a	n/a
3277.928	n/a	RECOG_RESP	1638964	n/a	LTP068	ltpFR	3	4	-1	TOURIST	1488	1	n/a	-1	n/a	n/a	n/a	n/a	n/a
3278.636	n/a	RECOG_CONF	1639318	n/a	LTP068	ltpFR	3	4	-1	TOURIST	1488	n/a	5	-1	n/a	n/a	n/a	n/a	n/a
3279.866	n/a	RECOG_TARGET	1639933	n/a	LTP068	ltpFR	3	4	0	GRILL	661	1	3	n/a	n/a	n/a	n/a	n/a	n/a
3280.778	n/a	RECOG_RESP	1640389	n/a	LTP068	ltpFR	3	4	0	GRILL	661	1	n/a	n/a	n/a	n/a	n/a	n/a	n/a
3281.486	n/a	RECOG_CONF	1640743	n/a	LTP068	ltpFR	3	4	0	GRILL	661	n/a	3	n/a	n/a	n/a	n/a	n/a	n/a
3282.698	n/a	RECOG_LURE	1641349	n/a	LTP068	ltpFR	3	4	n/a	CABIN	211	1	5	n/a	n/a	n/a	n/a	n/a	n/a
3283.326	n/a	RECOG_RESP	1641663	n/a	LTP068	ltpFR	3	4	n/a	CABIN	211	1	n/a	n/a	n/a	n/a	n/a	n/a	n/a
3284.002	n/a	RECOG_CONF	1642001	n/a	LTP068	ltpFR	3	4	n/a	CABIN	211	n/a	5	n/a	n/a	n/a	n/a	n/a	n/a
3285.206	n/a	RECOG_TARGET	1642603	n/a	LTP068	ltpFR	3	4	-1	CLOWN	330	1	5	-1	n/a	n/a	n/a	n/a	n/a
3285.916	n/a	RECOG_RESP	1642958	n/a	LTP068	ltpFR	3	4	-1	CLOWN	330	1	n/a	-1	n/a	n/a	n/a	n/a	n/a
3286.598	n/a	RECOG_CONF	1643299	n/a	LTP068	ltpFR	3	4	-1	CLOWN	330	n/a	5	-1	n/a	n/a	n/a	n/a	n/a
3288.064	n/a	RECOG_LURE	1644032	n/a	LTP068	ltpFR	3	4	n/a	PORK	1108	0	2	n/a	n/a	n/a	n/a	n/a	n/a
3288.68	n/a	RECOG_RESP	1644340	n/a	LTP068	ltpFR	3	4	n/a	PORK	1108	0	n/a	n/a	n/a	n/a	n/a	n/a	n/a
3289.338	n/a	RECOG_CONF	1644669	n/a	LTP068	ltpFR	3	4	n/a	PORK	1108	n/a	2	n/a	n/a	n/a	n/a	n/a	n/a
3290.64	n/a	RECOG_TARGET	1645320	n/a	LTP068	ltpFR	3	4	-1	PEN	1041	1	5	-1	n/a	n/a	n/a	n/a	n/a
3291.154	n/a	RECOG_RESP	1645577	n/a	LTP068	ltpFR	3	4	-1	PEN	1041	1	n/a	-1	n/a	n/a	n/a	n/a	n/a
3291.814	n/a	RECOG_CONF	1645907	n/a	LTP068	ltpFR	3	4	-1	PEN	1041	n/a	5	-1	n/a	n/a	n/a	n/a	n/a
3293.056	n/a	RECOG_TARGET	1646528	n/a	LTP068	ltpFR	3	4	-1	MONSTER	912	1	5	-1	n/a	n/a	n/a	n/a	n/a
3293.748	n/a	RECOG_RESP	1646874	n/a	LTP068	ltpFR	3	4	-1	MONSTER	912	1	n/a	-1	n/a	n/a	n/a	n/a	n/a
3294.338	n/a	RECOG_CONF	1647169	n/a	LTP068	ltpFR	3	4	-1	MONSTER	912	n/a	5	-1	n/a	n/a	n/a	n/a	n/a
3297.4	n/a	REC_START	1648700	n/a	LTP068	ltpFR	3	5	n/a	n/a	n/a	n/a	n/a	n/a	n/a	n/a	n/a	n/a	n/a
3297.432	n/a	RECOG_LURE	1648716	n/a	LTP068	ltpFR	3	5	n/a	BURGLAR	200	1	4	n/a	n/a	n/a	n/a	n/a	n/a
3298.264	n/a	RECOG_RESP	1649132	n/a	LTP068	ltpFR	3	5	n/a	BURGLAR	200	1	n/a	n/a	n/a	n/a	n/a	n/a	n/a
3299.38	n/a	RECOG_CONF	1649690	n/a	LTP068	ltpFR	3	5	n/a	BURGLAR	200	n/a	4	n/a	n/a	n/a	n/a	n/a	n/a
3300.624	n/a	RECOG_TARGET	1650312	n/a	LTP068	ltpFR	3	5	0	WINGS	1614	1	5	0	n/a	n/a	n/a	n/a	n/a
3301.172	n/a	RECOG_RESP	1650586	n/a	LTP068	ltpFR	3	5	0	WINGS	1614	1	n/a	0	n/a	n/a	n/a	n/a	n/a
3301.826	n/a	RECOG_CONF	1650913	n/a	LTP068	ltpFR	3	5	0	WINGS	1614	n/a	5	0	n/a	n/a	n/a	n/a	n/a
3303.248	n/a	RECOG_TARGET	1651624	n/a	LTP068	ltpFR	3	5	1	RUBY	1214	1	5	0	n/a	n/a	n/a	n/a	n/a
3304.03	n/a	RECOG_RESP	1652015	n/a	LTP068	ltpFR	3	5	1	RUBY	1214	1	n/a	0	n/a	n/a	n/a	n/a	n/a
3304.722	n/a	RECOG_CONF	1652361	n/a	LTP068	ltpFR	3	5	1	RUBY	1214	n/a	5	0	n/a	n/a	n/a	n/a	n/a
3306.082	n/a	RECOG_LURE	1653041	n/a	LTP068	ltpFR	3	5	n/a	KITCHEN	778	1	2	n/a	n/a	n/a	n/a	n/a	n/a
3306.684	n/a	RECOG_RESP_VV	1653342	n/a	LTP068	ltpFR	3	5	n/a	KITCHEN	778	1	n/a	n/a	n/a	n/a	n/a	n/a	n/a
3312.53	n/a	RECOG_RESP	1656265	n/a	LTP068	ltpFR	3	5	n/a	KITCHEN	778	1	n/a	n/a	n/a	n/a	n/a	n/a	n/a
3313.608	n/a	RECOG_CONF	1656804	n/a	LTP068	ltpFR	3	5	n/a	KITCHEN	778	n/a	2	n/a	n/a	n/a	n/a	n/a	n/a
3314.988	n/a	RECOG_TARGET	1657494	n/a	LTP068	ltpFR	3	5	0	VESSEL	1558	1	5	0	n/a	n/a	n/a	n/a	n/a
3317.04	n/a	RECOG_RESP	1658520	n/a	LTP068	ltpFR	3	5	0	VESSEL	1558	1	n/a	0	n/a	n/a	n/a	n/a	n/a
3317.748	n/a	RECOG_CONF	1658874	n/a	LTP068	ltpFR	3	5	0	VESSEL	1558	n/a	5	0	n/a	n/a	n/a	n/a	n/a
3319.306	n/a	RECOG_TARGET	1659653	n/a	LTP068	ltpFR	3	5	1	HORSE	719	1	5	1	n/a	n/a	n/a	n/a	n/a
3320.304	n/a	RECOG_RESP	1660152	n/a	LTP068	ltpFR	3	5	1	HORSE	719	1	n/a	1	n/a	n/a	n/a	n/a	n/a
3321.012	n/a	RECOG_CONF	1660506	n/a	LTP068	ltpFR	3	5	1	HORSE	719	n/a	5	1	n/a	n/a	n/a	n/a	n/a
3322.49	n/a	RECOG_LURE	1661245	n/a	LTP068	ltpFR	3	5	n/a	BABY	64	0	4	n/a	n/a	n/a	n/a	n/a	n/a
3323.368	n/a	RECOG_RESP	1661684	n/a	LTP068	ltpFR	3	5	n/a	BABY	64	0	n/a	n/a	n/a	n/a	n/a	n/a	n/a
3324.018	n/a	RECOG_CONF	1662009	n/a	LTP068	ltpFR	3	5	n/a	BABY	64	n/a	4	n/a	n/a	n/a	n/a	n/a	n/a
3325.38	n/a	RECOG_TARGET	1662690	n/a	LTP068	ltpFR	3	5	-1	MOTH	920	1	5	-1	n/a	n/a	n/a	n/a	n/a
3326.056	n/a	RECOG_RESP	1663028	n/a	LTP068	ltpFR	3	5	-1	MOTH	920	1	n/a	-1	n/a	n/a	n/a	n/a	n/a
3326.82	n/a	RECOG_CONF	1663410	n/a	LTP068	ltpFR	3	5	-1	MOTH	920	n/a	5	-1	n/a	n/a	n/a	n/a	n/a
3328.314	n/a	RECOG_LURE	1664157	n/a	LTP068	ltpFR	3	5	n/a	CANDLE	229	1	2	n/a	n/a	n/a	n/a	n/a	n/a
3328.934	n/a	RECOG_RESP	1664467	n/a	LTP068	ltpFR	3	5	n/a	CANDLE	229	1	n/a	n/a	n/a	n/a	n/a	n/a	n/a
3329.702	n/a	RECOG_CONF	1664851	n/a	LTP068	ltpFR	3	5	n/a	CANDLE	229	n/a	2	n/a	n/a	n/a	n/a	n/a	n/a
3331.088	n/a	RECOG_TARGET	1665544	n/a	LTP068	ltpFR	3	5	1	ENEMY	534	1	5	1	n/a	n/a	n/a	n/a	n/a
3331.748	n/a	RECOG_RESP	1665874	n/a	LTP068	ltpFR	3	5	1	ENEMY	534	1	n/a	1	n/a	n/a	n/a	n/a	n/a
3332.526	n/a	RECOG_CONF	1666263	n/a	LTP068	ltpFR	3	5	1	ENEMY	534	n/a	5	1	n/a	n/a	n/a	n/a	n/a
3333.864	n/a	RECOG_TARGET	1666932	n/a	LTP068	ltpFR	3	5	0	DRUM	502	1	5	1	n/a	n/a	n/a	n/a	n/a
3334.408	n/a	RECOG_RESP	1667204	n/a	LTP068	ltpFR	3	5	0	DRUM	502	1	n/a	1	n/a	n/a	n/a	n/a	n/a
3335.06	n/a	RECOG_CONF	1667530	n/a	LTP068	ltpFR	3	5	0	DRUM	502	n/a	5	1	n/a	n/a	n/a	n/a	n/a
3336.614	n/a	RECOG_LURE	1668307	n/a	LTP068	ltpFR	3	5	n/a	SPIDER	1351	1	2	n/a	n/a	n/a	n/a	n/a	n/a
3338.214	n/a	RECOG_RESP	1669107	n/a	LTP068	ltpFR	3	5	n/a	SPIDER	1351	1	n/a	n/a	n/a	n/a	n/a	n/a	n/a
3339.38	n/a	RECOG_CONF	1669690	n/a	LTP068	ltpFR	3	5	n/a	SPIDER	1351	n/a	2	n/a	n/a	n/a	n/a	n/a	n/a
3340.864	n/a	RECOG_LURE	1670432	n/a	LTP068	ltpFR	3	5	n/a	PLANE	1081	1	4	n/a	n/a	n/a	n/a	n/a	n/a
3341.498	n/a	RECOG_RESP	1670749	n/a	LTP068	ltpFR	3	5	n/a	PLANE	1081	1	n/a	n/a	n/a	n/a	n/a	n/a	n/a
3342.316	n/a	RECOG_CONF	1671158	n/a	LTP068	ltpFR	3	5	n/a	PLANE	1081	n/a	4	n/a	n/a	n/a	n/a	n/a	n/a
3343.606	n/a	RECOG_TARGET	1671803	n/a	LTP068	ltpFR	3	5	-1	OTTER	986	1	5	-1	n/a	n/a	n/a	n/a	n/a
3344.206	n/a	RECOG_RESP	1672103	n/a	LTP068	ltpFR	3	5	-1	OTTER	986	1	n/a	-1	n/a	n/a	n/a	n/a	n/a
3344.88	n/a	RECOG_CONF	1672440	n/a	LTP068	ltpFR	3	5	-1	OTTER	986	n/a	5	-1	n/a	n/a	n/a	n/a	n/a
3346.256	n/a	RECOG_TARGET	1673128	n/a	LTP068	ltpFR	3	5	-1	LIMOUSINE	824	1	5	-1	n/a	n/a	n/a	n/a	n/a
3347.304	n/a	RECOG_RESP	1673652	n/a	LTP068	ltpFR	3	5	-1	LIMOUSINE	824	1	n/a	-1	n/a	n/a	n/a	n/a	n/a
3348.492	n/a	RECOG_CONF	1674246	n/a	LTP068	ltpFR	3	5	-1	LIMOUSINE	824	n/a	5	-1	n/a	n/a	n/a	n/a	n/a
3349.896	n/a	RECOG_TARGET	1674948	n/a	LTP068	ltpFR	3	5	0	SHORTCAKE	1292	1	5	0	n/a	n/a	n/a	n/a	n/a
3350.596	n/a	RECOG_RESP	1675298	n/a	LTP068	ltpFR	3	5	0	SHORTCAKE	1292	1	n/a	0	n/a	n/a	n/a	n/a	n/a
3351.434	n/a	RECOG_CONF	1675717	n/a	LTP068	ltpFR	3	5	0	SHORTCAKE	1292	n/a	5	0	n/a	n/a	n/a	n/a	n/a
3352.714	n/a	RECOG_TARGET	1676357	n/a	LTP068	ltpFR	3	5	0	NOOSE	956	1	5	0	n/a	n/a	n/a	n/a	n/a
3353.43	n/a	RECOG_RESP	1676715	n/a	LTP068	ltpFR	3	5	0	NOOSE	956	1	n/a	0	n/a	n/a	n/a	n/a	n/a
3354.318	n/a	RECOG_CONF	1677159	n/a	LTP068	ltpFR	3	5	0	NOOSE	956	n/a	5	0	n/a	n/a	n/a	n/a	n/a
3355.638	n/a	RECOG_TARGET	1677819	n/a	LTP068	ltpFR	3	5	0	CREW	406	1	5	1	n/a	n/a	n/a	n/a	n/a
3356.278	n/a	RECOG_RESP	1678139	n/a	LTP068	ltpFR	3	5	0	CREW	406	1	n/a	1	n/a	n/a	n/a	n/a	n/a
3357.122	n/a	RECOG_CONF	1678561	n/a	LTP068	ltpFR	3	5	0	CREW	406	n/a	5	1	n/a	n/a	n/a	n/a	n/a
3358.422	n/a	RECOG_TARGET	1679211	n/a	LTP068	ltpFR	3	5	-1	SKUNK	1321	1	5	-1	n/a	n/a	n/a	n/a	n/a
3359.008	n/a	RECOG_RESP	1679504	n/a	LTP068	ltpFR	3	5	-1	SKUNK	1321	1	n/a	-1	n/a	n/a	n/a	n/a	n/a
3359.846	n/a	RECOG_CONF	1679923	n/a	LTP068	ltpFR	3	5	-1	SKUNK	1321	n/a	5	-1	n/a	n/a	n/a	n/a	n/a
3361.188	n/a	RECOG_TARGET	1680594	n/a	LTP068	ltpFR	3	5	0	ATHLETE	52	1	4	1	n/a	n/a	n/a	n/a	n/a
3362.036	n/a	RECOG_RESP	1681018	n/a	LTP068	ltpFR	3	5	0	ATHLETE	52	1	n/a	1	n/a	n/a	n/a	n/a	n/a
3362.88	n/a	RECOG_CONF	1681440	n/a	LTP068	ltpFR	3	5	0	ATHLETE	52	n/a	4	1	n/a	n/a	n/a	n/a	n/a
3365.726	n/a	REC_START	1682863	n/a	LTP068	ltpFR	3	6	n/a	n/a	n/a	n/a	n/a	n/a	n/a	n/a	n/a	n/a	n/a
3365.764	n/a	RECOG_LURE	1682882	n/a	LTP068	ltpFR	3	6	n/a	COMEDIAN	352	1	3	n/a	n/a	n/a	n/a	n/a	n/a
3366.434	n/a	RECOG_RESP	1683217	n/a	LTP068	ltpFR	3	6	n/a	COMEDIAN	352	1	n/a	n/a	n/a	n/a	n/a	n/a	n/a
3367.228	n/a	RECOG_CONF	1683614	n/a	LTP068	ltpFR	3	6	n/a	COMEDIAN	352	n/a	3	n/a	n/a	n/a	n/a	n/a	n/a
3368.396	n/a	RECOG_TARGET	1684198	n/a	LTP068	ltpFR	3	6	1	WALRUS	1585	1	5	1	n/a	n/a	n/a	n/a	n/a
3369.038	n/a	RECOG_RESP	1684519	n/a	LTP068	ltpFR	3	6	1	WALRUS	1585	1	n/a	1	n/a	n/a	n/a	n/a	n/a
3369.746	n/a	RECOG_CONF	1684873	n/a	LTP068	ltpFR	3	6	1	WALRUS	1585	n/a	5	1	n/a	n/a	n/a	n/a	n/a
3370.996	n/a	RECOG_TARGET	1685498	n/a	LTP068	ltpFR	3	6	0	TOOL	1480	1	5	0	n/a	n/a	n/a	n/a	n/a
3371.568	n/a	RECOG_RESP	1685784	n/a	LTP068	ltpFR	3	6	0	TOOL	1480	1	n/a	0	n/a	n/a	n/a	n/a	n/a
3372.266	n/a	RECOG_CONF	1686133	n/a	LTP068	ltpFR	3	6	0	TOOL	1480	n/a	5	0	n/a	n/a	n/a	n/a	n/a
3373.622	n/a	RECOG_TARGET	1686811	n/a	LTP068	ltpFR	3	6	0	MUSEUM	933	1	3	1	n/a	n/a	n/a	n/a	n/a
3374.042	n/a	RECOG_RESP_VV	1687021	n/a	LTP068	ltpFR	3	6	0	MUSEUM	933	1	n/a	1	n/a	n/a	n/a	n/a	n/a
3374.598	n/a	RECOG_RESP_VV	1687299	n/a	LTP068	ltpFR	3	6	0	MUSEUM	933	n/a	2	1	n/a	n/a	n/a	n/a	n/a
3376.996	n/a	RECOG_RESP	1688498	n/a	LTP068	ltpFR	3	6	0	MUSEUM	933	1	n/a	1	n/a	n/a	n/a	n/a	n/a
3377.964	n/a	RECOG_CONF	1688982	n/a	LTP068	ltpFR	3	6	0	MUSEUM	933	n/a	3	1	n/a	n/a	n/a	n/a	n/a
3379.378	n/a	RECOG_TARGET	1689689	n/a	LTP068	ltpFR	3	6	1	TUTU	1524	1	5	n/a	n/a	n/a	n/a	n/a	n/a
3379.91	n/a	RECOG_RESP	1689955	n/a	LTP068	ltpFR	3	6	1	TUTU	1524	1	n/a	n/a	n/a	n/a	n/a	n/a	n/a
3380.616	n/a	RECOG_CONF	1690308	n/a	LTP068	ltpFR	3	6	1	TUTU	1524	n/a	5	n/a	n/a	n/a	n/a	n/a	n/a
3381.978	n/a	RECOG_TARGET	1690989	n/a	LTP068	ltpFR	3	6	0	BAND	78	1	5	1	n/a	n/a	n/a	n/a	n/a
3382.494	n/a	RECOG_RESP	1691247	n/a	LTP068	ltpFR	3	6	0	BAND	78	1	n/a	1	n/a	n/a	n/a	n/a	n/a
3383.176	n/a	RECOG_CONF	1691588	n/a	LTP068	ltpFR	3	6	0	BAND	78	n/a	5	1	n/a	n/a	n/a	n/a	n/a
3384.672	n/a	RECOG_TARGET	1692336	n/a	LTP068	ltpFR	3	6	0	COIN	343	1	5	0	n/a	n/a	n/a	n/a	n/a
3385.198	n/a	RECOG_RESP	1692599	n/a	LTP068	ltpFR	3	6	0	COIN	343	1	n/a	0	n/a	n/a	n/a	n/a	n/a
3385.952	n/a	RECOG_CONF	1692976	n/a	LTP068	ltpFR	3	6	0	COIN	343	n/a	5	0	n/a	n/a	n/a	n/a	n/a
3387.304	n/a	RECOG_TARGET	1693652	n/a	LTP068	ltpFR	3	6	-1	RACKET	1155	1	4	-1	n/a	n/a	n/a	n/a	n/a
3387.772	n/a	RECOG_RESP	1693886	n/a	LTP068	ltpFR	3	6	-1	RACKET	1155	1	n/a	-1	n/a	n/a	n/a	n/a	n/a
3388.54	n/a	RECOG_CONF	1694270	n/a	LTP068	ltpFR	3	6	-1	RACKET	1155	n/a	4	-1	n/a	n/a	n/a	n/a	n/a
3389.82	n/a	RECOG_TARGET	1694910	n/a	LTP068	ltpFR	3	6	-1	STEM	1376	1	3	-1	n/a	n/a	n/a	n/a	n/a
3390.366	n/a	RECOG_RESP	1695183	n/a	LTP068	ltpFR	3	6	-1	STEM	1376	1	n/a	-1	n/a	n/a	n/a	n/a	n/a
3392.092	n/a	RECOG_CONF	1696046	n/a	LTP068	ltpFR	3	6	-1	STEM	1376	n/a	3	-1	n/a	n/a	n/a	n/a	n/a
3393.438	n/a	RECOG_TARGET	1696719	n/a	LTP068	ltpFR	3	6	1	CORPORATION	382	1	5	0	n/a	n/a	n/a	n/a	n/a
3394.112	n/a	RECOG_RESP	1697056	n/a	LTP068	ltpFR	3	6	1	CORPORATION	382	1	n/a	0	n/a	n/a	n/a	n/a	n/a
3394.82	n/a	RECOG_CONF	1697410	n/a	LTP068	ltpFR	3	6	1	CORPORATION	382	n/a	5	0	n/a	n/a	n/a	n/a	n/a
3396.062	n/a	RECOG_TARGET	1698031	n/a	LTP068	ltpFR	3	6	1	OX	994	1	5	1	n/a	n/a	n/a	n/a	n/a
3396.602	n/a	RECOG_RESP	1698301	n/a	LTP068	ltpFR	3	6	1	OX	994	1	n/a	1	n/a	n/a	n/a	n/a	n/a
3397.364	n/a	RECOG_CONF	1698682	n/a	LTP068	ltpFR	3	6	1	OX	994	n/a	5	1	n/a	n/a	n/a	n/a	n/a
3398.646	n/a	RECOG_TARGET	1699323	n/a	LTP068	ltpFR	3	6	1	TRENCH	1503	1	5	0	n/a	n/a	n/a	n/a	n/a
3399.256	n/a	RECOG_RESP	1699628	n/a	LTP068	ltpFR	3	6	1	TRENCH	1503	1	n/a	0	n/a	n/a	n/a	n/a	n/a
3400.094	n/a	RECOG_CONF	1700047	n/a	LTP068	ltpFR	3	6	1	TRENCH	1503	n/a	5	0	n/a	n/a	n/a	n/a	n/a
3401.454	n/a	RECOG_TARGET	1700727	n/a	LTP068	ltpFR	3	6	-1	SYRINGE	1424	1	5	-1	n/a	n/a	n/a	n/a	n/a
3402.22	n/a	RECOG_RESP	1701110	n/a	LTP068	ltpFR	3	6	-1	SYRINGE	1424	1	n/a	-1	n/a	n/a	n/a	n/a	n/a
3403.008	n/a	RECOG_CONF	1701504	n/a	LTP068	ltpFR	3	6	-1	SYRINGE	1424	n/a	5	-1	n/a	n/a	n/a	n/a	n/a
3404.212	n/a	RECOG_LURE	1702106	n/a	LTP068	ltpFR	3	6	n/a	JET	756	1	2	n/a	n/a	n/a	n/a	n/a	n/a
3405.378	n/a	RECOG_RESP	1702689	n/a	LTP068	ltpFR	3	6	n/a	JET	756	1	n/a	n/a	n/a	n/a	n/a	n/a	n/a
3406.02	n/a	RECOG_CONF	1703010	n/a	LTP068	ltpFR	3	6	n/a	JET	756	n/a	2	n/a	n/a	n/a	n/a	n/a	n/a
3407.328	n/a	RECOG_TARGET	1703664	n/a	LTP068	ltpFR	3	6	-1	BLENDER	136	1	5	-1	n/a	n/a	n/a	n/a	n/a
3407.888	n/a	RECOG_RESP	1703944	n/a	LTP068	ltpFR	3	6	-1	BLENDER	136	1	n/a	-1	n/a	n/a	n/a	n/a	n/a
3408.594	n/a	RECOG_CONF	1704297	n/a	LTP068	ltpFR	3	6	-1	BLENDER	136	n/a	5	-1	n/a	n/a	n/a	n/a	n/a
3409.954	n/a	RECOG_TARGET	1704977	n/a	LTP068	ltpFR	3	6	-1	VINEGAR	1569	0	3	-1	n/a	n/a	n/a	n/a	n/a
3410.83	n/a	RECOG_RESP	1705415	n/a	LTP068	ltpFR	3	6	-1	VINEGAR	1569	0	n/a	-1	n/a	n/a	n/a	n/a	n/a
3411.688	n/a	RECOG_CONF	1705844	n/a	LTP068	ltpFR	3	6	-1	VINEGAR	1569	n/a	3	-1	n/a	n/a	n/a	n/a	n/a
3413.036	n/a	RECOG_TARGET	1706518	n/a	LTP068	ltpFR	3	6	1	CLAM	315	1	5	0	n/a	n/a	n/a	n/a	n/a
3413.524	n/a	RECOG_RESP	1706762	n/a	LTP068	ltpFR	3	6	1	CLAM	315	1	n/a	0	n/a	n/a	n/a	n/a	n/a
3414.208	n/a	RECOG_CONF	1707104	n/a	LTP068	ltpFR	3	6	1	CLAM	315	n/a	5	0	n/a	n/a	n/a	n/a	n/a
3415.578	n/a	RECOG_TARGET	1707789	n/a	LTP068	ltpFR	3	6	-1	WINDSHIELD	1612	1	5	-1	n/a	n/a	n/a	n/a	n/a
3416.198	n/a	RECOG_RESP	1708099	n/a	LTP068	ltpFR	3	6	-1	WINDSHIELD	1612	1	n/a	-1	n/a	n/a	n/a	n/a	n/a
3416.906	n/a	RECOG_CONF	1708453	n/a	LTP068	ltpFR	3	6	-1	WINDSHIELD	1612	n/a	5	-1	n/a	n/a	n/a	n/a	n/a
3418.428	n/a	RECOG_LURE	1709214	n/a	LTP068	ltpFR	3	6	n/a	BOARD	143	1	2	n/a	n/a	n/a	n/a	n/a	n/a
3418.912	n/a	RECOG_RESP_VV	1709456	n/a	LTP068	ltpFR	3	6	n/a	BOARD	143	1	n/a	n/a	n/a	n/a	n/a	n/a	n/a
3420.778	n/a	RECOG_RESP	1710389	n/a	LTP068	ltpFR	3	6	n/a	BOARD	143	1	n/a	n/a	n/a	n/a	n/a	n/a	n/a
3421.766	n/a	RECOG_CONF	1710883	n/a	LTP068	ltpFR	3	6	n/a	BOARD	143	n/a	2	n/a	n/a	n/a	n/a	n/a	n/a
3423.244	n/a	RECOG_TARGET	1711622	n/a	LTP068	ltpFR	3	6	0	BAKER	71	1	5	1	n/a	n/a	n/a	n/a	n/a
3424.78	n/a	RECOG_RESP	1712390	n/a	LTP068	ltpFR	3	6	0	BAKER	71	1	n/a	1	n/a	n/a	n/a	n/a	n/a
3425.588	n/a	RECOG_CONF	1712794	n/a	LTP068	ltpFR	3	6	0	BAKER	71	n/a	5	1	n/a	n/a	n/a	n/a	n/a
3428.326	n/a	REC_START	1714163	n/a	LTP068	ltpFR	3	7	n/a	n/a	n/a	n/a	n/a	n/a	n/a	n/a	n/a	n/a	n/a
3428.362	n/a	RECOG_LURE	1714181	n/a	LTP068	ltpFR	3	7	n/a	MUSHROOM	934	1	5	n/a	n/a	n/a	n/a	n/a	n/a
3429.558	n/a	RECOG_RESP	1714779	n/a	LTP068	ltpFR	3	7	n/a	MUSHROOM	934	1	n/a	n/a	n/a	n/a	n/a	n/a	n/a
3430.506	n/a	RECOG_CONF	1715253	n/a	LTP068	ltpFR	3	7	n/a	MUSHROOM	934	n/a	5	n/a	n/a	n/a	n/a	n/a	n/a
3431.862	n/a	RECOG_TARGET	1715931	n/a	LTP068	ltpFR	3	7	1	CORN	381	1	5	1	n/a	n/a	n/a	n/a	n/a
3432.702	n/a	RECOG_RESP	1716351	n/a	LTP068	ltpFR	3	7	1	CORN	381	1	n/a	1	n/a	n/a	n/a	n/a	n/a
3433.56	n/a	RECOG_CONF	1716780	n/a	LTP068	ltpFR	3	7	1	CORN	381	n/a	5	1	n/a	n/a	n/a	n/a	n/a
3434.862	n/a	RECOG_TARGET	1717431	n/a	LTP068	ltpFR	3	7	0	MAGNET	855	1	5	0	n/a	n/a	n/a	n/a	n/a
3435.486	n/a	RECOG_RESP	1717743	n/a	LTP068	ltpFR	3	7	0	MAGNET	855	1	n/a	0	n/a	n/a	n/a	n/a	n/a
3436.1	n/a	RECOG_CONF	1718050	n/a	LTP068	ltpFR	3	7	0	MAGNET	855	n/a	5	0	n/a	n/a	n/a	n/a	n/a
3437.536	n/a	RECOG_TARGET	1718768	n/a	LTP068	ltpFR	3	7	0	PLIERS	1089	1	5	0	n/a	n/a	n/a	n/a	n/a
3438.148	n/a	RECOG_RESP	1719074	n/a	LTP068	ltpFR	3	7	0	PLIERS	1089	1	n/a	0	n/a	n/a	n/a	n/a	n/a
3438.808	n/a	RECOG_CONF	1719404	n/a	LTP068	ltpFR	3	7	0	PLIERS	1089	n/a	5	0	n/a	n/a	n/a	n/a	n/a
3440.328	n/a	RECOG_TARGET	1720164	n/a	LTP068	ltpFR	3	7	0	ARM	38	1	5	0	n/a	n/a	n/a	n/a	n/a
3440.968	n/a	RECOG_RESP	1720484	n/a	LTP068	ltpFR	3	7	0	ARM	38	1	n/a	0	n/a	n/a	n/a	n/a	n/a
3441.762	n/a	RECOG_CONF	1720881	n/a	LTP068	ltpFR	3	7	0	ARM	38	n/a	5	0	n/a	n/a	n/a	n/a	n/a
3443.12	n/a	RECOG_TARGET	1721560	n/a	LTP068	ltpFR	3	7	1	PRIMATE	1123	1	5	1	n/a	n/a	n/a	n/a	n/a
3443.926	n/a	RECOG_RESP	1721963	n/a	LTP068	ltpFR	3	7	1	PRIMATE	1123	1	n/a	1	n/a	n/a	n/a	n/a	n/a
3444.516	n/a	RECOG_CONF	1722258	n/a	LTP068	ltpFR	3	7	1	PRIMATE	1123	n/a	5	1	n/a	n/a	n/a	n/a	n/a
3445.928	n/a	RECOG_LURE	1722964	n/a	LTP068	ltpFR	3	7	n/a	LETTUCE	814	0	5	n/a	n/a	n/a	n/a	n/a	n/a
3446.816	n/a	RECOG_RESP	1723408	n/a	LTP068	ltpFR	3	7	n/a	LETTUCE	814	0	n/a	n/a	n/a	n/a	n/a	n/a	n/a
3447.466	n/a	RECOG_CONF	1723733	n/a	LTP068	ltpFR	3	7	n/a	LETTUCE	814	n/a	5	n/a	n/a	n/a	n/a	n/a	n/a
3449.002	n/a	RECOG_TARGET	1724501	n/a	LTP068	ltpFR	3	7	0	CHARCOAL	281	1	5	0	n/a	n/a	n/a	n/a	n/a
3450.112	n/a	RECOG_RESP	1725056	n/a	LTP068	ltpFR	3	7	0	CHARCOAL	281	1	n/a	0	n/a	n/a	n/a	n/a	n/a
3450.688	n/a	RECOG_CONF	1725344	n/a	LTP068	ltpFR	3	7	0	CHARCOAL	281	n/a	5	0	n/a	n/a	n/a	n/a	n/a
3452.212	n/a	RECOG_TARGET	1726106	n/a	LTP068	ltpFR	3	7	-1	STAPLER	1372	1	5	-1	n/a	n/a	n/a	n/a	n/a
3452.806	n/a	RECOG_RESP	1726403	n/a	LTP068	ltpFR	3	7	-1	STAPLER	1372	1	n/a	-1	n/a	n/a	n/a	n/a	n/a
3453.456	n/a	RECOG_CONF	1726728	n/a	LTP068	ltpFR	3	7	-1	STAPLER	1372	n/a	5	-1	n/a	n/a	n/a	n/a	n/a
3454.894	n/a	RECOG_TARGET	1727447	n/a	LTP068	ltpFR	3	7	-1	HOME	712	1	5	-1	n/a	n/a	n/a	n/a	n/a
3455.716	n/a	RECOG_RESP	1727858	n/a	LTP068	ltpFR	3	7	-1	HOME	712	1	n/a	-1	n/a	n/a	n/a	n/a	n/a
3456.394	n/a	RECOG_CONF	1728197	n/a	LTP068	ltpFR	3	7	-1	HOME	712	n/a	5	-1	n/a	n/a	n/a	n/a	n/a
3457.66	n/a	RECOG_TARGET	1728830	n/a	LTP068	ltpFR	3	7	0	DECK	443	1	5	0	n/a	n/a	n/a	n/a	n/a
3458.364	n/a	RECOG_RESP	1729182	n/a	LTP068	ltpFR	3	7	0	DECK	443	1	n/a	0	n/a	n/a	n/a	n/a	n/a
3459.108	n/a	RECOG_CONF	1729554	n/a	LTP068	ltpFR	3	7	0	DECK	443	n/a	5	0	n/a	n/a	n/a	n/a	n/a
3460.502	n/a	RECOG_TARGET	1730251	n/a	LTP068	ltpFR	3	7	0	BANKER	84	0	4	1	n/a	n/a	n/a	n/a	n/a
3461.536	n/a	RECOG_RESP	1730768	n/a	LTP068	ltpFR	3	7	0	BANKER	84	0	n/a	1	n/a	n/a	n/a	n/a	n/a
3462.176	n/a	RECOG_CONF	1731088	n/a	LTP068	ltpFR	3	7	0	BANKER	84	n/a	4	1	n/a	n/a	n/a	n/a	n/a
3463.526	n/a	RECOG_TARGET	1731763	n/a	LTP068	ltpFR	3	7	0	PITCHFORK	1078	1	5	1	n/a	n/a	n/a	n/a	n/a
3464.23	n/a	RECOG_RESP	1732115	n/a	LTP068	ltpFR	3	7	0	PITCHFORK	1078	1	n/a	1	n/a	n/a	n/a	n/a	n/a
3464.754	n/a	RECOG_CONF	1732377	n/a	LTP068	ltpFR	3	7	0	PITCHFORK	1078	n/a	5	1	n/a	n/a	n/a	n/a	n/a
3466.234	n/a	RECOG_LURE	1733117	n/a	LTP068	ltpFR	3	7	n/a	DOUGHNUT	490	0	5	n/a	n/a	n/a	n/a	n/a	n/a
3467.094	n/a	RECOG_RESP	1733547	n/a	LTP068	ltpFR	3	7	n/a	DOUGHNUT	490	0	n/a	n/a	n/a	n/a	n/a	n/a	n/a
3467.662	n/a	RECOG_CONF	1733831	n/a	LTP068	ltpFR	3	7	n/a	DOUGHNUT	490	n/a	5	n/a	n/a	n/a	n/a	n/a	n/a
3469.102	n/a	RECOG_TARGET	1734551	n/a	LTP068	ltpFR	3	7	1	MOUSE	925	0	2	1	n/a	n/a	n/a	n/a	n/a
3470.218	n/a	RECOG_RESP	1735109	n/a	LTP068	ltpFR	3	7	1	MOUSE	925	0	n/a	1	n/a	n/a	n/a	n/a	n/a
3470.886	n/a	RECOG_CONF	1735443	n/a	LTP068	ltpFR	3	7	1	MOUSE	925	n/a	2	1	n/a	n/a	n/a	n/a	n/a
3472.152	n/a	RECOG_TARGET	1736076	n/a	LTP068	ltpFR	3	7	-1	ASSISTANT	48	0	5	-1	n/a	n/a	n/a	n/a	n/a
3472.946	n/a	RECOG_RESP	1736473	n/a	LTP068	ltpFR	3	7	-1	ASSISTANT	48	0	n/a	-1	n/a	n/a	n/a	n/a	n/a
3473.6	n/a	RECOG_CONF	1736800	n/a	LTP068	ltpFR	3	7	-1	ASSISTANT	48	n/a	5	-1	n/a	n/a	n/a	n/a	n/a
3474.886	n/a	RECOG_TARGET	1737443	n/a	LTP068	ltpFR	3	7	0	THIEF	1456	0	5	1	n/a	n/a	n/a	n/a	n/a
3475.726	n/a	RECOG_RESP	1737863	n/a	LTP068	ltpFR	3	7	0	THIEF	1456	0	n/a	1	n/a	n/a	n/a	n/a	n/a
3476.292	n/a	RECOG_CONF	1738146	n/a	LTP068	ltpFR	3	7	0	THIEF	1456	n/a	5	1	n/a	n/a	n/a	n/a	n/a
3477.56	n/a	RECOG_LURE	1738780	n/a	LTP068	ltpFR	3	7	n/a	MOTOR	922	0	5	n/a	n/a	n/a	n/a	n/a	n/a
3478.714	n/a	RECOG_RESP	1739357	n/a	LTP068	ltpFR	3	7	n/a	MOTOR	922	0	n/a	n/a	n/a	n/a	n/a	n/a	n/a
3479.294	n/a	RECOG_CONF	1739647	n/a	LTP068	ltpFR	3	7	n/a	MOTOR	922	n/a	5	n/a	n/a	n/a	n/a	n/a	n/a
3480.634	n/a	RECOG_TARGET	1740317	n/a	LTP068	ltpFR	3	7	-1	NEST	945	0	2	-1	n/a	n/a	n/a	n/a	n/a
3482.036	n/a	RECOG_RESP	1741018	n/a	LTP068	ltpFR	3	7	-1	NEST	945	0	n/a	-1	n/a	n/a	n/a	n/a	n/a
3482.89	n/a	RECOG_CONF	1741445	n/a	LTP068	ltpFR	3	7	-1	NEST	945	n/a	2	-1	n/a	n/a	n/a	n/a	n/a
3484.36	n/a	RECOG_TARGET	1742180	n/a	LTP068	ltpFR	3	7	0	PRINTER	1126	1	5	0	n/a	n/a	n/a	n/a	n/a
3485.126	n/a	RECOG_RESP	1742563	n/a	LTP068	ltpFR	3	7	0	PRINTER	1126	1	n/a	0	n/a	n/a	n/a	n/a	n/a
3485.894	n/a	RECOG_CONF	1742947	n/a	LTP068	ltpFR	3	7	0	PRINTER	1126	n/a	5	0	n/a	n/a	n/a	n/a	n/a
3489.608	n/a	REC_START	1744804	n/a	LTP068	ltpFR	3	8	n/a	n/a	n/a	n/a	n/a	n/a	n/a	n/a	n/a	n/a	n/a
3489.642	n/a	RECOG_LURE	1744821	n/a	LTP068	ltpFR	3	8	n/a	APPLICATION	34	0	5	n/a	n/a	n/a	n/a	n/a	n/a
3490.586	n/a	RECOG_RESP	1745293	n/a	LTP068	ltpFR	3	8	n/a	APPLICATION	34	0	n/a	n/a	n/a	n/a	n/a	n/a	n/a
3491.312	n/a	RECOG_CONF	1745656	n/a	LTP068	ltpFR	3	8	n/a	APPLICATION	34	n/a	5	n/a	n/a	n/a	n/a	n/a	n/a
3492.894	n/a	RECOG_LURE	1746447	n/a	LTP068	ltpFR	3	8	n/a	BUCKLE	185	0	2	n/a	n/a	n/a	n/a	n/a	n/a
3494.602	n/a	RECOG_RESP	1747301	n/a	LTP068	ltpFR	3	8	n/a	BUCKLE	185	0	n/a	n/a	n/a	n/a	n/a	n/a	n/a
3495.46	n/a	RECOG_CONF	1747730	n/a	LTP068	ltpFR	3	8	n/a	BUCKLE	185	n/a	2	n/a	n/a	n/a	n/a	n/a	n/a
3496.844	n/a	RECOG_TARGET	1748422	n/a	LTP068	ltpFR	3	8	1	TORCH	1484	1	5	0	n/a	n/a	n/a	n/a	n/a
3497.57	n/a	RECOG_RESP	1748785	n/a	LTP068	ltpFR	3	8	1	TORCH	1484	1	n/a	0	n/a	n/a	n/a	n/a	n/a
3498.18	n/a	RECOG_CONF	1749090	n/a	LTP068	ltpFR	3	8	1	TORCH	1484	n/a	5	0	n/a	n/a	n/a	n/a	n/a
3499.552	n/a	RECOG_TARGET	1749776	n/a	LTP068	ltpFR	3	8	-1	PRINCE	1124	0	1	-1	n/a	n/a	n/a	n/a	n/a
3500.758	n/a	RECOG_RESP	1750379	n/a	LTP068	ltpFR	3	8	-1	PRINCE	1124	0	n/a	-1	n/a	n/a	n/a	n/a	n/a
3501.596	n/a	RECOG_CONF	1750798	n/a	LTP068	ltpFR	3	8	-1	PRINCE	1124	n/a	1	-1	n/a	n/a	n/a	n/a	n/a
3502.9	n/a	RECOG_TARGET	1751450	n/a	LTP068	ltpFR	3	8	0	TELEVISION	1447	1	5	1	n/a	n/a	n/a	n/a	n/a
3503.592	n/a	RECOG_RESP	1751796	n/a	LTP068	ltpFR	3	8	0	TELEVISION	1447	1	n/a	1	n/a	n/a	n/a	n/a	n/a
3504.298	n/a	RECOG_CONF	1752149	n/a	LTP068	ltpFR	3	8	0	TELEVISION	1447	n/a	5	1	n/a	n/a	n/a	n/a	n/a
3505.742	n/a	RECOG_TARGET	1752871	n/a	LTP068	ltpFR	3	8	-1	COLLEGE	346	0	5	-1	n/a	n/a	n/a	n/a	n/a
3507.352	n/a	RECOG_RESP	1753676	n/a	LTP068	ltpFR	3	8	-1	COLLEGE	346	0	n/a	-1	n/a	n/a	n/a	n/a	n/a
3508.04	n/a	RECOG_CONF	1754020	n/a	LTP068	ltpFR	3	8	-1	COLLEGE	346	n/a	5	-1	n/a	n/a	n/a	n/a	n/a
3509.608	n/a	RECOG_TARGET	1754804	n/a	LTP068	ltpFR	3	8	0	SAUSAGE	1238	1	3	0	n/a	n/a	n/a	n/a	n/a
3511.084	n/a	RECOG_RESP	1755542	n/a	LTP068	ltpFR	3	8	0	SAUSAGE	1238	1	n/a	0	n/a	n/a	n/a	n/a	n/a
3511.992	n/a	RECOG_CONF	1755996	n/a	LTP068	ltpFR	3	8	0	SAUSAGE	1238	n/a	3	0	n/a	n/a	n/a	n/a	n/a
3513.384	n/a	RECOG_LURE	1756692	n/a	LTP068	ltpFR	3	8	n/a	STREAM	1392	0	3	n/a	n/a	n/a	n/a	n/a	n/a
3514.718	n/a	RECOG_RESP_VV	1757359	n/a	LTP068	ltpFR	3	8	n/a	STREAM	1392	1	n/a	n/a	n/a	n/a	n/a	n/a	n/a
3516.184	n/a	RECOG_RESP	1758092	n/a	LTP068	ltpFR	3	8	n/a	STREAM	1392	0	n/a	n/a	n/a	n/a	n/a	n/a	n/a
3516.962	n/a	RECOG_CONF	1758481	n/a	LTP068	ltpFR	3	8	n/a	STREAM	1392	n/a	3	n/a	n/a	n/a	n/a	n/a	n/a
3518.384	n/a	RECOG_TARGET	1759192	n/a	LTP068	ltpFR	3	8	0	CHAMPION	279	1	5	1	n/a	n/a	n/a	n/a	n/a
3519.836	n/a	RECOG_RESP	1759918	n/a	LTP068	ltpFR	3	8	0	CHAMPION	279	1	n/a	1	n/a	n/a	n/a	n/a	n/a
3520.402	n/a	RECOG_CONF	1760201	n/a	LTP068	ltpFR	3	8	0	CHAMPION	279	n/a	5	1	n/a	n/a	n/a	n/a	n/a
3521.942	n/a	RECOG_TARGET	1760971	n/a	LTP068	ltpFR	3	8	1	DIVER	476	1	5	1	n/a	n/a	n/a	n/a	n/a
3522.654	n/a	RECOG_RESP	1761327	n/a	LTP068	ltpFR	3	8	1	DIVER	476	1	n/a	1	n/a	n/a	n/a	n/a	n/a
3523.506	n/a	RECOG_CONF	1761753	n/a	LTP068	ltpFR	3	8	1	DIVER	476	n/a	5	1	n/a	n/a	n/a	n/a	n/a
3525.05	n/a	RECOG_TARGET	1762525	n/a	LTP068	ltpFR	3	8	0	EXPERT	543	1	5	1	n/a	n/a	n/a	n/a	n/a
3525.822	n/a	RECOG_RESP	1762911	n/a	LTP068	ltpFR	3	8	0	EXPERT	543	1	n/a	1	n/a	n/a	n/a	n/a	n/a
3526.718	n/a	RECOG_CONF	1763359	n/a	LTP068	ltpFR	3	8	0	EXPERT	543	n/a	5	1	n/a	n/a	n/a	n/a	n/a
3528.016	n/a	RECOG_TARGET	1764008	n/a	LTP068	ltpFR	3	8	0	SAILOR	1223	1	5	1	n/a	n/a	n/a	n/a	n/a
3528.826	n/a	RECOG_RESP	1764413	n/a	LTP068	ltpFR	3	8	0	SAILOR	1223	1	n/a	1	n/a	n/a	n/a	n/a	n/a
3529.508	n/a	RECOG_CONF	1764754	n/a	LTP068	ltpFR	3	8	0	SAILOR	1223	n/a	5	1	n/a	n/a	n/a	n/a	n/a
3531.092	n/a	RECOG_LURE	1765546	n/a	LTP068	ltpFR	3	8	n/a	COURSE	390	0	5	n/a	n/a	n/a	n/a	n/a	n/a
3531.958	n/a	RECOG_RESP	1765979	n/a	LTP068	ltpFR	3	8	n/a	COURSE	390	0	n/a	n/a	n/a	n/a	n/a	n/a	n/a
3532.548	n/a	RECOG_CONF	1766274	n/a	LTP068	ltpFR	3	8	n/a	COURSE	390	n/a	5	n/a	n/a	n/a	n/a	n/a	n/a
3534.118	n/a	RECOG_TARGET	1767059	n/a	LTP068	ltpFR	3	8	0	GLOBE	641	1	5	1	n/a	n/a	n/a	n/a	n/a
3535.052	n/a	RECOG_RESP	1767526	n/a	LTP068	ltpFR	3	8	0	GLOBE	641	1	n/a	1	n/a	n/a	n/a	n/a	n/a
3535.91	n/a	RECOG_CONF	1767955	n/a	LTP068	ltpFR	3	8	0	GLOBE	641	n/a	5	1	n/a	n/a	n/a	n/a	n/a
3537.342	n/a	RECOG_TARGET	1768671	n/a	LTP068	ltpFR	3	8	1	GULL	671	1	5	1	n/a	n/a	n/a	n/a	n/a
