onset	duration	trial_type	sample	stim_file	subject	experiment	session	trial	task	item_name	item_num	recog_resp	recog_conf	resp	color_r	color_g	color_b	case	font
231.32	n/a	SESS_START	115660	n/a	LTP174	ltpFR	4	n/a	n/a	n/a	n/a	0	2	n/a	n/a	n/a	n/a	n/a	n/a
277.42	n/a	WORD	138710	wordpools/wasnorm_wordpool_less_exclusions.txt	LTP174	ltpFR	4	1	1	KIWI	781	0	n/a	0	0.422607421875	0.5869140625	0	lower	zerothre.ttf
281.314	n/a	WORD	140657	wordpools/wasnorm_wordpool_less_exclusions.txt	LTP174	ltpFR	4	1	1	BANKER	84	n/a	n/a	0	0.422607421875	0.5869140625	0	lower	zerothre.ttf
285.326	n/a	WORD	142663	wordpools/wasnorm_wordpool_less_exclusions.txt	LTP174	ltpFR	4	1	0	BILL	126	n/a	n/a	0	0.57763671875	0.412841796875	1	upper	amplitud.ttf
289.502	n/a	WORD	144751	wordpools/wasnorm_wordpool_less_exclusions.txt	LTP174	ltpFR	4	1	0	PICKLE	1059	n/a	n/a	0	0.57763671875	0.412841796875	1	upper	amplitud.ttf
293.696	n/a	WORD	146848	wordpools/wasnorm_wordpool_less_exclusions.txt	LTP174	ltpFR	4	1	0	CELERY	266	n/a	n/a	0	0.57763671875	0.412841796875	1	upper	amplitud.ttf
297.59	n/a	WORD	148795	wordpools/wasnorm_wordpool_less_exclusions.txt	LTP174	ltpFR	4	1	0	MARKET	871	n/a	n/a	1	0.57763671875	0.412841796875	1	upper	amplitud.ttf
301.734	n/a	WORD	150867	wordpools/wasnorm_wordpool_less_exclusions.txt	LTP174	ltpFR	4	1	0	INSTRUCTOR	741	n/a	n/a	1	0.57763671875	0.412841796875	1	upper	amplitud.ttf
305.812	n/a	WORD	152906	wordpools/wasnorm_wordpool_less_exclusions.txt	LTP174	ltpFR	4	1	1	STREAM	1392	n/a	n/a	0	0.422607421875	0.5869140625	0	lower	zerothre.ttf
309.656	n/a	WORD	154828	wordpools/wasnorm_wordpool_less_exclusions.txt	LTP174	ltpFR	4	1	1	PUPPY	1144	n/a	n/a	1	0.422607421875	0.5869140625	0	lower	zerothre.ttf
313.584	n/a	WORD	156792	wordpools/wasnorm_wordpool_less_exclusions.txt	LTP174	ltpFR	4	1	0	CANDLE	229	n/a	n/a	0	0.57763671875	0.412841796875	1	upper	amplitud.ttf
317.444	n/a	WORD	158722	wordpools/wasnorm_wordpool_less_exclusions.txt	LTP174	ltpFR	4	1	0	BARRACUDA	90	n/a	n/a	0	0.57763671875	0.412841796875	1	upper	amplitud.ttf
321.604	n/a	WORD	160802	wordpools/wasnorm_wordpool_less_exclusions.txt	LTP174	ltpFR	4	1	0	KEEPER	769	n/a	n/a	1	0.57763671875	0.412841796875	1	upper	amplitud.ttf
325.516	n/a	WORD	162758	wordpools/wasnorm_wordpool_less_exclusions.txt	LTP174	ltpFR	4	1	1	LAKE	796	n/a	n/a	3	0.422607421875	0.5869140625	0	lower	zerothre.ttf
327.846	n/a	KEY_MSG	163923	n/a	LTP174	ltpFR	4	1	n/a	n/a	n/a	n/a	n/a	n/a	n/a	n/a	n/a	n/a	n/a
330.408	n/a	WORD	165204	wordpools/wasnorm_wordpool_less_exclusions.txt	LTP174	ltpFR	4	1	1	VAULT	1550	n/a	n/a	0	0.422607421875	0.5869140625	0	lower	zerothre.ttf
334.37	n/a	WORD	167185	wordpools/wasnorm_wordpool_less_exclusions.txt	LTP174	ltpFR	4	1	1	VINE	1568	n/a	n/a	1	0.422607421875	0.5869140625	0	lower	zerothre.ttf
338.546	n/a	WORD	169273	wordpools/wasnorm_wordpool_less_exclusions.txt	LTP174	ltpFR	4	1	1	WALL	1582	n/a	n/a	0	0.422607421875	0.5869140625	0	lower	zerothre.ttf
344.122	n/a	REC_START	172061	n/a	LTP174	ltpFR	4	1	n/a	n/a	n/a	n/a	n/a	n/a	n/a	n/a	n/a	n/a	n/a
345.588	n/a	REC_WORD	172794	wordpools/wasnorm_wordpool_less_exclusions.txt	LTP174	ltpFR	4	1	1	KIWI	781	n/a	n/a	0	n/a	n/a	n/a	n/a	n/a
346.532	n/a	REC_WORD	173266	wordpools/wasnorm_wordpool_less_exclusions.txt	LTP174	ltpFR	4	1	0	PICKLE	1059	n/a	n/a	0	n/a	n/a	n/a	n/a	n/a
347.354	n/a	REC_WORD	173677	wordpools/wasnorm_wordpool_less_exclusions.txt	LTP174	ltpFR	4	1	0	CELERY	266	n/a	n/a	0	n/a	n/a	n/a	n/a	n/a
349.66	n/a	REC_WORD	174830	wordpools/wasnorm_wordpool_less_exclusions.txt	LTP174	ltpFR	4	1	1	BANKER	84	n/a	n/a	0	n/a	n/a	n/a	n/a	n/a
350.442	n/a	REC_WORD	175221	wordpools/wasnorm_wordpool_less_exclusions.txt	LTP174	ltpFR	4	1	0	INSTRUCTOR	741	n/a	n/a	1	n/a	n/a	n/a	n/a	n/a
351.442	n/a	REC_WORD_VV	175721	wordpools/wasnorm_wordpool_less_exclusions.txt	LTP174	ltpFR	4	1	n/a	<>	-1	n/a	n/a	n/a	n/a	n/a	n/a	n/a	n/a
351.91	n/a	REC_WORD	175955	wordpools/wasnorm_wordpool_less_exclusions.txt	LTP174	ltpFR	4	1	0	BILL	126	n/a	n/a	0	n/a	n/a	n/a	n/a	n/a
354.134	n/a	REC_WORD	177067	wordpools/wasnorm_wordpool_less_exclusions.txt	LTP174	ltpFR	4	1	0	MARKET	871	n/a	n/a	1	n/a	n/a	n/a	n/a	n/a
359.022	n/a	REC_WORD	179511	wordpools/wasnorm_wordpool_less_exclusions.txt	LTP174	ltpFR	4	1	1	STREAM	1392	n/a	n/a	0	n/a	n/a	n/a	n/a	n/a
360.226	n/a	REC_WORD	180113	wordpools/wasnorm_wordpool_less_exclusions.txt	LTP174	ltpFR	4	1	1	LAKE	796	n/a	n/a	3	n/a	n/a	n/a	n/a	n/a
361.288	n/a	REC_WORD	180644	wordpools/wasnorm_wordpool_less_exclusions.txt	LTP174	ltpFR	4	1	1	PUPPY	1144	n/a	n/a	1	n/a	n/a	n/a	n/a	n/a
362.186	n/a	REC_WORD	181093	wordpools/wasnorm_wordpool_less_exclusions.txt	LTP174	ltpFR	4	1	0	BARRACUDA	90	n/a	n/a	0	n/a	n/a	n/a	n/a	n/a
364.052	n/a	REC_WORD	182026	wordpools/wasnorm_wordpool_less_exclusions.txt	LTP174	ltpFR	4	1	0	KEEPER	769	n/a	n/a	1	n/a	n/a	n/a	n/a	n/a
369.264	n/a	REC_WORD	184632	wordpools/wasnorm_wordpool_less_exclusions.txt	LTP174	ltpFR	4	1	1	VINE	1568	n/a	n/a	1	n/a	n/a	n/a	n/a	n/a
370.552	n/a	REC_WORD	185276	wordpools/wasnorm_wordpool_less_exclusions.txt	LTP174	ltpFR	4	1	1	WALL	1582	n/a	n/a	0	n/a	n/a	n/a	n/a	n/a
371.544	n/a	REC_WORD	185772	wordpools/wasnorm_wordpool_less_exclusions.txt	LTP174	ltpFR	4	1	1	VAULT	1550	n/a	n/a	0	n/a	n/a	n/a	n/a	n/a
396.414	n/a	REC_WORD	198207	wordpools/wasnorm_wordpool_less_exclusions.txt	LTP174	ltpFR	4	1	0	KEEPER	769	n/a	n/a	1	n/a	n/a	n/a	n/a	n/a
423.354	n/a	WORD	211677	wordpools/wasnorm_wordpool_less_exclusions.txt	LTP174	ltpFR	4	2	0	ORCHID	982	n/a	n/a	0	0.57763671875	0.412841796875	1	upper	amplitud.ttf
427.432	n/a	WORD	213716	wordpools/wasnorm_wordpool_less_exclusions.txt	LTP174	ltpFR	4	2	0	LILY	821	n/a	n/a	0	0.57763671875	0.412841796875	1	upper	amplitud.ttf
431.626	n/a	WORD	215813	wordpools/wasnorm_wordpool_less_exclusions.txt	LTP174	ltpFR	4	2	0	DAISY	435	n/a	n/a	0	0.57763671875	0.412841796875	1	upper	amplitud.ttf
435.754	n/a	WORD	217877	wordpools/wasnorm_wordpool_less_exclusions.txt	LTP174	ltpFR	4	2	0	RACCOON	1153	n/a	n/a	1	0.57763671875	0.412841796875	1	upper	amplitud.ttf
439.58	n/a	WORD	219790	wordpools/wasnorm_wordpool_less_exclusions.txt	LTP174	ltpFR	4	2	1	SHARK	1275	n/a	n/a	1	0.422607421875	0.5869140625	0	lower	zerothre.ttf
443.724	n/a	WORD	221862	wordpools/wasnorm_wordpool_less_exclusions.txt	LTP174	ltpFR	4	2	1	LASER	801	n/a	n/a	0	0.422607421875	0.5869140625	0	lower	zerothre.ttf
447.668	n/a	WORD	223834	wordpools/wasnorm_wordpool_less_exclusions.txt	LTP174	ltpFR	4	2	1	GIRAFFE	636	n/a	n/a	1	0.422607421875	0.5869140625	0	lower	zerothre.ttf
451.596	n/a	WORD	225798	wordpools/wasnorm_wordpool_less_exclusions.txt	LTP174	ltpFR	4	2	1	STRAW	1390	n/a	n/a	0	0.422607421875	0.5869140625	0	lower	zerothre.ttf
455.824	n/a	WORD	227912	wordpools/wasnorm_wordpool_less_exclusions.txt	LTP174	ltpFR	4	2	1	PRAIRIE	1118	n/a	n/a	0	0.422607421875	0.5869140625	0	lower	zerothre.ttf
459.65	n/a	WORD	229825	wordpools/wasnorm_wordpool_less_exclusions.txt	LTP174	ltpFR	4	2	1	FEAST	556	n/a	n/a	0	0.422607421875	0.5869140625	0	lower	zerothre.ttf
463.828	n/a	WORD	231914	wordpools/wasnorm_wordpool_less_exclusions.txt	LTP174	ltpFR	4	2	0	RIB	1188	n/a	n/a	0	0.57763671875	0.412841796875	1	upper	amplitud.ttf
467.788	n/a	WORD	233894	wordpools/wasnorm_wordpool_less_exclusions.txt	LTP174	ltpFR	4	2	0	SALIVA	1226	n/a	n/a	0	0.57763671875	0.412841796875	1	upper	amplitud.ttf
471.832	n/a	WORD	235916	wordpools/wasnorm_wordpool_less_exclusions.txt	LTP174	ltpFR	4	2	1	GLOBE	641	n/a	n/a	0	0.422607421875	0.5869140625	0	lower	zerothre.ttf
475.826	n/a	WORD	237913	wordpools/wasnorm_wordpool_less_exclusions.txt	LTP174	ltpFR	4	2	1	POLICE	1098	n/a	n/a	0	0.422607421875	0.5869140625	0	lower	zerothre.ttf
479.838	n/a	WORD	239919	wordpools/wasnorm_wordpool_less_exclusions.txt	LTP174	ltpFR	4	2	0	VASE	1549	n/a	n/a	0	0.57763671875	0.412841796875	1	upper	amplitud.ttf
483.698	n/a	WORD	241849	wordpools/wasnorm_wordpool_less_exclusions.txt	LTP174	ltpFR	4	2	0	DIGGER	464	n/a	n/a	0	0.57763671875	0.412841796875	1	upper	amplitud.ttf
489.424	n/a	REC_START	244712	n/a	LTP174	ltpFR	4	2	n/a	n/a	n/a	n/a	n/a	n/a	n/a	n/a	n/a	n/a	n/a
491.484	n/a	REC_WORD	245742	wordpools/wasnorm_wordpool_less_exclusions.txt	LTP174	ltpFR	4	2	0	ORCHID	982	n/a	n/a	0	n/a	n/a	n/a	n/a	n/a
493.48	n/a	REC_WORD	246740	wordpools/wasnorm_wordpool_less_exclusions.txt	LTP174	ltpFR	4	2	0	DAISY	435	n/a	n/a	0	n/a	n/a	n/a	n/a	n/a
494.392	n/a	REC_WORD	247196	wordpools/wasnorm_wordpool_less_exclusions.txt	LTP174	ltpFR	4	2	0	LILY	821	n/a	n/a	0	n/a	n/a	n/a	n/a	n/a
496.544	n/a	REC_WORD	248272	wordpools/wasnorm_wordpool_less_exclusions.txt	LTP174	ltpFR	4	2	0	RACCOON	1153	n/a	n/a	1	n/a	n/a	n/a	n/a	n/a
498.598	n/a	REC_WORD	249299	wordpools/wasnorm_wordpool_less_exclusions.txt	LTP174	ltpFR	4	2	1	SHARK	1275	n/a	n/a	1	n/a	n/a	n/a	n/a	n/a
500.684	n/a	REC_WORD	250342	wordpools/wasnorm_wordpool_less_exclusions.txt	LTP174	ltpFR	4	2	1	LASER	801	n/a	n/a	0	n/a	n/a	n/a	n/a	n/a
502.01	n/a	REC_WORD	251005	wordpools/wasnorm_wordpool_less_exclusions.txt	LTP174	ltpFR	4	2	1	STRAW	1390	n/a	n/a	0	n/a	n/a	n/a	n/a	n/a
503.482	n/a	REC_WORD	251741	wordpools/wasnorm_wordpool_less_exclusions.txt	LTP174	ltpFR	4	2	1	GIRAFFE	636	n/a	n/a	1	n/a	n/a	n/a	n/a	n/a
505.902	n/a	REC_WORD	252951	wordpools/wasnorm_wordpool_less_exclusions.txt	LTP174	ltpFR	4	2	1	PRAIRIE	1118	n/a	n/a	0	n/a	n/a	n/a	n/a	n/a
507.408	n/a	REC_WORD	253704	wordpools/wasnorm_wordpool_less_exclusions.txt	LTP174	ltpFR	4	2	1	FEAST	556	n/a	n/a	0	n/a	n/a	n/a	n/a	n/a
508.64	n/a	REC_WORD	254320	wordpools/wasnorm_wordpool_less_exclusions.txt	LTP174	ltpFR	4	2	0	SALIVA	1226	n/a	n/a	0	n/a	n/a	n/a	n/a	n/a
509.972	n/a	REC_WORD	254986	wordpools/wasnorm_wordpool_less_exclusions.txt	LTP174	ltpFR	4	2	0	RIB	1188	n/a	n/a	0	n/a	n/a	n/a	n/a	n/a
513.844	n/a	REC_WORD	256922	wordpools/wasnorm_wordpool_less_exclusions.txt	LTP174	ltpFR	4	2	1	POLICE	1098	n/a	n/a	0	n/a	n/a	n/a	n/a	n/a
515.89	n/a	REC_WORD	257945	wordpools/wasnorm_wordpool_less_exclusions.txt	LTP174	ltpFR	4	2	1	GLOBE	641	n/a	n/a	0	n/a	n/a	n/a	n/a	n/a
518.298	n/a	REC_WORD	259149	wordpools/wasnorm_wordpool_less_exclusions.txt	LTP174	ltpFR	4	2	0	VASE	1549	n/a	n/a	0	n/a	n/a	n/a	n/a	n/a
521.9	n/a	REC_WORD	260950	wordpools/wasnorm_wordpool_less_exclusions.txt	LTP174	ltpFR	4	2	0	DIGGER	464	n/a	n/a	0	n/a	n/a	n/a	n/a	n/a
593.37	n/a	WORD	296685	wordpools/wasnorm_wordpool_less_exclusions.txt	LTP174	ltpFR	4	3	0	FELLOW	558	n/a	n/a	1	0.57763671875	0.412841796875	1	upper	amplitud.ttf
597.496	n/a	WORD	298748	wordpools/wasnorm_wordpool_less_exclusions.txt	LTP174	ltpFR	4	3	0	MAN	862	n/a	n/a	1	0.57763671875	0.412841796875	1	upper	amplitud.ttf
601.64	n/a	WORD	300820	wordpools/wasnorm_wordpool_less_exclusions.txt	LTP174	ltpFR	4	3	0	FRIES	607	n/a	n/a	0	0.57763671875	0.412841796875	1	upper	amplitud.ttf
605.734	n/a	WORD	302867	wordpools/wasnorm_wordpool_less_exclusions.txt	LTP174	ltpFR	4	3	1	APARTMENT	30	n/a	n/a	0	0.422607421875	0.5869140625	0	lower	zerothre.ttf
609.812	n/a	WORD	304906	wordpools/wasnorm_wordpool_less_exclusions.txt	LTP174	ltpFR	4	3	1	WASHER	1592	n/a	n/a	0	0.422607421875	0.5869140625	0	lower	zerothre.ttf
613.64	n/a	WORD	306820	wordpools/wasnorm_wordpool_less_exclusions.txt	LTP174	ltpFR	4	3	0	MAPLE	866	n/a	n/a	0	0.57763671875	0.412841796875	1	upper	amplitud.ttf
617.634	n/a	WORD	308817	wordpools/wasnorm_wordpool_less_exclusions.txt	LTP174	ltpFR	4	3	0	TIGER	1467	n/a	n/a	1	0.57763671875	0.412841796875	1	upper	amplitud.ttf
621.728	n/a	WORD	310864	wordpools/wasnorm_wordpool_less_exclusions.txt	LTP174	ltpFR	4	3	1	BISON	131	n/a	n/a	0	0.422607421875	0.5869140625	0	lower	zerothre.ttf
625.904	n/a	WORD	312952	wordpools/wasnorm_wordpool_less_exclusions.txt	LTP174	ltpFR	4	3	1	ELECTRON	522	n/a	n/a	0	0.422607421875	0.5869140625	0	lower	zerothre.ttf
629.748	n/a	WORD	314874	wordpools/wasnorm_wordpool_less_exclusions.txt	LTP174	ltpFR	4	3	1	SHEET	1279	n/a	n/a	0	0.422607421875	0.5869140625	0	lower	zerothre.ttf
633.926	n/a	WORD	316963	wordpools/wasnorm_wordpool_less_exclusions.txt	LTP174	ltpFR	4	3	1	CARDINAL	244	n/a	n/a	0	0.422607421875	0.5869140625	0	lower	zerothre.ttf
637.97	n/a	WORD	318985	wordpools/wasnorm_wordpool_less_exclusions.txt	LTP174	ltpFR	4	3	1	NEST	945	n/a	n/a	0	0.422607421875	0.5869140625	0	lower	zerothre.ttf
641.848	n/a	WORD	320924	wordpools/wasnorm_wordpool_less_exclusions.txt	LTP174	ltpFR	4	3	1	OREGANO	983	n/a	n/a	0	0.422607421875	0.5869140625	0	lower	zerothre.ttf
645.86	n/a	WORD	322930	wordpools/wasnorm_wordpool_less_exclusions.txt	LTP174	ltpFR	4	3	0	HANDKERCHIEF	686	n/a	n/a	0	0.57763671875	0.412841796875	1	upper	amplitud.ttf
649.72	n/a	WORD	324860	wordpools/wasnorm_wordpool_less_exclusions.txt	LTP174	ltpFR	4	3	0	SAP	1233	n/a	n/a	0	0.57763671875	0.412841796875	1	upper	amplitud.ttf
653.814	n/a	WORD	326907	wordpools/wasnorm_wordpool_less_exclusions.txt	LTP174	ltpFR	4	3	0	DRYER	503	n/a	n/a	2	0.57763671875	0.412841796875	1	upper	amplitud.ttf
656.11	n/a	KEY_MSG	328055	n/a	LTP174	ltpFR	4	3	n/a	n/a	n/a	n/a	n/a	n/a	n/a	n/a	n/a	n/a	n/a
660.422	n/a	REC_START	330211	n/a	LTP174	ltpFR	4	3	n/a	n/a	n/a	n/a	n/a	n/a	n/a	n/a	n/a	n/a	n/a
662.038	n/a	REC_WORD	331019	wordpools/wasnorm_wordpool_less_exclusions.txt	LTP174	ltpFR	4	3	0	FELLOW	558	n/a	n/a	1	n/a	n/a	n/a	n/a	n/a
662.73	n/a	REC_WORD	331365	wordpools/wasnorm_wordpool_less_exclusions.txt	LTP174	ltpFR	4	3	0	MAN	862	n/a	n/a	1	n/a	n/a	n/a	n/a	n/a
663.734	n/a	REC_WORD	331867	wordpools/wasnorm_wordpool_less_exclusions.txt	LTP174	ltpFR	4	3	0	FRIES	607	n/a	n/a	0	n/a	n/a	n/a	n/a	n/a
664.712	n/a	REC_WORD	332356	wordpools/wasnorm_wordpool_less_exclusions.txt	LTP174	ltpFR	4	3	1	APARTMENT	30	n/a	n/a	0	n/a	n/a	n/a	n/a	n/a
665.744	n/a	REC_WORD	332872	wordpools/wasnorm_wordpool_less_exclusions.txt	LTP174	ltpFR	4	3	1	WASHER	1592	n/a	n/a	0	n/a	n/a	n/a	n/a	n/a
667.4	n/a	REC_WORD	333700	wordpools/wasnorm_wordpool_less_exclusions.txt	LTP174	ltpFR	4	3	0	MAPLE	866	n/a	n/a	0	n/a	n/a	n/a	n/a	n/a
668.274	n/a	REC_WORD	334137	wordpools/wasnorm_wordpool_less_exclusions.txt	LTP174	ltpFR	4	3	0	TIGER	1467	n/a	n/a	1	n/a	n/a	n/a	n/a	n/a
669.42	n/a	REC_WORD	334710	wordpools/wasnorm_wordpool_less_exclusions.txt	LTP174	ltpFR	4	3	1	BISON	131	n/a	n/a	0	n/a	n/a	n/a	n/a	n/a
671.512	n/a	REC_WORD	335756	wordpools/wasnorm_wordpool_less_exclusions.txt	LTP174	ltpFR	4	3	1	ELECTRON	522	n/a	n/a	0	n/a	n/a	n/a	n/a	n/a
672.404	n/a	REC_WORD	336202	wordpools/wasnorm_wordpool_less_exclusions.txt	LTP174	ltpFR	4	3	1	SHEET	1279	n/a	n/a	0	n/a	n/a	n/a	n/a	n/a
673.346	n/a	REC_WORD	336673	wordpools/wasnorm_wordpool_less_exclusions.txt	LTP174	ltpFR	4	3	1	CARDINAL	244	n/a	n/a	0	n/a	n/a	n/a	n/a	n/a
674.23	n/a	REC_WORD	337115	wordpools/wasnorm_wordpool_less_exclusions.txt	LTP174	ltpFR	4	3	0	SAP	1233	n/a	n/a	0	n/a	n/a	n/a	n/a	n/a
675.168	n/a	REC_WORD	337584	wordpools/wasnorm_wordpool_less_exclusions.txt	LTP174	ltpFR	4	3	0	HANDKERCHIEF	686	n/a	n/a	0	n/a	n/a	n/a	n/a	n/a
676.196	n/a	REC_WORD	338098	wordpools/wasnorm_wordpool_less_exclusions.txt	LTP174	ltpFR	4	3	1	OREGANO	983	n/a	n/a	0	n/a	n/a	n/a	n/a	n/a
677.196	n/a	REC_WORD_VV	338598	wordpools/wasnorm_wordpool_less_exclusions.txt	LTP174	ltpFR	4	3	n/a	<>	-1	n/a	n/a	n/a	n/a	n/a	n/a	n/a	n/a
679.064	n/a	REC_WORD	339532	wordpools/wasnorm_wordpool_less_exclusions.txt	LTP174	ltpFR	4	3	0	DRYER	503	n/a	n/a	2	n/a	n/a	n/a	n/a	n/a
691.136	n/a	REC_WORD	345568	wordpools/wasnorm_wordpool_less_exclusions.txt	LTP174	ltpFR	4	3	0	SAP	1233	n/a	n/a	0	n/a	n/a	n/a	n/a	n/a
710.812	n/a	REC_WORD	355406	wordpools/wasnorm_wordpool_less_exclusions.txt	LTP174	ltpFR	4	3	1	NEST	945	n/a	n/a	0	n/a	n/a	n/a	n/a	n/a
754.482	n/a	WORD	377241	wordpools/wasnorm_wordpool_less_exclusions.txt	LTP174	ltpFR	4	4	1	SAUSAGE	1238	n/a	n/a	0	0.422607421875	0.5869140625	0	lower	zerothre.ttf
758.426	n/a	WORD	379213	wordpools/wasnorm_wordpool_less_exclusions.txt	LTP174	ltpFR	4	4	1	BOWL	158	n/a	n/a	0	0.422607421875	0.5869140625	0	lower	zerothre.ttf
762.436	n/a	WORD	381218	wordpools/wasnorm_wordpool_less_exclusions.txt	LTP174	ltpFR	4	4	1	STABLE	1363	n/a	n/a	0	0.422607421875	0.5869140625	0	lower	zerothre.ttf
766.346	n/a	WORD	383173	wordpools/wasnorm_wordpool_less_exclusions.txt	LTP174	ltpFR	4	4	1	HAY	693	n/a	n/a	0	0.422607421875	0.5869140625	0	lower	zerothre.ttf
770.424	n/a	WORD	385212	wordpools/wasnorm_wordpool_less_exclusions.txt	LTP174	ltpFR	4	4	1	BUTTON	207	n/a	n/a	0	0.422607421875	0.5869140625	0	lower	zerothre.ttf
774.534	n/a	WORD	387267	wordpools/wasnorm_wordpool_less_exclusions.txt	LTP174	ltpFR	4	4	1	BRANCH	168	n/a	n/a	0	0.422607421875	0.5869140625	0	lower	zerothre.ttf
778.496	n/a	WORD	389248	wordpools/wasnorm_wordpool_less_exclusions.txt	LTP174	ltpFR	4	4	1	RECEPTIONIST	1174	n/a	n/a	1	0.422607421875	0.5869140625	0	lower	zerothre.ttf
782.322	n/a	WORD	391161	wordpools/wasnorm_wordpool_less_exclusions.txt	LTP174	ltpFR	4	4	1	TURKEY	1520	n/a	n/a	0	0.422607421875	0.5869140625	0	lower	zerothre.ttf
786.366	n/a	WORD	393183	wordpools/wasnorm_wordpool_less_exclusions.txt	LTP174	ltpFR	4	4	1	SUPPER	1411	n/a	n/a	0	0.422607421875	0.5869140625	0	lower	zerothre.ttf
790.36	n/a	WORD	395180	wordpools/wasnorm_wordpool_less_exclusions.txt	LTP174	ltpFR	4	4	1	CORAL	378	n/a	n/a	0	0.422607421875	0.5869140625	0	lower	zerothre.ttf
794.188	n/a	WORD	397094	wordpools/wasnorm_wordpool_less_exclusions.txt	LTP174	ltpFR	4	4	1	SLACKS	1323	n/a	n/a	0	0.422607421875	0.5869140625	0	lower	zerothre.ttf
798.3	n/a	WORD	399150	wordpools/wasnorm_wordpool_less_exclusions.txt	LTP174	ltpFR	4	4	1	TWIG	1527	n/a	n/a	0	0.422607421875	0.5869140625	0	lower	zerothre.ttf
802.194	n/a	WORD	401097	wordpools/wasnorm_wordpool_less_exclusions.txt	LTP174	ltpFR	4	4	1	STEAM	1375	n/a	n/a	0	0.422607421875	0.5869140625	0	lower	zerothre.ttf
806.304	n/a	WORD	403152	wordpools/wasnorm_wordpool_less_exclusions.txt	LTP174	ltpFR	4	4	1	BANDIT	81	n/a	n/a	0	0.422607421875	0.5869140625	0	lower	zerothre.ttf
810.448	n/a	WORD	405224	wordpools/wasnorm_wordpool_less_exclusions.txt	LTP174	ltpFR	4	4	1	WALRUS	1585	n/a	n/a	0	0.422607421875	0.5869140625	0	lower	zerothre.ttf
814.61	n/a	WORD	407305	wordpools/wasnorm_wordpool_less_exclusions.txt	LTP174	ltpFR	4	4	1	FORK	594	n/a	n/a	0	0.422607421875	0.5869140625	0	lower	zerothre.ttf
820.568	n/a	REC_START	410284	n/a	LTP174	ltpFR	4	4	n/a	n/a	n/a	n/a	n/a	n/a	n/a	n/a	n/a	n/a	n/a
822.708	n/a	REC_WORD	411354	wordpools/wasnorm_wordpool_less_exclusions.txt	LTP174	ltpFR	4	4	1	SAUSAGE	1238	n/a	n/a	0	n/a	n/a	n/a	n/a	n/a
823.86	n/a	REC_WORD	411930	wordpools/wasnorm_wordpool_less_exclusions.txt	LTP174	ltpFR	4	4	1	BOWL	158	n/a	n/a	0	n/a	n/a	n/a	n/a	n/a
824.652	n/a	REC_WORD	412326	wordpools/wasnorm_wordpool_less_exclusions.txt	LTP174	ltpFR	4	4	1	STABLE	1363	n/a	n/a	0	n/a	n/a	n/a	n/a	n/a
825.626	n/a	REC_WORD	412813	wordpools/wasnorm_wordpool_less_exclusions.txt	LTP174	ltpFR	4	4	1	HAY	693	n/a	n/a	0	n/a	n/a	n/a	n/a	n/a
827.356	n/a	REC_WORD	413678	wordpools/wasnorm_wordpool_less_exclusions.txt	LTP174	ltpFR	4	4	1	BUTTON	207	n/a	n/a	0	n/a	n/a	n/a	n/a	n/a
828.25	n/a	REC_WORD	414125	wordpools/wasnorm_wordpool_less_exclusions.txt	LTP174	ltpFR	4	4	n/a	RANCH	1166	n/a	n/a	n/a	n/a	n/a	n/a	n/a	n/a
829.692	n/a	REC_WORD	414846	wordpools/wasnorm_wordpool_less_exclusions.txt	LTP174	ltpFR	4	4	1	RECEPTIONIST	1174	n/a	n/a	1	n/a	n/a	n/a	n/a	n/a
830.692	n/a	REC_WORD_VV	415346	wordpools/wasnorm_wordpool_less_exclusions.txt	LTP174	ltpFR	4	4	n/a	<>	-1	n/a	n/a	n/a	n/a	n/a	n/a	n/a	n/a
832.29	n/a	REC_WORD	416145	wordpools/wasnorm_wordpool_less_exclusions.txt	LTP174	ltpFR	4	4	1	TURKEY	1520	n/a	n/a	0	n/a	n/a	n/a	n/a	n/a
833.254	n/a	REC_WORD	416627	wordpools/wasnorm_wordpool_less_exclusions.txt	LTP174	ltpFR	4	4	1	SUPPER	1411	n/a	n/a	0	n/a	n/a	n/a	n/a	n/a
834.196	n/a	REC_WORD	417098	wordpools/wasnorm_wordpool_less_exclusions.txt	LTP174	ltpFR	4	4	1	CORAL	378	n/a	n/a	0	n/a	n/a	n/a	n/a	n/a
834.904	n/a	REC_WORD	417452	wordpools/wasnorm_wordpool_less_exclusions.txt	LTP174	ltpFR	4	4	1	SLACKS	1323	n/a	n/a	0	n/a	n/a	n/a	n/a	n/a
835.904	n/a	REC_WORD_VV	417952	wordpools/wasnorm_wordpool_less_exclusions.txt	LTP174	ltpFR	4	4	n/a	<>	-1	n/a	n/a	n/a	n/a	n/a	n/a	n/a	n/a
836.382	n/a	REC_WORD	418191	wordpools/wasnorm_wordpool_less_exclusions.txt	LTP174	ltpFR	4	4	1	TWIG	1527	n/a	n/a	0	n/a	n/a	n/a	n/a	n/a
841.34	n/a	REC_WORD	420670	wordpools/wasnorm_wordpool_less_exclusions.txt	LTP174	ltpFR	4	4	1	STEAM	1375	n/a	n/a	0	n/a	n/a	n/a	n/a	n/a
842.582	n/a	REC_WORD	421291	wordpools/wasnorm_wordpool_less_exclusions.txt	LTP174	ltpFR	4	4	1	BANDIT	81	n/a	n/a	0	n/a	n/a	n/a	n/a	n/a
843.77	n/a	REC_WORD	421885	wordpools/wasnorm_wordpool_less_exclusions.txt	LTP174	ltpFR	4	4	1	WALRUS	1585	n/a	n/a	0	n/a	n/a	n/a	n/a	n/a
844.846	n/a	REC_WORD	422423	wordpools/wasnorm_wordpool_less_exclusions.txt	LTP174	ltpFR	4	4	1	FORK	594	n/a	n/a	0	n/a	n/a	n/a	n/a	n/a
908.604	n/a	WORD	454302	wordpools/wasnorm_wordpool_less_exclusions.txt	LTP174	ltpFR	4	5	1	COMMUNITY	356	n/a	n/a	0	0.422607421875	0.5869140625	0	lower	zerothre.ttf
912.548	n/a	WORD	456274	wordpools/wasnorm_wordpool_less_exclusions.txt	LTP174	ltpFR	4	5	1	TYPIST	1532	n/a	n/a	0	0.422607421875	0.5869140625	0	lower	zerothre.ttf
916.442	n/a	WORD	458221	wordpools/wasnorm_wordpool_less_exclusions.txt	LTP174	ltpFR	4	5	1	FOLDER	588	n/a	n/a	0	0.422607421875	0.5869140625	0	lower	zerothre.ttf
920.586	n/a	WORD	460293	wordpools/wasnorm_wordpool_less_exclusions.txt	LTP174	ltpFR	4	5	1	OBOE	969	n/a	n/a	0	0.422607421875	0.5869140625	0	lower	zerothre.ttf
924.546	n/a	WORD	462273	wordpools/wasnorm_wordpool_less_exclusions.txt	LTP174	ltpFR	4	5	1	RADISH	1158	n/a	n/a	1	0.422607421875	0.5869140625	0	lower	zerothre.ttf
928.524	n/a	WORD	464262	wordpools/wasnorm_wordpool_less_exclusions.txt	LTP174	ltpFR	4	5	1	BEET	115	n/a	n/a	1	0.422607421875	0.5869140625	0	lower	zerothre.ttf
932.484	n/a	WORD	466242	wordpools/wasnorm_wordpool_less_exclusions.txt	LTP174	ltpFR	4	5	1	SHRIMP	1297	n/a	n/a	1	0.422607421875	0.5869140625	0	lower	zerothre.ttf
936.578	n/a	WORD	468289	wordpools/wasnorm_wordpool_less_exclusions.txt	LTP174	ltpFR	4	5	1	CANYON	235	n/a	n/a	0	0.422607421875	0.5869140625	0	lower	zerothre.ttf
940.638	n/a	WORD	470319	wordpools/wasnorm_wordpool_less_exclusions.txt	LTP174	ltpFR	4	5	1	CONDUCTOR	362	n/a	n/a	0	0.422607421875	0.5869140625	0	lower	zerothre.ttf
944.582	n/a	WORD	472291	wordpools/wasnorm_wordpool_less_exclusions.txt	LTP174	ltpFR	4	5	1	PORCUPINE	1107	n/a	n/a	1	0.422607421875	0.5869140625	0	lower	zerothre.ttf
948.444	n/a	WORD	474222	wordpools/wasnorm_wordpool_less_exclusions.txt	LTP174	ltpFR	4	5	1	MAMMAL	861	n/a	n/a	1	0.422607421875	0.5869140625	0	lower	zerothre.ttf
952.638	n/a	WORD	476319	wordpools/wasnorm_wordpool_less_exclusions.txt	LTP174	ltpFR	4	5	1	VET	1560	n/a	n/a	1	0.422607421875	0.5869140625	0	lower	zerothre.ttf
956.798	n/a	WORD	478399	wordpools/wasnorm_wordpool_less_exclusions.txt	LTP174	ltpFR	4	5	1	HARP	689	n/a	n/a	0	0.422607421875	0.5869140625	0	lower	zerothre.ttf
960.876	n/a	WORD	480438	wordpools/wasnorm_wordpool_less_exclusions.txt	LTP174	ltpFR	4	5	1	SUBURB	1399	n/a	n/a	0	0.422607421875	0.5869140625	0	lower	zerothre.ttf
964.77	n/a	WORD	482385	wordpools/wasnorm_wordpool_less_exclusions.txt	LTP174	ltpFR	4	5	1	MICROWAVE	892	n/a	n/a	0	0.422607421875	0.5869140625	0	lower	zerothre.ttf
968.714	n/a	WORD	484357	wordpools/wasnorm_wordpool_less_exclusions.txt	LTP174	ltpFR	4	5	1	SHOULDER	1294	n/a	n/a	0	0.422607421875	0.5869140625	0	lower	zerothre.ttf
974.622	n/a	REC_START	487311	n/a	LTP174	ltpFR	4	5	n/a	n/a	n/a	n/a	n/a	n/a	n/a	n/a	n/a	n/a	n/a
978.728	n/a	REC_WORD	489364	wordpools/wasnorm_wordpool_less_exclusions.txt	LTP174	ltpFR	4	5	1	COMMUNITY	356	n/a	n/a	0	n/a	n/a	n/a	n/a	n/a
980.094	n/a	REC_WORD	490047	wordpools/wasnorm_wordpool_less_exclusions.txt	LTP174	ltpFR	4	5	1	TYPIST	1532	n/a	n/a	0	n/a	n/a	n/a	n/a	n/a
982.11	n/a	REC_WORD	491055	wordpools/wasnorm_wordpool_less_exclusions.txt	LTP174	ltpFR	4	5	1	FOLDER	588	n/a	n/a	0	n/a	n/a	n/a	n/a	n/a
983.348	n/a	REC_WORD	491674	wordpools/wasnorm_wordpool_less_exclusions.txt	LTP174	ltpFR	4	5	1	OBOE	969	n/a	n/a	0	n/a	n/a	n/a	n/a	n/a
988.406	n/a	REC_WORD	494203	wordpools/wasnorm_wordpool_less_exclusions.txt	LTP174	ltpFR	4	5	1	CONDUCTOR	362	n/a	n/a	0	n/a	n/a	n/a	n/a	n/a
989.424	n/a	REC_WORD	494712	wordpools/wasnorm_wordpool_less_exclusions.txt	LTP174	ltpFR	4	5	1	HARP	689	n/a	n/a	0	n/a	n/a	n/a	n/a	n/a
992.926	n/a	REC_WORD	496463	wordpools/wasnorm_wordpool_less_exclusions.txt	LTP174	ltpFR	4	5	1	BEET	115	n/a	n/a	1	n/a	n/a	n/a	n/a	n/a
993.58	n/a	REC_WORD	496790	wordpools/wasnorm_wordpool_less_exclusions.txt	LTP174	ltpFR	4	5	n/a	TURNIP	1521	n/a	n/a	n/a	n/a	n/a	n/a	n/a	n/a
994.472	n/a	REC_WORD	497236	wordpools/wasnorm_wordpool_less_exclusions.txt	LTP174	ltpFR	4	5	1	SHRIMP	1297	n/a	n/a	1	n/a	n/a	n/a	n/a	n/a
997.586	n/a	REC_WORD	498793	wordpools/wasnorm_wordpool_less_exclusions.txt	LTP174	ltpFR	4	5	1	MICROWAVE	892	n/a	n/a	0	n/a	n/a	n/a	n/a	n/a
998.722	n/a	REC_WORD	499361	wordpools/wasnorm_wordpool_less_exclusions.txt	LTP174	ltpFR	4	5	1	SHOULDER	1294	n/a	n/a	0	n/a	n/a	n/a	n/a	n/a
999.806	n/a	REC_WORD	499903	wordpools/wasnorm_wordpool_less_exclusions.txt	LTP174	ltpFR	4	5	1	SUBURB	1399	n/a	n/a	0	n/a	n/a	n/a	n/a	n/a
1000.878	n/a	REC_WORD	500439	wordpools/wasnorm_wordpool_less_exclusions.txt	LTP174	ltpFR	4	5	1	PORCUPINE	1107	n/a	n/a	1	n/a	n/a	n/a	n/a	n/a
1002.35	n/a	REC_WORD	501175	wordpools/wasnorm_wordpool_less_exclusions.txt	LTP174	ltpFR	4	5	1	VET	1560	n/a	n/a	1	n/a	n/a	n/a	n/a	n/a
1003.352	n/a	REC_WORD	501676	wordpools/wasnorm_wordpool_less_exclusions.txt	LTP174	ltpFR	4	5	1	MAMMAL	861	n/a	n/a	1	n/a	n/a	n/a	n/a	n/a
1078.036	n/a	WORD	539018	wordpools/wasnorm_wordpool_less_exclusions.txt	LTP174	ltpFR	4	6	-1	HUT	729	n/a	n/a	-1	1.0	1.0	1	upper	Verdana.ttf
1081.946	n/a	WORD	540973	wordpools/wasnorm_wordpool_less_exclusions.txt	LTP174	ltpFR	4	6	-1	PASSAGE	1019	n/a	n/a	-1	1.0	1.0	1	upper	Verdana.ttf
1086.056	n/a	WORD	543028	wordpools/wasnorm_wordpool_less_exclusions.txt	LTP174	ltpFR	4	6	-1	CRATER	400	n/a	n/a	-1	1.0	1.0	1	upper	Verdana.ttf
1090.266	n/a	WORD	545133	wordpools/wasnorm_wordpool_less_exclusions.txt	LTP174	ltpFR	4	6	-1	PHILOSOPHER	1054	n/a	n/a	-1	1.0	1.0	1	upper	Verdana.ttf
1094.41	n/a	WORD	547205	wordpools/wasnorm_wordpool_less_exclusions.txt	LTP174	ltpFR	4	6	-1	OX	994	n/a	n/a	-1	1.0	1.0	1	upper	Verdana.ttf
1098.456	n/a	WORD	549228	wordpools/wasnorm_wordpool_less_exclusions.txt	LTP174	ltpFR	4	6	-1	MILK	895	n/a	n/a	-1	1.0	1.0	1	upper	Verdana.ttf
1102.682	n/a	WORD	551341	wordpools/wasnorm_wordpool_less_exclusions.txt	LTP174	ltpFR	4	6	-1	PUMP	1141	n/a	n/a	-1	1.0	1.0	1	upper	Verdana.ttf
1106.794	n/a	WORD	553397	wordpools/wasnorm_wordpool_less_exclusions.txt	LTP174	ltpFR	4	6	-1	JUDGE	761	n/a	n/a	-1	1.0	1.0	1	upper	Verdana.ttf
1111.02	n/a	WORD	555510	wordpools/wasnorm_wordpool_less_exclusions.txt	LTP174	ltpFR	4	6	-1	BENCH	121	n/a	n/a	-1	1.0	1.0	1	upper	Verdana.ttf
1114.964	n/a	WORD	557482	wordpools/wasnorm_wordpool_less_exclusions.txt	LTP174	ltpFR	4	6	-1	SEAT	1264	n/a	n/a	-1	1.0	1.0	1	upper	Verdana.ttf
1119.008	n/a	WORD	559504	wordpools/wasnorm_wordpool_less_exclusions.txt	LTP174	ltpFR	4	6	-1	SHACK	1273	n/a	n/a	-1	1.0	1.0	1	upper	Verdana.ttf
1123.12	n/a	WORD	561560	wordpools/wasnorm_wordpool_less_exclusions.txt	LTP174	ltpFR	4	6	-1	POND	1101	n/a	n/a	-1	1.0	1.0	1	upper	Verdana.ttf
1127.178	n/a	WORD	563589	wordpools/wasnorm_wordpool_less_exclusions.txt	LTP174	ltpFR	4	6	-1	DOORBELL	487	n/a	n/a	-1	1.0	1.0	1	upper	Verdana.ttf
1131.058	n/a	WORD	565529	wordpools/wasnorm_wordpool_less_exclusions.txt	LTP174	ltpFR	4	6	-1	ELECTRICIAN	521	n/a	n/a	-1	1.0	1.0	1	upper	Verdana.ttf
1135.034	n/a	WORD	567517	wordpools/wasnorm_wordpool_less_exclusions.txt	LTP174	ltpFR	4	6	-1	TOILET	1475	n/a	n/a	-1	1.0	1.0	1	upper	Verdana.ttf
1138.928	n/a	WORD	569464	wordpools/wasnorm_wordpool_less_exclusions.txt	LTP174	ltpFR	4	6	-1	HINGE	709	n/a	n/a	-1	1.0	1.0	1	upper	Verdana.ttf
1144.938	n/a	REC_START	572469	n/a	LTP174	ltpFR	4	6	n/a	n/a	n/a	n/a	n/a	n/a	n/a	n/a	n/a	n/a	n/a
1145.876	n/a	REC_WORD	572938	wordpools/wasnorm_wordpool_less_exclusions.txt	LTP174	ltpFR	4	6	-1	HUT	729	n/a	n/a	-1	n/a	n/a	n/a	n/a	n/a
1147.816	n/a	REC_WORD	573908	wordpools/wasnorm_wordpool_less_exclusions.txt	LTP174	ltpFR	4	6	-1	PASSAGE	1019	n/a	n/a	-1	n/a	n/a	n/a	n/a	n/a
1149.042	n/a	REC_WORD	574521	wordpools/wasnorm_wordpool_less_exclusions.txt	LTP174	ltpFR	4	6	-1	CRATER	400	n/a	n/a	-1	n/a	n/a	n/a	n/a	n/a
1150.38	n/a	REC_WORD	575190	wordpools/wasnorm_wordpool_less_exclusions.txt	LTP174	ltpFR	4	6	-1	OX	994	n/a	n/a	-1	n/a	n/a	n/a	n/a	n/a
1152.82	n/a	REC_WORD	576410	wordpools/wasnorm_wordpool_less_exclusions.txt	LTP174	ltpFR	4	6	-1	MILK	895	n/a	n/a	-1	n/a	n/a	n/a	n/a	n/a
1154.266	n/a	REC_WORD	577133	wordpools/wasnorm_wordpool_less_exclusions.txt	LTP174	ltpFR	4	6	-1	PUMP	1141	n/a	n/a	-1	n/a	n/a	n/a	n/a	n/a
1159.718	n/a	REC_WORD	579859	wordpools/wasnorm_wordpool_less_exclusions.txt	LTP174	ltpFR	4	6	-1	POND	1101	n/a	n/a	-1	n/a	n/a	n/a	n/a	n/a
1160.462	n/a	REC_WORD	580231	wordpools/wasnorm_wordpool_less_exclusions.txt	LTP174	ltpFR	4	6	-1	ELECTRICIAN	521	n/a	n/a	-1	n/a	n/a	n/a	n/a	n/a
1161.64	n/a	REC_WORD	580820	wordpools/wasnorm_wordpool_less_exclusions.txt	LTP174	ltpFR	4	6	-1	TOILET	1475	n/a	n/a	-1	n/a	n/a	n/a	n/a	n/a
1162.432	n/a	REC_WORD	581216	wordpools/wasnorm_wordpool_less_exclusions.txt	LTP174	ltpFR	4	6	-1	HINGE	709	n/a	n/a	-1	n/a	n/a	n/a	n/a	n/a
1164.208	n/a	REC_WORD	582104	wordpools/wasnorm_wordpool_less_exclusions.txt	LTP174	ltpFR	4	6	-1	BENCH	121	n/a	n/a	-1	n/a	n/a	n/a	n/a	n/a
1165.046	n/a	REC_WORD	582523	wordpools/wasnorm_wordpool_less_exclusions.txt	LTP174	ltpFR	4	6	-1	SEAT	1264	n/a	n/a	-1	n/a	n/a	n/a	n/a	n/a
1165.994	n/a	REC_WORD	582997	wordpools/wasnorm_wordpool_less_exclusions.txt	LTP174	ltpFR	4	6	-1	DOORBELL	487	n/a	n/a	-1	n/a	n/a	n/a	n/a	n/a
1166.994	n/a	REC_WORD_VV	583497	wordpools/wasnorm_wordpool_less_exclusions.txt	LTP174	ltpFR	4	6	n/a	<>	-1	n/a	n/a	n/a	n/a	n/a	n/a	n/a	n/a
1168.574	n/a	REC_WORD	584287	wordpools/wasnorm_wordpool_less_exclusions.txt	LTP174	ltpFR	4	6	-1	PHILOSOPHER	1054	n/a	n/a	-1	n/a	n/a	n/a	n/a	n/a
1169.574	n/a	REC_WORD_VV	584787	wordpools/wasnorm_wordpool_less_exclusions.txt	LTP174	ltpFR	4	6	n/a	<>	-1	n/a	n/a	n/a	n/a	n/a	n/a	n/a	n/a
1247.8	n/a	WORD	623900	wordpools/wasnorm_wordpool_less_exclusions.txt	LTP174	ltpFR	4	7	0	CLAM	315	n/a	n/a	0	0.57763671875	0.412841796875	1	upper	amplitud.ttf
1251.778	n/a	WORD	625889	wordpools/wasnorm_wordpool_less_exclusions.txt	LTP174	ltpFR	4	7	0	SEAFOOD	1260	n/a	n/a	0	0.57763671875	0.412841796875	1	upper	amplitud.ttf
1255.74	n/a	WORD	627870	wordpools/wasnorm_wordpool_less_exclusions.txt	LTP174	ltpFR	4	7	0	PARCEL	1012	n/a	n/a	0	0.57763671875	0.412841796875	1	upper	amplitud.ttf
1259.6	n/a	WORD	629800	wordpools/wasnorm_wordpool_less_exclusions.txt	LTP174	ltpFR	4	7	0	WAREHOUSE	1588	n/a	n/a	1	0.57763671875	0.412841796875	1	upper	amplitud.ttf
1263.628	n/a	WORD	631814	wordpools/wasnorm_wordpool_less_exclusions.txt	LTP174	ltpFR	4	7	0	RAM	1165	n/a	n/a	1	0.57763671875	0.412841796875	1	upper	amplitud.ttf
1267.606	n/a	WORD	633803	wordpools/wasnorm_wordpool_less_exclusions.txt	LTP174	ltpFR	4	7	0	JOURNAL	760	n/a	n/a	0	0.57763671875	0.412841796875	1	upper	amplitud.ttf
1271.766	n/a	WORD	635883	wordpools/wasnorm_wordpool_less_exclusions.txt	LTP174	ltpFR	4	7	0	STREET	1393	n/a	n/a	0	0.57763671875	0.412841796875	1	upper	amplitud.ttf
1275.66	n/a	WORD	637830	wordpools/wasnorm_wordpool_less_exclusions.txt	LTP174	ltpFR	4	7	0	PADDLE	1000	n/a	n/a	1	0.57763671875	0.412841796875	1	upper	amplitud.ttf
1279.804	n/a	WORD	639902	wordpools/wasnorm_wordpool_less_exclusions.txt	LTP174	ltpFR	4	7	0	LIST	830	n/a	n/a	0	0.57763671875	0.412841796875	1	upper	amplitud.ttf
1283.832	n/a	WORD	641916	wordpools/wasnorm_wordpool_less_exclusions.txt	LTP174	ltpFR	4	7	0	STADIUM	1364	n/a	n/a	1	0.57763671875	0.412841796875	1	upper	amplitud.ttf
1287.776	n/a	WORD	643888	wordpools/wasnorm_wordpool_less_exclusions.txt	LTP174	ltpFR	4	7	0	CHAMPAGNE	278	n/a	n/a	1	0.57763671875	0.412841796875	1	upper	amplitud.ttf
1291.752	n/a	WORD	645876	wordpools/wasnorm_wordpool_less_exclusions.txt	LTP174	ltpFR	4	7	0	VESSEL	1558	n/a	n/a	0	0.57763671875	0.412841796875	1	upper	amplitud.ttf
1295.88	n/a	WORD	647940	wordpools/wasnorm_wordpool_less_exclusions.txt	LTP174	ltpFR	4	7	0	HEATER	698	n/a	n/a	1	0.57763671875	0.412841796875	1	upper	amplitud.ttf
1299.94	n/a	WORD	649970	wordpools/wasnorm_wordpool_less_exclusions.txt	LTP174	ltpFR	4	7	0	STOVE	1388	n/a	n/a	1	0.57763671875	0.412841796875	1	upper	amplitud.ttf
1303.902	n/a	WORD	651951	wordpools/wasnorm_wordpool_less_exclusions.txt	LTP174	ltpFR	4	7	0	GIFT	635	n/a	n/a	0	0.57763671875	0.412841796875	1	upper	amplitud.ttf
1307.862	n/a	WORD	653931	wordpools/wasnorm_wordpool_less_exclusions.txt	LTP174	ltpFR	4	7	0	SERPENT	1270	n/a	n/a	0	0.57763671875	0.412841796875	1	upper	amplitud.ttf
1313.936	n/a	REC_START	656968	n/a	LTP174	ltpFR	4	7	n/a	n/a	n/a	n/a	n/a	n/a	n/a	n/a	n/a	n/a	n/a
1315.412	n/a	REC_WORD	657706	wordpools/wasnorm_wordpool_less_exclusions.txt	LTP174	ltpFR	4	7	0	CLAM	315	n/a	n/a	0	n/a	n/a	n/a	n/a	n/a
1316.32	n/a	REC_WORD	658160	wordpools/wasnorm_wordpool_less_exclusions.txt	LTP174	ltpFR	4	7	0	SEAFOOD	1260	n/a	n/a	0	n/a	n/a	n/a	n/a	n/a
1317.862	n/a	REC_WORD	658931	wordpools/wasnorm_wordpool_less_exclusions.txt	LTP174	ltpFR	4	7	0	PARCEL	1012	n/a	n/a	0	n/a	n/a	n/a	n/a	n/a
1318.944	n/a	REC_WORD	659472	wordpools/wasnorm_wordpool_less_exclusions.txt	LTP174	ltpFR	4	7	0	WAREHOUSE	1588	n/a	n/a	1	n/a	n/a	n/a	n/a	n/a
1320.546	n/a	REC_WORD	660273	wordpools/wasnorm_wordpool_less_exclusions.txt	LTP174	ltpFR	4	7	0	RAM	1165	n/a	n/a	1	n/a	n/a	n/a	n/a	n/a
1323.04	n/a	REC_WORD	661520	wordpools/wasnorm_wordpool_less_exclusions.txt	LTP174	ltpFR	4	7	0	JOURNAL	760	n/a	n/a	0	n/a	n/a	n/a	n/a	n/a
1324.162	n/a	REC_WORD	662081	wordpools/wasnorm_wordpool_less_exclusions.txt	LTP174	ltpFR	4	7	0	STREET	1393	n/a	n/a	0	n/a	n/a	n/a	n/a	n/a
1326.408	n/a	REC_WORD	663204	wordpools/wasnorm_wordpool_less_exclusions.txt	LTP174	ltpFR	4	7	0	PADDLE	1000	n/a	n/a	1	n/a	n/a	n/a	n/a	n/a
1327.496	n/a	REC_WORD	663748	wordpools/wasnorm_wordpool_less_exclusions.txt	LTP174	ltpFR	4	7	0	LIST	830	n/a	n/a	0	n/a	n/a	n/a	n/a	n/a
1329.876	n/a	REC_WORD	664938	wordpools/wasnorm_wordpool_less_exclusions.txt	LTP174	ltpFR	4	7	0	STADIUM	1364	n/a	n/a	1	n/a	n/a	n/a	n/a	n/a
1330.876	n/a	REC_WORD_VV	665438	wordpools/wasnorm_wordpool_less_exclusions.txt	LTP174	ltpFR	4	7	n/a	<>	-1	n/a	n/a	n/a	n/a	n/a	n/a	n/a	n/a
1333.862	n/a	REC_WORD	666931	wordpools/wasnorm_wordpool_less_exclusions.txt	LTP174	ltpFR	4	7	0	VESSEL	1558	n/a	n/a	0	n/a	n/a	n/a	n/a	n/a
1336.346	n/a	REC_WORD	668173	wordpools/wasnorm_wordpool_less_exclusions.txt	LTP174	ltpFR	4	7	0	HEATER	698	n/a	n/a	1	n/a	n/a	n/a	n/a	n/a
1337.832	n/a	REC_WORD	668916	wordpools/wasnorm_wordpool_less_exclusions.txt	LTP174	ltpFR	4	7	0	STOVE	1388	n/a	n/a	1	n/a	n/a	n/a	n/a	n/a
1338.926	n/a	REC_WORD	669463	wordpools/wasnorm_wordpool_less_exclusions.txt	LTP174	ltpFR	4	7	0	CHAMPAGNE	278	n/a	n/a	1	n/a	n/a	n/a	n/a	n/a
1342.128	n/a	REC_WORD	671064	wordpools/wasnorm_wordpool_less_exclusions.txt	LTP174	ltpFR	4	7	0	GIFT	635	n/a	n/a	0	n/a	n/a	n/a	n/a	n/a
1343.44	n/a	REC_WORD	671720	wordpools/wasnorm_wordpool_less_exclusions.txt	LTP174	ltpFR	4	7	0	SERPENT	1270	n/a	n/a	0	n/a	n/a	n/a	n/a	n/a
1392.02	n/a	WORD	696010	wordpools/wasnorm_wordpool_less_exclusions.txt	LTP174	ltpFR	4	8	0	SISTER	1312	n/a	n/a	1	0.57763671875	0.412841796875	1	upper	amplitud.ttf
1396.148	n/a	WORD	698074	wordpools/wasnorm_wordpool_less_exclusions.txt	LTP174	ltpFR	4	8	0	BROTHER	179	n/a	n/a	1	0.57763671875	0.412841796875	1	upper	amplitud.ttf
1400.19	n/a	WORD	700095	wordpools/wasnorm_wordpool_less_exclusions.txt	LTP174	ltpFR	4	8	0	CINNAMON	310	n/a	n/a	1	0.57763671875	0.412841796875	1	upper	amplitud.ttf
1404.404	n/a	WORD	702202	wordpools/wasnorm_wordpool_less_exclusions.txt	LTP174	ltpFR	4	8	0	REFEREE	1178	n/a	n/a	1	0.57763671875	0.412841796875	1	upper	amplitud.ttf
1408.314	n/a	WORD	704157	wordpools/wasnorm_wordpool_less_exclusions.txt	LTP174	ltpFR	4	8	0	GLUE	643	n/a	n/a	0	0.57763671875	0.412841796875	1	upper	amplitud.ttf
1412.342	n/a	WORD	706171	wordpools/wasnorm_wordpool_less_exclusions.txt	LTP174	ltpFR	4	8	0	COOLER	375	n/a	n/a	1	0.57763671875	0.412841796875	1	upper	amplitud.ttf
1416.502	n/a	WORD	708251	wordpools/wasnorm_wordpool_less_exclusions.txt	LTP174	ltpFR	4	8	0	OATS	968	n/a	n/a	0	0.57763671875	0.412841796875	1	upper	amplitud.ttf
1420.662	n/a	WORD	710331	wordpools/wasnorm_wordpool_less_exclusions.txt	LTP174	ltpFR	4	8	0	BRAN	167	n/a	n/a	0	0.57763671875	0.412841796875	1	upper	amplitud.ttf
1424.49	n/a	WORD	712245	wordpools/wasnorm_wordpool_less_exclusions.txt	LTP174	ltpFR	4	8	0	CLERK	321	n/a	n/a	1	0.57763671875	0.412841796875	1	upper	amplitud.ttf
1428.55	n/a	WORD	714275	wordpools/wasnorm_wordpool_less_exclusions.txt	LTP174	ltpFR	4	8	0	CART	250	n/a	n/a	1	0.57763671875	0.412841796875	1	upper	amplitud.ttf
1432.66	n/a	WORD	716330	wordpools/wasnorm_wordpool_less_exclusions.txt	LTP174	ltpFR	4	8	0	CONTRACTOR	369	n/a	n/a	1	0.57763671875	0.412841796875	1	upper	amplitud.ttf
1436.872	n/a	WORD	718436	wordpools/wasnorm_wordpool_less_exclusions.txt	LTP174	ltpFR	4	8	0	DRINK	498	n/a	n/a	0	0.57763671875	0.412841796875	1	upper	amplitud.ttf
1440.948	n/a	WORD	720474	wordpools/wasnorm_wordpool_less_exclusions.txt	LTP174	ltpFR	4	8	0	CRACKER	398	n/a	n/a	0	0.57763671875	0.412841796875	1	upper	amplitud.ttf
1445.142	n/a	WORD	722571	wordpools/wasnorm_wordpool_less_exclusions.txt	LTP174	ltpFR	4	8	0	SUGAR	1401	n/a	n/a	0	0.57763671875	0.412841796875	1	upper	amplitud.ttf
1449.32	n/a	WORD	724660	wordpools/wasnorm_wordpool_less_exclusions.txt	LTP174	ltpFR	4	8	0	WORKER	1621	n/a	n/a	1	0.57763671875	0.412841796875	1	upper	amplitud.ttf
1453.43	n/a	WORD	726715	wordpools/wasnorm_wordpool_less_exclusions.txt	LTP174	ltpFR	4	8	0	WATER	1594	n/a	n/a	0	0.57763671875	0.412841796875	1	upper	amplitud.ttf
1459.422	n/a	REC_START	729711	n/a	LTP174	ltpFR	4	8	n/a	n/a	n/a	n/a	n/a	n/a	n/a	n/a	n/a	n/a	n/a
1460.468	n/a	REC_WORD	730234	wordpools/wasnorm_wordpool_less_exclusions.txt	LTP174	ltpFR	4	8	0	SISTER	1312	n/a	n/a	1	n/a	n/a	n/a	n/a	n/a
1461.746	n/a	REC_WORD	730873	wordpools/wasnorm_wordpool_less_exclusions.txt	LTP174	ltpFR	4	8	0	BROTHER	179	n/a	n/a	1	n/a	n/a	n/a	n/a	n/a
1462.618	n/a	REC_WORD	731309	wordpools/wasnorm_wordpool_less_exclusions.txt	LTP174	ltpFR	4	8	0	CINNAMON	310	n/a	n/a	1	n/a	n/a	n/a	n/a	n/a
1464.156	n/a	REC_WORD	732078	wordpools/wasnorm_wordpool_less_exclusions.txt	LTP174	ltpFR	4	8	0	GLUE	643	n/a	n/a	0	n/a	n/a	n/a	n/a	n/a
1468.68	n/a	REC_WORD	734340	wordpools/wasnorm_wordpool_less_exclusions.txt	LTP174	ltpFR	4	8	0	COOLER	375	n/a	n/a	1	n/a	n/a	n/a	n/a	n/a
1470.846	n/a	REC_WORD	735423	wordpools/wasnorm_wordpool_less_exclusions.txt	LTP174	ltpFR	4	8	0	OATS	968	n/a	n/a	0	n/a	n/a	n/a	n/a	n/a
1471.768	n/a	REC_WORD	735884	wordpools/wasnorm_wordpool_less_exclusions.txt	LTP174	ltpFR	4	8	0	BRAN	167	n/a	n/a	0	n/a	n/a	n/a	n/a	n/a
1476.118	n/a	REC_WORD	738059	wordpools/wasnorm_wordpool_less_exclusions.txt	LTP174	ltpFR	4	8	0	CLERK	321	n/a	n/a	1	n/a	n/a	n/a	n/a	n/a
1479.472	n/a	REC_WORD	739736	wordpools/wasnorm_wordpool_less_exclusions.txt	LTP174	ltpFR	4	8	0	CART	250	n/a	n/a	1	n/a	n/a	n/a	n/a	n/a
1486.546	n/a	REC_WORD	743273	wordpools/wasnorm_wordpool_less_exclusions.txt	LTP174	ltpFR	4	8	0	CONTRACTOR	369	n/a	n/a	1	n/a	n/a	n/a	n/a	n/a
1487.546	n/a	REC_WORD_VV	743773	wordpools/wasnorm_wordpool_less_exclusions.txt	LTP174	ltpFR	4	8	n/a	<>	-1	n/a	n/a	n/a	n/a	n/a	n/a	n/a	n/a
1490.552	n/a	REC_WORD	745276	wordpools/wasnorm_wordpool_less_exclusions.txt	LTP174	ltpFR	4	8	0	DRINK	498	n/a	n/a	0	n/a	n/a	n/a	n/a	n/a
1492.812	n/a	REC_WORD	746406	wordpools/wasnorm_wordpool_less_exclusions.txt	LTP174	ltpFR	4	8	0	CRACKER	398	n/a	n/a	0	n/a	n/a	n/a	n/a	n/a
1494.562	n/a	REC_WORD	747281	wordpools/wasnorm_wordpool_less_exclusions.txt	LTP174	ltpFR	4	8	0	WORKER	1621	n/a	n/a	1	n/a	n/a	n/a	n/a	n/a
1495.714	n/a	REC_WORD	747857	wordpools/wasnorm_wordpool_less_exclusions.txt	LTP174	ltpFR	4	8	0	WATER	1594	n/a	n/a	0	n/a	n/a	n/a	n/a	n/a
1521.984	n/a	REC_WORD	760992	wordpools/wasnorm_wordpool_less_exclusions.txt	LTP174	ltpFR	4	8	0	GLUE	643	n/a	n/a	0	n/a	n/a	n/a	n/a	n/a
1569.224	n/a	WORD	784612	wordpools/wasnorm_wordpool_less_exclusions.txt	LTP174	ltpFR	4	9	-1	ORANGE	980	n/a	n/a	-1	1.0	1.0	1	upper	Verdana.ttf
1573.12	n/a	WORD	786560	wordpools/wasnorm_wordpool_less_exclusions.txt	LTP174	ltpFR	4	9	-1	APPLE	33	n/a	n/a	-1	1.0	1.0	1	upper	Verdana.ttf
1577.048	n/a	WORD	788524	wordpools/wasnorm_wordpool_less_exclusions.txt	LTP174	ltpFR	4	9	-1	SCENERY	1247	n/a	n/a	-1	1.0	1.0	1	upper	Verdana.ttf
1580.974	n/a	WORD	790487	wordpools/wasnorm_wordpool_less_exclusions.txt	LTP174	ltpFR	4	9	-1	RAKE	1164	n/a	n/a	-1	1.0	1.0	1	upper	Verdana.ttf
1584.868	n/a	WORD	792434	wordpools/wasnorm_wordpool_less_exclusions.txt	LTP174	ltpFR	4	9	-1	SAW	1239	n/a	n/a	-1	1.0	1.0	1	upper	Verdana.ttf
1588.714	n/a	WORD	794357	wordpools/wasnorm_wordpool_less_exclusions.txt	LTP174	ltpFR	4	9	-1	RUM	1217	n/a	n/a	-1	1.0	1.0	1	upper	Verdana.ttf
1592.906	n/a	WORD	796453	wordpools/wasnorm_wordpool_less_exclusions.txt	LTP174	ltpFR	4	9	-1	BARN	89	n/a	n/a	-1	1.0	1.0	1	upper	Verdana.ttf
1597.118	n/a	WORD	798559	wordpools/wasnorm_wordpool_less_exclusions.txt	LTP174	ltpFR	4	9	-1	CLIFF	322	n/a	n/a	-1	1.0	1.0	1	upper	Verdana.ttf
1600.944	n/a	WORD	800472	wordpools/wasnorm_wordpool_less_exclusions.txt	LTP174	ltpFR	4	9	-1	LEOPARD	812	n/a	n/a	-1	1.0	1.0	1	upper	Verdana.ttf
1605.038	n/a	WORD	802519	wordpools/wasnorm_wordpool_less_exclusions.txt	LTP174	ltpFR	4	9	-1	STOCKING	1383	n/a	n/a	-1	1.0	1.0	1	upper	Verdana.ttf
1609.15	n/a	WORD	804575	wordpools/wasnorm_wordpool_less_exclusions.txt	LTP174	ltpFR	4	9	-1	BUGLE	189	n/a	n/a	-1	1.0	1.0	1	upper	Verdana.ttf
1613.326	n/a	WORD	806663	wordpools/wasnorm_wordpool_less_exclusions.txt	LTP174	ltpFR	4	9	-1	BEER	114	n/a	n/a	-1	1.0	1.0	1	upper	Verdana.ttf
1617.436	n/a	WORD	808718	wordpools/wasnorm_wordpool_less_exclusions.txt	LTP174	ltpFR	4	9	-1	WIRE	1616	n/a	n/a	-1	1.0	1.0	1	upper	Verdana.ttf
1621.548	n/a	WORD	810774	wordpools/wasnorm_wordpool_less_exclusions.txt	LTP174	ltpFR	4	9	-1	RESTAURANT	1187	n/a	n/a	-1	1.0	1.0	1	upper	Verdana.ttf
1625.558	n/a	WORD	812779	wordpools/wasnorm_wordpool_less_exclusions.txt	LTP174	ltpFR	4	9	-1	KITCHEN	778	n/a	n/a	-1	1.0	1.0	1	upper	Verdana.ttf
1629.77	n/a	WORD	814885	wordpools/wasnorm_wordpool_less_exclusions.txt	LTP174	ltpFR	4	9	-1	LION	827	n/a	n/a	-1	1.0	1.0	1	upper	Verdana.ttf
1635.91	n/a	REC_START	817955	n/a	LTP174	ltpFR	4	9	n/a	n/a	n/a	n/a	n/a	n/a	n/a	n/a	n/a	n/a	n/a
1637.002	n/a	REC_WORD	818501	wordpools/wasnorm_wordpool_less_exclusions.txt	LTP174	ltpFR	4	9	-1	APPLE	33	n/a	n/a	-1	n/a	n/a	n/a	n/a	n/a
1638.07	n/a	REC_WORD	819035	wordpools/wasnorm_wordpool_less_exclusions.txt	LTP174	ltpFR	4	9	-1	ORANGE	980	n/a	n/a	-1	n/a	n/a	n/a	n/a	n/a
1638.914	n/a	REC_WORD	819457	wordpools/wasnorm_wordpool_less_exclusions.txt	LTP174	ltpFR	4	9	-1	SCENERY	1247	n/a	n/a	-1	n/a	n/a	n/a	n/a	n/a
1640.12	n/a	REC_WORD	820060	wordpools/wasnorm_wordpool_less_exclusions.txt	LTP174	ltpFR	4	9	-1	RAKE	1164	n/a	n/a	-1	n/a	n/a	n/a	n/a	n/a
1640.938	n/a	REC_WORD	820469	wordpools/wasnorm_wordpool_less_exclusions.txt	LTP174	ltpFR	4	9	-1	SAW	1239	n/a	n/a	-1	n/a	n/a	n/a	n/a	n/a
1642.43	n/a	REC_WORD	821215	wordpools/wasnorm_wordpool_less_exclusions.txt	LTP174	ltpFR	4	9	-1	RUM	1217	n/a	n/a	-1	n/a	n/a	n/a	n/a	n/a
1643.762	n/a	REC_WORD	821881	wordpools/wasnorm_wordpool_less_exclusions.txt	LTP174	ltpFR	4	9	-1	BARN	89	n/a	n/a	-1	n/a	n/a	n/a	n/a	n/a
1644.716	n/a	REC_WORD	822358	wordpools/wasnorm_wordpool_less_exclusions.txt	LTP174	ltpFR	4	9	-1	CLIFF	322	n/a	n/a	-1	n/a	n/a	n/a	n/a	n/a
1645.962	n/a	REC_WORD	822981	wordpools/wasnorm_wordpool_less_exclusions.txt	LTP174	ltpFR	4	9	-1	LEOPARD	812	n/a	n/a	-1	n/a	n/a	n/a	n/a	n/a
1647.728	n/a	REC_WORD	823864	wordpools/wasnorm_wordpool_less_exclusions.txt	LTP174	ltpFR	4	9	-1	BUGLE	189	n/a	n/a	-1	n/a	n/a	n/a	n/a	n/a
1648.92	n/a	REC_WORD	824460	wordpools/wasnorm_wordpool_less_exclusions.txt	LTP174	ltpFR	4	9	-1	BEER	114	n/a	n/a	-1	n/a	n/a	n/a	n/a	n/a
1649.924	n/a	REC_WORD	824962	wordpools/wasnorm_wordpool_less_exclusions.txt	LTP174	ltpFR	4	9	-1	WIRE	1616	n/a	n/a	-1	n/a	n/a	n/a	n/a	n/a
1651.306	n/a	REC_WORD	825653	wordpools/wasnorm_wordpool_less_exclusions.txt	LTP174	ltpFR	4	9	-1	RESTAURANT	1187	n/a	n/a	-1	n/a	n/a	n/a	n/a	n/a
1652.352	n/a	REC_WORD	826176	wordpools/wasnorm_wordpool_less_exclusions.txt	LTP174	ltpFR	4	9	-1	KITCHEN	778	n/a	n/a	-1	n/a	n/a	n/a	n/a	n/a
1685.902	n/a	REC_WORD	842951	wordpools/wasnorm_wordpool_less_exclusions.txt	LTP174	ltpFR	4	9	-1	LION	827	n/a	n/a	-1	n/a	n/a	n/a	n/a	n/a
1746.512	n/a	WORD	873256	wordpools/wasnorm_wordpool_less_exclusions.txt	LTP174	ltpFR	4	10	1	ANT	25	n/a	n/a	1	0.422607421875	0.5869140625	0	lower	zerothre.ttf
1750.624	n/a	WORD	875312	wordpools/wasnorm_wordpool_less_exclusions.txt	LTP174	ltpFR	4	10	1	WASP	1593	n/a	n/a	1	0.422607421875	0.5869140625	0	lower	zerothre.ttf
1754.484	n/a	WORD	877242	wordpools/wasnorm_wordpool_less_exclusions.txt	LTP174	ltpFR	4	10	0	KNOT	788	n/a	n/a	0	0.57763671875	0.412841796875	1	upper	amplitud.ttf
1758.594	n/a	WORD	879297	wordpools/wasnorm_wordpool_less_exclusions.txt	LTP174	ltpFR	4	10	0	COMET	353	n/a	n/a	0	0.57763671875	0.412841796875	1	upper	amplitud.ttf
1762.706	n/a	WORD	881353	wordpools/wasnorm_wordpool_less_exclusions.txt	LTP174	ltpFR	4	10	0	TUNA	1518	n/a	n/a	0	0.57763671875	0.412841796875	1	upper	amplitud.ttf
1766.816	n/a	WORD	883408	wordpools/wasnorm_wordpool_less_exclusions.txt	LTP174	ltpFR	4	10	0	PATIO	1025	n/a	n/a	1	0.57763671875	0.412841796875	1	upper	amplitud.ttf
1770.726	n/a	WORD	885363	wordpools/wasnorm_wordpool_less_exclusions.txt	LTP174	ltpFR	4	10	1	BRICK	172	n/a	n/a	0	0.422607421875	0.5869140625	0	lower	zerothre.ttf
1774.62	n/a	WORD	887310	wordpools/wasnorm_wordpool_less_exclusions.txt	LTP174	ltpFR	4	10	1	METEOR	889	n/a	n/a	0	0.422607421875	0.5869140625	0	lower	zerothre.ttf
1778.832	n/a	WORD	889416	wordpools/wasnorm_wordpool_less_exclusions.txt	LTP174	ltpFR	4	10	1	SKIRT	1319	n/a	n/a	0	0.422607421875	0.5869140625	0	lower	zerothre.ttf
1782.81	n/a	WORD	891405	wordpools/wasnorm_wordpool_less_exclusions.txt	LTP174	ltpFR	4	10	1	PRINCE	1124	n/a	n/a	0	0.422607421875	0.5869140625	0	lower	zerothre.ttf
1786.986	n/a	WORD	893493	wordpools/wasnorm_wordpool_less_exclusions.txt	LTP174	ltpFR	4	10	0	LOCK	838	n/a	n/a	0	0.57763671875	0.412841796875	1	upper	amplitud.ttf
1791.08	n/a	WORD	895540	wordpools/wasnorm_wordpool_less_exclusions.txt	LTP174	ltpFR	4	10	0	FOUNTAIN	597	n/a	n/a	1	0.57763671875	0.412841796875	1	upper	amplitud.ttf
1794.974	n/a	WORD	897487	wordpools/wasnorm_wordpool_less_exclusions.txt	LTP174	ltpFR	4	10	0	OCTOPUS	971	n/a	n/a	1	0.57763671875	0.412841796875	1	upper	amplitud.ttf
1798.952	n/a	WORD	899476	wordpools/wasnorm_wordpool_less_exclusions.txt	LTP174	ltpFR	4	10	0	PORT	1110	n/a	n/a	0	0.57763671875	0.412841796875	1	upper	amplitud.ttf
1803.162	n/a	WORD	901581	wordpools/wasnorm_wordpool_less_exclusions.txt	LTP174	ltpFR	4	10	1	DOCK	477	n/a	n/a	2	0.422607421875	0.5869140625	0	lower	zerothre.ttf
1805.376	n/a	KEY_MSG	902688	n/a	LTP174	ltpFR	4	10	n/a	n/a	n/a	n/a	n/a	n/a	n/a	n/a	n/a	n/a	n/a
1807.956	n/a	WORD	903978	wordpools/wasnorm_wordpool_less_exclusions.txt	LTP174	ltpFR	4	10	1	LACE	792	n/a	n/a	0	0.422607421875	0.5869140625	0	lower	zerothre.ttf
1813.648	n/a	REC_START	906824	n/a	LTP174	ltpFR	4	10	n/a	n/a	n/a	n/a	n/a	n/a	n/a	n/a	n/a	n/a	n/a
1817.01	n/a	REC_WORD	908505	wordpools/wasnorm_wordpool_less_exclusions.txt	LTP174	ltpFR	4	10	1	ANT	25	n/a	n/a	1	n/a	n/a	n/a	n/a	n/a
1817.802	n/a	REC_WORD	908901	wordpools/wasnorm_wordpool_less_exclusions.txt	LTP174	ltpFR	4	10	1	WASP	1593	n/a	n/a	1	n/a	n/a	n/a	n/a	n/a
1818.77	n/a	REC_WORD	909385	wordpools/wasnorm_wordpool_less_exclusions.txt	LTP174	ltpFR	4	10	0	KNOT	788	n/a	n/a	0	n/a	n/a	n/a	n/a	n/a
1819.764	n/a	REC_WORD	909882	wordpools/wasnorm_wordpool_less_exclusions.txt	LTP174	ltpFR	4	10	0	COMET	353	n/a	n/a	0	n/a	n/a	n/a	n/a	n/a
1821.864	n/a	REC_WORD	910932	wordpools/wasnorm_wordpool_less_exclusions.txt	LTP174	ltpFR	4	10	0	TUNA	1518	n/a	n/a	0	n/a	n/a	n/a	n/a	n/a
1824.842	n/a	REC_WORD	912421	wordpools/wasnorm_wordpool_less_exclusions.txt	LTP174	ltpFR	4	10	0	PATIO	1025	n/a	n/a	1	n/a	n/a	n/a	n/a	n/a
1825.904	n/a	REC_WORD	912952	wordpools/wasnorm_wordpool_less_exclusions.txt	LTP174	ltpFR	4	10	1	BRICK	172	n/a	n/a	0	n/a	n/a	n/a	n/a	n/a
1826.772	n/a	REC_WORD	913386	wordpools/wasnorm_wordpool_less_exclusions.txt	LTP174	ltpFR	4	10	1	METEOR	889	n/a	n/a	0	n/a	n/a	n/a	n/a	n/a
1829.342	n/a	REC_WORD	914671	wordpools/wasnorm_wordpool_less_exclusions.txt	LTP174	ltpFR	4	10	0	LOCK	838	n/a	n/a	0	n/a	n/a	n/a	n/a	n/a
1830.248	n/a	REC_WORD	915124	wordpools/wasnorm_wordpool_less_exclusions.txt	LTP174	ltpFR	4	10	1	SKIRT	1319	n/a	n/a	0	n/a	n/a	n/a	n/a	n/a
1831.696	n/a	REC_WORD	915848	wordpools/wasnorm_wordpool_less_exclusions.txt	LTP174	ltpFR	4	10	1	PRINCE	1124	n/a	n/a	0	n/a	n/a	n/a	n/a	n/a
1834.2	n/a	REC_WORD	917100	wordpools/wasnorm_wordpool_less_exclusions.txt	LTP174	ltpFR	4	10	0	FOUNTAIN	597	n/a	n/a	1	n/a	n/a	n/a	n/a	n/a
1835.258	n/a	REC_WORD	917629	wordpools/wasnorm_wordpool_less_exclusions.txt	LTP174	ltpFR	4	10	0	OCTOPUS	971	n/a	n/a	1	n/a	n/a	n/a	n/a	n/a
1836.258	n/a	REC_WORD_VV	918129	wordpools/wasnorm_wordpool_less_exclusions.txt	LTP174	ltpFR	4	10	n/a	<>	-1	n/a	n/a	n/a	n/a	n/a	n/a	n/a	n/a
1839.214	n/a	REC_WORD	919607	wordpools/wasnorm_wordpool_less_exclusions.txt	LTP174	ltpFR	4	10	0	PORT	1110	n/a	n/a	0	n/a	n/a	n/a	n/a	n/a
1840.266	n/a	REC_WORD	920133	wordpools/wasnorm_wordpool_less_exclusions.txt	LTP174	ltpFR	4	10	1	DOCK	477	n/a	n/a	2	n/a	n/a	n/a	n/a	n/a
1892.348	n/a	WORD	946174	wordpools/wasnorm_wordpool_less_exclusions.txt	LTP174	ltpFR	4	11	0	CONTAINER	366	n/a	n/a	0	0.57763671875	0.412841796875	1	upper	amplitud.ttf
1896.458	n/a	WORD	948229	wordpools/wasnorm_wordpool_less_exclusions.txt	LTP174	ltpFR	4	11	0	KETTLE	772	n/a	n/a	1	0.57763671875	0.412841796875	1	upper	amplitud.ttf
1900.668	n/a	WORD	950334	wordpools/wasnorm_wordpool_less_exclusions.txt	LTP174	ltpFR	4	11	0	FARM	552	n/a	n/a	1	0.57763671875	0.412841796875	1	upper	amplitud.ttf
1904.596	n/a	WORD	952298	wordpools/wasnorm_wordpool_less_exclusions.txt	LTP174	ltpFR	4	11	0	RECEIPT	1173	n/a	n/a	0	0.57763671875	0.412841796875	1	upper	amplitud.ttf
1908.506	n/a	WORD	954253	wordpools/wasnorm_wordpool_less_exclusions.txt	LTP174	ltpFR	4	11	0	FEATHER	557	n/a	n/a	1	0.57763671875	0.412841796875	1	upper	amplitud.ttf
1912.334	n/a	WORD	956167	wordpools/wasnorm_wordpool_less_exclusions.txt	LTP174	ltpFR	4	11	0	GREASE	660	n/a	n/a	1	0.57763671875	0.412841796875	1	upper	amplitud.ttf
1916.312	n/a	WORD	958156	wordpools/wasnorm_wordpool_less_exclusions.txt	LTP174	ltpFR	4	11	0	CHECK	284	n/a	n/a	0	0.57763671875	0.412841796875	1	upper	amplitud.ttf
1920.356	n/a	WORD	960178	wordpools/wasnorm_wordpool_less_exclusions.txt	LTP174	ltpFR	4	11	0	HARE	688	n/a	n/a	1	0.57763671875	0.412841796875	1	upper	amplitud.ttf
1924.35	n/a	WORD	962175	wordpools/wasnorm_wordpool_less_exclusions.txt	LTP174	ltpFR	4	11	0	ARM	38	n/a	n/a	0	0.57763671875	0.412841796875	1	upper	amplitud.ttf
1928.494	n/a	WORD	964247	wordpools/wasnorm_wordpool_less_exclusions.txt	LTP174	ltpFR	4	11	0	SHOELACE	1289	n/a	n/a	0	0.57763671875	0.412841796875	1	upper	amplitud.ttf
1932.338	n/a	WORD	966169	wordpools/wasnorm_wordpool_less_exclusions.txt	LTP174	ltpFR	4	11	0	FOOT	590	n/a	n/a	0	0.57763671875	0.412841796875	1	upper	amplitud.ttf
1936.516	n/a	WORD	968258	wordpools/wasnorm_wordpool_less_exclusions.txt	LTP174	ltpFR	4	11	0	VAN	1548	n/a	n/a	1	0.57763671875	0.412841796875	1	upper	amplitud.ttf
1940.426	n/a	WORD	970213	wordpools/wasnorm_wordpool_less_exclusions.txt	LTP174	ltpFR	4	11	0	CYLINDER	432	n/a	n/a	1	0.57763671875	0.412841796875	1	upper	amplitud.ttf
1944.47	n/a	WORD	972235	wordpools/wasnorm_wordpool_less_exclusions.txt	LTP174	ltpFR	4	11	0	GOOSE	649	n/a	n/a	1	0.57763671875	0.412841796875	1	upper	amplitud.ttf
1948.63	n/a	WORD	974315	wordpools/wasnorm_wordpool_less_exclusions.txt	LTP174	ltpFR	4	11	0	MICROPHONE	890	n/a	n/a	0	0.57763671875	0.412841796875	1	upper	amplitud.ttf
1952.524	n/a	WORD	976262	wordpools/wasnorm_wordpool_less_exclusions.txt	LTP174	ltpFR	4	11	0	CHAUFFEUR	283	n/a	n/a	1	0.57763671875	0.412841796875	1	upper	amplitud.ttf
1958.45	n/a	REC_START	979225	n/a	LTP174	ltpFR	4	11	n/a	n/a	n/a	n/a	n/a	n/a	n/a	n/a	n/a	n/a	n/a
1963.728	n/a	REC_WORD	981864	wordpools/wasnorm_wordpool_less_exclusions.txt	LTP174	ltpFR	4	11	0	CONTAINER	366	n/a	n/a	0	n/a	n/a	n/a	n/a	n/a
1964.82	n/a	REC_WORD	982410	wordpools/wasnorm_wordpool_less_exclusions.txt	LTP174	ltpFR	4	11	0	KETTLE	772	n/a	n/a	1	n/a	n/a	n/a	n/a	n/a
1966.532	n/a	REC_WORD	983266	wordpools/wasnorm_wordpool_less_exclusions.txt	LTP174	ltpFR	4	11	0	FARM	552	n/a	n/a	1	n/a	n/a	n/a	n/a	n/a
1967.51	n/a	REC_WORD	983755	wordpools/wasnorm_wordpool_less_exclusions.txt	LTP174	ltpFR	4	11	0	RECEIPT	1173	n/a	n/a	0	n/a	n/a	n/a	n/a	n/a
1968.51	n/a	REC_WORD_VV	984255	wordpools/wasnorm_wordpool_less_exclusions.txt	LTP174	ltpFR	4	11	n/a	<>	-1	n/a	n/a	n/a	n/a	n/a	n/a	n/a	n/a
1970.038	n/a	REC_WORD	985019	wordpools/wasnorm_wordpool_less_exclusions.txt	LTP174	ltpFR	4	11	0	FEATHER	557	n/a	n/a	1	n/a	n/a	n/a	n/a	n/a
1973.162	n/a	REC_WORD	986581	wordpools/wasnorm_wordpool_less_exclusions.txt	LTP174	ltpFR	4	11	0	GREASE	660	n/a	n/a	1	n/a	n/a	n/a	n/a	n/a
1974.264	n/a	REC_WORD	987132	wordpools/wasnorm_wordpool_less_exclusions.txt	LTP174	ltpFR	4	11	0	CHECK	284	n/a	n/a	0	n/a	n/a	n/a	n/a	n/a
1976.908	n/a	REC_WORD	988454	wordpools/wasnorm_wordpool_less_exclusions.txt	LTP174	ltpFR	4	11	0	HARE	688	n/a	n/a	1	n/a	n/a	n/a	n/a	n/a
1978.16	n/a	REC_WORD	989080	wordpools/wasnorm_wordpool_less_exclusions.txt	LTP174	ltpFR	4	11	0	ARM	38	n/a	n/a	0	n/a	n/a	n/a	n/a	n/a
1980.26	n/a	REC_WORD	990130	wordpools/wasnorm_wordpool_less_exclusions.txt	LTP174	ltpFR	4	11	0	SHOELACE	1289	n/a	n/a	0	n/a	n/a	n/a	n/a	n/a
1981.26	n/a	REC_WORD_VV	990630	wordpools/wasnorm_wordpool_less_exclusions.txt	LTP174	ltpFR	4	11	n/a	<>	-1	n/a	n/a	n/a	n/a	n/a	n/a	n/a	n/a
1982.046	n/a	REC_WORD	991023	wordpools/wasnorm_wordpool_less_exclusions.txt	LTP174	ltpFR	4	11	0	FOOT	590	n/a	n/a	0	n/a	n/a	n/a	n/a	n/a
1984.146	n/a	REC_WORD	992073	wordpools/wasnorm_wordpool_less_exclusions.txt	LTP174	ltpFR	4	11	0	VAN	1548	n/a	n/a	1	n/a	n/a	n/a	n/a	n/a
1985.378	n/a	REC_WORD	992689	wordpools/wasnorm_wordpool_less_exclusions.txt	LTP174	ltpFR	4	11	0	CYLINDER	432	n/a	n/a	1	n/a	n/a	n/a	n/a	n/a
1986.866	n/a	REC_WORD	993433	wordpools/wasnorm_wordpool_less_exclusions.txt	LTP174	ltpFR	4	11	0	MICROPHONE	890	n/a	n/a	0	n/a	n/a	n/a	n/a	n/a
1988.172	n/a	REC_WORD	994086	wordpools/wasnorm_wordpool_less_exclusions.txt	LTP174	ltpFR	4	11	0	CHAUFFEUR	283	n/a	n/a	1	n/a	n/a	n/a	n/a	n/a
2076.274	n/a	WORD	1038137	wordpools/wasnorm_wordpool_less_exclusions.txt	LTP174	ltpFR	4	12	1	VEGETABLE	1552	n/a	n/a	0	0.422607421875	0.5869140625	0	lower	zerothre.ttf
2080.152	n/a	WORD	1040076	wordpools/wasnorm_wordpool_less_exclusions.txt	LTP174	ltpFR	4	12	1	SWIMMER	1420	n/a	n/a	1	0.422607421875	0.5869140625	0	lower	zerothre.ttf
2084.246	n/a	WORD	1042123	wordpools/wasnorm_wordpool_less_exclusions.txt	LTP174	ltpFR	4	12	1	DIVER	476	n/a	n/a	1	0.422607421875	0.5869140625	0	lower	zerothre.ttf
2088.44	n/a	WORD	1044220	wordpools/wasnorm_wordpool_less_exclusions.txt	LTP174	ltpFR	4	12	1	TUNNEL	1519	n/a	n/a	1	0.422607421875	0.5869140625	0	lower	zerothre.ttf
2092.318	n/a	WORD	1046159	wordpools/wasnorm_wordpool_less_exclusions.txt	LTP174	ltpFR	4	12	1	CUFF	423	n/a	n/a	0	0.422607421875	0.5869140625	0	lower	zerothre.ttf
2096.496	n/a	WORD	1048248	wordpools/wasnorm_wordpool_less_exclusions.txt	LTP174	ltpFR	4	12	1	SALOON	1228	n/a	n/a	0	0.422607421875	0.5869140625	0	lower	zerothre.ttf
2100.59	n/a	WORD	1050295	wordpools/wasnorm_wordpool_less_exclusions.txt	LTP174	ltpFR	4	12	1	LOUNGE	845	n/a	n/a	0	0.422607421875	0.5869140625	0	lower	zerothre.ttf
2104.7	n/a	WORD	1052350	wordpools/wasnorm_wordpool_less_exclusions.txt	LTP174	ltpFR	4	12	1	SAND	1230	n/a	n/a	0	0.422607421875	0.5869140625	0	lower	zerothre.ttf
2108.71	n/a	WORD	1054355	wordpools/wasnorm_wordpool_less_exclusions.txt	LTP174	ltpFR	4	12	1	TEA	1439	n/a	n/a	0	0.422607421875	0.5869140625	0	lower	zerothre.ttf
2112.722	n/a	WORD	1056361	wordpools/wasnorm_wordpool_less_exclusions.txt	LTP174	ltpFR	4	12	1	TEACHER	1440	n/a	n/a	1	0.422607421875	0.5869140625	0	lower	zerothre.ttf
2116.682	n/a	WORD	1058341	wordpools/wasnorm_wordpool_less_exclusions.txt	LTP174	ltpFR	4	12	1	EXPERT	543	n/a	n/a	1	0.422607421875	0.5869140625	0	lower	zerothre.ttf
2120.576	n/a	WORD	1060288	wordpools/wasnorm_wordpool_less_exclusions.txt	LTP174	ltpFR	4	12	1	CHISEL	305	n/a	n/a	0	0.422607421875	0.5869140625	0	lower	zerothre.ttf
2124.52	n/a	WORD	1062260	wordpools/wasnorm_wordpool_less_exclusions.txt	LTP174	ltpFR	4	12	1	TACK	1428	n/a	n/a	0	0.422607421875	0.5869140625	0	lower	zerothre.ttf
2128.548	n/a	WORD	1064274	wordpools/wasnorm_wordpool_less_exclusions.txt	LTP174	ltpFR	4	12	1	SUBWAY	1400	n/a	n/a	0	0.422607421875	0.5869140625	0	lower	zerothre.ttf
2132.476	n/a	WORD	1066238	wordpools/wasnorm_wordpool_less_exclusions.txt	LTP174	ltpFR	4	12	1	MONUMENT	913	n/a	n/a	0	0.422607421875	0.5869140625	0	lower	zerothre.ttf
2136.552	n/a	WORD	1068276	wordpools/wasnorm_wordpool_less_exclusions.txt	LTP174	ltpFR	4	12	1	CARPENTER	246	n/a	n/a	0	0.422607421875	0.5869140625	0	lower	zerothre.ttf
2142.344	n/a	REC_START	1071172	n/a	LTP174	ltpFR	4	12	n/a	n/a	n/a	n/a	n/a	n/a	n/a	n/a	n/a	n/a	n/a
2145.696	n/a	REC_WORD	1072848	wordpools/wasnorm_wordpool_less_exclusions.txt	LTP174	ltpFR	4	12	1	VEGETABLE	1552	n/a	n/a	0	n/a	n/a	n/a	n/a	n/a
2147.144	n/a	REC_WORD	1073572	wordpools/wasnorm_wordpool_less_exclusions.txt	LTP174	ltpFR	4	12	1	SWIMMER	1420	n/a	n/a	1	n/a	n/a	n/a	n/a	n/a
2148.43	n/a	REC_WORD	1074215	wordpools/wasnorm_wordpool_less_exclusions.txt	LTP174	ltpFR	4	12	1	DIVER	476	n/a	n/a	1	n/a	n/a	n/a	n/a	n/a
2149.758	n/a	REC_WORD	1074879	wordpools/wasnorm_wordpool_less_exclusions.txt	LTP174	ltpFR	4	12	1	TUNNEL	1519	n/a	n/a	1	n/a	n/a	n/a	n/a	n/a
2152.93	n/a	REC_WORD	1076465	wordpools/wasnorm_wordpool_less_exclusions.txt	LTP174	ltpFR	4	12	1	CUFF	423	n/a	n/a	0	n/a	n/a	n/a	n/a	n/a
2153.982	n/a	REC_WORD	1076991	wordpools/wasnorm_wordpool_less_exclusions.txt	LTP174	ltpFR	4	12	1	SALOON	1228	n/a	n/a	0	n/a	n/a	n/a	n/a	n/a
2155.36	n/a	REC_WORD	1077680	wordpools/wasnorm_wordpool_less_exclusions.txt	LTP174	ltpFR	4	12	1	LOUNGE	845	n/a	n/a	0	n/a	n/a	n/a	n/a	n/a
2157.888	n/a	REC_WORD	1078944	wordpools/wasnorm_wordpool_less_exclusions.txt	LTP174	ltpFR	4	12	1	TEA	1439	n/a	n/a	0	n/a	n/a	n/a	n/a	n/a
2161.786	n/a	REC_WORD	1080893	wordpools/wasnorm_wordpool_less_exclusions.txt	LTP174	ltpFR	4	12	n/a	COACH	331	n/a	n/a	n/a	n/a	n/a	n/a	n/a	n/a
2162.698	n/a	REC_WORD	1081349	wordpools/wasnorm_wordpool_less_exclusions.txt	LTP174	ltpFR	4	12	1	EXPERT	543	n/a	n/a	1	n/a	n/a	n/a	n/a	n/a
2163.896	n/a	REC_WORD	1081948	wordpools/wasnorm_wordpool_less_exclusions.txt	LTP174	ltpFR	4	12	1	TACK	1428	n/a	n/a	0	n/a	n/a	n/a	n/a	n/a
2167.424	n/a	REC_WORD	1083712	wordpools/wasnorm_wordpool_less_exclusions.txt	LTP174	ltpFR	4	12	1	SUBWAY	1400	n/a	n/a	0	n/a	n/a	n/a	n/a	n/a
2168.322	n/a	REC_WORD	1084161	wordpools/wasnorm_wordpool_less_exclusions.txt	LTP174	ltpFR	4	12	1	MONUMENT	913	n/a	n/a	0	n/a	n/a	n/a	n/a	n/a
2169.478	n/a	REC_WORD	1084739	wordpools/wasnorm_wordpool_less_exclusions.txt	LTP174	ltpFR	4	12	1	CARPENTER	246	n/a	n/a	0	n/a	n/a	n/a	n/a	n/a
2206.564	n/a	REC_WORD	1103282	wordpools/wasnorm_wordpool_less_exclusions.txt	LTP174	ltpFR	4	12	1	CHISEL	305	n/a	n/a	0	n/a	n/a	n/a	n/a	n/a
2217.932	n/a	REST_REWET	1108966	n/a	LTP174	ltpFR	4	12	n/a	n/a	n/a	n/a	n/a	n/a	n/a	n/a	n/a	n/a	n/a
2588.782	n/a	WORD	1294391	wordpools/wasnorm_wordpool_less_exclusions.txt	LTP174	ltpFR	4	13	-1	BRUSH	182	n/a	n/a	-1	1.0	1.0	1	upper	Verdana.ttf
2592.794	n/a	WORD	1296397	wordpools/wasnorm_wordpool_less_exclusions.txt	LTP174	ltpFR	4	13	-1	CHILD	299	n/a	n/a	-1	1.0	1.0	1	upper	Verdana.ttf
2596.988	n/a	WORD	1298494	wordpools/wasnorm_wordpool_less_exclusions.txt	LTP174	ltpFR	4	13	-1	BABY	64	n/a	n/a	-1	1.0	1.0	1	upper	Verdana.ttf
2600.864	n/a	WORD	1300432	wordpools/wasnorm_wordpool_less_exclusions.txt	LTP174	ltpFR	4	13	-1	SKUNK	1321	n/a	n/a	-1	1.0	1.0	1	upper	Verdana.ttf
2604.776	n/a	WORD	1302388	wordpools/wasnorm_wordpool_less_exclusions.txt	LTP174	ltpFR	4	13	-1	ROOM	1206	n/a	n/a	-1	1.0	1.0	1	upper	Verdana.ttf
2608.92	n/a	WORD	1304460	wordpools/wasnorm_wordpool_less_exclusions.txt	LTP174	ltpFR	4	13	-1	FREEWAY	603	n/a	n/a	-1	1.0	1.0	1	upper	Verdana.ttf
2612.848	n/a	WORD	1306424	wordpools/wasnorm_wordpool_less_exclusions.txt	LTP174	ltpFR	4	13	-1	MECHANIC	884	n/a	n/a	-1	1.0	1.0	1	upper	Verdana.ttf
2616.742	n/a	WORD	1308371	wordpools/wasnorm_wordpool_less_exclusions.txt	LTP174	ltpFR	4	13	-1	CRICKET	408	n/a	n/a	-1	1.0	1.0	1	upper	Verdana.ttf
2620.836	n/a	WORD	1310418	wordpools/wasnorm_wordpool_less_exclusions.txt	LTP174	ltpFR	4	13	-1	MOWER	928	n/a	n/a	-1	1.0	1.0	1	upper	Verdana.ttf
2624.846	n/a	WORD	1312423	wordpools/wasnorm_wordpool_less_exclusions.txt	LTP174	ltpFR	4	13	-1	TOASTER	1472	n/a	n/a	-1	1.0	1.0	1	upper	Verdana.ttf
2628.84	n/a	WORD	1314420	wordpools/wasnorm_wordpool_less_exclusions.txt	LTP174	ltpFR	4	13	-1	ANGEL	22	n/a	n/a	-1	1.0	1.0	1	upper	Verdana.ttf
2632.968	n/a	WORD	1316484	wordpools/wasnorm_wordpool_less_exclusions.txt	LTP174	ltpFR	4	13	-1	NOSE	957	n/a	n/a	-1	1.0	1.0	1	upper	Verdana.ttf
2637.146	n/a	WORD	1318573	wordpools/wasnorm_wordpool_less_exclusions.txt	LTP174	ltpFR	4	13	-1	SKETCH	1315	n/a	n/a	-1	1.0	1.0	1	upper	Verdana.ttf
2641.222	n/a	WORD	1320611	wordpools/wasnorm_wordpool_less_exclusions.txt	LTP174	ltpFR	4	13	-1	PENCIL	1042	n/a	n/a	-1	1.0	1.0	1	upper	Verdana.ttf
2645.084	n/a	WORD	1322542	wordpools/wasnorm_wordpool_less_exclusions.txt	LTP174	ltpFR	4	13	-1	CLASS	318	n/a	n/a	-1	1.0	1.0	1	upper	Verdana.ttf
2649.128	n/a	WORD	1324564	wordpools/wasnorm_wordpool_less_exclusions.txt	LTP174	ltpFR	4	13	-1	TOAST	1471	n/a	n/a	-1	1.0	1.0	1	upper	Verdana.ttf
2654.886	n/a	REC_START	1327443	n/a	LTP174	ltpFR	4	13	n/a	n/a	n/a	n/a	n/a	n/a	n/a	n/a	n/a	n/a	n/a
2657.0	n/a	REC_WORD	1328500	wordpools/wasnorm_wordpool_less_exclusions.txt	LTP174	ltpFR	4	13	-1	BRUSH	182	n/a	n/a	-1	n/a	n/a	n/a	n/a	n/a
2657.854	n/a	REC_WORD	1328927	wordpools/wasnorm_wordpool_less_exclusions.txt	LTP174	ltpFR	4	13	-1	CHILD	299	n/a	n/a	-1	n/a	n/a	n/a	n/a	n/a
2658.826	n/a	REC_WORD	1329413	wordpools/wasnorm_wordpool_less_exclusions.txt	LTP174	ltpFR	4	13	-1	BABY	64	n/a	n/a	-1	n/a	n/a	n/a	n/a	n/a
2659.844	n/a	REC_WORD	1329922	wordpools/wasnorm_wordpool_less_exclusions.txt	LTP174	ltpFR	4	13	-1	SKUNK	1321	n/a	n/a	-1	n/a	n/a	n/a	n/a	n/a
2661.366	n/a	REC_WORD	1330683	wordpools/wasnorm_wordpool_less_exclusions.txt	LTP174	ltpFR	4	13	-1	ROOM	1206	n/a	n/a	-1	n/a	n/a	n/a	n/a	n/a
2663.122	n/a	REC_WORD	1331561	wordpools/wasnorm_wordpool_less_exclusions.txt	LTP174	ltpFR	4	13	-1	FREEWAY	603	n/a	n/a	-1	n/a	n/a	n/a	n/a	n/a
2664.08	n/a	REC_WORD	1332040	wordpools/wasnorm_wordpool_less_exclusions.txt	LTP174	ltpFR	4	13	-1	MECHANIC	884	n/a	n/a	-1	n/a	n/a	n/a	n/a	n/a
2665.422	n/a	REC_WORD	1332711	wordpools/wasnorm_wordpool_less_exclusions.txt	LTP174	ltpFR	4	13	-1	CRICKET	408	n/a	n/a	-1	n/a	n/a	n/a	n/a	n/a
2668.234	n/a	REC_WORD	1334117	wordpools/wasnorm_wordpool_less_exclusions.txt	LTP174	ltpFR	4	13	-1	MOWER	928	n/a	n/a	-1	n/a	n/a	n/a	n/a	n/a
2670.874	n/a	REC_WORD	1335437	wordpools/wasnorm_wordpool_less_exclusions.txt	LTP174	ltpFR	4	13	-1	TOASTER	1472	n/a	n/a	-1	n/a	n/a	n/a	n/a	n/a
2672.96	n/a	REC_WORD	1336480	wordpools/wasnorm_wordpool_less_exclusions.txt	LTP174	ltpFR	4	13	-1	ANGEL	22	n/a	n/a	-1	n/a	n/a	n/a	n/a	n/a
2674.042	n/a	REC_WORD	1337021	wordpools/wasnorm_wordpool_less_exclusions.txt	LTP174	ltpFR	4	13	-1	NOSE	957	n/a	n/a	-1	n/a	n/a	n/a	n/a	n/a
2675.778	n/a	REC_WORD	1337889	wordpools/wasnorm_wordpool_less_exclusions.txt	LTP174	ltpFR	4	13	-1	SKETCH	1315	n/a	n/a	-1	n/a	n/a	n/a	n/a	n/a
2676.84	n/a	REC_WORD	1338420	wordpools/wasnorm_wordpool_less_exclusions.txt	LTP174	ltpFR	4	13	-1	PENCIL	1042	n/a	n/a	-1	n/a	n/a	n/a	n/a	n/a
2677.868	n/a	REC_WORD	1338934	wordpools/wasnorm_wordpool_less_exclusions.txt	LTP174	ltpFR	4	13	-1	CLASS	318	n/a	n/a	-1	n/a	n/a	n/a	n/a	n/a
2679.55	n/a	REC_WORD	1339775	wordpools/wasnorm_wordpool_less_exclusions.txt	LTP174	ltpFR	4	13	-1	TOAST	1471	n/a	n/a	-1	n/a	n/a	n/a	n/a	n/a
2745.134	n/a	WORD	1372567	wordpools/wasnorm_wordpool_less_exclusions.txt	LTP174	ltpFR	4	14	0	PERSONNEL	1053	n/a	n/a	0	0.57763671875	0.412841796875	1	upper	amplitud.ttf
2749.346	n/a	WORD	1374673	wordpools/wasnorm_wordpool_less_exclusions.txt	LTP174	ltpFR	4	14	0	SILVERWARE	1308	n/a	n/a	0	0.57763671875	0.412841796875	1	upper	amplitud.ttf
2753.54	n/a	WORD	1376770	wordpools/wasnorm_wordpool_less_exclusions.txt	LTP174	ltpFR	4	14	0	CELLO	268	n/a	n/a	1	0.57763671875	0.412841796875	1	upper	amplitud.ttf
2757.466	n/a	WORD	1378733	wordpools/wasnorm_wordpool_less_exclusions.txt	LTP174	ltpFR	4	14	0	EDITOR	516	n/a	n/a	1	0.57763671875	0.412841796875	1	upper	amplitud.ttf
2761.46	n/a	WORD	1380730	wordpools/wasnorm_wordpool_less_exclusions.txt	LTP174	ltpFR	4	14	0	EMPLOYER	532	n/a	n/a	1	0.57763671875	0.412841796875	1	upper	amplitud.ttf
2765.372	n/a	WORD	1382686	wordpools/wasnorm_wordpool_less_exclusions.txt	LTP174	ltpFR	4	14	1	NUCLEUS	961	n/a	n/a	1	0.422607421875	0.5869140625	0	lower	zerothre.ttf
2769.384	n/a	WORD	1384692	wordpools/wasnorm_wordpool_less_exclusions.txt	LTP174	ltpFR	4	14	1	ATOM	55	n/a	n/a	1	0.422607421875	0.5869140625	0	lower	zerothre.ttf
2773.36	n/a	WORD	1386680	wordpools/wasnorm_wordpool_less_exclusions.txt	LTP174	ltpFR	4	14	1	TAPE	1433	n/a	n/a	n/a	0.422607421875	0.5869140625	0	lower	zerothre.ttf
2776.39	n/a	SLOW_MSG	1388195	n/a	LTP174	ltpFR	4	14	n/a	n/a	n/a	n/a	n/a	n/a	n/a	n/a	n/a	n/a	n/a
2779.102	n/a	WORD	1389551	wordpools/wasnorm_wordpool_less_exclusions.txt	LTP174	ltpFR	4	14	1	FARMER	553	n/a	n/a	1	0.422607421875	0.5869140625	0	lower	zerothre.ttf
2783.046	n/a	WORD	1391523	wordpools/wasnorm_wordpool_less_exclusions.txt	LTP174	ltpFR	4	14	1	PUDDLE	1140	n/a	n/a	0	0.422607421875	0.5869140625	0	lower	zerothre.ttf
2787.124	n/a	WORD	1393562	wordpools/wasnorm_wordpool_less_exclusions.txt	LTP174	ltpFR	4	14	0	DIRT	472	n/a	n/a	0	0.57763671875	0.412841796875	1	upper	amplitud.ttf
2791.282	n/a	WORD	1395641	wordpools/wasnorm_wordpool_less_exclusions.txt	LTP174	ltpFR	4	14	0	GORILLA	650	n/a	n/a	1	0.57763671875	0.412841796875	1	upper	amplitud.ttf
2795.21	n/a	WORD	1397605	wordpools/wasnorm_wordpool_less_exclusions.txt	LTP174	ltpFR	4	14	0	CITIZEN	312	n/a	n/a	1	0.57763671875	0.412841796875	1	upper	amplitud.ttf
2799.138	n/a	WORD	1399569	wordpools/wasnorm_wordpool_less_exclusions.txt	LTP174	ltpFR	4	14	1	CONSOLE	364	n/a	n/a	0	0.422607421875	0.5869140625	0	lower	zerothre.ttf
2803.316	n/a	WORD	1401658	wordpools/wasnorm_wordpool_less_exclusions.txt	LTP174	ltpFR	4	14	1	HOE	711	n/a	n/a	0	0.422607421875	0.5869140625	0	lower	zerothre.ttf
2807.276	n/a	WORD	1403638	wordpools/wasnorm_wordpool_less_exclusions.txt	LTP174	ltpFR	4	14	1	GROUND	666	n/a	n/a	0	0.422607421875	0.5869140625	0	lower	zerothre.ttf
2813.068	n/a	REC_START	1406534	n/a	LTP174	ltpFR	4	14	n/a	n/a	n/a	n/a	n/a	n/a	n/a	n/a	n/a	n/a	n/a
2817.622	n/a	REC_WORD	1408811	wordpools/wasnorm_wordpool_less_exclusions.txt	LTP174	ltpFR	4	14	0	PERSONNEL	1053	n/a	n/a	0	n/a	n/a	n/a	n/a	n/a
2819.768	n/a	REC_WORD	1409884	wordpools/wasnorm_wordpool_less_exclusions.txt	LTP174	ltpFR	4	14	0	SILVERWARE	1308	n/a	n/a	0	n/a	n/a	n/a	n/a	n/a
2821.5	n/a	REC_WORD	1410750	wordpools/wasnorm_wordpool_less_exclusions.txt	LTP174	ltpFR	4	14	0	CELLO	268	n/a	n/a	1	n/a	n/a	n/a	n/a	n/a
2823.594	n/a	REC_WORD	1411797	wordpools/wasnorm_wordpool_less_exclusions.txt	LTP174	ltpFR	4	14	0	EDITOR	516	n/a	n/a	1	n/a	n/a	n/a	n/a	n/a
2825.82	n/a	REC_WORD	1412910	wordpools/wasnorm_wordpool_less_exclusions.txt	LTP174	ltpFR	4	14	0	EMPLOYER	532	n/a	n/a	1	n/a	n/a	n/a	n/a	n/a
2829.022	n/a	REC_WORD	1414511	wordpools/wasnorm_wordpool_less_exclusions.txt	LTP174	ltpFR	4	14	1	FARMER	553	n/a	n/a	1	n/a	n/a	n/a	n/a	n/a
2830.3	n/a	REC_WORD	1415150	wordpools/wasnorm_wordpool_less_exclusions.txt	LTP174	ltpFR	4	14	1	PUDDLE	1140	n/a	n/a	0	n/a	n/a	n/a	n/a	n/a
2832.32	n/a	REC_WORD	1416160	wordpools/wasnorm_wordpool_less_exclusions.txt	LTP174	ltpFR	4	14	1	NUCLEUS	961	n/a	n/a	1	n/a	n/a	n/a	n/a	n/a
2833.052	n/a	REC_WORD	1416526	wordpools/wasnorm_wordpool_less_exclusions.txt	LTP174	ltpFR	4	14	1	ATOM	55	n/a	n/a	1	n/a	n/a	n/a	n/a	n/a
2833.652	n/a	REC_WORD	1416826	wordpools/wasnorm_wordpool_less_exclusions.txt	LTP174	ltpFR	4	14	1	TAPE	1433	n/a	n/a	n/a	n/a	n/a	n/a	n/a	n/a
2837.372	n/a	REC_WORD	1418686	wordpools/wasnorm_wordpool_less_exclusions.txt	LTP174	ltpFR	4	14	0	CITIZEN	312	n/a	n/a	1	n/a	n/a	n/a	n/a	n/a
2838.924	n/a	REC_WORD	1419462	wordpools/wasnorm_wordpool_less_exclusions.txt	LTP174	ltpFR	4	14	1	CONSOLE	364	n/a	n/a	0	n/a	n/a	n/a	n/a	n/a
2841.306	n/a	REC_WORD	1420653	wordpools/wasnorm_wordpool_less_exclusions.txt	LTP174	ltpFR	4	14	1	HOE	711	n/a	n/a	0	n/a	n/a	n/a	n/a	n/a
2842.034	n/a	REC_WORD	1421017	wordpools/wasnorm_wordpool_less_exclusions.txt	LTP174	ltpFR	4	14	1	GROUND	666	n/a	n/a	0	n/a	n/a	n/a	n/a	n/a
2855.234	n/a	REC_WORD	1427617	wordpools/wasnorm_wordpool_less_exclusions.txt	LTP174	ltpFR	4	14	0	DIRT	472	n/a	n/a	0	n/a	n/a	n/a	n/a	n/a
2862.986	n/a	REC_WORD	1431493	wordpools/wasnorm_wordpool_less_exclusions.txt	LTP174	ltpFR	4	14	0	GORILLA	650	n/a	n/a	1	n/a	n/a	n/a	n/a	n/a
2894.38	n/a	WORD	1447190	wordpools/wasnorm_wordpool_less_exclusions.txt	LTP174	ltpFR	4	15	-1	FLEA	577	n/a	n/a	-1	1.0	1.0	1	upper	Verdana.ttf
2898.574	n/a	WORD	1449287	wordpools/wasnorm_wordpool_less_exclusions.txt	LTP174	ltpFR	4	15	-1	GROCERIES	663	n/a	n/a	-1	1.0	1.0	1	upper	Verdana.ttf
2902.768	n/a	WORD	1451384	wordpools/wasnorm_wordpool_less_exclusions.txt	LTP174	ltpFR	4	15	-1	ELEPHANT	523	n/a	n/a	-1	1.0	1.0	1	upper	Verdana.ttf
2906.828	n/a	WORD	1453414	wordpools/wasnorm_wordpool_less_exclusions.txt	LTP174	ltpFR	4	15	-1	PARROT	1015	n/a	n/a	-1	1.0	1.0	1	upper	Verdana.ttf
2910.724	n/a	WORD	1455362	wordpools/wasnorm_wordpool_less_exclusions.txt	LTP174	ltpFR	4	15	-1	ISLAND	745	n/a	n/a	-1	1.0	1.0	1	upper	Verdana.ttf
2914.9	n/a	WORD	1457450	wordpools/wasnorm_wordpool_less_exclusions.txt	LTP174	ltpFR	4	15	-1	BRIDGE	174	n/a	n/a	-1	1.0	1.0	1	upper	Verdana.ttf
2918.912	n/a	WORD	1459456	wordpools/wasnorm_wordpool_less_exclusions.txt	LTP174	ltpFR	4	15	-1	DESK	452	n/a	n/a	-1	1.0	1.0	1	upper	Verdana.ttf
2922.99	n/a	WORD	1461495	wordpools/wasnorm_wordpool_less_exclusions.txt	LTP174	ltpFR	4	15	-1	PAGE	1001	n/a	n/a	-1	1.0	1.0	1	upper	Verdana.ttf
2927.198	n/a	WORD	1463599	wordpools/wasnorm_wordpool_less_exclusions.txt	LTP174	ltpFR	4	15	-1	HOSTESS	723	n/a	n/a	-1	1.0	1.0	1	upper	Verdana.ttf
2931.126	n/a	WORD	1465563	wordpools/wasnorm_wordpool_less_exclusions.txt	LTP174	ltpFR	4	15	-1	CARPET	247	n/a	n/a	-1	1.0	1.0	1	upper	Verdana.ttf
2935.088	n/a	WORD	1467544	wordpools/wasnorm_wordpool_less_exclusions.txt	LTP174	ltpFR	4	15	-1	PISTON	1076	n/a	n/a	-1	1.0	1.0	1	upper	Verdana.ttf
2939.114	n/a	WORD	1469557	wordpools/wasnorm_wordpool_less_exclusions.txt	LTP174	ltpFR	4	15	-1	OWL	992	n/a	n/a	-1	1.0	1.0	1	upper	Verdana.ttf
2943.01	n/a	WORD	1471505	wordpools/wasnorm_wordpool_less_exclusions.txt	LTP174	ltpFR	4	15	-1	MAT	877	n/a	n/a	-1	1.0	1.0	1	upper	Verdana.ttf
2947.17	n/a	WORD	1473585	wordpools/wasnorm_wordpool_less_exclusions.txt	LTP174	ltpFR	4	15	-1	SERVER	1272	n/a	n/a	-1	1.0	1.0	1	upper	Verdana.ttf
2951.164	n/a	WORD	1475582	wordpools/wasnorm_wordpool_less_exclusions.txt	LTP174	ltpFR	4	15	-1	CAPTAIN	239	n/a	n/a	-1	1.0	1.0	1	upper	Verdana.ttf
2955.19	n/a	WORD	1477595	wordpools/wasnorm_wordpool_less_exclusions.txt	LTP174	ltpFR	4	15	-1	VIKING	1565	n/a	n/a	-1	1.0	1.0	1	upper	Verdana.ttf
2961.032	n/a	REC_START	1480516	n/a	LTP174	ltpFR	4	15	n/a	n/a	n/a	n/a	n/a	n/a	n/a	n/a	n/a	n/a	n/a
2961.926	n/a	REC_WORD	1480963	wordpools/wasnorm_wordpool_less_exclusions.txt	LTP174	ltpFR	4	15	-1	FLEA	577	n/a	n/a	-1	n/a	n/a	n/a	n/a	n/a
2962.998	n/a	REC_WORD	1481499	wordpools/wasnorm_wordpool_less_exclusions.txt	LTP174	ltpFR	4	15	-1	GROCERIES	663	n/a	n/a	-1	n/a	n/a	n/a	n/a	n/a
2963.998	n/a	REC_WORD_VV	1481999	wordpools/wasnorm_wordpool_less_exclusions.txt	LTP174	ltpFR	4	15	n/a	<>	-1	n/a	n/a	n/a	n/a	n/a	n/a	n/a	n/a
2964.984	n/a	REC_WORD	1482492	wordpools/wasnorm_wordpool_less_exclusions.txt	LTP174	ltpFR	4	15	-1	PARROT	1015	n/a	n/a	-1	n/a	n/a	n/a	n/a	n/a
2966.82	n/a	REC_WORD	1483410	wordpools/wasnorm_wordpool_less_exclusions.txt	LTP174	ltpFR	4	15	-1	ELEPHANT	523	n/a	n/a	-1	n/a	n/a	n/a	n/a	n/a
2971.594	n/a	REC_WORD	1485797	wordpools/wasnorm_wordpool_less_exclusions.txt	LTP174	ltpFR	4	15	-1	ISLAND	745	n/a	n/a	-1	n/a	n/a	n/a	n/a	n/a
2972.936	n/a	REC_WORD	1486468	wordpools/wasnorm_wordpool_less_exclusions.txt	LTP174	ltpFR	4	15	-1	BRIDGE	174	n/a	n/a	-1	n/a	n/a	n/a	n/a	n/a
2973.904	n/a	REC_WORD	1486952	wordpools/wasnorm_wordpool_less_exclusions.txt	LTP174	ltpFR	4	15	-1	DESK	452	n/a	n/a	-1	n/a	n/a	n/a	n/a	n/a
2974.712	n/a	REC_WORD	1487356	wordpools/wasnorm_wordpool_less_exclusions.txt	LTP174	ltpFR	4	15	-1	PAGE	1001	n/a	n/a	-1	n/a	n/a	n/a	n/a	n/a
2976.004	n/a	REC_WORD	1488002	wordpools/wasnorm_wordpool_less_exclusions.txt	LTP174	ltpFR	4	15	-1	HOSTESS	723	n/a	n/a	-1	n/a	n/a	n/a	n/a	n/a
2977.004	n/a	REC_WORD_VV	1488502	wordpools/wasnorm_wordpool_less_exclusions.txt	LTP174	ltpFR	4	15	n/a	<>	-1	n/a	n/a	n/a	n/a	n/a	n/a	n/a	n/a
2979.26	n/a	REC_WORD	1489630	wordpools/wasnorm_wordpool_less_exclusions.txt	LTP174	ltpFR	4	15	-1	CARPET	247	n/a	n/a	-1	n/a	n/a	n/a	n/a	n/a
2982.204	n/a	REC_WORD	1491102	wordpools/wasnorm_wordpool_less_exclusions.txt	LTP174	ltpFR	4	15	-1	MAT	877	n/a	n/a	-1	n/a	n/a	n/a	n/a	n/a
2983.406	n/a	REC_WORD	1491703	wordpools/wasnorm_wordpool_less_exclusions.txt	LTP174	ltpFR	4	15	-1	OWL	992	n/a	n/a	-1	n/a	n/a	n/a	n/a	n/a
2984.814	n/a	REC_WORD	1492407	wordpools/wasnorm_wordpool_less_exclusions.txt	LTP174	ltpFR	4	15	-1	SERVER	1272	n/a	n/a	-1	n/a	n/a	n/a	n/a	n/a
2985.792	n/a	REC_WORD	1492896	wordpools/wasnorm_wordpool_less_exclusions.txt	LTP174	ltpFR	4	15	-1	CAPTAIN	239	n/a	n/a	-1	n/a	n/a	n/a	n/a	n/a
2987.946	n/a	REC_WORD	1493973	wordpools/wasnorm_wordpool_less_exclusions.txt	LTP174	ltpFR	4	15	-1	VIKING	1565	n/a	n/a	-1	n/a	n/a	n/a	n/a	n/a
3043.394	n/a	WORD	1521697	wordpools/wasnorm_wordpool_less_exclusions.txt	LTP174	ltpFR	4	16	1	LEAF	808	n/a	n/a	0	0.422607421875	0.5869140625	0	lower	zerothre.ttf
3047.554	n/a	WORD	1523777	wordpools/wasnorm_wordpool_less_exclusions.txt	LTP174	ltpFR	4	16	1	THICKET	1455	n/a	n/a	0	0.422607421875	0.5869140625	0	lower	zerothre.ttf
3051.682	n/a	WORD	1525841	wordpools/wasnorm_wordpool_less_exclusions.txt	LTP174	ltpFR	4	16	1	POET	1095	n/a	n/a	1	0.422607421875	0.5869140625	0	lower	zerothre.ttf
3055.608	n/a	WORD	1527804	wordpools/wasnorm_wordpool_less_exclusions.txt	LTP174	ltpFR	4	16	1	HERO	706	n/a	n/a	1	0.422607421875	0.5869140625	0	lower	zerothre.ttf
3059.802	n/a	WORD	1529901	wordpools/wasnorm_wordpool_less_exclusions.txt	LTP174	ltpFR	4	16	1	PRODUCER	1129	n/a	n/a	1	0.422607421875	0.5869140625	0	lower	zerothre.ttf
3063.98	n/a	WORD	1531990	wordpools/wasnorm_wordpool_less_exclusions.txt	LTP174	ltpFR	4	16	0	DILL	465	n/a	n/a	0	0.57763671875	0.412841796875	1	upper	amplitud.ttf
3067.842	n/a	WORD	1533921	wordpools/wasnorm_wordpool_less_exclusions.txt	LTP174	ltpFR	4	16	0	BEAST	108	n/a	n/a	1	0.57763671875	0.412841796875	1	upper	amplitud.ttf
3071.968	n/a	WORD	1535984	wordpools/wasnorm_wordpool_less_exclusions.txt	LTP174	ltpFR	4	16	0	COCOON	339	n/a	n/a	1	0.57763671875	0.412841796875	1	upper	amplitud.ttf
3076.012	n/a	WORD	1538006	wordpools/wasnorm_wordpool_less_exclusions.txt	LTP174	ltpFR	4	16	1	FLAG	573	n/a	n/a	0	0.422607421875	0.5869140625	0	lower	zerothre.ttf
3080.206	n/a	WORD	1540103	wordpools/wasnorm_wordpool_less_exclusions.txt	LTP174	ltpFR	4	16	1	SPINACH	1352	n/a	n/a	1	0.422607421875	0.5869140625	0	lower	zerothre.ttf
3084.334	n/a	WORD	1542167	wordpools/wasnorm_wordpool_less_exclusions.txt	LTP174	ltpFR	4	16	1	FILM	565	n/a	n/a	1	0.422607421875	0.5869140625	0	lower	zerothre.ttf
3088.31	n/a	WORD	1544155	wordpools/wasnorm_wordpool_less_exclusions.txt	LTP174	ltpFR	4	16	0	TROMBONE	1508	n/a	n/a	1	0.57763671875	0.412841796875	1	upper	amplitud.ttf
3092.172	n/a	WORD	1546086	wordpools/wasnorm_wordpool_less_exclusions.txt	LTP174	ltpFR	4	16	0	PERFUME	1049	n/a	n/a	0	0.57763671875	0.412841796875	1	upper	amplitud.ttf
3096.316	n/a	WORD	1548158	wordpools/wasnorm_wordpool_less_exclusions.txt	LTP174	ltpFR	4	16	0	HERB	704	n/a	n/a	0	0.57763671875	0.412841796875	1	upper	amplitud.ttf
3100.41	n/a	WORD	1550205	wordpools/wasnorm_wordpool_less_exclusions.txt	LTP174	ltpFR	4	16	0	COOKBOOK	373	n/a	n/a	0	0.57763671875	0.412841796875	1	upper	amplitud.ttf
3104.586	n/a	WORD	1552293	wordpools/wasnorm_wordpool_less_exclusions.txt	LTP174	ltpFR	4	16	0	CAFE	216	n/a	n/a	0	0.57763671875	0.412841796875	1	upper	amplitud.ttf
3110.462	n/a	REC_START	1555231	n/a	LTP174	ltpFR	4	16	n/a	n/a	n/a	n/a	n/a	n/a	n/a	n/a	n/a	n/a	n/a
3112.282	n/a	REC_WORD	1556141	wordpools/wasnorm_wordpool_less_exclusions.txt	LTP174	ltpFR	4	16	1	LEAF	808	n/a	n/a	0	n/a	n/a	n/a	n/a	n/a
3113.19	n/a	REC_WORD	1556595	wordpools/wasnorm_wordpool_less_exclusions.txt	LTP174	ltpFR	4	16	1	THICKET	1455	n/a	n/a	0	n/a	n/a	n/a	n/a	n/a
3114.212	n/a	REC_WORD	1557106	wordpools/wasnorm_wordpool_less_exclusions.txt	LTP174	ltpFR	4	16	1	POET	1095	n/a	n/a	1	n/a	n/a	n/a	n/a	n/a
3115.57	n/a	REC_WORD	1557785	wordpools/wasnorm_wordpool_less_exclusions.txt	LTP174	ltpFR	4	16	1	PRODUCER	1129	n/a	n/a	1	n/a	n/a	n/a	n/a	n/a
3118.986	n/a	REC_WORD	1559493	wordpools/wasnorm_wordpool_less_exclusions.txt	LTP174	ltpFR	4	16	0	DILL	465	n/a	n/a	0	n/a	n/a	n/a	n/a	n/a
3120.338	n/a	REC_WORD	1560169	wordpools/wasnorm_wordpool_less_exclusions.txt	LTP174	ltpFR	4	16	0	BEAST	108	n/a	n/a	1	n/a	n/a	n/a	n/a	n/a
3121.916	n/a	REC_WORD	1560958	wordpools/wasnorm_wordpool_less_exclusions.txt	LTP174	ltpFR	4	16	0	COCOON	339	n/a	n/a	1	n/a	n/a	n/a	n/a	n/a
3129.034	n/a	REC_WORD	1564517	wordpools/wasnorm_wordpool_less_exclusions.txt	LTP174	ltpFR	4	16	0	HERB	704	n/a	n/a	0	n/a	n/a	n/a	n/a	n/a
3130.042	n/a	REC_WORD	1565021	wordpools/wasnorm_wordpool_less_exclusions.txt	LTP174	ltpFR	4	16	0	COOKBOOK	373	n/a	n/a	0	n/a	n/a	n/a	n/a	n/a
3131.948	n/a	REC_WORD	1565974	wordpools/wasnorm_wordpool_less_exclusions.txt	LTP174	ltpFR	4	16	1	FILM	565	n/a	n/a	1	n/a	n/a	n/a	n/a	n/a
3133.154	n/a	REC_WORD	1566577	wordpools/wasnorm_wordpool_less_exclusions.txt	LTP174	ltpFR	4	16	0	PERFUME	1049	n/a	n/a	0	n/a	n/a	n/a	n/a	n/a
3143.982	n/a	REC_WORD	1571991	wordpools/wasnorm_wordpool_less_exclusions.txt	LTP174	ltpFR	4	16	0	CAFE	216	n/a	n/a	0	n/a	n/a	n/a	n/a	n/a
3209.698	n/a	REC_START	1604849	n/a	LTP174	ltpFR	4	1	n/a	n/a	n/a	n/a	n/a	n/a	n/a	n/a	n/a	n/a	n/a
3209.73	n/a	RECOG_TARGET	1604865	n/a	LTP174	ltpFR	4	1	1	LASER	801	1	5	0	n/a	n/a	n/a	n/a	n/a
3211.008	n/a	RECOG_RESP	1605504	n/a	LTP174	ltpFR	4	1	1	LASER	801	1	n/a	0	n/a	n/a	n/a	n/a	n/a
3212.228	n/a	RECOG_CONF	1606114	n/a	LTP174	ltpFR	4	1	1	LASER	801	n/a	5	0	n/a	n/a	n/a	n/a	n/a
3214.058	n/a	RECOG_TARGET	1607029	n/a	LTP174	ltpFR	4	1	-1	WIRE	1616	1	5	-1	n/a	n/a	n/a	n/a	n/a
3214.712	n/a	RECOG_RESP	1607356	n/a	LTP174	ltpFR	4	1	-1	WIRE	1616	1	n/a	-1	n/a	n/a	n/a	n/a	n/a
3215.664	n/a	RECOG_CONF	1607832	n/a	LTP174	ltpFR	4	1	-1	WIRE	1616	n/a	5	-1	n/a	n/a	n/a	n/a	n/a
3217.486	n/a	RECOG_LURE	1608743	n/a	LTP174	ltpFR	4	1	n/a	WASHCLOTH	1591	0	5	n/a	n/a	n/a	n/a	n/a	n/a
3218.172	n/a	RECOG_RESP	1609086	n/a	LTP174	ltpFR	4	1	n/a	WASHCLOTH	1591	0	n/a	n/a	n/a	n/a	n/a	n/a	n/a
3218.994	n/a	RECOG_CONF	1609497	n/a	LTP174	ltpFR	4	1	n/a	WASHCLOTH	1591	n/a	5	n/a	n/a	n/a	n/a	n/a	n/a
3220.748	n/a	RECOG_LURE	1610374	n/a	LTP174	ltpFR	4	1	n/a	RADIATOR	1156	0	5	n/a	n/a	n/a	n/a	n/a	n/a
3221.57	n/a	RECOG_RESP	1610785	n/a	LTP174	ltpFR	4	1	n/a	RADIATOR	1156	0	n/a	n/a	n/a	n/a	n/a	n/a	n/a
3222.524	n/a	RECOG_CONF	1611262	n/a	LTP174	ltpFR	4	1	n/a	RADIATOR	1156	n/a	5	n/a	n/a	n/a	n/a	n/a	n/a
3224.326	n/a	RECOG_TARGET	1612163	n/a	LTP174	ltpFR	4	1	-1	CLIFF	322	1	5	-1	n/a	n/a	n/a	n/a	n/a
3224.988	n/a	RECOG_RESP	1612494	n/a	LTP174	ltpFR	4	1	-1	CLIFF	322	1	n/a	-1	n/a	n/a	n/a	n/a	n/a
3225.858	n/a	RECOG_CONF	1612929	n/a	LTP174	ltpFR	4	1	-1	CLIFF	322	n/a	5	-1	n/a	n/a	n/a	n/a	n/a
3227.754	n/a	RECOG_LURE	1613877	n/a	LTP174	ltpFR	4	1	n/a	DRAGON	492	0	5	n/a	n/a	n/a	n/a	n/a	n/a
3228.426	n/a	RECOG_RESP	1614213	n/a	LTP174	ltpFR	4	1	n/a	DRAGON	492	0	n/a	n/a	n/a	n/a	n/a	n/a	n/a
3229.47	n/a	RECOG_CONF	1614735	n/a	LTP174	ltpFR	4	1	n/a	DRAGON	492	n/a	5	n/a	n/a	n/a	n/a	n/a	n/a
3231.116	n/a	RECOG_TARGET	1615558	n/a	LTP174	ltpFR	4	1	0	DILL	465	1	5	0	n/a	n/a	n/a	n/a	n/a
3231.97	n/a	RECOG_RESP	1615985	n/a	LTP174	ltpFR	4	1	0	DILL	465	1	n/a	0	n/a	n/a	n/a	n/a	n/a
3233.55	n/a	RECOG_CONF	1616775	n/a	LTP174	ltpFR	4	1	0	DILL	465	n/a	5	0	n/a	n/a	n/a	n/a	n/a
3236.026	n/a	RECOG_TARGET	1618013	n/a	LTP174	ltpFR	4	1	0	HANDKERCHIEF	686	1	5	0	n/a	n/a	n/a	n/a	n/a
3237.244	n/a	RECOG_RESP	1618622	n/a	LTP174	ltpFR	4	1	0	HANDKERCHIEF	686	1	n/a	0	n/a	n/a	n/a	n/a	n/a
3238.27	n/a	RECOG_CONF	1619135	n/a	LTP174	ltpFR	4	1	0	HANDKERCHIEF	686	n/a	5	0	n/a	n/a	n/a	n/a	n/a
3240.202	n/a	RECOG_TARGET	1620101	n/a	LTP174	ltpFR	4	1	0	SALIVA	1226	1	5	0	n/a	n/a	n/a	n/a	n/a
3240.81	n/a	RECOG_RESP	1620405	n/a	LTP174	ltpFR	4	1	0	SALIVA	1226	1	n/a	0	n/a	n/a	n/a	n/a	n/a
3241.84	n/a	RECOG_CONF	1620920	n/a	LTP174	ltpFR	4	1	0	SALIVA	1226	n/a	5	0	n/a	n/a	n/a	n/a	n/a
3244.014	n/a	RECOG_LURE	1622007	n/a	LTP174	ltpFR	4	1	n/a	LOAF	835	0	5	n/a	n/a	n/a	n/a	n/a	n/a
3244.944	n/a	RECOG_RESP	1622472	n/a	LTP174	ltpFR	4	1	n/a	LOAF	835	0	n/a	n/a	n/a	n/a	n/a	n/a	n/a
3245.858	n/a	RECOG_CONF	1622929	n/a	LTP174	ltpFR	4	1	n/a	LOAF	835	n/a	5	n/a	n/a	n/a	n/a	n/a	n/a
3247.774	n/a	RECOG_TARGET	1623887	n/a	LTP174	ltpFR	4	1	1	FOLDER	588	0	4	0	n/a	n/a	n/a	n/a	n/a
3249.422	n/a	RECOG_RESP	1624711	n/a	LTP174	ltpFR	4	1	1	FOLDER	588	0	n/a	0	n/a	n/a	n/a	n/a	n/a
3250.95	n/a	RECOG_CONF	1625475	n/a	LTP174	ltpFR	4	1	1	FOLDER	588	n/a	4	0	n/a	n/a	n/a	n/a	n/a
3252.634	n/a	RECOG_TARGET	1626317	n/a	LTP174	ltpFR	4	1	1	GIRAFFE	636	1	5	1	n/a	n/a	n/a	n/a	n/a
3253.358	n/a	RECOG_RESP	1626679	n/a	LTP174	ltpFR	4	1	1	GIRAFFE	636	1	n/a	1	n/a	n/a	n/a	n/a	n/a
3254.372	n/a	RECOG_CONF	1627186	n/a	LTP174	ltpFR	4	1	1	GIRAFFE	636	n/a	5	1	n/a	n/a	n/a	n/a	n/a
3256.112	n/a	RECOG_TARGET	1628056	n/a	LTP174	ltpFR	4	1	-1	PASSAGE	1019	1	5	-1	n/a	n/a	n/a	n/a	n/a
3257.93	n/a	RECOG_RESP	1628965	n/a	LTP174	ltpFR	4	1	-1	PASSAGE	1019	1	n/a	-1	n/a	n/a	n/a	n/a	n/a
3259.072	n/a	RECOG_CONF	1629536	n/a	LTP174	ltpFR	4	1	-1	PASSAGE	1019	n/a	5	-1	n/a	n/a	n/a	n/a	n/a
3260.888	n/a	RECOG_TARGET	1630444	n/a	LTP174	ltpFR	4	1	1	FLAG	573	1	5	0	n/a	n/a	n/a	n/a	n/a
3261.632	n/a	RECOG_RESP	1630816	n/a	LTP174	ltpFR	4	1	1	FLAG	573	1	n/a	0	n/a	n/a	n/a	n/a	n/a
3262.614	n/a	RECOG_CONF	1631307	n/a	LTP174	ltpFR	4	1	1	FLAG	573	n/a	5	0	n/a	n/a	n/a	n/a	n/a
3264.5	n/a	RECOG_TARGET	1632250	n/a	LTP174	ltpFR	4	1	0	HARE	688	1	5	1	n/a	n/a	n/a	n/a	n/a
3265.178	n/a	RECOG_RESP	1632589	n/a	LTP174	ltpFR	4	1	0	HARE	688	1	n/a	1	n/a	n/a	n/a	n/a	n/a
3266.28	n/a	RECOG_CONF	1633140	n/a	LTP174	ltpFR	4	1	0	HARE	688	n/a	5	1	n/a	n/a	n/a	n/a	n/a
3268.294	n/a	RECOG_LURE	1634147	n/a	LTP174	ltpFR	4	1	n/a	TULIP	1517	0	2	n/a	n/a	n/a	n/a	n/a	n/a
3271.27	n/a	RECOG_RESP_VV	1635635	n/a	LTP174	ltpFR	4	1	n/a	TULIP	1517	1	n/a	n/a	n/a	n/a	n/a	n/a	n/a
3272.248	n/a	RECOG_RESP	1636124	n/a	LTP174	ltpFR	4	1	n/a	TULIP	1517	0	n/a	n/a	n/a	n/a	n/a	n/a	n/a
3274.088	n/a	RECOG_CONF	1637044	n/a	LTP174	ltpFR	4	1	n/a	TULIP	1517	n/a	2	n/a	n/a	n/a	n/a	n/a	n/a
3275.766	n/a	RECOG_LURE	1637883	n/a	LTP174	ltpFR	4	1	n/a	CHAMBER	277	0	5	n/a	n/a	n/a	n/a	n/a	n/a
3276.626	n/a	RECOG_RESP	1638313	n/a	LTP174	ltpFR	4	1	n/a	CHAMBER	277	0	n/a	n/a	n/a	n/a	n/a	n/a	n/a
3277.714	n/a	RECOG_CONF	1638857	n/a	LTP174	ltpFR	4	1	n/a	CHAMBER	277	n/a	5	n/a	n/a	n/a	n/a	n/a	n/a
3279.644	n/a	RECOG_TARGET	1639822	n/a	LTP174	ltpFR	4	1	1	SAND	1230	1	5	0	n/a	n/a	n/a	n/a	n/a
3280.384	n/a	RECOG_RESP	1640192	n/a	LTP174	ltpFR	4	1	1	SAND	1230	1	n/a	0	n/a	n/a	n/a	n/a	n/a
3281.6	n/a	RECOG_CONF	1640800	n/a	LTP174	ltpFR	4	1	1	SAND	1230	n/a	5	0	n/a	n/a	n/a	n/a	n/a
3283.454	n/a	RECOG_LURE	1641727	n/a	LTP174	ltpFR	4	1	n/a	TUXEDO	1525	0	5	n/a	n/a	n/a	n/a	n/a	n/a
3284.376	n/a	RECOG_RESP	1642188	n/a	LTP174	ltpFR	4	1	n/a	TUXEDO	1525	0	n/a	n/a	n/a	n/a	n/a	n/a	n/a
3285.234	n/a	RECOG_CONF	1642617	n/a	LTP174	ltpFR	4	1	n/a	TUXEDO	1525	n/a	5	n/a	n/a	n/a	n/a	n/a	n/a
3287.132	n/a	RECOG_LURE	1643566	n/a	LTP174	ltpFR	4	1	n/a	SOCKET	1340	0	5	n/a	n/a	n/a	n/a	n/a	n/a
3288.194	n/a	RECOG_RESP	1644097	n/a	LTP174	ltpFR	4	1	n/a	SOCKET	1340	0	n/a	n/a	n/a	n/a	n/a	n/a	n/a
3288.998	n/a	RECOG_CONF	1644499	n/a	LTP174	ltpFR	4	1	n/a	SOCKET	1340	n/a	5	n/a	n/a	n/a	n/a	n/a	n/a
3325.618	n/a	REC_START	1662809	n/a	LTP174	ltpFR	4	2	n/a	n/a	n/a	n/a	n/a	n/a	n/a	n/a	n/a	n/a	n/a
3325.642	n/a	RECOG_LURE	1662821	n/a	LTP174	ltpFR	4	2	n/a	BULB	192	0	5	n/a	n/a	n/a	n/a	n/a	n/a
3327.342	n/a	RECOG_RESP	1663671	n/a	LTP174	ltpFR	4	2	n/a	BULB	192	0	n/a	n/a	n/a	n/a	n/a	n/a	n/a
3328.27	n/a	RECOG_CONF	1664135	n/a	LTP174	ltpFR	4	2	n/a	BULB	192	n/a	5	n/a	n/a	n/a	n/a	n/a	n/a
3330.07	n/a	RECOG_TARGET	1665035	n/a	LTP174	ltpFR	4	2	1	MAMMAL	861	1	5	1	n/a	n/a	n/a	n/a	n/a
3330.992	n/a	RECOG_RESP	1665496	n/a	LTP174	ltpFR	4	2	1	MAMMAL	861	1	n/a	1	n/a	n/a	n/a	n/a	n/a
3331.744	n/a	RECOG_CONF	1665872	n/a	LTP174	ltpFR	4	2	1	MAMMAL	861	n/a	5	1	n/a	n/a	n/a	n/a	n/a
3333.382	n/a	RECOG_LURE	1666691	n/a	LTP174	ltpFR	4	2	n/a	PLANET	1082	0	5	n/a	n/a	n/a	n/a	n/a	n/a
3334.194	n/a	RECOG_RESP	1667097	n/a	LTP174	ltpFR	4	2	n/a	PLANET	1082	0	n/a	n/a	n/a	n/a	n/a	n/a	n/a
3334.988	n/a	RECOG_CONF	1667494	n/a	LTP174	ltpFR	4	2	n/a	PLANET	1082	n/a	5	n/a	n/a	n/a	n/a	n/a	n/a
3336.776	n/a	RECOG_LURE	1668388	n/a	LTP174	ltpFR	4	2	n/a	SIREN	1310	0	5	n/a	n/a	n/a	n/a	n/a	n/a
3337.436	n/a	RECOG_RESP	1668718	n/a	LTP174	ltpFR	4	2	n/a	SIREN	1310	0	n/a	n/a	n/a	n/a	n/a	n/a	n/a
3338.17	n/a	RECOG_CONF	1669085	n/a	LTP174	ltpFR	4	2	n/a	SIREN	1310	n/a	5	n/a	n/a	n/a	n/a	n/a	n/a
3339.806	n/a	RECOG_TARGET	1669903	n/a	LTP174	ltpFR	4	2	1	BISON	131	1	5	0	n/a	n/a	n/a	n/a	n/a
3340.388	n/a	RECOG_RESP	1670194	n/a	LTP174	ltpFR	4	2	1	BISON	131	1	n/a	0	n/a	n/a	n/a	n/a	n/a
3341.226	n/a	RECOG_CONF	1670613	n/a	LTP174	ltpFR	4	2	1	BISON	131	n/a	5	0	n/a	n/a	n/a	n/a	n/a
3342.95	n/a	RECOG_TARGET	1671475	n/a	LTP174	ltpFR	4	2	1	SHARK	1275	1	5	1	n/a	n/a	n/a	n/a	n/a
3343.604	n/a	RECOG_RESP	1671802	n/a	LTP174	ltpFR	4	2	1	SHARK	1275	1	n/a	1	n/a	n/a	n/a	n/a	n/a
3344.452	n/a	RECOG_CONF	1672226	n/a	LTP174	ltpFR	4	2	1	SHARK	1275	n/a	5	1	n/a	n/a	n/a	n/a	n/a
3346.244	n/a	RECOG_LURE	1673122	n/a	LTP174	ltpFR	4	2	n/a	LADY	794	0	5	n/a	n/a	n/a	n/a	n/a	n/a
3346.998	n/a	RECOG_RESP	1673499	n/a	LTP174	ltpFR	4	2	n/a	LADY	794	0	n/a	n/a	n/a	n/a	n/a	n/a	n/a
3347.702	n/a	RECOG_CONF	1673851	n/a	LTP174	ltpFR	4	2	n/a	LADY	794	n/a	5	n/a	n/a	n/a	n/a	n/a	n/a
3349.608	n/a	RECOG_TARGET	1674804	n/a	LTP174	ltpFR	4	2	1	DIVER	476	1	5	1	n/a	n/a	n/a	n/a	n/a
3350.174	n/a	RECOG_RESP	1675087	n/a	LTP174	ltpFR	4	2	1	DIVER	476	1	n/a	1	n/a	n/a	n/a	n/a	n/a
3350.868	n/a	RECOG_CONF	1675434	n/a	LTP174	ltpFR	4	2	1	DIVER	476	n/a	5	1	n/a	n/a	n/a	n/a	n/a
3352.752	n/a	RECOG_LURE	1676376	n/a	LTP174	ltpFR	4	2	n/a	EWE	542	0	5	n/a	n/a	n/a	n/a	n/a	n/a
3353.404	n/a	RECOG_RESP	1676702	n/a	LTP174	ltpFR	4	2	n/a	EWE	542	0	n/a	n/a	n/a	n/a	n/a	n/a	n/a
3354.168	n/a	RECOG_CONF	1677084	n/a	LTP174	ltpFR	4	2	n/a	EWE	542	n/a	5	n/a	n/a	n/a	n/a	n/a	n/a
3355.864	n/a	RECOG_LURE	1677932	n/a	LTP174	ltpFR	4	2	n/a	SLIME	1327	0	4	n/a	n/a	n/a	n/a	n/a	n/a
3356.848	n/a	RECOG_RESP	1678424	n/a	LTP174	ltpFR	4	2	n/a	SLIME	1327	0	n/a	n/a	n/a	n/a	n/a	n/a	n/a
3357.662	n/a	RECOG_CONF	1678831	n/a	LTP174	ltpFR	4	2	n/a	SLIME	1327	n/a	4	n/a	n/a	n/a	n/a	n/a	n/a
3359.142	n/a	RECOG_LURE	1679571	n/a	LTP174	ltpFR	4	2	n/a	TOMB	1477	0	5	n/a	n/a	n/a	n/a	n/a	n/a
3359.738	n/a	RECOG_RESP	1679869	n/a	LTP174	ltpFR	4	2	n/a	TOMB	1477	0	n/a	n/a	n/a	n/a	n/a	n/a	n/a
3360.53	n/a	RECOG_CONF	1680265	n/a	LTP174	ltpFR	4	2	n/a	TOMB	1477	n/a	5	n/a	n/a	n/a	n/a	n/a	n/a
3362.254	n/a	RECOG_TARGET	1681127	n/a	LTP174	ltpFR	4	2	0	FARM	552	1	5	1	n/a	n/a	n/a	n/a	n/a
3362.85	n/a	RECOG_RESP	1681425	n/a	LTP174	ltpFR	4	2	0	FARM	552	1	n/a	1	n/a	n/a	n/a	n/a	n/a
3363.51	n/a	RECOG_CONF	1681755	n/a	LTP174	ltpFR	4	2	0	FARM	552	n/a	5	1	n/a	n/a	n/a	n/a	n/a
3365.366	n/a	RECOG_TARGET	1682683	n/a	LTP174	ltpFR	4	2	1	SKIRT	1319	1	5	0	n/a	n/a	n/a	n/a	n/a
3366.012	n/a	RECOG_RESP	1683006	n/a	LTP174	ltpFR	4	2	1	SKIRT	1319	1	n/a	0	n/a	n/a	n/a	n/a	n/a
3366.772	n/a	RECOG_CONF	1683386	n/a	LTP174	ltpFR	4	2	1	SKIRT	1319	n/a	5	0	n/a	n/a	n/a	n/a	n/a
3368.312	n/a	RECOG_TARGET	1684156	n/a	LTP174	ltpFR	4	2	0	CELLO	268	1	5	1	n/a	n/a	n/a	n/a	n/a
3368.944	n/a	RECOG_RESP	1684472	n/a	LTP174	ltpFR	4	2	0	CELLO	268	1	n/a	1	n/a	n/a	n/a	n/a	n/a
3369.724	n/a	RECOG_CONF	1684862	n/a	LTP174	ltpFR	4	2	0	CELLO	268	n/a	5	1	n/a	n/a	n/a	n/a	n/a
3371.442	n/a	RECOG_TARGET	1685721	n/a	LTP174	ltpFR	4	2	-1	TOILET	1475	0	4	-1	n/a	n/a	n/a	n/a	n/a
3372.654	n/a	RECOG_RESP	1686327	n/a	LTP174	ltpFR	4	2	-1	TOILET	1475	0	n/a	-1	n/a	n/a	n/a	n/a	n/a
3373.488	n/a	RECOG_CONF	1686744	n/a	LTP174	ltpFR	4	2	-1	TOILET	1475	n/a	4	-1	n/a	n/a	n/a	n/a	n/a
3375.302	n/a	RECOG_LURE	1687651	n/a	LTP174	ltpFR	4	2	n/a	HIP	710	0	5	n/a	n/a	n/a	n/a	n/a	n/a
3377.22	n/a	RECOG_RESP	1688610	n/a	LTP174	ltpFR	4	2	n/a	HIP	710	0	n/a	n/a	n/a	n/a	n/a	n/a	n/a
3378.204	n/a	RECOG_CONF	1689102	n/a	LTP174	ltpFR	4	2	n/a	HIP	710	n/a	5	n/a	n/a	n/a	n/a	n/a	n/a
3379.896	n/a	RECOG_TARGET	1689948	n/a	LTP174	ltpFR	4	2	1	SALOON	1228	1	5	0	n/a	n/a	n/a	n/a	n/a
3380.554	n/a	RECOG_RESP	1690277	n/a	LTP174	ltpFR	4	2	1	SALOON	1228	1	n/a	0	n/a	n/a	n/a	n/a	n/a
3381.374	n/a	RECOG_CONF	1690687	n/a	LTP174	ltpFR	4	2	1	SALOON	1228	n/a	5	0	n/a	n/a	n/a	n/a	n/a
3383.158	n/a	RECOG_TARGET	1691579	n/a	LTP174	ltpFR	4	2	1	FARMER	553	0	1	1	n/a	n/a	n/a	n/a	n/a
3384.392	n/a	RECOG_RESP	1692196	n/a	LTP174	ltpFR	4	2	1	FARMER	553	0	n/a	1	n/a	n/a	n/a	n/a	n/a
3386.836	n/a	RECOG_CONF	1693418	n/a	LTP174	ltpFR	4	2	1	FARMER	553	n/a	1	1	n/a	n/a	n/a	n/a	n/a
3388.416	n/a	RECOG_TARGET	1694208	n/a	LTP174	ltpFR	4	2	0	DIRT	472	1	5	0	n/a	n/a	n/a	n/a	n/a
3390.74	n/a	RECOG_RESP	1695370	n/a	LTP174	ltpFR	4	2	0	DIRT	472	1	n/a	0	n/a	n/a	n/a	n/a	n/a
3391.942	n/a	RECOG_CONF	1695971	n/a	LTP174	ltpFR	4	2	0	DIRT	472	n/a	5	0	n/a	n/a	n/a	n/a	n/a
3393.56	n/a	RECOG_TARGET	1696780	n/a	LTP174	ltpFR	4	2	0	HERB	704	1	5	0	n/a	n/a	n/a	n/a	n/a
3394.262	n/a	RECOG_RESP	1697131	n/a	LTP174	ltpFR	4	2	0	HERB	704	1	n/a	0	n/a	n/a	n/a	n/a	n/a
3395.076	n/a	RECOG_CONF	1697538	n/a	LTP174	ltpFR	4	2	0	HERB	704	n/a	5	0	n/a	n/a	n/a	n/a	n/a
3401.036	n/a	REC_START	1700518	n/a	LTP174	ltpFR	4	3	n/a	n/a	n/a	n/a	n/a	n/a	n/a	n/a	n/a	n/a	n/a
3401.064	n/a	RECOG_TARGET	1700532	n/a	LTP174	ltpFR	4	3	-1	BRIDGE	174	1	5	-1	n/a	n/a	n/a	n/a	n/a
3402.062	n/a	RECOG_RESP	1701031	n/a	LTP174	ltpFR	4	3	-1	BRIDGE	174	1	n/a	-1	n/a	n/a	n/a	n/a	n/a
3402.92	n/a	RECOG_CONF	1701460	n/a	LTP174	ltpFR	4	3	-1	BRIDGE	174	n/a	5	-1	n/a	n/a	n/a	n/a	n/a
3404.46	n/a	RECOG_LURE	1702230	n/a	LTP174	ltpFR	4	3	n/a	MEDAL	885	0	5	n/a	n/a	n/a	n/a	n/a	n/a
3405.644	n/a	RECOG_RESP	1702822	n/a	LTP174	ltpFR	4	3	n/a	MEDAL	885	0	n/a	n/a	n/a	n/a	n/a	n/a	n/a
3406.398	n/a	RECOG_CONF	1703199	n/a	LTP174	ltpFR	4	3	n/a	MEDAL	885	n/a	5	n/a	n/a	n/a	n/a	n/a	n/a
3407.988	n/a	RECOG_TARGET	1703994	n/a	LTP174	ltpFR	4	3	1	TYPIST	1532	1	5	0	n/a	n/a	n/a	n/a	n/a
3408.632	n/a	RECOG_RESP	1704316	n/a	LTP174	ltpFR	4	3	1	TYPIST	1532	1	n/a	0	n/a	n/a	n/a	n/a	n/a
3409.292	n/a	RECOG_CONF	1704646	n/a	LTP174	ltpFR	4	3	1	TYPIST	1532	n/a	5	0	n/a	n/a	n/a	n/a	n/a
3411.016	n/a	RECOG_LURE	1705508	n/a	LTP174	ltpFR	4	3	n/a	ASPIRIN	47	0	5	n/a	n/a	n/a	n/a	n/a	n/a
3411.718	n/a	RECOG_RESP	1705859	n/a	LTP174	ltpFR	4	3	n/a	ASPIRIN	47	0	n/a	n/a	n/a	n/a	n/a	n/a	n/a
3412.454	n/a	RECOG_CONF	1706227	n/a	LTP174	ltpFR	4	3	n/a	ASPIRIN	47	n/a	5	n/a	n/a	n/a	n/a	n/a	n/a
3414.012	n/a	RECOG_TARGET	1707006	n/a	LTP174	ltpFR	4	3	1	TURKEY	1520	1	5	0	n/a	n/a	n/a	n/a	n/a
3414.586	n/a	RECOG_RESP	1707293	n/a	LTP174	ltpFR	4	3	1	TURKEY	1520	1	n/a	0	n/a	n/a	n/a	n/a	n/a
3415.322	n/a	RECOG_CONF	1707661	n/a	LTP174	ltpFR	4	3	1	TURKEY	1520	n/a	5	0	n/a	n/a	n/a	n/a	n/a
3416.89	n/a	RECOG_LURE	1708445	n/a	LTP174	ltpFR	4	3	n/a	SKI	1316	0	5	n/a	n/a	n/a	n/a	n/a	n/a
3418.028	n/a	RECOG_RESP	1709014	n/a	LTP174	ltpFR	4	3	n/a	SKI	1316	0	n/a	n/a	n/a	n/a	n/a	n/a	n/a
3418.634	n/a	RECOG_CONF	1709317	n/a	LTP174	ltpFR	4	3	n/a	SKI	1316	n/a	5	n/a	n/a	n/a	n/a	n/a	n/a
3420.352	n/a	RECOG_LURE	1710176	n/a	LTP174	ltpFR	4	3	n/a	SACK	1220	0	5	n/a	n/a	n/a	n/a	n/a	n/a
3421.048	n/a	RECOG_RESP	1710524	n/a	LTP174	ltpFR	4	3	n/a	SACK	1220	0	n/a	n/a	n/a	n/a	n/a	n/a	n/a
3421.714	n/a	RECOG_CONF	1710857	n/a	LTP174	ltpFR	4	3	n/a	SACK	1220	n/a	5	n/a	n/a	n/a	n/a	n/a	n/a
3423.314	n/a	RECOG_LURE	1711657	n/a	LTP174	ltpFR	4	3	n/a	BASKET	95	0	3	n/a	n/a	n/a	n/a	n/a	n/a
3425.214	n/a	RECOG_RESP	1712607	n/a	LTP174	ltpFR	4	3	n/a	BASKET	95	0	n/a	n/a	n/a	n/a	n/a	n/a	n/a
3426.294	n/a	RECOG_CONF	1713147	n/a	LTP174	ltpFR	4	3	n/a	BASKET	95	n/a	3	n/a	n/a	n/a	n/a	n/a	n/a
3427.908	n/a	RECOG_TARGET	1713954	n/a	LTP174	ltpFR	4	3	0	BROTHER	179	1	5	1	n/a	n/a	n/a	n/a	n/a
3428.798	n/a	RECOG_RESP	1714399	n/a	LTP174	ltpFR	4	3	0	BROTHER	179	1	n/a	1	n/a	n/a	n/a	n/a	n/a
3429.378	n/a	RECOG_CONF	1714689	n/a	LTP174	ltpFR	4	3	0	BROTHER	179	n/a	5	1	n/a	n/a	n/a	n/a	n/a
3430.904	n/a	RECOG_LURE	1715452	n/a	LTP174	ltpFR	4	3	n/a	CHEST	295	0	5	n/a	n/a	n/a	n/a	n/a	n/a
3433.558	n/a	RECOG_RESP	1716779	n/a	LTP174	ltpFR	4	3	n/a	CHEST	295	0	n/a	n/a	n/a	n/a	n/a	n/a	n/a
3434.184	n/a	RECOG_CONF	1717092	n/a	LTP174	ltpFR	4	3	n/a	CHEST	295	n/a	5	n/a	n/a	n/a	n/a	n/a	n/a
3435.862	n/a	RECOG_TARGET	1717931	n/a	LTP174	ltpFR	4	3	0	CINNAMON	310	1	5	1	n/a	n/a	n/a	n/a	n/a
3436.63	n/a	RECOG_RESP	1718315	n/a	LTP174	ltpFR	4	3	0	CINNAMON	310	1	n/a	1	n/a	n/a	n/a	n/a	n/a
3437.376	n/a	RECOG_CONF	1718688	n/a	LTP174	ltpFR	4	3	0	CINNAMON	310	n/a	5	1	n/a	n/a	n/a	n/a	n/a
3438.808	n/a	RECOG_LURE	1719404	n/a	LTP174	ltpFR	4	3	n/a	ROBOT	1200	0	5	n/a	n/a	n/a	n/a	n/a	n/a
3439.558	n/a	RECOG_RESP	1719779	n/a	LTP174	ltpFR	4	3	n/a	ROBOT	1200	0	n/a	n/a	n/a	n/a	n/a	n/a	n/a
3440.16	n/a	RECOG_CONF	1720080	n/a	LTP174	ltpFR	4	3	n/a	ROBOT	1200	n/a	5	n/a	n/a	n/a	n/a	n/a	n/a
3441.854	n/a	RECOG_TARGET	1720927	n/a	LTP174	ltpFR	4	3	0	SEAFOOD	1260	1	5	0	n/a	n/a	n/a	n/a	n/a
3442.82	n/a	RECOG_RESP	1721410	n/a	LTP174	ltpFR	4	3	0	SEAFOOD	1260	1	n/a	0	n/a	n/a	n/a	n/a	n/a
3443.836	n/a	RECOG_CONF	1721918	n/a	LTP174	ltpFR	4	3	0	SEAFOOD	1260	n/a	5	0	n/a	n/a	n/a	n/a	n/a
3445.532	n/a	RECOG_LURE	1722766	n/a	LTP174	ltpFR	4	3	n/a	SEASHORE	1263	0	5	n/a	n/a	n/a	n/a	n/a	n/a
3446.37	n/a	RECOG_RESP	1723185	n/a	LTP174	ltpFR	4	3	n/a	SEASHORE	1263	0	n/a	n/a	n/a	n/a	n/a	n/a	n/a
3446.976	n/a	RECOG_CONF	1723488	n/a	LTP174	ltpFR	4	3	n/a	SEASHORE	1263	n/a	5	n/a	n/a	n/a	n/a	n/a	n/a
3448.778	n/a	RECOG_LURE	1724389	n/a	LTP174	ltpFR	4	3	n/a	PARSLEY	1016	0	5	n/a	n/a	n/a	n/a	n/a	n/a
3449.738	n/a	RECOG_RESP	1724869	n/a	LTP174	ltpFR	4	3	n/a	PARSLEY	1016	0	n/a	n/a	n/a	n/a	n/a	n/a	n/a
3450.438	n/a	RECOG_CONF	1725219	n/a	LTP174	ltpFR	4	3	n/a	PARSLEY	1016	n/a	5	n/a	n/a	n/a	n/a	n/a	n/a
3452.156	n/a	RECOG_LURE	1726078	n/a	LTP174	ltpFR	4	3	n/a	OUTFIT	988	0	5	n/a	n/a	n/a	n/a	n/a	n/a
3456.144	n/a	RECOG_RESP	1728072	n/a	LTP174	ltpFR	4	3	n/a	OUTFIT	988	0	n/a	n/a	n/a	n/a	n/a	n/a	n/a
3456.982	n/a	RECOG_CONF	1728491	n/a	LTP174	ltpFR	4	3	n/a	OUTFIT	988	n/a	5	n/a	n/a	n/a	n/a	n/a	n/a
3458.712	n/a	RECOG_TARGET	1729356	n/a	LTP174	ltpFR	4	3	1	RADISH	1158	1	5	1	n/a	n/a	n/a	n/a	n/a
3459.742	n/a	RECOG_RESP	1729871	n/a	LTP174	ltpFR	4	3	1	RADISH	1158	1	n/a	1	n/a	n/a	n/a	n/a	n/a
3460.624	n/a	RECOG_CONF	1730312	n/a	LTP174	ltpFR	4	3	1	RADISH	1158	n/a	5	1	n/a	n/a	n/a	n/a	n/a
3462.408	n/a	RECOG_TARGET	1731204	n/a	LTP174	ltpFR	4	3	0	SILVERWARE	1308	1	5	0	n/a	n/a	n/a	n/a	n/a
3463.044	n/a	RECOG_RESP	1731522	n/a	LTP174	ltpFR	4	3	0	SILVERWARE	1308	1	n/a	0	n/a	n/a	n/a	n/a	n/a
3463.976	n/a	RECOG_CONF	1731988	n/a	LTP174	ltpFR	4	3	0	SILVERWARE	1308	n/a	5	0	n/a	n/a	n/a	n/a	n/a
3465.868	n/a	RECOG_TARGET	1732934	n/a	LTP174	ltpFR	4	3	0	ARM	38	1	5	0	n/a	n/a	n/a	n/a	n/a
3466.54	n/a	RECOG_RESP	1733270	n/a	LTP174	ltpFR	4	3	0	ARM	38	1	n/a	0	n/a	n/a	n/a	n/a	n/a
3467.45	n/a	RECOG_CONF	1733725	n/a	LTP174	ltpFR	4	3	0	ARM	38	n/a	5	0	n/a	n/a	n/a	n/a	n/a
3469.23	n/a	RECOG_TARGET	1734615	n/a	LTP174	ltpFR	4	3	0	MICROPHONE	890	1	5	0	n/a	n/a	n/a	n/a	n/a
3469.822	n/a	RECOG_RESP	1734911	n/a	LTP174	ltpFR	4	3	0	MICROPHONE	890	1	n/a	0	n/a	n/a	n/a	n/a	n/a
3470.722	n/a	RECOG_CONF	1735361	n/a	LTP174	ltpFR	4	3	0	MICROPHONE	890	n/a	5	0	n/a	n/a	n/a	n/a	n/a
3474.66	n/a	REC_START	1737330	n/a	LTP174	ltpFR	4	4	n/a	n/a	n/a	n/a	n/a	n/a	n/a	n/a	n/a	n/a	n/a
3474.688	n/a	RECOG_TARGET	1737344	n/a	LTP174	ltpFR	4	4	1	PORCUPINE	1107	1	5	1	n/a	n/a	n/a	n/a	n/a
3475.374	n/a	RECOG_RESP	1737687	n/a	LTP174	ltpFR	4	4	1	PORCUPINE	1107	1	n/a	1	n/a	n/a	n/a	n/a	n/a
3476.226	n/a	RECOG_CONF	1738113	n/a	LTP174	ltpFR	4	4	1	PORCUPINE	1107	n/a	5	1	n/a	n/a	n/a	n/a	n/a
3478.182	n/a	RECOG_TARGET	1739091	n/a	LTP174	ltpFR	4	4	-1	PUMP	1141	1	5	-1	n/a	n/a	n/a	n/a	n/a
3478.99	n/a	RECOG_RESP	1739495	n/a	LTP174	ltpFR	4	4	-1	PUMP	1141	1	n/a	-1	n/a	n/a	n/a	n/a	n/a
3479.694	n/a	RECOG_CONF	1739847	n/a	LTP174	ltpFR	4	4	-1	PUMP	1141	n/a	5	-1	n/a	n/a	n/a	n/a	n/a
3481.678	n/a	RECOG_TARGET	1740839	n/a	LTP174	ltpFR	4	4	0	EDITOR	516	1	5	1	n/a	n/a	n/a	n/a	n/a
3482.398	n/a	RECOG_RESP	1741199	n/a	LTP174	ltpFR	4	4	0	EDITOR	516	1	n/a	1	n/a	n/a	n/a	n/a	n/a
3483.094	n/a	RECOG_CONF	1741547	n/a	LTP174	ltpFR	4	4	0	EDITOR	516	n/a	5	1	n/a	n/a	n/a	n/a	n/a
3484.874	n/a	RECOG_LURE	1742437	n/a	LTP174	ltpFR	4	4	n/a	HOOD	714	0	4	n/a	n/a	n/a	n/a	n/a	n/a
3486.696	n/a	RECOG_RESP	1743348	n/a	LTP174	ltpFR	4	4	n/a	HOOD	714	0	n/a	n/a	n/a	n/a	n/a	n/a	n/a
3487.504	n/a	RECOG_CONF	1743752	n/a	LTP174	ltpFR	4	4	n/a	HOOD	714	n/a	4	n/a	n/a	n/a	n/a	n/a	n/a
3489.416	n/a	RECOG_TARGET	1744708	n/a	LTP174	ltpFR	4	4	0	FOOT	590	1	5	0	n/a	n/a	n/a	n/a	n/a
3490.596	n/a	RECOG_RESP	1745298	n/a	LTP174	ltpFR	4	4	0	FOOT	590	1	n/a	0	n/a	n/a	n/a	n/a	n/a
3491.468	n/a	RECOG_CONF	1745734	n/a	LTP174	ltpFR	4	4	0	FOOT	590	n/a	5	0	n/a	n/a	n/a	n/a	n/a
3493.112	n/a	RECOG_TARGET	1746556	n/a	LTP174	ltpFR	4	4	-1	ANGEL	22	1	5	-1	n/a	n/a	n/a	n/a	n/a
3493.822	n/a	RECOG_RESP	1746911	n/a	LTP174	ltpFR	4	4	-1	ANGEL	22	1	n/a	-1	n/a	n/a	n/a	n/a	n/a
3494.728	n/a	RECOG_CONF	1747364	n/a	LTP174	ltpFR	4	4	-1	ANGEL	22	n/a	5	-1	n/a	n/a	n/a	n/a	n/a
3496.49	n/a	RECOG_LURE	1748245	n/a	LTP174	ltpFR	4	4	n/a	FEMALE	559	0	5	n/a	n/a	n/a	n/a	n/a	n/a
3497.312	n/a	RECOG_RESP	1748656	n/a	LTP174	ltpFR	4	4	n/a	FEMALE	559	0	n/a	n/a	n/a	n/a	n/a	n/a	n/a
3498.078	n/a	RECOG_CONF	1749039	n/a	LTP174	ltpFR	4	4	n/a	FEMALE	559	n/a	5	n/a	n/a	n/a	n/a	n/a	n/a
3499.752	n/a	RECOG_TARGET	1749876	n/a	LTP174	ltpFR	4	4	0	GORILLA	650	1	5	1	n/a	n/a	n/a	n/a	n/a
3500.564	n/a	RECOG_RESP	1750282	n/a	LTP174	ltpFR	4	4	0	GORILLA	650	1	n/a	1	n/a	n/a	n/a	n/a	n/a
3501.424	n/a	RECOG_CONF	1750712	n/a	LTP174	ltpFR	4	4	0	GORILLA	650	n/a	5	1	n/a	n/a	n/a	n/a	n/a
3503.064	n/a	RECOG_TARGET	1751532	n/a	LTP174	ltpFR	4	4	0	FEATHER	557	1	5	1	n/a	n/a	n/a	n/a	n/a
3503.708	n/a	RECOG_RESP	1751854	n/a	LTP174	ltpFR	4	4	0	FEATHER	557	1	n/a	1	n/a	n/a	n/a	n/a	n/a
3504.558	n/a	RECOG_CONF	1752279	n/a	LTP174	ltpFR	4	4	0	FEATHER	557	n/a	5	1	n/a	n/a	n/a	n/a	n/a
3506.274	n/a	RECOG_TARGET	1753137	n/a	LTP174	ltpFR	4	4	1	VEGETABLE	1552	1	5	0	n/a	n/a	n/a	n/a	n/a
3506.974	n/a	RECOG_RESP	1753487	n/a	LTP174	ltpFR	4	4	1	VEGETABLE	1552	1	n/a	0	n/a	n/a	n/a	n/a	n/a
3507.794	n/a	RECOG_CONF	1753897	n/a	LTP174	ltpFR	4	4	1	VEGETABLE	1552	n/a	5	0	n/a	n/a	n/a	n/a	n/a
3509.404	n/a	RECOG_TARGET	1754702	n/a	LTP174	ltpFR	4	4	0	MARKET	871	1	4	1	n/a	n/a	n/a	n/a	n/a
3510.098	n/a	RECOG_RESP	1755049	n/a	LTP174	ltpFR	4	4	0	MARKET	871	1	n/a	1	n/a	n/a	n/a	n/a	n/a
3511.43	n/a	RECOG_CONF	1755715	n/a	LTP174	ltpFR	4	4	0	MARKET	871	n/a	4	1	n/a	n/a	n/a	n/a	n/a
3513.114	n/a	RECOG_LURE	1756557	n/a	LTP174	ltpFR	4	4	n/a	GRAVEL	659	0	3	n/a	n/a	n/a	n/a	n/a	n/a
3515.54	n/a	RECOG_RESP	1757770	n/a	LTP174	ltpFR	4	4	n/a	GRAVEL	659	0	n/a	n/a	n/a	n/a	n/a	n/a	n/a
3516.78	n/a	RECOG_CONF	1758390	n/a	LTP174	ltpFR	4	4	n/a	GRAVEL	659	n/a	3	n/a	n/a	n/a	n/a	n/a	n/a
3518.206	n/a	RECOG_LURE	1759103	n/a	LTP174	ltpFR	4	4	n/a	LASH	802	0	5	n/a	n/a	n/a	n/a	n/a	n/a
3519.09	n/a	RECOG_RESP	1759545	n/a	LTP174	ltpFR	4	4	n/a	LASH	802	0	n/a	n/a	n/a	n/a	n/a	n/a	n/a
3519.858	n/a	RECOG_CONF	1759929	n/a	LTP174	ltpFR	4	4	n/a	LASH	802	n/a	5	n/a	n/a	n/a	n/a	n/a	n/a
3521.754	n/a	RECOG_TARGET	1760877	n/a	LTP174	ltpFR	4	4	0	CANDLE	229	0	5	0	n/a	n/a	n/a	n/a	n/a
3522.452	n/a	RECOG_RESP	1761226	n/a	LTP174	ltpFR	4	4	0	CANDLE	229	0	n/a	0	n/a	n/a	n/a	n/a	n/a
3523.298	n/a	RECOG_CONF	1761649	n/a	LTP174	ltpFR	4	4	0	CANDLE	229	n/a	5	0	n/a	n/a	n/a	n/a	n/a
3525.032	n/a	RECOG_TARGET	1762516	n/a	LTP174	ltpFR	4	4	0	CLAM	315	1	5	0	n/a	n/a	n/a	n/a	n/a
3525.79	n/a	RECOG_RESP	1762895	n/a	LTP174	ltpFR	4	4	0	CLAM	315	1	n/a	0	n/a	n/a	n/a	n/a	n/a
3526.538	n/a	RECOG_CONF	1763269	n/a	LTP174	ltpFR	4	4	0	CLAM	315	n/a	5	0	n/a	n/a	n/a	n/a	n/a
3528.176	n/a	RECOG_TARGET	1764088	n/a	LTP174	ltpFR	4	4	-1	PHILOSOPHER	1054	1	5	-1	n/a	n/a	n/a	n/a	n/a
3528.994	n/a	RECOG_RESP	1764497	n/a	LTP174	ltpFR	4	4	-1	PHILOSOPHER	1054	1	n/a	-1	n/a	n/a	n/a	n/a	n/a
3530.048	n/a	RECOG_CONF	1765024	n/a	LTP174	ltpFR	4	4	-1	PHILOSOPHER	1054	n/a	5	-1	n/a	n/a	n/a	n/a	n/a
3531.754	n/a	RECOG_LURE	1765877	n/a	LTP174	ltpFR	4	4	n/a	APPENDAGE	32	0	5	n/a	n/a	n/a	n/a	n/a	n/a
