onset	duration	trial_type	sample	stim_file	subject	experiment	session	trial	task	item_name	item_num	recog_resp	recog_conf	resp	color_r	color_g	color_b	case	font
234.036	n/a	SESS_START	117018	n/a	LTP148	ltpFR	18	n/a	n/a	n/a	n/a	1	1	n/a	n/a	n/a	n/a	n/a	n/a
308.486	n/a	WORD	154243	wordpools/wasnorm_wordpool.txt	LTP148	ltpFR	18	1	1	INN	739	1	5	0	0.422607421875	0.5869140625	0	lower	zerothre.ttf
312.648	n/a	WORD	156324	wordpools/wasnorm_wordpool.txt	LTP148	ltpFR	18	1	1	CHEMIST	292	1	n/a	1	0.422607421875	0.5869140625	0	lower	zerothre.ttf
316.618	n/a	WORD	158309	wordpools/wasnorm_wordpool.txt	LTP148	ltpFR	18	1	1	SPAGHETTI	1346	n/a	n/a	0	0.422607421875	0.5869140625	0	lower	zerothre.ttf
320.698	n/a	WORD	160349	wordpools/wasnorm_wordpool.txt	LTP148	ltpFR	18	1	1	PASTA	1021	n/a	n/a	0	0.422607421875	0.5869140625	0	lower	zerothre.ttf
324.892	n/a	WORD	162446	wordpools/wasnorm_wordpool.txt	LTP148	ltpFR	18	1	0	DAISY	435	n/a	n/a	0	0.57763671875	0.412841796875	1	upper	amplitud.ttf
328.88	n/a	WORD	164440	wordpools/wasnorm_wordpool.txt	LTP148	ltpFR	18	1	0	POSSUM	1112	n/a	n/a	1	0.57763671875	0.412841796875	1	upper	amplitud.ttf
332.932	n/a	WORD	166466	wordpools/wasnorm_wordpool.txt	LTP148	ltpFR	18	1	0	MARGARINE	868	n/a	n/a	0	0.57763671875	0.412841796875	1	upper	amplitud.ttf
337.062	n/a	WORD	168531	wordpools/wasnorm_wordpool.txt	LTP148	ltpFR	18	1	0	POLICE	1098	n/a	n/a	1	0.57763671875	0.412841796875	1	upper	amplitud.ttf
340.99	n/a	WORD	170495	wordpools/wasnorm_wordpool.txt	LTP148	ltpFR	18	1	0	MILITARY	894	n/a	n/a	1	0.57763671875	0.412841796875	1	upper	amplitud.ttf
345.06	n/a	WORD	172530	wordpools/wasnorm_wordpool.txt	LTP148	ltpFR	18	1	0	UNIFORM	1539	n/a	n/a	1	0.57763671875	0.412841796875	1	upper	amplitud.ttf
348.872	n/a	WORD	174436	wordpools/wasnorm_wordpool.txt	LTP148	ltpFR	18	1	1	HIKER	708	n/a	n/a	1	0.422607421875	0.5869140625	0	lower	zerothre.ttf
352.71	n/a	WORD	176355	wordpools/wasnorm_wordpool.txt	LTP148	ltpFR	18	1	1	RADIATOR	1156	n/a	n/a	0	0.422607421875	0.5869140625	0	lower	zerothre.ttf
356.656	n/a	WORD	178328	wordpools/wasnorm_wordpool.txt	LTP148	ltpFR	18	1	1	ATOM	55	n/a	n/a	0	0.422607421875	0.5869140625	0	lower	zerothre.ttf
360.76	n/a	WORD	180380	wordpools/wasnorm_wordpool.txt	LTP148	ltpFR	18	1	1	MEADOW	881	n/a	n/a	1	0.422607421875	0.5869140625	0	lower	zerothre.ttf
364.772	n/a	WORD	182386	wordpools/wasnorm_wordpool.txt	LTP148	ltpFR	18	1	0	SHEEP	1278	n/a	n/a	1	0.57763671875	0.412841796875	1	upper	amplitud.ttf
368.658	n/a	WORD	184329	wordpools/wasnorm_wordpool.txt	LTP148	ltpFR	18	1	0	SIREN	1310	n/a	n/a	0	0.57763671875	0.412841796875	1	upper	amplitud.ttf
374.47	n/a	REC_START	187235	n/a	LTP148	ltpFR	18	1	n/a	n/a	n/a	n/a	n/a	n/a	n/a	n/a	n/a	n/a	n/a
375.742	n/a	REC_WORD	187871	wordpools/wasnorm_wordpool.txt	LTP148	ltpFR	18	1	0	DAISY	435	n/a	n/a	0	n/a	n/a	n/a	n/a	n/a
376.22	n/a	REC_WORD	188110	wordpools/wasnorm_wordpool.txt	LTP148	ltpFR	18	1	0	MARGARINE	868	n/a	n/a	0	n/a	n/a	n/a	n/a	n/a
377.212	n/a	REC_WORD	188606	wordpools/wasnorm_wordpool.txt	LTP148	ltpFR	18	1	0	SIREN	1310	n/a	n/a	0	n/a	n/a	n/a	n/a	n/a
379.024	n/a	REC_WORD	189512	wordpools/wasnorm_wordpool.txt	LTP148	ltpFR	18	1	0	POSSUM	1112	n/a	n/a	1	n/a	n/a	n/a	n/a	n/a
379.832	n/a	REC_WORD	189916	wordpools/wasnorm_wordpool.txt	LTP148	ltpFR	18	1	0	POLICE	1098	n/a	n/a	1	n/a	n/a	n/a	n/a	n/a
380.536	n/a	REC_WORD	190268	wordpools/wasnorm_wordpool.txt	LTP148	ltpFR	18	1	0	MILITARY	894	n/a	n/a	1	n/a	n/a	n/a	n/a	n/a
381.692	n/a	REC_WORD	190846	wordpools/wasnorm_wordpool.txt	LTP148	ltpFR	18	1	0	UNIFORM	1539	n/a	n/a	1	n/a	n/a	n/a	n/a	n/a
382.666	n/a	REC_WORD	191333	wordpools/wasnorm_wordpool.txt	LTP148	ltpFR	18	1	0	SHEEP	1278	n/a	n/a	1	n/a	n/a	n/a	n/a	n/a
384.326	n/a	REC_WORD	192163	wordpools/wasnorm_wordpool.txt	LTP148	ltpFR	18	1	1	MEADOW	881	n/a	n/a	1	n/a	n/a	n/a	n/a	n/a
385.26	n/a	REC_WORD	192630	wordpools/wasnorm_wordpool.txt	LTP148	ltpFR	18	1	1	SPAGHETTI	1346	n/a	n/a	0	n/a	n/a	n/a	n/a	n/a
386.072	n/a	REC_WORD	193036	wordpools/wasnorm_wordpool.txt	LTP148	ltpFR	18	1	1	PASTA	1021	n/a	n/a	0	n/a	n/a	n/a	n/a	n/a
386.94	n/a	REC_WORD	193470	wordpools/wasnorm_wordpool.txt	LTP148	ltpFR	18	1	1	INN	739	n/a	n/a	0	n/a	n/a	n/a	n/a	n/a
387.48	n/a	REC_WORD	193740	wordpools/wasnorm_wordpool.txt	LTP148	ltpFR	18	1	1	CHEMIST	292	n/a	n/a	1	n/a	n/a	n/a	n/a	n/a
388.382	n/a	REC_WORD	194191	wordpools/wasnorm_wordpool.txt	LTP148	ltpFR	18	1	1	HIKER	708	n/a	n/a	1	n/a	n/a	n/a	n/a	n/a
389.944	n/a	REC_WORD	194972	wordpools/wasnorm_wordpool.txt	LTP148	ltpFR	18	1	1	RADIATOR	1156	n/a	n/a	0	n/a	n/a	n/a	n/a	n/a
391.87	n/a	REC_WORD	195935	wordpools/wasnorm_wordpool.txt	LTP148	ltpFR	18	1	1	ATOM	55	n/a	n/a	0	n/a	n/a	n/a	n/a	n/a
406.522	n/a	REC_WORD	203261	wordpools/wasnorm_wordpool.txt	LTP148	ltpFR	18	1	1	INN	739	n/a	n/a	0	n/a	n/a	n/a	n/a	n/a
409.844	n/a	REC_WORD	204922	wordpools/wasnorm_wordpool.txt	LTP148	ltpFR	18	1	1	PASTA	1021	n/a	n/a	0	n/a	n/a	n/a	n/a	n/a
415.232	n/a	REC_WORD	207616	wordpools/wasnorm_wordpool.txt	LTP148	ltpFR	18	1	1	RADIATOR	1156	n/a	n/a	0	n/a	n/a	n/a	n/a	n/a
423.43	n/a	REC_WORD	211715	wordpools/wasnorm_wordpool.txt	LTP148	ltpFR	18	1	0	DAISY	435	n/a	n/a	0	n/a	n/a	n/a	n/a	n/a
432.852	n/a	REC_WORD	216426	wordpools/wasnorm_wordpool.txt	LTP148	ltpFR	18	1	0	SIREN	1310	n/a	n/a	0	n/a	n/a	n/a	n/a	n/a
454.352	n/a	WORD	227176	wordpools/wasnorm_wordpool.txt	LTP148	ltpFR	18	2	0	WATER	1594	n/a	n/a	0	0.57763671875	0.412841796875	1	upper	amplitud.ttf
458.48	n/a	WORD	229240	wordpools/wasnorm_wordpool.txt	LTP148	ltpFR	18	2	0	PEARL	1034	n/a	n/a	0	0.57763671875	0.412841796875	1	upper	amplitud.ttf
462.36	n/a	WORD	231180	wordpools/wasnorm_wordpool.txt	LTP148	ltpFR	18	2	0	MOB	904	n/a	n/a	1	0.57763671875	0.412841796875	1	upper	amplitud.ttf
466.546	n/a	WORD	233273	wordpools/wasnorm_wordpool.txt	LTP148	ltpFR	18	2	0	MAILMAN	858	n/a	n/a	1	0.57763671875	0.412841796875	1	upper	amplitud.ttf
470.592	n/a	WORD	235296	wordpools/wasnorm_wordpool.txt	LTP148	ltpFR	18	2	0	CARROT	249	n/a	n/a	0	0.57763671875	0.412841796875	1	upper	amplitud.ttf
474.604	n/a	WORD	237302	wordpools/wasnorm_wordpool.txt	LTP148	ltpFR	18	2	1	ORANGE	980	n/a	n/a	1	0.422607421875	0.5869140625	0	lower	zerothre.ttf
478.658	n/a	WORD	239329	wordpools/wasnorm_wordpool.txt	LTP148	ltpFR	18	2	1	GIFT	635	n/a	n/a	1	0.422607421875	0.5869140625	0	lower	zerothre.ttf
482.796	n/a	WORD	241398	wordpools/wasnorm_wordpool.txt	LTP148	ltpFR	18	2	1	PROFESSOR	1131	n/a	n/a	1	0.422607421875	0.5869140625	0	lower	zerothre.ttf
486.932	n/a	WORD	243466	wordpools/wasnorm_wordpool.txt	LTP148	ltpFR	18	2	1	OCEAN	970	n/a	n/a	0	0.422607421875	0.5869140625	0	lower	zerothre.ttf
490.836	n/a	WORD	245418	wordpools/wasnorm_wordpool.txt	LTP148	ltpFR	18	2	1	HOUND	724	n/a	n/a	1	0.422607421875	0.5869140625	0	lower	zerothre.ttf
495.014	n/a	WORD	247507	wordpools/wasnorm_wordpool.txt	LTP148	ltpFR	18	2	1	FLEA	577	n/a	n/a	1	0.422607421875	0.5869140625	0	lower	zerothre.ttf
498.96	n/a	WORD	249480	wordpools/wasnorm_wordpool.txt	LTP148	ltpFR	18	2	0	AUDIENCE	59	n/a	n/a	1	0.57763671875	0.412841796875	1	upper	amplitud.ttf
502.838	n/a	WORD	251419	wordpools/wasnorm_wordpool.txt	LTP148	ltpFR	18	2	0	BEAD	103	n/a	n/a	0	0.57763671875	0.412841796875	1	upper	amplitud.ttf
506.95	n/a	WORD	253475	wordpools/wasnorm_wordpool.txt	LTP148	ltpFR	18	2	0	HEAD	695	n/a	n/a	0	0.57763671875	0.412841796875	1	upper	amplitud.ttf
510.988	n/a	WORD	255494	wordpools/wasnorm_wordpool.txt	LTP148	ltpFR	18	2	1	TAPIOCA	1434	n/a	n/a	0	0.422607421875	0.5869140625	0	lower	zerothre.ttf
515.132	n/a	WORD	257566	wordpools/wasnorm_wordpool.txt	LTP148	ltpFR	18	2	1	RAISIN	1163	n/a	n/a	0	0.422607421875	0.5869140625	0	lower	zerothre.ttf
520.994	n/a	REC_START	260497	n/a	LTP148	ltpFR	18	2	n/a	n/a	n/a	n/a	n/a	n/a	n/a	n/a	n/a	n/a	n/a
522.61	n/a	REC_WORD	261305	wordpools/wasnorm_wordpool.txt	LTP148	ltpFR	18	2	1	TAPIOCA	1434	n/a	n/a	0	n/a	n/a	n/a	n/a	n/a
523.872	n/a	REC_WORD	261936	wordpools/wasnorm_wordpool.txt	LTP148	ltpFR	18	2	1	RAISIN	1163	n/a	n/a	0	n/a	n/a	n/a	n/a	n/a
526.122	n/a	REC_WORD	263061	wordpools/wasnorm_wordpool.txt	LTP148	ltpFR	18	2	0	WATER	1594	n/a	n/a	0	n/a	n/a	n/a	n/a	n/a
527.264	n/a	REC_WORD	263632	wordpools/wasnorm_wordpool.txt	LTP148	ltpFR	18	2	0	PEARL	1034	n/a	n/a	0	n/a	n/a	n/a	n/a	n/a
528.616	n/a	REC_WORD	264308	wordpools/wasnorm_wordpool.txt	LTP148	ltpFR	18	2	0	CARROT	249	n/a	n/a	0	n/a	n/a	n/a	n/a	n/a
529.982	n/a	REC_WORD	264991	wordpools/wasnorm_wordpool.txt	LTP148	ltpFR	18	2	0	BEAD	103	n/a	n/a	0	n/a	n/a	n/a	n/a	n/a
530.97	n/a	REC_WORD	265485	wordpools/wasnorm_wordpool.txt	LTP148	ltpFR	18	2	0	HEAD	695	n/a	n/a	0	n/a	n/a	n/a	n/a	n/a
534.472	n/a	REC_WORD	267236	wordpools/wasnorm_wordpool.txt	LTP148	ltpFR	18	2	1	GIFT	635	n/a	n/a	1	n/a	n/a	n/a	n/a	n/a
535.086	n/a	REC_WORD	267543	wordpools/wasnorm_wordpool.txt	LTP148	ltpFR	18	2	1	PROFESSOR	1131	n/a	n/a	1	n/a	n/a	n/a	n/a	n/a
536.234	n/a	REC_WORD	268117	wordpools/wasnorm_wordpool.txt	LTP148	ltpFR	18	2	0	MAILMAN	858	n/a	n/a	1	n/a	n/a	n/a	n/a	n/a
537.41	n/a	REC_WORD	268705	wordpools/wasnorm_wordpool.txt	LTP148	ltpFR	18	2	0	AUDIENCE	59	n/a	n/a	1	n/a	n/a	n/a	n/a	n/a
538.488	n/a	REC_WORD	269244	wordpools/wasnorm_wordpool.txt	LTP148	ltpFR	18	2	0	MOB	904	n/a	n/a	1	n/a	n/a	n/a	n/a	n/a
539.99	n/a	REC_WORD	269995	wordpools/wasnorm_wordpool.txt	LTP148	ltpFR	18	2	1	HOUND	724	n/a	n/a	1	n/a	n/a	n/a	n/a	n/a
541.048	n/a	REC_WORD	270524	wordpools/wasnorm_wordpool.txt	LTP148	ltpFR	18	2	1	FLEA	577	n/a	n/a	1	n/a	n/a	n/a	n/a	n/a
556.598	n/a	REC_WORD	278299	wordpools/wasnorm_wordpool.txt	LTP148	ltpFR	18	2	0	CARROT	249	n/a	n/a	0	n/a	n/a	n/a	n/a	n/a
574.214	n/a	REC_WORD	287107	wordpools/wasnorm_wordpool.txt	LTP148	ltpFR	18	2	1	OCEAN	970	n/a	n/a	0	n/a	n/a	n/a	n/a	n/a
582.294	n/a	REC_WORD	291147	wordpools/wasnorm_wordpool.txt	LTP148	ltpFR	18	2	1	ORANGE	980	n/a	n/a	1	n/a	n/a	n/a	n/a	n/a
607.968	n/a	WORD	303984	wordpools/wasnorm_wordpool.txt	LTP148	ltpFR	18	3	1	KING	777	n/a	n/a	1	0.422607421875	0.5869140625	0	lower	zerothre.ttf
612.146	n/a	WORD	306073	wordpools/wasnorm_wordpool.txt	LTP148	ltpFR	18	3	1	MOON	914	n/a	n/a	0	0.422607421875	0.5869140625	0	lower	zerothre.ttf
616.266	n/a	WORD	308133	wordpools/wasnorm_wordpool.txt	LTP148	ltpFR	18	3	1	GAZELLE	628	n/a	n/a	1	0.422607421875	0.5869140625	0	lower	zerothre.ttf
620.372	n/a	WORD	310186	wordpools/wasnorm_wordpool.txt	LTP148	ltpFR	18	3	0	MOAT	903	n/a	n/a	1	0.57763671875	0.412841796875	1	upper	amplitud.ttf
624.574	n/a	WORD	312287	wordpools/wasnorm_wordpool.txt	LTP148	ltpFR	18	3	0	EDITOR	516	n/a	n/a	1	0.57763671875	0.412841796875	1	upper	amplitud.ttf
628.596	n/a	WORD	314298	wordpools/wasnorm_wordpool.txt	LTP148	ltpFR	18	3	1	PUBLICATION	1136	n/a	n/a	0	0.422607421875	0.5869140625	0	lower	zerothre.ttf
632.49	n/a	WORD	316245	wordpools/wasnorm_wordpool.txt	LTP148	ltpFR	18	3	1	ESSAY	540	n/a	n/a	0	0.422607421875	0.5869140625	0	lower	zerothre.ttf
636.402	n/a	WORD	318201	wordpools/wasnorm_wordpool.txt	LTP148	ltpFR	18	3	1	EWE	542	n/a	n/a	1	0.422607421875	0.5869140625	0	lower	zerothre.ttf
640.34	n/a	WORD	320170	wordpools/wasnorm_wordpool.txt	LTP148	ltpFR	18	3	1	RIB	1188	n/a	n/a	0	0.422607421875	0.5869140625	0	lower	zerothre.ttf
644.436	n/a	WORD	322218	wordpools/wasnorm_wordpool.txt	LTP148	ltpFR	18	3	1	REFRIGERATOR	1179	n/a	n/a	0	0.422607421875	0.5869140625	0	lower	zerothre.ttf
648.472	n/a	WORD	324236	wordpools/wasnorm_wordpool.txt	LTP148	ltpFR	18	3	0	CANAL	226	n/a	n/a	1	0.57763671875	0.412841796875	1	upper	amplitud.ttf
652.65	n/a	WORD	326325	wordpools/wasnorm_wordpool.txt	LTP148	ltpFR	18	3	0	DRINK	498	n/a	n/a	0	0.57763671875	0.412841796875	1	upper	amplitud.ttf
656.562	n/a	WORD	328281	wordpools/wasnorm_wordpool.txt	LTP148	ltpFR	18	3	0	SLOPE	1328	n/a	n/a	1	0.57763671875	0.412841796875	1	upper	amplitud.ttf
660.548	n/a	WORD	330274	wordpools/wasnorm_wordpool.txt	LTP148	ltpFR	18	3	0	PEPPER	1047	n/a	n/a	0	0.57763671875	0.412841796875	1	upper	amplitud.ttf
664.486	n/a	WORD	332243	wordpools/wasnorm_wordpool.txt	LTP148	ltpFR	18	3	0	NOTEBOOK	959	n/a	n/a	0	0.57763671875	0.412841796875	1	upper	amplitud.ttf
668.556	n/a	WORD	334278	wordpools/wasnorm_wordpool.txt	LTP148	ltpFR	18	3	0	MOSS	918	n/a	n/a	0	0.57763671875	0.412841796875	1	upper	amplitud.ttf
674.202	n/a	REC_START	337101	n/a	LTP148	ltpFR	18	3	n/a	n/a	n/a	n/a	n/a	n/a	n/a	n/a	n/a	n/a	n/a
674.89	n/a	REC_WORD	337445	wordpools/wasnorm_wordpool.txt	LTP148	ltpFR	18	3	0	DRINK	498	n/a	n/a	0	n/a	n/a	n/a	n/a	n/a
675.514	n/a	REC_WORD	337757	wordpools/wasnorm_wordpool.txt	LTP148	ltpFR	18	3	0	PEPPER	1047	n/a	n/a	0	n/a	n/a	n/a	n/a	n/a
676.292	n/a	REC_WORD	338146	wordpools/wasnorm_wordpool.txt	LTP148	ltpFR	18	3	0	MOSS	918	n/a	n/a	0	n/a	n/a	n/a	n/a	n/a
677.804	n/a	REC_WORD	338902	wordpools/wasnorm_wordpool.txt	LTP148	ltpFR	18	3	0	NOTEBOOK	959	n/a	n/a	0	n/a	n/a	n/a	n/a	n/a
678.73	n/a	REC_WORD	339365	wordpools/wasnorm_wordpool.txt	LTP148	ltpFR	18	3	0	SLOPE	1328	n/a	n/a	1	n/a	n/a	n/a	n/a	n/a
680.058	n/a	REC_WORD	340029	wordpools/wasnorm_wordpool.txt	LTP148	ltpFR	18	3	0	CANAL	226	n/a	n/a	1	n/a	n/a	n/a	n/a	n/a
680.776	n/a	REC_WORD	340388	wordpools/wasnorm_wordpool.txt	LTP148	ltpFR	18	3	0	MOAT	903	n/a	n/a	1	n/a	n/a	n/a	n/a	n/a
681.654	n/a	REC_WORD	340827	wordpools/wasnorm_wordpool.txt	LTP148	ltpFR	18	3	1	KING	777	n/a	n/a	1	n/a	n/a	n/a	n/a	n/a
682.298	n/a	REC_WORD	341149	wordpools/wasnorm_wordpool.txt	LTP148	ltpFR	18	3	1	MOON	914	n/a	n/a	0	n/a	n/a	n/a	n/a	n/a
684.522	n/a	REC_WORD	342261	wordpools/wasnorm_wordpool.txt	LTP148	ltpFR	18	3	1	GAZELLE	628	n/a	n/a	1	n/a	n/a	n/a	n/a	n/a
685.75	n/a	REC_WORD	342875	wordpools/wasnorm_wordpool.txt	LTP148	ltpFR	18	3	0	EDITOR	516	n/a	n/a	1	n/a	n/a	n/a	n/a	n/a
686.614	n/a	REC_WORD	343307	wordpools/wasnorm_wordpool.txt	LTP148	ltpFR	18	3	1	PUBLICATION	1136	n/a	n/a	0	n/a	n/a	n/a	n/a	n/a
687.926	n/a	REC_WORD	343963	wordpools/wasnorm_wordpool.txt	LTP148	ltpFR	18	3	1	ESSAY	540	n/a	n/a	0	n/a	n/a	n/a	n/a	n/a
695.18	n/a	REC_WORD	347590	wordpools/wasnorm_wordpool.txt	LTP148	ltpFR	18	3	1	EWE	542	n/a	n/a	1	n/a	n/a	n/a	n/a	n/a
756.224	n/a	WORD	378112	wordpools/wasnorm_wordpool.txt	LTP148	ltpFR	18	4	1	COCOON	339	n/a	n/a	1	0.422607421875	0.5869140625	0	lower	zerothre.ttf
760.26	n/a	WORD	380130	wordpools/wasnorm_wordpool.txt	LTP148	ltpFR	18	4	1	BUG	187	n/a	n/a	1	0.422607421875	0.5869140625	0	lower	zerothre.ttf
764.18	n/a	WORD	382090	wordpools/wasnorm_wordpool.txt	LTP148	ltpFR	18	4	1	SURF	1412	n/a	n/a	0	0.422607421875	0.5869140625	0	lower	zerothre.ttf
768.378	n/a	WORD	384189	wordpools/wasnorm_wordpool.txt	LTP148	ltpFR	18	4	1	OTTER	986	n/a	n/a	1	0.422607421875	0.5869140625	0	lower	zerothre.ttf
772.546	n/a	WORD	386273	wordpools/wasnorm_wordpool.txt	LTP148	ltpFR	18	4	1	BOOK	149	n/a	n/a	0	0.422607421875	0.5869140625	0	lower	zerothre.ttf
776.718	n/a	WORD	388359	wordpools/wasnorm_wordpool.txt	LTP148	ltpFR	18	4	1	DUNGEON	507	n/a	n/a	0	0.422607421875	0.5869140625	0	lower	zerothre.ttf
780.772	n/a	WORD	390386	wordpools/wasnorm_wordpool.txt	LTP148	ltpFR	18	4	1	CUPBOARD	425	n/a	n/a	0	0.422607421875	0.5869140625	0	lower	zerothre.ttf
784.942	n/a	WORD	392471	wordpools/wasnorm_wordpool.txt	LTP148	ltpFR	18	4	1	SUNRISE	1407	n/a	n/a	0	0.422607421875	0.5869140625	0	lower	zerothre.ttf
788.77	n/a	WORD	394385	wordpools/wasnorm_wordpool.txt	LTP148	ltpFR	18	4	1	STADIUM	1364	n/a	n/a	0	0.422607421875	0.5869140625	0	lower	zerothre.ttf
792.674	n/a	WORD	396337	wordpools/wasnorm_wordpool.txt	LTP148	ltpFR	18	4	1	DRIVER	499	n/a	n/a	1	0.422607421875	0.5869140625	0	lower	zerothre.ttf
796.736	n/a	WORD	398368	wordpools/wasnorm_wordpool.txt	LTP148	ltpFR	18	4	1	CARAVAN	242	n/a	n/a	0	0.422607421875	0.5869140625	0	lower	zerothre.ttf
800.814	n/a	WORD	400407	wordpools/wasnorm_wordpool.txt	LTP148	ltpFR	18	4	1	KITE	779	n/a	n/a	0	0.422607421875	0.5869140625	0	lower	zerothre.ttf
804.96	n/a	WORD	402480	wordpools/wasnorm_wordpool.txt	LTP148	ltpFR	18	4	1	CAPTIVE	240	n/a	n/a	1	0.422607421875	0.5869140625	0	lower	zerothre.ttf
808.988	n/a	WORD	404494	wordpools/wasnorm_wordpool.txt	LTP148	ltpFR	18	4	1	RULER	1216	n/a	n/a	1	0.422607421875	0.5869140625	0	lower	zerothre.ttf
812.976	n/a	WORD	406488	wordpools/wasnorm_wordpool.txt	LTP148	ltpFR	18	4	1	MOTHER	921	n/a	n/a	1	0.422607421875	0.5869140625	0	lower	zerothre.ttf
816.796	n/a	WORD	408398	wordpools/wasnorm_wordpool.txt	LTP148	ltpFR	18	4	1	JET	756	n/a	n/a	0	0.422607421875	0.5869140625	0	lower	zerothre.ttf
822.514	n/a	REC_START	411257	n/a	LTP148	ltpFR	18	4	n/a	n/a	n/a	n/a	n/a	n/a	n/a	n/a	n/a	n/a	n/a
823.366	n/a	REC_WORD	411683	wordpools/wasnorm_wordpool.txt	LTP148	ltpFR	18	4	1	JET	756	n/a	n/a	0	n/a	n/a	n/a	n/a	n/a
824.12	n/a	REC_WORD	412060	wordpools/wasnorm_wordpool.txt	LTP148	ltpFR	18	4	1	RULER	1216	n/a	n/a	1	n/a	n/a	n/a	n/a	n/a
824.646	n/a	REC_WORD	412323	wordpools/wasnorm_wordpool.txt	LTP148	ltpFR	18	4	1	MOTHER	921	n/a	n/a	1	n/a	n/a	n/a	n/a	n/a
825.882	n/a	REC_WORD	412941	wordpools/wasnorm_wordpool.txt	LTP148	ltpFR	18	4	1	CAPTIVE	240	n/a	n/a	1	n/a	n/a	n/a	n/a	n/a
826.66	n/a	REC_WORD	413330	wordpools/wasnorm_wordpool.txt	LTP148	ltpFR	18	4	1	DRIVER	499	n/a	n/a	1	n/a	n/a	n/a	n/a	n/a
827.374	n/a	REC_WORD	413687	wordpools/wasnorm_wordpool.txt	LTP148	ltpFR	18	4	1	CARAVAN	242	n/a	n/a	0	n/a	n/a	n/a	n/a	n/a
831.814	n/a	REC_WORD	415907	wordpools/wasnorm_wordpool.txt	LTP148	ltpFR	18	4	1	SURF	1412	n/a	n/a	0	n/a	n/a	n/a	n/a	n/a
834.162	n/a	REC_WORD	417081	wordpools/wasnorm_wordpool.txt	LTP148	ltpFR	18	4	1	SUNRISE	1407	n/a	n/a	0	n/a	n/a	n/a	n/a	n/a
835.162	n/a	REC_WORD_VV	417581	wordpools/wasnorm_wordpool.txt	LTP148	ltpFR	18	4	n/a	<>	-1	n/a	n/a	n/a	n/a	n/a	n/a	n/a	n/a
835.804	n/a	REC_WORD	417902	wordpools/wasnorm_wordpool.txt	LTP148	ltpFR	18	4	1	OTTER	986	n/a	n/a	1	n/a	n/a	n/a	n/a	n/a
839.246	n/a	REC_WORD	419623	wordpools/wasnorm_wordpool.txt	LTP148	ltpFR	18	4	1	BOOK	149	n/a	n/a	0	n/a	n/a	n/a	n/a	n/a
839.91	n/a	REC_WORD	419955	wordpools/wasnorm_wordpool.txt	LTP148	ltpFR	18	4	1	CUPBOARD	425	n/a	n/a	0	n/a	n/a	n/a	n/a	n/a
843.842	n/a	REC_WORD	421921	wordpools/wasnorm_wordpool.txt	LTP148	ltpFR	18	4	1	KITE	779	n/a	n/a	0	n/a	n/a	n/a	n/a	n/a
852.222	n/a	REC_WORD	426111	wordpools/wasnorm_wordpool.txt	LTP148	ltpFR	18	4	1	BUG	187	n/a	n/a	1	n/a	n/a	n/a	n/a	n/a
852.972	n/a	REC_WORD	426486	wordpools/wasnorm_wordpool.txt	LTP148	ltpFR	18	4	1	COCOON	339	n/a	n/a	1	n/a	n/a	n/a	n/a	n/a
855.924	n/a	REC_WORD	427962	wordpools/wasnorm_wordpool.txt	LTP148	ltpFR	18	4	1	DUNGEON	507	n/a	n/a	0	n/a	n/a	n/a	n/a	n/a
858.294	n/a	REC_WORD	429147	wordpools/wasnorm_wordpool.txt	LTP148	ltpFR	18	4	1	STADIUM	1364	n/a	n/a	0	n/a	n/a	n/a	n/a	n/a
860.02	n/a	REC_WORD	430010	wordpools/wasnorm_wordpool.txt	LTP148	ltpFR	18	4	1	JET	756	n/a	n/a	0	n/a	n/a	n/a	n/a	n/a
890.91	n/a	REC_WORD	445455	wordpools/wasnorm_wordpool.txt	LTP148	ltpFR	18	4	1	OTTER	986	n/a	n/a	1	n/a	n/a	n/a	n/a	n/a
893.314	n/a	REC_WORD	446657	wordpools/wasnorm_wordpool.txt	LTP148	ltpFR	18	4	1	STADIUM	1364	n/a	n/a	0	n/a	n/a	n/a	n/a	n/a
895.654	n/a	REC_WORD	447827	wordpools/wasnorm_wordpool.txt	LTP148	ltpFR	18	4	1	JET	756	n/a	n/a	0	n/a	n/a	n/a	n/a	n/a
910.156	n/a	WORD	455078	wordpools/wasnorm_wordpool.txt	LTP148	ltpFR	18	5	-1	TABLE	1426	n/a	n/a	-1	1.0	1.0	1	upper	Verdana.ttf
914.002	n/a	WORD	457001	wordpools/wasnorm_wordpool.txt	LTP148	ltpFR	18	5	-1	SILK	1307	n/a	n/a	-1	1.0	1.0	1	upper	Verdana.ttf
917.972	n/a	WORD	458986	wordpools/wasnorm_wordpool.txt	LTP148	ltpFR	18	5	-1	PATH	1023	n/a	n/a	-1	1.0	1.0	1	upper	Verdana.ttf
921.834	n/a	WORD	460917	wordpools/wasnorm_wordpool.txt	LTP148	ltpFR	18	5	-1	NUN	962	n/a	n/a	-1	1.0	1.0	1	upper	Verdana.ttf
926.038	n/a	WORD	463019	wordpools/wasnorm_wordpool.txt	LTP148	ltpFR	18	5	-1	BARTENDER	92	n/a	n/a	-1	1.0	1.0	1	upper	Verdana.ttf
930.018	n/a	WORD	465009	wordpools/wasnorm_wordpool.txt	LTP148	ltpFR	18	5	-1	PLANET	1082	n/a	n/a	-1	1.0	1.0	1	upper	Verdana.ttf
934.046	n/a	WORD	467023	wordpools/wasnorm_wordpool.txt	LTP148	ltpFR	18	5	-1	UNDERWEAR	1537	n/a	n/a	-1	1.0	1.0	1	upper	Verdana.ttf
937.932	n/a	WORD	468966	wordpools/wasnorm_wordpool.txt	LTP148	ltpFR	18	5	-1	SEA	1259	n/a	n/a	-1	1.0	1.0	1	upper	Verdana.ttf
942.044	n/a	WORD	471022	wordpools/wasnorm_wordpool.txt	LTP148	ltpFR	18	5	-1	SHORE	1291	n/a	n/a	-1	1.0	1.0	1	upper	Verdana.ttf
945.908	n/a	WORD	472954	wordpools/wasnorm_wordpool.txt	LTP148	ltpFR	18	5	-1	WINGS	1614	n/a	n/a	-1	1.0	1.0	1	upper	Verdana.ttf
950.11	n/a	WORD	475055	wordpools/wasnorm_wordpool.txt	LTP148	ltpFR	18	5	-1	JUPITER	765	n/a	n/a	-1	1.0	1.0	1	upper	Verdana.ttf
953.998	n/a	WORD	476999	wordpools/wasnorm_wordpool.txt	LTP148	ltpFR	18	5	-1	SCREWDRIVER	1255	n/a	n/a	-1	1.0	1.0	1	upper	Verdana.ttf
957.992	n/a	WORD	478996	wordpools/wasnorm_wordpool.txt	LTP148	ltpFR	18	5	-1	OPERA	978	n/a	n/a	-1	1.0	1.0	1	upper	Verdana.ttf
962.064	n/a	WORD	481032	wordpools/wasnorm_wordpool.txt	LTP148	ltpFR	18	5	-1	VIOLA	1570	n/a	n/a	-1	1.0	1.0	1	upper	Verdana.ttf
965.976	n/a	WORD	482988	wordpools/wasnorm_wordpool.txt	LTP148	ltpFR	18	5	-1	DOLLAR	482	n/a	n/a	-1	1.0	1.0	1	upper	Verdana.ttf
969.82	n/a	WORD	484910	wordpools/wasnorm_wordpool.txt	LTP148	ltpFR	18	5	-1	REGISTER	1180	n/a	n/a	-1	1.0	1.0	1	upper	Verdana.ttf
975.59	n/a	REC_START	487795	n/a	LTP148	ltpFR	18	5	n/a	n/a	n/a	n/a	n/a	n/a	n/a	n/a	n/a	n/a	n/a
976.484	n/a	REC_WORD	488242	wordpools/wasnorm_wordpool.txt	LTP148	ltpFR	18	5	-1	REGISTER	1180	n/a	n/a	-1	n/a	n/a	n/a	n/a	n/a
977.226	n/a	REC_WORD	488613	wordpools/wasnorm_wordpool.txt	LTP148	ltpFR	18	5	-1	SILK	1307	n/a	n/a	-1	n/a	n/a	n/a	n/a	n/a
978.33	n/a	REC_WORD	489165	wordpools/wasnorm_wordpool.txt	LTP148	ltpFR	18	5	-1	TABLE	1426	n/a	n/a	-1	n/a	n/a	n/a	n/a	n/a
980.34	n/a	REC_WORD	490170	wordpools/wasnorm_wordpool.txt	LTP148	ltpFR	18	5	-1	NUN	962	n/a	n/a	-1	n/a	n/a	n/a	n/a	n/a
981.178	n/a	REC_WORD	490589	wordpools/wasnorm_wordpool.txt	LTP148	ltpFR	18	5	-1	BARTENDER	92	n/a	n/a	-1	n/a	n/a	n/a	n/a	n/a
982.778	n/a	REC_WORD	491389	wordpools/wasnorm_wordpool.txt	LTP148	ltpFR	18	5	-1	PATH	1023	n/a	n/a	-1	n/a	n/a	n/a	n/a	n/a
984.484	n/a	REC_WORD	492242	wordpools/wasnorm_wordpool.txt	LTP148	ltpFR	18	5	-1	SEA	1259	n/a	n/a	-1	n/a	n/a	n/a	n/a	n/a
985.378	n/a	REC_WORD	492689	wordpools/wasnorm_wordpool.txt	LTP148	ltpFR	18	5	-1	SHORE	1291	n/a	n/a	-1	n/a	n/a	n/a	n/a	n/a
988.008	n/a	REC_WORD	494004	wordpools/wasnorm_wordpool.txt	LTP148	ltpFR	18	5	-1	UNDERWEAR	1537	n/a	n/a	-1	n/a	n/a	n/a	n/a	n/a
993.386	n/a	REC_WORD	496693	wordpools/wasnorm_wordpool.txt	LTP148	ltpFR	18	5	-1	JUPITER	765	n/a	n/a	-1	n/a	n/a	n/a	n/a	n/a
1011.64	n/a	REC_WORD	505820	wordpools/wasnorm_wordpool.txt	LTP148	ltpFR	18	5	-1	WINGS	1614	n/a	n/a	-1	n/a	n/a	n/a	n/a	n/a
1041.904	n/a	REC_WORD	520952	wordpools/wasnorm_wordpool.txt	LTP148	ltpFR	18	5	1	STADIUM	1364	n/a	n/a	0	n/a	n/a	n/a	n/a	n/a
1056.022	n/a	WORD	528011	wordpools/wasnorm_wordpool.txt	LTP148	ltpFR	18	6	0	OUTDOORS	987	n/a	n/a	1	0.57763671875	0.412841796875	1	upper	amplitud.ttf
1059.91	n/a	WORD	529955	wordpools/wasnorm_wordpool.txt	LTP148	ltpFR	18	6	0	FIGHTER	564	n/a	n/a	1	0.57763671875	0.412841796875	1	upper	amplitud.ttf
1063.732	n/a	WORD	531866	wordpools/wasnorm_wordpool.txt	LTP148	ltpFR	18	6	0	PILOT	1070	n/a	n/a	1	0.57763671875	0.412841796875	1	upper	amplitud.ttf
1067.676	n/a	WORD	533838	wordpools/wasnorm_wordpool.txt	LTP148	ltpFR	18	6	0	CAGE	218	n/a	n/a	1	0.57763671875	0.412841796875	1	upper	amplitud.ttf
1071.722	n/a	WORD	535861	wordpools/wasnorm_wordpool.txt	LTP148	ltpFR	18	6	0	CHEST	295	n/a	n/a	1	0.57763671875	0.412841796875	1	upper	amplitud.ttf
1075.718	n/a	WORD	537859	wordpools/wasnorm_wordpool.txt	LTP148	ltpFR	18	6	0	PUBLISHER	1137	n/a	n/a	1	0.57763671875	0.412841796875	1	upper	amplitud.ttf
1079.72	n/a	WORD	539860	wordpools/wasnorm_wordpool.txt	LTP148	ltpFR	18	6	0	GROUND	666	n/a	n/a	1	0.57763671875	0.412841796875	1	upper	amplitud.ttf
1083.782	n/a	WORD	541891	wordpools/wasnorm_wordpool.txt	LTP148	ltpFR	18	6	0	LETTUCE	814	n/a	n/a	0	0.57763671875	0.412841796875	1	upper	amplitud.ttf
1087.694	n/a	WORD	543847	wordpools/wasnorm_wordpool.txt	LTP148	ltpFR	18	6	0	CHICKEN	297	n/a	n/a	1	0.57763671875	0.412841796875	1	upper	amplitud.ttf
1091.54	n/a	WORD	545770	wordpools/wasnorm_wordpool.txt	LTP148	ltpFR	18	6	0	THICKET	1455	n/a	n/a	1	0.57763671875	0.412841796875	1	upper	amplitud.ttf
1095.686	n/a	WORD	547843	wordpools/wasnorm_wordpool.txt	LTP148	ltpFR	18	6	0	BEET	115	n/a	n/a	0	0.57763671875	0.412841796875	1	upper	amplitud.ttf
1099.564	n/a	WORD	549782	wordpools/wasnorm_wordpool.txt	LTP148	ltpFR	18	6	0	CHERRY	293	n/a	n/a	1	0.57763671875	0.412841796875	1	upper	amplitud.ttf
1103.41	n/a	WORD	551705	wordpools/wasnorm_wordpool.txt	LTP148	ltpFR	18	6	0	BOUQUET	157	n/a	n/a	1	0.57763671875	0.412841796875	1	upper	amplitud.ttf
1107.512	n/a	WORD	553756	wordpools/wasnorm_wordpool.txt	LTP148	ltpFR	18	6	0	SHIP	1286	n/a	n/a	1	0.57763671875	0.412841796875	1	upper	amplitud.ttf
1111.326	n/a	WORD	555663	wordpools/wasnorm_wordpool.txt	LTP148	ltpFR	18	6	0	MARSH	874	n/a	n/a	1	0.57763671875	0.412841796875	1	upper	amplitud.ttf
1115.204	n/a	WORD	557602	wordpools/wasnorm_wordpool.txt	LTP148	ltpFR	18	6	0	LITERATURE	831	n/a	n/a	1	0.57763671875	0.412841796875	1	upper	amplitud.ttf
1121.306	n/a	REC_START	560653	n/a	LTP148	ltpFR	18	6	n/a	n/a	n/a	n/a	n/a	n/a	n/a	n/a	n/a	n/a	n/a
1121.87	n/a	REC_WORD	560935	wordpools/wasnorm_wordpool.txt	LTP148	ltpFR	18	6	0	LITERATURE	831	n/a	n/a	1	n/a	n/a	n/a	n/a	n/a
1122.634	n/a	REC_WORD	561317	wordpools/wasnorm_wordpool.txt	LTP148	ltpFR	18	6	0	MARSH	874	n/a	n/a	1	n/a	n/a	n/a	n/a	n/a
1123.686	n/a	REC_WORD	561843	wordpools/wasnorm_wordpool.txt	LTP148	ltpFR	18	6	0	THICKET	1455	n/a	n/a	1	n/a	n/a	n/a	n/a	n/a
1125.222	n/a	REC_WORD	562611	wordpools/wasnorm_wordpool.txt	LTP148	ltpFR	18	6	0	CHERRY	293	n/a	n/a	1	n/a	n/a	n/a	n/a	n/a
1125.876	n/a	REC_WORD	562938	wordpools/wasnorm_wordpool.txt	LTP148	ltpFR	18	6	0	BOUQUET	157	n/a	n/a	1	n/a	n/a	n/a	n/a	n/a
1126.824	n/a	REC_WORD	563412	wordpools/wasnorm_wordpool.txt	LTP148	ltpFR	18	6	0	CAGE	218	n/a	n/a	1	n/a	n/a	n/a	n/a	n/a
1127.626	n/a	REC_WORD	563813	wordpools/wasnorm_wordpool.txt	LTP148	ltpFR	18	6	0	PUBLISHER	1137	n/a	n/a	1	n/a	n/a	n/a	n/a	n/a
1128.486	n/a	REC_WORD	564243	wordpools/wasnorm_wordpool.txt	LTP148	ltpFR	18	6	0	GROUND	666	n/a	n/a	1	n/a	n/a	n/a	n/a	n/a
1129.552	n/a	REC_WORD	564776	wordpools/wasnorm_wordpool.txt	LTP148	ltpFR	18	6	0	OUTDOORS	987	n/a	n/a	1	n/a	n/a	n/a	n/a	n/a
1132.022	n/a	REC_WORD	566011	wordpools/wasnorm_wordpool.txt	LTP148	ltpFR	18	6	0	LETTUCE	814	n/a	n/a	0	n/a	n/a	n/a	n/a	n/a
1132.74	n/a	REC_WORD	566370	wordpools/wasnorm_wordpool.txt	LTP148	ltpFR	18	6	0	BEET	115	n/a	n/a	0	n/a	n/a	n/a	n/a	n/a
1134.168	n/a	REC_WORD	567084	wordpools/wasnorm_wordpool.txt	LTP148	ltpFR	18	6	0	BEET	115	n/a	n/a	0	n/a	n/a	n/a	n/a	n/a
1135.464	n/a	REC_WORD	567732	wordpools/wasnorm_wordpool.txt	LTP148	ltpFR	18	6	0	CHICKEN	297	n/a	n/a	1	n/a	n/a	n/a	n/a	n/a
1140.374	n/a	REC_WORD	570187	wordpools/wasnorm_wordpool.txt	LTP148	ltpFR	18	6	0	FIGHTER	564	n/a	n/a	1	n/a	n/a	n/a	n/a	n/a
1141.316	n/a	REC_WORD	570658	wordpools/wasnorm_wordpool.txt	LTP148	ltpFR	18	6	0	PILOT	1070	n/a	n/a	1	n/a	n/a	n/a	n/a	n/a
1191.912	n/a	REC_WORD	595956	wordpools/wasnorm_wordpool.txt	LTP148	ltpFR	18	6	0	FIGHTER	564	n/a	n/a	1	n/a	n/a	n/a	n/a	n/a
1205.876	n/a	WORD	602938	wordpools/wasnorm_wordpool.txt	LTP148	ltpFR	18	7	1	ALBUM	14	n/a	n/a	0	0.422607421875	0.5869140625	0	lower	zerothre.ttf
1209.73	n/a	WORD	604865	wordpools/wasnorm_wordpool.txt	LTP148	ltpFR	18	7	1	COD	340	n/a	n/a	1	0.422607421875	0.5869140625	0	lower	zerothre.ttf
1213.802	n/a	WORD	606901	wordpools/wasnorm_wordpool.txt	LTP148	ltpFR	18	7	1	BARRACUDA	90	n/a	n/a	1	0.422607421875	0.5869140625	0	lower	zerothre.ttf
1217.63	n/a	WORD	608815	wordpools/wasnorm_wordpool.txt	LTP148	ltpFR	18	7	1	SHRIMP	1297	n/a	n/a	1	0.422607421875	0.5869140625	0	lower	zerothre.ttf
1221.45	n/a	WORD	610725	wordpools/wasnorm_wordpool.txt	LTP148	ltpFR	18	7	1	GANGSTER	620	n/a	n/a	1	0.422607421875	0.5869140625	0	lower	zerothre.ttf
1225.554	n/a	WORD	612777	wordpools/wasnorm_wordpool.txt	LTP148	ltpFR	18	7	1	CABBAGE	210	n/a	n/a	0	0.422607421875	0.5869140625	0	lower	zerothre.ttf
1229.608	n/a	WORD	614804	wordpools/wasnorm_wordpool.txt	LTP148	ltpFR	18	7	1	CHEF	290	n/a	n/a	1	0.422607421875	0.5869140625	0	lower	zerothre.ttf
1233.728	n/a	WORD	616864	wordpools/wasnorm_wordpool.txt	LTP148	ltpFR	18	7	1	PLUMBER	1091	n/a	n/a	1	0.422607421875	0.5869140625	0	lower	zerothre.ttf
1237.84	n/a	WORD	618920	wordpools/wasnorm_wordpool.txt	LTP148	ltpFR	18	7	1	SQUID	1361	n/a	n/a	n/a	0.422607421875	0.5869140625	0	lower	zerothre.ttf
1240.862	n/a	SLOW_MSG	620431	n/a	LTP148	ltpFR	18	7	n/a	n/a	n/a	n/a	n/a	n/a	n/a	n/a	n/a	n/a	n/a
1243.242	n/a	WORD	621621	wordpools/wasnorm_wordpool.txt	LTP148	ltpFR	18	7	1	PAINTING	1005	n/a	n/a	1	0.422607421875	0.5869140625	0	lower	zerothre.ttf
1247.304	n/a	WORD	623652	wordpools/wasnorm_wordpool.txt	LTP148	ltpFR	18	7	1	BEAST	108	n/a	n/a	1	0.422607421875	0.5869140625	0	lower	zerothre.ttf
1251.174	n/a	WORD	625587	wordpools/wasnorm_wordpool.txt	LTP148	ltpFR	18	7	1	VASE	1549	n/a	n/a	0	0.422607421875	0.5869140625	0	lower	zerothre.ttf
1255.17	n/a	WORD	627585	wordpools/wasnorm_wordpool.txt	LTP148	ltpFR	18	7	1	BIBLE	124	n/a	n/a	0	0.422607421875	0.5869140625	0	lower	zerothre.ttf
1259.074	n/a	WORD	629537	wordpools/wasnorm_wordpool.txt	LTP148	ltpFR	18	7	1	FLIPPER	580	n/a	n/a	0	0.422607421875	0.5869140625	0	lower	zerothre.ttf
1262.978	n/a	WORD	631489	wordpools/wasnorm_wordpool.txt	LTP148	ltpFR	18	7	1	NET	946	n/a	n/a	0	0.422607421875	0.5869140625	0	lower	zerothre.ttf
1266.998	n/a	WORD	633499	wordpools/wasnorm_wordpool.txt	LTP148	ltpFR	18	7	1	HUMAN	726	n/a	n/a	1	0.422607421875	0.5869140625	0	lower	zerothre.ttf
1272.65	n/a	REC_START	636325	n/a	LTP148	ltpFR	18	7	n/a	n/a	n/a	n/a	n/a	n/a	n/a	n/a	n/a	n/a	n/a
1273.282	n/a	REC_WORD	636641	wordpools/wasnorm_wordpool.txt	LTP148	ltpFR	18	7	1	HUMAN	726	n/a	n/a	1	n/a	n/a	n/a	n/a	n/a
1273.962	n/a	REC_WORD	636981	wordpools/wasnorm_wordpool.txt	LTP148	ltpFR	18	7	1	NET	946	n/a	n/a	0	n/a	n/a	n/a	n/a	n/a
1274.258	n/a	REC_WORD	637129	wordpools/wasnorm_wordpool.txt	LTP148	ltpFR	18	7	1	FLIPPER	580	n/a	n/a	0	n/a	n/a	n/a	n/a	n/a
1274.916	n/a	REC_WORD	637458	wordpools/wasnorm_wordpool.txt	LTP148	ltpFR	18	7	1	PAINTING	1005	n/a	n/a	1	n/a	n/a	n/a	n/a	n/a
1275.488	n/a	REC_WORD	637744	wordpools/wasnorm_wordpool.txt	LTP148	ltpFR	18	7	1	VASE	1549	n/a	n/a	0	n/a	n/a	n/a	n/a	n/a
1277.684	n/a	REC_WORD	638842	wordpools/wasnorm_wordpool.txt	LTP148	ltpFR	18	7	1	ALBUM	14	n/a	n/a	0	n/a	n/a	n/a	n/a	n/a
1278.388	n/a	REC_WORD	639194	wordpools/wasnorm_wordpool.txt	LTP148	ltpFR	18	7	1	COD	340	n/a	n/a	1	n/a	n/a	n/a	n/a	n/a
1278.976	n/a	REC_WORD	639488	wordpools/wasnorm_wordpool.txt	LTP148	ltpFR	18	7	1	BARRACUDA	90	n/a	n/a	1	n/a	n/a	n/a	n/a	n/a
1279.858	n/a	REC_WORD	639929	wordpools/wasnorm_wordpool.txt	LTP148	ltpFR	18	7	1	SHRIMP	1297	n/a	n/a	1	n/a	n/a	n/a	n/a	n/a
1281.396	n/a	REC_WORD	640698	wordpools/wasnorm_wordpool.txt	LTP148	ltpFR	18	7	1	GANGSTER	620	n/a	n/a	1	n/a	n/a	n/a	n/a	n/a
1283.102	n/a	REC_WORD	641551	wordpools/wasnorm_wordpool.txt	LTP148	ltpFR	18	7	1	CHEF	290	n/a	n/a	1	n/a	n/a	n/a	n/a	n/a
1284.13	n/a	REC_WORD	642065	wordpools/wasnorm_wordpool.txt	LTP148	ltpFR	18	7	1	CABBAGE	210	n/a	n/a	0	n/a	n/a	n/a	n/a	n/a
1285.202	n/a	REC_WORD	642601	wordpools/wasnorm_wordpool.txt	LTP148	ltpFR	18	7	1	PLUMBER	1091	n/a	n/a	1	n/a	n/a	n/a	n/a	n/a
1316.482	n/a	REC_WORD	658241	wordpools/wasnorm_wordpool.txt	LTP148	ltpFR	18	7	0	LITERATURE	831	n/a	n/a	1	n/a	n/a	n/a	n/a	n/a
1336.914	n/a	REC_WORD	668457	wordpools/wasnorm_wordpool.txt	LTP148	ltpFR	18	7	1	PLUMBER	1091	n/a	n/a	1	n/a	n/a	n/a	n/a	n/a
1338.582	n/a	REC_WORD	669291	wordpools/wasnorm_wordpool.txt	LTP148	ltpFR	18	7	1	GANGSTER	620	n/a	n/a	1	n/a	n/a	n/a	n/a	n/a
1352.808	n/a	WORD	676404	wordpools/wasnorm_wordpool.txt	LTP148	ltpFR	18	8	1	FELLOW	558	n/a	n/a	1	0.422607421875	0.5869140625	0	lower	zerothre.ttf
1357.002	n/a	WORD	678501	wordpools/wasnorm_wordpool.txt	LTP148	ltpFR	18	8	1	WOMAN	1620	n/a	n/a	1	0.422607421875	0.5869140625	0	lower	zerothre.ttf
1360.824	n/a	WORD	680412	wordpools/wasnorm_wordpool.txt	LTP148	ltpFR	18	8	1	MUFFIN	929	n/a	n/a	0	0.422607421875	0.5869140625	0	lower	zerothre.ttf
1364.746	n/a	WORD	682373	wordpools/wasnorm_wordpool.txt	LTP148	ltpFR	18	8	1	BUTTER	205	n/a	n/a	0	0.422607421875	0.5869140625	0	lower	zerothre.ttf
1368.658	n/a	WORD	684329	wordpools/wasnorm_wordpool.txt	LTP148	ltpFR	18	8	1	FLY	586	n/a	n/a	1	0.422607421875	0.5869140625	0	lower	zerothre.ttf
1372.86	n/a	WORD	686430	wordpools/wasnorm_wordpool.txt	LTP148	ltpFR	18	8	1	POWDER	1117	n/a	n/a	0	0.422607421875	0.5869140625	0	lower	zerothre.ttf
1376.84	n/a	WORD	688420	wordpools/wasnorm_wordpool.txt	LTP148	ltpFR	18	8	1	PROTON	1132	n/a	n/a	0	0.422607421875	0.5869140625	0	lower	zerothre.ttf
1381.01	n/a	WORD	690505	wordpools/wasnorm_wordpool.txt	LTP148	ltpFR	18	8	1	SEASHORE	1263	n/a	n/a	0	0.422607421875	0.5869140625	0	lower	zerothre.ttf
1384.864	n/a	WORD	692432	wordpools/wasnorm_wordpool.txt	LTP148	ltpFR	18	8	1	TUB	1514	n/a	n/a	0	0.422607421875	0.5869140625	0	lower	zerothre.ttf
1388.808	n/a	WORD	694404	wordpools/wasnorm_wordpool.txt	LTP148	ltpFR	18	8	1	METEOR	889	n/a	n/a	1	0.422607421875	0.5869140625	0	lower	zerothre.ttf
1392.762	n/a	WORD	696381	wordpools/wasnorm_wordpool.txt	LTP148	ltpFR	18	8	1	FACE	547	n/a	n/a	0	0.422607421875	0.5869140625	0	lower	zerothre.ttf
1396.582	n/a	WORD	698291	wordpools/wasnorm_wordpool.txt	LTP148	ltpFR	18	8	1	ELECTRON	522	n/a	n/a	0	0.422607421875	0.5869140625	0	lower	zerothre.ttf
1400.462	n/a	WORD	700231	wordpools/wasnorm_wordpool.txt	LTP148	ltpFR	18	8	1	TOE	1473	n/a	n/a	0	0.422607421875	0.5869140625	0	lower	zerothre.ttf
1404.29	n/a	WORD	702145	wordpools/wasnorm_wordpool.txt	LTP148	ltpFR	18	8	1	EARTH	515	n/a	n/a	0	0.422607421875	0.5869140625	0	lower	zerothre.ttf
1408.286	n/a	WORD	704143	wordpools/wasnorm_wordpool.txt	LTP148	ltpFR	18	8	1	WHISTLE	1606	n/a	n/a	0	0.422607421875	0.5869140625	0	lower	zerothre.ttf
1412.282	n/a	WORD	706141	wordpools/wasnorm_wordpool.txt	LTP148	ltpFR	18	8	1	LAGOON	795	n/a	n/a	0	0.422607421875	0.5869140625	0	lower	zerothre.ttf
1418.026	n/a	REC_START	709013	n/a	LTP148	ltpFR	18	8	n/a	n/a	n/a	n/a	n/a	n/a	n/a	n/a	n/a	n/a	n/a
1418.648	n/a	REC_WORD	709324	wordpools/wasnorm_wordpool.txt	LTP148	ltpFR	18	8	1	WHISTLE	1606	n/a	n/a	0	n/a	n/a	n/a	n/a	n/a
1419.456	n/a	REC_WORD	709728	wordpools/wasnorm_wordpool.txt	LTP148	ltpFR	18	8	1	LAGOON	795	n/a	n/a	0	n/a	n/a	n/a	n/a	n/a
1420.46	n/a	REC_WORD	710230	wordpools/wasnorm_wordpool.txt	LTP148	ltpFR	18	8	1	METEOR	889	n/a	n/a	1	n/a	n/a	n/a	n/a	n/a
1421.318	n/a	REC_WORD	710659	wordpools/wasnorm_wordpool.txt	LTP148	ltpFR	18	8	1	FACE	547	n/a	n/a	0	n/a	n/a	n/a	n/a	n/a
1423.668	n/a	REC_WORD	711834	wordpools/wasnorm_wordpool.txt	LTP148	ltpFR	18	8	1	PROTON	1132	n/a	n/a	0	n/a	n/a	n/a	n/a	n/a
1429.314	n/a	REC_WORD	714657	wordpools/wasnorm_wordpool.txt	LTP148	ltpFR	18	8	1	FELLOW	558	n/a	n/a	1	n/a	n/a	n/a	n/a	n/a
1429.884	n/a	REC_WORD	714942	wordpools/wasnorm_wordpool.txt	LTP148	ltpFR	18	8	1	WOMAN	1620	n/a	n/a	1	n/a	n/a	n/a	n/a	n/a
1431.908	n/a	REC_WORD	715954	wordpools/wasnorm_wordpool.txt	LTP148	ltpFR	18	8	1	MUFFIN	929	n/a	n/a	0	n/a	n/a	n/a	n/a	n/a
1433.496	n/a	REC_WORD	716748	wordpools/wasnorm_wordpool.txt	LTP148	ltpFR	18	8	1	BUTTER	205	n/a	n/a	0	n/a	n/a	n/a	n/a	n/a
1434.922	n/a	REC_WORD	717461	wordpools/wasnorm_wordpool.txt	LTP148	ltpFR	18	8	0	MARGARINE	868	n/a	n/a	0	n/a	n/a	n/a	n/a	n/a
1439.602	n/a	REC_WORD	719801	wordpools/wasnorm_wordpool.txt	LTP148	ltpFR	18	8	1	SEASHORE	1263	n/a	n/a	0	n/a	n/a	n/a	n/a	n/a
1441.0	n/a	REC_WORD	720500	wordpools/wasnorm_wordpool.txt	LTP148	ltpFR	18	8	1	TUB	1514	n/a	n/a	0	n/a	n/a	n/a	n/a	n/a
1444.8	n/a	REC_WORD	722400	wordpools/wasnorm_wordpool.txt	LTP148	ltpFR	18	8	1	LAGOON	795	n/a	n/a	0	n/a	n/a	n/a	n/a	n/a
1455.77	n/a	REC_WORD	727885	wordpools/wasnorm_wordpool.txt	LTP148	ltpFR	18	8	1	TOE	1473	n/a	n/a	0	n/a	n/a	n/a	n/a	n/a
1460.714	n/a	REC_WORD	730357	wordpools/wasnorm_wordpool.txt	LTP148	ltpFR	18	8	0	CHEST	295	n/a	n/a	1	n/a	n/a	n/a	n/a	n/a
1475.246	n/a	REC_WORD	737623	wordpools/wasnorm_wordpool.txt	LTP148	ltpFR	18	8	1	EARTH	515	n/a	n/a	0	n/a	n/a	n/a	n/a	n/a
1483.048	n/a	REC_WORD	741524	wordpools/wasnorm_wordpool.txt	LTP148	ltpFR	18	8	1	CHEMIST	292	n/a	n/a	1	n/a	n/a	n/a	n/a	n/a
1501.788	n/a	WORD	750894	wordpools/wasnorm_wordpool.txt	LTP148	ltpFR	18	9	0	CASHIER	254	n/a	n/a	1	0.57763671875	0.412841796875	1	upper	amplitud.ttf
1505.982	n/a	WORD	752991	wordpools/wasnorm_wordpool.txt	LTP148	ltpFR	18	9	0	EAGLE	512	n/a	n/a	1	0.57763671875	0.412841796875	1	upper	amplitud.ttf
1510.128	n/a	WORD	755064	wordpools/wasnorm_wordpool.txt	LTP148	ltpFR	18	9	0	BIRD	129	n/a	n/a	0	0.57763671875	0.412841796875	1	upper	amplitud.ttf
1514.14	n/a	WORD	757070	wordpools/wasnorm_wordpool.txt	LTP148	ltpFR	18	9	0	PICKLE	1059	n/a	n/a	0	0.57763671875	0.412841796875	1	upper	amplitud.ttf
1518.102	n/a	WORD	759051	wordpools/wasnorm_wordpool.txt	LTP148	ltpFR	18	9	0	DISHWASHER	475	n/a	n/a	1	0.57763671875	0.412841796875	1	upper	amplitud.ttf
1521.966	n/a	WORD	760983	wordpools/wasnorm_wordpool.txt	LTP148	ltpFR	18	9	0	BROOK	177	n/a	n/a	1	0.57763671875	0.412841796875	1	upper	amplitud.ttf
1525.844	n/a	WORD	762922	wordpools/wasnorm_wordpool.txt	LTP148	ltpFR	18	9	0	MAID	856	n/a	n/a	1	0.57763671875	0.412841796875	1	upper	amplitud.ttf
1529.79	n/a	WORD	764895	wordpools/wasnorm_wordpool.txt	LTP148	ltpFR	18	9	0	LAMP	798	n/a	n/a	1	0.57763671875	0.412841796875	1	upper	amplitud.ttf
1533.61	n/a	WORD	766805	wordpools/wasnorm_wordpool.txt	LTP148	ltpFR	18	9	0	ELECTRICIAN	521	n/a	n/a	1	0.57763671875	0.412841796875	1	upper	amplitud.ttf
1537.562	n/a	WORD	768781	wordpools/wasnorm_wordpool.txt	LTP148	ltpFR	18	9	0	PAN	1008	n/a	n/a	0	0.57763671875	0.412841796875	1	upper	amplitud.ttf
1541.684	n/a	WORD	770842	wordpools/wasnorm_wordpool.txt	LTP148	ltpFR	18	9	0	REFEREE	1178	n/a	n/a	1	0.57763671875	0.412841796875	1	upper	amplitud.ttf
1545.688	n/a	WORD	772844	wordpools/wasnorm_wordpool.txt	LTP148	ltpFR	18	9	0	DIME	466	n/a	n/a	0	0.57763671875	0.412841796875	1	upper	amplitud.ttf
1549.692	n/a	WORD	774846	wordpools/wasnorm_wordpool.txt	LTP148	ltpFR	18	9	0	TOAST	1471	n/a	n/a	0	0.57763671875	0.412841796875	1	upper	amplitud.ttf
1553.736	n/a	WORD	776868	wordpools/wasnorm_wordpool.txt	LTP148	ltpFR	18	9	0	MEAT	883	n/a	n/a	0	0.57763671875	0.412841796875	1	upper	amplitud.ttf
1557.924	n/a	WORD	778962	wordpools/wasnorm_wordpool.txt	LTP148	ltpFR	18	9	0	CALF	222	n/a	n/a	0	0.57763671875	0.412841796875	1	upper	amplitud.ttf
1561.902	n/a	WORD	780951	wordpools/wasnorm_wordpool.txt	LTP148	ltpFR	18	9	0	FUNGUS	614	n/a	n/a	0	0.57763671875	0.412841796875	1	upper	amplitud.ttf
1567.672	n/a	REC_START	783836	n/a	LTP148	ltpFR	18	9	n/a	n/a	n/a	n/a	n/a	n/a	n/a	n/a	n/a	n/a	n/a
1568.39	n/a	REC_WORD	784195	wordpools/wasnorm_wordpool.txt	LTP148	ltpFR	18	9	0	CALF	222	n/a	n/a	0	n/a	n/a	n/a	n/a	n/a
1569.136	n/a	REC_WORD	784568	wordpools/wasnorm_wordpool.txt	LTP148	ltpFR	18	9	0	FUNGUS	614	n/a	n/a	0	n/a	n/a	n/a	n/a	n/a
1572.386	n/a	REC_WORD	786193	wordpools/wasnorm_wordpool.txt	LTP148	ltpFR	18	9	0	REFEREE	1178	n/a	n/a	1	n/a	n/a	n/a	n/a	n/a
1574.874	n/a	REC_WORD	787437	wordpools/wasnorm_wordpool.txt	LTP148	ltpFR	18	9	0	PAN	1008	n/a	n/a	0	n/a	n/a	n/a	n/a	n/a
1576.302	n/a	REC_WORD	788151	wordpools/wasnorm_wordpool.txt	LTP148	ltpFR	18	9	0	ELECTRICIAN	521	n/a	n/a	1	n/a	n/a	n/a	n/a	n/a
1577.828	n/a	REC_WORD	788914	wordpools/wasnorm_wordpool.txt	LTP148	ltpFR	18	9	0	LAMP	798	n/a	n/a	1	n/a	n/a	n/a	n/a	n/a
1580.054	n/a	REC_WORD	790027	wordpools/wasnorm_wordpool.txt	LTP148	ltpFR	18	9	0	BROOK	177	n/a	n/a	1	n/a	n/a	n/a	n/a	n/a
1581.61	n/a	REC_WORD	790805	wordpools/wasnorm_wordpool.txt	LTP148	ltpFR	18	9	0	DISHWASHER	475	n/a	n/a	1	n/a	n/a	n/a	n/a	n/a
1582.876	n/a	REC_WORD	791438	wordpools/wasnorm_wordpool.txt	LTP148	ltpFR	18	9	0	CASHIER	254	n/a	n/a	1	n/a	n/a	n/a	n/a	n/a
1583.9	n/a	REC_WORD	791950	wordpools/wasnorm_wordpool.txt	LTP148	ltpFR	18	9	0	EAGLE	512	n/a	n/a	1	n/a	n/a	n/a	n/a	n/a
1584.728	n/a	REC_WORD	792364	wordpools/wasnorm_wordpool.txt	LTP148	ltpFR	18	9	0	BIRD	129	n/a	n/a	0	n/a	n/a	n/a	n/a	n/a
1591.262	n/a	REC_WORD	795631	wordpools/wasnorm_wordpool.txt	LTP148	ltpFR	18	9	0	DIME	466	n/a	n/a	0	n/a	n/a	n/a	n/a	n/a
1592.95	n/a	REC_WORD	796475	wordpools/wasnorm_wordpool.txt	LTP148	ltpFR	18	9	0	PICKLE	1059	n/a	n/a	0	n/a	n/a	n/a	n/a	n/a
1601.182	n/a	REC_WORD	800591	wordpools/wasnorm_wordpool.txt	LTP148	ltpFR	18	9	0	DRINK	498	n/a	n/a	0	n/a	n/a	n/a	n/a	n/a
1602.738	n/a	REC_WORD	801369	wordpools/wasnorm_wordpool.txt	LTP148	ltpFR	18	9	0	PEPPER	1047	n/a	n/a	0	n/a	n/a	n/a	n/a	n/a
1608.444	n/a	REC_WORD	804222	wordpools/wasnorm_wordpool.txt	LTP148	ltpFR	18	9	0	MAID	856	n/a	n/a	1	n/a	n/a	n/a	n/a	n/a
1612.892	n/a	REC_WORD	806446	wordpools/wasnorm_wordpool.txt	LTP148	ltpFR	18	9	0	MEAT	883	n/a	n/a	0	n/a	n/a	n/a	n/a	n/a
1614.74	n/a	REC_WORD	807370	wordpools/wasnorm_wordpool.txt	LTP148	ltpFR	18	9	0	TOAST	1471	n/a	n/a	0	n/a	n/a	n/a	n/a	n/a
1633.004	n/a	REC_WORD	816502	wordpools/wasnorm_wordpool.txt	LTP148	ltpFR	18	9	0	DISHWASHER	475	n/a	n/a	1	n/a	n/a	n/a	n/a	n/a
1634.276	n/a	REC_WORD	817138	wordpools/wasnorm_wordpool.txt	LTP148	ltpFR	18	9	0	REFEREE	1178	n/a	n/a	1	n/a	n/a	n/a	n/a	n/a
1635.84	n/a	REC_WORD	817920	wordpools/wasnorm_wordpool.txt	LTP148	ltpFR	18	9	0	TOAST	1471	n/a	n/a	0	n/a	n/a	n/a	n/a	n/a
1646.064	n/a	WORD	823032	wordpools/wasnorm_wordpool.txt	LTP148	ltpFR	18	10	0	SERPENT	1270	n/a	n/a	1	0.57763671875	0.412841796875	1	upper	amplitud.ttf
1650.226	n/a	WORD	825113	wordpools/wasnorm_wordpool.txt	LTP148	ltpFR	18	10	0	CROCODILE	411	n/a	n/a	1	0.57763671875	0.412841796875	1	upper	amplitud.ttf
1654.362	n/a	WORD	827181	wordpools/wasnorm_wordpool.txt	LTP148	ltpFR	18	10	0	TOMATO	1476	n/a	n/a	0	0.57763671875	0.412841796875	1	upper	amplitud.ttf
1658.558	n/a	WORD	829279	wordpools/wasnorm_wordpool.txt	LTP148	ltpFR	18	10	0	DRAWING	494	n/a	n/a	0	0.57763671875	0.412841796875	1	upper	amplitud.ttf
1662.546	n/a	WORD	831273	wordpools/wasnorm_wordpool.txt	LTP148	ltpFR	18	10	0	FLAG	573	n/a	n/a	1	0.57763671875	0.412841796875	1	upper	amplitud.ttf
1666.424	n/a	WORD	833212	wordpools/wasnorm_wordpool.txt	LTP148	ltpFR	18	10	0	CONTAINER	366	n/a	n/a	0	0.57763671875	0.412841796875	1	upper	amplitud.ttf
1670.296	n/a	WORD	835148	wordpools/wasnorm_wordpool.txt	LTP148	ltpFR	18	10	0	FOUNTAIN	597	n/a	n/a	1	0.57763671875	0.412841796875	1	upper	amplitud.ttf
1674.466	n/a	WORD	837233	wordpools/wasnorm_wordpool.txt	LTP148	ltpFR	18	10	0	CORN	381	n/a	n/a	0	0.57763671875	0.412841796875	1	upper	amplitud.ttf
1678.51	n/a	WORD	839255	wordpools/wasnorm_wordpool.txt	LTP148	ltpFR	18	10	0	VICTOR	1563	n/a	n/a	1	0.57763671875	0.412841796875	1	upper	amplitud.ttf
1682.498	n/a	WORD	841249	wordpools/wasnorm_wordpool.txt	LTP148	ltpFR	18	10	0	CHAMPION	279	n/a	n/a	1	0.57763671875	0.412841796875	1	upper	amplitud.ttf
1686.702	n/a	WORD	843351	wordpools/wasnorm_wordpool.txt	LTP148	ltpFR	18	10	0	SPY	1360	n/a	n/a	1	0.57763671875	0.412841796875	1	upper	amplitud.ttf
1690.846	n/a	WORD	845423	wordpools/wasnorm_wordpool.txt	LTP148	ltpFR	18	10	0	BUCKET	184	n/a	n/a	1	0.57763671875	0.412841796875	1	upper	amplitud.ttf
1694.908	n/a	WORD	847454	wordpools/wasnorm_wordpool.txt	LTP148	ltpFR	18	10	0	FRAME	600	n/a	n/a	1	0.57763671875	0.412841796875	1	upper	amplitud.ttf
1698.92	n/a	WORD	849460	wordpools/wasnorm_wordpool.txt	LTP148	ltpFR	18	10	0	COBBLER	335	n/a	n/a	0	0.57763671875	0.412841796875	1	upper	amplitud.ttf
1703.058	n/a	WORD	851529	wordpools/wasnorm_wordpool.txt	LTP148	ltpFR	18	10	0	CHIME	300	n/a	n/a	0	0.57763671875	0.412841796875	1	upper	amplitud.ttf
1706.97	n/a	WORD	853485	wordpools/wasnorm_wordpool.txt	LTP148	ltpFR	18	10	0	BOOTH	151	n/a	n/a	1	0.57763671875	0.412841796875	1	upper	amplitud.ttf
1712.888	n/a	REC_START	856444	n/a	LTP148	ltpFR	18	10	n/a	n/a	n/a	n/a	n/a	n/a	n/a	n/a	n/a	n/a	n/a
1714.26	n/a	REC_WORD	857130	wordpools/wasnorm_wordpool.txt	LTP148	ltpFR	18	10	0	BOOTH	151	n/a	n/a	1	n/a	n/a	n/a	n/a	n/a
1714.738	n/a	REC_WORD	857369	wordpools/wasnorm_wordpool.txt	LTP148	ltpFR	18	10	0	CHIME	300	n/a	n/a	0	n/a	n/a	n/a	n/a	n/a
1715.802	n/a	REC_WORD	857901	wordpools/wasnorm_wordpool.txt	LTP148	ltpFR	18	10	0	COBBLER	335	n/a	n/a	0	n/a	n/a	n/a	n/a	n/a
1716.774	n/a	REC_WORD	858387	wordpools/wasnorm_wordpool.txt	LTP148	ltpFR	18	10	0	SPY	1360	n/a	n/a	1	n/a	n/a	n/a	n/a	n/a
1717.792	n/a	REC_WORD	858896	wordpools/wasnorm_wordpool.txt	LTP148	ltpFR	18	10	0	VICTOR	1563	n/a	n/a	1	n/a	n/a	n/a	n/a	n/a
1718.56	n/a	REC_WORD	859280	wordpools/wasnorm_wordpool.txt	LTP148	ltpFR	18	10	0	CHAMPION	279	n/a	n/a	1	n/a	n/a	n/a	n/a	n/a
1721.648	n/a	REC_WORD	860824	wordpools/wasnorm_wordpool.txt	LTP148	ltpFR	18	10	0	DRAWING	494	n/a	n/a	0	n/a	n/a	n/a	n/a	n/a
1722.336	n/a	REC_WORD	861168	wordpools/wasnorm_wordpool.txt	LTP148	ltpFR	18	10	0	TOMATO	1476	n/a	n/a	0	n/a	n/a	n/a	n/a	n/a
1723.25	n/a	REC_WORD	861625	wordpools/wasnorm_wordpool.txt	LTP148	ltpFR	18	10	0	CORN	381	n/a	n/a	0	n/a	n/a	n/a	n/a	n/a
1724.476	n/a	REC_WORD	862238	wordpools/wasnorm_wordpool.txt	LTP148	ltpFR	18	10	0	FOUNTAIN	597	n/a	n/a	1	n/a	n/a	n/a	n/a	n/a
1729.64	n/a	REC_WORD	864820	wordpools/wasnorm_wordpool.txt	LTP148	ltpFR	18	10	0	CROCODILE	411	n/a	n/a	1	n/a	n/a	n/a	n/a	n/a
1730.668	n/a	REC_WORD	865334	wordpools/wasnorm_wordpool.txt	LTP148	ltpFR	18	10	0	SERPENT	1270	n/a	n/a	1	n/a	n/a	n/a	n/a	n/a
1735.084	n/a	REC_WORD	867542	wordpools/wasnorm_wordpool.txt	LTP148	ltpFR	18	10	0	FRAME	600	n/a	n/a	1	n/a	n/a	n/a	n/a	n/a
1736.8	n/a	REC_WORD	868400	wordpools/wasnorm_wordpool.txt	LTP148	ltpFR	18	10	0	BUCKET	184	n/a	n/a	1	n/a	n/a	n/a	n/a	n/a
1742.86	n/a	REC_WORD	871430	wordpools/wasnorm_wordpool.txt	LTP148	ltpFR	18	10	0	SPY	1360	n/a	n/a	1	n/a	n/a	n/a	n/a	n/a
1751.606	n/a	REC_WORD	875803	wordpools/wasnorm_wordpool.txt	LTP148	ltpFR	18	10	0	FOUNTAIN	597	n/a	n/a	1	n/a	n/a	n/a	n/a	n/a
1775.206	n/a	REC_WORD	887603	wordpools/wasnorm_wordpool.txt	LTP148	ltpFR	18	10	0	BUCKET	184	n/a	n/a	1	n/a	n/a	n/a	n/a	n/a
1779.324	n/a	REC_WORD	889662	wordpools/wasnorm_wordpool.txt	LTP148	ltpFR	18	10	0	CROCODILE	411	n/a	n/a	1	n/a	n/a	n/a	n/a	n/a
1797.94	n/a	WORD	898970	wordpools/wasnorm_wordpool.txt	LTP148	ltpFR	18	11	1	DOCK	477	n/a	n/a	0	0.422607421875	0.5869140625	0	lower	zerothre.ttf
1801.82	n/a	WORD	900910	wordpools/wasnorm_wordpool.txt	LTP148	ltpFR	18	11	1	BOAT	144	n/a	n/a	0	0.422607421875	0.5869140625	0	lower	zerothre.ttf
1805.84	n/a	WORD	902920	wordpools/wasnorm_wordpool.txt	LTP148	ltpFR	18	11	0	LETTER	813	n/a	n/a	0	0.57763671875	0.412841796875	1	upper	amplitud.ttf
1810.028	n/a	WORD	905014	wordpools/wasnorm_wordpool.txt	LTP148	ltpFR	18	11	0	WASHER	1592	n/a	n/a	0	0.57763671875	0.412841796875	1	upper	amplitud.ttf
1813.882	n/a	WORD	906941	wordpools/wasnorm_wordpool.txt	LTP148	ltpFR	18	11	0	COOLER	375	n/a	n/a	1	0.57763671875	0.412841796875	1	upper	amplitud.ttf
1817.902	n/a	WORD	908951	wordpools/wasnorm_wordpool.txt	LTP148	ltpFR	18	11	0	DAGGER	434	n/a	n/a	0	0.57763671875	0.412841796875	1	upper	amplitud.ttf
1822.08	n/a	WORD	911040	wordpools/wasnorm_wordpool.txt	LTP148	ltpFR	18	11	0	OBOE	969	n/a	n/a	0	0.57763671875	0.412841796875	1	upper	amplitud.ttf
1825.96	n/a	WORD	912980	wordpools/wasnorm_wordpool.txt	LTP148	ltpFR	18	11	1	LAWYER	806	n/a	n/a	1	0.422607421875	0.5869140625	0	lower	zerothre.ttf
1829.838	n/a	WORD	914919	wordpools/wasnorm_wordpool.txt	LTP148	ltpFR	18	11	1	ROBOT	1200	n/a	n/a	0	0.422607421875	0.5869140625	0	lower	zerothre.ttf
1833.676	n/a	WORD	916838	wordpools/wasnorm_wordpool.txt	LTP148	ltpFR	18	11	1	WINE	1613	n/a	n/a	0	0.422607421875	0.5869140625	0	lower	zerothre.ttf
1837.854	n/a	WORD	918927	wordpools/wasnorm_wordpool.txt	LTP148	ltpFR	18	11	1	FINGER	567	n/a	n/a	0	0.422607421875	0.5869140625	0	lower	zerothre.ttf
1841.808	n/a	WORD	920904	wordpools/wasnorm_wordpool.txt	LTP148	ltpFR	18	11	0	WORKER	1621	n/a	n/a	1	0.57763671875	0.412841796875	1	upper	amplitud.ttf
1845.752	n/a	WORD	922876	wordpools/wasnorm_wordpool.txt	LTP148	ltpFR	18	11	0	TYPIST	1532	n/a	n/a	1	0.57763671875	0.412841796875	1	upper	amplitud.ttf
1849.814	n/a	WORD	924907	wordpools/wasnorm_wordpool.txt	LTP148	ltpFR	18	11	0	AGENT	10	n/a	n/a	1	0.57763671875	0.412841796875	1	upper	amplitud.ttf
1853.936	n/a	WORD	926968	wordpools/wasnorm_wordpool.txt	LTP148	ltpFR	18	11	1	ANT	25	n/a	n/a	1	0.422607421875	0.5869140625	0	lower	zerothre.ttf
1857.756	n/a	WORD	928878	wordpools/wasnorm_wordpool.txt	LTP148	ltpFR	18	11	1	OX	994	n/a	n/a	1	0.422607421875	0.5869140625	0	lower	zerothre.ttf
1863.374	n/a	REC_START	931687	n/a	LTP148	ltpFR	18	11	n/a	n/a	n/a	n/a	n/a	n/a	n/a	n/a	n/a	n/a	n/a
1864.082	n/a	REC_WORD	932041	wordpools/wasnorm_wordpool.txt	LTP148	ltpFR	18	11	1	ANT	25	n/a	n/a	1	n/a	n/a	n/a	n/a	n/a
1864.762	n/a	REC_WORD	932381	wordpools/wasnorm_wordpool.txt	LTP148	ltpFR	18	11	1	OX	994	n/a	n/a	1	n/a	n/a	n/a	n/a	n/a
1865.594	n/a	REC_WORD	932797	wordpools/wasnorm_wordpool.txt	LTP148	ltpFR	18	11	0	WORKER	1621	n/a	n/a	1	n/a	n/a	n/a	n/a	n/a
1866.328	n/a	REC_WORD	933164	wordpools/wasnorm_wordpool.txt	LTP148	ltpFR	18	11	0	TYPIST	1532	n/a	n/a	1	n/a	n/a	n/a	n/a	n/a
1867.232	n/a	REC_WORD	933616	wordpools/wasnorm_wordpool.txt	LTP148	ltpFR	18	11	0	AGENT	10	n/a	n/a	1	n/a	n/a	n/a	n/a	n/a
1870.238	n/a	REC_WORD	935119	wordpools/wasnorm_wordpool.txt	LTP148	ltpFR	18	11	0	LETTER	813	n/a	n/a	0	n/a	n/a	n/a	n/a	n/a
1870.832	n/a	REC_WORD	935416	wordpools/wasnorm_wordpool.txt	LTP148	ltpFR	18	11	0	WASHER	1592	n/a	n/a	0	n/a	n/a	n/a	n/a	n/a
1871.78	n/a	REC_WORD	935890	wordpools/wasnorm_wordpool.txt	LTP148	ltpFR	18	11	0	DAGGER	434	n/a	n/a	0	n/a	n/a	n/a	n/a	n/a
1873.716	n/a	REC_WORD	936858	wordpools/wasnorm_wordpool.txt	LTP148	ltpFR	18	11	1	LAWYER	806	n/a	n/a	1	n/a	n/a	n/a	n/a	n/a
1874.774	n/a	REC_WORD	937387	wordpools/wasnorm_wordpool.txt	LTP148	ltpFR	18	11	1	BOAT	144	n/a	n/a	0	n/a	n/a	n/a	n/a	n/a
1876.07	n/a	REC_WORD	938035	wordpools/wasnorm_wordpool.txt	LTP148	ltpFR	18	11	1	DOCK	477	n/a	n/a	0	n/a	n/a	n/a	n/a	n/a
1903.02	n/a	REC_WORD	951510	wordpools/wasnorm_wordpool.txt	LTP148	ltpFR	18	11	1	WINE	1613	n/a	n/a	0	n/a	n/a	n/a	n/a	n/a
1911.66	n/a	REC_WORD	955830	wordpools/wasnorm_wordpool.txt	LTP148	ltpFR	18	11	1	LAWYER	806	n/a	n/a	1	n/a	n/a	n/a	n/a	n/a
1924.008	n/a	REC_WORD	962004	wordpools/wasnorm_wordpool.txt	LTP148	ltpFR	18	11	0	DISHWASHER	475	n/a	n/a	1	n/a	n/a	n/a	n/a	n/a
1947.22	n/a	WORD	973610	wordpools/wasnorm_wordpool.txt	LTP148	ltpFR	18	12	0	LIPSTICK	829	n/a	n/a	0	0.57763671875	0.412841796875	1	upper	amplitud.ttf
1951.124	n/a	WORD	975562	wordpools/wasnorm_wordpool.txt	LTP148	ltpFR	18	12	0	PENNY	1045	n/a	n/a	0	0.57763671875	0.412841796875	1	upper	amplitud.ttf
1955.286	n/a	WORD	977643	wordpools/wasnorm_wordpool.txt	LTP148	ltpFR	18	12	0	CLARINET	317	n/a	n/a	0	0.57763671875	0.412841796875	1	upper	amplitud.ttf
1959.174	n/a	WORD	979587	wordpools/wasnorm_wordpool.txt	LTP148	ltpFR	18	12	0	CHAMBER	277	n/a	n/a	1	0.57763671875	0.412841796875	1	upper	amplitud.ttf
1962.994	n/a	WORD	981497	wordpools/wasnorm_wordpool.txt	LTP148	ltpFR	18	12	1	FRECKLE	602	n/a	n/a	0	0.422607421875	0.5869140625	0	lower	zerothre.ttf
1967.172	n/a	WORD	983586	wordpools/wasnorm_wordpool.txt	LTP148	ltpFR	18	12	1	ARMY	39	n/a	n/a	1	0.422607421875	0.5869140625	0	lower	zerothre.ttf
1971.134	n/a	WORD	985567	wordpools/wasnorm_wordpool.txt	LTP148	ltpFR	18	12	1	STAPLE	1371	n/a	n/a	0	0.422607421875	0.5869140625	0	lower	zerothre.ttf
1975.13	n/a	WORD	987565	wordpools/wasnorm_wordpool.txt	LTP148	ltpFR	18	12	1	ANCESTOR	20	n/a	n/a	0	0.422607421875	0.5869140625	0	lower	zerothre.ttf
1979.184	n/a	WORD	989592	wordpools/wasnorm_wordpool.txt	LTP148	ltpFR	18	12	0	ENEMY	534	n/a	n/a	1	0.57763671875	0.412841796875	1	upper	amplitud.ttf
1983.138	n/a	WORD	991569	wordpools/wasnorm_wordpool.txt	LTP148	ltpFR	18	12	0	LOVER	846	n/a	n/a	1	0.57763671875	0.412841796875	1	upper	amplitud.ttf
1987.016	n/a	WORD	993508	wordpools/wasnorm_wordpool.txt	LTP148	ltpFR	18	12	0	GENERAL	630	n/a	n/a	1	0.57763671875	0.412841796875	1	upper	amplitud.ttf
1990.886	n/a	WORD	995443	wordpools/wasnorm_wordpool.txt	LTP148	ltpFR	18	12	0	WIDOW	1608	n/a	n/a	1	0.57763671875	0.412841796875	1	upper	amplitud.ttf
1994.99	n/a	WORD	997495	wordpools/wasnorm_wordpool.txt	LTP148	ltpFR	18	12	1	SADDLE	1221	n/a	n/a	0	0.422607421875	0.5869140625	0	lower	zerothre.ttf
1999.002	n/a	WORD	999501	wordpools/wasnorm_wordpool.txt	LTP148	ltpFR	18	12	1	RIDER	1191	n/a	n/a	1	0.422607421875	0.5869140625	0	lower	zerothre.ttf
2003.056	n/a	WORD	1001528	wordpools/wasnorm_wordpool.txt	LTP148	ltpFR	18	12	1	RAKE	1164	n/a	n/a	0	0.422607421875	0.5869140625	0	lower	zerothre.ttf
2007.176	n/a	WORD	1003588	wordpools/wasnorm_wordpool.txt	LTP148	ltpFR	18	12	1	ICING	732	n/a	n/a	0	0.422607421875	0.5869140625	0	lower	zerothre.ttf
2013.112	n/a	REC_START	1006556	n/a	LTP148	ltpFR	18	12	n/a	n/a	n/a	n/a	n/a	n/a	n/a	n/a	n/a	n/a	n/a
2013.85	n/a	REC_WORD	1006925	wordpools/wasnorm_wordpool.txt	LTP148	ltpFR	18	12	0	WIDOW	1608	n/a	n/a	1	n/a	n/a	n/a	n/a	n/a
2014.362	n/a	REC_WORD	1007181	wordpools/wasnorm_wordpool.txt	LTP148	ltpFR	18	12	1	SADDLE	1221	n/a	n/a	0	n/a	n/a	n/a	n/a	n/a
2015.5	n/a	REC_WORD	1007750	wordpools/wasnorm_wordpool.txt	LTP148	ltpFR	18	12	1	RIDER	1191	n/a	n/a	1	n/a	n/a	n/a	n/a	n/a
2016.414	n/a	REC_WORD	1008207	wordpools/wasnorm_wordpool.txt	LTP148	ltpFR	18	12	1	RAKE	1164	n/a	n/a	0	n/a	n/a	n/a	n/a	n/a
2017.382	n/a	REC_WORD	1008691	wordpools/wasnorm_wordpool.txt	LTP148	ltpFR	18	12	1	ICING	732	n/a	n/a	0	n/a	n/a	n/a	n/a	n/a
2020.938	n/a	REC_WORD	1010469	wordpools/wasnorm_wordpool.txt	LTP148	ltpFR	18	12	0	ENEMY	534	n/a	n/a	1	n/a	n/a	n/a	n/a	n/a
2021.932	n/a	REC_WORD	1010966	wordpools/wasnorm_wordpool.txt	LTP148	ltpFR	18	12	0	LOVER	846	n/a	n/a	1	n/a	n/a	n/a	n/a	n/a
2024.406	n/a	REC_WORD	1012203	wordpools/wasnorm_wordpool.txt	LTP148	ltpFR	18	12	0	LIPSTICK	829	n/a	n/a	0	n/a	n/a	n/a	n/a	n/a
2025.878	n/a	REC_WORD	1012939	wordpools/wasnorm_wordpool.txt	LTP148	ltpFR	18	12	0	PENNY	1045	n/a	n/a	0	n/a	n/a	n/a	n/a	n/a
2027.798	n/a	REC_WORD	1013899	wordpools/wasnorm_wordpool.txt	LTP148	ltpFR	18	12	0	CLARINET	317	n/a	n/a	0	n/a	n/a	n/a	n/a	n/a
2028.816	n/a	REC_WORD	1014408	wordpools/wasnorm_wordpool.txt	LTP148	ltpFR	18	12	0	CHAMBER	277	n/a	n/a	1	n/a	n/a	n/a	n/a	n/a
2031.202	n/a	REC_WORD	1015601	wordpools/wasnorm_wordpool.txt	LTP148	ltpFR	18	12	1	FRECKLE	602	n/a	n/a	0	n/a	n/a	n/a	n/a	n/a
2032.538	n/a	REC_WORD	1016269	wordpools/wasnorm_wordpool.txt	LTP148	ltpFR	18	12	1	ARMY	39	n/a	n/a	1	n/a	n/a	n/a	n/a	n/a
2042.606	n/a	REC_WORD	1021303	wordpools/wasnorm_wordpool.txt	LTP148	ltpFR	18	12	0	OBOE	969	n/a	n/a	0	n/a	n/a	n/a	n/a	n/a
2072.726	n/a	REC_WORD	1036363	wordpools/wasnorm_wordpool.txt	LTP148	ltpFR	18	12	1	ANCESTOR	20	n/a	n/a	0	n/a	n/a	n/a	n/a	n/a
2088.684	n/a	REST_REWET	1044342	n/a	LTP148	ltpFR	18	12	n/a	n/a	n/a	n/a	n/a	n/a	n/a	n/a	n/a	n/a	n/a
2502.036	n/a	WORD	1251018	wordpools/wasnorm_wordpool.txt	LTP148	ltpFR	18	13	-1	MONK	910	n/a	n/a	-1	1.0	1.0	1	upper	Verdana.ttf
2506.156	n/a	WORD	1253078	wordpools/wasnorm_wordpool.txt	LTP148	ltpFR	18	13	-1	COUSIN	392	n/a	n/a	-1	1.0	1.0	1	upper	Verdana.ttf
2510.192	n/a	WORD	1255096	wordpools/wasnorm_wordpool.txt	LTP148	ltpFR	18	13	-1	SERVER	1272	n/a	n/a	-1	1.0	1.0	1	upper	Verdana.ttf
2514.322	n/a	WORD	1257161	wordpools/wasnorm_wordpool.txt	LTP148	ltpFR	18	13	-1	CATHEDRAL	260	n/a	n/a	-1	1.0	1.0	1	upper	Verdana.ttf
2518.384	n/a	WORD	1259192	wordpools/wasnorm_wordpool.txt	LTP148	ltpFR	18	13	-1	CAMERA	224	n/a	n/a	-1	1.0	1.0	1	upper	Verdana.ttf
2522.552	n/a	WORD	1261276	wordpools/wasnorm_wordpool.txt	LTP148	ltpFR	18	13	-1	GAVEL	627	n/a	n/a	-1	1.0	1.0	1	upper	Verdana.ttf
2526.648	n/a	WORD	1263324	wordpools/wasnorm_wordpool.txt	LTP148	ltpFR	18	13	-1	RAM	1165	n/a	n/a	-1	1.0	1.0	1	upper	Verdana.ttf
2530.512	n/a	WORD	1265256	wordpools/wasnorm_wordpool.txt	LTP148	ltpFR	18	13	-1	WAGON	1578	n/a	n/a	-1	1.0	1.0	1	upper	Verdana.ttf
2534.49	n/a	WORD	1267245	wordpools/wasnorm_wordpool.txt	LTP148	ltpFR	18	13	-1	DASHBOARD	441	n/a	n/a	-1	1.0	1.0	1	upper	Verdana.ttf
2538.318	n/a	WORD	1269159	wordpools/wasnorm_wordpool.txt	LTP148	ltpFR	18	13	-1	CRIMINAL	409	n/a	n/a	-1	1.0	1.0	1	upper	Verdana.ttf
2542.338	n/a	WORD	1271169	wordpools/wasnorm_wordpool.txt	LTP148	ltpFR	18	13	-1	DINNER	468	n/a	n/a	-1	1.0	1.0	1	upper	Verdana.ttf
2546.51	n/a	WORD	1273255	wordpools/wasnorm_wordpool.txt	LTP148	ltpFR	18	13	-1	BOY	161	n/a	n/a	-1	1.0	1.0	1	upper	Verdana.ttf
2550.462	n/a	WORD	1275231	wordpools/wasnorm_wordpool.txt	LTP148	ltpFR	18	13	-1	MICROWAVE	892	n/a	n/a	-1	1.0	1.0	1	upper	Verdana.ttf
2554.51	n/a	WORD	1277255	wordpools/wasnorm_wordpool.txt	LTP148	ltpFR	18	13	-1	COOK	372	n/a	n/a	-1	1.0	1.0	1	upper	Verdana.ttf
2558.38	n/a	WORD	1279190	wordpools/wasnorm_wordpool.txt	LTP148	ltpFR	18	13	-1	TELEPHONE	1445	n/a	n/a	-1	1.0	1.0	1	upper	Verdana.ttf
2562.458	n/a	WORD	1281229	wordpools/wasnorm_wordpool.txt	LTP148	ltpFR	18	13	-1	SECRETARY	1265	n/a	n/a	-1	1.0	1.0	1	upper	Verdana.ttf
2568.22	n/a	REC_START	1284110	n/a	LTP148	ltpFR	18	13	n/a	n/a	n/a	n/a	n/a	n/a	n/a	n/a	n/a	n/a	n/a
2569.92	n/a	REC_WORD	1284960	wordpools/wasnorm_wordpool.txt	LTP148	ltpFR	18	13	-1	MONK	910	n/a	n/a	-1	n/a	n/a	n/a	n/a	n/a
2570.73	n/a	REC_WORD	1285365	wordpools/wasnorm_wordpool.txt	LTP148	ltpFR	18	13	-1	CATHEDRAL	260	n/a	n/a	-1	n/a	n/a	n/a	n/a	n/a
2571.662	n/a	REC_WORD	1285831	wordpools/wasnorm_wordpool.txt	LTP148	ltpFR	18	13	-1	COUSIN	392	n/a	n/a	-1	n/a	n/a	n/a	n/a	n/a
2572.524	n/a	REC_WORD	1286262	wordpools/wasnorm_wordpool.txt	LTP148	ltpFR	18	13	-1	SERVER	1272	n/a	n/a	-1	n/a	n/a	n/a	n/a	n/a
2573.568	n/a	REC_WORD	1286784	wordpools/wasnorm_wordpool.txt	LTP148	ltpFR	18	13	-1	DINNER	468	n/a	n/a	-1	n/a	n/a	n/a	n/a	n/a
2574.326	n/a	REC_WORD	1287163	wordpools/wasnorm_wordpool.txt	LTP148	ltpFR	18	13	-1	TELEPHONE	1445	n/a	n/a	-1	n/a	n/a	n/a	n/a	n/a
2575.194	n/a	REC_WORD	1287597	wordpools/wasnorm_wordpool.txt	LTP148	ltpFR	18	13	-1	COOK	372	n/a	n/a	-1	n/a	n/a	n/a	n/a	n/a
2576.096	n/a	REC_WORD	1288048	wordpools/wasnorm_wordpool.txt	LTP148	ltpFR	18	13	-1	MICROWAVE	892	n/a	n/a	-1	n/a	n/a	n/a	n/a	n/a
2578.7	n/a	REC_WORD	1289350	wordpools/wasnorm_wordpool.txt	LTP148	ltpFR	18	13	-1	CAMERA	224	n/a	n/a	-1	n/a	n/a	n/a	n/a	n/a
2580.376	n/a	REC_WORD	1290188	wordpools/wasnorm_wordpool.txt	LTP148	ltpFR	18	13	-1	GAVEL	627	n/a	n/a	-1	n/a	n/a	n/a	n/a	n/a
2581.444	n/a	REC_WORD	1290722	wordpools/wasnorm_wordpool.txt	LTP148	ltpFR	18	13	-1	CRIMINAL	409	n/a	n/a	-1	n/a	n/a	n/a	n/a	n/a
2582.852	n/a	REC_WORD	1291426	wordpools/wasnorm_wordpool.txt	LTP148	ltpFR	18	13	-1	DASHBOARD	441	n/a	n/a	-1	n/a	n/a	n/a	n/a	n/a
2607.704	n/a	REC_WORD	1303852	wordpools/wasnorm_wordpool.txt	LTP148	ltpFR	18	13	-1	RAM	1165	n/a	n/a	-1	n/a	n/a	n/a	n/a	n/a
2612.084	n/a	REC_WORD	1306042	wordpools/wasnorm_wordpool.txt	LTP148	ltpFR	18	13	-1	SECRETARY	1265	n/a	n/a	-1	n/a	n/a	n/a	n/a	n/a
2647.444	n/a	WORD	1323722	wordpools/wasnorm_wordpool.txt	LTP148	ltpFR	18	14	-1	CREATURE	403	n/a	n/a	-1	1.0	1.0	1	upper	Verdana.ttf
2651.39	n/a	WORD	1325695	wordpools/wasnorm_wordpool.txt	LTP148	ltpFR	18	14	-1	BUFFALO	186	n/a	n/a	-1	1.0	1.0	1	upper	Verdana.ttf
2655.252	n/a	WORD	1327626	wordpools/wasnorm_wordpool.txt	LTP148	ltpFR	18	14	-1	NIECE	952	n/a	n/a	-1	1.0	1.0	1	upper	Verdana.ttf
2659.13	n/a	WORD	1329565	wordpools/wasnorm_wordpool.txt	LTP148	ltpFR	18	14	-1	SKELETON	1314	n/a	n/a	-1	1.0	1.0	1	upper	Verdana.ttf
2663.042	n/a	WORD	1331521	wordpools/wasnorm_wordpool.txt	LTP148	ltpFR	18	14	-1	SHELTER	1282	n/a	n/a	-1	1.0	1.0	1	upper	Verdana.ttf
2667.146	n/a	WORD	1333573	wordpools/wasnorm_wordpool.txt	LTP148	ltpFR	18	14	-1	MOLECULE	905	n/a	n/a	-1	1.0	1.0	1	upper	Verdana.ttf
2671.076	n/a	WORD	1335538	wordpools/wasnorm_wordpool.txt	LTP148	ltpFR	18	14	-1	AUNT	60	n/a	n/a	-1	1.0	1.0	1	upper	Verdana.ttf
2675.17	n/a	WORD	1337585	wordpools/wasnorm_wordpool.txt	LTP148	ltpFR	18	14	-1	RANCH	1166	n/a	n/a	-1	1.0	1.0	1	upper	Verdana.ttf
2679.19	n/a	WORD	1339595	wordpools/wasnorm_wordpool.txt	LTP148	ltpFR	18	14	-1	SHOULDER	1294	n/a	n/a	-1	1.0	1.0	1	upper	Verdana.ttf
2683.194	n/a	WORD	1341597	wordpools/wasnorm_wordpool.txt	LTP148	ltpFR	18	14	-1	VINE	1568	n/a	n/a	-1	1.0	1.0	1	upper	Verdana.ttf
2687.074	n/a	WORD	1343537	wordpools/wasnorm_wordpool.txt	LTP148	ltpFR	18	14	-1	BANANA	77	n/a	n/a	-1	1.0	1.0	1	upper	Verdana.ttf
2691.044	n/a	WORD	1345522	wordpools/wasnorm_wordpool.txt	LTP148	ltpFR	18	14	-1	VIOLIN	1571	n/a	n/a	-1	1.0	1.0	1	upper	Verdana.ttf
2695.248	n/a	WORD	1347624	wordpools/wasnorm_wordpool.txt	LTP148	ltpFR	18	14	-1	MAJOR	859	n/a	n/a	-1	1.0	1.0	1	upper	Verdana.ttf
2699.176	n/a	WORD	1349588	wordpools/wasnorm_wordpool.txt	LTP148	ltpFR	18	14	-1	MINER	896	n/a	n/a	-1	1.0	1.0	1	upper	Verdana.ttf
2703.08	n/a	WORD	1351540	wordpools/wasnorm_wordpool.txt	LTP148	ltpFR	18	14	-1	BARN	89	n/a	n/a	-1	1.0	1.0	1	upper	Verdana.ttf
2707.11	n/a	WORD	1353555	wordpools/wasnorm_wordpool.txt	LTP148	ltpFR	18	14	-1	EXPLOSION	544	n/a	n/a	-1	1.0	1.0	1	upper	Verdana.ttf
2712.846	n/a	REC_START	1356423	n/a	LTP148	ltpFR	18	14	n/a	n/a	n/a	n/a	n/a	n/a	n/a	n/a	n/a	n/a	n/a
2714.252	n/a	REC_WORD	1357126	wordpools/wasnorm_wordpool.txt	LTP148	ltpFR	18	14	-1	MAJOR	859	n/a	n/a	-1	n/a	n/a	n/a	n/a	n/a
2714.77	n/a	REC_WORD	1357385	wordpools/wasnorm_wordpool.txt	LTP148	ltpFR	18	14	-1	MINER	896	n/a	n/a	-1	n/a	n/a	n/a	n/a	n/a
2716.592	n/a	REC_WORD	1358296	wordpools/wasnorm_wordpool.txt	LTP148	ltpFR	18	14	-1	BARN	89	n/a	n/a	-1	n/a	n/a	n/a	n/a	n/a
2717.104	n/a	REC_WORD	1358552	wordpools/wasnorm_wordpool.txt	LTP148	ltpFR	18	14	-1	EXPLOSION	544	n/a	n/a	-1	n/a	n/a	n/a	n/a	n/a
2718.912	n/a	REC_WORD	1359456	wordpools/wasnorm_wordpool.txt	LTP148	ltpFR	18	14	-1	SHELTER	1282	n/a	n/a	-1	n/a	n/a	n/a	n/a	n/a
2719.99	n/a	REC_WORD	1359995	wordpools/wasnorm_wordpool.txt	LTP148	ltpFR	18	14	-1	SHOULDER	1294	n/a	n/a	-1	n/a	n/a	n/a	n/a	n/a
2722.248	n/a	REC_WORD	1361124	wordpools/wasnorm_wordpool.txt	LTP148	ltpFR	18	14	-1	VINE	1568	n/a	n/a	-1	n/a	n/a	n/a	n/a	n/a
2723.142	n/a	REC_WORD	1361571	wordpools/wasnorm_wordpool.txt	LTP148	ltpFR	18	14	-1	BANANA	77	n/a	n/a	-1	n/a	n/a	n/a	n/a	n/a
2724.638	n/a	REC_WORD	1362319	wordpools/wasnorm_wordpool.txt	LTP148	ltpFR	18	14	-1	NIECE	952	n/a	n/a	-1	n/a	n/a	n/a	n/a	n/a
2725.342	n/a	REC_WORD	1362671	wordpools/wasnorm_wordpool.txt	LTP148	ltpFR	18	14	-1	AUNT	60	n/a	n/a	-1	n/a	n/a	n/a	n/a	n/a
2725.986	n/a	REC_WORD	1362993	wordpools/wasnorm_wordpool.txt	LTP148	ltpFR	18	14	-1	RANCH	1166	n/a	n/a	-1	n/a	n/a	n/a	n/a	n/a
2728.56	n/a	REC_WORD	1364280	wordpools/wasnorm_wordpool.txt	LTP148	ltpFR	18	14	-1	BUFFALO	186	n/a	n/a	-1	n/a	n/a	n/a	n/a	n/a
2729.238	n/a	REC_WORD	1364619	wordpools/wasnorm_wordpool.txt	LTP148	ltpFR	18	14	-1	CREATURE	403	n/a	n/a	-1	n/a	n/a	n/a	n/a	n/a
2729.82	n/a	REC_WORD	1364910	wordpools/wasnorm_wordpool.txt	LTP148	ltpFR	18	14	-1	SKELETON	1314	n/a	n/a	-1	n/a	n/a	n/a	n/a	n/a
2739.888	n/a	REC_WORD	1369944	wordpools/wasnorm_wordpool.txt	LTP148	ltpFR	18	14	-1	MOLECULE	905	n/a	n/a	-1	n/a	n/a	n/a	n/a	n/a
2748.958	n/a	REC_WORD	1374479	wordpools/wasnorm_wordpool.txt	LTP148	ltpFR	18	14	-1	VIOLIN	1571	n/a	n/a	-1	n/a	n/a	n/a	n/a	n/a
2752.012	n/a	REC_WORD	1376006	wordpools/wasnorm_wordpool.txt	LTP148	ltpFR	18	14	1	MOTHER	921	n/a	n/a	1	n/a	n/a	n/a	n/a	n/a
2753.148	n/a	REC_WORD	1376574	wordpools/wasnorm_wordpool.txt	LTP148	ltpFR	18	14	-1	VIOLA	1570	n/a	n/a	-1	n/a	n/a	n/a	n/a	n/a
2775.12	n/a	REC_WORD	1387560	wordpools/wasnorm_wordpool.txt	LTP148	ltpFR	18	14	-1	CREATURE	403	n/a	n/a	-1	n/a	n/a	n/a	n/a	n/a
2776.516	n/a	REC_WORD	1388258	wordpools/wasnorm_wordpool.txt	LTP148	ltpFR	18	14	-1	BUFFALO	186	n/a	n/a	-1	n/a	n/a	n/a	n/a	n/a
2779.828	n/a	REC_WORD	1389914	wordpools/wasnorm_wordpool.txt	LTP148	ltpFR	18	14	-1	RANCH	1166	n/a	n/a	-1	n/a	n/a	n/a	n/a	n/a
2803.64	n/a	WORD	1401820	wordpools/wasnorm_wordpool.txt	LTP148	ltpFR	18	15	0	ASSOCIATE	49	n/a	n/a	1	0.57763671875	0.412841796875	1	upper	amplitud.ttf
2807.678	n/a	WORD	1403839	wordpools/wasnorm_wordpool.txt	LTP148	ltpFR	18	15	0	PITCHFORK	1078	n/a	n/a	1	0.57763671875	0.412841796875	1	upper	amplitud.ttf
2811.506	n/a	WORD	1405753	wordpools/wasnorm_wordpool.txt	LTP148	ltpFR	18	15	1	HAY	693	n/a	n/a	0	0.422607421875	0.5869140625	0	lower	zerothre.ttf
2815.436	n/a	WORD	1407718	wordpools/wasnorm_wordpool.txt	LTP148	ltpFR	18	15	1	RUNNER	1218	n/a	n/a	1	0.422607421875	0.5869140625	0	lower	zerothre.ttf
2819.53	n/a	WORD	1409765	wordpools/wasnorm_wordpool.txt	LTP148	ltpFR	18	15	0	RAIL	1161	n/a	n/a	1	0.57763671875	0.412841796875	1	upper	amplitud.ttf
2823.434	n/a	WORD	1411717	wordpools/wasnorm_wordpool.txt	LTP148	ltpFR	18	15	0	SALT	1229	n/a	n/a	0	0.57763671875	0.412841796875	1	upper	amplitud.ttf
2827.596	n/a	WORD	1413798	wordpools/wasnorm_wordpool.txt	LTP148	ltpFR	18	15	0	CONTRACTOR	369	n/a	n/a	1	0.57763671875	0.412841796875	1	upper	amplitud.ttf
2831.634	n/a	WORD	1415817	wordpools/wasnorm_wordpool.txt	LTP148	ltpFR	18	15	0	DEPARTMENT	449	n/a	n/a	1	0.57763671875	0.412841796875	1	upper	amplitud.ttf
2835.67	n/a	WORD	1417835	wordpools/wasnorm_wordpool.txt	LTP148	ltpFR	18	15	1	SPICE	1350	n/a	n/a	0	0.422607421875	0.5869140625	0	lower	zerothre.ttf
2839.648	n/a	WORD	1419824	wordpools/wasnorm_wordpool.txt	LTP148	ltpFR	18	15	1	VEST	1559	n/a	n/a	0	0.422607421875	0.5869140625	0	lower	zerothre.ttf
2843.678	n/a	WORD	1421839	wordpools/wasnorm_wordpool.txt	LTP148	ltpFR	18	15	1	DESK	452	n/a	n/a	0	0.422607421875	0.5869140625	0	lower	zerothre.ttf
2847.748	n/a	WORD	1423874	wordpools/wasnorm_wordpool.txt	LTP148	ltpFR	18	15	1	HANDBAG	684	n/a	n/a	0	0.422607421875	0.5869140625	0	lower	zerothre.ttf
2851.786	n/a	WORD	1425893	wordpools/wasnorm_wordpool.txt	LTP148	ltpFR	18	15	1	KANGAROO	768	n/a	n/a	1	0.422607421875	0.5869140625	0	lower	zerothre.ttf
2855.606	n/a	WORD	1427803	wordpools/wasnorm_wordpool.txt	LTP148	ltpFR	18	15	1	CAT	257	n/a	n/a	1	0.422607421875	0.5869140625	0	lower	zerothre.ttf
2859.436	n/a	WORD	1429718	wordpools/wasnorm_wordpool.txt	LTP148	ltpFR	18	15	0	COBRA	336	n/a	n/a	1	0.57763671875	0.412841796875	1	upper	amplitud.ttf
2863.63	n/a	WORD	1431815	wordpools/wasnorm_wordpool.txt	LTP148	ltpFR	18	15	0	OUTFIT	988	n/a	n/a	1	0.57763671875	0.412841796875	1	upper	amplitud.ttf
2869.358	n/a	REC_START	1434679	n/a	LTP148	ltpFR	18	15	n/a	n/a	n/a	n/a	n/a	n/a	n/a	n/a	n/a	n/a	n/a
2872.34	n/a	REC_WORD	1436170	wordpools/wasnorm_wordpool.txt	LTP148	ltpFR	18	15	0	OUTFIT	988	n/a	n/a	1	n/a	n/a	n/a	n/a	n/a
2878.946	n/a	REC_WORD	1439473	wordpools/wasnorm_wordpool.txt	LTP148	ltpFR	18	15	1	CAT	257	n/a	n/a	1	n/a	n/a	n/a	n/a	n/a
2879.818	n/a	REC_WORD	1439909	wordpools/wasnorm_wordpool.txt	LTP148	ltpFR	18	15	1	KANGAROO	768	n/a	n/a	1	n/a	n/a	n/a	n/a	n/a
2880.872	n/a	REC_WORD	1440436	wordpools/wasnorm_wordpool.txt	LTP148	ltpFR	18	15	1	HANDBAG	684	n/a	n/a	0	n/a	n/a	n/a	n/a	n/a
2886.08	n/a	REC_WORD	1443040	wordpools/wasnorm_wordpool.txt	LTP148	ltpFR	18	15	0	SALT	1229	n/a	n/a	0	n/a	n/a	n/a	n/a	n/a
2886.882	n/a	REC_WORD	1443441	wordpools/wasnorm_wordpool.txt	LTP148	ltpFR	18	15	0	CONTRACTOR	369	n/a	n/a	1	n/a	n/a	n/a	n/a	n/a
2887.896	n/a	REC_WORD	1443948	wordpools/wasnorm_wordpool.txt	LTP148	ltpFR	18	15	1	VEST	1559	n/a	n/a	0	n/a	n/a	n/a	n/a	n/a
2889.83	n/a	REC_WORD	1444915	wordpools/wasnorm_wordpool.txt	LTP148	ltpFR	18	15	0	DEPARTMENT	449	n/a	n/a	1	n/a	n/a	n/a	n/a	n/a
2892.246	n/a	REC_WORD	1446123	wordpools/wasnorm_wordpool.txt	LTP148	ltpFR	18	15	0	ASSOCIATE	49	n/a	n/a	1	n/a	n/a	n/a	n/a	n/a
2893.024	n/a	REC_WORD	1446512	wordpools/wasnorm_wordpool.txt	LTP148	ltpFR	18	15	1	HAY	693	n/a	n/a	0	n/a	n/a	n/a	n/a	n/a
2894.34	n/a	REC_WORD	1447170	wordpools/wasnorm_wordpool.txt	LTP148	ltpFR	18	15	1	RUNNER	1218	n/a	n/a	1	n/a	n/a	n/a	n/a	n/a
2895.224	n/a	REC_WORD	1447612	wordpools/wasnorm_wordpool.txt	LTP148	ltpFR	18	15	0	PITCHFORK	1078	n/a	n/a	1	n/a	n/a	n/a	n/a	n/a
2900.436	n/a	REC_WORD	1450218	wordpools/wasnorm_wordpool.txt	LTP148	ltpFR	18	15	-1	BARN	89	n/a	n/a	-1	n/a	n/a	n/a	n/a	n/a
2906.648	n/a	REC_WORD	1453324	wordpools/wasnorm_wordpool.txt	LTP148	ltpFR	18	15	0	CONTRACTOR	369	n/a	n/a	1	n/a	n/a	n/a	n/a	n/a
2924.896	n/a	REC_WORD	1462448	wordpools/wasnorm_wordpool.txt	LTP148	ltpFR	18	15	0	AGENT	10	n/a	n/a	1	n/a	n/a	n/a	n/a	n/a
2948.1	n/a	WORD	1474050	wordpools/wasnorm_wordpool.txt	LTP148	ltpFR	18	16	-1	POLYESTER	1100	n/a	n/a	-1	1.0	1.0	1	upper	Verdana.ttf
2952.204	n/a	WORD	1476102	wordpools/wasnorm_wordpool.txt	LTP148	ltpFR	18	16	-1	TOENAIL	1474	n/a	n/a	-1	1.0	1.0	1	upper	Verdana.ttf
2956.29	n/a	WORD	1478145	wordpools/wasnorm_wordpool.txt	LTP148	ltpFR	18	16	-1	PEAR	1033	n/a	n/a	-1	1.0	1.0	1	upper	Verdana.ttf
2960.302	n/a	WORD	1480151	wordpools/wasnorm_wordpool.txt	LTP148	ltpFR	18	16	-1	BLACKBERRY	132	n/a	n/a	-1	1.0	1.0	1	upper	Verdana.ttf
2964.116	n/a	WORD	1482058	wordpools/wasnorm_wordpool.txt	LTP148	ltpFR	18	16	-1	VEIN	1554	n/a	n/a	-1	1.0	1.0	1	upper	Verdana.ttf
2968.168	n/a	WORD	1484084	wordpools/wasnorm_wordpool.txt	LTP148	ltpFR	18	16	-1	ACORN	3	n/a	n/a	-1	1.0	1.0	1	upper	Verdana.ttf
2972.314	n/a	WORD	1486157	wordpools/wasnorm_wordpool.txt	LTP148	ltpFR	18	16	-1	HAMPER	682	n/a	n/a	-1	1.0	1.0	1	upper	Verdana.ttf
2976.468	n/a	WORD	1488234	wordpools/wasnorm_wordpool.txt	LTP148	ltpFR	18	16	-1	STAKE	1368	n/a	n/a	-1	1.0	1.0	1	upper	Verdana.ttf
2980.512	n/a	WORD	1490256	wordpools/wasnorm_wordpool.txt	LTP148	ltpFR	18	16	-1	HOSTESS	723	n/a	n/a	-1	1.0	1.0	1	upper	Verdana.ttf
2984.642	n/a	WORD	1492321	wordpools/wasnorm_wordpool.txt	LTP148	ltpFR	18	16	-1	SHOE	1288	n/a	n/a	-1	1.0	1.0	1	upper	Verdana.ttf
2988.812	n/a	WORD	1494406	wordpools/wasnorm_wordpool.txt	LTP148	ltpFR	18	16	-1	RECORD	1176	n/a	n/a	-1	1.0	1.0	1	upper	Verdana.ttf
2992.816	n/a	WORD	1496408	wordpools/wasnorm_wordpool.txt	LTP148	ltpFR	18	16	-1	SAP	1233	n/a	n/a	-1	1.0	1.0	1	upper	Verdana.ttf
2996.828	n/a	WORD	1498414	wordpools/wasnorm_wordpool.txt	LTP148	ltpFR	18	16	-1	DOUGHNUT	490	n/a	n/a	-1	1.0	1.0	1	upper	Verdana.ttf
3000.948	n/a	WORD	1500474	wordpools/wasnorm_wordpool.txt	LTP148	ltpFR	18	16	-1	HANDCUFFS	685	n/a	n/a	-1	1.0	1.0	1	upper	Verdana.ttf
3004.77	n/a	WORD	1502385	wordpools/wasnorm_wordpool.txt	LTP148	ltpFR	18	16	-1	STAPLER	1372	n/a	n/a	-1	1.0	1.0	1	upper	Verdana.ttf
3008.772	n/a	WORD	1504386	wordpools/wasnorm_wordpool.txt	LTP148	ltpFR	18	16	-1	TYPEWRITER	1531	n/a	n/a	-1	1.0	1.0	1	upper	Verdana.ttf
3014.434	n/a	REC_START	1507217	n/a	LTP148	ltpFR	18	16	n/a	n/a	n/a	n/a	n/a	n/a	n/a	n/a	n/a	n/a	n/a
3015.64	n/a	REC_WORD	1507820	wordpools/wasnorm_wordpool.txt	LTP148	ltpFR	18	16	-1	STAPLER	1372	n/a	n/a	-1	n/a	n/a	n/a	n/a	n/a
3016.822	n/a	REC_WORD	1508411	wordpools/wasnorm_wordpool.txt	LTP148	ltpFR	18	16	-1	TYPEWRITER	1531	n/a	n/a	-1	n/a	n/a	n/a	n/a	n/a
3017.8	n/a	REC_WORD	1508900	wordpools/wasnorm_wordpool.txt	LTP148	ltpFR	18	16	-1	HANDCUFFS	685	n/a	n/a	-1	n/a	n/a	n/a	n/a	n/a
3018.928	n/a	REC_WORD	1509464	wordpools/wasnorm_wordpool.txt	LTP148	ltpFR	18	16	-1	POLYESTER	1100	n/a	n/a	-1	n/a	n/a	n/a	n/a	n/a
3020.68	n/a	REC_WORD	1510340	wordpools/wasnorm_wordpool.txt	LTP148	ltpFR	18	16	-1	TOENAIL	1474	n/a	n/a	-1	n/a	n/a	n/a	n/a	n/a
3021.642	n/a	REC_WORD	1510821	wordpools/wasnorm_wordpool.txt	LTP148	ltpFR	18	16	-1	RECORD	1176	n/a	n/a	-1	n/a	n/a	n/a	n/a	n/a
3025.388	n/a	REC_WORD	1512694	wordpools/wasnorm_wordpool.txt	LTP148	ltpFR	18	16	-1	TYPEWRITER	1531	n/a	n/a	-1	n/a	n/a	n/a	n/a	n/a
3027.484	n/a	REC_WORD	1513742	wordpools/wasnorm_wordpool.txt	LTP148	ltpFR	18	16	-1	SAP	1233	n/a	n/a	-1	n/a	n/a	n/a	n/a	n/a
3029.674	n/a	REC_WORD	1514837	wordpools/wasnorm_wordpool.txt	LTP148	ltpFR	18	16	n/a	VAMPIRE	1547	n/a	n/a	n/a	n/a	n/a	n/a	n/a	n/a
3031.32	n/a	REC_WORD	1515660	wordpools/wasnorm_wordpool.txt	LTP148	ltpFR	18	16	-1	STAKE	1368	n/a	n/a	-1	n/a	n/a	n/a	n/a	n/a
3041.338	n/a	REC_WORD	1520669	wordpools/wasnorm_wordpool.txt	LTP148	ltpFR	18	16	-1	HOSTESS	723	n/a	n/a	-1	n/a	n/a	n/a	n/a	n/a
3047.044	n/a	REC_WORD	1523522	wordpools/wasnorm_wordpool.txt	LTP148	ltpFR	18	16	-1	BLACKBERRY	132	n/a	n/a	-1	n/a	n/a	n/a	n/a	n/a
3052.772	n/a	REC_WORD	1526386	wordpools/wasnorm_wordpool.txt	LTP148	ltpFR	18	16	-1	ACORN	3	n/a	n/a	-1	n/a	n/a	n/a	n/a	n/a
3053.644	n/a	REC_WORD	1526822	wordpools/wasnorm_wordpool.txt	LTP148	ltpFR	18	16	-1	PEAR	1033	n/a	n/a	-1	n/a	n/a	n/a	n/a	n/a
3054.328	n/a	REC_WORD	1527164	wordpools/wasnorm_wordpool.txt	LTP148	ltpFR	18	16	-1	DOUGHNUT	490	n/a	n/a	-1	n/a	n/a	n/a	n/a	n/a
3059.422	n/a	REC_WORD	1529711	wordpools/wasnorm_wordpool.txt	LTP148	ltpFR	18	16	0	PEPPER	1047	n/a	n/a	0	n/a	n/a	n/a	n/a	n/a
3060.228	n/a	REC_WORD	1530114	wordpools/wasnorm_wordpool.txt	LTP148	ltpFR	18	16	0	SALT	1229	n/a	n/a	0	n/a	n/a	n/a	n/a	n/a
3062.354	n/a	REC_WORD	1531177	wordpools/wasnorm_wordpool.txt	LTP148	ltpFR	18	16	0	DRINK	498	n/a	n/a	0	n/a	n/a	n/a	n/a	n/a
3069.244	n/a	REC_WORD	1534622	wordpools/wasnorm_wordpool.txt	LTP148	ltpFR	18	16	-1	HOSTESS	723	n/a	n/a	-1	n/a	n/a	n/a	n/a	n/a
3077.636	n/a	REC_WORD	1538818	wordpools/wasnorm_wordpool.txt	LTP148	ltpFR	18	16	-1	SHOE	1288	n/a	n/a	-1	n/a	n/a	n/a	n/a	n/a
3107.21	n/a	REC_START	1553605	n/a	LTP148	ltpFR	18	1	n/a	n/a	n/a	n/a	n/a	n/a	n/a	n/a	n/a	n/a	n/a
3107.234	n/a	RECOG_LURE	1553617	n/a	LTP148	ltpFR	18	1	n/a	PUDDLE	1140	0	4	n/a	n/a	n/a	n/a	n/a	n/a
3108.682	n/a	RECOG_RESP	1554341	n/a	LTP148	ltpFR	18	1	n/a	PUDDLE	1140	0	n/a	n/a	n/a	n/a	n/a	n/a	n/a
3110.138	n/a	RECOG_CONF	1555069	n/a	LTP148	ltpFR	18	1	n/a	PUDDLE	1140	n/a	4	n/a	n/a	n/a	n/a	n/a	n/a
3111.746	n/a	RECOG_TARGET	1555873	n/a	LTP148	ltpFR	18	1	1	STAPLE	1371	1	5	0	n/a	n/a	n/a	n/a	n/a
3112.524	n/a	RECOG_RESP	1556262	n/a	LTP148	ltpFR	18	1	1	STAPLE	1371	1	n/a	0	n/a	n/a	n/a	n/a	n/a
3113.462	n/a	RECOG_CONF	1556731	n/a	LTP148	ltpFR	18	1	1	STAPLE	1371	n/a	5	0	n/a	n/a	n/a	n/a	n/a
3114.968	n/a	RECOG_TARGET	1557484	n/a	LTP148	ltpFR	18	1	0	OUTDOORS	987	1	4	1	n/a	n/a	n/a	n/a	n/a
3115.666	n/a	RECOG_RESP	1557833	n/a	LTP148	ltpFR	18	1	0	OUTDOORS	987	1	n/a	1	n/a	n/a	n/a	n/a	n/a
3116.564	n/a	RECOG_CONF	1558282	n/a	LTP148	ltpFR	18	1	0	OUTDOORS	987	n/a	4	1	n/a	n/a	n/a	n/a	n/a
3117.972	n/a	RECOG_LURE	1558986	n/a	LTP148	ltpFR	18	1	n/a	TRENCH	1503	0	4	n/a	n/a	n/a	n/a	n/a	n/a
3118.808	n/a	RECOG_RESP	1559404	n/a	LTP148	ltpFR	18	1	n/a	TRENCH	1503	0	n/a	n/a	n/a	n/a	n/a	n/a	n/a
3119.628	n/a	RECOG_CONF	1559814	n/a	LTP148	ltpFR	18	1	n/a	TRENCH	1503	n/a	4	n/a	n/a	n/a	n/a	n/a	n/a
3120.986	n/a	RECOG_TARGET	1560493	n/a	LTP148	ltpFR	18	1	0	PEPPER	1047	1	5	0	n/a	n/a	n/a	n/a	n/a
3121.612	n/a	RECOG_RESP	1560806	n/a	LTP148	ltpFR	18	1	0	PEPPER	1047	1	n/a	0	n/a	n/a	n/a	n/a	n/a
3122.282	n/a	RECOG_CONF	1561141	n/a	LTP148	ltpFR	18	1	0	PEPPER	1047	n/a	5	0	n/a	n/a	n/a	n/a	n/a
3123.658	n/a	RECOG_LURE	1561829	n/a	LTP148	ltpFR	18	1	n/a	PUCK	1138	0	4	n/a	n/a	n/a	n/a	n/a	n/a
3124.336	n/a	RECOG_RESP	1562168	n/a	LTP148	ltpFR	18	1	n/a	PUCK	1138	0	n/a	n/a	n/a	n/a	n/a	n/a	n/a
3125.024	n/a	RECOG_CONF	1562512	n/a	LTP148	ltpFR	18	1	n/a	PUCK	1138	n/a	4	n/a	n/a	n/a	n/a	n/a	n/a
3126.33	n/a	RECOG_TARGET	1563165	n/a	LTP148	ltpFR	18	1	-1	EXPLOSION	544	1	4	-1	n/a	n/a	n/a	n/a	n/a
3126.97	n/a	RECOG_RESP	1563485	n/a	LTP148	ltpFR	18	1	-1	EXPLOSION	544	1	n/a	-1	n/a	n/a	n/a	n/a	n/a
3127.658	n/a	RECOG_CONF	1563829	n/a	LTP148	ltpFR	18	1	-1	EXPLOSION	544	n/a	4	-1	n/a	n/a	n/a	n/a	n/a
3128.994	n/a	RECOG_TARGET	1564497	n/a	LTP148	ltpFR	18	1	0	GENERAL	630	1	5	1	n/a	n/a	n/a	n/a	n/a
3129.854	n/a	RECOG_RESP	1564927	n/a	LTP148	ltpFR	18	1	0	GENERAL	630	1	n/a	1	n/a	n/a	n/a	n/a	n/a
3130.492	n/a	RECOG_CONF	1565246	n/a	LTP148	ltpFR	18	1	0	GENERAL	630	n/a	5	1	n/a	n/a	n/a	n/a	n/a
3131.864	n/a	RECOG_TARGET	1565932	n/a	LTP148	ltpFR	18	1	1	ORANGE	980	1	5	1	n/a	n/a	n/a	n/a	n/a
3132.558	n/a	RECOG_RESP	1566279	n/a	LTP148	ltpFR	18	1	1	ORANGE	980	1	n/a	1	n/a	n/a	n/a	n/a	n/a
3133.246	n/a	RECOG_CONF	1566623	n/a	LTP148	ltpFR	18	1	1	ORANGE	980	n/a	5	1	n/a	n/a	n/a	n/a	n/a
3134.678	n/a	RECOG_LURE	1567339	n/a	LTP148	ltpFR	18	1	n/a	FOSSIL	596	0	4	n/a	n/a	n/a	n/a	n/a	n/a
3135.432	n/a	RECOG_RESP	1567716	n/a	LTP148	ltpFR	18	1	n/a	FOSSIL	596	0	n/a	n/a	n/a	n/a	n/a	n/a	n/a
3136.09	n/a	RECOG_CONF	1568045	n/a	LTP148	ltpFR	18	1	n/a	FOSSIL	596	n/a	4	n/a	n/a	n/a	n/a	n/a	n/a
3137.466	n/a	RECOG_LURE	1568733	n/a	LTP148	ltpFR	18	1	n/a	HOSPITAL	721	0	5	n/a	n/a	n/a	n/a	n/a	n/a
3138.076	n/a	RECOG_RESP	1569038	n/a	LTP148	ltpFR	18	1	n/a	HOSPITAL	721	0	n/a	n/a	n/a	n/a	n/a	n/a	n/a
3138.754	n/a	RECOG_CONF	1569377	n/a	LTP148	ltpFR	18	1	n/a	HOSPITAL	721	n/a	5	n/a	n/a	n/a	n/a	n/a	n/a
3140.096	n/a	RECOG_LURE	1570048	n/a	LTP148	ltpFR	18	1	n/a	MAGAZINE	853	0	4	n/a	n/a	n/a	n/a	n/a	n/a
3140.848	n/a	RECOG_RESP	1570424	n/a	LTP148	ltpFR	18	1	n/a	MAGAZINE	853	0	n/a	n/a	n/a	n/a	n/a	n/a	n/a
3141.638	n/a	RECOG_CONF	1570819	n/a	LTP148	ltpFR	18	1	n/a	MAGAZINE	853	n/a	4	n/a	n/a	n/a	n/a	n/a	n/a
3142.976	n/a	RECOG_TARGET	1571488	n/a	LTP148	ltpFR	18	1	-1	NIECE	952	1	5	-1	n/a	n/a	n/a	n/a	n/a
3143.602	n/a	RECOG_RESP	1571801	n/a	LTP148	ltpFR	18	1	-1	NIECE	952	1	n/a	-1	n/a	n/a	n/a	n/a	n/a
3144.282	n/a	RECOG_CONF	1572141	n/a	LTP148	ltpFR	18	1	-1	NIECE	952	n/a	5	-1	n/a	n/a	n/a	n/a	n/a
3145.648	n/a	RECOG_LURE	1572824	n/a	LTP148	ltpFR	18	1	n/a	BED	110	0	4	n/a	n/a	n/a	n/a	n/a	n/a
3146.536	n/a	RECOG_RESP	1573268	n/a	LTP148	ltpFR	18	1	n/a	BED	110	0	n/a	n/a	n/a	n/a	n/a	n/a	n/a
3147.196	n/a	RECOG_CONF	1573598	n/a	LTP148	ltpFR	18	1	n/a	BED	110	n/a	4	n/a	n/a	n/a	n/a	n/a	n/a
3148.546	n/a	RECOG_TARGET	1574273	n/a	LTP148	ltpFR	18	1	1	RIDER	1191	1	5	1	n/a	n/a	n/a	n/a	n/a
3149.22	n/a	RECOG_RESP	1574610	n/a	LTP148	ltpFR	18	1	1	RIDER	1191	1	n/a	1	n/a	n/a	n/a	n/a	n/a
3149.89	n/a	RECOG_CONF	1574945	n/a	LTP148	ltpFR	18	1	1	RIDER	1191	n/a	5	1	n/a	n/a	n/a	n/a	n/a
3151.268	n/a	RECOG_LURE	1575634	n/a	LTP148	ltpFR	18	1	n/a	RIFLE	1192	0	5	n/a	n/a	n/a	n/a	n/a	n/a
3151.974	n/a	RECOG_RESP	1575987	n/a	LTP148	ltpFR	18	1	n/a	RIFLE	1192	0	n/a	n/a	n/a	n/a	n/a	n/a	n/a
3152.672	n/a	RECOG_CONF	1576336	n/a	LTP148	ltpFR	18	1	n/a	RIFLE	1192	n/a	5	n/a	n/a	n/a	n/a	n/a	n/a
3154.024	n/a	RECOG_TARGET	1577012	n/a	LTP148	ltpFR	18	1	0	MEAT	883	1	5	0	n/a	n/a	n/a	n/a	n/a
3154.718	n/a	RECOG_RESP	1577359	n/a	LTP148	ltpFR	18	1	0	MEAT	883	1	n/a	0	n/a	n/a	n/a	n/a	n/a
3155.386	n/a	RECOG_CONF	1577693	n/a	LTP148	ltpFR	18	1	0	MEAT	883	n/a	5	0	n/a	n/a	n/a	n/a	n/a
3156.77	n/a	RECOG_TARGET	1578385	n/a	LTP148	ltpFR	18	1	-1	GAVEL	627	1	5	-1	n/a	n/a	n/a	n/a	n/a
3157.482	n/a	RECOG_RESP	1578741	n/a	LTP148	ltpFR	18	1	-1	GAVEL	627	1	n/a	-1	n/a	n/a	n/a	n/a	n/a
3158.13	n/a	RECOG_CONF	1579065	n/a	LTP148	ltpFR	18	1	-1	GAVEL	627	n/a	5	-1	n/a	n/a	n/a	n/a	n/a
3159.492	n/a	RECOG_TARGET	1579746	n/a	LTP148	ltpFR	18	1	1	BOOK	149	1	4	0	n/a	n/a	n/a	n/a	n/a
3160.216	n/a	RECOG_RESP	1580108	n/a	LTP148	ltpFR	18	1	1	BOOK	149	1	n/a	0	n/a	n/a	n/a	n/a	n/a
3160.924	n/a	RECOG_CONF	1580462	n/a	LTP148	ltpFR	18	1	1	BOOK	149	n/a	4	0	n/a	n/a	n/a	n/a	n/a
3162.338	n/a	RECOG_TARGET	1581169	n/a	LTP148	ltpFR	18	1	1	SHRIMP	1297	1	5	1	n/a	n/a	n/a	n/a	n/a
3162.99	n/a	RECOG_RESP	1581495	n/a	LTP148	ltpFR	18	1	1	SHRIMP	1297	1	n/a	1	n/a	n/a	n/a	n/a	n/a
3163.598	n/a	RECOG_CONF	1581799	n/a	LTP148	ltpFR	18	1	1	SHRIMP	1297	n/a	5	1	n/a	n/a	n/a	n/a	n/a
3167.04	n/a	REC_START	1583520	n/a	LTP148	ltpFR	18	2	n/a	n/a	n/a	n/a	n/a	n/a	n/a	n/a	n/a	n/a	n/a
3167.066	n/a	RECOG_TARGET	1583533	n/a	LTP148	ltpFR	18	2	0	MOSS	918	1	5	0	n/a	n/a	n/a	n/a	n/a
3167.654	n/a	RECOG_RESP	1583827	n/a	LTP148	ltpFR	18	2	0	MOSS	918	1	n/a	0	n/a	n/a	n/a	n/a	n/a
3168.412	n/a	RECOG_CONF	1584206	n/a	LTP148	ltpFR	18	2	0	MOSS	918	n/a	5	0	n/a	n/a	n/a	n/a	n/a
3169.806	n/a	RECOG_TARGET	1584903	n/a	LTP148	ltpFR	18	2	-1	BLACKBERRY	132	1	5	-1	n/a	n/a	n/a	n/a	n/a
3170.418	n/a	RECOG_RESP	1585209	n/a	LTP148	ltpFR	18	2	-1	BLACKBERRY	132	1	n/a	-1	n/a	n/a	n/a	n/a	n/a
3171.046	n/a	RECOG_CONF	1585523	n/a	LTP148	ltpFR	18	2	-1	BLACKBERRY	132	n/a	5	-1	n/a	n/a	n/a	n/a	n/a
3172.31	n/a	RECOG_TARGET	1586155	n/a	LTP148	ltpFR	18	2	0	MARSH	874	1	4	1	n/a	n/a	n/a	n/a	n/a
3172.912	n/a	RECOG_RESP	1586456	n/a	LTP148	ltpFR	18	2	0	MARSH	874	1	n/a	1	n/a	n/a	n/a	n/a	n/a
3173.79	n/a	RECOG_CONF	1586895	n/a	LTP148	ltpFR	18	2	0	MARSH	874	n/a	4	1	n/a	n/a	n/a	n/a	n/a
3175.066	n/a	RECOG_TARGET	1587533	n/a	LTP148	ltpFR	18	2	1	RULER	1216	1	5	1	n/a	n/a	n/a	n/a	n/a
3175.686	n/a	RECOG_RESP	1587843	n/a	LTP148	ltpFR	18	2	1	RULER	1216	1	n/a	1	n/a	n/a	n/a	n/a	n/a
3176.344	n/a	RECOG_CONF	1588172	n/a	LTP148	ltpFR	18	2	1	RULER	1216	n/a	5	1	n/a	n/a	n/a	n/a	n/a
3177.73	n/a	RECOG_LURE	1588865	n/a	LTP148	ltpFR	18	2	n/a	GRIZZLY	662	0	4	n/a	n/a	n/a	n/a	n/a	n/a
3178.37	n/a	RECOG_RESP	1589185	n/a	LTP148	ltpFR	18	2	n/a	GRIZZLY	662	0	n/a	n/a	n/a	n/a	n/a	n/a	n/a
3179.008	n/a	RECOG_CONF	1589504	n/a	LTP148	ltpFR	18	2	n/a	GRIZZLY	662	n/a	4	n/a	n/a	n/a	n/a	n/a	n/a
3180.326	n/a	RECOG_LURE	1590163	n/a	LTP148	ltpFR	18	2	n/a	GODDESS	646	0	5	n/a	n/a	n/a	n/a	n/a	n/a
3180.994	n/a	RECOG_RESP	1590497	n/a	LTP148	ltpFR	18	2	n/a	GODDESS	646	0	n/a	n/a	n/a	n/a	n/a	n/a	n/a
3181.632	n/a	RECOG_CONF	1590816	n/a	LTP148	ltpFR	18	2	n/a	GODDESS	646	n/a	5	n/a	n/a	n/a	n/a	n/a	n/a
3182.982	n/a	RECOG_TARGET	1591491	n/a	LTP148	ltpFR	18	2	1	ARMY	39	1	5	1	n/a	n/a	n/a	n/a	n/a
3183.658	n/a	RECOG_RESP	1591829	n/a	LTP148	ltpFR	18	2	1	ARMY	39	1	n/a	1	n/a	n/a	n/a	n/a	n/a
3184.276	n/a	RECOG_CONF	1592138	n/a	LTP148	ltpFR	18	2	1	ARMY	39	n/a	5	1	n/a	n/a	n/a	n/a	n/a
3185.61	n/a	RECOG_TARGET	1592805	n/a	LTP148	ltpFR	18	2	0	DAGGER	434	1	4	0	n/a	n/a	n/a	n/a	n/a
3186.292	n/a	RECOG_RESP	1593146	n/a	LTP148	ltpFR	18	2	0	DAGGER	434	1	n/a	0	n/a	n/a	n/a	n/a	n/a
3186.91	n/a	RECOG_CONF	1593455	n/a	LTP148	ltpFR	18	2	0	DAGGER	434	n/a	4	0	n/a	n/a	n/a	n/a	n/a
3188.184	n/a	RECOG_TARGET	1594092	n/a	LTP148	ltpFR	18	2	-1	BOY	161	1	4	-1	n/a	n/a	n/a	n/a	n/a
3189.384	n/a	RECOG_RESP	1594692	n/a	LTP148	ltpFR	18	2	-1	BOY	161	1	n/a	-1	n/a	n/a	n/a	n/a	n/a
3190.122	n/a	RECOG_CONF	1595061	n/a	LTP148	ltpFR	18	2	-1	BOY	161	n/a	4	-1	n/a	n/a	n/a	n/a	n/a
3191.396	n/a	RECOG_LURE	1595698	n/a	LTP148	ltpFR	18	2	n/a	CUSHION	428	0	5	n/a	n/a	n/a	n/a	n/a	n/a
3192.118	n/a	RECOG_RESP	1596059	n/a	LTP148	ltpFR	18	2	n/a	CUSHION	428	0	n/a	n/a	n/a	n/a	n/a	n/a	n/a
3192.766	n/a	RECOG_CONF	1596383	n/a	LTP148	ltpFR	18	2	n/a	CUSHION	428	n/a	5	n/a	n/a	n/a	n/a	n/a	n/a
3194.078	n/a	RECOG_TARGET	1597039	n/a	LTP148	ltpFR	18	2	0	LETTUCE	814	1	5	0	n/a	n/a	n/a	n/a	n/a
3194.792	n/a	RECOG_RESP	1597396	n/a	LTP148	ltpFR	18	2	0	LETTUCE	814	1	n/a	0	n/a	n/a	n/a	n/a	n/a
3195.41	n/a	RECOG_CONF	1597705	n/a	LTP148	ltpFR	18	2	0	LETTUCE	814	n/a	5	0	n/a	n/a	n/a	n/a	n/a
3196.69	n/a	RECOG_LURE	1598345	n/a	LTP148	ltpFR	18	2	n/a	ATLAS	53	0	5	n/a	n/a	n/a	n/a	n/a	n/a
3197.386	n/a	RECOG_RESP	1598693	n/a	LTP148	ltpFR	18	2	n/a	ATLAS	53	0	n/a	n/a	n/a	n/a	n/a	n/a	n/a
3198.004	n/a	RECOG_CONF	1599002	n/a	LTP148	ltpFR	18	2	n/a	ATLAS	53	n/a	5	n/a	n/a	n/a	n/a	n/a	n/a
3199.354	n/a	RECOG_TARGET	1599677	n/a	LTP148	ltpFR	18	2	0	WATER	1594	1	4	0	n/a	n/a	n/a	n/a	n/a
3200.0	n/a	RECOG_RESP	1600000	n/a	LTP148	ltpFR	18	2	0	WATER	1594	1	n/a	0	n/a	n/a	n/a	n/a	n/a
3200.59	n/a	RECOG_CONF	1600295	n/a	LTP148	ltpFR	18	2	0	WATER	1594	n/a	4	0	n/a	n/a	n/a	n/a	n/a
3201.884	n/a	RECOG_TARGET	1600942	n/a	LTP148	ltpFR	18	2	1	PROTON	1132	1	2	0	n/a	n/a	n/a	n/a	n/a
3202.914	n/a	RECOG_RESP	1601457	n/a	LTP148	ltpFR	18	2	1	PROTON	1132	1	n/a	0	n/a	n/a	n/a	n/a	n/a
3203.572	n/a	RECOG_CONF	1601786	n/a	LTP148	ltpFR	18	2	1	PROTON	1132	n/a	2	0	n/a	n/a	n/a	n/a	n/a
3204.922	n/a	RECOG_TARGET	1602461	n/a	LTP148	ltpFR	18	2	1	MOON	914	1	5	0	n/a	n/a	n/a	n/a	n/a
3205.628	n/a	RECOG_RESP	1602814	n/a	LTP148	ltpFR	18	2	1	MOON	914	1	n/a	0	n/a	n/a	n/a	n/a	n/a
3206.176	n/a	RECOG_CONF	1603088	n/a	LTP148	ltpFR	18	2	1	MOON	914	n/a	5	0	n/a	n/a	n/a	n/a	n/a
3207.528	n/a	RECOG_TARGET	1603764	n/a	LTP148	ltpFR	18	2	-1	STAPLER	1372	1	5	-1	n/a	n/a	n/a	n/a	n/a
3208.102	n/a	RECOG_RESP	1604051	n/a	LTP148	ltpFR	18	2	-1	STAPLER	1372	1	n/a	-1	n/a	n/a	n/a	n/a	n/a
3208.68	n/a	RECOG_CONF	1604340	n/a	LTP148	ltpFR	18	2	-1	STAPLER	1372	n/a	5	-1	n/a	n/a	n/a	n/a	n/a
3209.966	n/a	RECOG_TARGET	1604983	n/a	LTP148	ltpFR	18	2	1	KANGAROO	768	1	5	1	n/a	n/a	n/a	n/a	n/a
3210.536	n/a	RECOG_RESP	1605268	n/a	LTP148	ltpFR	18	2	1	KANGAROO	768	1	n/a	1	n/a	n/a	n/a	n/a	n/a
3211.126	n/a	RECOG_CONF	1605563	n/a	LTP148	ltpFR	18	2	1	KANGAROO	768	n/a	5	1	n/a	n/a	n/a	n/a	n/a
3212.488	n/a	RECOG_LURE	1606244	n/a	LTP148	ltpFR	18	2	n/a	AFRICA	9	0	5	n/a	n/a	n/a	n/a	n/a	n/a
3213.25	n/a	RECOG_RESP	1606625	n/a	LTP148	ltpFR	18	2	n/a	AFRICA	9	0	n/a	n/a	n/a	n/a	n/a	n/a	n/a
3213.838	n/a	RECOG_CONF	1606919	n/a	LTP148	ltpFR	18	2	n/a	AFRICA	9	n/a	5	n/a	n/a	n/a	n/a	n/a	n/a
3215.178	n/a	RECOG_LURE	1607589	n/a	LTP148	ltpFR	18	2	n/a	WELL	1600	0	4	n/a	n/a	n/a	n/a	n/a	n/a
3216.394	n/a	RECOG_RESP	1608197	n/a	LTP148	ltpFR	18	2	n/a	WELL	1600	0	n/a	n/a	n/a	n/a	n/a	n/a	n/a
3216.992	n/a	RECOG_CONF	1608496	n/a	LTP148	ltpFR	18	2	n/a	WELL	1600	n/a	4	n/a	n/a	n/a	n/a	n/a	n/a
3218.24	n/a	RECOG_TARGET	1609120	n/a	LTP148	ltpFR	18	2	1	COCOON	339	1	5	1	n/a	n/a	n/a	n/a	n/a
3218.978	n/a	RECOG_RESP	1609489	n/a	LTP148	ltpFR	18	2	1	COCOON	339	1	n/a	1	n/a	n/a	n/a	n/a	n/a
3219.526	n/a	RECOG_CONF	1609763	n/a	LTP148	ltpFR	18	2	1	COCOON	339	n/a	5	1	n/a	n/a	n/a	n/a	n/a
3222.944	n/a	REC_START	1611472	n/a	LTP148	ltpFR	18	3	n/a	n/a	n/a	n/a	n/a	n/a	n/a	n/a	n/a	n/a	n/a
3222.97	n/a	RECOG_TARGET	1611485	n/a	LTP148	ltpFR	18	3	0	PAN	1008	1	5	0	n/a	n/a	n/a	n/a	n/a
3223.596	n/a	RECOG_RESP	1611798	n/a	LTP148	ltpFR	18	3	0	PAN	1008	1	n/a	0	n/a	n/a	n/a	n/a	n/a
3224.166	n/a	RECOG_CONF	1612083	n/a	LTP148	ltpFR	18	3	0	PAN	1008	n/a	5	0	n/a	n/a	n/a	n/a	n/a
3225.566	n/a	RECOG_TARGET	1612783	n/a	LTP148	ltpFR	18	3	1	LAGOON	795	1	5	0	n/a	n/a	n/a	n/a	n/a
3226.142	n/a	RECOG_RESP	1613071	n/a	LTP148	ltpFR	18	3	1	LAGOON	795	1	n/a	0	n/a	n/a	n/a	n/a	n/a
3226.69	n/a	RECOG_CONF	1613345	n/a	LTP148	ltpFR	18	3	1	LAGOON	795	n/a	5	0	n/a	n/a	n/a	n/a	n/a
3228.072	n/a	RECOG_LURE	1614036	n/a	LTP148	ltpFR	18	3	n/a	CANNON	232	0	4	n/a	n/a	n/a	n/a	n/a	n/a
3228.766	n/a	RECOG_RESP	1614383	n/a	LTP148	ltpFR	18	3	n/a	CANNON	232	0	n/a	n/a	n/a	n/a	n/a	n/a	n/a
3229.394	n/a	RECOG_CONF	1614697	n/a	LTP148	ltpFR	18	3	n/a	CANNON	232	n/a	4	n/a	n/a	n/a	n/a	n/a	n/a
3230.686	n/a	RECOG_LURE	1615343	n/a	LTP148	ltpFR	18	3	n/a	YACHT	1629	0	4	n/a	n/a	n/a	n/a	n/a	n/a
3231.458	n/a	RECOG_RESP	1615729	n/a	LTP148	ltpFR	18	3	n/a	YACHT	1629	0	n/a	n/a	n/a	n/a	n/a	n/a	n/a
3232.128	n/a	RECOG_CONF	1616064	n/a	LTP148	ltpFR	18	3	n/a	YACHT	1629	n/a	4	n/a	n/a	n/a	n/a	n/a	n/a
3233.482	n/a	RECOG_LURE	1616741	n/a	LTP148	ltpFR	18	3	n/a	INFANT	737	0	4	n/a	n/a	n/a	n/a	n/a	n/a
3234.232	n/a	RECOG_RESP	1617116	n/a	LTP148	ltpFR	18	3	n/a	INFANT	737	0	n/a	n/a	n/a	n/a	n/a	n/a	n/a
3234.852	n/a	RECOG_CONF	1617426	n/a	LTP148	ltpFR	18	3	n/a	INFANT	737	n/a	4	n/a	n/a	n/a	n/a	n/a	n/a
3236.146	n/a	RECOG_LURE	1618073	n/a	LTP148	ltpFR	18	3	n/a	JAW	751	0	4	n/a	n/a	n/a	n/a	n/a	n/a
3237.046	n/a	RECOG_RESP	1618523	n/a	LTP148	ltpFR	18	3	n/a	JAW	751	0	n/a	n/a	n/a	n/a	n/a	n/a	n/a
3237.704	n/a	RECOG_CONF	1618852	n/a	LTP148	ltpFR	18	3	n/a	JAW	751	n/a	4	n/a	n/a	n/a	n/a	n/a	n/a
3239.11	n/a	RECOG_LURE	1619555	n/a	LTP148	ltpFR	18	3	n/a	DIAPER	459	0	4	n/a	n/a	n/a	n/a	n/a	n/a
3239.8	n/a	RECOG_RESP	1619900	n/a	LTP148	ltpFR	18	3	n/a	DIAPER	459	0	n/a	n/a	n/a	n/a	n/a	n/a	n/a
3240.478	n/a	RECOG_CONF	1620239	n/a	LTP148	ltpFR	18	3	n/a	DIAPER	459	n/a	4	n/a	n/a	n/a	n/a	n/a	n/a
3241.84	n/a	RECOG_LURE	1620920	n/a	LTP148	ltpFR	18	3	n/a	SURVEY	1414	0	4	n/a	n/a	n/a	n/a	n/a	n/a
3242.574	n/a	RECOG_RESP	1621287	n/a	LTP148	ltpFR	18	3	n/a	SURVEY	1414	0	n/a	n/a	n/a	n/a	n/a	n/a	n/a
3243.252	n/a	RECOG_CONF	1621626	n/a	LTP148	ltpFR	18	3	n/a	SURVEY	1414	n/a	4	n/a	n/a	n/a	n/a	n/a	n/a
3244.52	n/a	RECOG_TARGET	1622260	n/a	LTP148	ltpFR	18	3	0	CROCODILE	411	1	5	1	n/a	n/a	n/a	n/a	n/a
3245.188	n/a	RECOG_RESP	1622594	n/a	LTP148	ltpFR	18	3	0	CROCODILE	411	1	n/a	1	n/a	n/a	n/a	n/a	n/a
3245.766	n/a	RECOG_CONF	1622883	n/a	LTP148	ltpFR	18	3	0	CROCODILE	411	n/a	5	1	n/a	n/a	n/a	n/a	n/a
3247.1	n/a	RECOG_LURE	1623550	n/a	LTP148	ltpFR	18	3	n/a	GHETTO	633	0	4	n/a	n/a	n/a	n/a	n/a	n/a
3247.732	n/a	RECOG_RESP	1623866	n/a	LTP148	ltpFR	18	3	n/a	GHETTO	633	0	n/a	n/a	n/a	n/a	n/a	n/a	n/a
3248.34	n/a	RECOG_CONF	1624170	n/a	LTP148	ltpFR	18	3	n/a	GHETTO	633	n/a	4	n/a	n/a	n/a	n/a	n/a	n/a
3249.664	n/a	RECOG_TARGET	1624832	n/a	LTP148	ltpFR	18	3	0	PENNY	1045	1	5	0	n/a	n/a	n/a	n/a	n/a
3250.266	n/a	RECOG_RESP	1625133	n/a	LTP148	ltpFR	18	3	0	PENNY	1045	1	n/a	0	n/a	n/a	n/a	n/a	n/a
3250.844	n/a	RECOG_CONF	1625422	n/a	LTP148	ltpFR	18	3	0	PENNY	1045	n/a	5	0	n/a	n/a	n/a	n/a	n/a
3252.22	n/a	RECOG_LURE	1626110	n/a	LTP148	ltpFR	18	3	n/a	UMBRELLA	1534	0	4	n/a	n/a	n/a	n/a	n/a	n/a
3253.21	n/a	RECOG_RESP	1626605	n/a	LTP148	ltpFR	18	3	n/a	UMBRELLA	1534	0	n/a	n/a	n/a	n/a	n/a	n/a	n/a
3253.858	n/a	RECOG_CONF	1626929	n/a	LTP148	ltpFR	18	3	n/a	UMBRELLA	1534	n/a	4	n/a	n/a	n/a	n/a	n/a	n/a
3255.198	n/a	RECOG_LURE	1627599	n/a	LTP148	ltpFR	18	3	n/a	FREEZER	604	0	4	n/a	n/a	n/a	n/a	n/a	n/a
3255.794	n/a	RECOG_RESP	1627897	n/a	LTP148	ltpFR	18	3	n/a	FREEZER	604	0	n/a	n/a	n/a	n/a	n/a	n/a	n/a
3256.552	n/a	RECOG_CONF	1628276	n/a	LTP148	ltpFR	18	3	n/a	FREEZER	604	n/a	4	n/a	n/a	n/a	n/a	n/a	n/a
3257.83	n/a	RECOG_TARGET	1628915	n/a	LTP148	ltpFR	18	3	1	KING	777	1	5	1	n/a	n/a	n/a	n/a	n/a
3258.438	n/a	RECOG_RESP	1629219	n/a	LTP148	ltpFR	18	3	1	KING	777	1	n/a	1	n/a	n/a	n/a	n/a	n/a
3259.086	n/a	RECOG_CONF	1629543	n/a	LTP148	ltpFR	18	3	1	KING	777	n/a	5	1	n/a	n/a	n/a	n/a	n/a
3260.452	n/a	RECOG_TARGET	1630226	n/a	LTP148	ltpFR	18	3	-1	MAJOR	859	1	5	-1	n/a	n/a	n/a	n/a	n/a
3261.102	n/a	RECOG_RESP	1630551	n/a	LTP148	ltpFR	18	3	-1	MAJOR	859	1	n/a	-1	n/a	n/a	n/a	n/a	n/a
3261.69	n/a	RECOG_CONF	1630845	n/a	LTP148	ltpFR	18	3	-1	MAJOR	859	n/a	5	-1	n/a	n/a	n/a	n/a	n/a
3263.048	n/a	RECOG_LURE	1631524	n/a	LTP148	ltpFR	18	3	n/a	CANYON	235	1	2	n/a	n/a	n/a	n/a	n/a	n/a
3265.022	n/a	RECOG_RESP	1632511	n/a	LTP148	ltpFR	18	3	n/a	CANYON	235	1	n/a	n/a	n/a	n/a	n/a	n/a	n/a
3265.732	n/a	RECOG_CONF	1632866	n/a	LTP148	ltpFR	18	3	n/a	CANYON	235	n/a	2	n/a	n/a	n/a	n/a	n/a	n/a
3267.076	n/a	RECOG_TARGET	1633538	n/a	LTP148	ltpFR	18	3	-1	RECORD	1176	1	4	-1	n/a	n/a	n/a	n/a	n/a
3268.366	n/a	RECOG_RESP	1634183	n/a	LTP148	ltpFR	18	3	-1	RECORD	1176	1	n/a	-1	n/a	n/a	n/a	n/a	n/a
3269.074	n/a	RECOG_CONF	1634537	n/a	LTP148	ltpFR	18	3	-1	RECORD	1176	n/a	4	-1	n/a	n/a	n/a	n/a	n/a
3270.314	n/a	RECOG_LURE	1635157	n/a	LTP148	ltpFR	18	3	n/a	MONEY	908	0	4	n/a	n/a	n/a	n/a	n/a	n/a
3271.578	n/a	RECOG_RESP	1635789	n/a	LTP148	ltpFR	18	3	n/a	MONEY	908	0	n/a	n/a	n/a	n/a	n/a	n/a	n/a
3272.196	n/a	RECOG_CONF	1636098	n/a	LTP148	ltpFR	18	3	n/a	MONEY	908	n/a	4	n/a	n/a	n/a	n/a	n/a	n/a
3273.502	n/a	RECOG_LURE	1636751	n/a	LTP148	ltpFR	18	3	n/a	CLOUD	328	0	4	n/a	n/a	n/a	n/a	n/a	n/a
3274.212	n/a	RECOG_RESP	1637106	n/a	LTP148	ltpFR	18	3	n/a	CLOUD	328	0	n/a	n/a	n/a	n/a	n/a	n/a	n/a
3274.81	n/a	RECOG_CONF	1637405	n/a	LTP148	ltpFR	18	3	n/a	CLOUD	328	n/a	4	n/a	n/a	n/a	n/a	n/a	n/a
3276.2	n/a	RECOG_LURE	1638100	n/a	LTP148	ltpFR	18	3	n/a	FURNITURE	616	0	4	n/a	n/a	n/a	n/a	n/a	n/a
3276.846	n/a	RECOG_RESP	1638423	n/a	LTP148	ltpFR	18	3	n/a	FURNITURE	616	0	n/a	n/a	n/a	n/a	n/a	n/a	n/a
3277.464	n/a	RECOG_CONF	1638732	n/a	LTP148	ltpFR	18	3	n/a	FURNITURE	616	n/a	4	n/a	n/a	n/a	n/a	n/a	n/a
3280.764	n/a	REC_START	1640382	n/a	LTP148	ltpFR	18	4	n/a	n/a	n/a	n/a	n/a	n/a	n/a	n/a	n/a	n/a	n/a
3280.794	n/a	RECOG_LURE	1640397	n/a	LTP148	ltpFR	18	4	n/a	DELINQUENT	445	0	3	n/a	n/a	n/a	n/a	n/a	n/a
3281.956	n/a	RECOG_RESP	1640978	n/a	LTP148	ltpFR	18	4	n/a	DELINQUENT	445	0	n/a	n/a	n/a	n/a	n/a	n/a	n/a
3282.654	n/a	RECOG_CONF	1641327	n/a	LTP148	ltpFR	18	4	n/a	DELINQUENT	445	n/a	3	n/a	n/a	n/a	n/a	n/a	n/a
3283.948	n/a	RECOG_LURE	1641974	n/a	LTP148	ltpFR	18	4	n/a	PREACHER	1119	0	5	n/a	n/a	n/a	n/a	n/a	n/a
3284.59	n/a	RECOG_RESP	1642295	n/a	LTP148	ltpFR	18	4	n/a	PREACHER	1119	0	n/a	n/a	n/a	n/a	n/a	n/a	n/a
3285.208	n/a	RECOG_CONF	1642604	n/a	LTP148	ltpFR	18	4	n/a	PREACHER	1119	n/a	5	n/a	n/a	n/a	n/a	n/a	n/a
3286.504	n/a	RECOG_TARGET	1643252	n/a	LTP148	ltpFR	18	4	0	CHICKEN	297	1	4	1	n/a	n/a	n/a	n/a	n/a
3287.522	n/a	RECOG_RESP	1643761	n/a	LTP148	ltpFR	18	4	0	CHICKEN	297	1	n/a	1	n/a	n/a	n/a	n/a	n/a
3288.102	n/a	RECOG_CONF	1644051	n/a	LTP148	ltpFR	18	4	0	CHICKEN	297	n/a	4	1	n/a	n/a	n/a	n/a	n/a
3289.352	n/a	RECOG_TARGET	1644676	n/a	LTP148	ltpFR	18	4	0	MAID	856	1	5	1	n/a	n/a	n/a	n/a	n/a
3290.008	n/a	RECOG_RESP	1645004	n/a	LTP148	ltpFR	18	4	0	MAID	856	1	n/a	1	n/a	n/a	n/a	n/a	n/a
3290.596	n/a	RECOG_CONF	1645298	n/a	LTP148	ltpFR	18	4	0	MAID	856	n/a	5	1	n/a	n/a	n/a	n/a	n/a
3292.014	n/a	RECOG_LURE	1646007	n/a	LTP148	ltpFR	18	4	n/a	PHILOSOPHER	1054	0	5	n/a	n/a	n/a	n/a	n/a	n/a
3292.81	n/a	RECOG_RESP	1646405	n/a	LTP148	ltpFR	18	4	n/a	PHILOSOPHER	1054	0	n/a	n/a	n/a	n/a	n/a	n/a	n/a
3293.41	n/a	RECOG_CONF	1646705	n/a	LTP148	ltpFR	18	4	n/a	PHILOSOPHER	1054	n/a	5	n/a	n/a	n/a	n/a	n/a	n/a
3294.794	n/a	RECOG_LURE	1647397	n/a	LTP148	ltpFR	18	4	n/a	TAR	1435	0	3	n/a	n/a	n/a	n/a	n/a	n/a
3295.504	n/a	RECOG_RESP	1647752	n/a	LTP148	ltpFR	18	4	n/a	TAR	1435	0	n/a	n/a	n/a	n/a	n/a	n/a	n/a
3296.074	n/a	RECOG_CONF	1648037	n/a	LTP148	ltpFR	18	4	n/a	TAR	1435	n/a	3	n/a	n/a	n/a	n/a	n/a	n/a
3297.434	n/a	RECOG_TARGET	1648717	n/a	LTP148	ltpFR	18	4	1	KITE	779	1	5	0	n/a	n/a	n/a	n/a	n/a
3298.03	n/a	RECOG_RESP	1649015	n/a	LTP148	ltpFR	18	4	1	KITE	779	1	n/a	0	n/a	n/a	n/a	n/a	n/a
3298.618	n/a	RECOG_CONF	1649309	n/a	LTP148	ltpFR	18	4	1	KITE	779	n/a	5	0	n/a	n/a	n/a	n/a	n/a
3299.956	n/a	RECOG_TARGET	1649978	n/a	LTP148	ltpFR	18	4	-1	AUNT	60	1	5	-1	n/a	n/a	n/a	n/a	n/a
3300.474	n/a	RECOG_RESP	1650237	n/a	LTP148	ltpFR	18	4	-1	AUNT	60	1	n/a	-1	n/a	n/a	n/a	n/a	n/a
3300.994	n/a	RECOG_CONF	1650497	n/a	LTP148	ltpFR	18	4	-1	AUNT	60	n/a	5	-1	n/a	n/a	n/a	n/a	n/a
3302.346	n/a	RECOG_TARGET	1651173	n/a	LTP148	ltpFR	18	4	1	WOMAN	1620	1	5	1	n/a	n/a	n/a	n/a	n/a
3303.208	n/a	RECOG_RESP	1651604	n/a	LTP148	ltpFR	18	4	1	WOMAN	1620	1	n/a	1	n/a	n/a	n/a	n/a	n/a
3303.758	n/a	RECOG_CONF	1651879	n/a	LTP148	ltpFR	18	4	1	WOMAN	1620	n/a	5	1	n/a	n/a	n/a	n/a	n/a
3305.118	n/a	RECOG_LURE	1652559	n/a	LTP148	ltpFR	18	4	n/a	PACKAGE	997	0	5	n/a	n/a	n/a	n/a	n/a	n/a
3305.892	n/a	RECOG_RESP	1652946	n/a	LTP148	ltpFR	18	4	n/a	PACKAGE	997	0	n/a	n/a	n/a	n/a	n/a	n/a	n/a
3306.47	n/a	RECOG_CONF	1653235	n/a	LTP148	ltpFR	18	4	n/a	PACKAGE	997	n/a	5	n/a	n/a	n/a	n/a	n/a	n/a
3307.772	n/a	RECOG_LURE	1653886	n/a	LTP148	ltpFR	18	4	n/a	SHUTTER	1300	0	2	n/a	n/a	n/a	n/a	n/a	n/a
3309.494	n/a	RECOG_RESP	1654747	n/a	LTP148	ltpFR	18	4	n/a	SHUTTER	1300	0	n/a	n/a	n/a	n/a	n/a	n/a	n/a
3310.072	n/a	RECOG_CONF	1655036	n/a	LTP148	ltpFR	18	4	n/a	SHUTTER	1300	n/a	2	n/a	n/a	n/a	n/a	n/a	n/a
3311.46	n/a	RECOG_LURE	1655730	n/a	LTP148	ltpFR	18	4	n/a	BUTTON	207	0	3	n/a	n/a	n/a	n/a	n/a	n/a
3312.168	n/a	RECOG_RESP	1656084	n/a	LTP148	ltpFR	18	4	n/a	BUTTON	207	0	n/a	n/a	n/a	n/a	n/a	n/a	n/a
3312.826	n/a	RECOG_CONF	1656413	n/a	LTP148	ltpFR	18	4	n/a	BUTTON	207	n/a	3	n/a	n/a	n/a	n/a	n/a	n/a
3314.048	n/a	RECOG_LURE	1657024	n/a	LTP148	ltpFR	18	4	n/a	PUMPKIN	1142	0	5	n/a	n/a	n/a	n/a	n/a	n/a
3314.702	n/a	RECOG_RESP	1657351	n/a	LTP148	ltpFR	18	4	n/a	PUMPKIN	1142	0	n/a	n/a	n/a	n/a	n/a	n/a	n/a
3315.28	n/a	RECOG_CONF	1657640	n/a	LTP148	ltpFR	18	4	n/a	PUMPKIN	1142	n/a	5	n/a	n/a	n/a	n/a	n/a	n/a
3316.594	n/a	RECOG_TARGET	1658297	n/a	LTP148	ltpFR	18	4	0	PICKLE	1059	1	5	0	n/a	n/a	n/a	n/a	n/a
3317.216	n/a	RECOG_RESP	1658608	n/a	LTP148	ltpFR	18	4	0	PICKLE	1059	1	n/a	0	n/a	n/a	n/a	n/a	n/a
3317.756	n/a	RECOG_CONF	1658878	n/a	LTP148	ltpFR	18	4	0	PICKLE	1059	n/a	5	0	n/a	n/a	n/a	n/a	n/a
3318.952	n/a	RECOG_TARGET	1659476	n/a	LTP148	ltpFR	18	4	0	THICKET	1455	1	5	1	n/a	n/a	n/a	n/a	n/a
3319.71	n/a	RECOG_RESP	1659855	n/a	LTP148	ltpFR	18	4	0	THICKET	1455	1	n/a	1	n/a	n/a	n/a	n/a	n/a
3320.28	n/a	RECOG_CONF	1660140	n/a	LTP148	ltpFR	18	4	0	THICKET	1455	n/a	5	1	n/a	n/a	n/a	n/a	n/a
3321.624	n/a	RECOG_TARGET	1660812	n/a	LTP148	ltpFR	18	4	0	FRAME	600	1	5	1	n/a	n/a	n/a	n/a	n/a
3322.264	n/a	RECOG_RESP	1661132	n/a	LTP148	ltpFR	18	4	0	FRAME	600	1	n/a	1	n/a	n/a	n/a	n/a	n/a
3322.844	n/a	RECOG_CONF	1661422	n/a	LTP148	ltpFR	18	4	0	FRAME	600	n/a	5	1	n/a	n/a	n/a	n/a	n/a
3324.17	n/a	RECOG_LURE	1662085	n/a	LTP148	ltpFR	18	4	n/a	CHAMPAGNE	278	0	5	n/a	n/a	n/a	n/a	n/a	n/a
3324.86	n/a	RECOG_RESP	1662430	n/a	LTP148	ltpFR	18	4	n/a	CHAMPAGNE	278	0	n/a	n/a	n/a	n/a	n/a	n/a	n/a
3325.428	n/a	RECOG_CONF	1662714	n/a	LTP148	ltpFR	18	4	n/a	CHAMPAGNE	278	n/a	5	n/a	n/a	n/a	n/a	n/a	n/a
3326.776	n/a	RECOG_TARGET	1663388	n/a	LTP148	ltpFR	18	4	-1	SHOE	1288	1	5	-1	n/a	n/a	n/a	n/a	n/a
3327.434	n/a	RECOG_RESP	1663717	n/a	LTP148	ltpFR	18	4	-1	SHOE	1288	1	n/a	-1	n/a	n/a	n/a	n/a	n/a
3328.012	n/a	RECOG_CONF	1664006	n/a	LTP148	ltpFR	18	4	-1	SHOE	1288	n/a	5	-1	n/a	n/a	n/a	n/a	n/a
3329.39	n/a	RECOG_LURE	1664695	n/a	LTP148	ltpFR	18	4	n/a	TART	1436	0	5	n/a	n/a	n/a	n/a	n/a	n/a
3330.476	n/a	RECOG_RESP	1665238	n/a	LTP148	ltpFR	18	4	n/a	TART	1436	0	n/a	n/a	n/a	n/a	n/a	n/a	n/a
3331.084	n/a	RECOG_CONF	1665542	n/a	LTP148	ltpFR	18	4	n/a	TART	1436	n/a	5	n/a	n/a	n/a	n/a	n/a	n/a
3332.41	n/a	RECOG_TARGET	1666205	n/a	LTP148	ltpFR	18	4	-1	WINGS	1614	1	5	-1	n/a	n/a	n/a	n/a	n/a
3333.2	n/a	RECOG_RESP	1666600	n/a	LTP148	ltpFR	18	4	-1	WINGS	1614	1	n/a	-1	n/a	n/a	n/a	n/a	n/a
3333.748	n/a	RECOG_CONF	1666874	n/a	LTP148	ltpFR	18	4	-1	WINGS	1614	n/a	5	-1	n/a	n/a	n/a	n/a	n/a
3337.85	n/a	REC_START	1668925	n/a	LTP148	ltpFR	18	5	n/a	n/a	n/a	n/a	n/a	n/a	n/a	n/a	n/a	n/a	n/a
3337.88	n/a	RECOG_TARGET	1668940	n/a	LTP148	ltpFR	18	5	1	SQUID	1361	0	5	n/a	n/a	n/a	n/a	n/a	n/a
3338.724	n/a	RECOG_RESP	1669362	n/a	LTP148	ltpFR	18	5	1	SQUID	1361	0	n/a	n/a	n/a	n/a	n/a	n/a	n/a
3339.302	n/a	RECOG_CONF	1669651	n/a	LTP148	ltpFR	18	5	1	SQUID	1361	n/a	5	n/a	n/a	n/a	n/a	n/a	n/a
3340.6	n/a	RECOG_LURE	1670300	n/a	LTP148	ltpFR	18	5	n/a	CHIMNEY	301	0	5	n/a	n/a	n/a	n/a	n/a	n/a
3341.876	n/a	RECOG_RESP	1670938	n/a	LTP148	ltpFR	18	5	n/a	CHIMNEY	301	0	n/a	n/a	n/a	n/a	n/a	n/a	n/a
3342.464	n/a	RECOG_CONF	1671232	n/a	LTP148	ltpFR	18	5	n/a	CHIMNEY	301	n/a	5	n/a	n/a	n/a	n/a	n/a	n/a
3343.84	n/a	RECOG_LURE	1671920	n/a	LTP148	ltpFR	18	5	n/a	NEPHEW	942	0	3	n/a	n/a	n/a	n/a	n/a	n/a
3344.71	n/a	RECOG_RESP	1672355	n/a	LTP148	ltpFR	18	5	n/a	NEPHEW	942	0	n/a	n/a	n/a	n/a	n/a	n/a	n/a
3345.278	n/a	RECOG_CONF	1672639	n/a	LTP148	ltpFR	18	5	n/a	NEPHEW	942	n/a	3	n/a	n/a	n/a	n/a	n/a	n/a
3346.602	n/a	RECOG_LURE	1673301	n/a	LTP148	ltpFR	18	5	n/a	CARTON	251	0	4	n/a	n/a	n/a	n/a	n/a	n/a
3347.254	n/a	RECOG_RESP	1673627	n/a	LTP148	ltpFR	18	5	n/a	CARTON	251	0	n/a	n/a	n/a	n/a	n/a	n/a	n/a
3347.872	n/a	RECOG_CONF	1673936	n/a	LTP148	ltpFR	18	5	n/a	CARTON	251	n/a	4	n/a	n/a	n/a	n/a	n/a	n/a
3349.192	n/a	RECOG_LURE	1674596	n/a	LTP148	ltpFR	18	5	n/a	LIGHTER	819	0	4	n/a	n/a	n/a	n/a	n/a	n/a
3349.818	n/a	RECOG_RESP	1674909	n/a	LTP148	ltpFR	18	5	n/a	LIGHTER	819	0	n/a	n/a	n/a	n/a	n/a	n/a	n/a
3350.416	n/a	RECOG_CONF	1675208	n/a	LTP148	ltpFR	18	5	n/a	LIGHTER	819	n/a	4	n/a	n/a	n/a	n/a	n/a	n/a
3351.83	n/a	RECOG_TARGET	1675915	n/a	LTP148	ltpFR	18	5	1	EWE	542	1	5	1	n/a	n/a	n/a	n/a	n/a
3352.512	n/a	RECOG_RESP	1676256	n/a	LTP148	ltpFR	18	5	1	EWE	542	1	n/a	1	n/a	n/a	n/a	n/a	n/a
3353.05	n/a	RECOG_CONF	1676525	n/a	LTP148	ltpFR	18	5	1	EWE	542	n/a	5	1	n/a	n/a	n/a	n/a	n/a
3354.386	n/a	RECOG_LURE	1677193	n/a	LTP148	ltpFR	18	5	n/a	CUCUMBER	421	0	5	n/a	n/a	n/a	n/a	n/a	n/a
3355.376	n/a	RECOG_RESP	1677688	n/a	LTP148	ltpFR	18	5	n/a	CUCUMBER	421	0	n/a	n/a	n/a	n/a	n/a	n/a	n/a
3356.014	n/a	RECOG_CONF	1678007	n/a	LTP148	ltpFR	18	5	n/a	CUCUMBER	421	n/a	5	n/a	n/a	n/a	n/a	n/a	n/a
3357.324	n/a	RECOG_LURE	1678662	n/a	LTP148	ltpFR	18	5	n/a	BARK	87	0	3	n/a	n/a	n/a	n/a	n/a	n/a
3357.95	n/a	RECOG_RESP	1678975	n/a	LTP148	ltpFR	18	5	n/a	BARK	87	0	n/a	n/a	n/a	n/a	n/a	n/a	n/a
3358.538	n/a	RECOG_CONF	1679269	n/a	LTP148	ltpFR	18	5	n/a	BARK	87	n/a	3	n/a	n/a	n/a	n/a	n/a	n/a
3359.946	n/a	RECOG_TARGET	1679973	n/a	LTP148	ltpFR	18	5	0	SPY	1360	1	5	1	n/a	n/a	n/a	n/a	n/a
3360.564	n/a	RECOG_RESP	1680282	n/a	LTP148	ltpFR	18	5	0	SPY	1360	1	n/a	1	n/a	n/a	n/a	n/a	n/a
3361.102	n/a	RECOG_CONF	1680551	n/a	LTP148	ltpFR	18	5	0	SPY	1360	n/a	5	1	n/a	n/a	n/a	n/a	n/a
3362.5	n/a	RECOG_LURE	1681250	n/a	LTP148	ltpFR	18	5	n/a	CRAB	397	0	3	n/a	n/a	n/a	n/a	n/a	n/a
3363.288	n/a	RECOG_RESP	1681644	n/a	LTP148	ltpFR	18	5	n/a	CRAB	397	0	n/a	n/a	n/a	n/a	n/a	n/a	n/a
3363.926	n/a	RECOG_CONF	1681963	n/a	LTP148	ltpFR	18	5	n/a	CRAB	397	n/a	3	n/a	n/a	n/a	n/a	n/a	n/a
3365.18	n/a	RECOG_TARGET	1682590	n/a	LTP148	ltpFR	18	5	0	AGENT	10	1	1	1	n/a	n/a	n/a	n/a	n/a
3367.448	n/a	RECOG_RESP	1683724	n/a	LTP148	ltpFR	18	5	0	AGENT	10	1	n/a	1	n/a	n/a	n/a	n/a	n/a
3368.176	n/a	RECOG_CONF	1684088	n/a	LTP148	ltpFR	18	5	0	AGENT	10	n/a	1	1	n/a	n/a	n/a	n/a	n/a
3369.616	n/a	RECOG_TARGET	1684808	n/a	LTP148	ltpFR	18	5	0	PUBLISHER	1137	1	4	1	n/a	n/a	n/a	n/a	n/a
3370.742	n/a	RECOG_RESP	1685371	n/a	LTP148	ltpFR	18	5	0	PUBLISHER	1137	1	n/a	1	n/a	n/a	n/a	n/a	n/a
3371.53	n/a	RECOG_CONF	1685765	n/a	LTP148	ltpFR	18	5	0	PUBLISHER	1137	n/a	4	1	n/a	n/a	n/a	n/a	n/a
3372.848	n/a	RECOG_LURE	1686424	n/a	LTP148	ltpFR	18	5	n/a	CYCLONE	431	0	5	n/a	n/a	n/a	n/a	n/a	n/a
3373.754	n/a	RECOG_RESP	1686877	n/a	LTP148	ltpFR	18	5	n/a	CYCLONE	431	0	n/a	n/a	n/a	n/a	n/a	n/a	n/a
3374.374	n/a	RECOG_CONF	1687187	n/a	LTP148	ltpFR	18	5	n/a	CYCLONE	431	n/a	5	n/a	n/a	n/a	n/a	n/a	n/a
3375.754	n/a	RECOG_TARGET	1687877	n/a	LTP148	ltpFR	18	5	1	SPICE	1350	1	n/a	0	n/a	n/a	n/a	n/a	n/a
3376.448	n/a	RECOG_RESP_VV	1688224	n/a	LTP148	ltpFR	18	5	1	SPICE	1350	1	n/a	0	n/a	n/a	n/a	n/a	n/a
3376.998	n/a	RECOG_RESP	1688499	n/a	LTP148	ltpFR	18	5	1	SPICE	1350	1	n/a	0	n/a	n/a	n/a	n/a	n/a
3378.316	n/a	RECOG_LURE	1689158	n/a	LTP148	ltpFR	18	5	n/a	WALNUT	1584	0	4	n/a	n/a	n/a	n/a	n/a	n/a
3379.132	n/a	RECOG_RESP	1689566	n/a	LTP148	ltpFR	18	5	n/a	WALNUT	1584	0	n/a	n/a	n/a	n/a	n/a	n/a	n/a
3379.8	n/a	RECOG_CONF	1689900	n/a	LTP148	ltpFR	18	5	n/a	WALNUT	1584	n/a	4	n/a	n/a	n/a	n/a	n/a	n/a
3381.056	n/a	RECOG_TARGET	1690528	n/a	LTP148	ltpFR	18	5	1	RAISIN	1163	1	5	0	n/a	n/a	n/a	n/a	n/a
3381.666	n/a	RECOG_RESP	1690833	n/a	LTP148	ltpFR	18	5	1	RAISIN	1163	1	n/a	0	n/a	n/a	n/a	n/a	n/a
3382.216	n/a	RECOG_CONF	1691108	n/a	LTP148	ltpFR	18	5	1	RAISIN	1163	n/a	5	0	n/a	n/a	n/a	n/a	n/a
3383.584	n/a	RECOG_LURE	1691792	n/a	LTP148	ltpFR	18	5	n/a	REEF	1177	0	5	n/a	n/a	n/a	n/a	n/a	n/a
