mstime	trial_type	stim_file	subject	experiment	session	trial	task	item_name	item_num	recog_conf	resp	answer	test_x	test_y	test_z	color_b	color_g	color_r	case	font
0	SESS_START	n/a	LTP270	ltpFR	15	n/a	n/a	n/a	n/a	1	n/a	n/a	0	0	0	n/a	n/a	n/a	n/a	n/a
24472	START	n/a	LTP270	ltpFR	15	n/a	n/a	n/a	n/a	n/a	n/a	n/a	n/a	n/a	n/a	n/a	n/a	n/a	n/a	n/a
24505	PROB	n/a	LTP270	ltpFR	15	n/a	n/a	n/a	n/a	n/a	n/a	17	7	4	6	n/a	n/a	n/a	n/a	n/a
29464	PROB	n/a	LTP270	ltpFR	15	n/a	n/a	n/a	n/a	n/a	n/a	23	6	9	8	n/a	n/a	n/a	n/a	n/a
32542	PROB	n/a	LTP270	ltpFR	15	n/a	n/a	n/a	n/a	n/a	n/a	21	7	9	5	n/a	n/a	n/a	n/a	n/a
35855	PROB	n/a	LTP270	ltpFR	15	n/a	n/a	n/a	n/a	n/a	n/a	22	9	9	4	n/a	n/a	n/a	n/a	n/a
38434	PROB	n/a	LTP270	ltpFR	15	n/a	n/a	n/a	n/a	n/a	n/a	8	5	2	1	n/a	n/a	n/a	n/a	n/a
39965	PROB	n/a	LTP270	ltpFR	15	n/a	n/a	n/a	n/a	n/a	n/a	11	3	5	3	n/a	n/a	n/a	n/a	n/a
42178	PROB	n/a	LTP270	ltpFR	15	n/a	n/a	n/a	n/a	n/a	n/a	9	3	3	3	n/a	n/a	n/a	n/a	n/a
44126	STOP	n/a	LTP270	ltpFR	15	n/a	n/a	n/a	n/a	n/a	n/a	n/a	n/a	n/a	n/a	n/a	n/a	n/a	n/a	n/a
87710	WORD	wordpools/wasnorm_wordpool_less_exclusions.txt	LTP270	ltpFR	15	1	0	LEADER	807	n/a	1	n/a	0	0	0	1	0.412841796875	0.57763671875	upper	../fonts/zerothre.ttf
91704	WORD	wordpools/wasnorm_wordpool_less_exclusions.txt	LTP270	ltpFR	15	1	0	HEEL	700	n/a	0	n/a	0	0	0	1	0.412841796875	0.57763671875	upper	../fonts/zerothre.ttf
95715	WORD	wordpools/wasnorm_wordpool_less_exclusions.txt	LTP270	ltpFR	15	1	1	TOE	1473	n/a	0	n/a	0	0	0	0	0.5869140625	0.422607421875	lower	../fonts/amplitud.ttf
99826	WORD	wordpools/wasnorm_wordpool_less_exclusions.txt	LTP270	ltpFR	15	1	1	NOTE	958	n/a	0	n/a	0	0	0	0	0.5869140625	0.422607421875	lower	../fonts/amplitud.ttf
103786	WORD	wordpools/wasnorm_wordpool_less_exclusions.txt	LTP270	ltpFR	15	1	1	HIKER	708	n/a	1	n/a	0	0	0	0	0.5869140625	0.422607421875	lower	../fonts/amplitud.ttf
107797	WORD	wordpools/wasnorm_wordpool_less_exclusions.txt	LTP270	ltpFR	15	1	1	HEAD	695	n/a	0	n/a	0	0	0	0	0.5869140625	0.422607421875	lower	../fonts/amplitud.ttf
111874	WORD	wordpools/wasnorm_wordpool_less_exclusions.txt	LTP270	ltpFR	15	1	1	MOB	904	n/a	0	n/a	0	0	0	0	0.5869140625	0.422607421875	lower	../fonts/amplitud.ttf
115702	WORD	wordpools/wasnorm_wordpool_less_exclusions.txt	LTP270	ltpFR	15	1	1	OBOE	969	n/a	0	n/a	0	0	0	0	0.5869140625	0.422607421875	lower	../fonts/amplitud.ttf
119578	WORD	wordpools/wasnorm_wordpool_less_exclusions.txt	LTP270	ltpFR	15	1	0	KEEPER	769	n/a	1	n/a	0	0	0	1	0.412841796875	0.57763671875	upper	../fonts/zerothre.ttf
123539	WORD	wordpools/wasnorm_wordpool_less_exclusions.txt	LTP270	ltpFR	15	1	0	DAUGHTER	442	n/a	1	n/a	0	0	0	1	0.412841796875	0.57763671875	upper	../fonts/zerothre.ttf
127451	WORD	wordpools/wasnorm_wordpool_less_exclusions.txt	LTP270	ltpFR	15	1	0	SALIVA	1226	n/a	0	n/a	0	0	0	1	0.412841796875	0.57763671875	upper	../fonts/zerothre.ttf
131345	WORD	wordpools/wasnorm_wordpool_less_exclusions.txt	LTP270	ltpFR	15	1	0	TREAT	1501	n/a	0	n/a	0	0	0	1	0.412841796875	0.57763671875	upper	../fonts/zerothre.ttf
135306	WORD	wordpools/wasnorm_wordpool_less_exclusions.txt	LTP270	ltpFR	15	1	0	ARMY	39	n/a	1	n/a	0	0	0	1	0.412841796875	0.57763671875	upper	../fonts/zerothre.ttf
139150	WORD	wordpools/wasnorm_wordpool_less_exclusions.txt	LTP270	ltpFR	15	1	0	MOUNTAIN	924	n/a	1	n/a	0	0	0	1	0.412841796875	0.57763671875	upper	../fonts/zerothre.ttf
143061	WORD	wordpools/wasnorm_wordpool_less_exclusions.txt	LTP270	ltpFR	15	1	1	PERCH	1048	n/a	0	n/a	0	0	0	0	0.5869140625	0.422607421875	lower	../fonts/amplitud.ttf
146939	WORD	wordpools/wasnorm_wordpool_less_exclusions.txt	LTP270	ltpFR	15	1	1	COMPANION	357	n/a	1	n/a	0	0	0	0	0.5869140625	0.422607421875	lower	../fonts/amplitud.ttf
149951	START	n/a	LTP270	ltpFR	15	n/a	n/a	n/a	n/a	n/a	n/a	n/a	n/a	n/a	n/a	n/a	n/a	n/a	n/a	n/a
150766	PROB	n/a	LTP270	ltpFR	15	n/a	n/a	n/a	n/a	n/a	n/a	22	9	7	6	n/a	n/a	n/a	n/a	n/a
153729	PROB	n/a	LTP270	ltpFR	15	n/a	n/a	n/a	n/a	n/a	n/a	10	3	1	6	n/a	n/a	n/a	n/a	n/a
155476	PROB	n/a	LTP270	ltpFR	15	n/a	n/a	n/a	n/a	n/a	n/a	10	7	2	1	n/a	n/a	n/a	n/a	n/a
157166	STOP	n/a	LTP270	ltpFR	15	n/a	n/a	n/a	n/a	n/a	n/a	n/a	n/a	n/a	n/a	n/a	n/a	n/a	n/a	n/a
159804	REC_START	n/a	LTP270	ltpFR	15	1	n/a	n/a	n/a	n/a	n/a	n/a	0	0	0	n/a	n/a	n/a	n/a	n/a
164838	REC_WORD	wordpools/wasnorm_wordpool_less_exclusions.txt	LTP270	ltpFR	15	1	0	HEEL	700	n/a	0	n/a	0	0	0	n/a	n/a	n/a	n/a	n/a
167736	REC_WORD	wordpools/wasnorm_wordpool_less_exclusions.txt	LTP270	ltpFR	15	1	1	OBOE	969	n/a	0	n/a	0	0	0	n/a	n/a	n/a	n/a	n/a
169691	REC_WORD	wordpools/wasnorm_wordpool_less_exclusions.txt	LTP270	ltpFR	15	1	0	TREAT	1501	n/a	0	n/a	0	0	0	n/a	n/a	n/a	n/a	n/a
170789	REC_WORD	wordpools/wasnorm_wordpool_less_exclusions.txt	LTP270	ltpFR	15	1	0	MOUNTAIN	924	n/a	1	n/a	0	0	0	n/a	n/a	n/a	n/a	n/a
172627	REC_WORD	wordpools/wasnorm_wordpool_less_exclusions.txt	LTP270	ltpFR	15	1	0	KEEPER	769	n/a	1	n/a	0	0	0	n/a	n/a	n/a	n/a	n/a
174507	REC_WORD	wordpools/wasnorm_wordpool_less_exclusions.txt	LTP270	ltpFR	15	1	0	DAUGHTER	442	n/a	1	n/a	0	0	0	n/a	n/a	n/a	n/a	n/a
176103	REC_WORD	wordpools/wasnorm_wordpool_less_exclusions.txt	LTP270	ltpFR	15	1	0	SALIVA	1226	n/a	0	n/a	0	0	0	n/a	n/a	n/a	n/a	n/a
183787	REC_WORD	wordpools/wasnorm_wordpool_less_exclusions.txt	LTP270	ltpFR	15	1	1	MOB	904	n/a	0	n/a	0	0	0	n/a	n/a	n/a	n/a	n/a
221685	REC_WORD	wordpools/wasnorm_wordpool_less_exclusions.txt	LTP270	ltpFR	15	1	1	COMPANION	357	n/a	1	n/a	0	0	0	n/a	n/a	n/a	n/a	n/a
236705	START	n/a	LTP270	ltpFR	15	n/a	n/a	n/a	n/a	n/a	n/a	n/a	n/a	n/a	n/a	n/a	n/a	n/a	n/a	n/a
238219	PROB	n/a	LTP270	ltpFR	15	n/a	n/a	n/a	n/a	n/a	n/a	7	3	2	2	n/a	n/a	n/a	n/a	n/a
240699	PROB	n/a	LTP270	ltpFR	15	n/a	n/a	n/a	n/a	n/a	n/a	20	8	9	5	n/a	n/a	n/a	n/a	n/a
244038	STOP	n/a	LTP270	ltpFR	15	n/a	n/a	n/a	n/a	n/a	n/a	n/a	n/a	n/a	n/a	n/a	n/a	n/a	n/a	n/a
245590	WORD	wordpools/wasnorm_wordpool_less_exclusions.txt	LTP270	ltpFR	15	2	0	DEPARTMENT	449	n/a	1	n/a	0	0	0	1	0.412841796875	0.57763671875	upper	../fonts/zerothre.ttf
248603	START	n/a	LTP270	ltpFR	15	n/a	n/a	n/a	n/a	n/a	n/a	n/a	n/a	n/a	n/a	n/a	n/a	n/a	n/a	n/a
249518	PROB	n/a	LTP270	ltpFR	15	n/a	n/a	n/a	n/a	n/a	n/a	8	6	1	1	n/a	n/a	n/a	n/a	n/a
251033	PROB	n/a	LTP270	ltpFR	15	n/a	n/a	n/a	n/a	n/a	n/a	11	8	2	1	n/a	n/a	n/a	n/a	n/a
256602	STOP	n/a	LTP270	ltpFR	15	n/a	n/a	n/a	n/a	n/a	n/a	n/a	n/a	n/a	n/a	n/a	n/a	n/a	n/a	n/a
257806	WORD	wordpools/wasnorm_wordpool_less_exclusions.txt	LTP270	ltpFR	15	2	0	PAWN	1030	n/a	0	n/a	0	0	0	1	0.412841796875	0.57763671875	upper	../fonts/zerothre.ttf
260819	START	n/a	LTP270	ltpFR	15	n/a	n/a	n/a	n/a	n/a	n/a	n/a	n/a	n/a	n/a	n/a	n/a	n/a	n/a	n/a
261984	PROB	n/a	LTP270	ltpFR	15	n/a	n/a	n/a	n/a	n/a	n/a	19	9	4	6	n/a	n/a	n/a	n/a	n/a
265828	PROB	n/a	LTP270	ltpFR	15	n/a	n/a	n/a	n/a	n/a	n/a	23	6	8	9	n/a	n/a	n/a	n/a	n/a
267573	STOP	n/a	LTP270	ltpFR	15	n/a	n/a	n/a	n/a	n/a	n/a	n/a	n/a	n/a	n/a	n/a	n/a	n/a	n/a	n/a
269722	WORD	wordpools/wasnorm_wordpool_less_exclusions.txt	LTP270	ltpFR	15	2	0	CONTRACT	368	n/a	1	n/a	0	0	0	1	0.412841796875	0.57763671875	upper	../fonts/zerothre.ttf
272735	START	n/a	LTP270	ltpFR	15	n/a	n/a	n/a	n/a	n/a	n/a	n/a	n/a	n/a	n/a	n/a	n/a	n/a	n/a	n/a
273766	PROB	n/a	LTP270	ltpFR	15	n/a	n/a	n/a	n/a	n/a	n/a	17	4	9	4	n/a	n/a	n/a	n/a	n/a
276229	PROB	n/a	LTP270	ltpFR	15	n/a	n/a	n/a	n/a	n/a	n/a	15	5	2	8	n/a	n/a	n/a	n/a	n/a
279974	STOP	n/a	LTP270	ltpFR	15	n/a	n/a	n/a	n/a	n/a	n/a	n/a	n/a	n/a	n/a	n/a	n/a	n/a	n/a	n/a
281704	WORD	wordpools/wasnorm_wordpool_less_exclusions.txt	LTP270	ltpFR	15	2	0	THESAURUS	1454	n/a	1	n/a	0	0	0	1	0.412841796875	0.57763671875	upper	../fonts/zerothre.ttf
284717	START	n/a	LTP270	ltpFR	15	n/a	n/a	n/a	n/a	n/a	n/a	n/a	n/a	n/a	n/a	n/a	n/a	n/a	n/a	n/a
285581	PROB	n/a	LTP270	ltpFR	15	n/a	n/a	n/a	n/a	n/a	n/a	18	8	5	5	n/a	n/a	n/a	n/a	n/a
287063	PROB	n/a	LTP270	ltpFR	15	n/a	n/a	n/a	n/a	n/a	n/a	14	5	7	2	n/a	n/a	n/a	n/a	n/a
289043	PROB	n/a	LTP270	ltpFR	15	n/a	n/a	n/a	n/a	n/a	n/a	14	3	4	7	n/a	n/a	n/a	n/a	n/a
291525	STOP	n/a	LTP270	ltpFR	15	n/a	n/a	n/a	n/a	n/a	n/a	n/a	n/a	n/a	n/a	n/a	n/a	n/a	n/a	n/a
293703	WORD	wordpools/wasnorm_wordpool_less_exclusions.txt	LTP270	ltpFR	15	2	0	BUILDER	190	n/a	1	n/a	0	0	0	1	0.412841796875	0.57763671875	upper	../fonts/zerothre.ttf
296715	START	n/a	LTP270	ltpFR	15	n/a	n/a	n/a	n/a	n/a	n/a	n/a	n/a	n/a	n/a	n/a	n/a	n/a	n/a	n/a
297529	PROB	n/a	LTP270	ltpFR	15	n/a	n/a	n/a	n/a	n/a	n/a	14	7	2	4	n/a	n/a	n/a	n/a	n/a
300992	PROB	n/a	LTP270	ltpFR	15	n/a	n/a	n/a	n/a	n/a	n/a	10	2	6	2	n/a	n/a	n/a	n/a	n/a
303830	STOP	n/a	LTP270	ltpFR	15	n/a	n/a	n/a	n/a	n/a	n/a	n/a	n/a	n/a	n/a	n/a	n/a	n/a	n/a	n/a
305768	WORD	wordpools/wasnorm_wordpool_less_exclusions.txt	LTP270	ltpFR	15	2	0	PAINT	1003	n/a	1	n/a	0	0	0	1	0.412841796875	0.57763671875	upper	../fonts/zerothre.ttf
308781	START	n/a	LTP270	ltpFR	15	n/a	n/a	n/a	n/a	n/a	n/a	n/a	n/a	n/a	n/a	n/a	n/a	n/a	n/a	n/a
309779	PROB	n/a	LTP270	ltpFR	15	n/a	n/a	n/a	n/a	n/a	n/a	12	5	6	1	n/a	n/a	n/a	n/a	n/a
312408	PROB	n/a	LTP270	ltpFR	15	n/a	n/a	n/a	n/a	n/a	n/a	10	3	3	4	n/a	n/a	n/a	n/a	n/a
314389	PROB	n/a	LTP270	ltpFR	15	n/a	n/a	n/a	n/a	n/a	n/a	15	8	3	4	n/a	n/a	n/a	n/a	n/a
316718	STOP	n/a	LTP270	ltpFR	15	n/a	n/a	n/a	n/a	n/a	n/a	n/a	n/a	n/a	n/a	n/a	n/a	n/a	n/a	n/a
317817	WORD	wordpools/wasnorm_wordpool_less_exclusions.txt	LTP270	ltpFR	15	2	0	FATHER	554	n/a	1	n/a	0	0	0	1	0.412841796875	0.57763671875	upper	../fonts/zerothre.ttf
320829	START	n/a	LTP270	ltpFR	15	n/a	n/a	n/a	n/a	n/a	n/a	n/a	n/a	n/a	n/a	n/a	n/a	n/a	n/a	n/a
321778	PROB	n/a	LTP270	ltpFR	15	n/a	n/a	n/a	n/a	n/a	n/a	10	4	5	1	n/a	n/a	n/a	n/a	n/a
323342	PROB	n/a	LTP270	ltpFR	15	n/a	n/a	n/a	n/a	n/a	n/a	17	2	8	7	n/a	n/a	n/a	n/a	n/a
325788	PROB	n/a	LTP270	ltpFR	15	n/a	n/a	n/a	n/a	n/a	n/a	13	2	2	9	n/a	n/a	n/a	n/a	n/a
327605	STOP	n/a	LTP270	ltpFR	15	n/a	n/a	n/a	n/a	n/a	n/a	n/a	n/a	n/a	n/a	n/a	n/a	n/a	n/a	n/a
329782	WORD	wordpools/wasnorm_wordpool_less_exclusions.txt	LTP270	ltpFR	15	2	0	ARCHITECT	36	n/a	1	n/a	0	0	0	1	0.412841796875	0.57763671875	upper	../fonts/zerothre.ttf
332795	START	n/a	LTP270	ltpFR	15	n/a	n/a	n/a	n/a	n/a	n/a	n/a	n/a	n/a	n/a	n/a	n/a	n/a	n/a	n/a
333909	PROB	n/a	LTP270	ltpFR	15	n/a	n/a	n/a	n/a	n/a	n/a	7	5	1	1	n/a	n/a	n/a	n/a	n/a
335589	PROB	n/a	LTP270	ltpFR	15	n/a	n/a	n/a	n/a	n/a	n/a	17	7	6	4	n/a	n/a	n/a	n/a	n/a
337238	PROB	n/a	LTP270	ltpFR	15	n/a	n/a	n/a	n/a	n/a	n/a	7	1	5	1	n/a	n/a	n/a	n/a	n/a
340795	STOP	n/a	LTP270	ltpFR	15	n/a	n/a	n/a	n/a	n/a	n/a	n/a	n/a	n/a	n/a	n/a	n/a	n/a	n/a	n/a
341664	WORD	wordpools/wasnorm_wordpool_less_exclusions.txt	LTP270	ltpFR	15	2	0	CORPORATION	382	n/a	1	n/a	0	0	0	1	0.412841796875	0.57763671875	upper	../fonts/zerothre.ttf
344676	START	n/a	LTP270	ltpFR	15	n/a	n/a	n/a	n/a	n/a	n/a	n/a	n/a	n/a	n/a	n/a	n/a	n/a	n/a	n/a
345674	PROB	n/a	LTP270	ltpFR	15	n/a	n/a	n/a	n/a	n/a	n/a	12	1	2	9	n/a	n/a	n/a	n/a	n/a
347506	PROB	n/a	LTP270	ltpFR	15	n/a	n/a	n/a	n/a	n/a	n/a	7	1	2	4	n/a	n/a	n/a	n/a	n/a
350035	PROB	n/a	LTP270	ltpFR	15	n/a	n/a	n/a	n/a	n/a	n/a	11	3	2	6	n/a	n/a	n/a	n/a	n/a
352094	STOP	n/a	LTP270	ltpFR	15	n/a	n/a	n/a	n/a	n/a	n/a	n/a	n/a	n/a	n/a	n/a	n/a	n/a	n/a	n/a
353679	WORD	wordpools/wasnorm_wordpool_less_exclusions.txt	LTP270	ltpFR	15	2	0	CHIMPANZEE	302	n/a	1	n/a	0	0	0	1	0.412841796875	0.57763671875	upper	../fonts/zerothre.ttf
356693	START	n/a	LTP270	ltpFR	15	n/a	n/a	n/a	n/a	n/a	n/a	n/a	n/a	n/a	n/a	n/a	n/a	n/a	n/a	n/a
357640	PROB	n/a	LTP270	ltpFR	15	n/a	n/a	n/a	n/a	n/a	n/a	17	8	8	1	n/a	n/a	n/a	n/a	n/a
359272	PROB	n/a	LTP270	ltpFR	15	n/a	n/a	n/a	n/a	n/a	n/a	15	4	6	5	n/a	n/a	n/a	n/a	n/a
364686	STOP	n/a	LTP270	ltpFR	15	n/a	n/a	n/a	n/a	n/a	n/a	n/a	n/a	n/a	n/a	n/a	n/a	n/a	n/a	n/a
365779	WORD	wordpools/wasnorm_wordpool_less_exclusions.txt	LTP270	ltpFR	15	2	0	REEF	1177	n/a	1	n/a	0	0	0	1	0.412841796875	0.57763671875	upper	../fonts/zerothre.ttf
368791	START	n/a	LTP270	ltpFR	15	n/a	n/a	n/a	n/a	n/a	n/a	n/a	n/a	n/a	n/a	n/a	n/a	n/a	n/a	n/a
369906	PROB	n/a	LTP270	ltpFR	15	n/a	n/a	n/a	n/a	n/a	n/a	15	2	9	4	n/a	n/a	n/a	n/a	n/a
373417	PROB	n/a	LTP270	ltpFR	15	n/a	n/a	n/a	n/a	n/a	n/a	18	4	8	6	n/a	n/a	n/a	n/a	n/a
376118	STOP	n/a	LTP270	ltpFR	15	n/a	n/a	n/a	n/a	n/a	n/a	n/a	n/a	n/a	n/a	n/a	n/a	n/a	n/a	n/a
377877	WORD	wordpools/wasnorm_wordpool_less_exclusions.txt	LTP270	ltpFR	15	2	0	SNACK	1331	n/a	0	n/a	0	0	0	1	0.412841796875	0.57763671875	upper	../fonts/zerothre.ttf
380890	START	n/a	LTP270	ltpFR	15	n/a	n/a	n/a	n/a	n/a	n/a	n/a	n/a	n/a	n/a	n/a	n/a	n/a	n/a	n/a
381954	PROB	n/a	LTP270	ltpFR	15	n/a	n/a	n/a	n/a	n/a	n/a	16	6	5	5	n/a	n/a	n/a	n/a	n/a
383236	PROB	n/a	LTP270	ltpFR	15	n/a	n/a	n/a	n/a	n/a	n/a	13	7	5	1	n/a	n/a	n/a	n/a	n/a
385681	PROB	n/a	LTP270	ltpFR	15	n/a	n/a	n/a	n/a	n/a	n/a	13	5	4	4	n/a	n/a	n/a	n/a	n/a
388486	STOP	n/a	LTP270	ltpFR	15	n/a	n/a	n/a	n/a	n/a	n/a	n/a	n/a	n/a	n/a	n/a	n/a	n/a	n/a	n/a
390009	WORD	wordpools/wasnorm_wordpool_less_exclusions.txt	LTP270	ltpFR	15	2	0	BALCONY	72	n/a	1	n/a	0	0	0	1	0.412841796875	0.57763671875	upper	../fonts/zerothre.ttf
393022	START	n/a	LTP270	ltpFR	15	n/a	n/a	n/a	n/a	n/a	n/a	n/a	n/a	n/a	n/a	n/a	n/a	n/a	n/a	n/a
394053	PROB	n/a	LTP270	ltpFR	15	n/a	n/a	n/a	n/a	n/a	n/a	15	8	2	5	n/a	n/a	n/a	n/a	n/a
396865	PROB	n/a	LTP270	ltpFR	15	n/a	n/a	n/a	n/a	n/a	n/a	15	8	6	1	n/a	n/a	n/a	n/a	n/a
399798	STOP	n/a	LTP270	ltpFR	15	n/a	n/a	n/a	n/a	n/a	n/a	n/a	n/a	n/a	n/a	n/a	n/a	n/a	n/a	n/a
402091	WORD	wordpools/wasnorm_wordpool_less_exclusions.txt	LTP270	ltpFR	15	2	0	MOAT	903	n/a	1	n/a	0	0	0	1	0.412841796875	0.57763671875	upper	../fonts/zerothre.ttf
405104	START	n/a	LTP270	ltpFR	15	n/a	n/a	n/a	n/a	n/a	n/a	n/a	n/a	n/a	n/a	n/a	n/a	n/a	n/a	n/a
406285	PROB	n/a	LTP270	ltpFR	15	n/a	n/a	n/a	n/a	n/a	n/a	20	5	8	7	n/a	n/a	n/a	n/a	n/a
409463	PROB	n/a	LTP270	ltpFR	15	n/a	n/a	n/a	n/a	n/a	n/a	14	7	2	6	n/a	n/a	n/a	n/a	n/a
412886	STOP	n/a	LTP270	ltpFR	15	n/a	n/a	n/a	n/a	n/a	n/a	n/a	n/a	n/a	n/a	n/a	n/a	n/a	n/a	n/a
414239	WORD	wordpools/wasnorm_wordpool_less_exclusions.txt	LTP270	ltpFR	15	2	0	CLIPPERS	324	n/a	0	n/a	0	0	0	1	0.412841796875	0.57763671875	upper	../fonts/zerothre.ttf
417252	START	n/a	LTP270	ltpFR	15	n/a	n/a	n/a	n/a	n/a	n/a	n/a	n/a	n/a	n/a	n/a	n/a	n/a	n/a	n/a
418417	PROB	n/a	LTP270	ltpFR	15	n/a	n/a	n/a	n/a	n/a	n/a	13	2	7	4	n/a	n/a	n/a	n/a	n/a
421845	PROB	n/a	LTP270	ltpFR	15	n/a	n/a	n/a	n/a	n/a	n/a	15	5	8	2	n/a	n/a	n/a	n/a	n/a
424990	STOP	n/a	LTP270	ltpFR	15	n/a	n/a	n/a	n/a	n/a	n/a	n/a	n/a	n/a	n/a	n/a	n/a	n/a	n/a	n/a
426455	WORD	wordpools/wasnorm_wordpool_less_exclusions.txt	LTP270	ltpFR	15	2	0	DINER	467	n/a	1	n/a	0	0	0	1	0.412841796875	0.57763671875	upper	../fonts/zerothre.ttf
429467	START	n/a	LTP270	ltpFR	15	n/a	n/a	n/a	n/a	n/a	n/a	n/a	n/a	n/a	n/a	n/a	n/a	n/a	n/a	n/a
430664	PROB	n/a	LTP270	ltpFR	15	n/a	n/a	n/a	n/a	n/a	n/a	14	7	2	5	n/a	n/a	n/a	n/a	n/a
432729	PROB	n/a	LTP270	ltpFR	15	n/a	n/a	n/a	n/a	n/a	n/a	15	3	4	8	n/a	n/a	n/a	n/a	n/a
434992	PROB	n/a	LTP270	ltpFR	15	n/a	n/a	n/a	n/a	n/a	n/a	17	7	9	1	n/a	n/a	n/a	n/a	n/a
436998	STOP	n/a	LTP270	ltpFR	15	n/a	n/a	n/a	n/a	n/a	n/a	n/a	n/a	n/a	n/a	n/a	n/a	n/a	n/a	n/a
439286	REC_START	n/a	LTP270	ltpFR	15	2	n/a	n/a	n/a	n/a	n/a	n/a	0	0	0	n/a	n/a	n/a	n/a	n/a
442346	REC_WORD	wordpools/wasnorm_wordpool_less_exclusions.txt	LTP270	ltpFR	15	2	0	MOAT	903	n/a	1	n/a	0	0	0	n/a	n/a	n/a	n/a	n/a
447044	REC_WORD	wordpools/wasnorm_wordpool_less_exclusions.txt	LTP270	ltpFR	15	2	0	CORPORATION	382	n/a	1	n/a	0	0	0	n/a	n/a	n/a	n/a	n/a
448744	REC_WORD	wordpools/wasnorm_wordpool_less_exclusions.txt	LTP270	ltpFR	15	2	0	BUILDER	190	n/a	1	n/a	0	0	0	n/a	n/a	n/a	n/a	n/a
450125	REC_WORD	wordpools/wasnorm_wordpool_less_exclusions.txt	LTP270	ltpFR	15	2	0	FATHER	554	n/a	1	n/a	0	0	0	n/a	n/a	n/a	n/a	n/a
458510	REC_WORD	wordpools/wasnorm_wordpool_less_exclusions.txt	LTP270	ltpFR	15	2	0	CLIPPERS	324	n/a	0	n/a	0	0	0	n/a	n/a	n/a	n/a	n/a
493382	REC_WORD	wordpools/wasnorm_wordpool_less_exclusions.txt	LTP270	ltpFR	15	2	n/a	PAINTER	1004	n/a	n/a	n/a	0	0	0	n/a	n/a	n/a	n/a	n/a
517236	WORD	wordpools/wasnorm_wordpool_less_exclusions.txt	LTP270	ltpFR	15	3	0	INFANT	737	n/a	1	n/a	0	0	0	1	0.412841796875	0.57763671875	upper	../fonts/zerothre.ttf
521130	WORD	wordpools/wasnorm_wordpool_less_exclusions.txt	LTP270	ltpFR	15	3	0	GLOVE	642	n/a	0	n/a	0	0	0	1	0.412841796875	0.57763671875	upper	../fonts/zerothre.ttf
525091	WORD	wordpools/wasnorm_wordpool_less_exclusions.txt	LTP270	ltpFR	15	3	0	TOENAIL	1474	n/a	0	n/a	0	0	0	1	0.412841796875	0.57763671875	upper	../fonts/zerothre.ttf
529168	WORD	wordpools/wasnorm_wordpool_less_exclusions.txt	LTP270	ltpFR	15	3	1	SICKLE	1302	n/a	0	n/a	0	0	0	0	0.5869140625	0.422607421875	lower	../fonts/amplitud.ttf
533112	WORD	wordpools/wasnorm_wordpool_less_exclusions.txt	LTP270	ltpFR	15	3	1	JEEP	753	n/a	0	n/a	0	0	0	0	0.5869140625	0.422607421875	lower	../fonts/amplitud.ttf
537272	WORD	wordpools/wasnorm_wordpool_less_exclusions.txt	LTP270	ltpFR	15	3	1	HEDGE	699	n/a	0	n/a	0	0	0	0	0.5869140625	0.422607421875	lower	../fonts/amplitud.ttf
541250	WORD	wordpools/wasnorm_wordpool_less_exclusions.txt	LTP270	ltpFR	15	3	1	EDITOR	516	n/a	1	n/a	0	0	0	0	0.5869140625	0.422607421875	lower	../fonts/amplitud.ttf
545360	WORD	wordpools/wasnorm_wordpool_less_exclusions.txt	LTP270	ltpFR	15	3	1	SUBWAY	1400	n/a	0	n/a	0	0	0	0	0.5869140625	0.422607421875	lower	../fonts/amplitud.ttf
549520	WORD	wordpools/wasnorm_wordpool_less_exclusions.txt	LTP270	ltpFR	15	3	1	GRILL	661	n/a	0	n/a	0	0	0	0	0.5869140625	0.422607421875	lower	../fonts/amplitud.ttf
553580	WORD	wordpools/wasnorm_wordpool_less_exclusions.txt	LTP270	ltpFR	15	3	0	BANQUET	86	n/a	1	n/a	0	0	0	1	0.412841796875	0.57763671875	upper	../fonts/zerothre.ttf
557459	WORD	wordpools/wasnorm_wordpool_less_exclusions.txt	LTP270	ltpFR	15	3	0	SEAGULL	1261	n/a	1	n/a	0	0	0	1	0.412841796875	0.57763671875	upper	../fonts/zerothre.ttf
561336	WORD	wordpools/wasnorm_wordpool_less_exclusions.txt	LTP270	ltpFR	15	3	0	BIRD	129	n/a	0	n/a	0	0	0	1	0.412841796875	0.57763671875	upper	../fonts/zerothre.ttf
565414	WORD	wordpools/wasnorm_wordpool_less_exclusions.txt	LTP270	ltpFR	15	3	1	VALVE	1546	n/a	0	n/a	0	0	0	0	0.5869140625	0.422607421875	lower	../fonts/amplitud.ttf
569508	WORD	wordpools/wasnorm_wordpool_less_exclusions.txt	LTP270	ltpFR	15	3	1	KITE	779	n/a	0	n/a	0	0	0	0	0.5869140625	0.422607421875	lower	../fonts/amplitud.ttf
573534	WORD	wordpools/wasnorm_wordpool_less_exclusions.txt	LTP270	ltpFR	15	3	0	TWIG	1527	n/a	0	n/a	0	0	0	1	0.412841796875	0.57763671875	upper	../fonts/zerothre.ttf
577578	WORD	wordpools/wasnorm_wordpool_less_exclusions.txt	LTP270	ltpFR	15	3	0	BATTERY	101	n/a	0	n/a	0	0	0	1	0.412841796875	0.57763671875	upper	../fonts/zerothre.ttf
580590	START	n/a	LTP270	ltpFR	15	n/a	n/a	n/a	n/a	n/a	n/a	n/a	n/a	n/a	n/a	n/a	n/a	n/a	n/a	n/a
581739	PROB	n/a	LTP270	ltpFR	15	n/a	n/a	n/a	n/a	n/a	n/a	10	4	3	3	n/a	n/a	n/a	n/a	n/a
585134	PROB	n/a	LTP270	ltpFR	15	n/a	n/a	n/a	n/a	n/a	n/a	17	6	2	9	n/a	n/a	n/a	n/a	n/a
587248	PROB	n/a	LTP270	ltpFR	15	n/a	n/a	n/a	n/a	n/a	n/a	13	9	2	2	n/a	n/a	n/a	n/a	n/a
590027	PROB	n/a	LTP270	ltpFR	15	n/a	n/a	n/a	n/a	n/a	n/a	7	1	5	1	n/a	n/a	n/a	n/a	n/a
591358	PROB	n/a	LTP270	ltpFR	15	n/a	n/a	n/a	n/a	n/a	n/a	14	5	4	5	n/a	n/a	n/a	n/a	n/a
593537	PROB	n/a	LTP270	ltpFR	15	n/a	n/a	n/a	n/a	n/a	n/a	12	2	4	6	n/a	n/a	n/a	n/a	n/a
595990	STOP	n/a	LTP270	ltpFR	15	n/a	n/a	n/a	n/a	n/a	n/a	n/a	n/a	n/a	n/a	n/a	n/a	n/a	n/a	n/a
598530	REC_START	n/a	LTP270	ltpFR	15	3	n/a	n/a	n/a	n/a	n/a	n/a	0	0	0	n/a	n/a	n/a	n/a	n/a
602531	REC_WORD	wordpools/wasnorm_wordpool_less_exclusions.txt	LTP270	ltpFR	15	3	0	INFANT	737	n/a	1	n/a	0	0	0	n/a	n/a	n/a	n/a	n/a
606838	REC_WORD	wordpools/wasnorm_wordpool_less_exclusions.txt	LTP270	ltpFR	15	3	1	SICKLE	1302	n/a	0	n/a	0	0	0	n/a	n/a	n/a	n/a	n/a
608059	REC_WORD	wordpools/wasnorm_wordpool_less_exclusions.txt	LTP270	ltpFR	15	3	1	VALVE	1546	n/a	0	n/a	0	0	0	n/a	n/a	n/a	n/a	n/a
612679	REC_WORD	wordpools/wasnorm_wordpool_less_exclusions.txt	LTP270	ltpFR	15	3	0	TOENAIL	1474	n/a	0	n/a	0	0	0	n/a	n/a	n/a	n/a	n/a
620697	REC_WORD	wordpools/wasnorm_wordpool_less_exclusions.txt	LTP270	ltpFR	15	3	0	BIRD	129	n/a	0	n/a	0	0	0	n/a	n/a	n/a	n/a	n/a
675217	START	n/a	LTP270	ltpFR	15	n/a	n/a	n/a	n/a	n/a	n/a	n/a	n/a	n/a	n/a	n/a	n/a	n/a	n/a	n/a
676731	PROB	n/a	LTP270	ltpFR	15	n/a	n/a	n/a	n/a	n/a	n/a	14	8	2	5	n/a	n/a	n/a	n/a	n/a
680276	PROB	n/a	LTP270	ltpFR	15	n/a	n/a	n/a	n/a	n/a	n/a	12	9	2	1	n/a	n/a	n/a	n/a	n/a
682422	PROB	n/a	LTP270	ltpFR	15	n/a	n/a	n/a	n/a	n/a	n/a	14	4	3	7	n/a	n/a	n/a	n/a	n/a
691217	STOP	n/a	LTP270	ltpFR	15	n/a	n/a	n/a	n/a	n/a	n/a	n/a	n/a	n/a	n/a	n/a	n/a	n/a	n/a	n/a
692341	WORD	wordpools/wasnorm_wordpool_less_exclusions.txt	LTP270	ltpFR	15	4	1	UNICORN	1538	n/a	0	n/a	0	0	0	0	0.5869140625	0.422607421875	lower	../fonts/amplitud.ttf
695353	START	n/a	LTP270	ltpFR	15	n/a	n/a	n/a	n/a	n/a	n/a	n/a	n/a	n/a	n/a	n/a	n/a	n/a	n/a	n/a
696451	PROB	n/a	LTP270	ltpFR	15	n/a	n/a	n/a	n/a	n/a	n/a	18	4	8	6	n/a	n/a	n/a	n/a	n/a
698781	PROB	n/a	LTP270	ltpFR	15	n/a	n/a	n/a	n/a	n/a	n/a	14	8	4	2	n/a	n/a	n/a	n/a	n/a
702076	PROB	n/a	LTP270	ltpFR	15	n/a	n/a	n/a	n/a	n/a	n/a	9	1	6	2	n/a	n/a	n/a	n/a	n/a
704073	PROB	n/a	LTP270	ltpFR	15	n/a	n/a	n/a	n/a	n/a	n/a	11	4	1	6	n/a	n/a	n/a	n/a	n/a
706137	PROB	n/a	LTP270	ltpFR	15	n/a	n/a	n/a	n/a	n/a	n/a	11	4	2	5	n/a	n/a	n/a	n/a	n/a
711353	STOP	n/a	LTP270	ltpFR	15	n/a	n/a	n/a	n/a	n/a	n/a	n/a	n/a	n/a	n/a	n/a	n/a	n/a	n/a	n/a
712394	WORD	wordpools/wasnorm_wordpool_less_exclusions.txt	LTP270	ltpFR	15	4	1	DASHBOARD	441	n/a	0	n/a	0	0	0	0	0.5869140625	0.422607421875	lower	../fonts/amplitud.ttf
715407	START	n/a	LTP270	ltpFR	15	n/a	n/a	n/a	n/a	n/a	n/a	n/a	n/a	n/a	n/a	n/a	n/a	n/a	n/a	n/a
716488	PROB	n/a	LTP270	ltpFR	15	n/a	n/a	n/a	n/a	n/a	n/a	5	1	2	2	n/a	n/a	n/a	n/a	n/a
717986	PROB	n/a	LTP270	ltpFR	15	n/a	n/a	n/a	n/a	n/a	n/a	12	2	4	6	n/a	n/a	n/a	n/a	n/a
719682	PROB	n/a	LTP270	ltpFR	15	n/a	n/a	n/a	n/a	n/a	n/a	15	7	3	5	n/a	n/a	n/a	n/a	n/a
721679	PROB	n/a	LTP270	ltpFR	15	n/a	n/a	n/a	n/a	n/a	n/a	21	9	6	6	n/a	n/a	n/a	n/a	n/a
725441	PROB	n/a	LTP270	ltpFR	15	n/a	n/a	n/a	n/a	n/a	n/a	17	1	7	9	n/a	n/a	n/a	n/a	n/a
727372	PROB	n/a	LTP270	ltpFR	15	n/a	n/a	n/a	n/a	n/a	n/a	9	2	5	2	n/a	n/a	n/a	n/a	n/a
731407	STOP	n/a	LTP270	ltpFR	15	n/a	n/a	n/a	n/a	n/a	n/a	n/a	n/a	n/a	n/a	n/a	n/a	n/a	n/a	n/a
732414	WORD	wordpools/wasnorm_wordpool_less_exclusions.txt	LTP270	ltpFR	15	4	1	LEOPARD	812	n/a	1	n/a	0	0	0	0	0.5869140625	0.422607421875	lower	../fonts/amplitud.ttf
735427	START	n/a	LTP270	ltpFR	15	n/a	n/a	n/a	n/a	n/a	n/a	n/a	n/a	n/a	n/a	n/a	n/a	n/a	n/a	n/a
736408	PROB	n/a	LTP270	ltpFR	15	n/a	n/a	n/a	n/a	n/a	n/a	20	8	3	9	n/a	n/a	n/a	n/a	n/a
739853	PROB	n/a	LTP270	ltpFR	15	n/a	n/a	n/a	n/a	n/a	n/a	14	8	4	2	n/a	n/a	n/a	n/a	n/a
741717	PROB	n/a	LTP270	ltpFR	15	n/a	n/a	n/a	n/a	n/a	n/a	17	7	7	3	n/a	n/a	n/a	n/a	n/a
743530	PROB	n/a	LTP270	ltpFR	15	n/a	n/a	n/a	n/a	n/a	n/a	19	9	7	3	n/a	n/a	n/a	n/a	n/a
746510	PROB	n/a	LTP270	ltpFR	15	n/a	n/a	n/a	n/a	n/a	n/a	16	2	5	9	n/a	n/a	n/a	n/a	n/a
751426	STOP	n/a	LTP270	ltpFR	15	n/a	n/a	n/a	n/a	n/a	n/a	n/a	n/a	n/a	n/a	n/a	n/a	n/a	n/a	n/a
752418	WORD	wordpools/wasnorm_wordpool_less_exclusions.txt	LTP270	ltpFR	15	4	1	SEAFOOD	1260	n/a	0	n/a	0	0	0	0	0.5869140625	0.422607421875	lower	../fonts/amplitud.ttf
755430	START	n/a	LTP270	ltpFR	15	n/a	n/a	n/a	n/a	n/a	n/a	n/a	n/a	n/a	n/a	n/a	n/a	n/a	n/a	n/a
756379	PROB	n/a	LTP270	ltpFR	15	n/a	n/a	n/a	n/a	n/a	n/a	23	6	9	8	n/a	n/a	n/a	n/a	n/a
758541	PROB	n/a	LTP270	ltpFR	15	n/a	n/a	n/a	n/a	n/a	n/a	13	4	6	3	n/a	n/a	n/a	n/a	n/a
760689	PROB	n/a	LTP270	ltpFR	15	n/a	n/a	n/a	n/a	n/a	n/a	10	7	3	1	n/a	n/a	n/a	n/a	n/a
763801	PROB	n/a	LTP270	ltpFR	15	n/a	n/a	n/a	n/a	n/a	n/a	14	9	2	3	n/a	n/a	n/a	n/a	n/a
767096	PROB	n/a	LTP270	ltpFR	15	n/a	n/a	n/a	n/a	n/a	n/a	16	9	6	1	n/a	n/a	n/a	n/a	n/a
771430	STOP	n/a	LTP270	ltpFR	15	n/a	n/a	n/a	n/a	n/a	n/a	n/a	n/a	n/a	n/a	n/a	n/a	n/a	n/a	n/a
772520	WORD	wordpools/wasnorm_wordpool_less_exclusions.txt	LTP270	ltpFR	15	4	1	FEATHER	557	n/a	0	n/a	0	0	0	0	0.5869140625	0.422607421875	lower	../fonts/amplitud.ttf
775533	START	n/a	LTP270	ltpFR	15	n/a	n/a	n/a	n/a	n/a	n/a	n/a	n/a	n/a	n/a	n/a	n/a	n/a	n/a	n/a
776531	PROB	n/a	LTP270	ltpFR	15	n/a	n/a	n/a	n/a	n/a	n/a	10	6	1	3	n/a	n/a	n/a	n/a	n/a
778762	PROB	n/a	LTP270	ltpFR	15	n/a	n/a	n/a	n/a	n/a	n/a	13	8	1	4	n/a	n/a	n/a	n/a	n/a
780942	PROB	n/a	LTP270	ltpFR	15	n/a	n/a	n/a	n/a	n/a	n/a	15	5	8	2	n/a	n/a	n/a	n/a	n/a
784437	PROB	n/a	LTP270	ltpFR	15	n/a	n/a	n/a	n/a	n/a	n/a	20	9	4	7	n/a	n/a	n/a	n/a	n/a
786966	PROB	n/a	LTP270	ltpFR	15	n/a	n/a	n/a	n/a	n/a	n/a	13	2	7	4	n/a	n/a	n/a	n/a	n/a
791533	STOP	n/a	LTP270	ltpFR	15	n/a	n/a	n/a	n/a	n/a	n/a	n/a	n/a	n/a	n/a	n/a	n/a	n/a	n/a	n/a
792441	WORD	wordpools/wasnorm_wordpool_less_exclusions.txt	LTP270	ltpFR	15	4	1	BEAST	108	n/a	0	n/a	0	0	0	0	0.5869140625	0.422607421875	lower	../fonts/amplitud.ttf
795454	START	n/a	LTP270	ltpFR	15	n/a	n/a	n/a	n/a	n/a	n/a	n/a	n/a	n/a	n/a	n/a	n/a	n/a	n/a	n/a
796419	PROB	n/a	LTP270	ltpFR	15	n/a	n/a	n/a	n/a	n/a	n/a	13	2	7	4	n/a	n/a	n/a	n/a	n/a
799630	PROB	n/a	LTP270	ltpFR	15	n/a	n/a	n/a	n/a	n/a	n/a	10	3	6	1	n/a	n/a	n/a	n/a	n/a
802293	PROB	n/a	LTP270	ltpFR	15	n/a	n/a	n/a	n/a	n/a	n/a	10	1	4	5	n/a	n/a	n/a	n/a	n/a
804473	PROB	n/a	LTP270	ltpFR	15	n/a	n/a	n/a	n/a	n/a	n/a	15	3	5	7	n/a	n/a	n/a	n/a	n/a
806437	PROB	n/a	LTP270	ltpFR	15	n/a	n/a	n/a	n/a	n/a	n/a	11	2	7	2	n/a	n/a	n/a	n/a	n/a
809581	PROB	n/a	LTP270	ltpFR	15	n/a	n/a	n/a	n/a	n/a	n/a	10	4	1	5	n/a	n/a	n/a	n/a	n/a
811110	STOP	n/a	LTP270	ltpFR	15	n/a	n/a	n/a	n/a	n/a	n/a	n/a	n/a	n/a	n/a	n/a	n/a	n/a	n/a	n/a
812362	WORD	wordpools/wasnorm_wordpool_less_exclusions.txt	LTP270	ltpFR	15	4	1	TOOTH	1481	n/a	0	n/a	0	0	0	0	0.5869140625	0.422607421875	lower	../fonts/amplitud.ttf
815374	START	n/a	LTP270	ltpFR	15	n/a	n/a	n/a	n/a	n/a	n/a	n/a	n/a	n/a	n/a	n/a	n/a	n/a	n/a	n/a
816206	PROB	n/a	LTP270	ltpFR	15	n/a	n/a	n/a	n/a	n/a	n/a	17	5	3	9	n/a	n/a	n/a	n/a	n/a
819917	PROB	n/a	LTP270	ltpFR	15	n/a	n/a	n/a	n/a	n/a	n/a	17	3	5	9	n/a	n/a	n/a	n/a	n/a
823561	PROB	n/a	LTP270	ltpFR	15	n/a	n/a	n/a	n/a	n/a	n/a	25	8	8	9	n/a	n/a	n/a	n/a	n/a
827739	PROB	n/a	LTP270	ltpFR	15	n/a	n/a	n/a	n/a	n/a	n/a	14	5	2	7	n/a	n/a	n/a	n/a	n/a
829736	PROB	n/a	LTP270	ltpFR	15	n/a	n/a	n/a	n/a	n/a	n/a	13	6	6	1	n/a	n/a	n/a	n/a	n/a
831054	STOP	n/a	LTP270	ltpFR	15	n/a	n/a	n/a	n/a	n/a	n/a	n/a	n/a	n/a	n/a	n/a	n/a	n/a	n/a	n/a
832249	WORD	wordpools/wasnorm_wordpool_less_exclusions.txt	LTP270	ltpFR	15	4	1	PRIEST	1122	n/a	1	n/a	0	0	0	0	0.5869140625	0.422607421875	lower	../fonts/amplitud.ttf
835261	START	n/a	LTP270	ltpFR	15	n/a	n/a	n/a	n/a	n/a	n/a	n/a	n/a	n/a	n/a	n/a	n/a	n/a	n/a	n/a
836426	PROB	n/a	LTP270	ltpFR	15	n/a	n/a	n/a	n/a	n/a	n/a	14	2	6	6	n/a	n/a	n/a	n/a	n/a
838621	PROB	n/a	LTP270	ltpFR	15	n/a	n/a	n/a	n/a	n/a	n/a	23	8	7	8	n/a	n/a	n/a	n/a	n/a
842516	PROB	n/a	LTP270	ltpFR	15	n/a	n/a	n/a	n/a	n/a	n/a	13	5	3	5	n/a	n/a	n/a	n/a	n/a
843815	PROB	n/a	LTP270	ltpFR	15	n/a	n/a	n/a	n/a	n/a	n/a	19	7	9	3	n/a	n/a	n/a	n/a	n/a
846461	PROB	n/a	LTP270	ltpFR	15	n/a	n/a	n/a	n/a	n/a	n/a	22	6	8	8	n/a	n/a	n/a	n/a	n/a
851261	STOP	n/a	LTP270	ltpFR	15	n/a	n/a	n/a	n/a	n/a	n/a	n/a	n/a	n/a	n/a	n/a	n/a	n/a	n/a	n/a
852452	WORD	wordpools/wasnorm_wordpool_less_exclusions.txt	LTP270	ltpFR	15	4	1	FRIAR	605	n/a	0	n/a	0	0	0	0	0.5869140625	0.422607421875	lower	../fonts/amplitud.ttf
855464	START	n/a	LTP270	ltpFR	15	n/a	n/a	n/a	n/a	n/a	n/a	n/a	n/a	n/a	n/a	n/a	n/a	n/a	n/a	n/a
856578	PROB	n/a	LTP270	ltpFR	15	n/a	n/a	n/a	n/a	n/a	n/a	15	7	5	3	n/a	n/a	n/a	n/a	n/a
859025	PROB	n/a	LTP270	ltpFR	15	n/a	n/a	n/a	n/a	n/a	n/a	10	4	3	3	n/a	n/a	n/a	n/a	n/a
861139	PROB	n/a	LTP270	ltpFR	15	n/a	n/a	n/a	n/a	n/a	n/a	14	3	2	8	n/a	n/a	n/a	n/a	n/a
865249	PROB	n/a	LTP270	ltpFR	15	n/a	n/a	n/a	n/a	n/a	n/a	13	5	1	7	n/a	n/a	n/a	n/a	n/a
867862	PROB	n/a	LTP270	ltpFR	15	n/a	n/a	n/a	n/a	n/a	n/a	15	4	7	3	n/a	n/a	n/a	n/a	n/a
870758	STOP	n/a	LTP270	ltpFR	15	n/a	n/a	n/a	n/a	n/a	n/a	n/a	n/a	n/a	n/a	n/a	n/a	n/a	n/a	n/a
872488	WORD	wordpools/wasnorm_wordpool_less_exclusions.txt	LTP270	ltpFR	15	4	1	ROBIN	1199	n/a	1	n/a	0	0	0	0	0.5869140625	0.422607421875	lower	../fonts/amplitud.ttf
875501	START	n/a	LTP270	ltpFR	15	n/a	n/a	n/a	n/a	n/a	n/a	n/a	n/a	n/a	n/a	n/a	n/a	n/a	n/a	n/a
876665	PROB	n/a	LTP270	ltpFR	15	n/a	n/a	n/a	n/a	n/a	n/a	12	3	2	7	n/a	n/a	n/a	n/a	n/a
879228	PROB	n/a	LTP270	ltpFR	15	n/a	n/a	n/a	n/a	n/a	n/a	20	8	5	7	n/a	n/a	n/a	n/a	n/a
882740	PROB	n/a	LTP270	ltpFR	15	n/a	n/a	n/a	n/a	n/a	n/a	10	3	4	2	n/a	n/a	n/a	n/a	n/a
885502	PROB	n/a	LTP270	ltpFR	15	n/a	n/a	n/a	n/a	n/a	n/a	11	1	4	6	n/a	n/a	n/a	n/a	n/a
887300	PROB	n/a	LTP270	ltpFR	15	n/a	n/a	n/a	n/a	n/a	n/a	15	5	9	1	n/a	n/a	n/a	n/a	n/a
891501	STOP	n/a	LTP270	ltpFR	15	n/a	n/a	n/a	n/a	n/a	n/a	n/a	n/a	n/a	n/a	n/a	n/a	n/a	n/a	n/a
892692	WORD	wordpools/wasnorm_wordpool_less_exclusions.txt	LTP270	ltpFR	15	4	1	RECIPE	1175	n/a	0	n/a	0	0	0	0	0.5869140625	0.422607421875	lower	../fonts/amplitud.ttf
895704	START	n/a	LTP270	ltpFR	15	n/a	n/a	n/a	n/a	n/a	n/a	n/a	n/a	n/a	n/a	n/a	n/a	n/a	n/a	n/a
896686	PROB	n/a	LTP270	ltpFR	15	n/a	n/a	n/a	n/a	n/a	n/a	19	4	6	9	n/a	n/a	n/a	n/a	n/a
898183	PROB	n/a	LTP270	ltpFR	15	n/a	n/a	n/a	n/a	n/a	n/a	14	9	4	1	n/a	n/a	n/a	n/a	n/a
899814	PROB	n/a	LTP270	ltpFR	15	n/a	n/a	n/a	n/a	n/a	n/a	10	3	4	3	n/a	n/a	n/a	n/a	n/a
902128	PROB	n/a	LTP270	ltpFR	15	n/a	n/a	n/a	n/a	n/a	n/a	14	4	9	1	n/a	n/a	n/a	n/a	n/a
903925	PROB	n/a	LTP270	ltpFR	15	n/a	n/a	n/a	n/a	n/a	n/a	9	1	6	2	n/a	n/a	n/a	n/a	n/a
906155	PROB	n/a	LTP270	ltpFR	15	n/a	n/a	n/a	n/a	n/a	n/a	14	9	3	2	n/a	n/a	n/a	n/a	n/a
908002	PROB	n/a	LTP270	ltpFR	15	n/a	n/a	n/a	n/a	n/a	n/a	20	4	8	9	n/a	n/a	n/a	n/a	n/a
910573	STOP	n/a	LTP270	ltpFR	15	n/a	n/a	n/a	n/a	n/a	n/a	n/a	n/a	n/a	n/a	n/a	n/a	n/a	n/a	n/a
912745	WORD	wordpools/wasnorm_wordpool_less_exclusions.txt	LTP270	ltpFR	15	4	1	BATHTUB	100	n/a	0	n/a	0	0	0	0	0.5869140625	0.422607421875	lower	../fonts/amplitud.ttf
915758	START	n/a	LTP270	ltpFR	15	n/a	n/a	n/a	n/a	n/a	n/a	n/a	n/a	n/a	n/a	n/a	n/a	n/a	n/a	n/a
916622	PROB	n/a	LTP270	ltpFR	15	n/a	n/a	n/a	n/a	n/a	n/a	17	8	5	4	n/a	n/a	n/a	n/a	n/a
920018	PROB	n/a	LTP270	ltpFR	15	n/a	n/a	n/a	n/a	n/a	n/a	14	3	5	6	n/a	n/a	n/a	n/a	n/a
922248	PROB	n/a	LTP270	ltpFR	15	n/a	n/a	n/a	n/a	n/a	n/a	8	4	1	3	n/a	n/a	n/a	n/a	n/a
923812	PROB	n/a	LTP270	ltpFR	15	n/a	n/a	n/a	n/a	n/a	n/a	13	1	9	3	n/a	n/a	n/a	n/a	n/a
925160	PROB	n/a	LTP270	ltpFR	15	n/a	n/a	n/a	n/a	n/a	n/a	12	5	1	6	n/a	n/a	n/a	n/a	n/a
927040	PROB	n/a	LTP270	ltpFR	15	n/a	n/a	n/a	n/a	n/a	n/a	13	5	3	5	n/a	n/a	n/a	n/a	n/a
928422	PROB	n/a	LTP270	ltpFR	15	n/a	n/a	n/a	n/a	n/a	n/a	17	8	5	4	n/a	n/a	n/a	n/a	n/a
930581	STOP	n/a	LTP270	ltpFR	15	n/a	n/a	n/a	n/a	n/a	n/a	n/a	n/a	n/a	n/a	n/a	n/a	n/a	n/a	n/a
932865	WORD	wordpools/wasnorm_wordpool_less_exclusions.txt	LTP270	ltpFR	15	4	1	BUBBLE	183	n/a	0	n/a	0	0	0	0	0.5869140625	0.422607421875	lower	../fonts/amplitud.ttf
935878	START	n/a	LTP270	ltpFR	15	n/a	n/a	n/a	n/a	n/a	n/a	n/a	n/a	n/a	n/a	n/a	n/a	n/a	n/a	n/a
936826	PROB	n/a	LTP270	ltpFR	15	n/a	n/a	n/a	n/a	n/a	n/a	15	8	4	3	n/a	n/a	n/a	n/a	n/a
939222	PROB	n/a	LTP270	ltpFR	15	n/a	n/a	n/a	n/a	n/a	n/a	16	4	6	6	n/a	n/a	n/a	n/a	n/a
941802	PROB	n/a	LTP270	ltpFR	15	n/a	n/a	n/a	n/a	n/a	n/a	10	4	3	3	n/a	n/a	n/a	n/a	n/a
944148	PROB	n/a	LTP270	ltpFR	15	n/a	n/a	n/a	n/a	n/a	n/a	15	4	3	8	n/a	n/a	n/a	n/a	n/a
947293	PROB	n/a	LTP270	ltpFR	15	n/a	n/a	n/a	n/a	n/a	n/a	13	7	3	3	n/a	n/a	n/a	n/a	n/a
951877	STOP	n/a	LTP270	ltpFR	15	n/a	n/a	n/a	n/a	n/a	n/a	n/a	n/a	n/a	n/a	n/a	n/a	n/a	n/a	n/a
953085	WORD	wordpools/wasnorm_wordpool_less_exclusions.txt	LTP270	ltpFR	15	4	1	SHELF	1280	n/a	0	n/a	0	0	0	0	0.5869140625	0.422607421875	lower	../fonts/amplitud.ttf
956097	START	n/a	LTP270	ltpFR	15	n/a	n/a	n/a	n/a	n/a	n/a	n/a	n/a	n/a	n/a	n/a	n/a	n/a	n/a	n/a
957145	PROB	n/a	LTP270	ltpFR	15	n/a	n/a	n/a	n/a	n/a	n/a	10	5	1	4	n/a	n/a	n/a	n/a	n/a
959342	PROB	n/a	LTP270	ltpFR	15	n/a	n/a	n/a	n/a	n/a	n/a	19	9	3	8	n/a	n/a	n/a	n/a	n/a
961705	PROB	n/a	LTP270	ltpFR	15	n/a	n/a	n/a	n/a	n/a	n/a	18	8	3	7	n/a	n/a	n/a	n/a	n/a
963985	PROB	n/a	LTP270	ltpFR	15	n/a	n/a	n/a	n/a	n/a	n/a	15	3	7	5	n/a	n/a	n/a	n/a	n/a
966432	PROB	n/a	LTP270	ltpFR	15	n/a	n/a	n/a	n/a	n/a	n/a	11	2	2	7	n/a	n/a	n/a	n/a	n/a
972097	STOP	n/a	LTP270	ltpFR	15	n/a	n/a	n/a	n/a	n/a	n/a	n/a	n/a	n/a	n/a	n/a	n/a	n/a	n/a	n/a
973238	WORD	wordpools/wasnorm_wordpool_less_exclusions.txt	LTP270	ltpFR	15	4	1	TYPEWRITER	1531	n/a	1	n/a	0	0	0	0	0.5869140625	0.422607421875	lower	../fonts/amplitud.ttf
976251	START	n/a	LTP270	ltpFR	15	n/a	n/a	n/a	n/a	n/a	n/a	n/a	n/a	n/a	n/a	n/a	n/a	n/a	n/a	n/a
977299	PROB	n/a	LTP270	ltpFR	15	n/a	n/a	n/a	n/a	n/a	n/a	15	6	6	3	n/a	n/a	n/a	n/a	n/a
980344	PROB	n/a	LTP270	ltpFR	15	n/a	n/a	n/a	n/a	n/a	n/a	22	7	9	6	n/a	n/a	n/a	n/a	n/a
983389	PROB	n/a	LTP270	ltpFR	15	n/a	n/a	n/a	n/a	n/a	n/a	15	4	6	5	n/a	n/a	n/a	n/a	n/a
984921	PROB	n/a	LTP270	ltpFR	15	n/a	n/a	n/a	n/a	n/a	n/a	14	2	7	4	n/a	n/a	n/a	n/a	n/a
992251	STOP	n/a	LTP270	ltpFR	15	n/a	n/a	n/a	n/a	n/a	n/a	n/a	n/a	n/a	n/a	n/a	n/a	n/a	n/a	n/a
993175	WORD	wordpools/wasnorm_wordpool_less_exclusions.txt	LTP270	ltpFR	15	4	1	BRAKE	166	n/a	0	n/a	0	0	0	0	0.5869140625	0.422607421875	lower	../fonts/amplitud.ttf
996187	START	n/a	LTP270	ltpFR	15	n/a	n/a	n/a	n/a	n/a	n/a	n/a	n/a	n/a	n/a	n/a	n/a	n/a	n/a	n/a
997102	PROB	n/a	LTP270	ltpFR	15	n/a	n/a	n/a	n/a	n/a	n/a	10	4	3	3	n/a	n/a	n/a	n/a	n/a
999083	PROB	n/a	LTP270	ltpFR	15	n/a	n/a	n/a	n/a	n/a	n/a	10	3	4	3	n/a	n/a	n/a	n/a	n/a
1001611	PROB	n/a	LTP270	ltpFR	15	n/a	n/a	n/a	n/a	n/a	n/a	18	7	6	5	n/a	n/a	n/a	n/a	n/a
1003892	PROB	n/a	LTP270	ltpFR	15	n/a	n/a	n/a	n/a	n/a	n/a	22	9	8	5	n/a	n/a	n/a	n/a	n/a
1007820	PROB	n/a	LTP270	ltpFR	15	n/a	n/a	n/a	n/a	n/a	n/a	16	7	6	4	n/a	n/a	n/a	n/a	n/a
1012186	STOP	n/a	LTP270	ltpFR	15	n/a	n/a	n/a	n/a	n/a	n/a	n/a	n/a	n/a	n/a	n/a	n/a	n/a	n/a	n/a
1014094	REC_START	n/a	LTP270	ltpFR	15	4	n/a	n/a	n/a	n/a	n/a	n/a	0	0	0	n/a	n/a	n/a	n/a	n/a
1018324	REC_WORD	wordpools/wasnorm_wordpool_less_exclusions.txt	LTP270	ltpFR	15	4	1	TYPEWRITER	1531	n/a	1	n/a	0	0	0	n/a	n/a	n/a	n/a	n/a
1019613	REC_WORD	wordpools/wasnorm_wordpool_less_exclusions.txt	LTP270	ltpFR	15	4	1	FRIAR	605	n/a	0	n/a	0	0	0	n/a	n/a	n/a	n/a	n/a
1022772	REC_WORD	wordpools/wasnorm_wordpool_less_exclusions.txt	LTP270	ltpFR	15	4	1	UNICORN	1538	n/a	0	n/a	0	0	0	n/a	n/a	n/a	n/a	n/a
1023814	REC_WORD	wordpools/wasnorm_wordpool_less_exclusions.txt	LTP270	ltpFR	15	4	1	DASHBOARD	441	n/a	0	n/a	0	0	0	n/a	n/a	n/a	n/a	n/a
1043194	REC_WORD	wordpools/wasnorm_wordpool_less_exclusions.txt	LTP270	ltpFR	15	4	1	SEAFOOD	1260	n/a	0	n/a	0	0	0	n/a	n/a	n/a	n/a	n/a
1054017	REC_WORD	wordpools/wasnorm_wordpool_less_exclusions.txt	LTP270	ltpFR	15	4	1	ROBIN	1199	n/a	1	n/a	0	0	0	n/a	n/a	n/a	n/a	n/a
1066913	REC_WORD	wordpools/wasnorm_wordpool_less_exclusions.txt	LTP270	ltpFR	15	4	1	FEATHER	557	n/a	0	n/a	0	0	0	n/a	n/a	n/a	n/a	n/a
1086295	REC_WORD	wordpools/wasnorm_wordpool_less_exclusions.txt	LTP270	ltpFR	15	4	0	REEF	1177	n/a	1	n/a	0	0	0	n/a	n/a	n/a	n/a	n/a
1090645	START	n/a	LTP270	ltpFR	15	n/a	n/a	n/a	n/a	n/a	n/a	n/a	n/a	n/a	n/a	n/a	n/a	n/a	n/a	n/a
1092160	PROB	n/a	LTP270	ltpFR	15	n/a	n/a	n/a	n/a	n/a	n/a	5	1	1	3	n/a	n/a	n/a	n/a	n/a
1093708	PROB	n/a	LTP270	ltpFR	15	n/a	n/a	n/a	n/a	n/a	n/a	14	2	3	9	n/a	n/a	n/a	n/a	n/a
1098644	STOP	n/a	LTP270	ltpFR	15	n/a	n/a	n/a	n/a	n/a	n/a	n/a	n/a	n/a	n/a	n/a	n/a	n/a	n/a	n/a
1099782	WORD	wordpools/wasnorm_wordpool_less_exclusions.txt	LTP270	ltpFR	15	5	0	CHESS	294	n/a	1	n/a	0	0	0	1	0.412841796875	0.57763671875	upper	../fonts/zerothre.ttf
1102795	START	n/a	LTP270	ltpFR	15	n/a	n/a	n/a	n/a	n/a	n/a	n/a	n/a	n/a	n/a	n/a	n/a	n/a	n/a	n/a
1103976	PROB	n/a	LTP270	ltpFR	15	n/a	n/a	n/a	n/a	n/a	n/a	12	6	2	4	n/a	n/a	n/a	n/a	n/a
1105441	PROB	n/a	LTP270	ltpFR	15	n/a	n/a	n/a	n/a	n/a	n/a	4	1	1	2	n/a	n/a	n/a	n/a	n/a
1108386	PROB	n/a	LTP270	ltpFR	15	n/a	n/a	n/a	n/a	n/a	n/a	13	4	3	6	n/a	n/a	n/a	n/a	n/a
1110062	STOP	n/a	LTP270	ltpFR	15	n/a	n/a	n/a	n/a	n/a	n/a	n/a	n/a	n/a	n/a	n/a	n/a	n/a	n/a	n/a
1111680	WORD	wordpools/wasnorm_wordpool_less_exclusions.txt	LTP270	ltpFR	15	5	0	KITTEN	780	n/a	1	n/a	0	0	0	1	0.412841796875	0.57763671875	upper	../fonts/zerothre.ttf
1114694	START	n/a	LTP270	ltpFR	15	n/a	n/a	n/a	n/a	n/a	n/a	n/a	n/a	n/a	n/a	n/a	n/a	n/a	n/a	n/a
1115608	PROB	n/a	LTP270	ltpFR	15	n/a	n/a	n/a	n/a	n/a	n/a	11	7	3	1	n/a	n/a	n/a	n/a	n/a
1117722	PROB	n/a	LTP270	ltpFR	15	n/a	n/a	n/a	n/a	n/a	n/a	13	6	5	2	n/a	n/a	n/a	n/a	n/a
1122694	STOP	n/a	LTP270	ltpFR	15	n/a	n/a	n/a	n/a	n/a	n/a	n/a	n/a	n/a	n/a	n/a	n/a	n/a	n/a	n/a
1123529	WORD	wordpools/wasnorm_wordpool_less_exclusions.txt	LTP270	ltpFR	15	5	0	RAISIN	1163	n/a	0	n/a	0	0	0	1	0.412841796875	0.57763671875	upper	../fonts/zerothre.ttf
1126542	START	n/a	LTP270	ltpFR	15	n/a	n/a	n/a	n/a	n/a	n/a	n/a	n/a	n/a	n/a	n/a	n/a	n/a	n/a	n/a
1127590	PROB	n/a	LTP270	ltpFR	15	n/a	n/a	n/a	n/a	n/a	n/a	18	6	9	3	n/a	n/a	n/a	n/a	n/a
1130585	PROB	n/a	LTP270	ltpFR	15	n/a	n/a	n/a	n/a	n/a	n/a	4	1	2	1	n/a	n/a	n/a	n/a	n/a
1131884	PROB	n/a	LTP270	ltpFR	15	n/a	n/a	n/a	n/a	n/a	n/a	7	3	1	3	n/a	n/a	n/a	n/a	n/a
1133605	STOP	n/a	LTP270	ltpFR	15	n/a	n/a	n/a	n/a	n/a	n/a	n/a	n/a	n/a	n/a	n/a	n/a	n/a	n/a	n/a
1135528	WORD	wordpools/wasnorm_wordpool_less_exclusions.txt	LTP270	ltpFR	15	5	0	GRAPE	654	n/a	0	n/a	0	0	0	1	0.412841796875	0.57763671875	upper	../fonts/zerothre.ttf
1138541	START	n/a	LTP270	ltpFR	15	n/a	n/a	n/a	n/a	n/a	n/a	n/a	n/a	n/a	n/a	n/a	n/a	n/a	n/a	n/a
1139406	PROB	n/a	LTP270	ltpFR	15	n/a	n/a	n/a	n/a	n/a	n/a	20	7	4	9	n/a	n/a	n/a	n/a	n/a
1145517	STOP	n/a	LTP270	ltpFR	15	n/a	n/a	n/a	n/a	n/a	n/a	n/a	n/a	n/a	n/a	n/a	n/a	n/a	n/a	n/a
1147511	WORD	wordpools/wasnorm_wordpool_less_exclusions.txt	LTP270	ltpFR	15	5	0	REFEREE	1178	n/a	1	n/a	0	0	0	1	0.412841796875	0.57763671875	upper	../fonts/zerothre.ttf
1150523	START	n/a	LTP270	ltpFR	15	n/a	n/a	n/a	n/a	n/a	n/a	n/a	n/a	n/a	n/a	n/a	n/a	n/a	n/a	n/a
1151472	PROB	n/a	LTP270	ltpFR	15	n/a	n/a	n/a	n/a	n/a	n/a	23	7	8	7	n/a	n/a	n/a	n/a	n/a
1158523	STOP	n/a	LTP270	ltpFR	15	n/a	n/a	n/a	n/a	n/a	n/a	n/a	n/a	n/a	n/a	n/a	n/a	n/a	n/a	n/a
1159493	WORD	wordpools/wasnorm_wordpool_less_exclusions.txt	LTP270	ltpFR	15	5	0	APE	31	n/a	1	n/a	0	0	0	1	0.412841796875	0.57763671875	upper	../fonts/zerothre.ttf
1162506	START	n/a	LTP270	ltpFR	15	n/a	n/a	n/a	n/a	n/a	n/a	n/a	n/a	n/a	n/a	n/a	n/a	n/a	n/a	n/a
1163471	PROB	n/a	LTP270	ltpFR	15	n/a	n/a	n/a	n/a	n/a	n/a	17	1	8	8	n/a	n/a	n/a	n/a	n/a
1165135	PROB	n/a	LTP270	ltpFR	15	n/a	n/a	n/a	n/a	n/a	n/a	15	1	8	6	n/a	n/a	n/a	n/a	n/a
1167431	PROB	n/a	LTP270	ltpFR	15	n/a	n/a	n/a	n/a	n/a	n/a	11	1	6	4	n/a	n/a	n/a	n/a	n/a
1170506	STOP	n/a	LTP270	ltpFR	15	n/a	n/a	n/a	n/a	n/a	n/a	n/a	n/a	n/a	n/a	n/a	n/a	n/a	n/a	n/a
1171342	WORD	wordpools/wasnorm_wordpool_less_exclusions.txt	LTP270	ltpFR	15	5	0	STAMP	1370	n/a	0	n/a	0	0	0	1	0.412841796875	0.57763671875	upper	../fonts/zerothre.ttf
1174355	START	n/a	LTP270	ltpFR	15	n/a	n/a	n/a	n/a	n/a	n/a	n/a	n/a	n/a	n/a	n/a	n/a	n/a	n/a	n/a
1175236	PROB	n/a	LTP270	ltpFR	15	n/a	n/a	n/a	n/a	n/a	n/a	18	3	8	7	n/a	n/a	n/a	n/a	n/a
1182355	STOP	n/a	LTP270	ltpFR	15	n/a	n/a	n/a	n/a	n/a	n/a	n/a	n/a	n/a	n/a	n/a	n/a	n/a	n/a	n/a
1183191	WORD	wordpools/wasnorm_wordpool_less_exclusions.txt	LTP270	ltpFR	15	5	0	SEAL	1262	n/a	1	n/a	0	0	0	1	0.412841796875	0.57763671875	upper	../fonts/zerothre.ttf
1186204	START	n/a	LTP270	ltpFR	15	n/a	n/a	n/a	n/a	n/a	n/a	n/a	n/a	n/a	n/a	n/a	n/a	n/a	n/a	n/a
1187418	PROB	n/a	LTP270	ltpFR	15	n/a	n/a	n/a	n/a	n/a	n/a	19	3	8	8	n/a	n/a	n/a	n/a	n/a
1189864	PROB	n/a	LTP270	ltpFR	15	n/a	n/a	n/a	n/a	n/a	n/a	15	6	5	4	n/a	n/a	n/a	n/a	n/a
1191578	PROB	n/a	LTP270	ltpFR	15	n/a	n/a	n/a	n/a	n/a	n/a	16	6	5	5	n/a	n/a	n/a	n/a	n/a
1193158	STOP	n/a	LTP270	ltpFR	15	n/a	n/a	n/a	n/a	n/a	n/a	n/a	n/a	n/a	n/a	n/a	n/a	n/a	n/a	n/a
1195090	WORD	wordpools/wasnorm_wordpool_less_exclusions.txt	LTP270	ltpFR	15	5	0	STOOL	1386	n/a	1	n/a	0	0	0	1	0.412841796875	0.57763671875	upper	../fonts/zerothre.ttf
1198103	START	n/a	LTP270	ltpFR	15	n/a	n/a	n/a	n/a	n/a	n/a	n/a	n/a	n/a	n/a	n/a	n/a	n/a	n/a	n/a
1199284	PROB	n/a	LTP270	ltpFR	15	n/a	n/a	n/a	n/a	n/a	n/a	12	5	2	5	n/a	n/a	n/a	n/a	n/a
1200647	PROB	n/a	LTP270	ltpFR	15	n/a	n/a	n/a	n/a	n/a	n/a	19	8	3	8	n/a	n/a	n/a	n/a	n/a
1202878	PROB	n/a	LTP270	ltpFR	15	n/a	n/a	n/a	n/a	n/a	n/a	14	9	2	3	n/a	n/a	n/a	n/a	n/a
1204758	STOP	n/a	LTP270	ltpFR	15	n/a	n/a	n/a	n/a	n/a	n/a	n/a	n/a	n/a	n/a	n/a	n/a	n/a	n/a	n/a
1207205	WORD	wordpools/wasnorm_wordpool_less_exclusions.txt	LTP270	ltpFR	15	5	0	PIT	1077	n/a	1	n/a	0	0	0	1	0.412841796875	0.57763671875	upper	../fonts/zerothre.ttf
1210218	START	n/a	LTP270	ltpFR	15	n/a	n/a	n/a	n/a	n/a	n/a	n/a	n/a	n/a	n/a	n/a	n/a	n/a	n/a	n/a
1211199	PROB	n/a	LTP270	ltpFR	15	n/a	n/a	n/a	n/a	n/a	n/a	14	6	5	3	n/a	n/a	n/a	n/a	n/a
1213746	PROB	n/a	LTP270	ltpFR	15	n/a	n/a	n/a	n/a	n/a	n/a	11	6	4	1	n/a	n/a	n/a	n/a	n/a
1215460	PROB	n/a	LTP270	ltpFR	15	n/a	n/a	n/a	n/a	n/a	n/a	18	9	8	1	n/a	n/a	n/a	n/a	n/a
1217653	STOP	n/a	LTP270	ltpFR	15	n/a	n/a	n/a	n/a	n/a	n/a	n/a	n/a	n/a	n/a	n/a	n/a	n/a	n/a	n/a
1219320	WORD	wordpools/wasnorm_wordpool_less_exclusions.txt	LTP270	ltpFR	15	5	0	SWATTER	1418	n/a	1	n/a	0	0	0	1	0.412841796875	0.57763671875	upper	../fonts/zerothre.ttf
1222333	START	n/a	LTP270	ltpFR	15	n/a	n/a	n/a	n/a	n/a	n/a	n/a	n/a	n/a	n/a	n/a	n/a	n/a	n/a	n/a
1223231	PROB	n/a	LTP270	ltpFR	15	n/a	n/a	n/a	n/a	n/a	n/a	13	6	1	6	n/a	n/a	n/a	n/a	n/a
1225178	PROB	n/a	LTP270	ltpFR	15	n/a	n/a	n/a	n/a	n/a	n/a	8	2	4	2	n/a	n/a	n/a	n/a	n/a
1228656	PROB	n/a	LTP270	ltpFR	15	n/a	n/a	n/a	n/a	n/a	n/a	14	6	2	6	n/a	n/a	n/a	n/a	n/a
1230166	STOP	n/a	LTP270	ltpFR	15	n/a	n/a	n/a	n/a	n/a	n/a	n/a	n/a	n/a	n/a	n/a	n/a	n/a	n/a	n/a
1231402	WORD	wordpools/wasnorm_wordpool_less_exclusions.txt	LTP270	ltpFR	15	5	0	ANT	25	n/a	0	n/a	0	0	0	1	0.412841796875	0.57763671875	upper	../fonts/zerothre.ttf
1234415	START	n/a	LTP270	ltpFR	15	n/a	n/a	n/a	n/a	n/a	n/a	n/a	n/a	n/a	n/a	n/a	n/a	n/a	n/a	n/a
1235363	PROB	n/a	LTP270	ltpFR	15	n/a	n/a	n/a	n/a	n/a	n/a	17	7	3	7	n/a	n/a	n/a	n/a	n/a
1237893	PROB	n/a	LTP270	ltpFR	15	n/a	n/a	n/a	n/a	n/a	n/a	14	1	4	9	n/a	n/a	n/a	n/a	n/a
1239639	PROB	n/a	LTP270	ltpFR	15	n/a	n/a	n/a	n/a	n/a	n/a	10	7	1	2	n/a	n/a	n/a	n/a	n/a
1241573	STOP	n/a	LTP270	ltpFR	15	n/a	n/a	n/a	n/a	n/a	n/a	n/a	n/a	n/a	n/a	n/a	n/a	n/a	n/a	n/a
1243533	WORD	wordpools/wasnorm_wordpool_less_exclusions.txt	LTP270	ltpFR	15	5	0	TABLE	1426	n/a	1	n/a	0	0	0	1	0.412841796875	0.57763671875	upper	../fonts/zerothre.ttf
1246546	START	n/a	LTP270	ltpFR	15	n/a	n/a	n/a	n/a	n/a	n/a	n/a	n/a	n/a	n/a	n/a	n/a	n/a	n/a	n/a
1247462	PROB	n/a	LTP270	ltpFR	15	n/a	n/a	n/a	n/a	n/a	n/a	11	2	7	2	n/a	n/a	n/a	n/a	n/a
1250474	PROB	n/a	LTP270	ltpFR	15	n/a	n/a	n/a	n/a	n/a	n/a	17	7	8	2	n/a	n/a	n/a	n/a	n/a
1254546	STOP	n/a	LTP270	ltpFR	15	n/a	n/a	n/a	n/a	n/a	n/a	n/a	n/a	n/a	n/a	n/a	n/a	n/a	n/a	n/a
1255649	WORD	wordpools/wasnorm_wordpool_less_exclusions.txt	LTP270	ltpFR	15	5	0	PUMPKIN	1142	n/a	1	n/a	0	0	0	1	0.412841796875	0.57763671875	upper	../fonts/zerothre.ttf
1258661	START	n/a	LTP270	ltpFR	15	n/a	n/a	n/a	n/a	n/a	n/a	n/a	n/a	n/a	n/a	n/a	n/a	n/a	n/a	n/a
1259526	PROB	n/a	LTP270	ltpFR	15	n/a	n/a	n/a	n/a	n/a	n/a	21	8	9	4	n/a	n/a	n/a	n/a	n/a
1263122	PROB	n/a	LTP270	ltpFR	15	n/a	n/a	n/a	n/a	n/a	n/a	21	7	8	6	n/a	n/a	n/a	n/a	n/a
1266142	STOP	n/a	LTP270	ltpFR	15	n/a	n/a	n/a	n/a	n/a	n/a	n/a	n/a	n/a	n/a	n/a	n/a	n/a	n/a	n/a
1267564	WORD	wordpools/wasnorm_wordpool_less_exclusions.txt	LTP270	ltpFR	15	5	0	MULE	931	n/a	1	n/a	0	0	0	1	0.412841796875	0.57763671875	upper	../fonts/zerothre.ttf
1270577	START	n/a	LTP270	ltpFR	15	n/a	n/a	n/a	n/a	n/a	n/a	n/a	n/a	n/a	n/a	n/a	n/a	n/a	n/a	n/a
1271591	PROB	n/a	LTP270	ltpFR	15	n/a	n/a	n/a	n/a	n/a	n/a	20	6	7	7	n/a	n/a	n/a	n/a	n/a
1274888	PROB	n/a	LTP270	ltpFR	15	n/a	n/a	n/a	n/a	n/a	n/a	14	9	2	4	n/a	n/a	n/a	n/a	n/a
1278577	STOP	n/a	LTP270	ltpFR	15	n/a	n/a	n/a	n/a	n/a	n/a	n/a	n/a	n/a	n/a	n/a	n/a	n/a	n/a	n/a
1279563	WORD	wordpools/wasnorm_wordpool_less_exclusions.txt	LTP270	ltpFR	15	5	0	SURF	1412	n/a	1	n/a	0	0	0	1	0.412841796875	0.57763671875	upper	../fonts/zerothre.ttf
1282575	START	n/a	LTP270	ltpFR	15	n/a	n/a	n/a	n/a	n/a	n/a	n/a	n/a	n/a	n/a	n/a	n/a	n/a	n/a	n/a
1283590	PROB	n/a	LTP270	ltpFR	15	n/a	n/a	n/a	n/a	n/a	n/a	11	3	4	4	n/a	n/a	n/a	n/a	n/a
1285888	PROB	n/a	LTP270	ltpFR	15	n/a	n/a	n/a	n/a	n/a	n/a	15	7	5	3	n/a	n/a	n/a	n/a	n/a
1290575	STOP	n/a	LTP270	ltpFR	15	n/a	n/a	n/a	n/a	n/a	n/a	n/a	n/a	n/a	n/a	n/a	n/a	n/a	n/a	n/a
1292495	REC_START	n/a	LTP270	ltpFR	15	5	n/a	n/a	n/a	n/a	n/a	n/a	0	0	0	n/a	n/a	n/a	n/a	n/a
1295783	REC_WORD	wordpools/wasnorm_wordpool_less_exclusions.txt	LTP270	ltpFR	15	5	0	KITTEN	780	n/a	1	n/a	0	0	0	n/a	n/a	n/a	n/a	n/a
1296994	REC_WORD	wordpools/wasnorm_wordpool_less_exclusions.txt	LTP270	ltpFR	15	5	0	GRAPE	654	n/a	0	n/a	0	0	0	n/a	n/a	n/a	n/a	n/a
1298001	REC_WORD	wordpools/wasnorm_wordpool_less_exclusions.txt	LTP270	ltpFR	15	5	0	RAISIN	1163	n/a	0	n/a	0	0	0	n/a	n/a	n/a	n/a	n/a
1307143	REC_WORD	wordpools/wasnorm_wordpool_less_exclusions.txt	LTP270	ltpFR	15	5	0	APE	31	n/a	1	n/a	0	0	0	n/a	n/a	n/a	n/a	n/a
1354245	REC_WORD	wordpools/wasnorm_wordpool_less_exclusions.txt	LTP270	ltpFR	15	5	0	ANT	25	n/a	0	n/a	0	0	0	n/a	n/a	n/a	n/a	n/a
1402780	WORD	wordpools/wasnorm_wordpool_less_exclusions.txt	LTP270	ltpFR	15	6	0	COMPUTER	359	n/a	1	n/a	0	0	0	1	0.412841796875	0.57763671875	upper	../fonts/zerothre.ttf
1406791	WORD	wordpools/wasnorm_wordpool_less_exclusions.txt	LTP270	ltpFR	15	6	0	UNIFORM	1539	n/a	1	n/a	0	0	0	1	0.412841796875	0.57763671875	upper	../fonts/zerothre.ttf
1410951	WORD	wordpools/wasnorm_wordpool_less_exclusions.txt	LTP270	ltpFR	15	6	0	PENNY	1045	n/a	0	n/a	0	0	0	1	0.412841796875	0.57763671875	upper	../fonts/zerothre.ttf
1414829	WORD	wordpools/wasnorm_wordpool_less_exclusions.txt	LTP270	ltpFR	15	6	1	LEAF	808	n/a	0	n/a	0	0	0	0	0.5869140625	0.422607421875	lower	../fonts/amplitud.ttf
1418839	WORD	wordpools/wasnorm_wordpool_less_exclusions.txt	LTP270	ltpFR	15	6	1	PALM	1007	n/a	0	n/a	0	0	0	0	0.5869140625	0.422607421875	lower	../fonts/amplitud.ttf
1422783	WORD	wordpools/wasnorm_wordpool_less_exclusions.txt	LTP270	ltpFR	15	6	1	ANTEATER	26	n/a	1	n/a	0	0	0	0	0.5869140625	0.422607421875	lower	../fonts/amplitud.ttf
1426894	WORD	wordpools/wasnorm_wordpool_less_exclusions.txt	LTP270	ltpFR	15	6	1	DONKEY	484	n/a	1	n/a	0	0	0	0	0.5869140625	0.422607421875	lower	../fonts/amplitud.ttf
1430971	WORD	wordpools/wasnorm_wordpool_less_exclusions.txt	LTP270	ltpFR	15	6	1	RAILROAD	1162	n/a	0	n/a	0	0	0	0	0.5869140625	0.422607421875	lower	../fonts/amplitud.ttf
1435098	WORD	wordpools/wasnorm_wordpool_less_exclusions.txt	LTP270	ltpFR	15	6	1	PIGMENT	1066	n/a	0	n/a	0	0	0	0	0.5869140625	0.422607421875	lower	../fonts/amplitud.ttf
1439242	WORD	wordpools/wasnorm_wordpool_less_exclusions.txt	LTP270	ltpFR	15	6	0	WAGON	1578	n/a	1	n/a	0	0	0	1	0.412841796875	0.57763671875	upper	../fonts/zerothre.ttf
1443236	WORD	wordpools/wasnorm_wordpool_less_exclusions.txt	LTP270	ltpFR	15	6	0	TIGER	1467	n/a	1	n/a	0	0	0	1	0.412841796875	0.57763671875	upper	../fonts/zerothre.ttf
1447114	WORD	wordpools/wasnorm_wordpool_less_exclusions.txt	LTP270	ltpFR	15	6	1	SPARROW	1347	n/a	1	n/a	0	0	0	0	0.5869140625	0.422607421875	lower	../fonts/amplitud.ttf
1450941	WORD	wordpools/wasnorm_wordpool_less_exclusions.txt	LTP270	ltpFR	15	6	1	PELICAN	1039	n/a	1	n/a	0	0	0	0	0.5869140625	0.422607421875	lower	../fonts/amplitud.ttf
1454902	WORD	wordpools/wasnorm_wordpool_less_exclusions.txt	LTP270	ltpFR	15	6	0	SIREN	1310	n/a	1	n/a	0	0	0	1	0.412841796875	0.57763671875	upper	../fonts/zerothre.ttf
1458879	WORD	wordpools/wasnorm_wordpool_less_exclusions.txt	LTP270	ltpFR	15	6	0	WALLET	1583	n/a	0	n/a	0	0	0	1	0.412841796875	0.57763671875	upper	../fonts/zerothre.ttf
1463040	WORD	wordpools/wasnorm_wordpool_less_exclusions.txt	LTP270	ltpFR	15	6	0	VICTOR	1563	n/a	1	n/a	0	0	0	1	0.412841796875	0.57763671875	upper	../fonts/zerothre.ttf
1466052	START	n/a	LTP270	ltpFR	15	n/a	n/a	n/a	n/a	n/a	n/a	n/a	n/a	n/a	n/a	n/a	n/a	n/a	n/a	n/a
1467100	PROB	n/a	LTP270	ltpFR	15	n/a	n/a	n/a	n/a	n/a	n/a	13	3	1	9	n/a	n/a	n/a	n/a	n/a
1469147	PROB	n/a	LTP270	ltpFR	15	n/a	n/a	n/a	n/a	n/a	n/a	13	5	6	2	n/a	n/a	n/a	n/a	n/a
1473086	STOP	n/a	LTP270	ltpFR	15	n/a	n/a	n/a	n/a	n/a	n/a	n/a	n/a	n/a	n/a	n/a	n/a	n/a	n/a	n/a
1475938	REC_START	n/a	LTP270	ltpFR	15	6	n/a	n/a	n/a	n/a	n/a	n/a	0	0	0	n/a	n/a	n/a	n/a	n/a
1481614	REC_WORD	wordpools/wasnorm_wordpool_less_exclusions.txt	LTP270	ltpFR	15	6	1	SPARROW	1347	n/a	1	n/a	0	0	0	n/a	n/a	n/a	n/a	n/a
1483461	REC_WORD	wordpools/wasnorm_wordpool_less_exclusions.txt	LTP270	ltpFR	15	6	1	PELICAN	1039	n/a	1	n/a	0	0	0	n/a	n/a	n/a	n/a	n/a
1525292	REC_WORD	wordpools/wasnorm_wordpool_less_exclusions.txt	LTP270	ltpFR	15	6	0	VICTOR	1563	n/a	1	n/a	0	0	0	n/a	n/a	n/a	n/a	n/a
1551557	REST_REWET	n/a	LTP270	ltpFR	15	6	n/a	n/a	n/a	n/a	n/a	n/a	0	0	0	n/a	n/a	n/a	n/a	n/a
2095146	WORD	wordpools/wasnorm_wordpool_less_exclusions.txt	LTP270	ltpFR	15	7	1	RAFT	1159	n/a	0	n/a	0	0	0	0	0.5869140625	0.422607421875	lower	../fonts/amplitud.ttf
2099123	WORD	wordpools/wasnorm_wordpool_less_exclusions.txt	LTP270	ltpFR	15	7	1	HOUSE	725	n/a	0	n/a	0	0	0	0	0.5869140625	0.422607421875	lower	../fonts/amplitud.ttf
2103117	WORD	wordpools/wasnorm_wordpool_less_exclusions.txt	LTP270	ltpFR	15	7	1	TERMITE	1451	n/a	1	n/a	0	0	0	0	0.5869140625	0.422607421875	lower	../fonts/amplitud.ttf
2107211	WORD	wordpools/wasnorm_wordpool_less_exclusions.txt	LTP270	ltpFR	15	7	1	MERMAID	887	n/a	0	n/a	0	0	0	0	0.5869140625	0.422607421875	lower	../fonts/amplitud.ttf
2111089	WORD	wordpools/wasnorm_wordpool_less_exclusions.txt	LTP270	ltpFR	15	7	1	CYLINDER	432	n/a	0	n/a	0	0	0	0	0.5869140625	0.422607421875	lower	../fonts/amplitud.ttf
2115199	WORD	wordpools/wasnorm_wordpool_less_exclusions.txt	LTP270	ltpFR	15	7	1	CREW	406	n/a	1	n/a	0	0	0	0	0.5869140625	0.422607421875	lower	../fonts/amplitud.ttf
2119343	WORD	wordpools/wasnorm_wordpool_less_exclusions.txt	LTP270	ltpFR	15	7	1	TEMPLE	1448	n/a	0	n/a	0	0	0	0	0.5869140625	0.422607421875	lower	../fonts/amplitud.ttf
2123553	WORD	wordpools/wasnorm_wordpool_less_exclusions.txt	LTP270	ltpFR	15	7	1	DOUGHNUT	490	n/a	0	n/a	0	0	0	0	0.5869140625	0.422607421875	lower	../fonts/amplitud.ttf
2127414	WORD	wordpools/wasnorm_wordpool_less_exclusions.txt	LTP270	ltpFR	15	7	1	DOLLAR	482	n/a	0	n/a	0	0	0	0	0.5869140625	0.422607421875	lower	../fonts/amplitud.ttf
2131442	WORD	wordpools/wasnorm_wordpool_less_exclusions.txt	LTP270	ltpFR	15	7	1	WINNER	1615	n/a	1	n/a	0	0	0	0	0.5869140625	0.422607421875	lower	../fonts/amplitud.ttf
2135303	WORD	wordpools/wasnorm_wordpool_less_exclusions.txt	LTP270	ltpFR	15	7	1	SHRINE	1298	n/a	0	n/a	0	0	0	0	0.5869140625	0.422607421875	lower	../fonts/amplitud.ttf
2139213	WORD	wordpools/wasnorm_wordpool_less_exclusions.txt	LTP270	ltpFR	15	7	1	BONE	148	n/a	0	n/a	0	0	0	0	0.5869140625	0.422607421875	lower	../fonts/amplitud.ttf
2143440	WORD	wordpools/wasnorm_wordpool_less_exclusions.txt	LTP270	ltpFR	15	7	1	CONE	363	n/a	0	n/a	0	0	0	0	0.5869140625	0.422607421875	lower	../fonts/amplitud.ttf
2147667	WORD	wordpools/wasnorm_wordpool_less_exclusions.txt	LTP270	ltpFR	15	7	1	TAPIOCA	1434	n/a	0	n/a	0	0	0	0	0.5869140625	0.422607421875	lower	../fonts/amplitud.ttf
2151594	WORD	wordpools/wasnorm_wordpool_less_exclusions.txt	LTP270	ltpFR	15	7	1	CARDINAL	244	n/a	1	n/a	0	0	0	0	0.5869140625	0.422607421875	lower	../fonts/amplitud.ttf
2155621	WORD	wordpools/wasnorm_wordpool_less_exclusions.txt	LTP270	ltpFR	15	7	1	PARROT	1015	n/a	1	n/a	0	0	0	0	0.5869140625	0.422607421875	lower	../fonts/amplitud.ttf
2161596	REC_START	n/a	LTP270	ltpFR	15	7	n/a	n/a	n/a	n/a	n/a	n/a	0	0	0	n/a	n/a	n/a	n/a	n/a
2164120	REC_WORD	wordpools/wasnorm_wordpool_less_exclusions.txt	LTP270	ltpFR	15	7	1	TAPIOCA	1434	n/a	0	n/a	0	0	0	n/a	n/a	n/a	n/a	n/a
2166557	REC_WORD	wordpools/wasnorm_wordpool_less_exclusions.txt	LTP270	ltpFR	15	7	1	PARROT	1015	n/a	1	n/a	0	0	0	n/a	n/a	n/a	n/a	n/a
2168689	REC_WORD	wordpools/wasnorm_wordpool_less_exclusions.txt	LTP270	ltpFR	15	7	1	CARDINAL	244	n/a	1	n/a	0	0	0	n/a	n/a	n/a	n/a	n/a
2172485	REC_WORD	wordpools/wasnorm_wordpool_less_exclusions.txt	LTP270	ltpFR	15	7	1	RAFT	1159	n/a	0	n/a	0	0	0	n/a	n/a	n/a	n/a	n/a
2173279	REC_WORD	wordpools/wasnorm_wordpool_less_exclusions.txt	LTP270	ltpFR	15	7	1	HOUSE	725	n/a	0	n/a	0	0	0	n/a	n/a	n/a	n/a	n/a
2174299	REC_WORD	wordpools/wasnorm_wordpool_less_exclusions.txt	LTP270	ltpFR	15	7	1	TERMITE	1451	n/a	1	n/a	0	0	0	n/a	n/a	n/a	n/a	n/a
2177463	REC_WORD	wordpools/wasnorm_wordpool_less_exclusions.txt	LTP270	ltpFR	15	7	1	PRIEST	1122	n/a	1	n/a	0	0	0	n/a	n/a	n/a	n/a	n/a
2192956	REC_WORD	wordpools/wasnorm_wordpool_less_exclusions.txt	LTP270	ltpFR	15	7	1	MERMAID	887	n/a	0	n/a	0	0	0	n/a	n/a	n/a	n/a	n/a
2195711	REC_WORD	wordpools/wasnorm_wordpool_less_exclusions.txt	LTP270	ltpFR	15	7	1	CREW	406	n/a	1	n/a	0	0	0	n/a	n/a	n/a	n/a	n/a
2202615	REC_WORD	wordpools/wasnorm_wordpool_less_exclusions.txt	LTP270	ltpFR	15	7	1	SHRINE	1298	n/a	0	n/a	0	0	0	n/a	n/a	n/a	n/a	n/a
2237950	START	n/a	LTP270	ltpFR	15	n/a	n/a	n/a	n/a	n/a	n/a	n/a	n/a	n/a	n/a	n/a	n/a	n/a	n/a	n/a
2239464	PROB	n/a	LTP270	ltpFR	15	n/a	n/a	n/a	n/a	n/a	n/a	11	1	2	8	n/a	n/a	n/a	n/a	n/a
2242909	PROB	n/a	LTP270	ltpFR	15	n/a	n/a	n/a	n/a	n/a	n/a	23	8	9	6	n/a	n/a	n/a	n/a	n/a
2245172	PROB	n/a	LTP270	ltpFR	15	n/a	n/a	n/a	n/a	n/a	n/a	19	6	7	6	n/a	n/a	n/a	n/a	n/a
2248883	PROB	n/a	LTP270	ltpFR	15	n/a	n/a	n/a	n/a	n/a	n/a	18	9	6	3	n/a	n/a	n/a	n/a	n/a
2253942	STOP	n/a	LTP270	ltpFR	15	n/a	n/a	n/a	n/a	n/a	n/a	n/a	n/a	n/a	n/a	n/a	n/a	n/a	n/a	n/a
2254974	WORD	wordpools/wasnorm_wordpool_less_exclusions.txt	LTP270	ltpFR	15	8	1	TRIBE	1505	n/a	0	n/a	0	0	0	0	0.5869140625	0.422607421875	lower	../fonts/amplitud.ttf
2257987	START	n/a	LTP270	ltpFR	15	n/a	n/a	n/a	n/a	n/a	n/a	n/a	n/a	n/a	n/a	n/a	n/a	n/a	n/a	n/a
2258901	PROB	n/a	LTP270	ltpFR	15	n/a	n/a	n/a	n/a	n/a	n/a	15	7	4	4	n/a	n/a	n/a	n/a	n/a
2260664	PROB	n/a	LTP270	ltpFR	15	n/a	n/a	n/a	n/a	n/a	n/a	22	9	8	5	n/a	n/a	n/a	n/a	n/a
2262812	PROB	n/a	LTP270	ltpFR	15	n/a	n/a	n/a	n/a	n/a	n/a	9	6	1	2	n/a	n/a	n/a	n/a	n/a
2264743	PROB	n/a	LTP270	ltpFR	15	n/a	n/a	n/a	n/a	n/a	n/a	13	8	4	1	n/a	n/a	n/a	n/a	n/a
2267206	PROB	n/a	LTP270	ltpFR	15	n/a	n/a	n/a	n/a	n/a	n/a	12	5	4	3	n/a	n/a	n/a	n/a	n/a
2269020	PROB	n/a	LTP270	ltpFR	15	n/a	n/a	n/a	n/a	n/a	n/a	19	9	2	8	n/a	n/a	n/a	n/a	n/a
2273987	STOP	n/a	LTP270	ltpFR	15	n/a	n/a	n/a	n/a	n/a	n/a	n/a	n/a	n/a	n/a	n/a	n/a	n/a	n/a	n/a
2274911	WORD	wordpools/wasnorm_wordpool_less_exclusions.txt	LTP270	ltpFR	15	8	1	TANGERINE	1431	n/a	0	n/a	0	0	0	0	0.5869140625	0.422607421875	lower	../fonts/amplitud.ttf
2277923	START	n/a	LTP270	ltpFR	15	n/a	n/a	n/a	n/a	n/a	n/a	n/a	n/a	n/a	n/a	n/a	n/a	n/a	n/a	n/a
2278805	PROB	n/a	LTP270	ltpFR	15	n/a	n/a	n/a	n/a	n/a	n/a	14	8	5	1	n/a	n/a	n/a	n/a	n/a
2281085	PROB	n/a	LTP270	ltpFR	15	n/a	n/a	n/a	n/a	n/a	n/a	14	5	3	6	n/a	n/a	n/a	n/a	n/a
2283149	PROB	n/a	LTP270	ltpFR	15	n/a	n/a	n/a	n/a	n/a	n/a	20	7	5	8	n/a	n/a	n/a	n/a	n/a
2285745	PROB	n/a	LTP270	ltpFR	15	n/a	n/a	n/a	n/a	n/a	n/a	11	5	3	3	n/a	n/a	n/a	n/a	n/a
2287858	PROB	n/a	LTP270	ltpFR	15	n/a	n/a	n/a	n/a	n/a	n/a	7	1	4	1	n/a	n/a	n/a	n/a	n/a
2290138	PROB	n/a	LTP270	ltpFR	15	n/a	n/a	n/a	n/a	n/a	n/a	10	3	1	6	n/a	n/a	n/a	n/a	n/a
2293302	STOP	n/a	LTP270	ltpFR	15	n/a	n/a	n/a	n/a	n/a	n/a	n/a	n/a	n/a	n/a	n/a	n/a	n/a	n/a	n/a
2295131	WORD	wordpools/wasnorm_wordpool_less_exclusions.txt	LTP270	ltpFR	15	8	1	CATCHER	258	n/a	1	n/a	0	0	0	0	0.5869140625	0.422607421875	lower	../fonts/amplitud.ttf
2298143	START	n/a	LTP270	ltpFR	15	n/a	n/a	n/a	n/a	n/a	n/a	n/a	n/a	n/a	n/a	n/a	n/a	n/a	n/a	n/a
2299108	PROB	n/a	LTP270	ltpFR	15	n/a	n/a	n/a	n/a	n/a	n/a	14	5	2	7	n/a	n/a	n/a	n/a	n/a
2301537	PROB	n/a	LTP270	ltpFR	15	n/a	n/a	n/a	n/a	n/a	n/a	12	3	7	2	n/a	n/a	n/a	n/a	n/a
2305116	PROB	n/a	LTP270	ltpFR	15	n/a	n/a	n/a	n/a	n/a	n/a	15	2	5	8	n/a	n/a	n/a	n/a	n/a
2308361	PROB	n/a	LTP270	ltpFR	15	n/a	n/a	n/a	n/a	n/a	n/a	17	7	1	9	n/a	n/a	n/a	n/a	n/a
2310458	PROB	n/a	LTP270	ltpFR	15	n/a	n/a	n/a	n/a	n/a	n/a	9	3	3	3	n/a	n/a	n/a	n/a	n/a
2314143	STOP	n/a	LTP270	ltpFR	15	n/a	n/a	n/a	n/a	n/a	n/a	n/a	n/a	n/a	n/a	n/a	n/a	n/a	n/a	n/a
2315201	WORD	wordpools/wasnorm_wordpool_less_exclusions.txt	LTP270	ltpFR	15	8	1	NITROGEN	954	n/a	0	n/a	0	0	0	0	0.5869140625	0.422607421875	lower	../fonts/amplitud.ttf
2318213	START	n/a	LTP270	ltpFR	15	n/a	n/a	n/a	n/a	n/a	n/a	n/a	n/a	n/a	n/a	n/a	n/a	n/a	n/a	n/a
2319328	PROB	n/a	LTP270	ltpFR	15	n/a	n/a	n/a	n/a	n/a	n/a	13	4	1	7	n/a	n/a	n/a	n/a	n/a
2325152	PROB	n/a	LTP270	ltpFR	15	n/a	n/a	n/a	n/a	n/a	n/a	17	6	3	8	n/a	n/a	n/a	n/a	n/a
2327648	PROB	n/a	LTP270	ltpFR	15	n/a	n/a	n/a	n/a	n/a	n/a	10	1	5	4	n/a	n/a	n/a	n/a	n/a
2330128	PROB	n/a	LTP270	ltpFR	15	n/a	n/a	n/a	n/a	n/a	n/a	17	8	3	6	n/a	n/a	n/a	n/a	n/a
2333366	STOP	n/a	LTP270	ltpFR	15	n/a	n/a	n/a	n/a	n/a	n/a	n/a	n/a	n/a	n/a	n/a	n/a	n/a	n/a	n/a
2335054	WORD	wordpools/wasnorm_wordpool_less_exclusions.txt	LTP270	ltpFR	15	8	0	FOX	598	n/a	1	n/a	0	0	0	1	0.412841796875	0.57763671875	upper	../fonts/zerothre.ttf
2338067	START	n/a	LTP270	ltpFR	15	n/a	n/a	n/a	n/a	n/a	n/a	n/a	n/a	n/a	n/a	n/a	n/a	n/a	n/a	n/a
2339032	PROB	n/a	LTP270	ltpFR	15	n/a	n/a	n/a	n/a	n/a	n/a	14	3	5	6	n/a	n/a	n/a	n/a	n/a
2341811	PROB	n/a	LTP270	ltpFR	15	n/a	n/a	n/a	n/a	n/a	n/a	12	2	8	2	n/a	n/a	n/a	n/a	n/a
2343825	PROB	n/a	LTP270	ltpFR	15	n/a	n/a	n/a	n/a	n/a	n/a	15	3	6	6	n/a	n/a	n/a	n/a	n/a
2345955	PROB	n/a	LTP270	ltpFR	15	n/a	n/a	n/a	n/a	n/a	n/a	17	7	7	3	n/a	n/a	n/a	n/a	n/a
2347869	PROB	n/a	LTP270	ltpFR	15	n/a	n/a	n/a	n/a	n/a	n/a	15	4	5	6	n/a	n/a	n/a	n/a	n/a
2350914	PROB	n/a	LTP270	ltpFR	15	n/a	n/a	n/a	n/a	n/a	n/a	9	1	5	3	n/a	n/a	n/a	n/a	n/a
2353830	STOP	n/a	LTP270	ltpFR	15	n/a	n/a	n/a	n/a	n/a	n/a	n/a	n/a	n/a	n/a	n/a	n/a	n/a	n/a	n/a
2355008	WORD	wordpools/wasnorm_wordpool_less_exclusions.txt	LTP270	ltpFR	15	8	0	LIVER	833	n/a	0	n/a	0	0	0	1	0.412841796875	0.57763671875	upper	../fonts/zerothre.ttf
2358021	START	n/a	LTP270	ltpFR	15	n/a	n/a	n/a	n/a	n/a	n/a	n/a	n/a	n/a	n/a	n/a	n/a	n/a	n/a	n/a
2359019	PROB	n/a	LTP270	ltpFR	15	n/a	n/a	n/a	n/a	n/a	n/a	10	7	1	2	n/a	n/a	n/a	n/a	n/a
2360999	PROB	n/a	LTP270	ltpFR	15	n/a	n/a	n/a	n/a	n/a	n/a	11	3	1	7	n/a	n/a	n/a	n/a	n/a
2363695	PROB	n/a	LTP270	ltpFR	15	n/a	n/a	n/a	n/a	n/a	n/a	18	5	5	8	n/a	n/a	n/a	n/a	n/a
2365126	PROB	n/a	LTP270	ltpFR	15	n/a	n/a	n/a	n/a	n/a	n/a	13	8	4	1	n/a	n/a	n/a	n/a	n/a
2367689	PROB	n/a	LTP270	ltpFR	15	n/a	n/a	n/a	n/a	n/a	n/a	16	2	7	7	n/a	n/a	n/a	n/a	n/a
2370385	PROB	n/a	LTP270	ltpFR	15	n/a	n/a	n/a	n/a	n/a	n/a	17	6	6	5	n/a	n/a	n/a	n/a	n/a
2373589	STOP	n/a	LTP270	ltpFR	15	n/a	n/a	n/a	n/a	n/a	n/a	n/a	n/a	n/a	n/a	n/a	n/a	n/a	n/a	n/a
2375111	WORD	wordpools/wasnorm_wordpool_less_exclusions.txt	LTP270	ltpFR	15	8	1	WINGS	1614	n/a	0	n/a	0	0	0	0	0.5869140625	0.422607421875	lower	../fonts/amplitud.ttf
2378124	START	n/a	LTP270	ltpFR	15	n/a	n/a	n/a	n/a	n/a	n/a	n/a	n/a	n/a	n/a	n/a	n/a	n/a	n/a	n/a
2378939	PROB	n/a	LTP270	ltpFR	15	n/a	n/a	n/a	n/a	n/a	n/a	17	5	3	9	n/a	n/a	n/a	n/a	n/a
2381152	PROB	n/a	LTP270	ltpFR	15	n/a	n/a	n/a	n/a	n/a	n/a	13	4	5	4	n/a	n/a	n/a	n/a	n/a
2383432	PROB	n/a	LTP270	ltpFR	15	n/a	n/a	n/a	n/a	n/a	n/a	8	2	1	5	n/a	n/a	n/a	n/a	n/a
2385163	PROB	n/a	LTP270	ltpFR	15	n/a	n/a	n/a	n/a	n/a	n/a	10	2	6	2	n/a	n/a	n/a	n/a	n/a
2387060	PROB	n/a	LTP270	ltpFR	15	n/a	n/a	n/a	n/a	n/a	n/a	14	1	8	5	n/a	n/a	n/a	n/a	n/a
2390355	PROB	n/a	LTP270	ltpFR	15	n/a	n/a	n/a	n/a	n/a	n/a	18	5	6	7	n/a	n/a	n/a	n/a	n/a
2392950	STOP	n/a	LTP270	ltpFR	15	n/a	n/a	n/a	n/a	n/a	n/a	n/a	n/a	n/a	n/a	n/a	n/a	n/a	n/a	n/a
2395264	WORD	wordpools/wasnorm_wordpool_less_exclusions.txt	LTP270	ltpFR	15	8	1	FLY	586	n/a	1	n/a	0	0	0	0	0.5869140625	0.422607421875	lower	../fonts/amplitud.ttf
2398277	START	n/a	LTP270	ltpFR	15	n/a	n/a	n/a	n/a	n/a	n/a	n/a	n/a	n/a	n/a	n/a	n/a	n/a	n/a	n/a
2399259	PROB	n/a	LTP270	ltpFR	15	n/a	n/a	n/a	n/a	n/a	n/a	21	6	9	7	n/a	n/a	n/a	n/a	n/a
2404600	PROB	n/a	LTP270	ltpFR	15	n/a	n/a	n/a	n/a	n/a	n/a	22	7	8	8	n/a	n/a	n/a	n/a	n/a
2408577	PROB	n/a	LTP270	ltpFR	15	n/a	n/a	n/a	n/a	n/a	n/a	12	1	5	6	n/a	n/a	n/a	n/a	n/a
2410225	PROB	n/a	LTP270	ltpFR	15	n/a	n/a	n/a	n/a	n/a	n/a	15	5	9	1	n/a	n/a	n/a	n/a	n/a
2412123	PROB	n/a	LTP270	ltpFR	15	n/a	n/a	n/a	n/a	n/a	n/a	19	7	5	7	n/a	n/a	n/a	n/a	n/a
2414110	STOP	n/a	LTP270	ltpFR	15	n/a	n/a	n/a	n/a	n/a	n/a	n/a	n/a	n/a	n/a	n/a	n/a	n/a	n/a	n/a
2415268	WORD	wordpools/wasnorm_wordpool_less_exclusions.txt	LTP270	ltpFR	15	8	0	RASPBERRY	1168	n/a	0	n/a	0	0	0	1	0.412841796875	0.57763671875	upper	../fonts/zerothre.ttf
2418281	START	n/a	LTP270	ltpFR	15	n/a	n/a	n/a	n/a	n/a	n/a	n/a	n/a	n/a	n/a	n/a	n/a	n/a	n/a	n/a
2419462	PROB	n/a	LTP270	ltpFR	15	n/a	n/a	n/a	n/a	n/a	n/a	17	1	8	8	n/a	n/a	n/a	n/a	n/a
2420926	PROB	n/a	LTP270	ltpFR	15	n/a	n/a	n/a	n/a	n/a	n/a	19	8	3	8	n/a	n/a	n/a	n/a	n/a
2424255	PROB	n/a	LTP270	ltpFR	15	n/a	n/a	n/a	n/a	n/a	n/a	8	1	4	3	n/a	n/a	n/a	n/a	n/a
2425668	PROB	n/a	LTP270	ltpFR	15	n/a	n/a	n/a	n/a	n/a	n/a	16	4	6	6	n/a	n/a	n/a	n/a	n/a
2430861	PROB	n/a	LTP270	ltpFR	15	n/a	n/a	n/a	n/a	n/a	n/a	16	1	9	6	n/a	n/a	n/a	n/a	n/a
2434280	STOP	n/a	LTP270	ltpFR	15	n/a	n/a	n/a	n/a	n/a	n/a	n/a	n/a	n/a	n/a	n/a	n/a	n/a	n/a	n/a
2435255	WORD	wordpools/wasnorm_wordpool_less_exclusions.txt	LTP270	ltpFR	15	8	0	INTESTINE	742	n/a	1	n/a	0	0	0	1	0.412841796875	0.57763671875	upper	../fonts/zerothre.ttf
2438267	START	n/a	LTP270	ltpFR	15	n/a	n/a	n/a	n/a	n/a	n/a	n/a	n/a	n/a	n/a	n/a	n/a	n/a	n/a	n/a
2439399	PROB	n/a	LTP270	ltpFR	15	n/a	n/a	n/a	n/a	n/a	n/a	8	4	2	2	n/a	n/a	n/a	n/a	n/a
2441462	PROB	n/a	LTP270	ltpFR	15	n/a	n/a	n/a	n/a	n/a	n/a	17	5	9	3	n/a	n/a	n/a	n/a	n/a
2444557	PROB	n/a	LTP270	ltpFR	15	n/a	n/a	n/a	n/a	n/a	n/a	9	7	1	1	n/a	n/a	n/a	n/a	n/a
2446355	PROB	n/a	LTP270	ltpFR	15	n/a	n/a	n/a	n/a	n/a	n/a	23	8	7	8	n/a	n/a	n/a	n/a	n/a
2454267	STOP	n/a	LTP270	ltpFR	15	n/a	n/a	n/a	n/a	n/a	n/a	n/a	n/a	n/a	n/a	n/a	n/a	n/a	n/a	n/a
2455458	WORD	wordpools/wasnorm_wordpool_less_exclusions.txt	LTP270	ltpFR	15	8	0	KNUCKLE	789	n/a	0	n/a	0	0	0	1	0.412841796875	0.57763671875	upper	../fonts/zerothre.ttf
2458471	START	n/a	LTP270	ltpFR	15	n/a	n/a	n/a	n/a	n/a	n/a	n/a	n/a	n/a	n/a	n/a	n/a	n/a	n/a	n/a
2459518	PROB	n/a	LTP270	ltpFR	15	n/a	n/a	n/a	n/a	n/a	n/a	19	4	8	7	n/a	n/a	n/a	n/a	n/a
2461266	PROB	n/a	LTP270	ltpFR	15	n/a	n/a	n/a	n/a	n/a	n/a	9	2	4	3	n/a	n/a	n/a	n/a	n/a
2463661	PROB	n/a	LTP270	ltpFR	15	n/a	n/a	n/a	n/a	n/a	n/a	9	1	4	4	n/a	n/a	n/a	n/a	n/a
2465658	PROB	n/a	LTP270	ltpFR	15	n/a	n/a	n/a	n/a	n/a	n/a	11	5	3	3	n/a	n/a	n/a	n/a	n/a
2467740	PROB	n/a	LTP270	ltpFR	15	n/a	n/a	n/a	n/a	n/a	n/a	21	5	8	8	n/a	n/a	n/a	n/a	n/a
2470352	PROB	n/a	LTP270	ltpFR	15	n/a	n/a	n/a	n/a	n/a	n/a	12	4	4	4	n/a	n/a	n/a	n/a	n/a
2473549	STOP	n/a	LTP270	ltpFR	15	n/a	n/a	n/a	n/a	n/a	n/a	n/a	n/a	n/a	n/a	n/a	n/a	n/a	n/a	n/a
2475378	WORD	wordpools/wasnorm_wordpool_less_exclusions.txt	LTP270	ltpFR	15	8	0	CROW	414	n/a	1	n/a	0	0	0	1	0.412841796875	0.57763671875	upper	../fonts/zerothre.ttf
2478391	START	n/a	LTP270	ltpFR	15	n/a	n/a	n/a	n/a	n/a	n/a	n/a	n/a	n/a	n/a	n/a	n/a	n/a	n/a	n/a
2479538	PROB	n/a	LTP270	ltpFR	15	n/a	n/a	n/a	n/a	n/a	n/a	18	5	6	8	n/a	n/a	n/a	n/a	n/a
2486179	PROB	n/a	LTP270	ltpFR	15	n/a	n/a	n/a	n/a	n/a	n/a	23	7	8	8	n/a	n/a	n/a	n/a	n/a
2489606	PROB	n/a	LTP270	ltpFR	15	n/a	n/a	n/a	n/a	n/a	n/a	16	7	4	5	n/a	n/a	n/a	n/a	n/a
2491570	PROB	n/a	LTP270	ltpFR	15	n/a	n/a	n/a	n/a	n/a	n/a	21	7	5	9	n/a	n/a	n/a	n/a	n/a
2493774	STOP	n/a	LTP270	ltpFR	15	n/a	n/a	n/a	n/a	n/a	n/a	n/a	n/a	n/a	n/a	n/a	n/a	n/a	n/a	n/a
2495348	WORD	wordpools/wasnorm_wordpool_less_exclusions.txt	LTP270	ltpFR	15	8	0	QUAIL	1147	n/a	1	n/a	0	0	0	1	0.412841796875	0.57763671875	upper	../fonts/zerothre.ttf
2498361	START	n/a	LTP270	ltpFR	15	n/a	n/a	n/a	n/a	n/a	n/a	n/a	n/a	n/a	n/a	n/a	n/a	n/a	n/a	n/a
2499209	PROB	n/a	LTP270	ltpFR	15	n/a	n/a	n/a	n/a	n/a	n/a	5	2	2	1	n/a	n/a	n/a	n/a	n/a
2500957	PROB	n/a	LTP270	ltpFR	15	n/a	n/a	n/a	n/a	n/a	n/a	14	4	4	6	n/a	n/a	n/a	n/a	n/a
2504967	PROB	n/a	LTP270	ltpFR	15	n/a	n/a	n/a	n/a	n/a	n/a	12	2	8	2	n/a	n/a	n/a	n/a	n/a
2506581	PROB	n/a	LTP270	ltpFR	15	n/a	n/a	n/a	n/a	n/a	n/a	16	4	9	3	n/a	n/a	n/a	n/a	n/a
2509760	PROB	n/a	LTP270	ltpFR	15	n/a	n/a	n/a	n/a	n/a	n/a	12	5	6	1	n/a	n/a	n/a	n/a	n/a
2514360	STOP	n/a	LTP270	ltpFR	15	n/a	n/a	n/a	n/a	n/a	n/a	n/a	n/a	n/a	n/a	n/a	n/a	n/a	n/a	n/a
2515517	WORD	wordpools/wasnorm_wordpool_less_exclusions.txt	LTP270	ltpFR	15	8	0	FOLDER	588	n/a	1	n/a	0	0	0	1	0.412841796875	0.57763671875	upper	../fonts/zerothre.ttf
2518530	START	n/a	LTP270	ltpFR	15	n/a	n/a	n/a	n/a	n/a	n/a	n/a	n/a	n/a	n/a	n/a	n/a	n/a	n/a	n/a
2519578	PROB	n/a	LTP270	ltpFR	15	n/a	n/a	n/a	n/a	n/a	n/a	11	2	4	5	n/a	n/a	n/a	n/a	n/a
2521393	PROB	n/a	LTP270	ltpFR	15	n/a	n/a	n/a	n/a	n/a	n/a	17	7	5	5	n/a	n/a	n/a	n/a	n/a
2522891	PROB	n/a	LTP270	ltpFR	15	n/a	n/a	n/a	n/a	n/a	n/a	20	6	8	6	n/a	n/a	n/a	n/a	n/a
2527051	PROB	n/a	LTP270	ltpFR	15	n/a	n/a	n/a	n/a	n/a	n/a	15	1	9	5	n/a	n/a	n/a	n/a	n/a
2528598	PROB	n/a	LTP270	ltpFR	15	n/a	n/a	n/a	n/a	n/a	n/a	9	1	2	6	n/a	n/a	n/a	n/a	n/a
2533230	STOP	n/a	LTP270	ltpFR	15	n/a	n/a	n/a	n/a	n/a	n/a	n/a	n/a	n/a	n/a	n/a	n/a	n/a	n/a	n/a
2535422	WORD	wordpools/wasnorm_wordpool_less_exclusions.txt	LTP270	ltpFR	15	8	1	WALL	1582	n/a	0	n/a	0	0	0	0	0.5869140625	0.422607421875	lower	../fonts/amplitud.ttf
2538434	START	n/a	LTP270	ltpFR	15	n/a	n/a	n/a	n/a	n/a	n/a	n/a	n/a	n/a	n/a	n/a	n/a	n/a	n/a	n/a
2539565	PROB	n/a	LTP270	ltpFR	15	n/a	n/a	n/a	n/a	n/a	n/a	5	2	1	2	n/a	n/a	n/a	n/a	n/a
2541280	PROB	n/a	LTP270	ltpFR	15	n/a	n/a	n/a	n/a	n/a	n/a	7	2	2	3	n/a	n/a	n/a	n/a	n/a
2544125	PROB	n/a	LTP270	ltpFR	15	n/a	n/a	n/a	n/a	n/a	n/a	17	2	6	9	n/a	n/a	n/a	n/a	n/a
2546971	PROB	n/a	LTP270	ltpFR	15	n/a	n/a	n/a	n/a	n/a	n/a	14	7	5	2	n/a	n/a	n/a	n/a	n/a
2548885	PROB	n/a	LTP270	ltpFR	15	n/a	n/a	n/a	n/a	n/a	n/a	16	3	5	8	n/a	n/a	n/a	n/a	n/a
2551032	PROB	n/a	LTP270	ltpFR	15	n/a	n/a	n/a	n/a	n/a	n/a	17	4	5	8	n/a	n/a	n/a	n/a	n/a
2553470	STOP	n/a	LTP270	ltpFR	15	n/a	n/a	n/a	n/a	n/a	n/a	n/a	n/a	n/a	n/a	n/a	n/a	n/a	n/a	n/a
2555624	WORD	wordpools/wasnorm_wordpool_less_exclusions.txt	LTP270	ltpFR	15	8	1	TAVERN	1437	n/a	0	n/a	0	0	0	0	0.5869140625	0.422607421875	lower	../fonts/amplitud.ttf
2558636	START	n/a	LTP270	ltpFR	15	n/a	n/a	n/a	n/a	n/a	n/a	n/a	n/a	n/a	n/a	n/a	n/a	n/a	n/a	n/a
2559535	PROB	n/a	LTP270	ltpFR	15	n/a	n/a	n/a	n/a	n/a	n/a	13	6	3	4	n/a	n/a	n/a	n/a	n/a
2560934	PROB	n/a	LTP270	ltpFR	15	n/a	n/a	n/a	n/a	n/a	n/a	7	3	1	3	n/a	n/a	n/a	n/a	n/a
2562514	PROB	n/a	LTP270	ltpFR	15	n/a	n/a	n/a	n/a	n/a	n/a	9	4	3	2	n/a	n/a	n/a	n/a	n/a
2564512	PROB	n/a	LTP270	ltpFR	15	n/a	n/a	n/a	n/a	n/a	n/a	13	8	2	3	n/a	n/a	n/a	n/a	n/a
2567274	PROB	n/a	LTP270	ltpFR	15	n/a	n/a	n/a	n/a	n/a	n/a	16	5	6	5	n/a	n/a	n/a	n/a	n/a
2568722	PROB	n/a	LTP270	ltpFR	15	n/a	n/a	n/a	n/a	n/a	n/a	13	1	6	6	n/a	n/a	n/a	n/a	n/a
2570270	PROB	n/a	LTP270	ltpFR	15	n/a	n/a	n/a	n/a	n/a	n/a	13	2	7	4	n/a	n/a	n/a	n/a	n/a
2573342	STOP	n/a	LTP270	ltpFR	15	n/a	n/a	n/a	n/a	n/a	n/a	n/a	n/a	n/a	n/a	n/a	n/a	n/a	n/a	n/a
2576411	REC_START	n/a	LTP270	ltpFR	15	8	n/a	n/a	n/a	n/a	n/a	n/a	0	0	0	n/a	n/a	n/a	n/a	n/a
2579044	REC_WORD	wordpools/wasnorm_wordpool_less_exclusions.txt	LTP270	ltpFR	15	8	1	TAVERN	1437	n/a	0	n/a	0	0	0	n/a	n/a	n/a	n/a	n/a
2579845	REC_WORD	wordpools/wasnorm_wordpool_less_exclusions.txt	LTP270	ltpFR	15	8	0	KNUCKLE	789	n/a	0	n/a	0	0	0	n/a	n/a	n/a	n/a	n/a
2591716	REC_WORD_VV	wordpools/wasnorm_wordpool_less_exclusions.txt	LTP270	ltpFR	15	8	n/a	<>	-1	n/a	n/a	n/a	0	0	0	n/a	n/a	n/a	n/a	n/a
2592716	REC_WORD_VV	wordpools/wasnorm_wordpool_less_exclusions.txt	LTP270	ltpFR	15	8	n/a	<>	-1	n/a	n/a	n/a	0	0	0	n/a	n/a	n/a	n/a	n/a
2648782	REC_WORD	wordpools/wasnorm_wordpool_less_exclusions.txt	LTP270	ltpFR	15	8	1	WALL	1582	n/a	0	n/a	0	0	0	n/a	n/a	n/a	n/a	n/a
2654361	WORD	wordpools/wasnorm_wordpool_less_exclusions.txt	LTP270	ltpFR	15	9	1	MARINE	869	n/a	0	n/a	0	0	0	0	0.5869140625	0.422607421875	lower	../fonts/amplitud.ttf
2658255	WORD	wordpools/wasnorm_wordpool_less_exclusions.txt	LTP270	ltpFR	15	9	1	ISLAND	745	n/a	0	n/a	0	0	0	0	0.5869140625	0.422607421875	lower	../fonts/amplitud.ttf
2662182	WORD	wordpools/wasnorm_wordpool_less_exclusions.txt	LTP270	ltpFR	15	9	0	WITCH	1617	n/a	1	n/a	0	0	0	1	0.412841796875	0.57763671875	upper	../fonts/zerothre.ttf
2666243	WORD	wordpools/wasnorm_wordpool_less_exclusions.txt	LTP270	ltpFR	15	9	0	PROFESSIONAL	1130	n/a	1	n/a	0	0	0	1	0.412841796875	0.57763671875	upper	../fonts/zerothre.ttf
2670304	WORD	wordpools/wasnorm_wordpool_less_exclusions.txt	LTP270	ltpFR	15	9	0	BUTTER	205	n/a	0	n/a	0	0	0	1	0.412841796875	0.57763671875	upper	../fonts/zerothre.ttf
2674131	WORD	wordpools/wasnorm_wordpool_less_exclusions.txt	LTP270	ltpFR	15	9	0	PARTY	1018	n/a	1	n/a	0	0	0	1	0.412841796875	0.57763671875	upper	../fonts/zerothre.ttf
2678308	WORD	wordpools/wasnorm_wordpool_less_exclusions.txt	LTP270	ltpFR	15	9	1	BAIT	70	n/a	0	n/a	0	0	0	0	0.5869140625	0.422607421875	lower	../fonts/amplitud.ttf
2682319	WORD	wordpools/wasnorm_wordpool_less_exclusions.txt	LTP270	ltpFR	15	9	1	LAWYER	806	n/a	1	n/a	0	0	0	0	0.5869140625	0.422607421875	lower	../fonts/amplitud.ttf
2686413	WORD	wordpools/wasnorm_wordpool_less_exclusions.txt	LTP270	ltpFR	15	9	1	CARPET	247	n/a	0	n/a	0	0	0	0	0.5869140625	0.422607421875	lower	../fonts/amplitud.ttf
2690374	WORD	wordpools/wasnorm_wordpool_less_exclusions.txt	LTP270	ltpFR	15	9	1	GRATE	657	n/a	0	n/a	0	0	0	0	0.5869140625	0.422607421875	lower	../fonts/amplitud.ttf
2694517	WORD	wordpools/wasnorm_wordpool_less_exclusions.txt	LTP270	ltpFR	15	9	0	CHEDDAR	286	n/a	0	n/a	0	0	0	1	0.412841796875	0.57763671875	upper	../fonts/zerothre.ttf
2698445	WORD	wordpools/wasnorm_wordpool_less_exclusions.txt	LTP270	ltpFR	15	9	0	SAPPHIRE	1234	n/a	0	n/a	0	0	0	1	0.412841796875	0.57763671875	upper	../fonts/zerothre.ttf
2702339	WORD	wordpools/wasnorm_wordpool_less_exclusions.txt	LTP270	ltpFR	15	9	0	MINER	896	n/a	1	n/a	0	0	0	1	0.412841796875	0.57763671875	upper	../fonts/zerothre.ttf
2706333	WORD	wordpools/wasnorm_wordpool_less_exclusions.txt	LTP270	ltpFR	15	9	0	CEILING	265	n/a	1	n/a	0	0	0	1	0.412841796875	0.57763671875	upper	../fonts/zerothre.ttf
2710510	WORD	wordpools/wasnorm_wordpool_less_exclusions.txt	LTP270	ltpFR	15	9	1	WAND	1586	n/a	0	n/a	0	0	0	0	0.5869140625	0.422607421875	lower	../fonts/amplitud.ttf
2714520	WORD	wordpools/wasnorm_wordpool_less_exclusions.txt	LTP270	ltpFR	15	9	1	COUNTY	389	n/a	0	n/a	0	0	0	0	0.5869140625	0.422607421875	lower	../fonts/amplitud.ttf
2720263	REC_START	n/a	LTP270	ltpFR	15	9	n/a	n/a	n/a	n/a	n/a	n/a	0	0	0	n/a	n/a	n/a	n/a	n/a
2722984	REC_WORD	wordpools/wasnorm_wordpool_less_exclusions.txt	LTP270	ltpFR	15	9	0	CEILING	265	n/a	1	n/a	0	0	0	n/a	n/a	n/a	n/a	n/a
2737878	REC_WORD	wordpools/wasnorm_wordpool_less_exclusions.txt	LTP270	ltpFR	15	9	0	BUTTER	205	n/a	0	n/a	0	0	0	n/a	n/a	n/a	n/a	n/a
2747232	REC_WORD	wordpools/wasnorm_wordpool_less_exclusions.txt	LTP270	ltpFR	15	9	1	WAND	1586	n/a	0	n/a	0	0	0	n/a	n/a	n/a	n/a	n/a
2776367	REC_WORD	wordpools/wasnorm_wordpool_less_exclusions.txt	LTP270	ltpFR	15	9	1	TAVERN	1437	n/a	0	n/a	0	0	0	n/a	n/a	n/a	n/a	n/a
2796948	START	n/a	LTP270	ltpFR	15	n/a	n/a	n/a	n/a	n/a	n/a	n/a	n/a	n/a	n/a	n/a	n/a	n/a	n/a	n/a
2798462	PROB	n/a	LTP270	ltpFR	15	n/a	n/a	n/a	n/a	n/a	n/a	7	3	1	3	n/a	n/a	n/a	n/a	n/a
2800426	PROB	n/a	LTP270	ltpFR	15	n/a	n/a	n/a	n/a	n/a	n/a	18	6	8	4	n/a	n/a	n/a	n/a	n/a
2803422	STOP	n/a	LTP270	ltpFR	15	n/a	n/a	n/a	n/a	n/a	n/a	n/a	n/a	n/a	n/a	n/a	n/a	n/a	n/a	n/a
2805801	WORD	wordpools/wasnorm_wordpool_less_exclusions.txt	LTP270	ltpFR	15	10	1	CONTINENT	367	n/a	0	n/a	0	0	0	0	0.5869140625	0.422607421875	lower	../fonts/amplitud.ttf
2808814	START	n/a	LTP270	ltpFR	15	n/a	n/a	n/a	n/a	n/a	n/a	n/a	n/a	n/a	n/a	n/a	n/a	n/a	n/a	n/a
2809862	PROB	n/a	LTP270	ltpFR	15	n/a	n/a	n/a	n/a	n/a	n/a	23	9	7	7	n/a	n/a	n/a	n/a	n/a
2816814	STOP	n/a	LTP270	ltpFR	15	n/a	n/a	n/a	n/a	n/a	n/a	n/a	n/a	n/a	n/a	n/a	n/a	n/a	n/a	n/a
2817983	WORD	wordpools/wasnorm_wordpool_less_exclusions.txt	LTP270	ltpFR	15	10	1	VAN	1548	n/a	0	n/a	0	0	0	0	0.5869140625	0.422607421875	lower	../fonts/amplitud.ttf
2820996	START	n/a	LTP270	ltpFR	15	n/a	n/a	n/a	n/a	n/a	n/a	n/a	n/a	n/a	n/a	n/a	n/a	n/a	n/a	n/a
2821977	PROB	n/a	LTP270	ltpFR	15	n/a	n/a	n/a	n/a	n/a	n/a	12	4	2	6	n/a	n/a	n/a	n/a	n/a
2823908	PROB	n/a	LTP270	ltpFR	15	n/a	n/a	n/a	n/a	n/a	n/a	23	6	7	6	n/a	n/a	n/a	n/a	n/a
2828038	STOP	n/a	LTP270	ltpFR	15	n/a	n/a	n/a	n/a	n/a	n/a	n/a	n/a	n/a	n/a	n/a	n/a	n/a	n/a	n/a
2829982	WORD	wordpools/wasnorm_wordpool_less_exclusions.txt	LTP270	ltpFR	15	10	1	ENCYCLOPEDIA	533	n/a	0	n/a	0	0	0	0	0.5869140625	0.422607421875	lower	../fonts/amplitud.ttf
2832995	START	n/a	LTP270	ltpFR	15	n/a	n/a	n/a	n/a	n/a	n/a	n/a	n/a	n/a	n/a	n/a	n/a	n/a	n/a	n/a
2834076	PROB	n/a	LTP270	ltpFR	15	n/a	n/a	n/a	n/a	n/a	n/a	12	4	1	7	n/a	n/a	n/a	n/a	n/a
2837471	PROB	n/a	LTP270	ltpFR	15	n/a	n/a	n/a	n/a	n/a	n/a	21	6	8	7	n/a	n/a	n/a	n/a	n/a
2840318	STOP	n/a	LTP270	ltpFR	15	n/a	n/a	n/a	n/a	n/a	n/a	n/a	n/a	n/a	n/a	n/a	n/a	n/a	n/a	n/a
2842047	WORD	wordpools/wasnorm_wordpool_less_exclusions.txt	LTP270	ltpFR	15	10	1	FIELD	562	n/a	0	n/a	0	0	0	0	0.5869140625	0.422607421875	lower	../fonts/amplitud.ttf
2845060	START	n/a	LTP270	ltpFR	15	n/a	n/a	n/a	n/a	n/a	n/a	n/a	n/a	n/a	n/a	n/a	n/a	n/a	n/a	n/a
2846091	PROB	n/a	LTP270	ltpFR	15	n/a	n/a	n/a	n/a	n/a	n/a	12	1	9	2	n/a	n/a	n/a	n/a	n/a
2847739	PROB	n/a	LTP270	ltpFR	15	n/a	n/a	n/a	n/a	n/a	n/a	18	8	6	4	n/a	n/a	n/a	n/a	n/a
2853046	STOP	n/a	LTP270	ltpFR	15	n/a	n/a	n/a	n/a	n/a	n/a	n/a	n/a	n/a	n/a	n/a	n/a	n/a	n/a	n/a
2854079	WORD	wordpools/wasnorm_wordpool_less_exclusions.txt	LTP270	ltpFR	15	10	1	MAGNET	855	n/a	0	n/a	0	0	0	0	0.5869140625	0.422607421875	lower	../fonts/amplitud.ttf
2857092	START	n/a	LTP270	ltpFR	15	n/a	n/a	n/a	n/a	n/a	n/a	n/a	n/a	n/a	n/a	n/a	n/a	n/a	n/a	n/a
2858273	PROB	n/a	LTP270	ltpFR	15	n/a	n/a	n/a	n/a	n/a	n/a	22	9	4	9	n/a	n/a	n/a	n/a	n/a
2865091	STOP	n/a	LTP270	ltpFR	15	n/a	n/a	n/a	n/a	n/a	n/a	n/a	n/a	n/a	n/a	n/a	n/a	n/a	n/a	n/a
2866311	WORD	wordpools/wasnorm_wordpool_less_exclusions.txt	LTP270	ltpFR	15	10	1	PRINCE	1124	n/a	1	n/a	0	0	0	0	0.5869140625	0.422607421875	lower	../fonts/amplitud.ttf
2869324	START	n/a	LTP270	ltpFR	15	n/a	n/a	n/a	n/a	n/a	n/a	n/a	n/a	n/a	n/a	n/a	n/a	n/a	n/a	n/a
2870355	PROB	n/a	LTP270	ltpFR	15	n/a	n/a	n/a	n/a	n/a	n/a	8	3	1	4	n/a	n/a	n/a	n/a	n/a
2872818	PROB	n/a	LTP270	ltpFR	15	n/a	n/a	n/a	n/a	n/a	n/a	7	2	1	4	n/a	n/a	n/a	n/a	n/a
2874832	PROB	n/a	LTP270	ltpFR	15	n/a	n/a	n/a	n/a	n/a	n/a	10	2	1	7	n/a	n/a	n/a	n/a	n/a
2877134	STOP	n/a	LTP270	ltpFR	15	n/a	n/a	n/a	n/a	n/a	n/a	n/a	n/a	n/a	n/a	n/a	n/a	n/a	n/a	n/a
2878410	WORD	wordpools/wasnorm_wordpool_less_exclusions.txt	LTP270	ltpFR	15	10	1	BUNNY	198	n/a	1	n/a	0	0	0	0	0.5869140625	0.422607421875	lower	../fonts/amplitud.ttf
2881422	START	n/a	LTP270	ltpFR	15	n/a	n/a	n/a	n/a	n/a	n/a	n/a	n/a	n/a	n/a	n/a	n/a	n/a	n/a	n/a
2882519	PROB	n/a	LTP270	ltpFR	15	n/a	n/a	n/a	n/a	n/a	n/a	11	6	1	4	n/a	n/a	n/a	n/a	n/a
2884184	PROB	n/a	LTP270	ltpFR	15	n/a	n/a	n/a	n/a	n/a	n/a	16	9	6	1	n/a	n/a	n/a	n/a	n/a
2889422	STOP	n/a	LTP270	ltpFR	15	n/a	n/a	n/a	n/a	n/a	n/a	n/a	n/a	n/a	n/a	n/a	n/a	n/a	n/a	n/a
2890309	WORD	wordpools/wasnorm_wordpool_less_exclusions.txt	LTP270	ltpFR	15	10	1	WHALE	1601	n/a	1	n/a	0	0	0	0	0.5869140625	0.422607421875	lower	../fonts/amplitud.ttf
2893321	START	n/a	LTP270	ltpFR	15	n/a	n/a	n/a	n/a	n/a	n/a	n/a	n/a	n/a	n/a	n/a	n/a	n/a	n/a	n/a
2894353	PROB	n/a	LTP270	ltpFR	15	n/a	n/a	n/a	n/a	n/a	n/a	18	7	8	3	n/a	n/a	n/a	n/a	n/a
2901321	STOP	n/a	LTP270	ltpFR	15	n/a	n/a	n/a	n/a	n/a	n/a	n/a	n/a	n/a	n/a	n/a	n/a	n/a	n/a	n/a
2902374	WORD	wordpools/wasnorm_wordpool_less_exclusions.txt	LTP270	ltpFR	15	10	1	CLAM	315	n/a	1	n/a	0	0	0	0	0.5869140625	0.422607421875	lower	../fonts/amplitud.ttf
2905386	START	n/a	LTP270	ltpFR	15	n/a	n/a	n/a	n/a	n/a	n/a	n/a	n/a	n/a	n/a	n/a	n/a	n/a	n/a	n/a
2906550	PROB	n/a	LTP270	ltpFR	15	n/a	n/a	n/a	n/a	n/a	n/a	13	2	9	2	n/a	n/a	n/a	n/a	n/a
2908814	PROB	n/a	LTP270	ltpFR	15	n/a	n/a	n/a	n/a	n/a	n/a	9	1	1	7	n/a	n/a	n/a	n/a	n/a
2910395	PROB	n/a	LTP270	ltpFR	15	n/a	n/a	n/a	n/a	n/a	n/a	14	4	2	8	n/a	n/a	n/a	n/a	n/a
2912878	STOP	n/a	LTP270	ltpFR	15	n/a	n/a	n/a	n/a	n/a	n/a	n/a	n/a	n/a	n/a	n/a	n/a	n/a	n/a	n/a
2914256	WORD	wordpools/wasnorm_wordpool_less_exclusions.txt	LTP270	ltpFR	15	10	1	OTTER	986	n/a	1	n/a	0	0	0	0	0.5869140625	0.422607421875	lower	../fonts/amplitud.ttf
2917269	START	n/a	LTP270	ltpFR	15	n/a	n/a	n/a	n/a	n/a	n/a	n/a	n/a	n/a	n/a	n/a	n/a	n/a	n/a	n/a
2918200	PROB	n/a	LTP270	ltpFR	15	n/a	n/a	n/a	n/a	n/a	n/a	12	3	4	5	n/a	n/a	n/a	n/a	n/a
2920629	PROB	n/a	LTP270	ltpFR	15	n/a	n/a	n/a	n/a	n/a	n/a	10	4	2	4	n/a	n/a	n/a	n/a	n/a
2922411	PROB	n/a	LTP270	ltpFR	15	n/a	n/a	n/a	n/a	n/a	n/a	10	5	3	2	n/a	n/a	n/a	n/a	n/a
2924653	STOP	n/a	LTP270	ltpFR	15	n/a	n/a	n/a	n/a	n/a	n/a	n/a	n/a	n/a	n/a	n/a	n/a	n/a	n/a	n/a
2926338	WORD	wordpools/wasnorm_wordpool_less_exclusions.txt	LTP270	ltpFR	15	10	1	RIVER	1194	n/a	0	n/a	0	0	0	0	0.5869140625	0.422607421875	lower	../fonts/amplitud.ttf
2929351	START	n/a	LTP270	ltpFR	15	n/a	n/a	n/a	n/a	n/a	n/a	n/a	n/a	n/a	n/a	n/a	n/a	n/a	n/a	n/a
2930399	PROB	n/a	LTP270	ltpFR	15	n/a	n/a	n/a	n/a	n/a	n/a	20	6	6	9	n/a	n/a	n/a	n/a	n/a
2934459	PROB	n/a	LTP270	ltpFR	15	n/a	n/a	n/a	n/a	n/a	n/a	15	1	5	9	n/a	n/a	n/a	n/a	n/a
2936637	STOP	n/a	LTP270	ltpFR	15	n/a	n/a	n/a	n/a	n/a	n/a	n/a	n/a	n/a	n/a	n/a	n/a	n/a	n/a	n/a
2938254	WORD	wordpools/wasnorm_wordpool_less_exclusions.txt	LTP270	ltpFR	15	10	1	YACHT	1629	n/a	0	n/a	0	0	0	0	0.5869140625	0.422607421875	lower	../fonts/amplitud.ttf
2941266	START	n/a	LTP270	ltpFR	15	n/a	n/a	n/a	n/a	n/a	n/a	n/a	n/a	n/a	n/a	n/a	n/a	n/a	n/a	n/a
2942298	PROB	n/a	LTP270	ltpFR	15	n/a	n/a	n/a	n/a	n/a	n/a	16	1	8	7	n/a	n/a	n/a	n/a	n/a
2945177	PROB	n/a	LTP270	ltpFR	15	n/a	n/a	n/a	n/a	n/a	n/a	11	1	4	6	n/a	n/a	n/a	n/a	n/a
2949266	STOP	n/a	LTP270	ltpFR	15	n/a	n/a	n/a	n/a	n/a	n/a	n/a	n/a	n/a	n/a	n/a	n/a	n/a	n/a	n/a
2950219	WORD	wordpools/wasnorm_wordpool_less_exclusions.txt	LTP270	ltpFR	15	10	1	ANCHOR	21	n/a	0	n/a	0	0	0	0	0.5869140625	0.422607421875	lower	../fonts/amplitud.ttf
2953232	START	n/a	LTP270	ltpFR	15	n/a	n/a	n/a	n/a	n/a	n/a	n/a	n/a	n/a	n/a	n/a	n/a	n/a	n/a	n/a
2954330	PROB	n/a	LTP270	ltpFR	15	n/a	n/a	n/a	n/a	n/a	n/a	20	5	8	7	n/a	n/a	n/a	n/a	n/a
2955677	PROB	n/a	LTP270	ltpFR	15	n/a	n/a	n/a	n/a	n/a	n/a	8	2	4	1	n/a	n/a	n/a	n/a	n/a
2957557	PROB	n/a	LTP270	ltpFR	15	n/a	n/a	n/a	n/a	n/a	n/a	12	1	8	3	n/a	n/a	n/a	n/a	n/a
2961214	STOP	n/a	LTP270	ltpFR	15	n/a	n/a	n/a	n/a	n/a	n/a	n/a	n/a	n/a	n/a	n/a	n/a	n/a	n/a	n/a
2962318	WORD	wordpools/wasnorm_wordpool_less_exclusions.txt	LTP270	ltpFR	15	10	1	MAGAZINE	853	n/a	0	n/a	0	0	0	0	0.5869140625	0.422607421875	lower	../fonts/amplitud.ttf
2965330	START	n/a	LTP270	ltpFR	15	n/a	n/a	n/a	n/a	n/a	n/a	n/a	n/a	n/a	n/a	n/a	n/a	n/a	n/a	n/a
2966245	PROB	n/a	LTP270	ltpFR	15	n/a	n/a	n/a	n/a	n/a	n/a	16	6	8	2	n/a	n/a	n/a	n/a	n/a
2968741	PROB	n/a	LTP270	ltpFR	15	n/a	n/a	n/a	n/a	n/a	n/a	5	1	3	1	n/a	n/a	n/a	n/a	n/a
2970073	PROB	n/a	LTP270	ltpFR	15	n/a	n/a	n/a	n/a	n/a	n/a	19	5	5	9	n/a	n/a	n/a	n/a	n/a
2971421	PROB	n/a	LTP270	ltpFR	15	n/a	n/a	n/a	n/a	n/a	n/a	15	4	8	3	n/a	n/a	n/a	n/a	n/a
2973238	STOP	n/a	LTP270	ltpFR	15	n/a	n/a	n/a	n/a	n/a	n/a	n/a	n/a	n/a	n/a	n/a	n/a	n/a	n/a	n/a
2974267	WORD	wordpools/wasnorm_wordpool_less_exclusions.txt	LTP270	ltpFR	15	10	1	FLESH	579	n/a	0	n/a	0	0	0	0	0.5869140625	0.422607421875	lower	../fonts/amplitud.ttf
2977279	START	n/a	LTP270	ltpFR	15	n/a	n/a	n/a	n/a	n/a	n/a	n/a	n/a	n/a	n/a	n/a	n/a	n/a	n/a	n/a
2978310	PROB	n/a	LTP270	ltpFR	15	n/a	n/a	n/a	n/a	n/a	n/a	18	9	1	8	n/a	n/a	n/a	n/a	n/a
2980307	PROB	n/a	LTP270	ltpFR	15	n/a	n/a	n/a	n/a	n/a	n/a	19	6	8	5	n/a	n/a	n/a	n/a	n/a
2982570	PROB	n/a	LTP270	ltpFR	15	n/a	n/a	n/a	n/a	n/a	n/a	19	9	7	3	n/a	n/a	n/a	n/a	n/a
2985206	STOP	n/a	LTP270	ltpFR	15	n/a	n/a	n/a	n/a	n/a	n/a	n/a	n/a	n/a	n/a	n/a	n/a	n/a	n/a	n/a
2986432	WORD	wordpools/wasnorm_wordpool_less_exclusions.txt	LTP270	ltpFR	15	10	1	CAR	241	n/a	0	n/a	0	0	0	0	0.5869140625	0.422607421875	lower	../fonts/amplitud.ttf
2989444	START	n/a	LTP270	ltpFR	15	n/a	n/a	n/a	n/a	n/a	n/a	n/a	n/a	n/a	n/a	n/a	n/a	n/a	n/a	n/a
2990293	PROB	n/a	LTP270	ltpFR	15	n/a	n/a	n/a	n/a	n/a	n/a	19	4	9	7	n/a	n/a	n/a	n/a	n/a
2994519	PROB	n/a	LTP270	ltpFR	15	n/a	n/a	n/a	n/a	n/a	n/a	10	2	4	4	n/a	n/a	n/a	n/a	n/a
2996342	STOP	n/a	LTP270	ltpFR	15	n/a	n/a	n/a	n/a	n/a	n/a	n/a	n/a	n/a	n/a	n/a	n/a	n/a	n/a	n/a
2999263	REC_START	n/a	LTP270	ltpFR	15	10	n/a	n/a	n/a	n/a	n/a	n/a	0	0	0	n/a	n/a	n/a	n/a	n/a
3002689	REC_WORD	wordpools/wasnorm_wordpool_less_exclusions.txt	LTP270	ltpFR	15	10	1	ENCYCLOPEDIA	533	n/a	0	n/a	0	0	0	n/a	n/a	n/a	n/a	n/a
3003689	REC_WORD_VV	wordpools/wasnorm_wordpool_less_exclusions.txt	LTP270	ltpFR	15	10	n/a	<>	-1	n/a	n/a	n/a	0	0	0	n/a	n/a	n/a	n/a	n/a
3026203	REC_WORD	wordpools/wasnorm_wordpool_less_exclusions.txt	LTP270	ltpFR	15	10	1	YACHT	1629	n/a	0	n/a	0	0	0	n/a	n/a	n/a	n/a	n/a
3050377	REC_WORD	wordpools/wasnorm_wordpool_less_exclusions.txt	LTP270	ltpFR	15	10	1	WHALE	1601	n/a	1	n/a	0	0	0	n/a	n/a	n/a	n/a	n/a
3059830	REC_WORD	wordpools/wasnorm_wordpool_less_exclusions.txt	LTP270	ltpFR	15	10	1	PRINCE	1124	n/a	1	n/a	0	0	0	n/a	n/a	n/a	n/a	n/a
3068971	REC_WORD	wordpools/wasnorm_wordpool_less_exclusions.txt	LTP270	ltpFR	15	10	1	OTTER	986	n/a	1	n/a	0	0	0	n/a	n/a	n/a	n/a	n/a
3077279	WORD	wordpools/wasnorm_wordpool_less_exclusions.txt	LTP270	ltpFR	15	11	1	SNORKEL	1336	n/a	0	n/a	0	0	0	0	0.5869140625	0.422607421875	lower	../fonts/amplitud.ttf
3081157	WORD	wordpools/wasnorm_wordpool_less_exclusions.txt	LTP270	ltpFR	15	11	1	DISC	473	n/a	0	n/a	0	0	0	0	0.5869140625	0.422607421875	lower	../fonts/amplitud.ttf
3085134	WORD	wordpools/wasnorm_wordpool_less_exclusions.txt	LTP270	ltpFR	15	11	1	ROCKET	1202	n/a	0	n/a	0	0	0	0	0.5869140625	0.422607421875	lower	../fonts/amplitud.ttf
3089328	WORD	wordpools/wasnorm_wordpool_less_exclusions.txt	LTP270	ltpFR	15	11	1	SHIP	1286	n/a	0	n/a	0	0	0	0	0.5869140625	0.422607421875	lower	../fonts/amplitud.ttf
3093272	WORD	wordpools/wasnorm_wordpool_less_exclusions.txt	LTP270	ltpFR	15	11	0	SEA	1259	n/a	1	n/a	0	0	0	1	0.412841796875	0.57763671875	upper	../fonts/zerothre.ttf
3097249	WORD	wordpools/wasnorm_wordpool_less_exclusions.txt	LTP270	ltpFR	15	11	0	WHISTLE	1606	n/a	0	n/a	0	0	0	1	0.412841796875	0.57763671875	upper	../fonts/zerothre.ttf
3101310	WORD	wordpools/wasnorm_wordpool_less_exclusions.txt	LTP270	ltpFR	15	11	0	PLAID	1080	n/a	0	n/a	0	0	0	1	0.412841796875	0.57763671875	upper	../fonts/zerothre.ttf
3105171	WORD	wordpools/wasnorm_wordpool_less_exclusions.txt	LTP270	ltpFR	15	11	0	GOBLIN	645	n/a	1	n/a	0	0	0	1	0.412841796875	0.57763671875	upper	../fonts/zerothre.ttf
3109099	WORD	wordpools/wasnorm_wordpool_less_exclusions.txt	LTP270	ltpFR	15	11	1	SECRETARY	1265	n/a	1	n/a	0	0	0	0	0.5869140625	0.422607421875	lower	../fonts/amplitud.ttf
3113192	WORD	wordpools/wasnorm_wordpool_less_exclusions.txt	LTP270	ltpFR	15	11	1	SUPERVISOR	1410	n/a	1	n/a	0	0	0	0	0.5869140625	0.422607421875	lower	../fonts/amplitud.ttf
3117186	WORD	wordpools/wasnorm_wordpool_less_exclusions.txt	LTP270	ltpFR	15	11	1	TROUT	1511	n/a	1	n/a	0	0	0	0	0.5869140625	0.422607421875	lower	../fonts/amplitud.ttf
3121031	WORD	wordpools/wasnorm_wordpool_less_exclusions.txt	LTP270	ltpFR	15	11	1	ATTIC	56	n/a	0	n/a	0	0	0	0	0.5869140625	0.422607421875	lower	../fonts/amplitud.ttf
3125058	WORD	wordpools/wasnorm_wordpool_less_exclusions.txt	LTP270	ltpFR	15	11	0	BASEMENT	94	n/a	1	n/a	0	0	0	1	0.412841796875	0.57763671875	upper	../fonts/zerothre.ttf
3129102	WORD	wordpools/wasnorm_wordpool_less_exclusions.txt	LTP270	ltpFR	15	11	0	DAM	436	n/a	1	n/a	0	0	0	1	0.412841796875	0.57763671875	upper	../fonts/zerothre.ttf
3133046	WORD	wordpools/wasnorm_wordpool_less_exclusions.txt	LTP270	ltpFR	15	11	0	SCALLOP	1242	n/a	0	n/a	0	0	0	1	0.412841796875	0.57763671875	upper	../fonts/zerothre.ttf
3137173	WORD	wordpools/wasnorm_wordpool_less_exclusions.txt	LTP270	ltpFR	15	11	0	BEAKER	104	n/a	1	n/a	0	0	0	1	0.412841796875	0.57763671875	upper	../fonts/zerothre.ttf
3140186	START	n/a	LTP270	ltpFR	15	n/a	n/a	n/a	n/a	n/a	n/a	n/a	n/a	n/a	n/a	n/a	n/a	n/a	n/a	n/a
3141084	PROB	n/a	LTP270	ltpFR	15	n/a	n/a	n/a	n/a	n/a	n/a	17	7	2	8	n/a	n/a	n/a	n/a	n/a
3143513	PROB	n/a	LTP270	ltpFR	15	n/a	n/a	n/a	n/a	n/a	n/a	17	5	4	8	n/a	n/a	n/a	n/a	n/a
3146110	PROB	n/a	LTP270	ltpFR	15	n/a	n/a	n/a	n/a	n/a	n/a	9	1	6	2	n/a	n/a	n/a	n/a	n/a
3148124	PROB	n/a	LTP270	ltpFR	15	n/a	n/a	n/a	n/a	n/a	n/a	17	2	8	7	n/a	n/a	n/a	n/a	n/a
3149921	PROB	n/a	LTP270	ltpFR	15	n/a	n/a	n/a	n/a	n/a	n/a	18	7	7	4	n/a	n/a	n/a	n/a	n/a
3151667	PROB	n/a	LTP270	ltpFR	15	n/a	n/a	n/a	n/a	n/a	n/a	7	3	1	3	n/a	n/a	n/a	n/a	n/a
3153531	PROB	n/a	LTP270	ltpFR	15	n/a	n/a	n/a	n/a	n/a	n/a	9	2	2	5	n/a	n/a	n/a	n/a	n/a
3155886	STOP	n/a	LTP270	ltpFR	15	n/a	n/a	n/a	n/a	n/a	n/a	n/a	n/a	n/a	n/a	n/a	n/a	n/a	n/a	n/a
3157976	REC_START	n/a	LTP270	ltpFR	15	11	n/a	n/a	n/a	n/a	n/a	n/a	0	0	0	n/a	n/a	n/a	n/a	n/a
3160584	REC_WORD	wordpools/wasnorm_wordpool_less_exclusions.txt	LTP270	ltpFR	15	11	0	BASEMENT	94	n/a	1	n/a	0	0	0	n/a	n/a	n/a	n/a	n/a
3171986	REC_WORD	wordpools/wasnorm_wordpool_less_exclusions.txt	LTP270	ltpFR	15	11	0	BEAKER	104	n/a	1	n/a	0	0	0	n/a	n/a	n/a	n/a	n/a
3187331	REC_WORD	wordpools/wasnorm_wordpool_less_exclusions.txt	LTP270	ltpFR	15	11	1	SECRETARY	1265	n/a	1	n/a	0	0	0	n/a	n/a	n/a	n/a	n/a
3188331	REC_WORD_VV	wordpools/wasnorm_wordpool_less_exclusions.txt	LTP270	ltpFR	15	11	n/a	<>	-1	n/a	n/a	n/a	0	0	0	n/a	n/a	n/a	n/a	n/a
3201478	REC_WORD	wordpools/wasnorm_wordpool_less_exclusions.txt	LTP270	ltpFR	15	11	0	WITCH	1617	n/a	1	n/a	0	0	0	n/a	n/a	n/a	n/a	n/a
3209912	REC_WORD	wordpools/wasnorm_wordpool_less_exclusions.txt	LTP270	ltpFR	15	11	0	DAM	436	n/a	1	n/a	0	0	0	n/a	n/a	n/a	n/a	n/a
3219765	REC_WORD	wordpools/wasnorm_wordpool_less_exclusions.txt	LTP270	ltpFR	15	11	0	PLAID	1080	n/a	0	n/a	0	0	0	n/a	n/a	n/a	n/a	n/a
3232586	REC_WORD	wordpools/wasnorm_wordpool_less_exclusions.txt	LTP270	ltpFR	15	11	0	GOBLIN	645	n/a	1	n/a	0	0	0	n/a	n/a	n/a	n/a	n/a
3236725	WORD	wordpools/wasnorm_wordpool_less_exclusions.txt	LTP270	ltpFR	15	12	0	TOWN	1491	n/a	1	n/a	0	0	0	1	0.412841796875	0.57763671875	upper	../fonts/zerothre.ttf
3240952	WORD	wordpools/wasnorm_wordpool_less_exclusions.txt	LTP270	ltpFR	15	12	0	STAKE	1368	n/a	1	n/a	0	0	0	1	0.412841796875	0.57763671875	upper	../fonts/zerothre.ttf
3245012	WORD	wordpools/wasnorm_wordpool_less_exclusions.txt	LTP270	ltpFR	15	12	0	WAIST	1579	n/a	0	n/a	0	0	0	1	0.412841796875	0.57763671875	upper	../fonts/zerothre.ttf
3249040	WORD	wordpools/wasnorm_wordpool_less_exclusions.txt	LTP270	ltpFR	15	12	0	MONK	910	n/a	1	n/a	0	0	0	1	0.412841796875	0.57763671875	upper	../fonts/zerothre.ttf
3253233	WORD	wordpools/wasnorm_wordpool_less_exclusions.txt	LTP270	ltpFR	15	12	0	CATHEDRAL	260	n/a	1	n/a	0	0	0	1	0.412841796875	0.57763671875	upper	../fonts/zerothre.ttf
3257294	WORD	wordpools/wasnorm_wordpool_less_exclusions.txt	LTP270	ltpFR	15	12	0	VIKING	1565	n/a	1	n/a	0	0	0	1	0.412841796875	0.57763671875	upper	../fonts/zerothre.ttf
3261421	WORD	wordpools/wasnorm_wordpool_less_exclusions.txt	LTP270	ltpFR	15	12	0	GOVERNOR	651	n/a	1	n/a	0	0	0	1	0.412841796875	0.57763671875	upper	../fonts/zerothre.ttf
3265365	WORD	wordpools/wasnorm_wordpool_less_exclusions.txt	LTP270	ltpFR	15	12	0	MICROSCOPE	891	n/a	1	n/a	0	0	0	1	0.412841796875	0.57763671875	upper	../fonts/zerothre.ttf
3269541	WORD	wordpools/wasnorm_wordpool_less_exclusions.txt	LTP270	ltpFR	15	12	0	LANDSCAPE	799	n/a	1	n/a	0	0	0	1	0.412841796875	0.57763671875	upper	../fonts/zerothre.ttf
3273753	WORD	wordpools/wasnorm_wordpool_less_exclusions.txt	LTP270	ltpFR	15	12	0	CRAB	397	n/a	0	n/a	0	0	0	1	0.412841796875	0.57763671875	upper	../fonts/zerothre.ttf
3277797	WORD	wordpools/wasnorm_wordpool_less_exclusions.txt	LTP270	ltpFR	15	12	0	SHARK	1275	n/a	1	n/a	0	0	0	1	0.412841796875	0.57763671875	upper	../fonts/zerothre.ttf
3281841	WORD	wordpools/wasnorm_wordpool_less_exclusions.txt	LTP270	ltpFR	15	12	0	BIBLE	124	n/a	0	n/a	0	0	0	1	0.412841796875	0.57763671875	upper	../fonts/zerothre.ttf
3285984	WORD	wordpools/wasnorm_wordpool_less_exclusions.txt	LTP270	ltpFR	15	12	0	DRILL	497	n/a	0	n/a	0	0	0	1	0.412841796875	0.57763671875	upper	../fonts/zerothre.ttf
3289995	WORD	wordpools/wasnorm_wordpool_less_exclusions.txt	LTP270	ltpFR	15	12	0	PADDLE	1000	n/a	1	n/a	0	0	0	1	0.412841796875	0.57763671875	upper	../fonts/zerothre.ttf
3294122	WORD	wordpools/wasnorm_wordpool_less_exclusions.txt	LTP270	ltpFR	15	12	0	KNAPSACK	783	n/a	0	n/a	0	0	0	1	0.412841796875	0.57763671875	upper	../fonts/zerothre.ttf
3298083	WORD	wordpools/wasnorm_wordpool_less_exclusions.txt	LTP270	ltpFR	15	12	0	SPINE	1353	n/a	1	n/a	0	0	0	1	0.412841796875	0.57763671875	upper	../fonts/zerothre.ttf
3301095	START	n/a	LTP270	ltpFR	15	n/a	n/a	n/a	n/a	n/a	n/a	n/a	n/a	n/a	n/a	n/a	n/a	n/a	n/a	n/a
3301944	PROB	n/a	LTP270	ltpFR	15	n/a	n/a	n/a	n/a	n/a	n/a	12	9	2	1	n/a	n/a	n/a	n/a	n/a
3304606	PROB	n/a	LTP270	ltpFR	15	n/a	n/a	n/a	n/a	n/a	n/a	11	2	8	1	n/a	n/a	n/a	n/a	n/a
3309095	STOP	n/a	LTP270	ltpFR	15	n/a	n/a	n/a	n/a	n/a	n/a	n/a	n/a	n/a	n/a	n/a	n/a	n/a	n/a	n/a
3310948	REC_START	n/a	LTP270	ltpFR	15	12	n/a	n/a	n/a	n/a	n/a	n/a	0	0	0	n/a	n/a	n/a	n/a	n/a
3312607	REC_WORD	wordpools/wasnorm_wordpool_less_exclusions.txt	LTP270	ltpFR	15	12	0	KNAPSACK	783	n/a	0	n/a	0	0	0	n/a	n/a	n/a	n/a	n/a
3313441	REC_WORD	wordpools/wasnorm_wordpool_less_exclusions.txt	LTP270	ltpFR	15	12	0	SPINE	1353	n/a	1	n/a	0	0	0	n/a	n/a	n/a	n/a	n/a
3315573	REC_WORD	wordpools/wasnorm_wordpool_less_exclusions.txt	LTP270	ltpFR	15	12	0	WAIST	1579	n/a	0	n/a	0	0	0	n/a	n/a	n/a	n/a	n/a
3317100	REC_WORD	wordpools/wasnorm_wordpool_less_exclusions.txt	LTP270	ltpFR	15	12	0	MONK	910	n/a	1	n/a	0	0	0	n/a	n/a	n/a	n/a	n/a
3318966	REC_WORD	wordpools/wasnorm_wordpool_less_exclusions.txt	LTP270	ltpFR	15	12	0	GOVERNOR	651	n/a	1	n/a	0	0	0	n/a	n/a	n/a	n/a	n/a
3319966	REC_WORD	wordpools/wasnorm_wordpool_less_exclusions.txt	LTP270	ltpFR	15	12	0	VIKING	1565	n/a	1	n/a	0	0	0	n/a	n/a	n/a	n/a	n/a
3345197	REC_WORD	wordpools/wasnorm_wordpool_less_exclusions.txt	LTP270	ltpFR	15	12	0	CRAB	397	n/a	0	n/a	0	0	0	n/a	n/a	n/a	n/a	n/a
3350812	REC_WORD	wordpools/wasnorm_wordpool_less_exclusions.txt	LTP270	ltpFR	15	12	0	MICROSCOPE	891	n/a	1	n/a	0	0	0	n/a	n/a	n/a	n/a	n/a
3366606	REC_WORD	wordpools/wasnorm_wordpool_less_exclusions.txt	LTP270	ltpFR	15	12	0	CATHEDRAL	260	n/a	1	n/a	0	0	0	n/a	n/a	n/a	n/a	n/a
3828692	REC_START	n/a	LTP270	ltpFR	15	1	n/a	n/a	n/a	n/a	n/a	n/a	0	0	0	n/a	n/a	n/a	n/a	n/a
3828724	RECOG_LURE	n/a	LTP270	ltpFR	15	1	n/a	VEIN	1554	4	n/a	n/a	0	0	0	n/a	n/a	n/a	n/a	n/a
3830082	RECOG_RESP	n/a	LTP270	ltpFR	15	1	n/a	VEIN	1554	n/a	n/a	n/a	0	0	0	n/a	n/a	n/a	n/a	n/a
3830952	RECOG_CONF	n/a	LTP270	ltpFR	15	1	n/a	VEIN	1554	4	n/a	n/a	0	0	0	n/a	n/a	n/a	n/a	n/a
3832951	RECOG_TARGET	n/a	LTP270	ltpFR	15	1	1	SHIP	1286	4	0	n/a	0	0	0	n/a	n/a	n/a	n/a	n/a
3833642	RECOG_RESP	n/a	LTP270	ltpFR	15	1	1	SHIP	1286	n/a	0	n/a	0	0	0	n/a	n/a	n/a	n/a	n/a
3834382	RECOG_CONF	n/a	LTP270	ltpFR	15	1	1	SHIP	1286	4	0	n/a	0	0	0	n/a	n/a	n/a	n/a	n/a
3836196	RECOG_TARGET	n/a	LTP270	ltpFR	15	1	0	ARCHITECT	36	2	1	n/a	0	0	0	n/a	n/a	n/a	n/a	n/a
3836987	RECOG_RESP	n/a	LTP270	ltpFR	15	1	0	ARCHITECT	36	n/a	1	n/a	0	0	0	n/a	n/a	n/a	n/a	n/a
3837732	RECOG_CONF	n/a	LTP270	ltpFR	15	1	0	ARCHITECT	36	2	1	n/a	0	0	0	n/a	n/a	n/a	n/a	n/a
3839458	RECOG_TARGET	n/a	LTP270	ltpFR	15	1	1	GRATE	657	1	0	n/a	0	0	0	n/a	n/a	n/a	n/a	n/a
3840422	RECOG_RESP	n/a	LTP270	ltpFR	15	1	1	GRATE	657	n/a	0	n/a	0	0	0	n/a	n/a	n/a	n/a	n/a
3841142	RECOG_CONF	n/a	LTP270	ltpFR	15	1	1	GRATE	657	1	0	n/a	0	0	0	n/a	n/a	n/a	n/a	n/a
3842736	RECOG_TARGET	n/a	LTP270	ltpFR	15	1	1	TRIBE	1505	4	0	n/a	0	0	0	n/a	n/a	n/a	n/a	n/a
3844002	RECOG_RESP	n/a	LTP270	ltpFR	15	1	1	TRIBE	1505	n/a	0	n/a	0	0	0	n/a	n/a	n/a	n/a	n/a
3844582	RECOG_CONF	n/a	LTP270	ltpFR	15	1	1	TRIBE	1505	4	0	n/a	0	0	0	n/a	n/a	n/a	n/a	n/a
3846414	RECOG_LURE	n/a	LTP270	ltpFR	15	1	n/a	YOKE	1632	4	n/a	n/a	0	0	0	n/a	n/a	n/a	n/a	n/a
3847112	RECOG_RESP_VV	n/a	LTP270	ltpFR	15	1	n/a	YOKE	1632	n/a	n/a	n/a	0	0	0	n/a	n/a	n/a	n/a	n/a
3847802	RECOG_RESP	n/a	LTP270	ltpFR	15	1	n/a	YOKE	1632	n/a	n/a	n/a	0	0	0	n/a	n/a	n/a	n/a	n/a
3848622	RECOG_CONF	n/a	LTP270	ltpFR	15	1	n/a	YOKE	1632	4	n/a	n/a	0	0	0	n/a	n/a	n/a	n/a	n/a
3850392	RECOG_LURE	n/a	LTP270	ltpFR	15	1	n/a	STONE	1385	1	n/a	n/a	0	0	0	n/a	n/a	n/a	n/a	n/a
3851412	RECOG_RESP	n/a	LTP270	ltpFR	15	1	n/a	STONE	1385	n/a	n/a	n/a	0	0	0	n/a	n/a	n/a	n/a	n/a
3852062	RECOG_CONF	n/a	LTP270	ltpFR	15	1	n/a	STONE	1385	1	n/a	n/a	0	0	0	n/a	n/a	n/a	n/a	n/a
3853820	RECOG_LURE	n/a	LTP270	ltpFR	15	1	n/a	SKYSCRAPER	1322	4	n/a	n/a	0	0	0	n/a	n/a	n/a	n/a	n/a
3854867	RECOG_RESP	n/a	LTP270	ltpFR	15	1	n/a	SKYSCRAPER	1322	n/a	n/a	n/a	0	0	0	n/a	n/a	n/a	n/a	n/a
3855482	RECOG_CONF	n/a	LTP270	ltpFR	15	1	n/a	SKYSCRAPER	1322	4	n/a	n/a	0	0	0	n/a	n/a	n/a	n/a	n/a
3857165	RECOG_TARGET	n/a	LTP270	ltpFR	15	1	1	SEAFOOD	1260	5	0	n/a	0	0	0	n/a	n/a	n/a	n/a	n/a
3857872	RECOG_RESP	n/a	LTP270	ltpFR	15	1	1	SEAFOOD	1260	n/a	0	n/a	0	0	0	n/a	n/a	n/a	n/a	n/a
3858432	RECOG_CONF	n/a	LTP270	ltpFR	15	1	1	SEAFOOD	1260	5	0	n/a	0	0	0	n/a	n/a	n/a	n/a	n/a
3860077	RECOG_LURE	n/a	LTP270	ltpFR	15	1	n/a	GOLD	647	3	n/a	n/a	0	0	0	n/a	n/a	n/a	n/a	n/a
3860782	RECOG_RESP	n/a	LTP270	ltpFR	15	1	n/a	GOLD	647	n/a	n/a	n/a	0	0	0	n/a	n/a	n/a	n/a	n/a
3861322	RECOG_CONF	n/a	LTP270	ltpFR	15	1	n/a	GOLD	647	3	n/a	n/a	0	0	0	n/a	n/a	n/a	n/a	n/a
3862956	RECOG_LURE	n/a	LTP270	ltpFR	15	1	n/a	DOLPHIN	483	2	n/a	n/a	0	0	0	n/a	n/a	n/a	n/a	n/a
3863937	RECOG_RESP	n/a	LTP270	ltpFR	15	1	n/a	DOLPHIN	483	n/a	n/a	n/a	0	0	0	n/a	n/a	n/a	n/a	n/a
3864632	RECOG_CONF	n/a	LTP270	ltpFR	15	1	n/a	DOLPHIN	483	2	n/a	n/a	0	0	0	n/a	n/a	n/a	n/a	n/a
3866351	RECOG_LURE	n/a	LTP270	ltpFR	15	1	n/a	LETTUCE	814	4	n/a	n/a	0	0	0	n/a	n/a	n/a	n/a	n/a
3867247	RECOG_RESP	n/a	LTP270	ltpFR	15	1	n/a	LETTUCE	814	n/a	n/a	n/a	0	0	0	n/a	n/a	n/a	n/a	n/a
3867642	RECOG_CONF	n/a	LTP270	ltpFR	15	1	n/a	LETTUCE	814	4	n/a	n/a	0	0	0	n/a	n/a	n/a	n/a	n/a
3869512	RECOG_LURE	n/a	LTP270	ltpFR	15	1	n/a	NIGHTGOWN	953	5	n/a	n/a	0	0	0	n/a	n/a	n/a	n/a	n/a
3870272	RECOG_RESP	n/a	LTP270	ltpFR	15	1	n/a	NIGHTGOWN	953	n/a	n/a	n/a	0	0	0	n/a	n/a	n/a	n/a	n/a
3870702	RECOG_CONF	n/a	LTP270	ltpFR	15	1	n/a	NIGHTGOWN	953	5	n/a	n/a	0	0	0	n/a	n/a	n/a	n/a	n/a
3872591	RECOG_TARGET	n/a	LTP270	ltpFR	15	1	0	APE	31	5	1	n/a	0	0	0	n/a	n/a	n/a	n/a	n/a
3873322	RECOG_RESP	n/a	LTP270	ltpFR	15	1	0	APE	31	n/a	1	n/a	0	0	0	n/a	n/a	n/a	n/a	n/a
3873812	RECOG_CONF	n/a	LTP270	ltpFR	15	1	0	APE	31	5	1	n/a	0	0	0	n/a	n/a	n/a	n/a	n/a
3875553	RECOG_LURE	n/a	LTP270	ltpFR	15	1	n/a	MOUSE	925	2	n/a	n/a	0	0	0	n/a	n/a	n/a	n/a	n/a
3876327	RECOG_RESP	n/a	LTP270	ltpFR	15	1	n/a	MOUSE	925	n/a	n/a	n/a	0	0	0	n/a	n/a	n/a	n/a	n/a
3876872	RECOG_CONF	n/a	LTP270	ltpFR	15	1	n/a	MOUSE	925	2	n/a	n/a	0	0	0	n/a	n/a	n/a	n/a	n/a
3878500	RECOG_LURE	n/a	LTP270	ltpFR	15	1	n/a	MAILMAN	858	1	n/a	n/a	0	0	0	n/a	n/a	n/a	n/a	n/a
3879507	RECOG_RESP	n/a	LTP270	ltpFR	15	1	n/a	MAILMAN	858	n/a	n/a	n/a	0	0	0	n/a	n/a	n/a	n/a	n/a
3880052	RECOG_CONF	n/a	LTP270	ltpFR	15	1	n/a	MAILMAN	858	1	n/a	n/a	0	0	0	n/a	n/a	n/a	n/a	n/a
3881594	RECOG_LURE	n/a	LTP270	ltpFR	15	1	n/a	ROOM	1206	4	n/a	n/a	0	0	0	n/a	n/a	n/a	n/a	n/a
3882387	RECOG_RESP_VV	n/a	LTP270	ltpFR	15	1	n/a	ROOM	1206	n/a	n/a	n/a	0	0	0	n/a	n/a	n/a	n/a	n/a
3883337	RECOG_RESP	n/a	LTP270	ltpFR	15	1	n/a	ROOM	1206	n/a	n/a	n/a	0	0	0	n/a	n/a	n/a	n/a	n/a
3883912	RECOG_CONF	n/a	LTP270	ltpFR	15	1	n/a	ROOM	1206	4	n/a	n/a	0	0	0	n/a	n/a	n/a	n/a	n/a
3885722	RECOG_LURE	n/a	LTP270	ltpFR	15	1	n/a	EAGLE	512	2	n/a	n/a	0	0	0	n/a	n/a	n/a	n/a	n/a
3886847	RECOG_RESP	n/a	LTP270	ltpFR	15	1	n/a	EAGLE	512	n/a	n/a	n/a	0	0	0	n/a	n/a	n/a	n/a	n/a
3887692	RECOG_CONF	n/a	LTP270	ltpFR	15	1	n/a	EAGLE	512	2	n/a	n/a	0	0	0	n/a	n/a	n/a	n/a	n/a
3889284	RECOG_LURE	n/a	LTP270	ltpFR	15	1	n/a	JOINT	758	1	n/a	n/a	0	0	0	n/a	n/a	n/a	n/a	n/a
3890907	RECOG_RESP	n/a	LTP270	ltpFR	15	1	n/a	JOINT	758	n/a	n/a	n/a	0	0	0	n/a	n/a	n/a	n/a	n/a
3891587	RECOG_CONF	n/a	LTP270	ltpFR	15	1	n/a	JOINT	758	1	n/a	n/a	0	0	0	n/a	n/a	n/a	n/a	n/a
3893144	RECOG_TARGET	n/a	LTP270	ltpFR	15	1	0	WAIST	1579	5	0	n/a	0	0	0	n/a	n/a	n/a	n/a	n/a
3893772	RECOG_RESP	n/a	LTP270	ltpFR	15	1	0	WAIST	1579	n/a	0	n/a	0	0	0	n/a	n/a	n/a	n/a	n/a
3894236	RECOG_CONF	n/a	LTP270	ltpFR	15	1	0	WAIST	1579	5	0	n/a	0	0	0	n/a	n/a	n/a	n/a	n/a
3897439	REC_START	n/a	LTP270	ltpFR	15	2	n/a	n/a	n/a	n/a	n/a	n/a	0	0	0	n/a	n/a	n/a	n/a	n/a
3897471	RECOG_LURE	n/a	LTP270	ltpFR	15	2	n/a	SUSPECT	1415	2	n/a	n/a	0	0	0	n/a	n/a	n/a	n/a	n/a
3898324	RECOG_RESP	n/a	LTP270	ltpFR	15	2	n/a	SUSPECT	1415	n/a	n/a	n/a	0	0	0	n/a	n/a	n/a	n/a	n/a
3898929	RECOG_CONF	n/a	LTP270	ltpFR	15	2	n/a	SUSPECT	1415	2	n/a	n/a	0	0	0	n/a	n/a	n/a	n/a	n/a
3900599	RECOG_TARGET	n/a	LTP270	ltpFR	15	2	0	BATTERY	101	5	0	n/a	0	0	0	n/a	n/a	n/a	n/a	n/a
3901279	RECOG_RESP	n/a	LTP270	ltpFR	15	2	0	BATTERY	101	n/a	0	n/a	0	0	0	n/a	n/a	n/a	n/a	n/a
3901759	RECOG_CONF	n/a	LTP270	ltpFR	15	2	0	BATTERY	101	5	0	n/a	0	0	0	n/a	n/a	n/a	n/a	n/a
3903412	RECOG_TARGET	n/a	LTP270	ltpFR	15	2	1	BEAST	108	5	0	n/a	0	0	0	n/a	n/a	n/a	n/a	n/a
3904024	RECOG_RESP	n/a	LTP270	ltpFR	15	2	1	BEAST	108	n/a	0	n/a	0	0	0	n/a	n/a	n/a	n/a	n/a
3904509	RECOG_CONF	n/a	LTP270	ltpFR	15	2	1	BEAST	108	5	0	n/a	0	0	0	n/a	n/a	n/a	n/a	n/a
3906092	RECOG_TARGET	n/a	LTP270	ltpFR	15	2	1	EDITOR	516	4	1	n/a	0	0	0	n/a	n/a	n/a	n/a	n/a
3906659	RECOG_RESP	n/a	LTP270	ltpFR	15	2	1	EDITOR	516	n/a	1	n/a	0	0	0	n/a	n/a	n/a	n/a	n/a
3907109	RECOG_CONF	n/a	LTP270	ltpFR	15	2	1	EDITOR	516	4	1	n/a	0	0	0	n/a	n/a	n/a	n/a	n/a
3908688	RECOG_TARGET	n/a	LTP270	ltpFR	15	2	0	REFEREE	1178	2	1	n/a	0	0	0	n/a	n/a	n/a	n/a	n/a
3909334	RECOG_RESP	n/a	LTP270	ltpFR	15	2	0	REFEREE	1178	n/a	1	n/a	0	0	0	n/a	n/a	n/a	n/a	n/a
3909809	RECOG_CONF	n/a	LTP270	ltpFR	15	2	0	REFEREE	1178	2	1	n/a	0	0	0	n/a	n/a	n/a	n/a	n/a
3911284	RECOG_LURE	n/a	LTP270	ltpFR	15	2	n/a	CONCERT	360	1	n/a	n/a	0	0	0	n/a	n/a	n/a	n/a	n/a
3911944	RECOG_RESP	n/a	LTP270	ltpFR	15	2	n/a	CONCERT	360	n/a	n/a	n/a	0	0	0	n/a	n/a	n/a	n/a	n/a
3912399	RECOG_CONF	n/a	LTP270	ltpFR	15	2	n/a	CONCERT	360	1	n/a	n/a	0	0	0	n/a	n/a	n/a	n/a	n/a
3914013	RECOG_TARGET	n/a	LTP270	ltpFR	15	2	1	BAIT	70	5	0	n/a	0	0	0	n/a	n/a	n/a	n/a	n/a
3914659	RECOG_RESP	n/a	LTP270	ltpFR	15	2	1	BAIT	70	n/a	0	n/a	0	0	0	n/a	n/a	n/a	n/a	n/a
3915069	RECOG_CONF	n/a	LTP270	ltpFR	15	2	1	BAIT	70	5	0	n/a	0	0	0	n/a	n/a	n/a	n/a	n/a
3916693	RECOG_LURE	n/a	LTP270	ltpFR	15	2	n/a	CIGARETTE	309	4	n/a	n/a	0	0	0	n/a	n/a	n/a	n/a	n/a
3917279	RECOG_RESP	n/a	LTP270	ltpFR	15	2	n/a	CIGARETTE	309	n/a	n/a	n/a	0	0	0	n/a	n/a	n/a	n/a	n/a
3917669	RECOG_CONF	n/a	LTP270	ltpFR	15	2	n/a	CIGARETTE	309	4	n/a	n/a	0	0	0	n/a	n/a	n/a	n/a	n/a
3919472	RECOG_TARGET	n/a	LTP270	ltpFR	15	2	1	PALM	1007	4	0	n/a	0	0	0	n/a	n/a	n/a	n/a	n/a
3920049	RECOG_RESP	n/a	LTP270	ltpFR	15	2	1	PALM	1007	n/a	0	n/a	0	0	0	n/a	n/a	n/a	n/a	n/a
3920469	RECOG_CONF	n/a	LTP270	ltpFR	15	2	1	PALM	1007	4	0	n/a	0	0	0	n/a	n/a	n/a	n/a	n/a
3922151	RECOG_TARGET	n/a	LTP270	ltpFR	15	2	0	MOAT	903	3	1	n/a	0	0	0	n/a	n/a	n/a	n/a	n/a
3923229	RECOG_RESP	n/a	LTP270	ltpFR	15	2	0	MOAT	903	n/a	1	n/a	0	0	0	n/a	n/a	n/a	n/a	n/a
3923729	RECOG_CONF	n/a	LTP270	ltpFR	15	2	0	MOAT	903	3	1	n/a	0	0	0	n/a	n/a	n/a	n/a	n/a
3925595	RECOG_TARGET	n/a	LTP270	ltpFR	15	2	1	SNORKEL	1336	2	0	n/a	0	0	0	n/a	n/a	n/a	n/a	n/a
3926304	RECOG_RESP	n/a	LTP270	ltpFR	15	2	1	SNORKEL	1336	n/a	0	n/a	0	0	0	n/a	n/a	n/a	n/a	n/a
3926709	RECOG_CONF	n/a	LTP270	ltpFR	15	2	1	SNORKEL	1336	2	0	n/a	0	0	0	n/a	n/a	n/a	n/a	n/a
3928475	RECOG_TARGET	n/a	LTP270	ltpFR	15	2	0	SPINE	1353	5	1	n/a	0	0	0	n/a	n/a	n/a	n/a	n/a
3929044	RECOG_RESP	n/a	LTP270	ltpFR	15	2	0	SPINE	1353	n/a	1	n/a	0	0	0	n/a	n/a	n/a	n/a	n/a
3929419	RECOG_CONF	n/a	LTP270	ltpFR	15	2	0	SPINE	1353	5	1	n/a	0	0	0	n/a	n/a	n/a	n/a	n/a
3931038	RECOG_TARGET	n/a	LTP270	ltpFR	15	2	0	CONTRACT	368	5	1	n/a	0	0	0	n/a	n/a	n/a	n/a	n/a
3931694	RECOG_RESP	n/a	LTP270	ltpFR	15	2	0	CONTRACT	368	n/a	1	n/a	0	0	0	n/a	n/a	n/a	n/a	n/a
3932059	RECOG_CONF	n/a	LTP270	ltpFR	15	2	0	CONTRACT	368	5	1	n/a	0	0	0	n/a	n/a	n/a	n/a	n/a
3933784	RECOG_TARGET	n/a	LTP270	ltpFR	15	2	0	SALIVA	1226	5	0	n/a	0	0	0	n/a	n/a	n/a	n/a	n/a
3934334	RECOG_RESP	n/a	LTP270	ltpFR	15	2	0	SALIVA	1226	n/a	0	n/a	0	0	0	n/a	n/a	n/a	n/a	n/a
3934739	RECOG_CONF	n/a	LTP270	ltpFR	15	2	0	SALIVA	1226	5	0	n/a	0	0	0	n/a	n/a	n/a	n/a	n/a
3936463	RECOG_TARGET	n/a	LTP270	ltpFR	15	2	1	BUNNY	198	4	1	n/a	0	0	0	n/a	n/a	n/a	n/a	n/a
3936964	RECOG_RESP	n/a	LTP270	ltpFR	15	2	1	BUNNY	198	n/a	1	n/a	0	0	0	n/a	n/a	n/a	n/a	n/a
3937379	RECOG_CONF	n/a	LTP270	ltpFR	15	2	1	BUNNY	198	4	1	n/a	0	0	0	n/a	n/a	n/a	n/a	n/a
3939009	RECOG_TARGET	n/a	LTP270	ltpFR	15	2	1	SUBWAY	1400	5	0	n/a	0	0	0	n/a	n/a	n/a	n/a	n/a
3939524	RECOG_RESP	n/a	LTP270	ltpFR	15	2	1	SUBWAY	1400	n/a	0	n/a	0	0	0	n/a	n/a	n/a	n/a	n/a
3939939	RECOG_CONF	n/a	LTP270	ltpFR	15	2	1	SUBWAY	1400	5	0	n/a	0	0	0	n/a	n/a	n/a	n/a	n/a
3941654	RECOG_LURE	n/a	LTP270	ltpFR	15	2	n/a	KETCHUP	771	1	n/a	n/a	0	0	0	n/a	n/a	n/a	n/a	n/a
3942124	RECOG_RESP	n/a	LTP270	ltpFR	15	2	n/a	KETCHUP	771	n/a	n/a	n/a	0	0	0	n/a	n/a	n/a	n/a	n/a
3942635	RECOG_CONF	n/a	LTP270	ltpFR	15	2	n/a	KETCHUP	771	1	n/a	n/a	0	0	0	n/a	n/a	n/a	n/a	n/a
3944368	RECOG_LURE	n/a	LTP270	ltpFR	15	2	n/a	POSSUM	1112	1	n/a	n/a	0	0	0	n/a	n/a	n/a	n/a	n/a
3944929	RECOG_RESP	n/a	LTP270	ltpFR	15	2	n/a	POSSUM	1112	n/a	n/a	n/a	0	0	0	n/a	n/a	n/a	n/a	n/a
3945343	RECOG_CONF	n/a	LTP270	ltpFR	15	2	n/a	POSSUM	1112	1	n/a	n/a	0	0	0	n/a	n/a	n/a	n/a	n/a
3947031	RECOG_TARGET	n/a	LTP270	ltpFR	15	2	0	SEAL	1262	2	1	n/a	0	0	0	n/a	n/a	n/a	n/a	n/a
3947624	RECOG_RESP	n/a	LTP270	ltpFR	15	2	0	SEAL	1262	n/a	1	n/a	0	0	0	n/a	n/a	n/a	n/a	n/a
3948059	RECOG_CONF	n/a	LTP270	ltpFR	15	2	0	SEAL	1262	2	1	n/a	0	0	0	n/a	n/a	n/a	n/a	n/a
3949727	RECOG_TARGET	n/a	LTP270	ltpFR	15	2	1	SUPERVISOR	1410	2	1	n/a	0	0	0	n/a	n/a	n/a	n/a	n/a
3950349	RECOG_RESP	n/a	LTP270	ltpFR	15	2	1	SUPERVISOR	1410	n/a	1	n/a	0	0	0	n/a	n/a	n/a	n/a	n/a
3950829	RECOG_CONF	n/a	LTP270	ltpFR	15	2	1	SUPERVISOR	1410	2	1	n/a	0	0	0	n/a	n/a	n/a	n/a	n/a
3953814	REC_START	n/a	LTP270	ltpFR	15	3	n/a	n/a	n/a	n/a	n/a	n/a	0	0	0	n/a	n/a	n/a	n/a	n/a
3953854	RECOG_LURE	n/a	LTP270	ltpFR	15	3	n/a	LAMB	797	3	n/a	n/a	0	0	0	n/a	n/a	n/a	n/a	n/a
3954744	RECOG_RESP	n/a	LTP270	ltpFR	15	3	n/a	LAMB	797	n/a	n/a	n/a	0	0	0	n/a	n/a	n/a	n/a	n/a
3955244	RECOG_CONF	n/a	LTP270	ltpFR	15	3	n/a	LAMB	797	3	n/a	n/a	0	0	0	n/a	n/a	n/a	n/a	n/a
3956916	RECOG_TARGET	n/a	LTP270	ltpFR	15	3	1	CARPET	247	1	0	n/a	0	0	0	n/a	n/a	n/a	n/a	n/a
3957504	RECOG_RESP	n/a	LTP270	ltpFR	15	3	1	CARPET	247	n/a	0	n/a	0	0	0	n/a	n/a	n/a	n/a	n/a
3957964	RECOG_CONF	n/a	LTP270	ltpFR	15	3	1	CARPET	247	1	0	n/a	0	0	0	n/a	n/a	n/a	n/a	n/a
