onset	duration	trial_type	sample	stim_file	subject	experiment	session	trial	item_name	item_num	list	answer	test_x	test_y	test_z
8.8427734375	n/a	SESS_START	18110	n/a	LTP367	ltpFR2	5	n/a	n/a	n/a	n/a	n/a	0	0	0
21.16943359375	n/a	START	43355	n/a	LTP367	ltpFR2	5	n/a	n/a	n/a	-1	n/a	n/a	n/a	n/a
21.18359375	n/a	PROB	43384	n/a	LTP367	ltpFR2	5	n/a	n/a	n/a	-1	12	6	4	2
22.98828125	n/a	PROB	47080	n/a	LTP367	ltpFR2	5	n/a	n/a	n/a	-1	12	2	8	2
24.41064453125	n/a	PROB	49993	n/a	LTP367	ltpFR2	5	n/a	n/a	n/a	-1	18	3	8	7
26.099609375	n/a	PROB	53452	n/a	LTP367	ltpFR2	5	n/a	n/a	n/a	-1	12	2	4	6
27.8701171875	n/a	PROB	57078	n/a	LTP367	ltpFR2	5	n/a	n/a	n/a	-1	12	6	4	2
29.025390625	n/a	PROB	59444	n/a	LTP367	ltpFR2	5	n/a	n/a	n/a	-1	14	2	8	4
33.16796875	n/a	STOP	67928	n/a	LTP367	ltpFR2	5	n/a	n/a	n/a	-1	n/a	n/a	n/a	n/a
59.740234375	n/a	WORD	122348	wordpools/wasnorm_wordpool_576.txt	LTP367	ltpFR2	5	1	TORTOISE	1486	n/a	n/a	0	0	0
62.33251953125	n/a	WORD	127657	wordpools/wasnorm_wordpool_576.txt	LTP367	ltpFR2	5	1	BELLY	119	n/a	n/a	0	0	0
65.07421875	n/a	WORD	133272	wordpools/wasnorm_wordpool_576.txt	LTP367	ltpFR2	5	1	STOMACH	1384	n/a	n/a	0	0	0
67.69921875	n/a	WORD	138648	wordpools/wasnorm_wordpool_576.txt	LTP367	ltpFR2	5	1	DRILL	497	n/a	n/a	0	0	0
70.44091796875	n/a	WORD	144263	wordpools/wasnorm_wordpool_576.txt	LTP367	ltpFR2	5	1	BANK	83	n/a	n/a	0	0	0
73.10009765625	n/a	WORD	149709	wordpools/wasnorm_wordpool_576.txt	LTP367	ltpFR2	5	1	PEACH	1031	n/a	n/a	0	0	0
75.541015625	n/a	WORD	154708	wordpools/wasnorm_wordpool_576.txt	LTP367	ltpFR2	5	1	PASTRY	1022	n/a	n/a	0	0	0
78.11572265625	n/a	WORD	159981	wordpools/wasnorm_wordpool_576.txt	LTP367	ltpFR2	5	1	BLOCKADE	137	n/a	n/a	0	0	0
80.60791015625	n/a	WORD	165085	wordpools/wasnorm_wordpool_576.txt	LTP367	ltpFR2	5	1	ACTRESS	6	n/a	n/a	0	0	0
83.349609375	n/a	WORD	170700	wordpools/wasnorm_wordpool_576.txt	LTP367	ltpFR2	5	1	MISSILE	900	n/a	n/a	0	0	0
85.95654296875	n/a	WORD	176039	wordpools/wasnorm_wordpool_576.txt	LTP367	ltpFR2	5	1	HIGHWAY	707	n/a	n/a	0	0	0
88.41552734375	n/a	WORD	181075	wordpools/wasnorm_wordpool_576.txt	LTP367	ltpFR2	5	1	OMELET	976	n/a	n/a	0	0	0
90.9736328125	n/a	WORD	186314	wordpools/wasnorm_wordpool_576.txt	LTP367	ltpFR2	5	1	DIVER	476	n/a	n/a	0	0	0
93.732421875	n/a	WORD	191964	wordpools/wasnorm_wordpool_576.txt	LTP367	ltpFR2	5	1	HEADBAND	696	n/a	n/a	0	0	0
96.37451171875	n/a	WORD	197375	wordpools/wasnorm_wordpool_576.txt	LTP367	ltpFR2	5	1	LUGGAGE	847	n/a	n/a	0	0	0
99.033203125	n/a	WORD	202820	wordpools/wasnorm_wordpool_576.txt	LTP367	ltpFR2	5	1	SALMON	1227	n/a	n/a	0	0	0
101.55810546875	n/a	WORD	207991	wordpools/wasnorm_wordpool_576.txt	LTP367	ltpFR2	5	1	CRAB	397	n/a	n/a	0	0	0
104.13330078125	n/a	WORD	213265	wordpools/wasnorm_wordpool_576.txt	LTP367	ltpFR2	5	1	BUNNY	198	n/a	n/a	0	0	0
106.6240234375	n/a	WORD	218366	wordpools/wasnorm_wordpool_576.txt	LTP367	ltpFR2	5	1	SIDEWALK	1303	n/a	n/a	0	0	0
109.1318359375	n/a	WORD	223502	wordpools/wasnorm_wordpool_576.txt	LTP367	ltpFR2	5	1	DRAGON	492	n/a	n/a	0	0	0
111.7236328125	n/a	WORD	228810	wordpools/wasnorm_wordpool_576.txt	LTP367	ltpFR2	5	1	GUITAR	670	n/a	n/a	0	0	0
114.4658203125	n/a	WORD	234426	wordpools/wasnorm_wordpool_576.txt	LTP367	ltpFR2	5	1	WORKER	1621	n/a	n/a	0	0	0
117.0576171875	n/a	WORD	239734	wordpools/wasnorm_wordpool_576.txt	LTP367	ltpFR2	5	1	SNAKE	1333	n/a	n/a	0	0	0
119.69970703125	n/a	WORD	245145	wordpools/wasnorm_wordpool_576.txt	LTP367	ltpFR2	5	1	COTTAGE	384	n/a	n/a	0	0	0
121.3046875	n/a	START	248432	n/a	LTP367	ltpFR2	5	n/a	n/a	n/a	1	n/a	n/a	n/a	n/a
122.349609375	n/a	DISTRACTOR	250572	n/a	LTP367	ltpFR2	5	1	n/a	n/a	n/a	n/a	0	0	0
122.357421875	n/a	PROB	250588	n/a	LTP367	ltpFR2	5	n/a	n/a	n/a	1	20	9	8	3
124.29736328125	n/a	PROB	254561	n/a	LTP367	ltpFR2	5	n/a	n/a	n/a	1	18	7	3	8
126.28759765625	n/a	PROB	258637	n/a	LTP367	ltpFR2	5	n/a	n/a	n/a	1	21	4	8	9
127.9755859375	n/a	PROB	262094	n/a	LTP367	ltpFR2	5	n/a	n/a	n/a	1	22	7	6	9
129.9814453125	n/a	PROB	266202	n/a	LTP367	ltpFR2	5	n/a	n/a	n/a	1	16	3	7	6
131.236328125	n/a	PROB	268772	n/a	LTP367	ltpFR2	5	n/a	n/a	n/a	1	19	6	9	4
132.6240234375	n/a	PROB	271614	n/a	LTP367	ltpFR2	5	n/a	n/a	n/a	1	12	7	1	4
134.36328125	n/a	PROB	275176	n/a	LTP367	ltpFR2	5	n/a	n/a	n/a	1	16	1	9	6
135.96728515625	n/a	PROB	278461	n/a	LTP367	ltpFR2	5	n/a	n/a	n/a	1	13	3	4	6
138.22509765625	n/a	PROB	283085	n/a	LTP367	ltpFR2	5	n/a	n/a	n/a	1	10	3	3	4
140.01513671875	n/a	PROB	286751	n/a	LTP367	ltpFR2	5	n/a	n/a	n/a	1	22	7	9	6
143.3759765625	n/a	PROB	293634	n/a	LTP367	ltpFR2	5	n/a	n/a	n/a	1	20	8	3	9
144.873046875	n/a	STOP	296700	n/a	LTP367	ltpFR2	5	n/a	n/a	n/a	1	n/a	n/a	n/a	n/a
147.0576171875	n/a	REC_START	301174	n/a	LTP367	ltpFR2	5	1	n/a	n/a	n/a	n/a	0	0	0
149.55078125	n/a	REC_WORD	306280	wordpools/wasnorm_wordpool_576.txt	LTP367	ltpFR2	5	1	TORTOISE	1486	n/a	n/a	0	0	0
151.298828125	n/a	REC_WORD	309860	wordpools/wasnorm_wordpool_576.txt	LTP367	ltpFR2	5	1	BELLY	119	n/a	n/a	0	0	0
152.24560546875	n/a	REC_WORD	311799	wordpools/wasnorm_wordpool_576.txt	LTP367	ltpFR2	5	1	STOMACH	1384	n/a	n/a	0	0	0
153.37939453125	n/a	REC_WORD	314121	wordpools/wasnorm_wordpool_576.txt	LTP367	ltpFR2	5	1	DRILL	497	n/a	n/a	0	0	0
154.42041015625	n/a	REC_WORD	316253	wordpools/wasnorm_wordpool_576.txt	LTP367	ltpFR2	5	1	PEACH	1031	n/a	n/a	0	0	0
155.41845703125	n/a	REC_WORD	318297	wordpools/wasnorm_wordpool_576.txt	LTP367	ltpFR2	5	1	PASTRY	1022	n/a	n/a	0	0	0
156.5537109375	n/a	REC_WORD	320622	wordpools/wasnorm_wordpool_576.txt	LTP367	ltpFR2	5	1	BANK	83	n/a	n/a	0	0	0
157.36669921875	n/a	REC_WORD	322287	wordpools/wasnorm_wordpool_576.txt	LTP367	ltpFR2	5	1	BLOCKADE	137	n/a	n/a	0	0	0
158.76025390625	n/a	REC_WORD	325141	wordpools/wasnorm_wordpool_576.txt	LTP367	ltpFR2	5	1	ACTRESS	6	n/a	n/a	0	0	0
160.107421875	n/a	REC_WORD	327900	wordpools/wasnorm_wordpool_576.txt	LTP367	ltpFR2	5	1	MISSILE	900	n/a	n/a	0	0	0
162.18212890625	n/a	REC_WORD	332149	wordpools/wasnorm_wordpool_576.txt	LTP367	ltpFR2	5	1	HIGHWAY	707	n/a	n/a	0	0	0
163.14208984375	n/a	REC_WORD	334115	wordpools/wasnorm_wordpool_576.txt	LTP367	ltpFR2	5	1	DIVER	476	n/a	n/a	0	0	0
164.46630859375	n/a	REC_WORD	336827	wordpools/wasnorm_wordpool_576.txt	LTP367	ltpFR2	5	1	OMELET	976	n/a	n/a	0	0	0
165.71142578125	n/a	REC_WORD	339377	wordpools/wasnorm_wordpool_576.txt	LTP367	ltpFR2	5	1	HEADBAND	696	n/a	n/a	0	0	0
168.2919921875	n/a	REC_WORD	344662	wordpools/wasnorm_wordpool_576.txt	LTP367	ltpFR2	5	1	SALMON	1227	n/a	n/a	0	0	0
169.50830078125	n/a	REC_WORD	347153	wordpools/wasnorm_wordpool_576.txt	LTP367	ltpFR2	5	1	RABBIT	1152	n/a	n/a	0	0	0
170.6650390625	n/a	REC_WORD	349522	wordpools/wasnorm_wordpool_576.txt	LTP367	ltpFR2	5	1	CRAB	397	n/a	n/a	0	0	0
171.64306640625	n/a	REC_WORD	351525	wordpools/wasnorm_wordpool_576.txt	LTP367	ltpFR2	5	1	DRAGON	492	n/a	n/a	0	0	0
172.5830078125	n/a	REC_WORD	353450	wordpools/wasnorm_wordpool_576.txt	LTP367	ltpFR2	5	1	GUITAR	670	n/a	n/a	0	0	0
173.51904296875	n/a	REC_WORD	355367	wordpools/wasnorm_wordpool_576.txt	LTP367	ltpFR2	5	1	SNAKE	1333	n/a	n/a	0	0	0
174.67919921875	n/a	REC_WORD	357743	wordpools/wasnorm_wordpool_576.txt	LTP367	ltpFR2	5	1	WORKER	1621	n/a	n/a	0	0	0
175.64697265625	n/a	REC_WORD	359725	wordpools/wasnorm_wordpool_576.txt	LTP367	ltpFR2	5	1	COTTAGE	384	n/a	n/a	0	0	0
185.1826171875	n/a	REC_WORD	379254	wordpools/wasnorm_wordpool_576.txt	LTP367	ltpFR2	5	1	SIDEWALK	1303	n/a	n/a	0	0	0
237.51123046875	n/a	WORD	486423	wordpools/wasnorm_wordpool_576.txt	LTP367	ltpFR2	5	2	FIREMAN	569	n/a	n/a	0	0	0
239.98388671875	n/a	WORD	491487	wordpools/wasnorm_wordpool_576.txt	LTP367	ltpFR2	5	2	GLASS	639	n/a	n/a	0	0	0
242.4599609375	n/a	WORD	496558	wordpools/wasnorm_wordpool_576.txt	LTP367	ltpFR2	5	2	MILDEW	893	n/a	n/a	0	0	0
245.251953125	n/a	WORD	502276	wordpools/wasnorm_wordpool_576.txt	LTP367	ltpFR2	5	2	NEUTRON	947	n/a	n/a	0	0	0
247.74365234375	n/a	WORD	507379	wordpools/wasnorm_wordpool_576.txt	LTP367	ltpFR2	5	2	BROOK	177	n/a	n/a	0	0	0
250.5029296875	n/a	WORD	513030	wordpools/wasnorm_wordpool_576.txt	LTP367	ltpFR2	5	2	JEANS	752	n/a	n/a	0	0	0
252.99267578125	n/a	WORD	518129	wordpools/wasnorm_wordpool_576.txt	LTP367	ltpFR2	5	2	SADDLE	1221	n/a	n/a	0	0	0
255.7197265625	n/a	WORD	523714	wordpools/wasnorm_wordpool_576.txt	LTP367	ltpFR2	5	2	PEDAL	1037	n/a	n/a	0	0	0
258.41162109375	n/a	WORD	529227	wordpools/wasnorm_wordpool_576.txt	LTP367	ltpFR2	5	2	BIKE	125	n/a	n/a	0	0	0
261.00244140625	n/a	WORD	534533	wordpools/wasnorm_wordpool_576.txt	LTP367	ltpFR2	5	2	CROSS	413	n/a	n/a	0	0	0
263.42724609375	n/a	WORD	539499	wordpools/wasnorm_wordpool_576.txt	LTP367	ltpFR2	5	2	SEAL	1262	n/a	n/a	0	0	0
266.13720703125	n/a	WORD	545049	wordpools/wasnorm_wordpool_576.txt	LTP367	ltpFR2	5	2	PROTON	1132	n/a	n/a	0	0	0
268.89404296875	n/a	WORD	550695	wordpools/wasnorm_wordpool_576.txt	LTP367	ltpFR2	5	2	MAILMAN	858	n/a	n/a	0	0	0
271.453125	n/a	WORD	555936	wordpools/wasnorm_wordpool_576.txt	LTP367	ltpFR2	5	2	CARRIAGE	248	n/a	n/a	0	0	0
274.2451171875	n/a	WORD	561654	wordpools/wasnorm_wordpool_576.txt	LTP367	ltpFR2	5	2	PIMPLE	1071	n/a	n/a	0	0	0
276.93603515625	n/a	WORD	567165	wordpools/wasnorm_wordpool_576.txt	LTP367	ltpFR2	5	2	FOREHEAD	592	n/a	n/a	0	0	0
279.4619140625	n/a	WORD	572338	wordpools/wasnorm_wordpool_576.txt	LTP367	ltpFR2	5	2	SHORTS	1293	n/a	n/a	0	0	0
281.9189453125	n/a	WORD	577370	wordpools/wasnorm_wordpool_576.txt	LTP367	ltpFR2	5	2	MARSH	874	n/a	n/a	0	0	0
284.51171875	n/a	WORD	582680	wordpools/wasnorm_wordpool_576.txt	LTP367	ltpFR2	5	2	TOASTER	1472	n/a	n/a	0	0	0
287.00244140625	n/a	WORD	587781	wordpools/wasnorm_wordpool_576.txt	LTP367	ltpFR2	5	2	TABLE	1426	n/a	n/a	0	0	0
289.6787109375	n/a	WORD	593262	wordpools/wasnorm_wordpool_576.txt	LTP367	ltpFR2	5	2	TEACHER	1440	n/a	n/a	0	0	0
292.470703125	n/a	WORD	598980	wordpools/wasnorm_wordpool_576.txt	LTP367	ltpFR2	5	2	COLLEGE	346	n/a	n/a	0	0	0
294.91015625	n/a	WORD	603976	wordpools/wasnorm_wordpool_576.txt	LTP367	ltpFR2	5	2	NURSE	963	n/a	n/a	0	0	0
297.453125	n/a	WORD	609184	wordpools/wasnorm_wordpool_576.txt	LTP367	ltpFR2	5	2	CABIN	211	n/a	n/a	0	0	0
299.05810546875	n/a	START	612471	n/a	LTP367	ltpFR2	5	n/a	n/a	n/a	2	n/a	n/a	n/a	n/a
300.21923828125	n/a	DISTRACTOR	614849	n/a	LTP367	ltpFR2	5	2	n/a	n/a	n/a	n/a	0	0	0
300.22900390625	n/a	PROB	614869	n/a	LTP367	ltpFR2	5	n/a	n/a	n/a	2	18	5	9	4
302.3349609375	n/a	PROB	619182	n/a	LTP367	ltpFR2	5	n/a	n/a	n/a	2	11	3	7	1
303.75634765625	n/a	PROB	622093	n/a	LTP367	ltpFR2	5	n/a	n/a	n/a	2	12	7	1	4
305.2451171875	n/a	PROB	625142	n/a	LTP367	ltpFR2	5	n/a	n/a	n/a	2	19	4	6	9
306.58203125	n/a	PROB	627880	n/a	LTP367	ltpFR2	5	n/a	n/a	n/a	2	15	8	3	4
308.25390625	n/a	PROB	631304	n/a	LTP367	ltpFR2	5	n/a	n/a	n/a	2	14	5	8	1
310.4951171875	n/a	PROB	635894	n/a	LTP367	ltpFR2	5	n/a	n/a	n/a	2	7	2	1	4
312.6689453125	n/a	PROB	640346	n/a	LTP367	ltpFR2	5	n/a	n/a	n/a	2	13	6	2	5
315.52783203125	n/a	PROB	646201	n/a	LTP367	ltpFR2	5	n/a	n/a	n/a	2	16	6	6	4
316.7978515625	n/a	PROB	648802	n/a	LTP367	ltpFR2	5	n/a	n/a	n/a	2	9	1	2	6
317.98486328125	n/a	PROB	651233	n/a	LTP367	ltpFR2	5	n/a	n/a	n/a	2	10	2	2	6
319.28955078125	n/a	PROB	653905	n/a	LTP367	ltpFR2	5	n/a	n/a	n/a	2	18	7	3	8
320.49365234375	n/a	PROB	656371	n/a	LTP367	ltpFR2	5	n/a	n/a	n/a	2	6	1	2	3
322.12158203125	n/a	STOP	659705	n/a	LTP367	ltpFR2	5	n/a	n/a	n/a	2	n/a	n/a	n/a	n/a
324.90771484375	n/a	REC_START	665411	n/a	LTP367	ltpFR2	5	2	n/a	n/a	n/a	n/a	0	0	0
326.04638671875	n/a	REC_WORD	667743	wordpools/wasnorm_wordpool_576.txt	LTP367	ltpFR2	5	2	FIREMAN	569	n/a	n/a	0	0	0
327.767578125	n/a	REC_WORD	671268	wordpools/wasnorm_wordpool_576.txt	LTP367	ltpFR2	5	2	GLASS	639	n/a	n/a	0	0	0
329.09130859375	n/a	REC_WORD	673979	wordpools/wasnorm_wordpool_576.txt	LTP367	ltpFR2	5	2	MILDEW	893	n/a	n/a	0	0	0
331.32421875	n/a	REC_WORD	678552	wordpools/wasnorm_wordpool_576.txt	LTP367	ltpFR2	5	2	BROOK	177	n/a	n/a	0	0	0
332.7021484375	n/a	REC_WORD	681374	wordpools/wasnorm_wordpool_576.txt	LTP367	ltpFR2	5	2	NEUTRON	947	n/a	n/a	0	0	0
336.46533203125	n/a	REC_WORD	689081	wordpools/wasnorm_wordpool_576.txt	LTP367	ltpFR2	5	2	JEANS	752	n/a	n/a	0	0	0
337.7822265625	n/a	REC_WORD	691778	wordpools/wasnorm_wordpool_576.txt	LTP367	ltpFR2	5	2	PEDAL	1037	n/a	n/a	0	0	0
339.09619140625	n/a	REC_WORD	694469	wordpools/wasnorm_wordpool_576.txt	LTP367	ltpFR2	5	2	SADDLE	1221	n/a	n/a	0	0	0
340.56884765625	n/a	REC_WORD	697485	wordpools/wasnorm_wordpool_576.txt	LTP367	ltpFR2	5	2	NEUTRON	947	n/a	n/a	0	0	0
342.3837890625	n/a	REC_WORD	701202	wordpools/wasnorm_wordpool_576.txt	LTP367	ltpFR2	5	2	SEAL	1262	n/a	n/a	0	0	0
342.4228515625	n/a	REC_WORD	701282	wordpools/wasnorm_wordpool_576.txt	LTP367	ltpFR2	5	2	SEAL	1262	n/a	n/a	0	0	0
344.05810546875	n/a	REC_WORD	704631	wordpools/wasnorm_wordpool_576.txt	LTP367	ltpFR2	5	2	BIKE	125	n/a	n/a	0	0	0
347.5478515625	n/a	REC_WORD	711778	wordpools/wasnorm_wordpool_576.txt	LTP367	ltpFR2	5	2	CARRIAGE	248	n/a	n/a	0	0	0
348.8916015625	n/a	REC_WORD	714530	wordpools/wasnorm_wordpool_576.txt	LTP367	ltpFR2	5	2	MAID	856	n/a	n/a	0	0	0
350.177734375	n/a	REC_WORD	717164	wordpools/wasnorm_wordpool_576.txt	LTP367	ltpFR2	5	2	SHORTS	1293	n/a	n/a	0	0	0
351.3857421875	n/a	REC_WORD	719638	wordpools/wasnorm_wordpool_576.txt	LTP367	ltpFR2	5	2	FOREHEAD	592	n/a	n/a	0	0	0
352.90380859375	n/a	REC_WORD	722747	wordpools/wasnorm_wordpool_576.txt	LTP367	ltpFR2	5	2	PIMPLE	1071	n/a	n/a	0	0	0
357.396484375	n/a	REC_WORD	731948	wordpools/wasnorm_wordpool_576.txt	LTP367	ltpFR2	5	2	MARSH	874	n/a	n/a	0	0	0
358.86865234375	n/a	REC_WORD	734963	wordpools/wasnorm_wordpool_576.txt	LTP367	ltpFR2	5	2	TABLE	1426	n/a	n/a	0	0	0
360.21044921875	n/a	REC_WORD	737711	wordpools/wasnorm_wordpool_576.txt	LTP367	ltpFR2	5	2	TOASTER	1472	n/a	n/a	0	0	0
363.34423828125	n/a	REC_WORD	744129	wordpools/wasnorm_wordpool_576.txt	LTP367	ltpFR2	5	2	CABIN	211	n/a	n/a	0	0	0
366.63232421875	n/a	REC_WORD	750863	wordpools/wasnorm_wordpool_576.txt	LTP367	ltpFR2	5	2	COLLEGE	346	n/a	n/a	0	0	0
368.1083984375	n/a	REC_WORD	753886	wordpools/wasnorm_wordpool_576.txt	LTP367	ltpFR2	5	2	TEACHER	1440	n/a	n/a	0	0	0
369.39697265625	n/a	REC_WORD	756525	wordpools/wasnorm_wordpool_576.txt	LTP367	ltpFR2	5	2	NURSE	963	n/a	n/a	0	0	0
415.34765625	n/a	DISTRACTOR	850632	n/a	LTP367	ltpFR2	5	3	n/a	n/a	n/a	n/a	0	0	0
415.34765625	n/a	START	850632	n/a	LTP367	ltpFR2	5	n/a	n/a	n/a	3	n/a	n/a	n/a	n/a
415.36474609375	n/a	PROB	850667	n/a	LTP367	ltpFR2	5	n/a	n/a	n/a	3	23	7	9	7
417.5546875	n/a	PROB	855152	n/a	LTP367	ltpFR2	5	n/a	n/a	n/a	3	15	4	2	9
420.23046875	n/a	PROB	860632	n/a	LTP367	ltpFR2	5	n/a	n/a	n/a	3	18	1	9	8
421.884765625	n/a	PROB	864020	n/a	LTP367	ltpFR2	5	n/a	n/a	n/a	3	20	7	4	9
423.357421875	n/a	PROB	867036	n/a	LTP367	ltpFR2	5	n/a	n/a	n/a	3	15	2	4	9
424.927734375	n/a	PROB	870252	n/a	LTP367	ltpFR2	5	n/a	n/a	n/a	3	15	4	5	6
426.45068359375	n/a	PROB	873371	n/a	LTP367	ltpFR2	5	n/a	n/a	n/a	3	10	2	3	5
427.7216796875	n/a	PROB	875974	n/a	LTP367	ltpFR2	5	n/a	n/a	n/a	3	18	8	7	3
429.20947265625	n/a	PROB	879021	n/a	LTP367	ltpFR2	5	n/a	n/a	n/a	3	21	9	9	2
431.232421875	n/a	PROB	883164	n/a	LTP367	ltpFR2	5	n/a	n/a	n/a	3	17	3	6	8
435.412109375	n/a	PROB	891724	n/a	LTP367	ltpFR2	5	n/a	n/a	n/a	3	11	3	2	6
437.01708984375	n/a	PROB	895011	n/a	LTP367	ltpFR2	5	n/a	n/a	n/a	3	20	6	5	9
438.953125	n/a	STOP	898976	n/a	LTP367	ltpFR2	5	n/a	n/a	n/a	3	n/a	n/a	n/a	n/a
440.31103515625	n/a	WORD	901757	wordpools/wasnorm_wordpool_576.txt	LTP367	ltpFR2	5	3	SWITCH	1422	n/a	n/a	0	0	0
442.96875	n/a	WORD	907200	wordpools/wasnorm_wordpool_576.txt	LTP367	ltpFR2	5	3	RECEIPT	1173	n/a	n/a	0	0	0
445.39501953125	n/a	WORD	912169	wordpools/wasnorm_wordpool_576.txt	LTP367	ltpFR2	5	3	PILOT	1070	n/a	n/a	0	0	0
447.8349609375	n/a	WORD	917166	wordpools/wasnorm_wordpool_576.txt	LTP367	ltpFR2	5	3	DENTIST	447	n/a	n/a	0	0	0
450.376953125	n/a	WORD	922372	wordpools/wasnorm_wordpool_576.txt	LTP367	ltpFR2	5	3	PERMIT	1051	n/a	n/a	0	0	0
452.86767578125	n/a	WORD	927473	wordpools/wasnorm_wordpool_576.txt	LTP367	ltpFR2	5	3	MONSTER	912	n/a	n/a	0	0	0
455.32666015625	n/a	WORD	932509	wordpools/wasnorm_wordpool_576.txt	LTP367	ltpFR2	5	3	BEAST	108	n/a	n/a	0	0	0
458.0517578125	n/a	WORD	938090	wordpools/wasnorm_wordpool_576.txt	LTP367	ltpFR2	5	3	WAITER	1580	n/a	n/a	0	0	0
460.76025390625	n/a	WORD	943637	wordpools/wasnorm_wordpool_576.txt	LTP367	ltpFR2	5	3	BANQUET	86	n/a	n/a	0	0	0
463.40234375	n/a	WORD	949048	wordpools/wasnorm_wordpool_576.txt	LTP367	ltpFR2	5	3	WINDOW	1611	n/a	n/a	0	0	0
466.0771484375	n/a	WORD	954526	wordpools/wasnorm_wordpool_576.txt	LTP367	ltpFR2	5	3	LONDON	843	n/a	n/a	0	0	0
468.53515625	n/a	WORD	959560	wordpools/wasnorm_wordpool_576.txt	LTP367	ltpFR2	5	3	ROBBER	1197	n/a	n/a	0	0	0
471.1103515625	n/a	WORD	964834	wordpools/wasnorm_wordpool_576.txt	LTP367	ltpFR2	5	3	FRUIT	610	n/a	n/a	0	0	0
473.80126953125	n/a	WORD	970345	wordpools/wasnorm_wordpool_576.txt	LTP367	ltpFR2	5	3	COOK	372	n/a	n/a	0	0	0
476.44384765625	n/a	WORD	975757	wordpools/wasnorm_wordpool_576.txt	LTP367	ltpFR2	5	3	SERVANT	1271	n/a	n/a	0	0	0
479.0859375	n/a	WORD	981168	wordpools/wasnorm_wordpool_576.txt	LTP367	ltpFR2	5	3	CLIMBER	323	n/a	n/a	0	0	0
481.7109375	n/a	WORD	986544	wordpools/wasnorm_wordpool_576.txt	LTP367	ltpFR2	5	3	WITNESS	1618	n/a	n/a	0	0	0
484.1357421875	n/a	WORD	991510	wordpools/wasnorm_wordpool_576.txt	LTP367	ltpFR2	5	3	JUDGE	761	n/a	n/a	0	0	0
486.87646484375	n/a	WORD	997123	wordpools/wasnorm_wordpool_576.txt	LTP367	ltpFR2	5	3	ANTLER	29	n/a	n/a	0	0	0
489.3017578125	n/a	WORD	1002090	wordpools/wasnorm_wordpool_576.txt	LTP367	ltpFR2	5	3	BRAKE	166	n/a	n/a	0	0	0
491.892578125	n/a	WORD	1007396	wordpools/wasnorm_wordpool_576.txt	LTP367	ltpFR2	5	3	CURTAIN	427	n/a	n/a	0	0	0
494.70263671875	n/a	WORD	1013151	wordpools/wasnorm_wordpool_576.txt	LTP367	ltpFR2	5	3	STATUE	1374	n/a	n/a	0	0	0
497.3271484375	n/a	WORD	1018526	wordpools/wasnorm_wordpool_576.txt	LTP367	ltpFR2	5	3	DONKEY	484	n/a	n/a	0	0	0
499.9013671875	n/a	WORD	1023798	wordpools/wasnorm_wordpool_576.txt	LTP367	ltpFR2	5	3	FEMALE	559	n/a	n/a	0	0	0
501.50830078125	n/a	START	1027089	n/a	LTP367	ltpFR2	5	n/a	n/a	n/a	4	n/a	n/a	n/a	n/a
502.4443359375	n/a	DISTRACTOR	1029006	n/a	LTP367	ltpFR2	5	3	n/a	n/a	n/a	n/a	0	0	0
502.46142578125	n/a	PROB	1029041	n/a	LTP367	ltpFR2	5	n/a	n/a	n/a	4	9	7	1	1
504.35009765625	n/a	PROB	1032909	n/a	LTP367	ltpFR2	5	n/a	n/a	n/a	4	9	3	4	2
506.85693359375	n/a	PROB	1038043	n/a	LTP367	ltpFR2	5	n/a	n/a	n/a	4	12	3	8	1
508.34619140625	n/a	PROB	1041093	n/a	LTP367	ltpFR2	5	n/a	n/a	n/a	4	20	8	3	9
512.14208984375	n/a	PROB	1048867	n/a	LTP367	ltpFR2	5	n/a	n/a	n/a	4	11	2	8	1
513.6298828125	n/a	PROB	1051914	n/a	LTP367	ltpFR2	5	n/a	n/a	n/a	4	18	8	4	6
514.9326171875	n/a	PROB	1054582	n/a	LTP367	ltpFR2	5	n/a	n/a	n/a	4	12	7	2	3
516.5556640625	n/a	PROB	1057906	n/a	LTP367	ltpFR2	5	n/a	n/a	n/a	4	13	4	7	2
519.08056640625	n/a	PROB	1063077	n/a	LTP367	ltpFR2	5	n/a	n/a	n/a	4	20	9	5	6
521.45458984375	n/a	PROB	1067939	n/a	LTP367	ltpFR2	5	n/a	n/a	n/a	4	22	8	9	5
524.24169921875	n/a	STOP	1073647	n/a	LTP367	ltpFR2	5	n/a	n/a	n/a	4	n/a	n/a	n/a	n/a
527.40869140625	n/a	REC_START	1080133	n/a	LTP367	ltpFR2	5	3	n/a	n/a	n/a	n/a	0	0	0
530.75439453125	n/a	REC_WORD	1086985	wordpools/wasnorm_wordpool_576.txt	LTP367	ltpFR2	5	3	SWITCH	1422	n/a	n/a	0	0	0
532.1572265625	n/a	REC_WORD	1089858	wordpools/wasnorm_wordpool_576.txt	LTP367	ltpFR2	5	3	RECEIPT	1173	n/a	n/a	0	0	0
533.30517578125	n/a	REC_WORD	1092209	wordpools/wasnorm_wordpool_576.txt	LTP367	ltpFR2	5	3	PILOT	1070	n/a	n/a	0	0	0
534.37646484375	n/a	REC_WORD	1094403	wordpools/wasnorm_wordpool_576.txt	LTP367	ltpFR2	5	3	DENTIST	447	n/a	n/a	0	0	0
535.3642578125	n/a	REC_WORD	1096426	wordpools/wasnorm_wordpool_576.txt	LTP367	ltpFR2	5	3	PERMIT	1051	n/a	n/a	0	0	0
536.38525390625	n/a	REC_WORD	1098517	wordpools/wasnorm_wordpool_576.txt	LTP367	ltpFR2	5	3	MONSTER	912	n/a	n/a	0	0	0
537.56005859375	n/a	REC_WORD	1100923	wordpools/wasnorm_wordpool_576.txt	LTP367	ltpFR2	5	3	BEAST	108	n/a	n/a	0	0	0
538.71630859375	n/a	REC_WORD	1103291	wordpools/wasnorm_wordpool_576.txt	LTP367	ltpFR2	5	3	BANQUET	86	n/a	n/a	0	0	0
539.9052734375	n/a	REC_WORD	1105726	wordpools/wasnorm_wordpool_576.txt	LTP367	ltpFR2	5	3	WINDOW	1611	n/a	n/a	0	0	0
541.48291015625	n/a	REC_WORD	1108957	wordpools/wasnorm_wordpool_576.txt	LTP367	ltpFR2	5	3	WAITER	1580	n/a	n/a	0	0	0
545.5537109375	n/a	REC_WORD	1117294	wordpools/wasnorm_wordpool_576.txt	LTP367	ltpFR2	5	3	ROBBER	1197	n/a	n/a	0	0	0
546.71875	n/a	REC_WORD	1119680	wordpools/wasnorm_wordpool_576.txt	LTP367	ltpFR2	5	3	COOK	372	n/a	n/a	0	0	0
549.36669921875	n/a	REC_WORD	1125103	wordpools/wasnorm_wordpool_576.txt	LTP367	ltpFR2	5	3	FRUIT	610	n/a	n/a	0	0	0
550.74365234375	n/a	REC_WORD	1127923	wordpools/wasnorm_wordpool_576.txt	LTP367	ltpFR2	5	3	SERVANT	1271	n/a	n/a	0	0	0
552.2705078125	n/a	REC_WORD	1131050	wordpools/wasnorm_wordpool_576.txt	LTP367	ltpFR2	5	3	CLIMBER	323	n/a	n/a	0	0	0
554.59375	n/a	REC_WORD	1135808	wordpools/wasnorm_wordpool_576.txt	LTP367	ltpFR2	5	3	WITNESS	1618	n/a	n/a	0	0	0
555.95263671875	n/a	REC_WORD	1138591	wordpools/wasnorm_wordpool_576.txt	LTP367	ltpFR2	5	3	JUDGE	761	n/a	n/a	0	0	0
557.21337890625	n/a	REC_WORD	1141173	wordpools/wasnorm_wordpool_576.txt	LTP367	ltpFR2	5	3	ANTLER	29	n/a	n/a	0	0	0
558.29541015625	n/a	REC_WORD	1143389	wordpools/wasnorm_wordpool_576.txt	LTP367	ltpFR2	5	3	CURTAIN	427	n/a	n/a	0	0	0
559.66357421875	n/a	REC_WORD	1146191	wordpools/wasnorm_wordpool_576.txt	LTP367	ltpFR2	5	3	STATUE	1374	n/a	n/a	0	0	0
560.90234375	n/a	REC_WORD	1148728	wordpools/wasnorm_wordpool_576.txt	LTP367	ltpFR2	5	3	DONKEY	484	n/a	n/a	0	0	0
561.96630859375	n/a	REC_WORD	1150907	wordpools/wasnorm_wordpool_576.txt	LTP367	ltpFR2	5	3	FEMALE	559	n/a	n/a	0	0	0
581.56396484375	n/a	REC_WORD	1191043	wordpools/wasnorm_wordpool_576.txt	LTP367	ltpFR2	5	3	LONDON	843	n/a	n/a	0	0	0
617.8466796875	n/a	DISTRACTOR	1265350	n/a	LTP367	ltpFR2	5	4	n/a	n/a	n/a	n/a	0	0	0
617.8466796875	n/a	START	1265350	n/a	LTP367	ltpFR2	5	n/a	n/a	n/a	5	n/a	n/a	n/a	n/a
617.86376953125	n/a	PROB	1265385	n/a	LTP367	ltpFR2	5	n/a	n/a	n/a	5	9	1	5	3
620.15478515625	n/a	PROB	1270077	n/a	LTP367	ltpFR2	5	n/a	n/a	n/a	5	20	8	9	3
622.24560546875	n/a	PROB	1274359	n/a	LTP367	ltpFR2	5	n/a	n/a	n/a	5	19	7	4	8
624.7197265625	n/a	PROB	1279426	n/a	LTP367	ltpFR2	5	n/a	n/a	n/a	5	11	5	1	5
625.85546875	n/a	PROB	1281752	n/a	LTP367	ltpFR2	5	n/a	n/a	n/a	5	13	7	5	1
627.57861328125	n/a	PROB	1285281	n/a	LTP367	ltpFR2	5	n/a	n/a	n/a	5	18	7	7	4
629.234375	n/a	PROB	1288672	n/a	LTP367	ltpFR2	5	n/a	n/a	n/a	5	17	1	9	7
630.9384765625	n/a	PROB	1292162	n/a	LTP367	ltpFR2	5	n/a	n/a	n/a	5	18	6	6	6
632.7451171875	n/a	PROB	1295862	n/a	LTP367	ltpFR2	5	n/a	n/a	n/a	5	9	1	4	4
634.2333984375	n/a	PROB	1298910	n/a	LTP367	ltpFR2	5	n/a	n/a	n/a	5	10	7	1	2
635.60546875	n/a	PROB	1301720	n/a	LTP367	ltpFR2	5	n/a	n/a	n/a	5	12	1	7	4
636.8583984375	n/a	PROB	1304286	n/a	LTP367	ltpFR2	5	n/a	n/a	n/a	5	13	1	3	9
641.84130859375	n/a	STOP	1314491	n/a	LTP367	ltpFR2	5	n/a	n/a	n/a	5	n/a	n/a	n/a	n/a
642.85986328125	n/a	WORD	1316577	wordpools/wasnorm_wordpool_576.txt	LTP367	ltpFR2	5	4	CLAMP	316	n/a	n/a	0	0	0
645.453125	n/a	WORD	1321888	wordpools/wasnorm_wordpool_576.txt	LTP367	ltpFR2	5	4	APPLE	33	n/a	n/a	0	0	0
648.0947265625	n/a	WORD	1327298	wordpools/wasnorm_wordpool_576.txt	LTP367	ltpFR2	5	4	JOURNAL	760	n/a	n/a	0	0	0
650.56982421875	n/a	WORD	1332367	wordpools/wasnorm_wordpool_576.txt	LTP367	ltpFR2	5	4	MARINE	869	n/a	n/a	0	0	0
653.27783203125	n/a	WORD	1337913	wordpools/wasnorm_wordpool_576.txt	LTP367	ltpFR2	5	4	PAIL	1002	n/a	n/a	0	0	0
656.00341796875	n/a	WORD	1343495	wordpools/wasnorm_wordpool_576.txt	LTP367	ltpFR2	5	4	MOTEL	919	n/a	n/a	0	0	0
658.66162109375	n/a	WORD	1348939	wordpools/wasnorm_wordpool_576.txt	LTP367	ltpFR2	5	4	NOVEL	960	n/a	n/a	0	0	0
661.42041015625	n/a	WORD	1354589	wordpools/wasnorm_wordpool_576.txt	LTP367	ltpFR2	5	4	FRIEND	606	n/a	n/a	0	0	0
663.89453125	n/a	WORD	1359656	wordpools/wasnorm_wordpool_576.txt	LTP367	ltpFR2	5	4	PORTRAIT	1111	n/a	n/a	0	0	0
666.4033203125	n/a	WORD	1364794	wordpools/wasnorm_wordpool_576.txt	LTP367	ltpFR2	5	4	TEMPLE	1448	n/a	n/a	0	0	0
668.89404296875	n/a	WORD	1369895	wordpools/wasnorm_wordpool_576.txt	LTP367	ltpFR2	5	4	IDOL	733	n/a	n/a	0	0	0
671.7041015625	n/a	WORD	1375650	wordpools/wasnorm_wordpool_576.txt	LTP367	ltpFR2	5	4	HELMET	702	n/a	n/a	0	0	0
674.26220703125	n/a	WORD	1380889	wordpools/wasnorm_wordpool_576.txt	LTP367	ltpFR2	5	4	RUST	1219	n/a	n/a	0	0	0
676.669921875	n/a	WORD	1385820	wordpools/wasnorm_wordpool_576.txt	LTP367	ltpFR2	5	4	CASKET	255	n/a	n/a	0	0	0
679.14404296875	n/a	WORD	1390887	wordpools/wasnorm_wordpool_576.txt	LTP367	ltpFR2	5	4	GRAVE	658	n/a	n/a	0	0	0
681.85205078125	n/a	WORD	1396433	wordpools/wasnorm_wordpool_576.txt	LTP367	ltpFR2	5	4	LEADER	807	n/a	n/a	0	0	0
684.52880859375	n/a	WORD	1401915	wordpools/wasnorm_wordpool_576.txt	LTP367	ltpFR2	5	4	STREAM	1392	n/a	n/a	0	0	0
687.220703125	n/a	WORD	1407428	wordpools/wasnorm_wordpool_576.txt	LTP367	ltpFR2	5	4	DASHBOARD	441	n/a	n/a	0	0	0
689.89453125	n/a	WORD	1412904	wordpools/wasnorm_wordpool_576.txt	LTP367	ltpFR2	5	4	BOYFRIEND	162	n/a	n/a	0	0	0
692.57080078125	n/a	WORD	1418385	wordpools/wasnorm_wordpool_576.txt	LTP367	ltpFR2	5	4	KITCHEN	778	n/a	n/a	0	0	0
695.095703125	n/a	WORD	1423556	wordpools/wasnorm_wordpool_576.txt	LTP367	ltpFR2	5	4	RIVER	1194	n/a	n/a	0	0	0
697.67041015625	n/a	WORD	1428829	wordpools/wasnorm_wordpool_576.txt	LTP367	ltpFR2	5	4	POISON	1096	n/a	n/a	0	0	0
700.21240234375	n/a	WORD	1434035	wordpools/wasnorm_wordpool_576.txt	LTP367	ltpFR2	5	4	VALVE	1546	n/a	n/a	0	0	0
702.63623046875	n/a	WORD	1438999	wordpools/wasnorm_wordpool_576.txt	LTP367	ltpFR2	5	4	JAPAN	749	n/a	n/a	0	0	0
704.2421875	n/a	START	1442288	n/a	LTP367	ltpFR2	5	n/a	n/a	n/a	6	n/a	n/a	n/a	n/a
705.17822265625	n/a	DISTRACTOR	1444205	n/a	LTP367	ltpFR2	5	4	n/a	n/a	n/a	n/a	0	0	0
705.1953125	n/a	PROB	1444240	n/a	LTP367	ltpFR2	5	n/a	n/a	n/a	6	8	2	1	5
706.75	n/a	PROB	1447424	n/a	LTP367	ltpFR2	5	n/a	n/a	n/a	6	14	3	8	3
708.7548828125	n/a	PROB	1451530	n/a	LTP367	ltpFR2	5	n/a	n/a	n/a	6	15	6	5	4
711.4150390625	n/a	PROB	1456978	n/a	LTP367	ltpFR2	5	n/a	n/a	n/a	6	21	8	8	5
713.77099609375	n/a	PROB	1461803	n/a	LTP367	ltpFR2	5	n/a	n/a	n/a	6	13	8	2	3
715.39404296875	n/a	PROB	1465127	n/a	LTP367	ltpFR2	5	n/a	n/a	n/a	6	15	4	8	3
716.84765625	n/a	PROB	1468104	n/a	LTP367	ltpFR2	5	n/a	n/a	n/a	6	17	3	5	9
718.77099609375	n/a	PROB	1472043	n/a	LTP367	ltpFR2	5	n/a	n/a	n/a	6	15	9	3	3
720.64453125	n/a	PROB	1475880	n/a	LTP367	ltpFR2	5	n/a	n/a	n/a	6	19	5	8	6
722.6337890625	n/a	PROB	1479954	n/a	LTP367	ltpFR2	5	n/a	n/a	n/a	6	13	5	5	3
724.12158203125	n/a	PROB	1483001	n/a	LTP367	ltpFR2	5	n/a	n/a	n/a	6	18	3	9	6
725.87646484375	n/a	PROB	1486595	n/a	LTP367	ltpFR2	5	n/a	n/a	n/a	6	10	7	1	2
727.08154296875	n/a	STOP	1489063	n/a	LTP367	ltpFR2	5	n/a	n/a	n/a	6	n/a	n/a	n/a	n/a
730.00830078125	n/a	REC_START	1495057	n/a	LTP367	ltpFR2	5	4	n/a	n/a	n/a	n/a	0	0	0
731.87158203125	n/a	REC_WORD	1498873	wordpools/wasnorm_wordpool_576.txt	LTP367	ltpFR2	5	4	CLAMP	316	n/a	n/a	0	0	0
732.9794921875	n/a	REC_WORD	1501142	wordpools/wasnorm_wordpool_576.txt	LTP367	ltpFR2	5	4	APPLE	33	n/a	n/a	0	0	0
734.1025390625	n/a	REC_WORD	1503442	wordpools/wasnorm_wordpool_576.txt	LTP367	ltpFR2	5	4	JOURNAL	760	n/a	n/a	0	0	0
735.04541015625	n/a	REC_WORD	1505373	wordpools/wasnorm_wordpool_576.txt	LTP367	ltpFR2	5	4	MARINE	869	n/a	n/a	0	0	0
736.21826171875	n/a	REC_WORD	1507775	wordpools/wasnorm_wordpool_576.txt	LTP367	ltpFR2	5	4	PAIL	1002	n/a	n/a	0	0	0
737.275390625	n/a	REC_WORD	1509940	wordpools/wasnorm_wordpool_576.txt	LTP367	ltpFR2	5	4	NOVEL	960	n/a	n/a	0	0	0
738.47314453125	n/a	REC_WORD	1512393	wordpools/wasnorm_wordpool_576.txt	LTP367	ltpFR2	5	4	FRIEND	606	n/a	n/a	0	0	0
746.7119140625	n/a	REC_WORD	1529266	wordpools/wasnorm_wordpool_576.txt	LTP367	ltpFR2	5	4	PORTRAIT	1111	n/a	n/a	0	0	0
750.82470703125	n/a	REC_WORD	1537689	wordpools/wasnorm_wordpool_576.txt	LTP367	ltpFR2	5	4	TEMPLE	1448	n/a	n/a	0	0	0
752.3857421875	n/a	REC_WORD	1540886	wordpools/wasnorm_wordpool_576.txt	LTP367	ltpFR2	5	4	IDOL	733	n/a	n/a	0	0	0
753.27783203125	n/a	REC_WORD	1542713	wordpools/wasnorm_wordpool_576.txt	LTP367	ltpFR2	5	4	HELMET	702	n/a	n/a	0	0	0
754.27880859375	n/a	REC_WORD	1544763	wordpools/wasnorm_wordpool_576.txt	LTP367	ltpFR2	5	4	RUST	1219	n/a	n/a	0	0	0
755.15478515625	n/a	REC_WORD	1546557	wordpools/wasnorm_wordpool_576.txt	LTP367	ltpFR2	5	4	LEADER	807	n/a	n/a	0	0	0
756.087890625	n/a	REC_WORD	1548468	wordpools/wasnorm_wordpool_576.txt	LTP367	ltpFR2	5	4	CASKET	255	n/a	n/a	0	0	0
757.07177734375	n/a	REC_WORD	1550483	wordpools/wasnorm_wordpool_576.txt	LTP367	ltpFR2	5	4	GRAVE	658	n/a	n/a	0	0	0
757.884765625	n/a	REC_WORD	1552148	wordpools/wasnorm_wordpool_576.txt	LTP367	ltpFR2	5	4	STREAM	1392	n/a	n/a	0	0	0
759.00341796875	n/a	REC_WORD	1554439	wordpools/wasnorm_wordpool_576.txt	LTP367	ltpFR2	5	4	KITCHEN	778	n/a	n/a	0	0	0
759.94775390625	n/a	REC_WORD	1556373	wordpools/wasnorm_wordpool_576.txt	LTP367	ltpFR2	5	4	RIVER	1194	n/a	n/a	0	0	0
760.95361328125	n/a	REC_WORD	1558433	wordpools/wasnorm_wordpool_576.txt	LTP367	ltpFR2	5	4	POISON	1096	n/a	n/a	0	0	0
761.85546875	n/a	REC_WORD	1560280	wordpools/wasnorm_wordpool_576.txt	LTP367	ltpFR2	5	4	JAPAN	749	n/a	n/a	0	0	0
776.23486328125	n/a	REC_WORD	1589729	wordpools/wasnorm_wordpool_576.txt	LTP367	ltpFR2	5	4	DASHBOARD	441	n/a	n/a	0	0	0
777.23486328125	n/a	REC_WORD	1591777	wordpools/wasnorm_wordpool_576.txt	LTP367	ltpFR2	5	4	BOYFRIEND	162	n/a	n/a	0	0	0
820.44775390625	n/a	DISTRACTOR	1680277	n/a	LTP367	ltpFR2	5	5	n/a	n/a	n/a	n/a	0	0	0
820.44775390625	n/a	START	1680277	n/a	LTP367	ltpFR2	5	n/a	n/a	n/a	7	n/a	n/a	n/a	n/a
820.46484375	n/a	PROB	1680312	n/a	LTP367	ltpFR2	5	n/a	n/a	n/a	7	22	7	6	8
823.390625	n/a	PROB	1686304	n/a	LTP367	ltpFR2	5	n/a	n/a	n/a	7	19	4	9	6
824.96142578125	n/a	PROB	1689521	n/a	LTP367	ltpFR2	5	n/a	n/a	n/a	7	15	8	3	4
827.470703125	n/a	PROB	1694660	n/a	LTP367	ltpFR2	5	n/a	n/a	n/a	7	5	3	1	1
828.607421875	n/a	PROB	1696988	n/a	LTP367	ltpFR2	5	n/a	n/a	n/a	7	13	4	8	1
830.66357421875	n/a	PROB	1701199	n/a	LTP367	ltpFR2	5	n/a	n/a	n/a	7	6	1	3	2
832.05126953125	n/a	PROB	1704041	n/a	LTP367	ltpFR2	5	n/a	n/a	n/a	7	13	9	3	1
833.5732421875	n/a	PROB	1707158	n/a	LTP367	ltpFR2	5	n/a	n/a	n/a	7	15	7	7	1
834.92626953125	n/a	PROB	1709929	n/a	LTP367	ltpFR2	5	n/a	n/a	n/a	7	17	8	6	3
838.037109375	n/a	PROB	1716300	n/a	LTP367	ltpFR2	5	n/a	n/a	n/a	7	12	4	2	6
839.22509765625	n/a	PROB	1718733	n/a	LTP367	ltpFR2	5	n/a	n/a	n/a	7	7	1	3	3
840.4951171875	n/a	PROB	1721334	n/a	LTP367	ltpFR2	5	n/a	n/a	n/a	7	9	4	2	3
842.1669921875	n/a	PROB	1724758	n/a	LTP367	ltpFR2	5	n/a	n/a	n/a	7	15	2	4	9
843.9208984375	n/a	STOP	1728350	n/a	LTP367	ltpFR2	5	n/a	n/a	n/a	7	n/a	n/a	n/a	n/a
845.3779296875	n/a	WORD	1731334	wordpools/wasnorm_wordpool_576.txt	LTP367	ltpFR2	5	5	INFANT	737	n/a	n/a	0	0	0
848.13671875	n/a	WORD	1736984	wordpools/wasnorm_wordpool_576.txt	LTP367	ltpFR2	5	5	CREATURE	403	n/a	n/a	0	0	0
850.677734375	n/a	WORD	1742188	wordpools/wasnorm_wordpool_576.txt	LTP367	ltpFR2	5	5	LAPEL	800	n/a	n/a	0	0	0
853.38671875	n/a	WORD	1747736	wordpools/wasnorm_wordpool_576.txt	LTP367	ltpFR2	5	5	JELLY	755	n/a	n/a	0	0	0
855.9609375	n/a	WORD	1753008	wordpools/wasnorm_wordpool_576.txt	LTP367	ltpFR2	5	5	CRITIC	410	n/a	n/a	0	0	0
858.603515625	n/a	WORD	1758420	wordpools/wasnorm_wordpool_576.txt	LTP367	ltpFR2	5	5	HEDGE	699	n/a	n/a	0	0	0
861.2783203125	n/a	WORD	1763898	wordpools/wasnorm_wordpool_576.txt	LTP367	ltpFR2	5	5	CHILD	299	n/a	n/a	0	0	0
863.80224609375	n/a	WORD	1769067	wordpools/wasnorm_wordpool_576.txt	LTP367	ltpFR2	5	5	FRECKLE	602	n/a	n/a	0	0	0
866.42822265625	n/a	WORD	1774445	wordpools/wasnorm_wordpool_576.txt	LTP367	ltpFR2	5	5	CLOTHES	327	n/a	n/a	0	0	0
869.1044921875	n/a	WORD	1779926	wordpools/wasnorm_wordpool_576.txt	LTP367	ltpFR2	5	5	DRINK	498	n/a	n/a	0	0	0
871.84521484375	n/a	WORD	1785539	wordpools/wasnorm_wordpool_576.txt	LTP367	ltpFR2	5	5	COCKTAIL	338	n/a	n/a	0	0	0
874.48828125	n/a	WORD	1790952	wordpools/wasnorm_wordpool_576.txt	LTP367	ltpFR2	5	5	PENGUIN	1044	n/a	n/a	0	0	0
877.080078125	n/a	WORD	1796260	wordpools/wasnorm_wordpool_576.txt	LTP367	ltpFR2	5	5	GHETTO	633	n/a	n/a	0	0	0
879.75390625	n/a	WORD	1801736	wordpools/wasnorm_wordpool_576.txt	LTP367	ltpFR2	5	5	HOOD	714	n/a	n/a	0	0	0
882.36279296875	n/a	WORD	1807079	wordpools/wasnorm_wordpool_576.txt	LTP367	ltpFR2	5	5	TROMBONE	1508	n/a	n/a	0	0	0
885.1220703125	n/a	WORD	1812730	wordpools/wasnorm_wordpool_576.txt	LTP367	ltpFR2	5	5	EUROPE	541	n/a	n/a	0	0	0
887.57958984375	n/a	WORD	1817763	wordpools/wasnorm_wordpool_576.txt	LTP367	ltpFR2	5	5	FOOTBALL	591	n/a	n/a	0	0	0
890.12158203125	n/a	WORD	1822969	wordpools/wasnorm_wordpool_576.txt	LTP367	ltpFR2	5	5	FINGER	567	n/a	n/a	0	0	0
892.7294921875	n/a	WORD	1828310	wordpools/wasnorm_wordpool_576.txt	LTP367	ltpFR2	5	5	SLUG	1329	n/a	n/a	0	0	0
895.4716796875	n/a	WORD	1833926	wordpools/wasnorm_wordpool_576.txt	LTP367	ltpFR2	5	5	VALLEY	1545	n/a	n/a	0	0	0
898.013671875	n/a	WORD	1839132	wordpools/wasnorm_wordpool_576.txt	LTP367	ltpFR2	5	5	FARMER	553	n/a	n/a	0	0	0
900.60546875	n/a	WORD	1844440	wordpools/wasnorm_wordpool_576.txt	LTP367	ltpFR2	5	5	BLOUSE	139	n/a	n/a	0	0	0
903.146484375	n/a	WORD	1849644	wordpools/wasnorm_wordpool_576.txt	LTP367	ltpFR2	5	5	LEOPARD	812	n/a	n/a	0	0	0
905.73828125	n/a	WORD	1854952	wordpools/wasnorm_wordpool_576.txt	LTP367	ltpFR2	5	5	POSSUM	1112	n/a	n/a	0	0	0
907.34326171875	n/a	START	1858239	n/a	LTP367	ltpFR2	5	n/a	n/a	n/a	8	n/a	n/a	n/a	n/a
908.46826171875	n/a	DISTRACTOR	1860543	n/a	LTP367	ltpFR2	5	5	n/a	n/a	n/a	n/a	0	0	0
908.47998046875	n/a	PROB	1860567	n/a	LTP367	ltpFR2	5	n/a	n/a	n/a	8	8	1	5	2
910.537109375	n/a	PROB	1864780	n/a	LTP367	ltpFR2	5	n/a	n/a	n/a	8	14	8	4	2
912.91015625	n/a	PROB	1869640	n/a	LTP367	ltpFR2	5	n/a	n/a	n/a	8	13	3	5	5
914.18212890625	n/a	PROB	1872245	n/a	LTP367	ltpFR2	5	n/a	n/a	n/a	8	17	3	9	5
917.2587890625	n/a	PROB	1878546	n/a	LTP367	ltpFR2	5	n/a	n/a	n/a	8	14	1	7	6
919.0478515625	n/a	PROB	1882210	n/a	LTP367	ltpFR2	5	n/a	n/a	n/a	8	13	4	2	7
921.28759765625	n/a	PROB	1886797	n/a	LTP367	ltpFR2	5	n/a	n/a	n/a	8	22	9	6	7
925.767578125	n/a	PROB	1895972	n/a	LTP367	ltpFR2	5	n/a	n/a	n/a	8	18	8	9	1
928.12646484375	n/a	PROB	1900803	n/a	LTP367	ltpFR2	5	n/a	n/a	n/a	8	11	3	3	5
931.34228515625	n/a	STOP	1907389	n/a	LTP367	ltpFR2	5	n/a	n/a	n/a	8	n/a	n/a	n/a	n/a
933.2275390625	n/a	REC_START	1911250	n/a	LTP367	ltpFR2	5	5	n/a	n/a	n/a	n/a	0	0	0
934.978515625	n/a	REC_WORD	1914836	wordpools/wasnorm_wordpool_576.txt	LTP367	ltpFR2	5	5	INFANT	737	n/a	n/a	0	0	0
935.88330078125	n/a	REC_WORD	1916689	wordpools/wasnorm_wordpool_576.txt	LTP367	ltpFR2	5	5	CREATURE	403	n/a	n/a	0	0	0
936.8125	n/a	REC_WORD	1918592	wordpools/wasnorm_wordpool_576.txt	LTP367	ltpFR2	5	5	LAPEL	800	n/a	n/a	0	0	0
938.26513671875	n/a	REC_WORD	1921567	wordpools/wasnorm_wordpool_576.txt	LTP367	ltpFR2	5	5	CRITIC	410	n/a	n/a	0	0	0
939.43505859375	n/a	REC_WORD	1923963	wordpools/wasnorm_wordpool_576.txt	LTP367	ltpFR2	5	5	JELLY	755	n/a	n/a	0	0	0
940.55517578125	n/a	REC_WORD	1926257	wordpools/wasnorm_wordpool_576.txt	LTP367	ltpFR2	5	5	HEDGE	699	n/a	n/a	0	0	0
941.96337890625	n/a	REC_WORD	1929141	wordpools/wasnorm_wordpool_576.txt	LTP367	ltpFR2	5	5	CHILD	299	n/a	n/a	0	0	0
944.5712890625	n/a	REC_WORD	1934482	wordpools/wasnorm_wordpool_576.txt	LTP367	ltpFR2	5	5	FRECKLE	602	n/a	n/a	0	0	0
945.7509765625	n/a	REC_WORD	1936898	wordpools/wasnorm_wordpool_576.txt	LTP367	ltpFR2	5	5	CLOTHES	327	n/a	n/a	0	0	0
947.7548828125	n/a	REC_WORD	1941002	wordpools/wasnorm_wordpool_576.txt	LTP367	ltpFR2	5	5	PENGUIN	1044	n/a	n/a	0	0	0
950.5849609375	n/a	REC_WORD_VV	1946798	wordpools/wasnorm_wordpool_576.txt	LTP367	ltpFR2	5	5	<>	-1	n/a	n/a	0	0	0
952.166015625	n/a	REC_WORD	1950036	wordpools/wasnorm_wordpool_576.txt	LTP367	ltpFR2	5	5	GHETTO	633	n/a	n/a	0	0	0
952.55908203125	n/a	REC_WORD	1950841	wordpools/wasnorm_wordpool_576.txt	LTP367	ltpFR2	5	5	GANGSTER	620	n/a	n/a	0	0	0
953.27294921875	n/a	REC_WORD	1952303	wordpools/wasnorm_wordpool_576.txt	LTP367	ltpFR2	5	5	HONEY	713	n/a	n/a	0	0	0
956.82470703125	n/a	REC_WORD	1959577	wordpools/wasnorm_wordpool_576.txt	LTP367	ltpFR2	5	5	FINGER	567	n/a	n/a	0	0	0
957.9306640625	n/a	REC_WORD	1961842	wordpools/wasnorm_wordpool_576.txt	LTP367	ltpFR2	5	5	SLUG	1329	n/a	n/a	0	0	0
958.98388671875	n/a	REC_WORD	1963999	wordpools/wasnorm_wordpool_576.txt	LTP367	ltpFR2	5	5	VALLEY	1545	n/a	n/a	0	0	0
959.77783203125	n/a	REC_WORD	1965625	wordpools/wasnorm_wordpool_576.txt	LTP367	ltpFR2	5	5	FARMER	553	n/a	n/a	0	0	0
962.0927734375	n/a	REC_WORD	1970366	wordpools/wasnorm_wordpool_576.txt	LTP367	ltpFR2	5	5	LEOPARD	812	n/a	n/a	0	0	0
963.931640625	n/a	REC_WORD	1974132	wordpools/wasnorm_wordpool_576.txt	LTP367	ltpFR2	5	5	BLOUSE	139	n/a	n/a	0	0	0
966.96337890625	n/a	REC_WORD	1980341	wordpools/wasnorm_wordpool_576.txt	LTP367	ltpFR2	5	5	POSSUM	1112	n/a	n/a	0	0	0
987.875	n/a	REC_WORD	2023168	wordpools/wasnorm_wordpool_576.txt	LTP367	ltpFR2	5	5	DRINK	498	n/a	n/a	0	0	0
988.6337890625	n/a	REC_WORD	2024722	wordpools/wasnorm_wordpool_576.txt	LTP367	ltpFR2	5	5	COCKTAIL	338	n/a	n/a	0	0	0
1023.68359375	n/a	WORD	2096504	wordpools/wasnorm_wordpool_576.txt	LTP367	ltpFR2	5	6	BARLEY	88	n/a	n/a	0	0	0
1026.107421875	n/a	WORD	2101468	wordpools/wasnorm_wordpool_576.txt	LTP367	ltpFR2	5	6	PARSLEY	1016	n/a	n/a	0	0	0
1028.58251953125	n/a	WORD	2106537	wordpools/wasnorm_wordpool_576.txt	LTP367	ltpFR2	5	6	COURSE	390	n/a	n/a	0	0	0
1031.32470703125	n/a	WORD	2112153	wordpools/wasnorm_wordpool_576.txt	LTP367	ltpFR2	5	6	CLAM	315	n/a	n/a	0	0	0
1034.04931640625	n/a	WORD	2117733	wordpools/wasnorm_wordpool_576.txt	LTP367	ltpFR2	5	6	SPOOL	1356	n/a	n/a	0	0	0
1036.6083984375	n/a	WORD	2122974	wordpools/wasnorm_wordpool_576.txt	LTP367	ltpFR2	5	6	SHOVEL	1295	n/a	n/a	0	0	0
1039.19921875	n/a	WORD	2128280	wordpools/wasnorm_wordpool_576.txt	LTP367	ltpFR2	5	6	FOX	598	n/a	n/a	0	0	0
1041.9921875	n/a	WORD	2134000	wordpools/wasnorm_wordpool_576.txt	LTP367	ltpFR2	5	6	COUNTY	389	n/a	n/a	0	0	0
1044.64990234375	n/a	WORD	2139443	wordpools/wasnorm_wordpool_576.txt	LTP367	ltpFR2	5	6	MUMMY	932	n/a	n/a	0	0	0
1047.208984375	n/a	WORD	2144684	wordpools/wasnorm_wordpool_576.txt	LTP367	ltpFR2	5	6	HORNET	718	n/a	n/a	0	0	0
1049.68310546875	n/a	WORD	2149751	wordpools/wasnorm_wordpool_576.txt	LTP367	ltpFR2	5	6	FLAG	573	n/a	n/a	0	0	0
1052.49267578125	n/a	WORD	2155505	wordpools/wasnorm_wordpool_576.txt	LTP367	ltpFR2	5	6	SWIMMER	1420	n/a	n/a	0	0	0
1055.1337890625	n/a	WORD	2160914	wordpools/wasnorm_wordpool_576.txt	LTP367	ltpFR2	5	6	BEAVER	109	n/a	n/a	0	0	0
1057.65869140625	n/a	WORD	2166085	wordpools/wasnorm_wordpool_576.txt	LTP367	ltpFR2	5	6	COUNTRY	388	n/a	n/a	0	0	0
1060.4677734375	n/a	WORD	2171838	wordpools/wasnorm_wordpool_576.txt	LTP367	ltpFR2	5	6	HOUND	724	n/a	n/a	0	0	0
1063.29345703125	n/a	WORD	2177625	wordpools/wasnorm_wordpool_576.txt	LTP367	ltpFR2	5	6	TILE	1468	n/a	n/a	0	0	0
1065.71826171875	n/a	WORD	2182591	wordpools/wasnorm_wordpool_576.txt	LTP367	ltpFR2	5	6	PLATE	1086	n/a	n/a	0	0	0
1068.443359375	n/a	WORD	2188172	wordpools/wasnorm_wordpool_576.txt	LTP367	ltpFR2	5	6	COD	340	n/a	n/a	0	0	0
1071.13525390625	n/a	WORD	2193685	wordpools/wasnorm_wordpool_576.txt	LTP367	ltpFR2	5	6	CRIB	407	n/a	n/a	0	0	0
1073.72705078125	n/a	WORD	2198993	wordpools/wasnorm_wordpool_576.txt	LTP367	ltpFR2	5	6	APRON	35	n/a	n/a	0	0	0
1076.40234375	n/a	WORD	2204472	wordpools/wasnorm_wordpool_576.txt	LTP367	ltpFR2	5	6	NOTEBOOK	959	n/a	n/a	0	0	0
1079.09423828125	n/a	WORD	2209985	wordpools/wasnorm_wordpool_576.txt	LTP367	ltpFR2	5	6	REPORT	1184	n/a	n/a	0	0	0
1081.76904296875	n/a	WORD	2215463	wordpools/wasnorm_wordpool_576.txt	LTP367	ltpFR2	5	6	WASP	1593	n/a	n/a	0	0	0
1084.4111328125	n/a	WORD	2220874	wordpools/wasnorm_wordpool_576.txt	LTP367	ltpFR2	5	6	EAGLE	512	n/a	n/a	0	0	0
1086.01708984375	n/a	START	2224163	n/a	LTP367	ltpFR2	5	n/a	n/a	n/a	9	n/a	n/a	n/a	n/a
1086.81787109375	n/a	DISTRACTOR	2225803	n/a	LTP367	ltpFR2	5	6	n/a	n/a	n/a	n/a	0	0	0
1086.8349609375	n/a	PROB	2225838	n/a	LTP367	ltpFR2	5	n/a	n/a	n/a	9	16	1	8	7
1088.875	n/a	PROB	2230016	n/a	LTP367	ltpFR2	5	n/a	n/a	n/a	9	25	8	9	8
1091.71875	n/a	PROB	2235840	n/a	LTP367	ltpFR2	5	n/a	n/a	n/a	9	14	1	4	9
1093.08984375	n/a	PROB	2238648	n/a	LTP367	ltpFR2	5	n/a	n/a	n/a	9	19	2	8	9
1094.32666015625	n/a	PROB	2241181	n/a	LTP367	ltpFR2	5	n/a	n/a	n/a	9	13	3	2	8
1096.2998046875	n/a	PROB	2245222	n/a	LTP367	ltpFR2	5	n/a	n/a	n/a	9	11	1	9	1
1097.7373046875	n/a	PROB	2248166	n/a	LTP367	ltpFR2	5	n/a	n/a	n/a	9	15	6	2	7
1104.89208984375	n/a	PROB	2262819	n/a	LTP367	ltpFR2	5	n/a	n/a	n/a	9	17	8	4	5
1107.16748046875	n/a	PROB	2267479	n/a	LTP367	ltpFR2	5	n/a	n/a	n/a	9	18	5	9	4
1108.96142578125	n/a	STOP	2271153	n/a	LTP367	ltpFR2	5	n/a	n/a	n/a	9	n/a	n/a	n/a	n/a
1111.916015625	n/a	REC_START	2277204	n/a	LTP367	ltpFR2	5	6	n/a	n/a	n/a	n/a	0	0	0
1114.31689453125	n/a	REC_WORD	2282121	wordpools/wasnorm_wordpool_576.txt	LTP367	ltpFR2	5	6	BARLEY	88	n/a	n/a	0	0	0
1115.56494140625	n/a	REC_WORD	2284677	wordpools/wasnorm_wordpool_576.txt	LTP367	ltpFR2	5	6	PARSLEY	1016	n/a	n/a	0	0	0
1118.44580078125	n/a	REC_WORD	2290577	wordpools/wasnorm_wordpool_576.txt	LTP367	ltpFR2	5	6	TABLE	1426	n/a	n/a	0	0	0
1119.548828125	n/a	REC_WORD	2292836	wordpools/wasnorm_wordpool_576.txt	LTP367	ltpFR2	5	6	CLAM	315	n/a	n/a	0	0	0
1123.05859375	n/a	REC_WORD	2300024	wordpools/wasnorm_wordpool_576.txt	LTP367	ltpFR2	5	6	COUNTY	389	n/a	n/a	0	0	0
1124.24560546875	n/a	REC_WORD	2302455	wordpools/wasnorm_wordpool_576.txt	LTP367	ltpFR2	5	6	SPOOL	1356	n/a	n/a	0	0	0
1125.98046875	n/a	REC_WORD	2306008	wordpools/wasnorm_wordpool_576.txt	LTP367	ltpFR2	5	6	SHOVEL	1295	n/a	n/a	0	0	0
1129.3466796875	n/a	REC_WORD	2312902	wordpools/wasnorm_wordpool_576.txt	LTP367	ltpFR2	5	6	FOX	598	n/a	n/a	0	0	0
1130.75244140625	n/a	REC_WORD	2315781	wordpools/wasnorm_wordpool_576.txt	LTP367	ltpFR2	5	6	MUMMY	932	n/a	n/a	0	0	0
1132.314453125	n/a	REC_WORD	2318980	wordpools/wasnorm_wordpool_576.txt	LTP367	ltpFR2	5	6	HORNET	718	n/a	n/a	0	0	0
1134.63134765625	n/a	REC_WORD	2323725	wordpools/wasnorm_wordpool_576.txt	LTP367	ltpFR2	5	6	SWIMMER	1420	n/a	n/a	0	0	0
1136.6513671875	n/a	REC_WORD	2327862	wordpools/wasnorm_wordpool_576.txt	LTP367	ltpFR2	5	6	BEAVER	109	n/a	n/a	0	0	0
1138.25048828125	n/a	REC_WORD	2331137	wordpools/wasnorm_wordpool_576.txt	LTP367	ltpFR2	5	6	COUNTRY	388	n/a	n/a	0	0	0
1139.947265625	n/a	REC_WORD	2334612	wordpools/wasnorm_wordpool_576.txt	LTP367	ltpFR2	5	6	HOUND	724	n/a	n/a	0	0	0
1142.7509765625	n/a	REC_WORD	2340354	wordpools/wasnorm_wordpool_576.txt	LTP367	ltpFR2	5	6	PLATE	1086	n/a	n/a	0	0	0
1145.31103515625	n/a	REC_WORD	2345597	wordpools/wasnorm_wordpool_576.txt	LTP367	ltpFR2	5	6	COD	340	n/a	n/a	0	0	0
1146.97509765625	n/a	REC_WORD	2349005	wordpools/wasnorm_wordpool_576.txt	LTP367	ltpFR2	5	6	CRIB	407	n/a	n/a	0	0	0
1148.7412109375	n/a	REC_WORD	2352622	wordpools/wasnorm_wordpool_576.txt	LTP367	ltpFR2	5	6	APRON	35	n/a	n/a	0	0	0
1151.2041015625	n/a	REC_WORD	2357666	wordpools/wasnorm_wordpool_576.txt	LTP367	ltpFR2	5	6	REPORT	1184	n/a	n/a	0	0	0
1153.2587890625	n/a	REC_WORD	2361874	wordpools/wasnorm_wordpool_576.txt	LTP367	ltpFR2	5	6	WASP	1593	n/a	n/a	0	0	0
1156.66162109375	n/a	REC_WORD	2368843	wordpools/wasnorm_wordpool_576.txt	LTP367	ltpFR2	5	6	EAGLE	512	n/a	n/a	0	0	0
1165.87255859375	n/a	REC_WORD	2387707	wordpools/wasnorm_wordpool_576.txt	LTP367	ltpFR2	5	6	PLATE	1086	n/a	n/a	0	0	0
1202.3564453125	n/a	DISTRACTOR	2462426	n/a	LTP367	ltpFR2	5	7	n/a	n/a	n/a	n/a	0	0	0
1202.3564453125	n/a	START	2462426	n/a	LTP367	ltpFR2	5	n/a	n/a	n/a	10	n/a	n/a	n/a	n/a
1202.37353515625	n/a	PROB	2462461	n/a	LTP367	ltpFR2	5	n/a	n/a	n/a	10	8	5	2	1
1203.7431640625	n/a	PROB	2465266	n/a	LTP367	ltpFR2	5	n/a	n/a	n/a	10	24	6	9	9
1206.18505859375	n/a	PROB	2470267	n/a	LTP367	ltpFR2	5	n/a	n/a	n/a	10	15	7	6	2
1209.46240234375	n/a	PROB	2476979	n/a	LTP367	ltpFR2	5	n/a	n/a	n/a	10	22	8	6	8
1212.037109375	n/a	PROB	2482252	n/a	LTP367	ltpFR2	5	n/a	n/a	n/a	10	10	3	3	4
1214.0771484375	n/a	PROB	2486430	n/a	LTP367	ltpFR2	5	n/a	n/a	n/a	10	20	6	8	6
1216.1171875	n/a	PROB	2490608	n/a	LTP367	ltpFR2	5	n/a	n/a	n/a	10	15	7	2	6
1217.97314453125	n/a	PROB	2494409	n/a	LTP367	ltpFR2	5	n/a	n/a	n/a	10	17	4	8	5
1220.498046875	n/a	PROB	2499580	n/a	LTP367	ltpFR2	5	n/a	n/a	n/a	10	9	2	1	6
1221.90185546875	n/a	PROB	2502455	n/a	LTP367	ltpFR2	5	n/a	n/a	n/a	10	18	2	8	8
1223.90771484375	n/a	PROB	2506563	n/a	LTP367	ltpFR2	5	n/a	n/a	n/a	10	21	5	9	7
1226.1298828125	n/a	STOP	2511114	n/a	LTP367	ltpFR2	5	n/a	n/a	n/a	10	n/a	n/a	n/a	n/a
1227.31982421875	n/a	WORD	2513551	wordpools/wasnorm_wordpool_576.txt	LTP367	ltpFR2	5	7	SCARECROW	1245	n/a	n/a	0	0	0
1229.7607421875	n/a	WORD	2518550	wordpools/wasnorm_wordpool_576.txt	LTP367	ltpFR2	5	7	SHOULDER	1294	n/a	n/a	0	0	0
1232.36962890625	n/a	WORD	2523893	wordpools/wasnorm_wordpool_576.txt	LTP367	ltpFR2	5	7	PATROL	1027	n/a	n/a	0	0	0
1235.0615234375	n/a	WORD	2529406	wordpools/wasnorm_wordpool_576.txt	LTP367	ltpFR2	5	7	BLACKBOARD	133	n/a	n/a	0	0	0
1237.869140625	n/a	WORD	2535156	wordpools/wasnorm_wordpool_576.txt	LTP367	ltpFR2	5	7	STUDENT	1395	n/a	n/a	0	0	0
1240.6123046875	n/a	WORD	2540774	wordpools/wasnorm_wordpool_576.txt	LTP367	ltpFR2	5	7	TRACTOR	1493	n/a	n/a	0	0	0
1243.38818359375	n/a	WORD	2546459	wordpools/wasnorm_wordpool_576.txt	LTP367	ltpFR2	5	7	SUPPER	1411	n/a	n/a	0	0	0
1246.080078125	n/a	WORD	2551972	wordpools/wasnorm_wordpool_576.txt	LTP367	ltpFR2	5	7	SNAIL	1332	n/a	n/a	0	0	0
1248.60498046875	n/a	WORD	2557143	wordpools/wasnorm_wordpool_576.txt	LTP367	ltpFR2	5	7	TURTLE	1522	n/a	n/a	0	0	0
1251.2470703125	n/a	WORD	2562554	wordpools/wasnorm_wordpool_576.txt	LTP367	ltpFR2	5	7	CAMEL	223	n/a	n/a	0	0	0
1253.98876953125	n/a	WORD	2568169	wordpools/wasnorm_wordpool_576.txt	LTP367	ltpFR2	5	7	ROD	1203	n/a	n/a	0	0	0
1256.4638671875	n/a	WORD	2573238	wordpools/wasnorm_wordpool_576.txt	LTP367	ltpFR2	5	7	FIREPLACE	570	n/a	n/a	0	0	0
1259.07177734375	n/a	WORD	2578579	wordpools/wasnorm_wordpool_576.txt	LTP367	ltpFR2	5	7	CHEST	295	n/a	n/a	0	0	0
1261.8466796875	n/a	WORD	2584262	wordpools/wasnorm_wordpool_576.txt	LTP367	ltpFR2	5	7	TWEEZERS	1526	n/a	n/a	0	0	0
1264.6064453125	n/a	WORD	2589914	wordpools/wasnorm_wordpool_576.txt	LTP367	ltpFR2	5	7	GRAVEL	659	n/a	n/a	0	0	0
1267.16455078125	n/a	WORD	2595153	wordpools/wasnorm_wordpool_576.txt	LTP367	ltpFR2	5	7	MONEY	908	n/a	n/a	0	0	0
1269.85546875	n/a	WORD	2600664	wordpools/wasnorm_wordpool_576.txt	LTP367	ltpFR2	5	7	SANDWICH	1232	n/a	n/a	0	0	0
1272.5654296875	n/a	WORD	2606214	wordpools/wasnorm_wordpool_576.txt	LTP367	ltpFR2	5	7	SOFTBALL	1343	n/a	n/a	0	0	0
1275.20703125	n/a	WORD	2611624	wordpools/wasnorm_wordpool_576.txt	LTP367	ltpFR2	5	7	IGLOO	734	n/a	n/a	0	0	0
1277.63134765625	n/a	WORD	2616589	wordpools/wasnorm_wordpool_576.txt	LTP367	ltpFR2	5	7	COIN	343	n/a	n/a	0	0	0
1280.0888671875	n/a	WORD	2621622	wordpools/wasnorm_wordpool_576.txt	LTP367	ltpFR2	5	7	BUREAU	199	n/a	n/a	0	0	0
1282.830078125	n/a	WORD	2627236	wordpools/wasnorm_wordpool_576.txt	LTP367	ltpFR2	5	7	SNACK	1331	n/a	n/a	0	0	0
1285.5068359375	n/a	WORD	2632718	wordpools/wasnorm_wordpool_576.txt	LTP367	ltpFR2	5	7	RACKET	1155	n/a	n/a	0	0	0
1288.0478515625	n/a	WORD	2637922	wordpools/wasnorm_wordpool_576.txt	LTP367	ltpFR2	5	7	DRAWING	494	n/a	n/a	0	0	0
1289.65380859375	n/a	START	2641211	n/a	LTP367	ltpFR2	5	n/a	n/a	n/a	11	n/a	n/a	n/a	n/a
1290.6767578125	n/a	DISTRACTOR	2643306	n/a	LTP367	ltpFR2	5	7	n/a	n/a	n/a	n/a	0	0	0
1290.68994140625	n/a	PROB	2643333	n/a	LTP367	ltpFR2	5	n/a	n/a	n/a	11	13	3	9	1
1292.44580078125	n/a	PROB	2646929	n/a	LTP367	ltpFR2	5	n/a	n/a	n/a	11	19	3	8	8
1294.03369140625	n/a	PROB	2650181	n/a	LTP367	ltpFR2	5	n/a	n/a	n/a	11	17	3	9	5
1296.341796875	n/a	PROB	2654908	n/a	LTP367	ltpFR2	5	n/a	n/a	n/a	11	16	9	4	3
1298.013671875	n/a	PROB	2658332	n/a	LTP367	ltpFR2	5	n/a	n/a	n/a	11	19	5	5	9
1299.75146484375	n/a	PROB	2661891	n/a	LTP367	ltpFR2	5	n/a	n/a	n/a	11	21	9	5	7
1301.32470703125	n/a	PROB	2665113	n/a	LTP367	ltpFR2	5	n/a	n/a	n/a	11	14	1	8	5
1303.8642578125	n/a	PROB	2670314	n/a	LTP367	ltpFR2	5	n/a	n/a	n/a	11	15	4	3	8
1305.13623046875	n/a	PROB	2672919	n/a	LTP367	ltpFR2	5	n/a	n/a	n/a	11	18	9	7	2
1306.59130859375	n/a	PROB	2675899	n/a	LTP367	ltpFR2	5	n/a	n/a	n/a	11	14	9	2	3
1309.29931640625	n/a	PROB	2681445	n/a	LTP367	ltpFR2	5	n/a	n/a	n/a	11	9	6	1	2
1310.58740234375	n/a	PROB	2684083	n/a	LTP367	ltpFR2	5	n/a	n/a	n/a	11	12	8	2	2
1312.3779296875	n/a	STOP	2687750	n/a	LTP367	ltpFR2	5	n/a	n/a	n/a	11	n/a	n/a	n/a	n/a
1315.5869140625	n/a	REC_START	2694322	n/a	LTP367	ltpFR2	5	7	n/a	n/a	n/a	n/a	0	0	0
1316.91796875	n/a	REC_WORD	2697048	wordpools/wasnorm_wordpool_576.txt	LTP367	ltpFR2	5	7	SCARECROW	1245	n/a	n/a	0	0	0
1318.51904296875	n/a	REC_WORD	2700327	wordpools/wasnorm_wordpool_576.txt	LTP367	ltpFR2	5	7	SHOULDER	1294	n/a	n/a	0	0	0
1319.83203125	n/a	REC_WORD	2703016	wordpools/wasnorm_wordpool_576.txt	LTP367	ltpFR2	5	7	BLACKBOARD	133	n/a	n/a	0	0	0
1320.8720703125	n/a	REC_WORD	2705146	wordpools/wasnorm_wordpool_576.txt	LTP367	ltpFR2	5	7	PATROL	1027	n/a	n/a	0	0	0
1322.17578125	n/a	REC_WORD	2707816	wordpools/wasnorm_wordpool_576.txt	LTP367	ltpFR2	5	7	STUDENT	1395	n/a	n/a	0	0	0
1323.6337890625	n/a	REC_WORD	2710802	wordpools/wasnorm_wordpool_576.txt	LTP367	ltpFR2	5	7	DINNER	468	n/a	n/a	0	0	0
1324.73974609375	n/a	REC_WORD	2713067	wordpools/wasnorm_wordpool_576.txt	LTP367	ltpFR2	5	7	TRACTOR	1493	n/a	n/a	0	0	0
1325.85986328125	n/a	REC_WORD	2715361	wordpools/wasnorm_wordpool_576.txt	LTP367	ltpFR2	5	7	SNAIL	1332	n/a	n/a	0	0	0
1330.591796875	n/a	REC_WORD	2725052	wordpools/wasnorm_wordpool_576.txt	LTP367	ltpFR2	5	7	CAMEL	223	n/a	n/a	0	0	0
1331.6875	n/a	REC_WORD	2727296	wordpools/wasnorm_wordpool_576.txt	LTP367	ltpFR2	5	7	ROD	1203	n/a	n/a	0	0	0
1332.7216796875	n/a	REC_WORD	2729414	wordpools/wasnorm_wordpool_576.txt	LTP367	ltpFR2	5	7	FIREPLACE	570	n/a	n/a	0	0	0
1333.78857421875	n/a	REC_WORD	2731599	wordpools/wasnorm_wordpool_576.txt	LTP367	ltpFR2	5	7	CHEST	295	n/a	n/a	0	0	0
1334.70654296875	n/a	REC_WORD	2733479	wordpools/wasnorm_wordpool_576.txt	LTP367	ltpFR2	5	7	TWEEZERS	1526	n/a	n/a	0	0	0
1336.015625	n/a	REC_WORD	2736160	wordpools/wasnorm_wordpool_576.txt	LTP367	ltpFR2	5	7	GRAVEL	659	n/a	n/a	0	0	0
1337.42919921875	n/a	REC_WORD	2739055	wordpools/wasnorm_wordpool_576.txt	LTP367	ltpFR2	5	7	MONEY	908	n/a	n/a	0	0	0
1339.26513671875	n/a	REC_WORD	2742815	wordpools/wasnorm_wordpool_576.txt	LTP367	ltpFR2	5	7	SANDWICH	1232	n/a	n/a	0	0	0
1341.13134765625	n/a	REC_WORD	2746637	wordpools/wasnorm_wordpool_576.txt	LTP367	ltpFR2	5	7	SOFTBALL	1343	n/a	n/a	0	0	0
1342.59228515625	n/a	REC_WORD	2749629	wordpools/wasnorm_wordpool_576.txt	LTP367	ltpFR2	5	7	IGLOO	734	n/a	n/a	0	0	0
1343.88330078125	n/a	REC_WORD	2752273	wordpools/wasnorm_wordpool_576.txt	LTP367	ltpFR2	5	7	COIN	343	n/a	n/a	0	0	0
1345.06396484375	n/a	REC_WORD	2754691	wordpools/wasnorm_wordpool_576.txt	LTP367	ltpFR2	5	7	BUREAU	199	n/a	n/a	0	0	0
1348.3388671875	n/a	REC_WORD	2761398	wordpools/wasnorm_wordpool_576.txt	LTP367	ltpFR2	5	7	SNACK	1331	n/a	n/a	0	0	0
1406.04345703125	n/a	WORD	2879577	wordpools/wasnorm_wordpool_576.txt	LTP367	ltpFR2	5	8	BROTHER	179	n/a	n/a	0	0	0
1408.6181640625	n/a	WORD	2884850	wordpools/wasnorm_wordpool_576.txt	LTP367	ltpFR2	5	8	OUTLAW	989	n/a	n/a	0	0	0
1411.26025390625	n/a	WORD	2890261	wordpools/wasnorm_wordpool_576.txt	LTP367	ltpFR2	5	8	POCKET	1093	n/a	n/a	0	0	0
1413.73388671875	n/a	WORD	2895327	wordpools/wasnorm_wordpool_576.txt	LTP367	ltpFR2	5	8	CANYON	235	n/a	n/a	0	0	0
1416.42724609375	n/a	WORD	2900843	wordpools/wasnorm_wordpool_576.txt	LTP367	ltpFR2	5	8	TOURIST	1488	n/a	n/a	0	0	0
1419.18603515625	n/a	WORD	2906493	wordpools/wasnorm_wordpool_576.txt	LTP367	ltpFR2	5	8	DENIM	446	n/a	n/a	0	0	0
1421.81005859375	n/a	WORD	2911867	wordpools/wasnorm_wordpool_576.txt	LTP367	ltpFR2	5	8	OUTFIT	988	n/a	n/a	0	0	0
1424.5029296875	n/a	WORD	2917382	wordpools/wasnorm_wordpool_576.txt	LTP367	ltpFR2	5	8	LAKE	796	n/a	n/a	0	0	0
1427.294921875	n/a	WORD	2923100	wordpools/wasnorm_wordpool_576.txt	LTP367	ltpFR2	5	8	SUNRISE	1407	n/a	n/a	0	0	0
1429.81884765625	n/a	WORD	2928269	wordpools/wasnorm_wordpool_576.txt	LTP367	ltpFR2	5	8	JELLO	754	n/a	n/a	0	0	0
1432.37744140625	n/a	WORD	2933509	wordpools/wasnorm_wordpool_576.txt	LTP367	ltpFR2	5	8	WRENCH	1625	n/a	n/a	0	0	0
1435.12060546875	n/a	WORD	2939127	wordpools/wasnorm_wordpool_576.txt	LTP367	ltpFR2	5	8	PLIERS	1089	n/a	n/a	0	0	0
1437.62841796875	n/a	WORD	2944263	wordpools/wasnorm_wordpool_576.txt	LTP367	ltpFR2	5	8	STALLION	1369	n/a	n/a	0	0	0
1440.08642578125	n/a	WORD	2949297	wordpools/wasnorm_wordpool_576.txt	LTP367	ltpFR2	5	8	WAGON	1578	n/a	n/a	0	0	0
1442.56005859375	n/a	WORD	2954363	wordpools/wasnorm_wordpool_576.txt	LTP367	ltpFR2	5	8	UMPIRE	1535	n/a	n/a	0	0	0
1444.9853515625	n/a	WORD	2959330	wordpools/wasnorm_wordpool_576.txt	LTP367	ltpFR2	5	8	STAKE	1368	n/a	n/a	0	0	0
1447.5263671875	n/a	WORD	2964534	wordpools/wasnorm_wordpool_576.txt	LTP367	ltpFR2	5	8	LIZARD	834	n/a	n/a	0	0	0
1450.251953125	n/a	WORD	2970116	wordpools/wasnorm_wordpool_576.txt	LTP367	ltpFR2	5	8	GARBAGE	622	n/a	n/a	0	0	0
1453.0107421875	n/a	WORD	2975766	wordpools/wasnorm_wordpool_576.txt	LTP367	ltpFR2	5	8	POPCORN	1104	n/a	n/a	0	0	0
1455.43505859375	n/a	WORD	2980731	wordpools/wasnorm_wordpool_576.txt	LTP367	ltpFR2	5	8	VICTIM	1562	n/a	n/a	0	0	0
1458.09375	n/a	WORD	2986176	wordpools/wasnorm_wordpool_576.txt	LTP367	ltpFR2	5	8	QUARTER	1148	n/a	n/a	0	0	0
1460.767578125	n/a	WORD	2991652	wordpools/wasnorm_wordpool_576.txt	LTP367	ltpFR2	5	8	MATTRESS	879	n/a	n/a	0	0	0
1463.3935546875	n/a	WORD	2997030	wordpools/wasnorm_wordpool_576.txt	LTP367	ltpFR2	5	8	BLUEPRINT	142	n/a	n/a	0	0	0
1465.86767578125	n/a	WORD	3002097	wordpools/wasnorm_wordpool_576.txt	LTP367	ltpFR2	5	8	FILM	565	n/a	n/a	0	0	0
1467.474609375	n/a	START	3005388	n/a	LTP367	ltpFR2	5	n/a	n/a	n/a	12	n/a	n/a	n/a	n/a
1468.646484375	n/a	DISTRACTOR	3007788	n/a	LTP367	ltpFR2	5	8	n/a	n/a	n/a	n/a	0	0	0
1468.66064453125	n/a	PROB	3007817	n/a	LTP367	ltpFR2	5	n/a	n/a	n/a	12	13	3	6	4
1470.6005859375	n/a	PROB	3011790	n/a	LTP367	ltpFR2	5	n/a	n/a	n/a	12	20	8	8	4
1475.8662109375	n/a	PROB	3022574	n/a	LTP367	ltpFR2	5	n/a	n/a	n/a	12	18	1	8	9
1477.83935546875	n/a	PROB	3026615	n/a	LTP367	ltpFR2	5	n/a	n/a	n/a	12	8	6	1	1
1479.01123046875	n/a	PROB	3029015	n/a	LTP367	ltpFR2	5	n/a	n/a	n/a	12	14	6	2	6
1480.5322265625	n/a	PROB	3032130	n/a	LTP367	ltpFR2	5	n/a	n/a	n/a	12	5	2	1	2
1482.00390625	n/a	PROB	3035144	n/a	LTP367	ltpFR2	5	n/a	n/a	n/a	12	9	7	1	1
1483.22412109375	n/a	PROB	3037643	n/a	LTP367	ltpFR2	5	n/a	n/a	n/a	12	11	2	4	5
1485.01318359375	n/a	PROB	3041307	n/a	LTP367	ltpFR2	5	n/a	n/a	n/a	12	18	7	9	2
1491.47265625	n/a	STOP	3054536	n/a	LTP367	ltpFR2	5	n/a	n/a	n/a	12	n/a	n/a	n/a	n/a
1493.37353515625	n/a	REC_START	3058429	n/a	LTP367	ltpFR2	5	8	n/a	n/a	n/a	n/a	0	0	0
1494.52880859375	n/a	REC_WORD	3060795	wordpools/wasnorm_wordpool_576.txt	LTP367	ltpFR2	5	8	BROTHER	179	n/a	n/a	0	0	0
1495.37451171875	n/a	REC_WORD	3062527	wordpools/wasnorm_wordpool_576.txt	LTP367	ltpFR2	5	8	OUTLAW	989	n/a	n/a	0	0	0
1496.24560546875	n/a	REC_WORD	3064311	wordpools/wasnorm_wordpool_576.txt	LTP367	ltpFR2	5	8	POCKET	1093	n/a	n/a	0	0	0
1497.1904296875	n/a	REC_WORD	3066246	wordpools/wasnorm_wordpool_576.txt	LTP367	ltpFR2	5	8	CANYON	235	n/a	n/a	0	0	0
1498.1025390625	n/a	REC_WORD	3068114	wordpools/wasnorm_wordpool_576.txt	LTP367	ltpFR2	5	8	OUTFIT	988	n/a	n/a	0	0	0
1499.068359375	n/a	REC_WORD	3070092	wordpools/wasnorm_wordpool_576.txt	LTP367	ltpFR2	5	8	DENIM	446	n/a	n/a	0	0	0
1502.61572265625	n/a	REC_WORD_VV	3077357	wordpools/wasnorm_wordpool_576.txt	LTP367	ltpFR2	5	8	<>	-1	n/a	n/a	0	0	0
1503.8486328125	n/a	REC_WORD	3079882	wordpools/wasnorm_wordpool_576.txt	LTP367	ltpFR2	5	8	JELLO	754	n/a	n/a	0	0	0
1504.388671875	n/a	REC_WORD	3080988	wordpools/wasnorm_wordpool_576.txt	LTP367	ltpFR2	5	8	SUNRISE	1407	n/a	n/a	0	0	0
1505.15234375	n/a	REC_WORD	3082552	wordpools/wasnorm_wordpool_576.txt	LTP367	ltpFR2	5	8	PLIERS	1089	n/a	n/a	0	0	0
1506.9443359375	n/a	REC_WORD	3086222	wordpools/wasnorm_wordpool_576.txt	LTP367	ltpFR2	5	8	TWEEZERS	1526	n/a	n/a	0	0	0
1509.42041015625	n/a	REC_WORD_VV	3091293	wordpools/wasnorm_wordpool_576.txt	LTP367	ltpFR2	5	8	<>	-1	n/a	n/a	0	0	0
1509.84130859375	n/a	REC_WORD	3092155	wordpools/wasnorm_wordpool_576.txt	LTP367	ltpFR2	5	8	PLIERS	1089	n/a	n/a	0	0	0
1510.318359375	n/a	REC_WORD	3093132	wordpools/wasnorm_wordpool_576.txt	LTP367	ltpFR2	5	8	WRENCH	1625	n/a	n/a	0	0	0
1513.501953125	n/a	REC_WORD	3099652	wordpools/wasnorm_wordpool_576.txt	LTP367	ltpFR2	5	8	STALLION	1369	n/a	n/a	0	0	0
1514.9921875	n/a	REC_WORD	3102704	wordpools/wasnorm_wordpool_576.txt	LTP367	ltpFR2	5	8	WAGON	1578	n/a	n/a	0	0	0
1517.51904296875	n/a	REC_WORD	3107879	wordpools/wasnorm_wordpool_576.txt	LTP367	ltpFR2	5	8	OUTLAW	989	n/a	n/a	0	0	0
1518.0439453125	n/a	REC_WORD	3108954	wordpools/wasnorm_wordpool_576.txt	LTP367	ltpFR2	5	8	STAKE	1368	n/a	n/a	0	0	0
1518.951171875	n/a	REC_WORD	3110812	wordpools/wasnorm_wordpool_576.txt	LTP367	ltpFR2	5	8	LIZARD	834	n/a	n/a	0	0	0
1519.73486328125	n/a	REC_WORD	3112417	wordpools/wasnorm_wordpool_576.txt	LTP367	ltpFR2	5	8	VICTIM	1562	n/a	n/a	0	0	0
1520.44091796875	n/a	REC_WORD	3113863	wordpools/wasnorm_wordpool_576.txt	LTP367	ltpFR2	5	8	QUARTER	1148	n/a	n/a	0	0	0
1532.26171875	n/a	REC_WORD	3138072	wordpools/wasnorm_wordpool_576.txt	LTP367	ltpFR2	5	8	LAKE	796	n/a	n/a	0	0	0
1548.89111328125	n/a	REC_WORD	3172129	wordpools/wasnorm_wordpool_576.txt	LTP367	ltpFR2	5	8	UMPIRE	1535	n/a	n/a	0	0	0
1569.9013671875	n/a	REST_REWET	3215158	n/a	LTP367	ltpFR2	5	8	n/a	n/a	n/a	n/a	0	0	0
1637.16845703125	n/a	DISTRACTOR	3352921	n/a	LTP367	ltpFR2	5	9	n/a	n/a	n/a	n/a	0	0	0
1637.16845703125	n/a	START	3352921	n/a	LTP367	ltpFR2	5	n/a	n/a	n/a	13	n/a	n/a	n/a	n/a
1637.1845703125	n/a	PROB	3352954	n/a	LTP367	ltpFR2	5	n/a	n/a	n/a	13	18	4	6	8
1638.8564453125	n/a	PROB	3356378	n/a	LTP367	ltpFR2	5	n/a	n/a	n/a	13	11	6	2	3
1640.99755859375	n/a	PROB	3360763	n/a	LTP367	ltpFR2	5	n/a	n/a	n/a	13	18	9	1	8
1643.13720703125	n/a	PROB	3365145	n/a	LTP367	ltpFR2	5	n/a	n/a	n/a	13	22	7	6	9
1644.96044921875	n/a	PROB	3368879	n/a	LTP367	ltpFR2	5	n/a	n/a	n/a	13	8	1	2	5
1646.1640625	n/a	PROB	3371344	n/a	LTP367	ltpFR2	5	n/a	n/a	n/a	13	13	8	2	3
1647.4013671875	n/a	PROB	3373878	n/a	LTP367	ltpFR2	5	n/a	n/a	n/a	13	17	6	9	2
1649.42431640625	n/a	PROB	3378021	n/a	LTP367	ltpFR2	5	n/a	n/a	n/a	13	13	2	7	4
1652.26708984375	n/a	PROB	3383843	n/a	LTP367	ltpFR2	5	n/a	n/a	n/a	13	14	2	5	7
1654.541015625	n/a	PROB	3388500	n/a	LTP367	ltpFR2	5	n/a	n/a	n/a	13	15	8	2	5
1655.6279296875	n/a	PROB	3390726	n/a	LTP367	ltpFR2	5	n/a	n/a	n/a	13	12	5	1	6
1657.06591796875	n/a	PROB	3393671	n/a	LTP367	ltpFR2	5	n/a	n/a	n/a	13	8	1	3	4
1658.95361328125	n/a	PROB	3397537	n/a	LTP367	ltpFR2	5	n/a	n/a	n/a	13	12	1	3	8
1660.80859375	n/a	STOP	3401336	n/a	LTP367	ltpFR2	5	n/a	n/a	n/a	13	n/a	n/a	n/a	n/a
1662.0986328125	n/a	WORD	3403978	wordpools/wasnorm_wordpool_576.txt	LTP367	ltpFR2	5	9	CRAYON	401	n/a	n/a	0	0	0
1664.57275390625	n/a	WORD	3409045	wordpools/wasnorm_wordpool_576.txt	LTP367	ltpFR2	5	9	ULCER	1533	n/a	n/a	0	0	0
1667.19775390625	n/a	WORD	3414421	wordpools/wasnorm_wordpool_576.txt	LTP367	ltpFR2	5	9	INMATE	738	n/a	n/a	0	0	0
1669.67236328125	n/a	WORD	3419489	wordpools/wasnorm_wordpool_576.txt	LTP367	ltpFR2	5	9	BRACES	164	n/a	n/a	0	0	0
1672.197265625	n/a	WORD	3424660	wordpools/wasnorm_wordpool_576.txt	LTP367	ltpFR2	5	9	HERO	706	n/a	n/a	0	0	0
1674.6884765625	n/a	WORD	3429762	wordpools/wasnorm_wordpool_576.txt	LTP367	ltpFR2	5	9	BEEF	113	n/a	n/a	0	0	0
1677.4814453125	n/a	WORD	3435482	wordpools/wasnorm_wordpool_576.txt	LTP367	ltpFR2	5	9	BUTCHER	203	n/a	n/a	0	0	0
1680.17333984375	n/a	WORD	3440995	wordpools/wasnorm_wordpool_576.txt	LTP367	ltpFR2	5	9	TUBA	1515	n/a	n/a	0	0	0
1682.76318359375	n/a	WORD	3446299	wordpools/wasnorm_wordpool_576.txt	LTP367	ltpFR2	5	9	AGENT	10	n/a	n/a	0	0	0
1685.3388671875	n/a	WORD	3451574	wordpools/wasnorm_wordpool_576.txt	LTP367	ltpFR2	5	9	POLICE	1098	n/a	n/a	0	0	0
1688.06494140625	n/a	WORD	3457157	wordpools/wasnorm_wordpool_576.txt	LTP367	ltpFR2	5	9	NAPKIN	937	n/a	n/a	0	0	0
1690.85595703125	n/a	WORD	3462873	wordpools/wasnorm_wordpool_576.txt	LTP367	ltpFR2	5	9	SLIME	1327	n/a	n/a	0	0	0
1693.5986328125	n/a	WORD	3468490	wordpools/wasnorm_wordpool_576.txt	LTP367	ltpFR2	5	9	GREASE	660	n/a	n/a	0	0	0
1696.173828125	n/a	WORD	3473764	wordpools/wasnorm_wordpool_576.txt	LTP367	ltpFR2	5	9	SWAMP	1416	n/a	n/a	0	0	0
1698.91552734375	n/a	WORD	3479379	wordpools/wasnorm_wordpool_576.txt	LTP367	ltpFR2	5	9	SHIRT	1287	n/a	n/a	0	0	0
1701.37451171875	n/a	WORD	3484415	wordpools/wasnorm_wordpool_576.txt	LTP367	ltpFR2	5	9	PEBBLE	1035	n/a	n/a	0	0	0
1704.16650390625	n/a	WORD	3490133	wordpools/wasnorm_wordpool_576.txt	LTP367	ltpFR2	5	9	BUBBLE	183	n/a	n/a	0	0	0
1706.94140625	n/a	WORD	3495816	wordpools/wasnorm_wordpool_576.txt	LTP367	ltpFR2	5	9	BALLOON	75	n/a	n/a	0	0	0
1709.46728515625	n/a	WORD	3500989	wordpools/wasnorm_wordpool_576.txt	LTP367	ltpFR2	5	9	PECAN	1036	n/a	n/a	0	0	0
1711.95849609375	n/a	WORD	3506091	wordpools/wasnorm_wordpool_576.txt	LTP367	ltpFR2	5	9	KLEENEX	782	n/a	n/a	0	0	0
1714.4833984375	n/a	WORD	3511262	wordpools/wasnorm_wordpool_576.txt	LTP367	ltpFR2	5	9	ICEBERG	731	n/a	n/a	0	0	0
1717.14111328125	n/a	WORD	3516705	wordpools/wasnorm_wordpool_576.txt	LTP367	ltpFR2	5	9	RAFT	1159	n/a	n/a	0	0	0
1719.666015625	n/a	WORD	3521876	wordpools/wasnorm_wordpool_576.txt	LTP367	ltpFR2	5	9	BLENDER	136	n/a	n/a	0	0	0
1722.44189453125	n/a	WORD	3527561	wordpools/wasnorm_wordpool_576.txt	LTP367	ltpFR2	5	9	CAPTIVE	240	n/a	n/a	0	0	0
1724.046875	n/a	START	3530848	n/a	LTP367	ltpFR2	5	n/a	n/a	n/a	14	n/a	n/a	n/a	n/a
1725.046875	n/a	DISTRACTOR	3532896	n/a	LTP367	ltpFR2	5	9	n/a	n/a	n/a	n/a	0	0	0
1725.0498046875	n/a	PROB	3532902	n/a	LTP367	ltpFR2	5	n/a	n/a	n/a	14	12	4	7	1
1726.45458984375	n/a	PROB	3535779	n/a	LTP367	ltpFR2	5	n/a	n/a	n/a	14	11	6	2	3
1728.32763671875	n/a	PROB	3539615	n/a	LTP367	ltpFR2	5	n/a	n/a	n/a	14	17	7	5	5
1729.94873046875	n/a	PROB	3542935	n/a	LTP367	ltpFR2	5	n/a	n/a	n/a	14	24	8	7	7
1733.24365234375	n/a	PROB	3549683	n/a	LTP367	ltpFR2	5	n/a	n/a	n/a	14	17	6	4	7
1735.015625	n/a	PROB	3553312	n/a	LTP367	ltpFR2	5	n/a	n/a	n/a	14	13	2	5	6
1737.99169921875	n/a	PROB	3559407	n/a	LTP367	ltpFR2	5	n/a	n/a	n/a	14	19	8	4	7
1739.91357421875	n/a	PROB	3563343	n/a	LTP367	ltpFR2	5	n/a	n/a	n/a	14	17	8	3	6
1742.23828125	n/a	PROB	3568104	n/a	LTP367	ltpFR2	5	n/a	n/a	n/a	14	14	6	4	4
1743.67626953125	n/a	PROB	3571049	n/a	LTP367	ltpFR2	5	n/a	n/a	n/a	14	18	1	8	9
1745.21533203125	n/a	PROB	3574201	n/a	LTP367	ltpFR2	5	n/a	n/a	n/a	14	14	1	9	4
1746.537109375	n/a	STOP	3576908	n/a	LTP367	ltpFR2	5	n/a	n/a	n/a	14	n/a	n/a	n/a	n/a
1749.87890625	n/a	REC_START	3583752	n/a	LTP367	ltpFR2	5	9	n/a	n/a	n/a	n/a	0	0	0
1753.76806640625	n/a	REC_WORD	3591717	wordpools/wasnorm_wordpool_576.txt	LTP367	ltpFR2	5	9	CRAYON	401	n/a	n/a	0	0	0
1754.5400390625	n/a	REC_WORD	3593298	wordpools/wasnorm_wordpool_576.txt	LTP367	ltpFR2	5	9	ULCER	1533	n/a	n/a	0	0	0
1755.45703125	n/a	REC_WORD	3595176	wordpools/wasnorm_wordpool_576.txt	LTP367	ltpFR2	5	9	INMATE	738	n/a	n/a	0	0	0
1757.3828125	n/a	REC_WORD	3599120	wordpools/wasnorm_wordpool_576.txt	LTP367	ltpFR2	5	9	HERO	706	n/a	n/a	0	0	0
1760.39794921875	n/a	REC_WORD	3605295	wordpools/wasnorm_wordpool_576.txt	LTP367	ltpFR2	5	9	BUTCHER	203	n/a	n/a	0	0	0
1761.966796875	n/a	REC_WORD	3608508	wordpools/wasnorm_wordpool_576.txt	LTP367	ltpFR2	5	9	BEEF	113	n/a	n/a	0	0	0
1766.4833984375	n/a	REC_WORD	3617758	wordpools/wasnorm_wordpool_576.txt	LTP367	ltpFR2	5	9	AGENT	10	n/a	n/a	0	0	0
1767.3037109375	n/a	REC_WORD	3619438	wordpools/wasnorm_wordpool_576.txt	LTP367	ltpFR2	5	9	TUBA	1515	n/a	n/a	0	0	0
1768.0947265625	n/a	REC_WORD	3621058	wordpools/wasnorm_wordpool_576.txt	LTP367	ltpFR2	5	9	POLICE	1098	n/a	n/a	0	0	0
1769.66845703125	n/a	REC_WORD	3624281	wordpools/wasnorm_wordpool_576.txt	LTP367	ltpFR2	5	9	TISSUE	-1	n/a	n/a	0	0	0
1770.65576171875	n/a	REC_WORD	3626303	wordpools/wasnorm_wordpool_576.txt	LTP367	ltpFR2	5	9	SLIME	1327	n/a	n/a	0	0	0
1771.736328125	n/a	REC_WORD	3628516	wordpools/wasnorm_wordpool_576.txt	LTP367	ltpFR2	5	9	GREASE	660	n/a	n/a	0	0	0
1772.5244140625	n/a	REC_WORD	3630130	wordpools/wasnorm_wordpool_576.txt	LTP367	ltpFR2	5	9	SWAMP	1416	n/a	n/a	0	0	0
1774.36962890625	n/a	REC_WORD	3633909	wordpools/wasnorm_wordpool_576.txt	LTP367	ltpFR2	5	9	BUBBLE	183	n/a	n/a	0	0	0
1775.17138671875	n/a	REC_WORD	3635551	wordpools/wasnorm_wordpool_576.txt	LTP367	ltpFR2	5	9	BALLOON	75	n/a	n/a	0	0	0
1777.3173828125	n/a	REC_WORD	3639946	wordpools/wasnorm_wordpool_576.txt	LTP367	ltpFR2	5	9	KLEENEX	782	n/a	n/a	0	0	0
1780.07421875	n/a	REC_WORD	3645592	wordpools/wasnorm_wordpool_576.txt	LTP367	ltpFR2	5	9	ICEBERG	731	n/a	n/a	0	0	0
1782.42236328125	n/a	REC_WORD	3650401	wordpools/wasnorm_wordpool_576.txt	LTP367	ltpFR2	5	9	BLENDER	136	n/a	n/a	0	0	0
1783.5400390625	n/a	REC_WORD	3652690	wordpools/wasnorm_wordpool_576.txt	LTP367	ltpFR2	5	9	CAPTIVE	240	n/a	n/a	0	0	0
1800.07568359375	n/a	REC_WORD	3686555	wordpools/wasnorm_wordpool_576.txt	LTP367	ltpFR2	5	9	SHIRT	1287	n/a	n/a	0	0	0
1800.82763671875	n/a	REC_WORD	3688095	wordpools/wasnorm_wordpool_576.txt	LTP367	ltpFR2	5	9	PEBBLE	1035	n/a	n/a	0	0	0
1840.3203125	n/a	DISTRACTOR	3768976	n/a	LTP367	ltpFR2	5	10	n/a	n/a	n/a	n/a	0	0	0
1840.3203125	n/a	START	3768976	n/a	LTP367	ltpFR2	5	n/a	n/a	n/a	15	n/a	n/a	n/a	n/a
1840.33642578125	n/a	PROB	3769009	n/a	LTP367	ltpFR2	5	n/a	n/a	n/a	15	8	6	1	1
1841.607421875	n/a	PROB	3771612	n/a	LTP367	ltpFR2	5	n/a	n/a	n/a	15	12	1	6	5
1843.04541015625	n/a	PROB	3774557	n/a	LTP367	ltpFR2	5	n/a	n/a	n/a	15	5	1	2	2
1845.3525390625	n/a	PROB	3779282	n/a	LTP367	ltpFR2	5	n/a	n/a	n/a	15	19	7	7	5
1846.7890625	n/a	PROB	3782224	n/a	LTP367	ltpFR2	5	n/a	n/a	n/a	15	12	2	1	9
1849.43212890625	n/a	PROB	3787637	n/a	LTP367	ltpFR2	5	n/a	n/a	n/a	15	13	5	7	1
1850.9033203125	n/a	PROB	3790650	n/a	LTP367	ltpFR2	5	n/a	n/a	n/a	15	22	8	5	9
1854.1142578125	n/a	PROB	3797226	n/a	LTP367	ltpFR2	5	n/a	n/a	n/a	15	20	8	6	6
1856.05419921875	n/a	PROB	3801199	n/a	LTP367	ltpFR2	5	n/a	n/a	n/a	15	16	5	8	3
1857.77490234375	n/a	PROB	3804723	n/a	LTP367	ltpFR2	5	n/a	n/a	n/a	15	18	6	6	6
1859.1806640625	n/a	PROB	3807602	n/a	LTP367	ltpFR2	5	n/a	n/a	n/a	15	16	6	9	1
1860.68505859375	n/a	PROB	3810683	n/a	LTP367	ltpFR2	5	n/a	n/a	n/a	15	13	1	6	6
1862.0400390625	n/a	PROB	3813458	n/a	LTP367	ltpFR2	5	n/a	n/a	n/a	15	22	9	9	4
1863.9208984375	n/a	STOP	3817310	n/a	LTP367	ltpFR2	5	n/a	n/a	n/a	15	n/a	n/a	n/a	n/a
1865.517578125	n/a	WORD	3820580	wordpools/wasnorm_wordpool_576.txt	LTP367	ltpFR2	5	10	COUCH	386	n/a	n/a	0	0	0
1868.259765625	n/a	WORD	3826196	wordpools/wasnorm_wordpool_576.txt	LTP367	ltpFR2	5	10	TROUT	1511	n/a	n/a	0	0	0
1870.66748046875	n/a	WORD	3831127	wordpools/wasnorm_wordpool_576.txt	LTP367	ltpFR2	5	10	SCALLOP	1242	n/a	n/a	0	0	0
1873.29248046875	n/a	WORD	3836503	wordpools/wasnorm_wordpool_576.txt	LTP367	ltpFR2	5	10	ORCHID	982	n/a	n/a	0	0	0
1875.8994140625	n/a	WORD	3841842	wordpools/wasnorm_wordpool_576.txt	LTP367	ltpFR2	5	10	SCRIBBLE	1256	n/a	n/a	0	0	0
1878.50927734375	n/a	WORD	3847187	wordpools/wasnorm_wordpool_576.txt	LTP367	ltpFR2	5	10	GALLON	618	n/a	n/a	0	0	0
1881.28515625	n/a	WORD	3852872	wordpools/wasnorm_wordpool_576.txt	LTP367	ltpFR2	5	10	GLOBE	641	n/a	n/a	0	0	0
1883.9423828125	n/a	WORD	3858314	wordpools/wasnorm_wordpool_576.txt	LTP367	ltpFR2	5	10	POWDER	1117	n/a	n/a	0	0	0
1886.55224609375	n/a	WORD	3863659	wordpools/wasnorm_wordpool_576.txt	LTP367	ltpFR2	5	10	BULLET	194	n/a	n/a	0	0	0
1889.02587890625	n/a	WORD	3868725	wordpools/wasnorm_wordpool_576.txt	LTP367	ltpFR2	5	10	SHELF	1280	n/a	n/a	0	0	0
1891.53369140625	n/a	WORD	3873861	wordpools/wasnorm_wordpool_576.txt	LTP367	ltpFR2	5	10	POET	1095	n/a	n/a	0	0	0
1894.0927734375	n/a	WORD	3879102	wordpools/wasnorm_wordpool_576.txt	LTP367	ltpFR2	5	10	HANDBAG	684	n/a	n/a	0	0	0
1896.8505859375	n/a	WORD	3884750	wordpools/wasnorm_wordpool_576.txt	LTP367	ltpFR2	5	10	SKIRT	1319	n/a	n/a	0	0	0
1899.3427734375	n/a	WORD	3889854	wordpools/wasnorm_wordpool_576.txt	LTP367	ltpFR2	5	10	PASSAGE	1019	n/a	n/a	0	0	0
1902.0517578125	n/a	WORD	3895402	wordpools/wasnorm_wordpool_576.txt	LTP367	ltpFR2	5	10	FLIPPER	580	n/a	n/a	0	0	0
1904.70947265625	n/a	WORD	3900845	wordpools/wasnorm_wordpool_576.txt	LTP367	ltpFR2	5	10	ROBOT	1200	n/a	n/a	0	0	0
1907.25146484375	n/a	WORD	3906051	wordpools/wasnorm_wordpool_576.txt	LTP367	ltpFR2	5	10	FREEZER	604	n/a	n/a	0	0	0
1909.9931640625	n/a	WORD	3911666	wordpools/wasnorm_wordpool_576.txt	LTP367	ltpFR2	5	10	SPHINX	1349	n/a	n/a	0	0	0
1912.63525390625	n/a	WORD	3917077	wordpools/wasnorm_wordpool_576.txt	LTP367	ltpFR2	5	10	HOOK	715	n/a	n/a	0	0	0
1915.3271484375	n/a	WORD	3922590	wordpools/wasnorm_wordpool_576.txt	LTP367	ltpFR2	5	10	CELLAR	267	n/a	n/a	0	0	0
1917.88427734375	n/a	WORD	3927827	wordpools/wasnorm_wordpool_576.txt	LTP367	ltpFR2	5	10	RIFLE	1192	n/a	n/a	0	0	0
1920.42724609375	n/a	WORD	3933035	wordpools/wasnorm_wordpool_576.txt	LTP367	ltpFR2	5	10	SHARK	1275	n/a	n/a	0	0	0
1923.203125	n/a	WORD	3938720	wordpools/wasnorm_wordpool_576.txt	LTP367	ltpFR2	5	10	SHERIFF	1284	n/a	n/a	0	0	0
1925.89404296875	n/a	WORD	3944231	wordpools/wasnorm_wordpool_576.txt	LTP367	ltpFR2	5	10	BADGE	68	n/a	n/a	0	0	0
1927.5	n/a	START	3947520	n/a	LTP367	ltpFR2	5	n/a	n/a	n/a	16	n/a	n/a	n/a	n/a
1928.55859375	n/a	DISTRACTOR	3949688	n/a	LTP367	ltpFR2	5	10	n/a	n/a	n/a	n/a	0	0	0
1928.56982421875	n/a	PROB	3949711	n/a	LTP367	ltpFR2	5	n/a	n/a	n/a	16	17	4	6	7
1930.35888671875	n/a	PROB	3953375	n/a	LTP367	ltpFR2	5	n/a	n/a	n/a	16	14	7	3	4
1932.0478515625	n/a	PROB	3956834	n/a	LTP367	ltpFR2	5	n/a	n/a	n/a	16	22	8	7	7
1933.552734375	n/a	PROB	3959916	n/a	LTP367	ltpFR2	5	n/a	n/a	n/a	16	15	2	4	9
1937.53173828125	n/a	PROB	3968065	n/a	LTP367	ltpFR2	5	n/a	n/a	n/a	16	12	3	4	5
1939.17041015625	n/a	PROB	3971421	n/a	LTP367	ltpFR2	5	n/a	n/a	n/a	16	23	5	8	9
1942.04638671875	n/a	PROB	3977311	n/a	LTP367	ltpFR2	5	n/a	n/a	n/a	16	15	7	3	5
1943.267578125	n/a	PROB	3979812	n/a	LTP367	ltpFR2	5	n/a	n/a	n/a	16	22	9	4	9
1945.03955078125	n/a	PROB	3983441	n/a	LTP367	ltpFR2	5	n/a	n/a	n/a	16	20	5	6	9
1946.9111328125	n/a	PROB	3987274	n/a	LTP367	ltpFR2	5	n/a	n/a	n/a	16	13	5	7	1
1948.7333984375	n/a	PROB	3991006	n/a	LTP367	ltpFR2	5	n/a	n/a	n/a	16	13	5	5	3
1950.01708984375	n/a	STOP	3993635	n/a	LTP367	ltpFR2	5	n/a	n/a	n/a	16	n/a	n/a	n/a	n/a
1953.4169921875	n/a	REC_START	4000598	n/a	LTP367	ltpFR2	5	10	n/a	n/a	n/a	n/a	0	0	0
1954.1552734375	n/a	REC_WORD	4002110	wordpools/wasnorm_wordpool_576.txt	LTP367	ltpFR2	5	10	COUCH	386	n/a	n/a	0	0	0
1955.05126953125	n/a	REC_WORD	4003945	wordpools/wasnorm_wordpool_576.txt	LTP367	ltpFR2	5	10	TROUT	1511	n/a	n/a	0	0	0
1956.40185546875	n/a	REC_WORD	4006711	wordpools/wasnorm_wordpool_576.txt	LTP367	ltpFR2	5	10	SCALLOP	1242	n/a	n/a	0	0	0
1957.876953125	n/a	REC_WORD	4009732	wordpools/wasnorm_wordpool_576.txt	LTP367	ltpFR2	5	10	ORCHID	982	n/a	n/a	0	0	0
1960.58984375	n/a	REC_WORD	4015288	wordpools/wasnorm_wordpool_576.txt	LTP367	ltpFR2	5	10	SCRIBBLE	1256	n/a	n/a	0	0	0
1962.02978515625	n/a	REC_WORD	4018237	wordpools/wasnorm_wordpool_576.txt	LTP367	ltpFR2	5	10	GLOBE	641	n/a	n/a	0	0	0
1963.845703125	n/a	REC_WORD	4021956	wordpools/wasnorm_wordpool_576.txt	LTP367	ltpFR2	5	10	POWDER	1117	n/a	n/a	0	0	0
1964.962890625	n/a	REC_WORD	4024244	wordpools/wasnorm_wordpool_576.txt	LTP367	ltpFR2	5	10	BULLET	194	n/a	n/a	0	0	0
1965.91357421875	n/a	REC_WORD	4026191	wordpools/wasnorm_wordpool_576.txt	LTP367	ltpFR2	5	10	SHELF	1280	n/a	n/a	0	0	0
1967.24755859375	n/a	REC_WORD	4028923	wordpools/wasnorm_wordpool_576.txt	LTP367	ltpFR2	5	10	POET	1095	n/a	n/a	0	0	0
1968.09765625	n/a	REC_WORD	4030664	wordpools/wasnorm_wordpool_576.txt	LTP367	ltpFR2	5	10	SKIRT	1319	n/a	n/a	0	0	0
1969.45654296875	n/a	REC_WORD	4033447	wordpools/wasnorm_wordpool_576.txt	LTP367	ltpFR2	5	10	HANDBAG	684	n/a	n/a	0	0	0
1970.87353515625	n/a	REC_WORD	4036349	wordpools/wasnorm_wordpool_576.txt	LTP367	ltpFR2	5	10	PASSAGE	1019	n/a	n/a	0	0	0
1971.88671875	n/a	REC_WORD	4038424	wordpools/wasnorm_wordpool_576.txt	LTP367	ltpFR2	5	10	FLIPPER	580	n/a	n/a	0	0	0
1973.0947265625	n/a	REC_WORD	4040898	wordpools/wasnorm_wordpool_576.txt	LTP367	ltpFR2	5	10	FREEZER	604	n/a	n/a	0	0	0
1974.3193359375	n/a	REC_WORD	4043406	wordpools/wasnorm_wordpool_576.txt	LTP367	ltpFR2	5	10	ROBOT	1200	n/a	n/a	0	0	0
1976.13232421875	n/a	REC_WORD	4047119	wordpools/wasnorm_wordpool_576.txt	LTP367	ltpFR2	5	10	SPHINX	1349	n/a	n/a	0	0	0
1977.42626953125	n/a	REC_WORD	4049769	wordpools/wasnorm_wordpool_576.txt	LTP367	ltpFR2	5	10	HOOK	715	n/a	n/a	0	0	0
1978.46435546875	n/a	REC_WORD	4051895	wordpools/wasnorm_wordpool_576.txt	LTP367	ltpFR2	5	10	CELLAR	267	n/a	n/a	0	0	0
1980.35107421875	n/a	REC_WORD	4055759	wordpools/wasnorm_wordpool_576.txt	LTP367	ltpFR2	5	10	RIFLE	1192	n/a	n/a	0	0	0
1981.38134765625	n/a	REC_WORD	4057869	wordpools/wasnorm_wordpool_576.txt	LTP367	ltpFR2	5	10	SHARK	1275	n/a	n/a	0	0	0
1982.443359375	n/a	REC_WORD	4060044	wordpools/wasnorm_wordpool_576.txt	LTP367	ltpFR2	5	10	SHERIFF	1284	n/a	n/a	0	0	0
1983.5419921875	n/a	REC_WORD	4062294	wordpools/wasnorm_wordpool_576.txt	LTP367	ltpFR2	5	10	BADGE	68	n/a	n/a	0	0	0
2043.85546875	n/a	DISTRACTOR	4185816	n/a	LTP367	ltpFR2	5	11	n/a	n/a	n/a	n/a	0	0	0
2043.85546875	n/a	START	4185816	n/a	LTP367	ltpFR2	5	n/a	n/a	n/a	17	n/a	n/a	n/a	n/a
2043.87255859375	n/a	PROB	4185851	n/a	LTP367	ltpFR2	5	n/a	n/a	n/a	17	7	2	3	2
2045.42822265625	n/a	PROB	4189037	n/a	LTP367	ltpFR2	5	n/a	n/a	n/a	17	17	9	1	7
2047.30029296875	n/a	PROB	4192871	n/a	LTP367	ltpFR2	5	n/a	n/a	n/a	17	17	7	2	8
2048.83837890625	n/a	PROB	4196021	n/a	LTP367	ltpFR2	5	n/a	n/a	n/a	17	22	7	6	7
2050.6953125	n/a	PROB	4199824	n/a	LTP367	ltpFR2	5	n/a	n/a	n/a	17	14	5	4	5
2052.01611328125	n/a	PROB	4202529	n/a	LTP367	ltpFR2	5	n/a	n/a	n/a	17	11	6	1	4
2053.27001953125	n/a	PROB	4205097	n/a	LTP367	ltpFR2	5	n/a	n/a	n/a	17	17	7	2	8
2054.958984375	n/a	PROB	4208556	n/a	LTP367	ltpFR2	5	n/a	n/a	n/a	17	15	1	5	9
2056.34619140625	n/a	PROB	4211397	n/a	LTP367	ltpFR2	5	n/a	n/a	n/a	17	18	3	8	7
2057.8671875	n/a	PROB	4214512	n/a	LTP367	ltpFR2	5	n/a	n/a	n/a	17	15	6	4	5
2059.43994140625	n/a	PROB	4217733	n/a	LTP367	ltpFR2	5	n/a	n/a	n/a	17	18	4	9	5
2065.32470703125	n/a	PROB	4229785	n/a	LTP367	ltpFR2	5	n/a	n/a	n/a	17	24	7	9	8
2067.681640625	n/a	STOP	4234612	n/a	LTP367	ltpFR2	5	n/a	n/a	n/a	17	n/a	n/a	n/a	n/a
2068.75146484375	n/a	WORD	4236803	wordpools/wasnorm_wordpool_576.txt	LTP367	ltpFR2	5	11	OX	994	n/a	n/a	0	0	0
2071.3447265625	n/a	WORD	4242114	wordpools/wasnorm_wordpool_576.txt	LTP367	ltpFR2	5	11	BEAKER	104	n/a	n/a	0	0	0
2074.03662109375	n/a	WORD	4247627	wordpools/wasnorm_wordpool_576.txt	LTP367	ltpFR2	5	11	PRINCE	1124	n/a	n/a	0	0	0
2076.77734375	n/a	WORD	4253240	wordpools/wasnorm_wordpool_576.txt	LTP367	ltpFR2	5	11	PLUTO	1092	n/a	n/a	0	0	0
2079.58740234375	n/a	WORD	4258995	wordpools/wasnorm_wordpool_576.txt	LTP367	ltpFR2	5	11	CHEMIST	292	n/a	n/a	0	0	0
2082.04541015625	n/a	WORD	4264029	wordpools/wasnorm_wordpool_576.txt	LTP367	ltpFR2	5	11	DUST	508	n/a	n/a	0	0	0
2084.58740234375	n/a	WORD	4269235	wordpools/wasnorm_wordpool_576.txt	LTP367	ltpFR2	5	11	DUSTPAN	509	n/a	n/a	0	0	0
2087.279296875	n/a	WORD	4274748	wordpools/wasnorm_wordpool_576.txt	LTP367	ltpFR2	5	11	CRUTCH	417	n/a	n/a	0	0	0
2089.98779296875	n/a	WORD	4280295	wordpools/wasnorm_wordpool_576.txt	LTP367	ltpFR2	5	11	PADDING	999	n/a	n/a	0	0	0
2092.595703125	n/a	WORD	4285636	wordpools/wasnorm_wordpool_576.txt	LTP367	ltpFR2	5	11	GROUND	666	n/a	n/a	0	0	0
2095.18798828125	n/a	WORD	4290945	wordpools/wasnorm_wordpool_576.txt	LTP367	ltpFR2	5	11	ANKLE	24	n/a	n/a	0	0	0
2097.595703125	n/a	WORD	4295876	wordpools/wasnorm_wordpool_576.txt	LTP367	ltpFR2	5	11	LOFT	840	n/a	n/a	0	0	0
2100.13671875	n/a	WORD	4301080	wordpools/wasnorm_wordpool_576.txt	LTP367	ltpFR2	5	11	STAR	1373	n/a	n/a	0	0	0
2102.9287109375	n/a	WORD	4306798	wordpools/wasnorm_wordpool_576.txt	LTP367	ltpFR2	5	11	BISON	131	n/a	n/a	0	0	0
2105.42041015625	n/a	WORD	4311901	wordpools/wasnorm_wordpool_576.txt	LTP367	ltpFR2	5	11	PRINCESS	1125	n/a	n/a	0	0	0
2107.978515625	n/a	WORD	4317140	wordpools/wasnorm_wordpool_576.txt	LTP367	ltpFR2	5	11	STAMP	1370	n/a	n/a	0	0	0
2110.486328125	n/a	WORD	4322276	wordpools/wasnorm_wordpool_576.txt	LTP367	ltpFR2	5	11	ZEBRA	1635	n/a	n/a	0	0	0
2112.91015625	n/a	WORD	4327240	wordpools/wasnorm_wordpool_576.txt	LTP367	ltpFR2	5	11	LACE	792	n/a	n/a	0	0	0
2115.40234375	n/a	WORD	4332344	wordpools/wasnorm_wordpool_576.txt	LTP367	ltpFR2	5	11	PRIMATE	1123	n/a	n/a	0	0	0
2117.859375	n/a	WORD	4337376	wordpools/wasnorm_wordpool_576.txt	LTP367	ltpFR2	5	11	GRILL	661	n/a	n/a	0	0	0
2120.3349609375	n/a	WORD	4342446	wordpools/wasnorm_wordpool_576.txt	LTP367	ltpFR2	5	11	SPIDER	1351	n/a	n/a	0	0	0
2122.94287109375	n/a	WORD	4347787	wordpools/wasnorm_wordpool_576.txt	LTP367	ltpFR2	5	11	OFFICE	972	n/a	n/a	0	0	0
2125.634765625	n/a	WORD	4353300	wordpools/wasnorm_wordpool_576.txt	LTP367	ltpFR2	5	11	MEDAL	885	n/a	n/a	0	0	0
2128.2607421875	n/a	WORD	4358678	wordpools/wasnorm_wordpool_576.txt	LTP367	ltpFR2	5	11	AWARD	63	n/a	n/a	0	0	0
2129.86474609375	n/a	START	4361963	n/a	LTP367	ltpFR2	5	n/a	n/a	n/a	18	n/a	n/a	n/a	n/a
2130.7255859375	n/a	DISTRACTOR	4363726	n/a	LTP367	ltpFR2	5	11	n/a	n/a	n/a	n/a	0	0	0
2130.73388671875	n/a	PROB	4363743	n/a	LTP367	ltpFR2	5	n/a	n/a	n/a	18	12	6	2	4
2132.40673828125	n/a	PROB	4367169	n/a	LTP367	ltpFR2	5	n/a	n/a	n/a	18	9	2	4	3
2135.015625	n/a	PROB	4372512	n/a	LTP367	ltpFR2	5	n/a	n/a	n/a	18	16	7	2	7
2137.62353515625	n/a	PROB	4377853	n/a	LTP367	ltpFR2	5	n/a	n/a	n/a	18	13	6	3	4
2139.111328125	n/a	PROB	4380900	n/a	LTP367	ltpFR2	5	n/a	n/a	n/a	18	10	8	1	1
2140.3994140625	n/a	PROB	4383538	n/a	LTP367	ltpFR2	5	n/a	n/a	n/a	18	16	7	4	5
2142.65625	n/a	PROB	4388160	n/a	LTP367	ltpFR2	5	n/a	n/a	n/a	18	17	8	5	4
2144.98046875	n/a	PROB	4392920	n/a	LTP367	ltpFR2	5	n/a	n/a	n/a	18	6	1	1	4
2146.53515625	n/a	PROB	4396104	n/a	LTP367	ltpFR2	5	n/a	n/a	n/a	18	19	9	1	9
2147.990234375	n/a	PROB	4399084	n/a	LTP367	ltpFR2	5	n/a	n/a	n/a	18	16	4	9	3
2150.26416015625	n/a	PROB	4403741	n/a	LTP367	ltpFR2	5	n/a	n/a	n/a	18	22	9	4	9
2153.8642578125	n/a	STOP	4411114	n/a	LTP367	ltpFR2	5	n/a	n/a	n/a	18	n/a	n/a	n/a	n/a
2155.748046875	n/a	REC_START	4414972	n/a	LTP367	ltpFR2	5	11	n/a	n/a	n/a	n/a	0	0	0
2157.162109375	n/a	REC_WORD	4417868	wordpools/wasnorm_wordpool_576.txt	LTP367	ltpFR2	5	11	OX	994	n/a	n/a	0	0	0
2158.65185546875	n/a	REC_WORD	4420919	wordpools/wasnorm_wordpool_576.txt	LTP367	ltpFR2	5	11	PRINCE	1124	n/a	n/a	0	0	0
2161.28271484375	n/a	REC_WORD	4426307	wordpools/wasnorm_wordpool_576.txt	LTP367	ltpFR2	5	11	CHEMIST	292	n/a	n/a	0	0	0
2162.44091796875	n/a	REC_WORD	4428679	wordpools/wasnorm_wordpool_576.txt	LTP367	ltpFR2	5	11	BEAKER	104	n/a	n/a	0	0	0
2163.57080078125	n/a	REC_WORD	4430993	wordpools/wasnorm_wordpool_576.txt	LTP367	ltpFR2	5	11	PLUTO	1092	n/a	n/a	0	0	0
2164.7197265625	n/a	REC_WORD	4433346	wordpools/wasnorm_wordpool_576.txt	LTP367	ltpFR2	5	11	DUST	508	n/a	n/a	0	0	0
2167.18896484375	n/a	REC_WORD	4438403	wordpools/wasnorm_wordpool_576.txt	LTP367	ltpFR2	5	11	DUSTPAN	509	n/a	n/a	0	0	0
2168.74365234375	n/a	REC_WORD	4441587	wordpools/wasnorm_wordpool_576.txt	LTP367	ltpFR2	5	11	CRUTCH	417	n/a	n/a	0	0	0
2170.32373046875	n/a	REC_WORD	4444823	wordpools/wasnorm_wordpool_576.txt	LTP367	ltpFR2	5	11	ANKLE	24	n/a	n/a	0	0	0
2172.51953125	n/a	REC_WORD	4449320	wordpools/wasnorm_wordpool_576.txt	LTP367	ltpFR2	5	11	LOFT	840	n/a	n/a	0	0	0
2176.96533203125	n/a	REC_WORD	4458425	wordpools/wasnorm_wordpool_576.txt	LTP367	ltpFR2	5	11	BISON	131	n/a	n/a	0	0	0
2178.3486328125	n/a	REC_WORD	4461258	wordpools/wasnorm_wordpool_576.txt	LTP367	ltpFR2	5	11	PRINCESS	1125	n/a	n/a	0	0	0
2179.87841796875	n/a	REC_WORD	4464391	wordpools/wasnorm_wordpool_576.txt	LTP367	ltpFR2	5	11	STAMP	1370	n/a	n/a	0	0	0
2181.2724609375	n/a	REC_WORD	4467246	wordpools/wasnorm_wordpool_576.txt	LTP367	ltpFR2	5	11	STAR	1373	n/a	n/a	0	0	0
2184.54345703125	n/a	REC_WORD	4473945	wordpools/wasnorm_wordpool_576.txt	LTP367	ltpFR2	5	11	ZEBRA	1635	n/a	n/a	0	0	0
2186.3203125	n/a	REC_WORD	4477584	wordpools/wasnorm_wordpool_576.txt	LTP367	ltpFR2	5	11	LACE	792	n/a	n/a	0	0	0
2190.537109375	n/a	REC_WORD	4486220	wordpools/wasnorm_wordpool_576.txt	LTP367	ltpFR2	5	11	PRIMATE	1123	n/a	n/a	0	0	0
2191.7919921875	n/a	REC_WORD	4488790	wordpools/wasnorm_wordpool_576.txt	LTP367	ltpFR2	5	11	GRILL	661	n/a	n/a	0	0	0
2192.97119140625	n/a	REC_WORD	4491205	wordpools/wasnorm_wordpool_576.txt	LTP367	ltpFR2	5	11	SPIDER	1351	n/a	n/a	0	0	0
2194.74169921875	n/a	REC_WORD	4494831	wordpools/wasnorm_wordpool_576.txt	LTP367	ltpFR2	5	11	OFFICE	972	n/a	n/a	0	0	0
2195.9150390625	n/a	REC_WORD	4497234	wordpools/wasnorm_wordpool_576.txt	LTP367	ltpFR2	5	11	AWARD	63	n/a	n/a	0	0	0
2197.2646484375	n/a	REC_WORD	4499998	wordpools/wasnorm_wordpool_576.txt	LTP367	ltpFR2	5	11	MEDAL	885	n/a	n/a	0	0	0
2213.28515625	n/a	REC_WORD	4532808	wordpools/wasnorm_wordpool_576.txt	LTP367	ltpFR2	5	11	GROUND	666	n/a	n/a	0	0	0
2214.4775390625	n/a	REC_WORD	4535250	wordpools/wasnorm_wordpool_576.txt	LTP367	ltpFR2	5	11	PADDING	999	n/a	n/a	0	0	0
2246.1884765625	n/a	WORD	4600194	wordpools/wasnorm_wordpool_576.txt	LTP367	ltpFR2	5	12	PANTHER	1009	n/a	n/a	0	0	0
2248.7294921875	n/a	WORD	4605398	wordpools/wasnorm_wordpool_576.txt	LTP367	ltpFR2	5	12	BRIEFCASE	175	n/a	n/a	0	0	0
2251.42236328125	n/a	WORD	4610913	wordpools/wasnorm_wordpool_576.txt	LTP367	ltpFR2	5	12	FUNGUS	614	n/a	n/a	0	0	0
2254.23095703125	n/a	WORD	4616665	wordpools/wasnorm_wordpool_576.txt	LTP367	ltpFR2	5	12	LION	827	n/a	n/a	0	0	0
2256.671875	n/a	WORD	4621664	wordpools/wasnorm_wordpool_576.txt	LTP367	ltpFR2	5	12	PATIENT	1024	n/a	n/a	0	0	0
2259.39794921875	n/a	WORD	4627247	wordpools/wasnorm_wordpool_576.txt	LTP367	ltpFR2	5	12	PEANUT	1032	n/a	n/a	0	0	0
2261.87109375	n/a	WORD	4632312	wordpools/wasnorm_wordpool_576.txt	LTP367	ltpFR2	5	12	QUEEN	1149	n/a	n/a	0	0	0
2264.64794921875	n/a	WORD	4637999	wordpools/wasnorm_wordpool_576.txt	LTP367	ltpFR2	5	12	ISLAND	745	n/a	n/a	0	0	0
2267.306640625	n/a	WORD	4643444	wordpools/wasnorm_wordpool_576.txt	LTP367	ltpFR2	5	12	NECKLACE	940	n/a	n/a	0	0	0
2270.11572265625	n/a	WORD	4649197	wordpools/wasnorm_wordpool_576.txt	LTP367	ltpFR2	5	12	ITEM	746	n/a	n/a	0	0	0
2272.57373046875	n/a	WORD	4654231	wordpools/wasnorm_wordpool_576.txt	LTP367	ltpFR2	5	12	SAUSAGE	1238	n/a	n/a	0	0	0
2275.0146484375	n/a	WORD	4659230	wordpools/wasnorm_wordpool_576.txt	LTP367	ltpFR2	5	12	CROWN	415	n/a	n/a	0	0	0
2277.7724609375	n/a	WORD	4664878	wordpools/wasnorm_wordpool_576.txt	LTP367	ltpFR2	5	12	SEAFOOD	1260	n/a	n/a	0	0	0
2280.46533203125	n/a	WORD	4670393	wordpools/wasnorm_wordpool_576.txt	LTP367	ltpFR2	5	12	RABBIT	1152	n/a	n/a	0	0	0
2282.92236328125	n/a	WORD	4675425	wordpools/wasnorm_wordpool_576.txt	LTP367	ltpFR2	5	12	GLOVE	642	n/a	n/a	0	0	0
2285.3984375	n/a	WORD	4680496	wordpools/wasnorm_wordpool_576.txt	LTP367	ltpFR2	5	12	HAND	683	n/a	n/a	0	0	0
2287.87109375	n/a	WORD	4685560	wordpools/wasnorm_wordpool_576.txt	LTP367	ltpFR2	5	12	FIDDLE	561	n/a	n/a	0	0	0
2290.4140625	n/a	WORD	4690768	wordpools/wasnorm_wordpool_576.txt	LTP367	ltpFR2	5	12	MARKER	870	n/a	n/a	0	0	0
2292.98876953125	n/a	WORD	4696041	wordpools/wasnorm_wordpool_576.txt	LTP367	ltpFR2	5	12	PIGMENT	1066	n/a	n/a	0	0	0
2295.47998046875	n/a	WORD	4701143	wordpools/wasnorm_wordpool_576.txt	LTP367	ltpFR2	5	12	OUTDOORS	987	n/a	n/a	0	0	0
2298.22265625	n/a	WORD	4706760	wordpools/wasnorm_wordpool_576.txt	LTP367	ltpFR2	5	12	ELBOW	520	n/a	n/a	0	0	0
2300.9296875	n/a	WORD	4712304	wordpools/wasnorm_wordpool_576.txt	LTP367	ltpFR2	5	12	FOOT	590	n/a	n/a	0	0	0
2303.6728515625	n/a	WORD	4717922	wordpools/wasnorm_wordpool_576.txt	LTP367	ltpFR2	5	12	DAUGHTER	442	n/a	n/a	0	0	0
2306.1474609375	n/a	WORD	4722990	wordpools/wasnorm_wordpool_576.txt	LTP367	ltpFR2	5	12	FOREST	593	n/a	n/a	0	0	0
2307.75244140625	n/a	START	4726277	n/a	LTP367	ltpFR2	5	n/a	n/a	n/a	19	n/a	n/a	n/a	n/a
2308.84033203125	n/a	DISTRACTOR	4728505	n/a	LTP367	ltpFR2	5	12	n/a	n/a	n/a	n/a	0	0	0
2308.85546875	n/a	PROB	4728536	n/a	LTP367	ltpFR2	5	n/a	n/a	n/a	19	19	7	9	3
2310.41162109375	n/a	PROB	4731723	n/a	LTP367	ltpFR2	5	n/a	n/a	n/a	19	20	6	9	5
2312.55126953125	n/a	PROB	4736105	n/a	LTP367	ltpFR2	5	n/a	n/a	n/a	19	14	8	3	3
2314.44140625	n/a	PROB	4739976	n/a	LTP367	ltpFR2	5	n/a	n/a	n/a	19	19	8	9	2
2315.92822265625	n/a	PROB	4743021	n/a	LTP367	ltpFR2	5	n/a	n/a	n/a	19	13	8	4	1
2318.05224609375	n/a	PROB	4747371	n/a	LTP367	ltpFR2	5	n/a	n/a	n/a	19	6	1	1	4
2319.17333984375	n/a	PROB	4749667	n/a	LTP367	ltpFR2	5	n/a	n/a	n/a	19	11	3	4	4
2320.876953125	n/a	PROB	4753156	n/a	LTP367	ltpFR2	5	n/a	n/a	n/a	19	13	7	1	5
2322.39990234375	n/a	PROB	4756275	n/a	LTP367	ltpFR2	5	n/a	n/a	n/a	19	11	4	6	1
2323.5869140625	n/a	PROB	4758706	n/a	LTP367	ltpFR2	5	n/a	n/a	n/a	19	13	1	7	5
2325.67724609375	n/a	PROB	4762987	n/a	LTP367	ltpFR2	5	n/a	n/a	n/a	19	15	2	9	4
2327.5	n/a	PROB	4766720	n/a	LTP367	ltpFR2	5	n/a	n/a	n/a	19	14	4	9	1
2331.751953125	n/a	STOP	4775428	n/a	LTP367	ltpFR2	5	n/a	n/a	n/a	19	n/a	n/a	n/a	n/a
2333.5029296875	n/a	REC_START	4779014	n/a	LTP367	ltpFR2	5	12	n/a	n/a	n/a	n/a	0	0	0
2336.44287109375	n/a	REC_WORD	4785035	wordpools/wasnorm_wordpool_576.txt	LTP367	ltpFR2	5	12	PANTHER	1009	n/a	n/a	0	0	0
2337.3876953125	n/a	REC_WORD	4786970	wordpools/wasnorm_wordpool_576.txt	LTP367	ltpFR2	5	12	BRIEFCASE	175	n/a	n/a	0	0	0
2338.26171875	n/a	REC_WORD	4788760	wordpools/wasnorm_wordpool_576.txt	LTP367	ltpFR2	5	12	FUNGUS	614	n/a	n/a	0	0	0
2341.2783203125	n/a	REC_WORD	4794938	wordpools/wasnorm_wordpool_576.txt	LTP367	ltpFR2	5	12	LION	827	n/a	n/a	0	0	0
2342.435546875	n/a	REC_WORD	4797308	wordpools/wasnorm_wordpool_576.txt	LTP367	ltpFR2	5	12	PATIENT	1024	n/a	n/a	0	0	0
2343.431640625	n/a	REC_WORD	4799348	wordpools/wasnorm_wordpool_576.txt	LTP367	ltpFR2	5	12	QUEEN	1149	n/a	n/a	0	0	0
2344.6376953125	n/a	REC_WORD	4801818	wordpools/wasnorm_wordpool_576.txt	LTP367	ltpFR2	5	12	ISLAND	745	n/a	n/a	0	0	0
2345.58056640625	n/a	REC_WORD	4803749	wordpools/wasnorm_wordpool_576.txt	LTP367	ltpFR2	5	12	NECKLACE	940	n/a	n/a	0	0	0
2346.78515625	n/a	REC_WORD	4806216	wordpools/wasnorm_wordpool_576.txt	LTP367	ltpFR2	5	12	ITEM	746	n/a	n/a	0	0	0
2347.65625	n/a	REC_WORD	4808000	wordpools/wasnorm_wordpool_576.txt	LTP367	ltpFR2	5	12	SAUSAGE	1238	n/a	n/a	0	0	0
2348.8662109375	n/a	REC_WORD	4810478	wordpools/wasnorm_wordpool_576.txt	LTP367	ltpFR2	5	12	CROWN	415	n/a	n/a	0	0	0
2349.9873046875	n/a	REC_WORD	4812774	wordpools/wasnorm_wordpool_576.txt	LTP367	ltpFR2	5	12	SEAFOOD	1260	n/a	n/a	0	0	0
2351.2744140625	n/a	REC_WORD	4815410	wordpools/wasnorm_wordpool_576.txt	LTP367	ltpFR2	5	12	RABBIT	1152	n/a	n/a	0	0	0
2352.3642578125	n/a	REC_WORD	4817642	wordpools/wasnorm_wordpool_576.txt	LTP367	ltpFR2	5	12	HAND	683	n/a	n/a	0	0	0
2353.47705078125	n/a	REC_WORD	4819921	wordpools/wasnorm_wordpool_576.txt	LTP367	ltpFR2	5	12	GLOVE	642	n/a	n/a	0	0	0
2354.5849609375	n/a	REC_WORD	4822190	wordpools/wasnorm_wordpool_576.txt	LTP367	ltpFR2	5	12	FIDDLE	561	n/a	n/a	0	0	0
2355.84228515625	n/a	REC_WORD	4824765	wordpools/wasnorm_wordpool_576.txt	LTP367	ltpFR2	5	12	OUTDOORS	987	n/a	n/a	0	0	0
2357.10302734375	n/a	REC_WORD	4827347	wordpools/wasnorm_wordpool_576.txt	LTP367	ltpFR2	5	12	ELBOW	520	n/a	n/a	0	0	0
2358.01123046875	n/a	REC_WORD	4829207	wordpools/wasnorm_wordpool_576.txt	LTP367	ltpFR2	5	12	FOOT	590	n/a	n/a	0	0	0
2359.26318359375	n/a	REC_WORD	4831771	wordpools/wasnorm_wordpool_576.txt	LTP367	ltpFR2	5	12	DAUGHTER	442	n/a	n/a	0	0	0
2360.2177734375	n/a	REC_WORD	4833726	wordpools/wasnorm_wordpool_576.txt	LTP367	ltpFR2	5	12	FOREST	593	n/a	n/a	0	0	0
2367.892578125	n/a	REC_WORD	4849444	wordpools/wasnorm_wordpool_576.txt	LTP367	ltpFR2	5	12	MARKER	870	n/a	n/a	0	0	0
2368.98291015625	n/a	REC_WORD	4851677	wordpools/wasnorm_wordpool_576.txt	LTP367	ltpFR2	5	12	PIGMENT	1066	n/a	n/a	0	0	0
2423.94189453125	n/a	DISTRACTOR	4964233	n/a	LTP367	ltpFR2	5	13	n/a	n/a	n/a	n/a	0	0	0
2423.94287109375	n/a	START	4964235	n/a	LTP367	ltpFR2	5	n/a	n/a	n/a	20	n/a	n/a	n/a	n/a
2423.958984375	n/a	PROB	4964268	n/a	LTP367	ltpFR2	5	n/a	n/a	n/a	20	17	8	1	8
2427.0859375	n/a	PROB	4970672	n/a	LTP367	ltpFR2	5	n/a	n/a	n/a	20	14	2	5	7
2428.923828125	n/a	PROB	4974436	n/a	LTP367	ltpFR2	5	n/a	n/a	n/a	20	19	9	4	6
2430.4130859375	n/a	PROB	4977486	n/a	LTP367	ltpFR2	5	n/a	n/a	n/a	20	11	9	1	1
2431.583984375	n/a	PROB	4979884	n/a	LTP367	ltpFR2	5	n/a	n/a	n/a	20	25	8	9	8
2433.3056640625	n/a	PROB	4983410	n/a	LTP367	ltpFR2	5	n/a	n/a	n/a	20	13	5	7	1
2434.85986328125	n/a	PROB	4986593	n/a	LTP367	ltpFR2	5	n/a	n/a	n/a	20	5	1	2	2
2435.9296875	n/a	PROB	4988784	n/a	LTP367	ltpFR2	5	n/a	n/a	n/a	20	20	5	7	8
2437.552734375	n/a	PROB	4992108	n/a	LTP367	ltpFR2	5	n/a	n/a	n/a	20	15	4	5	6
2439.4755859375	n/a	PROB	4996046	n/a	LTP367	ltpFR2	5	n/a	n/a	n/a	20	12	4	5	3
2442.05078125	n/a	PROB	5001320	n/a	LTP367	ltpFR2	5	n/a	n/a	n/a	20	8	1	1	6
2443.28759765625	n/a	PROB	5003853	n/a	LTP367	ltpFR2	5	n/a	n/a	n/a	20	21	5	9	7
2445.361328125	n/a	PROB	5008100	n/a	LTP367	ltpFR2	5	n/a	n/a	n/a	20	15	1	6	8
2447.42529296875	n/a	STOP	5012327	n/a	LTP367	ltpFR2	5	n/a	n/a	n/a	20	n/a	n/a	n/a	n/a
2449.03955078125	n/a	WORD	5015633	wordpools/wasnorm_wordpool_576.txt	LTP367	ltpFR2	5	13	BURGLAR	200	n/a	n/a	0	0	0
2451.59814453125	n/a	WORD	5020873	wordpools/wasnorm_wordpool_576.txt	LTP367	ltpFR2	5	13	BOARD	143	n/a	n/a	0	0	0
2454.15625	n/a	WORD	5026112	wordpools/wasnorm_wordpool_576.txt	LTP367	ltpFR2	5	13	KNIFE	785	n/a	n/a	0	0	0
2456.64697265625	n/a	WORD	5031213	wordpools/wasnorm_wordpool_576.txt	LTP367	ltpFR2	5	13	MOTOR	922	n/a	n/a	0	0	0
2459.072265625	n/a	WORD	5036180	wordpools/wasnorm_wordpool_576.txt	LTP367	ltpFR2	5	13	BRANDY	169	n/a	n/a	0	0	0
2461.61279296875	n/a	WORD	5041383	wordpools/wasnorm_wordpool_576.txt	LTP367	ltpFR2	5	13	GIFT	635	n/a	n/a	0	0	0
2464.0380859375	n/a	WORD	5046350	wordpools/wasnorm_wordpool_576.txt	LTP367	ltpFR2	5	13	CIGAR	308	n/a	n/a	0	0	0
2466.49560546875	n/a	WORD	5051383	wordpools/wasnorm_wordpool_576.txt	LTP367	ltpFR2	5	13	SODA	1341	n/a	n/a	0	0	0
2469.28759765625	n/a	WORD	5057101	wordpools/wasnorm_wordpool_576.txt	LTP367	ltpFR2	5	13	LAVA	804	n/a	n/a	0	0	0
2471.86181640625	n/a	WORD	5062373	wordpools/wasnorm_wordpool_576.txt	LTP367	ltpFR2	5	13	YACHT	1629	n/a	n/a	0	0	0
2474.50439453125	n/a	WORD	5067785	wordpools/wasnorm_wordpool_576.txt	LTP367	ltpFR2	5	13	GRIZZLY	662	n/a	n/a	0	0	0
2476.96240234375	n/a	WORD	5072819	wordpools/wasnorm_wordpool_576.txt	LTP367	ltpFR2	5	13	BOX	159	n/a	n/a	0	0	0
2479.72021484375	n/a	WORD	5078467	wordpools/wasnorm_wordpool_576.txt	LTP367	ltpFR2	5	13	LIVER	833	n/a	n/a	0	0	0
2482.396484375	n/a	WORD	5083948	wordpools/wasnorm_wordpool_576.txt	LTP367	ltpFR2	5	13	KIDNEY	776	n/a	n/a	0	0	0
2485.13818359375	n/a	WORD	5089563	wordpools/wasnorm_wordpool_576.txt	LTP367	ltpFR2	5	13	DRUG	501	n/a	n/a	0	0	0
2487.79638671875	n/a	WORD	5095007	wordpools/wasnorm_wordpool_576.txt	LTP367	ltpFR2	5	13	LAMP	798	n/a	n/a	0	0	0
2490.5390625	n/a	WORD	5100624	wordpools/wasnorm_wordpool_576.txt	LTP367	ltpFR2	5	13	CHAMPAGNE	278	n/a	n/a	0	0	0
2493.06396484375	n/a	WORD	5105795	wordpools/wasnorm_wordpool_576.txt	LTP367	ltpFR2	5	13	TRANSPLANT	1496	n/a	n/a	0	0	0
2495.68896484375	n/a	WORD	5111171	wordpools/wasnorm_wordpool_576.txt	LTP367	ltpFR2	5	13	MARROW	872	n/a	n/a	0	0	0
2498.34765625	n/a	WORD	5116616	wordpools/wasnorm_wordpool_576.txt	LTP367	ltpFR2	5	13	SURVEY	1414	n/a	n/a	0	0	0
2501.1396484375	n/a	WORD	5122334	wordpools/wasnorm_wordpool_576.txt	LTP367	ltpFR2	5	13	BRICK	172	n/a	n/a	0	0	0
2503.66455078125	n/a	WORD	5127505	wordpools/wasnorm_wordpool_576.txt	LTP367	ltpFR2	5	13	KEEPER	769	n/a	n/a	0	0	0
2506.1728515625	n/a	WORD	5132642	wordpools/wasnorm_wordpool_576.txt	LTP367	ltpFR2	5	13	MISTER	901	n/a	n/a	0	0	0
2508.69775390625	n/a	WORD	5137813	wordpools/wasnorm_wordpool_576.txt	LTP367	ltpFR2	5	13	VIRUS	1572	n/a	n/a	0	0	0
2510.302734375	n/a	START	5141100	n/a	LTP367	ltpFR2	5	n/a	n/a	n/a	21	n/a	n/a	n/a	n/a
2511.4443359375	n/a	DISTRACTOR	5143438	n/a	LTP367	ltpFR2	5	13	n/a	n/a	n/a	n/a	0	0	0
2511.45654296875	n/a	PROB	5143463	n/a	LTP367	ltpFR2	5	n/a	n/a	n/a	21	17	9	3	5
2514.03125	n/a	PROB	5148736	n/a	LTP367	ltpFR2	5	n/a	n/a	n/a	21	7	1	2	4
2515.75244140625	n/a	PROB	5152261	n/a	LTP367	ltpFR2	5	n/a	n/a	n/a	21	19	7	4	8
2517.84228515625	n/a	PROB	5156541	n/a	LTP367	ltpFR2	5	n/a	n/a	n/a	21	13	8	2	3
2519.26513671875	n/a	PROB	5159455	n/a	LTP367	ltpFR2	5	n/a	n/a	n/a	21	11	2	1	8
2521.72119140625	n/a	PROB	5164485	n/a	LTP367	ltpFR2	5	n/a	n/a	n/a	21	15	6	2	7
2523.544921875	n/a	PROB	5168220	n/a	LTP367	ltpFR2	5	n/a	n/a	n/a	21	12	1	3	8
2525.451171875	n/a	PROB	5172124	n/a	LTP367	ltpFR2	5	n/a	n/a	n/a	21	13	1	4	8
2527.27392578125	n/a	PROB	5175857	n/a	LTP367	ltpFR2	5	n/a	n/a	n/a	21	6	2	1	3
2529.86474609375	n/a	PROB	5181163	n/a	LTP367	ltpFR2	5	n/a	n/a	n/a	21	14	5	5	4
2531.052734375	n/a	PROB	5183596	n/a	LTP367	ltpFR2	5	n/a	n/a	n/a	21	13	1	9	3
2532.49072265625	n/a	PROB	5186541	n/a	LTP367	ltpFR2	5	n/a	n/a	n/a	21	7	3	1	3
2533.68896484375	n/a	STOP	5188995	n/a	LTP367	ltpFR2	5	n/a	n/a	n/a	21	n/a	n/a	n/a	n/a
2536.169921875	n/a	REC_START	5194076	n/a	LTP367	ltpFR2	5	13	n/a	n/a	n/a	n/a	0	0	0
2540.2236328125	n/a	REC_WORD	5202378	wordpools/wasnorm_wordpool_576.txt	LTP367	ltpFR2	5	13	BOARD	143	n/a	n/a	0	0	0
2542.45458984375	n/a	REC_WORD	5206947	wordpools/wasnorm_wordpool_576.txt	LTP367	ltpFR2	5	13	BURGLAR	200	n/a	n/a	0	0	0
2543.193359375	n/a	REC_WORD	5208460	wordpools/wasnorm_wordpool_576.txt	LTP367	ltpFR2	5	13	MOTOR	922	n/a	n/a	0	0	0
2544.45849609375	n/a	REC_WORD	5211051	wordpools/wasnorm_wordpool_576.txt	LTP367	ltpFR2	5	13	KNIFE	785	n/a	n/a	0	0	0
2549.08740234375	n/a	REC_WORD	5220531	wordpools/wasnorm_wordpool_576.txt	LTP367	ltpFR2	5	13	BRANDY	169	n/a	n/a	0	0	0
2550.79345703125	n/a	REC_WORD	5224025	wordpools/wasnorm_wordpool_576.txt	LTP367	ltpFR2	5	13	GIFT	635	n/a	n/a	0	0	0
2553.572265625	n/a	REC_WORD	5229716	wordpools/wasnorm_wordpool_576.txt	LTP367	ltpFR2	5	13	CIGAR	308	n/a	n/a	0	0	0
2555.84814453125	n/a	REC_WORD	5234377	wordpools/wasnorm_wordpool_576.txt	LTP367	ltpFR2	5	13	SODA	1341	n/a	n/a	0	0	0
2558.123046875	n/a	REC_WORD	5239036	wordpools/wasnorm_wordpool_576.txt	LTP367	ltpFR2	5	13	VAVA	-1	n/a	n/a	0	0	0
2559.2880859375	n/a	REC_WORD	5241422	wordpools/wasnorm_wordpool_576.txt	LTP367	ltpFR2	5	13	YACHT	1629	n/a	n/a	0	0	0
2560.658203125	n/a	REC_WORD	5244228	wordpools/wasnorm_wordpool_576.txt	LTP367	ltpFR2	5	13	GRIZZLY	662	n/a	n/a	0	0	0
2562.38818359375	n/a	REC_WORD	5247771	wordpools/wasnorm_wordpool_576.txt	LTP367	ltpFR2	5	13	BOX	159	n/a	n/a	0	0	0
2566.720703125	n/a	REC_WORD	5256644	wordpools/wasnorm_wordpool_576.txt	LTP367	ltpFR2	5	13	LIVER	833	n/a	n/a	0	0	0
2569.12890625	n/a	REC_WORD	5261576	wordpools/wasnorm_wordpool_576.txt	LTP367	ltpFR2	5	13	KIDNEY	776	n/a	n/a	0	0	0
2571.5927734375	n/a	REC_WORD	5266622	wordpools/wasnorm_wordpool_576.txt	LTP367	ltpFR2	5	13	LAMP	798	n/a	n/a	0	0	0
2572.79248046875	n/a	REC_WORD	5269079	wordpools/wasnorm_wordpool_576.txt	LTP367	ltpFR2	5	13	CHAMPAGNE	278	n/a	n/a	0	0	0
2575.0146484375	n/a	REC_WORD	5273630	wordpools/wasnorm_wordpool_576.txt	LTP367	ltpFR2	5	13	TRANSPLANT	1496	n/a	n/a	0	0	0
2576.96435546875	n/a	REC_WORD	5277623	wordpools/wasnorm_wordpool_576.txt	LTP367	ltpFR2	5	13	MARROW	872	n/a	n/a	0	0	0
2579.59765625	n/a	REC_WORD	5283016	wordpools/wasnorm_wordpool_576.txt	LTP367	ltpFR2	5	13	BONE	148	n/a	n/a	0	0	0
2584.4365234375	n/a	REC_WORD	5292926	wordpools/wasnorm_wordpool_576.txt	LTP367	ltpFR2	5	13	MISTER	901	n/a	n/a	0	0	0
2585.1123046875	n/a	REC_WORD	5294310	wordpools/wasnorm_wordpool_576.txt	LTP367	ltpFR2	5	13	KEEPER	769	n/a	n/a	0	0	0
2626.6259765625	n/a	WORD	5379330	wordpools/wasnorm_wordpool_576.txt	LTP367	ltpFR2	5	14	OINTMENT	974	n/a	n/a	0	0	0
2629.40185546875	n/a	WORD	5385015	wordpools/wasnorm_wordpool_576.txt	LTP367	ltpFR2	5	14	MILK	895	n/a	n/a	0	0	0
2631.94287109375	n/a	WORD	5390219	wordpools/wasnorm_wordpool_576.txt	LTP367	ltpFR2	5	14	SILK	1307	n/a	n/a	0	0	0
2634.70068359375	n/a	WORD	5395867	wordpools/wasnorm_wordpool_576.txt	LTP367	ltpFR2	5	14	VELVET	1555	n/a	n/a	0	0	0
2637.49365234375	n/a	WORD	5401587	wordpools/wasnorm_wordpool_576.txt	LTP367	ltpFR2	5	14	HAMPER	682	n/a	n/a	0	0	0
2640.00244140625	n/a	WORD	5406725	wordpools/wasnorm_wordpool_576.txt	LTP367	ltpFR2	5	14	PARROT	1015	n/a	n/a	0	0	0
2642.66064453125	n/a	WORD	5412169	wordpools/wasnorm_wordpool_576.txt	LTP367	ltpFR2	5	14	COOKBOOK	373	n/a	n/a	0	0	0
2645.26953125	n/a	WORD	5417512	wordpools/wasnorm_wordpool_576.txt	LTP367	ltpFR2	5	14	TURNIP	1521	n/a	n/a	0	0	0
2648.07861328125	n/a	WORD	5423265	wordpools/wasnorm_wordpool_576.txt	LTP367	ltpFR2	5	14	LADY	794	n/a	n/a	0	0	0
2650.51953125	n/a	WORD	5428264	wordpools/wasnorm_wordpool_576.txt	LTP367	ltpFR2	5	14	BRANCH	168	n/a	n/a	0	0	0
2653.0771484375	n/a	WORD	5433502	wordpools/wasnorm_wordpool_576.txt	LTP367	ltpFR2	5	14	LUMBER	848	n/a	n/a	0	0	0
2655.818359375	n/a	WORD	5439116	wordpools/wasnorm_wordpool_576.txt	LTP367	ltpFR2	5	14	CATCHER	258	n/a	n/a	0	0	0
2658.578125	n/a	WORD	5444768	wordpools/wasnorm_wordpool_576.txt	LTP367	ltpFR2	5	14	TABLET	1427	n/a	n/a	0	0	0
2661.22021484375	n/a	WORD	5450179	wordpools/wasnorm_wordpool_576.txt	LTP367	ltpFR2	5	14	TRENCH	1503	n/a	n/a	0	0	0
2663.8779296875	n/a	WORD	5455622	wordpools/wasnorm_wordpool_576.txt	LTP367	ltpFR2	5	14	ATOM	55	n/a	n/a	0	0	0
2666.4541015625	n/a	WORD	5460898	wordpools/wasnorm_wordpool_576.txt	LTP367	ltpFR2	5	14	COCOON	339	n/a	n/a	0	0	0
2668.99462890625	n/a	WORD	5466101	wordpools/wasnorm_wordpool_576.txt	LTP367	ltpFR2	5	14	SUITCASE	1403	n/a	n/a	0	0	0
2671.4365234375	n/a	WORD	5471102	wordpools/wasnorm_wordpool_576.txt	LTP367	ltpFR2	5	14	MUSTARD	935	n/a	n/a	0	0	0
2673.96142578125	n/a	WORD	5476273	wordpools/wasnorm_wordpool_576.txt	LTP367	ltpFR2	5	14	RATTLE	1170	n/a	n/a	0	0	0
2676.76953125	n/a	WORD	5482024	wordpools/wasnorm_wordpool_576.txt	LTP367	ltpFR2	5	14	AUTHOR	61	n/a	n/a	0	0	0
2679.26171875	n/a	WORD	5487128	wordpools/wasnorm_wordpool_576.txt	LTP367	ltpFR2	5	14	SCULPTURE	1258	n/a	n/a	0	0	0
2681.818359375	n/a	WORD	5492364	wordpools/wasnorm_wordpool_576.txt	LTP367	ltpFR2	5	14	MAPLE	866	n/a	n/a	0	0	0
2684.62841796875	n/a	WORD	5498119	wordpools/wasnorm_wordpool_576.txt	LTP367	ltpFR2	5	14	RELISH	1183	n/a	n/a	0	0	0
2687.1875	n/a	WORD	5503360	wordpools/wasnorm_wordpool_576.txt	LTP367	ltpFR2	5	14	PARTNER	1017	n/a	n/a	0	0	0
2688.791015625	n/a	START	5506644	n/a	LTP367	ltpFR2	5	n/a	n/a	n/a	22	n/a	n/a	n/a	n/a
2689.6552734375	n/a	DISTRACTOR	5508414	n/a	LTP367	ltpFR2	5	14	n/a	n/a	n/a	n/a	0	0	0
2689.6611328125	n/a	PROB	5508426	n/a	LTP367	ltpFR2	5	n/a	n/a	n/a	22	8	1	1	6
2690.94921875	n/a	PROB	5511064	n/a	LTP367	ltpFR2	5	n/a	n/a	n/a	22	22	9	6	7
2693.52392578125	n/a	PROB	5516337	n/a	LTP367	ltpFR2	5	n/a	n/a	n/a	22	20	7	5	8
2696.75	n/a	PROB	5522944	n/a	LTP367	ltpFR2	5	n/a	n/a	n/a	22	6	1	1	4
2697.93798828125	n/a	PROB	5525377	n/a	LTP367	ltpFR2	5	n/a	n/a	n/a	22	21	6	8	7
2700.26171875	n/a	PROB	5530136	n/a	LTP367	ltpFR2	5	n/a	n/a	n/a	22	14	6	7	1
2701.64990234375	n/a	PROB	5532979	n/a	LTP367	ltpFR2	5	n/a	n/a	n/a	22	13	4	6	3
2704.69287109375	n/a	PROB	5539211	n/a	LTP367	ltpFR2	5	n/a	n/a	n/a	22	14	1	6	7
2706.3486328125	n/a	PROB	5542602	n/a	LTP367	ltpFR2	5	n/a	n/a	n/a	22	17	8	7	2
2707.9365234375	n/a	PROB	5545854	n/a	LTP367	ltpFR2	5	n/a	n/a	n/a	22	17	7	5	5
2710.21044921875	n/a	PROB	5550511	n/a	LTP367	ltpFR2	5	n/a	n/a	n/a	22	17	3	5	9
2712.353515625	n/a	STOP	5554900	n/a	LTP367	ltpFR2	5	n/a	n/a	n/a	22	n/a	n/a	n/a	n/a
2714.59228515625	n/a	REC_START	5559485	n/a	LTP367	ltpFR2	5	14	n/a	n/a	n/a	n/a	0	0	0
2715.90625	n/a	REC_WORD	5562176	wordpools/wasnorm_wordpool_576.txt	LTP367	ltpFR2	5	14	OINTMENT	974	n/a	n/a	0	0	0
2716.8515625	n/a	REC_WORD	5564112	wordpools/wasnorm_wordpool_576.txt	LTP367	ltpFR2	5	14	MILK	895	n/a	n/a	0	0	0
2718.30517578125	n/a	REC_WORD	5567089	wordpools/wasnorm_wordpool_576.txt	LTP367	ltpFR2	5	14	SILK	1307	n/a	n/a	0	0	0
2719.41650390625	n/a	REC_WORD	5569365	wordpools/wasnorm_wordpool_576.txt	LTP367	ltpFR2	5	14	VELVET	1555	n/a	n/a	0	0	0
2720.3671875	n/a	REC_WORD	5571312	wordpools/wasnorm_wordpool_576.txt	LTP367	ltpFR2	5	14	PARROT	1015	n/a	n/a	0	0	0
2721.201171875	n/a	REC_WORD	5573020	wordpools/wasnorm_wordpool_576.txt	LTP367	ltpFR2	5	14	HAMPER	682	n/a	n/a	0	0	0
2722.87841796875	n/a	REC_WORD	5576455	wordpools/wasnorm_wordpool_576.txt	LTP367	ltpFR2	5	14	COOKBOOK	373	n/a	n/a	0	0	0
2724.71337890625	n/a	REC_WORD	5580213	wordpools/wasnorm_wordpool_576.txt	LTP367	ltpFR2	5	14	TURNIP	1521	n/a	n/a	0	0	0
2725.88720703125	n/a	REC_WORD	5582617	wordpools/wasnorm_wordpool_576.txt	LTP367	ltpFR2	5	14	LADY	794	n/a	n/a	0	0	0
2727.60205078125	n/a	REC_WORD	5586129	wordpools/wasnorm_wordpool_576.txt	LTP367	ltpFR2	5	14	CATCHER	258	n/a	n/a	0	0	0
2729.0029296875	n/a	REC_WORD	5588998	wordpools/wasnorm_wordpool_576.txt	LTP367	ltpFR2	5	14	TRENCH	1503	n/a	n/a	0	0	0
2730.208984375	n/a	REC_WORD	5591468	wordpools/wasnorm_wordpool_576.txt	LTP367	ltpFR2	5	14	TABLET	1427	n/a	n/a	0	0	0
2731.6201171875	n/a	REC_WORD	5594358	wordpools/wasnorm_wordpool_576.txt	LTP367	ltpFR2	5	14	ATOM	55	n/a	n/a	0	0	0
2732.60498046875	n/a	REC_WORD	5596375	wordpools/wasnorm_wordpool_576.txt	LTP367	ltpFR2	5	14	COCOON	339	n/a	n/a	0	0	0
2733.955078125	n/a	REC_WORD	5599140	wordpools/wasnorm_wordpool_576.txt	LTP367	ltpFR2	5	14	SUITCASE	1403	n/a	n/a	0	0	0
2740.2275390625	n/a	REC_WORD	5611986	wordpools/wasnorm_wordpool_576.txt	LTP367	ltpFR2	5	14	MUSTARD	935	n/a	n/a	0	0	0
2741.2666015625	n/a	REC_WORD	5614114	wordpools/wasnorm_wordpool_576.txt	LTP367	ltpFR2	5	14	RATTLE	1170	n/a	n/a	0	0	0
2742.15869140625	n/a	REC_WORD	5615941	wordpools/wasnorm_wordpool_576.txt	LTP367	ltpFR2	5	14	AUTHOR	61	n/a	n/a	0	0	0
2743.01953125	n/a	REC_WORD	5617704	wordpools/wasnorm_wordpool_576.txt	LTP367	ltpFR2	5	14	SCULPTURE	1258	n/a	n/a	0	0	0
2747.486328125	n/a	REC_WORD	5626852	wordpools/wasnorm_wordpool_576.txt	LTP367	ltpFR2	5	14	RELISH	1183	n/a	n/a	0	0	0
