mstime	trial_type	stim_file	subject	experiment	session	trial	item_name	item_num	list	answer	test_x	test_y	test_z
0	SESS_START	n/a	LTP285	ltpFR2	19	n/a	n/a	n/a	n/a	n/a	0	0	0
17545	START	n/a	LTP285	ltpFR2	19	n/a	n/a	n/a	-1	n/a	n/a	n/a	n/a
17594	PROB	n/a	LTP285	ltpFR2	19	n/a	n/a	n/a	-1	13	4	8	1
18958	PROB	n/a	LTP285	ltpFR2	19	n/a	n/a	n/a	-1	13	9	2	2
20138	PROB	n/a	LTP285	ltpFR2	19	n/a	n/a	n/a	-1	19	4	8	7
21827	PROB	n/a	LTP285	ltpFR2	19	n/a	n/a	n/a	-1	16	3	7	6
23074	PROB	n/a	LTP285	ltpFR2	19	n/a	n/a	n/a	-1	25	8	8	9
24604	PROB	n/a	LTP285	ltpFR2	19	n/a	n/a	n/a	-1	20	4	8	8
26001	PROB	n/a	LTP285	ltpFR2	19	n/a	n/a	n/a	-1	14	9	4	1
27063	PROB	n/a	LTP285	ltpFR2	19	n/a	n/a	n/a	-1	20	6	8	6
28879	STOP	n/a	LTP285	ltpFR2	19	n/a	n/a	n/a	-1	n/a	n/a	n/a	n/a
68562	DISTRACTOR	n/a	LTP285	ltpFR2	19	1	n/a	n/a	n/a	n/a	0	0	0
68562	START	n/a	LTP285	ltpFR2	19	n/a	n/a	n/a	1	n/a	n/a	n/a	n/a
68612	PROB	n/a	LTP285	ltpFR2	19	n/a	n/a	n/a	1	20	8	6	8
70344	PROB	n/a	LTP285	ltpFR2	19	n/a	n/a	n/a	1	10	1	3	6
71357	PROB	n/a	LTP285	ltpFR2	19	n/a	n/a	n/a	1	21	3	9	9
72794	PROB	n/a	LTP285	ltpFR2	19	n/a	n/a	n/a	1	18	7	6	5
75496	PROB	n/a	LTP285	ltpFR2	19	n/a	n/a	n/a	1	20	6	8	6
77195	PROB	n/a	LTP285	ltpFR2	19	n/a	n/a	n/a	1	8	4	2	2
78449	PROB	n/a	LTP285	ltpFR2	19	n/a	n/a	n/a	1	8	3	1	5
79470	PROB	n/a	LTP285	ltpFR2	19	n/a	n/a	n/a	1	14	8	2	4
80866	PROB	n/a	LTP285	ltpFR2	19	n/a	n/a	n/a	1	12	5	6	1
81686	PROB	n/a	LTP285	ltpFR2	19	n/a	n/a	n/a	1	14	3	3	8
82823	PROB	n/a	LTP285	ltpFR2	19	n/a	n/a	n/a	1	19	1	9	9
83769	PROB	n/a	LTP285	ltpFR2	19	n/a	n/a	n/a	1	17	5	4	8
85500	PROB	n/a	LTP285	ltpFR2	19	n/a	n/a	n/a	1	20	6	8	8
86697	PROB	n/a	LTP285	ltpFR2	19	n/a	n/a	n/a	1	18	7	5	6
88738	PROB	n/a	LTP285	ltpFR2	19	n/a	n/a	n/a	1	14	5	5	4
89641	PROB	n/a	LTP285	ltpFR2	19	n/a	n/a	n/a	1	19	5	8	6
92280	STOP	n/a	LTP285	ltpFR2	19	n/a	n/a	n/a	1	n/a	n/a	n/a	n/a
93497	WORD	wordpools/wasnorm_wordpool_576.txt	LTP285	ltpFR2	19	1	CASKET	255	n/a	n/a	0	0	0
95932	WORD	wordpools/wasnorm_wordpool_576.txt	LTP285	ltpFR2	19	1	PROTON	1132	n/a	n/a	0	0	0
98675	WORD	wordpools/wasnorm_wordpool_576.txt	LTP285	ltpFR2	19	1	POSTAGE	1113	n/a	n/a	0	0	0
101286	WORD	wordpools/wasnorm_wordpool_576.txt	LTP285	ltpFR2	19	1	BADGE	68	n/a	n/a	0	0	0
103945	WORD	wordpools/wasnorm_wordpool_576.txt	LTP285	ltpFR2	19	1	WHISKERS	1605	n/a	n/a	0	0	0
106747	WORD	wordpools/wasnorm_wordpool_576.txt	LTP285	ltpFR2	19	1	SCALPEL	1243	n/a	n/a	0	0	0
109516	WORD	wordpools/wasnorm_wordpool_576.txt	LTP285	ltpFR2	19	1	STOVE	1388	n/a	n/a	0	0	0
112160	WORD	wordpools/wasnorm_wordpool_576.txt	LTP285	ltpFR2	19	1	CREVICE	405	n/a	n/a	0	0	0
114694	WORD	wordpools/wasnorm_wordpool_576.txt	LTP285	ltpFR2	19	1	SCISSORS	1250	n/a	n/a	0	0	0
117146	WORD	wordpools/wasnorm_wordpool_576.txt	LTP285	ltpFR2	19	1	PORK	1108	n/a	n/a	0	0	0
119587	WORD	wordpools/wasnorm_wordpool_576.txt	LTP285	ltpFR2	19	1	LASER	801	n/a	n/a	0	0	0
122190	WORD	wordpools/wasnorm_wordpool_576.txt	LTP285	ltpFR2	19	1	LAMP	798	n/a	n/a	0	0	0
124748	WORD	wordpools/wasnorm_wordpool_576.txt	LTP285	ltpFR2	19	1	BREAST	171	n/a	n/a	0	0	0
127484	WORD	wordpools/wasnorm_wordpool_576.txt	LTP285	ltpFR2	19	1	COMPASS	358	n/a	n/a	0	0	0
130128	WORD	wordpools/wasnorm_wordpool_576.txt	LTP285	ltpFR2	19	1	DRAWING	494	n/a	n/a	0	0	0
132570	WORD	wordpools/wasnorm_wordpool_576.txt	LTP285	ltpFR2	19	1	DRUG	501	n/a	n/a	0	0	0
135070	WORD	wordpools/wasnorm_wordpool_576.txt	LTP285	ltpFR2	19	1	WINDOW	1611	n/a	n/a	0	0	0
137580	WORD	wordpools/wasnorm_wordpool_576.txt	LTP285	ltpFR2	19	1	LOFT	840	n/a	n/a	0	0	0
140207	WORD	wordpools/wasnorm_wordpool_576.txt	LTP285	ltpFR2	19	1	YOLK	1633	n/a	n/a	0	0	0
143026	WORD	wordpools/wasnorm_wordpool_576.txt	LTP285	ltpFR2	19	1	ROOSTER	1209	n/a	n/a	0	0	0
145811	WORD	wordpools/wasnorm_wordpool_576.txt	LTP285	ltpFR2	19	1	LADDER	793	n/a	n/a	0	0	0
148580	WORD	wordpools/wasnorm_wordpool_576.txt	LTP285	ltpFR2	19	1	BLACKBOARD	133	n/a	n/a	0	0	0
151224	WORD	wordpools/wasnorm_wordpool_576.txt	LTP285	ltpFR2	19	1	COLLEGE	346	n/a	n/a	0	0	0
153883	WORD	wordpools/wasnorm_wordpool_576.txt	LTP285	ltpFR2	19	1	TOMBSTONE	1478	n/a	n/a	0	0	0
155498	START	n/a	LTP285	ltpFR2	19	n/a	n/a	n/a	2	n/a	n/a	n/a	n/a
156604	DISTRACTOR	n/a	LTP285	ltpFR2	19	1	n/a	n/a	n/a	n/a	0	0	0
156618	PROB	n/a	LTP285	ltpFR2	19	n/a	n/a	n/a	2	15	6	1	8
157781	PROB	n/a	LTP285	ltpFR2	19	n/a	n/a	n/a	2	11	6	4	1
158768	PROB	n/a	LTP285	ltpFR2	19	n/a	n/a	n/a	2	13	6	1	6
159739	PROB	n/a	LTP285	ltpFR2	19	n/a	n/a	n/a	2	14	5	1	8
160776	PROB	n/a	LTP285	ltpFR2	19	n/a	n/a	n/a	2	15	7	1	7
161687	PROB	n/a	LTP285	ltpFR2	19	n/a	n/a	n/a	2	16	5	8	3
163361	PROB	n/a	LTP285	ltpFR2	19	n/a	n/a	n/a	2	11	1	5	5
164465	PROB	n/a	LTP285	ltpFR2	19	n/a	n/a	n/a	2	20	7	8	5
165711	PROB	n/a	LTP285	ltpFR2	19	n/a	n/a	n/a	2	16	9	2	5
166933	PROB	n/a	LTP285	ltpFR2	19	n/a	n/a	n/a	2	15	7	7	1
167995	PROB	n/a	LTP285	ltpFR2	19	n/a	n/a	n/a	2	16	6	7	3
169242	PROB	n/a	LTP285	ltpFR2	19	n/a	n/a	n/a	2	7	2	2	3
170413	PROB	n/a	LTP285	ltpFR2	19	n/a	n/a	n/a	2	10	1	2	7
171375	PROB	n/a	LTP285	ltpFR2	19	n/a	n/a	n/a	2	13	3	5	5
172395	PROB	n/a	LTP285	ltpFR2	19	n/a	n/a	n/a	2	15	2	6	7
174386	PROB	n/a	LTP285	ltpFR2	19	n/a	n/a	n/a	2	13	2	7	4
175791	PROB	n/a	LTP285	ltpFR2	19	n/a	n/a	n/a	2	13	5	6	2
177062	PROB	n/a	LTP285	ltpFR2	19	n/a	n/a	n/a	2	13	9	3	1
178015	STOP	n/a	LTP285	ltpFR2	19	n/a	n/a	n/a	2	n/a	n/a	n/a	n/a
181305	REC_START	n/a	LTP285	ltpFR2	19	1	n/a	n/a	n/a	n/a	0	0	0
182097	REC_WORD	wordpools/wasnorm_wordpool_576.txt	LTP285	ltpFR2	19	1	CASKET	255	n/a	n/a	0	0	0
183249	REC_WORD	wordpools/wasnorm_wordpool_576.txt	LTP285	ltpFR2	19	1	TOMBSTONE	1478	n/a	n/a	0	0	0
184651	REC_WORD	wordpools/wasnorm_wordpool_576.txt	LTP285	ltpFR2	19	1	CREVICE	405	n/a	n/a	0	0	0
186240	REC_WORD	wordpools/wasnorm_wordpool_576.txt	LTP285	ltpFR2	19	1	BLACKBOARD	133	n/a	n/a	0	0	0
188076	REC_WORD	wordpools/wasnorm_wordpool_576.txt	LTP285	ltpFR2	19	1	LASER	801	n/a	n/a	0	0	0
189489	REC_WORD	wordpools/wasnorm_wordpool_576.txt	LTP285	ltpFR2	19	1	SCALPEL	1243	n/a	n/a	0	0	0
191010	REC_WORD	wordpools/wasnorm_wordpool_576.txt	LTP285	ltpFR2	19	1	SCISSORS	1250	n/a	n/a	0	0	0
192736	REC_WORD	wordpools/wasnorm_wordpool_576.txt	LTP285	ltpFR2	19	1	BREAST	171	n/a	n/a	0	0	0
194336	REC_WORD	wordpools/wasnorm_wordpool_576.txt	LTP285	ltpFR2	19	1	WINDOW	1611	n/a	n/a	0	0	0
198152	REC_WORD	wordpools/wasnorm_wordpool_576.txt	LTP285	ltpFR2	19	1	ROOSTER	1209	n/a	n/a	0	0	0
209053	REC_WORD	wordpools/wasnorm_wordpool_576.txt	LTP285	ltpFR2	19	1	NEUTRON	947	n/a	n/a	0	0	0
236878	REC_WORD	wordpools/wasnorm_wordpool_576.txt	LTP285	ltpFR2	19	1	YOLK	1633	n/a	n/a	0	0	0
244302	REC_WORD	wordpools/wasnorm_wordpool_576.txt	LTP285	ltpFR2	19	1	WHISKERS	1605	n/a	n/a	0	0	0
272414	WORD	wordpools/wasnorm_wordpool_576.txt	LTP285	ltpFR2	19	2	STREAM	1392	n/a	n/a	0	0	0
275133	WORD	wordpools/wasnorm_wordpool_576.txt	LTP285	ltpFR2	19	2	HATCHET	691	n/a	n/a	0	0	0
277817	WORD	wordpools/wasnorm_wordpool_576.txt	LTP285	ltpFR2	19	2	SWORD	1423	n/a	n/a	0	0	0
280468	WORD	wordpools/wasnorm_wordpool_576.txt	LTP285	ltpFR2	19	2	MONSTER	912	n/a	n/a	0	0	0
283020	WORD	wordpools/wasnorm_wordpool_576.txt	LTP285	ltpFR2	19	2	SEAL	1262	n/a	n/a	0	0	0
285647	WORD	wordpools/wasnorm_wordpool_576.txt	LTP285	ltpFR2	19	2	HEADBAND	696	n/a	n/a	0	0	0
288291	WORD	wordpools/wasnorm_wordpool_576.txt	LTP285	ltpFR2	19	2	TEMPLE	1448	n/a	n/a	0	0	0
290749	WORD	wordpools/wasnorm_wordpool_576.txt	LTP285	ltpFR2	19	2	PIGEON	1065	n/a	n/a	0	0	0
293251	WORD	wordpools/wasnorm_wordpool_576.txt	LTP285	ltpFR2	19	2	ROCKET	1202	n/a	n/a	0	0	0
295977	WORD	wordpools/wasnorm_wordpool_576.txt	LTP285	ltpFR2	19	2	DONOR	485	n/a	n/a	0	0	0
298720	WORD	wordpools/wasnorm_wordpool_576.txt	LTP285	ltpFR2	19	2	TYPIST	1532	n/a	n/a	0	0	0
301264	WORD	wordpools/wasnorm_wordpool_576.txt	LTP285	ltpFR2	19	2	BUREAU	199	n/a	n/a	0	0	0
303706	WORD	wordpools/wasnorm_wordpool_576.txt	LTP285	ltpFR2	19	2	QUARTER	1148	n/a	n/a	0	0	0
306392	WORD	wordpools/wasnorm_wordpool_576.txt	LTP285	ltpFR2	19	2	SLOPE	1328	n/a	n/a	0	0	0
308817	WORD	wordpools/wasnorm_wordpool_576.txt	LTP285	ltpFR2	19	2	CLIMBER	323	n/a	n/a	0	0	0
311344	WORD	wordpools/wasnorm_wordpool_576.txt	LTP285	ltpFR2	19	2	COUCH	386	n/a	n/a	0	0	0
313894	WORD	wordpools/wasnorm_wordpool_576.txt	LTP285	ltpFR2	19	2	GOBLIN	645	n/a	n/a	0	0	0
316397	WORD	wordpools/wasnorm_wordpool_576.txt	LTP285	ltpFR2	19	2	DENIM	446	n/a	n/a	0	0	0
319047	WORD	wordpools/wasnorm_wordpool_576.txt	LTP285	ltpFR2	19	2	SERVER	1272	n/a	n/a	0	0	0
321791	WORD	wordpools/wasnorm_wordpool_576.txt	LTP285	ltpFR2	19	2	SWAMP	1416	n/a	n/a	0	0	0
324568	WORD	wordpools/wasnorm_wordpool_576.txt	LTP285	ltpFR2	19	2	DRINK	498	n/a	n/a	0	0	0
327103	WORD	wordpools/wasnorm_wordpool_576.txt	LTP285	ltpFR2	19	2	MISSILE	900	n/a	n/a	0	0	0
329746	WORD	wordpools/wasnorm_wordpool_576.txt	LTP285	ltpFR2	19	2	PARROT	1015	n/a	n/a	0	0	0
332190	WORD	wordpools/wasnorm_wordpool_576.txt	LTP285	ltpFR2	19	2	FLUTE	585	n/a	n/a	0	0	0
333803	START	n/a	LTP285	ltpFR2	19	n/a	n/a	n/a	3	n/a	n/a	n/a	n/a
334918	DISTRACTOR	n/a	LTP285	ltpFR2	19	2	n/a	n/a	n/a	n/a	0	0	0
334932	PROB	n/a	LTP285	ltpFR2	19	n/a	n/a	n/a	3	17	1	9	7
336789	PROB	n/a	LTP285	ltpFR2	19	n/a	n/a	n/a	3	11	6	1	4
337709	PROB	n/a	LTP285	ltpFR2	19	n/a	n/a	n/a	3	16	8	6	2
338964	PROB	n/a	LTP285	ltpFR2	19	n/a	n/a	n/a	3	17	9	4	4
340120	PROB	n/a	LTP285	ltpFR2	19	n/a	n/a	n/a	3	15	1	9	5
341013	PROB	n/a	LTP285	ltpFR2	19	n/a	n/a	n/a	3	12	7	2	3
342118	PROB	n/a	LTP285	ltpFR2	19	n/a	n/a	n/a	3	18	9	3	6
344218	PROB	n/a	LTP285	ltpFR2	19	n/a	n/a	n/a	3	4	2	1	1
345079	PROB	n/a	LTP285	ltpFR2	19	n/a	n/a	n/a	3	12	1	5	6
345991	PROB	n/a	LTP285	ltpFR2	19	n/a	n/a	n/a	3	11	1	4	6
346877	PROB	n/a	LTP285	ltpFR2	19	n/a	n/a	n/a	3	17	1	7	9
348392	PROB	n/a	LTP285	ltpFR2	19	n/a	n/a	n/a	3	12	2	7	4
352047	PROB	n/a	LTP285	ltpFR2	19	n/a	n/a	n/a	3	9	1	7	1
353017	PROB	n/a	LTP285	ltpFR2	19	n/a	n/a	n/a	3	20	9	5	6
354422	PROB	n/a	LTP285	ltpFR2	19	n/a	n/a	n/a	3	12	1	5	6
355260	PROB	n/a	LTP285	ltpFR2	19	n/a	n/a	n/a	3	15	6	2	7
356687	STOP	n/a	LTP285	ltpFR2	19	n/a	n/a	n/a	3	n/a	n/a	n/a	n/a
359626	REC_START	n/a	LTP285	ltpFR2	19	2	n/a	n/a	n/a	n/a	0	0	0
360420	REC_WORD	wordpools/wasnorm_wordpool_576.txt	LTP285	ltpFR2	19	2	MISSILE	900	n/a	n/a	0	0	0
361573	REC_WORD	wordpools/wasnorm_wordpool_576.txt	LTP285	ltpFR2	19	2	PARROT	1015	n/a	n/a	0	0	0
362774	REC_WORD	wordpools/wasnorm_wordpool_576.txt	LTP285	ltpFR2	19	2	STREAM	1392	n/a	n/a	0	0	0
364117	REC_WORD	wordpools/wasnorm_wordpool_576.txt	LTP285	ltpFR2	19	2	HATCHET	691	n/a	n/a	0	0	0
365327	REC_WORD	wordpools/wasnorm_wordpool_576.txt	LTP285	ltpFR2	19	2	HEADBAND	696	n/a	n/a	0	0	0
367219	REC_WORD	wordpools/wasnorm_wordpool_576.txt	LTP285	ltpFR2	19	2	QUARTER	1148	n/a	n/a	0	0	0
387293	REC_WORD	wordpools/wasnorm_wordpool_576.txt	LTP285	ltpFR2	19	2	LADDER	793	n/a	n/a	0	0	0
395652	REC_WORD	wordpools/wasnorm_wordpool_576.txt	LTP285	ltpFR2	19	2	DENIM	446	n/a	n/a	0	0	0
402382	REC_WORD	wordpools/wasnorm_wordpool_576.txt	LTP285	ltpFR2	19	2	TYPIST	1532	n/a	n/a	0	0	0
405413	REC_WORD	wordpools/wasnorm_wordpool_576.txt	LTP285	ltpFR2	19	2	WAITER	1580	n/a	n/a	0	0	0
409597	REC_WORD	wordpools/wasnorm_wordpool_576.txt	LTP285	ltpFR2	19	2	CLIMBER	323	n/a	n/a	0	0	0
411124	REC_WORD	wordpools/wasnorm_wordpool_576.txt	LTP285	ltpFR2	19	2	SLOPE	1328	n/a	n/a	0	0	0
450643	DISTRACTOR	n/a	LTP285	ltpFR2	19	3	n/a	n/a	n/a	n/a	0	0	0
450643	START	n/a	LTP285	ltpFR2	19	n/a	n/a	n/a	4	n/a	n/a	n/a	n/a
450693	PROB	n/a	LTP285	ltpFR2	19	n/a	n/a	n/a	4	17	5	3	9
452074	PROB	n/a	LTP285	ltpFR2	19	n/a	n/a	n/a	4	21	8	9	4
454433	PROB	n/a	LTP285	ltpFR2	19	n/a	n/a	n/a	4	15	4	6	5
455444	PROB	n/a	LTP285	ltpFR2	19	n/a	n/a	n/a	4	17	7	8	2
456741	PROB	n/a	LTP285	ltpFR2	19	n/a	n/a	n/a	4	16	9	6	1
457686	PROB	n/a	LTP285	ltpFR2	19	n/a	n/a	n/a	4	14	8	1	5
459218	PROB	n/a	LTP285	ltpFR2	19	n/a	n/a	n/a	4	10	5	2	3
460731	PROB	n/a	LTP285	ltpFR2	19	n/a	n/a	n/a	4	10	4	3	3
462137	PROB	n/a	LTP285	ltpFR2	19	n/a	n/a	n/a	4	17	6	9	2
463601	PROB	n/a	LTP285	ltpFR2	19	n/a	n/a	n/a	4	19	5	5	9
464545	PROB	n/a	LTP285	ltpFR2	19	n/a	n/a	n/a	4	12	6	4	2
465583	PROB	n/a	LTP285	ltpFR2	19	n/a	n/a	n/a	4	15	6	4	5
466595	PROB	n/a	LTP285	ltpFR2	19	n/a	n/a	n/a	4	14	6	3	5
468510	PROB	n/a	LTP285	ltpFR2	19	n/a	n/a	n/a	4	14	4	1	9
469523	PROB	n/a	LTP285	ltpFR2	19	n/a	n/a	n/a	4	16	3	5	8
470769	PROB	n/a	LTP285	ltpFR2	19	n/a	n/a	n/a	4	9	5	3	1
472442	PROB	n/a	LTP285	ltpFR2	19	n/a	n/a	n/a	4	17	7	1	9
474095	STOP	n/a	LTP285	ltpFR2	19	n/a	n/a	n/a	4	n/a	n/a	n/a	n/a
475546	WORD	wordpools/wasnorm_wordpool_576.txt	LTP285	ltpFR2	19	3	MAMMAL	861	n/a	n/a	0	0	0
478282	WORD	wordpools/wasnorm_wordpool_576.txt	LTP285	ltpFR2	19	3	CREATURE	403	n/a	n/a	0	0	0
480924	WORD	wordpools/wasnorm_wordpool_576.txt	LTP285	ltpFR2	19	3	RECEIPT	1173	n/a	n/a	0	0	0
483459	WORD	wordpools/wasnorm_wordpool_576.txt	LTP285	ltpFR2	19	3	HUSBAND	728	n/a	n/a	0	0	0
485926	WORD	wordpools/wasnorm_wordpool_576.txt	LTP285	ltpFR2	19	3	SUITCASE	1403	n/a	n/a	0	0	0
488595	WORD	wordpools/wasnorm_wordpool_576.txt	LTP285	ltpFR2	19	3	MAILBOX	857	n/a	n/a	0	0	0
491314	WORD	wordpools/wasnorm_wordpool_576.txt	LTP285	ltpFR2	19	3	ROBBER	1197	n/a	n/a	0	0	0
493764	WORD	wordpools/wasnorm_wordpool_576.txt	LTP285	ltpFR2	19	3	CANYON	235	n/a	n/a	0	0	0
496533	WORD	wordpools/wasnorm_wordpool_576.txt	LTP285	ltpFR2	19	3	PAPER	1011	n/a	n/a	0	0	0
499328	WORD	wordpools/wasnorm_wordpool_576.txt	LTP285	ltpFR2	19	3	PALACE	1006	n/a	n/a	0	0	0
501962	WORD	wordpools/wasnorm_wordpool_576.txt	LTP285	ltpFR2	19	3	THRONE	1461	n/a	n/a	0	0	0
504697	WORD	wordpools/wasnorm_wordpool_576.txt	LTP285	ltpFR2	19	3	MUMMY	932	n/a	n/a	0	0	0
507233	WORD	wordpools/wasnorm_wordpool_576.txt	LTP285	ltpFR2	19	3	SUNRISE	1407	n/a	n/a	0	0	0
509825	WORD	wordpools/wasnorm_wordpool_576.txt	LTP285	ltpFR2	19	3	CRATER	400	n/a	n/a	0	0	0
512402	WORD	wordpools/wasnorm_wordpool_576.txt	LTP285	ltpFR2	19	3	FOX	598	n/a	n/a	0	0	0
515120	WORD	wordpools/wasnorm_wordpool_576.txt	LTP285	ltpFR2	19	3	RELISH	1183	n/a	n/a	0	0	0
517746	WORD	wordpools/wasnorm_wordpool_576.txt	LTP285	ltpFR2	19	3	CEILING	265	n/a	n/a	0	0	0
520565	WORD	wordpools/wasnorm_wordpool_576.txt	LTP285	ltpFR2	19	3	SUSPECT	1415	n/a	n/a	0	0	0
522999	WORD	wordpools/wasnorm_wordpool_576.txt	LTP285	ltpFR2	19	3	ULCER	1533	n/a	n/a	0	0	0
525634	WORD	wordpools/wasnorm_wordpool_576.txt	LTP285	ltpFR2	19	3	HOSTESS	723	n/a	n/a	0	0	0
528370	WORD	wordpools/wasnorm_wordpool_576.txt	LTP285	ltpFR2	19	3	TART	1436	n/a	n/a	0	0	0
530854	WORD	wordpools/wasnorm_wordpool_576.txt	LTP285	ltpFR2	19	3	LUGGAGE	847	n/a	n/a	0	0	0
533556	WORD	wordpools/wasnorm_wordpool_576.txt	LTP285	ltpFR2	19	3	JUNGLE	764	n/a	n/a	0	0	0
536367	WORD	wordpools/wasnorm_wordpool_576.txt	LTP285	ltpFR2	19	3	SCOTCH	1251	n/a	n/a	0	0	0
537981	START	n/a	LTP285	ltpFR2	19	n/a	n/a	n/a	5	n/a	n/a	n/a	n/a
538998	DISTRACTOR	n/a	LTP285	ltpFR2	19	3	n/a	n/a	n/a	n/a	0	0	0
539009	PROB	n/a	LTP285	ltpFR2	19	n/a	n/a	n/a	5	20	9	5	6
540766	PROB	n/a	LTP285	ltpFR2	19	n/a	n/a	n/a	5	11	1	3	7
541736	PROB	n/a	LTP285	ltpFR2	19	n/a	n/a	n/a	5	9	7	1	1
542723	PROB	n/a	LTP285	ltpFR2	19	n/a	n/a	n/a	5	18	7	2	9
543987	PROB	n/a	LTP285	ltpFR2	19	n/a	n/a	n/a	5	21	9	8	5
545810	PROB	n/a	LTP285	ltpFR2	19	n/a	n/a	n/a	5	11	4	5	2
546948	PROB	n/a	LTP285	ltpFR2	19	n/a	n/a	n/a	5	18	4	7	7
548989	PROB	n/a	LTP285	ltpFR2	19	n/a	n/a	n/a	5	16	1	7	8
549943	PROB	n/a	LTP285	ltpFR2	19	n/a	n/a	n/a	5	13	4	3	5
551841	PROB	n/a	LTP285	ltpFR2	19	n/a	n/a	n/a	5	9	1	2	6
553306	PROB	n/a	LTP285	ltpFR2	19	n/a	n/a	n/a	5	15	1	5	9
554652	PROB	n/a	LTP285	ltpFR2	19	n/a	n/a	n/a	5	9	4	4	1
555789	PROB	n/a	LTP285	ltpFR2	19	n/a	n/a	n/a	5	17	1	8	8
556960	PROB	n/a	LTP285	ltpFR2	19	n/a	n/a	n/a	5	13	3	6	4
558065	PROB	n/a	LTP285	ltpFR2	19	n/a	n/a	n/a	5	15	6	5	4
559654	PROB	n/a	LTP285	ltpFR2	19	n/a	n/a	n/a	5	14	2	4	8
561408	STOP	n/a	LTP285	ltpFR2	19	n/a	n/a	n/a	5	n/a	n/a	n/a	n/a
563913	REC_START	n/a	LTP285	ltpFR2	19	3	n/a	n/a	n/a	n/a	0	0	0
564527	REC_WORD	wordpools/wasnorm_wordpool_576.txt	LTP285	ltpFR2	19	3	ULCER	1533	n/a	n/a	0	0	0
565486	REC_WORD	wordpools/wasnorm_wordpool_576.txt	LTP285	ltpFR2	19	3	TART	1436	n/a	n/a	0	0	0
566548	REC_WORD	wordpools/wasnorm_wordpool_576.txt	LTP285	ltpFR2	19	3	CRATER	400	n/a	n/a	0	0	0
567947	REC_WORD	wordpools/wasnorm_wordpool_576.txt	LTP285	ltpFR2	19	3	PALACE	1006	n/a	n/a	0	0	0
569137	REC_WORD	wordpools/wasnorm_wordpool_576.txt	LTP285	ltpFR2	19	3	THRONE	1461	n/a	n/a	0	0	0
572644	REC_WORD	wordpools/wasnorm_wordpool_576.txt	LTP285	ltpFR2	19	3	ROBBER	1197	n/a	n/a	0	0	0
573904	REC_WORD	wordpools/wasnorm_wordpool_576.txt	LTP285	ltpFR2	19	3	SUSPECT	1415	n/a	n/a	0	0	0
582757	REC_WORD	wordpools/wasnorm_wordpool_576.txt	LTP285	ltpFR2	19	3	SUNRISE	1407	n/a	n/a	0	0	0
586604	REC_WORD	wordpools/wasnorm_wordpool_576.txt	LTP285	ltpFR2	19	3	RELISH	1183	n/a	n/a	0	0	0
588954	REC_WORD	wordpools/wasnorm_wordpool_576.txt	LTP285	ltpFR2	19	3	FOX	598	n/a	n/a	0	0	0
598525	REC_WORD	wordpools/wasnorm_wordpool_576.txt	LTP285	ltpFR2	19	3	HUSBAND	728	n/a	n/a	0	0	0
599873	REC_WORD	wordpools/wasnorm_wordpool_576.txt	LTP285	ltpFR2	19	3	SUITCASE	1403	n/a	n/a	0	0	0
601232	REC_WORD	wordpools/wasnorm_wordpool_576.txt	LTP285	ltpFR2	19	3	LUGGAGE	847	n/a	n/a	0	0	0
610411	REC_WORD	wordpools/wasnorm_wordpool_576.txt	LTP285	ltpFR2	19	3	MAILBOX	857	n/a	n/a	0	0	0
619959	REC_WORD	wordpools/wasnorm_wordpool_576.txt	LTP285	ltpFR2	19	3	CANYON	235	n/a	n/a	0	0	0
628383	REC_WORD	wordpools/wasnorm_wordpool_576.txt	LTP285	ltpFR2	19	3	MAMMAL	861	n/a	n/a	0	0	0
636480	REC_WORD	wordpools/wasnorm_wordpool_576.txt	LTP285	ltpFR2	19	3	CREATURE	403	n/a	n/a	0	0	0
655039	WORD	wordpools/wasnorm_wordpool_576.txt	LTP285	ltpFR2	19	4	LIGHTNING	820	n/a	n/a	0	0	0
657782	WORD	wordpools/wasnorm_wordpool_576.txt	LTP285	ltpFR2	19	4	PEDAL	1037	n/a	n/a	0	0	0
660368	WORD	wordpools/wasnorm_wordpool_576.txt	LTP285	ltpFR2	19	4	BOARD	143	n/a	n/a	0	0	0
662876	WORD	wordpools/wasnorm_wordpool_576.txt	LTP285	ltpFR2	19	4	SHIRT	1287	n/a	n/a	0	0	0
665345	WORD	wordpools/wasnorm_wordpool_576.txt	LTP285	ltpFR2	19	4	HERO	706	n/a	n/a	0	0	0
667904	WORD	wordpools/wasnorm_wordpool_576.txt	LTP285	ltpFR2	19	4	FOREST	593	n/a	n/a	0	0	0
670355	WORD	wordpools/wasnorm_wordpool_576.txt	LTP285	ltpFR2	19	4	TRENCH	1503	n/a	n/a	0	0	0
673023	WORD	wordpools/wasnorm_wordpool_576.txt	LTP285	ltpFR2	19	4	FIREMAN	569	n/a	n/a	0	0	0
675624	WORD	wordpools/wasnorm_wordpool_576.txt	LTP285	ltpFR2	19	4	HAMPER	682	n/a	n/a	0	0	0
678092	WORD	wordpools/wasnorm_wordpool_576.txt	LTP285	ltpFR2	19	4	LACE	792	n/a	n/a	0	0	0
680535	WORD	wordpools/wasnorm_wordpool_576.txt	LTP285	ltpFR2	19	4	PEANUT	1032	n/a	n/a	0	0	0
683213	WORD	wordpools/wasnorm_wordpool_576.txt	LTP285	ltpFR2	19	4	HARP	689	n/a	n/a	0	0	0
685696	WORD	wordpools/wasnorm_wordpool_576.txt	LTP285	ltpFR2	19	4	TUNNEL	1519	n/a	n/a	0	0	0
688139	WORD	wordpools/wasnorm_wordpool_576.txt	LTP285	ltpFR2	19	4	GRAPE	654	n/a	n/a	0	0	0
690807	WORD	wordpools/wasnorm_wordpool_576.txt	LTP285	ltpFR2	19	4	LUMBER	848	n/a	n/a	0	0	0
693409	WORD	wordpools/wasnorm_wordpool_576.txt	LTP285	ltpFR2	19	4	DANCER	437	n/a	n/a	0	0	0
695968	WORD	wordpools/wasnorm_wordpool_576.txt	LTP285	ltpFR2	19	4	COURSE	390	n/a	n/a	0	0	0
698728	WORD	wordpools/wasnorm_wordpool_576.txt	LTP285	ltpFR2	19	4	SHOULDER	1294	n/a	n/a	0	0	0
701339	WORD	wordpools/wasnorm_wordpool_576.txt	LTP285	ltpFR2	19	4	ANKLE	24	n/a	n/a	0	0	0
704007	WORD	wordpools/wasnorm_wordpool_576.txt	LTP285	ltpFR2	19	4	MEAT	883	n/a	n/a	0	0	0
706717	WORD	wordpools/wasnorm_wordpool_576.txt	LTP285	ltpFR2	19	4	BEEF	113	n/a	n/a	0	0	0
709211	WORD	wordpools/wasnorm_wordpool_576.txt	LTP285	ltpFR2	19	4	DRAGON	492	n/a	n/a	0	0	0
711861	WORD	wordpools/wasnorm_wordpool_576.txt	LTP285	ltpFR2	19	4	GARBAGE	622	n/a	n/a	0	0	0
714571	WORD	wordpools/wasnorm_wordpool_576.txt	LTP285	ltpFR2	19	4	SKETCH	1315	n/a	n/a	0	0	0
716187	START	n/a	LTP285	ltpFR2	19	n/a	n/a	n/a	6	n/a	n/a	n/a	n/a
717167	DISTRACTOR	n/a	LTP285	ltpFR2	19	4	n/a	n/a	n/a	n/a	0	0	0
717182	PROB	n/a	LTP285	ltpFR2	19	n/a	n/a	n/a	6	17	7	9	1
718662	PROB	n/a	LTP285	ltpFR2	19	n/a	n/a	n/a	6	14	2	8	4
719699	PROB	n/a	LTP285	ltpFR2	19	n/a	n/a	n/a	6	15	8	4	3
721439	PROB	n/a	LTP285	ltpFR2	19	n/a	n/a	n/a	6	8	3	1	4
722402	PROB	n/a	LTP285	ltpFR2	19	n/a	n/a	n/a	6	20	3	8	9
725488	PROB	n/a	LTP285	ltpFR2	19	n/a	n/a	n/a	6	11	2	3	6
726617	PROB	n/a	LTP285	ltpFR2	19	n/a	n/a	n/a	6	20	9	2	9
727964	PROB	n/a	LTP285	ltpFR2	19	n/a	n/a	n/a	6	16	7	8	1
728967	PROB	n/a	LTP285	ltpFR2	19	n/a	n/a	n/a	6	5	2	1	1
729837	PROB	n/a	LTP285	ltpFR2	19	n/a	n/a	n/a	6	14	1	7	6
731127	PROB	n/a	LTP285	ltpFR2	19	n/a	n/a	n/a	6	12	8	1	3
732381	PROB	n/a	LTP285	ltpFR2	19	n/a	n/a	n/a	6	18	7	9	2
734061	PROB	n/a	LTP285	ltpFR2	19	n/a	n/a	n/a	6	16	2	8	6
735032	PROB	n/a	LTP285	ltpFR2	19	n/a	n/a	n/a	6	17	3	9	5
736654	PROB	n/a	LTP285	ltpFR2	19	n/a	n/a	n/a	6	8	3	3	2
737767	PROB	n/a	LTP285	ltpFR2	19	n/a	n/a	n/a	6	20	5	7	8
739015	STOP	n/a	LTP285	ltpFR2	19	n/a	n/a	n/a	6	n/a	n/a	n/a	n/a
741975	REC_START	n/a	LTP285	ltpFR2	19	4	n/a	n/a	n/a	n/a	0	0	0
742919	REC_WORD	wordpools/wasnorm_wordpool_576.txt	LTP285	ltpFR2	19	4	GARBAGE	622	n/a	n/a	0	0	0
745186	REC_WORD	wordpools/wasnorm_wordpool_576.txt	LTP285	ltpFR2	19	4	LIGHTNING	820	n/a	n/a	0	0	0
746361	REC_WORD	wordpools/wasnorm_wordpool_576.txt	LTP285	ltpFR2	19	4	COURSE	390	n/a	n/a	0	0	0
751827	REC_WORD	wordpools/wasnorm_wordpool_576.txt	LTP285	ltpFR2	19	4	FIREMAN	569	n/a	n/a	0	0	0
753362	REC_WORD	wordpools/wasnorm_wordpool_576.txt	LTP285	ltpFR2	19	4	DANCER	437	n/a	n/a	0	0	0
754839	REC_WORD	wordpools/wasnorm_wordpool_576.txt	LTP285	ltpFR2	19	4	TRENCH	1503	n/a	n/a	0	0	0
756003	REC_WORD	wordpools/wasnorm_wordpool_576.txt	LTP285	ltpFR2	19	4	TUNNEL	1519	n/a	n/a	0	0	0
757734	REC_WORD	wordpools/wasnorm_wordpool_576.txt	LTP285	ltpFR2	19	4	SHOULDER	1294	n/a	n/a	0	0	0
759256	REC_WORD	wordpools/wasnorm_wordpool_576.txt	LTP285	ltpFR2	19	4	ANKLE	24	n/a	n/a	0	0	0
762254	REC_WORD	wordpools/wasnorm_wordpool_576.txt	LTP285	ltpFR2	19	4	MEAT	883	n/a	n/a	0	0	0
763486	REC_WORD	wordpools/wasnorm_wordpool_576.txt	LTP285	ltpFR2	19	4	BEEF	113	n/a	n/a	0	0	0
766167	REC_WORD	wordpools/wasnorm_wordpool_576.txt	LTP285	ltpFR2	19	4	HARP	689	n/a	n/a	0	0	0
770551	REC_WORD	wordpools/wasnorm_wordpool_576.txt	LTP285	ltpFR2	19	4	SHIRT	1287	n/a	n/a	0	0	0
791252	REC_WORD	wordpools/wasnorm_wordpool_576.txt	LTP285	ltpFR2	19	4	HERO	706	n/a	n/a	0	0	0
833018	WORD	wordpools/wasnorm_wordpool_576.txt	LTP285	ltpFR2	19	5	REBEL	1172	n/a	n/a	0	0	0
835670	WORD	wordpools/wasnorm_wordpool_576.txt	LTP285	ltpFR2	19	5	FINGER	567	n/a	n/a	0	0	0
838272	WORD	wordpools/wasnorm_wordpool_576.txt	LTP285	ltpFR2	19	5	BLENDER	136	n/a	n/a	0	0	0
840705	WORD	wordpools/wasnorm_wordpool_576.txt	LTP285	ltpFR2	19	5	LODGE	839	n/a	n/a	0	0	0
843333	WORD	wordpools/wasnorm_wordpool_576.txt	LTP285	ltpFR2	19	5	COUNTY	389	n/a	n/a	0	0	0
846151	WORD	wordpools/wasnorm_wordpool_576.txt	LTP285	ltpFR2	19	5	COUNTRY	388	n/a	n/a	0	0	0
848919	WORD	wordpools/wasnorm_wordpool_576.txt	LTP285	ltpFR2	19	5	HAND	683	n/a	n/a	0	0	0
851587	WORD	wordpools/wasnorm_wordpool_576.txt	LTP285	ltpFR2	19	5	ATOM	55	n/a	n/a	0	0	0
854089	WORD	wordpools/wasnorm_wordpool_576.txt	LTP285	ltpFR2	19	5	COCKTAIL	338	n/a	n/a	0	0	0
856866	WORD	wordpools/wasnorm_wordpool_576.txt	LTP285	ltpFR2	19	5	GRAVE	658	n/a	n/a	0	0	0
859326	WORD	wordpools/wasnorm_wordpool_576.txt	LTP285	ltpFR2	19	5	BARLEY	88	n/a	n/a	0	0	0
861943	WORD	wordpools/wasnorm_wordpool_576.txt	LTP285	ltpFR2	19	5	MARSH	874	n/a	n/a	0	0	0
864679	WORD	wordpools/wasnorm_wordpool_576.txt	LTP285	ltpFR2	19	5	RAFT	1159	n/a	n/a	0	0	0
867423	WORD	wordpools/wasnorm_wordpool_576.txt	LTP285	ltpFR2	19	5	TUBA	1515	n/a	n/a	0	0	0
869999	WORD	wordpools/wasnorm_wordpool_576.txt	LTP285	ltpFR2	19	5	PICNIC	1060	n/a	n/a	0	0	0
872700	WORD	wordpools/wasnorm_wordpool_576.txt	LTP285	ltpFR2	19	5	BELLY	119	n/a	n/a	0	0	0
875311	WORD	wordpools/wasnorm_wordpool_576.txt	LTP285	ltpFR2	19	5	STOMACH	1384	n/a	n/a	0	0	0
877786	WORD	wordpools/wasnorm_wordpool_576.txt	LTP285	ltpFR2	19	5	DRESSER	496	n/a	n/a	0	0	0
880539	WORD	wordpools/wasnorm_wordpool_576.txt	LTP285	ltpFR2	19	5	SPIDER	1351	n/a	n/a	0	0	0
883106	WORD	wordpools/wasnorm_wordpool_576.txt	LTP285	ltpFR2	19	5	BACKBONE	66	n/a	n/a	0	0	0
885641	WORD	wordpools/wasnorm_wordpool_576.txt	LTP285	ltpFR2	19	5	POET	1095	n/a	n/a	0	0	0
888327	WORD	wordpools/wasnorm_wordpool_576.txt	LTP285	ltpFR2	19	5	GARLIC	624	n/a	n/a	0	0	0
890878	WORD	wordpools/wasnorm_wordpool_576.txt	LTP285	ltpFR2	19	5	GRIZZLY	662	n/a	n/a	0	0	0
893462	WORD	wordpools/wasnorm_wordpool_576.txt	LTP285	ltpFR2	19	5	NOVEL	960	n/a	n/a	0	0	0
895077	START	n/a	LTP285	ltpFR2	19	n/a	n/a	n/a	7	n/a	n/a	n/a	n/a
895986	DISTRACTOR	n/a	LTP285	ltpFR2	19	5	n/a	n/a	n/a	n/a	0	0	0
895997	PROB	n/a	LTP285	ltpFR2	19	n/a	n/a	n/a	7	20	9	6	5
897519	PROB	n/a	LTP285	ltpFR2	19	n/a	n/a	n/a	7	11	5	4	2
898882	PROB	n/a	LTP285	ltpFR2	19	n/a	n/a	n/a	7	16	5	9	2
900372	PROB	n/a	LTP285	ltpFR2	19	n/a	n/a	n/a	7	20	2	9	9
901676	PROB	n/a	LTP285	ltpFR2	19	n/a	n/a	n/a	7	14	5	7	2
903317	PROB	n/a	LTP285	ltpFR2	19	n/a	n/a	n/a	7	16	6	8	2
905432	PROB	n/a	LTP285	ltpFR2	19	n/a	n/a	n/a	7	11	2	8	1
906745	PROB	n/a	LTP285	ltpFR2	19	n/a	n/a	n/a	7	13	2	6	5
908202	PROB	n/a	LTP285	ltpFR2	19	n/a	n/a	n/a	7	19	5	6	8
909539	PROB	n/a	LTP285	ltpFR2	19	n/a	n/a	n/a	7	15	6	4	5
910459	PROB	n/a	LTP285	ltpFR2	19	n/a	n/a	n/a	7	11	2	3	6
911446	PROB	n/a	LTP285	ltpFR2	19	n/a	n/a	n/a	7	15	4	4	7
912735	PROB	n/a	LTP285	ltpFR2	19	n/a	n/a	n/a	7	19	8	4	7
914174	PROB	n/a	LTP285	ltpFR2	19	n/a	n/a	n/a	7	13	1	6	6
915470	PROB	n/a	LTP285	ltpFR2	19	n/a	n/a	n/a	7	17	3	7	7
916583	PROB	n/a	LTP285	ltpFR2	19	n/a	n/a	n/a	7	12	8	2	2
917545	PROB	n/a	LTP285	ltpFR2	19	n/a	n/a	n/a	7	19	5	7	7
918807	STOP	n/a	LTP285	ltpFR2	19	n/a	n/a	n/a	7	n/a	n/a	n/a	n/a
921009	REC_START	n/a	LTP285	ltpFR2	19	5	n/a	n/a	n/a	n/a	0	0	0
921796	REC_WORD	wordpools/wasnorm_wordpool_576.txt	LTP285	ltpFR2	19	5	REBEL	1172	n/a	n/a	0	0	0
922915	REC_WORD	wordpools/wasnorm_wordpool_576.txt	LTP285	ltpFR2	19	5	BARLEY	88	n/a	n/a	0	0	0
924035	REC_WORD	wordpools/wasnorm_wordpool_576.txt	LTP285	ltpFR2	19	5	COCKTAIL	338	n/a	n/a	0	0	0
925714	REC_WORD	wordpools/wasnorm_wordpool_576.txt	LTP285	ltpFR2	19	5	DRESSER	496	n/a	n/a	0	0	0
928573	REC_WORD	wordpools/wasnorm_wordpool_576.txt	LTP285	ltpFR2	19	5	BELLY	119	n/a	n/a	0	0	0
929494	REC_WORD	wordpools/wasnorm_wordpool_576.txt	LTP285	ltpFR2	19	5	STOMACH	1384	n/a	n/a	0	0	0
931652	REC_WORD	wordpools/wasnorm_wordpool_576.txt	LTP285	ltpFR2	19	5	FINGER	567	n/a	n/a	0	0	0
932530	REC_WORD	wordpools/wasnorm_wordpool_576.txt	LTP285	ltpFR2	19	5	HAND	683	n/a	n/a	0	0	0
935584	REC_WORD	wordpools/wasnorm_wordpool_576.txt	LTP285	ltpFR2	19	5	GARLIC	624	n/a	n/a	0	0	0
937064	REC_WORD	wordpools/wasnorm_wordpool_576.txt	LTP285	ltpFR2	19	5	GRIZZLY	662	n/a	n/a	0	0	0
940622	REC_WORD	wordpools/wasnorm_wordpool_576.txt	LTP285	ltpFR2	19	5	MARSH	874	n/a	n/a	0	0	0
942163	REC_WORD	wordpools/wasnorm_wordpool_576.txt	LTP285	ltpFR2	19	5	ATOM	55	n/a	n/a	0	0	0
944654	REC_WORD	wordpools/wasnorm_wordpool_576.txt	LTP285	ltpFR2	19	5	LODGE	839	n/a	n/a	0	0	0
958218	REC_WORD	wordpools/wasnorm_wordpool_576.txt	LTP285	ltpFR2	19	5	TUBA	1515	n/a	n/a	0	0	0
959494	REC_WORD	wordpools/wasnorm_wordpool_576.txt	LTP285	ltpFR2	19	5	PICNIC	1060	n/a	n/a	0	0	0
1012059	WORD	wordpools/wasnorm_wordpool_576.txt	LTP285	ltpFR2	19	6	GHETTO	633	n/a	n/a	0	0	0
1014678	WORD	wordpools/wasnorm_wordpool_576.txt	LTP285	ltpFR2	19	6	SHELTER	1282	n/a	n/a	0	0	0
1017438	WORD	wordpools/wasnorm_wordpool_576.txt	LTP285	ltpFR2	19	6	PRINCESS	1125	n/a	n/a	0	0	0
1019922	WORD	wordpools/wasnorm_wordpool_576.txt	LTP285	ltpFR2	19	6	CROWN	415	n/a	n/a	0	0	0
1022725	WORD	wordpools/wasnorm_wordpool_576.txt	LTP285	ltpFR2	19	6	HOUND	724	n/a	n/a	0	0	0
1025518	WORD	wordpools/wasnorm_wordpool_576.txt	LTP285	ltpFR2	19	6	WAITER	1580	n/a	n/a	0	0	0
1028330	WORD	wordpools/wasnorm_wordpool_576.txt	LTP285	ltpFR2	19	6	PLAYGROUND	1087	n/a	n/a	0	0	0
1031023	WORD	wordpools/wasnorm_wordpool_576.txt	LTP285	ltpFR2	19	6	SHARK	1275	n/a	n/a	0	0	0
1033800	WORD	wordpools/wasnorm_wordpool_576.txt	LTP285	ltpFR2	19	6	DANDRUFF	439	n/a	n/a	0	0	0
1036360	WORD	wordpools/wasnorm_wordpool_576.txt	LTP285	ltpFR2	19	6	HEDGE	699	n/a	n/a	0	0	0
1039069	WORD	wordpools/wasnorm_wordpool_576.txt	LTP285	ltpFR2	19	6	MATTRESS	879	n/a	n/a	0	0	0
1041754	WORD	wordpools/wasnorm_wordpool_576.txt	LTP285	ltpFR2	19	6	TRANSPLANT	1496	n/a	n/a	0	0	0
1044324	WORD	wordpools/wasnorm_wordpool_576.txt	LTP285	ltpFR2	19	6	FRAME	600	n/a	n/a	0	0	0
1047058	WORD	wordpools/wasnorm_wordpool_576.txt	LTP285	ltpFR2	19	6	MATCH	878	n/a	n/a	0	0	0
1049651	WORD	wordpools/wasnorm_wordpool_576.txt	LTP285	ltpFR2	19	6	ICING	732	n/a	n/a	0	0	0
1052120	WORD	wordpools/wasnorm_wordpool_576.txt	LTP285	ltpFR2	19	6	HORSE	719	n/a	n/a	0	0	0
1054812	WORD	wordpools/wasnorm_wordpool_576.txt	LTP285	ltpFR2	19	6	EAGLE	512	n/a	n/a	0	0	0
1057539	WORD	wordpools/wasnorm_wordpool_576.txt	LTP285	ltpFR2	19	6	AUTHOR	61	n/a	n/a	0	0	0
1060308	WORD	wordpools/wasnorm_wordpool_576.txt	LTP285	ltpFR2	19	6	KETCHUP	771	n/a	n/a	0	0	0
1062926	WORD	wordpools/wasnorm_wordpool_576.txt	LTP285	ltpFR2	19	6	MUSTARD	935	n/a	n/a	0	0	0
1065427	WORD	wordpools/wasnorm_wordpool_576.txt	LTP285	ltpFR2	19	6	RACKET	1155	n/a	n/a	0	0	0
1068130	WORD	wordpools/wasnorm_wordpool_576.txt	LTP285	ltpFR2	19	6	CHAPEL	280	n/a	n/a	0	0	0
1070747	WORD	wordpools/wasnorm_wordpool_576.txt	LTP285	ltpFR2	19	6	DINER	467	n/a	n/a	0	0	0
1073408	WORD	wordpools/wasnorm_wordpool_576.txt	LTP285	ltpFR2	19	6	PORTRAIT	1111	n/a	n/a	0	0	0
1075022	START	n/a	LTP285	ltpFR2	19	n/a	n/a	n/a	8	n/a	n/a	n/a	n/a
1076219	DISTRACTOR	n/a	LTP285	ltpFR2	19	6	n/a	n/a	n/a	n/a	0	0	0
1076235	PROB	n/a	LTP285	ltpFR2	19	n/a	n/a	n/a	8	19	8	9	2
1077581	PROB	n/a	LTP285	ltpFR2	19	n/a	n/a	n/a	8	17	9	5	3
1078794	PROB	n/a	LTP285	ltpFR2	19	n/a	n/a	n/a	8	13	5	4	4
1080433	PROB	n/a	LTP285	ltpFR2	19	n/a	n/a	n/a	8	20	8	4	8
1081755	PROB	n/a	LTP285	ltpFR2	19	n/a	n/a	n/a	8	15	9	2	4
1083085	PROB	n/a	LTP285	ltpFR2	19	n/a	n/a	n/a	8	9	1	2	6
1084725	PROB	n/a	LTP285	ltpFR2	19	n/a	n/a	n/a	8	16	6	5	5
1085712	PROB	n/a	LTP285	ltpFR2	19	n/a	n/a	n/a	8	11	1	2	8
1086824	PROB	n/a	LTP285	ltpFR2	19	n/a	n/a	n/a	8	10	1	1	8
1087837	PROB	n/a	LTP285	ltpFR2	19	n/a	n/a	n/a	8	9	1	2	5
1089526	PROB	n/a	LTP285	ltpFR2	19	n/a	n/a	n/a	8	17	2	9	6
1091500	PROB	n/a	LTP285	ltpFR2	19	n/a	n/a	n/a	8	21	5	7	9
1094345	PROB	n/a	LTP285	ltpFR2	19	n/a	n/a	n/a	8	15	5	8	2
1095951	PROB	n/a	LTP285	ltpFR2	19	n/a	n/a	n/a	8	2	9	8	6
1097583	STOP	n/a	LTP285	ltpFR2	19	n/a	n/a	n/a	8	n/a	n/a	n/a	n/a
1100894	REC_START	n/a	LTP285	ltpFR2	19	6	n/a	n/a	n/a	n/a	0	0	0
1101643	REC_WORD	wordpools/wasnorm_wordpool_576.txt	LTP285	ltpFR2	19	6	RACKET	1155	n/a	n/a	0	0	0
1102651	REC_WORD	wordpools/wasnorm_wordpool_576.txt	LTP285	ltpFR2	19	6	PRINCESS	1125	n/a	n/a	0	0	0
1103632	REC_WORD	wordpools/wasnorm_wordpool_576.txt	LTP285	ltpFR2	19	6	CROWN	415	n/a	n/a	0	0	0
1104666	REC_WORD	wordpools/wasnorm_wordpool_576.txt	LTP285	ltpFR2	19	6	SHELTER	1282	n/a	n/a	0	0	0
1105978	REC_WORD	wordpools/wasnorm_wordpool_576.txt	LTP285	ltpFR2	19	6	GHETTO	633	n/a	n/a	0	0	0
1114888	REC_WORD	wordpools/wasnorm_wordpool_576.txt	LTP285	ltpFR2	19	6	HORSE	719	n/a	n/a	0	0	0
1116458	REC_WORD	wordpools/wasnorm_wordpool_576.txt	LTP285	ltpFR2	19	6	EAGLE	512	n/a	n/a	0	0	0
1121019	REC_WORD	wordpools/wasnorm_wordpool_576.txt	LTP285	ltpFR2	19	6	DANDRUFF	439	n/a	n/a	0	0	0
1122382	REC_WORD	wordpools/wasnorm_wordpool_576.txt	LTP285	ltpFR2	19	6	ICING	732	n/a	n/a	0	0	0
1133455	REC_WORD	wordpools/wasnorm_wordpool_576.txt	LTP285	ltpFR2	19	6	PORTRAIT	1111	n/a	n/a	0	0	0
1134653	REC_WORD	wordpools/wasnorm_wordpool_576.txt	LTP285	ltpFR2	19	6	FRAME	600	n/a	n/a	0	0	0
1141753	REC_WORD	wordpools/wasnorm_wordpool_576.txt	LTP285	ltpFR2	19	6	AUTHOR	61	n/a	n/a	0	0	0
1163234	REC_WORD	wordpools/wasnorm_wordpool_576.txt	LTP285	ltpFR2	19	6	KETCHUP	771	n/a	n/a	0	0	0
1163983	REC_WORD	wordpools/wasnorm_wordpool_576.txt	LTP285	ltpFR2	19	6	MUSTARD	935	n/a	n/a	0	0	0
1191954	DISTRACTOR	n/a	LTP285	ltpFR2	19	7	n/a	n/a	n/a	n/a	0	0	0
1191954	START	n/a	LTP285	ltpFR2	19	n/a	n/a	n/a	9	n/a	n/a	n/a	n/a
1192004	PROB	n/a	LTP285	ltpFR2	19	n/a	n/a	n/a	9	11	2	2	7
1193126	PROB	n/a	LTP285	ltpFR2	19	n/a	n/a	n/a	9	16	8	7	1
1194263	PROB	n/a	LTP285	ltpFR2	19	n/a	n/a	n/a	9	12	1	5	6
1195133	PROB	n/a	LTP285	ltpFR2	19	n/a	n/a	n/a	9	15	8	3	4
1196471	PROB	n/a	LTP285	ltpFR2	19	n/a	n/a	n/a	9	20	7	9	4
1198662	PROB	n/a	LTP285	ltpFR2	19	n/a	n/a	n/a	9	14	3	9	2
1200093	PROB	n/a	LTP285	ltpFR2	19	n/a	n/a	n/a	9	23	9	8	6
1202017	PROB	n/a	LTP285	ltpFR2	19	n/a	n/a	n/a	9	9	2	4	3
1204049	PROB	n/a	LTP285	ltpFR2	19	n/a	n/a	n/a	9	10	4	2	4
1205414	PROB	n/a	LTP285	ltpFR2	19	n/a	n/a	n/a	9	9	1	4	4
1206425	PROB	n/a	LTP285	ltpFR2	19	n/a	n/a	n/a	9	11	6	2	3
1207973	PROB	n/a	LTP285	ltpFR2	19	n/a	n/a	n/a	9	14	1	5	8
1208943	PROB	n/a	LTP285	ltpFR2	19	n/a	n/a	n/a	9	9	1	4	4
1209847	PROB	n/a	LTP285	ltpFR2	19	n/a	n/a	n/a	9	22	8	6	7
1211720	PROB	n/a	LTP285	ltpFR2	19	n/a	n/a	n/a	9	19	9	9	1
1212849	PROB	n/a	LTP285	ltpFR2	19	n/a	n/a	n/a	9	17	9	1	7
1214096	PROB	n/a	LTP285	ltpFR2	19	n/a	n/a	n/a	9	11	5	4	2
1215280	STOP	n/a	LTP285	ltpFR2	19	n/a	n/a	n/a	9	n/a	n/a	n/a	n/a
1217142	WORD	wordpools/wasnorm_wordpool_576.txt	LTP285	ltpFR2	19	7	SEAGULL	1261	n/a	n/a	0	0	0
1219842	WORD	wordpools/wasnorm_wordpool_576.txt	LTP285	ltpFR2	19	7	PERCH	1048	n/a	n/a	0	0	0
1222345	WORD	wordpools/wasnorm_wordpool_576.txt	LTP285	ltpFR2	19	7	LAGOON	795	n/a	n/a	0	0	0
1225045	WORD	wordpools/wasnorm_wordpool_576.txt	LTP285	ltpFR2	19	7	SNAIL	1332	n/a	n/a	0	0	0
1227672	WORD	wordpools/wasnorm_wordpool_576.txt	LTP285	ltpFR2	19	7	COMET	353	n/a	n/a	0	0	0
1230299	WORD	wordpools/wasnorm_wordpool_576.txt	LTP285	ltpFR2	19	7	ELBOW	520	n/a	n/a	0	0	0
1233000	WORD	wordpools/wasnorm_wordpool_576.txt	LTP285	ltpFR2	19	7	FLOWER	584	n/a	n/a	0	0	0
1235493	WORD	wordpools/wasnorm_wordpool_576.txt	LTP285	ltpFR2	19	7	PRIMATE	1123	n/a	n/a	0	0	0
1238103	WORD	wordpools/wasnorm_wordpool_576.txt	LTP285	ltpFR2	19	7	PLAID	1080	n/a	n/a	0	0	0
1240847	WORD	wordpools/wasnorm_wordpool_576.txt	LTP285	ltpFR2	19	7	POSSUM	1112	n/a	n/a	0	0	0
1243332	WORD	wordpools/wasnorm_wordpool_576.txt	LTP285	ltpFR2	19	7	BEAVER	109	n/a	n/a	0	0	0
1245949	WORD	wordpools/wasnorm_wordpool_576.txt	LTP285	ltpFR2	19	7	CONCERT	360	n/a	n/a	0	0	0
1248401	WORD	wordpools/wasnorm_wordpool_576.txt	LTP285	ltpFR2	19	7	PENGUIN	1044	n/a	n/a	0	0	0
1251161	WORD	wordpools/wasnorm_wordpool_576.txt	LTP285	ltpFR2	19	7	SUBWAY	1400	n/a	n/a	0	0	0
1253870	WORD	wordpools/wasnorm_wordpool_576.txt	LTP285	ltpFR2	19	7	WAGON	1578	n/a	n/a	0	0	0
1256339	WORD	wordpools/wasnorm_wordpool_576.txt	LTP285	ltpFR2	19	7	MILDEW	893	n/a	n/a	0	0	0
1259040	WORD	wordpools/wasnorm_wordpool_576.txt	LTP285	ltpFR2	19	7	LAPEL	800	n/a	n/a	0	0	0
1261633	WORD	wordpools/wasnorm_wordpool_576.txt	LTP285	ltpFR2	19	7	WRIST	1626	n/a	n/a	0	0	0
1264394	WORD	wordpools/wasnorm_wordpool_576.txt	LTP285	ltpFR2	19	7	HONEY	713	n/a	n/a	0	0	0
1266912	WORD	wordpools/wasnorm_wordpool_576.txt	LTP285	ltpFR2	19	7	CABIN	211	n/a	n/a	0	0	0
1269397	WORD	wordpools/wasnorm_wordpool_576.txt	LTP285	ltpFR2	19	7	BRANCH	168	n/a	n/a	0	0	0
1271897	WORD	wordpools/wasnorm_wordpool_576.txt	LTP285	ltpFR2	19	7	BASEMENT	94	n/a	n/a	0	0	0
1274540	WORD	wordpools/wasnorm_wordpool_576.txt	LTP285	ltpFR2	19	7	SISTER	1312	n/a	n/a	0	0	0
1277108	WORD	wordpools/wasnorm_wordpool_576.txt	LTP285	ltpFR2	19	7	NOTEBOOK	959	n/a	n/a	0	0	0
1278723	START	n/a	LTP285	ltpFR2	19	n/a	n/a	n/a	10	n/a	n/a	n/a	n/a
1279912	DISTRACTOR	n/a	LTP285	ltpFR2	19	7	n/a	n/a	n/a	n/a	0	0	0
1279927	PROB	n/a	LTP285	ltpFR2	19	n/a	n/a	n/a	10	19	9	9	1
1280914	PROB	n/a	LTP285	ltpFR2	19	n/a	n/a	n/a	10	14	6	1	7
1281960	PROB	n/a	LTP285	ltpFR2	19	n/a	n/a	n/a	10	15	7	6	2
1283282	PROB	n/a	LTP285	ltpFR2	19	n/a	n/a	n/a	10	14	2	9	3
1284378	PROB	n/a	LTP285	ltpFR2	19	n/a	n/a	n/a	10	11	2	5	4
1285540	PROB	n/a	LTP285	ltpFR2	19	n/a	n/a	n/a	10	16	7	2	7
1286602	PROB	n/a	LTP285	ltpFR2	19	n/a	n/a	n/a	10	23	6	8	9
1288318	PROB	n/a	LTP285	ltpFR2	19	n/a	n/a	n/a	10	17	4	7	6
1289705	PROB	n/a	LTP285	ltpFR2	19	n/a	n/a	n/a	10	20	9	6	5
1291145	PROB	n/a	LTP285	ltpFR2	19	n/a	n/a	n/a	10	14	4	9	1
1292132	PROB	n/a	LTP285	ltpFR2	19	n/a	n/a	n/a	10	13	3	5	5
1293060	PROB	n/a	LTP285	ltpFR2	19	n/a	n/a	n/a	10	17	3	5	9
1294266	PROB	n/a	LTP285	ltpFR2	19	n/a	n/a	n/a	10	12	2	2	8
1295603	PROB	n/a	LTP285	ltpFR2	19	n/a	n/a	n/a	10	10	3	5	2
1297092	PROB	n/a	LTP285	ltpFR2	19	n/a	n/a	n/a	10	18	1	8	9
1298372	PROB	n/a	LTP285	ltpFR2	19	n/a	n/a	n/a	10	20	7	8	5
1299618	PROB	n/a	LTP285	ltpFR2	19	n/a	n/a	n/a	10	11	4	5	2
1300730	PROB	n/a	LTP285	ltpFR2	19	n/a	n/a	n/a	10	11	5	2	4
1301919	STOP	n/a	LTP285	ltpFR2	19	n/a	n/a	n/a	10	n/a	n/a	n/a	n/a
1304516	REC_START	n/a	LTP285	ltpFR2	19	7	n/a	n/a	n/a	n/a	0	0	0
1305033	REC_WORD	wordpools/wasnorm_wordpool_576.txt	LTP285	ltpFR2	19	7	SISTER	1312	n/a	n/a	0	0	0
1305965	REC_WORD	wordpools/wasnorm_wordpool_576.txt	LTP285	ltpFR2	19	7	BASEMENT	94	n/a	n/a	0	0	0
1307185	REC_WORD	wordpools/wasnorm_wordpool_576.txt	LTP285	ltpFR2	19	7	BRANCH	168	n/a	n/a	0	0	0
1308214	REC_WORD	wordpools/wasnorm_wordpool_576.txt	LTP285	ltpFR2	19	7	TWIG	1527	n/a	n/a	0	0	0
1309423	REC_WORD	wordpools/wasnorm_wordpool_576.txt	LTP285	ltpFR2	19	7	WRIST	1626	n/a	n/a	0	0	0
1312805	REC_WORD	wordpools/wasnorm_wordpool_576.txt	LTP285	ltpFR2	19	7	SNAIL	1332	n/a	n/a	0	0	0
1318191	REC_WORD	wordpools/wasnorm_wordpool_576.txt	LTP285	ltpFR2	19	7	PENGUIN	1044	n/a	n/a	0	0	0
1319400	REC_WORD	wordpools/wasnorm_wordpool_576.txt	LTP285	ltpFR2	19	7	POSSUM	1112	n/a	n/a	0	0	0
1320687	REC_WORD	wordpools/wasnorm_wordpool_576.txt	LTP285	ltpFR2	19	7	BEAVER	109	n/a	n/a	0	0	0
1326643	REC_WORD	wordpools/wasnorm_wordpool_576.txt	LTP285	ltpFR2	19	7	NOTEBOOK	959	n/a	n/a	0	0	0
1339015	REC_WORD	wordpools/wasnorm_wordpool_576.txt	LTP285	ltpFR2	19	7	SKETCH	1315	n/a	n/a	0	0	0
1343620	REC_WORD	wordpools/wasnorm_wordpool_576.txt	LTP285	ltpFR2	19	7	LAGOON	795	n/a	n/a	0	0	0
1348971	REC_WORD	wordpools/wasnorm_wordpool_576.txt	LTP285	ltpFR2	19	7	CABIN	211	n/a	n/a	0	0	0
1357629	REC_WORD	wordpools/wasnorm_wordpool_576.txt	LTP285	ltpFR2	19	7	HONEY	713	n/a	n/a	0	0	0
1361719	REC_WORD	wordpools/wasnorm_wordpool_576.txt	LTP285	ltpFR2	19	7	PLAID	1080	n/a	n/a	0	0	0
1373698	REC_WORD	wordpools/wasnorm_wordpool_576.txt	LTP285	ltpFR2	19	7	CONCERT	360	n/a	n/a	0	0	0
1378695	REC_WORD	wordpools/wasnorm_wordpool_576.txt	LTP285	ltpFR2	19	7	SUBWAY	1400	n/a	n/a	0	0	0
1395580	WORD	wordpools/wasnorm_wordpool_576.txt	LTP285	ltpFR2	19	8	PEACH	1031	n/a	n/a	0	0	0
1398030	WORD	wordpools/wasnorm_wordpool_576.txt	LTP285	ltpFR2	19	8	MOP	916	n/a	n/a	0	0	0
1400682	WORD	wordpools/wasnorm_wordpool_576.txt	LTP285	ltpFR2	19	8	WASHER	1592	n/a	n/a	0	0	0
1403327	WORD	wordpools/wasnorm_wordpool_576.txt	LTP285	ltpFR2	19	8	QUAIL	1147	n/a	n/a	0	0	0
1405860	WORD	wordpools/wasnorm_wordpool_576.txt	LTP285	ltpFR2	19	8	CRICKET	408	n/a	n/a	0	0	0
1408413	WORD	wordpools/wasnorm_wordpool_576.txt	LTP285	ltpFR2	19	8	DIME	466	n/a	n/a	0	0	0
1410871	WORD	wordpools/wasnorm_wordpool_576.txt	LTP285	ltpFR2	19	8	SCARECROW	1245	n/a	n/a	0	0	0
1413564	WORD	wordpools/wasnorm_wordpool_576.txt	LTP285	ltpFR2	19	8	BIKE	125	n/a	n/a	0	0	0
1416359	WORD	wordpools/wasnorm_wordpool_576.txt	LTP285	ltpFR2	19	8	BACON	67	n/a	n/a	0	0	0
1418884	WORD	wordpools/wasnorm_wordpool_576.txt	LTP285	ltpFR2	19	8	KEEPER	769	n/a	n/a	0	0	0
1421444	WORD	wordpools/wasnorm_wordpool_576.txt	LTP285	ltpFR2	19	8	CAPTIVE	240	n/a	n/a	0	0	0
1423970	WORD	wordpools/wasnorm_wordpool_576.txt	LTP285	ltpFR2	19	8	SAUSAGE	1238	n/a	n/a	0	0	0
1426429	WORD	wordpools/wasnorm_wordpool_576.txt	LTP285	ltpFR2	19	8	HIKER	708	n/a	n/a	0	0	0
1429224	WORD	wordpools/wasnorm_wordpool_576.txt	LTP285	ltpFR2	19	8	SUMMIT	1405	n/a	n/a	0	0	0
1431791	WORD	wordpools/wasnorm_wordpool_576.txt	LTP285	ltpFR2	19	8	FLESH	579	n/a	n/a	0	0	0
1434610	WORD	wordpools/wasnorm_wordpool_576.txt	LTP285	ltpFR2	19	8	REPORT	1184	n/a	n/a	0	0	0
1437196	WORD	wordpools/wasnorm_wordpool_576.txt	LTP285	ltpFR2	19	8	OINTMENT	974	n/a	n/a	0	0	0
1439721	WORD	wordpools/wasnorm_wordpool_576.txt	LTP285	ltpFR2	19	8	ICEBERG	731	n/a	n/a	0	0	0
1442440	WORD	wordpools/wasnorm_wordpool_576.txt	LTP285	ltpFR2	19	8	BUG	187	n/a	n/a	0	0	0
1445100	WORD	wordpools/wasnorm_wordpool_576.txt	LTP285	ltpFR2	19	8	SKIRT	1319	n/a	n/a	0	0	0
1447643	WORD	wordpools/wasnorm_wordpool_576.txt	LTP285	ltpFR2	19	8	SHORTS	1293	n/a	n/a	0	0	0
1450120	WORD	wordpools/wasnorm_wordpool_576.txt	LTP285	ltpFR2	19	8	HEART	697	n/a	n/a	0	0	0
1452553	WORD	wordpools/wasnorm_wordpool_576.txt	LTP285	ltpFR2	19	8	WAITRESS	1581	n/a	n/a	0	0	0
1455021	WORD	wordpools/wasnorm_wordpool_576.txt	LTP285	ltpFR2	19	8	BRICK	172	n/a	n/a	0	0	0
1456635	START	n/a	LTP285	ltpFR2	19	n/a	n/a	n/a	11	n/a	n/a	n/a	n/a
1457658	DISTRACTOR	n/a	LTP285	ltpFR2	19	8	n/a	n/a	n/a	n/a	0	0	0
1457672	PROB	n/a	LTP285	ltpFR2	19	n/a	n/a	n/a	11	21	6	9	6
1459237	PROB	n/a	LTP285	ltpFR2	19	n/a	n/a	n/a	11	12	2	2	8
1460249	PROB	n/a	LTP285	ltpFR2	19	n/a	n/a	n/a	11	16	5	8	3
1461880	PROB	n/a	LTP285	ltpFR2	19	n/a	n/a	n/a	11	18	9	1	8
1463017	PROB	n/a	LTP285	ltpFR2	19	n/a	n/a	n/a	11	14	6	4	4
1464012	PROB	n/a	LTP285	ltpFR2	19	n/a	n/a	n/a	11	18	4	6	8
1464933	PROB	n/a	LTP285	ltpFR2	19	n/a	n/a	n/a	11	18	6	9	3
1466138	PROB	n/a	LTP285	ltpFR2	19	n/a	n/a	n/a	11	22	9	4	9
1468078	PROB	n/a	LTP285	ltpFR2	19	n/a	n/a	n/a	11	17	3	8	6
1470312	PROB	n/a	LTP285	ltpFR2	19	n/a	n/a	n/a	11	19	5	9	5
1471291	PROB	n/a	LTP285	ltpFR2	19	n/a	n/a	n/a	11	19	8	8	3
1472829	PROB	n/a	LTP285	ltpFR2	19	n/a	n/a	n/a	11	21	9	3	9
1474319	PROB	n/a	LTP285	ltpFR2	19	n/a	n/a	n/a	11	10	1	3	6
1475431	PROB	n/a	LTP285	ltpFR2	19	n/a	n/a	n/a	11	12	7	2	3
1476961	PROB	n/a	LTP285	ltpFR2	19	n/a	n/a	n/a	11	17	8	2	7
1478041	PROB	n/a	LTP285	ltpFR2	19	n/a	n/a	n/a	11	10	1	1	8
1478994	PROB	n/a	LTP285	ltpFR2	19	n/a	n/a	n/a	11	16	5	5	6
1480120	STOP	n/a	LTP285	ltpFR2	19	n/a	n/a	n/a	11	n/a	n/a	n/a	n/a
1482496	REC_START	n/a	LTP285	ltpFR2	19	8	n/a	n/a	n/a	n/a	0	0	0
1483132	REC_WORD	wordpools/wasnorm_wordpool_576.txt	LTP285	ltpFR2	19	8	WAITRESS	1581	n/a	n/a	0	0	0
1484270	REC_WORD	wordpools/wasnorm_wordpool_576.txt	LTP285	ltpFR2	19	8	BUG	187	n/a	n/a	0	0	0
1485339	REC_WORD	wordpools/wasnorm_wordpool_576.txt	LTP285	ltpFR2	19	8	CAPTIVE	240	n/a	n/a	0	0	0
1486485	REC_WORD	wordpools/wasnorm_wordpool_576.txt	LTP285	ltpFR2	19	8	KEEPER	769	n/a	n/a	0	0	0
1487592	REC_WORD	wordpools/wasnorm_wordpool_576.txt	LTP285	ltpFR2	19	8	OINTMENT	974	n/a	n/a	0	0	0
1507963	REC_WORD	wordpools/wasnorm_wordpool_576.txt	LTP285	ltpFR2	19	8	DIME	466	n/a	n/a	0	0	0
1508940	REC_WORD	wordpools/wasnorm_wordpool_576.txt	LTP285	ltpFR2	19	8	WASHER	1592	n/a	n/a	0	0	0
1518318	REC_WORD	wordpools/wasnorm_wordpool_576.txt	LTP285	ltpFR2	19	8	SKIRT	1319	n/a	n/a	0	0	0
1519322	REC_WORD	wordpools/wasnorm_wordpool_576.txt	LTP285	ltpFR2	19	8	SHORTS	1293	n/a	n/a	0	0	0
1541827	REC_WORD	wordpools/wasnorm_wordpool_576.txt	LTP285	ltpFR2	19	8	QUAIL	1147	n/a	n/a	0	0	0
1551713	REC_WORD	wordpools/wasnorm_wordpool_576.txt	LTP285	ltpFR2	19	8	PERCH	1048	n/a	n/a	0	0	0
1559256	REST_REWET	n/a	LTP285	ltpFR2	19	8	n/a	n/a	n/a	n/a	0	0	0
2102963	DISTRACTOR	n/a	LTP285	ltpFR2	19	9	n/a	n/a	n/a	n/a	0	0	0
2102963	START	n/a	LTP285	ltpFR2	19	n/a	n/a	n/a	12	n/a	n/a	n/a	n/a
2103013	PROB	n/a	LTP285	ltpFR2	19	n/a	n/a	n/a	12	11	1	1	9
2104820	PROB	n/a	LTP285	ltpFR2	19	n/a	n/a	n/a	12	17	6	8	3
2107630	PROB	n/a	LTP285	ltpFR2	19	n/a	n/a	n/a	12	16	1	6	9
2109043	PROB	n/a	LTP285	ltpFR2	19	n/a	n/a	n/a	12	16	5	5	6
2109980	PROB	n/a	LTP285	ltpFR2	19	n/a	n/a	n/a	12	19	9	7	3
2110993	PROB	n/a	LTP285	ltpFR2	19	n/a	n/a	n/a	12	20	4	9	7
2112699	PROB	n/a	LTP285	ltpFR2	19	n/a	n/a	n/a	12	20	7	9	3
2113837	PROB	n/a	LTP285	ltpFR2	19	n/a	n/a	n/a	12	15	8	3	4
2115493	PROB	n/a	LTP285	ltpFR2	19	n/a	n/a	n/a	12	21	6	9	6
2116882	PROB	n/a	LTP285	ltpFR2	19	n/a	n/a	n/a	12	8	4	1	3
2118195	PROB	n/a	LTP285	ltpFR2	19	n/a	n/a	n/a	12	12	3	3	6
2120220	PROB	n/a	LTP285	ltpFR2	19	n/a	n/a	n/a	12	11	2	1	8
2121415	PROB	n/a	LTP285	ltpFR2	19	n/a	n/a	n/a	12	11	1	9	1
2122336	PROB	n/a	LTP285	ltpFR2	19	n/a	n/a	n/a	12	21	8	9	4
2124394	PROB	n/a	LTP285	ltpFR2	19	n/a	n/a	n/a	12	15	9	4	2
2125463	STOP	n/a	LTP285	ltpFR2	19	n/a	n/a	n/a	12	n/a	n/a	n/a	n/a
2128015	WORD	wordpools/wasnorm_wordpool_576.txt	LTP285	ltpFR2	19	9	TRUCK	1512	n/a	n/a	0	0	0
2130784	WORD	wordpools/wasnorm_wordpool_576.txt	LTP285	ltpFR2	19	9	STATUE	1374	n/a	n/a	0	0	0
2133528	WORD	wordpools/wasnorm_wordpool_576.txt	LTP285	ltpFR2	19	9	BRAKE	166	n/a	n/a	0	0	0
2136172	WORD	wordpools/wasnorm_wordpool_576.txt	LTP285	ltpFR2	19	9	DRIVER	499	n/a	n/a	0	0	0
2138814	WORD	wordpools/wasnorm_wordpool_576.txt	LTP285	ltpFR2	19	9	TABLET	1427	n/a	n/a	0	0	0
2141616	WORD	wordpools/wasnorm_wordpool_576.txt	LTP285	ltpFR2	19	9	TILE	1468	n/a	n/a	0	0	0
2144135	WORD	wordpools/wasnorm_wordpool_576.txt	LTP285	ltpFR2	19	9	OUTLAW	989	n/a	n/a	0	0	0
2146869	WORD	wordpools/wasnorm_wordpool_576.txt	LTP285	ltpFR2	19	9	FRECKLE	602	n/a	n/a	0	0	0
2149697	WORD	wordpools/wasnorm_wordpool_576.txt	LTP285	ltpFR2	19	9	SLUG	1329	n/a	n/a	0	0	0
2152266	WORD	wordpools/wasnorm_wordpool_576.txt	LTP285	ltpFR2	19	9	OYSTER	995	n/a	n/a	0	0	0
2154749	WORD	wordpools/wasnorm_wordpool_576.txt	LTP285	ltpFR2	19	9	BANK	83	n/a	n/a	0	0	0
2157192	WORD	wordpools/wasnorm_wordpool_576.txt	LTP285	ltpFR2	19	9	COIN	343	n/a	n/a	0	0	0
2159985	WORD	wordpools/wasnorm_wordpool_576.txt	LTP285	ltpFR2	19	9	BEAKER	104	n/a	n/a	0	0	0
2162528	WORD	wordpools/wasnorm_wordpool_576.txt	LTP285	ltpFR2	19	9	NAPKIN	937	n/a	n/a	0	0	0
2165148	WORD	wordpools/wasnorm_wordpool_576.txt	LTP285	ltpFR2	19	9	DAUGHTER	442	n/a	n/a	0	0	0
2167731	WORD	wordpools/wasnorm_wordpool_576.txt	LTP285	ltpFR2	19	9	LIPSTICK	829	n/a	n/a	0	0	0
2170234	WORD	wordpools/wasnorm_wordpool_576.txt	LTP285	ltpFR2	19	9	TUTU	1524	n/a	n/a	0	0	0
2172850	WORD	wordpools/wasnorm_wordpool_576.txt	LTP285	ltpFR2	19	9	TWEEZERS	1526	n/a	n/a	0	0	0
2175303	WORD	wordpools/wasnorm_wordpool_576.txt	LTP285	ltpFR2	19	9	THIEF	1456	n/a	n/a	0	0	0
2178003	WORD	wordpools/wasnorm_wordpool_576.txt	LTP285	ltpFR2	19	9	PILOT	1070	n/a	n/a	0	0	0
2180689	WORD	wordpools/wasnorm_wordpool_576.txt	LTP285	ltpFR2	19	9	BINDER	127	n/a	n/a	0	0	0
2183132	WORD	wordpools/wasnorm_wordpool_576.txt	LTP285	ltpFR2	19	9	MARKER	870	n/a	n/a	0	0	0
2185749	WORD	wordpools/wasnorm_wordpool_576.txt	LTP285	ltpFR2	19	9	NECKLACE	940	n/a	n/a	0	0	0
2188560	WORD	wordpools/wasnorm_wordpool_576.txt	LTP285	ltpFR2	19	9	TRIBE	1505	n/a	n/a	0	0	0
2190176	START	n/a	LTP285	ltpFR2	19	n/a	n/a	n/a	13	n/a	n/a	n/a	n/a
2191203	DISTRACTOR	n/a	LTP285	ltpFR2	19	9	n/a	n/a	n/a	n/a	0	0	0
2191221	PROB	n/a	LTP285	ltpFR2	19	n/a	n/a	n/a	13	18	8	6	4
2193654	PROB	n/a	LTP285	ltpFR2	19	n/a	n/a	n/a	13	16	4	6	6
2194859	PROB	n/a	LTP285	ltpFR2	19	n/a	n/a	n/a	13	13	3	8	2
2195913	PROB	n/a	LTP285	ltpFR2	19	n/a	n/a	n/a	13	14	8	2	4
2197302	PROB	n/a	LTP285	ltpFR2	19	n/a	n/a	n/a	13	9	5	2	2
2198656	PROB	n/a	LTP285	ltpFR2	19	n/a	n/a	n/a	13	20	6	9	5
2200087	PROB	n/a	LTP285	ltpFR2	19	n/a	n/a	n/a	13	15	4	3	6
2201167	PROB	n/a	LTP285	ltpFR2	19	n/a	n/a	n/a	13	18	7	2	9
2202789	PROB	n/a	LTP285	ltpFR2	19	n/a	n/a	n/a	13	1	4	6	5
2204679	PROB	n/a	LTP285	ltpFR2	19	n/a	n/a	n/a	13	23	6	9	8
2207021	PROB	n/a	LTP285	ltpFR2	19	n/a	n/a	n/a	13	18	5	4	9
2207992	PROB	n/a	LTP285	ltpFR2	19	n/a	n/a	n/a	13	12	9	2	1
2208970	PROB	n/a	LTP285	ltpFR2	19	n/a	n/a	n/a	13	16	1	9	6
2209890	PROB	n/a	LTP285	ltpFR2	19	n/a	n/a	n/a	13	20	4	8	8
2211171	PROB	n/a	LTP285	ltpFR2	19	n/a	n/a	n/a	13	9	2	5	2
2212609	PROB	n/a	LTP285	ltpFR2	19	n/a	n/a	n/a	13	6	5	1	1
2213423	STOP	n/a	LTP285	ltpFR2	19	n/a	n/a	n/a	13	n/a	n/a	n/a	n/a
2215964	REC_START	n/a	LTP285	ltpFR2	19	9	n/a	n/a	n/a	n/a	0	0	0
2216557	REC_WORD	wordpools/wasnorm_wordpool_576.txt	LTP285	ltpFR2	19	9	NECKLACE	940	n/a	n/a	0	0	0
2217503	REC_WORD	wordpools/wasnorm_wordpool_576.txt	LTP285	ltpFR2	19	9	TRIBE	1505	n/a	n/a	0	0	0
2218747	REC_WORD	wordpools/wasnorm_wordpool_576.txt	LTP285	ltpFR2	19	9	BEAKER	104	n/a	n/a	0	0	0
2228779	REC_WORD	wordpools/wasnorm_wordpool_576.txt	LTP285	ltpFR2	19	9	OUTLAW	989	n/a	n/a	0	0	0
2240658	REC_WORD	wordpools/wasnorm_wordpool_576.txt	LTP285	ltpFR2	19	9	COIN	343	n/a	n/a	0	0	0
2244352	REC_WORD	wordpools/wasnorm_wordpool_576.txt	LTP285	ltpFR2	19	9	BANK	83	n/a	n/a	0	0	0
2245496	REC_WORD	wordpools/wasnorm_wordpool_576.txt	LTP285	ltpFR2	19	9	THIEF	1456	n/a	n/a	0	0	0
2262689	REC_WORD	wordpools/wasnorm_wordpool_576.txt	LTP285	ltpFR2	19	9	SLUG	1329	n/a	n/a	0	0	0
2270553	REC_WORD	wordpools/wasnorm_wordpool_576.txt	LTP285	ltpFR2	19	9	WASHCLOTH	1591	n/a	n/a	0	0	0
2306989	DISTRACTOR	n/a	LTP285	ltpFR2	19	10	n/a	n/a	n/a	n/a	0	0	0
2306990	START	n/a	LTP285	ltpFR2	19	n/a	n/a	n/a	14	n/a	n/a	n/a	n/a
2307040	PROB	n/a	LTP285	ltpFR2	19	n/a	n/a	n/a	14	20	9	5	6
2308420	PROB	n/a	LTP285	ltpFR2	19	n/a	n/a	n/a	14	9	6	2	1
2309499	PROB	n/a	LTP285	ltpFR2	19	n/a	n/a	n/a	14	8	3	3	2
2310670	PROB	n/a	LTP285	ltpFR2	19	n/a	n/a	n/a	14	18	2	7	9
2312050	PROB	n/a	LTP285	ltpFR2	19	n/a	n/a	n/a	14	19	9	9	1
2313264	PROB	n/a	LTP285	ltpFR2	19	n/a	n/a	n/a	14	16	2	6	8
2314735	PROB	n/a	LTP285	ltpFR2	19	n/a	n/a	n/a	14	13	3	5	5
2315681	PROB	n/a	LTP285	ltpFR2	19	n/a	n/a	n/a	14	18	5	6	7
2317705	PROB	n/a	LTP285	ltpFR2	19	n/a	n/a	n/a	14	12	6	3	3
2318742	PROB	n/a	LTP285	ltpFR2	19	n/a	n/a	n/a	14	23	8	8	7
2320190	PROB	n/a	LTP285	ltpFR2	19	n/a	n/a	n/a	14	11	4	6	1
2321109	PROB	n/a	LTP285	ltpFR2	19	n/a	n/a	n/a	14	21	6	9	6
2322298	PROB	n/a	LTP285	ltpFR2	19	n/a	n/a	n/a	14	22	5	8	9
2325410	PROB	n/a	LTP285	ltpFR2	19	n/a	n/a	n/a	14	21	9	3	9
2327317	PROB	n/a	LTP285	ltpFR2	19	n/a	n/a	n/a	14	15	6	7	2
2328897	PROB	n/a	LTP285	ltpFR2	19	n/a	n/a	n/a	14	12	1	8	3
2330176	STOP	n/a	LTP285	ltpFR2	19	n/a	n/a	n/a	14	n/a	n/a	n/a	n/a
2331934	WORD	wordpools/wasnorm_wordpool_576.txt	LTP285	ltpFR2	19	10	PLATE	1086	n/a	n/a	0	0	0
2334386	WORD	wordpools/wasnorm_wordpool_576.txt	LTP285	ltpFR2	19	10	FRIEND	606	n/a	n/a	0	0	0
2337204	WORD	wordpools/wasnorm_wordpool_576.txt	LTP285	ltpFR2	19	10	ITEM	746	n/a	n/a	0	0	0
2339997	WORD	wordpools/wasnorm_wordpool_576.txt	LTP285	ltpFR2	19	10	KITCHEN	778	n/a	n/a	0	0	0
2342507	WORD	wordpools/wasnorm_wordpool_576.txt	LTP285	ltpFR2	19	10	SPACE	1345	n/a	n/a	0	0	0
2345134	WORD	wordpools/wasnorm_wordpool_576.txt	LTP285	ltpFR2	19	10	STAR	1373	n/a	n/a	0	0	0
2347752	WORD	wordpools/wasnorm_wordpool_576.txt	LTP285	ltpFR2	19	10	BLUEPRINT	142	n/a	n/a	0	0	0
2350329	WORD	wordpools/wasnorm_wordpool_576.txt	LTP285	ltpFR2	19	10	MACHINE	852	n/a	n/a	0	0	0
2352971	WORD	wordpools/wasnorm_wordpool_576.txt	LTP285	ltpFR2	19	10	EUROPE	541	n/a	n/a	0	0	0
2355556	WORD	wordpools/wasnorm_wordpool_576.txt	LTP285	ltpFR2	19	10	SPOON	1357	n/a	n/a	0	0	0
2358057	WORD	wordpools/wasnorm_wordpool_576.txt	LTP285	ltpFR2	19	10	JAPAN	749	n/a	n/a	0	0	0
2360550	WORD	wordpools/wasnorm_wordpool_576.txt	LTP285	ltpFR2	19	10	TORTOISE	1486	n/a	n/a	0	0	0
2363144	WORD	wordpools/wasnorm_wordpool_576.txt	LTP285	ltpFR2	19	10	SADDLE	1221	n/a	n/a	0	0	0
2365895	WORD	wordpools/wasnorm_wordpool_576.txt	LTP285	ltpFR2	19	10	ZEBRA	1635	n/a	n/a	0	0	0
2368555	WORD	wordpools/wasnorm_wordpool_576.txt	LTP285	ltpFR2	19	10	PATROL	1027	n/a	n/a	0	0	0
2371056	WORD	wordpools/wasnorm_wordpool_576.txt	LTP285	ltpFR2	19	10	PLIERS	1089	n/a	n/a	0	0	0
2373724	WORD	wordpools/wasnorm_wordpool_576.txt	LTP285	ltpFR2	19	10	BUCKET	184	n/a	n/a	0	0	0
2376277	WORD	wordpools/wasnorm_wordpool_576.txt	LTP285	ltpFR2	19	10	CARRIAGE	248	n/a	n/a	0	0	0
2378735	WORD	wordpools/wasnorm_wordpool_576.txt	LTP285	ltpFR2	19	10	BOYFRIEND	162	n/a	n/a	0	0	0
2381504	WORD	wordpools/wasnorm_wordpool_576.txt	LTP285	ltpFR2	19	10	KNIFE	785	n/a	n/a	0	0	0
2384232	WORD	wordpools/wasnorm_wordpool_576.txt	LTP285	ltpFR2	19	10	LEADER	807	n/a	n/a	0	0	0
2387008	WORD	wordpools/wasnorm_wordpool_576.txt	LTP285	ltpFR2	19	10	CANAL	226	n/a	n/a	0	0	0
2389509	WORD	wordpools/wasnorm_wordpool_576.txt	LTP285	ltpFR2	19	10	DONKEY	484	n/a	n/a	0	0	0
2391952	WORD	wordpools/wasnorm_wordpool_576.txt	LTP285	ltpFR2	19	10	YARN	1631	n/a	n/a	0	0	0
2393566	START	n/a	LTP285	ltpFR2	19	n/a	n/a	n/a	15	n/a	n/a	n/a	n/a
2394582	DISTRACTOR	n/a	LTP285	ltpFR2	19	10	n/a	n/a	n/a	n/a	0	0	0
2394595	PROB	n/a	LTP285	ltpFR2	19	n/a	n/a	n/a	15	19	7	8	4
2396210	PROB	n/a	LTP285	ltpFR2	19	n/a	n/a	n/a	15	8	1	5	2
2398049	PROB	n/a	LTP285	ltpFR2	19	n/a	n/a	n/a	15	7	1	2	4
2399463	PROB	n/a	LTP285	ltpFR2	19	n/a	n/a	n/a	15	18	6	4	8
2400575	PROB	n/a	LTP285	ltpFR2	19	n/a	n/a	n/a	15	20	9	3	8
2403503	PROB	n/a	LTP285	ltpFR2	19	n/a	n/a	n/a	15	18	6	8	4
2404540	PROB	n/a	LTP285	ltpFR2	19	n/a	n/a	n/a	15	14	8	1	5
2405812	PROB	n/a	LTP285	ltpFR2	19	n/a	n/a	n/a	15	16	4	7	5
2407016	PROB	n/a	LTP285	ltpFR2	19	n/a	n/a	n/a	15	17	6	2	9
2408096	PROB	n/a	LTP285	ltpFR2	19	n/a	n/a	n/a	15	15	7	1	7
2409192	PROB	n/a	LTP285	ltpFR2	19	n/a	n/a	n/a	15	14	4	1	9
2410238	PROB	n/a	LTP285	ltpFR2	19	n/a	n/a	n/a	15	20	8	8	6
2411542	PROB	n/a	LTP285	ltpFR2	19	n/a	n/a	n/a	15	17	5	7	5
2412654	PROB	n/a	LTP285	ltpFR2	19	n/a	n/a	n/a	15	21	6	6	9
2414026	PROB	n/a	LTP285	ltpFR2	19	n/a	n/a	n/a	15	21	6	6	9
2415181	PROB	n/a	LTP285	ltpFR2	19	n/a	n/a	n/a	15	18	3	7	8
2416079	STOP	n/a	LTP285	ltpFR2	19	n/a	n/a	n/a	15	n/a	n/a	n/a	n/a
2419514	REC_START	n/a	LTP285	ltpFR2	19	10	n/a	n/a	n/a	n/a	0	0	0
2420092	REC_WORD	wordpools/wasnorm_wordpool_576.txt	LTP285	ltpFR2	19	10	KNIFE	785	n/a	n/a	0	0	0
2421237	REC_WORD	wordpools/wasnorm_wordpool_576.txt	LTP285	ltpFR2	19	10	BOYFRIEND	162	n/a	n/a	0	0	0
2422296	REC_WORD	wordpools/wasnorm_wordpool_576.txt	LTP285	ltpFR2	19	10	FRIEND	606	n/a	n/a	0	0	0
2423589	REC_WORD	wordpools/wasnorm_wordpool_576.txt	LTP285	ltpFR2	19	10	EUROPE	541	n/a	n/a	0	0	0
2424659	REC_WORD	wordpools/wasnorm_wordpool_576.txt	LTP285	ltpFR2	19	10	JAPAN	749	n/a	n/a	0	0	0
2427845	REC_WORD	wordpools/wasnorm_wordpool_576.txt	LTP285	ltpFR2	19	10	DONKEY	484	n/a	n/a	0	0	0
2429344	REC_WORD	wordpools/wasnorm_wordpool_576.txt	LTP285	ltpFR2	19	10	TORTOISE	1486	n/a	n/a	0	0	0
2430549	REC_WORD	wordpools/wasnorm_wordpool_576.txt	LTP285	ltpFR2	19	10	ZEBRA	1635	n/a	n/a	0	0	0
2433239	REC_WORD	wordpools/wasnorm_wordpool_576.txt	LTP285	ltpFR2	19	10	PLATE	1086	n/a	n/a	0	0	0
2436490	REC_WORD	wordpools/wasnorm_wordpool_576.txt	LTP285	ltpFR2	19	10	BLUEPRINT	142	n/a	n/a	0	0	0
2446853	REC_WORD	wordpools/wasnorm_wordpool_576.txt	LTP285	ltpFR2	19	10	PLIERS	1089	n/a	n/a	0	0	0
2449820	REC_WORD	wordpools/wasnorm_wordpool_576.txt	LTP285	ltpFR2	19	10	SPOON	1357	n/a	n/a	0	0	0
2454298	REC_WORD	wordpools/wasnorm_wordpool_576.txt	LTP285	ltpFR2	19	10	YARN	1631	n/a	n/a	0	0	0
2462408	REC_WORD	wordpools/wasnorm_wordpool_576.txt	LTP285	ltpFR2	19	10	CARRIAGE	248	n/a	n/a	0	0	0
2470936	REC_WORD	wordpools/wasnorm_wordpool_576.txt	LTP285	ltpFR2	19	10	SPACE	1345	n/a	n/a	0	0	0
2473172	REC_WORD	wordpools/wasnorm_wordpool_576.txt	LTP285	ltpFR2	19	10	STAR	1373	n/a	n/a	0	0	0
2510573	DISTRACTOR	n/a	LTP285	ltpFR2	19	11	n/a	n/a	n/a	n/a	0	0	0
2510574	START	n/a	LTP285	ltpFR2	19	n/a	n/a	n/a	16	n/a	n/a	n/a	n/a
2510623	PROB	n/a	LTP285	ltpFR2	19	n/a	n/a	n/a	16	23	9	6	8
2512991	PROB	n/a	LTP285	ltpFR2	19	n/a	n/a	n/a	16	13	2	6	5
2515718	PROB	n/a	LTP285	ltpFR2	19	n/a	n/a	n/a	16	12	3	4	4
2516998	PROB	n/a	LTP285	ltpFR2	19	n/a	n/a	n/a	16	9	4	3	2
2518337	PROB	n/a	LTP285	ltpFR2	19	n/a	n/a	n/a	16	14	1	4	9
2519516	PROB	n/a	LTP285	ltpFR2	19	n/a	n/a	n/a	16	12	9	1	2
2520511	PROB	n/a	LTP285	ltpFR2	19	n/a	n/a	n/a	16	17	8	8	1
2521640	PROB	n/a	LTP285	ltpFR2	19	n/a	n/a	n/a	16	8	2	4	2
2522736	PROB	n/a	LTP285	ltpFR2	19	n/a	n/a	n/a	16	9	1	7	1
2523706	PROB	n/a	LTP285	ltpFR2	19	n/a	n/a	n/a	16	17	6	8	3
2526250	PROB	n/a	LTP285	ltpFR2	19	n/a	n/a	n/a	16	14	3	2	9
2527554	PROB	n/a	LTP285	ltpFR2	19	n/a	n/a	n/a	16	9	2	3	4
2529404	PROB	n/a	LTP285	ltpFR2	19	n/a	n/a	n/a	16	15	6	6	3
2530565	PROB	n/a	LTP285	ltpFR2	19	n/a	n/a	n/a	16	22	9	4	9
2532515	PROB	n/a	LTP285	ltpFR2	19	n/a	n/a	n/a	16	16	2	9	5
2534087	STOP	n/a	LTP285	ltpFR2	19	n/a	n/a	n/a	16	n/a	n/a	n/a	n/a
2535593	WORD	wordpools/wasnorm_wordpool_576.txt	LTP285	ltpFR2	19	11	CONTRACT	368	n/a	n/a	0	0	0
2538069	WORD	wordpools/wasnorm_wordpool_576.txt	LTP285	ltpFR2	19	11	QUEEN	1149	n/a	n/a	0	0	0
2540520	WORD	wordpools/wasnorm_wordpool_576.txt	LTP285	ltpFR2	19	11	SKILLET	1317	n/a	n/a	0	0	0
2543173	WORD	wordpools/wasnorm_wordpool_576.txt	LTP285	ltpFR2	19	11	OZONE	996	n/a	n/a	0	0	0
2545882	WORD	wordpools/wasnorm_wordpool_576.txt	LTP285	ltpFR2	19	11	BRACES	164	n/a	n/a	0	0	0
2548642	WORD	wordpools/wasnorm_wordpool_576.txt	LTP285	ltpFR2	19	11	PLASTER	1085	n/a	n/a	0	0	0
2551361	WORD	wordpools/wasnorm_wordpool_576.txt	LTP285	ltpFR2	19	11	LEOPARD	812	n/a	n/a	0	0	0
2553862	WORD	wordpools/wasnorm_wordpool_576.txt	LTP285	ltpFR2	19	11	PRINCE	1124	n/a	n/a	0	0	0
2556313	WORD	wordpools/wasnorm_wordpool_576.txt	LTP285	ltpFR2	19	11	CURTAIN	427	n/a	n/a	0	0	0
2558989	WORD	wordpools/wasnorm_wordpool_576.txt	LTP285	ltpFR2	19	11	MAILMAN	858	n/a	n/a	0	0	0
2561582	WORD	wordpools/wasnorm_wordpool_576.txt	LTP285	ltpFR2	19	11	CRAYON	401	n/a	n/a	0	0	0
2564403	WORD	wordpools/wasnorm_wordpool_576.txt	LTP285	ltpFR2	19	11	CIGAR	308	n/a	n/a	0	0	0
2566995	WORD	wordpools/wasnorm_wordpool_576.txt	LTP285	ltpFR2	19	11	SPHINX	1349	n/a	n/a	0	0	0
2569579	WORD	wordpools/wasnorm_wordpool_576.txt	LTP285	ltpFR2	19	11	DENTIST	447	n/a	n/a	0	0	0
2572165	WORD	wordpools/wasnorm_wordpool_576.txt	LTP285	ltpFR2	19	11	FRIAR	605	n/a	n/a	0	0	0
2574690	WORD	wordpools/wasnorm_wordpool_576.txt	LTP285	ltpFR2	19	11	CROSS	413	n/a	n/a	0	0	0
2577292	WORD	wordpools/wasnorm_wordpool_576.txt	LTP285	ltpFR2	19	11	FLASHLIGHT	575	n/a	n/a	0	0	0
2580111	WORD	wordpools/wasnorm_wordpool_576.txt	LTP285	ltpFR2	19	11	GAVEL	627	n/a	n/a	0	0	0
2582721	WORD	wordpools/wasnorm_wordpool_576.txt	LTP285	ltpFR2	19	11	BEAST	108	n/a	n/a	0	0	0
2585198	WORD	wordpools/wasnorm_wordpool_576.txt	LTP285	ltpFR2	19	11	BROOK	177	n/a	n/a	0	0	0
2587940	WORD	wordpools/wasnorm_wordpool_576.txt	LTP285	ltpFR2	19	11	VALVE	1546	n/a	n/a	0	0	0
2590433	WORD	wordpools/wasnorm_wordpool_576.txt	LTP285	ltpFR2	19	11	MARKET	871	n/a	n/a	0	0	0
2593119	WORD	wordpools/wasnorm_wordpool_576.txt	LTP285	ltpFR2	19	11	PLAZA	1088	n/a	n/a	0	0	0
2595853	WORD	wordpools/wasnorm_wordpool_576.txt	LTP285	ltpFR2	19	11	RIVER	1194	n/a	n/a	0	0	0
2597468	START	n/a	LTP285	ltpFR2	19	n/a	n/a	n/a	17	n/a	n/a	n/a	n/a
2598551	DISTRACTOR	n/a	LTP285	ltpFR2	19	11	n/a	n/a	n/a	n/a	0	0	0
2598564	PROB	n/a	LTP285	ltpFR2	19	n/a	n/a	n/a	17	9	2	4	5
2600296	PROB	n/a	LTP285	ltpFR2	19	n/a	n/a	n/a	17	18	6	5	7
2601692	PROB	n/a	LTP285	ltpFR2	19	n/a	n/a	n/a	17	8	5	1	2
2603307	PROB	n/a	LTP285	ltpFR2	19	n/a	n/a	n/a	17	16	2	8	6
2604378	PROB	n/a	LTP285	ltpFR2	19	n/a	n/a	n/a	17	22	9	5	8
2606277	PROB	n/a	LTP285	ltpFR2	19	n/a	n/a	n/a	17	15	5	8	2
2608309	PROB	n/a	LTP285	ltpFR2	19	n/a	n/a	n/a	17	15	9	1	5
2609138	PROB	n/a	LTP285	ltpFR2	19	n/a	n/a	n/a	17	14	1	8	5
2610500	PROB	n/a	LTP285	ltpFR2	19	n/a	n/a	n/a	17	20	8	9	3
2612250	PROB	n/a	LTP285	ltpFR2	19	n/a	n/a	n/a	17	13	6	4	3
2613478	PROB	n/a	LTP285	ltpFR2	19	n/a	n/a	n/a	17	12	1	8	3
2614833	PROB	n/a	LTP285	ltpFR2	19	n/a	n/a	n/a	17	16	5	3	8
2616181	PROB	n/a	LTP285	ltpFR2	19	n/a	n/a	n/a	17	8	1	1	6
2617050	PROB	n/a	LTP285	ltpFR2	19	n/a	n/a	n/a	17	17	9	2	6
2618322	PROB	n/a	LTP285	ltpFR2	19	n/a	n/a	n/a	17	23	8	8	7
2619693	PROB	n/a	LTP285	ltpFR2	19	n/a	n/a	n/a	17	17	5	8	4
2620927	STOP	n/a	LTP285	ltpFR2	19	n/a	n/a	n/a	17	n/a	n/a	n/a	n/a
2623333	REC_START	n/a	LTP285	ltpFR2	19	11	n/a	n/a	n/a	n/a	0	0	0
2623922	REC_WORD	wordpools/wasnorm_wordpool_576.txt	LTP285	ltpFR2	19	11	BROOK	177	n/a	n/a	0	0	0
2624742	REC_WORD	wordpools/wasnorm_wordpool_576.txt	LTP285	ltpFR2	19	11	RIVER	1194	n/a	n/a	0	0	0
2625738	REC_WORD	wordpools/wasnorm_wordpool_576.txt	LTP285	ltpFR2	19	11	PLAZA	1088	n/a	n/a	0	0	0
2626816	REC_WORD	wordpools/wasnorm_wordpool_576.txt	LTP285	ltpFR2	19	11	MARKET	871	n/a	n/a	0	0	0
2628066	REC_WORD	wordpools/wasnorm_wordpool_576.txt	LTP285	ltpFR2	19	11	FRIAR	605	n/a	n/a	0	0	0
2629268	REC_WORD	wordpools/wasnorm_wordpool_576.txt	LTP285	ltpFR2	19	11	CROSS	413	n/a	n/a	0	0	0
2630635	REC_WORD	wordpools/wasnorm_wordpool_576.txt	LTP285	ltpFR2	19	11	PRINCE	1124	n/a	n/a	0	0	0
2631831	REC_WORD	wordpools/wasnorm_wordpool_576.txt	LTP285	ltpFR2	19	11	QUEEN	1149	n/a	n/a	0	0	0
2633552	REC_WORD	wordpools/wasnorm_wordpool_576.txt	LTP285	ltpFR2	19	11	PLASTER	1085	n/a	n/a	0	0	0
2635847	REC_WORD	wordpools/wasnorm_wordpool_576.txt	LTP285	ltpFR2	19	11	CRAYON	401	n/a	n/a	0	0	0
2644858	REC_WORD	wordpools/wasnorm_wordpool_576.txt	LTP285	ltpFR2	19	11	CIGAR	308	n/a	n/a	0	0	0
2651982	REC_WORD	wordpools/wasnorm_wordpool_576.txt	LTP285	ltpFR2	19	11	MAILMAN	858	n/a	n/a	0	0	0
2654106	REC_WORD	wordpools/wasnorm_wordpool_576.txt	LTP285	ltpFR2	19	11	DENTIST	447	n/a	n/a	0	0	0
2655302	REC_WORD	wordpools/wasnorm_wordpool_576.txt	LTP285	ltpFR2	19	11	BRACES	164	n/a	n/a	0	0	0
2661990	REC_WORD	wordpools/wasnorm_wordpool_576.txt	LTP285	ltpFR2	19	11	SKILLET	1317	n/a	n/a	0	0	0
2714384	WORD	wordpools/wasnorm_wordpool_576.txt	LTP285	ltpFR2	19	12	SPARROW	1347	n/a	n/a	0	0	0
2716901	WORD	wordpools/wasnorm_wordpool_576.txt	LTP285	ltpFR2	19	12	MAPLE	866	n/a	n/a	0	0	0
2719444	WORD	wordpools/wasnorm_wordpool_576.txt	LTP285	ltpFR2	19	12	SPONGE	1355	n/a	n/a	0	0	0
2722164	WORD	wordpools/wasnorm_wordpool_576.txt	LTP285	ltpFR2	19	12	PIANO	1057	n/a	n/a	0	0	0
2724630	WORD	wordpools/wasnorm_wordpool_576.txt	LTP285	ltpFR2	19	12	PICTURE	1061	n/a	n/a	0	0	0
2727400	WORD	wordpools/wasnorm_wordpool_576.txt	LTP285	ltpFR2	19	12	COSTUME	383	n/a	n/a	0	0	0
2730034	WORD	wordpools/wasnorm_wordpool_576.txt	LTP285	ltpFR2	19	12	PARENT	1013	n/a	n/a	0	0	0
2732627	WORD	wordpools/wasnorm_wordpool_576.txt	LTP285	ltpFR2	19	12	POCKET	1093	n/a	n/a	0	0	0
2735163	WORD	wordpools/wasnorm_wordpool_576.txt	LTP285	ltpFR2	19	12	GRAVEL	659	n/a	n/a	0	0	0
2737755	WORD	wordpools/wasnorm_wordpool_576.txt	LTP285	ltpFR2	19	12	KIDNEY	776	n/a	n/a	0	0	0
2740432	WORD	wordpools/wasnorm_wordpool_576.txt	LTP285	ltpFR2	19	12	BROTHER	179	n/a	n/a	0	0	0
2743016	WORD	wordpools/wasnorm_wordpool_576.txt	LTP285	ltpFR2	19	12	DIVER	476	n/a	n/a	0	0	0
2745819	WORD	wordpools/wasnorm_wordpool_576.txt	LTP285	ltpFR2	19	12	PUPPY	1144	n/a	n/a	0	0	0
2748371	WORD	wordpools/wasnorm_wordpool_576.txt	LTP285	ltpFR2	19	12	BATHTUB	100	n/a	n/a	0	0	0
2751096	WORD	wordpools/wasnorm_wordpool_576.txt	LTP285	ltpFR2	19	12	COLONEL	348	n/a	n/a	0	0	0
2753631	WORD	wordpools/wasnorm_wordpool_576.txt	LTP285	ltpFR2	19	12	WHISTLE	1606	n/a	n/a	0	0	0
2756242	WORD	wordpools/wasnorm_wordpool_576.txt	LTP285	ltpFR2	19	12	CLOTHES	327	n/a	n/a	0	0	0
2758951	WORD	wordpools/wasnorm_wordpool_576.txt	LTP285	ltpFR2	19	12	JEANS	752	n/a	n/a	0	0	0
2761519	WORD	wordpools/wasnorm_wordpool_576.txt	LTP285	ltpFR2	19	12	ZIPPER	1636	n/a	n/a	0	0	0
2764139	WORD	wordpools/wasnorm_wordpool_576.txt	LTP285	ltpFR2	19	12	BANJO	82	n/a	n/a	0	0	0
2766764	WORD	wordpools/wasnorm_wordpool_576.txt	LTP285	ltpFR2	19	12	RECORD	1176	n/a	n/a	0	0	0
2769383	WORD	wordpools/wasnorm_wordpool_576.txt	LTP285	ltpFR2	19	12	TABLE	1426	n/a	n/a	0	0	0
2772127	WORD	wordpools/wasnorm_wordpool_576.txt	LTP285	ltpFR2	19	12	FOOTBALL	591	n/a	n/a	0	0	0
2774878	WORD	wordpools/wasnorm_wordpool_576.txt	LTP285	ltpFR2	19	12	PIGMENT	1066	n/a	n/a	0	0	0
2776493	START	n/a	LTP285	ltpFR2	19	n/a	n/a	n/a	18	n/a	n/a	n/a	n/a
2777547	DISTRACTOR	n/a	LTP285	ltpFR2	19	12	n/a	n/a	n/a	n/a	0	0	0
2777563	PROB	n/a	LTP285	ltpFR2	19	n/a	n/a	n/a	18	18	8	5	5
2778743	PROB	n/a	LTP285	ltpFR2	19	n/a	n/a	n/a	18	12	1	7	4
2779738	PROB	n/a	LTP285	ltpFR2	19	n/a	n/a	n/a	18	19	4	7	8
2782030	PROB	n/a	LTP285	ltpFR2	19	n/a	n/a	n/a	18	15	6	4	5
2782959	PROB	n/a	LTP285	ltpFR2	19	n/a	n/a	n/a	18	18	2	8	8
2783970	PROB	n/a	LTP285	ltpFR2	19	n/a	n/a	n/a	18	12	5	1	5
2785083	PROB	n/a	LTP285	ltpFR2	19	n/a	n/a	n/a	18	15	7	3	5
2786054	PROB	n/a	LTP285	ltpFR2	19	n/a	n/a	n/a	18	8	2	4	2
2787576	PROB	n/a	LTP285	ltpFR2	19	n/a	n/a	n/a	18	16	8	1	7
2788730	PROB	n/a	LTP285	ltpFR2	19	n/a	n/a	n/a	18	17	4	4	9
2789809	PROB	n/a	LTP285	ltpFR2	19	n/a	n/a	n/a	18	16	6	6	2
2790738	PROB	n/a	LTP285	ltpFR2	19	n/a	n/a	n/a	18	18	9	1	8
2792412	PROB	n/a	LTP285	ltpFR2	19	n/a	n/a	n/a	18	13	1	5	7
2793833	PROB	n/a	LTP285	ltpFR2	19	n/a	n/a	n/a	18	18	2	9	7
2795130	PROB	n/a	LTP285	ltpFR2	19	n/a	n/a	n/a	18	15	1	9	5
2796041	PROB	n/a	LTP285	ltpFR2	19	n/a	n/a	n/a	18	11	3	2	6
2797138	PROB	n/a	LTP285	ltpFR2	19	n/a	n/a	n/a	18	15	5	8	2
2798090	PROB	n/a	LTP285	ltpFR2	19	n/a	n/a	n/a	18	22	9	6	7
2799911	STOP	n/a	LTP285	ltpFR2	19	n/a	n/a	n/a	18	n/a	n/a	n/a	n/a
2802333	REC_START	n/a	LTP285	ltpFR2	19	12	n/a	n/a	n/a	n/a	0	0	0
2803272	REC_WORD	wordpools/wasnorm_wordpool_576.txt	LTP285	ltpFR2	19	12	PIGMENT	1066	n/a	n/a	0	0	0
2805093	REC_WORD	wordpools/wasnorm_wordpool_576.txt	LTP285	ltpFR2	19	12	WHISTLE	1606	n/a	n/a	0	0	0
2806173	REC_WORD	wordpools/wasnorm_wordpool_576.txt	LTP285	ltpFR2	19	12	RECORD	1176	n/a	n/a	0	0	0
2807172	REC_WORD	wordpools/wasnorm_wordpool_576.txt	LTP285	ltpFR2	19	12	TABLE	1426	n/a	n/a	0	0	0
2811349	REC_WORD	wordpools/wasnorm_wordpool_576.txt	LTP285	ltpFR2	19	12	COLONEL	348	n/a	n/a	0	0	0
2815161	REC_WORD	wordpools/wasnorm_wordpool_576.txt	LTP285	ltpFR2	19	12	SPARROW	1347	n/a	n/a	0	0	0
2829006	REC_WORD	wordpools/wasnorm_wordpool_576.txt	LTP285	ltpFR2	19	12	PARENT	1013	n/a	n/a	0	0	0
2830148	REC_WORD	wordpools/wasnorm_wordpool_576.txt	LTP285	ltpFR2	19	12	BROTHER	179	n/a	n/a	0	0	0
2843384	REC_WORD	wordpools/wasnorm_wordpool_576.txt	LTP285	ltpFR2	19	12	TUBA	1515	n/a	n/a	0	0	0
2850225	REC_WORD	wordpools/wasnorm_wordpool_576.txt	LTP285	ltpFR2	19	12	COSTUME	383	n/a	n/a	0	0	0
2851473	REC_WORD	wordpools/wasnorm_wordpool_576.txt	LTP285	ltpFR2	19	12	CLOTHES	327	n/a	n/a	0	0	0
2852953	REC_WORD	wordpools/wasnorm_wordpool_576.txt	LTP285	ltpFR2	19	12	JEANS	752	n/a	n/a	0	0	0
2853950	REC_WORD	wordpools/wasnorm_wordpool_576.txt	LTP285	ltpFR2	19	12	ZIPPER	1636	n/a	n/a	0	0	0
2855158	REC_WORD	wordpools/wasnorm_wordpool_576.txt	LTP285	ltpFR2	19	12	POCKET	1093	n/a	n/a	0	0	0
2875802	REC_WORD	wordpools/wasnorm_wordpool_576.txt	LTP285	ltpFR2	19	12	LEADER	807	n/a	n/a	0	0	0
2893359	DISTRACTOR	n/a	LTP285	ltpFR2	19	13	n/a	n/a	n/a	n/a	0	0	0
2893359	START	n/a	LTP285	ltpFR2	19	n/a	n/a	n/a	19	n/a	n/a	n/a	n/a
2893409	PROB	n/a	LTP285	ltpFR2	19	n/a	n/a	n/a	19	16	1	9	6
2894621	PROB	n/a	LTP285	ltpFR2	19	n/a	n/a	n/a	19	17	6	6	5
2895959	PROB	n/a	LTP285	ltpFR2	19	n/a	n/a	n/a	19	15	4	6	5
2897005	PROB	n/a	LTP285	ltpFR2	19	n/a	n/a	n/a	19	16	4	5	7
2898511	PROB	n/a	LTP285	ltpFR2	19	n/a	n/a	n/a	19	17	3	6	8
2899832	PROB	n/a	LTP285	ltpFR2	19	n/a	n/a	n/a	19	18	2	9	7
2901239	PROB	n/a	LTP285	ltpFR2	19	n/a	n/a	n/a	19	13	3	7	3
2902651	PROB	n/a	LTP285	ltpFR2	19	n/a	n/a	n/a	19	14	3	6	5
2904433	PROB	n/a	LTP285	ltpFR2	19	n/a	n/a	n/a	19	15	4	8	3
2905846	PROB	n/a	LTP285	ltpFR2	19	n/a	n/a	n/a	19	18	9	1	8
2906809	PROB	n/a	LTP285	ltpFR2	19	n/a	n/a	n/a	19	19	9	4	6
2908249	PROB	n/a	LTP285	ltpFR2	19	n/a	n/a	n/a	19	6	2	2	2
2909160	PROB	n/a	LTP285	ltpFR2	19	n/a	n/a	n/a	19	10	6	2	2
2910614	PROB	n/a	LTP285	ltpFR2	19	n/a	n/a	n/a	19	13	3	6	4
2911585	PROB	n/a	LTP285	ltpFR2	19	n/a	n/a	n/a	19	17	9	1	7
2912957	PROB	n/a	LTP285	ltpFR2	19	n/a	n/a	n/a	19	15	8	5	2
2914279	PROB	n/a	LTP285	ltpFR2	19	n/a	n/a	n/a	19	16	1	6	9
2915734	PROB	n/a	LTP285	ltpFR2	19	n/a	n/a	n/a	19	19	9	5	5
2916584	STOP	n/a	LTP285	ltpFR2	19	n/a	n/a	n/a	19	n/a	n/a	n/a	n/a
2918486	WORD	wordpools/wasnorm_wordpool_576.txt	LTP285	ltpFR2	19	13	VENUS	1557	n/a	n/a	0	0	0
2921247	WORD	wordpools/wasnorm_wordpool_576.txt	LTP285	ltpFR2	19	13	BARREL	91	n/a	n/a	0	0	0
2923923	WORD	wordpools/wasnorm_wordpool_576.txt	LTP285	ltpFR2	19	13	BOUQUET	157	n/a	n/a	0	0	0
2926541	WORD	wordpools/wasnorm_wordpool_576.txt	LTP285	ltpFR2	19	13	CANDY	230	n/a	n/a	0	0	0
2929093	WORD	wordpools/wasnorm_wordpool_576.txt	LTP285	ltpFR2	19	13	GREASE	660	n/a	n/a	0	0	0
2931585	WORD	wordpools/wasnorm_wordpool_576.txt	LTP285	ltpFR2	19	13	HIGHWAY	707	n/a	n/a	0	0	0
2934137	WORD	wordpools/wasnorm_wordpool_576.txt	LTP285	ltpFR2	19	13	SIDEWALK	1303	n/a	n/a	0	0	0
2936939	WORD	wordpools/wasnorm_wordpool_576.txt	LTP285	ltpFR2	19	13	SCARF	1246	n/a	n/a	0	0	0
2939382	WORD	wordpools/wasnorm_wordpool_576.txt	LTP285	ltpFR2	19	13	FOREHEAD	592	n/a	n/a	0	0	0
2941991	WORD	wordpools/wasnorm_wordpool_576.txt	LTP285	ltpFR2	19	13	COCOON	339	n/a	n/a	0	0	0
2944592	WORD	wordpools/wasnorm_wordpool_576.txt	LTP285	ltpFR2	19	13	IDOL	733	n/a	n/a	0	0	0
2947279	WORD	wordpools/wasnorm_wordpool_576.txt	LTP285	ltpFR2	19	13	SUNSET	1408	n/a	n/a	0	0	0
2949754	WORD	wordpools/wasnorm_wordpool_576.txt	LTP285	ltpFR2	19	13	OUTDOORS	987	n/a	n/a	0	0	0
2952572	WORD	wordpools/wasnorm_wordpool_576.txt	LTP285	ltpFR2	19	13	MARS	873	n/a	n/a	0	0	0
2955015	WORD	wordpools/wasnorm_wordpool_576.txt	LTP285	ltpFR2	19	13	FLEET	578	n/a	n/a	0	0	0
2957575	WORD	wordpools/wasnorm_wordpool_576.txt	LTP285	ltpFR2	19	13	RATTLE	1170	n/a	n/a	0	0	0
2960144	WORD	wordpools/wasnorm_wordpool_576.txt	LTP285	ltpFR2	19	13	SERVANT	1271	n/a	n/a	0	0	0
2962711	WORD	wordpools/wasnorm_wordpool_576.txt	LTP285	ltpFR2	19	13	LAKE	796	n/a	n/a	0	0	0
2965271	WORD	wordpools/wasnorm_wordpool_576.txt	LTP285	ltpFR2	19	13	FOOT	590	n/a	n/a	0	0	0
2967847	WORD	wordpools/wasnorm_wordpool_576.txt	LTP285	ltpFR2	19	13	FUNGUS	614	n/a	n/a	0	0	0
2970557	WORD	wordpools/wasnorm_wordpool_576.txt	LTP285	ltpFR2	19	13	DASHBOARD	441	n/a	n/a	0	0	0
2973117	WORD	wordpools/wasnorm_wordpool_576.txt	LTP285	ltpFR2	19	13	ACTRESS	6	n/a	n/a	0	0	0
2975910	WORD	wordpools/wasnorm_wordpool_576.txt	LTP285	ltpFR2	19	13	VIKING	1565	n/a	n/a	0	0	0
2978604	WORD	wordpools/wasnorm_wordpool_576.txt	LTP285	ltpFR2	19	13	CLOCK	325	n/a	n/a	0	0	0
2980220	START	n/a	LTP285	ltpFR2	19	n/a	n/a	n/a	20	n/a	n/a	n/a	n/a
2981383	DISTRACTOR	n/a	LTP285	ltpFR2	19	13	n/a	n/a	n/a	n/a	0	0	0
2981399	PROB	n/a	LTP285	ltpFR2	19	n/a	n/a	n/a	20	20	3	9	8
2984201	PROB	n/a	LTP285	ltpFR2	19	n/a	n/a	n/a	20	24	8	9	7
2986057	PROB	n/a	LTP285	ltpFR2	19	n/a	n/a	n/a	20	20	4	8	8
2987330	PROB	n/a	LTP285	ltpFR2	19	n/a	n/a	n/a	20	22	6	8	8
2989052	PROB	n/a	LTP285	ltpFR2	19	n/a	n/a	n/a	20	13	3	7	1
2990006	PROB	n/a	LTP285	ltpFR2	19	n/a	n/a	n/a	20	16	2	9	5
2992123	PROB	n/a	LTP285	ltpFR2	19	n/a	n/a	n/a	20	12	5	3	4
2994430	PROB	n/a	LTP285	ltpFR2	19	n/a	n/a	n/a	20	15	9	5	1
2995351	PROB	n/a	LTP285	ltpFR2	19	n/a	n/a	n/a	20	13	4	5	4
2997642	PROB	n/a	LTP285	ltpFR2	19	n/a	n/a	n/a	20	16	7	4	5
2999014	PROB	n/a	LTP285	ltpFR2	19	n/a	n/a	n/a	20	13	6	5	2
3000195	PROB	n/a	LTP285	ltpFR2	19	n/a	n/a	n/a	20	16	7	6	3
3001490	PROB	n/a	LTP285	ltpFR2	19	n/a	n/a	n/a	20	15	7	2	6
3003384	STOP	n/a	LTP285	ltpFR2	19	n/a	n/a	n/a	20	n/a	n/a	n/a	n/a
3006058	REC_START	n/a	LTP285	ltpFR2	19	13	n/a	n/a	n/a	n/a	0	0	0
3007128	REC_WORD	wordpools/wasnorm_wordpool_576.txt	LTP285	ltpFR2	19	13	CLOCK	325	n/a	n/a	0	0	0
3008444	REC_WORD	wordpools/wasnorm_wordpool_576.txt	LTP285	ltpFR2	19	13	FLEET	578	n/a	n/a	0	0	0
3010088	REC_WORD	wordpools/wasnorm_wordpool_576.txt	LTP285	ltpFR2	19	13	DASHBOARD	441	n/a	n/a	0	0	0
3015460	REC_WORD	wordpools/wasnorm_wordpool_576.txt	LTP285	ltpFR2	19	13	FUNGUS	614	n/a	n/a	0	0	0
3026759	REC_WORD	wordpools/wasnorm_wordpool_576.txt	LTP285	ltpFR2	19	13	VENUS	1557	n/a	n/a	0	0	0
3027451	REC_WORD	wordpools/wasnorm_wordpool_576.txt	LTP285	ltpFR2	19	13	MARS	873	n/a	n/a	0	0	0
3031677	REC_WORD	wordpools/wasnorm_wordpool_576.txt	LTP285	ltpFR2	19	13	COCOON	339	n/a	n/a	0	0	0
3033928	REC_WORD	wordpools/wasnorm_wordpool_576.txt	LTP285	ltpFR2	19	13	FOREHEAD	592	n/a	n/a	0	0	0
3034690	REC_WORD	wordpools/wasnorm_wordpool_576.txt	LTP285	ltpFR2	19	13	SCARF	1246	n/a	n/a	0	0	0
3065466	REC_WORD	wordpools/wasnorm_wordpool_576.txt	LTP285	ltpFR2	19	13	SUNSET	1408	n/a	n/a	0	0	0
3067539	REC_WORD	wordpools/wasnorm_wordpool_576.txt	LTP285	ltpFR2	19	13	OUTDOORS	987	n/a	n/a	0	0	0
3075362	REC_WORD	wordpools/wasnorm_wordpool_576.txt	LTP285	ltpFR2	19	13	SIDEWALK	1303	n/a	n/a	0	0	0
3076042	REC_WORD	wordpools/wasnorm_wordpool_576.txt	LTP285	ltpFR2	19	13	HIGHWAY	707	n/a	n/a	0	0	0
3097144	WORD	wordpools/wasnorm_wordpool_576.txt	LTP285	ltpFR2	19	14	SHERIFF	1284	n/a	n/a	0	0	0
3099669	WORD	wordpools/wasnorm_wordpool_576.txt	LTP285	ltpFR2	19	14	SCRIBBLE	1256	n/a	n/a	0	0	0
3102296	WORD	wordpools/wasnorm_wordpool_576.txt	LTP285	ltpFR2	19	14	RADISH	1158	n/a	n/a	0	0	0
3104805	WORD	wordpools/wasnorm_wordpool_576.txt	LTP285	ltpFR2	19	14	PASTA	1021	n/a	n/a	0	0	0
3107390	WORD	wordpools/wasnorm_wordpool_576.txt	LTP285	ltpFR2	19	14	LION	827	n/a	n/a	0	0	0
3109832	WORD	wordpools/wasnorm_wordpool_576.txt	LTP285	ltpFR2	19	14	WORKER	1621	n/a	n/a	0	0	0
3112484	WORD	wordpools/wasnorm_wordpool_576.txt	LTP285	ltpFR2	19	14	CHIPMUNK	304	n/a	n/a	0	0	0
3115094	WORD	wordpools/wasnorm_wordpool_576.txt	LTP285	ltpFR2	19	14	AGENT	10	n/a	n/a	0	0	0
3117737	WORD	wordpools/wasnorm_wordpool_576.txt	LTP285	ltpFR2	19	14	WASP	1593	n/a	n/a	0	0	0
3120264	WORD	wordpools/wasnorm_wordpool_576.txt	LTP285	ltpFR2	19	14	TERMITE	1451	n/a	n/a	0	0	0
3123091	WORD	wordpools/wasnorm_wordpool_576.txt	LTP285	ltpFR2	19	14	TURKEY	1520	n/a	n/a	0	0	0
3125725	WORD	wordpools/wasnorm_wordpool_576.txt	LTP285	ltpFR2	19	14	BUGGY	188	n/a	n/a	0	0	0
3128528	WORD	wordpools/wasnorm_wordpool_576.txt	LTP285	ltpFR2	19	14	TAXI	1438	n/a	n/a	0	0	0
3131205	WORD	wordpools/wasnorm_wordpool_576.txt	LTP285	ltpFR2	19	14	HAWK	692	n/a	n/a	0	0	0
3133680	WORD	wordpools/wasnorm_wordpool_576.txt	LTP285	ltpFR2	19	14	ROBIN	1199	n/a	n/a	0	0	0
3136199	WORD	wordpools/wasnorm_wordpool_576.txt	LTP285	ltpFR2	19	14	CLAM	315	n/a	n/a	0	0	0
3138741	WORD	wordpools/wasnorm_wordpool_576.txt	LTP285	ltpFR2	19	14	PANTHER	1009	n/a	n/a	0	0	0
3141484	WORD	wordpools/wasnorm_wordpool_576.txt	LTP285	ltpFR2	19	14	BANKER	84	n/a	n/a	0	0	0
3144036	WORD	wordpools/wasnorm_wordpool_576.txt	LTP285	ltpFR2	19	14	EGYPT	519	n/a	n/a	0	0	0
3146562	WORD	wordpools/wasnorm_wordpool_576.txt	LTP285	ltpFR2	19	14	SCALLOP	1242	n/a	n/a	0	0	0
3149248	WORD	wordpools/wasnorm_wordpool_576.txt	LTP285	ltpFR2	19	14	NURSE	963	n/a	n/a	0	0	0
3151899	WORD	wordpools/wasnorm_wordpool_576.txt	LTP285	ltpFR2	19	14	FLASK	576	n/a	n/a	0	0	0
3154542	WORD	wordpools/wasnorm_wordpool_576.txt	LTP285	ltpFR2	19	14	FLAG	573	n/a	n/a	0	0	0
3157136	WORD	wordpools/wasnorm_wordpool_576.txt	LTP285	ltpFR2	19	14	RUG	1215	n/a	n/a	0	0	0
3158750	START	n/a	LTP285	ltpFR2	19	n/a	n/a	n/a	21	n/a	n/a	n/a	n/a
3159950	DISTRACTOR	n/a	LTP285	ltpFR2	19	14	n/a	n/a	n/a	n/a	0	0	0
3159963	PROB	n/a	LTP285	ltpFR2	19	n/a	n/a	n/a	21	8	3	4	1
3161269	PROB	n/a	LTP285	ltpFR2	19	n/a	n/a	n/a	21	12	4	2	6
3162489	PROB	n/a	LTP285	ltpFR2	19	n/a	n/a	n/a	21	17	2	6	9
3163902	PROB	n/a	LTP285	ltpFR2	19	n/a	n/a	n/a	21	13	1	8	4
3165317	PROB	n/a	LTP285	ltpFR2	19	n/a	n/a	n/a	21	9	4	2	3
3167299	PROB	n/a	LTP285	ltpFR2	19	n/a	n/a	n/a	21	10	5	2	3
3168997	PROB	n/a	LTP285	ltpFR2	19	n/a	n/a	n/a	21	19	9	8	2
3170143	PROB	n/a	LTP285	ltpFR2	19	n/a	n/a	n/a	21	24	8	8	8
3171531	PROB	n/a	LTP285	ltpFR2	19	n/a	n/a	n/a	21	13	1	4	8
3173130	PROB	n/a	LTP285	ltpFR2	19	n/a	n/a	n/a	21	20	5	8	7
3174777	PROB	n/a	LTP285	ltpFR2	19	n/a	n/a	n/a	21	14	5	2	7
3176559	PROB	n/a	LTP285	ltpFR2	19	n/a	n/a	n/a	21	22	7	6	9
3177997	PROB	n/a	LTP285	ltpFR2	19	n/a	n/a	n/a	21	14	1	6	7
3178859	PROB	n/a	LTP285	ltpFR2	19	n/a	n/a	n/a	21	6	4	1	1
3179888	PROB	n/a	LTP285	ltpFR2	19	n/a	n/a	n/a	21	23	8	6	9
3182750	STOP	n/a	LTP285	ltpFR2	19	n/a	n/a	n/a	21	n/a	n/a	n/a	n/a
3184606	REC_START	n/a	LTP285	ltpFR2	19	14	n/a	n/a	n/a	n/a	0	0	0
3185197	REC_WORD	wordpools/wasnorm_wordpool_576.txt	LTP285	ltpFR2	19	14	NURSE	963	n/a	n/a	0	0	0
3186007	REC_WORD	wordpools/wasnorm_wordpool_576.txt	LTP285	ltpFR2	19	14	FLASK	576	n/a	n/a	0	0	0
3187339	REC_WORD	wordpools/wasnorm_wordpool_576.txt	LTP285	ltpFR2	19	14	BUGGY	188	n/a	n/a	0	0	0
3188344	REC_WORD	wordpools/wasnorm_wordpool_576.txt	LTP285	ltpFR2	19	14	TAXI	1438	n/a	n/a	0	0	0
3189697	REC_WORD	wordpools/wasnorm_wordpool_576.txt	LTP285	ltpFR2	19	14	TERMITE	1451	n/a	n/a	0	0	0
3190603	REC_WORD	wordpools/wasnorm_wordpool_576.txt	LTP285	ltpFR2	19	14	WASP	1593	n/a	n/a	0	0	0
3191791	REC_WORD	wordpools/wasnorm_wordpool_576.txt	LTP285	ltpFR2	19	14	ROBIN	1199	n/a	n/a	0	0	0
3192791	REC_WORD	wordpools/wasnorm_wordpool_576.txt	LTP285	ltpFR2	19	14	HAWK	692	n/a	n/a	0	0	0
3193972	REC_WORD	wordpools/wasnorm_wordpool_576.txt	LTP285	ltpFR2	19	14	SCALLOP	1242	n/a	n/a	0	0	0
3195235	REC_WORD	wordpools/wasnorm_wordpool_576.txt	LTP285	ltpFR2	19	14	CLAM	315	n/a	n/a	0	0	0
3198001	REC_WORD	wordpools/wasnorm_wordpool_576.txt	LTP285	ltpFR2	19	14	PANTHER	1009	n/a	n/a	0	0	0
3209726	REC_WORD	wordpools/wasnorm_wordpool_576.txt	LTP285	ltpFR2	19	14	EGYPT	519	n/a	n/a	0	0	0
3211733	REC_WORD	wordpools/wasnorm_wordpool_576.txt	LTP285	ltpFR2	19	14	SHERIFF	1284	n/a	n/a	0	0	0
3215261	REC_WORD	wordpools/wasnorm_wordpool_576.txt	LTP285	ltpFR2	19	14	SCRIBBLE	1256	n/a	n/a	0	0	0
3252627	REC_WORD	wordpools/wasnorm_wordpool_576.txt	LTP285	ltpFR2	19	14	BANKER	84	n/a	n/a	0	0	0
3275690	DISTRACTOR	n/a	LTP285	ltpFR2	19	15	n/a	n/a	n/a	n/a	0	0	0
3275690	START	n/a	LTP285	ltpFR2	19	n/a	n/a	n/a	22	n/a	n/a	n/a	n/a
3275740	PROB	n/a	LTP285	ltpFR2	19	n/a	n/a	n/a	22	20	9	5	6
3277139	PROB	n/a	LTP285	ltpFR2	19	n/a	n/a	n/a	22	21	7	9	5
3283629	PROB	n/a	LTP285	ltpFR2	19	n/a	n/a	n/a	22	18	8	9	1
3284649	PROB	n/a	LTP285	ltpFR2	19	n/a	n/a	n/a	22	8	1	1	6
3285486	PROB	n/a	LTP285	ltpFR2	19	n/a	n/a	n/a	22	12	6	4	2
3286357	PROB	n/a	LTP285	ltpFR2	19	n/a	n/a	n/a	22	21	5	9	7
3290296	PROB	n/a	LTP285	ltpFR2	19	n/a	n/a	n/a	22	16	5	9	2
3292713	PROB	n/a	LTP285	ltpFR2	19	n/a	n/a	n/a	22	23	8	9	6
3294712	PROB	n/a	LTP285	ltpFR2	19	n/a	n/a	n/a	22	13	4	8	1
3296185	PROB	n/a	LTP285	ltpFR2	19	n/a	n/a	n/a	22	12	8	3	1
3297323	PROB	n/a	LTP285	ltpFR2	19	n/a	n/a	n/a	22	21	5	9	9
3299064	STOP	n/a	LTP285	ltpFR2	19	n/a	n/a	n/a	22	n/a	n/a	n/a	n/a
3300768	WORD	wordpools/wasnorm_wordpool_576.txt	LTP285	ltpFR2	19	15	POISON	1096	n/a	n/a	0	0	0
3303595	WORD	wordpools/wasnorm_wordpool_576.txt	LTP285	ltpFR2	19	15	COUSIN	392	n/a	n/a	0	0	0
3306156	WORD	wordpools/wasnorm_wordpool_576.txt	LTP285	ltpFR2	19	15	EMPIRE	530	n/a	n/a	0	0	0
3308590	WORD	wordpools/wasnorm_wordpool_576.txt	LTP285	ltpFR2	19	15	JURY	766	n/a	n/a	0	0	0
3311134	WORD	wordpools/wasnorm_wordpool_576.txt	LTP285	ltpFR2	19	15	POLICE	1098	n/a	n/a	0	0	0
3313918	WORD	wordpools/wasnorm_wordpool_576.txt	LTP285	ltpFR2	19	15	WIDOW	1608	n/a	n/a	0	0	0
3316645	WORD	wordpools/wasnorm_wordpool_576.txt	LTP285	ltpFR2	19	15	WIFE	1609	n/a	n/a	0	0	0
3319247	WORD	wordpools/wasnorm_wordpool_576.txt	LTP285	ltpFR2	19	15	FLIPPER	580	n/a	n/a	0	0	0
3321697	WORD	wordpools/wasnorm_wordpool_576.txt	LTP285	ltpFR2	19	15	PEPPER	1047	n/a	n/a	0	0	0
3324408	WORD	wordpools/wasnorm_wordpool_576.txt	LTP285	ltpFR2	19	15	SODA	1341	n/a	n/a	0	0	0
3326942	WORD	wordpools/wasnorm_wordpool_576.txt	LTP285	ltpFR2	19	15	SMOG	1330	n/a	n/a	0	0	0
3329585	WORD	wordpools/wasnorm_wordpool_576.txt	LTP285	ltpFR2	19	15	SHELF	1280	n/a	n/a	0	0	0
3332230	WORD	wordpools/wasnorm_wordpool_576.txt	LTP285	ltpFR2	19	15	TURTLE	1522	n/a	n/a	0	0	0
3334897	WORD	wordpools/wasnorm_wordpool_576.txt	LTP285	ltpFR2	19	15	ANTLER	29	n/a	n/a	0	0	0
3337407	WORD	wordpools/wasnorm_wordpool_576.txt	LTP285	ltpFR2	19	15	LADY	794	n/a	n/a	0	0	0
3340066	WORD	wordpools/wasnorm_wordpool_576.txt	LTP285	ltpFR2	19	15	WOMAN	1620	n/a	n/a	0	0	0
3342819	WORD	wordpools/wasnorm_wordpool_576.txt	LTP285	ltpFR2	19	15	GRILL	661	n/a	n/a	0	0	0
3345579	WORD	wordpools/wasnorm_wordpool_576.txt	LTP285	ltpFR2	19	15	POPCORN	1104	n/a	n/a	0	0	0
3348080	WORD	wordpools/wasnorm_wordpool_576.txt	LTP285	ltpFR2	19	15	BISON	131	n/a	n/a	0	0	0
3350874	WORD	wordpools/wasnorm_wordpool_576.txt	LTP285	ltpFR2	19	15	CLAMP	316	n/a	n/a	0	0	0
3353609	WORD	wordpools/wasnorm_wordpool_576.txt	LTP285	ltpFR2	19	15	PISTON	1076	n/a	n/a	0	0	0
3356404	WORD	wordpools/wasnorm_wordpool_576.txt	LTP285	ltpFR2	19	15	HOOD	714	n/a	n/a	0	0	0
3359113	WORD	wordpools/wasnorm_wordpool_576.txt	LTP285	ltpFR2	19	15	SNAKE	1333	n/a	n/a	0	0	0
3361907	WORD	wordpools/wasnorm_wordpool_576.txt	LTP285	ltpFR2	19	15	BUTCHER	203	n/a	n/a	0	0	0
3363522	START	n/a	LTP285	ltpFR2	19	n/a	n/a	n/a	23	n/a	n/a	n/a	n/a
3364609	DISTRACTOR	n/a	LTP285	ltpFR2	19	15	n/a	n/a	n/a	n/a	0	0	0
3364625	PROB	n/a	LTP285	ltpFR2	19	n/a	n/a	n/a	23	18	5	8	5
3365872	PROB	n/a	LTP285	ltpFR2	19	n/a	n/a	n/a	23	11	4	6	1
3366767	PROB	n/a	LTP285	ltpFR2	19	n/a	n/a	n/a	23	23	5	9	9
3368207	PROB	n/a	LTP285	ltpFR2	19	n/a	n/a	n/a	23	20	6	6	8
3369419	PROB	n/a	LTP285	ltpFR2	19	n/a	n/a	n/a	23	17	2	7	8
3371058	PROB	n/a	LTP285	ltpFR2	19	n/a	n/a	n/a	23	18	4	5	9
3372172	PROB	n/a	LTP285	ltpFR2	19	n/a	n/a	n/a	23	19	8	6	5
3373509	PROB	n/a	LTP285	ltpFR2	19	n/a	n/a	n/a	23	15	6	7	2
3374789	PROB	n/a	LTP285	ltpFR2	19	n/a	n/a	n/a	23	16	1	7	8
3375793	PROB	n/a	LTP285	ltpFR2	19	n/a	n/a	n/a	23	19	5	6	8
3377207	PROB	n/a	LTP285	ltpFR2	19	n/a	n/a	n/a	23	9	3	5	3
3378537	PROB	n/a	LTP285	ltpFR2	19	n/a	n/a	n/a	23	10	3	5	2
3379992	PROB	n/a	LTP285	ltpFR2	19	n/a	n/a	n/a	23	14	3	4	7
3381281	PROB	n/a	LTP285	ltpFR2	19	n/a	n/a	n/a	23	16	7	8	1
3382410	PROB	n/a	LTP285	ltpFR2	19	n/a	n/a	n/a	23	4	1	2	1
3383247	PROB	n/a	LTP285	ltpFR2	19	n/a	n/a	n/a	23	17	7	2	8
3385069	PROB	n/a	LTP285	ltpFR2	19	n/a	n/a	n/a	23	11	1	6	4
3385960	STOP	n/a	LTP285	ltpFR2	19	n/a	n/a	n/a	23	n/a	n/a	n/a	n/a
3389445	REC_START	n/a	LTP285	ltpFR2	19	15	n/a	n/a	n/a	n/a	0	0	0
3390233	REC_WORD	wordpools/wasnorm_wordpool_576.txt	LTP285	ltpFR2	19	15	WIDOW	1608	n/a	n/a	0	0	0
3391209	REC_WORD	wordpools/wasnorm_wordpool_576.txt	LTP285	ltpFR2	19	15	WIFE	1609	n/a	n/a	0	0	0
3392247	REC_WORD	wordpools/wasnorm_wordpool_576.txt	LTP285	ltpFR2	19	15	WOMAN	1620	n/a	n/a	0	0	0
3393217	REC_WORD	wordpools/wasnorm_wordpool_576.txt	LTP285	ltpFR2	19	15	LADY	794	n/a	n/a	0	0	0
3394487	REC_WORD	wordpools/wasnorm_wordpool_576.txt	LTP285	ltpFR2	19	15	CLAMP	316	n/a	n/a	0	0	0
3395966	REC_WORD	wordpools/wasnorm_wordpool_576.txt	LTP285	ltpFR2	19	15	PISTON	1076	n/a	n/a	0	0	0
3397535	REC_WORD	wordpools/wasnorm_wordpool_576.txt	LTP285	ltpFR2	19	15	BUTCHER	203	n/a	n/a	0	0	0
3398672	REC_WORD	wordpools/wasnorm_wordpool_576.txt	LTP285	ltpFR2	19	15	SNAKE	1333	n/a	n/a	0	0	0
3419385	REC_WORD	wordpools/wasnorm_wordpool_576.txt	LTP285	ltpFR2	19	15	TERMITE	1451	n/a	n/a	0	0	0
3422468	REC_WORD	wordpools/wasnorm_wordpool_576.txt	LTP285	ltpFR2	19	15	TURKEY	1520	n/a	n/a	0	0	0
3450138	REC_WORD	wordpools/wasnorm_wordpool_576.txt	LTP285	ltpFR2	19	15	SMOG	1330	n/a	n/a	0	0	0
3451150	REC_WORD	wordpools/wasnorm_wordpool_576.txt	LTP285	ltpFR2	19	15	POISON	1096	n/a	n/a	0	0	0
3462675	REC_WORD	wordpools/wasnorm_wordpool_576.txt	LTP285	ltpFR2	19	15	BISON	131	n/a	n/a	0	0	0
3480495	WORD	wordpools/wasnorm_wordpool_576.txt	LTP285	ltpFR2	19	16	SANDWICH	1232	n/a	n/a	0	0	0
3483081	WORD	wordpools/wasnorm_wordpool_576.txt	LTP285	ltpFR2	19	16	GUARD	667	n/a	n/a	0	0	0
3485866	WORD	wordpools/wasnorm_wordpool_576.txt	LTP285	ltpFR2	19	16	MARINE	869	n/a	n/a	0	0	0
3488542	WORD	wordpools/wasnorm_wordpool_576.txt	LTP285	ltpFR2	19	16	PACKAGE	997	n/a	n/a	0	0	0
3491346	WORD	wordpools/wasnorm_wordpool_576.txt	LTP285	ltpFR2	19	16	SHRUB	1299	n/a	n/a	0	0	0
3494013	WORD	wordpools/wasnorm_wordpool_576.txt	LTP285	ltpFR2	19	16	DUSTPAN	509	n/a	n/a	0	0	0
3496456	WORD	wordpools/wasnorm_wordpool_576.txt	LTP285	ltpFR2	19	16	UNCLE	1536	n/a	n/a	0	0	0
3498999	WORD	wordpools/wasnorm_wordpool_576.txt	LTP285	ltpFR2	19	16	TWIG	1527	n/a	n/a	0	0	0
3501818	WORD	wordpools/wasnorm_wordpool_576.txt	LTP285	ltpFR2	19	16	STAPLE	1371	n/a	n/a	0	0	0
3504553	WORD	wordpools/wasnorm_wordpool_576.txt	LTP285	ltpFR2	19	16	TURNIP	1521	n/a	n/a	0	0	0
3506987	WORD	wordpools/wasnorm_wordpool_576.txt	LTP285	ltpFR2	19	16	LABEL	790	n/a	n/a	0	0	0
3509622	WORD	wordpools/wasnorm_wordpool_576.txt	LTP285	ltpFR2	19	16	CITRUS	313	n/a	n/a	0	0	0
3512141	WORD	wordpools/wasnorm_wordpool_576.txt	LTP285	ltpFR2	19	16	PASTRY	1022	n/a	n/a	0	0	0
3514959	WORD	wordpools/wasnorm_wordpool_576.txt	LTP285	ltpFR2	19	16	FRAGRANCE	599	n/a	n/a	0	0	0
3517560	WORD	wordpools/wasnorm_wordpool_576.txt	LTP285	ltpFR2	19	16	ARMY	39	n/a	n/a	0	0	0
3520272	WORD	wordpools/wasnorm_wordpool_576.txt	LTP285	ltpFR2	19	16	LUNCH	849	n/a	n/a	0	0	0
3523048	WORD	wordpools/wasnorm_wordpool_576.txt	LTP285	ltpFR2	19	16	BANQUET	86	n/a	n/a	0	0	0
3525608	WORD	wordpools/wasnorm_wordpool_576.txt	LTP285	ltpFR2	19	16	CABBAGE	210	n/a	n/a	0	0	0
3528352	WORD	wordpools/wasnorm_wordpool_576.txt	LTP285	ltpFR2	19	16	COFFEE	341	n/a	n/a	0	0	0
3530978	WORD	wordpools/wasnorm_wordpool_576.txt	LTP285	ltpFR2	19	16	GUITAR	670	n/a	n/a	0	0	0
3533780	WORD	wordpools/wasnorm_wordpool_576.txt	LTP285	ltpFR2	19	16	PARTNER	1017	n/a	n/a	0	0	0
3536249	WORD	wordpools/wasnorm_wordpool_576.txt	LTP285	ltpFR2	19	16	PERFUME	1049	n/a	n/a	0	0	0
3538774	WORD	wordpools/wasnorm_wordpool_576.txt	LTP285	ltpFR2	19	16	OUTFIT	988	n/a	n/a	0	0	0
3541301	WORD	wordpools/wasnorm_wordpool_576.txt	LTP285	ltpFR2	19	16	DRESS	495	n/a	n/a	0	0	0
3542914	START	n/a	LTP285	ltpFR2	19	n/a	n/a	n/a	24	n/a	n/a	n/a	n/a
3543793	DISTRACTOR	n/a	LTP285	ltpFR2	19	16	n/a	n/a	n/a	n/a	0	0	0
3543809	PROB	n/a	LTP285	ltpFR2	19	n/a	n/a	n/a	24	15	7	3	5
3544897	PROB	n/a	LTP285	ltpFR2	19	n/a	n/a	n/a	24	18	3	7	8
3546704	PROB	n/a	LTP285	ltpFR2	19	n/a	n/a	n/a	24	6	1	3	2
3547749	PROB	n/a	LTP285	ltpFR2	19	n/a	n/a	n/a	24	18	9	1	8
3548879	PROB	n/a	LTP285	ltpFR2	19	n/a	n/a	n/a	24	6	3	1	2
3550126	PROB	n/a	LTP285	ltpFR2	19	n/a	n/a	n/a	24	15	4	3	8
3551856	PROB	n/a	LTP285	ltpFR2	19	n/a	n/a	n/a	24	15	7	2	4
3553755	PROB	n/a	LTP285	ltpFR2	19	n/a	n/a	n/a	24	19	7	4	8
3555237	PROB	n/a	LTP285	ltpFR2	19	n/a	n/a	n/a	24	10	3	3	4
3556399	PROB	n/a	LTP285	ltpFR2	19	n/a	n/a	n/a	24	6	1	1	4
3557452	PROB	n/a	LTP285	ltpFR2	19	n/a	n/a	n/a	24	19	7	3	9
3558465	PROB	n/a	LTP285	ltpFR2	19	n/a	n/a	n/a	24	14	4	3	7
3559912	PROB	n/a	LTP285	ltpFR2	19	n/a	n/a	n/a	24	8	3	4	1
3560907	PROB	n/a	LTP285	ltpFR2	19	n/a	n/a	n/a	24	15	2	8	5
3561928	PROB	n/a	LTP285	ltpFR2	19	n/a	n/a	n/a	24	21	5	8	8
3563225	PROB	n/a	LTP285	ltpFR2	19	n/a	n/a	n/a	24	14	6	5	3
3564396	PROB	n/a	LTP285	ltpFR2	19	n/a	n/a	n/a	24	19	5	6	4
3565768	STOP	n/a	LTP285	ltpFR2	19	n/a	n/a	n/a	24	n/a	n/a	n/a	n/a
3568704	REC_START	n/a	LTP285	ltpFR2	19	16	n/a	n/a	n/a	n/a	0	0	0
3569358	REC_WORD	wordpools/wasnorm_wordpool_576.txt	LTP285	ltpFR2	19	16	OUTFIT	988	n/a	n/a	0	0	0
3570282	REC_WORD	wordpools/wasnorm_wordpool_576.txt	LTP285	ltpFR2	19	16	ARMY	39	n/a	n/a	0	0	0
3571346	REC_WORD	wordpools/wasnorm_wordpool_576.txt	LTP285	ltpFR2	19	16	PARTNER	1017	n/a	n/a	0	0	0
3572723	REC_WORD	wordpools/wasnorm_wordpool_576.txt	LTP285	ltpFR2	19	16	SANDWICH	1232	n/a	n/a	0	0	0
3573929	REC_WORD	wordpools/wasnorm_wordpool_576.txt	LTP285	ltpFR2	19	16	LUNCH	849	n/a	n/a	0	0	0
3575205	REC_WORD	wordpools/wasnorm_wordpool_576.txt	LTP285	ltpFR2	19	16	BANQUET	86	n/a	n/a	0	0	0
3577999	REC_WORD	wordpools/wasnorm_wordpool_576.txt	LTP285	ltpFR2	19	16	TWIG	1527	n/a	n/a	0	0	0
3579288	REC_WORD	wordpools/wasnorm_wordpool_576.txt	LTP285	ltpFR2	19	16	LABEL	790	n/a	n/a	0	0	0
3580528	REC_WORD	wordpools/wasnorm_wordpool_576.txt	LTP285	ltpFR2	19	16	CITRUS	313	n/a	n/a	0	0	0
3582492	REC_WORD	wordpools/wasnorm_wordpool_576.txt	LTP285	ltpFR2	19	16	GUITAR	670	n/a	n/a	0	0	0
3626312	REC_WORD	wordpools/wasnorm_wordpool_576.txt	LTP285	ltpFR2	19	16	PERFUME	1049	n/a	n/a	0	0	0
3627260	REC_WORD	wordpools/wasnorm_wordpool_576.txt	LTP285	ltpFR2	19	16	FRAGRANCE	599	n/a	n/a	0	0	0
3636148	REC_WORD	wordpools/wasnorm_wordpool_576.txt	LTP285	ltpFR2	19	16	CABBAGE	210	n/a	n/a	0	0	0
3645467	REST_REWET	n/a	LTP285	ltpFR2	19	16	n/a	n/a	n/a	n/a	0	0	0
4016215	WORD	wordpools/wasnorm_wordpool_576.txt	LTP285	ltpFR2	19	17	GALLON	618	n/a	n/a	0	0	0
4019025	WORD	wordpools/wasnorm_wordpool_576.txt	LTP285	ltpFR2	19	17	CHAMPAGNE	278	n/a	n/a	0	0	0
4021802	WORD	wordpools/wasnorm_wordpool_576.txt	LTP285	ltpFR2	19	17	SLIDE	1326	n/a	n/a	0	0	0
4024479	WORD	wordpools/wasnorm_wordpool_576.txt	LTP285	ltpFR2	19	17	MONEY	908	n/a	n/a	0	0	0
4026930	WORD	wordpools/wasnorm_wordpool_576.txt	LTP285	ltpFR2	19	17	RABBIT	1152	n/a	n/a	0	0	0
4029632	WORD	wordpools/wasnorm_wordpool_576.txt	LTP285	ltpFR2	19	17	SOFTBALL	1343	n/a	n/a	0	0	0
4032091	WORD	wordpools/wasnorm_wordpool_576.txt	LTP285	ltpFR2	19	17	MESSAGE	888	n/a	n/a	0	0	0
4034609	WORD	wordpools/wasnorm_wordpool_576.txt	LTP285	ltpFR2	19	17	BUNNY	198	n/a	n/a	0	0	0
4037395	WORD	wordpools/wasnorm_wordpool_576.txt	LTP285	ltpFR2	19	17	OMELET	976	n/a	n/a	0	0	0
4039946	WORD	wordpools/wasnorm_wordpool_576.txt	LTP285	ltpFR2	19	17	SPOOL	1356	n/a	n/a	0	0	0
4042414	WORD	wordpools/wasnorm_wordpool_576.txt	LTP285	ltpFR2	19	17	WORLD	1622	n/a	n/a	0	0	0
4045141	WORD	wordpools/wasnorm_wordpool_576.txt	LTP285	ltpFR2	19	17	ASIA	46	n/a	n/a	0	0	0
4047893	WORD	wordpools/wasnorm_wordpool_576.txt	LTP285	ltpFR2	19	17	XEROX	1628	n/a	n/a	0	0	0
4050477	WORD	wordpools/wasnorm_wordpool_576.txt	LTP285	ltpFR2	19	17	CONVICT	371	n/a	n/a	0	0	0
4052995	WORD	wordpools/wasnorm_wordpool_576.txt	LTP285	ltpFR2	19	17	VICTIM	1562	n/a	n/a	0	0	0
4055588	WORD	wordpools/wasnorm_wordpool_576.txt	LTP285	ltpFR2	19	17	PERMIT	1051	n/a	n/a	0	0	0
4058048	WORD	wordpools/wasnorm_wordpool_576.txt	LTP285	ltpFR2	19	17	ROD	1203	n/a	n/a	0	0	0
4060657	WORD	wordpools/wasnorm_wordpool_576.txt	LTP285	ltpFR2	19	17	GLASS	639	n/a	n/a	0	0	0
4063235	WORD	wordpools/wasnorm_wordpool_576.txt	LTP285	ltpFR2	19	17	SILK	1307	n/a	n/a	0	0	0
4065994	WORD	wordpools/wasnorm_wordpool_576.txt	LTP285	ltpFR2	19	17	SHOVEL	1295	n/a	n/a	0	0	0
4068478	WORD	wordpools/wasnorm_wordpool_576.txt	LTP285	ltpFR2	19	17	SWIMMER	1420	n/a	n/a	0	0	0
4070946	WORD	wordpools/wasnorm_wordpool_576.txt	LTP285	ltpFR2	19	17	HORNET	718	n/a	n/a	0	0	0
4073556	WORD	wordpools/wasnorm_wordpool_576.txt	LTP285	ltpFR2	19	17	LONDON	843	n/a	n/a	0	0	0
4076368	WORD	wordpools/wasnorm_wordpool_576.txt	LTP285	ltpFR2	19	17	FRANCE	601	n/a	n/a	0	0	0
4077981	START	n/a	LTP285	ltpFR2	19	n/a	n/a	n/a	25	n/a	n/a	n/a	n/a
4078846	DISTRACTOR	n/a	LTP285	ltpFR2	19	17	n/a	n/a	n/a	n/a	0	0	0
4078859	PROB	n/a	LTP285	ltpFR2	19	n/a	n/a	n/a	25	9	4	4	1
4080047	PROB	n/a	LTP285	ltpFR2	19	n/a	n/a	n/a	25	23	6	8	9
4081828	PROB	n/a	LTP285	ltpFR2	19	n/a	n/a	n/a	25	14	5	3	6
4084899	PROB	n/a	LTP285	ltpFR2	19	n/a	n/a	n/a	25	16	2	6	8
4085953	PROB	n/a	LTP285	ltpFR2	19	n/a	n/a	n/a	25	18	4	5	9
4086998	PROB	n/a	LTP285	ltpFR2	19	n/a	n/a	n/a	25	14	6	4	4
4088413	PROB	n/a	LTP285	ltpFR2	19	n/a	n/a	n/a	25	15	4	4	7
4089851	PROB	n/a	LTP285	ltpFR2	19	n/a	n/a	n/a	25	20	2	9	9
4091457	PROB	n/a	LTP285	ltpFR2	19	n/a	n/a	n/a	25	17	9	3	5
4092645	PROB	n/a	LTP285	ltpFR2	19	n/a	n/a	n/a	25	16	9	4	3
4094502	PROB	n/a	LTP285	ltpFR2	19	n/a	n/a	n/a	25	13	3	4	6
4095823	PROB	n/a	LTP285	ltpFR2	19	n/a	n/a	n/a	25	9	4	3	2
4097797	PROB	n/a	LTP285	ltpFR2	19	n/a	n/a	n/a	25	15	3	3	9
4098893	PROB	n/a	LTP285	ltpFR2	19	n/a	n/a	n/a	25	18	9	7	2
4099922	PROB	n/a	LTP285	ltpFR2	19	n/a	n/a	n/a	25	15	1	8	6
4100936	STOP	n/a	LTP285	ltpFR2	19	n/a	n/a	n/a	25	n/a	n/a	n/a	n/a
4103779	REC_START	n/a	LTP285	ltpFR2	19	17	n/a	n/a	n/a	n/a	0	0	0
4104903	REC_WORD	wordpools/wasnorm_wordpool_576.txt	LTP285	ltpFR2	19	17	ASIA	46	n/a	n/a	0	0	0
4105737	REC_WORD	wordpools/wasnorm_wordpool_576.txt	LTP285	ltpFR2	19	17	LONDON	843	n/a	n/a	0	0	0
4106724	REC_WORD	wordpools/wasnorm_wordpool_576.txt	LTP285	ltpFR2	19	17	FRANCE	601	n/a	n/a	0	0	0
4108085	REC_WORD	wordpools/wasnorm_wordpool_576.txt	LTP285	ltpFR2	19	17	CONVICT	371	n/a	n/a	0	0	0
4109884	REC_WORD	wordpools/wasnorm_wordpool_576.txt	LTP285	ltpFR2	19	17	SWIMMER	1420	n/a	n/a	0	0	0
4112411	REC_WORD	wordpools/wasnorm_wordpool_576.txt	LTP285	ltpFR2	19	17	VICTIM	1562	n/a	n/a	0	0	0
4116269	REC_WORD	wordpools/wasnorm_wordpool_576.txt	LTP285	ltpFR2	19	17	OMELET	976	n/a	n/a	0	0	0
4129686	REC_WORD	wordpools/wasnorm_wordpool_576.txt	LTP285	ltpFR2	19	17	LACE	792	n/a	n/a	0	0	0
4131329	REC_WORD	wordpools/wasnorm_wordpool_576.txt	LTP285	ltpFR2	19	17	GLASS	639	n/a	n/a	0	0	0
4133398	REC_WORD	wordpools/wasnorm_wordpool_576.txt	LTP285	ltpFR2	19	17	ROD	1203	n/a	n/a	0	0	0
4134528	REC_WORD	wordpools/wasnorm_wordpool_576.txt	LTP285	ltpFR2	19	17	SHOVEL	1295	n/a	n/a	0	0	0
4143422	REC_WORD	wordpools/wasnorm_wordpool_576.txt	LTP285	ltpFR2	19	17	CHAMPAGNE	278	n/a	n/a	0	0	0
4148742	REC_WORD	wordpools/wasnorm_wordpool_576.txt	LTP285	ltpFR2	19	17	HORNET	718	n/a	n/a	0	0	0
4155546	REC_WORD	wordpools/wasnorm_wordpool_576.txt	LTP285	ltpFR2	19	17	WORLD	1622	n/a	n/a	0	0	0
4175250	REC_WORD	wordpools/wasnorm_wordpool_576.txt	LTP285	ltpFR2	19	17	SHOVEL	1295	n/a	n/a	0	0	0
4194854	DISTRACTOR	n/a	LTP285	ltpFR2	19	18	n/a	n/a	n/a	n/a	0	0	0
4194855	START	n/a	LTP285	ltpFR2	19	n/a	n/a	n/a	26	n/a	n/a	n/a	n/a
4194905	PROB	n/a	LTP285	ltpFR2	19	n/a	n/a	n/a	26	15	7	6	2
4196152	PROB	n/a	LTP285	ltpFR2	19	n/a	n/a	n/a	26	10	3	5	2
4197791	PROB	n/a	LTP285	ltpFR2	19	n/a	n/a	n/a	26	14	2	3	9
4198936	PROB	n/a	LTP285	ltpFR2	19	n/a	n/a	n/a	26	14	7	4	3
4199857	PROB	n/a	LTP285	ltpFR2	19	n/a	n/a	n/a	26	7	1	1	5
4200785	PROB	n/a	LTP285	ltpFR2	19	n/a	n/a	n/a	26	16	7	8	1
4201806	PROB	n/a	LTP285	ltpFR2	19	n/a	n/a	n/a	26	11	2	3	6
4202843	PROB	n/a	LTP285	ltpFR2	19	n/a	n/a	n/a	26	14	6	6	2
4203897	PROB	n/a	LTP285	ltpFR2	19	n/a	n/a	n/a	26	8	2	4	2
4205136	PROB	n/a	LTP285	ltpFR2	19	n/a	n/a	n/a	26	19	8	9	2
4206448	PROB	n/a	LTP285	ltpFR2	19	n/a	n/a	n/a	26	7	1	4	2
4207544	PROB	n/a	LTP285	ltpFR2	19	n/a	n/a	n/a	26	16	5	8	1
4208933	PROB	n/a	LTP285	ltpFR2	19	n/a	n/a	n/a	26	20	3	9	8
4211309	PROB	n/a	LTP285	ltpFR2	19	n/a	n/a	n/a	26	7	1	4	2
4212446	PROB	n/a	LTP285	ltpFR2	19	n/a	n/a	n/a	26	24	9	8	7
4214102	PROB	n/a	LTP285	ltpFR2	19	n/a	n/a	n/a	26	15	3	9	3
4215951	PROB	n/a	LTP285	ltpFR2	19	n/a	n/a	n/a	26	15	6	8	1
4218855	STOP	n/a	LTP285	ltpFR2	19	n/a	n/a	n/a	26	n/a	n/a	n/a	n/a
4219941	WORD	wordpools/wasnorm_wordpool_576.txt	LTP285	ltpFR2	19	18	PLUTO	1092	n/a	n/a	0	0	0
4222509	WORD	wordpools/wasnorm_wordpool_576.txt	LTP285	ltpFR2	19	18	GLOBE	641	n/a	n/a	0	0	0
4225229	WORD	wordpools/wasnorm_wordpool_576.txt	LTP285	ltpFR2	19	18	COBRA	336	n/a	n/a	0	0	0
4227979	WORD	wordpools/wasnorm_wordpool_576.txt	LTP285	ltpFR2	19	18	PEBBLE	1035	n/a	n/a	0	0	0
4230773	WORD	wordpools/wasnorm_wordpool_576.txt	LTP285	ltpFR2	19	18	STALLION	1369	n/a	n/a	0	0	0
4233250	WORD	wordpools/wasnorm_wordpool_576.txt	LTP285	ltpFR2	19	18	VIRUS	1572	n/a	n/a	0	0	0
4236026	WORD	wordpools/wasnorm_wordpool_576.txt	LTP285	ltpFR2	19	18	CYCLONE	431	n/a	n/a	0	0	0
4238720	WORD	wordpools/wasnorm_wordpool_576.txt	LTP285	ltpFR2	19	18	TWISTER	1530	n/a	n/a	0	0	0
4241406	WORD	wordpools/wasnorm_wordpool_576.txt	LTP285	ltpFR2	19	18	CHEST	295	n/a	n/a	0	0	0
4244107	WORD	wordpools/wasnorm_wordpool_576.txt	LTP285	ltpFR2	19	18	KNAPSACK	783	n/a	n/a	0	0	0
4246616	WORD	wordpools/wasnorm_wordpool_576.txt	LTP285	ltpFR2	19	18	RIFLE	1192	n/a	n/a	0	0	0
4249210	WORD	wordpools/wasnorm_wordpool_576.txt	LTP285	ltpFR2	19	18	GANGSTER	620	n/a	n/a	0	0	0
4252037	WORD	wordpools/wasnorm_wordpool_576.txt	LTP285	ltpFR2	19	18	LIZARD	834	n/a	n/a	0	0	0
4254646	WORD	wordpools/wasnorm_wordpool_576.txt	LTP285	ltpFR2	19	18	DRILL	497	n/a	n/a	0	0	0
4257283	WORD	wordpools/wasnorm_wordpool_576.txt	LTP285	ltpFR2	19	18	STUDENT	1395	n/a	n/a	0	0	0
4259892	WORD	wordpools/wasnorm_wordpool_576.txt	LTP285	ltpFR2	19	18	YACHT	1629	n/a	n/a	0	0	0
4262593	WORD	wordpools/wasnorm_wordpool_576.txt	LTP285	ltpFR2	19	18	INMATE	738	n/a	n/a	0	0	0
4265288	WORD	wordpools/wasnorm_wordpool_576.txt	LTP285	ltpFR2	19	18	WARDROBE	1587	n/a	n/a	0	0	0
4267888	WORD	wordpools/wasnorm_wordpool_576.txt	LTP285	ltpFR2	19	18	AWARD	63	n/a	n/a	0	0	0
4270349	WORD	wordpools/wasnorm_wordpool_576.txt	LTP285	ltpFR2	19	18	CRIB	407	n/a	n/a	0	0	0
4272941	WORD	wordpools/wasnorm_wordpool_576.txt	LTP285	ltpFR2	19	18	COWBOY	395	n/a	n/a	0	0	0
4275450	WORD	wordpools/wasnorm_wordpool_576.txt	LTP285	ltpFR2	19	18	EXPERT	543	n/a	n/a	0	0	0
4278043	WORD	wordpools/wasnorm_wordpool_576.txt	LTP285	ltpFR2	19	18	DAISY	435	n/a	n/a	0	0	0
4280837	WORD	wordpools/wasnorm_wordpool_576.txt	LTP285	ltpFR2	19	18	MOTEL	919	n/a	n/a	0	0	0
4282452	START	n/a	LTP285	ltpFR2	19	n/a	n/a	n/a	27	n/a	n/a	n/a	n/a
4283625	DISTRACTOR	n/a	LTP285	ltpFR2	19	18	n/a	n/a	n/a	n/a	0	0	0
4283639	PROB	n/a	LTP285	ltpFR2	19	n/a	n/a	n/a	27	14	1	9	4
4284668	PROB	n/a	LTP285	ltpFR2	19	n/a	n/a	n/a	27	14	7	1	6
4285706	PROB	n/a	LTP285	ltpFR2	19	n/a	n/a	n/a	27	15	8	3	4
4287371	PROB	n/a	LTP285	ltpFR2	19	n/a	n/a	n/a	27	13	1	8	4
4288491	PROB	n/a	LTP285	ltpFR2	19	n/a	n/a	n/a	27	11	1	7	3
4289428	PROB	n/a	LTP285	ltpFR2	19	n/a	n/a	n/a	27	19	8	9	2
4290599	PROB	n/a	LTP285	ltpFR2	19	n/a	n/a	n/a	27	16	2	6	8
4291628	PROB	n/a	LTP285	ltpFR2	19	n/a	n/a	n/a	27	1	2	8	9
4292807	PROB	n/a	LTP285	ltpFR2	19	n/a	n/a	n/a	27	10	2	2	6
4294012	PROB	n/a	LTP285	ltpFR2	19	n/a	n/a	n/a	27	21	3	9	8
4296011	PROB	n/a	LTP285	ltpFR2	19	n/a	n/a	n/a	27	18	8	5	5
4296973	PROB	n/a	LTP285	ltpFR2	19	n/a	n/a	n/a	27	15	7	6	2
4298279	PROB	n/a	LTP285	ltpFR2	19	n/a	n/a	n/a	27	24	8	9	8
4299917	PROB	n/a	LTP285	ltpFR2	19	n/a	n/a	n/a	27	10	2	1	7
4301498	PROB	n/a	LTP285	ltpFR2	19	n/a	n/a	n/a	27	6	2	2	2
4302344	PROB	n/a	LTP285	ltpFR2	19	n/a	n/a	n/a	27	18	6	3	9
4303381	PROB	n/a	LTP285	ltpFR2	19	n/a	n/a	n/a	27	12	9	2	1
4306452	STOP	n/a	LTP285	ltpFR2	19	n/a	n/a	n/a	27	n/a	n/a	n/a	n/a
4308326	REC_START	n/a	LTP285	ltpFR2	19	18	n/a	n/a	n/a	n/a	0	0	0
4309421	REC_WORD	wordpools/wasnorm_wordpool_576.txt	LTP285	ltpFR2	19	18	INMATE	738	n/a	n/a	0	0	0
4313877	REC_WORD	wordpools/wasnorm_wordpool_576.txt	LTP285	ltpFR2	19	18	COWBOY	395	n/a	n/a	0	0	0
4314751	REC_WORD	wordpools/wasnorm_wordpool_576.txt	LTP285	ltpFR2	19	18	STALLION	1369	n/a	n/a	0	0	0
4315905	REC_WORD	wordpools/wasnorm_wordpool_576.txt	LTP285	ltpFR2	19	18	RIFLE	1192	n/a	n/a	0	0	0
4319255	REC_WORD	wordpools/wasnorm_wordpool_576.txt	LTP285	ltpFR2	19	18	GANGSTER	620	n/a	n/a	0	0	0
4324812	REC_WORD	wordpools/wasnorm_wordpool_576.txt	LTP285	ltpFR2	19	18	DRILL	497	n/a	n/a	0	0	0
4326506	REC_WORD	wordpools/wasnorm_wordpool_576.txt	LTP285	ltpFR2	19	18	STUDENT	1395	n/a	n/a	0	0	0
4329237	REC_WORD	wordpools/wasnorm_wordpool_576.txt	LTP285	ltpFR2	19	18	WARDROBE	1587	n/a	n/a	0	0	0
4334028	REC_WORD	wordpools/wasnorm_wordpool_576.txt	LTP285	ltpFR2	19	18	YACHT	1629	n/a	n/a	0	0	0
4344682	REC_WORD	wordpools/wasnorm_wordpool_576.txt	LTP285	ltpFR2	19	18	KNAPSACK	783	n/a	n/a	0	0	0
4347186	REC_WORD	wordpools/wasnorm_wordpool_576.txt	LTP285	ltpFR2	19	18	TWISTER	1530	n/a	n/a	0	0	0
4348095	REC_WORD	wordpools/wasnorm_wordpool_576.txt	LTP285	ltpFR2	19	18	CYCLONE	431	n/a	n/a	0	0	0
4352164	REC_WORD	wordpools/wasnorm_wordpool_576.txt	LTP285	ltpFR2	19	18	AWARD	63	n/a	n/a	0	0	0
4364212	REC_WORD	wordpools/wasnorm_wordpool_576.txt	LTP285	ltpFR2	19	18	BANQUET	86	n/a	n/a	0	0	0
4399368	DISTRACTOR	n/a	LTP285	ltpFR2	19	19	n/a	n/a	n/a	n/a	0	0	0
4399368	START	n/a	LTP285	ltpFR2	19	n/a	n/a	n/a	28	n/a	n/a	n/a	n/a
4399417	PROB	n/a	LTP285	ltpFR2	19	n/a	n/a	n/a	28	19	9	3	7
4400689	PROB	n/a	LTP285	ltpFR2	19	n/a	n/a	n/a	28	14	1	7	6
4401650	PROB	n/a	LTP285	ltpFR2	19	n/a	n/a	n/a	28	15	3	7	5
4402671	PROB	n/a	LTP285	ltpFR2	19	n/a	n/a	n/a	28	8	5	1	2
4403942	PROB	n/a	LTP285	ltpFR2	19	n/a	n/a	n/a	28	19	6	7	6
4405699	PROB	n/a	LTP285	ltpFR2	19	n/a	n/a	n/a	28	15	2	5	8
4406628	PROB	n/a	LTP285	ltpFR2	19	n/a	n/a	n/a	28	17	4	6	7
4407648	PROB	n/a	LTP285	ltpFR2	19	n/a	n/a	n/a	28	20	9	3	8
4410944	PROB	n/a	LTP285	ltpFR2	19	n/a	n/a	n/a	28	13	3	6	4
4412032	PROB	n/a	LTP285	ltpFR2	19	n/a	n/a	n/a	28	19	6	8	5
4413688	PROB	n/a	LTP285	ltpFR2	19	n/a	n/a	n/a	28	15	6	7	2
4414893	PROB	n/a	LTP285	ltpFR2	19	n/a	n/a	n/a	28	14	4	6	4
4415946	PROB	n/a	LTP285	ltpFR2	19	n/a	n/a	n/a	28	21	5	7	9
4418381	PROB	n/a	LTP285	ltpFR2	19	n/a	n/a	n/a	28	14	5	1	8
4419618	PROB	n/a	LTP285	ltpFR2	19	n/a	n/a	n/a	28	8	1	3	5
4420555	PROB	n/a	LTP285	ltpFR2	19	n/a	n/a	n/a	28	15	8	3	4
4421904	STOP	n/a	LTP285	ltpFR2	19	n/a	n/a	n/a	28	n/a	n/a	n/a	n/a
4424554	WORD	wordpools/wasnorm_wordpool_576.txt	LTP285	ltpFR2	19	19	SCULPTURE	1258	n/a	n/a	0	0	0
4427013	WORD	wordpools/wasnorm_wordpool_576.txt	LTP285	ltpFR2	19	19	CASHIER	254	n/a	n/a	0	0	0
4429765	WORD	wordpools/wasnorm_wordpool_576.txt	LTP285	ltpFR2	19	19	LILY	821	n/a	n/a	0	0	0
4432393	WORD	wordpools/wasnorm_wordpool_576.txt	LTP285	ltpFR2	19	19	PIMPLE	1071	n/a	n/a	0	0	0
4435153	WORD	wordpools/wasnorm_wordpool_576.txt	LTP285	ltpFR2	19	19	AIRPORT	13	n/a	n/a	0	0	0
4437954	WORD	wordpools/wasnorm_wordpool_576.txt	LTP285	ltpFR2	19	19	AIRPLANE	12	n/a	n/a	0	0	0
4440430	WORD	wordpools/wasnorm_wordpool_576.txt	LTP285	ltpFR2	19	19	POWDER	1117	n/a	n/a	0	0	0
4442973	WORD	wordpools/wasnorm_wordpool_576.txt	LTP285	ltpFR2	19	19	CHAUFFEUR	283	n/a	n/a	0	0	0
4445458	WORD	wordpools/wasnorm_wordpool_576.txt	LTP285	ltpFR2	19	19	BRIEFCASE	175	n/a	n/a	0	0	0
4447950	WORD	wordpools/wasnorm_wordpool_576.txt	LTP285	ltpFR2	19	19	MASK	876	n/a	n/a	0	0	0
4450602	WORD	wordpools/wasnorm_wordpool_576.txt	LTP285	ltpFR2	19	19	SALMON	1227	n/a	n/a	0	0	0
4453389	WORD	wordpools/wasnorm_wordpool_576.txt	LTP285	ltpFR2	19	19	RUST	1219	n/a	n/a	0	0	0
4456022	WORD	wordpools/wasnorm_wordpool_576.txt	LTP285	ltpFR2	19	19	GIFT	635	n/a	n/a	0	0	0
4458699	WORD	wordpools/wasnorm_wordpool_576.txt	LTP285	ltpFR2	19	19	BOX	159	n/a	n/a	0	0	0
4461385	WORD	wordpools/wasnorm_wordpool_576.txt	LTP285	ltpFR2	19	19	JELLO	754	n/a	n/a	0	0	0
4464095	WORD	wordpools/wasnorm_wordpool_576.txt	LTP285	ltpFR2	19	19	GARDEN	623	n/a	n/a	0	0	0
4466578	WORD	wordpools/wasnorm_wordpool_576.txt	LTP285	ltpFR2	19	19	PADDLE	1000	n/a	n/a	0	0	0
4469340	WORD	wordpools/wasnorm_wordpool_576.txt	LTP285	ltpFR2	19	19	BALLOON	75	n/a	n/a	0	0	0
4471874	WORD	wordpools/wasnorm_wordpool_576.txt	LTP285	ltpFR2	19	19	COOKBOOK	373	n/a	n/a	0	0	0
4474425	WORD	wordpools/wasnorm_wordpool_576.txt	LTP285	ltpFR2	19	19	GROUND	666	n/a	n/a	0	0	0
4477161	WORD	wordpools/wasnorm_wordpool_576.txt	LTP285	ltpFR2	19	19	DOLPHIN	483	n/a	n/a	0	0	0
4479904	WORD	wordpools/wasnorm_wordpool_576.txt	LTP285	ltpFR2	19	19	BULLET	194	n/a	n/a	0	0	0
4482555	WORD	wordpools/wasnorm_wordpool_576.txt	LTP285	ltpFR2	19	19	PISTOL	1075	n/a	n/a	0	0	0
4485166	WORD	wordpools/wasnorm_wordpool_576.txt	LTP285	ltpFR2	19	19	SPOUSE	1358	n/a	n/a	0	0	0
4486780	START	n/a	LTP285	ltpFR2	19	n/a	n/a	n/a	29	n/a	n/a	n/a	n/a
4487672	DISTRACTOR	n/a	LTP285	ltpFR2	19	19	n/a	n/a	n/a	n/a	0	0	0
4487683	PROB	n/a	LTP285	ltpFR2	19	n/a	n/a	n/a	29	18	2	8	8
4488788	PROB	n/a	LTP285	ltpFR2	19	n/a	n/a	n/a	29	18	2	8	8
4489766	PROB	n/a	LTP285	ltpFR2	19	n/a	n/a	n/a	29	14	4	7	3
