mstime	trial_type	stim_file	subject	experiment	session	trial	task	item_name	item_num	recog_conf	resp	color_b	color_g	color_r	case	font
0	SESS_START	n/a	LTP239	ltpFR	1	n/a	n/a	n/a	n/a	3	n/a	n/a	n/a	n/a	n/a	n/a
123684	WORD	wordpools/wasnorm_wordpool_less_exclusions.txt	LTP239	ltpFR	1	1	1	VEAL	1551	n/a	1	1	0.412841796875	0.57763671875	lower	../fonts/zerothre.ttf
127799	WORD	wordpools/wasnorm_wordpool_less_exclusions.txt	LTP239	ltpFR	1	1	1	FOLLOWER	589	n/a	1	1	0.412841796875	0.57763671875	lower	../fonts/zerothre.ttf
131680	WORD	wordpools/wasnorm_wordpool_less_exclusions.txt	LTP239	ltpFR	1	1	1	MOON	914	n/a	0	1	0.412841796875	0.57763671875	lower	../fonts/zerothre.ttf
135796	WORD	wordpools/wasnorm_wordpool_less_exclusions.txt	LTP239	ltpFR	1	1	1	SINK	1309	n/a	0	1	0.412841796875	0.57763671875	lower	../fonts/zerothre.ttf
139694	WORD	wordpools/wasnorm_wordpool_less_exclusions.txt	LTP239	ltpFR	1	1	1	WRENCH	1625	n/a	0	1	0.412841796875	0.57763671875	lower	../fonts/zerothre.ttf
143826	WORD	wordpools/wasnorm_wordpool_less_exclusions.txt	LTP239	ltpFR	1	1	1	ANT	25	n/a	1	1	0.412841796875	0.57763671875	lower	../fonts/zerothre.ttf
147674	WORD	wordpools/wasnorm_wordpool_less_exclusions.txt	LTP239	ltpFR	1	1	0	SLOPE	1328	n/a	1	0	0.5869140625	0.422607421875	upper	../fonts/amplitud.ttf
151522	WORD	wordpools/wasnorm_wordpool_less_exclusions.txt	LTP239	ltpFR	1	1	0	GALAXY	617	n/a	1	0	0.5869140625	0.422607421875	upper	../fonts/amplitud.ttf
155637	WORD	wordpools/wasnorm_wordpool_less_exclusions.txt	LTP239	ltpFR	1	1	0	PASTRY	1022	n/a	0	0	0.5869140625	0.422607421875	upper	../fonts/amplitud.ttf
159502	WORD	wordpools/wasnorm_wordpool_less_exclusions.txt	LTP239	ltpFR	1	1	1	ATTORNEY	58	n/a	1	1	0.412841796875	0.57763671875	lower	../fonts/zerothre.ttf
163433	WORD	wordpools/wasnorm_wordpool_less_exclusions.txt	LTP239	ltpFR	1	1	1	JURY	766	n/a	1	1	0.412841796875	0.57763671875	lower	../fonts/zerothre.ttf
167332	WORD	wordpools/wasnorm_wordpool_less_exclusions.txt	LTP239	ltpFR	1	1	0	PENGUIN	1044	n/a	1	0	0.5869140625	0.422607421875	upper	../fonts/amplitud.ttf
171364	WORD	wordpools/wasnorm_wordpool_less_exclusions.txt	LTP239	ltpFR	1	1	0	DINER	467	n/a	1	0	0.5869140625	0.422607421875	upper	../fonts/amplitud.ttf
175262	WORD	wordpools/wasnorm_wordpool_less_exclusions.txt	LTP239	ltpFR	1	1	0	SUPERMARKET	1409	n/a	1	0	0.5869140625	0.422607421875	upper	../fonts/amplitud.ttf
179109	WORD	wordpools/wasnorm_wordpool_less_exclusions.txt	LTP239	ltpFR	1	1	0	SWAMP	1416	n/a	1	0	0.5869140625	0.422607421875	upper	../fonts/amplitud.ttf
183041	WORD	wordpools/wasnorm_wordpool_less_exclusions.txt	LTP239	ltpFR	1	1	0	GREASE	660	n/a	1	0	0.5869140625	0.422607421875	upper	../fonts/amplitud.ttf
188981	REC_START	n/a	LTP239	ltpFR	1	1	n/a	n/a	n/a	n/a	n/a	n/a	n/a	n/a	n/a	n/a
190023	REC_WORD	wordpools/wasnorm_wordpool_less_exclusions.txt	LTP239	ltpFR	1	1	0	GREASE	660	n/a	1	n/a	n/a	n/a	n/a	n/a
191076	REC_WORD	wordpools/wasnorm_wordpool_less_exclusions.txt	LTP239	ltpFR	1	1	0	SUPERMARKET	1409	n/a	1	n/a	n/a	n/a	n/a	n/a
192338	REC_WORD	wordpools/wasnorm_wordpool_less_exclusions.txt	LTP239	ltpFR	1	1	1	ATTORNEY	58	n/a	1	n/a	n/a	n/a	n/a	n/a
194064	REC_WORD	wordpools/wasnorm_wordpool_less_exclusions.txt	LTP239	ltpFR	1	1	1	JURY	766	n/a	1	n/a	n/a	n/a	n/a	n/a
195596	REC_WORD	wordpools/wasnorm_wordpool_less_exclusions.txt	LTP239	ltpFR	1	1	1	ANT	25	n/a	1	n/a	n/a	n/a	n/a	n/a
197037	REC_WORD	wordpools/wasnorm_wordpool_less_exclusions.txt	LTP239	ltpFR	1	1	1	WRENCH	1625	n/a	0	n/a	n/a	n/a	n/a	n/a
198684	REC_WORD	wordpools/wasnorm_wordpool_less_exclusions.txt	LTP239	ltpFR	1	1	0	SWAMP	1416	n/a	1	n/a	n/a	n/a	n/a	n/a
201362	REC_WORD	wordpools/wasnorm_wordpool_less_exclusions.txt	LTP239	ltpFR	1	1	1	VEAL	1551	n/a	1	n/a	n/a	n/a	n/a	n/a
203961	REC_WORD	wordpools/wasnorm_wordpool_less_exclusions.txt	LTP239	ltpFR	1	1	1	FOLLOWER	589	n/a	1	n/a	n/a	n/a	n/a	n/a
206770	REC_WORD	wordpools/wasnorm_wordpool_less_exclusions.txt	LTP239	ltpFR	1	1	0	GALAXY	617	n/a	1	n/a	n/a	n/a	n/a	n/a
208800	REC_WORD	wordpools/wasnorm_wordpool_less_exclusions.txt	LTP239	ltpFR	1	1	0	GREASE	660	n/a	1	n/a	n/a	n/a	n/a	n/a
214632	REC_WORD	wordpools/wasnorm_wordpool_less_exclusions.txt	LTP239	ltpFR	1	1	0	PENGUIN	1044	n/a	1	n/a	n/a	n/a	n/a	n/a
302574	WORD	wordpools/wasnorm_wordpool_less_exclusions.txt	LTP239	ltpFR	1	2	0	FIREMAN	569	n/a	1	0	0.5869140625	0.422607421875	upper	../fonts/amplitud.ttf
306606	WORD	wordpools/wasnorm_wordpool_less_exclusions.txt	LTP239	ltpFR	1	2	0	ACTOR	5	n/a	1	0	0.5869140625	0.422607421875	upper	../fonts/amplitud.ttf
310772	WORD	wordpools/wasnorm_wordpool_less_exclusions.txt	LTP239	ltpFR	1	2	0	MOUSE	925	n/a	0	0	0.5869140625	0.422607421875	upper	../fonts/amplitud.ttf
314653	WORD	wordpools/wasnorm_wordpool_less_exclusions.txt	LTP239	ltpFR	1	2	1	CHISEL	305	n/a	0	1	0.412841796875	0.57763671875	lower	../fonts/zerothre.ttf
318635	WORD	wordpools/wasnorm_wordpool_less_exclusions.txt	LTP239	ltpFR	1	2	1	TOE	1473	n/a	1	1	0.412841796875	0.57763671875	lower	../fonts/zerothre.ttf
322483	WORD	wordpools/wasnorm_wordpool_less_exclusions.txt	LTP239	ltpFR	1	2	1	DWARF	510	n/a	1	1	0.412841796875	0.57763671875	lower	../fonts/zerothre.ttf
326531	WORD	wordpools/wasnorm_wordpool_less_exclusions.txt	LTP239	ltpFR	1	2	0	ELF	525	n/a	1	0	0.5869140625	0.422607421875	upper	../fonts/amplitud.ttf
330480	WORD	wordpools/wasnorm_wordpool_less_exclusions.txt	LTP239	ltpFR	1	2	0	FORK	594	n/a	0	0	0.5869140625	0.422607421875	upper	../fonts/amplitud.ttf
334411	WORD	wordpools/wasnorm_wordpool_less_exclusions.txt	LTP239	ltpFR	1	2	0	CHARCOAL	281	n/a	0	0	0.5869140625	0.422607421875	upper	../fonts/amplitud.ttf
338409	WORD	wordpools/wasnorm_wordpool_less_exclusions.txt	LTP239	ltpFR	1	2	0	FOUNTAIN	597	n/a	1	0	0.5869140625	0.422607421875	upper	../fonts/amplitud.ttf
342609	WORD	wordpools/wasnorm_wordpool_less_exclusions.txt	LTP239	ltpFR	1	2	0	WATER	1594	n/a	1	0	0.5869140625	0.422607421875	upper	../fonts/amplitud.ttf
346824	WORD	wordpools/wasnorm_wordpool_less_exclusions.txt	LTP239	ltpFR	1	2	1	CROWN	415	n/a	0	1	0.412841796875	0.57763671875	lower	../fonts/zerothre.ttf
350672	WORD	wordpools/wasnorm_wordpool_less_exclusions.txt	LTP239	ltpFR	1	2	1	ABDOMEN	1	n/a	1	1	0.412841796875	0.57763671875	lower	../fonts/zerothre.ttf
354855	WORD	wordpools/wasnorm_wordpool_less_exclusions.txt	LTP239	ltpFR	1	2	1	BLADE	134	n/a	0	1	0.412841796875	0.57763671875	lower	../fonts/zerothre.ttf
358853	WORD	wordpools/wasnorm_wordpool_less_exclusions.txt	LTP239	ltpFR	1	2	1	NEPHEW	942	n/a	1	1	0.412841796875	0.57763671875	lower	../fonts/zerothre.ttf
363002	WORD	wordpools/wasnorm_wordpool_less_exclusions.txt	LTP239	ltpFR	1	2	1	SNACK	1331	n/a	0	1	0.412841796875	0.57763671875	lower	../fonts/zerothre.ttf
369026	REC_START	n/a	LTP239	ltpFR	1	2	n/a	n/a	n/a	n/a	n/a	n/a	n/a	n/a	n/a	n/a
370313	REC_WORD	wordpools/wasnorm_wordpool_less_exclusions.txt	LTP239	ltpFR	1	2	1	SNACK	1331	n/a	0	n/a	n/a	n/a	n/a	n/a
371176	REC_WORD	wordpools/wasnorm_wordpool_less_exclusions.txt	LTP239	ltpFR	1	2	0	FIREMAN	569	n/a	1	n/a	n/a	n/a	n/a	n/a
372732	REC_WORD	wordpools/wasnorm_wordpool_less_exclusions.txt	LTP239	ltpFR	1	2	1	NEPHEW	942	n/a	1	n/a	n/a	n/a	n/a	n/a
389574	REC_WORD	wordpools/wasnorm_wordpool_less_exclusions.txt	LTP239	ltpFR	1	2	0	MOUSE	925	n/a	0	n/a	n/a	n/a	n/a	n/a
393006	REC_WORD	wordpools/wasnorm_wordpool_less_exclusions.txt	LTP239	ltpFR	1	2	0	FORK	594	n/a	0	n/a	n/a	n/a	n/a	n/a
395101	REC_WORD	wordpools/wasnorm_wordpool_less_exclusions.txt	LTP239	ltpFR	1	2	0	WATER	1594	n/a	1	n/a	n/a	n/a	n/a	n/a
441865	REC_WORD	wordpools/wasnorm_wordpool_less_exclusions.txt	LTP239	ltpFR	1	2	1	WRENCH	1625	n/a	0	n/a	n/a	n/a	n/a	n/a
474472	WORD	wordpools/wasnorm_wordpool_less_exclusions.txt	LTP239	ltpFR	1	3	-1	MEDAL	885	n/a	-1	1	1.0	1.0	upper	../fonts/Verdana.ttf
478338	WORD	wordpools/wasnorm_wordpool_less_exclusions.txt	LTP239	ltpFR	1	3	-1	WAVE	1596	n/a	-1	1	1.0	1.0	upper	../fonts/Verdana.ttf
482385	WORD	wordpools/wasnorm_wordpool_less_exclusions.txt	LTP239	ltpFR	1	3	-1	CUE	422	n/a	-1	1	1.0	1.0	upper	../fonts/Verdana.ttf
486501	WORD	wordpools/wasnorm_wordpool_less_exclusions.txt	LTP239	ltpFR	1	3	-1	ALMANAC	17	n/a	-1	1	1.0	1.0	upper	../fonts/Verdana.ttf
490633	WORD	wordpools/wasnorm_wordpool_less_exclusions.txt	LTP239	ltpFR	1	3	-1	VAN	1548	n/a	-1	1	1.0	1.0	upper	../fonts/Verdana.ttf
494849	WORD	wordpools/wasnorm_wordpool_less_exclusions.txt	LTP239	ltpFR	1	3	-1	FAIRY	549	n/a	-1	1	1.0	1.0	upper	../fonts/Verdana.ttf
498781	WORD	wordpools/wasnorm_wordpool_less_exclusions.txt	LTP239	ltpFR	1	3	-1	CORN	381	n/a	-1	1	1.0	1.0	upper	../fonts/Verdana.ttf
502779	WORD	wordpools/wasnorm_wordpool_less_exclusions.txt	LTP239	ltpFR	1	3	-1	MINER	896	n/a	-1	1	1.0	1.0	upper	../fonts/Verdana.ttf
506660	WORD	wordpools/wasnorm_wordpool_less_exclusions.txt	LTP239	ltpFR	1	3	-1	ALLEY	15	n/a	-1	1	1.0	1.0	upper	../fonts/Verdana.ttf
510724	WORD	wordpools/wasnorm_wordpool_less_exclusions.txt	LTP239	ltpFR	1	3	-1	BATHTUB	100	n/a	-1	1	1.0	1.0	upper	../fonts/Verdana.ttf
514607	WORD	wordpools/wasnorm_wordpool_less_exclusions.txt	LTP239	ltpFR	1	3	-1	BRIDGE	174	n/a	-1	1	1.0	1.0	upper	../fonts/Verdana.ttf
518722	WORD	wordpools/wasnorm_wordpool_less_exclusions.txt	LTP239	ltpFR	1	3	-1	BOULEVARD	156	n/a	-1	1	1.0	1.0	upper	../fonts/Verdana.ttf
522871	WORD	wordpools/wasnorm_wordpool_less_exclusions.txt	LTP239	ltpFR	1	3	-1	CARDINAL	244	n/a	-1	1	1.0	1.0	upper	../fonts/Verdana.ttf
527004	WORD	wordpools/wasnorm_wordpool_less_exclusions.txt	LTP239	ltpFR	1	3	-1	KITCHEN	778	n/a	-1	1	1.0	1.0	upper	../fonts/Verdana.ttf
531186	WORD	wordpools/wasnorm_wordpool_less_exclusions.txt	LTP239	ltpFR	1	3	-1	TAVERN	1437	n/a	-1	1	1.0	1.0	upper	../fonts/Verdana.ttf
535101	WORD	wordpools/wasnorm_wordpool_less_exclusions.txt	LTP239	ltpFR	1	3	-1	COOLER	375	n/a	-1	1	1.0	1.0	upper	../fonts/Verdana.ttf
540806	REC_START	n/a	LTP239	ltpFR	1	3	n/a	n/a	n/a	n/a	n/a	n/a	n/a	n/a	n/a	n/a
541654	REC_WORD	wordpools/wasnorm_wordpool_less_exclusions.txt	LTP239	ltpFR	1	3	-1	COOLER	375	n/a	-1	n/a	n/a	n/a	n/a	n/a
542407	REC_WORD	wordpools/wasnorm_wordpool_less_exclusions.txt	LTP239	ltpFR	1	3	-1	TAVERN	1437	n/a	-1	n/a	n/a	n/a	n/a	n/a
543150	REC_WORD	wordpools/wasnorm_wordpool_less_exclusions.txt	LTP239	ltpFR	1	3	-1	KITCHEN	778	n/a	-1	n/a	n/a	n/a	n/a	n/a
543978	REC_WORD	wordpools/wasnorm_wordpool_less_exclusions.txt	LTP239	ltpFR	1	3	-1	BATHTUB	100	n/a	-1	n/a	n/a	n/a	n/a	n/a
544876	REC_WORD	wordpools/wasnorm_wordpool_less_exclusions.txt	LTP239	ltpFR	1	3	-1	MEDAL	885	n/a	-1	n/a	n/a	n/a	n/a	n/a
546079	REC_WORD	wordpools/wasnorm_wordpool_less_exclusions.txt	LTP239	ltpFR	1	3	-1	WAVE	1596	n/a	-1	n/a	n/a	n/a	n/a	n/a
556345	REC_WORD	wordpools/wasnorm_wordpool_less_exclusions.txt	LTP239	ltpFR	1	3	-1	CORN	381	n/a	-1	n/a	n/a	n/a	n/a	n/a
558465	REC_WORD	wordpools/wasnorm_wordpool_less_exclusions.txt	LTP239	ltpFR	1	3	-1	BOULEVARD	156	n/a	-1	n/a	n/a	n/a	n/a	n/a
566063	REC_WORD	wordpools/wasnorm_wordpool_less_exclusions.txt	LTP239	ltpFR	1	3	-1	COOLER	375	n/a	-1	n/a	n/a	n/a	n/a	n/a
568463	REC_WORD	wordpools/wasnorm_wordpool_less_exclusions.txt	LTP239	ltpFR	1	3	-1	MINER	896	n/a	-1	n/a	n/a	n/a	n/a	n/a
573616	REC_WORD	wordpools/wasnorm_wordpool_less_exclusions.txt	LTP239	ltpFR	1	3	-1	BATHTUB	100	n/a	-1	n/a	n/a	n/a	n/a	n/a
576460	REC_WORD	wordpools/wasnorm_wordpool_less_exclusions.txt	LTP239	ltpFR	1	3	-1	ALMANAC	17	n/a	-1	n/a	n/a	n/a	n/a	n/a
670126	WORD	wordpools/wasnorm_wordpool_less_exclusions.txt	LTP239	ltpFR	1	4	-1	TREASURE	1500	n/a	-1	1	1.0	1.0	upper	../fonts/Verdana.ttf
674008	WORD	wordpools/wasnorm_wordpool_less_exclusions.txt	LTP239	ltpFR	1	4	-1	COIN	343	n/a	-1	1	1.0	1.0	upper	../fonts/Verdana.ttf
678173	WORD	wordpools/wasnorm_wordpool_less_exclusions.txt	LTP239	ltpFR	1	4	-1	DUCK	504	n/a	-1	1	1.0	1.0	upper	../fonts/Verdana.ttf
682256	WORD	wordpools/wasnorm_wordpool_less_exclusions.txt	LTP239	ltpFR	1	4	-1	BACKBONE	66	n/a	-1	1	1.0	1.0	upper	../fonts/Verdana.ttf
686388	WORD	wordpools/wasnorm_wordpool_less_exclusions.txt	LTP239	ltpFR	1	4	-1	PRINCESS	1125	n/a	-1	1	1.0	1.0	upper	../fonts/Verdana.ttf
690603	WORD	wordpools/wasnorm_wordpool_less_exclusions.txt	LTP239	ltpFR	1	4	-1	BOUQUET	157	n/a	-1	1	1.0	1.0	upper	../fonts/Verdana.ttf
694669	WORD	wordpools/wasnorm_wordpool_less_exclusions.txt	LTP239	ltpFR	1	4	-1	FRIEND	606	n/a	-1	1	1.0	1.0	upper	../fonts/Verdana.ttf
698550	WORD	wordpools/wasnorm_wordpool_less_exclusions.txt	LTP239	ltpFR	1	4	-1	ASTEROID	50	n/a	-1	1	1.0	1.0	upper	../fonts/Verdana.ttf
702749	WORD	wordpools/wasnorm_wordpool_less_exclusions.txt	LTP239	ltpFR	1	4	-1	ROUGE	1213	n/a	-1	1	1.0	1.0	upper	../fonts/Verdana.ttf
706596	WORD	wordpools/wasnorm_wordpool_less_exclusions.txt	LTP239	ltpFR	1	4	-1	BEE	112	n/a	-1	1	1.0	1.0	upper	../fonts/Verdana.ttf
710462	WORD	wordpools/wasnorm_wordpool_less_exclusions.txt	LTP239	ltpFR	1	4	-1	ROCKET	1202	n/a	-1	1	1.0	1.0	upper	../fonts/Verdana.ttf
714327	WORD	wordpools/wasnorm_wordpool_less_exclusions.txt	LTP239	ltpFR	1	4	-1	ENEMY	534	n/a	-1	1	1.0	1.0	upper	../fonts/Verdana.ttf
718425	WORD	wordpools/wasnorm_wordpool_less_exclusions.txt	LTP239	ltpFR	1	4	-1	ARTICLE	42	n/a	-1	1	1.0	1.0	upper	../fonts/Verdana.ttf
722490	WORD	wordpools/wasnorm_wordpool_less_exclusions.txt	LTP239	ltpFR	1	4	-1	BINDER	127	n/a	-1	1	1.0	1.0	upper	../fonts/Verdana.ttf
726606	WORD	wordpools/wasnorm_wordpool_less_exclusions.txt	LTP239	ltpFR	1	4	-1	FRIAR	605	n/a	-1	1	1.0	1.0	upper	../fonts/Verdana.ttf
730571	WORD	wordpools/wasnorm_wordpool_less_exclusions.txt	LTP239	ltpFR	1	4	-1	PRIEST	1122	n/a	-1	1	1.0	1.0	upper	../fonts/Verdana.ttf
736227	REC_START	n/a	LTP239	ltpFR	1	4	n/a	n/a	n/a	n/a	n/a	n/a	n/a	n/a	n/a	n/a
737030	REC_WORD	wordpools/wasnorm_wordpool_less_exclusions.txt	LTP239	ltpFR	1	4	-1	PRIEST	1122	n/a	-1	n/a	n/a	n/a	n/a	n/a
738342	REC_WORD	wordpools/wasnorm_wordpool_less_exclusions.txt	LTP239	ltpFR	1	4	-1	FRIAR	605	n/a	-1	n/a	n/a	n/a	n/a	n/a
739484	REC_WORD	wordpools/wasnorm_wordpool_less_exclusions.txt	LTP239	ltpFR	1	4	-1	FRIEND	606	n/a	-1	n/a	n/a	n/a	n/a	n/a
740387	REC_WORD	wordpools/wasnorm_wordpool_less_exclusions.txt	LTP239	ltpFR	1	4	-1	ENEMY	534	n/a	-1	n/a	n/a	n/a	n/a	n/a
741724	REC_WORD	wordpools/wasnorm_wordpool_less_exclusions.txt	LTP239	ltpFR	1	4	-1	BOUQUET	157	n/a	-1	n/a	n/a	n/a	n/a	n/a
747586	REC_WORD	wordpools/wasnorm_wordpool_less_exclusions.txt	LTP239	ltpFR	1	4	-1	BEE	112	n/a	-1	n/a	n/a	n/a	n/a	n/a
763924	REC_WORD	wordpools/wasnorm_wordpool_less_exclusions.txt	LTP239	ltpFR	1	4	-1	TREASURE	1500	n/a	-1	n/a	n/a	n/a	n/a	n/a
765256	REC_WORD	wordpools/wasnorm_wordpool_less_exclusions.txt	LTP239	ltpFR	1	4	-1	COIN	343	n/a	-1	n/a	n/a	n/a	n/a	n/a
767665	REC_WORD	wordpools/wasnorm_wordpool_less_exclusions.txt	LTP239	ltpFR	1	4	-1	DUCK	504	n/a	-1	n/a	n/a	n/a	n/a	n/a
857817	WORD	wordpools/wasnorm_wordpool_less_exclusions.txt	LTP239	ltpFR	1	5	1	NEWSPAPER	948	n/a	0	1	0.412841796875	0.57763671875	lower	../fonts/zerothre.ttf
861949	WORD	wordpools/wasnorm_wordpool_less_exclusions.txt	LTP239	ltpFR	1	5	1	MONGOOSE	909	n/a	1	1	0.412841796875	0.57763671875	lower	../fonts/zerothre.ttf
865814	WORD	wordpools/wasnorm_wordpool_less_exclusions.txt	LTP239	ltpFR	1	5	0	SPIT	1354	n/a	0	0	0.5869140625	0.422607421875	upper	../fonts/amplitud.ttf
869963	WORD	wordpools/wasnorm_wordpool_less_exclusions.txt	LTP239	ltpFR	1	5	0	CHIME	300	n/a	1	0	0.5869140625	0.422607421875	upper	../fonts/amplitud.ttf
873826	WORD	wordpools/wasnorm_wordpool_less_exclusions.txt	LTP239	ltpFR	1	5	0	BOXER	160	n/a	1	0	0.5869140625	0.422607421875	upper	../fonts/amplitud.ttf
877776	WORD	wordpools/wasnorm_wordpool_less_exclusions.txt	LTP239	ltpFR	1	5	1	SALIVA	1226	n/a	0	1	0.412841796875	0.57763671875	lower	../fonts/zerothre.ttf
881674	WORD	wordpools/wasnorm_wordpool_less_exclusions.txt	LTP239	ltpFR	1	5	1	JUGGLER	763	n/a	1	1	0.412841796875	0.57763671875	lower	../fonts/zerothre.ttf
885572	WORD	wordpools/wasnorm_wordpool_less_exclusions.txt	LTP239	ltpFR	1	5	0	BEAVER	109	n/a	1	0	0.5869140625	0.422607421875	upper	../fonts/amplitud.ttf
889553	WORD	wordpools/wasnorm_wordpool_less_exclusions.txt	LTP239	ltpFR	1	5	0	TOILET	1475	n/a	1	0	0.5869140625	0.422607421875	upper	../fonts/amplitud.ttf
893468	WORD	wordpools/wasnorm_wordpool_less_exclusions.txt	LTP239	ltpFR	1	5	0	PAPER	1011	n/a	0	0	0.5869140625	0.422607421875	upper	../fonts/amplitud.ttf
897634	WORD	wordpools/wasnorm_wordpool_less_exclusions.txt	LTP239	ltpFR	1	5	0	CROOK	412	n/a	1	0	0.5869140625	0.422607421875	upper	../fonts/amplitud.ttf
901465	WORD	wordpools/wasnorm_wordpool_less_exclusions.txt	LTP239	ltpFR	1	5	0	FUGITIVE	612	n/a	1	0	0.5869140625	0.422607421875	upper	../fonts/amplitud.ttf
905480	WORD	wordpools/wasnorm_wordpool_less_exclusions.txt	LTP239	ltpFR	1	5	1	HINGE	709	n/a	0	1	0.412841796875	0.57763671875	lower	../fonts/zerothre.ttf
909512	WORD	wordpools/wasnorm_wordpool_less_exclusions.txt	LTP239	ltpFR	1	5	1	KEY	773	n/a	0	1	0.412841796875	0.57763671875	lower	../fonts/zerothre.ttf
913344	WORD	wordpools/wasnorm_wordpool_less_exclusions.txt	LTP239	ltpFR	1	5	1	NEWSSTAND	949	n/a	0	1	0.412841796875	0.57763671875	lower	../fonts/zerothre.ttf
917174	WORD	wordpools/wasnorm_wordpool_less_exclusions.txt	LTP239	ltpFR	1	5	1	CARTON	251	n/a	0	1	0.412841796875	0.57763671875	lower	../fonts/zerothre.ttf
922980	REC_START	n/a	LTP239	ltpFR	1	5	n/a	n/a	n/a	n/a	n/a	n/a	n/a	n/a	n/a	n/a
924377	REC_WORD	wordpools/wasnorm_wordpool_less_exclusions.txt	LTP239	ltpFR	1	5	1	CARTON	251	n/a	0	n/a	n/a	n/a	n/a	n/a
924907	REC_WORD	wordpools/wasnorm_wordpool_less_exclusions.txt	LTP239	ltpFR	1	5	1	NEWSPAPER	948	n/a	0	n/a	n/a	n/a	n/a	n/a
925604	REC_WORD	wordpools/wasnorm_wordpool_less_exclusions.txt	LTP239	ltpFR	1	5	1	KEY	773	n/a	0	n/a	n/a	n/a	n/a	n/a
926297	REC_WORD	wordpools/wasnorm_wordpool_less_exclusions.txt	LTP239	ltpFR	1	5	1	HINGE	709	n/a	0	n/a	n/a	n/a	n/a	n/a
927225	REC_WORD	wordpools/wasnorm_wordpool_less_exclusions.txt	LTP239	ltpFR	1	5	0	FUGITIVE	612	n/a	1	n/a	n/a	n/a	n/a	n/a
928193	REC_WORD	wordpools/wasnorm_wordpool_less_exclusions.txt	LTP239	ltpFR	1	5	0	CROOK	412	n/a	1	n/a	n/a	n/a	n/a	n/a
931580	REC_WORD	wordpools/wasnorm_wordpool_less_exclusions.txt	LTP239	ltpFR	1	5	0	PAPER	1011	n/a	0	n/a	n/a	n/a	n/a	n/a
932204	REC_WORD	wordpools/wasnorm_wordpool_less_exclusions.txt	LTP239	ltpFR	1	5	0	BEAVER	109	n/a	1	n/a	n/a	n/a	n/a	n/a
956863	REC_WORD	wordpools/wasnorm_wordpool_less_exclusions.txt	LTP239	ltpFR	1	5	1	NEWSSTAND	949	n/a	0	n/a	n/a	n/a	n/a	n/a
957863	REC_WORD_VV	wordpools/wasnorm_wordpool_less_exclusions.txt	LTP239	ltpFR	1	5	n/a	<>	-1	n/a	n/a	n/a	n/a	n/a	n/a	n/a
968731	REC_WORD	wordpools/wasnorm_wordpool_less_exclusions.txt	LTP239	ltpFR	1	5	1	JUGGLER	763	n/a	1	n/a	n/a	n/a	n/a	n/a
1051062	WORD	wordpools/wasnorm_wordpool_less_exclusions.txt	LTP239	ltpFR	1	6	1	RACCOON	1153	n/a	0	1	0.412841796875	0.57763671875	lower	../fonts/zerothre.ttf
1055161	WORD	wordpools/wasnorm_wordpool_less_exclusions.txt	LTP239	ltpFR	1	6	1	OATS	968	n/a	0	1	0.412841796875	0.57763671875	lower	../fonts/zerothre.ttf
1059025	WORD	wordpools/wasnorm_wordpool_less_exclusions.txt	LTP239	ltpFR	1	6	1	SHOWER	1296	n/a	0	1	0.412841796875	0.57763671875	lower	../fonts/zerothre.ttf
1062973	WORD	wordpools/wasnorm_wordpool_less_exclusions.txt	LTP239	ltpFR	1	6	1	JUG	762	n/a	0	1	0.412841796875	0.57763671875	lower	../fonts/zerothre.ttf
1066972	WORD	wordpools/wasnorm_wordpool_less_exclusions.txt	LTP239	ltpFR	1	6	0	MOWER	928	n/a	1	0	0.5869140625	0.422607421875	upper	../fonts/amplitud.ttf
1071087	WORD	wordpools/wasnorm_wordpool_less_exclusions.txt	LTP239	ltpFR	1	6	0	PAINTER	1004	n/a	1	0	0.5869140625	0.422607421875	upper	../fonts/amplitud.ttf
1075086	WORD	wordpools/wasnorm_wordpool_less_exclusions.txt	LTP239	ltpFR	1	6	0	TURKEY	1520	n/a	1	0	0.5869140625	0.422607421875	upper	../fonts/amplitud.ttf
1079068	WORD	wordpools/wasnorm_wordpool_less_exclusions.txt	LTP239	ltpFR	1	6	0	LAWN	805	n/a	1	0	0.5869140625	0.422607421875	upper	../fonts/amplitud.ttf
1083200	WORD	wordpools/wasnorm_wordpool_less_exclusions.txt	LTP239	ltpFR	1	6	1	ICEBERG	731	n/a	0	1	0.412841796875	0.57763671875	lower	../fonts/zerothre.ttf
1087198	WORD	wordpools/wasnorm_wordpool_less_exclusions.txt	LTP239	ltpFR	1	6	1	FOX	598	n/a	1	1	0.412841796875	0.57763671875	lower	../fonts/zerothre.ttf
1091046	WORD	wordpools/wasnorm_wordpool_less_exclusions.txt	LTP239	ltpFR	1	6	1	WOLF	1619	n/a	1	1	0.412841796875	0.57763671875	lower	../fonts/zerothre.ttf
1095111	WORD	wordpools/wasnorm_wordpool_less_exclusions.txt	LTP239	ltpFR	1	6	1	BANDANNA	80	n/a	0	1	0.412841796875	0.57763671875	lower	../fonts/zerothre.ttf
1099177	WORD	wordpools/wasnorm_wordpool_less_exclusions.txt	LTP239	ltpFR	1	6	0	POTATO	1115	n/a	0	0	0.5869140625	0.422607421875	upper	../fonts/amplitud.ttf
1103057	WORD	wordpools/wasnorm_wordpool_less_exclusions.txt	LTP239	ltpFR	1	6	0	BROOK	177	n/a	1	0	0.5869140625	0.422607421875	upper	../fonts/amplitud.ttf
1107040	WORD	wordpools/wasnorm_wordpool_less_exclusions.txt	LTP239	ltpFR	1	6	0	SEAGULL	1261	n/a	1	0	0.5869140625	0.422607421875	upper	../fonts/amplitud.ttf
1111055	WORD	wordpools/wasnorm_wordpool_less_exclusions.txt	LTP239	ltpFR	1	6	0	PIGEON	1065	n/a	0	0	0.5869140625	0.422607421875	upper	../fonts/amplitud.ttf
1116744	REC_START	n/a	LTP239	ltpFR	1	6	n/a	n/a	n/a	n/a	n/a	n/a	n/a	n/a	n/a	n/a
1119702	REC_WORD	wordpools/wasnorm_wordpool_less_exclusions.txt	LTP239	ltpFR	1	6	0	PIGEON	1065	n/a	0	n/a	n/a	n/a	n/a	n/a
1122896	REC_WORD_VV	wordpools/wasnorm_wordpool_less_exclusions.txt	LTP239	ltpFR	1	6	n/a	<>	-1	n/a	n/a	n/a	n/a	n/a	n/a	n/a
1124566	REC_WORD	wordpools/wasnorm_wordpool_less_exclusions.txt	LTP239	ltpFR	1	6	0	BROOK	177	n/a	1	n/a	n/a	n/a	n/a	n/a
1126831	REC_WORD	wordpools/wasnorm_wordpool_less_exclusions.txt	LTP239	ltpFR	1	6	0	SEAGULL	1261	n/a	1	n/a	n/a	n/a	n/a	n/a
1129804	REC_WORD	wordpools/wasnorm_wordpool_less_exclusions.txt	LTP239	ltpFR	1	6	1	FOX	598	n/a	1	n/a	n/a	n/a	n/a	n/a
1130926	REC_WORD	wordpools/wasnorm_wordpool_less_exclusions.txt	LTP239	ltpFR	1	6	1	WOLF	1619	n/a	1	n/a	n/a	n/a	n/a	n/a
1136843	REC_WORD	wordpools/wasnorm_wordpool_less_exclusions.txt	LTP239	ltpFR	1	6	1	RACCOON	1153	n/a	0	n/a	n/a	n/a	n/a	n/a
1142815	REC_WORD	wordpools/wasnorm_wordpool_less_exclusions.txt	LTP239	ltpFR	1	6	n/a	PICTURE	1061	n/a	n/a	n/a	n/a	n/a	n/a	n/a
1157536	REC_WORD	wordpools/wasnorm_wordpool_less_exclusions.txt	LTP239	ltpFR	1	6	0	POTATO	1115	n/a	0	n/a	n/a	n/a	n/a	n/a
1223964	WORD	wordpools/wasnorm_wordpool_less_exclusions.txt	LTP239	ltpFR	1	7	0	COACH	331	n/a	1	0	0.5869140625	0.422607421875	upper	../fonts/amplitud.ttf
1227977	WORD	wordpools/wasnorm_wordpool_less_exclusions.txt	LTP239	ltpFR	1	7	0	BIBLE	124	n/a	0	0	0.5869140625	0.422607421875	upper	../fonts/amplitud.ttf
1231994	WORD	wordpools/wasnorm_wordpool_less_exclusions.txt	LTP239	ltpFR	1	7	0	HAMBURGER	679	n/a	0	0	0.5869140625	0.422607421875	upper	../fonts/amplitud.ttf
1235842	WORD	wordpools/wasnorm_wordpool_less_exclusions.txt	LTP239	ltpFR	1	7	0	ACTRESS	6	n/a	1	0	0.5869140625	0.422607421875	upper	../fonts/amplitud.ttf
1240058	WORD	wordpools/wasnorm_wordpool_less_exclusions.txt	LTP239	ltpFR	1	7	0	ARENA	37	n/a	1	0	0.5869140625	0.422607421875	upper	../fonts/amplitud.ttf
1244039	WORD	wordpools/wasnorm_wordpool_less_exclusions.txt	LTP239	ltpFR	1	7	0	SPINE	1353	n/a	1	0	0.5869140625	0.422607421875	upper	../fonts/amplitud.ttf
1247870	WORD	wordpools/wasnorm_wordpool_less_exclusions.txt	LTP239	ltpFR	1	7	0	KNAPSACK	783	n/a	1	0	0.5869140625	0.422607421875	upper	../fonts/amplitud.ttf
1252086	WORD	wordpools/wasnorm_wordpool_less_exclusions.txt	LTP239	ltpFR	1	7	0	NOTE	958	n/a	0	0	0.5869140625	0.422607421875	upper	../fonts/amplitud.ttf
1256085	WORD	wordpools/wasnorm_wordpool_less_exclusions.txt	LTP239	ltpFR	1	7	0	FIDDLE	561	n/a	1	0	0.5869140625	0.422607421875	upper	../fonts/amplitud.ttf
1260016	WORD	wordpools/wasnorm_wordpool_less_exclusions.txt	LTP239	ltpFR	1	7	0	CRITIC	410	n/a	1	0	0.5869140625	0.422607421875	upper	../fonts/amplitud.ttf
1264216	WORD	wordpools/wasnorm_wordpool_less_exclusions.txt	LTP239	ltpFR	1	7	0	BEGGAR	117	n/a	1	0	0.5869140625	0.422607421875	upper	../fonts/amplitud.ttf
1268298	WORD	wordpools/wasnorm_wordpool_less_exclusions.txt	LTP239	ltpFR	1	7	0	HERD	705	n/a	1	0	0.5869140625	0.422607421875	upper	../fonts/amplitud.ttf
1272313	WORD	wordpools/wasnorm_wordpool_less_exclusions.txt	LTP239	ltpFR	1	7	0	CHEESE	289	n/a	0	0	0.5869140625	0.422607421875	upper	../fonts/amplitud.ttf
1276245	WORD	wordpools/wasnorm_wordpool_less_exclusions.txt	LTP239	ltpFR	1	7	0	POT	1114	n/a	0	0	0.5869140625	0.422607421875	upper	../fonts/amplitud.ttf
1280360	WORD	wordpools/wasnorm_wordpool_less_exclusions.txt	LTP239	ltpFR	1	7	0	EAGLE	512	n/a	1	0	0.5869140625	0.422607421875	upper	../fonts/amplitud.ttf
1284408	WORD	wordpools/wasnorm_wordpool_less_exclusions.txt	LTP239	ltpFR	1	7	0	BIRD	129	n/a	0	0	0.5869140625	0.422607421875	upper	../fonts/amplitud.ttf
1290366	REC_START	n/a	LTP239	ltpFR	1	7	n/a	n/a	n/a	n/a	n/a	n/a	n/a	n/a	n/a	n/a
1292351	REC_WORD	wordpools/wasnorm_wordpool_less_exclusions.txt	LTP239	ltpFR	1	7	0	BIRD	129	n/a	0	n/a	n/a	n/a	n/a	n/a
1292980	REC_WORD	wordpools/wasnorm_wordpool_less_exclusions.txt	LTP239	ltpFR	1	7	0	COACH	331	n/a	1	n/a	n/a	n/a	n/a	n/a
1293718	REC_WORD	wordpools/wasnorm_wordpool_less_exclusions.txt	LTP239	ltpFR	1	7	0	ACTRESS	6	n/a	1	n/a	n/a	n/a	n/a	n/a
1294746	REC_WORD	wordpools/wasnorm_wordpool_less_exclusions.txt	LTP239	ltpFR	1	7	0	CRITIC	410	n/a	1	n/a	n/a	n/a	n/a	n/a
1298911	REC_WORD	wordpools/wasnorm_wordpool_less_exclusions.txt	LTP239	ltpFR	1	7	0	NOTE	958	n/a	0	n/a	n/a	n/a	n/a	n/a
1300109	REC_WORD	wordpools/wasnorm_wordpool_less_exclusions.txt	LTP239	ltpFR	1	7	0	CHEESE	289	n/a	0	n/a	n/a	n/a	n/a	n/a
1302224	REC_WORD	wordpools/wasnorm_wordpool_less_exclusions.txt	LTP239	ltpFR	1	7	0	EAGLE	512	n/a	1	n/a	n/a	n/a	n/a	n/a
1310445	REC_WORD	wordpools/wasnorm_wordpool_less_exclusions.txt	LTP239	ltpFR	1	7	0	HERD	705	n/a	1	n/a	n/a	n/a	n/a	n/a
1315159	REC_WORD	wordpools/wasnorm_wordpool_less_exclusions.txt	LTP239	ltpFR	1	7	0	SPINE	1353	n/a	1	n/a	n/a	n/a	n/a	n/a
1327970	REC_WORD	wordpools/wasnorm_wordpool_less_exclusions.txt	LTP239	ltpFR	1	7	0	BIBLE	124	n/a	0	n/a	n/a	n/a	n/a	n/a
1350923	REC_WORD	wordpools/wasnorm_wordpool_less_exclusions.txt	LTP239	ltpFR	1	7	0	POT	1114	n/a	0	n/a	n/a	n/a	n/a	n/a
1431814	WORD	wordpools/wasnorm_wordpool_less_exclusions.txt	LTP239	ltpFR	1	8	1	RAKE	1164	n/a	0	1	0.412841796875	0.57763671875	lower	../fonts/zerothre.ttf
1435912	WORD	wordpools/wasnorm_wordpool_less_exclusions.txt	LTP239	ltpFR	1	8	1	BOUILLON	154	n/a	0	1	0.412841796875	0.57763671875	lower	../fonts/zerothre.ttf
1440094	WORD	wordpools/wasnorm_wordpool_less_exclusions.txt	LTP239	ltpFR	1	8	1	BRIEFCASE	175	n/a	0	1	0.412841796875	0.57763671875	lower	../fonts/zerothre.ttf
1443993	WORD	wordpools/wasnorm_wordpool_less_exclusions.txt	LTP239	ltpFR	1	8	1	ANIMAL	23	n/a	1	1	0.412841796875	0.57763671875	lower	../fonts/zerothre.ttf
1448041	WORD	wordpools/wasnorm_wordpool_less_exclusions.txt	LTP239	ltpFR	1	8	1	FUR	615	n/a	0	1	0.412841796875	0.57763671875	lower	../fonts/zerothre.ttf
1452123	WORD	wordpools/wasnorm_wordpool_less_exclusions.txt	LTP239	ltpFR	1	8	1	SHELTER	1282	n/a	0	1	0.412841796875	0.57763671875	lower	../fonts/zerothre.ttf
1456340	WORD	wordpools/wasnorm_wordpool_less_exclusions.txt	LTP239	ltpFR	1	8	1	BRACELET	163	n/a	0	1	0.412841796875	0.57763671875	lower	../fonts/zerothre.ttf
1460170	WORD	wordpools/wasnorm_wordpool_less_exclusions.txt	LTP239	ltpFR	1	8	1	BOY	161	n/a	1	1	0.412841796875	0.57763671875	lower	../fonts/zerothre.ttf
1464135	WORD	wordpools/wasnorm_wordpool_less_exclusions.txt	LTP239	ltpFR	1	8	1	BOYFRIEND	162	n/a	1	1	0.412841796875	0.57763671875	lower	../fonts/zerothre.ttf
1468335	WORD	wordpools/wasnorm_wordpool_less_exclusions.txt	LTP239	ltpFR	1	8	1	PUBLICATION	1136	n/a	0	1	0.412841796875	0.57763671875	lower	../fonts/zerothre.ttf
1472465	WORD	wordpools/wasnorm_wordpool_less_exclusions.txt	LTP239	ltpFR	1	8	1	SPARROW	1347	n/a	1	1	0.412841796875	0.57763671875	lower	../fonts/zerothre.ttf
1476432	WORD	wordpools/wasnorm_wordpool_less_exclusions.txt	LTP239	ltpFR	1	8	1	CHOCOLATE	306	n/a	0	1	0.412841796875	0.57763671875	lower	../fonts/zerothre.ttf
1480364	WORD	wordpools/wasnorm_wordpool_less_exclusions.txt	LTP239	ltpFR	1	8	1	PUDDING	1139	n/a	0	1	0.412841796875	0.57763671875	lower	../fonts/zerothre.ttf
1484194	WORD	wordpools/wasnorm_wordpool_less_exclusions.txt	LTP239	ltpFR	1	8	1	ROBE	1198	n/a	0	1	0.412841796875	0.57763671875	lower	../fonts/zerothre.ttf
1488327	WORD	wordpools/wasnorm_wordpool_less_exclusions.txt	LTP239	ltpFR	1	8	1	CHICKEN	297	n/a	1	1	0.412841796875	0.57763671875	lower	../fonts/zerothre.ttf
1492343	WORD	wordpools/wasnorm_wordpool_less_exclusions.txt	LTP239	ltpFR	1	8	1	HOUSE	725	n/a	0	1	0.412841796875	0.57763671875	lower	../fonts/zerothre.ttf
1498064	REC_START	n/a	LTP239	ltpFR	1	8	n/a	n/a	n/a	n/a	n/a	n/a	n/a	n/a	n/a	n/a
1499371	REC_WORD	wordpools/wasnorm_wordpool_less_exclusions.txt	LTP239	ltpFR	1	8	1	CHICKEN	297	n/a	1	n/a	n/a	n/a	n/a	n/a
1499924	REC_WORD	wordpools/wasnorm_wordpool_less_exclusions.txt	LTP239	ltpFR	1	8	1	HOUSE	725	n/a	0	n/a	n/a	n/a	n/a	n/a
1500279	REC_WORD	wordpools/wasnorm_wordpool_less_exclusions.txt	LTP239	ltpFR	1	8	1	CHOCOLATE	306	n/a	0	n/a	n/a	n/a	n/a	n/a
1501401	REC_WORD	wordpools/wasnorm_wordpool_less_exclusions.txt	LTP239	ltpFR	1	8	1	PUDDING	1139	n/a	0	n/a	n/a	n/a	n/a	n/a
1505951	REC_WORD	wordpools/wasnorm_wordpool_less_exclusions.txt	LTP239	ltpFR	1	8	1	SPARROW	1347	n/a	1	n/a	n/a	n/a	n/a	n/a
1510226	REC_WORD	wordpools/wasnorm_wordpool_less_exclusions.txt	LTP239	ltpFR	1	8	n/a	PERSON	1052	n/a	n/a	n/a	n/a	n/a	n/a	n/a
1511423	REC_WORD	wordpools/wasnorm_wordpool_less_exclusions.txt	LTP239	ltpFR	1	8	1	BOY	161	n/a	1	n/a	n/a	n/a	n/a	n/a
1513708	REC_WORD	wordpools/wasnorm_wordpool_less_exclusions.txt	LTP239	ltpFR	1	8	1	BOYFRIEND	162	n/a	1	n/a	n/a	n/a	n/a	n/a
1515908	REC_WORD	wordpools/wasnorm_wordpool_less_exclusions.txt	LTP239	ltpFR	1	8	1	HOUSE	725	n/a	0	n/a	n/a	n/a	n/a	n/a
1523716	REC_WORD_VV	wordpools/wasnorm_wordpool_less_exclusions.txt	LTP239	ltpFR	1	8	n/a	<>	-1	n/a	n/a	n/a	n/a	n/a	n/a	n/a
1524716	REC_WORD_VV	wordpools/wasnorm_wordpool_less_exclusions.txt	LTP239	ltpFR	1	8	n/a	<>	-1	n/a	n/a	n/a	n/a	n/a	n/a	n/a
1551662	REC_WORD	wordpools/wasnorm_wordpool_less_exclusions.txt	LTP239	ltpFR	1	8	1	BRACELET	163	n/a	0	n/a	n/a	n/a	n/a	n/a
1556212	REC_WORD	wordpools/wasnorm_wordpool_less_exclusions.txt	LTP239	ltpFR	1	8	1	BOUILLON	154	n/a	0	n/a	n/a	n/a	n/a	n/a
1571322	REC_WORD	wordpools/wasnorm_wordpool_less_exclusions.txt	LTP239	ltpFR	1	8	1	RAKE	1164	n/a	0	n/a	n/a	n/a	n/a	n/a
1677573	WORD	wordpools/wasnorm_wordpool_less_exclusions.txt	LTP239	ltpFR	1	9	0	TUTU	1524	n/a	1	0	0.5869140625	0.422607421875	upper	../fonts/amplitud.ttf
1681421	WORD	wordpools/wasnorm_wordpool_less_exclusions.txt	LTP239	ltpFR	1	9	0	LIVER	833	n/a	1	0	0.5869140625	0.422607421875	upper	../fonts/amplitud.ttf
1685553	WORD	wordpools/wasnorm_wordpool_less_exclusions.txt	LTP239	ltpFR	1	9	0	JUNGLE	764	n/a	1	0	0.5869140625	0.422607421875	upper	../fonts/amplitud.ttf
1689434	WORD	wordpools/wasnorm_wordpool_less_exclusions.txt	LTP239	ltpFR	1	9	0	COUGAR	387	n/a	1	0	0.5869140625	0.422607421875	upper	../fonts/amplitud.ttf
1693267	WORD	wordpools/wasnorm_wordpool_less_exclusions.txt	LTP239	ltpFR	1	9	0	COLT	349	n/a	1	0	0.5869140625	0.422607421875	upper	../fonts/amplitud.ttf
1697231	WORD	wordpools/wasnorm_wordpool_less_exclusions.txt	LTP239	ltpFR	1	9	0	HOOP	716	n/a	1	0	0.5869140625	0.422607421875	upper	../fonts/amplitud.ttf
1701413	WORD	wordpools/wasnorm_wordpool_less_exclusions.txt	LTP239	ltpFR	1	9	0	CAFETERIA	217	n/a	1	0	0.5869140625	0.422607421875	upper	../fonts/amplitud.ttf
1705444	WORD	wordpools/wasnorm_wordpool_less_exclusions.txt	LTP239	ltpFR	1	9	0	SKIRT	1319	n/a	0	0	0.5869140625	0.422607421875	upper	../fonts/amplitud.ttf
1709543	WORD	wordpools/wasnorm_wordpool_less_exclusions.txt	LTP239	ltpFR	1	9	0	DIARY	460	n/a	0	0	0.5869140625	0.422607421875	upper	../fonts/amplitud.ttf
1713692	WORD	wordpools/wasnorm_wordpool_less_exclusions.txt	LTP239	ltpFR	1	9	0	LITERATURE	831	n/a	1	0	0.5869140625	0.422607421875	upper	../fonts/amplitud.ttf
1717842	WORD	wordpools/wasnorm_wordpool_less_exclusions.txt	LTP239	ltpFR	1	9	0	HAY	693	n/a	1	0	0.5869140625	0.422607421875	upper	../fonts/amplitud.ttf
1721840	WORD	wordpools/wasnorm_wordpool_less_exclusions.txt	LTP239	ltpFR	1	9	0	UNICORN	1538	n/a	1	0	0.5869140625	0.422607421875	upper	../fonts/amplitud.ttf
1725872	WORD	wordpools/wasnorm_wordpool_less_exclusions.txt	LTP239	ltpFR	1	9	0	PONY	1102	n/a	1	0	0.5869140625	0.422607421875	upper	../fonts/amplitud.ttf
1730054	WORD	wordpools/wasnorm_wordpool_less_exclusions.txt	LTP239	ltpFR	1	9	0	BROOM	178	n/a	1	0	0.5869140625	0.422607421875	upper	../fonts/amplitud.ttf
1733969	WORD	wordpools/wasnorm_wordpool_less_exclusions.txt	LTP239	ltpFR	1	9	0	CONE	363	n/a	0	0	0.5869140625	0.422607421875	upper	../fonts/amplitud.ttf
1738151	WORD	wordpools/wasnorm_wordpool_less_exclusions.txt	LTP239	ltpFR	1	9	0	CHEST	295	n/a	1	0	0.5869140625	0.422607421875	upper	../fonts/amplitud.ttf
1744158	REC_START	n/a	LTP239	ltpFR	1	9	n/a	n/a	n/a	n/a	n/a	n/a	n/a	n/a	n/a	n/a
1745200	REC_WORD	wordpools/wasnorm_wordpool_less_exclusions.txt	LTP239	ltpFR	1	9	0	CHEST	295	n/a	1	n/a	n/a	n/a	n/a	n/a
1745654	REC_WORD	wordpools/wasnorm_wordpool_less_exclusions.txt	LTP239	ltpFR	1	9	0	UNICORN	1538	n/a	1	n/a	n/a	n/a	n/a	n/a
1746388	REC_WORD	wordpools/wasnorm_wordpool_less_exclusions.txt	LTP239	ltpFR	1	9	0	BROOM	178	n/a	1	n/a	n/a	n/a	n/a	n/a
1749166	REC_WORD	wordpools/wasnorm_wordpool_less_exclusions.txt	LTP239	ltpFR	1	9	0	PONY	1102	n/a	1	n/a	n/a	n/a	n/a	n/a
1750164	REC_WORD	wordpools/wasnorm_wordpool_less_exclusions.txt	LTP239	ltpFR	1	9	0	COLT	349	n/a	1	n/a	n/a	n/a	n/a	n/a
1751925	REC_WORD	wordpools/wasnorm_wordpool_less_exclusions.txt	LTP239	ltpFR	1	9	0	JUNGLE	764	n/a	1	n/a	n/a	n/a	n/a	n/a
1766592	REC_WORD	wordpools/wasnorm_wordpool_less_exclusions.txt	LTP239	ltpFR	1	9	0	BROOM	178	n/a	1	n/a	n/a	n/a	n/a	n/a
1771935	REC_WORD	wordpools/wasnorm_wordpool_less_exclusions.txt	LTP239	ltpFR	1	9	0	DIARY	460	n/a	0	n/a	n/a	n/a	n/a	n/a
1788244	REC_WORD_VV	wordpools/wasnorm_wordpool_less_exclusions.txt	LTP239	ltpFR	1	9	n/a	<>	-1	n/a	n/a	n/a	n/a	n/a	n/a	n/a
1790597	REC_WORD	wordpools/wasnorm_wordpool_less_exclusions.txt	LTP239	ltpFR	1	9	0	COUGAR	387	n/a	1	n/a	n/a	n/a	n/a	n/a
1888418	WORD	wordpools/wasnorm_wordpool_less_exclusions.txt	LTP239	ltpFR	1	10	-1	FENCE	560	n/a	-1	1	1.0	1.0	upper	../fonts/Verdana.ttf
1892500	WORD	wordpools/wasnorm_wordpool_less_exclusions.txt	LTP239	ltpFR	1	10	-1	COYOTE	396	n/a	-1	1	1.0	1.0	upper	../fonts/Verdana.ttf
1896614	WORD	wordpools/wasnorm_wordpool_less_exclusions.txt	LTP239	ltpFR	1	10	-1	SAND	1230	n/a	-1	1	1.0	1.0	upper	../fonts/Verdana.ttf
1900831	WORD	wordpools/wasnorm_wordpool_less_exclusions.txt	LTP239	ltpFR	1	10	-1	WARDROBE	1587	n/a	-1	1	1.0	1.0	upper	../fonts/Verdana.ttf
1904679	WORD	wordpools/wasnorm_wordpool_less_exclusions.txt	LTP239	ltpFR	1	10	-1	BERRY	122	n/a	-1	1	1.0	1.0	upper	../fonts/Verdana.ttf
1908726	WORD	wordpools/wasnorm_wordpool_less_exclusions.txt	LTP239	ltpFR	1	10	-1	CAKE	219	n/a	-1	1	1.0	1.0	upper	../fonts/Verdana.ttf
1912776	WORD	wordpools/wasnorm_wordpool_less_exclusions.txt	LTP239	ltpFR	1	10	-1	OFFICER	973	n/a	-1	1	1.0	1.0	upper	../fonts/Verdana.ttf
1916641	WORD	wordpools/wasnorm_wordpool_less_exclusions.txt	LTP239	ltpFR	1	10	-1	BADGE	68	n/a	-1	1	1.0	1.0	upper	../fonts/Verdana.ttf
1920756	WORD	wordpools/wasnorm_wordpool_less_exclusions.txt	LTP239	ltpFR	1	10	-1	GUEST	669	n/a	-1	1	1.0	1.0	upper	../fonts/Verdana.ttf
1924822	WORD	wordpools/wasnorm_wordpool_less_exclusions.txt	LTP239	ltpFR	1	10	-1	STRANGER	1389	n/a	-1	1	1.0	1.0	upper	../fonts/Verdana.ttf
1928954	WORD	wordpools/wasnorm_wordpool_less_exclusions.txt	LTP239	ltpFR	1	10	-1	DRESSER	496	n/a	-1	1	1.0	1.0	upper	../fonts/Verdana.ttf
1932901	WORD	wordpools/wasnorm_wordpool_less_exclusions.txt	LTP239	ltpFR	1	10	-1	GRIZZLY	662	n/a	-1	1	1.0	1.0	upper	../fonts/Verdana.ttf
1936983	WORD	wordpools/wasnorm_wordpool_less_exclusions.txt	LTP239	ltpFR	1	10	-1	CHECKERS	285	n/a	-1	1	1.0	1.0	upper	../fonts/Verdana.ttf
1941133	WORD	wordpools/wasnorm_wordpool_less_exclusions.txt	LTP239	ltpFR	1	10	-1	EDITORIAL	517	n/a	-1	1	1.0	1.0	upper	../fonts/Verdana.ttf
1945233	WORD	wordpools/wasnorm_wordpool_less_exclusions.txt	LTP239	ltpFR	1	10	-1	FRUIT	610	n/a	-1	1	1.0	1.0	upper	../fonts/Verdana.ttf
1949431	WORD	wordpools/wasnorm_wordpool_less_exclusions.txt	LTP239	ltpFR	1	10	-1	SEA	1259	n/a	-1	1	1.0	1.0	upper	../fonts/Verdana.ttf
1955322	REC_START	n/a	LTP239	ltpFR	1	10	n/a	n/a	n/a	n/a	n/a	n/a	n/a	n/a	n/a	n/a
1956404	REC_WORD	wordpools/wasnorm_wordpool_less_exclusions.txt	LTP239	ltpFR	1	10	-1	FRUIT	610	n/a	-1	n/a	n/a	n/a	n/a	n/a
1956998	REC_WORD	wordpools/wasnorm_wordpool_less_exclusions.txt	LTP239	ltpFR	1	10	-1	SEA	1259	n/a	-1	n/a	n/a	n/a	n/a	n/a
1957433	REC_WORD	wordpools/wasnorm_wordpool_less_exclusions.txt	LTP239	ltpFR	1	10	-1	EDITORIAL	517	n/a	-1	n/a	n/a	n/a	n/a	n/a
1958265	REC_WORD	wordpools/wasnorm_wordpool_less_exclusions.txt	LTP239	ltpFR	1	10	-1	GRIZZLY	662	n/a	-1	n/a	n/a	n/a	n/a	n/a
1958978	REC_WORD	wordpools/wasnorm_wordpool_less_exclusions.txt	LTP239	ltpFR	1	10	-1	DRESSER	496	n/a	-1	n/a	n/a	n/a	n/a	n/a
1959654	REC_WORD	wordpools/wasnorm_wordpool_less_exclusions.txt	LTP239	ltpFR	1	10	-1	WARDROBE	1587	n/a	-1	n/a	n/a	n/a	n/a	n/a
1962655	REC_WORD	wordpools/wasnorm_wordpool_less_exclusions.txt	LTP239	ltpFR	1	10	-1	OFFICER	973	n/a	-1	n/a	n/a	n/a	n/a	n/a
1963598	REC_WORD	wordpools/wasnorm_wordpool_less_exclusions.txt	LTP239	ltpFR	1	10	-1	GUEST	669	n/a	-1	n/a	n/a	n/a	n/a	n/a
1964232	REC_WORD	wordpools/wasnorm_wordpool_less_exclusions.txt	LTP239	ltpFR	1	10	-1	STRANGER	1389	n/a	-1	n/a	n/a	n/a	n/a	n/a
1966247	REC_WORD	wordpools/wasnorm_wordpool_less_exclusions.txt	LTP239	ltpFR	1	10	-1	BADGE	68	n/a	-1	n/a	n/a	n/a	n/a	n/a
1968726	REC_WORD	wordpools/wasnorm_wordpool_less_exclusions.txt	LTP239	ltpFR	1	10	-1	SAND	1230	n/a	-1	n/a	n/a	n/a	n/a	n/a
1971126	REC_WORD	wordpools/wasnorm_wordpool_less_exclusions.txt	LTP239	ltpFR	1	10	-1	FENCE	560	n/a	-1	n/a	n/a	n/a	n/a	n/a
2133424	WORD	wordpools/wasnorm_wordpool_less_exclusions.txt	LTP239	ltpFR	1	11	1	GIFT	635	n/a	0	1	0.412841796875	0.57763671875	lower	../fonts/zerothre.ttf
2137639	WORD	wordpools/wasnorm_wordpool_less_exclusions.txt	LTP239	ltpFR	1	11	1	BULLY	196	n/a	1	1	0.412841796875	0.57763671875	lower	../fonts/zerothre.ttf
2141789	WORD	wordpools/wasnorm_wordpool_less_exclusions.txt	LTP239	ltpFR	1	11	1	TIGER	1467	n/a	1	1	0.412841796875	0.57763671875	lower	../fonts/zerothre.ttf
2145620	WORD	wordpools/wasnorm_wordpool_less_exclusions.txt	LTP239	ltpFR	1	11	1	PRINCE	1124	n/a	1	1	0.412841796875	0.57763671875	lower	../fonts/zerothre.ttf
2149769	WORD	wordpools/wasnorm_wordpool_less_exclusions.txt	LTP239	ltpFR	1	11	1	BAY	102	n/a	1	1	0.412841796875	0.57763671875	lower	../fonts/zerothre.ttf
2153768	WORD	wordpools/wasnorm_wordpool_less_exclusions.txt	LTP239	ltpFR	1	11	1	MARSH	874	n/a	1	1	0.412841796875	0.57763671875	lower	../fonts/zerothre.ttf
2157766	WORD	wordpools/wasnorm_wordpool_less_exclusions.txt	LTP239	ltpFR	1	11	1	BEVERAGE	123	n/a	0	1	0.412841796875	0.57763671875	lower	../fonts/zerothre.ttf
2161815	WORD	wordpools/wasnorm_wordpool_less_exclusions.txt	LTP239	ltpFR	1	11	1	TANK	1432	n/a	0	1	0.412841796875	0.57763671875	lower	../fonts/zerothre.ttf
2165863	WORD	wordpools/wasnorm_wordpool_less_exclusions.txt	LTP239	ltpFR	1	11	1	COOKBOOK	373	n/a	0	1	0.412841796875	0.57763671875	lower	../fonts/zerothre.ttf
2169862	WORD	wordpools/wasnorm_wordpool_less_exclusions.txt	LTP239	ltpFR	1	11	1	COOKIE	374	n/a	0	1	0.412841796875	0.57763671875	lower	../fonts/zerothre.ttf
2173910	WORD	wordpools/wasnorm_wordpool_less_exclusions.txt	LTP239	ltpFR	1	11	1	MOSQUITO	917	n/a	1	1	0.412841796875	0.57763671875	lower	../fonts/zerothre.ttf
2177976	WORD	wordpools/wasnorm_wordpool_less_exclusions.txt	LTP239	ltpFR	1	11	1	PALACE	1006	n/a	0	1	0.412841796875	0.57763671875	lower	../fonts/zerothre.ttf
2181890	WORD	wordpools/wasnorm_wordpool_less_exclusions.txt	LTP239	ltpFR	1	11	1	SCOTCH	1251	n/a	0	1	0.412841796875	0.57763671875	lower	../fonts/zerothre.ttf
2186090	WORD	wordpools/wasnorm_wordpool_less_exclusions.txt	LTP239	ltpFR	1	11	1	GANG	619	n/a	1	1	0.412841796875	0.57763671875	lower	../fonts/zerothre.ttf
2190071	WORD	wordpools/wasnorm_wordpool_less_exclusions.txt	LTP239	ltpFR	1	11	1	SHEEP	1278	n/a	1	1	0.412841796875	0.57763671875	lower	../fonts/zerothre.ttf
2194120	WORD	wordpools/wasnorm_wordpool_less_exclusions.txt	LTP239	ltpFR	1	11	1	RAM	1165	n/a	1	1	0.412841796875	0.57763671875	lower	../fonts/zerothre.ttf
2199826	REC_START	n/a	LTP239	ltpFR	1	11	n/a	n/a	n/a	n/a	n/a	n/a	n/a	n/a	n/a	n/a
2201677	REC_WORD	wordpools/wasnorm_wordpool_less_exclusions.txt	LTP239	ltpFR	1	11	1	GANG	619	n/a	1	n/a	n/a	n/a	n/a	n/a
2202240	REC_WORD	wordpools/wasnorm_wordpool_less_exclusions.txt	LTP239	ltpFR	1	11	1	SHEEP	1278	n/a	1	n/a	n/a	n/a	n/a	n/a
2204475	REC_WORD	wordpools/wasnorm_wordpool_less_exclusions.txt	LTP239	ltpFR	1	11	1	RAM	1165	n/a	1	n/a	n/a	n/a	n/a	n/a
2206925	REC_WORD	wordpools/wasnorm_wordpool_less_exclusions.txt	LTP239	ltpFR	1	11	1	BULLY	196	n/a	1	n/a	n/a	n/a	n/a	n/a
2208795	REC_WORD	wordpools/wasnorm_wordpool_less_exclusions.txt	LTP239	ltpFR	1	11	1	MARSH	874	n/a	1	n/a	n/a	n/a	n/a	n/a
2214398	REC_WORD	wordpools/wasnorm_wordpool_less_exclusions.txt	LTP239	ltpFR	1	11	1	COOKBOOK	373	n/a	0	n/a	n/a	n/a	n/a	n/a
2215435	REC_WORD	wordpools/wasnorm_wordpool_less_exclusions.txt	LTP239	ltpFR	1	11	1	COOKIE	374	n/a	0	n/a	n/a	n/a	n/a	n/a
2216603	REC_WORD	wordpools/wasnorm_wordpool_less_exclusions.txt	LTP239	ltpFR	1	11	1	SCOTCH	1251	n/a	0	n/a	n/a	n/a	n/a	n/a
2218089	REC_WORD	wordpools/wasnorm_wordpool_less_exclusions.txt	LTP239	ltpFR	1	11	1	BEVERAGE	123	n/a	0	n/a	n/a	n/a	n/a	n/a
2405367	WORD	wordpools/wasnorm_wordpool_less_exclusions.txt	LTP239	ltpFR	1	12	1	TECHNICIAN	1443	n/a	1	1	0.412841796875	0.57763671875	lower	../fonts/zerothre.ttf
2409231	WORD	wordpools/wasnorm_wordpool_less_exclusions.txt	LTP239	ltpFR	1	12	1	ESCALATOR	539	n/a	0	1	0.412841796875	0.57763671875	lower	../fonts/zerothre.ttf
2413263	WORD	wordpools/wasnorm_wordpool_less_exclusions.txt	LTP239	ltpFR	1	12	1	LADDER	793	n/a	0	1	0.412841796875	0.57763671875	lower	../fonts/zerothre.ttf
2417295	WORD	wordpools/wasnorm_wordpool_less_exclusions.txt	LTP239	ltpFR	1	12	1	ANTELOPE	27	n/a	1	1	0.412841796875	0.57763671875	lower	../fonts/zerothre.ttf
2421227	WORD	wordpools/wasnorm_wordpool_less_exclusions.txt	LTP239	ltpFR	1	12	1	ROOT	1210	n/a	1	1	0.412841796875	0.57763671875	lower	../fonts/zerothre.ttf
2425174	WORD	wordpools/wasnorm_wordpool_less_exclusions.txt	LTP239	ltpFR	1	12	1	SUNRISE	1407	n/a	0	1	0.412841796875	0.57763671875	lower	../fonts/zerothre.ttf
2429257	WORD	wordpools/wasnorm_wordpool_less_exclusions.txt	LTP239	ltpFR	1	12	1	DRILL	497	n/a	0	1	0.412841796875	0.57763671875	lower	../fonts/zerothre.ttf
2433153	WORD	wordpools/wasnorm_wordpool_less_exclusions.txt	LTP239	ltpFR	1	12	1	CARPENTER	246	n/a	1	1	0.412841796875	0.57763671875	lower	../fonts/zerothre.ttf
2437337	WORD	wordpools/wasnorm_wordpool_less_exclusions.txt	LTP239	ltpFR	1	12	1	GUM	672	n/a	0	1	0.412841796875	0.57763671875	lower	../fonts/zerothre.ttf
2441167	WORD	wordpools/wasnorm_wordpool_less_exclusions.txt	LTP239	ltpFR	1	12	1	UNIFORM	1539	n/a	0	1	0.412841796875	0.57763671875	lower	../fonts/zerothre.ttf
2445250	WORD	wordpools/wasnorm_wordpool_less_exclusions.txt	LTP239	ltpFR	1	12	1	ELK	526	n/a	1	1	0.412841796875	0.57763671875	lower	../fonts/zerothre.ttf
2449432	WORD	wordpools/wasnorm_wordpool_less_exclusions.txt	LTP239	ltpFR	1	12	1	PLANET	1082	n/a	1	1	0.412841796875	0.57763671875	lower	../fonts/zerothre.ttf
2453648	WORD	wordpools/wasnorm_wordpool_less_exclusions.txt	LTP239	ltpFR	1	12	1	CLOSET	326	n/a	0	1	0.412841796875	0.57763671875	lower	../fonts/zerothre.ttf
2457563	WORD	wordpools/wasnorm_wordpool_less_exclusions.txt	LTP239	ltpFR	1	12	1	GARAGE	621	n/a	0	1	0.412841796875	0.57763671875	lower	../fonts/zerothre.ttf
2461611	WORD	wordpools/wasnorm_wordpool_less_exclusions.txt	LTP239	ltpFR	1	12	1	VOLLEYBALL	1576	n/a	0	1	0.412841796875	0.57763671875	lower	../fonts/zerothre.ttf
2465743	WORD	wordpools/wasnorm_wordpool_less_exclusions.txt	LTP239	ltpFR	1	12	1	CLAM	315	n/a	1	1	0.412841796875	0.57763671875	lower	../fonts/zerothre.ttf
2471533	REC_START	n/a	LTP239	ltpFR	1	12	n/a	n/a	n/a	n/a	n/a	n/a	n/a	n/a	n/a	n/a
2472974	REC_WORD	wordpools/wasnorm_wordpool_less_exclusions.txt	LTP239	ltpFR	1	12	1	CLAM	315	n/a	1	n/a	n/a	n/a	n/a	n/a
2473927	REC_WORD	wordpools/wasnorm_wordpool_less_exclusions.txt	LTP239	ltpFR	1	12	1	CLOSET	326	n/a	0	n/a	n/a	n/a	n/a	n/a
2476521	REC_WORD	wordpools/wasnorm_wordpool_less_exclusions.txt	LTP239	ltpFR	1	12	1	CARPENTER	246	n/a	1	n/a	n/a	n/a	n/a	n/a
2478073	REC_WORD	wordpools/wasnorm_wordpool_less_exclusions.txt	LTP239	ltpFR	1	12	1	ELK	526	n/a	1	n/a	n/a	n/a	n/a	n/a
2479335	REC_WORD	wordpools/wasnorm_wordpool_less_exclusions.txt	LTP239	ltpFR	1	12	1	ANTELOPE	27	n/a	1	n/a	n/a	n/a	n/a	n/a
2547184	REST_REWET	n/a	LTP239	ltpFR	1	12	n/a	n/a	n/a	n/a	n/a	n/a	n/a	n/a	n/a	n/a
3099349	WORD	wordpools/wasnorm_wordpool_less_exclusions.txt	LTP239	ltpFR	1	13	0	COUNTRY	388	n/a	1	0	0.5869140625	0.422607421875	upper	../fonts/amplitud.ttf
3103564	WORD	wordpools/wasnorm_wordpool_less_exclusions.txt	LTP239	ltpFR	1	13	0	SLUG	1329	n/a	0	0	0.5869140625	0.422607421875	upper	../fonts/amplitud.ttf
3107478	WORD	wordpools/wasnorm_wordpool_less_exclusions.txt	LTP239	ltpFR	1	13	0	BAKER	71	n/a	1	0	0.5869140625	0.422607421875	upper	../fonts/amplitud.ttf
3111494	WORD	wordpools/wasnorm_wordpool_less_exclusions.txt	LTP239	ltpFR	1	13	0	IRON	744	n/a	1	0	0.5869140625	0.422607421875	upper	../fonts/amplitud.ttf
3115693	WORD	wordpools/wasnorm_wordpool_less_exclusions.txt	LTP239	ltpFR	1	13	1	LIZARD	834	n/a	1	1	0.412841796875	0.57763671875	lower	../fonts/zerothre.ttf
3119641	WORD	wordpools/wasnorm_wordpool_less_exclusions.txt	LTP239	ltpFR	1	13	1	POLICE	1098	n/a	1	1	0.412841796875	0.57763671875	lower	../fonts/zerothre.ttf
3123823	WORD	wordpools/wasnorm_wordpool_less_exclusions.txt	LTP239	ltpFR	1	13	1	CUFF	423	n/a	0	1	0.412841796875	0.57763671875	lower	../fonts/zerothre.ttf
3127889	WORD	wordpools/wasnorm_wordpool_less_exclusions.txt	LTP239	ltpFR	1	13	1	SUBURB	1399	n/a	0	1	0.412841796875	0.57763671875	lower	../fonts/zerothre.ttf
3131787	WORD	wordpools/wasnorm_wordpool_less_exclusions.txt	LTP239	ltpFR	1	13	0	SHACK	1273	n/a	1	0	0.5869140625	0.422607421875	upper	../fonts/amplitud.ttf
3135886	WORD	wordpools/wasnorm_wordpool_less_exclusions.txt	LTP239	ltpFR	1	13	0	ATTIC	56	n/a	1	0	0.5869140625	0.422607421875	upper	../fonts/amplitud.ttf
3139951	WORD	wordpools/wasnorm_wordpool_less_exclusions.txt	LTP239	ltpFR	1	13	1	PARCEL	1012	n/a	0	1	0.412841796875	0.57763671875	lower	../fonts/zerothre.ttf
3143931	WORD	wordpools/wasnorm_wordpool_less_exclusions.txt	LTP239	ltpFR	1	13	1	MUFFIN	929	n/a	0	1	0.412841796875	0.57763671875	lower	../fonts/zerothre.ttf
3147831	WORD	wordpools/wasnorm_wordpool_less_exclusions.txt	LTP239	ltpFR	1	13	1	HURRICANE	727	n/a	0	1	0.412841796875	0.57763671875	lower	../fonts/zerothre.ttf
3151796	WORD	wordpools/wasnorm_wordpool_less_exclusions.txt	LTP239	ltpFR	1	13	1	CYCLONE	431	n/a	0	1	0.412841796875	0.57763671875	lower	../fonts/zerothre.ttf
3155694	WORD	wordpools/wasnorm_wordpool_less_exclusions.txt	LTP239	ltpFR	1	13	0	TRIANGLE	1504	n/a	0	0	0.5869140625	0.422607421875	upper	../fonts/amplitud.ttf
3159608	WORD	wordpools/wasnorm_wordpool_less_exclusions.txt	LTP239	ltpFR	1	13	0	FLEA	577	n/a	0	0	0.5869140625	0.422607421875	upper	../fonts/amplitud.ttf
3165548	REC_START	n/a	LTP239	ltpFR	1	13	n/a	n/a	n/a	n/a	n/a	n/a	n/a	n/a	n/a	n/a
3166256	REC_WORD	wordpools/wasnorm_wordpool_less_exclusions.txt	LTP239	ltpFR	1	13	0	TRIANGLE	1504	n/a	0	n/a	n/a	n/a	n/a	n/a
3166854	REC_WORD	wordpools/wasnorm_wordpool_less_exclusions.txt	LTP239	ltpFR	1	13	0	FLEA	577	n/a	0	n/a	n/a	n/a	n/a	n/a
3167578	REC_WORD	wordpools/wasnorm_wordpool_less_exclusions.txt	LTP239	ltpFR	1	13	1	HURRICANE	727	n/a	0	n/a	n/a	n/a	n/a	n/a
3168391	REC_WORD	wordpools/wasnorm_wordpool_less_exclusions.txt	LTP239	ltpFR	1	13	n/a	TYPHOON	-1	n/a	n/a	n/a	n/a	n/a	n/a	n/a
3172033	REC_WORD_VV	wordpools/wasnorm_wordpool_less_exclusions.txt	LTP239	ltpFR	1	13	n/a	<>	-1	n/a	n/a	n/a	n/a	n/a	n/a	n/a
3173824	REC_WORD	wordpools/wasnorm_wordpool_less_exclusions.txt	LTP239	ltpFR	1	13	1	POLICE	1098	n/a	1	n/a	n/a	n/a	n/a	n/a
3180040	REC_WORD	wordpools/wasnorm_wordpool_less_exclusions.txt	LTP239	ltpFR	1	13	0	COUNTRY	388	n/a	1	n/a	n/a	n/a	n/a	n/a
3183500	REC_WORD_VV	wordpools/wasnorm_wordpool_less_exclusions.txt	LTP239	ltpFR	1	13	n/a	<>	-1	n/a	n/a	n/a	n/a	n/a	n/a	n/a
3202459	REC_WORD	wordpools/wasnorm_wordpool_less_exclusions.txt	LTP239	ltpFR	1	13	0	ATTIC	56	n/a	1	n/a	n/a	n/a	n/a	n/a
3203357	REC_WORD	wordpools/wasnorm_wordpool_less_exclusions.txt	LTP239	ltpFR	1	13	0	SHACK	1273	n/a	1	n/a	n/a	n/a	n/a	n/a
3207602	REC_WORD	wordpools/wasnorm_wordpool_less_exclusions.txt	LTP239	ltpFR	1	13	1	MUFFIN	929	n/a	0	n/a	n/a	n/a	n/a	n/a
3234167	REC_WORD	wordpools/wasnorm_wordpool_less_exclusions.txt	LTP239	ltpFR	1	13	1	SUBURB	1399	n/a	0	n/a	n/a	n/a	n/a	n/a
3283709	WORD	wordpools/wasnorm_wordpool_less_exclusions.txt	LTP239	ltpFR	1	14	0	FIELD	562	n/a	1	0	0.5869140625	0.422607421875	upper	../fonts/amplitud.ttf
3287825	WORD	wordpools/wasnorm_wordpool_less_exclusions.txt	LTP239	ltpFR	1	14	0	FURNITURE	616	n/a	1	0	0.5869140625	0.422607421875	upper	../fonts/amplitud.ttf
3292007	WORD	wordpools/wasnorm_wordpool_less_exclusions.txt	LTP239	ltpFR	1	14	0	PAWN	1030	n/a	0	0	0.5869140625	0.422607421875	upper	../fonts/amplitud.ttf
3296089	WORD	wordpools/wasnorm_wordpool_less_exclusions.txt	LTP239	ltpFR	1	14	0	LIME	823	n/a	0	0	0.5869140625	0.422607421875	upper	../fonts/amplitud.ttf
3300054	WORD	wordpools/wasnorm_wordpool_less_exclusions.txt	LTP239	ltpFR	1	14	0	LOLLIPOP	842	n/a	0	0	0.5869140625	0.422607421875	upper	../fonts/amplitud.ttf
3304053	WORD	wordpools/wasnorm_wordpool_less_exclusions.txt	LTP239	ltpFR	1	14	0	BUGGY	188	n/a	1	0	0.5869140625	0.422607421875	upper	../fonts/amplitud.ttf
3308001	WORD	wordpools/wasnorm_wordpool_less_exclusions.txt	LTP239	ltpFR	1	14	0	WAND	1586	n/a	0	0	0.5869140625	0.422607421875	upper	../fonts/amplitud.ttf
3311932	WORD	wordpools/wasnorm_wordpool_less_exclusions.txt	LTP239	ltpFR	1	14	0	STADIUM	1364	n/a	1	0	0.5869140625	0.422607421875	upper	../fonts/amplitud.ttf
3315964	WORD	wordpools/wasnorm_wordpool_less_exclusions.txt	LTP239	ltpFR	1	14	0	POCKET	1093	n/a	0	0	0.5869140625	0.422607421875	upper	../fonts/amplitud.ttf
3319929	WORD	wordpools/wasnorm_wordpool_less_exclusions.txt	LTP239	ltpFR	1	14	0	COUCH	386	n/a	1	0	0.5869140625	0.422607421875	upper	../fonts/amplitud.ttf
3323994	WORD	wordpools/wasnorm_wordpool_less_exclusions.txt	LTP239	ltpFR	1	14	0	PECAN	1036	n/a	0	0	0.5869140625	0.422607421875	upper	../fonts/amplitud.ttf
3328077	WORD	wordpools/wasnorm_wordpool_less_exclusions.txt	LTP239	ltpFR	1	14	0	RECIPE	1175	n/a	0	0	0.5869140625	0.422607421875	upper	../fonts/amplitud.ttf
3332159	WORD	wordpools/wasnorm_wordpool_less_exclusions.txt	LTP239	ltpFR	1	14	0	BEEF	113	n/a	0	0	0.5869140625	0.422607421875	upper	../fonts/amplitud.ttf
3336207	WORD	wordpools/wasnorm_wordpool_less_exclusions.txt	LTP239	ltpFR	1	14	0	PEARL	1034	n/a	0	0	0.5869140625	0.422607421875	upper	../fonts/amplitud.ttf
3340223	WORD	wordpools/wasnorm_wordpool_less_exclusions.txt	LTP239	ltpFR	1	14	0	NECKLACE	940	n/a	0	0	0.5869140625	0.422607421875	upper	../fonts/amplitud.ttf
3344421	WORD	wordpools/wasnorm_wordpool_less_exclusions.txt	LTP239	ltpFR	1	14	0	RAILROAD	1162	n/a	1	0	0.5869140625	0.422607421875	upper	../fonts/amplitud.ttf
3350194	REC_START	n/a	LTP239	ltpFR	1	14	n/a	n/a	n/a	n/a	n/a	n/a	n/a	n/a	n/a	n/a
3351157	REC_WORD	wordpools/wasnorm_wordpool_less_exclusions.txt	LTP239	ltpFR	1	14	0	RAILROAD	1162	n/a	1	n/a	n/a	n/a	n/a	n/a
3352404	REC_WORD	wordpools/wasnorm_wordpool_less_exclusions.txt	LTP239	ltpFR	1	14	0	BEEF	113	n/a	0	n/a	n/a	n/a	n/a	n/a
3353401	REC_WORD	wordpools/wasnorm_wordpool_less_exclusions.txt	LTP239	ltpFR	1	14	0	NECKLACE	940	n/a	0	n/a	n/a	n/a	n/a	n/a
3354773	REC_WORD	wordpools/wasnorm_wordpool_less_exclusions.txt	LTP239	ltpFR	1	14	0	PEARL	1034	n/a	0	n/a	n/a	n/a	n/a	n/a
3356060	REC_WORD	wordpools/wasnorm_wordpool_less_exclusions.txt	LTP239	ltpFR	1	14	0	RECIPE	1175	n/a	0	n/a	n/a	n/a	n/a	n/a
3359386	REC_WORD	wordpools/wasnorm_wordpool_less_exclusions.txt	LTP239	ltpFR	1	14	0	FIELD	562	n/a	1	n/a	n/a	n/a	n/a	n/a
3360401	REC_WORD	wordpools/wasnorm_wordpool_less_exclusions.txt	LTP239	ltpFR	1	14	0	STADIUM	1364	n/a	1	n/a	n/a	n/a	n/a	n/a
3372353	REC_WORD	wordpools/wasnorm_wordpool_less_exclusions.txt	LTP239	ltpFR	1	14	0	LIME	823	n/a	0	n/a	n/a	n/a	n/a	n/a
3400405	REC_WORD	wordpools/wasnorm_wordpool_less_exclusions.txt	LTP239	ltpFR	1	14	1	KEY	773	n/a	0	n/a	n/a	n/a	n/a	n/a
3404839	REC_WORD	wordpools/wasnorm_wordpool_less_exclusions.txt	LTP239	ltpFR	1	14	0	FURNITURE	616	n/a	1	n/a	n/a	n/a	n/a	n/a
3406401	REC_WORD	wordpools/wasnorm_wordpool_less_exclusions.txt	LTP239	ltpFR	1	14	0	COUCH	386	n/a	1	n/a	n/a	n/a	n/a	n/a
3498385	WORD	wordpools/wasnorm_wordpool_less_exclusions.txt	LTP239	ltpFR	1	15	-1	VITAMIN	1574	n/a	-1	1	1.0	1.0	upper	../fonts/Verdana.ttf
3502318	WORD	wordpools/wasnorm_wordpool_less_exclusions.txt	LTP239	ltpFR	1	15	-1	MASCARA	875	n/a	-1	1	1.0	1.0	upper	../fonts/Verdana.ttf
3506349	WORD	wordpools/wasnorm_wordpool_less_exclusions.txt	LTP239	ltpFR	1	15	-1	COMMITTEE	355	n/a	-1	1	1.0	1.0	upper	../fonts/Verdana.ttf
3510247	WORD	wordpools/wasnorm_wordpool_less_exclusions.txt	LTP239	ltpFR	1	15	-1	LION	827	n/a	-1	1	1.0	1.0	upper	../fonts/Verdana.ttf
3514144	WORD	wordpools/wasnorm_wordpool_less_exclusions.txt	LTP239	ltpFR	1	15	-1	FACTORY	548	n/a	-1	1	1.0	1.0	upper	../fonts/Verdana.ttf
3518143	WORD	wordpools/wasnorm_wordpool_less_exclusions.txt	LTP239	ltpFR	1	15	-1	ELECTRICIAN	521	n/a	-1	1	1.0	1.0	upper	../fonts/Verdana.ttf
3522293	WORD	wordpools/wasnorm_wordpool_less_exclusions.txt	LTP239	ltpFR	1	15	-1	SARDINE	1235	n/a	-1	1	1.0	1.0	upper	../fonts/Verdana.ttf
3526375	WORD	wordpools/wasnorm_wordpool_less_exclusions.txt	LTP239	ltpFR	1	15	-1	GLASSES	640	n/a	-1	1	1.0	1.0	upper	../fonts/Verdana.ttf
3530273	WORD	wordpools/wasnorm_wordpool_less_exclusions.txt	LTP239	ltpFR	1	15	-1	STUMP	1396	n/a	-1	1	1.0	1.0	upper	../fonts/Verdana.ttf
3534504	WORD	wordpools/wasnorm_wordpool_less_exclusions.txt	LTP239	ltpFR	1	15	-1	MOSS	918	n/a	-1	1	1.0	1.0	upper	../fonts/Verdana.ttf
3538503	WORD	wordpools/wasnorm_wordpool_less_exclusions.txt	LTP239	ltpFR	1	15	-1	SPICE	1350	n/a	-1	1	1.0	1.0	upper	../fonts/Verdana.ttf
3542451	WORD	wordpools/wasnorm_wordpool_less_exclusions.txt	LTP239	ltpFR	1	15	-1	BARLEY	88	n/a	-1	1	1.0	1.0	upper	../fonts/Verdana.ttf
3546533	WORD	wordpools/wasnorm_wordpool_less_exclusions.txt	LTP239	ltpFR	1	15	-1	WICK	1607	n/a	-1	1	1.0	1.0	upper	../fonts/Verdana.ttf
3550396	WORD	wordpools/wasnorm_wordpool_less_exclusions.txt	LTP239	ltpFR	1	15	-1	TUNA	1518	n/a	-1	1	1.0	1.0	upper	../fonts/Verdana.ttf
3554614	WORD	wordpools/wasnorm_wordpool_less_exclusions.txt	LTP239	ltpFR	1	15	-1	KEEPER	769	n/a	-1	1	1.0	1.0	upper	../fonts/Verdana.ttf
3558478	WORD	wordpools/wasnorm_wordpool_less_exclusions.txt	LTP239	ltpFR	1	15	-1	HALL	677	n/a	-1	1	1.0	1.0	upper	../fonts/Verdana.ttf
3564201	REC_START	n/a	LTP239	ltpFR	1	15	n/a	n/a	n/a	n/a	n/a	n/a	n/a	n/a	n/a	n/a
3565044	REC_WORD	wordpools/wasnorm_wordpool_less_exclusions.txt	LTP239	ltpFR	1	15	-1	KEEPER	769	n/a	-1	n/a	n/a	n/a	n/a	n/a
3565573	REC_WORD	wordpools/wasnorm_wordpool_less_exclusions.txt	LTP239	ltpFR	1	15	-1	HALL	677	n/a	-1	n/a	n/a	n/a	n/a	n/a
3566151	REC_WORD	wordpools/wasnorm_wordpool_less_exclusions.txt	LTP239	ltpFR	1	15	n/a	BARNEY	-1	n/a	n/a	n/a	n/a	n/a	n/a	n/a
3566740	REC_WORD	wordpools/wasnorm_wordpool_less_exclusions.txt	LTP239	ltpFR	1	15	-1	BARLEY	88	n/a	-1	n/a	n/a	n/a	n/a	n/a
3567523	REC_WORD	wordpools/wasnorm_wordpool_less_exclusions.txt	LTP239	ltpFR	1	15	-1	TUNA	1518	n/a	-1	n/a	n/a	n/a	n/a	n/a
3568701	REC_WORD	wordpools/wasnorm_wordpool_less_exclusions.txt	LTP239	ltpFR	1	15	-1	SARDINE	1235	n/a	-1	n/a	n/a	n/a	n/a	n/a
3571969	REC_WORD_VV	wordpools/wasnorm_wordpool_less_exclusions.txt	LTP239	ltpFR	1	15	n/a	<>	-1	n/a	n/a	n/a	n/a	n/a	n/a	n/a
3572961	REC_WORD	wordpools/wasnorm_wordpool_less_exclusions.txt	LTP239	ltpFR	1	15	-1	VITAMIN	1574	n/a	-1	n/a	n/a	n/a	n/a	n/a
3574388	REC_WORD	wordpools/wasnorm_wordpool_less_exclusions.txt	LTP239	ltpFR	1	15	-1	LION	827	n/a	-1	n/a	n/a	n/a	n/a	n/a
3577515	REC_WORD	wordpools/wasnorm_wordpool_less_exclusions.txt	LTP239	ltpFR	1	15	-1	COMMITTEE	355	n/a	-1	n/a	n/a	n/a	n/a	n/a
3612817	REC_WORD_VV	wordpools/wasnorm_wordpool_less_exclusions.txt	LTP239	ltpFR	1	15	n/a	<>	-1	n/a	n/a	n/a	n/a	n/a	n/a	n/a
3618687	REC_WORD_VV	wordpools/wasnorm_wordpool_less_exclusions.txt	LTP239	ltpFR	1	15	n/a	<>	-1	n/a	n/a	n/a	n/a	n/a	n/a	n/a
3621101	REC_WORD_VV	wordpools/wasnorm_wordpool_less_exclusions.txt	LTP239	ltpFR	1	15	n/a	<>	-1	n/a	n/a	n/a	n/a	n/a	n/a	n/a
3624455	REC_WORD_VV	wordpools/wasnorm_wordpool_less_exclusions.txt	LTP239	ltpFR	1	15	n/a	<>	-1	n/a	n/a	n/a	n/a	n/a	n/a	n/a
3633783	REC_WORD	wordpools/wasnorm_wordpool_less_exclusions.txt	LTP239	ltpFR	1	15	n/a	OIL	-1	n/a	n/a	n/a	n/a	n/a	n/a	n/a
3695278	WORD	wordpools/wasnorm_wordpool_less_exclusions.txt	LTP239	ltpFR	1	16	0	SUN	1406	n/a	1	0	0.5869140625	0.422607421875	upper	../fonts/amplitud.ttf
3699208	WORD	wordpools/wasnorm_wordpool_less_exclusions.txt	LTP239	ltpFR	1	16	0	METEOR	889	n/a	1	0	0.5869140625	0.422607421875	upper	../fonts/amplitud.ttf
3703157	WORD	wordpools/wasnorm_wordpool_less_exclusions.txt	LTP239	ltpFR	1	16	0	HOSE	720	n/a	1	0	0.5869140625	0.422607421875	upper	../fonts/amplitud.ttf
3707021	WORD	wordpools/wasnorm_wordpool_less_exclusions.txt	LTP239	ltpFR	1	16	0	CAP	236	n/a	0	0	0.5869140625	0.422607421875	upper	../fonts/amplitud.ttf
3710836	WORD	wordpools/wasnorm_wordpool_less_exclusions.txt	LTP239	ltpFR	1	16	0	TICK	1463	n/a	0	0	0.5869140625	0.422607421875	upper	../fonts/amplitud.ttf
3714851	WORD	wordpools/wasnorm_wordpool_less_exclusions.txt	LTP239	ltpFR	1	16	0	TURNIP	1521	n/a	0	0	0.5869140625	0.422607421875	upper	../fonts/amplitud.ttf
3718933	WORD	wordpools/wasnorm_wordpool_less_exclusions.txt	LTP239	ltpFR	1	16	1	ROSE	1212	n/a	1	1	0.412841796875	0.57763671875	lower	../fonts/zerothre.ttf
3723115	WORD	wordpools/wasnorm_wordpool_less_exclusions.txt	LTP239	ltpFR	1	16	1	ANKLE	24	n/a	1	1	0.412841796875	0.57763671875	lower	../fonts/zerothre.ttf
3727164	WORD	wordpools/wasnorm_wordpool_less_exclusions.txt	LTP239	ltpFR	1	16	1	CHAIRPERSON	275	n/a	1	1	0.412841796875	0.57763671875	lower	../fonts/zerothre.ttf
3730995	WORD	wordpools/wasnorm_wordpool_less_exclusions.txt	LTP239	ltpFR	1	16	0	BEARD	107	n/a	0	0	0.5869140625	0.422607421875	upper	../fonts/amplitud.ttf
3734977	WORD	wordpools/wasnorm_wordpool_less_exclusions.txt	LTP239	ltpFR	1	16	0	HEART	697	n/a	0	0	0.5869140625	0.422607421875	upper	../fonts/amplitud.ttf
3738992	WORD	wordpools/wasnorm_wordpool_less_exclusions.txt	LTP239	ltpFR	1	16	1	FLESH	579	n/a	1	1	0.412841796875	0.57763671875	lower	../fonts/zerothre.ttf
3743057	WORD	wordpools/wasnorm_wordpool_less_exclusions.txt	LTP239	ltpFR	1	16	1	WHISKERS	1605	n/a	0	1	0.412841796875	0.57763671875	lower	../fonts/zerothre.ttf
3746972	WORD	wordpools/wasnorm_wordpool_less_exclusions.txt	LTP239	ltpFR	1	16	1	OZONE	996	n/a	0	1	0.412841796875	0.57763671875	lower	../fonts/zerothre.ttf
3751071	WORD	wordpools/wasnorm_wordpool_less_exclusions.txt	LTP239	ltpFR	1	16	1	FAUCET	555	n/a	0	1	0.412841796875	0.57763671875	lower	../fonts/zerothre.ttf
3755034	WORD	wordpools/wasnorm_wordpool_less_exclusions.txt	LTP239	ltpFR	1	16	1	MANAGER	863	n/a	1	1	0.412841796875	0.57763671875	lower	../fonts/zerothre.ttf
3760908	REC_START	n/a	LTP239	ltpFR	1	16	n/a	n/a	n/a	n/a	n/a	n/a	n/a	n/a	n/a	n/a
3761826	REC_WORD	wordpools/wasnorm_wordpool_less_exclusions.txt	LTP239	ltpFR	1	16	1	MANAGER	863	n/a	1	n/a	n/a	n/a	n/a	n/a
3763073	REC_WORD	wordpools/wasnorm_wordpool_less_exclusions.txt	LTP239	ltpFR	1	16	1	FAUCET	555	n/a	0	n/a	n/a	n/a	n/a	n/a
3764415	REC_WORD	wordpools/wasnorm_wordpool_less_exclusions.txt	LTP239	ltpFR	1	16	1	CHAIRPERSON	275	n/a	1	n/a	n/a	n/a	n/a	n/a
3765415	REC_WORD_VV	wordpools/wasnorm_wordpool_less_exclusions.txt	LTP239	ltpFR	1	16	n/a	<>	-1	n/a	n/a	n/a	n/a	n/a	n/a	n/a
3767767	REC_WORD	wordpools/wasnorm_wordpool_less_exclusions.txt	LTP239	ltpFR	1	16	1	FLESH	579	n/a	1	n/a	n/a	n/a	n/a	n/a
3769164	REC_WORD	wordpools/wasnorm_wordpool_less_exclusions.txt	LTP239	ltpFR	1	16	1	ANKLE	24	n/a	1	n/a	n/a	n/a	n/a	n/a
3770406	REC_WORD	wordpools/wasnorm_wordpool_less_exclusions.txt	LTP239	ltpFR	1	16	1	ROSE	1212	n/a	1	n/a	n/a	n/a	n/a	n/a
3773135	REC_WORD	wordpools/wasnorm_wordpool_less_exclusions.txt	LTP239	ltpFR	1	16	0	CAP	236	n/a	0	n/a	n/a	n/a	n/a	n/a
3773938	REC_WORD	wordpools/wasnorm_wordpool_less_exclusions.txt	LTP239	ltpFR	1	16	0	TURNIP	1521	n/a	0	n/a	n/a	n/a	n/a	n/a
3775076	REC_WORD	wordpools/wasnorm_wordpool_less_exclusions.txt	LTP239	ltpFR	1	16	0	BEARD	107	n/a	0	n/a	n/a	n/a	n/a	n/a
3779675	REC_WORD	wordpools/wasnorm_wordpool_less_exclusions.txt	LTP239	ltpFR	1	16	0	HOSE	720	n/a	1	n/a	n/a	n/a	n/a	n/a
3780658	REC_WORD	wordpools/wasnorm_wordpool_less_exclusions.txt	LTP239	ltpFR	1	16	0	SUN	1406	n/a	1	n/a	n/a	n/a	n/a	n/a
3782075	REC_WORD_VV	wordpools/wasnorm_wordpool_less_exclusions.txt	LTP239	ltpFR	1	16	n/a	<>	-1	n/a	n/a	n/a	n/a	n/a	n/a	n/a
3782783	REC_WORD	wordpools/wasnorm_wordpool_less_exclusions.txt	LTP239	ltpFR	1	16	0	METEOR	889	n/a	1	n/a	n/a	n/a	n/a	n/a
3786216	REC_WORD_VV	wordpools/wasnorm_wordpool_less_exclusions.txt	LTP239	ltpFR	1	16	n/a	<>	-1	n/a	n/a	n/a	n/a	n/a	n/a	n/a
3787216	REC_WORD_VV	wordpools/wasnorm_wordpool_less_exclusions.txt	LTP239	ltpFR	1	16	n/a	<>	-1	n/a	n/a	n/a	n/a	n/a	n/a	n/a
3788216	REC_WORD_VV	wordpools/wasnorm_wordpool_less_exclusions.txt	LTP239	ltpFR	1	16	n/a	<>	-1	n/a	n/a	n/a	n/a	n/a	n/a	n/a
3789216	REC_WORD_VV	wordpools/wasnorm_wordpool_less_exclusions.txt	LTP239	ltpFR	1	16	n/a	<>	-1	n/a	n/a	n/a	n/a	n/a	n/a	n/a
3790216	REC_WORD_VV	wordpools/wasnorm_wordpool_less_exclusions.txt	LTP239	ltpFR	1	16	n/a	<>	-1	n/a	n/a	n/a	n/a	n/a	n/a	n/a
3791216	REC_WORD_VV	wordpools/wasnorm_wordpool_less_exclusions.txt	LTP239	ltpFR	1	16	n/a	<>	-1	n/a	n/a	n/a	n/a	n/a	n/a	n/a
3792604	REC_WORD_VV	wordpools/wasnorm_wordpool_less_exclusions.txt	LTP239	ltpFR	1	16	n/a	<>	-1	n/a	n/a	n/a	n/a	n/a	n/a	n/a
3793604	REC_WORD_VV	wordpools/wasnorm_wordpool_less_exclusions.txt	LTP239	ltpFR	1	16	n/a	<>	-1	n/a	n/a	n/a	n/a	n/a	n/a	n/a
3794604	REC_WORD_VV	wordpools/wasnorm_wordpool_less_exclusions.txt	LTP239	ltpFR	1	16	n/a	<>	-1	n/a	n/a	n/a	n/a	n/a	n/a	n/a
3795604	REC_WORD_VV	wordpools/wasnorm_wordpool_less_exclusions.txt	LTP239	ltpFR	1	16	n/a	<>	-1	n/a	n/a	n/a	n/a	n/a	n/a	n/a
3796604	REC_WORD_VV	wordpools/wasnorm_wordpool_less_exclusions.txt	LTP239	ltpFR	1	16	n/a	<>	-1	n/a	n/a	n/a	n/a	n/a	n/a	n/a
3797604	REC_WORD_VV	wordpools/wasnorm_wordpool_less_exclusions.txt	LTP239	ltpFR	1	16	n/a	<>	-1	n/a	n/a	n/a	n/a	n/a	n/a	n/a
3798604	REC_WORD_VV	wordpools/wasnorm_wordpool_less_exclusions.txt	LTP239	ltpFR	1	16	n/a	<>	-1	n/a	n/a	n/a	n/a	n/a	n/a	n/a
3799604	REC_WORD_VV	wordpools/wasnorm_wordpool_less_exclusions.txt	LTP239	ltpFR	1	16	n/a	<>	-1	n/a	n/a	n/a	n/a	n/a	n/a	n/a
3803954	REC_WORD_VV	wordpools/wasnorm_wordpool_less_exclusions.txt	LTP239	ltpFR	1	16	n/a	<>	-1	n/a	n/a	n/a	n/a	n/a	n/a	n/a
3804954	REC_WORD_VV	wordpools/wasnorm_wordpool_less_exclusions.txt	LTP239	ltpFR	1	16	n/a	<>	-1	n/a	n/a	n/a	n/a	n/a	n/a	n/a
3805954	REC_WORD_VV	wordpools/wasnorm_wordpool_less_exclusions.txt	LTP239	ltpFR	1	16	n/a	<>	-1	n/a	n/a	n/a	n/a	n/a	n/a	n/a
3806954	REC_WORD_VV	wordpools/wasnorm_wordpool_less_exclusions.txt	LTP239	ltpFR	1	16	n/a	<>	-1	n/a	n/a	n/a	n/a	n/a	n/a	n/a
3893525	REC_START	n/a	LTP239	ltpFR	1	n/a	n/a	n/a	n/a	n/a	n/a	n/a	n/a	n/a	n/a	n/a
3894717	FFR_REC_WORD	wordpools/wasnorm_wordpool_less_exclusions.txt	LTP239	ltpFR	1	n/a	0	METEOR	889	n/a	1	n/a	n/a	n/a	n/a	n/a
3895495	FFR_REC_WORD	wordpools/wasnorm_wordpool_less_exclusions.txt	LTP239	ltpFR	1	n/a	0	GALAXY	617	n/a	1	n/a	n/a	n/a	n/a	n/a
3896428	FFR_REC_WORD	wordpools/wasnorm_wordpool_less_exclusions.txt	LTP239	ltpFR	1	n/a	0	FIELD	562	n/a	1	n/a	n/a	n/a	n/a	n/a
3897346	FFR_REC_WORD	wordpools/wasnorm_wordpool_less_exclusions.txt	LTP239	ltpFR	1	n/a	1	MARSH	874	n/a	1	n/a	n/a	n/a	n/a	n/a
3898334	FFR_REC_WORD	wordpools/wasnorm_wordpool_less_exclusions.txt	LTP239	ltpFR	1	n/a	-1	VITAMIN	1574	n/a	-1	n/a	n/a	n/a	n/a	n/a
3900125	FFR_REC_WORD	wordpools/wasnorm_wordpool_less_exclusions.txt	LTP239	ltpFR	1	n/a	0	CAP	236	n/a	0	n/a	n/a	n/a	n/a	n/a
3900998	FFR_REC_WORD	wordpools/wasnorm_wordpool_less_exclusions.txt	LTP239	ltpFR	1	n/a	0	BEARD	107	n/a	0	n/a	n/a	n/a	n/a	n/a
3901896	FFR_REC_WORD	wordpools/wasnorm_wordpool_less_exclusions.txt	LTP239	ltpFR	1	n/a	0	TURNIP	1521	n/a	0	n/a	n/a	n/a	n/a	n/a
3905736	FFR_REC_WORD_VV	wordpools/wasnorm_wordpool_less_exclusions.txt	LTP239	ltpFR	1	n/a	n/a	<>	-1	n/a	n/a	n/a	n/a	n/a	n/a	n/a
3910107	FFR_REC_WORD	wordpools/wasnorm_wordpool_less_exclusions.txt	LTP239	ltpFR	1	n/a	-1	FENCE	560	n/a	-1	n/a	n/a	n/a	n/a	n/a
3913245	FFR_REC_WORD	wordpools/wasnorm_wordpool_less_exclusions.txt	LTP239	ltpFR	1	n/a	0	FURNITURE	616	n/a	1	n/a	n/a	n/a	n/a	n/a
3914752	FFR_REC_WORD	wordpools/wasnorm_wordpool_less_exclusions.txt	LTP239	ltpFR	1	n/a	0	COUCH	386	n/a	1	n/a	n/a	n/a	n/a	n/a
3917615	FFR_REC_WORD	wordpools/wasnorm_wordpool_less_exclusions.txt	LTP239	ltpFR	1	n/a	1	HOUSE	725	n/a	0	n/a	n/a	n/a	n/a	n/a
3920099	FFR_REC_WORD	wordpools/wasnorm_wordpool_less_exclusions.txt	LTP239	ltpFR	1	n/a	1	FLESH	579	n/a	1	n/a	n/a	n/a	n/a	n/a
3921840	FFR_REC_WORD	wordpools/wasnorm_wordpool_less_exclusions.txt	LTP239	ltpFR	1	n/a	1	ANT	25	n/a	1	n/a	n/a	n/a	n/a	n/a
3925702	FFR_REC_WORD	wordpools/wasnorm_wordpool_less_exclusions.txt	LTP239	ltpFR	1	n/a	-1	BOUQUET	157	n/a	-1	n/a	n/a	n/a	n/a	n/a
3926874	FFR_REC_WORD	wordpools/wasnorm_wordpool_less_exclusions.txt	LTP239	ltpFR	1	n/a	1	BOUILLON	154	n/a	0	n/a	n/a	n/a	n/a	n/a
3933753	FFR_REC_WORD	wordpools/wasnorm_wordpool_less_exclusions.txt	LTP239	ltpFR	1	n/a	n/a	PAGE	1001	n/a	n/a	n/a	n/a	n/a	n/a	n/a
3935050	FFR_REC_WORD	wordpools/wasnorm_wordpool_less_exclusions.txt	LTP239	ltpFR	1	n/a	0	NOTE	958	n/a	0	n/a	n/a	n/a	n/a	n/a
3936228	FFR_REC_WORD	wordpools/wasnorm_wordpool_less_exclusions.txt	LTP239	ltpFR	1	n/a	0	DIARY	460	n/a	0	n/a	n/a	n/a	n/a	n/a
3937515	FFR_REC_WORD	wordpools/wasnorm_wordpool_less_exclusions.txt	LTP239	ltpFR	1	n/a	0	BIBLE	124	n/a	0	n/a	n/a	n/a	n/a	n/a
3946654	FFR_REC_WORD	wordpools/wasnorm_wordpool_less_exclusions.txt	LTP239	ltpFR	1	n/a	1	BRIEFCASE	175	n/a	0	n/a	n/a	n/a	n/a	n/a
3951628	FFR_REC_WORD	wordpools/wasnorm_wordpool_less_exclusions.txt	LTP239	ltpFR	1	n/a	-1	CAKE	219	n/a	-1	n/a	n/a	n/a	n/a	n/a
3953638	FFR_REC_WORD	wordpools/wasnorm_wordpool_less_exclusions.txt	LTP239	ltpFR	1	n/a	n/a	PERSON	1052	n/a	n/a	n/a	n/a	n/a	n/a	n/a
3955389	FFR_REC_WORD	wordpools/wasnorm_wordpool_less_exclusions.txt	LTP239	ltpFR	1	n/a	1	NEPHEW	942	n/a	1	n/a	n/a	n/a	n/a	n/a
3956357	FFR_REC_WORD	wordpools/wasnorm_wordpool_less_exclusions.txt	LTP239	ltpFR	1	n/a	1	MANAGER	863	n/a	1	n/a	n/a	n/a	n/a	n/a
3957424	FFR_REC_WORD	wordpools/wasnorm_wordpool_less_exclusions.txt	LTP239	ltpFR	1	n/a	1	JURY	766	n/a	1	n/a	n/a	n/a	n/a	n/a
3958737	FFR_REC_WORD	wordpools/wasnorm_wordpool_less_exclusions.txt	LTP239	ltpFR	1	n/a	n/a	JUDGE	761	n/a	n/a	n/a	n/a	n/a	n/a	n/a
3960592	FFR_REC_WORD	wordpools/wasnorm_wordpool_less_exclusions.txt	LTP239	ltpFR	1	n/a	1	CHAIRPERSON	275	n/a	1	n/a	n/a	n/a	n/a	n/a
3970560	FFR_REC_WORD	wordpools/wasnorm_wordpool_less_exclusions.txt	LTP239	ltpFR	1	n/a	1	ROSE	1212	n/a	1	n/a	n/a	n/a	n/a	n/a
3979539	FFR_REC_WORD	wordpools/wasnorm_wordpool_less_exclusions.txt	LTP239	ltpFR	1	n/a	0	LIME	823	n/a	0	n/a	n/a	n/a	n/a	n/a
3981714	FFR_REC_WORD	wordpools/wasnorm_wordpool_less_exclusions.txt	LTP239	ltpFR	1	n/a	1	KEY	773	n/a	0	n/a	n/a	n/a	n/a	n/a
3991976	FFR_REC_WORD	wordpools/wasnorm_wordpool_less_exclusions.txt	LTP239	ltpFR	1	n/a	0	HOSE	720	n/a	1	n/a	n/a	n/a	n/a	n/a
3995078	FFR_REC_WORD_VV	wordpools/wasnorm_wordpool_less_exclusions.txt	LTP239	ltpFR	1	n/a	n/a	<>	-1	n/a	n/a	n/a	n/a	n/a	n/a	n/a
3999758	FFR_REC_WORD	wordpools/wasnorm_wordpool_less_exclusions.txt	LTP239	ltpFR	1	n/a	-1	LION	827	n/a	-1	n/a	n/a	n/a	n/a	n/a
4002034	FFR_REC_WORD	wordpools/wasnorm_wordpool_less_exclusions.txt	LTP239	ltpFR	1	n/a	-1	FRIAR	605	n/a	-1	n/a	n/a	n/a	n/a	n/a
4013637	FFR_REC_WORD	wordpools/wasnorm_wordpool_less_exclusions.txt	LTP239	ltpFR	1	n/a	0	STADIUM	1364	n/a	1	n/a	n/a	n/a	n/a	n/a
4016949	FFR_REC_WORD	wordpools/wasnorm_wordpool_less_exclusions.txt	LTP239	ltpFR	1	n/a	-1	BOUQUET	157	n/a	-1	n/a	n/a	n/a	n/a	n/a
4024522	FFR_REC_WORD	wordpools/wasnorm_wordpool_less_exclusions.txt	LTP239	ltpFR	1	n/a	0	TRIANGLE	1504	n/a	0	n/a	n/a	n/a	n/a	n/a
4027021	FFR_REC_WORD	wordpools/wasnorm_wordpool_less_exclusions.txt	LTP239	ltpFR	1	n/a	1	RACCOON	1153	n/a	0	n/a	n/a	n/a	n/a	n/a
4031277	FFR_REC_WORD	wordpools/wasnorm_wordpool_less_exclusions.txt	LTP239	ltpFR	1	n/a	1	FOX	598	n/a	1	n/a	n/a	n/a	n/a	n/a
4066004	FFR_REC_WORD_VV	wordpools/wasnorm_wordpool_less_exclusions.txt	LTP239	ltpFR	1	n/a	n/a	<>	-1	n/a	n/a	n/a	n/a	n/a	n/a	n/a
4068377	FFR_REC_WORD_VV	wordpools/wasnorm_wordpool_less_exclusions.txt	LTP239	ltpFR	1	n/a	n/a	<>	-1	n/a	n/a	n/a	n/a	n/a	n/a	n/a
4079532	FFR_REC_WORD	wordpools/wasnorm_wordpool_less_exclusions.txt	LTP239	ltpFR	1	n/a	1	WRENCH	1625	n/a	0	n/a	n/a	n/a	n/a	n/a
4089684	FFR_REC_WORD	wordpools/wasnorm_wordpool_less_exclusions.txt	LTP239	ltpFR	1	n/a	1	ANKLE	24	n/a	1	n/a	n/a	n/a	n/a	n/a
4090966	FFR_REC_WORD	wordpools/wasnorm_wordpool_less_exclusions.txt	LTP239	ltpFR	1	n/a	1	TOE	1473	n/a	1	n/a	n/a	n/a	n/a	n/a
4092348	FFR_REC_WORD	wordpools/wasnorm_wordpool_less_exclusions.txt	LTP239	ltpFR	1	n/a	1	FLESH	579	n/a	1	n/a	n/a	n/a	n/a	n/a
4102605	FFR_REC_WORD	wordpools/wasnorm_wordpool_less_exclusions.txt	LTP239	ltpFR	1	n/a	1	MARSH	874	n/a	1	n/a	n/a	n/a	n/a	n/a
4112447	FFR_REC_WORD	wordpools/wasnorm_wordpool_less_exclusions.txt	LTP239	ltpFR	1	n/a	1	SALIVA	1226	n/a	0	n/a	n/a	n/a	n/a	n/a
4143661	FFR_REC_WORD	wordpools/wasnorm_wordpool_less_exclusions.txt	LTP239	ltpFR	1	n/a	-1	COMMITTEE	355	n/a	-1	n/a	n/a	n/a	n/a	n/a
4166150	FFR_REC_WORD	wordpools/wasnorm_wordpool_less_exclusions.txt	LTP239	ltpFR	1	n/a	-1	BATHTUB	100	n/a	-1	n/a	n/a	n/a	n/a	n/a
4167672	FFR_REC_WORD	wordpools/wasnorm_wordpool_less_exclusions.txt	LTP239	ltpFR	1	n/a	-1	KITCHEN	778	n/a	-1	n/a	n/a	n/a	n/a	n/a
4172825	FFR_REC_WORD	wordpools/wasnorm_wordpool_less_exclusions.txt	LTP239	ltpFR	1	n/a	1	SINK	1309	n/a	0	n/a	n/a	n/a	n/a	n/a
4173862	FFR_REC_WORD	wordpools/wasnorm_wordpool_less_exclusions.txt	LTP239	ltpFR	1	n/a	1	FAUCET	555	n/a	0	n/a	n/a	n/a	n/a	n/a
4278409	REC_START	n/a	LTP239	ltpFR	1	1	n/a	n/a	n/a	n/a	n/a	n/a	n/a	n/a	n/a	n/a
4278458	RECOG_TARGET	n/a	LTP239	ltpFR	1	1	0	CHEST	295	5	1	n/a	n/a	n/a	n/a	n/a
4279744	RECOG_RESP	n/a	LTP239	ltpFR	1	1	0	CHEST	295	n/a	1	n/a	n/a	n/a	n/a	n/a
4281172	RECOG_CONF	n/a	LTP239	ltpFR	1	1	0	CHEST	295	5	1	n/a	n/a	n/a	n/a	n/a
4282740	RECOG_TARGET	n/a	LTP239	ltpFR	1	1	1	SHEEP	1278	5	1	n/a	n/a	n/a	n/a	n/a
4283697	RECOG_RESP	n/a	LTP239	ltpFR	1	1	1	SHEEP	1278	n/a	1	n/a	n/a	n/a	n/a	n/a
4284967	RECOG_CONF	n/a	LTP239	ltpFR	1	1	1	SHEEP	1278	5	1	n/a	n/a	n/a	n/a	n/a
4286539	RECOG_TARGET	n/a	LTP239	ltpFR	1	1	1	SHELTER	1282	5	0	n/a	n/a	n/a	n/a	n/a
4287315	RECOG_RESP	n/a	LTP239	ltpFR	1	1	1	SHELTER	1282	n/a	0	n/a	n/a	n/a	n/a	n/a
4288118	RECOG_CONF	n/a	LTP239	ltpFR	1	1	1	SHELTER	1282	5	0	n/a	n/a	n/a	n/a	n/a
4289717	RECOG_TARGET	n/a	LTP239	ltpFR	1	1	1	CHICKEN	297	5	1	n/a	n/a	n/a	n/a	n/a
4290712	RECOG_RESP	n/a	LTP239	ltpFR	1	1	1	CHICKEN	297	n/a	1	n/a	n/a	n/a	n/a	n/a
4291603	RECOG_CONF	n/a	LTP239	ltpFR	1	1	1	CHICKEN	297	5	1	n/a	n/a	n/a	n/a	n/a
4293080	RECOG_TARGET	n/a	LTP239	ltpFR	1	1	0	TURKEY	1520	5	1	n/a	n/a	n/a	n/a	n/a
4294075	RECOG_RESP	n/a	LTP239	ltpFR	1	1	0	TURKEY	1520	n/a	1	n/a	n/a	n/a	n/a	n/a
4295226	RECOG_CONF	n/a	LTP239	ltpFR	1	1	0	TURKEY	1520	5	1	n/a	n/a	n/a	n/a	n/a
4296794	RECOG_LURE	n/a	LTP239	ltpFR	1	1	n/a	GAZELLE	628	4	n/a	n/a	n/a	n/a	n/a	n/a
4297658	RECOG_RESP	n/a	LTP239	ltpFR	1	1	n/a	GAZELLE	628	n/a	n/a	n/a	n/a	n/a	n/a	n/a
4298568	RECOG_CONF	n/a	LTP239	ltpFR	1	1	n/a	GAZELLE	628	4	n/a	n/a	n/a	n/a	n/a	n/a
4300123	RECOG_TARGET	n/a	LTP239	ltpFR	1	1	1	ESCALATOR	539	5	0	n/a	n/a	n/a	n/a	n/a
4301306	RECOG_RESP	n/a	LTP239	ltpFR	1	1	1	ESCALATOR	539	n/a	0	n/a	n/a	n/a	n/a	n/a
4302292	RECOG_CONF	n/a	LTP239	ltpFR	1	1	1	ESCALATOR	539	5	0	n/a	n/a	n/a	n/a	n/a
4304038	RECOG_TARGET	n/a	LTP239	ltpFR	1	1	0	PASTRY	1022	5	0	n/a	n/a	n/a	n/a	n/a
4305004	RECOG_RESP	n/a	LTP239	ltpFR	1	1	0	PASTRY	1022	n/a	0	n/a	n/a	n/a	n/a	n/a
4305731	RECOG_CONF	n/a	LTP239	ltpFR	1	1	0	PASTRY	1022	5	0	n/a	n/a	n/a	n/a	n/a
4307400	RECOG_TARGET	n/a	LTP239	ltpFR	1	1	-1	ELECTRICIAN	521	5	-1	n/a	n/a	n/a	n/a	n/a
4308402	RECOG_RESP	n/a	LTP239	ltpFR	1	1	-1	ELECTRICIAN	521	n/a	-1	n/a	n/a	n/a	n/a	n/a
4309103	RECOG_CONF	n/a	LTP239	ltpFR	1	1	-1	ELECTRICIAN	521	5	-1	n/a	n/a	n/a	n/a	n/a
4310797	RECOG_LURE	n/a	LTP239	ltpFR	1	1	n/a	CALF	222	4	n/a	n/a	n/a	n/a	n/a	n/a
4311861	RECOG_RESP	n/a	LTP239	ltpFR	1	1	n/a	CALF	222	n/a	n/a	n/a	n/a	n/a	n/a	n/a
4312528	RECOG_CONF	n/a	LTP239	ltpFR	1	1	n/a	CALF	222	4	n/a	n/a	n/a	n/a	n/a	n/a
4314025	RECOG_LURE	n/a	LTP239	ltpFR	1	1	n/a	NUN	962	3	n/a	n/a	n/a	n/a	n/a	n/a
4315271	RECOG_RESP	n/a	LTP239	ltpFR	1	1	n/a	NUN	962	n/a	n/a	n/a	n/a	n/a	n/a	n/a
4316163	RECOG_CONF	n/a	LTP239	ltpFR	1	1	n/a	NUN	962	3	n/a	n/a	n/a	n/a	n/a	n/a
4317639	RECOG_TARGET	n/a	LTP239	ltpFR	1	1	1	SINK	1309	5	0	n/a	n/a	n/a	n/a	n/a
4318863	RECOG_RESP	n/a	LTP239	ltpFR	1	1	1	SINK	1309	n/a	0	n/a	n/a	n/a	n/a	n/a
4319577	RECOG_CONF	n/a	LTP239	ltpFR	1	1	1	SINK	1309	5	0	n/a	n/a	n/a	n/a	n/a
4320985	RECOG_TARGET	n/a	LTP239	ltpFR	1	1	-1	TUNA	1518	5	-1	n/a	n/a	n/a	n/a	n/a
4321836	RECOG_RESP	n/a	LTP239	ltpFR	1	1	-1	TUNA	1518	n/a	-1	n/a	n/a	n/a	n/a	n/a
4322434	RECOG_CONF	n/a	LTP239	ltpFR	1	1	-1	TUNA	1518	5	-1	n/a	n/a	n/a	n/a	n/a
4324012	RECOG_TARGET	n/a	LTP239	ltpFR	1	1	0	EAGLE	512	5	1	n/a	n/a	n/a	n/a	n/a
4324804	RECOG_RESP	n/a	LTP239	ltpFR	1	1	0	EAGLE	512	n/a	1	n/a	n/a	n/a	n/a	n/a
4325428	RECOG_CONF	n/a	LTP239	ltpFR	1	1	0	EAGLE	512	5	1	n/a	n/a	n/a	n/a	n/a
4326606	RECOG_TARGET	n/a	LTP239	ltpFR	1	1	1	RAKE	1164	5	0	n/a	n/a	n/a	n/a	n/a
4327422	RECOG_RESP	n/a	LTP239	ltpFR	1	1	1	RAKE	1164	n/a	0	n/a	n/a	n/a	n/a	n/a
4328229	RECOG_CONF	n/a	LTP239	ltpFR	1	1	1	RAKE	1164	5	0	n/a	n/a	n/a	n/a	n/a
4329852	RECOG_LURE	n/a	LTP239	ltpFR	1	1	n/a	BUBBLE	183	4	n/a	n/a	n/a	n/a	n/a	n/a
4330704	RECOG_RESP	n/a	LTP239	ltpFR	1	1	n/a	BUBBLE	183	n/a	n/a	n/a	n/a	n/a	n/a	n/a
4331623	RECOG_CONF	n/a	LTP239	ltpFR	1	1	n/a	BUBBLE	183	4	n/a	n/a	n/a	n/a	n/a	n/a
4332964	RECOG_TARGET	n/a	LTP239	ltpFR	1	1	1	BEVERAGE	123	4	0	n/a	n/a	n/a	n/a	n/a
4334037	RECOG_RESP	n/a	LTP239	ltpFR	1	1	1	BEVERAGE	123	n/a	0	n/a	n/a	n/a	n/a	n/a
4334858	RECOG_CONF	n/a	LTP239	ltpFR	1	1	1	BEVERAGE	123	4	0	n/a	n/a	n/a	n/a	n/a
4336210	RECOG_TARGET	n/a	LTP239	ltpFR	1	1	-1	STRANGER	1389	5	-1	n/a	n/a	n/a	n/a	n/a
4337597	RECOG_RESP	n/a	LTP239	ltpFR	1	1	-1	STRANGER	1389	n/a	-1	n/a	n/a	n/a	n/a	n/a
4338461	RECOG_CONF	n/a	LTP239	ltpFR	1	1	-1	STRANGER	1389	5	-1	n/a	n/a	n/a	n/a	n/a
4339973	RECOG_TARGET	n/a	LTP239	ltpFR	1	1	1	FLESH	579	5	1	n/a	n/a	n/a	n/a	n/a
4340668	RECOG_RESP	n/a	LTP239	ltpFR	1	1	1	FLESH	579	n/a	1	n/a	n/a	n/a	n/a	n/a
4341358	RECOG_CONF	n/a	LTP239	ltpFR	1	1	1	FLESH	579	5	1	n/a	n/a	n/a	n/a	n/a
4343018	RECOG_TARGET	n/a	LTP239	ltpFR	1	1	-1	FRIAR	605	5	-1	n/a	n/a	n/a	n/a	n/a
4343767	RECOG_RESP	n/a	LTP239	ltpFR	1	1	-1	FRIAR	605	n/a	-1	n/a	n/a	n/a	n/a	n/a
4344391	RECOG_CONF	n/a	LTP239	ltpFR	1	1	-1	FRIAR	605	5	-1	n/a	n/a	n/a	n/a	n/a
4349985	REC_START	n/a	LTP239	ltpFR	1	2	n/a	n/a	n/a	n/a	n/a	n/a	n/a	n/a	n/a	n/a
4350028	RECOG_TARGET	n/a	LTP239	ltpFR	1	2	1	PLANET	1082	5	1	n/a	n/a	n/a	n/a	n/a
4352481	RECOG_RESP	n/a	LTP239	ltpFR	1	2	1	PLANET	1082	n/a	1	n/a	n/a	n/a	n/a	n/a
4353232	RECOG_CONF	n/a	LTP239	ltpFR	1	2	1	PLANET	1082	5	1	n/a	n/a	n/a	n/a	n/a
4354744	RECOG_TARGET	n/a	LTP239	ltpFR	1	2	0	BEARD	107	5	0	n/a	n/a	n/a	n/a	n/a
4355580	RECOG_RESP	n/a	LTP239	ltpFR	1	2	0	BEARD	107	n/a	0	n/a	n/a	n/a	n/a	n/a
4356395	RECOG_CONF	n/a	LTP239	ltpFR	1	2	0	BEARD	107	5	0	n/a	n/a	n/a	n/a	n/a
4358025	RECOG_LURE	n/a	LTP239	ltpFR	1	2	n/a	SAGE	1222	5	n/a	n/a	n/a	n/a	n/a	n/a
4359020	RECOG_RESP	n/a	LTP239	ltpFR	1	2	n/a	SAGE	1222	n/a	n/a	n/a	n/a	n/a	n/a	n/a
4359822	RECOG_CONF	n/a	LTP239	ltpFR	1	2	n/a	SAGE	1222	5	n/a	n/a	n/a	n/a	n/a	n/a
4361387	RECOG_TARGET	n/a	LTP239	ltpFR	1	2	0	LITERATURE	831	5	1	n/a	n/a	n/a	n/a	n/a
4363070	RECOG_RESP	n/a	LTP239	ltpFR	1	2	0	LITERATURE	831	n/a	1	n/a	n/a	n/a	n/a	n/a
4363912	RECOG_CONF	n/a	LTP239	ltpFR	1	2	0	LITERATURE	831	5	1	n/a	n/a	n/a	n/a	n/a
4365486	RECOG_TARGET	n/a	LTP239	ltpFR	1	2	1	MOSQUITO	917	5	1	n/a	n/a	n/a	n/a	n/a
4366674	RECOG_RESP	n/a	LTP239	ltpFR	1	2	1	MOSQUITO	917	n/a	1	n/a	n/a	n/a	n/a	n/a
4367507	RECOG_CONF	n/a	LTP239	ltpFR	1	2	1	MOSQUITO	917	5	1	n/a	n/a	n/a	n/a	n/a
4369251	RECOG_TARGET	n/a	LTP239	ltpFR	1	2	-1	BRIDGE	174	5	-1	n/a	n/a	n/a	n/a	n/a
4370307	RECOG_RESP	n/a	LTP239	ltpFR	1	2	-1	BRIDGE	174	n/a	-1	n/a	n/a	n/a	n/a	n/a
4371077	RECOG_CONF	n/a	LTP239	ltpFR	1	2	-1	BRIDGE	174	5	-1	n/a	n/a	n/a	n/a	n/a
4372613	RECOG_TARGET	n/a	LTP239	ltpFR	1	2	-1	BATHTUB	100	5	-1	n/a	n/a	n/a	n/a	n/a
4373305	RECOG_RESP	n/a	LTP239	ltpFR	1	2	-1	BATHTUB	100	n/a	-1	n/a	n/a	n/a	n/a	n/a
4374002	RECOG_CONF	n/a	LTP239	ltpFR	1	2	-1	BATHTUB	100	5	-1	n/a	n/a	n/a	n/a	n/a
4375691	RECOG_LURE	n/a	LTP239	ltpFR	1	2	n/a	GOWN	652	5	n/a	n/a	n/a	n/a	n/a	n/a
4376383	RECOG_RESP	n/a	LTP239	ltpFR	1	2	n/a	GOWN	652	n/a	n/a	n/a	n/a	n/a	n/a	n/a
4377184	RECOG_CONF	n/a	LTP239	ltpFR	1	2	n/a	GOWN	652	5	n/a	n/a	n/a	n/a	n/a	n/a
4378820	RECOG_TARGET	n/a	LTP239	ltpFR	1	2	0	LIME	823	5	0	n/a	n/a	n/a	n/a	n/a
4379561	RECOG_RESP	n/a	LTP239	ltpFR	1	2	0	LIME	823	n/a	0	n/a	n/a	n/a	n/a	n/a
4380330	RECOG_CONF	n/a	LTP239	ltpFR	1	2	0	LIME	823	5	0	n/a	n/a	n/a	n/a	n/a
4382048	RECOG_TARGET	n/a	LTP239	ltpFR	1	2	1	GANG	619	3	1	n/a	n/a	n/a	n/a	n/a
4383495	RECOG_RESP	n/a	LTP239	ltpFR	1	2	1	GANG	619	n/a	1	n/a	n/a	n/a	n/a	n/a
4384476	RECOG_CONF	n/a	LTP239	ltpFR	1	2	1	GANG	619	3	1	n/a	n/a	n/a	n/a	n/a
4385846	RECOG_LURE	n/a	LTP239	ltpFR	1	2	n/a	GIRL	637	1	n/a	n/a	n/a	n/a	n/a	n/a
4387551	RECOG_RESP	n/a	LTP239	ltpFR	1	2	n/a	GIRL	637	n/a	n/a	n/a	n/a	n/a	n/a	n/a
4389843	RECOG_CONF	n/a	LTP239	ltpFR	1	2	n/a	GIRL	637	1	n/a	n/a	n/a	n/a	n/a	n/a
4391351	RECOG_TARGET	n/a	LTP239	ltpFR	1	2	-1	KEEPER	769	4	-1	n/a	n/a	n/a	n/a	n/a
4392490	RECOG_RESP	n/a	LTP239	ltpFR	1	2	-1	KEEPER	769	n/a	-1	n/a	n/a	n/a	n/a	n/a
4393675	RECOG_CONF	n/a	LTP239	ltpFR	1	2	-1	KEEPER	769	4	-1	n/a	n/a	n/a	n/a	n/a
4395131	RECOG_TARGET	n/a	LTP239	ltpFR	1	2	0	COUCH	386	5	1	n/a	n/a	n/a	n/a	n/a
4395978	RECOG_RESP	n/a	LTP239	ltpFR	1	2	0	COUCH	386	n/a	1	n/a	n/a	n/a	n/a	n/a
4396679	RECOG_CONF	n/a	LTP239	ltpFR	1	2	0	COUCH	386	5	1	n/a	n/a	n/a	n/a	n/a
4398327	RECOG_TARGET	n/a	LTP239	ltpFR	1	2	1	SCOTCH	1251	5	0	n/a	n/a	n/a	n/a	n/a
4399972	RECOG_RESP	n/a	LTP239	ltpFR	1	2	1	SCOTCH	1251	n/a	0	n/a	n/a	n/a	n/a	n/a
4400766	RECOG_CONF	n/a	LTP239	ltpFR	1	2	1	SCOTCH	1251	5	0	n/a	n/a	n/a	n/a	n/a
4402626	RECOG_TARGET	n/a	LTP239	ltpFR	1	2	0	CAP	236	5	0	n/a	n/a	n/a	n/a	n/a
4403316	RECOG_RESP	n/a	LTP239	ltpFR	1	2	0	CAP	236	n/a	0	n/a	n/a	n/a	n/a	n/a
4404160	RECOG_CONF	n/a	LTP239	ltpFR	1	2	0	CAP	236	5	0	n/a	n/a	n/a	n/a	n/a
4405821	RECOG_TARGET	n/a	LTP239	ltpFR	1	2	0	ATTIC	56	5	1	n/a	n/a	n/a	n/a	n/a
4406672	RECOG_RESP	n/a	LTP239	ltpFR	1	2	0	ATTIC	56	n/a	1	n/a	n/a	n/a	n/a	n/a
4407492	RECOG_CONF	n/a	LTP239	ltpFR	1	2	0	ATTIC	56	5	1	n/a	n/a	n/a	n/a	n/a
4409336	RECOG_TARGET	n/a	LTP239	ltpFR	1	2	1	COOKIE	374	5	0	n/a	n/a	n/a	n/a	n/a
4410324	RECOG_RESP	n/a	LTP239	ltpFR	1	2	1	COOKIE	374	n/a	0	n/a	n/a	n/a	n/a	n/a
4411117	RECOG_CONF	n/a	LTP239	ltpFR	1	2	1	COOKIE	374	5	0	n/a	n/a	n/a	n/a	n/a
4412881	RECOG_TARGET	n/a	LTP239	ltpFR	1	2	-1	COIN	343	5	-1	n/a	n/a	n/a	n/a	n/a
4413526	RECOG_RESP	n/a	LTP239	ltpFR	1	2	-1	COIN	343	n/a	-1	n/a	n/a	n/a	n/a	n/a
4414260	RECOG_CONF	n/a	LTP239	ltpFR	1	2	-1	COIN	343	5	-1	n/a	n/a	n/a	n/a	n/a
4415958	RECOG_TARGET	n/a	LTP239	ltpFR	1	2	0	POT	1114	5	0	n/a	n/a	n/a	n/a	n/a
4416648	RECOG_RESP	n/a	LTP239	ltpFR	1	2	0	POT	1114	n/a	0	n/a	n/a	n/a	n/a	n/a
4417476	RECOG_CONF	n/a	LTP239	ltpFR	1	2	0	POT	1114	5	0	n/a	n/a	n/a	n/a	n/a
4419205	RECOG_TARGET	n/a	LTP239	ltpFR	1	2	-1	TREASURE	1500	5	-1	n/a	n/a	n/a	n/a	n/a
4419861	RECOG_RESP	n/a	LTP239	ltpFR	1	2	-1	TREASURE	1500	n/a	-1	n/a	n/a	n/a	n/a	n/a
4420617	RECOG_CONF	n/a	LTP239	ltpFR	1	2	-1	TREASURE	1500	5	-1	n/a	n/a	n/a	n/a	n/a
4443930	REC_START	n/a	LTP239	ltpFR	1	3	n/a	n/a	n/a	n/a	n/a	n/a	n/a	n/a	n/a	n/a
4443982	RECOG_TARGET	n/a	LTP239	ltpFR	1	3	0	KNAPSACK	783	5	1	n/a	n/a	n/a	n/a	n/a
4445137	RECOG_RESP	n/a	LTP239	ltpFR	1	3	0	KNAPSACK	783	n/a	1	n/a	n/a	n/a	n/a	n/a
4446489	RECOG_CONF	n/a	LTP239	ltpFR	1	3	0	KNAPSACK	783	5	1	n/a	n/a	n/a	n/a	n/a
4448349	RECOG_LURE	n/a	LTP239	ltpFR	1	3	n/a	BALLERINA	74	5	n/a	n/a	n/a	n/a	n/a	n/a
4449297	RECOG_RESP	n/a	LTP239	ltpFR	1	3	n/a	BALLERINA	74	n/a	n/a	n/a	n/a	n/a	n/a	n/a
4450246	RECOG_CONF	n/a	LTP239	ltpFR	1	3	n/a	BALLERINA	74	5	n/a	n/a	n/a	n/a	n/a	n/a
4451979	RECOG_TARGET	n/a	LTP239	ltpFR	1	3	1	CARPENTER	246	5	1	n/a	n/a	n/a	n/a	n/a
4452926	RECOG_RESP	n/a	LTP239	ltpFR	1	3	1	CARPENTER	246	n/a	1	n/a	n/a	n/a	n/a	n/a
4453967	RECOG_CONF	n/a	LTP239	ltpFR	1	3	1	CARPENTER	246	5	1	n/a	n/a	n/a	n/a	n/a
4455574	RECOG_TARGET	n/a	LTP239	ltpFR	1	3	0	LAWN	805	5	1	n/a	n/a	n/a	n/a	n/a
4457029	RECOG_RESP	n/a	LTP239	ltpFR	1	3	0	LAWN	805	n/a	1	n/a	n/a	n/a	n/a	n/a
4458026	RECOG_CONF	n/a	LTP239	ltpFR	1	3	0	LAWN	805	5	1	n/a	n/a	n/a	n/a	n/a
4459758	RECOG_TARGET	n/a	LTP239	ltpFR	1	3	0	FORK	594	5	0	n/a	n/a	n/a	n/a	n/a
4460945	RECOG_RESP	n/a	LTP239	ltpFR	1	3	0	FORK	594	n/a	0	n/a	n/a	n/a	n/a	n/a
4461897	RECOG_CONF	n/a	LTP239	ltpFR	1	3	0	FORK	594	5	0	n/a	n/a	n/a	n/a	n/a
4463538	RECOG_TARGET	n/a	LTP239	ltpFR	1	3	0	BIRD	129	5	0	n/a	n/a	n/a	n/a	n/a
4465278	RECOG_RESP	n/a	LTP239	ltpFR	1	3	0	BIRD	129	n/a	0	n/a	n/a	n/a	n/a	n/a
4466095	RECOG_CONF	n/a	LTP239	ltpFR	1	3	0	BIRD	129	5	0	n/a	n/a	n/a	n/a	n/a
4467839	RECOG_TARGET	n/a	LTP239	ltpFR	1	3	0	POTATO	1115	5	0	n/a	n/a	n/a	n/a	n/a
4469213	RECOG_RESP	n/a	LTP239	ltpFR	1	3	0	POTATO	1115	n/a	0	n/a	n/a	n/a	n/a	n/a
4469974	RECOG_CONF	n/a	LTP239	ltpFR	1	3	0	POTATO	1115	5	0	n/a	n/a	n/a	n/a	n/a
4471736	RECOG_TARGET	n/a	LTP239	ltpFR	1	3	0	RECIPE	1175	5	0	n/a	n/a	n/a	n/a	n/a
4472887	RECOG_RESP	n/a	LTP239	ltpFR	1	3	0	RECIPE	1175	n/a	0	n/a	n/a	n/a	n/a	n/a
4473987	RECOG_CONF	n/a	LTP239	ltpFR	1	3	0	RECIPE	1175	5	0	n/a	n/a	n/a	n/a	n/a
4475635	RECOG_TARGET	n/a	LTP239	ltpFR	1	3	-1	BERRY	122	5	-1	n/a	n/a	n/a	n/a	n/a
4476321	RECOG_RESP	n/a	LTP239	ltpFR	1	3	-1	BERRY	122	n/a	-1	n/a	n/a	n/a	n/a	n/a
4477226	RECOG_CONF	n/a	LTP239	ltpFR	1	3	-1	BERRY	122	5	-1	n/a	n/a	n/a	n/a	n/a
4478830	RECOG_LURE	n/a	LTP239	ltpFR	1	3	n/a	TRANSPLANT	1496	4	n/a	n/a	n/a	n/a	n/a	n/a
4480503	RECOG_RESP	n/a	LTP239	ltpFR	1	3	n/a	TRANSPLANT	1496	n/a	n/a	n/a	n/a	n/a	n/a	n/a
4481659	RECOG_CONF	n/a	LTP239	ltpFR	1	3	n/a	TRANSPLANT	1496	4	n/a	n/a	n/a	n/a	n/a	n/a
4482962	RECOG_LURE	n/a	LTP239	ltpFR	1	3	n/a	LOVER	846	5	n/a	n/a	n/a	n/a	n/a	n/a
4484005	RECOG_RESP	n/a	LTP239	ltpFR	1	3	n/a	LOVER	846	n/a	n/a	n/a	n/a	n/a	n/a	n/a
4484785	RECOG_CONF	n/a	LTP239	ltpFR	1	3	n/a	LOVER	846	5	n/a	n/a	n/a	n/a	n/a	n/a
4486258	RECOG_LURE	n/a	LTP239	ltpFR	1	3	n/a	SNAIL	1332	3	n/a	n/a	n/a	n/a	n/a	n/a
4487974	RECOG_RESP	n/a	LTP239	ltpFR	1	3	n/a	SNAIL	1332	n/a	n/a	n/a	n/a	n/a	n/a	n/a
4488987	RECOG_CONF	n/a	LTP239	ltpFR	1	3	n/a	SNAIL	1332	3	n/a	n/a	n/a	n/a	n/a	n/a
4490658	RECOG_TARGET	n/a	LTP239	ltpFR	1	3	0	CHIME	300	3	1	n/a	n/a	n/a	n/a	n/a
4492922	RECOG_RESP	n/a	LTP239	ltpFR	1	3	0	CHIME	300	n/a	1	n/a	n/a	n/a	n/a	n/a
4494570	RECOG_CONF	n/a	LTP239	ltpFR	1	3	0	CHIME	300	3	1	n/a	n/a	n/a	n/a	n/a
4496230	RECOG_TARGET	n/a	LTP239	ltpFR	1	3	1	ROSE	1212	3	1	n/a	n/a	n/a	n/a	n/a
4497031	RECOG_RESP	n/a	LTP239	ltpFR	1	3	1	ROSE	1212	n/a	1	n/a	n/a	n/a	n/a	n/a
4498110	RECOG_CONF	n/a	LTP239	ltpFR	1	3	1	ROSE	1212	3	1	n/a	n/a	n/a	n/a	n/a
4500127	RECOG_TARGET	n/a	LTP239	ltpFR	1	3	-1	COYOTE	396	5	-1	n/a	n/a	n/a	n/a	n/a
4500978	RECOG_RESP	n/a	LTP239	ltpFR	1	3	-1	COYOTE	396	n/a	-1	n/a	n/a	n/a	n/a	n/a
4501663	RECOG_CONF	n/a	LTP239	ltpFR	1	3	-1	COYOTE	396	5	-1	n/a	n/a	n/a	n/a	n/a
4503256	RECOG_LURE	n/a	LTP239	ltpFR	1	3	n/a	GOBLIN	645	5	n/a	n/a	n/a	n/a	n/a	n/a
4504287	RECOG_RESP	n/a	LTP239	ltpFR	1	3	n/a	GOBLIN	645	n/a	n/a	n/a	n/a	n/a	n/a	n/a
4505146	RECOG_CONF	n/a	LTP239	ltpFR	1	3	n/a	GOBLIN	645	5	n/a	n/a	n/a	n/a	n/a	n/a
4506518	RECOG_LURE	n/a	LTP239	ltpFR	1	3	n/a	WHIP	1604	5	n/a	n/a	n/a	n/a	n/a	n/a
4507814	RECOG_RESP	n/a	LTP239	ltpFR	1	3	n/a	WHIP	1604	n/a	n/a	n/a	n/a	n/a	n/a	n/a
4508623	RECOG_CONF	n/a	LTP239	ltpFR	1	3	n/a	WHIP	1604	5	n/a	n/a	n/a	n/a	n/a	n/a
4510283	RECOG_TARGET	n/a	LTP239	ltpFR	1	3	0	WAND	1586	4	0	n/a	n/a	n/a	n/a	n/a
4511120	RECOG_RESP	n/a	LTP239	ltpFR	1	3	0	WAND	1586	n/a	0	n/a	n/a	n/a	n/a	n/a
4512090	RECOG_CONF	n/a	LTP239	ltpFR	1	3	0	WAND	1586	4	0	n/a	n/a	n/a	n/a	n/a
4513795	RECOG_TARGET	n/a	LTP239	ltpFR	1	3	1	FOLLOWER	589	4	1	n/a	n/a	n/a	n/a	n/a
4515035	RECOG_RESP	n/a	LTP239	ltpFR	1	3	1	FOLLOWER	589	n/a	1	n/a	n/a	n/a	n/a	n/a
4516086	RECOG_CONF	n/a	LTP239	ltpFR	1	3	1	FOLLOWER	589	4	1	n/a	n/a	n/a	n/a	n/a
4517877	RECOG_TARGET	n/a	LTP239	ltpFR	1	3	0	PAINTER	1004	3	1	n/a	n/a	n/a	n/a	n/a
4518951	RECOG_RESP	n/a	LTP239	ltpFR	1	3	0	PAINTER	1004	n/a	1	n/a	n/a	n/a	n/a	n/a
4520047	RECOG_CONF	n/a	LTP239	ltpFR	1	3	0	PAINTER	1004	3	1	n/a	n/a	n/a	n/a	n/a
4565870	REC_START	n/a	LTP239	ltpFR	1	4	n/a	n/a	n/a	n/a	n/a	n/a	n/a	n/a	n/a	n/a
4565925	RECOG_TARGET	n/a	LTP239	ltpFR	1	4	1	CROWN	415	3	0	n/a	n/a	n/a	n/a	n/a
4567577	RECOG_RESP	n/a	LTP239	ltpFR	1	4	1	CROWN	415	n/a	0	n/a	n/a	n/a	n/a	n/a
4569244	RECOG_CONF	n/a	LTP239	ltpFR	1	4	1	CROWN	415	3	0	n/a	n/a	n/a	n/a	n/a
4570827	RECOG_TARGET	n/a	LTP239	ltpFR	1	4	1	NEWSPAPER	948	3	0	n/a	n/a	n/a	n/a	n/a
4573101	RECOG_RESP	n/a	LTP239	ltpFR	1	4	1	NEWSPAPER	948	n/a	0	n/a	n/a	n/a	n/a	n/a
4574611	RECOG_CONF	n/a	LTP239	ltpFR	1	4	1	NEWSPAPER	948	3	0	n/a	n/a	n/a	n/a	n/a
4576215	RECOG_TARGET	n/a	LTP239	ltpFR	1	4	-1	GRIZZLY	662	5	-1	n/a	n/a	n/a	n/a	n/a
4577055	RECOG_RESP	n/a	LTP239	ltpFR	1	4	-1	GRIZZLY	662	n/a	-1	n/a	n/a	n/a	n/a	n/a
4578199	RECOG_CONF	n/a	LTP239	ltpFR	1	4	-1	GRIZZLY	662	5	-1	n/a	n/a	n/a	n/a	n/a
4579693	RECOG_LURE	n/a	LTP239	ltpFR	1	4	n/a	MOTHER	921	4	n/a	n/a	n/a	n/a	n/a	n/a
4580733	RECOG_RESP	n/a	LTP239	ltpFR	1	4	n/a	MOTHER	921	n/a	n/a	n/a	n/a	n/a	n/a	n/a
4581559	RECOG_CONF	n/a	LTP239	ltpFR	1	4	n/a	MOTHER	921	4	n/a	n/a	n/a	n/a	n/a	n/a
4583006	RECOG_LURE	n/a	LTP239	ltpFR	1	4	n/a	RADISH	1158	4	n/a	n/a	n/a	n/a	n/a	n/a
4584212	RECOG_RESP	n/a	LTP239	ltpFR	1	4	n/a	RADISH	1158	n/a	n/a	n/a	n/a	n/a	n/a	n/a
4585016	RECOG_CONF	n/a	LTP239	ltpFR	1	4	n/a	RADISH	1158	4	n/a	n/a	n/a	n/a	n/a	n/a
4586569	RECOG_LURE	n/a	LTP239	ltpFR	1	4	n/a	CARAVAN	242	5	n/a	n/a	n/a	n/a	n/a	n/a
4587448	RECOG_RESP	n/a	LTP239	ltpFR	1	4	n/a	CARAVAN	242	n/a	n/a	n/a	n/a	n/a	n/a	n/a
4588220	RECOG_CONF	n/a	LTP239	ltpFR	1	4	n/a	CARAVAN	242	5	n/a	n/a	n/a	n/a	n/a	n/a
4589765	RECOG_TARGET	n/a	LTP239	ltpFR	1	4	1	BLADE	134	5	0	n/a	n/a	n/a	n/a	n/a
4590646	RECOG_RESP	n/a	LTP239	ltpFR	1	4	1	BLADE	134	n/a	0	n/a	n/a	n/a	n/a	n/a
4591373	RECOG_CONF	n/a	LTP239	ltpFR	1	4	1	BLADE	134	5	0	n/a	n/a	n/a	n/a	n/a
4592943	RECOG_TARGET	n/a	LTP239	ltpFR	1	4	1	GIFT	635	4	0	n/a	n/a	n/a	n/a	n/a
4594118	RECOG_RESP	n/a	LTP239	ltpFR	1	4	1	GIFT	635	n/a	0	n/a	n/a	n/a	n/a	n/a
4594806	RECOG_CONF	n/a	LTP239	ltpFR	1	4	1	GIFT	635	4	0	n/a	n/a	n/a	n/a	n/a
4596290	RECOG_TARGET	n/a	LTP239	ltpFR	1	4	1	LADDER	793	5	0	n/a	n/a	n/a	n/a	n/a
4597519	RECOG_RESP	n/a	LTP239	ltpFR	1	4	1	LADDER	793	n/a	0	n/a	n/a	n/a	n/a	n/a
4598614	RECOG_CONF	n/a	LTP239	ltpFR	1	4	1	LADDER	793	5	0	n/a	n/a	n/a	n/a	n/a
4600204	RECOG_TARGET	n/a	LTP239	ltpFR	1	4	-1	SARDINE	1235	5	-1	n/a	n/a	n/a	n/a	n/a
4601096	RECOG_RESP	n/a	LTP239	ltpFR	1	4	-1	SARDINE	1235	n/a	-1	n/a	n/a	n/a	n/a	n/a
4602120	RECOG_CONF	n/a	LTP239	ltpFR	1	4	-1	SARDINE	1235	5	-1	n/a	n/a	n/a	n/a	n/a
4603818	RECOG_TARGET	n/a	LTP239	ltpFR	1	4	-1	BEE	112	5	-1	n/a	n/a	n/a	n/a	n/a
4604659	RECOG_RESP	n/a	LTP239	ltpFR	1	4	-1	BEE	112	n/a	-1	n/a	n/a	n/a	n/a	n/a
4605740	RECOG_CONF	n/a	LTP239	ltpFR	1	4	-1	BEE	112	5	-1	n/a	n/a	n/a	n/a	n/a
4607548	RECOG_LURE	n/a	LTP239	ltpFR	1	4	n/a	NOMAD	955	5	n/a	n/a	n/a	n/a	n/a	n/a
4608348	RECOG_RESP	n/a	LTP239	ltpFR	1	4	n/a	NOMAD	955	n/a	n/a	n/a	n/a	n/a	n/a	n/a
4609048	RECOG_CONF	n/a	LTP239	ltpFR	1	4	n/a	NOMAD	955	5	n/a	n/a	n/a	n/a	n/a	n/a
4610761	RECOG_TARGET	n/a	LTP239	ltpFR	1	4	1	TIGER	1467	4	1	n/a	n/a	n/a	n/a	n/a
4611601	RECOG_RESP	n/a	LTP239	ltpFR	1	4	1	TIGER	1467	n/a	1	n/a	n/a	n/a	n/a	n/a
4613312	RECOG_CONF	n/a	LTP239	ltpFR	1	4	1	TIGER	1467	4	1	n/a	n/a	n/a	n/a	n/a
4614993	RECOG_TARGET	n/a	LTP239	ltpFR	1	4	-1	LION	827	5	-1	n/a	n/a	n/a	n/a	n/a
4615764	RECOG_RESP	n/a	LTP239	ltpFR	1	4	-1	LION	827	n/a	-1	n/a	n/a	n/a	n/a	n/a
4616590	RECOG_CONF	n/a	LTP239	ltpFR	1	4	-1	LION	827	5	-1	n/a	n/a	n/a	n/a	n/a
4618273	RECOG_TARGET	n/a	LTP239	ltpFR	1	4	0	METEOR	889	5	1	n/a	n/a	n/a	n/a	n/a
4619009	RECOG_RESP	n/a	LTP239	ltpFR	1	4	0	METEOR	889	n/a	1	n/a	n/a	n/a	n/a	n/a
4619841	RECOG_CONF	n/a	LTP239	ltpFR	1	4	0	METEOR	889	5	1	n/a	n/a	n/a	n/a	n/a
4621401	RECOG_TARGET	n/a	LTP239	ltpFR	1	4	-1	FENCE	560	5	-1	n/a	n/a	n/a	n/a	n/a
4622123	RECOG_RESP	n/a	LTP239	ltpFR	1	4	-1	FENCE	560	n/a	-1	n/a	n/a	n/a	n/a	n/a
4622713	RECOG_CONF	n/a	LTP239	ltpFR	1	4	-1	FENCE	560	5	-1	n/a	n/a	n/a	n/a	n/a
4624427	RECOG_TARGET	n/a	LTP239	ltpFR	1	4	1	SUBURB	1399	5	0	n/a	n/a	n/a	n/a	n/a
4625238	RECOG_RESP	n/a	LTP239	ltpFR	1	4	1	SUBURB	1399	n/a	0	n/a	n/a	n/a	n/a	n/a
4625885	RECOG_CONF	n/a	LTP239	ltpFR	1	4	1	SUBURB	1399	5	0	n/a	n/a	n/a	n/a	n/a
4627489	RECOG_TARGET	n/a	LTP239	ltpFR	1	4	-1	MASCARA	875	5	-1	n/a	n/a	n/a	n/a	n/a
4628345	RECOG_RESP	n/a	LTP239	ltpFR	1	4	-1	MASCARA	875	n/a	-1	n/a	n/a	n/a	n/a	n/a
4629058	RECOG_CONF	n/a	LTP239	ltpFR	1	4	-1	MASCARA	875	5	-1	n/a	n/a	n/a	n/a	n/a
4630602	RECOG_TARGET	n/a	LTP239	ltpFR	1	4	1	SPARROW	1347	5	1	n/a	n/a	n/a	n/a	n/a
4631483	RECOG_RESP	n/a	LTP239	ltpFR	1	4	1	SPARROW	1347	n/a	1	n/a	n/a	n/a	n/a	n/a
4632084	RECOG_CONF	n/a	LTP239	ltpFR	1	4	1	SPARROW	1347	5	1	n/a	n/a	n/a	n/a	n/a
4633898	RECOG_TARGET	n/a	LTP239	ltpFR	1	4	-1	BACKBONE	66	5	-1	n/a	n/a	n/a	n/a	n/a
4634551	RECOG_RESP	n/a	LTP239	ltpFR	1	4	-1	BACKBONE	66	n/a	-1	n/a	n/a	n/a	n/a	n/a
4635194	RECOG_CONF	n/a	LTP239	ltpFR	1	4	-1	BACKBONE	66	5	-1	n/a	n/a	n/a	n/a	n/a
4661424	REC_START	n/a	LTP239	ltpFR	1	5	n/a	n/a	n/a	n/a	n/a	n/a	n/a	n/a	n/a	n/a
4661468	RECOG_LURE	n/a	LTP239	ltpFR	1	5	n/a	STAGE	1366	3	n/a	n/a	n/a	n/a	n/a	n/a
4662591	RECOG_RESP	n/a	LTP239	ltpFR	1	5	n/a	STAGE	1366	n/a	n/a	n/a	n/a	n/a	n/a	n/a
4663733	RECOG_CONF	n/a	LTP239	ltpFR	1	5	n/a	STAGE	1366	3	n/a	n/a	n/a	n/a	n/a	n/a
4665182	RECOG_LURE	n/a	LTP239	ltpFR	1	5	n/a	CANYON	235	4	n/a	n/a	n/a	n/a	n/a	n/a
4666263	RECOG_RESP	n/a	LTP239	ltpFR	1	5	n/a	CANYON	235	n/a	n/a	n/a	n/a	n/a	n/a	n/a
4667355	RECOG_CONF	n/a	LTP239	ltpFR	1	5	n/a	CANYON	235	4	n/a	n/a	n/a	n/a	n/a	n/a
4668878	RECOG_TARGET	n/a	LTP239	ltpFR	1	5	1	RAM	1165	4	1	n/a	n/a	n/a	n/a	n/a
4669583	RECOG_RESP	n/a	LTP239	ltpFR	1	5	1	RAM	1165	n/a	1	n/a	n/a	n/a	n/a	n/a
4670513	RECOG_CONF	n/a	LTP239	ltpFR	1	5	1	RAM	1165	4	1	n/a	n/a	n/a	n/a	n/a
4672159	RECOG_TARGET	n/a	LTP239	ltpFR	1	5	1	DWARF	510	5	1	n/a	n/a	n/a	n/a	n/a
4672997	RECOG_RESP	n/a	LTP239	ltpFR	1	5	1	DWARF	510	n/a	1	n/a	n/a	n/a	n/a	n/a
4673821	RECOG_CONF	n/a	LTP239	ltpFR	1	5	1	DWARF	510	5	1	n/a	n/a	n/a	n/a	n/a
4675271	RECOG_TARGET	n/a	LTP239	ltpFR	1	5	0	DINER	467	5	1	n/a	n/a	n/a	n/a	n/a
4675923	RECOG_RESP	n/a	LTP239	ltpFR	1	5	0	DINER	467	n/a	1	n/a	n/a	n/a	n/a	n/a
4676834	RECOG_CONF	n/a	LTP239	ltpFR	1	5	0	DINER	467	5	1	n/a	n/a	n/a	n/a	n/a
4678348	RECOG_TARGET	n/a	LTP239	ltpFR	1	5	1	WRENCH	1625	5	0	n/a	n/a	n/a	n/a	n/a
4678911	RECOG_RESP	n/a	LTP239	ltpFR	1	5	1	WRENCH	1625	n/a	0	n/a	n/a	n/a	n/a	n/a
4679542	RECOG_CONF	n/a	LTP239	ltpFR	1	5	1	WRENCH	1625	5	0	n/a	n/a	n/a	n/a	n/a
4681327	RECOG_LURE	n/a	LTP239	ltpFR	1	5	n/a	COMPANION	357	5	n/a	n/a	n/a	n/a	n/a	n/a
4682204	RECOG_RESP	n/a	LTP239	ltpFR	1	5	n/a	COMPANION	357	n/a	n/a	n/a	n/a	n/a	n/a	n/a
4683086	RECOG_CONF	n/a	LTP239	ltpFR	1	5	n/a	COMPANION	357	5	n/a	n/a	n/a	n/a	n/a	n/a
4684738	RECOG_TARGET	n/a	LTP239	ltpFR	1	5	-1	FRUIT	610	4	-1	n/a	n/a	n/a	n/a	n/a
4685775	RECOG_RESP	n/a	LTP239	ltpFR	1	5	-1	FRUIT	610	n/a	-1	n/a	n/a	n/a	n/a	n/a
4686951	RECOG_CONF	n/a	LTP239	ltpFR	1	5	-1	FRUIT	610	4	-1	n/a	n/a	n/a	n/a	n/a
4688570	RECOG_LURE	n/a	LTP239	ltpFR	1	5	n/a	CONCERT	360	4	n/a	n/a	n/a	n/a	n/a	n/a
4689428	RECOG_RESP	n/a	LTP239	ltpFR	1	5	n/a	CONCERT	360	n/a	n/a	n/a	n/a	n/a	n/a	n/a
4690298	RECOG_CONF	n/a	LTP239	ltpFR	1	5	n/a	CONCERT	360	4	n/a	n/a	n/a	n/a	n/a	n/a
4692050	RECOG_TARGET	n/a	LTP239	ltpFR	1	5	1	BRACELET	163	5	0	n/a	n/a	n/a	n/a	n/a
4692873	RECOG_RESP	n/a	LTP239	ltpFR	1	5	1	BRACELET	163	n/a	0	n/a	n/a	n/a	n/a	n/a
4693785	RECOG_CONF	n/a	LTP239	ltpFR	1	5	1	BRACELET	163	5	0	n/a	n/a	n/a	n/a	n/a
4695297	RECOG_LURE	n/a	LTP239	ltpFR	1	5	n/a	WARRIOR	1589	5	n/a	n/a	n/a	n/a	n/a	n/a
4696127	RECOG_RESP	n/a	LTP239	ltpFR	1	5	n/a	WARRIOR	1589	n/a	n/a	n/a	n/a	n/a	n/a	n/a
4696828	RECOG_CONF	n/a	LTP239	ltpFR	1	5	n/a	WARRIOR	1589	5	n/a	n/a	n/a	n/a	n/a	n/a
4698558	RECOG_LURE	n/a	LTP239	ltpFR	1	5	n/a	COAT	333	3	n/a	n/a	n/a	n/a	n/a	n/a
4699936	RECOG_RESP	n/a	LTP239	ltpFR	1	5	n/a	COAT	333	n/a	n/a	n/a	n/a	n/a	n/a	n/a
4700584	RECOG_CONF	n/a	LTP239	ltpFR	1	5	n/a	COAT	333	3	n/a	n/a	n/a	n/a	n/a	n/a
4702439	RECOG_TARGET	n/a	LTP239	ltpFR	1	5	0	COUGAR	387	5	1	n/a	n/a	n/a	n/a	n/a
4703170	RECOG_RESP	n/a	LTP239	ltpFR	1	5	0	COUGAR	387	n/a	1	n/a	n/a	n/a	n/a	n/a
4703691	RECOG_CONF	n/a	LTP239	ltpFR	1	5	0	COUGAR	387	5	1	n/a	n/a	n/a	n/a	n/a
4705585	RECOG_LURE	n/a	LTP239	ltpFR	1	5	n/a	LOAF	835	3	n/a	n/a	n/a	n/a	n/a	n/a
4706565	RECOG_RESP	n/a	LTP239	ltpFR	1	5	n/a	LOAF	835	n/a	n/a	n/a	n/a	n/a	n/a	n/a
4707352	RECOG_CONF	n/a	LTP239	ltpFR	1	5	n/a	LOAF	835	3	n/a	n/a	n/a	n/a	n/a	n/a
4709064	RECOG_TARGET	n/a	LTP239	ltpFR	1	5	1	TOE	1473	5	1	n/a	n/a	n/a	n/a	n/a
4709888	RECOG_RESP	n/a	LTP239	ltpFR	1	5	1	TOE	1473	n/a	1	n/a	n/a	n/a	n/a	n/a
4710507	RECOG_CONF	n/a	LTP239	ltpFR	1	5	1	TOE	1473	5	1	n/a	n/a	n/a	n/a	n/a
4712193	RECOG_TARGET	n/a	LTP239	ltpFR	1	5	0	STADIUM	1364	5	1	n/a	n/a	n/a	n/a	n/a
4712913	RECOG_RESP	n/a	LTP239	ltpFR	1	5	0	STADIUM	1364	n/a	1	n/a	n/a	n/a	n/a	n/a
4713566	RECOG_CONF	n/a	LTP239	ltpFR	1	5	0	STADIUM	1364	5	1	n/a	n/a	n/a	n/a	n/a
4715187	RECOG_TARGET	n/a	LTP239	ltpFR	1	5	1	SNACK	1331	5	0	n/a	n/a	n/a	n/a	n/a
4716119	RECOG_RESP	n/a	LTP239	ltpFR	1	5	1	SNACK	1331	n/a	0	n/a	n/a	n/a	n/a	n/a
4716737	RECOG_CONF	n/a	LTP239	ltpFR	1	5	1	SNACK	1331	5	0	n/a	n/a	n/a	n/a	n/a
4718334	RECOG_LURE	n/a	LTP239	ltpFR	1	5	n/a	MEDICINE	886	5	n/a	n/a	n/a	n/a	n/a	n/a
4719146	RECOG_RESP	n/a	LTP239	ltpFR	1	5	n/a	MEDICINE	886	n/a	n/a	n/a	n/a	n/a	n/a	n/a
4719777	RECOG_CONF	n/a	LTP239	ltpFR	1	5	n/a	MEDICINE	886	5	n/a	n/a	n/a	n/a	n/a	n/a
4721494	RECOG_TARGET	n/a	LTP239	ltpFR	1	5	-1	ROCKET	1202	5	-1	n/a	n/a	n/a	n/a	n/a
4722152	RECOG_RESP	n/a	LTP239	ltpFR	1	5	-1	ROCKET	1202	n/a	-1	n/a	n/a	n/a	n/a	n/a
4722867	RECOG_CONF	n/a	LTP239	ltpFR	1	5	-1	ROCKET	1202	5	-1	n/a	n/a	n/a	n/a	n/a
4724439	RECOG_LURE	n/a	LTP239	ltpFR	1	5	n/a	SPAGHETTI	1346	5	n/a	n/a	n/a	n/a	n/a	n/a
4725207	RECOG_RESP	n/a	LTP239	ltpFR	1	5	n/a	SPAGHETTI	1346	n/a	n/a	n/a	n/a	n/a	n/a	n/a
4725846	RECOG_CONF	n/a	LTP239	ltpFR	1	5	n/a	SPAGHETTI	1346	5	n/a	n/a	n/a	n/a	n/a	n/a
4736274	REC_START	n/a	LTP239	ltpFR	1	6	n/a	n/a	n/a	n/a	n/a	n/a	n/a	n/a	n/a	n/a
4736318	RECOG_LURE	n/a	LTP239	ltpFR	1	6	n/a	ASSOCIATE	49	3	n/a	n/a	n/a	n/a	n/a	n/a
4738220	RECOG_RESP	n/a	LTP239	ltpFR	1	6	n/a	ASSOCIATE	49	n/a	n/a	n/a	n/a	n/a	n/a	n/a
4739191	RECOG_CONF	n/a	LTP239	ltpFR	1	6	n/a	ASSOCIATE	49	3	n/a	n/a	n/a	n/a	n/a	n/a
4740817	RECOG_LURE	n/a	LTP239	ltpFR	1	6	n/a	SWING	1421	3	n/a	n/a	n/a	n/a	n/a	n/a
4742141	RECOG_RESP	n/a	LTP239	ltpFR	1	6	n/a	SWING	1421	n/a	n/a	n/a	n/a	n/a	n/a	n/a
4743043	RECOG_CONF	n/a	LTP239	ltpFR	1	6	n/a	SWING	1421	3	n/a	n/a	n/a	n/a	n/a	n/a
4744699	RECOG_TARGET	n/a	LTP239	ltpFR	1	6	1	OZONE	996	5	0	n/a	n/a	n/a	n/a	n/a
4745598	RECOG_RESP	n/a	LTP239	ltpFR	1	6	1	OZONE	996	n/a	0	n/a	n/a	n/a	n/a	n/a
4746436	RECOG_CONF	n/a	LTP239	ltpFR	1	6	1	OZONE	996	5	0	n/a	n/a	n/a	n/a	n/a
4748011	RECOG_LURE	n/a	LTP239	ltpFR	1	6	n/a	VAMPIRE	1547	4	n/a	n/a	n/a	n/a	n/a	n/a
4749136	RECOG_RESP	n/a	LTP239	ltpFR	1	6	n/a	VAMPIRE	1547	n/a	n/a	n/a	n/a	n/a	n/a	n/a
4750129	RECOG_CONF	n/a	LTP239	ltpFR	1	6	n/a	VAMPIRE	1547	4	n/a	n/a	n/a	n/a	n/a	n/a
4751792	RECOG_TARGET	n/a	LTP239	ltpFR	1	6	0	CHARCOAL	281	5	0	n/a	n/a	n/a	n/a	n/a
4752964	RECOG_RESP	n/a	LTP239	ltpFR	1	6	0	CHARCOAL	281	n/a	0	n/a	n/a	n/a	n/a	n/a
4754045	RECOG_CONF	n/a	LTP239	ltpFR	1	6	0	CHARCOAL	281	5	0	n/a	n/a	n/a	n/a	n/a
4755757	RECOG_TARGET	n/a	LTP239	ltpFR	1	6	0	BIBLE	124	5	0	n/a	n/a	n/a	n/a	n/a
4756470	RECOG_RESP	n/a	LTP239	ltpFR	1	6	0	BIBLE	124	n/a	0	n/a	n/a	n/a	n/a	n/a
4757231	RECOG_CONF	n/a	LTP239	ltpFR	1	6	0	BIBLE	124	5	0	n/a	n/a	n/a	n/a	n/a
4758584	RECOG_TARGET	n/a	LTP239	ltpFR	1	6	0	COACH	331	5	1	n/a	n/a	n/a	n/a	n/a
4759422	RECOG_RESP	n/a	LTP239	ltpFR	1	6	0	COACH	331	n/a	1	n/a	n/a	n/a	n/a	n/a
4760134	RECOG_CONF	n/a	LTP239	ltpFR	1	6	0	COACH	331	5	1	n/a	n/a	n/a	n/a	n/a
4761696	RECOG_LURE	n/a	LTP239	ltpFR	1	6	n/a	EMPIRE	530	4	n/a	n/a	n/a	n/a	n/a	n/a
4762883	RECOG_RESP	n/a	LTP239	ltpFR	1	6	n/a	EMPIRE	530	n/a	n/a	n/a	n/a	n/a	n/a	n/a
4763773	RECOG_CONF	n/a	LTP239	ltpFR	1	6	n/a	EMPIRE	530	4	n/a	n/a	n/a	n/a	n/a	n/a
4765611	RECOG_LURE	n/a	LTP239	ltpFR	1	6	n/a	BOOTH	151	3	n/a	n/a	n/a	n/a	n/a	n/a
4766909	RECOG_RESP	n/a	LTP239	ltpFR	1	6	n/a	BOOTH	151	n/a	n/a	n/a	n/a	n/a	n/a	n/a
4767867	RECOG_CONF	n/a	LTP239	ltpFR	1	6	n/a	BOOTH	151	3	n/a	n/a	n/a	n/a	n/a	n/a
4769525	RECOG_TARGET	n/a	LTP239	ltpFR	1	6	0	SHACK	1273	4	1	n/a	n/a	n/a	n/a	n/a
4771127	RECOG_RESP	n/a	LTP239	ltpFR	1	6	0	SHACK	1273	n/a	1	n/a	n/a	n/a	n/a	n/a
4772024	RECOG_CONF	n/a	LTP239	ltpFR	1	6	0	SHACK	1273	4	1	n/a	n/a	n/a	n/a	n/a
4773842	RECOG_TARGET	n/a	LTP239	ltpFR	1	6	0	HAY	693	5	1	n/a	n/a	n/a	n/a	n/a
4774942	RECOG_RESP	n/a	LTP239	ltpFR	1	6	0	HAY	693	n/a	1	n/a	n/a	n/a	n/a	n/a
4775677	RECOG_CONF	n/a	LTP239	ltpFR	1	6	0	HAY	693	5	1	n/a	n/a	n/a	n/a	n/a
4777506	RECOG_TARGET	n/a	LTP239	ltpFR	1	6	0	PAWN	1030	5	0	n/a	n/a	n/a	n/a	n/a
4778223	RECOG_RESP	n/a	LTP239	ltpFR	1	6	0	PAWN	1030	n/a	0	n/a	n/a	n/a	n/a	n/a
4778848	RECOG_CONF	n/a	LTP239	ltpFR	1	6	0	PAWN	1030	5	0	n/a	n/a	n/a	n/a	n/a
4780517	RECOG_TARGET	n/a	LTP239	ltpFR	1	6	0	SLUG	1329	5	0	n/a	n/a	n/a	n/a	n/a
4781329	RECOG_RESP	n/a	LTP239	ltpFR	1	6	0	SLUG	1329	n/a	0	n/a	n/a	n/a	n/a	n/a
4782031	RECOG_CONF	n/a	LTP239	ltpFR	1	6	0	SLUG	1329	5	0	n/a	n/a	n/a	n/a	n/a
4783696	RECOG_TARGET	n/a	LTP239	ltpFR	1	6	1	CUFF	423	5	0	n/a	n/a	n/a	n/a	n/a
4784595	RECOG_RESP	n/a	LTP239	ltpFR	1	6	1	CUFF	423	n/a	0	n/a	n/a	n/a	n/a	n/a
4785204	RECOG_CONF	n/a	LTP239	ltpFR	1	6	1	CUFF	423	5	0	n/a	n/a	n/a	n/a	n/a
4786958	RECOG_TARGET	n/a	LTP239	ltpFR	1	6	1	GARAGE	621	3	0	n/a	n/a	n/a	n/a	n/a
4787901	RECOG_RESP	n/a	LTP239	ltpFR	1	6	1	GARAGE	621	n/a	0	n/a	n/a	n/a	n/a	n/a
4788844	RECOG_CONF	n/a	LTP239	ltpFR	1	6	1	GARAGE	621	3	0	n/a	n/a	n/a	n/a	n/a
4790322	RECOG_TARGET	n/a	LTP239	ltpFR	1	6	1	SHOWER	1296	5	0	n/a	n/a	n/a	n/a	n/a
4791454	RECOG_RESP	n/a	LTP239	ltpFR	1	6	1	SHOWER	1296	n/a	0	n/a	n/a	n/a	n/a	n/a
4792115	RECOG_CONF	n/a	LTP239	ltpFR	1	6	1	SHOWER	1296	5	0	n/a	n/a	n/a	n/a	n/a
4793951	RECOG_TARGET	n/a	LTP239	ltpFR	1	6	-1	WARDROBE	1587	5	-1	n/a	n/a	n/a	n/a	n/a
4795095	RECOG_RESP	n/a	LTP239	ltpFR	1	6	-1	WARDROBE	1587	n/a	-1	n/a	n/a	n/a	n/a	n/a
4795676	RECOG_CONF	n/a	LTP239	ltpFR	1	6	-1	WARDROBE	1587	5	-1	n/a	n/a	n/a	n/a	n/a
4797348	RECOG_TARGET	n/a	LTP239	ltpFR	1	6	-1	KITCHEN	778	5	-1	n/a	n/a	n/a	n/a	n/a
4798470	RECOG_RESP	n/a	LTP239	ltpFR	1	6	-1	KITCHEN	778	n/a	-1	n/a	n/a	n/a	n/a	n/a
4799057	RECOG_CONF	n/a	LTP239	ltpFR	1	6	-1	KITCHEN	778	5	-1	n/a	n/a	n/a	n/a	n/a
4800793	RECOG_TARGET	n/a	LTP239	ltpFR	1	6	-1	TAVERN	1437	5	-1	n/a	n/a	n/a	n/a	n/a
4801506	RECOG_RESP	n/a	LTP239	ltpFR	1	6	-1	TAVERN	1437	n/a	-1	n/a	n/a	n/a	n/a	n/a
4802161	RECOG_CONF	n/a	LTP239	ltpFR	1	6	-1	TAVERN	1437	5	-1	n/a	n/a	n/a	n/a	n/a
4803805	RECOG_TARGET	n/a	LTP239	ltpFR	1	6	-1	BOULEVARD	156	5	-1	n/a	n/a	n/a	n/a	n/a
4804602	RECOG_RESP	n/a	LTP239	ltpFR	1	6	-1	BOULEVARD	156	n/a	-1	n/a	n/a	n/a	n/a	n/a
4805164	RECOG_CONF	n/a	LTP239	ltpFR	1	6	-1	BOULEVARD	156	5	-1	n/a	n/a	n/a	n/a	n/a
4813707	REC_START	n/a	LTP239	ltpFR	1	7	n/a	n/a	n/a	n/a	n/a	n/a	n/a	n/a	n/a	n/a
4813759	RECOG_TARGET	n/a	LTP239	ltpFR	1	7	0	TOILET	1475	5	1	n/a	n/a	n/a	n/a	n/a
4814706	RECOG_RESP	n/a	LTP239	ltpFR	1	7	0	TOILET	1475	n/a	1	n/a	n/a	n/a	n/a	n/a
4815469	RECOG_CONF	n/a	LTP239	ltpFR	1	7	0	TOILET	1475	5	1	n/a	n/a	n/a	n/a	n/a
4817038	RECOG_LURE	n/a	LTP239	ltpFR	1	7	n/a	WAIST	1579	5	n/a	n/a	n/a	n/a	n/a	n/a
4817871	RECOG_RESP	n/a	LTP239	ltpFR	1	7	n/a	WAIST	1579	n/a	n/a	n/a	n/a	n/a	n/a	n/a
4818503	RECOG_CONF	n/a	LTP239	ltpFR	1	7	n/a	WAIST	1579	5	n/a	n/a	n/a	n/a	n/a	n/a
4819999	RECOG_TARGET	n/a	LTP239	ltpFR	1	7	0	TRIANGLE	1504	5	0	n/a	n/a	n/a	n/a	n/a
4820814	RECOG_RESP	n/a	LTP239	ltpFR	1	7	0	TRIANGLE	1504	n/a	0	n/a	n/a	n/a	n/a	n/a
4821340	RECOG_CONF	n/a	LTP239	ltpFR	1	7	0	TRIANGLE	1504	5	0	n/a	n/a	n/a	n/a	n/a
