onset	duration	trial_type	sample	stim_file	subject	experiment	session	trial	task	item_name	item_num	recog_conf	resp	answer	test_x	test_y	test_z	color_b	color_g	color_r	case	font
280.334	n/a	SESS_START	140167	n/a	LTP236	ltpFR	13	n/a	n/a	n/a	n/a	5	n/a	n/a	0	0	0	n/a	n/a	n/a	n/a	n/a
304.334	n/a	START	152167	n/a	LTP236	ltpFR	13	n/a	n/a	n/a	n/a	n/a	n/a	n/a	n/a	n/a	n/a	n/a	n/a	n/a	n/a	n/a
304.382	n/a	PROB	152191	n/a	LTP236	ltpFR	13	n/a	n/a	n/a	n/a	n/a	n/a	19	7	9	3	n/a	n/a	n/a	n/a	n/a
306.072	n/a	PROB	153036	n/a	LTP236	ltpFR	13	n/a	n/a	n/a	n/a	n/a	n/a	15	7	4	4	n/a	n/a	n/a	n/a	n/a
307.544	n/a	PROB	153772	n/a	LTP236	ltpFR	13	n/a	n/a	n/a	n/a	n/a	n/a	16	6	1	9	n/a	n/a	n/a	n/a	n/a
308.684	n/a	PROB	154342	n/a	LTP236	ltpFR	13	n/a	n/a	n/a	n/a	n/a	n/a	4	2	1	1	n/a	n/a	n/a	n/a	n/a
309.688	n/a	PROB	154844	n/a	LTP236	ltpFR	13	n/a	n/a	n/a	n/a	n/a	n/a	14	8	4	2	n/a	n/a	n/a	n/a	n/a
310.79	n/a	PROB	155395	n/a	LTP236	ltpFR	13	n/a	n/a	n/a	n/a	n/a	n/a	13	2	3	8	n/a	n/a	n/a	n/a	n/a
311.912	n/a	PROB	155956	n/a	LTP236	ltpFR	13	n/a	n/a	n/a	n/a	n/a	n/a	13	9	3	1	n/a	n/a	n/a	n/a	n/a
312.932	n/a	PROB	156466	n/a	LTP236	ltpFR	13	n/a	n/a	n/a	n/a	n/a	n/a	22	8	5	9	n/a	n/a	n/a	n/a	n/a
314.236	n/a	PROB	157118	n/a	LTP236	ltpFR	13	n/a	n/a	n/a	n/a	n/a	n/a	16	5	9	2	n/a	n/a	n/a	n/a	n/a
315.408	n/a	PROB	157704	n/a	LTP236	ltpFR	13	n/a	n/a	n/a	n/a	n/a	n/a	12	6	1	5	n/a	n/a	n/a	n/a	n/a
316.56	n/a	PROB	158280	n/a	LTP236	ltpFR	13	n/a	n/a	n/a	n/a	n/a	n/a	15	5	2	8	n/a	n/a	n/a	n/a	n/a
318.032	n/a	PROB	159016	n/a	LTP236	ltpFR	13	n/a	n/a	n/a	n/a	n/a	n/a	19	8	4	7	n/a	n/a	n/a	n/a	n/a
319.19	n/a	PROB	159595	n/a	LTP236	ltpFR	13	n/a	n/a	n/a	n/a	n/a	n/a	11	1	3	7	n/a	n/a	n/a	n/a	n/a
320.29	n/a	PROB	160145	n/a	LTP236	ltpFR	13	n/a	n/a	n/a	n/a	n/a	n/a	22	8	7	7	n/a	n/a	n/a	n/a	n/a
321.462	n/a	PROB	160731	n/a	LTP236	ltpFR	13	n/a	n/a	n/a	n/a	n/a	n/a	13	6	5	2	n/a	n/a	n/a	n/a	n/a
322.432	n/a	PROB	161216	n/a	LTP236	ltpFR	13	n/a	n/a	n/a	n/a	n/a	n/a	10	3	3	4	n/a	n/a	n/a	n/a	n/a
323.96	n/a	STOP	161980	n/a	LTP236	ltpFR	13	n/a	n/a	n/a	n/a	n/a	n/a	n/a	n/a	n/a	n/a	n/a	n/a	n/a	n/a	n/a
344.22	n/a	START	172110	n/a	LTP236	ltpFR	13	n/a	n/a	n/a	n/a	n/a	n/a	n/a	n/a	n/a	n/a	n/a	n/a	n/a	n/a	n/a
345.726	n/a	PROB	172863	n/a	LTP236	ltpFR	13	n/a	n/a	n/a	n/a	n/a	n/a	13	5	1	7	n/a	n/a	n/a	n/a	n/a
347.326	n/a	PROB	173663	n/a	LTP236	ltpFR	13	n/a	n/a	n/a	n/a	n/a	n/a	11	2	3	6	n/a	n/a	n/a	n/a	n/a
348.502	n/a	PROB	174251	n/a	LTP236	ltpFR	13	n/a	n/a	n/a	n/a	n/a	n/a	13	1	8	4	n/a	n/a	n/a	n/a	n/a
349.656	n/a	PROB	174828	n/a	LTP236	ltpFR	13	n/a	n/a	n/a	n/a	n/a	n/a	13	4	2	7	n/a	n/a	n/a	n/a	n/a
350.71	n/a	PROB	175355	n/a	LTP236	ltpFR	13	n/a	n/a	n/a	n/a	n/a	n/a	17	6	8	3	n/a	n/a	n/a	n/a	n/a
351.88	n/a	STOP	175940	n/a	LTP236	ltpFR	13	n/a	n/a	n/a	n/a	n/a	n/a	n/a	n/a	n/a	n/a	n/a	n/a	n/a	n/a	n/a
353.37	n/a	WORD	176685	wordpools/wasnorm_wordpool_less_exclusions.txt	LTP236	ltpFR	13	1	1	DIVER	476	n/a	1	n/a	0	0	0	0	0.5869140625	0.422607421875	lower	../fonts/zerothre.ttf
356.382	n/a	START	178191	n/a	LTP236	ltpFR	13	n/a	n/a	n/a	n/a	n/a	n/a	n/a	n/a	n/a	n/a	n/a	n/a	n/a	n/a	n/a
357.532	n/a	PROB	178766	n/a	LTP236	ltpFR	13	n/a	n/a	n/a	n/a	n/a	n/a	15	7	6	2	n/a	n/a	n/a	n/a	n/a
358.992	n/a	PROB	179496	n/a	LTP236	ltpFR	13	n/a	n/a	n/a	n/a	n/a	n/a	20	6	5	9	n/a	n/a	n/a	n/a	n/a
362.02	n/a	PROB	181010	n/a	LTP236	ltpFR	13	n/a	n/a	n/a	n/a	n/a	n/a	16	6	7	3	n/a	n/a	n/a	n/a	n/a
363.786	n/a	STOP	181893	n/a	LTP236	ltpFR	13	n/a	n/a	n/a	n/a	n/a	n/a	n/a	n/a	n/a	n/a	n/a	n/a	n/a	n/a	n/a
365.282	n/a	WORD	182641	wordpools/wasnorm_wordpool_less_exclusions.txt	LTP236	ltpFR	13	1	1	PIER	1063	n/a	0	n/a	0	0	0	0	0.5869140625	0.422607421875	lower	../fonts/zerothre.ttf
368.294	n/a	START	184147	n/a	LTP236	ltpFR	13	n/a	n/a	n/a	n/a	n/a	n/a	n/a	n/a	n/a	n/a	n/a	n/a	n/a	n/a	n/a
369.364	n/a	PROB	184682	n/a	LTP236	ltpFR	13	n/a	n/a	n/a	n/a	n/a	n/a	11	8	2	1	n/a	n/a	n/a	n/a	n/a
370.518	n/a	PROB	185259	n/a	LTP236	ltpFR	13	n/a	n/a	n/a	n/a	n/a	n/a	16	9	4	3	n/a	n/a	n/a	n/a	n/a
371.538	n/a	PROB	185769	n/a	LTP236	ltpFR	13	n/a	n/a	n/a	n/a	n/a	n/a	11	1	8	2	n/a	n/a	n/a	n/a	n/a
373.058	n/a	PROB	186529	n/a	LTP236	ltpFR	13	n/a	n/a	n/a	n/a	n/a	n/a	19	4	8	7	n/a	n/a	n/a	n/a	n/a
374.598	n/a	PROB	187299	n/a	LTP236	ltpFR	13	n/a	n/a	n/a	n/a	n/a	n/a	11	3	4	4	n/a	n/a	n/a	n/a	n/a
375.93	n/a	STOP	187965	n/a	LTP236	ltpFR	13	n/a	n/a	n/a	n/a	n/a	n/a	n/a	n/a	n/a	n/a	n/a	n/a	n/a	n/a	n/a
377.324	n/a	WORD	188662	wordpools/wasnorm_wordpool_less_exclusions.txt	LTP236	ltpFR	13	1	0	DECK	443	n/a	0	n/a	0	0	0	1	0.412841796875	0.57763671875	upper	../fonts/amplitud.ttf
380.34	n/a	START	190170	n/a	LTP236	ltpFR	13	n/a	n/a	n/a	n/a	n/a	n/a	n/a	n/a	n/a	n/a	n/a	n/a	n/a	n/a	n/a
381.406	n/a	PROB	190703	n/a	LTP236	ltpFR	13	n/a	n/a	n/a	n/a	n/a	n/a	13	2	4	7	n/a	n/a	n/a	n/a	n/a
383.062	n/a	PROB	191531	n/a	LTP236	ltpFR	13	n/a	n/a	n/a	n/a	n/a	n/a	5	3	1	1	n/a	n/a	n/a	n/a	n/a
384.016	n/a	PROB	192008	n/a	LTP236	ltpFR	13	n/a	n/a	n/a	n/a	n/a	n/a	12	2	7	3	n/a	n/a	n/a	n/a	n/a
385.338	n/a	PROB	192669	n/a	LTP236	ltpFR	13	n/a	n/a	n/a	n/a	n/a	n/a	10	2	2	6	n/a	n/a	n/a	n/a	n/a
386.426	n/a	PROB	193213	n/a	LTP236	ltpFR	13	n/a	n/a	n/a	n/a	n/a	n/a	10	2	1	7	n/a	n/a	n/a	n/a	n/a
387.434	n/a	STOP	193717	n/a	LTP236	ltpFR	13	n/a	n/a	n/a	n/a	n/a	n/a	n/a	n/a	n/a	n/a	n/a	n/a	n/a	n/a	n/a
389.336	n/a	WORD	194668	wordpools/wasnorm_wordpool_less_exclusions.txt	LTP236	ltpFR	13	1	0	HAWK	692	n/a	1	n/a	0	0	0	1	0.412841796875	0.57763671875	upper	../fonts/amplitud.ttf
392.354	n/a	START	196177	n/a	LTP236	ltpFR	13	n/a	n/a	n/a	n/a	n/a	n/a	n/a	n/a	n/a	n/a	n/a	n/a	n/a	n/a	n/a
393.322	n/a	PROB	196661	n/a	LTP236	ltpFR	13	n/a	n/a	n/a	n/a	n/a	n/a	12	8	3	1	n/a	n/a	n/a	n/a	n/a
394.608	n/a	PROB	197304	n/a	LTP236	ltpFR	13	n/a	n/a	n/a	n/a	n/a	n/a	20	9	6	5	n/a	n/a	n/a	n/a	n/a
395.9	n/a	PROB	197950	n/a	LTP236	ltpFR	13	n/a	n/a	n/a	n/a	n/a	n/a	17	6	5	6	n/a	n/a	n/a	n/a	n/a
397.434	n/a	PROB	198717	n/a	LTP236	ltpFR	13	n/a	n/a	n/a	n/a	n/a	n/a	10	4	2	4	n/a	n/a	n/a	n/a	n/a
398.488	n/a	PROB	199244	n/a	LTP236	ltpFR	13	n/a	n/a	n/a	n/a	n/a	n/a	8	3	4	1	n/a	n/a	n/a	n/a	n/a
399.388	n/a	STOP	199694	n/a	LTP236	ltpFR	13	n/a	n/a	n/a	n/a	n/a	n/a	n/a	n/a	n/a	n/a	n/a	n/a	n/a	n/a	n/a
401.32	n/a	WORD	200660	wordpools/wasnorm_wordpool_less_exclusions.txt	LTP236	ltpFR	13	1	0	NET	946	n/a	0	n/a	0	0	0	1	0.412841796875	0.57763671875	upper	../fonts/amplitud.ttf
404.332	n/a	START	202166	n/a	LTP236	ltpFR	13	n/a	n/a	n/a	n/a	n/a	n/a	n/a	n/a	n/a	n/a	n/a	n/a	n/a	n/a	n/a
405.436	n/a	PROB	202718	n/a	LTP236	ltpFR	13	n/a	n/a	n/a	n/a	n/a	n/a	14	9	2	3	n/a	n/a	n/a	n/a	n/a
407.238	n/a	PROB	203619	n/a	LTP236	ltpFR	13	n/a	n/a	n/a	n/a	n/a	n/a	14	4	4	6	n/a	n/a	n/a	n/a	n/a
408.342	n/a	PROB	204171	n/a	LTP236	ltpFR	13	n/a	n/a	n/a	n/a	n/a	n/a	17	9	6	2	n/a	n/a	n/a	n/a	n/a
409.5	n/a	PROB	204750	n/a	LTP236	ltpFR	13	n/a	n/a	n/a	n/a	n/a	n/a	13	4	1	7	n/a	n/a	n/a	n/a	n/a
410.518	n/a	PROB	205259	n/a	LTP236	ltpFR	13	n/a	n/a	n/a	n/a	n/a	n/a	13	5	4	4	n/a	n/a	n/a	n/a	n/a
411.5	n/a	STOP	205750	n/a	LTP236	ltpFR	13	n/a	n/a	n/a	n/a	n/a	n/a	n/a	n/a	n/a	n/a	n/a	n/a	n/a	n/a	n/a
413.5	n/a	WORD	206750	wordpools/wasnorm_wordpool_less_exclusions.txt	LTP236	ltpFR	13	1	1	CAMEL	223	n/a	1	n/a	0	0	0	0	0.5869140625	0.422607421875	lower	../fonts/zerothre.ttf
416.512	n/a	START	208256	n/a	LTP236	ltpFR	13	n/a	n/a	n/a	n/a	n/a	n/a	n/a	n/a	n/a	n/a	n/a	n/a	n/a	n/a	n/a
417.432	n/a	PROB	208716	n/a	LTP236	ltpFR	13	n/a	n/a	n/a	n/a	n/a	n/a	16	7	9	3	n/a	n/a	n/a	n/a	n/a
424.512	n/a	STOP	212256	n/a	LTP236	ltpFR	13	n/a	n/a	n/a	n/a	n/a	n/a	n/a	n/a	n/a	n/a	n/a	n/a	n/a	n/a	n/a
425.492	n/a	WORD	212746	wordpools/wasnorm_wordpool_less_exclusions.txt	LTP236	ltpFR	13	1	1	PAIL	1002	n/a	0	n/a	0	0	0	0	0.5869140625	0.422607421875	lower	../fonts/zerothre.ttf
428.508	n/a	START	214254	n/a	LTP236	ltpFR	13	n/a	n/a	n/a	n/a	n/a	n/a	n/a	n/a	n/a	n/a	n/a	n/a	n/a	n/a	n/a
429.524	n/a	PROB	214762	n/a	LTP236	ltpFR	13	n/a	n/a	n/a	n/a	n/a	n/a	14	5	8	1	n/a	n/a	n/a	n/a	n/a
430.746	n/a	PROB	215373	n/a	LTP236	ltpFR	13	n/a	n/a	n/a	n/a	n/a	n/a	17	8	6	3	n/a	n/a	n/a	n/a	n/a
432.302	n/a	PROB	216151	n/a	LTP236	ltpFR	13	n/a	n/a	n/a	n/a	n/a	n/a	12	6	5	1	n/a	n/a	n/a	n/a	n/a
433.442	n/a	PROB	216721	n/a	LTP236	ltpFR	13	n/a	n/a	n/a	n/a	n/a	n/a	15	5	8	2	n/a	n/a	n/a	n/a	n/a
434.51	n/a	PROB	217255	n/a	LTP236	ltpFR	13	n/a	n/a	n/a	n/a	n/a	n/a	6	2	3	1	n/a	n/a	n/a	n/a	n/a
435.598	n/a	STOP	217799	n/a	LTP236	ltpFR	13	n/a	n/a	n/a	n/a	n/a	n/a	n/a	n/a	n/a	n/a	n/a	n/a	n/a	n/a	n/a
437.726	n/a	WORD	218863	wordpools/wasnorm_wordpool_less_exclusions.txt	LTP236	ltpFR	13	1	0	PRAIRIE	1118	n/a	1	n/a	0	0	0	1	0.412841796875	0.57763671875	upper	../fonts/amplitud.ttf
440.738	n/a	START	220369	n/a	LTP236	ltpFR	13	n/a	n/a	n/a	n/a	n/a	n/a	n/a	n/a	n/a	n/a	n/a	n/a	n/a	n/a	n/a
441.742	n/a	PROB	220871	n/a	LTP236	ltpFR	13	n/a	n/a	n/a	n/a	n/a	n/a	11	8	1	2	n/a	n/a	n/a	n/a	n/a
443.062	n/a	PROB	221531	n/a	LTP236	ltpFR	13	n/a	n/a	n/a	n/a	n/a	n/a	18	5	6	7	n/a	n/a	n/a	n/a	n/a
444.902	n/a	PROB	222451	n/a	LTP236	ltpFR	13	n/a	n/a	n/a	n/a	n/a	n/a	23	8	7	8	n/a	n/a	n/a	n/a	n/a
446.188	n/a	PROB	223094	n/a	LTP236	ltpFR	13	n/a	n/a	n/a	n/a	n/a	n/a	20	9	2	9	n/a	n/a	n/a	n/a	n/a
447.438	n/a	STOP	223719	n/a	LTP236	ltpFR	13	n/a	n/a	n/a	n/a	n/a	n/a	n/a	n/a	n/a	n/a	n/a	n/a	n/a	n/a	n/a
449.84	n/a	WORD	224920	wordpools/wasnorm_wordpool_less_exclusions.txt	LTP236	ltpFR	13	1	0	KIDNEY	776	n/a	0	n/a	0	0	0	1	0.412841796875	0.57763671875	upper	../fonts/amplitud.ttf
452.852	n/a	START	226426	n/a	LTP236	ltpFR	13	n/a	n/a	n/a	n/a	n/a	n/a	n/a	n/a	n/a	n/a	n/a	n/a	n/a	n/a	n/a
453.922	n/a	PROB	226961	n/a	LTP236	ltpFR	13	n/a	n/a	n/a	n/a	n/a	n/a	15	7	1	7	n/a	n/a	n/a	n/a	n/a
455.36	n/a	PROB	227680	n/a	LTP236	ltpFR	13	n/a	n/a	n/a	n/a	n/a	n/a	13	9	4	1	n/a	n/a	n/a	n/a	n/a
456.912	n/a	PROB	228456	n/a	LTP236	ltpFR	13	n/a	n/a	n/a	n/a	n/a	n/a	10	1	3	6	n/a	n/a	n/a	n/a	n/a
458.284	n/a	PROB	229142	n/a	LTP236	ltpFR	13	n/a	n/a	n/a	n/a	n/a	n/a	7	3	2	2	n/a	n/a	n/a	n/a	n/a
459.35	n/a	STOP	229675	n/a	LTP236	ltpFR	13	n/a	n/a	n/a	n/a	n/a	n/a	n/a	n/a	n/a	n/a	n/a	n/a	n/a	n/a	n/a
462.052	n/a	WORD	231026	wordpools/wasnorm_wordpool_less_exclusions.txt	LTP236	ltpFR	13	1	0	LASH	802	n/a	0	n/a	0	0	0	1	0.412841796875	0.57763671875	upper	../fonts/amplitud.ttf
465.064	n/a	START	232532	n/a	LTP236	ltpFR	13	n/a	n/a	n/a	n/a	n/a	n/a	n/a	n/a	n/a	n/a	n/a	n/a	n/a	n/a	n/a
466.05	n/a	PROB	233025	n/a	LTP236	ltpFR	13	n/a	n/a	n/a	n/a	n/a	n/a	14	6	1	7	n/a	n/a	n/a	n/a	n/a
467.486	n/a	PROB	233743	n/a	LTP236	ltpFR	13	n/a	n/a	n/a	n/a	n/a	n/a	13	8	2	3	n/a	n/a	n/a	n/a	n/a
469.026	n/a	PROB	234513	n/a	LTP236	ltpFR	13	n/a	n/a	n/a	n/a	n/a	n/a	21	7	7	7	n/a	n/a	n/a	n/a	n/a
470.162	n/a	PROB	235081	n/a	LTP236	ltpFR	13	n/a	n/a	n/a	n/a	n/a	n/a	20	7	7	6	n/a	n/a	n/a	n/a	n/a
473.064	n/a	STOP	236532	n/a	LTP236	ltpFR	13	n/a	n/a	n/a	n/a	n/a	n/a	n/a	n/a	n/a	n/a	n/a	n/a	n/a	n/a	n/a
474.228	n/a	WORD	237114	wordpools/wasnorm_wordpool_less_exclusions.txt	LTP236	ltpFR	13	1	0	PATIO	1025	n/a	1	n/a	0	0	0	1	0.412841796875	0.57763671875	upper	../fonts/amplitud.ttf
477.244	n/a	START	238622	n/a	LTP236	ltpFR	13	n/a	n/a	n/a	n/a	n/a	n/a	n/a	n/a	n/a	n/a	n/a	n/a	n/a	n/a	n/a
478.064	n/a	PROB	239032	n/a	LTP236	ltpFR	13	n/a	n/a	n/a	n/a	n/a	n/a	19	9	5	5	n/a	n/a	n/a	n/a	n/a
479.532	n/a	PROB	239766	n/a	LTP236	ltpFR	13	n/a	n/a	n/a	n/a	n/a	n/a	12	3	5	4	n/a	n/a	n/a	n/a	n/a
480.618	n/a	PROB	240309	n/a	LTP236	ltpFR	13	n/a	n/a	n/a	n/a	n/a	n/a	15	5	9	1	n/a	n/a	n/a	n/a	n/a
481.728	n/a	PROB	240864	n/a	LTP236	ltpFR	13	n/a	n/a	n/a	n/a	n/a	n/a	5	1	2	2	n/a	n/a	n/a	n/a	n/a
482.928	n/a	PROB	241464	n/a	LTP236	ltpFR	13	n/a	n/a	n/a	n/a	n/a	n/a	11	4	3	4	n/a	n/a	n/a	n/a	n/a
484.08	n/a	STOP	242040	n/a	LTP236	ltpFR	13	n/a	n/a	n/a	n/a	n/a	n/a	n/a	n/a	n/a	n/a	n/a	n/a	n/a	n/a	n/a
486.458	n/a	WORD	243229	wordpools/wasnorm_wordpool_less_exclusions.txt	LTP236	ltpFR	13	1	0	FURNITURE	616	n/a	1	n/a	0	0	0	1	0.412841796875	0.57763671875	upper	../fonts/amplitud.ttf
489.474	n/a	START	244737	n/a	LTP236	ltpFR	13	n/a	n/a	n/a	n/a	n/a	n/a	n/a	n/a	n/a	n/a	n/a	n/a	n/a	n/a	n/a
490.344	n/a	PROB	245172	n/a	LTP236	ltpFR	13	n/a	n/a	n/a	n/a	n/a	n/a	7	1	4	2	n/a	n/a	n/a	n/a	n/a
491.832	n/a	PROB	245916	n/a	LTP236	ltpFR	13	n/a	n/a	n/a	n/a	n/a	n/a	12	7	2	3	n/a	n/a	n/a	n/a	n/a
493.552	n/a	PROB	246776	n/a	LTP236	ltpFR	13	n/a	n/a	n/a	n/a	n/a	n/a	15	4	5	6	n/a	n/a	n/a	n/a	n/a
494.594	n/a	PROB	247297	n/a	LTP236	ltpFR	13	n/a	n/a	n/a	n/a	n/a	n/a	16	5	3	8	n/a	n/a	n/a	n/a	n/a
495.762	n/a	PROB	247881	n/a	LTP236	ltpFR	13	n/a	n/a	n/a	n/a	n/a	n/a	16	6	3	7	n/a	n/a	n/a	n/a	n/a
497.056	n/a	STOP	248528	n/a	LTP236	ltpFR	13	n/a	n/a	n/a	n/a	n/a	n/a	n/a	n/a	n/a	n/a	n/a	n/a	n/a	n/a	n/a
498.574	n/a	WORD	249287	wordpools/wasnorm_wordpool_less_exclusions.txt	LTP236	ltpFR	13	1	1	COYOTE	396	n/a	1	n/a	0	0	0	0	0.5869140625	0.422607421875	lower	../fonts/zerothre.ttf
501.586	n/a	START	250793	n/a	LTP236	ltpFR	13	n/a	n/a	n/a	n/a	n/a	n/a	n/a	n/a	n/a	n/a	n/a	n/a	n/a	n/a	n/a
502.57	n/a	PROB	251285	n/a	LTP236	ltpFR	13	n/a	n/a	n/a	n/a	n/a	n/a	11	2	4	5	n/a	n/a	n/a	n/a	n/a
504.242	n/a	PROB	252121	n/a	LTP236	ltpFR	13	n/a	n/a	n/a	n/a	n/a	n/a	16	2	6	8	n/a	n/a	n/a	n/a	n/a
505.364	n/a	PROB	252682	n/a	LTP236	ltpFR	13	n/a	n/a	n/a	n/a	n/a	n/a	20	9	8	3	n/a	n/a	n/a	n/a	n/a
506.69	n/a	PROB	253345	n/a	LTP236	ltpFR	13	n/a	n/a	n/a	n/a	n/a	n/a	13	2	5	6	n/a	n/a	n/a	n/a	n/a
507.74	n/a	PROB	253870	n/a	LTP236	ltpFR	13	n/a	n/a	n/a	n/a	n/a	n/a	19	8	8	3	n/a	n/a	n/a	n/a	n/a
508.85	n/a	STOP	254425	n/a	LTP236	ltpFR	13	n/a	n/a	n/a	n/a	n/a	n/a	n/a	n/a	n/a	n/a	n/a	n/a	n/a	n/a	n/a
510.438	n/a	WORD	255219	wordpools/wasnorm_wordpool_less_exclusions.txt	LTP236	ltpFR	13	1	1	BUGLE	189	n/a	0	n/a	0	0	0	0	0.5869140625	0.422607421875	lower	../fonts/zerothre.ttf
513.45	n/a	START	256725	n/a	LTP236	ltpFR	13	n/a	n/a	n/a	n/a	n/a	n/a	n/a	n/a	n/a	n/a	n/a	n/a	n/a	n/a	n/a
514.502	n/a	PROB	257251	n/a	LTP236	ltpFR	13	n/a	n/a	n/a	n/a	n/a	n/a	8	3	4	1	n/a	n/a	n/a	n/a	n/a
515.62	n/a	PROB	257810	n/a	LTP236	ltpFR	13	n/a	n/a	n/a	n/a	n/a	n/a	14	7	6	1	n/a	n/a	n/a	n/a	n/a
516.692	n/a	PROB	258346	n/a	LTP236	ltpFR	13	n/a	n/a	n/a	n/a	n/a	n/a	23	9	8	6	n/a	n/a	n/a	n/a	n/a
518.096	n/a	PROB	259048	n/a	LTP236	ltpFR	13	n/a	n/a	n/a	n/a	n/a	n/a	11	2	4	5	n/a	n/a	n/a	n/a	n/a
519.15	n/a	PROB	259575	n/a	LTP236	ltpFR	13	n/a	n/a	n/a	n/a	n/a	n/a	16	2	7	7	n/a	n/a	n/a	n/a	n/a
520.554	n/a	STOP	260277	n/a	LTP236	ltpFR	13	n/a	n/a	n/a	n/a	n/a	n/a	n/a	n/a	n/a	n/a	n/a	n/a	n/a	n/a	n/a
522.634	n/a	WORD	261317	wordpools/wasnorm_wordpool_less_exclusions.txt	LTP236	ltpFR	13	1	1	POLE	1097	n/a	0	n/a	0	0	0	0	0.5869140625	0.422607421875	lower	../fonts/zerothre.ttf
525.646	n/a	START	262823	n/a	LTP236	ltpFR	13	n/a	n/a	n/a	n/a	n/a	n/a	n/a	n/a	n/a	n/a	n/a	n/a	n/a	n/a	n/a
526.734	n/a	PROB	263367	n/a	LTP236	ltpFR	13	n/a	n/a	n/a	n/a	n/a	n/a	19	1	9	9	n/a	n/a	n/a	n/a	n/a
528.302	n/a	PROB	264151	n/a	LTP236	ltpFR	13	n/a	n/a	n/a	n/a	n/a	n/a	20	5	8	7	n/a	n/a	n/a	n/a	n/a
529.574	n/a	PROB	264787	n/a	LTP236	ltpFR	13	n/a	n/a	n/a	n/a	n/a	n/a	11	4	4	3	n/a	n/a	n/a	n/a	n/a
530.598	n/a	PROB	265299	n/a	LTP236	ltpFR	13	n/a	n/a	n/a	n/a	n/a	n/a	15	5	1	9	n/a	n/a	n/a	n/a	n/a
531.766	n/a	PROB	265883	n/a	LTP236	ltpFR	13	n/a	n/a	n/a	n/a	n/a	n/a	16	8	3	5	n/a	n/a	n/a	n/a	n/a
532.684	n/a	STOP	266342	n/a	LTP236	ltpFR	13	n/a	n/a	n/a	n/a	n/a	n/a	n/a	n/a	n/a	n/a	n/a	n/a	n/a	n/a	n/a
534.58	n/a	WORD	267290	wordpools/wasnorm_wordpool_less_exclusions.txt	LTP236	ltpFR	13	1	1	DOVE	491	n/a	1	n/a	0	0	0	0	0.5869140625	0.422607421875	lower	../fonts/zerothre.ttf
537.59	n/a	START	268795	n/a	LTP236	ltpFR	13	n/a	n/a	n/a	n/a	n/a	n/a	n/a	n/a	n/a	n/a	n/a	n/a	n/a	n/a	n/a
538.528	n/a	PROB	269264	n/a	LTP236	ltpFR	13	n/a	n/a	n/a	n/a	n/a	n/a	21	6	8	7	n/a	n/a	n/a	n/a	n/a
541.422	n/a	PROB	270711	n/a	LTP236	ltpFR	13	n/a	n/a	n/a	n/a	n/a	n/a	14	3	7	4	n/a	n/a	n/a	n/a	n/a
542.678	n/a	PROB	271339	n/a	LTP236	ltpFR	13	n/a	n/a	n/a	n/a	n/a	n/a	21	9	3	9	n/a	n/a	n/a	n/a	n/a
543.932	n/a	PROB	271966	n/a	LTP236	ltpFR	13	n/a	n/a	n/a	n/a	n/a	n/a	19	9	3	7	n/a	n/a	n/a	n/a	n/a
545.364	n/a	STOP	272682	n/a	LTP236	ltpFR	13	n/a	n/a	n/a	n/a	n/a	n/a	n/a	n/a	n/a	n/a	n/a	n/a	n/a	n/a	n/a
547.43	n/a	REC_START	273715	n/a	LTP236	ltpFR	13	1	n/a	n/a	n/a	n/a	n/a	n/a	0	0	0	n/a	n/a	n/a	n/a	n/a
549.844	n/a	REC_WORD	274922	wordpools/wasnorm_wordpool_less_exclusions.txt	LTP236	ltpFR	13	1	1	POLE	1097	n/a	0	n/a	0	0	0	n/a	n/a	n/a	n/a	n/a
551.62	n/a	REC_WORD	275810	wordpools/wasnorm_wordpool_less_exclusions.txt	LTP236	ltpFR	13	1	0	NET	946	n/a	0	n/a	0	0	0	n/a	n/a	n/a	n/a	n/a
555.61	n/a	REC_WORD	277805	wordpools/wasnorm_wordpool_less_exclusions.txt	LTP236	ltpFR	13	1	1	CAMEL	223	n/a	1	n/a	0	0	0	n/a	n/a	n/a	n/a	n/a
559.052	n/a	REC_WORD	279526	wordpools/wasnorm_wordpool_less_exclusions.txt	LTP236	ltpFR	13	1	1	DIVER	476	n/a	1	n/a	0	0	0	n/a	n/a	n/a	n/a	n/a
562.016	n/a	REC_WORD	281008	wordpools/wasnorm_wordpool_less_exclusions.txt	LTP236	ltpFR	13	1	0	DECK	443	n/a	0	n/a	0	0	0	n/a	n/a	n/a	n/a	n/a
576.538	n/a	REC_WORD	288269	wordpools/wasnorm_wordpool_less_exclusions.txt	LTP236	ltpFR	13	1	0	HAWK	692	n/a	1	n/a	0	0	0	n/a	n/a	n/a	n/a	n/a
581.054	n/a	REC_WORD	290527	wordpools/wasnorm_wordpool_less_exclusions.txt	LTP236	ltpFR	13	1	0	FURNITURE	616	n/a	1	n/a	0	0	0	n/a	n/a	n/a	n/a	n/a
582.202	n/a	REC_WORD	291101	wordpools/wasnorm_wordpool_less_exclusions.txt	LTP236	ltpFR	13	1	0	PATIO	1025	n/a	1	n/a	0	0	0	n/a	n/a	n/a	n/a	n/a
626.196	n/a	WORD	313098	wordpools/wasnorm_wordpool_less_exclusions.txt	LTP236	ltpFR	13	2	1	CAGE	218	n/a	0	n/a	0	0	0	0	0.5869140625	0.422607421875	lower	../fonts/zerothre.ttf
630.228	n/a	WORD	315114	wordpools/wasnorm_wordpool_less_exclusions.txt	LTP236	ltpFR	13	2	1	LEOPARD	812	n/a	1	n/a	0	0	0	0	0.5869140625	0.422607421875	lower	../fonts/zerothre.ttf
634.424	n/a	WORD	317212	wordpools/wasnorm_wordpool_less_exclusions.txt	LTP236	ltpFR	13	2	1	BUBBLE	183	n/a	0	n/a	0	0	0	0	0.5869140625	0.422607421875	lower	../fonts/zerothre.ttf
638.272	n/a	WORD	319136	wordpools/wasnorm_wordpool_less_exclusions.txt	LTP236	ltpFR	13	2	1	FRECKLE	602	n/a	0	n/a	0	0	0	0	0.5869140625	0.422607421875	lower	../fonts/zerothre.ttf
642.124	n/a	WORD	321062	wordpools/wasnorm_wordpool_less_exclusions.txt	LTP236	ltpFR	13	2	1	GOOSE	649	n/a	1	n/a	0	0	0	0	0.5869140625	0.422607421875	lower	../fonts/zerothre.ttf
645.954	n/a	WORD	322977	wordpools/wasnorm_wordpool_less_exclusions.txt	LTP236	ltpFR	13	2	0	CHECK	284	n/a	0	n/a	0	0	0	1	0.412841796875	0.57763671875	upper	../fonts/amplitud.ttf
650.12	n/a	WORD	325060	wordpools/wasnorm_wordpool_less_exclusions.txt	LTP236	ltpFR	13	2	0	BAY	102	n/a	1	n/a	0	0	0	1	0.412841796875	0.57763671875	upper	../fonts/amplitud.ttf
654.182	n/a	WORD	327091	wordpools/wasnorm_wordpool_less_exclusions.txt	LTP236	ltpFR	13	2	0	SPINE	1353	n/a	1	n/a	0	0	0	1	0.412841796875	0.57763671875	upper	../fonts/amplitud.ttf
658.352	n/a	WORD	329176	wordpools/wasnorm_wordpool_less_exclusions.txt	LTP236	ltpFR	13	2	1	GIRAFFE	636	n/a	1	n/a	0	0	0	0	0.5869140625	0.422607421875	lower	../fonts/zerothre.ttf
662.484	n/a	WORD	331242	wordpools/wasnorm_wordpool_less_exclusions.txt	LTP236	ltpFR	13	2	1	ASTEROID	50	n/a	0	n/a	0	0	0	0	0.5869140625	0.422607421875	lower	../fonts/zerothre.ttf
666.396	n/a	WORD	333198	wordpools/wasnorm_wordpool_less_exclusions.txt	LTP236	ltpFR	13	2	1	ASTRONAUT	51	n/a	1	n/a	0	0	0	0	0.5869140625	0.422607421875	lower	../fonts/zerothre.ttf
670.464	n/a	WORD	335232	wordpools/wasnorm_wordpool_less_exclusions.txt	LTP236	ltpFR	13	2	0	SERVER	1272	n/a	1	n/a	0	0	0	1	0.412841796875	0.57763671875	upper	../fonts/amplitud.ttf
674.564	n/a	WORD	337282	wordpools/wasnorm_wordpool_less_exclusions.txt	LTP236	ltpFR	13	2	0	POSSUM	1112	n/a	1	n/a	0	0	0	1	0.412841796875	0.57763671875	upper	../fonts/amplitud.ttf
678.596	n/a	WORD	339298	wordpools/wasnorm_wordpool_less_exclusions.txt	LTP236	ltpFR	13	2	0	RECEIPT	1173	n/a	0	n/a	0	0	0	1	0.412841796875	0.57763671875	upper	../fonts/amplitud.ttf
682.54	n/a	WORD	341270	wordpools/wasnorm_wordpool_less_exclusions.txt	LTP236	ltpFR	13	2	0	WAIST	1579	n/a	1	n/a	0	0	0	1	0.412841796875	0.57763671875	upper	../fonts/amplitud.ttf
686.744	n/a	WORD	343372	wordpools/wasnorm_wordpool_less_exclusions.txt	LTP236	ltpFR	13	2	0	MARROW	872	n/a	0	n/a	0	0	0	1	0.412841796875	0.57763671875	upper	../fonts/amplitud.ttf
689.756	n/a	START	344878	n/a	LTP236	ltpFR	13	n/a	n/a	n/a	n/a	n/a	n/a	n/a	n/a	n/a	n/a	n/a	n/a	n/a	n/a	n/a
690.672	n/a	PROB	345336	n/a	LTP236	ltpFR	13	n/a	n/a	n/a	n/a	n/a	n/a	11	8	1	2	n/a	n/a	n/a	n/a	n/a
692.244	n/a	PROB	346122	n/a	LTP236	ltpFR	13	n/a	n/a	n/a	n/a	n/a	n/a	21	7	9	5	n/a	n/a	n/a	n/a	n/a
693.402	n/a	PROB	346701	n/a	LTP236	ltpFR	13	n/a	n/a	n/a	n/a	n/a	n/a	13	5	2	6	n/a	n/a	n/a	n/a	n/a
694.44	n/a	PROB	347220	n/a	LTP236	ltpFR	13	n/a	n/a	n/a	n/a	n/a	n/a	22	9	9	4	n/a	n/a	n/a	n/a	n/a
695.64	n/a	PROB	347820	n/a	LTP236	ltpFR	13	n/a	n/a	n/a	n/a	n/a	n/a	21	4	8	9	n/a	n/a	n/a	n/a	n/a
696.748	n/a	STOP	348374	n/a	LTP236	ltpFR	13	n/a	n/a	n/a	n/a	n/a	n/a	n/a	n/a	n/a	n/a	n/a	n/a	n/a	n/a	n/a
699.528	n/a	REC_START	349764	n/a	LTP236	ltpFR	13	2	n/a	n/a	n/a	n/a	n/a	n/a	0	0	0	n/a	n/a	n/a	n/a	n/a
700.71	n/a	REC_WORD	350355	wordpools/wasnorm_wordpool_less_exclusions.txt	LTP236	ltpFR	13	2	0	WAIST	1579	n/a	1	n/a	0	0	0	n/a	n/a	n/a	n/a	n/a
701.872	n/a	REC_WORD	350936	wordpools/wasnorm_wordpool_less_exclusions.txt	LTP236	ltpFR	13	2	0	MARROW	872	n/a	0	n/a	0	0	0	n/a	n/a	n/a	n/a	n/a
702.598	n/a	REC_WORD	351299	wordpools/wasnorm_wordpool_less_exclusions.txt	LTP236	ltpFR	13	2	0	SPINE	1353	n/a	1	n/a	0	0	0	n/a	n/a	n/a	n/a	n/a
703.598	n/a	REC_WORD_VV	351799	wordpools/wasnorm_wordpool_less_exclusions.txt	LTP236	ltpFR	13	2	n/a	<>	-1	n/a	n/a	n/a	0	0	0	n/a	n/a	n/a	n/a	n/a
706.442	n/a	REC_WORD	353221	wordpools/wasnorm_wordpool_less_exclusions.txt	LTP236	ltpFR	13	2	1	ASTEROID	50	n/a	0	n/a	0	0	0	n/a	n/a	n/a	n/a	n/a
707.42	n/a	REC_WORD	353710	wordpools/wasnorm_wordpool_less_exclusions.txt	LTP236	ltpFR	13	2	1	ASTRONAUT	51	n/a	1	n/a	0	0	0	n/a	n/a	n/a	n/a	n/a
722.356	n/a	REC_WORD	361178	wordpools/wasnorm_wordpool_less_exclusions.txt	LTP236	ltpFR	13	2	0	SERVER	1272	n/a	1	n/a	0	0	0	n/a	n/a	n/a	n/a	n/a
723.374	n/a	REC_WORD	361687	wordpools/wasnorm_wordpool_less_exclusions.txt	LTP236	ltpFR	13	2	0	RECEIPT	1173	n/a	0	n/a	0	0	0	n/a	n/a	n/a	n/a	n/a
744.208	n/a	REC_WORD	372104	wordpools/wasnorm_wordpool_less_exclusions.txt	LTP236	ltpFR	13	2	1	GIRAFFE	636	n/a	1	n/a	0	0	0	n/a	n/a	n/a	n/a	n/a
761.46	n/a	REC_WORD	380730	wordpools/wasnorm_wordpool_less_exclusions.txt	LTP236	ltpFR	13	2	0	POSSUM	1112	n/a	1	n/a	0	0	0	n/a	n/a	n/a	n/a	n/a
776.388	n/a	START	388194	n/a	LTP236	ltpFR	13	n/a	n/a	n/a	n/a	n/a	n/a	n/a	n/a	n/a	n/a	n/a	n/a	n/a	n/a	n/a
777.892	n/a	PROB	388946	n/a	LTP236	ltpFR	13	n/a	n/a	n/a	n/a	n/a	n/a	16	5	8	3	n/a	n/a	n/a	n/a	n/a
779.328	n/a	PROB	389664	n/a	LTP236	ltpFR	13	n/a	n/a	n/a	n/a	n/a	n/a	12	4	1	7	n/a	n/a	n/a	n/a	n/a
780.414	n/a	PROB	390207	n/a	LTP236	ltpFR	13	n/a	n/a	n/a	n/a	n/a	n/a	12	7	1	4	n/a	n/a	n/a	n/a	n/a
781.704	n/a	PROB	390852	n/a	LTP236	ltpFR	13	n/a	n/a	n/a	n/a	n/a	n/a	13	7	5	1	n/a	n/a	n/a	n/a	n/a
782.708	n/a	PROB	391354	n/a	LTP236	ltpFR	13	n/a	n/a	n/a	n/a	n/a	n/a	19	9	4	6	n/a	n/a	n/a	n/a	n/a
783.944	n/a	PROB	391972	n/a	LTP236	ltpFR	13	n/a	n/a	n/a	n/a	n/a	n/a	17	8	1	8	n/a	n/a	n/a	n/a	n/a
785.102	n/a	PROB	392551	n/a	LTP236	ltpFR	13	n/a	n/a	n/a	n/a	n/a	n/a	17	7	4	6	n/a	n/a	n/a	n/a	n/a
786.338	n/a	PROB	393169	n/a	LTP236	ltpFR	13	n/a	n/a	n/a	n/a	n/a	n/a	22	7	7	8	n/a	n/a	n/a	n/a	n/a
787.496	n/a	PROB	393748	n/a	LTP236	ltpFR	13	n/a	n/a	n/a	n/a	n/a	n/a	15	2	8	5	n/a	n/a	n/a	n/a	n/a
788.784	n/a	PROB	394392	n/a	LTP236	ltpFR	13	n/a	n/a	n/a	n/a	n/a	n/a	10	3	6	1	n/a	n/a	n/a	n/a	n/a
790.018	n/a	PROB	395009	n/a	LTP236	ltpFR	13	n/a	n/a	n/a	n/a	n/a	n/a	25	8	8	9	n/a	n/a	n/a	n/a	n/a
791.384	n/a	STOP	395692	n/a	LTP236	ltpFR	13	n/a	n/a	n/a	n/a	n/a	n/a	n/a	n/a	n/a	n/a	n/a	n/a	n/a	n/a	n/a
793.402	n/a	WORD	396701	wordpools/wasnorm_wordpool_less_exclusions.txt	LTP236	ltpFR	13	3	0	COOLER	375	n/a	1	n/a	0	0	0	1	0.412841796875	0.57763671875	upper	../fonts/amplitud.ttf
796.414	n/a	START	398207	n/a	LTP236	ltpFR	13	n/a	n/a	n/a	n/a	n/a	n/a	n/a	n/a	n/a	n/a	n/a	n/a	n/a	n/a	n/a
797.232	n/a	PROB	398616	n/a	LTP236	ltpFR	13	n/a	n/a	n/a	n/a	n/a	n/a	20	6	7	7	n/a	n/a	n/a	n/a	n/a
798.818	n/a	PROB	399409	n/a	LTP236	ltpFR	13	n/a	n/a	n/a	n/a	n/a	n/a	19	8	3	8	n/a	n/a	n/a	n/a	n/a
799.956	n/a	PROB	399978	n/a	LTP236	ltpFR	13	n/a	n/a	n/a	n/a	n/a	n/a	13	5	1	7	n/a	n/a	n/a	n/a	n/a
801.314	n/a	PROB	400657	n/a	LTP236	ltpFR	13	n/a	n/a	n/a	n/a	n/a	n/a	5	1	2	2	n/a	n/a	n/a	n/a	n/a
802.5	n/a	PROB	401250	n/a	LTP236	ltpFR	13	n/a	n/a	n/a	n/a	n/a	n/a	14	2	8	4	n/a	n/a	n/a	n/a	n/a
803.62	n/a	PROB	401810	n/a	LTP236	ltpFR	13	n/a	n/a	n/a	n/a	n/a	n/a	9	4	1	4	n/a	n/a	n/a	n/a	n/a
805.41	n/a	PROB	402705	n/a	LTP236	ltpFR	13	n/a	n/a	n/a	n/a	n/a	n/a	12	4	1	7	n/a	n/a	n/a	n/a	n/a
806.732	n/a	PROB	403366	n/a	LTP236	ltpFR	13	n/a	n/a	n/a	n/a	n/a	n/a	22	8	7	7	n/a	n/a	n/a	n/a	n/a
808.054	n/a	PROB	404027	n/a	LTP236	ltpFR	13	n/a	n/a	n/a	n/a	n/a	n/a	20	6	8	6	n/a	n/a	n/a	n/a	n/a
809.274	n/a	PROB	404637	n/a	LTP236	ltpFR	13	n/a	n/a	n/a	n/a	n/a	n/a	17	6	6	5	n/a	n/a	n/a	n/a	n/a
811.706	n/a	STOP	405853	n/a	LTP236	ltpFR	13	n/a	n/a	n/a	n/a	n/a	n/a	n/a	n/a	n/a	n/a	n/a	n/a	n/a	n/a	n/a
813.392	n/a	WORD	406696	wordpools/wasnorm_wordpool_less_exclusions.txt	LTP236	ltpFR	13	3	0	LAWN	805	n/a	1	n/a	0	0	0	1	0.412841796875	0.57763671875	upper	../fonts/amplitud.ttf
816.406	n/a	START	408203	n/a	LTP236	ltpFR	13	n/a	n/a	n/a	n/a	n/a	n/a	n/a	n/a	n/a	n/a	n/a	n/a	n/a	n/a	n/a
817.242	n/a	PROB	408621	n/a	LTP236	ltpFR	13	n/a	n/a	n/a	n/a	n/a	n/a	20	7	4	9	n/a	n/a	n/a	n/a	n/a
819.162	n/a	PROB	409581	n/a	LTP236	ltpFR	13	n/a	n/a	n/a	n/a	n/a	n/a	15	9	4	2	n/a	n/a	n/a	n/a	n/a
820.268	n/a	PROB	410134	n/a	LTP236	ltpFR	13	n/a	n/a	n/a	n/a	n/a	n/a	13	1	3	9	n/a	n/a	n/a	n/a	n/a
822.174	n/a	PROB	411087	n/a	LTP236	ltpFR	13	n/a	n/a	n/a	n/a	n/a	n/a	8	3	4	1	n/a	n/a	n/a	n/a	n/a
823.228	n/a	PROB	411614	n/a	LTP236	ltpFR	13	n/a	n/a	n/a	n/a	n/a	n/a	14	6	6	2	n/a	n/a	n/a	n/a	n/a
824.42	n/a	PROB	412210	n/a	LTP236	ltpFR	13	n/a	n/a	n/a	n/a	n/a	n/a	15	7	7	1	n/a	n/a	n/a	n/a	n/a
825.536	n/a	PROB	412768	n/a	LTP236	ltpFR	13	n/a	n/a	n/a	n/a	n/a	n/a	19	7	3	9	n/a	n/a	n/a	n/a	n/a
830.038	n/a	PROB	415019	n/a	LTP236	ltpFR	13	n/a	n/a	n/a	n/a	n/a	n/a	15	4	5	6	n/a	n/a	n/a	n/a	n/a
830.962	n/a	STOP	415481	n/a	LTP236	ltpFR	13	n/a	n/a	n/a	n/a	n/a	n/a	n/a	n/a	n/a	n/a	n/a	n/a	n/a	n/a	n/a
833.622	n/a	WORD	416811	wordpools/wasnorm_wordpool_less_exclusions.txt	LTP236	ltpFR	13	3	0	SHOULDER	1294	n/a	1	n/a	0	0	0	1	0.412841796875	0.57763671875	upper	../fonts/amplitud.ttf
836.634	n/a	START	418317	n/a	LTP236	ltpFR	13	n/a	n/a	n/a	n/a	n/a	n/a	n/a	n/a	n/a	n/a	n/a	n/a	n/a	n/a	n/a
837.772	n/a	PROB	418886	n/a	LTP236	ltpFR	13	n/a	n/a	n/a	n/a	n/a	n/a	14	2	9	3	n/a	n/a	n/a	n/a	n/a
840.31	n/a	PROB	420155	n/a	LTP236	ltpFR	13	n/a	n/a	n/a	n/a	n/a	n/a	16	7	7	2	n/a	n/a	n/a	n/a	n/a
841.38	n/a	PROB	420690	n/a	LTP236	ltpFR	13	n/a	n/a	n/a	n/a	n/a	n/a	10	7	2	1	n/a	n/a	n/a	n/a	n/a
843.204	n/a	PROB	421602	n/a	LTP236	ltpFR	13	n/a	n/a	n/a	n/a	n/a	n/a	16	7	3	6	n/a	n/a	n/a	n/a	n/a
844.292	n/a	PROB	422146	n/a	LTP236	ltpFR	13	n/a	n/a	n/a	n/a	n/a	n/a	16	6	2	8	n/a	n/a	n/a	n/a	n/a
846.686	n/a	PROB	423343	n/a	LTP236	ltpFR	13	n/a	n/a	n/a	n/a	n/a	n/a	17	9	2	6	n/a	n/a	n/a	n/a	n/a
847.872	n/a	PROB	423936	n/a	LTP236	ltpFR	13	n/a	n/a	n/a	n/a	n/a	n/a	13	3	7	3	n/a	n/a	n/a	n/a	n/a
848.83	n/a	PROB	424415	n/a	LTP236	ltpFR	13	n/a	n/a	n/a	n/a	n/a	n/a	18	8	6	4	n/a	n/a	n/a	n/a	n/a
849.948	n/a	PROB	424974	n/a	LTP236	ltpFR	13	n/a	n/a	n/a	n/a	n/a	n/a	15	1	5	9	n/a	n/a	n/a	n/a	n/a
851.006	n/a	PROB	425503	n/a	LTP236	ltpFR	13	n/a	n/a	n/a	n/a	n/a	n/a	22	9	6	7	n/a	n/a	n/a	n/a	n/a
852.14	n/a	STOP	426070	n/a	LTP236	ltpFR	13	n/a	n/a	n/a	n/a	n/a	n/a	n/a	n/a	n/a	n/a	n/a	n/a	n/a	n/a	n/a
853.614	n/a	WORD	426807	wordpools/wasnorm_wordpool_less_exclusions.txt	LTP236	ltpFR	13	3	0	SILVERWARE	1308	n/a	0	n/a	0	0	0	1	0.412841796875	0.57763671875	upper	../fonts/amplitud.ttf
856.628	n/a	START	428314	n/a	LTP236	ltpFR	13	n/a	n/a	n/a	n/a	n/a	n/a	n/a	n/a	n/a	n/a	n/a	n/a	n/a	n/a	n/a
857.514	n/a	PROB	428757	n/a	LTP236	ltpFR	13	n/a	n/a	n/a	n/a	n/a	n/a	9	2	1	6	n/a	n/a	n/a	n/a	n/a
861.742	n/a	PROB	430871	n/a	LTP236	ltpFR	13	n/a	n/a	n/a	n/a	n/a	n/a	15	5	8	2	n/a	n/a	n/a	n/a	n/a
863.95	n/a	PROB	431975	n/a	LTP236	ltpFR	13	n/a	n/a	n/a	n/a	n/a	n/a	20	7	7	6	n/a	n/a	n/a	n/a	n/a
865.522	n/a	PROB	432761	n/a	LTP236	ltpFR	13	n/a	n/a	n/a	n/a	n/a	n/a	13	1	6	6	n/a	n/a	n/a	n/a	n/a
867.114	n/a	PROB	433557	n/a	LTP236	ltpFR	13	n/a	n/a	n/a	n/a	n/a	n/a	13	2	8	3	n/a	n/a	n/a	n/a	n/a
868.172	n/a	PROB	434086	n/a	LTP236	ltpFR	13	n/a	n/a	n/a	n/a	n/a	n/a	22	8	7	7	n/a	n/a	n/a	n/a	n/a
869.724	n/a	PROB	434862	n/a	LTP236	ltpFR	13	n/a	n/a	n/a	n/a	n/a	n/a	18	9	6	3	n/a	n/a	n/a	n/a	n/a
870.828	n/a	PROB	435414	n/a	LTP236	ltpFR	13	n/a	n/a	n/a	n/a	n/a	n/a	24	8	8	8	n/a	n/a	n/a	n/a	n/a
872.108	n/a	STOP	436054	n/a	LTP236	ltpFR	13	n/a	n/a	n/a	n/a	n/a	n/a	n/a	n/a	n/a	n/a	n/a	n/a	n/a	n/a	n/a
873.658	n/a	WORD	436829	wordpools/wasnorm_wordpool_less_exclusions.txt	LTP236	ltpFR	13	3	0	FRIAR	605	n/a	1	n/a	0	0	0	1	0.412841796875	0.57763671875	upper	../fonts/amplitud.ttf
876.67	n/a	START	438335	n/a	LTP236	ltpFR	13	n/a	n/a	n/a	n/a	n/a	n/a	n/a	n/a	n/a	n/a	n/a	n/a	n/a	n/a	n/a
877.636	n/a	PROB	438818	n/a	LTP236	ltpFR	13	n/a	n/a	n/a	n/a	n/a	n/a	11	5	3	3	n/a	n/a	n/a	n/a	n/a
879.464	n/a	PROB	439732	n/a	LTP236	ltpFR	13	n/a	n/a	n/a	n/a	n/a	n/a	18	9	5	4	n/a	n/a	n/a	n/a	n/a
880.77	n/a	PROB	440385	n/a	LTP236	ltpFR	13	n/a	n/a	n/a	n/a	n/a	n/a	19	5	5	9	n/a	n/a	n/a	n/a	n/a
882.338	n/a	PROB	441169	n/a	LTP236	ltpFR	13	n/a	n/a	n/a	n/a	n/a	n/a	17	2	9	6	n/a	n/a	n/a	n/a	n/a
883.694	n/a	PROB	441847	n/a	LTP236	ltpFR	13	n/a	n/a	n/a	n/a	n/a	n/a	13	7	1	5	n/a	n/a	n/a	n/a	n/a
884.948	n/a	PROB	442474	n/a	LTP236	ltpFR	13	n/a	n/a	n/a	n/a	n/a	n/a	15	2	5	8	n/a	n/a	n/a	n/a	n/a
886.706	n/a	PROB	443353	n/a	LTP236	ltpFR	13	n/a	n/a	n/a	n/a	n/a	n/a	9	6	2	1	n/a	n/a	n/a	n/a	n/a
887.676	n/a	PROB	443838	n/a	LTP236	ltpFR	13	n/a	n/a	n/a	n/a	n/a	n/a	21	8	7	6	n/a	n/a	n/a	n/a	n/a
888.88	n/a	PROB	444440	n/a	LTP236	ltpFR	13	n/a	n/a	n/a	n/a	n/a	n/a	12	5	6	1	n/a	n/a	n/a	n/a	n/a
890.52	n/a	PROB	445260	n/a	LTP236	ltpFR	13	n/a	n/a	n/a	n/a	n/a	n/a	16	3	7	6	n/a	n/a	n/a	n/a	n/a
891.486	n/a	STOP	445743	n/a	LTP236	ltpFR	13	n/a	n/a	n/a	n/a	n/a	n/a	n/a	n/a	n/a	n/a	n/a	n/a	n/a	n/a	n/a
893.618	n/a	WORD	446809	wordpools/wasnorm_wordpool_less_exclusions.txt	LTP236	ltpFR	13	3	0	CREATURE	403	n/a	1	n/a	0	0	0	1	0.412841796875	0.57763671875	upper	../fonts/amplitud.ttf
896.63	n/a	START	448315	n/a	LTP236	ltpFR	13	n/a	n/a	n/a	n/a	n/a	n/a	n/a	n/a	n/a	n/a	n/a	n/a	n/a	n/a	n/a
897.666	n/a	PROB	448833	n/a	LTP236	ltpFR	13	n/a	n/a	n/a	n/a	n/a	n/a	14	4	1	9	n/a	n/a	n/a	n/a	n/a
899.624	n/a	PROB	449812	n/a	LTP236	ltpFR	13	n/a	n/a	n/a	n/a	n/a	n/a	20	2	9	9	n/a	n/a	n/a	n/a	n/a
901.494	n/a	PROB	450747	n/a	LTP236	ltpFR	13	n/a	n/a	n/a	n/a	n/a	n/a	20	7	7	6	n/a	n/a	n/a	n/a	n/a
902.736	n/a	PROB	451368	n/a	LTP236	ltpFR	13	n/a	n/a	n/a	n/a	n/a	n/a	11	8	1	2	n/a	n/a	n/a	n/a	n/a
903.954	n/a	PROB	451977	n/a	LTP236	ltpFR	13	n/a	n/a	n/a	n/a	n/a	n/a	20	7	4	9	n/a	n/a	n/a	n/a	n/a
905.258	n/a	PROB	452629	n/a	LTP236	ltpFR	13	n/a	n/a	n/a	n/a	n/a	n/a	8	1	1	6	n/a	n/a	n/a	n/a	n/a
906.284	n/a	PROB	453142	n/a	LTP236	ltpFR	13	n/a	n/a	n/a	n/a	n/a	n/a	8	1	5	2	n/a	n/a	n/a	n/a	n/a
907.836	n/a	PROB	453918	n/a	LTP236	ltpFR	13	n/a	n/a	n/a	n/a	n/a	n/a	22	7	8	7	n/a	n/a	n/a	n/a	n/a
909.04	n/a	PROB	454520	n/a	LTP236	ltpFR	13	n/a	n/a	n/a	n/a	n/a	n/a	23	8	8	7	n/a	n/a	n/a	n/a	n/a
910.764	n/a	PROB	455382	n/a	LTP236	ltpFR	13	n/a	n/a	n/a	n/a	n/a	n/a	15	3	8	4	n/a	n/a	n/a	n/a	n/a
911.926	n/a	STOP	455963	n/a	LTP236	ltpFR	13	n/a	n/a	n/a	n/a	n/a	n/a	n/a	n/a	n/a	n/a	n/a	n/a	n/a	n/a	n/a
913.628	n/a	WORD	456814	wordpools/wasnorm_wordpool_less_exclusions.txt	LTP236	ltpFR	13	3	0	TRAY	1498	n/a	0	n/a	0	0	0	1	0.412841796875	0.57763671875	upper	../fonts/amplitud.ttf
916.64	n/a	START	458320	n/a	LTP236	ltpFR	13	n/a	n/a	n/a	n/a	n/a	n/a	n/a	n/a	n/a	n/a	n/a	n/a	n/a	n/a	n/a
917.458	n/a	PROB	458729	n/a	LTP236	ltpFR	13	n/a	n/a	n/a	n/a	n/a	n/a	19	6	4	9	n/a	n/a	n/a	n/a	n/a
918.794	n/a	PROB	459397	n/a	LTP236	ltpFR	13	n/a	n/a	n/a	n/a	n/a	n/a	13	5	3	5	n/a	n/a	n/a	n/a	n/a
920.722	n/a	PROB	460361	n/a	LTP236	ltpFR	13	n/a	n/a	n/a	n/a	n/a	n/a	15	7	2	6	n/a	n/a	n/a	n/a	n/a
921.808	n/a	PROB	460904	n/a	LTP236	ltpFR	13	n/a	n/a	n/a	n/a	n/a	n/a	22	8	6	8	n/a	n/a	n/a	n/a	n/a
922.976	n/a	PROB	461488	n/a	LTP236	ltpFR	13	n/a	n/a	n/a	n/a	n/a	n/a	15	9	4	2	n/a	n/a	n/a	n/a	n/a
924.016	n/a	PROB	462008	n/a	LTP236	ltpFR	13	n/a	n/a	n/a	n/a	n/a	n/a	12	7	3	2	n/a	n/a	n/a	n/a	n/a
925.004	n/a	PROB	462502	n/a	LTP236	ltpFR	13	n/a	n/a	n/a	n/a	n/a	n/a	10	3	1	6	n/a	n/a	n/a	n/a	n/a
926.088	n/a	PROB	463044	n/a	LTP236	ltpFR	13	n/a	n/a	n/a	n/a	n/a	n/a	16	7	3	6	n/a	n/a	n/a	n/a	n/a
927.26	n/a	PROB	463630	n/a	LTP236	ltpFR	13	n/a	n/a	n/a	n/a	n/a	n/a	13	1	9	3	n/a	n/a	n/a	n/a	n/a
928.246	n/a	PROB	464123	n/a	LTP236	ltpFR	13	n/a	n/a	n/a	n/a	n/a	n/a	16	1	9	6	n/a	n/a	n/a	n/a	n/a
932.072	n/a	STOP	466036	n/a	LTP236	ltpFR	13	n/a	n/a	n/a	n/a	n/a	n/a	n/a	n/a	n/a	n/a	n/a	n/a	n/a	n/a	n/a
933.536	n/a	WORD	466768	wordpools/wasnorm_wordpool_less_exclusions.txt	LTP236	ltpFR	13	3	0	CRICKET	408	n/a	1	n/a	0	0	0	1	0.412841796875	0.57763671875	upper	../fonts/amplitud.ttf
936.548	n/a	START	468274	n/a	LTP236	ltpFR	13	n/a	n/a	n/a	n/a	n/a	n/a	n/a	n/a	n/a	n/a	n/a	n/a	n/a	n/a	n/a
937.502	n/a	PROB	468751	n/a	LTP236	ltpFR	13	n/a	n/a	n/a	n/a	n/a	n/a	21	5	9	6	n/a	n/a	n/a	n/a	n/a
938.936	n/a	PROB	469468	n/a	LTP236	ltpFR	13	n/a	n/a	n/a	n/a	n/a	n/a	16	9	1	6	n/a	n/a	n/a	n/a	n/a
939.94	n/a	PROB	469970	n/a	LTP236	ltpFR	13	n/a	n/a	n/a	n/a	n/a	n/a	24	8	7	9	n/a	n/a	n/a	n/a	n/a
941.282	n/a	PROB	470641	n/a	LTP236	ltpFR	13	n/a	n/a	n/a	n/a	n/a	n/a	6	2	1	3	n/a	n/a	n/a	n/a	n/a
942.3	n/a	PROB	471150	n/a	LTP236	ltpFR	13	n/a	n/a	n/a	n/a	n/a	n/a	9	3	5	1	n/a	n/a	n/a	n/a	n/a
944.262	n/a	PROB	472131	n/a	LTP236	ltpFR	13	n/a	n/a	n/a	n/a	n/a	n/a	15	6	3	6	n/a	n/a	n/a	n/a	n/a
945.998	n/a	PROB	472999	n/a	LTP236	ltpFR	13	n/a	n/a	n/a	n/a	n/a	n/a	13	9	1	3	n/a	n/a	n/a	n/a	n/a
947.036	n/a	PROB	473518	n/a	LTP236	ltpFR	13	n/a	n/a	n/a	n/a	n/a	n/a	7	3	2	2	n/a	n/a	n/a	n/a	n/a
948.41	n/a	PROB	474205	n/a	LTP236	ltpFR	13	n/a	n/a	n/a	n/a	n/a	n/a	9	3	1	5	n/a	n/a	n/a	n/a	n/a
949.562	n/a	PROB	474781	n/a	LTP236	ltpFR	13	n/a	n/a	n/a	n/a	n/a	n/a	16	8	4	4	n/a	n/a	n/a	n/a	n/a
950.7	n/a	PROB	475350	n/a	LTP236	ltpFR	13	n/a	n/a	n/a	n/a	n/a	n/a	21	9	3	9	n/a	n/a	n/a	n/a	n/a
951.786	n/a	STOP	475893	n/a	LTP236	ltpFR	13	n/a	n/a	n/a	n/a	n/a	n/a	n/a	n/a	n/a	n/a	n/a	n/a	n/a	n/a	n/a
953.412	n/a	WORD	476706	wordpools/wasnorm_wordpool_less_exclusions.txt	LTP236	ltpFR	13	3	0	COCOON	339	n/a	0	n/a	0	0	0	1	0.412841796875	0.57763671875	upper	../fonts/amplitud.ttf
956.424	n/a	START	478212	n/a	LTP236	ltpFR	13	n/a	n/a	n/a	n/a	n/a	n/a	n/a	n/a	n/a	n/a	n/a	n/a	n/a	n/a	n/a
957.546	n/a	PROB	478773	n/a	LTP236	ltpFR	13	n/a	n/a	n/a	n/a	n/a	n/a	13	3	6	4	n/a	n/a	n/a	n/a	n/a
959.298	n/a	PROB	479649	n/a	LTP236	ltpFR	13	n/a	n/a	n/a	n/a	n/a	n/a	13	7	3	3	n/a	n/a	n/a	n/a	n/a
960.252	n/a	PROB	480126	n/a	LTP236	ltpFR	13	n/a	n/a	n/a	n/a	n/a	n/a	14	8	2	4	n/a	n/a	n/a	n/a	n/a
961.322	n/a	PROB	480661	n/a	LTP236	ltpFR	13	n/a	n/a	n/a	n/a	n/a	n/a	18	8	6	4	n/a	n/a	n/a	n/a	n/a
963.414	n/a	PROB	481707	n/a	LTP236	ltpFR	13	n/a	n/a	n/a	n/a	n/a	n/a	14	4	7	3	n/a	n/a	n/a	n/a	n/a
964.486	n/a	PROB	482243	n/a	LTP236	ltpFR	13	n/a	n/a	n/a	n/a	n/a	n/a	13	3	4	9	n/a	n/a	n/a	n/a	n/a
966.342	n/a	PROB	483171	n/a	LTP236	ltpFR	13	n/a	n/a	n/a	n/a	n/a	n/a	27	9	9	9	n/a	n/a	n/a	n/a	n/a
968.3	n/a	PROB	484150	n/a	LTP236	ltpFR	13	n/a	n/a	n/a	n/a	n/a	n/a	13	2	7	4	n/a	n/a	n/a	n/a	n/a
969.524	n/a	PROB	484762	n/a	LTP236	ltpFR	13	n/a	n/a	n/a	n/a	n/a	n/a	26	9	9	8	n/a	n/a	n/a	n/a	n/a
972.266	n/a	STOP	486133	n/a	LTP236	ltpFR	13	n/a	n/a	n/a	n/a	n/a	n/a	n/a	n/a	n/a	n/a	n/a	n/a	n/a	n/a	n/a
973.406	n/a	WORD	486703	wordpools/wasnorm_wordpool_less_exclusions.txt	LTP236	ltpFR	13	3	0	MOLECULE	905	n/a	0	n/a	0	0	0	1	0.412841796875	0.57763671875	upper	../fonts/amplitud.ttf
976.418	n/a	START	488209	n/a	LTP236	ltpFR	13	n/a	n/a	n/a	n/a	n/a	n/a	n/a	n/a	n/a	n/a	n/a	n/a	n/a	n/a	n/a
977.488	n/a	PROB	488744	n/a	LTP236	ltpFR	13	n/a	n/a	n/a	n/a	n/a	n/a	11	7	2	2	n/a	n/a	n/a	n/a	n/a
979.106	n/a	PROB	489553	n/a	LTP236	ltpFR	13	n/a	n/a	n/a	n/a	n/a	n/a	13	7	5	1	n/a	n/a	n/a	n/a	n/a
980.11	n/a	PROB	490055	n/a	LTP236	ltpFR	13	n/a	n/a	n/a	n/a	n/a	n/a	16	4	4	8	n/a	n/a	n/a	n/a	n/a
981.336	n/a	PROB	490668	n/a	LTP236	ltpFR	13	n/a	n/a	n/a	n/a	n/a	n/a	7	5	1	1	n/a	n/a	n/a	n/a	n/a
982.358	n/a	PROB	491179	n/a	LTP236	ltpFR	13	n/a	n/a	n/a	n/a	n/a	n/a	16	6	9	1	n/a	n/a	n/a	n/a	n/a
983.458	n/a	PROB	491729	n/a	LTP236	ltpFR	13	n/a	n/a	n/a	n/a	n/a	n/a	14	4	3	7	n/a	n/a	n/a	n/a	n/a
984.75	n/a	PROB	492375	n/a	LTP236	ltpFR	13	n/a	n/a	n/a	n/a	n/a	n/a	7	1	2	4	n/a	n/a	n/a	n/a	n/a
987.64	n/a	PROB	493820	n/a	LTP236	ltpFR	13	n/a	n/a	n/a	n/a	n/a	n/a	16	6	2	8	n/a	n/a	n/a	n/a	n/a
988.746	n/a	PROB	494373	n/a	LTP236	ltpFR	13	n/a	n/a	n/a	n/a	n/a	n/a	20	5	9	6	n/a	n/a	n/a	n/a	n/a
989.998	n/a	PROB	494999	n/a	LTP236	ltpFR	13	n/a	n/a	n/a	n/a	n/a	n/a	13	1	6	6	n/a	n/a	n/a	n/a	n/a
991.716	n/a	STOP	495858	n/a	LTP236	ltpFR	13	n/a	n/a	n/a	n/a	n/a	n/a	n/a	n/a	n/a	n/a	n/a	n/a	n/a	n/a	n/a
993.278	n/a	WORD	496639	wordpools/wasnorm_wordpool_less_exclusions.txt	LTP236	ltpFR	13	3	0	ELECTRON	522	n/a	0	n/a	0	0	0	1	0.412841796875	0.57763671875	upper	../fonts/amplitud.ttf
996.294	n/a	START	498147	n/a	LTP236	ltpFR	13	n/a	n/a	n/a	n/a	n/a	n/a	n/a	n/a	n/a	n/a	n/a	n/a	n/a	n/a	n/a
997.146	n/a	PROB	498573	n/a	LTP236	ltpFR	13	n/a	n/a	n/a	n/a	n/a	n/a	8	1	2	5	n/a	n/a	n/a	n/a	n/a
998.28	n/a	PROB	499140	n/a	LTP236	ltpFR	13	n/a	n/a	n/a	n/a	n/a	n/a	16	5	8	3	n/a	n/a	n/a	n/a	n/a
999.936	n/a	PROB	499968	n/a	LTP236	ltpFR	13	n/a	n/a	n/a	n/a	n/a	n/a	10	6	1	3	n/a	n/a	n/a	n/a	n/a
1001.058	n/a	PROB	500529	n/a	LTP236	ltpFR	13	n/a	n/a	n/a	n/a	n/a	n/a	17	7	8	5	n/a	n/a	n/a	n/a	n/a
1003.472	n/a	PROB	501736	n/a	LTP236	ltpFR	13	n/a	n/a	n/a	n/a	n/a	n/a	8	2	2	4	n/a	n/a	n/a	n/a	n/a
1004.894	n/a	PROB	502447	n/a	LTP236	ltpFR	13	n/a	n/a	n/a	n/a	n/a	n/a	7	3	1	3	n/a	n/a	n/a	n/a	n/a
1006.328	n/a	PROB	503164	n/a	LTP236	ltpFR	13	n/a	n/a	n/a	n/a	n/a	n/a	10	3	2	4	n/a	n/a	n/a	n/a	n/a
1007.52	n/a	PROB	503760	n/a	LTP236	ltpFR	13	n/a	n/a	n/a	n/a	n/a	n/a	15	8	3	2	n/a	n/a	n/a	n/a	n/a
1009.326	n/a	PROB	504663	n/a	LTP236	ltpFR	13	n/a	n/a	n/a	n/a	n/a	n/a	18	1	8	9	n/a	n/a	n/a	n/a	n/a
1010.73	n/a	PROB	505365	n/a	LTP236	ltpFR	13	n/a	n/a	n/a	n/a	n/a	n/a	16	2	7	7	n/a	n/a	n/a	n/a	n/a
1011.876	n/a	STOP	505938	n/a	LTP236	ltpFR	13	n/a	n/a	n/a	n/a	n/a	n/a	n/a	n/a	n/a	n/a	n/a	n/a	n/a	n/a	n/a
1013.342	n/a	WORD	506671	wordpools/wasnorm_wordpool_less_exclusions.txt	LTP236	ltpFR	13	3	0	SHEPHERD	1283	n/a	1	n/a	0	0	0	1	0.412841796875	0.57763671875	upper	../fonts/amplitud.ttf
1016.354	n/a	START	508177	n/a	LTP236	ltpFR	13	n/a	n/a	n/a	n/a	n/a	n/a	n/a	n/a	n/a	n/a	n/a	n/a	n/a	n/a	n/a
1017.206	n/a	PROB	508603	n/a	LTP236	ltpFR	13	n/a	n/a	n/a	n/a	n/a	n/a	17	6	2	9	n/a	n/a	n/a	n/a	n/a
1018.858	n/a	PROB	509429	n/a	LTP236	ltpFR	13	n/a	n/a	n/a	n/a	n/a	n/a	12	4	6	2	n/a	n/a	n/a	n/a	n/a
1019.83	n/a	PROB	509915	n/a	LTP236	ltpFR	13	n/a	n/a	n/a	n/a	n/a	n/a	15	5	1	9	n/a	n/a	n/a	n/a	n/a
1020.95	n/a	PROB	510475	n/a	LTP236	ltpFR	13	n/a	n/a	n/a	n/a	n/a	n/a	12	6	3	3	n/a	n/a	n/a	n/a	n/a
1022.16	n/a	PROB	511080	n/a	LTP236	ltpFR	13	n/a	n/a	n/a	n/a	n/a	n/a	11	2	5	4	n/a	n/a	n/a	n/a	n/a
1023.912	n/a	PROB	511956	n/a	LTP236	ltpFR	13	n/a	n/a	n/a	n/a	n/a	n/a	9	2	5	2	n/a	n/a	n/a	n/a	n/a
1025.086	n/a	PROB	512543	n/a	LTP236	ltpFR	13	n/a	n/a	n/a	n/a	n/a	n/a	19	4	9	6	n/a	n/a	n/a	n/a	n/a
1026.89	n/a	PROB	513445	n/a	LTP236	ltpFR	13	n/a	n/a	n/a	n/a	n/a	n/a	20	5	6	9	n/a	n/a	n/a	n/a	n/a
1028.58	n/a	PROB	514290	n/a	LTP236	ltpFR	13	n/a	n/a	n/a	n/a	n/a	n/a	17	6	3	8	n/a	n/a	n/a	n/a	n/a
1030.036	n/a	PROB	515018	n/a	LTP236	ltpFR	13	n/a	n/a	n/a	n/a	n/a	n/a	16	5	8	3	n/a	n/a	n/a	n/a	n/a
1030.996	n/a	STOP	515498	n/a	LTP236	ltpFR	13	n/a	n/a	n/a	n/a	n/a	n/a	n/a	n/a	n/a	n/a	n/a	n/a	n/a	n/a	n/a
1033.268	n/a	WORD	516634	wordpools/wasnorm_wordpool_less_exclusions.txt	LTP236	ltpFR	13	3	0	CHAPEL	280	n/a	1	n/a	0	0	0	1	0.412841796875	0.57763671875	upper	../fonts/amplitud.ttf
1036.28	n/a	START	518140	n/a	LTP236	ltpFR	13	n/a	n/a	n/a	n/a	n/a	n/a	n/a	n/a	n/a	n/a	n/a	n/a	n/a	n/a	n/a
1037.316	n/a	PROB	518658	n/a	LTP236	ltpFR	13	n/a	n/a	n/a	n/a	n/a	n/a	16	6	6	4	n/a	n/a	n/a	n/a	n/a
1038.602	n/a	PROB	519301	n/a	LTP236	ltpFR	13	n/a	n/a	n/a	n/a	n/a	n/a	15	2	9	4	n/a	n/a	n/a	n/a	n/a
1039.856	n/a	PROB	519928	n/a	LTP236	ltpFR	13	n/a	n/a	n/a	n/a	n/a	n/a	19	3	7	9	n/a	n/a	n/a	n/a	n/a
1040.928	n/a	PROB	520464	n/a	LTP236	ltpFR	13	n/a	n/a	n/a	n/a	n/a	n/a	17	3	5	9	n/a	n/a	n/a	n/a	n/a
1042.466	n/a	PROB	521233	n/a	LTP236	ltpFR	13	n/a	n/a	n/a	n/a	n/a	n/a	10	8	1	1	n/a	n/a	n/a	n/a	n/a
1043.642	n/a	PROB	521821	n/a	LTP236	ltpFR	13	n/a	n/a	n/a	n/a	n/a	n/a	18	2	9	7	n/a	n/a	n/a	n/a	n/a
1045.696	n/a	PROB	522848	n/a	LTP236	ltpFR	13	n/a	n/a	n/a	n/a	n/a	n/a	20	2	9	9	n/a	n/a	n/a	n/a	n/a
1047.138	n/a	PROB	523569	n/a	LTP236	ltpFR	13	n/a	n/a	n/a	n/a	n/a	n/a	15	7	2	6	n/a	n/a	n/a	n/a	n/a
1048.226	n/a	PROB	524113	n/a	LTP236	ltpFR	13	n/a	n/a	n/a	n/a	n/a	n/a	9	1	7	1	n/a	n/a	n/a	n/a	n/a
1049.308	n/a	PROB	524654	n/a	LTP236	ltpFR	13	n/a	n/a	n/a	n/a	n/a	n/a	11	1	7	3	n/a	n/a	n/a	n/a	n/a
1050.75	n/a	STOP	525375	n/a	LTP236	ltpFR	13	n/a	n/a	n/a	n/a	n/a	n/a	n/a	n/a	n/a	n/a	n/a	n/a	n/a	n/a	n/a
1053.444	n/a	WORD	526722	wordpools/wasnorm_wordpool_less_exclusions.txt	LTP236	ltpFR	13	3	0	SKIRT	1319	n/a	1	n/a	0	0	0	1	0.412841796875	0.57763671875	upper	../fonts/amplitud.ttf
1056.456	n/a	START	528228	n/a	LTP236	ltpFR	13	n/a	n/a	n/a	n/a	n/a	n/a	n/a	n/a	n/a	n/a	n/a	n/a	n/a	n/a	n/a
1057.544	n/a	PROB	528772	n/a	LTP236	ltpFR	13	n/a	n/a	n/a	n/a	n/a	n/a	13	6	5	2	n/a	n/a	n/a	n/a	n/a
1058.796	n/a	PROB	529398	n/a	LTP236	ltpFR	13	n/a	n/a	n/a	n/a	n/a	n/a	16	9	3	4	n/a	n/a	n/a	n/a	n/a
1060.0	n/a	PROB	530000	n/a	LTP236	ltpFR	13	n/a	n/a	n/a	n/a	n/a	n/a	19	7	5	7	n/a	n/a	n/a	n/a	n/a
1061.204	n/a	PROB	530602	n/a	LTP236	ltpFR	13	n/a	n/a	n/a	n/a	n/a	n/a	10	3	4	3	n/a	n/a	n/a	n/a	n/a
1062.442	n/a	PROB	531221	n/a	LTP236	ltpFR	13	n/a	n/a	n/a	n/a	n/a	n/a	16	8	6	2	n/a	n/a	n/a	n/a	n/a
1063.564	n/a	PROB	531782	n/a	LTP236	ltpFR	13	n/a	n/a	n/a	n/a	n/a	n/a	19	7	8	4	n/a	n/a	n/a	n/a	n/a
1064.818	n/a	PROB	532409	n/a	LTP236	ltpFR	13	n/a	n/a	n/a	n/a	n/a	n/a	13	1	6	6	n/a	n/a	n/a	n/a	n/a
1067.412	n/a	PROB	533706	n/a	LTP236	ltpFR	13	n/a	n/a	n/a	n/a	n/a	n/a	22	7	8	7	n/a	n/a	n/a	n/a	n/a
1068.586	n/a	PROB	534293	n/a	LTP236	ltpFR	13	n/a	n/a	n/a	n/a	n/a	n/a	12	1	7	4	n/a	n/a	n/a	n/a	n/a
1069.742	n/a	PROB	534871	n/a	LTP236	ltpFR	13	n/a	n/a	n/a	n/a	n/a	n/a	25	8	8	9	n/a	n/a	n/a	n/a	n/a
1070.902	n/a	STOP	535451	n/a	LTP236	ltpFR	13	n/a	n/a	n/a	n/a	n/a	n/a	n/a	n/a	n/a	n/a	n/a	n/a	n/a	n/a	n/a
1073.334	n/a	WORD	536667	wordpools/wasnorm_wordpool_less_exclusions.txt	LTP236	ltpFR	13	3	0	PARCEL	1012	n/a	1	n/a	0	0	0	1	0.412841796875	0.57763671875	upper	../fonts/amplitud.ttf
1076.35	n/a	START	538175	n/a	LTP236	ltpFR	13	n/a	n/a	n/a	n/a	n/a	n/a	n/a	n/a	n/a	n/a	n/a	n/a	n/a	n/a	n/a
1077.216	n/a	PROB	538608	n/a	LTP236	ltpFR	13	n/a	n/a	n/a	n/a	n/a	n/a	18	9	1	8	n/a	n/a	n/a	n/a	n/a
1078.688	n/a	PROB	539344	n/a	LTP236	ltpFR	13	n/a	n/a	n/a	n/a	n/a	n/a	15	7	1	7	n/a	n/a	n/a	n/a	n/a
1080.044	n/a	PROB	540022	n/a	LTP236	ltpFR	13	n/a	n/a	n/a	n/a	n/a	n/a	11	2	8	1	n/a	n/a	n/a	n/a	n/a
1081.098	n/a	PROB	540549	n/a	LTP236	ltpFR	13	n/a	n/a	n/a	n/a	n/a	n/a	10	4	5	1	n/a	n/a	n/a	n/a	n/a
1082.168	n/a	PROB	541084	n/a	LTP236	ltpFR	13	n/a	n/a	n/a	n/a	n/a	n/a	16	4	8	4	n/a	n/a	n/a	n/a	n/a
1083.206	n/a	PROB	541603	n/a	LTP236	ltpFR	13	n/a	n/a	n/a	n/a	n/a	n/a	19	9	8	2	n/a	n/a	n/a	n/a	n/a
1084.61	n/a	PROB	542305	n/a	LTP236	ltpFR	13	n/a	n/a	n/a	n/a	n/a	n/a	11	4	3	4	n/a	n/a	n/a	n/a	n/a
1086.37	n/a	PROB	543185	n/a	LTP236	ltpFR	13	n/a	n/a	n/a	n/a	n/a	n/a	10	1	1	8	n/a	n/a	n/a	n/a	n/a
1087.572	n/a	PROB	543786	n/a	LTP236	ltpFR	13	n/a	n/a	n/a	n/a	n/a	n/a	14	5	8	1	n/a	n/a	n/a	n/a	n/a
1089.362	n/a	PROB	544681	n/a	LTP236	ltpFR	13	n/a	n/a	n/a	n/a	n/a	n/a	8	1	2	5	n/a	n/a	n/a	n/a	n/a
1090.398	n/a	PROB	545199	n/a	LTP236	ltpFR	13	n/a	n/a	n/a	n/a	n/a	n/a	13	2	2	9	n/a	n/a	n/a	n/a	n/a
1091.608	n/a	STOP	545804	n/a	LTP236	ltpFR	13	n/a	n/a	n/a	n/a	n/a	n/a	n/a	n/a	n/a	n/a	n/a	n/a	n/a	n/a	n/a
1093.414	n/a	WORD	546707	wordpools/wasnorm_wordpool_less_exclusions.txt	LTP236	ltpFR	13	3	0	OFFICE	972	n/a	1	n/a	0	0	0	1	0.412841796875	0.57763671875	upper	../fonts/amplitud.ttf
1096.444	n/a	START	548222	n/a	LTP236	ltpFR	13	n/a	n/a	n/a	n/a	n/a	n/a	n/a	n/a	n/a	n/a	n/a	n/a	n/a	n/a	n/a
1097.564	n/a	PROB	548782	n/a	LTP236	ltpFR	13	n/a	n/a	n/a	n/a	n/a	n/a	7	1	1	5	n/a	n/a	n/a	n/a	n/a
1098.75	n/a	PROB	549375	n/a	LTP236	ltpFR	13	n/a	n/a	n/a	n/a	n/a	n/a	14	3	7	4	n/a	n/a	n/a	n/a	n/a
1099.818	n/a	PROB	549909	n/a	LTP236	ltpFR	13	n/a	n/a	n/a	n/a	n/a	n/a	16	6	7	3	n/a	n/a	n/a	n/a	n/a
1100.906	n/a	PROB	550453	n/a	LTP236	ltpFR	13	n/a	n/a	n/a	n/a	n/a	n/a	16	2	7	7	n/a	n/a	n/a	n/a	n/a
1102.348	n/a	PROB	551174	n/a	LTP236	ltpFR	13	n/a	n/a	n/a	n/a	n/a	n/a	16	4	6	6	n/a	n/a	n/a	n/a	n/a
1103.666	n/a	PROB	551833	n/a	LTP236	ltpFR	13	n/a	n/a	n/a	n/a	n/a	n/a	16	9	2	5	n/a	n/a	n/a	n/a	n/a
1105.24	n/a	PROB	552620	n/a	LTP236	ltpFR	13	n/a	n/a	n/a	n/a	n/a	n/a	22	9	9	4	n/a	n/a	n/a	n/a	n/a
1106.46	n/a	PROB	553230	n/a	LTP236	ltpFR	13	n/a	n/a	n/a	n/a	n/a	n/a	15	5	5	5	n/a	n/a	n/a	n/a	n/a
1107.464	n/a	PROB	553732	n/a	LTP236	ltpFR	13	n/a	n/a	n/a	n/a	n/a	n/a	20	3	8	9	n/a	n/a	n/a	n/a	n/a
1110.242	n/a	PROB	555121	n/a	LTP236	ltpFR	13	n/a	n/a	n/a	n/a	n/a	n/a	9	5	2	2	n/a	n/a	n/a	n/a	n/a
1111.352	n/a	STOP	555676	n/a	LTP236	ltpFR	13	n/a	n/a	n/a	n/a	n/a	n/a	n/a	n/a	n/a	n/a	n/a	n/a	n/a	n/a	n/a
1114.228	n/a	REC_START	557114	n/a	LTP236	ltpFR	13	3	n/a	n/a	n/a	n/a	n/a	n/a	0	0	0	n/a	n/a	n/a	n/a	n/a
1115.55	n/a	REC_WORD	557775	wordpools/wasnorm_wordpool_less_exclusions.txt	LTP236	ltpFR	13	3	0	OFFICE	972	n/a	1	n/a	0	0	0	n/a	n/a	n/a	n/a	n/a
1116.298	n/a	REC_WORD	558149	wordpools/wasnorm_wordpool_less_exclusions.txt	LTP236	ltpFR	13	3	0	PARCEL	1012	n/a	1	n/a	0	0	0	n/a	n/a	n/a	n/a	n/a
1117.156	n/a	REC_WORD	558578	wordpools/wasnorm_wordpool_less_exclusions.txt	LTP236	ltpFR	13	3	0	SKIRT	1319	n/a	1	n/a	0	0	0	n/a	n/a	n/a	n/a	n/a
1118.264	n/a	REC_WORD	559132	wordpools/wasnorm_wordpool_less_exclusions.txt	LTP236	ltpFR	13	3	0	FRIAR	605	n/a	1	n/a	0	0	0	n/a	n/a	n/a	n/a	n/a
1124.42	n/a	REC_WORD	562210	wordpools/wasnorm_wordpool_less_exclusions.txt	LTP236	ltpFR	13	3	0	CHAPEL	280	n/a	1	n/a	0	0	0	n/a	n/a	n/a	n/a	n/a
1131.354	n/a	REC_WORD	565677	wordpools/wasnorm_wordpool_less_exclusions.txt	LTP236	ltpFR	13	3	0	MOLECULE	905	n/a	0	n/a	0	0	0	n/a	n/a	n/a	n/a	n/a
1137.906	n/a	REC_WORD	568953	wordpools/wasnorm_wordpool_less_exclusions.txt	LTP236	ltpFR	13	3	0	ELECTRON	522	n/a	0	n/a	0	0	0	n/a	n/a	n/a	n/a	n/a
1138.906	n/a	REC_WORD_VV	569453	wordpools/wasnorm_wordpool_less_exclusions.txt	LTP236	ltpFR	13	3	n/a	<>	-1	n/a	n/a	n/a	0	0	0	n/a	n/a	n/a	n/a	n/a
1174.948	n/a	REC_WORD	587474	wordpools/wasnorm_wordpool_less_exclusions.txt	LTP236	ltpFR	13	3	0	LAWN	805	n/a	1	n/a	0	0	0	n/a	n/a	n/a	n/a	n/a
1176.44	n/a	REC_WORD	588220	wordpools/wasnorm_wordpool_less_exclusions.txt	LTP236	ltpFR	13	3	0	CREATURE	403	n/a	1	n/a	0	0	0	n/a	n/a	n/a	n/a	n/a
1178.894	n/a	REC_WORD	589447	wordpools/wasnorm_wordpool_less_exclusions.txt	LTP236	ltpFR	13	3	0	SILVERWARE	1308	n/a	0	n/a	0	0	0	n/a	n/a	n/a	n/a	n/a
1179.894	n/a	REC_WORD_VV	589947	wordpools/wasnorm_wordpool_less_exclusions.txt	LTP236	ltpFR	13	3	n/a	<>	-1	n/a	n/a	n/a	0	0	0	n/a	n/a	n/a	n/a	n/a
1182.96	n/a	REC_WORD	591480	wordpools/wasnorm_wordpool_less_exclusions.txt	LTP236	ltpFR	13	3	n/a	BASKET	95	n/a	n/a	n/a	0	0	0	n/a	n/a	n/a	n/a	n/a
1191.504	n/a	START	595752	n/a	LTP236	ltpFR	13	n/a	n/a	n/a	n/a	n/a	n/a	n/a	n/a	n/a	n/a	n/a	n/a	n/a	n/a	n/a
1193.012	n/a	PROB	596506	n/a	LTP236	ltpFR	13	n/a	n/a	n/a	n/a	n/a	n/a	10	4	1	5	n/a	n/a	n/a	n/a	n/a
1195.032	n/a	PROB	597516	n/a	LTP236	ltpFR	13	n/a	n/a	n/a	n/a	n/a	n/a	14	2	9	3	n/a	n/a	n/a	n/a	n/a
1196.27	n/a	PROB	598135	n/a	LTP236	ltpFR	13	n/a	n/a	n/a	n/a	n/a	n/a	242	9	6	9	n/a	n/a	n/a	n/a	n/a
1198.878	n/a	STOP	599439	n/a	LTP236	ltpFR	13	n/a	n/a	n/a	n/a	n/a	n/a	n/a	n/a	n/a	n/a	n/a	n/a	n/a	n/a	n/a
1200.674	n/a	WORD	600337	wordpools/wasnorm_wordpool_less_exclusions.txt	LTP236	ltpFR	13	4	0	DIAL	457	n/a	0	n/a	0	0	0	1	0.412841796875	0.57763671875	upper	../fonts/amplitud.ttf
1203.686	n/a	START	601843	n/a	LTP236	ltpFR	13	n/a	n/a	n/a	n/a	n/a	n/a	n/a	n/a	n/a	n/a	n/a	n/a	n/a	n/a	n/a
1204.824	n/a	PROB	602412	n/a	LTP236	ltpFR	13	n/a	n/a	n/a	n/a	n/a	n/a	19	9	9	1	n/a	n/a	n/a	n/a	n/a
1206.63	n/a	PROB	603315	n/a	LTP236	ltpFR	13	n/a	n/a	n/a	n/a	n/a	n/a	20	4	7	9	n/a	n/a	n/a	n/a	n/a
1207.864	n/a	PROB	603932	n/a	LTP236	ltpFR	13	n/a	n/a	n/a	n/a	n/a	n/a	10	1	4	5	n/a	n/a	n/a	n/a	n/a
1209.022	n/a	PROB	604511	n/a	LTP236	ltpFR	13	n/a	n/a	n/a	n/a	n/a	n/a	16	5	7	4	n/a	n/a	n/a	n/a	n/a
1210.124	n/a	PROB	605062	n/a	LTP236	ltpFR	13	n/a	n/a	n/a	n/a	n/a	n/a	17	6	8	3	n/a	n/a	n/a	n/a	n/a
1211.174	n/a	STOP	605587	n/a	LTP236	ltpFR	13	n/a	n/a	n/a	n/a	n/a	n/a	n/a	n/a	n/a	n/a	n/a	n/a	n/a	n/a	n/a
1212.65	n/a	WORD	606325	wordpools/wasnorm_wordpool_less_exclusions.txt	LTP236	ltpFR	13	4	0	TELEPHONE	1445	n/a	0	n/a	0	0	0	1	0.412841796875	0.57763671875	upper	../fonts/amplitud.ttf
1215.666	n/a	START	607833	n/a	LTP236	ltpFR	13	n/a	n/a	n/a	n/a	n/a	n/a	n/a	n/a	n/a	n/a	n/a	n/a	n/a	n/a	n/a
1216.698	n/a	PROB	608349	n/a	LTP236	ltpFR	13	n/a	n/a	n/a	n/a	n/a	n/a	18	8	5	5	n/a	n/a	n/a	n/a	n/a
1218.074	n/a	PROB	609037	n/a	LTP236	ltpFR	13	n/a	n/a	n/a	n/a	n/a	n/a	14	4	8	2	n/a	n/a	n/a	n/a	n/a
1219.864	n/a	PROB	609932	n/a	LTP236	ltpFR	13	n/a	n/a	n/a	n/a	n/a	n/a	22	9	9	4	n/a	n/a	n/a	n/a	n/a
1221.048	n/a	PROB	610524	n/a	LTP236	ltpFR	13	n/a	n/a	n/a	n/a	n/a	n/a	20	9	2	9	n/a	n/a	n/a	n/a	n/a
1222.254	n/a	STOP	611127	n/a	LTP236	ltpFR	13	n/a	n/a	n/a	n/a	n/a	n/a	n/a	n/a	n/a	n/a	n/a	n/a	n/a	n/a	n/a
1224.516	n/a	WORD	612258	wordpools/wasnorm_wordpool_less_exclusions.txt	LTP236	ltpFR	13	4	0	WAX	1597	n/a	0	n/a	0	0	0	1	0.412841796875	0.57763671875	upper	../fonts/amplitud.ttf
1227.528	n/a	START	613764	n/a	LTP236	ltpFR	13	n/a	n/a	n/a	n/a	n/a	n/a	n/a	n/a	n/a	n/a	n/a	n/a	n/a	n/a	n/a
1228.648	n/a	PROB	614324	n/a	LTP236	ltpFR	13	n/a	n/a	n/a	n/a	n/a	n/a	22	7	8	7	n/a	n/a	n/a	n/a	n/a
1229.932	n/a	PROB	614966	n/a	LTP236	ltpFR	13	n/a	n/a	n/a	n/a	n/a	n/a	9	7	1	1	n/a	n/a	n/a	n/a	n/a
1231.02	n/a	PROB	615510	n/a	LTP236	ltpFR	13	n/a	n/a	n/a	n/a	n/a	n/a	15	5	3	7	n/a	n/a	n/a	n/a	n/a
1232.228	n/a	PROB	616114	n/a	LTP236	ltpFR	13	n/a	n/a	n/a	n/a	n/a	n/a	24	8	7	9	n/a	n/a	n/a	n/a	n/a
1233.992	n/a	STOP	616996	n/a	LTP236	ltpFR	13	n/a	n/a	n/a	n/a	n/a	n/a	n/a	n/a	n/a	n/a	n/a	n/a	n/a	n/a	n/a
1236.624	n/a	WORD	618312	wordpools/wasnorm_wordpool_less_exclusions.txt	LTP236	ltpFR	13	4	0	JUNGLE	764	n/a	1	n/a	0	0	0	1	0.412841796875	0.57763671875	upper	../fonts/amplitud.ttf
1239.64	n/a	START	619820	n/a	LTP236	ltpFR	13	n/a	n/a	n/a	n/a	n/a	n/a	n/a	n/a	n/a	n/a	n/a	n/a	n/a	n/a	n/a
1240.56	n/a	PROB	620280	n/a	LTP236	ltpFR	13	n/a	n/a	n/a	n/a	n/a	n/a	20	6	6	8	n/a	n/a	n/a	n/a	n/a
1243.42	n/a	PROB	621710	n/a	LTP236	ltpFR	13	n/a	n/a	n/a	n/a	n/a	n/a	10	4	4	2	n/a	n/a	n/a	n/a	n/a
1244.604	n/a	PROB	622302	n/a	LTP236	ltpFR	13	n/a	n/a	n/a	n/a	n/a	n/a	16	9	4	3	n/a	n/a	n/a	n/a	n/a
1245.658	n/a	PROB	622829	n/a	LTP236	ltpFR	13	n/a	n/a	n/a	n/a	n/a	n/a	14	4	7	3	n/a	n/a	n/a	n/a	n/a
1246.728	n/a	STOP	623364	n/a	LTP236	ltpFR	13	n/a	n/a	n/a	n/a	n/a	n/a	n/a	n/a	n/a	n/a	n/a	n/a	n/a	n/a	n/a
1248.474	n/a	WORD	624237	wordpools/wasnorm_wordpool_less_exclusions.txt	LTP236	ltpFR	13	4	0	FACE	547	n/a	0	n/a	0	0	0	1	0.412841796875	0.57763671875	upper	../fonts/amplitud.ttf
1251.486	n/a	START	625743	n/a	LTP236	ltpFR	13	n/a	n/a	n/a	n/a	n/a	n/a	n/a	n/a	n/a	n/a	n/a	n/a	n/a	n/a	n/a
1252.59	n/a	PROB	626295	n/a	LTP236	ltpFR	13	n/a	n/a	n/a	n/a	n/a	n/a	13	3	6	4	n/a	n/a	n/a	n/a	n/a
1255.296	n/a	PROB	627648	n/a	LTP236	ltpFR	13	n/a	n/a	n/a	n/a	n/a	n/a	17	2	6	9	n/a	n/a	n/a	n/a	n/a
1257.688	n/a	PROB	628844	n/a	LTP236	ltpFR	13	n/a	n/a	n/a	n/a	n/a	n/a	12	3	1	8	n/a	n/a	n/a	n/a	n/a
1258.738	n/a	STOP	629369	n/a	LTP236	ltpFR	13	n/a	n/a	n/a	n/a	n/a	n/a	n/a	n/a	n/a	n/a	n/a	n/a	n/a	n/a	n/a
1260.42	n/a	WORD	630210	wordpools/wasnorm_wordpool_less_exclusions.txt	LTP236	ltpFR	13	4	0	MASCARA	875	n/a	1	n/a	0	0	0	1	0.412841796875	0.57763671875	upper	../fonts/amplitud.ttf
1263.432	n/a	START	631716	n/a	LTP236	ltpFR	13	n/a	n/a	n/a	n/a	n/a	n/a	n/a	n/a	n/a	n/a	n/a	n/a	n/a	n/a	n/a
1264.502	n/a	PROB	632251	n/a	LTP236	ltpFR	13	n/a	n/a	n/a	n/a	n/a	n/a	13	4	5	4	n/a	n/a	n/a	n/a	n/a
1266.322	n/a	PROB	633161	n/a	LTP236	ltpFR	13	n/a	n/a	n/a	n/a	n/a	n/a	17	6	6	5	n/a	n/a	n/a	n/a	n/a
1267.978	n/a	PROB	633989	n/a	LTP236	ltpFR	13	n/a	n/a	n/a	n/a	n/a	n/a	21	4	8	9	n/a	n/a	n/a	n/a	n/a
1269.736	n/a	PROB	634868	n/a	LTP236	ltpFR	13	n/a	n/a	n/a	n/a	n/a	n/a	22	9	5	8	n/a	n/a	n/a	n/a	n/a
1271.322	n/a	STOP	635661	n/a	LTP236	ltpFR	13	n/a	n/a	n/a	n/a	n/a	n/a	n/a	n/a	n/a	n/a	n/a	n/a	n/a	n/a	n/a
1272.646	n/a	WORD	636323	wordpools/wasnorm_wordpool_less_exclusions.txt	LTP236	ltpFR	13	4	1	NUT	965	n/a	0	n/a	0	0	0	0	0.5869140625	0.422607421875	lower	../fonts/zerothre.ttf
1275.662	n/a	START	637831	n/a	LTP236	ltpFR	13	n/a	n/a	n/a	n/a	n/a	n/a	n/a	n/a	n/a	n/a	n/a	n/a	n/a	n/a	n/a
1276.614	n/a	PROB	638307	n/a	LTP236	ltpFR	13	n/a	n/a	n/a	n/a	n/a	n/a	14	5	7	2	n/a	n/a	n/a	n/a	n/a
1278.438	n/a	PROB	639219	n/a	LTP236	ltpFR	13	n/a	n/a	n/a	n/a	n/a	n/a	10	5	3	2	n/a	n/a	n/a	n/a	n/a
1279.79	n/a	PROB	639895	n/a	LTP236	ltpFR	13	n/a	n/a	n/a	n/a	n/a	n/a	11	4	1	6	n/a	n/a	n/a	n/a	n/a
1282.148	n/a	PROB	641074	n/a	LTP236	ltpFR	13	n/a	n/a	n/a	n/a	n/a	n/a	16	3	5	8	n/a	n/a	n/a	n/a	n/a
1283.186	n/a	STOP	641593	n/a	LTP236	ltpFR	13	n/a	n/a	n/a	n/a	n/a	n/a	n/a	n/a	n/a	n/a	n/a	n/a	n/a	n/a	n/a
1284.524	n/a	WORD	642262	wordpools/wasnorm_wordpool_less_exclusions.txt	LTP236	ltpFR	13	4	1	GREASE	660	n/a	0	n/a	0	0	0	0	0.5869140625	0.422607421875	lower	../fonts/zerothre.ttf
1287.54	n/a	START	643770	n/a	LTP236	ltpFR	13	n/a	n/a	n/a	n/a	n/a	n/a	n/a	n/a	n/a	n/a	n/a	n/a	n/a	n/a	n/a
1288.394	n/a	PROB	644197	n/a	LTP236	ltpFR	13	n/a	n/a	n/a	n/a	n/a	n/a	21	6	7	8	n/a	n/a	n/a	n/a	n/a
1290.782	n/a	PROB	645391	n/a	LTP236	ltpFR	13	n/a	n/a	n/a	n/a	n/a	n/a	14	7	1	6	n/a	n/a	n/a	n/a	n/a
1292.208	n/a	PROB	646104	n/a	LTP236	ltpFR	13	n/a	n/a	n/a	n/a	n/a	n/a	4	2	1	1	n/a	n/a	n/a	n/a	n/a
1293.242	n/a	PROB	646621	n/a	LTP236	ltpFR	13	n/a	n/a	n/a	n/a	n/a	n/a	15	3	5	7	n/a	n/a	n/a	n/a	n/a
1294.946	n/a	STOP	647473	n/a	LTP236	ltpFR	13	n/a	n/a	n/a	n/a	n/a	n/a	n/a	n/a	n/a	n/a	n/a	n/a	n/a	n/a	n/a
1296.406	n/a	WORD	648203	wordpools/wasnorm_wordpool_less_exclusions.txt	LTP236	ltpFR	13	4	1	PRINCESS	1125	n/a	1	n/a	0	0	0	0	0.5869140625	0.422607421875	lower	../fonts/zerothre.ttf
1299.418	n/a	START	649709	n/a	LTP236	ltpFR	13	n/a	n/a	n/a	n/a	n/a	n/a	n/a	n/a	n/a	n/a	n/a	n/a	n/a	n/a	n/a
1300.338	n/a	PROB	650169	n/a	LTP236	ltpFR	13	n/a	n/a	n/a	n/a	n/a	n/a	22	8	9	5	n/a	n/a	n/a	n/a	n/a
1301.728	n/a	PROB	650864	n/a	LTP236	ltpFR	13	n/a	n/a	n/a	n/a	n/a	n/a	14	3	2	9	n/a	n/a	n/a	n/a	n/a
1303.044	n/a	PROB	651522	n/a	LTP236	ltpFR	13	n/a	n/a	n/a	n/a	n/a	n/a	14	5	8	2	n/a	n/a	n/a	n/a	n/a
1304.286	n/a	PROB	652143	n/a	LTP236	ltpFR	13	n/a	n/a	n/a	n/a	n/a	n/a	25	8	8	9	n/a	n/a	n/a	n/a	n/a
1305.988	n/a	STOP	652994	n/a	LTP236	ltpFR	13	n/a	n/a	n/a	n/a	n/a	n/a	n/a	n/a	n/a	n/a	n/a	n/a	n/a	n/a	n/a
1308.638	n/a	WORD	654319	wordpools/wasnorm_wordpool_less_exclusions.txt	LTP236	ltpFR	13	4	1	FAIRY	549	n/a	1	n/a	0	0	0	0	0.5869140625	0.422607421875	lower	../fonts/zerothre.ttf
1311.65	n/a	START	655825	n/a	LTP236	ltpFR	13	n/a	n/a	n/a	n/a	n/a	n/a	n/a	n/a	n/a	n/a	n/a	n/a	n/a	n/a	n/a
1312.484	n/a	PROB	656242	n/a	LTP236	ltpFR	13	n/a	n/a	n/a	n/a	n/a	n/a	12	2	2	8	n/a	n/a	n/a	n/a	n/a
1313.836	n/a	PROB	656918	n/a	LTP236	ltpFR	13	n/a	n/a	n/a	n/a	n/a	n/a	14	3	4	7	n/a	n/a	n/a	n/a	n/a
1315.43	n/a	PROB	657715	n/a	LTP236	ltpFR	13	n/a	n/a	n/a	n/a	n/a	n/a	13	4	8	1	n/a	n/a	n/a	n/a	n/a
1316.514	n/a	PROB	658257	n/a	LTP236	ltpFR	13	n/a	n/a	n/a	n/a	n/a	n/a	13	3	6	4	n/a	n/a	n/a	n/a	n/a
1317.952	n/a	PROB	658976	n/a	LTP236	ltpFR	13	n/a	n/a	n/a	n/a	n/a	n/a	15	2	4	9	n/a	n/a	n/a	n/a	n/a
1319.02	n/a	STOP	659510	n/a	LTP236	ltpFR	13	n/a	n/a	n/a	n/a	n/a	n/a	n/a	n/a	n/a	n/a	n/a	n/a	n/a	n/a	n/a
1320.75	n/a	WORD	660375	wordpools/wasnorm_wordpool_less_exclusions.txt	LTP236	ltpFR	13	4	0	CARPENTER	246	n/a	1	n/a	0	0	0	1	0.412841796875	0.57763671875	upper	../fonts/amplitud.ttf
1323.762	n/a	START	661881	n/a	LTP236	ltpFR	13	n/a	n/a	n/a	n/a	n/a	n/a	n/a	n/a	n/a	n/a	n/a	n/a	n/a	n/a	n/a
1324.666	n/a	PROB	662333	n/a	LTP236	ltpFR	13	n/a	n/a	n/a	n/a	n/a	n/a	14	4	3	7	n/a	n/a	n/a	n/a	n/a
1326.318	n/a	PROB	663159	n/a	LTP236	ltpFR	13	n/a	n/a	n/a	n/a	n/a	n/a	16	7	2	7	n/a	n/a	n/a	n/a	n/a
1328.61	n/a	PROB	664305	n/a	LTP236	ltpFR	13	n/a	n/a	n/a	n/a	n/a	n/a	20	8	9	3	n/a	n/a	n/a	n/a	n/a
1330.46	n/a	STOP	665230	n/a	LTP236	ltpFR	13	n/a	n/a	n/a	n/a	n/a	n/a	n/a	n/a	n/a	n/a	n/a	n/a	n/a	n/a	n/a
1332.76	n/a	WORD	666380	wordpools/wasnorm_wordpool_less_exclusions.txt	LTP236	ltpFR	13	4	0	FLESH	579	n/a	0	n/a	0	0	0	1	0.412841796875	0.57763671875	upper	../fonts/amplitud.ttf
1335.776	n/a	START	667888	n/a	LTP236	ltpFR	13	n/a	n/a	n/a	n/a	n/a	n/a	n/a	n/a	n/a	n/a	n/a	n/a	n/a	n/a	n/a
1336.828	n/a	PROB	668414	n/a	LTP236	ltpFR	13	n/a	n/a	n/a	n/a	n/a	n/a	15	2	4	8	n/a	n/a	n/a	n/a	n/a
1338.35	n/a	PROB	669175	n/a	LTP236	ltpFR	13	n/a	n/a	n/a	n/a	n/a	n/a	18	3	9	6	n/a	n/a	n/a	n/a	n/a
1340.504	n/a	PROB	670252	n/a	LTP236	ltpFR	13	n/a	n/a	n/a	n/a	n/a	n/a	20	8	8	4	n/a	n/a	n/a	n/a	n/a
1341.814	n/a	PROB	670907	n/a	LTP236	ltpFR	13	n/a	n/a	n/a	n/a	n/a	n/a	17	7	5	5	n/a	n/a	n/a	n/a	n/a
1343.012	n/a	STOP	671506	n/a	LTP236	ltpFR	13	n/a	n/a	n/a	n/a	n/a	n/a	n/a	n/a	n/a	n/a	n/a	n/a	n/a	n/a	n/a
1344.858	n/a	WORD	672429	wordpools/wasnorm_wordpool_less_exclusions.txt	LTP236	ltpFR	13	4	1	PECAN	1036	n/a	0	n/a	0	0	0	0	0.5869140625	0.422607421875	lower	../fonts/zerothre.ttf
1347.87	n/a	START	673935	n/a	LTP236	ltpFR	13	n/a	n/a	n/a	n/a	n/a	n/a	n/a	n/a	n/a	n/a	n/a	n/a	n/a	n/a	n/a
1348.792	n/a	PROB	674396	n/a	LTP236	ltpFR	13	n/a	n/a	n/a	n/a	n/a	n/a	18	5	7	6	n/a	n/a	n/a	n/a	n/a
1350.426	n/a	PROB	675213	n/a	LTP236	ltpFR	13	n/a	n/a	n/a	n/a	n/a	n/a	15	7	3	5	n/a	n/a	n/a	n/a	n/a
1352.016	n/a	PROB	676008	n/a	LTP236	ltpFR	13	n/a	n/a	n/a	n/a	n/a	n/a	14	8	3	3	n/a	n/a	n/a	n/a	n/a
1353.42	n/a	PROB	676710	n/a	LTP236	ltpFR	13	n/a	n/a	n/a	n/a	n/a	n/a	14	3	2	9	n/a	n/a	n/a	n/a	n/a
1354.694	n/a	STOP	677347	n/a	LTP236	ltpFR	13	n/a	n/a	n/a	n/a	n/a	n/a	n/a	n/a	n/a	n/a	n/a	n/a	n/a	n/a	n/a
1356.738	n/a	WORD	678369	wordpools/wasnorm_wordpool_less_exclusions.txt	LTP236	ltpFR	13	4	1	LUMBER	848	n/a	1	n/a	0	0	0	0	0.5869140625	0.422607421875	lower	../fonts/zerothre.ttf
1359.75	n/a	START	679875	n/a	LTP236	ltpFR	13	n/a	n/a	n/a	n/a	n/a	n/a	n/a	n/a	n/a	n/a	n/a	n/a	n/a	n/a	n/a
1360.736	n/a	PROB	680368	n/a	LTP236	ltpFR	13	n/a	n/a	n/a	n/a	n/a	n/a	14	5	6	3	n/a	n/a	n/a	n/a	n/a
1362.04	n/a	PROB	681020	n/a	LTP236	ltpFR	13	n/a	n/a	n/a	n/a	n/a	n/a	9	6	2	1	n/a	n/a	n/a	n/a	n/a
1363.694	n/a	PROB	681847	n/a	LTP236	ltpFR	13	n/a	n/a	n/a	n/a	n/a	n/a	14	2	6	4	n/a	n/a	n/a	n/a	n/a
1367.75	n/a	STOP	683875	n/a	LTP236	ltpFR	13	n/a	n/a	n/a	n/a	n/a	n/a	n/a	n/a	n/a	n/a	n/a	n/a	n/a	n/a	n/a
1368.934	n/a	WORD	684467	wordpools/wasnorm_wordpool_less_exclusions.txt	LTP236	ltpFR	13	4	1	BEGGAR	117	n/a	1	n/a	0	0	0	0	0.5869140625	0.422607421875	lower	../fonts/zerothre.ttf
1371.946	n/a	START	685973	n/a	LTP236	ltpFR	13	n/a	n/a	n/a	n/a	n/a	n/a	n/a	n/a	n/a	n/a	n/a	n/a	n/a	n/a	n/a
1373.116	n/a	PROB	686558	n/a	LTP236	ltpFR	13	n/a	n/a	n/a	n/a	n/a	n/a	20	6	7	7	n/a	n/a	n/a	n/a	n/a
1374.804	n/a	PROB	687402	n/a	LTP236	ltpFR	13	n/a	n/a	n/a	n/a	n/a	n/a	18	6	9	3	n/a	n/a	n/a	n/a	n/a
1376.058	n/a	PROB	688029	n/a	LTP236	ltpFR	13	n/a	n/a	n/a	n/a	n/a	n/a	19	9	2	8	n/a	n/a	n/a	n/a	n/a
1377.278	n/a	PROB	688639	n/a	LTP236	ltpFR	13	n/a	n/a	n/a	n/a	n/a	n/a	23	9	6	8	n/a	n/a	n/a	n/a	n/a
1379.006	n/a	STOP	689503	n/a	LTP236	ltpFR	13	n/a	n/a	n/a	n/a	n/a	n/a	n/a	n/a	n/a	n/a	n/a	n/a	n/a	n/a	n/a
1380.962	n/a	WORD	690481	wordpools/wasnorm_wordpool_less_exclusions.txt	LTP236	ltpFR	13	4	1	STAR	1373	n/a	0	n/a	0	0	0	0	0.5869140625	0.422607421875	lower	../fonts/zerothre.ttf
1383.976	n/a	START	691988	n/a	LTP236	ltpFR	13	n/a	n/a	n/a	n/a	n/a	n/a	n/a	n/a	n/a	n/a	n/a	n/a	n/a	n/a	n/a
1385.062	n/a	PROB	692531	n/a	LTP236	ltpFR	13	n/a	n/a	n/a	n/a	n/a	n/a	18	6	6	6	n/a	n/a	n/a	n/a	n/a
1386.866	n/a	PROB	693433	n/a	LTP236	ltpFR	13	n/a	n/a	n/a	n/a	n/a	n/a	17	6	8	3	n/a	n/a	n/a	n/a	n/a
1388.274	n/a	PROB	694137	n/a	LTP236	ltpFR	13	n/a	n/a	n/a	n/a	n/a	n/a	8	2	1	5	n/a	n/a	n/a	n/a	n/a
1389.258	n/a	PROB	694629	n/a	LTP236	ltpFR	13	n/a	n/a	n/a	n/a	n/a	n/a	16	8	7	1	n/a	n/a	n/a	n/a	n/a
1390.278	n/a	PROB	695139	n/a	LTP236	ltpFR	13	n/a	n/a	n/a	n/a	n/a	n/a	21	7	7	7	n/a	n/a	n/a	n/a	n/a
1391.312	n/a	STOP	695656	n/a	LTP236	ltpFR	13	n/a	n/a	n/a	n/a	n/a	n/a	n/a	n/a	n/a	n/a	n/a	n/a	n/a	n/a	n/a
1393.814	n/a	REC_START	696907	n/a	LTP236	ltpFR	13	4	n/a	n/a	n/a	n/a	n/a	n/a	0	0	0	n/a	n/a	n/a	n/a	n/a
1395.57	n/a	REC_WORD	697785	wordpools/wasnorm_wordpool_less_exclusions.txt	LTP236	ltpFR	13	4	1	STAR	1373	n/a	0	n/a	0	0	0	n/a	n/a	n/a	n/a	n/a
1396.988	n/a	REC_WORD	698494	wordpools/wasnorm_wordpool_less_exclusions.txt	LTP236	ltpFR	13	4	1	BEGGAR	117	n/a	1	n/a	0	0	0	n/a	n/a	n/a	n/a	n/a
1397.994	n/a	REC_WORD	698997	wordpools/wasnorm_wordpool_less_exclusions.txt	LTP236	ltpFR	13	4	1	PECAN	1036	n/a	0	n/a	0	0	0	n/a	n/a	n/a	n/a	n/a
1402.336	n/a	REC_WORD	701168	wordpools/wasnorm_wordpool_less_exclusions.txt	LTP236	ltpFR	13	4	1	FAIRY	549	n/a	1	n/a	0	0	0	n/a	n/a	n/a	n/a	n/a
1404.974	n/a	REC_WORD	702487	wordpools/wasnorm_wordpool_less_exclusions.txt	LTP236	ltpFR	13	4	0	CARPENTER	246	n/a	1	n/a	0	0	0	n/a	n/a	n/a	n/a	n/a
1406.402	n/a	REC_WORD	703201	wordpools/wasnorm_wordpool_less_exclusions.txt	LTP236	ltpFR	13	4	1	LUMBER	848	n/a	1	n/a	0	0	0	n/a	n/a	n/a	n/a	n/a
1408.74	n/a	REC_WORD	704370	wordpools/wasnorm_wordpool_less_exclusions.txt	LTP236	ltpFR	13	4	0	FLESH	579	n/a	0	n/a	0	0	0	n/a	n/a	n/a	n/a	n/a
1410.178	n/a	REC_WORD	705089	wordpools/wasnorm_wordpool_less_exclusions.txt	LTP236	ltpFR	13	4	1	PRINCESS	1125	n/a	1	n/a	0	0	0	n/a	n/a	n/a	n/a	n/a
1411.63	n/a	REC_WORD	705815	wordpools/wasnorm_wordpool_less_exclusions.txt	LTP236	ltpFR	13	4	1	GREASE	660	n/a	0	n/a	0	0	0	n/a	n/a	n/a	n/a	n/a
1414.14	n/a	REC_WORD	707070	wordpools/wasnorm_wordpool_less_exclusions.txt	LTP236	ltpFR	13	4	1	NUT	965	n/a	0	n/a	0	0	0	n/a	n/a	n/a	n/a	n/a
1417.002	n/a	REC_WORD	708501	wordpools/wasnorm_wordpool_less_exclusions.txt	LTP236	ltpFR	13	4	0	MASCARA	875	n/a	1	n/a	0	0	0	n/a	n/a	n/a	n/a	n/a
1418.002	n/a	REC_WORD_VV	709001	wordpools/wasnorm_wordpool_less_exclusions.txt	LTP236	ltpFR	13	4	n/a	<>	-1	n/a	n/a	n/a	0	0	0	n/a	n/a	n/a	n/a	n/a
1418.324	n/a	REC_WORD	709162	wordpools/wasnorm_wordpool_less_exclusions.txt	LTP236	ltpFR	13	4	0	FACE	547	n/a	0	n/a	0	0	0	n/a	n/a	n/a	n/a	n/a
1453.098	n/a	REC_WORD	726549	wordpools/wasnorm_wordpool_less_exclusions.txt	LTP236	ltpFR	13	4	0	DIAL	457	n/a	0	n/a	0	0	0	n/a	n/a	n/a	n/a	n/a
1454.086	n/a	REC_WORD	727043	wordpools/wasnorm_wordpool_less_exclusions.txt	LTP236	ltpFR	13	4	0	TELEPHONE	1445	n/a	0	n/a	0	0	0	n/a	n/a	n/a	n/a	n/a
1455.078	n/a	REC_WORD	727539	wordpools/wasnorm_wordpool_less_exclusions.txt	LTP236	ltpFR	13	4	0	WAX	1597	n/a	0	n/a	0	0	0	n/a	n/a	n/a	n/a	n/a
1473.718	n/a	WORD	736859	wordpools/wasnorm_wordpool_less_exclusions.txt	LTP236	ltpFR	13	5	0	SPY	1360	n/a	0	n/a	0	0	0	1	0.412841796875	0.57763671875	upper	../fonts/amplitud.ttf
1477.9	n/a	WORD	738950	wordpools/wasnorm_wordpool_less_exclusions.txt	LTP236	ltpFR	13	5	0	PASSENGER	1020	n/a	1	n/a	0	0	0	1	0.412841796875	0.57763671875	upper	../fonts/amplitud.ttf
1481.932	n/a	WORD	740966	wordpools/wasnorm_wordpool_less_exclusions.txt	LTP236	ltpFR	13	5	1	BOOTH	151	n/a	0	n/a	0	0	0	0	0.5869140625	0.422607421875	lower	../fonts/zerothre.ttf
1485.982	n/a	WORD	742991	wordpools/wasnorm_wordpool_less_exclusions.txt	LTP236	ltpFR	13	5	1	NOTE	958	n/a	0	n/a	0	0	0	0	0.5869140625	0.422607421875	lower	../fonts/zerothre.ttf
1489.896	n/a	WORD	744948	wordpools/wasnorm_wordpool_less_exclusions.txt	LTP236	ltpFR	13	5	1	PEACH	1031	n/a	0	n/a	0	0	0	0	0.5869140625	0.422607421875	lower	../fonts/zerothre.ttf
1493.778	n/a	WORD	746889	wordpools/wasnorm_wordpool_less_exclusions.txt	LTP236	ltpFR	13	5	1	THICKET	1455	n/a	0	n/a	0	0	0	0	0.5869140625	0.422607421875	lower	../fonts/zerothre.ttf
1497.69	n/a	WORD	748845	wordpools/wasnorm_wordpool_less_exclusions.txt	LTP236	ltpFR	13	5	0	CONSOLE	364	n/a	1	n/a	0	0	0	1	0.412841796875	0.57763671875	upper	../fonts/amplitud.ttf
1501.876	n/a	WORD	750938	wordpools/wasnorm_wordpool_less_exclusions.txt	LTP236	ltpFR	13	5	0	DRIVER	499	n/a	1	n/a	0	0	0	1	0.412841796875	0.57763671875	upper	../fonts/amplitud.ttf
1505.958	n/a	WORD	752979	wordpools/wasnorm_wordpool_less_exclusions.txt	LTP236	ltpFR	13	5	0	COBBLER	335	n/a	0	n/a	0	0	0	1	0.412841796875	0.57763671875	upper	../fonts/amplitud.ttf
1509.906	n/a	WORD	754953	wordpools/wasnorm_wordpool_less_exclusions.txt	LTP236	ltpFR	13	5	0	MECHANIC	884	n/a	1	n/a	0	0	0	1	0.412841796875	0.57763671875	upper	../fonts/amplitud.ttf
1513.87	n/a	WORD	756935	wordpools/wasnorm_wordpool_less_exclusions.txt	LTP236	ltpFR	13	5	0	ACORN	3	n/a	0	n/a	0	0	0	1	0.412841796875	0.57763671875	upper	../fonts/amplitud.ttf
1518.07	n/a	WORD	759035	wordpools/wasnorm_wordpool_less_exclusions.txt	LTP236	ltpFR	13	5	0	LENS	811	n/a	0	n/a	0	0	0	1	0.412841796875	0.57763671875	upper	../fonts/amplitud.ttf
1521.932	n/a	WORD	760966	wordpools/wasnorm_wordpool_less_exclusions.txt	LTP236	ltpFR	13	5	1	GATE	625	n/a	0	n/a	0	0	0	0	0.5869140625	0.422607421875	lower	../fonts/zerothre.ttf
1526.1	n/a	WORD	763050	wordpools/wasnorm_wordpool_less_exclusions.txt	LTP236	ltpFR	13	5	1	APPENDAGE	32	n/a	0	n/a	0	0	0	0	0.5869140625	0.422607421875	lower	../fonts/zerothre.ttf
1529.948	n/a	WORD	764974	wordpools/wasnorm_wordpool_less_exclusions.txt	LTP236	ltpFR	13	5	1	THIGH	1457	n/a	0	n/a	0	0	0	0	0.5869140625	0.422607421875	lower	../fonts/zerothre.ttf
1534.128	n/a	WORD	767064	wordpools/wasnorm_wordpool_less_exclusions.txt	LTP236	ltpFR	13	5	1	LIMB	822	n/a	0	n/a	0	0	0	0	0.5869140625	0.422607421875	lower	../fonts/zerothre.ttf
1537.144	n/a	START	768572	n/a	LTP236	ltpFR	13	n/a	n/a	n/a	n/a	n/a	n/a	n/a	n/a	n/a	n/a	n/a	n/a	n/a	n/a	n/a
1538.294	n/a	PROB	769147	n/a	LTP236	ltpFR	13	n/a	n/a	n/a	n/a	n/a	n/a	15	7	6	2	n/a	n/a	n/a	n/a	n/a
1540.286	n/a	PROB	770143	n/a	LTP236	ltpFR	13	n/a	n/a	n/a	n/a	n/a	n/a	9	5	3	1	n/a	n/a	n/a	n/a	n/a
1541.322	n/a	PROB	770661	n/a	LTP236	ltpFR	13	n/a	n/a	n/a	n/a	n/a	n/a	14	4	5	5	n/a	n/a	n/a	n/a	n/a
1542.51	n/a	PROB	771255	n/a	LTP236	ltpFR	13	n/a	n/a	n/a	n/a	n/a	n/a	14	8	2	4	n/a	n/a	n/a	n/a	n/a
1543.664	n/a	PROB	771832	n/a	LTP236	ltpFR	13	n/a	n/a	n/a	n/a	n/a	n/a	16	5	2	9	n/a	n/a	n/a	n/a	n/a
1545.508	n/a	PROB	772754	n/a	LTP236	ltpFR	13	n/a	n/a	n/a	n/a	n/a	n/a	23	6	8	9	n/a	n/a	n/a	n/a	n/a
1546.764	n/a	PROB	773382	n/a	LTP236	ltpFR	13	n/a	n/a	n/a	n/a	n/a	n/a	17	2	7	8	n/a	n/a	n/a	n/a	n/a
1548.002	n/a	PROB	774001	n/a	LTP236	ltpFR	13	n/a	n/a	n/a	n/a	n/a	n/a	7	4	2	1	n/a	n/a	n/a	n/a	n/a
1549.102	n/a	PROB	774551	n/a	LTP236	ltpFR	13	n/a	n/a	n/a	n/a	n/a	n/a	19	2	8	9	n/a	n/a	n/a	n/a	n/a
1550.242	n/a	PROB	775121	n/a	LTP236	ltpFR	13	n/a	n/a	n/a	n/a	n/a	n/a	10	8	1	1	n/a	n/a	n/a	n/a	n/a
1551.376	n/a	PROB	775688	n/a	LTP236	ltpFR	13	n/a	n/a	n/a	n/a	n/a	n/a	11	5	5	1	n/a	n/a	n/a	n/a	n/a
1552.536	n/a	STOP	776268	n/a	LTP236	ltpFR	13	n/a	n/a	n/a	n/a	n/a	n/a	n/a	n/a	n/a	n/a	n/a	n/a	n/a	n/a	n/a
1554.996	n/a	REC_START	777498	n/a	LTP236	ltpFR	13	5	n/a	n/a	n/a	n/a	n/a	n/a	0	0	0	n/a	n/a	n/a	n/a	n/a
1556.298	n/a	REC_WORD	778149	wordpools/wasnorm_wordpool_less_exclusions.txt	LTP236	ltpFR	13	5	1	LIMB	822	n/a	0	n/a	0	0	0	n/a	n/a	n/a	n/a	n/a
1557.47	n/a	REC_WORD	778735	wordpools/wasnorm_wordpool_less_exclusions.txt	LTP236	ltpFR	13	5	1	THIGH	1457	n/a	0	n/a	0	0	0	n/a	n/a	n/a	n/a	n/a
1559.082	n/a	REC_WORD	779541	wordpools/wasnorm_wordpool_less_exclusions.txt	LTP236	ltpFR	13	5	0	DRIVER	499	n/a	1	n/a	0	0	0	n/a	n/a	n/a	n/a	n/a
1560.074	n/a	REC_WORD	780037	wordpools/wasnorm_wordpool_less_exclusions.txt	LTP236	ltpFR	13	5	0	ACORN	3	n/a	0	n/a	0	0	0	n/a	n/a	n/a	n/a	n/a
1562.604	n/a	REC_WORD	781302	wordpools/wasnorm_wordpool_less_exclusions.txt	LTP236	ltpFR	13	5	0	LENS	811	n/a	0	n/a	0	0	0	n/a	n/a	n/a	n/a	n/a
1566.66	n/a	REC_WORD	783330	wordpools/wasnorm_wordpool_less_exclusions.txt	LTP236	ltpFR	13	5	1	THICKET	1455	n/a	0	n/a	0	0	0	n/a	n/a	n/a	n/a	n/a
1568.322	n/a	REC_WORD	784161	wordpools/wasnorm_wordpool_less_exclusions.txt	LTP236	ltpFR	13	5	1	PEACH	1031	n/a	0	n/a	0	0	0	n/a	n/a	n/a	n/a	n/a
1569.338	n/a	REC_WORD	784669	wordpools/wasnorm_wordpool_less_exclusions.txt	LTP236	ltpFR	13	5	0	COBBLER	335	n/a	0	n/a	0	0	0	n/a	n/a	n/a	n/a	n/a
1587.986	n/a	REC_WORD	793993	wordpools/wasnorm_wordpool_less_exclusions.txt	LTP236	ltpFR	13	5	0	MECHANIC	884	n/a	1	n/a	0	0	0	n/a	n/a	n/a	n/a	n/a
1602.638	n/a	REC_WORD	801319	wordpools/wasnorm_wordpool_less_exclusions.txt	LTP236	ltpFR	13	5	1	BOOTH	151	n/a	0	n/a	0	0	0	n/a	n/a	n/a	n/a	n/a
1633.612	n/a	WORD	816806	wordpools/wasnorm_wordpool_less_exclusions.txt	LTP236	ltpFR	13	6	0	VICTOR	1563	n/a	1	n/a	0	0	0	1	0.412841796875	0.57763671875	upper	../fonts/amplitud.ttf
1637.796	n/a	WORD	818898	wordpools/wasnorm_wordpool_less_exclusions.txt	LTP236	ltpFR	13	6	0	BEETLE	116	n/a	0	n/a	0	0	0	1	0.412841796875	0.57763671875	upper	../fonts/amplitud.ttf
1641.692	n/a	WORD	820846	wordpools/wasnorm_wordpool_less_exclusions.txt	LTP236	ltpFR	13	6	0	RIBBON	1189	n/a	0	n/a	0	0	0	1	0.412841796875	0.57763671875	upper	../fonts/amplitud.ttf
1645.624	n/a	WORD	822812	wordpools/wasnorm_wordpool_less_exclusions.txt	LTP236	ltpFR	13	6	0	BREAD	170	n/a	0	n/a	0	0	0	1	0.412841796875	0.57763671875	upper	../fonts/amplitud.ttf
1649.486	n/a	WORD	824743	wordpools/wasnorm_wordpool_less_exclusions.txt	LTP236	ltpFR	13	6	0	NIGHTGOWN	953	n/a	1	n/a	0	0	0	1	0.412841796875	0.57763671875	upper	../fonts/amplitud.ttf
1653.688	n/a	WORD	826844	wordpools/wasnorm_wordpool_less_exclusions.txt	LTP236	ltpFR	13	6	0	ROBE	1198	n/a	1	n/a	0	0	0	1	0.412841796875	0.57763671875	upper	../fonts/amplitud.ttf
1657.72	n/a	WORD	828860	wordpools/wasnorm_wordpool_less_exclusions.txt	LTP236	ltpFR	13	6	0	PACKAGE	997	n/a	1	n/a	0	0	0	1	0.412841796875	0.57763671875	upper	../fonts/amplitud.ttf
1661.652	n/a	WORD	830826	wordpools/wasnorm_wordpool_less_exclusions.txt	LTP236	ltpFR	13	6	0	SNACK	1331	n/a	0	n/a	0	0	0	1	0.412841796875	0.57763671875	upper	../fonts/amplitud.ttf
1665.596	n/a	WORD	832798	wordpools/wasnorm_wordpool_less_exclusions.txt	LTP236	ltpFR	13	6	0	BANQUET	86	n/a	1	n/a	0	0	0	1	0.412841796875	0.57763671875	upper	../fonts/amplitud.ttf
1669.532	n/a	WORD	834766	wordpools/wasnorm_wordpool_less_exclusions.txt	LTP236	ltpFR	13	6	0	BUTTERFLY	206	n/a	0	n/a	0	0	0	1	0.412841796875	0.57763671875	upper	../fonts/amplitud.ttf
1673.448	n/a	WORD	836724	wordpools/wasnorm_wordpool_less_exclusions.txt	LTP236	ltpFR	13	6	0	BOULDER	155	n/a	1	n/a	0	0	0	1	0.412841796875	0.57763671875	upper	../fonts/amplitud.ttf
1677.346	n/a	WORD	838673	wordpools/wasnorm_wordpool_less_exclusions.txt	LTP236	ltpFR	13	6	0	SIREN	1310	n/a	0	n/a	0	0	0	1	0.412841796875	0.57763671875	upper	../fonts/amplitud.ttf
1681.26	n/a	WORD	840630	wordpools/wasnorm_wordpool_less_exclusions.txt	LTP236	ltpFR	13	6	0	BAKER	71	n/a	1	n/a	0	0	0	1	0.412841796875	0.57763671875	upper	../fonts/amplitud.ttf
1685.342	n/a	WORD	842671	wordpools/wasnorm_wordpool_less_exclusions.txt	LTP236	ltpFR	13	6	0	PERSON	1052	n/a	1	n/a	0	0	0	1	0.412841796875	0.57763671875	upper	../fonts/amplitud.ttf
1689.174	n/a	WORD	844587	wordpools/wasnorm_wordpool_less_exclusions.txt	LTP236	ltpFR	13	6	0	SOCIETY	1338	n/a	1	n/a	0	0	0	1	0.412841796875	0.57763671875	upper	../fonts/amplitud.ttf
1693.22	n/a	WORD	846610	wordpools/wasnorm_wordpool_less_exclusions.txt	LTP236	ltpFR	13	6	0	CENT	270	n/a	0	n/a	0	0	0	1	0.412841796875	0.57763671875	upper	../fonts/amplitud.ttf
1698.83	n/a	REC_START	849415	n/a	LTP236	ltpFR	13	6	n/a	n/a	n/a	n/a	n/a	n/a	0	0	0	n/a	n/a	n/a	n/a	n/a
1699.942	n/a	REC_WORD	849971	wordpools/wasnorm_wordpool_less_exclusions.txt	LTP236	ltpFR	13	6	0	CENT	270	n/a	0	n/a	0	0	0	n/a	n/a	n/a	n/a	n/a
1700.53	n/a	REC_WORD	850265	wordpools/wasnorm_wordpool_less_exclusions.txt	LTP236	ltpFR	13	6	0	SOCIETY	1338	n/a	1	n/a	0	0	0	n/a	n/a	n/a	n/a	n/a
1701.498	n/a	REC_WORD	850749	wordpools/wasnorm_wordpool_less_exclusions.txt	LTP236	ltpFR	13	6	0	BAKER	71	n/a	1	n/a	0	0	0	n/a	n/a	n/a	n/a	n/a
1702.132	n/a	REC_WORD	851066	wordpools/wasnorm_wordpool_less_exclusions.txt	LTP236	ltpFR	13	6	0	BREAD	170	n/a	0	n/a	0	0	0	n/a	n/a	n/a	n/a	n/a
1702.632	n/a	REC_WORD	851316	wordpools/wasnorm_wordpool_less_exclusions.txt	LTP236	ltpFR	13	6	0	SIREN	1310	n/a	0	n/a	0	0	0	n/a	n/a	n/a	n/a	n/a
1707.326	n/a	REC_WORD	853663	wordpools/wasnorm_wordpool_less_exclusions.txt	LTP236	ltpFR	13	6	0	BEETLE	116	n/a	0	n/a	0	0	0	n/a	n/a	n/a	n/a	n/a
1707.974	n/a	REC_WORD	853987	wordpools/wasnorm_wordpool_less_exclusions.txt	LTP236	ltpFR	13	6	0	BUTTERFLY	206	n/a	0	n/a	0	0	0	n/a	n/a	n/a	n/a	n/a
1709.122	n/a	REC_WORD	854561	wordpools/wasnorm_wordpool_less_exclusions.txt	LTP236	ltpFR	13	6	0	SNACK	1331	n/a	0	n/a	0	0	0	n/a	n/a	n/a	n/a	n/a
1710.37	n/a	REC_WORD	855185	wordpools/wasnorm_wordpool_less_exclusions.txt	LTP236	ltpFR	13	6	0	BANQUET	86	n/a	1	n/a	0	0	0	n/a	n/a	n/a	n/a	n/a
1719.418	n/a	REC_WORD	859709	wordpools/wasnorm_wordpool_less_exclusions.txt	LTP236	ltpFR	13	6	0	RIBBON	1189	n/a	0	n/a	0	0	0	n/a	n/a	n/a	n/a	n/a
1720.22	n/a	REC_WORD	860110	wordpools/wasnorm_wordpool_less_exclusions.txt	LTP236	ltpFR	13	6	0	NIGHTGOWN	953	n/a	1	n/a	0	0	0	n/a	n/a	n/a	n/a	n/a
1721.488	n/a	REC_WORD	860744	wordpools/wasnorm_wordpool_less_exclusions.txt	LTP236	ltpFR	13	6	0	ROBE	1198	n/a	1	n/a	0	0	0	n/a	n/a	n/a	n/a	n/a
1722.248	n/a	REC_WORD	861124	wordpools/wasnorm_wordpool_less_exclusions.txt	LTP236	ltpFR	13	6	0	PACKAGE	997	n/a	1	n/a	0	0	0	n/a	n/a	n/a	n/a	n/a
1777.21	n/a	WORD	888605	wordpools/wasnorm_wordpool_less_exclusions.txt	LTP236	ltpFR	13	7	1	ARTICLE	42	n/a	0	n/a	0	0	0	0	0.5869140625	0.422607421875	lower	../fonts/zerothre.ttf
1781.428	n/a	WORD	890714	wordpools/wasnorm_wordpool_less_exclusions.txt	LTP236	ltpFR	13	7	1	TRAITOR	1495	n/a	1	n/a	0	0	0	0	0.5869140625	0.422607421875	lower	../fonts/zerothre.ttf
1785.626	n/a	WORD	892813	wordpools/wasnorm_wordpool_less_exclusions.txt	LTP236	ltpFR	13	7	1	TROPHY	1509	n/a	0	n/a	0	0	0	0	0.5869140625	0.422607421875	lower	../fonts/zerothre.ttf
1789.692	n/a	WORD	894846	wordpools/wasnorm_wordpool_less_exclusions.txt	LTP236	ltpFR	13	7	1	PICKLE	1059	n/a	0	n/a	0	0	0	0	0.5869140625	0.422607421875	lower	../fonts/zerothre.ttf
1793.69	n/a	WORD	896845	wordpools/wasnorm_wordpool_less_exclusions.txt	LTP236	ltpFR	13	7	1	CARROT	249	n/a	0	n/a	0	0	0	0	0.5869140625	0.422607421875	lower	../fonts/zerothre.ttf
1797.638	n/a	WORD	898819	wordpools/wasnorm_wordpool_less_exclusions.txt	LTP236	ltpFR	13	7	1	SKATE	1313	n/a	0	n/a	0	0	0	0	0.5869140625	0.422607421875	lower	../fonts/zerothre.ttf
1801.62	n/a	WORD	900810	wordpools/wasnorm_wordpool_less_exclusions.txt	LTP236	ltpFR	13	7	1	ANTENNA	28	n/a	0	n/a	0	0	0	0	0.5869140625	0.422607421875	lower	../fonts/zerothre.ttf
1805.67	n/a	WORD	902835	wordpools/wasnorm_wordpool_less_exclusions.txt	LTP236	ltpFR	13	7	1	APE	31	n/a	1	n/a	0	0	0	0	0.5869140625	0.422607421875	lower	../fonts/zerothre.ttf
1809.836	n/a	WORD	904918	wordpools/wasnorm_wordpool_less_exclusions.txt	LTP236	ltpFR	13	7	1	CHIMPANZEE	302	n/a	1	n/a	0	0	0	0	0.5869140625	0.422607421875	lower	../fonts/zerothre.ttf
1813.884	n/a	WORD	906942	wordpools/wasnorm_wordpool_less_exclusions.txt	LTP236	ltpFR	13	7	1	SARDINE	1235	n/a	0	n/a	0	0	0	0	0.5869140625	0.422607421875	lower	../fonts/zerothre.ttf
1817.878	n/a	WORD	908939	wordpools/wasnorm_wordpool_less_exclusions.txt	LTP236	ltpFR	13	7	1	WITCH	1617	n/a	1	n/a	0	0	0	0	0.5869140625	0.422607421875	lower	../fonts/zerothre.ttf
1821.916	n/a	WORD	910958	wordpools/wasnorm_wordpool_less_exclusions.txt	LTP236	ltpFR	13	7	1	SUSPECT	1415	n/a	1	n/a	0	0	0	0	0.5869140625	0.422607421875	lower	../fonts/zerothre.ttf
1825.994	n/a	WORD	912997	wordpools/wasnorm_wordpool_less_exclusions.txt	LTP236	ltpFR	13	7	1	LAMP	798	n/a	0	n/a	0	0	0	0	0.5869140625	0.422607421875	lower	../fonts/zerothre.ttf
1829.826	n/a	WORD	914913	wordpools/wasnorm_wordpool_less_exclusions.txt	LTP236	ltpFR	13	7	1	SWITCH	1422	n/a	0	n/a	0	0	0	0	0.5869140625	0.422607421875	lower	../fonts/zerothre.ttf
1833.692	n/a	WORD	916846	wordpools/wasnorm_wordpool_less_exclusions.txt	LTP236	ltpFR	13	7	1	NEWSPAPER	948	n/a	0	n/a	0	0	0	0	0.5869140625	0.422607421875	lower	../fonts/zerothre.ttf
1837.76	n/a	WORD	918880	wordpools/wasnorm_wordpool_less_exclusions.txt	LTP236	ltpFR	13	7	1	TAXI	1438	n/a	1	n/a	0	0	0	0	0.5869140625	0.422607421875	lower	../fonts/zerothre.ttf
1840.772	n/a	START	920386	n/a	LTP236	ltpFR	13	n/a	n/a	n/a	n/a	n/a	n/a	n/a	n/a	n/a	n/a	n/a	n/a	n/a	n/a	n/a
1841.758	n/a	PROB	920879	n/a	LTP236	ltpFR	13	n/a	n/a	n/a	n/a	n/a	n/a	18	4	5	9	n/a	n/a	n/a	n/a	n/a
1844.804	n/a	PROB	922402	n/a	LTP236	ltpFR	13	n/a	n/a	n/a	n/a	n/a	n/a	13	6	5	2	n/a	n/a	n/a	n/a	n/a
1845.986	n/a	PROB	922993	n/a	LTP236	ltpFR	13	n/a	n/a	n/a	n/a	n/a	n/a	13	2	6	5	n/a	n/a	n/a	n/a	n/a
1847.058	n/a	PROB	923529	n/a	LTP236	ltpFR	13	n/a	n/a	n/a	n/a	n/a	n/a	17	4	9	4	n/a	n/a	n/a	n/a	n/a
1848.472	n/a	STOP	924236	n/a	LTP236	ltpFR	13	n/a	n/a	n/a	n/a	n/a	n/a	n/a	n/a	n/a	n/a	n/a	n/a	n/a	n/a	n/a
1850.676	n/a	REC_START	925338	n/a	LTP236	ltpFR	13	7	n/a	n/a	n/a	n/a	n/a	n/a	0	0	0	n/a	n/a	n/a	n/a	n/a
1852.012	n/a	REC_WORD	926006	wordpools/wasnorm_wordpool_less_exclusions.txt	LTP236	ltpFR	13	7	1	NEWSPAPER	948	n/a	0	n/a	0	0	0	n/a	n/a	n/a	n/a	n/a
1853.012	n/a	REC_WORD_VV	926506	wordpools/wasnorm_wordpool_less_exclusions.txt	LTP236	ltpFR	13	7	n/a	<>	-1	n/a	n/a	n/a	0	0	0	n/a	n/a	n/a	n/a	n/a
1853.488	n/a	REC_WORD	926744	wordpools/wasnorm_wordpool_less_exclusions.txt	LTP236	ltpFR	13	7	1	ARTICLE	42	n/a	0	n/a	0	0	0	n/a	n/a	n/a	n/a	n/a
1854.722	n/a	REC_WORD	927361	wordpools/wasnorm_wordpool_less_exclusions.txt	LTP236	ltpFR	13	7	1	TAXI	1438	n/a	1	n/a	0	0	0	n/a	n/a	n/a	n/a	n/a
1855.728	n/a	REC_WORD	927864	wordpools/wasnorm_wordpool_less_exclusions.txt	LTP236	ltpFR	13	7	1	LAMP	798	n/a	0	n/a	0	0	0	n/a	n/a	n/a	n/a	n/a
1856.452	n/a	REC_WORD	928226	wordpools/wasnorm_wordpool_less_exclusions.txt	LTP236	ltpFR	13	7	1	SWITCH	1422	n/a	0	n/a	0	0	0	n/a	n/a	n/a	n/a	n/a
1857.756	n/a	REC_WORD	928878	wordpools/wasnorm_wordpool_less_exclusions.txt	LTP236	ltpFR	13	7	1	WITCH	1617	n/a	1	n/a	0	0	0	n/a	n/a	n/a	n/a	n/a
1858.872	n/a	REC_WORD	929436	wordpools/wasnorm_wordpool_less_exclusions.txt	LTP236	ltpFR	13	7	1	SARDINE	1235	n/a	0	n/a	0	0	0	n/a	n/a	n/a	n/a	n/a
1860.504	n/a	REC_WORD	930252	wordpools/wasnorm_wordpool_less_exclusions.txt	LTP236	ltpFR	13	7	1	CHIMPANZEE	302	n/a	1	n/a	0	0	0	n/a	n/a	n/a	n/a	n/a
1862.37	n/a	REC_WORD	931185	wordpools/wasnorm_wordpool_less_exclusions.txt	LTP236	ltpFR	13	7	1	APE	31	n/a	1	n/a	0	0	0	n/a	n/a	n/a	n/a	n/a
1863.452	n/a	REC_WORD	931726	wordpools/wasnorm_wordpool_less_exclusions.txt	LTP236	ltpFR	13	7	1	SKATE	1313	n/a	0	n/a	0	0	0	n/a	n/a	n/a	n/a	n/a
1864.554	n/a	REC_WORD	932277	wordpools/wasnorm_wordpool_less_exclusions.txt	LTP236	ltpFR	13	7	1	ANTENNA	28	n/a	0	n/a	0	0	0	n/a	n/a	n/a	n/a	n/a
1866.39	n/a	REC_WORD	933195	wordpools/wasnorm_wordpool_less_exclusions.txt	LTP236	ltpFR	13	7	1	CARROT	249	n/a	0	n/a	0	0	0	n/a	n/a	n/a	n/a	n/a
1867.668	n/a	REC_WORD	933834	wordpools/wasnorm_wordpool_less_exclusions.txt	LTP236	ltpFR	13	7	1	TROPHY	1509	n/a	0	n/a	0	0	0	n/a	n/a	n/a	n/a	n/a
1871.02	n/a	REC_WORD	935510	wordpools/wasnorm_wordpool_less_exclusions.txt	LTP236	ltpFR	13	7	1	PICKLE	1059	n/a	0	n/a	0	0	0	n/a	n/a	n/a	n/a	n/a
1876.988	n/a	REC_WORD	938494	wordpools/wasnorm_wordpool_less_exclusions.txt	LTP236	ltpFR	13	7	1	TRAITOR	1495	n/a	1	n/a	0	0	0	n/a	n/a	n/a	n/a	n/a
1929.27	n/a	WORD	964635	wordpools/wasnorm_wordpool_less_exclusions.txt	LTP236	ltpFR	13	8	0	ROOM	1206	n/a	1	n/a	0	0	0	1	0.412841796875	0.57763671875	upper	../fonts/amplitud.ttf
1933.222	n/a	WORD	966611	wordpools/wasnorm_wordpool_less_exclusions.txt	LTP236	ltpFR	13	8	0	PIGEON	1065	n/a	0	n/a	0	0	0	1	0.412841796875	0.57763671875	upper	../fonts/amplitud.ttf
1937.222	n/a	WORD	968611	wordpools/wasnorm_wordpool_less_exclusions.txt	LTP236	ltpFR	13	8	0	CITRUS	313	n/a	0	n/a	0	0	0	1	0.412841796875	0.57763671875	upper	../fonts/amplitud.ttf
1941.422	n/a	WORD	970711	wordpools/wasnorm_wordpool_less_exclusions.txt	LTP236	ltpFR	13	8	0	CHERRY	293	n/a	0	n/a	0	0	0	1	0.412841796875	0.57763671875	upper	../fonts/amplitud.ttf
1945.588	n/a	WORD	972794	wordpools/wasnorm_wordpool_less_exclusions.txt	LTP236	ltpFR	13	8	0	CABINET	212	n/a	1	n/a	0	0	0	1	0.412841796875	0.57763671875	upper	../fonts/amplitud.ttf
1949.552	n/a	WORD	974776	wordpools/wasnorm_wordpool_less_exclusions.txt	LTP236	ltpFR	13	8	0	SCROLL	1257	n/a	1	n/a	0	0	0	1	0.412841796875	0.57763671875	upper	../fonts/amplitud.ttf
1953.4	n/a	WORD	976700	wordpools/wasnorm_wordpool_less_exclusions.txt	LTP236	ltpFR	13	8	0	COTTAGE	384	n/a	1	n/a	0	0	0	1	0.412841796875	0.57763671875	upper	../fonts/amplitud.ttf
1957.516	n/a	WORD	978758	wordpools/wasnorm_wordpool_less_exclusions.txt	LTP236	ltpFR	13	8	0	LEAF	808	n/a	0	n/a	0	0	0	1	0.412841796875	0.57763671875	upper	../fonts/amplitud.ttf
1961.666	n/a	WORD	980833	wordpools/wasnorm_wordpool_less_exclusions.txt	LTP236	ltpFR	13	8	0	CUB	419	n/a	1	n/a	0	0	0	1	0.412841796875	0.57763671875	upper	../fonts/amplitud.ttf
1965.766	n/a	WORD	982883	wordpools/wasnorm_wordpool_less_exclusions.txt	LTP236	ltpFR	13	8	0	SLACKS	1323	n/a	0	n/a	0	0	0	1	0.412841796875	0.57763671875	upper	../fonts/amplitud.ttf
1969.814	n/a	WORD	984907	wordpools/wasnorm_wordpool_less_exclusions.txt	LTP236	ltpFR	13	8	0	EAGLE	512	n/a	1	n/a	0	0	0	1	0.412841796875	0.57763671875	upper	../fonts/amplitud.ttf
1973.962	n/a	WORD	986981	wordpools/wasnorm_wordpool_less_exclusions.txt	LTP236	ltpFR	13	8	0	HOUSE	725	n/a	1	n/a	0	0	0	1	0.412841796875	0.57763671875	upper	../fonts/amplitud.ttf
1978.124	n/a	WORD	989062	wordpools/wasnorm_wordpool_less_exclusions.txt	LTP236	ltpFR	13	8	0	TERRITORY	1452	n/a	1	n/a	0	0	0	1	0.412841796875	0.57763671875	upper	../fonts/amplitud.ttf
1981.992	n/a	WORD	990996	wordpools/wasnorm_wordpool_less_exclusions.txt	LTP236	ltpFR	13	8	0	DETERGENT	455	n/a	0	n/a	0	0	0	1	0.412841796875	0.57763671875	upper	../fonts/amplitud.ttf
1986.072	n/a	WORD	993036	wordpools/wasnorm_wordpool_less_exclusions.txt	LTP236	ltpFR	13	8	0	TUBE	1516	n/a	0	n/a	0	0	0	1	0.412841796875	0.57763671875	upper	../fonts/amplitud.ttf
1990.14	n/a	WORD	995070	wordpools/wasnorm_wordpool_less_exclusions.txt	LTP236	ltpFR	13	8	0	BRIDGE	174	n/a	1	n/a	0	0	0	1	0.412841796875	0.57763671875	upper	../fonts/amplitud.ttf
1993.154	n/a	START	996577	n/a	LTP236	ltpFR	13	n/a	n/a	n/a	n/a	n/a	n/a	n/a	n/a	n/a	n/a	n/a	n/a	n/a	n/a	n/a
1994.236	n/a	PROB	997118	n/a	LTP236	ltpFR	13	n/a	n/a	n/a	n/a	n/a	n/a	13	7	4	2	n/a	n/a	n/a	n/a	n/a
1995.826	n/a	PROB	997913	n/a	LTP236	ltpFR	13	n/a	n/a	n/a	n/a	n/a	n/a	15	1	8	6	n/a	n/a	n/a	n/a	n/a
1996.866	n/a	PROB	998433	n/a	LTP236	ltpFR	13	n/a	n/a	n/a	n/a	n/a	n/a	18	4	6	8	n/a	n/a	n/a	n/a	n/a
1998.268	n/a	PROB	999134	n/a	LTP236	ltpFR	13	n/a	n/a	n/a	n/a	n/a	n/a	12	2	2	8	n/a	n/a	n/a	n/a	n/a
1999.256	n/a	PROB	999628	n/a	LTP236	ltpFR	13	n/a	n/a	n/a	n/a	n/a	n/a	19	6	7	6	n/a	n/a	n/a	n/a	n/a
2000.296	n/a	STOP	1000148	n/a	LTP236	ltpFR	13	n/a	n/a	n/a	n/a	n/a	n/a	n/a	n/a	n/a	n/a	n/a	n/a	n/a	n/a	n/a
2003.024	n/a	REC_START	1001512	n/a	LTP236	ltpFR	13	8	n/a	n/a	n/a	n/a	n/a	n/a	0	0	0	n/a	n/a	n/a	n/a	n/a
2004.374	n/a	REC_WORD	1002187	wordpools/wasnorm_wordpool_less_exclusions.txt	LTP236	ltpFR	13	8	0	DETERGENT	455	n/a	0	n/a	0	0	0	n/a	n/a	n/a	n/a	n/a
2005.288	n/a	REC_WORD	1002644	wordpools/wasnorm_wordpool_less_exclusions.txt	LTP236	ltpFR	13	8	0	TUBE	1516	n/a	0	n/a	0	0	0	n/a	n/a	n/a	n/a	n/a
2006.142	n/a	REC_WORD	1003071	wordpools/wasnorm_wordpool_less_exclusions.txt	LTP236	ltpFR	13	8	0	BRIDGE	174	n/a	1	n/a	0	0	0	n/a	n/a	n/a	n/a	n/a
2006.95	n/a	REC_WORD	1003475	wordpools/wasnorm_wordpool_less_exclusions.txt	LTP236	ltpFR	13	8	0	HOUSE	725	n/a	1	n/a	0	0	0	n/a	n/a	n/a	n/a	n/a
2007.792	n/a	REC_WORD	1003896	wordpools/wasnorm_wordpool_less_exclusions.txt	LTP236	ltpFR	13	8	0	TERRITORY	1452	n/a	1	n/a	0	0	0	n/a	n/a	n/a	n/a	n/a
2008.766	n/a	REC_WORD	1004383	wordpools/wasnorm_wordpool_less_exclusions.txt	LTP236	ltpFR	13	8	0	EAGLE	512	n/a	1	n/a	0	0	0	n/a	n/a	n/a	n/a	n/a
2009.584	n/a	REC_WORD	1004792	wordpools/wasnorm_wordpool_less_exclusions.txt	LTP236	ltpFR	13	8	0	CUB	419	n/a	1	n/a	0	0	0	n/a	n/a	n/a	n/a	n/a
2010.732	n/a	REC_WORD	1005366	wordpools/wasnorm_wordpool_less_exclusions.txt	LTP236	ltpFR	13	8	0	COTTAGE	384	n/a	1	n/a	0	0	0	n/a	n/a	n/a	n/a	n/a
2011.642	n/a	REC_WORD	1005821	wordpools/wasnorm_wordpool_less_exclusions.txt	LTP236	ltpFR	13	8	0	ROOM	1206	n/a	1	n/a	0	0	0	n/a	n/a	n/a	n/a	n/a
2013.256	n/a	REC_WORD	1006628	wordpools/wasnorm_wordpool_less_exclusions.txt	LTP236	ltpFR	13	8	n/a	CUPBOARD	425	n/a	n/a	n/a	0	0	0	n/a	n/a	n/a	n/a	n/a
2017.272	n/a	REC_WORD	1008636	wordpools/wasnorm_wordpool_less_exclusions.txt	LTP236	ltpFR	13	8	0	CITRUS	313	n/a	0	n/a	0	0	0	n/a	n/a	n/a	n/a	n/a
2018.44	n/a	REC_WORD	1009220	wordpools/wasnorm_wordpool_less_exclusions.txt	LTP236	ltpFR	13	8	0	LEAF	808	n/a	0	n/a	0	0	0	n/a	n/a	n/a	n/a	n/a
2019.946	n/a	REC_WORD	1009973	wordpools/wasnorm_wordpool_less_exclusions.txt	LTP236	ltpFR	13	8	0	CHERRY	293	n/a	0	n/a	0	0	0	n/a	n/a	n/a	n/a	n/a
2037.826	n/a	REC_WORD	1018913	wordpools/wasnorm_wordpool_less_exclusions.txt	LTP236	ltpFR	13	8	0	PIGEON	1065	n/a	0	n/a	0	0	0	n/a	n/a	n/a	n/a	n/a
2058.022	n/a	REC_WORD	1029011	wordpools/wasnorm_wordpool_less_exclusions.txt	LTP236	ltpFR	13	8	0	SCROLL	1257	n/a	1	n/a	0	0	0	n/a	n/a	n/a	n/a	n/a
2081.506	n/a	WORD	1040753	wordpools/wasnorm_wordpool_less_exclusions.txt	LTP236	ltpFR	13	9	1	REFRIGERATOR	1179	n/a	0	n/a	0	0	0	0	0.5869140625	0.422607421875	lower	../fonts/zerothre.ttf
2085.354	n/a	WORD	1042677	wordpools/wasnorm_wordpool_less_exclusions.txt	LTP236	ltpFR	13	9	1	ENEMY	534	n/a	1	n/a	0	0	0	0	0.5869140625	0.422607421875	lower	../fonts/zerothre.ttf
2089.286	n/a	WORD	1044643	wordpools/wasnorm_wordpool_less_exclusions.txt	LTP236	ltpFR	13	9	1	CHEF	290	n/a	1	n/a	0	0	0	0	0.5869140625	0.422607421875	lower	../fonts/zerothre.ttf
2093.214	n/a	WORD	1046607	wordpools/wasnorm_wordpool_less_exclusions.txt	LTP236	ltpFR	13	9	1	TREE	1502	n/a	0	n/a	0	0	0	0	0.5869140625	0.422607421875	lower	../fonts/zerothre.ttf
2097.38	n/a	WORD	1048690	wordpools/wasnorm_wordpool_less_exclusions.txt	LTP236	ltpFR	13	9	1	PARIS	1014	n/a	0	n/a	0	0	0	0	0.5869140625	0.422607421875	lower	../fonts/zerothre.ttf
2101.366	n/a	WORD	1050683	wordpools/wasnorm_wordpool_less_exclusions.txt	LTP236	ltpFR	13	9	1	COOK	372	n/a	0	n/a	0	0	0	0	0.5869140625	0.422607421875	lower	../fonts/zerothre.ttf
2105.214	n/a	WORD	1052607	wordpools/wasnorm_wordpool_less_exclusions.txt	LTP236	ltpFR	13	9	1	FROST	609	n/a	0	n/a	0	0	0	0	0.5869140625	0.422607421875	lower	../fonts/zerothre.ttf
2109.292	n/a	WORD	1054646	wordpools/wasnorm_wordpool_less_exclusions.txt	LTP236	ltpFR	13	9	1	CHIP	303	n/a	0	n/a	0	0	0	0	0.5869140625	0.422607421875	lower	../fonts/zerothre.ttf
2113.324	n/a	WORD	1056662	wordpools/wasnorm_wordpool_less_exclusions.txt	LTP236	ltpFR	13	9	1	CONE	363	n/a	0	n/a	0	0	0	0	0.5869140625	0.422607421875	lower	../fonts/zerothre.ttf
2117.16	n/a	WORD	1058580	wordpools/wasnorm_wordpool_less_exclusions.txt	LTP236	ltpFR	13	9	1	CABIN	211	n/a	0	n/a	0	0	0	0	0.5869140625	0.422607421875	lower	../fonts/zerothre.ttf
2121.322	n/a	WORD	1060661	wordpools/wasnorm_wordpool_less_exclusions.txt	LTP236	ltpFR	13	9	1	ROOT	1210	n/a	0	n/a	0	0	0	0	0.5869140625	0.422607421875	lower	../fonts/zerothre.ttf
2125.424	n/a	WORD	1062712	wordpools/wasnorm_wordpool_less_exclusions.txt	LTP236	ltpFR	13	9	1	ABDOMEN	1	n/a	0	n/a	0	0	0	0	0.5869140625	0.422607421875	lower	../fonts/zerothre.ttf
2129.506	n/a	WORD	1064753	wordpools/wasnorm_wordpool_less_exclusions.txt	LTP236	ltpFR	13	9	1	FOUNTAIN	597	n/a	1	n/a	0	0	0	0	0.5869140625	0.422607421875	lower	../fonts/zerothre.ttf
2133.69	n/a	WORD	1066845	wordpools/wasnorm_wordpool_less_exclusions.txt	LTP236	ltpFR	13	9	1	BROOK	177	n/a	0	n/a	0	0	0	0	0.5869140625	0.422607421875	lower	../fonts/zerothre.ttf
2137.722	n/a	WORD	1068861	wordpools/wasnorm_wordpool_less_exclusions.txt	LTP236	ltpFR	13	9	1	ROPE	1211	n/a	0	n/a	0	0	0	0	0.5869140625	0.422607421875	lower	../fonts/zerothre.ttf
2141.87	n/a	WORD	1070935	wordpools/wasnorm_wordpool_less_exclusions.txt	LTP236	ltpFR	13	9	1	SOCK	1339	n/a	0	n/a	0	0	0	0	0.5869140625	0.422607421875	lower	../fonts/zerothre.ttf
2147.894	n/a	REC_START	1073947	n/a	LTP236	ltpFR	13	9	n/a	n/a	n/a	n/a	n/a	n/a	0	0	0	n/a	n/a	n/a	n/a	n/a
2149.226	n/a	REC_WORD	1074613	wordpools/wasnorm_wordpool_less_exclusions.txt	LTP236	ltpFR	13	9	1	ROPE	1211	n/a	0	n/a	0	0	0	n/a	n/a	n/a	n/a	n/a
2149.934	n/a	REC_WORD	1074967	wordpools/wasnorm_wordpool_less_exclusions.txt	LTP236	ltpFR	13	9	1	SOCK	1339	n/a	0	n/a	0	0	0	n/a	n/a	n/a	n/a	n/a
2150.812	n/a	REC_WORD	1075406	wordpools/wasnorm_wordpool_less_exclusions.txt	LTP236	ltpFR	13	9	1	ABDOMEN	1	n/a	0	n/a	0	0	0	n/a	n/a	n/a	n/a	n/a
2151.53	n/a	REC_WORD	1075765	wordpools/wasnorm_wordpool_less_exclusions.txt	LTP236	ltpFR	13	9	1	FOUNTAIN	597	n/a	1	n/a	0	0	0	n/a	n/a	n/a	n/a	n/a
2157.158	n/a	REC_WORD	1078579	wordpools/wasnorm_wordpool_less_exclusions.txt	LTP236	ltpFR	13	9	1	TREE	1502	n/a	0	n/a	0	0	0	n/a	n/a	n/a	n/a	n/a
2158.146	n/a	REC_WORD	1079073	wordpools/wasnorm_wordpool_less_exclusions.txt	LTP236	ltpFR	13	9	1	PARIS	1014	n/a	0	n/a	0	0	0	n/a	n/a	n/a	n/a	n/a
2159.146	n/a	REC_WORD_VV	1079573	wordpools/wasnorm_wordpool_less_exclusions.txt	LTP236	ltpFR	13	9	n/a	<>	-1	n/a	n/a	n/a	0	0	0	n/a	n/a	n/a	n/a	n/a
2160.106	n/a	REC_WORD	1080053	wordpools/wasnorm_wordpool_less_exclusions.txt	LTP236	ltpFR	13	9	1	COOK	372	n/a	0	n/a	0	0	0	n/a	n/a	n/a	n/a	n/a
2160.964	n/a	REC_WORD	1080482	wordpools/wasnorm_wordpool_less_exclusions.txt	LTP236	ltpFR	13	9	1	CHEF	290	n/a	1	n/a	0	0	0	n/a	n/a	n/a	n/a	n/a
2168.988	n/a	REC_WORD	1084494	wordpools/wasnorm_wordpool_less_exclusions.txt	LTP236	ltpFR	13	9	1	CABIN	211	n/a	0	n/a	0	0	0	n/a	n/a	n/a	n/a	n/a
2176.366	n/a	REC_WORD	1088183	wordpools/wasnorm_wordpool_less_exclusions.txt	LTP236	ltpFR	13	9	1	ROPE	1211	n/a	0	n/a	0	0	0	n/a	n/a	n/a	n/a	n/a
2179.434	n/a	REC_WORD	1089717	wordpools/wasnorm_wordpool_less_exclusions.txt	LTP236	ltpFR	13	9	1	REFRIGERATOR	1179	n/a	0	n/a	0	0	0	n/a	n/a	n/a	n/a	n/a
2180.976	n/a	REC_WORD	1090488	wordpools/wasnorm_wordpool_less_exclusions.txt	LTP236	ltpFR	13	9	1	ENEMY	534	n/a	1	n/a	0	0	0	n/a	n/a	n/a	n/a	n/a
2220.268	n/a	REC_WORD	1110134	wordpools/wasnorm_wordpool_less_exclusions.txt	LTP236	ltpFR	13	9	1	SOCK	1339	n/a	0	n/a	0	0	0	n/a	n/a	n/a	n/a	n/a
2225.252	n/a	START	1112626	n/a	LTP236	ltpFR	13	n/a	n/a	n/a	n/a	n/a	n/a	n/a	n/a	n/a	n/a	n/a	n/a	n/a	n/a	n/a
2226.762	n/a	PROB	1113381	n/a	LTP236	ltpFR	13	n/a	n/a	n/a	n/a	n/a	n/a	16	7	6	3	n/a	n/a	n/a	n/a	n/a
2228.582	n/a	PROB	1114291	n/a	LTP236	ltpFR	13	n/a	n/a	n/a	n/a	n/a	n/a	18	1	8	9	n/a	n/a	n/a	n/a	n/a
2230.104	n/a	PROB	1115052	n/a	LTP236	ltpFR	13	n/a	n/a	n/a	n/a	n/a	n/a	8	3	1	4	n/a	n/a	n/a	n/a	n/a
2231.542	n/a	PROB	1115771	n/a	LTP236	ltpFR	13	n/a	n/a	n/a	n/a	n/a	n/a	17	3	9	5	n/a	n/a	n/a	n/a	n/a
2232.908	n/a	STOP	1116454	n/a	LTP236	ltpFR	13	n/a	n/a	n/a	n/a	n/a	n/a	n/a	n/a	n/a	n/a	n/a	n/a	n/a	n/a	n/a
2234.156	n/a	WORD	1117078	wordpools/wasnorm_wordpool_less_exclusions.txt	LTP236	ltpFR	13	10	1	CASHIER	254	n/a	1	n/a	0	0	0	0	0.5869140625	0.422607421875	lower	../fonts/zerothre.ttf
2237.168	n/a	START	1118584	n/a	LTP236	ltpFR	13	n/a	n/a	n/a	n/a	n/a	n/a	n/a	n/a	n/a	n/a	n/a	n/a	n/a	n/a	n/a
2238.106	n/a	PROB	1119053	n/a	LTP236	ltpFR	13	n/a	n/a	n/a	n/a	n/a	n/a	16	9	5	2	n/a	n/a	n/a	n/a	n/a
2239.624	n/a	PROB	1119812	n/a	LTP236	ltpFR	13	n/a	n/a	n/a	n/a	n/a	n/a	12	5	2	5	n/a	n/a	n/a	n/a	n/a
2241.062	n/a	PROB	1120531	n/a	LTP236	ltpFR	13	n/a	n/a	n/a	n/a	n/a	n/a	16	6	5	5	n/a	n/a	n/a	n/a	n/a
2242.418	n/a	PROB	1121209	n/a	LTP236	ltpFR	13	n/a	n/a	n/a	n/a	n/a	n/a	17	7	9	1	n/a	n/a	n/a	n/a	n/a
2243.556	n/a	PROB	1121778	n/a	LTP236	ltpFR	13	n/a	n/a	n/a	n/a	n/a	n/a	15	6	8	1	n/a	n/a	n/a	n/a	n/a
2244.556	n/a	STOP	1122278	n/a	LTP236	ltpFR	13	n/a	n/a	n/a	n/a	n/a	n/a	n/a	n/a	n/a	n/a	n/a	n/a	n/a	n/a	n/a
2246.32	n/a	WORD	1123160	wordpools/wasnorm_wordpool_less_exclusions.txt	LTP236	ltpFR	13	10	1	COIN	343	n/a	0	n/a	0	0	0	0	0.5869140625	0.422607421875	lower	../fonts/zerothre.ttf
2249.332	n/a	START	1124666	n/a	LTP236	ltpFR	13	n/a	n/a	n/a	n/a	n/a	n/a	n/a	n/a	n/a	n/a	n/a	n/a	n/a	n/a	n/a
2250.468	n/a	PROB	1125234	n/a	LTP236	ltpFR	13	n/a	n/a	n/a	n/a	n/a	n/a	14	5	8	1	n/a	n/a	n/a	n/a	n/a
2251.888	n/a	PROB	1125944	n/a	LTP236	ltpFR	13	n/a	n/a	n/a	n/a	n/a	n/a	19	9	5	5	n/a	n/a	n/a	n/a	n/a
2253.058	n/a	PROB	1126529	n/a	LTP236	ltpFR	13	n/a	n/a	n/a	n/a	n/a	n/a	13	5	2	6	n/a	n/a	n/a	n/a	n/a
2257.332	n/a	STOP	1128666	n/a	LTP236	ltpFR	13	n/a	n/a	n/a	n/a	n/a	n/a	n/a	n/a	n/a	n/a	n/a	n/a	n/a	n/a	n/a
2258.4	n/a	WORD	1129200	wordpools/wasnorm_wordpool_less_exclusions.txt	LTP236	ltpFR	13	10	1	LAMB	797	n/a	1	n/a	0	0	0	0	0.5869140625	0.422607421875	lower	../fonts/zerothre.ttf
2261.412	n/a	START	1130706	n/a	LTP236	ltpFR	13	n/a	n/a	n/a	n/a	n/a	n/a	n/a	n/a	n/a	n/a	n/a	n/a	n/a	n/a	n/a
2262.578	n/a	PROB	1131289	n/a	LTP236	ltpFR	13	n/a	n/a	n/a	n/a	n/a	n/a	11	4	3	4	n/a	n/a	n/a	n/a	n/a
2264.034	n/a	PROB	1132017	n/a	LTP236	ltpFR	13	n/a	n/a	n/a	n/a	n/a	n/a	13	1	7	5	n/a	n/a	n/a	n/a	n/a
2265.192	n/a	PROB	1132596	n/a	LTP236	ltpFR	13	n/a	n/a	n/a	n/a	n/a	n/a	13	2	6	5	n/a	n/a	n/a	n/a	n/a
2266.346	n/a	PROB	1133173	n/a	LTP236	ltpFR	13	n/a	n/a	n/a	n/a	n/a	n/a	16	2	7	7	n/a	n/a	n/a	n/a	n/a
2269.412	n/a	STOP	1134706	n/a	LTP236	ltpFR	13	n/a	n/a	n/a	n/a	n/a	n/a	n/a	n/a	n/a	n/a	n/a	n/a	n/a	n/a	n/a
2270.24	n/a	WORD	1135120	wordpools/wasnorm_wordpool_less_exclusions.txt	LTP236	ltpFR	13	10	0	HOUND	724	n/a	1	n/a	0	0	0	1	0.412841796875	0.57763671875	upper	../fonts/amplitud.ttf
2273.256	n/a	START	1136628	n/a	LTP236	ltpFR	13	n/a	n/a	n/a	n/a	n/a	n/a	n/a	n/a	n/a	n/a	n/a	n/a	n/a	n/a	n/a
2274.39	n/a	PROB	1137195	n/a	LTP236	ltpFR	13	n/a	n/a	n/a	n/a	n/a	n/a	9	1	6	2	n/a	n/a	n/a	n/a	n/a
2275.664	n/a	PROB	1137832	n/a	LTP236	ltpFR	13	n/a	n/a	n/a	n/a	n/a	n/a	16	4	7	5	n/a	n/a	n/a	n/a	n/a
2277.322	n/a	PROB	1138661	n/a	LTP236	ltpFR	13	n/a	n/a	n/a	n/a	n/a	n/a	22	9	5	8	n/a	n/a	n/a	n/a	n/a
2278.54	n/a	PROB	1139270	n/a	LTP236	ltpFR	13	n/a	n/a	n/a	n/a	n/a	n/a	11	1	4	6	n/a	n/a	n/a	n/a	n/a
2280.182	n/a	STOP	1140091	n/a	LTP236	ltpFR	13	n/a	n/a	n/a	n/a	n/a	n/a	n/a	n/a	n/a	n/a	n/a	n/a	n/a	n/a	n/a
2282.34	n/a	WORD	1141170	wordpools/wasnorm_wordpool_less_exclusions.txt	LTP236	ltpFR	13	10	0	FLY	586	n/a	0	n/a	0	0	0	1	0.412841796875	0.57763671875	upper	../fonts/amplitud.ttf
2285.352	n/a	START	1142676	n/a	LTP236	ltpFR	13	n/a	n/a	n/a	n/a	n/a	n/a	n/a	n/a	n/a	n/a	n/a	n/a	n/a	n/a	n/a
2286.318	n/a	PROB	1143159	n/a	LTP236	ltpFR	13	n/a	n/a	n/a	n/a	n/a	n/a	19	7	7	5	n/a	n/a	n/a	n/a	n/a
2287.69	n/a	PROB	1143845	n/a	LTP236	ltpFR	13	n/a	n/a	n/a	n/a	n/a	n/a	19	6	8	5	n/a	n/a	n/a	n/a	n/a
2288.896	n/a	PROB	1144448	n/a	LTP236	ltpFR	13	n/a	n/a	n/a	n/a	n/a	n/a	18	7	9	2	n/a	n/a	n/a	n/a	n/a
2290.1	n/a	PROB	1145050	n/a	LTP236	ltpFR	13	n/a	n/a	n/a	n/a	n/a	n/a	13	5	5	3	n/a	n/a	n/a	n/a	n/a
2293.352	n/a	STOP	1146676	n/a	LTP236	ltpFR	13	n/a	n/a	n/a	n/a	n/a	n/a	n/a	n/a	n/a	n/a	n/a	n/a	n/a	n/a	n/a
2294.454	n/a	WORD	1147227	wordpools/wasnorm_wordpool_less_exclusions.txt	LTP236	ltpFR	13	10	0	VIOLA	1570	n/a	1	n/a	0	0	0	1	0.412841796875	0.57763671875	upper	../fonts/amplitud.ttf
2297.466	n/a	START	1148733	n/a	LTP236	ltpFR	13	n/a	n/a	n/a	n/a	n/a	n/a	n/a	n/a	n/a	n/a	n/a	n/a	n/a	n/a	n/a
2298.502	n/a	PROB	1149251	n/a	LTP236	ltpFR	13	n/a	n/a	n/a	n/a	n/a	n/a	23	8	7	8	n/a	n/a	n/a	n/a	n/a
2300.556	n/a	PROB	1150278	n/a	LTP236	ltpFR	13	n/a	n/a	n/a	n/a	n/a	n/a	11	1	4	6	n/a	n/a	n/a	n/a	n/a
2302.096	n/a	PROB	1151048	n/a	LTP236	ltpFR	13	n/a	n/a	n/a	n/a	n/a	n/a	14	6	2	6	n/a	n/a	n/a	n/a	n/a
2304.856	n/a	STOP	1152428	n/a	LTP236	ltpFR	13	n/a	n/a	n/a	n/a	n/a	n/a	n/a	n/a	n/a	n/a	n/a	n/a	n/a	n/a	n/a
2306.482	n/a	WORD	1153241	wordpools/wasnorm_wordpool_less_exclusions.txt	LTP236	ltpFR	13	10	0	BUILDING	191	n/a	1	n/a	0	0	0	1	0.412841796875	0.57763671875	upper	../fonts/amplitud.ttf
2309.494	n/a	START	1154747	n/a	LTP236	ltpFR	13	n/a	n/a	n/a	n/a	n/a	n/a	n/a	n/a	n/a	n/a	n/a	n/a	n/a	n/a	n/a
2310.344	n/a	PROB	1155172	n/a	LTP236	ltpFR	13	n/a	n/a	n/a	n/a	n/a	n/a	13	4	2	7	n/a	n/a	n/a	n/a	n/a
2311.984	n/a	PROB	1155992	n/a	LTP236	ltpFR	13	n/a	n/a	n/a	n/a	n/a	n/a	20	9	7	4	n/a	n/a	n/a	n/a	n/a
2313.242	n/a	PROB	1156621	n/a	LTP236	ltpFR	13	n/a	n/a	n/a	n/a	n/a	n/a	17	3	7	7	n/a	n/a	n/a	n/a	n/a
2314.78	n/a	PROB	1157390	n/a	LTP236	ltpFR	13	n/a	n/a	n/a	n/a	n/a	n/a	11	1	2	8	n/a	n/a	n/a	n/a	n/a
2315.882	n/a	PROB	1157941	n/a	LTP236	ltpFR	13	n/a	n/a	n/a	n/a	n/a	n/a	18	7	9	2	n/a	n/a	n/a	n/a	n/a
2317.416	n/a	STOP	1158708	n/a	LTP236	ltpFR	13	n/a	n/a	n/a	n/a	n/a	n/a	n/a	n/a	n/a	n/a	n/a	n/a	n/a	n/a	n/a
2318.58	n/a	WORD	1159290	wordpools/wasnorm_wordpool_less_exclusions.txt	LTP236	ltpFR	13	10	1	FACTORY	548	n/a	0	n/a	0	0	0	0	0.5869140625	0.422607421875	lower	../fonts/zerothre.ttf
2321.592	n/a	START	1160796	n/a	LTP236	ltpFR	13	n/a	n/a	n/a	n/a	n/a	n/a	n/a	n/a	n/a	n/a	n/a	n/a	n/a	n/a	n/a
2322.41	n/a	PROB	1161205	n/a	LTP236	ltpFR	13	n/a	n/a	n/a	n/a	n/a	n/a	25	8	9	8	n/a	n/a	n/a	n/a	n/a
2324.414	n/a	PROB	1162207	n/a	LTP236	ltpFR	13	n/a	n/a	n/a	n/a	n/a	n/a	25	8	8	9	n/a	n/a	n/a	n/a	n/a
2325.858	n/a	PROB	1162929	n/a	LTP236	ltpFR	13	n/a	n/a	n/a	n/a	n/a	n/a	19	7	4	8	n/a	n/a	n/a	n/a	n/a
2327.058	n/a	PROB	1163529	n/a	LTP236	ltpFR	13	n/a	n/a	n/a	n/a	n/a	n/a	19	8	7	4	n/a	n/a	n/a	n/a	n/a
2328.16	n/a	STOP	1164080	n/a	LTP236	ltpFR	13	n/a	n/a	n/a	n/a	n/a	n/a	n/a	n/a	n/a	n/a	n/a	n/a	n/a	n/a	n/a
2330.726	n/a	WORD	1165363	wordpools/wasnorm_wordpool_less_exclusions.txt	LTP236	ltpFR	13	10	1	TROMBONE	1508	n/a	0	n/a	0	0	0	0	0.5869140625	0.422607421875	lower	../fonts/zerothre.ttf
2333.738	n/a	START	1166869	n/a	LTP236	ltpFR	13	n/a	n/a	n/a	n/a	n/a	n/a	n/a	n/a	n/a	n/a	n/a	n/a	n/a	n/a	n/a
2334.826	n/a	PROB	1167413	n/a	LTP236	ltpFR	13	n/a	n/a	n/a	n/a	n/a	n/a	16	3	4	9	n/a	n/a	n/a	n/a	n/a
2336.36	n/a	PROB	1168180	n/a	LTP236	ltpFR	13	n/a	n/a	n/a	n/a	n/a	n/a	13	3	9	1	n/a	n/a	n/a	n/a	n/a
2337.452	n/a	PROB	1168726	n/a	LTP236	ltpFR	13	n/a	n/a	n/a	n/a	n/a	n/a	10	1	5	4	n/a	n/a	n/a	n/a	n/a
2339.004	n/a	PROB	1169502	n/a	LTP236	ltpFR	13	n/a	n/a	n/a	n/a	n/a	n/a	12	3	2	7	n/a	n/a	n/a	n/a	n/a
2340.108	n/a	PROB	1170054	n/a	LTP236	ltpFR	13	n/a	n/a	n/a	n/a	n/a	n/a	12	4	1	7	n/a	n/a	n/a	n/a	n/a
2341.194	n/a	STOP	1170597	n/a	LTP236	ltpFR	13	n/a	n/a	n/a	n/a	n/a	n/a	n/a	n/a	n/a	n/a	n/a	n/a	n/a	n/a	n/a
2342.738	n/a	WORD	1171369	wordpools/wasnorm_wordpool_less_exclusions.txt	LTP236	ltpFR	13	10	1	WINE	1613	n/a	0	n/a	0	0	0	0	0.5869140625	0.422607421875	lower	../fonts/zerothre.ttf
2345.75	n/a	START	1172875	n/a	LTP236	ltpFR	13	n/a	n/a	n/a	n/a	n/a	n/a	n/a	n/a	n/a	n/a	n/a	n/a	n/a	n/a	n/a
2346.736	n/a	PROB	1173368	n/a	LTP236	ltpFR	13	n/a	n/a	n/a	n/a	n/a	n/a	12	6	1	5	n/a	n/a	n/a	n/a	n/a
2348.59	n/a	PROB	1174295	n/a	LTP236	ltpFR	13	n/a	n/a	n/a	n/a	n/a	n/a	13	3	8	2	n/a	n/a	n/a	n/a	n/a
2349.862	n/a	PROB	1174931	n/a	LTP236	ltpFR	13	n/a	n/a	n/a	n/a	n/a	n/a	21	9	3	9	n/a	n/a	n/a	n/a	n/a
2352.07	n/a	PROB	1176035	n/a	LTP236	ltpFR	13	n/a	n/a	n/a	n/a	n/a	n/a	14	4	7	3	n/a	n/a	n/a	n/a	n/a
2353.57	n/a	STOP	1176785	n/a	LTP236	ltpFR	13	n/a	n/a	n/a	n/a	n/a	n/a	n/a	n/a	n/a	n/a	n/a	n/a	n/a	n/a	n/a
2354.982	n/a	WORD	1177491	wordpools/wasnorm_wordpool_less_exclusions.txt	LTP236	ltpFR	13	10	1	TERMITE	1451	n/a	0	n/a	0	0	0	0	0.5869140625	0.422607421875	lower	../fonts/zerothre.ttf
2357.998	n/a	START	1178999	n/a	LTP236	ltpFR	13	n/a	n/a	n/a	n/a	n/a	n/a	n/a	n/a	n/a	n/a	n/a	n/a	n/a	n/a	n/a
2358.984	n/a	PROB	1179492	n/a	LTP236	ltpFR	13	n/a	n/a	n/a	n/a	n/a	n/a	14	7	2	5	n/a	n/a	n/a	n/a	n/a
2360.792	n/a	PROB	1180396	n/a	LTP236	ltpFR	13	n/a	n/a	n/a	n/a	n/a	n/a	13	2	8	3	n/a	n/a	n/a	n/a	n/a
2361.878	n/a	PROB	1180939	n/a	LTP236	ltpFR	13	n/a	n/a	n/a	n/a	n/a	n/a	7	1	3	3	n/a	n/a	n/a	n/a	n/a
2363.246	n/a	PROB	1181623	n/a	LTP236	ltpFR	13	n/a	n/a	n/a	n/a	n/a	n/a	3	1	1	1	n/a	n/a	n/a	n/a	n/a
2364.484	n/a	PROB	1182242	n/a	LTP236	ltpFR	13	n/a	n/a	n/a	n/a	n/a	n/a	12	3	2	7	n/a	n/a	n/a	n/a	n/a
2365.578	n/a	STOP	1182789	n/a	LTP236	ltpFR	13	n/a	n/a	n/a	n/a	n/a	n/a	n/a	n/a	n/a	n/a	n/a	n/a	n/a	n/a	n/a
2366.88	n/a	WORD	1183440	wordpools/wasnorm_wordpool_less_exclusions.txt	LTP236	ltpFR	13	10	1	BARTENDER	92	n/a	1	n/a	0	0	0	0	0.5869140625	0.422607421875	lower	../fonts/zerothre.ttf
2369.892	n/a	START	1184946	n/a	LTP236	ltpFR	13	n/a	n/a	n/a	n/a	n/a	n/a	n/a	n/a	n/a	n/a	n/a	n/a	n/a	n/a	n/a
2370.896	n/a	PROB	1185448	n/a	LTP236	ltpFR	13	n/a	n/a	n/a	n/a	n/a	n/a	14	5	3	6	n/a	n/a	n/a	n/a	n/a
2372.598	n/a	PROB	1186299	n/a	LTP236	ltpFR	13	n/a	n/a	n/a	n/a	n/a	n/a	19	9	3	7	n/a	n/a	n/a	n/a	n/a
2374.71	n/a	PROB	1187355	n/a	LTP236	ltpFR	13	n/a	n/a	n/a	n/a	n/a	n/a	12	2	4	6	n/a	n/a	n/a	n/a	n/a
2375.778	n/a	PROB	1187889	n/a	LTP236	ltpFR	13	n/a	n/a	n/a	n/a	n/a	n/a	17	6	3	8	n/a	n/a	n/a	n/a	n/a
2377.212	n/a	STOP	1188606	n/a	LTP236	ltpFR	13	n/a	n/a	n/a	n/a	n/a	n/a	n/a	n/a	n/a	n/a	n/a	n/a	n/a	n/a	n/a
2378.944	n/a	WORD	1189472	wordpools/wasnorm_wordpool_less_exclusions.txt	LTP236	ltpFR	13	10	0	YARD	1630	n/a	1	n/a	0	0	0	1	0.412841796875	0.57763671875	upper	../fonts/amplitud.ttf
2381.956	n/a	START	1190978	n/a	LTP236	ltpFR	13	n/a	n/a	n/a	n/a	n/a	n/a	n/a	n/a	n/a	n/a	n/a	n/a	n/a	n/a	n/a
2383.126	n/a	PROB	1191563	n/a	LTP236	ltpFR	13	n/a	n/a	n/a	n/a	n/a	n/a	13	4	5	4	n/a	n/a	n/a	n/a	n/a
2384.896	n/a	PROB	1192448	n/a	LTP236	ltpFR	13	n/a	n/a	n/a	n/a	n/a	n/a	13	7	1	5	n/a	n/a	n/a	n/a	n/a
2386.786	n/a	PROB	1193393	n/a	LTP236	ltpFR	13	n/a	n/a	n/a	n/a	n/a	n/a	11	5	5	1	n/a	n/a	n/a	n/a	n/a
2387.84	n/a	PROB	1193920	n/a	LTP236	ltpFR	13	n/a	n/a	n/a	n/a	n/a	n/a	25	9	7	9	n/a	n/a	n/a	n/a	n/a
