onset	duration	trial_type	sample	stim_file	subject	experiment	session	trial	item_name	item_num	list	answer	test_x	test_y	test_z
269.994	n/a	SESS_START	134997	n/a	LTP285	ltpFR2	1	n/a	n/a	n/a	n/a	n/a	0	0	0
376.838	n/a	START	188419	n/a	LTP285	ltpFR2	1	n/a	n/a	n/a	-1	n/a	n/a	n/a	n/a
376.87	n/a	PROB	188435	n/a	LTP285	ltpFR2	1	n/a	n/a	n/a	-1	13	7	2	4
379.634	n/a	PROB	189817	n/a	LTP285	ltpFR2	1	n/a	n/a	n/a	-1	18	6	9	3
382.294	n/a	PROB	191147	n/a	LTP285	ltpFR2	1	n/a	n/a	n/a	-1	15	5	8	3
385.89	n/a	PROB	192945	n/a	LTP285	ltpFR2	1	n/a	n/a	n/a	-1	15	9	5	1
388.838	n/a	STOP	194419	n/a	LTP285	ltpFR2	1	n/a	n/a	n/a	-1	n/a	n/a	n/a	n/a
459.464	n/a	WORD	229732	wordpools/wasnorm_wordpool_576.txt	LTP285	ltpFR2	1	1	PRIMATE	1123	n/a	n/a	0	0	0
461.978	n/a	WORD	230989	wordpools/wasnorm_wordpool_576.txt	LTP285	ltpFR2	1	1	PACKAGE	997	n/a	n/a	0	0	0
464.724	n/a	WORD	232362	wordpools/wasnorm_wordpool_576.txt	LTP285	ltpFR2	1	1	KITCHEN	778	n/a	n/a	0	0	0
467.47	n/a	WORD	233735	wordpools/wasnorm_wordpool_576.txt	LTP285	ltpFR2	1	1	CRATER	400	n/a	n/a	0	0	0
470.182	n/a	WORD	235091	wordpools/wasnorm_wordpool_576.txt	LTP285	ltpFR2	1	1	NOTEBOOK	959	n/a	n/a	0	0	0
472.93	n/a	WORD	236465	wordpools/wasnorm_wordpool_576.txt	LTP285	ltpFR2	1	1	CLAMP	316	n/a	n/a	0	0	0
475.742	n/a	WORD	237871	wordpools/wasnorm_wordpool_576.txt	LTP285	ltpFR2	1	1	WAGON	1578	n/a	n/a	0	0	0
478.42	n/a	WORD	239210	wordpools/wasnorm_wordpool_576.txt	LTP285	ltpFR2	1	1	HOOD	714	n/a	n/a	0	0	0
481.016	n/a	WORD	240508	wordpools/wasnorm_wordpool_576.txt	LTP285	ltpFR2	1	1	LUGGAGE	847	n/a	n/a	0	0	0
483.68	n/a	WORD	241840	wordpools/wasnorm_wordpool_576.txt	LTP285	ltpFR2	1	1	MAILMAN	858	n/a	n/a	0	0	0
486.508	n/a	WORD	243254	wordpools/wasnorm_wordpool_576.txt	LTP285	ltpFR2	1	1	VELVET	1555	n/a	n/a	0	0	0
489.07	n/a	WORD	244535	wordpools/wasnorm_wordpool_576.txt	LTP285	ltpFR2	1	1	FLESH	579	n/a	n/a	0	0	0
491.5	n/a	WORD	245750	wordpools/wasnorm_wordpool_576.txt	LTP285	ltpFR2	1	1	APPLE	33	n/a	n/a	0	0	0
494.214	n/a	WORD	247107	wordpools/wasnorm_wordpool_576.txt	LTP285	ltpFR2	1	1	DINER	467	n/a	n/a	0	0	0
497.042	n/a	WORD	248521	wordpools/wasnorm_wordpool_576.txt	LTP285	ltpFR2	1	1	PASTRY	1022	n/a	n/a	0	0	0
499.706	n/a	WORD	249853	wordpools/wasnorm_wordpool_576.txt	LTP285	ltpFR2	1	1	LABEL	790	n/a	n/a	0	0	0
502.35	n/a	WORD	251175	wordpools/wasnorm_wordpool_576.txt	LTP285	ltpFR2	1	1	BLOUSE	139	n/a	n/a	0	0	0
504.898	n/a	WORD	252449	wordpools/wasnorm_wordpool_576.txt	LTP285	ltpFR2	1	1	SHORTS	1293	n/a	n/a	0	0	0
507.476	n/a	WORD	253738	wordpools/wasnorm_wordpool_576.txt	LTP285	ltpFR2	1	1	SURVEY	1414	n/a	n/a	0	0	0
510.122	n/a	WORD	255061	wordpools/wasnorm_wordpool_576.txt	LTP285	ltpFR2	1	1	MUFFIN	929	n/a	n/a	0	0	0
512.852	n/a	WORD	256426	wordpools/wasnorm_wordpool_576.txt	LTP285	ltpFR2	1	1	GIFT	635	n/a	n/a	0	0	0
515.414	n/a	WORD	257707	wordpools/wasnorm_wordpool_576.txt	LTP285	ltpFR2	1	1	TRACTOR	1493	n/a	n/a	0	0	0
518.144	n/a	WORD	259072	wordpools/wasnorm_wordpool_576.txt	LTP285	ltpFR2	1	1	RACKET	1155	n/a	n/a	0	0	0
520.642	n/a	WORD	260321	wordpools/wasnorm_wordpool_576.txt	LTP285	ltpFR2	1	1	KNAPSACK	783	n/a	n/a	0	0	0
522.254	n/a	START	261127	n/a	LTP285	ltpFR2	1	n/a	n/a	n/a	1	n/a	n/a	n/a	n/a
523.072	n/a	DISTRACTOR	261536	n/a	LTP285	ltpFR2	1	1	n/a	n/a	n/a	n/a	0	0	0
523.086	n/a	PROB	261543	n/a	LTP285	ltpFR2	1	n/a	n/a	n/a	1	18	5	9	4
525.766	n/a	PROB	262883	n/a	LTP285	ltpFR2	1	n/a	n/a	n/a	1	17	5	4	8
527.28	n/a	PROB	263640	n/a	LTP285	ltpFR2	1	n/a	n/a	n/a	1	18	6	5	7
528.662	n/a	PROB	264331	n/a	LTP285	ltpFR2	1	n/a	n/a	n/a	1	16	5	9	2
530.426	n/a	PROB	265213	n/a	LTP285	ltpFR2	1	n/a	n/a	n/a	1	20	7	5	8
532.774	n/a	PROB	266387	n/a	LTP285	ltpFR2	1	n/a	n/a	n/a	1	17	8	5	4
536.45	n/a	PROB	268225	n/a	LTP285	ltpFR2	1	n/a	n/a	n/a	1	26	8	9	9
538.064	n/a	PROB	269032	n/a	LTP285	ltpFR2	1	n/a	n/a	n/a	1	19	9	4	6
539.58	n/a	PROB	269790	n/a	LTP285	ltpFR2	1	n/a	n/a	n/a	1	9	1	2	6
540.712	n/a	PROB	270356	n/a	LTP285	ltpFR2	1	n/a	n/a	n/a	1	12	2	1	8
543.708	n/a	PROB	271854	n/a	LTP285	ltpFR2	1	n/a	n/a	n/a	1	10	1	4	5
544.902	n/a	STOP	272451	n/a	LTP285	ltpFR2	1	n/a	n/a	n/a	1	n/a	n/a	n/a	n/a
548.068	n/a	REC_START	274034	n/a	LTP285	ltpFR2	1	1	n/a	n/a	n/a	n/a	0	0	0
549.068	n/a	REC_WORD	274534	wordpools/wasnorm_wordpool_576.txt	LTP285	ltpFR2	1	1	BLOUSE	139	n/a	n/a	0	0	0
549.988	n/a	REC_WORD	274994	wordpools/wasnorm_wordpool_576.txt	LTP285	ltpFR2	1	1	SHORTS	1293	n/a	n/a	0	0	0
551.46	n/a	REC_WORD	275730	wordpools/wasnorm_wordpool_576.txt	LTP285	ltpFR2	1	1	HOOD	714	n/a	n/a	0	0	0
552.828	n/a	REC_WORD	276414	wordpools/wasnorm_wordpool_576.txt	LTP285	ltpFR2	1	1	PRIMATE	1123	n/a	n/a	0	0	0
554.09	n/a	REC_WORD	277045	wordpools/wasnorm_wordpool_576.txt	LTP285	ltpFR2	1	1	VELVET	1555	n/a	n/a	0	0	0
555.696	n/a	REC_WORD	277848	wordpools/wasnorm_wordpool_576.txt	LTP285	ltpFR2	1	1	LUGGAGE	847	n/a	n/a	0	0	0
557.048	n/a	REC_WORD	278524	wordpools/wasnorm_wordpool_576.txt	LTP285	ltpFR2	1	1	FLESH	579	n/a	n/a	0	0	0
558.692	n/a	REC_WORD	279346	wordpools/wasnorm_wordpool_576.txt	LTP285	ltpFR2	1	1	MAILMAN	858	n/a	n/a	0	0	0
561.112	n/a	REC_WORD	280556	wordpools/wasnorm_wordpool_576.txt	LTP285	ltpFR2	1	1	PASTRY	1022	n/a	n/a	0	0	0
576.716	n/a	REC_WORD	288358	wordpools/wasnorm_wordpool_576.txt	LTP285	ltpFR2	1	1	KNAPSACK	783	n/a	n/a	0	0	0
578.2	n/a	REC_WORD	289100	wordpools/wasnorm_wordpool_576.txt	LTP285	ltpFR2	1	1	RACKET	1155	n/a	n/a	0	0	0
593.776	n/a	REC_WORD	296888	wordpools/wasnorm_wordpool_576.txt	LTP285	ltpFR2	1	1	APPLE	33	n/a	n/a	0	0	0
638.75	n/a	WORD	319375	wordpools/wasnorm_wordpool_576.txt	LTP285	ltpFR2	1	2	COMPASS	358	n/a	n/a	0	0	0
641.546	n/a	WORD	320773	wordpools/wasnorm_wordpool_576.txt	LTP285	ltpFR2	1	2	CASHIER	254	n/a	n/a	0	0	0
644.258	n/a	WORD	322129	wordpools/wasnorm_wordpool_576.txt	LTP285	ltpFR2	1	2	WHISKERS	1605	n/a	n/a	0	0	0
646.972	n/a	WORD	323486	wordpools/wasnorm_wordpool_576.txt	LTP285	ltpFR2	1	2	GUITAR	670	n/a	n/a	0	0	0
649.768	n/a	WORD	324884	wordpools/wasnorm_wordpool_576.txt	LTP285	ltpFR2	1	2	EAGLE	512	n/a	n/a	0	0	0
652.262	n/a	WORD	326131	wordpools/wasnorm_wordpool_576.txt	LTP285	ltpFR2	1	2	AUTHOR	61	n/a	n/a	0	0	0
654.992	n/a	WORD	327496	wordpools/wasnorm_wordpool_576.txt	LTP285	ltpFR2	1	2	FLEET	578	n/a	n/a	0	0	0
657.488	n/a	WORD	328744	wordpools/wasnorm_wordpool_576.txt	LTP285	ltpFR2	1	2	FRAGRANCE	599	n/a	n/a	0	0	0
660.1	n/a	WORD	330050	wordpools/wasnorm_wordpool_576.txt	LTP285	ltpFR2	1	2	PERCH	1048	n/a	n/a	0	0	0
662.88	n/a	WORD	331440	wordpools/wasnorm_wordpool_576.txt	LTP285	ltpFR2	1	2	RECORD	1176	n/a	n/a	0	0	0
665.51	n/a	WORD	332755	wordpools/wasnorm_wordpool_576.txt	LTP285	ltpFR2	1	2	EUROPE	541	n/a	n/a	0	0	0
668.188	n/a	WORD	334094	wordpools/wasnorm_wordpool_576.txt	LTP285	ltpFR2	1	2	MAILBOX	857	n/a	n/a	0	0	0
670.686	n/a	WORD	335343	wordpools/wasnorm_wordpool_576.txt	LTP285	ltpFR2	1	2	MESSAGE	888	n/a	n/a	0	0	0
673.298	n/a	WORD	336649	wordpools/wasnorm_wordpool_576.txt	LTP285	ltpFR2	1	2	ATLAS	53	n/a	n/a	0	0	0
675.746	n/a	WORD	337873	wordpools/wasnorm_wordpool_576.txt	LTP285	ltpFR2	1	2	HAWK	692	n/a	n/a	0	0	0
678.24	n/a	WORD	339120	wordpools/wasnorm_wordpool_576.txt	LTP285	ltpFR2	1	2	SIBLING	1301	n/a	n/a	0	0	0
681.052	n/a	WORD	340526	wordpools/wasnorm_wordpool_576.txt	LTP285	ltpFR2	1	2	LONDON	843	n/a	n/a	0	0	0
683.584	n/a	WORD	341792	wordpools/wasnorm_wordpool_576.txt	LTP285	ltpFR2	1	2	YACHT	1629	n/a	n/a	0	0	0
686.096	n/a	WORD	343048	wordpools/wasnorm_wordpool_576.txt	LTP285	ltpFR2	1	2	PLAZA	1088	n/a	n/a	0	0	0
688.642	n/a	WORD	344321	wordpools/wasnorm_wordpool_576.txt	LTP285	ltpFR2	1	2	QUEEN	1149	n/a	n/a	0	0	0
691.356	n/a	WORD	345678	wordpools/wasnorm_wordpool_576.txt	LTP285	ltpFR2	1	2	FOOT	590	n/a	n/a	0	0	0
694.15	n/a	WORD	347075	wordpools/wasnorm_wordpool_576.txt	LTP285	ltpFR2	1	2	ANKLE	24	n/a	n/a	0	0	0
696.882	n/a	WORD	348441	wordpools/wasnorm_wordpool_576.txt	LTP285	ltpFR2	1	2	VICTIM	1562	n/a	n/a	0	0	0
699.66	n/a	WORD	349830	wordpools/wasnorm_wordpool_576.txt	LTP285	ltpFR2	1	2	OINTMENT	974	n/a	n/a	0	0	0
701.274	n/a	START	350637	n/a	LTP285	ltpFR2	1	n/a	n/a	n/a	2	n/a	n/a	n/a	n/a
702.32	n/a	DISTRACTOR	351160	n/a	LTP285	ltpFR2	1	2	n/a	n/a	n/a	n/a	0	0	0
702.322	n/a	PROB	351161	n/a	LTP285	ltpFR2	1	n/a	n/a	n/a	2	18	5	8	6
704.302	n/a	PROB	352151	n/a	LTP285	ltpFR2	1	n/a	n/a	n/a	2	14	3	5	6
706.0	n/a	PROB	353000	n/a	LTP285	ltpFR2	1	n/a	n/a	n/a	2	19	7	9	3
707.814	n/a	PROB	353907	n/a	LTP285	ltpFR2	1	n/a	n/a	n/a	2	14	8	3	3
709.178	n/a	PROB	354589	n/a	LTP285	ltpFR2	1	n/a	n/a	n/a	2	18	2	9	7
710.96	n/a	PROB	355480	n/a	LTP285	ltpFR2	1	n/a	n/a	n/a	2	15	6	5	4
712.158	n/a	PROB	356079	n/a	LTP285	ltpFR2	1	n/a	n/a	n/a	2	9	4	4	1
713.272	n/a	PROB	356636	n/a	LTP285	ltpFR2	1	n/a	n/a	n/a	2	11	9	1	1
714.37	n/a	PROB	357185	n/a	LTP285	ltpFR2	1	n/a	n/a	n/a	2	11	3	3	5
715.654	n/a	PROB	357827	n/a	LTP285	ltpFR2	1	n/a	n/a	n/a	2	18	2	9	7
717.05	n/a	PROB	358525	n/a	LTP285	ltpFR2	1	n/a	n/a	n/a	2	15	4	6	5
718.364	n/a	PROB	359182	n/a	LTP285	ltpFR2	1	n/a	n/a	n/a	2	11	8	1	2
719.598	n/a	PROB	359799	n/a	LTP285	ltpFR2	1	n/a	n/a	n/a	2	17	2	8	7
720.778	n/a	PROB	360389	n/a	LTP285	ltpFR2	1	n/a	n/a	n/a	2	15	1	8	6
722.21	n/a	PROB	361105	n/a	LTP285	ltpFR2	1	n/a	n/a	n/a	2	14	2	5	7
723.524	n/a	PROB	361762	n/a	LTP285	ltpFR2	1	n/a	n/a	n/a	2	12	4	2	6
724.992	n/a	STOP	362496	n/a	LTP285	ltpFR2	1	n/a	n/a	n/a	2	n/a	n/a	n/a	n/a
727.168	n/a	REC_START	363584	n/a	LTP285	ltpFR2	1	2	n/a	n/a	n/a	n/a	0	0	0
728.096	n/a	REC_WORD	364048	wordpools/wasnorm_wordpool_576.txt	LTP285	ltpFR2	1	2	FLEET	578	n/a	n/a	0	0	0
729.208	n/a	REC_WORD	364604	wordpools/wasnorm_wordpool_576.txt	LTP285	ltpFR2	1	2	COMPASS	358	n/a	n/a	0	0	0
730.372	n/a	REC_WORD	365186	wordpools/wasnorm_wordpool_576.txt	LTP285	ltpFR2	1	2	CASHIER	254	n/a	n/a	0	0	0
733.234	n/a	REC_WORD	366617	wordpools/wasnorm_wordpool_576.txt	LTP285	ltpFR2	1	2	EAGLE	512	n/a	n/a	0	0	0
734.042	n/a	REC_WORD	367021	wordpools/wasnorm_wordpool_576.txt	LTP285	ltpFR2	1	2	HAWK	692	n/a	n/a	0	0	0
735.234	n/a	REC_WORD	367617	wordpools/wasnorm_wordpool_576.txt	LTP285	ltpFR2	1	2	PERCH	1048	n/a	n/a	0	0	0
736.42	n/a	REC_WORD	368210	wordpools/wasnorm_wordpool_576.txt	LTP285	ltpFR2	1	2	FRAGRANCE	599	n/a	n/a	0	0	0
737.922	n/a	REC_WORD	368961	wordpools/wasnorm_wordpool_576.txt	LTP285	ltpFR2	1	2	OINTMENT	974	n/a	n/a	0	0	0
743.658	n/a	REC_WORD	371829	wordpools/wasnorm_wordpool_576.txt	LTP285	ltpFR2	1	2	QUEEN	1149	n/a	n/a	0	0	0
745.12	n/a	REC_WORD	372560	wordpools/wasnorm_wordpool_576.txt	LTP285	ltpFR2	1	2	SIBLING	1301	n/a	n/a	0	0	0
750.432	n/a	REC_WORD	375216	wordpools/wasnorm_wordpool_576.txt	LTP285	ltpFR2	1	2	VICTIM	1562	n/a	n/a	0	0	0
771.592	n/a	REC_WORD	385796	wordpools/wasnorm_wordpool_576.txt	LTP285	ltpFR2	1	2	MAILBOX	857	n/a	n/a	0	0	0
772.592	n/a	REC_WORD_VV	386296	wordpools/wasnorm_wordpool_576.txt	LTP285	ltpFR2	1	2	<>	-1	n/a	n/a	0	0	0
792.584	n/a	REC_WORD	396292	wordpools/wasnorm_wordpool_576.txt	LTP285	ltpFR2	1	2	ATLAS	53	n/a	n/a	0	0	0
795.56	n/a	REC_WORD	397780	wordpools/wasnorm_wordpool_576.txt	LTP285	ltpFR2	1	2	LONDON	843	n/a	n/a	0	0	0
799.28	n/a	REC_WORD	399640	wordpools/wasnorm_wordpool_576.txt	LTP285	ltpFR2	1	2	EUROPE	541	n/a	n/a	0	0	0
817.852	n/a	DISTRACTOR	408926	n/a	LTP285	ltpFR2	1	3	n/a	n/a	n/a	n/a	0	0	0
817.852	n/a	START	408926	n/a	LTP285	ltpFR2	1	n/a	n/a	n/a	3	n/a	n/a	n/a	n/a
817.884	n/a	PROB	408942	n/a	LTP285	ltpFR2	1	n/a	n/a	n/a	3	18	5	4	9
819.098	n/a	PROB	409549	n/a	LTP285	ltpFR2	1	n/a	n/a	n/a	3	23	8	7	6
821.912	n/a	PROB	410956	n/a	LTP285	ltpFR2	1	n/a	n/a	n/a	3	14	6	4	4
823.226	n/a	PROB	411613	n/a	LTP285	ltpFR2	1	n/a	n/a	n/a	3	24	9	7	8
825.69	n/a	PROB	412845	n/a	LTP285	ltpFR2	1	n/a	n/a	n/a	3	13	8	4	1
827.036	n/a	PROB	413518	n/a	LTP285	ltpFR2	1	n/a	n/a	n/a	3	13	4	6	3
828.086	n/a	PROB	414043	n/a	LTP285	ltpFR2	1	n/a	n/a	n/a	3	13	4	4	5
829.618	n/a	PROB	414809	n/a	LTP285	ltpFR2	1	n/a	n/a	n/a	3	25	6	9	9
831.414	n/a	PROB	415707	n/a	LTP285	ltpFR2	1	n/a	n/a	n/a	3	9	2	2	5
832.896	n/a	PROB	416448	n/a	LTP285	ltpFR2	1	n/a	n/a	n/a	3	22	9	4	9
834.842	n/a	PROB	417421	n/a	LTP285	ltpFR2	1	n/a	n/a	n/a	3	7	1	1	5
836.006	n/a	PROB	418003	n/a	LTP285	ltpFR2	1	n/a	n/a	n/a	3	9	5	3	1
839.352	n/a	PROB	419676	n/a	LTP285	ltpFR2	1	n/a	n/a	n/a	3	22	5	9	8
841.042	n/a	STOP	420521	n/a	LTP285	ltpFR2	1	n/a	n/a	n/a	3	n/a	n/a	n/a	n/a
842.766	n/a	WORD	421383	wordpools/wasnorm_wordpool_576.txt	LTP285	ltpFR2	1	3	LIPSTICK	829	n/a	n/a	0	0	0
845.344	n/a	WORD	422672	wordpools/wasnorm_wordpool_576.txt	LTP285	ltpFR2	1	3	LOVER	846	n/a	n/a	0	0	0
848.09	n/a	WORD	424045	wordpools/wasnorm_wordpool_576.txt	LTP285	ltpFR2	1	3	EMPIRE	530	n/a	n/a	0	0	0
850.82	n/a	WORD	425410	wordpools/wasnorm_wordpool_576.txt	LTP285	ltpFR2	1	3	DRAGON	492	n/a	n/a	0	0	0
853.516	n/a	WORD	426758	wordpools/wasnorm_wordpool_576.txt	LTP285	ltpFR2	1	3	PEPPER	1047	n/a	n/a	0	0	0
856.194	n/a	WORD	428097	wordpools/wasnorm_wordpool_576.txt	LTP285	ltpFR2	1	3	DENTIST	447	n/a	n/a	0	0	0
858.858	n/a	WORD	429429	wordpools/wasnorm_wordpool_576.txt	LTP285	ltpFR2	1	3	SCRIBBLE	1256	n/a	n/a	0	0	0
861.57	n/a	WORD	430785	wordpools/wasnorm_wordpool_576.txt	LTP285	ltpFR2	1	3	SHARK	1275	n/a	n/a	0	0	0
864.066	n/a	WORD	432033	wordpools/wasnorm_wordpool_576.txt	LTP285	ltpFR2	1	3	CABBAGE	210	n/a	n/a	0	0	0
866.58	n/a	WORD	433290	wordpools/wasnorm_wordpool_576.txt	LTP285	ltpFR2	1	3	TURNIP	1521	n/a	n/a	0	0	0
869.158	n/a	WORD	434579	wordpools/wasnorm_wordpool_576.txt	LTP285	ltpFR2	1	3	COUNTY	389	n/a	n/a	0	0	0
871.922	n/a	WORD	435961	wordpools/wasnorm_wordpool_576.txt	LTP285	ltpFR2	1	3	CONTRACT	368	n/a	n/a	0	0	0
874.4	n/a	WORD	437200	wordpools/wasnorm_wordpool_576.txt	LTP285	ltpFR2	1	3	COMET	353	n/a	n/a	0	0	0
876.948	n/a	WORD	438474	wordpools/wasnorm_wordpool_576.txt	LTP285	ltpFR2	1	3	SPACE	1345	n/a	n/a	0	0	0
879.694	n/a	WORD	439847	wordpools/wasnorm_wordpool_576.txt	LTP285	ltpFR2	1	3	TABLET	1427	n/a	n/a	0	0	0
882.256	n/a	WORD	441128	wordpools/wasnorm_wordpool_576.txt	LTP285	ltpFR2	1	3	SEAGULL	1261	n/a	n/a	0	0	0
884.92	n/a	WORD	442460	wordpools/wasnorm_wordpool_576.txt	LTP285	ltpFR2	1	3	PARSLEY	1016	n/a	n/a	0	0	0
887.432	n/a	WORD	443716	wordpools/wasnorm_wordpool_576.txt	LTP285	ltpFR2	1	3	IGLOO	734	n/a	n/a	0	0	0
890.01	n/a	WORD	445005	wordpools/wasnorm_wordpool_576.txt	LTP285	ltpFR2	1	3	BRICK	172	n/a	n/a	0	0	0
892.84	n/a	WORD	446420	wordpools/wasnorm_wordpool_576.txt	LTP285	ltpFR2	1	3	ASIA	46	n/a	n/a	0	0	0
895.37	n/a	WORD	447685	wordpools/wasnorm_wordpool_576.txt	LTP285	ltpFR2	1	3	SWAMP	1416	n/a	n/a	0	0	0
898.048	n/a	WORD	449024	wordpools/wasnorm_wordpool_576.txt	LTP285	ltpFR2	1	3	LAKE	796	n/a	n/a	0	0	0
900.796	n/a	WORD	450398	wordpools/wasnorm_wordpool_576.txt	LTP285	ltpFR2	1	3	SALT	1229	n/a	n/a	0	0	0
903.224	n/a	WORD	451612	wordpools/wasnorm_wordpool_576.txt	LTP285	ltpFR2	1	3	PAPER	1011	n/a	n/a	0	0	0
904.84	n/a	START	452420	n/a	LTP285	ltpFR2	1	n/a	n/a	n/a	4	n/a	n/a	n/a	n/a
905.718	n/a	DISTRACTOR	452859	n/a	LTP285	ltpFR2	1	3	n/a	n/a	n/a	n/a	0	0	0
905.722	n/a	PROB	452861	n/a	LTP285	ltpFR2	1	n/a	n/a	n/a	4	14	4	6	4
906.82	n/a	PROB	453410	n/a	LTP285	ltpFR2	1	n/a	n/a	n/a	4	19	8	7	4
908.384	n/a	PROB	454192	n/a	LTP285	ltpFR2	1	n/a	n/a	n/a	4	10	2	7	1
909.648	n/a	PROB	454824	n/a	LTP285	ltpFR2	1	n/a	n/a	n/a	4	12	7	4	1
910.648	n/a	PROB	455324	n/a	LTP285	ltpFR2	1	n/a	n/a	n/a	4	18	3	9	6
912.878	n/a	PROB	456439	n/a	LTP285	ltpFR2	1	n/a	n/a	n/a	4	78	5	1	2
913.876	n/a	PROB	456938	n/a	LTP285	ltpFR2	1	n/a	n/a	n/a	4	21	5	7	9
917.104	n/a	PROB	458552	n/a	LTP285	ltpFR2	1	n/a	n/a	n/a	4	9	1	1	7
918.186	n/a	PROB	459093	n/a	LTP285	ltpFR2	1	n/a	n/a	n/a	4	13	2	9	2
920.784	n/a	PROB	460392	n/a	LTP285	ltpFR2	1	n/a	n/a	n/a	4	17	8	1	8
922.13	n/a	PROB	461065	n/a	LTP285	ltpFR2	1	n/a	n/a	n/a	4	9	1	7	1
923.228	n/a	PROB	461614	n/a	LTP285	ltpFR2	1	n/a	n/a	n/a	4	17	4	7	6
924.728	n/a	PROB	462364	n/a	LTP285	ltpFR2	1	n/a	n/a	n/a	4	10	2	4	4
926.29	n/a	PROB	463145	n/a	LTP285	ltpFR2	1	n/a	n/a	n/a	4	1	4	8	1
927.29	n/a	PROB	463645	n/a	LTP285	ltpFR2	1	n/a	n/a	n/a	4	10	2	2	6
928.66	n/a	STOP	464330	n/a	LTP285	ltpFR2	1	n/a	n/a	n/a	4	n/a	n/a	n/a	n/a
930.668	n/a	REC_START	465334	n/a	LTP285	ltpFR2	1	3	n/a	n/a	n/a	n/a	0	0	0
931.782	n/a	REC_WORD	465891	wordpools/wasnorm_wordpool_576.txt	LTP285	ltpFR2	1	3	ASIA	46	n/a	n/a	0	0	0
932.934	n/a	REC_WORD	466467	wordpools/wasnorm_wordpool_576.txt	LTP285	ltpFR2	1	3	SALT	1229	n/a	n/a	0	0	0
934.008	n/a	REC_WORD	467004	wordpools/wasnorm_wordpool_576.txt	LTP285	ltpFR2	1	3	PEPPER	1047	n/a	n/a	0	0	0
935.542	n/a	REC_WORD	467771	wordpools/wasnorm_wordpool_576.txt	LTP285	ltpFR2	1	3	TURNIP	1521	n/a	n/a	0	0	0
936.678	n/a	REC_WORD	468339	wordpools/wasnorm_wordpool_576.txt	LTP285	ltpFR2	1	3	PARSLEY	1016	n/a	n/a	0	0	0
938.982	n/a	REC_WORD	469491	wordpools/wasnorm_wordpool_576.txt	LTP285	ltpFR2	1	3	SWAMP	1416	n/a	n/a	0	0	0
941.856	n/a	REC_WORD	470928	wordpools/wasnorm_wordpool_576.txt	LTP285	ltpFR2	1	3	LAKE	796	n/a	n/a	0	0	0
944.46	n/a	REC_WORD	472230	wordpools/wasnorm_wordpool_576.txt	LTP285	ltpFR2	1	3	COMET	353	n/a	n/a	0	0	0
945.936	n/a	REC_WORD	472968	wordpools/wasnorm_wordpool_576.txt	LTP285	ltpFR2	1	3	SPACE	1345	n/a	n/a	0	0	0
956.74	n/a	REC_WORD	478370	wordpools/wasnorm_wordpool_576.txt	LTP285	ltpFR2	1	3	LOVER	846	n/a	n/a	0	0	0
968.042	n/a	REC_WORD	484021	wordpools/wasnorm_wordpool_576.txt	LTP285	ltpFR2	1	3	SCRIBBLE	1256	n/a	n/a	0	0	0
969.422	n/a	REC_WORD	484711	wordpools/wasnorm_wordpool_576.txt	LTP285	ltpFR2	1	3	TABLET	1427	n/a	n/a	0	0	0
1004.58	n/a	REC_WORD	502290	wordpools/wasnorm_wordpool_576.txt	LTP285	ltpFR2	1	3	COUNTY	389	n/a	n/a	0	0	0
1021.334	n/a	WORD	510667	wordpools/wasnorm_wordpool_576.txt	LTP285	ltpFR2	1	4	INMATE	738	n/a	n/a	0	0	0
1023.93	n/a	WORD	511965	wordpools/wasnorm_wordpool_576.txt	LTP285	ltpFR2	1	4	PLATE	1086	n/a	n/a	0	0	0
1026.626	n/a	WORD	513313	wordpools/wasnorm_wordpool_576.txt	LTP285	ltpFR2	1	4	HEART	697	n/a	n/a	0	0	0
1029.272	n/a	WORD	514636	wordpools/wasnorm_wordpool_576.txt	LTP285	ltpFR2	1	4	SPIDER	1351	n/a	n/a	0	0	0
1031.818	n/a	WORD	515909	wordpools/wasnorm_wordpool_576.txt	LTP285	ltpFR2	1	4	TERMITE	1451	n/a	n/a	0	0	0
1034.248	n/a	WORD	517124	wordpools/wasnorm_wordpool_576.txt	LTP285	ltpFR2	1	4	OUTDOORS	987	n/a	n/a	0	0	0
1036.91	n/a	WORD	518455	wordpools/wasnorm_wordpool_576.txt	LTP285	ltpFR2	1	4	MARINE	869	n/a	n/a	0	0	0
1039.49	n/a	WORD	519745	wordpools/wasnorm_wordpool_576.txt	LTP285	ltpFR2	1	4	TRANSPLANT	1496	n/a	n/a	0	0	0
1042.268	n/a	WORD	521134	wordpools/wasnorm_wordpool_576.txt	LTP285	ltpFR2	1	4	BARREL	91	n/a	n/a	0	0	0
1044.832	n/a	WORD	522416	wordpools/wasnorm_wordpool_576.txt	LTP285	ltpFR2	1	4	BATHTUB	100	n/a	n/a	0	0	0
1047.628	n/a	WORD	523814	wordpools/wasnorm_wordpool_576.txt	LTP285	ltpFR2	1	4	CROSS	413	n/a	n/a	0	0	0
1050.306	n/a	WORD	525153	wordpools/wasnorm_wordpool_576.txt	LTP285	ltpFR2	1	4	SLIDE	1326	n/a	n/a	0	0	0
1052.804	n/a	WORD	526402	wordpools/wasnorm_wordpool_576.txt	LTP285	ltpFR2	1	4	XEROX	1628	n/a	n/a	0	0	0
1055.382	n/a	WORD	527691	wordpools/wasnorm_wordpool_576.txt	LTP285	ltpFR2	1	4	AIRPORT	13	n/a	n/a	0	0	0
1057.93	n/a	WORD	528965	wordpools/wasnorm_wordpool_576.txt	LTP285	ltpFR2	1	4	CANAL	226	n/a	n/a	0	0	0
1060.658	n/a	WORD	530329	wordpools/wasnorm_wordpool_576.txt	LTP285	ltpFR2	1	4	CAMEL	223	n/a	n/a	0	0	0
1063.138	n/a	WORD	531569	wordpools/wasnorm_wordpool_576.txt	LTP285	ltpFR2	1	4	SUSPECT	1415	n/a	n/a	0	0	0
1065.752	n/a	WORD	532876	wordpools/wasnorm_wordpool_576.txt	LTP285	ltpFR2	1	4	ROBBER	1197	n/a	n/a	0	0	0
1068.23	n/a	WORD	534115	wordpools/wasnorm_wordpool_576.txt	LTP285	ltpFR2	1	4	SUPPER	1411	n/a	n/a	0	0	0
1070.794	n/a	WORD	535397	wordpools/wasnorm_wordpool_576.txt	LTP285	ltpFR2	1	4	PLUTO	1092	n/a	n/a	0	0	0
1073.456	n/a	WORD	536728	wordpools/wasnorm_wordpool_576.txt	LTP285	ltpFR2	1	4	FLOWER	584	n/a	n/a	0	0	0
1075.97	n/a	WORD	537985	wordpools/wasnorm_wordpool_576.txt	LTP285	ltpFR2	1	4	CORAL	378	n/a	n/a	0	0	0
1078.432	n/a	WORD	539216	wordpools/wasnorm_wordpool_576.txt	LTP285	ltpFR2	1	4	NEUTRON	947	n/a	n/a	0	0	0
1080.896	n/a	WORD	540448	wordpools/wasnorm_wordpool_576.txt	LTP285	ltpFR2	1	4	SWITCH	1422	n/a	n/a	0	0	0
1082.51	n/a	START	541255	n/a	LTP285	ltpFR2	1	n/a	n/a	n/a	5	n/a	n/a	n/a	n/a
1083.542	n/a	DISTRACTOR	541771	n/a	LTP285	ltpFR2	1	4	n/a	n/a	n/a	n/a	0	0	0
1083.558	n/a	PROB	541779	n/a	LTP285	ltpFR2	1	n/a	n/a	n/a	5	15	7	3	5
1084.806	n/a	PROB	542403	n/a	LTP285	ltpFR2	1	n/a	n/a	n/a	5	10	6	2	2
1086.104	n/a	PROB	543052	n/a	LTP285	ltpFR2	1	n/a	n/a	n/a	5	19	7	4	8
1087.386	n/a	PROB	543693	n/a	LTP285	ltpFR2	1	n/a	n/a	n/a	5	9	2	2	5
1088.768	n/a	PROB	544384	n/a	LTP285	ltpFR2	1	n/a	n/a	n/a	5	10	2	1	7
1089.916	n/a	PROB	544958	n/a	LTP285	ltpFR2	1	n/a	n/a	n/a	5	18	8	1	9
1091.362	n/a	PROB	545681	n/a	LTP285	ltpFR2	1	n/a	n/a	n/a	5	15	8	2	5
1092.428	n/a	PROB	546214	n/a	LTP285	ltpFR2	1	n/a	n/a	n/a	5	16	7	7	2
1093.794	n/a	PROB	546897	n/a	LTP285	ltpFR2	1	n/a	n/a	n/a	5	11	4	6	1
1094.758	n/a	PROB	547379	n/a	LTP285	ltpFR2	1	n/a	n/a	n/a	5	10	1	4	5
1095.924	n/a	PROB	547962	n/a	LTP285	ltpFR2	1	n/a	n/a	n/a	5	15	3	8	3
1097.488	n/a	PROB	548744	n/a	LTP285	ltpFR2	1	n/a	n/a	n/a	5	16	6	6	4
1098.936	n/a	PROB	549468	n/a	LTP285	ltpFR2	1	n/a	n/a	n/a	5	16	9	4	3
1100.9	n/a	PROB	550450	n/a	LTP285	ltpFR2	1	n/a	n/a	n/a	5	20	6	5	9
1102.964	n/a	PROB	551482	n/a	LTP285	ltpFR2	1	n/a	n/a	n/a	5	14	6	5	3
1105.614	n/a	STOP	552807	n/a	LTP285	ltpFR2	1	n/a	n/a	n/a	5	n/a	n/a	n/a	n/a
1108.272	n/a	REC_START	554136	n/a	LTP285	ltpFR2	1	4	n/a	n/a	n/a	n/a	0	0	0
1109.29	n/a	REC_WORD	554645	wordpools/wasnorm_wordpool_576.txt	LTP285	ltpFR2	1	4	PLUTO	1092	n/a	n/a	0	0	0
1110.464	n/a	REC_WORD	555232	wordpools/wasnorm_wordpool_576.txt	LTP285	ltpFR2	1	4	NEUTRON	947	n/a	n/a	0	0	0
1119.654	n/a	REC_WORD	559827	wordpools/wasnorm_wordpool_576.txt	LTP285	ltpFR2	1	4	BARREL	91	n/a	n/a	0	0	0
1120.852	n/a	REC_WORD	560426	wordpools/wasnorm_wordpool_576.txt	LTP285	ltpFR2	1	4	BATHTUB	100	n/a	n/a	0	0	0
1127.726	n/a	REC_WORD	563863	wordpools/wasnorm_wordpool_576.txt	LTP285	ltpFR2	1	4	INMATE	738	n/a	n/a	0	0	0
1128.638	n/a	REC_WORD	564319	wordpools/wasnorm_wordpool_576.txt	LTP285	ltpFR2	1	4	SUSPECT	1415	n/a	n/a	0	0	0
1129.798	n/a	REC_WORD	564899	wordpools/wasnorm_wordpool_576.txt	LTP285	ltpFR2	1	4	ROBBER	1197	n/a	n/a	0	0	0
1148.446	n/a	REC_WORD	574223	wordpools/wasnorm_wordpool_576.txt	LTP285	ltpFR2	1	4	XEROX	1628	n/a	n/a	0	0	0
1153.304	n/a	REC_WORD	576652	wordpools/wasnorm_wordpool_576.txt	LTP285	ltpFR2	1	4	FLOWER	584	n/a	n/a	0	0	0
1157.814	n/a	REC_WORD	578907	wordpools/wasnorm_wordpool_576.txt	LTP285	ltpFR2	1	4	MARINE	869	n/a	n/a	0	0	0
1159.668	n/a	REC_WORD	579834	wordpools/wasnorm_wordpool_576.txt	LTP285	ltpFR2	1	4	CORAL	378	n/a	n/a	0	0	0
1167.478	n/a	REC_WORD	583739	wordpools/wasnorm_wordpool_576.txt	LTP285	ltpFR2	1	4	HEART	697	n/a	n/a	0	0	0
1168.506	n/a	REC_WORD	584253	wordpools/wasnorm_wordpool_576.txt	LTP285	ltpFR2	1	4	TRANSPLANT	1496	n/a	n/a	0	0	0
1198.938	n/a	WORD	599469	wordpools/wasnorm_wordpool_576.txt	LTP285	ltpFR2	1	5	QUARTER	1148	n/a	n/a	0	0	0
1201.566	n/a	WORD	600783	wordpools/wasnorm_wordpool_576.txt	LTP285	ltpFR2	1	5	HELMET	702	n/a	n/a	0	0	0
1204.378	n/a	WORD	602189	wordpools/wasnorm_wordpool_576.txt	LTP285	ltpFR2	1	5	BIKE	125	n/a	n/a	0	0	0
1207.108	n/a	WORD	603554	wordpools/wasnorm_wordpool_576.txt	LTP285	ltpFR2	1	5	MOP	916	n/a	n/a	0	0	0
1209.822	n/a	WORD	604911	wordpools/wasnorm_wordpool_576.txt	LTP285	ltpFR2	1	5	CREATURE	403	n/a	n/a	0	0	0
1212.55	n/a	WORD	606275	wordpools/wasnorm_wordpool_576.txt	LTP285	ltpFR2	1	5	CONVICT	371	n/a	n/a	0	0	0
1215.062	n/a	WORD	607531	wordpools/wasnorm_wordpool_576.txt	LTP285	ltpFR2	1	5	LODGE	839	n/a	n/a	0	0	0
1217.71	n/a	WORD	608855	wordpools/wasnorm_wordpool_576.txt	LTP285	ltpFR2	1	5	WASP	1593	n/a	n/a	0	0	0
1220.14	n/a	WORD	610070	wordpools/wasnorm_wordpool_576.txt	LTP285	ltpFR2	1	5	PROTON	1132	n/a	n/a	0	0	0
1222.57	n/a	WORD	611285	wordpools/wasnorm_wordpool_576.txt	LTP285	ltpFR2	1	5	MUMMY	932	n/a	n/a	0	0	0
1225.016	n/a	WORD	612508	wordpools/wasnorm_wordpool_576.txt	LTP285	ltpFR2	1	5	RUG	1215	n/a	n/a	0	0	0
1227.696	n/a	WORD	613848	wordpools/wasnorm_wordpool_576.txt	LTP285	ltpFR2	1	5	PATIENT	1024	n/a	n/a	0	0	0
1230.39	n/a	WORD	615195	wordpools/wasnorm_wordpool_576.txt	LTP285	ltpFR2	1	5	CHEMIST	292	n/a	n/a	0	0	0
1233.12	n/a	WORD	616560	wordpools/wasnorm_wordpool_576.txt	LTP285	ltpFR2	1	5	CLAM	315	n/a	n/a	0	0	0
1235.884	n/a	WORD	617942	wordpools/wasnorm_wordpool_576.txt	LTP285	ltpFR2	1	5	CRAB	397	n/a	n/a	0	0	0
1238.596	n/a	WORD	619298	wordpools/wasnorm_wordpool_576.txt	LTP285	ltpFR2	1	5	BANKER	84	n/a	n/a	0	0	0
1241.324	n/a	WORD	620662	wordpools/wasnorm_wordpool_576.txt	LTP285	ltpFR2	1	5	BASEMENT	94	n/a	n/a	0	0	0
1244.036	n/a	WORD	622018	wordpools/wasnorm_wordpool_576.txt	LTP285	ltpFR2	1	5	COSTUME	383	n/a	n/a	0	0	0
1246.784	n/a	WORD	623392	wordpools/wasnorm_wordpool_576.txt	LTP285	ltpFR2	1	5	RIVER	1194	n/a	n/a	0	0	0
1249.512	n/a	WORD	624756	wordpools/wasnorm_wordpool_576.txt	LTP285	ltpFR2	1	5	SEAFOOD	1260	n/a	n/a	0	0	0
1252.292	n/a	WORD	626146	wordpools/wasnorm_wordpool_576.txt	LTP285	ltpFR2	1	5	HONEY	713	n/a	n/a	0	0	0
1254.856	n/a	WORD	627428	wordpools/wasnorm_wordpool_576.txt	LTP285	ltpFR2	1	5	FRANCE	601	n/a	n/a	0	0	0
1257.466	n/a	WORD	628733	wordpools/wasnorm_wordpool_576.txt	LTP285	ltpFR2	1	5	JUNGLE	764	n/a	n/a	0	0	0
1260.212	n/a	WORD	630106	wordpools/wasnorm_wordpool_576.txt	LTP285	ltpFR2	1	5	HATCHET	691	n/a	n/a	0	0	0
1261.828	n/a	START	630914	n/a	LTP285	ltpFR2	1	n/a	n/a	n/a	6	n/a	n/a	n/a	n/a
1262.696	n/a	DISTRACTOR	631348	n/a	LTP285	ltpFR2	1	5	n/a	n/a	n/a	n/a	0	0	0
1262.71	n/a	PROB	631355	n/a	LTP285	ltpFR2	1	n/a	n/a	n/a	6	18	1	8	9
1263.958	n/a	PROB	631979	n/a	LTP285	ltpFR2	1	n/a	n/a	n/a	6	20	9	7	4
1266.038	n/a	PROB	633019	n/a	LTP285	ltpFR2	1	n/a	n/a	n/a	6	17	7	7	3
1267.786	n/a	PROB	633893	n/a	LTP285	ltpFR2	1	n/a	n/a	n/a	6	16	1	7	8
1268.984	n/a	PROB	634492	n/a	LTP285	ltpFR2	1	n/a	n/a	n/a	6	20	3	9	8
1270.964	n/a	PROB	635482	n/a	LTP285	ltpFR2	1	n/a	n/a	n/a	6	19	9	1	9
1272.144	n/a	PROB	636072	n/a	LTP285	ltpFR2	1	n/a	n/a	n/a	6	24	7	9	6
1276.622	n/a	PROB	638311	n/a	LTP285	ltpFR2	1	n/a	n/a	n/a	6	19	6	4	9
1277.92	n/a	PROB	638960	n/a	LTP285	ltpFR2	1	n/a	n/a	n/a	6	13	7	1	5
1279.602	n/a	PROB	639801	n/a	LTP285	ltpFR2	1	n/a	n/a	n/a	6	10	2	3	5
1280.75	n/a	PROB	640375	n/a	LTP285	ltpFR2	1	n/a	n/a	n/a	6	21	8	4	9
1282.462	n/a	PROB	641231	n/a	LTP285	ltpFR2	1	n/a	n/a	n/a	6	13	2	6	5
1285.828	n/a	STOP	642914	n/a	LTP285	ltpFR2	1	n/a	n/a	n/a	6	n/a	n/a	n/a	n/a
1287.74	n/a	REC_START	643870	n/a	LTP285	ltpFR2	1	5	n/a	n/a	n/a	n/a	0	0	0
1288.342	n/a	REC_WORD	644171	wordpools/wasnorm_wordpool_576.txt	LTP285	ltpFR2	1	5	FRANCE	601	n/a	n/a	0	0	0
1289.62	n/a	REC_WORD	644810	wordpools/wasnorm_wordpool_576.txt	LTP285	ltpFR2	1	5	JUNGLE	764	n/a	n/a	0	0	0
1290.76	n/a	REC_WORD	645380	wordpools/wasnorm_wordpool_576.txt	LTP285	ltpFR2	1	5	SEAFOOD	1260	n/a	n/a	0	0	0
1292.124	n/a	REC_WORD	646062	wordpools/wasnorm_wordpool_576.txt	LTP285	ltpFR2	1	5	CLAM	315	n/a	n/a	0	0	0
1293.232	n/a	REC_WORD	646616	wordpools/wasnorm_wordpool_576.txt	LTP285	ltpFR2	1	5	CRAB	397	n/a	n/a	0	0	0
1294.464	n/a	REC_WORD	647232	wordpools/wasnorm_wordpool_576.txt	LTP285	ltpFR2	1	5	HONEY	713	n/a	n/a	0	0	0
1296.704	n/a	REC_WORD	648352	wordpools/wasnorm_wordpool_576.txt	LTP285	ltpFR2	1	5	PROTON	1132	n/a	n/a	0	0	0
1304.206	n/a	REC_WORD	652103	wordpools/wasnorm_wordpool_576.txt	LTP285	ltpFR2	1	5	MOP	916	n/a	n/a	0	0	0
1305.776	n/a	REC_WORD	652888	wordpools/wasnorm_wordpool_576.txt	LTP285	ltpFR2	1	5	CREATURE	403	n/a	n/a	0	0	0
1309.848	n/a	REC_WORD	654924	wordpools/wasnorm_wordpool_576.txt	LTP285	ltpFR2	1	5	BANKER	84	n/a	n/a	0	0	0
1310.972	n/a	REC_WORD	655486	wordpools/wasnorm_wordpool_576.txt	LTP285	ltpFR2	1	5	CHEMIST	292	n/a	n/a	0	0	0
1312.26	n/a	REC_WORD	656130	wordpools/wasnorm_wordpool_576.txt	LTP285	ltpFR2	1	5	COSTUME	383	n/a	n/a	0	0	0
1331.408	n/a	REC_WORD	665704	wordpools/wasnorm_wordpool_576.txt	LTP285	ltpFR2	1	5	AIRPORT	13	n/a	n/a	0	0	0
1332.408	n/a	REC_WORD_VV	666204	wordpools/wasnorm_wordpool_576.txt	LTP285	ltpFR2	1	5	<>	-1	n/a	n/a	0	0	0
1339.754	n/a	REC_WORD	669877	wordpools/wasnorm_wordpool_576.txt	LTP285	ltpFR2	1	5	WASP	1593	n/a	n/a	0	0	0
1378.388	n/a	WORD	689194	wordpools/wasnorm_wordpool_576.txt	LTP285	ltpFR2	1	6	BOUQUET	157	n/a	n/a	0	0	0
1381.018	n/a	WORD	690509	wordpools/wasnorm_wordpool_576.txt	LTP285	ltpFR2	1	6	VIRUS	1572	n/a	n/a	0	0	0
1383.53	n/a	WORD	691765	wordpools/wasnorm_wordpool_576.txt	LTP285	ltpFR2	1	6	SILK	1307	n/a	n/a	0	0	0
1386.044	n/a	WORD	693022	wordpools/wasnorm_wordpool_576.txt	LTP285	ltpFR2	1	6	RAFT	1159	n/a	n/a	0	0	0
1388.624	n/a	WORD	694312	wordpools/wasnorm_wordpool_576.txt	LTP285	ltpFR2	1	6	EGYPT	519	n/a	n/a	0	0	0
1391.12	n/a	WORD	695560	wordpools/wasnorm_wordpool_576.txt	LTP285	ltpFR2	1	6	CEILING	265	n/a	n/a	0	0	0
1393.616	n/a	WORD	696808	wordpools/wasnorm_wordpool_576.txt	LTP285	ltpFR2	1	6	TILE	1468	n/a	n/a	0	0	0
1396.078	n/a	WORD	698039	wordpools/wasnorm_wordpool_576.txt	LTP285	ltpFR2	1	6	TEMPLE	1448	n/a	n/a	0	0	0
1398.892	n/a	WORD	699446	wordpools/wasnorm_wordpool_576.txt	LTP285	ltpFR2	1	6	FILM	565	n/a	n/a	0	0	0
1401.354	n/a	WORD	700677	wordpools/wasnorm_wordpool_576.txt	LTP285	ltpFR2	1	6	FLUTE	585	n/a	n/a	0	0	0
1404.084	n/a	WORD	702042	wordpools/wasnorm_wordpool_576.txt	LTP285	ltpFR2	1	6	FLASHLIGHT	575	n/a	n/a	0	0	0
1406.63	n/a	WORD	703315	wordpools/wasnorm_wordpool_576.txt	LTP285	ltpFR2	1	6	LACE	792	n/a	n/a	0	0	0
1409.342	n/a	WORD	704671	wordpools/wasnorm_wordpool_576.txt	LTP285	ltpFR2	1	6	SKIRT	1319	n/a	n/a	0	0	0
1412.154	n/a	WORD	706077	wordpools/wasnorm_wordpool_576.txt	LTP285	ltpFR2	1	6	BANJO	82	n/a	n/a	0	0	0
1414.602	n/a	WORD	707301	wordpools/wasnorm_wordpool_576.txt	LTP285	ltpFR2	1	6	SADDLE	1221	n/a	n/a	0	0	0
1417.346	n/a	WORD	708673	wordpools/wasnorm_wordpool_576.txt	LTP285	ltpFR2	1	6	BLOCKADE	137	n/a	n/a	0	0	0
1420.092	n/a	WORD	710046	wordpools/wasnorm_wordpool_576.txt	LTP285	ltpFR2	1	6	CLOCK	325	n/a	n/a	0	0	0
1422.556	n/a	WORD	711278	wordpools/wasnorm_wordpool_576.txt	LTP285	ltpFR2	1	6	SCOTCH	1251	n/a	n/a	0	0	0
1425.018	n/a	WORD	712509	wordpools/wasnorm_wordpool_576.txt	LTP285	ltpFR2	1	6	MACHINE	852	n/a	n/a	0	0	0
1427.548	n/a	WORD	713774	wordpools/wasnorm_wordpool_576.txt	LTP285	ltpFR2	1	6	TUNNEL	1519	n/a	n/a	0	0	0
1430.278	n/a	WORD	715139	wordpools/wasnorm_wordpool_576.txt	LTP285	ltpFR2	1	6	PALACE	1006	n/a	n/a	0	0	0
1432.958	n/a	WORD	716479	wordpools/wasnorm_wordpool_576.txt	LTP285	ltpFR2	1	6	CLOUD	328	n/a	n/a	0	0	0
1435.454	n/a	WORD	717727	wordpools/wasnorm_wordpool_576.txt	LTP285	ltpFR2	1	6	CHILD	299	n/a	n/a	0	0	0
1438.132	n/a	WORD	719066	wordpools/wasnorm_wordpool_576.txt	LTP285	ltpFR2	1	6	RATTLE	1170	n/a	n/a	0	0	0
1439.748	n/a	START	719874	n/a	LTP285	ltpFR2	1	n/a	n/a	n/a	7	n/a	n/a	n/a	n/a
1440.9	n/a	DISTRACTOR	720450	n/a	LTP285	ltpFR2	1	6	n/a	n/a	n/a	n/a	0	0	0
1440.912	n/a	PROB	720456	n/a	LTP285	ltpFR2	1	n/a	n/a	n/a	7	19	4	9	6
1442.26	n/a	PROB	721130	n/a	LTP285	ltpFR2	1	n/a	n/a	n/a	7	19	5	9	5
1443.508	n/a	PROB	721754	n/a	LTP285	ltpFR2	1	n/a	n/a	n/a	7	10	2	5	3
1445.306	n/a	PROB	722653	n/a	LTP285	ltpFR2	1	n/a	n/a	n/a	7	12	3	5	4
1447.186	n/a	PROB	723593	n/a	LTP285	ltpFR2	1	n/a	n/a	n/a	7	9	1	5	3
1448.418	n/a	PROB	724209	n/a	LTP285	ltpFR2	1	n/a	n/a	n/a	7	10	1	3	6
1449.75	n/a	PROB	724875	n/a	LTP285	ltpFR2	1	n/a	n/a	n/a	7	18	8	3	6
1451.748	n/a	PROB	725874	n/a	LTP285	ltpFR2	1	n/a	n/a	n/a	7	15	7	4	4
1453.228	n/a	PROB	726614	n/a	LTP285	ltpFR2	1	n/a	n/a	n/a	7	7	2	2	3
1454.744	n/a	PROB	727372	n/a	LTP285	ltpFR2	1	n/a	n/a	n/a	7	19	2	9	8
1456.706	n/a	PROB	728353	n/a	LTP285	ltpFR2	1	n/a	n/a	n/a	7	10	6	3	1
1457.838	n/a	PROB	728919	n/a	LTP285	ltpFR2	1	n/a	n/a	n/a	7	15	8	1	6
1459.602	n/a	PROB	729801	n/a	LTP285	ltpFR2	1	n/a	n/a	n/a	7	12	4	5	3
1460.968	n/a	PROB	730484	n/a	LTP285	ltpFR2	1	n/a	n/a	n/a	7	19	2	8	9
1462.18	n/a	PROB	731090	n/a	LTP285	ltpFR2	1	n/a	n/a	n/a	7	19	9	6	4
1463.178	n/a	STOP	731589	n/a	LTP285	ltpFR2	1	n/a	n/a	n/a	7	n/a	n/a	n/a	n/a
1465.594	n/a	REC_START	732797	n/a	LTP285	ltpFR2	1	6	n/a	n/a	n/a	n/a	0	0	0
1466.248	n/a	REC_WORD	733124	wordpools/wasnorm_wordpool_576.txt	LTP285	ltpFR2	1	6	CLOUD	328	n/a	n/a	0	0	0
1467.352	n/a	REC_WORD	733676	wordpools/wasnorm_wordpool_576.txt	LTP285	ltpFR2	1	6	CHILD	299	n/a	n/a	0	0	0
1468.522	n/a	REC_WORD	734261	wordpools/wasnorm_wordpool_576.txt	LTP285	ltpFR2	1	6	RATTLE	1170	n/a	n/a	0	0	0
1469.952	n/a	REC_WORD	734976	wordpools/wasnorm_wordpool_576.txt	LTP285	ltpFR2	1	6	PALACE	1006	n/a	n/a	0	0	0
1471.474	n/a	REC_WORD	735737	wordpools/wasnorm_wordpool_576.txt	LTP285	ltpFR2	1	6	TEMPLE	1448	n/a	n/a	0	0	0
1479.78	n/a	REC_WORD	739890	wordpools/wasnorm_wordpool_576.txt	LTP285	ltpFR2	1	6	EGYPT	519	n/a	n/a	0	0	0
1483.73	n/a	REC_WORD	741865	wordpools/wasnorm_wordpool_576.txt	LTP285	ltpFR2	1	6	BANJO	82	n/a	n/a	0	0	0
1484.866	n/a	REC_WORD	742433	wordpools/wasnorm_wordpool_576.txt	LTP285	ltpFR2	1	6	FLUTE	585	n/a	n/a	0	0	0
1488.138	n/a	REC_WORD	744069	wordpools/wasnorm_wordpool_576.txt	LTP285	ltpFR2	1	6	LACE	792	n/a	n/a	0	0	0
1489.454	n/a	REC_WORD	744727	wordpools/wasnorm_wordpool_576.txt	LTP285	ltpFR2	1	6	SILK	1307	n/a	n/a	0	0	0
1495.73	n/a	REC_WORD	747865	wordpools/wasnorm_wordpool_576.txt	LTP285	ltpFR2	1	6	TUNNEL	1519	n/a	n/a	0	0	0
1502.866	n/a	REC_WORD	751433	wordpools/wasnorm_wordpool_576.txt	LTP285	ltpFR2	1	6	FLASHLIGHT	575	n/a	n/a	0	0	0
1510.698	n/a	REC_WORD	755349	wordpools/wasnorm_wordpool_576.txt	LTP285	ltpFR2	1	6	TILE	1468	n/a	n/a	0	0	0
1511.878	n/a	REC_WORD	755939	wordpools/wasnorm_wordpool_576.txt	LTP285	ltpFR2	1	6	CEILING	265	n/a	n/a	0	0	0
1534.504	n/a	REC_WORD	767252	wordpools/wasnorm_wordpool_576.txt	LTP285	ltpFR2	1	6	BLOCKADE	137	n/a	n/a	0	0	0
1556.242	n/a	DISTRACTOR	778121	n/a	LTP285	ltpFR2	1	7	n/a	n/a	n/a	n/a	0	0	0
1556.242	n/a	START	778121	n/a	LTP285	ltpFR2	1	n/a	n/a	n/a	8	n/a	n/a	n/a	n/a
1556.274	n/a	PROB	778137	n/a	LTP285	ltpFR2	1	n/a	n/a	n/a	8	19	3	7	9
1557.374	n/a	PROB	778687	n/a	LTP285	ltpFR2	1	n/a	n/a	n/a	8	13	5	6	2
1558.906	n/a	PROB	779453	n/a	LTP285	ltpFR2	1	n/a	n/a	n/a	8	13	6	2	5
1560.586	n/a	PROB	780293	n/a	LTP285	ltpFR2	1	n/a	n/a	n/a	8	15	3	9	4
1562.832	n/a	PROB	781416	n/a	LTP285	ltpFR2	1	n/a	n/a	n/a	8	12	4	7	1
1564.046	n/a	PROB	782023	n/a	LTP285	ltpFR2	1	n/a	n/a	n/a	8	13	3	1	9
1565.378	n/a	PROB	782689	n/a	LTP285	ltpFR2	1	n/a	n/a	n/a	8	17	4	5	8
1566.726	n/a	PROB	783363	n/a	LTP285	ltpFR2	1	n/a	n/a	n/a	8	13	7	2	4
1568.256	n/a	PROB	784128	n/a	LTP285	ltpFR2	1	n/a	n/a	n/a	8	15	2	9	4
1569.822	n/a	PROB	784911	n/a	LTP285	ltpFR2	1	n/a	n/a	n/a	8	17	8	6	3
1571.502	n/a	PROB	785751	n/a	LTP285	ltpFR2	1	n/a	n/a	n/a	8	12	6	5	1
1572.55	n/a	PROB	786275	n/a	LTP285	ltpFR2	1	n/a	n/a	n/a	8	12	8	1	3
1574.232	n/a	PROB	787116	n/a	LTP285	ltpFR2	1	n/a	n/a	n/a	8	13	4	8	1
1575.264	n/a	PROB	787632	n/a	LTP285	ltpFR2	1	n/a	n/a	n/a	8	16	5	6	4
1576.544	n/a	PROB	788272	n/a	LTP285	ltpFR2	1	n/a	n/a	n/a	8	15	2	8	5
1577.926	n/a	PROB	788963	n/a	LTP285	ltpFR2	1	n/a	n/a	n/a	8	23	7	7	9
1579.86	n/a	STOP	789930	n/a	LTP285	ltpFR2	1	n/a	n/a	n/a	8	n/a	n/a	n/a	n/a
1581.438	n/a	WORD	790719	wordpools/wasnorm_wordpool_576.txt	LTP285	ltpFR2	1	7	PIGEON	1065	n/a	n/a	0	0	0
1584.034	n/a	WORD	792017	wordpools/wasnorm_wordpool_576.txt	LTP285	ltpFR2	1	7	STAMP	1370	n/a	n/a	0	0	0
1586.696	n/a	WORD	793348	wordpools/wasnorm_wordpool_576.txt	LTP285	ltpFR2	1	7	SLIME	1327	n/a	n/a	0	0	0
1589.258	n/a	WORD	794629	wordpools/wasnorm_wordpool_576.txt	LTP285	ltpFR2	1	7	SWIMMER	1420	n/a	n/a	0	0	0
1591.94	n/a	WORD	795970	wordpools/wasnorm_wordpool_576.txt	LTP285	ltpFR2	1	7	BROOK	177	n/a	n/a	0	0	0
1594.636	n/a	WORD	797318	wordpools/wasnorm_wordpool_576.txt	LTP285	ltpFR2	1	7	ARM	38	n/a	n/a	0	0	0
1597.414	n/a	WORD	798707	wordpools/wasnorm_wordpool_576.txt	LTP285	ltpFR2	1	7	ICING	732	n/a	n/a	0	0	0
1600.194	n/a	WORD	800097	wordpools/wasnorm_wordpool_576.txt	LTP285	ltpFR2	1	7	GUARD	667	n/a	n/a	0	0	0
1602.874	n/a	WORD	801437	wordpools/wasnorm_wordpool_576.txt	LTP285	ltpFR2	1	7	SCARECROW	1245	n/a	n/a	0	0	0
1605.352	n/a	WORD	802676	wordpools/wasnorm_wordpool_576.txt	LTP285	ltpFR2	1	7	PECAN	1036	n/a	n/a	0	0	0
1608.132	n/a	WORD	804066	wordpools/wasnorm_wordpool_576.txt	LTP285	ltpFR2	1	7	SUNRISE	1407	n/a	n/a	0	0	0
1610.696	n/a	WORD	805348	wordpools/wasnorm_wordpool_576.txt	LTP285	ltpFR2	1	7	SLOPE	1328	n/a	n/a	0	0	0
1613.424	n/a	WORD	806712	wordpools/wasnorm_wordpool_576.txt	LTP285	ltpFR2	1	7	BUCKET	184	n/a	n/a	0	0	0
1616.086	n/a	WORD	808043	wordpools/wasnorm_wordpool_576.txt	LTP285	ltpFR2	1	7	BUBBLE	183	n/a	n/a	0	0	0
1618.85	n/a	WORD	809425	wordpools/wasnorm_wordpool_576.txt	LTP285	ltpFR2	1	7	VAGRANT	1544	n/a	n/a	0	0	0
1621.446	n/a	WORD	810723	wordpools/wasnorm_wordpool_576.txt	LTP285	ltpFR2	1	7	SHOULDER	1294	n/a	n/a	0	0	0
1624.058	n/a	WORD	812029	wordpools/wasnorm_wordpool_576.txt	LTP285	ltpFR2	1	7	GRAVE	658	n/a	n/a	0	0	0
1626.504	n/a	WORD	813252	wordpools/wasnorm_wordpool_576.txt	LTP285	ltpFR2	1	7	WIDOW	1608	n/a	n/a	0	0	0
1628.984	n/a	WORD	814492	wordpools/wasnorm_wordpool_576.txt	LTP285	ltpFR2	1	7	MOTEL	919	n/a	n/a	0	0	0
1631.446	n/a	WORD	815723	wordpools/wasnorm_wordpool_576.txt	LTP285	ltpFR2	1	7	TURKEY	1520	n/a	n/a	0	0	0
1633.878	n/a	WORD	816939	wordpools/wasnorm_wordpool_576.txt	LTP285	ltpFR2	1	7	GRAPE	654	n/a	n/a	0	0	0
1636.606	n/a	WORD	818303	wordpools/wasnorm_wordpool_576.txt	LTP285	ltpFR2	1	7	SHORTCAKE	1292	n/a	n/a	0	0	0
1639.102	n/a	WORD	819551	wordpools/wasnorm_wordpool_576.txt	LTP285	ltpFR2	1	7	SUNSET	1408	n/a	n/a	0	0	0
1641.666	n/a	WORD	820833	wordpools/wasnorm_wordpool_576.txt	LTP285	ltpFR2	1	7	HERO	706	n/a	n/a	0	0	0
1643.28	n/a	START	821640	n/a	LTP285	ltpFR2	1	n/a	n/a	n/a	9	n/a	n/a	n/a	n/a
1644.1	n/a	DISTRACTOR	822050	n/a	LTP285	ltpFR2	1	7	n/a	n/a	n/a	n/a	0	0	0
1644.112	n/a	PROB	822056	n/a	LTP285	ltpFR2	1	n/a	n/a	n/a	9	15	1	6	8
1645.926	n/a	PROB	822963	n/a	LTP285	ltpFR2	1	n/a	n/a	n/a	9	1	2	4	4
1647.324	n/a	PROB	823662	n/a	LTP285	ltpFR2	1	n/a	n/a	n/a	9	13	3	4	6
1649.088	n/a	PROB	824544	n/a	LTP285	ltpFR2	1	n/a	n/a	n/a	9	4	1	2	1
1650.118	n/a	PROB	825059	n/a	LTP285	ltpFR2	1	n/a	n/a	n/a	9	16	7	5	4
1651.634	n/a	PROB	825817	n/a	LTP285	ltpFR2	1	n/a	n/a	n/a	9	8	4	3	1
1652.75	n/a	PROB	826375	n/a	LTP285	ltpFR2	1	n/a	n/a	n/a	9	14	4	5	5
1654.13	n/a	PROB	827065	n/a	LTP285	ltpFR2	1	n/a	n/a	n/a	9	22	8	7	7
1655.528	n/a	PROB	827764	n/a	LTP285	ltpFR2	1	n/a	n/a	n/a	9	11	4	6	1
1656.526	n/a	PROB	828263	n/a	LTP285	ltpFR2	1	n/a	n/a	n/a	9	9	2	4	3
1658.174	n/a	PROB	829087	n/a	LTP285	ltpFR2	1	n/a	n/a	n/a	9	10	5	1	4
1660.204	n/a	PROB	830102	n/a	LTP285	ltpFR2	1	n/a	n/a	n/a	9	13	4	6	3
1661.252	n/a	PROB	830626	n/a	LTP285	ltpFR2	1	n/a	n/a	n/a	9	21	9	8	4
1664.232	n/a	PROB	832116	n/a	LTP285	ltpFR2	1	n/a	n/a	n/a	9	14	6	4	4
1665.764	n/a	STOP	832882	n/a	LTP285	ltpFR2	1	n/a	n/a	n/a	9	n/a	n/a	n/a	n/a
1669.042	n/a	REC_START	834521	n/a	LTP285	ltpFR2	1	7	n/a	n/a	n/a	n/a	0	0	0
1669.628	n/a	REC_WORD	834814	wordpools/wasnorm_wordpool_576.txt	LTP285	ltpFR2	1	7	SUNRISE	1407	n/a	n/a	0	0	0
1670.528	n/a	REC_WORD	835264	wordpools/wasnorm_wordpool_576.txt	LTP285	ltpFR2	1	7	SUNSET	1408	n/a	n/a	0	0	0
1671.964	n/a	REC_WORD	835982	wordpools/wasnorm_wordpool_576.txt	LTP285	ltpFR2	1	7	HERO	706	n/a	n/a	0	0	0
1673.482	n/a	REC_WORD	836741	wordpools/wasnorm_wordpool_576.txt	LTP285	ltpFR2	1	7	TURKEY	1520	n/a	n/a	0	0	0
1675.894	n/a	REC_WORD	837947	wordpools/wasnorm_wordpool_576.txt	LTP285	ltpFR2	1	7	GRAPE	654	n/a	n/a	0	0	0
1677.11	n/a	REC_WORD	838555	wordpools/wasnorm_wordpool_576.txt	LTP285	ltpFR2	1	7	SHORTCAKE	1292	n/a	n/a	0	0	0
1699.182	n/a	REC_WORD	849591	wordpools/wasnorm_wordpool_576.txt	LTP285	ltpFR2	1	7	SWIMMER	1420	n/a	n/a	0	0	0
1700.698	n/a	REC_WORD	850349	wordpools/wasnorm_wordpool_576.txt	LTP285	ltpFR2	1	7	GUARD	667	n/a	n/a	0	0	0
1712.486	n/a	REC_WORD	856243	wordpools/wasnorm_wordpool_576.txt	LTP285	ltpFR2	1	7	SCARECROW	1245	n/a	n/a	0	0	0
1715.4	n/a	REC_WORD	857700	wordpools/wasnorm_wordpool_576.txt	LTP285	ltpFR2	1	7	ARM	38	n/a	n/a	0	0	0
1716.344	n/a	REC_WORD	858172	wordpools/wasnorm_wordpool_576.txt	LTP285	ltpFR2	1	7	SHOULDER	1294	n/a	n/a	0	0	0
1759.708	n/a	DISTRACTOR	879854	n/a	LTP285	ltpFR2	1	8	n/a	n/a	n/a	n/a	0	0	0
1759.708	n/a	START	879854	n/a	LTP285	ltpFR2	1	n/a	n/a	n/a	10	n/a	n/a	n/a	n/a
1759.742	n/a	PROB	879871	n/a	LTP285	ltpFR2	1	n/a	n/a	n/a	10	14	3	9	2
1761.554	n/a	PROB	880777	n/a	LTP285	ltpFR2	1	n/a	n/a	n/a	10	16	3	9	4
1763.852	n/a	PROB	881926	n/a	LTP285	ltpFR2	1	n/a	n/a	n/a	10	12	3	6	3
1765.782	n/a	PROB	882891	n/a	LTP285	ltpFR2	1	n/a	n/a	n/a	10	12	7	2	3
1766.998	n/a	PROB	883499	n/a	LTP285	ltpFR2	1	n/a	n/a	n/a	10	19	9	1	9
1768.162	n/a	PROB	884081	n/a	LTP285	ltpFR2	1	n/a	n/a	n/a	10	18	7	7	4
1769.91	n/a	PROB	884955	n/a	LTP285	ltpFR2	1	n/a	n/a	n/a	10	16	3	4	9
1771.24	n/a	PROB	885620	n/a	LTP285	ltpFR2	1	n/a	n/a	n/a	10	18	8	6	4
1773.02	n/a	PROB	886510	n/a	LTP285	ltpFR2	1	n/a	n/a	n/a	10	11	2	2	7
1774.268	n/a	PROB	887134	n/a	LTP285	ltpFR2	1	n/a	n/a	n/a	10	9	5	2	2
1775.818	n/a	PROB	887909	n/a	LTP285	ltpFR2	1	n/a	n/a	n/a	10	8	6	1	1
1776.982	n/a	PROB	888491	n/a	LTP285	ltpFR2	1	n/a	n/a	n/a	10	9	6	2	1
1778.28	n/a	PROB	889140	n/a	LTP285	ltpFR2	1	n/a	n/a	n/a	10	14	6	7	1
1779.944	n/a	PROB	889972	n/a	LTP285	ltpFR2	1	n/a	n/a	n/a	10	14	3	9	2
1782.55	n/a	STOP	891275	n/a	LTP285	ltpFR2	1	n/a	n/a	n/a	10	n/a	n/a	n/a	n/a
1784.738	n/a	WORD	892369	wordpools/wasnorm_wordpool_576.txt	LTP285	ltpFR2	1	8	SPHINX	1349	n/a	n/a	0	0	0
1787.2	n/a	WORD	893600	wordpools/wasnorm_wordpool_576.txt	LTP285	ltpFR2	1	8	LAPEL	800	n/a	n/a	0	0	0
1789.846	n/a	WORD	894923	wordpools/wasnorm_wordpool_576.txt	LTP285	ltpFR2	1	8	HAMPER	682	n/a	n/a	0	0	0
1792.558	n/a	WORD	896279	wordpools/wasnorm_wordpool_576.txt	LTP285	ltpFR2	1	8	SCISSORS	1250	n/a	n/a	0	0	0
1795.072	n/a	WORD	897536	wordpools/wasnorm_wordpool_576.txt	LTP285	ltpFR2	1	8	JOURNAL	760	n/a	n/a	0	0	0
1797.818	n/a	WORD	898909	wordpools/wasnorm_wordpool_576.txt	LTP285	ltpFR2	1	8	SAUSAGE	1238	n/a	n/a	0	0	0
1800.43	n/a	WORD	900215	wordpools/wasnorm_wordpool_576.txt	LTP285	ltpFR2	1	8	SHIRT	1287	n/a	n/a	0	0	0
1803.16	n/a	WORD	901580	wordpools/wasnorm_wordpool_576.txt	LTP285	ltpFR2	1	8	PLAID	1080	n/a	n/a	0	0	0
1805.606	n/a	WORD	902803	wordpools/wasnorm_wordpool_576.txt	LTP285	ltpFR2	1	8	MILDEW	893	n/a	n/a	0	0	0
1808.036	n/a	WORD	904018	wordpools/wasnorm_wordpool_576.txt	LTP285	ltpFR2	1	8	FOREST	593	n/a	n/a	0	0	0
1810.514	n/a	WORD	905257	wordpools/wasnorm_wordpool_576.txt	LTP285	ltpFR2	1	8	PORK	1108	n/a	n/a	0	0	0
1813.294	n/a	WORD	906647	wordpools/wasnorm_wordpool_576.txt	LTP285	ltpFR2	1	8	STAR	1373	n/a	n/a	0	0	0
1815.724	n/a	WORD	907862	wordpools/wasnorm_wordpool_576.txt	LTP285	ltpFR2	1	8	TORTOISE	1486	n/a	n/a	0	0	0
1818.27	n/a	WORD	909135	wordpools/wasnorm_wordpool_576.txt	LTP285	ltpFR2	1	8	GHETTO	633	n/a	n/a	0	0	0
1820.802	n/a	WORD	910401	wordpools/wasnorm_wordpool_576.txt	LTP285	ltpFR2	1	8	SERVANT	1271	n/a	n/a	0	0	0
1823.43	n/a	WORD	911715	wordpools/wasnorm_wordpool_576.txt	LTP285	ltpFR2	1	8	PICTURE	1061	n/a	n/a	0	0	0
1826.21	n/a	WORD	913105	wordpools/wasnorm_wordpool_576.txt	LTP285	ltpFR2	1	8	PANTHER	1009	n/a	n/a	0	0	0
1828.856	n/a	WORD	914428	wordpools/wasnorm_wordpool_576.txt	LTP285	ltpFR2	1	8	ARMY	39	n/a	n/a	0	0	0
1831.402	n/a	WORD	915701	wordpools/wasnorm_wordpool_576.txt	LTP285	ltpFR2	1	8	ACTOR	5	n/a	n/a	0	0	0
1834.03	n/a	WORD	917015	wordpools/wasnorm_wordpool_576.txt	LTP285	ltpFR2	1	8	COTTAGE	384	n/a	n/a	0	0	0
1836.662	n/a	WORD	918331	wordpools/wasnorm_wordpool_576.txt	LTP285	ltpFR2	1	8	BLUEPRINT	142	n/a	n/a	0	0	0
1839.39	n/a	WORD	919695	wordpools/wasnorm_wordpool_576.txt	LTP285	ltpFR2	1	8	PATROL	1027	n/a	n/a	0	0	0
1842.152	n/a	WORD	921076	wordpools/wasnorm_wordpool_576.txt	LTP285	ltpFR2	1	8	GARDEN	623	n/a	n/a	0	0	0
1844.916	n/a	WORD	922458	wordpools/wasnorm_wordpool_576.txt	LTP285	ltpFR2	1	8	ORCHID	982	n/a	n/a	0	0	0
1846.528	n/a	START	923264	n/a	LTP285	ltpFR2	1	n/a	n/a	n/a	11	n/a	n/a	n/a	n/a
1847.53	n/a	DISTRACTOR	923765	n/a	LTP285	ltpFR2	1	8	n/a	n/a	n/a	n/a	0	0	0
1847.544	n/a	PROB	923772	n/a	LTP285	ltpFR2	1	n/a	n/a	n/a	11	12	2	1	9
1848.96	n/a	PROB	924480	n/a	LTP285	ltpFR2	1	n/a	n/a	n/a	11	15	7	1	7
1849.892	n/a	PROB	924946	n/a	LTP285	ltpFR2	1	n/a	n/a	n/a	11	24	7	8	9
1851.772	n/a	PROB	925886	n/a	LTP285	ltpFR2	1	n/a	n/a	n/a	11	20	6	8	6
1853.586	n/a	PROB	926793	n/a	LTP285	ltpFR2	1	n/a	n/a	n/a	11	16	8	1	7
1854.85	n/a	PROB	927425	n/a	LTP285	ltpFR2	1	n/a	n/a	n/a	11	17	4	5	8
1856.264	n/a	PROB	928132	n/a	LTP285	ltpFR2	1	n/a	n/a	n/a	11	19	6	5	8
1857.862	n/a	PROB	928931	n/a	LTP285	ltpFR2	1	n/a	n/a	n/a	11	15	1	7	7
1858.828	n/a	PROB	929414	n/a	LTP285	ltpFR2	1	n/a	n/a	n/a	11	18	6	8	4
1860.658	n/a	PROB	930329	n/a	LTP285	ltpFR2	1	n/a	n/a	n/a	11	15	3	3	9
1862.59	n/a	PROB	931295	n/a	LTP285	ltpFR2	1	n/a	n/a	n/a	11	14	2	4	8
1864.552	n/a	PROB	932276	n/a	LTP285	ltpFR2	1	n/a	n/a	n/a	11	5	3	1	1
1865.534	n/a	PROB	932767	n/a	LTP285	ltpFR2	1	n/a	n/a	n/a	11	23	9	9	5
1867.698	n/a	PROB	933849	n/a	LTP285	ltpFR2	1	n/a	n/a	n/a	11	15	8	4	3
1869.576	n/a	STOP	934788	n/a	LTP285	ltpFR2	1	n/a	n/a	n/a	11	n/a	n/a	n/a	n/a
1872.29	n/a	REC_START	936145	n/a	LTP285	ltpFR2	1	8	n/a	n/a	n/a	n/a	0	0	0
1873.334	n/a	REC_WORD	936667	wordpools/wasnorm_wordpool_576.txt	LTP285	ltpFR2	1	8	ARMY	39	n/a	n/a	0	0	0
1874.264	n/a	REC_WORD	937132	wordpools/wasnorm_wordpool_576.txt	LTP285	ltpFR2	1	8	PATROL	1027	n/a	n/a	0	0	0
1875.804	n/a	REC_WORD	937902	wordpools/wasnorm_wordpool_576.txt	LTP285	ltpFR2	1	8	GHETTO	633	n/a	n/a	0	0	0
1876.858	n/a	REC_WORD_VV	938429	wordpools/wasnorm_wordpool_576.txt	LTP285	ltpFR2	1	8	<>	-1	n/a	n/a	0	0	0
1877.8	n/a	REC_WORD_VV	938900	wordpools/wasnorm_wordpool_576.txt	LTP285	ltpFR2	1	8	<>	-1	n/a	n/a	0	0	0
1878.314	n/a	REC_WORD	939157	wordpools/wasnorm_wordpool_576.txt	LTP285	ltpFR2	1	8	COTTAGE	384	n/a	n/a	0	0	0
1879.684	n/a	REC_WORD	939842	wordpools/wasnorm_wordpool_576.txt	LTP285	ltpFR2	1	8	BLUEPRINT	142	n/a	n/a	0	0	0
1880.904	n/a	REC_WORD	940452	wordpools/wasnorm_wordpool_576.txt	LTP285	ltpFR2	1	8	GARDEN	623	n/a	n/a	0	0	0
1881.934	n/a	REC_WORD	940967	wordpools/wasnorm_wordpool_576.txt	LTP285	ltpFR2	1	8	ORCHID	982	n/a	n/a	0	0	0
1885.59	n/a	REC_WORD	942795	wordpools/wasnorm_wordpool_576.txt	LTP285	ltpFR2	1	8	PANTHER	1009	n/a	n/a	0	0	0
1888.502	n/a	REC_WORD	944251	wordpools/wasnorm_wordpool_576.txt	LTP285	ltpFR2	1	8	SAUSAGE	1238	n/a	n/a	0	0	0
1889.924	n/a	REC_WORD	944962	wordpools/wasnorm_wordpool_576.txt	LTP285	ltpFR2	1	8	PORK	1108	n/a	n/a	0	0	0
1904.004	n/a	REC_WORD	952002	wordpools/wasnorm_wordpool_576.txt	LTP285	ltpFR2	1	8	LAPEL	800	n/a	n/a	0	0	0
1935.646	n/a	REC_WORD	967823	wordpools/wasnorm_wordpool_576.txt	LTP285	ltpFR2	1	8	SCISSORS	1250	n/a	n/a	0	0	0
1948.928	n/a	REST_REWET	974464	n/a	LTP285	ltpFR2	1	8	n/a	n/a	n/a	n/a	0	0	0
2363.248	n/a	WORD	1181624	wordpools/wasnorm_wordpool_576.txt	LTP285	ltpFR2	1	9	FRAME	600	n/a	n/a	0	0	0
2365.712	n/a	WORD	1182856	wordpools/wasnorm_wordpool_576.txt	LTP285	ltpFR2	1	9	OZONE	996	n/a	n/a	0	0	0
2368.54	n/a	WORD	1184270	wordpools/wasnorm_wordpool_576.txt	LTP285	ltpFR2	1	9	TYPIST	1532	n/a	n/a	0	0	0
2371.268	n/a	WORD	1185634	wordpools/wasnorm_wordpool_576.txt	LTP285	ltpFR2	1	9	MARKET	871	n/a	n/a	0	0	0
2373.7	n/a	WORD	1186850	wordpools/wasnorm_wordpool_576.txt	LTP285	ltpFR2	1	9	TROUT	1511	n/a	n/a	0	0	0
2376.162	n/a	WORD	1188081	wordpools/wasnorm_wordpool_576.txt	LTP285	ltpFR2	1	9	STICKER	1382	n/a	n/a	0	0	0
2378.808	n/a	WORD	1189404	wordpools/wasnorm_wordpool_576.txt	LTP285	ltpFR2	1	9	THREAD	1460	n/a	n/a	0	0	0
2381.486	n/a	WORD	1190743	wordpools/wasnorm_wordpool_576.txt	LTP285	ltpFR2	1	9	NAPKIN	937	n/a	n/a	0	0	0
2383.984	n/a	WORD	1191992	wordpools/wasnorm_wordpool_576.txt	LTP285	ltpFR2	1	9	LION	827	n/a	n/a	0	0	0
2386.598	n/a	WORD	1193299	wordpools/wasnorm_wordpool_576.txt	LTP285	ltpFR2	1	9	SPOOL	1356	n/a	n/a	0	0	0
2389.392	n/a	WORD	1194696	wordpools/wasnorm_wordpool_576.txt	LTP285	ltpFR2	1	9	ACTRESS	6	n/a	n/a	0	0	0
2392.172	n/a	WORD	1196086	wordpools/wasnorm_wordpool_576.txt	LTP285	ltpFR2	1	9	POPCORN	1104	n/a	n/a	0	0	0
2394.868	n/a	WORD	1197434	wordpools/wasnorm_wordpool_576.txt	LTP285	ltpFR2	1	9	PREACHER	1119	n/a	n/a	0	0	0
2397.364	n/a	WORD	1198682	wordpools/wasnorm_wordpool_576.txt	LTP285	ltpFR2	1	9	FRIAR	605	n/a	n/a	0	0	0
2399.994	n/a	WORD	1199997	wordpools/wasnorm_wordpool_576.txt	LTP285	ltpFR2	1	9	RUST	1219	n/a	n/a	0	0	0
2402.806	n/a	WORD	1201403	wordpools/wasnorm_wordpool_576.txt	LTP285	ltpFR2	1	9	BEAST	108	n/a	n/a	0	0	0
2405.618	n/a	WORD	1202809	wordpools/wasnorm_wordpool_576.txt	LTP285	ltpFR2	1	9	BUREAU	199	n/a	n/a	0	0	0
2408.396	n/a	WORD	1204198	wordpools/wasnorm_wordpool_576.txt	LTP285	ltpFR2	1	9	INFANT	737	n/a	n/a	0	0	0
2410.928	n/a	WORD	1205464	wordpools/wasnorm_wordpool_576.txt	LTP285	ltpFR2	1	9	MAMMAL	861	n/a	n/a	0	0	0
2413.64	n/a	WORD	1206820	wordpools/wasnorm_wordpool_576.txt	LTP285	ltpFR2	1	9	TART	1436	n/a	n/a	0	0	0
2416.336	n/a	WORD	1208168	wordpools/wasnorm_wordpool_576.txt	LTP285	ltpFR2	1	9	GLOBE	641	n/a	n/a	0	0	0
2419.014	n/a	WORD	1209507	wordpools/wasnorm_wordpool_576.txt	LTP285	ltpFR2	1	9	GAVEL	627	n/a	n/a	0	0	0
2421.528	n/a	WORD	1210764	wordpools/wasnorm_wordpool_576.txt	LTP285	ltpFR2	1	9	BISON	131	n/a	n/a	0	0	0
2424.074	n/a	WORD	1212037	wordpools/wasnorm_wordpool_576.txt	LTP285	ltpFR2	1	9	VALLEY	1545	n/a	n/a	0	0	0
2425.69	n/a	START	1212845	n/a	LTP285	ltpFR2	1	n/a	n/a	n/a	12	n/a	n/a	n/a	n/a
2426.526	n/a	DISTRACTOR	1213263	n/a	LTP285	ltpFR2	1	9	n/a	n/a	n/a	n/a	0	0	0
2426.538	n/a	PROB	1213269	n/a	LTP285	ltpFR2	1	n/a	n/a	n/a	12	7	2	1	4
2429.718	n/a	PROB	1214859	n/a	LTP285	ltpFR2	1	n/a	n/a	n/a	12	13	1	7	5
2432.162	n/a	PROB	1216081	n/a	LTP285	ltpFR2	1	n/a	n/a	n/a	12	1	1	3	9
2433.712	n/a	PROB	1216856	n/a	LTP285	ltpFR2	1	n/a	n/a	n/a	12	9	2	3	4
2435.274	n/a	PROB	1217637	n/a	LTP285	ltpFR2	1	n/a	n/a	n/a	12	19	8	2	9
2436.372	n/a	PROB	1218186	n/a	LTP285	ltpFR2	1	n/a	n/a	n/a	12	18	5	6	7
2437.854	n/a	PROB	1218927	n/a	LTP285	ltpFR2	1	n/a	n/a	n/a	12	12	3	8	1
2439.118	n/a	PROB	1219559	n/a	LTP285	ltpFR2	1	n/a	n/a	n/a	12	19	7	9	3
2441.716	n/a	PROB	1220858	n/a	LTP285	ltpFR2	1	n/a	n/a	n/a	12	9	4	4	1
2443.146	n/a	PROB	1221573	n/a	LTP285	ltpFR2	1	n/a	n/a	n/a	12	9	4	4	1
2443.946	n/a	PROB	1221973	n/a	LTP285	ltpFR2	1	n/a	n/a	n/a	12	13	5	3	4
2446.124	n/a	PROB	1223062	n/a	LTP285	ltpFR2	1	n/a	n/a	n/a	12	19	7	4	8
2447.59	n/a	PROB	1223795	n/a	LTP285	ltpFR2	1	n/a	n/a	n/a	12	8	2	5	1
2448.696	n/a	STOP	1224348	n/a	LTP285	ltpFR2	1	n/a	n/a	n/a	12	n/a	n/a	n/a	n/a
2451.5	n/a	REC_START	1225750	n/a	LTP285	ltpFR2	1	9	n/a	n/a	n/a	n/a	0	0	0
2452.554	n/a	REC_WORD	1226277	wordpools/wasnorm_wordpool_576.txt	LTP285	ltpFR2	1	9	GAVEL	627	n/a	n/a	0	0	0
2453.856	n/a	REC_WORD	1226928	wordpools/wasnorm_wordpool_576.txt	LTP285	ltpFR2	1	9	GLOBE	641	n/a	n/a	0	0	0
2456.222	n/a	REC_WORD	1228111	wordpools/wasnorm_wordpool_576.txt	LTP285	ltpFR2	1	9	TROUT	1511	n/a	n/a	0	0	0
2457.822	n/a	REC_WORD	1228911	wordpools/wasnorm_wordpool_576.txt	LTP285	ltpFR2	1	9	MARKET	871	n/a	n/a	0	0	0
2459.406	n/a	REC_WORD	1229703	wordpools/wasnorm_wordpool_576.txt	LTP285	ltpFR2	1	9	OZONE	996	n/a	n/a	0	0	0
2460.642	n/a	REC_WORD	1230321	wordpools/wasnorm_wordpool_576.txt	LTP285	ltpFR2	1	9	FRAME	600	n/a	n/a	0	0	0
2467.012	n/a	REC_WORD	1233506	wordpools/wasnorm_wordpool_576.txt	LTP285	ltpFR2	1	9	BISON	131	n/a	n/a	0	0	0
2478.676	n/a	REC_WORD	1239338	wordpools/wasnorm_wordpool_576.txt	LTP285	ltpFR2	1	9	RUST	1219	n/a	n/a	0	0	0
2480.182	n/a	REC_WORD	1240091	wordpools/wasnorm_wordpool_576.txt	LTP285	ltpFR2	1	9	MAMMAL	861	n/a	n/a	0	0	0
2484.914	n/a	REC_WORD	1242457	wordpools/wasnorm_wordpool_576.txt	LTP285	ltpFR2	1	9	INFANT	737	n/a	n/a	0	0	0
2512.802	n/a	REC_WORD	1256401	wordpools/wasnorm_wordpool_576.txt	LTP285	ltpFR2	1	9	ACTRESS	6	n/a	n/a	0	0	0
2542.132	n/a	DISTRACTOR	1271066	n/a	LTP285	ltpFR2	1	10	n/a	n/a	n/a	n/a	0	0	0
2542.132	n/a	START	1271066	n/a	LTP285	ltpFR2	1	n/a	n/a	n/a	13	n/a	n/a	n/a	n/a
2542.166	n/a	PROB	1271083	n/a	LTP285	ltpFR2	1	n/a	n/a	n/a	13	19	7	9	3
2543.898	n/a	PROB	1271949	n/a	LTP285	ltpFR2	1	n/a	n/a	n/a	13	15	7	5	3
2545.678	n/a	PROB	1272839	n/a	LTP285	ltpFR2	1	n/a	n/a	n/a	13	24	8	8	8
2547.542	n/a	PROB	1273771	n/a	LTP285	ltpFR2	1	n/a	n/a	n/a	13	12	2	3	7
2549.838	n/a	PROB	1274919	n/a	LTP285	ltpFR2	1	n/a	n/a	n/a	13	10	5	4	1
2551.82	n/a	PROB	1275910	n/a	LTP285	ltpFR2	1	n/a	n/a	n/a	13	12	7	1	4
2552.95	n/a	PROB	1276475	n/a	LTP285	ltpFR2	1	n/a	n/a	n/a	13	14	9	2	3
2554.38	n/a	PROB	1277190	n/a	LTP285	ltpFR2	1	n/a	n/a	n/a	13	8	1	4	3
2556.094	n/a	PROB	1278047	n/a	LTP285	ltpFR2	1	n/a	n/a	n/a	13	10	6	2	2
2557.426	n/a	PROB	1278713	n/a	LTP285	ltpFR2	1	n/a	n/a	n/a	13	14	5	1	8
2559.14	n/a	PROB	1279570	n/a	LTP285	ltpFR2	1	n/a	n/a	n/a	13	16	5	2	9
2560.888	n/a	PROB	1280444	n/a	LTP285	ltpFR2	1	n/a	n/a	n/a	13	12	2	8	2
2562.036	n/a	PROB	1281018	n/a	LTP285	ltpFR2	1	n/a	n/a	n/a	13	15	3	4	8
2563.268	n/a	PROB	1281634	n/a	LTP285	ltpFR2	1	n/a	n/a	n/a	13	17	8	1	8
2566.132	n/a	STOP	1283066	n/a	LTP285	ltpFR2	1	n/a	n/a	n/a	13	n/a	n/a	n/a	n/a
2567.012	n/a	WORD	1283506	wordpools/wasnorm_wordpool_576.txt	LTP285	ltpFR2	1	10	LIZARD	834	n/a	n/a	0	0	0
2569.808	n/a	WORD	1284904	wordpools/wasnorm_wordpool_576.txt	LTP285	ltpFR2	1	10	SNAKE	1333	n/a	n/a	0	0	0
2572.306	n/a	WORD	1286153	wordpools/wasnorm_wordpool_576.txt	LTP285	ltpFR2	1	10	PEACH	1031	n/a	n/a	0	0	0
2574.77	n/a	WORD	1287385	wordpools/wasnorm_wordpool_576.txt	LTP285	ltpFR2	1	10	JAPAN	749	n/a	n/a	0	0	0
2577.582	n/a	WORD	1288791	wordpools/wasnorm_wordpool_576.txt	LTP285	ltpFR2	1	10	ISLAND	745	n/a	n/a	0	0	0
2580.26	n/a	WORD	1290130	wordpools/wasnorm_wordpool_576.txt	LTP285	ltpFR2	1	10	HARP	689	n/a	n/a	0	0	0
2582.824	n/a	WORD	1291412	wordpools/wasnorm_wordpool_576.txt	LTP285	ltpFR2	1	10	BLADE	134	n/a	n/a	0	0	0
2585.652	n/a	WORD	1292826	wordpools/wasnorm_wordpool_576.txt	LTP285	ltpFR2	1	10	ROBOT	1200	n/a	n/a	0	0	0
2588.182	n/a	WORD	1294091	wordpools/wasnorm_wordpool_576.txt	LTP285	ltpFR2	1	10	PIANO	1057	n/a	n/a	0	0	0
2590.712	n/a	WORD	1295356	wordpools/wasnorm_wordpool_576.txt	LTP285	ltpFR2	1	10	ORANGE	980	n/a	n/a	0	0	0
2593.358	n/a	WORD	1296679	wordpools/wasnorm_wordpool_576.txt	LTP285	ltpFR2	1	10	ONION	977	n/a	n/a	0	0	0
2595.87	n/a	WORD	1297935	wordpools/wasnorm_wordpool_576.txt	LTP285	ltpFR2	1	10	GARLIC	624	n/a	n/a	0	0	0
2598.4	n/a	WORD	1299200	wordpools/wasnorm_wordpool_576.txt	LTP285	ltpFR2	1	10	LAVA	804	n/a	n/a	0	0	0
2601.046	n/a	WORD	1300523	wordpools/wasnorm_wordpool_576.txt	LTP285	ltpFR2	1	10	PUPPY	1144	n/a	n/a	0	0	0
2603.776	n/a	WORD	1301888	wordpools/wasnorm_wordpool_576.txt	LTP285	ltpFR2	1	10	AWARD	63	n/a	n/a	0	0	0
2606.57	n/a	WORD	1303285	wordpools/wasnorm_wordpool_576.txt	LTP285	ltpFR2	1	10	SALMON	1227	n/a	n/a	0	0	0
2609.234	n/a	WORD	1304617	wordpools/wasnorm_wordpool_576.txt	LTP285	ltpFR2	1	10	HUSBAND	728	n/a	n/a	0	0	0
2612.012	n/a	WORD	1306006	wordpools/wasnorm_wordpool_576.txt	LTP285	ltpFR2	1	10	NURSE	963	n/a	n/a	0	0	0
2614.476	n/a	WORD	1307238	wordpools/wasnorm_wordpool_576.txt	LTP285	ltpFR2	1	10	FRECKLE	602	n/a	n/a	0	0	0
2616.94	n/a	WORD	1308470	wordpools/wasnorm_wordpool_576.txt	LTP285	ltpFR2	1	10	BRIEFCASE	175	n/a	n/a	0	0	0
2619.636	n/a	WORD	1309818	wordpools/wasnorm_wordpool_576.txt	LTP285	ltpFR2	1	10	MATCH	878	n/a	n/a	0	0	0
2622.13	n/a	WORD	1311065	wordpools/wasnorm_wordpool_576.txt	LTP285	ltpFR2	1	10	MEDAL	885	n/a	n/a	0	0	0
2624.628	n/a	WORD	1312314	wordpools/wasnorm_wordpool_576.txt	LTP285	ltpFR2	1	10	FLIPPER	580	n/a	n/a	0	0	0
2627.29	n/a	WORD	1313645	wordpools/wasnorm_wordpool_576.txt	LTP285	ltpFR2	1	10	POET	1095	n/a	n/a	0	0	0
2628.906	n/a	START	1314453	n/a	LTP285	ltpFR2	1	n/a	n/a	n/a	14	n/a	n/a	n/a	n/a
2629.722	n/a	DISTRACTOR	1314861	n/a	LTP285	ltpFR2	1	10	n/a	n/a	n/a	n/a	0	0	0
2629.738	n/a	PROB	1314869	n/a	LTP285	ltpFR2	1	n/a	n/a	n/a	14	18	3	8	6
2631.466	n/a	PROB	1315733	n/a	LTP285	ltpFR2	1	n/a	n/a	n/a	14	18	6	6	6
2632.932	n/a	PROB	1316466	n/a	LTP285	ltpFR2	1	n/a	n/a	n/a	14	24	7	9	8
2635.244	n/a	PROB	1317622	n/a	LTP285	ltpFR2	1	n/a	n/a	n/a	14	19	7	9	3
2636.392	n/a	PROB	1318196	n/a	LTP285	ltpFR2	1	n/a	n/a	n/a	14	9	1	6	2
2637.392	n/a	PROB	1318696	n/a	LTP285	ltpFR2	1	n/a	n/a	n/a	14	17	7	5	5
2638.608	n/a	PROB	1319304	n/a	LTP285	ltpFR2	1	n/a	n/a	n/a	14	11	7	3	1
2640.204	n/a	PROB	1320102	n/a	LTP285	ltpFR2	1	n/a	n/a	n/a	14	19	8	3	7
2641.902	n/a	PROB	1320951	n/a	LTP285	ltpFR2	1	n/a	n/a	n/a	14	13	7	2	4
2643.516	n/a	PROB	1321758	n/a	LTP285	ltpFR2	1	n/a	n/a	n/a	14	17	3	7	7
2645.08	n/a	PROB	1322540	n/a	LTP285	ltpFR2	1	n/a	n/a	n/a	14	17	3	5	9
2646.762	n/a	PROB	1323381	n/a	LTP285	ltpFR2	1	n/a	n/a	n/a	14	17	5	8	4
2649.624	n/a	PROB	1324812	n/a	LTP285	ltpFR2	1	n/a	n/a	n/a	14	8	3	2	3
2651.346	n/a	STOP	1325673	n/a	LTP285	ltpFR2	1	n/a	n/a	n/a	14	n/a	n/a	n/a	n/a
2654.668	n/a	REC_START	1327334	n/a	LTP285	ltpFR2	1	10	n/a	n/a	n/a	n/a	0	0	0
2656.54	n/a	REC_WORD	1328270	wordpools/wasnorm_wordpool_576.txt	LTP285	ltpFR2	1	10	POET	1095	n/a	n/a	0	0	0
2658.612	n/a	REC_WORD	1329306	wordpools/wasnorm_wordpool_576.txt	LTP285	ltpFR2	1	10	ONION	977	n/a	n/a	0	0	0
2659.514	n/a	REC_WORD	1329757	wordpools/wasnorm_wordpool_576.txt	LTP285	ltpFR2	1	10	GARLIC	624	n/a	n/a	0	0	0
2660.976	n/a	REC_WORD	1330488	wordpools/wasnorm_wordpool_576.txt	LTP285	ltpFR2	1	10	ORANGE	980	n/a	n/a	0	0	0
2662.086	n/a	REC_WORD	1331043	wordpools/wasnorm_wordpool_576.txt	LTP285	ltpFR2	1	10	PEACH	1031	n/a	n/a	0	0	0
2663.2	n/a	REC_WORD	1331600	wordpools/wasnorm_wordpool_576.txt	LTP285	ltpFR2	1	10	SALMON	1227	n/a	n/a	0	0	0
2665.61	n/a	REC_WORD	1332805	wordpools/wasnorm_wordpool_576.txt	LTP285	ltpFR2	1	10	HARP	689	n/a	n/a	0	0	0
2666.946	n/a	REC_WORD	1333473	wordpools/wasnorm_wordpool_576.txt	LTP285	ltpFR2	1	10	PIANO	1057	n/a	n/a	0	0	0
2673.508	n/a	REC_WORD	1336754	wordpools/wasnorm_wordpool_576.txt	LTP285	ltpFR2	1	10	MATCH	878	n/a	n/a	0	0	0
2681.748	n/a	REC_WORD	1340874	wordpools/wasnorm_wordpool_576.txt	LTP285	ltpFR2	1	10	LAVA	804	n/a	n/a	0	0	0
2683.08	n/a	REC_WORD	1341540	wordpools/wasnorm_wordpool_576.txt	LTP285	ltpFR2	1	10	JAPAN	749	n/a	n/a	0	0	0
2684.452	n/a	REC_WORD	1342226	wordpools/wasnorm_wordpool_576.txt	LTP285	ltpFR2	1	10	ISLAND	745	n/a	n/a	0	0	0
2687.662	n/a	REC_WORD	1343831	wordpools/wasnorm_wordpool_576.txt	LTP285	ltpFR2	1	10	BLADE	134	n/a	n/a	0	0	0
2711.986	n/a	REC_WORD	1355993	wordpools/wasnorm_wordpool_576.txt	LTP285	ltpFR2	1	10	AWARD	63	n/a	n/a	0	0	0
2713.242	n/a	REC_WORD	1356621	wordpools/wasnorm_wordpool_576.txt	LTP285	ltpFR2	1	10	MEDAL	885	n/a	n/a	0	0	0
2723.27	n/a	REC_WORD	1361635	wordpools/wasnorm_wordpool_576.txt	LTP285	ltpFR2	1	10	HUSBAND	728	n/a	n/a	0	0	0
2726.154	n/a	REC_WORD	1363077	wordpools/wasnorm_wordpool_576.txt	LTP285	ltpFR2	1	10	NURSE	963	n/a	n/a	0	0	0
2745.298	n/a	DISTRACTOR	1372649	n/a	LTP285	ltpFR2	1	11	n/a	n/a	n/a	n/a	0	0	0
2745.3	n/a	START	1372650	n/a	LTP285	ltpFR2	1	n/a	n/a	n/a	15	n/a	n/a	n/a	n/a
2745.332	n/a	PROB	1372666	n/a	LTP285	ltpFR2	1	n/a	n/a	n/a	15	18	9	6	3
2747.712	n/a	PROB	1373856	n/a	LTP285	ltpFR2	1	n/a	n/a	n/a	15	16	6	2	8
2750.492	n/a	PROB	1375246	n/a	LTP285	ltpFR2	1	n/a	n/a	n/a	15	8	5	2	1
2751.99	n/a	PROB	1375995	n/a	LTP285	ltpFR2	1	n/a	n/a	n/a	15	14	9	1	4
2753.188	n/a	PROB	1376594	n/a	LTP285	ltpFR2	1	n/a	n/a	n/a	15	11	5	5	1
2754.152	n/a	PROB	1377076	n/a	LTP285	ltpFR2	1	n/a	n/a	n/a	15	14	7	6	1
2756.232	n/a	PROB	1378116	n/a	LTP285	ltpFR2	1	n/a	n/a	n/a	15	13	7	2	4
2758.796	n/a	PROB	1379398	n/a	LTP285	ltpFR2	1	n/a	n/a	n/a	15	7	5	1	1
2759.878	n/a	PROB	1379939	n/a	LTP285	ltpFR2	1	n/a	n/a	n/a	15	17	6	4	7
2760.91	n/a	PROB	1380455	n/a	LTP285	ltpFR2	1	n/a	n/a	n/a	15	13	3	2	7
2762.39	n/a	PROB	1381195	n/a	LTP285	ltpFR2	1	n/a	n/a	n/a	15	14	4	1	9
2764.22	n/a	PROB	1382110	n/a	LTP285	ltpFR2	1	n/a	n/a	n/a	15	21	7	5	9
2766.768	n/a	PROB	1383384	n/a	LTP285	ltpFR2	1	n/a	n/a	n/a	15	14	7	6	1
2768.266	n/a	STOP	1384133	n/a	LTP285	ltpFR2	1	n/a	n/a	n/a	15	n/a	n/a	n/a	n/a
2770.294	n/a	WORD	1385147	wordpools/wasnorm_wordpool_576.txt	LTP285	ltpFR2	1	11	DIME	466	n/a	n/a	0	0	0
2773.124	n/a	WORD	1386562	wordpools/wasnorm_wordpool_576.txt	LTP285	ltpFR2	1	11	COFFEE	341	n/a	n/a	0	0	0
2775.82	n/a	WORD	1387910	wordpools/wasnorm_wordpool_576.txt	LTP285	ltpFR2	1	11	CAFE	216	n/a	n/a	0	0	0
2778.5	n/a	WORD	1389250	wordpools/wasnorm_wordpool_576.txt	LTP285	ltpFR2	1	11	MASK	876	n/a	n/a	0	0	0
2781.196	n/a	WORD	1390598	wordpools/wasnorm_wordpool_576.txt	LTP285	ltpFR2	1	11	SHERIFF	1284	n/a	n/a	0	0	0
2783.926	n/a	WORD	1391963	wordpools/wasnorm_wordpool_576.txt	LTP285	ltpFR2	1	11	DRAWING	494	n/a	n/a	0	0	0
2786.638	n/a	WORD	1393319	wordpools/wasnorm_wordpool_576.txt	LTP285	ltpFR2	1	11	PIGMENT	1066	n/a	n/a	0	0	0
2789.234	n/a	WORD	1394617	wordpools/wasnorm_wordpool_576.txt	LTP285	ltpFR2	1	11	BELLY	119	n/a	n/a	0	0	0
2791.93	n/a	WORD	1395965	wordpools/wasnorm_wordpool_576.txt	LTP285	ltpFR2	1	11	STOMACH	1384	n/a	n/a	0	0	0
2794.476	n/a	WORD	1397238	wordpools/wasnorm_wordpool_576.txt	LTP285	ltpFR2	1	11	MARROW	872	n/a	n/a	0	0	0
2796.972	n/a	WORD	1398486	wordpools/wasnorm_wordpool_576.txt	LTP285	ltpFR2	1	11	CASKET	255	n/a	n/a	0	0	0
2799.786	n/a	WORD	1399893	wordpools/wasnorm_wordpool_576.txt	LTP285	ltpFR2	1	11	MATTRESS	879	n/a	n/a	0	0	0
2802.348	n/a	WORD	1401174	wordpools/wasnorm_wordpool_576.txt	LTP285	ltpFR2	1	11	KETCHUP	771	n/a	n/a	0	0	0
2804.828	n/a	WORD	1402414	wordpools/wasnorm_wordpool_576.txt	LTP285	ltpFR2	1	11	POLICE	1098	n/a	n/a	0	0	0
2807.608	n/a	WORD	1403804	wordpools/wasnorm_wordpool_576.txt	LTP285	ltpFR2	1	11	TUBA	1515	n/a	n/a	0	0	0
2810.054	n/a	WORD	1405027	wordpools/wasnorm_wordpool_576.txt	LTP285	ltpFR2	1	11	PLIERS	1089	n/a	n/a	0	0	0
2812.85	n/a	WORD	1406425	wordpools/wasnorm_wordpool_576.txt	LTP285	ltpFR2	1	11	PEANUT	1032	n/a	n/a	0	0	0
2815.562	n/a	WORD	1407781	wordpools/wasnorm_wordpool_576.txt	LTP285	ltpFR2	1	11	NECKLACE	940	n/a	n/a	0	0	0
2818.19	n/a	WORD	1409095	wordpools/wasnorm_wordpool_576.txt	LTP285	ltpFR2	1	11	WORKER	1621	n/a	n/a	0	0	0
2820.904	n/a	WORD	1410452	wordpools/wasnorm_wordpool_576.txt	LTP285	ltpFR2	1	11	PRINCE	1124	n/a	n/a	0	0	0
2823.566	n/a	WORD	1411783	wordpools/wasnorm_wordpool_576.txt	LTP285	ltpFR2	1	11	SPOON	1357	n/a	n/a	0	0	0
2826.162	n/a	WORD	1413081	wordpools/wasnorm_wordpool_576.txt	LTP285	ltpFR2	1	11	PARROT	1015	n/a	n/a	0	0	0
2828.792	n/a	WORD	1414396	wordpools/wasnorm_wordpool_576.txt	LTP285	ltpFR2	1	11	LETTUCE	814	n/a	n/a	0	0	0
2831.438	n/a	WORD	1415719	wordpools/wasnorm_wordpool_576.txt	LTP285	ltpFR2	1	11	BACKBONE	66	n/a	n/a	0	0	0
2833.052	n/a	START	1416526	n/a	LTP285	ltpFR2	1	n/a	n/a	n/a	16	n/a	n/a	n/a	n/a
2834.236	n/a	DISTRACTOR	1417118	n/a	LTP285	ltpFR2	1	11	n/a	n/a	n/a	n/a	0	0	0
2834.25	n/a	PROB	1417125	n/a	LTP285	ltpFR2	1	n/a	n/a	n/a	16	22	9	8	5
2836.148	n/a	PROB	1418074	n/a	LTP285	ltpFR2	1	n/a	n/a	n/a	16	15	2	8	5
2837.18	n/a	PROB	1418590	n/a	LTP285	ltpFR2	1	n/a	n/a	n/a	16	174	7	3	7
2838.278	n/a	PROB	1419139	n/a	LTP285	ltpFR2	1	n/a	n/a	n/a	16	24	8	9	7
2841.94	n/a	PROB	1420970	n/a	LTP285	ltpFR2	1	n/a	n/a	n/a	16	12	2	4	6
2843.138	n/a	PROB	1421569	n/a	LTP285	ltpFR2	1	n/a	n/a	n/a	16	15	5	6	4
2844.436	n/a	PROB	1422218	n/a	LTP285	ltpFR2	1	n/a	n/a	n/a	16	15	2	8	5
2845.918	n/a	PROB	1422959	n/a	LTP285	ltpFR2	1	n/a	n/a	n/a	16	16	7	5	4
2848.962	n/a	PROB	1424481	n/a	LTP285	ltpFR2	1	n/a	n/a	n/a	16	10	1	4	5
2850.16	n/a	PROB	1425080	n/a	LTP285	ltpFR2	1	n/a	n/a	n/a	16	6	1	4	1
2851.342	n/a	PROB	1425671	n/a	LTP285	ltpFR2	1	n/a	n/a	n/a	16	12	3	8	1
2852.374	n/a	PROB	1426187	n/a	LTP285	ltpFR2	1	n/a	n/a	n/a	16	19	8	2	9
2853.64	n/a	PROB	1426820	n/a	LTP285	ltpFR2	1	n/a	n/a	n/a	16	9	6	2	1
2857.052	n/a	STOP	1428526	n/a	LTP285	ltpFR2	1	n/a	n/a	n/a	16	n/a	n/a	n/a	n/a
2858.916	n/a	REC_START	1429458	n/a	LTP285	ltpFR2	1	11	n/a	n/a	n/a	n/a	0	0	0
2859.856	n/a	REC_WORD	1429928	wordpools/wasnorm_wordpool_576.txt	LTP285	ltpFR2	1	11	LETTUCE	814	n/a	n/a	0	0	0
2861.09	n/a	REC_WORD	1430545	wordpools/wasnorm_wordpool_576.txt	LTP285	ltpFR2	1	11	BACKBONE	66	n/a	n/a	0	0	0
2862.402	n/a	REC_WORD	1431201	wordpools/wasnorm_wordpool_576.txt	LTP285	ltpFR2	1	11	BELLY	119	n/a	n/a	0	0	0
2863.424	n/a	REC_WORD	1431712	wordpools/wasnorm_wordpool_576.txt	LTP285	ltpFR2	1	11	STOMACH	1384	n/a	n/a	0	0	0
2864.744	n/a	REC_WORD	1432372	wordpools/wasnorm_wordpool_576.txt	LTP285	ltpFR2	1	11	MARROW	872	n/a	n/a	0	0	0
2866.646	n/a	REC_WORD	1433323	wordpools/wasnorm_wordpool_576.txt	LTP285	ltpFR2	1	11	TUBA	1515	n/a	n/a	0	0	0
2869.304	n/a	REC_WORD	1434652	wordpools/wasnorm_wordpool_576.txt	LTP285	ltpFR2	1	11	PRINCE	1124	n/a	n/a	0	0	0
2871.06	n/a	REC_WORD	1435530	wordpools/wasnorm_wordpool_576.txt	LTP285	ltpFR2	1	11	PLIERS	1089	n/a	n/a	0	0	0
2873.196	n/a	REC_WORD	1436598	wordpools/wasnorm_wordpool_576.txt	LTP285	ltpFR2	1	11	SPOON	1357	n/a	n/a	0	0	0
2877.356	n/a	REC_WORD	1438678	wordpools/wasnorm_wordpool_576.txt	LTP285	ltpFR2	1	11	PARROT	1015	n/a	n/a	0	0	0
2884.932	n/a	REC_WORD	1442466	wordpools/wasnorm_wordpool_576.txt	LTP285	ltpFR2	1	11	DRAWING	494	n/a	n/a	0	0	0
2894.574	n/a	REC_WORD	1447287	wordpools/wasnorm_wordpool_576.txt	LTP285	ltpFR2	1	11	MASK	876	n/a	n/a	0	0	0
2898.764	n/a	REC_WORD	1449382	wordpools/wasnorm_wordpool_576.txt	LTP285	ltpFR2	1	11	POLICE	1098	n/a	n/a	0	0	0
2900.136	n/a	REC_WORD	1450068	wordpools/wasnorm_wordpool_576.txt	LTP285	ltpFR2	1	11	SHERIFF	1284	n/a	n/a	0	0	0
2901.27	n/a	REC_WORD	1450635	wordpools/wasnorm_wordpool_576.txt	LTP285	ltpFR2	1	11	WORKER	1621	n/a	n/a	0	0	0
2949.58	n/a	WORD	1474790	wordpools/wasnorm_wordpool_576.txt	LTP285	ltpFR2	1	12	OMELET	976	n/a	n/a	0	0	0
2952.044	n/a	WORD	1476022	wordpools/wasnorm_wordpool_576.txt	LTP285	ltpFR2	1	12	PLAYGROUND	1087	n/a	n/a	0	0	0
2954.74	n/a	WORD	1477370	wordpools/wasnorm_wordpool_576.txt	LTP285	ltpFR2	1	12	DONOR	485	n/a	n/a	0	0	0
2957.468	n/a	WORD	1478734	wordpools/wasnorm_wordpool_576.txt	LTP285	ltpFR2	1	12	CATCHER	258	n/a	n/a	0	0	0
2960.182	n/a	WORD	1480091	wordpools/wasnorm_wordpool_576.txt	LTP285	ltpFR2	1	12	SHELF	1280	n/a	n/a	0	0	0
2962.928	n/a	WORD	1481464	wordpools/wasnorm_wordpool_576.txt	LTP285	ltpFR2	1	12	PASSAGE	1019	n/a	n/a	0	0	0
2965.54	n/a	WORD	1482770	wordpools/wasnorm_wordpool_576.txt	LTP285	ltpFR2	1	12	WINDOW	1611	n/a	n/a	0	0	0
2968.052	n/a	WORD	1484026	wordpools/wasnorm_wordpool_576.txt	LTP285	ltpFR2	1	12	HOUND	724	n/a	n/a	0	0	0
2970.766	n/a	WORD	1485383	wordpools/wasnorm_wordpool_576.txt	LTP285	ltpFR2	1	12	LEOPARD	812	n/a	n/a	0	0	0
2973.544	n/a	WORD	1486772	wordpools/wasnorm_wordpool_576.txt	LTP285	ltpFR2	1	12	SUMMIT	1405	n/a	n/a	0	0	0
2976.258	n/a	WORD	1488129	wordpools/wasnorm_wordpool_576.txt	LTP285	ltpFR2	1	12	ZIPPER	1636	n/a	n/a	0	0	0
2978.938	n/a	WORD	1489469	wordpools/wasnorm_wordpool_576.txt	LTP285	ltpFR2	1	12	TURTLE	1522	n/a	n/a	0	0	0
2981.55	n/a	WORD	1490775	wordpools/wasnorm_wordpool_576.txt	LTP285	ltpFR2	1	12	BEAKER	104	n/a	n/a	0	0	0
2984.028	n/a	WORD	1492014	wordpools/wasnorm_wordpool_576.txt	LTP285	ltpFR2	1	12	CHAMPAGNE	278	n/a	n/a	0	0	0
2986.76	n/a	WORD	1493380	wordpools/wasnorm_wordpool_576.txt	LTP285	ltpFR2	1	12	AIRPLANE	12	n/a	n/a	0	0	0
2989.404	n/a	WORD	1494702	wordpools/wasnorm_wordpool_576.txt	LTP285	ltpFR2	1	12	BALLOON	75	n/a	n/a	0	0	0
2991.884	n/a	WORD	1495942	wordpools/wasnorm_wordpool_576.txt	LTP285	ltpFR2	1	12	QUAIL	1147	n/a	n/a	0	0	0
2994.698	n/a	WORD	1497349	wordpools/wasnorm_wordpool_576.txt	LTP285	ltpFR2	1	12	RELISH	1183	n/a	n/a	0	0	0
2997.16	n/a	WORD	1498580	wordpools/wasnorm_wordpool_576.txt	LTP285	ltpFR2	1	12	MUSTARD	935	n/a	n/a	0	0	0
2999.64	n/a	WORD	1499820	wordpools/wasnorm_wordpool_576.txt	LTP285	ltpFR2	1	12	GREASE	660	n/a	n/a	0	0	0
3002.068	n/a	WORD	1501034	wordpools/wasnorm_wordpool_576.txt	LTP285	ltpFR2	1	12	GARBAGE	622	n/a	n/a	0	0	0
3004.648	n/a	WORD	1502324	wordpools/wasnorm_wordpool_576.txt	LTP285	ltpFR2	1	12	PIZZA	1079	n/a	n/a	0	0	0
3007.46	n/a	WORD	1503730	wordpools/wasnorm_wordpool_576.txt	LTP285	ltpFR2	1	12	SNAIL	1332	n/a	n/a	0	0	0
3009.924	n/a	WORD	1504962	wordpools/wasnorm_wordpool_576.txt	LTP285	ltpFR2	1	12	BUG	187	n/a	n/a	0	0	0
3011.538	n/a	START	1505769	n/a	LTP285	ltpFR2	1	n/a	n/a	n/a	17	n/a	n/a	n/a	n/a
3012.488	n/a	DISTRACTOR	1506244	n/a	LTP285	ltpFR2	1	12	n/a	n/a	n/a	n/a	0	0	0
3012.502	n/a	PROB	1506251	n/a	LTP285	ltpFR2	1	n/a	n/a	n/a	17	12	4	5	3
3014.384	n/a	PROB	1507192	n/a	LTP285	ltpFR2	1	n/a	n/a	n/a	17	13	3	6	4
3015.666	n/a	PROB	1507833	n/a	LTP285	ltpFR2	1	n/a	n/a	n/a	17	16	7	7	2
3017.146	n/a	PROB	1508573	n/a	LTP285	ltpFR2	1	n/a	n/a	n/a	17	16	4	3	9
3018.51	n/a	PROB	1509255	n/a	LTP285	ltpFR2	1	n/a	n/a	n/a	17	15	4	4	7
3020.592	n/a	PROB	1510296	n/a	LTP285	ltpFR2	1	n/a	n/a	n/a	17	18	7	2	9
3022.038	n/a	PROB	1511019	n/a	LTP285	ltpFR2	1	n/a	n/a	n/a	17	19	8	3	7
3023.804	n/a	PROB	1511902	n/a	LTP285	ltpFR2	1	n/a	n/a	n/a	17	9	2	5	2
3025.234	n/a	PROB	1512617	n/a	LTP285	ltpFR2	1	n/a	n/a	n/a	17	11	3	2	5
3026.618	n/a	PROB	1513309	n/a	LTP285	ltpFR2	1	n/a	n/a	n/a	17	15	9	1	5
3028.064	n/a	PROB	1514032	n/a	LTP285	ltpFR2	1	n/a	n/a	n/a	17	15	8	6	1
3029.512	n/a	PROB	1514756	n/a	LTP285	ltpFR2	1	n/a	n/a	n/a	17	11	4	5	2
3030.878	n/a	PROB	1515439	n/a	LTP285	ltpFR2	1	n/a	n/a	n/a	17	14	1	5	8
3032.308	n/a	PROB	1516154	n/a	LTP285	ltpFR2	1	n/a	n/a	n/a	17	22	8	6	8
3034.454	n/a	STOP	1517227	n/a	LTP285	ltpFR2	1	n/a	n/a	n/a	17	n/a	n/a	n/a	n/a
3037.418	n/a	REC_START	1518709	n/a	LTP285	ltpFR2	1	12	n/a	n/a	n/a	n/a	0	0	0
3038.186	n/a	REC_WORD	1519093	wordpools/wasnorm_wordpool_576.txt	LTP285	ltpFR2	1	12	SNAIL	1332	n/a	n/a	0	0	0
3039.508	n/a	REC_WORD	1519754	wordpools/wasnorm_wordpool_576.txt	LTP285	ltpFR2	1	12	BUG	187	n/a	n/a	0	0	0
3040.504	n/a	REC_WORD	1520252	wordpools/wasnorm_wordpool_576.txt	LTP285	ltpFR2	1	12	HOUND	724	n/a	n/a	0	0	0
3042.35	n/a	REC_WORD	1521175	wordpools/wasnorm_wordpool_576.txt	LTP285	ltpFR2	1	12	TURTLE	1522	n/a	n/a	0	0	0
3044.098	n/a	REC_WORD	1522049	wordpools/wasnorm_wordpool_576.txt	LTP285	ltpFR2	1	12	GREASE	660	n/a	n/a	0	0	0
3048.404	n/a	REC_WORD	1524202	wordpools/wasnorm_wordpool_576.txt	LTP285	ltpFR2	1	12	AIRPLANE	12	n/a	n/a	0	0	0
3085.856	n/a	REC_WORD	1542928	wordpools/wasnorm_wordpool_576.txt	LTP285	ltpFR2	1	12	RELISH	1183	n/a	n/a	0	0	0
3086.948	n/a	REC_WORD	1543474	wordpools/wasnorm_wordpool_576.txt	LTP285	ltpFR2	1	12	MUSTARD	935	n/a	n/a	0	0	0
3128.148	n/a	WORD	1564074	wordpools/wasnorm_wordpool_576.txt	LTP285	ltpFR2	1	13	GYMNAST	675	n/a	n/a	0	0	0
3130.93	n/a	WORD	1565465	wordpools/wasnorm_wordpool_576.txt	LTP285	ltpFR2	1	13	SUITCASE	1403	n/a	n/a	0	0	0
3133.676	n/a	WORD	1566838	wordpools/wasnorm_wordpool_576.txt	LTP285	ltpFR2	1	13	PUPIL	1143	n/a	n/a	0	0	0
3136.47	n/a	WORD	1568235	wordpools/wasnorm_wordpool_576.txt	LTP285	ltpFR2	1	13	LIGHTNING	820	n/a	n/a	0	0	0
3139.116	n/a	WORD	1569558	wordpools/wasnorm_wordpool_576.txt	LTP285	ltpFR2	1	13	AGENT	10	n/a	n/a	0	0	0
3141.83	n/a	WORD	1570915	wordpools/wasnorm_wordpool_576.txt	LTP285	ltpFR2	1	13	MARS	873	n/a	n/a	0	0	0
3144.508	n/a	WORD	1572254	wordpools/wasnorm_wordpool_576.txt	LTP285	ltpFR2	1	13	CASHEW	253	n/a	n/a	0	0	0
3147.088	n/a	WORD	1573544	wordpools/wasnorm_wordpool_576.txt	LTP285	ltpFR2	1	13	DASHBOARD	441	n/a	n/a	0	0	0
3149.684	n/a	WORD	1574842	wordpools/wasnorm_wordpool_576.txt	LTP285	ltpFR2	1	13	PORTRAIT	1111	n/a	n/a	0	0	0
3152.38	n/a	WORD	1576190	wordpools/wasnorm_wordpool_576.txt	LTP285	ltpFR2	1	13	PLASTER	1085	n/a	n/a	0	0	0
3155.176	n/a	WORD	1577588	wordpools/wasnorm_wordpool_576.txt	LTP285	ltpFR2	1	13	CABIN	211	n/a	n/a	0	0	0
3157.888	n/a	WORD	1578944	wordpools/wasnorm_wordpool_576.txt	LTP285	ltpFR2	1	13	LUMBER	848	n/a	n/a	0	0	0
3160.368	n/a	WORD	1580184	wordpools/wasnorm_wordpool_576.txt	LTP285	ltpFR2	1	13	TOURIST	1488	n/a	n/a	0	0	0
3163.146	n/a	WORD	1581573	wordpools/wasnorm_wordpool_576.txt	LTP285	ltpFR2	1	13	DANCER	437	n/a	n/a	0	0	0
3165.828	n/a	WORD	1582914	wordpools/wasnorm_wordpool_576.txt	LTP285	ltpFR2	1	13	CHAUFFEUR	283	n/a	n/a	0	0	0
3168.288	n/a	WORD	1584144	wordpools/wasnorm_wordpool_576.txt	LTP285	ltpFR2	1	13	DRINK	498	n/a	n/a	0	0	0
3170.786	n/a	WORD	1585393	wordpools/wasnorm_wordpool_576.txt	LTP285	ltpFR2	1	13	SWORD	1423	n/a	n/a	0	0	0
3173.298	n/a	WORD	1586649	wordpools/wasnorm_wordpool_576.txt	LTP285	ltpFR2	1	13	CUSTARD	429	n/a	n/a	0	0	0
3175.73	n/a	WORD	1587865	wordpools/wasnorm_wordpool_576.txt	LTP285	ltpFR2	1	13	CHIPMUNK	304	n/a	n/a	0	0	0
3178.276	n/a	WORD	1589138	wordpools/wasnorm_wordpool_576.txt	LTP285	ltpFR2	1	13	PADDING	999	n/a	n/a	0	0	0
3181.038	n/a	WORD	1590519	wordpools/wasnorm_wordpool_576.txt	LTP285	ltpFR2	1	13	BEEF	113	n/a	n/a	0	0	0
3183.818	n/a	WORD	1591909	wordpools/wasnorm_wordpool_576.txt	LTP285	ltpFR2	1	13	EYELASH	546	n/a	n/a	0	0	0
3186.598	n/a	WORD	1593299	wordpools/wasnorm_wordpool_576.txt	LTP285	ltpFR2	1	13	CATTLE	261	n/a	n/a	0	0	0
3189.158	n/a	WORD	1594579	wordpools/wasnorm_wordpool_576.txt	LTP285	ltpFR2	1	13	OX	994	n/a	n/a	0	0	0
3190.774	n/a	START	1595387	n/a	LTP285	ltpFR2	1	n/a	n/a	n/a	18	n/a	n/a	n/a	n/a
3191.748	n/a	DISTRACTOR	1595874	n/a	LTP285	ltpFR2	1	13	n/a	n/a	n/a	n/a	0	0	0
3191.756	n/a	PROB	1595878	n/a	LTP285	ltpFR2	1	n/a	n/a	n/a	18	16	9	5	2
3193.72	n/a	PROB	1596860	n/a	LTP285	ltpFR2	1	n/a	n/a	n/a	18	15	2	4	9
3195.184	n/a	PROB	1597592	n/a	LTP285	ltpFR2	1	n/a	n/a	n/a	18	6	2	2	2
3196.414	n/a	PROB	1598207	n/a	LTP285	ltpFR2	1	n/a	n/a	n/a	18	13	7	5	1
3198.446	n/a	PROB	1599223	n/a	LTP285	ltpFR2	1	n/a	n/a	n/a	18	13	1	7	5
3200.526	n/a	PROB	1600263	n/a	LTP285	ltpFR2	1	n/a	n/a	n/a	18	19	7	3	9
3201.708	n/a	PROB	1600854	n/a	LTP285	ltpFR2	1	n/a	n/a	n/a	18	12	5	3	4
3203.388	n/a	PROB	1601694	n/a	LTP285	ltpFR2	1	n/a	n/a	n/a	18	8	2	1	5
3204.704	n/a	PROB	1602352	n/a	LTP285	ltpFR2	1	n/a	n/a	n/a	18	18	9	7	2
3206.516	n/a	PROB	1603258	n/a	LTP285	ltpFR2	1	n/a	n/a	n/a	18	22	6	7	8
3209.046	n/a	PROB	1604523	n/a	LTP285	ltpFR2	1	n/a	n/a	n/a	18	10	3	4	3
3210.86	n/a	PROB	1605430	n/a	LTP285	ltpFR2	1	n/a	n/a	n/a	18	9	4	3	2
3212.474	n/a	PROB	1606237	n/a	LTP285	ltpFR2	1	n/a	n/a	n/a	18	25	9	8	8
3214.408	n/a	STOP	1607204	n/a	LTP285	ltpFR2	1	n/a	n/a	n/a	18	n/a	n/a	n/a	n/a
3216.72	n/a	REC_START	1608360	n/a	LTP285	ltpFR2	1	13	n/a	n/a	n/a	n/a	0	0	0
3217.45	n/a	REC_WORD	1608725	wordpools/wasnorm_wordpool_576.txt	LTP285	ltpFR2	1	13	CATTLE	261	n/a	n/a	0	0	0
3218.406	n/a	REC_WORD	1609203	wordpools/wasnorm_wordpool_576.txt	LTP285	ltpFR2	1	13	BEEF	113	n/a	n/a	0	0	0
3219.44	n/a	REC_WORD	1609720	wordpools/wasnorm_wordpool_576.txt	LTP285	ltpFR2	1	13	OX	994	n/a	n/a	0	0	0
3220.676	n/a	REC_WORD	1610338	wordpools/wasnorm_wordpool_576.txt	LTP285	ltpFR2	1	13	CUSTARD	429	n/a	n/a	0	0	0
3224.966	n/a	REC_WORD	1612483	wordpools/wasnorm_wordpool_576.txt	LTP285	ltpFR2	1	13	CHAUFFEUR	283	n/a	n/a	0	0	0
3227.864	n/a	REC_WORD	1613932	wordpools/wasnorm_wordpool_576.txt	LTP285	ltpFR2	1	13	GYMNAST	675	n/a	n/a	0	0	0
3229.184	n/a	REC_WORD	1614592	wordpools/wasnorm_wordpool_576.txt	LTP285	ltpFR2	1	13	DANCER	437	n/a	n/a	0	0	0
3230.466	n/a	REC_WORD	1615233	wordpools/wasnorm_wordpool_576.txt	LTP285	ltpFR2	1	13	PUPIL	1143	n/a	n/a	0	0	0
3235.66	n/a	REC_WORD	1617830	wordpools/wasnorm_wordpool_576.txt	LTP285	ltpFR2	1	13	LIGHTNING	820	n/a	n/a	0	0	0
3267.544	n/a	REC_WORD	1633772	wordpools/wasnorm_wordpool_576.txt	LTP285	ltpFR2	1	13	SWORD	1423	n/a	n/a	0	0	0
3290.386	n/a	REC_WORD	1645193	wordpools/wasnorm_wordpool_576.txt	LTP285	ltpFR2	1	13	QUAIL	1147	n/a	n/a	0	0	0
3307.384	n/a	DISTRACTOR	1653692	n/a	LTP285	ltpFR2	1	14	n/a	n/a	n/a	n/a	0	0	0
3307.384	n/a	START	1653692	n/a	LTP285	ltpFR2	1	n/a	n/a	n/a	19	n/a	n/a	n/a	n/a
3307.416	n/a	PROB	1653708	n/a	LTP285	ltpFR2	1	n/a	n/a	n/a	19	16	2	6	8
3308.916	n/a	PROB	1654458	n/a	LTP285	ltpFR2	1	n/a	n/a	n/a	19	13	3	9	1
3310.512	n/a	PROB	1655256	n/a	LTP285	ltpFR2	1	n/a	n/a	n/a	19	23	8	8	7
3312.11	n/a	PROB	1656055	n/a	LTP285	ltpFR2	1	n/a	n/a	n/a	19	14	2	5	7
3313.44	n/a	PROB	1656720	n/a	LTP285	ltpFR2	1	n/a	n/a	n/a	19	18	5	5	8
3314.44	n/a	PROB	1657220	n/a	LTP285	ltpFR2	1	n/a	n/a	n/a	19	12	2	6	3
3315.772	n/a	PROB	1657886	n/a	LTP285	ltpFR2	1	n/a	n/a	n/a	19	13	4	6	3
3316.92	n/a	PROB	1658460	n/a	LTP285	ltpFR2	1	n/a	n/a	n/a	19	15	6	3	6
3318.134	n/a	PROB	1659067	n/a	LTP285	ltpFR2	1	n/a	n/a	n/a	19	13	6	3	4
3319.216	n/a	PROB	1659608	n/a	LTP285	ltpFR2	1	n/a	n/a	n/a	19	12	3	4	5
3320.614	n/a	PROB	1660307	n/a	LTP285	ltpFR2	1	n/a	n/a	n/a	19	20	8	8	4
3322.478	n/a	PROB	1661239	n/a	LTP285	ltpFR2	1	n/a	n/a	n/a	19	10	4	5	1
3323.744	n/a	PROB	1661872	n/a	LTP285	ltpFR2	1	n/a	n/a	n/a	19	16	8	1	7
3325.592	n/a	PROB	1662796	n/a	LTP285	ltpFR2	1	n/a	n/a	n/a	19	10	1	6	3
3327.404	n/a	PROB	1663702	n/a	LTP285	ltpFR2	1	n/a	n/a	n/a	19	16	9	3	4
3328.936	n/a	PROB	1664468	n/a	LTP285	ltpFR2	1	n/a	n/a	n/a	19	18	5	5	8
3329.82	n/a	STOP	1664910	n/a	LTP285	ltpFR2	1	n/a	n/a	n/a	19	n/a	n/a	n/a	n/a
3332.514	n/a	WORD	1666257	wordpools/wasnorm_wordpool_576.txt	LTP285	ltpFR2	1	14	PISTOL	1075	n/a	n/a	0	0	0
3335.326	n/a	WORD	1667663	wordpools/wasnorm_wordpool_576.txt	LTP285	ltpFR2	1	14	BABY	64	n/a	n/a	0	0	0
3337.756	n/a	WORD	1668878	wordpools/wasnorm_wordpool_576.txt	LTP285	ltpFR2	1	14	DUSTPAN	509	n/a	n/a	0	0	0
3340.336	n/a	WORD	1670168	wordpools/wasnorm_wordpool_576.txt	LTP285	ltpFR2	1	14	BRANDY	169	n/a	n/a	0	0	0
3343.098	n/a	WORD	1671549	wordpools/wasnorm_wordpool_576.txt	LTP285	ltpFR2	1	14	FLASK	576	n/a	n/a	0	0	0
3345.644	n/a	WORD	1672822	wordpools/wasnorm_wordpool_576.txt	LTP285	ltpFR2	1	14	JUGGLER	763	n/a	n/a	0	0	0
3348.306	n/a	WORD	1674153	wordpools/wasnorm_wordpool_576.txt	LTP285	ltpFR2	1	14	SPOUSE	1358	n/a	n/a	0	0	0
3351.102	n/a	WORD	1675551	wordpools/wasnorm_wordpool_576.txt	LTP285	ltpFR2	1	14	WIFE	1609	n/a	n/a	0	0	0
3353.866	n/a	WORD	1676933	wordpools/wasnorm_wordpool_576.txt	LTP285	ltpFR2	1	14	CIGAR	308	n/a	n/a	0	0	0
3356.56	n/a	WORD	1678280	wordpools/wasnorm_wordpool_576.txt	LTP285	ltpFR2	1	14	TABLE	1426	n/a	n/a	0	0	0
3359.224	n/a	WORD	1679612	wordpools/wasnorm_wordpool_576.txt	LTP285	ltpFR2	1	14	BADGE	68	n/a	n/a	0	0	0
3361.82	n/a	WORD	1680910	wordpools/wasnorm_wordpool_576.txt	LTP285	ltpFR2	1	14	LEG	809	n/a	n/a	0	0	0
3364.6	n/a	WORD	1682300	wordpools/wasnorm_wordpool_576.txt	LTP285	ltpFR2	1	14	SCULPTURE	1258	n/a	n/a	0	0	0
3367.328	n/a	WORD	1683664	wordpools/wasnorm_wordpool_576.txt	LTP285	ltpFR2	1	14	LEADER	807	n/a	n/a	0	0	0
3370.074	n/a	WORD	1685037	wordpools/wasnorm_wordpool_576.txt	LTP285	ltpFR2	1	14	COUCH	386	n/a	n/a	0	0	0
3372.754	n/a	WORD	1686377	wordpools/wasnorm_wordpool_576.txt	LTP285	ltpFR2	1	14	POWDER	1117	n/a	n/a	0	0	0
3375.432	n/a	WORD	1687716	wordpools/wasnorm_wordpool_576.txt	LTP285	ltpFR2	1	14	GROUND	666	n/a	n/a	0	0	0
3378.096	n/a	WORD	1689048	wordpools/wasnorm_wordpool_576.txt	LTP285	ltpFR2	1	14	WOMAN	1620	n/a	n/a	0	0	0
3380.826	n/a	WORD	1690413	wordpools/wasnorm_wordpool_576.txt	LTP285	ltpFR2	1	14	ROBIN	1199	n/a	n/a	0	0	0
3383.438	n/a	WORD	1691719	wordpools/wasnorm_wordpool_576.txt	LTP285	ltpFR2	1	14	SEAL	1262	n/a	n/a	0	0	0
3386.166	n/a	WORD	1693083	wordpools/wasnorm_wordpool_576.txt	LTP285	ltpFR2	1	14	GLOVE	642	n/a	n/a	0	0	0
3388.864	n/a	WORD	1694432	wordpools/wasnorm_wordpool_576.txt	LTP285	ltpFR2	1	14	SMOG	1330	n/a	n/a	0	0	0
3391.642	n/a	WORD	1695821	wordpools/wasnorm_wordpool_576.txt	LTP285	ltpFR2	1	14	SPARROW	1347	n/a	n/a	0	0	0
3394.388	n/a	WORD	1697194	wordpools/wasnorm_wordpool_576.txt	LTP285	ltpFR2	1	14	ROOSTER	1209	n/a	n/a	0	0	0
3396.004	n/a	START	1698002	n/a	LTP285	ltpFR2	1	n/a	n/a	n/a	20	n/a	n/a	n/a	n/a
3397.202	n/a	DISTRACTOR	1698601	n/a	LTP285	ltpFR2	1	14	n/a	n/a	n/a	n/a	0	0	0
3397.216	n/a	PROB	1698608	n/a	LTP285	ltpFR2	1	n/a	n/a	n/a	20	15	2	8	5
3398.616	n/a	PROB	1699308	n/a	LTP285	ltpFR2	1	n/a	n/a	n/a	20	14	4	1	9
3400.278	n/a	PROB	1700139	n/a	LTP285	ltpFR2	1	n/a	n/a	n/a	20	14	7	5	2
3402.078	n/a	PROB	1701039	n/a	LTP285	ltpFR2	1	n/a	n/a	n/a	20	12	1	7	4
3403.142	n/a	PROB	1701571	n/a	LTP285	ltpFR2	1	n/a	n/a	n/a	20	8	6	1	1
3404.158	n/a	PROB	1702079	n/a	LTP285	ltpFR2	1	n/a	n/a	n/a	20	12	8	1	3
3406.022	n/a	PROB	1703011	n/a	LTP285	ltpFR2	1	n/a	n/a	n/a	20	14	7	1	6
3407.42	n/a	PROB	1703710	n/a	LTP285	ltpFR2	1	n/a	n/a	n/a	20	22	6	9	9
3409.002	n/a	PROB	1704501	n/a	LTP285	ltpFR2	1	n/a	n/a	n/a	20	14	2	7	5
3411.38	n/a	PROB	1705690	n/a	LTP285	ltpFR2	1	n/a	n/a	n/a	20	23	6	8	9
3413.394	n/a	PROB	1706697	n/a	LTP285	ltpFR2	1	n/a	n/a	n/a	20	22	9	5	8
3416.24	n/a	PROB	1708120	n/a	LTP285	ltpFR2	1	n/a	n/a	n/a	20	19	5	6	8
3417.538	n/a	PROB	1708769	n/a	LTP285	ltpFR2	1	n/a	n/a	n/a	20	9	4	4	1
3418.5	n/a	STOP	1709250	n/a	LTP285	ltpFR2	1	n/a	n/a	n/a	20	n/a	n/a	n/a	n/a
3421.866	n/a	REC_START	1710933	n/a	LTP285	ltpFR2	1	14	n/a	n/a	n/a	n/a	0	0	0
3422.454	n/a	REC_WORD	1711227	wordpools/wasnorm_wordpool_576.txt	LTP285	ltpFR2	1	14	SPARROW	1347	n/a	n/a	0	0	0
3423.472	n/a	REC_WORD	1711736	wordpools/wasnorm_wordpool_576.txt	LTP285	ltpFR2	1	14	ROOSTER	1209	n/a	n/a	0	0	0
3424.332	n/a	REC_WORD	1712166	wordpools/wasnorm_wordpool_576.txt	LTP285	ltpFR2	1	14	ROBIN	1199	n/a	n/a	0	0	0
3425.322	n/a	REC_WORD	1712661	wordpools/wasnorm_wordpool_576.txt	LTP285	ltpFR2	1	14	GLOVE	642	n/a	n/a	0	0	0
3427.884	n/a	REC_WORD	1713942	wordpools/wasnorm_wordpool_576.txt	LTP285	ltpFR2	1	14	SEAL	1262	n/a	n/a	0	0	0
3440.134	n/a	REC_WORD	1720067	wordpools/wasnorm_wordpool_576.txt	LTP285	ltpFR2	1	14	BADGE	68	n/a	n/a	0	0	0
3452.956	n/a	REC_WORD	1726478	wordpools/wasnorm_wordpool_576.txt	LTP285	ltpFR2	1	14	COUCH	386	n/a	n/a	0	0	0
3462.222	n/a	REC_WORD	1731111	wordpools/wasnorm_wordpool_576.txt	LTP285	ltpFR2	1	14	DRINK	498	n/a	n/a	0	0	0
3463.436	n/a	REC_WORD	1731718	wordpools/wasnorm_wordpool_576.txt	LTP285	ltpFR2	1	14	BRANDY	169	n/a	n/a	0	0	0
3512.514	n/a	WORD	1756257	wordpools/wasnorm_wordpool_576.txt	LTP285	ltpFR2	1	15	COOKBOOK	373	n/a	n/a	0	0	0
3515.01	n/a	WORD	1757505	wordpools/wasnorm_wordpool_576.txt	LTP285	ltpFR2	1	15	RIFLE	1192	n/a	n/a	0	0	0
3517.472	n/a	WORD	1758736	wordpools/wasnorm_wordpool_576.txt	LTP285	ltpFR2	1	15	STAPLE	1371	n/a	n/a	0	0	0
3520.052	n/a	WORD	1760026	wordpools/wasnorm_wordpool_576.txt	LTP285	ltpFR2	1	15	CLIMBER	323	n/a	n/a	0	0	0
3522.782	n/a	WORD	1761391	wordpools/wasnorm_wordpool_576.txt	LTP285	ltpFR2	1	15	LUNCH	849	n/a	n/a	0	0	0
3525.212	n/a	WORD	1762606	wordpools/wasnorm_wordpool_576.txt	LTP285	ltpFR2	1	15	LIVER	833	n/a	n/a	0	0	0
3527.658	n/a	WORD	1763829	wordpools/wasnorm_wordpool_576.txt	LTP285	ltpFR2	1	15	CHEST	295	n/a	n/a	0	0	0
3530.386	n/a	WORD	1765193	wordpools/wasnorm_wordpool_576.txt	LTP285	ltpFR2	1	15	FIREPLACE	570	n/a	n/a	0	0	0
3532.884	n/a	WORD	1766442	wordpools/wasnorm_wordpool_576.txt	LTP285	ltpFR2	1	15	BEAVER	109	n/a	n/a	0	0	0
3535.512	n/a	WORD	1767756	wordpools/wasnorm_wordpool_576.txt	LTP285	ltpFR2	1	15	GAZELLE	628	n/a	n/a	0	0	0
3537.994	n/a	WORD	1768997	wordpools/wasnorm_wordpool_576.txt	LTP285	ltpFR2	1	15	BLACKBOARD	133	n/a	n/a	0	0	0
3540.756	n/a	WORD	1770378	wordpools/wasnorm_wordpool_576.txt	LTP285	ltpFR2	1	15	BOARD	143	n/a	n/a	0	0	0
3543.35	n/a	WORD	1771675	wordpools/wasnorm_wordpool_576.txt	LTP285	ltpFR2	1	15	DONKEY	484	n/a	n/a	0	0	0
3545.882	n/a	WORD	1772941	wordpools/wasnorm_wordpool_576.txt	LTP285	ltpFR2	1	15	CHAPEL	280	n/a	n/a	0	0	0
3548.628	n/a	WORD	1774314	wordpools/wasnorm_wordpool_576.txt	LTP285	ltpFR2	1	15	CREVICE	405	n/a	n/a	0	0	0
3551.256	n/a	WORD	1775628	wordpools/wasnorm_wordpool_576.txt	LTP285	ltpFR2	1	15	GRIZZLY	662	n/a	n/a	0	0	0
3553.904	n/a	WORD	1776952	wordpools/wasnorm_wordpool_576.txt	LTP285	ltpFR2	1	15	BRACES	164	n/a	n/a	0	0	0
3556.616	n/a	WORD	1778308	wordpools/wasnorm_wordpool_576.txt	LTP285	ltpFR2	1	15	REPORT	1184	n/a	n/a	0	0	0
3559.394	n/a	WORD	1779697	wordpools/wasnorm_wordpool_576.txt	LTP285	ltpFR2	1	15	DRUG	501	n/a	n/a	0	0	0
3561.974	n/a	WORD	1780987	wordpools/wasnorm_wordpool_576.txt	LTP285	ltpFR2	1	15	FIREMAN	569	n/a	n/a	0	0	0
3564.436	n/a	WORD	1782218	wordpools/wasnorm_wordpool_576.txt	LTP285	ltpFR2	1	15	LADY	794	n/a	n/a	0	0	0
3567.2	n/a	WORD	1783600	wordpools/wasnorm_wordpool_576.txt	LTP285	ltpFR2	1	15	CURTAIN	427	n/a	n/a	0	0	0
3569.78	n/a	WORD	1784890	wordpools/wasnorm_wordpool_576.txt	LTP285	ltpFR2	1	15	PARENT	1013	n/a	n/a	0	0	0
3572.208	n/a	WORD	1786104	wordpools/wasnorm_wordpool_576.txt	LTP285	ltpFR2	1	15	PICNIC	1060	n/a	n/a	0	0	0
3573.824	n/a	START	1786912	n/a	LTP285	ltpFR2	1	n/a	n/a	n/a	21	n/a	n/a	n/a	n/a
3574.774	n/a	DISTRACTOR	1787387	n/a	LTP285	ltpFR2	1	15	n/a	n/a	n/a	n/a	0	0	0
3574.79	n/a	PROB	1787395	n/a	LTP285	ltpFR2	1	n/a	n/a	n/a	21	19	9	5	5
3576.004	n/a	PROB	1788002	n/a	LTP285	ltpFR2	1	n/a	n/a	n/a	21	18	3	6	9
3577.518	n/a	PROB	1788759	n/a	LTP285	ltpFR2	1	n/a	n/a	n/a	21	10	2	4	4
3579.482	n/a	PROB	1789741	n/a	LTP285	ltpFR2	1	n/a	n/a	n/a	21	18	3	9	6
3581.528	n/a	PROB	1790764	n/a	LTP285	ltpFR2	1	n/a	n/a	n/a	21	22	6	8	8
3584.024	n/a	PROB	1792012	n/a	LTP285	ltpFR2	1	n/a	n/a	n/a	21	22	7	6	9
3585.756	n/a	PROB	1792878	n/a	LTP285	ltpFR2	1	n/a	n/a	n/a	21	11	3	3	5
3587.12	n/a	PROB	1793560	n/a	LTP285	ltpFR2	1	n/a	n/a	n/a	21	13	6	1	6
3588.818	n/a	PROB	1794409	n/a	LTP285	ltpFR2	1	n/a	n/a	n/a	21	24	9	7	6
3592.862	n/a	PROB	1796431	n/a	LTP285	ltpFR2	1	n/a	n/a	n/a	21	16	6	8	2
3594.892	n/a	PROB	1797446	n/a	LTP285	ltpFR2	1	n/a	n/a	n/a	21	11	3	7	1
3597.824	n/a	STOP	1798912	n/a	LTP285	ltpFR2	1	n/a	n/a	n/a	21	n/a	n/a	n/a	n/a
3599.72	n/a	REC_START	1799860	n/a	LTP285	ltpFR2	1	15	n/a	n/a	n/a	n/a	0	0	0
3600.402	n/a	REC_WORD	1800201	wordpools/wasnorm_wordpool_576.txt	LTP285	ltpFR2	1	15	PICNIC	1060	n/a	n/a	0	0	0
3601.484	n/a	REC_WORD	1800742	wordpools/wasnorm_wordpool_576.txt	LTP285	ltpFR2	1	15	PARENT	1013	n/a	n/a	0	0	0
3608.526	n/a	REC_WORD	1804263	wordpools/wasnorm_wordpool_576.txt	LTP285	ltpFR2	1	15	BOARD	143	n/a	n/a	0	0	0
3609.506	n/a	REC_WORD	1804753	wordpools/wasnorm_wordpool_576.txt	LTP285	ltpFR2	1	15	BLACKBOARD	133	n/a	n/a	0	0	0
3616.166	n/a	REC_WORD	1808083	wordpools/wasnorm_wordpool_576.txt	LTP285	ltpFR2	1	15	CHEST	295	n/a	n/a	0	0	0
3621.422	n/a	REC_WORD	1810711	wordpools/wasnorm_wordpool_576.txt	LTP285	ltpFR2	1	15	LIVER	833	n/a	n/a	0	0	0
3629.564	n/a	REC_WORD	1814782	wordpools/wasnorm_wordpool_576.txt	LTP285	ltpFR2	1	15	BRACES	164	n/a	n/a	0	0	0
3633.368	n/a	REC_WORD	1816684	wordpools/wasnorm_wordpool_576.txt	LTP285	ltpFR2	1	15	DONKEY	484	n/a	n/a	0	0	0
3638.798	n/a	REC_WORD	1819399	wordpools/wasnorm_wordpool_576.txt	LTP285	ltpFR2	1	15	COOKBOOK	373	n/a	n/a	0	0	0
3643.304	n/a	REC_WORD	1821652	wordpools/wasnorm_wordpool_576.txt	LTP285	ltpFR2	1	15	FIREPLACE	570	n/a	n/a	0	0	0
3690.366	n/a	DISTRACTOR	1845183	n/a	LTP285	ltpFR2	1	16	n/a	n/a	n/a	n/a	0	0	0
3690.366	n/a	START	1845183	n/a	LTP285	ltpFR2	1	n/a	n/a	n/a	22	n/a	n/a	n/a	n/a
3690.4	n/a	PROB	1845200	n/a	LTP285	ltpFR2	1	n/a	n/a	n/a	22	17	8	8	1
3692.53	n/a	PROB	1846265	n/a	LTP285	ltpFR2	1	n/a	n/a	n/a	22	11	2	1	8
3694.128	n/a	PROB	1847064	n/a	LTP285	ltpFR2	1	n/a	n/a	n/a	22	14	5	4	5
3695.31	n/a	PROB	1847655	n/a	LTP285	ltpFR2	1	n/a	n/a	n/a	22	14	3	7	4
3698.056	n/a	PROB	1849028	n/a	LTP285	ltpFR2	1	n/a	n/a	n/a	22	20	8	9	3
3699.886	n/a	PROB	1849943	n/a	LTP285	ltpFR2	1	n/a	n/a	n/a	22	12	6	3	2
3701.466	n/a	PROB	1850733	n/a	LTP285	ltpFR2	1	n/a	n/a	n/a	22	21	8	9	4
3704.396	n/a	PROB	1852198	n/a	LTP285	ltpFR2	1	n/a	n/a	n/a	22	14	3	5	6
3706.526	n/a	PROB	1853263	n/a	LTP285	ltpFR2	1	n/a	n/a	n/a	22	15	8	4	3
3707.942	n/a	PROB	1853971	n/a	LTP285	ltpFR2	1	n/a	n/a	n/a	22	12	4	5	4
3709.456	n/a	PROB	1854728	n/a	LTP285	ltpFR2	1	n/a	n/a	n/a	22	22	6	8	8
3711.686	n/a	PROB	1855843	n/a	LTP285	ltpFR2	1	n/a	n/a	n/a	22	14	5	7	2
3713.696	n/a	STOP	1856848	n/a	LTP285	ltpFR2	1	n/a	n/a	n/a	22	n/a	n/a	n/a	n/a
3715.264	n/a	WORD	1857632	wordpools/wasnorm_wordpool_576.txt	LTP285	ltpFR2	1	16	MILK	895	n/a	n/a	0	0	0
3717.978	n/a	WORD	1858989	wordpools/wasnorm_wordpool_576.txt	LTP285	ltpFR2	1	16	JELLO	754	n/a	n/a	0	0	0
3720.556	n/a	WORD	1860278	wordpools/wasnorm_wordpool_576.txt	LTP285	ltpFR2	1	16	HORSE	719	n/a	n/a	0	0	0
3723.086	n/a	WORD	1861543	wordpools/wasnorm_wordpool_576.txt	LTP285	ltpFR2	1	16	DUST	508	n/a	n/a	0	0	0
3725.65	n/a	WORD	1862825	wordpools/wasnorm_wordpool_576.txt	LTP285	ltpFR2	1	16	PADDLE	1000	n/a	n/a	0	0	0
3728.128	n/a	WORD	1864064	wordpools/wasnorm_wordpool_576.txt	LTP285	ltpFR2	1	16	FUNGUS	614	n/a	n/a	0	0	0
3730.808	n/a	WORD	1865404	wordpools/wasnorm_wordpool_576.txt	LTP285	ltpFR2	1	16	SERVER	1272	n/a	n/a	0	0	0
3733.354	n/a	WORD	1866677	wordpools/wasnorm_wordpool_576.txt	LTP285	ltpFR2	1	16	HOSTESS	723	n/a	n/a	0	0	0
3736.018	n/a	WORD	1868009	wordpools/wasnorm_wordpool_576.txt	LTP285	ltpFR2	1	16	POISON	1096	n/a	n/a	0	0	0
3738.746	n/a	WORD	1869373	wordpools/wasnorm_wordpool_576.txt	LTP285	ltpFR2	1	16	PIMPLE	1071	n/a	n/a	0	0	0
3741.224	n/a	WORD	1870612	wordpools/wasnorm_wordpool_576.txt	LTP285	ltpFR2	1	16	KLEENEX	782	n/a	n/a	0	0	0
3744.006	n/a	WORD	1872003	wordpools/wasnorm_wordpool_576.txt	LTP285	ltpFR2	1	16	MONSTER	912	n/a	n/a	0	0	0
3746.718	n/a	WORD	1873359	wordpools/wasnorm_wordpool_576.txt	LTP285	ltpFR2	1	16	DANDRUFF	439	n/a	n/a	0	0	0
3749.496	n/a	WORD	1874748	wordpools/wasnorm_wordpool_576.txt	LTP285	ltpFR2	1	16	CRITIC	410	n/a	n/a	0	0	0
3752.158	n/a	WORD	1876079	wordpools/wasnorm_wordpool_576.txt	LTP285	ltpFR2	1	16	FRIEND	606	n/a	n/a	0	0	0
3754.822	n/a	WORD	1877411	wordpools/wasnorm_wordpool_576.txt	LTP285	ltpFR2	1	16	BROTHER	179	n/a	n/a	0	0	0
3757.518	n/a	WORD	1878759	wordpools/wasnorm_wordpool_576.txt	LTP285	ltpFR2	1	16	SCALPEL	1243	n/a	n/a	0	0	0
3760.314	n/a	WORD	1880157	wordpools/wasnorm_wordpool_576.txt	LTP285	ltpFR2	1	16	GOBLIN	645	n/a	n/a	0	0	0
3762.81	n/a	WORD	1881405	wordpools/wasnorm_wordpool_576.txt	LTP285	ltpFR2	1	16	PUDDING	1139	n/a	n/a	0	0	0
3765.24	n/a	WORD	1882620	wordpools/wasnorm_wordpool_576.txt	LTP285	ltpFR2	1	16	HANDBAG	684	n/a	n/a	0	0	0
3768.002	n/a	WORD	1884001	wordpools/wasnorm_wordpool_576.txt	LTP285	ltpFR2	1	16	POCKET	1093	n/a	n/a	0	0	0
3770.532	n/a	WORD	1885266	wordpools/wasnorm_wordpool_576.txt	LTP285	ltpFR2	1	16	LAGOON	795	n/a	n/a	0	0	0
3773.278	n/a	WORD	1886639	wordpools/wasnorm_wordpool_576.txt	LTP285	ltpFR2	1	16	RADISH	1158	n/a	n/a	0	0	0
3775.924	n/a	WORD	1887962	wordpools/wasnorm_wordpool_576.txt	LTP285	ltpFR2	1	16	COD	340	n/a	n/a	0	0	0
3777.538	n/a	START	1888769	n/a	LTP285	ltpFR2	1	n/a	n/a	n/a	23	n/a	n/a	n/a	n/a
3778.686	n/a	DISTRACTOR	1889343	n/a	LTP285	ltpFR2	1	16	n/a	n/a	n/a	n/a	0	0	0
3778.688	n/a	PROB	1889344	n/a	LTP285	ltpFR2	1	n/a	n/a	n/a	23	15	8	6	1
3780.052	n/a	PROB	1890026	n/a	LTP285	ltpFR2	1	n/a	n/a	n/a	23	18	9	1	8
3781.216	n/a	PROB	1890608	n/a	LTP285	ltpFR2	1	n/a	n/a	n/a	23	18	6	6	6
3782.282	n/a	PROB	1891141	n/a	LTP285	ltpFR2	1	n/a	n/a	n/a	23	10	1	2	7
3783.43	n/a	PROB	1891715	n/a	LTP285	ltpFR2	1	n/a	n/a	n/a	23	19	3	7	9
3784.512	n/a	PROB	1892256	n/a	LTP285	ltpFR2	1	n/a	n/a	n/a	23	21	9	5	9
3786.626	n/a	PROB	1893313	n/a	LTP285	ltpFR2	1	n/a	n/a	n/a	23	9	3	5	1
3787.908	n/a	PROB	1893954	n/a	LTP285	ltpFR2	1	n/a	n/a	n/a	23	14	3	8	3
3789.338	n/a	PROB	1894669	n/a	LTP285	ltpFR2	1	n/a	n/a	n/a	23	6	2	3	1
3790.704	n/a	PROB	1895352	n/a	LTP285	ltpFR2	1	n/a	n/a	n/a	23	15	5	7	3
3792.002	n/a	PROB	1896001	n/a	LTP285	ltpFR2	1	n/a	n/a	n/a	23	14	7	3	4
3793.464	n/a	PROB	1896732	n/a	LTP285	ltpFR2	1	n/a	n/a	n/a	23	14	3	3	8
3794.73	n/a	PROB	1897365	n/a	LTP285	ltpFR2	1	n/a	n/a	n/a	23	11	2	5	4
3796.444	n/a	PROB	1898222	n/a	LTP285	ltpFR2	1	n/a	n/a	n/a	23	19	8	4	7
3798.074	n/a	PROB	1899037	n/a	LTP285	ltpFR2	1	n/a	n/a	n/a	23	13	1	3	9
3801.538	n/a	STOP	1900769	n/a	LTP285	ltpFR2	1	n/a	n/a	n/a	23	n/a	n/a	n/a	n/a
3803.484	n/a	REC_START	1901742	n/a	LTP285	ltpFR2	1	16	n/a	n/a	n/a	n/a	0	0	0
3804.562	n/a	REC_WORD	1902281	wordpools/wasnorm_wordpool_576.txt	LTP285	ltpFR2	1	16	SCALPEL	1243	n/a	n/a	0	0	0
3805.808	n/a	REC_WORD	1902904	wordpools/wasnorm_wordpool_576.txt	LTP285	ltpFR2	1	16	POISON	1096	n/a	n/a	0	0	0
3806.992	n/a	REC_WORD	1903496	wordpools/wasnorm_wordpool_576.txt	LTP285	ltpFR2	1	16	PUDDING	1139	n/a	n/a	0	0	0
3808.154	n/a	REC_WORD	1904077	wordpools/wasnorm_wordpool_576.txt	LTP285	ltpFR2	1	16	SERVER	1272	n/a	n/a	0	0	0
3809.532	n/a	REC_WORD	1904766	wordpools/wasnorm_wordpool_576.txt	LTP285	ltpFR2	1	16	HOSTESS	723	n/a	n/a	0	0	0
3811.174	n/a	REC_WORD	1905587	wordpools/wasnorm_wordpool_576.txt	LTP285	ltpFR2	1	16	COD	340	n/a	n/a	0	0	0
3812.65	n/a	REC_WORD	1906325	wordpools/wasnorm_wordpool_576.txt	LTP285	ltpFR2	1	16	LAGOON	795	n/a	n/a	0	0	0
3838.628	n/a	REC_WORD	1919314	wordpools/wasnorm_wordpool_576.txt	LTP285	ltpFR2	1	16	KLEENEX	782	n/a	n/a	0	0	0
3854.036	n/a	REC_WORD	1927018	wordpools/wasnorm_wordpool_576.txt	LTP285	ltpFR2	1	16	BROTHER	179	n/a	n/a	0	0	0
3859.944	n/a	REC_WORD	1929972	wordpools/wasnorm_wordpool_576.txt	LTP285	ltpFR2	1	16	SIBLING	1301	n/a	n/a	0	0	0
3870.178	n/a	REC_WORD	1935089	wordpools/wasnorm_wordpool_576.txt	LTP285	ltpFR2	1	16	HORSE	719	n/a	n/a	0	0	0
3871.444	n/a	REC_WORD	1935722	wordpools/wasnorm_wordpool_576.txt	LTP285	ltpFR2	1	16	DUST	508	n/a	n/a	0	0	0
3880.086	n/a	REST_REWET	1940043	n/a	LTP285	ltpFR2	1	16	n/a	n/a	n/a	n/a	0	0	0
4293.358	n/a	DISTRACTOR	2146679	n/a	LTP285	ltpFR2	1	17	n/a	n/a	n/a	n/a	0	0	0
4293.358	n/a	START	2146679	n/a	LTP285	ltpFR2	1	n/a	n/a	n/a	24	n/a	n/a	n/a	n/a
4293.39	n/a	PROB	2146695	n/a	LTP285	ltpFR2	1	n/a	n/a	n/a	24	18	6	8	4
4296.136	n/a	PROB	2148068	n/a	LTP285	ltpFR2	1	n/a	n/a	n/a	24	19	7	3	9
4297.802	n/a	PROB	2148901	n/a	LTP285	ltpFR2	1	n/a	n/a	n/a	24	18	2	7	9
4300.148	n/a	PROB	2150074	n/a	LTP285	ltpFR2	1	n/a	n/a	n/a	24	18	8	8	3
4304.358	n/a	PROB	2152179	n/a	LTP285	ltpFR2	1	n/a	n/a	n/a	24	24	8	9	9
4306.706	n/a	PROB	2153353	n/a	LTP285	ltpFR2	1	n/a	n/a	n/a	24	13	2	6	5
4308.57	n/a	PROB	2154285	n/a	LTP285	ltpFR2	1	n/a	n/a	n/a	24	23	5	9	9
4310.516	n/a	PROB	2155258	n/a	LTP285	ltpFR2	1	n/a	n/a	n/a	24	10	6	2	2
4312.78	n/a	PROB	2156390	n/a	LTP285	ltpFR2	1	n/a	n/a	n/a	24	7	2	2	3
4314.712	n/a	PROB	2157356	n/a	LTP285	ltpFR2	1	n/a	n/a	n/a	24	13	3	8	2
4316.112	n/a	STOP	2158056	n/a	LTP285	ltpFR2	1	n/a	n/a	n/a	24	n/a	n/a	n/a	n/a
4318.304	n/a	WORD	2159152	wordpools/wasnorm_wordpool_576.txt	LTP285	ltpFR2	1	17	LAMP	798	n/a	n/a	0	0	0
4320.952	n/a	WORD	2160476	wordpools/wasnorm_wordpool_576.txt	LTP285	ltpFR2	1	17	BACON	67	n/a	n/a	0	0	0
4323.58	n/a	WORD	2161790	wordpools/wasnorm_wordpool_576.txt	LTP285	ltpFR2	1	17	WAITER	1580	n/a	n/a	0	0	0
4326.26	n/a	WORD	2163130	wordpools/wasnorm_wordpool_576.txt	LTP285	ltpFR2	1	17	BUTCHER	203	n/a	n/a	0	0	0
4328.806	n/a	WORD	2164403	wordpools/wasnorm_wordpool_576.txt	LTP285	ltpFR2	1	17	DRESS	495	n/a	n/a	0	0	0
4331.452	n/a	WORD	2165726	wordpools/wasnorm_wordpool_576.txt	LTP285	ltpFR2	1	17	COCKTAIL	338	n/a	n/a	0	0	0
4334.23	n/a	WORD	2167115	wordpools/wasnorm_wordpool_576.txt	LTP285	ltpFR2	1	17	WITNESS	1618	n/a	n/a	0	0	0
4336.694	n/a	WORD	2168347	wordpools/wasnorm_wordpool_576.txt	LTP285	ltpFR2	1	17	KNIFE	785	n/a	n/a	0	0	0
4339.174	n/a	WORD	2169587	wordpools/wasnorm_wordpool_576.txt	LTP285	ltpFR2	1	17	PAIL	1002	n/a	n/a	0	0	0
4341.638	n/a	WORD	2170819	wordpools/wasnorm_wordpool_576.txt	LTP285	ltpFR2	1	17	CRIB	407	n/a	n/a	0	0	0
4344.15	n/a	WORD	2172075	wordpools/wasnorm_wordpool_576.txt	LTP285	ltpFR2	1	17	PRINCESS	1125	n/a	n/a	0	0	0
4346.846	n/a	WORD	2173423	wordpools/wasnorm_wordpool_576.txt	LTP285	ltpFR2	1	17	WHISTLE	1606	n/a	n/a	0	0	0
4349.558	n/a	WORD	2174779	wordpools/wasnorm_wordpool_576.txt	LTP285	ltpFR2	1	17	SUBWAY	1400	n/a	n/a	0	0	0
4351.988	n/a	WORD	2175994	wordpools/wasnorm_wordpool_576.txt	LTP285	ltpFR2	1	17	HOOK	715	n/a	n/a	0	0	0
4354.768	n/a	WORD	2177384	wordpools/wasnorm_wordpool_576.txt	LTP285	ltpFR2	1	17	SCALLOP	1242	n/a	n/a	0	0	0
4357.38	n/a	WORD	2178690	wordpools/wasnorm_wordpool_576.txt	LTP285	ltpFR2	1	17	MARSH	874	n/a	n/a	0	0	0
4359.828	n/a	WORD	2179914	wordpools/wasnorm_wordpool_576.txt	LTP285	ltpFR2	1	17	SPONGE	1355	n/a	n/a	0	0	0
4362.622	n/a	WORD	2181311	wordpools/wasnorm_wordpool_576.txt	LTP285	ltpFR2	1	17	PERMIT	1051	n/a	n/a	0	0	0
4365.068	n/a	WORD	2182534	wordpools/wasnorm_wordpool_576.txt	LTP285	ltpFR2	1	17	BLENDER	136	n/a	n/a	0	0	0
4367.582	n/a	WORD	2183791	wordpools/wasnorm_wordpool_576.txt	LTP285	ltpFR2	1	17	SNACK	1331	n/a	n/a	0	0	0
4370.128	n/a	WORD	2185064	wordpools/wasnorm_wordpool_576.txt	LTP285	ltpFR2	1	17	BANQUET	86	n/a	n/a	0	0	0
4372.59	n/a	WORD	2186295	wordpools/wasnorm_wordpool_576.txt	LTP285	ltpFR2	1	17	TRUCK	1512	n/a	n/a	0	0	0
4375.054	n/a	WORD	2187527	wordpools/wasnorm_wordpool_576.txt	LTP285	ltpFR2	1	17	SHRUB	1299	n/a	n/a	0	0	0
4377.766	n/a	WORD	2188883	wordpools/wasnorm_wordpool_576.txt	LTP285	ltpFR2	1	17	SIDEWALK	1303	n/a	n/a	0	0	0
4379.38	n/a	START	2189690	n/a	LTP285	ltpFR2	1	n/a	n/a	n/a	25	n/a	n/a	n/a	n/a
4380.346	n/a	DISTRACTOR	2190173	n/a	LTP285	ltpFR2	1	17	n/a	n/a	n/a	n/a	0	0	0
4380.346	n/a	PROB	2190173	n/a	LTP285	ltpFR2	1	n/a	n/a	n/a	25	13	6	4	3
4381.796	n/a	PROB	2190898	n/a	LTP285	ltpFR2	1	n/a	n/a	n/a	25	16	7	8	1
4383.208	n/a	PROB	2191604	n/a	LTP285	ltpFR2	1	n/a	n/a	n/a	25	17	9	5	3
4384.974	n/a	PROB	2192487	n/a	LTP285	ltpFR2	1	n/a	n/a	n/a	25	16	3	4	9
4386.538	n/a	PROB	2193269	n/a	LTP285	ltpFR2	1	n/a	n/a	n/a	25	21	6	6	9
4388.184	n/a	PROB	2194092	n/a	LTP285	ltpFR2	1	n/a	n/a	n/a	25	14	5	7	2
4389.716	n/a	PROB	2194858	n/a	LTP285	ltpFR2	1	n/a	n/a	n/a	25	11	1	8	2
4390.832	n/a	PROB	2195416	n/a	LTP285	ltpFR2	1	n/a	n/a	n/a	25	15	6	7	2
4393.878	n/a	PROB	2196939	n/a	LTP285	ltpFR2	1	n/a	n/a	n/a	25	13	7	5	1
4395.508	n/a	PROB	2197754	n/a	LTP285	ltpFR2	1	n/a	n/a	n/a	25	14	4	1	9
4397.204	n/a	PROB	2198602	n/a	LTP285	ltpFR2	1	n/a	n/a	n/a	25	21	8	4	9
4398.904	n/a	PROB	2199452	n/a	LTP285	ltpFR2	1	n/a	n/a	n/a	25	16	1	8	7
4400.184	n/a	PROB	2200092	n/a	LTP285	ltpFR2	1	n/a	n/a	n/a	25	14	5	7	2
4401.914	n/a	STOP	2200957	n/a	LTP285	ltpFR2	1	n/a	n/a	n/a	25	n/a	n/a	n/a	n/a
4405.16	n/a	REC_START	2202580	n/a	LTP285	ltpFR2	1	17	n/a	n/a	n/a	n/a	0	0	0
4405.884	n/a	REC_WORD	2202942	wordpools/wasnorm_wordpool_576.txt	LTP285	ltpFR2	1	17	SHRUB	1299	n/a	n/a	0	0	0
4406.892	n/a	REC_WORD	2203446	wordpools/wasnorm_wordpool_576.txt	LTP285	ltpFR2	1	17	SIDEWALK	1303	n/a	n/a	0	0	0
4417.832	n/a	REC_WORD	2208916	wordpools/wasnorm_wordpool_576.txt	LTP285	ltpFR2	1	17	BANQUET	86	n/a	n/a	0	0	0
4418.896	n/a	REC_WORD	2209448	wordpools/wasnorm_wordpool_576.txt	LTP285	ltpFR2	1	17	SNACK	1331	n/a	n/a	0	0	0
4427.356	n/a	REC_WORD	2213678	wordpools/wasnorm_wordpool_576.txt	LTP285	ltpFR2	1	17	TRUCK	1512	n/a	n/a	0	0	0
4433.492	n/a	REC_WORD	2216746	wordpools/wasnorm_wordpool_576.txt	LTP285	ltpFR2	1	17	MARSH	874	n/a	n/a	0	0	0
4440.51	n/a	REC_WORD	2220255	wordpools/wasnorm_wordpool_576.txt	LTP285	ltpFR2	1	17	SCALLOP	1242	n/a	n/a	0	0	0
4444.474	n/a	REC_WORD	2222237	wordpools/wasnorm_wordpool_576.txt	LTP285	ltpFR2	1	17	KNIFE	785	n/a	n/a	0	0	0
4446.686	n/a	REC_WORD	2223343	wordpools/wasnorm_wordpool_576.txt	LTP285	ltpFR2	1	17	WAITER	1580	n/a	n/a	0	0	0
4454.31	n/a	REC_WORD	2227155	wordpools/wasnorm_wordpool_576.txt	LTP285	ltpFR2	1	17	CRIB	407	n/a	n/a	0	0	0
4495.826	n/a	DISTRACTOR	2247913	n/a	LTP285	ltpFR2	1	18	n/a	n/a	n/a	n/a	0	0	0
4495.826	n/a	START	2247913	n/a	LTP285	ltpFR2	1	n/a	n/a	n/a	26	n/a	n/a	n/a	n/a
4495.86	n/a	PROB	2247930	n/a	LTP285	ltpFR2	1	n/a	n/a	n/a	26	12	4	6	2
4497.056	n/a	PROB	2248528	n/a	LTP285	ltpFR2	1	n/a	n/a	n/a	26	19	6	7	6
4498.422	n/a	PROB	2249211	n/a	LTP285	ltpFR2	1	n/a	n/a	n/a	26	11	2	4	5
4500.468	n/a	PROB	2250234	n/a	LTP285	ltpFR2	1	n/a	n/a	n/a	26	18	3	8	6
4502.05	n/a	PROB	2251025	n/a	LTP285	ltpFR2	1	n/a	n/a	n/a	26	4	2	1	1
4503.164	n/a	PROB	2251582	n/a	LTP285	ltpFR2	1	n/a	n/a	n/a	26	6	1	3	2
4504.528	n/a	PROB	2252264	n/a	LTP285	ltpFR2	1	n/a	n/a	n/a	26	20	7	4	9
4506.342	n/a	PROB	2253171	n/a	LTP285	ltpFR2	1	n/a	n/a	n/a	26	17	7	3	7
4507.458	n/a	PROB	2253729	n/a	LTP285	ltpFR2	1	n/a	n/a	n/a	26	13	1	4	8
4509.672	n/a	PROB	2254836	n/a	LTP285	ltpFR2	1	n/a	n/a	n/a	26	19	2	8	9
4510.72	n/a	PROB	2255360	n/a	LTP285	ltpFR2	1	n/a	n/a	n/a	26	19	9	1	9
4513.348	n/a	PROB	2256674	n/a	LTP285	ltpFR2	1	n/a	n/a	n/a	26	10	3	5	2
4515.014	n/a	PROB	2257507	n/a	LTP285	ltpFR2	1	n/a	n/a	n/a	26	19	6	4	9
4516.444	n/a	PROB	2258222	n/a	LTP285	ltpFR2	1	n/a	n/a	n/a	26	20	9	6	5
4518.418	n/a	STOP	2259209	n/a	LTP285	ltpFR2	1	n/a	n/a	n/a	26	n/a	n/a	n/a	n/a
4520.938	n/a	WORD	2260469	wordpools/wasnorm_wordpool_576.txt	LTP285	ltpFR2	1	18	CARROT	249	n/a	n/a	0	0	0
4523.584	n/a	WORD	2261792	wordpools/wasnorm_wordpool_576.txt	LTP285	ltpFR2	1	18	COLONEL	348	n/a	n/a	0	0	0
4526.03	n/a	WORD	2263015	wordpools/wasnorm_wordpool_576.txt	LTP285	ltpFR2	1	18	JEANS	752	n/a	n/a	0	0	0
4528.61	n/a	WORD	2264305	wordpools/wasnorm_wordpool_576.txt	LTP285	ltpFR2	1	18	TWIG	1527	n/a	n/a	0	0	0
4531.19	n/a	WORD	2265595	wordpools/wasnorm_wordpool_576.txt	LTP285	ltpFR2	1	18	FOOTBALL	591	n/a	n/a	0	0	0
4533.638	n/a	WORD	2266819	wordpools/wasnorm_wordpool_576.txt	LTP285	ltpFR2	1	18	SKILLET	1317	n/a	n/a	0	0	0
4536.266	n/a	WORD	2268133	wordpools/wasnorm_wordpool_576.txt	LTP285	ltpFR2	1	18	NOVEL	960	n/a	n/a	0	0	0
4538.83	n/a	WORD	2269415	wordpools/wasnorm_wordpool_576.txt	LTP285	ltpFR2	1	18	BINDER	127	n/a	n/a	0	0	0
4541.558	n/a	WORD	2270779	wordpools/wasnorm_wordpool_576.txt	LTP285	ltpFR2	1	18	ITEM	746	n/a	n/a	0	0	0
4544.12	n/a	WORD	2272060	wordpools/wasnorm_wordpool_576.txt	LTP285	ltpFR2	1	18	BRAKE	166	n/a	n/a	0	0	0
4546.55	n/a	WORD	2273275	wordpools/wasnorm_wordpool_576.txt	LTP285	ltpFR2	1	18	DIVER	476	n/a	n/a	0	0	0
4549.246	n/a	WORD	2274623	wordpools/wasnorm_wordpool_576.txt	LTP285	ltpFR2	1	18	GALLON	618	n/a	n/a	0	0	0
4551.944	n/a	WORD	2275972	wordpools/wasnorm_wordpool_576.txt	LTP285	ltpFR2	1	18	CANYON	235	n/a	n/a	0	0	0
4554.388	n/a	WORD	2277194	wordpools/wasnorm_wordpool_576.txt	LTP285	ltpFR2	1	18	DAISY	435	n/a	n/a	0	0	0
4557.134	n/a	WORD	2278567	wordpools/wasnorm_wordpool_576.txt	LTP285	ltpFR2	1	18	CAPTIVE	240	n/a	n/a	0	0	0
4559.598	n/a	WORD	2279799	wordpools/wasnorm_wordpool_576.txt	LTP285	ltpFR2	1	18	YOLK	1633	n/a	n/a	0	0	0
4562.226	n/a	WORD	2281113	wordpools/wasnorm_wordpool_576.txt	LTP285	ltpFR2	1	18	HEADBAND	696	n/a	n/a	0	0	0
4564.79	n/a	WORD	2282395	wordpools/wasnorm_wordpool_576.txt	LTP285	ltpFR2	1	18	PERFUME	1049	n/a	n/a	0	0	0
4567.502	n/a	WORD	2283751	wordpools/wasnorm_wordpool_576.txt	LTP285	ltpFR2	1	18	POSSUM	1112	n/a	n/a	0	0	0
4570.0	n/a	WORD	2285000	wordpools/wasnorm_wordpool_576.txt	LTP285	ltpFR2	1	18	MAPLE	866	n/a	n/a	0	0	0
4572.728	n/a	WORD	2286364	wordpools/wasnorm_wordpool_576.txt	LTP285	ltpFR2	1	18	TEACHER	1440	n/a	n/a	0	0	0
4575.224	n/a	WORD	2287612	wordpools/wasnorm_wordpool_576.txt	LTP285	ltpFR2	1	18	COLLEGE	346	n/a	n/a	0	0	0
4577.672	n/a	WORD	2288836	wordpools/wasnorm_wordpool_576.txt	LTP285	ltpFR2	1	18	FOX	598	n/a	n/a	0	0	0
4580.25	n/a	WORD	2290125	wordpools/wasnorm_wordpool_576.txt	LTP285	ltpFR2	1	18	CRUTCH	417	n/a	n/a	0	0	0
4581.866	n/a	START	2290933	n/a	LTP285	ltpFR2	1	n/a	n/a	n/a	27	n/a	n/a	n/a	n/a
