onset	duration	trial_type	sample	stim_file	subject	experiment	session	trial	task	item_name	item_num	recog_conf	resp	answer	test_x	test_y	test_z	color_b	color_g	color_r	case	font
235.108	n/a	SESS_START	117554	n/a	LTP131	ltpFR	10	n/a	n/a	n/a	n/a	5	n/a	n/a	0	0	0	n/a	n/a	n/a	n/a	n/a
265.916	n/a	START	132958	n/a	LTP131	ltpFR	10	n/a	n/a	n/a	n/a	n/a	n/a	n/a	n/a	n/a	n/a	n/a	n/a	n/a	n/a	n/a
265.942	n/a	PROB	132971	n/a	LTP131	ltpFR	10	n/a	n/a	n/a	n/a	n/a	n/a	17	6	4	7	n/a	n/a	n/a	n/a	n/a
267.508	n/a	PROB	133754	n/a	LTP131	ltpFR	10	n/a	n/a	n/a	n/a	n/a	n/a	10	1	7	2	n/a	n/a	n/a	n/a	n/a
269.116	n/a	PROB	134558	n/a	LTP131	ltpFR	10	n/a	n/a	n/a	n/a	n/a	n/a	13	2	7	4	n/a	n/a	n/a	n/a	n/a
271.34	n/a	PROB	135670	n/a	LTP131	ltpFR	10	n/a	n/a	n/a	n/a	n/a	n/a	11	4	2	5	n/a	n/a	n/a	n/a	n/a
272.766	n/a	PROB	136383	n/a	LTP131	ltpFR	10	n/a	n/a	n/a	n/a	n/a	n/a	13	2	6	5	n/a	n/a	n/a	n/a	n/a
274.406	n/a	PROB	137203	n/a	LTP131	ltpFR	10	n/a	n/a	n/a	n/a	n/a	n/a	8	3	2	3	n/a	n/a	n/a	n/a	n/a
275.814	n/a	PROB	137907	n/a	LTP131	ltpFR	10	n/a	n/a	n/a	n/a	n/a	n/a	10	2	4	4	n/a	n/a	n/a	n/a	n/a
277.03	n/a	PROB	138515	n/a	LTP131	ltpFR	10	n/a	n/a	n/a	n/a	n/a	n/a	24	7	8	9	n/a	n/a	n/a	n/a	n/a
278.756	n/a	PROB	139378	n/a	LTP131	ltpFR	10	n/a	n/a	n/a	n/a	n/a	n/a	10	4	4	2	n/a	n/a	n/a	n/a	n/a
280.138	n/a	PROB	140069	n/a	LTP131	ltpFR	10	n/a	n/a	n/a	n/a	n/a	n/a	5	1	2	2	n/a	n/a	n/a	n/a	n/a
281.628	n/a	PROB	140814	n/a	LTP131	ltpFR	10	n/a	n/a	n/a	n/a	n/a	n/a	11	6	3	2	n/a	n/a	n/a	n/a	n/a
283.12	n/a	PROB	141560	n/a	LTP131	ltpFR	10	n/a	n/a	n/a	n/a	n/a	n/a	9	5	2	2	n/a	n/a	n/a	n/a	n/a
285.228	n/a	STOP	142614	n/a	LTP131	ltpFR	10	n/a	n/a	n/a	n/a	n/a	n/a	n/a	n/a	n/a	n/a	n/a	n/a	n/a	n/a	n/a
313.212	n/a	START	156606	n/a	LTP131	ltpFR	10	n/a	n/a	n/a	n/a	n/a	n/a	n/a	n/a	n/a	n/a	n/a	n/a	n/a	n/a	n/a
314.718	n/a	PROB	157359	n/a	LTP131	ltpFR	10	n/a	n/a	n/a	n/a	n/a	n/a	21	3	9	9	n/a	n/a	n/a	n/a	n/a
317.018	n/a	PROB	158509	n/a	LTP131	ltpFR	10	n/a	n/a	n/a	n/a	n/a	n/a	23	8	6	9	n/a	n/a	n/a	n/a	n/a
319.76	n/a	STOP	159880	n/a	LTP131	ltpFR	10	n/a	n/a	n/a	n/a	n/a	n/a	n/a	n/a	n/a	n/a	n/a	n/a	n/a	n/a	n/a
322.348	n/a	WORD	161174	wordpools/wasnorm_wordpool.txt	LTP131	ltpFR	10	1	0	MANAGER	863	n/a	1	n/a	0	0	0	1	0.412841796875	0.57763671875	lower	../fonts/amplitud.ttf
325.356	n/a	START	162678	n/a	LTP131	ltpFR	10	n/a	n/a	n/a	n/a	n/a	n/a	n/a	n/a	n/a	n/a	n/a	n/a	n/a	n/a	n/a
326.266	n/a	PROB	163133	n/a	LTP131	ltpFR	10	n/a	n/a	n/a	n/a	n/a	n/a	11	7	3	1	n/a	n/a	n/a	n/a	n/a
327.348	n/a	PROB	163674	n/a	LTP131	ltpFR	10	n/a	n/a	n/a	n/a	n/a	n/a	19	5	8	6	n/a	n/a	n/a	n/a	n/a
329.09	n/a	PROB	164545	n/a	LTP131	ltpFR	10	n/a	n/a	n/a	n/a	n/a	n/a	26	9	9	8	n/a	n/a	n/a	n/a	n/a
331.014	n/a	PROB	165507	n/a	LTP131	ltpFR	10	n/a	n/a	n/a	n/a	n/a	n/a	15	7	7	1	n/a	n/a	n/a	n/a	n/a
332.44	n/a	STOP	166220	n/a	LTP131	ltpFR	10	n/a	n/a	n/a	n/a	n/a	n/a	n/a	n/a	n/a	n/a	n/a	n/a	n/a	n/a	n/a
334.312	n/a	WORD	167156	wordpools/wasnorm_wordpool.txt	LTP131	ltpFR	10	1	0	CASHEW	253	n/a	0	n/a	0	0	0	1	0.412841796875	0.57763671875	lower	../fonts/amplitud.ttf
337.32	n/a	START	168660	n/a	LTP131	ltpFR	10	n/a	n/a	n/a	n/a	n/a	n/a	n/a	n/a	n/a	n/a	n/a	n/a	n/a	n/a	n/a
338.302	n/a	PROB	169151	n/a	LTP131	ltpFR	10	n/a	n/a	n/a	n/a	n/a	n/a	13	3	6	4	n/a	n/a	n/a	n/a	n/a
339.61	n/a	PROB	169805	n/a	LTP131	ltpFR	10	n/a	n/a	n/a	n/a	n/a	n/a	10	4	1	5	n/a	n/a	n/a	n/a	n/a
341.694	n/a	PROB	170847	n/a	LTP131	ltpFR	10	n/a	n/a	n/a	n/a	n/a	n/a	16	3	6	7	n/a	n/a	n/a	n/a	n/a
344.144	n/a	STOP	172072	n/a	LTP131	ltpFR	10	n/a	n/a	n/a	n/a	n/a	n/a	n/a	n/a	n/a	n/a	n/a	n/a	n/a	n/a	n/a
346.35	n/a	WORD	173175	wordpools/wasnorm_wordpool.txt	LTP131	ltpFR	10	1	0	DASHBOARD	441	n/a	1	n/a	0	0	0	1	0.412841796875	0.57763671875	lower	../fonts/amplitud.ttf
349.358	n/a	START	174679	n/a	LTP131	ltpFR	10	n/a	n/a	n/a	n/a	n/a	n/a	n/a	n/a	n/a	n/a	n/a	n/a	n/a	n/a	n/a
350.208	n/a	PROB	175104	n/a	LTP131	ltpFR	10	n/a	n/a	n/a	n/a	n/a	n/a	10	4	4	2	n/a	n/a	n/a	n/a	n/a
351.274	n/a	PROB	175637	n/a	LTP131	ltpFR	10	n/a	n/a	n/a	n/a	n/a	n/a	15	3	3	9	n/a	n/a	n/a	n/a	n/a
352.674	n/a	PROB	176337	n/a	LTP131	ltpFR	10	n/a	n/a	n/a	n/a	n/a	n/a	16	7	4	5	n/a	n/a	n/a	n/a	n/a
354.406	n/a	PROB	177203	n/a	LTP131	ltpFR	10	n/a	n/a	n/a	n/a	n/a	n/a	20	6	5	9	n/a	n/a	n/a	n/a	n/a
356.184	n/a	STOP	178092	n/a	LTP131	ltpFR	10	n/a	n/a	n/a	n/a	n/a	n/a	n/a	n/a	n/a	n/a	n/a	n/a	n/a	n/a	n/a
358.504	n/a	WORD	179252	wordpools/wasnorm_wordpool.txt	LTP131	ltpFR	10	1	1	PUCK	1138	n/a	0	n/a	0	0	0	0	0.5869140625	0.422607421875	upper	../fonts/zerothre.ttf
361.512	n/a	START	180756	n/a	LTP131	ltpFR	10	n/a	n/a	n/a	n/a	n/a	n/a	n/a	n/a	n/a	n/a	n/a	n/a	n/a	n/a	n/a
362.354	n/a	PROB	181177	n/a	LTP131	ltpFR	10	n/a	n/a	n/a	n/a	n/a	n/a	10	1	2	7	n/a	n/a	n/a	n/a	n/a
363.604	n/a	PROB	181802	n/a	LTP131	ltpFR	10	n/a	n/a	n/a	n/a	n/a	n/a	20	4	4	8	n/a	n/a	n/a	n/a	n/a
365.146	n/a	PROB	182573	n/a	LTP131	ltpFR	10	n/a	n/a	n/a	n/a	n/a	n/a	18	6	4	8	n/a	n/a	n/a	n/a	n/a
369.514	n/a	STOP	184757	n/a	LTP131	ltpFR	10	n/a	n/a	n/a	n/a	n/a	n/a	n/a	n/a	n/a	n/a	n/a	n/a	n/a	n/a	n/a
370.718	n/a	WORD	185359	wordpools/wasnorm_wordpool.txt	LTP131	ltpFR	10	1	1	SCRIBBLE	1256	n/a	0	n/a	0	0	0	0	0.5869140625	0.422607421875	upper	../fonts/zerothre.ttf
373.726	n/a	START	186863	n/a	LTP131	ltpFR	10	n/a	n/a	n/a	n/a	n/a	n/a	n/a	n/a	n/a	n/a	n/a	n/a	n/a	n/a	n/a
374.916	n/a	PROB	187458	n/a	LTP131	ltpFR	10	n/a	n/a	n/a	n/a	n/a	n/a	14	2	4	8	n/a	n/a	n/a	n/a	n/a
376.64	n/a	PROB	188320	n/a	LTP131	ltpFR	10	n/a	n/a	n/a	n/a	n/a	n/a	14	2	8	4	n/a	n/a	n/a	n/a	n/a
378.116	n/a	PROB	189058	n/a	LTP131	ltpFR	10	n/a	n/a	n/a	n/a	n/a	n/a	18	6	5	7	n/a	n/a	n/a	n/a	n/a
380.234	n/a	STOP	190117	n/a	LTP131	ltpFR	10	n/a	n/a	n/a	n/a	n/a	n/a	n/a	n/a	n/a	n/a	n/a	n/a	n/a	n/a	n/a
382.74	n/a	WORD	191370	wordpools/wasnorm_wordpool.txt	LTP131	ltpFR	10	1	1	SHRINE	1298	n/a	0	n/a	0	0	0	0	0.5869140625	0.422607421875	upper	../fonts/zerothre.ttf
385.748	n/a	START	192874	n/a	LTP131	ltpFR	10	n/a	n/a	n/a	n/a	n/a	n/a	n/a	n/a	n/a	n/a	n/a	n/a	n/a	n/a	n/a
386.714	n/a	PROB	193357	n/a	LTP131	ltpFR	10	n/a	n/a	n/a	n/a	n/a	n/a	10	6	2	2	n/a	n/a	n/a	n/a	n/a
388.738	n/a	PROB	194369	n/a	LTP131	ltpFR	10	n/a	n/a	n/a	n/a	n/a	n/a	14	6	3	5	n/a	n/a	n/a	n/a	n/a
390.446	n/a	PROB	195223	n/a	LTP131	ltpFR	10	n/a	n/a	n/a	n/a	n/a	n/a	9	2	2	5	n/a	n/a	n/a	n/a	n/a
393.266	n/a	STOP	196633	n/a	LTP131	ltpFR	10	n/a	n/a	n/a	n/a	n/a	n/a	n/a	n/a	n/a	n/a	n/a	n/a	n/a	n/a	n/a
394.818	n/a	WORD	197409	wordpools/wasnorm_wordpool.txt	LTP131	ltpFR	10	1	0	CROSS	413	n/a	1	n/a	0	0	0	1	0.412841796875	0.57763671875	lower	../fonts/amplitud.ttf
397.826	n/a	START	198913	n/a	LTP131	ltpFR	10	n/a	n/a	n/a	n/a	n/a	n/a	n/a	n/a	n/a	n/a	n/a	n/a	n/a	n/a	n/a
398.692	n/a	PROB	199346	n/a	LTP131	ltpFR	10	n/a	n/a	n/a	n/a	n/a	n/a	23	8	8	7	n/a	n/a	n/a	n/a	n/a
400.95	n/a	PROB	200475	n/a	LTP131	ltpFR	10	n/a	n/a	n/a	n/a	n/a	n/a	21	8	7	6	n/a	n/a	n/a	n/a	n/a
402.7	n/a	PROB	201350	n/a	LTP131	ltpFR	10	n/a	n/a	n/a	n/a	n/a	n/a	10	4	1	5	n/a	n/a	n/a	n/a	n/a
405.828	n/a	STOP	202914	n/a	LTP131	ltpFR	10	n/a	n/a	n/a	n/a	n/a	n/a	n/a	n/a	n/a	n/a	n/a	n/a	n/a	n/a	n/a
406.874	n/a	WORD	203437	wordpools/wasnorm_wordpool.txt	LTP131	ltpFR	10	1	0	ACTOR	5	n/a	1	n/a	0	0	0	1	0.412841796875	0.57763671875	lower	../fonts/amplitud.ttf
409.882	n/a	START	204941	n/a	LTP131	ltpFR	10	n/a	n/a	n/a	n/a	n/a	n/a	n/a	n/a	n/a	n/a	n/a	n/a	n/a	n/a	n/a
410.856	n/a	PROB	205428	n/a	LTP131	ltpFR	10	n/a	n/a	n/a	n/a	n/a	n/a	26	8	9	9	n/a	n/a	n/a	n/a	n/a
413.43	n/a	PROB	206715	n/a	LTP131	ltpFR	10	n/a	n/a	n/a	n/a	n/a	n/a	13	9	2	2	n/a	n/a	n/a	n/a	n/a
417.88	n/a	STOP	208940	n/a	LTP131	ltpFR	10	n/a	n/a	n/a	n/a	n/a	n/a	n/a	n/a	n/a	n/a	n/a	n/a	n/a	n/a	n/a
418.736	n/a	WORD	209368	wordpools/wasnorm_wordpool.txt	LTP131	ltpFR	10	1	0	SCREEN	1253	n/a	1	n/a	0	0	0	1	0.412841796875	0.57763671875	lower	../fonts/amplitud.ttf
421.746	n/a	START	210873	n/a	LTP131	ltpFR	10	n/a	n/a	n/a	n/a	n/a	n/a	n/a	n/a	n/a	n/a	n/a	n/a	n/a	n/a	n/a
422.802	n/a	PROB	211401	n/a	LTP131	ltpFR	10	n/a	n/a	n/a	n/a	n/a	n/a	12	1	7	4	n/a	n/a	n/a	n/a	n/a
424.426	n/a	PROB	212213	n/a	LTP131	ltpFR	10	n/a	n/a	n/a	n/a	n/a	n/a	5	3	1	1	n/a	n/a	n/a	n/a	n/a
425.826	n/a	PROB	212913	n/a	LTP131	ltpFR	10	n/a	n/a	n/a	n/a	n/a	n/a	16	7	1	8	n/a	n/a	n/a	n/a	n/a
427.326	n/a	PROB	213663	n/a	LTP131	ltpFR	10	n/a	n/a	n/a	n/a	n/a	n/a	12	1	5	6	n/a	n/a	n/a	n/a	n/a
428.916	n/a	STOP	214458	n/a	LTP131	ltpFR	10	n/a	n/a	n/a	n/a	n/a	n/a	n/a	n/a	n/a	n/a	n/a	n/a	n/a	n/a	n/a
430.558	n/a	WORD	215279	wordpools/wasnorm_wordpool.txt	LTP131	ltpFR	10	1	1	HOSTESS	723	n/a	1	n/a	0	0	0	0	0.5869140625	0.422607421875	upper	../fonts/zerothre.ttf
433.566	n/a	START	216783	n/a	LTP131	ltpFR	10	n/a	n/a	n/a	n/a	n/a	n/a	n/a	n/a	n/a	n/a	n/a	n/a	n/a	n/a	n/a
434.498	n/a	PROB	217249	n/a	LTP131	ltpFR	10	n/a	n/a	n/a	n/a	n/a	n/a	18	6	4	8	n/a	n/a	n/a	n/a	n/a
436.964	n/a	PROB	218482	n/a	LTP131	ltpFR	10	n/a	n/a	n/a	n/a	n/a	n/a	19	6	4	9	n/a	n/a	n/a	n/a	n/a
438.772	n/a	PROB	219386	n/a	LTP131	ltpFR	10	n/a	n/a	n/a	n/a	n/a	n/a	11	5	2	4	n/a	n/a	n/a	n/a	n/a
440.806	n/a	STOP	220403	n/a	LTP131	ltpFR	10	n/a	n/a	n/a	n/a	n/a	n/a	n/a	n/a	n/a	n/a	n/a	n/a	n/a	n/a	n/a
442.604	n/a	WORD	221302	wordpools/wasnorm_wordpool.txt	LTP131	ltpFR	10	1	1	RADISH	1158	n/a	1	n/a	0	0	0	0	0.5869140625	0.422607421875	upper	../fonts/zerothre.ttf
445.612	n/a	START	222806	n/a	LTP131	ltpFR	10	n/a	n/a	n/a	n/a	n/a	n/a	n/a	n/a	n/a	n/a	n/a	n/a	n/a	n/a	n/a
446.562	n/a	PROB	223281	n/a	LTP131	ltpFR	10	n/a	n/a	n/a	n/a	n/a	n/a	17	5	7	5	n/a	n/a	n/a	n/a	n/a
448.486	n/a	PROB	224243	n/a	LTP131	ltpFR	10	n/a	n/a	n/a	n/a	n/a	n/a	9	6	2	1	n/a	n/a	n/a	n/a	n/a
450.702	n/a	PROB	225351	n/a	LTP131	ltpFR	10	n/a	n/a	n/a	n/a	n/a	n/a	12	5	2	5	n/a	n/a	n/a	n/a	n/a
451.794	n/a	PROB	225897	n/a	LTP131	ltpFR	10	n/a	n/a	n/a	n/a	n/a	n/a	16	5	4	7	n/a	n/a	n/a	n/a	n/a
453.422	n/a	STOP	226711	n/a	LTP131	ltpFR	10	n/a	n/a	n/a	n/a	n/a	n/a	n/a	n/a	n/a	n/a	n/a	n/a	n/a	n/a	n/a
454.568	n/a	WORD	227284	wordpools/wasnorm_wordpool.txt	LTP131	ltpFR	10	1	1	CHICK	296	n/a	1	n/a	0	0	0	0	0.5869140625	0.422607421875	upper	../fonts/zerothre.ttf
457.574	n/a	START	228787	n/a	LTP131	ltpFR	10	n/a	n/a	n/a	n/a	n/a	n/a	n/a	n/a	n/a	n/a	n/a	n/a	n/a	n/a	n/a
458.616	n/a	PROB	229308	n/a	LTP131	ltpFR	10	n/a	n/a	n/a	n/a	n/a	n/a	20	7	7	6	n/a	n/a	n/a	n/a	n/a
460.066	n/a	PROB	230033	n/a	LTP131	ltpFR	10	n/a	n/a	n/a	n/a	n/a	n/a	13	6	1	6	n/a	n/a	n/a	n/a	n/a
461.29	n/a	PROB	230645	n/a	LTP131	ltpFR	10	n/a	n/a	n/a	n/a	n/a	n/a	12	2	3	7	n/a	n/a	n/a	n/a	n/a
462.658	n/a	PROB	231329	n/a	LTP131	ltpFR	10	n/a	n/a	n/a	n/a	n/a	n/a	10	2	4	4	n/a	n/a	n/a	n/a	n/a
464.83	n/a	STOP	232415	n/a	LTP131	ltpFR	10	n/a	n/a	n/a	n/a	n/a	n/a	n/a	n/a	n/a	n/a	n/a	n/a	n/a	n/a	n/a
466.54	n/a	WORD	233270	wordpools/wasnorm_wordpool.txt	LTP131	ltpFR	10	1	1	PAN	1008	n/a	0	n/a	0	0	0	0	0.5869140625	0.422607421875	upper	../fonts/zerothre.ttf
469.546	n/a	START	234773	n/a	LTP131	ltpFR	10	n/a	n/a	n/a	n/a	n/a	n/a	n/a	n/a	n/a	n/a	n/a	n/a	n/a	n/a	n/a
470.47	n/a	PROB	235235	n/a	LTP131	ltpFR	10	n/a	n/a	n/a	n/a	n/a	n/a	20	6	8	6	n/a	n/a	n/a	n/a	n/a
472.104	n/a	PROB	236052	n/a	LTP131	ltpFR	10	n/a	n/a	n/a	n/a	n/a	n/a	18	1	9	8	n/a	n/a	n/a	n/a	n/a
473.886	n/a	PROB	236943	n/a	LTP131	ltpFR	10	n/a	n/a	n/a	n/a	n/a	n/a	19	8	2	9	n/a	n/a	n/a	n/a	n/a
476.67	n/a	STOP	238335	n/a	LTP131	ltpFR	10	n/a	n/a	n/a	n/a	n/a	n/a	n/a	n/a	n/a	n/a	n/a	n/a	n/a	n/a	n/a
478.702	n/a	WORD	239351	wordpools/wasnorm_wordpool.txt	LTP131	ltpFR	10	1	1	GUEST	669	n/a	1	n/a	0	0	0	0	0.5869140625	0.422607421875	upper	../fonts/zerothre.ttf
481.71	n/a	START	240855	n/a	LTP131	ltpFR	10	n/a	n/a	n/a	n/a	n/a	n/a	n/a	n/a	n/a	n/a	n/a	n/a	n/a	n/a	n/a
482.56	n/a	PROB	241280	n/a	LTP131	ltpFR	10	n/a	n/a	n/a	n/a	n/a	n/a	9	4	1	4	n/a	n/a	n/a	n/a	n/a
484.134	n/a	PROB	242067	n/a	LTP131	ltpFR	10	n/a	n/a	n/a	n/a	n/a	n/a	14	1	6	7	n/a	n/a	n/a	n/a	n/a
485.808	n/a	PROB	242904	n/a	LTP131	ltpFR	10	n/a	n/a	n/a	n/a	n/a	n/a	27	9	9	9	n/a	n/a	n/a	n/a	n/a
487.882	n/a	PROB	243941	n/a	LTP131	ltpFR	10	n/a	n/a	n/a	n/a	n/a	n/a	12	4	6	2	n/a	n/a	n/a	n/a	n/a
488.88	n/a	STOP	244440	n/a	LTP131	ltpFR	10	n/a	n/a	n/a	n/a	n/a	n/a	n/a	n/a	n/a	n/a	n/a	n/a	n/a	n/a	n/a
490.59	n/a	WORD	245295	wordpools/wasnorm_wordpool.txt	LTP131	ltpFR	10	1	0	BLACKBOARD	133	n/a	1	n/a	0	0	0	1	0.412841796875	0.57763671875	lower	../fonts/amplitud.ttf
493.598	n/a	START	246799	n/a	LTP131	ltpFR	10	n/a	n/a	n/a	n/a	n/a	n/a	n/a	n/a	n/a	n/a	n/a	n/a	n/a	n/a	n/a
494.772	n/a	PROB	247386	n/a	LTP131	ltpFR	10	n/a	n/a	n/a	n/a	n/a	n/a	13	5	2	6	n/a	n/a	n/a	n/a	n/a
496.704	n/a	PROB	248352	n/a	LTP131	ltpFR	10	n/a	n/a	n/a	n/a	n/a	n/a	18	4	7	7	n/a	n/a	n/a	n/a	n/a
498.254	n/a	PROB	249127	n/a	LTP131	ltpFR	10	n/a	n/a	n/a	n/a	n/a	n/a	11	3	4	4	n/a	n/a	n/a	n/a	n/a
499.662	n/a	PROB	249831	n/a	LTP131	ltpFR	10	n/a	n/a	n/a	n/a	n/a	n/a	9	1	4	4	n/a	n/a	n/a	n/a	n/a
501.472	n/a	STOP	250736	n/a	LTP131	ltpFR	10	n/a	n/a	n/a	n/a	n/a	n/a	n/a	n/a	n/a	n/a	n/a	n/a	n/a	n/a	n/a
502.494	n/a	WORD	251247	wordpools/wasnorm_wordpool.txt	LTP131	ltpFR	10	1	0	PISTON	1076	n/a	0	n/a	0	0	0	1	0.412841796875	0.57763671875	lower	../fonts/amplitud.ttf
505.502	n/a	START	252751	n/a	LTP131	ltpFR	10	n/a	n/a	n/a	n/a	n/a	n/a	n/a	n/a	n/a	n/a	n/a	n/a	n/a	n/a	n/a
506.594	n/a	PROB	253297	n/a	LTP131	ltpFR	10	n/a	n/a	n/a	n/a	n/a	n/a	21	6	6	9	n/a	n/a	n/a	n/a	n/a
508.95	n/a	PROB	254475	n/a	LTP131	ltpFR	10	n/a	n/a	n/a	n/a	n/a	n/a	11	4	6	1	n/a	n/a	n/a	n/a	n/a
510.192	n/a	PROB	255096	n/a	LTP131	ltpFR	10	n/a	n/a	n/a	n/a	n/a	n/a	20	7	7	6	n/a	n/a	n/a	n/a	n/a
511.584	n/a	PROB	255792	n/a	LTP131	ltpFR	10	n/a	n/a	n/a	n/a	n/a	n/a	7	2	3	2	n/a	n/a	n/a	n/a	n/a
513.304	n/a	STOP	256652	n/a	LTP131	ltpFR	10	n/a	n/a	n/a	n/a	n/a	n/a	n/a	n/a	n/a	n/a	n/a	n/a	n/a	n/a	n/a
515.232	n/a	REC_START	257616	n/a	LTP131	ltpFR	10	1	n/a	n/a	n/a	n/a	n/a	n/a	0	0	0	n/a	n/a	n/a	n/a	n/a
515.952	n/a	REC_WORD	257976	wordpools/wasnorm_wordpool.txt	LTP131	ltpFR	10	1	0	PISTON	1076	n/a	0	n/a	0	0	0	n/a	n/a	n/a	n/a	n/a
516.99	n/a	REC_WORD	258495	wordpools/wasnorm_wordpool.txt	LTP131	ltpFR	10	1	1	RADISH	1158	n/a	1	n/a	0	0	0	n/a	n/a	n/a	n/a	n/a
517.948	n/a	REC_WORD	258974	wordpools/wasnorm_wordpool.txt	LTP131	ltpFR	10	1	1	CHICK	296	n/a	1	n/a	0	0	0	n/a	n/a	n/a	n/a	n/a
518.914	n/a	REC_WORD	259457	wordpools/wasnorm_wordpool.txt	LTP131	ltpFR	10	1	1	GUEST	669	n/a	1	n/a	0	0	0	n/a	n/a	n/a	n/a	n/a
519.868	n/a	REC_WORD	259934	wordpools/wasnorm_wordpool.txt	LTP131	ltpFR	10	1	1	PAN	1008	n/a	0	n/a	0	0	0	n/a	n/a	n/a	n/a	n/a
520.836	n/a	REC_WORD	260418	wordpools/wasnorm_wordpool.txt	LTP131	ltpFR	10	1	1	SCRIBBLE	1256	n/a	0	n/a	0	0	0	n/a	n/a	n/a	n/a	n/a
522.198	n/a	REC_WORD	261099	wordpools/wasnorm_wordpool.txt	LTP131	ltpFR	10	1	0	BLACKBOARD	133	n/a	1	n/a	0	0	0	n/a	n/a	n/a	n/a	n/a
524.438	n/a	REC_WORD	262219	wordpools/wasnorm_wordpool.txt	LTP131	ltpFR	10	1	0	MANAGER	863	n/a	1	n/a	0	0	0	n/a	n/a	n/a	n/a	n/a
526.438	n/a	REC_WORD	263219	wordpools/wasnorm_wordpool.txt	LTP131	ltpFR	10	1	0	CROSS	413	n/a	1	n/a	0	0	0	n/a	n/a	n/a	n/a	n/a
528.244	n/a	REC_WORD	264122	wordpools/wasnorm_wordpool.txt	LTP131	ltpFR	10	1	0	CASHEW	253	n/a	0	n/a	0	0	0	n/a	n/a	n/a	n/a	n/a
529.74	n/a	REC_WORD	264870	wordpools/wasnorm_wordpool.txt	LTP131	ltpFR	10	1	0	SCREEN	1253	n/a	1	n/a	0	0	0	n/a	n/a	n/a	n/a	n/a
537.34	n/a	REC_WORD	268670	wordpools/wasnorm_wordpool.txt	LTP131	ltpFR	10	1	1	SHRINE	1298	n/a	0	n/a	0	0	0	n/a	n/a	n/a	n/a	n/a
539.982	n/a	REC_WORD	269991	wordpools/wasnorm_wordpool.txt	LTP131	ltpFR	10	1	1	HOSTESS	723	n/a	1	n/a	0	0	0	n/a	n/a	n/a	n/a	n/a
607.188	n/a	WORD	303594	wordpools/wasnorm_wordpool.txt	LTP131	ltpFR	10	2	0	SERVANT	1271	n/a	1	n/a	0	0	0	1	0.412841796875	0.57763671875	lower	../fonts/amplitud.ttf
611.204	n/a	WORD	305602	wordpools/wasnorm_wordpool.txt	LTP131	ltpFR	10	2	0	BASEBALL	93	n/a	0	n/a	0	0	0	1	0.412841796875	0.57763671875	lower	../fonts/amplitud.ttf
615.02	n/a	WORD	307510	wordpools/wasnorm_wordpool.txt	LTP131	ltpFR	10	2	0	RAM	1165	n/a	1	n/a	0	0	0	1	0.412841796875	0.57763671875	lower	../fonts/amplitud.ttf
619.184	n/a	WORD	309592	wordpools/wasnorm_wordpool.txt	LTP131	ltpFR	10	2	0	SHEEP	1278	n/a	1	n/a	0	0	0	1	0.412841796875	0.57763671875	lower	../fonts/amplitud.ttf
623.066	n/a	WORD	311533	wordpools/wasnorm_wordpool.txt	LTP131	ltpFR	10	2	0	UNICORN	1538	n/a	1	n/a	0	0	0	1	0.412841796875	0.57763671875	lower	../fonts/amplitud.ttf
626.914	n/a	WORD	313457	wordpools/wasnorm_wordpool.txt	LTP131	ltpFR	10	2	0	ORCHESTRA	981	n/a	1	n/a	0	0	0	1	0.412841796875	0.57763671875	lower	../fonts/amplitud.ttf
630.914	n/a	WORD	315457	wordpools/wasnorm_wordpool.txt	LTP131	ltpFR	10	2	0	CATERPILLAR	259	n/a	1	n/a	0	0	0	1	0.412841796875	0.57763671875	lower	../fonts/amplitud.ttf
634.814	n/a	WORD	317407	wordpools/wasnorm_wordpool.txt	LTP131	ltpFR	10	2	0	CHAMPAGNE	278	n/a	0	n/a	0	0	0	1	0.412841796875	0.57763671875	lower	../fonts/amplitud.ttf
638.712	n/a	WORD	319356	wordpools/wasnorm_wordpool.txt	LTP131	ltpFR	10	2	0	DONKEY	484	n/a	1	n/a	0	0	0	1	0.412841796875	0.57763671875	lower	../fonts/amplitud.ttf
642.676	n/a	WORD	321338	wordpools/wasnorm_wordpool.txt	LTP131	ltpFR	10	2	0	LADDER	793	n/a	1	n/a	0	0	0	1	0.412841796875	0.57763671875	lower	../fonts/amplitud.ttf
646.884	n/a	WORD	323442	wordpools/wasnorm_wordpool.txt	LTP131	ltpFR	10	2	0	JAR	750	n/a	0	n/a	0	0	0	1	0.412841796875	0.57763671875	lower	../fonts/amplitud.ttf
650.834	n/a	WORD	325417	wordpools/wasnorm_wordpool.txt	LTP131	ltpFR	10	2	0	CORN	381	n/a	0	n/a	0	0	0	1	0.412841796875	0.57763671875	lower	../fonts/amplitud.ttf
654.932	n/a	WORD	327466	wordpools/wasnorm_wordpool.txt	LTP131	ltpFR	10	2	0	MARGARINE	868	n/a	0	n/a	0	0	0	1	0.412841796875	0.57763671875	lower	../fonts/amplitud.ttf
659.138	n/a	WORD	329569	wordpools/wasnorm_wordpool.txt	LTP131	ltpFR	10	2	0	GRAVEL	659	n/a	1	n/a	0	0	0	1	0.412841796875	0.57763671875	lower	../fonts/amplitud.ttf
663.054	n/a	WORD	331527	wordpools/wasnorm_wordpool.txt	LTP131	ltpFR	10	2	0	SIDEWALK	1303	n/a	1	n/a	0	0	0	1	0.412841796875	0.57763671875	lower	../fonts/amplitud.ttf
666.928	n/a	WORD	333464	wordpools/wasnorm_wordpool.txt	LTP131	ltpFR	10	2	0	VIOLIN	1571	n/a	1	n/a	0	0	0	1	0.412841796875	0.57763671875	lower	../fonts/amplitud.ttf
669.936	n/a	START	334968	n/a	LTP131	ltpFR	10	n/a	n/a	n/a	n/a	n/a	n/a	n/a	n/a	n/a	n/a	n/a	n/a	n/a	n/a	n/a
671.06	n/a	PROB	335530	n/a	LTP131	ltpFR	10	n/a	n/a	n/a	n/a	n/a	n/a	17	6	3	8	n/a	n/a	n/a	n/a	n/a
674.392	n/a	PROB	337196	n/a	LTP131	ltpFR	10	n/a	n/a	n/a	n/a	n/a	n/a	25	9	7	9	n/a	n/a	n/a	n/a	n/a
676.562	n/a	STOP	338281	n/a	LTP131	ltpFR	10	n/a	n/a	n/a	n/a	n/a	n/a	n/a	n/a	n/a	n/a	n/a	n/a	n/a	n/a	n/a
679.684	n/a	REC_START	339842	n/a	LTP131	ltpFR	10	2	n/a	n/a	n/a	n/a	n/a	n/a	0	0	0	n/a	n/a	n/a	n/a	n/a
680.446	n/a	REC_WORD	340223	wordpools/wasnorm_wordpool.txt	LTP131	ltpFR	10	2	0	GRAVEL	659	n/a	1	n/a	0	0	0	n/a	n/a	n/a	n/a	n/a
681.29	n/a	REC_WORD	340645	wordpools/wasnorm_wordpool.txt	LTP131	ltpFR	10	2	0	SIDEWALK	1303	n/a	1	n/a	0	0	0	n/a	n/a	n/a	n/a	n/a
682.388	n/a	REC_WORD	341194	wordpools/wasnorm_wordpool.txt	LTP131	ltpFR	10	2	0	DONKEY	484	n/a	1	n/a	0	0	0	n/a	n/a	n/a	n/a	n/a
683.43	n/a	REC_WORD	341715	wordpools/wasnorm_wordpool.txt	LTP131	ltpFR	10	2	0	CATERPILLAR	259	n/a	1	n/a	0	0	0	n/a	n/a	n/a	n/a	n/a
684.652	n/a	REC_WORD	342326	wordpools/wasnorm_wordpool.txt	LTP131	ltpFR	10	2	0	RAM	1165	n/a	1	n/a	0	0	0	n/a	n/a	n/a	n/a	n/a
685.404	n/a	REC_WORD	342702	wordpools/wasnorm_wordpool.txt	LTP131	ltpFR	10	2	0	SHEEP	1278	n/a	1	n/a	0	0	0	n/a	n/a	n/a	n/a	n/a
686.374	n/a	REC_WORD	343187	wordpools/wasnorm_wordpool.txt	LTP131	ltpFR	10	2	0	UNICORN	1538	n/a	1	n/a	0	0	0	n/a	n/a	n/a	n/a	n/a
690.07	n/a	REC_WORD	345035	wordpools/wasnorm_wordpool.txt	LTP131	ltpFR	10	2	0	ORCHESTRA	981	n/a	1	n/a	0	0	0	n/a	n/a	n/a	n/a	n/a
691.108	n/a	REC_WORD	345554	wordpools/wasnorm_wordpool.txt	LTP131	ltpFR	10	2	0	VIOLIN	1571	n/a	1	n/a	0	0	0	n/a	n/a	n/a	n/a	n/a
693.404	n/a	REC_WORD	346702	wordpools/wasnorm_wordpool.txt	LTP131	ltpFR	10	2	0	SERVANT	1271	n/a	1	n/a	0	0	0	n/a	n/a	n/a	n/a	n/a
694.804	n/a	REC_WORD	347402	wordpools/wasnorm_wordpool.txt	LTP131	ltpFR	10	2	0	CORN	381	n/a	0	n/a	0	0	0	n/a	n/a	n/a	n/a	n/a
695.762	n/a	REC_WORD	347881	wordpools/wasnorm_wordpool.txt	LTP131	ltpFR	10	2	0	JAR	750	n/a	0	n/a	0	0	0	n/a	n/a	n/a	n/a	n/a
697.13	n/a	REC_WORD	348565	wordpools/wasnorm_wordpool.txt	LTP131	ltpFR	10	2	0	CHAMPAGNE	278	n/a	0	n/a	0	0	0	n/a	n/a	n/a	n/a	n/a
703.486	n/a	REC_WORD	351743	wordpools/wasnorm_wordpool.txt	LTP131	ltpFR	10	2	0	BASEBALL	93	n/a	0	n/a	0	0	0	n/a	n/a	n/a	n/a	n/a
763.348	n/a	WORD	381674	wordpools/wasnorm_wordpool.txt	LTP131	ltpFR	10	3	0	GARBAGE	622	n/a	1	n/a	0	0	0	1	0.412841796875	0.57763671875	lower	../fonts/amplitud.ttf
767.514	n/a	WORD	383757	wordpools/wasnorm_wordpool.txt	LTP131	ltpFR	10	3	0	FLOOR	581	n/a	1	n/a	0	0	0	1	0.412841796875	0.57763671875	lower	../fonts/amplitud.ttf
771.596	n/a	WORD	385798	wordpools/wasnorm_wordpool.txt	LTP131	ltpFR	10	3	0	PICK	1058	n/a	1	n/a	0	0	0	1	0.412841796875	0.57763671875	lower	../fonts/amplitud.ttf
775.678	n/a	WORD	387839	wordpools/wasnorm_wordpool.txt	LTP131	ltpFR	10	3	0	CATCHER	258	n/a	1	n/a	0	0	0	1	0.412841796875	0.57763671875	lower	../fonts/amplitud.ttf
779.826	n/a	WORD	389913	wordpools/wasnorm_wordpool.txt	LTP131	ltpFR	10	3	0	TWIG	1527	n/a	0	n/a	0	0	0	1	0.412841796875	0.57763671875	lower	../fonts/amplitud.ttf
783.81	n/a	WORD	391905	wordpools/wasnorm_wordpool.txt	LTP131	ltpFR	10	3	0	CORAL	378	n/a	1	n/a	0	0	0	1	0.412841796875	0.57763671875	lower	../fonts/amplitud.ttf
787.676	n/a	WORD	393838	wordpools/wasnorm_wordpool.txt	LTP131	ltpFR	10	3	0	PAIL	1002	n/a	0	n/a	0	0	0	1	0.412841796875	0.57763671875	lower	../fonts/amplitud.ttf
791.532	n/a	WORD	395766	wordpools/wasnorm_wordpool.txt	LTP131	ltpFR	10	3	0	BARK	87	n/a	0	n/a	0	0	0	1	0.412841796875	0.57763671875	lower	../fonts/amplitud.ttf
795.58	n/a	WORD	397790	wordpools/wasnorm_wordpool.txt	LTP131	ltpFR	10	3	0	FACE	547	n/a	0	n/a	0	0	0	1	0.412841796875	0.57763671875	lower	../fonts/amplitud.ttf
799.454	n/a	WORD	399727	wordpools/wasnorm_wordpool.txt	LTP131	ltpFR	10	3	0	DUMP	505	n/a	1	n/a	0	0	0	1	0.412841796875	0.57763671875	lower	../fonts/amplitud.ttf
803.438	n/a	WORD	401719	wordpools/wasnorm_wordpool.txt	LTP131	ltpFR	10	3	0	ASSOCIATE	49	n/a	1	n/a	0	0	0	1	0.412841796875	0.57763671875	lower	../fonts/amplitud.ttf
807.518	n/a	WORD	403759	wordpools/wasnorm_wordpool.txt	LTP131	ltpFR	10	3	0	STRANGER	1389	n/a	1	n/a	0	0	0	1	0.412841796875	0.57763671875	lower	../fonts/amplitud.ttf
811.426	n/a	WORD	405713	wordpools/wasnorm_wordpool.txt	LTP131	ltpFR	10	3	0	BEARD	107	n/a	0	n/a	0	0	0	1	0.412841796875	0.57763671875	lower	../fonts/amplitud.ttf
815.324	n/a	WORD	407662	wordpools/wasnorm_wordpool.txt	LTP131	ltpFR	10	3	0	ALLIGATOR	16	n/a	1	n/a	0	0	0	1	0.412841796875	0.57763671875	lower	../fonts/amplitud.ttf
819.324	n/a	WORD	409662	wordpools/wasnorm_wordpool.txt	LTP131	ltpFR	10	3	0	ANIMAL	23	n/a	1	n/a	0	0	0	1	0.412841796875	0.57763671875	lower	../fonts/amplitud.ttf
823.406	n/a	WORD	411703	wordpools/wasnorm_wordpool.txt	LTP131	ltpFR	10	3	0	BALLOT	76	n/a	0	n/a	0	0	0	1	0.412841796875	0.57763671875	lower	../fonts/amplitud.ttf
826.414	n/a	START	413207	n/a	LTP131	ltpFR	10	n/a	n/a	n/a	n/a	n/a	n/a	n/a	n/a	n/a	n/a	n/a	n/a	n/a	n/a	n/a
827.312	n/a	PROB	413656	n/a	LTP131	ltpFR	10	n/a	n/a	n/a	n/a	n/a	n/a	20	9	3	8	n/a	n/a	n/a	n/a	n/a
829.838	n/a	PROB	414919	n/a	LTP131	ltpFR	10	n/a	n/a	n/a	n/a	n/a	n/a	15	8	1	6	n/a	n/a	n/a	n/a	n/a
831.528	n/a	PROB	415764	n/a	LTP131	ltpFR	10	n/a	n/a	n/a	n/a	n/a	n/a	19	7	9	3	n/a	n/a	n/a	n/a	n/a
833.31	n/a	PROB	416655	n/a	LTP131	ltpFR	10	n/a	n/a	n/a	n/a	n/a	n/a	12	5	5	2	n/a	n/a	n/a	n/a	n/a
834.436	n/a	PROB	417218	n/a	LTP131	ltpFR	10	n/a	n/a	n/a	n/a	n/a	n/a	18	5	8	5	n/a	n/a	n/a	n/a	n/a
835.934	n/a	PROB	417967	n/a	LTP131	ltpFR	10	n/a	n/a	n/a	n/a	n/a	n/a	16	5	5	6	n/a	n/a	n/a	n/a	n/a
837.326	n/a	PROB	418663	n/a	LTP131	ltpFR	10	n/a	n/a	n/a	n/a	n/a	n/a	14	6	1	7	n/a	n/a	n/a	n/a	n/a
838.876	n/a	PROB	419438	n/a	LTP131	ltpFR	10	n/a	n/a	n/a	n/a	n/a	n/a	19	6	8	5	n/a	n/a	n/a	n/a	n/a
840.818	n/a	PROB	420409	n/a	LTP131	ltpFR	10	n/a	n/a	n/a	n/a	n/a	n/a	12	1	7	4	n/a	n/a	n/a	n/a	n/a
842.21	n/a	STOP	421105	n/a	LTP131	ltpFR	10	n/a	n/a	n/a	n/a	n/a	n/a	n/a	n/a	n/a	n/a	n/a	n/a	n/a	n/a	n/a
844.258	n/a	REC_START	422129	n/a	LTP131	ltpFR	10	3	n/a	n/a	n/a	n/a	n/a	n/a	0	0	0	n/a	n/a	n/a	n/a	n/a
847.406	n/a	REC_WORD	423703	wordpools/wasnorm_wordpool.txt	LTP131	ltpFR	10	3	0	PICK	1058	n/a	1	n/a	0	0	0	n/a	n/a	n/a	n/a	n/a
848.568	n/a	REC_WORD	424284	wordpools/wasnorm_wordpool.txt	LTP131	ltpFR	10	3	0	GARBAGE	622	n/a	1	n/a	0	0	0	n/a	n/a	n/a	n/a	n/a
849.73	n/a	REC_WORD	424865	wordpools/wasnorm_wordpool.txt	LTP131	ltpFR	10	3	0	FLOOR	581	n/a	1	n/a	0	0	0	n/a	n/a	n/a	n/a	n/a
851.482	n/a	REC_WORD	425741	wordpools/wasnorm_wordpool.txt	LTP131	ltpFR	10	3	0	DUMP	505	n/a	1	n/a	0	0	0	n/a	n/a	n/a	n/a	n/a
855.338	n/a	REC_WORD	427669	wordpools/wasnorm_wordpool.txt	LTP131	ltpFR	10	3	0	CATCHER	258	n/a	1	n/a	0	0	0	n/a	n/a	n/a	n/a	n/a
858.072	n/a	REC_WORD	429036	wordpools/wasnorm_wordpool.txt	LTP131	ltpFR	10	3	0	STRANGER	1389	n/a	1	n/a	0	0	0	n/a	n/a	n/a	n/a	n/a
859.53	n/a	REC_WORD	429765	wordpools/wasnorm_wordpool.txt	LTP131	ltpFR	10	3	0	ASSOCIATE	49	n/a	1	n/a	0	0	0	n/a	n/a	n/a	n/a	n/a
910.41	n/a	REC_WORD	455205	wordpools/wasnorm_wordpool.txt	LTP131	ltpFR	10	3	0	TWIG	1527	n/a	0	n/a	0	0	0	n/a	n/a	n/a	n/a	n/a
911.518	n/a	REC_WORD	455759	wordpools/wasnorm_wordpool.txt	LTP131	ltpFR	10	3	0	BARK	87	n/a	0	n/a	0	0	0	n/a	n/a	n/a	n/a	n/a
912.472	n/a	REC_WORD	456236	wordpools/wasnorm_wordpool.txt	LTP131	ltpFR	10	3	0	PAIL	1002	n/a	0	n/a	0	0	0	n/a	n/a	n/a	n/a	n/a
913.438	n/a	REC_WORD	456719	wordpools/wasnorm_wordpool.txt	LTP131	ltpFR	10	3	0	FACE	547	n/a	0	n/a	0	0	0	n/a	n/a	n/a	n/a	n/a
914.612	n/a	REC_WORD	457306	wordpools/wasnorm_wordpool.txt	LTP131	ltpFR	10	3	0	BEARD	107	n/a	0	n/a	0	0	0	n/a	n/a	n/a	n/a	n/a
928.758	n/a	START	464379	n/a	LTP131	ltpFR	10	n/a	n/a	n/a	n/a	n/a	n/a	n/a	n/a	n/a	n/a	n/a	n/a	n/a	n/a	n/a
930.264	n/a	PROB	465132	n/a	LTP131	ltpFR	10	n/a	n/a	n/a	n/a	n/a	n/a	18	6	3	9	n/a	n/a	n/a	n/a	n/a
933.014	n/a	PROB	466507	n/a	LTP131	ltpFR	10	n/a	n/a	n/a	n/a	n/a	n/a	7	1	2	4	n/a	n/a	n/a	n/a	n/a
934.848	n/a	PROB	467424	n/a	LTP131	ltpFR	10	n/a	n/a	n/a	n/a	n/a	n/a	19	2	8	9	n/a	n/a	n/a	n/a	n/a
936.43	n/a	STOP	468215	n/a	LTP131	ltpFR	10	n/a	n/a	n/a	n/a	n/a	n/a	n/a	n/a	n/a	n/a	n/a	n/a	n/a	n/a	n/a
937.922	n/a	WORD	468961	wordpools/wasnorm_wordpool.txt	LTP131	ltpFR	10	4	1	CANOE	233	n/a	0	n/a	0	0	0	0	0.5869140625	0.422607421875	upper	../fonts/zerothre.ttf
940.928	n/a	START	470464	n/a	LTP131	ltpFR	10	n/a	n/a	n/a	n/a	n/a	n/a	n/a	n/a	n/a	n/a	n/a	n/a	n/a	n/a	n/a
941.954	n/a	PROB	470977	n/a	LTP131	ltpFR	10	n/a	n/a	n/a	n/a	n/a	n/a	10	1	1	8	n/a	n/a	n/a	n/a	n/a
943.17	n/a	PROB	471585	n/a	LTP131	ltpFR	10	n/a	n/a	n/a	n/a	n/a	n/a	20	8	7	5	n/a	n/a	n/a	n/a	n/a
944.818	n/a	PROB	472409	n/a	LTP131	ltpFR	10	n/a	n/a	n/a	n/a	n/a	n/a	15	4	9	2	n/a	n/a	n/a	n/a	n/a
946.36	n/a	PROB	473180	n/a	LTP131	ltpFR	10	n/a	n/a	n/a	n/a	n/a	n/a	6	1	4	1	n/a	n/a	n/a	n/a	n/a
947.808	n/a	STOP	473904	n/a	LTP131	ltpFR	10	n/a	n/a	n/a	n/a	n/a	n/a	n/a	n/a	n/a	n/a	n/a	n/a	n/a	n/a	n/a
949.858	n/a	WORD	474929	wordpools/wasnorm_wordpool.txt	LTP131	ltpFR	10	4	1	BRAKE	166	n/a	0	n/a	0	0	0	0	0.5869140625	0.422607421875	upper	../fonts/zerothre.ttf
952.866	n/a	START	476433	n/a	LTP131	ltpFR	10	n/a	n/a	n/a	n/a	n/a	n/a	n/a	n/a	n/a	n/a	n/a	n/a	n/a	n/a	n/a
953.808	n/a	PROB	476904	n/a	LTP131	ltpFR	10	n/a	n/a	n/a	n/a	n/a	n/a	16	6	3	7	n/a	n/a	n/a	n/a	n/a
957.098	n/a	PROB	478549	n/a	LTP131	ltpFR	10	n/a	n/a	n/a	n/a	n/a	n/a	13	1	3	9	n/a	n/a	n/a	n/a	n/a
959.024	n/a	PROB	479512	n/a	LTP131	ltpFR	10	n/a	n/a	n/a	n/a	n/a	n/a	13	2	8	3	n/a	n/a	n/a	n/a	n/a
960.12	n/a	STOP	480060	n/a	LTP131	ltpFR	10	n/a	n/a	n/a	n/a	n/a	n/a	n/a	n/a	n/a	n/a	n/a	n/a	n/a	n/a	n/a
961.998	n/a	WORD	480999	wordpools/wasnorm_wordpool.txt	LTP131	ltpFR	10	4	1	TRUCK	1512	n/a	0	n/a	0	0	0	0	0.5869140625	0.422607421875	upper	../fonts/zerothre.ttf
965.004	n/a	START	482502	n/a	LTP131	ltpFR	10	n/a	n/a	n/a	n/a	n/a	n/a	n/a	n/a	n/a	n/a	n/a	n/a	n/a	n/a	n/a
966.07	n/a	PROB	483035	n/a	LTP131	ltpFR	10	n/a	n/a	n/a	n/a	n/a	n/a	24	7	8	9	n/a	n/a	n/a	n/a	n/a
967.994	n/a	PROB	483997	n/a	LTP131	ltpFR	10	n/a	n/a	n/a	n/a	n/a	n/a	22	9	9	4	n/a	n/a	n/a	n/a	n/a
969.67	n/a	PROB	484835	n/a	LTP131	ltpFR	10	n/a	n/a	n/a	n/a	n/a	n/a	19	8	6	5	n/a	n/a	n/a	n/a	n/a
971.202	n/a	PROB	485601	n/a	LTP131	ltpFR	10	n/a	n/a	n/a	n/a	n/a	n/a	22	8	6	8	n/a	n/a	n/a	n/a	n/a
972.802	n/a	STOP	486401	n/a	LTP131	ltpFR	10	n/a	n/a	n/a	n/a	n/a	n/a	n/a	n/a	n/a	n/a	n/a	n/a	n/a	n/a	n/a
974.094	n/a	WORD	487047	wordpools/wasnorm_wordpool.txt	LTP131	ltpFR	10	4	1	NECKLACE	940	n/a	0	n/a	0	0	0	0	0.5869140625	0.422607421875	upper	../fonts/zerothre.ttf
977.102	n/a	START	488551	n/a	LTP131	ltpFR	10	n/a	n/a	n/a	n/a	n/a	n/a	n/a	n/a	n/a	n/a	n/a	n/a	n/a	n/a	n/a
977.95	n/a	PROB	488975	n/a	LTP131	ltpFR	10	n/a	n/a	n/a	n/a	n/a	n/a	15	9	2	4	n/a	n/a	n/a	n/a	n/a
980.442	n/a	PROB	490221	n/a	LTP131	ltpFR	10	n/a	n/a	n/a	n/a	n/a	n/a	16	5	9	2	n/a	n/a	n/a	n/a	n/a
982.208	n/a	PROB	491104	n/a	LTP131	ltpFR	10	n/a	n/a	n/a	n/a	n/a	n/a	12	2	1	9	n/a	n/a	n/a	n/a	n/a
985.102	n/a	STOP	492551	n/a	LTP131	ltpFR	10	n/a	n/a	n/a	n/a	n/a	n/a	n/a	n/a	n/a	n/a	n/a	n/a	n/a	n/a	n/a
986.232	n/a	WORD	493116	wordpools/wasnorm_wordpool.txt	LTP131	ltpFR	10	4	1	COOKBOOK	373	n/a	0	n/a	0	0	0	0	0.5869140625	0.422607421875	upper	../fonts/zerothre.ttf
989.238	n/a	START	494619	n/a	LTP131	ltpFR	10	n/a	n/a	n/a	n/a	n/a	n/a	n/a	n/a	n/a	n/a	n/a	n/a	n/a	n/a	n/a
990.388	n/a	PROB	495194	n/a	LTP131	ltpFR	10	n/a	n/a	n/a	n/a	n/a	n/a	15	4	3	8	n/a	n/a	n/a	n/a	n/a
991.854	n/a	PROB	495927	n/a	LTP131	ltpFR	10	n/a	n/a	n/a	n/a	n/a	n/a	13	7	5	1	n/a	n/a	n/a	n/a	n/a
993.562	n/a	PROB	496781	n/a	LTP131	ltpFR	10	n/a	n/a	n/a	n/a	n/a	n/a	12	2	2	8	n/a	n/a	n/a	n/a	n/a
997.24	n/a	STOP	498620	n/a	LTP131	ltpFR	10	n/a	n/a	n/a	n/a	n/a	n/a	n/a	n/a	n/a	n/a	n/a	n/a	n/a	n/a	n/a
998.428	n/a	WORD	499214	wordpools/wasnorm_wordpool.txt	LTP131	ltpFR	10	4	1	COOK	372	n/a	1	n/a	0	0	0	0	0.5869140625	0.422607421875	upper	../fonts/zerothre.ttf
1001.436	n/a	START	500718	n/a	LTP131	ltpFR	10	n/a	n/a	n/a	n/a	n/a	n/a	n/a	n/a	n/a	n/a	n/a	n/a	n/a	n/a	n/a
1002.41	n/a	PROB	501205	n/a	LTP131	ltpFR	10	n/a	n/a	n/a	n/a	n/a	n/a	17	6	7	4	n/a	n/a	n/a	n/a	n/a
1004.15	n/a	PROB	502075	n/a	LTP131	ltpFR	10	n/a	n/a	n/a	n/a	n/a	n/a	10	2	7	1	n/a	n/a	n/a	n/a	n/a
1005.7	n/a	PROB	502850	n/a	LTP131	ltpFR	10	n/a	n/a	n/a	n/a	n/a	n/a	11	6	2	3	n/a	n/a	n/a	n/a	n/a
1007.342	n/a	PROB	503671	n/a	LTP131	ltpFR	10	n/a	n/a	n/a	n/a	n/a	n/a	11	5	2	4	n/a	n/a	n/a	n/a	n/a
1009.09	n/a	STOP	504545	n/a	LTP131	ltpFR	10	n/a	n/a	n/a	n/a	n/a	n/a	n/a	n/a	n/a	n/a	n/a	n/a	n/a	n/a	n/a
1010.306	n/a	WORD	505153	wordpools/wasnorm_wordpool.txt	LTP131	ltpFR	10	4	1	ASTEROID	50	n/a	0	n/a	0	0	0	0	0.5869140625	0.422607421875	upper	../fonts/zerothre.ttf
1013.316	n/a	START	506658	n/a	LTP131	ltpFR	10	n/a	n/a	n/a	n/a	n/a	n/a	n/a	n/a	n/a	n/a	n/a	n/a	n/a	n/a	n/a
1014.124	n/a	PROB	507062	n/a	LTP131	ltpFR	10	n/a	n/a	n/a	n/a	n/a	n/a	14	5	6	3	n/a	n/a	n/a	n/a	n/a
1015.706	n/a	PROB	507853	n/a	LTP131	ltpFR	10	n/a	n/a	n/a	n/a	n/a	n/a	17	8	2	7	n/a	n/a	n/a	n/a	n/a
1017.08	n/a	PROB	508540	n/a	LTP131	ltpFR	10	n/a	n/a	n/a	n/a	n/a	n/a	12	8	3	1	n/a	n/a	n/a	n/a	n/a
1018.704	n/a	PROB	509352	n/a	LTP131	ltpFR	10	n/a	n/a	n/a	n/a	n/a	n/a	14	5	6	3	n/a	n/a	n/a	n/a	n/a
1020.172	n/a	STOP	510086	n/a	LTP131	ltpFR	10	n/a	n/a	n/a	n/a	n/a	n/a	n/a	n/a	n/a	n/a	n/a	n/a	n/a	n/a	n/a
1022.246	n/a	WORD	511123	wordpools/wasnorm_wordpool.txt	LTP131	ltpFR	10	4	1	ATMOSPHERE	54	n/a	0	n/a	0	0	0	0	0.5869140625	0.422607421875	upper	../fonts/zerothre.ttf
1025.252	n/a	START	512626	n/a	LTP131	ltpFR	10	n/a	n/a	n/a	n/a	n/a	n/a	n/a	n/a	n/a	n/a	n/a	n/a	n/a	n/a	n/a
1026.402	n/a	PROB	513201	n/a	LTP131	ltpFR	10	n/a	n/a	n/a	n/a	n/a	n/a	23	9	8	6	n/a	n/a	n/a	n/a	n/a
1028.368	n/a	PROB	514184	n/a	LTP131	ltpFR	10	n/a	n/a	n/a	n/a	n/a	n/a	15	5	8	2	n/a	n/a	n/a	n/a	n/a
1029.81	n/a	PROB	514905	n/a	LTP131	ltpFR	10	n/a	n/a	n/a	n/a	n/a	n/a	23	9	8	6	n/a	n/a	n/a	n/a	n/a
1031.9	n/a	STOP	515950	n/a	LTP131	ltpFR	10	n/a	n/a	n/a	n/a	n/a	n/a	n/a	n/a	n/a	n/a	n/a	n/a	n/a	n/a	n/a
1034.466	n/a	WORD	517233	wordpools/wasnorm_wordpool.txt	LTP131	ltpFR	10	4	1	OYSTER	995	n/a	1	n/a	0	0	0	0	0.5869140625	0.422607421875	upper	../fonts/zerothre.ttf
1037.474	n/a	START	518737	n/a	LTP131	ltpFR	10	n/a	n/a	n/a	n/a	n/a	n/a	n/a	n/a	n/a	n/a	n/a	n/a	n/a	n/a	n/a
1038.366	n/a	PROB	519183	n/a	LTP131	ltpFR	10	n/a	n/a	n/a	n/a	n/a	n/a	18	3	7	8	n/a	n/a	n/a	n/a	n/a
1039.906	n/a	PROB	519953	n/a	LTP131	ltpFR	10	n/a	n/a	n/a	n/a	n/a	n/a	17	6	6	5	n/a	n/a	n/a	n/a	n/a
1041.472	n/a	PROB	520736	n/a	LTP131	ltpFR	10	n/a	n/a	n/a	n/a	n/a	n/a	13	6	4	3	n/a	n/a	n/a	n/a	n/a
1042.922	n/a	PROB	521461	n/a	LTP131	ltpFR	10	n/a	n/a	n/a	n/a	n/a	n/a	20	9	3	8	n/a	n/a	n/a	n/a	n/a
1044.806	n/a	STOP	522403	n/a	LTP131	ltpFR	10	n/a	n/a	n/a	n/a	n/a	n/a	n/a	n/a	n/a	n/a	n/a	n/a	n/a	n/a	n/a
1046.304	n/a	WORD	523152	wordpools/wasnorm_wordpool.txt	LTP131	ltpFR	10	4	1	DIGGER	464	n/a	1	n/a	0	0	0	0	0.5869140625	0.422607421875	upper	../fonts/zerothre.ttf
1049.314	n/a	START	524657	n/a	LTP131	ltpFR	10	n/a	n/a	n/a	n/a	n/a	n/a	n/a	n/a	n/a	n/a	n/a	n/a	n/a	n/a	n/a
1050.47	n/a	PROB	525235	n/a	LTP131	ltpFR	10	n/a	n/a	n/a	n/a	n/a	n/a	14	5	3	6	n/a	n/a	n/a	n/a	n/a
1052.736	n/a	PROB	526368	n/a	LTP131	ltpFR	10	n/a	n/a	n/a	n/a	n/a	n/a	9	2	1	6	n/a	n/a	n/a	n/a	n/a
1054.402	n/a	PROB	527201	n/a	LTP131	ltpFR	10	n/a	n/a	n/a	n/a	n/a	n/a	18	4	5	9	n/a	n/a	n/a	n/a	n/a
1056.158	n/a	STOP	528079	n/a	LTP131	ltpFR	10	n/a	n/a	n/a	n/a	n/a	n/a	n/a	n/a	n/a	n/a	n/a	n/a	n/a	n/a	n/a
1058.326	n/a	WORD	529163	wordpools/wasnorm_wordpool.txt	LTP131	ltpFR	10	4	1	WHEEL	1603	n/a	0	n/a	0	0	0	0	0.5869140625	0.422607421875	upper	../fonts/zerothre.ttf
1061.334	n/a	START	530667	n/a	LTP131	ltpFR	10	n/a	n/a	n/a	n/a	n/a	n/a	n/a	n/a	n/a	n/a	n/a	n/a	n/a	n/a	n/a
1062.342	n/a	PROB	531171	n/a	LTP131	ltpFR	10	n/a	n/a	n/a	n/a	n/a	n/a	12	2	7	3	n/a	n/a	n/a	n/a	n/a
1063.732	n/a	PROB	531866	n/a	LTP131	ltpFR	10	n/a	n/a	n/a	n/a	n/a	n/a	17	7	4	6	n/a	n/a	n/a	n/a	n/a
1065.132	n/a	PROB	532566	n/a	LTP131	ltpFR	10	n/a	n/a	n/a	n/a	n/a	n/a	15	8	3	4	n/a	n/a	n/a	n/a	n/a
1066.964	n/a	PROB	533482	n/a	LTP131	ltpFR	10	n/a	n/a	n/a	n/a	n/a	n/a	10	5	1	4	n/a	n/a	n/a	n/a	n/a
1068.598	n/a	STOP	534299	n/a	LTP131	ltpFR	10	n/a	n/a	n/a	n/a	n/a	n/a	n/a	n/a	n/a	n/a	n/a	n/a	n/a	n/a	n/a
1070.298	n/a	WORD	535149	wordpools/wasnorm_wordpool.txt	LTP131	ltpFR	10	4	1	BRAIN	165	n/a	0	n/a	0	0	0	0	0.5869140625	0.422607421875	upper	../fonts/zerothre.ttf
1073.306	n/a	START	536653	n/a	LTP131	ltpFR	10	n/a	n/a	n/a	n/a	n/a	n/a	n/a	n/a	n/a	n/a	n/a	n/a	n/a	n/a	n/a
1074.254	n/a	PROB	537127	n/a	LTP131	ltpFR	10	n/a	n/a	n/a	n/a	n/a	n/a	12	1	5	6	n/a	n/a	n/a	n/a	n/a
1075.72	n/a	PROB	537860	n/a	LTP131	ltpFR	10	n/a	n/a	n/a	n/a	n/a	n/a	18	8	8	2	n/a	n/a	n/a	n/a	n/a
1077.67	n/a	PROB	538835	n/a	LTP131	ltpFR	10	n/a	n/a	n/a	n/a	n/a	n/a	18	8	4	6	n/a	n/a	n/a	n/a	n/a
1079.244	n/a	PROB	539622	n/a	LTP131	ltpFR	10	n/a	n/a	n/a	n/a	n/a	n/a	18	6	8	4	n/a	n/a	n/a	n/a	n/a
1080.686	n/a	STOP	540343	n/a	LTP131	ltpFR	10	n/a	n/a	n/a	n/a	n/a	n/a	n/a	n/a	n/a	n/a	n/a	n/a	n/a	n/a	n/a
1082.476	n/a	WORD	541238	wordpools/wasnorm_wordpool.txt	LTP131	ltpFR	10	4	1	WAITER	1580	n/a	1	n/a	0	0	0	0	0.5869140625	0.422607421875	upper	../fonts/zerothre.ttf
1085.484	n/a	START	542742	n/a	LTP131	ltpFR	10	n/a	n/a	n/a	n/a	n/a	n/a	n/a	n/a	n/a	n/a	n/a	n/a	n/a	n/a	n/a
1086.392	n/a	PROB	543196	n/a	LTP131	ltpFR	10	n/a	n/a	n/a	n/a	n/a	n/a	13	4	4	5	n/a	n/a	n/a	n/a	n/a
1087.81	n/a	PROB	543905	n/a	LTP131	ltpFR	10	n/a	n/a	n/a	n/a	n/a	n/a	16	8	2	6	n/a	n/a	n/a	n/a	n/a
1089.484	n/a	PROB	544742	n/a	LTP131	ltpFR	10	n/a	n/a	n/a	n/a	n/a	n/a	17	3	7	7	n/a	n/a	n/a	n/a	n/a
1090.9	n/a	PROB	545450	n/a	LTP131	ltpFR	10	n/a	n/a	n/a	n/a	n/a	n/a	12	2	1	9	n/a	n/a	n/a	n/a	n/a
1092.2	n/a	STOP	546100	n/a	LTP131	ltpFR	10	n/a	n/a	n/a	n/a	n/a	n/a	n/a	n/a	n/a	n/a	n/a	n/a	n/a	n/a	n/a
1094.316	n/a	WORD	547158	wordpools/wasnorm_wordpool.txt	LTP131	ltpFR	10	4	1	BANDAGE	79	n/a	0	n/a	0	0	0	0	0.5869140625	0.422607421875	upper	../fonts/zerothre.ttf
1097.322	n/a	START	548661	n/a	LTP131	ltpFR	10	n/a	n/a	n/a	n/a	n/a	n/a	n/a	n/a	n/a	n/a	n/a	n/a	n/a	n/a	n/a
1098.222	n/a	PROB	549111	n/a	LTP131	ltpFR	10	n/a	n/a	n/a	n/a	n/a	n/a	16	9	3	4	n/a	n/a	n/a	n/a	n/a
1100.272	n/a	PROB	550136	n/a	LTP131	ltpFR	10	n/a	n/a	n/a	n/a	n/a	n/a	18	4	5	9	n/a	n/a	n/a	n/a	n/a
1101.712	n/a	PROB	550856	n/a	LTP131	ltpFR	10	n/a	n/a	n/a	n/a	n/a	n/a	14	3	3	8	n/a	n/a	n/a	n/a	n/a
1103.362	n/a	PROB	551681	n/a	LTP131	ltpFR	10	n/a	n/a	n/a	n/a	n/a	n/a	6	1	2	3	n/a	n/a	n/a	n/a	n/a
1104.696	n/a	STOP	552348	n/a	LTP131	ltpFR	10	n/a	n/a	n/a	n/a	n/a	n/a	n/a	n/a	n/a	n/a	n/a	n/a	n/a	n/a	n/a
1106.238	n/a	WORD	553119	wordpools/wasnorm_wordpool.txt	LTP131	ltpFR	10	4	1	CAR	241	n/a	0	n/a	0	0	0	0	0.5869140625	0.422607421875	upper	../fonts/zerothre.ttf
1109.244	n/a	START	554622	n/a	LTP131	ltpFR	10	n/a	n/a	n/a	n/a	n/a	n/a	n/a	n/a	n/a	n/a	n/a	n/a	n/a	n/a	n/a
1110.068	n/a	PROB	555034	n/a	LTP131	ltpFR	10	n/a	n/a	n/a	n/a	n/a	n/a	18	9	6	3	n/a	n/a	n/a	n/a	n/a
1111.66	n/a	PROB	555830	n/a	LTP131	ltpFR	10	n/a	n/a	n/a	n/a	n/a	n/a	14	4	1	9	n/a	n/a	n/a	n/a	n/a
1113.184	n/a	PROB	556592	n/a	LTP131	ltpFR	10	n/a	n/a	n/a	n/a	n/a	n/a	21	6	8	7	n/a	n/a	n/a	n/a	n/a
1114.942	n/a	PROB	557471	n/a	LTP131	ltpFR	10	n/a	n/a	n/a	n/a	n/a	n/a	8	2	3	2	n/a	n/a	n/a	n/a	n/a
1117.056	n/a	STOP	558528	n/a	LTP131	ltpFR	10	n/a	n/a	n/a	n/a	n/a	n/a	n/a	n/a	n/a	n/a	n/a	n/a	n/a	n/a	n/a
1118.432	n/a	WORD	559216	wordpools/wasnorm_wordpool.txt	LTP131	ltpFR	10	4	1	PEARL	1034	n/a	0	n/a	0	0	0	0	0.5869140625	0.422607421875	upper	../fonts/zerothre.ttf
1121.44	n/a	START	560720	n/a	LTP131	ltpFR	10	n/a	n/a	n/a	n/a	n/a	n/a	n/a	n/a	n/a	n/a	n/a	n/a	n/a	n/a	n/a
1122.364	n/a	PROB	561182	n/a	LTP131	ltpFR	10	n/a	n/a	n/a	n/a	n/a	n/a	19	6	5	8	n/a	n/a	n/a	n/a	n/a
1124.156	n/a	PROB	562078	n/a	LTP131	ltpFR	10	n/a	n/a	n/a	n/a	n/a	n/a	13	6	2	5	n/a	n/a	n/a	n/a	n/a
1125.822	n/a	PROB	562911	n/a	LTP131	ltpFR	10	n/a	n/a	n/a	n/a	n/a	n/a	18	7	5	6	n/a	n/a	n/a	n/a	n/a
1129.338	n/a	STOP	564669	n/a	LTP131	ltpFR	10	n/a	n/a	n/a	n/a	n/a	n/a	n/a	n/a	n/a	n/a	n/a	n/a	n/a	n/a	n/a
1131.272	n/a	REC_START	565636	n/a	LTP131	ltpFR	10	4	n/a	n/a	n/a	n/a	n/a	n/a	0	0	0	n/a	n/a	n/a	n/a	n/a
1132.17	n/a	REC_WORD	566085	wordpools/wasnorm_wordpool.txt	LTP131	ltpFR	10	4	1	PEARL	1034	n/a	0	n/a	0	0	0	n/a	n/a	n/a	n/a	n/a
1132.938	n/a	REC_WORD	566469	wordpools/wasnorm_wordpool.txt	LTP131	ltpFR	10	4	1	CAR	241	n/a	0	n/a	0	0	0	n/a	n/a	n/a	n/a	n/a
1134.06	n/a	REC_WORD	567030	wordpools/wasnorm_wordpool.txt	LTP131	ltpFR	10	4	1	BANDAGE	79	n/a	0	n/a	0	0	0	n/a	n/a	n/a	n/a	n/a
1135.138	n/a	REC_WORD	567569	wordpools/wasnorm_wordpool.txt	LTP131	ltpFR	10	4	1	COOK	372	n/a	1	n/a	0	0	0	n/a	n/a	n/a	n/a	n/a
1136.07	n/a	REC_WORD	568035	wordpools/wasnorm_wordpool.txt	LTP131	ltpFR	10	4	1	OYSTER	995	n/a	1	n/a	0	0	0	n/a	n/a	n/a	n/a	n/a
1137.308	n/a	REC_WORD	568654	wordpools/wasnorm_wordpool.txt	LTP131	ltpFR	10	4	1	WAITER	1580	n/a	1	n/a	0	0	0	n/a	n/a	n/a	n/a	n/a
1138.48	n/a	REC_WORD	569240	wordpools/wasnorm_wordpool.txt	LTP131	ltpFR	10	4	1	COOKBOOK	373	n/a	0	n/a	0	0	0	n/a	n/a	n/a	n/a	n/a
1139.458	n/a	REC_WORD	569729	wordpools/wasnorm_wordpool.txt	LTP131	ltpFR	10	4	1	NECKLACE	940	n/a	0	n/a	0	0	0	n/a	n/a	n/a	n/a	n/a
1149.944	n/a	REC_WORD	574972	wordpools/wasnorm_wordpool.txt	LTP131	ltpFR	10	4	1	BRAKE	166	n/a	0	n/a	0	0	0	n/a	n/a	n/a	n/a	n/a
1150.812	n/a	REC_WORD	575406	wordpools/wasnorm_wordpool.txt	LTP131	ltpFR	10	4	1	TRUCK	1512	n/a	0	n/a	0	0	0	n/a	n/a	n/a	n/a	n/a
1151.69	n/a	REC_WORD	575845	wordpools/wasnorm_wordpool.txt	LTP131	ltpFR	10	4	1	CANOE	233	n/a	0	n/a	0	0	0	n/a	n/a	n/a	n/a	n/a
1217.402	n/a	WORD	608701	wordpools/wasnorm_wordpool.txt	LTP131	ltpFR	10	5	0	ROBIN	1199	n/a	0	n/a	0	0	0	1	0.412841796875	0.57763671875	lower	../fonts/amplitud.ttf
1221.586	n/a	WORD	610793	wordpools/wasnorm_wordpool.txt	LTP131	ltpFR	10	5	0	SIGNATURE	1306	n/a	0	n/a	0	0	0	1	0.412841796875	0.57763671875	lower	../fonts/amplitud.ttf
1225.508	n/a	WORD	612754	wordpools/wasnorm_wordpool.txt	LTP131	ltpFR	10	5	0	SILVERWARE	1308	n/a	0	n/a	0	0	0	1	0.412841796875	0.57763671875	lower	../fonts/amplitud.ttf
1229.708	n/a	WORD	614854	wordpools/wasnorm_wordpool.txt	LTP131	ltpFR	10	5	0	TEMPLE	1448	n/a	1	n/a	0	0	0	1	0.412841796875	0.57763671875	lower	../fonts/amplitud.ttf
1233.906	n/a	WORD	616953	wordpools/wasnorm_wordpool.txt	LTP131	ltpFR	10	5	1	RODENT	1204	n/a	1	n/a	0	0	0	0	0.5869140625	0.422607421875	upper	../fonts/zerothre.ttf
1237.788	n/a	WORD	618894	wordpools/wasnorm_wordpool.txt	LTP131	ltpFR	10	5	1	RIFLE	1192	n/a	0	n/a	0	0	0	0	0.5869140625	0.422607421875	upper	../fonts/zerothre.ttf
1241.62	n/a	WORD	620810	wordpools/wasnorm_wordpool.txt	LTP131	ltpFR	10	5	1	PELT	1040	n/a	0	n/a	0	0	0	0	0.5869140625	0.422607421875	upper	../fonts/zerothre.ttf
1245.52	n/a	WORD	622760	wordpools/wasnorm_wordpool.txt	LTP131	ltpFR	10	5	1	CANARY	227	n/a	1	n/a	0	0	0	0	0.5869140625	0.422607421875	upper	../fonts/zerothre.ttf
1249.584	n/a	WORD	624792	wordpools/wasnorm_wordpool.txt	LTP131	ltpFR	10	5	1	BILL	126	n/a	0	n/a	0	0	0	0	0.5869140625	0.422607421875	upper	../fonts/zerothre.ttf
1253.6	n/a	WORD	626800	wordpools/wasnorm_wordpool.txt	LTP131	ltpFR	10	5	1	BLANKET	135	n/a	0	n/a	0	0	0	0	0.5869140625	0.422607421875	upper	../fonts/zerothre.ttf
1257.666	n/a	WORD	628833	wordpools/wasnorm_wordpool.txt	LTP131	ltpFR	10	5	0	GOAT	644	n/a	1	n/a	0	0	0	1	0.412841796875	0.57763671875	lower	../fonts/amplitud.ttf
1261.574	n/a	WORD	630787	wordpools/wasnorm_wordpool.txt	LTP131	ltpFR	10	5	0	GALLON	618	n/a	1	n/a	0	0	0	1	0.412841796875	0.57763671875	lower	../fonts/amplitud.ttf
1265.704	n/a	WORD	632852	wordpools/wasnorm_wordpool.txt	LTP131	ltpFR	10	5	0	HOUND	724	n/a	1	n/a	0	0	0	1	0.412841796875	0.57763671875	lower	../fonts/amplitud.ttf
1269.77	n/a	WORD	634885	wordpools/wasnorm_wordpool.txt	LTP131	ltpFR	10	5	0	PUPPY	1144	n/a	1	n/a	0	0	0	1	0.412841796875	0.57763671875	lower	../fonts/amplitud.ttf
1273.594	n/a	WORD	636797	wordpools/wasnorm_wordpool.txt	LTP131	ltpFR	10	5	1	PADDING	999	n/a	0	n/a	0	0	0	0	0.5869140625	0.422607421875	upper	../fonts/zerothre.ttf
1277.652	n/a	WORD	638826	wordpools/wasnorm_wordpool.txt	LTP131	ltpFR	10	5	1	ADULT	8	n/a	1	n/a	0	0	0	0	0.5869140625	0.422607421875	upper	../fonts/zerothre.ttf
1283.576	n/a	REC_START	641788	n/a	LTP131	ltpFR	10	5	n/a	n/a	n/a	n/a	n/a	n/a	0	0	0	n/a	n/a	n/a	n/a	n/a
1284.148	n/a	REC_WORD	642074	wordpools/wasnorm_wordpool.txt	LTP131	ltpFR	10	5	1	ADULT	8	n/a	1	n/a	0	0	0	n/a	n/a	n/a	n/a	n/a
1284.912	n/a	REC_WORD	642456	wordpools/wasnorm_wordpool.txt	LTP131	ltpFR	10	5	1	RODENT	1204	n/a	1	n/a	0	0	0	n/a	n/a	n/a	n/a	n/a
1285.8	n/a	REC_WORD	642900	wordpools/wasnorm_wordpool.txt	LTP131	ltpFR	10	5	1	PADDING	999	n/a	0	n/a	0	0	0	n/a	n/a	n/a	n/a	n/a
1286.758	n/a	REC_WORD	643379	wordpools/wasnorm_wordpool.txt	LTP131	ltpFR	10	5	1	BLANKET	135	n/a	0	n/a	0	0	0	n/a	n/a	n/a	n/a	n/a
1288.21	n/a	REC_WORD	644105	wordpools/wasnorm_wordpool.txt	LTP131	ltpFR	10	5	1	RIFLE	1192	n/a	0	n/a	0	0	0	n/a	n/a	n/a	n/a	n/a
1289.312	n/a	REC_WORD	644656	wordpools/wasnorm_wordpool.txt	LTP131	ltpFR	10	5	1	PELT	1040	n/a	0	n/a	0	0	0	n/a	n/a	n/a	n/a	n/a
1290.854	n/a	REC_WORD	645427	wordpools/wasnorm_wordpool.txt	LTP131	ltpFR	10	5	0	TEMPLE	1448	n/a	1	n/a	0	0	0	n/a	n/a	n/a	n/a	n/a
1291.752	n/a	REC_WORD	645876	wordpools/wasnorm_wordpool.txt	LTP131	ltpFR	10	5	0	HOUND	724	n/a	1	n/a	0	0	0	n/a	n/a	n/a	n/a	n/a
1292.82	n/a	REC_WORD	646410	wordpools/wasnorm_wordpool.txt	LTP131	ltpFR	10	5	0	PUPPY	1144	n/a	1	n/a	0	0	0	n/a	n/a	n/a	n/a	n/a
1296.856	n/a	REC_WORD	648428	wordpools/wasnorm_wordpool.txt	LTP131	ltpFR	10	5	0	GOAT	644	n/a	1	n/a	0	0	0	n/a	n/a	n/a	n/a	n/a
1303.076	n/a	REC_WORD	651538	wordpools/wasnorm_wordpool.txt	LTP131	ltpFR	10	5	0	SIGNATURE	1306	n/a	0	n/a	0	0	0	n/a	n/a	n/a	n/a	n/a
1304.598	n/a	REC_WORD	652299	wordpools/wasnorm_wordpool.txt	LTP131	ltpFR	10	5	0	ROBIN	1199	n/a	0	n/a	0	0	0	n/a	n/a	n/a	n/a	n/a
1306.694	n/a	REC_WORD	653347	wordpools/wasnorm_wordpool.txt	LTP131	ltpFR	10	5	0	SILVERWARE	1308	n/a	0	n/a	0	0	0	n/a	n/a	n/a	n/a	n/a
1308.18	n/a	REC_WORD	654090	wordpools/wasnorm_wordpool.txt	LTP131	ltpFR	10	5	1	CANARY	227	n/a	1	n/a	0	0	0	n/a	n/a	n/a	n/a	n/a
1369.206	n/a	START	684603	n/a	LTP131	ltpFR	10	n/a	n/a	n/a	n/a	n/a	n/a	n/a	n/a	n/a	n/a	n/a	n/a	n/a	n/a	n/a
1370.714	n/a	PROB	685357	n/a	LTP131	ltpFR	10	n/a	n/a	n/a	n/a	n/a	n/a	20	8	4	8	n/a	n/a	n/a	n/a	n/a
1372.472	n/a	PROB	686236	n/a	LTP131	ltpFR	10	n/a	n/a	n/a	n/a	n/a	n/a	6	3	1	2	n/a	n/a	n/a	n/a	n/a
1374.998	n/a	PROB	687499	n/a	LTP131	ltpFR	10	n/a	n/a	n/a	n/a	n/a	n/a	20	7	6	7	n/a	n/a	n/a	n/a	n/a
1376.264	n/a	PROB	688132	n/a	LTP131	ltpFR	10	n/a	n/a	n/a	n/a	n/a	n/a	18	7	3	8	n/a	n/a	n/a	n/a	n/a
1377.662	n/a	PROB	688831	n/a	LTP131	ltpFR	10	n/a	n/a	n/a	n/a	n/a	n/a	17	4	9	4	n/a	n/a	n/a	n/a	n/a
1379.612	n/a	PROB	689806	n/a	LTP131	ltpFR	10	n/a	n/a	n/a	n/a	n/a	n/a	17	8	3	6	n/a	n/a	n/a	n/a	n/a
1381.204	n/a	PROB	690602	n/a	LTP131	ltpFR	10	n/a	n/a	n/a	n/a	n/a	n/a	11	1	5	5	n/a	n/a	n/a	n/a	n/a
1382.378	n/a	PROB	691189	n/a	LTP131	ltpFR	10	n/a	n/a	n/a	n/a	n/a	n/a	18	3	7	8	n/a	n/a	n/a	n/a	n/a
1383.678	n/a	STOP	691839	n/a	LTP131	ltpFR	10	n/a	n/a	n/a	n/a	n/a	n/a	n/a	n/a	n/a	n/a	n/a	n/a	n/a	n/a	n/a
1386.152	n/a	WORD	693076	wordpools/wasnorm_wordpool.txt	LTP131	ltpFR	10	6	1	LAMB	797	n/a	1	n/a	0	0	0	0	0.5869140625	0.422607421875	upper	../fonts/zerothre.ttf
1389.16	n/a	START	694580	n/a	LTP131	ltpFR	10	n/a	n/a	n/a	n/a	n/a	n/a	n/a	n/a	n/a	n/a	n/a	n/a	n/a	n/a	n/a
1390.134	n/a	PROB	695067	n/a	LTP131	ltpFR	10	n/a	n/a	n/a	n/a	n/a	n/a	20	4	9	7	n/a	n/a	n/a	n/a	n/a
1391.95	n/a	PROB	695975	n/a	LTP131	ltpFR	10	n/a	n/a	n/a	n/a	n/a	n/a	20	7	9	4	n/a	n/a	n/a	n/a	n/a
1394.092	n/a	PROB	697046	n/a	LTP131	ltpFR	10	n/a	n/a	n/a	n/a	n/a	n/a	16	9	4	3	n/a	n/a	n/a	n/a	n/a
1396.008	n/a	PROB	698004	n/a	LTP131	ltpFR	10	n/a	n/a	n/a	n/a	n/a	n/a	9	2	3	4	n/a	n/a	n/a	n/a	n/a
1397.606	n/a	PROB	698803	n/a	LTP131	ltpFR	10	n/a	n/a	n/a	n/a	n/a	n/a	13	2	5	6	n/a	n/a	n/a	n/a	n/a
1399.714	n/a	PROB	699857	n/a	LTP131	ltpFR	10	n/a	n/a	n/a	n/a	n/a	n/a	22	8	5	9	n/a	n/a	n/a	n/a	n/a
1402.146	n/a	PROB	701073	n/a	LTP131	ltpFR	10	n/a	n/a	n/a	n/a	n/a	n/a	23	9	9	5	n/a	n/a	n/a	n/a	n/a
1404.76	n/a	STOP	702380	n/a	LTP131	ltpFR	10	n/a	n/a	n/a	n/a	n/a	n/a	n/a	n/a	n/a	n/a	n/a	n/a	n/a	n/a	n/a
1406.046	n/a	WORD	703023	wordpools/wasnorm_wordpool.txt	LTP131	ltpFR	10	6	1	CHICKEN	297	n/a	1	n/a	0	0	0	0	0.5869140625	0.422607421875	upper	../fonts/zerothre.ttf
1409.054	n/a	START	704527	n/a	LTP131	ltpFR	10	n/a	n/a	n/a	n/a	n/a	n/a	n/a	n/a	n/a	n/a	n/a	n/a	n/a	n/a	n/a
1410.194	n/a	PROB	705097	n/a	LTP131	ltpFR	10	n/a	n/a	n/a	n/a	n/a	n/a	20	5	9	6	n/a	n/a	n/a	n/a	n/a
1411.428	n/a	PROB	705714	n/a	LTP131	ltpFR	10	n/a	n/a	n/a	n/a	n/a	n/a	19	7	7	5	n/a	n/a	n/a	n/a	n/a
1413.152	n/a	PROB	706576	n/a	LTP131	ltpFR	10	n/a	n/a	n/a	n/a	n/a	n/a	17	7	1	9	n/a	n/a	n/a	n/a	n/a
1415.676	n/a	PROB	707838	n/a	LTP131	ltpFR	10	n/a	n/a	n/a	n/a	n/a	n/a	19	6	4	9	n/a	n/a	n/a	n/a	n/a
1417.126	n/a	PROB	708563	n/a	LTP131	ltpFR	10	n/a	n/a	n/a	n/a	n/a	n/a	16	6	4	6	n/a	n/a	n/a	n/a	n/a
1419.176	n/a	PROB	709588	n/a	LTP131	ltpFR	10	n/a	n/a	n/a	n/a	n/a	n/a	18	9	8	1	n/a	n/a	n/a	n/a	n/a
1421.032	n/a	PROB	710516	n/a	LTP131	ltpFR	10	n/a	n/a	n/a	n/a	n/a	n/a	14	4	6	4	n/a	n/a	n/a	n/a	n/a
1422.924	n/a	PROB	711462	n/a	LTP131	ltpFR	10	n/a	n/a	n/a	n/a	n/a	n/a	17	3	7	7	n/a	n/a	n/a	n/a	n/a
1424.656	n/a	STOP	712328	n/a	LTP131	ltpFR	10	n/a	n/a	n/a	n/a	n/a	n/a	n/a	n/a	n/a	n/a	n/a	n/a	n/a	n/a	n/a
1426.022	n/a	WORD	713011	wordpools/wasnorm_wordpool.txt	LTP131	ltpFR	10	6	1	DESIGNER	451	n/a	1	n/a	0	0	0	0	0.5869140625	0.422607421875	upper	../fonts/zerothre.ttf
1429.03	n/a	START	714515	n/a	LTP131	ltpFR	10	n/a	n/a	n/a	n/a	n/a	n/a	n/a	n/a	n/a	n/a	n/a	n/a	n/a	n/a	n/a
1430.214	n/a	PROB	715107	n/a	LTP131	ltpFR	10	n/a	n/a	n/a	n/a	n/a	n/a	15	4	4	7	n/a	n/a	n/a	n/a	n/a
1432.072	n/a	PROB	716036	n/a	LTP131	ltpFR	10	n/a	n/a	n/a	n/a	n/a	n/a	14	4	3	7	n/a	n/a	n/a	n/a	n/a
1433.73	n/a	PROB	716865	n/a	LTP131	ltpFR	10	n/a	n/a	n/a	n/a	n/a	n/a	12	8	2	2	n/a	n/a	n/a	n/a	n/a
1435.862	n/a	PROB	717931	n/a	LTP131	ltpFR	10	n/a	n/a	n/a	n/a	n/a	n/a	11	4	2	5	n/a	n/a	n/a	n/a	n/a
1437.294	n/a	PROB	718647	n/a	LTP131	ltpFR	10	n/a	n/a	n/a	n/a	n/a	n/a	12	7	4	1	n/a	n/a	n/a	n/a	n/a
1438.66	n/a	PROB	719330	n/a	LTP131	ltpFR	10	n/a	n/a	n/a	n/a	n/a	n/a	11	2	5	4	n/a	n/a	n/a	n/a	n/a
1440.31	n/a	PROB	720155	n/a	LTP131	ltpFR	10	n/a	n/a	n/a	n/a	n/a	n/a	8	4	3	1	n/a	n/a	n/a	n/a	n/a
1442.002	n/a	PROB	721001	n/a	LTP131	ltpFR	10	n/a	n/a	n/a	n/a	n/a	n/a	22	7	8	7	n/a	n/a	n/a	n/a	n/a
1443.866	n/a	STOP	721933	n/a	LTP131	ltpFR	10	n/a	n/a	n/a	n/a	n/a	n/a	n/a	n/a	n/a	n/a	n/a	n/a	n/a	n/a	n/a
1446.1	n/a	WORD	723050	wordpools/wasnorm_wordpool.txt	LTP131	ltpFR	10	6	1	BOMB	147	n/a	0	n/a	0	0	0	0	0.5869140625	0.422607421875	upper	../fonts/zerothre.ttf
1449.108	n/a	START	724554	n/a	LTP131	ltpFR	10	n/a	n/a	n/a	n/a	n/a	n/a	n/a	n/a	n/a	n/a	n/a	n/a	n/a	n/a	n/a
1450.042	n/a	PROB	725021	n/a	LTP131	ltpFR	10	n/a	n/a	n/a	n/a	n/a	n/a	20	9	8	3	n/a	n/a	n/a	n/a	n/a
1451.632	n/a	PROB	725816	n/a	LTP131	ltpFR	10	n/a	n/a	n/a	n/a	n/a	n/a	22	7	7	8	n/a	n/a	n/a	n/a	n/a
1454.816	n/a	PROB	727408	n/a	LTP131	ltpFR	10	n/a	n/a	n/a	n/a	n/a	n/a	20	7	7	6	n/a	n/a	n/a	n/a	n/a
1456.33	n/a	PROB	728165	n/a	LTP131	ltpFR	10	n/a	n/a	n/a	n/a	n/a	n/a	14	7	2	5	n/a	n/a	n/a	n/a	n/a
1458.954	n/a	PROB	729477	n/a	LTP131	ltpFR	10	n/a	n/a	n/a	n/a	n/a	n/a	18	5	6	7	n/a	n/a	n/a	n/a	n/a
1460.662	n/a	PROB	730331	n/a	LTP131	ltpFR	10	n/a	n/a	n/a	n/a	n/a	n/a	18	7	7	4	n/a	n/a	n/a	n/a	n/a
1462.062	n/a	PROB	731031	n/a	LTP131	ltpFR	10	n/a	n/a	n/a	n/a	n/a	n/a	12	6	6	2	n/a	n/a	n/a	n/a	n/a
1463.552	n/a	PROB	731776	n/a	LTP131	ltpFR	10	n/a	n/a	n/a	n/a	n/a	n/a	18	6	6	6	n/a	n/a	n/a	n/a	n/a
1465.042	n/a	STOP	732521	n/a	LTP131	ltpFR	10	n/a	n/a	n/a	n/a	n/a	n/a	n/a	n/a	n/a	n/a	n/a	n/a	n/a	n/a	n/a
1466.21	n/a	WORD	733105	wordpools/wasnorm_wordpool.txt	LTP131	ltpFR	10	6	0	DYNAMITE	511	n/a	1	n/a	0	0	0	1	0.412841796875	0.57763671875	lower	../fonts/amplitud.ttf
1469.22	n/a	START	734610	n/a	LTP131	ltpFR	10	n/a	n/a	n/a	n/a	n/a	n/a	n/a	n/a	n/a	n/a	n/a	n/a	n/a	n/a	n/a
1470.31	n/a	PROB	735155	n/a	LTP131	ltpFR	10	n/a	n/a	n/a	n/a	n/a	n/a	21	6	9	6	n/a	n/a	n/a	n/a	n/a
1472.46	n/a	PROB	736230	n/a	LTP131	ltpFR	10	n/a	n/a	n/a	n/a	n/a	n/a	21	7	7	7	n/a	n/a	n/a	n/a	n/a
1473.726	n/a	PROB	736863	n/a	LTP131	ltpFR	10	n/a	n/a	n/a	n/a	n/a	n/a	19	7	5	7	n/a	n/a	n/a	n/a	n/a
1478.04	n/a	PROB	739020	n/a	LTP131	ltpFR	10	n/a	n/a	n/a	n/a	n/a	n/a	16	3	9	4	n/a	n/a	n/a	n/a	n/a
1480.214	n/a	PROB	740107	n/a	LTP131	ltpFR	10	n/a	n/a	n/a	n/a	n/a	n/a	7	3	3	1	n/a	n/a	n/a	n/a	n/a
1481.656	n/a	PROB	740828	n/a	LTP131	ltpFR	10	n/a	n/a	n/a	n/a	n/a	n/a	10	1	5	4	n/a	n/a	n/a	n/a	n/a
1483.546	n/a	PROB	741773	n/a	LTP131	ltpFR	10	n/a	n/a	n/a	n/a	n/a	n/a	12	2	8	2	n/a	n/a	n/a	n/a	n/a
1484.876	n/a	STOP	742438	n/a	LTP131	ltpFR	10	n/a	n/a	n/a	n/a	n/a	n/a	n/a	n/a	n/a	n/a	n/a	n/a	n/a	n/a	n/a
1486.038	n/a	WORD	743019	wordpools/wasnorm_wordpool.txt	LTP131	ltpFR	10	6	0	LOAF	835	n/a	0	n/a	0	0	0	1	0.412841796875	0.57763671875	lower	../fonts/amplitud.ttf
1489.046	n/a	START	744523	n/a	LTP131	ltpFR	10	n/a	n/a	n/a	n/a	n/a	n/a	n/a	n/a	n/a	n/a	n/a	n/a	n/a	n/a	n/a
1489.854	n/a	PROB	744927	n/a	LTP131	ltpFR	10	n/a	n/a	n/a	n/a	n/a	n/a	13	6	3	4	n/a	n/a	n/a	n/a	n/a
1491.37	n/a	PROB	745685	n/a	LTP131	ltpFR	10	n/a	n/a	n/a	n/a	n/a	n/a	22	9	6	8	n/a	n/a	n/a	n/a	n/a
1493.678	n/a	PROB	746839	n/a	LTP131	ltpFR	10	n/a	n/a	n/a	n/a	n/a	n/a	14	5	8	3	n/a	n/a	n/a	n/a	n/a
1495.46	n/a	PROB	747730	n/a	LTP131	ltpFR	10	n/a	n/a	n/a	n/a	n/a	n/a	14	2	7	5	n/a	n/a	n/a	n/a	n/a
1497.784	n/a	PROB	748892	n/a	LTP131	ltpFR	10	n/a	n/a	n/a	n/a	n/a	n/a	12	9	2	1	n/a	n/a	n/a	n/a	n/a
1499.084	n/a	PROB	749542	n/a	LTP131	ltpFR	10	n/a	n/a	n/a	n/a	n/a	n/a	6	3	2	1	n/a	n/a	n/a	n/a	n/a
1500.866	n/a	PROB	750433	n/a	LTP131	ltpFR	10	n/a	n/a	n/a	n/a	n/a	n/a	13	5	5	3	n/a	n/a	n/a	n/a	n/a
1502.158	n/a	PROB	751079	n/a	LTP131	ltpFR	10	n/a	n/a	n/a	n/a	n/a	n/a	14	3	7	4	n/a	n/a	n/a	n/a	n/a
1503.756	n/a	STOP	751878	n/a	LTP131	ltpFR	10	n/a	n/a	n/a	n/a	n/a	n/a	n/a	n/a	n/a	n/a	n/a	n/a	n/a	n/a	n/a
1505.964	n/a	WORD	752982	wordpools/wasnorm_wordpool.txt	LTP131	ltpFR	10	6	1	GARLIC	624	n/a	0	n/a	0	0	0	0	0.5869140625	0.422607421875	upper	../fonts/zerothre.ttf
1508.974	n/a	START	754487	n/a	LTP131	ltpFR	10	n/a	n/a	n/a	n/a	n/a	n/a	n/a	n/a	n/a	n/a	n/a	n/a	n/a	n/a	n/a
1510.032	n/a	PROB	755016	n/a	LTP131	ltpFR	10	n/a	n/a	n/a	n/a	n/a	n/a	12	2	1	9	n/a	n/a	n/a	n/a	n/a
1511.648	n/a	PROB	755824	n/a	LTP131	ltpFR	10	n/a	n/a	n/a	n/a	n/a	n/a	26	8	9	9	n/a	n/a	n/a	n/a	n/a
1515.304	n/a	PROB	757652	n/a	LTP131	ltpFR	10	n/a	n/a	n/a	n/a	n/a	n/a	12	2	1	9	n/a	n/a	n/a	n/a	n/a
1517.054	n/a	PROB	758527	n/a	LTP131	ltpFR	10	n/a	n/a	n/a	n/a	n/a	n/a	16	4	8	4	n/a	n/a	n/a	n/a	n/a
1519.128	n/a	PROB	759564	n/a	LTP131	ltpFR	10	n/a	n/a	n/a	n/a	n/a	n/a	13	3	8	2	n/a	n/a	n/a	n/a	n/a
1520.544	n/a	PROB	760272	n/a	LTP131	ltpFR	10	n/a	n/a	n/a	n/a	n/a	n/a	10	4	5	1	n/a	n/a	n/a	n/a	n/a
1522.344	n/a	PROB	761172	n/a	LTP131	ltpFR	10	n/a	n/a	n/a	n/a	n/a	n/a	18	4	5	9	n/a	n/a	n/a	n/a	n/a
1524.254	n/a	STOP	762127	n/a	LTP131	ltpFR	10	n/a	n/a	n/a	n/a	n/a	n/a	n/a	n/a	n/a	n/a	n/a	n/a	n/a	n/a	n/a
1526.002	n/a	WORD	763001	wordpools/wasnorm_wordpool.txt	LTP131	ltpFR	10	6	1	VENT	1556	n/a	0	n/a	0	0	0	0	0.5869140625	0.422607421875	upper	../fonts/zerothre.ttf
1529.01	n/a	START	764505	n/a	LTP131	ltpFR	10	n/a	n/a	n/a	n/a	n/a	n/a	n/a	n/a	n/a	n/a	n/a	n/a	n/a	n/a	n/a
1530.208	n/a	PROB	765104	n/a	LTP131	ltpFR	10	n/a	n/a	n/a	n/a	n/a	n/a	16	3	9	4	n/a	n/a	n/a	n/a	n/a
1532.04	n/a	PROB	766020	n/a	LTP131	ltpFR	10	n/a	n/a	n/a	n/a	n/a	n/a	18	7	9	2	n/a	n/a	n/a	n/a	n/a
1534.74	n/a	PROB	767370	n/a	LTP131	ltpFR	10	n/a	n/a	n/a	n/a	n/a	n/a	6	2	3	1	n/a	n/a	n/a	n/a	n/a
1536.122	n/a	PROB	768061	n/a	LTP131	ltpFR	10	n/a	n/a	n/a	n/a	n/a	n/a	18	8	3	7	n/a	n/a	n/a	n/a	n/a
1537.772	n/a	PROB	768886	n/a	LTP131	ltpFR	10	n/a	n/a	n/a	n/a	n/a	n/a	6	1	3	2	n/a	n/a	n/a	n/a	n/a
1539.78	n/a	PROB	769890	n/a	LTP131	ltpFR	10	n/a	n/a	n/a	n/a	n/a	n/a	14	5	5	4	n/a	n/a	n/a	n/a	n/a
1541.254	n/a	PROB	770627	n/a	LTP131	ltpFR	10	n/a	n/a	n/a	n/a	n/a	n/a	17	6	2	9	n/a	n/a	n/a	n/a	n/a
1542.846	n/a	PROB	771423	n/a	LTP131	ltpFR	10	n/a	n/a	n/a	n/a	n/a	n/a	16	3	4	9	n/a	n/a	n/a	n/a	n/a
1544.576	n/a	STOP	772288	n/a	LTP131	ltpFR	10	n/a	n/a	n/a	n/a	n/a	n/a	n/a	n/a	n/a	n/a	n/a	n/a	n/a	n/a	n/a
1545.936	n/a	WORD	772968	wordpools/wasnorm_wordpool.txt	LTP131	ltpFR	10	6	1	RIBBON	1189	n/a	0	n/a	0	0	0	0	0.5869140625	0.422607421875	upper	../fonts/zerothre.ttf
1548.944	n/a	START	774472	n/a	LTP131	ltpFR	10	n/a	n/a	n/a	n/a	n/a	n/a	n/a	n/a	n/a	n/a	n/a	n/a	n/a	n/a	n/a
1550.068	n/a	PROB	775034	n/a	LTP131	ltpFR	10	n/a	n/a	n/a	n/a	n/a	n/a	11	2	8	1	n/a	n/a	n/a	n/a	n/a
1551.386	n/a	PROB	775693	n/a	LTP131	ltpFR	10	n/a	n/a	n/a	n/a	n/a	n/a	13	1	4	8	n/a	n/a	n/a	n/a	n/a
1553.168	n/a	PROB	776584	n/a	LTP131	ltpFR	10	n/a	n/a	n/a	n/a	n/a	n/a	16	6	1	9	n/a	n/a	n/a	n/a	n/a
1557.842	n/a	PROB	778921	n/a	LTP131	ltpFR	10	n/a	n/a	n/a	n/a	n/a	n/a	10	2	3	5	n/a	n/a	n/a	n/a	n/a
1559.548	n/a	PROB	779774	n/a	LTP131	ltpFR	10	n/a	n/a	n/a	n/a	n/a	n/a	15	6	3	6	n/a	n/a	n/a	n/a	n/a
1561.49	n/a	PROB	780745	n/a	LTP131	ltpFR	10	n/a	n/a	n/a	n/a	n/a	n/a	17	6	3	8	n/a	n/a	n/a	n/a	n/a
1563.826	n/a	STOP	781913	n/a	LTP131	ltpFR	10	n/a	n/a	n/a	n/a	n/a	n/a	n/a	n/a	n/a	n/a	n/a	n/a	n/a	n/a	n/a
1565.824	n/a	WORD	782912	wordpools/wasnorm_wordpool.txt	LTP131	ltpFR	10	6	1	SPICE	1350	n/a	0	n/a	0	0	0	0	0.5869140625	0.422607421875	upper	../fonts/zerothre.ttf
1568.832	n/a	START	784416	n/a	LTP131	ltpFR	10	n/a	n/a	n/a	n/a	n/a	n/a	n/a	n/a	n/a	n/a	n/a	n/a	n/a	n/a	n/a
1569.93	n/a	PROB	784965	n/a	LTP131	ltpFR	10	n/a	n/a	n/a	n/a	n/a	n/a	21	6	7	8	n/a	n/a	n/a	n/a	n/a
1571.804	n/a	PROB	785902	n/a	LTP131	ltpFR	10	n/a	n/a	n/a	n/a	n/a	n/a	11	3	3	5	n/a	n/a	n/a	n/a	n/a
1573.12	n/a	PROB	786560	n/a	LTP131	ltpFR	10	n/a	n/a	n/a	n/a	n/a	n/a	17	8	2	7	n/a	n/a	n/a	n/a	n/a
1574.586	n/a	PROB	787293	n/a	LTP131	ltpFR	10	n/a	n/a	n/a	n/a	n/a	n/a	16	1	7	8	n/a	n/a	n/a	n/a	n/a
1576.002	n/a	PROB	788001	n/a	LTP131	ltpFR	10	n/a	n/a	n/a	n/a	n/a	n/a	17	3	5	9	n/a	n/a	n/a	n/a	n/a
1579.384	n/a	PROB	789692	n/a	LTP131	ltpFR	10	n/a	n/a	n/a	n/a	n/a	n/a	23	6	9	8	n/a	n/a	n/a	n/a	n/a
1581.026	n/a	PROB	790513	n/a	LTP131	ltpFR	10	n/a	n/a	n/a	n/a	n/a	n/a	17	3	8	6	n/a	n/a	n/a	n/a	n/a
1584.832	n/a	STOP	792416	n/a	LTP131	ltpFR	10	n/a	n/a	n/a	n/a	n/a	n/a	n/a	n/a	n/a	n/a	n/a	n/a	n/a	n/a	n/a
1585.8	n/a	WORD	792900	wordpools/wasnorm_wordpool.txt	LTP131	ltpFR	10	6	0	DOLPHIN	483	n/a	1	n/a	0	0	0	1	0.412841796875	0.57763671875	lower	../fonts/amplitud.ttf
1588.808	n/a	START	794404	n/a	LTP131	ltpFR	10	n/a	n/a	n/a	n/a	n/a	n/a	n/a	n/a	n/a	n/a	n/a	n/a	n/a	n/a	n/a
1589.924	n/a	PROB	794962	n/a	LTP131	ltpFR	10	n/a	n/a	n/a	n/a	n/a	n/a	19	4	6	9	n/a	n/a	n/a	n/a	n/a
1591.84	n/a	PROB	795920	n/a	LTP131	ltpFR	10	n/a	n/a	n/a	n/a	n/a	n/a	15	2	8	5	n/a	n/a	n/a	n/a	n/a
1593.506	n/a	PROB	796753	n/a	LTP131	ltpFR	10	n/a	n/a	n/a	n/a	n/a	n/a	8	2	1	5	n/a	n/a	n/a	n/a	n/a
1595.272	n/a	PROB	797636	n/a	LTP131	ltpFR	10	n/a	n/a	n/a	n/a	n/a	n/a	16	8	6	2	n/a	n/a	n/a	n/a	n/a
1596.98	n/a	PROB	798490	n/a	LTP131	ltpFR	10	n/a	n/a	n/a	n/a	n/a	n/a	13	1	4	8	n/a	n/a	n/a	n/a	n/a
1598.412	n/a	PROB	799206	n/a	LTP131	ltpFR	10	n/a	n/a	n/a	n/a	n/a	n/a	13	4	3	6	n/a	n/a	n/a	n/a	n/a
1599.712	n/a	PROB	799856	n/a	LTP131	ltpFR	10	n/a	n/a	n/a	n/a	n/a	n/a	15	4	6	5	n/a	n/a	n/a	n/a	n/a
1601.778	n/a	PROB	800889	n/a	LTP131	ltpFR	10	n/a	n/a	n/a	n/a	n/a	n/a	17	9	7	1	n/a	n/a	n/a	n/a	n/a
1603.346	n/a	STOP	801673	n/a	LTP131	ltpFR	10	n/a	n/a	n/a	n/a	n/a	n/a	n/a	n/a	n/a	n/a	n/a	n/a	n/a	n/a	n/a
1605.96	n/a	WORD	802980	wordpools/wasnorm_wordpool.txt	LTP131	ltpFR	10	6	0	LUNG	850	n/a	1	n/a	0	0	0	1	0.412841796875	0.57763671875	lower	../fonts/amplitud.ttf
1608.968	n/a	START	804484	n/a	LTP131	ltpFR	10	n/a	n/a	n/a	n/a	n/a	n/a	n/a	n/a	n/a	n/a	n/a	n/a	n/a	n/a	n/a
1610.084	n/a	PROB	805042	n/a	LTP131	ltpFR	10	n/a	n/a	n/a	n/a	n/a	n/a	19	9	3	7	n/a	n/a	n/a	n/a	n/a
1612.134	n/a	PROB	806067	n/a	LTP131	ltpFR	10	n/a	n/a	n/a	n/a	n/a	n/a	14	5	1	8	n/a	n/a	n/a	n/a	n/a
1613.916	n/a	PROB	806958	n/a	LTP131	ltpFR	10	n/a	n/a	n/a	n/a	n/a	n/a	18	7	2	9	n/a	n/a	n/a	n/a	n/a
1617.156	n/a	PROB	808578	n/a	LTP131	ltpFR	10	n/a	n/a	n/a	n/a	n/a	n/a	17	2	8	7	n/a	n/a	n/a	n/a	n/a
1618.672	n/a	PROB	809336	n/a	LTP131	ltpFR	10	n/a	n/a	n/a	n/a	n/a	n/a	13	4	3	6	n/a	n/a	n/a	n/a	n/a
1620.398	n/a	PROB	810199	n/a	LTP131	ltpFR	10	n/a	n/a	n/a	n/a	n/a	n/a	12	5	6	1	n/a	n/a	n/a	n/a	n/a
1622.13	n/a	PROB	811065	n/a	LTP131	ltpFR	10	n/a	n/a	n/a	n/a	n/a	n/a	18	6	5	7	n/a	n/a	n/a	n/a	n/a
1624.14	n/a	STOP	812070	n/a	LTP131	ltpFR	10	n/a	n/a	n/a	n/a	n/a	n/a	n/a	n/a	n/a	n/a	n/a	n/a	n/a	n/a	n/a
1625.888	n/a	WORD	812944	wordpools/wasnorm_wordpool.txt	LTP131	ltpFR	10	6	0	CANDY	230	n/a	0	n/a	0	0	0	1	0.412841796875	0.57763671875	lower	../fonts/amplitud.ttf
1628.896	n/a	START	814448	n/a	LTP131	ltpFR	10	n/a	n/a	n/a	n/a	n/a	n/a	n/a	n/a	n/a	n/a	n/a	n/a	n/a	n/a	n/a
1629.762	n/a	PROB	814881	n/a	LTP131	ltpFR	10	n/a	n/a	n/a	n/a	n/a	n/a	16	8	7	1	n/a	n/a	n/a	n/a	n/a
1632.21	n/a	PROB	816105	n/a	LTP131	ltpFR	10	n/a	n/a	n/a	n/a	n/a	n/a	24	7	9	8	n/a	n/a	n/a	n/a	n/a
1635.31	n/a	PROB	817655	n/a	LTP131	ltpFR	10	n/a	n/a	n/a	n/a	n/a	n/a	12	5	4	3	n/a	n/a	n/a	n/a	n/a
1637.076	n/a	PROB	818538	n/a	LTP131	ltpFR	10	n/a	n/a	n/a	n/a	n/a	n/a	14	6	4	4	n/a	n/a	n/a	n/a	n/a
1638.492	n/a	PROB	819246	n/a	LTP131	ltpFR	10	n/a	n/a	n/a	n/a	n/a	n/a	8	1	5	2	n/a	n/a	n/a	n/a	n/a
1640.142	n/a	PROB	820071	n/a	LTP131	ltpFR	10	n/a	n/a	n/a	n/a	n/a	n/a	12	5	6	1	n/a	n/a	n/a	n/a	n/a
1642.208	n/a	PROB	821104	n/a	LTP131	ltpFR	10	n/a	n/a	n/a	n/a	n/a	n/a	14	9	3	2	n/a	n/a	n/a	n/a	n/a
1643.684	n/a	STOP	821842	n/a	LTP131	ltpFR	10	n/a	n/a	n/a	n/a	n/a	n/a	n/a	n/a	n/a	n/a	n/a	n/a	n/a	n/a	n/a
1645.756	n/a	WORD	822878	wordpools/wasnorm_wordpool.txt	LTP131	ltpFR	10	6	0	WHALE	1601	n/a	1	n/a	0	0	0	1	0.412841796875	0.57763671875	lower	../fonts/amplitud.ttf
1648.764	n/a	START	824382	n/a	LTP131	ltpFR	10	n/a	n/a	n/a	n/a	n/a	n/a	n/a	n/a	n/a	n/a	n/a	n/a	n/a	n/a	n/a
1649.872	n/a	PROB	824936	n/a	LTP131	ltpFR	10	n/a	n/a	n/a	n/a	n/a	n/a	25	9	7	9	n/a	n/a	n/a	n/a	n/a
1651.996	n/a	PROB	825998	n/a	LTP131	ltpFR	10	n/a	n/a	n/a	n/a	n/a	n/a	14	1	6	7	n/a	n/a	n/a	n/a	n/a
1653.528	n/a	PROB	826764	n/a	LTP131	ltpFR	10	n/a	n/a	n/a	n/a	n/a	n/a	21	4	9	8	n/a	n/a	n/a	n/a	n/a
1656.278	n/a	PROB	828139	n/a	LTP131	ltpFR	10	n/a	n/a	n/a	n/a	n/a	n/a	12	2	7	3	n/a	n/a	n/a	n/a	n/a
1657.744	n/a	PROB	828872	n/a	LTP131	ltpFR	10	n/a	n/a	n/a	n/a	n/a	n/a	11	3	3	5	n/a	n/a	n/a	n/a	n/a
1659.202	n/a	PROB	829601	n/a	LTP131	ltpFR	10	n/a	n/a	n/a	n/a	n/a	n/a	12	2	5	5	n/a	n/a	n/a	n/a	n/a
1660.394	n/a	PROB	830197	n/a	LTP131	ltpFR	10	n/a	n/a	n/a	n/a	n/a	n/a	11	6	1	4	n/a	n/a	n/a	n/a	n/a
1661.586	n/a	PROB	830793	n/a	LTP131	ltpFR	10	n/a	n/a	n/a	n/a	n/a	n/a	21	8	8	5	n/a	n/a	n/a	n/a	n/a
1663.446	n/a	STOP	831723	n/a	LTP131	ltpFR	10	n/a	n/a	n/a	n/a	n/a	n/a	n/a	n/a	n/a	n/a	n/a	n/a	n/a	n/a	n/a
1665.65	n/a	WORD	832825	wordpools/wasnorm_wordpool.txt	LTP131	ltpFR	10	6	0	HELICOPTER	701	n/a	1	n/a	0	0	0	1	0.412841796875	0.57763671875	lower	../fonts/amplitud.ttf
1668.658	n/a	START	834329	n/a	LTP131	ltpFR	10	n/a	n/a	n/a	n/a	n/a	n/a	n/a	n/a	n/a	n/a	n/a	n/a	n/a	n/a	n/a
1669.632	n/a	PROB	834816	n/a	LTP131	ltpFR	10	n/a	n/a	n/a	n/a	n/a	n/a	13	4	6	3	n/a	n/a	n/a	n/a	n/a
1671.348	n/a	PROB	835674	n/a	LTP131	ltpFR	10	n/a	n/a	n/a	n/a	n/a	n/a	17	9	1	7	n/a	n/a	n/a	n/a	n/a
1673.248	n/a	PROB	836624	n/a	LTP131	ltpFR	10	n/a	n/a	n/a	n/a	n/a	n/a	10	2	2	6	n/a	n/a	n/a	n/a	n/a
1675.206	n/a	PROB	837603	n/a	LTP131	ltpFR	10	n/a	n/a	n/a	n/a	n/a	n/a	14	2	8	4	n/a	n/a	n/a	n/a	n/a
1677.572	n/a	PROB	838786	n/a	LTP131	ltpFR	10	n/a	n/a	n/a	n/a	n/a	n/a	12	6	4	2	n/a	n/a	n/a	n/a	n/a
1679.096	n/a	PROB	839548	n/a	LTP131	ltpFR	10	n/a	n/a	n/a	n/a	n/a	n/a	25	8	9	8	n/a	n/a	n/a	n/a	n/a
1684.66	n/a	STOP	842330	n/a	LTP131	ltpFR	10	n/a	n/a	n/a	n/a	n/a	n/a	n/a	n/a	n/a	n/a	n/a	n/a	n/a	n/a	n/a
1685.528	n/a	WORD	842764	wordpools/wasnorm_wordpool.txt	LTP131	ltpFR	10	6	0	WARRIOR	1589	n/a	1	n/a	0	0	0	1	0.412841796875	0.57763671875	lower	../fonts/amplitud.ttf
1688.536	n/a	START	844268	n/a	LTP131	ltpFR	10	n/a	n/a	n/a	n/a	n/a	n/a	n/a	n/a	n/a	n/a	n/a	n/a	n/a	n/a	n/a
1689.676	n/a	PROB	844838	n/a	LTP131	ltpFR	10	n/a	n/a	n/a	n/a	n/a	n/a	9	2	5	2	n/a	n/a	n/a	n/a	n/a
1691.5	n/a	PROB	845750	n/a	LTP131	ltpFR	10	n/a	n/a	n/a	n/a	n/a	n/a	11	7	2	2	n/a	n/a	n/a	n/a	n/a
1693.534	n/a	PROB	846767	n/a	LTP131	ltpFR	10	n/a	n/a	n/a	n/a	n/a	n/a	17	9	6	2	n/a	n/a	n/a	n/a	n/a
1695.482	n/a	PROB	847741	n/a	LTP131	ltpFR	10	n/a	n/a	n/a	n/a	n/a	n/a	18	2	9	7	n/a	n/a	n/a	n/a	n/a
1697.35	n/a	PROB	848675	n/a	LTP131	ltpFR	10	n/a	n/a	n/a	n/a	n/a	n/a	17	6	3	8	n/a	n/a	n/a	n/a	n/a
1699.298	n/a	PROB	849649	n/a	LTP131	ltpFR	10	n/a	n/a	n/a	n/a	n/a	n/a	12	3	4	5	n/a	n/a	n/a	n/a	n/a
1702.072	n/a	PROB	851036	n/a	LTP131	ltpFR	10	n/a	n/a	n/a	n/a	n/a	n/a	10	3	1	6	n/a	n/a	n/a	n/a	n/a
1703.736	n/a	STOP	851868	n/a	LTP131	ltpFR	10	n/a	n/a	n/a	n/a	n/a	n/a	n/a	n/a	n/a	n/a	n/a	n/a	n/a	n/a	n/a
1706.264	n/a	REC_START	853132	n/a	LTP131	ltpFR	10	6	n/a	n/a	n/a	n/a	n/a	n/a	0	0	0	n/a	n/a	n/a	n/a	n/a
1707.734	n/a	REC_WORD	853867	wordpools/wasnorm_wordpool.txt	LTP131	ltpFR	10	6	0	DOLPHIN	483	n/a	1	n/a	0	0	0	n/a	n/a	n/a	n/a	n/a
1708.932	n/a	REC_WORD	854466	wordpools/wasnorm_wordpool.txt	LTP131	ltpFR	10	6	0	DYNAMITE	511	n/a	1	n/a	0	0	0	n/a	n/a	n/a	n/a	n/a
1709.914	n/a	REC_WORD	854957	wordpools/wasnorm_wordpool.txt	LTP131	ltpFR	10	6	0	HELICOPTER	701	n/a	1	n/a	0	0	0	n/a	n/a	n/a	n/a	n/a
1710.914	n/a	REC_WORD_VV	855457	wordpools/wasnorm_wordpool.txt	LTP131	ltpFR	10	6	n/a	<>	-1	n/a	n/a	n/a	0	0	0	n/a	n/a	n/a	n/a	n/a
1713.058	n/a	REC_WORD	856529	wordpools/wasnorm_wordpool.txt	LTP131	ltpFR	10	6	0	WARRIOR	1589	n/a	1	n/a	0	0	0	n/a	n/a	n/a	n/a	n/a
1715.398	n/a	REC_WORD	857699	wordpools/wasnorm_wordpool.txt	LTP131	ltpFR	10	6	0	LUNG	850	n/a	1	n/a	0	0	0	n/a	n/a	n/a	n/a	n/a
1720.102	n/a	REC_WORD	860051	wordpools/wasnorm_wordpool.txt	LTP131	ltpFR	10	6	0	LOAF	835	n/a	0	n/a	0	0	0	n/a	n/a	n/a	n/a	n/a
1721.3	n/a	REC_WORD	860650	wordpools/wasnorm_wordpool.txt	LTP131	ltpFR	10	6	0	CANDY	230	n/a	0	n/a	0	0	0	n/a	n/a	n/a	n/a	n/a
1726.438	n/a	REC_WORD	863219	wordpools/wasnorm_wordpool.txt	LTP131	ltpFR	10	6	1	VENT	1556	n/a	0	n/a	0	0	0	n/a	n/a	n/a	n/a	n/a
1727.596	n/a	REC_WORD	863798	wordpools/wasnorm_wordpool.txt	LTP131	ltpFR	10	6	1	SPICE	1350	n/a	0	n/a	0	0	0	n/a	n/a	n/a	n/a	n/a
1729.306	n/a	REC_WORD	864653	wordpools/wasnorm_wordpool.txt	LTP131	ltpFR	10	6	1	RIBBON	1189	n/a	0	n/a	0	0	0	n/a	n/a	n/a	n/a	n/a
1765.052	n/a	REC_WORD	882526	wordpools/wasnorm_wordpool.txt	LTP131	ltpFR	10	6	0	ALLIGATOR	16	n/a	1	n/a	0	0	0	n/a	n/a	n/a	n/a	n/a
1766.604	n/a	REC_WORD	883302	wordpools/wasnorm_wordpool.txt	LTP131	ltpFR	10	6	0	ANIMAL	23	n/a	1	n/a	0	0	0	n/a	n/a	n/a	n/a	n/a
1788.78	n/a	WORD	894390	wordpools/wasnorm_wordpool.txt	LTP131	ltpFR	10	7	1	FLANNEL	574	n/a	0	n/a	0	0	0	0	0.5869140625	0.422607421875	upper	../fonts/zerothre.ttf
1792.604	n/a	WORD	896302	wordpools/wasnorm_wordpool.txt	LTP131	ltpFR	10	7	1	MULE	931	n/a	1	n/a	0	0	0	0	0.5869140625	0.422607421875	upper	../fonts/zerothre.ttf
1796.728	n/a	WORD	898364	wordpools/wasnorm_wordpool.txt	LTP131	ltpFR	10	7	1	POCKET	1093	n/a	0	n/a	0	0	0	0	0.5869140625	0.422607421875	upper	../fonts/zerothre.ttf
1800.576	n/a	WORD	900288	wordpools/wasnorm_wordpool.txt	LTP131	ltpFR	10	7	1	TOTE	1487	n/a	0	n/a	0	0	0	0	0.5869140625	0.422607421875	upper	../fonts/zerothre.ttf
1804.566	n/a	WORD	902283	wordpools/wasnorm_wordpool.txt	LTP131	ltpFR	10	7	1	POTTERY	1116	n/a	0	n/a	0	0	0	0	0.5869140625	0.422607421875	upper	../fonts/zerothre.ttf
1808.682	n/a	WORD	904341	wordpools/wasnorm_wordpool.txt	LTP131	ltpFR	10	7	0	SMOG	1330	n/a	1	n/a	0	0	0	1	0.412841796875	0.57763671875	lower	../fonts/amplitud.ttf
1812.556	n/a	WORD	906278	wordpools/wasnorm_wordpool.txt	LTP131	ltpFR	10	7	0	INSTRUCTOR	741	n/a	1	n/a	0	0	0	1	0.412841796875	0.57763671875	lower	../fonts/amplitud.ttf
1816.48	n/a	WORD	908240	wordpools/wasnorm_wordpool.txt	LTP131	ltpFR	10	7	0	PUPIL	1143	n/a	1	n/a	0	0	0	1	0.412841796875	0.57763671875	lower	../fonts/amplitud.ttf
1820.636	n/a	WORD	910318	wordpools/wasnorm_wordpool.txt	LTP131	ltpFR	10	7	0	NICOTINE	951	n/a	0	n/a	0	0	0	1	0.412841796875	0.57763671875	lower	../fonts/amplitud.ttf
1824.652	n/a	WORD	912326	wordpools/wasnorm_wordpool.txt	LTP131	ltpFR	10	7	1	SKELETON	1314	n/a	0	n/a	0	0	0	0	0.5869140625	0.422607421875	upper	../fonts/zerothre.ttf
1828.518	n/a	WORD	914259	wordpools/wasnorm_wordpool.txt	LTP131	ltpFR	10	7	1	HAT	690	n/a	0	n/a	0	0	0	0	0.5869140625	0.422607421875	upper	../fonts/zerothre.ttf
1832.508	n/a	WORD	916254	wordpools/wasnorm_wordpool.txt	LTP131	ltpFR	10	7	1	FISH	571	n/a	1	n/a	0	0	0	0	0.5869140625	0.422607421875	upper	../fonts/zerothre.ttf
1836.556	n/a	WORD	918278	wordpools/wasnorm_wordpool.txt	LTP131	ltpFR	10	7	0	PIZZA	1079	n/a	1	n/a	0	0	0	1	0.412841796875	0.57763671875	lower	../fonts/amplitud.ttf
1840.722	n/a	WORD	920361	wordpools/wasnorm_wordpool.txt	LTP131	ltpFR	10	7	0	ZEBRA	1635	n/a	1	n/a	0	0	0	1	0.412841796875	0.57763671875	lower	../fonts/amplitud.ttf
1844.738	n/a	WORD	922369	wordpools/wasnorm_wordpool.txt	LTP131	ltpFR	10	7	0	CLAY	320	n/a	0	n/a	0	0	0	1	0.412841796875	0.57763671875	lower	../fonts/amplitud.ttf
1848.804	n/a	WORD	924402	wordpools/wasnorm_wordpool.txt	LTP131	ltpFR	10	7	0	RUM	1217	n/a	0	n/a	0	0	0	1	0.412841796875	0.57763671875	lower	../fonts/amplitud.ttf
1851.812	n/a	START	925906	n/a	LTP131	ltpFR	10	n/a	n/a	n/a	n/a	n/a	n/a	n/a	n/a	n/a	n/a	n/a	n/a	n/a	n/a	n/a
1852.86	n/a	PROB	926430	n/a	LTP131	ltpFR	10	n/a	n/a	n/a	n/a	n/a	n/a	17	8	1	8	n/a	n/a	n/a	n/a	n/a
1854.634	n/a	PROB	927317	n/a	LTP131	ltpFR	10	n/a	n/a	n/a	n/a	n/a	n/a	17	3	9	5	n/a	n/a	n/a	n/a	n/a
1856.242	n/a	PROB	928121	n/a	LTP131	ltpFR	10	n/a	n/a	n/a	n/a	n/a	n/a	9	1	1	7	n/a	n/a	n/a	n/a	n/a
1859.812	n/a	STOP	929906	n/a	LTP131	ltpFR	10	n/a	n/a	n/a	n/a	n/a	n/a	n/a	n/a	n/a	n/a	n/a	n/a	n/a	n/a	n/a
1861.65	n/a	REC_START	930825	n/a	LTP131	ltpFR	10	7	n/a	n/a	n/a	n/a	n/a	n/a	0	0	0	n/a	n/a	n/a	n/a	n/a
1863.136	n/a	REC_WORD	931568	wordpools/wasnorm_wordpool.txt	LTP131	ltpFR	10	7	1	POTTERY	1116	n/a	0	n/a	0	0	0	n/a	n/a	n/a	n/a	n/a
1863.84	n/a	REC_WORD	931920	wordpools/wasnorm_wordpool.txt	LTP131	ltpFR	10	7	1	POCKET	1093	n/a	0	n/a	0	0	0	n/a	n/a	n/a	n/a	n/a
1864.768	n/a	REC_WORD	932384	wordpools/wasnorm_wordpool.txt	LTP131	ltpFR	10	7	1	TOTE	1487	n/a	0	n/a	0	0	0	n/a	n/a	n/a	n/a	n/a
1865.53	n/a	REC_WORD	932765	wordpools/wasnorm_wordpool.txt	LTP131	ltpFR	10	7	1	FLANNEL	574	n/a	0	n/a	0	0	0	n/a	n/a	n/a	n/a	n/a
1868.65	n/a	REC_WORD	934325	wordpools/wasnorm_wordpool.txt	LTP131	ltpFR	10	7	1	FISH	571	n/a	1	n/a	0	0	0	n/a	n/a	n/a	n/a	n/a
1872.9	n/a	REC_WORD	936450	wordpools/wasnorm_wordpool.txt	LTP131	ltpFR	10	7	0	PUPIL	1143	n/a	1	n/a	0	0	0	n/a	n/a	n/a	n/a	n/a
1873.762	n/a	REC_WORD	936881	wordpools/wasnorm_wordpool.txt	LTP131	ltpFR	10	7	0	INSTRUCTOR	741	n/a	1	n/a	0	0	0	n/a	n/a	n/a	n/a	n/a
1875.284	n/a	REC_WORD	937642	wordpools/wasnorm_wordpool.txt	LTP131	ltpFR	10	7	0	SMOG	1330	n/a	1	n/a	0	0	0	n/a	n/a	n/a	n/a	n/a
1876.228	n/a	REC_WORD	938114	wordpools/wasnorm_wordpool.txt	LTP131	ltpFR	10	7	0	NICOTINE	951	n/a	0	n/a	0	0	0	n/a	n/a	n/a	n/a	n/a
1877.27	n/a	REC_WORD	938635	wordpools/wasnorm_wordpool.txt	LTP131	ltpFR	10	7	0	CLAY	320	n/a	0	n/a	0	0	0	n/a	n/a	n/a	n/a	n/a
1929.464	n/a	REC_WORD_VV	964732	wordpools/wasnorm_wordpool.txt	LTP131	ltpFR	10	7	n/a	<>	-1	n/a	n/a	n/a	0	0	0	n/a	n/a	n/a	n/a	n/a
1931.006	n/a	REC_WORD_VV	965503	wordpools/wasnorm_wordpool.txt	LTP131	ltpFR	10	7	n/a	<>	-1	n/a	n/a	n/a	0	0	0	n/a	n/a	n/a	n/a	n/a
1950.58	n/a	WORD	975290	wordpools/wasnorm_wordpool.txt	LTP131	ltpFR	10	8	0	COMMUNITY	356	n/a	1	n/a	0	0	0	1	0.412841796875	0.57763671875	lower	../fonts/amplitud.ttf
1954.712	n/a	WORD	977356	wordpools/wasnorm_wordpool.txt	LTP131	ltpFR	10	8	0	TAPIOCA	1434	n/a	0	n/a	0	0	0	1	0.412841796875	0.57763671875	lower	../fonts/amplitud.ttf
1958.686	n/a	WORD	979343	wordpools/wasnorm_wordpool.txt	LTP131	ltpFR	10	8	0	PIE	1062	n/a	0	n/a	0	0	0	1	0.412841796875	0.57763671875	lower	../fonts/amplitud.ttf
1962.584	n/a	WORD	981292	wordpools/wasnorm_wordpool.txt	LTP131	ltpFR	10	8	0	LAGOON	795	n/a	1	n/a	0	0	0	1	0.412841796875	0.57763671875	lower	../fonts/amplitud.ttf
1966.692	n/a	WORD	983346	wordpools/wasnorm_wordpool.txt	LTP131	ltpFR	10	8	0	TREAD	1499	n/a	0	n/a	0	0	0	1	0.412841796875	0.57763671875	lower	../fonts/amplitud.ttf
1970.616	n/a	WORD	985308	wordpools/wasnorm_wordpool.txt	LTP131	ltpFR	10	8	0	PRIMATE	1123	n/a	1	n/a	0	0	0	1	0.412841796875	0.57763671875	lower	../fonts/amplitud.ttf
1974.782	n/a	WORD	987391	wordpools/wasnorm_wordpool.txt	LTP131	ltpFR	10	8	0	DOCTOR	478	n/a	1	n/a	0	0	0	1	0.412841796875	0.57763671875	lower	../fonts/amplitud.ttf
1978.788	n/a	WORD	989394	wordpools/wasnorm_wordpool.txt	LTP131	ltpFR	10	8	0	CHIMNEY	301	n/a	1	n/a	0	0	0	1	0.412841796875	0.57763671875	lower	../fonts/amplitud.ttf
1982.946	n/a	WORD	991473	wordpools/wasnorm_wordpool.txt	LTP131	ltpFR	10	8	0	CONCRETE	361	n/a	1	n/a	0	0	0	1	0.412841796875	0.57763671875	lower	../fonts/amplitud.ttf
1987.036	n/a	WORD	993518	wordpools/wasnorm_wordpool.txt	LTP131	ltpFR	10	8	0	WEED	1599	n/a	0	n/a	0	0	0	1	0.412841796875	0.57763671875	lower	../fonts/amplitud.ttf
1991.044	n/a	WORD	995522	wordpools/wasnorm_wordpool.txt	LTP131	ltpFR	10	8	0	ZIPPER	1636	n/a	0	n/a	0	0	0	1	0.412841796875	0.57763671875	lower	../fonts/amplitud.ttf
1995.066	n/a	WORD	997533	wordpools/wasnorm_wordpool.txt	LTP131	ltpFR	10	8	0	BIKE	125	n/a	1	n/a	0	0	0	1	0.412841796875	0.57763671875	lower	../fonts/amplitud.ttf
1999.216	n/a	WORD	999608	wordpools/wasnorm_wordpool.txt	LTP131	ltpFR	10	8	0	TAXI	1438	n/a	1	n/a	0	0	0	1	0.412841796875	0.57763671875	lower	../fonts/amplitud.ttf
2003.156	n/a	WORD	1001578	wordpools/wasnorm_wordpool.txt	LTP131	ltpFR	10	8	0	CIGARETTE	309	n/a	0	n/a	0	0	0	1	0.412841796875	0.57763671875	lower	../fonts/amplitud.ttf
2007.172	n/a	WORD	1003586	wordpools/wasnorm_wordpool.txt	LTP131	ltpFR	10	8	0	SCALPEL	1243	n/a	0	n/a	0	0	0	1	0.412841796875	0.57763671875	lower	../fonts/amplitud.ttf
2011.17	n/a	WORD	1005585	wordpools/wasnorm_wordpool.txt	LTP131	ltpFR	10	8	0	HUMAN	726	n/a	1	n/a	0	0	0	1	0.412841796875	0.57763671875	lower	../fonts/amplitud.ttf
2014.178	n/a	START	1007089	n/a	LTP131	ltpFR	10	n/a	n/a	n/a	n/a	n/a	n/a	n/a	n/a	n/a	n/a	n/a	n/a	n/a	n/a	n/a
2015.168	n/a	PROB	1007584	n/a	LTP131	ltpFR	10	n/a	n/a	n/a	n/a	n/a	n/a	14	9	3	2	n/a	n/a	n/a	n/a	n/a
2017.168	n/a	PROB	1008584	n/a	LTP131	ltpFR	10	n/a	n/a	n/a	n/a	n/a	n/a	12	7	3	2	n/a	n/a	n/a	n/a	n/a
2018.592	n/a	PROB	1009296	n/a	LTP131	ltpFR	10	n/a	n/a	n/a	n/a	n/a	n/a	4	1	2	1	n/a	n/a	n/a	n/a	n/a
2020.244	n/a	PROB	1010122	n/a	LTP131	ltpFR	10	n/a	n/a	n/a	n/a	n/a	n/a	21	5	9	7	n/a	n/a	n/a	n/a	n/a
2021.834	n/a	STOP	1010917	n/a	LTP131	ltpFR	10	n/a	n/a	n/a	n/a	n/a	n/a	n/a	n/a	n/a	n/a	n/a	n/a	n/a	n/a	n/a
2024.05	n/a	REC_START	1012025	n/a	LTP131	ltpFR	10	8	n/a	n/a	n/a	n/a	n/a	n/a	0	0	0	n/a	n/a	n/a	n/a	n/a
2026.944	n/a	REC_WORD	1013472	wordpools/wasnorm_wordpool.txt	LTP131	ltpFR	10	8	0	CIGARETTE	309	n/a	0	n/a	0	0	0	n/a	n/a	n/a	n/a	n/a
2028.386	n/a	REC_WORD	1014193	wordpools/wasnorm_wordpool.txt	LTP131	ltpFR	10	8	0	WEED	1599	n/a	0	n/a	0	0	0	n/a	n/a	n/a	n/a	n/a
2029.154	n/a	REC_WORD	1014577	wordpools/wasnorm_wordpool.txt	LTP131	ltpFR	10	8	0	ZIPPER	1636	n/a	0	n/a	0	0	0	n/a	n/a	n/a	n/a	n/a
2030.006	n/a	REC_WORD	1015003	wordpools/wasnorm_wordpool.txt	LTP131	ltpFR	10	8	0	SCALPEL	1243	n/a	0	n/a	0	0	0	n/a	n/a	n/a	n/a	n/a
2031.528	n/a	REC_WORD	1015764	wordpools/wasnorm_wordpool.txt	LTP131	ltpFR	10	8	0	TAPIOCA	1434	n/a	0	n/a	0	0	0	n/a	n/a	n/a	n/a	n/a
2032.866	n/a	REC_WORD	1016433	wordpools/wasnorm_wordpool.txt	LTP131	ltpFR	10	8	0	PIE	1062	n/a	0	n/a	0	0	0	n/a	n/a	n/a	n/a	n/a
2033.962	n/a	REC_WORD	1016981	wordpools/wasnorm_wordpool.txt	LTP131	ltpFR	10	8	0	HUMAN	726	n/a	1	n/a	0	0	0	n/a	n/a	n/a	n/a	n/a
2035.29	n/a	REC_WORD	1017645	wordpools/wasnorm_wordpool.txt	LTP131	ltpFR	10	8	0	DOCTOR	478	n/a	1	n/a	0	0	0	n/a	n/a	n/a	n/a	n/a
2036.726	n/a	REC_WORD	1018363	wordpools/wasnorm_wordpool.txt	LTP131	ltpFR	10	8	0	CONCRETE	361	n/a	1	n/a	0	0	0	n/a	n/a	n/a	n/a	n/a
2038.068	n/a	REC_WORD	1019034	wordpools/wasnorm_wordpool.txt	LTP131	ltpFR	10	8	0	LAGOON	795	n/a	1	n/a	0	0	0	n/a	n/a	n/a	n/a	n/a
2039.412	n/a	REC_WORD	1019706	wordpools/wasnorm_wordpool.txt	LTP131	ltpFR	10	8	0	COMMUNITY	356	n/a	1	n/a	0	0	0	n/a	n/a	n/a	n/a	n/a
2080.924	n/a	REC_WORD_VV	1040462	wordpools/wasnorm_wordpool.txt	LTP131	ltpFR	10	8	n/a	<>	-1	n/a	n/a	n/a	0	0	0	n/a	n/a	n/a	n/a	n/a
2081.924	n/a	REC_WORD_VV	1040962	wordpools/wasnorm_wordpool.txt	LTP131	ltpFR	10	8	n/a	<>	-1	n/a	n/a	n/a	0	0	0	n/a	n/a	n/a	n/a	n/a
2112.898	n/a	START	1056449	n/a	LTP131	ltpFR	10	n/a	n/a	n/a	n/a	n/a	n/a	n/a	n/a	n/a	n/a	n/a	n/a	n/a	n/a	n/a
2114.406	n/a	PROB	1057203	n/a	LTP131	ltpFR	10	n/a	n/a	n/a	n/a	n/a	n/a	25	8	8	9	n/a	n/a	n/a	n/a	n/a
2116.856	n/a	PROB	1058428	n/a	LTP131	ltpFR	10	n/a	n/a	n/a	n/a	n/a	n/a	14	5	4	5	n/a	n/a	n/a	n/a	n/a
2118.256	n/a	PROB	1059128	n/a	LTP131	ltpFR	10	n/a	n/a	n/a	n/a	n/a	n/a	21	7	8	6	n/a	n/a	n/a	n/a	n/a
2119.478	n/a	STOP	1059739	n/a	LTP131	ltpFR	10	n/a	n/a	n/a	n/a	n/a	n/a	n/a	n/a	n/a	n/a	n/a	n/a	n/a	n/a	n/a
2121.77	n/a	WORD	1060885	wordpools/wasnorm_wordpool.txt	LTP131	ltpFR	10	9	0	ROOT	1210	n/a	1	n/a	0	0	0	1	0.412841796875	0.57763671875	lower	../fonts/amplitud.ttf
2124.778	n/a	START	1062389	n/a	LTP131	ltpFR	10	n/a	n/a	n/a	n/a	n/a	n/a	n/a	n/a	n/a	n/a	n/a	n/a	n/a	n/a	n/a
2125.978	n/a	PROB	1062989	n/a	LTP131	ltpFR	10	n/a	n/a	n/a	n/a	n/a	n/a	19	6	9	4	n/a	n/a	n/a	n/a	n/a
2128.084	n/a	PROB	1064042	n/a	LTP131	ltpFR	10	n/a	n/a	n/a	n/a	n/a	n/a	17	9	1	7	n/a	n/a	n/a	n/a	n/a
2129.5	n/a	PROB	1064750	n/a	LTP131	ltpFR	10	n/a	n/a	n/a	n/a	n/a	n/a	18	8	1	9	n/a	n/a	n/a	n/a	n/a
2132.778	n/a	STOP	1066389	n/a	LTP131	ltpFR	10	n/a	n/a	n/a	n/a	n/a	n/a	n/a	n/a	n/a	n/a	n/a	n/a	n/a	n/a	n/a
2133.792	n/a	WORD	1066896	wordpools/wasnorm_wordpool.txt	LTP131	ltpFR	10	9	0	CONTRACTOR	369	n/a	1	n/a	0	0	0	1	0.412841796875	0.57763671875	lower	../fonts/amplitud.ttf
2136.8	n/a	START	1068400	n/a	LTP131	ltpFR	10	n/a	n/a	n/a	n/a	n/a	n/a	n/a	n/a	n/a	n/a	n/a	n/a	n/a	n/a	n/a
2137.782	n/a	PROB	1068891	n/a	LTP131	ltpFR	10	n/a	n/a	n/a	n/a	n/a	n/a	14	4	2	8	n/a	n/a	n/a	n/a	n/a
2139.474	n/a	PROB	1069737	n/a	LTP131	ltpFR	10	n/a	n/a	n/a	n/a	n/a	n/a	13	5	5	3	n/a	n/a	n/a	n/a	n/a
2140.764	n/a	PROB	1070382	n/a	LTP131	ltpFR	10	n/a	n/a	n/a	n/a	n/a	n/a	13	8	1	4	n/a	n/a	n/a	n/a	n/a
2142.73	n/a	PROB	1071365	n/a	LTP131	ltpFR	10	n/a	n/a	n/a	n/a	n/a	n/a	13	7	2	4	n/a	n/a	n/a	n/a	n/a
2144.486	n/a	STOP	1072243	n/a	LTP131	ltpFR	10	n/a	n/a	n/a	n/a	n/a	n/a	n/a	n/a	n/a	n/a	n/a	n/a	n/a	n/a	n/a
2145.962	n/a	WORD	1072981	wordpools/wasnorm_wordpool.txt	LTP131	ltpFR	10	9	0	FILM	565	n/a	0	n/a	0	0	0	1	0.412841796875	0.57763671875	lower	../fonts/amplitud.ttf
2148.97	n/a	START	1074485	n/a	LTP131	ltpFR	10	n/a	n/a	n/a	n/a	n/a	n/a	n/a	n/a	n/a	n/a	n/a	n/a	n/a	n/a	n/a
2150.162	n/a	PROB	1075081	n/a	LTP131	ltpFR	10	n/a	n/a	n/a	n/a	n/a	n/a	13	4	1	8	n/a	n/a	n/a	n/a	n/a
2152.044	n/a	PROB	1076022	n/a	LTP131	ltpFR	10	n/a	n/a	n/a	n/a	n/a	n/a	13	2	2	9	n/a	n/a	n/a	n/a	n/a
2153.96	n/a	PROB	1076980	n/a	LTP131	ltpFR	10	n/a	n/a	n/a	n/a	n/a	n/a	13	9	2	2	n/a	n/a	n/a	n/a	n/a
2156.36	n/a	STOP	1078180	n/a	LTP131	ltpFR	10	n/a	n/a	n/a	n/a	n/a	n/a	n/a	n/a	n/a	n/a	n/a	n/a	n/a	n/a	n/a
2158.002	n/a	WORD	1079001	wordpools/wasnorm_wordpool.txt	LTP131	ltpFR	10	9	0	BASKET	95	n/a	1	n/a	0	0	0	1	0.412841796875	0.57763671875	lower	../fonts/amplitud.ttf
2161.008	n/a	START	1080504	n/a	LTP131	ltpFR	10	n/a	n/a	n/a	n/a	n/a	n/a	n/a	n/a	n/a	n/a	n/a	n/a	n/a	n/a	n/a
2162.0	n/a	PROB	1081000	n/a	LTP131	ltpFR	10	n/a	n/a	n/a	n/a	n/a	n/a	16	7	3	6	n/a	n/a	n/a	n/a	n/a
2164.098	n/a	PROB	1082049	n/a	LTP131	ltpFR	10	n/a	n/a	n/a	n/a	n/a	n/a	19	9	1	9	n/a	n/a	n/a	n/a	n/a
2166.006	n/a	PROB	1083003	n/a	LTP131	ltpFR	10	n/a	n/a	n/a	n/a	n/a	n/a	20	8	7	5	n/a	n/a	n/a	n/a	n/a
2168.288	n/a	STOP	1084144	n/a	LTP131	ltpFR	10	n/a	n/a	n/a	n/a	n/a	n/a	n/a	n/a	n/a	n/a	n/a	n/a	n/a	n/a	n/a
2170.072	n/a	WORD	1085036	wordpools/wasnorm_wordpool.txt	LTP131	ltpFR	10	9	1	MONUMENT	913	n/a	0	n/a	0	0	0	0	0.5869140625	0.422607421875	upper	../fonts/zerothre.ttf
2173.08	n/a	START	1086540	n/a	LTP131	ltpFR	10	n/a	n/a	n/a	n/a	n/a	n/a	n/a	n/a	n/a	n/a	n/a	n/a	n/a	n/a	n/a
2174.272	n/a	PROB	1087136	n/a	LTP131	ltpFR	10	n/a	n/a	n/a	n/a	n/a	n/a	14	4	5	5	n/a	n/a	n/a	n/a	n/a
2175.762	n/a	PROB	1087881	n/a	LTP131	ltpFR	10	n/a	n/a	n/a	n/a	n/a	n/a	13	3	5	5	n/a	n/a	n/a	n/a	n/a
2177.92	n/a	PROB	1088960	n/a	LTP131	ltpFR	10	n/a	n/a	n/a	n/a	n/a	n/a	18	8	4	6	n/a	n/a	n/a	n/a	n/a
2179.72	n/a	STOP	1089860	n/a	LTP131	ltpFR	10	n/a	n/a	n/a	n/a	n/a	n/a	n/a	n/a	n/a	n/a	n/a	n/a	n/a	n/a	n/a
2182.086	n/a	WORD	1091043	wordpools/wasnorm_wordpool.txt	LTP131	ltpFR	10	9	1	MOB	904	n/a	1	n/a	0	0	0	0	0.5869140625	0.422607421875	upper	../fonts/zerothre.ttf
2185.094	n/a	START	1092547	n/a	LTP131	ltpFR	10	n/a	n/a	n/a	n/a	n/a	n/a	n/a	n/a	n/a	n/a	n/a	n/a	n/a	n/a	n/a
2186.018	n/a	PROB	1093009	n/a	LTP131	ltpFR	10	n/a	n/a	n/a	n/a	n/a	n/a	13	4	7	2	n/a	n/a	n/a	n/a	n/a
2187.792	n/a	PROB	1093896	n/a	LTP131	ltpFR	10	n/a	n/a	n/a	n/a	n/a	n/a	8	2	2	4	n/a	n/a	n/a	n/a	n/a
2189.266	n/a	PROB	1094633	n/a	LTP131	ltpFR	10	n/a	n/a	n/a	n/a	n/a	n/a	9	2	6	1	n/a	n/a	n/a	n/a	n/a
2193.094	n/a	STOP	1096547	n/a	LTP131	ltpFR	10	n/a	n/a	n/a	n/a	n/a	n/a	n/a	n/a	n/a	n/a	n/a	n/a	n/a	n/a	n/a
2193.998	n/a	WORD	1096999	wordpools/wasnorm_wordpool.txt	LTP131	ltpFR	10	9	1	PRODUCER	1129	n/a	1	n/a	0	0	0	0	0.5869140625	0.422607421875	upper	../fonts/zerothre.ttf
2197.006	n/a	START	1098503	n/a	LTP131	ltpFR	10	n/a	n/a	n/a	n/a	n/a	n/a	n/a	n/a	n/a	n/a	n/a	n/a	n/a	n/a	n/a
2197.93	n/a	PROB	1098965	n/a	LTP131	ltpFR	10	n/a	n/a	n/a	n/a	n/a	n/a	12	1	5	6	n/a	n/a	n/a	n/a	n/a
2199.364	n/a	PROB	1099682	n/a	LTP131	ltpFR	10	n/a	n/a	n/a	n/a	n/a	n/a	18	7	4	7	n/a	n/a	n/a	n/a	n/a
2201.23	n/a	PROB	1100615	n/a	LTP131	ltpFR	10	n/a	n/a	n/a	n/a	n/a	n/a	25	8	9	8	n/a	n/a	n/a	n/a	n/a
2205.006	n/a	STOP	1102503	n/a	LTP131	ltpFR	10	n/a	n/a	n/a	n/a	n/a	n/a	n/a	n/a	n/a	n/a	n/a	n/a	n/a	n/a	n/a
2205.862	n/a	WORD	1102931	wordpools/wasnorm_wordpool.txt	LTP131	ltpFR	10	9	1	IDOL	733	n/a	1	n/a	0	0	0	0	0.5869140625	0.422607421875	upper	../fonts/zerothre.ttf
2208.87	n/a	START	1104435	n/a	LTP131	ltpFR	10	n/a	n/a	n/a	n/a	n/a	n/a	n/a	n/a	n/a	n/a	n/a	n/a	n/a	n/a	n/a
2209.71	n/a	PROB	1104855	n/a	LTP131	ltpFR	10	n/a	n/a	n/a	n/a	n/a	n/a	14	6	2	6	n/a	n/a	n/a	n/a	n/a
2211.244	n/a	PROB	1105622	n/a	LTP131	ltpFR	10	n/a	n/a	n/a	n/a	n/a	n/a	12	1	3	8	n/a	n/a	n/a	n/a	n/a
2212.744	n/a	PROB	1106372	n/a	LTP131	ltpFR	10	n/a	n/a	n/a	n/a	n/a	n/a	11	2	8	1	n/a	n/a	n/a	n/a	n/a
2216.87	n/a	STOP	1108435	n/a	LTP131	ltpFR	10	n/a	n/a	n/a	n/a	n/a	n/a	n/a	n/a	n/a	n/a	n/a	n/a	n/a	n/a	n/a
2217.992	n/a	WORD	1108996	wordpools/wasnorm_wordpool.txt	LTP131	ltpFR	10	9	0	GROCERIES	663	n/a	1	n/a	0	0	0	1	0.412841796875	0.57763671875	lower	../fonts/amplitud.ttf
2220.998	n/a	START	1110499	n/a	LTP131	ltpFR	10	n/a	n/a	n/a	n/a	n/a	n/a	n/a	n/a	n/a	n/a	n/a	n/a	n/a	n/a	n/a
2221.84	n/a	PROB	1110920	n/a	LTP131	ltpFR	10	n/a	n/a	n/a	n/a	n/a	n/a	18	8	6	4	n/a	n/a	n/a	n/a	n/a
2223.322	n/a	PROB	1111661	n/a	LTP131	ltpFR	10	n/a	n/a	n/a	n/a	n/a	n/a	17	8	4	5	n/a	n/a	n/a	n/a	n/a
2225.296	n/a	PROB	1112648	n/a	LTP131	ltpFR	10	n/a	n/a	n/a	n/a	n/a	n/a	9	7	1	1	n/a	n/a	n/a	n/a	n/a
2228.498	n/a	STOP	1114249	n/a	LTP131	ltpFR	10	n/a	n/a	n/a	n/a	n/a	n/a	n/a	n/a	n/a	n/a	n/a	n/a	n/a	n/a	n/a
2229.814	n/a	WORD	1114907	wordpools/wasnorm_wordpool.txt	LTP131	ltpFR	10	9	0	RESTAURANT	1187	n/a	1	n/a	0	0	0	1	0.412841796875	0.57763671875	lower	../fonts/amplitud.ttf
2232.82	n/a	START	1116410	n/a	LTP131	ltpFR	10	n/a	n/a	n/a	n/a	n/a	n/a	n/a	n/a	n/a	n/a	n/a	n/a	n/a	n/a	n/a
2233.88	n/a	PROB	1116940	n/a	LTP131	ltpFR	10	n/a	n/a	n/a	n/a	n/a	n/a	23	9	6	8	n/a	n/a	n/a	n/a	n/a
2235.47	n/a	PROB	1117735	n/a	LTP131	ltpFR	10	n/a	n/a	n/a	n/a	n/a	n/a	18	8	7	3	n/a	n/a	n/a	n/a	n/a
2237.286	n/a	PROB	1118643	n/a	LTP131	ltpFR	10	n/a	n/a	n/a	n/a	n/a	n/a	12	2	1	9	n/a	n/a	n/a	n/a	n/a
2238.684	n/a	PROB	1119342	n/a	LTP131	ltpFR	10	n/a	n/a	n/a	n/a	n/a	n/a	16	6	8	2	n/a	n/a	n/a	n/a	n/a
2240.34	n/a	STOP	1120170	n/a	LTP131	ltpFR	10	n/a	n/a	n/a	n/a	n/a	n/a	n/a	n/a	n/a	n/a	n/a	n/a	n/a	n/a	n/a
2241.718	n/a	WORD	1120859	wordpools/wasnorm_wordpool.txt	LTP131	ltpFR	10	9	0	TURKEY	1520	n/a	1	n/a	0	0	0	1	0.412841796875	0.57763671875	lower	../fonts/amplitud.ttf
2244.724	n/a	START	1122362	n/a	LTP131	ltpFR	10	n/a	n/a	n/a	n/a	n/a	n/a	n/a	n/a	n/a	n/a	n/a	n/a	n/a	n/a	n/a
2245.682	n/a	PROB	1122841	n/a	LTP131	ltpFR	10	n/a	n/a	n/a	n/a	n/a	n/a	16	6	6	4	n/a	n/a	n/a	n/a	n/a
2247.332	n/a	PROB	1123666	n/a	LTP131	ltpFR	10	n/a	n/a	n/a	n/a	n/a	n/a	13	8	2	3	n/a	n/a	n/a	n/a	n/a
2248.99	n/a	PROB	1124495	n/a	LTP131	ltpFR	10	n/a	n/a	n/a	n/a	n/a	n/a	12	3	8	1	n/a	n/a	n/a	n/a	n/a
2250.982	n/a	PROB	1125491	n/a	LTP131	ltpFR	10	n/a	n/a	n/a	n/a	n/a	n/a	14	5	5	4	n/a	n/a	n/a	n/a	n/a
2252.116	n/a	STOP	1126058	n/a	LTP131	ltpFR	10	n/a	n/a	n/a	n/a	n/a	n/a	n/a	n/a	n/a	n/a	n/a	n/a	n/a	n/a	n/a
2253.722	n/a	WORD	1126861	wordpools/wasnorm_wordpool.txt	LTP131	ltpFR	10	9	0	MICROWAVE	892	n/a	1	n/a	0	0	0	1	0.412841796875	0.57763671875	lower	../fonts/amplitud.ttf
2256.73	n/a	START	1128365	n/a	LTP131	ltpFR	10	n/a	n/a	n/a	n/a	n/a	n/a	n/a	n/a	n/a	n/a	n/a	n/a	n/a	n/a	n/a
2257.596	n/a	PROB	1128798	n/a	LTP131	ltpFR	10	n/a	n/a	n/a	n/a	n/a	n/a	16	5	5	6	n/a	n/a	n/a	n/a	n/a
2258.936	n/a	PROB	1129468	n/a	LTP131	ltpFR	10	n/a	n/a	n/a	n/a	n/a	n/a	7	1	5	1	n/a	n/a	n/a	n/a	n/a
2260.504	n/a	PROB	1130252	n/a	LTP131	ltpFR	10	n/a	n/a	n/a	n/a	n/a	n/a	18	6	5	7	n/a	n/a	n/a	n/a	n/a
2262.428	n/a	PROB	1131214	n/a	LTP131	ltpFR	10	n/a	n/a	n/a	n/a	n/a	n/a	12	7	2	3	n/a	n/a	n/a	n/a	n/a
2263.708	n/a	STOP	1131854	n/a	LTP131	ltpFR	10	n/a	n/a	n/a	n/a	n/a	n/a	n/a	n/a	n/a	n/a	n/a	n/a	n/a	n/a	n/a
2265.902	n/a	WORD	1132951	wordpools/wasnorm_wordpool.txt	LTP131	ltpFR	10	9	1	WHIP	1604	n/a	0	n/a	0	0	0	0	0.5869140625	0.422607421875	upper	../fonts/zerothre.ttf
2268.91	n/a	START	1134455	n/a	LTP131	ltpFR	10	n/a	n/a	n/a	n/a	n/a	n/a	n/a	n/a	n/a	n/a	n/a	n/a	n/a	n/a	n/a
2269.826	n/a	PROB	1134913	n/a	LTP131	ltpFR	10	n/a	n/a	n/a	n/a	n/a	n/a	12	6	4	2	n/a	n/a	n/a	n/a	n/a
2271.584	n/a	PROB	1135792	n/a	LTP131	ltpFR	10	n/a	n/a	n/a	n/a	n/a	n/a	6	3	2	1	n/a	n/a	n/a	n/a	n/a
2273.35	n/a	PROB	1136675	n/a	LTP131	ltpFR	10	n/a	n/a	n/a	n/a	n/a	n/a	20	3	8	9	n/a	n/a	n/a	n/a	n/a
2275.058	n/a	PROB	1137529	n/a	LTP131	ltpFR	10	n/a	n/a	n/a	n/a	n/a	n/a	23	7	8	8	n/a	n/a	n/a	n/a	n/a
2276.406	n/a	STOP	1138203	n/a	LTP131	ltpFR	10	n/a	n/a	n/a	n/a	n/a	n/a	n/a	n/a	n/a	n/a	n/a	n/a	n/a	n/a	n/a
2277.972	n/a	WORD	1138986	wordpools/wasnorm_wordpool.txt	LTP131	ltpFR	10	9	1	BROOK	177	n/a	0	n/a	0	0	0	0	0.5869140625	0.422607421875	upper	../fonts/zerothre.ttf
2280.98	n/a	START	1140490	n/a	LTP131	ltpFR	10	n/a	n/a	n/a	n/a	n/a	n/a	n/a	n/a	n/a	n/a	n/a	n/a	n/a	n/a	n/a
2281.872	n/a	PROB	1140936	n/a	LTP131	ltpFR	10	n/a	n/a	n/a	n/a	n/a	n/a	15	4	9	2	n/a	n/a	n/a	n/a	n/a
2283.42	n/a	PROB	1141710	n/a	LTP131	ltpFR	10	n/a	n/a	n/a	n/a	n/a	n/a	9	1	5	3	n/a	n/a	n/a	n/a	n/a
2285.504	n/a	PROB	1142752	n/a	LTP131	ltpFR	10	n/a	n/a	n/a	n/a	n/a	n/a	19	9	5	5	n/a	n/a	n/a	n/a	n/a
2287.128	n/a	PROB	1143564	n/a	LTP131	ltpFR	10	n/a	n/a	n/a	n/a	n/a	n/a	24	8	7	9	n/a	n/a	n/a	n/a	n/a
2288.542	n/a	STOP	1144271	n/a	LTP131	ltpFR	10	n/a	n/a	n/a	n/a	n/a	n/a	n/a	n/a	n/a	n/a	n/a	n/a	n/a	n/a	n/a
2289.862	n/a	WORD	1144931	wordpools/wasnorm_wordpool.txt	LTP131	ltpFR	10	9	1	CONTAINER	366	n/a	0	n/a	0	0	0	0	0.5869140625	0.422607421875	upper	../fonts/zerothre.ttf
2292.87	n/a	START	1146435	n/a	LTP131	ltpFR	10	n/a	n/a	n/a	n/a	n/a	n/a	n/a	n/a	n/a	n/a	n/a	n/a	n/a	n/a	n/a
2293.984	n/a	PROB	1146992	n/a	LTP131	ltpFR	10	n/a	n/a	n/a	n/a	n/a	n/a	18	5	9	4	n/a	n/a	n/a	n/a	n/a
2296.4	n/a	PROB	1148200	n/a	LTP131	ltpFR	10	n/a	n/a	n/a	n/a	n/a	n/a	20	8	8	4	n/a	n/a	n/a	n/a	n/a
2298.142	n/a	PROB	1149071	n/a	LTP131	ltpFR	10	n/a	n/a	n/a	n/a	n/a	n/a	9	3	3	3	n/a	n/a	n/a	n/a	n/a
2299.43	n/a	STOP	1149715	n/a	LTP131	ltpFR	10	n/a	n/a	n/a	n/a	n/a	n/a	n/a	n/a	n/a	n/a	n/a	n/a	n/a	n/a	n/a
2301.84	n/a	WORD	1150920	wordpools/wasnorm_wordpool.txt	LTP131	ltpFR	10	9	1	FORK	594	n/a	0	n/a	0	0	0	0	0.5869140625	0.422607421875	upper	../fonts/zerothre.ttf
2304.848	n/a	START	1152424	n/a	LTP131	ltpFR	10	n/a	n/a	n/a	n/a	n/a	n/a	n/a	n/a	n/a	n/a	n/a	n/a	n/a	n/a	n/a
2305.664	n/a	PROB	1152832	n/a	LTP131	ltpFR	10	n/a	n/a	n/a	n/a	n/a	n/a	9	5	2	2	n/a	n/a	n/a	n/a	n/a
2307.264	n/a	PROB	1153632	n/a	LTP131	ltpFR	10	n/a	n/a	n/a	n/a	n/a	n/a	15	6	2	7	n/a	n/a	n/a	n/a	n/a
2309.822	n/a	PROB	1154911	n/a	LTP131	ltpFR	10	n/a	n/a	n/a	n/a	n/a	n/a	18	3	9	6	n/a	n/a	n/a	n/a	n/a
2312.85	n/a	STOP	1156425	n/a	LTP131	ltpFR	10	n/a	n/a	n/a	n/a	n/a	n/a	n/a	n/a	n/a	n/a	n/a	n/a	n/a	n/a	n/a
2314.67	n/a	REC_START	1157335	n/a	LTP131	ltpFR	10	9	n/a	n/a	n/a	n/a	n/a	n/a	0	0	0	n/a	n/a	n/a	n/a	n/a
2316.106	n/a	REC_WORD	1158053	wordpools/wasnorm_wordpool.txt	LTP131	ltpFR	10	9	1	WHIP	1604	n/a	0	n/a	0	0	0	n/a	n/a	n/a	n/a	n/a
2316.9	n/a	REC_WORD	1158450	wordpools/wasnorm_wordpool.txt	LTP131	ltpFR	10	9	1	FORK	594	n/a	0	n/a	0	0	0	n/a	n/a	n/a	n/a	n/a
2317.952	n/a	REC_WORD	1158976	wordpools/wasnorm_wordpool.txt	LTP131	ltpFR	10	9	1	MONUMENT	913	n/a	0	n/a	0	0	0	n/a	n/a	n/a	n/a	n/a
2319.14	n/a	REC_WORD_VV	1159570	wordpools/wasnorm_wordpool.txt	LTP131	ltpFR	10	9	n/a	<>	-1	n/a	n/a	n/a	0	0	0	n/a	n/a	n/a	n/a	n/a
2320.856	n/a	REC_WORD	1160428	wordpools/wasnorm_wordpool.txt	LTP131	ltpFR	10	9	1	BROOK	177	n/a	0	n/a	0	0	0	n/a	n/a	n/a	n/a	n/a
2321.794	n/a	REC_WORD	1160897	wordpools/wasnorm_wordpool.txt	LTP131	ltpFR	10	9	1	MOB	904	n/a	1	n/a	0	0	0	n/a	n/a	n/a	n/a	n/a
2322.682	n/a	REC_WORD	1161341	wordpools/wasnorm_wordpool.txt	LTP131	ltpFR	10	9	1	PRODUCER	1129	n/a	1	n/a	0	0	0	n/a	n/a	n/a	n/a	n/a
2323.894	n/a	REC_WORD	1161947	wordpools/wasnorm_wordpool.txt	LTP131	ltpFR	10	9	1	IDOL	733	n/a	1	n/a	0	0	0	n/a	n/a	n/a	n/a	n/a
2324.998	n/a	REC_WORD	1162499	wordpools/wasnorm_wordpool.txt	LTP131	ltpFR	10	9	0	GROCERIES	663	n/a	1	n/a	0	0	0	n/a	n/a	n/a	n/a	n/a
2326.13	n/a	REC_WORD	1163065	wordpools/wasnorm_wordpool.txt	LTP131	ltpFR	10	9	0	TURKEY	1520	n/a	1	n/a	0	0	0	n/a	n/a	n/a	n/a	n/a
2327.222	n/a	REC_WORD	1163611	wordpools/wasnorm_wordpool.txt	LTP131	ltpFR	10	9	0	RESTAURANT	1187	n/a	1	n/a	0	0	0	n/a	n/a	n/a	n/a	n/a
2328.444	n/a	REC_WORD	1164222	wordpools/wasnorm_wordpool.txt	LTP131	ltpFR	10	9	0	MICROWAVE	892	n/a	1	n/a	0	0	0	n/a	n/a	n/a	n/a	n/a
2329.942	n/a	REC_WORD	1164971	wordpools/wasnorm_wordpool.txt	LTP131	ltpFR	10	9	0	CONTRACTOR	369	n/a	1	n/a	0	0	0	n/a	n/a	n/a	n/a	n/a
2331.458	n/a	REC_WORD	1165729	wordpools/wasnorm_wordpool.txt	LTP131	ltpFR	10	9	0	ROOT	1210	n/a	1	n/a	0	0	0	n/a	n/a	n/a	n/a	n/a
2333.684	n/a	REC_WORD	1166842	wordpools/wasnorm_wordpool.txt	LTP131	ltpFR	10	9	0	BASKET	95	n/a	1	n/a	0	0	0	n/a	n/a	n/a	n/a	n/a
2345.382	n/a	REC_WORD_VV	1172691	wordpools/wasnorm_wordpool.txt	LTP131	ltpFR	10	9	n/a	<>	-1	n/a	n/a	n/a	0	0	0	n/a	n/a	n/a	n/a	n/a
2346.382	n/a	REC_WORD_VV	1173191	wordpools/wasnorm_wordpool.txt	LTP131	ltpFR	10	9	n/a	<>	-1	n/a	n/a	n/a	0	0	0	n/a	n/a	n/a	n/a	n/a
2347.382	n/a	REC_WORD_VV	1173691	wordpools/wasnorm_wordpool.txt	LTP131	ltpFR	10	9	n/a	<>	-1	n/a	n/a	n/a	0	0	0	n/a	n/a	n/a	n/a	n/a
2348.6	n/a	REC_WORD_VV	1174300	wordpools/wasnorm_wordpool.txt	LTP131	ltpFR	10	9	n/a	<>	-1	n/a	n/a	n/a	0	0	0	n/a	n/a	n/a	n/a	n/a
2349.6	n/a	REC_WORD_VV	1174800	wordpools/wasnorm_wordpool.txt	LTP131	ltpFR	10	9	n/a	<>	-1	n/a	n/a	n/a	0	0	0	n/a	n/a	n/a	n/a	n/a
2352.766	n/a	REC_WORD_VV	1176383	wordpools/wasnorm_wordpool.txt	LTP131	ltpFR	10	9	n/a	<>	-1	n/a	n/a	n/a	0	0	0	n/a	n/a	n/a	n/a	n/a
2353.766	n/a	REC_WORD_VV	1176883	wordpools/wasnorm_wordpool.txt	LTP131	ltpFR	10	9	n/a	<>	-1	n/a	n/a	n/a	0	0	0	n/a	n/a	n/a	n/a	n/a
2354.766	n/a	REC_WORD_VV	1177383	wordpools/wasnorm_wordpool.txt	LTP131	ltpFR	10	9	n/a	<>	-1	n/a	n/a	n/a	0	0	0	n/a	n/a	n/a	n/a	n/a
2355.766	n/a	REC_WORD_VV	1177883	wordpools/wasnorm_wordpool.txt	LTP131	ltpFR	10	9	n/a	<>	-1	n/a	n/a	n/a	0	0	0	n/a	n/a	n/a	n/a	n/a
2402.862	n/a	START	1201431	n/a	LTP131	ltpFR	10	n/a	n/a	n/a	n/a	n/a	n/a	n/a	n/a	n/a	n/a	n/a	n/a	n/a	n/a	n/a
2404.368	n/a	PROB	1202184	n/a	LTP131	ltpFR	10	n/a	n/a	n/a	n/a	n/a	n/a	15	6	4	5	n/a	n/a	n/a	n/a	n/a
2405.826	n/a	PROB	1202913	n/a	LTP131	ltpFR	10	n/a	n/a	n/a	n/a	n/a	n/a	22	6	7	9	n/a	n/a	n/a	n/a	n/a
2407.884	n/a	PROB	1203942	n/a	LTP131	ltpFR	10	n/a	n/a	n/a	n/a	n/a	n/a	12	1	4	7	n/a	n/a	n/a	n/a	n/a
2409.8	n/a	PROB	1204900	n/a	LTP131	ltpFR	10	n/a	n/a	n/a	n/a	n/a	n/a	21	5	7	9	n/a	n/a	n/a	n/a	n/a
2412.074	n/a	PROB	1206037	n/a	LTP131	ltpFR	10	n/a	n/a	n/a	n/a	n/a	n/a	19	6	4	9	n/a	n/a	n/a	n/a	n/a
2413.406	n/a	PROB	1206703	n/a	LTP131	ltpFR	10	n/a	n/a	n/a	n/a	n/a	n/a	18	2	7	9	n/a	n/a	n/a	n/a	n/a
2414.69	n/a	PROB	1207345	n/a	LTP131	ltpFR	10	n/a	n/a	n/a	n/a	n/a	n/a	22	7	6	9	n/a	n/a	n/a	n/a	n/a
2417.412	n/a	STOP	1208706	n/a	LTP131	ltpFR	10	n/a	n/a	n/a	n/a	n/a	n/a	n/a	n/a	n/a	n/a	n/a	n/a	n/a	n/a	n/a
2419.988	n/a	WORD	1209994	wordpools/wasnorm_wordpool.txt	LTP131	ltpFR	10	10	1	COLONEL	348	n/a	1	n/a	0	0	0	0	0.5869140625	0.422607421875	upper	../fonts/zerothre.ttf
2422.996	n/a	START	1211498	n/a	LTP131	ltpFR	10	n/a	n/a	n/a	n/a	n/a	n/a	n/a	n/a	n/a	n/a	n/a	n/a	n/a	n/a	n/a
2423.872	n/a	PROB	1211936	n/a	LTP131	ltpFR	10	n/a	n/a	n/a	n/a	n/a	n/a	8	2	1	5	n/a	n/a	n/a	n/a	n/a
2425.286	n/a	PROB	1212643	n/a	LTP131	ltpFR	10	n/a	n/a	n/a	n/a	n/a	n/a	15	8	5	2	n/a	n/a	n/a	n/a	n/a
2426.828	n/a	PROB	1213414	n/a	LTP131	ltpFR	10	n/a	n/a	n/a	n/a	n/a	n/a	17	8	4	5	n/a	n/a	n/a	n/a	n/a
2428.544	n/a	PROB	1214272	n/a	LTP131	ltpFR	10	n/a	n/a	n/a	n/a	n/a	n/a	12	1	4	7	n/a	n/a	n/a	n/a	n/a
2430.318	n/a	PROB	1215159	n/a	LTP131	ltpFR	10	n/a	n/a	n/a	n/a	n/a	n/a	16	8	7	1	n/a	n/a	n/a	n/a	n/a
2431.86	n/a	PROB	1215930	n/a	LTP131	ltpFR	10	n/a	n/a	n/a	n/a	n/a	n/a	16	8	4	4	n/a	n/a	n/a	n/a	n/a
2433.5	n/a	PROB	1216750	n/a	LTP131	ltpFR	10	n/a	n/a	n/a	n/a	n/a	n/a	20	8	4	8	n/a	n/a	n/a	n/a	n/a
2435.692	n/a	PROB	1217846	n/a	LTP131	ltpFR	10	n/a	n/a	n/a	n/a	n/a	n/a	17	7	3	7	n/a	n/a	n/a	n/a	n/a
2437.016	n/a	PROB	1218508	n/a	LTP131	ltpFR	10	n/a	n/a	n/a	n/a	n/a	n/a	17	7	2	8	n/a	n/a	n/a	n/a	n/a
2438.95	n/a	STOP	1219475	n/a	LTP131	ltpFR	10	n/a	n/a	n/a	n/a	n/a	n/a	n/a	n/a	n/a	n/a	n/a	n/a	n/a	n/a	n/a
2439.94	n/a	WORD	1219970	wordpools/wasnorm_wordpool.txt	LTP131	ltpFR	10	10	1	GENERAL	630	n/a	1	n/a	0	0	0	0	0.5869140625	0.422607421875	upper	../fonts/zerothre.ttf
2442.948	n/a	START	1221474	n/a	LTP131	ltpFR	10	n/a	n/a	n/a	n/a	n/a	n/a	n/a	n/a	n/a	n/a	n/a	n/a	n/a	n/a	n/a
2444.072	n/a	PROB	1222036	n/a	LTP131	ltpFR	10	n/a	n/a	n/a	n/a	n/a	n/a	11	4	3	4	n/a	n/a	n/a	n/a	n/a
2445.998	n/a	PROB	1222999	n/a	LTP131	ltpFR	10	n/a	n/a	n/a	n/a	n/a	n/a	22	9	7	6	n/a	n/a	n/a	n/a	n/a
2447.972	n/a	PROB	1223986	n/a	LTP131	ltpFR	10	n/a	n/a	n/a	n/a	n/a	n/a	23	9	9	5	n/a	n/a	n/a	n/a	n/a
2449.654	n/a	PROB	1224827	n/a	LTP131	ltpFR	10	n/a	n/a	n/a	n/a	n/a	n/a	13	7	3	3	n/a	n/a	n/a	n/a	n/a
2451.412	n/a	PROB	1225706	n/a	LTP131	ltpFR	10	n/a	n/a	n/a	n/a	n/a	n/a	10	6	1	3	n/a	n/a	n/a	n/a	n/a
2453.17	n/a	PROB	1226585	n/a	LTP131	ltpFR	10	n/a	n/a	n/a	n/a	n/a	n/a	15	5	1	9	n/a	n/a	n/a	n/a	n/a
2454.752	n/a	PROB	1227376	n/a	LTP131	ltpFR	10	n/a	n/a	n/a	n/a	n/a	n/a	15	6	6	3	n/a	n/a	n/a	n/a	n/a
2456.668	n/a	PROB	1228334	n/a	LTP131	ltpFR	10	n/a	n/a	n/a	n/a	n/a	n/a	17	8	1	8	n/a	n/a	n/a	n/a	n/a
2458.288	n/a	STOP	1229144	n/a	LTP131	ltpFR	10	n/a	n/a	n/a	n/a	n/a	n/a	n/a	n/a	n/a	n/a	n/a	n/a	n/a	n/a	n/a
2459.944	n/a	WORD	1229972	wordpools/wasnorm_wordpool.txt	LTP131	ltpFR	10	10	1	NOOSE	956	n/a	0	n/a	0	0	0	0	0.5869140625	0.422607421875	upper	../fonts/zerothre.ttf
2462.95	n/a	START	1231475	n/a	LTP131	ltpFR	10	n/a	n/a	n/a	n/a	n/a	n/a	n/a	n/a	n/a	n/a	n/a	n/a	n/a	n/a	n/a
2464.066	n/a	PROB	1232033	n/a	LTP131	ltpFR	10	n/a	n/a	n/a	n/a	n/a	n/a	19	6	5	8	n/a	n/a	n/a	n/a	n/a
2466.258	n/a	PROB	1233129	n/a	LTP131	ltpFR	10	n/a	n/a	n/a	n/a	n/a	n/a	19	3	7	9	n/a	n/a	n/a	n/a	n/a
2467.806	n/a	PROB	1233903	n/a	LTP131	ltpFR	10	n/a	n/a	n/a	n/a	n/a	n/a	12	2	4	6	n/a	n/a	n/a	n/a	n/a
2469.422	n/a	PROB	1234711	n/a	LTP131	ltpFR	10	n/a	n/a	n/a	n/a	n/a	n/a	13	8	4	1	n/a	n/a	n/a	n/a	n/a
2470.906	n/a	PROB	1235453	n/a	LTP131	ltpFR	10	n/a	n/a	n/a	n/a	n/a	n/a	24	6	9	9	n/a	n/a	n/a	n/a	n/a
2473.072	n/a	PROB	1236536	n/a	LTP131	ltpFR	10	n/a	n/a	n/a	n/a	n/a	n/a	24	6	9	9	n/a	n/a	n/a	n/a	n/a
2475.438	n/a	PROB	1237719	n/a	LTP131	ltpFR	10	n/a	n/a	n/a	n/a	n/a	n/a	21	9	8	4	n/a	n/a	n/a	n/a	n/a
2478.952	n/a	STOP	1239476	n/a	LTP131	ltpFR	10	n/a	n/a	n/a	n/a	n/a	n/a	n/a	n/a	n/a	n/a	n/a	n/a	n/a	n/a	n/a
2480.004	n/a	WORD	1240002	wordpools/wasnorm_wordpool.txt	LTP131	ltpFR	10	10	1	LOOP	844	n/a	0	n/a	0	0	0	0	0.5869140625	0.422607421875	upper	../fonts/zerothre.ttf
2483.012	n/a	START	1241506	n/a	LTP131	ltpFR	10	n/a	n/a	n/a	n/a	n/a	n/a	n/a	n/a	n/a	n/a	n/a	n/a	n/a	n/a	n/a
2483.844	n/a	PROB	1241922	n/a	LTP131	ltpFR	10	n/a	n/a	n/a	n/a	n/a	n/a	14	3	7	4	n/a	n/a	n/a	n/a	n/a
2485.268	n/a	PROB	1242634	n/a	LTP131	ltpFR	10	n/a	n/a	n/a	n/a	n/a	n/a	17	4	5	8	n/a	n/a	n/a	n/a	n/a
2486.802	n/a	PROB	1243401	n/a	LTP131	ltpFR	10	n/a	n/a	n/a	n/a	n/a	n/a	16	8	2	6	n/a	n/a	n/a	n/a	n/a
2488.35	n/a	PROB	1244175	n/a	LTP131	ltpFR	10	n/a	n/a	n/a	n/a	n/a	n/a	13	6	2	5	n/a	n/a	n/a	n/a	n/a
2490.524	n/a	PROB	1245262	n/a	LTP131	ltpFR	10	n/a	n/a	n/a	n/a	n/a	n/a	19	5	8	6	n/a	n/a	n/a	n/a	n/a
2492.59	n/a	PROB	1246295	n/a	LTP131	ltpFR	10	n/a	n/a	n/a	n/a	n/a	n/a	17	7	6	4	n/a	n/a	n/a	n/a	n/a
2494.182	n/a	PROB	1247091	n/a	LTP131	ltpFR	10	n/a	n/a	n/a	n/a	n/a	n/a	12	3	1	8	n/a	n/a	n/a	n/a	n/a
2495.69	n/a	PROB	1247845	n/a	LTP131	ltpFR	10	n/a	n/a	n/a	n/a	n/a	n/a	19	9	7	3	n/a	n/a	n/a	n/a	n/a
2497.398	n/a	PROB	1248699	n/a	LTP131	ltpFR	10	n/a	n/a	n/a	n/a	n/a	n/a	9	7	1	1	n/a	n/a	n/a	n/a	n/a
2498.898	n/a	STOP	1249449	n/a	LTP131	ltpFR	10	n/a	n/a	n/a	n/a	n/a	n/a	n/a	n/a	n/a	n/a	n/a	n/a	n/a	n/a	n/a
2500.09	n/a	WORD	1250045	wordpools/wasnorm_wordpool.txt	LTP131	ltpFR	10	10	1	BARTENDER	92	n/a	1	n/a	0	0	0	0	0.5869140625	0.422607421875	upper	../fonts/zerothre.ttf
2503.096	n/a	START	1251548	n/a	LTP131	ltpFR	10	n/a	n/a	n/a	n/a	n/a	n/a	n/a	n/a	n/a	n/a	n/a	n/a	n/a	n/a	n/a
2503.93	n/a	PROB	1251965	n/a	LTP131	ltpFR	10	n/a	n/a	n/a	n/a	n/a	n/a	15	3	7	5	n/a	n/a	n/a	n/a	n/a
2505.428	n/a	PROB	1252714	n/a	LTP131	ltpFR	10	n/a	n/a	n/a	n/a	n/a	n/a	10	1	1	8	n/a	n/a	n/a	n/a	n/a
2506.812	n/a	PROB	1253406	n/a	LTP131	ltpFR	10	n/a	n/a	n/a	n/a	n/a	n/a	14	3	3	8	n/a	n/a	n/a	n/a	n/a
2508.694	n/a	PROB	1254347	n/a	LTP131	ltpFR	10	n/a	n/a	n/a	n/a	n/a	n/a	12	3	2	7	n/a	n/a	n/a	n/a	n/a
2510.502	n/a	PROB	1255251	n/a	LTP131	ltpFR	10	n/a	n/a	n/a	n/a	n/a	n/a	15	6	7	2	n/a	n/a	n/a	n/a	n/a
2512.01	n/a	PROB	1256005	n/a	LTP131	ltpFR	10	n/a	n/a	n/a	n/a	n/a	n/a	24	9	7	8	n/a	n/a	n/a	n/a	n/a
2515.202	n/a	PROB	1257601	n/a	LTP131	ltpFR	10	n/a	n/a	n/a	n/a	n/a	n/a	25	8	8	9	n/a	n/a	n/a	n/a	n/a
2518.202	n/a	STOP	1259101	n/a	LTP131	ltpFR	10	n/a	n/a	n/a	n/a	n/a	n/a	n/a	n/a	n/a	n/a	n/a	n/a	n/a	n/a	n/a
2520.124	n/a	WORD	1260062	wordpools/wasnorm_wordpool.txt	LTP131	ltpFR	10	10	1	TELEPHONE	1445	n/a	0	n/a	0	0	0	0	0.5869140625	0.422607421875	upper	../fonts/zerothre.ttf
2523.132	n/a	START	1261566	n/a	LTP131	ltpFR	10	n/a	n/a	n/a	n/a	n/a	n/a	n/a	n/a	n/a	n/a	n/a	n/a	n/a	n/a	n/a
2524.232	n/a	PROB	1262116	n/a	LTP131	ltpFR	10	n/a	n/a	n/a	n/a	n/a	n/a	19	5	7	7	n/a	n/a	n/a	n/a	n/a
2525.964	n/a	PROB	1262982	n/a	LTP131	ltpFR	10	n/a	n/a	n/a	n/a	n/a	n/a	14	5	3	6	n/a	n/a	n/a	n/a	n/a
2527.606	n/a	PROB	1263803	n/a	LTP131	ltpFR	10	n/a	n/a	n/a	n/a	n/a	n/a	11	1	5	5	n/a	n/a	n/a	n/a	n/a
2528.964	n/a	PROB	1264482	n/a	LTP131	ltpFR	10	n/a	n/a	n/a	n/a	n/a	n/a	12	5	2	5	n/a	n/a	n/a	n/a	n/a
2530.57	n/a	PROB	1265285	n/a	LTP131	ltpFR	10	n/a	n/a	n/a	n/a	n/a	n/a	17	5	8	4	n/a	n/a	n/a	n/a	n/a
2532.936	n/a	PROB	1266468	n/a	LTP131	ltpFR	10	n/a	n/a	n/a	n/a	n/a	n/a	11	2	3	6	n/a	n/a	n/a	n/a	n/a
2534.32	n/a	PROB	1267160	n/a	LTP131	ltpFR	10	n/a	n/a	n/a	n/a	n/a	n/a	15	2	5	8	n/a	n/a	n/a	n/a	n/a
2535.88	n/a	PROB	1267940	n/a	LTP131	ltpFR	10	n/a	n/a	n/a	n/a	n/a	n/a	11	1	3	7	n/a	n/a	n/a	n/a	n/a
2537.62	n/a	STOP	1268810	n/a	LTP131	ltpFR	10	n/a	n/a	n/a	n/a	n/a	n/a	n/a	n/a	n/a	n/a	n/a	n/a	n/a	n/a	n/a
2540.06	n/a	WORD	1270030	wordpools/wasnorm_wordpool.txt	LTP131	ltpFR	10	10	1	CHESS	294	n/a	0	n/a	0	0	0	0	0.5869140625	0.422607421875	upper	../fonts/zerothre.ttf
2543.068	n/a	START	1271534	n/a	LTP131	ltpFR	10	n/a	n/a	n/a	n/a	n/a	n/a	n/a	n/a	n/a	n/a	n/a	n/a	n/a	n/a	n/a
2544.118	n/a	PROB	1272059	n/a	LTP131	ltpFR	10	n/a	n/a	n/a	n/a	n/a	n/a	17	4	6	7	n/a	n/a	n/a	n/a	n/a
2545.784	n/a	PROB	1272892	n/a	LTP131	ltpFR	10	n/a	n/a	n/a	n/a	n/a	n/a	17	8	8	1	n/a	n/a	n/a	n/a	n/a
2547.292	n/a	PROB	1273646	n/a	LTP131	ltpFR	10	n/a	n/a	n/a	n/a	n/a	n/a	19	8	7	4	n/a	n/a	n/a	n/a	n/a
2548.892	n/a	PROB	1274446	n/a	LTP131	ltpFR	10	n/a	n/a	n/a	n/a	n/a	n/a	9	2	4	3	n/a	n/a	n/a	n/a	n/a
2551.44	n/a	PROB	1275720	n/a	LTP131	ltpFR	10	n/a	n/a	n/a	n/a	n/a	n/a	16	5	6	5	n/a	n/a	n/a	n/a	n/a
2553.13	n/a	PROB	1276565	n/a	LTP131	ltpFR	10	n/a	n/a	n/a	n/a	n/a	n/a	18	9	4	5	n/a	n/a	n/a	n/a	n/a
2555.788	n/a	PROB	1277894	n/a	LTP131	ltpFR	10	n/a	n/a	n/a	n/a	n/a	n/a	11	9	1	1	n/a	n/a	n/a	n/a	n/a
2556.914	n/a	PROB	1278457	n/a	LTP131	ltpFR	10	n/a	n/a	n/a	n/a	n/a	n/a	16	5	9	2	n/a	n/a	n/a	n/a	n/a
2558.444	n/a	STOP	1279222	n/a	LTP131	ltpFR	10	n/a	n/a	n/a	n/a	n/a	n/a	n/a	n/a	n/a	n/a	n/a	n/a	n/a	n/a	n/a
2560.07	n/a	WORD	1280035	wordpools/wasnorm_wordpool.txt	LTP131	ltpFR	10	10	1	CARPENTER	246	n/a	1	n/a	0	0	0	0	0.5869140625	0.422607421875	upper	../fonts/zerothre.ttf
2563.078	n/a	START	1281539	n/a	LTP131	ltpFR	10	n/a	n/a	n/a	n/a	n/a	n/a	n/a	n/a	n/a	n/a	n/a	n/a	n/a	n/a	n/a
2564.178	n/a	PROB	1282089	n/a	LTP131	ltpFR	10	n/a	n/a	n/a	n/a	n/a	n/a	12	3	8	1	n/a	n/a	n/a	n/a	n/a
2566.136	n/a	PROB	1283068	n/a	LTP131	ltpFR	10	n/a	n/a	n/a	n/a	n/a	n/a	19	8	9	2	n/a	n/a	n/a	n/a	n/a
2567.652	n/a	PROB	1283826	n/a	LTP131	ltpFR	10	n/a	n/a	n/a	n/a	n/a	n/a	16	5	5	6	n/a	n/a	n/a	n/a	n/a
2568.96	n/a	PROB	1284480	n/a	LTP131	ltpFR	10	n/a	n/a	n/a	n/a	n/a	n/a	9	2	1	6	n/a	n/a	n/a	n/a	n/a
2570.658	n/a	PROB	1285329	n/a	LTP131	ltpFR	10	n/a	n/a	n/a	n/a	n/a	n/a	21	5	7	9	n/a	n/a	n/a	n/a	n/a
2573.008	n/a	PROB	1286504	n/a	LTP131	ltpFR	10	n/a	n/a	n/a	n/a	n/a	n/a	14	8	3	3	n/a	n/a	n/a	n/a	n/a
2574.942	n/a	PROB	1287471	n/a	LTP131	ltpFR	10	n/a	n/a	n/a	n/a	n/a	n/a	16	6	9	1	n/a	n/a	n/a	n/a	n/a
2576.308	n/a	PROB	1288154	n/a	LTP131	ltpFR	10	n/a	n/a	n/a	n/a	n/a	n/a	12	2	9	1	n/a	n/a	n/a	n/a	n/a
2577.846	n/a	STOP	1288923	n/a	LTP131	ltpFR	10	n/a	n/a	n/a	n/a	n/a	n/a	n/a	n/a	n/a	n/a	n/a	n/a	n/a	n/a	n/a
2579.998	n/a	WORD	1289999	wordpools/wasnorm_wordpool.txt	LTP131	ltpFR	10	10	1	WIRE	1616	n/a	0	n/a	0	0	0	0	0.5869140625	0.422607421875	upper	../fonts/zerothre.ttf
2583.006	n/a	START	1291503	n/a	LTP131	ltpFR	10	n/a	n/a	n/a	n/a	n/a	n/a	n/a	n/a	n/a	n/a	n/a	n/a	n/a	n/a	n/a
2583.864	n/a	PROB	1291932	n/a	LTP131	ltpFR	10	n/a	n/a	n/a	n/a	n/a	n/a	14	1	8	5	n/a	n/a	n/a	n/a	n/a
2585.622	n/a	PROB	1292811	n/a	LTP131	ltpFR	10	n/a	n/a	n/a	n/a	n/a	n/a	12	8	1	3	n/a	n/a	n/a	n/a	n/a
2587.47	n/a	PROB	1293735	n/a	LTP131	ltpFR	10	n/a	n/a	n/a	n/a	n/a	n/a	11	4	3	4	n/a	n/a	n/a	n/a	n/a
2589.552	n/a	PROB	1294776	n/a	LTP131	ltpFR	10	n/a	n/a	n/a	n/a	n/a	n/a	7	2	3	2	n/a	n/a	n/a	n/a	n/a
2591.42	n/a	PROB	1295710	n/a	LTP131	ltpFR	10	n/a	n/a	n/a	n/a	n/a	n/a	20	6	5	9	n/a	n/a	n/a	n/a	n/a
2592.896	n/a	PROB	1296448	n/a	LTP131	ltpFR	10	n/a	n/a	n/a	n/a	n/a	n/a	17	6	5	6	n/a	n/a	n/a	n/a	n/a
2596.31	n/a	PROB	1298155	n/a	LTP131	ltpFR	10	n/a	n/a	n/a	n/a	n/a	n/a	8	3	4	1	n/a	n/a	n/a	n/a	n/a
2598.022	n/a	STOP	1299011	n/a	LTP131	ltpFR	10	n/a	n/a	n/a	n/a	n/a	n/a	n/a	n/a	n/a	n/a	n/a	n/a	n/a	n/a	n/a
2600.142	n/a	WORD	1300071	wordpools/wasnorm_wordpool.txt	LTP131	ltpFR	10	10	1	SHOP	1290	n/a	0	n/a	0	0	0	0	0.5869140625	0.422607421875	upper	../fonts/zerothre.ttf
2603.15	n/a	START	1301575	n/a	LTP131	ltpFR	10	n/a	n/a	n/a	n/a	n/a	n/a	n/a	n/a	n/a	n/a	n/a	n/a	n/a	n/a	n/a
2604.074	n/a	PROB	1302037	n/a	LTP131	ltpFR	10	n/a	n/a	n/a	n/a	n/a	n/a	14	1	8	5	n/a	n/a	n/a	n/a	n/a
2605.748	n/a	PROB	1302874	n/a	LTP131	ltpFR	10	n/a	n/a	n/a	n/a	n/a	n/a	9	4	4	1	n/a	n/a	n/a	n/a	n/a
2607.222	n/a	PROB	1303611	n/a	LTP131	ltpFR	10	n/a	n/a	n/a	n/a	n/a	n/a	17	4	6	7	n/a	n/a	n/a	n/a	n/a
2608.906	n/a	PROB	1304453	n/a	LTP131	ltpFR	10	n/a	n/a	n/a	n/a	n/a	n/a	16	7	4	5	n/a	n/a	n/a	n/a	n/a
