onset	duration	trial_type	sample	stim_file	subject	experiment	session	trial	item_name	item_num	list	answer	test_x	test_y	test_z
209.526	n/a	SESS_START	104763	n/a	LTP299	ltpFR2	3	n/a	n/a	n/a	n/a	n/a	0	0	0
223.09	n/a	START	111545	n/a	LTP299	ltpFR2	3	n/a	n/a	n/a	-1	n/a	n/a	n/a	n/a
223.11	n/a	PROB	111555	n/a	LTP299	ltpFR2	3	n/a	n/a	n/a	-1	9	2	6	1
226.938	n/a	PROB	113469	n/a	LTP299	ltpFR2	3	n/a	n/a	n/a	-1	17	4	7	6
229.824	n/a	PROB	114912	n/a	LTP299	ltpFR2	3	n/a	n/a	n/a	-1	19	3	7	9
231.876	n/a	PROB	115938	n/a	LTP299	ltpFR2	3	n/a	n/a	n/a	-1	16	9	5	2
234.236	n/a	STOP	117118	n/a	LTP299	ltpFR2	3	n/a	n/a	n/a	-1	n/a	n/a	n/a	n/a
264.718	n/a	WORD	132359	wordpools/wasnorm_wordpool_576.txt	LTP299	ltpFR2	3	1	GOBLIN	645	n/a	n/a	0	0	0
267.314	n/a	WORD	133657	wordpools/wasnorm_wordpool_576.txt	LTP299	ltpFR2	3	1	NOMAD	955	n/a	n/a	0	0	0
270.1	n/a	WORD	135050	wordpools/wasnorm_wordpool_576.txt	LTP299	ltpFR2	3	1	SUPPER	1411	n/a	n/a	0	0	0
272.676	n/a	WORD	136338	wordpools/wasnorm_wordpool_576.txt	LTP299	ltpFR2	3	1	DASHBOARD	441	n/a	n/a	0	0	0
275.138	n/a	WORD	137569	wordpools/wasnorm_wordpool_576.txt	LTP299	ltpFR2	3	1	SPHINX	1349	n/a	n/a	0	0	0
277.624	n/a	WORD	138812	wordpools/wasnorm_wordpool_576.txt	LTP299	ltpFR2	3	1	MUMMY	932	n/a	n/a	0	0	0
280.076	n/a	WORD	140038	wordpools/wasnorm_wordpool_576.txt	LTP299	ltpFR2	3	1	MILK	895	n/a	n/a	0	0	0
282.662	n/a	WORD	141331	wordpools/wasnorm_wordpool_576.txt	LTP299	ltpFR2	3	1	CITRUS	313	n/a	n/a	0	0	0
285.318	n/a	WORD	142659	wordpools/wasnorm_wordpool_576.txt	LTP299	ltpFR2	3	1	TRACTOR	1493	n/a	n/a	0	0	0
287.798	n/a	WORD	143899	wordpools/wasnorm_wordpool_576.txt	LTP299	ltpFR2	3	1	COOKBOOK	373	n/a	n/a	0	0	0
290.408	n/a	WORD	145204	wordpools/wasnorm_wordpool_576.txt	LTP299	ltpFR2	3	1	GIFT	635	n/a	n/a	0	0	0
293.138	n/a	WORD	146569	wordpools/wasnorm_wordpool_576.txt	LTP299	ltpFR2	3	1	VAGRANT	1544	n/a	n/a	0	0	0
295.828	n/a	WORD	147914	wordpools/wasnorm_wordpool_576.txt	LTP299	ltpFR2	3	1	CORAL	378	n/a	n/a	0	0	0
298.542	n/a	WORD	149271	wordpools/wasnorm_wordpool_576.txt	LTP299	ltpFR2	3	1	GRAVEL	659	n/a	n/a	0	0	0
301.11	n/a	WORD	150555	wordpools/wasnorm_wordpool_576.txt	LTP299	ltpFR2	3	1	ANTLER	29	n/a	n/a	0	0	0
303.912	n/a	WORD	151956	wordpools/wasnorm_wordpool_576.txt	LTP299	ltpFR2	3	1	POCKET	1093	n/a	n/a	0	0	0
306.682	n/a	WORD	153341	wordpools/wasnorm_wordpool_576.txt	LTP299	ltpFR2	3	1	ZIPPER	1636	n/a	n/a	0	0	0
309.168	n/a	WORD	154584	wordpools/wasnorm_wordpool_576.txt	LTP299	ltpFR2	3	1	LADDER	793	n/a	n/a	0	0	0
311.702	n/a	WORD	155851	wordpools/wasnorm_wordpool_576.txt	LTP299	ltpFR2	3	1	BOX	159	n/a	n/a	0	0	0
314.426	n/a	WORD	157213	wordpools/wasnorm_wordpool_576.txt	LTP299	ltpFR2	3	1	DANDRUFF	439	n/a	n/a	0	0	0
316.928	n/a	WORD	158464	wordpools/wasnorm_wordpool_576.txt	LTP299	ltpFR2	3	1	BISON	131	n/a	n/a	0	0	0
319.576	n/a	WORD	159788	wordpools/wasnorm_wordpool_576.txt	LTP299	ltpFR2	3	1	CASKET	255	n/a	n/a	0	0	0
322.194	n/a	WORD	161097	wordpools/wasnorm_wordpool_576.txt	LTP299	ltpFR2	3	1	CLAMP	316	n/a	n/a	0	0	0
324.718	n/a	WORD	162359	wordpools/wasnorm_wordpool_576.txt	LTP299	ltpFR2	3	1	IGLOO	734	n/a	n/a	0	0	0
326.334	n/a	START	163167	n/a	LTP299	ltpFR2	3	n/a	n/a	n/a	1	n/a	n/a	n/a	n/a
327.414	n/a	DISTRACTOR	163707	n/a	LTP299	ltpFR2	3	1	n/a	n/a	n/a	n/a	0	0	0
327.42	n/a	PROB	163710	n/a	LTP299	ltpFR2	3	n/a	n/a	n/a	1	10	1	8	1
329.002	n/a	PROB	164501	n/a	LTP299	ltpFR2	3	n/a	n/a	n/a	1	18	7	3	8
330.784	n/a	PROB	165392	n/a	LTP299	ltpFR2	3	n/a	n/a	n/a	1	12	2	6	4
332.656	n/a	PROB	166328	n/a	LTP299	ltpFR2	3	n/a	n/a	n/a	1	16	4	9	3
335.492	n/a	PROB	167746	n/a	LTP299	ltpFR2	3	n/a	n/a	n/a	1	17	6	2	9
337.992	n/a	PROB	168996	n/a	LTP299	ltpFR2	3	n/a	n/a	n/a	1	7	1	2	4
339.96	n/a	PROB	169980	n/a	LTP299	ltpFR2	3	n/a	n/a	n/a	1	16	3	6	7
341.828	n/a	PROB	170914	n/a	LTP299	ltpFR2	3	n/a	n/a	n/a	1	23	9	6	5
344.614	n/a	PROB	172307	n/a	LTP299	ltpFR2	3	n/a	n/a	n/a	1	16	9	2	5
347.132	n/a	PROB	173566	n/a	LTP299	ltpFR2	3	n/a	n/a	n/a	1	22	8	5	9
349.704	n/a	STOP	174852	n/a	LTP299	ltpFR2	3	n/a	n/a	n/a	1	n/a	n/a	n/a	n/a
352.122	n/a	REC_START	176061	n/a	LTP299	ltpFR2	3	1	n/a	n/a	n/a	n/a	0	0	0
353.558	n/a	REC_WORD	176779	wordpools/wasnorm_wordpool_576.txt	LTP299	ltpFR2	3	1	CASKET	255	n/a	n/a	0	0	0
355.472	n/a	REC_WORD	177736	wordpools/wasnorm_wordpool_576.txt	LTP299	ltpFR2	3	1	CLAMP	316	n/a	n/a	0	0	0
356.812	n/a	REC_WORD	178406	wordpools/wasnorm_wordpool_576.txt	LTP299	ltpFR2	3	1	IGLOO	734	n/a	n/a	0	0	0
358.312	n/a	REC_WORD	179156	wordpools/wasnorm_wordpool_576.txt	LTP299	ltpFR2	3	1	DANDRUFF	439	n/a	n/a	0	0	0
363.96	n/a	REC_WORD	181980	wordpools/wasnorm_wordpool_576.txt	LTP299	ltpFR2	3	1	GOBLIN	645	n/a	n/a	0	0	0
368.032	n/a	REC_WORD	184016	wordpools/wasnorm_wordpool_576.txt	LTP299	ltpFR2	3	1	NOMAD	955	n/a	n/a	0	0	0
371.09	n/a	REC_WORD	185545	wordpools/wasnorm_wordpool_576.txt	LTP299	ltpFR2	3	1	VAGRANT	1544	n/a	n/a	0	0	0
372.848	n/a	REC_WORD	186424	wordpools/wasnorm_wordpool_576.txt	LTP299	ltpFR2	3	1	DANDRUFF	439	n/a	n/a	0	0	0
375.404	n/a	REC_WORD	187702	wordpools/wasnorm_wordpool_576.txt	LTP299	ltpFR2	3	1	SUPPER	1411	n/a	n/a	0	0	0
377.022	n/a	REC_WORD	188511	wordpools/wasnorm_wordpool_576.txt	LTP299	ltpFR2	3	1	MILK	895	n/a	n/a	0	0	0
379.376	n/a	REC_WORD	189688	wordpools/wasnorm_wordpool_576.txt	LTP299	ltpFR2	3	1	COOKBOOK	373	n/a	n/a	0	0	0
383.146	n/a	REC_WORD	191573	wordpools/wasnorm_wordpool_576.txt	LTP299	ltpFR2	3	1	GIFT	635	n/a	n/a	0	0	0
389.478	n/a	REC_WORD	194739	wordpools/wasnorm_wordpool_576.txt	LTP299	ltpFR2	3	1	SPHINX	1349	n/a	n/a	0	0	0
390.784	n/a	REC_WORD	195392	wordpools/wasnorm_wordpool_576.txt	LTP299	ltpFR2	3	1	MUMMY	932	n/a	n/a	0	0	0
392.058	n/a	REC_WORD	196029	wordpools/wasnorm_wordpool_576.txt	LTP299	ltpFR2	3	1	GRAVEL	659	n/a	n/a	0	0	0
393.174	n/a	REC_WORD	196587	wordpools/wasnorm_wordpool_576.txt	LTP299	ltpFR2	3	1	CORAL	378	n/a	n/a	0	0	0
394.408	n/a	REC_WORD	197204	wordpools/wasnorm_wordpool_576.txt	LTP299	ltpFR2	3	1	ANTLER	29	n/a	n/a	0	0	0
395.802	n/a	REC_WORD	197901	wordpools/wasnorm_wordpool_576.txt	LTP299	ltpFR2	3	1	BISON	131	n/a	n/a	0	0	0
402.704	n/a	REC_WORD	201352	wordpools/wasnorm_wordpool_576.txt	LTP299	ltpFR2	3	1	DASHBOARD	441	n/a	n/a	0	0	0
403.822	n/a	REC_WORD	201911	wordpools/wasnorm_wordpool_576.txt	LTP299	ltpFR2	3	1	TRACTOR	1493	n/a	n/a	0	0	0
442.548	n/a	DISTRACTOR	221274	n/a	LTP299	ltpFR2	3	2	n/a	n/a	n/a	n/a	0	0	0
442.548	n/a	START	221274	n/a	LTP299	ltpFR2	3	n/a	n/a	n/a	2	n/a	n/a	n/a	n/a
442.564	n/a	PROB	221282	n/a	LTP299	ltpFR2	3	n/a	n/a	n/a	2	8	4	2	2
444.01	n/a	PROB	222005	n/a	LTP299	ltpFR2	3	n/a	n/a	n/a	2	25	7	9	9
446.38	n/a	PROB	223190	n/a	LTP299	ltpFR2	3	n/a	n/a	n/a	2	20	7	7	6
448.53	n/a	PROB	224265	n/a	LTP299	ltpFR2	3	n/a	n/a	n/a	2	13	3	4	6
450.382	n/a	PROB	225191	n/a	LTP299	ltpFR2	3	n/a	n/a	n/a	2	19	9	3	7
452.05	n/a	PROB	226025	n/a	LTP299	ltpFR2	3	n/a	n/a	n/a	2	20	8	8	4
454.102	n/a	PROB	227051	n/a	LTP299	ltpFR2	3	n/a	n/a	n/a	2	10	6	1	3
456.454	n/a	PROB	228227	n/a	LTP299	ltpFR2	3	n/a	n/a	n/a	2	11	2	3	6
458.222	n/a	PROB	229111	n/a	LTP299	ltpFR2	3	n/a	n/a	n/a	2	11	6	1	4
459.99	n/a	PROB	229995	n/a	LTP299	ltpFR2	3	n/a	n/a	n/a	2	12	2	2	8
461.808	n/a	PROB	230904	n/a	LTP299	ltpFR2	3	n/a	n/a	n/a	2	11	4	4	3
464.662	n/a	PROB	232331	n/a	LTP299	ltpFR2	3	n/a	n/a	n/a	2	10	6	2	2
466.34	n/a	STOP	233170	n/a	LTP299	ltpFR2	3	n/a	n/a	n/a	2	n/a	n/a	n/a	n/a
467.446	n/a	WORD	233723	wordpools/wasnorm_wordpool_576.txt	LTP299	ltpFR2	3	2	ANKLE	24	n/a	n/a	0	0	0
470.132	n/a	WORD	235066	wordpools/wasnorm_wordpool_576.txt	LTP299	ltpFR2	3	2	XEROX	1628	n/a	n/a	0	0	0
472.918	n/a	WORD	236459	wordpools/wasnorm_wordpool_576.txt	LTP299	ltpFR2	3	2	LADY	794	n/a	n/a	0	0	0
475.652	n/a	WORD	237826	wordpools/wasnorm_wordpool_576.txt	LTP299	ltpFR2	3	2	TWIG	1527	n/a	n/a	0	0	0
478.304	n/a	WORD	239152	wordpools/wasnorm_wordpool_576.txt	LTP299	ltpFR2	3	2	HEDGE	699	n/a	n/a	0	0	0
480.866	n/a	WORD	240433	wordpools/wasnorm_wordpool_576.txt	LTP299	ltpFR2	3	2	CARROT	249	n/a	n/a	0	0	0
483.61	n/a	WORD	241805	wordpools/wasnorm_wordpool_576.txt	LTP299	ltpFR2	3	2	RABBIT	1152	n/a	n/a	0	0	0
486.42	n/a	WORD	243210	wordpools/wasnorm_wordpool_576.txt	LTP299	ltpFR2	3	2	DRILL	497	n/a	n/a	0	0	0
489.188	n/a	WORD	244594	wordpools/wasnorm_wordpool_576.txt	LTP299	ltpFR2	3	2	CHIPMUNK	304	n/a	n/a	0	0	0
491.716	n/a	WORD	245858	wordpools/wasnorm_wordpool_576.txt	LTP299	ltpFR2	3	2	SWAMP	1416	n/a	n/a	0	0	0
494.368	n/a	WORD	247184	wordpools/wasnorm_wordpool_576.txt	LTP299	ltpFR2	3	2	MATCH	878	n/a	n/a	0	0	0
496.896	n/a	WORD	248448	wordpools/wasnorm_wordpool_576.txt	LTP299	ltpFR2	3	2	SEAFOOD	1260	n/a	n/a	0	0	0
499.606	n/a	WORD	249803	wordpools/wasnorm_wordpool_576.txt	LTP299	ltpFR2	3	2	GARBAGE	622	n/a	n/a	0	0	0
502.134	n/a	WORD	251067	wordpools/wasnorm_wordpool_576.txt	LTP299	ltpFR2	3	2	CUSTARD	429	n/a	n/a	0	0	0
504.82	n/a	WORD	252410	wordpools/wasnorm_wordpool_576.txt	LTP299	ltpFR2	3	2	CLAM	315	n/a	n/a	0	0	0
507.272	n/a	WORD	253636	wordpools/wasnorm_wordpool_576.txt	LTP299	ltpFR2	3	2	PUDDING	1139	n/a	n/a	0	0	0
510.03	n/a	WORD	255015	wordpools/wasnorm_wordpool_576.txt	LTP299	ltpFR2	3	2	SKIRT	1319	n/a	n/a	0	0	0
512.632	n/a	WORD	256316	wordpools/wasnorm_wordpool_576.txt	LTP299	ltpFR2	3	2	MAMMAL	861	n/a	n/a	0	0	0
515.278	n/a	WORD	257639	wordpools/wasnorm_wordpool_576.txt	LTP299	ltpFR2	3	2	SIDEWALK	1303	n/a	n/a	0	0	0
517.932	n/a	WORD	258966	wordpools/wasnorm_wordpool_576.txt	LTP299	ltpFR2	3	2	PIGMENT	1066	n/a	n/a	0	0	0
520.506	n/a	WORD	260253	wordpools/wasnorm_wordpool_576.txt	LTP299	ltpFR2	3	2	FIREPLACE	570	n/a	n/a	0	0	0
523.174	n/a	WORD	261587	wordpools/wasnorm_wordpool_576.txt	LTP299	ltpFR2	3	2	WASHER	1592	n/a	n/a	0	0	0
525.626	n/a	WORD	262813	wordpools/wasnorm_wordpool_576.txt	LTP299	ltpFR2	3	2	BASEMENT	94	n/a	n/a	0	0	0
528.406	n/a	WORD	264203	wordpools/wasnorm_wordpool_576.txt	LTP299	ltpFR2	3	2	SCARF	1246	n/a	n/a	0	0	0
530.014	n/a	START	265007	n/a	LTP299	ltpFR2	3	n/a	n/a	n/a	3	n/a	n/a	n/a	n/a
531.092	n/a	DISTRACTOR	265546	n/a	LTP299	ltpFR2	3	2	n/a	n/a	n/a	n/a	0	0	0
531.098	n/a	PROB	265549	n/a	LTP299	ltpFR2	3	n/a	n/a	n/a	3	25	8	8	9
533.6	n/a	PROB	266800	n/a	LTP299	ltpFR2	3	n/a	n/a	n/a	3	6	2	2	2
534.7	n/a	PROB	267350	n/a	LTP299	ltpFR2	3	n/a	n/a	n/a	3	23	5	9	9
537.32	n/a	PROB	268660	n/a	LTP299	ltpFR2	3	n/a	n/a	n/a	3	12	7	4	1
539.202	n/a	PROB	269601	n/a	LTP299	ltpFR2	3	n/a	n/a	n/a	3	20	8	9	3
542.138	n/a	PROB	271069	n/a	LTP299	ltpFR2	3	n/a	n/a	n/a	3	17	9	1	7
543.974	n/a	PROB	271987	n/a	LTP299	ltpFR2	3	n/a	n/a	n/a	3	25	8	7	8
546.236	n/a	PROB	273118	n/a	LTP299	ltpFR2	3	n/a	n/a	n/a	3	19	1	9	9
548.628	n/a	PROB	274314	n/a	LTP299	ltpFR2	3	n/a	n/a	n/a	3	14	7	4	3
550.614	n/a	PROB	275307	n/a	LTP299	ltpFR2	3	n/a	n/a	n/a	3	10	6	2	2
552.132	n/a	PROB	276066	n/a	LTP299	ltpFR2	3	n/a	n/a	n/a	3	14	3	7	4
553.598	n/a	STOP	276799	n/a	LTP299	ltpFR2	3	n/a	n/a	n/a	3	n/a	n/a	n/a	n/a
555.946	n/a	REC_START	277973	n/a	LTP299	ltpFR2	3	2	n/a	n/a	n/a	n/a	0	0	0
557.42	n/a	REC_WORD	278710	wordpools/wasnorm_wordpool_576.txt	LTP299	ltpFR2	3	2	PIGMENT	1066	n/a	n/a	0	0	0
559.038	n/a	REC_WORD	279519	wordpools/wasnorm_wordpool_576.txt	LTP299	ltpFR2	3	2	BASEMENT	94	n/a	n/a	0	0	0
567.89	n/a	REC_WORD	283945	wordpools/wasnorm_wordpool_576.txt	LTP299	ltpFR2	3	2	LADY	794	n/a	n/a	0	0	0
569.416	n/a	REC_WORD	284708	wordpools/wasnorm_wordpool_576.txt	LTP299	ltpFR2	3	2	ANKLE	24	n/a	n/a	0	0	0
570.864	n/a	REC_WORD	285432	wordpools/wasnorm_wordpool_576.txt	LTP299	ltpFR2	3	2	XEROX	1628	n/a	n/a	0	0	0
572.374	n/a	REC_WORD	286187	wordpools/wasnorm_wordpool_576.txt	LTP299	ltpFR2	3	2	SKIRT	1319	n/a	n/a	0	0	0
575.664	n/a	REC_WORD	287832	wordpools/wasnorm_wordpool_576.txt	LTP299	ltpFR2	3	2	TWIG	1527	n/a	n/a	0	0	0
577.03	n/a	REC_WORD	288515	wordpools/wasnorm_wordpool_576.txt	LTP299	ltpFR2	3	2	HEDGE	699	n/a	n/a	0	0	0
578.446	n/a	REC_WORD	289223	wordpools/wasnorm_wordpool_576.txt	LTP299	ltpFR2	3	2	CARROT	249	n/a	n/a	0	0	0
579.882	n/a	REC_WORD	289941	wordpools/wasnorm_wordpool_576.txt	LTP299	ltpFR2	3	2	RABBIT	1152	n/a	n/a	0	0	0
582.626	n/a	REC_WORD	291313	wordpools/wasnorm_wordpool_576.txt	LTP299	ltpFR2	3	2	SWAMP	1416	n/a	n/a	0	0	0
585.528	n/a	REC_WORD	292764	wordpools/wasnorm_wordpool_576.txt	LTP299	ltpFR2	3	2	SIDEWALK	1303	n/a	n/a	0	0	0
587.946	n/a	REC_WORD	293973	wordpools/wasnorm_wordpool_576.txt	LTP299	ltpFR2	3	2	SEAFOOD	1260	n/a	n/a	0	0	0
589.82	n/a	REC_WORD	294910	wordpools/wasnorm_wordpool_576.txt	LTP299	ltpFR2	3	2	CLAM	315	n/a	n/a	0	0	0
591.782	n/a	REC_WORD	295891	wordpools/wasnorm_wordpool_576.txt	LTP299	ltpFR2	3	2	GARBAGE	622	n/a	n/a	0	0	0
646.404	n/a	WORD	323202	wordpools/wasnorm_wordpool_576.txt	LTP299	ltpFR2	3	3	TEACHER	1440	n/a	n/a	0	0	0
648.908	n/a	WORD	324454	wordpools/wasnorm_wordpool_576.txt	LTP299	ltpFR2	3	3	PUPIL	1143	n/a	n/a	0	0	0
651.66	n/a	WORD	325830	wordpools/wasnorm_wordpool_576.txt	LTP299	ltpFR2	3	3	BROTHER	179	n/a	n/a	0	0	0
654.428	n/a	WORD	327214	wordpools/wasnorm_wordpool_576.txt	LTP299	ltpFR2	3	3	MARKER	870	n/a	n/a	0	0	0
656.98	n/a	WORD	328490	wordpools/wasnorm_wordpool_576.txt	LTP299	ltpFR2	3	3	SNACK	1331	n/a	n/a	0	0	0
659.636	n/a	WORD	329818	wordpools/wasnorm_wordpool_576.txt	LTP299	ltpFR2	3	3	CANAL	226	n/a	n/a	0	0	0
662.39	n/a	WORD	331195	wordpools/wasnorm_wordpool_576.txt	LTP299	ltpFR2	3	3	BUBBLE	183	n/a	n/a	0	0	0
665.02	n/a	WORD	332510	wordpools/wasnorm_wordpool_576.txt	LTP299	ltpFR2	3	3	ROD	1203	n/a	n/a	0	0	0
667.706	n/a	WORD	333853	wordpools/wasnorm_wordpool_576.txt	LTP299	ltpFR2	3	3	GARDEN	623	n/a	n/a	0	0	0
670.424	n/a	WORD	335212	wordpools/wasnorm_wordpool_576.txt	LTP299	ltpFR2	3	3	WARDROBE	1587	n/a	n/a	0	0	0
673.098	n/a	WORD	336549	wordpools/wasnorm_wordpool_576.txt	LTP299	ltpFR2	3	3	SISTER	1312	n/a	n/a	0	0	0
675.8	n/a	WORD	337900	wordpools/wasnorm_wordpool_576.txt	LTP299	ltpFR2	3	3	JUDGE	761	n/a	n/a	0	0	0
678.52	n/a	WORD	339260	wordpools/wasnorm_wordpool_576.txt	LTP299	ltpFR2	3	3	OMELET	976	n/a	n/a	0	0	0
680.966	n/a	WORD	340483	wordpools/wasnorm_wordpool_576.txt	LTP299	ltpFR2	3	3	RADISH	1158	n/a	n/a	0	0	0
683.686	n/a	WORD	341843	wordpools/wasnorm_wordpool_576.txt	LTP299	ltpFR2	3	3	TRIBE	1505	n/a	n/a	0	0	0
686.32	n/a	WORD	343160	wordpools/wasnorm_wordpool_576.txt	LTP299	ltpFR2	3	3	COWBOY	395	n/a	n/a	0	0	0
688.74	n/a	WORD	344370	wordpools/wasnorm_wordpool_576.txt	LTP299	ltpFR2	3	3	BACON	67	n/a	n/a	0	0	0
691.476	n/a	WORD	345738	wordpools/wasnorm_wordpool_576.txt	LTP299	ltpFR2	3	3	WORKER	1621	n/a	n/a	0	0	0
694.076	n/a	WORD	347038	wordpools/wasnorm_wordpool_576.txt	LTP299	ltpFR2	3	3	RACKET	1155	n/a	n/a	0	0	0
696.836	n/a	WORD	348418	wordpools/wasnorm_wordpool_576.txt	LTP299	ltpFR2	3	3	DAISY	435	n/a	n/a	0	0	0
699.254	n/a	WORD	349627	wordpools/wasnorm_wordpool_576.txt	LTP299	ltpFR2	3	3	ORCHID	982	n/a	n/a	0	0	0
702.04	n/a	WORD	351020	wordpools/wasnorm_wordpool_576.txt	LTP299	ltpFR2	3	3	BINDER	127	n/a	n/a	0	0	0
704.626	n/a	WORD	352313	wordpools/wasnorm_wordpool_576.txt	LTP299	ltpFR2	3	3	TILE	1468	n/a	n/a	0	0	0
707.294	n/a	WORD	353647	wordpools/wasnorm_wordpool_576.txt	LTP299	ltpFR2	3	3	TURNIP	1521	n/a	n/a	0	0	0
708.906	n/a	START	354453	n/a	LTP299	ltpFR2	3	n/a	n/a	n/a	4	n/a	n/a	n/a	n/a
710.086	n/a	DISTRACTOR	355043	n/a	LTP299	ltpFR2	3	3	n/a	n/a	n/a	n/a	0	0	0
710.096	n/a	PROB	355048	n/a	LTP299	ltpFR2	3	n/a	n/a	n/a	4	12	1	5	6
712.606	n/a	PROB	356303	n/a	LTP299	ltpFR2	3	n/a	n/a	n/a	4	18	5	4	9
715.258	n/a	PROB	357629	n/a	LTP299	ltpFR2	3	n/a	n/a	n/a	4	14	3	8	3
718.128	n/a	PROB	359064	n/a	LTP299	ltpFR2	3	n/a	n/a	n/a	4	15	2	9	4
721.346	n/a	PROB	360673	n/a	LTP299	ltpFR2	3	n/a	n/a	n/a	4	25	7	9	9
723.648	n/a	PROB	361824	n/a	LTP299	ltpFR2	3	n/a	n/a	n/a	4	12	8	3	1
725.936	n/a	PROB	362968	n/a	LTP299	ltpFR2	3	n/a	n/a	n/a	4	7	2	1	4
728.252	n/a	PROB	364126	n/a	LTP299	ltpFR2	3	n/a	n/a	n/a	4	12	1	3	8
730.254	n/a	PROB	365127	n/a	LTP299	ltpFR2	3	n/a	n/a	n/a	4	18	4	5	9
732.324	n/a	STOP	366162	n/a	LTP299	ltpFR2	3	n/a	n/a	n/a	4	n/a	n/a	n/a	n/a
734.658	n/a	REC_START	367329	n/a	LTP299	ltpFR2	3	3	n/a	n/a	n/a	n/a	0	0	0
735.846	n/a	REC_WORD	367923	wordpools/wasnorm_wordpool_576.txt	LTP299	ltpFR2	3	3	BINDER	127	n/a	n/a	0	0	0
737.872	n/a	REC_WORD	368936	wordpools/wasnorm_wordpool_576.txt	LTP299	ltpFR2	3	3	DAISY	435	n/a	n/a	0	0	0
739.678	n/a	REC_WORD	369839	wordpools/wasnorm_wordpool_576.txt	LTP299	ltpFR2	3	3	ORCHID	982	n/a	n/a	0	0	0
741.316	n/a	REC_WORD	370658	wordpools/wasnorm_wordpool_576.txt	LTP299	ltpFR2	3	3	TEACHER	1440	n/a	n/a	0	0	0
743.004	n/a	REC_WORD	371502	wordpools/wasnorm_wordpool_576.txt	LTP299	ltpFR2	3	3	PUPIL	1143	n/a	n/a	0	0	0
745.524	n/a	REC_WORD	372762	wordpools/wasnorm_wordpool_576.txt	LTP299	ltpFR2	3	3	GARDEN	623	n/a	n/a	0	0	0
749.54	n/a	REC_WORD	374770	wordpools/wasnorm_wordpool_576.txt	LTP299	ltpFR2	3	3	RADISH	1158	n/a	n/a	0	0	0
751.048	n/a	REC_WORD	375524	wordpools/wasnorm_wordpool_576.txt	LTP299	ltpFR2	3	3	TURNIP	1521	n/a	n/a	0	0	0
752.724	n/a	REC_WORD	376362	wordpools/wasnorm_wordpool_576.txt	LTP299	ltpFR2	3	3	SNACK	1331	n/a	n/a	0	0	0
754.984	n/a	REC_WORD	377492	wordpools/wasnorm_wordpool_576.txt	LTP299	ltpFR2	3	3	BACON	67	n/a	n/a	0	0	0
772.264	n/a	REC_WORD	386132	wordpools/wasnorm_wordpool_576.txt	LTP299	ltpFR2	3	3	WORKER	1621	n/a	n/a	0	0	0
801.514	n/a	REC_WORD	400757	wordpools/wasnorm_wordpool_576.txt	LTP299	ltpFR2	3	3	SISTER	1312	n/a	n/a	0	0	0
802.612	n/a	REC_WORD	401306	wordpools/wasnorm_wordpool_576.txt	LTP299	ltpFR2	3	3	BROTHER	179	n/a	n/a	0	0	0
825.114	n/a	DISTRACTOR	412557	n/a	LTP299	ltpFR2	3	4	n/a	n/a	n/a	n/a	0	0	0
825.114	n/a	START	412557	n/a	LTP299	ltpFR2	3	n/a	n/a	n/a	5	n/a	n/a	n/a	n/a
825.13	n/a	PROB	412565	n/a	LTP299	ltpFR2	3	n/a	n/a	n/a	5	15	4	5	6
827.182	n/a	PROB	413591	n/a	LTP299	ltpFR2	3	n/a	n/a	n/a	5	13	1	5	7
829.298	n/a	PROB	414649	n/a	LTP299	ltpFR2	3	n/a	n/a	n/a	5	15	3	4	8
832.286	n/a	PROB	416143	n/a	LTP299	ltpFR2	3	n/a	n/a	n/a	5	12	2	7	3
833.988	n/a	PROB	416994	n/a	LTP299	ltpFR2	3	n/a	n/a	n/a	5	10	2	6	2
835.488	n/a	PROB	417744	n/a	LTP299	ltpFR2	3	n/a	n/a	n/a	5	16	7	7	2
837.324	n/a	PROB	418662	n/a	LTP299	ltpFR2	3	n/a	n/a	n/a	5	20	3	8	9
839.942	n/a	PROB	419971	n/a	LTP299	ltpFR2	3	n/a	n/a	n/a	5	10	8	1	1
841.76	n/a	PROB	420880	n/a	LTP299	ltpFR2	3	n/a	n/a	n/a	5	14	4	7	3
843.31	n/a	PROB	421655	n/a	LTP299	ltpFR2	3	n/a	n/a	n/a	5	20	9	8	3
845.678	n/a	PROB	422839	n/a	LTP299	ltpFR2	3	n/a	n/a	n/a	5	11	2	8	1
847.398	n/a	PROB	423699	n/a	LTP299	ltpFR2	3	n/a	n/a	n/a	5	17	7	7	3
849.008	n/a	STOP	424504	n/a	LTP299	ltpFR2	3	n/a	n/a	n/a	5	n/a	n/a	n/a	n/a
850.334	n/a	WORD	425167	wordpools/wasnorm_wordpool_576.txt	LTP299	ltpFR2	3	4	CEILING	265	n/a	n/a	0	0	0
853.136	n/a	WORD	426568	wordpools/wasnorm_wordpool_576.txt	LTP299	ltpFR2	3	4	MARSH	874	n/a	n/a	0	0	0
855.638	n/a	WORD	427819	wordpools/wasnorm_wordpool_576.txt	LTP299	ltpFR2	3	4	LASER	801	n/a	n/a	0	0	0
858.29	n/a	WORD	429145	wordpools/wasnorm_wordpool_576.txt	LTP299	ltpFR2	3	4	COSTUME	383	n/a	n/a	0	0	0
860.776	n/a	WORD	430388	wordpools/wasnorm_wordpool_576.txt	LTP299	ltpFR2	3	4	GRIZZLY	662	n/a	n/a	0	0	0
863.494	n/a	WORD	431747	wordpools/wasnorm_wordpool_576.txt	LTP299	ltpFR2	3	4	WAITRESS	1581	n/a	n/a	0	0	0
865.98	n/a	WORD	432990	wordpools/wasnorm_wordpool_576.txt	LTP299	ltpFR2	3	4	BULLET	194	n/a	n/a	0	0	0
868.498	n/a	WORD	434249	wordpools/wasnorm_wordpool_576.txt	LTP299	ltpFR2	3	4	FLUTE	585	n/a	n/a	0	0	0
871.15	n/a	WORD	435575	wordpools/wasnorm_wordpool_576.txt	LTP299	ltpFR2	3	4	AWARD	63	n/a	n/a	0	0	0
873.986	n/a	WORD	436993	wordpools/wasnorm_wordpool_576.txt	LTP299	ltpFR2	3	4	BADGE	68	n/a	n/a	0	0	0
876.706	n/a	WORD	438353	wordpools/wasnorm_wordpool_576.txt	LTP299	ltpFR2	3	4	SHERIFF	1284	n/a	n/a	0	0	0
879.49	n/a	WORD	439745	wordpools/wasnorm_wordpool_576.txt	LTP299	ltpFR2	3	4	KIDNEY	776	n/a	n/a	0	0	0
882.126	n/a	WORD	441063	wordpools/wasnorm_wordpool_576.txt	LTP299	ltpFR2	3	4	LIVER	833	n/a	n/a	0	0	0
884.564	n/a	WORD	442282	wordpools/wasnorm_wordpool_576.txt	LTP299	ltpFR2	3	4	OUTFIT	988	n/a	n/a	0	0	0
887.228	n/a	WORD	443614	wordpools/wasnorm_wordpool_576.txt	LTP299	ltpFR2	3	4	SODA	1341	n/a	n/a	0	0	0
889.748	n/a	WORD	444874	wordpools/wasnorm_wordpool_576.txt	LTP299	ltpFR2	3	4	GAZELLE	628	n/a	n/a	0	0	0
892.354	n/a	WORD	446177	wordpools/wasnorm_wordpool_576.txt	LTP299	ltpFR2	3	4	ROBOT	1200	n/a	n/a	0	0	0
894.956	n/a	WORD	447478	wordpools/wasnorm_wordpool_576.txt	LTP299	ltpFR2	3	4	WRIST	1626	n/a	n/a	0	0	0
897.554	n/a	WORD	448777	wordpools/wasnorm_wordpool_576.txt	LTP299	ltpFR2	3	4	PROTON	1132	n/a	n/a	0	0	0
900.022	n/a	WORD	450011	wordpools/wasnorm_wordpool_576.txt	LTP299	ltpFR2	3	4	HOSTESS	723	n/a	n/a	0	0	0
902.658	n/a	WORD	451329	wordpools/wasnorm_wordpool_576.txt	LTP299	ltpFR2	3	4	SEAGULL	1261	n/a	n/a	0	0	0
905.094	n/a	WORD	452547	wordpools/wasnorm_wordpool_576.txt	LTP299	ltpFR2	3	4	NECKLACE	940	n/a	n/a	0	0	0
907.868	n/a	WORD	453934	wordpools/wasnorm_wordpool_576.txt	LTP299	ltpFR2	3	4	CURTAIN	427	n/a	n/a	0	0	0
910.586	n/a	WORD	455293	wordpools/wasnorm_wordpool_576.txt	LTP299	ltpFR2	3	4	GLASS	639	n/a	n/a	0	0	0
912.2	n/a	START	456100	n/a	LTP299	ltpFR2	3	n/a	n/a	n/a	6	n/a	n/a	n/a	n/a
913.044	n/a	DISTRACTOR	456522	n/a	LTP299	ltpFR2	3	4	n/a	n/a	n/a	n/a	0	0	0
913.05	n/a	PROB	456525	n/a	LTP299	ltpFR2	3	n/a	n/a	n/a	6	8	4	1	3
915.136	n/a	PROB	457568	n/a	LTP299	ltpFR2	3	n/a	n/a	n/a	6	15	1	7	7
917.402	n/a	PROB	458701	n/a	LTP299	ltpFR2	3	n/a	n/a	n/a	6	23	7	9	7
919.554	n/a	PROB	459777	n/a	LTP299	ltpFR2	3	n/a	n/a	n/a	6	16	8	1	7
921.356	n/a	PROB	460678	n/a	LTP299	ltpFR2	3	n/a	n/a	n/a	6	12	5	4	3
923.222	n/a	PROB	461611	n/a	LTP299	ltpFR2	3	n/a	n/a	n/a	6	12	6	5	1
924.924	n/a	PROB	462462	n/a	LTP299	ltpFR2	3	n/a	n/a	n/a	6	11	6	3	2
926.91	n/a	PROB	463455	n/a	LTP299	ltpFR2	3	n/a	n/a	n/a	6	11	1	1	9
929.194	n/a	PROB	464597	n/a	LTP299	ltpFR2	3	n/a	n/a	n/a	6	15	3	8	4
932.098	n/a	PROB	466049	n/a	LTP299	ltpFR2	3	n/a	n/a	n/a	6	21	9	9	3
934.032	n/a	PROB	467016	n/a	LTP299	ltpFR2	3	n/a	n/a	n/a	6	11	6	1	4
935.49	n/a	STOP	467745	n/a	LTP299	ltpFR2	3	n/a	n/a	n/a	6	n/a	n/a	n/a	n/a
937.988	n/a	REC_START	468994	n/a	LTP299	ltpFR2	3	4	n/a	n/a	n/a	n/a	0	0	0
940.638	n/a	REC_WORD	470319	wordpools/wasnorm_wordpool_576.txt	LTP299	ltpFR2	3	4	CURTAIN	427	n/a	n/a	0	0	0
942.396	n/a	REC_WORD	471198	wordpools/wasnorm_wordpool_576.txt	LTP299	ltpFR2	3	4	GLASS	639	n/a	n/a	0	0	0
952.4	n/a	REC_WORD	476200	wordpools/wasnorm_wordpool_576.txt	LTP299	ltpFR2	3	4	SEAGULL	1261	n/a	n/a	0	0	0
956.492	n/a	REC_WORD	478246	wordpools/wasnorm_wordpool_576.txt	LTP299	ltpFR2	3	4	CEILING	265	n/a	n/a	0	0	0
959.1	n/a	REC_WORD	479550	wordpools/wasnorm_wordpool_576.txt	LTP299	ltpFR2	3	4	MARSH	874	n/a	n/a	0	0	0
965.748	n/a	REC_WORD	482874	wordpools/wasnorm_wordpool_576.txt	LTP299	ltpFR2	3	4	GRIZZLY	662	n/a	n/a	0	0	0
967.992	n/a	REC_WORD	483996	wordpools/wasnorm_wordpool_576.txt	LTP299	ltpFR2	3	4	OUTFIT	988	n/a	n/a	0	0	0
970.418	n/a	REC_WORD	485209	wordpools/wasnorm_wordpool_576.txt	LTP299	ltpFR2	3	4	COSTUME	383	n/a	n/a	0	0	0
972.894	n/a	REC_WORD	486447	wordpools/wasnorm_wordpool_576.txt	LTP299	ltpFR2	3	4	WAITRESS	1581	n/a	n/a	0	0	0
974.184	n/a	REC_WORD	487092	wordpools/wasnorm_wordpool_576.txt	LTP299	ltpFR2	3	4	HOSTESS	723	n/a	n/a	0	0	0
977.524	n/a	REC_WORD	488762	wordpools/wasnorm_wordpool_576.txt	LTP299	ltpFR2	3	4	SHERIFF	1284	n/a	n/a	0	0	0
979.002	n/a	REC_WORD	489501	wordpools/wasnorm_wordpool_576.txt	LTP299	ltpFR2	3	4	BADGE	68	n/a	n/a	0	0	0
990.236	n/a	REC_WORD	495118	wordpools/wasnorm_wordpool_576.txt	LTP299	ltpFR2	3	4	GAZELLE	628	n/a	n/a	0	0	0
1028.424	n/a	WORD	514212	wordpools/wasnorm_wordpool_576.txt	LTP299	ltpFR2	3	5	SKILLET	1317	n/a	n/a	0	0	0
1031.006	n/a	WORD	515503	wordpools/wasnorm_wordpool_576.txt	LTP299	ltpFR2	3	5	GUARD	667	n/a	n/a	0	0	0
1033.746	n/a	WORD	516873	wordpools/wasnorm_wordpool_576.txt	LTP299	ltpFR2	3	5	DANCER	437	n/a	n/a	0	0	0
1036.396	n/a	WORD	518198	wordpools/wasnorm_wordpool_576.txt	LTP299	ltpFR2	3	5	PIANO	1057	n/a	n/a	0	0	0
1039.198	n/a	WORD	519599	wordpools/wasnorm_wordpool_576.txt	LTP299	ltpFR2	3	5	SUNSET	1408	n/a	n/a	0	0	0
1041.9	n/a	WORD	520950	wordpools/wasnorm_wordpool_576.txt	LTP299	ltpFR2	3	5	SCARECROW	1245	n/a	n/a	0	0	0
1044.636	n/a	WORD	522318	wordpools/wasnorm_wordpool_576.txt	LTP299	ltpFR2	3	5	SHOVEL	1295	n/a	n/a	0	0	0
1047.454	n/a	WORD	523727	wordpools/wasnorm_wordpool_576.txt	LTP299	ltpFR2	3	5	FLEET	578	n/a	n/a	0	0	0
1050.09	n/a	WORD	525045	wordpools/wasnorm_wordpool_576.txt	LTP299	ltpFR2	3	5	PRINCESS	1125	n/a	n/a	0	0	0
1052.542	n/a	WORD	526271	wordpools/wasnorm_wordpool_576.txt	LTP299	ltpFR2	3	5	CROWN	415	n/a	n/a	0	0	0
1055.01	n/a	WORD	527505	wordpools/wasnorm_wordpool_576.txt	LTP299	ltpFR2	3	5	GLOVE	642	n/a	n/a	0	0	0
1057.546	n/a	WORD	528773	wordpools/wasnorm_wordpool_576.txt	LTP299	ltpFR2	3	5	MAILBOX	857	n/a	n/a	0	0	0
1060.298	n/a	WORD	530149	wordpools/wasnorm_wordpool_576.txt	LTP299	ltpFR2	3	5	SCRIBBLE	1256	n/a	n/a	0	0	0
1062.984	n/a	WORD	531492	wordpools/wasnorm_wordpool_576.txt	LTP299	ltpFR2	3	5	PECAN	1036	n/a	n/a	0	0	0
1065.604	n/a	WORD	532802	wordpools/wasnorm_wordpool_576.txt	LTP299	ltpFR2	3	5	PEANUT	1032	n/a	n/a	0	0	0
1068.372	n/a	WORD	534186	wordpools/wasnorm_wordpool_576.txt	LTP299	ltpFR2	3	5	HELMET	702	n/a	n/a	0	0	0
1071.074	n/a	WORD	535537	wordpools/wasnorm_wordpool_576.txt	LTP299	ltpFR2	3	5	PATROL	1027	n/a	n/a	0	0	0
1073.56	n/a	WORD	536780	wordpools/wasnorm_wordpool_576.txt	LTP299	ltpFR2	3	5	STICKER	1382	n/a	n/a	0	0	0
1076.33	n/a	WORD	538165	wordpools/wasnorm_wordpool_576.txt	LTP299	ltpFR2	3	5	SHELTER	1282	n/a	n/a	0	0	0
1078.964	n/a	WORD	539482	wordpools/wasnorm_wordpool_576.txt	LTP299	ltpFR2	3	5	GALLON	618	n/a	n/a	0	0	0
1081.634	n/a	WORD	540817	wordpools/wasnorm_wordpool_576.txt	LTP299	ltpFR2	3	5	JAPAN	749	n/a	n/a	0	0	0
1084.402	n/a	WORD	542201	wordpools/wasnorm_wordpool_576.txt	LTP299	ltpFR2	3	5	EUROPE	541	n/a	n/a	0	0	0
1087.072	n/a	WORD	543536	wordpools/wasnorm_wordpool_576.txt	LTP299	ltpFR2	3	5	FINGER	567	n/a	n/a	0	0	0
1089.708	n/a	WORD	544854	wordpools/wasnorm_wordpool_576.txt	LTP299	ltpFR2	3	5	QUEEN	1149	n/a	n/a	0	0	0
1091.326	n/a	START	545663	n/a	LTP299	ltpFR2	3	n/a	n/a	n/a	7	n/a	n/a	n/a	n/a
1092.31	n/a	DISTRACTOR	546155	n/a	LTP299	ltpFR2	3	5	n/a	n/a	n/a	n/a	0	0	0
1092.326	n/a	PROB	546163	n/a	LTP299	ltpFR2	3	n/a	n/a	n/a	7	20	7	5	8
1095.294	n/a	PROB	547647	n/a	LTP299	ltpFR2	3	n/a	n/a	n/a	7	18	9	3	6
1097.68	n/a	PROB	548840	n/a	LTP299	ltpFR2	3	n/a	n/a	n/a	7	16	5	7	4
1100.5	n/a	PROB	550250	n/a	LTP299	ltpFR2	3	n/a	n/a	n/a	7	15	8	3	4
1102.966	n/a	PROB	551483	n/a	LTP299	ltpFR2	3	n/a	n/a	n/a	7	17	9	1	7
1104.502	n/a	PROB	552251	n/a	LTP299	ltpFR2	3	n/a	n/a	n/a	7	9	6	2	1
1106.052	n/a	PROB	553026	n/a	LTP299	ltpFR2	3	n/a	n/a	n/a	7	16	6	1	9
1108.472	n/a	PROB	554236	n/a	LTP299	ltpFR2	3	n/a	n/a	n/a	7	7	3	2	2
1110.69	n/a	PROB	555345	n/a	LTP299	ltpFR2	3	n/a	n/a	n/a	7	18	9	3	6
1115.326	n/a	STOP	557663	n/a	LTP299	ltpFR2	3	n/a	n/a	n/a	7	n/a	n/a	n/a	n/a
1117.146	n/a	REC_START	558573	n/a	LTP299	ltpFR2	3	5	n/a	n/a	n/a	n/a	0	0	0
1120.204	n/a	REC_WORD	560102	wordpools/wasnorm_wordpool_576.txt	LTP299	ltpFR2	3	5	JAPAN	749	n/a	n/a	0	0	0
1121.686	n/a	REC_WORD	560843	wordpools/wasnorm_wordpool_576.txt	LTP299	ltpFR2	3	5	EUROPE	541	n/a	n/a	0	0	0
1123.862	n/a	REC_WORD	561931	wordpools/wasnorm_wordpool_576.txt	LTP299	ltpFR2	3	5	GUARD	667	n/a	n/a	0	0	0
1125.102	n/a	REC_WORD	562551	wordpools/wasnorm_wordpool_576.txt	LTP299	ltpFR2	3	5	SKILLET	1317	n/a	n/a	0	0	0
1130.1	n/a	REC_WORD	565050	wordpools/wasnorm_wordpool_576.txt	LTP299	ltpFR2	3	5	PATROL	1027	n/a	n/a	0	0	0
1131.776	n/a	REC_WORD	565888	wordpools/wasnorm_wordpool_576.txt	LTP299	ltpFR2	3	5	HELMET	702	n/a	n/a	0	0	0
1135.136	n/a	REC_WORD	567568	wordpools/wasnorm_wordpool_576.txt	LTP299	ltpFR2	3	5	PRINCESS	1125	n/a	n/a	0	0	0
1137.004	n/a	REC_WORD	568502	wordpools/wasnorm_wordpool_576.txt	LTP299	ltpFR2	3	5	CROWN	415	n/a	n/a	0	0	0
1140.074	n/a	REC_WORD	570037	wordpools/wasnorm_wordpool_576.txt	LTP299	ltpFR2	3	5	PEANUT	1032	n/a	n/a	0	0	0
1141.22	n/a	REC_WORD	570610	wordpools/wasnorm_wordpool_576.txt	LTP299	ltpFR2	3	5	PECAN	1036	n/a	n/a	0	0	0
1207.576	n/a	DISTRACTOR	603788	n/a	LTP299	ltpFR2	3	6	n/a	n/a	n/a	n/a	0	0	0
1207.576	n/a	START	603788	n/a	LTP299	ltpFR2	3	n/a	n/a	n/a	8	n/a	n/a	n/a	n/a
1207.592	n/a	PROB	603796	n/a	LTP299	ltpFR2	3	n/a	n/a	n/a	8	21	9	9	3
1209.652	n/a	PROB	604826	n/a	LTP299	ltpFR2	3	n/a	n/a	n/a	8	10	1	1	8
1211.086	n/a	PROB	605543	n/a	LTP299	ltpFR2	3	n/a	n/a	n/a	8	11	2	7	2
1212.856	n/a	PROB	606428	n/a	LTP299	ltpFR2	3	n/a	n/a	n/a	8	15	4	6	5
1214.39	n/a	PROB	607195	n/a	LTP299	ltpFR2	3	n/a	n/a	n/a	8	17	4	5	8
1216.308	n/a	PROB	608154	n/a	LTP299	ltpFR2	3	n/a	n/a	n/a	8	22	8	7	7
1217.956	n/a	PROB	608978	n/a	LTP299	ltpFR2	3	n/a	n/a	n/a	8	11	3	7	1
1219.274	n/a	PROB	609637	n/a	LTP299	ltpFR2	3	n/a	n/a	n/a	8	20	5	7	8
1221.61	n/a	PROB	610805	n/a	LTP299	ltpFR2	3	n/a	n/a	n/a	8	15	7	1	7
1223.212	n/a	PROB	611606	n/a	LTP299	ltpFR2	3	n/a	n/a	n/a	8	24	9	6	9
1225.53	n/a	PROB	612765	n/a	LTP299	ltpFR2	3	n/a	n/a	n/a	8	14	6	2	6
1228.684	n/a	PROB	614342	n/a	LTP299	ltpFR2	3	n/a	n/a	n/a	8	22	9	5	8
1230.956	n/a	STOP	615478	n/a	LTP299	ltpFR2	3	n/a	n/a	n/a	8	n/a	n/a	n/a	n/a
1232.448	n/a	WORD	616224	wordpools/wasnorm_wordpool_576.txt	LTP299	ltpFR2	3	6	SUBWAY	1400	n/a	n/a	0	0	0
1234.934	n/a	WORD	617467	wordpools/wasnorm_wordpool_576.txt	LTP299	ltpFR2	3	6	GRAVE	658	n/a	n/a	0	0	0
1237.636	n/a	WORD	618818	wordpools/wasnorm_wordpool_576.txt	LTP299	ltpFR2	3	6	RAZOR	1171	n/a	n/a	0	0	0
1240.404	n/a	WORD	620202	wordpools/wasnorm_wordpool_576.txt	LTP299	ltpFR2	3	6	SKETCH	1315	n/a	n/a	0	0	0
1243.112	n/a	WORD	621556	wordpools/wasnorm_wordpool_576.txt	LTP299	ltpFR2	3	6	PUPPY	1144	n/a	n/a	0	0	0
1245.764	n/a	WORD	622882	wordpools/wasnorm_wordpool_576.txt	LTP299	ltpFR2	3	6	SUSPECT	1415	n/a	n/a	0	0	0
1248.194	n/a	WORD	624097	wordpools/wasnorm_wordpool_576.txt	LTP299	ltpFR2	3	6	BIKE	125	n/a	n/a	0	0	0
1250.978	n/a	WORD	625489	wordpools/wasnorm_wordpool_576.txt	LTP299	ltpFR2	3	6	FLASHLIGHT	575	n/a	n/a	0	0	0
1253.686	n/a	WORD	626843	wordpools/wasnorm_wordpool_576.txt	LTP299	ltpFR2	3	6	CONTRACT	368	n/a	n/a	0	0	0
1256.488	n/a	WORD	628244	wordpools/wasnorm_wordpool_576.txt	LTP299	ltpFR2	3	6	CARRIAGE	248	n/a	n/a	0	0	0
1259.27	n/a	WORD	629635	wordpools/wasnorm_wordpool_576.txt	LTP299	ltpFR2	3	6	STALLION	1369	n/a	n/a	0	0	0
1261.706	n/a	WORD	630853	wordpools/wasnorm_wordpool_576.txt	LTP299	ltpFR2	3	6	WIDOW	1608	n/a	n/a	0	0	0
1264.292	n/a	WORD	632146	wordpools/wasnorm_wordpool_576.txt	LTP299	ltpFR2	3	6	TOMBSTONE	1478	n/a	n/a	0	0	0
1266.744	n/a	WORD	633372	wordpools/wasnorm_wordpool_576.txt	LTP299	ltpFR2	3	6	DOUGHNUT	490	n/a	n/a	0	0	0
1269.228	n/a	WORD	634614	wordpools/wasnorm_wordpool_576.txt	LTP299	ltpFR2	3	6	GLOBE	641	n/a	n/a	0	0	0
1271.964	n/a	WORD	635982	wordpools/wasnorm_wordpool_576.txt	LTP299	ltpFR2	3	6	VENUS	1557	n/a	n/a	0	0	0
1274.4	n/a	WORD	637200	wordpools/wasnorm_wordpool_576.txt	LTP299	ltpFR2	3	6	TROUT	1511	n/a	n/a	0	0	0
1277.056	n/a	WORD	638528	wordpools/wasnorm_wordpool_576.txt	LTP299	ltpFR2	3	6	TAXI	1438	n/a	n/a	0	0	0
1279.788	n/a	WORD	639894	wordpools/wasnorm_wordpool_576.txt	LTP299	ltpFR2	3	6	SALMON	1227	n/a	n/a	0	0	0
1282.59	n/a	WORD	641295	wordpools/wasnorm_wordpool_576.txt	LTP299	ltpFR2	3	6	THREAD	1460	n/a	n/a	0	0	0
1285.396	n/a	WORD	642698	wordpools/wasnorm_wordpool_576.txt	LTP299	ltpFR2	3	6	HERO	706	n/a	n/a	0	0	0
1287.878	n/a	WORD	643939	wordpools/wasnorm_wordpool_576.txt	LTP299	ltpFR2	3	6	HOUND	724	n/a	n/a	0	0	0
1290.68	n/a	WORD	645340	wordpools/wasnorm_wordpool_576.txt	LTP299	ltpFR2	3	6	CREVICE	405	n/a	n/a	0	0	0
1293.45	n/a	WORD	646725	wordpools/wasnorm_wordpool_576.txt	LTP299	ltpFR2	3	6	RIFLE	1192	n/a	n/a	0	0	0
1295.07	n/a	START	647535	n/a	LTP299	ltpFR2	3	n/a	n/a	n/a	9	n/a	n/a	n/a	n/a
1296.096	n/a	DISTRACTOR	648048	n/a	LTP299	ltpFR2	3	6	n/a	n/a	n/a	n/a	0	0	0
1296.102	n/a	PROB	648051	n/a	LTP299	ltpFR2	3	n/a	n/a	n/a	9	12	7	1	4
1299.256	n/a	PROB	649628	n/a	LTP299	ltpFR2	3	n/a	n/a	n/a	9	16	3	8	5
1301.558	n/a	PROB	650779	n/a	LTP299	ltpFR2	3	n/a	n/a	n/a	9	21	6	7	8
1303.776	n/a	PROB	651888	n/a	LTP299	ltpFR2	3	n/a	n/a	n/a	9	23	7	8	8
1305.778	n/a	PROB	652889	n/a	LTP299	ltpFR2	3	n/a	n/a	n/a	9	15	1	6	8
1308.764	n/a	PROB	654382	n/a	LTP299	ltpFR2	3	n/a	n/a	n/a	9	14	7	6	1
1311.182	n/a	PROB	655591	n/a	LTP299	ltpFR2	3	n/a	n/a	n/a	9	17	8	5	4
1312.982	n/a	PROB	656491	n/a	LTP299	ltpFR2	3	n/a	n/a	n/a	9	16	8	4	4
1315.302	n/a	PROB	657651	n/a	LTP299	ltpFR2	3	n/a	n/a	n/a	9	19	6	7	6
1317.27	n/a	PROB	658635	n/a	LTP299	ltpFR2	3	n/a	n/a	n/a	9	12	5	4	3
1318.862	n/a	STOP	659431	n/a	LTP299	ltpFR2	3	n/a	n/a	n/a	9	n/a	n/a	n/a	n/a
1320.84	n/a	REC_START	660420	n/a	LTP299	ltpFR2	3	6	n/a	n/a	n/a	n/a	0	0	0
1321.84	n/a	REC_WORD	660920	wordpools/wasnorm_wordpool_576.txt	LTP299	ltpFR2	3	6	CREVICE	405	n/a	n/a	0	0	0
1323.742	n/a	REC_WORD	661871	wordpools/wasnorm_wordpool_576.txt	LTP299	ltpFR2	3	6	RIFLE	1192	n/a	n/a	0	0	0
1325.306	n/a	REC_WORD	662653	wordpools/wasnorm_wordpool_576.txt	LTP299	ltpFR2	3	6	HOUND	724	n/a	n/a	0	0	0
1326.428	n/a	REC_WORD	663214	wordpools/wasnorm_wordpool_576.txt	LTP299	ltpFR2	3	6	HOUND	724	n/a	n/a	0	0	0
1328.992	n/a	REC_WORD	664496	wordpools/wasnorm_wordpool_576.txt	LTP299	ltpFR2	3	6	THREAD	1460	n/a	n/a	0	0	0
1330.888	n/a	REC_WORD	665444	wordpools/wasnorm_wordpool_576.txt	LTP299	ltpFR2	3	6	SALMON	1227	n/a	n/a	0	0	0
1333.318	n/a	REC_WORD	666659	wordpools/wasnorm_wordpool_576.txt	LTP299	ltpFR2	3	6	TROUT	1511	n/a	n/a	0	0	0
1335.428	n/a	REC_WORD	667714	wordpools/wasnorm_wordpool_576.txt	LTP299	ltpFR2	3	6	VENUS	1557	n/a	n/a	0	0	0
1338.438	n/a	REC_WORD	669219	wordpools/wasnorm_wordpool_576.txt	LTP299	ltpFR2	3	6	DOUGHNUT	490	n/a	n/a	0	0	0
1342.706	n/a	REC_WORD	671353	wordpools/wasnorm_wordpool_576.txt	LTP299	ltpFR2	3	6	SUBWAY	1400	n/a	n/a	0	0	0
1345.0	n/a	REC_WORD	672500	wordpools/wasnorm_wordpool_576.txt	LTP299	ltpFR2	3	6	GRAVE	658	n/a	n/a	0	0	0
1347.046	n/a	REC_WORD	673523	wordpools/wasnorm_wordpool_576.txt	LTP299	ltpFR2	3	6	HERO	706	n/a	n/a	0	0	0
1353.672	n/a	REC_WORD	676836	wordpools/wasnorm_wordpool_576.txt	LTP299	ltpFR2	3	6	TOMBSTONE	1478	n/a	n/a	0	0	0
1355.236	n/a	REC_WORD	677618	wordpools/wasnorm_wordpool_576.txt	LTP299	ltpFR2	3	6	WIDOW	1608	n/a	n/a	0	0	0
1362.662	n/a	REC_WORD	681331	wordpools/wasnorm_wordpool_576.txt	LTP299	ltpFR2	3	6	RAZOR	1171	n/a	n/a	0	0	0
1364.218	n/a	REC_WORD	682109	wordpools/wasnorm_wordpool_576.txt	LTP299	ltpFR2	3	6	PUPPY	1144	n/a	n/a	0	0	0
1366.012	n/a	REC_WORD	683006	wordpools/wasnorm_wordpool_576.txt	LTP299	ltpFR2	3	6	CONTRACT	368	n/a	n/a	0	0	0
1411.278	n/a	WORD	705639	wordpools/wasnorm_wordpool_576.txt	LTP299	ltpFR2	3	7	TROMBONE	1508	n/a	n/a	0	0	0
1413.948	n/a	WORD	706974	wordpools/wasnorm_wordpool_576.txt	LTP299	ltpFR2	3	7	FLOWER	584	n/a	n/a	0	0	0
1416.366	n/a	WORD	708183	wordpools/wasnorm_wordpool_576.txt	LTP299	ltpFR2	3	7	CRAB	397	n/a	n/a	0	0	0
1419.002	n/a	WORD	709501	wordpools/wasnorm_wordpool_576.txt	LTP299	ltpFR2	3	7	LUGGAGE	847	n/a	n/a	0	0	0
1421.452	n/a	WORD	710726	wordpools/wasnorm_wordpool_576.txt	LTP299	ltpFR2	3	7	AIRPORT	13	n/a	n/a	0	0	0
1424.222	n/a	WORD	712111	wordpools/wasnorm_wordpool_576.txt	LTP299	ltpFR2	3	7	CRIB	407	n/a	n/a	0	0	0
1426.724	n/a	WORD	713362	wordpools/wasnorm_wordpool_576.txt	LTP299	ltpFR2	3	7	HATCHET	691	n/a	n/a	0	0	0
1429.444	n/a	WORD	714722	wordpools/wasnorm_wordpool_576.txt	LTP299	ltpFR2	3	7	MARS	873	n/a	n/a	0	0	0
1431.92	n/a	WORD	715960	wordpools/wasnorm_wordpool_576.txt	LTP299	ltpFR2	3	7	DOLPHIN	483	n/a	n/a	0	0	0
1434.498	n/a	WORD	717249	wordpools/wasnorm_wordpool_576.txt	LTP299	ltpFR2	3	7	EXPERT	543	n/a	n/a	0	0	0
1436.966	n/a	WORD	718483	wordpools/wasnorm_wordpool_576.txt	LTP299	ltpFR2	3	7	WIFE	1609	n/a	n/a	0	0	0
1439.726	n/a	WORD	719863	wordpools/wasnorm_wordpool_576.txt	LTP299	ltpFR2	3	7	CHAPEL	280	n/a	n/a	0	0	0
1442.202	n/a	WORD	721101	wordpools/wasnorm_wordpool_576.txt	LTP299	ltpFR2	3	7	COOK	372	n/a	n/a	0	0	0
1444.68	n/a	WORD	722340	wordpools/wasnorm_wordpool_576.txt	LTP299	ltpFR2	3	7	EGYPT	519	n/a	n/a	0	0	0
1447.132	n/a	WORD	723566	wordpools/wasnorm_wordpool_576.txt	LTP299	ltpFR2	3	7	TEMPLE	1448	n/a	n/a	0	0	0
1449.668	n/a	WORD	724834	wordpools/wasnorm_wordpool_576.txt	LTP299	ltpFR2	3	7	IDOL	733	n/a	n/a	0	0	0
1452.318	n/a	WORD	726159	wordpools/wasnorm_wordpool_576.txt	LTP299	ltpFR2	3	7	HAMPER	682	n/a	n/a	0	0	0
1454.898	n/a	WORD	727449	wordpools/wasnorm_wordpool_576.txt	LTP299	ltpFR2	3	7	DRESSER	496	n/a	n/a	0	0	0
1457.574	n/a	WORD	728787	wordpools/wasnorm_wordpool_576.txt	LTP299	ltpFR2	3	7	GIRL	637	n/a	n/a	0	0	0
1460.284	n/a	WORD	730142	wordpools/wasnorm_wordpool_576.txt	LTP299	ltpFR2	3	7	TERMITE	1451	n/a	n/a	0	0	0
1462.82	n/a	WORD	731410	wordpools/wasnorm_wordpool_576.txt	LTP299	ltpFR2	3	7	MARROW	872	n/a	n/a	0	0	0
1465.246	n/a	WORD	732623	wordpools/wasnorm_wordpool_576.txt	LTP299	ltpFR2	3	7	FLIPPER	580	n/a	n/a	0	0	0
1467.816	n/a	WORD	733908	wordpools/wasnorm_wordpool_576.txt	LTP299	ltpFR2	3	7	LIPSTICK	829	n/a	n/a	0	0	0
1470.258	n/a	WORD	735129	wordpools/wasnorm_wordpool_576.txt	LTP299	ltpFR2	3	7	POWDER	1117	n/a	n/a	0	0	0
1471.872	n/a	START	735936	n/a	LTP299	ltpFR2	3	n/a	n/a	n/a	10	n/a	n/a	n/a	n/a
1472.78	n/a	DISTRACTOR	736390	n/a	LTP299	ltpFR2	3	7	n/a	n/a	n/a	n/a	0	0	0
1472.788	n/a	PROB	736394	n/a	LTP299	ltpFR2	3	n/a	n/a	n/a	10	13	7	2	4
1476.764	n/a	PROB	738382	n/a	LTP299	ltpFR2	3	n/a	n/a	n/a	10	19	7	5	7
1478.83	n/a	PROB	739415	n/a	LTP299	ltpFR2	3	n/a	n/a	n/a	10	8	1	6	1
1480.166	n/a	PROB	740083	n/a	LTP299	ltpFR2	3	n/a	n/a	n/a	10	17	8	7	2
1482.534	n/a	PROB	741267	n/a	LTP299	ltpFR2	3	n/a	n/a	n/a	10	10	2	4	4
1484.286	n/a	PROB	742143	n/a	LTP299	ltpFR2	3	n/a	n/a	n/a	10	10	6	3	1
1485.988	n/a	PROB	742994	n/a	LTP299	ltpFR2	3	n/a	n/a	n/a	10	18	7	3	8
1487.456	n/a	PROB	743728	n/a	LTP299	ltpFR2	3	n/a	n/a	n/a	10	16	7	4	5
1489.256	n/a	PROB	744628	n/a	LTP299	ltpFR2	3	n/a	n/a	n/a	10	13	5	4	4
1493.344	n/a	PROB	746672	n/a	LTP299	ltpFR2	3	n/a	n/a	n/a	10	19	4	6	9
1495.004	n/a	STOP	747502	n/a	LTP299	ltpFR2	3	n/a	n/a	n/a	10	n/a	n/a	n/a	n/a
1497.746	n/a	REC_START	748873	n/a	LTP299	ltpFR2	3	7	n/a	n/a	n/a	n/a	0	0	0
1500.558	n/a	REC_WORD	750279	wordpools/wasnorm_wordpool_576.txt	LTP299	ltpFR2	3	7	FLOWER	584	n/a	n/a	0	0	0
1502.176	n/a	REC_WORD	751088	wordpools/wasnorm_wordpool_576.txt	LTP299	ltpFR2	3	7	POWDER	1117	n/a	n/a	0	0	0
1503.508	n/a	REC_WORD	751754	wordpools/wasnorm_wordpool_576.txt	LTP299	ltpFR2	3	7	HAMPER	682	n/a	n/a	0	0	0
1504.888	n/a	REC_WORD	752444	wordpools/wasnorm_wordpool_576.txt	LTP299	ltpFR2	3	7	DRESSER	496	n/a	n/a	0	0	0
1508.534	n/a	REC_WORD	754267	wordpools/wasnorm_wordpool_576.txt	LTP299	ltpFR2	3	7	HATCHET	691	n/a	n/a	0	0	0
1516.246	n/a	REC_WORD	758123	wordpools/wasnorm_wordpool_576.txt	LTP299	ltpFR2	3	7	CRAB	397	n/a	n/a	0	0	0
1518.544	n/a	REC_WORD	759272	wordpools/wasnorm_wordpool_576.txt	LTP299	ltpFR2	3	7	CRIB	407	n/a	n/a	0	0	0
1534.854	n/a	REC_WORD	767427	wordpools/wasnorm_wordpool_576.txt	LTP299	ltpFR2	3	7	DOLPHIN	483	n/a	n/a	0	0	0
1536.14	n/a	REC_WORD	768070	wordpools/wasnorm_wordpool_576.txt	LTP299	ltpFR2	3	7	FLIPPER	580	n/a	n/a	0	0	0
1538.102	n/a	REC_WORD	769051	wordpools/wasnorm_wordpool_576.txt	LTP299	ltpFR2	3	7	EXPERT	543	n/a	n/a	0	0	0
1540.13	n/a	REC_WORD	770065	wordpools/wasnorm_wordpool_576.txt	LTP299	ltpFR2	3	7	WIFE	1609	n/a	n/a	0	0	0
1541.92	n/a	REC_WORD	770960	wordpools/wasnorm_wordpool_576.txt	LTP299	ltpFR2	3	7	CHAPEL	280	n/a	n/a	0	0	0
1544.102	n/a	REC_WORD	772051	wordpools/wasnorm_wordpool_576.txt	LTP299	ltpFR2	3	7	TEMPLE	1448	n/a	n/a	0	0	0
1545.594	n/a	REC_WORD	772797	wordpools/wasnorm_wordpool_576.txt	LTP299	ltpFR2	3	7	IDOL	733	n/a	n/a	0	0	0
1547.18	n/a	REC_WORD	773590	wordpools/wasnorm_wordpool_576.txt	LTP299	ltpFR2	3	7	GIRL	637	n/a	n/a	0	0	0
1548.636	n/a	REC_WORD	774318	wordpools/wasnorm_wordpool_576.txt	LTP299	ltpFR2	3	7	LIPSTICK	829	n/a	n/a	0	0	0
1588.216	n/a	WORD	794108	wordpools/wasnorm_wordpool_576.txt	LTP299	ltpFR2	3	8	ATOM	55	n/a	n/a	0	0	0
1590.988	n/a	WORD	795494	wordpools/wasnorm_wordpool_576.txt	LTP299	ltpFR2	3	8	OZONE	996	n/a	n/a	0	0	0
1593.456	n/a	WORD	796728	wordpools/wasnorm_wordpool_576.txt	LTP299	ltpFR2	3	8	QUAIL	1147	n/a	n/a	0	0	0
1596.176	n/a	WORD	798088	wordpools/wasnorm_wordpool_576.txt	LTP299	ltpFR2	3	8	SLIME	1327	n/a	n/a	0	0	0
1598.946	n/a	WORD	799473	wordpools/wasnorm_wordpool_576.txt	LTP299	ltpFR2	3	8	CHAUFFEUR	283	n/a	n/a	0	0	0
1601.412	n/a	WORD	800706	wordpools/wasnorm_wordpool_576.txt	LTP299	ltpFR2	3	8	BEAVER	109	n/a	n/a	0	0	0
1603.864	n/a	WORD	801932	wordpools/wasnorm_wordpool_576.txt	LTP299	ltpFR2	3	8	DUST	508	n/a	n/a	0	0	0
1606.4	n/a	WORD	803200	wordpools/wasnorm_wordpool_576.txt	LTP299	ltpFR2	3	8	FOOT	590	n/a	n/a	0	0	0
1609.072	n/a	WORD	804536	wordpools/wasnorm_wordpool_576.txt	LTP299	ltpFR2	3	8	LAKE	796	n/a	n/a	0	0	0
1611.57	n/a	WORD	805785	wordpools/wasnorm_wordpool_576.txt	LTP299	ltpFR2	3	8	TRUCK	1512	n/a	n/a	0	0	0
1614.056	n/a	WORD	807028	wordpools/wasnorm_wordpool_576.txt	LTP299	ltpFR2	3	8	PISTON	1076	n/a	n/a	0	0	0
1616.808	n/a	WORD	808404	wordpools/wasnorm_wordpool_576.txt	LTP299	ltpFR2	3	8	VALVE	1546	n/a	n/a	0	0	0
1619.598	n/a	WORD	809799	wordpools/wasnorm_wordpool_576.txt	LTP299	ltpFR2	3	8	BROOK	177	n/a	n/a	0	0	0
1622.262	n/a	WORD	811131	wordpools/wasnorm_wordpool_576.txt	LTP299	ltpFR2	3	8	LIZARD	834	n/a	n/a	0	0	0
1624.916	n/a	WORD	812458	wordpools/wasnorm_wordpool_576.txt	LTP299	ltpFR2	3	8	POISON	1096	n/a	n/a	0	0	0
1627.366	n/a	WORD	813683	wordpools/wasnorm_wordpool_576.txt	LTP299	ltpFR2	3	8	GROUND	666	n/a	n/a	0	0	0
1630.136	n/a	WORD	815068	wordpools/wasnorm_wordpool_576.txt	LTP299	ltpFR2	3	8	BARLEY	88	n/a	n/a	0	0	0
1632.592	n/a	WORD	816296	wordpools/wasnorm_wordpool_576.txt	LTP299	ltpFR2	3	8	BREAST	171	n/a	n/a	0	0	0
1635.29	n/a	WORD	817645	wordpools/wasnorm_wordpool_576.txt	LTP299	ltpFR2	3	8	LETTUCE	814	n/a	n/a	0	0	0
1637.758	n/a	WORD	818879	wordpools/wasnorm_wordpool_576.txt	LTP299	ltpFR2	3	8	RUST	1219	n/a	n/a	0	0	0
1640.532	n/a	WORD	820266	wordpools/wasnorm_wordpool_576.txt	LTP299	ltpFR2	3	8	MISSILE	900	n/a	n/a	0	0	0
1643.162	n/a	WORD	821581	wordpools/wasnorm_wordpool_576.txt	LTP299	ltpFR2	3	8	CLOCK	325	n/a	n/a	0	0	0
1645.67	n/a	WORD	822835	wordpools/wasnorm_wordpool_576.txt	LTP299	ltpFR2	3	8	SMOG	1330	n/a	n/a	0	0	0
1648.166	n/a	WORD	824083	wordpools/wasnorm_wordpool_576.txt	LTP299	ltpFR2	3	8	AGENT	10	n/a	n/a	0	0	0
1649.774	n/a	START	824887	n/a	LTP299	ltpFR2	3	n/a	n/a	n/a	11	n/a	n/a	n/a	n/a
1650.724	n/a	DISTRACTOR	825362	n/a	LTP299	ltpFR2	3	8	n/a	n/a	n/a	n/a	0	0	0
1650.736	n/a	PROB	825368	n/a	LTP299	ltpFR2	3	n/a	n/a	n/a	11	25	9	7	9
1654.554	n/a	PROB	827277	n/a	LTP299	ltpFR2	3	n/a	n/a	n/a	11	12	1	4	7
1657.374	n/a	PROB	828687	n/a	LTP299	ltpFR2	3	n/a	n/a	n/a	11	4	1	2	1
1658.892	n/a	PROB	829446	n/a	LTP299	ltpFR2	3	n/a	n/a	n/a	11	19	6	7	6
1661.494	n/a	PROB	830747	n/a	LTP299	ltpFR2	3	n/a	n/a	n/a	11	18	6	6	6
1663.144	n/a	PROB	831572	n/a	LTP299	ltpFR2	3	n/a	n/a	n/a	11	11	6	4	1
1665.078	n/a	PROB	832539	n/a	LTP299	ltpFR2	3	n/a	n/a	n/a	11	16	2	9	5
1666.764	n/a	PROB	833382	n/a	LTP299	ltpFR2	3	n/a	n/a	n/a	11	16	7	4	5
1668.916	n/a	PROB	834458	n/a	LTP299	ltpFR2	3	n/a	n/a	n/a	11	9	4	4	1
1670.334	n/a	PROB	835167	n/a	LTP299	ltpFR2	3	n/a	n/a	n/a	11	13	8	3	2
1672.472	n/a	STOP	836236	n/a	LTP299	ltpFR2	3	n/a	n/a	n/a	11	n/a	n/a	n/a	n/a
1675.588	n/a	REC_START	837794	n/a	LTP299	ltpFR2	3	8	n/a	n/a	n/a	n/a	0	0	0
1677.396	n/a	REC_WORD	838698	wordpools/wasnorm_wordpool_576.txt	LTP299	ltpFR2	3	8	BARLEY	88	n/a	n/a	0	0	0
1685.636	n/a	REC_WORD	842818	wordpools/wasnorm_wordpool_576.txt	LTP299	ltpFR2	3	8	LAKE	796	n/a	n/a	0	0	0
1687.108	n/a	REC_WORD	843554	wordpools/wasnorm_wordpool_576.txt	LTP299	ltpFR2	3	8	BEAVER	109	n/a	n/a	0	0	0
1688.258	n/a	REC_WORD	844129	wordpools/wasnorm_wordpool_576.txt	LTP299	ltpFR2	3	8	CHAUFFEUR	283	n/a	n/a	0	0	0
1690.358	n/a	REC_WORD	845179	wordpools/wasnorm_wordpool_576.txt	LTP299	ltpFR2	3	8	DUST	508	n/a	n/a	0	0	0
1693.462	n/a	REC_WORD	846731	wordpools/wasnorm_wordpool_576.txt	LTP299	ltpFR2	3	8	RUST	1219	n/a	n/a	0	0	0
1694.986	n/a	REC_WORD	847493	wordpools/wasnorm_wordpool_576.txt	LTP299	ltpFR2	3	8	FOOT	590	n/a	n/a	0	0	0
1696.944	n/a	REC_WORD	848472	wordpools/wasnorm_wordpool_576.txt	LTP299	ltpFR2	3	8	LETTUCE	814	n/a	n/a	0	0	0
1701.998	n/a	REC_WORD	850999	wordpools/wasnorm_wordpool_576.txt	LTP299	ltpFR2	3	8	ATOM	55	n/a	n/a	0	0	0
1703.736	n/a	REC_WORD	851868	wordpools/wasnorm_wordpool_576.txt	LTP299	ltpFR2	3	8	OZONE	996	n/a	n/a	0	0	0
1706.41	n/a	REC_WORD	853205	wordpools/wasnorm_wordpool_576.txt	LTP299	ltpFR2	3	8	BREAST	171	n/a	n/a	0	0	0
1742.922	n/a	REC_WORD	871461	wordpools/wasnorm_wordpool_576.txt	LTP299	ltpFR2	3	8	TRUCK	1512	n/a	n/a	0	0	0
1743.95	n/a	REC_WORD	871975	wordpools/wasnorm_wordpool_576.txt	LTP299	ltpFR2	3	8	VALVE	1546	n/a	n/a	0	0	0
1745.094	n/a	REC_WORD	872547	wordpools/wasnorm_wordpool_576.txt	LTP299	ltpFR2	3	8	PISTON	1076	n/a	n/a	0	0	0
1752.128	n/a	REST_REWET	876064	n/a	LTP299	ltpFR2	3	8	n/a	n/a	n/a	n/a	0	0	0
1978.83	n/a	DISTRACTOR	989415	n/a	LTP299	ltpFR2	3	9	n/a	n/a	n/a	n/a	0	0	0
1978.83	n/a	START	989415	n/a	LTP299	ltpFR2	3	n/a	n/a	n/a	12	n/a	n/a	n/a	n/a
1978.844	n/a	PROB	989422	n/a	LTP299	ltpFR2	3	n/a	n/a	n/a	12	12	4	2	6
1981.448	n/a	PROB	990724	n/a	LTP299	ltpFR2	3	n/a	n/a	n/a	12	20	8	6	6
1984.084	n/a	PROB	992042	n/a	LTP299	ltpFR2	3	n/a	n/a	n/a	12	10	7	1	2
1985.868	n/a	PROB	992934	n/a	LTP299	ltpFR2	3	n/a	n/a	n/a	12	14	3	4	7
1987.554	n/a	PROB	993777	n/a	LTP299	ltpFR2	3	n/a	n/a	n/a	12	16	6	5	5
1988.954	n/a	PROB	994477	n/a	LTP299	ltpFR2	3	n/a	n/a	n/a	12	13	3	1	9
1990.788	n/a	PROB	995394	n/a	LTP299	ltpFR2	3	n/a	n/a	n/a	12	5	2	1	2
1992.156	n/a	PROB	996078	n/a	LTP299	ltpFR2	3	n/a	n/a	n/a	12	22	9	9	4
1994.052	n/a	PROB	997026	n/a	LTP299	ltpFR2	3	n/a	n/a	n/a	12	19	7	3	9
1996.188	n/a	PROB	998094	n/a	LTP299	ltpFR2	3	n/a	n/a	n/a	12	12	5	5	2
1997.508	n/a	PROB	998754	n/a	LTP299	ltpFR2	3	n/a	n/a	n/a	12	12	1	9	2
1999.096	n/a	PROB	999548	n/a	LTP299	ltpFR2	3	n/a	n/a	n/a	12	11	6	1	4
2000.48	n/a	PROB	1000240	n/a	LTP299	ltpFR2	3	n/a	n/a	n/a	12	11	2	1	8
2002.05	n/a	STOP	1001025	n/a	LTP299	ltpFR2	3	n/a	n/a	n/a	12	n/a	n/a	n/a	n/a
2003.712	n/a	WORD	1001856	wordpools/wasnorm_wordpool_576.txt	LTP299	ltpFR2	3	9	SILK	1307	n/a	n/a	0	0	0
2006.298	n/a	WORD	1003149	wordpools/wasnorm_wordpool_576.txt	LTP299	ltpFR2	3	9	BRAKE	166	n/a	n/a	0	0	0
2008.9	n/a	WORD	1004450	wordpools/wasnorm_wordpool_576.txt	LTP299	ltpFR2	3	9	PERMIT	1051	n/a	n/a	0	0	0
2011.672	n/a	WORD	1005836	wordpools/wasnorm_wordpool_576.txt	LTP299	ltpFR2	3	9	BACKBONE	66	n/a	n/a	0	0	0
2014.24	n/a	WORD	1007120	wordpools/wasnorm_wordpool_576.txt	LTP299	ltpFR2	3	9	SPOON	1357	n/a	n/a	0	0	0
2016.84	n/a	WORD	1008420	wordpools/wasnorm_wordpool_576.txt	LTP299	ltpFR2	3	9	SCALPEL	1243	n/a	n/a	0	0	0
2019.342	n/a	WORD	1009671	wordpools/wasnorm_wordpool_576.txt	LTP299	ltpFR2	3	9	TORTOISE	1486	n/a	n/a	0	0	0
2022.162	n/a	WORD	1011081	wordpools/wasnorm_wordpool_576.txt	LTP299	ltpFR2	3	9	CRAYON	401	n/a	n/a	0	0	0
2024.664	n/a	WORD	1012332	wordpools/wasnorm_wordpool_576.txt	LTP299	ltpFR2	3	9	BEAKER	104	n/a	n/a	0	0	0
2027.482	n/a	WORD	1013741	wordpools/wasnorm_wordpool_576.txt	LTP299	ltpFR2	3	9	STAPLE	1371	n/a	n/a	0	0	0
2030.002	n/a	WORD	1015001	wordpools/wasnorm_wordpool_576.txt	LTP299	ltpFR2	3	9	TABLE	1426	n/a	n/a	0	0	0
2032.62	n/a	WORD	1016310	wordpools/wasnorm_wordpool_576.txt	LTP299	ltpFR2	3	9	FRECKLE	602	n/a	n/a	0	0	0
2035.29	n/a	WORD	1017645	wordpools/wasnorm_wordpool_576.txt	LTP299	ltpFR2	3	9	BLADE	134	n/a	n/a	0	0	0
2038.092	n/a	WORD	1019046	wordpools/wasnorm_wordpool_576.txt	LTP299	ltpFR2	3	9	CHEMIST	292	n/a	n/a	0	0	0
2040.794	n/a	WORD	1020397	wordpools/wasnorm_wordpool_576.txt	LTP299	ltpFR2	3	9	PADDING	999	n/a	n/a	0	0	0
2043.278	n/a	WORD	1021639	wordpools/wasnorm_wordpool_576.txt	LTP299	ltpFR2	3	9	DINER	467	n/a	n/a	0	0	0
2045.982	n/a	WORD	1022991	wordpools/wasnorm_wordpool_576.txt	LTP299	ltpFR2	3	9	CONCERT	360	n/a	n/a	0	0	0
2048.718	n/a	WORD	1024359	wordpools/wasnorm_wordpool_576.txt	LTP299	ltpFR2	3	9	PARTNER	1017	n/a	n/a	0	0	0
2051.286	n/a	WORD	1025643	wordpools/wasnorm_wordpool_576.txt	LTP299	ltpFR2	3	9	FRIEND	606	n/a	n/a	0	0	0
2053.822	n/a	WORD	1026911	wordpools/wasnorm_wordpool_576.txt	LTP299	ltpFR2	3	9	CANYON	235	n/a	n/a	0	0	0
2056.44	n/a	WORD	1028220	wordpools/wasnorm_wordpool_576.txt	LTP299	ltpFR2	3	9	COFFEE	341	n/a	n/a	0	0	0
2058.876	n/a	WORD	1029438	wordpools/wasnorm_wordpool_576.txt	LTP299	ltpFR2	3	9	LOFT	840	n/a	n/a	0	0	0
2061.694	n/a	WORD	1030847	wordpools/wasnorm_wordpool_576.txt	LTP299	ltpFR2	3	9	SPOUSE	1358	n/a	n/a	0	0	0
2064.13	n/a	WORD	1032065	wordpools/wasnorm_wordpool_576.txt	LTP299	ltpFR2	3	9	TYPIST	1532	n/a	n/a	0	0	0
2065.748	n/a	START	1032874	n/a	LTP299	ltpFR2	3	n/a	n/a	n/a	13	n/a	n/a	n/a	n/a
2066.934	n/a	DISTRACTOR	1033467	n/a	LTP299	ltpFR2	3	9	n/a	n/a	n/a	n/a	0	0	0
2066.948	n/a	PROB	1033474	n/a	LTP299	ltpFR2	3	n/a	n/a	n/a	13	14	4	4	5
2068.732	n/a	PROB	1034366	n/a	LTP299	ltpFR2	3	n/a	n/a	n/a	13	9	3	5	1
2070.834	n/a	PROB	1035417	n/a	LTP299	ltpFR2	3	n/a	n/a	n/a	13	10	5	3	2
2072.652	n/a	PROB	1036326	n/a	LTP299	ltpFR2	3	n/a	n/a	n/a	13	17	6	6	5
2075.606	n/a	PROB	1037803	n/a	LTP299	ltpFR2	3	n/a	n/a	n/a	13	18	9	6	3
2077.456	n/a	PROB	1038728	n/a	LTP299	ltpFR2	3	n/a	n/a	n/a	13	26	9	8	9
2079.644	n/a	PROB	1039822	n/a	LTP299	ltpFR2	3	n/a	n/a	n/a	13	13	1	8	4
2081.376	n/a	PROB	1040688	n/a	LTP299	ltpFR2	3	n/a	n/a	n/a	13	18	3	9	6
2083.696	n/a	PROB	1041848	n/a	LTP299	ltpFR2	3	n/a	n/a	n/a	13	14	5	8	1
2085.446	n/a	PROB	1042723	n/a	LTP299	ltpFR2	3	n/a	n/a	n/a	13	21	8	4	9
2089.748	n/a	STOP	1044874	n/a	LTP299	ltpFR2	3	n/a	n/a	n/a	13	n/a	n/a	n/a	n/a
2091.7	n/a	REC_START	1045850	n/a	LTP299	ltpFR2	3	9	n/a	n/a	n/a	n/a	0	0	0
2092.886	n/a	REC_WORD	1046443	wordpools/wasnorm_wordpool_576.txt	LTP299	ltpFR2	3	9	COFFEE	341	n/a	n/a	0	0	0
2094.088	n/a	REC_WORD	1047044	wordpools/wasnorm_wordpool_576.txt	LTP299	ltpFR2	3	9	LOFT	840	n/a	n/a	0	0	0
2096.908	n/a	REC_WORD	1048454	wordpools/wasnorm_wordpool_576.txt	LTP299	ltpFR2	3	9	TORTOISE	1486	n/a	n/a	0	0	0
2098.352	n/a	REC_WORD	1049176	wordpools/wasnorm_wordpool_576.txt	LTP299	ltpFR2	3	9	PERMIT	1051	n/a	n/a	0	0	0
2099.74	n/a	REC_WORD	1049870	wordpools/wasnorm_wordpool_576.txt	LTP299	ltpFR2	3	9	BRAKE	166	n/a	n/a	0	0	0
2101.036	n/a	REC_WORD	1050518	wordpools/wasnorm_wordpool_576.txt	LTP299	ltpFR2	3	9	SILK	1307	n/a	n/a	0	0	0
2109.988	n/a	REC_WORD	1054994	wordpools/wasnorm_wordpool_576.txt	LTP299	ltpFR2	3	9	TYPIST	1532	n/a	n/a	0	0	0
2111.424	n/a	REC_WORD	1055712	wordpools/wasnorm_wordpool_576.txt	LTP299	ltpFR2	3	9	CHEMIST	292	n/a	n/a	0	0	0
2113.436	n/a	REC_WORD	1056718	wordpools/wasnorm_wordpool_576.txt	LTP299	ltpFR2	3	9	BEAKER	104	n/a	n/a	0	0	0
2115.424	n/a	REC_WORD	1057712	wordpools/wasnorm_wordpool_576.txt	LTP299	ltpFR2	3	9	TABLE	1426	n/a	n/a	0	0	0
2124.098	n/a	REC_WORD	1062049	wordpools/wasnorm_wordpool_576.txt	LTP299	ltpFR2	3	9	SCALPEL	1243	n/a	n/a	0	0	0
2125.406	n/a	REC_WORD	1062703	wordpools/wasnorm_wordpool_576.txt	LTP299	ltpFR2	3	9	SPOON	1357	n/a	n/a	0	0	0
2127.97	n/a	REC_WORD	1063985	wordpools/wasnorm_wordpool_576.txt	LTP299	ltpFR2	3	9	KNIFE	785	n/a	n/a	0	0	0
2142.214	n/a	REC_WORD	1071107	wordpools/wasnorm_wordpool_576.txt	LTP299	ltpFR2	3	9	DINER	467	n/a	n/a	0	0	0
2144.682	n/a	REC_WORD	1072341	wordpools/wasnorm_wordpool_576.txt	LTP299	ltpFR2	3	9	PARTNER	1017	n/a	n/a	0	0	0
2145.56	n/a	REC_WORD	1072780	wordpools/wasnorm_wordpool_576.txt	LTP299	ltpFR2	3	9	SPOUSE	1358	n/a	n/a	0	0	0
2146.982	n/a	REC_WORD	1073491	wordpools/wasnorm_wordpool_576.txt	LTP299	ltpFR2	3	9	CONCERT	360	n/a	n/a	0	0	0
2149.162	n/a	REC_WORD	1074581	wordpools/wasnorm_wordpool_576.txt	LTP299	ltpFR2	3	9	FRIEND	606	n/a	n/a	0	0	0
2182.124	n/a	DISTRACTOR	1091062	n/a	LTP299	ltpFR2	3	10	n/a	n/a	n/a	n/a	0	0	0
2182.124	n/a	START	1091062	n/a	LTP299	ltpFR2	3	n/a	n/a	n/a	14	n/a	n/a	n/a	n/a
2182.14	n/a	PROB	1091070	n/a	LTP299	ltpFR2	3	n/a	n/a	n/a	14	11	9	1	1
2183.642	n/a	PROB	1091821	n/a	LTP299	ltpFR2	3	n/a	n/a	n/a	14	13	4	4	5
2188.178	n/a	PROB	1094089	n/a	LTP299	ltpFR2	3	n/a	n/a	n/a	14	17	7	1	9
2190.63	n/a	PROB	1095315	n/a	LTP299	ltpFR2	3	n/a	n/a	n/a	14	19	9	4	6
2192.732	n/a	PROB	1096366	n/a	LTP299	ltpFR2	3	n/a	n/a	n/a	14	25	6	9	9
2194.748	n/a	PROB	1097374	n/a	LTP299	ltpFR2	3	n/a	n/a	n/a	14	21	5	8	8
2197.368	n/a	PROB	1098684	n/a	LTP299	ltpFR2	3	n/a	n/a	n/a	14	15	1	5	9
2199.188	n/a	PROB	1099594	n/a	LTP299	ltpFR2	3	n/a	n/a	n/a	14	27	9	9	9
2202.638	n/a	PROB	1101319	n/a	LTP299	ltpFR2	3	n/a	n/a	n/a	14	15	9	4	2
2206.126	n/a	STOP	1103063	n/a	LTP299	ltpFR2	3	n/a	n/a	n/a	14	n/a	n/a	n/a	n/a
2207.038	n/a	WORD	1103519	wordpools/wasnorm_wordpool_576.txt	LTP299	ltpFR2	3	10	FEMALE	559	n/a	n/a	0	0	0
2209.546	n/a	WORD	1104773	wordpools/wasnorm_wordpool_576.txt	LTP299	ltpFR2	3	10	GUITAR	670	n/a	n/a	0	0	0
2212.126	n/a	WORD	1106063	wordpools/wasnorm_wordpool_576.txt	LTP299	ltpFR2	3	10	SIBLING	1301	n/a	n/a	0	0	0
2214.912	n/a	WORD	1107456	wordpools/wasnorm_wordpool_576.txt	LTP299	ltpFR2	3	10	BOARD	143	n/a	n/a	0	0	0
2217.336	n/a	WORD	1108668	wordpools/wasnorm_wordpool_576.txt	LTP299	ltpFR2	3	10	ROCKET	1202	n/a	n/a	0	0	0
2219.766	n/a	WORD	1109883	wordpools/wasnorm_wordpool_576.txt	LTP299	ltpFR2	3	10	COLONEL	348	n/a	n/a	0	0	0
2222.238	n/a	WORD	1111119	wordpools/wasnorm_wordpool_576.txt	LTP299	ltpFR2	3	10	ARMY	39	n/a	n/a	0	0	0
2225.004	n/a	WORD	1112502	wordpools/wasnorm_wordpool_576.txt	LTP299	ltpFR2	3	10	DONKEY	484	n/a	n/a	0	0	0
2227.554	n/a	WORD	1113777	wordpools/wasnorm_wordpool_576.txt	LTP299	ltpFR2	3	10	DIVER	476	n/a	n/a	0	0	0
2230.308	n/a	WORD	1115154	wordpools/wasnorm_wordpool_576.txt	LTP299	ltpFR2	3	10	COD	340	n/a	n/a	0	0	0
2233.094	n/a	WORD	1116547	wordpools/wasnorm_wordpool_576.txt	LTP299	ltpFR2	3	10	PARENT	1013	n/a	n/a	0	0	0
2235.846	n/a	WORD	1117923	wordpools/wasnorm_wordpool_576.txt	LTP299	ltpFR2	3	10	SPACE	1345	n/a	n/a	0	0	0
2238.436	n/a	WORD	1119218	wordpools/wasnorm_wordpool_576.txt	LTP299	ltpFR2	3	10	RECORD	1176	n/a	n/a	0	0	0
2240.884	n/a	WORD	1120442	wordpools/wasnorm_wordpool_576.txt	LTP299	ltpFR2	3	10	COURSE	390	n/a	n/a	0	0	0
2243.686	n/a	WORD	1121843	wordpools/wasnorm_wordpool_576.txt	LTP299	ltpFR2	3	10	INFANT	737	n/a	n/a	0	0	0
2246.192	n/a	WORD	1123096	wordpools/wasnorm_wordpool_576.txt	LTP299	ltpFR2	3	10	TWISTER	1530	n/a	n/a	0	0	0
2248.69	n/a	WORD	1124345	wordpools/wasnorm_wordpool_576.txt	LTP299	ltpFR2	3	10	HUMAN	726	n/a	n/a	0	0	0
2251.142	n/a	WORD	1125571	wordpools/wasnorm_wordpool_576.txt	LTP299	ltpFR2	3	10	LACE	792	n/a	n/a	0	0	0
2253.66	n/a	WORD	1126830	wordpools/wasnorm_wordpool_576.txt	LTP299	ltpFR2	3	10	BRACES	164	n/a	n/a	0	0	0
2256.346	n/a	WORD	1128173	wordpools/wasnorm_wordpool_576.txt	LTP299	ltpFR2	3	10	BUREAU	199	n/a	n/a	0	0	0
2258.848	n/a	WORD	1129424	wordpools/wasnorm_wordpool_576.txt	LTP299	ltpFR2	3	10	CLOTHES	327	n/a	n/a	0	0	0
2261.42	n/a	WORD	1130710	wordpools/wasnorm_wordpool_576.txt	LTP299	ltpFR2	3	10	APRON	35	n/a	n/a	0	0	0
2264.12	n/a	WORD	1132060	wordpools/wasnorm_wordpool_576.txt	LTP299	ltpFR2	3	10	PLUTO	1092	n/a	n/a	0	0	0
2266.64	n/a	WORD	1133320	wordpools/wasnorm_wordpool_576.txt	LTP299	ltpFR2	3	10	CRICKET	408	n/a	n/a	0	0	0
2268.258	n/a	START	1134129	n/a	LTP299	ltpFR2	3	n/a	n/a	n/a	15	n/a	n/a	n/a	n/a
2269.122	n/a	DISTRACTOR	1134561	n/a	LTP299	ltpFR2	3	10	n/a	n/a	n/a	n/a	0	0	0
2269.126	n/a	PROB	1134563	n/a	LTP299	ltpFR2	3	n/a	n/a	n/a	15	22	9	5	8
2272.21	n/a	PROB	1136105	n/a	LTP299	ltpFR2	3	n/a	n/a	n/a	15	13	9	3	1
2273.98	n/a	PROB	1136990	n/a	LTP299	ltpFR2	3	n/a	n/a	n/a	15	19	9	6	4
2275.564	n/a	PROB	1137782	n/a	LTP299	ltpFR2	3	n/a	n/a	n/a	15	15	2	8	5
2276.964	n/a	PROB	1138482	n/a	LTP299	ltpFR2	3	n/a	n/a	n/a	15	12	2	9	1
2278.65	n/a	PROB	1139325	n/a	LTP299	ltpFR2	3	n/a	n/a	n/a	15	11	3	7	1
2280.034	n/a	PROB	1140017	n/a	LTP299	ltpFR2	3	n/a	n/a	n/a	15	23	1	4	8
2281.936	n/a	PROB	1140968	n/a	LTP299	ltpFR2	3	n/a	n/a	n/a	15	15	3	4	8
2285.722	n/a	PROB	1142861	n/a	LTP299	ltpFR2	3	n/a	n/a	n/a	15	7	2	1	4
2287.438	n/a	PROB	1143719	n/a	LTP299	ltpFR2	3	n/a	n/a	n/a	15	16	5	4	7
2289.558	n/a	PROB	1144779	n/a	LTP299	ltpFR2	3	n/a	n/a	n/a	15	113	1	9	3
2291.116	n/a	STOP	1145558	n/a	LTP299	ltpFR2	3	n/a	n/a	n/a	15	n/a	n/a	n/a	n/a
2294.146	n/a	REC_START	1147073	n/a	LTP299	ltpFR2	3	10	n/a	n/a	n/a	n/a	0	0	0
2296.034	n/a	REC_WORD	1148017	wordpools/wasnorm_wordpool_576.txt	LTP299	ltpFR2	3	10	PLUTO	1092	n/a	n/a	0	0	0
2299.388	n/a	REC_WORD	1149694	wordpools/wasnorm_wordpool_576.txt	LTP299	ltpFR2	3	10	CRICKET	408	n/a	n/a	0	0	0
2301.622	n/a	REC_WORD	1150811	wordpools/wasnorm_wordpool_576.txt	LTP299	ltpFR2	3	10	APRON	35	n/a	n/a	0	0	0
2303.32	n/a	REC_WORD	1151660	wordpools/wasnorm_wordpool_576.txt	LTP299	ltpFR2	3	10	FEMALE	559	n/a	n/a	0	0	0
2305.262	n/a	REC_WORD	1152631	wordpools/wasnorm_wordpool_576.txt	LTP299	ltpFR2	3	10	GUITAR	670	n/a	n/a	0	0	0
2307.272	n/a	REC_WORD	1153636	wordpools/wasnorm_wordpool_576.txt	LTP299	ltpFR2	3	10	SIBLING	1301	n/a	n/a	0	0	0
2330.524	n/a	REC_WORD	1165262	wordpools/wasnorm_wordpool_576.txt	LTP299	ltpFR2	3	10	ROCKET	1202	n/a	n/a	0	0	0
2331.958	n/a	REC_WORD	1165979	wordpools/wasnorm_wordpool_576.txt	LTP299	ltpFR2	3	10	SPACE	1345	n/a	n/a	0	0	0
2333.596	n/a	REC_WORD	1166798	wordpools/wasnorm_wordpool_576.txt	LTP299	ltpFR2	3	10	BOARD	143	n/a	n/a	0	0	0
2336.354	n/a	REC_WORD	1168177	wordpools/wasnorm_wordpool_576.txt	LTP299	ltpFR2	3	10	DIVER	476	n/a	n/a	0	0	0
2337.746	n/a	REC_WORD	1168873	wordpools/wasnorm_wordpool_576.txt	LTP299	ltpFR2	3	10	COD	340	n/a	n/a	0	0	0
2339.258	n/a	REC_WORD	1169629	wordpools/wasnorm_wordpool_576.txt	LTP299	ltpFR2	3	10	COLONEL	348	n/a	n/a	0	0	0
2340.71	n/a	REC_WORD	1170355	wordpools/wasnorm_wordpool_576.txt	LTP299	ltpFR2	3	10	ARMY	39	n/a	n/a	0	0	0
2384.574	n/a	DISTRACTOR	1192287	n/a	LTP299	ltpFR2	3	11	n/a	n/a	n/a	n/a	0	0	0
2384.574	n/a	START	1192287	n/a	LTP299	ltpFR2	3	n/a	n/a	n/a	16	n/a	n/a	n/a	n/a
2384.588	n/a	PROB	1192294	n/a	LTP299	ltpFR2	3	n/a	n/a	n/a	16	18	8	5	5
2386.118	n/a	PROB	1193059	n/a	LTP299	ltpFR2	3	n/a	n/a	n/a	16	11	4	1	6
2388.736	n/a	PROB	1194368	n/a	LTP299	ltpFR2	3	n/a	n/a	n/a	16	20	8	5	7
2390.854	n/a	PROB	1195427	n/a	LTP299	ltpFR2	3	n/a	n/a	n/a	16	18	6	8	4
2392.806	n/a	PROB	1196403	n/a	LTP299	ltpFR2	3	n/a	n/a	n/a	16	15	2	5	8
2394.926	n/a	PROB	1197463	n/a	LTP299	ltpFR2	3	n/a	n/a	n/a	16	17	5	3	9
2397.26	n/a	PROB	1198630	n/a	LTP299	ltpFR2	3	n/a	n/a	n/a	16	11	4	6	1
2398.478	n/a	PROB	1199239	n/a	LTP299	ltpFR2	3	n/a	n/a	n/a	16	26	9	9	8
2400.762	n/a	PROB	1200381	n/a	LTP299	ltpFR2	3	n/a	n/a	n/a	16	21	6	9	6
2404.75	n/a	PROB	1202375	n/a	LTP299	ltpFR2	3	n/a	n/a	n/a	16	19	5	9	5
2408.568	n/a	STOP	1204284	n/a	LTP299	ltpFR2	3	n/a	n/a	n/a	16	n/a	n/a	n/a	n/a
2409.47	n/a	WORD	1204735	wordpools/wasnorm_wordpool_576.txt	LTP299	ltpFR2	3	11	FRAGRANCE	599	n/a	n/a	0	0	0
2411.948	n/a	WORD	1205974	wordpools/wasnorm_wordpool_576.txt	LTP299	ltpFR2	3	11	CAFE	216	n/a	n/a	0	0	0
2414.666	n/a	WORD	1207333	wordpools/wasnorm_wordpool_576.txt	LTP299	ltpFR2	3	11	CHILD	299	n/a	n/a	0	0	0
2417.3	n/a	WORD	1208650	wordpools/wasnorm_wordpool_576.txt	LTP299	ltpFR2	3	11	TREAT	1501	n/a	n/a	0	0	0
2420.088	n/a	WORD	1210044	wordpools/wasnorm_wordpool_576.txt	LTP299	ltpFR2	3	11	KLEENEX	782	n/a	n/a	0	0	0
2422.78	n/a	WORD	1211390	wordpools/wasnorm_wordpool_576.txt	LTP299	ltpFR2	3	11	PICNIC	1060	n/a	n/a	0	0	0
2425.516	n/a	WORD	1212758	wordpools/wasnorm_wordpool_576.txt	LTP299	ltpFR2	3	11	DORM	488	n/a	n/a	0	0	0
2428.26	n/a	WORD	1214130	wordpools/wasnorm_wordpool_576.txt	LTP299	ltpFR2	3	11	FREEZER	604	n/a	n/a	0	0	0
2431.032	n/a	WORD	1215516	wordpools/wasnorm_wordpool_576.txt	LTP299	ltpFR2	3	11	LIGHTNING	820	n/a	n/a	0	0	0
2433.466	n/a	WORD	1216733	wordpools/wasnorm_wordpool_576.txt	LTP299	ltpFR2	3	11	VALLEY	1545	n/a	n/a	0	0	0
2436.186	n/a	WORD	1218093	wordpools/wasnorm_wordpool_576.txt	LTP299	ltpFR2	3	11	ONION	977	n/a	n/a	0	0	0
2438.888	n/a	WORD	1219444	wordpools/wasnorm_wordpool_576.txt	LTP299	ltpFR2	3	11	SALT	1229	n/a	n/a	0	0	0
2441.33	n/a	WORD	1220665	wordpools/wasnorm_wordpool_576.txt	LTP299	ltpFR2	3	11	LUNCH	849	n/a	n/a	0	0	0
2443.808	n/a	WORD	1221904	wordpools/wasnorm_wordpool_576.txt	LTP299	ltpFR2	3	11	NIGHTGOWN	953	n/a	n/a	0	0	0
2446.328	n/a	WORD	1223164	wordpools/wasnorm_wordpool_576.txt	LTP299	ltpFR2	3	11	EYELASH	546	n/a	n/a	0	0	0
2448.78	n/a	WORD	1224390	wordpools/wasnorm_wordpool_576.txt	LTP299	ltpFR2	3	11	CUPBOARD	425	n/a	n/a	0	0	0
2451.236	n/a	WORD	1225618	wordpools/wasnorm_wordpool_576.txt	LTP299	ltpFR2	3	11	RATTLE	1170	n/a	n/a	0	0	0
2453.95	n/a	WORD	1226975	wordpools/wasnorm_wordpool_576.txt	LTP299	ltpFR2	3	11	CRITIC	410	n/a	n/a	0	0	0
2456.402	n/a	WORD	1228201	wordpools/wasnorm_wordpool_576.txt	LTP299	ltpFR2	3	11	HONEY	713	n/a	n/a	0	0	0
2458.856	n/a	WORD	1229428	wordpools/wasnorm_wordpool_576.txt	LTP299	ltpFR2	3	11	KETCHUP	771	n/a	n/a	0	0	0
2461.39	n/a	WORD	1230695	wordpools/wasnorm_wordpool_576.txt	LTP299	ltpFR2	3	11	MUSTARD	935	n/a	n/a	0	0	0
2464.16	n/a	WORD	1232080	wordpools/wasnorm_wordpool_576.txt	LTP299	ltpFR2	3	11	BODY	145	n/a	n/a	0	0	0
2466.628	n/a	WORD	1233314	wordpools/wasnorm_wordpool_576.txt	LTP299	ltpFR2	3	11	BELLY	119	n/a	n/a	0	0	0
2469.446	n/a	WORD	1234723	wordpools/wasnorm_wordpool_576.txt	LTP299	ltpFR2	3	11	TWEEZERS	1526	n/a	n/a	0	0	0
2471.054	n/a	START	1235527	n/a	LTP299	ltpFR2	3	n/a	n/a	n/a	17	n/a	n/a	n/a	n/a
2471.93	n/a	DISTRACTOR	1235965	n/a	LTP299	ltpFR2	3	11	n/a	n/a	n/a	n/a	0	0	0
2471.936	n/a	PROB	1235968	n/a	LTP299	ltpFR2	3	n/a	n/a	n/a	17	8	1	3	4
2473.484	n/a	PROB	1236742	n/a	LTP299	ltpFR2	3	n/a	n/a	n/a	17	13	4	1	8
2477.324	n/a	PROB	1238662	n/a	LTP299	ltpFR2	3	n/a	n/a	n/a	17	25	9	8	8
2479.754	n/a	PROB	1239877	n/a	LTP299	ltpFR2	3	n/a	n/a	n/a	17	14	4	5	5
2481.21	n/a	PROB	1240605	n/a	LTP299	ltpFR2	3	n/a	n/a	n/a	17	13	6	2	5
2483.258	n/a	PROB	1241629	n/a	LTP299	ltpFR2	3	n/a	n/a	n/a	17	4	1	1	2
2484.508	n/a	PROB	1242254	n/a	LTP299	ltpFR2	3	n/a	n/a	n/a	17	5	1	3	1
2485.73	n/a	PROB	1242865	n/a	LTP299	ltpFR2	3	n/a	n/a	n/a	17	10	4	1	5
2487.26	n/a	PROB	1243630	n/a	LTP299	ltpFR2	3	n/a	n/a	n/a	17	14	4	7	3
2489.046	n/a	PROB	1244523	n/a	LTP299	ltpFR2	3	n/a	n/a	n/a	17	24	9	8	7
2492.666	n/a	PROB	1246333	n/a	LTP299	ltpFR2	3	n/a	n/a	n/a	17	13	5	7	1
2495.042	n/a	STOP	1247521	n/a	LTP299	ltpFR2	3	n/a	n/a	n/a	17	n/a	n/a	n/a	n/a
2496.908	n/a	REC_START	1248454	n/a	LTP299	ltpFR2	3	11	n/a	n/a	n/a	n/a	0	0	0
2498.52	n/a	REC_WORD	1249260	wordpools/wasnorm_wordpool_576.txt	LTP299	ltpFR2	3	11	BELLY	119	n/a	n/a	0	0	0
2499.778	n/a	REC_WORD	1249889	wordpools/wasnorm_wordpool_576.txt	LTP299	ltpFR2	3	11	BODY	145	n/a	n/a	0	0	0
2500.862	n/a	REC_WORD	1250431	wordpools/wasnorm_wordpool_576.txt	LTP299	ltpFR2	3	11	FRAGRANCE	599	n/a	n/a	0	0	0
2504.116	n/a	REC_WORD	1252058	wordpools/wasnorm_wordpool_576.txt	LTP299	ltpFR2	3	11	CAFE	216	n/a	n/a	0	0	0
2505.496	n/a	REC_WORD	1252748	wordpools/wasnorm_wordpool_576.txt	LTP299	ltpFR2	3	11	CHILD	299	n/a	n/a	0	0	0
2507.458	n/a	REC_WORD	1253729	wordpools/wasnorm_wordpool_576.txt	LTP299	ltpFR2	3	11	TREAT	1501	n/a	n/a	0	0	0
2530.256	n/a	REC_WORD	1265128	wordpools/wasnorm_wordpool_576.txt	LTP299	ltpFR2	3	11	EYELASH	546	n/a	n/a	0	0	0
2531.704	n/a	REC_WORD	1265852	wordpools/wasnorm_wordpool_576.txt	LTP299	ltpFR2	3	11	CUPBOARD	425	n/a	n/a	0	0	0
2532.954	n/a	REC_WORD	1266477	wordpools/wasnorm_wordpool_576.txt	LTP299	ltpFR2	3	11	TWEEZERS	1526	n/a	n/a	0	0	0
2536.712	n/a	REC_WORD	1268356	wordpools/wasnorm_wordpool_576.txt	LTP299	ltpFR2	3	11	PICNIC	1060	n/a	n/a	0	0	0
2537.708	n/a	REC_WORD	1268854	wordpools/wasnorm_wordpool_576.txt	LTP299	ltpFR2	3	11	LUNCH	849	n/a	n/a	0	0	0
2538.682	n/a	REC_WORD	1269341	wordpools/wasnorm_wordpool_576.txt	LTP299	ltpFR2	3	11	SALT	1229	n/a	n/a	0	0	0
2540.308	n/a	REC_WORD	1270154	wordpools/wasnorm_wordpool_576.txt	LTP299	ltpFR2	3	11	ONION	977	n/a	n/a	0	0	0
2541.46	n/a	REC_WORD	1270730	wordpools/wasnorm_wordpool_576.txt	LTP299	ltpFR2	3	11	KETCHUP	771	n/a	n/a	0	0	0
2542.678	n/a	REC_WORD	1271339	wordpools/wasnorm_wordpool_576.txt	LTP299	ltpFR2	3	11	MUSTARD	935	n/a	n/a	0	0	0
2543.952	n/a	REC_WORD	1271976	wordpools/wasnorm_wordpool_576.txt	LTP299	ltpFR2	3	11	HONEY	713	n/a	n/a	0	0	0
2549.25	n/a	REC_WORD	1274625	wordpools/wasnorm_wordpool_576.txt	LTP299	ltpFR2	3	11	VALLEY	1545	n/a	n/a	0	0	0
2550.322	n/a	REC_WORD	1275161	wordpools/wasnorm_wordpool_576.txt	LTP299	ltpFR2	3	11	LIGHTNING	820	n/a	n/a	0	0	0
2552.95	n/a	REC_WORD	1276475	wordpools/wasnorm_wordpool_576.txt	LTP299	ltpFR2	3	11	FREEZER	604	n/a	n/a	0	0	0
2554.336	n/a	REC_WORD	1277168	wordpools/wasnorm_wordpool_576.txt	LTP299	ltpFR2	3	11	DORM	488	n/a	n/a	0	0	0
2555.514	n/a	REC_WORD	1277757	wordpools/wasnorm_wordpool_576.txt	LTP299	ltpFR2	3	11	KLEENEX	782	n/a	n/a	0	0	0
2587.348	n/a	DISTRACTOR	1293674	n/a	LTP299	ltpFR2	3	12	n/a	n/a	n/a	n/a	0	0	0
2587.35	n/a	START	1293675	n/a	LTP299	ltpFR2	3	n/a	n/a	n/a	18	n/a	n/a	n/a	n/a
2587.364	n/a	PROB	1293682	n/a	LTP299	ltpFR2	3	n/a	n/a	n/a	18	15	1	8	6
2591.064	n/a	PROB	1295532	n/a	LTP299	ltpFR2	3	n/a	n/a	n/a	18	16	7	4	5
2592.966	n/a	PROB	1296483	n/a	LTP299	ltpFR2	3	n/a	n/a	n/a	18	11	4	2	5
2595.434	n/a	PROB	1297717	n/a	LTP299	ltpFR2	3	n/a	n/a	n/a	18	10	5	2	3
2597.168	n/a	PROB	1298584	n/a	LTP299	ltpFR2	3	n/a	n/a	n/a	18	20	5	8	7
2599.188	n/a	PROB	1299594	n/a	LTP299	ltpFR2	3	n/a	n/a	n/a	18	20	9	8	3
2601.338	n/a	PROB	1300669	n/a	LTP299	ltpFR2	3	n/a	n/a	n/a	18	14	8	4	2
2604.09	n/a	PROB	1302045	n/a	LTP299	ltpFR2	3	n/a	n/a	n/a	18	12	5	3	4
2606.176	n/a	PROB	1303088	n/a	LTP299	ltpFR2	3	n/a	n/a	n/a	18	19	8	9	2
2608.428	n/a	PROB	1304214	n/a	LTP299	ltpFR2	3	n/a	n/a	n/a	18	10	3	2	5
2609.998	n/a	STOP	1304999	n/a	LTP299	ltpFR2	3	n/a	n/a	n/a	18	n/a	n/a	n/a	n/a
2612.504	n/a	WORD	1306252	wordpools/wasnorm_wordpool_576.txt	LTP299	ltpFR2	3	12	ACTOR	5	n/a	n/a	0	0	0
2615.018	n/a	WORD	1307509	wordpools/wasnorm_wordpool_576.txt	LTP299	ltpFR2	3	12	PORTRAIT	1111	n/a	n/a	0	0	0
2617.808	n/a	WORD	1308904	wordpools/wasnorm_wordpool_576.txt	LTP299	ltpFR2	3	12	FLASK	576	n/a	n/a	0	0	0
2620.488	n/a	WORD	1310244	wordpools/wasnorm_wordpool_576.txt	LTP299	ltpFR2	3	12	BLENDER	136	n/a	n/a	0	0	0
2623.124	n/a	WORD	1311562	wordpools/wasnorm_wordpool_576.txt	LTP299	ltpFR2	3	12	AUTHOR	61	n/a	n/a	0	0	0
2625.86	n/a	WORD	1312930	wordpools/wasnorm_wordpool_576.txt	LTP299	ltpFR2	3	12	DAUGHTER	442	n/a	n/a	0	0	0
2628.428	n/a	WORD	1314214	wordpools/wasnorm_wordpool_576.txt	LTP299	ltpFR2	3	12	CLIMBER	323	n/a	n/a	0	0	0
2630.854	n/a	WORD	1315427	wordpools/wasnorm_wordpool_576.txt	LTP299	ltpFR2	3	12	BRICK	172	n/a	n/a	0	0	0
2633.28	n/a	WORD	1316640	wordpools/wasnorm_wordpool_576.txt	LTP299	ltpFR2	3	12	NOVEL	960	n/a	n/a	0	0	0
2635.774	n/a	WORD	1317887	wordpools/wasnorm_wordpool_576.txt	LTP299	ltpFR2	3	12	PASSAGE	1019	n/a	n/a	0	0	0
2638.476	n/a	WORD	1319238	wordpools/wasnorm_wordpool_576.txt	LTP299	ltpFR2	3	12	LODGE	839	n/a	n/a	0	0	0
2641.212	n/a	WORD	1320606	wordpools/wasnorm_wordpool_576.txt	LTP299	ltpFR2	3	12	ACTRESS	6	n/a	n/a	0	0	0
2643.914	n/a	WORD	1321957	wordpools/wasnorm_wordpool_576.txt	LTP299	ltpFR2	3	12	DENTIST	447	n/a	n/a	0	0	0
2646.55	n/a	WORD	1323275	wordpools/wasnorm_wordpool_576.txt	LTP299	ltpFR2	3	12	MOP	916	n/a	n/a	0	0	0
2649.068	n/a	WORD	1324534	wordpools/wasnorm_wordpool_576.txt	LTP299	ltpFR2	3	12	BRANCH	168	n/a	n/a	0	0	0
2651.512	n/a	WORD	1325756	wordpools/wasnorm_wordpool_576.txt	LTP299	ltpFR2	3	12	MATTRESS	879	n/a	n/a	0	0	0
2654.182	n/a	WORD	1327091	wordpools/wasnorm_wordpool_576.txt	LTP299	ltpFR2	3	12	SPONGE	1355	n/a	n/a	0	0	0
2656.776	n/a	WORD	1328388	wordpools/wasnorm_wordpool_576.txt	LTP299	ltpFR2	3	12	CAMEL	223	n/a	n/a	0	0	0
2659.536	n/a	WORD	1329768	wordpools/wasnorm_wordpool_576.txt	LTP299	ltpFR2	3	12	BEAST	108	n/a	n/a	0	0	0
2662.23	n/a	WORD	1331115	wordpools/wasnorm_wordpool_576.txt	LTP299	ltpFR2	3	12	EMPIRE	530	n/a	n/a	0	0	0
2664.806	n/a	WORD	1332403	wordpools/wasnorm_wordpool_576.txt	LTP299	ltpFR2	3	12	ARM	38	n/a	n/a	0	0	0
2667.626	n/a	WORD	1333813	wordpools/wasnorm_wordpool_576.txt	LTP299	ltpFR2	3	12	ELBOW	520	n/a	n/a	0	0	0
2670.404	n/a	WORD	1335202	wordpools/wasnorm_wordpool_576.txt	LTP299	ltpFR2	3	12	KEEPER	769	n/a	n/a	0	0	0
2672.856	n/a	WORD	1336428	wordpools/wasnorm_wordpool_576.txt	LTP299	ltpFR2	3	12	PRIMATE	1123	n/a	n/a	0	0	0
2674.464	n/a	START	1337232	n/a	LTP299	ltpFR2	3	n/a	n/a	n/a	19	n/a	n/a	n/a	n/a
2675.56	n/a	DISTRACTOR	1337780	n/a	LTP299	ltpFR2	3	12	n/a	n/a	n/a	n/a	0	0	0
2675.574	n/a	PROB	1337787	n/a	LTP299	ltpFR2	3	n/a	n/a	n/a	19	12	9	2	1
2677.434	n/a	PROB	1338717	n/a	LTP299	ltpFR2	3	n/a	n/a	n/a	19	19	1	9	9
2679.334	n/a	PROB	1339667	n/a	LTP299	ltpFR2	3	n/a	n/a	n/a	19	12	1	6	5
2682.352	n/a	PROB	1341176	n/a	LTP299	ltpFR2	3	n/a	n/a	n/a	19	14	5	3	6
2685.522	n/a	PROB	1342761	n/a	LTP299	ltpFR2	3	n/a	n/a	n/a	19	23	9	6	8
2689.492	n/a	PROB	1344746	n/a	LTP299	ltpFR2	3	n/a	n/a	n/a	19	15	9	5	1
2691.276	n/a	PROB	1345638	n/a	LTP299	ltpFR2	3	n/a	n/a	n/a	19	17	6	6	5
2693.662	n/a	PROB	1346831	n/a	LTP299	ltpFR2	3	n/a	n/a	n/a	19	17	7	3	7
2695.18	n/a	PROB	1347590	n/a	LTP299	ltpFR2	3	n/a	n/a	n/a	19	15	8	1	6
2696.666	n/a	PROB	1348333	n/a	LTP299	ltpFR2	3	n/a	n/a	n/a	19	10	1	7	2
2698.264	n/a	STOP	1349132	n/a	LTP299	ltpFR2	3	n/a	n/a	n/a	19	n/a	n/a	n/a	n/a
2700.252	n/a	REC_START	1350126	n/a	LTP299	ltpFR2	3	12	n/a	n/a	n/a	n/a	0	0	0
2703.23	n/a	REC_WORD	1351615	wordpools/wasnorm_wordpool_576.txt	LTP299	ltpFR2	3	12	BEAST	108	n/a	n/a	0	0	0
2704.314	n/a	REC_WORD	1352157	wordpools/wasnorm_wordpool_576.txt	LTP299	ltpFR2	3	12	EMPIRE	530	n/a	n/a	0	0	0
2705.49	n/a	REC_WORD	1352745	wordpools/wasnorm_wordpool_576.txt	LTP299	ltpFR2	3	12	PRIMATE	1123	n/a	n/a	0	0	0
2706.836	n/a	REC_WORD	1353418	wordpools/wasnorm_wordpool_576.txt	LTP299	ltpFR2	3	12	ARM	38	n/a	n/a	0	0	0
2708.53	n/a	REC_WORD	1354265	wordpools/wasnorm_wordpool_576.txt	LTP299	ltpFR2	3	12	ELBOW	520	n/a	n/a	0	0	0
2711.248	n/a	REC_WORD	1355624	wordpools/wasnorm_wordpool_576.txt	LTP299	ltpFR2	3	12	ACTOR	5	n/a	n/a	0	0	0
2713.064	n/a	REC_WORD	1356532	wordpools/wasnorm_wordpool_576.txt	LTP299	ltpFR2	3	12	ACTRESS	6	n/a	n/a	0	0	0
2715.926	n/a	REC_WORD	1357963	wordpools/wasnorm_wordpool_576.txt	LTP299	ltpFR2	3	12	MATTRESS	879	n/a	n/a	0	0	0
2718.77	n/a	REC_WORD	1359385	wordpools/wasnorm_wordpool_576.txt	LTP299	ltpFR2	3	12	PORTRAIT	1111	n/a	n/a	0	0	0
2721.244	n/a	REC_WORD	1360622	wordpools/wasnorm_wordpool_576.txt	LTP299	ltpFR2	3	12	AUTHOR	61	n/a	n/a	0	0	0
2723.7	n/a	REC_WORD	1361850	wordpools/wasnorm_wordpool_576.txt	LTP299	ltpFR2	3	12	DAUGHTER	442	n/a	n/a	0	0	0
2725.882	n/a	REC_WORD	1362941	wordpools/wasnorm_wordpool_576.txt	LTP299	ltpFR2	3	12	FLASK	576	n/a	n/a	0	0	0
2727.922	n/a	REC_WORD	1363961	wordpools/wasnorm_wordpool_576.txt	LTP299	ltpFR2	3	12	BLENDER	136	n/a	n/a	0	0	0
2731.188	n/a	REC_WORD	1365594	wordpools/wasnorm_wordpool_576.txt	LTP299	ltpFR2	3	12	NOVEL	960	n/a	n/a	0	0	0
2746.69	n/a	REC_WORD	1373345	wordpools/wasnorm_wordpool_576.txt	LTP299	ltpFR2	3	12	BRICK	172	n/a	n/a	0	0	0
2747.942	n/a	REC_WORD	1373971	wordpools/wasnorm_wordpool_576.txt	LTP299	ltpFR2	3	12	CLIMBER	323	n/a	n/a	0	0	0
2749.306	n/a	REC_WORD	1374653	wordpools/wasnorm_wordpool_576.txt	LTP299	ltpFR2	3	12	TUNNEL	1519	n/a	n/a	0	0	0
2750.598	n/a	REC_WORD	1375299	wordpools/wasnorm_wordpool_576.txt	LTP299	ltpFR2	3	12	LODGE	839	n/a	n/a	0	0	0
2790.708	n/a	DISTRACTOR	1395354	n/a	LTP299	ltpFR2	3	13	n/a	n/a	n/a	n/a	0	0	0
2790.708	n/a	START	1395354	n/a	LTP299	ltpFR2	3	n/a	n/a	n/a	20	n/a	n/a	n/a	n/a
2790.722	n/a	PROB	1395361	n/a	LTP299	ltpFR2	3	n/a	n/a	n/a	20	12	2	3	7
2792.724	n/a	PROB	1396362	n/a	LTP299	ltpFR2	3	n/a	n/a	n/a	20	21	9	4	8
2795.06	n/a	PROB	1397530	n/a	LTP299	ltpFR2	3	n/a	n/a	n/a	20	12	5	6	1
2797.292	n/a	PROB	1398646	n/a	LTP299	ltpFR2	3	n/a	n/a	n/a	20	1	2	8	5
2798.812	n/a	PROB	1399406	n/a	LTP299	ltpFR2	3	n/a	n/a	n/a	20	17	4	7	6
2804.816	n/a	PROB	1402408	n/a	LTP299	ltpFR2	3	n/a	n/a	n/a	20	15	5	1	9
2806.95	n/a	PROB	1403475	n/a	LTP299	ltpFR2	3	n/a	n/a	n/a	20	18	8	7	3
2808.336	n/a	PROB	1404168	n/a	LTP299	ltpFR2	3	n/a	n/a	n/a	20	9	3	2	4
2810.44	n/a	PROB	1405220	n/a	LTP299	ltpFR2	3	n/a	n/a	n/a	20	9	5	2	2
2814.708	n/a	STOP	1407354	n/a	LTP299	ltpFR2	3	n/a	n/a	n/a	20	n/a	n/a	n/a	n/a
2815.876	n/a	WORD	1407938	wordpools/wasnorm_wordpool_576.txt	LTP299	ltpFR2	3	13	YOLK	1633	n/a	n/a	0	0	0
2818.528	n/a	WORD	1409264	wordpools/wasnorm_wordpool_576.txt	LTP299	ltpFR2	3	13	SWIMMER	1420	n/a	n/a	0	0	0
2821.08	n/a	WORD	1410540	wordpools/wasnorm_wordpool_576.txt	LTP299	ltpFR2	3	13	SHIRT	1287	n/a	n/a	0	0	0
2823.866	n/a	WORD	1411933	wordpools/wasnorm_wordpool_576.txt	LTP299	ltpFR2	3	13	ICEBERG	731	n/a	n/a	0	0	0
2826.606	n/a	WORD	1413303	wordpools/wasnorm_wordpool_576.txt	LTP299	ltpFR2	3	13	SNAKE	1333	n/a	n/a	0	0	0
2829.254	n/a	WORD	1414627	wordpools/wasnorm_wordpool_576.txt	LTP299	ltpFR2	3	13	DIME	466	n/a	n/a	0	0	0
2831.86	n/a	WORD	1415930	wordpools/wasnorm_wordpool_576.txt	LTP299	ltpFR2	3	13	RECEIPT	1173	n/a	n/a	0	0	0
2834.31	n/a	WORD	1417155	wordpools/wasnorm_wordpool_576.txt	LTP299	ltpFR2	3	13	SHELF	1280	n/a	n/a	0	0	0
2837.11	n/a	WORD	1418555	wordpools/wasnorm_wordpool_576.txt	LTP299	ltpFR2	3	13	JOURNAL	760	n/a	n/a	0	0	0
2839.796	n/a	WORD	1419898	wordpools/wasnorm_wordpool_576.txt	LTP299	ltpFR2	3	13	JUGGLER	763	n/a	n/a	0	0	0
2842.38	n/a	WORD	1421190	wordpools/wasnorm_wordpool_576.txt	LTP299	ltpFR2	3	13	WOMAN	1620	n/a	n/a	0	0	0
2845.166	n/a	WORD	1422583	wordpools/wasnorm_wordpool_576.txt	LTP299	ltpFR2	3	13	VIRUS	1572	n/a	n/a	0	0	0
2847.836	n/a	WORD	1423918	wordpools/wasnorm_wordpool_576.txt	LTP299	ltpFR2	3	13	DENIM	446	n/a	n/a	0	0	0
2850.538	n/a	WORD	1425269	wordpools/wasnorm_wordpool_576.txt	LTP299	ltpFR2	3	13	PEBBLE	1035	n/a	n/a	0	0	0
2853.006	n/a	WORD	1426503	wordpools/wasnorm_wordpool_576.txt	LTP299	ltpFR2	3	13	BABY	64	n/a	n/a	0	0	0
2855.642	n/a	WORD	1427821	wordpools/wasnorm_wordpool_576.txt	LTP299	ltpFR2	3	13	BUGGY	188	n/a	n/a	0	0	0
2858.11	n/a	WORD	1429055	wordpools/wasnorm_wordpool_576.txt	LTP299	ltpFR2	3	13	POET	1095	n/a	n/a	0	0	0
2860.662	n/a	WORD	1430331	wordpools/wasnorm_wordpool_576.txt	LTP299	ltpFR2	3	13	COBRA	336	n/a	n/a	0	0	0
2863.22	n/a	WORD	1431610	wordpools/wasnorm_wordpool_576.txt	LTP299	ltpFR2	3	13	TURTLE	1522	n/a	n/a	0	0	0
2865.872	n/a	WORD	1432936	wordpools/wasnorm_wordpool_576.txt	LTP299	ltpFR2	3	13	MEDAL	885	n/a	n/a	0	0	0
2868.492	n/a	WORD	1434246	wordpools/wasnorm_wordpool_576.txt	LTP299	ltpFR2	3	13	GYMNAST	675	n/a	n/a	0	0	0
2871.31	n/a	WORD	1435655	wordpools/wasnorm_wordpool_576.txt	LTP299	ltpFR2	3	13	OFFICE	972	n/a	n/a	0	0	0
2873.938	n/a	WORD	1436969	wordpools/wasnorm_wordpool_576.txt	LTP299	ltpFR2	3	13	COIN	343	n/a	n/a	0	0	0
2876.408	n/a	WORD	1438204	wordpools/wasnorm_wordpool_576.txt	LTP299	ltpFR2	3	13	SLIDE	1326	n/a	n/a	0	0	0
2878.016	n/a	START	1439008	n/a	LTP299	ltpFR2	3	n/a	n/a	n/a	21	n/a	n/a	n/a	n/a
2878.912	n/a	DISTRACTOR	1439456	n/a	LTP299	ltpFR2	3	13	n/a	n/a	n/a	n/a	0	0	0
2878.916	n/a	PROB	1439458	n/a	LTP299	ltpFR2	3	n/a	n/a	n/a	21	17	4	8	5
2881.944	n/a	PROB	1440972	n/a	LTP299	ltpFR2	3	n/a	n/a	n/a	21	16	8	2	6
2884.13	n/a	PROB	1442065	n/a	LTP299	ltpFR2	3	n/a	n/a	n/a	21	19	5	8	6
2886.916	n/a	PROB	1443458	n/a	LTP299	ltpFR2	3	n/a	n/a	n/a	21	12	5	3	4
2891.82	n/a	PROB	1445910	n/a	LTP299	ltpFR2	3	n/a	n/a	n/a	21	14	2	5	7
2894.136	n/a	PROB	1447068	n/a	LTP299	ltpFR2	3	n/a	n/a	n/a	21	7	5	1	1
2896.006	n/a	PROB	1448003	n/a	LTP299	ltpFR2	3	n/a	n/a	n/a	21	18	1	9	8
2897.508	n/a	PROB	1448754	n/a	LTP299	ltpFR2	3	n/a	n/a	n/a	21	10	6	3	1
2899.092	n/a	PROB	1449546	n/a	LTP299	ltpFR2	3	n/a	n/a	n/a	21	13	3	8	2
2901.366	n/a	STOP	1450683	n/a	LTP299	ltpFR2	3	n/a	n/a	n/a	21	n/a	n/a	n/a	n/a
2903.962	n/a	REC_START	1451981	n/a	LTP299	ltpFR2	3	13	n/a	n/a	n/a	n/a	0	0	0
2910.88	n/a	REC_WORD	1455440	wordpools/wasnorm_wordpool_576.txt	LTP299	ltpFR2	3	13	TURTLE	1522	n/a	n/a	0	0	0
2912.788	n/a	REC_WORD	1456394	wordpools/wasnorm_wordpool_576.txt	LTP299	ltpFR2	3	13	COBRA	336	n/a	n/a	0	0	0
2916.226	n/a	REC_WORD	1458113	wordpools/wasnorm_wordpool_576.txt	LTP299	ltpFR2	3	13	SWIMMER	1420	n/a	n/a	0	0	0
2918.422	n/a	REC_WORD	1459211	wordpools/wasnorm_wordpool_576.txt	LTP299	ltpFR2	3	13	SHIRT	1287	n/a	n/a	0	0	0
2921.23	n/a	REC_WORD	1460615	wordpools/wasnorm_wordpool_576.txt	LTP299	ltpFR2	3	13	ICEBERG	731	n/a	n/a	0	0	0
2923.738	n/a	REC_WORD	1461869	wordpools/wasnorm_wordpool_576.txt	LTP299	ltpFR2	3	13	YOLK	1633	n/a	n/a	0	0	0
2925.414	n/a	REC_WORD	1462707	wordpools/wasnorm_wordpool_576.txt	LTP299	ltpFR2	3	13	SNAKE	1333	n/a	n/a	0	0	0
2930.258	n/a	REC_WORD	1465129	wordpools/wasnorm_wordpool_576.txt	LTP299	ltpFR2	3	13	RECEIPT	1173	n/a	n/a	0	0	0
2931.742	n/a	REC_WORD	1465871	wordpools/wasnorm_wordpool_576.txt	LTP299	ltpFR2	3	13	SHELF	1280	n/a	n/a	0	0	0
2933.504	n/a	REC_WORD	1466752	wordpools/wasnorm_wordpool_576.txt	LTP299	ltpFR2	3	13	JOURNAL	760	n/a	n/a	0	0	0
2948.75	n/a	REC_WORD	1474375	wordpools/wasnorm_wordpool_576.txt	LTP299	ltpFR2	3	13	GYMNAST	675	n/a	n/a	0	0	0
2950.724	n/a	REC_WORD	1475362	wordpools/wasnorm_wordpool_576.txt	LTP299	ltpFR2	3	13	COIN	343	n/a	n/a	0	0	0
2954.198	n/a	REC_WORD	1477099	wordpools/wasnorm_wordpool_576.txt	LTP299	ltpFR2	3	13	MEDAL	885	n/a	n/a	0	0	0
2994.434	n/a	WORD	1497217	wordpools/wasnorm_wordpool_576.txt	LTP299	ltpFR2	3	14	DRINK	498	n/a	n/a	0	0	0
2997.068	n/a	WORD	1498534	wordpools/wasnorm_wordpool_576.txt	LTP299	ltpFR2	3	14	PAIL	1002	n/a	n/a	0	0	0
2999.754	n/a	WORD	1499877	wordpools/wasnorm_wordpool_576.txt	LTP299	ltpFR2	3	14	WINDOW	1611	n/a	n/a	0	0	0
3002.206	n/a	WORD	1501103	wordpools/wasnorm_wordpool_576.txt	LTP299	ltpFR2	3	14	JEANS	752	n/a	n/a	0	0	0
3004.842	n/a	WORD	1502421	wordpools/wasnorm_wordpool_576.txt	LTP299	ltpFR2	3	14	SHORTS	1293	n/a	n/a	0	0	0
3007.328	n/a	WORD	1503664	wordpools/wasnorm_wordpool_576.txt	LTP299	ltpFR2	3	14	CASHIER	254	n/a	n/a	0	0	0
3009.83	n/a	WORD	1504915	wordpools/wasnorm_wordpool_576.txt	LTP299	ltpFR2	3	14	QUARTER	1148	n/a	n/a	0	0	0
3012.314	n/a	WORD	1506157	wordpools/wasnorm_wordpool_576.txt	LTP299	ltpFR2	3	14	REPORT	1184	n/a	n/a	0	0	0
3015.102	n/a	WORD	1507551	wordpools/wasnorm_wordpool_576.txt	LTP299	ltpFR2	3	14	CANDY	230	n/a	n/a	0	0	0
3017.62	n/a	WORD	1508810	wordpools/wasnorm_wordpool_576.txt	LTP299	ltpFR2	3	14	VIKING	1565	n/a	n/a	0	0	0
3020.19	n/a	WORD	1510095	wordpools/wasnorm_wordpool_576.txt	LTP299	ltpFR2	3	14	GARLIC	624	n/a	n/a	0	0	0
3022.874	n/a	WORD	1511437	wordpools/wasnorm_wordpool_576.txt	LTP299	ltpFR2	3	14	PLASTER	1085	n/a	n/a	0	0	0
3025.576	n/a	WORD	1512788	wordpools/wasnorm_wordpool_576.txt	LTP299	ltpFR2	3	14	LABEL	790	n/a	n/a	0	0	0
3028.378	n/a	WORD	1514189	wordpools/wasnorm_wordpool_576.txt	LTP299	ltpFR2	3	14	HAWK	692	n/a	n/a	0	0	0
3030.98	n/a	WORD	1515490	wordpools/wasnorm_wordpool_576.txt	LTP299	ltpFR2	3	14	ORANGE	980	n/a	n/a	0	0	0
3033.432	n/a	WORD	1516716	wordpools/wasnorm_wordpool_576.txt	LTP299	ltpFR2	3	14	SLUG	1329	n/a	n/a	0	0	0
3035.95	n/a	WORD	1517975	wordpools/wasnorm_wordpool_576.txt	LTP299	ltpFR2	3	14	PRINCE	1124	n/a	n/a	0	0	0
3038.42	n/a	WORD	1519210	wordpools/wasnorm_wordpool_576.txt	LTP299	ltpFR2	3	14	PALACE	1006	n/a	n/a	0	0	0
3040.856	n/a	WORD	1520428	wordpools/wasnorm_wordpool_576.txt	LTP299	ltpFR2	3	14	PEPPER	1047	n/a	n/a	0	0	0
3043.324	n/a	WORD	1521662	wordpools/wasnorm_wordpool_576.txt	LTP299	ltpFR2	3	14	COLLEGE	346	n/a	n/a	0	0	0
3045.876	n/a	WORD	1522938	wordpools/wasnorm_wordpool_576.txt	LTP299	ltpFR2	3	14	SHORTCAKE	1292	n/a	n/a	0	0	0
3048.628	n/a	WORD	1524314	wordpools/wasnorm_wordpool_576.txt	LTP299	ltpFR2	3	14	TART	1436	n/a	n/a	0	0	0
3051.278	n/a	WORD	1525639	wordpools/wasnorm_wordpool_576.txt	LTP299	ltpFR2	3	14	SURVEY	1414	n/a	n/a	0	0	0
3053.848	n/a	WORD	1526924	wordpools/wasnorm_wordpool_576.txt	LTP299	ltpFR2	3	14	SAUSAGE	1238	n/a	n/a	0	0	0
3055.454	n/a	START	1527727	n/a	LTP299	ltpFR2	3	n/a	n/a	n/a	22	n/a	n/a	n/a	n/a
3056.516	n/a	DISTRACTOR	1528258	n/a	LTP299	ltpFR2	3	14	n/a	n/a	n/a	n/a	0	0	0
3056.534	n/a	PROB	1528267	n/a	LTP299	ltpFR2	3	n/a	n/a	n/a	22	13	2	2	9
3060.418	n/a	PROB	1530209	n/a	LTP299	ltpFR2	3	n/a	n/a	n/a	22	18	8	9	1
3062.088	n/a	PROB	1531044	n/a	LTP299	ltpFR2	3	n/a	n/a	n/a	22	18	9	8	1
3063.804	n/a	PROB	1531902	n/a	LTP299	ltpFR2	3	n/a	n/a	n/a	22	15	2	5	8
3066.124	n/a	PROB	1533062	n/a	LTP299	ltpFR2	3	n/a	n/a	n/a	22	12	4	6	2
3067.86	n/a	PROB	1533930	n/a	LTP299	ltpFR2	3	n/a	n/a	n/a	22	19	9	8	2
3069.91	n/a	PROB	1534955	n/a	LTP299	ltpFR2	3	n/a	n/a	n/a	22	15	8	4	3
3072.078	n/a	PROB	1536039	n/a	LTP299	ltpFR2	3	n/a	n/a	n/a	22	12	4	4	4
3073.564	n/a	PROB	1536782	n/a	LTP299	ltpFR2	3	n/a	n/a	n/a	22	11	5	3	3
3075.314	n/a	PROB	1537657	n/a	LTP299	ltpFR2	3	n/a	n/a	n/a	22	18	8	5	5
3076.732	n/a	PROB	1538366	n/a	LTP299	ltpFR2	3	n/a	n/a	n/a	22	14	3	9	2
3078.74	n/a	STOP	1539370	n/a	LTP299	ltpFR2	3	n/a	n/a	n/a	22	n/a	n/a	n/a	n/a
3081.37	n/a	REC_START	1540685	n/a	LTP299	ltpFR2	3	14	n/a	n/a	n/a	n/a	0	0	0
3083.046	n/a	REC_WORD	1541523	wordpools/wasnorm_wordpool_576.txt	LTP299	ltpFR2	3	14	SURVEY	1414	n/a	n/a	0	0	0
3085.258	n/a	REC_WORD	1542629	wordpools/wasnorm_wordpool_576.txt	LTP299	ltpFR2	3	14	TART	1436	n/a	n/a	0	0	0
3089.036	n/a	REC_WORD	1544518	wordpools/wasnorm_wordpool_576.txt	LTP299	ltpFR2	3	14	PALACE	1006	n/a	n/a	0	0	0
3090.238	n/a	REC_WORD	1545119	wordpools/wasnorm_wordpool_576.txt	LTP299	ltpFR2	3	14	PEPPER	1047	n/a	n/a	0	0	0
3091.454	n/a	REC_WORD	1545727	wordpools/wasnorm_wordpool_576.txt	LTP299	ltpFR2	3	14	PRINCE	1124	n/a	n/a	0	0	0
3092.802	n/a	REC_WORD	1546401	wordpools/wasnorm_wordpool_576.txt	LTP299	ltpFR2	3	14	ORANGE	980	n/a	n/a	0	0	0
3093.846	n/a	REC_WORD	1546923	wordpools/wasnorm_wordpool_576.txt	LTP299	ltpFR2	3	14	SLUG	1329	n/a	n/a	0	0	0
3171.818	n/a	WORD	1585909	wordpools/wasnorm_wordpool_576.txt	LTP299	ltpFR2	3	15	BANKER	84	n/a	n/a	0	0	0
3174.522	n/a	WORD	1587261	wordpools/wasnorm_wordpool_576.txt	LTP299	ltpFR2	3	15	HIGHWAY	707	n/a	n/a	0	0	0
3177.278	n/a	WORD	1588639	wordpools/wasnorm_wordpool_576.txt	LTP299	ltpFR2	3	15	LEG	809	n/a	n/a	0	0	0
3179.782	n/a	WORD	1589891	wordpools/wasnorm_wordpool_576.txt	LTP299	ltpFR2	3	15	AIRPLANE	12	n/a	n/a	0	0	0
3182.468	n/a	WORD	1591234	wordpools/wasnorm_wordpool_576.txt	LTP299	ltpFR2	3	15	MARKET	871	n/a	n/a	0	0	0
3185.17	n/a	WORD	1592585	wordpools/wasnorm_wordpool_576.txt	LTP299	ltpFR2	3	15	DRIVER	499	n/a	n/a	0	0	0
3187.834	n/a	WORD	1593917	wordpools/wasnorm_wordpool_576.txt	LTP299	ltpFR2	3	15	SUITCASE	1403	n/a	n/a	0	0	0
3190.502	n/a	WORD	1595251	wordpools/wasnorm_wordpool_576.txt	LTP299	ltpFR2	3	15	BUTCHER	203	n/a	n/a	0	0	0
3193.126	n/a	WORD	1596563	wordpools/wasnorm_wordpool_576.txt	LTP299	ltpFR2	3	15	MUFFIN	929	n/a	n/a	0	0	0
3195.924	n/a	WORD	1597962	wordpools/wasnorm_wordpool_576.txt	LTP299	ltpFR2	3	15	CRUTCH	417	n/a	n/a	0	0	0
3198.596	n/a	WORD	1599298	wordpools/wasnorm_wordpool_576.txt	LTP299	ltpFR2	3	15	HOOD	714	n/a	n/a	0	0	0
3201.412	n/a	WORD	1600706	wordpools/wasnorm_wordpool_576.txt	LTP299	ltpFR2	3	15	KNIFE	785	n/a	n/a	0	0	0
3204.052	n/a	WORD	1602026	wordpools/wasnorm_wordpool_576.txt	LTP299	ltpFR2	3	15	HEADBAND	696	n/a	n/a	0	0	0
3206.566	n/a	WORD	1603283	wordpools/wasnorm_wordpool_576.txt	LTP299	ltpFR2	3	15	MILDEW	893	n/a	n/a	0	0	0
3209.068	n/a	WORD	1604534	wordpools/wasnorm_wordpool_576.txt	LTP299	ltpFR2	3	15	FUNGUS	614	n/a	n/a	0	0	0
3211.608	n/a	WORD	1605804	wordpools/wasnorm_wordpool_576.txt	LTP299	ltpFR2	3	15	SALAD	1224	n/a	n/a	0	0	0
3214.306	n/a	WORD	1607153	wordpools/wasnorm_wordpool_576.txt	LTP299	ltpFR2	3	15	CREATURE	403	n/a	n/a	0	0	0
3217.076	n/a	WORD	1608538	wordpools/wasnorm_wordpool_576.txt	LTP299	ltpFR2	3	15	POSTAGE	1113	n/a	n/a	0	0	0
3219.894	n/a	WORD	1609947	wordpools/wasnorm_wordpool_576.txt	LTP299	ltpFR2	3	15	PACKAGE	997	n/a	n/a	0	0	0
3222.564	n/a	WORD	1611282	wordpools/wasnorm_wordpool_576.txt	LTP299	ltpFR2	3	15	ITEM	746	n/a	n/a	0	0	0
3225.034	n/a	WORD	1612517	wordpools/wasnorm_wordpool_576.txt	LTP299	ltpFR2	3	15	PLIERS	1089	n/a	n/a	0	0	0
3227.718	n/a	WORD	1613859	wordpools/wasnorm_wordpool_576.txt	LTP299	ltpFR2	3	15	LEADER	807	n/a	n/a	0	0	0
3230.256	n/a	WORD	1615128	wordpools/wasnorm_wordpool_576.txt	LTP299	ltpFR2	3	15	BANK	83	n/a	n/a	0	0	0
3232.954	n/a	WORD	1616477	wordpools/wasnorm_wordpool_576.txt	LTP299	ltpFR2	3	15	WITNESS	1618	n/a	n/a	0	0	0
3234.574	n/a	START	1617287	n/a	LTP299	ltpFR2	3	n/a	n/a	n/a	23	n/a	n/a	n/a	n/a
3235.462	n/a	DISTRACTOR	1617731	n/a	LTP299	ltpFR2	3	15	n/a	n/a	n/a	n/a	0	0	0
3235.474	n/a	PROB	1617737	n/a	LTP299	ltpFR2	3	n/a	n/a	n/a	23	21	8	9	4
3241.048	n/a	PROB	1620524	n/a	LTP299	ltpFR2	3	n/a	n/a	n/a	23	20	6	8	6
3243.882	n/a	PROB	1621941	n/a	LTP299	ltpFR2	3	n/a	n/a	n/a	23	19	2	8	9
3247.834	n/a	PROB	1623917	n/a	LTP299	ltpFR2	3	n/a	n/a	n/a	23	15	1	7	7
3251.706	n/a	PROB	1625853	n/a	LTP299	ltpFR2	3	n/a	n/a	n/a	23	23	6	9	8
3254.44	n/a	PROB	1627220	n/a	LTP299	ltpFR2	3	n/a	n/a	n/a	23	14	6	1	7
3258.574	n/a	STOP	1629287	n/a	LTP299	ltpFR2	3	n/a	n/a	n/a	23	n/a	n/a	n/a	n/a
3260.514	n/a	REC_START	1630257	n/a	LTP299	ltpFR2	3	15	n/a	n/a	n/a	n/a	0	0	0
3263.764	n/a	REC_WORD	1631882	wordpools/wasnorm_wordpool_576.txt	LTP299	ltpFR2	3	15	BANK	83	n/a	n/a	0	0	0
3266.104	n/a	REC_WORD	1633052	wordpools/wasnorm_wordpool_576.txt	LTP299	ltpFR2	3	15	BANKER	84	n/a	n/a	0	0	0
3267.98	n/a	REC_WORD	1633990	wordpools/wasnorm_wordpool_576.txt	LTP299	ltpFR2	3	15	HIGHWAY	707	n/a	n/a	0	0	0
3270.738	n/a	REC_WORD	1635369	wordpools/wasnorm_wordpool_576.txt	LTP299	ltpFR2	3	15	AIRPLANE	12	n/a	n/a	0	0	0
3272.878	n/a	REC_WORD	1636439	wordpools/wasnorm_wordpool_576.txt	LTP299	ltpFR2	3	15	LEG	809	n/a	n/a	0	0	0
3277.428	n/a	REC_WORD	1638714	wordpools/wasnorm_wordpool_576.txt	LTP299	ltpFR2	3	15	CRUTCH	417	n/a	n/a	0	0	0
3280.014	n/a	REC_WORD	1640007	wordpools/wasnorm_wordpool_576.txt	LTP299	ltpFR2	3	15	POSTAGE	1113	n/a	n/a	0	0	0
3284.324	n/a	REC_WORD	1642162	wordpools/wasnorm_wordpool_576.txt	LTP299	ltpFR2	3	15	PACKAGE	997	n/a	n/a	0	0	0
3285.892	n/a	REC_WORD	1642946	wordpools/wasnorm_wordpool_576.txt	LTP299	ltpFR2	3	15	ITEM	746	n/a	n/a	0	0	0
3287.692	n/a	REC_WORD	1643846	wordpools/wasnorm_wordpool_576.txt	LTP299	ltpFR2	3	15	PLIERS	1089	n/a	n/a	0	0	0
3290.156	n/a	REC_WORD	1645078	wordpools/wasnorm_wordpool_576.txt	LTP299	ltpFR2	3	15	WITNESS	1618	n/a	n/a	0	0	0
3292.146	n/a	REC_WORD	1646073	wordpools/wasnorm_wordpool_576.txt	LTP299	ltpFR2	3	15	LEADER	807	n/a	n/a	0	0	0
3298.314	n/a	REC_WORD	1649157	wordpools/wasnorm_wordpool_576.txt	LTP299	ltpFR2	3	15	MILDEW	893	n/a	n/a	0	0	0
3299.724	n/a	REC_WORD	1649862	wordpools/wasnorm_wordpool_576.txt	LTP299	ltpFR2	3	15	FUNGUS	614	n/a	n/a	0	0	0
3301.1	n/a	REC_WORD	1650550	wordpools/wasnorm_wordpool_576.txt	LTP299	ltpFR2	3	15	SALAD	1224	n/a	n/a	0	0	0
3303.106	n/a	REC_WORD	1651553	wordpools/wasnorm_wordpool_576.txt	LTP299	ltpFR2	3	15	CREATURE	403	n/a	n/a	0	0	0
3350.95	n/a	WORD	1675475	wordpools/wasnorm_wordpool_576.txt	LTP299	ltpFR2	3	16	STAKE	1368	n/a	n/a	0	0	0
3353.726	n/a	WORD	1676863	wordpools/wasnorm_wordpool_576.txt	LTP299	ltpFR2	3	16	COUNTRY	388	n/a	n/a	0	0	0
3356.522	n/a	WORD	1678261	wordpools/wasnorm_wordpool_576.txt	LTP299	ltpFR2	3	16	TRENCH	1503	n/a	n/a	0	0	0
3359.124	n/a	WORD	1679562	wordpools/wasnorm_wordpool_576.txt	LTP299	ltpFR2	3	16	CRATER	400	n/a	n/a	0	0	0
3361.692	n/a	WORD	1680846	wordpools/wasnorm_wordpool_576.txt	LTP299	ltpFR2	3	16	PATIENT	1024	n/a	n/a	0	0	0
3364.362	n/a	WORD	1682181	wordpools/wasnorm_wordpool_576.txt	LTP299	ltpFR2	3	16	TURKEY	1520	n/a	n/a	0	0	0
3367.072	n/a	WORD	1683536	wordpools/wasnorm_wordpool_576.txt	LTP299	ltpFR2	3	16	LONDON	843	n/a	n/a	0	0	0
3369.816	n/a	WORD	1684908	wordpools/wasnorm_wordpool_576.txt	LTP299	ltpFR2	3	16	MISTER	901	n/a	n/a	0	0	0
3372.534	n/a	WORD	1686267	wordpools/wasnorm_wordpool_576.txt	LTP299	ltpFR2	3	16	PICTURE	1061	n/a	n/a	0	0	0
3375.136	n/a	WORD	1687568	wordpools/wasnorm_wordpool_576.txt	LTP299	ltpFR2	3	16	FILM	565	n/a	n/a	0	0	0
3377.59	n/a	WORD	1688795	wordpools/wasnorm_wordpool_576.txt	LTP299	ltpFR2	3	16	GHETTO	633	n/a	n/a	0	0	0
3380.15	n/a	WORD	1690075	wordpools/wasnorm_wordpool_576.txt	LTP299	ltpFR2	3	16	FRUIT	610	n/a	n/a	0	0	0
3382.786	n/a	WORD	1691393	wordpools/wasnorm_wordpool_576.txt	LTP299	ltpFR2	3	16	BANJO	82	n/a	n/a	0	0	0
3385.338	n/a	WORD	1692669	wordpools/wasnorm_wordpool_576.txt	LTP299	ltpFR2	3	16	NURSE	963	n/a	n/a	0	0	0
3387.814	n/a	WORD	1693907	wordpools/wasnorm_wordpool_576.txt	LTP299	ltpFR2	3	16	HAND	683	n/a	n/a	0	0	0
3390.398	n/a	WORD	1695199	wordpools/wasnorm_wordpool_576.txt	LTP299	ltpFR2	3	16	FOX	598	n/a	n/a	0	0	0
3393.01	n/a	WORD	1696505	wordpools/wasnorm_wordpool_576.txt	LTP299	ltpFR2	3	16	RIVER	1194	n/a	n/a	0	0	0
3395.552	n/a	WORD	1697776	wordpools/wasnorm_wordpool_576.txt	LTP299	ltpFR2	3	16	SHOULDER	1294	n/a	n/a	0	0	0
3398.066	n/a	WORD	1699033	wordpools/wasnorm_wordpool_576.txt	LTP299	ltpFR2	3	16	VICTIM	1562	n/a	n/a	0	0	0
3400.69	n/a	WORD	1700345	wordpools/wasnorm_wordpool_576.txt	LTP299	ltpFR2	3	16	SLOPE	1328	n/a	n/a	0	0	0
3403.22	n/a	WORD	1701610	wordpools/wasnorm_wordpool_576.txt	LTP299	ltpFR2	3	16	SUMMIT	1405	n/a	n/a	0	0	0
3405.94	n/a	WORD	1702970	wordpools/wasnorm_wordpool_576.txt	LTP299	ltpFR2	3	16	BLACKBOARD	133	n/a	n/a	0	0	0
3408.38	n/a	WORD	1704190	wordpools/wasnorm_wordpool_576.txt	LTP299	ltpFR2	3	16	SPIDER	1351	n/a	n/a	0	0	0
3410.842	n/a	WORD	1705421	wordpools/wasnorm_wordpool_576.txt	LTP299	ltpFR2	3	16	BUG	187	n/a	n/a	0	0	0
3412.45	n/a	START	1706225	n/a	LTP299	ltpFR2	3	n/a	n/a	n/a	24	n/a	n/a	n/a	n/a
3413.294	n/a	DISTRACTOR	1706647	n/a	LTP299	ltpFR2	3	16	n/a	n/a	n/a	n/a	0	0	0
3413.3	n/a	PROB	1706650	n/a	LTP299	ltpFR2	3	n/a	n/a	n/a	24	18	6	6	6
3414.884	n/a	PROB	1707442	n/a	LTP299	ltpFR2	3	n/a	n/a	n/a	24	16	7	4	5
3417.102	n/a	PROB	1708551	n/a	LTP299	ltpFR2	3	n/a	n/a	n/a	24	14	8	2	4
3418.704	n/a	PROB	1709352	n/a	LTP299	ltpFR2	3	n/a	n/a	n/a	24	15	2	5	8
3420.738	n/a	PROB	1710369	n/a	LTP299	ltpFR2	3	n/a	n/a	n/a	24	10	2	2	6
3422.322	n/a	PROB	1711161	n/a	LTP299	ltpFR2	3	n/a	n/a	n/a	24	20	6	8	6
3424.192	n/a	PROB	1712096	n/a	LTP299	ltpFR2	3	n/a	n/a	n/a	24	13	6	2	5
3426.16	n/a	PROB	1713080	n/a	LTP299	ltpFR2	3	n/a	n/a	n/a	24	16	3	8	5
3428.496	n/a	PROB	1714248	n/a	LTP299	ltpFR2	3	n/a	n/a	n/a	24	5	2	2	1
3429.696	n/a	PROB	1714848	n/a	LTP299	ltpFR2	3	n/a	n/a	n/a	24	20	8	6	6
3431.716	n/a	PROB	1715858	n/a	LTP299	ltpFR2	3	n/a	n/a	n/a	24	15	5	5	5
3432.932	n/a	PROB	1716466	n/a	LTP299	ltpFR2	3	n/a	n/a	n/a	24	20	9	7	4
3435.84	n/a	STOP	1717920	n/a	LTP299	ltpFR2	3	n/a	n/a	n/a	24	n/a	n/a	n/a	n/a
3438.272	n/a	REC_START	1719136	n/a	LTP299	ltpFR2	3	16	n/a	n/a	n/a	n/a	0	0	0
3439.812	n/a	REC_WORD	1719906	wordpools/wasnorm_wordpool_576.txt	LTP299	ltpFR2	3	16	BLACKBOARD	133	n/a	n/a	0	0	0
3441.482	n/a	REC_WORD	1720741	wordpools/wasnorm_wordpool_576.txt	LTP299	ltpFR2	3	16	SPIDER	1351	n/a	n/a	0	0	0
3443.098	n/a	REC_WORD	1721549	wordpools/wasnorm_wordpool_576.txt	LTP299	ltpFR2	3	16	BUG	187	n/a	n/a	0	0	0
3444.442	n/a	REC_WORD	1722221	wordpools/wasnorm_wordpool_576.txt	LTP299	ltpFR2	3	16	SUMMIT	1405	n/a	n/a	0	0	0
3446.1	n/a	REC_WORD	1723050	wordpools/wasnorm_wordpool_576.txt	LTP299	ltpFR2	3	16	FOX	598	n/a	n/a	0	0	0
3451.524	n/a	REC_WORD	1725762	wordpools/wasnorm_wordpool_576.txt	LTP299	ltpFR2	3	16	GHETTO	633	n/a	n/a	0	0	0
3453.122	n/a	REC_WORD	1726561	wordpools/wasnorm_wordpool_576.txt	LTP299	ltpFR2	3	16	LONDON	843	n/a	n/a	0	0	0
3514.814	n/a	REST_REWET	1757407	n/a	LTP299	ltpFR2	3	16	n/a	n/a	n/a	n/a	0	0	0
3712.336	n/a	WORD	1856168	wordpools/wasnorm_wordpool_576.txt	LTP299	ltpFR2	3	17	STOMACH	1384	n/a	n/a	0	0	0
3715.104	n/a	WORD	1857552	wordpools/wasnorm_wordpool_576.txt	LTP299	ltpFR2	3	17	PARROT	1015	n/a	n/a	0	0	0
3717.556	n/a	WORD	1858778	wordpools/wasnorm_wordpool_576.txt	LTP299	ltpFR2	3	17	MARINE	869	n/a	n/a	0	0	0
3720.142	n/a	WORD	1860071	wordpools/wasnorm_wordpool_576.txt	LTP299	ltpFR2	3	17	LAGOON	795	n/a	n/a	0	0	0
3722.896	n/a	WORD	1861448	wordpools/wasnorm_wordpool_576.txt	LTP299	ltpFR2	3	17	CYCLONE	431	n/a	n/a	0	0	0
3725.448	n/a	WORD	1862724	wordpools/wasnorm_wordpool_576.txt	LTP299	ltpFR2	3	17	MESSAGE	888	n/a	n/a	0	0	0
3727.9	n/a	WORD	1863950	wordpools/wasnorm_wordpool_576.txt	LTP299	ltpFR2	3	17	HUSBAND	728	n/a	n/a	0	0	0
3730.402	n/a	WORD	1865201	wordpools/wasnorm_wordpool_576.txt	LTP299	ltpFR2	3	17	PUDDLE	1140	n/a	n/a	0	0	0
3733.004	n/a	WORD	1866502	wordpools/wasnorm_wordpool_576.txt	LTP299	ltpFR2	3	17	CASHEW	253	n/a	n/a	0	0	0
3735.672	n/a	WORD	1867836	wordpools/wasnorm_wordpool_576.txt	LTP299	ltpFR2	3	17	OUTDOORS	987	n/a	n/a	0	0	0
3738.458	n/a	WORD	1869229	wordpools/wasnorm_wordpool_576.txt	LTP299	ltpFR2	3	17	FOREST	593	n/a	n/a	0	0	0
3740.91	n/a	WORD	1870455	wordpools/wasnorm_wordpool_576.txt	LTP299	ltpFR2	3	17	DONOR	485	n/a	n/a	0	0	0
3743.628	n/a	WORD	1871814	wordpools/wasnorm_wordpool_576.txt	LTP299	ltpFR2	3	17	UMPIRE	1535	n/a	n/a	0	0	0
3746.298	n/a	WORD	1873149	wordpools/wasnorm_wordpool_576.txt	LTP299	ltpFR2	3	17	FOOTBALL	591	n/a	n/a	0	0	0
3748.816	n/a	WORD	1874408	wordpools/wasnorm_wordpool_576.txt	LTP299	ltpFR2	3	17	COMPASS	358	n/a	n/a	0	0	0
3751.568	n/a	WORD	1875784	wordpools/wasnorm_wordpool_576.txt	LTP299	ltpFR2	3	17	WHISKERS	1605	n/a	n/a	0	0	0
3754.304	n/a	WORD	1877152	wordpools/wasnorm_wordpool_576.txt	LTP299	ltpFR2	3	17	WRENCH	1625	n/a	n/a	0	0	0
3756.974	n/a	WORD	1878487	wordpools/wasnorm_wordpool_576.txt	LTP299	ltpFR2	3	17	HEART	697	n/a	n/a	0	0	0
3759.492	n/a	WORD	1879746	wordpools/wasnorm_wordpool_576.txt	LTP299	ltpFR2	3	17	ROOSTER	1209	n/a	n/a	0	0	0
3762.16	n/a	WORD	1881080	wordpools/wasnorm_wordpool_576.txt	LTP299	ltpFR2	3	17	YARN	1631	n/a	n/a	0	0	0
3764.946	n/a	WORD	1882473	wordpools/wasnorm_wordpool_576.txt	LTP299	ltpFR2	3	17	ULCER	1533	n/a	n/a	0	0	0
3767.448	n/a	WORD	1883724	wordpools/wasnorm_wordpool_576.txt	LTP299	ltpFR2	3	17	JELLY	755	n/a	n/a	0	0	0
3770.066	n/a	WORD	1885033	wordpools/wasnorm_wordpool_576.txt	LTP299	ltpFR2	3	17	MACHINE	852	n/a	n/a	0	0	0
3772.686	n/a	WORD	1886343	wordpools/wasnorm_wordpool_576.txt	LTP299	ltpFR2	3	17	GRILL	661	n/a	n/a	0	0	0
3774.304	n/a	START	1887152	n/a	LTP299	ltpFR2	3	n/a	n/a	n/a	25	n/a	n/a	n/a	n/a
3775.212	n/a	DISTRACTOR	1887606	n/a	LTP299	ltpFR2	3	17	n/a	n/a	n/a	n/a	0	0	0
3775.22	n/a	PROB	1887610	n/a	LTP299	ltpFR2	3	n/a	n/a	n/a	25	12	3	6	3
3778.522	n/a	PROB	1889261	n/a	LTP299	ltpFR2	3	n/a	n/a	n/a	25	11	4	6	1
3780.008	n/a	PROB	1890004	n/a	LTP299	ltpFR2	3	n/a	n/a	n/a	25	20	2	9	9
3782.242	n/a	PROB	1891121	n/a	LTP299	ltpFR2	3	n/a	n/a	n/a	25	9	1	3	5
3783.892	n/a	PROB	1891946	n/a	LTP299	ltpFR2	3	n/a	n/a	n/a	25	21	7	5	9
3788.132	n/a	PROB	1894066	n/a	LTP299	ltpFR2	3	n/a	n/a	n/a	25	18	7	3	8
3790.8	n/a	PROB	1895400	n/a	LTP299	ltpFR2	3	n/a	n/a	n/a	25	12	3	8	1
3793.636	n/a	PROB	1896818	n/a	LTP299	ltpFR2	3	n/a	n/a	n/a	25	12	4	3	4
3795.786	n/a	PROB	1897893	n/a	LTP299	ltpFR2	3	n/a	n/a	n/a	25	17	8	1	8
3797.97	n/a	STOP	1898985	n/a	LTP299	ltpFR2	3	n/a	n/a	n/a	25	n/a	n/a	n/a	n/a
3800.192	n/a	REC_START	1900096	n/a	LTP299	ltpFR2	3	17	n/a	n/a	n/a	n/a	0	0	0
3801.512	n/a	REC_WORD	1900756	wordpools/wasnorm_wordpool_576.txt	LTP299	ltpFR2	3	17	STOMACH	1384	n/a	n/a	0	0	0
3804.808	n/a	REC_WORD	1902404	wordpools/wasnorm_wordpool_576.txt	LTP299	ltpFR2	3	17	MARINE	869	n/a	n/a	0	0	0
3806.442	n/a	REC_WORD	1903221	wordpools/wasnorm_wordpool_576.txt	LTP299	ltpFR2	3	17	PARROT	1015	n/a	n/a	0	0	0
3807.872	n/a	REC_WORD	1903936	wordpools/wasnorm_wordpool_576.txt	LTP299	ltpFR2	3	17	LAGOON	795	n/a	n/a	0	0	0
3809.748	n/a	REC_WORD	1904874	wordpools/wasnorm_wordpool_576.txt	LTP299	ltpFR2	3	17	PUDDLE	1140	n/a	n/a	0	0	0
3811.46	n/a	REC_WORD	1905730	wordpools/wasnorm_wordpool_576.txt	LTP299	ltpFR2	3	17	COMPASS	358	n/a	n/a	0	0	0
3813.2	n/a	REC_WORD	1906600	wordpools/wasnorm_wordpool_576.txt	LTP299	ltpFR2	3	17	MESSAGE	888	n/a	n/a	0	0	0
3814.97	n/a	REC_WORD	1907485	wordpools/wasnorm_wordpool_576.txt	LTP299	ltpFR2	3	17	CYCLONE	431	n/a	n/a	0	0	0
3819.202	n/a	REC_WORD	1909601	wordpools/wasnorm_wordpool_576.txt	LTP299	ltpFR2	3	17	WHISKERS	1605	n/a	n/a	0	0	0
3835.672	n/a	REC_WORD	1917836	wordpools/wasnorm_wordpool_576.txt	LTP299	ltpFR2	3	17	UMPIRE	1535	n/a	n/a	0	0	0
3836.94	n/a	REC_WORD	1918470	wordpools/wasnorm_wordpool_576.txt	LTP299	ltpFR2	3	17	FOOTBALL	591	n/a	n/a	0	0	0
3856.0	n/a	REC_WORD	1928000	wordpools/wasnorm_wordpool_576.txt	LTP299	ltpFR2	3	17	HEART	697	n/a	n/a	0	0	0
3890.614	n/a	DISTRACTOR	1945307	n/a	LTP299	ltpFR2	3	18	n/a	n/a	n/a	n/a	0	0	0
3890.614	n/a	START	1945307	n/a	LTP299	ltpFR2	3	n/a	n/a	n/a	26	n/a	n/a	n/a	n/a
3890.628	n/a	PROB	1945314	n/a	LTP299	ltpFR2	3	n/a	n/a	n/a	26	13	3	3	7
3892.396	n/a	PROB	1946198	n/a	LTP299	ltpFR2	3	n/a	n/a	n/a	26	19	9	7	3
3893.948	n/a	PROB	1946974	n/a	LTP299	ltpFR2	3	n/a	n/a	n/a	26	9	4	1	4
3895.816	n/a	PROB	1947908	n/a	LTP299	ltpFR2	3	n/a	n/a	n/a	26	14	2	9	3
3897.934	n/a	PROB	1948967	n/a	LTP299	ltpFR2	3	n/a	n/a	n/a	26	9	3	4	2
3899.952	n/a	PROB	1949976	n/a	LTP299	ltpFR2	3	n/a	n/a	n/a	26	24	7	8	9
3902.57	n/a	PROB	1951285	n/a	LTP299	ltpFR2	3	n/a	n/a	n/a	26	17	9	3	5
3907.324	n/a	PROB	1953662	n/a	LTP299	ltpFR2	3	n/a	n/a	n/a	26	9	5	3	1
3909.06	n/a	PROB	1954530	n/a	LTP299	ltpFR2	3	n/a	n/a	n/a	26	8	2	1	5
3911.228	n/a	PROB	1955614	n/a	LTP299	ltpFR2	3	n/a	n/a	n/a	26	21	8	9	4
3914.3	n/a	STOP	1957150	n/a	LTP299	ltpFR2	3	n/a	n/a	n/a	26	n/a	n/a	n/a	n/a
3915.762	n/a	WORD	1957881	wordpools/wasnorm_wordpool_576.txt	LTP299	ltpFR2	3	18	SCALLOP	1242	n/a	n/a	0	0	0
3918.464	n/a	WORD	1959232	wordpools/wasnorm_wordpool_576.txt	LTP299	ltpFR2	3	18	CABBAGE	210	n/a	n/a	0	0	0
3921.0	n/a	WORD	1960500	wordpools/wasnorm_wordpool_576.txt	LTP299	ltpFR2	3	18	BUNNY	198	n/a	n/a	0	0	0
3923.702	n/a	WORD	1961851	wordpools/wasnorm_wordpool_576.txt	LTP299	ltpFR2	3	18	TOURIST	1488	n/a	n/a	0	0	0
3926.358	n/a	WORD	1963179	wordpools/wasnorm_wordpool_576.txt	LTP299	ltpFR2	3	18	INMATE	738	n/a	n/a	0	0	0
3929.072	n/a	WORD	1964536	wordpools/wasnorm_wordpool_576.txt	LTP299	ltpFR2	3	18	CHEST	295	n/a	n/a	0	0	0
3931.692	n/a	WORD	1965846	wordpools/wasnorm_wordpool_576.txt	LTP299	ltpFR2	3	18	ROBBER	1197	n/a	n/a	0	0	0
3934.378	n/a	WORD	1967189	wordpools/wasnorm_wordpool_576.txt	LTP299	ltpFR2	3	18	KITCHEN	778	n/a	n/a	0	0	0
3936.846	n/a	WORD	1968423	wordpools/wasnorm_wordpool_576.txt	LTP299	ltpFR2	3	18	OYSTER	995	n/a	n/a	0	0	0
3939.346	n/a	WORD	1969673	wordpools/wasnorm_wordpool_576.txt	LTP299	ltpFR2	3	18	LAPEL	800	n/a	n/a	0	0	0
3941.884	n/a	WORD	1970942	wordpools/wasnorm_wordpool_576.txt	LTP299	ltpFR2	3	18	BLOUSE	139	n/a	n/a	0	0	0
3944.636	n/a	WORD	1972318	wordpools/wasnorm_wordpool_576.txt	LTP299	ltpFR2	3	18	SADDLE	1221	n/a	n/a	0	0	0
3947.222	n/a	WORD	1973611	wordpools/wasnorm_wordpool_576.txt	LTP299	ltpFR2	3	18	WAGON	1578	n/a	n/a	0	0	0
3950.058	n/a	WORD	1975029	wordpools/wasnorm_wordpool_576.txt	LTP299	ltpFR2	3	18	PARSLEY	1016	n/a	n/a	0	0	0
3952.878	n/a	WORD	1976439	wordpools/wasnorm_wordpool_576.txt	LTP299	ltpFR2	3	18	BATHTUB	100	n/a	n/a	0	0	0
3955.546	n/a	WORD	1977773	wordpools/wasnorm_wordpool_576.txt	LTP299	ltpFR2	3	18	DUSTPAN	509	n/a	n/a	0	0	0
3958.098	n/a	WORD	1979049	wordpools/wasnorm_wordpool_576.txt	LTP299	ltpFR2	3	18	MOTOR	922	n/a	n/a	0	0	0
3960.766	n/a	WORD	1980383	wordpools/wasnorm_wordpool_576.txt	LTP299	ltpFR2	3	18	HORNET	718	n/a	n/a	0	0	0
3963.252	n/a	WORD	1981626	wordpools/wasnorm_wordpool_576.txt	LTP299	ltpFR2	3	18	DRAGON	492	n/a	n/a	0	0	0
3965.838	n/a	WORD	1982919	wordpools/wasnorm_wordpool_576.txt	LTP299	ltpFR2	3	18	TOASTER	1472	n/a	n/a	0	0	0
3968.44	n/a	WORD	1984220	wordpools/wasnorm_wordpool_576.txt	LTP299	ltpFR2	3	18	JURY	766	n/a	n/a	0	0	0
3970.958	n/a	WORD	1985479	wordpools/wasnorm_wordpool_576.txt	LTP299	ltpFR2	3	18	ROBIN	1199	n/a	n/a	0	0	0
3973.644	n/a	WORD	1986822	wordpools/wasnorm_wordpool_576.txt	LTP299	ltpFR2	3	18	SCOTCH	1251	n/a	n/a	0	0	0
3976.096	n/a	WORD	1988048	wordpools/wasnorm_wordpool_576.txt	LTP299	ltpFR2	3	18	PILOT	1070	n/a	n/a	0	0	0
3977.716	n/a	START	1988858	n/a	LTP299	ltpFR2	3	n/a	n/a	n/a	27	n/a	n/a	n/a	n/a
3978.522	n/a	DISTRACTOR	1989261	n/a	LTP299	ltpFR2	3	18	n/a	n/a	n/a	n/a	0	0	0
3978.532	n/a	PROB	1989266	n/a	LTP299	ltpFR2	3	n/a	n/a	n/a	27	16	6	1	9
3982.568	n/a	PROB	1991284	n/a	LTP299	ltpFR2	3	n/a	n/a	n/a	27	10	8	1	1
3984.002	n/a	PROB	1992001	n/a	LTP299	ltpFR2	3	n/a	n/a	n/a	27	14	4	2	8
3986.456	n/a	PROB	1993228	n/a	LTP299	ltpFR2	3	n/a	n/a	n/a	27	22	9	5	8
3989.924	n/a	PROB	1994962	n/a	LTP299	ltpFR2	3	n/a	n/a	n/a	27	18	8	9	1
3991.34	n/a	PROB	1995670	n/a	LTP299	ltpFR2	3	n/a	n/a	n/a	27	19	7	7	5
3992.944	n/a	PROB	1996472	n/a	LTP299	ltpFR2	3	n/a	n/a	n/a	27	19	9	4	6
3994.628	n/a	PROB	1997314	n/a	LTP299	ltpFR2	3	n/a	n/a	n/a	27	17	7	1	9
3996.946	n/a	PROB	1998473	n/a	LTP299	ltpFR2	3	n/a	n/a	n/a	27	21	6	9	6
4001.716	n/a	STOP	2000858	n/a	LTP299	ltpFR2	3	n/a	n/a	n/a	27	n/a	n/a	n/a	n/a
4003.552	n/a	REC_START	2001776	n/a	LTP299	ltpFR2	3	18	n/a	n/a	n/a	n/a	0	0	0
4006.582	n/a	REC_WORD	2003291	wordpools/wasnorm_wordpool_576.txt	LTP299	ltpFR2	3	18	DUSTPAN	509	n/a	n/a	0	0	0
4008.314	n/a	REC_WORD	2004157	wordpools/wasnorm_wordpool_576.txt	LTP299	ltpFR2	3	18	PILOT	1070	n/a	n/a	0	0	0
4012.478	n/a	REC_WORD	2006239	wordpools/wasnorm_wordpool_576.txt	LTP299	ltpFR2	3	18	SCALLOP	1242	n/a	n/a	0	0	0
4015.156	n/a	REC_WORD	2007578	wordpools/wasnorm_wordpool_576.txt	LTP299	ltpFR2	3	18	OYSTER	995	n/a	n/a	0	0	0
4016.924	n/a	REC_WORD	2008462	wordpools/wasnorm_wordpool_576.txt	LTP299	ltpFR2	3	18	BATHTUB	100	n/a	n/a	0	0	0
4019.352	n/a	REC_WORD	2009676	wordpools/wasnorm_wordpool_576.txt	LTP299	ltpFR2	3	18	KITCHEN	778	n/a	n/a	0	0	0
4031.332	n/a	REC_WORD	2015666	wordpools/wasnorm_wordpool_576.txt	LTP299	ltpFR2	3	18	BUNNY	198	n/a	n/a	0	0	0
4047.054	n/a	REC_WORD	2023527	wordpools/wasnorm_wordpool_576.txt	LTP299	ltpFR2	3	18	DRAGON	492	n/a	n/a	0	0	0
4048.654	n/a	REC_WORD	2024327	wordpools/wasnorm_wordpool_576.txt	LTP299	ltpFR2	3	18	HORNET	718	n/a	n/a	0	0	0
4094.006	n/a	WORD	2047003	wordpools/wasnorm_wordpool_576.txt	LTP299	ltpFR2	3	19	JELLO	754	n/a	n/a	0	0	0
4096.81	n/a	WORD	2048405	wordpools/wasnorm_wordpool_576.txt	LTP299	ltpFR2	3	19	PLAZA	1088	n/a	n/a	0	0	0
4099.378	n/a	WORD	2049689	wordpools/wasnorm_wordpool_576.txt	LTP299	ltpFR2	3	19	SWITCH	1422	n/a	n/a	0	0	0
4101.838	n/a	WORD	2050919	wordpools/wasnorm_wordpool_576.txt	LTP299	ltpFR2	3	19	LAMP	798	n/a	n/a	0	0	0
4104.608	n/a	WORD	2052304	wordpools/wasnorm_wordpool_576.txt	LTP299	ltpFR2	3	19	SWORD	1423	n/a	n/a	0	0	0
4107.21	n/a	WORD	2053605	wordpools/wasnorm_wordpool_576.txt	LTP299	ltpFR2	3	19	STUDENT	1395	n/a	n/a	0	0	0
4109.87	n/a	WORD	2054935	wordpools/wasnorm_wordpool_576.txt	LTP299	ltpFR2	3	19	MEAT	883	n/a	n/a	0	0	0
4112.422	n/a	WORD	2056211	wordpools/wasnorm_wordpool_576.txt	LTP299	ltpFR2	3	19	PISTOL	1075	n/a	n/a	0	0	0
