onset	duration	trial_type	sample	stim_file	subject	experiment	session	trial	item_name	item_num	list	answer	test_x	test_y	test_z
264.754	n/a	SESS_START	132377	n/a	LTP278	ltpFR2	3	n/a	n/a	n/a	n/a	n/a	0	0	0
287.046	n/a	START	143523	n/a	LTP278	ltpFR2	3	n/a	n/a	n/a	-1	n/a	n/a	n/a	n/a
287.096	n/a	PROB	143548	n/a	LTP278	ltpFR2	3	n/a	n/a	n/a	-1	19	3	8	8
289.456	n/a	PROB	144728	n/a	LTP278	ltpFR2	3	n/a	n/a	n/a	-1	9	5	3	1
291.764	n/a	PROB	145882	n/a	LTP278	ltpFR2	3	n/a	n/a	n/a	-1	11	5	1	5
292.92	n/a	PROB	146460	n/a	LTP278	ltpFR2	3	n/a	n/a	n/a	-1	19	9	7	3
294.158	n/a	PROB	147079	n/a	LTP278	ltpFR2	3	n/a	n/a	n/a	-1	25	8	8	7
295.78	n/a	PROB	147890	n/a	LTP278	ltpFR2	3	n/a	n/a	n/a	-1	13	2	4	7
297.52	n/a	PROB	148760	n/a	LTP278	ltpFR2	3	n/a	n/a	n/a	-1	14	8	5	1
298.994	n/a	STOP	149497	n/a	LTP278	ltpFR2	3	n/a	n/a	n/a	-1	n/a	n/a	n/a	n/a
332.938	n/a	WORD	166469	wordpools/wasnorm_wordpool_576.txt	LTP278	ltpFR2	3	1	POSSUM	1112	n/a	n/a	0	0	0
335.548	n/a	WORD	167774	wordpools/wasnorm_wordpool_576.txt	LTP278	ltpFR2	3	1	MACHINE	852	n/a	n/a	0	0	0
338.058	n/a	WORD	169029	wordpools/wasnorm_wordpool_576.txt	LTP278	ltpFR2	3	1	THRONE	1461	n/a	n/a	0	0	0
340.852	n/a	WORD	170426	wordpools/wasnorm_wordpool_576.txt	LTP278	ltpFR2	3	1	PUPIL	1143	n/a	n/a	0	0	0
343.506	n/a	WORD	171753	wordpools/wasnorm_wordpool_576.txt	LTP278	ltpFR2	3	1	BRIEFCASE	175	n/a	n/a	0	0	0
346.256	n/a	WORD	173128	wordpools/wasnorm_wordpool_576.txt	LTP278	ltpFR2	3	1	HUSBAND	728	n/a	n/a	0	0	0
348.946	n/a	WORD	174473	wordpools/wasnorm_wordpool_576.txt	LTP278	ltpFR2	3	1	LOVER	846	n/a	n/a	0	0	0
351.576	n/a	WORD	175788	wordpools/wasnorm_wordpool_576.txt	LTP278	ltpFR2	3	1	EYELASH	546	n/a	n/a	0	0	0
354.254	n/a	WORD	177127	wordpools/wasnorm_wordpool_576.txt	LTP278	ltpFR2	3	1	MARKER	870	n/a	n/a	0	0	0
356.864	n/a	WORD	178432	wordpools/wasnorm_wordpool_576.txt	LTP278	ltpFR2	3	1	EGYPT	519	n/a	n/a	0	0	0
359.584	n/a	WORD	179792	wordpools/wasnorm_wordpool_576.txt	LTP278	ltpFR2	3	1	REBEL	1172	n/a	n/a	0	0	0
362.05	n/a	WORD	181025	wordpools/wasnorm_wordpool_576.txt	LTP278	ltpFR2	3	1	CONCERT	360	n/a	n/a	0	0	0
364.61	n/a	WORD	182305	wordpools/wasnorm_wordpool_576.txt	LTP278	ltpFR2	3	1	PIANO	1057	n/a	n/a	0	0	0
367.07	n/a	WORD	183535	wordpools/wasnorm_wordpool_576.txt	LTP278	ltpFR2	3	1	SPONGE	1355	n/a	n/a	0	0	0
369.556	n/a	WORD	184778	wordpools/wasnorm_wordpool_576.txt	LTP278	ltpFR2	3	1	MARINE	869	n/a	n/a	0	0	0
372.256	n/a	WORD	186128	wordpools/wasnorm_wordpool_576.txt	LTP278	ltpFR2	3	1	WRENCH	1625	n/a	n/a	0	0	0
374.95	n/a	WORD	187475	wordpools/wasnorm_wordpool_576.txt	LTP278	ltpFR2	3	1	PIGMENT	1066	n/a	n/a	0	0	0
377.772	n/a	WORD	188886	wordpools/wasnorm_wordpool_576.txt	LTP278	ltpFR2	3	1	PASTRY	1022	n/a	n/a	0	0	0
380.498	n/a	WORD	190249	wordpools/wasnorm_wordpool_576.txt	LTP278	ltpFR2	3	1	MUMMY	932	n/a	n/a	0	0	0
382.998	n/a	WORD	191499	wordpools/wasnorm_wordpool_576.txt	LTP278	ltpFR2	3	1	ZIPPER	1636	n/a	n/a	0	0	0
385.672	n/a	WORD	192836	wordpools/wasnorm_wordpool_576.txt	LTP278	ltpFR2	3	1	PRINCESS	1125	n/a	n/a	0	0	0
388.2	n/a	WORD	194100	wordpools/wasnorm_wordpool_576.txt	LTP278	ltpFR2	3	1	WARDROBE	1587	n/a	n/a	0	0	0
390.978	n/a	WORD	195489	wordpools/wasnorm_wordpool_576.txt	LTP278	ltpFR2	3	1	BUREAU	199	n/a	n/a	0	0	0
393.704	n/a	WORD	196852	wordpools/wasnorm_wordpool_576.txt	LTP278	ltpFR2	3	1	CLOTHES	327	n/a	n/a	0	0	0
395.31	n/a	START	197655	n/a	LTP278	ltpFR2	3	n/a	n/a	n/a	1	n/a	n/a	n/a	n/a
396.488	n/a	DISTRACTOR	198244	n/a	LTP278	ltpFR2	3	1	n/a	n/a	n/a	n/a	0	0	0
396.498	n/a	PROB	198249	n/a	LTP278	ltpFR2	3	n/a	n/a	n/a	1	18	2	8	8
404.628	n/a	PROB	202314	n/a	LTP278	ltpFR2	3	n/a	n/a	n/a	1	12	2	8	2
407.072	n/a	PROB	203536	n/a	LTP278	ltpFR2	3	n/a	n/a	n/a	1	19	5	7	7
409.314	n/a	PROB	204657	n/a	LTP278	ltpFR2	3	n/a	n/a	n/a	1	24	9	6	9
410.988	n/a	PROB	205494	n/a	LTP278	ltpFR2	3	n/a	n/a	n/a	1	12	3	4	5
412.944	n/a	PROB	206472	n/a	LTP278	ltpFR2	3	n/a	n/a	n/a	1	11	4	2	5
414.332	n/a	PROB	207166	n/a	LTP278	ltpFR2	3	n/a	n/a	n/a	1	11	1	4	6
415.704	n/a	PROB	207852	n/a	LTP278	ltpFR2	3	n/a	n/a	n/a	1	16	5	8	3
419.312	n/a	STOP	209656	n/a	LTP278	ltpFR2	3	n/a	n/a	n/a	1	n/a	n/a	n/a	n/a
421.122	n/a	REC_START	210561	n/a	LTP278	ltpFR2	3	1	n/a	n/a	n/a	n/a	0	0	0
421.636	n/a	REC_WORD	210818	wordpools/wasnorm_wordpool_576.txt	LTP278	ltpFR2	3	1	CONCERT	360	n/a	n/a	0	0	0
423.094	n/a	REC_WORD	211547	wordpools/wasnorm_wordpool_576.txt	LTP278	ltpFR2	3	1	MACHINE	852	n/a	n/a	0	0	0
425.462	n/a	REC_WORD	212731	wordpools/wasnorm_wordpool_576.txt	LTP278	ltpFR2	3	1	REBEL	1172	n/a	n/a	0	0	0
428.762	n/a	REC_WORD	214381	wordpools/wasnorm_wordpool_576.txt	LTP278	ltpFR2	3	1	EYELASH	546	n/a	n/a	0	0	0
430.438	n/a	REC_WORD	215219	wordpools/wasnorm_wordpool_576.txt	LTP278	ltpFR2	3	1	HUSBAND	728	n/a	n/a	0	0	0
445.8	n/a	REC_WORD	222900	wordpools/wasnorm_wordpool_576.txt	LTP278	ltpFR2	3	1	BEAVER	109	n/a	n/a	0	0	0
512.156	n/a	DISTRACTOR	256078	n/a	LTP278	ltpFR2	3	2	n/a	n/a	n/a	n/a	0	0	0
512.156	n/a	START	256078	n/a	LTP278	ltpFR2	3	n/a	n/a	n/a	2	n/a	n/a	n/a	n/a
512.206	n/a	PROB	256103	n/a	LTP278	ltpFR2	3	n/a	n/a	n/a	2	13	2	6	5
514.398	n/a	PROB	257199	n/a	LTP278	ltpFR2	3	n/a	n/a	n/a	2	7	3	1	3
515.704	n/a	PROB	257852	n/a	LTP278	ltpFR2	3	n/a	n/a	n/a	2	19	3	9	7
517.622	n/a	PROB	258811	n/a	LTP278	ltpFR2	3	n/a	n/a	n/a	2	13	3	7	3
519.012	n/a	PROB	259506	n/a	LTP278	ltpFR2	3	n/a	n/a	n/a	2	16	4	9	3
521.104	n/a	PROB	260552	n/a	LTP278	ltpFR2	3	n/a	n/a	n/a	2	19	2	8	9
522.646	n/a	PROB	261323	n/a	LTP278	ltpFR2	3	n/a	n/a	n/a	2	15	4	3	8
524.432	n/a	PROB	262216	n/a	LTP278	ltpFR2	3	n/a	n/a	n/a	2	13	9	2	2
525.988	n/a	PROB	262994	n/a	LTP278	ltpFR2	3	n/a	n/a	n/a	2	11	4	4	3
527.862	n/a	PROB	263931	n/a	LTP278	ltpFR2	3	n/a	n/a	n/a	2	13	1	6	6
529.518	n/a	PROB	264759	n/a	LTP278	ltpFR2	3	n/a	n/a	n/a	2	9	4	4	1
530.79	n/a	PROB	265395	n/a	LTP278	ltpFR2	3	n/a	n/a	n/a	2	14	5	6	3
532.568	n/a	PROB	266284	n/a	LTP278	ltpFR2	3	n/a	n/a	n/a	2	15	4	6	5
534.614	n/a	STOP	267307	n/a	LTP278	ltpFR2	3	n/a	n/a	n/a	2	n/a	n/a	n/a	n/a
537.336	n/a	WORD	268668	wordpools/wasnorm_wordpool_576.txt	LTP278	ltpFR2	3	2	MESSAGE	888	n/a	n/a	0	0	0
540.114	n/a	WORD	270057	wordpools/wasnorm_wordpool_576.txt	LTP278	ltpFR2	3	2	PRIMATE	1123	n/a	n/a	0	0	0
542.904	n/a	WORD	271452	wordpools/wasnorm_wordpool_576.txt	LTP278	ltpFR2	3	2	SALAD	1224	n/a	n/a	0	0	0
545.684	n/a	WORD	272842	wordpools/wasnorm_wordpool_576.txt	LTP278	ltpFR2	3	2	DONKEY	484	n/a	n/a	0	0	0
548.278	n/a	WORD	274139	wordpools/wasnorm_wordpool_576.txt	LTP278	ltpFR2	3	2	HOOD	714	n/a	n/a	0	0	0
551.04	n/a	WORD	275520	wordpools/wasnorm_wordpool_576.txt	LTP278	ltpFR2	3	2	PISTON	1076	n/a	n/a	0	0	0
553.644	n/a	WORD	276822	wordpools/wasnorm_wordpool_576.txt	LTP278	ltpFR2	3	2	GAVEL	627	n/a	n/a	0	0	0
556.326	n/a	WORD	278163	wordpools/wasnorm_wordpool_576.txt	LTP278	ltpFR2	3	2	JURY	766	n/a	n/a	0	0	0
559.054	n/a	WORD	279527	wordpools/wasnorm_wordpool_576.txt	LTP278	ltpFR2	3	2	PANTHER	1009	n/a	n/a	0	0	0
561.54	n/a	WORD	280770	wordpools/wasnorm_wordpool_576.txt	LTP278	ltpFR2	3	2	JUNGLE	764	n/a	n/a	0	0	0
564.106	n/a	WORD	282053	wordpools/wasnorm_wordpool_576.txt	LTP278	ltpFR2	3	2	DASHBOARD	441	n/a	n/a	0	0	0
566.848	n/a	WORD	283424	wordpools/wasnorm_wordpool_576.txt	LTP278	ltpFR2	3	2	BISON	131	n/a	n/a	0	0	0
569.31	n/a	WORD	284655	wordpools/wasnorm_wordpool_576.txt	LTP278	ltpFR2	3	2	BIKE	125	n/a	n/a	0	0	0
571.814	n/a	WORD	285907	wordpools/wasnorm_wordpool_576.txt	LTP278	ltpFR2	3	2	PALACE	1006	n/a	n/a	0	0	0
574.462	n/a	WORD	287231	wordpools/wasnorm_wordpool_576.txt	LTP278	ltpFR2	3	2	POET	1095	n/a	n/a	0	0	0
577.206	n/a	WORD	288603	wordpools/wasnorm_wordpool_576.txt	LTP278	ltpFR2	3	2	OUTFIT	988	n/a	n/a	0	0	0
579.878	n/a	WORD	289939	wordpools/wasnorm_wordpool_576.txt	LTP278	ltpFR2	3	2	SHORTS	1293	n/a	n/a	0	0	0
582.326	n/a	WORD	291163	wordpools/wasnorm_wordpool_576.txt	LTP278	ltpFR2	3	2	WINDOW	1611	n/a	n/a	0	0	0
584.952	n/a	WORD	292476	wordpools/wasnorm_wordpool_576.txt	LTP278	ltpFR2	3	2	GLASS	639	n/a	n/a	0	0	0
587.426	n/a	WORD	293713	wordpools/wasnorm_wordpool_576.txt	LTP278	ltpFR2	3	2	FOREST	593	n/a	n/a	0	0	0
589.854	n/a	WORD	294927	wordpools/wasnorm_wordpool_576.txt	LTP278	ltpFR2	3	2	SHARK	1275	n/a	n/a	0	0	0
592.408	n/a	WORD	296204	wordpools/wasnorm_wordpool_576.txt	LTP278	ltpFR2	3	2	HARP	689	n/a	n/a	0	0	0
595.008	n/a	WORD	297504	wordpools/wasnorm_wordpool_576.txt	LTP278	ltpFR2	3	2	JUDGE	761	n/a	n/a	0	0	0
597.466	n/a	WORD	298733	wordpools/wasnorm_wordpool_576.txt	LTP278	ltpFR2	3	2	COWBOY	395	n/a	n/a	0	0	0
599.072	n/a	START	299536	n/a	LTP278	ltpFR2	3	n/a	n/a	n/a	3	n/a	n/a	n/a	n/a
599.884	n/a	DISTRACTOR	299942	n/a	LTP278	ltpFR2	3	2	n/a	n/a	n/a	n/a	0	0	0
599.892	n/a	PROB	299946	n/a	LTP278	ltpFR2	3	n/a	n/a	n/a	3	18	9	5	4
601.714	n/a	PROB	300857	n/a	LTP278	ltpFR2	3	n/a	n/a	n/a	3	6	2	2	2
602.848	n/a	PROB	301424	n/a	LTP278	ltpFR2	3	n/a	n/a	n/a	3	18	3	9	6
606.818	n/a	PROB	303409	n/a	LTP278	ltpFR2	3	n/a	n/a	n/a	3	17	4	5	8
608.454	n/a	PROB	304227	n/a	LTP278	ltpFR2	3	n/a	n/a	n/a	3	12	2	1	9
610.362	n/a	PROB	305181	n/a	LTP278	ltpFR2	3	n/a	n/a	n/a	3	20	6	9	5
612.34	n/a	PROB	306170	n/a	LTP278	ltpFR2	3	n/a	n/a	n/a	3	10	3	2	5
614.076	n/a	PROB	307038	n/a	LTP278	ltpFR2	3	n/a	n/a	n/a	3	10	6	2	2
616.584	n/a	PROB	308292	n/a	LTP278	ltpFR2	3	n/a	n/a	n/a	3	19	7	8	4
618.742	n/a	PROB	309371	n/a	LTP278	ltpFR2	3	n/a	n/a	n/a	3	7	4	1	2
623.072	n/a	STOP	311536	n/a	LTP278	ltpFR2	3	n/a	n/a	n/a	3	n/a	n/a	n/a	n/a
624.922	n/a	REC_START	312461	n/a	LTP278	ltpFR2	3	2	n/a	n/a	n/a	n/a	0	0	0
628.352	n/a	REC_WORD	314176	wordpools/wasnorm_wordpool_576.txt	LTP278	ltpFR2	3	2	MESSAGE	888	n/a	n/a	0	0	0
632.538	n/a	REC_WORD	316269	wordpools/wasnorm_wordpool_576.txt	LTP278	ltpFR2	3	2	URGENT	-1	n/a	n/a	0	0	0
636.364	n/a	REC_WORD	318182	wordpools/wasnorm_wordpool_576.txt	LTP278	ltpFR2	3	2	GLASS	639	n/a	n/a	0	0	0
637.164	n/a	REC_WORD	318582	wordpools/wasnorm_wordpool_576.txt	LTP278	ltpFR2	3	2	SHORTS	1293	n/a	n/a	0	0	0
640.248	n/a	REC_WORD	320124	wordpools/wasnorm_wordpool_576.txt	LTP278	ltpFR2	3	2	COWBOY	395	n/a	n/a	0	0	0
656.108	n/a	REC_WORD	328054	wordpools/wasnorm_wordpool_576.txt	LTP278	ltpFR2	3	2	RODEO	-1	n/a	n/a	0	0	0
715.952	n/a	WORD	357976	wordpools/wasnorm_wordpool_576.txt	LTP278	ltpFR2	3	3	SCISSORS	1250	n/a	n/a	0	0	0
718.712	n/a	WORD	359356	wordpools/wasnorm_wordpool_576.txt	LTP278	ltpFR2	3	3	STAMP	1370	n/a	n/a	0	0	0
721.202	n/a	WORD	360601	wordpools/wasnorm_wordpool_576.txt	LTP278	ltpFR2	3	3	MEDAL	885	n/a	n/a	0	0	0
723.848	n/a	WORD	361924	wordpools/wasnorm_wordpool_576.txt	LTP278	ltpFR2	3	3	DIME	466	n/a	n/a	0	0	0
726.588	n/a	WORD	363294	wordpools/wasnorm_wordpool_576.txt	LTP278	ltpFR2	3	3	POCKET	1093	n/a	n/a	0	0	0
729.02	n/a	WORD	364510	wordpools/wasnorm_wordpool_576.txt	LTP278	ltpFR2	3	3	CASHEW	253	n/a	n/a	0	0	0
731.628	n/a	WORD	365814	wordpools/wasnorm_wordpool_576.txt	LTP278	ltpFR2	3	3	STREAM	1392	n/a	n/a	0	0	0
734.318	n/a	WORD	367159	wordpools/wasnorm_wordpool_576.txt	LTP278	ltpFR2	3	3	LEADER	807	n/a	n/a	0	0	0
736.882	n/a	WORD	368441	wordpools/wasnorm_wordpool_576.txt	LTP278	ltpFR2	3	3	PLATE	1086	n/a	n/a	0	0	0
739.576	n/a	WORD	369788	wordpools/wasnorm_wordpool_576.txt	LTP278	ltpFR2	3	3	WAGON	1578	n/a	n/a	0	0	0
742.236	n/a	WORD	371118	wordpools/wasnorm_wordpool_576.txt	LTP278	ltpFR2	3	3	LUGGAGE	847	n/a	n/a	0	0	0
744.93	n/a	WORD	372465	wordpools/wasnorm_wordpool_576.txt	LTP278	ltpFR2	3	3	DAUGHTER	442	n/a	n/a	0	0	0
747.724	n/a	WORD	373862	wordpools/wasnorm_wordpool_576.txt	LTP278	ltpFR2	3	3	PATIENT	1024	n/a	n/a	0	0	0
750.2	n/a	WORD	375100	wordpools/wasnorm_wordpool_576.txt	LTP278	ltpFR2	3	3	COFFEE	341	n/a	n/a	0	0	0
752.808	n/a	WORD	376404	wordpools/wasnorm_wordpool_576.txt	LTP278	ltpFR2	3	3	CAFE	216	n/a	n/a	0	0	0
755.27	n/a	WORD	377635	wordpools/wasnorm_wordpool_576.txt	LTP278	ltpFR2	3	3	SUITCASE	1403	n/a	n/a	0	0	0
757.778	n/a	WORD	378889	wordpools/wasnorm_wordpool_576.txt	LTP278	ltpFR2	3	3	SEAGULL	1261	n/a	n/a	0	0	0
760.268	n/a	WORD	380134	wordpools/wasnorm_wordpool_576.txt	LTP278	ltpFR2	3	3	PIGEON	1065	n/a	n/a	0	0	0
762.912	n/a	WORD	381456	wordpools/wasnorm_wordpool_576.txt	LTP278	ltpFR2	3	3	CROSS	413	n/a	n/a	0	0	0
765.692	n/a	WORD	382846	wordpools/wasnorm_wordpool_576.txt	LTP278	ltpFR2	3	3	PORTRAIT	1111	n/a	n/a	0	0	0
768.186	n/a	WORD	384093	wordpools/wasnorm_wordpool_576.txt	LTP278	ltpFR2	3	3	CLOCK	325	n/a	n/a	0	0	0
770.962	n/a	WORD	385481	wordpools/wasnorm_wordpool_576.txt	LTP278	ltpFR2	3	3	WHISTLE	1606	n/a	n/a	0	0	0
773.554	n/a	WORD	386777	wordpools/wasnorm_wordpool_576.txt	LTP278	ltpFR2	3	3	CAMEL	223	n/a	n/a	0	0	0
776.334	n/a	WORD	388167	wordpools/wasnorm_wordpool_576.txt	LTP278	ltpFR2	3	3	KEEPER	769	n/a	n/a	0	0	0
777.94	n/a	START	388970	n/a	LTP278	ltpFR2	3	n/a	n/a	n/a	4	n/a	n/a	n/a	n/a
778.74	n/a	DISTRACTOR	389370	n/a	LTP278	ltpFR2	3	3	n/a	n/a	n/a	n/a	0	0	0
778.758	n/a	PROB	389379	n/a	LTP278	ltpFR2	3	n/a	n/a	n/a	4	11	4	2	5
780.918	n/a	PROB	390459	n/a	LTP278	ltpFR2	3	n/a	n/a	n/a	4	18	8	6	4
783.276	n/a	PROB	391638	n/a	LTP278	ltpFR2	3	n/a	n/a	n/a	4	18	8	1	9
784.86	n/a	PROB	392430	n/a	LTP278	ltpFR2	3	n/a	n/a	n/a	4	21	4	8	9
787.672	n/a	PROB	393836	n/a	LTP278	ltpFR2	3	n/a	n/a	n/a	4	15	5	2	8
789.378	n/a	PROB	394689	n/a	LTP278	ltpFR2	3	n/a	n/a	n/a	4	19	5	5	9
790.75	n/a	PROB	395375	n/a	LTP278	ltpFR2	3	n/a	n/a	n/a	4	15	5	9	1
792.222	n/a	PROB	396111	n/a	LTP278	ltpFR2	3	n/a	n/a	n/a	4	14	4	1	9
794.114	n/a	PROB	397057	n/a	LTP278	ltpFR2	3	n/a	n/a	n/a	4	22	4	9	8
797.476	n/a	PROB	398738	n/a	LTP278	ltpFR2	3	n/a	n/a	n/a	4	19	7	6	6
801.94	n/a	STOP	400970	n/a	LTP278	ltpFR2	3	n/a	n/a	n/a	4	n/a	n/a	n/a	n/a
803.788	n/a	REC_START	401894	n/a	LTP278	ltpFR2	3	3	n/a	n/a	n/a	n/a	0	0	0
813.834	n/a	REC_WORD	406917	wordpools/wasnorm_wordpool_576.txt	LTP278	ltpFR2	3	3	CAMEL	223	n/a	n/a	0	0	0
815.918	n/a	REC_WORD	407959	wordpools/wasnorm_wordpool_576.txt	LTP278	ltpFR2	3	3	KEEPER	769	n/a	n/a	0	0	0
894.868	n/a	WORD	447434	wordpools/wasnorm_wordpool_576.txt	LTP278	ltpFR2	3	4	MAILMAN	858	n/a	n/a	0	0	0
897.612	n/a	WORD	448806	wordpools/wasnorm_wordpool_576.txt	LTP278	ltpFR2	3	4	SPIDER	1351	n/a	n/a	0	0	0
900.406	n/a	WORD	450203	wordpools/wasnorm_wordpool_576.txt	LTP278	ltpFR2	3	4	FLOWER	584	n/a	n/a	0	0	0
903.134	n/a	WORD	451567	wordpools/wasnorm_wordpool_576.txt	LTP278	ltpFR2	3	4	DOUGHNUT	490	n/a	n/a	0	0	0
905.84	n/a	WORD	452920	wordpools/wasnorm_wordpool_576.txt	LTP278	ltpFR2	3	4	PLASTER	1085	n/a	n/a	0	0	0
908.504	n/a	WORD	454252	wordpools/wasnorm_wordpool_576.txt	LTP278	ltpFR2	3	4	SWORD	1423	n/a	n/a	0	0	0
910.964	n/a	WORD	455482	wordpools/wasnorm_wordpool_576.txt	LTP278	ltpFR2	3	4	TORTOISE	1486	n/a	n/a	0	0	0
913.59	n/a	WORD	456795	wordpools/wasnorm_wordpool_576.txt	LTP278	ltpFR2	3	4	CARROT	249	n/a	n/a	0	0	0
916.386	n/a	WORD	458193	wordpools/wasnorm_wordpool_576.txt	LTP278	ltpFR2	3	4	CANAL	226	n/a	n/a	0	0	0
918.912	n/a	WORD	459456	wordpools/wasnorm_wordpool_576.txt	LTP278	ltpFR2	3	4	COUNTY	389	n/a	n/a	0	0	0
921.4	n/a	WORD	460700	wordpools/wasnorm_wordpool_576.txt	LTP278	ltpFR2	3	4	BACKBONE	66	n/a	n/a	0	0	0
923.83	n/a	WORD	461915	wordpools/wasnorm_wordpool_576.txt	LTP278	ltpFR2	3	4	FREEZER	604	n/a	n/a	0	0	0
926.374	n/a	WORD	463187	wordpools/wasnorm_wordpool_576.txt	LTP278	ltpFR2	3	4	BUCKET	184	n/a	n/a	0	0	0
929.184	n/a	WORD	464592	wordpools/wasnorm_wordpool_576.txt	LTP278	ltpFR2	3	4	POSTAGE	1113	n/a	n/a	0	0	0
931.694	n/a	WORD	465847	wordpools/wasnorm_wordpool_576.txt	LTP278	ltpFR2	3	4	SANDWICH	1232	n/a	n/a	0	0	0
934.404	n/a	WORD	467202	wordpools/wasnorm_wordpool_576.txt	LTP278	ltpFR2	3	4	EAGLE	512	n/a	n/a	0	0	0
937.182	n/a	WORD	468591	wordpools/wasnorm_wordpool_576.txt	LTP278	ltpFR2	3	4	APRON	35	n/a	n/a	0	0	0
939.836	n/a	WORD	469918	wordpools/wasnorm_wordpool_576.txt	LTP278	ltpFR2	3	4	STOVE	1388	n/a	n/a	0	0	0
942.484	n/a	WORD	471242	wordpools/wasnorm_wordpool_576.txt	LTP278	ltpFR2	3	4	PEDAL	1037	n/a	n/a	0	0	0
945.23	n/a	WORD	472615	wordpools/wasnorm_wordpool_576.txt	LTP278	ltpFR2	3	4	COCOON	339	n/a	n/a	0	0	0
947.804	n/a	WORD	473902	wordpools/wasnorm_wordpool_576.txt	LTP278	ltpFR2	3	4	WORKER	1621	n/a	n/a	0	0	0
950.514	n/a	WORD	475257	wordpools/wasnorm_wordpool_576.txt	LTP278	ltpFR2	3	4	JELLO	754	n/a	n/a	0	0	0
953.326	n/a	WORD	476663	wordpools/wasnorm_wordpool_576.txt	LTP278	ltpFR2	3	4	BANJO	82	n/a	n/a	0	0	0
956.088	n/a	WORD	478044	wordpools/wasnorm_wordpool_576.txt	LTP278	ltpFR2	3	4	CRUTCH	417	n/a	n/a	0	0	0
957.704	n/a	START	478852	n/a	LTP278	ltpFR2	3	n/a	n/a	n/a	5	n/a	n/a	n/a	n/a
958.536	n/a	DISTRACTOR	479268	n/a	LTP278	ltpFR2	3	4	n/a	n/a	n/a	n/a	0	0	0
958.546	n/a	PROB	479273	n/a	LTP278	ltpFR2	3	n/a	n/a	n/a	5	22	6	7	9
960.498	n/a	PROB	480249	n/a	LTP278	ltpFR2	3	n/a	n/a	n/a	5	12	4	4	4
961.74	n/a	PROB	480870	n/a	LTP278	ltpFR2	3	n/a	n/a	n/a	5	10	3	1	6
963.294	n/a	PROB	481647	n/a	LTP278	ltpFR2	3	n/a	n/a	n/a	5	12	3	8	1
964.984	n/a	PROB	482492	n/a	LTP278	ltpFR2	3	n/a	n/a	n/a	5	12	6	2	4
966.856	n/a	PROB	483428	n/a	LTP278	ltpFR2	3	n/a	n/a	n/a	5	11	1	3	7
968.312	n/a	PROB	484156	n/a	LTP278	ltpFR2	3	n/a	n/a	n/a	5	17	6	6	5
969.852	n/a	PROB	484926	n/a	LTP278	ltpFR2	3	n/a	n/a	n/a	5	13	2	3	8
971.258	n/a	PROB	485629	n/a	LTP278	ltpFR2	3	n/a	n/a	n/a	5	11	3	7	1
972.914	n/a	PROB	486457	n/a	LTP278	ltpFR2	3	n/a	n/a	n/a	5	18	2	8	8
974.552	n/a	PROB	487276	n/a	LTP278	ltpFR2	3	n/a	n/a	n/a	5	15	8	3	4
976.364	n/a	PROB	488182	n/a	LTP278	ltpFR2	3	n/a	n/a	n/a	5	24	9	9	6
978.05	n/a	PROB	489025	n/a	LTP278	ltpFR2	3	n/a	n/a	n/a	5	17	4	6	7
979.622	n/a	PROB	489811	n/a	LTP278	ltpFR2	3	n/a	n/a	n/a	5	15	4	5	6
981.67	n/a	STOP	490835	n/a	LTP278	ltpFR2	3	n/a	n/a	n/a	5	n/a	n/a	n/a	n/a
983.558	n/a	REC_START	491779	n/a	LTP278	ltpFR2	3	4	n/a	n/a	n/a	n/a	0	0	0
985.768	n/a	REC_WORD	492884	wordpools/wasnorm_wordpool_576.txt	LTP278	ltpFR2	3	4	MAILMAN	858	n/a	n/a	0	0	0
988.314	n/a	REC_WORD	494157	wordpools/wasnorm_wordpool_576.txt	LTP278	ltpFR2	3	4	FLOWER	584	n/a	n/a	0	0	0
989.518	n/a	REC_WORD	494759	wordpools/wasnorm_wordpool_576.txt	LTP278	ltpFR2	3	4	SPIDER	1351	n/a	n/a	0	0	0
990.946	n/a	REC_WORD	495473	wordpools/wasnorm_wordpool_576.txt	LTP278	ltpFR2	3	4	DOUGHNUT	490	n/a	n/a	0	0	0
995.622	n/a	REC_WORD	497811	wordpools/wasnorm_wordpool_576.txt	LTP278	ltpFR2	3	4	SWORD	1423	n/a	n/a	0	0	0
996.9	n/a	REC_WORD	498450	wordpools/wasnorm_wordpool_576.txt	LTP278	ltpFR2	3	4	TORTOISE	1486	n/a	n/a	0	0	0
1001.032	n/a	REC_WORD	500516	wordpools/wasnorm_wordpool_576.txt	LTP278	ltpFR2	3	4	POSTAGE	1113	n/a	n/a	0	0	0
1002.322	n/a	REC_WORD	501161	wordpools/wasnorm_wordpool_576.txt	LTP278	ltpFR2	3	4	APRON	35	n/a	n/a	0	0	0
1003.322	n/a	REC_WORD	501661	wordpools/wasnorm_wordpool_576.txt	LTP278	ltpFR2	3	4	COCOON	339	n/a	n/a	0	0	0
1054.874	n/a	REC_WORD	527437	wordpools/wasnorm_wordpool_576.txt	LTP278	ltpFR2	3	4	MIRROR	899	n/a	n/a	0	0	0
1074.606	n/a	WORD	537303	wordpools/wasnorm_wordpool_576.txt	LTP278	ltpFR2	3	5	COLONEL	348	n/a	n/a	0	0	0
1077.166	n/a	WORD	538583	wordpools/wasnorm_wordpool_576.txt	LTP278	ltpFR2	3	5	STUDENT	1395	n/a	n/a	0	0	0
1079.626	n/a	WORD	539813	wordpools/wasnorm_wordpool_576.txt	LTP278	ltpFR2	3	5	DINER	467	n/a	n/a	0	0	0
1082.136	n/a	WORD	541068	wordpools/wasnorm_wordpool_576.txt	LTP278	ltpFR2	3	5	SPARROW	1347	n/a	n/a	0	0	0
1084.628	n/a	WORD	542314	wordpools/wasnorm_wordpool_576.txt	LTP278	ltpFR2	3	5	JELLY	755	n/a	n/a	0	0	0
1087.434	n/a	WORD	543717	wordpools/wasnorm_wordpool_576.txt	LTP278	ltpFR2	3	5	TOASTER	1472	n/a	n/a	0	0	0
1090.094	n/a	WORD	545047	wordpools/wasnorm_wordpool_576.txt	LTP278	ltpFR2	3	5	OMELET	976	n/a	n/a	0	0	0
1092.692	n/a	WORD	546346	wordpools/wasnorm_wordpool_576.txt	LTP278	ltpFR2	3	5	CORAL	378	n/a	n/a	0	0	0
1095.236	n/a	WORD	547618	wordpools/wasnorm_wordpool_576.txt	LTP278	ltpFR2	3	5	SLUG	1329	n/a	n/a	0	0	0
1097.896	n/a	WORD	548948	wordpools/wasnorm_wordpool_576.txt	LTP278	ltpFR2	3	5	APPLE	33	n/a	n/a	0	0	0
1100.638	n/a	WORD	550319	wordpools/wasnorm_wordpool_576.txt	LTP278	ltpFR2	3	5	GIFT	635	n/a	n/a	0	0	0
1103.166	n/a	WORD	551583	wordpools/wasnorm_wordpool_576.txt	LTP278	ltpFR2	3	5	PARSLEY	1016	n/a	n/a	0	0	0
1105.742	n/a	WORD	552871	wordpools/wasnorm_wordpool_576.txt	LTP278	ltpFR2	3	5	ARM	38	n/a	n/a	0	0	0
1108.184	n/a	WORD	554092	wordpools/wasnorm_wordpool_576.txt	LTP278	ltpFR2	3	5	WAITER	1580	n/a	n/a	0	0	0
1110.794	n/a	WORD	555397	wordpools/wasnorm_wordpool_576.txt	LTP278	ltpFR2	3	5	SERVANT	1271	n/a	n/a	0	0	0
1113.6	n/a	WORD	556800	wordpools/wasnorm_wordpool_576.txt	LTP278	ltpFR2	3	5	LUNCH	849	n/a	n/a	0	0	0
1116.1	n/a	WORD	558050	wordpools/wasnorm_wordpool_576.txt	LTP278	ltpFR2	3	5	SKILLET	1317	n/a	n/a	0	0	0
1118.754	n/a	WORD	559377	wordpools/wasnorm_wordpool_576.txt	LTP278	ltpFR2	3	5	COSTUME	383	n/a	n/a	0	0	0
1121.198	n/a	WORD	560599	wordpools/wasnorm_wordpool_576.txt	LTP278	ltpFR2	3	5	WAITRESS	1581	n/a	n/a	0	0	0
1123.744	n/a	WORD	561872	wordpools/wasnorm_wordpool_576.txt	LTP278	ltpFR2	3	5	CYCLONE	431	n/a	n/a	0	0	0
1126.466	n/a	WORD	563233	wordpools/wasnorm_wordpool_576.txt	LTP278	ltpFR2	3	5	BADGE	68	n/a	n/a	0	0	0
1128.976	n/a	WORD	564488	wordpools/wasnorm_wordpool_576.txt	LTP278	ltpFR2	3	5	POISON	1096	n/a	n/a	0	0	0
1131.49	n/a	WORD	565745	wordpools/wasnorm_wordpool_576.txt	LTP278	ltpFR2	3	5	COBRA	336	n/a	n/a	0	0	0
1134.286	n/a	WORD	567143	wordpools/wasnorm_wordpool_576.txt	LTP278	ltpFR2	3	5	SALT	1229	n/a	n/a	0	0	0
1135.892	n/a	START	567946	n/a	LTP278	ltpFR2	3	n/a	n/a	n/a	6	n/a	n/a	n/a	n/a
1136.864	n/a	DISTRACTOR	568432	n/a	LTP278	ltpFR2	3	5	n/a	n/a	n/a	n/a	0	0	0
1136.878	n/a	PROB	568439	n/a	LTP278	ltpFR2	3	n/a	n/a	n/a	6	25	7	9	9
1139.15	n/a	PROB	569575	n/a	LTP278	ltpFR2	3	n/a	n/a	n/a	6	9	3	4	2
1141.462	n/a	PROB	570731	n/a	LTP278	ltpFR2	3	n/a	n/a	n/a	6	19	9	6	4
1142.964	n/a	PROB	571482	n/a	LTP278	ltpFR2	3	n/a	n/a	n/a	6	19	4	9	6
1145.004	n/a	PROB	572502	n/a	LTP278	ltpFR2	3	n/a	n/a	n/a	6	11	7	2	2
1147.564	n/a	PROB	573782	n/a	LTP278	ltpFR2	3	n/a	n/a	n/a	6	20	8	4	8
1159.892	n/a	STOP	579946	n/a	LTP278	ltpFR2	3	n/a	n/a	n/a	6	n/a	n/a	n/a	n/a
1161.69	n/a	REC_START	580845	n/a	LTP278	ltpFR2	3	5	n/a	n/a	n/a	n/a	0	0	0
1169.384	n/a	REC_WORD	584692	wordpools/wasnorm_wordpool_576.txt	LTP278	ltpFR2	3	5	SPARROW	1347	n/a	n/a	0	0	0
1170.392	n/a	REC_WORD	585196	wordpools/wasnorm_wordpool_576.txt	LTP278	ltpFR2	3	5	COLONEL	348	n/a	n/a	0	0	0
1171.172	n/a	REC_WORD	585586	wordpools/wasnorm_wordpool_576.txt	LTP278	ltpFR2	3	5	STUDENT	1395	n/a	n/a	0	0	0
1172.976	n/a	REC_WORD	586488	wordpools/wasnorm_wordpool_576.txt	LTP278	ltpFR2	3	5	DINER	467	n/a	n/a	0	0	0
1173.928	n/a	REC_WORD	586964	wordpools/wasnorm_wordpool_576.txt	LTP278	ltpFR2	3	5	JELLY	755	n/a	n/a	0	0	0
1174.774	n/a	REC_WORD	587387	wordpools/wasnorm_wordpool_576.txt	LTP278	ltpFR2	3	5	APPLE	33	n/a	n/a	0	0	0
1175.588	n/a	REC_WORD	587794	wordpools/wasnorm_wordpool_576.txt	LTP278	ltpFR2	3	5	OMELET	976	n/a	n/a	0	0	0
1176.32	n/a	REC_WORD	588160	wordpools/wasnorm_wordpool_576.txt	LTP278	ltpFR2	3	5	CORAL	378	n/a	n/a	0	0	0
1177.054	n/a	REC_WORD	588527	wordpools/wasnorm_wordpool_576.txt	LTP278	ltpFR2	3	5	SLUG	1329	n/a	n/a	0	0	0
1179.758	n/a	REC_WORD	589879	wordpools/wasnorm_wordpool_576.txt	LTP278	ltpFR2	3	5	TOASTER	1472	n/a	n/a	0	0	0
1252.736	n/a	DISTRACTOR	626368	n/a	LTP278	ltpFR2	3	6	n/a	n/a	n/a	n/a	0	0	0
1252.736	n/a	START	626368	n/a	LTP278	ltpFR2	3	n/a	n/a	n/a	7	n/a	n/a	n/a	n/a
1252.786	n/a	PROB	626393	n/a	LTP278	ltpFR2	3	n/a	n/a	n/a	7	16	8	3	5
1255.342	n/a	PROB	627671	n/a	LTP278	ltpFR2	3	n/a	n/a	n/a	7	16	5	6	5
1256.966	n/a	PROB	628483	n/a	LTP278	ltpFR2	3	n/a	n/a	n/a	7	13	7	4	2
1259.63	n/a	PROB	629815	n/a	LTP278	ltpFR2	3	n/a	n/a	n/a	7	6	2	3	1
1260.998	n/a	PROB	630499	n/a	LTP278	ltpFR2	3	n/a	n/a	n/a	7	18	4	6	8
1262.37	n/a	PROB	631185	n/a	LTP278	ltpFR2	3	n/a	n/a	n/a	7	24	9	6	9
1264.394	n/a	PROB	632197	n/a	LTP278	ltpFR2	3	n/a	n/a	n/a	7	21	5	7	9
1266.724	n/a	PROB	633362	n/a	LTP278	ltpFR2	3	n/a	n/a	n/a	7	17	6	7	4
1270.6	n/a	PROB	635300	n/a	LTP278	ltpFR2	3	n/a	n/a	n/a	7	15	9	2	4
1272.742	n/a	PROB	636371	n/a	LTP278	ltpFR2	3	n/a	n/a	n/a	7	17	4	9	4
1276.738	n/a	STOP	638369	n/a	LTP278	ltpFR2	3	n/a	n/a	n/a	7	n/a	n/a	n/a	n/a
1277.832	n/a	WORD	638916	wordpools/wasnorm_wordpool_576.txt	LTP278	ltpFR2	3	6	SISTER	1312	n/a	n/a	0	0	0
1280.292	n/a	WORD	640146	wordpools/wasnorm_wordpool_576.txt	LTP278	ltpFR2	3	6	SIBLING	1301	n/a	n/a	0	0	0
1283.054	n/a	WORD	641527	wordpools/wasnorm_wordpool_576.txt	LTP278	ltpFR2	3	6	BLOUSE	139	n/a	n/a	0	0	0
1285.596	n/a	WORD	642798	wordpools/wasnorm_wordpool_576.txt	LTP278	ltpFR2	3	6	MAPLE	866	n/a	n/a	0	0	0
1288.056	n/a	WORD	644028	wordpools/wasnorm_wordpool_576.txt	LTP278	ltpFR2	3	6	BARLEY	88	n/a	n/a	0	0	0
1290.866	n/a	WORD	645433	wordpools/wasnorm_wordpool_576.txt	LTP278	ltpFR2	3	6	HELMET	702	n/a	n/a	0	0	0
1293.354	n/a	WORD	646677	wordpools/wasnorm_wordpool_576.txt	LTP278	ltpFR2	3	6	CIGAR	308	n/a	n/a	0	0	0
1296.132	n/a	WORD	648066	wordpools/wasnorm_wordpool_576.txt	LTP278	ltpFR2	3	6	POWDER	1117	n/a	n/a	0	0	0
1298.562	n/a	WORD	649281	wordpools/wasnorm_wordpool_576.txt	LTP278	ltpFR2	3	6	FLASHLIGHT	575	n/a	n/a	0	0	0
1301.072	n/a	WORD	650536	wordpools/wasnorm_wordpool_576.txt	LTP278	ltpFR2	3	6	HEDGE	699	n/a	n/a	0	0	0
1303.748	n/a	WORD	651874	wordpools/wasnorm_wordpool_576.txt	LTP278	ltpFR2	3	6	DRILL	497	n/a	n/a	0	0	0
1306.238	n/a	WORD	653119	wordpools/wasnorm_wordpool_576.txt	LTP278	ltpFR2	3	6	DENTIST	447	n/a	n/a	0	0	0
1308.768	n/a	WORD	654384	wordpools/wasnorm_wordpool_576.txt	LTP278	ltpFR2	3	6	ROBBER	1197	n/a	n/a	0	0	0
1311.544	n/a	WORD	655772	wordpools/wasnorm_wordpool_576.txt	LTP278	ltpFR2	3	6	SHORTCAKE	1292	n/a	n/a	0	0	0
1314.222	n/a	WORD	657111	wordpools/wasnorm_wordpool_576.txt	LTP278	ltpFR2	3	6	PIMPLE	1071	n/a	n/a	0	0	0
1316.982	n/a	WORD	658491	wordpools/wasnorm_wordpool_576.txt	LTP278	ltpFR2	3	6	STAR	1373	n/a	n/a	0	0	0
1319.76	n/a	WORD	659880	wordpools/wasnorm_wordpool_576.txt	LTP278	ltpFR2	3	6	FRANCE	601	n/a	n/a	0	0	0
1322.504	n/a	WORD	661252	wordpools/wasnorm_wordpool_576.txt	LTP278	ltpFR2	3	6	CABBAGE	210	n/a	n/a	0	0	0
1325.182	n/a	WORD	662591	wordpools/wasnorm_wordpool_576.txt	LTP278	ltpFR2	3	6	SUSPECT	1415	n/a	n/a	0	0	0
1327.858	n/a	WORD	663929	wordpools/wasnorm_wordpool_576.txt	LTP278	ltpFR2	3	6	MONSTER	912	n/a	n/a	0	0	0
1330.5	n/a	WORD	665250	wordpools/wasnorm_wordpool_576.txt	LTP278	ltpFR2	3	6	TABLE	1426	n/a	n/a	0	0	0
1332.994	n/a	WORD	666497	wordpools/wasnorm_wordpool_576.txt	LTP278	ltpFR2	3	6	CREVICE	405	n/a	n/a	0	0	0
1335.72	n/a	WORD	667860	wordpools/wasnorm_wordpool_576.txt	LTP278	ltpFR2	3	6	SHRUB	1299	n/a	n/a	0	0	0
1338.548	n/a	WORD	669274	wordpools/wasnorm_wordpool_576.txt	LTP278	ltpFR2	3	6	ATLAS	53	n/a	n/a	0	0	0
1340.156	n/a	START	670078	n/a	LTP278	ltpFR2	3	n/a	n/a	n/a	8	n/a	n/a	n/a	n/a
1341.11	n/a	DISTRACTOR	670555	n/a	LTP278	ltpFR2	3	6	n/a	n/a	n/a	n/a	0	0	0
1341.126	n/a	PROB	670563	n/a	LTP278	ltpFR2	3	n/a	n/a	n/a	8	21	4	9	8
1344.818	n/a	PROB	672409	n/a	LTP278	ltpFR2	3	n/a	n/a	n/a	8	9	1	2	6
1346.608	n/a	PROB	673304	n/a	LTP278	ltpFR2	3	n/a	n/a	n/a	8	18	8	6	4
1348.148	n/a	PROB	674074	n/a	LTP278	ltpFR2	3	n/a	n/a	n/a	8	15	4	5	8
1350.222	n/a	PROB	675111	n/a	LTP278	ltpFR2	3	n/a	n/a	n/a	8	24	9	7	8
1352.68	n/a	PROB	676340	n/a	LTP278	ltpFR2	3	n/a	n/a	n/a	8	24	7	9	8
1355.826	n/a	PROB	677913	n/a	LTP278	ltpFR2	3	n/a	n/a	n/a	8	14	3	3	8
1357.604	n/a	PROB	678802	n/a	LTP278	ltpFR2	3	n/a	n/a	n/a	8	16	7	7	2
1359.358	n/a	PROB	679679	n/a	LTP278	ltpFR2	3	n/a	n/a	n/a	8	14	7	3	4
1360.896	n/a	PROB	680448	n/a	LTP278	ltpFR2	3	n/a	n/a	n/a	8	14	2	5	7
1362.352	n/a	PROB	681176	n/a	LTP278	ltpFR2	3	n/a	n/a	n/a	8	15	4	8	3
1363.826	n/a	STOP	681913	n/a	LTP278	ltpFR2	3	n/a	n/a	n/a	8	n/a	n/a	n/a	n/a
1365.934	n/a	REC_START	682967	n/a	LTP278	ltpFR2	3	6	n/a	n/a	n/a	n/a	0	0	0
1367.532	n/a	REC_WORD	683766	wordpools/wasnorm_wordpool_576.txt	LTP278	ltpFR2	3	6	CABBAGE	210	n/a	n/a	0	0	0
1372.302	n/a	REC_WORD	686151	wordpools/wasnorm_wordpool_576.txt	LTP278	ltpFR2	3	6	SISTER	1312	n/a	n/a	0	0	0
1373.52	n/a	REC_WORD	686760	wordpools/wasnorm_wordpool_576.txt	LTP278	ltpFR2	3	6	SIBLING	1301	n/a	n/a	0	0	0
1374.59	n/a	REC_WORD	687295	wordpools/wasnorm_wordpool_576.txt	LTP278	ltpFR2	3	6	BLOUSE	139	n/a	n/a	0	0	0
1457.036	n/a	WORD	728518	wordpools/wasnorm_wordpool_576.txt	LTP278	ltpFR2	3	7	NOVEL	960	n/a	n/a	0	0	0
1459.794	n/a	WORD	729897	wordpools/wasnorm_wordpool_576.txt	LTP278	ltpFR2	3	7	TILE	1468	n/a	n/a	0	0	0
1462.322	n/a	WORD	731161	wordpools/wasnorm_wordpool_576.txt	LTP278	ltpFR2	3	7	PORK	1108	n/a	n/a	0	0	0
1465.01	n/a	WORD	732505	wordpools/wasnorm_wordpool_576.txt	LTP278	ltpFR2	3	7	EXPERT	543	n/a	n/a	0	0	0
1467.704	n/a	WORD	733852	wordpools/wasnorm_wordpool_576.txt	LTP278	ltpFR2	3	7	TROMBONE	1508	n/a	n/a	0	0	0
1470.386	n/a	WORD	735193	wordpools/wasnorm_wordpool_576.txt	LTP278	ltpFR2	3	7	HORSE	719	n/a	n/a	0	0	0
1472.844	n/a	WORD	736422	wordpools/wasnorm_wordpool_576.txt	LTP278	ltpFR2	3	7	TRACTOR	1493	n/a	n/a	0	0	0
1475.618	n/a	WORD	737809	wordpools/wasnorm_wordpool_576.txt	LTP278	ltpFR2	3	7	FLUTE	585	n/a	n/a	0	0	0
1478.316	n/a	WORD	739158	wordpools/wasnorm_wordpool_576.txt	LTP278	ltpFR2	3	7	JOURNAL	760	n/a	n/a	0	0	0
1480.804	n/a	WORD	740402	wordpools/wasnorm_wordpool_576.txt	LTP278	ltpFR2	3	7	SEAFOOD	1260	n/a	n/a	0	0	0
1483.402	n/a	WORD	741701	wordpools/wasnorm_wordpool_576.txt	LTP278	ltpFR2	3	7	HAWK	692	n/a	n/a	0	0	0
1486.18	n/a	WORD	743090	wordpools/wasnorm_wordpool_576.txt	LTP278	ltpFR2	3	7	SEAL	1262	n/a	n/a	0	0	0
1489.008	n/a	WORD	744504	wordpools/wasnorm_wordpool_576.txt	LTP278	ltpFR2	3	7	ICEBERG	731	n/a	n/a	0	0	0
1491.434	n/a	WORD	745717	wordpools/wasnorm_wordpool_576.txt	LTP278	ltpFR2	3	7	KLEENEX	782	n/a	n/a	0	0	0
1494.026	n/a	WORD	747013	wordpools/wasnorm_wordpool_576.txt	LTP278	ltpFR2	3	7	RUST	1219	n/a	n/a	0	0	0
1496.564	n/a	WORD	748282	wordpools/wasnorm_wordpool_576.txt	LTP278	ltpFR2	3	7	ELBOW	520	n/a	n/a	0	0	0
1499.242	n/a	WORD	749621	wordpools/wasnorm_wordpool_576.txt	LTP278	ltpFR2	3	7	GALLON	618	n/a	n/a	0	0	0
1501.94	n/a	WORD	750970	wordpools/wasnorm_wordpool_576.txt	LTP278	ltpFR2	3	7	REPORT	1184	n/a	n/a	0	0	0
1504.366	n/a	WORD	752183	wordpools/wasnorm_wordpool_576.txt	LTP278	ltpFR2	3	7	NOTEBOOK	959	n/a	n/a	0	0	0
1506.876	n/a	WORD	753438	wordpools/wasnorm_wordpool_576.txt	LTP278	ltpFR2	3	7	BUG	187	n/a	n/a	0	0	0
1509.302	n/a	WORD	754651	wordpools/wasnorm_wordpool_576.txt	LTP278	ltpFR2	3	7	FOOT	590	n/a	n/a	0	0	0
1512.078	n/a	WORD	756039	wordpools/wasnorm_wordpool_576.txt	LTP278	ltpFR2	3	7	ROBOT	1200	n/a	n/a	0	0	0
1514.532	n/a	WORD	757266	wordpools/wasnorm_wordpool_576.txt	LTP278	ltpFR2	3	7	RAZOR	1171	n/a	n/a	0	0	0
1517.198	n/a	WORD	758599	wordpools/wasnorm_wordpool_576.txt	LTP278	ltpFR2	3	7	BLADE	134	n/a	n/a	0	0	0
1518.816	n/a	START	759408	n/a	LTP278	ltpFR2	3	n/a	n/a	n/a	9	n/a	n/a	n/a	n/a
1519.862	n/a	DISTRACTOR	759931	n/a	LTP278	ltpFR2	3	7	n/a	n/a	n/a	n/a	0	0	0
1519.874	n/a	PROB	759937	n/a	LTP278	ltpFR2	3	n/a	n/a	n/a	9	18	2	8	8
1524.388	n/a	PROB	762194	n/a	LTP278	ltpFR2	3	n/a	n/a	n/a	9	12	1	6	5
1525.792	n/a	PROB	762896	n/a	LTP278	ltpFR2	3	n/a	n/a	n/a	9	15	7	7	1
1527.132	n/a	PROB	763566	n/a	LTP278	ltpFR2	3	n/a	n/a	n/a	9	13	1	2	8
1529.006	n/a	PROB	764503	n/a	LTP278	ltpFR2	3	n/a	n/a	n/a	9	9	2	1	6
1531.804	n/a	PROB	765902	n/a	LTP278	ltpFR2	3	n/a	n/a	n/a	9	9	3	4	2
1533.98	n/a	PROB	766990	n/a	LTP278	ltpFR2	3	n/a	n/a	n/a	9	18	8	8	2
1535.33	n/a	PROB	767665	n/a	LTP278	ltpFR2	3	n/a	n/a	n/a	9	13	4	2	7
1537.388	n/a	PROB	768694	n/a	LTP278	ltpFR2	3	n/a	n/a	n/a	9	24	9	8	7
1539.83	n/a	PROB	769915	n/a	LTP278	ltpFR2	3	n/a	n/a	n/a	9	15	5	4	6
1542.132	n/a	STOP	771066	n/a	LTP278	ltpFR2	3	n/a	n/a	n/a	9	n/a	n/a	n/a	n/a
1544.582	n/a	REC_START	772291	n/a	LTP278	ltpFR2	3	7	n/a	n/a	n/a	n/a	0	0	0
1546.13	n/a	REC_WORD	773065	wordpools/wasnorm_wordpool_576.txt	LTP278	ltpFR2	3	7	NOVEL	960	n/a	n/a	0	0	0
1547.13	n/a	REC_WORD	773565	wordpools/wasnorm_wordpool_576.txt	LTP278	ltpFR2	3	7	TILE	1468	n/a	n/a	0	0	0
1548.096	n/a	REC_WORD	774048	wordpools/wasnorm_wordpool_576.txt	LTP278	ltpFR2	3	7	PORK	1108	n/a	n/a	0	0	0
1549.07	n/a	REC_WORD	774535	wordpools/wasnorm_wordpool_576.txt	LTP278	ltpFR2	3	7	EXPERT	543	n/a	n/a	0	0	0
1550.002	n/a	REC_WORD	775001	wordpools/wasnorm_wordpool_576.txt	LTP278	ltpFR2	3	7	TROMBONE	1508	n/a	n/a	0	0	0
1603.322	n/a	REC_WORD	801661	wordpools/wasnorm_wordpool_576.txt	LTP278	ltpFR2	3	7	SUSPECT	1415	n/a	n/a	0	0	0
1635.616	n/a	WORD	817808	wordpools/wasnorm_wordpool_576.txt	LTP278	ltpFR2	3	8	WASP	1593	n/a	n/a	0	0	0
1638.162	n/a	WORD	819081	wordpools/wasnorm_wordpool_576.txt	LTP278	ltpFR2	3	8	WITNESS	1618	n/a	n/a	0	0	0
1640.754	n/a	WORD	820377	wordpools/wasnorm_wordpool_576.txt	LTP278	ltpFR2	3	8	LAGOON	795	n/a	n/a	0	0	0
1643.276	n/a	WORD	821638	wordpools/wasnorm_wordpool_576.txt	LTP278	ltpFR2	3	8	LACE	792	n/a	n/a	0	0	0
1645.924	n/a	WORD	822962	wordpools/wasnorm_wordpool_576.txt	LTP278	ltpFR2	3	8	MATCH	878	n/a	n/a	0	0	0
1648.532	n/a	WORD	824266	wordpools/wasnorm_wordpool_576.txt	LTP278	ltpFR2	3	8	PUPPY	1144	n/a	n/a	0	0	0
1650.992	n/a	WORD	825496	wordpools/wasnorm_wordpool_576.txt	LTP278	ltpFR2	3	8	CATCHER	258	n/a	n/a	0	0	0
1653.702	n/a	WORD	826851	wordpools/wasnorm_wordpool_576.txt	LTP278	ltpFR2	3	8	OUTLAW	989	n/a	n/a	0	0	0
1656.146	n/a	WORD	828073	wordpools/wasnorm_wordpool_576.txt	LTP278	ltpFR2	3	8	PISTOL	1075	n/a	n/a	0	0	0
1658.572	n/a	WORD	829286	wordpools/wasnorm_wordpool_576.txt	LTP278	ltpFR2	3	8	CLIMBER	323	n/a	n/a	0	0	0
1661.316	n/a	WORD	830658	wordpools/wasnorm_wordpool_576.txt	LTP278	ltpFR2	3	8	PILOT	1070	n/a	n/a	0	0	0
1663.954	n/a	WORD	831977	wordpools/wasnorm_wordpool_576.txt	LTP278	ltpFR2	3	8	AIRPORT	13	n/a	n/a	0	0	0
1666.414	n/a	WORD	833207	wordpools/wasnorm_wordpool_576.txt	LTP278	ltpFR2	3	8	CRATER	400	n/a	n/a	0	0	0
1668.928	n/a	WORD	834464	wordpools/wasnorm_wordpool_576.txt	LTP278	ltpFR2	3	8	VIRUS	1572	n/a	n/a	0	0	0
1671.404	n/a	WORD	835702	wordpools/wasnorm_wordpool_576.txt	LTP278	ltpFR2	3	8	SHIRT	1287	n/a	n/a	0	0	0
1674.066	n/a	WORD	837033	wordpools/wasnorm_wordpool_576.txt	LTP278	ltpFR2	3	8	JEANS	752	n/a	n/a	0	0	0
1676.59	n/a	WORD	838295	wordpools/wasnorm_wordpool_576.txt	LTP278	ltpFR2	3	8	DRESS	495	n/a	n/a	0	0	0
1679.034	n/a	WORD	839517	wordpools/wasnorm_wordpool_576.txt	LTP278	ltpFR2	3	8	INMATE	738	n/a	n/a	0	0	0
1681.66	n/a	WORD	840830	wordpools/wasnorm_wordpool_576.txt	LTP278	ltpFR2	3	8	SIDEWALK	1303	n/a	n/a	0	0	0
1684.47	n/a	WORD	842235	wordpools/wasnorm_wordpool_576.txt	LTP278	ltpFR2	3	8	PLIERS	1089	n/a	n/a	0	0	0
1687.098	n/a	WORD	843549	wordpools/wasnorm_wordpool_576.txt	LTP278	ltpFR2	3	8	IGLOO	734	n/a	n/a	0	0	0
1689.652	n/a	WORD	844826	wordpools/wasnorm_wordpool_576.txt	LTP278	ltpFR2	3	8	SAUSAGE	1238	n/a	n/a	0	0	0
1692.318	n/a	WORD	846159	wordpools/wasnorm_wordpool_576.txt	LTP278	ltpFR2	3	8	SHELF	1280	n/a	n/a	0	0	0
1695.124	n/a	WORD	847562	wordpools/wasnorm_wordpool_576.txt	LTP278	ltpFR2	3	8	BLACKBOARD	133	n/a	n/a	0	0	0
1696.734	n/a	START	848367	n/a	LTP278	ltpFR2	3	n/a	n/a	n/a	10	n/a	n/a	n/a	n/a
1697.79	n/a	DISTRACTOR	848895	n/a	LTP278	ltpFR2	3	8	n/a	n/a	n/a	n/a	0	0	0
1697.804	n/a	PROB	848902	n/a	LTP278	ltpFR2	3	n/a	n/a	n/a	10	18	7	3	8
1699.408	n/a	PROB	849704	n/a	LTP278	ltpFR2	3	n/a	n/a	n/a	10	12	7	1	4
1702.184	n/a	PROB	851092	n/a	LTP278	ltpFR2	3	n/a	n/a	n/a	10	17	7	6	4
1703.706	n/a	PROB	851853	n/a	LTP278	ltpFR2	3	n/a	n/a	n/a	10	17	3	5	9
1705.596	n/a	PROB	852798	n/a	LTP278	ltpFR2	3	n/a	n/a	n/a	10	15	4	7	4
1707.236	n/a	PROB	853618	n/a	LTP278	ltpFR2	3	n/a	n/a	n/a	10	16	3	4	9
1708.964	n/a	PROB	854482	n/a	LTP278	ltpFR2	3	n/a	n/a	n/a	10	10	6	2	2
1710.82	n/a	PROB	855410	n/a	LTP278	ltpFR2	3	n/a	n/a	n/a	10	10	1	3	6
1711.972	n/a	PROB	855986	n/a	LTP278	ltpFR2	3	n/a	n/a	n/a	10	14	2	6	6
1713.544	n/a	PROB	856772	n/a	LTP278	ltpFR2	3	n/a	n/a	n/a	10	15	4	8	3
1715.418	n/a	PROB	857709	n/a	LTP278	ltpFR2	3	n/a	n/a	n/a	10	16	9	6	1
1717.894	n/a	PROB	858947	n/a	LTP278	ltpFR2	3	n/a	n/a	n/a	10	15	7	3	5
1719.206	n/a	STOP	859603	n/a	LTP278	ltpFR2	3	n/a	n/a	n/a	10	n/a	n/a	n/a	n/a
1722.634	n/a	REC_START	861317	n/a	LTP278	ltpFR2	3	8	n/a	n/a	n/a	n/a	0	0	0
1723.336	n/a	REC_WORD	861668	wordpools/wasnorm_wordpool_576.txt	LTP278	ltpFR2	3	8	SAUSAGE	1238	n/a	n/a	0	0	0
1724.464	n/a	REC_WORD	862232	wordpools/wasnorm_wordpool_576.txt	LTP278	ltpFR2	3	8	IGLOO	734	n/a	n/a	0	0	0
1725.21	n/a	REC_WORD	862605	wordpools/wasnorm_wordpool_576.txt	LTP278	ltpFR2	3	8	SHELF	1280	n/a	n/a	0	0	0
1743.722	n/a	REC_WORD	871861	wordpools/wasnorm_wordpool_576.txt	LTP278	ltpFR2	3	8	TRAIN	1494	n/a	n/a	0	0	0
1744.124	n/a	REC_WORD	872062	wordpools/wasnorm_wordpool_576.txt	LTP278	ltpFR2	3	8	CAR	241	n/a	n/a	0	0	0
1751.462	n/a	REC_WORD	875731	wordpools/wasnorm_wordpool_576.txt	LTP278	ltpFR2	3	8	AIRPORT	13	n/a	n/a	0	0	0
1776.434	n/a	REC_WORD	888217	wordpools/wasnorm_wordpool_576.txt	LTP278	ltpFR2	3	8	OFFER	-1	n/a	n/a	0	0	0
1780.2	n/a	REC_WORD	890100	wordpools/wasnorm_wordpool_576.txt	LTP278	ltpFR2	3	8	WITNESS	1618	n/a	n/a	0	0	0
1781.12	n/a	REC_WORD	890560	wordpools/wasnorm_wordpool_576.txt	LTP278	ltpFR2	3	8	WASP	1593	n/a	n/a	0	0	0
1782.814	n/a	REC_WORD	891407	wordpools/wasnorm_wordpool_576.txt	LTP278	ltpFR2	3	8	OUTLAW	989	n/a	n/a	0	0	0
1783.502	n/a	REC_WORD	891751	wordpools/wasnorm_wordpool_576.txt	LTP278	ltpFR2	3	8	PISTOL	1075	n/a	n/a	0	0	0
1785.464	n/a	REC_WORD	892732	wordpools/wasnorm_wordpool_576.txt	LTP278	ltpFR2	3	8	TRAIN	1494	n/a	n/a	0	0	0
1799.406	n/a	REST_REWET	899703	n/a	LTP278	ltpFR2	3	8	n/a	n/a	n/a	n/a	0	0	0
2221.24	n/a	DISTRACTOR	1110620	n/a	LTP278	ltpFR2	3	9	n/a	n/a	n/a	n/a	0	0	0
2221.24	n/a	START	1110620	n/a	LTP278	ltpFR2	3	n/a	n/a	n/a	11	n/a	n/a	n/a	n/a
2221.29	n/a	PROB	1110645	n/a	LTP278	ltpFR2	3	n/a	n/a	n/a	11	21	9	5	7
2223.76	n/a	PROB	1111880	n/a	LTP278	ltpFR2	3	n/a	n/a	n/a	11	15	5	7	3
2225.322	n/a	PROB	1112661	n/a	LTP278	ltpFR2	3	n/a	n/a	n/a	11	11	5	3	3
2226.772	n/a	PROB	1113386	n/a	LTP278	ltpFR2	3	n/a	n/a	n/a	11	22	9	6	7
2228.716	n/a	PROB	1114358	n/a	LTP278	ltpFR2	3	n/a	n/a	n/a	11	14	8	3	3
2230.236	n/a	PROB	1115118	n/a	LTP278	ltpFR2	3	n/a	n/a	n/a	11	7	4	2	1
2233.802	n/a	PROB	1116901	n/a	LTP278	ltpFR2	3	n/a	n/a	n/a	11	12	5	5	2
2235.076	n/a	PROB	1117538	n/a	LTP278	ltpFR2	3	n/a	n/a	n/a	11	18	7	4	7
2236.694	n/a	PROB	1118347	n/a	LTP278	ltpFR2	3	n/a	n/a	n/a	11	18	1	8	9
2238.082	n/a	PROB	1119041	n/a	LTP278	ltpFR2	3	n/a	n/a	n/a	11	11	5	4	2
2239.772	n/a	PROB	1119886	n/a	LTP278	ltpFR2	3	n/a	n/a	n/a	11	10	1	4	5
2242.554	n/a	PROB	1121277	n/a	LTP278	ltpFR2	3	n/a	n/a	n/a	11	18	5	9	4
2245.114	n/a	STOP	1122557	n/a	LTP278	ltpFR2	3	n/a	n/a	n/a	11	n/a	n/a	n/a	n/a
2246.302	n/a	WORD	1123151	wordpools/wasnorm_wordpool_576.txt	LTP278	ltpFR2	3	9	CABIN	211	n/a	n/a	0	0	0
2248.91	n/a	WORD	1124455	wordpools/wasnorm_wordpool_576.txt	LTP278	ltpFR2	3	9	YOLK	1633	n/a	n/a	0	0	0
2251.538	n/a	WORD	1125769	wordpools/wasnorm_wordpool_576.txt	LTP278	ltpFR2	3	9	ROOSTER	1209	n/a	n/a	0	0	0
2254.082	n/a	WORD	1127041	wordpools/wasnorm_wordpool_576.txt	LTP278	ltpFR2	3	9	SLIDE	1326	n/a	n/a	0	0	0
2256.874	n/a	WORD	1128437	wordpools/wasnorm_wordpool_576.txt	LTP278	ltpFR2	3	9	SHERIFF	1284	n/a	n/a	0	0	0
2259.468	n/a	WORD	1129734	wordpools/wasnorm_wordpool_576.txt	LTP278	ltpFR2	3	9	CLAMP	316	n/a	n/a	0	0	0
2261.996	n/a	WORD	1130998	wordpools/wasnorm_wordpool_576.txt	LTP278	ltpFR2	3	9	VENUS	1557	n/a	n/a	0	0	0
2264.766	n/a	WORD	1132383	wordpools/wasnorm_wordpool_576.txt	LTP278	ltpFR2	3	9	GLOBE	641	n/a	n/a	0	0	0
2267.294	n/a	WORD	1133647	wordpools/wasnorm_wordpool_576.txt	LTP278	ltpFR2	3	9	TABLET	1427	n/a	n/a	0	0	0
2269.756	n/a	WORD	1134878	wordpools/wasnorm_wordpool_576.txt	LTP278	ltpFR2	3	9	ROBIN	1199	n/a	n/a	0	0	0
2272.18	n/a	WORD	1136090	wordpools/wasnorm_wordpool_576.txt	LTP278	ltpFR2	3	9	MAILBOX	857	n/a	n/a	0	0	0
2274.71	n/a	WORD	1137355	wordpools/wasnorm_wordpool_576.txt	LTP278	ltpFR2	3	9	SUNRISE	1407	n/a	n/a	0	0	0
2277.17	n/a	WORD	1138585	wordpools/wasnorm_wordpool_576.txt	LTP278	ltpFR2	3	9	ROCKET	1202	n/a	n/a	0	0	0
2279.59	n/a	WORD	1139795	wordpools/wasnorm_wordpool_576.txt	LTP278	ltpFR2	3	9	PARROT	1015	n/a	n/a	0	0	0
2282.072	n/a	WORD	1141036	wordpools/wasnorm_wordpool_576.txt	LTP278	ltpFR2	3	9	ARMY	39	n/a	n/a	0	0	0
2284.614	n/a	WORD	1142307	wordpools/wasnorm_wordpool_576.txt	LTP278	ltpFR2	3	9	KETCHUP	771	n/a	n/a	0	0	0
2287.052	n/a	WORD	1143526	wordpools/wasnorm_wordpool_576.txt	LTP278	ltpFR2	3	9	RELISH	1183	n/a	n/a	0	0	0
2289.734	n/a	WORD	1144867	wordpools/wasnorm_wordpool_576.txt	LTP278	ltpFR2	3	9	NURSE	963	n/a	n/a	0	0	0
2292.428	n/a	WORD	1146214	wordpools/wasnorm_wordpool_576.txt	LTP278	ltpFR2	3	9	YACHT	1629	n/a	n/a	0	0	0
2295.004	n/a	WORD	1147502	wordpools/wasnorm_wordpool_576.txt	LTP278	ltpFR2	3	9	LAMP	798	n/a	n/a	0	0	0
2297.448	n/a	WORD	1148724	wordpools/wasnorm_wordpool_576.txt	LTP278	ltpFR2	3	9	DUSTPAN	509	n/a	n/a	0	0	0
2299.872	n/a	WORD	1149936	wordpools/wasnorm_wordpool_576.txt	LTP278	ltpFR2	3	9	DIVER	476	n/a	n/a	0	0	0
2302.446	n/a	WORD	1151223	wordpools/wasnorm_wordpool_576.txt	LTP278	ltpFR2	3	9	PATROL	1027	n/a	n/a	0	0	0
2305.176	n/a	WORD	1152588	wordpools/wasnorm_wordpool_576.txt	LTP278	ltpFR2	3	9	BOARD	143	n/a	n/a	0	0	0
2306.794	n/a	START	1153397	n/a	LTP278	ltpFR2	3	n/a	n/a	n/a	12	n/a	n/a	n/a	n/a
2307.774	n/a	DISTRACTOR	1153887	n/a	LTP278	ltpFR2	3	9	n/a	n/a	n/a	n/a	0	0	0
2307.786	n/a	PROB	1153893	n/a	LTP278	ltpFR2	3	n/a	n/a	n/a	12	14	5	6	3
2311.718	n/a	PROB	1155859	n/a	LTP278	ltpFR2	3	n/a	n/a	n/a	12	15	7	5	3
2314.278	n/a	PROB	1157139	n/a	LTP278	ltpFR2	3	n/a	n/a	n/a	12	8	5	2	1
2315.494	n/a	PROB	1157747	n/a	LTP278	ltpFR2	3	n/a	n/a	n/a	12	13	4	6	3
2317.034	n/a	PROB	1158517	n/a	LTP278	ltpFR2	3	n/a	n/a	n/a	12	23	6	8	9
2319.492	n/a	PROB	1159746	n/a	LTP278	ltpFR2	3	n/a	n/a	n/a	12	10	1	4	5
2320.68	n/a	PROB	1160340	n/a	LTP278	ltpFR2	3	n/a	n/a	n/a	12	19	6	9	4
2322.158	n/a	PROB	1161079	n/a	LTP278	ltpFR2	3	n/a	n/a	n/a	12	11	6	3	2
2323.574	n/a	PROB	1161787	n/a	LTP278	ltpFR2	3	n/a	n/a	n/a	12	6	1	4	1
2325.032	n/a	PROB	1162516	n/a	LTP278	ltpFR2	3	n/a	n/a	n/a	12	13	3	2	8
2326.474	n/a	PROB	1163237	n/a	LTP278	ltpFR2	3	n/a	n/a	n/a	12	15	8	4	3
2329.326	n/a	STOP	1164663	n/a	LTP278	ltpFR2	3	n/a	n/a	n/a	12	n/a	n/a	n/a	n/a
2332.628	n/a	REC_START	1166314	n/a	LTP278	ltpFR2	3	9	n/a	n/a	n/a	n/a	0	0	0
2333.226	n/a	REC_WORD	1166613	wordpools/wasnorm_wordpool_576.txt	LTP278	ltpFR2	3	9	CABIN	211	n/a	n/a	0	0	0
2334.768	n/a	REC_WORD	1167384	wordpools/wasnorm_wordpool_576.txt	LTP278	ltpFR2	3	9	ROOSTER	1209	n/a	n/a	0	0	0
2335.402	n/a	REC_WORD	1167701	wordpools/wasnorm_wordpool_576.txt	LTP278	ltpFR2	3	9	SHERIFF	1284	n/a	n/a	0	0	0
2336.436	n/a	REC_WORD	1168218	wordpools/wasnorm_wordpool_576.txt	LTP278	ltpFR2	3	9	ARMY	39	n/a	n/a	0	0	0
2337.24	n/a	REC_WORD	1168620	wordpools/wasnorm_wordpool_576.txt	LTP278	ltpFR2	3	9	VENUS	1557	n/a	n/a	0	0	0
2339.43	n/a	REC_WORD	1169715	wordpools/wasnorm_wordpool_576.txt	LTP278	ltpFR2	3	9	ROCKET	1202	n/a	n/a	0	0	0
2341.06	n/a	REC_WORD_VV	1170530	wordpools/wasnorm_wordpool_576.txt	LTP278	ltpFR2	3	9	<>	-1	n/a	n/a	0	0	0
2350.81	n/a	REC_WORD	1175405	wordpools/wasnorm_wordpool_576.txt	LTP278	ltpFR2	3	9	RELISH	1183	n/a	n/a	0	0	0
2351.872	n/a	REC_WORD	1175936	wordpools/wasnorm_wordpool_576.txt	LTP278	ltpFR2	3	9	KETCHUP	771	n/a	n/a	0	0	0
2359.894	n/a	REC_WORD	1179947	wordpools/wasnorm_wordpool_576.txt	LTP278	ltpFR2	3	9	ARMY	39	n/a	n/a	0	0	0
2377.504	n/a	REC_WORD	1188752	wordpools/wasnorm_wordpool_576.txt	LTP278	ltpFR2	3	9	ROBOT	1200	n/a	n/a	0	0	0
2378.73	n/a	REC_WORD	1189365	wordpools/wasnorm_wordpool_576.txt	LTP278	ltpFR2	3	9	RAZOR	1171	n/a	n/a	0	0	0
2423.68	n/a	WORD	1211840	wordpools/wasnorm_wordpool_576.txt	LTP278	ltpFR2	3	10	QUEEN	1149	n/a	n/a	0	0	0
2426.34	n/a	WORD	1213170	wordpools/wasnorm_wordpool_576.txt	LTP278	ltpFR2	3	10	CROWN	415	n/a	n/a	0	0	0
2429.08	n/a	WORD	1214540	wordpools/wasnorm_wordpool_576.txt	LTP278	ltpFR2	3	10	TRUCK	1512	n/a	n/a	0	0	0
2431.642	n/a	WORD	1215821	wordpools/wasnorm_wordpool_576.txt	LTP278	ltpFR2	3	10	PENGUIN	1044	n/a	n/a	0	0	0
2434.254	n/a	WORD	1217127	wordpools/wasnorm_wordpool_576.txt	LTP278	ltpFR2	3	10	BLUEPRINT	142	n/a	n/a	0	0	0
2437.048	n/a	WORD	1218524	wordpools/wasnorm_wordpool_576.txt	LTP278	ltpFR2	3	10	GRAVEL	659	n/a	n/a	0	0	0
2439.756	n/a	WORD	1219878	wordpools/wasnorm_wordpool_576.txt	LTP278	ltpFR2	3	10	BRAKE	166	n/a	n/a	0	0	0
2442.334	n/a	WORD	1221167	wordpools/wasnorm_wordpool_576.txt	LTP278	ltpFR2	3	10	BRACES	164	n/a	n/a	0	0	0
2444.944	n/a	WORD	1222472	wordpools/wasnorm_wordpool_576.txt	LTP278	ltpFR2	3	10	ITEM	746	n/a	n/a	0	0	0
2447.42	n/a	WORD	1223710	wordpools/wasnorm_wordpool_576.txt	LTP278	ltpFR2	3	10	CRITIC	410	n/a	n/a	0	0	0
2449.964	n/a	WORD	1224982	wordpools/wasnorm_wordpool_576.txt	LTP278	ltpFR2	3	10	LIPSTICK	829	n/a	n/a	0	0	0
2452.606	n/a	WORD	1226303	wordpools/wasnorm_wordpool_576.txt	LTP278	ltpFR2	3	10	RADISH	1158	n/a	n/a	0	0	0
2455.032	n/a	WORD	1227516	wordpools/wasnorm_wordpool_576.txt	LTP278	ltpFR2	3	10	FEMALE	559	n/a	n/a	0	0	0
2457.726	n/a	WORD	1228863	wordpools/wasnorm_wordpool_576.txt	LTP278	ltpFR2	3	10	KNIFE	785	n/a	n/a	0	0	0
2460.388	n/a	WORD	1230194	wordpools/wasnorm_wordpool_576.txt	LTP278	ltpFR2	3	10	HATCHET	691	n/a	n/a	0	0	0
2463.06	n/a	WORD	1231530	wordpools/wasnorm_wordpool_576.txt	LTP278	ltpFR2	3	10	GYMNAST	675	n/a	n/a	0	0	0
2465.5	n/a	WORD	1232750	wordpools/wasnorm_wordpool_576.txt	LTP278	ltpFR2	3	10	TEMPLE	1448	n/a	n/a	0	0	0
2468.3	n/a	WORD	1234150	wordpools/wasnorm_wordpool_576.txt	LTP278	ltpFR2	3	10	SALMON	1227	n/a	n/a	0	0	0
2470.892	n/a	WORD	1235446	wordpools/wasnorm_wordpool_576.txt	LTP278	ltpFR2	3	10	SCARF	1246	n/a	n/a	0	0	0
2473.518	n/a	WORD	1236759	wordpools/wasnorm_wordpool_576.txt	LTP278	ltpFR2	3	10	GAZELLE	628	n/a	n/a	0	0	0
2475.98	n/a	WORD	1237990	wordpools/wasnorm_wordpool_576.txt	LTP278	ltpFR2	3	10	MOTOR	922	n/a	n/a	0	0	0
2478.484	n/a	WORD	1239242	wordpools/wasnorm_wordpool_576.txt	LTP278	ltpFR2	3	10	COMPASS	358	n/a	n/a	0	0	0
2481.0	n/a	WORD	1240500	wordpools/wasnorm_wordpool_576.txt	LTP278	ltpFR2	3	10	SPHINX	1349	n/a	n/a	0	0	0
2483.49	n/a	WORD	1241745	wordpools/wasnorm_wordpool_576.txt	LTP278	ltpFR2	3	10	LAVA	804	n/a	n/a	0	0	0
2485.098	n/a	START	1242549	n/a	LTP278	ltpFR2	3	n/a	n/a	n/a	13	n/a	n/a	n/a	n/a
2486.262	n/a	DISTRACTOR	1243131	n/a	LTP278	ltpFR2	3	10	n/a	n/a	n/a	n/a	0	0	0
2486.27	n/a	PROB	1243135	n/a	LTP278	ltpFR2	3	n/a	n/a	n/a	13	11	2	5	4
2487.874	n/a	PROB	1243937	n/a	LTP278	ltpFR2	3	n/a	n/a	n/a	13	14	2	7	5
2489.894	n/a	PROB	1244947	n/a	LTP278	ltpFR2	3	n/a	n/a	n/a	13	6	1	4	1
2492.154	n/a	PROB	1246077	n/a	LTP278	ltpFR2	3	n/a	n/a	n/a	13	16	9	2	5
2494.362	n/a	PROB	1247181	n/a	LTP278	ltpFR2	3	n/a	n/a	n/a	13	10	6	2	2
2495.782	n/a	PROB	1247891	n/a	LTP278	ltpFR2	3	n/a	n/a	n/a	13	10	5	3	2
2497.506	n/a	PROB	1248753	n/a	LTP278	ltpFR2	3	n/a	n/a	n/a	13	10	1	1	8
2498.8	n/a	PROB	1249400	n/a	LTP278	ltpFR2	3	n/a	n/a	n/a	13	11	2	7	2
2500.218	n/a	PROB	1250109	n/a	LTP278	ltpFR2	3	n/a	n/a	n/a	13	14	7	5	2
2502.676	n/a	PROB	1251338	n/a	LTP278	ltpFR2	3	n/a	n/a	n/a	13	13	2	4	7
2505.86	n/a	PROB	1252930	n/a	LTP278	ltpFR2	3	n/a	n/a	n/a	13	11	2	4	5
2508.016	n/a	STOP	1254008	n/a	LTP278	ltpFR2	3	n/a	n/a	n/a	13	n/a	n/a	n/a	n/a
2510.98	n/a	REC_START	1255490	n/a	LTP278	ltpFR2	3	10	n/a	n/a	n/a	n/a	0	0	0
2511.292	n/a	REC_WORD	1255646	wordpools/wasnorm_wordpool_576.txt	LTP278	ltpFR2	3	10	QUEEN	1149	n/a	n/a	0	0	0
2512.276	n/a	REC_WORD	1256138	wordpools/wasnorm_wordpool_576.txt	LTP278	ltpFR2	3	10	CROWN	415	n/a	n/a	0	0	0
2513.35	n/a	REC_WORD	1256675	wordpools/wasnorm_wordpool_576.txt	LTP278	ltpFR2	3	10	PENGUIN	1044	n/a	n/a	0	0	0
2515.334	n/a	REC_WORD	1257667	wordpools/wasnorm_wordpool_576.txt	LTP278	ltpFR2	3	10	SPHINX	1349	n/a	n/a	0	0	0
2523.58	n/a	REC_WORD	1261790	wordpools/wasnorm_wordpool_576.txt	LTP278	ltpFR2	3	10	BRACES	164	n/a	n/a	0	0	0
2525.11	n/a	REC_WORD	1262555	wordpools/wasnorm_wordpool_576.txt	LTP278	ltpFR2	3	10	FEMALE	559	n/a	n/a	0	0	0
2526.49	n/a	REC_WORD	1263245	wordpools/wasnorm_wordpool_576.txt	LTP278	ltpFR2	3	10	LIPSTICK	829	n/a	n/a	0	0	0
2534.926	n/a	REC_WORD	1267463	wordpools/wasnorm_wordpool_576.txt	LTP278	ltpFR2	3	10	TRUCK	1512	n/a	n/a	0	0	0
2536.05	n/a	REC_WORD	1268025	wordpools/wasnorm_wordpool_576.txt	LTP278	ltpFR2	3	10	GRAVEL	659	n/a	n/a	0	0	0
2539.468	n/a	REC_WORD	1269734	wordpools/wasnorm_wordpool_576.txt	LTP278	ltpFR2	3	10	BRAKE	166	n/a	n/a	0	0	0
2611.748	n/a	WORD	1305874	wordpools/wasnorm_wordpool_576.txt	LTP278	ltpFR2	3	11	VIKING	1565	n/a	n/a	0	0	0
2614.174	n/a	WORD	1307087	wordpools/wasnorm_wordpool_576.txt	LTP278	ltpFR2	3	11	XEROX	1628	n/a	n/a	0	0	0
2616.85	n/a	WORD	1308425	wordpools/wasnorm_wordpool_576.txt	LTP278	ltpFR2	3	11	STONE	1385	n/a	n/a	0	0	0
2619.478	n/a	WORD	1309739	wordpools/wasnorm_wordpool_576.txt	LTP278	ltpFR2	3	11	QUARTER	1148	n/a	n/a	0	0	0
2622.004	n/a	WORD	1311002	wordpools/wasnorm_wordpool_576.txt	LTP278	ltpFR2	3	11	CELLAR	267	n/a	n/a	0	0	0
2624.512	n/a	WORD	1312256	wordpools/wasnorm_wordpool_576.txt	LTP278	ltpFR2	3	11	SNACK	1331	n/a	n/a	0	0	0
2627.174	n/a	WORD	1313587	wordpools/wasnorm_wordpool_576.txt	LTP278	ltpFR2	3	11	TURNIP	1521	n/a	n/a	0	0	0
2629.762	n/a	WORD	1314881	wordpools/wasnorm_wordpool_576.txt	LTP278	ltpFR2	3	11	GHETTO	633	n/a	n/a	0	0	0
2632.462	n/a	WORD	1316231	wordpools/wasnorm_wordpool_576.txt	LTP278	ltpFR2	3	11	LASER	801	n/a	n/a	0	0	0
2634.898	n/a	WORD	1317449	wordpools/wasnorm_wordpool_576.txt	LTP278	ltpFR2	3	11	PEBBLE	1035	n/a	n/a	0	0	0
2637.696	n/a	WORD	1318848	wordpools/wasnorm_wordpool_576.txt	LTP278	ltpFR2	3	11	BASEMENT	94	n/a	n/a	0	0	0
2640.22	n/a	WORD	1320110	wordpools/wasnorm_wordpool_576.txt	LTP278	ltpFR2	3	11	LIZARD	834	n/a	n/a	0	0	0
2642.85	n/a	WORD	1321425	wordpools/wasnorm_wordpool_576.txt	LTP278	ltpFR2	3	11	TOMBSTONE	1478	n/a	n/a	0	0	0
2645.526	n/a	WORD	1322763	wordpools/wasnorm_wordpool_576.txt	LTP278	ltpFR2	3	11	COUSIN	392	n/a	n/a	0	0	0
2648.284	n/a	WORD	1324142	wordpools/wasnorm_wordpool_576.txt	LTP278	ltpFR2	3	11	ROD	1203	n/a	n/a	0	0	0
2650.848	n/a	WORD	1325424	wordpools/wasnorm_wordpool_576.txt	LTP278	ltpFR2	3	11	CARRIAGE	248	n/a	n/a	0	0	0
2653.52	n/a	WORD	1326760	wordpools/wasnorm_wordpool_576.txt	LTP278	ltpFR2	3	11	SUBWAY	1400	n/a	n/a	0	0	0
2656.052	n/a	WORD	1328026	wordpools/wasnorm_wordpool_576.txt	LTP278	ltpFR2	3	11	SPOUSE	1358	n/a	n/a	0	0	0
2658.694	n/a	WORD	1329347	wordpools/wasnorm_wordpool_576.txt	LTP278	ltpFR2	3	11	WIFE	1609	n/a	n/a	0	0	0
2661.404	n/a	WORD	1330702	wordpools/wasnorm_wordpool_576.txt	LTP278	ltpFR2	3	11	CANYON	235	n/a	n/a	0	0	0
2664.032	n/a	WORD	1332016	wordpools/wasnorm_wordpool_576.txt	LTP278	ltpFR2	3	11	TAXI	1438	n/a	n/a	0	0	0
2666.642	n/a	WORD	1333321	wordpools/wasnorm_wordpool_576.txt	LTP278	ltpFR2	3	11	BUGGY	188	n/a	n/a	0	0	0
2669.28	n/a	WORD	1334640	wordpools/wasnorm_wordpool_576.txt	LTP278	ltpFR2	3	11	HAMPER	682	n/a	n/a	0	0	0
2672.046	n/a	WORD	1336023	wordpools/wasnorm_wordpool_576.txt	LTP278	ltpFR2	3	11	TOURIST	1488	n/a	n/a	0	0	0
2673.652	n/a	START	1336826	n/a	LTP278	ltpFR2	3	n/a	n/a	n/a	14	n/a	n/a	n/a	n/a
2674.628	n/a	DISTRACTOR	1337314	n/a	LTP278	ltpFR2	3	11	n/a	n/a	n/a	n/a	0	0	0
2674.638	n/a	PROB	1337319	n/a	LTP278	ltpFR2	3	n/a	n/a	n/a	14	8	5	1	2
2677.666	n/a	PROB	1338833	n/a	LTP278	ltpFR2	3	n/a	n/a	n/a	14	17	3	5	9
2679.686	n/a	PROB	1339843	n/a	LTP278	ltpFR2	3	n/a	n/a	n/a	14	21	3	9	9
2681.31	n/a	PROB	1340655	n/a	LTP278	ltpFR2	3	n/a	n/a	n/a	14	14	9	1	4
2683.216	n/a	PROB	1341608	n/a	LTP278	ltpFR2	3	n/a	n/a	n/a	14	10	6	3	1
2684.89	n/a	PROB	1342445	n/a	LTP278	ltpFR2	3	n/a	n/a	n/a	14	17	9	5	3
2686.58	n/a	PROB	1343290	n/a	LTP278	ltpFR2	3	n/a	n/a	n/a	14	15	9	5	1
2688.42	n/a	PROB	1344210	n/a	LTP278	ltpFR2	3	n/a	n/a	n/a	14	6	2	2	2
2689.558	n/a	PROB	1344779	n/a	LTP278	ltpFR2	3	n/a	n/a	n/a	14	21	7	6	8
2691.498	n/a	PROB	1345749	n/a	LTP278	ltpFR2	3	n/a	n/a	n/a	14	11	5	1	5
2692.652	n/a	PROB	1346326	n/a	LTP278	ltpFR2	3	n/a	n/a	n/a	14	20	9	9	2
2694.26	n/a	PROB	1347130	n/a	LTP278	ltpFR2	3	n/a	n/a	n/a	14	4	1	2	1
2695.364	n/a	PROB	1347682	n/a	LTP278	ltpFR2	3	n/a	n/a	n/a	14	19	7	3	9
2696.76	n/a	STOP	1348380	n/a	LTP278	ltpFR2	3	n/a	n/a	n/a	14	n/a	n/a	n/a	n/a
2699.464	n/a	REC_START	1349732	n/a	LTP278	ltpFR2	3	11	n/a	n/a	n/a	n/a	0	0	0
2710.78	n/a	REC_WORD	1355390	wordpools/wasnorm_wordpool_576.txt	LTP278	ltpFR2	3	11	VIKING	1565	n/a	n/a	0	0	0
2741.098	n/a	REC_WORD	1370549	wordpools/wasnorm_wordpool_576.txt	LTP278	ltpFR2	3	11	XEROX	1628	n/a	n/a	0	0	0
2790.498	n/a	DISTRACTOR	1395249	n/a	LTP278	ltpFR2	3	12	n/a	n/a	n/a	n/a	0	0	0
2790.498	n/a	START	1395249	n/a	LTP278	ltpFR2	3	n/a	n/a	n/a	15	n/a	n/a	n/a	n/a
2790.548	n/a	PROB	1395274	n/a	LTP278	ltpFR2	3	n/a	n/a	n/a	15	25	9	8	8
2792.154	n/a	PROB	1396077	n/a	LTP278	ltpFR2	3	n/a	n/a	n/a	15	16	4	5	7
2793.926	n/a	PROB	1396963	n/a	LTP278	ltpFR2	3	n/a	n/a	n/a	15	24	7	8	9
2796.132	n/a	PROB	1398066	n/a	LTP278	ltpFR2	3	n/a	n/a	n/a	15	16	2	5	9
2798.358	n/a	PROB	1399179	n/a	LTP278	ltpFR2	3	n/a	n/a	n/a	15	14	7	5	2
2800.018	n/a	PROB	1400009	n/a	LTP278	ltpFR2	3	n/a	n/a	n/a	15	13	7	4	2
2801.824	n/a	PROB	1400912	n/a	LTP278	ltpFR2	3	n/a	n/a	n/a	15	17	4	6	7
2803.898	n/a	PROB	1401949	n/a	LTP278	ltpFR2	3	n/a	n/a	n/a	15	24	8	9	7
2806.52	n/a	PROB	1403260	n/a	LTP278	ltpFR2	3	n/a	n/a	n/a	15	20	6	7	7
2808.228	n/a	PROB	1404114	n/a	LTP278	ltpFR2	3	n/a	n/a	n/a	15	10	5	1	4
2809.5	n/a	PROB	1404750	n/a	LTP278	ltpFR2	3	n/a	n/a	n/a	15	1	1	3	6
2810.552	n/a	PROB	1405276	n/a	LTP278	ltpFR2	3	n/a	n/a	n/a	15	21	4	9	8
2812.984	n/a	STOP	1406492	n/a	LTP278	ltpFR2	3	n/a	n/a	n/a	15	n/a	n/a	n/a	n/a
2815.494	n/a	WORD	1407747	wordpools/wasnorm_wordpool_576.txt	LTP278	ltpFR2	3	12	BINDER	127	n/a	n/a	0	0	0
2818.1	n/a	WORD	1409050	wordpools/wasnorm_wordpool_576.txt	LTP278	ltpFR2	3	12	ULCER	1533	n/a	n/a	0	0	0
2820.626	n/a	WORD	1410313	wordpools/wasnorm_wordpool_576.txt	LTP278	ltpFR2	3	12	STOMACH	1384	n/a	n/a	0	0	0
2823.27	n/a	WORD	1411635	wordpools/wasnorm_wordpool_576.txt	LTP278	ltpFR2	3	12	UMPIRE	1535	n/a	n/a	0	0	0
2826.018	n/a	WORD	1413009	wordpools/wasnorm_wordpool_576.txt	LTP278	ltpFR2	3	12	STAKE	1368	n/a	n/a	0	0	0
2828.76	n/a	WORD	1414380	wordpools/wasnorm_wordpool_576.txt	LTP278	ltpFR2	3	12	COOK	372	n/a	n/a	0	0	0
2831.282	n/a	WORD	1415641	wordpools/wasnorm_wordpool_576.txt	LTP278	ltpFR2	3	12	KITCHEN	778	n/a	n/a	0	0	0
2834.098	n/a	WORD	1417049	wordpools/wasnorm_wordpool_576.txt	LTP278	ltpFR2	3	12	HERO	706	n/a	n/a	0	0	0
2836.786	n/a	WORD	1418393	wordpools/wasnorm_wordpool_576.txt	LTP278	ltpFR2	3	12	LILY	821	n/a	n/a	0	0	0
2839.218	n/a	WORD	1419609	wordpools/wasnorm_wordpool_576.txt	LTP278	ltpFR2	3	12	HEART	697	n/a	n/a	0	0	0
2841.81	n/a	WORD	1420905	wordpools/wasnorm_wordpool_576.txt	LTP278	ltpFR2	3	12	THREAD	1460	n/a	n/a	0	0	0
2844.484	n/a	WORD	1422242	wordpools/wasnorm_wordpool_576.txt	LTP278	ltpFR2	3	12	RATTLE	1170	n/a	n/a	0	0	0
2847.144	n/a	WORD	1423572	wordpools/wasnorm_wordpool_576.txt	LTP278	ltpFR2	3	12	SKETCH	1315	n/a	n/a	0	0	0
2849.858	n/a	WORD	1424929	wordpools/wasnorm_wordpool_576.txt	LTP278	ltpFR2	3	12	PAPER	1011	n/a	n/a	0	0	0
2852.652	n/a	WORD	1426326	wordpools/wasnorm_wordpool_576.txt	LTP278	ltpFR2	3	12	COLLEGE	346	n/a	n/a	0	0	0
2855.346	n/a	WORD	1427673	wordpools/wasnorm_wordpool_576.txt	LTP278	ltpFR2	3	12	UNCLE	1536	n/a	n/a	0	0	0
2858.14	n/a	WORD	1429070	wordpools/wasnorm_wordpool_576.txt	LTP278	ltpFR2	3	12	TURKEY	1520	n/a	n/a	0	0	0
2860.862	n/a	WORD	1430431	wordpools/wasnorm_wordpool_576.txt	LTP278	ltpFR2	3	12	ANTLER	29	n/a	n/a	0	0	0
2863.64	n/a	WORD	1431820	wordpools/wasnorm_wordpool_576.txt	LTP278	ltpFR2	3	12	CHAUFFEUR	283	n/a	n/a	0	0	0
2866.238	n/a	WORD	1433119	wordpools/wasnorm_wordpool_576.txt	LTP278	ltpFR2	3	12	OUTDOORS	987	n/a	n/a	0	0	0
2868.994	n/a	WORD	1434497	wordpools/wasnorm_wordpool_576.txt	LTP278	ltpFR2	3	12	DRAWING	494	n/a	n/a	0	0	0
2871.738	n/a	WORD	1435869	wordpools/wasnorm_wordpool_576.txt	LTP278	ltpFR2	3	12	CHILD	299	n/a	n/a	0	0	0
2874.168	n/a	WORD	1437084	wordpools/wasnorm_wordpool_576.txt	LTP278	ltpFR2	3	12	BODY	145	n/a	n/a	0	0	0
2876.98	n/a	WORD	1438490	wordpools/wasnorm_wordpool_576.txt	LTP278	ltpFR2	3	12	PARENT	1013	n/a	n/a	0	0	0
2878.596	n/a	START	1439298	n/a	LTP278	ltpFR2	3	n/a	n/a	n/a	16	n/a	n/a	n/a	n/a
2879.714	n/a	DISTRACTOR	1439857	n/a	LTP278	ltpFR2	3	12	n/a	n/a	n/a	n/a	0	0	0
2879.722	n/a	PROB	1439861	n/a	LTP278	ltpFR2	3	n/a	n/a	n/a	16	15	6	6	3
2883.934	n/a	PROB	1441967	n/a	LTP278	ltpFR2	3	n/a	n/a	n/a	16	15	5	3	7
2885.478	n/a	PROB	1442739	n/a	LTP278	ltpFR2	3	n/a	n/a	n/a	16	13	2	5	6
2887.196	n/a	PROB	1443598	n/a	LTP278	ltpFR2	3	n/a	n/a	n/a	16	18	7	4	7
2888.734	n/a	PROB	1444367	n/a	LTP278	ltpFR2	3	n/a	n/a	n/a	16	10	2	3	5
2889.99	n/a	PROB	1444995	n/a	LTP278	ltpFR2	3	n/a	n/a	n/a	16	19	6	9	4
2891.798	n/a	PROB	1445899	n/a	LTP278	ltpFR2	3	n/a	n/a	n/a	16	17	5	9	3
2894.09	n/a	PROB	1447045	n/a	LTP278	ltpFR2	3	n/a	n/a	n/a	16	9	2	4	3
2897.09	n/a	PROB	1448545	n/a	LTP278	ltpFR2	3	n/a	n/a	n/a	16	12	4	3	5
2900.146	n/a	PROB	1450073	n/a	LTP278	ltpFR2	3	n/a	n/a	n/a	16	12	4	3	5
2901.068	n/a	STOP	1450534	n/a	LTP278	ltpFR2	3	n/a	n/a	n/a	16	n/a	n/a	n/a	n/a
2904.384	n/a	REC_START	1452192	n/a	LTP278	ltpFR2	3	12	n/a	n/a	n/a	n/a	0	0	0
2917.546	n/a	REC_WORD	1458773	wordpools/wasnorm_wordpool_576.txt	LTP278	ltpFR2	3	12	ULCER	1533	n/a	n/a	0	0	0
2918.964	n/a	REC_WORD	1459482	wordpools/wasnorm_wordpool_576.txt	LTP278	ltpFR2	3	12	STOMACH	1384	n/a	n/a	0	0	0
2920.924	n/a	REC_WORD	1460462	wordpools/wasnorm_wordpool_576.txt	LTP278	ltpFR2	3	12	CHAUFFEUR	283	n/a	n/a	0	0	0
2926.35	n/a	REC_WORD	1463175	wordpools/wasnorm_wordpool_576.txt	LTP278	ltpFR2	3	12	UMPIRE	1535	n/a	n/a	0	0	0
2930.946	n/a	REC_WORD	1465473	wordpools/wasnorm_wordpool_576.txt	LTP278	ltpFR2	3	12	STAKE	1368	n/a	n/a	0	0	0
2995.398	n/a	DISTRACTOR	1497699	n/a	LTP278	ltpFR2	3	13	n/a	n/a	n/a	n/a	0	0	0
2995.398	n/a	START	1497699	n/a	LTP278	ltpFR2	3	n/a	n/a	n/a	17	n/a	n/a	n/a	n/a
2995.448	n/a	PROB	1497724	n/a	LTP278	ltpFR2	3	n/a	n/a	n/a	17	11	6	1	4
2996.786	n/a	PROB	1498393	n/a	LTP278	ltpFR2	3	n/a	n/a	n/a	17	23	9	6	8
3000.212	n/a	PROB	1500106	n/a	LTP278	ltpFR2	3	n/a	n/a	n/a	17	13	7	1	5
3001.9	n/a	PROB	1500950	n/a	LTP278	ltpFR2	3	n/a	n/a	n/a	17	20	8	4	8
3004.028	n/a	PROB	1502014	n/a	LTP278	ltpFR2	3	n/a	n/a	n/a	17	13	4	8	1
3007.556	n/a	PROB	1503778	n/a	LTP278	ltpFR2	3	n/a	n/a	n/a	17	10	2	4	4
3009.046	n/a	PROB	1504523	n/a	LTP278	ltpFR2	3	n/a	n/a	n/a	17	16	1	9	6
3010.406	n/a	PROB	1505203	n/a	LTP278	ltpFR2	3	n/a	n/a	n/a	17	19	8	5	6
3012.464	n/a	PROB	1506232	n/a	LTP278	ltpFR2	3	n/a	n/a	n/a	17	18	7	6	5
3014.934	n/a	PROB	1507467	n/a	LTP278	ltpFR2	3	n/a	n/a	n/a	17	13	1	4	9
3019.4	n/a	STOP	1509700	n/a	LTP278	ltpFR2	3	n/a	n/a	n/a	17	n/a	n/a	n/a	n/a
3020.542	n/a	WORD	1510271	wordpools/wasnorm_wordpool_576.txt	LTP278	ltpFR2	3	13	COUNTRY	388	n/a	n/a	0	0	0
3023.272	n/a	WORD	1511636	wordpools/wasnorm_wordpool_576.txt	LTP278	ltpFR2	3	13	DRINK	498	n/a	n/a	0	0	0
3025.714	n/a	WORD	1512857	wordpools/wasnorm_wordpool_576.txt	LTP278	ltpFR2	3	13	NIGHTGOWN	953	n/a	n/a	0	0	0
3028.19	n/a	WORD	1514095	wordpools/wasnorm_wordpool_576.txt	LTP278	ltpFR2	3	13	JAPAN	749	n/a	n/a	0	0	0
3030.782	n/a	WORD	1515391	wordpools/wasnorm_wordpool_576.txt	LTP278	ltpFR2	3	13	BLOCKADE	137	n/a	n/a	0	0	0
3033.526	n/a	WORD	1516763	wordpools/wasnorm_wordpool_576.txt	LTP278	ltpFR2	3	13	SCALLOP	1242	n/a	n/a	0	0	0
3035.968	n/a	WORD	1517984	wordpools/wasnorm_wordpool_576.txt	LTP278	ltpFR2	3	13	PERCH	1048	n/a	n/a	0	0	0
3038.78	n/a	WORD	1519390	wordpools/wasnorm_wordpool_576.txt	LTP278	ltpFR2	3	13	COD	340	n/a	n/a	0	0	0
3041.358	n/a	WORD	1520679	wordpools/wasnorm_wordpool_576.txt	LTP278	ltpFR2	3	13	SWIMMER	1420	n/a	n/a	0	0	0
3043.8	n/a	WORD	1521900	wordpools/wasnorm_wordpool_576.txt	LTP278	ltpFR2	3	13	TUTU	1524	n/a	n/a	0	0	0
3046.46	n/a	WORD	1523230	wordpools/wasnorm_wordpool_576.txt	LTP278	ltpFR2	3	13	WIDOW	1608	n/a	n/a	0	0	0
3048.918	n/a	WORD	1524459	wordpools/wasnorm_wordpool_576.txt	LTP278	ltpFR2	3	13	FINGER	567	n/a	n/a	0	0	0
3051.346	n/a	WORD	1525673	wordpools/wasnorm_wordpool_576.txt	LTP278	ltpFR2	3	13	GLOVE	642	n/a	n/a	0	0	0
3054.122	n/a	WORD	1527061	wordpools/wasnorm_wordpool_576.txt	LTP278	ltpFR2	3	13	SNAKE	1333	n/a	n/a	0	0	0
3056.66	n/a	WORD	1528330	wordpools/wasnorm_wordpool_576.txt	LTP278	ltpFR2	3	13	PUDDLE	1140	n/a	n/a	0	0	0
3059.226	n/a	WORD	1529613	wordpools/wasnorm_wordpool_576.txt	LTP278	ltpFR2	3	13	BATHTUB	100	n/a	n/a	0	0	0
3061.852	n/a	WORD	1530926	wordpools/wasnorm_wordpool_576.txt	LTP278	ltpFR2	3	13	LONDON	843	n/a	n/a	0	0	0
3064.662	n/a	WORD	1532331	wordpools/wasnorm_wordpool_576.txt	LTP278	ltpFR2	3	13	MATTRESS	879	n/a	n/a	0	0	0
3067.306	n/a	WORD	1533653	wordpools/wasnorm_wordpool_576.txt	LTP278	ltpFR2	3	13	COOKBOOK	373	n/a	n/a	0	0	0
3070.1	n/a	WORD	1535050	wordpools/wasnorm_wordpool_576.txt	LTP278	ltpFR2	3	13	ASIA	46	n/a	n/a	0	0	0
3072.81	n/a	WORD	1536405	wordpools/wasnorm_wordpool_576.txt	LTP278	ltpFR2	3	13	ZEBRA	1635	n/a	n/a	0	0	0
3075.236	n/a	WORD	1537618	wordpools/wasnorm_wordpool_576.txt	LTP278	ltpFR2	3	13	BEAVER	109	n/a	n/a	0	0	0
3078.026	n/a	WORD	1539013	wordpools/wasnorm_wordpool_576.txt	LTP278	ltpFR2	3	13	BACON	67	n/a	n/a	0	0	0
3080.636	n/a	WORD	1540318	wordpools/wasnorm_wordpool_576.txt	LTP278	ltpFR2	3	13	CANDY	230	n/a	n/a	0	0	0
3082.248	n/a	START	1541124	n/a	LTP278	ltpFR2	3	n/a	n/a	n/a	18	n/a	n/a	n/a	n/a
3083.376	n/a	DISTRACTOR	1541688	n/a	LTP278	ltpFR2	3	13	n/a	n/a	n/a	n/a	0	0	0
3083.384	n/a	PROB	1541692	n/a	LTP278	ltpFR2	3	n/a	n/a	n/a	18	19	8	7	4
3086.19	n/a	PROB	1543095	n/a	LTP278	ltpFR2	3	n/a	n/a	n/a	18	21	1	8	9
3089.168	n/a	PROB	1544584	n/a	LTP278	ltpFR2	3	n/a	n/a	n/a	18	13	5	1	7
3090.824	n/a	PROB	1545412	n/a	LTP278	ltpFR2	3	n/a	n/a	n/a	18	11	4	1	6
3092.53	n/a	PROB	1546265	n/a	LTP278	ltpFR2	3	n/a	n/a	n/a	18	15	5	1	9
3095.212	n/a	PROB	1547606	n/a	LTP278	ltpFR2	3	n/a	n/a	n/a	18	23	6	8	9
3097.166	n/a	PROB	1548583	n/a	LTP278	ltpFR2	3	n/a	n/a	n/a	18	24	6	9	9
3101.082	n/a	PROB	1550541	n/a	LTP278	ltpFR2	3	n/a	n/a	n/a	18	13	7	3	3
3102.704	n/a	PROB	1551352	n/a	LTP278	ltpFR2	3	n/a	n/a	n/a	18	10	8	1	1
3103.874	n/a	PROB	1551937	n/a	LTP278	ltpFR2	3	n/a	n/a	n/a	18	22	8	9	5
3105.91	n/a	STOP	1552955	n/a	LTP278	ltpFR2	3	n/a	n/a	n/a	18	n/a	n/a	n/a	n/a
3108.176	n/a	REC_START	1554088	n/a	LTP278	ltpFR2	3	13	n/a	n/a	n/a	n/a	0	0	0
3122.716	n/a	REC_WORD	1561358	wordpools/wasnorm_wordpool_576.txt	LTP278	ltpFR2	3	13	JAPAN	749	n/a	n/a	0	0	0
3123.526	n/a	REC_WORD	1561763	wordpools/wasnorm_wordpool_576.txt	LTP278	ltpFR2	3	13	SCALLOP	1242	n/a	n/a	0	0	0
3124.336	n/a	REC_WORD	1562168	wordpools/wasnorm_wordpool_576.txt	LTP278	ltpFR2	3	13	COD	340	n/a	n/a	0	0	0
3125.68	n/a	REC_WORD	1562840	wordpools/wasnorm_wordpool_576.txt	LTP278	ltpFR2	3	13	NIGHTGOWN	953	n/a	n/a	0	0	0
3126.582	n/a	REC_WORD	1563291	wordpools/wasnorm_wordpool_576.txt	LTP278	ltpFR2	3	13	COUNTRY	388	n/a	n/a	0	0	0
3127.664	n/a	REC_WORD	1563832	wordpools/wasnorm_wordpool_576.txt	LTP278	ltpFR2	3	13	DRINK	498	n/a	n/a	0	0	0
3130.28	n/a	REC_WORD	1565140	wordpools/wasnorm_wordpool_576.txt	LTP278	ltpFR2	3	13	SWIMMER	1420	n/a	n/a	0	0	0
3132.238	n/a	REC_WORD	1566119	wordpools/wasnorm_wordpool_576.txt	LTP278	ltpFR2	3	13	BLOCKADE	137	n/a	n/a	0	0	0
3135.77	n/a	REC_WORD	1567885	wordpools/wasnorm_wordpool_576.txt	LTP278	ltpFR2	3	13	TUTU	1524	n/a	n/a	0	0	0
3227.936	n/a	DISTRACTOR	1613968	n/a	LTP278	ltpFR2	3	14	n/a	n/a	n/a	n/a	0	0	0
3227.936	n/a	START	1613968	n/a	LTP278	ltpFR2	3	n/a	n/a	n/a	19	n/a	n/a	n/a	n/a
3227.986	n/a	PROB	1613993	n/a	LTP278	ltpFR2	3	n/a	n/a	n/a	19	14	7	1	6
3229.756	n/a	PROB	1614878	n/a	LTP278	ltpFR2	3	n/a	n/a	n/a	19	18	3	6	9
3231.216	n/a	PROB	1615608	n/a	LTP278	ltpFR2	3	n/a	n/a	n/a	19	9	4	4	1
3233.37	n/a	PROB	1616685	n/a	LTP278	ltpFR2	3	n/a	n/a	n/a	19	15	2	9	4
3235.928	n/a	PROB	1617964	n/a	LTP278	ltpFR2	3	n/a	n/a	n/a	19	13	7	2	4
3237.586	n/a	PROB	1618793	n/a	LTP278	ltpFR2	3	n/a	n/a	n/a	19	13	5	5	3
3238.722	n/a	PROB	1619361	n/a	LTP278	ltpFR2	3	n/a	n/a	n/a	19	10	7	2	1
3240.062	n/a	PROB	1620031	n/a	LTP278	ltpFR2	3	n/a	n/a	n/a	19	13	4	2	7
3242.002	n/a	PROB	1621001	n/a	LTP278	ltpFR2	3	n/a	n/a	n/a	19	15	2	5	8
3243.378	n/a	PROB	1621689	n/a	LTP278	ltpFR2	3	n/a	n/a	n/a	19	16	3	6	7
3246.324	n/a	PROB	1623162	n/a	LTP278	ltpFR2	3	n/a	n/a	n/a	19	9	5	1	2
3248.082	n/a	PROB	1624041	n/a	LTP278	ltpFR2	3	n/a	n/a	n/a	19	16	9	1	6
3251.008	n/a	STOP	1625504	n/a	LTP278	ltpFR2	3	n/a	n/a	n/a	19	n/a	n/a	n/a	n/a
3252.844	n/a	WORD	1626422	wordpools/wasnorm_wordpool_576.txt	LTP278	ltpFR2	3	14	WASHER	1592	n/a	n/a	0	0	0
3255.57	n/a	WORD	1627785	wordpools/wasnorm_wordpool_576.txt	LTP278	ltpFR2	3	14	FIDDLE	561	n/a	n/a	0	0	0
3258.252	n/a	WORD	1629126	wordpools/wasnorm_wordpool_576.txt	LTP278	ltpFR2	3	14	GARDEN	623	n/a	n/a	0	0	0
3260.94	n/a	WORD	1630470	wordpools/wasnorm_wordpool_576.txt	LTP278	ltpFR2	3	14	STALLION	1369	n/a	n/a	0	0	0
3263.388	n/a	WORD	1631694	wordpools/wasnorm_wordpool_576.txt	LTP278	ltpFR2	3	14	PERMIT	1051	n/a	n/a	0	0	0
3266.05	n/a	WORD	1633025	wordpools/wasnorm_wordpool_576.txt	LTP278	ltpFR2	3	14	SURVEY	1414	n/a	n/a	0	0	0
3268.726	n/a	WORD	1634363	wordpools/wasnorm_wordpool_576.txt	LTP278	ltpFR2	3	14	HOOK	715	n/a	n/a	0	0	0
3271.436	n/a	WORD	1635718	wordpools/wasnorm_wordpool_576.txt	LTP278	ltpFR2	3	14	FLIPPER	580	n/a	n/a	0	0	0
3274.214	n/a	WORD	1637107	wordpools/wasnorm_wordpool_576.txt	LTP278	ltpFR2	3	14	SCULPTURE	1258	n/a	n/a	0	0	0
3276.84	n/a	WORD	1638420	wordpools/wasnorm_wordpool_576.txt	LTP278	ltpFR2	3	14	TUBA	1515	n/a	n/a	0	0	0
3279.346	n/a	WORD	1639673	wordpools/wasnorm_wordpool_576.txt	LTP278	ltpFR2	3	14	HIGHWAY	707	n/a	n/a	0	0	0
3281.786	n/a	WORD	1640893	wordpools/wasnorm_wordpool_576.txt	LTP278	ltpFR2	3	14	COURSE	390	n/a	n/a	0	0	0
3284.302	n/a	WORD	1642151	wordpools/wasnorm_wordpool_576.txt	LTP278	ltpFR2	3	14	IDOL	733	n/a	n/a	0	0	0
3286.844	n/a	WORD	1643422	wordpools/wasnorm_wordpool_576.txt	LTP278	ltpFR2	3	14	GUITAR	670	n/a	n/a	0	0	0
3289.606	n/a	WORD	1644803	wordpools/wasnorm_wordpool_576.txt	LTP278	ltpFR2	3	14	EUROPE	541	n/a	n/a	0	0	0
3292.166	n/a	WORD	1646083	wordpools/wasnorm_wordpool_576.txt	LTP278	ltpFR2	3	14	CHEST	295	n/a	n/a	0	0	0
3294.754	n/a	WORD	1647377	wordpools/wasnorm_wordpool_576.txt	LTP278	ltpFR2	3	14	MOP	916	n/a	n/a	0	0	0
3297.47	n/a	WORD	1648735	wordpools/wasnorm_wordpool_576.txt	LTP278	ltpFR2	3	14	KIDNEY	776	n/a	n/a	0	0	0
3300.162	n/a	WORD	1650081	wordpools/wasnorm_wordpool_576.txt	LTP278	ltpFR2	3	14	MAMMAL	861	n/a	n/a	0	0	0
3302.918	n/a	WORD	1651459	wordpools/wasnorm_wordpool_576.txt	LTP278	ltpFR2	3	14	SCOTCH	1251	n/a	n/a	0	0	0
3305.35	n/a	WORD	1652675	wordpools/wasnorm_wordpool_576.txt	LTP278	ltpFR2	3	14	NECKLACE	940	n/a	n/a	0	0	0
3307.87	n/a	WORD	1653935	wordpools/wasnorm_wordpool_576.txt	LTP278	ltpFR2	3	14	BROTHER	179	n/a	n/a	0	0	0
3310.386	n/a	WORD	1655193	wordpools/wasnorm_wordpool_576.txt	LTP278	ltpFR2	3	14	CHAPEL	280	n/a	n/a	0	0	0
3312.86	n/a	WORD	1656430	wordpools/wasnorm_wordpool_576.txt	LTP278	ltpFR2	3	14	FRIAR	605	n/a	n/a	0	0	0
3314.468	n/a	START	1657234	n/a	LTP278	ltpFR2	3	n/a	n/a	n/a	20	n/a	n/a	n/a	n/a
3315.302	n/a	DISTRACTOR	1657651	n/a	LTP278	ltpFR2	3	14	n/a	n/a	n/a	n/a	0	0	0
3315.316	n/a	PROB	1657658	n/a	LTP278	ltpFR2	3	n/a	n/a	n/a	20	9	5	1	3
3316.91	n/a	PROB	1658455	n/a	LTP278	ltpFR2	3	n/a	n/a	n/a	20	14	4	2	8
3318.694	n/a	PROB	1659347	n/a	LTP278	ltpFR2	3	n/a	n/a	n/a	20	22	9	5	8
3322.762	n/a	PROB	1661381	n/a	LTP278	ltpFR2	3	n/a	n/a	n/a	20	14	2	6	6
3324.79	n/a	PROB	1662395	n/a	LTP278	ltpFR2	3	n/a	n/a	n/a	20	6	2	2	2
3326.262	n/a	PROB	1663131	n/a	LTP278	ltpFR2	3	n/a	n/a	n/a	20	15	1	5	9
3327.852	n/a	PROB	1663926	n/a	LTP278	ltpFR2	3	n/a	n/a	n/a	20	9	1	4	4
3329.536	n/a	PROB	1664768	n/a	LTP278	ltpFR2	3	n/a	n/a	n/a	20	16	5	7	4
3331.678	n/a	PROB	1665839	n/a	LTP278	ltpFR2	3	n/a	n/a	n/a	20	13	2	4	7
3333.836	n/a	PROB	1666918	n/a	LTP278	ltpFR2	3	n/a	n/a	n/a	20	10	7	1	2
3335.326	n/a	PROB	1667663	n/a	LTP278	ltpFR2	3	n/a	n/a	n/a	20	18	4	8	6
3337.404	n/a	STOP	1668702	n/a	LTP278	ltpFR2	3	n/a	n/a	n/a	20	n/a	n/a	n/a	n/a
3340.33	n/a	REC_START	1670165	n/a	LTP278	ltpFR2	3	14	n/a	n/a	n/a	n/a	0	0	0
3341.286	n/a	REC_WORD	1670643	wordpools/wasnorm_wordpool_576.txt	LTP278	ltpFR2	3	14	BROTHER	179	n/a	n/a	0	0	0
3342.084	n/a	REC_WORD	1671042	wordpools/wasnorm_wordpool_576.txt	LTP278	ltpFR2	3	14	FIDDLE	561	n/a	n/a	0	0	0
3342.984	n/a	REC_WORD	1671492	wordpools/wasnorm_wordpool_576.txt	LTP278	ltpFR2	3	14	WASHER	1592	n/a	n/a	0	0	0
3344.006	n/a	REC_WORD	1672003	wordpools/wasnorm_wordpool_576.txt	LTP278	ltpFR2	3	14	GARDEN	623	n/a	n/a	0	0	0
3344.806	n/a	REC_WORD	1672403	wordpools/wasnorm_wordpool_576.txt	LTP278	ltpFR2	3	14	STALLION	1369	n/a	n/a	0	0	0
3364.322	n/a	REC_WORD	1682161	wordpools/wasnorm_wordpool_576.txt	LTP278	ltpFR2	3	14	MOP	916	n/a	n/a	0	0	0
3431.364	n/a	WORD	1715682	wordpools/wasnorm_wordpool_576.txt	LTP278	ltpFR2	3	15	LAKE	796	n/a	n/a	0	0	0
3434.176	n/a	WORD	1717088	wordpools/wasnorm_wordpool_576.txt	LTP278	ltpFR2	3	15	CONTRACT	368	n/a	n/a	0	0	0
3436.752	n/a	WORD	1718376	wordpools/wasnorm_wordpool_576.txt	LTP278	ltpFR2	3	15	SHOULDER	1294	n/a	n/a	0	0	0
3439.378	n/a	WORD	1719689	wordpools/wasnorm_wordpool_576.txt	LTP278	ltpFR2	3	15	RIFLE	1192	n/a	n/a	0	0	0
3442.102	n/a	WORD	1721051	wordpools/wasnorm_wordpool_576.txt	LTP278	ltpFR2	3	15	SKIRT	1319	n/a	n/a	0	0	0
3444.832	n/a	WORD	1722416	wordpools/wasnorm_wordpool_576.txt	LTP278	ltpFR2	3	15	MARROW	872	n/a	n/a	0	0	0
3447.388	n/a	WORD	1723694	wordpools/wasnorm_wordpool_576.txt	LTP278	ltpFR2	3	15	SHELTER	1282	n/a	n/a	0	0	0
3450.136	n/a	WORD	1725068	wordpools/wasnorm_wordpool_576.txt	LTP278	ltpFR2	3	15	MISTER	901	n/a	n/a	0	0	0
3452.912	n/a	WORD	1726456	wordpools/wasnorm_wordpool_576.txt	LTP278	ltpFR2	3	15	LION	827	n/a	n/a	0	0	0
3455.556	n/a	WORD	1727778	wordpools/wasnorm_wordpool_576.txt	LTP278	ltpFR2	3	15	OINTMENT	974	n/a	n/a	0	0	0
3458.016	n/a	WORD	1729008	wordpools/wasnorm_wordpool_576.txt	LTP278	ltpFR2	3	15	FLEET	578	n/a	n/a	0	0	0
3460.558	n/a	WORD	1730279	wordpools/wasnorm_wordpool_576.txt	LTP278	ltpFR2	3	15	LAPEL	800	n/a	n/a	0	0	0
3463.068	n/a	WORD	1731534	wordpools/wasnorm_wordpool_576.txt	LTP278	ltpFR2	3	15	TERMITE	1451	n/a	n/a	0	0	0
3465.812	n/a	WORD	1732906	wordpools/wasnorm_wordpool_576.txt	LTP278	ltpFR2	3	15	PAIL	1002	n/a	n/a	0	0	0
3468.322	n/a	WORD	1734161	wordpools/wasnorm_wordpool_576.txt	LTP278	ltpFR2	3	15	RIVER	1194	n/a	n/a	0	0	0
3470.898	n/a	WORD	1735449	wordpools/wasnorm_wordpool_576.txt	LTP278	ltpFR2	3	15	HOSTESS	723	n/a	n/a	0	0	0
3473.392	n/a	WORD	1736696	wordpools/wasnorm_wordpool_576.txt	LTP278	ltpFR2	3	15	TROUT	1511	n/a	n/a	0	0	0
3475.868	n/a	WORD	1737934	wordpools/wasnorm_wordpool_576.txt	LTP278	ltpFR2	3	15	CRAB	397	n/a	n/a	0	0	0
3478.294	n/a	WORD	1739147	wordpools/wasnorm_wordpool_576.txt	LTP278	ltpFR2	3	15	DAISY	435	n/a	n/a	0	0	0
3480.836	n/a	WORD	1740418	wordpools/wasnorm_wordpool_576.txt	LTP278	ltpFR2	3	15	GARBAGE	622	n/a	n/a	0	0	0
3483.38	n/a	WORD	1741690	wordpools/wasnorm_wordpool_576.txt	LTP278	ltpFR2	3	15	GRIZZLY	662	n/a	n/a	0	0	0
3486.106	n/a	WORD	1743053	wordpools/wasnorm_wordpool_576.txt	LTP278	ltpFR2	3	15	SUPPER	1411	n/a	n/a	0	0	0
3488.766	n/a	WORD	1744383	wordpools/wasnorm_wordpool_576.txt	LTP278	ltpFR2	3	15	CUSTARD	429	n/a	n/a	0	0	0
3491.56	n/a	WORD	1745780	wordpools/wasnorm_wordpool_576.txt	LTP278	ltpFR2	3	15	SERVER	1272	n/a	n/a	0	0	0
3493.168	n/a	START	1746584	n/a	LTP278	ltpFR2	3	n/a	n/a	n/a	21	n/a	n/a	n/a	n/a
3494.242	n/a	DISTRACTOR	1747121	n/a	LTP278	ltpFR2	3	15	n/a	n/a	n/a	n/a	0	0	0
3494.256	n/a	PROB	1747128	n/a	LTP278	ltpFR2	3	n/a	n/a	n/a	21	14	6	5	3
3496.664	n/a	PROB	1748332	n/a	LTP278	ltpFR2	3	n/a	n/a	n/a	21	16	4	5	7
3499.224	n/a	PROB	1749612	n/a	LTP278	ltpFR2	3	n/a	n/a	n/a	21	20	8	8	4
3501.126	n/a	PROB	1750563	n/a	LTP278	ltpFR2	3	n/a	n/a	n/a	21	20	9	6	5
3502.982	n/a	PROB	1751491	n/a	LTP278	ltpFR2	3	n/a	n/a	n/a	21	11	3	6	2
3504.528	n/a	PROB	1752264	n/a	LTP278	ltpFR2	3	n/a	n/a	n/a	21	16	4	8	4
3506.05	n/a	PROB	1753025	n/a	LTP278	ltpFR2	3	n/a	n/a	n/a	21	12	1	4	7
3507.688	n/a	PROB	1753844	n/a	LTP278	ltpFR2	3	n/a	n/a	n/a	21	11	5	2	4
3509.608	n/a	PROB	1754804	n/a	LTP278	ltpFR2	3	n/a	n/a	n/a	21	9	1	6	2
3511.12	n/a	PROB	1755560	n/a	LTP278	ltpFR2	3	n/a	n/a	n/a	21	21	9	3	9
3512.758	n/a	PROB	1756379	n/a	LTP278	ltpFR2	3	n/a	n/a	n/a	21	23	6	8	9
3514.912	n/a	PROB	1757456	n/a	LTP278	ltpFR2	3	n/a	n/a	n/a	21	9	1	2	6
3516.134	n/a	STOP	1758067	n/a	LTP278	ltpFR2	3	n/a	n/a	n/a	21	n/a	n/a	n/a	n/a
3519.062	n/a	REC_START	1759531	n/a	LTP278	ltpFR2	3	15	n/a	n/a	n/a	n/a	0	0	0
3529.086	n/a	REC_WORD	1764543	wordpools/wasnorm_wordpool_576.txt	LTP278	ltpFR2	3	15	LAKE	796	n/a	n/a	0	0	0
3530.488	n/a	REC_WORD	1765244	wordpools/wasnorm_wordpool_576.txt	LTP278	ltpFR2	3	15	CONTRACT	368	n/a	n/a	0	0	0
3531.798	n/a	REC_WORD	1765899	wordpools/wasnorm_wordpool_576.txt	LTP278	ltpFR2	3	15	SKIRT	1319	n/a	n/a	0	0	0
3532.624	n/a	REC_WORD	1766312	wordpools/wasnorm_wordpool_576.txt	LTP278	ltpFR2	3	15	RIFLE	1192	n/a	n/a	0	0	0
3533.246	n/a	REC_WORD	1766623	wordpools/wasnorm_wordpool_576.txt	LTP278	ltpFR2	3	15	SHOULDER	1294	n/a	n/a	0	0	0
3556.196	n/a	REC_WORD	1778098	wordpools/wasnorm_wordpool_576.txt	LTP278	ltpFR2	3	15	GRIZZLY	662	n/a	n/a	0	0	0
3558.178	n/a	REC_WORD	1779089	wordpools/wasnorm_wordpool_576.txt	LTP278	ltpFR2	3	15	SUPPER	1411	n/a	n/a	0	0	0
3585.87	n/a	REC_WORD	1792935	wordpools/wasnorm_wordpool_576.txt	LTP278	ltpFR2	3	15	SECOND	-1	n/a	n/a	0	0	0
3610.098	n/a	DISTRACTOR	1805049	n/a	LTP278	ltpFR2	3	16	n/a	n/a	n/a	n/a	0	0	0
3610.098	n/a	START	1805049	n/a	LTP278	ltpFR2	3	n/a	n/a	n/a	22	n/a	n/a	n/a	n/a
3610.148	n/a	PROB	1805074	n/a	LTP278	ltpFR2	3	n/a	n/a	n/a	22	11	3	4	4
3614.342	n/a	PROB	1807171	n/a	LTP278	ltpFR2	3	n/a	n/a	n/a	22	13	7	4	2
3616.918	n/a	PROB	1808459	n/a	LTP278	ltpFR2	3	n/a	n/a	n/a	22	12	9	2	1
3621.96	n/a	PROB	1810980	n/a	LTP278	ltpFR2	3	n/a	n/a	n/a	22	9	1	6	2
3623.248	n/a	PROB	1811624	n/a	LTP278	ltpFR2	3	n/a	n/a	n/a	22	24	7	9	8
3625.87	n/a	PROB	1812935	n/a	LTP278	ltpFR2	3	n/a	n/a	n/a	22	11	1	5	5
3626.974	n/a	PROB	1813487	n/a	LTP278	ltpFR2	3	n/a	n/a	n/a	22	8	1	6	1
3629.182	n/a	PROB	1814591	n/a	LTP278	ltpFR2	3	n/a	n/a	n/a	22	12	5	3	4
3631.742	n/a	PROB	1815871	n/a	LTP278	ltpFR2	3	n/a	n/a	n/a	22	17	2	7	8
3633.698	n/a	STOP	1816849	n/a	LTP278	ltpFR2	3	n/a	n/a	n/a	22	n/a	n/a	n/a	n/a
3634.988	n/a	WORD	1817494	wordpools/wasnorm_wordpool_576.txt	LTP278	ltpFR2	3	16	SADDLE	1221	n/a	n/a	0	0	0
3637.748	n/a	WORD	1818874	wordpools/wasnorm_wordpool_576.txt	LTP278	ltpFR2	3	16	OX	994	n/a	n/a	0	0	0
3640.208	n/a	WORD	1820104	wordpools/wasnorm_wordpool_576.txt	LTP278	ltpFR2	3	16	CONVICT	371	n/a	n/a	0	0	0
3642.972	n/a	WORD	1821486	wordpools/wasnorm_wordpool_576.txt	LTP278	ltpFR2	3	16	QUAIL	1147	n/a	n/a	0	0	0
3645.75	n/a	WORD	1822875	wordpools/wasnorm_wordpool_576.txt	LTP278	ltpFR2	3	16	FIREPLACE	570	n/a	n/a	0	0	0
3648.512	n/a	WORD	1824256	wordpools/wasnorm_wordpool_576.txt	LTP278	ltpFR2	3	16	TYPIST	1532	n/a	n/a	0	0	0
3651.104	n/a	WORD	1825552	wordpools/wasnorm_wordpool_576.txt	LTP278	ltpFR2	3	16	BURGLAR	200	n/a	n/a	0	0	0
3653.83	n/a	WORD	1826915	wordpools/wasnorm_wordpool_576.txt	LTP278	ltpFR2	3	16	DANCER	437	n/a	n/a	0	0	0
3656.352	n/a	WORD	1828176	wordpools/wasnorm_wordpool_576.txt	LTP278	ltpFR2	3	16	FLASK	576	n/a	n/a	0	0	0
3658.9	n/a	WORD	1829450	wordpools/wasnorm_wordpool_576.txt	LTP278	ltpFR2	3	16	ACTRESS	6	n/a	n/a	0	0	0
3661.694	n/a	WORD	1830847	wordpools/wasnorm_wordpool_576.txt	LTP278	ltpFR2	3	16	FOREHEAD	592	n/a	n/a	0	0	0
3664.188	n/a	WORD	1832094	wordpools/wasnorm_wordpool_576.txt	LTP278	ltpFR2	3	16	OYSTER	995	n/a	n/a	0	0	0
3666.646	n/a	WORD	1833323	wordpools/wasnorm_wordpool_576.txt	LTP278	ltpFR2	3	16	CLAM	315	n/a	n/a	0	0	0
3669.32	n/a	WORD	1834660	wordpools/wasnorm_wordpool_576.txt	LTP278	ltpFR2	3	16	CASHIER	254	n/a	n/a	0	0	0
3671.95	n/a	WORD	1835975	wordpools/wasnorm_wordpool_576.txt	LTP278	ltpFR2	3	16	ISLAND	745	n/a	n/a	0	0	0
3674.61	n/a	WORD	1837305	wordpools/wasnorm_wordpool_576.txt	LTP278	ltpFR2	3	16	NEUTRON	947	n/a	n/a	0	0	0
3677.054	n/a	WORD	1838527	wordpools/wasnorm_wordpool_576.txt	LTP278	ltpFR2	3	16	JUGGLER	763	n/a	n/a	0	0	0
3679.88	n/a	WORD	1839940	wordpools/wasnorm_wordpool_576.txt	LTP278	ltpFR2	3	16	HONEY	713	n/a	n/a	0	0	0
3682.552	n/a	WORD	1841276	wordpools/wasnorm_wordpool_576.txt	LTP278	ltpFR2	3	16	ORCHID	982	n/a	n/a	0	0	0
3685.152	n/a	WORD	1842576	wordpools/wasnorm_wordpool_576.txt	LTP278	ltpFR2	3	16	FRECKLE	602	n/a	n/a	0	0	0
3687.61	n/a	WORD	1843805	wordpools/wasnorm_wordpool_576.txt	LTP278	ltpFR2	3	16	OZONE	996	n/a	n/a	0	0	0
3690.082	n/a	WORD	1845041	wordpools/wasnorm_wordpool_576.txt	LTP278	ltpFR2	3	16	BALLOON	75	n/a	n/a	0	0	0
3692.678	n/a	WORD	1846339	wordpools/wasnorm_wordpool_576.txt	LTP278	ltpFR2	3	16	BRANDY	169	n/a	n/a	0	0	0
3695.47	n/a	WORD	1847735	wordpools/wasnorm_wordpool_576.txt	LTP278	ltpFR2	3	16	MISSILE	900	n/a	n/a	0	0	0
3697.08	n/a	START	1848540	n/a	LTP278	ltpFR2	3	n/a	n/a	n/a	23	n/a	n/a	n/a	n/a
3698.14	n/a	DISTRACTOR	1849070	n/a	LTP278	ltpFR2	3	16	n/a	n/a	n/a	n/a	0	0	0
3698.152	n/a	PROB	1849076	n/a	LTP278	ltpFR2	3	n/a	n/a	n/a	23	21	7	5	9
3701.696	n/a	PROB	1850848	n/a	LTP278	ltpFR2	3	n/a	n/a	n/a	23	12	4	3	4
3704.37	n/a	PROB	1852185	n/a	LTP278	ltpFR2	3	n/a	n/a	n/a	23	14	6	7	1
3706.794	n/a	PROB	1853397	n/a	LTP278	ltpFR2	3	n/a	n/a	n/a	23	23	5	9	9
3708.452	n/a	PROB	1854226	n/a	LTP278	ltpFR2	3	n/a	n/a	n/a	23	15	8	5	2
3710.108	n/a	PROB	1855054	n/a	LTP278	ltpFR2	3	n/a	n/a	n/a	23	21	8	7	6
3713.492	n/a	PROB	1856746	n/a	LTP278	ltpFR2	3	n/a	n/a	n/a	23	10	2	5	3
3714.826	n/a	PROB	1857413	n/a	LTP278	ltpFR2	3	n/a	n/a	n/a	23	14	7	2	5
3716.784	n/a	PROB	1858392	n/a	LTP278	ltpFR2	3	n/a	n/a	n/a	23	24	9	6	9
3718.646	n/a	PROB	1859323	n/a	LTP278	ltpFR2	3	n/a	n/a	n/a	23	18	7	9	2
3720.584	n/a	STOP	1860292	n/a	LTP278	ltpFR2	3	n/a	n/a	n/a	23	n/a	n/a	n/a	n/a
3723.03	n/a	REC_START	1861515	n/a	LTP278	ltpFR2	3	16	n/a	n/a	n/a	n/a	0	0	0
3777.39	n/a	REC_WORD	1888695	wordpools/wasnorm_wordpool_576.txt	LTP278	ltpFR2	3	16	OVEN	991	n/a	n/a	0	0	0
3793.188	n/a	REC_WORD	1896594	wordpools/wasnorm_wordpool_576.txt	LTP278	ltpFR2	3	16	PRAISE	-1	n/a	n/a	0	0	0
3799.818	n/a	REST_REWET	1899909	n/a	LTP278	ltpFR2	3	16	n/a	n/a	n/a	n/a	0	0	0
4105.306	n/a	DISTRACTOR	2052653	n/a	LTP278	ltpFR2	3	17	n/a	n/a	n/a	n/a	0	0	0
4105.306	n/a	START	2052653	n/a	LTP278	ltpFR2	3	n/a	n/a	n/a	24	n/a	n/a	n/a	n/a
4105.356	n/a	PROB	2052678	n/a	LTP278	ltpFR2	3	n/a	n/a	n/a	24	16	6	8	2
4107.282	n/a	PROB	2053641	n/a	LTP278	ltpFR2	3	n/a	n/a	n/a	24	21	4	9	8
4109.586	n/a	PROB	2054793	n/a	LTP278	ltpFR2	3	n/a	n/a	n/a	24	16	2	8	6
4111.448	n/a	PROB	2055724	n/a	LTP278	ltpFR2	3	n/a	n/a	n/a	24	10	6	1	3
4112.784	n/a	PROB	2056392	n/a	LTP278	ltpFR2	3	n/a	n/a	n/a	24	20	7	8	5
4114.588	n/a	PROB	2057294	n/a	LTP278	ltpFR2	3	n/a	n/a	n/a	24	16	5	4	7
4116.528	n/a	PROB	2058264	n/a	LTP278	ltpFR2	3	n/a	n/a	n/a	24	10	4	2	4
4118.958	n/a	PROB	2059479	n/a	LTP278	ltpFR2	3	n/a	n/a	n/a	24	9	1	1	7
4120.298	n/a	PROB	2060149	n/a	LTP278	ltpFR2	3	n/a	n/a	n/a	24	23	9	9	5
4121.982	n/a	PROB	2060991	n/a	LTP278	ltpFR2	3	n/a	n/a	n/a	24	5	1	1	3
4123.454	n/a	PROB	2061727	n/a	LTP278	ltpFR2	3	n/a	n/a	n/a	24	11	3	5	3
4125.228	n/a	PROB	2062614	n/a	LTP278	ltpFR2	3	n/a	n/a	n/a	24	16	9	4	3
4126.838	n/a	PROB	2063419	n/a	LTP278	ltpFR2	3	n/a	n/a	n/a	24	9	1	7	1
4127.99	n/a	STOP	2063995	n/a	LTP278	ltpFR2	3	n/a	n/a	n/a	24	n/a	n/a	n/a	n/a
4130.202	n/a	WORD	2065101	wordpools/wasnorm_wordpool_576.txt	LTP278	ltpFR2	3	17	KNAPSACK	783	n/a	n/a	0	0	0
4132.656	n/a	WORD	2066328	wordpools/wasnorm_wordpool_576.txt	LTP278	ltpFR2	3	17	SWAMP	1416	n/a	n/a	0	0	0
4135.306	n/a	WORD	2067653	wordpools/wasnorm_wordpool_576.txt	LTP278	ltpFR2	3	17	PICTURE	1061	n/a	n/a	0	0	0
4138.112	n/a	WORD	2069056	wordpools/wasnorm_wordpool_576.txt	LTP278	ltpFR2	3	17	CREATURE	403	n/a	n/a	0	0	0
4140.926	n/a	WORD	2070463	wordpools/wasnorm_wordpool_576.txt	LTP278	ltpFR2	3	17	PASSAGE	1019	n/a	n/a	0	0	0
4143.648	n/a	WORD	2071824	wordpools/wasnorm_wordpool_576.txt	LTP278	ltpFR2	3	17	PASTA	1021	n/a	n/a	0	0	0
4146.146	n/a	WORD	2073073	wordpools/wasnorm_wordpool_576.txt	LTP278	ltpFR2	3	17	SPOON	1357	n/a	n/a	0	0	0
4148.572	n/a	WORD	2074286	wordpools/wasnorm_wordpool_576.txt	LTP278	ltpFR2	3	17	SCRIBBLE	1256	n/a	n/a	0	0	0
4151.082	n/a	WORD	2075541	wordpools/wasnorm_wordpool_576.txt	LTP278	ltpFR2	3	17	NAPKIN	937	n/a	n/a	0	0	0
4153.774	n/a	WORD	2076887	wordpools/wasnorm_wordpool_576.txt	LTP278	ltpFR2	3	17	SCARECROW	1245	n/a	n/a	0	0	0
4156.57	n/a	WORD	2078285	wordpools/wasnorm_wordpool_576.txt	LTP278	ltpFR2	3	17	ACTOR	5	n/a	n/a	0	0	0
4159.392	n/a	WORD	2079696	wordpools/wasnorm_wordpool_576.txt	LTP278	ltpFR2	3	17	DORM	488	n/a	n/a	0	0	0
4162.174	n/a	WORD	2081087	wordpools/wasnorm_wordpool_576.txt	LTP278	ltpFR2	3	17	PLAZA	1088	n/a	n/a	0	0	0
4164.964	n/a	WORD	2082482	wordpools/wasnorm_wordpool_576.txt	LTP278	ltpFR2	3	17	MUFFIN	929	n/a	n/a	0	0	0
4167.628	n/a	WORD	2083814	wordpools/wasnorm_wordpool_576.txt	LTP278	ltpFR2	3	17	PADDING	999	n/a	n/a	0	0	0
4170.422	n/a	WORD	2085211	wordpools/wasnorm_wordpool_576.txt	LTP278	ltpFR2	3	17	VELVET	1555	n/a	n/a	0	0	0
4172.914	n/a	WORD	2086457	wordpools/wasnorm_wordpool_576.txt	LTP278	ltpFR2	3	17	LODGE	839	n/a	n/a	0	0	0
4175.708	n/a	WORD	2087854	wordpools/wasnorm_wordpool_576.txt	LTP278	ltpFR2	3	17	TWISTER	1530	n/a	n/a	0	0	0
4178.168	n/a	WORD	2089084	wordpools/wasnorm_wordpool_576.txt	LTP278	ltpFR2	3	17	DUST	508	n/a	n/a	0	0	0
4180.894	n/a	WORD	2090447	wordpools/wasnorm_wordpool_576.txt	LTP278	ltpFR2	3	17	MARSH	874	n/a	n/a	0	0	0
4183.656	n/a	WORD	2091828	wordpools/wasnorm_wordpool_576.txt	LTP278	ltpFR2	3	17	ICING	732	n/a	n/a	0	0	0
4186.132	n/a	WORD	2093066	wordpools/wasnorm_wordpool_576.txt	LTP278	ltpFR2	3	17	TRIBE	1505	n/a	n/a	0	0	0
4188.576	n/a	WORD	2094288	wordpools/wasnorm_wordpool_576.txt	LTP278	ltpFR2	3	17	LETTUCE	814	n/a	n/a	0	0	0
4191.348	n/a	WORD	2095674	wordpools/wasnorm_wordpool_576.txt	LTP278	ltpFR2	3	17	SLIME	1327	n/a	n/a	0	0	0
4192.958	n/a	START	2096479	n/a	LTP278	ltpFR2	3	n/a	n/a	n/a	25	n/a	n/a	n/a	n/a
4193.9	n/a	DISTRACTOR	2096950	n/a	LTP278	ltpFR2	3	17	n/a	n/a	n/a	n/a	0	0	0
4193.912	n/a	PROB	2096956	n/a	LTP278	ltpFR2	3	n/a	n/a	n/a	25	16	6	3	7
4195.414	n/a	PROB	2097707	n/a	LTP278	ltpFR2	3	n/a	n/a	n/a	25	20	5	7	8
4197.154	n/a	PROB	2098577	n/a	LTP278	ltpFR2	3	n/a	n/a	n/a	25	17	7	7	3
4198.96	n/a	PROB	2099480	n/a	LTP278	ltpFR2	3	n/a	n/a	n/a	25	128	4	8	6
4205.1	n/a	PROB	2102550	n/a	LTP278	ltpFR2	3	n/a	n/a	n/a	25	11	8	1	2
4206.772	n/a	PROB	2103386	n/a	LTP278	ltpFR2	3	n/a	n/a	n/a	25	17	8	3	6
4209.784	n/a	PROB	2104892	n/a	LTP278	ltpFR2	3	n/a	n/a	n/a	25	10	2	5	3
4212.262	n/a	PROB	2106131	n/a	LTP278	ltpFR2	3	n/a	n/a	n/a	25	20	6	8	6
4214.004	n/a	PROB	2107002	n/a	LTP278	ltpFR2	3	n/a	n/a	n/a	25	15	5	1	9
4215.466	n/a	STOP	2107733	n/a	LTP278	ltpFR2	3	n/a	n/a	n/a	25	n/a	n/a	n/a	n/a
4218.818	n/a	REC_START	2109409	n/a	LTP278	ltpFR2	3	17	n/a	n/a	n/a	n/a	0	0	0
4222.476	n/a	REC_WORD	2111238	wordpools/wasnorm_wordpool_576.txt	LTP278	ltpFR2	3	17	KNAPSACK	783	n/a	n/a	0	0	0
4223.574	n/a	REC_WORD	2111787	wordpools/wasnorm_wordpool_576.txt	LTP278	ltpFR2	3	17	SWAMP	1416	n/a	n/a	0	0	0
4231.412	n/a	REC_WORD	2115706	wordpools/wasnorm_wordpool_576.txt	LTP278	ltpFR2	3	17	MUFFIN	929	n/a	n/a	0	0	0
4231.978	n/a	REC_WORD	2115989	wordpools/wasnorm_wordpool_576.txt	LTP278	ltpFR2	3	17	SCARECROW	1245	n/a	n/a	0	0	0
4232.852	n/a	REC_WORD	2116426	wordpools/wasnorm_wordpool_576.txt	LTP278	ltpFR2	3	17	VELVET	1555	n/a	n/a	0	0	0
4233.692	n/a	REC_WORD	2116846	wordpools/wasnorm_wordpool_576.txt	LTP278	ltpFR2	3	17	DORM	488	n/a	n/a	0	0	0
4235.846	n/a	REC_WORD	2117923	wordpools/wasnorm_wordpool_576.txt	LTP278	ltpFR2	3	17	PADDING	999	n/a	n/a	0	0	0
4242.202	n/a	REC_WORD	2121101	wordpools/wasnorm_wordpool_576.txt	LTP278	ltpFR2	3	17	TORNADO	1485	n/a	n/a	0	0	0
4243.452	n/a	REC_WORD	2121726	wordpools/wasnorm_wordpool_576.txt	LTP278	ltpFR2	3	17	TWISTER	1530	n/a	n/a	0	0	0
4245.236	n/a	REC_WORD	2122618	wordpools/wasnorm_wordpool_576.txt	LTP278	ltpFR2	3	17	DUST	508	n/a	n/a	0	0	0
4273.214	n/a	REC_WORD	2136607	wordpools/wasnorm_wordpool_576.txt	LTP278	ltpFR2	3	17	ICING	732	n/a	n/a	0	0	0
4309.838	n/a	DISTRACTOR	2154919	n/a	LTP278	ltpFR2	3	18	n/a	n/a	n/a	n/a	0	0	0
4309.838	n/a	START	2154919	n/a	LTP278	ltpFR2	3	n/a	n/a	n/a	26	n/a	n/a	n/a	n/a
4309.888	n/a	PROB	2154944	n/a	LTP278	ltpFR2	3	n/a	n/a	n/a	26	15	5	6	4
4312.962	n/a	PROB	2156481	n/a	LTP278	ltpFR2	3	n/a	n/a	n/a	26	12	5	6	2
4314.602	n/a	PROB	2157301	n/a	LTP278	ltpFR2	3	n/a	n/a	n/a	26	17	2	6	9
4318.25	n/a	PROB	2159125	n/a	LTP278	ltpFR2	3	n/a	n/a	n/a	26	21	8	4	9
4319.922	n/a	PROB	2159961	n/a	LTP278	ltpFR2	3	n/a	n/a	n/a	26	18	6	8	4
4322.72	n/a	PROB	2161360	n/a	LTP278	ltpFR2	3	n/a	n/a	n/a	26	15	7	4	4
4324.812	n/a	PROB	2162406	n/a	LTP278	ltpFR2	3	n/a	n/a	n/a	26	15	7	2	6
4326.648	n/a	PROB	2163324	n/a	LTP278	ltpFR2	3	n/a	n/a	n/a	26	18	5	5	8
4328.304	n/a	PROB	2164152	n/a	LTP278	ltpFR2	3	n/a	n/a	n/a	26	17	8	6	3
4330.116	n/a	PROB	2165058	n/a	LTP278	ltpFR2	3	n/a	n/a	n/a	26	20	4	9	7
4332.672	n/a	STOP	2166336	n/a	LTP278	ltpFR2	3	n/a	n/a	n/a	26	n/a	n/a	n/a	n/a
4334.716	n/a	WORD	2167358	wordpools/wasnorm_wordpool_576.txt	LTP278	ltpFR2	3	18	GRILL	661	n/a	n/a	0	0	0
4337.528	n/a	WORD	2168764	wordpools/wasnorm_wordpool_576.txt	LTP278	ltpFR2	3	18	SNAIL	1332	n/a	n/a	0	0	0
4340.306	n/a	WORD	2170153	wordpools/wasnorm_wordpool_576.txt	LTP278	ltpFR2	3	18	AWARD	63	n/a	n/a	0	0	0
4342.742	n/a	WORD	2171371	wordpools/wasnorm_wordpool_576.txt	LTP278	ltpFR2	3	18	CITRUS	313	n/a	n/a	0	0	0
4345.202	n/a	WORD	2172601	wordpools/wasnorm_wordpool_576.txt	LTP278	ltpFR2	3	18	ORANGE	980	n/a	n/a	0	0	0
4347.866	n/a	WORD	2173933	wordpools/wasnorm_wordpool_576.txt	LTP278	ltpFR2	3	18	CEILING	265	n/a	n/a	0	0	0
4350.528	n/a	WORD	2175264	wordpools/wasnorm_wordpool_576.txt	LTP278	ltpFR2	3	18	TWEEZERS	1526	n/a	n/a	0	0	0
4353.25	n/a	WORD	2176625	wordpools/wasnorm_wordpool_576.txt	LTP278	ltpFR2	3	18	BUTCHER	203	n/a	n/a	0	0	0
4355.982	n/a	WORD	2177991	wordpools/wasnorm_wordpool_576.txt	LTP278	ltpFR2	3	18	DRUG	501	n/a	n/a	0	0	0
4358.488	n/a	WORD	2179244	wordpools/wasnorm_wordpool_576.txt	LTP278	ltpFR2	3	18	AUTHOR	61	n/a	n/a	0	0	0
4361.268	n/a	WORD	2180634	wordpools/wasnorm_wordpool_576.txt	LTP278	ltpFR2	3	18	MARS	873	n/a	n/a	0	0	0
4363.872	n/a	WORD	2181936	wordpools/wasnorm_wordpool_576.txt	LTP278	ltpFR2	3	18	BREAST	171	n/a	n/a	0	0	0
4366.522	n/a	WORD	2183261	wordpools/wasnorm_wordpool_576.txt	LTP278	ltpFR2	3	18	FLAG	573	n/a	n/a	0	0	0
4369.284	n/a	WORD	2184642	wordpools/wasnorm_wordpool_576.txt	LTP278	ltpFR2	3	18	BELLY	119	n/a	n/a	0	0	0
4372.026	n/a	WORD	2186013	wordpools/wasnorm_wordpool_576.txt	LTP278	ltpFR2	3	18	COUCH	386	n/a	n/a	0	0	0
4374.736	n/a	WORD	2187368	wordpools/wasnorm_wordpool_576.txt	LTP278	ltpFR2	3	18	GRAVE	658	n/a	n/a	0	0	0
4377.498	n/a	WORD	2188749	wordpools/wasnorm_wordpool_576.txt	LTP278	ltpFR2	3	18	LOFT	840	n/a	n/a	0	0	0
4380.236	n/a	WORD	2190118	wordpools/wasnorm_wordpool_576.txt	LTP278	ltpFR2	3	18	SUNSET	1408	n/a	n/a	0	0	0
4382.766	n/a	WORD	2191383	wordpools/wasnorm_wordpool_576.txt	LTP278	ltpFR2	3	18	DRESSER	496	n/a	n/a	0	0	0
4385.394	n/a	WORD	2192697	wordpools/wasnorm_wordpool_576.txt	LTP278	ltpFR2	3	18	PLUTO	1092	n/a	n/a	0	0	0
4387.982	n/a	WORD	2193991	wordpools/wasnorm_wordpool_576.txt	LTP278	ltpFR2	3	18	CRICKET	408	n/a	n/a	0	0	0
4390.73	n/a	WORD	2195365	wordpools/wasnorm_wordpool_576.txt	LTP278	ltpFR2	3	18	PICNIC	1060	n/a	n/a	0	0	0
4393.258	n/a	WORD	2196629	wordpools/wasnorm_wordpool_576.txt	LTP278	ltpFR2	3	18	TREAT	1501	n/a	n/a	0	0	0
4395.912	n/a	WORD	2197956	wordpools/wasnorm_wordpool_576.txt	LTP278	ltpFR2	3	18	TART	1436	n/a	n/a	0	0	0
4397.524	n/a	START	2198762	n/a	LTP278	ltpFR2	3	n/a	n/a	n/a	27	n/a	n/a	n/a	n/a
4398.342	n/a	DISTRACTOR	2199171	n/a	LTP278	ltpFR2	3	18	n/a	n/a	n/a	n/a	0	0	0
4398.36	n/a	PROB	2199180	n/a	LTP278	ltpFR2	3	n/a	n/a	n/a	27	25	8	9	8
4400.28	n/a	PROB	2200140	n/a	LTP278	ltpFR2	3	n/a	n/a	n/a	27	21	6	7	8
4405.014	n/a	PROB	2202507	n/a	LTP278	ltpFR2	3	n/a	n/a	n/a	27	19	6	5	8
4407.458	n/a	PROB	2203729	n/a	LTP278	ltpFR2	3	n/a	n/a	n/a	27	17	9	5	3
4409.366	n/a	PROB	2204683	n/a	LTP278	ltpFR2	3	n/a	n/a	n/a	27	18	2	9	7
4411.21	n/a	PROB	2205605	n/a	LTP278	ltpFR2	3	n/a	n/a	n/a	27	8	1	1	6
4412.36	n/a	PROB	2206180	n/a	LTP278	ltpFR2	3	n/a	n/a	n/a	27	18	9	5	4
4413.998	n/a	PROB	2206999	n/a	LTP278	ltpFR2	3	n/a	n/a	n/a	27	18	3	7	8
4415.522	n/a	PROB	2207761	n/a	LTP278	ltpFR2	3	n/a	n/a	n/a	27	14	1	7	6
4417.428	n/a	PROB	2208714	n/a	LTP278	ltpFR2	3	n/a	n/a	n/a	27	19	4	9	6
4419.136	n/a	PROB	2209568	n/a	LTP278	ltpFR2	3	n/a	n/a	n/a	27	10	5	1	4
4420.406	n/a	STOP	2210203	n/a	LTP278	ltpFR2	3	n/a	n/a	n/a	27	n/a	n/a	n/a	n/a
4423.318	n/a	REC_START	2211659	n/a	LTP278	ltpFR2	3	18	n/a	n/a	n/a	n/a	0	0	0
4423.8	n/a	REC_WORD	2211900	wordpools/wasnorm_wordpool_576.txt	LTP278	ltpFR2	3	18	CRICKET	408	n/a	n/a	0	0	0
4424.738	n/a	REC_WORD	2212369	wordpools/wasnorm_wordpool_576.txt	LTP278	ltpFR2	3	18	PICNIC	1060	n/a	n/a	0	0	0
4441.068	n/a	REC_WORD	2220534	wordpools/wasnorm_wordpool_576.txt	LTP278	ltpFR2	3	18	TREAT	1501	n/a	n/a	0	0	0
4449.832	n/a	REC_WORD	2224916	wordpools/wasnorm_wordpool_576.txt	LTP278	ltpFR2	3	18	FLAG	573	n/a	n/a	0	0	0
4450.62	n/a	REC_WORD	2225310	wordpools/wasnorm_wordpool_576.txt	LTP278	ltpFR2	3	18	COUCH	386	n/a	n/a	0	0	0
4461.998	n/a	REC_WORD	2230999	wordpools/wasnorm_wordpool_576.txt	LTP278	ltpFR2	3	18	CITRUS	313	n/a	n/a	0	0	0
4464.022	n/a	REC_WORD	2232011	wordpools/wasnorm_wordpool_576.txt	LTP278	ltpFR2	3	18	ORANGE	980	n/a	n/a	0	0	0
4514.37	n/a	WORD	2257185	wordpools/wasnorm_wordpool_576.txt	LTP278	ltpFR2	3	19	GUARD	667	n/a	n/a	0	0	0
4516.858	n/a	WORD	2258429	wordpools/wasnorm_wordpool_576.txt	LTP278	ltpFR2	3	19	LIGHTNING	820	n/a	n/a	0	0	0
4519.674	n/a	WORD	2259837	wordpools/wasnorm_wordpool_576.txt	LTP278	ltpFR2	3	19	GROUND	666	n/a	n/a	0	0	0
4522.318	n/a	WORD	2261159	wordpools/wasnorm_wordpool_576.txt	LTP278	ltpFR2	3	19	MARKET	871	n/a	n/a	0	0	0
4525.112	n/a	WORD	2262556	wordpools/wasnorm_wordpool_576.txt	LTP278	ltpFR2	3	19	FARMER	553	n/a	n/a	0	0	0
4527.654	n/a	WORD	2263827	wordpools/wasnorm_wordpool_576.txt	LTP278	ltpFR2	3	19	TURTLE	1522	n/a	n/a	0	0	0
4530.114	n/a	WORD	2265057	wordpools/wasnorm_wordpool_576.txt	LTP278	ltpFR2	3	19	GREASE	660	n/a	n/a	0	0	0
4532.856	n/a	WORD	2266428	wordpools/wasnorm_wordpool_576.txt	LTP278	ltpFR2	3	19	BEAST	108	n/a	n/a	0	0	0
4535.568	n/a	WORD	2267784	wordpools/wasnorm_wordpool_576.txt	LTP278	ltpFR2	3	19	CHIPMUNK	304	n/a	n/a	0	0	0
4538.096	n/a	WORD	2269048	wordpools/wasnorm_wordpool_576.txt	LTP278	ltpFR2	3	19	WOMAN	1620	n/a	n/a	0	0	0
4540.62	n/a	WORD	2270310	wordpools/wasnorm_wordpool_576.txt	LTP278	ltpFR2	3	19	BEEF	113	n/a	n/a	0	0	0
4543.382	n/a	WORD	2271691	wordpools/wasnorm_wordpool_576.txt	LTP278	ltpFR2	3	19	GRAPE	654	n/a	n/a	0	0	0
4546.176	n/a	WORD	2273088	wordpools/wasnorm_wordpool_576.txt	LTP278	ltpFR2	3	19	CURTAIN	427	n/a	n/a	0	0	0
4548.764	n/a	WORD	2274382	wordpools/wasnorm_wordpool_576.txt	LTP278	ltpFR2	3	19	ONION	977	n/a	n/a	0	0	0
4551.396	n/a	WORD	2275698	wordpools/wasnorm_wordpool_576.txt	LTP278	ltpFR2	3	19	FILM	565	n/a	n/a	0	0	0
4553.916	n/a	WORD	2276958	wordpools/wasnorm_wordpool_576.txt	LTP278	ltpFR2	3	19	ANKLE	24	n/a	n/a	0	0	0
4556.444	n/a	WORD	2278222	wordpools/wasnorm_wordpool_576.txt	LTP278	ltpFR2	3	19	LEG	809	n/a	n/a	0	0	0
4558.958	n/a	WORD	2279479	wordpools/wasnorm_wordpool_576.txt	LTP278	ltpFR2	3	19	MEAT	883	n/a	n/a	0	0	0
4561.764	n/a	WORD	2280882	wordpools/wasnorm_wordpool_576.txt	LTP278	ltpFR2	3	19	CRAYON	401	n/a	n/a	0	0	0
4564.44	n/a	WORD	2282220	wordpools/wasnorm_wordpool_576.txt	LTP278	ltpFR2	3	19	STICKER	1382	n/a	n/a	0	0	0
4567.068	n/a	WORD	2283534	wordpools/wasnorm_wordpool_576.txt	LTP278	ltpFR2	3	19	DOLPHIN	483	n/a	n/a	0	0	0
4569.882	n/a	WORD	2284941	wordpools/wasnorm_wordpool_576.txt	LTP278	ltpFR2	3	19	POLICE	1098	n/a	n/a	0	0	0
4572.442	n/a	WORD	2286221	wordpools/wasnorm_wordpool_576.txt	LTP278	ltpFR2	3	19	SILK	1307	n/a	n/a	0	0	0
4574.984	n/a	WORD	2287492	wordpools/wasnorm_wordpool_576.txt	LTP278	ltpFR2	3	19	BABY	64	n/a	n/a	0	0	0
4576.592	n/a	START	2288296	n/a	LTP278	ltpFR2	3	n/a	n/a	n/a	28	n/a	n/a	n/a	n/a
4577.674	n/a	DISTRACTOR	2288837	n/a	LTP278	ltpFR2	3	19	n/a	n/a	n/a	n/a	0	0	0
4577.69	n/a	PROB	2288845	n/a	LTP278	ltpFR2	3	n/a	n/a	n/a	28	13	4	4	5
4579.804	n/a	PROB	2289902	n/a	LTP278	ltpFR2	3	n/a	n/a	n/a	28	14	6	6	2
4581.76	n/a	PROB	2290880	n/a	LTP278	ltpFR2	3	n/a	n/a	n/a	28	18	9	4	5
4583.196	n/a	PROB	2291598	n/a	LTP278	ltpFR2	3	n/a	n/a	n/a	28	12	3	5	4
4585.976	n/a	PROB	2292988	n/a	LTP278	ltpFR2	3	n/a	n/a	n/a	28	17	9	4	4
4587.562	n/a	PROB	2293781	n/a	LTP278	ltpFR2	3	n/a	n/a	n/a	28	12	3	3	6
4590.088	n/a	PROB	2295044	n/a	LTP278	ltpFR2	3	n/a	n/a	n/a	28	18	3	8	7
4592.346	n/a	PROB	2296173	n/a	LTP278	ltpFR2	3	n/a	n/a	n/a	28	21	8	9	4
4594.506	n/a	PROB	2297253	n/a	LTP278	ltpFR2	3	n/a	n/a	n/a	28	17	7	8	2
4596.586	n/a	PROB	2298293	n/a	LTP278	ltpFR2	3	n/a	n/a	n/a	28	8	5	2	1
4598.002	n/a	PROB	2299001	n/a	LTP278	ltpFR2	3	n/a	n/a	n/a	28	21	8	5	8
4599.512	n/a	STOP	2299756	n/a	LTP278	ltpFR2	3	n/a	n/a	n/a	28	n/a	n/a	n/a	n/a
4602.508	n/a	REC_START	2301254	n/a	LTP278	ltpFR2	3	19	n/a	n/a	n/a	n/a	0	0	0
4693.556	n/a	DISTRACTOR	2346778	n/a	LTP278	ltpFR2	3	20	n/a	n/a	n/a	n/a	0	0	0
4693.556	n/a	START	2346778	n/a	LTP278	ltpFR2	3	n/a	n/a	n/a	29	n/a	n/a	n/a	n/a
4693.606	n/a	PROB	2346803	n/a	LTP278	ltpFR2	3	n/a	n/a	n/a	29	19	9	7	3
4695.124	n/a	PROB	2347562	n/a	LTP278	ltpFR2	3	n/a	n/a	n/a	29	15	6	6	3
4697.616	n/a	PROB	2348808	n/a	LTP278	ltpFR2	3	n/a	n/a	n/a	29	20	5	9	6
4699.99	n/a	PROB	2349995	n/a	LTP278	ltpFR2	3	n/a	n/a	n/a	29	22	7	6	9
4702.402	n/a	PROB	2351201	n/a	LTP278	ltpFR2	3	n/a	n/a	n/a	29	23	7	8	8
4705.712	n/a	PROB	2352856	n/a	LTP278	ltpFR2	3	n/a	n/a	n/a	29	16	5	8	3
4707.538	n/a	PROB	2353769	n/a	LTP278	ltpFR2	3	n/a	n/a	n/a	29	14	2	7	5
4709.396	n/a	PROB	2354698	n/a	LTP278	ltpFR2	3	n/a	n/a	n/a	29	14	1	6	7
4710.904	n/a	PROB	2355452	n/a	LTP278	ltpFR2	3	n/a	n/a	n/a	29	19	5	9	5
4712.24	n/a	PROB	2356120	n/a	LTP278	ltpFR2	3	n/a	n/a	n/a	29	18	8	8	2
4713.682	n/a	PROB	2356841	n/a	LTP278	ltpFR2	3	n/a	n/a	n/a	29	13	5	5	3
4714.814	n/a	PROB	2357407	n/a	LTP278	ltpFR2	3	n/a	n/a	n/a	29	20	5	8	7
4717.494	n/a	STOP	2358747	n/a	LTP278	ltpFR2	3	n/a	n/a	n/a	29	n/a	n/a	n/a	n/a
4718.53	n/a	WORD	2359265	wordpools/wasnorm_wordpool_576.txt	LTP278	ltpFR2	3	20	PRINCE	1124	n/a	n/a	0	0	0
4720.976	n/a	WORD	2360488	wordpools/wasnorm_wordpool_576.txt	LTP278	ltpFR2	3	20	PEPPER	1047	n/a	n/a	0	0	0
4723.52	n/a	WORD	2361760	wordpools/wasnorm_wordpool_576.txt	LTP278	ltpFR2	3	20	GARLIC	624	n/a	n/a	0	0	0
4726.314	n/a	WORD	2363157	wordpools/wasnorm_wordpool_576.txt	LTP278	ltpFR2	3	20	TWIG	1527	n/a	n/a	0	0	0
4728.924	n/a	WORD	2364462	wordpools/wasnorm_wordpool_576.txt	LTP278	ltpFR2	3	20	DRIVER	499	n/a	n/a	0	0	0
4731.518	n/a	WORD	2365759	wordpools/wasnorm_wordpool_576.txt	LTP278	ltpFR2	3	20	TRENCH	1503	n/a	n/a	0	0	0
4734.244	n/a	WORD	2367122	wordpools/wasnorm_wordpool_576.txt	LTP278	ltpFR2	3	20	BRANCH	168	n/a	n/a	0	0	0
4736.72	n/a	WORD	2368360	wordpools/wasnorm_wordpool_576.txt	LTP278	ltpFR2	3	20	OFFICE	972	n/a	n/a	0	0	0
4739.296	n/a	WORD	2369648	wordpools/wasnorm_wordpool_576.txt	LTP278	ltpFR2	3	20	PERFUME	1049	n/a	n/a	0	0	0
4741.722	n/a	WORD	2370861	wordpools/wasnorm_wordpool_576.txt	LTP278	ltpFR2	3	20	PACKAGE	997	n/a	n/a	0	0	0
4744.284	n/a	WORD	2372142	wordpools/wasnorm_wordpool_576.txt	LTP278	ltpFR2	3	20	RUG	1215	n/a	n/a	0	0	0
4747.076	n/a	WORD	2373538	wordpools/wasnorm_wordpool_576.txt	LTP278	ltpFR2	3	20	BUBBLE	183	n/a	n/a	0	0	0
4749.752	n/a	WORD	2374876	wordpools/wasnorm_wordpool_576.txt	LTP278	ltpFR2	3	20	SHOVEL	1295	n/a	n/a	0	0	0
4752.464	n/a	WORD	2376232	wordpools/wasnorm_wordpool_576.txt	LTP278	ltpFR2	3	20	AIRPLANE	12	n/a	n/a	0	0	0
4755.072	n/a	WORD	2377536	wordpools/wasnorm_wordpool_576.txt	LTP278	ltpFR2	3	20	COTTAGE	384	n/a	n/a	0	0	0
4757.534	n/a	WORD	2378767	wordpools/wasnorm_wordpool_576.txt	LTP278	ltpFR2	3	20	BRICK	172	n/a	n/a	0	0	0
4759.97	n/a	WORD	2379985	wordpools/wasnorm_wordpool_576.txt	LTP278	ltpFR2	3	20	MUSTARD	935	n/a	n/a	0	0	0
4762.552	n/a	WORD	2381276	wordpools/wasnorm_wordpool_576.txt	LTP278	ltpFR2	3	20	LUMBER	848	n/a	n/a	0	0	0
4765.108	n/a	WORD	2382554	wordpools/wasnorm_wordpool_576.txt	LTP278	ltpFR2	3	20	DRAGON	492	n/a	n/a	0	0	0
4767.754	n/a	WORD	2383877	wordpools/wasnorm_wordpool_576.txt	LTP278	ltpFR2	3	20	PUDDING	1139	n/a	n/a	0	0	0
4770.382	n/a	WORD	2385191	wordpools/wasnorm_wordpool_576.txt	LTP278	ltpFR2	3	20	BOUQUET	157	n/a	n/a	0	0	0
4773.092	n/a	WORD	2386546	wordpools/wasnorm_wordpool_576.txt	LTP278	ltpFR2	3	20	BANQUET	86	n/a	n/a	0	0	0
4775.852	n/a	WORD	2387926	wordpools/wasnorm_wordpool_576.txt	LTP278	ltpFR2	3	20	TEACHER	1440	n/a	n/a	0	0	0
4778.496	n/a	WORD	2389248	wordpools/wasnorm_wordpool_576.txt	LTP278	ltpFR2	3	20	THIEF	1456	n/a	n/a	0	0	0
4780.102	n/a	START	2390051	n/a	LTP278	ltpFR2	3	n/a	n/a	n/a	30	n/a	n/a	n/a	n/a
4780.914	n/a	DISTRACTOR	2390457	n/a	LTP278	ltpFR2	3	20	n/a	n/a	n/a	n/a	0	0	0
4780.922	n/a	PROB	2390461	n/a	LTP278	ltpFR2	3	n/a	n/a	n/a	30	13	5	4	4
4782.542	n/a	PROB	2391271	n/a	LTP278	ltpFR2	3	n/a	n/a	n/a	30	24	9	8	7
4785.202	n/a	PROB	2392601	n/a	LTP278	ltpFR2	3	n/a	n/a	n/a	30	20	5	8	7
4787.794	n/a	PROB	2393897	n/a	LTP278	ltpFR2	3	n/a	n/a	n/a	30	23	6	8	9
4790.404	n/a	PROB	2395202	n/a	LTP278	ltpFR2	3	n/a	n/a	n/a	30	17	5	7	5
4791.96	n/a	PROB	2395980	n/a	LTP278	ltpFR2	3	n/a	n/a	n/a	30	13	6	4	3
4793.788	n/a	PROB	2396894	n/a	LTP278	ltpFR2	3	n/a	n/a	n/a	30	16	8	7	1
4795.278	n/a	PROB	2397639	n/a	LTP278	ltpFR2	3	n/a	n/a	n/a	30	17	7	8	2
4796.866	n/a	PROB	2398433	n/a	LTP278	ltpFR2	3	n/a	n/a	n/a	30	9	1	2	6
4798.084	n/a	PROB	2399042	n/a	LTP278	ltpFR2	3	n/a	n/a	n/a	30	15	7	1	7
4799.488	n/a	PROB	2399744	n/a	LTP278	ltpFR2	3	n/a	n/a	n/a	30	12	9	1	2
4801.564	n/a	PROB	2400782	n/a	LTP278	ltpFR2	3	n/a	n/a	n/a	30	12	1	7	4
4802.938	n/a	STOP	2401469	n/a	LTP278	ltpFR2	3	n/a	n/a	n/a	30	n/a	n/a	n/a	n/a
4805.918	n/a	REC_START	2402959	n/a	LTP278	ltpFR2	3	20	n/a	n/a	n/a	n/a	0	0	0
4806.416	n/a	REC_WORD	2403208	wordpools/wasnorm_wordpool_576.txt	LTP278	ltpFR2	3	20	PRINCE	1124	n/a	n/a	0	0	0
4807.348	n/a	REC_WORD	2403674	wordpools/wasnorm_wordpool_576.txt	LTP278	ltpFR2	3	20	PEPPER	1047	n/a	n/a	0	0	0
4808.206	n/a	REC_WORD	2404103	wordpools/wasnorm_wordpool_576.txt	LTP278	ltpFR2	3	20	GARLIC	624	n/a	n/a	0	0	0
4808.936	n/a	REC_WORD	2404468	wordpools/wasnorm_wordpool_576.txt	LTP278	ltpFR2	3	20	PERFUME	1049	n/a	n/a	0	0	0
4809.886	n/a	REC_WORD	2404943	wordpools/wasnorm_wordpool_576.txt	LTP278	ltpFR2	3	20	TWIG	1527	n/a	n/a	0	0	0
4817.074	n/a	REC_WORD	2408537	wordpools/wasnorm_wordpool_576.txt	LTP278	ltpFR2	3	20	CABIN	211	n/a	n/a	0	0	0
4896.982	n/a	DISTRACTOR	2448491	n/a	LTP278	ltpFR2	3	21	n/a	n/a	n/a	n/a	0	0	0
4896.982	n/a	START	2448491	n/a	LTP278	ltpFR2	3	n/a	n/a	n/a	31	n/a	n/a	n/a	n/a
4897.032	n/a	PROB	2448516	n/a	LTP278	ltpFR2	3	n/a	n/a	n/a	31	12	8	1	3
4898.572	n/a	PROB	2449286	n/a	LTP278	ltpFR2	3	n/a	n/a	n/a	31	9	5	1	3
4900.274	n/a	PROB	2450137	n/a	LTP278	ltpFR2	3	n/a	n/a	n/a	31	15	6	8	1
4902.164	n/a	PROB	2451082	n/a	LTP278	ltpFR2	3	n/a	n/a	n/a	31	13	6	6	1
4903.57	n/a	PROB	2451785	n/a	LTP278	ltpFR2	3	n/a	n/a	n/a	31	15	4	5	6
4905.794	n/a	PROB	2452897	n/a	LTP278	ltpFR2	3	n/a	n/a	n/a	31	17	2	7	8
4907.752	n/a	PROB	2453876	n/a	LTP278	ltpFR2	3	n/a	n/a	n/a	31	16	6	7	3
4910.83	n/a	PROB	2455415	n/a	LTP278	ltpFR2	3	n/a	n/a	n/a	31	8	2	4	2
4912.188	n/a	PROB	2456094	n/a	LTP278	ltpFR2	3	n/a	n/a	n/a	31	21	6	5	9
4914.194	n/a	PROB	2457097	n/a	LTP278	ltpFR2	3	n/a	n/a	n/a	31	22	8	8	6
4916.034	n/a	PROB	2458017	n/a	LTP278	ltpFR2	3	n/a	n/a	n/a	31	19	9	3	7
4917.724	n/a	PROB	2458862	n/a	LTP278	ltpFR2	3	n/a	n/a	n/a	31	12	5	6	1
4920.296	n/a	STOP	2460148	n/a	LTP278	ltpFR2	3	n/a	n/a	n/a	31	n/a	n/a	n/a	n/a
4922.01	n/a	WORD	2461005	wordpools/wasnorm_wordpool_576.txt	LTP278	ltpFR2	3	21	LABEL	790	n/a	n/a	0	0	0
4924.538	n/a	WORD	2462269	wordpools/wasnorm_wordpool_576.txt	LTP278	ltpFR2	3	21	PEACH	1031	n/a	n/a	0	0	0
4926.976	n/a	WORD	2463488	wordpools/wasnorm_wordpool_576.txt	LTP278	ltpFR2	3	21	FRIEND	606	n/a	n/a	0	0	0
4929.656	n/a	WORD	2464828	wordpools/wasnorm_wordpool_576.txt	LTP278	ltpFR2	3	21	HANDBAG	684	n/a	n/a	0	0	0
4932.268	n/a	WORD	2466134	wordpools/wasnorm_wordpool_576.txt	LTP278	ltpFR2	3	21	RABBIT	1152	n/a	n/a	0	0	0
4934.744	n/a	WORD	2467372	wordpools/wasnorm_wordpool_576.txt	LTP278	ltpFR2	3	21	FOOTBALL	591	n/a	n/a	0	0	0
4937.522	n/a	WORD	2468761	wordpools/wasnorm_wordpool_576.txt	LTP278	ltpFR2	3	21	RACKET	1155	n/a	n/a	0	0	0
4940.264	n/a	WORD	2470132	wordpools/wasnorm_wordpool_576.txt	LTP278	ltpFR2	3	21	PADDLE	1000	n/a	n/a	0	0	0
4943.004	n/a	WORD	2471502	wordpools/wasnorm_wordpool_576.txt	LTP278	ltpFR2	3	21	PLAYGROUND	1087	n/a	n/a	0	0	0
4945.602	n/a	WORD	2472801	wordpools/wasnorm_wordpool_576.txt	LTP278	ltpFR2	3	21	SCALPEL	1243	n/a	n/a	0	0	0
4948.346	n/a	WORD	2474173	wordpools/wasnorm_wordpool_576.txt	LTP278	ltpFR2	3	21	TRANSPLANT	1496	n/a	n/a	0	0	0
4951.09	n/a	WORD	2475545	wordpools/wasnorm_wordpool_576.txt	LTP278	ltpFR2	3	21	CUPBOARD	425	n/a	n/a	0	0	0
4953.866	n/a	WORD	2476933	wordpools/wasnorm_wordpool_576.txt	LTP278	ltpFR2	3	21	SODA	1341	n/a	n/a	0	0	0
4956.644	n/a	WORD	2478322	wordpools/wasnorm_wordpool_576.txt	LTP278	ltpFR2	3	21	BUNNY	198	n/a	n/a	0	0	0
4959.4	n/a	WORD	2479700	wordpools/wasnorm_wordpool_576.txt	LTP278	ltpFR2	3	21	PARTNER	1017	n/a	n/a	0	0	0
4962.178	n/a	WORD	2481089	wordpools/wasnorm_wordpool_576.txt	LTP278	ltpFR2	3	21	PLAID	1080	n/a	n/a	0	0	0
4964.774	n/a	WORD	2482387	wordpools/wasnorm_wordpool_576.txt	LTP278	ltpFR2	3	21	DENIM	446	n/a	n/a	0	0	0
4967.33	n/a	WORD	2483665	wordpools/wasnorm_wordpool_576.txt	LTP278	ltpFR2	3	21	BROOK	177	n/a	n/a	0	0	0
4969.962	n/a	WORD	2484981	wordpools/wasnorm_wordpool_576.txt	LTP278	ltpFR2	3	21	SOFTBALL	1343	n/a	n/a	0	0	0
4972.756	n/a	WORD	2486378	wordpools/wasnorm_wordpool_576.txt	LTP278	ltpFR2	3	21	MILDEW	893	n/a	n/a	0	0	0
4975.382	n/a	WORD	2487691	wordpools/wasnorm_wordpool_576.txt	LTP278	ltpFR2	3	21	FUNGUS	614	n/a	n/a	0	0	0
4978.126	n/a	WORD	2489063	wordpools/wasnorm_wordpool_576.txt	LTP278	ltpFR2	3	21	POPCORN	1104	n/a	n/a	0	0	0
4980.652	n/a	WORD	2490326	wordpools/wasnorm_wordpool_576.txt	LTP278	ltpFR2	3	21	HIKER	708	n/a	n/a	0	0	0
4983.362	n/a	WORD	2491681	wordpools/wasnorm_wordpool_576.txt	LTP278	ltpFR2	3	21	FIREMAN	569	n/a	n/a	0	0	0
4984.968	n/a	START	2492484	n/a	LTP278	ltpFR2	3	n/a	n/a	n/a	32	n/a	n/a	n/a	n/a
4985.844	n/a	DISTRACTOR	2492922	n/a	LTP278	ltpFR2	3	21	n/a	n/a	n/a	n/a	0	0	0
4985.854	n/a	PROB	2492927	n/a	LTP278	ltpFR2	3	n/a	n/a	n/a	32	17	5	4	8
