mstime	trial_type	stim_file	subject	experiment	session	trial	item_name	item_num	list	answer	test_x	test_y	test_z
0	SESS_START	n/a	LTP228	ltpFR2	7	n/a	n/a	n/a	n/a	n/a	0	0	0
50727	START	n/a	LTP228	ltpFR2	7	n/a	n/a	n/a	-1	n/a	n/a	n/a	n/a
50760	PROB	n/a	LTP228	ltpFR2	7	n/a	n/a	n/a	-1	25	9	8	9
54354	PROB	n/a	LTP228	ltpFR2	7	n/a	n/a	n/a	-1	18	2	7	9
58414	PROB	n/a	LTP228	ltpFR2	7	n/a	n/a	n/a	-1	20	9	8	3
62727	STOP	n/a	LTP228	ltpFR2	7	n/a	n/a	n/a	-1	n/a	n/a	n/a	n/a
115164	DISTRACTOR	n/a	LTP228	ltpFR2	7	1	n/a	n/a	n/a	n/a	0	0	0
115164	START	n/a	LTP228	ltpFR2	7	n/a	n/a	n/a	1	n/a	n/a	n/a	n/a
115198	PROB	n/a	LTP228	ltpFR2	7	n/a	n/a	n/a	1	17	3	9	5
118160	PROB	n/a	LTP228	ltpFR2	7	n/a	n/a	n/a	1	13	4	5	4
121739	PROB	n/a	LTP228	ltpFR2	7	n/a	n/a	n/a	1	15	5	5	5
123069	PROB	n/a	LTP228	ltpFR2	7	n/a	n/a	n/a	1	14	8	5	1
125567	PROB	n/a	LTP228	ltpFR2	7	n/a	n/a	n/a	1	9	2	6	1
127197	PROB	n/a	LTP228	ltpFR2	7	n/a	n/a	n/a	1	25	8	9	8
129877	PROB	n/a	LTP228	ltpFR2	7	n/a	n/a	n/a	1	25	9	9	7
134520	PROB	n/a	LTP228	ltpFR2	7	n/a	n/a	n/a	1	9	2	1	6
139163	STOP	n/a	LTP228	ltpFR2	7	n/a	n/a	n/a	1	n/a	n/a	n/a	n/a
140111	WORD	wordpools/wasnorm_wordpool_576.txt	LTP228	ltpFR2	7	1	COUNTRY	388	n/a	n/a	0	0	0
142625	WORD	wordpools/wasnorm_wordpool_576.txt	LTP228	ltpFR2	7	1	TERMITE	1451	n/a	n/a	0	0	0
145104	WORD	wordpools/wasnorm_wordpool_576.txt	LTP228	ltpFR2	7	1	BOX	159	n/a	n/a	0	0	0
147551	WORD	wordpools/wasnorm_wordpool_576.txt	LTP228	ltpFR2	7	1	PLUTO	1092	n/a	n/a	0	0	0
150363	WORD	wordpools/wasnorm_wordpool_576.txt	LTP228	ltpFR2	7	1	GARDEN	623	n/a	n/a	0	0	0
153158	WORD	wordpools/wasnorm_wordpool_576.txt	LTP228	ltpFR2	7	1	GROUND	666	n/a	n/a	0	0	0
155639	WORD	wordpools/wasnorm_wordpool_576.txt	LTP228	ltpFR2	7	1	CRAYON	401	n/a	n/a	0	0	0
158101	WORD	wordpools/wasnorm_wordpool_576.txt	LTP228	ltpFR2	7	1	SEAFOOD	1260	n/a	n/a	0	0	0
160748	WORD	wordpools/wasnorm_wordpool_576.txt	LTP228	ltpFR2	7	1	TURTLE	1522	n/a	n/a	0	0	0
163493	WORD	wordpools/wasnorm_wordpool_576.txt	LTP228	ltpFR2	7	1	NEUTRON	947	n/a	n/a	0	0	0
166056	WORD	wordpools/wasnorm_wordpool_576.txt	LTP228	ltpFR2	7	1	GRAVE	658	n/a	n/a	0	0	0
168803	WORD	wordpools/wasnorm_wordpool_576.txt	LTP228	ltpFR2	7	1	HUMAN	726	n/a	n/a	0	0	0
171532	WORD	wordpools/wasnorm_wordpool_576.txt	LTP228	ltpFR2	7	1	WHISTLE	1606	n/a	n/a	0	0	0
174111	WORD	wordpools/wasnorm_wordpool_576.txt	LTP228	ltpFR2	7	1	DASHBOARD	441	n/a	n/a	0	0	0
176692	WORD	wordpools/wasnorm_wordpool_576.txt	LTP228	ltpFR2	7	1	APPLE	33	n/a	n/a	0	0	0
179120	WORD	wordpools/wasnorm_wordpool_576.txt	LTP228	ltpFR2	7	1	CHILD	299	n/a	n/a	0	0	0
181618	WORD	wordpools/wasnorm_wordpool_576.txt	LTP228	ltpFR2	7	1	PILOT	1070	n/a	n/a	0	0	0
184379	WORD	wordpools/wasnorm_wordpool_576.txt	LTP228	ltpFR2	7	1	CASKET	255	n/a	n/a	0	0	0
187142	WORD	wordpools/wasnorm_wordpool_576.txt	LTP228	ltpFR2	7	1	TOMBSTONE	1478	n/a	n/a	0	0	0
189806	WORD	wordpools/wasnorm_wordpool_576.txt	LTP228	ltpFR2	7	1	SUBWAY	1400	n/a	n/a	0	0	0
192467	WORD	wordpools/wasnorm_wordpool_576.txt	LTP228	ltpFR2	7	1	WRIST	1626	n/a	n/a	0	0	0
195230	WORD	wordpools/wasnorm_wordpool_576.txt	LTP228	ltpFR2	7	1	ANKLE	24	n/a	n/a	0	0	0
197944	WORD	wordpools/wasnorm_wordpool_576.txt	LTP228	ltpFR2	7	1	BODY	145	n/a	n/a	0	0	0
200606	WORD	wordpools/wasnorm_wordpool_576.txt	LTP228	ltpFR2	7	1	DAISY	435	n/a	n/a	0	0	0
202220	START	n/a	LTP228	ltpFR2	7	n/a	n/a	n/a	2	n/a	n/a	n/a	n/a
203029	DISTRACTOR	n/a	LTP228	ltpFR2	7	1	n/a	n/a	n/a	n/a	0	0	0
203035	PROB	n/a	LTP228	ltpFR2	7	n/a	n/a	n/a	2	11	2	3	6
205398	PROB	n/a	LTP228	ltpFR2	7	n/a	n/a	n/a	2	11	1	5	5
206864	PROB	n/a	LTP228	ltpFR2	7	n/a	n/a	n/a	2	11	4	2	5
209359	PROB	n/a	LTP228	ltpFR2	7	n/a	n/a	n/a	2	15	4	9	2
211540	PROB	n/a	LTP228	ltpFR2	7	n/a	n/a	n/a	2	6	1	3	2
213353	PROB	n/a	LTP228	ltpFR2	7	n/a	n/a	n/a	2	5	2	1	2
214919	PROB	n/a	LTP228	ltpFR2	7	n/a	n/a	n/a	2	12	6	3	3
218263	PROB	n/a	LTP228	ltpFR2	7	n/a	n/a	n/a	2	8	4	1	3
220443	PROB	n/a	LTP228	ltpFR2	7	n/a	n/a	n/a	2	16	2	6	8
223056	PROB	n/a	LTP228	ltpFR2	7	n/a	n/a	n/a	2	7	2	1	4
225260	STOP	n/a	LTP228	ltpFR2	7	n/a	n/a	n/a	2	n/a	n/a	n/a	n/a
228132	REC_START	n/a	LTP228	ltpFR2	7	1	n/a	n/a	n/a	n/a	0	0	0
229268	REC_WORD	wordpools/wasnorm_wordpool_576.txt	LTP228	ltpFR2	7	1	BOX	159	n/a	n/a	0	0	0
230291	REC_WORD	wordpools/wasnorm_wordpool_576.txt	LTP228	ltpFR2	7	1	TERMITE	1451	n/a	n/a	0	0	0
231392	REC_WORD	wordpools/wasnorm_wordpool_576.txt	LTP228	ltpFR2	7	1	HUMAN	726	n/a	n/a	0	0	0
232680	REC_WORD	wordpools/wasnorm_wordpool_576.txt	LTP228	ltpFR2	7	1	DASHBOARD	441	n/a	n/a	0	0	0
318816	DISTRACTOR	n/a	LTP228	ltpFR2	7	2	n/a	n/a	n/a	n/a	0	0	0
318816	START	n/a	LTP228	ltpFR2	7	n/a	n/a	n/a	3	n/a	n/a	n/a	n/a
318849	PROB	n/a	LTP228	ltpFR2	7	n/a	n/a	n/a	3	22	9	8	5
322793	PROB	n/a	LTP228	ltpFR2	7	n/a	n/a	n/a	3	9	4	2	3
325255	PROB	n/a	LTP228	ltpFR2	7	n/a	n/a	n/a	3	25	8	8	9
329600	PROB	n/a	LTP228	ltpFR2	7	n/a	n/a	n/a	3	13	1	5	7
331614	PROB	n/a	LTP228	ltpFR2	7	n/a	n/a	n/a	3	23	9	7	7
334609	PROB	n/a	LTP228	ltpFR2	7	n/a	n/a	n/a	3	12	1	9	2
336472	PROB	n/a	LTP228	ltpFR2	7	n/a	n/a	n/a	3	17	3	6	8
339385	PROB	n/a	LTP228	ltpFR2	7	n/a	n/a	n/a	3	11	7	1	3
340833	PROB	n/a	LTP228	ltpFR2	7	n/a	n/a	n/a	3	16	2	6	8
342511	STOP	n/a	LTP228	ltpFR2	7	n/a	n/a	n/a	3	n/a	n/a	n/a	n/a
343879	WORD	wordpools/wasnorm_wordpool_576.txt	LTP228	ltpFR2	7	2	SLIME	1327	n/a	n/a	0	0	0
346642	WORD	wordpools/wasnorm_wordpool_576.txt	LTP228	ltpFR2	7	2	CATTLE	261	n/a	n/a	0	0	0
349436	WORD	wordpools/wasnorm_wordpool_576.txt	LTP228	ltpFR2	7	2	PARENT	1013	n/a	n/a	0	0	0
352182	WORD	wordpools/wasnorm_wordpool_576.txt	LTP228	ltpFR2	7	2	DAUGHTER	442	n/a	n/a	0	0	0
354963	WORD	wordpools/wasnorm_wordpool_576.txt	LTP228	ltpFR2	7	2	BOUQUET	157	n/a	n/a	0	0	0
357408	WORD	wordpools/wasnorm_wordpool_576.txt	LTP228	ltpFR2	7	2	RIVER	1194	n/a	n/a	0	0	0
359972	WORD	wordpools/wasnorm_wordpool_576.txt	LTP228	ltpFR2	7	2	STREAM	1392	n/a	n/a	0	0	0
362751	WORD	wordpools/wasnorm_wordpool_576.txt	LTP228	ltpFR2	7	2	JELLO	754	n/a	n/a	0	0	0
365564	WORD	wordpools/wasnorm_wordpool_576.txt	LTP228	ltpFR2	7	2	STAR	1373	n/a	n/a	0	0	0
368109	WORD	wordpools/wasnorm_wordpool_576.txt	LTP228	ltpFR2	7	2	FLOWER	584	n/a	n/a	0	0	0
370706	WORD	wordpools/wasnorm_wordpool_576.txt	LTP228	ltpFR2	7	2	GIFT	635	n/a	n/a	0	0	0
373468	WORD	wordpools/wasnorm_wordpool_576.txt	LTP228	ltpFR2	7	2	BLOUSE	139	n/a	n/a	0	0	0
375948	WORD	wordpools/wasnorm_wordpool_576.txt	LTP228	ltpFR2	7	2	DANCER	437	n/a	n/a	0	0	0
378644	WORD	wordpools/wasnorm_wordpool_576.txt	LTP228	ltpFR2	7	2	DOLPHIN	483	n/a	n/a	0	0	0
381073	WORD	wordpools/wasnorm_wordpool_576.txt	LTP228	ltpFR2	7	2	IDOL	733	n/a	n/a	0	0	0
383754	WORD	wordpools/wasnorm_wordpool_576.txt	LTP228	ltpFR2	7	2	BACON	67	n/a	n/a	0	0	0
386449	WORD	wordpools/wasnorm_wordpool_576.txt	LTP228	ltpFR2	7	2	OMELET	976	n/a	n/a	0	0	0
389045	WORD	wordpools/wasnorm_wordpool_576.txt	LTP228	ltpFR2	7	2	SAUSAGE	1238	n/a	n/a	0	0	0
391625	WORD	wordpools/wasnorm_wordpool_576.txt	LTP228	ltpFR2	7	2	NOMAD	955	n/a	n/a	0	0	0
394387	WORD	wordpools/wasnorm_wordpool_576.txt	LTP228	ltpFR2	7	2	PIZZA	1079	n/a	n/a	0	0	0
397050	WORD	wordpools/wasnorm_wordpool_576.txt	LTP228	ltpFR2	7	2	RADISH	1158	n/a	n/a	0	0	0
399530	WORD	wordpools/wasnorm_wordpool_576.txt	LTP228	ltpFR2	7	2	CORAL	378	n/a	n/a	0	0	0
402209	WORD	wordpools/wasnorm_wordpool_576.txt	LTP228	ltpFR2	7	2	PEBBLE	1035	n/a	n/a	0	0	0
404706	WORD	wordpools/wasnorm_wordpool_576.txt	LTP228	ltpFR2	7	2	MILDEW	893	n/a	n/a	0	0	0
406320	START	n/a	LTP228	ltpFR2	7	n/a	n/a	n/a	4	n/a	n/a	n/a	n/a
407263	DISTRACTOR	n/a	LTP228	ltpFR2	7	2	n/a	n/a	n/a	n/a	0	0	0
407268	PROB	n/a	LTP228	ltpFR2	7	n/a	n/a	n/a	4	24	9	2	3
410230	PROB	n/a	LTP228	ltpFR2	7	n/a	n/a	n/a	4	13	4	2	7
414308	PROB	n/a	LTP228	ltpFR2	7	n/a	n/a	n/a	4	9	1	3	5
415956	PROB	n/a	LTP228	ltpFR2	7	n/a	n/a	n/a	4	11	1	2	8
419867	PROB	n/a	LTP228	ltpFR2	7	n/a	n/a	n/a	4	11	2	3	6
421548	PROB	n/a	LTP228	ltpFR2	7	n/a	n/a	n/a	4	13	6	3	4
423195	PROB	n/a	LTP228	ltpFR2	7	n/a	n/a	n/a	4	22	9	8	5
426490	PROB	n/a	LTP228	ltpFR2	7	n/a	n/a	n/a	4	12	9	2	1
428404	PROB	n/a	LTP228	ltpFR2	7	n/a	n/a	n/a	4	12	8	2	2
430056	STOP	n/a	LTP228	ltpFR2	7	n/a	n/a	n/a	4	n/a	n/a	n/a	n/a
432249	REC_START	n/a	LTP228	ltpFR2	7	2	n/a	n/a	n/a	n/a	0	0	0
433311	REC_WORD	wordpools/wasnorm_wordpool_576.txt	LTP228	ltpFR2	7	2	SLIME	1327	n/a	n/a	0	0	0
435462	REC_WORD	wordpools/wasnorm_wordpool_576.txt	LTP228	ltpFR2	7	2	DAUGHTER	442	n/a	n/a	0	0	0
436597	REC_WORD	wordpools/wasnorm_wordpool_576.txt	LTP228	ltpFR2	7	2	DANCER	437	n/a	n/a	0	0	0
437414	REC_WORD_VV	wordpools/wasnorm_wordpool_576.txt	LTP228	ltpFR2	7	2	<>	-1	n/a	n/a	0	0	0
439185	REC_WORD	wordpools/wasnorm_wordpool_576.txt	LTP228	ltpFR2	7	2	DOLPHIN	483	n/a	n/a	0	0	0
443067	REC_WORD	wordpools/wasnorm_wordpool_576.txt	LTP228	ltpFR2	7	2	STAR	1373	n/a	n/a	0	0	0
444252	REC_WORD	wordpools/wasnorm_wordpool_576.txt	LTP228	ltpFR2	7	2	MILDEW	893	n/a	n/a	0	0	0
522949	DISTRACTOR	n/a	LTP228	ltpFR2	7	3	n/a	n/a	n/a	n/a	0	0	0
522949	START	n/a	LTP228	ltpFR2	7	n/a	n/a	n/a	5	n/a	n/a	n/a	n/a
522982	PROB	n/a	LTP228	ltpFR2	7	n/a	n/a	n/a	5	21	4	8	9
525377	PROB	n/a	LTP228	ltpFR2	7	n/a	n/a	n/a	5	21	8	4	9
527792	PROB	n/a	LTP228	ltpFR2	7	n/a	n/a	n/a	5	20	5	7	8
530370	PROB	n/a	LTP228	ltpFR2	7	n/a	n/a	n/a	5	18	7	9	2
534264	PROB	n/a	LTP228	ltpFR2	7	n/a	n/a	n/a	5	17	1	8	8
537927	PROB	n/a	LTP228	ltpFR2	7	n/a	n/a	n/a	5	11	4	5	2
541071	PROB	n/a	LTP228	ltpFR2	7	n/a	n/a	n/a	5	12	3	7	2
546948	STOP	n/a	LTP228	ltpFR2	7	n/a	n/a	n/a	5	n/a	n/a	n/a	n/a
548161	WORD	wordpools/wasnorm_wordpool_576.txt	LTP228	ltpFR2	7	3	JURY	766	n/a	n/a	0	0	0
550758	WORD	wordpools/wasnorm_wordpool_576.txt	LTP228	ltpFR2	7	3	SMOG	1330	n/a	n/a	0	0	0
553386	WORD	wordpools/wasnorm_wordpool_576.txt	LTP228	ltpFR2	7	3	PUDDLE	1140	n/a	n/a	0	0	0
555817	WORD	wordpools/wasnorm_wordpool_576.txt	LTP228	ltpFR2	7	3	BADGE	68	n/a	n/a	0	0	0
558613	WORD	wordpools/wasnorm_wordpool_576.txt	LTP228	ltpFR2	7	3	GRIZZLY	662	n/a	n/a	0	0	0
561075	WORD	wordpools/wasnorm_wordpool_576.txt	LTP228	ltpFR2	7	3	FRIEND	606	n/a	n/a	0	0	0
563606	WORD	wordpools/wasnorm_wordpool_576.txt	LTP228	ltpFR2	7	3	PATIENT	1024	n/a	n/a	0	0	0
566367	WORD	wordpools/wasnorm_wordpool_576.txt	LTP228	ltpFR2	7	3	HEDGE	699	n/a	n/a	0	0	0
568865	WORD	wordpools/wasnorm_wordpool_576.txt	LTP228	ltpFR2	7	3	HUSBAND	728	n/a	n/a	0	0	0
571594	WORD	wordpools/wasnorm_wordpool_576.txt	LTP228	ltpFR2	7	3	COTTAGE	384	n/a	n/a	0	0	0
574289	WORD	wordpools/wasnorm_wordpool_576.txt	LTP228	ltpFR2	7	3	SHORTCAKE	1292	n/a	n/a	0	0	0
576986	WORD	wordpools/wasnorm_wordpool_576.txt	LTP228	ltpFR2	7	3	PASTRY	1022	n/a	n/a	0	0	0
579782	WORD	wordpools/wasnorm_wordpool_576.txt	LTP228	ltpFR2	7	3	CROWN	415	n/a	n/a	0	0	0
582410	WORD	wordpools/wasnorm_wordpool_576.txt	LTP228	ltpFR2	7	3	POLICE	1098	n/a	n/a	0	0	0
585190	WORD	wordpools/wasnorm_wordpool_576.txt	LTP228	ltpFR2	7	3	BUG	187	n/a	n/a	0	0	0
587787	WORD	wordpools/wasnorm_wordpool_576.txt	LTP228	ltpFR2	7	3	DANDRUFF	439	n/a	n/a	0	0	0
590299	WORD	wordpools/wasnorm_wordpool_576.txt	LTP228	ltpFR2	7	3	COD	340	n/a	n/a	0	0	0
593111	WORD	wordpools/wasnorm_wordpool_576.txt	LTP228	ltpFR2	7	3	RUG	1215	n/a	n/a	0	0	0
595742	WORD	wordpools/wasnorm_wordpool_576.txt	LTP228	ltpFR2	7	3	BOYFRIEND	162	n/a	n/a	0	0	0
598370	WORD	wordpools/wasnorm_wordpool_576.txt	LTP228	ltpFR2	7	3	CLAMP	316	n/a	n/a	0	0	0
601050	WORD	wordpools/wasnorm_wordpool_576.txt	LTP228	ltpFR2	7	3	HEART	697	n/a	n/a	0	0	0
603580	WORD	wordpools/wasnorm_wordpool_576.txt	LTP228	ltpFR2	7	3	LONDON	843	n/a	n/a	0	0	0
606159	WORD	wordpools/wasnorm_wordpool_576.txt	LTP228	ltpFR2	7	3	ROBIN	1199	n/a	n/a	0	0	0
608922	WORD	wordpools/wasnorm_wordpool_576.txt	LTP228	ltpFR2	7	3	QUAIL	1147	n/a	n/a	0	0	0
610537	START	n/a	LTP228	ltpFR2	7	n/a	n/a	n/a	6	n/a	n/a	n/a	n/a
611410	DISTRACTOR	n/a	LTP228	ltpFR2	7	3	n/a	n/a	n/a	n/a	0	0	0
611418	PROB	n/a	LTP228	ltpFR2	7	n/a	n/a	n/a	6	13	7	3	3
612783	PROB	n/a	LTP228	ltpFR2	7	n/a	n/a	n/a	6	24	7	8	9
615662	PROB	n/a	LTP228	ltpFR2	7	n/a	n/a	n/a	6	12	6	1	5
619206	PROB	n/a	LTP228	ltpFR2	7	n/a	n/a	n/a	6	18	6	5	7
621720	PROB	n/a	LTP228	ltpFR2	7	n/a	n/a	n/a	6	12	4	7	1
624099	PROB	n/a	LTP228	ltpFR2	7	n/a	n/a	n/a	6	18	7	7	4
625947	PROB	n/a	LTP228	ltpFR2	7	n/a	n/a	n/a	6	11	7	1	3
630506	PROB	n/a	LTP228	ltpFR2	7	n/a	n/a	n/a	6	20	6	5	9
633574	STOP	n/a	LTP228	ltpFR2	7	n/a	n/a	n/a	6	n/a	n/a	n/a	n/a
636415	REC_START	n/a	LTP228	ltpFR2	7	3	n/a	n/a	n/a	n/a	0	0	0
637461	REC_WORD	wordpools/wasnorm_wordpool_576.txt	LTP228	ltpFR2	7	3	JURY	766	n/a	n/a	0	0	0
638541	REC_WORD	wordpools/wasnorm_wordpool_576.txt	LTP228	ltpFR2	7	3	BADGE	68	n/a	n/a	0	0	0
639389	REC_WORD	wordpools/wasnorm_wordpool_576.txt	LTP228	ltpFR2	7	3	POLICE	1098	n/a	n/a	0	0	0
640512	REC_WORD	wordpools/wasnorm_wordpool_576.txt	LTP228	ltpFR2	7	3	GRIZZLY	662	n/a	n/a	0	0	0
641401	REC_WORD	wordpools/wasnorm_wordpool_576.txt	LTP228	ltpFR2	7	3	HEDGE	699	n/a	n/a	0	0	0
642458	REC_WORD	wordpools/wasnorm_wordpool_576.txt	LTP228	ltpFR2	7	3	PASTRY	1022	n/a	n/a	0	0	0
673842	REC_WORD	wordpools/wasnorm_wordpool_576.txt	LTP228	ltpFR2	7	3	HUSBAND	728	n/a	n/a	0	0	0
675566	REC_WORD	wordpools/wasnorm_wordpool_576.txt	LTP228	ltpFR2	7	3	BOYFRIEND	162	n/a	n/a	0	0	0
727081	WORD	wordpools/wasnorm_wordpool_576.txt	LTP228	ltpFR2	7	4	FRAGRANCE	599	n/a	n/a	0	0	0
729562	WORD	wordpools/wasnorm_wordpool_576.txt	LTP228	ltpFR2	7	4	CAMEL	223	n/a	n/a	0	0	0
732223	WORD	wordpools/wasnorm_wordpool_576.txt	LTP228	ltpFR2	7	4	JOURNAL	760	n/a	n/a	0	0	0
734771	WORD	wordpools/wasnorm_wordpool_576.txt	LTP228	ltpFR2	7	4	SUSPECT	1415	n/a	n/a	0	0	0
737583	WORD	wordpools/wasnorm_wordpool_576.txt	LTP228	ltpFR2	7	4	CREATURE	403	n/a	n/a	0	0	0
740079	WORD	wordpools/wasnorm_wordpool_576.txt	LTP228	ltpFR2	7	4	PASTA	1021	n/a	n/a	0	0	0
742792	WORD	wordpools/wasnorm_wordpool_576.txt	LTP228	ltpFR2	7	4	AGENT	10	n/a	n/a	0	0	0
745487	WORD	wordpools/wasnorm_wordpool_576.txt	LTP228	ltpFR2	7	4	TEMPLE	1448	n/a	n/a	0	0	0
748250	WORD	wordpools/wasnorm_wordpool_576.txt	LTP228	ltpFR2	7	4	LAKE	796	n/a	n/a	0	0	0
750697	WORD	wordpools/wasnorm_wordpool_576.txt	LTP228	ltpFR2	7	4	EAGLE	512	n/a	n/a	0	0	0
753159	WORD	wordpools/wasnorm_wordpool_576.txt	LTP228	ltpFR2	7	4	SHELF	1280	n/a	n/a	0	0	0
755707	WORD	wordpools/wasnorm_wordpool_576.txt	LTP228	ltpFR2	7	4	FOOT	590	n/a	n/a	0	0	0
758385	WORD	wordpools/wasnorm_wordpool_576.txt	LTP228	ltpFR2	7	4	LIGHTNING	820	n/a	n/a	0	0	0
760998	WORD	wordpools/wasnorm_wordpool_576.txt	LTP228	ltpFR2	7	4	TWEEZERS	1526	n/a	n/a	0	0	0
763745	WORD	wordpools/wasnorm_wordpool_576.txt	LTP228	ltpFR2	7	4	CHAUFFEUR	283	n/a	n/a	0	0	0
766357	WORD	wordpools/wasnorm_wordpool_576.txt	LTP228	ltpFR2	7	4	DRIVER	499	n/a	n/a	0	0	0
769019	WORD	wordpools/wasnorm_wordpool_576.txt	LTP228	ltpFR2	7	4	ORCHID	982	n/a	n/a	0	0	0
771766	WORD	wordpools/wasnorm_wordpool_576.txt	LTP228	ltpFR2	7	4	TREAT	1501	n/a	n/a	0	0	0
774495	WORD	wordpools/wasnorm_wordpool_576.txt	LTP228	ltpFR2	7	4	SNACK	1331	n/a	n/a	0	0	0
777124	WORD	wordpools/wasnorm_wordpool_576.txt	LTP228	ltpFR2	7	4	MILK	895	n/a	n/a	0	0	0
779588	WORD	wordpools/wasnorm_wordpool_576.txt	LTP228	ltpFR2	7	4	OX	994	n/a	n/a	0	0	0
782067	WORD	wordpools/wasnorm_wordpool_576.txt	LTP228	ltpFR2	7	4	EGYPT	519	n/a	n/a	0	0	0
784597	WORD	wordpools/wasnorm_wordpool_576.txt	LTP228	ltpFR2	7	4	FIREPLACE	570	n/a	n/a	0	0	0
787276	WORD	wordpools/wasnorm_wordpool_576.txt	LTP228	ltpFR2	7	4	OUTLAW	989	n/a	n/a	0	0	0
788891	START	n/a	LTP228	ltpFR2	7	n/a	n/a	n/a	7	n/a	n/a	n/a	n/a
790051	DISTRACTOR	n/a	LTP228	ltpFR2	7	4	n/a	n/a	n/a	n/a	0	0	0
790055	PROB	n/a	LTP228	ltpFR2	7	n/a	n/a	n/a	7	22	8	5	9
793568	PROB	n/a	LTP228	ltpFR2	7	n/a	n/a	n/a	7	16	8	6	2
796863	PROB	n/a	LTP228	ltpFR2	7	n/a	n/a	n/a	7	16	2	9	5
799175	PROB	n/a	LTP228	ltpFR2	7	n/a	n/a	n/a	7	16	9	6	1
801689	PROB	n/a	LTP228	ltpFR2	7	n/a	n/a	n/a	7	10	1	6	3
803986	PROB	n/a	LTP228	ltpFR2	7	n/a	n/a	n/a	7	19	6	5	8
806098	PROB	n/a	LTP228	ltpFR2	7	n/a	n/a	n/a	7	13	3	2	8
808278	PROB	n/a	LTP228	ltpFR2	7	n/a	n/a	n/a	7	14	9	1	4
812891	STOP	n/a	LTP228	ltpFR2	7	n/a	n/a	n/a	7	n/a	n/a	n/a	n/a
814754	REC_START	n/a	LTP228	ltpFR2	7	4	n/a	n/a	n/a	n/a	0	0	0
816079	REC_WORD	wordpools/wasnorm_wordpool_576.txt	LTP228	ltpFR2	7	4	JOURNAL	760	n/a	n/a	0	0	0
816975	REC_WORD_VV	wordpools/wasnorm_wordpool_576.txt	LTP228	ltpFR2	7	4	<>	-1	n/a	n/a	0	0	0
817790	REC_WORD	wordpools/wasnorm_wordpool_576.txt	LTP228	ltpFR2	7	4	CHAUFFEUR	283	n/a	n/a	0	0	0
818920	REC_WORD	wordpools/wasnorm_wordpool_576.txt	LTP228	ltpFR2	7	4	DRIVER	499	n/a	n/a	0	0	0
822486	REC_WORD	wordpools/wasnorm_wordpool_576.txt	LTP228	ltpFR2	7	4	TREAT	1501	n/a	n/a	0	0	0
823638	REC_WORD	wordpools/wasnorm_wordpool_576.txt	LTP228	ltpFR2	7	4	EGYPT	519	n/a	n/a	0	0	0
905402	DISTRACTOR	n/a	LTP228	ltpFR2	7	5	n/a	n/a	n/a	n/a	0	0	0
905402	START	n/a	LTP228	ltpFR2	7	n/a	n/a	n/a	8	n/a	n/a	n/a	n/a
905435	PROB	n/a	LTP228	ltpFR2	7	n/a	n/a	n/a	8	24	7	8	9
908515	PROB	n/a	LTP228	ltpFR2	7	n/a	n/a	n/a	8	18	6	7	5
912909	PROB	n/a	LTP228	ltpFR2	7	n/a	n/a	n/a	8	18	5	7	6
917002	PROB	n/a	LTP228	ltpFR2	7	n/a	n/a	n/a	8	18	4	8	6
919198	PROB	n/a	LTP228	ltpFR2	7	n/a	n/a	n/a	8	23	9	9	5
921312	PROB	n/a	LTP228	ltpFR2	7	n/a	n/a	n/a	8	12	8	1	3
925040	PROB	n/a	LTP228	ltpFR2	7	n/a	n/a	n/a	8	16	8	1	7
929401	STOP	n/a	LTP228	ltpFR2	7	n/a	n/a	n/a	8	n/a	n/a	n/a	n/a
930415	WORD	wordpools/wasnorm_wordpool_576.txt	LTP228	ltpFR2	7	5	BEAKER	104	n/a	n/a	0	0	0
933061	WORD	wordpools/wasnorm_wordpool_576.txt	LTP228	ltpFR2	7	5	CHEMIST	292	n/a	n/a	0	0	0
935491	WORD	wordpools/wasnorm_wordpool_576.txt	LTP228	ltpFR2	7	5	OINTMENT	974	n/a	n/a	0	0	0
938254	WORD	wordpools/wasnorm_wordpool_576.txt	LTP228	ltpFR2	7	5	COMET	353	n/a	n/a	0	0	0
940751	WORD	wordpools/wasnorm_wordpool_576.txt	LTP228	ltpFR2	7	5	GOBLIN	645	n/a	n/a	0	0	0
943396	WORD	wordpools/wasnorm_wordpool_576.txt	LTP228	ltpFR2	7	5	SOFTBALL	1343	n/a	n/a	0	0	0
945860	WORD	wordpools/wasnorm_wordpool_576.txt	LTP228	ltpFR2	7	5	STICKER	1382	n/a	n/a	0	0	0
948556	WORD	wordpools/wasnorm_wordpool_576.txt	LTP228	ltpFR2	7	5	STATUE	1374	n/a	n/a	0	0	0
951035	WORD	wordpools/wasnorm_wordpool_576.txt	LTP228	ltpFR2	7	5	SCULPTURE	1258	n/a	n/a	0	0	0
953715	WORD	wordpools/wasnorm_wordpool_576.txt	LTP228	ltpFR2	7	5	GHETTO	633	n/a	n/a	0	0	0
956310	WORD	wordpools/wasnorm_wordpool_576.txt	LTP228	ltpFR2	7	5	TRACTOR	1493	n/a	n/a	0	0	0
959023	WORD	wordpools/wasnorm_wordpool_576.txt	LTP228	ltpFR2	7	5	MARKER	870	n/a	n/a	0	0	0
961737	WORD	wordpools/wasnorm_wordpool_576.txt	LTP228	ltpFR2	7	5	PEPPER	1047	n/a	n/a	0	0	0
964482	WORD	wordpools/wasnorm_wordpool_576.txt	LTP228	ltpFR2	7	5	HANDBAG	684	n/a	n/a	0	0	0
967278	WORD	wordpools/wasnorm_wordpool_576.txt	LTP228	ltpFR2	7	5	MONEY	908	n/a	n/a	0	0	0
970073	WORD	wordpools/wasnorm_wordpool_576.txt	LTP228	ltpFR2	7	5	ACTOR	5	n/a	n/a	0	0	0
972837	WORD	wordpools/wasnorm_wordpool_576.txt	LTP228	ltpFR2	7	5	VICTIM	1562	n/a	n/a	0	0	0
975266	WORD	wordpools/wasnorm_wordpool_576.txt	LTP228	ltpFR2	7	5	SUMMIT	1405	n/a	n/a	0	0	0
977780	WORD	wordpools/wasnorm_wordpool_576.txt	LTP228	ltpFR2	7	5	ACTRESS	6	n/a	n/a	0	0	0
980258	WORD	wordpools/wasnorm_wordpool_576.txt	LTP228	ltpFR2	7	5	PLIERS	1089	n/a	n/a	0	0	0
982956	WORD	wordpools/wasnorm_wordpool_576.txt	LTP228	ltpFR2	7	5	RACKET	1155	n/a	n/a	0	0	0
985652	WORD	wordpools/wasnorm_wordpool_576.txt	LTP228	ltpFR2	7	5	COWBOY	395	n/a	n/a	0	0	0
988297	WORD	wordpools/wasnorm_wordpool_576.txt	LTP228	ltpFR2	7	5	PLAID	1080	n/a	n/a	0	0	0
990877	WORD	wordpools/wasnorm_wordpool_576.txt	LTP228	ltpFR2	7	5	KITCHEN	778	n/a	n/a	0	0	0
992491	START	n/a	LTP228	ltpFR2	7	n/a	n/a	n/a	9	n/a	n/a	n/a	n/a
993514	DISTRACTOR	n/a	LTP228	ltpFR2	7	5	n/a	n/a	n/a	n/a	0	0	0
993523	PROB	n/a	LTP228	ltpFR2	7	n/a	n/a	n/a	9	15	4	4	7
998766	PROB	n/a	LTP228	ltpFR2	7	n/a	n/a	n/a	9	12	5	1	6
1000713	PROB	n/a	LTP228	ltpFR2	7	n/a	n/a	n/a	9	6	1	1	4
1001978	PROB	n/a	LTP228	ltpFR2	7	n/a	n/a	n/a	9	18	9	8	1
1003625	PROB	n/a	LTP228	ltpFR2	7	n/a	n/a	n/a	9	13	2	7	4
1006721	PROB	n/a	LTP228	ltpFR2	7	n/a	n/a	n/a	9	11	2	4	5
1009916	PROB	n/a	LTP228	ltpFR2	7	n/a	n/a	n/a	9	16	1	7	8
1011980	PROB	n/a	LTP228	ltpFR2	7	n/a	n/a	n/a	9	23	9	7	9
1016413	STOP	n/a	LTP228	ltpFR2	7	n/a	n/a	n/a	9	n/a	n/a	n/a	n/a
1018403	REC_START	n/a	LTP228	ltpFR2	7	5	n/a	n/a	n/a	n/a	0	0	0
1020570	REC_WORD	wordpools/wasnorm_wordpool_576.txt	LTP228	ltpFR2	7	5	ACTRESS	6	n/a	n/a	0	0	0
1021505	REC_WORD	wordpools/wasnorm_wordpool_576.txt	LTP228	ltpFR2	7	5	PLIERS	1089	n/a	n/a	0	0	0
1022620	REC_WORD	wordpools/wasnorm_wordpool_576.txt	LTP228	ltpFR2	7	5	PLAID	1080	n/a	n/a	0	0	0
1023726	REC_WORD	wordpools/wasnorm_wordpool_576.txt	LTP228	ltpFR2	7	5	COWBOY	395	n/a	n/a	0	0	0
1028513	REC_WORD_VV	wordpools/wasnorm_wordpool_576.txt	LTP228	ltpFR2	7	5	<>	-1	n/a	n/a	0	0	0
1054850	REC_WORD	wordpools/wasnorm_wordpool_576.txt	LTP228	ltpFR2	7	5	ACTOR	5	n/a	n/a	0	0	0
1109053	DISTRACTOR	n/a	LTP228	ltpFR2	7	6	n/a	n/a	n/a	n/a	0	0	0
1109053	START	n/a	LTP228	ltpFR2	7	n/a	n/a	n/a	10	n/a	n/a	n/a	n/a
1109086	PROB	n/a	LTP228	ltpFR2	7	n/a	n/a	n/a	10	15	5	6	4
1110585	PROB	n/a	LTP228	ltpFR2	7	n/a	n/a	n/a	10	14	2	5	7
1112782	PROB	n/a	LTP228	ltpFR2	7	n/a	n/a	n/a	10	17	6	2	9
1116925	PROB	n/a	LTP228	ltpFR2	7	n/a	n/a	n/a	10	10	4	4	2
1119572	PROB	n/a	LTP228	ltpFR2	7	n/a	n/a	n/a	10	152	2	7	3
1121202	PROB	n/a	LTP228	ltpFR2	7	n/a	n/a	n/a	10	16	4	3	9
1123516	PROB	n/a	LTP228	ltpFR2	7	n/a	n/a	n/a	10	16	5	4	7
1125462	PROB	n/a	LTP228	ltpFR2	7	n/a	n/a	n/a	10	14	6	1	7
1128324	PROB	n/a	LTP228	ltpFR2	7	n/a	n/a	n/a	10	14	7	5	2
1133053	STOP	n/a	LTP228	ltpFR2	7	n/a	n/a	n/a	10	n/a	n/a	n/a	n/a
1134083	WORD	wordpools/wasnorm_wordpool_576.txt	LTP228	ltpFR2	7	6	APRON	35	n/a	n/a	0	0	0
1136530	WORD	wordpools/wasnorm_wordpool_576.txt	LTP228	ltpFR2	7	6	CLIMBER	323	n/a	n/a	0	0	0
1139225	WORD	wordpools/wasnorm_wordpool_576.txt	LTP228	ltpFR2	7	6	MONSTER	912	n/a	n/a	0	0	0
1141739	WORD	wordpools/wasnorm_wordpool_576.txt	LTP228	ltpFR2	7	6	TILE	1468	n/a	n/a	0	0	0
1144451	WORD	wordpools/wasnorm_wordpool_576.txt	LTP228	ltpFR2	7	6	MOP	916	n/a	n/a	0	0	0
1147147	WORD	wordpools/wasnorm_wordpool_576.txt	LTP228	ltpFR2	7	6	VIKING	1565	n/a	n/a	0	0	0
1149744	WORD	wordpools/wasnorm_wordpool_576.txt	LTP228	ltpFR2	7	6	SCARF	1246	n/a	n/a	0	0	0
1152356	WORD	wordpools/wasnorm_wordpool_576.txt	LTP228	ltpFR2	7	6	LION	827	n/a	n/a	0	0	0
1154836	WORD	wordpools/wasnorm_wordpool_576.txt	LTP228	ltpFR2	7	6	ATLAS	53	n/a	n/a	0	0	0
1157649	WORD	wordpools/wasnorm_wordpool_576.txt	LTP228	ltpFR2	7	6	CRUTCH	417	n/a	n/a	0	0	0
1160427	WORD	wordpools/wasnorm_wordpool_576.txt	LTP228	ltpFR2	7	6	LEG	809	n/a	n/a	0	0	0
1163206	WORD	wordpools/wasnorm_wordpool_576.txt	LTP228	ltpFR2	7	6	WIFE	1609	n/a	n/a	0	0	0
1165637	WORD	wordpools/wasnorm_wordpool_576.txt	LTP228	ltpFR2	7	6	CHIPMUNK	304	n/a	n/a	0	0	0
1168316	WORD	wordpools/wasnorm_wordpool_576.txt	LTP228	ltpFR2	7	6	TART	1436	n/a	n/a	0	0	0
1170796	WORD	wordpools/wasnorm_wordpool_576.txt	LTP228	ltpFR2	7	6	TABLE	1426	n/a	n/a	0	0	0
1173508	WORD	wordpools/wasnorm_wordpool_576.txt	LTP228	ltpFR2	7	6	PICNIC	1060	n/a	n/a	0	0	0
1176054	WORD	wordpools/wasnorm_wordpool_576.txt	LTP228	ltpFR2	7	6	BEAST	108	n/a	n/a	0	0	0
1178585	WORD	wordpools/wasnorm_wordpool_576.txt	LTP228	ltpFR2	7	6	DRESSER	496	n/a	n/a	0	0	0
1181330	WORD	wordpools/wasnorm_wordpool_576.txt	LTP228	ltpFR2	7	6	ARMY	39	n/a	n/a	0	0	0
1183761	WORD	wordpools/wasnorm_wordpool_576.txt	LTP228	ltpFR2	7	6	CRICKET	408	n/a	n/a	0	0	0
1186489	WORD	wordpools/wasnorm_wordpool_576.txt	LTP228	ltpFR2	7	6	CANDY	230	n/a	n/a	0	0	0
1189168	WORD	wordpools/wasnorm_wordpool_576.txt	LTP228	ltpFR2	7	6	MEDAL	885	n/a	n/a	0	0	0
1191865	WORD	wordpools/wasnorm_wordpool_576.txt	LTP228	ltpFR2	7	6	SHIRT	1287	n/a	n/a	0	0	0
1194494	WORD	wordpools/wasnorm_wordpool_576.txt	LTP228	ltpFR2	7	6	SWAMP	1416	n/a	n/a	0	0	0
1196108	START	n/a	LTP228	ltpFR2	7	n/a	n/a	n/a	11	n/a	n/a	n/a	n/a
1197158	DISTRACTOR	n/a	LTP228	ltpFR2	7	6	n/a	n/a	n/a	n/a	0	0	0
1197173	PROB	n/a	LTP228	ltpFR2	7	n/a	n/a	n/a	11	16	9	1	6
1198888	PROB	n/a	LTP228	ltpFR2	7	n/a	n/a	n/a	11	21	7	9	5
1202166	PROB	n/a	LTP228	ltpFR2	7	n/a	n/a	n/a	11	15	8	4	3
1205162	PROB	n/a	LTP228	ltpFR2	7	n/a	n/a	n/a	11	11	1	9	1
1206493	PROB	n/a	LTP228	ltpFR2	7	n/a	n/a	n/a	11	15	4	4	7
1208624	PROB	n/a	LTP228	ltpFR2	7	n/a	n/a	n/a	11	10	1	7	2
1210121	PROB	n/a	LTP228	ltpFR2	7	n/a	n/a	n/a	11	18	4	8	6
1212018	PROB	n/a	LTP228	ltpFR2	7	n/a	n/a	n/a	11	16	8	2	6
1214115	PROB	n/a	LTP228	ltpFR2	7	n/a	n/a	n/a	11	10	4	4	2
1216162	PROB	n/a	LTP228	ltpFR2	7	n/a	n/a	n/a	11	13	4	6	3
1220108	STOP	n/a	LTP228	ltpFR2	7	n/a	n/a	n/a	11	n/a	n/a	n/a	n/a
1221922	REC_START	n/a	LTP228	ltpFR2	7	6	n/a	n/a	n/a	n/a	0	0	0
1225674	REC_WORD	wordpools/wasnorm_wordpool_576.txt	LTP228	ltpFR2	7	6	APRON	35	n/a	n/a	0	0	0
1226863	REC_WORD	wordpools/wasnorm_wordpool_576.txt	LTP228	ltpFR2	7	6	VIKING	1565	n/a	n/a	0	0	0
1258217	REC_WORD	wordpools/wasnorm_wordpool_576.txt	LTP228	ltpFR2	7	6	KITCHEN	778	n/a	n/a	0	0	0
1312588	WORD	wordpools/wasnorm_wordpool_576.txt	LTP228	ltpFR2	7	7	PERCH	1048	n/a	n/a	0	0	0
1315316	WORD	wordpools/wasnorm_wordpool_576.txt	LTP228	ltpFR2	7	7	SALAD	1224	n/a	n/a	0	0	0
1317764	WORD	wordpools/wasnorm_wordpool_576.txt	LTP228	ltpFR2	7	7	PIANO	1057	n/a	n/a	0	0	0
1320276	WORD	wordpools/wasnorm_wordpool_576.txt	LTP228	ltpFR2	7	7	BULLET	194	n/a	n/a	0	0	0
1322889	WORD	wordpools/wasnorm_wordpool_576.txt	LTP228	ltpFR2	7	7	STAPLE	1371	n/a	n/a	0	0	0
1325519	WORD	wordpools/wasnorm_wordpool_576.txt	LTP228	ltpFR2	7	7	BUNNY	198	n/a	n/a	0	0	0
1328097	WORD	wordpools/wasnorm_wordpool_576.txt	LTP228	ltpFR2	7	7	SPARROW	1347	n/a	n/a	0	0	0
1330695	WORD	wordpools/wasnorm_wordpool_576.txt	LTP228	ltpFR2	7	7	RECORD	1176	n/a	n/a	0	0	0
1333306	WORD	wordpools/wasnorm_wordpool_576.txt	LTP228	ltpFR2	7	7	BLADE	134	n/a	n/a	0	0	0
1335770	WORD	wordpools/wasnorm_wordpool_576.txt	LTP228	ltpFR2	7	7	KETCHUP	771	n/a	n/a	0	0	0
1338399	WORD	wordpools/wasnorm_wordpool_576.txt	LTP228	ltpFR2	7	7	WOMAN	1620	n/a	n/a	0	0	0
1341195	WORD	wordpools/wasnorm_wordpool_576.txt	LTP228	ltpFR2	7	7	CHEST	295	n/a	n/a	0	0	0
1343859	WORD	wordpools/wasnorm_wordpool_576.txt	LTP228	ltpFR2	7	7	CRIB	407	n/a	n/a	0	0	0
1346571	WORD	wordpools/wasnorm_wordpool_576.txt	LTP228	ltpFR2	7	7	ITEM	746	n/a	n/a	0	0	0
1349083	WORD	wordpools/wasnorm_wordpool_576.txt	LTP228	ltpFR2	7	7	LACE	792	n/a	n/a	0	0	0
1351680	WORD	wordpools/wasnorm_wordpool_576.txt	LTP228	ltpFR2	7	7	DRESS	495	n/a	n/a	0	0	0
1354126	WORD	wordpools/wasnorm_wordpool_576.txt	LTP228	ltpFR2	7	7	SALT	1229	n/a	n/a	0	0	0
1356939	WORD	wordpools/wasnorm_wordpool_576.txt	LTP228	ltpFR2	7	7	SCOTCH	1251	n/a	n/a	0	0	0
1359552	WORD	wordpools/wasnorm_wordpool_576.txt	LTP228	ltpFR2	7	7	PARTNER	1017	n/a	n/a	0	0	0
1362014	WORD	wordpools/wasnorm_wordpool_576.txt	LTP228	ltpFR2	7	7	ISLAND	745	n/a	n/a	0	0	0
1364511	WORD	wordpools/wasnorm_wordpool_576.txt	LTP228	ltpFR2	7	7	COUNTY	389	n/a	n/a	0	0	0
1367340	WORD	wordpools/wasnorm_wordpool_576.txt	LTP228	ltpFR2	7	7	POWDER	1117	n/a	n/a	0	0	0
1369870	WORD	wordpools/wasnorm_wordpool_576.txt	LTP228	ltpFR2	7	7	FLUTE	585	n/a	n/a	0	0	0
1372349	WORD	wordpools/wasnorm_wordpool_576.txt	LTP228	ltpFR2	7	7	TWISTER	1530	n/a	n/a	0	0	0
1373965	START	n/a	LTP228	ltpFR2	7	n/a	n/a	n/a	12	n/a	n/a	n/a	n/a
1375066	DISTRACTOR	n/a	LTP228	ltpFR2	7	7	n/a	n/a	n/a	n/a	0	0	0
1375078	PROB	n/a	LTP228	ltpFR2	7	n/a	n/a	n/a	12	14	4	8	2
1377408	PROB	n/a	LTP228	ltpFR2	7	n/a	n/a	n/a	12	11	8	2	1
1378790	PROB	n/a	LTP228	ltpFR2	7	n/a	n/a	n/a	12	12	7	4	1
1380771	PROB	n/a	LTP228	ltpFR2	7	n/a	n/a	n/a	12	18	4	9	5
1385080	PROB	n/a	LTP228	ltpFR2	7	n/a	n/a	n/a	12	14	7	4	3
1387727	PROB	n/a	LTP228	ltpFR2	7	n/a	n/a	n/a	12	18	9	4	5
1389924	PROB	n/a	LTP228	ltpFR2	7	n/a	n/a	n/a	12	16	6	9	1
1391371	PROB	n/a	LTP228	ltpFR2	7	n/a	n/a	n/a	12	15	7	1	7
1393252	PROB	n/a	LTP228	ltpFR2	7	n/a	n/a	n/a	12	7	1	3	3
1397965	STOP	n/a	LTP228	ltpFR2	7	n/a	n/a	n/a	12	n/a	n/a	n/a	n/a
1399760	REC_START	n/a	LTP228	ltpFR2	7	7	n/a	n/a	n/a	n/a	0	0	0
1404211	REC_WORD	wordpools/wasnorm_wordpool_576.txt	LTP228	ltpFR2	7	7	COUNTY	389	n/a	n/a	0	0	0
1405441	REC_WORD	wordpools/wasnorm_wordpool_576.txt	LTP228	ltpFR2	7	7	BLADE	134	n/a	n/a	0	0	0
1406839	REC_WORD	wordpools/wasnorm_wordpool_576.txt	LTP228	ltpFR2	7	7	LACE	792	n/a	n/a	0	0	0
1408376	REC_WORD	wordpools/wasnorm_wordpool_576.txt	LTP228	ltpFR2	7	7	ITEM	746	n/a	n/a	0	0	0
1409659	REC_WORD	wordpools/wasnorm_wordpool_576.txt	LTP228	ltpFR2	7	7	DRESS	495	n/a	n/a	0	0	0
1411011	REC_WORD	wordpools/wasnorm_wordpool_576.txt	LTP228	ltpFR2	7	7	SCOTCH	1251	n/a	n/a	0	0	0
1412738	REC_WORD	wordpools/wasnorm_wordpool_576.txt	LTP228	ltpFR2	7	7	KETCHUP	771	n/a	n/a	0	0	0
1414052	REC_WORD	wordpools/wasnorm_wordpool_576.txt	LTP228	ltpFR2	7	7	CRIB	407	n/a	n/a	0	0	0
1415509	REC_WORD	wordpools/wasnorm_wordpool_576.txt	LTP228	ltpFR2	7	7	PARTNER	1017	n/a	n/a	0	0	0
1427058	REC_WORD	wordpools/wasnorm_wordpool_576.txt	LTP228	ltpFR2	7	7	CHEST	295	n/a	n/a	0	0	0
1490425	WORD	wordpools/wasnorm_wordpool_576.txt	LTP228	ltpFR2	7	8	REPORT	1184	n/a	n/a	0	0	0
1492956	WORD	wordpools/wasnorm_wordpool_576.txt	LTP228	ltpFR2	7	8	HOOD	714	n/a	n/a	0	0	0
1495434	WORD	wordpools/wasnorm_wordpool_576.txt	LTP228	ltpFR2	7	8	GRILL	661	n/a	n/a	0	0	0
1497882	WORD	wordpools/wasnorm_wordpool_576.txt	LTP228	ltpFR2	7	8	EUROPE	541	n/a	n/a	0	0	0
1500361	WORD	wordpools/wasnorm_wordpool_576.txt	LTP228	ltpFR2	7	8	FLAG	573	n/a	n/a	0	0	0
1503023	WORD	wordpools/wasnorm_wordpool_576.txt	LTP228	ltpFR2	7	8	COSTUME	383	n/a	n/a	0	0	0
1505637	WORD	wordpools/wasnorm_wordpool_576.txt	LTP228	ltpFR2	7	8	WITNESS	1618	n/a	n/a	0	0	0
1508415	WORD	wordpools/wasnorm_wordpool_576.txt	LTP228	ltpFR2	7	8	COCOON	339	n/a	n/a	0	0	0
1511228	WORD	wordpools/wasnorm_wordpool_576.txt	LTP228	ltpFR2	7	8	ONION	977	n/a	n/a	0	0	0
1513958	WORD	wordpools/wasnorm_wordpool_576.txt	LTP228	ltpFR2	7	8	BLACKBOARD	133	n/a	n/a	0	0	0
1516604	WORD	wordpools/wasnorm_wordpool_576.txt	LTP228	ltpFR2	7	8	CAPTIVE	240	n/a	n/a	0	0	0
1519066	WORD	wordpools/wasnorm_wordpool_576.txt	LTP228	ltpFR2	7	8	CONVICT	371	n/a	n/a	0	0	0
1521630	WORD	wordpools/wasnorm_wordpool_576.txt	LTP228	ltpFR2	7	8	LADY	794	n/a	n/a	0	0	0
1524242	WORD	wordpools/wasnorm_wordpool_576.txt	LTP228	ltpFR2	7	8	MAPLE	866	n/a	n/a	0	0	0
1526989	WORD	wordpools/wasnorm_wordpool_576.txt	LTP228	ltpFR2	7	8	GARLIC	624	n/a	n/a	0	0	0
1529451	WORD	wordpools/wasnorm_wordpool_576.txt	LTP228	ltpFR2	7	8	JUNGLE	764	n/a	n/a	0	0	0
1532114	WORD	wordpools/wasnorm_wordpool_576.txt	LTP228	ltpFR2	7	8	CRAB	397	n/a	n/a	0	0	0
1534711	WORD	wordpools/wasnorm_wordpool_576.txt	LTP228	ltpFR2	7	8	SCALLOP	1242	n/a	n/a	0	0	0
1537423	WORD	wordpools/wasnorm_wordpool_576.txt	LTP228	ltpFR2	7	8	CABBAGE	210	n/a	n/a	0	0	0
1540085	WORD	wordpools/wasnorm_wordpool_576.txt	LTP228	ltpFR2	7	8	PARSLEY	1016	n/a	n/a	0	0	0
1542849	WORD	wordpools/wasnorm_wordpool_576.txt	LTP228	ltpFR2	7	8	FOREST	593	n/a	n/a	0	0	0
1545662	WORD	wordpools/wasnorm_wordpool_576.txt	LTP228	ltpFR2	7	8	GARBAGE	622	n/a	n/a	0	0	0
1548240	WORD	wordpools/wasnorm_wordpool_576.txt	LTP228	ltpFR2	7	8	OYSTER	995	n/a	n/a	0	0	0
1550920	WORD	wordpools/wasnorm_wordpool_576.txt	LTP228	ltpFR2	7	8	LADDER	793	n/a	n/a	0	0	0
1552535	START	n/a	LTP228	ltpFR2	7	n/a	n/a	n/a	13	n/a	n/a	n/a	n/a
1553478	DISTRACTOR	n/a	LTP228	ltpFR2	7	8	n/a	n/a	n/a	n/a	0	0	0
1553482	PROB	n/a	LTP228	ltpFR2	7	n/a	n/a	n/a	13	15	5	5	5
1554931	PROB	n/a	LTP228	ltpFR2	7	n/a	n/a	n/a	13	23	8	8	7
1558059	PROB	n/a	LTP228	ltpFR2	7	n/a	n/a	n/a	13	17	6	3	8
1560773	PROB	n/a	LTP228	ltpFR2	7	n/a	n/a	n/a	13	15	8	4	3
1562919	PROB	n/a	LTP228	ltpFR2	7	n/a	n/a	n/a	13	15	8	2	5
1564550	PROB	n/a	LTP228	ltpFR2	7	n/a	n/a	n/a	13	18	6	5	7
1566747	PROB	n/a	LTP228	ltpFR2	7	n/a	n/a	n/a	13	15	5	1	9
1569459	PROB	n/a	LTP228	ltpFR2	7	n/a	n/a	n/a	13	7	1	3	3
1572639	PROB	n/a	LTP228	ltpFR2	7	n/a	n/a	n/a	13	11	2	3	6
1574652	PROB	n/a	LTP228	ltpFR2	7	n/a	n/a	n/a	13	11	6	4	1
1575915	STOP	n/a	LTP228	ltpFR2	7	n/a	n/a	n/a	13	n/a	n/a	n/a	n/a
1578363	REC_START	n/a	LTP228	ltpFR2	7	8	n/a	n/a	n/a	n/a	0	0	0
1584902	REC_WORD	wordpools/wasnorm_wordpool_576.txt	LTP228	ltpFR2	7	8	REPORT	1184	n/a	n/a	0	0	0
1596414	REC_WORD	wordpools/wasnorm_wordpool_576.txt	LTP228	ltpFR2	7	8	CAPTIVE	240	n/a	n/a	0	0	0
1597466	REC_WORD	wordpools/wasnorm_wordpool_576.txt	LTP228	ltpFR2	7	8	CONVICT	371	n/a	n/a	0	0	0
1598807	REC_WORD	wordpools/wasnorm_wordpool_576.txt	LTP228	ltpFR2	7	8	BLACKBOARD	133	n/a	n/a	0	0	0
1600151	REC_WORD	wordpools/wasnorm_wordpool_576.txt	LTP228	ltpFR2	7	8	JUNGLE	764	n/a	n/a	0	0	0
1601278	REC_WORD	wordpools/wasnorm_wordpool_576.txt	LTP228	ltpFR2	7	8	CRAB	397	n/a	n/a	0	0	0
1654968	REST_REWET	n/a	LTP228	ltpFR2	7	8	n/a	n/a	n/a	n/a	0	0	0
1891403	DISTRACTOR	n/a	LTP228	ltpFR2	7	9	n/a	n/a	n/a	n/a	0	0	0
1891403	START	n/a	LTP228	ltpFR2	7	n/a	n/a	n/a	14	n/a	n/a	n/a	n/a
1891436	PROB	n/a	LTP228	ltpFR2	7	n/a	n/a	n/a	14	16	1	7	8
1893867	PROB	n/a	LTP228	ltpFR2	7	n/a	n/a	n/a	14	18	7	6	5
1896428	PROB	n/a	LTP228	ltpFR2	7	n/a	n/a	n/a	14	17	7	8	2
1899224	PROB	n/a	LTP228	ltpFR2	7	n/a	n/a	n/a	14	22	8	6	8
1902187	PROB	n/a	LTP228	ltpFR2	7	n/a	n/a	n/a	14	14	1	9	4
1904067	PROB	n/a	LTP228	ltpFR2	7	n/a	n/a	n/a	14	23	9	9	5
1907995	PROB	n/a	LTP228	ltpFR2	7	n/a	n/a	n/a	14	10	2	7	1
1911157	PROB	n/a	LTP228	ltpFR2	7	n/a	n/a	n/a	14	18	6	5	7
1915403	STOP	n/a	LTP228	ltpFR2	7	n/a	n/a	n/a	14	n/a	n/a	n/a	n/a
1916299	WORD	wordpools/wasnorm_wordpool_576.txt	LTP228	ltpFR2	7	9	TOASTER	1472	n/a	n/a	0	0	0
1919112	WORD	wordpools/wasnorm_wordpool_576.txt	LTP228	ltpFR2	7	9	TYPIST	1532	n/a	n/a	0	0	0
1921609	WORD	wordpools/wasnorm_wordpool_576.txt	LTP228	ltpFR2	7	9	SHOULDER	1294	n/a	n/a	0	0	0
1924421	WORD	wordpools/wasnorm_wordpool_576.txt	LTP228	ltpFR2	7	9	PAPER	1011	n/a	n/a	0	0	0
1927017	WORD	wordpools/wasnorm_wordpool_576.txt	LTP228	ltpFR2	7	9	OFFICE	972	n/a	n/a	0	0	0
1929564	WORD	wordpools/wasnorm_wordpool_576.txt	LTP228	ltpFR2	7	9	LUNCH	849	n/a	n/a	0	0	0
1932226	WORD	wordpools/wasnorm_wordpool_576.txt	LTP228	ltpFR2	7	9	BINDER	127	n/a	n/a	0	0	0
1935022	WORD	wordpools/wasnorm_wordpool_576.txt	LTP228	ltpFR2	7	9	BUBBLE	183	n/a	n/a	0	0	0
1937802	WORD	wordpools/wasnorm_wordpool_576.txt	LTP228	ltpFR2	7	9	PRINCESS	1125	n/a	n/a	0	0	0
1940480	WORD	wordpools/wasnorm_wordpool_576.txt	LTP228	ltpFR2	7	9	BARLEY	88	n/a	n/a	0	0	0
1942944	WORD	wordpools/wasnorm_wordpool_576.txt	LTP228	ltpFR2	7	9	SHOVEL	1295	n/a	n/a	0	0	0
1945757	WORD	wordpools/wasnorm_wordpool_576.txt	LTP228	ltpFR2	7	9	TRENCH	1503	n/a	n/a	0	0	0
1948452	WORD	wordpools/wasnorm_wordpool_576.txt	LTP228	ltpFR2	7	9	COCKTAIL	338	n/a	n/a	0	0	0
1951015	WORD	wordpools/wasnorm_wordpool_576.txt	LTP228	ltpFR2	7	9	CHAMPAGNE	278	n/a	n/a	0	0	0
1953762	WORD	wordpools/wasnorm_wordpool_576.txt	LTP228	ltpFR2	7	9	ROOSTER	1209	n/a	n/a	0	0	0
1956224	WORD	wordpools/wasnorm_wordpool_576.txt	LTP228	ltpFR2	7	9	PUPIL	1143	n/a	n/a	0	0	0
1959003	WORD	wordpools/wasnorm_wordpool_576.txt	LTP228	ltpFR2	7	9	COURSE	390	n/a	n/a	0	0	0
1961534	WORD	wordpools/wasnorm_wordpool_576.txt	LTP228	ltpFR2	7	9	BLOCKADE	137	n/a	n/a	0	0	0
1964179	WORD	wordpools/wasnorm_wordpool_576.txt	LTP228	ltpFR2	7	9	LOVER	846	n/a	n/a	0	0	0
1966760	WORD	wordpools/wasnorm_wordpool_576.txt	LTP228	ltpFR2	7	9	BRAKE	166	n/a	n/a	0	0	0
1969438	WORD	wordpools/wasnorm_wordpool_576.txt	LTP228	ltpFR2	7	9	HOOK	715	n/a	n/a	0	0	0
1972051	WORD	wordpools/wasnorm_wordpool_576.txt	LTP228	ltpFR2	7	9	YOLK	1633	n/a	n/a	0	0	0
1974764	WORD	wordpools/wasnorm_wordpool_576.txt	LTP228	ltpFR2	7	9	RELISH	1183	n/a	n/a	0	0	0
1977293	WORD	wordpools/wasnorm_wordpool_576.txt	LTP228	ltpFR2	7	9	FIREMAN	569	n/a	n/a	0	0	0
1978909	START	n/a	LTP228	ltpFR2	7	n/a	n/a	n/a	15	n/a	n/a	n/a	n/a
1979999	DISTRACTOR	n/a	LTP228	ltpFR2	7	9	n/a	n/a	n/a	n/a	0	0	0
1980006	PROB	n/a	LTP228	ltpFR2	7	n/a	n/a	n/a	15	13	6	6	1
1981571	PROB	n/a	LTP228	ltpFR2	7	n/a	n/a	n/a	15	11	3	7	1
1983417	PROB	n/a	LTP228	ltpFR2	7	n/a	n/a	n/a	15	21	7	7	7
1985448	PROB	n/a	LTP228	ltpFR2	7	n/a	n/a	n/a	15	14	9	2	3
1988011	PROB	n/a	LTP228	ltpFR2	7	n/a	n/a	n/a	15	5	2	1	2
1989543	PROB	n/a	LTP228	ltpFR2	7	n/a	n/a	n/a	15	4	1	1	2
1991223	PROB	n/a	LTP228	ltpFR2	7	n/a	n/a	n/a	15	9	1	5	3
1993953	PROB	n/a	LTP228	ltpFR2	7	n/a	n/a	n/a	15	9	2	5	2
1995617	PROB	n/a	LTP228	ltpFR2	7	n/a	n/a	n/a	15	14	8	1	5
1998746	PROB	n/a	LTP228	ltpFR2	7	n/a	n/a	n/a	15	10	5	4	1
2000593	PROB	n/a	LTP228	ltpFR2	7	n/a	n/a	n/a	15	17	3	7	7
2002292	STOP	n/a	LTP228	ltpFR2	7	n/a	n/a	n/a	15	n/a	n/a	n/a	n/a
2004688	REC_START	n/a	LTP228	ltpFR2	7	9	n/a	n/a	n/a	n/a	0	0	0
2005909	REC_WORD	wordpools/wasnorm_wordpool_576.txt	LTP228	ltpFR2	7	9	TOASTER	1472	n/a	n/a	0	0	0
2007094	REC_WORD	wordpools/wasnorm_wordpool_576.txt	LTP228	ltpFR2	7	9	BARLEY	88	n/a	n/a	0	0	0
2008108	REC_WORD	wordpools/wasnorm_wordpool_576.txt	LTP228	ltpFR2	7	9	LOVER	846	n/a	n/a	0	0	0
2019720	REC_WORD	wordpools/wasnorm_wordpool_576.txt	LTP228	ltpFR2	7	9	YOLK	1633	n/a	n/a	0	0	0
2095353	WORD	wordpools/wasnorm_wordpool_576.txt	LTP228	ltpFR2	7	10	PROTON	1132	n/a	n/a	0	0	0
2098066	WORD	wordpools/wasnorm_wordpool_576.txt	LTP228	ltpFR2	7	10	LEADER	807	n/a	n/a	0	0	0
2100580	WORD	wordpools/wasnorm_wordpool_576.txt	LTP228	ltpFR2	7	10	SPOUSE	1358	n/a	n/a	0	0	0
2103258	WORD	wordpools/wasnorm_wordpool_576.txt	LTP228	ltpFR2	7	10	DENTIST	447	n/a	n/a	0	0	0
2105905	WORD	wordpools/wasnorm_wordpool_576.txt	LTP228	ltpFR2	7	10	PEDAL	1037	n/a	n/a	0	0	0
2108334	WORD	wordpools/wasnorm_wordpool_576.txt	LTP228	ltpFR2	7	10	BOARD	143	n/a	n/a	0	0	0
2111146	WORD	wordpools/wasnorm_wordpool_576.txt	LTP228	ltpFR2	7	10	ZIPPER	1636	n/a	n/a	0	0	0
2113960	WORD	wordpools/wasnorm_wordpool_576.txt	LTP228	ltpFR2	7	10	AIRPLANE	12	n/a	n/a	0	0	0
2116589	WORD	wordpools/wasnorm_wordpool_576.txt	LTP228	ltpFR2	7	10	CURTAIN	427	n/a	n/a	0	0	0
2119185	WORD	wordpools/wasnorm_wordpool_576.txt	LTP228	ltpFR2	7	10	PAIL	1002	n/a	n/a	0	0	0
2121815	WORD	wordpools/wasnorm_wordpool_576.txt	LTP228	ltpFR2	7	10	OUTDOORS	987	n/a	n/a	0	0	0
2124360	WORD	wordpools/wasnorm_wordpool_576.txt	LTP228	ltpFR2	7	10	WINDOW	1611	n/a	n/a	0	0	0
2127073	WORD	wordpools/wasnorm_wordpool_576.txt	LTP228	ltpFR2	7	10	LASER	801	n/a	n/a	0	0	0
2129520	WORD	wordpools/wasnorm_wordpool_576.txt	LTP228	ltpFR2	7	10	BEAVER	109	n/a	n/a	0	0	0
2132232	WORD	wordpools/wasnorm_wordpool_576.txt	LTP228	ltpFR2	7	10	POSSUM	1112	n/a	n/a	0	0	0
2134946	WORD	wordpools/wasnorm_wordpool_576.txt	LTP228	ltpFR2	7	10	LAVA	804	n/a	n/a	0	0	0
2137692	WORD	wordpools/wasnorm_wordpool_576.txt	LTP228	ltpFR2	7	10	BEEF	113	n/a	n/a	0	0	0
2140353	WORD	wordpools/wasnorm_wordpool_576.txt	LTP228	ltpFR2	7	10	CONTRACT	368	n/a	n/a	0	0	0
2143149	WORD	wordpools/wasnorm_wordpool_576.txt	LTP228	ltpFR2	7	10	CRATER	400	n/a	n/a	0	0	0
2145697	WORD	wordpools/wasnorm_wordpool_576.txt	LTP228	ltpFR2	7	10	DUST	508	n/a	n/a	0	0	0
2148258	WORD	wordpools/wasnorm_wordpool_576.txt	LTP228	ltpFR2	7	10	MOTEL	919	n/a	n/a	0	0	0
2150922	WORD	wordpools/wasnorm_wordpool_576.txt	LTP228	ltpFR2	7	10	DORM	488	n/a	n/a	0	0	0
2153701	WORD	wordpools/wasnorm_wordpool_576.txt	LTP228	ltpFR2	7	10	GUITAR	670	n/a	n/a	0	0	0
2156164	WORD	wordpools/wasnorm_wordpool_576.txt	LTP228	ltpFR2	7	10	KNAPSACK	783	n/a	n/a	0	0	0
2157779	START	n/a	LTP228	ltpFR2	7	n/a	n/a	n/a	16	n/a	n/a	n/a	n/a
2158736	DISTRACTOR	n/a	LTP228	ltpFR2	7	10	n/a	n/a	n/a	n/a	0	0	0
2158744	PROB	n/a	LTP228	ltpFR2	7	n/a	n/a	n/a	16	14	8	2	4
2160507	PROB	n/a	LTP228	ltpFR2	7	n/a	n/a	n/a	16	14	6	3	5
2163520	PROB	n/a	LTP228	ltpFR2	7	n/a	n/a	n/a	16	14	7	6	1
2165467	PROB	n/a	LTP228	ltpFR2	7	n/a	n/a	n/a	16	23	7	9	7
2167581	PROB	n/a	LTP228	ltpFR2	7	n/a	n/a	n/a	16	14	4	4	6
2169111	PROB	n/a	LTP228	ltpFR2	7	n/a	n/a	n/a	16	12	1	7	4
2171875	PROB	n/a	LTP228	ltpFR2	7	n/a	n/a	n/a	16	15	8	6	1
2174154	PROB	n/a	LTP228	ltpFR2	7	n/a	n/a	n/a	16	17	4	5	8
2177149	PROB	n/a	LTP228	ltpFR2	7	n/a	n/a	n/a	16	17	3	5	9
2181778	STOP	n/a	LTP228	ltpFR2	7	n/a	n/a	n/a	16	n/a	n/a	n/a	n/a
2183591	REC_START	n/a	LTP228	ltpFR2	7	10	n/a	n/a	n/a	n/a	0	0	0
2184755	REC_WORD	wordpools/wasnorm_wordpool_576.txt	LTP228	ltpFR2	7	10	PROTON	1132	n/a	n/a	0	0	0
2186232	REC_WORD	wordpools/wasnorm_wordpool_576.txt	LTP228	ltpFR2	7	10	LEADER	807	n/a	n/a	0	0	0
2188236	REC_WORD	wordpools/wasnorm_wordpool_576.txt	LTP228	ltpFR2	7	10	BEEF	113	n/a	n/a	0	0	0
2190740	REC_WORD	wordpools/wasnorm_wordpool_576.txt	LTP228	ltpFR2	7	10	POSSUM	1112	n/a	n/a	0	0	0
2193457	REC_WORD	wordpools/wasnorm_wordpool_576.txt	LTP228	ltpFR2	7	10	BEAVER	109	n/a	n/a	0	0	0
2194758	REC_WORD	wordpools/wasnorm_wordpool_576.txt	LTP228	ltpFR2	7	10	LAVA	804	n/a	n/a	0	0	0
2274256	WORD	wordpools/wasnorm_wordpool_576.txt	LTP228	ltpFR2	7	11	PACKAGE	997	n/a	n/a	0	0	0
2276687	WORD	wordpools/wasnorm_wordpool_576.txt	LTP228	ltpFR2	7	11	COLLEGE	346	n/a	n/a	0	0	0
2279166	WORD	wordpools/wasnorm_wordpool_576.txt	LTP228	ltpFR2	7	11	NOTEBOOK	959	n/a	n/a	0	0	0
2281930	WORD	wordpools/wasnorm_wordpool_576.txt	LTP228	ltpFR2	7	11	SIDEWALK	1303	n/a	n/a	0	0	0
2284725	WORD	wordpools/wasnorm_wordpool_576.txt	LTP228	ltpFR2	7	11	PASSAGE	1019	n/a	n/a	0	0	0
2287454	WORD	wordpools/wasnorm_wordpool_576.txt	LTP228	ltpFR2	7	11	LAPEL	800	n/a	n/a	0	0	0
2290183	WORD	wordpools/wasnorm_wordpool_576.txt	LTP228	ltpFR2	7	11	ROD	1203	n/a	n/a	0	0	0
2292664	WORD	wordpools/wasnorm_wordpool_576.txt	LTP228	ltpFR2	7	11	PUPPY	1144	n/a	n/a	0	0	0
2295392	WORD	wordpools/wasnorm_wordpool_576.txt	LTP228	ltpFR2	7	11	HOUND	724	n/a	n/a	0	0	0
2298022	WORD	wordpools/wasnorm_wordpool_576.txt	LTP228	ltpFR2	7	11	SIBLING	1301	n/a	n/a	0	0	0
2300785	WORD	wordpools/wasnorm_wordpool_576.txt	LTP228	ltpFR2	7	11	POPCORN	1104	n/a	n/a	0	0	0
2303397	WORD	wordpools/wasnorm_wordpool_576.txt	LTP228	ltpFR2	7	11	CASHEW	253	n/a	n/a	0	0	0
2306160	WORD	wordpools/wasnorm_wordpool_576.txt	LTP228	ltpFR2	7	11	CITRUS	313	n/a	n/a	0	0	0
2308607	WORD	wordpools/wasnorm_wordpool_576.txt	LTP228	ltpFR2	7	11	BROTHER	179	n/a	n/a	0	0	0
2311252	WORD	wordpools/wasnorm_wordpool_576.txt	LTP228	ltpFR2	7	11	JEANS	752	n/a	n/a	0	0	0
2314065	WORD	wordpools/wasnorm_wordpool_576.txt	LTP228	ltpFR2	7	11	ORANGE	980	n/a	n/a	0	0	0
2316845	WORD	wordpools/wasnorm_wordpool_576.txt	LTP228	ltpFR2	7	11	FOX	598	n/a	n/a	0	0	0
2319674	WORD	wordpools/wasnorm_wordpool_576.txt	LTP228	ltpFR2	7	11	FEMALE	559	n/a	n/a	0	0	0
2322402	WORD	wordpools/wasnorm_wordpool_576.txt	LTP228	ltpFR2	7	11	SANDWICH	1232	n/a	n/a	0	0	0
2324866	WORD	wordpools/wasnorm_wordpool_576.txt	LTP228	ltpFR2	7	11	CARROT	249	n/a	n/a	0	0	0
2327546	WORD	wordpools/wasnorm_wordpool_576.txt	LTP228	ltpFR2	7	11	TUNNEL	1519	n/a	n/a	0	0	0
2330108	WORD	wordpools/wasnorm_wordpool_576.txt	LTP228	ltpFR2	7	11	CLAM	315	n/a	n/a	0	0	0
2332721	WORD	wordpools/wasnorm_wordpool_576.txt	LTP228	ltpFR2	7	11	GIRL	637	n/a	n/a	0	0	0
2335283	WORD	wordpools/wasnorm_wordpool_576.txt	LTP228	ltpFR2	7	11	TURNIP	1521	n/a	n/a	0	0	0
2336899	START	n/a	LTP228	ltpFR2	7	n/a	n/a	n/a	17	n/a	n/a	n/a	n/a
2337761	DISTRACTOR	n/a	LTP228	ltpFR2	7	11	n/a	n/a	n/a	n/a	0	0	0
2337764	PROB	n/a	LTP228	ltpFR2	7	n/a	n/a	n/a	17	22	8	8	6
2340010	PROB	n/a	LTP228	ltpFR2	7	n/a	n/a	n/a	17	14	5	8	1
2342356	PROB	n/a	LTP228	ltpFR2	7	n/a	n/a	n/a	17	9	1	4	4
2345169	PROB	n/a	LTP228	ltpFR2	7	n/a	n/a	n/a	17	12	4	6	2
2346884	PROB	n/a	LTP228	ltpFR2	7	n/a	n/a	n/a	17	12	4	1	7
2349946	PROB	n/a	LTP228	ltpFR2	7	n/a	n/a	n/a	17	17	8	6	3
2352559	PROB	n/a	LTP228	ltpFR2	7	n/a	n/a	n/a	17	17	4	9	4
2357151	PROB	n/a	LTP228	ltpFR2	7	n/a	n/a	n/a	17	19	6	8	5
2360533	STOP	n/a	LTP228	ltpFR2	7	n/a	n/a	n/a	17	n/a	n/a	n/a	n/a
2362828	REC_START	n/a	LTP228	ltpFR2	7	11	n/a	n/a	n/a	n/a	0	0	0
2365874	REC_WORD	wordpools/wasnorm_wordpool_576.txt	LTP228	ltpFR2	7	11	ORANGE	980	n/a	n/a	0	0	0
2367340	REC_WORD	wordpools/wasnorm_wordpool_576.txt	LTP228	ltpFR2	7	11	CARROT	249	n/a	n/a	0	0	0
2368261	REC_WORD	wordpools/wasnorm_wordpool_576.txt	LTP228	ltpFR2	7	11	TUNNEL	1519	n/a	n/a	0	0	0
2370955	REC_WORD	wordpools/wasnorm_wordpool_576.txt	LTP228	ltpFR2	7	11	FEMALE	559	n/a	n/a	0	0	0
2372432	REC_WORD	wordpools/wasnorm_wordpool_576.txt	LTP228	ltpFR2	7	11	GIRL	637	n/a	n/a	0	0	0
2376178	REC_WORD	wordpools/wasnorm_wordpool_576.txt	LTP228	ltpFR2	7	11	BROTHER	179	n/a	n/a	0	0	0
2453577	WORD	wordpools/wasnorm_wordpool_576.txt	LTP228	ltpFR2	7	12	TRANSPLANT	1496	n/a	n/a	0	0	0
2456355	WORD	wordpools/wasnorm_wordpool_576.txt	LTP228	ltpFR2	7	12	TUBA	1515	n/a	n/a	0	0	0
2459101	WORD	wordpools/wasnorm_wordpool_576.txt	LTP228	ltpFR2	7	12	PEACH	1031	n/a	n/a	0	0	0
2461831	WORD	wordpools/wasnorm_wordpool_576.txt	LTP228	ltpFR2	7	12	FRUIT	610	n/a	n/a	0	0	0
2464377	WORD	wordpools/wasnorm_wordpool_576.txt	LTP228	ltpFR2	7	12	HIGHWAY	707	n/a	n/a	0	0	0
2467189	WORD	wordpools/wasnorm_wordpool_576.txt	LTP228	ltpFR2	7	12	CATCHER	258	n/a	n/a	0	0	0
2469920	WORD	wordpools/wasnorm_wordpool_576.txt	LTP228	ltpFR2	7	12	BUTCHER	203	n/a	n/a	0	0	0
2472365	WORD	wordpools/wasnorm_wordpool_576.txt	LTP228	ltpFR2	7	12	ELBOW	520	n/a	n/a	0	0	0
2475128	WORD	wordpools/wasnorm_wordpool_576.txt	LTP228	ltpFR2	7	12	RABBIT	1152	n/a	n/a	0	0	0
2477775	WORD	wordpools/wasnorm_wordpool_576.txt	LTP228	ltpFR2	7	12	NURSE	963	n/a	n/a	0	0	0
2480353	WORD	wordpools/wasnorm_wordpool_576.txt	LTP228	ltpFR2	7	12	PERFUME	1049	n/a	n/a	0	0	0
2482934	WORD	wordpools/wasnorm_wordpool_576.txt	LTP228	ltpFR2	7	12	FREEZER	604	n/a	n/a	0	0	0
2485746	WORD	wordpools/wasnorm_wordpool_576.txt	LTP228	ltpFR2	7	12	BRANDY	169	n/a	n/a	0	0	0
2488542	WORD	wordpools/wasnorm_wordpool_576.txt	LTP228	ltpFR2	7	12	MOTOR	922	n/a	n/a	0	0	0
2491021	WORD	wordpools/wasnorm_wordpool_576.txt	LTP228	ltpFR2	7	12	YACHT	1629	n/a	n/a	0	0	0
2493518	WORD	wordpools/wasnorm_wordpool_576.txt	LTP228	ltpFR2	7	12	JUDGE	761	n/a	n/a	0	0	0
2496147	WORD	wordpools/wasnorm_wordpool_576.txt	LTP228	ltpFR2	7	12	PLASTER	1085	n/a	n/a	0	0	0
2498777	WORD	wordpools/wasnorm_wordpool_576.txt	LTP228	ltpFR2	7	12	CEILING	265	n/a	n/a	0	0	0
2501306	WORD	wordpools/wasnorm_wordpool_576.txt	LTP228	ltpFR2	7	12	OUTFIT	988	n/a	n/a	0	0	0
2503903	WORD	wordpools/wasnorm_wordpool_576.txt	LTP228	ltpFR2	7	12	HAMPER	682	n/a	n/a	0	0	0
2506332	WORD	wordpools/wasnorm_wordpool_576.txt	LTP228	ltpFR2	7	12	KLEENEX	782	n/a	n/a	0	0	0
2509061	WORD	wordpools/wasnorm_wordpool_576.txt	LTP228	ltpFR2	7	12	UMPIRE	1535	n/a	n/a	0	0	0
2511725	WORD	wordpools/wasnorm_wordpool_576.txt	LTP228	ltpFR2	7	12	GLOVE	642	n/a	n/a	0	0	0
2514303	WORD	wordpools/wasnorm_wordpool_576.txt	LTP228	ltpFR2	7	12	BLENDER	136	n/a	n/a	0	0	0
2515919	START	n/a	LTP228	ltpFR2	7	n/a	n/a	n/a	18	n/a	n/a	n/a	n/a
2517111	DISTRACTOR	n/a	LTP228	ltpFR2	7	12	n/a	n/a	n/a	n/a	0	0	0
2517116	PROB	n/a	LTP228	ltpFR2	7	n/a	n/a	n/a	18	16	8	7	1
2519446	PROB	n/a	LTP228	ltpFR2	7	n/a	n/a	n/a	18	6	1	3	2
2521660	PROB	n/a	LTP228	ltpFR2	7	n/a	n/a	n/a	18	13	8	3	2
2524872	PROB	n/a	LTP228	ltpFR2	7	n/a	n/a	n/a	18	9	2	6	1
2526553	PROB	n/a	LTP228	ltpFR2	7	n/a	n/a	n/a	18	14	2	8	4
2528083	PROB	n/a	LTP228	ltpFR2	7	n/a	n/a	n/a	18	15	8	2	5
2529565	PROB	n/a	LTP228	ltpFR2	7	n/a	n/a	n/a	18	14	7	1	6
2532310	PROB	n/a	LTP228	ltpFR2	7	n/a	n/a	n/a	18	10	3	5	2
2535289	PROB	n/a	LTP228	ltpFR2	7	n/a	n/a	n/a	18	15	5	2	8
2537386	PROB	n/a	LTP228	ltpFR2	7	n/a	n/a	n/a	18	10	7	1	2
2539152	STOP	n/a	LTP228	ltpFR2	7	n/a	n/a	n/a	18	n/a	n/a	n/a	n/a
2541765	REC_START	n/a	LTP228	ltpFR2	7	12	n/a	n/a	n/a	n/a	0	0	0
2554248	REC_WORD	wordpools/wasnorm_wordpool_576.txt	LTP228	ltpFR2	7	12	CATCHER	258	n/a	n/a	0	0	0
2555638	REC_WORD_VV	wordpools/wasnorm_wordpool_576.txt	LTP228	ltpFR2	7	12	<>	-1	n/a	n/a	0	0	0
2632430	WORD	wordpools/wasnorm_wordpool_576.txt	LTP228	ltpFR2	7	13	MARROW	872	n/a	n/a	0	0	0
2634927	WORD	wordpools/wasnorm_wordpool_576.txt	LTP228	ltpFR2	7	13	FLIPPER	580	n/a	n/a	0	0	0
2637573	WORD	wordpools/wasnorm_wordpool_576.txt	LTP228	ltpFR2	7	13	MAMMAL	861	n/a	n/a	0	0	0
2640119	WORD	wordpools/wasnorm_wordpool_576.txt	LTP228	ltpFR2	7	13	PARROT	1015	n/a	n/a	0	0	0
2642832	WORD	wordpools/wasnorm_wordpool_576.txt	LTP228	ltpFR2	7	13	BACKBONE	66	n/a	n/a	0	0	0
2645528	WORD	wordpools/wasnorm_wordpool_576.txt	LTP228	ltpFR2	7	13	HARP	689	n/a	n/a	0	0	0
2648073	WORD	wordpools/wasnorm_wordpool_576.txt	LTP228	ltpFR2	7	13	FLASK	576	n/a	n/a	0	0	0
2650737	WORD	wordpools/wasnorm_wordpool_576.txt	LTP228	ltpFR2	7	13	BLUEPRINT	142	n/a	n/a	0	0	0
2653550	WORD	wordpools/wasnorm_wordpool_576.txt	LTP228	ltpFR2	7	13	KEEPER	769	n/a	n/a	0	0	0
2656295	WORD	wordpools/wasnorm_wordpool_576.txt	LTP228	ltpFR2	7	13	VENUS	1557	n/a	n/a	0	0	0
2658726	WORD	wordpools/wasnorm_wordpool_576.txt	LTP228	ltpFR2	7	13	COOKBOOK	373	n/a	n/a	0	0	0
2661221	WORD	wordpools/wasnorm_wordpool_576.txt	LTP228	ltpFR2	7	13	FRANCE	601	n/a	n/a	0	0	0
2663818	WORD	wordpools/wasnorm_wordpool_576.txt	LTP228	ltpFR2	7	13	TABLET	1427	n/a	n/a	0	0	0
2666396	WORD	wordpools/wasnorm_wordpool_576.txt	LTP228	ltpFR2	7	13	BREAST	171	n/a	n/a	0	0	0
2668877	WORD	wordpools/wasnorm_wordpool_576.txt	LTP228	ltpFR2	7	13	BELLY	119	n/a	n/a	0	0	0
2671506	WORD	wordpools/wasnorm_wordpool_576.txt	LTP228	ltpFR2	7	13	WARDROBE	1587	n/a	n/a	0	0	0
2673986	WORD	wordpools/wasnorm_wordpool_576.txt	LTP228	ltpFR2	7	13	PENGUIN	1044	n/a	n/a	0	0	0
2676516	WORD	wordpools/wasnorm_wordpool_576.txt	LTP228	ltpFR2	7	13	PLAYGROUND	1087	n/a	n/a	0	0	0
2679011	WORD	wordpools/wasnorm_wordpool_576.txt	LTP228	ltpFR2	7	13	STALLION	1369	n/a	n/a	0	0	0
2681775	WORD	wordpools/wasnorm_wordpool_576.txt	LTP228	ltpFR2	7	13	BUGGY	188	n/a	n/a	0	0	0
2684337	WORD	wordpools/wasnorm_wordpool_576.txt	LTP228	ltpFR2	7	13	CLOCK	325	n/a	n/a	0	0	0
2687066	WORD	wordpools/wasnorm_wordpool_576.txt	LTP228	ltpFR2	7	13	PREACHER	1119	n/a	n/a	0	0	0
2689763	WORD	wordpools/wasnorm_wordpool_576.txt	LTP228	ltpFR2	7	13	AUTHOR	61	n/a	n/a	0	0	0
2692408	WORD	wordpools/wasnorm_wordpool_576.txt	LTP228	ltpFR2	7	13	MEAT	883	n/a	n/a	0	0	0
2694023	START	n/a	LTP228	ltpFR2	7	n/a	n/a	n/a	19	n/a	n/a	n/a	n/a
2695113	DISTRACTOR	n/a	LTP228	ltpFR2	7	13	n/a	n/a	n/a	n/a	0	0	0
2695121	PROB	n/a	LTP228	ltpFR2	7	n/a	n/a	n/a	19	17	1	8	8
2697334	PROB	n/a	LTP228	ltpFR2	7	n/a	n/a	n/a	19	9	4	2	3
2700830	PROB	n/a	LTP228	ltpFR2	7	n/a	n/a	n/a	19	18	9	7	2
2703209	PROB	n/a	LTP228	ltpFR2	7	n/a	n/a	n/a	19	6	4	1	1
2704641	PROB	n/a	LTP228	ltpFR2	7	n/a	n/a	n/a	19	15	5	1	9
2706838	PROB	n/a	LTP228	ltpFR2	7	n/a	n/a	n/a	19	17	9	5	3
2709634	PROB	n/a	LTP228	ltpFR2	7	n/a	n/a	n/a	19	25	9	9	8
2718022	STOP	n/a	LTP228	ltpFR2	7	n/a	n/a	n/a	19	n/a	n/a	n/a	n/a
2719903	REC_START	n/a	LTP228	ltpFR2	7	13	n/a	n/a	n/a	n/a	0	0	0
2728533	REC_WORD	wordpools/wasnorm_wordpool_576.txt	LTP228	ltpFR2	7	13	MARROW	872	n/a	n/a	0	0	0
2729458	REC_WORD	wordpools/wasnorm_wordpool_576.txt	LTP228	ltpFR2	7	13	FLIPPER	580	n/a	n/a	0	0	0
2730785	REC_WORD	wordpools/wasnorm_wordpool_576.txt	LTP228	ltpFR2	7	13	PENGUIN	1044	n/a	n/a	0	0	0
2810602	WORD	wordpools/wasnorm_wordpool_576.txt	LTP228	ltpFR2	7	14	SCARECROW	1245	n/a	n/a	0	0	0
2813314	WORD	wordpools/wasnorm_wordpool_576.txt	LTP228	ltpFR2	7	14	COBRA	336	n/a	n/a	0	0	0
2815993	WORD	wordpools/wasnorm_wordpool_576.txt	LTP228	ltpFR2	7	14	REBEL	1172	n/a	n/a	0	0	0
2818473	WORD	wordpools/wasnorm_wordpool_576.txt	LTP228	ltpFR2	7	14	COFFEE	341	n/a	n/a	0	0	0
2821052	WORD	wordpools/wasnorm_wordpool_576.txt	LTP228	ltpFR2	7	14	BARREL	91	n/a	n/a	0	0	0
2823733	WORD	wordpools/wasnorm_wordpool_576.txt	LTP228	ltpFR2	7	14	SNAKE	1333	n/a	n/a	0	0	0
2826545	WORD	wordpools/wasnorm_wordpool_576.txt	LTP228	ltpFR2	7	14	PRIMATE	1123	n/a	n/a	0	0	0
2829024	WORD	wordpools/wasnorm_wordpool_576.txt	LTP228	ltpFR2	7	14	PIMPLE	1071	n/a	n/a	0	0	0
2831721	WORD	wordpools/wasnorm_wordpool_576.txt	LTP228	ltpFR2	7	14	MUFFIN	929	n/a	n/a	0	0	0
2834366	WORD	wordpools/wasnorm_wordpool_576.txt	LTP228	ltpFR2	7	14	FLASHLIGHT	575	n/a	n/a	0	0	0
2837046	WORD	wordpools/wasnorm_wordpool_576.txt	LTP228	ltpFR2	7	14	CROSS	413	n/a	n/a	0	0	0
2839626	WORD	wordpools/wasnorm_wordpool_576.txt	LTP228	ltpFR2	7	14	CHURCH	307	n/a	n/a	0	0	0
2842338	WORD	wordpools/wasnorm_wordpool_576.txt	LTP228	ltpFR2	7	14	CUPBOARD	425	n/a	n/a	0	0	0
2845134	WORD	wordpools/wasnorm_wordpool_576.txt	LTP228	ltpFR2	7	14	SKILLET	1317	n/a	n/a	0	0	0
2847648	WORD	wordpools/wasnorm_wordpool_576.txt	LTP228	ltpFR2	7	14	CONCERT	360	n/a	n/a	0	0	0
2850326	WORD	wordpools/wasnorm_wordpool_576.txt	LTP228	ltpFR2	7	14	UNCLE	1536	n/a	n/a	0	0	0
2853138	WORD	wordpools/wasnorm_wordpool_576.txt	LTP228	ltpFR2	7	14	SISTER	1312	n/a	n/a	0	0	0
2855802	WORD	wordpools/wasnorm_wordpool_576.txt	LTP228	ltpFR2	7	14	INMATE	738	n/a	n/a	0	0	0
2858264	WORD	wordpools/wasnorm_wordpool_576.txt	LTP228	ltpFR2	7	14	ROCKET	1202	n/a	n/a	0	0	0
2860978	WORD	wordpools/wasnorm_wordpool_576.txt	LTP228	ltpFR2	7	14	MARS	873	n/a	n/a	0	0	0
2863490	WORD	wordpools/wasnorm_wordpool_576.txt	LTP228	ltpFR2	7	14	DONKEY	484	n/a	n/a	0	0	0
2866269	WORD	wordpools/wasnorm_wordpool_576.txt	LTP228	ltpFR2	7	14	ZEBRA	1635	n/a	n/a	0	0	0
2868883	WORD	wordpools/wasnorm_wordpool_576.txt	LTP228	ltpFR2	7	14	WAGON	1578	n/a	n/a	0	0	0
2871395	WORD	wordpools/wasnorm_wordpool_576.txt	LTP228	ltpFR2	7	14	KNIFE	785	n/a	n/a	0	0	0
2873010	START	n/a	LTP228	ltpFR2	7	n/a	n/a	n/a	20	n/a	n/a	n/a	n/a
2874164	DISTRACTOR	n/a	LTP228	ltpFR2	7	14	n/a	n/a	n/a	n/a	0	0	0
2874174	PROB	n/a	LTP228	ltpFR2	7	n/a	n/a	n/a	20	18	7	5	6
2877419	PROB	n/a	LTP228	ltpFR2	7	n/a	n/a	n/a	20	7	3	3	1
2878918	PROB	n/a	LTP228	ltpFR2	7	n/a	n/a	n/a	20	13	7	3	3
2881014	PROB	n/a	LTP228	ltpFR2	7	n/a	n/a	n/a	20	15	6	1	8
2883228	PROB	n/a	LTP228	ltpFR2	7	n/a	n/a	n/a	20	10	1	8	1
2886657	PROB	n/a	LTP228	ltpFR2	7	n/a	n/a	n/a	20	19	6	4	8
2888270	PROB	n/a	LTP228	ltpFR2	7	n/a	n/a	n/a	20	18	6	4	8
2889836	PROB	n/a	LTP228	ltpFR2	7	n/a	n/a	n/a	20	20	7	5	8
2892748	PROB	n/a	LTP228	ltpFR2	7	n/a	n/a	n/a	20	12	2	4	6
2897010	STOP	n/a	LTP228	ltpFR2	7	n/a	n/a	n/a	20	n/a	n/a	n/a	n/a
2898873	REC_START	n/a	LTP228	ltpFR2	7	14	n/a	n/a	n/a	n/a	0	0	0
2908219	REC_WORD	wordpools/wasnorm_wordpool_576.txt	LTP228	ltpFR2	7	14	ZEBRA	1635	n/a	n/a	0	0	0
2909254	REC_WORD	wordpools/wasnorm_wordpool_576.txt	LTP228	ltpFR2	7	14	REBEL	1172	n/a	n/a	0	0	0
2925560	REC_WORD	wordpools/wasnorm_wordpool_576.txt	LTP228	ltpFR2	7	14	SCARECROW	1245	n/a	n/a	0	0	0
2927075	REC_WORD	wordpools/wasnorm_wordpool_576.txt	LTP228	ltpFR2	7	14	COBRA	336	n/a	n/a	0	0	0
2989555	WORD	wordpools/wasnorm_wordpool_576.txt	LTP228	ltpFR2	7	15	SODA	1341	n/a	n/a	0	0	0
2992051	WORD	wordpools/wasnorm_wordpool_576.txt	LTP228	ltpFR2	7	15	ASIA	46	n/a	n/a	0	0	0
2994798	WORD	wordpools/wasnorm_wordpool_576.txt	LTP228	ltpFR2	7	15	HAWK	692	n/a	n/a	0	0	0
2997476	WORD	wordpools/wasnorm_wordpool_576.txt	LTP228	ltpFR2	7	15	SWITCH	1422	n/a	n/a	0	0	0
3000022	WORD	wordpools/wasnorm_wordpool_576.txt	LTP228	ltpFR2	7	15	DIME	466	n/a	n/a	0	0	0
3002686	WORD	wordpools/wasnorm_wordpool_576.txt	LTP228	ltpFR2	7	15	TOURIST	1488	n/a	n/a	0	0	0
3005265	WORD	wordpools/wasnorm_wordpool_576.txt	LTP228	ltpFR2	7	15	SKETCH	1315	n/a	n/a	0	0	0
3007795	WORD	wordpools/wasnorm_wordpool_576.txt	LTP228	ltpFR2	7	15	JELLY	755	n/a	n/a	0	0	0
3010274	WORD	wordpools/wasnorm_wordpool_576.txt	LTP228	ltpFR2	7	15	BANKER	84	n/a	n/a	0	0	0
3012921	WORD	wordpools/wasnorm_wordpool_576.txt	LTP228	ltpFR2	7	15	GLASS	639	n/a	n/a	0	0	0
3015400	WORD	wordpools/wasnorm_wordpool_576.txt	LTP228	ltpFR2	7	15	LIZARD	834	n/a	n/a	0	0	0
3018146	WORD	wordpools/wasnorm_wordpool_576.txt	LTP228	ltpFR2	7	15	CYCLONE	431	n/a	n/a	0	0	0
3020660	WORD	wordpools/wasnorm_wordpool_576.txt	LTP228	ltpFR2	7	15	COUCH	386	n/a	n/a	0	0	0
3023371	WORD	wordpools/wasnorm_wordpool_576.txt	LTP228	ltpFR2	7	15	PADDING	999	n/a	n/a	0	0	0
3025869	WORD	wordpools/wasnorm_wordpool_576.txt	LTP228	ltpFR2	7	15	PORTRAIT	1111	n/a	n/a	0	0	0
3028532	WORD	wordpools/wasnorm_wordpool_576.txt	LTP228	ltpFR2	7	15	DRAWING	494	n/a	n/a	0	0	0
3030961	WORD	wordpools/wasnorm_wordpool_576.txt	LTP228	ltpFR2	7	15	FRAME	600	n/a	n/a	0	0	0
3033507	WORD	wordpools/wasnorm_wordpool_576.txt	LTP228	ltpFR2	7	15	SWIMMER	1420	n/a	n/a	0	0	0
3036069	WORD	wordpools/wasnorm_wordpool_576.txt	LTP228	ltpFR2	7	15	JAPAN	749	n/a	n/a	0	0	0
3038883	WORD	wordpools/wasnorm_wordpool_576.txt	LTP228	ltpFR2	7	15	WRENCH	1625	n/a	n/a	0	0	0
3041445	WORD	wordpools/wasnorm_wordpool_576.txt	LTP228	ltpFR2	7	15	ROBOT	1200	n/a	n/a	0	0	0
3044207	WORD	wordpools/wasnorm_wordpool_576.txt	LTP228	ltpFR2	7	15	SERVANT	1271	n/a	n/a	0	0	0
3047020	WORD	wordpools/wasnorm_wordpool_576.txt	LTP228	ltpFR2	7	15	HIKER	708	n/a	n/a	0	0	0
3049450	WORD	wordpools/wasnorm_wordpool_576.txt	LTP228	ltpFR2	7	15	MESSAGE	888	n/a	n/a	0	0	0
3051064	START	n/a	LTP228	ltpFR2	7	n/a	n/a	n/a	21	n/a	n/a	n/a	n/a
3052043	DISTRACTOR	n/a	LTP228	ltpFR2	7	15	n/a	n/a	n/a	n/a	0	0	0
3052063	PROB	n/a	LTP228	ltpFR2	7	n/a	n/a	n/a	21	11	8	2	1
3053711	PROB	n/a	LTP228	ltpFR2	7	n/a	n/a	n/a	21	14	3	2	9
3055974	PROB	n/a	LTP228	ltpFR2	7	n/a	n/a	n/a	21	17	8	6	3
3058054	PROB	n/a	LTP228	ltpFR2	7	n/a	n/a	n/a	21	12	7	1	4
3060217	PROB	n/a	LTP228	ltpFR2	7	n/a	n/a	n/a	21	22	8	6	8
3062631	PROB	n/a	LTP228	ltpFR2	7	n/a	n/a	n/a	21	20	7	4	9
3065210	PROB	n/a	LTP228	ltpFR2	7	n/a	n/a	n/a	21	14	6	7	1
3067507	PROB	n/a	LTP228	ltpFR2	7	n/a	n/a	n/a	21	8	4	2	2
3069404	PROB	n/a	LTP228	ltpFR2	7	n/a	n/a	n/a	21	16	5	7	4
3074677	STOP	n/a	LTP228	ltpFR2	7	n/a	n/a	n/a	21	n/a	n/a	n/a	n/a
3076944	REC_START	n/a	LTP228	ltpFR2	7	15	n/a	n/a	n/a	n/a	0	0	0
3077953	REC_WORD	wordpools/wasnorm_wordpool_576.txt	LTP228	ltpFR2	7	15	SODA	1341	n/a	n/a	0	0	0
3079181	REC_WORD	wordpools/wasnorm_wordpool_576.txt	LTP228	ltpFR2	7	15	ASIA	46	n/a	n/a	0	0	0
3080136	REC_WORD	wordpools/wasnorm_wordpool_576.txt	LTP228	ltpFR2	7	15	WRENCH	1625	n/a	n/a	0	0	0
3081300	REC_WORD	wordpools/wasnorm_wordpool_576.txt	LTP228	ltpFR2	7	15	HIKER	708	n/a	n/a	0	0	0
3082251	REC_WORD	wordpools/wasnorm_wordpool_576.txt	LTP228	ltpFR2	7	15	SERVANT	1271	n/a	n/a	0	0	0
3083474	REC_WORD	wordpools/wasnorm_wordpool_576.txt	LTP228	ltpFR2	7	15	JAPAN	749	n/a	n/a	0	0	0
3167644	WORD	wordpools/wasnorm_wordpool_576.txt	LTP228	ltpFR2	7	16	PUDDING	1139	n/a	n/a	0	0	0
3170356	WORD	wordpools/wasnorm_wordpool_576.txt	LTP228	ltpFR2	7	16	BURGLAR	200	n/a	n/a	0	0	0
3172969	WORD	wordpools/wasnorm_wordpool_576.txt	LTP228	ltpFR2	7	16	PADDLE	1000	n/a	n/a	0	0	0
3175732	WORD	wordpools/wasnorm_wordpool_576.txt	LTP228	ltpFR2	7	16	RAFT	1159	n/a	n/a	0	0	0
3178528	WORD	wordpools/wasnorm_wordpool_576.txt	LTP228	ltpFR2	7	16	LUMBER	848	n/a	n/a	0	0	0
3181306	WORD	wordpools/wasnorm_wordpool_576.txt	LTP228	ltpFR2	7	16	BATHTUB	100	n/a	n/a	0	0	0
3183770	WORD	wordpools/wasnorm_wordpool_576.txt	LTP228	ltpFR2	7	16	ICEBERG	731	n/a	n/a	0	0	0
3186282	WORD	wordpools/wasnorm_wordpool_576.txt	LTP228	ltpFR2	7	16	GAZELLE	628	n/a	n/a	0	0	0
3189045	WORD	wordpools/wasnorm_wordpool_576.txt	LTP228	ltpFR2	7	16	BISON	131	n/a	n/a	0	0	0
3191758	WORD	wordpools/wasnorm_wordpool_576.txt	LTP228	ltpFR2	7	16	WORLD	1622	n/a	n/a	0	0	0
3194403	WORD	wordpools/wasnorm_wordpool_576.txt	LTP228	ltpFR2	7	16	BRACES	164	n/a	n/a	0	0	0
3197083	WORD	wordpools/wasnorm_wordpool_576.txt	LTP228	ltpFR2	7	16	SHRUB	1299	n/a	n/a	0	0	0
3199830	WORD	wordpools/wasnorm_wordpool_576.txt	LTP228	ltpFR2	7	16	ANTLER	29	n/a	n/a	0	0	0
3202292	WORD	wordpools/wasnorm_wordpool_576.txt	LTP228	ltpFR2	7	16	PISTOL	1075	n/a	n/a	0	0	0
3205104	WORD	wordpools/wasnorm_wordpool_576.txt	LTP228	ltpFR2	7	16	PICTURE	1061	n/a	n/a	0	0	0
3207785	WORD	wordpools/wasnorm_wordpool_576.txt	LTP228	ltpFR2	7	16	MATCH	878	n/a	n/a	0	0	0
3210264	WORD	wordpools/wasnorm_wordpool_576.txt	LTP228	ltpFR2	7	16	CABIN	211	n/a	n/a	0	0	0
3212861	WORD	wordpools/wasnorm_wordpool_576.txt	LTP228	ltpFR2	7	16	CUSTARD	429	n/a	n/a	0	0	0
3215473	WORD	wordpools/wasnorm_wordpool_576.txt	LTP228	ltpFR2	7	16	PIGMENT	1066	n/a	n/a	0	0	0
3218019	WORD	wordpools/wasnorm_wordpool_576.txt	LTP228	ltpFR2	7	16	PIGEON	1065	n/a	n/a	0	0	0
3220633	WORD	wordpools/wasnorm_wordpool_576.txt	LTP228	ltpFR2	7	16	LOFT	840	n/a	n/a	0	0	0
3223428	WORD	wordpools/wasnorm_wordpool_576.txt	LTP228	ltpFR2	7	16	SCRIBBLE	1256	n/a	n/a	0	0	0
3226124	WORD	wordpools/wasnorm_wordpool_576.txt	LTP228	ltpFR2	7	16	FINGER	567	n/a	n/a	0	0	0
3228821	WORD	wordpools/wasnorm_wordpool_576.txt	LTP228	ltpFR2	7	16	RUST	1219	n/a	n/a	0	0	0
3230434	START	n/a	LTP228	ltpFR2	7	n/a	n/a	n/a	22	n/a	n/a	n/a	n/a
3231505	DISTRACTOR	n/a	LTP228	ltpFR2	7	16	n/a	n/a	n/a	n/a	0	0	0
3231517	PROB	n/a	LTP228	ltpFR2	7	n/a	n/a	n/a	22	15	7	3	5
3232915	PROB	n/a	LTP228	ltpFR2	7	n/a	n/a	n/a	22	13	9	1	3
3234311	PROB	n/a	LTP228	ltpFR2	7	n/a	n/a	n/a	22	10	5	4	1
3236175	PROB	n/a	LTP228	ltpFR2	7	n/a	n/a	n/a	22	19	8	8	3
3237957	PROB	n/a	LTP228	ltpFR2	7	n/a	n/a	n/a	22	22	9	5	8
3241468	PROB	n/a	LTP228	ltpFR2	7	n/a	n/a	n/a	22	13	2	9	2
3243448	PROB	n/a	LTP228	ltpFR2	7	n/a	n/a	n/a	22	11	2	2	7
3244930	PROB	n/a	LTP228	ltpFR2	7	n/a	n/a	n/a	22	14	7	5	2
3246894	PROB	n/a	LTP228	ltpFR2	7	n/a	n/a	n/a	22	14	6	6	2
3248358	PROB	n/a	LTP228	ltpFR2	7	n/a	n/a	n/a	22	13	5	2	6
3254434	STOP	n/a	LTP228	ltpFR2	7	n/a	n/a	n/a	22	n/a	n/a	n/a	n/a
3256363	REC_START	n/a	LTP228	ltpFR2	7	16	n/a	n/a	n/a	n/a	0	0	0
3257941	REC_WORD	wordpools/wasnorm_wordpool_576.txt	LTP228	ltpFR2	7	16	PADDLE	1000	n/a	n/a	0	0	0
3258745	REC_WORD	wordpools/wasnorm_wordpool_576.txt	LTP228	ltpFR2	7	16	RAFT	1159	n/a	n/a	0	0	0
3259913	REC_WORD	wordpools/wasnorm_wordpool_576.txt	LTP228	ltpFR2	7	16	LUMBER	848	n/a	n/a	0	0	0
3261623	REC_WORD_VV	wordpools/wasnorm_wordpool_576.txt	LTP228	ltpFR2	7	16	<>	-1	n/a	n/a	0	0	0
3262345	REC_WORD	wordpools/wasnorm_wordpool_576.txt	LTP228	ltpFR2	7	16	WORLD	1622	n/a	n/a	0	0	0
3263500	REC_WORD	wordpools/wasnorm_wordpool_576.txt	LTP228	ltpFR2	7	16	BATHTUB	100	n/a	n/a	0	0	0
3264716	REC_WORD	wordpools/wasnorm_wordpool_576.txt	LTP228	ltpFR2	7	16	ICEBERG	731	n/a	n/a	0	0	0
3269685	REC_WORD	wordpools/wasnorm_wordpool_576.txt	LTP228	ltpFR2	7	16	LOFT	840	n/a	n/a	0	0	0
3272023	REC_WORD	wordpools/wasnorm_wordpool_576.txt	LTP228	ltpFR2	7	16	SCRIBBLE	1256	n/a	n/a	0	0	0
3273024	REC_WORD	wordpools/wasnorm_wordpool_576.txt	LTP228	ltpFR2	7	16	FINGER	567	n/a	n/a	0	0	0
3283160	REC_WORD	wordpools/wasnorm_wordpool_576.txt	LTP228	ltpFR2	7	16	PUDDING	1139	n/a	n/a	0	0	0
3333116	REST_REWET	n/a	LTP228	ltpFR2	7	16	n/a	n/a	n/a	n/a	0	0	0
3567405	DISTRACTOR	n/a	LTP228	ltpFR2	7	17	n/a	n/a	n/a	n/a	0	0	0
3567405	START	n/a	LTP228	ltpFR2	7	n/a	n/a	n/a	23	n/a	n/a	n/a	n/a
3567438	PROB	n/a	LTP228	ltpFR2	7	n/a	n/a	n/a	23	16	2	6	8
3569302	PROB	n/a	LTP228	ltpFR2	7	n/a	n/a	n/a	23	20	9	2	9
3572015	PROB	n/a	LTP228	ltpFR2	7	n/a	n/a	n/a	23	12	6	4	2
3573780	PROB	n/a	LTP228	ltpFR2	7	n/a	n/a	n/a	23	14	2	8	4
3575443	PROB	n/a	LTP228	ltpFR2	7	n/a	n/a	n/a	23	15	9	2	4
3580203	PROB	n/a	LTP228	ltpFR2	7	n/a	n/a	n/a	23	7	1	1	5
3581535	PROB	n/a	LTP228	ltpFR2	7	n/a	n/a	n/a	23	11	4	4	3
3585895	PROB	n/a	LTP228	ltpFR2	7	n/a	n/a	n/a	23	19	6	5	8
3588008	PROB	n/a	LTP228	ltpFR2	7	n/a	n/a	n/a	23	16	4	3	9
3590224	STOP	n/a	LTP228	ltpFR2	7	n/a	n/a	n/a	23	n/a	n/a	n/a	n/a
3592268	WORD	wordpools/wasnorm_wordpool_576.txt	LTP228	ltpFR2	7	17	GALLON	618	n/a	n/a	0	0	0
3594749	WORD	wordpools/wasnorm_wordpool_576.txt	LTP228	ltpFR2	7	17	HOSTESS	723	n/a	n/a	0	0	0
3597361	WORD	wordpools/wasnorm_wordpool_576.txt	LTP228	ltpFR2	7	17	ICING	732	n/a	n/a	0	0	0
3599958	WORD	wordpools/wasnorm_wordpool_576.txt	LTP228	ltpFR2	7	17	PISTON	1076	n/a	n/a	0	0	0
3602521	WORD	wordpools/wasnorm_wordpool_576.txt	LTP228	ltpFR2	7	17	GREASE	660	n/a	n/a	0	0	0
3605183	WORD	wordpools/wasnorm_wordpool_576.txt	LTP228	ltpFR2	7	17	PATROL	1027	n/a	n/a	0	0	0
3607763	WORD	wordpools/wasnorm_wordpool_576.txt	LTP228	ltpFR2	7	17	BASEMENT	94	n/a	n/a	0	0	0
3610342	WORD	wordpools/wasnorm_wordpool_576.txt	LTP228	ltpFR2	7	17	SERVER	1272	n/a	n/a	0	0	0
3613021	WORD	wordpools/wasnorm_wordpool_576.txt	LTP228	ltpFR2	7	17	DINER	467	n/a	n/a	0	0	0
3615552	WORD	wordpools/wasnorm_wordpool_576.txt	LTP228	ltpFR2	7	17	DRILL	497	n/a	n/a	0	0	0
3618314	WORD	wordpools/wasnorm_wordpool_576.txt	LTP228	ltpFR2	7	17	MACHINE	852	n/a	n/a	0	0	0
3620911	WORD	wordpools/wasnorm_wordpool_576.txt	LTP228	ltpFR2	7	17	SHARK	1275	n/a	n/a	0	0	0
3623723	WORD	wordpools/wasnorm_wordpool_576.txt	LTP228	ltpFR2	7	17	FRECKLE	602	n/a	n/a	0	0	0
3626335	WORD	wordpools/wasnorm_wordpool_576.txt	LTP228	ltpFR2	7	17	LABEL	790	n/a	n/a	0	0	0
3629081	WORD	wordpools/wasnorm_wordpool_576.txt	LTP228	ltpFR2	7	17	BRICK	172	n/a	n/a	0	0	0
3631712	WORD	wordpools/wasnorm_wordpool_576.txt	LTP228	ltpFR2	7	17	FIDDLE	561	n/a	n/a	0	0	0
3634273	WORD	wordpools/wasnorm_wordpool_576.txt	LTP228	ltpFR2	7	17	EYELASH	546	n/a	n/a	0	0	0
3636738	WORD	wordpools/wasnorm_wordpool_576.txt	LTP228	ltpFR2	7	17	POSTAGE	1113	n/a	n/a	0	0	0
3639283	WORD	wordpools/wasnorm_wordpool_576.txt	LTP228	ltpFR2	7	17	GYMNAST	675	n/a	n/a	0	0	0
3641863	WORD	wordpools/wasnorm_wordpool_576.txt	LTP228	ltpFR2	7	17	JUGGLER	763	n/a	n/a	0	0	0
3644309	WORD	wordpools/wasnorm_wordpool_576.txt	LTP228	ltpFR2	7	17	LIPSTICK	829	n/a	n/a	0	0	0
3647105	WORD	wordpools/wasnorm_wordpool_576.txt	LTP228	ltpFR2	7	17	TROMBONE	1508	n/a	n/a	0	0	0
3649602	WORD	wordpools/wasnorm_wordpool_576.txt	LTP228	ltpFR2	7	17	NAPKIN	937	n/a	n/a	0	0	0
3652230	WORD	wordpools/wasnorm_wordpool_576.txt	LTP228	ltpFR2	7	17	GRAPE	654	n/a	n/a	0	0	0
3653846	START	n/a	LTP228	ltpFR2	7	n/a	n/a	n/a	24	n/a	n/a	n/a	n/a
3654696	DISTRACTOR	n/a	LTP228	ltpFR2	7	17	n/a	n/a	n/a	n/a	0	0	0
3654711	PROB	n/a	LTP228	ltpFR2	7	n/a	n/a	n/a	24	9	1	4	4
3656091	PROB	n/a	LTP228	ltpFR2	7	n/a	n/a	n/a	24	12	1	9	2
3658355	PROB	n/a	LTP228	ltpFR2	7	n/a	n/a	n/a	24	13	6	1	6
3660252	PROB	n/a	LTP228	ltpFR2	7	n/a	n/a	n/a	24	11	4	4	3
3664030	PROB	n/a	LTP228	ltpFR2	7	n/a	n/a	n/a	24	18	9	5	4
3666160	PROB	n/a	LTP228	ltpFR2	7	n/a	n/a	n/a	24	13	1	3	9
3667942	PROB	n/a	LTP228	ltpFR2	7	n/a	n/a	n/a	24	13	6	2	5
3671886	PROB	n/a	LTP228	ltpFR2	7	n/a	n/a	n/a	24	16	4	9	3
3677103	STOP	n/a	LTP228	ltpFR2	7	n/a	n/a	n/a	24	n/a	n/a	n/a	n/a
3679758	REC_START	n/a	LTP228	ltpFR2	7	17	n/a	n/a	n/a	n/a	0	0	0
3684396	REC_WORD	wordpools/wasnorm_wordpool_576.txt	LTP228	ltpFR2	7	17	GRAPE	654	n/a	n/a	0	0	0
3686969	REC_WORD	wordpools/wasnorm_wordpool_576.txt	LTP228	ltpFR2	7	17	SERVER	1272	n/a	n/a	0	0	0
3687951	REC_WORD	wordpools/wasnorm_wordpool_576.txt	LTP228	ltpFR2	7	17	DINER	467	n/a	n/a	0	0	0
3720868	REC_WORD_VV	wordpools/wasnorm_wordpool_576.txt	LTP228	ltpFR2	7	17	<>	-1	n/a	n/a	0	0	0
3721868	REC_WORD_VV	wordpools/wasnorm_wordpool_576.txt	LTP228	ltpFR2	7	17	<>	-1	n/a	n/a	0	0	0
3722868	REC_WORD_VV	wordpools/wasnorm_wordpool_576.txt	LTP228	ltpFR2	7	17	<>	-1	n/a	n/a	0	0	0
3732296	REC_WORD	wordpools/wasnorm_wordpool_576.txt	LTP228	ltpFR2	7	17	GALLON	618	n/a	n/a	0	0	0
3770574	DISTRACTOR	n/a	LTP228	ltpFR2	7	18	n/a	n/a	n/a	n/a	0	0	0
3770575	START	n/a	LTP228	ltpFR2	7	n/a	n/a	n/a	25	n/a	n/a	n/a	n/a
3770608	PROB	n/a	LTP228	ltpFR2	7	n/a	n/a	n/a	25	18	9	1	8
3772121	PROB	n/a	LTP228	ltpFR2	7	n/a	n/a	n/a	25	11	7	3	1
3773603	PROB	n/a	LTP228	ltpFR2	7	n/a	n/a	n/a	25	17	7	5	5
3775217	PROB	n/a	LTP228	ltpFR2	7	n/a	n/a	n/a	25	8	1	1	6
3776566	PROB	n/a	LTP228	ltpFR2	7	n/a	n/a	n/a	25	17	6	5	6
3780109	PROB	n/a	LTP228	ltpFR2	7	n/a	n/a	n/a	25	10	3	6	1
3782056	PROB	n/a	LTP228	ltpFR2	7	n/a	n/a	n/a	25	13	6	2	5
3784137	PROB	n/a	LTP228	ltpFR2	7	n/a	n/a	n/a	25	16	5	6	5
3786234	PROB	n/a	LTP228	ltpFR2	7	n/a	n/a	n/a	25	12	5	2	5
3787982	PROB	n/a	LTP228	ltpFR2	7	n/a	n/a	n/a	25	8	4	1	3
3790111	PROB	n/a	LTP228	ltpFR2	7	n/a	n/a	n/a	25	20	8	6	6
3794575	STOP	n/a	LTP228	ltpFR2	7	n/a	n/a	n/a	25	n/a	n/a	n/a	n/a
3795804	WORD	wordpools/wasnorm_wordpool_576.txt	LTP228	ltpFR2	7	18	DRUG	501	n/a	n/a	0	0	0
3798249	WORD	wordpools/wasnorm_wordpool_576.txt	LTP228	ltpFR2	7	18	XEROX	1628	n/a	n/a	0	0	0
3800896	WORD	wordpools/wasnorm_wordpool_576.txt	LTP228	ltpFR2	7	18	WASHER	1592	n/a	n/a	0	0	0
3803325	WORD	wordpools/wasnorm_wordpool_576.txt	LTP228	ltpFR2	7	18	LIVER	833	n/a	n/a	0	0	0
3805856	WORD	wordpools/wasnorm_wordpool_576.txt	LTP228	ltpFR2	7	18	NOVEL	960	n/a	n/a	0	0	0
3808552	WORD	wordpools/wasnorm_wordpool_576.txt	LTP228	ltpFR2	7	18	POET	1095	n/a	n/a	0	0	0
3811280	WORD	wordpools/wasnorm_wordpool_576.txt	LTP228	ltpFR2	7	18	SURVEY	1414	n/a	n/a	0	0	0
3813827	WORD	wordpools/wasnorm_wordpool_576.txt	LTP228	ltpFR2	7	18	VIRUS	1572	n/a	n/a	0	0	0
3816473	WORD	wordpools/wasnorm_wordpool_576.txt	LTP228	ltpFR2	7	18	OZONE	996	n/a	n/a	0	0	0
3819119	WORD	wordpools/wasnorm_wordpool_576.txt	LTP228	ltpFR2	7	18	LUGGAGE	847	n/a	n/a	0	0	0
3821549	WORD	wordpools/wasnorm_wordpool_576.txt	LTP228	ltpFR2	7	18	LAMP	798	n/a	n/a	0	0	0
3824261	WORD	wordpools/wasnorm_wordpool_576.txt	LTP228	ltpFR2	7	18	INFANT	737	n/a	n/a	0	0	0
3827074	WORD	wordpools/wasnorm_wordpool_576.txt	LTP228	ltpFR2	7	18	BALLOON	75	n/a	n/a	0	0	0
3829654	WORD	wordpools/wasnorm_wordpool_576.txt	LTP228	ltpFR2	7	18	MISSILE	900	n/a	n/a	0	0	0
3832366	WORD	wordpools/wasnorm_wordpool_576.txt	LTP228	ltpFR2	7	18	CHAPEL	280	n/a	n/a	0	0	0
3835045	WORD	wordpools/wasnorm_wordpool_576.txt	LTP228	ltpFR2	7	18	HELMET	702	n/a	n/a	0	0	0
3837809	WORD	wordpools/wasnorm_wordpool_576.txt	LTP228	ltpFR2	7	18	HERO	706	n/a	n/a	0	0	0
3840471	WORD	wordpools/wasnorm_wordpool_576.txt	LTP228	ltpFR2	7	18	SUITCASE	1403	n/a	n/a	0	0	0
3843250	WORD	wordpools/wasnorm_wordpool_576.txt	LTP228	ltpFR2	7	18	SWORD	1423	n/a	n/a	0	0	0
3845930	WORD	wordpools/wasnorm_wordpool_576.txt	LTP228	ltpFR2	7	18	STAMP	1370	n/a	n/a	0	0	0
3848726	WORD	wordpools/wasnorm_wordpool_576.txt	LTP228	ltpFR2	7	18	MAILMAN	858	n/a	n/a	0	0	0
3851522	WORD	wordpools/wasnorm_wordpool_576.txt	LTP228	ltpFR2	7	18	TRIBE	1505	n/a	n/a	0	0	0
3854250	WORD	wordpools/wasnorm_wordpool_576.txt	LTP228	ltpFR2	7	18	THIEF	1456	n/a	n/a	0	0	0
3856931	WORD	wordpools/wasnorm_wordpool_576.txt	LTP228	ltpFR2	7	18	CRITIC	410	n/a	n/a	0	0	0
3858545	START	n/a	LTP228	ltpFR2	7	n/a	n/a	n/a	26	n/a	n/a	n/a	n/a
3859453	DISTRACTOR	n/a	LTP228	ltpFR2	7	18	n/a	n/a	n/a	n/a	0	0	0
3859459	PROB	n/a	LTP228	ltpFR2	7	n/a	n/a	n/a	26	20	9	2	9
3861506	PROB	n/a	LTP228	ltpFR2	7	n/a	n/a	n/a	26	22	8	6	8
3863871	PROB	n/a	LTP228	ltpFR2	7	n/a	n/a	n/a	26	22	9	4	9
3866150	PROB	n/a	LTP228	ltpFR2	7	n/a	n/a	n/a	26	20	8	8	4
3869029	PROB	n/a	LTP228	ltpFR2	7	n/a	n/a	n/a	26	19	9	2	8
3871875	PROB	n/a	LTP228	ltpFR2	7	n/a	n/a	n/a	26	19	9	5	5
3873272	PROB	n/a	LTP228	ltpFR2	7	n/a	n/a	n/a	26	12	5	6	1
3876768	PROB	n/a	LTP228	ltpFR2	7	n/a	n/a	n/a	26	16	4	3	9
3878997	PROB	n/a	LTP228	ltpFR2	7	n/a	n/a	n/a	26	11	1	9	1
3880412	PROB	n/a	LTP228	ltpFR2	7	n/a	n/a	n/a	26	15	8	2	5
3881960	STOP	n/a	LTP228	ltpFR2	7	n/a	n/a	n/a	26	n/a	n/a	n/a	n/a
3884390	REC_START	n/a	LTP228	ltpFR2	7	18	n/a	n/a	n/a	n/a	0	0	0
3885739	REC_WORD	wordpools/wasnorm_wordpool_576.txt	LTP228	ltpFR2	7	18	BALLOON	75	n/a	n/a	0	0	0
3886511	REC_WORD	wordpools/wasnorm_wordpool_576.txt	LTP228	ltpFR2	7	18	MISSILE	900	n/a	n/a	0	0	0
3887233	REC_WORD	wordpools/wasnorm_wordpool_576.txt	LTP228	ltpFR2	7	18	OZONE	996	n/a	n/a	0	0	0
4000319	DISTRACTOR	n/a	LTP228	ltpFR2	7	19	n/a	n/a	n/a	n/a	0	0	0
4000319	START	n/a	LTP228	ltpFR2	7	n/a	n/a	n/a	27	n/a	n/a	n/a	n/a
4000352	PROB	n/a	LTP228	ltpFR2	7	n/a	n/a	n/a	27	19	5	8	6
4004564	PROB	n/a	LTP228	ltpFR2	7	n/a	n/a	n/a	27	9	3	3	3
4005812	PROB	n/a	LTP228	ltpFR2	7	n/a	n/a	n/a	27	13	6	1	6
4007609	PROB	n/a	LTP228	ltpFR2	7	n/a	n/a	n/a	27	23	7	7	9
4009606	PROB	n/a	LTP228	ltpFR2	7	n/a	n/a	n/a	27	16	9	4	3
4011953	PROB	n/a	LTP228	ltpFR2	7	n/a	n/a	n/a	27	20	8	8	4
4014115	PROB	n/a	LTP228	ltpFR2	7	n/a	n/a	n/a	27	23	6	9	8
4018093	PROB	n/a	LTP228	ltpFR2	7	n/a	n/a	n/a	27	12	6	2	4
4024314	STOP	n/a	LTP228	ltpFR2	7	n/a	n/a	n/a	27	n/a	n/a	n/a	n/a
4025216	WORD	wordpools/wasnorm_wordpool_576.txt	LTP228	ltpFR2	7	19	FILM	565	n/a	n/a	0	0	0
4027863	WORD	wordpools/wasnorm_wordpool_576.txt	LTP228	ltpFR2	7	19	COLONEL	348	n/a	n/a	0	0	0
4030292	WORD	wordpools/wasnorm_wordpool_576.txt	LTP228	ltpFR2	7	19	MARSH	874	n/a	n/a	0	0	0
4032772	WORD	wordpools/wasnorm_wordpool_576.txt	LTP228	ltpFR2	7	19	SPONGE	1355	n/a	n/a	0	0	0
4035501	WORD	wordpools/wasnorm_wordpool_576.txt	LTP228	ltpFR2	7	19	TWIG	1527	n/a	n/a	0	0	0
4038130	WORD	wordpools/wasnorm_wordpool_576.txt	LTP228	ltpFR2	7	19	BRANCH	168	n/a	n/a	0	0	0
4040744	WORD	wordpools/wasnorm_wordpool_576.txt	LTP228	ltpFR2	7	19	DRINK	498	n/a	n/a	0	0	0
4043439	WORD	wordpools/wasnorm_wordpool_576.txt	LTP228	ltpFR2	7	19	PORK	1108	n/a	n/a	0	0	0
4045986	WORD	wordpools/wasnorm_wordpool_576.txt	LTP228	ltpFR2	7	19	SEAGULL	1261	n/a	n/a	0	0	0
4048749	WORD	wordpools/wasnorm_wordpool_576.txt	LTP228	ltpFR2	7	19	DOUGHNUT	490	n/a	n/a	0	0	0
4051177	WORD	wordpools/wasnorm_wordpool_576.txt	LTP228	ltpFR2	7	19	PRINCE	1124	n/a	n/a	0	0	0
4053908	WORD	wordpools/wasnorm_wordpool_576.txt	LTP228	ltpFR2	7	19	CIGAR	308	n/a	n/a	0	0	0
4056604	WORD	wordpools/wasnorm_wordpool_576.txt	LTP228	ltpFR2	7	19	THRONE	1461	n/a	n/a	0	0	0
4059365	WORD	wordpools/wasnorm_wordpool_576.txt	LTP228	ltpFR2	7	19	MISTER	901	n/a	n/a	0	0	0
4061913	WORD	wordpools/wasnorm_wordpool_576.txt	LTP228	ltpFR2	7	19	TUTU	1524	n/a	n/a	0	0	0
4064559	WORD	wordpools/wasnorm_wordpool_576.txt	LTP228	ltpFR2	7	19	SEAL	1262	n/a	n/a	0	0	0
4067354	WORD	wordpools/wasnorm_wordpool_576.txt	LTP228	ltpFR2	7	19	SILK	1307	n/a	n/a	0	0	0
4070116	WORD	wordpools/wasnorm_wordpool_576.txt	LTP228	ltpFR2	7	19	FLEET	578	n/a	n/a	0	0	0
4072647	WORD	wordpools/wasnorm_wordpool_576.txt	LTP228	ltpFR2	7	19	BRIEFCASE	175	n/a	n/a	0	0	0
4075392	WORD	wordpools/wasnorm_wordpool_576.txt	LTP228	ltpFR2	7	19	BUREAU	199	n/a	n/a	0	0	0
4078171	WORD	wordpools/wasnorm_wordpool_576.txt	LTP228	ltpFR2	7	19	STUDENT	1395	n/a	n/a	0	0	0
4080802	WORD	wordpools/wasnorm_wordpool_576.txt	LTP228	ltpFR2	7	19	ULCER	1533	n/a	n/a	0	0	0
4083531	WORD	wordpools/wasnorm_wordpool_576.txt	LTP228	ltpFR2	7	19	STOMACH	1384	n/a	n/a	0	0	0
4086159	WORD	wordpools/wasnorm_wordpool_576.txt	LTP228	ltpFR2	7	19	BUCKET	184	n/a	n/a	0	0	0
4087775	START	n/a	LTP228	ltpFR2	7	n/a	n/a	n/a	28	n/a	n/a	n/a	n/a
4088839	DISTRACTOR	n/a	LTP228	ltpFR2	7	19	n/a	n/a	n/a	n/a	0	0	0
4088856	PROB	n/a	LTP228	ltpFR2	7	n/a	n/a	n/a	28	7	1	3	3
4090403	PROB	n/a	LTP228	ltpFR2	7	n/a	n/a	n/a	28	10	6	3	1
4092200	PROB	n/a	LTP228	ltpFR2	7	n/a	n/a	n/a	28	16	5	6	5
4093899	PROB	n/a	LTP228	ltpFR2	7	n/a	n/a	n/a	28	12	8	2	2
4095829	PROB	n/a	LTP228	ltpFR2	7	n/a	n/a	n/a	28	22	5	9	8
4100789	PROB	n/a	LTP228	ltpFR2	7	n/a	n/a	n/a	28	11	5	3	3
4102902	PROB	n/a	LTP228	ltpFR2	7	n/a	n/a	n/a	28	12	2	8	2
4104733	PROB	n/a	LTP228	ltpFR2	7	n/a	n/a	n/a	28	12	5	3	4
4108293	PROB	n/a	LTP228	ltpFR2	7	n/a	n/a	n/a	28	18	9	1	8
4111775	STOP	n/a	LTP228	ltpFR2	7	n/a	n/a	n/a	28	n/a	n/a	n/a	n/a
4113587	REC_START	n/a	LTP228	ltpFR2	7	19	n/a	n/a	n/a	n/a	0	0	0
4116348	REC_WORD	wordpools/wasnorm_wordpool_576.txt	LTP228	ltpFR2	7	19	FILM	565	n/a	n/a	0	0	0
4118307	REC_WORD	wordpools/wasnorm_wordpool_576.txt	LTP228	ltpFR2	7	19	ULCER	1533	n/a	n/a	0	0	0
4119968	REC_WORD	wordpools/wasnorm_wordpool_576.txt	LTP228	ltpFR2	7	19	DOUGHNUT	490	n/a	n/a	0	0	0
4204285	WORD	wordpools/wasnorm_wordpool_576.txt	LTP228	ltpFR2	7	20	THREAD	1460	n/a	n/a	0	0	0
4206998	WORD	wordpools/wasnorm_wordpool_576.txt	LTP228	ltpFR2	7	20	CANAL	226	n/a	n/a	0	0	0
4209579	WORD	wordpools/wasnorm_wordpool_576.txt	LTP228	ltpFR2	7	20	LODGE	839	n/a	n/a	0	0	0
4212141	WORD	wordpools/wasnorm_wordpool_576.txt	LTP228	ltpFR2	7	20	BABY	64	n/a	n/a	0	0	0
4214838	WORD	wordpools/wasnorm_wordpool_576.txt	LTP228	ltpFR2	7	20	CARRIAGE	248	n/a	n/a	0	0	0
4217667	WORD	wordpools/wasnorm_wordpool_576.txt	LTP228	ltpFR2	7	20	WASP	1593	n/a	n/a	0	0	0
4220295	WORD	wordpools/wasnorm_wordpool_576.txt	LTP228	ltpFR2	7	20	POCKET	1093	n/a	n/a	0	0	0
4223091	WORD	wordpools/wasnorm_wordpool_576.txt	LTP228	ltpFR2	7	20	PALACE	1006	n/a	n/a	0	0	0
4225722	WORD	wordpools/wasnorm_wordpool_576.txt	LTP228	ltpFR2	7	20	QUEEN	1149	n/a	n/a	0	0	0
4228483	WORD	wordpools/wasnorm_wordpool_576.txt	LTP228	ltpFR2	7	20	BANK	83	n/a	n/a	0	0	0
4231163	WORD	wordpools/wasnorm_wordpool_576.txt	LTP228	ltpFR2	7	20	SUNSET	1408	n/a	n/a	0	0	0
4233893	WORD	wordpools/wasnorm_wordpool_576.txt	LTP228	ltpFR2	7	20	FUNGUS	614	n/a	n/a	0	0	0
4236622	WORD	wordpools/wasnorm_wordpool_576.txt	LTP228	ltpFR2	7	20	CLOTHES	327	n/a	n/a	0	0	0
4239068	WORD	wordpools/wasnorm_wordpool_576.txt	LTP228	ltpFR2	7	20	PLAZA	1088	n/a	n/a	0	0	0
4241765	WORD	wordpools/wasnorm_wordpool_576.txt	LTP228	ltpFR2	7	20	DRAGON	492	n/a	n/a	0	0	0
4244460	WORD	wordpools/wasnorm_wordpool_576.txt	LTP228	ltpFR2	7	20	CELLAR	267	n/a	n/a	0	0	0
4246989	WORD	wordpools/wasnorm_wordpool_576.txt	LTP228	ltpFR2	7	20	RECEIPT	1173	n/a	n/a	0	0	0
4249720	WORD	wordpools/wasnorm_wordpool_576.txt	LTP228	ltpFR2	7	20	SUNRISE	1407	n/a	n/a	0	0	0
4252298	WORD	wordpools/wasnorm_wordpool_576.txt	LTP228	ltpFR2	7	20	SPACE	1345	n/a	n/a	0	0	0
4255111	WORD	wordpools/wasnorm_wordpool_576.txt	LTP228	ltpFR2	7	20	LETTUCE	814	n/a	n/a	0	0	0
4257891	WORD	wordpools/wasnorm_wordpool_576.txt	LTP228	ltpFR2	7	20	LILY	821	n/a	n/a	0	0	0
4260470	WORD	wordpools/wasnorm_wordpool_576.txt	LTP228	ltpFR2	7	20	FOOTBALL	591	n/a	n/a	0	0	0
4263066	WORD	wordpools/wasnorm_wordpool_576.txt	LTP228	ltpFR2	7	20	SPIDER	1351	n/a	n/a	0	0	0
4265796	WORD	wordpools/wasnorm_wordpool_576.txt	LTP228	ltpFR2	7	20	BANQUET	86	n/a	n/a	0	0	0
4267410	START	n/a	LTP228	ltpFR2	7	n/a	n/a	n/a	29	n/a	n/a	n/a	n/a
4268358	DISTRACTOR	n/a	LTP228	ltpFR2	7	20	n/a	n/a	n/a	n/a	0	0	0
4268375	PROB	n/a	LTP228	ltpFR2	7	n/a	n/a	n/a	29	19	8	2	9
4270305	PROB	n/a	LTP228	ltpFR2	7	n/a	n/a	n/a	29	19	4	9	6
4272119	PROB	n/a	LTP228	ltpFR2	7	n/a	n/a	n/a	29	15	2	8	5
4273518	PROB	n/a	LTP228	ltpFR2	7	n/a	n/a	n/a	29	16	2	7	7
4276830	PROB	n/a	LTP228	ltpFR2	7	n/a	n/a	n/a	29	13	5	3	5
4278227	PROB	n/a	LTP228	ltpFR2	7	n/a	n/a	n/a	29	7	1	2	4
4279925	PROB	n/a	LTP228	ltpFR2	7	n/a	n/a	n/a	29	12	6	2	4
4282354	PROB	n/a	LTP228	ltpFR2	7	n/a	n/a	n/a	29	12	5	1	6
4285316	PROB	n/a	LTP228	ltpFR2	7	n/a	n/a	n/a	29	15	7	3	5
4287513	PROB	n/a	LTP228	ltpFR2	7	n/a	n/a	n/a	29	15	9	2	4
4290344	STOP	n/a	LTP228	ltpFR2	7	n/a	n/a	n/a	29	n/a	n/a	n/a	n/a
4293355	REC_START	n/a	LTP228	ltpFR2	7	20	n/a	n/a	n/a	n/a	0	0	0
4295121	REC_WORD	wordpools/wasnorm_wordpool_576.txt	LTP228	ltpFR2	7	20	PLAZA	1088	n/a	n/a	0	0	0
4296192	REC_WORD	wordpools/wasnorm_wordpool_576.txt	LTP228	ltpFR2	7	20	DRAGON	492	n/a	n/a	0	0	0
4297844	REC_WORD	wordpools/wasnorm_wordpool_576.txt	LTP228	ltpFR2	7	20	SUNRISE	1407	n/a	n/a	0	0	0
4298844	REC_WORD_VV	wordpools/wasnorm_wordpool_576.txt	LTP228	ltpFR2	7	20	<>	-1	n/a	n/a	0	0	0
4299543	REC_WORD	wordpools/wasnorm_wordpool_576.txt	LTP228	ltpFR2	7	20	BANQUET	86	n/a	n/a	0	0	0
4308864	REC_WORD	wordpools/wasnorm_wordpool_576.txt	LTP228	ltpFR2	7	20	THREAD	1460	n/a	n/a	0	0	0
4310037	REC_WORD	wordpools/wasnorm_wordpool_576.txt	LTP228	ltpFR2	7	20	CANAL	226	n/a	n/a	0	0	0
4384005	DISTRACTOR	n/a	LTP228	ltpFR2	7	21	n/a	n/a	n/a	n/a	0	0	0
4384005	START	n/a	LTP228	ltpFR2	7	n/a	n/a	n/a	30	n/a	n/a	n/a	n/a
4384038	PROB	n/a	LTP228	ltpFR2	7	n/a	n/a	n/a	30	8	2	5	1
4386401	PROB	n/a	LTP228	ltpFR2	7	n/a	n/a	n/a	30	14	7	6	1
4388465	PROB	n/a	LTP228	ltpFR2	7	n/a	n/a	n/a	30	19	9	3	7
4390746	PROB	n/a	LTP228	ltpFR2	7	n/a	n/a	n/a	30	13	3	3	7
4392543	PROB	n/a	LTP228	ltpFR2	7	n/a	n/a	n/a	30	18	9	5	4
4395238	PROB	n/a	LTP228	ltpFR2	7	n/a	n/a	n/a	30	18	6	3	9
4399183	PROB	n/a	LTP228	ltpFR2	7	n/a	n/a	n/a	30	17	9	1	7
4401963	PROB	n/a	LTP228	ltpFR2	7	n/a	n/a	n/a	30	22	7	9	6
4408005	STOP	n/a	LTP228	ltpFR2	7	n/a	n/a	n/a	30	n/a	n/a	n/a	n/a
4409085	WORD	wordpools/wasnorm_wordpool_576.txt	LTP228	ltpFR2	7	21	SUPPER	1411	n/a	n/a	0	0	0
4411649	WORD	wordpools/wasnorm_wordpool_576.txt	LTP228	ltpFR2	7	21	CAFE	216	n/a	n/a	0	0	0
4414227	WORD	wordpools/wasnorm_wordpool_576.txt	LTP228	ltpFR2	7	21	SLUG	1329	n/a	n/a	0	0	0
4416691	WORD	wordpools/wasnorm_wordpool_576.txt	LTP228	ltpFR2	7	21	TURKEY	1520	n/a	n/a	0	0	0
4419386	WORD	wordpools/wasnorm_wordpool_576.txt	LTP228	ltpFR2	7	21	TRUCK	1512	n/a	n/a	0	0	0
4421867	WORD	wordpools/wasnorm_wordpool_576.txt	LTP228	ltpFR2	7	21	TAXI	1438	n/a	n/a	0	0	0
4424312	WORD	wordpools/wasnorm_wordpool_576.txt	LTP228	ltpFR2	7	21	TORTOISE	1486	n/a	n/a	0	0	0
4426743	WORD	wordpools/wasnorm_wordpool_576.txt	LTP228	ltpFR2	7	21	GUARD	667	n/a	n/a	0	0	0
4429388	WORD	wordpools/wasnorm_wordpool_576.txt	LTP228	ltpFR2	7	21	HAND	683	n/a	n/a	0	0	0
4431852	WORD	wordpools/wasnorm_wordpool_576.txt	LTP228	ltpFR2	7	21	ARM	38	n/a	n/a	0	0	0
4434331	WORD	wordpools/wasnorm_wordpool_576.txt	LTP228	ltpFR2	7	21	HORNET	718	n/a	n/a	0	0	0
4436862	WORD	wordpools/wasnorm_wordpool_576.txt	LTP228	ltpFR2	7	21	MARKET	871	n/a	n/a	0	0	0
4439473	WORD	wordpools/wasnorm_wordpool_576.txt	LTP228	ltpFR2	7	21	COIN	343	n/a	n/a	0	0	0
4442186	WORD	wordpools/wasnorm_wordpool_576.txt	LTP228	ltpFR2	7	21	EXPERT	543	n/a	n/a	0	0	0
4444750	WORD	wordpools/wasnorm_wordpool_576.txt	LTP228	ltpFR2	7	21	SHERIFF	1284	n/a	n/a	0	0	0
4447378	WORD	wordpools/wasnorm_wordpool_576.txt	LTP228	ltpFR2	7	21	NIGHTGOWN	953	n/a	n/a	0	0	0
4449876	WORD	wordpools/wasnorm_wordpool_576.txt	LTP228	ltpFR2	7	21	CASHIER	254	n/a	n/a	0	0	0
4452622	WORD	wordpools/wasnorm_wordpool_576.txt	LTP228	ltpFR2	7	21	CREVICE	405	n/a	n/a	0	0	0
4455367	WORD	wordpools/wasnorm_wordpool_576.txt	LTP228	ltpFR2	7	21	FARMER	553	n/a	n/a	0	0	0
4457797	WORD	wordpools/wasnorm_wordpool_576.txt	LTP228	ltpFR2	7	21	MUSTARD	935	n/a	n/a	0	0	0
4460443	WORD	wordpools/wasnorm_wordpool_576.txt	LTP228	ltpFR2	7	21	ROBBER	1197	n/a	n/a	0	0	0
4463222	WORD	wordpools/wasnorm_wordpool_576.txt	LTP228	ltpFR2	7	21	EMPIRE	530	n/a	n/a	0	0	0
4465836	WORD	wordpools/wasnorm_wordpool_576.txt	LTP228	ltpFR2	7	21	MATTRESS	879	n/a	n/a	0	0	0
4468431	WORD	wordpools/wasnorm_wordpool_576.txt	LTP228	ltpFR2	7	21	SKIRT	1319	n/a	n/a	0	0	0
4470045	START	n/a	LTP228	ltpFR2	7	n/a	n/a	n/a	31	n/a	n/a	n/a	n/a
4470937	DISTRACTOR	n/a	LTP228	ltpFR2	7	21	n/a	n/a	n/a	n/a	0	0	0
4470945	PROB	n/a	LTP228	ltpFR2	7	n/a	n/a	n/a	31	21	6	6	9
4473608	PROB	n/a	LTP228	ltpFR2	7	n/a	n/a	n/a	31	20	3	9	8
4477334	PROB	n/a	LTP228	ltpFR2	7	n/a	n/a	n/a	31	14	2	9	3
4479699	PROB	n/a	LTP228	ltpFR2	7	n/a	n/a	n/a	31	18	2	8	8
4481662	PROB	n/a	LTP228	ltpFR2	7	n/a	n/a	n/a	31	19	8	6	5
4484724	PROB	n/a	LTP228	ltpFR2	7	n/a	n/a	n/a	31	9	5	3	1
4487270	PROB	n/a	LTP228	ltpFR2	7	n/a	n/a	n/a	31	13	1	4	8
4494045	STOP	n/a	LTP228	ltpFR2	7	n/a	n/a	n/a	31	n/a	n/a	n/a	n/a
4495909	REC_START	n/a	LTP228	ltpFR2	7	21	n/a	n/a	n/a	n/a	0	0	0
4497040	REC_WORD	wordpools/wasnorm_wordpool_576.txt	LTP228	ltpFR2	7	21	SUPPER	1411	n/a	n/a	0	0	0
4498249	REC_WORD	wordpools/wasnorm_wordpool_576.txt	LTP228	ltpFR2	7	21	CAFE	216	n/a	n/a	0	0	0
4499621	REC_WORD	wordpools/wasnorm_wordpool_576.txt	LTP228	ltpFR2	7	21	SKIRT	1319	n/a	n/a	0	0	0
4500957	REC_WORD	wordpools/wasnorm_wordpool_576.txt	LTP228	ltpFR2	7	21	MATTRESS	879	n/a	n/a	0	0	0
4586591	DISTRACTOR	n/a	LTP228	ltpFR2	7	22	n/a	n/a	n/a	n/a	0	0	0
4586592	START	n/a	LTP228	ltpFR2	7	n/a	n/a	n/a	32	n/a	n/a	n/a	n/a
4586625	PROB	n/a	LTP228	ltpFR2	7	n/a	n/a	n/a	32	15	1	7	7
4588288	PROB	n/a	LTP228	ltpFR2	7	n/a	n/a	n/a	32	26	9	9	8
4591999	PROB	n/a	LTP228	ltpFR2	7	n/a	n/a	n/a	32	15	8	5	2
4595628	PROB	n/a	LTP228	ltpFR2	7	n/a	n/a	n/a	32	11	1	3	7
4597908	PROB	n/a	LTP228	ltpFR2	7	n/a	n/a	n/a	32	15	6	8	1
4601052	PROB	n/a	LTP228	ltpFR2	7	n/a	n/a	n/a	32	15	6	4	5
4602384	PROB	n/a	LTP228	ltpFR2	7	n/a	n/a	n/a	32	11	3	4	4
4604815	PROB	n/a	LTP228	ltpFR2	7	n/a	n/a	n/a	32	24	9	9	6
4607577	PROB	n/a	LTP228	ltpFR2	7	n/a	n/a	n/a	32	9	2	2	5
4609841	STOP	n/a	LTP228	ltpFR2	7	n/a	n/a	n/a	32	n/a	n/a	n/a	n/a
4611621	WORD	wordpools/wasnorm_wordpool_576.txt	LTP228	ltpFR2	7	22	SADDLE	1221	n/a	n/a	0	0	0
4614200	WORD	wordpools/wasnorm_wordpool_576.txt	LTP228	ltpFR2	7	22	SNAIL	1332	n/a	n/a	0	0	0
4616797	WORD	wordpools/wasnorm_wordpool_576.txt	LTP228	ltpFR2	7	22	VALVE	1546	n/a	n/a	0	0	0
4619425	WORD	wordpools/wasnorm_wordpool_576.txt	LTP228	ltpFR2	7	22	PEANUT	1032	n/a	n/a	0	0	0
4621973	WORD	wordpools/wasnorm_wordpool_576.txt	LTP228	ltpFR2	7	22	SCALPEL	1243	n/a	n/a	0	0	0
4624519	WORD	wordpools/wasnorm_wordpool_576.txt	LTP228	ltpFR2	7	22	POISON	1096	n/a	n/a	0	0	0
4627330	WORD	wordpools/wasnorm_wordpool_576.txt	LTP228	ltpFR2	7	22	RATTLE	1170	n/a	n/a	0	0	0
4629828	WORD	wordpools/wasnorm_wordpool_576.txt	LTP228	ltpFR2	7	22	HATCHET	691	n/a	n/a	0	0	0
4632373	WORD	wordpools/wasnorm_wordpool_576.txt	LTP228	ltpFR2	7	22	AWARD	63	n/a	n/a	0	0	0
4635036	WORD	wordpools/wasnorm_wordpool_576.txt	LTP228	ltpFR2	7	22	NECKLACE	940	n/a	n/a	0	0	0
4637633	WORD	wordpools/wasnorm_wordpool_576.txt	LTP228	ltpFR2	7	22	PLATE	1086	n/a	n/a	0	0	0
4640378	WORD	wordpools/wasnorm_wordpool_576.txt	LTP228	ltpFR2	7	22	BIKE	125	n/a	n/a	0	0	0
4643107	WORD	wordpools/wasnorm_wordpool_576.txt	LTP228	ltpFR2	7	22	PECAN	1036	n/a	n/a	0	0	0
4645804	WORD	wordpools/wasnorm_wordpool_576.txt	LTP228	ltpFR2	7	22	GRAVEL	659	n/a	n/a	0	0	0
4648617	WORD	wordpools/wasnorm_wordpool_576.txt	LTP228	ltpFR2	7	22	SLIDE	1326	n/a	n/a	0	0	0
4651345	WORD	wordpools/wasnorm_wordpool_576.txt	LTP228	ltpFR2	7	22	STOVE	1388	n/a	n/a	0	0	0
4654041	WORD	wordpools/wasnorm_wordpool_576.txt	LTP228	ltpFR2	7	22	FLESH	579	n/a	n/a	0	0	0
4656821	WORD	wordpools/wasnorm_wordpool_576.txt	LTP228	ltpFR2	7	22	BANJO	82	n/a	n/a	0	0	0
4659367	WORD	wordpools/wasnorm_wordpool_576.txt	LTP228	ltpFR2	7	22	WAITER	1580	n/a	n/a	0	0	0
4661797	WORD	wordpools/wasnorm_wordpool_576.txt	LTP228	ltpFR2	7	22	SCISSORS	1250	n/a	n/a	0	0	0
4664627	WORD	wordpools/wasnorm_wordpool_576.txt	LTP228	ltpFR2	7	22	VAGRANT	1544	n/a	n/a	0	0	0
4667322	WORD	wordpools/wasnorm_wordpool_576.txt	LTP228	ltpFR2	7	22	MASK	876	n/a	n/a	0	0	0
4670001	WORD	wordpools/wasnorm_wordpool_576.txt	LTP228	ltpFR2	7	22	DENIM	446	n/a	n/a	0	0	0
4672431	WORD	wordpools/wasnorm_wordpool_576.txt	LTP228	ltpFR2	7	22	SHORTS	1293	n/a	n/a	0	0	0
4674045	START	n/a	LTP228	ltpFR2	7	n/a	n/a	n/a	33	n/a	n/a	n/a	n/a
4675042	DISTRACTOR	n/a	LTP228	ltpFR2	7	22	n/a	n/a	n/a	n/a	0	0	0
4675043	PROB	n/a	LTP228	ltpFR2	7	n/a	n/a	n/a	33	23	9	8	6
4677473	PROB	n/a	LTP228	ltpFR2	7	n/a	n/a	n/a	33	8	4	1	3
4679921	PROB	n/a	LTP228	ltpFR2	7	n/a	n/a	n/a	33	9	2	5	2
4681618	PROB	n/a	LTP228	ltpFR2	7	n/a	n/a	n/a	33	12	1	6	5
4683931	PROB	n/a	LTP228	ltpFR2	7	n/a	n/a	n/a	33	16	6	6	4
4687309	PROB	n/a	LTP228	ltpFR2	7	n/a	n/a	n/a	33	12	1	8	3
4689740	PROB	n/a	LTP228	ltpFR2	7	n/a	n/a	n/a	33	9	2	6	1
4691603	PROB	n/a	LTP228	ltpFR2	7	n/a	n/a	n/a	33	16	7	2	7
4698045	STOP	n/a	LTP228	ltpFR2	7	n/a	n/a	n/a	33	n/a	n/a	n/a	n/a
4699942	REC_START	n/a	LTP228	ltpFR2	7	22	n/a	n/a	n/a	n/a	0	0	0
4703143	REC_WORD	wordpools/wasnorm_wordpool_576.txt	LTP228	ltpFR2	7	22	SCISSORS	1250	n/a	n/a	0	0	0
4704336	REC_WORD	wordpools/wasnorm_wordpool_576.txt	LTP228	ltpFR2	7	22	VAGRANT	1544	n/a	n/a	0	0	0
4706083	REC_WORD	wordpools/wasnorm_wordpool_576.txt	LTP228	ltpFR2	7	22	SADDLE	1221	n/a	n/a	0	0	0
4707004	REC_WORD	wordpools/wasnorm_wordpool_576.txt	LTP228	ltpFR2	7	22	SLIDE	1326	n/a	n/a	0	0	0
4710224	REC_WORD	wordpools/wasnorm_wordpool_576.txt	LTP228	ltpFR2	7	22	PECAN	1036	n/a	n/a	0	0	0
4711295	REC_WORD	wordpools/wasnorm_wordpool_576.txt	LTP228	ltpFR2	7	22	PEANUT	1032	n/a	n/a	0	0	0
4712524	REC_WORD	wordpools/wasnorm_wordpool_576.txt	LTP228	ltpFR2	7	22	VALVE	1546	n/a	n/a	0	0	0
4773956	REC_WORD	wordpools/wasnorm_wordpool_576.txt	LTP228	ltpFR2	7	22	SWAMP	1416	n/a	n/a	0	0	0
4790625	WORD	wordpools/wasnorm_wordpool_576.txt	LTP228	ltpFR2	7	23	SLOPE	1328	n/a	n/a	0	0	0
4793203	WORD	wordpools/wasnorm_wordpool_576.txt	LTP228	ltpFR2	7	23	AIRPORT	13	n/a	n/a	0	0	0
4795950	WORD	wordpools/wasnorm_wordpool_576.txt	LTP228	ltpFR2	7	23	TROUT	1511	n/a	n/a	0	0	0
4798696	WORD	wordpools/wasnorm_wordpool_576.txt	LTP228	ltpFR2	7	23	MARINE	869	n/a	n/a	0	0	0
4801225	WORD	wordpools/wasnorm_wordpool_576.txt	LTP228	ltpFR2	7	23	COUSIN	392	n/a	n/a	0	0	0
4803938	WORD	wordpools/wasnorm_wordpool_576.txt	LTP228	ltpFR2	7	23	STONE	1385	n/a	n/a	0	0	0
4806701	WORD	wordpools/wasnorm_wordpool_576.txt	LTP228	ltpFR2	7	23	KIDNEY	776	n/a	n/a	0	0	0
4809346	WORD	wordpools/wasnorm_wordpool_576.txt	LTP228	ltpFR2	7	23	CLOUD	328	n/a	n/a	0	0	0
4811992	WORD	wordpools/wasnorm_wordpool_576.txt	LTP228	ltpFR2	7	23	WIDOW	1608	n/a	n/a	0	0	0
4814789	WORD	wordpools/wasnorm_wordpool_576.txt	LTP228	ltpFR2	7	23	HONEY	713	n/a	n/a	0	0	0
4817552	WORD	wordpools/wasnorm_wordpool_576.txt	LTP228	ltpFR2	7	23	TEACHER	1440	n/a	n/a	0	0	0
4820097	WORD	wordpools/wasnorm_wordpool_576.txt	LTP228	ltpFR2	7	23	STAKE	1368	n/a	n/a	0	0	0
4822594	WORD	wordpools/wasnorm_wordpool_576.txt	LTP228	ltpFR2	7	23	GLOBE	641	n/a	n/a	0	0	0
4825140	WORD	wordpools/wasnorm_wordpool_576.txt	LTP228	ltpFR2	7	23	SPOON	1357	n/a	n/a	0	0	0
4827637	WORD	wordpools/wasnorm_wordpool_576.txt	LTP228	ltpFR2	7	23	SPHINX	1349	n/a	n/a	0	0	0
4830082	WORD	wordpools/wasnorm_wordpool_576.txt	LTP228	ltpFR2	7	23	HEADBAND	696	n/a	n/a	0	0	0
4832846	WORD	wordpools/wasnorm_wordpool_576.txt	LTP228	ltpFR2	7	23	RAZOR	1171	n/a	n/a	0	0	0
4835658	WORD	wordpools/wasnorm_wordpool_576.txt	LTP228	ltpFR2	7	23	DUSTPAN	509	n/a	n/a	0	0	0
4838237	WORD	wordpools/wasnorm_wordpool_576.txt	LTP228	ltpFR2	7	23	DONOR	485	n/a	n/a	0	0	0
4840834	WORD	wordpools/wasnorm_wordpool_576.txt	LTP228	ltpFR2	7	23	FRIAR	605	n/a	n/a	0	0	0
4843396	WORD	wordpools/wasnorm_wordpool_576.txt	LTP228	ltpFR2	7	23	DIVER	476	n/a	n/a	0	0	0
4846026	WORD	wordpools/wasnorm_wordpool_576.txt	LTP228	ltpFR2	7	23	LAGOON	795	n/a	n/a	0	0	0
4848573	WORD	wordpools/wasnorm_wordpool_576.txt	LTP228	ltpFR2	7	23	MUMMY	932	n/a	n/a	0	0	0
4851018	WORD	wordpools/wasnorm_wordpool_576.txt	LTP228	ltpFR2	7	23	CANYON	235	n/a	n/a	0	0	0
4852634	START	n/a	LTP228	ltpFR2	7	n/a	n/a	n/a	34	n/a	n/a	n/a	n/a
4853522	DISTRACTOR	n/a	LTP228	ltpFR2	7	23	n/a	n/a	n/a	n/a	0	0	0
4853532	PROB	n/a	LTP228	ltpFR2	7	n/a	n/a	n/a	34	20	8	5	7
4857543	PROB	n/a	LTP228	ltpFR2	7	n/a	n/a	n/a	34	23	8	9	6
4860321	PROB	n/a	LTP228	ltpFR2	7	n/a	n/a	n/a	34	11	5	2	4
4863684	PROB	n/a	LTP228	ltpFR2	7	n/a	n/a	n/a	34	12	1	8	3
4865548	PROB	n/a	LTP228	ltpFR2	7	n/a	n/a	n/a	34	15	4	7	4
4869958	PROB	n/a	LTP228	ltpFR2	7	n/a	n/a	n/a	34	17	5	7	5
4872453	PROB	n/a	LTP228	ltpFR2	7	n/a	n/a	n/a	34	22	9	5	8
4875551	STOP	n/a	LTP228	ltpFR2	7	n/a	n/a	n/a	34	n/a	n/a	n/a	n/a
4878563	REC_START	n/a	LTP228	ltpFR2	7	23	n/a	n/a	n/a	n/a	0	0	0
4880305	REC_WORD	wordpools/wasnorm_wordpool_576.txt	LTP228	ltpFR2	7	23	SLOPE	1328	n/a	n/a	0	0	0
4881495	REC_WORD	wordpools/wasnorm_wordpool_576.txt	LTP228	ltpFR2	7	23	AIRPORT	13	n/a	n/a	0	0	0
4882554	REC_WORD	wordpools/wasnorm_wordpool_576.txt	LTP228	ltpFR2	7	23	TROUT	1511	n/a	n/a	0	0	0
4883557	REC_WORD	wordpools/wasnorm_wordpool_576.txt	LTP228	ltpFR2	7	23	MARINE	869	n/a	n/a	0	0	0
4969228	DISTRACTOR	n/a	LTP228	ltpFR2	7	24	n/a	n/a	n/a	n/a	0	0	0
4969228	START	n/a	LTP228	ltpFR2	7	n/a	n/a	n/a	35	n/a	n/a	n/a	n/a
4969261	PROB	n/a	LTP228	ltpFR2	7	n/a	n/a	n/a	35	7	3	2	2
4971325	PROB	n/a	LTP228	ltpFR2	7	n/a	n/a	n/a	35	12	4	2	6
4973872	PROB	n/a	LTP228	ltpFR2	7	n/a	n/a	n/a	35	23	9	7	7
4976568	PROB	n/a	LTP228	ltpFR2	7	n/a	n/a	n/a	35	18	5	8	5
4979197	PROB	n/a	LTP228	ltpFR2	7	n/a	n/a	n/a	35	14	6	1	7
4981194	PROB	n/a	LTP228	ltpFR2	7	n/a	n/a	n/a	35	16	9	3	4
4983474	PROB	n/a	LTP228	ltpFR2	7	n/a	n/a	n/a	35	15	4	8	3
4985888	PROB	n/a	LTP228	ltpFR2	7	n/a	n/a	n/a	35	15	2	6	7
4988167	PROB	n/a	LTP228	ltpFR2	7	n/a	n/a	n/a	35	22	7	9	6
4993227	STOP	n/a	LTP228	ltpFR2	7	n/a	n/a	n/a	35	n/a	n/a	n/a	n/a
4994158	WORD	wordpools/wasnorm_wordpool_576.txt	LTP228	ltpFR2	7	24	PANTHER	1009	n/a	n/a	0	0	0
4996788	WORD	wordpools/wasnorm_wordpool_576.txt	LTP228	ltpFR2	7	24	QUARTER	1148	n/a	n/a	0	0	0
4999518	WORD	wordpools/wasnorm_wordpool_576.txt	LTP228	ltpFR2	7	24	SPOOL	1356	n/a	n/a	0	0	0
5002329	WORD	wordpools/wasnorm_wordpool_576.txt	LTP228	ltpFR2	7	24	YARN	1631	n/a	n/a	0	0	0
5004877	WORD	wordpools/wasnorm_wordpool_576.txt	LTP228	ltpFR2	7	24	VELVET	1555	n/a	n/a	0	0	0
5007523	WORD	wordpools/wasnorm_wordpool_576.txt	LTP228	ltpFR2	7	24	HORSE	719	n/a	n/a	0	0	0
5010168	WORD	wordpools/wasnorm_wordpool_576.txt	LTP228	ltpFR2	7	24	WORKER	1621	n/a	n/a	0	0	0
5012748	WORD	wordpools/wasnorm_wordpool_576.txt	LTP228	ltpFR2	7	24	IGLOO	734	n/a	n/a	0	0	0
5015227	WORD	wordpools/wasnorm_wordpool_576.txt	LTP228	ltpFR2	7	24	GAVEL	627	n/a	n/a	0	0	0
5017724	WORD	wordpools/wasnorm_wordpool_576.txt	LTP228	ltpFR2	7	24	COOK	372	n/a	n/a	0	0	0
5020353	WORD	wordpools/wasnorm_wordpool_576.txt	LTP228	ltpFR2	7	24	SHELTER	1282	n/a	n/a	0	0	0
5023016	WORD	wordpools/wasnorm_wordpool_576.txt	LTP228	ltpFR2	7	24	WAITRESS	1581	n/a	n/a	0	0	0
5025813	WORD	wordpools/wasnorm_wordpool_576.txt	LTP228	ltpFR2	7	24	SALMON	1227	n/a	n/a	0	0	0
5028558	WORD	wordpools/wasnorm_wordpool_576.txt	LTP228	ltpFR2	7	24	LEOPARD	812	n/a	n/a	0	0	0
5031204	WORD	wordpools/wasnorm_wordpool_576.txt	LTP228	ltpFR2	7	24	MAILBOX	857	n/a	n/a	0	0	0
5033851	WORD	wordpools/wasnorm_wordpool_576.txt	LTP228	ltpFR2	7	24	FOREHEAD	592	n/a	n/a	0	0	0
5036663	WORD	wordpools/wasnorm_wordpool_576.txt	LTP228	ltpFR2	7	24	PERMIT	1051	n/a	n/a	0	0	0
5039209	WORD	wordpools/wasnorm_wordpool_576.txt	LTP228	ltpFR2	7	24	COMPASS	358	n/a	n/a	0	0	0
5041739	WORD	wordpools/wasnorm_wordpool_576.txt	LTP228	ltpFR2	7	24	WHISKERS	1605	n/a	n/a	0	0	0
5044401	WORD	wordpools/wasnorm_wordpool_576.txt	LTP228	ltpFR2	7	24	RIFLE	1192	n/a	n/a	0	0	0
5046915	WORD	wordpools/wasnorm_wordpool_576.txt	LTP228	ltpFR2	7	24	GANGSTER	620	n/a	n/a	0	0	0
5049611	WORD	wordpools/wasnorm_wordpool_576.txt	LTP228	ltpFR2	7	24	VALLEY	1545	n/a	n/a	0	0	0
5052289	WORD	wordpools/wasnorm_wordpool_576.txt	LTP228	ltpFR2	7	24	BROOK	177	n/a	n/a	0	0	0
5054870	WORD	wordpools/wasnorm_wordpool_576.txt	LTP228	ltpFR2	7	24	ATOM	55	n/a	n/a	0	0	0
5056483	START	n/a	LTP228	ltpFR2	7	n/a	n/a	n/a	36	n/a	n/a	n/a	n/a
5057416	DISTRACTOR	n/a	LTP228	ltpFR2	7	24	n/a	n/a	n/a	n/a	0	0	0
5057432	PROB	n/a	LTP228	ltpFR2	7	n/a	n/a	n/a	36	13	2	9	2
5059680	PROB	n/a	LTP228	ltpFR2	7	n/a	n/a	n/a	36	25	9	8	8
5063857	PROB	n/a	LTP228	ltpFR2	7	n/a	n/a	n/a	36	11	7	1	3
5065687	PROB	n/a	LTP228	ltpFR2	7	n/a	n/a	n/a	36	11	4	4	3
5068583	PROB	n/a	LTP228	ltpFR2	7	n/a	n/a	n/a	36	11	4	4	3
5070263	PROB	n/a	LTP228	ltpFR2	7	n/a	n/a	n/a	36	24	6	9	9
5073676	PROB	n/a	LTP228	ltpFR2	7	n/a	n/a	n/a	36	24	8	8	8
5075489	PROB	n/a	LTP228	ltpFR2	7	n/a	n/a	n/a	36	16	4	8	4
5077469	PROB	n/a	LTP228	ltpFR2	7	n/a	n/a	n/a	36	19	2	9	8
5080139	STOP	n/a	LTP228	ltpFR2	7	n/a	n/a	n/a	36	n/a	n/a	n/a	n/a
5082396	REC_START	n/a	LTP228	ltpFR2	7	24	n/a	n/a	n/a	n/a	0	0	0
5083316	REC_WORD	wordpools/wasnorm_wordpool_576.txt	LTP228	ltpFR2	7	24	PANTHER	1009	n/a	n/a	0	0	0
5084288	REC_WORD	wordpools/wasnorm_wordpool_576.txt	LTP228	ltpFR2	7	24	WHISKERS	1605	n/a	n/a	0	0	0
5085428	REC_WORD	wordpools/wasnorm_wordpool_576.txt	LTP228	ltpFR2	7	24	SALMON	1227	n/a	n/a	0	0	0
5086730	REC_WORD	wordpools/wasnorm_wordpool_576.txt	LTP228	ltpFR2	7	24	RIFLE	1192	n/a	n/a	0	0	0
5088134	REC_WORD	wordpools/wasnorm_wordpool_576.txt	LTP228	ltpFR2	7	24	GANGSTER	620	n/a	n/a	0	0	0
5089325	REC_WORD	wordpools/wasnorm_wordpool_576.txt	LTP228	ltpFR2	7	24	COMPASS	358	n/a	n/a	0	0	0
5164709	SESS_END	n/a	LTP228	ltpFR2	7	24	n/a	n/a	n/a	n/a	0	0	0
