onset	duration	trial_type	sample	stim_file	subject	experiment	session	trial	task	item_name	item_num	recog_conf	resp	answer	test_x	test_y	test_z	color_b	color_g	color_r	case	font
233.242	n/a	SESS_START	116621	n/a	LTP197	ltpFR	11	n/a	n/a	n/a	n/a	n/a	n/a	n/a	0	0	0	n/a	n/a	n/a	n/a	n/a
259.486	n/a	START	129743	n/a	LTP197	ltpFR	11	n/a	n/a	n/a	n/a	n/a	n/a	n/a	n/a	n/a	n/a	n/a	n/a	n/a	n/a	n/a
259.536	n/a	PROB	129768	n/a	LTP197	ltpFR	11	n/a	n/a	n/a	n/a	n/a	n/a	18	7	7	4	n/a	n/a	n/a	n/a	n/a
261.32	n/a	PROB	130660	n/a	LTP197	ltpFR	11	n/a	n/a	n/a	n/a	n/a	n/a	10	3	3	4	n/a	n/a	n/a	n/a	n/a
262.876	n/a	PROB	131438	n/a	LTP197	ltpFR	11	n/a	n/a	n/a	n/a	n/a	n/a	16	2	9	5	n/a	n/a	n/a	n/a	n/a
265.034	n/a	PROB	132517	n/a	LTP197	ltpFR	11	n/a	n/a	n/a	n/a	n/a	n/a	20	6	7	7	n/a	n/a	n/a	n/a	n/a
266.908	n/a	PROB	133454	n/a	LTP197	ltpFR	11	n/a	n/a	n/a	n/a	n/a	n/a	16	6	8	2	n/a	n/a	n/a	n/a	n/a
268.548	n/a	PROB	134274	n/a	LTP197	ltpFR	11	n/a	n/a	n/a	n/a	n/a	n/a	17	7	9	1	n/a	n/a	n/a	n/a	n/a
270.06	n/a	PROB	135030	n/a	LTP197	ltpFR	11	n/a	n/a	n/a	n/a	n/a	n/a	19	9	9	1	n/a	n/a	n/a	n/a	n/a
271.794	n/a	PROB	135897	n/a	LTP197	ltpFR	11	n/a	n/a	n/a	n/a	n/a	n/a	26	9	9	8	n/a	n/a	n/a	n/a	n/a
274.376	n/a	PROB	137188	n/a	LTP197	ltpFR	11	n/a	n/a	n/a	n/a	n/a	n/a	16	3	8	5	n/a	n/a	n/a	n/a	n/a
276.434	n/a	PROB	138217	n/a	LTP197	ltpFR	11	n/a	n/a	n/a	n/a	n/a	n/a	15	8	4	3	n/a	n/a	n/a	n/a	n/a
279.488	n/a	STOP	139744	n/a	LTP197	ltpFR	11	n/a	n/a	n/a	n/a	n/a	n/a	n/a	n/a	n/a	n/a	n/a	n/a	n/a	n/a	n/a
306.026	n/a	START	153013	n/a	LTP197	ltpFR	11	n/a	n/a	n/a	n/a	n/a	n/a	n/a	n/a	n/a	n/a	n/a	n/a	n/a	n/a	n/a
307.536	n/a	PROB	153768	n/a	LTP197	ltpFR	11	n/a	n/a	n/a	n/a	n/a	n/a	18	5	4	9	n/a	n/a	n/a	n/a	n/a
309.622	n/a	PROB	154811	n/a	LTP197	ltpFR	11	n/a	n/a	n/a	n/a	n/a	n/a	16	9	3	4	n/a	n/a	n/a	n/a	n/a
311.344	n/a	PROB	155672	n/a	LTP197	ltpFR	11	n/a	n/a	n/a	n/a	n/a	n/a	23	8	9	7	n/a	n/a	n/a	n/a	n/a
313.66	n/a	STOP	156830	n/a	LTP197	ltpFR	11	n/a	n/a	n/a	n/a	n/a	n/a	n/a	n/a	n/a	n/a	n/a	n/a	n/a	n/a	n/a
315.108	n/a	WORD	157554	wordpools/wasnorm_wordpool_less_exclusions.txt	LTP197	ltpFR	11	1	0	DRESS	495	n/a	1	n/a	0	0	0	0	0.5869140625	0.422607421875	upper	../fonts/amplitud.ttf
318.122	n/a	START	159061	n/a	LTP197	ltpFR	11	n/a	n/a	n/a	n/a	n/a	n/a	n/a	n/a	n/a	n/a	n/a	n/a	n/a	n/a	n/a
319.232	n/a	PROB	159616	n/a	LTP197	ltpFR	11	n/a	n/a	n/a	n/a	n/a	n/a	14	4	6	4	n/a	n/a	n/a	n/a	n/a
320.804	n/a	PROB	160402	n/a	LTP197	ltpFR	11	n/a	n/a	n/a	n/a	n/a	n/a	19	8	9	2	n/a	n/a	n/a	n/a	n/a
322.52	n/a	PROB	161260	n/a	LTP197	ltpFR	11	n/a	n/a	n/a	n/a	n/a	n/a	16	7	3	6	n/a	n/a	n/a	n/a	n/a
323.882	n/a	PROB	161941	n/a	LTP197	ltpFR	11	n/a	n/a	n/a	n/a	n/a	n/a	25	8	8	9	n/a	n/a	n/a	n/a	n/a
325.606	n/a	STOP	162803	n/a	LTP197	ltpFR	11	n/a	n/a	n/a	n/a	n/a	n/a	n/a	n/a	n/a	n/a	n/a	n/a	n/a	n/a	n/a
327.34	n/a	WORD	163670	wordpools/wasnorm_wordpool_less_exclusions.txt	LTP197	ltpFR	11	1	0	SECRETARY	1265	n/a	1	n/a	0	0	0	0	0.5869140625	0.422607421875	upper	../fonts/amplitud.ttf
330.358	n/a	START	165179	n/a	LTP197	ltpFR	11	n/a	n/a	n/a	n/a	n/a	n/a	n/a	n/a	n/a	n/a	n/a	n/a	n/a	n/a	n/a
331.494	n/a	PROB	165747	n/a	LTP197	ltpFR	11	n/a	n/a	n/a	n/a	n/a	n/a	14	7	2	5	n/a	n/a	n/a	n/a	n/a
333.93	n/a	PROB	166965	n/a	LTP197	ltpFR	11	n/a	n/a	n/a	n/a	n/a	n/a	16	8	2	6	n/a	n/a	n/a	n/a	n/a
335.336	n/a	PROB	167668	n/a	LTP197	ltpFR	11	n/a	n/a	n/a	n/a	n/a	n/a	16	7	8	1	n/a	n/a	n/a	n/a	n/a
336.902	n/a	STOP	168451	n/a	LTP197	ltpFR	11	n/a	n/a	n/a	n/a	n/a	n/a	n/a	n/a	n/a	n/a	n/a	n/a	n/a	n/a	n/a
339.542	n/a	WORD	169771	wordpools/wasnorm_wordpool_less_exclusions.txt	LTP197	ltpFR	11	1	0	HERD	705	n/a	1	n/a	0	0	0	0	0.5869140625	0.422607421875	upper	../fonts/amplitud.ttf
342.554	n/a	START	171277	n/a	LTP197	ltpFR	11	n/a	n/a	n/a	n/a	n/a	n/a	n/a	n/a	n/a	n/a	n/a	n/a	n/a	n/a	n/a
343.374	n/a	PROB	171687	n/a	LTP197	ltpFR	11	n/a	n/a	n/a	n/a	n/a	n/a	18	5	9	4	n/a	n/a	n/a	n/a	n/a
345.13	n/a	PROB	172565	n/a	LTP197	ltpFR	11	n/a	n/a	n/a	n/a	n/a	n/a	19	9	1	9	n/a	n/a	n/a	n/a	n/a
346.478	n/a	PROB	173239	n/a	LTP197	ltpFR	11	n/a	n/a	n/a	n/a	n/a	n/a	7	3	1	3	n/a	n/a	n/a	n/a	n/a
348.594	n/a	PROB	174297	n/a	LTP197	ltpFR	11	n/a	n/a	n/a	n/a	n/a	n/a	153	3	3	7	n/a	n/a	n/a	n/a	n/a
350.368	n/a	STOP	175184	n/a	LTP197	ltpFR	11	n/a	n/a	n/a	n/a	n/a	n/a	n/a	n/a	n/a	n/a	n/a	n/a	n/a	n/a	n/a
351.704	n/a	WORD	175852	wordpools/wasnorm_wordpool_less_exclusions.txt	LTP197	ltpFR	11	1	0	ROOT	1210	n/a	0	n/a	0	0	0	0	0.5869140625	0.422607421875	upper	../fonts/amplitud.ttf
354.718	n/a	START	177359	n/a	LTP197	ltpFR	11	n/a	n/a	n/a	n/a	n/a	n/a	n/a	n/a	n/a	n/a	n/a	n/a	n/a	n/a	n/a
355.688	n/a	PROB	177844	n/a	LTP197	ltpFR	11	n/a	n/a	n/a	n/a	n/a	n/a	19	8	9	2	n/a	n/a	n/a	n/a	n/a
357.254	n/a	PROB	178627	n/a	LTP197	ltpFR	11	n/a	n/a	n/a	n/a	n/a	n/a	23	7	7	9	n/a	n/a	n/a	n/a	n/a
359.078	n/a	PROB	179539	n/a	LTP197	ltpFR	11	n/a	n/a	n/a	n/a	n/a	n/a	11	3	5	2	n/a	n/a	n/a	n/a	n/a
362.256	n/a	STOP	181128	n/a	LTP197	ltpFR	11	n/a	n/a	n/a	n/a	n/a	n/a	n/a	n/a	n/a	n/a	n/a	n/a	n/a	n/a	n/a
363.896	n/a	WORD	181948	wordpools/wasnorm_wordpool_less_exclusions.txt	LTP197	ltpFR	11	1	0	WHISTLE	1606	n/a	0	n/a	0	0	0	0	0.5869140625	0.422607421875	upper	../fonts/amplitud.ttf
366.908	n/a	START	183454	n/a	LTP197	ltpFR	11	n/a	n/a	n/a	n/a	n/a	n/a	n/a	n/a	n/a	n/a	n/a	n/a	n/a	n/a	n/a
367.81	n/a	PROB	183905	n/a	LTP197	ltpFR	11	n/a	n/a	n/a	n/a	n/a	n/a	16	6	3	7	n/a	n/a	n/a	n/a	n/a
369.4	n/a	PROB	184700	n/a	LTP197	ltpFR	11	n/a	n/a	n/a	n/a	n/a	n/a	9	3	5	1	n/a	n/a	n/a	n/a	n/a
370.944	n/a	PROB	185472	n/a	LTP197	ltpFR	11	n/a	n/a	n/a	n/a	n/a	n/a	8	3	2	3	n/a	n/a	n/a	n/a	n/a
372.55	n/a	PROB	186275	n/a	LTP197	ltpFR	11	n/a	n/a	n/a	n/a	n/a	n/a	14	2	9	3	n/a	n/a	n/a	n/a	n/a
374.546	n/a	STOP	187273	n/a	LTP197	ltpFR	11	n/a	n/a	n/a	n/a	n/a	n/a	n/a	n/a	n/a	n/a	n/a	n/a	n/a	n/a	n/a
375.942	n/a	WORD	187971	wordpools/wasnorm_wordpool_less_exclusions.txt	LTP197	ltpFR	11	1	0	PUCK	1138	n/a	0	n/a	0	0	0	0	0.5869140625	0.422607421875	upper	../fonts/amplitud.ttf
378.954	n/a	START	189477	n/a	LTP197	ltpFR	11	n/a	n/a	n/a	n/a	n/a	n/a	n/a	n/a	n/a	n/a	n/a	n/a	n/a	n/a	n/a
380.058	n/a	PROB	190029	n/a	LTP197	ltpFR	11	n/a	n/a	n/a	n/a	n/a	n/a	5	1	2	2	n/a	n/a	n/a	n/a	n/a
381.864	n/a	PROB	190932	n/a	LTP197	ltpFR	11	n/a	n/a	n/a	n/a	n/a	n/a	16	5	3	8	n/a	n/a	n/a	n/a	n/a
383.956	n/a	PROB	191978	n/a	LTP197	ltpFR	11	n/a	n/a	n/a	n/a	n/a	n/a	13	6	5	2	n/a	n/a	n/a	n/a	n/a
385.666	n/a	STOP	192833	n/a	LTP197	ltpFR	11	n/a	n/a	n/a	n/a	n/a	n/a	n/a	n/a	n/a	n/a	n/a	n/a	n/a	n/a	n/a
387.954	n/a	WORD	193977	wordpools/wasnorm_wordpool_less_exclusions.txt	LTP197	ltpFR	11	1	0	GLACIER	638	n/a	1	n/a	0	0	0	0	0.5869140625	0.422607421875	upper	../fonts/amplitud.ttf
390.966	n/a	START	195483	n/a	LTP197	ltpFR	11	n/a	n/a	n/a	n/a	n/a	n/a	n/a	n/a	n/a	n/a	n/a	n/a	n/a	n/a	n/a
391.908	n/a	PROB	195954	n/a	LTP197	ltpFR	11	n/a	n/a	n/a	n/a	n/a	n/a	12	2	6	4	n/a	n/a	n/a	n/a	n/a
393.844	n/a	PROB	196922	n/a	LTP197	ltpFR	11	n/a	n/a	n/a	n/a	n/a	n/a	24	7	7	8	n/a	n/a	n/a	n/a	n/a
397.038	n/a	PROB	198519	n/a	LTP197	ltpFR	11	n/a	n/a	n/a	n/a	n/a	n/a	23	4	9	9	n/a	n/a	n/a	n/a	n/a
398.786	n/a	STOP	199393	n/a	LTP197	ltpFR	11	n/a	n/a	n/a	n/a	n/a	n/a	n/a	n/a	n/a	n/a	n/a	n/a	n/a	n/a	n/a
399.806	n/a	WORD	199903	wordpools/wasnorm_wordpool_less_exclusions.txt	LTP197	ltpFR	11	1	0	CASHIER	254	n/a	1	n/a	0	0	0	0	0.5869140625	0.422607421875	upper	../fonts/amplitud.ttf
402.818	n/a	START	201409	n/a	LTP197	ltpFR	11	n/a	n/a	n/a	n/a	n/a	n/a	n/a	n/a	n/a	n/a	n/a	n/a	n/a	n/a	n/a
403.648	n/a	PROB	201824	n/a	LTP197	ltpFR	11	n/a	n/a	n/a	n/a	n/a	n/a	23	8	9	6	n/a	n/a	n/a	n/a	n/a
406.29	n/a	PROB	203145	n/a	LTP197	ltpFR	11	n/a	n/a	n/a	n/a	n/a	n/a	8	2	3	3	n/a	n/a	n/a	n/a	n/a
410.818	n/a	STOP	205409	n/a	LTP197	ltpFR	11	n/a	n/a	n/a	n/a	n/a	n/a	n/a	n/a	n/a	n/a	n/a	n/a	n/a	n/a	n/a
411.668	n/a	WORD	205834	wordpools/wasnorm_wordpool_less_exclusions.txt	LTP197	ltpFR	11	1	0	SALESMAN	1225	n/a	1	n/a	0	0	0	0	0.5869140625	0.422607421875	upper	../fonts/amplitud.ttf
414.68	n/a	START	207340	n/a	LTP197	ltpFR	11	n/a	n/a	n/a	n/a	n/a	n/a	n/a	n/a	n/a	n/a	n/a	n/a	n/a	n/a	n/a
415.732	n/a	PROB	207866	n/a	LTP197	ltpFR	11	n/a	n/a	n/a	n/a	n/a	n/a	16	5	3	8	n/a	n/a	n/a	n/a	n/a
417.69	n/a	PROB	208845	n/a	LTP197	ltpFR	11	n/a	n/a	n/a	n/a	n/a	n/a	8	4	2	2	n/a	n/a	n/a	n/a	n/a
419.398	n/a	PROB	209699	n/a	LTP197	ltpFR	11	n/a	n/a	n/a	n/a	n/a	n/a	22	3	9	9	n/a	n/a	n/a	n/a	n/a
421.74	n/a	STOP	210870	n/a	LTP197	ltpFR	11	n/a	n/a	n/a	n/a	n/a	n/a	n/a	n/a	n/a	n/a	n/a	n/a	n/a	n/a	n/a
423.646	n/a	WORD	211823	wordpools/wasnorm_wordpool_less_exclusions.txt	LTP197	ltpFR	11	1	0	PELT	1040	n/a	1	n/a	0	0	0	0	0.5869140625	0.422607421875	upper	../fonts/amplitud.ttf
426.658	n/a	START	213329	n/a	LTP197	ltpFR	11	n/a	n/a	n/a	n/a	n/a	n/a	n/a	n/a	n/a	n/a	n/a	n/a	n/a	n/a	n/a
427.628	n/a	PROB	213814	n/a	LTP197	ltpFR	11	n/a	n/a	n/a	n/a	n/a	n/a	9	1	4	4	n/a	n/a	n/a	n/a	n/a
429.278	n/a	PROB	214639	n/a	LTP197	ltpFR	11	n/a	n/a	n/a	n/a	n/a	n/a	14	3	5	6	n/a	n/a	n/a	n/a	n/a
431.604	n/a	PROB	215802	n/a	LTP197	ltpFR	11	n/a	n/a	n/a	n/a	n/a	n/a	16	7	4	5	n/a	n/a	n/a	n/a	n/a
433.116	n/a	STOP	216558	n/a	LTP197	ltpFR	11	n/a	n/a	n/a	n/a	n/a	n/a	n/a	n/a	n/a	n/a	n/a	n/a	n/a	n/a	n/a
435.692	n/a	WORD	217846	wordpools/wasnorm_wordpool_less_exclusions.txt	LTP197	ltpFR	11	1	0	BOXER	160	n/a	1	n/a	0	0	0	0	0.5869140625	0.422607421875	upper	../fonts/amplitud.ttf
438.704	n/a	START	219352	n/a	LTP197	ltpFR	11	n/a	n/a	n/a	n/a	n/a	n/a	n/a	n/a	n/a	n/a	n/a	n/a	n/a	n/a	n/a
439.608	n/a	PROB	219804	n/a	LTP197	ltpFR	11	n/a	n/a	n/a	n/a	n/a	n/a	20	8	5	7	n/a	n/a	n/a	n/a	n/a
441.9	n/a	PROB	220950	n/a	LTP197	ltpFR	11	n/a	n/a	n/a	n/a	n/a	n/a	12	3	5	4	n/a	n/a	n/a	n/a	n/a
446.704	n/a	STOP	223352	n/a	LTP197	ltpFR	11	n/a	n/a	n/a	n/a	n/a	n/a	n/a	n/a	n/a	n/a	n/a	n/a	n/a	n/a	n/a
447.588	n/a	WORD	223794	wordpools/wasnorm_wordpool_less_exclusions.txt	LTP197	ltpFR	11	1	0	OFFICE	972	n/a	1	n/a	0	0	0	0	0.5869140625	0.422607421875	upper	../fonts/amplitud.ttf
450.6	n/a	START	225300	n/a	LTP197	ltpFR	11	n/a	n/a	n/a	n/a	n/a	n/a	n/a	n/a	n/a	n/a	n/a	n/a	n/a	n/a	n/a
451.57	n/a	PROB	225785	n/a	LTP197	ltpFR	11	n/a	n/a	n/a	n/a	n/a	n/a	15	7	7	1	n/a	n/a	n/a	n/a	n/a
452.926	n/a	PROB	226463	n/a	LTP197	ltpFR	11	n/a	n/a	n/a	n/a	n/a	n/a	20	8	5	7	n/a	n/a	n/a	n/a	n/a
455.596	n/a	PROB	227798	n/a	LTP197	ltpFR	11	n/a	n/a	n/a	n/a	n/a	n/a	14	6	3	5	n/a	n/a	n/a	n/a	n/a
457.454	n/a	STOP	228727	n/a	LTP197	ltpFR	11	n/a	n/a	n/a	n/a	n/a	n/a	n/a	n/a	n/a	n/a	n/a	n/a	n/a	n/a	n/a
459.618	n/a	WORD	229809	wordpools/wasnorm_wordpool_less_exclusions.txt	LTP197	ltpFR	11	1	0	EXPLOSION	544	n/a	1	n/a	0	0	0	0	0.5869140625	0.422607421875	upper	../fonts/amplitud.ttf
462.63	n/a	START	231315	n/a	LTP197	ltpFR	11	n/a	n/a	n/a	n/a	n/a	n/a	n/a	n/a	n/a	n/a	n/a	n/a	n/a	n/a	n/a
463.548	n/a	PROB	231774	n/a	LTP197	ltpFR	11	n/a	n/a	n/a	n/a	n/a	n/a	17	6	9	2	n/a	n/a	n/a	n/a	n/a
466.32	n/a	PROB	233160	n/a	LTP197	ltpFR	11	n/a	n/a	n/a	n/a	n/a	n/a	16	8	1	7	n/a	n/a	n/a	n/a	n/a
467.882	n/a	PROB	233941	n/a	LTP197	ltpFR	11	n/a	n/a	n/a	n/a	n/a	n/a	7	1	4	2	n/a	n/a	n/a	n/a	n/a
469.566	n/a	STOP	234783	n/a	LTP197	ltpFR	11	n/a	n/a	n/a	n/a	n/a	n/a	n/a	n/a	n/a	n/a	n/a	n/a	n/a	n/a	n/a
471.514	n/a	WORD	235757	wordpools/wasnorm_wordpool_less_exclusions.txt	LTP197	ltpFR	11	1	0	CHAIN	273	n/a	0	n/a	0	0	0	0	0.5869140625	0.422607421875	upper	../fonts/amplitud.ttf
474.526	n/a	START	237263	n/a	LTP197	ltpFR	11	n/a	n/a	n/a	n/a	n/a	n/a	n/a	n/a	n/a	n/a	n/a	n/a	n/a	n/a	n/a
475.678	n/a	PROB	237839	n/a	LTP197	ltpFR	11	n/a	n/a	n/a	n/a	n/a	n/a	16	4	4	6	n/a	n/a	n/a	n/a	n/a
477.078	n/a	PROB	238539	n/a	LTP197	ltpFR	11	n/a	n/a	n/a	n/a	n/a	n/a	14	4	6	4	n/a	n/a	n/a	n/a	n/a
478.892	n/a	PROB	239446	n/a	LTP197	ltpFR	11	n/a	n/a	n/a	n/a	n/a	n/a	14	4	5	5	n/a	n/a	n/a	n/a	n/a
480.446	n/a	PROB	240223	n/a	LTP197	ltpFR	11	n/a	n/a	n/a	n/a	n/a	n/a	13	1	8	4	n/a	n/a	n/a	n/a	n/a
482.022	n/a	STOP	241011	n/a	LTP197	ltpFR	11	n/a	n/a	n/a	n/a	n/a	n/a	n/a	n/a	n/a	n/a	n/a	n/a	n/a	n/a	n/a
483.408	n/a	WORD	241704	wordpools/wasnorm_wordpool_less_exclusions.txt	LTP197	ltpFR	11	1	0	BEAD	103	n/a	0	n/a	0	0	0	0	0.5869140625	0.422607421875	upper	../fonts/amplitud.ttf
486.42	n/a	START	243210	n/a	LTP197	ltpFR	11	n/a	n/a	n/a	n/a	n/a	n/a	n/a	n/a	n/a	n/a	n/a	n/a	n/a	n/a	n/a
487.424	n/a	PROB	243712	n/a	LTP197	ltpFR	11	n/a	n/a	n/a	n/a	n/a	n/a	11	4	6	1	n/a	n/a	n/a	n/a	n/a
488.606	n/a	PROB	244303	n/a	LTP197	ltpFR	11	n/a	n/a	n/a	n/a	n/a	n/a	15	3	5	7	n/a	n/a	n/a	n/a	n/a
490.63	n/a	PROB	245315	n/a	LTP197	ltpFR	11	n/a	n/a	n/a	n/a	n/a	n/a	15	9	2	4	n/a	n/a	n/a	n/a	n/a
494.422	n/a	STOP	247211	n/a	LTP197	ltpFR	11	n/a	n/a	n/a	n/a	n/a	n/a	n/a	n/a	n/a	n/a	n/a	n/a	n/a	n/a	n/a
495.338	n/a	WORD	247669	wordpools/wasnorm_wordpool_less_exclusions.txt	LTP197	ltpFR	11	1	0	RADIATOR	1156	n/a	1	n/a	0	0	0	0	0.5869140625	0.422607421875	upper	../fonts/amplitud.ttf
498.348	n/a	START	249174	n/a	LTP197	ltpFR	11	n/a	n/a	n/a	n/a	n/a	n/a	n/a	n/a	n/a	n/a	n/a	n/a	n/a	n/a	n/a
499.386	n/a	PROB	249693	n/a	LTP197	ltpFR	11	n/a	n/a	n/a	n/a	n/a	n/a	15	2	6	7	n/a	n/a	n/a	n/a	n/a
501.638	n/a	PROB	250819	n/a	LTP197	ltpFR	11	n/a	n/a	n/a	n/a	n/a	n/a	25	7	9	9	n/a	n/a	n/a	n/a	n/a
504.572	n/a	PROB	252286	n/a	LTP197	ltpFR	11	n/a	n/a	n/a	n/a	n/a	n/a	15	7	1	6	n/a	n/a	n/a	n/a	n/a
506.248	n/a	STOP	253124	n/a	LTP197	ltpFR	11	n/a	n/a	n/a	n/a	n/a	n/a	n/a	n/a	n/a	n/a	n/a	n/a	n/a	n/a	n/a
508.156	n/a	REC_START	254078	n/a	LTP197	ltpFR	11	1	n/a	n/a	n/a	n/a	n/a	n/a	0	0	0	n/a	n/a	n/a	n/a	n/a
509.498	n/a	REC_WORD	254749	wordpools/wasnorm_wordpool_less_exclusions.txt	LTP197	ltpFR	11	1	0	RADIATOR	1156	n/a	1	n/a	0	0	0	n/a	n/a	n/a	n/a	n/a
510.476	n/a	REC_WORD	255238	wordpools/wasnorm_wordpool_less_exclusions.txt	LTP197	ltpFR	11	1	0	CHAIN	273	n/a	0	n/a	0	0	0	n/a	n/a	n/a	n/a	n/a
511.472	n/a	REC_WORD	255736	wordpools/wasnorm_wordpool_less_exclusions.txt	LTP197	ltpFR	11	1	0	BEAD	103	n/a	0	n/a	0	0	0	n/a	n/a	n/a	n/a	n/a
512.556	n/a	REC_WORD	256278	wordpools/wasnorm_wordpool_less_exclusions.txt	LTP197	ltpFR	11	1	0	GLACIER	638	n/a	1	n/a	0	0	0	n/a	n/a	n/a	n/a	n/a
513.572	n/a	REC_WORD	256786	wordpools/wasnorm_wordpool_less_exclusions.txt	LTP197	ltpFR	11	1	0	CASHIER	254	n/a	1	n/a	0	0	0	n/a	n/a	n/a	n/a	n/a
515.28	n/a	REC_WORD	257640	wordpools/wasnorm_wordpool_less_exclusions.txt	LTP197	ltpFR	11	1	0	OFFICE	972	n/a	1	n/a	0	0	0	n/a	n/a	n/a	n/a	n/a
517.684	n/a	REC_WORD	258842	wordpools/wasnorm_wordpool_less_exclusions.txt	LTP197	ltpFR	11	1	0	DRESS	495	n/a	1	n/a	0	0	0	n/a	n/a	n/a	n/a	n/a
518.482	n/a	REC_WORD	259241	wordpools/wasnorm_wordpool_less_exclusions.txt	LTP197	ltpFR	11	1	0	PELT	1040	n/a	1	n/a	0	0	0	n/a	n/a	n/a	n/a	n/a
519.768	n/a	REC_WORD	259884	wordpools/wasnorm_wordpool_less_exclusions.txt	LTP197	ltpFR	11	1	0	BOXER	160	n/a	1	n/a	0	0	0	n/a	n/a	n/a	n/a	n/a
521.002	n/a	REC_WORD	260501	wordpools/wasnorm_wordpool_less_exclusions.txt	LTP197	ltpFR	11	1	0	HERD	705	n/a	1	n/a	0	0	0	n/a	n/a	n/a	n/a	n/a
522.478	n/a	REC_WORD	261239	wordpools/wasnorm_wordpool_less_exclusions.txt	LTP197	ltpFR	11	1	0	ROOT	1210	n/a	0	n/a	0	0	0	n/a	n/a	n/a	n/a	n/a
523.29	n/a	REC_WORD	261645	wordpools/wasnorm_wordpool_less_exclusions.txt	LTP197	ltpFR	11	1	0	WHISTLE	1606	n/a	0	n/a	0	0	0	n/a	n/a	n/a	n/a	n/a
524.988	n/a	REC_WORD	262494	wordpools/wasnorm_wordpool_less_exclusions.txt	LTP197	ltpFR	11	1	n/a	WOMAN	1620	n/a	n/a	n/a	0	0	0	n/a	n/a	n/a	n/a	n/a
527.112	n/a	REC_WORD	263556	wordpools/wasnorm_wordpool_less_exclusions.txt	LTP197	ltpFR	11	1	0	SECRETARY	1265	n/a	1	n/a	0	0	0	n/a	n/a	n/a	n/a	n/a
587.116	n/a	WORD	293558	wordpools/wasnorm_wordpool_less_exclusions.txt	LTP197	ltpFR	11	2	1	BASKET	95	n/a	0	n/a	0	0	0	1	0.412841796875	0.57763671875	lower	../fonts/zerothre.ttf
591.238	n/a	WORD	295619	wordpools/wasnorm_wordpool_less_exclusions.txt	LTP197	ltpFR	11	2	1	PIE	1062	n/a	0	n/a	0	0	0	1	0.412841796875	0.57763671875	lower	../fonts/zerothre.ttf
595.102	n/a	WORD	297551	wordpools/wasnorm_wordpool_less_exclusions.txt	LTP197	ltpFR	11	2	1	SHRUB	1299	n/a	0	n/a	0	0	0	1	0.412841796875	0.57763671875	lower	../fonts/zerothre.ttf
599.034	n/a	WORD	299517	wordpools/wasnorm_wordpool_less_exclusions.txt	LTP197	ltpFR	11	2	1	PLAID	1080	n/a	0	n/a	0	0	0	1	0.412841796875	0.57763671875	lower	../fonts/zerothre.ttf
603.116	n/a	WORD	301558	wordpools/wasnorm_wordpool_less_exclusions.txt	LTP197	ltpFR	11	2	1	NOSE	957	n/a	1	n/a	0	0	0	1	0.412841796875	0.57763671875	lower	../fonts/zerothre.ttf
607.114	n/a	WORD	303557	wordpools/wasnorm_wordpool_less_exclusions.txt	LTP197	ltpFR	11	2	1	CONTRACTOR	369	n/a	1	n/a	0	0	0	1	0.412841796875	0.57763671875	lower	../fonts/zerothre.ttf
611.09	n/a	WORD	305545	wordpools/wasnorm_wordpool_less_exclusions.txt	LTP197	ltpFR	11	2	1	BUILDER	190	n/a	1	n/a	0	0	0	1	0.412841796875	0.57763671875	lower	../fonts/zerothre.ttf
615.128	n/a	WORD	307564	wordpools/wasnorm_wordpool_less_exclusions.txt	LTP197	ltpFR	11	2	1	RACK	1154	n/a	0	n/a	0	0	0	1	0.412841796875	0.57763671875	lower	../fonts/zerothre.ttf
619.06	n/a	WORD	309530	wordpools/wasnorm_wordpool_less_exclusions.txt	LTP197	ltpFR	11	2	1	ANIMAL	23	n/a	1	n/a	0	0	0	1	0.412841796875	0.57763671875	lower	../fonts/zerothre.ttf
623.086	n/a	WORD	311543	wordpools/wasnorm_wordpool_less_exclusions.txt	LTP197	ltpFR	11	2	1	COLOGNE	347	n/a	1	n/a	0	0	0	1	0.412841796875	0.57763671875	lower	../fonts/zerothre.ttf
627.274	n/a	WORD	313637	wordpools/wasnorm_wordpool_less_exclusions.txt	LTP197	ltpFR	11	2	1	CINNAMON	310	n/a	0	n/a	0	0	0	1	0.412841796875	0.57763671875	lower	../fonts/zerothre.ttf
631.234	n/a	WORD	315617	wordpools/wasnorm_wordpool_less_exclusions.txt	LTP197	ltpFR	11	2	1	SCREW	1254	n/a	0	n/a	0	0	0	1	0.412841796875	0.57763671875	lower	../fonts/zerothre.ttf
635.288	n/a	WORD	317644	wordpools/wasnorm_wordpool_less_exclusions.txt	LTP197	ltpFR	11	2	1	CARPENTER	246	n/a	1	n/a	0	0	0	1	0.412841796875	0.57763671875	lower	../fonts/zerothre.ttf
639.182	n/a	WORD	319591	wordpools/wasnorm_wordpool_less_exclusions.txt	LTP197	ltpFR	11	2	1	POOL	1103	n/a	0	n/a	0	0	0	1	0.412841796875	0.57763671875	lower	../fonts/zerothre.ttf
643.028	n/a	WORD	321514	wordpools/wasnorm_wordpool_less_exclusions.txt	LTP197	ltpFR	11	2	1	TRENCH	1503	n/a	0	n/a	0	0	0	1	0.412841796875	0.57763671875	lower	../fonts/zerothre.ttf
647.2	n/a	WORD	323600	wordpools/wasnorm_wordpool_less_exclusions.txt	LTP197	ltpFR	11	2	1	CREATURE	403	n/a	1	n/a	0	0	0	1	0.412841796875	0.57763671875	lower	../fonts/zerothre.ttf
650.212	n/a	START	325106	n/a	LTP197	ltpFR	11	n/a	n/a	n/a	n/a	n/a	n/a	n/a	n/a	n/a	n/a	n/a	n/a	n/a	n/a	n/a
651.26	n/a	PROB	325630	n/a	LTP197	ltpFR	11	n/a	n/a	n/a	n/a	n/a	n/a	20	6	8	6	n/a	n/a	n/a	n/a	n/a
653.686	n/a	PROB	326843	n/a	LTP197	ltpFR	11	n/a	n/a	n/a	n/a	n/a	n/a	19	3	8	8	n/a	n/a	n/a	n/a	n/a
656.028	n/a	PROB	328014	n/a	LTP197	ltpFR	11	n/a	n/a	n/a	n/a	n/a	n/a	12	2	3	7	n/a	n/a	n/a	n/a	n/a
657.712	n/a	STOP	328856	n/a	LTP197	ltpFR	11	n/a	n/a	n/a	n/a	n/a	n/a	n/a	n/a	n/a	n/a	n/a	n/a	n/a	n/a	n/a
660.028	n/a	REC_START	330014	n/a	LTP197	ltpFR	11	2	n/a	n/a	n/a	n/a	n/a	n/a	0	0	0	n/a	n/a	n/a	n/a	n/a
661.794	n/a	REC_WORD	330897	wordpools/wasnorm_wordpool_less_exclusions.txt	LTP197	ltpFR	11	2	1	TRENCH	1503	n/a	0	n/a	0	0	0	n/a	n/a	n/a	n/a	n/a
663.35	n/a	REC_WORD	331675	wordpools/wasnorm_wordpool_less_exclusions.txt	LTP197	ltpFR	11	2	1	POOL	1103	n/a	0	n/a	0	0	0	n/a	n/a	n/a	n/a	n/a
664.004	n/a	REC_WORD	332002	wordpools/wasnorm_wordpool_less_exclusions.txt	LTP197	ltpFR	11	2	1	CREATURE	403	n/a	1	n/a	0	0	0	n/a	n/a	n/a	n/a	n/a
664.842	n/a	REC_WORD	332421	wordpools/wasnorm_wordpool_less_exclusions.txt	LTP197	ltpFR	11	2	1	ANIMAL	23	n/a	1	n/a	0	0	0	n/a	n/a	n/a	n/a	n/a
666.408	n/a	REC_WORD	333204	wordpools/wasnorm_wordpool_less_exclusions.txt	LTP197	ltpFR	11	2	1	SHRUB	1299	n/a	0	n/a	0	0	0	n/a	n/a	n/a	n/a	n/a
667.646	n/a	REC_WORD	333823	wordpools/wasnorm_wordpool_less_exclusions.txt	LTP197	ltpFR	11	2	1	CONTRACTOR	369	n/a	1	n/a	0	0	0	n/a	n/a	n/a	n/a	n/a
668.564	n/a	REC_WORD	334282	wordpools/wasnorm_wordpool_less_exclusions.txt	LTP197	ltpFR	11	2	1	BUILDER	190	n/a	1	n/a	0	0	0	n/a	n/a	n/a	n/a	n/a
670.998	n/a	REC_WORD	335499	wordpools/wasnorm_wordpool_less_exclusions.txt	LTP197	ltpFR	11	2	1	CARPENTER	246	n/a	1	n/a	0	0	0	n/a	n/a	n/a	n/a	n/a
671.824	n/a	REC_WORD	335912	wordpools/wasnorm_wordpool_less_exclusions.txt	LTP197	ltpFR	11	2	1	SCREW	1254	n/a	0	n/a	0	0	0	n/a	n/a	n/a	n/a	n/a
672.844	n/a	REC_WORD	336422	wordpools/wasnorm_wordpool_less_exclusions.txt	LTP197	ltpFR	11	2	1	NOSE	957	n/a	1	n/a	0	0	0	n/a	n/a	n/a	n/a	n/a
674.958	n/a	REC_WORD	337479	wordpools/wasnorm_wordpool_less_exclusions.txt	LTP197	ltpFR	11	2	1	CINNAMON	310	n/a	0	n/a	0	0	0	n/a	n/a	n/a	n/a	n/a
675.872	n/a	REC_WORD	337936	wordpools/wasnorm_wordpool_less_exclusions.txt	LTP197	ltpFR	11	2	1	PIE	1062	n/a	0	n/a	0	0	0	n/a	n/a	n/a	n/a	n/a
676.572	n/a	REC_WORD	338286	wordpools/wasnorm_wordpool_less_exclusions.txt	LTP197	ltpFR	11	2	1	PLAID	1080	n/a	0	n/a	0	0	0	n/a	n/a	n/a	n/a	n/a
677.29	n/a	REC_WORD	338645	wordpools/wasnorm_wordpool_less_exclusions.txt	LTP197	ltpFR	11	2	1	BASKET	95	n/a	0	n/a	0	0	0	n/a	n/a	n/a	n/a	n/a
678.064	n/a	REC_WORD	339032	wordpools/wasnorm_wordpool_less_exclusions.txt	LTP197	ltpFR	11	2	1	RACK	1154	n/a	0	n/a	0	0	0	n/a	n/a	n/a	n/a	n/a
739.196	n/a	WORD	369598	wordpools/wasnorm_wordpool_less_exclusions.txt	LTP197	ltpFR	11	3	0	SCRIBBLE	1256	n/a	0	n/a	0	0	0	0	0.5869140625	0.422607421875	upper	../fonts/amplitud.ttf
743.1	n/a	WORD	371550	wordpools/wasnorm_wordpool_less_exclusions.txt	LTP197	ltpFR	11	3	0	VALLEY	1545	n/a	1	n/a	0	0	0	0	0.5869140625	0.422607421875	upper	../fonts/amplitud.ttf
746.982	n/a	WORD	373491	wordpools/wasnorm_wordpool_less_exclusions.txt	LTP197	ltpFR	11	3	0	BLUEPRINT	142	n/a	0	n/a	0	0	0	0	0.5869140625	0.422607421875	upper	../fonts/amplitud.ttf
750.94	n/a	WORD	375470	wordpools/wasnorm_wordpool_less_exclusions.txt	LTP197	ltpFR	11	3	0	CHEDDAR	286	n/a	0	n/a	0	0	0	0	0.5869140625	0.422607421875	upper	../fonts/amplitud.ttf
755.04	n/a	WORD	377520	wordpools/wasnorm_wordpool_less_exclusions.txt	LTP197	ltpFR	11	3	0	MAT	877	n/a	0	n/a	0	0	0	0	0.5869140625	0.422607421875	upper	../fonts/amplitud.ttf
759.096	n/a	WORD	379548	wordpools/wasnorm_wordpool_less_exclusions.txt	LTP197	ltpFR	11	3	0	BOWL	158	n/a	0	n/a	0	0	0	0	0.5869140625	0.422607421875	upper	../fonts/amplitud.ttf
763.254	n/a	WORD	381627	wordpools/wasnorm_wordpool_less_exclusions.txt	LTP197	ltpFR	11	3	0	CUCUMBER	421	n/a	0	n/a	0	0	0	0	0.5869140625	0.422607421875	upper	../fonts/amplitud.ttf
767.444	n/a	WORD	383722	wordpools/wasnorm_wordpool_less_exclusions.txt	LTP197	ltpFR	11	3	0	SHACK	1273	n/a	1	n/a	0	0	0	0	0.5869140625	0.422607421875	upper	../fonts/amplitud.ttf
771.654	n/a	WORD	385827	wordpools/wasnorm_wordpool_less_exclusions.txt	LTP197	ltpFR	11	3	0	KNOB	787	n/a	0	n/a	0	0	0	0	0.5869140625	0.422607421875	upper	../fonts/amplitud.ttf
775.708	n/a	WORD	387854	wordpools/wasnorm_wordpool_less_exclusions.txt	LTP197	ltpFR	11	3	0	BASEBALL	93	n/a	0	n/a	0	0	0	0	0.5869140625	0.422607421875	upper	../fonts/amplitud.ttf
779.724	n/a	WORD	389862	wordpools/wasnorm_wordpool_less_exclusions.txt	LTP197	ltpFR	11	3	0	CHICKEN	297	n/a	1	n/a	0	0	0	0	0.5869140625	0.422607421875	upper	../fonts/amplitud.ttf
783.616	n/a	WORD	391808	wordpools/wasnorm_wordpool_less_exclusions.txt	LTP197	ltpFR	11	3	0	COLESLAW	344	n/a	0	n/a	0	0	0	0	0.5869140625	0.422607421875	upper	../fonts/amplitud.ttf
787.682	n/a	WORD	393841	wordpools/wasnorm_wordpool_less_exclusions.txt	LTP197	ltpFR	11	3	0	ARTICLE	42	n/a	0	n/a	0	0	0	0	0.5869140625	0.422607421875	upper	../fonts/amplitud.ttf
791.72	n/a	WORD	395860	wordpools/wasnorm_wordpool_less_exclusions.txt	LTP197	ltpFR	11	3	0	OUTFIT	988	n/a	1	n/a	0	0	0	0	0.5869140625	0.422607421875	upper	../fonts/amplitud.ttf
795.818	n/a	WORD	397909	wordpools/wasnorm_wordpool_less_exclusions.txt	LTP197	ltpFR	11	3	0	LIBRARY	816	n/a	1	n/a	0	0	0	0	0.5869140625	0.422607421875	upper	../fonts/amplitud.ttf
799.978	n/a	WORD	399989	wordpools/wasnorm_wordpool_less_exclusions.txt	LTP197	ltpFR	11	3	0	ALMANAC	17	n/a	1	n/a	0	0	0	0	0.5869140625	0.422607421875	upper	../fonts/amplitud.ttf
802.99	n/a	START	401495	n/a	LTP197	ltpFR	11	n/a	n/a	n/a	n/a	n/a	n/a	n/a	n/a	n/a	n/a	n/a	n/a	n/a	n/a	n/a
804.05	n/a	PROB	402025	n/a	LTP197	ltpFR	11	n/a	n/a	n/a	n/a	n/a	n/a	9	1	5	3	n/a	n/a	n/a	n/a	n/a
806.224	n/a	PROB	403112	n/a	LTP197	ltpFR	11	n/a	n/a	n/a	n/a	n/a	n/a	14	2	5	7	n/a	n/a	n/a	n/a	n/a
808.684	n/a	PROB	404342	n/a	LTP197	ltpFR	11	n/a	n/a	n/a	n/a	n/a	n/a	15	4	5	6	n/a	n/a	n/a	n/a	n/a
810.72	n/a	PROB	405360	n/a	LTP197	ltpFR	11	n/a	n/a	n/a	n/a	n/a	n/a	21	9	5	7	n/a	n/a	n/a	n/a	n/a
812.56	n/a	PROB	406280	n/a	LTP197	ltpFR	11	n/a	n/a	n/a	n/a	n/a	n/a	10	2	4	4	n/a	n/a	n/a	n/a	n/a
814.406	n/a	PROB	407203	n/a	LTP197	ltpFR	11	n/a	n/a	n/a	n/a	n/a	n/a	9	3	5	1	n/a	n/a	n/a	n/a	n/a
816.012	n/a	PROB	408006	n/a	LTP197	ltpFR	11	n/a	n/a	n/a	n/a	n/a	n/a	20	8	5	7	n/a	n/a	n/a	n/a	n/a
817.808	n/a	STOP	408904	n/a	LTP197	ltpFR	11	n/a	n/a	n/a	n/a	n/a	n/a	n/a	n/a	n/a	n/a	n/a	n/a	n/a	n/a	n/a
820.814	n/a	REC_START	410407	n/a	LTP197	ltpFR	11	3	n/a	n/a	n/a	n/a	n/a	n/a	0	0	0	n/a	n/a	n/a	n/a	n/a
821.972	n/a	REC_WORD	410986	wordpools/wasnorm_wordpool_less_exclusions.txt	LTP197	ltpFR	11	3	0	ALMANAC	17	n/a	1	n/a	0	0	0	n/a	n/a	n/a	n/a	n/a
822.824	n/a	REC_WORD	411412	wordpools/wasnorm_wordpool_less_exclusions.txt	LTP197	ltpFR	11	3	0	LIBRARY	816	n/a	1	n/a	0	0	0	n/a	n/a	n/a	n/a	n/a
823.808	n/a	REC_WORD	411904	wordpools/wasnorm_wordpool_less_exclusions.txt	LTP197	ltpFR	11	3	0	ARTICLE	42	n/a	0	n/a	0	0	0	n/a	n/a	n/a	n/a	n/a
824.75	n/a	REC_WORD	412375	wordpools/wasnorm_wordpool_less_exclusions.txt	LTP197	ltpFR	11	3	0	SHACK	1273	n/a	1	n/a	0	0	0	n/a	n/a	n/a	n/a	n/a
826.746	n/a	REC_WORD	413373	wordpools/wasnorm_wordpool_less_exclusions.txt	LTP197	ltpFR	11	3	0	OUTFIT	988	n/a	1	n/a	0	0	0	n/a	n/a	n/a	n/a	n/a
828.932	n/a	REC_WORD	414466	wordpools/wasnorm_wordpool_less_exclusions.txt	LTP197	ltpFR	11	3	0	CHICKEN	297	n/a	1	n/a	0	0	0	n/a	n/a	n/a	n/a	n/a
829.646	n/a	REC_WORD	414823	wordpools/wasnorm_wordpool_less_exclusions.txt	LTP197	ltpFR	11	3	0	CUCUMBER	421	n/a	0	n/a	0	0	0	n/a	n/a	n/a	n/a	n/a
830.544	n/a	REC_WORD	415272	wordpools/wasnorm_wordpool_less_exclusions.txt	LTP197	ltpFR	11	3	0	CHEDDAR	286	n/a	0	n/a	0	0	0	n/a	n/a	n/a	n/a	n/a
832.194	n/a	REC_WORD	416097	wordpools/wasnorm_wordpool_less_exclusions.txt	LTP197	ltpFR	11	3	0	COLESLAW	344	n/a	0	n/a	0	0	0	n/a	n/a	n/a	n/a	n/a
833.118	n/a	REC_WORD	416559	wordpools/wasnorm_wordpool_less_exclusions.txt	LTP197	ltpFR	11	3	0	BOWL	158	n/a	0	n/a	0	0	0	n/a	n/a	n/a	n/a	n/a
835.716	n/a	REC_WORD	417858	wordpools/wasnorm_wordpool_less_exclusions.txt	LTP197	ltpFR	11	3	0	MAT	877	n/a	0	n/a	0	0	0	n/a	n/a	n/a	n/a	n/a
842.352	n/a	REC_WORD	421176	wordpools/wasnorm_wordpool_less_exclusions.txt	LTP197	ltpFR	11	3	0	BLUEPRINT	142	n/a	0	n/a	0	0	0	n/a	n/a	n/a	n/a	n/a
843.724	n/a	REC_WORD	421862	wordpools/wasnorm_wordpool_less_exclusions.txt	LTP197	ltpFR	11	3	0	SCRIBBLE	1256	n/a	0	n/a	0	0	0	n/a	n/a	n/a	n/a	n/a
846.502	n/a	REC_WORD	423251	wordpools/wasnorm_wordpool_less_exclusions.txt	LTP197	ltpFR	11	3	0	VALLEY	1545	n/a	1	n/a	0	0	0	n/a	n/a	n/a	n/a	n/a
897.892	n/a	START	448946	n/a	LTP197	ltpFR	11	n/a	n/a	n/a	n/a	n/a	n/a	n/a	n/a	n/a	n/a	n/a	n/a	n/a	n/a	n/a
899.408	n/a	PROB	449704	n/a	LTP197	ltpFR	11	n/a	n/a	n/a	n/a	n/a	n/a	10	6	2	2	n/a	n/a	n/a	n/a	n/a
901.182	n/a	PROB	450591	n/a	LTP197	ltpFR	11	n/a	n/a	n/a	n/a	n/a	n/a	21	7	7	7	n/a	n/a	n/a	n/a	n/a
902.56	n/a	PROB	451280	n/a	LTP197	ltpFR	11	n/a	n/a	n/a	n/a	n/a	n/a	20	8	6	6	n/a	n/a	n/a	n/a	n/a
904.228	n/a	PROB	452114	n/a	LTP197	ltpFR	11	n/a	n/a	n/a	n/a	n/a	n/a	8	3	3	2	n/a	n/a	n/a	n/a	n/a
906.04	n/a	PROB	453020	n/a	LTP197	ltpFR	11	n/a	n/a	n/a	n/a	n/a	n/a	17	7	3	7	n/a	n/a	n/a	n/a	n/a
907.53	n/a	PROB	453765	n/a	LTP197	ltpFR	11	n/a	n/a	n/a	n/a	n/a	n/a	8	6	1	1	n/a	n/a	n/a	n/a	n/a
909.314	n/a	PROB	454657	n/a	LTP197	ltpFR	11	n/a	n/a	n/a	n/a	n/a	n/a	17	5	7	5	n/a	n/a	n/a	n/a	n/a
913.892	n/a	STOP	456946	n/a	LTP197	ltpFR	11	n/a	n/a	n/a	n/a	n/a	n/a	n/a	n/a	n/a	n/a	n/a	n/a	n/a	n/a	n/a
915.092	n/a	WORD	457546	wordpools/wasnorm_wordpool_less_exclusions.txt	LTP197	ltpFR	11	4	1	POSSUM	1112	n/a	1	n/a	0	0	0	1	0.412841796875	0.57763671875	lower	../fonts/zerothre.ttf
918.104	n/a	START	459052	n/a	LTP197	ltpFR	11	n/a	n/a	n/a	n/a	n/a	n/a	n/a	n/a	n/a	n/a	n/a	n/a	n/a	n/a	n/a
919.25	n/a	PROB	459625	n/a	LTP197	ltpFR	11	n/a	n/a	n/a	n/a	n/a	n/a	18	6	7	5	n/a	n/a	n/a	n/a	n/a
921.09	n/a	PROB	460545	n/a	LTP197	ltpFR	11	n/a	n/a	n/a	n/a	n/a	n/a	21	3	9	9	n/a	n/a	n/a	n/a	n/a
922.798	n/a	PROB	461399	n/a	LTP197	ltpFR	11	n/a	n/a	n/a	n/a	n/a	n/a	21	9	9	2	n/a	n/a	n/a	n/a	n/a
924.454	n/a	PROB	462227	n/a	LTP197	ltpFR	11	n/a	n/a	n/a	n/a	n/a	n/a	19	3	8	8	n/a	n/a	n/a	n/a	n/a
926.83	n/a	PROB	463415	n/a	LTP197	ltpFR	11	n/a	n/a	n/a	n/a	n/a	n/a	17	4	6	7	n/a	n/a	n/a	n/a	n/a
928.236	n/a	PROB	464118	n/a	LTP197	ltpFR	11	n/a	n/a	n/a	n/a	n/a	n/a	7	8	7	2	n/a	n/a	n/a	n/a	n/a
930.634	n/a	PROB	465317	n/a	LTP197	ltpFR	11	n/a	n/a	n/a	n/a	n/a	n/a	14	6	7	1	n/a	n/a	n/a	n/a	n/a
932.718	n/a	STOP	466359	n/a	LTP197	ltpFR	11	n/a	n/a	n/a	n/a	n/a	n/a	n/a	n/a	n/a	n/a	n/a	n/a	n/a	n/a	n/a
935.134	n/a	WORD	467567	wordpools/wasnorm_wordpool_less_exclusions.txt	LTP197	ltpFR	11	4	1	WOLF	1619	n/a	1	n/a	0	0	0	1	0.412841796875	0.57763671875	lower	../fonts/zerothre.ttf
938.146	n/a	START	469073	n/a	LTP197	ltpFR	11	n/a	n/a	n/a	n/a	n/a	n/a	n/a	n/a	n/a	n/a	n/a	n/a	n/a	n/a	n/a
939.3	n/a	PROB	469650	n/a	LTP197	ltpFR	11	n/a	n/a	n/a	n/a	n/a	n/a	18	9	3	6	n/a	n/a	n/a	n/a	n/a
941.124	n/a	PROB	470562	n/a	LTP197	ltpFR	11	n/a	n/a	n/a	n/a	n/a	n/a	15	4	3	8	n/a	n/a	n/a	n/a	n/a
942.73	n/a	PROB	471365	n/a	LTP197	ltpFR	11	n/a	n/a	n/a	n/a	n/a	n/a	15	5	3	7	n/a	n/a	n/a	n/a	n/a
944.772	n/a	PROB	472386	n/a	LTP197	ltpFR	11	n/a	n/a	n/a	n/a	n/a	n/a	18	4	8	4	n/a	n/a	n/a	n/a	n/a
947.442	n/a	PROB	473721	n/a	LTP197	ltpFR	11	n/a	n/a	n/a	n/a	n/a	n/a	17	3	8	6	n/a	n/a	n/a	n/a	n/a
949.366	n/a	PROB	474683	n/a	LTP197	ltpFR	11	n/a	n/a	n/a	n/a	n/a	n/a	17	3	6	8	n/a	n/a	n/a	n/a	n/a
951.558	n/a	PROB	475779	n/a	LTP197	ltpFR	11	n/a	n/a	n/a	n/a	n/a	n/a	17	3	6	8	n/a	n/a	n/a	n/a	n/a
953.12	n/a	STOP	476560	n/a	LTP197	ltpFR	11	n/a	n/a	n/a	n/a	n/a	n/a	n/a	n/a	n/a	n/a	n/a	n/a	n/a	n/a	n/a
955.16	n/a	WORD	477580	wordpools/wasnorm_wordpool_less_exclusions.txt	LTP197	ltpFR	11	4	1	COUCH	386	n/a	0	n/a	0	0	0	1	0.412841796875	0.57763671875	lower	../fonts/zerothre.ttf
958.172	n/a	START	479086	n/a	LTP197	ltpFR	11	n/a	n/a	n/a	n/a	n/a	n/a	n/a	n/a	n/a	n/a	n/a	n/a	n/a	n/a	n/a
959.092	n/a	PROB	479546	n/a	LTP197	ltpFR	11	n/a	n/a	n/a	n/a	n/a	n/a	13	5	6	2	n/a	n/a	n/a	n/a	n/a
961.194	n/a	PROB	480597	n/a	LTP197	ltpFR	11	n/a	n/a	n/a	n/a	n/a	n/a	12	2	5	5	n/a	n/a	n/a	n/a	n/a
963.56	n/a	PROB	481780	n/a	LTP197	ltpFR	11	n/a	n/a	n/a	n/a	n/a	n/a	11	7	2	2	n/a	n/a	n/a	n/a	n/a
965.512	n/a	PROB	482756	n/a	LTP197	ltpFR	11	n/a	n/a	n/a	n/a	n/a	n/a	18	6	3	9	n/a	n/a	n/a	n/a	n/a
967.368	n/a	PROB	483684	n/a	LTP197	ltpFR	11	n/a	n/a	n/a	n/a	n/a	n/a	18	9	8	1	n/a	n/a	n/a	n/a	n/a
969.208	n/a	PROB	484604	n/a	LTP197	ltpFR	11	n/a	n/a	n/a	n/a	n/a	n/a	11	3	4	4	n/a	n/a	n/a	n/a	n/a
971.524	n/a	PROB	485762	n/a	LTP197	ltpFR	11	n/a	n/a	n/a	n/a	n/a	n/a	8	4	3	1	n/a	n/a	n/a	n/a	n/a
973.088	n/a	STOP	486544	n/a	LTP197	ltpFR	11	n/a	n/a	n/a	n/a	n/a	n/a	n/a	n/a	n/a	n/a	n/a	n/a	n/a	n/a	n/a
975.188	n/a	WORD	487594	wordpools/wasnorm_wordpool_less_exclusions.txt	LTP197	ltpFR	11	4	1	WATER	1594	n/a	0	n/a	0	0	0	1	0.412841796875	0.57763671875	lower	../fonts/zerothre.ttf
978.2	n/a	START	489100	n/a	LTP197	ltpFR	11	n/a	n/a	n/a	n/a	n/a	n/a	n/a	n/a	n/a	n/a	n/a	n/a	n/a	n/a	n/a
979.346	n/a	PROB	489673	n/a	LTP197	ltpFR	11	n/a	n/a	n/a	n/a	n/a	n/a	21	6	9	6	n/a	n/a	n/a	n/a	n/a
981.79	n/a	PROB	490895	n/a	LTP197	ltpFR	11	n/a	n/a	n/a	n/a	n/a	n/a	12	2	2	8	n/a	n/a	n/a	n/a	n/a
983.536	n/a	PROB	491768	n/a	LTP197	ltpFR	11	n/a	n/a	n/a	n/a	n/a	n/a	11	9	1	1	n/a	n/a	n/a	n/a	n/a
985.186	n/a	PROB	492593	n/a	LTP197	ltpFR	11	n/a	n/a	n/a	n/a	n/a	n/a	18	9	7	2	n/a	n/a	n/a	n/a	n/a
987.2	n/a	PROB	493600	n/a	LTP197	ltpFR	11	n/a	n/a	n/a	n/a	n/a	n/a	16	1	9	9	n/a	n/a	n/a	n/a	n/a
989.342	n/a	PROB	494671	n/a	LTP197	ltpFR	11	n/a	n/a	n/a	n/a	n/a	n/a	12	5	6	1	n/a	n/a	n/a	n/a	n/a
991.108	n/a	PROB	495554	n/a	LTP197	ltpFR	11	n/a	n/a	n/a	n/a	n/a	n/a	19	5	6	8	n/a	n/a	n/a	n/a	n/a
993.194	n/a	STOP	496597	n/a	LTP197	ltpFR	11	n/a	n/a	n/a	n/a	n/a	n/a	n/a	n/a	n/a	n/a	n/a	n/a	n/a	n/a	n/a
995.164	n/a	WORD	497582	wordpools/wasnorm_wordpool_less_exclusions.txt	LTP197	ltpFR	11	4	1	VAULT	1550	n/a	0	n/a	0	0	0	1	0.412841796875	0.57763671875	lower	../fonts/zerothre.ttf
998.176	n/a	START	499088	n/a	LTP197	ltpFR	11	n/a	n/a	n/a	n/a	n/a	n/a	n/a	n/a	n/a	n/a	n/a	n/a	n/a	n/a	n/a
999.162	n/a	PROB	499581	n/a	LTP197	ltpFR	11	n/a	n/a	n/a	n/a	n/a	n/a	15	5	3	7	n/a	n/a	n/a	n/a	n/a
1000.762	n/a	PROB	500381	n/a	LTP197	ltpFR	11	n/a	n/a	n/a	n/a	n/a	n/a	16	5	5	6	n/a	n/a	n/a	n/a	n/a
1002.376	n/a	PROB	501188	n/a	LTP197	ltpFR	11	n/a	n/a	n/a	n/a	n/a	n/a	15	2	7	6	n/a	n/a	n/a	n/a	n/a
1003.914	n/a	PROB	501957	n/a	LTP197	ltpFR	11	n/a	n/a	n/a	n/a	n/a	n/a	20	8	3	9	n/a	n/a	n/a	n/a	n/a
1006.674	n/a	PROB	503337	n/a	LTP197	ltpFR	11	n/a	n/a	n/a	n/a	n/a	n/a	20	8	9	3	n/a	n/a	n/a	n/a	n/a
1008.844	n/a	PROB	504422	n/a	LTP197	ltpFR	11	n/a	n/a	n/a	n/a	n/a	n/a	16	6	1	9	n/a	n/a	n/a	n/a	n/a
1011.626	n/a	PROB	505813	n/a	LTP197	ltpFR	11	n/a	n/a	n/a	n/a	n/a	n/a	15	8	2	5	n/a	n/a	n/a	n/a	n/a
1013.642	n/a	STOP	506821	n/a	LTP197	ltpFR	11	n/a	n/a	n/a	n/a	n/a	n/a	n/a	n/a	n/a	n/a	n/a	n/a	n/a	n/a	n/a
1015.034	n/a	WORD	507517	wordpools/wasnorm_wordpool_less_exclusions.txt	LTP197	ltpFR	11	4	1	BEAST	108	n/a	1	n/a	0	0	0	1	0.412841796875	0.57763671875	lower	../fonts/zerothre.ttf
1018.052	n/a	START	509026	n/a	LTP197	ltpFR	11	n/a	n/a	n/a	n/a	n/a	n/a	n/a	n/a	n/a	n/a	n/a	n/a	n/a	n/a	n/a
1019.156	n/a	PROB	509578	n/a	LTP197	ltpFR	11	n/a	n/a	n/a	n/a	n/a	n/a	15	4	3	8	n/a	n/a	n/a	n/a	n/a
1020.572	n/a	PROB	510286	n/a	LTP197	ltpFR	11	n/a	n/a	n/a	n/a	n/a	n/a	22	9	7	8	n/a	n/a	n/a	n/a	n/a
1022.986	n/a	PROB	511493	n/a	LTP197	ltpFR	11	n/a	n/a	n/a	n/a	n/a	n/a	13	4	2	7	n/a	n/a	n/a	n/a	n/a
1025.424	n/a	PROB	512712	n/a	LTP197	ltpFR	11	n/a	n/a	n/a	n/a	n/a	n/a	18	5	5	8	n/a	n/a	n/a	n/a	n/a
1026.928	n/a	PROB	513464	n/a	LTP197	ltpFR	11	n/a	n/a	n/a	n/a	n/a	n/a	26	9	9	8	n/a	n/a	n/a	n/a	n/a
1029.036	n/a	PROB	514518	n/a	LTP197	ltpFR	11	n/a	n/a	n/a	n/a	n/a	n/a	18	3	7	8	n/a	n/a	n/a	n/a	n/a
1030.816	n/a	PROB	515408	n/a	LTP197	ltpFR	11	n/a	n/a	n/a	n/a	n/a	n/a	19	8	2	9	n/a	n/a	n/a	n/a	n/a
1032.604	n/a	STOP	516302	n/a	LTP197	ltpFR	11	n/a	n/a	n/a	n/a	n/a	n/a	n/a	n/a	n/a	n/a	n/a	n/a	n/a	n/a	n/a
1035.26	n/a	WORD	517630	wordpools/wasnorm_wordpool_less_exclusions.txt	LTP197	ltpFR	11	4	1	VEHICLE	1553	n/a	0	n/a	0	0	0	1	0.412841796875	0.57763671875	lower	../fonts/zerothre.ttf
1038.274	n/a	START	519137	n/a	LTP197	ltpFR	11	n/a	n/a	n/a	n/a	n/a	n/a	n/a	n/a	n/a	n/a	n/a	n/a	n/a	n/a	n/a
1039.192	n/a	PROB	519596	n/a	LTP197	ltpFR	11	n/a	n/a	n/a	n/a	n/a	n/a	21	8	4	9	n/a	n/a	n/a	n/a	n/a
1041.318	n/a	PROB	520659	n/a	LTP197	ltpFR	11	n/a	n/a	n/a	n/a	n/a	n/a	5	2	2	1	n/a	n/a	n/a	n/a	n/a
1042.756	n/a	PROB	521378	n/a	LTP197	ltpFR	11	n/a	n/a	n/a	n/a	n/a	n/a	13	3	8	2	n/a	n/a	n/a	n/a	n/a
1044.748	n/a	PROB	522374	n/a	LTP197	ltpFR	11	n/a	n/a	n/a	n/a	n/a	n/a	21	7	7	7	n/a	n/a	n/a	n/a	n/a
1046.024	n/a	PROB	523012	n/a	LTP197	ltpFR	11	n/a	n/a	n/a	n/a	n/a	n/a	15	7	5	3	n/a	n/a	n/a	n/a	n/a
1048.334	n/a	PROB	524167	n/a	LTP197	ltpFR	11	n/a	n/a	n/a	n/a	n/a	n/a	13	6	5	2	n/a	n/a	n/a	n/a	n/a
1050.518	n/a	PROB	525259	n/a	LTP197	ltpFR	11	n/a	n/a	n/a	n/a	n/a	n/a	15	4	9	2	n/a	n/a	n/a	n/a	n/a
1052.36	n/a	PROB	526180	n/a	LTP197	ltpFR	11	n/a	n/a	n/a	n/a	n/a	n/a	14	9	2	3	n/a	n/a	n/a	n/a	n/a
1053.956	n/a	STOP	526978	n/a	LTP197	ltpFR	11	n/a	n/a	n/a	n/a	n/a	n/a	n/a	n/a	n/a	n/a	n/a	n/a	n/a	n/a	n/a
1055.21	n/a	WORD	527605	wordpools/wasnorm_wordpool_less_exclusions.txt	LTP197	ltpFR	11	4	1	HOOD	714	n/a	0	n/a	0	0	0	1	0.412841796875	0.57763671875	lower	../fonts/zerothre.ttf
1058.222	n/a	START	529111	n/a	LTP197	ltpFR	11	n/a	n/a	n/a	n/a	n/a	n/a	n/a	n/a	n/a	n/a	n/a	n/a	n/a	n/a	n/a
1059.37	n/a	PROB	529685	n/a	LTP197	ltpFR	11	n/a	n/a	n/a	n/a	n/a	n/a	16	4	8	4	n/a	n/a	n/a	n/a	n/a
1061.01	n/a	PROB	530505	n/a	LTP197	ltpFR	11	n/a	n/a	n/a	n/a	n/a	n/a	26	8	9	7	n/a	n/a	n/a	n/a	n/a
1064.272	n/a	PROB	532136	n/a	LTP197	ltpFR	11	n/a	n/a	n/a	n/a	n/a	n/a	14	6	4	4	n/a	n/a	n/a	n/a	n/a
1066.152	n/a	PROB	533076	n/a	LTP197	ltpFR	11	n/a	n/a	n/a	n/a	n/a	n/a	12	6	2	4	n/a	n/a	n/a	n/a	n/a
1068.102	n/a	PROB	534051	n/a	LTP197	ltpFR	11	n/a	n/a	n/a	n/a	n/a	n/a	14	5	4	5	n/a	n/a	n/a	n/a	n/a
1069.626	n/a	PROB	534813	n/a	LTP197	ltpFR	11	n/a	n/a	n/a	n/a	n/a	n/a	21	6	8	7	n/a	n/a	n/a	n/a	n/a
1072.302	n/a	PROB	536151	n/a	LTP197	ltpFR	11	n/a	n/a	n/a	n/a	n/a	n/a	18	7	3	8	n/a	n/a	n/a	n/a	n/a
1073.862	n/a	STOP	536931	n/a	LTP197	ltpFR	11	n/a	n/a	n/a	n/a	n/a	n/a	n/a	n/a	n/a	n/a	n/a	n/a	n/a	n/a	n/a
1075.22	n/a	WORD	537610	wordpools/wasnorm_wordpool_less_exclusions.txt	LTP197	ltpFR	11	4	1	SWAMP	1416	n/a	0	n/a	0	0	0	1	0.412841796875	0.57763671875	lower	../fonts/zerothre.ttf
1078.232	n/a	START	539116	n/a	LTP197	ltpFR	11	n/a	n/a	n/a	n/a	n/a	n/a	n/a	n/a	n/a	n/a	n/a	n/a	n/a	n/a	n/a
1079.43	n/a	PROB	539715	n/a	LTP197	ltpFR	11	n/a	n/a	n/a	n/a	n/a	n/a	19	7	7	5	n/a	n/a	n/a	n/a	n/a
1081.11	n/a	PROB	540555	n/a	LTP197	ltpFR	11	n/a	n/a	n/a	n/a	n/a	n/a	14	5	6	3	n/a	n/a	n/a	n/a	n/a
1082.664	n/a	PROB	541332	n/a	LTP197	ltpFR	11	n/a	n/a	n/a	n/a	n/a	n/a	12	2	7	3	n/a	n/a	n/a	n/a	n/a
1084.182	n/a	PROB	542091	n/a	LTP197	ltpFR	11	n/a	n/a	n/a	n/a	n/a	n/a	14	1	6	7	n/a	n/a	n/a	n/a	n/a
1085.72	n/a	PROB	542860	n/a	LTP197	ltpFR	11	n/a	n/a	n/a	n/a	n/a	n/a	16	7	1	8	n/a	n/a	n/a	n/a	n/a
1087.534	n/a	PROB	543767	n/a	LTP197	ltpFR	11	n/a	n/a	n/a	n/a	n/a	n/a	9	4	2	3	n/a	n/a	n/a	n/a	n/a
1089.05	n/a	PROB	544525	n/a	LTP197	ltpFR	11	n/a	n/a	n/a	n/a	n/a	n/a	24	9	7	8	n/a	n/a	n/a	n/a	n/a
1091.926	n/a	PROB	545963	n/a	LTP197	ltpFR	11	n/a	n/a	n/a	n/a	n/a	n/a	20	9	8	3	n/a	n/a	n/a	n/a	n/a
1093.648	n/a	STOP	546824	n/a	LTP197	ltpFR	11	n/a	n/a	n/a	n/a	n/a	n/a	n/a	n/a	n/a	n/a	n/a	n/a	n/a	n/a	n/a
1095.24	n/a	WORD	547620	wordpools/wasnorm_wordpool_less_exclusions.txt	LTP197	ltpFR	11	4	1	WARRIOR	1589	n/a	1	n/a	0	0	0	1	0.412841796875	0.57763671875	lower	../fonts/zerothre.ttf
1098.252	n/a	START	549126	n/a	LTP197	ltpFR	11	n/a	n/a	n/a	n/a	n/a	n/a	n/a	n/a	n/a	n/a	n/a	n/a	n/a	n/a	n/a
1099.34	n/a	PROB	549670	n/a	LTP197	ltpFR	11	n/a	n/a	n/a	n/a	n/a	n/a	10	1	2	7	n/a	n/a	n/a	n/a	n/a
1100.996	n/a	PROB	550498	n/a	LTP197	ltpFR	11	n/a	n/a	n/a	n/a	n/a	n/a	11	3	3	5	n/a	n/a	n/a	n/a	n/a
1102.434	n/a	PROB	551217	n/a	LTP197	ltpFR	11	n/a	n/a	n/a	n/a	n/a	n/a	15	6	7	2	n/a	n/a	n/a	n/a	n/a
1104.476	n/a	PROB	552238	n/a	LTP197	ltpFR	11	n/a	n/a	n/a	n/a	n/a	n/a	16	9	1	6	n/a	n/a	n/a	n/a	n/a
1106.238	n/a	PROB	553119	n/a	LTP197	ltpFR	11	n/a	n/a	n/a	n/a	n/a	n/a	17	6	7	4	n/a	n/a	n/a	n/a	n/a
1108.106	n/a	PROB	554053	n/a	LTP197	ltpFR	11	n/a	n/a	n/a	n/a	n/a	n/a	11	6	4	1	n/a	n/a	n/a	n/a	n/a
1109.594	n/a	PROB	554797	n/a	LTP197	ltpFR	11	n/a	n/a	n/a	n/a	n/a	n/a	8	3	1	4	n/a	n/a	n/a	n/a	n/a
1111.402	n/a	PROB	555701	n/a	LTP197	ltpFR	11	n/a	n/a	n/a	n/a	n/a	n/a	19	8	6	5	n/a	n/a	n/a	n/a	n/a
1112.976	n/a	STOP	556488	n/a	LTP197	ltpFR	11	n/a	n/a	n/a	n/a	n/a	n/a	n/a	n/a	n/a	n/a	n/a	n/a	n/a	n/a	n/a
1115.324	n/a	WORD	557662	wordpools/wasnorm_wordpool_less_exclusions.txt	LTP197	ltpFR	11	4	1	MISSILE	900	n/a	0	n/a	0	0	0	1	0.412841796875	0.57763671875	lower	../fonts/zerothre.ttf
1118.336	n/a	START	559168	n/a	LTP197	ltpFR	11	n/a	n/a	n/a	n/a	n/a	n/a	n/a	n/a	n/a	n/a	n/a	n/a	n/a	n/a	n/a
1119.338	n/a	PROB	559669	n/a	LTP197	ltpFR	11	n/a	n/a	n/a	n/a	n/a	n/a	18	9	4	5	n/a	n/a	n/a	n/a	n/a
1120.954	n/a	PROB	560477	n/a	LTP197	ltpFR	11	n/a	n/a	n/a	n/a	n/a	n/a	9	3	4	2	n/a	n/a	n/a	n/a	n/a
1123.364	n/a	PROB	561682	n/a	LTP197	ltpFR	11	n/a	n/a	n/a	n/a	n/a	n/a	20	8	5	7	n/a	n/a	n/a	n/a	n/a
1125.372	n/a	PROB	562686	n/a	LTP197	ltpFR	11	n/a	n/a	n/a	n/a	n/a	n/a	19	6	5	8	n/a	n/a	n/a	n/a	n/a
1126.76	n/a	PROB	563380	n/a	LTP197	ltpFR	11	n/a	n/a	n/a	n/a	n/a	n/a	19	6	8	5	n/a	n/a	n/a	n/a	n/a
1128.852	n/a	PROB	564426	n/a	LTP197	ltpFR	11	n/a	n/a	n/a	n/a	n/a	n/a	15	5	2	8	n/a	n/a	n/a	n/a	n/a
1130.514	n/a	PROB	565257	n/a	LTP197	ltpFR	11	n/a	n/a	n/a	n/a	n/a	n/a	11	5	1	5	n/a	n/a	n/a	n/a	n/a
1131.83	n/a	PROB	565915	n/a	LTP197	ltpFR	11	n/a	n/a	n/a	n/a	n/a	n/a	10	2	6	2	n/a	n/a	n/a	n/a	n/a
1133.442	n/a	STOP	566721	n/a	LTP197	ltpFR	11	n/a	n/a	n/a	n/a	n/a	n/a	n/a	n/a	n/a	n/a	n/a	n/a	n/a	n/a	n/a
1135.366	n/a	WORD	567683	wordpools/wasnorm_wordpool_less_exclusions.txt	LTP197	ltpFR	11	4	1	JUDGE	761	n/a	1	n/a	0	0	0	1	0.412841796875	0.57763671875	lower	../fonts/zerothre.ttf
1138.378	n/a	START	569189	n/a	LTP197	ltpFR	11	n/a	n/a	n/a	n/a	n/a	n/a	n/a	n/a	n/a	n/a	n/a	n/a	n/a	n/a	n/a
1139.258	n/a	PROB	569629	n/a	LTP197	ltpFR	11	n/a	n/a	n/a	n/a	n/a	n/a	15	4	2	9	n/a	n/a	n/a	n/a	n/a
1140.78	n/a	PROB	570390	n/a	LTP197	ltpFR	11	n/a	n/a	n/a	n/a	n/a	n/a	20	8	7	5	n/a	n/a	n/a	n/a	n/a
1144.412	n/a	PROB	572206	n/a	LTP197	ltpFR	11	n/a	n/a	n/a	n/a	n/a	n/a	18	6	7	4	n/a	n/a	n/a	n/a	n/a
1146.252	n/a	PROB	573126	n/a	LTP197	ltpFR	11	n/a	n/a	n/a	n/a	n/a	n/a	15	5	5	5	n/a	n/a	n/a	n/a	n/a
1147.64	n/a	PROB	573820	n/a	LTP197	ltpFR	11	n/a	n/a	n/a	n/a	n/a	n/a	15	8	4	3	n/a	n/a	n/a	n/a	n/a
1149.32	n/a	PROB	574660	n/a	LTP197	ltpFR	11	n/a	n/a	n/a	n/a	n/a	n/a	13	4	1	8	n/a	n/a	n/a	n/a	n/a
1151.572	n/a	PROB	575786	n/a	LTP197	ltpFR	11	n/a	n/a	n/a	n/a	n/a	n/a	9	6	1	2	n/a	n/a	n/a	n/a	n/a
1153.85	n/a	STOP	576925	n/a	LTP197	ltpFR	11	n/a	n/a	n/a	n/a	n/a	n/a	n/a	n/a	n/a	n/a	n/a	n/a	n/a	n/a	n/a
1155.276	n/a	WORD	577638	wordpools/wasnorm_wordpool_less_exclusions.txt	LTP197	ltpFR	11	4	1	TABLE	1426	n/a	0	n/a	0	0	0	1	0.412841796875	0.57763671875	lower	../fonts/zerothre.ttf
1158.288	n/a	START	579144	n/a	LTP197	ltpFR	11	n/a	n/a	n/a	n/a	n/a	n/a	n/a	n/a	n/a	n/a	n/a	n/a	n/a	n/a	n/a
1159.442	n/a	PROB	579721	n/a	LTP197	ltpFR	11	n/a	n/a	n/a	n/a	n/a	n/a	15	7	4	4	n/a	n/a	n/a	n/a	n/a
1161.41	n/a	PROB	580705	n/a	LTP197	ltpFR	11	n/a	n/a	n/a	n/a	n/a	n/a	17	6	8	3	n/a	n/a	n/a	n/a	n/a
1163.216	n/a	PROB	581608	n/a	LTP197	ltpFR	11	n/a	n/a	n/a	n/a	n/a	n/a	22	6	7	9	n/a	n/a	n/a	n/a	n/a
1165.224	n/a	PROB	582612	n/a	LTP197	ltpFR	11	n/a	n/a	n/a	n/a	n/a	n/a	18	5	9	4	n/a	n/a	n/a	n/a	n/a
1167.572	n/a	PROB	583786	n/a	LTP197	ltpFR	11	n/a	n/a	n/a	n/a	n/a	n/a	6	2	2	3	n/a	n/a	n/a	n/a	n/a
1170.094	n/a	PROB	585047	n/a	LTP197	ltpFR	11	n/a	n/a	n/a	n/a	n/a	n/a	13	2	3	8	n/a	n/a	n/a	n/a	n/a
1172.258	n/a	PROB	586129	n/a	LTP197	ltpFR	11	n/a	n/a	n/a	n/a	n/a	n/a	13	3	2	8	n/a	n/a	n/a	n/a	n/a
1173.908	n/a	STOP	586954	n/a	LTP197	ltpFR	11	n/a	n/a	n/a	n/a	n/a	n/a	n/a	n/a	n/a	n/a	n/a	n/a	n/a	n/a	n/a
1175.436	n/a	WORD	587718	wordpools/wasnorm_wordpool_less_exclusions.txt	LTP197	ltpFR	11	4	1	SEA	1259	n/a	0	n/a	0	0	0	1	0.412841796875	0.57763671875	lower	../fonts/zerothre.ttf
1178.448	n/a	START	589224	n/a	LTP197	ltpFR	11	n/a	n/a	n/a	n/a	n/a	n/a	n/a	n/a	n/a	n/a	n/a	n/a	n/a	n/a	n/a
1179.478	n/a	PROB	589739	n/a	LTP197	ltpFR	11	n/a	n/a	n/a	n/a	n/a	n/a	14	4	9	1	n/a	n/a	n/a	n/a	n/a
1181.592	n/a	PROB	590796	n/a	LTP197	ltpFR	11	n/a	n/a	n/a	n/a	n/a	n/a	16	2	7	7	n/a	n/a	n/a	n/a	n/a
1183.51	n/a	PROB	591755	n/a	LTP197	ltpFR	11	n/a	n/a	n/a	n/a	n/a	n/a	11	4	3	4	n/a	n/a	n/a	n/a	n/a
1185.266	n/a	PROB	592633	n/a	LTP197	ltpFR	11	n/a	n/a	n/a	n/a	n/a	n/a	13	9	3	1	n/a	n/a	n/a	n/a	n/a
1187.482	n/a	PROB	593741	n/a	LTP197	ltpFR	11	n/a	n/a	n/a	n/a	n/a	n/a	19	2	9	8	n/a	n/a	n/a	n/a	n/a
1189.886	n/a	PROB	594943	n/a	LTP197	ltpFR	11	n/a	n/a	n/a	n/a	n/a	n/a	19	8	3	8	n/a	n/a	n/a	n/a	n/a
1191.86	n/a	PROB	595930	n/a	LTP197	ltpFR	11	n/a	n/a	n/a	n/a	n/a	n/a	14	3	9	2	n/a	n/a	n/a	n/a	n/a
1193.692	n/a	STOP	596846	n/a	LTP197	ltpFR	11	n/a	n/a	n/a	n/a	n/a	n/a	n/a	n/a	n/a	n/a	n/a	n/a	n/a	n/a	n/a
1195.556	n/a	WORD	597778	wordpools/wasnorm_wordpool_less_exclusions.txt	LTP197	ltpFR	11	4	1	CASHEW	253	n/a	0	n/a	0	0	0	1	0.412841796875	0.57763671875	lower	../fonts/zerothre.ttf
1198.568	n/a	START	599284	n/a	LTP197	ltpFR	11	n/a	n/a	n/a	n/a	n/a	n/a	n/a	n/a	n/a	n/a	n/a	n/a	n/a	n/a	n/a
1199.41	n/a	PROB	599705	n/a	LTP197	ltpFR	11	n/a	n/a	n/a	n/a	n/a	n/a	19	8	8	3	n/a	n/a	n/a	n/a	n/a
1201.084	n/a	PROB	600542	n/a	LTP197	ltpFR	11	n/a	n/a	n/a	n/a	n/a	n/a	15	4	8	3	n/a	n/a	n/a	n/a	n/a
1202.918	n/a	PROB	601459	n/a	LTP197	ltpFR	11	n/a	n/a	n/a	n/a	n/a	n/a	23	8	7	7	n/a	n/a	n/a	n/a	n/a
1204.992	n/a	PROB	602496	n/a	LTP197	ltpFR	11	n/a	n/a	n/a	n/a	n/a	n/a	11	1	1	9	n/a	n/a	n/a	n/a	n/a
1206.738	n/a	PROB	603369	n/a	LTP197	ltpFR	11	n/a	n/a	n/a	n/a	n/a	n/a	19	5	8	6	n/a	n/a	n/a	n/a	n/a
1208.714	n/a	PROB	604357	n/a	LTP197	ltpFR	11	n/a	n/a	n/a	n/a	n/a	n/a	10	2	1	7	n/a	n/a	n/a	n/a	n/a
1210.764	n/a	PROB	605382	n/a	LTP197	ltpFR	11	n/a	n/a	n/a	n/a	n/a	n/a	1	9	1	9	n/a	n/a	n/a	n/a	n/a
1214.568	n/a	STOP	607284	n/a	LTP197	ltpFR	11	n/a	n/a	n/a	n/a	n/a	n/a	n/a	n/a	n/a	n/a	n/a	n/a	n/a	n/a	n/a
1215.438	n/a	WORD	607719	wordpools/wasnorm_wordpool_less_exclusions.txt	LTP197	ltpFR	11	4	1	PEANUT	1032	n/a	0	n/a	0	0	0	1	0.412841796875	0.57763671875	lower	../fonts/zerothre.ttf
1218.45	n/a	START	609225	n/a	LTP197	ltpFR	11	n/a	n/a	n/a	n/a	n/a	n/a	n/a	n/a	n/a	n/a	n/a	n/a	n/a	n/a	n/a
1219.654	n/a	PROB	609827	n/a	LTP197	ltpFR	11	n/a	n/a	n/a	n/a	n/a	n/a	11	6	3	2	n/a	n/a	n/a	n/a	n/a
1221.422	n/a	PROB	610711	n/a	LTP197	ltpFR	11	n/a	n/a	n/a	n/a	n/a	n/a	9	1	1	7	n/a	n/a	n/a	n/a	n/a
1222.76	n/a	PROB	611380	n/a	LTP197	ltpFR	11	n/a	n/a	n/a	n/a	n/a	n/a	16	7	6	3	n/a	n/a	n/a	n/a	n/a
1225.108	n/a	PROB	612554	n/a	LTP197	ltpFR	11	n/a	n/a	n/a	n/a	n/a	n/a	19	5	5	9	n/a	n/a	n/a	n/a	n/a
1226.566	n/a	PROB	613283	n/a	LTP197	ltpFR	11	n/a	n/a	n/a	n/a	n/a	n/a	14	6	2	6	n/a	n/a	n/a	n/a	n/a
1228.54	n/a	PROB	614270	n/a	LTP197	ltpFR	11	n/a	n/a	n/a	n/a	n/a	n/a	12	4	5	3	n/a	n/a	n/a	n/a	n/a
1230.73	n/a	PROB	615365	n/a	LTP197	ltpFR	11	n/a	n/a	n/a	n/a	n/a	n/a	11	3	4	4	n/a	n/a	n/a	n/a	n/a
1232.42	n/a	PROB	616210	n/a	LTP197	ltpFR	11	n/a	n/a	n/a	n/a	n/a	n/a	19	4	6	8	n/a	n/a	n/a	n/a	n/a
1234.238	n/a	STOP	617119	n/a	LTP197	ltpFR	11	n/a	n/a	n/a	n/a	n/a	n/a	n/a	n/a	n/a	n/a	n/a	n/a	n/a	n/a	n/a
1236.32	n/a	REC_START	618160	n/a	LTP197	ltpFR	11	4	n/a	n/a	n/a	n/a	n/a	n/a	0	0	0	n/a	n/a	n/a	n/a	n/a
1238.04	n/a	REC_WORD	619020	wordpools/wasnorm_wordpool_less_exclusions.txt	LTP197	ltpFR	11	4	1	PEANUT	1032	n/a	0	n/a	0	0	0	n/a	n/a	n/a	n/a	n/a
1238.924	n/a	REC_WORD	619462	wordpools/wasnorm_wordpool_less_exclusions.txt	LTP197	ltpFR	11	4	1	CASHEW	253	n/a	0	n/a	0	0	0	n/a	n/a	n/a	n/a	n/a
1240.51	n/a	REC_WORD	620255	wordpools/wasnorm_wordpool_less_exclusions.txt	LTP197	ltpFR	11	4	1	JUDGE	761	n/a	1	n/a	0	0	0	n/a	n/a	n/a	n/a	n/a
1241.388	n/a	REC_WORD	620694	wordpools/wasnorm_wordpool_less_exclusions.txt	LTP197	ltpFR	11	4	1	TABLE	1426	n/a	0	n/a	0	0	0	n/a	n/a	n/a	n/a	n/a
1242.2	n/a	REC_WORD	621100	wordpools/wasnorm_wordpool_less_exclusions.txt	LTP197	ltpFR	11	4	1	SEA	1259	n/a	0	n/a	0	0	0	n/a	n/a	n/a	n/a	n/a
1243.792	n/a	REC_WORD	621896	wordpools/wasnorm_wordpool_less_exclusions.txt	LTP197	ltpFR	11	4	1	WARRIOR	1589	n/a	1	n/a	0	0	0	n/a	n/a	n/a	n/a	n/a
1244.906	n/a	REC_WORD	622453	wordpools/wasnorm_wordpool_less_exclusions.txt	LTP197	ltpFR	11	4	1	MISSILE	900	n/a	0	n/a	0	0	0	n/a	n/a	n/a	n/a	n/a
1249.684	n/a	REC_WORD	624842	wordpools/wasnorm_wordpool_less_exclusions.txt	LTP197	ltpFR	11	4	1	VAULT	1550	n/a	0	n/a	0	0	0	n/a	n/a	n/a	n/a	n/a
1250.628	n/a	REC_WORD	625314	wordpools/wasnorm_wordpool_less_exclusions.txt	LTP197	ltpFR	11	4	1	WATER	1594	n/a	0	n/a	0	0	0	n/a	n/a	n/a	n/a	n/a
1252.06	n/a	REC_WORD	626030	wordpools/wasnorm_wordpool_less_exclusions.txt	LTP197	ltpFR	11	4	1	COUCH	386	n/a	0	n/a	0	0	0	n/a	n/a	n/a	n/a	n/a
1255.986	n/a	REC_WORD	627993	wordpools/wasnorm_wordpool_less_exclusions.txt	LTP197	ltpFR	11	4	1	CREATURE	403	n/a	1	n/a	0	0	0	n/a	n/a	n/a	n/a	n/a
1257.626	n/a	REC_WORD	628813	wordpools/wasnorm_wordpool_less_exclusions.txt	LTP197	ltpFR	11	4	1	POSSUM	1112	n/a	1	n/a	0	0	0	n/a	n/a	n/a	n/a	n/a
1258.968	n/a	REC_WORD	629484	wordpools/wasnorm_wordpool_less_exclusions.txt	LTP197	ltpFR	11	4	1	WOLF	1619	n/a	1	n/a	0	0	0	n/a	n/a	n/a	n/a	n/a
1318.65	n/a	START	659325	n/a	LTP197	ltpFR	11	n/a	n/a	n/a	n/a	n/a	n/a	n/a	n/a	n/a	n/a	n/a	n/a	n/a	n/a	n/a
1320.166	n/a	PROB	660083	n/a	LTP197	ltpFR	11	n/a	n/a	n/a	n/a	n/a	n/a	18	9	6	3	n/a	n/a	n/a	n/a	n/a
1323.162	n/a	PROB	661581	n/a	LTP197	ltpFR	11	n/a	n/a	n/a	n/a	n/a	n/a	11	2	8	1	n/a	n/a	n/a	n/a	n/a
1324.69	n/a	PROB	662345	n/a	LTP197	ltpFR	11	n/a	n/a	n/a	n/a	n/a	n/a	18	8	3	7	n/a	n/a	n/a	n/a	n/a
1325.972	n/a	STOP	662986	n/a	LTP197	ltpFR	11	n/a	n/a	n/a	n/a	n/a	n/a	n/a	n/a	n/a	n/a	n/a	n/a	n/a	n/a	n/a
1327.784	n/a	WORD	663892	wordpools/wasnorm_wordpool_less_exclusions.txt	LTP197	ltpFR	11	5	0	LAKE	796	n/a	1	n/a	0	0	0	0	0.5869140625	0.422607421875	upper	../fonts/amplitud.ttf
1330.796	n/a	START	665398	n/a	LTP197	ltpFR	11	n/a	n/a	n/a	n/a	n/a	n/a	n/a	n/a	n/a	n/a	n/a	n/a	n/a	n/a	n/a
1331.944	n/a	PROB	665972	n/a	LTP197	ltpFR	11	n/a	n/a	n/a	n/a	n/a	n/a	20	6	6	8	n/a	n/a	n/a	n/a	n/a
1334.254	n/a	PROB	667127	n/a	LTP197	ltpFR	11	n/a	n/a	n/a	n/a	n/a	n/a	13	4	1	8	n/a	n/a	n/a	n/a	n/a
1336.768	n/a	PROB	668384	n/a	LTP197	ltpFR	11	n/a	n/a	n/a	n/a	n/a	n/a	11	6	1	4	n/a	n/a	n/a	n/a	n/a
1338.164	n/a	STOP	669082	n/a	LTP197	ltpFR	11	n/a	n/a	n/a	n/a	n/a	n/a	n/a	n/a	n/a	n/a	n/a	n/a	n/a	n/a	n/a
1339.714	n/a	WORD	669857	wordpools/wasnorm_wordpool_less_exclusions.txt	LTP197	ltpFR	11	5	0	EMPLOYEE	531	n/a	1	n/a	0	0	0	0	0.5869140625	0.422607421875	upper	../fonts/amplitud.ttf
1342.726	n/a	START	671363	n/a	LTP197	ltpFR	11	n/a	n/a	n/a	n/a	n/a	n/a	n/a	n/a	n/a	n/a	n/a	n/a	n/a	n/a	n/a
1343.806	n/a	PROB	671903	n/a	LTP197	ltpFR	11	n/a	n/a	n/a	n/a	n/a	n/a	14	6	4	5	n/a	n/a	n/a	n/a	n/a
1345.898	n/a	PROB	672949	n/a	LTP197	ltpFR	11	n/a	n/a	n/a	n/a	n/a	n/a	13	9	2	2	n/a	n/a	n/a	n/a	n/a
1348.006	n/a	PROB	674003	n/a	LTP197	ltpFR	11	n/a	n/a	n/a	n/a	n/a	n/a	14	5	8	1	n/a	n/a	n/a	n/a	n/a
1349.564	n/a	STOP	674782	n/a	LTP197	ltpFR	11	n/a	n/a	n/a	n/a	n/a	n/a	n/a	n/a	n/a	n/a	n/a	n/a	n/a	n/a	n/a
1351.704	n/a	WORD	675852	wordpools/wasnorm_wordpool_less_exclusions.txt	LTP197	ltpFR	11	5	0	OUTDOORS	987	n/a	1	n/a	0	0	0	0	0.5869140625	0.422607421875	upper	../fonts/amplitud.ttf
1354.722	n/a	START	677361	n/a	LTP197	ltpFR	11	n/a	n/a	n/a	n/a	n/a	n/a	n/a	n/a	n/a	n/a	n/a	n/a	n/a	n/a	n/a
1355.64	n/a	PROB	677820	n/a	LTP197	ltpFR	11	n/a	n/a	n/a	n/a	n/a	n/a	12	6	3	3	n/a	n/a	n/a	n/a	n/a
1357.308	n/a	PROB	678654	n/a	LTP197	ltpFR	11	n/a	n/a	n/a	n/a	n/a	n/a	12	1	8	3	n/a	n/a	n/a	n/a	n/a
1359.272	n/a	PROB	679636	n/a	LTP197	ltpFR	11	n/a	n/a	n/a	n/a	n/a	n/a	7	4	2	1	n/a	n/a	n/a	n/a	n/a
1362.71	n/a	STOP	681355	n/a	LTP197	ltpFR	11	n/a	n/a	n/a	n/a	n/a	n/a	n/a	n/a	n/a	n/a	n/a	n/a	n/a	n/a	n/a
1363.572	n/a	WORD	681786	wordpools/wasnorm_wordpool_less_exclusions.txt	LTP197	ltpFR	11	5	1	HANDKERCHIEF	686	n/a	0	n/a	0	0	0	1	0.412841796875	0.57763671875	lower	../fonts/zerothre.ttf
1366.584	n/a	START	683292	n/a	LTP197	ltpFR	11	n/a	n/a	n/a	n/a	n/a	n/a	n/a	n/a	n/a	n/a	n/a	n/a	n/a	n/a	n/a
1367.42	n/a	PROB	683710	n/a	LTP197	ltpFR	11	n/a	n/a	n/a	n/a	n/a	n/a	14	2	6	6	n/a	n/a	n/a	n/a	n/a
1369.354	n/a	PROB	684677	n/a	LTP197	ltpFR	11	n/a	n/a	n/a	n/a	n/a	n/a	17	9	5	3	n/a	n/a	n/a	n/a	n/a
1371.212	n/a	PROB	685606	n/a	LTP197	ltpFR	11	n/a	n/a	n/a	n/a	n/a	n/a	14	5	6	3	n/a	n/a	n/a	n/a	n/a
1372.868	n/a	PROB	686434	n/a	LTP197	ltpFR	11	n/a	n/a	n/a	n/a	n/a	n/a	15	3	8	4	n/a	n/a	n/a	n/a	n/a
1374.51	n/a	STOP	687255	n/a	LTP197	ltpFR	11	n/a	n/a	n/a	n/a	n/a	n/a	n/a	n/a	n/a	n/a	n/a	n/a	n/a	n/a	n/a
1375.784	n/a	WORD	687892	wordpools/wasnorm_wordpool_less_exclusions.txt	LTP197	ltpFR	11	5	1	MOUTH	926	n/a	1	n/a	0	0	0	1	0.412841796875	0.57763671875	lower	../fonts/zerothre.ttf
1378.808	n/a	START	689404	n/a	LTP197	ltpFR	11	n/a	n/a	n/a	n/a	n/a	n/a	n/a	n/a	n/a	n/a	n/a	n/a	n/a	n/a	n/a
1379.782	n/a	PROB	689891	n/a	LTP197	ltpFR	11	n/a	n/a	n/a	n/a	n/a	n/a	15	6	1	9	n/a	n/a	n/a	n/a	n/a
1381.784	n/a	PROB	690892	n/a	LTP197	ltpFR	11	n/a	n/a	n/a	n/a	n/a	n/a	14	9	4	1	n/a	n/a	n/a	n/a	n/a
1383.742	n/a	PROB	691871	n/a	LTP197	ltpFR	11	n/a	n/a	n/a	n/a	n/a	n/a	15	3	8	4	n/a	n/a	n/a	n/a	n/a
1385.958	n/a	STOP	692979	n/a	LTP197	ltpFR	11	n/a	n/a	n/a	n/a	n/a	n/a	n/a	n/a	n/a	n/a	n/a	n/a	n/a	n/a	n/a
1387.792	n/a	WORD	693896	wordpools/wasnorm_wordpool_less_exclusions.txt	LTP197	ltpFR	11	5	1	GRASSHOPPER	656	n/a	1	n/a	0	0	0	1	0.412841796875	0.57763671875	lower	../fonts/zerothre.ttf
1390.81	n/a	START	695405	n/a	LTP197	ltpFR	11	n/a	n/a	n/a	n/a	n/a	n/a	n/a	n/a	n/a	n/a	n/a	n/a	n/a	n/a	n/a
1391.672	n/a	PROB	695836	n/a	LTP197	ltpFR	11	n/a	n/a	n/a	n/a	n/a	n/a	13	4	3	6	n/a	n/a	n/a	n/a	n/a
1393.714	n/a	PROB	696857	n/a	LTP197	ltpFR	11	n/a	n/a	n/a	n/a	n/a	n/a	14	3	6	5	n/a	n/a	n/a	n/a	n/a
1395.454	n/a	PROB	697727	n/a	LTP197	ltpFR	11	n/a	n/a	n/a	n/a	n/a	n/a	8	4	2	2	n/a	n/a	n/a	n/a	n/a
1398.81	n/a	STOP	699405	n/a	LTP197	ltpFR	11	n/a	n/a	n/a	n/a	n/a	n/a	n/a	n/a	n/a	n/a	n/a	n/a	n/a	n/a	n/a
1399.938	n/a	WORD	699969	wordpools/wasnorm_wordpool_less_exclusions.txt	LTP197	ltpFR	11	5	1	DISC	473	n/a	0	n/a	0	0	0	1	0.412841796875	0.57763671875	lower	../fonts/zerothre.ttf
1402.95	n/a	START	701475	n/a	LTP197	ltpFR	11	n/a	n/a	n/a	n/a	n/a	n/a	n/a	n/a	n/a	n/a	n/a	n/a	n/a	n/a	n/a
1404.138	n/a	PROB	702069	n/a	LTP197	ltpFR	11	n/a	n/a	n/a	n/a	n/a	n/a	7	3	3	1	n/a	n/a	n/a	n/a	n/a
1405.732	n/a	PROB	702866	n/a	LTP197	ltpFR	11	n/a	n/a	n/a	n/a	n/a	n/a	15	5	1	9	n/a	n/a	n/a	n/a	n/a
1407.69	n/a	PROB	703845	n/a	LTP197	ltpFR	11	n/a	n/a	n/a	n/a	n/a	n/a	17	4	9	4	n/a	n/a	n/a	n/a	n/a
1409.872	n/a	STOP	704936	n/a	LTP197	ltpFR	11	n/a	n/a	n/a	n/a	n/a	n/a	n/a	n/a	n/a	n/a	n/a	n/a	n/a	n/a	n/a
1411.99	n/a	WORD	705995	wordpools/wasnorm_wordpool_less_exclusions.txt	LTP197	ltpFR	11	5	0	COB	334	n/a	0	n/a	0	0	0	0	0.5869140625	0.422607421875	upper	../fonts/amplitud.ttf
1415.002	n/a	START	707501	n/a	LTP197	ltpFR	11	n/a	n/a	n/a	n/a	n/a	n/a	n/a	n/a	n/a	n/a	n/a	n/a	n/a	n/a	n/a
1415.966	n/a	PROB	707983	n/a	LTP197	ltpFR	11	n/a	n/a	n/a	n/a	n/a	n/a	16	1	9	6	n/a	n/a	n/a	n/a	n/a
1417.388	n/a	PROB	708694	n/a	LTP197	ltpFR	11	n/a	n/a	n/a	n/a	n/a	n/a	16	9	3	4	n/a	n/a	n/a	n/a	n/a
1419.06	n/a	PROB	709530	n/a	LTP197	ltpFR	11	n/a	n/a	n/a	n/a	n/a	n/a	13	3	5	5	n/a	n/a	n/a	n/a	n/a
1423.002	n/a	STOP	711501	n/a	LTP197	ltpFR	11	n/a	n/a	n/a	n/a	n/a	n/a	n/a	n/a	n/a	n/a	n/a	n/a	n/a	n/a	n/a
1424.136	n/a	WORD	712068	wordpools/wasnorm_wordpool_less_exclusions.txt	LTP197	ltpFR	11	5	0	ASH	44	n/a	0	n/a	0	0	0	0	0.5869140625	0.422607421875	upper	../fonts/amplitud.ttf
1427.148	n/a	START	713574	n/a	LTP197	ltpFR	11	n/a	n/a	n/a	n/a	n/a	n/a	n/a	n/a	n/a	n/a	n/a	n/a	n/a	n/a	n/a
1428.112	n/a	PROB	714056	n/a	LTP197	ltpFR	11	n/a	n/a	n/a	n/a	n/a	n/a	11	1	7	3	n/a	n/a	n/a	n/a	n/a
1429.49	n/a	PROB	714745	n/a	LTP197	ltpFR	11	n/a	n/a	n/a	n/a	n/a	n/a	13	5	4	4	n/a	n/a	n/a	n/a	n/a
1430.94	n/a	PROB	715470	n/a	LTP197	ltpFR	11	n/a	n/a	n/a	n/a	n/a	n/a	16	5	3	8	n/a	n/a	n/a	n/a	n/a
1432.502	n/a	PROB	716251	n/a	LTP197	ltpFR	11	n/a	n/a	n/a	n/a	n/a	n/a	20	9	2	9	n/a	n/a	n/a	n/a	n/a
1433.96	n/a	STOP	716980	n/a	LTP197	ltpFR	11	n/a	n/a	n/a	n/a	n/a	n/a	n/a	n/a	n/a	n/a	n/a	n/a	n/a	n/a	n/a
1436.334	n/a	WORD	718167	wordpools/wasnorm_wordpool_less_exclusions.txt	LTP197	ltpFR	11	5	1	ASHTRAY	45	n/a	0	n/a	0	0	0	1	0.412841796875	0.57763671875	lower	../fonts/zerothre.ttf
1439.346	n/a	START	719673	n/a	LTP197	ltpFR	11	n/a	n/a	n/a	n/a	n/a	n/a	n/a	n/a	n/a	n/a	n/a	n/a	n/a	n/a	n/a
1440.448	n/a	PROB	720224	n/a	LTP197	ltpFR	11	n/a	n/a	n/a	n/a	n/a	n/a	12	2	7	3	n/a	n/a	n/a	n/a	n/a
1441.804	n/a	PROB	720902	n/a	LTP197	ltpFR	11	n/a	n/a	n/a	n/a	n/a	n/a	13	6	4	3	n/a	n/a	n/a	n/a	n/a
1443.57	n/a	PROB	721785	n/a	LTP197	ltpFR	11	n/a	n/a	n/a	n/a	n/a	n/a	27	9	9	9	n/a	n/a	n/a	n/a	n/a
1445.394	n/a	PROB	722697	n/a	LTP197	ltpFR	11	n/a	n/a	n/a	n/a	n/a	n/a	23	7	8	7	n/a	n/a	n/a	n/a	n/a
1447.034	n/a	STOP	723517	n/a	LTP197	ltpFR	11	n/a	n/a	n/a	n/a	n/a	n/a	n/a	n/a	n/a	n/a	n/a	n/a	n/a	n/a	n/a
1448.194	n/a	WORD	724097	wordpools/wasnorm_wordpool_less_exclusions.txt	LTP197	ltpFR	11	5	1	CROW	414	n/a	1	n/a	0	0	0	1	0.412841796875	0.57763671875	lower	../fonts/zerothre.ttf
1451.206	n/a	START	725603	n/a	LTP197	ltpFR	11	n/a	n/a	n/a	n/a	n/a	n/a	n/a	n/a	n/a	n/a	n/a	n/a	n/a	n/a	n/a
1452.076	n/a	PROB	726038	n/a	LTP197	ltpFR	11	n/a	n/a	n/a	n/a	n/a	n/a	16	6	6	4	n/a	n/a	n/a	n/a	n/a
1453.962	n/a	PROB	726981	n/a	LTP197	ltpFR	11	n/a	n/a	n/a	n/a	n/a	n/a	23	6	8	9	n/a	n/a	n/a	n/a	n/a
1457.676	n/a	PROB	728838	n/a	LTP197	ltpFR	11	n/a	n/a	n/a	n/a	n/a	n/a	11	1	5	5	n/a	n/a	n/a	n/a	n/a
1459.002	n/a	STOP	729501	n/a	LTP197	ltpFR	11	n/a	n/a	n/a	n/a	n/a	n/a	n/a	n/a	n/a	n/a	n/a	n/a	n/a	n/a	n/a
1460.252	n/a	WORD	730126	wordpools/wasnorm_wordpool_less_exclusions.txt	LTP197	ltpFR	11	5	1	TYPEWRITER	1531	n/a	0	n/a	0	0	0	1	0.412841796875	0.57763671875	lower	../fonts/zerothre.ttf
1463.264	n/a	START	731632	n/a	LTP197	ltpFR	11	n/a	n/a	n/a	n/a	n/a	n/a	n/a	n/a	n/a	n/a	n/a	n/a	n/a	n/a	n/a
1464.25	n/a	PROB	732125	n/a	LTP197	ltpFR	11	n/a	n/a	n/a	n/a	n/a	n/a	12	8	1	3	n/a	n/a	n/a	n/a	n/a
1465.84	n/a	PROB	732920	n/a	LTP197	ltpFR	11	n/a	n/a	n/a	n/a	n/a	n/a	12	5	2	5	n/a	n/a	n/a	n/a	n/a
1467.168	n/a	PROB	733584	n/a	LTP197	ltpFR	11	n/a	n/a	n/a	n/a	n/a	n/a	14	1	9	4	n/a	n/a	n/a	n/a	n/a
1468.9	n/a	PROB	734450	n/a	LTP197	ltpFR	11	n/a	n/a	n/a	n/a	n/a	n/a	19	5	7	7	n/a	n/a	n/a	n/a	n/a
1470.786	n/a	STOP	735393	n/a	LTP197	ltpFR	11	n/a	n/a	n/a	n/a	n/a	n/a	n/a	n/a	n/a	n/a	n/a	n/a	n/a	n/a	n/a
1472.102	n/a	WORD	736051	wordpools/wasnorm_wordpool_less_exclusions.txt	LTP197	ltpFR	11	5	1	ROBOT	1200	n/a	0	n/a	0	0	0	1	0.412841796875	0.57763671875	lower	../fonts/zerothre.ttf
1475.116	n/a	START	737558	n/a	LTP197	ltpFR	11	n/a	n/a	n/a	n/a	n/a	n/a	n/a	n/a	n/a	n/a	n/a	n/a	n/a	n/a	n/a
1476.236	n/a	PROB	738118	n/a	LTP197	ltpFR	11	n/a	n/a	n/a	n/a	n/a	n/a	12	4	1	7	n/a	n/a	n/a	n/a	n/a
1477.97	n/a	PROB	738985	n/a	LTP197	ltpFR	11	n/a	n/a	n/a	n/a	n/a	n/a	13	2	5	6	n/a	n/a	n/a	n/a	n/a
1480.128	n/a	PROB	740064	n/a	LTP197	ltpFR	11	n/a	n/a	n/a	n/a	n/a	n/a	13	3	9	1	n/a	n/a	n/a	n/a	n/a
1483.116	n/a	STOP	741558	n/a	LTP197	ltpFR	11	n/a	n/a	n/a	n/a	n/a	n/a	n/a	n/a	n/a	n/a	n/a	n/a	n/a	n/a	n/a
1484.066	n/a	WORD	742033	wordpools/wasnorm_wordpool_less_exclusions.txt	LTP197	ltpFR	11	5	0	DIVER	476	n/a	1	n/a	0	0	0	0	0.5869140625	0.422607421875	upper	../fonts/amplitud.ttf
1487.078	n/a	START	743539	n/a	LTP197	ltpFR	11	n/a	n/a	n/a	n/a	n/a	n/a	n/a	n/a	n/a	n/a	n/a	n/a	n/a	n/a	n/a
1488.13	n/a	PROB	744065	n/a	LTP197	ltpFR	11	n/a	n/a	n/a	n/a	n/a	n/a	19	8	7	4	n/a	n/a	n/a	n/a	n/a
1489.88	n/a	PROB	744940	n/a	LTP197	ltpFR	11	n/a	n/a	n/a	n/a	n/a	n/a	19	5	7	7	n/a	n/a	n/a	n/a	n/a
1491.788	n/a	PROB	745894	n/a	LTP197	ltpFR	11	n/a	n/a	n/a	n/a	n/a	n/a	19	9	8	2	n/a	n/a	n/a	n/a	n/a
1493.692	n/a	STOP	746846	n/a	LTP197	ltpFR	11	n/a	n/a	n/a	n/a	n/a	n/a	n/a	n/a	n/a	n/a	n/a	n/a	n/a	n/a	n/a
1496.056	n/a	WORD	748028	wordpools/wasnorm_wordpool_less_exclusions.txt	LTP197	ltpFR	11	5	0	TWEEZERS	1526	n/a	0	n/a	0	0	0	0	0.5869140625	0.422607421875	upper	../fonts/amplitud.ttf
1499.074	n/a	START	749537	n/a	LTP197	ltpFR	11	n/a	n/a	n/a	n/a	n/a	n/a	n/a	n/a	n/a	n/a	n/a	n/a	n/a	n/a	n/a
1499.96	n/a	PROB	749980	n/a	LTP197	ltpFR	11	n/a	n/a	n/a	n/a	n/a	n/a	13	8	3	2	n/a	n/a	n/a	n/a	n/a
1501.826	n/a	PROB	750913	n/a	LTP197	ltpFR	11	n/a	n/a	n/a	n/a	n/a	n/a	10	1	4	5	n/a	n/a	n/a	n/a	n/a
1503.338	n/a	PROB	751669	n/a	LTP197	ltpFR	11	n/a	n/a	n/a	n/a	n/a	n/a	16	2	8	6	n/a	n/a	n/a	n/a	n/a
1507.072	n/a	STOP	753536	n/a	LTP197	ltpFR	11	n/a	n/a	n/a	n/a	n/a	n/a	n/a	n/a	n/a	n/a	n/a	n/a	n/a	n/a	n/a
1508.318	n/a	WORD	754159	wordpools/wasnorm_wordpool_less_exclusions.txt	LTP197	ltpFR	11	5	0	FACE	547	n/a	1	n/a	0	0	0	0	0.5869140625	0.422607421875	upper	../fonts/amplitud.ttf
1511.33	n/a	START	755665	n/a	LTP197	ltpFR	11	n/a	n/a	n/a	n/a	n/a	n/a	n/a	n/a	n/a	n/a	n/a	n/a	n/a	n/a	n/a
1512.184	n/a	PROB	756092	n/a	LTP197	ltpFR	11	n/a	n/a	n/a	n/a	n/a	n/a	14	6	3	5	n/a	n/a	n/a	n/a	n/a
1513.906	n/a	PROB	756953	n/a	LTP197	ltpFR	11	n/a	n/a	n/a	n/a	n/a	n/a	10	3	1	6	n/a	n/a	n/a	n/a	n/a
1515.754	n/a	PROB	757877	n/a	LTP197	ltpFR	11	n/a	n/a	n/a	n/a	n/a	n/a	15	6	3	5	n/a	n/a	n/a	n/a	n/a
1519.33	n/a	STOP	759665	n/a	LTP197	ltpFR	11	n/a	n/a	n/a	n/a	n/a	n/a	n/a	n/a	n/a	n/a	n/a	n/a	n/a	n/a	n/a
1521.118	n/a	REC_START	760559	n/a	LTP197	ltpFR	11	5	n/a	n/a	n/a	n/a	n/a	n/a	0	0	0	n/a	n/a	n/a	n/a	n/a
1522.634	n/a	REC_WORD	761317	wordpools/wasnorm_wordpool_less_exclusions.txt	LTP197	ltpFR	11	5	0	FACE	547	n/a	1	n/a	0	0	0	n/a	n/a	n/a	n/a	n/a
1524.126	n/a	REC_WORD	762063	wordpools/wasnorm_wordpool_less_exclusions.txt	LTP197	ltpFR	11	5	0	DIVER	476	n/a	1	n/a	0	0	0	n/a	n/a	n/a	n/a	n/a
1525.242	n/a	REC_WORD	762621	wordpools/wasnorm_wordpool_less_exclusions.txt	LTP197	ltpFR	11	5	1	GRASSHOPPER	656	n/a	1	n/a	0	0	0	n/a	n/a	n/a	n/a	n/a
1526.436	n/a	REC_WORD	763218	wordpools/wasnorm_wordpool_less_exclusions.txt	LTP197	ltpFR	11	5	1	MOUTH	926	n/a	1	n/a	0	0	0	n/a	n/a	n/a	n/a	n/a
1527.808	n/a	REC_WORD	763904	wordpools/wasnorm_wordpool_less_exclusions.txt	LTP197	ltpFR	11	5	1	DISC	473	n/a	0	n/a	0	0	0	n/a	n/a	n/a	n/a	n/a
1529.464	n/a	REC_WORD	764732	wordpools/wasnorm_wordpool_less_exclusions.txt	LTP197	ltpFR	11	5	n/a	WILDERNESS	1610	n/a	n/a	n/a	0	0	0	n/a	n/a	n/a	n/a	n/a
1530.368	n/a	REC_WORD	765184	wordpools/wasnorm_wordpool_less_exclusions.txt	LTP197	ltpFR	11	5	0	LAKE	796	n/a	1	n/a	0	0	0	n/a	n/a	n/a	n/a	n/a
1531.164	n/a	REC_WORD	765582	wordpools/wasnorm_wordpool_less_exclusions.txt	LTP197	ltpFR	11	5	0	EMPLOYEE	531	n/a	1	n/a	0	0	0	n/a	n/a	n/a	n/a	n/a
1548.872	n/a	REC_WORD	774436	wordpools/wasnorm_wordpool_less_exclusions.txt	LTP197	ltpFR	11	5	0	COB	334	n/a	0	n/a	0	0	0	n/a	n/a	n/a	n/a	n/a
1549.878	n/a	REC_WORD	774939	wordpools/wasnorm_wordpool_less_exclusions.txt	LTP197	ltpFR	11	5	0	ASH	44	n/a	0	n/a	0	0	0	n/a	n/a	n/a	n/a	n/a
1600.754	n/a	WORD	800377	wordpools/wasnorm_wordpool_less_exclusions.txt	LTP197	ltpFR	11	6	0	MAMMAL	861	n/a	1	n/a	0	0	0	0	0.5869140625	0.422607421875	upper	../fonts/amplitud.ttf
1604.954	n/a	WORD	802477	wordpools/wasnorm_wordpool_less_exclusions.txt	LTP197	ltpFR	11	6	0	LADY	794	n/a	1	n/a	0	0	0	0	0.5869140625	0.422607421875	upper	../fonts/amplitud.ttf
1609.16	n/a	WORD	804580	wordpools/wasnorm_wordpool_less_exclusions.txt	LTP197	ltpFR	11	6	0	FELLOW	558	n/a	1	n/a	0	0	0	0	0.5869140625	0.422607421875	upper	../fonts/amplitud.ttf
1613.376	n/a	WORD	806688	wordpools/wasnorm_wordpool_less_exclusions.txt	LTP197	ltpFR	11	6	1	CAFETERIA	217	n/a	0	n/a	0	0	0	1	0.412841796875	0.57763671875	lower	../fonts/zerothre.ttf
1617.424	n/a	WORD	808712	wordpools/wasnorm_wordpool_less_exclusions.txt	LTP197	ltpFR	11	6	1	STOMACH	1384	n/a	0	n/a	0	0	0	1	0.412841796875	0.57763671875	lower	../fonts/zerothre.ttf
1621.3	n/a	WORD	810650	wordpools/wasnorm_wordpool_less_exclusions.txt	LTP197	ltpFR	11	6	1	TULIP	1517	n/a	1	n/a	0	0	0	1	0.412841796875	0.57763671875	lower	../fonts/zerothre.ttf
1625.238	n/a	WORD	812619	wordpools/wasnorm_wordpool_less_exclusions.txt	LTP197	ltpFR	11	6	1	WALRUS	1585	n/a	1	n/a	0	0	0	1	0.412841796875	0.57763671875	lower	../fonts/zerothre.ttf
1629.382	n/a	WORD	814691	wordpools/wasnorm_wordpool_less_exclusions.txt	LTP197	ltpFR	11	6	1	MONEY	908	n/a	0	n/a	0	0	0	1	0.412841796875	0.57763671875	lower	../fonts/zerothre.ttf
1633.252	n/a	WORD	816626	wordpools/wasnorm_wordpool_less_exclusions.txt	LTP197	ltpFR	11	6	1	POPCORN	1104	n/a	0	n/a	0	0	0	1	0.412841796875	0.57763671875	lower	../fonts/zerothre.ttf
1637.402	n/a	WORD	818701	wordpools/wasnorm_wordpool_less_exclusions.txt	LTP197	ltpFR	11	6	0	SPHINX	1349	n/a	1	n/a	0	0	0	0	0.5869140625	0.422607421875	upper	../fonts/amplitud.ttf
1641.41	n/a	WORD	820705	wordpools/wasnorm_wordpool_less_exclusions.txt	LTP197	ltpFR	11	6	0	FEAST	556	n/a	1	n/a	0	0	0	0	0.5869140625	0.422607421875	upper	../fonts/amplitud.ttf
1645.36	n/a	WORD	822680	wordpools/wasnorm_wordpool_less_exclusions.txt	LTP197	ltpFR	11	6	1	MONARCH	906	n/a	1	n/a	0	0	0	1	0.412841796875	0.57763671875	lower	../fonts/zerothre.ttf
1649.28	n/a	WORD	824640	wordpools/wasnorm_wordpool_less_exclusions.txt	LTP197	ltpFR	11	6	1	TORCH	1484	n/a	0	n/a	0	0	0	1	0.412841796875	0.57763671875	lower	../fonts/zerothre.ttf
1653.144	n/a	WORD	826572	wordpools/wasnorm_wordpool_less_exclusions.txt	LTP197	ltpFR	11	6	0	WICK	1607	n/a	0	n/a	0	0	0	0	0.5869140625	0.422607421875	upper	../fonts/amplitud.ttf
1657.02	n/a	WORD	828510	wordpools/wasnorm_wordpool_less_exclusions.txt	LTP197	ltpFR	11	6	0	QUARTER	1148	n/a	0	n/a	0	0	0	0	0.5869140625	0.422607421875	upper	../fonts/amplitud.ttf
1660.934	n/a	WORD	830467	wordpools/wasnorm_wordpool_less_exclusions.txt	LTP197	ltpFR	11	6	0	DUNE	506	n/a	1	n/a	0	0	0	0	0.5869140625	0.422607421875	upper	../fonts/amplitud.ttf
1666.68	n/a	REC_START	833340	n/a	LTP197	ltpFR	11	6	n/a	n/a	n/a	n/a	n/a	n/a	0	0	0	n/a	n/a	n/a	n/a	n/a
1667.906	n/a	REC_WORD	833953	wordpools/wasnorm_wordpool_less_exclusions.txt	LTP197	ltpFR	11	6	0	SPHINX	1349	n/a	1	n/a	0	0	0	n/a	n/a	n/a	n/a	n/a
1668.836	n/a	REC_WORD	834418	wordpools/wasnorm_wordpool_less_exclusions.txt	LTP197	ltpFR	11	6	0	DUNE	506	n/a	1	n/a	0	0	0	n/a	n/a	n/a	n/a	n/a
1670.81	n/a	REC_WORD	835405	wordpools/wasnorm_wordpool_less_exclusions.txt	LTP197	ltpFR	11	6	1	TORCH	1484	n/a	0	n/a	0	0	0	n/a	n/a	n/a	n/a	n/a
1671.49	n/a	REC_WORD	835745	wordpools/wasnorm_wordpool_less_exclusions.txt	LTP197	ltpFR	11	6	0	WICK	1607	n/a	0	n/a	0	0	0	n/a	n/a	n/a	n/a	n/a
1672.248	n/a	REC_WORD	836124	wordpools/wasnorm_wordpool_less_exclusions.txt	LTP197	ltpFR	11	6	0	QUARTER	1148	n/a	0	n/a	0	0	0	n/a	n/a	n/a	n/a	n/a
1673.086	n/a	REC_WORD	836543	wordpools/wasnorm_wordpool_less_exclusions.txt	LTP197	ltpFR	11	6	0	FEAST	556	n/a	1	n/a	0	0	0	n/a	n/a	n/a	n/a	n/a
1674.068	n/a	REC_WORD	837034	wordpools/wasnorm_wordpool_less_exclusions.txt	LTP197	ltpFR	11	6	1	MONARCH	906	n/a	1	n/a	0	0	0	n/a	n/a	n/a	n/a	n/a
1675.062	n/a	REC_WORD	837531	wordpools/wasnorm_wordpool_less_exclusions.txt	LTP197	ltpFR	11	6	1	CAFETERIA	217	n/a	0	n/a	0	0	0	n/a	n/a	n/a	n/a	n/a
1676.062	n/a	REC_WORD_VV	838031	wordpools/wasnorm_wordpool_less_exclusions.txt	LTP197	ltpFR	11	6	n/a	<>	-1	n/a	n/a	n/a	0	0	0	n/a	n/a	n/a	n/a	n/a
1676.632	n/a	REC_WORD	838316	wordpools/wasnorm_wordpool_less_exclusions.txt	LTP197	ltpFR	11	6	0	MAMMAL	861	n/a	1	n/a	0	0	0	n/a	n/a	n/a	n/a	n/a
1677.5	n/a	REC_WORD	838750	wordpools/wasnorm_wordpool_less_exclusions.txt	LTP197	ltpFR	11	6	1	WALRUS	1585	n/a	1	n/a	0	0	0	n/a	n/a	n/a	n/a	n/a
1678.922	n/a	REC_WORD	839461	wordpools/wasnorm_wordpool_less_exclusions.txt	LTP197	ltpFR	11	6	0	LADY	794	n/a	1	n/a	0	0	0	n/a	n/a	n/a	n/a	n/a
1679.482	n/a	REC_WORD	839741	wordpools/wasnorm_wordpool_less_exclusions.txt	LTP197	ltpFR	11	6	0	FELLOW	558	n/a	1	n/a	0	0	0	n/a	n/a	n/a	n/a	n/a
1680.59	n/a	REC_WORD	840295	wordpools/wasnorm_wordpool_less_exclusions.txt	LTP197	ltpFR	11	6	1	TULIP	1517	n/a	1	n/a	0	0	0	n/a	n/a	n/a	n/a	n/a
1684.53	n/a	REC_WORD	842265	wordpools/wasnorm_wordpool_less_exclusions.txt	LTP197	ltpFR	11	6	1	POPCORN	1104	n/a	0	n/a	0	0	0	n/a	n/a	n/a	n/a	n/a
1685.424	n/a	REC_WORD	842712	wordpools/wasnorm_wordpool_less_exclusions.txt	LTP197	ltpFR	11	6	1	STOMACH	1384	n/a	0	n/a	0	0	0	n/a	n/a	n/a	n/a	n/a
1696.802	n/a	REC_WORD	848401	wordpools/wasnorm_wordpool_less_exclusions.txt	LTP197	ltpFR	11	6	1	MONEY	908	n/a	0	n/a	0	0	0	n/a	n/a	n/a	n/a	n/a
1758.592	n/a	WORD	879296	wordpools/wasnorm_wordpool_less_exclusions.txt	LTP197	ltpFR	11	7	1	SOFTBALL	1343	n/a	0	n/a	0	0	0	1	0.412841796875	0.57763671875	lower	../fonts/zerothre.ttf
1762.54	n/a	WORD	881270	wordpools/wasnorm_wordpool_less_exclusions.txt	LTP197	ltpFR	11	7	1	VOLLEYBALL	1576	n/a	0	n/a	0	0	0	1	0.412841796875	0.57763671875	lower	../fonts/zerothre.ttf
1766.454	n/a	WORD	883227	wordpools/wasnorm_wordpool_less_exclusions.txt	LTP197	ltpFR	11	7	1	SUNRISE	1407	n/a	0	n/a	0	0	0	1	0.412841796875	0.57763671875	lower	../fonts/zerothre.ttf
1770.41	n/a	WORD	885205	wordpools/wasnorm_wordpool_less_exclusions.txt	LTP197	ltpFR	11	7	1	SKUNK	1321	n/a	1	n/a	0	0	0	1	0.412841796875	0.57763671875	lower	../fonts/zerothre.ttf
1774.442	n/a	WORD	887221	wordpools/wasnorm_wordpool_less_exclusions.txt	LTP197	ltpFR	11	7	1	PERFUME	1049	n/a	0	n/a	0	0	0	1	0.412841796875	0.57763671875	lower	../fonts/zerothre.ttf
1778.424	n/a	WORD	889212	wordpools/wasnorm_wordpool_less_exclusions.txt	LTP197	ltpFR	11	7	1	MOSS	918	n/a	1	n/a	0	0	0	1	0.412841796875	0.57763671875	lower	../fonts/zerothre.ttf
1782.254	n/a	WORD	891127	wordpools/wasnorm_wordpool_less_exclusions.txt	LTP197	ltpFR	11	7	1	BOSS	152	n/a	1	n/a	0	0	0	1	0.412841796875	0.57763671875	lower	../fonts/zerothre.ttf
1786.364	n/a	WORD	893182	wordpools/wasnorm_wordpool_less_exclusions.txt	LTP197	ltpFR	11	7	1	DIGGER	464	n/a	1	n/a	0	0	0	1	0.412841796875	0.57763671875	lower	../fonts/zerothre.ttf
1790.418	n/a	WORD	895209	wordpools/wasnorm_wordpool_less_exclusions.txt	LTP197	ltpFR	11	7	1	BAY	102	n/a	0	n/a	0	0	0	1	0.412841796875	0.57763671875	lower	../fonts/zerothre.ttf
1794.418	n/a	WORD	897209	wordpools/wasnorm_wordpool_less_exclusions.txt	LTP197	ltpFR	11	7	1	PORT	1110	n/a	0	n/a	0	0	0	1	0.412841796875	0.57763671875	lower	../fonts/zerothre.ttf
1798.282	n/a	WORD	899141	wordpools/wasnorm_wordpool_less_exclusions.txt	LTP197	ltpFR	11	7	1	CORPORATION	382	n/a	0	n/a	0	0	0	1	0.412841796875	0.57763671875	lower	../fonts/zerothre.ttf
1802.314	n/a	WORD	901157	wordpools/wasnorm_wordpool_less_exclusions.txt	LTP197	ltpFR	11	7	1	FAMILY	550	n/a	1	n/a	0	0	0	1	0.412841796875	0.57763671875	lower	../fonts/zerothre.ttf
1806.196	n/a	WORD	903098	wordpools/wasnorm_wordpool_less_exclusions.txt	LTP197	ltpFR	11	7	1	IRON	744	n/a	0	n/a	0	0	0	1	0.412841796875	0.57763671875	lower	../fonts/zerothre.ttf
1810.122	n/a	WORD	905061	wordpools/wasnorm_wordpool_less_exclusions.txt	LTP197	ltpFR	11	7	1	HONEY	713	n/a	0	n/a	0	0	0	1	0.412841796875	0.57763671875	lower	../fonts/zerothre.ttf
1814.204	n/a	WORD	907102	wordpools/wasnorm_wordpool_less_exclusions.txt	LTP197	ltpFR	11	7	1	DOG	480	n/a	1	n/a	0	0	0	1	0.412841796875	0.57763671875	lower	../fonts/zerothre.ttf
1818.336	n/a	WORD	909168	wordpools/wasnorm_wordpool_less_exclusions.txt	LTP197	ltpFR	11	7	1	TREE	1502	n/a	1	n/a	0	0	0	1	0.412841796875	0.57763671875	lower	../fonts/zerothre.ttf
1821.348	n/a	START	910674	n/a	LTP197	ltpFR	11	n/a	n/a	n/a	n/a	n/a	n/a	n/a	n/a	n/a	n/a	n/a	n/a	n/a	n/a	n/a
1822.358	n/a	PROB	911179	n/a	LTP197	ltpFR	11	n/a	n/a	n/a	n/a	n/a	n/a	7	3	1	3	n/a	n/a	n/a	n/a	n/a
1824.4	n/a	PROB	912200	n/a	LTP197	ltpFR	11	n/a	n/a	n/a	n/a	n/a	n/a	21	9	3	9	n/a	n/a	n/a	n/a	n/a
1826.216	n/a	PROB	913108	n/a	LTP197	ltpFR	11	n/a	n/a	n/a	n/a	n/a	n/a	10	1	6	3	n/a	n/a	n/a	n/a	n/a
1827.706	n/a	PROB	913853	n/a	LTP197	ltpFR	11	n/a	n/a	n/a	n/a	n/a	n/a	13	3	8	2	n/a	n/a	n/a	n/a	n/a
1829.278	n/a	STOP	914639	n/a	LTP197	ltpFR	11	n/a	n/a	n/a	n/a	n/a	n/a	n/a	n/a	n/a	n/a	n/a	n/a	n/a	n/a	n/a
1831.27	n/a	REC_START	915635	n/a	LTP197	ltpFR	11	7	n/a	n/a	n/a	n/a	n/a	n/a	0	0	0	n/a	n/a	n/a	n/a	n/a
1832.652	n/a	REC_WORD	916326	wordpools/wasnorm_wordpool_less_exclusions.txt	LTP197	ltpFR	11	7	1	MOSS	918	n/a	1	n/a	0	0	0	n/a	n/a	n/a	n/a	n/a
1833.41	n/a	REC_WORD	916705	wordpools/wasnorm_wordpool_less_exclusions.txt	LTP197	ltpFR	11	7	1	TREE	1502	n/a	1	n/a	0	0	0	n/a	n/a	n/a	n/a	n/a
1834.642	n/a	REC_WORD	917321	wordpools/wasnorm_wordpool_less_exclusions.txt	LTP197	ltpFR	11	7	1	PORT	1110	n/a	0	n/a	0	0	0	n/a	n/a	n/a	n/a	n/a
1835.46	n/a	REC_WORD	917730	wordpools/wasnorm_wordpool_less_exclusions.txt	LTP197	ltpFR	11	7	1	BAY	102	n/a	0	n/a	0	0	0	n/a	n/a	n/a	n/a	n/a
1838.334	n/a	REC_WORD	919167	wordpools/wasnorm_wordpool_less_exclusions.txt	LTP197	ltpFR	11	7	1	DIGGER	464	n/a	1	n/a	0	0	0	n/a	n/a	n/a	n/a	n/a
1839.172	n/a	REC_WORD	919586	wordpools/wasnorm_wordpool_less_exclusions.txt	LTP197	ltpFR	11	7	1	SKUNK	1321	n/a	1	n/a	0	0	0	n/a	n/a	n/a	n/a	n/a
1841.014	n/a	REC_WORD	920507	wordpools/wasnorm_wordpool_less_exclusions.txt	LTP197	ltpFR	11	7	1	DOG	480	n/a	1	n/a	0	0	0	n/a	n/a	n/a	n/a	n/a
1841.546	n/a	REC_WORD	920773	wordpools/wasnorm_wordpool_less_exclusions.txt	LTP197	ltpFR	11	7	1	FAMILY	550	n/a	1	n/a	0	0	0	n/a	n/a	n/a	n/a	n/a
1842.474	n/a	REC_WORD	921237	wordpools/wasnorm_wordpool_less_exclusions.txt	LTP197	ltpFR	11	7	1	CORPORATION	382	n/a	0	n/a	0	0	0	n/a	n/a	n/a	n/a	n/a
1843.732	n/a	REC_WORD	921866	wordpools/wasnorm_wordpool_less_exclusions.txt	LTP197	ltpFR	11	7	1	BOSS	152	n/a	1	n/a	0	0	0	n/a	n/a	n/a	n/a	n/a
1845.044	n/a	REC_WORD	922522	wordpools/wasnorm_wordpool_less_exclusions.txt	LTP197	ltpFR	11	7	1	SUNRISE	1407	n/a	0	n/a	0	0	0	n/a	n/a	n/a	n/a	n/a
1845.818	n/a	REC_WORD	922909	wordpools/wasnorm_wordpool_less_exclusions.txt	LTP197	ltpFR	11	7	1	SOFTBALL	1343	n/a	0	n/a	0	0	0	n/a	n/a	n/a	n/a	n/a
1846.71	n/a	REC_WORD	923355	wordpools/wasnorm_wordpool_less_exclusions.txt	LTP197	ltpFR	11	7	1	VOLLEYBALL	1576	n/a	0	n/a	0	0	0	n/a	n/a	n/a	n/a	n/a
1850.302	n/a	REC_WORD	925151	wordpools/wasnorm_wordpool_less_exclusions.txt	LTP197	ltpFR	11	7	1	PERFUME	1049	n/a	0	n/a	0	0	0	n/a	n/a	n/a	n/a	n/a
1852.238	n/a	REC_WORD	926119	wordpools/wasnorm_wordpool_less_exclusions.txt	LTP197	ltpFR	11	7	1	HONEY	713	n/a	0	n/a	0	0	0	n/a	n/a	n/a	n/a	n/a
1865.284	n/a	REC_WORD	932642	wordpools/wasnorm_wordpool_less_exclusions.txt	LTP197	ltpFR	11	7	1	IRON	744	n/a	0	n/a	0	0	0	n/a	n/a	n/a	n/a	n/a
1908.538	n/a	START	954269	n/a	LTP197	ltpFR	11	n/a	n/a	n/a	n/a	n/a	n/a	n/a	n/a	n/a	n/a	n/a	n/a	n/a	n/a	n/a
1910.054	n/a	PROB	955027	n/a	LTP197	ltpFR	11	n/a	n/a	n/a	n/a	n/a	n/a	24	6	9	9	n/a	n/a	n/a	n/a	n/a
1913.918	n/a	PROB	956959	n/a	LTP197	ltpFR	11	n/a	n/a	n/a	n/a	n/a	n/a	12	2	9	1	n/a	n/a	n/a	n/a	n/a
1915.592	n/a	PROB	957796	n/a	LTP197	ltpFR	11	n/a	n/a	n/a	n/a	n/a	n/a	16	7	6	3	n/a	n/a	n/a	n/a	n/a
1917.282	n/a	PROB	958641	n/a	LTP197	ltpFR	11	n/a	n/a	n/a	n/a	n/a	n/a	12	1	5	6	n/a	n/a	n/a	n/a	n/a
1919.144	n/a	PROB	959572	n/a	LTP197	ltpFR	11	n/a	n/a	n/a	n/a	n/a	n/a	15	7	2	6	n/a	n/a	n/a	n/a	n/a
1920.718	n/a	PROB	960359	n/a	LTP197	ltpFR	11	n/a	n/a	n/a	n/a	n/a	n/a	20	7	8	5	n/a	n/a	n/a	n/a	n/a
1923.066	n/a	STOP	961533	n/a	LTP197	ltpFR	11	n/a	n/a	n/a	n/a	n/a	n/a	n/a	n/a	n/a	n/a	n/a	n/a	n/a	n/a	n/a
1925.652	n/a	WORD	962826	wordpools/wasnorm_wordpool_less_exclusions.txt	LTP197	ltpFR	11	8	1	CELERY	266	n/a	0	n/a	0	0	0	1	0.412841796875	0.57763671875	lower	../fonts/zerothre.ttf
1928.666	n/a	START	964333	n/a	LTP197	ltpFR	11	n/a	n/a	n/a	n/a	n/a	n/a	n/a	n/a	n/a	n/a	n/a	n/a	n/a	n/a	n/a
1929.484	n/a	PROB	964742	n/a	LTP197	ltpFR	11	n/a	n/a	n/a	n/a	n/a	n/a	20	7	6	7	n/a	n/a	n/a	n/a	n/a
1931.452	n/a	PROB	965726	n/a	LTP197	ltpFR	11	n/a	n/a	n/a	n/a	n/a	n/a	15	6	2	7	n/a	n/a	n/a	n/a	n/a
1933.828	n/a	PROB	966914	n/a	LTP197	ltpFR	11	n/a	n/a	n/a	n/a	n/a	n/a	15	2	8	5	n/a	n/a	n/a	n/a	n/a
1935.122	n/a	PROB	967561	n/a	LTP197	ltpFR	11	n/a	n/a	n/a	n/a	n/a	n/a	14	1	5	8	n/a	n/a	n/a	n/a	n/a
1936.974	n/a	PROB	968487	n/a	LTP197	ltpFR	11	n/a	n/a	n/a	n/a	n/a	n/a	14	2	7	5	n/a	n/a	n/a	n/a	n/a
1944.666	n/a	STOP	972333	n/a	LTP197	ltpFR	11	n/a	n/a	n/a	n/a	n/a	n/a	n/a	n/a	n/a	n/a	n/a	n/a	n/a	n/a	n/a
1945.79	n/a	WORD	972895	wordpools/wasnorm_wordpool_less_exclusions.txt	LTP197	ltpFR	11	8	1	SHORTCAKE	1292	n/a	0	n/a	0	0	0	1	0.412841796875	0.57763671875	lower	../fonts/zerothre.ttf
1948.802	n/a	START	974401	n/a	LTP197	ltpFR	11	n/a	n/a	n/a	n/a	n/a	n/a	n/a	n/a	n/a	n/a	n/a	n/a	n/a	n/a	n/a
1949.762	n/a	PROB	974881	n/a	LTP197	ltpFR	11	n/a	n/a	n/a	n/a	n/a	n/a	10	1	3	6	n/a	n/a	n/a	n/a	n/a
1951.294	n/a	PROB	975647	n/a	LTP197	ltpFR	11	n/a	n/a	n/a	n/a	n/a	n/a	10	6	2	2	n/a	n/a	n/a	n/a	n/a
1953.084	n/a	PROB	976542	n/a	LTP197	ltpFR	11	n/a	n/a	n/a	n/a	n/a	n/a	10	2	3	5	n/a	n/a	n/a	n/a	n/a
1954.608	n/a	PROB	977304	n/a	LTP197	ltpFR	11	n/a	n/a	n/a	n/a	n/a	n/a	15	1	9	5	n/a	n/a	n/a	n/a	n/a
1956.096	n/a	PROB	978048	n/a	LTP197	ltpFR	11	n/a	n/a	n/a	n/a	n/a	n/a	16	4	5	7	n/a	n/a	n/a	n/a	n/a
1958.622	n/a	PROB	979311	n/a	LTP197	ltpFR	11	n/a	n/a	n/a	n/a	n/a	n/a	16	4	6	6	n/a	n/a	n/a	n/a	n/a
1964.804	n/a	STOP	982402	n/a	LTP197	ltpFR	11	n/a	n/a	n/a	n/a	n/a	n/a	n/a	n/a	n/a	n/a	n/a	n/a	n/a	n/a	n/a
1966.018	n/a	WORD	983009	wordpools/wasnorm_wordpool_less_exclusions.txt	LTP197	ltpFR	11	8	1	APPLE	33	n/a	0	n/a	0	0	0	1	0.412841796875	0.57763671875	lower	../fonts/zerothre.ttf
1969.03	n/a	START	984515	n/a	LTP197	ltpFR	11	n/a	n/a	n/a	n/a	n/a	n/a	n/a	n/a	n/a	n/a	n/a	n/a	n/a	n/a	n/a
1970.116	n/a	PROB	985058	n/a	LTP197	ltpFR	11	n/a	n/a	n/a	n/a	n/a	n/a	18	8	6	4	n/a	n/a	n/a	n/a	n/a
1971.522	n/a	PROB	985761	n/a	LTP197	ltpFR	11	n/a	n/a	n/a	n/a	n/a	n/a	16	6	2	8	n/a	n/a	n/a	n/a	n/a
1972.944	n/a	PROB	986472	n/a	LTP197	ltpFR	11	n/a	n/a	n/a	n/a	n/a	n/a	7	4	1	2	n/a	n/a	n/a	n/a	n/a
1975.208	n/a	PROB	987604	n/a	LTP197	ltpFR	11	n/a	n/a	n/a	n/a	n/a	n/a	16	8	7	2	n/a	n/a	n/a	n/a	n/a
1977.36	n/a	PROB	988680	n/a	LTP197	ltpFR	11	n/a	n/a	n/a	n/a	n/a	n/a	8	2	5	1	n/a	n/a	n/a	n/a	n/a
1979.692	n/a	PROB	989846	n/a	LTP197	ltpFR	11	n/a	n/a	n/a	n/a	n/a	n/a	16	3	6	7	n/a	n/a	n/a	n/a	n/a
1981.85	n/a	PROB	990925	n/a	LTP197	ltpFR	11	n/a	n/a	n/a	n/a	n/a	n/a	12	8	2	2	n/a	n/a	n/a	n/a	n/a
1983.686	n/a	STOP	991843	n/a	LTP197	ltpFR	11	n/a	n/a	n/a	n/a	n/a	n/a	n/a	n/a	n/a	n/a	n/a	n/a	n/a	n/a	n/a
1986.01	n/a	WORD	993005	wordpools/wasnorm_wordpool_less_exclusions.txt	LTP197	ltpFR	11	8	1	ROBE	1198	n/a	0	n/a	0	0	0	1	0.412841796875	0.57763671875	lower	../fonts/zerothre.ttf
1989.022	n/a	START	994511	n/a	LTP197	ltpFR	11	n/a	n/a	n/a	n/a	n/a	n/a	n/a	n/a	n/a	n/a	n/a	n/a	n/a	n/a	n/a
1989.932	n/a	PROB	994966	n/a	LTP197	ltpFR	11	n/a	n/a	n/a	n/a	n/a	n/a	25	9	9	6	n/a	n/a	n/a	n/a	n/a
1992.224	n/a	PROB	996112	n/a	LTP197	ltpFR	11	n/a	n/a	n/a	n/a	n/a	n/a	7	1	2	4	n/a	n/a	n/a	n/a	n/a
1994.376	n/a	PROB	997188	n/a	LTP197	ltpFR	11	n/a	n/a	n/a	n/a	n/a	n/a	11	1	3	7	n/a	n/a	n/a	n/a	n/a
1996.516	n/a	PROB	998258	n/a	LTP197	ltpFR	11	n/a	n/a	n/a	n/a	n/a	n/a	15	4	4	7	n/a	n/a	n/a	n/a	n/a
1998.156	n/a	PROB	999078	n/a	LTP197	ltpFR	11	n/a	n/a	n/a	n/a	n/a	n/a	18	9	6	3	n/a	n/a	n/a	n/a	n/a
2000.472	n/a	PROB	1000236	n/a	LTP197	ltpFR	11	n/a	n/a	n/a	n/a	n/a	n/a	17	1	8	8	n/a	n/a	n/a	n/a	n/a
2002.306	n/a	PROB	1001153	n/a	LTP197	ltpFR	11	n/a	n/a	n/a	n/a	n/a	n/a	4	1	2	1	n/a	n/a	n/a	n/a	n/a
2003.744	n/a	STOP	1001872	n/a	LTP197	ltpFR	11	n/a	n/a	n/a	n/a	n/a	n/a	n/a	n/a	n/a	n/a	n/a	n/a	n/a	n/a	n/a
2006.044	n/a	WORD	1003022	wordpools/wasnorm_wordpool_less_exclusions.txt	LTP197	ltpFR	11	8	1	RAG	1160	n/a	0	n/a	0	0	0	1	0.412841796875	0.57763671875	lower	../fonts/zerothre.ttf
2009.056	n/a	START	1004528	n/a	LTP197	ltpFR	11	n/a	n/a	n/a	n/a	n/a	n/a	n/a	n/a	n/a	n/a	n/a	n/a	n/a	n/a	n/a
2010.102	n/a	PROB	1005051	n/a	LTP197	ltpFR	11	n/a	n/a	n/a	n/a	n/a	n/a	7	5	1	1	n/a	n/a	n/a	n/a	n/a
2011.43	n/a	PROB	1005715	n/a	LTP197	ltpFR	11	n/a	n/a	n/a	n/a	n/a	n/a	17	6	6	5	n/a	n/a	n/a	n/a	n/a
2013.154	n/a	PROB	1006577	n/a	LTP197	ltpFR	11	n/a	n/a	n/a	n/a	n/a	n/a	18	9	6	3	n/a	n/a	n/a	n/a	n/a
2015.122	n/a	PROB	1007561	n/a	LTP197	ltpFR	11	n/a	n/a	n/a	n/a	n/a	n/a	12	3	5	5	n/a	n/a	n/a	n/a	n/a
2018.2	n/a	PROB	1009100	n/a	LTP197	ltpFR	11	n/a	n/a	n/a	n/a	n/a	n/a	6	3	2	1	n/a	n/a	n/a	n/a	n/a
2020.056	n/a	PROB	1010028	n/a	LTP197	ltpFR	11	n/a	n/a	n/a	n/a	n/a	n/a	11	8	2	1	n/a	n/a	n/a	n/a	n/a
2021.514	n/a	PROB	1010757	n/a	LTP197	ltpFR	11	n/a	n/a	n/a	n/a	n/a	n/a	19	3	9	7	n/a	n/a	n/a	n/a	n/a
2023.728	n/a	STOP	1011864	n/a	LTP197	ltpFR	11	n/a	n/a	n/a	n/a	n/a	n/a	n/a	n/a	n/a	n/a	n/a	n/a	n/a	n/a	n/a
2026.188	n/a	WORD	1013094	wordpools/wasnorm_wordpool_less_exclusions.txt	LTP197	ltpFR	11	8	1	PEARL	1034	n/a	0	n/a	0	0	0	1	0.412841796875	0.57763671875	lower	../fonts/zerothre.ttf
2029.2	n/a	START	1014600	n/a	LTP197	ltpFR	11	n/a	n/a	n/a	n/a	n/a	n/a	n/a	n/a	n/a	n/a	n/a	n/a	n/a	n/a	n/a
2030.402	n/a	PROB	1015201	n/a	LTP197	ltpFR	11	n/a	n/a	n/a	n/a	n/a	n/a	17	7	6	4	n/a	n/a	n/a	n/a	n/a
2033.006	n/a	PROB	1016503	n/a	LTP197	ltpFR	11	n/a	n/a	n/a	n/a	n/a	n/a	22	9	4	9	n/a	n/a	n/a	n/a	n/a
2034.846	n/a	PROB	1017423	n/a	LTP197	ltpFR	11	n/a	n/a	n/a	n/a	n/a	n/a	12	6	1	5	n/a	n/a	n/a	n/a	n/a
2036.42	n/a	PROB	1018210	n/a	LTP197	ltpFR	11	n/a	n/a	n/a	n/a	n/a	n/a	19	2	9	8	n/a	n/a	n/a	n/a	n/a
2038.116	n/a	PROB	1019058	n/a	LTP197	ltpFR	11	n/a	n/a	n/a	n/a	n/a	n/a	19	9	2	8	n/a	n/a	n/a	n/a	n/a
2039.882	n/a	PROB	1019941	n/a	LTP197	ltpFR	11	n/a	n/a	n/a	n/a	n/a	n/a	16	2	9	5	n/a	n/a	n/a	n/a	n/a
2041.69	n/a	PROB	1020845	n/a	LTP197	ltpFR	11	n/a	n/a	n/a	n/a	n/a	n/a	15	6	1	8	n/a	n/a	n/a	n/a	n/a
2043.42	n/a	PROB	1021710	n/a	LTP197	ltpFR	11	n/a	n/a	n/a	n/a	n/a	n/a	9	1	7	1	n/a	n/a	n/a	n/a	n/a
2044.69	n/a	STOP	1022345	n/a	LTP197	ltpFR	11	n/a	n/a	n/a	n/a	n/a	n/a	n/a	n/a	n/a	n/a	n/a	n/a	n/a	n/a	n/a
2046.164	n/a	WORD	1023082	wordpools/wasnorm_wordpool_less_exclusions.txt	LTP197	ltpFR	11	8	0	SWATTER	1418	n/a	1	n/a	0	0	0	0	0.5869140625	0.422607421875	upper	../fonts/amplitud.ttf
2049.176	n/a	START	1024588	n/a	LTP197	ltpFR	11	n/a	n/a	n/a	n/a	n/a	n/a	n/a	n/a	n/a	n/a	n/a	n/a	n/a	n/a	n/a
2050.146	n/a	PROB	1025073	n/a	LTP197	ltpFR	11	n/a	n/a	n/a	n/a	n/a	n/a	11	5	5	1	n/a	n/a	n/a	n/a	n/a
2051.366	n/a	PROB	1025683	n/a	LTP197	ltpFR	11	n/a	n/a	n/a	n/a	n/a	n/a	16	4	5	7	n/a	n/a	n/a	n/a	n/a
2053.184	n/a	PROB	1026592	n/a	LTP197	ltpFR	11	n/a	n/a	n/a	n/a	n/a	n/a	20	4	9	7	n/a	n/a	n/a	n/a	n/a
2055.432	n/a	PROB	1027716	n/a	LTP197	ltpFR	11	n/a	n/a	n/a	n/a	n/a	n/a	10	5	2	3	n/a	n/a	n/a	n/a	n/a
2057.422	n/a	PROB	1028711	n/a	LTP197	ltpFR	11	n/a	n/a	n/a	n/a	n/a	n/a	13	5	6	2	n/a	n/a	n/a	n/a	n/a
2059.172	n/a	PROB	1029586	n/a	LTP197	ltpFR	11	n/a	n/a	n/a	n/a	n/a	n/a	17	9	5	3	n/a	n/a	n/a	n/a	n/a
2061.238	n/a	PROB	1030619	n/a	LTP197	ltpFR	11	n/a	n/a	n/a	n/a	n/a	n/a	15	2	5	8	n/a	n/a	n/a	n/a	n/a
2063.112	n/a	PROB	1031556	n/a	LTP197	ltpFR	11	n/a	n/a	n/a	n/a	n/a	n/a	16	8	4	4	n/a	n/a	n/a	n/a	n/a
2064.578	n/a	STOP	1032289	n/a	LTP197	ltpFR	11	n/a	n/a	n/a	n/a	n/a	n/a	n/a	n/a	n/a	n/a	n/a	n/a	n/a	n/a	n/a
2066.268	n/a	WORD	1033134	wordpools/wasnorm_wordpool_less_exclusions.txt	LTP197	ltpFR	11	8	0	LUNG	850	n/a	1	n/a	0	0	0	0	0.5869140625	0.422607421875	upper	../fonts/amplitud.ttf
2069.28	n/a	START	1034640	n/a	LTP197	ltpFR	11	n/a	n/a	n/a	n/a	n/a	n/a	n/a	n/a	n/a	n/a	n/a	n/a	n/a	n/a	n/a
2070.282	n/a	PROB	1035141	n/a	LTP197	ltpFR	11	n/a	n/a	n/a	n/a	n/a	n/a	19	9	8	2	n/a	n/a	n/a	n/a	n/a
2072.592	n/a	PROB	1036296	n/a	LTP197	ltpFR	11	n/a	n/a	n/a	n/a	n/a	n/a	19	6	6	6	n/a	n/a	n/a	n/a	n/a
2074.304	n/a	PROB	1037152	n/a	LTP197	ltpFR	11	n/a	n/a	n/a	n/a	n/a	n/a	9	3	4	2	n/a	n/a	n/a	n/a	n/a
2075.886	n/a	PROB	1037943	n/a	LTP197	ltpFR	11	n/a	n/a	n/a	n/a	n/a	n/a	19	8	4	7	n/a	n/a	n/a	n/a	n/a
2077.684	n/a	PROB	1038842	n/a	LTP197	ltpFR	11	n/a	n/a	n/a	n/a	n/a	n/a	12	3	5	4	n/a	n/a	n/a	n/a	n/a
2079.39	n/a	PROB	1039695	n/a	LTP197	ltpFR	11	n/a	n/a	n/a	n/a	n/a	n/a	25	9	9	7	n/a	n/a	n/a	n/a	n/a
2081.13	n/a	PROB	1040565	n/a	LTP197	ltpFR	11	n/a	n/a	n/a	n/a	n/a	n/a	12	2	1	9	n/a	n/a	n/a	n/a	n/a
2082.696	n/a	PROB	1041348	n/a	LTP197	ltpFR	11	n/a	n/a	n/a	n/a	n/a	n/a	12	3	2	7	n/a	n/a	n/a	n/a	n/a
2084.476	n/a	STOP	1042238	n/a	LTP197	ltpFR	11	n/a	n/a	n/a	n/a	n/a	n/a	n/a	n/a	n/a	n/a	n/a	n/a	n/a	n/a	n/a
2086.3	n/a	WORD	1043150	wordpools/wasnorm_wordpool_less_exclusions.txt	LTP197	ltpFR	11	8	0	EMPEROR	529	n/a	1	n/a	0	0	0	0	0.5869140625	0.422607421875	upper	../fonts/amplitud.ttf
2089.312	n/a	START	1044656	n/a	LTP197	ltpFR	11	n/a	n/a	n/a	n/a	n/a	n/a	n/a	n/a	n/a	n/a	n/a	n/a	n/a	n/a	n/a
2090.316	n/a	PROB	1045158	n/a	LTP197	ltpFR	11	n/a	n/a	n/a	n/a	n/a	n/a	20	4	8	8	n/a	n/a	n/a	n/a	n/a
2092.45	n/a	PROB	1046225	n/a	LTP197	ltpFR	11	n/a	n/a	n/a	n/a	n/a	n/a	12	4	4	4	n/a	n/a	n/a	n/a	n/a
2094.658	n/a	PROB	1047329	n/a	LTP197	ltpFR	11	n/a	n/a	n/a	n/a	n/a	n/a	14	7	4	3	n/a	n/a	n/a	n/a	n/a
2096.382	n/a	PROB	1048191	n/a	LTP197	ltpFR	11	n/a	n/a	n/a	n/a	n/a	n/a	15	8	3	6	n/a	n/a	n/a	n/a	n/a
2098.24	n/a	PROB	1049120	n/a	LTP197	ltpFR	11	n/a	n/a	n/a	n/a	n/a	n/a	18	9	5	4	n/a	n/a	n/a	n/a	n/a
2099.986	n/a	PROB	1049993	n/a	LTP197	ltpFR	11	n/a	n/a	n/a	n/a	n/a	n/a	17	4	6	7	n/a	n/a	n/a	n/a	n/a
2101.658	n/a	PROB	1050829	n/a	LTP197	ltpFR	11	n/a	n/a	n/a	n/a	n/a	n/a	16	1	7	8	n/a	n/a	n/a	n/a	n/a
2103.426	n/a	PROB	1051713	n/a	LTP197	ltpFR	11	n/a	n/a	n/a	n/a	n/a	n/a	11	4	3	4	n/a	n/a	n/a	n/a	n/a
2104.932	n/a	STOP	1052466	n/a	LTP197	ltpFR	11	n/a	n/a	n/a	n/a	n/a	n/a	n/a	n/a	n/a	n/a	n/a	n/a	n/a	n/a	n/a
2106.176	n/a	WORD	1053088	wordpools/wasnorm_wordpool_less_exclusions.txt	LTP197	ltpFR	11	8	0	TURKEY	1520	n/a	1	n/a	0	0	0	0	0.5869140625	0.422607421875	upper	../fonts/amplitud.ttf
2109.188	n/a	START	1054594	n/a	LTP197	ltpFR	11	n/a	n/a	n/a	n/a	n/a	n/a	n/a	n/a	n/a	n/a	n/a	n/a	n/a	n/a	n/a
2110.058	n/a	PROB	1055029	n/a	LTP197	ltpFR	11	n/a	n/a	n/a	n/a	n/a	n/a	18	8	5	5	n/a	n/a	n/a	n/a	n/a
2111.49	n/a	PROB	1055745	n/a	LTP197	ltpFR	11	n/a	n/a	n/a	n/a	n/a	n/a	13	4	2	7	n/a	n/a	n/a	n/a	n/a
2113.112	n/a	PROB	1056556	n/a	LTP197	ltpFR	11	n/a	n/a	n/a	n/a	n/a	n/a	14	6	3	5	n/a	n/a	n/a	n/a	n/a
2114.634	n/a	PROB	1057317	n/a	LTP197	ltpFR	11	n/a	n/a	n/a	n/a	n/a	n/a	16	2	9	5	n/a	n/a	n/a	n/a	n/a
2116.192	n/a	PROB	1058096	n/a	LTP197	ltpFR	11	n/a	n/a	n/a	n/a	n/a	n/a	18	3	6	9	n/a	n/a	n/a	n/a	n/a
2117.788	n/a	PROB	1058894	n/a	LTP197	ltpFR	11	n/a	n/a	n/a	n/a	n/a	n/a	16	7	8	1	n/a	n/a	n/a	n/a	n/a
2119.504	n/a	PROB	1059752	n/a	LTP197	ltpFR	11	n/a	n/a	n/a	n/a	n/a	n/a	14	1	6	7	n/a	n/a	n/a	n/a	n/a
2120.882	n/a	PROB	1060441	n/a	LTP197	ltpFR	11	n/a	n/a	n/a	n/a	n/a	n/a	12	6	4	2	n/a	n/a	n/a	n/a	n/a
2122.532	n/a	PROB	1061266	n/a	LTP197	ltpFR	11	n/a	n/a	n/a	n/a	n/a	n/a	14	5	6	3	n/a	n/a	n/a	n/a	n/a
2123.918	n/a	STOP	1061959	n/a	LTP197	ltpFR	11	n/a	n/a	n/a	n/a	n/a	n/a	n/a	n/a	n/a	n/a	n/a	n/a	n/a	n/a	n/a
2126.264	n/a	WORD	1063132	wordpools/wasnorm_wordpool_less_exclusions.txt	LTP197	ltpFR	11	8	0	COMPANION	357	n/a	3	n/a	0	0	0	0	0.5869140625	0.422607421875	upper	../fonts/amplitud.ttf
2127.842	n/a	KEY_MSG	1063921	n/a	LTP197	ltpFR	11	8	n/a	n/a	n/a	n/a	n/a	n/a	0	0	0	n/a	n/a	n/a	n/a	n/a
2129.376	n/a	START	1064688	n/a	LTP197	ltpFR	11	n/a	n/a	n/a	n/a	n/a	n/a	n/a	n/a	n/a	n/a	n/a	n/a	n/a	n/a	n/a
2130.346	n/a	PROB	1065173	n/a	LTP197	ltpFR	11	n/a	n/a	n/a	n/a	n/a	n/a	16	4	6	6	n/a	n/a	n/a	n/a	n/a
2131.806	n/a	PROB	1065903	n/a	LTP197	ltpFR	11	n/a	n/a	n/a	n/a	n/a	n/a	12	4	2	8	n/a	n/a	n/a	n/a	n/a
2133.808	n/a	PROB	1066904	n/a	LTP197	ltpFR	11	n/a	n/a	n/a	n/a	n/a	n/a	10	1	5	4	n/a	n/a	n/a	n/a	n/a
2135.466	n/a	PROB	1067733	n/a	LTP197	ltpFR	11	n/a	n/a	n/a	n/a	n/a	n/a	16	8	5	3	n/a	n/a	n/a	n/a	n/a
2137.79	n/a	PROB	1068895	n/a	LTP197	ltpFR	11	n/a	n/a	n/a	n/a	n/a	n/a	17	4	9	4	n/a	n/a	n/a	n/a	n/a
2140.892	n/a	PROB	1070446	n/a	LTP197	ltpFR	11	n/a	n/a	n/a	n/a	n/a	n/a	17	6	3	8	n/a	n/a	n/a	n/a	n/a
2145.376	n/a	STOP	1072688	n/a	LTP197	ltpFR	11	n/a	n/a	n/a	n/a	n/a	n/a	n/a	n/a	n/a	n/a	n/a	n/a	n/a	n/a	n/a
2146.596	n/a	WORD	1073298	wordpools/wasnorm_wordpool_less_exclusions.txt	LTP197	ltpFR	11	8	0	MARKET	871	n/a	1	n/a	0	0	0	0	0.5869140625	0.422607421875	upper	../fonts/amplitud.ttf
2149.608	n/a	START	1074804	n/a	LTP197	ltpFR	11	n/a	n/a	n/a	n/a	n/a	n/a	n/a	n/a	n/a	n/a	n/a	n/a	n/a	n/a	n/a
2150.762	n/a	PROB	1075381	n/a	LTP197	ltpFR	11	n/a	n/a	n/a	n/a	n/a	n/a	12	2	5	5	n/a	n/a	n/a	n/a	n/a
2152.246	n/a	PROB	1076123	n/a	LTP197	ltpFR	11	n/a	n/a	n/a	n/a	n/a	n/a	22	6	8	8	n/a	n/a	n/a	n/a	n/a
2154.154	n/a	PROB	1077077	n/a	LTP197	ltpFR	11	n/a	n/a	n/a	n/a	n/a	n/a	18	6	8	4	n/a	n/a	n/a	n/a	n/a
2156.066	n/a	PROB	1078033	n/a	LTP197	ltpFR	11	n/a	n/a	n/a	n/a	n/a	n/a	18	7	5	6	n/a	n/a	n/a	n/a	n/a
2158.726	n/a	PROB	1079363	n/a	LTP197	ltpFR	11	n/a	n/a	n/a	n/a	n/a	n/a	19	9	5	5	n/a	n/a	n/a	n/a	n/a
2160.042	n/a	PROB	1080021	n/a	LTP197	ltpFR	11	n/a	n/a	n/a	n/a	n/a	n/a	23	7	9	7	n/a	n/a	n/a	n/a	n/a
2161.888	n/a	PROB	1080944	n/a	LTP197	ltpFR	11	n/a	n/a	n/a	n/a	n/a	n/a	12	7	2	3	n/a	n/a	n/a	n/a	n/a
2165.608	n/a	STOP	1082804	n/a	LTP197	ltpFR	11	n/a	n/a	n/a	n/a	n/a	n/a	n/a	n/a	n/a	n/a	n/a	n/a	n/a	n/a	n/a
2166.768	n/a	WORD	1083384	wordpools/wasnorm_wordpool_less_exclusions.txt	LTP197	ltpFR	11	8	1	SHRIMP	1297	n/a	1	n/a	0	0	0	1	0.412841796875	0.57763671875	lower	../fonts/zerothre.ttf
2169.78	n/a	START	1084890	n/a	LTP197	ltpFR	11	n/a	n/a	n/a	n/a	n/a	n/a	n/a	n/a	n/a	n/a	n/a	n/a	n/a	n/a	n/a
2170.816	n/a	PROB	1085408	n/a	LTP197	ltpFR	11	n/a	n/a	n/a	n/a	n/a	n/a	20	7	9	4	n/a	n/a	n/a	n/a	n/a
2173.478	n/a	PROB	1086739	n/a	LTP197	ltpFR	11	n/a	n/a	n/a	n/a	n/a	n/a	8	3	2	3	n/a	n/a	n/a	n/a	n/a
2175.926	n/a	PROB	1087963	n/a	LTP197	ltpFR	11	n/a	n/a	n/a	n/a	n/a	n/a	10	4	4	2	n/a	n/a	n/a	n/a	n/a
2177.492	n/a	PROB	1088746	n/a	LTP197	ltpFR	11	n/a	n/a	n/a	n/a	n/a	n/a	20	8	8	4	n/a	n/a	n/a	n/a	n/a
2179.138	n/a	PROB	1089569	n/a	LTP197	ltpFR	11	n/a	n/a	n/a	n/a	n/a	n/a	17	5	4	8	n/a	n/a	n/a	n/a	n/a
2181.274	n/a	PROB	1090637	n/a	LTP197	ltpFR	11	n/a	n/a	n/a	n/a	n/a	n/a	16	9	4	3	n/a	n/a	n/a	n/a	n/a
2182.886	n/a	PROB	1091443	n/a	LTP197	ltpFR	11	n/a	n/a	n/a	n/a	n/a	n/a	16	5	9	2	n/a	n/a	n/a	n/a	n/a
2184.32	n/a	STOP	1092160	n/a	LTP197	ltpFR	11	n/a	n/a	n/a	n/a	n/a	n/a	n/a	n/a	n/a	n/a	n/a	n/a	n/a	n/a	n/a
2186.918	n/a	WORD	1093459	wordpools/wasnorm_wordpool_less_exclusions.txt	LTP197	ltpFR	11	8	1	RING	1193	n/a	0	n/a	0	0	0	1	0.412841796875	0.57763671875	lower	../fonts/zerothre.ttf
2189.93	n/a	START	1094965	n/a	LTP197	ltpFR	11	n/a	n/a	n/a	n/a	n/a	n/a	n/a	n/a	n/a	n/a	n/a	n/a	n/a	n/a	n/a
2190.982	n/a	PROB	1095491	n/a	LTP197	ltpFR	11	n/a	n/a	n/a	n/a	n/a	n/a	16	9	4	6	n/a	n/a	n/a	n/a	n/a
2192.556	n/a	PROB	1096278	n/a	LTP197	ltpFR	11	n/a	n/a	n/a	n/a	n/a	n/a	14	7	5	2	n/a	n/a	n/a	n/a	n/a
2194.424	n/a	PROB	1097212	n/a	LTP197	ltpFR	11	n/a	n/a	n/a	n/a	n/a	n/a	7	2	2	3	n/a	n/a	n/a	n/a	n/a
2196.598	n/a	PROB	1098299	n/a	LTP197	ltpFR	11	n/a	n/a	n/a	n/a	n/a	n/a	7	1	2	4	n/a	n/a	n/a	n/a	n/a
2199.024	n/a	PROB	1099512	n/a	LTP197	ltpFR	11	n/a	n/a	n/a	n/a	n/a	n/a	9	1	1	7	n/a	n/a	n/a	n/a	n/a
2200.436	n/a	PROB	1100218	n/a	LTP197	ltpFR	11	n/a	n/a	n/a	n/a	n/a	n/a	15	6	1	8	n/a	n/a	n/a	n/a	n/a
2202.354	n/a	PROB	1101177	n/a	LTP197	ltpFR	11	n/a	n/a	n/a	n/a	n/a	n/a	13	1	8	4	n/a	n/a	n/a	n/a	n/a
2205.914	n/a	STOP	1102957	n/a	LTP197	ltpFR	11	n/a	n/a	n/a	n/a	n/a	n/a	n/a	n/a	n/a	n/a	n/a	n/a	n/a	n/a	n/a
2207.144	n/a	WORD	1103572	wordpools/wasnorm_wordpool_less_exclusions.txt	LTP197	ltpFR	11	8	0	FRIEND	606	n/a	1	n/a	0	0	0	0	0.5869140625	0.422607421875	upper	../fonts/amplitud.ttf
2210.156	n/a	START	1105078	n/a	LTP197	ltpFR	11	n/a	n/a	n/a	n/a	n/a	n/a	n/a	n/a	n/a	n/a	n/a	n/a	n/a	n/a	n/a
2211.078	n/a	PROB	1105539	n/a	LTP197	ltpFR	11	n/a	n/a	n/a	n/a	n/a	n/a	17	6	6	5	n/a	n/a	n/a	n/a	n/a
2212.884	n/a	PROB	1106442	n/a	LTP197	ltpFR	11	n/a	n/a	n/a	n/a	n/a	n/a	22	8	6	6	n/a	n/a	n/a	n/a	n/a
2215.036	n/a	PROB	1107518	n/a	LTP197	ltpFR	11	n/a	n/a	n/a	n/a	n/a	n/a	19	4	9	6	n/a	n/a	n/a	n/a	n/a
2217.278	n/a	PROB	1108639	n/a	LTP197	ltpFR	11	n/a	n/a	n/a	n/a	n/a	n/a	18	9	4	5	n/a	n/a	n/a	n/a	n/a
2218.772	n/a	PROB	1109386	n/a	LTP197	ltpFR	11	n/a	n/a	n/a	n/a	n/a	n/a	12	4	2	6	n/a	n/a	n/a	n/a	n/a
2220.808	n/a	PROB	1110404	n/a	LTP197	ltpFR	11	n/a	n/a	n/a	n/a	n/a	n/a	16	6	8	2	n/a	n/a	n/a	n/a	n/a
2222.604	n/a	PROB	1111302	n/a	LTP197	ltpFR	11	n/a	n/a	n/a	n/a	n/a	n/a	17	5	3	9	n/a	n/a	n/a	n/a	n/a
2226.156	n/a	STOP	1113078	n/a	LTP197	ltpFR	11	n/a	n/a	n/a	n/a	n/a	n/a	n/a	n/a	n/a	n/a	n/a	n/a	n/a	n/a	n/a
2227.356	n/a	WORD	1113678	wordpools/wasnorm_wordpool_less_exclusions.txt	LTP197	ltpFR	11	8	0	TREASURE	1500	n/a	1	n/a	0	0	0	0	0.5869140625	0.422607421875	upper	../fonts/amplitud.ttf
2230.368	n/a	START	1115184	n/a	LTP197	ltpFR	11	n/a	n/a	n/a	n/a	n/a	n/a	n/a	n/a	n/a	n/a	n/a	n/a	n/a	n/a	n/a
2231.454	n/a	PROB	1115727	n/a	LTP197	ltpFR	11	n/a	n/a	n/a	n/a	n/a	n/a	17	6	9	2	n/a	n/a	n/a	n/a	n/a
2234.394	n/a	PROB	1117197	n/a	LTP197	ltpFR	11	n/a	n/a	n/a	n/a	n/a	n/a	15	3	5	7	n/a	n/a	n/a	n/a	n/a
2235.816	n/a	PROB	1117908	n/a	LTP197	ltpFR	11	n/a	n/a	n/a	n/a	n/a	n/a	11	1	6	4	n/a	n/a	n/a	n/a	n/a
2237.204	n/a	PROB	1118602	n/a	LTP197	ltpFR	11	n/a	n/a	n/a	n/a	n/a	n/a	18	1	8	9	n/a	n/a	n/a	n/a	n/a
2238.894	n/a	PROB	1119447	n/a	LTP197	ltpFR	11	n/a	n/a	n/a	n/a	n/a	n/a	13	6	5	2	n/a	n/a	n/a	n/a	n/a
2240.822	n/a	PROB	1120411	n/a	LTP197	ltpFR	11	n/a	n/a	n/a	n/a	n/a	n/a	23	9	6	8	n/a	n/a	n/a	n/a	n/a
2243.628	n/a	PROB	1121814	n/a	LTP197	ltpFR	11	n/a	n/a	n/a	n/a	n/a	n/a	15	2	6	7	n/a	n/a	n/a	n/a	n/a
2245.708	n/a	STOP	1122854	n/a	LTP197	ltpFR	11	n/a	n/a	n/a	n/a	n/a	n/a	n/a	n/a	n/a	n/a	n/a	n/a	n/a	n/a	n/a
2248.162	n/a	REC_START	1124081	n/a	LTP197	ltpFR	11	8	n/a	n/a	n/a	n/a	n/a	n/a	0	0	0	n/a	n/a	n/a	n/a	n/a
2250.168	n/a	REC_WORD	1125084	wordpools/wasnorm_wordpool_less_exclusions.txt	LTP197	ltpFR	11	8	0	FRIEND	606	n/a	1	n/a	0	0	0	n/a	n/a	n/a	n/a	n/a
2251.156	n/a	REC_WORD	1125578	wordpools/wasnorm_wordpool_less_exclusions.txt	LTP197	ltpFR	11	8	0	EMPEROR	529	n/a	1	n/a	0	0	0	n/a	n/a	n/a	n/a	n/a
2252.478	n/a	REC_WORD	1126239	wordpools/wasnorm_wordpool_less_exclusions.txt	LTP197	ltpFR	11	8	n/a	MARKETPLACE	-1	n/a	n/a	n/a	0	0	0	n/a	n/a	n/a	n/a	n/a
2253.478	n/a	REC_WORD_VV	1126739	wordpools/wasnorm_wordpool_less_exclusions.txt	LTP197	ltpFR	11	8	n/a	<>	-1	n/a	n/a	n/a	0	0	0	n/a	n/a	n/a	n/a	n/a
2256.42	n/a	REC_WORD	1128210	wordpools/wasnorm_wordpool_less_exclusions.txt	LTP197	ltpFR	11	8	1	PEARL	1034	n/a	0	n/a	0	0	0	n/a	n/a	n/a	n/a	n/a
2257.192	n/a	REC_WORD	1128596	wordpools/wasnorm_wordpool_less_exclusions.txt	LTP197	ltpFR	11	8	1	ROBE	1198	n/a	0	n/a	0	0	0	n/a	n/a	n/a	n/a	n/a
2258.196	n/a	REC_WORD	1129098	wordpools/wasnorm_wordpool_less_exclusions.txt	LTP197	ltpFR	11	8	1	RAG	1160	n/a	0	n/a	0	0	0	n/a	n/a	n/a	n/a	n/a
2261.892	n/a	REC_WORD	1130946	wordpools/wasnorm_wordpool_less_exclusions.txt	LTP197	ltpFR	11	8	1	SHORTCAKE	1292	n/a	0	n/a	0	0	0	n/a	n/a	n/a	n/a	n/a
2262.78	n/a	REC_WORD	1131390	wordpools/wasnorm_wordpool_less_exclusions.txt	LTP197	ltpFR	11	8	1	CELERY	266	n/a	0	n/a	0	0	0	n/a	n/a	n/a	n/a	n/a
2263.732	n/a	REC_WORD	1131866	wordpools/wasnorm_wordpool_less_exclusions.txt	LTP197	ltpFR	11	8	1	APPLE	33	n/a	0	n/a	0	0	0	n/a	n/a	n/a	n/a	n/a
2329.992	n/a	WORD	1164996	wordpools/wasnorm_wordpool_less_exclusions.txt	LTP197	ltpFR	11	9	1	BURGLAR	200	n/a	1	n/a	0	0	0	1	0.412841796875	0.57763671875	lower	../fonts/zerothre.ttf
2333.912	n/a	WORD	1166956	wordpools/wasnorm_wordpool_less_exclusions.txt	LTP197	ltpFR	11	9	1	QUEEN	1149	n/a	1	n/a	0	0	0	1	0.412841796875	0.57763671875	lower	../fonts/zerothre.ttf
2337.81	n/a	WORD	1168905	wordpools/wasnorm_wordpool_less_exclusions.txt	LTP197	ltpFR	11	9	1	SPIT	1354	n/a	0	n/a	0	0	0	1	0.412841796875	0.57763671875	lower	../fonts/zerothre.ttf
2341.692	n/a	WORD	1170846	wordpools/wasnorm_wordpool_less_exclusions.txt	LTP197	ltpFR	11	9	0	BOOK	149	n/a	0	n/a	0	0	0	0	0.5869140625	0.422607421875	upper	../fonts/amplitud.ttf
2345.908	n/a	WORD	1172954	wordpools/wasnorm_wordpool_less_exclusions.txt	LTP197	ltpFR	11	9	0	ROOSTER	1209	n/a	1	n/a	0	0	0	0	0.5869140625	0.422607421875	upper	../fonts/amplitud.ttf
2350.118	n/a	WORD	1175059	wordpools/wasnorm_wordpool_less_exclusions.txt	LTP197	ltpFR	11	9	0	MEAT	883	n/a	1	n/a	0	0	0	0	0.5869140625	0.422607421875	upper	../fonts/amplitud.ttf
2354.09	n/a	WORD	1177045	wordpools/wasnorm_wordpool_less_exclusions.txt	LTP197	ltpFR	11	9	0	JUG	762	n/a	1	n/a	0	0	0	0	0.5869140625	0.422607421875	upper	../fonts/amplitud.ttf
2358.188	n/a	WORD	1179094	wordpools/wasnorm_wordpool_less_exclusions.txt	LTP197	ltpFR	11	9	0	LEADER	807	n/a	1	n/a	0	0	0	0	0.5869140625	0.422607421875	upper	../fonts/amplitud.ttf
2362.414	n/a	WORD	1181207	wordpools/wasnorm_wordpool_less_exclusions.txt	LTP197	ltpFR	11	9	1	SENATOR	1268	n/a	1	n/a	0	0	0	1	0.412841796875	0.57763671875	lower	../fonts/zerothre.ttf
2366.638	n/a	WORD	1183319	wordpools/wasnorm_wordpool_less_exclusions.txt	LTP197	ltpFR	11	9	1	HOSE	720	n/a	0	n/a	0	0	0	1	0.412841796875	0.57763671875	lower	../fonts/zerothre.ttf
2370.462	n/a	WORD	1185231	wordpools/wasnorm_wordpool_less_exclusions.txt	LTP197	ltpFR	11	9	1	FUGITIVE	612	n/a	1	n/a	0	0	0	1	0.412841796875	0.57763671875	lower	../fonts/zerothre.ttf
2374.36	n/a	WORD	1187180	wordpools/wasnorm_wordpool_less_exclusions.txt	LTP197	ltpFR	11	9	1	HEN	703	n/a	0	n/a	0	0	0	1	0.412841796875	0.57763671875	lower	../fonts/zerothre.ttf
2378.232	n/a	WORD	1189116	wordpools/wasnorm_wordpool_less_exclusions.txt	LTP197	ltpFR	11	9	1	METEOR	889	n/a	0	n/a	0	0	0	1	0.412841796875	0.57763671875	lower	../fonts/zerothre.ttf
2382.46	n/a	WORD	1191230	wordpools/wasnorm_wordpool_less_exclusions.txt	LTP197	ltpFR	11	9	0	COMET	353	n/a	1	n/a	0	0	0	0	0.5869140625	0.422607421875	upper	../fonts/amplitud.ttf
2386.574	n/a	WORD	1193287	wordpools/wasnorm_wordpool_less_exclusions.txt	LTP197	ltpFR	11	9	0	RECIPE	1175	n/a	0	n/a	0	0	0	0	0.5869140625	0.422607421875	upper	../fonts/amplitud.ttf
2390.746	n/a	WORD	1195373	wordpools/wasnorm_wordpool_less_exclusions.txt	LTP197	ltpFR	11	9	0	RIB	1188	n/a	0	n/a	0	0	0	0	0.5869140625	0.422607421875	upper	../fonts/amplitud.ttf
2393.758	n/a	START	1196879	n/a	LTP197	ltpFR	11	n/a	n/a	n/a	n/a	n/a	n/a	n/a	n/a	n/a	n/a	n/a	n/a	n/a	n/a	n/a
2394.922	n/a	PROB	1197461	n/a	LTP197	ltpFR	11	n/a	n/a	n/a	n/a	n/a	n/a	24	9	7	8	n/a	n/a	n/a	n/a	n/a
2399.372	n/a	PROB	1199686	n/a	LTP197	ltpFR	11	n/a	n/a	n/a	n/a	n/a	n/a	12	3	7	2	n/a	n/a	n/a	n/a	n/a
2401.338	n/a	PROB	1200669	n/a	LTP197	ltpFR	11	n/a	n/a	n/a	n/a	n/a	n/a	20	2	9	9	n/a	n/a	n/a	n/a	n/a
2403.02	n/a	PROB	1201510	n/a	LTP197	ltpFR	11	n/a	n/a	n/a	n/a	n/a	n/a	10	5	1	4	n/a	n/a	n/a	n/a	n/a
2404.51	n/a	PROB	1202255	n/a	LTP197	ltpFR	11	n/a	n/a	n/a	n/a	n/a	n/a	26	9	8	9	n/a	n/a	n/a	n/a	n/a
2406.802	n/a	PROB	1203401	n/a	LTP197	ltpFR	11	n/a	n/a	n/a	n/a	n/a	n/a	16	7	4	5	n/a	n/a	n/a	n/a	n/a
2409.284	n/a	STOP	1204642	n/a	LTP197	ltpFR	11	n/a	n/a	n/a	n/a	n/a	n/a	n/a	n/a	n/a	n/a	n/a	n/a	n/a	n/a	n/a
2411.638	n/a	REC_START	1205819	n/a	LTP197	ltpFR	11	9	n/a	n/a	n/a	n/a	n/a	n/a	0	0	0	n/a	n/a	n/a	n/a	n/a
2412.734	n/a	REC_WORD	1206367	wordpools/wasnorm_wordpool_less_exclusions.txt	LTP197	ltpFR	11	9	0	ROOSTER	1209	n/a	1	n/a	0	0	0	n/a	n/a	n/a	n/a	n/a
2413.462	n/a	REC_WORD	1206731	wordpools/wasnorm_wordpool_less_exclusions.txt	LTP197	ltpFR	11	9	1	HEN	703	n/a	0	n/a	0	0	0	n/a	n/a	n/a	n/a	n/a
2415.09	n/a	REC_WORD	1207545	wordpools/wasnorm_wordpool_less_exclusions.txt	LTP197	ltpFR	11	9	0	RIB	1188	n/a	0	n/a	0	0	0	n/a	n/a	n/a	n/a	n/a
2415.868	n/a	REC_WORD	1207934	wordpools/wasnorm_wordpool_less_exclusions.txt	LTP197	ltpFR	11	9	0	MEAT	883	n/a	1	n/a	0	0	0	n/a	n/a	n/a	n/a	n/a
2419.066	n/a	REC_WORD	1209533	wordpools/wasnorm_wordpool_less_exclusions.txt	LTP197	ltpFR	11	9	1	QUEEN	1149	n/a	1	n/a	0	0	0	n/a	n/a	n/a	n/a	n/a
2420.398	n/a	REC_WORD	1210199	wordpools/wasnorm_wordpool_less_exclusions.txt	LTP197	ltpFR	11	9	1	SENATOR	1268	n/a	1	n/a	0	0	0	n/a	n/a	n/a	n/a	n/a
2421.338	n/a	REC_WORD	1210669	wordpools/wasnorm_wordpool_less_exclusions.txt	LTP197	ltpFR	11	9	1	BURGLAR	200	n/a	1	n/a	0	0	0	n/a	n/a	n/a	n/a	n/a
2422.058	n/a	REC_WORD	1211029	wordpools/wasnorm_wordpool_less_exclusions.txt	LTP197	ltpFR	11	9	1	FUGITIVE	612	n/a	1	n/a	0	0	0	n/a	n/a	n/a	n/a	n/a
2423.058	n/a	REC_WORD_VV	1211529	wordpools/wasnorm_wordpool_less_exclusions.txt	LTP197	ltpFR	11	9	n/a	<>	-1	n/a	n/a	n/a	0	0	0	n/a	n/a	n/a	n/a	n/a
2425.86	n/a	REC_WORD	1212930	wordpools/wasnorm_wordpool_less_exclusions.txt	LTP197	ltpFR	11	9	1	HOSE	720	n/a	0	n/a	0	0	0	n/a	n/a	n/a	n/a	n/a
2428.504	n/a	REC_WORD	1214252	wordpools/wasnorm_wordpool_less_exclusions.txt	LTP197	ltpFR	11	9	1	SPIT	1354	n/a	0	n/a	0	0	0	n/a	n/a	n/a	n/a	n/a
2435.498	n/a	REC_WORD	1217749	wordpools/wasnorm_wordpool_less_exclusions.txt	LTP197	ltpFR	11	9	0	LEADER	807	n/a	1	n/a	0	0	0	n/a	n/a	n/a	n/a	n/a
2489.4	n/a	START	1244700	n/a	LTP197	ltpFR	11	n/a	n/a	n/a	n/a	n/a	n/a	n/a	n/a	n/a	n/a	n/a	n/a	n/a	n/a	n/a
2490.912	n/a	PROB	1245456	n/a	LTP197	ltpFR	11	n/a	n/a	n/a	n/a	n/a	n/a	21	9	3	9	n/a	n/a	n/a	n/a	n/a
2492.998	n/a	PROB	1246499	n/a	LTP197	ltpFR	11	n/a	n/a	n/a	n/a	n/a	n/a	19	6	9	4	n/a	n/a	n/a	n/a	n/a
2495.106	n/a	PROB	1247553	n/a	LTP197	ltpFR	11	n/a	n/a	n/a	n/a	n/a	n/a	15	4	2	9	n/a	n/a	n/a	n/a	n/a
2497.106	n/a	STOP	1248553	n/a	LTP197	ltpFR	11	n/a	n/a	n/a	n/a	n/a	n/a	n/a	n/a	n/a	n/a	n/a	n/a	n/a	n/a	n/a
2498.476	n/a	WORD	1249238	wordpools/wasnorm_wordpool_less_exclusions.txt	LTP197	ltpFR	11	10	0	MOB	904	n/a	1	n/a	0	0	0	0	0.5869140625	0.422607421875	upper	../fonts/amplitud.ttf
2501.488	n/a	START	1250744	n/a	LTP197	ltpFR	11	n/a	n/a	n/a	n/a	n/a	n/a	n/a	n/a	n/a	n/a	n/a	n/a	n/a	n/a	n/a
2502.59	n/a	PROB	1251295	n/a	LTP197	ltpFR	11	n/a	n/a	n/a	n/a	n/a	n/a	7	2	1	4	n/a	n/a	n/a	n/a	n/a
2505.93	n/a	PROB	1252965	n/a	LTP197	ltpFR	11	n/a	n/a	n/a	n/a	n/a	n/a	19	5	9	5	n/a	n/a	n/a	n/a	n/a
2507.954	n/a	STOP	1253977	n/a	LTP197	ltpFR	11	n/a	n/a	n/a	n/a	n/a	n/a	n/a	n/a	n/a	n/a	n/a	n/a	n/a	n/a	n/a
2510.654	n/a	WORD	1255327	wordpools/wasnorm_wordpool_less_exclusions.txt	LTP197	ltpFR	11	10	0	TANGERINE	1431	n/a	0	n/a	0	0	0	0	0.5869140625	0.422607421875	upper	../fonts/amplitud.ttf
2513.666	n/a	START	1256833	n/a	LTP197	ltpFR	11	n/a	n/a	n/a	n/a	n/a	n/a	n/a	n/a	n/a	n/a	n/a	n/a	n/a	n/a	n/a
2514.754	n/a	PROB	1257377	n/a	LTP197	ltpFR	11	n/a	n/a	n/a	n/a	n/a	n/a	18	9	8	1	n/a	n/a	n/a	n/a	n/a
2516.972	n/a	PROB	1258486	n/a	LTP197	ltpFR	11	n/a	n/a	n/a	n/a	n/a	n/a	9	1	4	4	n/a	n/a	n/a	n/a	n/a
2518.662	n/a	PROB	1259331	n/a	LTP197	ltpFR	11	n/a	n/a	n/a	n/a	n/a	n/a	11	3	3	5	n/a	n/a	n/a	n/a	n/a
2520.09	n/a	STOP	1260045	n/a	LTP197	ltpFR	11	n/a	n/a	n/a	n/a	n/a	n/a	n/a	n/a	n/a	n/a	n/a	n/a	n/a	n/a	n/a
2522.862	n/a	WORD	1261431	wordpools/wasnorm_wordpool_less_exclusions.txt	LTP197	ltpFR	11	10	0	RUST	1219	n/a	0	n/a	0	0	0	0	0.5869140625	0.422607421875	upper	../fonts/amplitud.ttf
2525.874	n/a	START	1262937	n/a	LTP197	ltpFR	11	n/a	n/a	n/a	n/a	n/a	n/a	n/a	n/a	n/a	n/a	n/a	n/a	n/a	n/a	n/a
2527.044	n/a	PROB	1263522	n/a	LTP197	ltpFR	11	n/a	n/a	n/a	n/a	n/a	n/a	15	4	9	2	n/a	n/a	n/a	n/a	n/a
2528.884	n/a	PROB	1264442	n/a	LTP197	ltpFR	11	n/a	n/a	n/a	n/a	n/a	n/a	12	5	5	2	n/a	n/a	n/a	n/a	n/a
2530.128	n/a	PROB	1265064	n/a	LTP197	ltpFR	11	n/a	n/a	n/a	n/a	n/a	n/a	15	7	6	2	n/a	n/a	n/a	n/a	n/a
2531.718	n/a	PROB	1265859	n/a	LTP197	ltpFR	11	n/a	n/a	n/a	n/a	n/a	n/a	20	9	3	8	n/a	n/a	n/a	n/a	n/a
2533.612	n/a	STOP	1266806	n/a	LTP197	ltpFR	11	n/a	n/a	n/a	n/a	n/a	n/a	n/a	n/a	n/a	n/a	n/a	n/a	n/a	n/a	n/a
2534.774	n/a	WORD	1267387	wordpools/wasnorm_wordpool_less_exclusions.txt	LTP197	ltpFR	11	10	0	SOFA	1342	n/a	1	n/a	0	0	0	0	0.5869140625	0.422607421875	upper	../fonts/amplitud.ttf
2537.786	n/a	START	1268893	n/a	LTP197	ltpFR	11	n/a	n/a	n/a	n/a	n/a	n/a	n/a	n/a	n/a	n/a	n/a	n/a	n/a	n/a	n/a
2538.838	n/a	PROB	1269419	n/a	LTP197	ltpFR	11	n/a	n/a	n/a	n/a	n/a	n/a	19	9	7	2	n/a	n/a	n/a	n/a	n/a
2542.728	n/a	PROB	1271364	n/a	LTP197	ltpFR	11	n/a	n/a	n/a	n/a	n/a	n/a	8	4	2	2	n/a	n/a	n/a	n/a	n/a
2544.724	n/a	STOP	1272362	n/a	LTP197	ltpFR	11	n/a	n/a	n/a	n/a	n/a	n/a	n/a	n/a	n/a	n/a	n/a	n/a	n/a	n/a	n/a
