onset	duration	trial_type	sample	stim_file	subject	experiment	session	trial	task	item_name	item_num	recog_conf	resp	answer	test_x	test_y	test_z	color_b	color_g	color_r	case	font
296.906	n/a	SESS_START	148453	n/a	LTP252	ltpFR	13	n/a	n/a	n/a	n/a	n/a	n/a	n/a	0	0	0	n/a	n/a	n/a	n/a	n/a
322.956	n/a	START	161478	n/a	LTP252	ltpFR	13	n/a	n/a	n/a	n/a	n/a	n/a	n/a	n/a	n/a	n/a	n/a	n/a	n/a	n/a	n/a
322.988	n/a	PROB	161494	n/a	LTP252	ltpFR	13	n/a	n/a	n/a	n/a	n/a	n/a	22	8	6	8	n/a	n/a	n/a	n/a	n/a
326.634	n/a	PROB	163317	n/a	LTP252	ltpFR	13	n/a	n/a	n/a	n/a	n/a	n/a	17	6	8	3	n/a	n/a	n/a	n/a	n/a
329.148	n/a	PROB	164574	n/a	LTP252	ltpFR	13	n/a	n/a	n/a	n/a	n/a	n/a	15	4	9	2	n/a	n/a	n/a	n/a	n/a
330.61	n/a	PROB	165305	n/a	LTP252	ltpFR	13	n/a	n/a	n/a	n/a	n/a	n/a	19	6	9	4	n/a	n/a	n/a	n/a	n/a
331.842	n/a	PROB	165921	n/a	LTP252	ltpFR	13	n/a	n/a	n/a	n/a	n/a	n/a	17	9	4	4	n/a	n/a	n/a	n/a	n/a
333.174	n/a	PROB	166587	n/a	LTP252	ltpFR	13	n/a	n/a	n/a	n/a	n/a	n/a	6	2	3	1	n/a	n/a	n/a	n/a	n/a
334.256	n/a	PROB	167128	n/a	LTP252	ltpFR	13	n/a	n/a	n/a	n/a	n/a	n/a	10	2	4	4	n/a	n/a	n/a	n/a	n/a
335.67	n/a	PROB	167835	n/a	LTP252	ltpFR	13	n/a	n/a	n/a	n/a	n/a	n/a	14	6	1	7	n/a	n/a	n/a	n/a	n/a
336.802	n/a	PROB	168401	n/a	LTP252	ltpFR	13	n/a	n/a	n/a	n/a	n/a	n/a	20	5	9	6	n/a	n/a	n/a	n/a	n/a
340.248	n/a	PROB	170124	n/a	LTP252	ltpFR	13	n/a	n/a	n/a	n/a	n/a	n/a	11	4	2	5	n/a	n/a	n/a	n/a	n/a
342.046	n/a	STOP	171023	n/a	LTP252	ltpFR	13	n/a	n/a	n/a	n/a	n/a	n/a	n/a	n/a	n/a	n/a	n/a	n/a	n/a	n/a	n/a
368.006	n/a	START	184003	n/a	LTP252	ltpFR	13	n/a	n/a	n/a	n/a	n/a	n/a	n/a	n/a	n/a	n/a	n/a	n/a	n/a	n/a	n/a
369.52	n/a	PROB	184760	n/a	LTP252	ltpFR	13	n/a	n/a	n/a	n/a	n/a	n/a	20	4	8	8	n/a	n/a	n/a	n/a	n/a
371.55	n/a	PROB	185775	n/a	LTP252	ltpFR	13	n/a	n/a	n/a	n/a	n/a	n/a	16	1	6	9	n/a	n/a	n/a	n/a	n/a
372.732	n/a	PROB	186366	n/a	LTP252	ltpFR	13	n/a	n/a	n/a	n/a	n/a	n/a	18	7	9	2	n/a	n/a	n/a	n/a	n/a
374.114	n/a	PROB	187057	n/a	LTP252	ltpFR	13	n/a	n/a	n/a	n/a	n/a	n/a	19	8	5	6	n/a	n/a	n/a	n/a	n/a
375.63	n/a	STOP	187815	n/a	LTP252	ltpFR	13	n/a	n/a	n/a	n/a	n/a	n/a	n/a	n/a	n/a	n/a	n/a	n/a	n/a	n/a	n/a
376.992	n/a	WORD	188496	wordpools/wasnorm_wordpool_less_exclusions.txt	LTP252	ltpFR	13	1	1	TWIG	1527	n/a	0	n/a	0	0	0	1	0.412841796875	0.57763671875	upper	../fonts/zerothre.ttf
380.004	n/a	START	190002	n/a	LTP252	ltpFR	13	n/a	n/a	n/a	n/a	n/a	n/a	n/a	n/a	n/a	n/a	n/a	n/a	n/a	n/a	n/a
381.138	n/a	PROB	190569	n/a	LTP252	ltpFR	13	n/a	n/a	n/a	n/a	n/a	n/a	15	5	1	9	n/a	n/a	n/a	n/a	n/a
382.4	n/a	PROB	191200	n/a	LTP252	ltpFR	13	n/a	n/a	n/a	n/a	n/a	n/a	15	4	2	9	n/a	n/a	n/a	n/a	n/a
383.866	n/a	PROB	191933	n/a	LTP252	ltpFR	13	n/a	n/a	n/a	n/a	n/a	n/a	12	3	2	7	n/a	n/a	n/a	n/a	n/a
385.048	n/a	PROB	192524	n/a	LTP252	ltpFR	13	n/a	n/a	n/a	n/a	n/a	n/a	21	6	6	9	n/a	n/a	n/a	n/a	n/a
386.478	n/a	STOP	193239	n/a	LTP252	ltpFR	13	n/a	n/a	n/a	n/a	n/a	n/a	n/a	n/a	n/a	n/a	n/a	n/a	n/a	n/a	n/a
388.974	n/a	WORD	194487	wordpools/wasnorm_wordpool_less_exclusions.txt	LTP252	ltpFR	13	1	1	FINGERNAIL	568	n/a	0	n/a	0	0	0	1	0.412841796875	0.57763671875	upper	../fonts/zerothre.ttf
391.986	n/a	START	195993	n/a	LTP252	ltpFR	13	n/a	n/a	n/a	n/a	n/a	n/a	n/a	n/a	n/a	n/a	n/a	n/a	n/a	n/a	n/a
392.902	n/a	PROB	196451	n/a	LTP252	ltpFR	13	n/a	n/a	n/a	n/a	n/a	n/a	16	9	3	4	n/a	n/a	n/a	n/a	n/a
394.45	n/a	PROB	197225	n/a	LTP252	ltpFR	13	n/a	n/a	n/a	n/a	n/a	n/a	16	5	7	4	n/a	n/a	n/a	n/a	n/a
395.88	n/a	PROB	197940	n/a	LTP252	ltpFR	13	n/a	n/a	n/a	n/a	n/a	n/a	19	8	5	6	n/a	n/a	n/a	n/a	n/a
397.262	n/a	PROB	198631	n/a	LTP252	ltpFR	13	n/a	n/a	n/a	n/a	n/a	n/a	20	9	5	6	n/a	n/a	n/a	n/a	n/a
398.694	n/a	STOP	199347	n/a	LTP252	ltpFR	13	n/a	n/a	n/a	n/a	n/a	n/a	n/a	n/a	n/a	n/a	n/a	n/a	n/a	n/a	n/a
400.99	n/a	WORD	200495	wordpools/wasnorm_wordpool_less_exclusions.txt	LTP252	ltpFR	13	1	1	SALAD	1224	n/a	0	n/a	0	0	0	1	0.412841796875	0.57763671875	upper	../fonts/zerothre.ttf
404.002	n/a	START	202001	n/a	LTP252	ltpFR	13	n/a	n/a	n/a	n/a	n/a	n/a	n/a	n/a	n/a	n/a	n/a	n/a	n/a	n/a	n/a
405.134	n/a	PROB	202567	n/a	LTP252	ltpFR	13	n/a	n/a	n/a	n/a	n/a	n/a	11	5	1	5	n/a	n/a	n/a	n/a	n/a
406.134	n/a	PROB	203067	n/a	LTP252	ltpFR	13	n/a	n/a	n/a	n/a	n/a	n/a	16	6	9	1	n/a	n/a	n/a	n/a	n/a
407.63	n/a	PROB	203815	n/a	LTP252	ltpFR	13	n/a	n/a	n/a	n/a	n/a	n/a	15	5	3	7	n/a	n/a	n/a	n/a	n/a
408.812	n/a	PROB	204406	n/a	LTP252	ltpFR	13	n/a	n/a	n/a	n/a	n/a	n/a	15	9	2	4	n/a	n/a	n/a	n/a	n/a
409.992	n/a	PROB	204996	n/a	LTP252	ltpFR	13	n/a	n/a	n/a	n/a	n/a	n/a	11	3	1	7	n/a	n/a	n/a	n/a	n/a
411.078	n/a	STOP	205539	n/a	LTP252	ltpFR	13	n/a	n/a	n/a	n/a	n/a	n/a	n/a	n/a	n/a	n/a	n/a	n/a	n/a	n/a	n/a
413.19	n/a	WORD	206595	wordpools/wasnorm_wordpool_less_exclusions.txt	LTP252	ltpFR	13	1	1	LAKE	796	n/a	0	n/a	0	0	0	1	0.412841796875	0.57763671875	upper	../fonts/zerothre.ttf
416.202	n/a	START	208101	n/a	LTP252	ltpFR	13	n/a	n/a	n/a	n/a	n/a	n/a	n/a	n/a	n/a	n/a	n/a	n/a	n/a	n/a	n/a
417.398	n/a	PROB	208699	n/a	LTP252	ltpFR	13	n/a	n/a	n/a	n/a	n/a	n/a	16	5	9	2	n/a	n/a	n/a	n/a	n/a
419.064	n/a	PROB	209532	n/a	LTP252	ltpFR	13	n/a	n/a	n/a	n/a	n/a	n/a	15	2	7	6	n/a	n/a	n/a	n/a	n/a
420.912	n/a	PROB	210456	n/a	LTP252	ltpFR	13	n/a	n/a	n/a	n/a	n/a	n/a	20	9	7	4	n/a	n/a	n/a	n/a	n/a
423.446	n/a	STOP	211723	n/a	LTP252	ltpFR	13	n/a	n/a	n/a	n/a	n/a	n/a	n/a	n/a	n/a	n/a	n/a	n/a	n/a	n/a	n/a
425.022	n/a	WORD	212511	wordpools/wasnorm_wordpool_less_exclusions.txt	LTP252	ltpFR	13	1	0	MARSH	874	n/a	1	n/a	0	0	0	0	0.5869140625	0.422607421875	lower	../fonts/amplitud.ttf
428.036	n/a	START	214018	n/a	LTP252	ltpFR	13	n/a	n/a	n/a	n/a	n/a	n/a	n/a	n/a	n/a	n/a	n/a	n/a	n/a	n/a	n/a
429.216	n/a	PROB	214608	n/a	LTP252	ltpFR	13	n/a	n/a	n/a	n/a	n/a	n/a	7	3	3	1	n/a	n/a	n/a	n/a	n/a
430.38	n/a	PROB	215190	n/a	LTP252	ltpFR	13	n/a	n/a	n/a	n/a	n/a	n/a	9	1	1	7	n/a	n/a	n/a	n/a	n/a
431.546	n/a	PROB	215773	n/a	LTP252	ltpFR	13	n/a	n/a	n/a	n/a	n/a	n/a	18	8	3	7	n/a	n/a	n/a	n/a	n/a
432.944	n/a	PROB	216472	n/a	LTP252	ltpFR	13	n/a	n/a	n/a	n/a	n/a	n/a	23	7	8	8	n/a	n/a	n/a	n/a	n/a
434.622	n/a	STOP	217311	n/a	LTP252	ltpFR	13	n/a	n/a	n/a	n/a	n/a	n/a	n/a	n/a	n/a	n/a	n/a	n/a	n/a	n/a	n/a
436.988	n/a	WORD	218494	wordpools/wasnorm_wordpool_less_exclusions.txt	LTP252	ltpFR	13	1	0	CLAW	319	n/a	0	n/a	0	0	0	0	0.5869140625	0.422607421875	lower	../fonts/amplitud.ttf
440.0	n/a	START	220000	n/a	LTP252	ltpFR	13	n/a	n/a	n/a	n/a	n/a	n/a	n/a	n/a	n/a	n/a	n/a	n/a	n/a	n/a	n/a
441.116	n/a	PROB	220558	n/a	LTP252	ltpFR	13	n/a	n/a	n/a	n/a	n/a	n/a	14	5	8	1	n/a	n/a	n/a	n/a	n/a
442.446	n/a	PROB	221223	n/a	LTP252	ltpFR	13	n/a	n/a	n/a	n/a	n/a	n/a	18	5	5	8	n/a	n/a	n/a	n/a	n/a
443.578	n/a	PROB	221789	n/a	LTP252	ltpFR	13	n/a	n/a	n/a	n/a	n/a	n/a	21	5	9	7	n/a	n/a	n/a	n/a	n/a
445.11	n/a	PROB	222555	n/a	LTP252	ltpFR	13	n/a	n/a	n/a	n/a	n/a	n/a	11	7	2	2	n/a	n/a	n/a	n/a	n/a
446.606	n/a	STOP	223303	n/a	LTP252	ltpFR	13	n/a	n/a	n/a	n/a	n/a	n/a	n/a	n/a	n/a	n/a	n/a	n/a	n/a	n/a	n/a
448.986	n/a	WORD	224493	wordpools/wasnorm_wordpool_less_exclusions.txt	LTP252	ltpFR	13	1	0	SHED	1277	n/a	1	n/a	0	0	0	0	0.5869140625	0.422607421875	lower	../fonts/amplitud.ttf
451.998	n/a	START	225999	n/a	LTP252	ltpFR	13	n/a	n/a	n/a	n/a	n/a	n/a	n/a	n/a	n/a	n/a	n/a	n/a	n/a	n/a	n/a
453.114	n/a	PROB	226557	n/a	LTP252	ltpFR	13	n/a	n/a	n/a	n/a	n/a	n/a	8	5	1	2	n/a	n/a	n/a	n/a	n/a
454.346	n/a	PROB	227173	n/a	LTP252	ltpFR	13	n/a	n/a	n/a	n/a	n/a	n/a	18	7	6	5	n/a	n/a	n/a	n/a	n/a
456.226	n/a	PROB	228113	n/a	LTP252	ltpFR	13	n/a	n/a	n/a	n/a	n/a	n/a	21	4	8	9	n/a	n/a	n/a	n/a	n/a
457.856	n/a	PROB	228928	n/a	LTP252	ltpFR	13	n/a	n/a	n/a	n/a	n/a	n/a	18	3	6	9	n/a	n/a	n/a	n/a	n/a
459.064	n/a	STOP	229532	n/a	LTP252	ltpFR	13	n/a	n/a	n/a	n/a	n/a	n/a	n/a	n/a	n/a	n/a	n/a	n/a	n/a	n/a	n/a
461.102	n/a	WORD	230551	wordpools/wasnorm_wordpool_less_exclusions.txt	LTP252	ltpFR	13	1	1	RESTAURANT	1187	n/a	0	n/a	0	0	0	1	0.412841796875	0.57763671875	upper	../fonts/zerothre.ttf
464.114	n/a	START	232057	n/a	LTP252	ltpFR	13	n/a	n/a	n/a	n/a	n/a	n/a	n/a	n/a	n/a	n/a	n/a	n/a	n/a	n/a	n/a
464.928	n/a	PROB	232464	n/a	LTP252	ltpFR	13	n/a	n/a	n/a	n/a	n/a	n/a	13	6	6	1	n/a	n/a	n/a	n/a	n/a
466.01	n/a	PROB	233005	n/a	LTP252	ltpFR	13	n/a	n/a	n/a	n/a	n/a	n/a	14	4	6	4	n/a	n/a	n/a	n/a	n/a
467.076	n/a	PROB	233538	n/a	LTP252	ltpFR	13	n/a	n/a	n/a	n/a	n/a	n/a	19	3	9	7	n/a	n/a	n/a	n/a	n/a
468.158	n/a	PROB	234079	n/a	LTP252	ltpFR	13	n/a	n/a	n/a	n/a	n/a	n/a	18	7	2	9	n/a	n/a	n/a	n/a	n/a
469.356	n/a	PROB	234678	n/a	LTP252	ltpFR	13	n/a	n/a	n/a	n/a	n/a	n/a	6	1	3	2	n/a	n/a	n/a	n/a	n/a
470.404	n/a	PROB	235202	n/a	LTP252	ltpFR	13	n/a	n/a	n/a	n/a	n/a	n/a	19	4	9	6	n/a	n/a	n/a	n/a	n/a
471.494	n/a	STOP	235747	n/a	LTP252	ltpFR	13	n/a	n/a	n/a	n/a	n/a	n/a	n/a	n/a	n/a	n/a	n/a	n/a	n/a	n/a	n/a
473.2	n/a	WORD	236600	wordpools/wasnorm_wordpool_less_exclusions.txt	LTP252	ltpFR	13	1	1	RACCOON	1153	n/a	1	n/a	0	0	0	1	0.412841796875	0.57763671875	upper	../fonts/zerothre.ttf
476.214	n/a	START	238107	n/a	LTP252	ltpFR	13	n/a	n/a	n/a	n/a	n/a	n/a	n/a	n/a	n/a	n/a	n/a	n/a	n/a	n/a	n/a
477.062	n/a	PROB	238531	n/a	LTP252	ltpFR	13	n/a	n/a	n/a	n/a	n/a	n/a	16	8	4	4	n/a	n/a	n/a	n/a	n/a
478.524	n/a	PROB	239262	n/a	LTP252	ltpFR	13	n/a	n/a	n/a	n/a	n/a	n/a	21	5	8	8	n/a	n/a	n/a	n/a	n/a
480.854	n/a	PROB	240427	n/a	LTP252	ltpFR	13	n/a	n/a	n/a	n/a	n/a	n/a	12	5	5	2	n/a	n/a	n/a	n/a	n/a
482.354	n/a	PROB	241177	n/a	LTP252	ltpFR	13	n/a	n/a	n/a	n/a	n/a	n/a	17	3	5	9	n/a	n/a	n/a	n/a	n/a
483.694	n/a	STOP	241847	n/a	LTP252	ltpFR	13	n/a	n/a	n/a	n/a	n/a	n/a	n/a	n/a	n/a	n/a	n/a	n/a	n/a	n/a	n/a
485.032	n/a	WORD	242516	wordpools/wasnorm_wordpool_less_exclusions.txt	LTP252	ltpFR	13	1	0	GARBAGE	622	n/a	0	n/a	0	0	0	0	0.5869140625	0.422607421875	lower	../fonts/amplitud.ttf
488.046	n/a	START	244023	n/a	LTP252	ltpFR	13	n/a	n/a	n/a	n/a	n/a	n/a	n/a	n/a	n/a	n/a	n/a	n/a	n/a	n/a	n/a
488.976	n/a	PROB	244488	n/a	LTP252	ltpFR	13	n/a	n/a	n/a	n/a	n/a	n/a	24	7	8	9	n/a	n/a	n/a	n/a	n/a
490.674	n/a	PROB	245337	n/a	LTP252	ltpFR	13	n/a	n/a	n/a	n/a	n/a	n/a	12	3	3	6	n/a	n/a	n/a	n/a	n/a
491.756	n/a	PROB	245878	n/a	LTP252	ltpFR	13	n/a	n/a	n/a	n/a	n/a	n/a	12	2	8	2	n/a	n/a	n/a	n/a	n/a
492.872	n/a	PROB	246436	n/a	LTP252	ltpFR	13	n/a	n/a	n/a	n/a	n/a	n/a	15	8	3	4	n/a	n/a	n/a	n/a	n/a
496.046	n/a	STOP	248023	n/a	LTP252	ltpFR	13	n/a	n/a	n/a	n/a	n/a	n/a	n/a	n/a	n/a	n/a	n/a	n/a	n/a	n/a	n/a
497.2	n/a	WORD	248600	wordpools/wasnorm_wordpool_less_exclusions.txt	LTP252	ltpFR	13	1	0	SERVER	1272	n/a	1	n/a	0	0	0	0	0.5869140625	0.422607421875	lower	../fonts/amplitud.ttf
500.212	n/a	START	250106	n/a	LTP252	ltpFR	13	n/a	n/a	n/a	n/a	n/a	n/a	n/a	n/a	n/a	n/a	n/a	n/a	n/a	n/a	n/a
501.276	n/a	PROB	250638	n/a	LTP252	ltpFR	13	n/a	n/a	n/a	n/a	n/a	n/a	19	7	9	3	n/a	n/a	n/a	n/a	n/a
502.374	n/a	PROB	251187	n/a	LTP252	ltpFR	13	n/a	n/a	n/a	n/a	n/a	n/a	8	4	3	1	n/a	n/a	n/a	n/a	n/a
503.422	n/a	PROB	251711	n/a	LTP252	ltpFR	13	n/a	n/a	n/a	n/a	n/a	n/a	8	3	4	1	n/a	n/a	n/a	n/a	n/a
504.42	n/a	PROB	252210	n/a	LTP252	ltpFR	13	n/a	n/a	n/a	n/a	n/a	n/a	13	9	2	2	n/a	n/a	n/a	n/a	n/a
505.818	n/a	PROB	252909	n/a	LTP252	ltpFR	13	n/a	n/a	n/a	n/a	n/a	n/a	17	2	6	9	n/a	n/a	n/a	n/a	n/a
507.488	n/a	STOP	253744	n/a	LTP252	ltpFR	13	n/a	n/a	n/a	n/a	n/a	n/a	n/a	n/a	n/a	n/a	n/a	n/a	n/a	n/a	n/a
509.098	n/a	WORD	254549	wordpools/wasnorm_wordpool_less_exclusions.txt	LTP252	ltpFR	13	1	0	THORN	1459	n/a	0	n/a	0	0	0	0	0.5869140625	0.422607421875	lower	../fonts/amplitud.ttf
512.11	n/a	START	256055	n/a	LTP252	ltpFR	13	n/a	n/a	n/a	n/a	n/a	n/a	n/a	n/a	n/a	n/a	n/a	n/a	n/a	n/a	n/a
513.226	n/a	PROB	256613	n/a	LTP252	ltpFR	13	n/a	n/a	n/a	n/a	n/a	n/a	18	8	6	4	n/a	n/a	n/a	n/a	n/a
514.39	n/a	PROB	257195	n/a	LTP252	ltpFR	13	n/a	n/a	n/a	n/a	n/a	n/a	17	1	8	8	n/a	n/a	n/a	n/a	n/a
515.836	n/a	PROB	257918	n/a	LTP252	ltpFR	13	n/a	n/a	n/a	n/a	n/a	n/a	14	3	8	3	n/a	n/a	n/a	n/a	n/a
518.284	n/a	PROB	259142	n/a	LTP252	ltpFR	13	n/a	n/a	n/a	n/a	n/a	n/a	14	1	4	9	n/a	n/a	n/a	n/a	n/a
519.472	n/a	STOP	259736	n/a	LTP252	ltpFR	13	n/a	n/a	n/a	n/a	n/a	n/a	n/a	n/a	n/a	n/a	n/a	n/a	n/a	n/a	n/a
520.962	n/a	WORD	260481	wordpools/wasnorm_wordpool_less_exclusions.txt	LTP252	ltpFR	13	1	0	GIRAFFE	636	n/a	1	n/a	0	0	0	0	0.5869140625	0.422607421875	lower	../fonts/amplitud.ttf
523.976	n/a	START	261988	n/a	LTP252	ltpFR	13	n/a	n/a	n/a	n/a	n/a	n/a	n/a	n/a	n/a	n/a	n/a	n/a	n/a	n/a	n/a
525.158	n/a	PROB	262579	n/a	LTP252	ltpFR	13	n/a	n/a	n/a	n/a	n/a	n/a	12	1	7	4	n/a	n/a	n/a	n/a	n/a
526.754	n/a	PROB	263377	n/a	LTP252	ltpFR	13	n/a	n/a	n/a	n/a	n/a	n/a	16	8	3	5	n/a	n/a	n/a	n/a	n/a
528.368	n/a	PROB	264184	n/a	LTP252	ltpFR	13	n/a	n/a	n/a	n/a	n/a	n/a	17	2	9	6	n/a	n/a	n/a	n/a	n/a
530.332	n/a	PROB	265166	n/a	LTP252	ltpFR	13	n/a	n/a	n/a	n/a	n/a	n/a	13	1	9	3	n/a	n/a	n/a	n/a	n/a
531.32	n/a	STOP	265660	n/a	LTP252	ltpFR	13	n/a	n/a	n/a	n/a	n/a	n/a	n/a	n/a	n/a	n/a	n/a	n/a	n/a	n/a	n/a
532.962	n/a	WORD	266481	wordpools/wasnorm_wordpool_less_exclusions.txt	LTP252	ltpFR	13	1	0	GARDEN	623	n/a	1	n/a	0	0	0	0	0.5869140625	0.422607421875	lower	../fonts/amplitud.ttf
535.974	n/a	START	267987	n/a	LTP252	ltpFR	13	n/a	n/a	n/a	n/a	n/a	n/a	n/a	n/a	n/a	n/a	n/a	n/a	n/a	n/a	n/a
537.106	n/a	PROB	268553	n/a	LTP252	ltpFR	13	n/a	n/a	n/a	n/a	n/a	n/a	17	5	3	9	n/a	n/a	n/a	n/a	n/a
538.504	n/a	PROB	269252	n/a	LTP252	ltpFR	13	n/a	n/a	n/a	n/a	n/a	n/a	21	3	8	9	n/a	n/a	n/a	n/a	n/a
540.184	n/a	PROB	270092	n/a	LTP252	ltpFR	13	n/a	n/a	n/a	n/a	n/a	n/a	12	4	3	5	n/a	n/a	n/a	n/a	n/a
541.998	n/a	PROB	270999	n/a	LTP252	ltpFR	13	n/a	n/a	n/a	n/a	n/a	n/a	18	4	8	8	n/a	n/a	n/a	n/a	n/a
543.464	n/a	STOP	271732	n/a	LTP252	ltpFR	13	n/a	n/a	n/a	n/a	n/a	n/a	n/a	n/a	n/a	n/a	n/a	n/a	n/a	n/a	n/a
544.926	n/a	WORD	272463	wordpools/wasnorm_wordpool_less_exclusions.txt	LTP252	ltpFR	13	1	1	PALACE	1006	n/a	0	n/a	0	0	0	1	0.412841796875	0.57763671875	upper	../fonts/zerothre.ttf
547.94	n/a	START	273970	n/a	LTP252	ltpFR	13	n/a	n/a	n/a	n/a	n/a	n/a	n/a	n/a	n/a	n/a	n/a	n/a	n/a	n/a	n/a
548.888	n/a	PROB	274444	n/a	LTP252	ltpFR	13	n/a	n/a	n/a	n/a	n/a	n/a	12	5	6	1	n/a	n/a	n/a	n/a	n/a
550.002	n/a	PROB	275001	n/a	LTP252	ltpFR	13	n/a	n/a	n/a	n/a	n/a	n/a	12	4	5	3	n/a	n/a	n/a	n/a	n/a
551.8	n/a	PROB	275900	n/a	LTP252	ltpFR	13	n/a	n/a	n/a	n/a	n/a	n/a	12	6	3	3	n/a	n/a	n/a	n/a	n/a
553.282	n/a	PROB	276641	n/a	LTP252	ltpFR	13	n/a	n/a	n/a	n/a	n/a	n/a	18	3	9	6	n/a	n/a	n/a	n/a	n/a
554.6	n/a	STOP	277300	n/a	LTP252	ltpFR	13	n/a	n/a	n/a	n/a	n/a	n/a	n/a	n/a	n/a	n/a	n/a	n/a	n/a	n/a	n/a
557.06	n/a	WORD	278530	wordpools/wasnorm_wordpool_less_exclusions.txt	LTP252	ltpFR	13	1	1	QUEEN	1149	n/a	1	n/a	0	0	0	1	0.412841796875	0.57763671875	upper	../fonts/zerothre.ttf
560.072	n/a	START	280036	n/a	LTP252	ltpFR	13	n/a	n/a	n/a	n/a	n/a	n/a	n/a	n/a	n/a	n/a	n/a	n/a	n/a	n/a	n/a
561.02	n/a	PROB	280510	n/a	LTP252	ltpFR	13	n/a	n/a	n/a	n/a	n/a	n/a	22	9	7	6	n/a	n/a	n/a	n/a	n/a
562.784	n/a	PROB	281392	n/a	LTP252	ltpFR	13	n/a	n/a	n/a	n/a	n/a	n/a	12	8	1	3	n/a	n/a	n/a	n/a	n/a
564.234	n/a	PROB	282117	n/a	LTP252	ltpFR	13	n/a	n/a	n/a	n/a	n/a	n/a	24	6	8	8	n/a	n/a	n/a	n/a	n/a
565.946	n/a	PROB	282973	n/a	LTP252	ltpFR	13	n/a	n/a	n/a	n/a	n/a	n/a	8	3	2	3	n/a	n/a	n/a	n/a	n/a
567.92	n/a	STOP	283960	n/a	LTP252	ltpFR	13	n/a	n/a	n/a	n/a	n/a	n/a	n/a	n/a	n/a	n/a	n/a	n/a	n/a	n/a	n/a
570.008	n/a	REC_START	285004	n/a	LTP252	ltpFR	13	1	n/a	n/a	n/a	n/a	n/a	n/a	0	0	0	n/a	n/a	n/a	n/a	n/a
571.538	n/a	REC_WORD	285769	wordpools/wasnorm_wordpool_less_exclusions.txt	LTP252	ltpFR	13	1	1	PALACE	1006	n/a	0	n/a	0	0	0	n/a	n/a	n/a	n/a	n/a
572.41	n/a	REC_WORD	286205	wordpools/wasnorm_wordpool_less_exclusions.txt	LTP252	ltpFR	13	1	1	QUEEN	1149	n/a	1	n/a	0	0	0	n/a	n/a	n/a	n/a	n/a
573.502	n/a	REC_WORD	286751	wordpools/wasnorm_wordpool_less_exclusions.txt	LTP252	ltpFR	13	1	0	THORN	1459	n/a	0	n/a	0	0	0	n/a	n/a	n/a	n/a	n/a
574.452	n/a	REC_WORD	287226	wordpools/wasnorm_wordpool_less_exclusions.txt	LTP252	ltpFR	13	1	1	FINGERNAIL	568	n/a	0	n/a	0	0	0	n/a	n/a	n/a	n/a	n/a
576.122	n/a	REC_WORD	288061	wordpools/wasnorm_wordpool_less_exclusions.txt	LTP252	ltpFR	13	1	1	LAKE	796	n/a	0	n/a	0	0	0	n/a	n/a	n/a	n/a	n/a
577.344	n/a	REC_WORD	288672	wordpools/wasnorm_wordpool_less_exclusions.txt	LTP252	ltpFR	13	1	0	MARSH	874	n/a	1	n/a	0	0	0	n/a	n/a	n/a	n/a	n/a
578.764	n/a	REC_WORD	289382	wordpools/wasnorm_wordpool_less_exclusions.txt	LTP252	ltpFR	13	1	1	RACCOON	1153	n/a	1	n/a	0	0	0	n/a	n/a	n/a	n/a	n/a
585.338	n/a	REC_WORD	292669	wordpools/wasnorm_wordpool_less_exclusions.txt	LTP252	ltpFR	13	1	0	SHED	1277	n/a	1	n/a	0	0	0	n/a	n/a	n/a	n/a	n/a
587.778	n/a	REC_WORD	293889	wordpools/wasnorm_wordpool_less_exclusions.txt	LTP252	ltpFR	13	1	0	GIRAFFE	636	n/a	1	n/a	0	0	0	n/a	n/a	n/a	n/a	n/a
595.188	n/a	REC_WORD	297594	wordpools/wasnorm_wordpool_less_exclusions.txt	LTP252	ltpFR	13	1	0	GARBAGE	622	n/a	0	n/a	0	0	0	n/a	n/a	n/a	n/a	n/a
601.136	n/a	REC_WORD	300568	wordpools/wasnorm_wordpool_less_exclusions.txt	LTP252	ltpFR	13	1	1	SALAD	1224	n/a	0	n/a	0	0	0	n/a	n/a	n/a	n/a	n/a
605.566	n/a	REC_WORD	302783	wordpools/wasnorm_wordpool_less_exclusions.txt	LTP252	ltpFR	13	1	0	SERVER	1272	n/a	1	n/a	0	0	0	n/a	n/a	n/a	n/a	n/a
613.046	n/a	REC_WORD	306523	wordpools/wasnorm_wordpool_less_exclusions.txt	LTP252	ltpFR	13	1	0	CLAW	319	n/a	0	n/a	0	0	0	n/a	n/a	n/a	n/a	n/a
648.042	n/a	WORD	324021	wordpools/wasnorm_wordpool_less_exclusions.txt	LTP252	ltpFR	13	2	0	FIST	572	n/a	0	n/a	0	0	0	0	0.5869140625	0.422607421875	lower	../fonts/amplitud.ttf
652.002	n/a	WORD	326001	wordpools/wasnorm_wordpool_less_exclusions.txt	LTP252	ltpFR	13	2	0	SOFA	1342	n/a	1	n/a	0	0	0	0	0.5869140625	0.422607421875	lower	../fonts/amplitud.ttf
655.98	n/a	WORD	327990	wordpools/wasnorm_wordpool_less_exclusions.txt	LTP252	ltpFR	13	2	0	RAZOR	1171	n/a	0	n/a	0	0	0	0	0.5869140625	0.422607421875	lower	../fonts/amplitud.ttf
659.99	n/a	WORD	329995	wordpools/wasnorm_wordpool_less_exclusions.txt	LTP252	ltpFR	13	2	0	WEED	1599	n/a	0	n/a	0	0	0	0	0.5869140625	0.422607421875	lower	../fonts/amplitud.ttf
663.968	n/a	WORD	331984	wordpools/wasnorm_wordpool_less_exclusions.txt	LTP252	ltpFR	13	2	0	DIGGER	464	n/a	1	n/a	0	0	0	0	0.5869140625	0.422607421875	lower	../fonts/amplitud.ttf
667.962	n/a	WORD	333981	wordpools/wasnorm_wordpool_less_exclusions.txt	LTP252	ltpFR	13	2	0	PUPPY	1144	n/a	1	n/a	0	0	0	0	0.5869140625	0.422607421875	lower	../fonts/amplitud.ttf
672.074	n/a	WORD	336037	wordpools/wasnorm_wordpool_less_exclusions.txt	LTP252	ltpFR	13	2	0	ATLAS	53	n/a	1	n/a	0	0	0	0	0.5869140625	0.422607421875	lower	../fonts/amplitud.ttf
676.184	n/a	WORD	338092	wordpools/wasnorm_wordpool_less_exclusions.txt	LTP252	ltpFR	13	2	0	ALMANAC	17	n/a	0	n/a	0	0	0	0	0.5869140625	0.422607421875	lower	../fonts/amplitud.ttf
680.194	n/a	WORD	340097	wordpools/wasnorm_wordpool_less_exclusions.txt	LTP252	ltpFR	13	2	0	FOREHEAD	592	n/a	0	n/a	0	0	0	0	0.5869140625	0.422607421875	lower	../fonts/amplitud.ttf
684.222	n/a	WORD	342111	wordpools/wasnorm_wordpool_less_exclusions.txt	LTP252	ltpFR	13	2	0	BEARD	107	n/a	0	n/a	0	0	0	0	0.5869140625	0.422607421875	lower	../fonts/amplitud.ttf
688.316	n/a	WORD	344158	wordpools/wasnorm_wordpool_less_exclusions.txt	LTP252	ltpFR	13	2	0	KNUCKLE	789	n/a	0	n/a	0	0	0	0	0.5869140625	0.422607421875	lower	../fonts/amplitud.ttf
692.526	n/a	WORD	346263	wordpools/wasnorm_wordpool_less_exclusions.txt	LTP252	ltpFR	13	2	0	LOUNGE	845	n/a	1	n/a	0	0	0	0	0.5869140625	0.422607421875	lower	../fonts/amplitud.ttf
696.552	n/a	WORD	348276	wordpools/wasnorm_wordpool_less_exclusions.txt	LTP252	ltpFR	13	2	0	CHIPMUNK	304	n/a	0	n/a	0	0	0	0	0.5869140625	0.422607421875	lower	../fonts/amplitud.ttf
700.612	n/a	WORD	350306	wordpools/wasnorm_wordpool_less_exclusions.txt	LTP252	ltpFR	13	2	0	COUCH	386	n/a	1	n/a	0	0	0	0	0.5869140625	0.422607421875	lower	../fonts/amplitud.ttf
704.474	n/a	WORD	352237	wordpools/wasnorm_wordpool_less_exclusions.txt	LTP252	ltpFR	13	2	0	PLAYGROUND	1087	n/a	1	n/a	0	0	0	0	0.5869140625	0.422607421875	lower	../fonts/amplitud.ttf
708.32	n/a	WORD	354160	wordpools/wasnorm_wordpool_less_exclusions.txt	LTP252	ltpFR	13	2	0	FUR	615	n/a	0	n/a	0	0	0	0	0.5869140625	0.422607421875	lower	../fonts/amplitud.ttf
711.332	n/a	START	355666	n/a	LTP252	ltpFR	13	n/a	n/a	n/a	n/a	n/a	n/a	n/a	n/a	n/a	n/a	n/a	n/a	n/a	n/a	n/a
712.38	n/a	PROB	356190	n/a	LTP252	ltpFR	13	n/a	n/a	n/a	n/a	n/a	n/a	22	5	9	8	n/a	n/a	n/a	n/a	n/a
715.244	n/a	PROB	357622	n/a	LTP252	ltpFR	13	n/a	n/a	n/a	n/a	n/a	n/a	9	1	7	1	n/a	n/a	n/a	n/a	n/a
716.292	n/a	PROB	358146	n/a	LTP252	ltpFR	13	n/a	n/a	n/a	n/a	n/a	n/a	17	3	6	8	n/a	n/a	n/a	n/a	n/a
718.084	n/a	STOP	359042	n/a	LTP252	ltpFR	13	n/a	n/a	n/a	n/a	n/a	n/a	n/a	n/a	n/a	n/a	n/a	n/a	n/a	n/a	n/a
721.168	n/a	REC_START	360584	n/a	LTP252	ltpFR	13	2	n/a	n/a	n/a	n/a	n/a	n/a	0	0	0	n/a	n/a	n/a	n/a	n/a
722.194	n/a	REC_WORD	361097	wordpools/wasnorm_wordpool_less_exclusions.txt	LTP252	ltpFR	13	2	0	PLAYGROUND	1087	n/a	1	n/a	0	0	0	n/a	n/a	n/a	n/a	n/a
723.526	n/a	REC_WORD	361763	wordpools/wasnorm_wordpool_less_exclusions.txt	LTP252	ltpFR	13	2	0	LOUNGE	845	n/a	1	n/a	0	0	0	n/a	n/a	n/a	n/a	n/a
724.204	n/a	REC_WORD	362102	wordpools/wasnorm_wordpool_less_exclusions.txt	LTP252	ltpFR	13	2	0	SOFA	1342	n/a	1	n/a	0	0	0	n/a	n/a	n/a	n/a	n/a
725.48	n/a	REC_WORD	362740	wordpools/wasnorm_wordpool_less_exclusions.txt	LTP252	ltpFR	13	2	0	COUCH	386	n/a	1	n/a	0	0	0	n/a	n/a	n/a	n/a	n/a
730.004	n/a	REC_WORD	365002	wordpools/wasnorm_wordpool_less_exclusions.txt	LTP252	ltpFR	13	2	0	FOREHEAD	592	n/a	0	n/a	0	0	0	n/a	n/a	n/a	n/a	n/a
731.13	n/a	REC_WORD	365565	wordpools/wasnorm_wordpool_less_exclusions.txt	LTP252	ltpFR	13	2	0	BEARD	107	n/a	0	n/a	0	0	0	n/a	n/a	n/a	n/a	n/a
732.348	n/a	REC_WORD	366174	wordpools/wasnorm_wordpool_less_exclusions.txt	LTP252	ltpFR	13	2	0	KNUCKLE	789	n/a	0	n/a	0	0	0	n/a	n/a	n/a	n/a	n/a
733.526	n/a	REC_WORD	366763	wordpools/wasnorm_wordpool_less_exclusions.txt	LTP252	ltpFR	13	2	0	FIST	572	n/a	0	n/a	0	0	0	n/a	n/a	n/a	n/a	n/a
736.472	n/a	REC_WORD	368236	wordpools/wasnorm_wordpool_less_exclusions.txt	LTP252	ltpFR	13	2	0	WEED	1599	n/a	0	n/a	0	0	0	n/a	n/a	n/a	n/a	n/a
756.59	n/a	REC_WORD	378295	wordpools/wasnorm_wordpool_less_exclusions.txt	LTP252	ltpFR	13	2	0	DIGGER	464	n/a	1	n/a	0	0	0	n/a	n/a	n/a	n/a	n/a
779.278	n/a	REC_WORD	389639	wordpools/wasnorm_wordpool_less_exclusions.txt	LTP252	ltpFR	13	2	0	PUPPY	1144	n/a	1	n/a	0	0	0	n/a	n/a	n/a	n/a	n/a
780.048	n/a	REC_WORD	390024	wordpools/wasnorm_wordpool_less_exclusions.txt	LTP252	ltpFR	13	2	0	CHIPMUNK	304	n/a	0	n/a	0	0	0	n/a	n/a	n/a	n/a	n/a
784.278	n/a	REC_WORD	392139	wordpools/wasnorm_wordpool_less_exclusions.txt	LTP252	ltpFR	13	2	0	ATLAS	53	n/a	1	n/a	0	0	0	n/a	n/a	n/a	n/a	n/a
785.052	n/a	REC_WORD	392526	wordpools/wasnorm_wordpool_less_exclusions.txt	LTP252	ltpFR	13	2	0	ALMANAC	17	n/a	0	n/a	0	0	0	n/a	n/a	n/a	n/a	n/a
798.786	n/a	WORD	399393	wordpools/wasnorm_wordpool_less_exclusions.txt	LTP252	ltpFR	13	3	0	INN	739	n/a	1	n/a	0	0	0	0	0.5869140625	0.422607421875	lower	../fonts/amplitud.ttf
802.68	n/a	WORD	401340	wordpools/wasnorm_wordpool_less_exclusions.txt	LTP252	ltpFR	13	3	0	FOUNTAIN	597	n/a	1	n/a	0	0	0	0	0.5869140625	0.422607421875	lower	../fonts/amplitud.ttf
806.674	n/a	WORD	403337	wordpools/wasnorm_wordpool_less_exclusions.txt	LTP252	ltpFR	13	3	0	VAN	1548	n/a	1	n/a	0	0	0	0	0.5869140625	0.422607421875	lower	../fonts/amplitud.ttf
810.7	n/a	WORD	405350	wordpools/wasnorm_wordpool_less_exclusions.txt	LTP252	ltpFR	13	3	0	BATTERY	101	n/a	1	n/a	0	0	0	0	0.5869140625	0.422607421875	lower	../fonts/amplitud.ttf
814.778	n/a	WORD	407389	wordpools/wasnorm_wordpool_less_exclusions.txt	LTP252	ltpFR	13	3	0	PLANT	1083	n/a	0	n/a	0	0	0	0	0.5869140625	0.422607421875	lower	../fonts/amplitud.ttf
818.672	n/a	WORD	409336	wordpools/wasnorm_wordpool_less_exclusions.txt	LTP252	ltpFR	13	3	0	DIVER	476	n/a	1	n/a	0	0	0	0	0.5869140625	0.422607421875	lower	../fonts/amplitud.ttf
822.682	n/a	WORD	411341	wordpools/wasnorm_wordpool_less_exclusions.txt	LTP252	ltpFR	13	3	0	SATURN	1236	n/a	1	n/a	0	0	0	0	0.5869140625	0.422607421875	lower	../fonts/amplitud.ttf
826.66	n/a	WORD	413330	wordpools/wasnorm_wordpool_less_exclusions.txt	LTP252	ltpFR	13	3	0	MOB	904	n/a	1	n/a	0	0	0	0	0.5869140625	0.422607421875	lower	../fonts/amplitud.ttf
830.754	n/a	WORD	415377	wordpools/wasnorm_wordpool_less_exclusions.txt	LTP252	ltpFR	13	3	0	GRASSHOPPER	656	n/a	0	n/a	0	0	0	0	0.5869140625	0.422607421875	lower	../fonts/amplitud.ttf
834.882	n/a	WORD	417441	wordpools/wasnorm_wordpool_less_exclusions.txt	LTP252	ltpFR	13	3	0	LIVER	833	n/a	1	n/a	0	0	0	0	0.5869140625	0.422607421875	lower	../fonts/amplitud.ttf
839.008	n/a	WORD	419504	wordpools/wasnorm_wordpool_less_exclusions.txt	LTP252	ltpFR	13	3	0	OYSTER	995	n/a	0	n/a	0	0	0	0	0.5869140625	0.422607421875	lower	../fonts/amplitud.ttf
842.92	n/a	WORD	421460	wordpools/wasnorm_wordpool_less_exclusions.txt	LTP252	ltpFR	13	3	0	MOOSE	915	n/a	1	n/a	0	0	0	0	0.5869140625	0.422607421875	lower	../fonts/amplitud.ttf
846.98	n/a	WORD	423490	wordpools/wasnorm_wordpool_less_exclusions.txt	LTP252	ltpFR	13	3	0	ANIMAL	23	n/a	1	n/a	0	0	0	0	0.5869140625	0.422607421875	lower	../fonts/amplitud.ttf
851.124	n/a	WORD	425562	wordpools/wasnorm_wordpool_less_exclusions.txt	LTP252	ltpFR	13	3	0	CREATURE	403	n/a	1	n/a	0	0	0	0	0.5869140625	0.422607421875	lower	../fonts/amplitud.ttf
855.27	n/a	WORD	427635	wordpools/wasnorm_wordpool_less_exclusions.txt	LTP252	ltpFR	13	3	0	PAW	1029	n/a	0	n/a	0	0	0	0	0.5869140625	0.422607421875	lower	../fonts/amplitud.ttf
859.462	n/a	WORD	429731	wordpools/wasnorm_wordpool_less_exclusions.txt	LTP252	ltpFR	13	3	0	SIRLOIN	1311	n/a	0	n/a	0	0	0	0	0.5869140625	0.422607421875	lower	../fonts/amplitud.ttf
862.474	n/a	START	431237	n/a	LTP252	ltpFR	13	n/a	n/a	n/a	n/a	n/a	n/a	n/a	n/a	n/a	n/a	n/a	n/a	n/a	n/a	n/a
863.358	n/a	PROB	431679	n/a	LTP252	ltpFR	13	n/a	n/a	n/a	n/a	n/a	n/a	7	1	5	1	n/a	n/a	n/a	n/a	n/a
864.77	n/a	PROB	432385	n/a	LTP252	ltpFR	13	n/a	n/a	n/a	n/a	n/a	n/a	18	4	5	9	n/a	n/a	n/a	n/a	n/a
866.07	n/a	PROB	433035	n/a	LTP252	ltpFR	13	n/a	n/a	n/a	n/a	n/a	n/a	16	9	2	5	n/a	n/a	n/a	n/a	n/a
867.65	n/a	PROB	433825	n/a	LTP252	ltpFR	13	n/a	n/a	n/a	n/a	n/a	n/a	24	9	8	7	n/a	n/a	n/a	n/a	n/a
869.166	n/a	PROB	434583	n/a	LTP252	ltpFR	13	n/a	n/a	n/a	n/a	n/a	n/a	7	2	4	1	n/a	n/a	n/a	n/a	n/a
870.878	n/a	PROB	435439	n/a	LTP252	ltpFR	13	n/a	n/a	n/a	n/a	n/a	n/a	14	6	5	3	n/a	n/a	n/a	n/a	n/a
873.69	n/a	PROB	436845	n/a	LTP252	ltpFR	13	n/a	n/a	n/a	n/a	n/a	n/a	21	5	7	9	n/a	n/a	n/a	n/a	n/a
875.074	n/a	PROB	437537	n/a	LTP252	ltpFR	13	n/a	n/a	n/a	n/a	n/a	n/a	5	1	3	1	n/a	n/a	n/a	n/a	n/a
875.988	n/a	PROB	437994	n/a	LTP252	ltpFR	13	n/a	n/a	n/a	n/a	n/a	n/a	5	2	1	2	n/a	n/a	n/a	n/a	n/a
876.886	n/a	PROB	438443	n/a	LTP252	ltpFR	13	n/a	n/a	n/a	n/a	n/a	n/a	22	8	9	5	n/a	n/a	n/a	n/a	n/a
878.326	n/a	STOP	439163	n/a	LTP252	ltpFR	13	n/a	n/a	n/a	n/a	n/a	n/a	n/a	n/a	n/a	n/a	n/a	n/a	n/a	n/a	n/a
880.414	n/a	REC_START	440207	n/a	LTP252	ltpFR	13	3	n/a	n/a	n/a	n/a	n/a	n/a	0	0	0	n/a	n/a	n/a	n/a	n/a
881.65	n/a	REC_WORD	440825	wordpools/wasnorm_wordpool_less_exclusions.txt	LTP252	ltpFR	13	3	0	PAW	1029	n/a	0	n/a	0	0	0	n/a	n/a	n/a	n/a	n/a
882.524	n/a	REC_WORD	441262	wordpools/wasnorm_wordpool_less_exclusions.txt	LTP252	ltpFR	13	3	0	SIRLOIN	1311	n/a	0	n/a	0	0	0	n/a	n/a	n/a	n/a	n/a
884.0	n/a	REC_WORD	442000	wordpools/wasnorm_wordpool_less_exclusions.txt	LTP252	ltpFR	13	3	0	MOOSE	915	n/a	1	n/a	0	0	0	n/a	n/a	n/a	n/a	n/a
884.912	n/a	REC_WORD	442456	wordpools/wasnorm_wordpool_less_exclusions.txt	LTP252	ltpFR	13	3	0	CREATURE	403	n/a	1	n/a	0	0	0	n/a	n/a	n/a	n/a	n/a
886.184	n/a	REC_WORD	443092	wordpools/wasnorm_wordpool_less_exclusions.txt	LTP252	ltpFR	13	3	0	ANIMAL	23	n/a	1	n/a	0	0	0	n/a	n/a	n/a	n/a	n/a
887.452	n/a	REC_WORD	443726	wordpools/wasnorm_wordpool_less_exclusions.txt	LTP252	ltpFR	13	3	0	OYSTER	995	n/a	0	n/a	0	0	0	n/a	n/a	n/a	n/a	n/a
888.574	n/a	REC_WORD	444287	wordpools/wasnorm_wordpool_less_exclusions.txt	LTP252	ltpFR	13	3	0	GRASSHOPPER	656	n/a	0	n/a	0	0	0	n/a	n/a	n/a	n/a	n/a
890.11	n/a	REC_WORD	445055	wordpools/wasnorm_wordpool_less_exclusions.txt	LTP252	ltpFR	13	3	0	DIVER	476	n/a	1	n/a	0	0	0	n/a	n/a	n/a	n/a	n/a
891.086	n/a	REC_WORD	445543	wordpools/wasnorm_wordpool_less_exclusions.txt	LTP252	ltpFR	13	3	0	LIVER	833	n/a	1	n/a	0	0	0	n/a	n/a	n/a	n/a	n/a
892.362	n/a	REC_WORD	446181	wordpools/wasnorm_wordpool_less_exclusions.txt	LTP252	ltpFR	13	3	0	MOB	904	n/a	1	n/a	0	0	0	n/a	n/a	n/a	n/a	n/a
893.574	n/a	REC_WORD	446787	wordpools/wasnorm_wordpool_less_exclusions.txt	LTP252	ltpFR	13	3	0	PLANT	1083	n/a	0	n/a	0	0	0	n/a	n/a	n/a	n/a	n/a
894.8	n/a	REC_WORD	447400	wordpools/wasnorm_wordpool_less_exclusions.txt	LTP252	ltpFR	13	3	0	INN	739	n/a	1	n/a	0	0	0	n/a	n/a	n/a	n/a	n/a
895.83	n/a	REC_WORD	447915	wordpools/wasnorm_wordpool_less_exclusions.txt	LTP252	ltpFR	13	3	0	VAN	1548	n/a	1	n/a	0	0	0	n/a	n/a	n/a	n/a	n/a
897.234	n/a	REC_WORD	448617	wordpools/wasnorm_wordpool_less_exclusions.txt	LTP252	ltpFR	13	3	0	BATTERY	101	n/a	1	n/a	0	0	0	n/a	n/a	n/a	n/a	n/a
898.488	n/a	REC_WORD	449244	wordpools/wasnorm_wordpool_less_exclusions.txt	LTP252	ltpFR	13	3	0	SATURN	1236	n/a	1	n/a	0	0	0	n/a	n/a	n/a	n/a	n/a
900.188	n/a	REC_WORD	450094	wordpools/wasnorm_wordpool_less_exclusions.txt	LTP252	ltpFR	13	3	0	FOUNTAIN	597	n/a	1	n/a	0	0	0	n/a	n/a	n/a	n/a	n/a
956.586	n/a	START	478293	n/a	LTP252	ltpFR	13	n/a	n/a	n/a	n/a	n/a	n/a	n/a	n/a	n/a	n/a	n/a	n/a	n/a	n/a	n/a
958.1	n/a	PROB	479050	n/a	LTP252	ltpFR	13	n/a	n/a	n/a	n/a	n/a	n/a	12	3	5	4	n/a	n/a	n/a	n/a	n/a
959.846	n/a	PROB	479923	n/a	LTP252	ltpFR	13	n/a	n/a	n/a	n/a	n/a	n/a	18	7	6	5	n/a	n/a	n/a	n/a	n/a
961.76	n/a	PROB	480880	n/a	LTP252	ltpFR	13	n/a	n/a	n/a	n/a	n/a	n/a	20	4	7	9	n/a	n/a	n/a	n/a	n/a
963.474	n/a	PROB	481737	n/a	LTP252	ltpFR	13	n/a	n/a	n/a	n/a	n/a	n/a	14	1	7	6	n/a	n/a	n/a	n/a	n/a
964.888	n/a	PROB	482444	n/a	LTP252	ltpFR	13	n/a	n/a	n/a	n/a	n/a	n/a	6	1	2	2	n/a	n/a	n/a	n/a	n/a
966.486	n/a	PROB	483243	n/a	LTP252	ltpFR	13	n/a	n/a	n/a	n/a	n/a	n/a	24	8	7	9	n/a	n/a	n/a	n/a	n/a
970.514	n/a	PROB	485257	n/a	LTP252	ltpFR	13	n/a	n/a	n/a	n/a	n/a	n/a	15	6	1	8	n/a	n/a	n/a	n/a	n/a
971.702	n/a	STOP	485851	n/a	LTP252	ltpFR	13	n/a	n/a	n/a	n/a	n/a	n/a	n/a	n/a	n/a	n/a	n/a	n/a	n/a	n/a	n/a
973.492	n/a	WORD	486746	wordpools/wasnorm_wordpool_less_exclusions.txt	LTP252	ltpFR	13	4	1	BOY	161	n/a	1	n/a	0	0	0	1	0.412841796875	0.57763671875	upper	../fonts/zerothre.ttf
976.506	n/a	START	488253	n/a	LTP252	ltpFR	13	n/a	n/a	n/a	n/a	n/a	n/a	n/a	n/a	n/a	n/a	n/a	n/a	n/a	n/a	n/a
977.704	n/a	PROB	488852	n/a	LTP252	ltpFR	13	n/a	n/a	n/a	n/a	n/a	n/a	15	1	8	6	n/a	n/a	n/a	n/a	n/a
980.168	n/a	PROB	490084	n/a	LTP252	ltpFR	13	n/a	n/a	n/a	n/a	n/a	n/a	7	1	5	1	n/a	n/a	n/a	n/a	n/a
982.23	n/a	PROB	491115	n/a	LTP252	ltpFR	13	n/a	n/a	n/a	n/a	n/a	n/a	8	3	1	4	n/a	n/a	n/a	n/a	n/a
983.378	n/a	PROB	491689	n/a	LTP252	ltpFR	13	n/a	n/a	n/a	n/a	n/a	n/a	11	7	2	2	n/a	n/a	n/a	n/a	n/a
985.11	n/a	PROB	492555	n/a	LTP252	ltpFR	13	n/a	n/a	n/a	n/a	n/a	n/a	12	5	1	6	n/a	n/a	n/a	n/a	n/a
986.342	n/a	PROB	493171	n/a	LTP252	ltpFR	13	n/a	n/a	n/a	n/a	n/a	n/a	17	1	9	7	n/a	n/a	n/a	n/a	n/a
987.538	n/a	PROB	493769	n/a	LTP252	ltpFR	13	n/a	n/a	n/a	n/a	n/a	n/a	21	7	7	7	n/a	n/a	n/a	n/a	n/a
988.72	n/a	PROB	494360	n/a	LTP252	ltpFR	13	n/a	n/a	n/a	n/a	n/a	n/a	12	1	2	9	n/a	n/a	n/a	n/a	n/a
990.434	n/a	PROB	495217	n/a	LTP252	ltpFR	13	n/a	n/a	n/a	n/a	n/a	n/a	15	8	3	4	n/a	n/a	n/a	n/a	n/a
991.974	n/a	STOP	495987	n/a	LTP252	ltpFR	13	n/a	n/a	n/a	n/a	n/a	n/a	n/a	n/a	n/a	n/a	n/a	n/a	n/a	n/a	n/a
993.562	n/a	WORD	496781	wordpools/wasnorm_wordpool_less_exclusions.txt	LTP252	ltpFR	13	4	1	SAW	1239	n/a	0	n/a	0	0	0	1	0.412841796875	0.57763671875	upper	../fonts/zerothre.ttf
996.576	n/a	START	498288	n/a	LTP252	ltpFR	13	n/a	n/a	n/a	n/a	n/a	n/a	n/a	n/a	n/a	n/a	n/a	n/a	n/a	n/a	n/a
997.758	n/a	PROB	498879	n/a	LTP252	ltpFR	13	n/a	n/a	n/a	n/a	n/a	n/a	14	4	7	3	n/a	n/a	n/a	n/a	n/a
999.074	n/a	PROB	499537	n/a	LTP252	ltpFR	13	n/a	n/a	n/a	n/a	n/a	n/a	19	8	4	7	n/a	n/a	n/a	n/a	n/a
1001.718	n/a	PROB	500859	n/a	LTP252	ltpFR	13	n/a	n/a	n/a	n/a	n/a	n/a	15	5	6	4	n/a	n/a	n/a	n/a	n/a
1002.984	n/a	PROB	501492	n/a	LTP252	ltpFR	13	n/a	n/a	n/a	n/a	n/a	n/a	22	9	8	5	n/a	n/a	n/a	n/a	n/a
1004.648	n/a	PROB	502324	n/a	LTP252	ltpFR	13	n/a	n/a	n/a	n/a	n/a	n/a	16	1	9	6	n/a	n/a	n/a	n/a	n/a
1005.796	n/a	PROB	502898	n/a	LTP252	ltpFR	13	n/a	n/a	n/a	n/a	n/a	n/a	7	1	2	4	n/a	n/a	n/a	n/a	n/a
1006.96	n/a	PROB	503480	n/a	LTP252	ltpFR	13	n/a	n/a	n/a	n/a	n/a	n/a	11	5	3	3	n/a	n/a	n/a	n/a	n/a
1008.276	n/a	PROB	504138	n/a	LTP252	ltpFR	13	n/a	n/a	n/a	n/a	n/a	n/a	17	2	7	8	n/a	n/a	n/a	n/a	n/a
1009.722	n/a	PROB	504861	n/a	LTP252	ltpFR	13	n/a	n/a	n/a	n/a	n/a	n/a	16	5	2	9	n/a	n/a	n/a	n/a	n/a
1011.264	n/a	STOP	505632	n/a	LTP252	ltpFR	13	n/a	n/a	n/a	n/a	n/a	n/a	n/a	n/a	n/a	n/a	n/a	n/a	n/a	n/a	n/a
1013.668	n/a	WORD	506834	wordpools/wasnorm_wordpool_less_exclusions.txt	LTP252	ltpFR	13	4	1	TREE	1502	n/a	1	n/a	0	0	0	1	0.412841796875	0.57763671875	upper	../fonts/zerothre.ttf
1016.68	n/a	START	508340	n/a	LTP252	ltpFR	13	n/a	n/a	n/a	n/a	n/a	n/a	n/a	n/a	n/a	n/a	n/a	n/a	n/a	n/a	n/a
1017.694	n/a	PROB	508847	n/a	LTP252	ltpFR	13	n/a	n/a	n/a	n/a	n/a	n/a	17	3	5	9	n/a	n/a	n/a	n/a	n/a
1019.044	n/a	PROB	509522	n/a	LTP252	ltpFR	13	n/a	n/a	n/a	n/a	n/a	n/a	12	2	9	1	n/a	n/a	n/a	n/a	n/a
1020.192	n/a	PROB	510096	n/a	LTP252	ltpFR	13	n/a	n/a	n/a	n/a	n/a	n/a	10	2	2	6	n/a	n/a	n/a	n/a	n/a
1021.456	n/a	PROB	510728	n/a	LTP252	ltpFR	13	n/a	n/a	n/a	n/a	n/a	n/a	17	5	7	5	n/a	n/a	n/a	n/a	n/a
1022.72	n/a	PROB	511360	n/a	LTP252	ltpFR	13	n/a	n/a	n/a	n/a	n/a	n/a	20	4	8	8	n/a	n/a	n/a	n/a	n/a
1024.136	n/a	PROB	512068	n/a	LTP252	ltpFR	13	n/a	n/a	n/a	n/a	n/a	n/a	11	3	2	6	n/a	n/a	n/a	n/a	n/a
1025.382	n/a	PROB	512691	n/a	LTP252	ltpFR	13	n/a	n/a	n/a	n/a	n/a	n/a	19	6	7	6	n/a	n/a	n/a	n/a	n/a
1027.048	n/a	PROB	513524	n/a	LTP252	ltpFR	13	n/a	n/a	n/a	n/a	n/a	n/a	18	7	6	5	n/a	n/a	n/a	n/a	n/a
1028.628	n/a	PROB	514314	n/a	LTP252	ltpFR	13	n/a	n/a	n/a	n/a	n/a	n/a	17	5	3	9	n/a	n/a	n/a	n/a	n/a
1029.96	n/a	PROB	514980	n/a	LTP252	ltpFR	13	n/a	n/a	n/a	n/a	n/a	n/a	12	6	2	4	n/a	n/a	n/a	n/a	n/a
1031.2	n/a	STOP	515600	n/a	LTP252	ltpFR	13	n/a	n/a	n/a	n/a	n/a	n/a	n/a	n/a	n/a	n/a	n/a	n/a	n/a	n/a	n/a
1033.804	n/a	WORD	516902	wordpools/wasnorm_wordpool_less_exclusions.txt	LTP252	ltpFR	13	4	1	PAINT	1003	n/a	0	n/a	0	0	0	1	0.412841796875	0.57763671875	upper	../fonts/zerothre.ttf
1036.816	n/a	START	518408	n/a	LTP252	ltpFR	13	n/a	n/a	n/a	n/a	n/a	n/a	n/a	n/a	n/a	n/a	n/a	n/a	n/a	n/a	n/a
1037.682	n/a	PROB	518841	n/a	LTP252	ltpFR	13	n/a	n/a	n/a	n/a	n/a	n/a	13	7	2	4	n/a	n/a	n/a	n/a	n/a
1039.944	n/a	PROB	519972	n/a	LTP252	ltpFR	13	n/a	n/a	n/a	n/a	n/a	n/a	4	2	1	1	n/a	n/a	n/a	n/a	n/a
1041.276	n/a	PROB	520638	n/a	LTP252	ltpFR	13	n/a	n/a	n/a	n/a	n/a	n/a	16	8	3	5	n/a	n/a	n/a	n/a	n/a
1043.174	n/a	PROB	521587	n/a	LTP252	ltpFR	13	n/a	n/a	n/a	n/a	n/a	n/a	22	9	9	4	n/a	n/a	n/a	n/a	n/a
1044.638	n/a	PROB	522319	n/a	LTP252	ltpFR	13	n/a	n/a	n/a	n/a	n/a	n/a	17	6	5	6	n/a	n/a	n/a	n/a	n/a
1046.418	n/a	PROB	523209	n/a	LTP252	ltpFR	13	n/a	n/a	n/a	n/a	n/a	n/a	22	7	9	6	n/a	n/a	n/a	n/a	n/a
1048.514	n/a	PROB	524257	n/a	LTP252	ltpFR	13	n/a	n/a	n/a	n/a	n/a	n/a	8	2	5	1	n/a	n/a	n/a	n/a	n/a
1050.164	n/a	PROB	525082	n/a	LTP252	ltpFR	13	n/a	n/a	n/a	n/a	n/a	n/a	9	2	2	5	n/a	n/a	n/a	n/a	n/a
1052.816	n/a	STOP	526408	n/a	LTP252	ltpFR	13	n/a	n/a	n/a	n/a	n/a	n/a	n/a	n/a	n/a	n/a	n/a	n/a	n/a	n/a	n/a
1053.64	n/a	WORD	526820	wordpools/wasnorm_wordpool_less_exclusions.txt	LTP252	ltpFR	13	4	1	STALLION	1369	n/a	1	n/a	0	0	0	1	0.412841796875	0.57763671875	upper	../fonts/zerothre.ttf
1056.654	n/a	START	528327	n/a	LTP252	ltpFR	13	n/a	n/a	n/a	n/a	n/a	n/a	n/a	n/a	n/a	n/a	n/a	n/a	n/a	n/a	n/a
1057.702	n/a	PROB	528851	n/a	LTP252	ltpFR	13	n/a	n/a	n/a	n/a	n/a	n/a	13	3	3	8	n/a	n/a	n/a	n/a	n/a
1059.15	n/a	PROB	529575	n/a	LTP252	ltpFR	13	n/a	n/a	n/a	n/a	n/a	n/a	19	8	4	7	n/a	n/a	n/a	n/a	n/a
1061.13	n/a	PROB	530565	n/a	LTP252	ltpFR	13	n/a	n/a	n/a	n/a	n/a	n/a	24	6	9	9	n/a	n/a	n/a	n/a	n/a
1062.544	n/a	PROB	531272	n/a	LTP252	ltpFR	13	n/a	n/a	n/a	n/a	n/a	n/a	16	6	6	4	n/a	n/a	n/a	n/a	n/a
1064.21	n/a	PROB	532105	n/a	LTP252	ltpFR	13	n/a	n/a	n/a	n/a	n/a	n/a	17	6	7	4	n/a	n/a	n/a	n/a	n/a
1065.622	n/a	PROB	532811	n/a	LTP252	ltpFR	13	n/a	n/a	n/a	n/a	n/a	n/a	19	8	3	8	n/a	n/a	n/a	n/a	n/a
1067.272	n/a	PROB	533636	n/a	LTP252	ltpFR	13	n/a	n/a	n/a	n/a	n/a	n/a	19	9	7	3	n/a	n/a	n/a	n/a	n/a
1068.486	n/a	PROB	534243	n/a	LTP252	ltpFR	13	n/a	n/a	n/a	n/a	n/a	n/a	9	3	3	3	n/a	n/a	n/a	n/a	n/a
1069.7	n/a	PROB	534850	n/a	LTP252	ltpFR	13	n/a	n/a	n/a	n/a	n/a	n/a	15	8	1	6	n/a	n/a	n/a	n/a	n/a
1070.966	n/a	PROB	535483	n/a	LTP252	ltpFR	13	n/a	n/a	n/a	n/a	n/a	n/a	5	2	1	2	n/a	n/a	n/a	n/a	n/a
1071.896	n/a	STOP	535948	n/a	LTP252	ltpFR	13	n/a	n/a	n/a	n/a	n/a	n/a	n/a	n/a	n/a	n/a	n/a	n/a	n/a	n/a	n/a
1073.812	n/a	WORD	536906	wordpools/wasnorm_wordpool_less_exclusions.txt	LTP252	ltpFR	13	4	1	RANCH	1166	n/a	0	n/a	0	0	0	1	0.412841796875	0.57763671875	upper	../fonts/zerothre.ttf
1076.824	n/a	START	538412	n/a	LTP252	ltpFR	13	n/a	n/a	n/a	n/a	n/a	n/a	n/a	n/a	n/a	n/a	n/a	n/a	n/a	n/a	n/a
1078.022	n/a	PROB	539011	n/a	LTP252	ltpFR	13	n/a	n/a	n/a	n/a	n/a	n/a	16	3	6	7	n/a	n/a	n/a	n/a	n/a
1079.188	n/a	PROB	539594	n/a	LTP252	ltpFR	13	n/a	n/a	n/a	n/a	n/a	n/a	24	7	9	8	n/a	n/a	n/a	n/a	n/a
1081.134	n/a	PROB	540567	n/a	LTP252	ltpFR	13	n/a	n/a	n/a	n/a	n/a	n/a	9	2	2	5	n/a	n/a	n/a	n/a	n/a
1082.284	n/a	PROB	541142	n/a	LTP252	ltpFR	13	n/a	n/a	n/a	n/a	n/a	n/a	13	3	6	4	n/a	n/a	n/a	n/a	n/a
1083.58	n/a	PROB	541790	n/a	LTP252	ltpFR	13	n/a	n/a	n/a	n/a	n/a	n/a	11	1	7	3	n/a	n/a	n/a	n/a	n/a
1084.862	n/a	PROB	542431	n/a	LTP252	ltpFR	13	n/a	n/a	n/a	n/a	n/a	n/a	16	2	8	6	n/a	n/a	n/a	n/a	n/a
1086.144	n/a	PROB	543072	n/a	LTP252	ltpFR	13	n/a	n/a	n/a	n/a	n/a	n/a	17	6	6	5	n/a	n/a	n/a	n/a	n/a
1087.79	n/a	PROB	543895	n/a	LTP252	ltpFR	13	n/a	n/a	n/a	n/a	n/a	n/a	18	9	7	2	n/a	n/a	n/a	n/a	n/a
1090.054	n/a	PROB	545027	n/a	LTP252	ltpFR	13	n/a	n/a	n/a	n/a	n/a	n/a	10	4	4	2	n/a	n/a	n/a	n/a	n/a
1091.44	n/a	STOP	545720	n/a	LTP252	ltpFR	13	n/a	n/a	n/a	n/a	n/a	n/a	n/a	n/a	n/a	n/a	n/a	n/a	n/a	n/a	n/a
1093.948	n/a	WORD	546974	wordpools/wasnorm_wordpool_less_exclusions.txt	LTP252	ltpFR	13	4	1	QUARTER	1148	n/a	0	n/a	0	0	0	1	0.412841796875	0.57763671875	upper	../fonts/zerothre.ttf
1096.96	n/a	START	548480	n/a	LTP252	ltpFR	13	n/a	n/a	n/a	n/a	n/a	n/a	n/a	n/a	n/a	n/a	n/a	n/a	n/a	n/a	n/a
1097.876	n/a	PROB	548938	n/a	LTP252	ltpFR	13	n/a	n/a	n/a	n/a	n/a	n/a	7	2	3	2	n/a	n/a	n/a	n/a	n/a
1099.806	n/a	PROB	549903	n/a	LTP252	ltpFR	13	n/a	n/a	n/a	n/a	n/a	n/a	23	7	9	7	n/a	n/a	n/a	n/a	n/a
1102.154	n/a	PROB	551077	n/a	LTP252	ltpFR	13	n/a	n/a	n/a	n/a	n/a	n/a	20	7	5	8	n/a	n/a	n/a	n/a	n/a
1105.15	n/a	PROB	552575	n/a	LTP252	ltpFR	13	n/a	n/a	n/a	n/a	n/a	n/a	23	9	7	7	n/a	n/a	n/a	n/a	n/a
1106.962	n/a	PROB	553481	n/a	LTP252	ltpFR	13	n/a	n/a	n/a	n/a	n/a	n/a	25	8	8	9	n/a	n/a	n/a	n/a	n/a
1108.926	n/a	PROB	554463	n/a	LTP252	ltpFR	13	n/a	n/a	n/a	n/a	n/a	n/a	21	9	4	8	n/a	n/a	n/a	n/a	n/a
1110.574	n/a	PROB	555287	n/a	LTP252	ltpFR	13	n/a	n/a	n/a	n/a	n/a	n/a	16	7	6	3	n/a	n/a	n/a	n/a	n/a
1111.704	n/a	STOP	555852	n/a	LTP252	ltpFR	13	n/a	n/a	n/a	n/a	n/a	n/a	n/a	n/a	n/a	n/a	n/a	n/a	n/a	n/a	n/a
1113.952	n/a	WORD	556976	wordpools/wasnorm_wordpool_less_exclusions.txt	LTP252	ltpFR	13	4	1	SCROLL	1257	n/a	0	n/a	0	0	0	1	0.412841796875	0.57763671875	upper	../fonts/zerothre.ttf
1116.964	n/a	START	558482	n/a	LTP252	ltpFR	13	n/a	n/a	n/a	n/a	n/a	n/a	n/a	n/a	n/a	n/a	n/a	n/a	n/a	n/a	n/a
1117.996	n/a	PROB	558998	n/a	LTP252	ltpFR	13	n/a	n/a	n/a	n/a	n/a	n/a	13	8	1	4	n/a	n/a	n/a	n/a	n/a
1119.476	n/a	PROB	559738	n/a	LTP252	ltpFR	13	n/a	n/a	n/a	n/a	n/a	n/a	18	6	6	6	n/a	n/a	n/a	n/a	n/a
1122.904	n/a	PROB	561452	n/a	LTP252	ltpFR	13	n/a	n/a	n/a	n/a	n/a	n/a	22	5	8	9	n/a	n/a	n/a	n/a	n/a
1124.304	n/a	PROB	562152	n/a	LTP252	ltpFR	13	n/a	n/a	n/a	n/a	n/a	n/a	15	9	4	2	n/a	n/a	n/a	n/a	n/a
1125.618	n/a	PROB	562809	n/a	LTP252	ltpFR	13	n/a	n/a	n/a	n/a	n/a	n/a	18	6	7	5	n/a	n/a	n/a	n/a	n/a
1127.748	n/a	PROB	563874	n/a	LTP252	ltpFR	13	n/a	n/a	n/a	n/a	n/a	n/a	20	8	8	4	n/a	n/a	n/a	n/a	n/a
1129.378	n/a	PROB	564689	n/a	LTP252	ltpFR	13	n/a	n/a	n/a	n/a	n/a	n/a	15	5	8	2	n/a	n/a	n/a	n/a	n/a
1130.71	n/a	PROB	565355	n/a	LTP252	ltpFR	13	n/a	n/a	n/a	n/a	n/a	n/a	14	5	8	1	n/a	n/a	n/a	n/a	n/a
1132.088	n/a	STOP	566044	n/a	LTP252	ltpFR	13	n/a	n/a	n/a	n/a	n/a	n/a	n/a	n/a	n/a	n/a	n/a	n/a	n/a	n/a	n/a
1133.788	n/a	WORD	566894	wordpools/wasnorm_wordpool_less_exclusions.txt	LTP252	ltpFR	13	4	1	DRAWING	494	n/a	0	n/a	0	0	0	1	0.412841796875	0.57763671875	upper	../fonts/zerothre.ttf
1136.802	n/a	START	568401	n/a	LTP252	ltpFR	13	n/a	n/a	n/a	n/a	n/a	n/a	n/a	n/a	n/a	n/a	n/a	n/a	n/a	n/a	n/a
1137.982	n/a	PROB	568991	n/a	LTP252	ltpFR	13	n/a	n/a	n/a	n/a	n/a	n/a	5	2	1	2	n/a	n/a	n/a	n/a	n/a
1139.232	n/a	PROB	569616	n/a	LTP252	ltpFR	13	n/a	n/a	n/a	n/a	n/a	n/a	5	1	2	2	n/a	n/a	n/a	n/a	n/a
1140.182	n/a	PROB	570091	n/a	LTP252	ltpFR	13	n/a	n/a	n/a	n/a	n/a	n/a	15	8	3	4	n/a	n/a	n/a	n/a	n/a
1141.944	n/a	PROB	570972	n/a	LTP252	ltpFR	13	n/a	n/a	n/a	n/a	n/a	n/a	16	6	5	5	n/a	n/a	n/a	n/a	n/a
1143.11	n/a	PROB	571555	n/a	LTP252	ltpFR	13	n/a	n/a	n/a	n/a	n/a	n/a	14	9	4	1	n/a	n/a	n/a	n/a	n/a
1144.242	n/a	PROB	572121	n/a	LTP252	ltpFR	13	n/a	n/a	n/a	n/a	n/a	n/a	12	2	8	2	n/a	n/a	n/a	n/a	n/a
1145.388	n/a	PROB	572694	n/a	LTP252	ltpFR	13	n/a	n/a	n/a	n/a	n/a	n/a	13	5	5	3	n/a	n/a	n/a	n/a	n/a
1146.504	n/a	PROB	573252	n/a	LTP252	ltpFR	13	n/a	n/a	n/a	n/a	n/a	n/a	16	3	6	7	n/a	n/a	n/a	n/a	n/a
1147.686	n/a	PROB	573843	n/a	LTP252	ltpFR	13	n/a	n/a	n/a	n/a	n/a	n/a	14	1	9	4	n/a	n/a	n/a	n/a	n/a
1148.8	n/a	PROB	574400	n/a	LTP252	ltpFR	13	n/a	n/a	n/a	n/a	n/a	n/a	21	8	4	9	n/a	n/a	n/a	n/a	n/a
1150.548	n/a	PROB	575274	n/a	LTP252	ltpFR	13	n/a	n/a	n/a	n/a	n/a	n/a	8	2	3	3	n/a	n/a	n/a	n/a	n/a
1151.928	n/a	STOP	575964	n/a	LTP252	ltpFR	13	n/a	n/a	n/a	n/a	n/a	n/a	n/a	n/a	n/a	n/a	n/a	n/a	n/a	n/a	n/a
1153.91	n/a	WORD	576955	wordpools/wasnorm_wordpool_less_exclusions.txt	LTP252	ltpFR	13	4	1	REFRIGERATOR	1179	n/a	0	n/a	0	0	0	1	0.412841796875	0.57763671875	upper	../fonts/zerothre.ttf
1156.922	n/a	START	578461	n/a	LTP252	ltpFR	13	n/a	n/a	n/a	n/a	n/a	n/a	n/a	n/a	n/a	n/a	n/a	n/a	n/a	n/a	n/a
1157.738	n/a	PROB	578869	n/a	LTP252	ltpFR	13	n/a	n/a	n/a	n/a	n/a	n/a	13	2	7	4	n/a	n/a	n/a	n/a	n/a
1160.068	n/a	PROB	580034	n/a	LTP252	ltpFR	13	n/a	n/a	n/a	n/a	n/a	n/a	11	2	7	2	n/a	n/a	n/a	n/a	n/a
1161.764	n/a	PROB	580882	n/a	LTP252	ltpFR	13	n/a	n/a	n/a	n/a	n/a	n/a	14	6	5	3	n/a	n/a	n/a	n/a	n/a
1164.028	n/a	PROB	582014	n/a	LTP252	ltpFR	13	n/a	n/a	n/a	n/a	n/a	n/a	10	4	4	2	n/a	n/a	n/a	n/a	n/a
1165.344	n/a	PROB	582672	n/a	LTP252	ltpFR	13	n/a	n/a	n/a	n/a	n/a	n/a	16	5	3	8	n/a	n/a	n/a	n/a	n/a
1166.64	n/a	PROB	583320	n/a	LTP252	ltpFR	13	n/a	n/a	n/a	n/a	n/a	n/a	21	9	6	6	n/a	n/a	n/a	n/a	n/a
1168.056	n/a	PROB	584028	n/a	LTP252	ltpFR	13	n/a	n/a	n/a	n/a	n/a	n/a	11	7	1	3	n/a	n/a	n/a	n/a	n/a
1169.172	n/a	PROB	584586	n/a	LTP252	ltpFR	13	n/a	n/a	n/a	n/a	n/a	n/a	21	6	6	9	n/a	n/a	n/a	n/a	n/a
1170.552	n/a	PROB	585276	n/a	LTP252	ltpFR	13	n/a	n/a	n/a	n/a	n/a	n/a	11	3	6	2	n/a	n/a	n/a	n/a	n/a
1172.202	n/a	STOP	586101	n/a	LTP252	ltpFR	13	n/a	n/a	n/a	n/a	n/a	n/a	n/a	n/a	n/a	n/a	n/a	n/a	n/a	n/a	n/a
1173.98	n/a	WORD	586990	wordpools/wasnorm_wordpool_less_exclusions.txt	LTP252	ltpFR	13	4	1	CANNON	232	n/a	0	n/a	0	0	0	1	0.412841796875	0.57763671875	upper	../fonts/zerothre.ttf
1176.992	n/a	START	588496	n/a	LTP252	ltpFR	13	n/a	n/a	n/a	n/a	n/a	n/a	n/a	n/a	n/a	n/a	n/a	n/a	n/a	n/a	n/a
1177.908	n/a	PROB	588954	n/a	LTP252	ltpFR	13	n/a	n/a	n/a	n/a	n/a	n/a	19	7	7	5	n/a	n/a	n/a	n/a	n/a
1180.088	n/a	PROB	590044	n/a	LTP252	ltpFR	13	n/a	n/a	n/a	n/a	n/a	n/a	7	1	3	3	n/a	n/a	n/a	n/a	n/a
1181.22	n/a	PROB	590610	n/a	LTP252	ltpFR	13	n/a	n/a	n/a	n/a	n/a	n/a	6	3	1	2	n/a	n/a	n/a	n/a	n/a
1182.318	n/a	PROB	591159	n/a	LTP252	ltpFR	13	n/a	n/a	n/a	n/a	n/a	n/a	14	7	1	6	n/a	n/a	n/a	n/a	n/a
1183.914	n/a	PROB	591957	n/a	LTP252	ltpFR	13	n/a	n/a	n/a	n/a	n/a	n/a	19	3	7	9	n/a	n/a	n/a	n/a	n/a
1185.08	n/a	PROB	592540	n/a	LTP252	ltpFR	13	n/a	n/a	n/a	n/a	n/a	n/a	7	4	1	2	n/a	n/a	n/a	n/a	n/a
1186.296	n/a	PROB	593148	n/a	LTP252	ltpFR	13	n/a	n/a	n/a	n/a	n/a	n/a	17	9	7	1	n/a	n/a	n/a	n/a	n/a
1187.71	n/a	PROB	593855	n/a	LTP252	ltpFR	13	n/a	n/a	n/a	n/a	n/a	n/a	15	7	3	5	n/a	n/a	n/a	n/a	n/a
1188.924	n/a	PROB	594462	n/a	LTP252	ltpFR	13	n/a	n/a	n/a	n/a	n/a	n/a	16	5	4	7	n/a	n/a	n/a	n/a	n/a
1190.92	n/a	PROB	595460	n/a	LTP252	ltpFR	13	n/a	n/a	n/a	n/a	n/a	n/a	10	5	2	3	n/a	n/a	n/a	n/a	n/a
1192.034	n/a	STOP	596017	n/a	LTP252	ltpFR	13	n/a	n/a	n/a	n/a	n/a	n/a	n/a	n/a	n/a	n/a	n/a	n/a	n/a	n/a	n/a
1193.866	n/a	WORD	596933	wordpools/wasnorm_wordpool_less_exclusions.txt	LTP252	ltpFR	13	4	1	MISTER	901	n/a	1	n/a	0	0	0	1	0.412841796875	0.57763671875	upper	../fonts/zerothre.ttf
1196.88	n/a	START	598440	n/a	LTP252	ltpFR	13	n/a	n/a	n/a	n/a	n/a	n/a	n/a	n/a	n/a	n/a	n/a	n/a	n/a	n/a	n/a
1198.028	n/a	PROB	599014	n/a	LTP252	ltpFR	13	n/a	n/a	n/a	n/a	n/a	n/a	14	4	7	3	n/a	n/a	n/a	n/a	n/a
1199.292	n/a	PROB	599646	n/a	LTP252	ltpFR	13	n/a	n/a	n/a	n/a	n/a	n/a	20	3	8	9	n/a	n/a	n/a	n/a	n/a
1203.286	n/a	PROB	601643	n/a	LTP252	ltpFR	13	n/a	n/a	n/a	n/a	n/a	n/a	23	8	8	7	n/a	n/a	n/a	n/a	n/a
1207.132	n/a	PROB	603566	n/a	LTP252	ltpFR	13	n/a	n/a	n/a	n/a	n/a	n/a	15	7	1	7	n/a	n/a	n/a	n/a	n/a
1208.33	n/a	PROB	604165	n/a	LTP252	ltpFR	13	n/a	n/a	n/a	n/a	n/a	n/a	16	6	5	5	n/a	n/a	n/a	n/a	n/a
1209.362	n/a	PROB	604681	n/a	LTP252	ltpFR	13	n/a	n/a	n/a	n/a	n/a	n/a	19	5	9	5	n/a	n/a	n/a	n/a	n/a
1210.542	n/a	PROB	605271	n/a	LTP252	ltpFR	13	n/a	n/a	n/a	n/a	n/a	n/a	9	6	2	1	n/a	n/a	n/a	n/a	n/a
1211.664	n/a	STOP	605832	n/a	LTP252	ltpFR	13	n/a	n/a	n/a	n/a	n/a	n/a	n/a	n/a	n/a	n/a	n/a	n/a	n/a	n/a	n/a
1213.822	n/a	WORD	606911	wordpools/wasnorm_wordpool_less_exclusions.txt	LTP252	ltpFR	13	4	1	SCALLOP	1242	n/a	0	n/a	0	0	0	1	0.412841796875	0.57763671875	upper	../fonts/zerothre.ttf
1216.834	n/a	START	608417	n/a	LTP252	ltpFR	13	n/a	n/a	n/a	n/a	n/a	n/a	n/a	n/a	n/a	n/a	n/a	n/a	n/a	n/a	n/a
1217.982	n/a	PROB	608991	n/a	LTP252	ltpFR	13	n/a	n/a	n/a	n/a	n/a	n/a	7	2	2	3	n/a	n/a	n/a	n/a	n/a
1219.496	n/a	PROB	609748	n/a	LTP252	ltpFR	13	n/a	n/a	n/a	n/a	n/a	n/a	7	5	1	1	n/a	n/a	n/a	n/a	n/a
1220.494	n/a	PROB	610247	n/a	LTP252	ltpFR	13	n/a	n/a	n/a	n/a	n/a	n/a	15	6	6	3	n/a	n/a	n/a	n/a	n/a
1222.26	n/a	PROB	611130	n/a	LTP252	ltpFR	13	n/a	n/a	n/a	n/a	n/a	n/a	19	9	4	6	n/a	n/a	n/a	n/a	n/a
1223.474	n/a	PROB	611737	n/a	LTP252	ltpFR	13	n/a	n/a	n/a	n/a	n/a	n/a	11	4	4	3	n/a	n/a	n/a	n/a	n/a
1225.354	n/a	PROB	612677	n/a	LTP252	ltpFR	13	n/a	n/a	n/a	n/a	n/a	n/a	18	7	6	5	n/a	n/a	n/a	n/a	n/a
1227.534	n/a	PROB	613767	n/a	LTP252	ltpFR	13	n/a	n/a	n/a	n/a	n/a	n/a	10	2	1	7	n/a	n/a	n/a	n/a	n/a
1228.616	n/a	PROB	614308	n/a	LTP252	ltpFR	13	n/a	n/a	n/a	n/a	n/a	n/a	21	4	8	9	n/a	n/a	n/a	n/a	n/a
1229.996	n/a	PROB	614998	n/a	LTP252	ltpFR	13	n/a	n/a	n/a	n/a	n/a	n/a	10	5	3	2	n/a	n/a	n/a	n/a	n/a
1231.33	n/a	STOP	615665	n/a	LTP252	ltpFR	13	n/a	n/a	n/a	n/a	n/a	n/a	n/a	n/a	n/a	n/a	n/a	n/a	n/a	n/a	n/a
1234.042	n/a	WORD	617021	wordpools/wasnorm_wordpool_less_exclusions.txt	LTP252	ltpFR	13	4	1	TROUT	1511	n/a	1	n/a	0	0	0	1	0.412841796875	0.57763671875	upper	../fonts/zerothre.ttf
1237.054	n/a	START	618527	n/a	LTP252	ltpFR	13	n/a	n/a	n/a	n/a	n/a	n/a	n/a	n/a	n/a	n/a	n/a	n/a	n/a	n/a	n/a
1238.152	n/a	PROB	619076	n/a	LTP252	ltpFR	13	n/a	n/a	n/a	n/a	n/a	n/a	8	2	3	3	n/a	n/a	n/a	n/a	n/a
1239.516	n/a	PROB	619758	n/a	LTP252	ltpFR	13	n/a	n/a	n/a	n/a	n/a	n/a	12	1	5	6	n/a	n/a	n/a	n/a	n/a
1240.614	n/a	PROB	620307	n/a	LTP252	ltpFR	13	n/a	n/a	n/a	n/a	n/a	n/a	8	1	2	5	n/a	n/a	n/a	n/a	n/a
1241.946	n/a	PROB	620973	n/a	LTP252	ltpFR	13	n/a	n/a	n/a	n/a	n/a	n/a	18	9	7	2	n/a	n/a	n/a	n/a	n/a
1243.312	n/a	PROB	621656	n/a	LTP252	ltpFR	13	n/a	n/a	n/a	n/a	n/a	n/a	12	6	3	3	n/a	n/a	n/a	n/a	n/a
1244.576	n/a	PROB	622288	n/a	LTP252	ltpFR	13	n/a	n/a	n/a	n/a	n/a	n/a	15	7	7	1	n/a	n/a	n/a	n/a	n/a
1245.674	n/a	PROB	622837	n/a	LTP252	ltpFR	13	n/a	n/a	n/a	n/a	n/a	n/a	16	1	8	7	n/a	n/a	n/a	n/a	n/a
1246.954	n/a	PROB	623477	n/a	LTP252	ltpFR	13	n/a	n/a	n/a	n/a	n/a	n/a	12	1	6	5	n/a	n/a	n/a	n/a	n/a
1248.17	n/a	PROB	624085	n/a	LTP252	ltpFR	13	n/a	n/a	n/a	n/a	n/a	n/a	9	1	6	2	n/a	n/a	n/a	n/a	n/a
1249.75	n/a	PROB	624875	n/a	LTP252	ltpFR	13	n/a	n/a	n/a	n/a	n/a	n/a	19	9	4	6	n/a	n/a	n/a	n/a	n/a
1250.948	n/a	PROB	625474	n/a	LTP252	ltpFR	13	n/a	n/a	n/a	n/a	n/a	n/a	18	9	8	1	n/a	n/a	n/a	n/a	n/a
1252.226	n/a	STOP	626113	n/a	LTP252	ltpFR	13	n/a	n/a	n/a	n/a	n/a	n/a	n/a	n/a	n/a	n/a	n/a	n/a	n/a	n/a	n/a
1254.062	n/a	WORD	627031	wordpools/wasnorm_wordpool_less_exclusions.txt	LTP252	ltpFR	13	4	1	QUILL	1150	n/a	0	n/a	0	0	0	1	0.412841796875	0.57763671875	upper	../fonts/zerothre.ttf
1257.074	n/a	START	628537	n/a	LTP252	ltpFR	13	n/a	n/a	n/a	n/a	n/a	n/a	n/a	n/a	n/a	n/a	n/a	n/a	n/a	n/a	n/a
1258.256	n/a	PROB	629128	n/a	LTP252	ltpFR	13	n/a	n/a	n/a	n/a	n/a	n/a	14	3	4	7	n/a	n/a	n/a	n/a	n/a
1259.436	n/a	PROB	629718	n/a	LTP252	ltpFR	13	n/a	n/a	n/a	n/a	n/a	n/a	12	3	4	5	n/a	n/a	n/a	n/a	n/a
1261.134	n/a	PROB	630567	n/a	LTP252	ltpFR	13	n/a	n/a	n/a	n/a	n/a	n/a	13	3	8	2	n/a	n/a	n/a	n/a	n/a
1264.396	n/a	PROB	632198	n/a	LTP252	ltpFR	13	n/a	n/a	n/a	n/a	n/a	n/a	19	2	8	9	n/a	n/a	n/a	n/a	n/a
1265.56	n/a	PROB	632780	n/a	LTP252	ltpFR	13	n/a	n/a	n/a	n/a	n/a	n/a	17	6	8	3	n/a	n/a	n/a	n/a	n/a
1267.192	n/a	PROB	633596	n/a	LTP252	ltpFR	13	n/a	n/a	n/a	n/a	n/a	n/a	21	7	7	7	n/a	n/a	n/a	n/a	n/a
1268.372	n/a	PROB	634186	n/a	LTP252	ltpFR	13	n/a	n/a	n/a	n/a	n/a	n/a	17	6	2	9	n/a	n/a	n/a	n/a	n/a
1270.154	n/a	PROB	635077	n/a	LTP252	ltpFR	13	n/a	n/a	n/a	n/a	n/a	n/a	10	3	3	4	n/a	n/a	n/a	n/a	n/a
1273.074	n/a	STOP	636537	n/a	LTP252	ltpFR	13	n/a	n/a	n/a	n/a	n/a	n/a	n/a	n/a	n/a	n/a	n/a	n/a	n/a	n/a	n/a
1274.216	n/a	WORD	637108	wordpools/wasnorm_wordpool_less_exclusions.txt	LTP252	ltpFR	13	4	1	ROCKET	1202	n/a	0	n/a	0	0	0	1	0.412841796875	0.57763671875	upper	../fonts/zerothre.ttf
1277.228	n/a	START	638614	n/a	LTP252	ltpFR	13	n/a	n/a	n/a	n/a	n/a	n/a	n/a	n/a	n/a	n/a	n/a	n/a	n/a	n/a	n/a
1278.342	n/a	PROB	639171	n/a	LTP252	ltpFR	13	n/a	n/a	n/a	n/a	n/a	n/a	18	5	4	9	n/a	n/a	n/a	n/a	n/a
1279.556	n/a	PROB	639778	n/a	LTP252	ltpFR	13	n/a	n/a	n/a	n/a	n/a	n/a	10	2	1	7	n/a	n/a	n/a	n/a	n/a
1280.87	n/a	PROB	640435	n/a	LTP252	ltpFR	13	n/a	n/a	n/a	n/a	n/a	n/a	18	6	4	8	n/a	n/a	n/a	n/a	n/a
1282.086	n/a	PROB	641043	n/a	LTP252	ltpFR	13	n/a	n/a	n/a	n/a	n/a	n/a	19	3	7	9	n/a	n/a	n/a	n/a	n/a
1283.268	n/a	PROB	641634	n/a	LTP252	ltpFR	13	n/a	n/a	n/a	n/a	n/a	n/a	22	9	6	8	n/a	n/a	n/a	n/a	n/a
1285.432	n/a	PROB	642716	n/a	LTP252	ltpFR	13	n/a	n/a	n/a	n/a	n/a	n/a	21	6	9	6	n/a	n/a	n/a	n/a	n/a
1286.912	n/a	PROB	643456	n/a	LTP252	ltpFR	13	n/a	n/a	n/a	n/a	n/a	n/a	18	8	4	6	n/a	n/a	n/a	n/a	n/a
1288.312	n/a	PROB	644156	n/a	LTP252	ltpFR	13	n/a	n/a	n/a	n/a	n/a	n/a	13	3	6	4	n/a	n/a	n/a	n/a	n/a
1289.492	n/a	PROB	644746	n/a	LTP252	ltpFR	13	n/a	n/a	n/a	n/a	n/a	n/a	15	4	9	2	n/a	n/a	n/a	n/a	n/a
1290.84	n/a	PROB	645420	n/a	LTP252	ltpFR	13	n/a	n/a	n/a	n/a	n/a	n/a	8	2	4	2	n/a	n/a	n/a	n/a	n/a
1292.018	n/a	STOP	646009	n/a	LTP252	ltpFR	13	n/a	n/a	n/a	n/a	n/a	n/a	n/a	n/a	n/a	n/a	n/a	n/a	n/a	n/a	n/a
1295.002	n/a	REC_START	647501	n/a	LTP252	ltpFR	13	4	n/a	n/a	n/a	n/a	n/a	n/a	0	0	0	n/a	n/a	n/a	n/a	n/a
1296.336	n/a	REC_WORD	648168	wordpools/wasnorm_wordpool_less_exclusions.txt	LTP252	ltpFR	13	4	1	ROCKET	1202	n/a	0	n/a	0	0	0	n/a	n/a	n/a	n/a	n/a
1297.274	n/a	REC_WORD	648637	wordpools/wasnorm_wordpool_less_exclusions.txt	LTP252	ltpFR	13	4	1	CANNON	232	n/a	0	n/a	0	0	0	n/a	n/a	n/a	n/a	n/a
1298.246	n/a	REC_WORD	649123	wordpools/wasnorm_wordpool_less_exclusions.txt	LTP252	ltpFR	13	4	1	QUILL	1150	n/a	0	n/a	0	0	0	n/a	n/a	n/a	n/a	n/a
1299.522	n/a	REC_WORD	649761	wordpools/wasnorm_wordpool_less_exclusions.txt	LTP252	ltpFR	13	4	1	PAINT	1003	n/a	0	n/a	0	0	0	n/a	n/a	n/a	n/a	n/a
1300.514	n/a	REC_WORD	650257	wordpools/wasnorm_wordpool_less_exclusions.txt	LTP252	ltpFR	13	4	1	REFRIGERATOR	1179	n/a	0	n/a	0	0	0	n/a	n/a	n/a	n/a	n/a
1302.662	n/a	REC_WORD	651331	wordpools/wasnorm_wordpool_less_exclusions.txt	LTP252	ltpFR	13	4	1	BOY	161	n/a	1	n/a	0	0	0	n/a	n/a	n/a	n/a	n/a
1303.508	n/a	REC_WORD	651754	wordpools/wasnorm_wordpool_less_exclusions.txt	LTP252	ltpFR	13	4	1	MISTER	901	n/a	1	n/a	0	0	0	n/a	n/a	n/a	n/a	n/a
1304.72	n/a	REC_WORD	652360	wordpools/wasnorm_wordpool_less_exclusions.txt	LTP252	ltpFR	13	4	1	SAW	1239	n/a	0	n/a	0	0	0	n/a	n/a	n/a	n/a	n/a
1305.918	n/a	REC_WORD	652959	wordpools/wasnorm_wordpool_less_exclusions.txt	LTP252	ltpFR	13	4	1	TREE	1502	n/a	1	n/a	0	0	0	n/a	n/a	n/a	n/a	n/a
1307.514	n/a	REC_WORD	653757	wordpools/wasnorm_wordpool_less_exclusions.txt	LTP252	ltpFR	13	4	1	QUARTER	1148	n/a	0	n/a	0	0	0	n/a	n/a	n/a	n/a	n/a
1308.972	n/a	REC_WORD	654486	wordpools/wasnorm_wordpool_less_exclusions.txt	LTP252	ltpFR	13	4	1	RANCH	1166	n/a	0	n/a	0	0	0	n/a	n/a	n/a	n/a	n/a
1311.09	n/a	REC_WORD	655545	wordpools/wasnorm_wordpool_less_exclusions.txt	LTP252	ltpFR	13	4	1	STALLION	1369	n/a	1	n/a	0	0	0	n/a	n/a	n/a	n/a	n/a
1313.66	n/a	REC_WORD	656830	wordpools/wasnorm_wordpool_less_exclusions.txt	LTP252	ltpFR	13	4	1	SCALLOP	1242	n/a	0	n/a	0	0	0	n/a	n/a	n/a	n/a	n/a
1314.79	n/a	REC_WORD	657395	wordpools/wasnorm_wordpool_less_exclusions.txt	LTP252	ltpFR	13	4	1	TROUT	1511	n/a	1	n/a	0	0	0	n/a	n/a	n/a	n/a	n/a
1318.916	n/a	REC_WORD	659458	wordpools/wasnorm_wordpool_less_exclusions.txt	LTP252	ltpFR	13	4	1	SCROLL	1257	n/a	0	n/a	0	0	0	n/a	n/a	n/a	n/a	n/a
1319.942	n/a	REC_WORD	659971	wordpools/wasnorm_wordpool_less_exclusions.txt	LTP252	ltpFR	13	4	n/a	PICTURE	1061	n/a	n/a	n/a	0	0	0	n/a	n/a	n/a	n/a	n/a
1322.198	n/a	REC_WORD	661099	wordpools/wasnorm_wordpool_less_exclusions.txt	LTP252	ltpFR	13	4	1	DRAWING	494	n/a	0	n/a	0	0	0	n/a	n/a	n/a	n/a	n/a
1324.294	n/a	REC_WORD_VV	662147	wordpools/wasnorm_wordpool_less_exclusions.txt	LTP252	ltpFR	13	4	n/a	<>	-1	n/a	n/a	n/a	0	0	0	n/a	n/a	n/a	n/a	n/a
1372.586	n/a	WORD	686293	wordpools/wasnorm_wordpool_less_exclusions.txt	LTP252	ltpFR	13	5	1	DANDRUFF	439	n/a	0	n/a	0	0	0	1	0.412841796875	0.57763671875	upper	../fonts/zerothre.ttf
1376.68	n/a	WORD	688340	wordpools/wasnorm_wordpool_less_exclusions.txt	LTP252	ltpFR	13	5	1	UTENSIL	1542	n/a	0	n/a	0	0	0	1	0.412841796875	0.57763671875	upper	../fonts/zerothre.ttf
1380.558	n/a	WORD	690279	wordpools/wasnorm_wordpool_less_exclusions.txt	LTP252	ltpFR	13	5	1	SCALPEL	1243	n/a	0	n/a	0	0	0	1	0.412841796875	0.57763671875	upper	../fonts/zerothre.ttf
1384.602	n/a	WORD	692301	wordpools/wasnorm_wordpool_less_exclusions.txt	LTP252	ltpFR	13	5	0	MONASTERY	907	n/a	1	n/a	0	0	0	0	0.5869140625	0.422607421875	lower	../fonts/amplitud.ttf
1388.612	n/a	WORD	694306	wordpools/wasnorm_wordpool_less_exclusions.txt	LTP252	ltpFR	13	5	0	FRIAR	605	n/a	1	n/a	0	0	0	0	0.5869140625	0.422607421875	lower	../fonts/amplitud.ttf
1392.572	n/a	WORD	696286	wordpools/wasnorm_wordpool_less_exclusions.txt	LTP252	ltpFR	13	5	0	DETERGENT	455	n/a	0	n/a	0	0	0	0	0.5869140625	0.422607421875	lower	../fonts/amplitud.ttf
1396.616	n/a	WORD	698308	wordpools/wasnorm_wordpool_less_exclusions.txt	LTP252	ltpFR	13	5	0	CLOSET	326	n/a	1	n/a	0	0	0	0	0.5869140625	0.422607421875	lower	../fonts/amplitud.ttf
1400.628	n/a	WORD	700314	wordpools/wasnorm_wordpool_less_exclusions.txt	LTP252	ltpFR	13	5	1	COP	376	n/a	1	n/a	0	0	0	1	0.412841796875	0.57763671875	upper	../fonts/zerothre.ttf
1404.538	n/a	WORD	702269	wordpools/wasnorm_wordpool_less_exclusions.txt	LTP252	ltpFR	13	5	1	ROPE	1211	n/a	0	n/a	0	0	0	1	0.412841796875	0.57763671875	upper	../fonts/zerothre.ttf
1408.748	n/a	WORD	704374	wordpools/wasnorm_wordpool_less_exclusions.txt	LTP252	ltpFR	13	5	1	PIRATE	1074	n/a	1	n/a	0	0	0	1	0.412841796875	0.57763671875	upper	../fonts/zerothre.ttf
1412.692	n/a	WORD	706346	wordpools/wasnorm_wordpool_less_exclusions.txt	LTP252	ltpFR	13	5	1	ARTIST	43	n/a	1	n/a	0	0	0	1	0.412841796875	0.57763671875	upper	../fonts/zerothre.ttf
1416.654	n/a	WORD	708327	wordpools/wasnorm_wordpool_less_exclusions.txt	LTP252	ltpFR	13	5	1	SKILLET	1317	n/a	0	n/a	0	0	0	1	0.412841796875	0.57763671875	upper	../fonts/zerothre.ttf
1420.73	n/a	WORD	710365	wordpools/wasnorm_wordpool_less_exclusions.txt	LTP252	ltpFR	13	5	0	SPOON	1357	n/a	0	n/a	0	0	0	0	0.5869140625	0.422607421875	lower	../fonts/amplitud.ttf
1424.708	n/a	WORD	712354	wordpools/wasnorm_wordpool_less_exclusions.txt	LTP252	ltpFR	13	5	0	PAINTER	1004	n/a	1	n/a	0	0	0	0	0.5869140625	0.422607421875	lower	../fonts/amplitud.ttf
1428.786	n/a	WORD	714393	wordpools/wasnorm_wordpool_less_exclusions.txt	LTP252	ltpFR	13	5	0	WORKER	1621	n/a	1	n/a	0	0	0	0	0.5869140625	0.422607421875	lower	../fonts/amplitud.ttf
1432.914	n/a	WORD	716457	wordpools/wasnorm_wordpool_less_exclusions.txt	LTP252	ltpFR	13	5	0	TYPIST	1532	n/a	1	n/a	0	0	0	0	0.5869140625	0.422607421875	lower	../fonts/amplitud.ttf
1438.838	n/a	REC_START	719419	n/a	LTP252	ltpFR	13	5	n/a	n/a	n/a	n/a	n/a	n/a	0	0	0	n/a	n/a	n/a	n/a	n/a
1440.642	n/a	REC_WORD	720321	wordpools/wasnorm_wordpool_less_exclusions.txt	LTP252	ltpFR	13	5	0	TYPIST	1532	n/a	1	n/a	0	0	0	n/a	n/a	n/a	n/a	n/a
1442.846	n/a	REC_WORD	721423	wordpools/wasnorm_wordpool_less_exclusions.txt	LTP252	ltpFR	13	5	0	PAINTER	1004	n/a	1	n/a	0	0	0	n/a	n/a	n/a	n/a	n/a
1443.962	n/a	REC_WORD	721981	wordpools/wasnorm_wordpool_less_exclusions.txt	LTP252	ltpFR	13	5	0	WORKER	1621	n/a	1	n/a	0	0	0	n/a	n/a	n/a	n/a	n/a
1444.72	n/a	REC_WORD	722360	wordpools/wasnorm_wordpool_less_exclusions.txt	LTP252	ltpFR	13	5	1	SKILLET	1317	n/a	0	n/a	0	0	0	n/a	n/a	n/a	n/a	n/a
1446.334	n/a	REC_WORD	723167	wordpools/wasnorm_wordpool_less_exclusions.txt	LTP252	ltpFR	13	5	0	SPOON	1357	n/a	0	n/a	0	0	0	n/a	n/a	n/a	n/a	n/a
1447.526	n/a	REC_WORD	723763	wordpools/wasnorm_wordpool_less_exclusions.txt	LTP252	ltpFR	13	5	1	UTENSIL	1542	n/a	0	n/a	0	0	0	n/a	n/a	n/a	n/a	n/a
1448.986	n/a	REC_WORD	724493	wordpools/wasnorm_wordpool_less_exclusions.txt	LTP252	ltpFR	13	5	1	SCALPEL	1243	n/a	0	n/a	0	0	0	n/a	n/a	n/a	n/a	n/a
1450.064	n/a	REC_WORD	725032	wordpools/wasnorm_wordpool_less_exclusions.txt	LTP252	ltpFR	13	5	1	DANDRUFF	439	n/a	0	n/a	0	0	0	n/a	n/a	n/a	n/a	n/a
1451.148	n/a	REC_WORD	725574	wordpools/wasnorm_wordpool_less_exclusions.txt	LTP252	ltpFR	13	5	1	COP	376	n/a	1	n/a	0	0	0	n/a	n/a	n/a	n/a	n/a
1453.342	n/a	REC_WORD	726671	wordpools/wasnorm_wordpool_less_exclusions.txt	LTP252	ltpFR	13	5	0	FRIAR	605	n/a	1	n/a	0	0	0	n/a	n/a	n/a	n/a	n/a
1454.468	n/a	REC_WORD	727234	wordpools/wasnorm_wordpool_less_exclusions.txt	LTP252	ltpFR	13	5	0	MONASTERY	907	n/a	1	n/a	0	0	0	n/a	n/a	n/a	n/a	n/a
1455.962	n/a	REC_WORD	727981	wordpools/wasnorm_wordpool_less_exclusions.txt	LTP252	ltpFR	13	5	1	ARTIST	43	n/a	1	n/a	0	0	0	n/a	n/a	n/a	n/a	n/a
1470.258	n/a	REC_WORD	735129	wordpools/wasnorm_wordpool_less_exclusions.txt	LTP252	ltpFR	13	5	1	ROPE	1211	n/a	0	n/a	0	0	0	n/a	n/a	n/a	n/a	n/a
1473.628	n/a	REC_WORD	736814	wordpools/wasnorm_wordpool_less_exclusions.txt	LTP252	ltpFR	13	5	0	CLOSET	326	n/a	1	n/a	0	0	0	n/a	n/a	n/a	n/a	n/a
1498.298	n/a	REC_WORD	749149	wordpools/wasnorm_wordpool_less_exclusions.txt	LTP252	ltpFR	13	5	1	PIRATE	1074	n/a	1	n/a	0	0	0	n/a	n/a	n/a	n/a	n/a
1514.926	n/a	START	757463	n/a	LTP252	ltpFR	13	n/a	n/a	n/a	n/a	n/a	n/a	n/a	n/a	n/a	n/a	n/a	n/a	n/a	n/a	n/a
1516.44	n/a	PROB	758220	n/a	LTP252	ltpFR	13	n/a	n/a	n/a	n/a	n/a	n/a	19	9	3	7	n/a	n/a	n/a	n/a	n/a
1517.704	n/a	PROB	758852	n/a	LTP252	ltpFR	13	n/a	n/a	n/a	n/a	n/a	n/a	20	8	9	3	n/a	n/a	n/a	n/a	n/a
1521.134	n/a	PROB	760567	n/a	LTP252	ltpFR	13	n/a	n/a	n/a	n/a	n/a	n/a	14	7	5	2	n/a	n/a	n/a	n/a	n/a
1522.43	n/a	STOP	761215	n/a	LTP252	ltpFR	13	n/a	n/a	n/a	n/a	n/a	n/a	n/a	n/a	n/a	n/a	n/a	n/a	n/a	n/a	n/a
1524.028	n/a	WORD	762014	wordpools/wasnorm_wordpool_less_exclusions.txt	LTP252	ltpFR	13	6	0	JUNGLE	764	n/a	1	n/a	0	0	0	0	0.5869140625	0.422607421875	lower	../fonts/amplitud.ttf
1527.042	n/a	START	763521	n/a	LTP252	ltpFR	13	n/a	n/a	n/a	n/a	n/a	n/a	n/a	n/a	n/a	n/a	n/a	n/a	n/a	n/a	n/a
1528.174	n/a	PROB	764087	n/a	LTP252	ltpFR	13	n/a	n/a	n/a	n/a	n/a	n/a	25	7	9	9	n/a	n/a	n/a	n/a	n/a
1530.386	n/a	PROB	765193	n/a	LTP252	ltpFR	13	n/a	n/a	n/a	n/a	n/a	n/a	6	2	3	1	n/a	n/a	n/a	n/a	n/a
1531.55	n/a	PROB	765775	n/a	LTP252	ltpFR	13	n/a	n/a	n/a	n/a	n/a	n/a	19	5	8	6	n/a	n/a	n/a	n/a	n/a
1532.882	n/a	PROB	766441	n/a	LTP252	ltpFR	13	n/a	n/a	n/a	n/a	n/a	n/a	12	6	5	1	n/a	n/a	n/a	n/a	n/a
1533.862	n/a	STOP	766931	n/a	LTP252	ltpFR	13	n/a	n/a	n/a	n/a	n/a	n/a	n/a	n/a	n/a	n/a	n/a	n/a	n/a	n/a	n/a
1536.01	n/a	WORD	768005	wordpools/wasnorm_wordpool_less_exclusions.txt	LTP252	ltpFR	13	6	0	CHIMPANZEE	302	n/a	1	n/a	0	0	0	0	0.5869140625	0.422607421875	lower	../fonts/amplitud.ttf
1539.024	n/a	START	769512	n/a	LTP252	ltpFR	13	n/a	n/a	n/a	n/a	n/a	n/a	n/a	n/a	n/a	n/a	n/a	n/a	n/a	n/a	n/a
1539.904	n/a	PROB	769952	n/a	LTP252	ltpFR	13	n/a	n/a	n/a	n/a	n/a	n/a	10	2	3	5	n/a	n/a	n/a	n/a	n/a
1541.668	n/a	PROB	770834	n/a	LTP252	ltpFR	13	n/a	n/a	n/a	n/a	n/a	n/a	18	7	6	5	n/a	n/a	n/a	n/a	n/a
1543.084	n/a	PROB	771542	n/a	LTP252	ltpFR	13	n/a	n/a	n/a	n/a	n/a	n/a	9	4	2	3	n/a	n/a	n/a	n/a	n/a
1545.514	n/a	PROB	772757	n/a	LTP252	ltpFR	13	n/a	n/a	n/a	n/a	n/a	n/a	16	4	6	6	n/a	n/a	n/a	n/a	n/a
1546.798	n/a	STOP	773399	n/a	LTP252	ltpFR	13	n/a	n/a	n/a	n/a	n/a	n/a	n/a	n/a	n/a	n/a	n/a	n/a	n/a	n/a	n/a
1548.176	n/a	WORD	774088	wordpools/wasnorm_wordpool_less_exclusions.txt	LTP252	ltpFR	13	6	0	CROSS	413	n/a	0	n/a	0	0	0	0	0.5869140625	0.422607421875	lower	../fonts/amplitud.ttf
1551.19	n/a	START	775595	n/a	LTP252	ltpFR	13	n/a	n/a	n/a	n/a	n/a	n/a	n/a	n/a	n/a	n/a	n/a	n/a	n/a	n/a	n/a
1552.238	n/a	PROB	776119	n/a	LTP252	ltpFR	13	n/a	n/a	n/a	n/a	n/a	n/a	19	4	6	9	n/a	n/a	n/a	n/a	n/a
1553.502	n/a	PROB	776751	n/a	LTP252	ltpFR	13	n/a	n/a	n/a	n/a	n/a	n/a	17	2	8	7	n/a	n/a	n/a	n/a	n/a
1554.782	n/a	PROB	777391	n/a	LTP252	ltpFR	13	n/a	n/a	n/a	n/a	n/a	n/a	11	2	8	1	n/a	n/a	n/a	n/a	n/a
1555.948	n/a	PROB	777974	n/a	LTP252	ltpFR	13	n/a	n/a	n/a	n/a	n/a	n/a	13	5	2	6	n/a	n/a	n/a	n/a	n/a
1557.654	n/a	STOP	778827	n/a	LTP252	ltpFR	13	n/a	n/a	n/a	n/a	n/a	n/a	n/a	n/a	n/a	n/a	n/a	n/a	n/a	n/a	n/a
1560.176	n/a	WORD	780088	wordpools/wasnorm_wordpool_less_exclusions.txt	LTP252	ltpFR	13	6	0	BEAN	105	n/a	0	n/a	0	0	0	0	0.5869140625	0.422607421875	lower	../fonts/amplitud.ttf
1563.188	n/a	START	781594	n/a	LTP252	ltpFR	13	n/a	n/a	n/a	n/a	n/a	n/a	n/a	n/a	n/a	n/a	n/a	n/a	n/a	n/a	n/a
1564.12	n/a	PROB	782060	n/a	LTP252	ltpFR	13	n/a	n/a	n/a	n/a	n/a	n/a	12	2	7	3	n/a	n/a	n/a	n/a	n/a
1565.484	n/a	PROB	782742	n/a	LTP252	ltpFR	13	n/a	n/a	n/a	n/a	n/a	n/a	7	1	4	2	n/a	n/a	n/a	n/a	n/a
1567.282	n/a	PROB	783641	n/a	LTP252	ltpFR	13	n/a	n/a	n/a	n/a	n/a	n/a	10	2	1	7	n/a	n/a	n/a	n/a	n/a
1568.446	n/a	PROB	784223	n/a	LTP252	ltpFR	13	n/a	n/a	n/a	n/a	n/a	n/a	22	8	9	6	n/a	n/a	n/a	n/a	n/a
1570.55	n/a	STOP	785275	n/a	LTP252	ltpFR	13	n/a	n/a	n/a	n/a	n/a	n/a	n/a	n/a	n/a	n/a	n/a	n/a	n/a	n/a	n/a
1572.09	n/a	WORD	786045	wordpools/wasnorm_wordpool_less_exclusions.txt	LTP252	ltpFR	13	6	0	WHEAT	1602	n/a	0	n/a	0	0	0	0	0.5869140625	0.422607421875	lower	../fonts/amplitud.ttf
1575.104	n/a	START	787552	n/a	LTP252	ltpFR	13	n/a	n/a	n/a	n/a	n/a	n/a	n/a	n/a	n/a	n/a	n/a	n/a	n/a	n/a	n/a
1576.17	n/a	PROB	788085	n/a	LTP252	ltpFR	13	n/a	n/a	n/a	n/a	n/a	n/a	13	6	3	4	n/a	n/a	n/a	n/a	n/a
1577.516	n/a	PROB	788758	n/a	LTP252	ltpFR	13	n/a	n/a	n/a	n/a	n/a	n/a	15	5	8	2	n/a	n/a	n/a	n/a	n/a
1578.88	n/a	PROB	789440	n/a	LTP252	ltpFR	13	n/a	n/a	n/a	n/a	n/a	n/a	16	6	1	9	n/a	n/a	n/a	n/a	n/a
1580.728	n/a	PROB	790364	n/a	LTP252	ltpFR	13	n/a	n/a	n/a	n/a	n/a	n/a	18	9	6	3	n/a	n/a	n/a	n/a	n/a
1582.048	n/a	STOP	791024	n/a	LTP252	ltpFR	13	n/a	n/a	n/a	n/a	n/a	n/a	n/a	n/a	n/a	n/a	n/a	n/a	n/a	n/a	n/a
1584.29	n/a	WORD	792145	wordpools/wasnorm_wordpool_less_exclusions.txt	LTP252	ltpFR	13	6	0	DIAL	457	n/a	0	n/a	0	0	0	0	0.5869140625	0.422607421875	lower	../fonts/amplitud.ttf
1587.304	n/a	START	793652	n/a	LTP252	ltpFR	13	n/a	n/a	n/a	n/a	n/a	n/a	n/a	n/a	n/a	n/a	n/a	n/a	n/a	n/a	n/a
1588.5	n/a	PROB	794250	n/a	LTP252	ltpFR	13	n/a	n/a	n/a	n/a	n/a	n/a	14	4	8	2	n/a	n/a	n/a	n/a	n/a
1589.664	n/a	PROB	794832	n/a	LTP252	ltpFR	13	n/a	n/a	n/a	n/a	n/a	n/a	17	3	6	8	n/a	n/a	n/a	n/a	n/a
1591.214	n/a	PROB	795607	n/a	LTP252	ltpFR	13	n/a	n/a	n/a	n/a	n/a	n/a	16	3	8	6	n/a	n/a	n/a	n/a	n/a
1595.304	n/a	STOP	797652	n/a	LTP252	ltpFR	13	n/a	n/a	n/a	n/a	n/a	n/a	n/a	n/a	n/a	n/a	n/a	n/a	n/a	n/a	n/a
1596.122	n/a	WORD	798061	wordpools/wasnorm_wordpool_less_exclusions.txt	LTP252	ltpFR	13	6	1	BARN	89	n/a	0	n/a	0	0	0	1	0.412841796875	0.57763671875	upper	../fonts/zerothre.ttf
1599.136	n/a	START	799568	n/a	LTP252	ltpFR	13	n/a	n/a	n/a	n/a	n/a	n/a	n/a	n/a	n/a	n/a	n/a	n/a	n/a	n/a	n/a
1600.216	n/a	PROB	800108	n/a	LTP252	ltpFR	13	n/a	n/a	n/a	n/a	n/a	n/a	12	7	4	1	n/a	n/a	n/a	n/a	n/a
1601.548	n/a	PROB	800774	n/a	LTP252	ltpFR	13	n/a	n/a	n/a	n/a	n/a	n/a	20	5	8	7	n/a	n/a	n/a	n/a	n/a
1603.41	n/a	PROB	801705	n/a	LTP252	ltpFR	13	n/a	n/a	n/a	n/a	n/a	n/a	16	1	7	8	n/a	n/a	n/a	n/a	n/a
1604.51	n/a	PROB	802255	n/a	LTP252	ltpFR	13	n/a	n/a	n/a	n/a	n/a	n/a	18	5	9	4	n/a	n/a	n/a	n/a	n/a
1605.942	n/a	STOP	802971	n/a	LTP252	ltpFR	13	n/a	n/a	n/a	n/a	n/a	n/a	n/a	n/a	n/a	n/a	n/a	n/a	n/a	n/a	n/a
1608.138	n/a	WORD	804069	wordpools/wasnorm_wordpool_less_exclusions.txt	LTP252	ltpFR	13	6	1	OLIVE	975	n/a	1	n/a	0	0	0	1	0.412841796875	0.57763671875	upper	../fonts/zerothre.ttf
1611.15	n/a	START	805575	n/a	LTP252	ltpFR	13	n/a	n/a	n/a	n/a	n/a	n/a	n/a	n/a	n/a	n/a	n/a	n/a	n/a	n/a	n/a
1612.282	n/a	PROB	806141	n/a	LTP252	ltpFR	13	n/a	n/a	n/a	n/a	n/a	n/a	11	1	5	5	n/a	n/a	n/a	n/a	n/a
1613.48	n/a	PROB	806740	n/a	LTP252	ltpFR	13	n/a	n/a	n/a	n/a	n/a	n/a	10	3	5	2	n/a	n/a	n/a	n/a	n/a
1614.944	n/a	PROB	807472	n/a	LTP252	ltpFR	13	n/a	n/a	n/a	n/a	n/a	n/a	12	3	2	7	n/a	n/a	n/a	n/a	n/a
1616.292	n/a	PROB	808146	n/a	LTP252	ltpFR	13	n/a	n/a	n/a	n/a	n/a	n/a	16	7	1	8	n/a	n/a	n/a	n/a	n/a
1619.15	n/a	STOP	809575	n/a	LTP252	ltpFR	13	n/a	n/a	n/a	n/a	n/a	n/a	n/a	n/a	n/a	n/a	n/a	n/a	n/a	n/a	n/a
1620.27	n/a	WORD	810135	wordpools/wasnorm_wordpool_less_exclusions.txt	LTP252	ltpFR	13	6	1	INFANT	737	n/a	1	n/a	0	0	0	1	0.412841796875	0.57763671875	upper	../fonts/zerothre.ttf
1623.282	n/a	START	811641	n/a	LTP252	ltpFR	13	n/a	n/a	n/a	n/a	n/a	n/a	n/a	n/a	n/a	n/a	n/a	n/a	n/a	n/a	n/a
1624.33	n/a	PROB	812165	n/a	LTP252	ltpFR	13	n/a	n/a	n/a	n/a	n/a	n/a	21	9	8	4	n/a	n/a	n/a	n/a	n/a
1627.342	n/a	PROB	813671	n/a	LTP252	ltpFR	13	n/a	n/a	n/a	n/a	n/a	n/a	15	9	1	5	n/a	n/a	n/a	n/a	n/a
1628.94	n/a	PROB	814470	n/a	LTP252	ltpFR	13	n/a	n/a	n/a	n/a	n/a	n/a	6	1	2	3	n/a	n/a	n/a	n/a	n/a
1630.208	n/a	STOP	815104	n/a	LTP252	ltpFR	13	n/a	n/a	n/a	n/a	n/a	n/a	n/a	n/a	n/a	n/a	n/a	n/a	n/a	n/a	n/a
1632.152	n/a	WORD	816076	wordpools/wasnorm_wordpool_less_exclusions.txt	LTP252	ltpFR	13	6	1	CLOWN	330	n/a	1	n/a	0	0	0	1	0.412841796875	0.57763671875	upper	../fonts/zerothre.ttf
1635.164	n/a	START	817582	n/a	LTP252	ltpFR	13	n/a	n/a	n/a	n/a	n/a	n/a	n/a	n/a	n/a	n/a	n/a	n/a	n/a	n/a	n/a
1636.046	n/a	PROB	818023	n/a	LTP252	ltpFR	13	n/a	n/a	n/a	n/a	n/a	n/a	14	7	1	6	n/a	n/a	n/a	n/a	n/a
1637.626	n/a	PROB	818813	n/a	LTP252	ltpFR	13	n/a	n/a	n/a	n/a	n/a	n/a	23	7	9	7	n/a	n/a	n/a	n/a	n/a
1639.192	n/a	PROB	819596	n/a	LTP252	ltpFR	13	n/a	n/a	n/a	n/a	n/a	n/a	14	4	8	4	n/a	n/a	n/a	n/a	n/a
1640.872	n/a	PROB	820436	n/a	LTP252	ltpFR	13	n/a	n/a	n/a	n/a	n/a	n/a	17	2	7	8	n/a	n/a	n/a	n/a	n/a
1642.998	n/a	STOP	821499	n/a	LTP252	ltpFR	13	n/a	n/a	n/a	n/a	n/a	n/a	n/a	n/a	n/a	n/a	n/a	n/a	n/a	n/a	n/a
1644.102	n/a	WORD	822051	wordpools/wasnorm_wordpool_less_exclusions.txt	LTP252	ltpFR	13	6	0	CATTLE	261	n/a	1	n/a	0	0	0	0	0.5869140625	0.422607421875	lower	../fonts/amplitud.ttf
1647.114	n/a	START	823557	n/a	LTP252	ltpFR	13	n/a	n/a	n/a	n/a	n/a	n/a	n/a	n/a	n/a	n/a	n/a	n/a	n/a	n/a	n/a
1648.028	n/a	PROB	824014	n/a	LTP252	ltpFR	13	n/a	n/a	n/a	n/a	n/a	n/a	18	7	7	4	n/a	n/a	n/a	n/a	n/a
1649.46	n/a	PROB	824730	n/a	LTP252	ltpFR	13	n/a	n/a	n/a	n/a	n/a	n/a	8	2	2	4	n/a	n/a	n/a	n/a	n/a
1650.758	n/a	PROB	825379	n/a	LTP252	ltpFR	13	n/a	n/a	n/a	n/a	n/a	n/a	17	9	5	3	n/a	n/a	n/a	n/a	n/a
1652.206	n/a	PROB	826103	n/a	LTP252	ltpFR	13	n/a	n/a	n/a	n/a	n/a	n/a	8	2	4	2	n/a	n/a	n/a	n/a	n/a
1653.604	n/a	PROB	826802	n/a	LTP252	ltpFR	13	n/a	n/a	n/a	n/a	n/a	n/a	15	3	7	5	n/a	n/a	n/a	n/a	n/a
1654.664	n/a	STOP	827332	n/a	LTP252	ltpFR	13	n/a	n/a	n/a	n/a	n/a	n/a	n/a	n/a	n/a	n/a	n/a	n/a	n/a	n/a	n/a
1656.168	n/a	WORD	828084	wordpools/wasnorm_wordpool_less_exclusions.txt	LTP252	ltpFR	13	6	0	OPERATOR	979	n/a	1	n/a	0	0	0	0	0.5869140625	0.422607421875	lower	../fonts/amplitud.ttf
1659.18	n/a	START	829590	n/a	LTP252	ltpFR	13	n/a	n/a	n/a	n/a	n/a	n/a	n/a	n/a	n/a	n/a	n/a	n/a	n/a	n/a	n/a
1660.328	n/a	PROB	830164	n/a	LTP252	ltpFR	13	n/a	n/a	n/a	n/a	n/a	n/a	14	4	9	1	n/a	n/a	n/a	n/a	n/a
1661.624	n/a	PROB	830812	n/a	LTP252	ltpFR	13	n/a	n/a	n/a	n/a	n/a	n/a	14	5	6	7	n/a	n/a	n/a	n/a	n/a
1664.62	n/a	PROB	832310	n/a	LTP252	ltpFR	13	n/a	n/a	n/a	n/a	n/a	n/a	20	4	9	7	n/a	n/a	n/a	n/a	n/a
1666.544	n/a	STOP	833272	n/a	LTP252	ltpFR	13	n/a	n/a	n/a	n/a	n/a	n/a	n/a	n/a	n/a	n/a	n/a	n/a	n/a	n/a	n/a
1668.1	n/a	WORD	834050	wordpools/wasnorm_wordpool_less_exclusions.txt	LTP252	ltpFR	13	6	1	JOKER	759	n/a	1	n/a	0	0	0	1	0.412841796875	0.57763671875	upper	../fonts/zerothre.ttf
1671.112	n/a	START	835556	n/a	LTP252	ltpFR	13	n/a	n/a	n/a	n/a	n/a	n/a	n/a	n/a	n/a	n/a	n/a	n/a	n/a	n/a	n/a
1672.244	n/a	PROB	836122	n/a	LTP252	ltpFR	13	n/a	n/a	n/a	n/a	n/a	n/a	22	8	6	8	n/a	n/a	n/a	n/a	n/a
1676.386	n/a	PROB	838193	n/a	LTP252	ltpFR	13	n/a	n/a	n/a	n/a	n/a	n/a	12	3	2	7	n/a	n/a	n/a	n/a	n/a
1677.784	n/a	STOP	838892	n/a	LTP252	ltpFR	13	n/a	n/a	n/a	n/a	n/a	n/a	n/a	n/a	n/a	n/a	n/a	n/a	n/a	n/a	n/a
1679.998	n/a	WORD	839999	wordpools/wasnorm_wordpool_less_exclusions.txt	LTP252	ltpFR	13	6	1	VEHICLE	1553	n/a	0	n/a	0	0	0	1	0.412841796875	0.57763671875	upper	../fonts/zerothre.ttf
1683.01	n/a	START	841505	n/a	LTP252	ltpFR	13	n/a	n/a	n/a	n/a	n/a	n/a	n/a	n/a	n/a	n/a	n/a	n/a	n/a	n/a	n/a
1684.142	n/a	PROB	842071	n/a	LTP252	ltpFR	13	n/a	n/a	n/a	n/a	n/a	n/a	13	2	9	2	n/a	n/a	n/a	n/a	n/a
1685.39	n/a	PROB	842695	n/a	LTP252	ltpFR	13	n/a	n/a	n/a	n/a	n/a	n/a	14	2	4	8	n/a	n/a	n/a	n/a	n/a
1687.32	n/a	PROB	843660	n/a	LTP252	ltpFR	13	n/a	n/a	n/a	n/a	n/a	n/a	13	8	1	4	n/a	n/a	n/a	n/a	n/a
1688.918	n/a	PROB	844459	n/a	LTP252	ltpFR	13	n/a	n/a	n/a	n/a	n/a	n/a	21	5	8	8	n/a	n/a	n/a	n/a	n/a
1690.496	n/a	STOP	845248	n/a	LTP252	ltpFR	13	n/a	n/a	n/a	n/a	n/a	n/a	n/a	n/a	n/a	n/a	n/a	n/a	n/a	n/a	n/a
1691.846	n/a	WORD	845923	wordpools/wasnorm_wordpool_less_exclusions.txt	LTP252	ltpFR	13	6	1	BRAKE	166	n/a	0	n/a	0	0	0	1	0.412841796875	0.57763671875	upper	../fonts/zerothre.ttf
1694.86	n/a	START	847430	n/a	LTP252	ltpFR	13	n/a	n/a	n/a	n/a	n/a	n/a	n/a	n/a	n/a	n/a	n/a	n/a	n/a	n/a	n/a
1695.924	n/a	PROB	847962	n/a	LTP252	ltpFR	13	n/a	n/a	n/a	n/a	n/a	n/a	13	5	7	1	n/a	n/a	n/a	n/a	n/a
1699.036	n/a	PROB	849518	n/a	LTP252	ltpFR	13	n/a	n/a	n/a	n/a	n/a	n/a	16	8	4	4	n/a	n/a	n/a	n/a	n/a
1700.384	n/a	PROB	850192	n/a	LTP252	ltpFR	13	n/a	n/a	n/a	n/a	n/a	n/a	7	2	4	1	n/a	n/a	n/a	n/a	n/a
1701.608	n/a	STOP	850804	n/a	LTP252	ltpFR	13	n/a	n/a	n/a	n/a	n/a	n/a	n/a	n/a	n/a	n/a	n/a	n/a	n/a	n/a	n/a
1703.778	n/a	WORD	851889	wordpools/wasnorm_wordpool_less_exclusions.txt	LTP252	ltpFR	13	6	1	JOURNAL	760	n/a	0	n/a	0	0	0	1	0.412841796875	0.57763671875	upper	../fonts/zerothre.ttf
1706.792	n/a	START	853396	n/a	LTP252	ltpFR	13	n/a	n/a	n/a	n/a	n/a	n/a	n/a	n/a	n/a	n/a	n/a	n/a	n/a	n/a	n/a
1707.89	n/a	PROB	853945	n/a	LTP252	ltpFR	13	n/a	n/a	n/a	n/a	n/a	n/a	17	6	3	8	n/a	n/a	n/a	n/a	n/a
1709.654	n/a	PROB	854827	n/a	LTP252	ltpFR	13	n/a	n/a	n/a	n/a	n/a	n/a	18	9	6	3	n/a	n/a	n/a	n/a	n/a
1714.792	n/a	STOP	857396	n/a	LTP252	ltpFR	13	n/a	n/a	n/a	n/a	n/a	n/a	n/a	n/a	n/a	n/a	n/a	n/a	n/a	n/a	n/a
1716.728	n/a	REC_START	858364	n/a	LTP252	ltpFR	13	6	n/a	n/a	n/a	n/a	n/a	n/a	0	0	0	n/a	n/a	n/a	n/a	n/a
1718.42	n/a	REC_WORD	859210	wordpools/wasnorm_wordpool_less_exclusions.txt	LTP252	ltpFR	13	6	1	BRAKE	166	n/a	0	n/a	0	0	0	n/a	n/a	n/a	n/a	n/a
1719.176	n/a	REC_WORD	859588	wordpools/wasnorm_wordpool_less_exclusions.txt	LTP252	ltpFR	13	6	1	VEHICLE	1553	n/a	0	n/a	0	0	0	n/a	n/a	n/a	n/a	n/a
1720.582	n/a	REC_WORD	860291	wordpools/wasnorm_wordpool_less_exclusions.txt	LTP252	ltpFR	13	6	1	CLOWN	330	n/a	1	n/a	0	0	0	n/a	n/a	n/a	n/a	n/a
1721.678	n/a	REC_WORD	860839	wordpools/wasnorm_wordpool_less_exclusions.txt	LTP252	ltpFR	13	6	1	JOKER	759	n/a	1	n/a	0	0	0	n/a	n/a	n/a	n/a	n/a
1723.182	n/a	REC_WORD	861591	wordpools/wasnorm_wordpool_less_exclusions.txt	LTP252	ltpFR	13	6	0	OPERATOR	979	n/a	1	n/a	0	0	0	n/a	n/a	n/a	n/a	n/a
1724.478	n/a	REC_WORD	862239	wordpools/wasnorm_wordpool_less_exclusions.txt	LTP252	ltpFR	13	6	0	DIAL	457	n/a	0	n/a	0	0	0	n/a	n/a	n/a	n/a	n/a
1726.428	n/a	REC_WORD	863214	wordpools/wasnorm_wordpool_less_exclusions.txt	LTP252	ltpFR	13	6	0	CHIMPANZEE	302	n/a	1	n/a	0	0	0	n/a	n/a	n/a	n/a	n/a
1727.724	n/a	REC_WORD	863862	wordpools/wasnorm_wordpool_less_exclusions.txt	LTP252	ltpFR	13	6	0	JUNGLE	764	n/a	1	n/a	0	0	0	n/a	n/a	n/a	n/a	n/a
1728.824	n/a	REC_WORD	864412	wordpools/wasnorm_wordpool_less_exclusions.txt	LTP252	ltpFR	13	6	0	CROSS	413	n/a	0	n/a	0	0	0	n/a	n/a	n/a	n/a	n/a
1730.654	n/a	REC_WORD	865327	wordpools/wasnorm_wordpool_less_exclusions.txt	LTP252	ltpFR	13	6	0	BEAN	105	n/a	0	n/a	0	0	0	n/a	n/a	n/a	n/a	n/a
1732.844	n/a	REC_WORD	866422	wordpools/wasnorm_wordpool_less_exclusions.txt	LTP252	ltpFR	13	6	0	WHEAT	1602	n/a	0	n/a	0	0	0	n/a	n/a	n/a	n/a	n/a
1734.686	n/a	REC_WORD	867343	wordpools/wasnorm_wordpool_less_exclusions.txt	LTP252	ltpFR	13	6	1	OLIVE	975	n/a	1	n/a	0	0	0	n/a	n/a	n/a	n/a	n/a
1739.714	n/a	REC_WORD	869857	wordpools/wasnorm_wordpool_less_exclusions.txt	LTP252	ltpFR	13	6	n/a	FARM	552	n/a	n/a	n/a	0	0	0	n/a	n/a	n/a	n/a	n/a
1794.694	n/a	WORD	897347	wordpools/wasnorm_wordpool_less_exclusions.txt	LTP252	ltpFR	13	7	0	NICKEL	950	n/a	0	n/a	0	0	0	0	0.5869140625	0.422607421875	lower	../fonts/amplitud.ttf
1798.738	n/a	WORD	899369	wordpools/wasnorm_wordpool_less_exclusions.txt	LTP252	ltpFR	13	7	0	STREET	1393	n/a	1	n/a	0	0	0	0	0.5869140625	0.422607421875	lower	../fonts/amplitud.ttf
1802.85	n/a	WORD	901425	wordpools/wasnorm_wordpool_less_exclusions.txt	LTP252	ltpFR	13	7	0	TUSK	1523	n/a	0	n/a	0	0	0	0	0.5869140625	0.422607421875	lower	../fonts/amplitud.ttf
1807.06	n/a	WORD	903530	wordpools/wasnorm_wordpool_less_exclusions.txt	LTP252	ltpFR	13	7	0	FIDDLE	561	n/a	1	n/a	0	0	0	0	0.5869140625	0.422607421875	lower	../fonts/amplitud.ttf
1811.122	n/a	WORD	905561	wordpools/wasnorm_wordpool_less_exclusions.txt	LTP252	ltpFR	13	7	0	SOCIETY	1338	n/a	1	n/a	0	0	0	0	0.5869140625	0.422607421875	lower	../fonts/amplitud.ttf
1815.098	n/a	WORD	907549	wordpools/wasnorm_wordpool_less_exclusions.txt	LTP252	ltpFR	13	7	0	ROOT	1210	n/a	0	n/a	0	0	0	0	0.5869140625	0.422607421875	lower	../fonts/amplitud.ttf
1819.142	n/a	WORD	909571	wordpools/wasnorm_wordpool_less_exclusions.txt	LTP252	ltpFR	13	7	0	MAPLE	866	n/a	1	n/a	0	0	0	0	0.5869140625	0.422607421875	lower	../fonts/amplitud.ttf
1823.286	n/a	WORD	911643	wordpools/wasnorm_wordpool_less_exclusions.txt	LTP252	ltpFR	13	7	0	CYLINDER	432	n/a	0	n/a	0	0	0	0	0.5869140625	0.422607421875	lower	../fonts/amplitud.ttf
1827.13	n/a	WORD	913565	wordpools/wasnorm_wordpool_less_exclusions.txt	LTP252	ltpFR	13	7	0	TECHNICIAN	1443	n/a	1	n/a	0	0	0	0	0.5869140625	0.422607421875	lower	../fonts/amplitud.ttf
1831.258	n/a	WORD	915629	wordpools/wasnorm_wordpool_less_exclusions.txt	LTP252	ltpFR	13	7	0	PASTRY	1022	n/a	0	n/a	0	0	0	0	0.5869140625	0.422607421875	lower	../fonts/amplitud.ttf
1835.434	n/a	WORD	917717	wordpools/wasnorm_wordpool_less_exclusions.txt	LTP252	ltpFR	13	7	0	LIGHTER	819	n/a	0	n/a	0	0	0	0	0.5869140625	0.422607421875	lower	../fonts/amplitud.ttf
1839.544	n/a	WORD	919772	wordpools/wasnorm_wordpool_less_exclusions.txt	LTP252	ltpFR	13	7	0	ASHTRAY	45	n/a	0	n/a	0	0	0	0	0.5869140625	0.422607421875	lower	../fonts/amplitud.ttf
1843.388	n/a	WORD	921694	wordpools/wasnorm_wordpool_less_exclusions.txt	LTP252	ltpFR	13	7	0	EXPERT	543	n/a	1	n/a	0	0	0	0	0.5869140625	0.422607421875	lower	../fonts/amplitud.ttf
1847.45	n/a	WORD	923725	wordpools/wasnorm_wordpool_less_exclusions.txt	LTP252	ltpFR	13	7	0	HOSTESS	723	n/a	1	n/a	0	0	0	0	0.5869140625	0.422607421875	lower	../fonts/amplitud.ttf
1851.41	n/a	WORD	925705	wordpools/wasnorm_wordpool_less_exclusions.txt	LTP252	ltpFR	13	7	0	STAFF	1365	n/a	1	n/a	0	0	0	0	0.5869140625	0.422607421875	lower	../fonts/amplitud.ttf
1855.356	n/a	WORD	927678	wordpools/wasnorm_wordpool_less_exclusions.txt	LTP252	ltpFR	13	7	0	CHECK	284	n/a	0	n/a	0	0	0	0	0.5869140625	0.422607421875	lower	../fonts/amplitud.ttf
1858.368	n/a	START	929184	n/a	LTP252	ltpFR	13	n/a	n/a	n/a	n/a	n/a	n/a	n/a	n/a	n/a	n/a	n/a	n/a	n/a	n/a	n/a
1859.414	n/a	PROB	929707	n/a	LTP252	ltpFR	13	n/a	n/a	n/a	n/a	n/a	n/a	16	3	5	8	n/a	n/a	n/a	n/a	n/a
1861.114	n/a	PROB	930557	n/a	LTP252	ltpFR	13	n/a	n/a	n/a	n/a	n/a	n/a	11	1	7	3	n/a	n/a	n/a	n/a	n/a
1862.262	n/a	PROB	931131	n/a	LTP252	ltpFR	13	n/a	n/a	n/a	n/a	n/a	n/a	12	5	3	4	n/a	n/a	n/a	n/a	n/a
1863.56	n/a	PROB	931780	n/a	LTP252	ltpFR	13	n/a	n/a	n/a	n/a	n/a	n/a	15	7	4	4	n/a	n/a	n/a	n/a	n/a
1864.906	n/a	STOP	932453	n/a	LTP252	ltpFR	13	n/a	n/a	n/a	n/a	n/a	n/a	n/a	n/a	n/a	n/a	n/a	n/a	n/a	n/a	n/a
1868.204	n/a	REC_START	934102	n/a	LTP252	ltpFR	13	7	n/a	n/a	n/a	n/a	n/a	n/a	0	0	0	n/a	n/a	n/a	n/a	n/a
1869.234	n/a	REC_WORD	934617	wordpools/wasnorm_wordpool_less_exclusions.txt	LTP252	ltpFR	13	7	n/a	CHICK	296	n/a	n/a	n/a	0	0	0	n/a	n/a	n/a	n/a	n/a
1870.154	n/a	REC_WORD	935077	wordpools/wasnorm_wordpool_less_exclusions.txt	LTP252	ltpFR	13	7	0	HOSTESS	723	n/a	1	n/a	0	0	0	n/a	n/a	n/a	n/a	n/a
1871.234	n/a	REC_WORD	935617	wordpools/wasnorm_wordpool_less_exclusions.txt	LTP252	ltpFR	13	7	0	STAFF	1365	n/a	1	n/a	0	0	0	n/a	n/a	n/a	n/a	n/a
1872.464	n/a	REC_WORD	936232	wordpools/wasnorm_wordpool_less_exclusions.txt	LTP252	ltpFR	13	7	0	SOCIETY	1338	n/a	1	n/a	0	0	0	n/a	n/a	n/a	n/a	n/a
1874.668	n/a	REC_WORD	937334	wordpools/wasnorm_wordpool_less_exclusions.txt	LTP252	ltpFR	13	7	0	TECHNICIAN	1443	n/a	1	n/a	0	0	0	n/a	n/a	n/a	n/a	n/a
1875.944	n/a	REC_WORD	937972	wordpools/wasnorm_wordpool_less_exclusions.txt	LTP252	ltpFR	13	7	0	EXPERT	543	n/a	1	n/a	0	0	0	n/a	n/a	n/a	n/a	n/a
1877.04	n/a	REC_WORD	938520	wordpools/wasnorm_wordpool_less_exclusions.txt	LTP252	ltpFR	13	7	0	NICKEL	950	n/a	0	n/a	0	0	0	n/a	n/a	n/a	n/a	n/a
1878.17	n/a	REC_WORD	939085	wordpools/wasnorm_wordpool_less_exclusions.txt	LTP252	ltpFR	13	7	0	STREET	1393	n/a	1	n/a	0	0	0	n/a	n/a	n/a	n/a	n/a
1885.722	n/a	REC_WORD	942861	wordpools/wasnorm_wordpool_less_exclusions.txt	LTP252	ltpFR	13	7	0	ROOT	1210	n/a	0	n/a	0	0	0	n/a	n/a	n/a	n/a	n/a
1887.392	n/a	REC_WORD	943696	wordpools/wasnorm_wordpool_less_exclusions.txt	LTP252	ltpFR	13	7	0	LIGHTER	819	n/a	0	n/a	0	0	0	n/a	n/a	n/a	n/a	n/a
1888.796	n/a	REC_WORD	944398	wordpools/wasnorm_wordpool_less_exclusions.txt	LTP252	ltpFR	13	7	0	ASHTRAY	45	n/a	0	n/a	0	0	0	n/a	n/a	n/a	n/a	n/a
1894.654	n/a	REC_WORD	947327	wordpools/wasnorm_wordpool_less_exclusions.txt	LTP252	ltpFR	13	7	0	MAPLE	866	n/a	1	n/a	0	0	0	n/a	n/a	n/a	n/a	n/a
1928.904	n/a	REC_WORD	964452	wordpools/wasnorm_wordpool_less_exclusions.txt	LTP252	ltpFR	13	7	0	HOSTESS	723	n/a	1	n/a	0	0	0	n/a	n/a	n/a	n/a	n/a
1945.922	n/a	WORD	972961	wordpools/wasnorm_wordpool_less_exclusions.txt	LTP252	ltpFR	13	8	1	PISTON	1076	n/a	0	n/a	0	0	0	1	0.412841796875	0.57763671875	upper	../fonts/zerothre.ttf
1949.748	n/a	WORD	974874	wordpools/wasnorm_wordpool_less_exclusions.txt	LTP252	ltpFR	13	8	1	MASCARA	875	n/a	0	n/a	0	0	0	1	0.412841796875	0.57763671875	upper	../fonts/zerothre.ttf
1953.626	n/a	WORD	976813	wordpools/wasnorm_wordpool_less_exclusions.txt	LTP252	ltpFR	13	8	1	CUSHION	428	n/a	0	n/a	0	0	0	1	0.412841796875	0.57763671875	upper	../fonts/zerothre.ttf
1957.488	n/a	WORD	978744	wordpools/wasnorm_wordpool_less_exclusions.txt	LTP252	ltpFR	13	8	1	TUNA	1518	n/a	1	n/a	0	0	0	1	0.412841796875	0.57763671875	upper	../fonts/zerothre.ttf
1961.548	n/a	WORD	980774	wordpools/wasnorm_wordpool_less_exclusions.txt	LTP252	ltpFR	13	8	1	WINNER	1615	n/a	1	n/a	0	0	0	1	0.412841796875	0.57763671875	upper	../fonts/zerothre.ttf
1965.526	n/a	WORD	982763	wordpools/wasnorm_wordpool_less_exclusions.txt	LTP252	ltpFR	13	8	1	EMERALD	528	n/a	0	n/a	0	0	0	1	0.412841796875	0.57763671875	upper	../fonts/zerothre.ttf
1969.57	n/a	WORD	984785	wordpools/wasnorm_wordpool_less_exclusions.txt	LTP252	ltpFR	13	8	1	ACTRESS	6	n/a	1	n/a	0	0	0	1	0.412841796875	0.57763671875	upper	../fonts/zerothre.ttf
1973.63	n/a	WORD	986815	wordpools/wasnorm_wordpool_less_exclusions.txt	LTP252	ltpFR	13	8	1	MOVIE	927	n/a	0	n/a	0	0	0	1	0.412841796875	0.57763671875	upper	../fonts/zerothre.ttf
1977.608	n/a	WORD	988804	wordpools/wasnorm_wordpool_less_exclusions.txt	LTP252	ltpFR	13	8	1	MOAT	903	n/a	0	n/a	0	0	0	1	0.412841796875	0.57763671875	upper	../fonts/zerothre.ttf
1981.634	n/a	WORD	990817	wordpools/wasnorm_wordpool_less_exclusions.txt	LTP252	ltpFR	13	8	1	CREEK	404	n/a	0	n/a	0	0	0	1	0.412841796875	0.57763671875	upper	../fonts/zerothre.ttf
1985.628	n/a	WORD	992814	wordpools/wasnorm_wordpool_less_exclusions.txt	LTP252	ltpFR	13	8	1	PADDING	999	n/a	0	n/a	0	0	0	1	0.412841796875	0.57763671875	upper	../fonts/zerothre.ttf
1989.772	n/a	WORD	994886	wordpools/wasnorm_wordpool_less_exclusions.txt	LTP252	ltpFR	13	8	1	SEA	1259	n/a	0	n/a	0	0	0	1	0.412841796875	0.57763671875	upper	../fonts/zerothre.ttf
1993.666	n/a	WORD	996833	wordpools/wasnorm_wordpool_less_exclusions.txt	LTP252	ltpFR	13	8	1	EYE	545	n/a	0	n/a	0	0	0	1	0.412841796875	0.57763671875	upper	../fonts/zerothre.ttf
1997.594	n/a	WORD	998797	wordpools/wasnorm_wordpool_less_exclusions.txt	LTP252	ltpFR	13	8	1	CRAB	397	n/a	1	n/a	0	0	0	1	0.412841796875	0.57763671875	upper	../fonts/zerothre.ttf
2001.572	n/a	WORD	1000786	wordpools/wasnorm_wordpool_less_exclusions.txt	LTP252	ltpFR	13	8	1	TRAY	1498	n/a	0	n/a	0	0	0	1	0.412841796875	0.57763671875	upper	../fonts/zerothre.ttf
2005.582	n/a	WORD	1002791	wordpools/wasnorm_wordpool_less_exclusions.txt	LTP252	ltpFR	13	8	1	VOLUNTEER	1577	n/a	1	n/a	0	0	0	1	0.412841796875	0.57763671875	upper	../fonts/zerothre.ttf
2008.596	n/a	START	1004298	n/a	LTP252	ltpFR	13	n/a	n/a	n/a	n/a	n/a	n/a	n/a	n/a	n/a	n/a	n/a	n/a	n/a	n/a	n/a
2009.644	n/a	PROB	1004822	n/a	LTP252	ltpFR	13	n/a	n/a	n/a	n/a	n/a	n/a	15	3	9	3	n/a	n/a	n/a	n/a	n/a
2011.192	n/a	PROB	1005596	n/a	LTP252	ltpFR	13	n/a	n/a	n/a	n/a	n/a	n/a	14	7	2	5	n/a	n/a	n/a	n/a	n/a
2012.706	n/a	PROB	1006353	n/a	LTP252	ltpFR	13	n/a	n/a	n/a	n/a	n/a	n/a	11	8	1	3	n/a	n/a	n/a	n/a	n/a
2014.188	n/a	PROB	1007094	n/a	LTP252	ltpFR	13	n/a	n/a	n/a	n/a	n/a	n/a	15	6	2	7	n/a	n/a	n/a	n/a	n/a
2015.98	n/a	STOP	1007990	n/a	LTP252	ltpFR	13	n/a	n/a	n/a	n/a	n/a	n/a	n/a	n/a	n/a	n/a	n/a	n/a	n/a	n/a	n/a
2018.448	n/a	REC_START	1009224	n/a	LTP252	ltpFR	13	8	n/a	n/a	n/a	n/a	n/a	n/a	0	0	0	n/a	n/a	n/a	n/a	n/a
2019.308	n/a	REC_WORD	1009654	wordpools/wasnorm_wordpool_less_exclusions.txt	LTP252	ltpFR	13	8	1	TRAY	1498	n/a	0	n/a	0	0	0	n/a	n/a	n/a	n/a	n/a
2020.348	n/a	REC_WORD	1010174	wordpools/wasnorm_wordpool_less_exclusions.txt	LTP252	ltpFR	13	8	1	CRAB	397	n/a	1	n/a	0	0	0	n/a	n/a	n/a	n/a	n/a
2021.466	n/a	REC_WORD	1010733	wordpools/wasnorm_wordpool_less_exclusions.txt	LTP252	ltpFR	13	8	1	SEA	1259	n/a	0	n/a	0	0	0	n/a	n/a	n/a	n/a	n/a
2022.994	n/a	REC_WORD	1011497	wordpools/wasnorm_wordpool_less_exclusions.txt	LTP252	ltpFR	13	8	1	CREEK	404	n/a	0	n/a	0	0	0	n/a	n/a	n/a	n/a	n/a
2024.828	n/a	REC_WORD	1012414	wordpools/wasnorm_wordpool_less_exclusions.txt	LTP252	ltpFR	13	8	1	MOAT	903	n/a	0	n/a	0	0	0	n/a	n/a	n/a	n/a	n/a
2025.758	n/a	REC_WORD	1012879	wordpools/wasnorm_wordpool_less_exclusions.txt	LTP252	ltpFR	13	8	1	PISTON	1076	n/a	0	n/a	0	0	0	n/a	n/a	n/a	n/a	n/a
2026.824	n/a	REC_WORD	1013412	wordpools/wasnorm_wordpool_less_exclusions.txt	LTP252	ltpFR	13	8	1	ACTRESS	6	n/a	1	n/a	0	0	0	n/a	n/a	n/a	n/a	n/a
2027.814	n/a	REC_WORD	1013907	wordpools/wasnorm_wordpool_less_exclusions.txt	LTP252	ltpFR	13	8	1	MOVIE	927	n/a	0	n/a	0	0	0	n/a	n/a	n/a	n/a	n/a
2029.0	n/a	REC_WORD	1014500	wordpools/wasnorm_wordpool_less_exclusions.txt	LTP252	ltpFR	13	8	1	EYE	545	n/a	0	n/a	0	0	0	n/a	n/a	n/a	n/a	n/a
2030.004	n/a	REC_WORD	1015002	wordpools/wasnorm_wordpool_less_exclusions.txt	LTP252	ltpFR	13	8	1	MASCARA	875	n/a	0	n/a	0	0	0	n/a	n/a	n/a	n/a	n/a
2031.636	n/a	REC_WORD	1015818	wordpools/wasnorm_wordpool_less_exclusions.txt	LTP252	ltpFR	13	8	1	CUSHION	428	n/a	0	n/a	0	0	0	n/a	n/a	n/a	n/a	n/a
2032.7	n/a	REC_WORD	1016350	wordpools/wasnorm_wordpool_less_exclusions.txt	LTP252	ltpFR	13	8	1	PADDING	999	n/a	0	n/a	0	0	0	n/a	n/a	n/a	n/a	n/a
2033.764	n/a	REC_WORD	1016882	wordpools/wasnorm_wordpool_less_exclusions.txt	LTP252	ltpFR	13	8	1	TUNA	1518	n/a	1	n/a	0	0	0	n/a	n/a	n/a	n/a	n/a
2036.662	n/a	REC_WORD	1018331	wordpools/wasnorm_wordpool_less_exclusions.txt	LTP252	ltpFR	13	8	1	EMERALD	528	n/a	0	n/a	0	0	0	n/a	n/a	n/a	n/a	n/a
2038.748	n/a	REC_WORD	1019374	wordpools/wasnorm_wordpool_less_exclusions.txt	LTP252	ltpFR	13	8	1	WINNER	1615	n/a	1	n/a	0	0	0	n/a	n/a	n/a	n/a	n/a
2096.032	n/a	WORD	1048016	wordpools/wasnorm_wordpool_less_exclusions.txt	LTP252	ltpFR	13	9	0	COBBLER	335	n/a	0	n/a	0	0	0	0	0.5869140625	0.422607421875	lower	../fonts/amplitud.ttf
2100.078	n/a	WORD	1050039	wordpools/wasnorm_wordpool_less_exclusions.txt	LTP252	ltpFR	13	9	0	ORCHESTRA	981	n/a	1	n/a	0	0	0	0	0.5869140625	0.422607421875	lower	../fonts/amplitud.ttf
2104.104	n/a	WORD	1052052	wordpools/wasnorm_wordpool_less_exclusions.txt	LTP252	ltpFR	13	9	1	JEWEL	757	n/a	0	n/a	0	0	0	1	0.412841796875	0.57763671875	upper	../fonts/zerothre.ttf
2108.048	n/a	WORD	1054024	wordpools/wasnorm_wordpool_less_exclusions.txt	LTP252	ltpFR	13	9	1	NAIL	936	n/a	0	n/a	0	0	0	1	0.412841796875	0.57763671875	upper	../fonts/zerothre.ttf
2111.892	n/a	WORD	1055946	wordpools/wasnorm_wordpool_less_exclusions.txt	LTP252	ltpFR	13	9	1	FARM	552	n/a	0	n/a	0	0	0	1	0.412841796875	0.57763671875	upper	../fonts/zerothre.ttf
2115.87	n/a	WORD	1057935	wordpools/wasnorm_wordpool_less_exclusions.txt	LTP252	ltpFR	13	9	1	RADISH	1158	n/a	1	n/a	0	0	0	1	0.412841796875	0.57763671875	upper	../fonts/zerothre.ttf
2120.012	n/a	WORD	1060006	wordpools/wasnorm_wordpool_less_exclusions.txt	LTP252	ltpFR	13	9	0	STABLE	1363	n/a	1	n/a	0	0	0	0	0.5869140625	0.422607421875	lower	../fonts/amplitud.ttf
2123.89	n/a	WORD	1061945	wordpools/wasnorm_wordpool_less_exclusions.txt	LTP252	ltpFR	13	9	0	ZEBRA	1635	n/a	1	n/a	0	0	0	0	0.5869140625	0.422607421875	lower	../fonts/amplitud.ttf
2128.086	n/a	WORD	1064043	wordpools/wasnorm_wordpool_less_exclusions.txt	LTP252	ltpFR	13	9	0	PONY	1102	n/a	1	n/a	0	0	0	0	0.5869140625	0.422607421875	lower	../fonts/amplitud.ttf
2132.028	n/a	WORD	1066014	wordpools/wasnorm_wordpool_less_exclusions.txt	LTP252	ltpFR	13	9	0	SPRINKLE	1359	n/a	0	n/a	0	0	0	0	0.5869140625	0.422607421875	lower	../fonts/amplitud.ttf
2136.04	n/a	WORD	1068020	wordpools/wasnorm_wordpool_less_exclusions.txt	LTP252	ltpFR	13	9	0	OCEAN	970	n/a	1	n/a	0	0	0	0	0.5869140625	0.422607421875	lower	../fonts/amplitud.ttf
2140.15	n/a	WORD	1070075	wordpools/wasnorm_wordpool_less_exclusions.txt	LTP252	ltpFR	13	9	0	IDOL	733	n/a	1	n/a	0	0	0	0	0.5869140625	0.422607421875	lower	../fonts/amplitud.ttf
2144.044	n/a	WORD	1072022	wordpools/wasnorm_wordpool_less_exclusions.txt	LTP252	ltpFR	13	9	1	VIOLIN	1571	n/a	0	n/a	0	0	0	1	0.412841796875	0.57763671875	upper	../fonts/zerothre.ttf
2147.922	n/a	WORD	1073961	wordpools/wasnorm_wordpool_less_exclusions.txt	LTP252	ltpFR	13	9	1	BOOT	150	n/a	0	n/a	0	0	0	1	0.412841796875	0.57763671875	upper	../fonts/zerothre.ttf
2152.032	n/a	WORD	1076016	wordpools/wasnorm_wordpool_less_exclusions.txt	LTP252	ltpFR	13	9	1	CENT	270	n/a	0	n/a	0	0	0	1	0.412841796875	0.57763671875	upper	../fonts/zerothre.ttf
2156.044	n/a	WORD	1078022	wordpools/wasnorm_wordpool_less_exclusions.txt	LTP252	ltpFR	13	9	1	ZOO	1637	n/a	0	n/a	0	0	0	1	0.412841796875	0.57763671875	upper	../fonts/zerothre.ttf
2159.056	n/a	START	1079528	n/a	LTP252	ltpFR	13	n/a	n/a	n/a	n/a	n/a	n/a	n/a	n/a	n/a	n/a	n/a	n/a	n/a	n/a	n/a
2160.088	n/a	PROB	1080044	n/a	LTP252	ltpFR	13	n/a	n/a	n/a	n/a	n/a	n/a	16	6	6	4	n/a	n/a	n/a	n/a	n/a
2161.486	n/a	PROB	1080743	n/a	LTP252	ltpFR	13	n/a	n/a	n/a	n/a	n/a	n/a	16	3	4	9	n/a	n/a	n/a	n/a	n/a
2162.85	n/a	PROB	1081425	n/a	LTP252	ltpFR	13	n/a	n/a	n/a	n/a	n/a	n/a	15	1	8	6	n/a	n/a	n/a	n/a	n/a
2164.15	n/a	PROB	1082075	n/a	LTP252	ltpFR	13	n/a	n/a	n/a	n/a	n/a	n/a	4	1	1	2	n/a	n/a	n/a	n/a	n/a
2165.314	n/a	PROB	1082657	n/a	LTP252	ltpFR	13	n/a	n/a	n/a	n/a	n/a	n/a	15	6	2	7	n/a	n/a	n/a	n/a	n/a
2167.094	n/a	PROB	1083547	n/a	LTP252	ltpFR	13	n/a	n/a	n/a	n/a	n/a	n/a	15	4	4	7	n/a	n/a	n/a	n/a	n/a
2168.342	n/a	PROB	1084171	n/a	LTP252	ltpFR	13	n/a	n/a	n/a	n/a	n/a	n/a	14	4	6	4	n/a	n/a	n/a	n/a	n/a
2169.574	n/a	PROB	1084787	n/a	LTP252	ltpFR	13	n/a	n/a	n/a	n/a	n/a	n/a	17	8	1	8	n/a	n/a	n/a	n/a	n/a
2170.972	n/a	PROB	1085486	n/a	LTP252	ltpFR	13	n/a	n/a	n/a	n/a	n/a	n/a	7	3	3	1	n/a	n/a	n/a	n/a	n/a
2172.618	n/a	PROB	1086309	n/a	LTP252	ltpFR	13	n/a	n/a	n/a	n/a	n/a	n/a	19	3	9	7	n/a	n/a	n/a	n/a	n/a
2173.814	n/a	STOP	1086907	n/a	LTP252	ltpFR	13	n/a	n/a	n/a	n/a	n/a	n/a	n/a	n/a	n/a	n/a	n/a	n/a	n/a	n/a	n/a
2176.996	n/a	REC_START	1088498	n/a	LTP252	ltpFR	13	9	n/a	n/a	n/a	n/a	n/a	n/a	0	0	0	n/a	n/a	n/a	n/a	n/a
2178.998	n/a	REC_WORD	1089499	wordpools/wasnorm_wordpool_less_exclusions.txt	LTP252	ltpFR	13	9	1	BOOT	150	n/a	0	n/a	0	0	0	n/a	n/a	n/a	n/a	n/a
2181.49	n/a	REC_WORD	1090745	wordpools/wasnorm_wordpool_less_exclusions.txt	LTP252	ltpFR	13	9	1	FARM	552	n/a	0	n/a	0	0	0	n/a	n/a	n/a	n/a	n/a
2183.006	n/a	REC_WORD	1091503	wordpools/wasnorm_wordpool_less_exclusions.txt	LTP252	ltpFR	13	9	0	STABLE	1363	n/a	1	n/a	0	0	0	n/a	n/a	n/a	n/a	n/a
2184.12	n/a	REC_WORD	1092060	wordpools/wasnorm_wordpool_less_exclusions.txt	LTP252	ltpFR	13	9	0	ZEBRA	1635	n/a	1	n/a	0	0	0	n/a	n/a	n/a	n/a	n/a
2185.294	n/a	REC_WORD	1092647	wordpools/wasnorm_wordpool_less_exclusions.txt	LTP252	ltpFR	13	9	0	PONY	1102	n/a	1	n/a	0	0	0	n/a	n/a	n/a	n/a	n/a
2186.924	n/a	REC_WORD	1093462	wordpools/wasnorm_wordpool_less_exclusions.txt	LTP252	ltpFR	13	9	1	ZOO	1637	n/a	0	n/a	0	0	0	n/a	n/a	n/a	n/a	n/a
2188.24	n/a	REC_WORD	1094120	wordpools/wasnorm_wordpool_less_exclusions.txt	LTP252	ltpFR	13	9	0	ORCHESTRA	981	n/a	1	n/a	0	0	0	n/a	n/a	n/a	n/a	n/a
2189.45	n/a	REC_WORD	1094725	wordpools/wasnorm_wordpool_less_exclusions.txt	LTP252	ltpFR	13	9	0	COBBLER	335	n/a	0	n/a	0	0	0	n/a	n/a	n/a	n/a	n/a
2190.52	n/a	REC_WORD	1095260	wordpools/wasnorm_wordpool_less_exclusions.txt	LTP252	ltpFR	13	9	1	RADISH	1158	n/a	1	n/a	0	0	0	n/a	n/a	n/a	n/a	n/a
2192.76	n/a	REC_WORD	1096380	wordpools/wasnorm_wordpool_less_exclusions.txt	LTP252	ltpFR	13	9	1	JEWEL	757	n/a	0	n/a	0	0	0	n/a	n/a	n/a	n/a	n/a
2194.532	n/a	REC_WORD	1097266	wordpools/wasnorm_wordpool_less_exclusions.txt	LTP252	ltpFR	13	9	1	NAIL	936	n/a	0	n/a	0	0	0	n/a	n/a	n/a	n/a	n/a
2199.682	n/a	REC_WORD	1099841	wordpools/wasnorm_wordpool_less_exclusions.txt	LTP252	ltpFR	13	9	1	CENT	270	n/a	0	n/a	0	0	0	n/a	n/a	n/a	n/a	n/a
2205.22	n/a	REC_WORD	1102610	wordpools/wasnorm_wordpool_less_exclusions.txt	LTP252	ltpFR	13	9	0	FIDDLE	561	n/a	1	n/a	0	0	0	n/a	n/a	n/a	n/a	n/a
2208.994	n/a	REC_WORD	1104497	wordpools/wasnorm_wordpool_less_exclusions.txt	LTP252	ltpFR	13	9	0	IDOL	733	n/a	1	n/a	0	0	0	n/a	n/a	n/a	n/a	n/a
2253.084	n/a	START	1126542	n/a	LTP252	ltpFR	13	n/a	n/a	n/a	n/a	n/a	n/a	n/a	n/a	n/a	n/a	n/a	n/a	n/a	n/a	n/a
2254.598	n/a	PROB	1127299	n/a	LTP252	ltpFR	13	n/a	n/a	n/a	n/a	n/a	n/a	16	6	5	5	n/a	n/a	n/a	n/a	n/a
2255.928	n/a	PROB	1127964	n/a	LTP252	ltpFR	13	n/a	n/a	n/a	n/a	n/a	n/a	13	8	1	4	n/a	n/a	n/a	n/a	n/a
2261.084	n/a	STOP	1130542	n/a	LTP252	ltpFR	13	n/a	n/a	n/a	n/a	n/a	n/a	n/a	n/a	n/a	n/a	n/a	n/a	n/a	n/a	n/a
2262.002	n/a	WORD	1131001	wordpools/wasnorm_wordpool_less_exclusions.txt	LTP252	ltpFR	13	10	0	LAGOON	795	n/a	1	n/a	0	0	0	0	0.5869140625	0.422607421875	lower	../fonts/amplitud.ttf
2265.016	n/a	START	1132508	n/a	LTP252	ltpFR	13	n/a	n/a	n/a	n/a	n/a	n/a	n/a	n/a	n/a	n/a	n/a	n/a	n/a	n/a	n/a
2265.948	n/a	PROB	1132974	n/a	LTP252	ltpFR	13	n/a	n/a	n/a	n/a	n/a	n/a	12	7	3	2	n/a	n/a	n/a	n/a	n/a
2267.212	n/a	PROB	1133606	n/a	LTP252	ltpFR	13	n/a	n/a	n/a	n/a	n/a	n/a	12	5	2	5	n/a	n/a	n/a	n/a	n/a
2268.262	n/a	PROB	1134131	n/a	LTP252	ltpFR	13	n/a	n/a	n/a	n/a	n/a	n/a	15	7	5	3	n/a	n/a	n/a	n/a	n/a
2269.426	n/a	PROB	1134713	n/a	LTP252	ltpFR	13	n/a	n/a	n/a	n/a	n/a	n/a	7	4	1	2	n/a	n/a	n/a	n/a	n/a
2273.014	n/a	STOP	1136507	n/a	LTP252	ltpFR	13	n/a	n/a	n/a	n/a	n/a	n/a	n/a	n/a	n/a	n/a	n/a	n/a	n/a	n/a	n/a
2274.268	n/a	WORD	1137134	wordpools/wasnorm_wordpool_less_exclusions.txt	LTP252	ltpFR	13	10	0	BUTLER	204	n/a	1	n/a	0	0	0	0	0.5869140625	0.422607421875	lower	../fonts/amplitud.ttf
2277.282	n/a	START	1138641	n/a	LTP252	ltpFR	13	n/a	n/a	n/a	n/a	n/a	n/a	n/a	n/a	n/a	n/a	n/a	n/a	n/a	n/a	n/a
2278.096	n/a	PROB	1139048	n/a	LTP252	ltpFR	13	n/a	n/a	n/a	n/a	n/a	n/a	15	6	5	4	n/a	n/a	n/a	n/a	n/a
2279.278	n/a	PROB	1139639	n/a	LTP252	ltpFR	13	n/a	n/a	n/a	n/a	n/a	n/a	15	5	3	7	n/a	n/a	n/a	n/a	n/a
2280.36	n/a	PROB	1140180	n/a	LTP252	ltpFR	13	n/a	n/a	n/a	n/a	n/a	n/a	17	6	4	7	n/a	n/a	n/a	n/a	n/a
2281.84	n/a	PROB	1140920	n/a	LTP252	ltpFR	13	n/a	n/a	n/a	n/a	n/a	n/a	22	9	6	7	n/a	n/a	n/a	n/a	n/a
2284.048	n/a	STOP	1142024	n/a	LTP252	ltpFR	13	n/a	n/a	n/a	n/a	n/a	n/a	n/a	n/a	n/a	n/a	n/a	n/a	n/a	n/a	n/a
2286.218	n/a	WORD	1143109	wordpools/wasnorm_wordpool_less_exclusions.txt	LTP252	ltpFR	13	10	0	CABIN	211	n/a	1	n/a	0	0	0	0	0.5869140625	0.422607421875	lower	../fonts/amplitud.ttf
2289.23	n/a	START	1144615	n/a	LTP252	ltpFR	13	n/a	n/a	n/a	n/a	n/a	n/a	n/a	n/a	n/a	n/a	n/a	n/a	n/a	n/a	n/a
2290.41	n/a	PROB	1145205	n/a	LTP252	ltpFR	13	n/a	n/a	n/a	n/a	n/a	n/a	18	7	3	8	n/a	n/a	n/a	n/a	n/a
2291.526	n/a	PROB	1145763	n/a	LTP252	ltpFR	13	n/a	n/a	n/a	n/a	n/a	n/a	13	2	9	2	n/a	n/a	n/a	n/a	n/a
2292.724	n/a	PROB	1146362	n/a	LTP252	ltpFR	13	n/a	n/a	n/a	n/a	n/a	n/a	18	7	9	2	n/a	n/a	n/a	n/a	n/a
2294.688	n/a	PROB	1147344	n/a	LTP252	ltpFR	13	n/a	n/a	n/a	n/a	n/a	n/a	10	7	2	1	n/a	n/a	n/a	n/a	n/a
2295.76	n/a	STOP	1147880	n/a	LTP252	ltpFR	13	n/a	n/a	n/a	n/a	n/a	n/a	n/a	n/a	n/a	n/a	n/a	n/a	n/a	n/a	n/a
2298.1	n/a	WORD	1149050	wordpools/wasnorm_wordpool_less_exclusions.txt	LTP252	ltpFR	13	10	1	BRICK	172	n/a	0	n/a	0	0	0	1	0.412841796875	0.57763671875	upper	../fonts/zerothre.ttf
2301.114	n/a	START	1150557	n/a	LTP252	ltpFR	13	n/a	n/a	n/a	n/a	n/a	n/a	n/a	n/a	n/a	n/a	n/a	n/a	n/a	n/a	n/a
2302.244	n/a	PROB	1151122	n/a	LTP252	ltpFR	13	n/a	n/a	n/a	n/a	n/a	n/a	15	6	7	2	n/a	n/a	n/a	n/a	n/a
2303.692	n/a	PROB	1151846	n/a	LTP252	ltpFR	13	n/a	n/a	n/a	n/a	n/a	n/a	19	6	8	5	n/a	n/a	n/a	n/a	n/a
2305.406	n/a	PROB	1152703	n/a	LTP252	ltpFR	13	n/a	n/a	n/a	n/a	n/a	n/a	9	3	3	3	n/a	n/a	n/a	n/a	n/a
2309.114	n/a	STOP	1154557	n/a	LTP252	ltpFR	13	n/a	n/a	n/a	n/a	n/a	n/a	n/a	n/a	n/a	n/a	n/a	n/a	n/a	n/a	n/a
2309.95	n/a	WORD	1154975	wordpools/wasnorm_wordpool_less_exclusions.txt	LTP252	ltpFR	13	10	1	HEART	697	n/a	0	n/a	0	0	0	1	0.412841796875	0.57763671875	upper	../fonts/zerothre.ttf
2312.962	n/a	START	1156481	n/a	LTP252	ltpFR	13	n/a	n/a	n/a	n/a	n/a	n/a	n/a	n/a	n/a	n/a	n/a	n/a	n/a	n/a	n/a
2313.86	n/a	PROB	1156930	n/a	LTP252	ltpFR	13	n/a	n/a	n/a	n/a	n/a	n/a	10	4	5	1	n/a	n/a	n/a	n/a	n/a
2315.558	n/a	PROB	1157779	n/a	LTP252	ltpFR	13	n/a	n/a	n/a	n/a	n/a	n/a	14	6	6	2	n/a	n/a	n/a	n/a	n/a
2317.222	n/a	PROB	1158611	n/a	LTP252	ltpFR	13	n/a	n/a	n/a	n/a	n/a	n/a	11	1	6	4	n/a	n/a	n/a	n/a	n/a
2318.436	n/a	PROB	1159218	n/a	LTP252	ltpFR	13	n/a	n/a	n/a	n/a	n/a	n/a	6	4	1	1	n/a	n/a	n/a	n/a	n/a
2319.6	n/a	STOP	1159800	n/a	LTP252	ltpFR	13	n/a	n/a	n/a	n/a	n/a	n/a	n/a	n/a	n/a	n/a	n/a	n/a	n/a	n/a	n/a
2321.864	n/a	WORD	1160932	wordpools/wasnorm_wordpool_less_exclusions.txt	LTP252	ltpFR	13	10	0	SEAGULL	1261	n/a	1	n/a	0	0	0	0	0.5869140625	0.422607421875	lower	../fonts/amplitud.ttf
2324.878	n/a	START	1162439	n/a	LTP252	ltpFR	13	n/a	n/a	n/a	n/a	n/a	n/a	n/a	n/a	n/a	n/a	n/a	n/a	n/a	n/a	n/a
2326.008	n/a	PROB	1163004	n/a	LTP252	ltpFR	13	n/a	n/a	n/a	n/a	n/a	n/a	16	6	6	4	n/a	n/a	n/a	n/a	n/a
2327.29	n/a	PROB	1163645	n/a	LTP252	ltpFR	13	n/a	n/a	n/a	n/a	n/a	n/a	16	6	3	7	n/a	n/a	n/a	n/a	n/a
2329.004	n/a	PROB	1164502	n/a	LTP252	ltpFR	13	n/a	n/a	n/a	n/a	n/a	n/a	14	3	3	8	n/a	n/a	n/a	n/a	n/a
2332.878	n/a	STOP	1166439	n/a	LTP252	ltpFR	13	n/a	n/a	n/a	n/a	n/a	n/a	n/a	n/a	n/a	n/a	n/a	n/a	n/a	n/a	n/a
2333.796	n/a	WORD	1166898	wordpools/wasnorm_wordpool_less_exclusions.txt	LTP252	ltpFR	13	10	0	ORCHID	982	n/a	2	n/a	0	0	0	0	0.5869140625	0.422607421875	lower	../fonts/amplitud.ttf
2335.08	n/a	KEY_MSG	1167540	n/a	LTP252	ltpFR	13	10	n/a	n/a	n/a	n/a	n/a	n/a	0	0	0	n/a	n/a	n/a	n/a	n/a
2336.81	n/a	START	1168405	n/a	LTP252	ltpFR	13	n/a	n/a	n/a	n/a	n/a	n/a	n/a	n/a	n/a	n/a	n/a	n/a	n/a	n/a	n/a
2337.658	n/a	PROB	1168829	n/a	LTP252	ltpFR	13	n/a	n/a	n/a	n/a	n/a	n/a	17	3	8	6	n/a	n/a	n/a	n/a	n/a
2339.704	n/a	PROB	1169852	n/a	LTP252	ltpFR	13	n/a	n/a	n/a	n/a	n/a	n/a	24	8	9	7	n/a	n/a	n/a	n/a	n/a
2341.652	n/a	PROB	1170826	n/a	LTP252	ltpFR	13	n/a	n/a	n/a	n/a	n/a	n/a	26	8	9	9	n/a	n/a	n/a	n/a	n/a
2343.084	n/a	PROB	1171542	n/a	LTP252	ltpFR	13	n/a	n/a	n/a	n/a	n/a	n/a	13	5	3	5	n/a	n/a	n/a	n/a	n/a
2344.154	n/a	STOP	1172077	n/a	LTP252	ltpFR	13	n/a	n/a	n/a	n/a	n/a	n/a	n/a	n/a	n/a	n/a	n/a	n/a	n/a	n/a	n/a
2345.728	n/a	WORD	1172864	wordpools/wasnorm_wordpool_less_exclusions.txt	LTP252	ltpFR	13	10	1	SURF	1412	n/a	0	n/a	0	0	0	1	0.412841796875	0.57763671875	upper	../fonts/zerothre.ttf
2348.742	n/a	START	1174371	n/a	LTP252	ltpFR	13	n/a	n/a	n/a	n/a	n/a	n/a	n/a	n/a	n/a	n/a	n/a	n/a	n/a	n/a	n/a
2349.922	n/a	PROB	1174961	n/a	LTP252	ltpFR	13	n/a	n/a	n/a	n/a	n/a	n/a	11	6	3	2	n/a	n/a	n/a	n/a	n/a
2351.536	n/a	PROB	1175768	n/a	LTP252	ltpFR	13	n/a	n/a	n/a	n/a	n/a	n/a	15	4	8	3	n/a	n/a	n/a	n/a	n/a
2353.302	n/a	PROB	1176651	n/a	LTP252	ltpFR	13	n/a	n/a	n/a	n/a	n/a	n/a	11	3	6	2	n/a	n/a	n/a	n/a	n/a
2355.354	n/a	STOP	1177677	n/a	LTP252	ltpFR	13	n/a	n/a	n/a	n/a	n/a	n/a	n/a	n/a	n/a	n/a	n/a	n/a	n/a	n/a	n/a
2357.744	n/a	WORD	1178872	wordpools/wasnorm_wordpool_less_exclusions.txt	LTP252	ltpFR	13	10	1	SKATE	1313	n/a	0	n/a	0	0	0	1	0.412841796875	0.57763671875	upper	../fonts/zerothre.ttf
2360.756	n/a	START	1180378	n/a	LTP252	ltpFR	13	n/a	n/a	n/a	n/a	n/a	n/a	n/a	n/a	n/a	n/a	n/a	n/a	n/a	n/a	n/a
2361.722	n/a	PROB	1180861	n/a	LTP252	ltpFR	13	n/a	n/a	n/a	n/a	n/a	n/a	16	6	1	9	n/a	n/a	n/a	n/a	n/a
2363.036	n/a	PROB	1181518	n/a	LTP252	ltpFR	13	n/a	n/a	n/a	n/a	n/a	n/a	16	5	5	6	n/a	n/a	n/a	n/a	n/a
2364.202	n/a	PROB	1182101	n/a	LTP252	ltpFR	13	n/a	n/a	n/a	n/a	n/a	n/a	12	3	5	4	n/a	n/a	n/a	n/a	n/a
2365.684	n/a	PROB	1182842	n/a	LTP252	ltpFR	13	n/a	n/a	n/a	n/a	n/a	n/a	16	6	2	8	n/a	n/a	n/a	n/a	n/a
2367.148	n/a	PROB	1183574	n/a	LTP252	ltpFR	13	n/a	n/a	n/a	n/a	n/a	n/a	8	1	4	3	n/a	n/a	n/a	n/a	n/a
2368.21	n/a	STOP	1184105	n/a	LTP252	ltpFR	13	n/a	n/a	n/a	n/a	n/a	n/a	n/a	n/a	n/a	n/a	n/a	n/a	n/a	n/a	n/a
2369.694	n/a	WORD	1184847	wordpools/wasnorm_wordpool_less_exclusions.txt	LTP252	ltpFR	13	10	1	SWAN	1417	n/a	1	n/a	0	0	0	1	0.412841796875	0.57763671875	upper	../fonts/zerothre.ttf
2372.706	n/a	START	1186353	n/a	LTP252	ltpFR	13	n/a	n/a	n/a	n/a	n/a	n/a	n/a	n/a	n/a	n/a	n/a	n/a	n/a	n/a	n/a
2373.522	n/a	PROB	1186761	n/a	LTP252	ltpFR	13	n/a	n/a	n/a	n/a	n/a	n/a	22	7	7	8	n/a	n/a	n/a	n/a	n/a
2375.918	n/a	PROB	1187959	n/a	LTP252	ltpFR	13	n/a	n/a	n/a	n/a	n/a	n/a	14	2	8	4	n/a	n/a	n/a	n/a	n/a
2377.466	n/a	PROB	1188733	n/a	LTP252	ltpFR	13	n/a	n/a	n/a	n/a	n/a	n/a	18	7	6	5	n/a	n/a	n/a	n/a	n/a
2378.764	n/a	PROB	1189382	n/a	LTP252	ltpFR	13	n/a	n/a	n/a	n/a	n/a	n/a	15	6	8	1	n/a	n/a	n/a	n/a	n/a
2379.994	n/a	STOP	1189997	n/a	LTP252	ltpFR	13	n/a	n/a	n/a	n/a	n/a	n/a	n/a	n/a	n/a	n/a	n/a	n/a	n/a	n/a	n/a
2381.876	n/a	WORD	1190938	wordpools/wasnorm_wordpool_less_exclusions.txt	LTP252	ltpFR	13	10	1	CAGE	218	n/a	0	n/a	0	0	0	1	0.412841796875	0.57763671875	upper	../fonts/zerothre.ttf
2384.888	n/a	START	1192444	n/a	LTP252	ltpFR	13	n/a	n/a	n/a	n/a	n/a	n/a	n/a	n/a	n/a	n/a	n/a	n/a	n/a	n/a	n/a
2385.87	n/a	PROB	1192935	n/a	LTP252	ltpFR	13	n/a	n/a	n/a	n/a	n/a	n/a	5	1	1	3	n/a	n/a	n/a	n/a	n/a
2387.102	n/a	PROB	1193551	n/a	LTP252	ltpFR	13	n/a	n/a	n/a	n/a	n/a	n/a	15	8	1	6	n/a	n/a	n/a	n/a	n/a
2388.416	n/a	PROB	1194208	n/a	LTP252	ltpFR	13	n/a	n/a	n/a	n/a	n/a	n/a	11	6	1	4	n/a	n/a	n/a	n/a	n/a
2389.532	n/a	PROB	1194766	n/a	LTP252	ltpFR	13	n/a	n/a	n/a	n/a	n/a	n/a	16	2	9	5	n/a	n/a	n/a	n/a	n/a
2391.162	n/a	PROB	1195581	n/a	LTP252	ltpFR	13	n/a	n/a	n/a	n/a	n/a	n/a	16	7	7	2	n/a	n/a	n/a	n/a	n/a
2392.362	n/a	STOP	1196181	n/a	LTP252	ltpFR	13	n/a	n/a	n/a	n/a	n/a	n/a	n/a	n/a	n/a	n/a	n/a	n/a	n/a	n/a	n/a
2393.758	n/a	WORD	1196879	wordpools/wasnorm_wordpool_less_exclusions.txt	LTP252	ltpFR	13	10	1	COMMITTEE	355	n/a	1	n/a	0	0	0	1	0.412841796875	0.57763671875	upper	../fonts/zerothre.ttf
2396.77	n/a	START	1198385	n/a	LTP252	ltpFR	13	n/a	n/a	n/a	n/a	n/a	n/a	n/a	n/a	n/a	n/a	n/a	n/a	n/a	n/a	n/a
2397.686	n/a	PROB	1198843	n/a	LTP252	ltpFR	13	n/a	n/a	n/a	n/a	n/a	n/a	19	5	5	9	n/a	n/a	n/a	n/a	n/a
2398.8	n/a	PROB	1199400	n/a	LTP252	ltpFR	13	n/a	n/a	n/a	n/a	n/a	n/a	13	5	5	3	n/a	n/a	n/a	n/a	n/a
2399.85	n/a	PROB	1199925	n/a	LTP252	ltpFR	13	n/a	n/a	n/a	n/a	n/a	n/a	15	9	1	5	n/a	n/a	n/a	n/a	n/a
2400.998	n/a	PROB	1200499	n/a	LTP252	ltpFR	13	n/a	n/a	n/a	n/a	n/a	n/a	15	4	3	8	n/a	n/a	n/a	n/a	n/a
2402.18	n/a	PROB	1201090	n/a	LTP252	ltpFR	13	n/a	n/a	n/a	n/a	n/a	n/a	16	2	9	5	n/a	n/a	n/a	n/a	n/a
2403.626	n/a	STOP	1201813	n/a	LTP252	ltpFR	13	n/a	n/a	n/a	n/a	n/a	n/a	n/a	n/a	n/a	n/a	n/a	n/a	n/a	n/a	n/a
2405.674	n/a	WORD	1202837	wordpools/wasnorm_wordpool_less_exclusions.txt	LTP252	ltpFR	13	10	1	GOVERNOR	651	n/a	1	n/a	0	0	0	1	0.412841796875	0.57763671875	upper	../fonts/zerothre.ttf
2408.686	n/a	START	1204343	n/a	LTP252	ltpFR	13	n/a	n/a	n/a	n/a	n/a	n/a	n/a	n/a	n/a	n/a	n/a	n/a	n/a	n/a	n/a
2409.868	n/a	PROB	1204934	n/a	LTP252	ltpFR	13	n/a	n/a	n/a	n/a	n/a	n/a	11	4	4	3	n/a	n/a	n/a	n/a	n/a
2412.116	n/a	PROB	1206058	n/a	LTP252	ltpFR	13	n/a	n/a	n/a	n/a	n/a	n/a	23	9	8	6	n/a	n/a	n/a	n/a	n/a
2415.362	n/a	STOP	1207681	n/a	LTP252	ltpFR	13	n/a	n/a	n/a	n/a	n/a	n/a	n/a	n/a	n/a	n/a	n/a	n/a	n/a	n/a	n/a
2417.522	n/a	WORD	1208761	wordpools/wasnorm_wordpool_less_exclusions.txt	LTP252	ltpFR	13	10	0	RASPBERRY	1168	n/a	0	n/a	0	0	0	0	0.5869140625	0.422607421875	lower	../fonts/amplitud.ttf
2420.536	n/a	START	1210268	n/a	LTP252	ltpFR	13	n/a	n/a	n/a	n/a	n/a	n/a	n/a	n/a	n/a	n/a	n/a	n/a	n/a	n/a	n/a
2421.566	n/a	PROB	1210783	n/a	LTP252	ltpFR	13	n/a	n/a	n/a	n/a	n/a	n/a	8	3	1	4	n/a	n/a	n/a	n/a	n/a
2422.764	n/a	PROB	1211382	n/a	LTP252	ltpFR	13	n/a	n/a	n/a	n/a	n/a	n/a	16	2	9	5	n/a	n/a	n/a	n/a	n/a
