mstime	trial_type	stim_file	subject	experiment	session	trial	task	item_name	item_num	recog_conf	resp	color_b	color_g	color_r	case	font
0	SESS_START	n/a	LTP122	ltpFR	6	n/a	n/a	n/a	n/a	1	n/a	n/a	n/a	n/a	n/a	n/a
45143	WORD	wordpools/wasnorm_wordpool.txt	LTP122	ltpFR	6	1	0	PUBLICATION	1136	n/a	0	1	0.412841796875	0.57763671875	lower	../fonts/zerothre.ttf
49333	WORD	wordpools/wasnorm_wordpool.txt	LTP122	ltpFR	6	1	0	DINNER	468	n/a	0	1	0.412841796875	0.57763671875	lower	../fonts/zerothre.ttf
53173	WORD	wordpools/wasnorm_wordpool.txt	LTP122	ltpFR	6	1	1	CAFE	216	n/a	0	0	0.5869140625	0.422607421875	upper	../fonts/amplitud.ttf
57355	WORD	wordpools/wasnorm_wordpool.txt	LTP122	ltpFR	6	1	1	AIRPORT	13	n/a	0	0	0.5869140625	0.422607421875	upper	../fonts/amplitud.ttf
61412	WORD	wordpools/wasnorm_wordpool.txt	LTP122	ltpFR	6	1	1	SCOTCH	1251	n/a	0	0	0.5869140625	0.422607421875	upper	../fonts/amplitud.ttf
65602	WORD	wordpools/wasnorm_wordpool.txt	LTP122	ltpFR	6	1	1	FOREST	593	n/a	1	0	0.5869140625	0.422607421875	upper	../fonts/amplitud.ttf
69617	WORD	wordpools/wasnorm_wordpool.txt	LTP122	ltpFR	6	1	1	UNICORN	1538	n/a	1	0	0.5869140625	0.422607421875	upper	../fonts/amplitud.ttf
73558	WORD	wordpools/wasnorm_wordpool.txt	LTP122	ltpFR	6	1	1	MOOSE	915	n/a	1	0	0.5869140625	0.422607421875	upper	../fonts/amplitud.ttf
77481	WORD	wordpools/wasnorm_wordpool.txt	LTP122	ltpFR	6	1	0	LIME	823	n/a	0	1	0.412841796875	0.57763671875	lower	../fonts/zerothre.ttf
81296	WORD	wordpools/wasnorm_wordpool.txt	LTP122	ltpFR	6	1	0	BINDER	127	n/a	1	1	0.412841796875	0.57763671875	lower	../fonts/zerothre.ttf
85503	WORD	wordpools/wasnorm_wordpool.txt	LTP122	ltpFR	6	1	0	DRINK	498	n/a	0	1	0.412841796875	0.57763671875	lower	../fonts/zerothre.ttf
89419	WORD	wordpools/wasnorm_wordpool.txt	LTP122	ltpFR	6	1	0	CLOSET	326	n/a	0	1	0.412841796875	0.57763671875	lower	../fonts/zerothre.ttf
93267	WORD	wordpools/wasnorm_wordpool.txt	LTP122	ltpFR	6	1	1	SHELL	1281	n/a	0	0	0.5869140625	0.422607421875	upper	../fonts/amplitud.ttf
97266	WORD	wordpools/wasnorm_wordpool.txt	LTP122	ltpFR	6	1	1	OCTOPUS	971	n/a	1	0	0.5869140625	0.422607421875	upper	../fonts/amplitud.ttf
101206	WORD	wordpools/wasnorm_wordpool.txt	LTP122	ltpFR	6	1	0	FRIEND	606	n/a	1	1	0.412841796875	0.57763671875	lower	../fonts/zerothre.ttf
105121	WORD	wordpools/wasnorm_wordpool.txt	LTP122	ltpFR	6	1	0	FELLOW	558	n/a	1	1	0.412841796875	0.57763671875	lower	../fonts/zerothre.ttf
110937	REC_START	n/a	LTP122	ltpFR	6	1	n/a	n/a	n/a	n/a	n/a	n/a	n/a	n/a	n/a	n/a
111879	REC_WORD	wordpools/wasnorm_wordpool.txt	LTP122	ltpFR	6	1	1	OCTOPUS	971	n/a	1	n/a	n/a	n/a	n/a	n/a
112643	REC_WORD	wordpools/wasnorm_wordpool.txt	LTP122	ltpFR	6	1	0	FRIEND	606	n/a	1	n/a	n/a	n/a	n/a	n/a
113346	REC_WORD	wordpools/wasnorm_wordpool.txt	LTP122	ltpFR	6	1	0	FELLOW	558	n/a	1	n/a	n/a	n/a	n/a	n/a
114693	REC_WORD	wordpools/wasnorm_wordpool.txt	LTP122	ltpFR	6	1	0	PUBLICATION	1136	n/a	0	n/a	n/a	n/a	n/a	n/a
115980	REC_WORD	wordpools/wasnorm_wordpool.txt	LTP122	ltpFR	6	1	0	DINNER	468	n/a	0	n/a	n/a	n/a	n/a	n/a
116549	REC_WORD	wordpools/wasnorm_wordpool.txt	LTP122	ltpFR	6	1	1	SCOTCH	1251	n/a	0	n/a	n/a	n/a	n/a	n/a
117537	REC_WORD	wordpools/wasnorm_wordpool.txt	LTP122	ltpFR	6	1	0	DRINK	498	n/a	0	n/a	n/a	n/a	n/a	n/a
118315	REC_WORD	wordpools/wasnorm_wordpool.txt	LTP122	ltpFR	6	1	0	LIME	823	n/a	0	n/a	n/a	n/a	n/a	n/a
119193	REC_WORD	wordpools/wasnorm_wordpool.txt	LTP122	ltpFR	6	1	1	AIRPORT	13	n/a	0	n/a	n/a	n/a	n/a	n/a
120580	REC_WORD	wordpools/wasnorm_wordpool.txt	LTP122	ltpFR	6	1	1	FOREST	593	n/a	1	n/a	n/a	n/a	n/a	n/a
121707	REC_WORD	wordpools/wasnorm_wordpool.txt	LTP122	ltpFR	6	1	1	UNICORN	1538	n/a	1	n/a	n/a	n/a	n/a	n/a
124142	REC_WORD	wordpools/wasnorm_wordpool.txt	LTP122	ltpFR	6	1	1	MOOSE	915	n/a	1	n/a	n/a	n/a	n/a	n/a
127524	REC_WORD	wordpools/wasnorm_wordpool.txt	LTP122	ltpFR	6	1	0	FELLOW	558	n/a	1	n/a	n/a	n/a	n/a	n/a
128592	REC_WORD	wordpools/wasnorm_wordpool.txt	LTP122	ltpFR	6	1	1	OCTOPUS	971	n/a	1	n/a	n/a	n/a	n/a	n/a
135122	REC_WORD	wordpools/wasnorm_wordpool.txt	LTP122	ltpFR	6	1	0	BINDER	127	n/a	1	n/a	n/a	n/a	n/a	n/a
140195	REC_WORD	wordpools/wasnorm_wordpool.txt	LTP122	ltpFR	6	1	1	SHELL	1281	n/a	0	n/a	n/a	n/a	n/a	n/a
148167	REC_WORD	wordpools/wasnorm_wordpool.txt	LTP122	ltpFR	6	1	0	CLOSET	326	n/a	0	n/a	n/a	n/a	n/a	n/a
152687	REC_WORD	wordpools/wasnorm_wordpool.txt	LTP122	ltpFR	6	1	1	CAFE	216	n/a	0	n/a	n/a	n/a	n/a	n/a
190949	WORD	wordpools/wasnorm_wordpool.txt	LTP122	ltpFR	6	2	1	FIDDLE	561	n/a	1	0	0.5869140625	0.422607421875	upper	../fonts/amplitud.ttf
194765	WORD	wordpools/wasnorm_wordpool.txt	LTP122	ltpFR	6	2	1	CHAMBER	277	n/a	1	0	0.5869140625	0.422607421875	upper	../fonts/amplitud.ttf
198880	WORD	wordpools/wasnorm_wordpool.txt	LTP122	ltpFR	6	2	1	GARAGE	621	n/a	1	0	0.5869140625	0.422607421875	upper	../fonts/amplitud.ttf
202837	WORD	wordpools/wasnorm_wordpool.txt	LTP122	ltpFR	6	2	0	ITEM	746	n/a	1	1	0.412841796875	0.57763671875	lower	../fonts/zerothre.ttf
206969	WORD	wordpools/wasnorm_wordpool.txt	LTP122	ltpFR	6	2	0	SPOON	1357	n/a	0	1	0.412841796875	0.57763671875	lower	../fonts/zerothre.ttf
211034	WORD	wordpools/wasnorm_wordpool.txt	LTP122	ltpFR	6	2	1	PLATE	1086	n/a	0	0	0.5869140625	0.422607421875	upper	../fonts/amplitud.ttf
215216	WORD	wordpools/wasnorm_wordpool.txt	LTP122	ltpFR	6	2	1	ARCHITECT	36	n/a	1	0	0.5869140625	0.422607421875	upper	../fonts/amplitud.ttf
219156	WORD	wordpools/wasnorm_wordpool.txt	LTP122	ltpFR	6	2	0	BRAIN	165	n/a	0	1	0.412841796875	0.57763671875	lower	../fonts/zerothre.ttf
223329	WORD	wordpools/wasnorm_wordpool.txt	LTP122	ltpFR	6	2	0	COD	340	n/a	0	1	0.412841796875	0.57763671875	lower	../fonts/zerothre.ttf
227411	WORD	wordpools/wasnorm_wordpool.txt	LTP122	ltpFR	6	2	0	SARDINE	1235	n/a	0	1	0.412841796875	0.57763671875	lower	../fonts/zerothre.ttf
231310	WORD	wordpools/wasnorm_wordpool.txt	LTP122	ltpFR	6	2	0	FOLLOWER	589	n/a	1	1	0.412841796875	0.57763671875	lower	../fonts/zerothre.ttf
235225	WORD	wordpools/wasnorm_wordpool.txt	LTP122	ltpFR	6	2	0	DASHBOARD	441	n/a	1	1	0.412841796875	0.57763671875	lower	../fonts/zerothre.ttf
239132	WORD	wordpools/wasnorm_wordpool.txt	LTP122	ltpFR	6	2	0	CALF	222	n/a	1	1	0.412841796875	0.57763671875	lower	../fonts/zerothre.ttf
243122	WORD	wordpools/wasnorm_wordpool.txt	LTP122	ltpFR	6	2	1	SECRETARY	1265	n/a	1	0	0.5869140625	0.422607421875	upper	../fonts/amplitud.ttf
247304	WORD	wordpools/wasnorm_wordpool.txt	LTP122	ltpFR	6	2	1	ATOM	55	n/a	0	0	0.5869140625	0.422607421875	upper	../fonts/amplitud.ttf
251245	WORD	wordpools/wasnorm_wordpool.txt	LTP122	ltpFR	6	2	1	MANAGER	863	n/a	1	0	0.5869140625	0.422607421875	upper	../fonts/amplitud.ttf
256868	REC_START	n/a	LTP122	ltpFR	6	2	n/a	n/a	n/a	n/a	n/a	n/a	n/a	n/a	n/a	n/a
257132	REC_WORD	wordpools/wasnorm_wordpool.txt	LTP122	ltpFR	6	2	1	SECRETARY	1265	n/a	1	n/a	n/a	n/a	n/a	n/a
258030	REC_WORD	wordpools/wasnorm_wordpool.txt	LTP122	ltpFR	6	2	1	ATOM	55	n/a	0	n/a	n/a	n/a	n/a	n/a
258749	REC_WORD	wordpools/wasnorm_wordpool.txt	LTP122	ltpFR	6	2	1	MANAGER	863	n/a	1	n/a	n/a	n/a	n/a	n/a
260255	REC_WORD	wordpools/wasnorm_wordpool.txt	LTP122	ltpFR	6	2	1	ARCHITECT	36	n/a	1	n/a	n/a	n/a	n/a	n/a
260933	REC_WORD	wordpools/wasnorm_wordpool.txt	LTP122	ltpFR	6	2	0	FOLLOWER	589	n/a	1	n/a	n/a	n/a	n/a	n/a
261981	REC_WORD	wordpools/wasnorm_wordpool.txt	LTP122	ltpFR	6	2	0	CALF	222	n/a	1	n/a	n/a	n/a	n/a	n/a
263273	REC_WORD	wordpools/wasnorm_wordpool.txt	LTP122	ltpFR	6	2	0	COD	340	n/a	0	n/a	n/a	n/a	n/a	n/a
263897	REC_WORD	wordpools/wasnorm_wordpool.txt	LTP122	ltpFR	6	2	0	SARDINE	1235	n/a	0	n/a	n/a	n/a	n/a	n/a
267309	REC_WORD	wordpools/wasnorm_wordpool.txt	LTP122	ltpFR	6	2	1	CHAMBER	277	n/a	1	n/a	n/a	n/a	n/a	n/a
267997	REC_WORD	wordpools/wasnorm_wordpool.txt	LTP122	ltpFR	6	2	1	FIDDLE	561	n/a	1	n/a	n/a	n/a	n/a	n/a
268975	REC_WORD	wordpools/wasnorm_wordpool.txt	LTP122	ltpFR	6	2	1	GARAGE	621	n/a	1	n/a	n/a	n/a	n/a	n/a
269908	REC_WORD	wordpools/wasnorm_wordpool.txt	LTP122	ltpFR	6	2	0	DASHBOARD	441	n/a	1	n/a	n/a	n/a	n/a	n/a
272437	REC_WORD	wordpools/wasnorm_wordpool.txt	LTP122	ltpFR	6	2	0	ITEM	746	n/a	1	n/a	n/a	n/a	n/a	n/a
285069	REC_WORD	wordpools/wasnorm_wordpool.txt	LTP122	ltpFR	6	2	1	SECRETARY	1265	n/a	1	n/a	n/a	n/a	n/a	n/a
285791	REC_WORD	wordpools/wasnorm_wordpool.txt	LTP122	ltpFR	6	2	1	MANAGER	863	n/a	1	n/a	n/a	n/a	n/a	n/a
293749	REC_WORD	wordpools/wasnorm_wordpool.txt	LTP122	ltpFR	6	2	1	ATOM	55	n/a	0	n/a	n/a	n/a	n/a	n/a
335556	WORD	wordpools/wasnorm_wordpool.txt	LTP122	ltpFR	6	3	0	EMERALD	528	n/a	0	1	0.412841796875	0.57763671875	lower	../fonts/zerothre.ttf
339688	WORD	wordpools/wasnorm_wordpool.txt	LTP122	ltpFR	6	3	0	JEWEL	757	n/a	0	1	0.412841796875	0.57763671875	lower	../fonts/zerothre.ttf
343512	WORD	wordpools/wasnorm_wordpool.txt	LTP122	ltpFR	6	3	1	SKIN	1318	n/a	1	0	0.5869140625	0.422607421875	upper	../fonts/amplitud.ttf
347452	WORD	wordpools/wasnorm_wordpool.txt	LTP122	ltpFR	6	3	1	BLENDER	136	n/a	0	0	0.5869140625	0.422607421875	upper	../fonts/amplitud.ttf
351326	WORD	wordpools/wasnorm_wordpool.txt	LTP122	ltpFR	6	3	1	SUMMIT	1405	n/a	0	0	0.5869140625	0.422607421875	upper	../fonts/amplitud.ttf
355433	WORD	wordpools/wasnorm_wordpool.txt	LTP122	ltpFR	6	3	0	GULL	671	n/a	0	1	0.412841796875	0.57763671875	lower	../fonts/zerothre.ttf
359331	WORD	wordpools/wasnorm_wordpool.txt	LTP122	ltpFR	6	3	0	ANT	25	n/a	0	1	0.412841796875	0.57763671875	lower	../fonts/zerothre.ttf
363430	WORD	wordpools/wasnorm_wordpool.txt	LTP122	ltpFR	6	3	0	CHAMPION	279	n/a	1	1	0.412841796875	0.57763671875	lower	../fonts/zerothre.ttf
367453	WORD	wordpools/wasnorm_wordpool.txt	LTP122	ltpFR	6	3	1	BEAN	105	n/a	1	0	0.5869140625	0.422607421875	upper	../fonts/amplitud.ttf
371460	WORD	wordpools/wasnorm_wordpool.txt	LTP122	ltpFR	6	3	1	RICE	1190	n/a	1	0	0.5869140625	0.422607421875	upper	../fonts/amplitud.ttf
375317	WORD	wordpools/wasnorm_wordpool.txt	LTP122	ltpFR	6	3	1	QUAIL	1147	n/a	1	0	0.5869140625	0.422607421875	upper	../fonts/amplitud.ttf
379524	WORD	wordpools/wasnorm_wordpool.txt	LTP122	ltpFR	6	3	1	DINOSAUR	469	n/a	1	0	0.5869140625	0.422607421875	upper	../fonts/amplitud.ttf
383473	WORD	wordpools/wasnorm_wordpool.txt	LTP122	ltpFR	6	3	1	SLOPE	1328	n/a	0	0	0.5869140625	0.422607421875	upper	../fonts/amplitud.ttf
387496	WORD	wordpools/wasnorm_wordpool.txt	LTP122	ltpFR	6	3	0	GAZELLE	628	n/a	1	1	0.412841796875	0.57763671875	lower	../fonts/zerothre.ttf
391445	WORD	wordpools/wasnorm_wordpool.txt	LTP122	ltpFR	6	3	0	WOMAN	1620	n/a	1	1	0.412841796875	0.57763671875	lower	../fonts/zerothre.ttf
395652	WORD	wordpools/wasnorm_wordpool.txt	LTP122	ltpFR	6	3	0	BOSS	152	n/a	1	1	0.412841796875	0.57763671875	lower	../fonts/zerothre.ttf
401517	REC_START	n/a	LTP122	ltpFR	6	3	n/a	n/a	n/a	n/a	n/a	n/a	n/a	n/a	n/a	n/a
402160	REC_WORD	wordpools/wasnorm_wordpool.txt	LTP122	ltpFR	6	3	0	GAZELLE	628	n/a	1	n/a	n/a	n/a	n/a	n/a
403198	REC_WORD	wordpools/wasnorm_wordpool.txt	LTP122	ltpFR	6	3	0	WOMAN	1620	n/a	1	n/a	n/a	n/a	n/a	n/a
403946	REC_WORD	wordpools/wasnorm_wordpool.txt	LTP122	ltpFR	6	3	0	BOSS	152	n/a	1	n/a	n/a	n/a	n/a	n/a
404569	REC_WORD	wordpools/wasnorm_wordpool.txt	LTP122	ltpFR	6	3	1	SLOPE	1328	n/a	0	n/a	n/a	n/a	n/a	n/a
406031	REC_WORD	wordpools/wasnorm_wordpool.txt	LTP122	ltpFR	6	3	1	SUMMIT	1405	n/a	0	n/a	n/a	n/a	n/a	n/a
406895	REC_WORD	wordpools/wasnorm_wordpool.txt	LTP122	ltpFR	6	3	0	GULL	671	n/a	0	n/a	n/a	n/a	n/a	n/a
407548	REC_WORD	wordpools/wasnorm_wordpool.txt	LTP122	ltpFR	6	3	0	ANT	25	n/a	0	n/a	n/a	n/a	n/a	n/a
407987	REC_WORD	wordpools/wasnorm_wordpool.txt	LTP122	ltpFR	6	3	1	SKIN	1318	n/a	1	n/a	n/a	n/a	n/a	n/a
408875	REC_WORD	wordpools/wasnorm_wordpool.txt	LTP122	ltpFR	6	3	1	BLENDER	136	n/a	0	n/a	n/a	n/a	n/a	n/a
409494	REC_WORD	wordpools/wasnorm_wordpool.txt	LTP122	ltpFR	6	3	0	CHAMPION	279	n/a	1	n/a	n/a	n/a	n/a	n/a
410920	REC_WORD	wordpools/wasnorm_wordpool.txt	LTP122	ltpFR	6	3	1	BEAN	105	n/a	1	n/a	n/a	n/a	n/a	n/a
411559	REC_WORD	wordpools/wasnorm_wordpool.txt	LTP122	ltpFR	6	3	1	RICE	1190	n/a	1	n/a	n/a	n/a	n/a	n/a
412247	REC_WORD	wordpools/wasnorm_wordpool.txt	LTP122	ltpFR	6	3	0	JEWEL	757	n/a	0	n/a	n/a	n/a	n/a	n/a
412986	REC_WORD	wordpools/wasnorm_wordpool.txt	LTP122	ltpFR	6	3	0	EMERALD	528	n/a	0	n/a	n/a	n/a	n/a	n/a
484337	WORD	wordpools/wasnorm_wordpool.txt	LTP122	ltpFR	6	4	0	BATHROOM	99	n/a	1	1	0.412841796875	0.57763671875	lower	../fonts/zerothre.ttf
488177	WORD	wordpools/wasnorm_wordpool.txt	LTP122	ltpFR	6	4	0	CAVE	263	n/a	1	1	0.412841796875	0.57763671875	lower	../fonts/zerothre.ttf
492192	WORD	wordpools/wasnorm_wordpool.txt	LTP122	ltpFR	6	4	0	SHERIFF	1284	n/a	1	1	0.412841796875	0.57763671875	lower	../fonts/zerothre.ttf
496024	WORD	wordpools/wasnorm_wordpool.txt	LTP122	ltpFR	6	4	0	BARREL	91	n/a	1	1	0.412841796875	0.57763671875	lower	../fonts/zerothre.ttf
500165	WORD	wordpools/wasnorm_wordpool.txt	LTP122	ltpFR	6	4	0	KEG	770	n/a	1	1	0.412841796875	0.57763671875	lower	../fonts/zerothre.ttf
504072	WORD	wordpools/wasnorm_wordpool.txt	LTP122	ltpFR	6	4	0	RAG	1160	n/a	0	1	0.412841796875	0.57763671875	lower	../fonts/zerothre.ttf
508153	WORD	wordpools/wasnorm_wordpool.txt	LTP122	ltpFR	6	4	0	GREASE	660	n/a	0	1	0.412841796875	0.57763671875	lower	../fonts/zerothre.ttf
512227	WORD	wordpools/wasnorm_wordpool.txt	LTP122	ltpFR	6	4	0	CRUMB	416	n/a	0	1	0.412841796875	0.57763671875	lower	../fonts/zerothre.ttf
516051	WORD	wordpools/wasnorm_wordpool.txt	LTP122	ltpFR	6	4	0	OATMEAL	967	n/a	0	1	0.412841796875	0.57763671875	lower	../fonts/zerothre.ttf
519941	WORD	wordpools/wasnorm_wordpool.txt	LTP122	ltpFR	6	4	0	SKUNK	1321	n/a	1	1	0.412841796875	0.57763671875	lower	../fonts/zerothre.ttf
523856	WORD	wordpools/wasnorm_wordpool.txt	LTP122	ltpFR	6	4	0	COOK	372	n/a	1	1	0.412841796875	0.57763671875	lower	../fonts/zerothre.ttf
527813	WORD	wordpools/wasnorm_wordpool.txt	LTP122	ltpFR	6	4	0	CANDLE	229	n/a	0	1	0.412841796875	0.57763671875	lower	../fonts/zerothre.ttf
532012	WORD	wordpools/wasnorm_wordpool.txt	LTP122	ltpFR	6	4	0	RADIATOR	1156	n/a	1	1	0.412841796875	0.57763671875	lower	../fonts/zerothre.ttf
535935	WORD	wordpools/wasnorm_wordpool.txt	LTP122	ltpFR	6	4	0	VIOLA	1570	n/a	1	1	0.412841796875	0.57763671875	lower	../fonts/zerothre.ttf
540017	WORD	wordpools/wasnorm_wordpool.txt	LTP122	ltpFR	6	4	0	CLARINET	317	n/a	1	1	0.412841796875	0.57763671875	lower	../fonts/zerothre.ttf
544074	WORD	wordpools/wasnorm_wordpool.txt	LTP122	ltpFR	6	4	0	OFFICER	973	n/a	1	1	0.412841796875	0.57763671875	lower	../fonts/zerothre.ttf
550139	REC_START	n/a	LTP122	ltpFR	6	4	n/a	n/a	n/a	n/a	n/a	n/a	n/a	n/a	n/a	n/a
551321	REC_WORD	wordpools/wasnorm_wordpool.txt	LTP122	ltpFR	6	4	0	BATHROOM	99	n/a	1	n/a	n/a	n/a	n/a	n/a
552139	REC_WORD	wordpools/wasnorm_wordpool.txt	LTP122	ltpFR	6	4	0	CAVE	263	n/a	1	n/a	n/a	n/a	n/a	n/a
553027	REC_WORD	wordpools/wasnorm_wordpool.txt	LTP122	ltpFR	6	4	0	COOK	372	n/a	1	n/a	n/a	n/a	n/a	n/a
554135	REC_WORD	wordpools/wasnorm_wordpool.txt	LTP122	ltpFR	6	4	n/a	VIOLIN	1571	n/a	n/a	n/a	n/a	n/a	n/a	n/a
556150	REC_WORD	wordpools/wasnorm_wordpool.txt	LTP122	ltpFR	6	4	0	VIOLA	1570	n/a	1	n/a	n/a	n/a	n/a	n/a
557038	REC_WORD	wordpools/wasnorm_wordpool.txt	LTP122	ltpFR	6	4	0	CLARINET	317	n/a	1	n/a	n/a	n/a	n/a	n/a
558694	REC_WORD	wordpools/wasnorm_wordpool.txt	LTP122	ltpFR	6	4	0	SKUNK	1321	n/a	1	n/a	n/a	n/a	n/a	n/a
560151	REC_WORD	wordpools/wasnorm_wordpool.txt	LTP122	ltpFR	6	4	0	CANDLE	229	n/a	0	n/a	n/a	n/a	n/a	n/a
563164	REC_WORD	wordpools/wasnorm_wordpool.txt	LTP122	ltpFR	6	4	0	BARREL	91	n/a	1	n/a	n/a	n/a	n/a	n/a
563675	REC_WORD	wordpools/wasnorm_wordpool.txt	LTP122	ltpFR	6	4	0	SHERIFF	1284	n/a	1	n/a	n/a	n/a	n/a	n/a
564900	REC_WORD	wordpools/wasnorm_wordpool.txt	LTP122	ltpFR	6	4	0	CRUMB	416	n/a	0	n/a	n/a	n/a	n/a	n/a
565983	REC_WORD	wordpools/wasnorm_wordpool.txt	LTP122	ltpFR	6	4	0	GREASE	660	n/a	0	n/a	n/a	n/a	n/a	n/a
568273	REC_WORD	wordpools/wasnorm_wordpool.txt	LTP122	ltpFR	6	4	0	KEG	770	n/a	1	n/a	n/a	n/a	n/a	n/a
568941	REC_WORD	wordpools/wasnorm_wordpool.txt	LTP122	ltpFR	6	4	0	OFFICER	973	n/a	1	n/a	n/a	n/a	n/a	n/a
569899	REC_WORD	wordpools/wasnorm_wordpool.txt	LTP122	ltpFR	6	4	0	RAG	1160	n/a	0	n/a	n/a	n/a	n/a	n/a
575456	REC_WORD	wordpools/wasnorm_wordpool.txt	LTP122	ltpFR	6	4	0	RADIATOR	1156	n/a	1	n/a	n/a	n/a	n/a	n/a
602405	REC_WORD	wordpools/wasnorm_wordpool.txt	LTP122	ltpFR	6	4	0	COOK	372	n/a	1	n/a	n/a	n/a	n/a	n/a
628352	WORD	wordpools/wasnorm_wordpool.txt	LTP122	ltpFR	6	5	1	RAT	1169	n/a	1	0	0.5869140625	0.422607421875	upper	../fonts/amplitud.ttf
632551	WORD	wordpools/wasnorm_wordpool.txt	LTP122	ltpFR	6	5	1	ROBE	1198	n/a	0	0	0.5869140625	0.422607421875	upper	../fonts/amplitud.ttf
636616	WORD	wordpools/wasnorm_wordpool.txt	LTP122	ltpFR	6	5	1	ATTIRE	57	n/a	0	0	0.5869140625	0.422607421875	upper	../fonts/amplitud.ttf
640623	WORD	wordpools/wasnorm_wordpool.txt	LTP122	ltpFR	6	5	1	OPERA	978	n/a	1	0	0.5869140625	0.422607421875	upper	../fonts/amplitud.ttf
644647	WORD	wordpools/wasnorm_wordpool.txt	LTP122	ltpFR	6	5	1	CHISEL	305	n/a	0	0	0.5869140625	0.422607421875	upper	../fonts/amplitud.ttf
648845	WORD	wordpools/wasnorm_wordpool.txt	LTP122	ltpFR	6	5	1	ROBIN	1199	n/a	1	0	0.5869140625	0.422607421875	upper	../fonts/amplitud.ttf
652695	WORD	wordpools/wasnorm_wordpool.txt	LTP122	ltpFR	6	5	1	TAIL	1430	n/a	0	0	0.5869140625	0.422607421875	upper	../fonts/amplitud.ttf
656542	WORD	wordpools/wasnorm_wordpool.txt	LTP122	ltpFR	6	5	1	SEAL	1262	n/a	1	0	0.5869140625	0.422607421875	upper	../fonts/amplitud.ttf
660516	WORD	wordpools/wasnorm_wordpool.txt	LTP122	ltpFR	6	5	1	DOVE	491	n/a	1	0	0.5869140625	0.422607421875	upper	../fonts/amplitud.ttf
664556	WORD	wordpools/wasnorm_wordpool.txt	LTP122	ltpFR	6	5	1	TRENCH	1503	n/a	0	0	0.5869140625	0.422607421875	upper	../fonts/amplitud.ttf
668405	WORD	wordpools/wasnorm_wordpool.txt	LTP122	ltpFR	6	5	1	DUST	508	n/a	0	0	0.5869140625	0.422607421875	upper	../fonts/amplitud.ttf
672620	WORD	wordpools/wasnorm_wordpool.txt	LTP122	ltpFR	6	5	1	OTTER	986	n/a	1	0	0.5869140625	0.422607421875	upper	../fonts/amplitud.ttf
676819	WORD	wordpools/wasnorm_wordpool.txt	LTP122	ltpFR	6	5	1	COBRA	336	n/a	1	0	0.5869140625	0.422607421875	upper	../fonts/amplitud.ttf
680934	WORD	wordpools/wasnorm_wordpool.txt	LTP122	ltpFR	6	5	1	REGISTER	1180	n/a	0	0	0.5869140625	0.422607421875	upper	../fonts/amplitud.ttf
685066	WORD	wordpools/wasnorm_wordpool.txt	LTP122	ltpFR	6	5	1	PENNY	1045	n/a	0	0	0.5869140625	0.422607421875	upper	../fonts/amplitud.ttf
689256	WORD	wordpools/wasnorm_wordpool.txt	LTP122	ltpFR	6	5	1	THUMB	1462	n/a	0	0	0.5869140625	0.422607421875	upper	../fonts/amplitud.ttf
695246	REC_START	n/a	LTP122	ltpFR	6	5	n/a	n/a	n/a	n/a	n/a	n/a	n/a	n/a	n/a	n/a
696009	REC_WORD	wordpools/wasnorm_wordpool.txt	LTP122	ltpFR	6	5	1	TRENCH	1503	n/a	0	n/a	n/a	n/a	n/a	n/a
696967	REC_WORD	wordpools/wasnorm_wordpool.txt	LTP122	ltpFR	6	5	1	DUST	508	n/a	0	n/a	n/a	n/a	n/a	n/a
698124	REC_WORD	wordpools/wasnorm_wordpool.txt	LTP122	ltpFR	6	5	1	COBRA	336	n/a	1	n/a	n/a	n/a	n/a	n/a
699741	REC_WORD	wordpools/wasnorm_wordpool.txt	LTP122	ltpFR	6	5	1	THUMB	1462	n/a	0	n/a	n/a	n/a	n/a	n/a
701836	REC_WORD	wordpools/wasnorm_wordpool.txt	LTP122	ltpFR	6	5	1	OTTER	986	n/a	1	n/a	n/a	n/a	n/a	n/a
702444	REC_WORD	wordpools/wasnorm_wordpool.txt	LTP122	ltpFR	6	5	1	SEAL	1262	n/a	1	n/a	n/a	n/a	n/a	n/a
704360	REC_WORD	wordpools/wasnorm_wordpool.txt	LTP122	ltpFR	6	5	1	DOVE	491	n/a	1	n/a	n/a	n/a	n/a	n/a
707014	REC_WORD	wordpools/wasnorm_wordpool.txt	LTP122	ltpFR	6	5	1	OPERA	978	n/a	1	n/a	n/a	n/a	n/a	n/a
708780	REC_WORD	wordpools/wasnorm_wordpool.txt	LTP122	ltpFR	6	5	1	RAT	1169	n/a	1	n/a	n/a	n/a	n/a	n/a
709967	REC_WORD	wordpools/wasnorm_wordpool.txt	LTP122	ltpFR	6	5	1	ROBE	1198	n/a	0	n/a	n/a	n/a	n/a	n/a
710576	REC_WORD	wordpools/wasnorm_wordpool.txt	LTP122	ltpFR	6	5	1	ATTIRE	57	n/a	0	n/a	n/a	n/a	n/a	n/a
712781	REC_WORD	wordpools/wasnorm_wordpool.txt	LTP122	ltpFR	6	5	1	CHISEL	305	n/a	0	n/a	n/a	n/a	n/a	n/a
727542	REC_WORD	wordpools/wasnorm_wordpool.txt	LTP122	ltpFR	6	5	1	TAIL	1430	n/a	0	n/a	n/a	n/a	n/a	n/a
774500	WORD	wordpools/wasnorm_wordpool.txt	LTP122	ltpFR	6	6	0	SCIENTIST	1249	n/a	1	1	0.412841796875	0.57763671875	lower	../fonts/zerothre.ttf
778324	WORD	wordpools/wasnorm_wordpool.txt	LTP122	ltpFR	6	6	0	DOCTOR	478	n/a	1	1	0.412841796875	0.57763671875	lower	../fonts/zerothre.ttf
782289	WORD	wordpools/wasnorm_wordpool.txt	LTP122	ltpFR	6	6	0	BEAR	106	n/a	1	1	0.412841796875	0.57763671875	lower	../fonts/zerothre.ttf
786496	WORD	wordpools/wasnorm_wordpool.txt	LTP122	ltpFR	6	6	0	APARTMENT	30	n/a	1	1	0.412841796875	0.57763671875	lower	../fonts/zerothre.ttf
790586	WORD	wordpools/wasnorm_wordpool.txt	LTP122	ltpFR	6	6	0	WICK	1607	n/a	0	1	0.412841796875	0.57763671875	lower	../fonts/zerothre.ttf
794710	WORD	wordpools/wasnorm_wordpool.txt	LTP122	ltpFR	6	6	0	YARN	1631	n/a	0	1	0.412841796875	0.57763671875	lower	../fonts/zerothre.ttf
798875	WORD	wordpools/wasnorm_wordpool.txt	LTP122	ltpFR	6	6	0	PAW	1029	n/a	0	1	0.412841796875	0.57763671875	lower	../fonts/zerothre.ttf
802832	WORD	wordpools/wasnorm_wordpool.txt	LTP122	ltpFR	6	6	0	PORCH	1106	n/a	1	1	0.412841796875	0.57763671875	lower	../fonts/zerothre.ttf
806707	WORD	wordpools/wasnorm_wordpool.txt	LTP122	ltpFR	6	6	0	LANDSCAPE	799	n/a	1	1	0.412841796875	0.57763671875	lower	../fonts/zerothre.ttf
810854	WORD	wordpools/wasnorm_wordpool.txt	LTP122	ltpFR	6	6	0	NUT	965	n/a	0	1	0.412841796875	0.57763671875	lower	../fonts/zerothre.ttf
814745	WORD	wordpools/wasnorm_wordpool.txt	LTP122	ltpFR	6	6	0	PIMPLE	1071	n/a	0	1	0.412841796875	0.57763671875	lower	../fonts/zerothre.ttf
818676	WORD	wordpools/wasnorm_wordpool.txt	LTP122	ltpFR	6	6	0	ISLAND	745	n/a	1	1	0.412841796875	0.57763671875	lower	../fonts/zerothre.ttf
822642	WORD	wordpools/wasnorm_wordpool.txt	LTP122	ltpFR	6	6	0	FLASK	576	n/a	0	1	0.412841796875	0.57763671875	lower	../fonts/zerothre.ttf
826740	WORD	wordpools/wasnorm_wordpool.txt	LTP122	ltpFR	6	6	0	NEEDLE	941	n/a	0	1	0.412841796875	0.57763671875	lower	../fonts/zerothre.ttf
830672	WORD	wordpools/wasnorm_wordpool.txt	LTP122	ltpFR	6	6	0	MAILMAN	858	n/a	1	1	0.412841796875	0.57763671875	lower	../fonts/zerothre.ttf
834854	WORD	wordpools/wasnorm_wordpool.txt	LTP122	ltpFR	6	6	0	MAILBOX	857	n/a	1	1	0.412841796875	0.57763671875	lower	../fonts/zerothre.ttf
840603	REC_START	n/a	LTP122	ltpFR	6	6	n/a	n/a	n/a	n/a	n/a	n/a	n/a	n/a	n/a	n/a
842508	REC_WORD	wordpools/wasnorm_wordpool.txt	LTP122	ltpFR	6	6	0	DOCTOR	478	n/a	1	n/a	n/a	n/a	n/a	n/a
843128	REC_WORD	wordpools/wasnorm_wordpool.txt	LTP122	ltpFR	6	6	0	SCIENTIST	1249	n/a	1	n/a	n/a	n/a	n/a	n/a
844479	REC_WORD	wordpools/wasnorm_wordpool.txt	LTP122	ltpFR	6	6	0	BEAR	106	n/a	1	n/a	n/a	n/a	n/a	n/a
845277	REC_WORD	wordpools/wasnorm_wordpool.txt	LTP122	ltpFR	6	6	0	YARN	1631	n/a	0	n/a	n/a	n/a	n/a	n/a
846165	REC_WORD	wordpools/wasnorm_wordpool.txt	LTP122	ltpFR	6	6	0	APARTMENT	30	n/a	1	n/a	n/a	n/a	n/a	n/a
848625	REC_WORD	wordpools/wasnorm_wordpool.txt	LTP122	ltpFR	6	6	0	PORCH	1106	n/a	1	n/a	n/a	n/a	n/a	n/a
849398	REC_WORD	wordpools/wasnorm_wordpool.txt	LTP122	ltpFR	6	6	0	LANDSCAPE	799	n/a	1	n/a	n/a	n/a	n/a	n/a
850336	REC_WORD	wordpools/wasnorm_wordpool.txt	LTP122	ltpFR	6	6	0	ISLAND	745	n/a	1	n/a	n/a	n/a	n/a	n/a
851668	REC_WORD	wordpools/wasnorm_wordpool.txt	LTP122	ltpFR	6	6	0	NUT	965	n/a	0	n/a	n/a	n/a	n/a	n/a
856133	REC_WORD	wordpools/wasnorm_wordpool.txt	LTP122	ltpFR	6	6	0	NEEDLE	941	n/a	0	n/a	n/a	n/a	n/a	n/a
857060	REC_WORD	wordpools/wasnorm_wordpool.txt	LTP122	ltpFR	6	6	0	MAILMAN	858	n/a	1	n/a	n/a	n/a	n/a	n/a
857859	REC_WORD	wordpools/wasnorm_wordpool.txt	LTP122	ltpFR	6	6	0	MAILBOX	857	n/a	1	n/a	n/a	n/a	n/a	n/a
860233	REC_WORD	wordpools/wasnorm_wordpool.txt	LTP122	ltpFR	6	6	0	YARN	1631	n/a	0	n/a	n/a	n/a	n/a	n/a
860892	REC_WORD	wordpools/wasnorm_wordpool.txt	LTP122	ltpFR	6	6	0	PAW	1029	n/a	0	n/a	n/a	n/a	n/a	n/a
868649	REC_WORD	wordpools/wasnorm_wordpool.txt	LTP122	ltpFR	6	6	0	PIMPLE	1071	n/a	0	n/a	n/a	n/a	n/a	n/a
919332	WORD	wordpools/wasnorm_wordpool.txt	LTP122	ltpFR	6	7	1	POLITICIAN	1099	n/a	1	0	0.5869140625	0.422607421875	upper	../fonts/amplitud.ttf
923164	WORD	wordpools/wasnorm_wordpool.txt	LTP122	ltpFR	6	7	1	AGENT	10	n/a	1	0	0.5869140625	0.422607421875	upper	../fonts/amplitud.ttf
927096	WORD	wordpools/wasnorm_wordpool.txt	LTP122	ltpFR	6	7	1	SWAMP	1416	n/a	0	0	0.5869140625	0.422607421875	upper	../fonts/amplitud.ttf
931261	WORD	wordpools/wasnorm_wordpool.txt	LTP122	ltpFR	6	7	0	PEPPER	1047	n/a	0	1	0.412841796875	0.57763671875	lower	../fonts/zerothre.ttf
935418	WORD	wordpools/wasnorm_wordpool.txt	LTP122	ltpFR	6	7	0	CUSTOMER	430	n/a	1	1	0.412841796875	0.57763671875	lower	../fonts/zerothre.ttf
939459	WORD	wordpools/wasnorm_wordpool.txt	LTP122	ltpFR	6	7	0	BOUQUET	157	n/a	0	1	0.412841796875	0.57763671875	lower	../fonts/zerothre.ttf
943332	WORD	wordpools/wasnorm_wordpool.txt	LTP122	ltpFR	6	7	0	ORNAMENT	985	n/a	0	1	0.412841796875	0.57763671875	lower	../fonts/zerothre.ttf
947472	WORD	wordpools/wasnorm_wordpool.txt	LTP122	ltpFR	6	7	1	TWIG	1527	n/a	0	0	0.5869140625	0.422607421875	upper	../fonts/amplitud.ttf
951288	WORD	wordpools/wasnorm_wordpool.txt	LTP122	ltpFR	6	7	1	PRUNE	1134	n/a	1	0	0.5869140625	0.422607421875	upper	../fonts/amplitud.ttf
955120	WORD	wordpools/wasnorm_wordpool.txt	LTP122	ltpFR	6	7	1	BANANA	77	n/a	1	0	0.5869140625	0.422607421875	upper	../fonts/amplitud.ttf
959093	WORD	wordpools/wasnorm_wordpool.txt	LTP122	ltpFR	6	7	1	CHECK	284	n/a	0	0	0.5869140625	0.422607421875	upper	../fonts/amplitud.ttf
963117	WORD	wordpools/wasnorm_wordpool.txt	LTP122	ltpFR	6	7	1	LAKE	796	n/a	0	0	0.5869140625	0.422607421875	upper	../fonts/amplitud.ttf
967057	WORD	wordpools/wasnorm_wordpool.txt	LTP122	ltpFR	6	7	0	CINNAMON	310	n/a	0	1	0.412841796875	0.57763671875	lower	../fonts/zerothre.ttf
971014	WORD	wordpools/wasnorm_wordpool.txt	LTP122	ltpFR	6	7	0	MAJOR	859	n/a	1	1	0.412841796875	0.57763671875	lower	../fonts/zerothre.ttf
975146	WORD	wordpools/wasnorm_wordpool.txt	LTP122	ltpFR	6	7	0	PERISCOPE	1050	n/a	0	1	0.412841796875	0.57763671875	lower	../fonts/zerothre.ttf
979086	WORD	wordpools/wasnorm_wordpool.txt	LTP122	ltpFR	6	7	0	PRAIRIE	1118	n/a	1	1	0.412841796875	0.57763671875	lower	../fonts/zerothre.ttf
985068	REC_START	n/a	LTP122	ltpFR	6	7	n/a	n/a	n/a	n/a	n/a	n/a	n/a	n/a	n/a	n/a
985821	REC_WORD	wordpools/wasnorm_wordpool.txt	LTP122	ltpFR	6	7	1	POLITICIAN	1099	n/a	1	n/a	n/a	n/a	n/a	n/a
986799	REC_WORD	wordpools/wasnorm_wordpool.txt	LTP122	ltpFR	6	7	1	AGENT	10	n/a	1	n/a	n/a	n/a	n/a	n/a
987881	REC_WORD	wordpools/wasnorm_wordpool.txt	LTP122	ltpFR	6	7	1	SWAMP	1416	n/a	0	n/a	n/a	n/a	n/a	n/a
989064	REC_WORD	wordpools/wasnorm_wordpool.txt	LTP122	ltpFR	6	7	0	CUSTOMER	430	n/a	1	n/a	n/a	n/a	n/a	n/a
990799	REC_WORD	wordpools/wasnorm_wordpool.txt	LTP122	ltpFR	6	7	0	CINNAMON	310	n/a	0	n/a	n/a	n/a	n/a	n/a
992027	REC_WORD	wordpools/wasnorm_wordpool.txt	LTP122	ltpFR	6	7	0	ORNAMENT	985	n/a	0	n/a	n/a	n/a	n/a	n/a
993015	REC_WORD	wordpools/wasnorm_wordpool.txt	LTP122	ltpFR	6	7	0	PEPPER	1047	n/a	0	n/a	n/a	n/a	n/a	n/a
997884	REC_WORD	wordpools/wasnorm_wordpool.txt	LTP122	ltpFR	6	7	1	LAKE	796	n/a	0	n/a	n/a	n/a	n/a	n/a
999001	REC_WORD	wordpools/wasnorm_wordpool.txt	LTP122	ltpFR	6	7	0	PRAIRIE	1118	n/a	1	n/a	n/a	n/a	n/a	n/a
999879	REC_WORD	wordpools/wasnorm_wordpool.txt	LTP122	ltpFR	6	7	0	PERISCOPE	1050	n/a	0	n/a	n/a	n/a	n/a	n/a
1000827	REC_WORD	wordpools/wasnorm_wordpool.txt	LTP122	ltpFR	6	7	0	MAJOR	859	n/a	1	n/a	n/a	n/a	n/a	n/a
1003122	REC_WORD	wordpools/wasnorm_wordpool.txt	LTP122	ltpFR	6	7	1	TWIG	1527	n/a	0	n/a	n/a	n/a	n/a	n/a
1004219	REC_WORD	wordpools/wasnorm_wordpool.txt	LTP122	ltpFR	6	7	1	BANANA	77	n/a	1	n/a	n/a	n/a	n/a	n/a
1063773	WORD	wordpools/wasnorm_wordpool.txt	LTP122	ltpFR	6	8	-1	COFFIN	342	n/a	-1	1	1.0	1.0	upper	../fonts/Verdana.ttf
1067605	WORD	wordpools/wasnorm_wordpool.txt	LTP122	ltpFR	6	8	-1	HAWK	692	n/a	-1	1	1.0	1.0	upper	../fonts/Verdana.ttf
1071787	WORD	wordpools/wasnorm_wordpool.txt	LTP122	ltpFR	6	8	-1	PEACH	1031	n/a	-1	1	1.0	1.0	upper	../fonts/Verdana.ttf
1075993	WORD	wordpools/wasnorm_wordpool.txt	LTP122	ltpFR	6	8	-1	CHESS	294	n/a	-1	1	1.0	1.0	upper	../fonts/Verdana.ttf
1080209	WORD	wordpools/wasnorm_wordpool.txt	LTP122	ltpFR	6	8	-1	PORT	1110	n/a	-1	1	1.0	1.0	upper	../fonts/Verdana.ttf
1084224	WORD	wordpools/wasnorm_wordpool.txt	LTP122	ltpFR	6	8	-1	PIER	1063	n/a	-1	1	1.0	1.0	upper	../fonts/Verdana.ttf
1088356	WORD	wordpools/wasnorm_wordpool.txt	LTP122	ltpFR	6	8	-1	PADDING	999	n/a	-1	1	1.0	1.0	upper	../fonts/Verdana.ttf
1092313	WORD	wordpools/wasnorm_wordpool.txt	LTP122	ltpFR	6	8	-1	CLAW	319	n/a	-1	1	1.0	1.0	upper	../fonts/Verdana.ttf
1096386	WORD	wordpools/wasnorm_wordpool.txt	LTP122	ltpFR	6	8	-1	PEAR	1033	n/a	-1	1	1.0	1.0	upper	../fonts/Verdana.ttf
1100227	WORD	wordpools/wasnorm_wordpool.txt	LTP122	ltpFR	6	8	-1	PENGUIN	1044	n/a	-1	1	1.0	1.0	upper	../fonts/Verdana.ttf
1104234	WORD	wordpools/wasnorm_wordpool.txt	LTP122	ltpFR	6	8	-1	CLOTHES	327	n/a	-1	1	1.0	1.0	upper	../fonts/Verdana.ttf
1108082	WORD	wordpools/wasnorm_wordpool.txt	LTP122	ltpFR	6	8	-1	HANGER	687	n/a	-1	1	1.0	1.0	upper	../fonts/Verdana.ttf
1112072	WORD	wordpools/wasnorm_wordpool.txt	LTP122	ltpFR	6	8	-1	EGYPT	519	n/a	-1	1	1.0	1.0	upper	../fonts/Verdana.ttf
1115963	WORD	wordpools/wasnorm_wordpool.txt	LTP122	ltpFR	6	8	-1	DUNE	506	n/a	-1	1	1.0	1.0	upper	../fonts/Verdana.ttf
1119953	WORD	wordpools/wasnorm_wordpool.txt	LTP122	ltpFR	6	8	-1	TOMB	1477	n/a	-1	1	1.0	1.0	upper	../fonts/Verdana.ttf
1124076	WORD	wordpools/wasnorm_wordpool.txt	LTP122	ltpFR	6	8	-1	TURNIP	1521	n/a	-1	1	1.0	1.0	upper	../fonts/Verdana.ttf
1129867	REC_START	n/a	LTP122	ltpFR	6	8	n/a	n/a	n/a	n/a	n/a	n/a	n/a	n/a	n/a	n/a
1130954	REC_WORD	wordpools/wasnorm_wordpool.txt	LTP122	ltpFR	6	8	-1	COFFIN	342	n/a	-1	n/a	n/a	n/a	n/a	n/a
1131738	REC_WORD	wordpools/wasnorm_wordpool.txt	LTP122	ltpFR	6	8	-1	HAWK	692	n/a	-1	n/a	n/a	n/a	n/a	n/a
1132436	REC_WORD	wordpools/wasnorm_wordpool.txt	LTP122	ltpFR	6	8	-1	CLAW	319	n/a	-1	n/a	n/a	n/a	n/a	n/a
1133274	REC_WORD	wordpools/wasnorm_wordpool.txt	LTP122	ltpFR	6	8	-1	PEACH	1031	n/a	-1	n/a	n/a	n/a	n/a	n/a
1134342	REC_WORD	wordpools/wasnorm_wordpool.txt	LTP122	ltpFR	6	8	-1	CHESS	294	n/a	-1	n/a	n/a	n/a	n/a	n/a
1135818	REC_WORD	wordpools/wasnorm_wordpool.txt	LTP122	ltpFR	6	8	-1	PADDING	999	n/a	-1	n/a	n/a	n/a	n/a	n/a
1136517	REC_WORD	wordpools/wasnorm_wordpool.txt	LTP122	ltpFR	6	8	-1	PEAR	1033	n/a	-1	n/a	n/a	n/a	n/a	n/a
1137295	REC_WORD	wordpools/wasnorm_wordpool.txt	LTP122	ltpFR	6	8	-1	TURNIP	1521	n/a	-1	n/a	n/a	n/a	n/a	n/a
1140587	REC_WORD	wordpools/wasnorm_wordpool.txt	LTP122	ltpFR	6	8	-1	EGYPT	519	n/a	-1	n/a	n/a	n/a	n/a	n/a
1143491	REC_WORD	wordpools/wasnorm_wordpool.txt	LTP122	ltpFR	6	8	-1	TOMB	1477	n/a	-1	n/a	n/a	n/a	n/a	n/a
1147252	REC_WORD	wordpools/wasnorm_wordpool.txt	LTP122	ltpFR	6	8	n/a	DOCK	477	n/a	n/a	n/a	n/a	n/a	n/a	n/a
1148609	REC_WORD	wordpools/wasnorm_wordpool.txt	LTP122	ltpFR	6	8	-1	DUNE	506	n/a	-1	n/a	n/a	n/a	n/a	n/a
1153139	REC_WORD	wordpools/wasnorm_wordpool.txt	LTP122	ltpFR	6	8	-1	PIER	1063	n/a	-1	n/a	n/a	n/a	n/a	n/a
1154675	REC_WORD	wordpools/wasnorm_wordpool.txt	LTP122	ltpFR	6	8	-1	CLOTHES	327	n/a	-1	n/a	n/a	n/a	n/a	n/a
1157579	REC_WORD	wordpools/wasnorm_wordpool.txt	LTP122	ltpFR	6	8	-1	PORT	1110	n/a	-1	n/a	n/a	n/a	n/a	n/a
1210279	WORD	wordpools/wasnorm_wordpool.txt	LTP122	ltpFR	6	9	-1	TRAITOR	1495	n/a	-1	1	1.0	1.0	upper	../fonts/Verdana.ttf
1214378	WORD	wordpools/wasnorm_wordpool.txt	LTP122	ltpFR	6	9	-1	METEOR	889	n/a	-1	1	1.0	1.0	upper	../fonts/Verdana.ttf
1218210	WORD	wordpools/wasnorm_wordpool.txt	LTP122	ltpFR	6	9	-1	SUBMARINE	1398	n/a	-1	1	1.0	1.0	upper	../fonts/Verdana.ttf
1222417	WORD	wordpools/wasnorm_wordpool.txt	LTP122	ltpFR	6	9	-1	CATCHER	258	n/a	-1	1	1.0	1.0	upper	../fonts/Verdana.ttf
1226365	WORD	wordpools/wasnorm_wordpool.txt	LTP122	ltpFR	6	9	-1	SOFTBALL	1343	n/a	-1	1	1.0	1.0	upper	../fonts/Verdana.ttf
1230505	WORD	wordpools/wasnorm_wordpool.txt	LTP122	ltpFR	6	9	-1	STONE	1385	n/a	-1	1	1.0	1.0	upper	../fonts/Verdana.ttf
1234687	WORD	wordpools/wasnorm_wordpool.txt	LTP122	ltpFR	6	9	-1	DIAGRAM	456	n/a	-1	1	1.0	1.0	upper	../fonts/Verdana.ttf
1238752	WORD	wordpools/wasnorm_wordpool.txt	LTP122	ltpFR	6	9	-1	SIRLOIN	1311	n/a	-1	1	1.0	1.0	upper	../fonts/Verdana.ttf
1242694	WORD	wordpools/wasnorm_wordpool.txt	LTP122	ltpFR	6	9	-1	BASEBALL	93	n/a	-1	1	1.0	1.0	upper	../fonts/Verdana.ttf
1246874	WORD	wordpools/wasnorm_wordpool.txt	LTP122	ltpFR	6	9	-1	ARENA	37	n/a	-1	1	1.0	1.0	upper	../fonts/Verdana.ttf
1250823	WORD	wordpools/wasnorm_wordpool.txt	LTP122	ltpFR	6	9	-1	HAMBURGER	679	n/a	-1	1	1.0	1.0	upper	../fonts/Verdana.ttf
1254730	WORD	wordpools/wasnorm_wordpool.txt	LTP122	ltpFR	6	9	-1	CONVICT	371	n/a	-1	1	1.0	1.0	upper	../fonts/Verdana.ttf
1258895	WORD	wordpools/wasnorm_wordpool.txt	LTP122	ltpFR	6	9	-1	RAZOR	1171	n/a	-1	1	1.0	1.0	upper	../fonts/Verdana.ttf
1263052	WORD	wordpools/wasnorm_wordpool.txt	LTP122	ltpFR	6	9	-1	OINTMENT	974	n/a	-1	1	1.0	1.0	upper	../fonts/Verdana.ttf
1267234	WORD	wordpools/wasnorm_wordpool.txt	LTP122	ltpFR	6	9	-1	SAUSAGE	1238	n/a	-1	1	1.0	1.0	upper	../fonts/Verdana.ttf
1271258	WORD	wordpools/wasnorm_wordpool.txt	LTP122	ltpFR	6	9	-1	TREAD	1499	n/a	-1	1	1.0	1.0	upper	../fonts/Verdana.ttf
1277173	REC_START	n/a	LTP122	ltpFR	6	9	n/a	n/a	n/a	n/a	n/a	n/a	n/a	n/a	n/a	n/a
1278186	REC_WORD	wordpools/wasnorm_wordpool.txt	LTP122	ltpFR	6	9	-1	SUBMARINE	1398	n/a	-1	n/a	n/a	n/a	n/a	n/a
1279233	REC_WORD	wordpools/wasnorm_wordpool.txt	LTP122	ltpFR	6	9	-1	TRAITOR	1495	n/a	-1	n/a	n/a	n/a	n/a	n/a
1280161	REC_WORD	wordpools/wasnorm_wordpool.txt	LTP122	ltpFR	6	9	-1	CONVICT	371	n/a	-1	n/a	n/a	n/a	n/a	n/a
1281658	REC_WORD	wordpools/wasnorm_wordpool.txt	LTP122	ltpFR	6	9	-1	OINTMENT	974	n/a	-1	n/a	n/a	n/a	n/a	n/a
1282356	REC_WORD	wordpools/wasnorm_wordpool.txt	LTP122	ltpFR	6	9	-1	RAZOR	1171	n/a	-1	n/a	n/a	n/a	n/a	n/a
1283683	REC_WORD	wordpools/wasnorm_wordpool.txt	LTP122	ltpFR	6	9	-1	METEOR	889	n/a	-1	n/a	n/a	n/a	n/a	n/a
1284700	REC_WORD	wordpools/wasnorm_wordpool.txt	LTP122	ltpFR	6	9	-1	SOFTBALL	1343	n/a	-1	n/a	n/a	n/a	n/a	n/a
1285728	REC_WORD	wordpools/wasnorm_wordpool.txt	LTP122	ltpFR	6	9	-1	CATCHER	258	n/a	-1	n/a	n/a	n/a	n/a	n/a
1286726	REC_WORD	wordpools/wasnorm_wordpool.txt	LTP122	ltpFR	6	9	n/a	ROCK	1201	n/a	n/a	n/a	n/a	n/a	n/a	n/a
1287953	REC_WORD	wordpools/wasnorm_wordpool.txt	LTP122	ltpFR	6	9	-1	BASEBALL	93	n/a	-1	n/a	n/a	n/a	n/a	n/a
1289191	REC_WORD	wordpools/wasnorm_wordpool.txt	LTP122	ltpFR	6	9	-1	DIAGRAM	456	n/a	-1	n/a	n/a	n/a	n/a	n/a
1289977	REC_WORD	wordpools/wasnorm_wordpool.txt	LTP122	ltpFR	6	9	-1	SIRLOIN	1311	n/a	-1	n/a	n/a	n/a	n/a	n/a
1290818	REC_WORD	wordpools/wasnorm_wordpool.txt	LTP122	ltpFR	6	9	-1	SAUSAGE	1238	n/a	-1	n/a	n/a	n/a	n/a	n/a
1292174	REC_WORD	wordpools/wasnorm_wordpool.txt	LTP122	ltpFR	6	9	-1	HAMBURGER	679	n/a	-1	n/a	n/a	n/a	n/a	n/a
1355311	WORD	wordpools/wasnorm_wordpool.txt	LTP122	ltpFR	6	10	1	STETHOSCOPE	1379	n/a	2	0	0.5869140625	0.422607421875	upper	../fonts/amplitud.ttf
1356685	KEY_MSG	n/a	LTP122	ltpFR	6	10	n/a	n/a	n/a	n/a	n/a	n/a	n/a	n/a	n/a	n/a
1359168	WORD	wordpools/wasnorm_wordpool.txt	LTP122	ltpFR	6	10	1	SAGE	1222	n/a	0	0	0.5869140625	0.422607421875	upper	../fonts/amplitud.ttf
1363350	WORD	wordpools/wasnorm_wordpool.txt	LTP122	ltpFR	6	10	1	FIREPLACE	570	n/a	0	0	0.5869140625	0.422607421875	upper	../fonts/amplitud.ttf
1367507	WORD	wordpools/wasnorm_wordpool.txt	LTP122	ltpFR	6	10	1	MUSHROOM	934	n/a	1	0	0.5869140625	0.422607421875	upper	../fonts/amplitud.ttf
1371530	WORD	wordpools/wasnorm_wordpool.txt	LTP122	ltpFR	6	10	1	LIZARD	834	n/a	1	0	0.5869140625	0.422607421875	upper	../fonts/amplitud.ttf
1375620	WORD	wordpools/wasnorm_wordpool.txt	LTP122	ltpFR	6	10	1	GARLIC	624	n/a	1	0	0.5869140625	0.422607421875	upper	../fonts/amplitud.ttf
1379577	WORD	wordpools/wasnorm_wordpool.txt	LTP122	ltpFR	6	10	1	CAN	225	n/a	0	0	0.5869140625	0.422607421875	upper	../fonts/amplitud.ttf
1383534	WORD	wordpools/wasnorm_wordpool.txt	LTP122	ltpFR	6	10	1	TICKET	1464	n/a	0	0	0.5869140625	0.422607421875	upper	../fonts/amplitud.ttf
1387500	WORD	wordpools/wasnorm_wordpool.txt	LTP122	ltpFR	6	10	1	ENVELOPE	537	n/a	0	0	0.5869140625	0.422607421875	upper	../fonts/amplitud.ttf
1391531	WORD	wordpools/wasnorm_wordpool.txt	LTP122	ltpFR	6	10	1	HERD	705	n/a	1	0	0.5869140625	0.422607421875	upper	../fonts/amplitud.ttf
1395455	WORD	wordpools/wasnorm_wordpool.txt	LTP122	ltpFR	6	10	1	VEAL	1551	n/a	0	0	0.5869140625	0.422607421875	upper	../fonts/amplitud.ttf
1399645	WORD	wordpools/wasnorm_wordpool.txt	LTP122	ltpFR	6	10	1	FIREMAN	569	n/a	1	0	0.5869140625	0.422607421875	upper	../fonts/amplitud.ttf
1403852	WORD	wordpools/wasnorm_wordpool.txt	LTP122	ltpFR	6	10	1	COLOGNE	347	n/a	1	0	0.5869140625	0.422607421875	upper	../fonts/amplitud.ttf
1407801	WORD	wordpools/wasnorm_wordpool.txt	LTP122	ltpFR	6	10	1	WITCH	1617	n/a	1	0	0.5869140625	0.422607421875	upper	../fonts/amplitud.ttf
1411924	WORD	wordpools/wasnorm_wordpool.txt	LTP122	ltpFR	6	10	1	STAFF	1365	n/a	0	0	0.5869140625	0.422607421875	upper	../fonts/amplitud.ttf
1415998	WORD	wordpools/wasnorm_wordpool.txt	LTP122	ltpFR	6	10	1	TEACHER	1440	n/a	1	0	0.5869140625	0.422607421875	upper	../fonts/amplitud.ttf
1422013	REC_START	n/a	LTP122	ltpFR	6	10	n/a	n/a	n/a	n/a	n/a	n/a	n/a	n/a	n/a	n/a
1422666	REC_WORD	wordpools/wasnorm_wordpool.txt	LTP122	ltpFR	6	10	1	FIREPLACE	570	n/a	0	n/a	n/a	n/a	n/a	n/a
1423497	REC_WORD	wordpools/wasnorm_wordpool.txt	LTP122	ltpFR	6	10	1	MUSHROOM	934	n/a	1	n/a	n/a	n/a	n/a	n/a
1424273	REC_WORD	wordpools/wasnorm_wordpool.txt	LTP122	ltpFR	6	10	1	LIZARD	834	n/a	1	n/a	n/a	n/a	n/a	n/a
1425011	REC_WORD	wordpools/wasnorm_wordpool.txt	LTP122	ltpFR	6	10	1	VEAL	1551	n/a	0	n/a	n/a	n/a	n/a	n/a
1426378	REC_WORD	wordpools/wasnorm_wordpool.txt	LTP122	ltpFR	6	10	1	GARLIC	624	n/a	1	n/a	n/a	n/a	n/a	n/a
1426946	REC_WORD	wordpools/wasnorm_wordpool.txt	LTP122	ltpFR	6	10	1	SAGE	1222	n/a	0	n/a	n/a	n/a	n/a	n/a
1427699	REC_WORD	wordpools/wasnorm_wordpool.txt	LTP122	ltpFR	6	10	1	STETHOSCOPE	1379	n/a	2	n/a	n/a	n/a	n/a	n/a
1429860	REC_WORD	wordpools/wasnorm_wordpool.txt	LTP122	ltpFR	6	10	1	HERD	705	n/a	1	n/a	n/a	n/a	n/a	n/a
1431007	REC_WORD	wordpools/wasnorm_wordpool.txt	LTP122	ltpFR	6	10	1	TICKET	1464	n/a	0	n/a	n/a	n/a	n/a	n/a
1431536	REC_WORD	wordpools/wasnorm_wordpool.txt	LTP122	ltpFR	6	10	1	ENVELOPE	537	n/a	0	n/a	n/a	n/a	n/a	n/a
1433442	REC_WORD	wordpools/wasnorm_wordpool.txt	LTP122	ltpFR	6	10	1	WITCH	1617	n/a	1	n/a	n/a	n/a	n/a	n/a
1434040	REC_WORD	wordpools/wasnorm_wordpool.txt	LTP122	ltpFR	6	10	1	FIREMAN	569	n/a	1	n/a	n/a	n/a	n/a	n/a
1435737	REC_WORD	wordpools/wasnorm_wordpool.txt	LTP122	ltpFR	6	10	1	TEACHER	1440	n/a	1	n/a	n/a	n/a	n/a	n/a
1437013	REC_WORD	wordpools/wasnorm_wordpool.txt	LTP122	ltpFR	6	10	1	STAFF	1365	n/a	0	n/a	n/a	n/a	n/a	n/a
1500276	WORD	wordpools/wasnorm_wordpool.txt	LTP122	ltpFR	6	11	-1	BAKER	71	n/a	-1	1	1.0	1.0	upper	../fonts/Verdana.ttf
1504133	WORD	wordpools/wasnorm_wordpool.txt	LTP122	ltpFR	6	11	-1	APPLE	33	n/a	-1	1	1.0	1.0	upper	../fonts/Verdana.ttf
1508323	WORD	wordpools/wasnorm_wordpool.txt	LTP122	ltpFR	6	11	-1	BLUEBERRY	140	n/a	-1	1	1.0	1.0	upper	../fonts/Verdana.ttf
1512139	WORD	wordpools/wasnorm_wordpool.txt	LTP122	ltpFR	6	11	-1	DUSTPAN	509	n/a	-1	1	1.0	1.0	upper	../fonts/Verdana.ttf
1516012	WORD	wordpools/wasnorm_wordpool.txt	LTP122	ltpFR	6	11	-1	CHAIR	274	n/a	-1	1	1.0	1.0	upper	../fonts/Verdana.ttf
1520202	WORD	wordpools/wasnorm_wordpool.txt	LTP122	ltpFR	6	11	-1	VIOLIN	1571	n/a	-1	1	1.0	1.0	upper	../fonts/Verdana.ttf
1524384	WORD	wordpools/wasnorm_wordpool.txt	LTP122	ltpFR	6	11	-1	TOMBSTONE	1478	n/a	-1	1	1.0	1.0	upper	../fonts/Verdana.ttf
1528474	WORD	wordpools/wasnorm_wordpool.txt	LTP122	ltpFR	6	11	-1	APRON	35	n/a	-1	1	1.0	1.0	upper	../fonts/Verdana.ttf
1532306	WORD	wordpools/wasnorm_wordpool.txt	LTP122	ltpFR	6	11	-1	PILOT	1070	n/a	-1	1	1.0	1.0	upper	../fonts/Verdana.ttf
1536138	WORD	wordpools/wasnorm_wordpool.txt	LTP122	ltpFR	6	11	-1	TEA	1439	n/a	-1	1	1.0	1.0	upper	../fonts/Verdana.ttf
1540154	WORD	wordpools/wasnorm_wordpool.txt	LTP122	ltpFR	6	11	-1	BOWL	158	n/a	-1	1	1.0	1.0	upper	../fonts/Verdana.ttf
1543977	WORD	wordpools/wasnorm_wordpool.txt	LTP122	ltpFR	6	11	-1	FURNITURE	616	n/a	-1	1	1.0	1.0	upper	../fonts/Verdana.ttf
1548034	WORD	wordpools/wasnorm_wordpool.txt	LTP122	ltpFR	6	11	-1	CHIP	303	n/a	-1	1	1.0	1.0	upper	../fonts/Verdana.ttf
1552033	WORD	wordpools/wasnorm_wordpool.txt	LTP122	ltpFR	6	11	-1	FUNERAL	613	n/a	-1	1	1.0	1.0	upper	../fonts/Verdana.ttf
1555981	WORD	wordpools/wasnorm_wordpool.txt	LTP122	ltpFR	6	11	-1	WAIST	1579	n/a	-1	1	1.0	1.0	upper	../fonts/Verdana.ttf
1560030	WORD	wordpools/wasnorm_wordpool.txt	LTP122	ltpFR	6	11	-1	DETERGENT	455	n/a	-1	1	1.0	1.0	upper	../fonts/Verdana.ttf
1565762	REC_START	n/a	LTP122	ltpFR	6	11	n/a	n/a	n/a	n/a	n/a	n/a	n/a	n/a	n/a	n/a
1566545	REC_WORD	wordpools/wasnorm_wordpool.txt	LTP122	ltpFR	6	11	-1	BAKER	71	n/a	-1	n/a	n/a	n/a	n/a	n/a
1567263	REC_WORD	wordpools/wasnorm_wordpool.txt	LTP122	ltpFR	6	11	-1	APPLE	33	n/a	-1	n/a	n/a	n/a	n/a	n/a
1568081	REC_WORD	wordpools/wasnorm_wordpool.txt	LTP122	ltpFR	6	11	-1	BLUEBERRY	140	n/a	-1	n/a	n/a	n/a	n/a	n/a
1568860	REC_WORD	wordpools/wasnorm_wordpool.txt	LTP122	ltpFR	6	11	-1	APRON	35	n/a	-1	n/a	n/a	n/a	n/a	n/a
1570646	REC_WORD	wordpools/wasnorm_wordpool.txt	LTP122	ltpFR	6	11	-1	VIOLIN	1571	n/a	-1	n/a	n/a	n/a	n/a	n/a
1571594	REC_WORD	wordpools/wasnorm_wordpool.txt	LTP122	ltpFR	6	11	-1	CHAIR	274	n/a	-1	n/a	n/a	n/a	n/a	n/a
1572242	REC_WORD	wordpools/wasnorm_wordpool.txt	LTP122	ltpFR	6	11	-1	FURNITURE	616	n/a	-1	n/a	n/a	n/a	n/a	n/a
1573454	REC_WORD	wordpools/wasnorm_wordpool.txt	LTP122	ltpFR	6	11	-1	PILOT	1070	n/a	-1	n/a	n/a	n/a	n/a	n/a
1574297	REC_WORD	wordpools/wasnorm_wordpool.txt	LTP122	ltpFR	6	11	-1	DUSTPAN	509	n/a	-1	n/a	n/a	n/a	n/a	n/a
1575155	REC_WORD	wordpools/wasnorm_wordpool.txt	LTP122	ltpFR	6	11	-1	BOWL	158	n/a	-1	n/a	n/a	n/a	n/a	n/a
1577640	REC_WORD	wordpools/wasnorm_wordpool.txt	LTP122	ltpFR	6	11	-1	DETERGENT	455	n/a	-1	n/a	n/a	n/a	n/a	n/a
1579695	REC_WORD	wordpools/wasnorm_wordpool.txt	LTP122	ltpFR	6	11	-1	TEA	1439	n/a	-1	n/a	n/a	n/a	n/a	n/a
1581311	REC_WORD	wordpools/wasnorm_wordpool.txt	LTP122	ltpFR	6	11	-1	TOMBSTONE	1478	n/a	-1	n/a	n/a	n/a	n/a	n/a
1582010	REC_WORD	wordpools/wasnorm_wordpool.txt	LTP122	ltpFR	6	11	-1	CHIP	303	n/a	-1	n/a	n/a	n/a	n/a	n/a
1596886	REC_WORD	wordpools/wasnorm_wordpool.txt	LTP122	ltpFR	6	11	-1	WAIST	1579	n/a	-1	n/a	n/a	n/a	n/a	n/a
1660069	WORD	wordpools/wasnorm_wordpool.txt	LTP122	ltpFR	6	12	0	VESSEL	1558	n/a	1	1	0.412841796875	0.57763671875	lower	../fonts/zerothre.ttf
1664126	WORD	wordpools/wasnorm_wordpool.txt	LTP122	ltpFR	6	12	0	SINK	1309	n/a	1	1	0.412841796875	0.57763671875	lower	../fonts/zerothre.ttf
1668017	WORD	wordpools/wasnorm_wordpool.txt	LTP122	ltpFR	6	12	0	KETTLE	772	n/a	0	1	0.412841796875	0.57763671875	lower	../fonts/zerothre.ttf
1671974	WORD	wordpools/wasnorm_wordpool.txt	LTP122	ltpFR	6	12	0	PUPPY	1144	n/a	1	1	0.412841796875	0.57763671875	lower	../fonts/zerothre.ttf
1676064	WORD	wordpools/wasnorm_wordpool.txt	LTP122	ltpFR	6	12	0	NIECE	952	n/a	1	1	0.412841796875	0.57763671875	lower	../fonts/zerothre.ttf
1680196	WORD	wordpools/wasnorm_wordpool.txt	LTP122	ltpFR	6	12	0	PALM	1007	n/a	1	1	0.412841796875	0.57763671875	lower	../fonts/zerothre.ttf
1684253	WORD	wordpools/wasnorm_wordpool.txt	LTP122	ltpFR	6	12	0	CABIN	211	n/a	1	1	0.412841796875	0.57763671875	lower	../fonts/zerothre.ttf
1688101	WORD	wordpools/wasnorm_wordpool.txt	LTP122	ltpFR	6	12	0	ROOM	1206	n/a	1	1	0.412841796875	0.57763671875	lower	../fonts/zerothre.ttf
1692250	WORD	wordpools/wasnorm_wordpool.txt	LTP122	ltpFR	6	12	0	SUPERMARKET	1409	n/a	1	1	0.412841796875	0.57763671875	lower	../fonts/zerothre.ttf
1696165	WORD	wordpools/wasnorm_wordpool.txt	LTP122	ltpFR	6	12	0	WHISKERS	1605	n/a	0	1	0.412841796875	0.57763671875	lower	../fonts/zerothre.ttf
1700039	WORD	wordpools/wasnorm_wordpool.txt	LTP122	ltpFR	6	12	0	EDITORIAL	517	n/a	0	1	0.412841796875	0.57763671875	lower	../fonts/zerothre.ttf
1704245	WORD	wordpools/wasnorm_wordpool.txt	LTP122	ltpFR	6	12	0	MAGAZINE	853	n/a	0	1	0.412841796875	0.57763671875	lower	../fonts/zerothre.ttf
1708344	WORD	wordpools/wasnorm_wordpool.txt	LTP122	ltpFR	6	12	0	BEAST	108	n/a	1	1	0.412841796875	0.57763671875	lower	../fonts/zerothre.ttf
1712409	WORD	wordpools/wasnorm_wordpool.txt	LTP122	ltpFR	6	12	0	COOKBOOK	373	n/a	0	1	0.412841796875	0.57763671875	lower	../fonts/zerothre.ttf
1716250	WORD	wordpools/wasnorm_wordpool.txt	LTP122	ltpFR	6	12	0	TWEEZERS	1526	n/a	0	1	0.412841796875	0.57763671875	lower	../fonts/zerothre.ttf
1720281	WORD	wordpools/wasnorm_wordpool.txt	LTP122	ltpFR	6	12	0	POOL	1103	n/a	1	1	0.412841796875	0.57763671875	lower	../fonts/zerothre.ttf
1725863	REC_START	n/a	LTP122	ltpFR	6	12	n/a	n/a	n/a	n/a	n/a	n/a	n/a	n/a	n/a	n/a
1727165	REC_WORD	wordpools/wasnorm_wordpool.txt	LTP122	ltpFR	6	12	0	VESSEL	1558	n/a	1	n/a	n/a	n/a	n/a	n/a
1727783	REC_WORD	wordpools/wasnorm_wordpool.txt	LTP122	ltpFR	6	12	0	SINK	1309	n/a	1	n/a	n/a	n/a	n/a	n/a
1729569	REC_WORD	wordpools/wasnorm_wordpool.txt	LTP122	ltpFR	6	12	0	KETTLE	772	n/a	0	n/a	n/a	n/a	n/a	n/a
1732662	REC_WORD	wordpools/wasnorm_wordpool.txt	LTP122	ltpFR	6	12	0	NIECE	952	n/a	1	n/a	n/a	n/a	n/a	n/a
1733690	REC_WORD	wordpools/wasnorm_wordpool.txt	LTP122	ltpFR	6	12	0	PUPPY	1144	n/a	1	n/a	n/a	n/a	n/a	n/a
1735147	REC_WORD	wordpools/wasnorm_wordpool.txt	LTP122	ltpFR	6	12	0	SUPERMARKET	1409	n/a	1	n/a	n/a	n/a	n/a	n/a
1738010	REC_WORD	wordpools/wasnorm_wordpool.txt	LTP122	ltpFR	6	12	0	PALM	1007	n/a	1	n/a	n/a	n/a	n/a	n/a
1739457	REC_WORD	wordpools/wasnorm_wordpool.txt	LTP122	ltpFR	6	12	0	ROOM	1206	n/a	1	n/a	n/a	n/a	n/a	n/a
1740085	REC_WORD	wordpools/wasnorm_wordpool.txt	LTP122	ltpFR	6	12	0	CABIN	211	n/a	1	n/a	n/a	n/a	n/a	n/a
1742161	REC_WORD	wordpools/wasnorm_wordpool.txt	LTP122	ltpFR	6	12	0	EDITORIAL	517	n/a	0	n/a	n/a	n/a	n/a	n/a
1743119	REC_WORD	wordpools/wasnorm_wordpool.txt	LTP122	ltpFR	6	12	0	MAGAZINE	853	n/a	0	n/a	n/a	n/a	n/a	n/a
1746237	REC_WORD	wordpools/wasnorm_wordpool.txt	LTP122	ltpFR	6	12	0	COOKBOOK	373	n/a	0	n/a	n/a	n/a	n/a	n/a
1778378	REC_WORD	wordpools/wasnorm_wordpool.txt	LTP122	ltpFR	6	12	0	WHISKERS	1605	n/a	0	n/a	n/a	n/a	n/a	n/a
1801444	REST_REWET	n/a	LTP122	ltpFR	6	12	n/a	n/a	n/a	n/a	n/a	n/a	n/a	n/a	n/a	n/a
2397866	WORD	wordpools/wasnorm_wordpool.txt	LTP122	ltpFR	6	13	1	RANCH	1166	n/a	0	0	0.5869140625	0.422607421875	upper	../fonts/amplitud.ttf
2401889	WORD	wordpools/wasnorm_wordpool.txt	LTP122	ltpFR	6	13	1	BULL	193	n/a	1	0	0.5869140625	0.422607421875	upper	../fonts/amplitud.ttf
2405771	WORD	wordpools/wasnorm_wordpool.txt	LTP122	ltpFR	6	13	0	SHINGLE	1285	n/a	0	1	0.412841796875	0.57763671875	lower	../fonts/zerothre.ttf
2409870	WORD	wordpools/wasnorm_wordpool.txt	LTP122	ltpFR	6	13	0	NOOSE	956	n/a	0	1	0.412841796875	0.57763671875	lower	../fonts/zerothre.ttf
2413810	WORD	wordpools/wasnorm_wordpool.txt	LTP122	ltpFR	6	13	0	ALMANAC	17	n/a	0	1	0.412841796875	0.57763671875	lower	../fonts/zerothre.ttf
2417784	WORD	wordpools/wasnorm_wordpool.txt	LTP122	ltpFR	6	13	0	RAIL	1161	n/a	0	1	0.412841796875	0.57763671875	lower	../fonts/zerothre.ttf
2421799	WORD	wordpools/wasnorm_wordpool.txt	LTP122	ltpFR	6	13	1	GLOBE	641	n/a	0	0	0.5869140625	0.422607421875	upper	../fonts/amplitud.ttf
2425973	WORD	wordpools/wasnorm_wordpool.txt	LTP122	ltpFR	6	13	1	MAP	865	n/a	0	0	0.5869140625	0.422607421875	upper	../fonts/amplitud.ttf
2430179	WORD	wordpools/wasnorm_wordpool.txt	LTP122	ltpFR	6	13	1	HOSE	720	n/a	0	0	0.5869140625	0.422607421875	upper	../fonts/amplitud.ttf
2434120	WORD	wordpools/wasnorm_wordpool.txt	LTP122	ltpFR	6	13	0	BEAVER	109	n/a	3	1	0.412841796875	0.57763671875	lower	../fonts/zerothre.ttf
2435453	KEY_MSG	n/a	LTP122	ltpFR	6	13	n/a	n/a	n/a	n/a	n/a	n/a	n/a	n/a	n/a	n/a
2438127	WORD	wordpools/wasnorm_wordpool.txt	LTP122	ltpFR	6	13	0	SHEPHERD	1283	n/a	1	1	0.412841796875	0.57763671875	lower	../fonts/zerothre.ttf
2442175	WORD	wordpools/wasnorm_wordpool.txt	LTP122	ltpFR	6	13	0	CAGE	218	n/a	0	1	0.412841796875	0.57763671875	lower	../fonts/zerothre.ttf
2446349	WORD	wordpools/wasnorm_wordpool.txt	LTP122	ltpFR	6	13	0	TICK	1463	n/a	0	1	0.412841796875	0.57763671875	lower	../fonts/zerothre.ttf
2450531	WORD	wordpools/wasnorm_wordpool.txt	LTP122	ltpFR	6	13	1	WHISTLE	1606	n/a	0	0	0.5869140625	0.422607421875	upper	../fonts/amplitud.ttf
2454454	WORD	wordpools/wasnorm_wordpool.txt	LTP122	ltpFR	6	13	1	OX	994	n/a	1	0	0.5869140625	0.422607421875	upper	../fonts/amplitud.ttf
2458344	WORD	wordpools/wasnorm_wordpool.txt	LTP122	ltpFR	6	13	1	GOAT	644	n/a	1	0	0.5869140625	0.422607421875	upper	../fonts/amplitud.ttf
2463960	REC_START	n/a	LTP122	ltpFR	6	13	n/a	n/a	n/a	n/a	n/a	n/a	n/a	n/a	n/a	n/a
2465142	REC_WORD	wordpools/wasnorm_wordpool.txt	LTP122	ltpFR	6	13	1	BULL	193	n/a	1	n/a	n/a	n/a	n/a	n/a
2465621	REC_WORD	wordpools/wasnorm_wordpool.txt	LTP122	ltpFR	6	13	1	OX	994	n/a	1	n/a	n/a	n/a	n/a	n/a
2466469	REC_WORD	wordpools/wasnorm_wordpool.txt	LTP122	ltpFR	6	13	1	GOAT	644	n/a	1	n/a	n/a	n/a	n/a	n/a
2467118	REC_WORD	wordpools/wasnorm_wordpool.txt	LTP122	ltpFR	6	13	1	RANCH	1166	n/a	0	n/a	n/a	n/a	n/a	n/a
2467738	REC_WORD	wordpools/wasnorm_wordpool.txt	LTP122	ltpFR	6	13	0	SHINGLE	1285	n/a	0	n/a	n/a	n/a	n/a	n/a
2469043	REC_WORD	wordpools/wasnorm_wordpool.txt	LTP122	ltpFR	6	13	0	NOOSE	956	n/a	0	n/a	n/a	n/a	n/a	n/a
2470859	REC_WORD	wordpools/wasnorm_wordpool.txt	LTP122	ltpFR	6	13	0	RAIL	1161	n/a	0	n/a	n/a	n/a	n/a	n/a
2472226	REC_WORD	wordpools/wasnorm_wordpool.txt	LTP122	ltpFR	6	13	1	GLOBE	641	n/a	0	n/a	n/a	n/a	n/a	n/a
2472846	REC_WORD	wordpools/wasnorm_wordpool.txt	LTP122	ltpFR	6	13	1	MAP	865	n/a	0	n/a	n/a	n/a	n/a	n/a
2474132	REC_WORD	wordpools/wasnorm_wordpool.txt	LTP122	ltpFR	6	13	0	SHEPHERD	1283	n/a	1	n/a	n/a	n/a	n/a	n/a
2476506	REC_WORD	wordpools/wasnorm_wordpool.txt	LTP122	ltpFR	6	13	1	GOAT	644	n/a	1	n/a	n/a	n/a	n/a	n/a
2482039	REC_WORD	wordpools/wasnorm_wordpool.txt	LTP122	ltpFR	6	13	0	BEAVER	109	n/a	3	n/a	n/a	n/a	n/a	n/a
2488798	REC_WORD	wordpools/wasnorm_wordpool.txt	LTP122	ltpFR	6	13	0	CAGE	218	n/a	0	n/a	n/a	n/a	n/a	n/a
2492769	REC_WORD	wordpools/wasnorm_wordpool.txt	LTP122	ltpFR	6	13	0	TICK	1463	n/a	0	n/a	n/a	n/a	n/a	n/a
2543814	WORD	wordpools/wasnorm_wordpool.txt	LTP122	ltpFR	6	14	1	BRAN	167	n/a	2	0	0.5869140625	0.422607421875	upper	../fonts/amplitud.ttf
2545597	KEY_MSG	n/a	LTP122	ltpFR	6	14	n/a	n/a	n/a	n/a	n/a	n/a	n/a	n/a	n/a	n/a
2548254	WORD	wordpools/wasnorm_wordpool.txt	LTP122	ltpFR	6	14	1	OREGANO	983	n/a	0	0	0.5869140625	0.422607421875	upper	../fonts/amplitud.ttf
2552186	WORD	wordpools/wasnorm_wordpool.txt	LTP122	ltpFR	6	14	1	ROBBER	1197	n/a	1	0	0.5869140625	0.422607421875	upper	../fonts/amplitud.ttf
2556026	WORD	wordpools/wasnorm_wordpool.txt	LTP122	ltpFR	6	14	1	OUTLAW	989	n/a	1	0	0.5869140625	0.422607421875	upper	../fonts/amplitud.ttf
2559958	WORD	wordpools/wasnorm_wordpool.txt	LTP122	ltpFR	6	14	1	HERB	704	n/a	0	0	0.5869140625	0.422607421875	upper	../fonts/amplitud.ttf
2564090	WORD	wordpools/wasnorm_wordpool.txt	LTP122	ltpFR	6	14	1	DORM	488	n/a	1	0	0.5869140625	0.422607421875	upper	../fonts/amplitud.ttf
2568039	WORD	wordpools/wasnorm_wordpool.txt	LTP122	ltpFR	6	14	1	COMMUNITY	356	n/a	0	0	0.5869140625	0.422607421875	upper	../fonts/amplitud.ttf
2571904	WORD	wordpools/wasnorm_wordpool.txt	LTP122	ltpFR	6	14	1	MARSH	874	n/a	0	0	0.5869140625	0.422607421875	upper	../fonts/amplitud.ttf
2576003	WORD	wordpools/wasnorm_wordpool.txt	LTP122	ltpFR	6	14	1	ROOT	1210	n/a	0	0	0.5869140625	0.422607421875	upper	../fonts/amplitud.ttf
2580210	WORD	wordpools/wasnorm_wordpool.txt	LTP122	ltpFR	6	14	1	NOMAD	955	n/a	1	0	0.5869140625	0.422607421875	upper	../fonts/amplitud.ttf
2584183	WORD	wordpools/wasnorm_wordpool.txt	LTP122	ltpFR	6	14	1	DICE	461	n/a	0	0	0.5869140625	0.422607421875	upper	../fonts/amplitud.ttf
2588315	WORD	wordpools/wasnorm_wordpool.txt	LTP122	ltpFR	6	14	1	VOLLEYBALL	1576	n/a	0	0	0.5869140625	0.422607421875	upper	../fonts/amplitud.ttf
2592155	WORD	wordpools/wasnorm_wordpool.txt	LTP122	ltpFR	6	14	1	TURKEY	1520	n/a	1	0	0.5869140625	0.422607421875	upper	../fonts/amplitud.ttf
2596046	WORD	wordpools/wasnorm_wordpool.txt	LTP122	ltpFR	6	14	1	BUCKET	184	n/a	0	0	0.5869140625	0.422607421875	upper	../fonts/amplitud.ttf
2600044	WORD	wordpools/wasnorm_wordpool.txt	LTP122	ltpFR	6	14	1	DOUGHNUT	490	n/a	1	0	0.5869140625	0.422607421875	upper	../fonts/amplitud.ttf
2604234	WORD	wordpools/wasnorm_wordpool.txt	LTP122	ltpFR	6	14	1	STEAM	1375	n/a	0	0	0.5869140625	0.422607421875	upper	../fonts/amplitud.ttf
2609999	REC_START	n/a	LTP122	ltpFR	6	14	n/a	n/a	n/a	n/a	n/a	n/a	n/a	n/a	n/a	n/a
2610862	REC_WORD	wordpools/wasnorm_wordpool.txt	LTP122	ltpFR	6	14	1	TURKEY	1520	n/a	1	n/a	n/a	n/a	n/a	n/a
2611451	REC_WORD	wordpools/wasnorm_wordpool.txt	LTP122	ltpFR	6	14	1	BUCKET	184	n/a	0	n/a	n/a	n/a	n/a	n/a
2611989	REC_WORD	wordpools/wasnorm_wordpool.txt	LTP122	ltpFR	6	14	1	DOUGHNUT	490	n/a	1	n/a	n/a	n/a	n/a	n/a
2612463	REC_WORD	wordpools/wasnorm_wordpool.txt	LTP122	ltpFR	6	14	1	STEAM	1375	n/a	0	n/a	n/a	n/a	n/a	n/a
2613546	REC_WORD	wordpools/wasnorm_wordpool.txt	LTP122	ltpFR	6	14	1	OUTLAW	989	n/a	1	n/a	n/a	n/a	n/a	n/a
2614683	REC_WORD	wordpools/wasnorm_wordpool.txt	LTP122	ltpFR	6	14	1	DORM	488	n/a	1	n/a	n/a	n/a	n/a	n/a
2619228	REC_WORD	wordpools/wasnorm_wordpool.txt	LTP122	ltpFR	6	14	1	OREGANO	983	n/a	0	n/a	n/a	n/a	n/a	n/a
2620021	REC_WORD	wordpools/wasnorm_wordpool.txt	LTP122	ltpFR	6	14	1	HERB	704	n/a	0	n/a	n/a	n/a	n/a	n/a
2635207	REC_WORD	wordpools/wasnorm_wordpool.txt	LTP122	ltpFR	6	14	1	BRAN	167	n/a	2	n/a	n/a	n/a	n/a	n/a
2659172	REC_WORD	wordpools/wasnorm_wordpool.txt	LTP122	ltpFR	6	14	1	ROBBER	1197	n/a	1	n/a	n/a	n/a	n/a	n/a
2692053	WORD	wordpools/wasnorm_wordpool.txt	LTP122	ltpFR	6	15	0	TANGERINE	1431	n/a	0	1	0.412841796875	0.57763671875	lower	../fonts/zerothre.ttf
2696152	WORD	wordpools/wasnorm_wordpool.txt	LTP122	ltpFR	6	15	0	GENERAL	630	n/a	1	1	0.412841796875	0.57763671875	lower	../fonts/zerothre.ttf
2700209	WORD	wordpools/wasnorm_wordpool.txt	LTP122	ltpFR	6	15	0	SERGEANT	1269	n/a	1	1	0.412841796875	0.57763671875	lower	../fonts/zerothre.ttf
2704324	WORD	wordpools/wasnorm_wordpool.txt	LTP122	ltpFR	6	15	1	TRUMPET	1513	n/a	0	0	0.5869140625	0.422607421875	upper	../fonts/amplitud.ttf
2708189	WORD	wordpools/wasnorm_wordpool.txt	LTP122	ltpFR	6	15	1	STEM	1376	n/a	1	0	0.5869140625	0.422607421875	upper	../fonts/amplitud.ttf
2712263	WORD	wordpools/wasnorm_wordpool.txt	LTP122	ltpFR	6	15	1	WARDROBE	1587	n/a	0	0	0.5869140625	0.422607421875	upper	../fonts/amplitud.ttf
2716445	WORD	wordpools/wasnorm_wordpool.txt	LTP122	ltpFR	6	15	1	COSTUME	383	n/a	0	0	0.5869140625	0.422607421875	upper	../fonts/amplitud.ttf
2720393	WORD	wordpools/wasnorm_wordpool.txt	LTP122	ltpFR	6	15	1	FEATHER	557	n/a	0	0	0.5869140625	0.422607421875	upper	../fonts/amplitud.ttf
2724317	WORD	wordpools/wasnorm_wordpool.txt	LTP122	ltpFR	6	15	1	MONSTER	912	n/a	1	0	0.5869140625	0.422607421875	upper	../fonts/amplitud.ttf
2728524	WORD	wordpools/wasnorm_wordpool.txt	LTP122	ltpFR	6	15	0	BATHTUB	100	n/a	1	1	0.412841796875	0.57763671875	lower	../fonts/zerothre.ttf
2732572	WORD	wordpools/wasnorm_wordpool.txt	LTP122	ltpFR	6	15	0	SALAD	1224	n/a	0	1	0.412841796875	0.57763671875	lower	../fonts/zerothre.ttf
2736429	WORD	wordpools/wasnorm_wordpool.txt	LTP122	ltpFR	6	15	0	PLANT	1083	n/a	0	1	0.412841796875	0.57763671875	lower	../fonts/zerothre.ttf
2740303	WORD	wordpools/wasnorm_wordpool.txt	LTP122	ltpFR	6	15	0	SOAP	1337	n/a	0	1	0.412841796875	0.57763671875	lower	../fonts/zerothre.ttf
2744201	WORD	wordpools/wasnorm_wordpool.txt	LTP122	ltpFR	6	15	0	BLUEJAY	141	n/a	1	1	0.412841796875	0.57763671875	lower	../fonts/zerothre.ttf
2748067	WORD	wordpools/wasnorm_wordpool.txt	LTP122	ltpFR	6	15	1	CAPE	237	n/a	0	0	0.5869140625	0.422607421875	upper	../fonts/amplitud.ttf
2752232	WORD	wordpools/wasnorm_wordpool.txt	LTP122	ltpFR	6	15	1	DEER	444	n/a	1	0	0.5869140625	0.422607421875	upper	../fonts/amplitud.ttf
2757864	REC_START	n/a	LTP122	ltpFR	6	15	n/a	n/a	n/a	n/a	n/a	n/a	n/a	n/a	n/a	n/a
2758971	REC_WORD	wordpools/wasnorm_wordpool.txt	LTP122	ltpFR	6	15	1	CAPE	237	n/a	0	n/a	n/a	n/a	n/a	n/a
2759525	REC_WORD	wordpools/wasnorm_wordpool.txt	LTP122	ltpFR	6	15	1	DEER	444	n/a	1	n/a	n/a	n/a	n/a	n/a
2760094	REC_WORD	wordpools/wasnorm_wordpool.txt	LTP122	ltpFR	6	15	1	WARDROBE	1587	n/a	0	n/a	n/a	n/a	n/a	n/a
2760722	REC_WORD	wordpools/wasnorm_wordpool.txt	LTP122	ltpFR	6	15	1	COSTUME	383	n/a	0	n/a	n/a	n/a	n/a	n/a
2761311	REC_WORD	wordpools/wasnorm_wordpool.txt	LTP122	ltpFR	6	15	1	FEATHER	557	n/a	0	n/a	n/a	n/a	n/a	n/a
2762887	REC_WORD	wordpools/wasnorm_wordpool.txt	LTP122	ltpFR	6	15	0	GENERAL	630	n/a	1	n/a	n/a	n/a	n/a	n/a
2763371	REC_WORD	wordpools/wasnorm_wordpool.txt	LTP122	ltpFR	6	15	0	SERGEANT	1269	n/a	1	n/a	n/a	n/a	n/a	n/a
2764095	REC_WORD	wordpools/wasnorm_wordpool.txt	LTP122	ltpFR	6	15	1	TRUMPET	1513	n/a	0	n/a	n/a	n/a	n/a	n/a
2764623	REC_WORD	wordpools/wasnorm_wordpool.txt	LTP122	ltpFR	6	15	1	STEM	1376	n/a	1	n/a	n/a	n/a	n/a	n/a
2765541	REC_WORD	wordpools/wasnorm_wordpool.txt	LTP122	ltpFR	6	15	0	BATHTUB	100	n/a	1	n/a	n/a	n/a	n/a	n/a
2766140	REC_WORD	wordpools/wasnorm_wordpool.txt	LTP122	ltpFR	6	15	0	SOAP	1337	n/a	0	n/a	n/a	n/a	n/a	n/a
2766923	REC_WORD	wordpools/wasnorm_wordpool.txt	LTP122	ltpFR	6	15	0	PLANT	1083	n/a	0	n/a	n/a	n/a	n/a	n/a
2767502	REC_WORD	wordpools/wasnorm_wordpool.txt	LTP122	ltpFR	6	15	0	SALAD	1224	n/a	0	n/a	n/a	n/a	n/a	n/a
2773573	REC_WORD	wordpools/wasnorm_wordpool.txt	LTP122	ltpFR	6	15	0	BLUEJAY	141	n/a	1	n/a	n/a	n/a	n/a	n/a
2778048	REC_WORD	wordpools/wasnorm_wordpool.txt	LTP122	ltpFR	6	15	1	DEER	444	n/a	1	n/a	n/a	n/a	n/a	n/a
2784538	REC_WORD	wordpools/wasnorm_wordpool.txt	LTP122	ltpFR	6	15	1	MONSTER	912	n/a	1	n/a	n/a	n/a	n/a	n/a
2809726	REC_WORD	wordpools/wasnorm_wordpool.txt	LTP122	ltpFR	6	15	1	CAPE	237	n/a	0	n/a	n/a	n/a	n/a	n/a
2847182	WORD	wordpools/wasnorm_wordpool.txt	LTP122	ltpFR	6	16	-1	PEARL	1034	n/a	-1	1	1.0	1.0	upper	../fonts/Verdana.ttf
2851097	WORD	wordpools/wasnorm_wordpool.txt	LTP122	ltpFR	6	16	-1	BACKBONE	66	n/a	-1	1	1.0	1.0	upper	../fonts/Verdana.ttf
2855237	WORD	wordpools/wasnorm_wordpool.txt	LTP122	ltpFR	6	16	-1	WAGON	1578	n/a	-1	1	1.0	1.0	upper	../fonts/Verdana.ttf
2859427	WORD	wordpools/wasnorm_wordpool.txt	LTP122	ltpFR	6	16	-1	VIDEO	1564	n/a	-1	1	1.0	1.0	upper	../fonts/Verdana.ttf
2863409	WORD	wordpools/wasnorm_wordpool.txt	LTP122	ltpFR	6	16	-1	BOLT	146	n/a	-1	1	1.0	1.0	upper	../fonts/Verdana.ttf
2867474	WORD	wordpools/wasnorm_wordpool.txt	LTP122	ltpFR	6	16	-1	PECAN	1036	n/a	-1	1	1.0	1.0	upper	../fonts/Verdana.ttf
2871490	WORD	wordpools/wasnorm_wordpool.txt	LTP122	ltpFR	6	16	-1	DILL	465	n/a	-1	1	1.0	1.0	upper	../fonts/Verdana.ttf
2875547	WORD	wordpools/wasnorm_wordpool.txt	LTP122	ltpFR	6	16	-1	BEAD	103	n/a	-1	1	1.0	1.0	upper	../fonts/Verdana.ttf
2879720	WORD	wordpools/wasnorm_wordpool.txt	LTP122	ltpFR	6	16	-1	DIVER	476	n/a	-1	1	1.0	1.0	upper	../fonts/Verdana.ttf
2883685	WORD	wordpools/wasnorm_wordpool.txt	LTP122	ltpFR	6	16	-1	PIPE	1073	n/a	-1	1	1.0	1.0	upper	../fonts/Verdana.ttf
2887800	WORD	wordpools/wasnorm_wordpool.txt	LTP122	ltpFR	6	16	-1	TRUCK	1512	n/a	-1	1	1.0	1.0	upper	../fonts/Verdana.ttf
2891974	WORD	wordpools/wasnorm_wordpool.txt	LTP122	ltpFR	6	16	-1	AWARD	63	n/a	-1	1	1.0	1.0	upper	../fonts/Verdana.ttf
2896123	WORD	wordpools/wasnorm_wordpool.txt	LTP122	ltpFR	6	16	-1	NECKLACE	940	n/a	-1	1	1.0	1.0	upper	../fonts/Verdana.ttf
2900254	WORD	wordpools/wasnorm_wordpool.txt	LTP122	ltpFR	6	16	-1	GRILL	661	n/a	-1	1	1.0	1.0	upper	../fonts/Verdana.ttf
2904078	WORD	wordpools/wasnorm_wordpool.txt	LTP122	ltpFR	6	16	-1	COTTAGE	384	n/a	-1	1	1.0	1.0	upper	../fonts/Verdana.ttf
2908160	WORD	wordpools/wasnorm_wordpool.txt	LTP122	ltpFR	6	16	-1	BUILDER	190	n/a	-1	1	1.0	1.0	upper	../fonts/Verdana.ttf
2914200	REC_START	n/a	LTP122	ltpFR	6	16	n/a	n/a	n/a	n/a	n/a	n/a	n/a	n/a	n/a	n/a
2914883	REC_WORD	wordpools/wasnorm_wordpool.txt	LTP122	ltpFR	6	16	-1	PEARL	1034	n/a	-1	n/a	n/a	n/a	n/a	n/a
2915741	REC_WORD	wordpools/wasnorm_wordpool.txt	LTP122	ltpFR	6	16	-1	BACKBONE	66	n/a	-1	n/a	n/a	n/a	n/a	n/a
2917916	REC_WORD	wordpools/wasnorm_wordpool.txt	LTP122	ltpFR	6	16	-1	WAGON	1578	n/a	-1	n/a	n/a	n/a	n/a	n/a
2918824	REC_WORD	wordpools/wasnorm_wordpool.txt	LTP122	ltpFR	6	16	-1	VIDEO	1564	n/a	-1	n/a	n/a	n/a	n/a	n/a
2920101	REC_WORD	wordpools/wasnorm_wordpool.txt	LTP122	ltpFR	6	16	-1	BOLT	146	n/a	-1	n/a	n/a	n/a	n/a	n/a
2922556	REC_WORD	wordpools/wasnorm_wordpool.txt	LTP122	ltpFR	6	16	-1	BEAD	103	n/a	-1	n/a	n/a	n/a	n/a	n/a
2924970	REC_WORD	wordpools/wasnorm_wordpool.txt	LTP122	ltpFR	6	16	n/a	PICKLE	1059	n/a	n/a	n/a	n/a	n/a	n/a	n/a
2925958	REC_WORD	wordpools/wasnorm_wordpool.txt	LTP122	ltpFR	6	16	-1	PIPE	1073	n/a	-1	n/a	n/a	n/a	n/a	n/a
2927465	REC_WORD	wordpools/wasnorm_wordpool.txt	LTP122	ltpFR	6	16	-1	DIVER	476	n/a	-1	n/a	n/a	n/a	n/a	n/a
2929071	REC_WORD	wordpools/wasnorm_wordpool.txt	LTP122	ltpFR	6	16	-1	GRILL	661	n/a	-1	n/a	n/a	n/a	n/a	n/a
2929999	REC_WORD	wordpools/wasnorm_wordpool.txt	LTP122	ltpFR	6	16	-1	TRUCK	1512	n/a	-1	n/a	n/a	n/a	n/a	n/a
2931890	REC_WORD	wordpools/wasnorm_wordpool.txt	LTP122	ltpFR	6	16	-1	COTTAGE	384	n/a	-1	n/a	n/a	n/a	n/a	n/a
2933072	REC_WORD	wordpools/wasnorm_wordpool.txt	LTP122	ltpFR	6	16	-1	BUILDER	190	n/a	-1	n/a	n/a	n/a	n/a	n/a
2935157	REC_WORD	wordpools/wasnorm_wordpool.txt	LTP122	ltpFR	6	16	-1	AWARD	63	n/a	-1	n/a	n/a	n/a	n/a	n/a
2936983	REC_WORD	wordpools/wasnorm_wordpool.txt	LTP122	ltpFR	6	16	-1	NECKLACE	940	n/a	-1	n/a	n/a	n/a	n/a	n/a
2965369	REC_WORD	wordpools/wasnorm_wordpool.txt	LTP122	ltpFR	6	16	-1	PECAN	1036	n/a	-1	n/a	n/a	n/a	n/a	n/a
3015989	REC_START	n/a	LTP122	ltpFR	6	1	n/a	n/a	n/a	n/a	n/a	n/a	n/a	n/a	n/a	n/a
3016030	RECOG_LURE	n/a	LTP122	ltpFR	6	1	n/a	NEWSPAPER	948	1	n/a	n/a	n/a	n/a	n/a	n/a
3018378	RECOG_RESP	n/a	LTP122	ltpFR	6	1	n/a	NEWSPAPER	948	n/a	n/a	n/a	n/a	n/a	n/a	n/a
3019665	RECOG_CONF	n/a	LTP122	ltpFR	6	1	n/a	NEWSPAPER	948	1	n/a	n/a	n/a	n/a	n/a	n/a
3021403	RECOG_LURE	n/a	LTP122	ltpFR	6	1	n/a	WINNER	1615	1	n/a	n/a	n/a	n/a	n/a	n/a
3022364	RECOG_RESP	n/a	LTP122	ltpFR	6	1	n/a	WINNER	1615	n/a	n/a	n/a	n/a	n/a	n/a	n/a
3024006	RECOG_CONF	n/a	LTP122	ltpFR	6	1	n/a	WINNER	1615	1	n/a	n/a	n/a	n/a	n/a	n/a
3025568	RECOG_LURE	n/a	LTP122	ltpFR	6	1	n/a	PELICAN	1039	3	n/a	n/a	n/a	n/a	n/a	n/a
3026415	RECOG_RESP	n/a	LTP122	ltpFR	6	1	n/a	PELICAN	1039	n/a	n/a	n/a	n/a	n/a	n/a	n/a
3027627	RECOG_CONF	n/a	LTP122	ltpFR	6	1	n/a	PELICAN	1039	3	n/a	n/a	n/a	n/a	n/a	n/a
3029175	RECOG_TARGET	n/a	LTP122	ltpFR	6	1	0	MAILBOX	857	4	1	n/a	n/a	n/a	n/a	n/a
3029937	RECOG_RESP	n/a	LTP122	ltpFR	6	1	0	MAILBOX	857	n/a	1	n/a	n/a	n/a	n/a	n/a
3031050	RECOG_CONF	n/a	LTP122	ltpFR	6	1	0	MAILBOX	857	4	1	n/a	n/a	n/a	n/a	n/a
3032741	RECOG_TARGET	n/a	LTP122	ltpFR	6	1	-1	BLUEBERRY	140	5	-1	n/a	n/a	n/a	n/a	n/a
3033494	RECOG_RESP	n/a	LTP122	ltpFR	6	1	-1	BLUEBERRY	140	n/a	-1	n/a	n/a	n/a	n/a	n/a
3034671	RECOG_CONF	n/a	LTP122	ltpFR	6	1	-1	BLUEBERRY	140	5	-1	n/a	n/a	n/a	n/a	n/a
3036381	RECOG_TARGET	n/a	LTP122	ltpFR	6	1	0	GREASE	660	5	0	n/a	n/a	n/a	n/a	n/a
3037265	RECOG_RESP	n/a	LTP122	ltpFR	6	1	0	GREASE	660	n/a	0	n/a	n/a	n/a	n/a	n/a
3038393	RECOG_CONF	n/a	LTP122	ltpFR	6	1	0	GREASE	660	5	0	n/a	n/a	n/a	n/a	n/a
3039930	RECOG_LURE	n/a	LTP122	ltpFR	6	1	n/a	EARTH	515	1	n/a	n/a	n/a	n/a	n/a	n/a
3041556	RECOG_RESP	n/a	LTP122	ltpFR	6	1	n/a	EARTH	515	n/a	n/a	n/a	n/a	n/a	n/a	n/a
3043032	RECOG_CONF	n/a	LTP122	ltpFR	6	1	n/a	EARTH	515	1	n/a	n/a	n/a	n/a	n/a	n/a
3044612	RECOG_LURE	n/a	LTP122	ltpFR	6	1	n/a	BLOCKADE	137	5	n/a	n/a	n/a	n/a	n/a	n/a
3045462	RECOG_RESP_VV	n/a	LTP122	ltpFR	6	1	n/a	BLOCKADE	137	n/a	n/a	n/a	n/a	n/a	n/a	n/a
3045921	RECOG_RESP	n/a	LTP122	ltpFR	6	1	n/a	BLOCKADE	137	n/a	n/a	n/a	n/a	n/a	n/a	n/a
3047053	RECOG_CONF	n/a	LTP122	ltpFR	6	1	n/a	BLOCKADE	137	5	n/a	n/a	n/a	n/a	n/a	n/a
3048768	RECOG_LURE	n/a	LTP122	ltpFR	6	1	n/a	SAW	1239	3	n/a	n/a	n/a	n/a	n/a	n/a
3050630	RECOG_RESP	n/a	LTP122	ltpFR	6	1	n/a	SAW	1239	n/a	n/a	n/a	n/a	n/a	n/a	n/a
3051832	RECOG_CONF	n/a	LTP122	ltpFR	6	1	n/a	SAW	1239	3	n/a	n/a	n/a	n/a	n/a	n/a
3053492	RECOG_LURE	n/a	LTP122	ltpFR	6	1	n/a	BOTTLE	153	2	n/a	n/a	n/a	n/a	n/a	n/a
3054342	RECOG_RESP	n/a	LTP122	ltpFR	6	1	n/a	BOTTLE	153	n/a	n/a	n/a	n/a	n/a	n/a	n/a
3055973	RECOG_CONF	n/a	LTP122	ltpFR	6	1	n/a	BOTTLE	153	2	n/a	n/a	n/a	n/a	n/a	n/a
3057515	RECOG_TARGET	n/a	LTP122	ltpFR	6	1	0	PAW	1029	5	0	n/a	n/a	n/a	n/a	n/a
3058243	RECOG_RESP	n/a	LTP122	ltpFR	6	1	0	PAW	1029	n/a	0	n/a	n/a	n/a	n/a	n/a
3059475	RECOG_CONF	n/a	LTP122	ltpFR	6	1	0	PAW	1029	5	0	n/a	n/a	n/a	n/a	n/a
3061097	RECOG_TARGET	n/a	LTP122	ltpFR	6	1	1	TWIG	1527	5	0	n/a	n/a	n/a	n/a	n/a
3061710	RECOG_RESP	n/a	LTP122	ltpFR	6	1	1	TWIG	1527	n/a	0	n/a	n/a	n/a	n/a	n/a
3062897	RECOG_CONF	n/a	LTP122	ltpFR	6	1	1	TWIG	1527	5	0	n/a	n/a	n/a	n/a	n/a
3064521	RECOG_TARGET	n/a	LTP122	ltpFR	6	1	0	BEAVER	109	5	3	n/a	n/a	n/a	n/a	n/a
3065102	RECOG_RESP	n/a	LTP122	ltpFR	6	1	0	BEAVER	109	n/a	3	n/a	n/a	n/a	n/a	n/a
3066230	RECOG_CONF	n/a	LTP122	ltpFR	6	1	0	BEAVER	109	5	3	n/a	n/a	n/a	n/a	n/a
3067862	RECOG_TARGET	n/a	LTP122	ltpFR	6	1	1	FIDDLE	561	5	1	n/a	n/a	n/a	n/a	n/a
3068480	RECOG_RESP	n/a	LTP122	ltpFR	6	1	1	FIDDLE	561	n/a	1	n/a	n/a	n/a	n/a	n/a
3069562	RECOG_CONF	n/a	LTP122	ltpFR	6	1	1	FIDDLE	561	5	1	n/a	n/a	n/a	n/a	n/a
3071185	RECOG_TARGET	n/a	LTP122	ltpFR	6	1	0	LIME	823	5	0	n/a	n/a	n/a	n/a	n/a
3071842	RECOG_RESP	n/a	LTP122	ltpFR	6	1	0	LIME	823	n/a	0	n/a	n/a	n/a	n/a	n/a
3072924	RECOG_CONF	n/a	LTP122	ltpFR	6	1	0	LIME	823	5	0	n/a	n/a	n/a	n/a	n/a
3074559	RECOG_TARGET	n/a	LTP122	ltpFR	6	1	0	CLARINET	317	5	1	n/a	n/a	n/a	n/a	n/a
3075174	RECOG_RESP	n/a	LTP122	ltpFR	6	1	0	CLARINET	317	n/a	1	n/a	n/a	n/a	n/a	n/a
3076217	RECOG_CONF	n/a	LTP122	ltpFR	6	1	0	CLARINET	317	5	1	n/a	n/a	n/a	n/a	n/a
3077850	RECOG_TARGET	n/a	LTP122	ltpFR	6	1	-1	BEAD	103	5	-1	n/a	n/a	n/a	n/a	n/a
3078422	RECOG_RESP	n/a	LTP122	ltpFR	6	1	-1	BEAD	103	n/a	-1	n/a	n/a	n/a	n/a	n/a
3079360	RECOG_CONF	n/a	LTP122	ltpFR	6	1	-1	BEAD	103	5	-1	n/a	n/a	n/a	n/a	n/a
3081115	RECOG_TARGET	n/a	LTP122	ltpFR	6	1	-1	DIVER	476	5	-1	n/a	n/a	n/a	n/a	n/a
3081764	RECOG_RESP	n/a	LTP122	ltpFR	6	1	-1	DIVER	476	n/a	-1	n/a	n/a	n/a	n/a	n/a
3082842	RECOG_CONF	n/a	LTP122	ltpFR	6	1	-1	DIVER	476	5	-1	n/a	n/a	n/a	n/a	n/a
3084581	RECOG_TARGET	n/a	LTP122	ltpFR	6	1	1	GARAGE	621	5	1	n/a	n/a	n/a	n/a	n/a
3085316	RECOG_RESP	n/a	LTP122	ltpFR	6	1	1	GARAGE	621	n/a	1	n/a	n/a	n/a	n/a	n/a
3086214	RECOG_CONF	n/a	LTP122	ltpFR	6	1	1	GARAGE	621	5	1	n/a	n/a	n/a	n/a	n/a
3088038	RECOG_TARGET	n/a	LTP122	ltpFR	6	1	-1	STONE	1385	5	-1	n/a	n/a	n/a	n/a	n/a
3088664	RECOG_RESP	n/a	LTP122	ltpFR	6	1	-1	STONE	1385	n/a	-1	n/a	n/a	n/a	n/a	n/a
3089756	RECOG_CONF	n/a	LTP122	ltpFR	6	1	-1	STONE	1385	5	-1	n/a	n/a	n/a	n/a	n/a
3095752	REC_START	n/a	LTP122	ltpFR	6	2	n/a	n/a	n/a	n/a	n/a	n/a	n/a	n/a	n/a	n/a
3095785	RECOG_TARGET	n/a	LTP122	ltpFR	6	2	-1	ARENA	37	5	-1	n/a	n/a	n/a	n/a	n/a
3096495	RECOG_RESP	n/a	LTP122	ltpFR	6	2	-1	ARENA	37	n/a	-1	n/a	n/a	n/a	n/a	n/a
3097662	RECOG_CONF	n/a	LTP122	ltpFR	6	2	-1	ARENA	37	5	-1	n/a	n/a	n/a	n/a	n/a
3099376	RECOG_TARGET	n/a	LTP122	ltpFR	6	2	1	MAP	865	5	0	n/a	n/a	n/a	n/a	n/a
3100157	RECOG_RESP	n/a	LTP122	ltpFR	6	2	1	MAP	865	n/a	0	n/a	n/a	n/a	n/a	n/a
3101294	RECOG_CONF	n/a	LTP122	ltpFR	6	2	1	MAP	865	5	0	n/a	n/a	n/a	n/a	n/a
3102999	RECOG_LURE	n/a	LTP122	ltpFR	6	2	n/a	ULCER	1533	4	n/a	n/a	n/a	n/a	n/a	n/a
3103699	RECOG_RESP	n/a	LTP122	ltpFR	6	2	n/a	ULCER	1533	n/a	n/a	n/a	n/a	n/a	n/a	n/a
3104936	RECOG_CONF	n/a	LTP122	ltpFR	6	2	n/a	ULCER	1533	4	n/a	n/a	n/a	n/a	n/a	n/a
3106456	RECOG_TARGET	n/a	LTP122	ltpFR	6	2	-1	DUNE	506	5	-1	n/a	n/a	n/a	n/a	n/a
3107266	RECOG_RESP	n/a	LTP122	ltpFR	6	2	-1	DUNE	506	n/a	-1	n/a	n/a	n/a	n/a	n/a
3108548	RECOG_CONF	n/a	LTP122	ltpFR	6	2	-1	DUNE	506	5	-1	n/a	n/a	n/a	n/a	n/a
3110230	RECOG_LURE	n/a	LTP122	ltpFR	6	2	n/a	BLOSSOM	138	4	n/a	n/a	n/a	n/a	n/a	n/a
3110962	RECOG_RESP	n/a	LTP122	ltpFR	6	2	n/a	BLOSSOM	138	n/a	n/a	n/a	n/a	n/a	n/a	n/a
3113247	RECOG_CONF	n/a	LTP122	ltpFR	6	2	n/a	BLOSSOM	138	4	n/a	n/a	n/a	n/a	n/a	n/a
3114795	RECOG_LURE	n/a	LTP122	ltpFR	6	2	n/a	SERVER	1272	3	n/a	n/a	n/a	n/a	n/a	n/a
3115821	RECOG_RESP	n/a	LTP122	ltpFR	6	2	n/a	SERVER	1272	n/a	n/a	n/a	n/a	n/a	n/a	n/a
3117288	RECOG_CONF	n/a	LTP122	ltpFR	6	2	n/a	SERVER	1272	3	n/a	n/a	n/a	n/a	n/a	n/a
3118835	RECOG_TARGET	n/a	LTP122	ltpFR	6	2	0	BARREL	91	5	1	n/a	n/a	n/a	n/a	n/a
3119523	RECOG_RESP	n/a	LTP122	ltpFR	6	2	0	BARREL	91	n/a	1	n/a	n/a	n/a	n/a	n/a
3120700	RECOG_CONF	n/a	LTP122	ltpFR	6	2	0	BARREL	91	5	1	n/a	n/a	n/a	n/a	n/a
3122309	RECOG_TARGET	n/a	LTP122	ltpFR	6	2	1	CAN	225	4	0	n/a	n/a	n/a	n/a	n/a
3122995	RECOG_RESP	n/a	LTP122	ltpFR	6	2	1	CAN	225	n/a	0	n/a	n/a	n/a	n/a	n/a
3124402	RECOG_CONF	n/a	LTP122	ltpFR	6	2	1	CAN	225	4	0	n/a	n/a	n/a	n/a	n/a
3125949	RECOG_TARGET	n/a	LTP122	ltpFR	6	2	0	PEPPER	1047	5	0	n/a	n/a	n/a	n/a	n/a
3126746	RECOG_RESP	n/a	LTP122	ltpFR	6	2	0	PEPPER	1047	n/a	0	n/a	n/a	n/a	n/a	n/a
3127874	RECOG_CONF	n/a	LTP122	ltpFR	6	2	0	PEPPER	1047	5	0	n/a	n/a	n/a	n/a	n/a
3129465	RECOG_LURE	n/a	LTP122	ltpFR	6	2	n/a	SPARROW	1347	4	n/a	n/a	n/a	n/a	n/a	n/a
3130169	RECOG_RESP	n/a	LTP122	ltpFR	6	2	n/a	SPARROW	1347	n/a	n/a	n/a	n/a	n/a	n/a	n/a
3131446	RECOG_CONF	n/a	LTP122	ltpFR	6	2	n/a	SPARROW	1347	4	n/a	n/a	n/a	n/a	n/a	n/a
3133030	RECOG_TARGET	n/a	LTP122	ltpFR	6	2	0	MAILMAN	858	5	1	n/a	n/a	n/a	n/a	n/a
3133626	RECOG_RESP	n/a	LTP122	ltpFR	6	2	0	MAILMAN	858	n/a	1	n/a	n/a	n/a	n/a	n/a
3134678	RECOG_CONF	n/a	LTP122	ltpFR	6	2	0	MAILMAN	858	5	1	n/a	n/a	n/a	n/a	n/a
3136312	RECOG_TARGET	n/a	LTP122	ltpFR	6	2	0	TANGERINE	1431	5	0	n/a	n/a	n/a	n/a	n/a
3136868	RECOG_RESP	n/a	LTP122	ltpFR	6	2	0	TANGERINE	1431	n/a	0	n/a	n/a	n/a	n/a	n/a
3137871	RECOG_CONF	n/a	LTP122	ltpFR	6	2	0	TANGERINE	1431	5	0	n/a	n/a	n/a	n/a	n/a
3139570	RECOG_TARGET	n/a	LTP122	ltpFR	6	2	0	BRAIN	165	1	0	n/a	n/a	n/a	n/a	n/a
3140670	RECOG_RESP	n/a	LTP122	ltpFR	6	2	0	BRAIN	165	n/a	0	n/a	n/a	n/a	n/a	n/a
3142780	RECOG_CONF	n/a	LTP122	ltpFR	6	2	0	BRAIN	165	1	0	n/a	n/a	n/a	n/a	n/a
3144201	RECOG_TARGET	n/a	LTP122	ltpFR	6	2	1	RAT	1169	5	1	n/a	n/a	n/a	n/a	n/a
3145035	RECOG_RESP	n/a	LTP122	ltpFR	6	2	1	RAT	1169	n/a	1	n/a	n/a	n/a	n/a	n/a
3146222	RECOG_CONF	n/a	LTP122	ltpFR	6	2	1	RAT	1169	5	1	n/a	n/a	n/a	n/a	n/a
3147825	RECOG_TARGET	n/a	LTP122	ltpFR	6	2	1	FIREPLACE	570	5	0	n/a	n/a	n/a	n/a	n/a
3148696	RECOG_RESP	n/a	LTP122	ltpFR	6	2	1	FIREPLACE	570	n/a	0	n/a	n/a	n/a	n/a	n/a
3149884	RECOG_CONF	n/a	LTP122	ltpFR	6	2	1	FIREPLACE	570	5	0	n/a	n/a	n/a	n/a	n/a
3151482	RECOG_TARGET	n/a	LTP122	ltpFR	6	2	1	COMMUNITY	356	4	0	n/a	n/a	n/a	n/a	n/a
3154568	RECOG_RESP	n/a	LTP122	ltpFR	6	2	1	COMMUNITY	356	n/a	0	n/a	n/a	n/a	n/a	n/a
3155511	RECOG_CONF	n/a	LTP122	ltpFR	6	2	1	COMMUNITY	356	4	0	n/a	n/a	n/a	n/a	n/a
3157188	RECOG_LURE	n/a	LTP122	ltpFR	6	2	n/a	WORLD	1622	2	n/a	n/a	n/a	n/a	n/a	n/a
3158898	RECOG_RESP	n/a	LTP122	ltpFR	6	2	n/a	WORLD	1622	n/a	n/a	n/a	n/a	n/a	n/a	n/a
3160190	RECOG_CONF	n/a	LTP122	ltpFR	6	2	n/a	WORLD	1622	2	n/a	n/a	n/a	n/a	n/a	n/a
3161720	RECOG_TARGET	n/a	LTP122	ltpFR	6	2	-1	COFFIN	342	5	-1	n/a	n/a	n/a	n/a	n/a
3162400	RECOG_RESP	n/a	LTP122	ltpFR	6	2	-1	COFFIN	342	n/a	-1	n/a	n/a	n/a	n/a	n/a
3163463	RECOG_CONF	n/a	LTP122	ltpFR	6	2	-1	COFFIN	342	5	-1	n/a	n/a	n/a	n/a	n/a
3165011	RECOG_LURE	n/a	LTP122	ltpFR	6	2	n/a	MALL	860	3	n/a	n/a	n/a	n/a	n/a	n/a
3165793	RECOG_RESP	n/a	LTP122	ltpFR	6	2	n/a	MALL	860	n/a	n/a	n/a	n/a	n/a	n/a	n/a
3166676	RECOG_CONF	n/a	LTP122	ltpFR	6	2	n/a	MALL	860	3	n/a	n/a	n/a	n/a	n/a	n/a
3168059	RECOG_LURE	n/a	LTP122	ltpFR	6	2	n/a	LID	817	4	n/a	n/a	n/a	n/a	n/a	n/a
3169190	RECOG_RESP	n/a	LTP122	ltpFR	6	2	n/a	LID	817	n/a	n/a	n/a	n/a	n/a	n/a	n/a
3170128	RECOG_CONF	n/a	LTP122	ltpFR	6	2	n/a	LID	817	4	n/a	n/a	n/a	n/a	n/a	n/a
3184474	REC_START	n/a	LTP122	ltpFR	6	3	n/a	n/a	n/a	n/a	n/a	n/a	n/a	n/a	n/a	n/a
3184512	RECOG_TARGET	n/a	LTP122	ltpFR	6	3	1	MONSTER	912	5	1	n/a	n/a	n/a	n/a	n/a
3185212	RECOG_RESP	n/a	LTP122	ltpFR	6	3	1	MONSTER	912	n/a	1	n/a	n/a	n/a	n/a	n/a
3186305	RECOG_CONF	n/a	LTP122	ltpFR	6	3	1	MONSTER	912	5	1	n/a	n/a	n/a	n/a	n/a
3187911	RECOG_LURE	n/a	LTP122	ltpFR	6	3	n/a	CALENDAR	221	4	n/a	n/a	n/a	n/a	n/a	n/a
3188979	RECOG_RESP	n/a	LTP122	ltpFR	6	3	n/a	CALENDAR	221	n/a	n/a	n/a	n/a	n/a	n/a	n/a
3190246	RECOG_CONF	n/a	LTP122	ltpFR	6	3	n/a	CALENDAR	221	4	n/a	n/a	n/a	n/a	n/a	n/a
3191784	RECOG_TARGET	n/a	LTP122	ltpFR	6	3	1	COLOGNE	347	5	1	n/a	n/a	n/a	n/a	n/a
3192466	RECOG_RESP	n/a	LTP122	ltpFR	6	3	1	COLOGNE	347	n/a	1	n/a	n/a	n/a	n/a	n/a
3193528	RECOG_CONF	n/a	LTP122	ltpFR	6	3	1	COLOGNE	347	5	1	n/a	n/a	n/a	n/a	n/a
3195092	RECOG_TARGET	n/a	LTP122	ltpFR	6	3	1	BANANA	77	5	1	n/a	n/a	n/a	n/a	n/a
3195663	RECOG_RESP	n/a	LTP122	ltpFR	6	3	1	BANANA	77	n/a	1	n/a	n/a	n/a	n/a	n/a
3196671	RECOG_CONF	n/a	LTP122	ltpFR	6	3	1	BANANA	77	5	1	n/a	n/a	n/a	n/a	n/a
3198224	RECOG_TARGET	n/a	LTP122	ltpFR	6	3	0	FRIEND	606	1	1	n/a	n/a	n/a	n/a	n/a
3199594	RECOG_RESP	n/a	LTP122	ltpFR	6	3	0	FRIEND	606	n/a	1	n/a	n/a	n/a	n/a	n/a
3200782	RECOG_CONF	n/a	LTP122	ltpFR	6	3	0	FRIEND	606	1	1	n/a	n/a	n/a	n/a	n/a
3202347	RECOG_TARGET	n/a	LTP122	ltpFR	6	3	-1	SUBMARINE	1398	5	-1	n/a	n/a	n/a	n/a	n/a
3202992	RECOG_RESP	n/a	LTP122	ltpFR	6	3	-1	SUBMARINE	1398	n/a	-1	n/a	n/a	n/a	n/a	n/a
3204064	RECOG_CONF	n/a	LTP122	ltpFR	6	3	-1	SUBMARINE	1398	5	-1	n/a	n/a	n/a	n/a	n/a
3205546	RECOG_TARGET	n/a	LTP122	ltpFR	6	3	-1	BUILDER	190	5	-1	n/a	n/a	n/a	n/a	n/a
3206414	RECOG_RESP	n/a	LTP122	ltpFR	6	3	-1	BUILDER	190	n/a	-1	n/a	n/a	n/a	n/a	n/a
3207427	RECOG_CONF	n/a	LTP122	ltpFR	6	3	-1	BUILDER	190	5	-1	n/a	n/a	n/a	n/a	n/a
3209103	RECOG_TARGET	n/a	LTP122	ltpFR	6	3	-1	PENGUIN	1044	5	-1	n/a	n/a	n/a	n/a	n/a
3209711	RECOG_RESP	n/a	LTP122	ltpFR	6	3	-1	PENGUIN	1044	n/a	-1	n/a	n/a	n/a	n/a	n/a
3210769	RECOG_CONF	n/a	LTP122	ltpFR	6	3	-1	PENGUIN	1044	5	-1	n/a	n/a	n/a	n/a	n/a
3212402	RECOG_LURE	n/a	LTP122	ltpFR	6	3	n/a	RATTLE	1170	3	n/a	n/a	n/a	n/a	n/a	n/a
3213717	RECOG_RESP	n/a	LTP122	ltpFR	6	3	n/a	RATTLE	1170	n/a	n/a	n/a	n/a	n/a	n/a	n/a
3214730	RECOG_CONF	n/a	LTP122	ltpFR	6	3	n/a	RATTLE	1170	3	n/a	n/a	n/a	n/a	n/a	n/a
3216259	RECOG_LURE	n/a	LTP122	ltpFR	6	3	n/a	FAIRY	549	5	n/a	n/a	n/a	n/a	n/a	n/a
3216930	RECOG_RESP	n/a	LTP122	ltpFR	6	3	n/a	FAIRY	549	n/a	n/a	n/a	n/a	n/a	n/a	n/a
3217853	RECOG_CONF	n/a	LTP122	ltpFR	6	3	n/a	FAIRY	549	5	n/a	n/a	n/a	n/a	n/a	n/a
3219400	RECOG_TARGET	n/a	LTP122	ltpFR	6	3	0	SHINGLE	1285	5	0	n/a	n/a	n/a	n/a	n/a
3220023	RECOG_RESP	n/a	LTP122	ltpFR	6	3	0	SHINGLE	1285	n/a	0	n/a	n/a	n/a	n/a	n/a
3220936	RECOG_CONF	n/a	LTP122	ltpFR	6	3	0	SHINGLE	1285	5	0	n/a	n/a	n/a	n/a	n/a
3222524	RECOG_TARGET	n/a	LTP122	ltpFR	6	3	1	CAFE	216	5	0	n/a	n/a	n/a	n/a	n/a
3223370	RECOG_RESP	n/a	LTP122	ltpFR	6	3	1	CAFE	216	n/a	0	n/a	n/a	n/a	n/a	n/a
3224278	RECOG_CONF	n/a	LTP122	ltpFR	6	3	1	CAFE	216	5	0	n/a	n/a	n/a	n/a	n/a
3225839	RECOG_LURE	n/a	LTP122	ltpFR	6	3	n/a	KNUCKLE	789	4	n/a	n/a	n/a	n/a	n/a	n/a
3226633	RECOG_RESP	n/a	LTP122	ltpFR	6	3	n/a	KNUCKLE	789	n/a	n/a	n/a	n/a	n/a	n/a	n/a
3227421	RECOG_CONF	n/a	LTP122	ltpFR	6	3	n/a	KNUCKLE	789	4	n/a	n/a	n/a	n/a	n/a	n/a
3228938	RECOG_TARGET	n/a	LTP122	ltpFR	6	3	1	TICKET	1464	5	0	n/a	n/a	n/a	n/a	n/a
3229751	RECOG_RESP	n/a	LTP122	ltpFR	6	3	1	TICKET	1464	n/a	0	n/a	n/a	n/a	n/a	n/a
3230724	RECOG_CONF	n/a	LTP122	ltpFR	6	3	1	TICKET	1464	5	0	n/a	n/a	n/a	n/a	n/a
3232245	RECOG_LURE	n/a	LTP122	ltpFR	6	3	n/a	GUN	673	5	n/a	n/a	n/a	n/a	n/a	n/a
3232959	RECOG_RESP	n/a	LTP122	ltpFR	6	3	n/a	GUN	673	n/a	n/a	n/a	n/a	n/a	n/a	n/a
3233887	RECOG_CONF	n/a	LTP122	ltpFR	6	3	n/a	GUN	673	5	n/a	n/a	n/a	n/a	n/a	n/a
3235377	RECOG_TARGET	n/a	LTP122	ltpFR	6	3	0	CANDLE	229	5	0	n/a	n/a	n/a	n/a	n/a
3236880	RECOG_RESP	n/a	LTP122	ltpFR	6	3	0	CANDLE	229	n/a	0	n/a	n/a	n/a	n/a	n/a
3237668	RECOG_CONF	n/a	LTP122	ltpFR	6	3	0	CANDLE	229	5	0	n/a	n/a	n/a	n/a	n/a
3239343	RECOG_TARGET	n/a	LTP122	ltpFR	6	3	0	CAGE	218	5	0	n/a	n/a	n/a	n/a	n/a
3239943	RECOG_RESP	n/a	LTP122	ltpFR	6	3	0	CAGE	218	n/a	0	n/a	n/a	n/a	n/a	n/a
3240940	RECOG_CONF	n/a	LTP122	ltpFR	6	3	0	CAGE	218	5	0	n/a	n/a	n/a	n/a	n/a
3242533	RECOG_LURE	n/a	LTP122	ltpFR	6	3	n/a	BREAST	171	5	n/a	n/a	n/a	n/a	n/a	n/a
3243350	RECOG_RESP	n/a	LTP122	ltpFR	6	3	n/a	BREAST	171	n/a	n/a	n/a	n/a	n/a	n/a	n/a
3244263	RECOG_CONF	n/a	LTP122	ltpFR	6	3	n/a	BREAST	171	5	n/a	n/a	n/a	n/a	n/a	n/a
3245874	RECOG_LURE	n/a	LTP122	ltpFR	6	3	n/a	HEART	697	3	n/a	n/a	n/a	n/a	n/a	n/a
3246917	RECOG_RESP	n/a	LTP122	ltpFR	6	3	n/a	HEART	697	n/a	n/a	n/a	n/a	n/a	n/a	n/a
3247925	RECOG_CONF	n/a	LTP122	ltpFR	6	3	n/a	HEART	697	3	n/a	n/a	n/a	n/a	n/a	n/a
3249414	RECOG_TARGET	n/a	LTP122	ltpFR	6	3	-1	CHAIR	274	5	-1	n/a	n/a	n/a	n/a	n/a
3250219	RECOG_RESP	n/a	LTP122	ltpFR	6	3	-1	CHAIR	274	n/a	-1	n/a	n/a	n/a	n/a	n/a
3251028	RECOG_CONF	n/a	LTP122	ltpFR	6	3	-1	CHAIR	274	5	-1	n/a	n/a	n/a	n/a	n/a
3261031	REC_START	n/a	LTP122	ltpFR	6	4	n/a	n/a	n/a	n/a	n/a	n/a	n/a	n/a	n/a	n/a
3261068	RECOG_TARGET	n/a	LTP122	ltpFR	6	4	-1	TRUCK	1512	5	-1	n/a	n/a	n/a	n/a	n/a
3261714	RECOG_RESP	n/a	LTP122	ltpFR	6	4	-1	TRUCK	1512	n/a	-1	n/a	n/a	n/a	n/a	n/a
3262722	RECOG_CONF	n/a	LTP122	ltpFR	6	4	-1	TRUCK	1512	5	-1	n/a	n/a	n/a	n/a	n/a
3264175	RECOG_TARGET	n/a	LTP122	ltpFR	6	4	0	EMERALD	528	5	0	n/a	n/a	n/a	n/a	n/a
3264766	RECOG_RESP	n/a	LTP122	ltpFR	6	4	0	EMERALD	528	n/a	0	n/a	n/a	n/a	n/a	n/a
3265705	RECOG_CONF	n/a	LTP122	ltpFR	6	4	0	EMERALD	528	5	0	n/a	n/a	n/a	n/a	n/a
3267366	RECOG_TARGET	n/a	LTP122	ltpFR	6	4	1	PENNY	1045	5	0	n/a	n/a	n/a	n/a	n/a
3267930	RECOG_RESP	n/a	LTP122	ltpFR	6	4	1	PENNY	1045	n/a	0	n/a	n/a	n/a	n/a	n/a
3268948	RECOG_CONF	n/a	LTP122	ltpFR	6	4	1	PENNY	1045	5	0	n/a	n/a	n/a	n/a	n/a
3270598	RECOG_TARGET	n/a	LTP122	ltpFR	6	4	1	STEM	1376	5	1	n/a	n/a	n/a	n/a	n/a
3271213	RECOG_RESP	n/a	LTP122	ltpFR	6	4	1	STEM	1376	n/a	1	n/a	n/a	n/a	n/a	n/a
3272240	RECOG_CONF	n/a	LTP122	ltpFR	6	4	1	STEM	1376	5	1	n/a	n/a	n/a	n/a	n/a
3273714	RECOG_TARGET	n/a	LTP122	ltpFR	6	4	0	SCIENTIST	1249	5	1	n/a	n/a	n/a	n/a	n/a
3274326	RECOG_RESP	n/a	LTP122	ltpFR	6	4	0	SCIENTIST	1249	n/a	1	n/a	n/a	n/a	n/a	n/a
3275184	RECOG_CONF	n/a	LTP122	ltpFR	6	4	0	SCIENTIST	1249	5	1	n/a	n/a	n/a	n/a	n/a
3276713	RECOG_TARGET	n/a	LTP122	ltpFR	6	4	1	OPERA	978	5	1	n/a	n/a	n/a	n/a	n/a
3277314	RECOG_RESP	n/a	LTP122	ltpFR	6	4	1	OPERA	978	n/a	1	n/a	n/a	n/a	n/a	n/a
3278067	RECOG_CONF	n/a	LTP122	ltpFR	6	4	1	OPERA	978	5	1	n/a	n/a	n/a	n/a	n/a
3279911	RECOG_TARGET	n/a	LTP122	ltpFR	6	4	1	DOVE	491	5	1	n/a	n/a	n/a	n/a	n/a
3280521	RECOG_RESP	n/a	LTP122	ltpFR	6	4	1	DOVE	491	n/a	1	n/a	n/a	n/a	n/a	n/a
3281390	RECOG_CONF	n/a	LTP122	ltpFR	6	4	1	DOVE	491	5	1	n/a	n/a	n/a	n/a	n/a
3283127	RECOG_LURE	n/a	LTP122	ltpFR	6	4	n/a	MESSAGE	888	1	n/a	n/a	n/a	n/a	n/a	n/a
3285525	RECOG_RESP	n/a	LTP122	ltpFR	6	4	n/a	MESSAGE	888	n/a	n/a	n/a	n/a	n/a	n/a	n/a
3286588	RECOG_CONF	n/a	LTP122	ltpFR	6	4	n/a	MESSAGE	888	1	n/a	n/a	n/a	n/a	n/a	n/a
3288200	RECOG_TARGET	n/a	LTP122	ltpFR	6	4	0	SHERIFF	1284	5	1	n/a	n/a	n/a	n/a	n/a
3288848	RECOG_RESP	n/a	LTP122	ltpFR	6	4	0	SHERIFF	1284	n/a	1	n/a	n/a	n/a	n/a	n/a
3289960	RECOG_CONF	n/a	LTP122	ltpFR	6	4	0	SHERIFF	1284	5	1	n/a	n/a	n/a	n/a	n/a
3291499	RECOG_LURE	n/a	LTP122	ltpFR	6	4	n/a	ARMY	39	1	n/a	n/a	n/a	n/a	n/a	n/a
3293103	RECOG_RESP	n/a	LTP122	ltpFR	6	4	n/a	ARMY	39	n/a	n/a	n/a	n/a	n/a	n/a	n/a
3294131	RECOG_CONF	n/a	LTP122	ltpFR	6	4	n/a	ARMY	39	1	n/a	n/a	n/a	n/a	n/a	n/a
3295681	RECOG_TARGET	n/a	LTP122	ltpFR	6	4	0	BOUQUET	157	4	0	n/a	n/a	n/a	n/a	n/a
3296600	RECOG_RESP	n/a	LTP122	ltpFR	6	4	0	BOUQUET	157	n/a	0	n/a	n/a	n/a	n/a	n/a
3297413	RECOG_CONF	n/a	LTP122	ltpFR	6	4	0	BOUQUET	157	4	0	n/a	n/a	n/a	n/a	n/a
3299113	RECOG_TARGET	n/a	LTP122	ltpFR	6	4	0	SHEPHERD	1283	5	1	n/a	n/a	n/a	n/a	n/a
3299768	RECOG_RESP	n/a	LTP122	ltpFR	6	4	0	SHEPHERD	1283	n/a	1	n/a	n/a	n/a	n/a	n/a
3300716	RECOG_CONF	n/a	LTP122	ltpFR	6	4	0	SHEPHERD	1283	5	1	n/a	n/a	n/a	n/a	n/a
3302220	RECOG_TARGET	n/a	LTP122	ltpFR	6	4	-1	FUNERAL	613	1	-1	n/a	n/a	n/a	n/a	n/a
3302806	RECOG_RESP	n/a	LTP122	ltpFR	6	4	-1	FUNERAL	613	n/a	-1	n/a	n/a	n/a	n/a	n/a
3304018	RECOG_CONF	n/a	LTP122	ltpFR	6	4	-1	FUNERAL	613	1	-1	n/a	n/a	n/a	n/a	n/a
3305461	RECOG_TARGET	n/a	LTP122	ltpFR	6	4	0	SOAP	1337	5	0	n/a	n/a	n/a	n/a	n/a
3307126	RECOG_RESP	n/a	LTP122	ltpFR	6	4	0	SOAP	1337	n/a	0	n/a	n/a	n/a	n/a	n/a
3308019	RECOG_CONF	n/a	LTP122	ltpFR	6	4	0	SOAP	1337	5	0	n/a	n/a	n/a	n/a	n/a
3309509	RECOG_TARGET	n/a	LTP122	ltpFR	6	4	0	PALM	1007	5	1	n/a	n/a	n/a	n/a	n/a
3310129	RECOG_RESP	n/a	LTP122	ltpFR	6	4	0	PALM	1007	n/a	1	n/a	n/a	n/a	n/a	n/a
3310902	RECOG_CONF	n/a	LTP122	ltpFR	6	4	0	PALM	1007	5	1	n/a	n/a	n/a	n/a	n/a
3312575	RECOG_TARGET	n/a	LTP122	ltpFR	6	4	1	QUAIL	1147	5	1	n/a	n/a	n/a	n/a	n/a
3313267	RECOG_RESP	n/a	LTP122	ltpFR	6	4	1	QUAIL	1147	n/a	1	n/a	n/a	n/a	n/a	n/a
3314245	RECOG_CONF	n/a	LTP122	ltpFR	6	4	1	QUAIL	1147	5	1	n/a	n/a	n/a	n/a	n/a
3315607	RECOG_TARGET	n/a	LTP122	ltpFR	6	4	-1	CHIP	303	1	-1	n/a	n/a	n/a	n/a	n/a
3316240	RECOG_RESP	n/a	LTP122	ltpFR	6	4	-1	CHIP	303	n/a	-1	n/a	n/a	n/a	n/a	n/a
3317248	RECOG_CONF	n/a	LTP122	ltpFR	6	4	-1	CHIP	303	1	-1	n/a	n/a	n/a	n/a	n/a
3318673	RECOG_TARGET	n/a	LTP122	ltpFR	6	4	-1	CLOTHES	327	5	-1	n/a	n/a	n/a	n/a	n/a
3319293	RECOG_RESP	n/a	LTP122	ltpFR	6	4	-1	CLOTHES	327	n/a	-1	n/a	n/a	n/a	n/a	n/a
3320131	RECOG_CONF	n/a	LTP122	ltpFR	6	4	-1	CLOTHES	327	5	-1	n/a	n/a	n/a	n/a	n/a
3321680	RECOG_TARGET	n/a	LTP122	ltpFR	6	4	1	GOAT	644	5	1	n/a	n/a	n/a	n/a	n/a
3322152	RECOG_RESP	n/a	LTP122	ltpFR	6	4	1	GOAT	644	n/a	1	n/a	n/a	n/a	n/a	n/a
3323015	RECOG_CONF	n/a	LTP122	ltpFR	6	4	1	GOAT	644	5	1	n/a	n/a	n/a	n/a	n/a
3324521	RECOG_TARGET	n/a	LTP122	ltpFR	6	4	0	DASHBOARD	441	5	1	n/a	n/a	n/a	n/a	n/a
3325255	RECOG_RESP	n/a	LTP122	ltpFR	6	4	0	DASHBOARD	441	n/a	1	n/a	n/a	n/a	n/a	n/a
3326008	RECOG_CONF	n/a	LTP122	ltpFR	6	4	0	DASHBOARD	441	5	1	n/a	n/a	n/a	n/a	n/a
3333624	REC_START	n/a	LTP122	ltpFR	6	5	n/a	n/a	n/a	n/a	n/a	n/a	n/a	n/a	n/a	n/a
3333659	RECOG_TARGET	n/a	LTP122	ltpFR	6	5	0	TICK	1463	5	0	n/a	n/a	n/a	n/a	n/a
3334212	RECOG_RESP	n/a	LTP122	ltpFR	6	5	0	TICK	1463	n/a	0	n/a	n/a	n/a	n/a	n/a
3335225	RECOG_CONF	n/a	LTP122	ltpFR	6	5	0	TICK	1463	5	0	n/a	n/a	n/a	n/a	n/a
3336692	RECOG_TARGET	n/a	LTP122	ltpFR	6	5	1	TAIL	1430	5	0	n/a	n/a	n/a	n/a	n/a
3337315	RECOG_RESP	n/a	LTP122	ltpFR	6	5	1	TAIL	1430	n/a	0	n/a	n/a	n/a	n/a	n/a
3338288	RECOG_CONF	n/a	LTP122	ltpFR	6	5	1	TAIL	1430	5	0	n/a	n/a	n/a	n/a	n/a
3339774	RECOG_TARGET	n/a	LTP122	ltpFR	6	5	1	SKIN	1318	5	1	n/a	n/a	n/a	n/a	n/a
3340279	RECOG_RESP	n/a	LTP122	ltpFR	6	5	1	SKIN	1318	n/a	1	n/a	n/a	n/a	n/a	n/a
3341291	RECOG_CONF	n/a	LTP122	ltpFR	6	5	1	SKIN	1318	5	1	n/a	n/a	n/a	n/a	n/a
3342881	RECOG_TARGET	n/a	LTP122	ltpFR	6	5	1	SHELL	1281	5	0	n/a	n/a	n/a	n/a	n/a
3343436	RECOG_RESP	n/a	LTP122	ltpFR	6	5	1	SHELL	1281	n/a	0	n/a	n/a	n/a	n/a	n/a
3344464	RECOG_CONF	n/a	LTP122	ltpFR	6	5	1	SHELL	1281	5	0	n/a	n/a	n/a	n/a	n/a
3346021	RECOG_TARGET	n/a	LTP122	ltpFR	6	5	0	SPOON	1357	5	0	n/a	n/a	n/a	n/a	n/a
3346739	RECOG_RESP	n/a	LTP122	ltpFR	6	5	0	SPOON	1357	n/a	0	n/a	n/a	n/a	n/a	n/a
3347677	RECOG_CONF	n/a	LTP122	ltpFR	6	5	0	SPOON	1357	5	0	n/a	n/a	n/a	n/a	n/a
3349262	RECOG_TARGET	n/a	LTP122	ltpFR	6	5	1	HOSE	720	5	0	n/a	n/a	n/a	n/a	n/a
3349837	RECOG_RESP	n/a	LTP122	ltpFR	6	5	1	HOSE	720	n/a	0	n/a	n/a	n/a	n/a	n/a
3350760	RECOG_CONF	n/a	LTP122	ltpFR	6	5	1	HOSE	720	5	0	n/a	n/a	n/a	n/a	n/a
3352369	RECOG_TARGET	n/a	LTP122	ltpFR	6	5	-1	TREAD	1499	5	-1	n/a	n/a	n/a	n/a	n/a
3353753	RECOG_RESP	n/a	LTP122	ltpFR	6	5	-1	TREAD	1499	n/a	-1	n/a	n/a	n/a	n/a	n/a
3354741	RECOG_CONF	n/a	LTP122	ltpFR	6	5	-1	TREAD	1499	5	-1	n/a	n/a	n/a	n/a	n/a
3356259	RECOG_TARGET	n/a	LTP122	ltpFR	6	5	-1	BAKER	71	5	-1	n/a	n/a	n/a	n/a	n/a
3356976	RECOG_RESP	n/a	LTP122	ltpFR	6	5	-1	BAKER	71	n/a	-1	n/a	n/a	n/a	n/a	n/a
3358033	RECOG_CONF	n/a	LTP122	ltpFR	6	5	-1	BAKER	71	5	-1	n/a	n/a	n/a	n/a	n/a
3359667	RECOG_TARGET	n/a	LTP122	ltpFR	6	5	0	VESSEL	1558	5	1	n/a	n/a	n/a	n/a	n/a
3360243	RECOG_RESP	n/a	LTP122	ltpFR	6	5	0	VESSEL	1558	n/a	1	n/a	n/a	n/a	n/a	n/a
3361216	RECOG_CONF	n/a	LTP122	ltpFR	6	5	0	VESSEL	1558	5	1	n/a	n/a	n/a	n/a	n/a
3362865	RECOG_TARGET	n/a	LTP122	ltpFR	6	5	1	CHECK	284	4	0	n/a	n/a	n/a	n/a	n/a
3363551	RECOG_RESP	n/a	LTP122	ltpFR	6	5	1	CHECK	284	n/a	0	n/a	n/a	n/a	n/a	n/a
3364509	RECOG_CONF	n/a	LTP122	ltpFR	6	5	1	CHECK	284	4	0	n/a	n/a	n/a	n/a	n/a
3365939	RECOG_TARGET	n/a	LTP122	ltpFR	6	5	0	CLOSET	326	5	0	n/a	n/a	n/a	n/a	n/a
3366664	RECOG_RESP	n/a	LTP122	ltpFR	6	5	0	CLOSET	326	n/a	0	n/a	n/a	n/a	n/a	n/a
3367632	RECOG_CONF	n/a	LTP122	ltpFR	6	5	0	CLOSET	326	5	0	n/a	n/a	n/a	n/a	n/a
3369138	RECOG_TARGET	n/a	LTP122	ltpFR	6	5	-1	AWARD	63	5	-1	n/a	n/a	n/a	n/a	n/a
3369886	RECOG_RESP	n/a	LTP122	ltpFR	6	5	-1	AWARD	63	n/a	-1	n/a	n/a	n/a	n/a	n/a
3370834	RECOG_CONF	n/a	LTP122	ltpFR	6	5	-1	AWARD	63	5	-1	n/a	n/a	n/a	n/a	n/a
3372379	RECOG_TARGET	n/a	LTP122	ltpFR	6	5	0	ROOM	1206	4	1	n/a	n/a	n/a	n/a	n/a
3373129	RECOG_RESP	n/a	LTP122	ltpFR	6	5	0	ROOM	1206	n/a	1	n/a	n/a	n/a	n/a	n/a
3374476	RECOG_CONF	n/a	LTP122	ltpFR	6	5	0	ROOM	1206	4	1	n/a	n/a	n/a	n/a	n/a
3375927	RECOG_LURE	n/a	LTP122	ltpFR	6	5	n/a	DISH	474	5	n/a	n/a	n/a	n/a	n/a	n/a
3376641	RECOG_RESP	n/a	LTP122	ltpFR	6	5	n/a	DISH	474	n/a	n/a	n/a	n/a	n/a	n/a	n/a
3377798	RECOG_CONF	n/a	LTP122	ltpFR	6	5	n/a	DISH	474	5	n/a	n/a	n/a	n/a	n/a	n/a
3379493	RECOG_TARGET	n/a	LTP122	ltpFR	6	5	1	BEAN	105	4	1	n/a	n/a	n/a	n/a	n/a
3380278	RECOG_RESP	n/a	LTP122	ltpFR	6	5	1	BEAN	105	n/a	1	n/a	n/a	n/a	n/a	n/a
3381231	RECOG_CONF	n/a	LTP122	ltpFR	6	5	1	BEAN	105	4	1	n/a	n/a	n/a	n/a	n/a
3382767	RECOG_LURE	n/a	LTP122	ltpFR	6	5	n/a	WIFE	1609	5	n/a	n/a	n/a	n/a	n/a	n/a
3383540	RECOG_RESP	n/a	LTP122	ltpFR	6	5	n/a	WIFE	1609	n/a	n/a	n/a	n/a	n/a	n/a	n/a
3384284	RECOG_CONF	n/a	LTP122	ltpFR	6	5	n/a	WIFE	1609	5	n/a	n/a	n/a	n/a	n/a	n/a
3385899	RECOG_TARGET	n/a	LTP122	ltpFR	6	5	1	BLENDER	136	5	0	n/a	n/a	n/a	n/a	n/a
3386693	RECOG_RESP	n/a	LTP122	ltpFR	6	5	1	BLENDER	136	n/a	0	n/a	n/a	n/a	n/a	n/a
3387506	RECOG_CONF	n/a	LTP122	ltpFR	6	5	1	BLENDER	136	5	0	n/a	n/a	n/a	n/a	n/a
3389189	RECOG_TARGET	n/a	LTP122	ltpFR	6	5	0	WHISKERS	1605	5	0	n/a	n/a	n/a	n/a	n/a
3389986	RECOG_RESP	n/a	LTP122	ltpFR	6	5	0	WHISKERS	1605	n/a	0	n/a	n/a	n/a	n/a	n/a
3390968	RECOG_CONF	n/a	LTP122	ltpFR	6	5	0	WHISKERS	1605	5	0	n/a	n/a	n/a	n/a	n/a
3392613	RECOG_TARGET	n/a	LTP122	ltpFR	6	5	0	NIECE	952	5	1	n/a	n/a	n/a	n/a	n/a
3393278	RECOG_RESP	n/a	LTP122	ltpFR	6	5	0	NIECE	952	n/a	1	n/a	n/a	n/a	n/a	n/a
3394211	RECOG_CONF	n/a	LTP122	ltpFR	6	5	0	NIECE	952	5	1	n/a	n/a	n/a	n/a	n/a
3395737	RECOG_LURE	n/a	LTP122	ltpFR	6	5	n/a	SHOE	1288	1	n/a	n/a	n/a	n/a	n/a	n/a
3396770	RECOG_RESP	n/a	LTP122	ltpFR	6	5	n/a	SHOE	1288	n/a	n/a	n/a	n/a	n/a	n/a	n/a
3397653	RECOG_CONF	n/a	LTP122	ltpFR	6	5	n/a	SHOE	1288	1	n/a	n/a	n/a	n/a	n/a	n/a
3429059	REC_START	n/a	LTP122	ltpFR	6	6	n/a	n/a	n/a	n/a	n/a	n/a	n/a	n/a	n/a	n/a
3429092	RECOG_LURE	n/a	LTP122	ltpFR	6	6	n/a	EGG	518	1	n/a	n/a	n/a	n/a	n/a	n/a
3430071	RECOG_RESP	n/a	LTP122	ltpFR	6	6	n/a	EGG	518	n/a	n/a	n/a	n/a	n/a	n/a	n/a
3431049	RECOG_CONF	n/a	LTP122	ltpFR	6	6	n/a	EGG	518	1	n/a	n/a	n/a	n/a	n/a	n/a
3432591	RECOG_TARGET	n/a	LTP122	ltpFR	6	6	0	NUT	965	1	0	n/a	n/a	n/a	n/a	n/a
3434232	RECOG_RESP	n/a	LTP122	ltpFR	6	6	0	NUT	965	n/a	0	n/a	n/a	n/a	n/a	n/a
3435220	RECOG_CONF	n/a	LTP122	ltpFR	6	6	0	NUT	965	1	0	n/a	n/a	n/a	n/a	n/a
3436656	RECOG_TARGET	n/a	LTP122	ltpFR	6	6	-1	GRILL	661	5	-1	n/a	n/a	n/a	n/a	n/a
3437390	RECOG_RESP	n/a	LTP122	ltpFR	6	6	-1	GRILL	661	n/a	-1	n/a	n/a	n/a	n/a	n/a
3438283	RECOG_CONF	n/a	LTP122	ltpFR	6	6	-1	GRILL	661	5	-1	n/a	n/a	n/a	n/a	n/a
3439730	RECOG_TARGET	n/a	LTP122	ltpFR	6	6	1	DOUGHNUT	490	4	1	n/a	n/a	n/a	n/a	n/a
3440383	RECOG_RESP	n/a	LTP122	ltpFR	6	6	1	DOUGHNUT	490	n/a	1	n/a	n/a	n/a	n/a	n/a
3441286	RECOG_CONF	n/a	LTP122	ltpFR	6	6	1	DOUGHNUT	490	4	1	n/a	n/a	n/a	n/a	n/a
3442696	RECOG_TARGET	n/a	LTP122	ltpFR	6	6	0	CUSTOMER	430	5	1	n/a	n/a	n/a	n/a	n/a
3444130	RECOG_RESP	n/a	LTP122	ltpFR	6	6	0	CUSTOMER	430	n/a	1	n/a	n/a	n/a	n/a	n/a
3445077	RECOG_CONF	n/a	LTP122	ltpFR	6	6	0	CUSTOMER	430	5	1	n/a	n/a	n/a	n/a	n/a
3446594	RECOG_TARGET	n/a	LTP122	ltpFR	6	6	1	MOOSE	915	5	1	n/a	n/a	n/a	n/a	n/a
3447232	RECOG_RESP	n/a	LTP122	ltpFR	6	6	1	MOOSE	915	n/a	1	n/a	n/a	n/a	n/a	n/a
3448190	RECOG_CONF	n/a	LTP122	ltpFR	6	6	1	MOOSE	915	5	1	n/a	n/a	n/a	n/a	n/a
3449735	RECOG_TARGET	n/a	LTP122	ltpFR	6	6	1	THUMB	1462	5	0	n/a	n/a	n/a	n/a	n/a
3450490	RECOG_RESP	n/a	LTP122	ltpFR	6	6	1	THUMB	1462	n/a	0	n/a	n/a	n/a	n/a	n/a
3451473	RECOG_CONF	n/a	LTP122	ltpFR	6	6	1	THUMB	1462	5	0	n/a	n/a	n/a	n/a	n/a
3452967	RECOG_TARGET	n/a	LTP122	ltpFR	6	6	1	COSTUME	383	5	0	n/a	n/a	n/a	n/a	n/a
3453658	RECOG_RESP	n/a	LTP122	ltpFR	6	6	1	COSTUME	383	n/a	0	n/a	n/a	n/a	n/a	n/a
3454586	RECOG_CONF	n/a	LTP122	ltpFR	6	6	1	COSTUME	383	5	0	n/a	n/a	n/a	n/a	n/a
3456116	RECOG_TARGET	n/a	LTP122	ltpFR	6	6	1	TRENCH	1503	5	0	n/a	n/a	n/a	n/a	n/a
3456821	RECOG_RESP	n/a	LTP122	ltpFR	6	6	1	TRENCH	1503	n/a	0	n/a	n/a	n/a	n/a	n/a
3457709	RECOG_CONF	n/a	LTP122	ltpFR	6	6	1	TRENCH	1503	5	0	n/a	n/a	n/a	n/a	n/a
3459081	RECOG_LURE	n/a	LTP122	ltpFR	6	6	n/a	LABEL	790	1	n/a	n/a	n/a	n/a	n/a	n/a
3460862	RECOG_RESP	n/a	LTP122	ltpFR	6	6	n/a	LABEL	790	n/a	n/a	n/a	n/a	n/a	n/a	n/a
3461759	RECOG_CONF	n/a	LTP122	ltpFR	6	6	n/a	LABEL	790	1	n/a	n/a	n/a	n/a	n/a	n/a
3463388	RECOG_LURE	n/a	LTP122	ltpFR	6	6	n/a	CLASS	318	1	n/a	n/a	n/a	n/a	n/a	n/a
3464284	RECOG_RESP	n/a	LTP122	ltpFR	6	6	n/a	CLASS	318	n/a	n/a	n/a	n/a	n/a	n/a	n/a
3465252	RECOG_CONF	n/a	LTP122	ltpFR	6	6	n/a	CLASS	318	1	n/a	n/a	n/a	n/a	n/a	n/a
3466795	RECOG_TARGET	n/a	LTP122	ltpFR	6	6	0	FOLLOWER	589	4	1	n/a	n/a	n/a	n/a	n/a
3467801	RECOG_RESP	n/a	LTP122	ltpFR	6	6	0	FOLLOWER	589	n/a	1	n/a	n/a	n/a	n/a	n/a
3468803	RECOG_CONF	n/a	LTP122	ltpFR	6	6	0	FOLLOWER	589	4	1	n/a	n/a	n/a	n/a	n/a
3470444	RECOG_LURE	n/a	LTP122	ltpFR	6	6	n/a	GRAPE	654	4	n/a	n/a	n/a	n/a	n/a	n/a
3471582	RECOG_RESP	n/a	LTP122	ltpFR	6	6	n/a	GRAPE	654	n/a	n/a	n/a	n/a	n/a	n/a	n/a
3472625	RECOG_CONF	n/a	LTP122	ltpFR	6	6	n/a	GRAPE	654	4	n/a	n/a	n/a	n/a	n/a	n/a
3474276	RECOG_TARGET	n/a	LTP122	ltpFR	6	6	0	BINDER	127	5	1	n/a	n/a	n/a	n/a	n/a
3475139	RECOG_RESP	n/a	LTP122	ltpFR	6	6	0	BINDER	127	n/a	1	n/a	n/a	n/a	n/a	n/a
3476137	RECOG_CONF	n/a	LTP122	ltpFR	6	6	0	BINDER	127	5	1	n/a	n/a	n/a	n/a	n/a
3477775	RECOG_TARGET	n/a	LTP122	ltpFR	6	6	1	GLOBE	641	5	0	n/a	n/a	n/a	n/a	n/a
3478636	RECOG_RESP	n/a	LTP122	ltpFR	6	6	1	GLOBE	641	n/a	0	n/a	n/a	n/a	n/a	n/a
3479629	RECOG_CONF	n/a	LTP122	ltpFR	6	6	1	GLOBE	641	5	0	n/a	n/a	n/a	n/a	n/a
3481190	RECOG_LURE	n/a	LTP122	ltpFR	6	6	n/a	BULB	192	1	n/a	n/a	n/a	n/a	n/a	n/a
3483730	RECOG_RESP	n/a	LTP122	ltpFR	6	6	n/a	BULB	192	n/a	n/a	n/a	n/a	n/a	n/a	n/a
3484657	RECOG_CONF	n/a	LTP122	ltpFR	6	6	n/a	BULB	192	1	n/a	n/a	n/a	n/a	n/a	n/a
3486163	RECOG_TARGET	n/a	LTP122	ltpFR	6	6	0	SKUNK	1321	5	1	n/a	n/a	n/a	n/a	n/a
3486783	RECOG_RESP	n/a	LTP122	ltpFR	6	6	0	SKUNK	1321	n/a	1	n/a	n/a	n/a	n/a	n/a
3487810	RECOG_CONF	n/a	LTP122	ltpFR	6	6	0	SKUNK	1321	5	1	n/a	n/a	n/a	n/a	n/a
3489246	RECOG_TARGET	n/a	LTP122	ltpFR	6	6	-1	VIOLIN	1571	1	-1	n/a	n/a	n/a	n/a	n/a
3490025	RECOG_RESP	n/a	LTP122	ltpFR	6	6	-1	VIOLIN	1571	n/a	-1	n/a	n/a	n/a	n/a	n/a
3490953	RECOG_CONF	n/a	LTP122	ltpFR	6	6	-1	VIOLIN	1571	1	-1	n/a	n/a	n/a	n/a	n/a
3492428	RECOG_TARGET	n/a	LTP122	ltpFR	6	6	-1	APPLE	33	5	-1	n/a	n/a	n/a	n/a	n/a
3493991	RECOG_RESP	n/a	LTP122	ltpFR	6	6	-1	APPLE	33	n/a	-1	n/a	n/a	n/a	n/a	n/a
3494994	RECOG_CONF	n/a	LTP122	ltpFR	6	6	-1	APPLE	33	5	-1	n/a	n/a	n/a	n/a	n/a
3496451	RECOG_TARGET	n/a	LTP122	ltpFR	6	6	-1	BASEBALL	93	5	-1	n/a	n/a	n/a	n/a	n/a
3497304	RECOG_RESP	n/a	LTP122	ltpFR	6	6	-1	BASEBALL	93	n/a	-1	n/a	n/a	n/a	n/a	n/a
3498386	RECOG_CONF	n/a	LTP122	ltpFR	6	6	-1	BASEBALL	93	5	-1	n/a	n/a	n/a	n/a	n/a
3505946	REC_START	n/a	LTP122	ltpFR	6	7	n/a	n/a	n/a	n/a	n/a	n/a	n/a	n/a	n/a	n/a
3505981	RECOG_TARGET	n/a	LTP122	ltpFR	6	7	1	CAPE	237	5	0	n/a	n/a	n/a	n/a	n/a
3507258	RECOG_RESP	n/a	LTP122	ltpFR	6	7	1	CAPE	237	n/a	0	n/a	n/a	n/a	n/a	n/a
3508176	RECOG_CONF	n/a	LTP122	ltpFR	6	7	1	CAPE	237	5	0	n/a	n/a	n/a	n/a	n/a
3509672	RECOG_LURE	n/a	LTP122	ltpFR	6	7	n/a	GOWN	652	1	n/a	n/a	n/a	n/a	n/a	n/a
3510101	RECOG_RESP_VV	n/a	LTP122	ltpFR	6	7	n/a	GOWN	652	n/a	n/a	n/a	n/a	n/a	n/a	n/a
3510715	RECOG_RESP	n/a	LTP122	ltpFR	6	7	n/a	GOWN	652	n/a	n/a	n/a	n/a	n/a	n/a	n/a
3511688	RECOG_CONF	n/a	LTP122	ltpFR	6	7	n/a	GOWN	652	1	n/a	n/a	n/a	n/a	n/a	n/a
3513279	RECOG_TARGET	n/a	LTP122	ltpFR	6	7	1	SWAMP	1416	2	0	n/a	n/a	n/a	n/a	n/a
3514017	RECOG_RESP	n/a	LTP122	ltpFR	6	7	1	SWAMP	1416	n/a	0	n/a	n/a	n/a	n/a	n/a
3515080	RECOG_CONF	n/a	LTP122	ltpFR	6	7	1	SWAMP	1416	2	0	n/a	n/a	n/a	n/a	n/a
3516586	RECOG_TARGET	n/a	LTP122	ltpFR	6	7	-1	DILL	465	5	-1	n/a	n/a	n/a	n/a	n/a
3517180	RECOG_RESP	n/a	LTP122	ltpFR	6	7	-1	DILL	465	n/a	-1	n/a	n/a	n/a	n/a	n/a
3518023	RECOG_CONF	n/a	LTP122	ltpFR	6	7	-1	DILL	465	5	-1	n/a	n/a	n/a	n/a	n/a
3519510	RECOG_TARGET	n/a	LTP122	ltpFR	6	7	1	ARCHITECT	36	5	1	n/a	n/a	n/a	n/a	n/a
3520498	RECOG_RESP	n/a	LTP122	ltpFR	6	7	1	ARCHITECT	36	n/a	1	n/a	n/a	n/a	n/a	n/a
3521376	RECOG_CONF	n/a	LTP122	ltpFR	6	7	1	ARCHITECT	36	5	1	n/a	n/a	n/a	n/a	n/a
3522775	RECOG_LURE	n/a	LTP122	ltpFR	6	7	n/a	HALL	677	1	n/a	n/a	n/a	n/a	n/a	n/a
3523705	RECOG_RESP	n/a	LTP122	ltpFR	6	7	n/a	HALL	677	n/a	n/a	n/a	n/a	n/a	n/a	n/a
3524509	RECOG_CONF	n/a	LTP122	ltpFR	6	7	n/a	HALL	677	1	n/a	n/a	n/a	n/a	n/a	n/a
3525941	RECOG_TARGET	n/a	LTP122	ltpFR	6	7	0	EDITORIAL	517	5	0	n/a	n/a	n/a	n/a	n/a
3526629	RECOG_RESP	n/a	LTP122	ltpFR	6	7	0	EDITORIAL	517	n/a	0	n/a	n/a	n/a	n/a	n/a
3527462	RECOG_CONF	n/a	LTP122	ltpFR	6	7	0	EDITORIAL	517	5	0	n/a	n/a	n/a	n/a	n/a
3529140	RECOG_TARGET	n/a	LTP122	ltpFR	6	7	-1	OINTMENT	974	5	-1	n/a	n/a	n/a	n/a	n/a
3529772	RECOG_RESP	n/a	LTP122	ltpFR	6	7	-1	OINTMENT	974	n/a	-1	n/a	n/a	n/a	n/a	n/a
3530695	RECOG_CONF	n/a	LTP122	ltpFR	6	7	-1	OINTMENT	974	5	-1	n/a	n/a	n/a	n/a	n/a
3532239	RECOG_LURE	n/a	LTP122	ltpFR	6	7	n/a	GRIZZLY	662	4	n/a	n/a	n/a	n/a	n/a	n/a
3532974	RECOG_RESP	n/a	LTP122	ltpFR	6	7	n/a	GRIZZLY	662	n/a	n/a	n/a	n/a	n/a	n/a	n/a
3534077	RECOG_CONF	n/a	LTP122	ltpFR	6	7	n/a	GRIZZLY	662	4	n/a	n/a	n/a	n/a	n/a	n/a
3535521	RECOG_TARGET	n/a	LTP122	ltpFR	6	7	-1	COTTAGE	384	5	-1	n/a	n/a	n/a	n/a	n/a
3536122	RECOG_RESP	n/a	LTP122	ltpFR	6	7	-1	COTTAGE	384	n/a	-1	n/a	n/a	n/a	n/a	n/a
3536950	RECOG_CONF	n/a	LTP122	ltpFR	6	7	-1	COTTAGE	384	5	-1	n/a	n/a	n/a	n/a	n/a
3538478	RECOG_LURE	n/a	LTP122	ltpFR	6	7	n/a	CHILD	299	1	n/a	n/a	n/a	n/a	n/a	n/a
3539255	RECOG_RESP	n/a	LTP122	ltpFR	6	7	n/a	CHILD	299	n/a	n/a	n/a	n/a	n/a	n/a	n/a
3540053	RECOG_CONF	n/a	LTP122	ltpFR	6	7	n/a	CHILD	299	1	n/a	n/a	n/a	n/a	n/a	n/a
3541527	RECOG_LURE	n/a	LTP122	ltpFR	6	7	n/a	BUCKLE	185	2	n/a	n/a	n/a	n/a	n/a	n/a
3542273	RECOG_RESP	n/a	LTP122	ltpFR	6	7	n/a	BUCKLE	185	n/a	n/a	n/a	n/a	n/a	n/a	n/a
3543126	RECOG_CONF	n/a	LTP122	ltpFR	6	7	n/a	BUCKLE	185	2	n/a	n/a	n/a	n/a	n/a	n/a
3544509	RECOG_TARGET	n/a	LTP122	ltpFR	6	7	0	FELLOW	558	5	1	n/a	n/a	n/a	n/a	n/a
3545147	RECOG_RESP	n/a	LTP122	ltpFR	6	7	0	FELLOW	558	n/a	1	n/a	n/a	n/a	n/a	n/a
3546050	RECOG_CONF	n/a	LTP122	ltpFR	6	7	0	FELLOW	558	5	1	n/a	n/a	n/a	n/a	n/a
3547500	RECOG_TARGET	n/a	LTP122	ltpFR	6	7	-1	PADDING	999	5	-1	n/a	n/a	n/a	n/a	n/a
3548120	RECOG_RESP	n/a	LTP122	ltpFR	6	7	-1	PADDING	999	n/a	-1	n/a	n/a	n/a	n/a	n/a
3548943	RECOG_CONF	n/a	LTP122	ltpFR	6	7	-1	PADDING	999	5	-1	n/a	n/a	n/a	n/a	n/a
3550482	RECOG_TARGET	n/a	LTP122	ltpFR	6	7	0	KEG	770	5	1	n/a	n/a	n/a	n/a	n/a
3551138	RECOG_RESP	n/a	LTP122	ltpFR	6	7	0	KEG	770	n/a	1	n/a	n/a	n/a	n/a	n/a
3551956	RECOG_CONF	n/a	LTP122	ltpFR	6	7	0	KEG	770	5	1	n/a	n/a	n/a	n/a	n/a
3553523	RECOG_TARGET	n/a	LTP122	ltpFR	6	7	-1	HAMBURGER	679	5	-1	n/a	n/a	n/a	n/a	n/a
3554101	RECOG_RESP	n/a	LTP122	ltpFR	6	7	-1	HAMBURGER	679	n/a	-1	n/a	n/a	n/a	n/a	n/a
3554929	RECOG_CONF	n/a	LTP122	ltpFR	6	7	-1	HAMBURGER	679	5	-1	n/a	n/a	n/a	n/a	n/a
3556513	RECOG_TARGET	n/a	LTP122	ltpFR	6	7	0	PUBLICATION	1136	5	0	n/a	n/a	n/a	n/a	n/a
3557149	RECOG_RESP	n/a	LTP122	ltpFR	6	7	0	PUBLICATION	1136	n/a	0	n/a	n/a	n/a	n/a	n/a
3557953	RECOG_CONF	n/a	LTP122	ltpFR	6	7	0	PUBLICATION	1136	5	0	n/a	n/a	n/a	n/a	n/a
3559404	RECOG_LURE	n/a	LTP122	ltpFR	6	7	n/a	ASSISTANT	48	1	n/a	n/a	n/a	n/a	n/a	n/a
3560138	RECOG_RESP	n/a	LTP122	ltpFR	6	7	n/a	ASSISTANT	48	n/a	n/a	n/a	n/a	n/a	n/a	n/a
3560936	RECOG_CONF	n/a	LTP122	ltpFR	6	7	n/a	ASSISTANT	48	1	n/a	n/a	n/a	n/a	n/a	n/a
3562328	RECOG_TARGET	n/a	LTP122	ltpFR	6	7	-1	TOMBSTONE	1478	5	-1	n/a	n/a	n/a	n/a	n/a
3562961	RECOG_RESP	n/a	LTP122	ltpFR	6	7	-1	TOMBSTONE	1478	n/a	-1	n/a	n/a	n/a	n/a	n/a
3563720	RECOG_CONF	n/a	LTP122	ltpFR	6	7	-1	TOMBSTONE	1478	5	-1	n/a	n/a	n/a	n/a	n/a
3565285	RECOG_TARGET	n/a	LTP122	ltpFR	6	7	1	VEAL	1551	5	0	n/a	n/a	n/a	n/a	n/a
3565865	RECOG_RESP	n/a	LTP122	ltpFR	6	7	1	VEAL	1551	n/a	0	n/a	n/a	n/a	n/a	n/a
3566663	RECOG_CONF	n/a	LTP122	ltpFR	6	7	1	VEAL	1551	5	0	n/a	n/a	n/a	n/a	n/a
3570126	REC_START	n/a	LTP122	ltpFR	6	8	n/a	n/a	n/a	n/a	n/a	n/a	n/a	n/a	n/a	n/a
3570159	RECOG_TARGET	n/a	LTP122	ltpFR	6	8	0	COOK	372	4	1	n/a	n/a	n/a	n/a	n/a
3570764	RECOG_RESP	n/a	LTP122	ltpFR	6	8	0	COOK	372	n/a	1	n/a	n/a	n/a	n/a	n/a
3571478	RECOG_CONF	n/a	LTP122	ltpFR	6	8	0	COOK	372	4	1	n/a	n/a	n/a	n/a	n/a
3572924	RECOG_TARGET	n/a	LTP122	ltpFR	6	8	1	DORM	488	5	1	n/a	n/a	n/a	n/a	n/a
3573528	RECOG_RESP	n/a	LTP122	ltpFR	6	8	1	DORM	488	n/a	1	n/a	n/a	n/a	n/a	n/a
3574212	RECOG_CONF	n/a	LTP122	ltpFR	6	8	1	DORM	488	5	1	n/a	n/a	n/a	n/a	n/a
3575708	RECOG_TARGET	n/a	LTP122	ltpFR	6	8	0	JEWEL	757	5	0	n/a	n/a	n/a	n/a	n/a
3576302	RECOG_RESP	n/a	LTP122	ltpFR	6	8	0	JEWEL	757	n/a	0	n/a	n/a	n/a	n/a	n/a
3577125	RECOG_CONF	n/a	LTP122	ltpFR	6	8	0	JEWEL	757	5	0	n/a	n/a	n/a	n/a	n/a
3578497	RECOG_TARGET	n/a	LTP122	ltpFR	6	8	1	OTTER	986	5	1	n/a	n/a	n/a	n/a	n/a
3579105	RECOG_RESP	n/a	LTP122	ltpFR	6	8	1	OTTER	986	n/a	1	n/a	n/a	n/a	n/a	n/a
3579948	RECOG_CONF	n/a	LTP122	ltpFR	6	8	1	OTTER	986	5	1	n/a	n/a	n/a	n/a	n/a
3581421	RECOG_LURE	n/a	LTP122	ltpFR	6	8	n/a	BEE	112	1	n/a	n/a	n/a	n/a	n/a	n/a
3582288	RECOG_RESP	n/a	LTP122	ltpFR	6	8	n/a	BEE	112	n/a	n/a	n/a	n/a	n/a	n/a	n/a
3583570	RECOG_CONF	n/a	LTP122	ltpFR	6	8	n/a	BEE	112	1	n/a	n/a	n/a	n/a	n/a	n/a
3585020	RECOG_LURE	n/a	LTP122	ltpFR	6	8	n/a	GENTLEMAN	631	4	n/a	n/a	n/a	n/a	n/a	n/a
3585880	RECOG_RESP	n/a	LTP122	ltpFR	6	8	n/a	GENTLEMAN	631	n/a	n/a	n/a	n/a	n/a	n/a	n/a
3586633	RECOG_CONF	n/a	LTP122	ltpFR	6	8	n/a	GENTLEMAN	631	4	n/a	n/a	n/a	n/a	n/a	n/a
3588194	RECOG_LURE	n/a	LTP122	ltpFR	6	8	n/a	HURRICANE	727	5	n/a	n/a	n/a	n/a	n/a	n/a
3588953	RECOG_RESP	n/a	LTP122	ltpFR	6	8	n/a	HURRICANE	727	n/a	n/a	n/a	n/a	n/a	n/a	n/a
3589726	RECOG_CONF	n/a	LTP122	ltpFR	6	8	n/a	HURRICANE	727	5	n/a	n/a	n/a	n/a	n/a	n/a
3591234	RECOG_TARGET	n/a	LTP122	ltpFR	6	8	1	AGENT	10	5	1	n/a	n/a	n/a	n/a	n/a
3592111	RECOG_RESP	n/a	LTP122	ltpFR	6	8	1	AGENT	10	n/a	1	n/a	n/a	n/a	n/a	n/a
3592969	RECOG_CONF	n/a	LTP122	ltpFR	6	8	1	AGENT	10	5	1	n/a	n/a	n/a	n/a	n/a
3594533	RECOG_TARGET	n/a	LTP122	ltpFR	6	8	1	BUCKET	184	4	0	n/a	n/a	n/a	n/a	n/a
3595458	RECOG_RESP	n/a	LTP122	ltpFR	6	8	1	BUCKET	184	n/a	0	n/a	n/a	n/a	n/a	n/a
3596351	RECOG_CONF	n/a	LTP122	ltpFR	6	8	1	BUCKET	184	4	0	n/a	n/a	n/a	n/a	n/a
3597807	RECOG_TARGET	n/a	LTP122	ltpFR	6	8	-1	BOWL	158	5	-1	n/a	n/a	n/a	n/a	n/a
3598456	RECOG_RESP	n/a	LTP122	ltpFR	6	8	-1	BOWL	158	n/a	-1	n/a	n/a	n/a	n/a	n/a
3599305	RECOG_CONF	n/a	LTP122	ltpFR	6	8	-1	BOWL	158	5	-1	n/a	n/a	n/a	n/a	n/a
3600798	RECOG_TARGET	n/a	LTP122	ltpFR	6	8	0	WICK	1607	5	0	n/a	n/a	n/a	n/a	n/a
3601425	RECOG_RESP	n/a	LTP122	ltpFR	6	8	0	WICK	1607	n/a	0	n/a	n/a	n/a	n/a	n/a
3602248	RECOG_CONF	n/a	LTP122	ltpFR	6	8	0	WICK	1607	5	0	n/a	n/a	n/a	n/a	n/a
3603763	RECOG_TARGET	n/a	LTP122	ltpFR	6	8	1	SAGE	1222	5	0	n/a	n/a	n/a	n/a	n/a
3604413	RECOG_RESP	n/a	LTP122	ltpFR	6	8	1	SAGE	1222	n/a	0	n/a	n/a	n/a	n/a	n/a
3605251	RECOG_CONF	n/a	LTP122	ltpFR	6	8	1	SAGE	1222	5	0	n/a	n/a	n/a	n/a	n/a
3606812	RECOG_TARGET	n/a	LTP122	ltpFR	6	8	0	SERGEANT	1269	5	1	n/a	n/a	n/a	n/a	n/a
3607501	RECOG_RESP	n/a	LTP122	ltpFR	6	8	0	SERGEANT	1269	n/a	1	n/a	n/a	n/a	n/a	n/a
3608244	RECOG_CONF	n/a	LTP122	ltpFR	6	8	0	SERGEANT	1269	5	1	n/a	n/a	n/a	n/a	n/a
3609820	RECOG_TARGET	n/a	LTP122	ltpFR	6	8	0	BLUEJAY	141	5	1	n/a	n/a	n/a	n/a	n/a
3610414	RECOG_RESP	n/a	LTP122	ltpFR	6	8	0	BLUEJAY	141	n/a	1	n/a	n/a	n/a	n/a	n/a
3611277	RECOG_CONF	n/a	LTP122	ltpFR	6	8	0	BLUEJAY	141	5	1	n/a	n/a	n/a	n/a	n/a
3612719	RECOG_LURE	n/a	LTP122	ltpFR	6	8	n/a	CAKE	219	4	n/a	n/a	n/a	n/a	n/a	n/a
3613527	RECOG_RESP	n/a	LTP122	ltpFR	6	8	n/a	CAKE	219	n/a	n/a	n/a	n/a	n/a	n/a	n/a
3614201	RECOG_CONF	n/a	LTP122	ltpFR	6	8	n/a	CAKE	219	4	n/a	n/a	n/a	n/a	n/a	n/a
3615809	RECOG_TARGET	n/a	LTP122	ltpFR	6	8	1	SEAL	1262	5	1	n/a	n/a	n/a	n/a	n/a
3616381	RECOG_RESP	n/a	LTP122	ltpFR	6	8	1	SEAL	1262	n/a	1	n/a	n/a	n/a	n/a	n/a
3617234	RECOG_CONF	n/a	LTP122	ltpFR	6	8	1	SEAL	1262	5	1	n/a	n/a	n/a	n/a	n/a
3618775	RECOG_TARGET	n/a	LTP122	ltpFR	6	8	1	STAFF	1365	5	0	n/a	n/a	n/a	n/a	n/a
3619553	RECOG_RESP	n/a	LTP122	ltpFR	6	8	1	STAFF	1365	n/a	0	n/a	n/a	n/a	n/a	n/a
3620426	RECOG_CONF	n/a	LTP122	ltpFR	6	8	1	STAFF	1365	5	0	n/a	n/a	n/a	n/a	n/a
3621965	RECOG_LURE	n/a	LTP122	ltpFR	6	8	n/a	RAFT	1159	3	n/a	n/a	n/a	n/a	n/a	n/a
3622971	RECOG_RESP	n/a	LTP122	ltpFR	6	8	n/a	RAFT	1159	n/a	n/a	n/a	n/a	n/a	n/a	n/a
3623819	RECOG_CONF	n/a	LTP122	ltpFR	6	8	n/a	RAFT	1159	3	n/a	n/a	n/a	n/a	n/a	n/a
3625297	RECOG_LURE	n/a	LTP122	ltpFR	6	8	n/a	NOVEL	960	4	n/a	n/a	n/a	n/a	n/a	n/a
3626019	RECOG_RESP	n/a	LTP122	ltpFR	6	8	n/a	NOVEL	960	n/a	n/a	n/a	n/a	n/a	n/a	n/a
3626832	RECOG_CONF	n/a	LTP122	ltpFR	6	8	n/a	NOVEL	960	4	n/a	n/a	n/a	n/a	n/a	n/a
3628280	RECOG_TARGET	n/a	LTP122	ltpFR	6	8	-1	FURNITURE	616	5	-1	n/a	n/a	n/a	n/a	n/a
3628982	RECOG_RESP	n/a	LTP122	ltpFR	6	8	-1	FURNITURE	616	n/a	-1	n/a	n/a	n/a	n/a	n/a
3629785	RECOG_CONF	n/a	LTP122	ltpFR	6	8	-1	FURNITURE	616	5	-1	n/a	n/a	n/a	n/a	n/a
3634130	REC_START	n/a	LTP122	ltpFR	6	9	n/a	n/a	n/a	n/a	n/a	n/a	n/a	n/a	n/a	n/a
3634169	RECOG_TARGET	n/a	LTP122	ltpFR	6	9	1	MUSHROOM	934	5	1	n/a	n/a	n/a	n/a	n/a
3634758	RECOG_RESP	n/a	LTP122	ltpFR	6	9	1	MUSHROOM	934	n/a	1	n/a	n/a	n/a	n/a	n/a
3635542	RECOG_CONF	n/a	LTP122	ltpFR	6	9	1	MUSHROOM	934	5	1	n/a	n/a	n/a	n/a	n/a
3637060	RECOG_TARGET	n/a	LTP122	ltpFR	6	9	1	RANCH	1166	5	0	n/a	n/a	n/a	n/a	n/a
3637767	RECOG_RESP	n/a	LTP122	ltpFR	6	9	1	RANCH	1166	n/a	0	n/a	n/a	n/a	n/a	n/a
