onset	duration	trial_type	sample	stim_file	subject	experiment	session	trial	task	item_name	item_num	recog_resp	recog_conf	resp	color_r	color_g	color_b	case	font
232.066	n/a	SESS_START	116033	n/a	LTP150	ltpFR	5	n/a	n/a	n/a	n/a	0	1	n/a	n/a	n/a	n/a	n/a	n/a
264.724	n/a	WORD	132362	wordpools/wasnorm_wordpool.txt	LTP150	ltpFR	5	1	0	ANTLER	29	0	n/a	1	0.422607421875	0.5869140625	0	lower	zerothre.ttf
268.786	n/a	WORD	134393	wordpools/wasnorm_wordpool.txt	LTP150	ltpFR	5	1	0	BEAVER	109	n/a	n/a	1	0.422607421875	0.5869140625	0	lower	zerothre.ttf
272.932	n/a	WORD	136466	wordpools/wasnorm_wordpool.txt	LTP150	ltpFR	5	1	0	ANTEATER	26	n/a	n/a	1	0.422607421875	0.5869140625	0	lower	zerothre.ttf
276.82	n/a	WORD	138410	wordpools/wasnorm_wordpool.txt	LTP150	ltpFR	5	1	0	FIELD	562	n/a	n/a	1	0.422607421875	0.5869140625	0	lower	zerothre.ttf
280.79	n/a	WORD	140395	wordpools/wasnorm_wordpool.txt	LTP150	ltpFR	5	1	1	NAIL	936	n/a	n/a	0	0.57763671875	0.412841796875	1	upper	amplitud.ttf
284.602	n/a	WORD	142301	wordpools/wasnorm_wordpool.txt	LTP150	ltpFR	5	1	1	GAZELLE	628	n/a	n/a	1	0.57763671875	0.412841796875	1	upper	amplitud.ttf
288.788	n/a	WORD	144394	wordpools/wasnorm_wordpool.txt	LTP150	ltpFR	5	1	1	GRILL	661	n/a	n/a	0	0.57763671875	0.412841796875	1	upper	amplitud.ttf
292.826	n/a	WORD	146413	wordpools/wasnorm_wordpool.txt	LTP150	ltpFR	5	1	1	STEW	1380	n/a	n/a	0	0.57763671875	0.412841796875	1	upper	amplitud.ttf
296.98	n/a	WORD	148490	wordpools/wasnorm_wordpool.txt	LTP150	ltpFR	5	1	1	ROBIN	1199	n/a	n/a	1	0.57763671875	0.412841796875	1	upper	amplitud.ttf
300.85	n/a	WORD	150425	wordpools/wasnorm_wordpool.txt	LTP150	ltpFR	5	1	1	LAUNDRY	803	n/a	n/a	0	0.57763671875	0.412841796875	1	upper	amplitud.ttf
304.87	n/a	WORD	152435	wordpools/wasnorm_wordpool.txt	LTP150	ltpFR	5	1	0	CLOSET	326	n/a	n/a	1	0.422607421875	0.5869140625	0	lower	zerothre.ttf
308.708	n/a	WORD	154354	wordpools/wasnorm_wordpool.txt	LTP150	ltpFR	5	1	0	THREAD	1460	n/a	n/a	0	0.422607421875	0.5869140625	0	lower	zerothre.ttf
312.702	n/a	WORD	156351	wordpools/wasnorm_wordpool.txt	LTP150	ltpFR	5	1	0	DOCTOR	478	n/a	n/a	1	0.422607421875	0.5869140625	0	lower	zerothre.ttf
316.64	n/a	WORD	158320	wordpools/wasnorm_wordpool.txt	LTP150	ltpFR	5	1	0	PLANT	1083	n/a	n/a	1	0.422607421875	0.5869140625	0	lower	zerothre.ttf
320.552	n/a	WORD	160276	wordpools/wasnorm_wordpool.txt	LTP150	ltpFR	5	1	1	WOLF	1619	n/a	n/a	1	0.57763671875	0.412841796875	1	upper	amplitud.ttf
324.714	n/a	WORD	162357	wordpools/wasnorm_wordpool.txt	LTP150	ltpFR	5	1	1	CARDINAL	244	n/a	n/a	1	0.57763671875	0.412841796875	1	upper	amplitud.ttf
330.434	n/a	REC_START	165217	n/a	LTP150	ltpFR	5	1	n/a	n/a	n/a	n/a	n/a	n/a	n/a	n/a	n/a	n/a	n/a
331.512	n/a	REC_WORD	165756	wordpools/wasnorm_wordpool.txt	LTP150	ltpFR	5	1	0	PLANT	1083	n/a	n/a	1	n/a	n/a	n/a	n/a	n/a
333.334	n/a	REC_WORD	166667	wordpools/wasnorm_wordpool.txt	LTP150	ltpFR	5	1	1	WOLF	1619	n/a	n/a	1	n/a	n/a	n/a	n/a	n/a
334.908	n/a	REC_WORD	167454	wordpools/wasnorm_wordpool.txt	LTP150	ltpFR	5	1	1	CARDINAL	244	n/a	n/a	1	n/a	n/a	n/a	n/a	n/a
336.442	n/a	REC_WORD	168221	wordpools/wasnorm_wordpool.txt	LTP150	ltpFR	5	1	0	DOCTOR	478	n/a	n/a	1	n/a	n/a	n/a	n/a	n/a
338.036	n/a	REC_WORD	169018	wordpools/wasnorm_wordpool.txt	LTP150	ltpFR	5	1	0	THREAD	1460	n/a	n/a	0	n/a	n/a	n/a	n/a	n/a
341.242	n/a	REC_WORD	170621	wordpools/wasnorm_wordpool.txt	LTP150	ltpFR	5	1	1	ROBIN	1199	n/a	n/a	1	n/a	n/a	n/a	n/a	n/a
342.956	n/a	REC_WORD	171478	wordpools/wasnorm_wordpool.txt	LTP150	ltpFR	5	1	1	LAUNDRY	803	n/a	n/a	0	n/a	n/a	n/a	n/a	n/a
344.434	n/a	REC_WORD	172217	wordpools/wasnorm_wordpool.txt	LTP150	ltpFR	5	1	0	CLOSET	326	n/a	n/a	1	n/a	n/a	n/a	n/a	n/a
351.37	n/a	REC_WORD	175685	wordpools/wasnorm_wordpool.txt	LTP150	ltpFR	5	1	1	NAIL	936	n/a	n/a	0	n/a	n/a	n/a	n/a	n/a
362.928	n/a	REC_WORD	181464	wordpools/wasnorm_wordpool.txt	LTP150	ltpFR	5	1	0	ANTLER	29	n/a	n/a	1	n/a	n/a	n/a	n/a	n/a
364.04	n/a	REC_WORD_VV	182020	wordpools/wasnorm_wordpool.txt	LTP150	ltpFR	5	1	n/a	<>	-1	n/a	n/a	n/a	n/a	n/a	n/a	n/a	n/a
364.82	n/a	REC_WORD	182410	wordpools/wasnorm_wordpool.txt	LTP150	ltpFR	5	1	0	BEAVER	109	n/a	n/a	1	n/a	n/a	n/a	n/a	n/a
366.568	n/a	REC_WORD	183284	wordpools/wasnorm_wordpool.txt	LTP150	ltpFR	5	1	0	ANTEATER	26	n/a	n/a	1	n/a	n/a	n/a	n/a	n/a
369.536	n/a	REC_WORD	184768	wordpools/wasnorm_wordpool.txt	LTP150	ltpFR	5	1	0	FIELD	562	n/a	n/a	1	n/a	n/a	n/a	n/a	n/a
371.78	n/a	REC_WORD	185890	wordpools/wasnorm_wordpool.txt	LTP150	ltpFR	5	1	1	GAZELLE	628	n/a	n/a	1	n/a	n/a	n/a	n/a	n/a
377.27	n/a	REC_WORD	188635	wordpools/wasnorm_wordpool.txt	LTP150	ltpFR	5	1	1	GRILL	661	n/a	n/a	0	n/a	n/a	n/a	n/a	n/a
380.712	n/a	REC_WORD	190356	wordpools/wasnorm_wordpool.txt	LTP150	ltpFR	5	1	1	STEW	1380	n/a	n/a	0	n/a	n/a	n/a	n/a	n/a
408.084	n/a	WORD	204042	wordpools/wasnorm_wordpool.txt	LTP150	ltpFR	5	2	1	LOBSTER	837	n/a	n/a	1	0.57763671875	0.412841796875	1	upper	amplitud.ttf
412.198	n/a	WORD	206099	wordpools/wasnorm_wordpool.txt	LTP150	ltpFR	5	2	1	APARTMENT	30	n/a	n/a	0	0.57763671875	0.412841796875	1	upper	amplitud.ttf
416.01	n/a	WORD	208005	wordpools/wasnorm_wordpool.txt	LTP150	ltpFR	5	2	0	DINNER	468	n/a	n/a	1	0.422607421875	0.5869140625	0	lower	zerothre.ttf
419.88	n/a	WORD	209940	wordpools/wasnorm_wordpool.txt	LTP150	ltpFR	5	2	0	SNACK	1331	n/a	n/a	1	0.422607421875	0.5869140625	0	lower	zerothre.ttf
424.026	n/a	WORD	212013	wordpools/wasnorm_wordpool.txt	LTP150	ltpFR	5	2	0	SNORKEL	1336	n/a	n/a	1	0.422607421875	0.5869140625	0	lower	zerothre.ttf
428.238	n/a	WORD	214119	wordpools/wasnorm_wordpool.txt	LTP150	ltpFR	5	2	1	TONGUE	1479	n/a	n/a	0	0.57763671875	0.412841796875	1	upper	amplitud.ttf
432.358	n/a	WORD	216179	wordpools/wasnorm_wordpool.txt	LTP150	ltpFR	5	2	1	DUCK	504	n/a	n/a	1	0.57763671875	0.412841796875	1	upper	amplitud.ttf
436.244	n/a	WORD	218122	wordpools/wasnorm_wordpool.txt	LTP150	ltpFR	5	2	0	THICKET	1455	n/a	n/a	1	0.422607421875	0.5869140625	0	lower	zerothre.ttf
440.324	n/a	WORD	220162	wordpools/wasnorm_wordpool.txt	LTP150	ltpFR	5	2	0	WAVE	1596	n/a	n/a	1	0.422607421875	0.5869140625	0	lower	zerothre.ttf
444.444	n/a	WORD	222222	wordpools/wasnorm_wordpool.txt	LTP150	ltpFR	5	2	0	NOMAD	955	n/a	n/a	1	0.422607421875	0.5869140625	0	lower	zerothre.ttf
448.54	n/a	WORD	224270	wordpools/wasnorm_wordpool.txt	LTP150	ltpFR	5	2	0	CHIEF	298	n/a	n/a	1	0.422607421875	0.5869140625	0	lower	zerothre.ttf
452.494	n/a	WORD	226247	wordpools/wasnorm_wordpool.txt	LTP150	ltpFR	5	2	0	DETECTIVE	454	n/a	n/a	1	0.422607421875	0.5869140625	0	lower	zerothre.ttf
456.612	n/a	WORD	228306	wordpools/wasnorm_wordpool.txt	LTP150	ltpFR	5	2	1	MOUTH	926	n/a	n/a	0	0.57763671875	0.412841796875	1	upper	amplitud.ttf
460.692	n/a	WORD	230346	wordpools/wasnorm_wordpool.txt	LTP150	ltpFR	5	2	1	JOINT	758	n/a	n/a	0	0.57763671875	0.412841796875	1	upper	amplitud.ttf
464.588	n/a	WORD	232294	wordpools/wasnorm_wordpool.txt	LTP150	ltpFR	5	2	1	BLENDER	136	n/a	n/a	0	0.57763671875	0.412841796875	1	upper	amplitud.ttf
468.682	n/a	WORD	234341	wordpools/wasnorm_wordpool.txt	LTP150	ltpFR	5	2	1	ROOSTER	1209	n/a	n/a	1	0.57763671875	0.412841796875	1	upper	amplitud.ttf
474.718	n/a	REC_START	237359	n/a	LTP150	ltpFR	5	2	n/a	n/a	n/a	n/a	n/a	n/a	n/a	n/a	n/a	n/a	n/a
475.81	n/a	REC_WORD	237905	wordpools/wasnorm_wordpool.txt	LTP150	ltpFR	5	2	1	ROOSTER	1209	n/a	n/a	1	n/a	n/a	n/a	n/a	n/a
477.43	n/a	REC_WORD	238715	wordpools/wasnorm_wordpool.txt	LTP150	ltpFR	5	2	1	BLENDER	136	n/a	n/a	0	n/a	n/a	n/a	n/a	n/a
479.228	n/a	REC_WORD	239614	wordpools/wasnorm_wordpool.txt	LTP150	ltpFR	5	2	1	JOINT	758	n/a	n/a	0	n/a	n/a	n/a	n/a	n/a
480.976	n/a	REC_WORD	240488	wordpools/wasnorm_wordpool.txt	LTP150	ltpFR	5	2	1	MOUTH	926	n/a	n/a	0	n/a	n/a	n/a	n/a	n/a
483.0	n/a	REC_WORD	241500	wordpools/wasnorm_wordpool.txt	LTP150	ltpFR	5	2	0	DETECTIVE	454	n/a	n/a	1	n/a	n/a	n/a	n/a	n/a
484.924	n/a	REC_WORD	242462	wordpools/wasnorm_wordpool.txt	LTP150	ltpFR	5	2	0	CHIEF	298	n/a	n/a	1	n/a	n/a	n/a	n/a	n/a
486.622	n/a	REC_WORD	243311	wordpools/wasnorm_wordpool.txt	LTP150	ltpFR	5	2	0	NOMAD	955	n/a	n/a	1	n/a	n/a	n/a	n/a	n/a
488.41	n/a	REC_WORD	244205	wordpools/wasnorm_wordpool.txt	LTP150	ltpFR	5	2	0	WAVE	1596	n/a	n/a	1	n/a	n/a	n/a	n/a	n/a
490.508	n/a	REC_WORD	245254	wordpools/wasnorm_wordpool.txt	LTP150	ltpFR	5	2	0	THICKET	1455	n/a	n/a	1	n/a	n/a	n/a	n/a	n/a
492.4	n/a	REC_WORD	246200	wordpools/wasnorm_wordpool.txt	LTP150	ltpFR	5	2	1	DUCK	504	n/a	n/a	1	n/a	n/a	n/a	n/a	n/a
494.162	n/a	REC_WORD	247081	wordpools/wasnorm_wordpool.txt	LTP150	ltpFR	5	2	1	TONGUE	1479	n/a	n/a	0	n/a	n/a	n/a	n/a	n/a
498.526	n/a	REC_WORD	249263	wordpools/wasnorm_wordpool.txt	LTP150	ltpFR	5	2	1	LOBSTER	837	n/a	n/a	1	n/a	n/a	n/a	n/a	n/a
500.658	n/a	REC_WORD	250329	wordpools/wasnorm_wordpool.txt	LTP150	ltpFR	5	2	1	APARTMENT	30	n/a	n/a	0	n/a	n/a	n/a	n/a	n/a
502.682	n/a	REC_WORD	251341	wordpools/wasnorm_wordpool.txt	LTP150	ltpFR	5	2	0	DINNER	468	n/a	n/a	1	n/a	n/a	n/a	n/a	n/a
504.344	n/a	REC_WORD	252172	wordpools/wasnorm_wordpool.txt	LTP150	ltpFR	5	2	0	SNACK	1331	n/a	n/a	1	n/a	n/a	n/a	n/a	n/a
559.312	n/a	WORD	279656	wordpools/wasnorm_wordpool.txt	LTP150	ltpFR	5	3	1	GOOSE	649	n/a	n/a	1	0.57763671875	0.412841796875	1	upper	amplitud.ttf
563.142	n/a	WORD	281571	wordpools/wasnorm_wordpool.txt	LTP150	ltpFR	5	3	1	STRANGER	1389	n/a	n/a	1	0.57763671875	0.412841796875	1	upper	amplitud.ttf
566.954	n/a	WORD	283477	wordpools/wasnorm_wordpool.txt	LTP150	ltpFR	5	3	1	FOE	587	n/a	n/a	1	0.57763671875	0.412841796875	1	upper	amplitud.ttf
570.84	n/a	WORD	285420	wordpools/wasnorm_wordpool.txt	LTP150	ltpFR	5	3	1	BOYFRIEND	162	n/a	n/a	1	0.57763671875	0.412841796875	1	upper	amplitud.ttf
574.786	n/a	WORD	287393	wordpools/wasnorm_wordpool.txt	LTP150	ltpFR	5	3	1	HOUND	724	n/a	n/a	1	0.57763671875	0.412841796875	1	upper	amplitud.ttf
578.79	n/a	WORD	289395	wordpools/wasnorm_wordpool.txt	LTP150	ltpFR	5	3	1	VITAMIN	1574	n/a	n/a	0	0.57763671875	0.412841796875	1	upper	amplitud.ttf
582.618	n/a	WORD	291309	wordpools/wasnorm_wordpool.txt	LTP150	ltpFR	5	3	1	BALL	73	n/a	n/a	0	0.57763671875	0.412841796875	1	upper	amplitud.ttf
586.748	n/a	WORD	293374	wordpools/wasnorm_wordpool.txt	LTP150	ltpFR	5	3	1	TWISTER	1530	n/a	n/a	0	0.57763671875	0.412841796875	1	upper	amplitud.ttf
590.626	n/a	WORD	295313	wordpools/wasnorm_wordpool.txt	LTP150	ltpFR	5	3	1	TROUT	1511	n/a	n/a	1	0.57763671875	0.412841796875	1	upper	amplitud.ttf
594.822	n/a	WORD	297411	wordpools/wasnorm_wordpool.txt	LTP150	ltpFR	5	3	1	DOLPHIN	483	n/a	n/a	1	0.57763671875	0.412841796875	1	upper	amplitud.ttf
598.766	n/a	WORD	299383	wordpools/wasnorm_wordpool.txt	LTP150	ltpFR	5	3	1	BLUEBERRY	140	n/a	n/a	1	0.57763671875	0.412841796875	1	upper	amplitud.ttf
602.62	n/a	WORD	301310	wordpools/wasnorm_wordpool.txt	LTP150	ltpFR	5	3	1	PASTRY	1022	n/a	n/a	0	0.57763671875	0.412841796875	1	upper	amplitud.ttf
606.518	n/a	WORD	303259	wordpools/wasnorm_wordpool.txt	LTP150	ltpFR	5	3	1	MILK	895	n/a	n/a	0	0.57763671875	0.412841796875	1	upper	amplitud.ttf
610.354	n/a	WORD	305177	wordpools/wasnorm_wordpool.txt	LTP150	ltpFR	5	3	1	POND	1101	n/a	n/a	0	0.57763671875	0.412841796875	1	upper	amplitud.ttf
614.29	n/a	WORD	307145	wordpools/wasnorm_wordpool.txt	LTP150	ltpFR	5	3	1	CHEESE	289	n/a	n/a	0	0.57763671875	0.412841796875	1	upper	amplitud.ttf
618.478	n/a	WORD	309239	wordpools/wasnorm_wordpool.txt	LTP150	ltpFR	5	3	1	TAG	1429	n/a	n/a	0	0.57763671875	0.412841796875	1	upper	amplitud.ttf
624.33	n/a	REC_START	312165	n/a	LTP150	ltpFR	5	3	n/a	n/a	n/a	n/a	n/a	n/a	n/a	n/a	n/a	n/a	n/a
625.526	n/a	REC_WORD	312763	wordpools/wasnorm_wordpool.txt	LTP150	ltpFR	5	3	1	TAG	1429	n/a	n/a	0	n/a	n/a	n/a	n/a	n/a
627.024	n/a	REC_WORD	313512	wordpools/wasnorm_wordpool.txt	LTP150	ltpFR	5	3	1	CHEESE	289	n/a	n/a	0	n/a	n/a	n/a	n/a	n/a
628.756	n/a	REC_WORD	314378	wordpools/wasnorm_wordpool.txt	LTP150	ltpFR	5	3	1	POND	1101	n/a	n/a	0	n/a	n/a	n/a	n/a	n/a
632.616	n/a	REC_WORD	316308	wordpools/wasnorm_wordpool.txt	LTP150	ltpFR	5	3	1	PASTRY	1022	n/a	n/a	0	n/a	n/a	n/a	n/a	n/a
634.35	n/a	REC_WORD	317175	wordpools/wasnorm_wordpool.txt	LTP150	ltpFR	5	3	1	MILK	895	n/a	n/a	0	n/a	n/a	n/a	n/a	n/a
636.058	n/a	REC_WORD	318029	wordpools/wasnorm_wordpool.txt	LTP150	ltpFR	5	3	1	DOLPHIN	483	n/a	n/a	1	n/a	n/a	n/a	n/a	n/a
637.68	n/a	REC_WORD	318840	wordpools/wasnorm_wordpool.txt	LTP150	ltpFR	5	3	1	TROUT	1511	n/a	n/a	1	n/a	n/a	n/a	n/a	n/a
642.026	n/a	REC_WORD	321013	wordpools/wasnorm_wordpool.txt	LTP150	ltpFR	5	3	1	TWISTER	1530	n/a	n/a	0	n/a	n/a	n/a	n/a	n/a
644.578	n/a	REC_WORD	322289	wordpools/wasnorm_wordpool.txt	LTP150	ltpFR	5	3	1	BALL	73	n/a	n/a	0	n/a	n/a	n/a	n/a	n/a
646.494	n/a	REC_WORD	323247	wordpools/wasnorm_wordpool.txt	LTP150	ltpFR	5	3	1	VITAMIN	1574	n/a	n/a	0	n/a	n/a	n/a	n/a	n/a
649.212	n/a	REC_WORD	324606	wordpools/wasnorm_wordpool.txt	LTP150	ltpFR	5	3	1	HOUND	724	n/a	n/a	1	n/a	n/a	n/a	n/a	n/a
651.248	n/a	REC_WORD	325624	wordpools/wasnorm_wordpool.txt	LTP150	ltpFR	5	3	1	BOYFRIEND	162	n/a	n/a	1	n/a	n/a	n/a	n/a	n/a
653.232	n/a	REC_WORD	326616	wordpools/wasnorm_wordpool.txt	LTP150	ltpFR	5	3	1	FOE	587	n/a	n/a	1	n/a	n/a	n/a	n/a	n/a
659.72	n/a	REC_WORD	329860	wordpools/wasnorm_wordpool.txt	LTP150	ltpFR	5	3	1	GOOSE	649	n/a	n/a	1	n/a	n/a	n/a	n/a	n/a
661.6	n/a	REC_WORD	330800	wordpools/wasnorm_wordpool.txt	LTP150	ltpFR	5	3	1	STRANGER	1389	n/a	n/a	1	n/a	n/a	n/a	n/a	n/a
691.972	n/a	REC_WORD	345986	wordpools/wasnorm_wordpool.txt	LTP150	ltpFR	5	3	1	BLUEBERRY	140	n/a	n/a	1	n/a	n/a	n/a	n/a	n/a
703.13	n/a	WORD	351565	wordpools/wasnorm_wordpool.txt	LTP150	ltpFR	5	4	1	SNAKE	1333	n/a	n/a	1	0.57763671875	0.412841796875	1	upper	amplitud.ttf
707.186	n/a	WORD	353593	wordpools/wasnorm_wordpool.txt	LTP150	ltpFR	5	4	1	REPTILE	1185	n/a	n/a	1	0.57763671875	0.412841796875	1	upper	amplitud.ttf
711.03	n/a	WORD	355515	wordpools/wasnorm_wordpool.txt	LTP150	ltpFR	5	4	1	SHORTCAKE	1292	n/a	n/a	0	0.57763671875	0.412841796875	1	upper	amplitud.ttf
715.176	n/a	WORD	357588	wordpools/wasnorm_wordpool.txt	LTP150	ltpFR	5	4	1	CABLE	213	n/a	n/a	0	0.57763671875	0.412841796875	1	upper	amplitud.ttf
719.272	n/a	WORD	359636	wordpools/wasnorm_wordpool.txt	LTP150	ltpFR	5	4	1	CHEMIST	292	n/a	n/a	1	0.57763671875	0.412841796875	1	upper	amplitud.ttf
723.392	n/a	WORD	361696	wordpools/wasnorm_wordpool.txt	LTP150	ltpFR	5	4	1	MOLECULE	905	n/a	n/a	0	0.57763671875	0.412841796875	1	upper	amplitud.ttf
727.546	n/a	WORD	363773	wordpools/wasnorm_wordpool.txt	LTP150	ltpFR	5	4	1	PAPER	1011	n/a	n/a	0	0.57763671875	0.412841796875	1	upper	amplitud.ttf
731.598	n/a	WORD	365799	wordpools/wasnorm_wordpool.txt	LTP150	ltpFR	5	4	1	NEPHEW	942	n/a	n/a	1	0.57763671875	0.412841796875	1	upper	amplitud.ttf
735.494	n/a	WORD	367747	wordpools/wasnorm_wordpool.txt	LTP150	ltpFR	5	4	1	BULLY	196	n/a	n/a	1	0.57763671875	0.412841796875	1	upper	amplitud.ttf
739.556	n/a	WORD	369778	wordpools/wasnorm_wordpool.txt	LTP150	ltpFR	5	4	1	BOY	161	n/a	n/a	1	0.57763671875	0.412841796875	1	upper	amplitud.ttf
743.42	n/a	WORD	371710	wordpools/wasnorm_wordpool.txt	LTP150	ltpFR	5	4	1	CRICKET	408	n/a	n/a	1	0.57763671875	0.412841796875	1	upper	amplitud.ttf
747.548	n/a	WORD	373774	wordpools/wasnorm_wordpool.txt	LTP150	ltpFR	5	4	1	UNIFORM	1539	n/a	n/a	0	0.57763671875	0.412841796875	1	upper	amplitud.ttf
751.666	n/a	WORD	375833	wordpools/wasnorm_wordpool.txt	LTP150	ltpFR	5	4	1	BULLET	194	n/a	n/a	0	0.57763671875	0.412841796875	1	upper	amplitud.ttf
755.778	n/a	WORD	377889	wordpools/wasnorm_wordpool.txt	LTP150	ltpFR	5	4	1	TOASTER	1472	n/a	n/a	0	0.57763671875	0.412841796875	1	upper	amplitud.ttf
759.758	n/a	WORD	379879	wordpools/wasnorm_wordpool.txt	LTP150	ltpFR	5	4	1	UNCLE	1536	n/a	n/a	1	0.57763671875	0.412841796875	1	upper	amplitud.ttf
763.694	n/a	WORD	381847	wordpools/wasnorm_wordpool.txt	LTP150	ltpFR	5	4	1	STAPLER	1372	n/a	n/a	0	0.57763671875	0.412841796875	1	upper	amplitud.ttf
769.672	n/a	REC_START	384836	n/a	LTP150	ltpFR	5	4	n/a	n/a	n/a	n/a	n/a	n/a	n/a	n/a	n/a	n/a	n/a
771.572	n/a	REC_WORD	385786	wordpools/wasnorm_wordpool.txt	LTP150	ltpFR	5	4	1	STAPLER	1372	n/a	n/a	0	n/a	n/a	n/a	n/a	n/a
773.336	n/a	REC_WORD	386668	wordpools/wasnorm_wordpool.txt	LTP150	ltpFR	5	4	1	TOASTER	1472	n/a	n/a	0	n/a	n/a	n/a	n/a	n/a
774.84	n/a	REC_WORD	387420	wordpools/wasnorm_wordpool.txt	LTP150	ltpFR	5	4	1	UNCLE	1536	n/a	n/a	1	n/a	n/a	n/a	n/a	n/a
783.888	n/a	REC_WORD	391944	wordpools/wasnorm_wordpool.txt	LTP150	ltpFR	5	4	1	SNAKE	1333	n/a	n/a	1	n/a	n/a	n/a	n/a	n/a
786.198	n/a	REC_WORD	393099	wordpools/wasnorm_wordpool.txt	LTP150	ltpFR	5	4	1	REPTILE	1185	n/a	n/a	1	n/a	n/a	n/a	n/a	n/a
788.526	n/a	REC_WORD	394263	wordpools/wasnorm_wordpool.txt	LTP150	ltpFR	5	4	1	SHORTCAKE	1292	n/a	n/a	0	n/a	n/a	n/a	n/a	n/a
796.776	n/a	REC_WORD	398388	wordpools/wasnorm_wordpool.txt	LTP150	ltpFR	5	4	1	NEPHEW	942	n/a	n/a	1	n/a	n/a	n/a	n/a	n/a
799.274	n/a	REC_WORD	399637	wordpools/wasnorm_wordpool.txt	LTP150	ltpFR	5	4	1	BULLY	196	n/a	n/a	1	n/a	n/a	n/a	n/a	n/a
801.51	n/a	REC_WORD	400755	wordpools/wasnorm_wordpool.txt	LTP150	ltpFR	5	4	1	BOY	161	n/a	n/a	1	n/a	n/a	n/a	n/a	n/a
804.004	n/a	REC_WORD	402002	wordpools/wasnorm_wordpool.txt	LTP150	ltpFR	5	4	1	CRICKET	408	n/a	n/a	1	n/a	n/a	n/a	n/a	n/a
808.858	n/a	REC_WORD	404429	wordpools/wasnorm_wordpool.txt	LTP150	ltpFR	5	4	1	UNIFORM	1539	n/a	n/a	0	n/a	n/a	n/a	n/a	n/a
813.162	n/a	REC_WORD	406581	wordpools/wasnorm_wordpool.txt	LTP150	ltpFR	5	4	1	BULLET	194	n/a	n/a	0	n/a	n/a	n/a	n/a	n/a
819.218	n/a	REC_WORD	409609	wordpools/wasnorm_wordpool.txt	LTP150	ltpFR	5	4	1	TOASTER	1472	n/a	n/a	0	n/a	n/a	n/a	n/a	n/a
848.172	n/a	WORD	424086	wordpools/wasnorm_wordpool.txt	LTP150	ltpFR	5	5	-1	SADDLE	1221	n/a	n/a	-1	1.0	1.0	1	upper	Verdana.ttf
852.202	n/a	WORD	426101	wordpools/wasnorm_wordpool.txt	LTP150	ltpFR	5	5	-1	BINDER	127	n/a	n/a	-1	1.0	1.0	1	upper	Verdana.ttf
856.164	n/a	WORD	428082	wordpools/wasnorm_wordpool.txt	LTP150	ltpFR	5	5	-1	ENGINEER	536	n/a	n/a	-1	1.0	1.0	1	upper	Verdana.ttf
860.334	n/a	WORD	430167	wordpools/wasnorm_wordpool.txt	LTP150	ltpFR	5	5	-1	BANKER	84	n/a	n/a	-1	1.0	1.0	1	upper	Verdana.ttf
864.314	n/a	WORD	432157	wordpools/wasnorm_wordpool.txt	LTP150	ltpFR	5	5	-1	GODDESS	646	n/a	n/a	-1	1.0	1.0	1	upper	Verdana.ttf
868.358	n/a	WORD	434179	wordpools/wasnorm_wordpool.txt	LTP150	ltpFR	5	5	-1	NEWSSTAND	949	n/a	n/a	-1	1.0	1.0	1	upper	Verdana.ttf
872.33	n/a	WORD	436165	wordpools/wasnorm_wordpool.txt	LTP150	ltpFR	5	5	-1	CONTRACTOR	369	n/a	n/a	-1	1.0	1.0	1	upper	Verdana.ttf
876.342	n/a	WORD	438171	wordpools/wasnorm_wordpool.txt	LTP150	ltpFR	5	5	-1	CONSOLE	364	n/a	n/a	-1	1.0	1.0	1	upper	Verdana.ttf
880.204	n/a	WORD	440102	wordpools/wasnorm_wordpool.txt	LTP150	ltpFR	5	5	-1	CAR	241	n/a	n/a	-1	1.0	1.0	1	upper	Verdana.ttf
884.166	n/a	WORD	442083	wordpools/wasnorm_wordpool.txt	LTP150	ltpFR	5	5	-1	INVENTOR	743	n/a	n/a	-1	1.0	1.0	1	upper	Verdana.ttf
888.12	n/a	WORD	444060	wordpools/wasnorm_wordpool.txt	LTP150	ltpFR	5	5	-1	RIDER	1191	n/a	n/a	-1	1.0	1.0	1	upper	Verdana.ttf
892.172	n/a	WORD	446086	wordpools/wasnorm_wordpool.txt	LTP150	ltpFR	5	5	-1	CUPBOARD	425	n/a	n/a	-1	1.0	1.0	1	upper	Verdana.ttf
896.202	n/a	WORD	448101	wordpools/wasnorm_wordpool.txt	LTP150	ltpFR	5	5	-1	FINGERNAIL	568	n/a	n/a	-1	1.0	1.0	1	upper	Verdana.ttf
900.188	n/a	WORD	450094	wordpools/wasnorm_wordpool.txt	LTP150	ltpFR	5	5	-1	SWEATER	1419	n/a	n/a	-1	1.0	1.0	1	upper	Verdana.ttf
904.358	n/a	WORD	452179	wordpools/wasnorm_wordpool.txt	LTP150	ltpFR	5	5	-1	STABLE	1363	n/a	n/a	-1	1.0	1.0	1	upper	Verdana.ttf
908.23	n/a	WORD	454115	wordpools/wasnorm_wordpool.txt	LTP150	ltpFR	5	5	-1	ZEBRA	1635	n/a	n/a	-1	1.0	1.0	1	upper	Verdana.ttf
914.114	n/a	REC_START	457057	n/a	LTP150	ltpFR	5	5	n/a	n/a	n/a	n/a	n/a	n/a	n/a	n/a	n/a	n/a	n/a
916.558	n/a	REC_WORD	458279	wordpools/wasnorm_wordpool.txt	LTP150	ltpFR	5	5	-1	SADDLE	1221	n/a	n/a	-1	n/a	n/a	n/a	n/a	n/a
920.396	n/a	REC_WORD	460198	wordpools/wasnorm_wordpool.txt	LTP150	ltpFR	5	5	-1	ENGINEER	536	n/a	n/a	-1	n/a	n/a	n/a	n/a	n/a
923.544	n/a	REC_WORD	461772	wordpools/wasnorm_wordpool.txt	LTP150	ltpFR	5	5	-1	BANKER	84	n/a	n/a	-1	n/a	n/a	n/a	n/a	n/a
925.868	n/a	REC_WORD	462934	wordpools/wasnorm_wordpool.txt	LTP150	ltpFR	5	5	-1	BINDER	127	n/a	n/a	-1	n/a	n/a	n/a	n/a	n/a
928.504	n/a	REC_WORD	464252	wordpools/wasnorm_wordpool.txt	LTP150	ltpFR	5	5	-1	GODDESS	646	n/a	n/a	-1	n/a	n/a	n/a	n/a	n/a
930.672	n/a	REC_WORD	465336	wordpools/wasnorm_wordpool.txt	LTP150	ltpFR	5	5	-1	NEWSSTAND	949	n/a	n/a	-1	n/a	n/a	n/a	n/a	n/a
936.728	n/a	REC_WORD	468364	wordpools/wasnorm_wordpool.txt	LTP150	ltpFR	5	5	-1	CONSOLE	364	n/a	n/a	-1	n/a	n/a	n/a	n/a	n/a
943.016	n/a	REC_WORD	471508	wordpools/wasnorm_wordpool.txt	LTP150	ltpFR	5	5	-1	CAR	241	n/a	n/a	-1	n/a	n/a	n/a	n/a	n/a
945.68	n/a	REC_WORD	472840	wordpools/wasnorm_wordpool.txt	LTP150	ltpFR	5	5	-1	INVENTOR	743	n/a	n/a	-1	n/a	n/a	n/a	n/a	n/a
951.854	n/a	REC_WORD	475927	wordpools/wasnorm_wordpool.txt	LTP150	ltpFR	5	5	-1	CONTRACTOR	369	n/a	n/a	-1	n/a	n/a	n/a	n/a	n/a
957.706	n/a	REC_WORD	478853	wordpools/wasnorm_wordpool.txt	LTP150	ltpFR	5	5	-1	RIDER	1191	n/a	n/a	-1	n/a	n/a	n/a	n/a	n/a
964.388	n/a	REC_WORD	482194	wordpools/wasnorm_wordpool.txt	LTP150	ltpFR	5	5	-1	STABLE	1363	n/a	n/a	-1	n/a	n/a	n/a	n/a	n/a
967.592	n/a	REC_WORD	483796	wordpools/wasnorm_wordpool.txt	LTP150	ltpFR	5	5	-1	SWEATER	1419	n/a	n/a	-1	n/a	n/a	n/a	n/a	n/a
970.638	n/a	REC_WORD	485319	wordpools/wasnorm_wordpool.txt	LTP150	ltpFR	5	5	-1	FINGERNAIL	568	n/a	n/a	-1	n/a	n/a	n/a	n/a	n/a
973.53	n/a	REC_WORD	486765	wordpools/wasnorm_wordpool.txt	LTP150	ltpFR	5	5	-1	ZEBRA	1635	n/a	n/a	-1	n/a	n/a	n/a	n/a	n/a
992.682	n/a	WORD	496341	wordpools/wasnorm_wordpool.txt	LTP150	ltpFR	5	6	0	TOAST	1471	n/a	n/a	0	0.422607421875	0.5869140625	0	lower	zerothre.ttf
996.728	n/a	WORD	498364	wordpools/wasnorm_wordpool.txt	LTP150	ltpFR	5	6	0	SCROLL	1257	n/a	n/a	0	0.422607421875	0.5869140625	0	lower	zerothre.ttf
1000.624	n/a	WORD	500312	wordpools/wasnorm_wordpool.txt	LTP150	ltpFR	5	6	1	SERPENT	1270	n/a	n/a	1	0.57763671875	0.412841796875	1	upper	amplitud.ttf
1004.752	n/a	WORD	502376	wordpools/wasnorm_wordpool.txt	LTP150	ltpFR	5	6	1	POPCORN	1104	n/a	n/a	0	0.57763671875	0.412841796875	1	upper	amplitud.ttf
1008.914	n/a	WORD	504457	wordpools/wasnorm_wordpool.txt	LTP150	ltpFR	5	6	1	CREEK	404	n/a	n/a	0	0.57763671875	0.412841796875	1	upper	amplitud.ttf
1013.06	n/a	WORD	506530	wordpools/wasnorm_wordpool.txt	LTP150	ltpFR	5	6	0	TRUCK	1512	n/a	n/a	1	0.422607421875	0.5869140625	0	lower	zerothre.ttf
1016.996	n/a	WORD	508498	wordpools/wasnorm_wordpool.txt	LTP150	ltpFR	5	6	0	VEHICLE	1553	n/a	n/a	1	0.422607421875	0.5869140625	0	lower	zerothre.ttf
1020.86	n/a	WORD	510430	wordpools/wasnorm_wordpool.txt	LTP150	ltpFR	5	6	0	TYPIST	1532	n/a	n/a	1	0.422607421875	0.5869140625	0	lower	zerothre.ttf
1024.92	n/a	WORD	512460	wordpools/wasnorm_wordpool.txt	LTP150	ltpFR	5	6	0	APRON	35	n/a	n/a	1	0.422607421875	0.5869140625	0	lower	zerothre.ttf
1029.074	n/a	WORD	514537	wordpools/wasnorm_wordpool.txt	LTP150	ltpFR	5	6	0	TICK	1463	n/a	n/a	0	0.422607421875	0.5869140625	0	lower	zerothre.ttf
1033.004	n/a	WORD	516502	wordpools/wasnorm_wordpool.txt	LTP150	ltpFR	5	6	0	COYOTE	396	n/a	n/a	1	0.422607421875	0.5869140625	0	lower	zerothre.ttf
1036.99	n/a	WORD	518495	wordpools/wasnorm_wordpool.txt	LTP150	ltpFR	5	6	1	PLAQUE	1084	n/a	n/a	0	0.57763671875	0.412841796875	1	upper	amplitud.ttf
1041.168	n/a	WORD	520584	wordpools/wasnorm_wordpool.txt	LTP150	ltpFR	5	6	1	UNDERWEAR	1537	n/a	n/a	0	0.57763671875	0.412841796875	1	upper	amplitud.ttf
1045.248	n/a	WORD	522624	wordpools/wasnorm_wordpool.txt	LTP150	ltpFR	5	6	1	SCOUT	1252	n/a	n/a	1	0.57763671875	0.412841796875	1	upper	amplitud.ttf
1049.292	n/a	WORD	524646	wordpools/wasnorm_wordpool.txt	LTP150	ltpFR	5	6	1	BREAD	170	n/a	n/a	0	0.57763671875	0.412841796875	1	upper	amplitud.ttf
1053.354	n/a	WORD	526677	wordpools/wasnorm_wordpool.txt	LTP150	ltpFR	5	6	1	OCEAN	970	n/a	n/a	1	0.57763671875	0.412841796875	1	upper	amplitud.ttf
1059.148	n/a	REC_START	529574	n/a	LTP150	ltpFR	5	6	n/a	n/a	n/a	n/a	n/a	n/a	n/a	n/a	n/a	n/a	n/a
1060.706	n/a	REC_WORD	530353	wordpools/wasnorm_wordpool.txt	LTP150	ltpFR	5	6	1	OCEAN	970	n/a	n/a	1	n/a	n/a	n/a	n/a	n/a
1062.736	n/a	REC_WORD	531368	wordpools/wasnorm_wordpool.txt	LTP150	ltpFR	5	6	1	BREAD	170	n/a	n/a	0	n/a	n/a	n/a	n/a	n/a
1064.434	n/a	REC_WORD	532217	wordpools/wasnorm_wordpool.txt	LTP150	ltpFR	5	6	1	SCOUT	1252	n/a	n/a	1	n/a	n/a	n/a	n/a	n/a
1066.494	n/a	REC_WORD	533247	wordpools/wasnorm_wordpool.txt	LTP150	ltpFR	5	6	1	UNDERWEAR	1537	n/a	n/a	0	n/a	n/a	n/a	n/a	n/a
1068.522	n/a	REC_WORD	534261	wordpools/wasnorm_wordpool.txt	LTP150	ltpFR	5	6	1	PLAQUE	1084	n/a	n/a	0	n/a	n/a	n/a	n/a	n/a
1070.23	n/a	REC_WORD	535115	wordpools/wasnorm_wordpool.txt	LTP150	ltpFR	5	6	0	COYOTE	396	n/a	n/a	1	n/a	n/a	n/a	n/a	n/a
1073.086	n/a	REC_WORD	536543	wordpools/wasnorm_wordpool.txt	LTP150	ltpFR	5	6	0	TICK	1463	n/a	n/a	0	n/a	n/a	n/a	n/a	n/a
1075.49	n/a	REC_WORD	537745	wordpools/wasnorm_wordpool.txt	LTP150	ltpFR	5	6	0	APRON	35	n/a	n/a	1	n/a	n/a	n/a	n/a	n/a
1077.342	n/a	REC_WORD	538671	wordpools/wasnorm_wordpool.txt	LTP150	ltpFR	5	6	0	TYPIST	1532	n/a	n/a	1	n/a	n/a	n/a	n/a	n/a
1083.606	n/a	REC_WORD	541803	wordpools/wasnorm_wordpool.txt	LTP150	ltpFR	5	6	0	TOAST	1471	n/a	n/a	0	n/a	n/a	n/a	n/a	n/a
1085.594	n/a	REC_WORD	542797	wordpools/wasnorm_wordpool.txt	LTP150	ltpFR	5	6	1	SERPENT	1270	n/a	n/a	1	n/a	n/a	n/a	n/a	n/a
1087.57	n/a	REC_WORD	543785	wordpools/wasnorm_wordpool.txt	LTP150	ltpFR	5	6	0	SCROLL	1257	n/a	n/a	0	n/a	n/a	n/a	n/a	n/a
1089.738	n/a	REC_WORD	544869	wordpools/wasnorm_wordpool.txt	LTP150	ltpFR	5	6	1	POPCORN	1104	n/a	n/a	0	n/a	n/a	n/a	n/a	n/a
1091.856	n/a	REC_WORD	545928	wordpools/wasnorm_wordpool.txt	LTP150	ltpFR	5	6	1	CREEK	404	n/a	n/a	0	n/a	n/a	n/a	n/a	n/a
1094.364	n/a	REC_WORD	547182	wordpools/wasnorm_wordpool.txt	LTP150	ltpFR	5	6	0	TRUCK	1512	n/a	n/a	1	n/a	n/a	n/a	n/a	n/a
1096.526	n/a	REC_WORD	548263	wordpools/wasnorm_wordpool.txt	LTP150	ltpFR	5	6	0	VEHICLE	1553	n/a	n/a	1	n/a	n/a	n/a	n/a	n/a
1142.17	n/a	WORD	571085	wordpools/wasnorm_wordpool.txt	LTP150	ltpFR	5	7	-1	ROPE	1211	n/a	n/a	-1	1.0	1.0	1	upper	Verdana.ttf
1146.14	n/a	WORD	573070	wordpools/wasnorm_wordpool.txt	LTP150	ltpFR	5	7	-1	STEP	1377	n/a	n/a	-1	1.0	1.0	1	upper	Verdana.ttf
1150.12	n/a	WORD	575060	wordpools/wasnorm_wordpool.txt	LTP150	ltpFR	5	7	-1	COMPASS	358	n/a	n/a	-1	1.0	1.0	1	upper	Verdana.ttf
1154.09	n/a	WORD	577045	wordpools/wasnorm_wordpool.txt	LTP150	ltpFR	5	7	-1	PIN	1072	n/a	n/a	-1	1.0	1.0	1	upper	Verdana.ttf
1158.136	n/a	WORD	579068	wordpools/wasnorm_wordpool.txt	LTP150	ltpFR	5	7	-1	PILLOW	1069	n/a	n/a	-1	1.0	1.0	1	upper	Verdana.ttf
1162.198	n/a	WORD	581099	wordpools/wasnorm_wordpool.txt	LTP150	ltpFR	5	7	-1	MEADOW	881	n/a	n/a	-1	1.0	1.0	1	upper	Verdana.ttf
1166.35	n/a	WORD	583175	wordpools/wasnorm_wordpool.txt	LTP150	ltpFR	5	7	-1	TULIP	1517	n/a	n/a	-1	1.0	1.0	1	upper	Verdana.ttf
1170.372	n/a	WORD	585186	wordpools/wasnorm_wordpool.txt	LTP150	ltpFR	5	7	-1	MAILMAN	858	n/a	n/a	-1	1.0	1.0	1	upper	Verdana.ttf
1174.192	n/a	WORD	587096	wordpools/wasnorm_wordpool.txt	LTP150	ltpFR	5	7	-1	MATTRESS	879	n/a	n/a	-1	1.0	1.0	1	upper	Verdana.ttf
1178.162	n/a	WORD	589081	wordpools/wasnorm_wordpool.txt	LTP150	ltpFR	5	7	-1	SAW	1239	n/a	n/a	-1	1.0	1.0	1	upper	Verdana.ttf
1182.05	n/a	WORD	591025	wordpools/wasnorm_wordpool.txt	LTP150	ltpFR	5	7	-1	SCULPTURE	1258	n/a	n/a	-1	1.0	1.0	1	upper	Verdana.ttf
1186.152	n/a	WORD	593076	wordpools/wasnorm_wordpool.txt	LTP150	ltpFR	5	7	-1	DOG	480	n/a	n/a	-1	1.0	1.0	1	upper	Verdana.ttf
1190.248	n/a	WORD	595124	wordpools/wasnorm_wordpool.txt	LTP150	ltpFR	5	7	-1	CLIPPERS	324	n/a	n/a	-1	1.0	1.0	1	upper	Verdana.ttf
1194.244	n/a	WORD	597122	wordpools/wasnorm_wordpool.txt	LTP150	ltpFR	5	7	-1	TOE	1473	n/a	n/a	-1	1.0	1.0	1	upper	Verdana.ttf
1198.422	n/a	WORD	599211	wordpools/wasnorm_wordpool.txt	LTP150	ltpFR	5	7	-1	SOCK	1339	n/a	n/a	-1	1.0	1.0	1	upper	Verdana.ttf
1202.4	n/a	WORD	601200	wordpools/wasnorm_wordpool.txt	LTP150	ltpFR	5	7	-1	SEAL	1262	n/a	n/a	-1	1.0	1.0	1	upper	Verdana.ttf
1208.37	n/a	REC_START	604185	n/a	LTP150	ltpFR	5	7	n/a	n/a	n/a	n/a	n/a	n/a	n/a	n/a	n/a	n/a	n/a
1209.33	n/a	REC_WORD	604665	wordpools/wasnorm_wordpool.txt	LTP150	ltpFR	5	7	-1	SEAL	1262	n/a	n/a	-1	n/a	n/a	n/a	n/a	n/a
1211.21	n/a	REC_WORD	605605	wordpools/wasnorm_wordpool.txt	LTP150	ltpFR	5	7	-1	SOCK	1339	n/a	n/a	-1	n/a	n/a	n/a	n/a	n/a
1212.902	n/a	REC_WORD	606451	wordpools/wasnorm_wordpool.txt	LTP150	ltpFR	5	7	-1	TOE	1473	n/a	n/a	-1	n/a	n/a	n/a	n/a	n/a
1214.612	n/a	REC_WORD	607306	wordpools/wasnorm_wordpool.txt	LTP150	ltpFR	5	7	-1	CLIPPERS	324	n/a	n/a	-1	n/a	n/a	n/a	n/a	n/a
1221.386	n/a	REC_WORD	610693	wordpools/wasnorm_wordpool.txt	LTP150	ltpFR	5	7	-1	MEADOW	881	n/a	n/a	-1	n/a	n/a	n/a	n/a	n/a
1223.302	n/a	REC_WORD	611651	wordpools/wasnorm_wordpool.txt	LTP150	ltpFR	5	7	-1	TULIP	1517	n/a	n/a	-1	n/a	n/a	n/a	n/a	n/a
1226.178	n/a	REC_WORD	613089	wordpools/wasnorm_wordpool.txt	LTP150	ltpFR	5	7	-1	MAILMAN	858	n/a	n/a	-1	n/a	n/a	n/a	n/a	n/a
1228.808	n/a	REC_WORD	614404	wordpools/wasnorm_wordpool.txt	LTP150	ltpFR	5	7	-1	MATTRESS	879	n/a	n/a	-1	n/a	n/a	n/a	n/a	n/a
1232.006	n/a	REC_WORD	616003	wordpools/wasnorm_wordpool.txt	LTP150	ltpFR	5	7	-1	SAW	1239	n/a	n/a	-1	n/a	n/a	n/a	n/a	n/a
1233.912	n/a	REC_WORD	616956	wordpools/wasnorm_wordpool.txt	LTP150	ltpFR	5	7	-1	SCULPTURE	1258	n/a	n/a	-1	n/a	n/a	n/a	n/a	n/a
1235.898	n/a	REC_WORD	617949	wordpools/wasnorm_wordpool.txt	LTP150	ltpFR	5	7	-1	DOG	480	n/a	n/a	-1	n/a	n/a	n/a	n/a	n/a
1240.01	n/a	REC_WORD	620005	wordpools/wasnorm_wordpool.txt	LTP150	ltpFR	5	7	-1	ROPE	1211	n/a	n/a	-1	n/a	n/a	n/a	n/a	n/a
1242.774	n/a	REC_WORD	621387	wordpools/wasnorm_wordpool.txt	LTP150	ltpFR	5	7	-1	STEP	1377	n/a	n/a	-1	n/a	n/a	n/a	n/a	n/a
1249.22	n/a	REC_WORD	624610	wordpools/wasnorm_wordpool.txt	LTP150	ltpFR	5	7	-1	COMPASS	358	n/a	n/a	-1	n/a	n/a	n/a	n/a	n/a
1251.026	n/a	REC_WORD	625513	wordpools/wasnorm_wordpool.txt	LTP150	ltpFR	5	7	-1	PIN	1072	n/a	n/a	-1	n/a	n/a	n/a	n/a	n/a
1252.718	n/a	REC_WORD	626359	wordpools/wasnorm_wordpool.txt	LTP150	ltpFR	5	7	-1	PILLOW	1069	n/a	n/a	-1	n/a	n/a	n/a	n/a	n/a
1291.45	n/a	WORD	645725	wordpools/wasnorm_wordpool.txt	LTP150	ltpFR	5	8	1	PUMP	1141	n/a	n/a	0	0.57763671875	0.412841796875	1	upper	amplitud.ttf
1295.628	n/a	WORD	647814	wordpools/wasnorm_wordpool.txt	LTP150	ltpFR	5	8	1	PERFUME	1049	n/a	n/a	0	0.57763671875	0.412841796875	1	upper	amplitud.ttf
1299.79	n/a	WORD	649895	wordpools/wasnorm_wordpool.txt	LTP150	ltpFR	5	8	1	LIEUTENANT	818	n/a	n/a	1	0.57763671875	0.412841796875	1	upper	amplitud.ttf
1303.836	n/a	WORD	651918	wordpools/wasnorm_wordpool.txt	LTP150	ltpFR	5	8	1	CLOUD	328	n/a	n/a	0	0.57763671875	0.412841796875	1	upper	amplitud.ttf
1308.038	n/a	WORD	654019	wordpools/wasnorm_wordpool.txt	LTP150	ltpFR	5	8	1	HEAD	695	n/a	n/a	0	0.57763671875	0.412841796875	1	upper	amplitud.ttf
1311.884	n/a	WORD	655942	wordpools/wasnorm_wordpool.txt	LTP150	ltpFR	5	8	1	SHACK	1273	n/a	n/a	0	0.57763671875	0.412841796875	1	upper	amplitud.ttf
1315.88	n/a	WORD	657940	wordpools/wasnorm_wordpool.txt	LTP150	ltpFR	5	8	1	MILITARY	894	n/a	n/a	0	0.57763671875	0.412841796875	1	upper	amplitud.ttf
1319.834	n/a	WORD	659917	wordpools/wasnorm_wordpool.txt	LTP150	ltpFR	5	8	1	PENCIL	1042	n/a	n/a	0	0.57763671875	0.412841796875	1	upper	amplitud.ttf
1323.862	n/a	WORD	661931	wordpools/wasnorm_wordpool.txt	LTP150	ltpFR	5	8	1	TABLET	1427	n/a	n/a	0	0.57763671875	0.412841796875	1	upper	amplitud.ttf
1327.8	n/a	WORD	663900	wordpools/wasnorm_wordpool.txt	LTP150	ltpFR	5	8	1	FLORIDA	582	n/a	n/a	0	0.57763671875	0.412841796875	1	upper	amplitud.ttf
1331.91	n/a	WORD	665955	wordpools/wasnorm_wordpool.txt	LTP150	ltpFR	5	8	1	OUTLAW	989	n/a	n/a	1	0.57763671875	0.412841796875	1	upper	amplitud.ttf
1335.932	n/a	WORD	667966	wordpools/wasnorm_wordpool.txt	LTP150	ltpFR	5	8	1	VICTIM	1562	n/a	n/a	1	0.57763671875	0.412841796875	1	upper	amplitud.ttf
1339.994	n/a	WORD	669997	wordpools/wasnorm_wordpool.txt	LTP150	ltpFR	5	8	1	SUBMARINE	1398	n/a	n/a	0	0.57763671875	0.412841796875	1	upper	amplitud.ttf
1344.006	n/a	WORD	672003	wordpools/wasnorm_wordpool.txt	LTP150	ltpFR	5	8	1	KEEPER	769	n/a	n/a	1	0.57763671875	0.412841796875	1	upper	amplitud.ttf
1348.05	n/a	WORD	674025	wordpools/wasnorm_wordpool.txt	LTP150	ltpFR	5	8	1	PEANUT	1032	n/a	n/a	0	0.57763671875	0.412841796875	1	upper	amplitud.ttf
1352.18	n/a	WORD	676090	wordpools/wasnorm_wordpool.txt	LTP150	ltpFR	5	8	1	PECAN	1036	n/a	n/a	0	0.57763671875	0.412841796875	1	upper	amplitud.ttf
1357.94	n/a	REC_START	678970	n/a	LTP150	ltpFR	5	8	n/a	n/a	n/a	n/a	n/a	n/a	n/a	n/a	n/a	n/a	n/a
1359.094	n/a	REC_WORD	679547	wordpools/wasnorm_wordpool.txt	LTP150	ltpFR	5	8	1	KEEPER	769	n/a	n/a	1	n/a	n/a	n/a	n/a	n/a
1360.954	n/a	REC_WORD	680477	wordpools/wasnorm_wordpool.txt	LTP150	ltpFR	5	8	1	PEANUT	1032	n/a	n/a	0	n/a	n/a	n/a	n/a	n/a
1362.682	n/a	REC_WORD	681341	wordpools/wasnorm_wordpool.txt	LTP150	ltpFR	5	8	1	PECAN	1036	n/a	n/a	0	n/a	n/a	n/a	n/a	n/a
1365.044	n/a	REC_WORD	682522	wordpools/wasnorm_wordpool.txt	LTP150	ltpFR	5	8	1	PUMP	1141	n/a	n/a	0	n/a	n/a	n/a	n/a	n/a
1366.76	n/a	REC_WORD	683380	wordpools/wasnorm_wordpool.txt	LTP150	ltpFR	5	8	1	PERFUME	1049	n/a	n/a	0	n/a	n/a	n/a	n/a	n/a
1368.892	n/a	REC_WORD	684446	wordpools/wasnorm_wordpool.txt	LTP150	ltpFR	5	8	1	LIEUTENANT	818	n/a	n/a	1	n/a	n/a	n/a	n/a	n/a
1371.032	n/a	REC_WORD	685516	wordpools/wasnorm_wordpool.txt	LTP150	ltpFR	5	8	1	CLOUD	328	n/a	n/a	0	n/a	n/a	n/a	n/a	n/a
1373.156	n/a	REC_WORD	686578	wordpools/wasnorm_wordpool.txt	LTP150	ltpFR	5	8	1	HEAD	695	n/a	n/a	0	n/a	n/a	n/a	n/a	n/a
1374.864	n/a	REC_WORD	687432	wordpools/wasnorm_wordpool.txt	LTP150	ltpFR	5	8	1	SHACK	1273	n/a	n/a	0	n/a	n/a	n/a	n/a	n/a
1376.894	n/a	REC_WORD	688447	wordpools/wasnorm_wordpool.txt	LTP150	ltpFR	5	8	1	MILITARY	894	n/a	n/a	0	n/a	n/a	n/a	n/a	n/a
1385.82	n/a	REC_WORD	692910	wordpools/wasnorm_wordpool.txt	LTP150	ltpFR	5	8	1	PENCIL	1042	n/a	n/a	0	n/a	n/a	n/a	n/a	n/a
1387.806	n/a	REC_WORD	693903	wordpools/wasnorm_wordpool.txt	LTP150	ltpFR	5	8	1	TABLET	1427	n/a	n/a	0	n/a	n/a	n/a	n/a	n/a
1389.678	n/a	REC_WORD	694839	wordpools/wasnorm_wordpool.txt	LTP150	ltpFR	5	8	1	FLORIDA	582	n/a	n/a	0	n/a	n/a	n/a	n/a	n/a
1397.14	n/a	REC_WORD	698570	wordpools/wasnorm_wordpool.txt	LTP150	ltpFR	5	8	1	OUTLAW	989	n/a	n/a	1	n/a	n/a	n/a	n/a	n/a
1399.238	n/a	REC_WORD	699619	wordpools/wasnorm_wordpool.txt	LTP150	ltpFR	5	8	1	VICTIM	1562	n/a	n/a	1	n/a	n/a	n/a	n/a	n/a
1401.186	n/a	REC_WORD	700593	wordpools/wasnorm_wordpool.txt	LTP150	ltpFR	5	8	1	SUBMARINE	1398	n/a	n/a	0	n/a	n/a	n/a	n/a	n/a
1435.65	n/a	WORD	717825	wordpools/wasnorm_wordpool.txt	LTP150	ltpFR	5	9	-1	BEAD	103	n/a	n/a	-1	1.0	1.0	1	upper	Verdana.ttf
1439.73	n/a	WORD	719865	wordpools/wasnorm_wordpool.txt	LTP150	ltpFR	5	9	-1	BUG	187	n/a	n/a	-1	1.0	1.0	1	upper	Verdana.ttf
1443.734	n/a	WORD	721867	wordpools/wasnorm_wordpool.txt	LTP150	ltpFR	5	9	-1	SUGAR	1401	n/a	n/a	-1	1.0	1.0	1	upper	Verdana.ttf
1447.62	n/a	WORD	723810	wordpools/wasnorm_wordpool.txt	LTP150	ltpFR	5	9	-1	STALLION	1369	n/a	n/a	-1	1.0	1.0	1	upper	Verdana.ttf
1451.724	n/a	WORD	725862	wordpools/wasnorm_wordpool.txt	LTP150	ltpFR	5	9	-1	MAGNET	855	n/a	n/a	-1	1.0	1.0	1	upper	Verdana.ttf
1455.62	n/a	WORD	727810	wordpools/wasnorm_wordpool.txt	LTP150	ltpFR	5	9	-1	BOSS	152	n/a	n/a	-1	1.0	1.0	1	upper	Verdana.ttf
1459.458	n/a	WORD	729729	wordpools/wasnorm_wordpool.txt	LTP150	ltpFR	5	9	-1	MINT	898	n/a	n/a	-1	1.0	1.0	1	upper	Verdana.ttf
1463.444	n/a	WORD	731722	wordpools/wasnorm_wordpool.txt	LTP150	ltpFR	5	9	-1	CARRIAGE	248	n/a	n/a	-1	1.0	1.0	1	upper	Verdana.ttf
1467.606	n/a	WORD	733803	wordpools/wasnorm_wordpool.txt	LTP150	ltpFR	5	9	-1	VIOLA	1570	n/a	n/a	-1	1.0	1.0	1	upper	Verdana.ttf
1471.768	n/a	WORD	735884	wordpools/wasnorm_wordpool.txt	LTP150	ltpFR	5	9	-1	RECORD	1176	n/a	n/a	-1	1.0	1.0	1	upper	Verdana.ttf
1475.812	n/a	WORD	737906	wordpools/wasnorm_wordpool.txt	LTP150	ltpFR	5	9	-1	CELLAR	267	n/a	n/a	-1	1.0	1.0	1	upper	Verdana.ttf
1479.716	n/a	WORD	739858	wordpools/wasnorm_wordpool.txt	LTP150	ltpFR	5	9	-1	SAGE	1222	n/a	n/a	-1	1.0	1.0	1	upper	Verdana.ttf
1483.53	n/a	WORD	741765	wordpools/wasnorm_wordpool.txt	LTP150	ltpFR	5	9	-1	KITTEN	780	n/a	n/a	-1	1.0	1.0	1	upper	Verdana.ttf
1487.632	n/a	WORD	743816	wordpools/wasnorm_wordpool.txt	LTP150	ltpFR	5	9	-1	CAT	257	n/a	n/a	-1	1.0	1.0	1	upper	Verdana.ttf
1491.578	n/a	WORD	745789	wordpools/wasnorm_wordpool.txt	LTP150	ltpFR	5	9	-1	BANNER	85	n/a	n/a	-1	1.0	1.0	1	upper	Verdana.ttf
1495.724	n/a	WORD	747862	wordpools/wasnorm_wordpool.txt	LTP150	ltpFR	5	9	-1	GALAXY	617	n/a	n/a	-1	1.0	1.0	1	upper	Verdana.ttf
1501.784	n/a	REC_START	750892	n/a	LTP150	ltpFR	5	9	n/a	n/a	n/a	n/a	n/a	n/a	n/a	n/a	n/a	n/a	n/a
1502.834	n/a	REC_WORD	751417	wordpools/wasnorm_wordpool.txt	LTP150	ltpFR	5	9	-1	GALAXY	617	n/a	n/a	-1	n/a	n/a	n/a	n/a	n/a
1504.9	n/a	REC_WORD	752450	wordpools/wasnorm_wordpool.txt	LTP150	ltpFR	5	9	-1	BANNER	85	n/a	n/a	-1	n/a	n/a	n/a	n/a	n/a
1506.762	n/a	REC_WORD	753381	wordpools/wasnorm_wordpool.txt	LTP150	ltpFR	5	9	-1	CAT	257	n/a	n/a	-1	n/a	n/a	n/a	n/a	n/a
1508.572	n/a	REC_WORD	754286	wordpools/wasnorm_wordpool.txt	LTP150	ltpFR	5	9	-1	KITTEN	780	n/a	n/a	-1	n/a	n/a	n/a	n/a	n/a
1510.404	n/a	REC_WORD	755202	wordpools/wasnorm_wordpool.txt	LTP150	ltpFR	5	9	-1	SAGE	1222	n/a	n/a	-1	n/a	n/a	n/a	n/a	n/a
1513.094	n/a	REC_WORD	756547	wordpools/wasnorm_wordpool.txt	LTP150	ltpFR	5	9	-1	CELLAR	267	n/a	n/a	-1	n/a	n/a	n/a	n/a	n/a
1516.312	n/a	REC_WORD	758156	wordpools/wasnorm_wordpool.txt	LTP150	ltpFR	5	9	-1	RECORD	1176	n/a	n/a	-1	n/a	n/a	n/a	n/a	n/a
1519.752	n/a	REC_WORD	759876	wordpools/wasnorm_wordpool.txt	LTP150	ltpFR	5	9	-1	VIOLA	1570	n/a	n/a	-1	n/a	n/a	n/a	n/a	n/a
1522.998	n/a	REC_WORD	761499	wordpools/wasnorm_wordpool.txt	LTP150	ltpFR	5	9	-1	MINT	898	n/a	n/a	-1	n/a	n/a	n/a	n/a	n/a
1525.226	n/a	REC_WORD	762613	wordpools/wasnorm_wordpool.txt	LTP150	ltpFR	5	9	-1	CARRIAGE	248	n/a	n/a	-1	n/a	n/a	n/a	n/a	n/a
1529.514	n/a	REC_WORD	764757	wordpools/wasnorm_wordpool.txt	LTP150	ltpFR	5	9	-1	BEAD	103	n/a	n/a	-1	n/a	n/a	n/a	n/a	n/a
1531.792	n/a	REC_WORD	765896	wordpools/wasnorm_wordpool.txt	LTP150	ltpFR	5	9	-1	BUG	187	n/a	n/a	-1	n/a	n/a	n/a	n/a	n/a
1533.732	n/a	REC_WORD	766866	wordpools/wasnorm_wordpool.txt	LTP150	ltpFR	5	9	-1	SUGAR	1401	n/a	n/a	-1	n/a	n/a	n/a	n/a	n/a
1536.684	n/a	REC_WORD	768342	wordpools/wasnorm_wordpool.txt	LTP150	ltpFR	5	9	-1	STALLION	1369	n/a	n/a	-1	n/a	n/a	n/a	n/a	n/a
1539.768	n/a	REC_WORD	769884	wordpools/wasnorm_wordpool.txt	LTP150	ltpFR	5	9	-1	MAGNET	855	n/a	n/a	-1	n/a	n/a	n/a	n/a	n/a
1542.514	n/a	REC_WORD	771257	wordpools/wasnorm_wordpool.txt	LTP150	ltpFR	5	9	-1	BOSS	152	n/a	n/a	-1	n/a	n/a	n/a	n/a	n/a
1584.088	n/a	WORD	792044	wordpools/wasnorm_wordpool.txt	LTP150	ltpFR	5	10	0	HOME	712	n/a	n/a	1	0.422607421875	0.5869140625	0	lower	zerothre.ttf
1587.936	n/a	WORD	793968	wordpools/wasnorm_wordpool.txt	LTP150	ltpFR	5	10	0	VEGETABLE	1552	n/a	n/a	0	0.422607421875	0.5869140625	0	lower	zerothre.ttf
1591.972	n/a	WORD	795986	wordpools/wasnorm_wordpool.txt	LTP150	ltpFR	5	10	0	DAM	436	n/a	n/a	1	0.422607421875	0.5869140625	0	lower	zerothre.ttf
1595.934	n/a	WORD	797967	wordpools/wasnorm_wordpool.txt	LTP150	ltpFR	5	10	0	PEACH	1031	n/a	n/a	0	0.422607421875	0.5869140625	0	lower	zerothre.ttf
1599.938	n/a	WORD	799969	wordpools/wasnorm_wordpool.txt	LTP150	ltpFR	5	10	0	DOCK	477	n/a	n/a	1	0.422607421875	0.5869140625	0	lower	zerothre.ttf
1604.082	n/a	WORD	802041	wordpools/wasnorm_wordpool.txt	LTP150	ltpFR	5	10	0	FREEZER	604	n/a	n/a	1	0.422607421875	0.5869140625	0	lower	zerothre.ttf
1608.162	n/a	WORD	804081	wordpools/wasnorm_wordpool.txt	LTP150	ltpFR	5	10	0	WAGON	1578	n/a	n/a	1	0.422607421875	0.5869140625	0	lower	zerothre.ttf
1612.224	n/a	WORD	806112	wordpools/wasnorm_wordpool.txt	LTP150	ltpFR	5	10	0	COUGAR	387	n/a	n/a	1	0.422607421875	0.5869140625	0	lower	zerothre.ttf
1616.136	n/a	WORD	808068	wordpools/wasnorm_wordpool.txt	LTP150	ltpFR	5	10	0	BAIT	70	n/a	n/a	0	0.422607421875	0.5869140625	0	lower	zerothre.ttf
1619.964	n/a	WORD	809982	wordpools/wasnorm_wordpool.txt	LTP150	ltpFR	5	10	0	PIKE	1067	n/a	n/a	0	0.422607421875	0.5869140625	0	lower	zerothre.ttf
1623.794	n/a	WORD	811897	wordpools/wasnorm_wordpool.txt	LTP150	ltpFR	5	10	0	COLLAR	345	n/a	n/a	0	0.422607421875	0.5869140625	0	lower	zerothre.ttf
1627.822	n/a	WORD	813911	wordpools/wasnorm_wordpool.txt	LTP150	ltpFR	5	10	0	BLOUSE	139	n/a	n/a	0	0.422607421875	0.5869140625	0	lower	zerothre.ttf
1631.826	n/a	WORD	815913	wordpools/wasnorm_wordpool.txt	LTP150	ltpFR	5	10	0	ATOM	55	n/a	n/a	0	0.422607421875	0.5869140625	0	lower	zerothre.ttf
1635.672	n/a	WORD	817836	wordpools/wasnorm_wordpool.txt	LTP150	ltpFR	5	10	0	SHOWER	1296	n/a	n/a	1	0.422607421875	0.5869140625	0	lower	zerothre.ttf
1639.518	n/a	WORD	819759	wordpools/wasnorm_wordpool.txt	LTP150	ltpFR	5	10	0	PEAR	1033	n/a	n/a	0	0.422607421875	0.5869140625	0	lower	zerothre.ttf
1643.514	n/a	WORD	821757	wordpools/wasnorm_wordpool.txt	LTP150	ltpFR	5	10	0	CUBE	420	n/a	n/a	0	0.422607421875	0.5869140625	0	lower	zerothre.ttf
1649.248	n/a	REC_START	824624	n/a	LTP150	ltpFR	5	10	n/a	n/a	n/a	n/a	n/a	n/a	n/a	n/a	n/a	n/a	n/a
1650.978	n/a	REC_WORD	825489	wordpools/wasnorm_wordpool.txt	LTP150	ltpFR	5	10	0	CUBE	420	n/a	n/a	0	n/a	n/a	n/a	n/a	n/a
1653.13	n/a	REC_WORD	826565	wordpools/wasnorm_wordpool.txt	LTP150	ltpFR	5	10	0	PEAR	1033	n/a	n/a	0	n/a	n/a	n/a	n/a	n/a
1655.17	n/a	REC_WORD	827585	wordpools/wasnorm_wordpool.txt	LTP150	ltpFR	5	10	0	SHOWER	1296	n/a	n/a	1	n/a	n/a	n/a	n/a	n/a
1657.264	n/a	REC_WORD	828632	wordpools/wasnorm_wordpool.txt	LTP150	ltpFR	5	10	0	ATOM	55	n/a	n/a	0	n/a	n/a	n/a	n/a	n/a
1660.724	n/a	REC_WORD	830362	wordpools/wasnorm_wordpool.txt	LTP150	ltpFR	5	10	0	BLOUSE	139	n/a	n/a	0	n/a	n/a	n/a	n/a	n/a
1664.118	n/a	REC_WORD	832059	wordpools/wasnorm_wordpool.txt	LTP150	ltpFR	5	10	0	COLLAR	345	n/a	n/a	0	n/a	n/a	n/a	n/a	n/a
1673.108	n/a	REC_WORD	836554	wordpools/wasnorm_wordpool.txt	LTP150	ltpFR	5	10	0	BAIT	70	n/a	n/a	0	n/a	n/a	n/a	n/a	n/a
1677.166	n/a	REC_WORD	838583	wordpools/wasnorm_wordpool.txt	LTP150	ltpFR	5	10	0	COUGAR	387	n/a	n/a	1	n/a	n/a	n/a	n/a	n/a
1680.36	n/a	REC_WORD	840180	wordpools/wasnorm_wordpool.txt	LTP150	ltpFR	5	10	0	WAGON	1578	n/a	n/a	1	n/a	n/a	n/a	n/a	n/a
1689.86	n/a	REC_WORD	844930	wordpools/wasnorm_wordpool.txt	LTP150	ltpFR	5	10	0	DOCK	477	n/a	n/a	1	n/a	n/a	n/a	n/a	n/a
1691.864	n/a	REC_WORD	845932	wordpools/wasnorm_wordpool.txt	LTP150	ltpFR	5	10	0	FREEZER	604	n/a	n/a	1	n/a	n/a	n/a	n/a	n/a
1694.22	n/a	REC_WORD	847110	wordpools/wasnorm_wordpool.txt	LTP150	ltpFR	5	10	0	HOME	712	n/a	n/a	1	n/a	n/a	n/a	n/a	n/a
1696.266	n/a	REC_WORD	848133	wordpools/wasnorm_wordpool.txt	LTP150	ltpFR	5	10	0	VEGETABLE	1552	n/a	n/a	0	n/a	n/a	n/a	n/a	n/a
1698.85	n/a	REC_WORD	849425	wordpools/wasnorm_wordpool.txt	LTP150	ltpFR	5	10	0	DAM	436	n/a	n/a	1	n/a	n/a	n/a	n/a	n/a
1701.53	n/a	REC_WORD	850765	wordpools/wasnorm_wordpool.txt	LTP150	ltpFR	5	10	0	PEACH	1031	n/a	n/a	0	n/a	n/a	n/a	n/a	n/a
1729.314	n/a	WORD	864657	wordpools/wasnorm_wordpool.txt	LTP150	ltpFR	5	11	1	MICROSCOPE	891	n/a	n/a	0	0.57763671875	0.412841796875	1	upper	amplitud.ttf
1733.344	n/a	WORD	866672	wordpools/wasnorm_wordpool.txt	LTP150	ltpFR	5	11	1	SEA	1259	n/a	n/a	0	0.57763671875	0.412841796875	1	upper	amplitud.ttf
1737.448	n/a	WORD	868724	wordpools/wasnorm_wordpool.txt	LTP150	ltpFR	5	11	0	FISH	571	n/a	n/a	0	0.422607421875	0.5869140625	0	lower	zerothre.ttf
1741.642	n/a	WORD	870821	wordpools/wasnorm_wordpool.txt	LTP150	ltpFR	5	11	0	PENNY	1045	n/a	n/a	0	0.422607421875	0.5869140625	0	lower	zerothre.ttf
1745.704	n/a	WORD	872852	wordpools/wasnorm_wordpool.txt	LTP150	ltpFR	5	11	0	MERMAID	887	n/a	n/a	1	0.422607421875	0.5869140625	0	lower	zerothre.ttf
1749.518	n/a	WORD	874759	wordpools/wasnorm_wordpool.txt	LTP150	ltpFR	5	11	1	BARRACUDA	90	n/a	n/a	1	0.57763671875	0.412841796875	1	upper	amplitud.ttf
1753.488	n/a	WORD	876744	wordpools/wasnorm_wordpool.txt	LTP150	ltpFR	5	11	1	CEMETERY	269	n/a	n/a	0	0.57763671875	0.412841796875	1	upper	amplitud.ttf
1757.508	n/a	WORD	878754	wordpools/wasnorm_wordpool.txt	LTP150	ltpFR	5	11	1	TANK	1432	n/a	n/a	0	0.57763671875	0.412841796875	1	upper	amplitud.ttf
1761.402	n/a	WORD	880701	wordpools/wasnorm_wordpool.txt	LTP150	ltpFR	5	11	1	GUARDIAN	668	n/a	n/a	1	0.57763671875	0.412841796875	1	upper	amplitud.ttf
1765.24	n/a	WORD	882620	wordpools/wasnorm_wordpool.txt	LTP150	ltpFR	5	11	1	BABY	64	n/a	n/a	1	0.57763671875	0.412841796875	1	upper	amplitud.ttf
1769.302	n/a	WORD	884651	wordpools/wasnorm_wordpool.txt	LTP150	ltpFR	5	11	1	SHORE	1291	n/a	n/a	0	0.57763671875	0.412841796875	1	upper	amplitud.ttf
1773.13	n/a	WORD	886565	wordpools/wasnorm_wordpool.txt	LTP150	ltpFR	5	11	0	DUNE	506	n/a	n/a	1	0.422607421875	0.5869140625	0	lower	zerothre.ttf
1777.184	n/a	WORD	888592	wordpools/wasnorm_wordpool.txt	LTP150	ltpFR	5	11	0	ORCHESTRA	981	n/a	n/a	1	0.422607421875	0.5869140625	0	lower	zerothre.ttf
1781.096	n/a	WORD	890548	wordpools/wasnorm_wordpool.txt	LTP150	ltpFR	5	11	0	GALLON	618	n/a	n/a	1	0.422607421875	0.5869140625	0	lower	zerothre.ttf
1785.258	n/a	WORD	892629	wordpools/wasnorm_wordpool.txt	LTP150	ltpFR	5	11	0	CEREAL	272	n/a	n/a	0	0.422607421875	0.5869140625	0	lower	zerothre.ttf
1789.422	n/a	WORD	894711	wordpools/wasnorm_wordpool.txt	LTP150	ltpFR	5	11	0	DANCER	437	n/a	n/a	1	0.422607421875	0.5869140625	0	lower	zerothre.ttf
1795.248	n/a	REC_START	897624	n/a	LTP150	ltpFR	5	11	n/a	n/a	n/a	n/a	n/a	n/a	n/a	n/a	n/a	n/a	n/a
1796.778	n/a	REC_WORD	898389	wordpools/wasnorm_wordpool.txt	LTP150	ltpFR	5	11	0	DANCER	437	n/a	n/a	1	n/a	n/a	n/a	n/a	n/a
1799.54	n/a	REC_WORD	899770	wordpools/wasnorm_wordpool.txt	LTP150	ltpFR	5	11	0	CEREAL	272	n/a	n/a	0	n/a	n/a	n/a	n/a	n/a
1803.332	n/a	REC_WORD	901666	wordpools/wasnorm_wordpool.txt	LTP150	ltpFR	5	11	0	DUNE	506	n/a	n/a	1	n/a	n/a	n/a	n/a	n/a
1805.344	n/a	REC_WORD	902672	wordpools/wasnorm_wordpool.txt	LTP150	ltpFR	5	11	1	SHORE	1291	n/a	n/a	0	n/a	n/a	n/a	n/a	n/a
1807.71	n/a	REC_WORD	903855	wordpools/wasnorm_wordpool.txt	LTP150	ltpFR	5	11	0	GALLON	618	n/a	n/a	1	n/a	n/a	n/a	n/a	n/a
1810.234	n/a	REC_WORD	905117	wordpools/wasnorm_wordpool.txt	LTP150	ltpFR	5	11	0	ORCHESTRA	981	n/a	n/a	1	n/a	n/a	n/a	n/a	n/a
1815.14	n/a	REC_WORD	907570	wordpools/wasnorm_wordpool.txt	LTP150	ltpFR	5	11	1	BABY	64	n/a	n/a	1	n/a	n/a	n/a	n/a	n/a
1817.202	n/a	REC_WORD	908601	wordpools/wasnorm_wordpool.txt	LTP150	ltpFR	5	11	1	GUARDIAN	668	n/a	n/a	1	n/a	n/a	n/a	n/a	n/a
1820.142	n/a	REC_WORD	910071	wordpools/wasnorm_wordpool.txt	LTP150	ltpFR	5	11	1	TANK	1432	n/a	n/a	0	n/a	n/a	n/a	n/a	n/a
1822.306	n/a	REC_WORD	911153	wordpools/wasnorm_wordpool.txt	LTP150	ltpFR	5	11	1	CEMETERY	269	n/a	n/a	0	n/a	n/a	n/a	n/a	n/a
1826.278	n/a	REC_WORD	913139	wordpools/wasnorm_wordpool.txt	LTP150	ltpFR	5	11	1	MICROSCOPE	891	n/a	n/a	0	n/a	n/a	n/a	n/a	n/a
1828.586	n/a	REC_WORD	914293	wordpools/wasnorm_wordpool.txt	LTP150	ltpFR	5	11	1	SEA	1259	n/a	n/a	0	n/a	n/a	n/a	n/a	n/a
1830.788	n/a	REC_WORD	915394	wordpools/wasnorm_wordpool.txt	LTP150	ltpFR	5	11	0	FISH	571	n/a	n/a	0	n/a	n/a	n/a	n/a	n/a
1833.09	n/a	REC_WORD	916545	wordpools/wasnorm_wordpool.txt	LTP150	ltpFR	5	11	0	PENNY	1045	n/a	n/a	0	n/a	n/a	n/a	n/a	n/a
1835.268	n/a	REC_WORD	917634	wordpools/wasnorm_wordpool.txt	LTP150	ltpFR	5	11	0	MERMAID	887	n/a	n/a	1	n/a	n/a	n/a	n/a	n/a
1837.658	n/a	REC_WORD	918829	wordpools/wasnorm_wordpool.txt	LTP150	ltpFR	5	11	1	BARRACUDA	90	n/a	n/a	1	n/a	n/a	n/a	n/a	n/a
1873.69	n/a	WORD	936845	wordpools/wasnorm_wordpool.txt	LTP150	ltpFR	5	12	0	CITIZEN	312	n/a	n/a	1	0.422607421875	0.5869140625	0	lower	zerothre.ttf
1877.636	n/a	WORD	938818	wordpools/wasnorm_wordpool.txt	LTP150	ltpFR	5	12	0	MONASTERY	907	n/a	n/a	1	0.422607421875	0.5869140625	0	lower	zerothre.ttf
1881.766	n/a	WORD	940883	wordpools/wasnorm_wordpool.txt	LTP150	ltpFR	5	12	1	COLT	349	n/a	n/a	1	0.57763671875	0.412841796875	1	upper	amplitud.ttf
1885.918	n/a	WORD	942959	wordpools/wasnorm_wordpool.txt	LTP150	ltpFR	5	12	1	DUNGEON	507	n/a	n/a	0	0.57763671875	0.412841796875	1	upper	amplitud.ttf
1890.13	n/a	WORD	945065	wordpools/wasnorm_wordpool.txt	LTP150	ltpFR	5	12	1	CANARY	227	n/a	n/a	1	0.57763671875	0.412841796875	1	upper	amplitud.ttf
1894.26	n/a	WORD	947130	wordpools/wasnorm_wordpool.txt	LTP150	ltpFR	5	12	1	GANGSTER	620	n/a	n/a	1	0.57763671875	0.412841796875	1	upper	amplitud.ttf
1898.204	n/a	WORD	949102	wordpools/wasnorm_wordpool.txt	LTP150	ltpFR	5	12	1	GARBAGE	622	n/a	n/a	0	0.57763671875	0.412841796875	1	upper	amplitud.ttf
1902.058	n/a	WORD	951029	wordpools/wasnorm_wordpool.txt	LTP150	ltpFR	5	12	1	TRASH	1497	n/a	n/a	0	0.57763671875	0.412841796875	1	upper	amplitud.ttf
1906.096	n/a	WORD	953048	wordpools/wasnorm_wordpool.txt	LTP150	ltpFR	5	12	0	BRAKE	166	n/a	n/a	1	0.422607421875	0.5869140625	0	lower	zerothre.ttf
1910.116	n/a	WORD	955058	wordpools/wasnorm_wordpool.txt	LTP150	ltpFR	5	12	0	AUTOMOBILE	62	n/a	n/a	1	0.422607421875	0.5869140625	0	lower	zerothre.ttf
1914.078	n/a	WORD	957039	wordpools/wasnorm_wordpool.txt	LTP150	ltpFR	5	12	0	BACON	67	n/a	n/a	0	0.422607421875	0.5869140625	0	lower	zerothre.ttf
1918.024	n/a	WORD	959012	wordpools/wasnorm_wordpool.txt	LTP150	ltpFR	5	12	1	WHIP	1604	n/a	n/a	0	0.57763671875	0.412841796875	1	upper	amplitud.ttf
1922.06	n/a	WORD	961030	wordpools/wasnorm_wordpool.txt	LTP150	ltpFR	5	12	1	PREACHER	1119	n/a	n/a	1	0.57763671875	0.412841796875	1	upper	amplitud.ttf
1926.164	n/a	WORD	963082	wordpools/wasnorm_wordpool.txt	LTP150	ltpFR	5	12	0	OX	994	n/a	n/a	1	0.422607421875	0.5869140625	0	lower	zerothre.ttf
1930.018	n/a	WORD	965009	wordpools/wasnorm_wordpool.txt	LTP150	ltpFR	5	12	0	PERSONNEL	1053	n/a	n/a	1	0.422607421875	0.5869140625	0	lower	zerothre.ttf
1934.188	n/a	WORD	967094	wordpools/wasnorm_wordpool.txt	LTP150	ltpFR	5	12	0	BUGGY	188	n/a	n/a	1	0.422607421875	0.5869140625	0	lower	zerothre.ttf
1939.948	n/a	REC_START	969974	n/a	LTP150	ltpFR	5	12	n/a	n/a	n/a	n/a	n/a	n/a	n/a	n/a	n/a	n/a	n/a
1941.472	n/a	REC_WORD	970736	wordpools/wasnorm_wordpool.txt	LTP150	ltpFR	5	12	0	BUGGY	188	n/a	n/a	1	n/a	n/a	n/a	n/a	n/a
1942.97	n/a	REC_WORD	971485	wordpools/wasnorm_wordpool.txt	LTP150	ltpFR	5	12	0	PERSONNEL	1053	n/a	n/a	1	n/a	n/a	n/a	n/a	n/a
1944.882	n/a	REC_WORD	972441	wordpools/wasnorm_wordpool.txt	LTP150	ltpFR	5	12	1	PREACHER	1119	n/a	n/a	1	n/a	n/a	n/a	n/a	n/a
1946.726	n/a	REC_WORD	973363	wordpools/wasnorm_wordpool.txt	LTP150	ltpFR	5	12	1	WHIP	1604	n/a	n/a	0	n/a	n/a	n/a	n/a	n/a
1949.714	n/a	REC_WORD	974857	wordpools/wasnorm_wordpool.txt	LTP150	ltpFR	5	12	0	CITIZEN	312	n/a	n/a	1	n/a	n/a	n/a	n/a	n/a
1951.738	n/a	REC_WORD	975869	wordpools/wasnorm_wordpool.txt	LTP150	ltpFR	5	12	0	MONASTERY	907	n/a	n/a	1	n/a	n/a	n/a	n/a	n/a
1957.55	n/a	REC_WORD	978775	wordpools/wasnorm_wordpool.txt	LTP150	ltpFR	5	12	1	COLT	349	n/a	n/a	1	n/a	n/a	n/a	n/a	n/a
1959.536	n/a	REC_WORD	979768	wordpools/wasnorm_wordpool.txt	LTP150	ltpFR	5	12	1	DUNGEON	507	n/a	n/a	0	n/a	n/a	n/a	n/a	n/a
1962.006	n/a	REC_WORD	981003	wordpools/wasnorm_wordpool.txt	LTP150	ltpFR	5	12	1	CANARY	227	n/a	n/a	1	n/a	n/a	n/a	n/a	n/a
1964.0	n/a	REC_WORD	982000	wordpools/wasnorm_wordpool.txt	LTP150	ltpFR	5	12	1	GANGSTER	620	n/a	n/a	1	n/a	n/a	n/a	n/a	n/a
1965.95	n/a	REC_WORD	982975	wordpools/wasnorm_wordpool.txt	LTP150	ltpFR	5	12	1	GARBAGE	622	n/a	n/a	0	n/a	n/a	n/a	n/a	n/a
1967.8	n/a	REC_WORD	983900	wordpools/wasnorm_wordpool.txt	LTP150	ltpFR	5	12	1	TRASH	1497	n/a	n/a	0	n/a	n/a	n/a	n/a	n/a
1970.054	n/a	REC_WORD	985027	wordpools/wasnorm_wordpool.txt	LTP150	ltpFR	5	12	0	BRAKE	166	n/a	n/a	1	n/a	n/a	n/a	n/a	n/a
1971.882	n/a	REC_WORD	985941	wordpools/wasnorm_wordpool.txt	LTP150	ltpFR	5	12	0	AUTOMOBILE	62	n/a	n/a	1	n/a	n/a	n/a	n/a	n/a
1974.062	n/a	REC_WORD	987031	wordpools/wasnorm_wordpool.txt	LTP150	ltpFR	5	12	0	BACON	67	n/a	n/a	0	n/a	n/a	n/a	n/a	n/a
1985.738	n/a	REC_WORD	992869	wordpools/wasnorm_wordpool.txt	LTP150	ltpFR	5	12	0	OX	994	n/a	n/a	1	n/a	n/a	n/a	n/a	n/a
2015.53	n/a	REST_REWET	1007765	n/a	LTP150	ltpFR	5	12	n/a	n/a	n/a	n/a	n/a	n/a	n/a	n/a	n/a	n/a	n/a
2285.586	n/a	WORD	1142793	wordpools/wasnorm_wordpool.txt	LTP150	ltpFR	5	13	-1	LAPEL	800	n/a	n/a	-1	1.0	1.0	1	upper	Verdana.ttf
2289.516	n/a	WORD	1144758	wordpools/wasnorm_wordpool.txt	LTP150	ltpFR	5	13	-1	RICE	1190	n/a	n/a	-1	1.0	1.0	1	upper	Verdana.ttf
2293.418	n/a	WORD	1146709	wordpools/wasnorm_wordpool.txt	LTP150	ltpFR	5	13	-1	LEOPARD	812	n/a	n/a	-1	1.0	1.0	1	upper	Verdana.ttf
2297.506	n/a	WORD	1148753	wordpools/wasnorm_wordpool.txt	LTP150	ltpFR	5	13	-1	PIPE	1073	n/a	n/a	-1	1.0	1.0	1	upper	Verdana.ttf
2301.576	n/a	WORD	1150788	wordpools/wasnorm_wordpool.txt	LTP150	ltpFR	5	13	-1	STAPLE	1371	n/a	n/a	-1	1.0	1.0	1	upper	Verdana.ttf
2305.412	n/a	WORD	1152706	wordpools/wasnorm_wordpool.txt	LTP150	ltpFR	5	13	-1	GUN	673	n/a	n/a	-1	1.0	1.0	1	upper	Verdana.ttf
2309.468	n/a	WORD	1154734	wordpools/wasnorm_wordpool.txt	LTP150	ltpFR	5	13	-1	HORIZON	717	n/a	n/a	-1	1.0	1.0	1	upper	Verdana.ttf
2313.446	n/a	WORD	1156723	wordpools/wasnorm_wordpool.txt	LTP150	ltpFR	5	13	-1	FLASHLIGHT	575	n/a	n/a	-1	1.0	1.0	1	upper	Verdana.ttf
2317.408	n/a	WORD	1158704	wordpools/wasnorm_wordpool.txt	LTP150	ltpFR	5	13	-1	HELICOPTER	701	n/a	n/a	-1	1.0	1.0	1	upper	Verdana.ttf
2321.462	n/a	WORD	1160731	wordpools/wasnorm_wordpool.txt	LTP150	ltpFR	5	13	-1	AIRPORT	13	n/a	n/a	-1	1.0	1.0	1	upper	Verdana.ttf
2325.484	n/a	WORD	1162742	wordpools/wasnorm_wordpool.txt	LTP150	ltpFR	5	13	-1	FAUCET	555	n/a	n/a	-1	1.0	1.0	1	upper	Verdana.ttf
2329.61	n/a	WORD	1164805	wordpools/wasnorm_wordpool.txt	LTP150	ltpFR	5	13	-1	OATMEAL	967	n/a	n/a	-1	1.0	1.0	1	upper	Verdana.ttf
2333.732	n/a	WORD	1166866	wordpools/wasnorm_wordpool.txt	LTP150	ltpFR	5	13	-1	PANTHER	1009	n/a	n/a	-1	1.0	1.0	1	upper	Verdana.ttf
2337.826	n/a	WORD	1168913	wordpools/wasnorm_wordpool.txt	LTP150	ltpFR	5	13	-1	PLATE	1086	n/a	n/a	-1	1.0	1.0	1	upper	Verdana.ttf
2341.954	n/a	WORD	1170977	wordpools/wasnorm_wordpool.txt	LTP150	ltpFR	5	13	-1	WICK	1607	n/a	n/a	-1	1.0	1.0	1	upper	Verdana.ttf
2346.084	n/a	WORD	1173042	wordpools/wasnorm_wordpool.txt	LTP150	ltpFR	5	13	-1	MICROWAVE	892	n/a	n/a	-1	1.0	1.0	1	upper	Verdana.ttf
2352.052	n/a	REC_START	1176026	n/a	LTP150	ltpFR	5	13	n/a	n/a	n/a	n/a	n/a	n/a	n/a	n/a	n/a	n/a	n/a
2354.244	n/a	REC_WORD	1177122	wordpools/wasnorm_wordpool.txt	LTP150	ltpFR	5	13	-1	MICROWAVE	892	n/a	n/a	-1	n/a	n/a	n/a	n/a	n/a
2356.152	n/a	REC_WORD	1178076	wordpools/wasnorm_wordpool.txt	LTP150	ltpFR	5	13	-1	WICK	1607	n/a	n/a	-1	n/a	n/a	n/a	n/a	n/a
2358.084	n/a	REC_WORD	1179042	wordpools/wasnorm_wordpool.txt	LTP150	ltpFR	5	13	-1	PLATE	1086	n/a	n/a	-1	n/a	n/a	n/a	n/a	n/a
2359.996	n/a	REC_WORD	1179998	wordpools/wasnorm_wordpool.txt	LTP150	ltpFR	5	13	-1	PANTHER	1009	n/a	n/a	-1	n/a	n/a	n/a	n/a	n/a
2362.114	n/a	REC_WORD	1181057	wordpools/wasnorm_wordpool.txt	LTP150	ltpFR	5	13	-1	OATMEAL	967	n/a	n/a	-1	n/a	n/a	n/a	n/a	n/a
2364.242	n/a	REC_WORD	1182121	wordpools/wasnorm_wordpool.txt	LTP150	ltpFR	5	13	-1	AIRPORT	13	n/a	n/a	-1	n/a	n/a	n/a	n/a	n/a
2366.118	n/a	REC_WORD	1183059	wordpools/wasnorm_wordpool.txt	LTP150	ltpFR	5	13	-1	FAUCET	555	n/a	n/a	-1	n/a	n/a	n/a	n/a	n/a
2371.882	n/a	REC_WORD	1185941	wordpools/wasnorm_wordpool.txt	LTP150	ltpFR	5	13	-1	HORIZON	717	n/a	n/a	-1	n/a	n/a	n/a	n/a	n/a
2374.63	n/a	REC_WORD	1187315	wordpools/wasnorm_wordpool.txt	LTP150	ltpFR	5	13	-1	FLASHLIGHT	575	n/a	n/a	-1	n/a	n/a	n/a	n/a	n/a
2376.706	n/a	REC_WORD	1188353	wordpools/wasnorm_wordpool.txt	LTP150	ltpFR	5	13	-1	HELICOPTER	701	n/a	n/a	-1	n/a	n/a	n/a	n/a	n/a
2379.062	n/a	REC_WORD	1189531	wordpools/wasnorm_wordpool.txt	LTP150	ltpFR	5	13	-1	GUN	673	n/a	n/a	-1	n/a	n/a	n/a	n/a	n/a
2380.228	n/a	REC_WORD	1190114	wordpools/wasnorm_wordpool.txt	LTP150	ltpFR	5	13	-1	STAPLE	1371	n/a	n/a	-1	n/a	n/a	n/a	n/a	n/a
2381.948	n/a	REC_WORD	1190974	wordpools/wasnorm_wordpool.txt	LTP150	ltpFR	5	13	-1	PIPE	1073	n/a	n/a	-1	n/a	n/a	n/a	n/a	n/a
2387.4	n/a	REC_WORD	1193700	wordpools/wasnorm_wordpool.txt	LTP150	ltpFR	5	13	-1	LEOPARD	812	n/a	n/a	-1	n/a	n/a	n/a	n/a	n/a
2389.126	n/a	REC_WORD	1194563	wordpools/wasnorm_wordpool.txt	LTP150	ltpFR	5	13	-1	RICE	1190	n/a	n/a	-1	n/a	n/a	n/a	n/a	n/a
2391.87	n/a	REC_WORD	1195935	wordpools/wasnorm_wordpool.txt	LTP150	ltpFR	5	13	-1	LAPEL	800	n/a	n/a	-1	n/a	n/a	n/a	n/a	n/a
2416.484	n/a	REC_WORD	1208242	wordpools/wasnorm_wordpool.txt	LTP150	ltpFR	5	13	-1	FLASHLIGHT	575	n/a	n/a	-1	n/a	n/a	n/a	n/a	n/a
2434.648	n/a	WORD	1217324	wordpools/wasnorm_wordpool.txt	LTP150	ltpFR	5	14	0	PRAIRIE	1118	n/a	n/a	1	0.422607421875	0.5869140625	0	lower	zerothre.ttf
2438.644	n/a	WORD	1219322	wordpools/wasnorm_wordpool.txt	LTP150	ltpFR	5	14	0	SAPPHIRE	1234	n/a	n/a	0	0.422607421875	0.5869140625	0	lower	zerothre.ttf
2442.524	n/a	WORD	1221262	wordpools/wasnorm_wordpool.txt	LTP150	ltpFR	5	14	0	BELL	118	n/a	n/a	0	0.422607421875	0.5869140625	0	lower	zerothre.ttf
2446.602	n/a	WORD	1223301	wordpools/wasnorm_wordpool.txt	LTP150	ltpFR	5	14	0	QUARTER	1148	n/a	n/a	0	0.422607421875	0.5869140625	0	lower	zerothre.ttf
2450.432	n/a	WORD	1225216	wordpools/wasnorm_wordpool.txt	LTP150	ltpFR	5	14	0	TREASURE	1500	n/a	n/a	0	0.422607421875	0.5869140625	0	lower	zerothre.ttf
2454.326	n/a	WORD	1227163	wordpools/wasnorm_wordpool.txt	LTP150	ltpFR	5	14	0	CARPENTER	246	n/a	n/a	1	0.422607421875	0.5869140625	0	lower	zerothre.ttf
2458.212	n/a	WORD	1229106	wordpools/wasnorm_wordpool.txt	LTP150	ltpFR	5	14	0	TUNA	1518	n/a	n/a	0	0.422607421875	0.5869140625	0	lower	zerothre.ttf
2462.216	n/a	WORD	1231108	wordpools/wasnorm_wordpool.txt	LTP150	ltpFR	5	14	0	HURRICANE	727	n/a	n/a	1	0.422607421875	0.5869140625	0	lower	zerothre.ttf
2466.33	n/a	WORD	1233165	wordpools/wasnorm_wordpool.txt	LTP150	ltpFR	5	14	0	EAR	513	n/a	n/a	0	0.422607421875	0.5869140625	0	lower	zerothre.ttf
2470.366	n/a	WORD	1235183	wordpools/wasnorm_wordpool.txt	LTP150	ltpFR	5	14	0	FORT	595	n/a	n/a	1	0.422607421875	0.5869140625	0	lower	zerothre.ttf
2474.488	n/a	WORD	1237244	wordpools/wasnorm_wordpool.txt	LTP150	ltpFR	5	14	0	TRIGGER	1507	n/a	n/a	0	0.422607421875	0.5869140625	0	lower	zerothre.ttf
2478.69	n/a	WORD	1239345	wordpools/wasnorm_wordpool.txt	LTP150	ltpFR	5	14	0	JELLO	754	n/a	n/a	0	0.422607421875	0.5869140625	0	lower	zerothre.ttf
2482.868	n/a	WORD	1241434	wordpools/wasnorm_wordpool.txt	LTP150	ltpFR	5	14	0	NOSE	957	n/a	n/a	0	0.422607421875	0.5869140625	0	lower	zerothre.ttf
2487.006	n/a	WORD	1243503	wordpools/wasnorm_wordpool.txt	LTP150	ltpFR	5	14	0	WALLET	1583	n/a	n/a	0	0.422607421875	0.5869140625	0	lower	zerothre.ttf
2491.026	n/a	WORD	1245513	wordpools/wasnorm_wordpool.txt	LTP150	ltpFR	5	14	0	WALL	1582	n/a	n/a	1	0.422607421875	0.5869140625	0	lower	zerothre.ttf
2495.088	n/a	WORD	1247544	wordpools/wasnorm_wordpool.txt	LTP150	ltpFR	5	14	0	PUDDING	1139	n/a	n/a	0	0.422607421875	0.5869140625	0	lower	zerothre.ttf
2500.674	n/a	REC_START	1250337	n/a	LTP150	ltpFR	5	14	n/a	n/a	n/a	n/a	n/a	n/a	n/a	n/a	n/a	n/a	n/a
2502.286	n/a	REC_WORD	1251143	wordpools/wasnorm_wordpool.txt	LTP150	ltpFR	5	14	0	PUDDING	1139	n/a	n/a	0	n/a	n/a	n/a	n/a	n/a
2503.838	n/a	REC_WORD	1251919	wordpools/wasnorm_wordpool.txt	LTP150	ltpFR	5	14	0	WALL	1582	n/a	n/a	1	n/a	n/a	n/a	n/a	n/a
2505.66	n/a	REC_WORD	1252830	wordpools/wasnorm_wordpool.txt	LTP150	ltpFR	5	14	0	WALLET	1583	n/a	n/a	0	n/a	n/a	n/a	n/a	n/a
2507.546	n/a	REC_WORD	1253773	wordpools/wasnorm_wordpool.txt	LTP150	ltpFR	5	14	0	NOSE	957	n/a	n/a	0	n/a	n/a	n/a	n/a	n/a
2511.356	n/a	REC_WORD	1255678	wordpools/wasnorm_wordpool.txt	LTP150	ltpFR	5	14	0	JELLO	754	n/a	n/a	0	n/a	n/a	n/a	n/a	n/a
2513.254	n/a	REC_WORD	1256627	wordpools/wasnorm_wordpool.txt	LTP150	ltpFR	5	14	0	TRIGGER	1507	n/a	n/a	0	n/a	n/a	n/a	n/a	n/a
2515.262	n/a	REC_WORD	1257631	wordpools/wasnorm_wordpool.txt	LTP150	ltpFR	5	14	0	FORT	595	n/a	n/a	1	n/a	n/a	n/a	n/a	n/a
2517.542	n/a	REC_WORD	1258771	wordpools/wasnorm_wordpool.txt	LTP150	ltpFR	5	14	0	EAR	513	n/a	n/a	0	n/a	n/a	n/a	n/a	n/a
2520.0	n/a	REC_WORD	1260000	wordpools/wasnorm_wordpool.txt	LTP150	ltpFR	5	14	0	HURRICANE	727	n/a	n/a	1	n/a	n/a	n/a	n/a	n/a
2522.77	n/a	REC_WORD	1261385	wordpools/wasnorm_wordpool.txt	LTP150	ltpFR	5	14	1	TROUT	1511	n/a	n/a	1	n/a	n/a	n/a	n/a	n/a
2535.256	n/a	REC_WORD	1267628	wordpools/wasnorm_wordpool.txt	LTP150	ltpFR	5	14	0	CARPENTER	246	n/a	n/a	1	n/a	n/a	n/a	n/a	n/a
2538.068	n/a	REC_WORD	1269034	wordpools/wasnorm_wordpool.txt	LTP150	ltpFR	5	14	0	QUARTER	1148	n/a	n/a	0	n/a	n/a	n/a	n/a	n/a
2540.28	n/a	REC_WORD	1270140	wordpools/wasnorm_wordpool.txt	LTP150	ltpFR	5	14	0	TREASURE	1500	n/a	n/a	0	n/a	n/a	n/a	n/a	n/a
2543.382	n/a	REC_WORD	1271691	wordpools/wasnorm_wordpool.txt	LTP150	ltpFR	5	14	0	PRAIRIE	1118	n/a	n/a	1	n/a	n/a	n/a	n/a	n/a
2550.978	n/a	REC_WORD	1275489	wordpools/wasnorm_wordpool.txt	LTP150	ltpFR	5	14	0	SAPPHIRE	1234	n/a	n/a	0	n/a	n/a	n/a	n/a	n/a
2554.188	n/a	REC_WORD	1277094	wordpools/wasnorm_wordpool.txt	LTP150	ltpFR	5	14	0	BELL	118	n/a	n/a	0	n/a	n/a	n/a	n/a	n/a
2579.282	n/a	WORD	1289641	wordpools/wasnorm_wordpool.txt	LTP150	ltpFR	5	15	1	PORK	1108	n/a	n/a	0	0.57763671875	0.412841796875	1	upper	amplitud.ttf
2583.104	n/a	WORD	1291552	wordpools/wasnorm_wordpool.txt	LTP150	ltpFR	5	15	1	GIFT	635	n/a	n/a	0	0.57763671875	0.412841796875	1	upper	amplitud.ttf
2587.166	n/a	WORD	1293583	wordpools/wasnorm_wordpool.txt	LTP150	ltpFR	5	15	1	RAT	1169	n/a	n/a	1	0.57763671875	0.412841796875	1	upper	amplitud.ttf
2591.028	n/a	WORD	1295514	wordpools/wasnorm_wordpool.txt	LTP150	ltpFR	5	15	0	STY	1397	n/a	n/a	0	0.422607421875	0.5869140625	0	lower	zerothre.ttf
2595.232	n/a	WORD	1297616	wordpools/wasnorm_wordpool.txt	LTP150	ltpFR	5	15	0	MONGOOSE	909	n/a	n/a	1	0.422607421875	0.5869140625	0	lower	zerothre.ttf
2599.21	n/a	WORD	1299605	wordpools/wasnorm_wordpool.txt	LTP150	ltpFR	5	15	1	CREATURE	403	n/a	n/a	1	0.57763671875	0.412841796875	1	upper	amplitud.ttf
2603.388	n/a	WORD	1301694	wordpools/wasnorm_wordpool.txt	LTP150	ltpFR	5	15	1	BASEBALL	93	n/a	n/a	0	0.57763671875	0.412841796875	1	upper	amplitud.ttf
2607.208	n/a	WORD	1303604	wordpools/wasnorm_wordpool.txt	LTP150	ltpFR	5	15	0	UMPIRE	1535	n/a	n/a	1	0.422607421875	0.5869140625	0	lower	zerothre.ttf
2611.346	n/a	WORD	1305673	wordpools/wasnorm_wordpool.txt	LTP150	ltpFR	5	15	0	BEAST	108	n/a	n/a	1	0.422607421875	0.5869140625	0	lower	zerothre.ttf
2615.21	n/a	WORD	1307605	wordpools/wasnorm_wordpool.txt	LTP150	ltpFR	5	15	0	COOK	372	n/a	n/a	1	0.422607421875	0.5869140625	0	lower	zerothre.ttf
2619.062	n/a	WORD	1309531	wordpools/wasnorm_wordpool.txt	LTP150	ltpFR	5	15	0	ROAD	1196	n/a	n/a	1	0.422607421875	0.5869140625	0	lower	zerothre.ttf
2623.25	n/a	WORD	1311625	wordpools/wasnorm_wordpool.txt	LTP150	ltpFR	5	15	0	SEED	1266	n/a	n/a	0	0.422607421875	0.5869140625	0	lower	zerothre.ttf
2627.428	n/a	WORD	1313714	wordpools/wasnorm_wordpool.txt	LTP150	ltpFR	5	15	0	ZOO	1637	n/a	n/a	1	0.422607421875	0.5869140625	0	lower	zerothre.ttf
2631.266	n/a	WORD	1315633	wordpools/wasnorm_wordpool.txt	LTP150	ltpFR	5	15	1	MEAL	882	n/a	n/a	0	0.57763671875	0.412841796875	1	upper	amplitud.ttf
2635.47	n/a	WORD	1317735	wordpools/wasnorm_wordpool.txt	LTP150	ltpFR	5	15	1	TURKEY	1520	n/a	n/a	1	0.57763671875	0.412841796875	1	upper	amplitud.ttf
2639.456	n/a	WORD	1319728	wordpools/wasnorm_wordpool.txt	LTP150	ltpFR	5	15	1	ZUCCHINI	1638	n/a	n/a	1	0.57763671875	0.412841796875	1	upper	amplitud.ttf
2645.374	n/a	REC_START	1322687	n/a	LTP150	ltpFR	5	15	n/a	n/a	n/a	n/a	n/a	n/a	n/a	n/a	n/a	n/a	n/a
2646.326	n/a	REC_WORD	1323163	wordpools/wasnorm_wordpool.txt	LTP150	ltpFR	5	15	1	ZUCCHINI	1638	n/a	n/a	1	n/a	n/a	n/a	n/a	n/a
2648.616	n/a	REC_WORD	1324308	wordpools/wasnorm_wordpool.txt	LTP150	ltpFR	5	15	1	MEAL	882	n/a	n/a	0	n/a	n/a	n/a	n/a	n/a
2650.368	n/a	REC_WORD	1325184	wordpools/wasnorm_wordpool.txt	LTP150	ltpFR	5	15	1	TURKEY	1520	n/a	n/a	1	n/a	n/a	n/a	n/a	n/a
2659.55	n/a	REC_WORD	1329775	wordpools/wasnorm_wordpool.txt	LTP150	ltpFR	5	15	1	PORK	1108	n/a	n/a	0	n/a	n/a	n/a	n/a	n/a
2661.202	n/a	REC_WORD	1330601	wordpools/wasnorm_wordpool.txt	LTP150	ltpFR	5	15	1	GIFT	635	n/a	n/a	0	n/a	n/a	n/a	n/a	n/a
2662.674	n/a	REC_WORD	1331337	wordpools/wasnorm_wordpool.txt	LTP150	ltpFR	5	15	1	RAT	1169	n/a	n/a	1	n/a	n/a	n/a	n/a	n/a
2664.24	n/a	REC_WORD	1332120	wordpools/wasnorm_wordpool.txt	LTP150	ltpFR	5	15	0	STY	1397	n/a	n/a	0	n/a	n/a	n/a	n/a	n/a
2666.39	n/a	REC_WORD	1333195	wordpools/wasnorm_wordpool.txt	LTP150	ltpFR	5	15	0	MONGOOSE	909	n/a	n/a	1	n/a	n/a	n/a	n/a	n/a
2668.13	n/a	REC_WORD	1334065	wordpools/wasnorm_wordpool.txt	LTP150	ltpFR	5	15	1	BASEBALL	93	n/a	n/a	0	n/a	n/a	n/a	n/a	n/a
2669.722	n/a	REC_WORD	1334861	wordpools/wasnorm_wordpool.txt	LTP150	ltpFR	5	15	0	UMPIRE	1535	n/a	n/a	1	n/a	n/a	n/a	n/a	n/a
2673.868	n/a	REC_WORD	1336934	wordpools/wasnorm_wordpool.txt	LTP150	ltpFR	5	15	1	CREATURE	403	n/a	n/a	1	n/a	n/a	n/a	n/a	n/a
2689.538	n/a	REC_WORD	1344769	wordpools/wasnorm_wordpool.txt	LTP150	ltpFR	5	15	0	COOK	372	n/a	n/a	1	n/a	n/a	n/a	n/a	n/a
2691.402	n/a	REC_WORD	1345701	wordpools/wasnorm_wordpool.txt	LTP150	ltpFR	5	15	0	ROAD	1196	n/a	n/a	1	n/a	n/a	n/a	n/a	n/a
2693.128	n/a	REC_WORD	1346564	wordpools/wasnorm_wordpool.txt	LTP150	ltpFR	5	15	0	ZOO	1637	n/a	n/a	1	n/a	n/a	n/a	n/a	n/a
2694.824	n/a	REC_WORD	1347412	wordpools/wasnorm_wordpool.txt	LTP150	ltpFR	5	15	0	SEED	1266	n/a	n/a	0	n/a	n/a	n/a	n/a	n/a
2704.012	n/a	REC_WORD	1352006	wordpools/wasnorm_wordpool.txt	LTP150	ltpFR	5	15	1	ZUCCHINI	1638	n/a	n/a	1	n/a	n/a	n/a	n/a	n/a
2723.968	n/a	WORD	1361984	wordpools/wasnorm_wordpool.txt	LTP150	ltpFR	5	16	0	LID	817	n/a	n/a	0	0.422607421875	0.5869140625	0	lower	zerothre.ttf
2728.112	n/a	WORD	1364056	wordpools/wasnorm_wordpool.txt	LTP150	ltpFR	5	16	0	DICTIONARY	463	n/a	n/a	1	0.422607421875	0.5869140625	0	lower	zerothre.ttf
2732.0	n/a	WORD	1366000	wordpools/wasnorm_wordpool.txt	LTP150	ltpFR	5	16	0	ROACH	1195	n/a	n/a	0	0.422607421875	0.5869140625	0	lower	zerothre.ttf
2736.004	n/a	WORD	1368002	wordpools/wasnorm_wordpool.txt	LTP150	ltpFR	5	16	0	INSECT	740	n/a	n/a	0	0.422607421875	0.5869140625	0	lower	zerothre.ttf
2740.04	n/a	WORD	1370020	wordpools/wasnorm_wordpool.txt	LTP150	ltpFR	5	16	0	BEEF	113	n/a	n/a	0	0.422607421875	0.5869140625	0	lower	zerothre.ttf
2743.952	n/a	WORD	1371976	wordpools/wasnorm_wordpool.txt	LTP150	ltpFR	5	16	0	GLOVE	642	n/a	n/a	0	0.422607421875	0.5869140625	0	lower	zerothre.ttf
2747.914	n/a	WORD	1373957	wordpools/wasnorm_wordpool.txt	LTP150	ltpFR	5	16	0	FROST	609	n/a	n/a	0	0.422607421875	0.5869140625	0	lower	zerothre.ttf
2752.068	n/a	WORD	1376034	wordpools/wasnorm_wordpool.txt	LTP150	ltpFR	5	16	0	SUMMIT	1405	n/a	n/a	1	0.422607421875	0.5869140625	0	lower	zerothre.ttf
2756.038	n/a	WORD	1378019	wordpools/wasnorm_wordpool.txt	LTP150	ltpFR	5	16	0	DWARF	510	n/a	n/a	1	0.422607421875	0.5869140625	0	lower	zerothre.ttf
2759.952	n/a	WORD	1379976	wordpools/wasnorm_wordpool.txt	LTP150	ltpFR	5	16	0	CONSUMER	365	n/a	n/a	1	0.422607421875	0.5869140625	0	lower	zerothre.ttf
2763.988	n/a	WORD	1381994	wordpools/wasnorm_wordpool.txt	LTP150	ltpFR	5	16	0	SKIN	1318	n/a	n/a	1	0.422607421875	0.5869140625	0	lower	zerothre.ttf
2767.868	n/a	WORD	1383934	wordpools/wasnorm_wordpool.txt	LTP150	ltpFR	5	16	0	BATHROOM	99	n/a	n/a	1	0.422607421875	0.5869140625	0	lower	zerothre.ttf
2771.796	n/a	WORD	1385898	wordpools/wasnorm_wordpool.txt	LTP150	ltpFR	5	16	0	KNUCKLE	789	n/a	n/a	0	0.422607421875	0.5869140625	0	lower	zerothre.ttf
2775.958	n/a	WORD	1387979	wordpools/wasnorm_wordpool.txt	LTP150	ltpFR	5	16	0	HAYSTACK	694	n/a	n/a	1	0.422607421875	0.5869140625	0	lower	zerothre.ttf
2780.086	n/a	WORD	1390043	wordpools/wasnorm_wordpool.txt	LTP150	ltpFR	5	16	0	HAY	693	n/a	n/a	1	0.422607421875	0.5869140625	0	lower	zerothre.ttf
2784.132	n/a	WORD	1392066	wordpools/wasnorm_wordpool.txt	LTP150	ltpFR	5	16	0	TUB	1514	n/a	n/a	1	0.422607421875	0.5869140625	0	lower	zerothre.ttf
2789.91	n/a	REC_START	1394955	n/a	LTP150	ltpFR	5	16	n/a	n/a	n/a	n/a	n/a	n/a	n/a	n/a	n/a	n/a	n/a
2791.258	n/a	REC_WORD	1395629	wordpools/wasnorm_wordpool.txt	LTP150	ltpFR	5	16	0	TUB	1514	n/a	n/a	1	n/a	n/a	n/a	n/a	n/a
2793.566	n/a	REC_WORD	1396783	wordpools/wasnorm_wordpool.txt	LTP150	ltpFR	5	16	0	HAY	693	n/a	n/a	1	n/a	n/a	n/a	n/a	n/a
2795.368	n/a	REC_WORD	1397684	wordpools/wasnorm_wordpool.txt	LTP150	ltpFR	5	16	0	HAYSTACK	694	n/a	n/a	1	n/a	n/a	n/a	n/a	n/a
2798.684	n/a	REC_WORD_VV	1399342	wordpools/wasnorm_wordpool.txt	LTP150	ltpFR	5	16	n/a	<>	-1	n/a	n/a	n/a	n/a	n/a	n/a	n/a	n/a
2805.552	n/a	REC_WORD	1402776	wordpools/wasnorm_wordpool.txt	LTP150	ltpFR	5	16	0	FROST	609	n/a	n/a	0	n/a	n/a	n/a	n/a	n/a
2807.03	n/a	REC_WORD	1403515	wordpools/wasnorm_wordpool.txt	LTP150	ltpFR	5	16	0	SUMMIT	1405	n/a	n/a	1	n/a	n/a	n/a	n/a	n/a
2809.752	n/a	REC_WORD	1404876	wordpools/wasnorm_wordpool.txt	LTP150	ltpFR	5	16	0	DWARF	510	n/a	n/a	1	n/a	n/a	n/a	n/a	n/a
2815.856	n/a	REC_WORD	1407928	wordpools/wasnorm_wordpool.txt	LTP150	ltpFR	5	16	0	KNUCKLE	789	n/a	n/a	0	n/a	n/a	n/a	n/a	n/a
2828.266	n/a	REC_WORD	1414133	wordpools/wasnorm_wordpool.txt	LTP150	ltpFR	5	16	0	LID	817	n/a	n/a	0	n/a	n/a	n/a	n/a	n/a
2830.168	n/a	REC_WORD	1415084	wordpools/wasnorm_wordpool.txt	LTP150	ltpFR	5	16	0	DICTIONARY	463	n/a	n/a	1	n/a	n/a	n/a	n/a	n/a
2832.196	n/a	REC_WORD	1416098	wordpools/wasnorm_wordpool.txt	LTP150	ltpFR	5	16	0	ROACH	1195	n/a	n/a	0	n/a	n/a	n/a	n/a	n/a
2834.08	n/a	REC_WORD	1417040	wordpools/wasnorm_wordpool.txt	LTP150	ltpFR	5	16	0	INSECT	740	n/a	n/a	0	n/a	n/a	n/a	n/a	n/a
2836.774	n/a	REC_WORD	1418387	wordpools/wasnorm_wordpool.txt	LTP150	ltpFR	5	16	0	BEEF	113	n/a	n/a	0	n/a	n/a	n/a	n/a	n/a
2838.868	n/a	REC_WORD	1419434	wordpools/wasnorm_wordpool.txt	LTP150	ltpFR	5	16	0	GLOVE	642	n/a	n/a	0	n/a	n/a	n/a	n/a	n/a
2876.276	n/a	REC_START	1438138	n/a	LTP150	ltpFR	5	n/a	n/a	n/a	n/a	n/a	n/a	n/a	n/a	n/a	n/a	n/a	n/a
2878.046	n/a	FFR_REC_WORD	1439023	wordpools/wasnorm_wordpool.txt	LTP150	ltpFR	5	n/a	0	BEEF	113	n/a	n/a	0	n/a	n/a	n/a	n/a	n/a
2879.178	n/a	FFR_REC_WORD	1439589	wordpools/wasnorm_wordpool.txt	LTP150	ltpFR	5	n/a	0	SUMMIT	1405	n/a	n/a	1	n/a	n/a	n/a	n/a	n/a
2881.274	n/a	FFR_REC_WORD	1440637	wordpools/wasnorm_wordpool.txt	LTP150	ltpFR	5	n/a	0	DWARF	510	n/a	n/a	1	n/a	n/a	n/a	n/a	n/a
2882.974	n/a	FFR_REC_WORD	1441487	wordpools/wasnorm_wordpool.txt	LTP150	ltpFR	5	n/a	-1	PANTHER	1009	n/a	n/a	-1	n/a	n/a	n/a	n/a	n/a
2884.346	n/a	FFR_REC_WORD	1442173	wordpools/wasnorm_wordpool.txt	LTP150	ltpFR	5	n/a	0	COUGAR	387	n/a	n/a	1	n/a	n/a	n/a	n/a	n/a
2885.712	n/a	FFR_REC_WORD	1442856	wordpools/wasnorm_wordpool.txt	LTP150	ltpFR	5	n/a	-1	LEOPARD	812	n/a	n/a	-1	n/a	n/a	n/a	n/a	n/a
2887.114	n/a	FFR_REC_WORD	1443557	wordpools/wasnorm_wordpool.txt	LTP150	ltpFR	5	n/a	0	COOK	372	n/a	n/a	1	n/a	n/a	n/a	n/a	n/a
2888.538	n/a	FFR_REC_WORD	1444269	wordpools/wasnorm_wordpool.txt	LTP150	ltpFR	5	n/a	-1	CONTRACTOR	369	n/a	n/a	-1	n/a	n/a	n/a	n/a	n/a
2889.972	n/a	FFR_REC_WORD	1444986	wordpools/wasnorm_wordpool.txt	LTP150	ltpFR	5	n/a	-1	CONSOLE	364	n/a	n/a	-1	n/a	n/a	n/a	n/a	n/a
2895.082	n/a	FFR_REC_WORD	1447541	wordpools/wasnorm_wordpool.txt	LTP150	ltpFR	5	n/a	0	ROACH	1195	n/a	n/a	0	n/a	n/a	n/a	n/a	n/a
2896.5	n/a	FFR_REC_WORD	1448250	wordpools/wasnorm_wordpool.txt	LTP150	ltpFR	5	n/a	0	INSECT	740	n/a	n/a	0	n/a	n/a	n/a	n/a	n/a
2897.834	n/a	FFR_REC_WORD	1448917	wordpools/wasnorm_wordpool.txt	LTP150	ltpFR	5	n/a	0	DICTIONARY	463	n/a	n/a	1	n/a	n/a	n/a	n/a	n/a
2899.38	n/a	FFR_REC_WORD	1449690	wordpools/wasnorm_wordpool.txt	LTP150	ltpFR	5	n/a	0	LID	817	n/a	n/a	0	n/a	n/a	n/a	n/a	n/a
2900.772	n/a	FFR_REC_WORD	1450386	wordpools/wasnorm_wordpool.txt	LTP150	ltpFR	5	n/a	1	CREEK	404	n/a	n/a	0	n/a	n/a	n/a	n/a	n/a
2902.228	n/a	FFR_REC_WORD	1451114	wordpools/wasnorm_wordpool.txt	LTP150	ltpFR	5	n/a	1	POPCORN	1104	n/a	n/a	0	n/a	n/a	n/a	n/a	n/a
2903.656	n/a	FFR_REC_WORD	1451828	wordpools/wasnorm_wordpool.txt	LTP150	ltpFR	5	n/a	1	SERPENT	1270	n/a	n/a	1	n/a	n/a	n/a	n/a	n/a
2905.054	n/a	FFR_REC_WORD	1452527	wordpools/wasnorm_wordpool.txt	LTP150	ltpFR	5	n/a	0	SCROLL	1257	n/a	n/a	0	n/a	n/a	n/a	n/a	n/a
2914.512	n/a	FFR_REC_WORD	1457256	wordpools/wasnorm_wordpool.txt	LTP150	ltpFR	5	n/a	-1	KITTEN	780	n/a	n/a	-1	n/a	n/a	n/a	n/a	n/a
2915.71	n/a	FFR_REC_WORD	1457855	wordpools/wasnorm_wordpool.txt	LTP150	ltpFR	5	n/a	-1	CAT	257	n/a	n/a	-1	n/a	n/a	n/a	n/a	n/a
2916.794	n/a	FFR_REC_WORD	1458397	wordpools/wasnorm_wordpool.txt	LTP150	ltpFR	5	n/a	0	HAY	693	n/a	n/a	1	n/a	n/a	n/a	n/a	n/a
2918.126	n/a	FFR_REC_WORD	1459063	wordpools/wasnorm_wordpool.txt	LTP150	ltpFR	5	n/a	0	HAYSTACK	694	n/a	n/a	1	n/a	n/a	n/a	n/a	n/a
2919.708	n/a	FFR_REC_WORD	1459854	wordpools/wasnorm_wordpool.txt	LTP150	ltpFR	5	n/a	-1	GALAXY	617	n/a	n/a	-1	n/a	n/a	n/a	n/a	n/a
2921.032	n/a	FFR_REC_WORD	1460516	wordpools/wasnorm_wordpool.txt	LTP150	ltpFR	5	n/a	-1	ZEBRA	1635	n/a	n/a	-1	n/a	n/a	n/a	n/a	n/a
2922.196	n/a	FFR_REC_WORD	1461098	wordpools/wasnorm_wordpool.txt	LTP150	ltpFR	5	n/a	1	ZUCCHINI	1638	n/a	n/a	1	n/a	n/a	n/a	n/a	n/a
2923.664	n/a	FFR_REC_WORD	1461832	wordpools/wasnorm_wordpool.txt	LTP150	ltpFR	5	n/a	0	PEAR	1033	n/a	n/a	0	n/a	n/a	n/a	n/a	n/a
2924.914	n/a	FFR_REC_WORD	1462457	wordpools/wasnorm_wordpool.txt	LTP150	ltpFR	5	n/a	0	PEACH	1031	n/a	n/a	0	n/a	n/a	n/a	n/a	n/a
2926.176	n/a	FFR_REC_WORD	1463088	wordpools/wasnorm_wordpool.txt	LTP150	ltpFR	5	n/a	0	VEGETABLE	1552	n/a	n/a	0	n/a	n/a	n/a	n/a	n/a
2927.544	n/a	FFR_REC_WORD	1463772	wordpools/wasnorm_wordpool.txt	LTP150	ltpFR	5	n/a	0	FREEZER	604	n/a	n/a	1	n/a	n/a	n/a	n/a	n/a
2929.248	n/a	FFR_REC_WORD	1464624	wordpools/wasnorm_wordpool.txt	LTP150	ltpFR	5	n/a	0	HOME	712	n/a	n/a	1	n/a	n/a	n/a	n/a	n/a
2930.868	n/a	FFR_REC_WORD	1465434	wordpools/wasnorm_wordpool.txt	LTP150	ltpFR	5	n/a	0	DOCK	477	n/a	n/a	1	n/a	n/a	n/a	n/a	n/a
2932.246	n/a	FFR_REC_WORD	1466123	wordpools/wasnorm_wordpool.txt	LTP150	ltpFR	5	n/a	-1	CARRIAGE	248	n/a	n/a	-1	n/a	n/a	n/a	n/a	n/a
2933.642	n/a	FFR_REC_WORD	1466821	wordpools/wasnorm_wordpool.txt	LTP150	ltpFR	5	n/a	-1	VIOLA	1570	n/a	n/a	-1	n/a	n/a	n/a	n/a	n/a
2935.218	n/a	FFR_REC_WORD	1467609	wordpools/wasnorm_wordpool.txt	LTP150	ltpFR	5	n/a	-1	MINT	898	n/a	n/a	-1	n/a	n/a	n/a	n/a	n/a
2936.406	n/a	FFR_REC_WORD	1468203	wordpools/wasnorm_wordpool.txt	LTP150	ltpFR	5	n/a	-1	SAGE	1222	n/a	n/a	-1	n/a	n/a	n/a	n/a	n/a
2937.82	n/a	FFR_REC_WORD	1468910	wordpools/wasnorm_wordpool.txt	LTP150	ltpFR	5	n/a	-1	CELLAR	267	n/a	n/a	-1	n/a	n/a	n/a	n/a	n/a
2941.49	n/a	FFR_REC_WORD	1470745	wordpools/wasnorm_wordpool.txt	LTP150	ltpFR	5	n/a	-1	RECORD	1176	n/a	n/a	-1	n/a	n/a	n/a	n/a	n/a
2949.536	n/a	FFR_REC_WORD	1474768	wordpools/wasnorm_wordpool.txt	LTP150	ltpFR	5	n/a	1	STRANGER	1389	n/a	n/a	1	n/a	n/a	n/a	n/a	n/a
2951.24	n/a	FFR_REC_WORD	1475620	wordpools/wasnorm_wordpool.txt	LTP150	ltpFR	5	n/a	1	FOE	587	n/a	n/a	1	n/a	n/a	n/a	n/a	n/a
2952.978	n/a	FFR_REC_WORD	1476489	wordpools/wasnorm_wordpool.txt	LTP150	ltpFR	5	n/a	1	BOYFRIEND	162	n/a	n/a	1	n/a	n/a	n/a	n/a	n/a
2955.878	n/a	FFR_REC_WORD	1477939	wordpools/wasnorm_wordpool.txt	LTP150	ltpFR	5	n/a	1	HOUND	724	n/a	n/a	1	n/a	n/a	n/a	n/a	n/a
2961.594	n/a	FFR_REC_WORD	1480797	wordpools/wasnorm_wordpool.txt	LTP150	ltpFR	5	n/a	0	ZOO	1637	n/a	n/a	1	n/a	n/a	n/a	n/a	n/a
2962.782	n/a	FFR_REC_WORD	1481391	wordpools/wasnorm_wordpool.txt	LTP150	ltpFR	5	n/a	-1	LAPEL	800	n/a	n/a	-1	n/a	n/a	n/a	n/a	n/a
2964.41	n/a	FFR_REC_WORD	1482205	wordpools/wasnorm_wordpool.txt	LTP150	ltpFR	5	n/a	-1	RICE	1190	n/a	n/a	-1	n/a	n/a	n/a	n/a	n/a
2965.814	n/a	FFR_REC_WORD	1482907	wordpools/wasnorm_wordpool.txt	LTP150	ltpFR	5	n/a	0	COLLAR	345	n/a	n/a	0	n/a	n/a	n/a	n/a	n/a
2967.37	n/a	FFR_REC_WORD	1483685	wordpools/wasnorm_wordpool.txt	LTP150	ltpFR	5	n/a	0	BLOUSE	139	n/a	n/a	0	n/a	n/a	n/a	n/a	n/a
2968.83	n/a	FFR_REC_WORD	1484415	wordpools/wasnorm_wordpool.txt	LTP150	ltpFR	5	n/a	0	EAR	513	n/a	n/a	0	n/a	n/a	n/a	n/a	n/a
2968.852	n/a	FFR_REC_WORD	1484426	wordpools/wasnorm_wordpool.txt	LTP150	ltpFR	5	n/a	n/a	[???]	-1	n/a	n/a	n/a	n/a	n/a	n/a	n/a	n/a
2970.16	n/a	FFR_REC_WORD	1485080	wordpools/wasnorm_wordpool.txt	LTP150	ltpFR	5	n/a	0	NOSE	957	n/a	n/a	0	n/a	n/a	n/a	n/a	n/a
2971.59	n/a	FFR_REC_WORD	1485795	wordpools/wasnorm_wordpool.txt	LTP150	ltpFR	5	n/a	1	TROUT	1511	n/a	n/a	1	n/a	n/a	n/a	n/a	n/a
2990.964	n/a	FFR_REC_WORD	1495482	wordpools/wasnorm_wordpool.txt	LTP150	ltpFR	5	n/a	0	PRAIRIE	1118	n/a	n/a	1	n/a	n/a	n/a	n/a	n/a
2992.528	n/a	FFR_REC_WORD	1496264	wordpools/wasnorm_wordpool.txt	LTP150	ltpFR	5	n/a	-1	GUN	673	n/a	n/a	-1	n/a	n/a	n/a	n/a	n/a
2993.598	n/a	FFR_REC_WORD	1496799	wordpools/wasnorm_wordpool.txt	LTP150	ltpFR	5	n/a	-1	HORIZON	717	n/a	n/a	-1	n/a	n/a	n/a	n/a	n/a
2995.058	n/a	FFR_REC_WORD	1497529	wordpools/wasnorm_wordpool.txt	LTP150	ltpFR	5	n/a	-1	PIPE	1073	n/a	n/a	-1	n/a	n/a	n/a	n/a	n/a
2996.246	n/a	FFR_REC_WORD	1498123	wordpools/wasnorm_wordpool.txt	LTP150	ltpFR	5	n/a	-1	HELICOPTER	701	n/a	n/a	-1	n/a	n/a	n/a	n/a	n/a
2997.502	n/a	FFR_REC_WORD	1498751	wordpools/wasnorm_wordpool.txt	LTP150	ltpFR	5	n/a	-1	FLASHLIGHT	575	n/a	n/a	-1	n/a	n/a	n/a	n/a	n/a
2998.978	n/a	FFR_REC_WORD	1499489	wordpools/wasnorm_wordpool.txt	LTP150	ltpFR	5	n/a	-1	FAUCET	555	n/a	n/a	-1	n/a	n/a	n/a	n/a	n/a
3000.398	n/a	FFR_REC_WORD	1500199	wordpools/wasnorm_wordpool.txt	LTP150	ltpFR	5	n/a	-1	AIRPORT	13	n/a	n/a	-1	n/a	n/a	n/a	n/a	n/a
3005.964	n/a	FFR_REC_WORD	1502982	wordpools/wasnorm_wordpool.txt	LTP150	ltpFR	5	n/a	1	KEEPER	769	n/a	n/a	1	n/a	n/a	n/a	n/a	n/a
3007.294	n/a	FFR_REC_WORD	1503647	wordpools/wasnorm_wordpool.txt	LTP150	ltpFR	5	n/a	1	PEANUT	1032	n/a	n/a	0	n/a	n/a	n/a	n/a	n/a
3008.496	n/a	FFR_REC_WORD	1504248	wordpools/wasnorm_wordpool.txt	LTP150	ltpFR	5	n/a	1	PECAN	1036	n/a	n/a	0	n/a	n/a	n/a	n/a	n/a
3020.306	n/a	FFR_REC_WORD	1510153	wordpools/wasnorm_wordpool.txt	LTP150	ltpFR	5	n/a	1	POND	1101	n/a	n/a	0	n/a	n/a	n/a	n/a	n/a
3030.334	n/a	FFR_REC_WORD	1515167	wordpools/wasnorm_wordpool.txt	LTP150	ltpFR	5	n/a	1	ROBIN	1199	n/a	n/a	1	n/a	n/a	n/a	n/a	n/a
3036.16	n/a	FFR_REC_WORD	1518080	wordpools/wasnorm_wordpool.txt	LTP150	ltpFR	5	n/a	0	COYOTE	396	n/a	n/a	1	n/a	n/a	n/a	n/a	n/a
3038.208	n/a	FFR_REC_WORD	1519104	wordpools/wasnorm_wordpool.txt	LTP150	ltpFR	5	n/a	0	TICK	1463	n/a	n/a	0	n/a	n/a	n/a	n/a	n/a
3046.988	n/a	FFR_REC_WORD	1523494	wordpools/wasnorm_wordpool.txt	LTP150	ltpFR	5	n/a	1	TURKEY	1520	n/a	n/a	1	n/a	n/a	n/a	n/a	n/a
3049.184	n/a	FFR_REC_WORD	1524592	wordpools/wasnorm_wordpool.txt	LTP150	ltpFR	5	n/a	1	MEAL	882	n/a	n/a	0	n/a	n/a	n/a	n/a	n/a
3054.148	n/a	FFR_REC_WORD	1527074	wordpools/wasnorm_wordpool.txt	LTP150	ltpFR	5	n/a	0	SAPPHIRE	1234	n/a	n/a	0	n/a	n/a	n/a	n/a	n/a
3072.622	n/a	FFR_REC_WORD	1536311	wordpools/wasnorm_wordpool.txt	LTP150	ltpFR	5	n/a	-1	WICK	1607	n/a	n/a	-1	n/a	n/a	n/a	n/a	n/a
3074.562	n/a	FFR_REC_WORD	1537281	wordpools/wasnorm_wordpool.txt	LTP150	ltpFR	5	n/a	-1	PLATE	1086	n/a	n/a	-1	n/a	n/a	n/a	n/a	n/a
3085.772	n/a	FFR_REC_WORD	1542886	wordpools/wasnorm_wordpool.txt	LTP150	ltpFR	5	n/a	1	PREACHER	1119	n/a	n/a	1	n/a	n/a	n/a	n/a	n/a
3092.032	n/a	FFR_REC_WORD	1546016	wordpools/wasnorm_wordpool.txt	LTP150	ltpFR	5	n/a	0	BUGGY	188	n/a	n/a	1	n/a	n/a	n/a	n/a	n/a
3093.736	n/a	FFR_REC_WORD	1546868	wordpools/wasnorm_wordpool.txt	LTP150	ltpFR	5	n/a	0	PERSONNEL	1053	n/a	n/a	1	n/a	n/a	n/a	n/a	n/a
3101.032	n/a	FFR_REC_WORD	1550516	wordpools/wasnorm_wordpool.txt	LTP150	ltpFR	5	n/a	1	OCEAN	970	n/a	n/a	1	n/a	n/a	n/a	n/a	n/a
3102.5	n/a	FFR_REC_WORD	1551250	wordpools/wasnorm_wordpool.txt	LTP150	ltpFR	5	n/a	1	SEA	1259	n/a	n/a	0	n/a	n/a	n/a	n/a	n/a
3104.098	n/a	FFR_REC_WORD	1552049	wordpools/wasnorm_wordpool.txt	LTP150	ltpFR	5	n/a	0	FISH	571	n/a	n/a	0	n/a	n/a	n/a	n/a	n/a
3105.658	n/a	FFR_REC_WORD	1552829	wordpools/wasnorm_wordpool.txt	LTP150	ltpFR	5	n/a	0	MERMAID	887	n/a	n/a	1	n/a	n/a	n/a	n/a	n/a
3107.164	n/a	FFR_REC_WORD	1553582	wordpools/wasnorm_wordpool.txt	LTP150	ltpFR	5	n/a	1	BARRACUDA	90	n/a	n/a	1	n/a	n/a	n/a	n/a	n/a
3108.822	n/a	FFR_REC_WORD	1554411	wordpools/wasnorm_wordpool.txt	LTP150	ltpFR	5	n/a	1	CEMETERY	269	n/a	n/a	0	n/a	n/a	n/a	n/a	n/a
3110.614	n/a	FFR_REC_WORD	1555307	wordpools/wasnorm_wordpool.txt	LTP150	ltpFR	5	n/a	1	TANK	1432	n/a	n/a	0	n/a	n/a	n/a	n/a	n/a
3113.644	n/a	FFR_REC_WORD	1556822	wordpools/wasnorm_wordpool.txt	LTP150	ltpFR	5	n/a	1	SHORE	1291	n/a	n/a	0	n/a	n/a	n/a	n/a	n/a
3115.632	n/a	FFR_REC_WORD	1557816	wordpools/wasnorm_wordpool.txt	LTP150	ltpFR	5	n/a	0	DUNE	506	n/a	n/a	1	n/a	n/a	n/a	n/a	n/a
3136.644	n/a	FFR_REC_WORD	1568322	wordpools/wasnorm_wordpool.txt	LTP150	ltpFR	5	n/a	1	REPTILE	1185	n/a	n/a	1	n/a	n/a	n/a	n/a	n/a
3142.248	n/a	FFR_REC_WORD	1571124	wordpools/wasnorm_wordpool.txt	LTP150	ltpFR	5	n/a	1	JOINT	758	n/a	n/a	0	n/a	n/a	n/a	n/a	n/a
3157.062	n/a	FFR_REC_WORD	1578531	wordpools/wasnorm_wordpool.txt	LTP150	ltpFR	5	n/a	1	GAZELLE	628	n/a	n/a	1	n/a	n/a	n/a	n/a	n/a
3159.922	n/a	FFR_REC_WORD	1579961	wordpools/wasnorm_wordpool.txt	LTP150	ltpFR	5	n/a	-1	STAPLE	1371	n/a	n/a	-1	n/a	n/a	n/a	n/a	n/a
3168.614	n/a	FFR_REC_WORD	1584307	wordpools/wasnorm_wordpool.txt	LTP150	ltpFR	5	n/a	0	MONGOOSE	909	n/a	n/a	1	n/a	n/a	n/a	n/a	n/a
3170.442	n/a	FFR_REC_WORD	1585221	wordpools/wasnorm_wordpool.txt	LTP150	ltpFR	5	n/a	1	PORK	1108	n/a	n/a	0	n/a	n/a	n/a	n/a	n/a
3171.912	n/a	FFR_REC_WORD	1585956	wordpools/wasnorm_wordpool.txt	LTP150	ltpFR	5	n/a	1	GIFT	635	n/a	n/a	0	n/a	n/a	n/a	n/a	n/a
3173.304	n/a	FFR_REC_WORD	1586652	wordpools/wasnorm_wordpool.txt	LTP150	ltpFR	5	n/a	0	STY	1397	n/a	n/a	0	n/a	n/a	n/a	n/a	n/a
3176.206	n/a	FFR_REC_WORD_VV	1588103	wordpools/wasnorm_wordpool.txt	LTP150	ltpFR	5	n/a	n/a	<>	-1	n/a	n/a	n/a	n/a	n/a	n/a	n/a	n/a
3199.708	n/a	REC_START	1599854	n/a	LTP150	ltpFR	5	1	n/a	n/a	n/a	n/a	n/a	n/a	n/a	n/a	n/a	n/a	n/a
3199.74	n/a	RECOG_TARGET	1599870	n/a	LTP150	ltpFR	5	1	0	SKIN	1318	1	5	1	n/a	n/a	n/a	n/a	n/a
3201.788	n/a	RECOG_RESP	1600894	n/a	LTP150	ltpFR	5	1	0	SKIN	1318	1	n/a	1	n/a	n/a	n/a	n/a	n/a
3203.45	n/a	RECOG_CONF	1601725	n/a	LTP150	ltpFR	5	1	0	SKIN	1318	n/a	5	1	n/a	n/a	n/a	n/a	n/a
3205.158	n/a	RECOG_TARGET	1602579	n/a	LTP150	ltpFR	5	1	0	PEACH	1031	1	5	0	n/a	n/a	n/a	n/a	n/a
3205.824	n/a	RECOG_RESP	1602912	n/a	LTP150	ltpFR	5	1	0	PEACH	1031	1	n/a	0	n/a	n/a	n/a	n/a	n/a
3207.19	n/a	RECOG_CONF	1603595	n/a	LTP150	ltpFR	5	1	0	PEACH	1031	n/a	5	0	n/a	n/a	n/a	n/a	n/a
3208.846	n/a	RECOG_TARGET	1604423	n/a	LTP150	ltpFR	5	1	-1	SWEATER	1419	1	5	-1	n/a	n/a	n/a	n/a	n/a
3209.49	n/a	RECOG_RESP	1604745	n/a	LTP150	ltpFR	5	1	-1	SWEATER	1419	1	n/a	-1	n/a	n/a	n/a	n/a	n/a
3210.718	n/a	RECOG_CONF	1605359	n/a	LTP150	ltpFR	5	1	-1	SWEATER	1419	n/a	5	-1	n/a	n/a	n/a	n/a	n/a
3212.276	n/a	RECOG_TARGET	1606138	n/a	LTP150	ltpFR	5	1	-1	GUN	673	1	5	-1	n/a	n/a	n/a	n/a	n/a
3212.918	n/a	RECOG_RESP	1606459	n/a	LTP150	ltpFR	5	1	-1	GUN	673	1	n/a	-1	n/a	n/a	n/a	n/a	n/a
3214.278	n/a	RECOG_CONF	1607139	n/a	LTP150	ltpFR	5	1	-1	GUN	673	n/a	5	-1	n/a	n/a	n/a	n/a	n/a
3215.93	n/a	RECOG_TARGET	1607965	n/a	LTP150	ltpFR	5	1	0	FIELD	562	1	2	1	n/a	n/a	n/a	n/a	n/a
3217.55	n/a	RECOG_RESP	1608775	n/a	LTP150	ltpFR	5	1	0	FIELD	562	1	n/a	1	n/a	n/a	n/a	n/a	n/a
3218.802	n/a	RECOG_CONF	1609401	n/a	LTP150	ltpFR	5	1	0	FIELD	562	n/a	2	1	n/a	n/a	n/a	n/a	n/a
3220.224	n/a	RECOG_TARGET	1610112	n/a	LTP150	ltpFR	5	1	1	DOLPHIN	483	0	2	1	n/a	n/a	n/a	n/a	n/a
3221.414	n/a	RECOG_RESP	1610707	n/a	LTP150	ltpFR	5	1	1	DOLPHIN	483	0	n/a	1	n/a	n/a	n/a	n/a	n/a
3222.868	n/a	RECOG_CONF	1611434	n/a	LTP150	ltpFR	5	1	1	DOLPHIN	483	n/a	2	1	n/a	n/a	n/a	n/a	n/a
3224.504	n/a	RECOG_TARGET	1612252	n/a	LTP150	ltpFR	5	1	0	SHOWER	1296	1	5	1	n/a	n/a	n/a	n/a	n/a
3225.248	n/a	RECOG_RESP	1612624	n/a	LTP150	ltpFR	5	1	0	SHOWER	1296	1	n/a	1	n/a	n/a	n/a	n/a	n/a
3226.522	n/a	RECOG_CONF	1613261	n/a	LTP150	ltpFR	5	1	0	SHOWER	1296	n/a	5	1	n/a	n/a	n/a	n/a	n/a
3228.124	n/a	RECOG_TARGET	1614062	n/a	LTP150	ltpFR	5	1	1	TAG	1429	1	4	0	n/a	n/a	n/a	n/a	n/a
3229.006	n/a	RECOG_RESP	1614503	n/a	LTP150	ltpFR	5	1	1	TAG	1429	1	n/a	0	n/a	n/a	n/a	n/a	n/a
3230.4	n/a	RECOG_CONF	1615200	n/a	LTP150	ltpFR	5	1	1	TAG	1429	n/a	4	0	n/a	n/a	n/a	n/a	n/a
3231.936	n/a	RECOG_TARGET	1615968	n/a	LTP150	ltpFR	5	1	1	DUCK	504	1	3	1	n/a	n/a	n/a	n/a	n/a
3232.688	n/a	RECOG_RESP	1616344	n/a	LTP150	ltpFR	5	1	1	DUCK	504	1	n/a	1	n/a	n/a	n/a	n/a	n/a
3234.018	n/a	RECOG_CONF	1617009	n/a	LTP150	ltpFR	5	1	1	DUCK	504	n/a	3	1	n/a	n/a	n/a	n/a	n/a
3235.624	n/a	RECOG_TARGET	1617812	n/a	LTP150	ltpFR	5	1	-1	VIOLA	1570	1	5	-1	n/a	n/a	n/a	n/a	n/a
3236.236	n/a	RECOG_RESP	1618118	n/a	LTP150	ltpFR	5	1	-1	VIOLA	1570	1	n/a	-1	n/a	n/a	n/a	n/a	n/a
3237.592	n/a	RECOG_CONF	1618796	n/a	LTP150	ltpFR	5	1	-1	VIOLA	1570	n/a	5	-1	n/a	n/a	n/a	n/a	n/a
3239.22	n/a	RECOG_TARGET	1619610	n/a	LTP150	ltpFR	5	1	-1	PLATE	1086	1	5	-1	n/a	n/a	n/a	n/a	n/a
3239.95	n/a	RECOG_RESP	1619975	n/a	LTP150	ltpFR	5	1	-1	PLATE	1086	1	n/a	-1	n/a	n/a	n/a	n/a	n/a
3241.258	n/a	RECOG_CONF	1620629	n/a	LTP150	ltpFR	5	1	-1	PLATE	1086	n/a	5	-1	n/a	n/a	n/a	n/a	n/a
3242.848	n/a	RECOG_TARGET	1621424	n/a	LTP150	ltpFR	5	1	0	COYOTE	396	1	5	1	n/a	n/a	n/a	n/a	n/a
3243.462	n/a	RECOG_RESP	1621731	n/a	LTP150	ltpFR	5	1	0	COYOTE	396	1	n/a	1	n/a	n/a	n/a	n/a	n/a
3244.79	n/a	RECOG_CONF	1622395	n/a	LTP150	ltpFR	5	1	0	COYOTE	396	n/a	5	1	n/a	n/a	n/a	n/a	n/a
3246.294	n/a	RECOG_LURE	1623147	n/a	LTP150	ltpFR	5	1	n/a	BANK	83	0	2	n/a	n/a	n/a	n/a	n/a	n/a
3248.06	n/a	RECOG_RESP	1624030	n/a	LTP150	ltpFR	5	1	n/a	BANK	83	0	n/a	n/a	n/a	n/a	n/a	n/a	n/a
3249.422	n/a	RECOG_CONF	1624711	n/a	LTP150	ltpFR	5	1	n/a	BANK	83	n/a	2	n/a	n/a	n/a	n/a	n/a	n/a
3250.872	n/a	RECOG_TARGET	1625436	n/a	LTP150	ltpFR	5	1	-1	PIPE	1073	1	5	-1	n/a	n/a	n/a	n/a	n/a
3251.554	n/a	RECOG_RESP	1625777	n/a	LTP150	ltpFR	5	1	-1	PIPE	1073	1	n/a	-1	n/a	n/a	n/a	n/a	n/a
3252.952	n/a	RECOG_CONF	1626476	n/a	LTP150	ltpFR	5	1	-1	PIPE	1073	n/a	5	-1	n/a	n/a	n/a	n/a	n/a
3254.494	n/a	RECOG_TARGET	1627247	n/a	LTP150	ltpFR	5	1	1	CABLE	213	1	5	0	n/a	n/a	n/a	n/a	n/a
3255.132	n/a	RECOG_RESP	1627566	n/a	LTP150	ltpFR	5	1	1	CABLE	213	1	n/a	0	n/a	n/a	n/a	n/a	n/a
3256.524	n/a	RECOG_CONF	1628262	n/a	LTP150	ltpFR	5	1	1	CABLE	213	n/a	5	0	n/a	n/a	n/a	n/a	n/a
3258.04	n/a	RECOG_TARGET	1629020	n/a	LTP150	ltpFR	5	1	0	TOAST	1471	1	5	0	n/a	n/a	n/a	n/a	n/a
3258.678	n/a	RECOG_RESP	1629339	n/a	LTP150	ltpFR	5	1	0	TOAST	1471	1	n/a	0	n/a	n/a	n/a	n/a	n/a
3260.038	n/a	RECOG_CONF	1630019	n/a	LTP150	ltpFR	5	1	0	TOAST	1471	n/a	5	0	n/a	n/a	n/a	n/a	n/a
3261.552	n/a	RECOG_TARGET	1630776	n/a	LTP150	ltpFR	5	1	1	STAPLER	1372	1	3	0	n/a	n/a	n/a	n/a	n/a
3262.136	n/a	RECOG_RESP	1631068	n/a	LTP150	ltpFR	5	1	1	STAPLER	1372	1	n/a	0	n/a	n/a	n/a	n/a	n/a
3264.028	n/a	RECOG_CONF	1632014	n/a	LTP150	ltpFR	5	1	1	STAPLER	1372	n/a	3	0	n/a	n/a	n/a	n/a	n/a
3265.372	n/a	RECOG_LURE	1632686	n/a	LTP150	ltpFR	5	1	n/a	SERVER	1272	0	3	n/a	n/a	n/a	n/a	n/a	n/a
3266.232	n/a	RECOG_RESP	1633116	n/a	LTP150	ltpFR	5	1	n/a	SERVER	1272	0	n/a	n/a	n/a	n/a	n/a	n/a	n/a
3268.094	n/a	RECOG_CONF	1634047	n/a	LTP150	ltpFR	5	1	n/a	SERVER	1272	n/a	3	n/a	n/a	n/a	n/a	n/a	n/a
3269.486	n/a	RECOG_LURE	1634743	n/a	LTP150	ltpFR	5	1	n/a	PRISONER	1128	1	1	n/a	n/a	n/a	n/a	n/a	n/a
3270.83	n/a	RECOG_RESP	1635415	n/a	LTP150	ltpFR	5	1	n/a	PRISONER	1128	1	n/a	n/a	n/a	n/a	n/a	n/a	n/a
3272.254	n/a	RECOG_CONF	1636127	n/a	LTP150	ltpFR	5	1	n/a	PRISONER	1128	n/a	1	n/a	n/a	n/a	n/a	n/a	n/a
3273.796	n/a	RECOG_TARGET	1636898	n/a	LTP150	ltpFR	5	1	1	TONGUE	1479	1	5	0	n/a	n/a	n/a	n/a	n/a
3275.082	n/a	RECOG_RESP	1637541	n/a	LTP150	ltpFR	5	1	1	TONGUE	1479	1	n/a	0	n/a	n/a	n/a	n/a	n/a
3276.49	n/a	RECOG_CONF	1638245	n/a	LTP150	ltpFR	5	1	1	TONGUE	1479	n/a	5	0	n/a	n/a	n/a	n/a	n/a
3285.102	n/a	REC_START	1642551	n/a	LTP150	ltpFR	5	2	n/a	n/a	n/a	n/a	n/a	n/a	n/a	n/a	n/a	n/a	n/a
3285.134	n/a	RECOG_TARGET	1642567	n/a	LTP150	ltpFR	5	2	0	WALLET	1583	1	5	0	n/a	n/a	n/a	n/a	n/a
3285.892	n/a	RECOG_RESP	1642946	n/a	LTP150	ltpFR	5	2	0	WALLET	1583	1	n/a	0	n/a	n/a	n/a	n/a	n/a
3287.248	n/a	RECOG_CONF	1643624	n/a	LTP150	ltpFR	5	2	0	WALLET	1583	n/a	5	0	n/a	n/a	n/a	n/a	n/a
3288.762	n/a	RECOG_TARGET	1644381	n/a	LTP150	ltpFR	5	2	-1	FINGERNAIL	568	1	5	-1	n/a	n/a	n/a	n/a	n/a
3289.74	n/a	RECOG_RESP	1644870	n/a	LTP150	ltpFR	5	2	-1	FINGERNAIL	568	1	n/a	-1	n/a	n/a	n/a	n/a	n/a
3291.148	n/a	RECOG_CONF	1645574	n/a	LTP150	ltpFR	5	2	-1	FINGERNAIL	568	n/a	5	-1	n/a	n/a	n/a	n/a	n/a
3292.85	n/a	RECOG_TARGET	1646425	n/a	LTP150	ltpFR	5	2	0	GALLON	618	1	5	1	n/a	n/a	n/a	n/a	n/a
3293.516	n/a	RECOG_RESP	1646758	n/a	LTP150	ltpFR	5	2	0	GALLON	618	1	n/a	1	n/a	n/a	n/a	n/a	n/a
3295.0	n/a	RECOG_CONF	1647500	n/a	LTP150	ltpFR	5	2	0	GALLON	618	n/a	5	1	n/a	n/a	n/a	n/a	n/a
3296.522	n/a	RECOG_TARGET	1648261	n/a	LTP150	ltpFR	5	2	0	FISH	571	1	5	0	n/a	n/a	n/a	n/a	n/a
3297.332	n/a	RECOG_RESP	1648666	n/a	LTP150	ltpFR	5	2	0	FISH	571	1	n/a	0	n/a	n/a	n/a	n/a	n/a
3298.726	n/a	RECOG_CONF	1649363	n/a	LTP150	ltpFR	5	2	0	FISH	571	n/a	5	0	n/a	n/a	n/a	n/a	n/a
3300.4	n/a	RECOG_TARGET	1650200	n/a	LTP150	ltpFR	5	2	-1	BOSS	152	1	5	-1	n/a	n/a	n/a	n/a	n/a
3300.92	n/a	RECOG_RESP	1650460	n/a	LTP150	ltpFR	5	2	-1	BOSS	152	1	n/a	-1	n/a	n/a	n/a	n/a	n/a
3302.356	n/a	RECOG_CONF	1651178	n/a	LTP150	ltpFR	5	2	-1	BOSS	152	n/a	5	-1	n/a	n/a	n/a	n/a	n/a
3303.846	n/a	RECOG_LURE	1651923	n/a	LTP150	ltpFR	5	2	n/a	CHIME	300	0	5	n/a	n/a	n/a	n/a	n/a	n/a
3304.556	n/a	RECOG_RESP	1652278	n/a	LTP150	ltpFR	5	2	n/a	CHIME	300	0	n/a	n/a	n/a	n/a	n/a	n/a	n/a
3305.98	n/a	RECOG_CONF	1652990	n/a	LTP150	ltpFR	5	2	n/a	CHIME	300	n/a	5	n/a	n/a	n/a	n/a	n/a	n/a
3307.526	n/a	RECOG_TARGET	1653763	n/a	LTP150	ltpFR	5	2	0	TUNA	1518	1	5	0	n/a	n/a	n/a	n/a	n/a
3308.108	n/a	RECOG_RESP	1654054	n/a	LTP150	ltpFR	5	2	0	TUNA	1518	1	n/a	0	n/a	n/a	n/a	n/a	n/a
3309.456	n/a	RECOG_CONF	1654728	n/a	LTP150	ltpFR	5	2	0	TUNA	1518	n/a	5	0	n/a	n/a	n/a	n/a	n/a
3310.946	n/a	RECOG_LURE	1655473	n/a	LTP150	ltpFR	5	2	n/a	BAG	69	0	3	n/a	n/a	n/a	n/a	n/a	n/a
3311.86	n/a	RECOG_RESP	1655930	n/a	LTP150	ltpFR	5	2	n/a	BAG	69	0	n/a	n/a	n/a	n/a	n/a	n/a	n/a
3313.352	n/a	RECOG_CONF	1656676	n/a	LTP150	ltpFR	5	2	n/a	BAG	69	n/a	3	n/a	n/a	n/a	n/a	n/a	n/a
3314.616	n/a	RECOG_LURE	1657308	n/a	LTP150	ltpFR	5	2	n/a	TRIANGLE	1504	0	4	n/a	n/a	n/a	n/a	n/a	n/a
3315.368	n/a	RECOG_RESP	1657684	n/a	LTP150	ltpFR	5	2	n/a	TRIANGLE	1504	0	n/a	n/a	n/a	n/a	n/a	n/a	n/a
3316.904	n/a	RECOG_CONF	1658452	n/a	LTP150	ltpFR	5	2	n/a	TRIANGLE	1504	n/a	4	n/a	n/a	n/a	n/a	n/a	n/a
3318.42	n/a	RECOG_TARGET	1659210	n/a	LTP150	ltpFR	5	2	0	MONASTERY	907	1	5	1	n/a	n/a	n/a	n/a	n/a
3319.158	n/a	RECOG_RESP	1659579	n/a	LTP150	ltpFR	5	2	0	MONASTERY	907	1	n/a	1	n/a	n/a	n/a	n/a	n/a
3320.696	n/a	RECOG_CONF	1660348	n/a	LTP150	ltpFR	5	2	0	MONASTERY	907	n/a	5	1	n/a	n/a	n/a	n/a	n/a
3322.25	n/a	RECOG_TARGET	1661125	n/a	LTP150	ltpFR	5	2	0	DAM	436	1	5	1	n/a	n/a	n/a	n/a	n/a
3323.042	n/a	RECOG_RESP	1661521	n/a	LTP150	ltpFR	5	2	0	DAM	436	1	n/a	1	n/a	n/a	n/a	n/a	n/a
3324.532	n/a	RECOG_CONF	1662266	n/a	LTP150	ltpFR	5	2	0	DAM	436	n/a	5	1	n/a	n/a	n/a	n/a	n/a
3325.994	n/a	RECOG_TARGET	1662997	n/a	LTP150	ltpFR	5	2	-1	RECORD	1176	1	5	-1	n/a	n/a	n/a	n/a	n/a
3326.654	n/a	RECOG_RESP	1663327	n/a	LTP150	ltpFR	5	2	-1	RECORD	1176	1	n/a	-1	n/a	n/a	n/a	n/a	n/a
3328.138	n/a	RECOG_CONF	1664069	n/a	LTP150	ltpFR	5	2	-1	RECORD	1176	n/a	5	-1	n/a	n/a	n/a	n/a	n/a
3329.592	n/a	RECOG_TARGET	1664796	n/a	LTP150	ltpFR	5	2	1	MICROSCOPE	891	1	5	0	n/a	n/a	n/a	n/a	n/a
3330.098	n/a	RECOG_RESP	1665049	n/a	LTP150	ltpFR	5	2	1	MICROSCOPE	891	1	n/a	0	n/a	n/a	n/a	n/a	n/a
3331.536	n/a	RECOG_CONF	1665768	n/a	LTP150	ltpFR	5	2	1	MICROSCOPE	891	n/a	5	0	n/a	n/a	n/a	n/a	n/a
3333.104	n/a	RECOG_LURE	1666552	n/a	LTP150	ltpFR	5	2	n/a	SYRUP	1425	0	5	n/a	n/a	n/a	n/a	n/a	n/a
3333.728	n/a	RECOG_RESP	1666864	n/a	LTP150	ltpFR	5	2	n/a	SYRUP	1425	0	n/a	n/a	n/a	n/a	n/a	n/a	n/a
3335.128	n/a	RECOG_CONF	1667564	n/a	LTP150	ltpFR	5	2	n/a	SYRUP	1425	n/a	5	n/a	n/a	n/a	n/a	n/a	n/a
3336.74	n/a	RECOG_LURE	1668370	n/a	LTP150	ltpFR	5	2	n/a	LOFT	840	0	2	n/a	n/a	n/a	n/a	n/a	n/a
3338.16	n/a	RECOG_RESP	1669080	n/a	LTP150	ltpFR	5	2	n/a	LOFT	840	0	n/a	n/a	n/a	n/a	n/a	n/a	n/a
3339.388	n/a	RECOG_CONF	1669694	n/a	LTP150	ltpFR	5	2	n/a	LOFT	840	n/a	2	n/a	n/a	n/a	n/a	n/a	n/a
3340.894	n/a	RECOG_TARGET	1670447	n/a	LTP150	ltpFR	5	2	-1	CONSOLE	364	1	5	-1	n/a	n/a	n/a	n/a	n/a
3341.572	n/a	RECOG_RESP	1670786	n/a	LTP150	ltpFR	5	2	-1	CONSOLE	364	1	n/a	-1	n/a	n/a	n/a	n/a	n/a
3342.964	n/a	RECOG_CONF	1671482	n/a	LTP150	ltpFR	5	2	-1	CONSOLE	364	n/a	5	-1	n/a	n/a	n/a	n/a	n/a
3344.542	n/a	RECOG_TARGET	1672271	n/a	LTP150	ltpFR	5	2	-1	FAUCET	555	1	5	-1	n/a	n/a	n/a	n/a	n/a
3345.314	n/a	RECOG_RESP	1672657	n/a	LTP150	ltpFR	5	2	-1	FAUCET	555	1	n/a	-1	n/a	n/a	n/a	n/a	n/a
3346.692	n/a	RECOG_CONF	1673346	n/a	LTP150	ltpFR	5	2	-1	FAUCET	555	n/a	5	-1	n/a	n/a	n/a	n/a	n/a
3348.286	n/a	RECOG_TARGET	1674143	n/a	LTP150	ltpFR	5	2	0	BEAVER	109	0	2	1	n/a	n/a	n/a	n/a	n/a
3349.796	n/a	RECOG_RESP	1674898	n/a	LTP150	ltpFR	5	2	0	BEAVER	109	0	n/a	1	n/a	n/a	n/a	n/a	n/a
3351.426	n/a	RECOG_CONF	1675713	n/a	LTP150	ltpFR	5	2	0	BEAVER	109	n/a	2	1	n/a	n/a	n/a	n/a	n/a
3352.94	n/a	RECOG_TARGET	1676470	n/a	LTP150	ltpFR	5	2	1	TANK	1432	1	5	0	n/a	n/a	n/a	n/a	n/a
3353.868	n/a	RECOG_RESP	1676934	n/a	LTP150	ltpFR	5	2	1	TANK	1432	1	n/a	0	n/a	n/a	n/a	n/a	n/a
3355.288	n/a	RECOG_CONF	1677644	n/a	LTP150	ltpFR	5	2	1	TANK	1432	n/a	5	0	n/a	n/a	n/a	n/a	n/a
3356.818	n/a	RECOG_TARGET	1678409	n/a	LTP150	ltpFR	5	2	0	NOSE	957	1	5	0	n/a	n/a	n/a	n/a	n/a
3357.456	n/a	RECOG_RESP	1678728	n/a	LTP150	ltpFR	5	2	0	NOSE	957	1	n/a	0	n/a	n/a	n/a	n/a	n/a
3358.92	n/a	RECOG_CONF	1679460	n/a	LTP150	ltpFR	5	2	0	NOSE	957	n/a	5	0	n/a	n/a	n/a	n/a	n/a
3364.59	n/a	REC_START	1682295	n/a	LTP150	ltpFR	5	3	n/a	n/a	n/a	n/a	n/a	n/a	n/a	n/a	n/a	n/a	n/a
3364.618	n/a	RECOG_TARGET	1682309	n/a	LTP150	ltpFR	5	3	1	OCEAN	970	1	5	1	n/a	n/a	n/a	n/a	n/a
3365.298	n/a	RECOG_RESP	1682649	n/a	LTP150	ltpFR	5	3	1	OCEAN	970	1	n/a	1	n/a	n/a	n/a	n/a	n/a
3366.63	n/a	RECOG_CONF	1683315	n/a	LTP150	ltpFR	5	3	1	OCEAN	970	n/a	5	1	n/a	n/a	n/a	n/a	n/a
3368.138	n/a	RECOG_TARGET	1684069	n/a	LTP150	ltpFR	5	3	0	PRAIRIE	1118	1	5	1	n/a	n/a	n/a	n/a	n/a
3368.696	n/a	RECOG_RESP	1684348	n/a	LTP150	ltpFR	5	3	0	PRAIRIE	1118	1	n/a	1	n/a	n/a	n/a	n/a	n/a
3370.064	n/a	RECOG_CONF	1685032	n/a	LTP150	ltpFR	5	3	0	PRAIRIE	1118	n/a	5	1	n/a	n/a	n/a	n/a	n/a
3371.518	n/a	RECOG_LURE	1685759	n/a	LTP150	ltpFR	5	3	n/a	JUNGLE	764	0	5	n/a	n/a	n/a	n/a	n/a	n/a
3372.134	n/a	RECOG_RESP	1686067	n/a	LTP150	ltpFR	5	3	n/a	JUNGLE	764	0	n/a	n/a	n/a	n/a	n/a	n/a	n/a
3373.4	n/a	RECOG_CONF	1686700	n/a	LTP150	ltpFR	5	3	n/a	JUNGLE	764	n/a	5	n/a	n/a	n/a	n/a	n/a	n/a
3374.956	n/a	RECOG_TARGET	1687478	n/a	LTP150	ltpFR	5	3	1	GAZELLE	628	1	5	1	n/a	n/a	n/a	n/a	n/a
3375.51	n/a	RECOG_RESP	1687755	n/a	LTP150	ltpFR	5	3	1	GAZELLE	628	1	n/a	1	n/a	n/a	n/a	n/a	n/a
3376.888	n/a	RECOG_CONF	1688444	n/a	LTP150	ltpFR	5	3	1	GAZELLE	628	n/a	5	1	n/a	n/a	n/a	n/a	n/a
3378.418	n/a	RECOG_TARGET	1689209	n/a	LTP150	ltpFR	5	3	1	PASTRY	1022	1	5	0	n/a	n/a	n/a	n/a	n/a
3379.0	n/a	RECOG_RESP	1689500	n/a	LTP150	ltpFR	5	3	1	PASTRY	1022	1	n/a	0	n/a	n/a	n/a	n/a	n/a
3380.544	n/a	RECOG_CONF	1690272	n/a	LTP150	ltpFR	5	3	1	PASTRY	1022	n/a	5	0	n/a	n/a	n/a	n/a	n/a
3381.998	n/a	RECOG_TARGET	1690999	n/a	LTP150	ltpFR	5	3	-1	LAPEL	800	1	5	-1	n/a	n/a	n/a	n/a	n/a
3382.694	n/a	RECOG_RESP	1691347	n/a	LTP150	ltpFR	5	3	-1	LAPEL	800	1	n/a	-1	n/a	n/a	n/a	n/a	n/a
3384.016	n/a	RECOG_CONF	1692008	n/a	LTP150	ltpFR	5	3	-1	LAPEL	800	n/a	5	-1	n/a	n/a	n/a	n/a	n/a
3385.56	n/a	RECOG_LURE	1692780	n/a	LTP150	ltpFR	5	3	n/a	LIBRARY	816	0	3	n/a	n/a	n/a	n/a	n/a	n/a
3386.432	n/a	RECOG_RESP	1693216	n/a	LTP150	ltpFR	5	3	n/a	LIBRARY	816	0	n/a	n/a	n/a	n/a	n/a	n/a	n/a
3387.99	n/a	RECOG_CONF	1693995	n/a	LTP150	ltpFR	5	3	n/a	LIBRARY	816	n/a	3	n/a	n/a	n/a	n/a	n/a	n/a
3389.422	n/a	RECOG_TARGET	1694711	n/a	LTP150	ltpFR	5	3	1	PUMP	1141	1	5	0	n/a	n/a	n/a	n/a	n/a
3390.146	n/a	RECOG_RESP	1695073	n/a	LTP150	ltpFR	5	3	1	PUMP	1141	1	n/a	0	n/a	n/a	n/a	n/a	n/a
3391.56	n/a	RECOG_CONF	1695780	n/a	LTP150	ltpFR	5	3	1	PUMP	1141	n/a	5	0	n/a	n/a	n/a	n/a	n/a
3392.918	n/a	RECOG_LURE	1696459	n/a	LTP150	ltpFR	5	3	n/a	MONKEY	911	0	4	n/a	n/a	n/a	n/a	n/a	n/a
3393.642	n/a	RECOG_RESP	1696821	n/a	LTP150	ltpFR	5	3	n/a	MONKEY	911	0	n/a	n/a	n/a	n/a	n/a	n/a	n/a
3395.14	n/a	RECOG_CONF	1697570	n/a	LTP150	ltpFR	5	3	n/a	MONKEY	911	n/a	4	n/a	n/a	n/a	n/a	n/a	n/a
3396.506	n/a	RECOG_TARGET	1698253	n/a	LTP150	ltpFR	5	3	-1	BINDER	127	1	5	-1	n/a	n/a	n/a	n/a	n/a
3397.146	n/a	RECOG_RESP	1698573	n/a	LTP150	ltpFR	5	3	-1	BINDER	127	1	n/a	-1	n/a	n/a	n/a	n/a	n/a
3398.528	n/a	RECOG_CONF	1699264	n/a	LTP150	ltpFR	5	3	-1	BINDER	127	n/a	5	-1	n/a	n/a	n/a	n/a	n/a
3400.076	n/a	RECOG_TARGET	1700038	n/a	LTP150	ltpFR	5	3	-1	CONTRACTOR	369	1	5	-1	n/a	n/a	n/a	n/a	n/a
3400.594	n/a	RECOG_RESP	1700297	n/a	LTP150	ltpFR	5	3	-1	CONTRACTOR	369	1	n/a	-1	n/a	n/a	n/a	n/a	n/a
3402.094	n/a	RECOG_CONF	1701047	n/a	LTP150	ltpFR	5	3	-1	CONTRACTOR	369	n/a	5	-1	n/a	n/a	n/a	n/a	n/a
3403.68	n/a	RECOG_TARGET	1701840	n/a	LTP150	ltpFR	5	3	-1	SAGE	1222	1	5	-1	n/a	n/a	n/a	n/a	n/a
3404.272	n/a	RECOG_RESP	1702136	n/a	LTP150	ltpFR	5	3	-1	SAGE	1222	1	n/a	-1	n/a	n/a	n/a	n/a	n/a
3405.732	n/a	RECOG_CONF	1702866	n/a	LTP150	ltpFR	5	3	-1	SAGE	1222	n/a	5	-1	n/a	n/a	n/a	n/a	n/a
3407.102	n/a	RECOG_TARGET	1703551	n/a	LTP150	ltpFR	5	3	0	TUB	1514	1	3	1	n/a	n/a	n/a	n/a	n/a
3408.076	n/a	RECOG_RESP	1704038	n/a	LTP150	ltpFR	5	3	0	TUB	1514	1	n/a	1	n/a	n/a	n/a	n/a	n/a
3409.624	n/a	RECOG_CONF	1704812	n/a	LTP150	ltpFR	5	3	0	TUB	1514	n/a	3	1	n/a	n/a	n/a	n/a	n/a
3410.998	n/a	RECOG_TARGET	1705499	n/a	LTP150	ltpFR	5	3	0	NOMAD	955	1	5	1	n/a	n/a	n/a	n/a	n/a
3411.652	n/a	RECOG_RESP	1705826	n/a	LTP150	ltpFR	5	3	0	NOMAD	955	1	n/a	1	n/a	n/a	n/a	n/a	n/a
3412.966	n/a	RECOG_CONF	1706483	n/a	LTP150	ltpFR	5	3	0	NOMAD	955	n/a	5	1	n/a	n/a	n/a	n/a	n/a
3414.426	n/a	RECOG_TARGET	1707213	n/a	LTP150	ltpFR	5	3	0	BATHROOM	99	0	1	1	n/a	n/a	n/a	n/a	n/a
3415.448	n/a	RECOG_RESP	1707724	n/a	LTP150	ltpFR	5	3	0	BATHROOM	99	0	n/a	1	n/a	n/a	n/a	n/a	n/a
3417.006	n/a	RECOG_CONF	1708503	n/a	LTP150	ltpFR	5	3	0	BATHROOM	99	n/a	1	1	n/a	n/a	n/a	n/a	n/a
3418.398	n/a	RECOG_TARGET	1709199	n/a	LTP150	ltpFR	5	3	0	THREAD	1460	1	5	0	n/a	n/a	n/a	n/a	n/a
3419.12	n/a	RECOG_RESP	1709560	n/a	LTP150	ltpFR	5	3	0	THREAD	1460	1	n/a	0	n/a	n/a	n/a	n/a	n/a
3420.558	n/a	RECOG_CONF	1710279	n/a	LTP150	ltpFR	5	3	0	THREAD	1460	n/a	5	0	n/a	n/a	n/a	n/a	n/a
3422.068	n/a	RECOG_TARGET	1711034	n/a	LTP150	ltpFR	5	3	-1	COMPASS	358	1	5	-1	n/a	n/a	n/a	n/a	n/a
3422.608	n/a	RECOG_RESP	1711304	n/a	LTP150	ltpFR	5	3	-1	COMPASS	358	1	n/a	-1	n/a	n/a	n/a	n/a	n/a
3423.956	n/a	RECOG_CONF	1711978	n/a	LTP150	ltpFR	5	3	-1	COMPASS	358	n/a	5	-1	n/a	n/a	n/a	n/a	n/a
3425.432	n/a	RECOG_TARGET	1712716	n/a	LTP150	ltpFR	5	3	0	FORT	595	1	5	1	n/a	n/a	n/a	n/a	n/a
3425.982	n/a	RECOG_RESP	1712991	n/a	LTP150	ltpFR	5	3	0	FORT	595	1	n/a	1	n/a	n/a	n/a	n/a	n/a
3427.266	n/a	RECOG_CONF	1713633	n/a	LTP150	ltpFR	5	3	0	FORT	595	n/a	5	1	n/a	n/a	n/a	n/a	n/a
3428.786	n/a	RECOG_TARGET	1714393	n/a	LTP150	ltpFR	5	3	1	MILK	895	1	5	0	n/a	n/a	n/a	n/a	n/a
3429.416	n/a	RECOG_RESP	1714708	n/a	LTP150	ltpFR	5	3	1	MILK	895	1	n/a	0	n/a	n/a	n/a	n/a	n/a
3430.756	n/a	RECOG_CONF	1715378	n/a	LTP150	ltpFR	5	3	1	MILK	895	n/a	5	0	n/a	n/a	n/a	n/a	n/a
3432.274	n/a	RECOG_LURE	1716137	n/a	LTP150	ltpFR	5	3	n/a	SEAT	1264	0	4	n/a	n/a	n/a	n/a	n/a	n/a
3432.912	n/a	RECOG_RESP	1716456	n/a	LTP150	ltpFR	5	3	n/a	SEAT	1264	0	n/a	n/a	n/a	n/a	n/a	n/a	n/a
3434.448	n/a	RECOG_CONF	1717224	n/a	LTP150	ltpFR	5	3	n/a	SEAT	1264	n/a	4	n/a	n/a	n/a	n/a	n/a	n/a
3438.328	n/a	REC_START	1719164	n/a	LTP150	ltpFR	5	4	n/a	n/a	n/a	n/a	n/a	n/a	n/a	n/a	n/a	n/a	n/a
3438.358	n/a	RECOG_TARGET	1719179	n/a	LTP150	ltpFR	5	4	0	COLLAR	345	1	5	0	n/a	n/a	n/a	n/a	n/a
3438.936	n/a	RECOG_RESP	1719468	n/a	LTP150	ltpFR	5	4	0	COLLAR	345	1	n/a	0	n/a	n/a	n/a	n/a	n/a
3440.222	n/a	RECOG_CONF	1720111	n/a	LTP150	ltpFR	5	4	0	COLLAR	345	n/a	5	0	n/a	n/a	n/a	n/a	n/a
3441.746	n/a	RECOG_TARGET	1720873	n/a	LTP150	ltpFR	5	4	0	BEAST	108	1	5	1	n/a	n/a	n/a	n/a	n/a
3442.378	n/a	RECOG_RESP	1721189	n/a	LTP150	ltpFR	5	4	0	BEAST	108	1	n/a	1	n/a	n/a	n/a	n/a	n/a
3443.634	n/a	RECOG_CONF	1721817	n/a	LTP150	ltpFR	5	4	0	BEAST	108	n/a	5	1	n/a	n/a	n/a	n/a	n/a
3445.176	n/a	RECOG_TARGET	1722588	n/a	LTP150	ltpFR	5	4	1	ZUCCHINI	1638	1	5	1	n/a	n/a	n/a	n/a	n/a
3445.828	n/a	RECOG_RESP	1722914	n/a	LTP150	ltpFR	5	4	1	ZUCCHINI	1638	1	n/a	1	n/a	n/a	n/a	n/a	n/a
3447.162	n/a	RECOG_CONF	1723581	n/a	LTP150	ltpFR	5	4	1	ZUCCHINI	1638	n/a	5	1	n/a	n/a	n/a	n/a	n/a
3448.596	n/a	RECOG_TARGET	1724298	n/a	LTP150	ltpFR	5	4	0	BLOUSE	139	1	5	0	n/a	n/a	n/a	n/a	n/a
3449.234	n/a	RECOG_RESP	1724617	n/a	LTP150	ltpFR	5	4	0	BLOUSE	139	1	n/a	0	n/a	n/a	n/a	n/a	n/a
3450.55	n/a	RECOG_CONF	1725275	n/a	LTP150	ltpFR	5	4	0	BLOUSE	139	n/a	5	0	n/a	n/a	n/a	n/a	n/a
3452.108	n/a	RECOG_TARGET	1726054	n/a	LTP150	ltpFR	5	4	-1	BEAD	103	1	5	-1	n/a	n/a	n/a	n/a	n/a
3452.664	n/a	RECOG_RESP	1726332	n/a	LTP150	ltpFR	5	4	-1	BEAD	103	1	n/a	-1	n/a	n/a	n/a	n/a	n/a
3454.046	n/a	RECOG_CONF	1727023	n/a	LTP150	ltpFR	5	4	-1	BEAD	103	n/a	5	-1	n/a	n/a	n/a	n/a	n/a
3455.58	n/a	RECOG_LURE	1727790	n/a	LTP150	ltpFR	5	4	n/a	CORD	379	0	5	n/a	n/a	n/a	n/a	n/a	n/a
3456.262	n/a	RECOG_RESP	1728131	n/a	LTP150	ltpFR	5	4	n/a	CORD	379	0	n/a	n/a	n/a	n/a	n/a	n/a	n/a
3457.632	n/a	RECOG_CONF	1728816	n/a	LTP150	ltpFR	5	4	n/a	CORD	379	n/a	5	n/a	n/a	n/a	n/a	n/a	n/a
3459.16	n/a	RECOG_LURE	1729580	n/a	LTP150	ltpFR	5	4	n/a	QUEEN	1149	0	3	n/a	n/a	n/a	n/a	n/a	n/a
3459.922	n/a	RECOG_RESP	1729961	n/a	LTP150	ltpFR	5	4	n/a	QUEEN	1149	0	n/a	n/a	n/a	n/a	n/a	n/a	n/a
3461.562	n/a	RECOG_CONF	1730781	n/a	LTP150	ltpFR	5	4	n/a	QUEEN	1149	n/a	3	n/a	n/a	n/a	n/a	n/a	n/a
3462.838	n/a	RECOG_TARGET	1731419	n/a	LTP150	ltpFR	5	4	0	TICK	1463	1	5	0	n/a	n/a	n/a	n/a	n/a
3463.532	n/a	RECOG_RESP	1731766	n/a	LTP150	ltpFR	5	4	0	TICK	1463	1	n/a	0	n/a	n/a	n/a	n/a	n/a
3464.942	n/a	RECOG_CONF	1732471	n/a	LTP150	ltpFR	5	4	0	TICK	1463	n/a	5	0	n/a	n/a	n/a	n/a	n/a
3466.46	n/a	RECOG_TARGET	1733230	n/a	LTP150	ltpFR	5	4	0	PEAR	1033	1	5	0	n/a	n/a	n/a	n/a	n/a
3467.022	n/a	RECOG_RESP	1733511	n/a	LTP150	ltpFR	5	4	0	PEAR	1033	1	n/a	0	n/a	n/a	n/a	n/a	n/a
3468.334	n/a	RECOG_CONF	1734167	n/a	LTP150	ltpFR	5	4	0	PEAR	1033	n/a	5	0	n/a	n/a	n/a	n/a	n/a
3469.78	n/a	RECOG_TARGET	1734890	n/a	LTP150	ltpFR	5	4	0	DINNER	468	1	3	1	n/a	n/a	n/a	n/a	n/a
3470.598	n/a	RECOG_RESP	1735299	n/a	LTP150	ltpFR	5	4	0	DINNER	468	1	n/a	1	n/a	n/a	n/a	n/a	n/a
