mstime	trial_type	stim_file	subject	experiment	session	trial	item_name	item_num	list	answer	test_x	test_y	test_z
0	SESS_START	n/a	LTP386	ltpFR2	14	n/a	n/a	n/a	n/a	n/a	0	0	0
12160	START	n/a	LTP386	ltpFR2	14	n/a	n/a	n/a	-1	n/a	n/a	n/a	n/a
12190	PROB	n/a	LTP386	ltpFR2	14	n/a	n/a	n/a	-1	16	9	6	1
13928	PROB	n/a	LTP386	ltpFR2	14	n/a	n/a	n/a	-1	13	2	2	9
15534	PROB	n/a	LTP386	ltpFR2	14	n/a	n/a	n/a	-1	17	8	3	6
18143	PROB	n/a	LTP386	ltpFR2	14	n/a	n/a	n/a	-1	14	1	4	9
19279	PROB	n/a	LTP386	ltpFR2	14	n/a	n/a	n/a	-1	10	4	1	5
20516	PROB	n/a	LTP386	ltpFR2	14	n/a	n/a	n/a	-1	10	1	5	4
21486	PROB	n/a	LTP386	ltpFR2	14	n/a	n/a	n/a	-1	9	1	5	3
23233	STOP	n/a	LTP386	ltpFR2	14	n/a	n/a	n/a	-1	n/a	n/a	n/a	n/a
50781	WORD	wordpools/wasnorm_wordpool_576.txt	LTP386	ltpFR2	14	1	BUNNY	198	n/a	n/a	0	0	0
53273	WORD	wordpools/wasnorm_wordpool_576.txt	LTP386	ltpFR2	14	1	MAMMAL	861	n/a	n/a	0	0	0
55864	WORD	wordpools/wasnorm_wordpool_576.txt	LTP386	ltpFR2	14	1	CONVICT	371	n/a	n/a	0	0	0
58289	WORD	wordpools/wasnorm_wordpool_576.txt	LTP386	ltpFR2	14	1	CRUTCH	417	n/a	n/a	0	0	0
61081	WORD	wordpools/wasnorm_wordpool_576.txt	LTP386	ltpFR2	14	1	FRAGRANCE	599	n/a	n/a	0	0	0
63740	WORD	wordpools/wasnorm_wordpool_576.txt	LTP386	ltpFR2	14	1	SPONGE	1355	n/a	n/a	0	0	0
66215	WORD	wordpools/wasnorm_wordpool_576.txt	LTP386	ltpFR2	14	1	WASP	1593	n/a	n/a	0	0	0
68723	WORD	wordpools/wasnorm_wordpool_576.txt	LTP386	ltpFR2	14	1	CRICKET	408	n/a	n/a	0	0	0
71515	WORD	wordpools/wasnorm_wordpool_576.txt	LTP386	ltpFR2	14	1	BATHTUB	100	n/a	n/a	0	0	0
74257	WORD	wordpools/wasnorm_wordpool_576.txt	LTP386	ltpFR2	14	1	LION	827	n/a	n/a	0	0	0
76682	WORD	wordpools/wasnorm_wordpool_576.txt	LTP386	ltpFR2	14	1	SPIDER	1351	n/a	n/a	0	0	0
79223	WORD	wordpools/wasnorm_wordpool_576.txt	LTP386	ltpFR2	14	1	FRAME	600	n/a	n/a	0	0	0
81932	WORD	wordpools/wasnorm_wordpool_576.txt	LTP386	ltpFR2	14	1	RECORD	1176	n/a	n/a	0	0	0
84574	WORD	wordpools/wasnorm_wordpool_576.txt	LTP386	ltpFR2	14	1	SCALPEL	1243	n/a	n/a	0	0	0
87350	WORD	wordpools/wasnorm_wordpool_576.txt	LTP386	ltpFR2	14	1	MESSAGE	888	n/a	n/a	0	0	0
89791	WORD	wordpools/wasnorm_wordpool_576.txt	LTP386	ltpFR2	14	1	ONION	977	n/a	n/a	0	0	0
92416	WORD	wordpools/wasnorm_wordpool_576.txt	LTP386	ltpFR2	14	1	LIVER	833	n/a	n/a	0	0	0
95159	WORD	wordpools/wasnorm_wordpool_576.txt	LTP386	ltpFR2	14	1	FOREHEAD	592	n/a	n/a	0	0	0
97633	WORD	wordpools/wasnorm_wordpool_576.txt	LTP386	ltpFR2	14	1	PADDING	999	n/a	n/a	0	0	0
100159	WORD	wordpools/wasnorm_wordpool_576.txt	LTP386	ltpFR2	14	1	COUCH	386	n/a	n/a	0	0	0
102582	WORD	wordpools/wasnorm_wordpool_576.txt	LTP386	ltpFR2	14	1	TABLE	1426	n/a	n/a	0	0	0
105274	WORD	wordpools/wasnorm_wordpool_576.txt	LTP386	ltpFR2	14	1	POLICE	1098	n/a	n/a	0	0	0
107749	WORD	wordpools/wasnorm_wordpool_576.txt	LTP386	ltpFR2	14	1	PORK	1108	n/a	n/a	0	0	0
110558	WORD	wordpools/wasnorm_wordpool_576.txt	LTP386	ltpFR2	14	1	PATIENT	1024	n/a	n/a	0	0	0
112165	START	n/a	LTP386	ltpFR2	14	n/a	n/a	n/a	1	n/a	n/a	n/a	n/a
113097	DISTRACTOR	n/a	LTP386	ltpFR2	14	1	n/a	n/a	n/a	n/a	0	0	0
113101	PROB	n/a	LTP386	ltpFR2	14	n/a	n/a	n/a	1	11	5	3	3
114354	PROB	n/a	LTP386	ltpFR2	14	n/a	n/a	n/a	1	14	2	3	9
115708	PROB	n/a	LTP386	ltpFR2	14	n/a	n/a	n/a	1	9	1	4	4
116795	PROB	n/a	LTP386	ltpFR2	14	n/a	n/a	n/a	1	14	1	4	9
117999	PROB	n/a	LTP386	ltpFR2	14	n/a	n/a	n/a	1	7	1	3	3
120574	PROB	n/a	LTP386	ltpFR2	14	n/a	n/a	n/a	1	15	7	6	2
122380	PROB	n/a	LTP386	ltpFR2	14	n/a	n/a	n/a	1	17	1	7	9
123450	PROB	n/a	LTP386	ltpFR2	14	n/a	n/a	n/a	1	18	2	9	7
125055	PROB	n/a	LTP386	ltpFR2	14	n/a	n/a	n/a	1	18	6	6	6
126359	PROB	n/a	LTP386	ltpFR2	14	n/a	n/a	n/a	1	10	1	1	8
127329	PROB	n/a	LTP386	ltpFR2	14	n/a	n/a	n/a	1	21	8	8	5
129336	PROB	n/a	LTP386	ltpFR2	14	n/a	n/a	n/a	1	15	7	3	5
130339	PROB	n/a	LTP386	ltpFR2	14	n/a	n/a	n/a	1	19	8	7	4
132278	PROB	n/a	LTP386	ltpFR2	14	n/a	n/a	n/a	1	10	6	3	1
133382	PROB	n/a	LTP386	ltpFR2	14	n/a	n/a	n/a	1	18	1	8	9
134352	PROB	n/a	LTP386	ltpFR2	14	n/a	n/a	n/a	1	16	8	7	1
135589	STOP	n/a	LTP386	ltpFR2	14	n/a	n/a	n/a	1	n/a	n/a	n/a	n/a
137981	REC_START	n/a	LTP386	ltpFR2	14	1	n/a	n/a	n/a	n/a	0	0	0
138889	REC_WORD	wordpools/wasnorm_wordpool_576.txt	LTP386	ltpFR2	14	1	FRAGRANCE	599	n/a	n/a	0	0	0
140083	REC_WORD_VV	wordpools/wasnorm_wordpool_576.txt	LTP386	ltpFR2	14	1	<>	-1	n/a	n/a	0	0	0
140745	REC_WORD	wordpools/wasnorm_wordpool_576.txt	LTP386	ltpFR2	14	1	CONVICT	371	n/a	n/a	0	0	0
141531	REC_WORD	wordpools/wasnorm_wordpool_576.txt	LTP386	ltpFR2	14	1	POLICE	1098	n/a	n/a	0	0	0
142480	REC_WORD	wordpools/wasnorm_wordpool_576.txt	LTP386	ltpFR2	14	1	PORK	1108	n/a	n/a	0	0	0
143477	REC_WORD	wordpools/wasnorm_wordpool_576.txt	LTP386	ltpFR2	14	1	PATIENT	1024	n/a	n/a	0	0	0
144950	REC_WORD	wordpools/wasnorm_wordpool_576.txt	LTP386	ltpFR2	14	1	WASP	1593	n/a	n/a	0	0	0
146317	REC_WORD	wordpools/wasnorm_wordpool_576.txt	LTP386	ltpFR2	14	1	MAMMAL	861	n/a	n/a	0	0	0
147343	REC_WORD	wordpools/wasnorm_wordpool_576.txt	LTP386	ltpFR2	14	1	BUNNY	198	n/a	n/a	0	0	0
157428	REC_WORD	wordpools/wasnorm_wordpool_576.txt	LTP386	ltpFR2	14	1	ONION	977	n/a	n/a	0	0	0
165639	REC_WORD	wordpools/wasnorm_wordpool_576.txt	LTP386	ltpFR2	14	1	TABLE	1426	n/a	n/a	0	0	0
180967	REC_WORD	wordpools/wasnorm_wordpool_576.txt	LTP386	ltpFR2	14	1	CRICKET	408	n/a	n/a	0	0	0
191718	REC_WORD	wordpools/wasnorm_wordpool_576.txt	LTP386	ltpFR2	14	1	FOREHEAD	592	n/a	n/a	0	0	0
228407	DISTRACTOR	n/a	LTP386	ltpFR2	14	2	n/a	n/a	n/a	n/a	0	0	0
228407	START	n/a	LTP386	ltpFR2	14	n/a	n/a	n/a	2	n/a	n/a	n/a	n/a
228423	PROB	n/a	LTP386	ltpFR2	14	n/a	n/a	n/a	2	9	3	2	4
229978	PROB	n/a	LTP386	ltpFR2	14	n/a	n/a	n/a	2	13	4	3	6
231400	PROB	n/a	LTP386	ltpFR2	14	n/a	n/a	n/a	2	18	9	1	8
232353	PROB	n/a	LTP386	ltpFR2	14	n/a	n/a	n/a	2	22	9	7	6
233757	PROB	n/a	LTP386	ltpFR2	14	n/a	n/a	n/a	2	9	4	1	4
234827	PROB	n/a	LTP386	ltpFR2	14	n/a	n/a	n/a	2	19	8	8	3
236232	PROB	n/a	LTP386	ltpFR2	14	n/a	n/a	n/a	2	14	1	4	9
237252	PROB	n/a	LTP386	ltpFR2	14	n/a	n/a	n/a	2	20	7	4	9
239559	PROB	n/a	LTP386	ltpFR2	14	n/a	n/a	n/a	2	8	6	1	1
240479	PROB	n/a	LTP386	ltpFR2	14	n/a	n/a	n/a	2	17	5	4	8
242502	PROB	n/a	LTP386	ltpFR2	14	n/a	n/a	n/a	2	16	4	8	4
243873	PROB	n/a	LTP386	ltpFR2	14	n/a	n/a	n/a	2	20	8	4	8
245696	PROB	n/a	LTP386	ltpFR2	14	n/a	n/a	n/a	2	21	5	8	8
247251	PROB	n/a	LTP386	ltpFR2	14	n/a	n/a	n/a	2	12	5	3	4
249642	PROB	n/a	LTP386	ltpFR2	14	n/a	n/a	n/a	2	17	9	3	5
251192	STOP	n/a	LTP386	ltpFR2	14	n/a	n/a	n/a	2	n/a	n/a	n/a	n/a
253588	WORD	wordpools/wasnorm_wordpool_576.txt	LTP386	ltpFR2	14	2	NECKLACE	940	n/a	n/a	0	0	0
256347	WORD	wordpools/wasnorm_wordpool_576.txt	LTP386	ltpFR2	14	2	STAMP	1370	n/a	n/a	0	0	0
258822	WORD	wordpools/wasnorm_wordpool_576.txt	LTP386	ltpFR2	14	2	BACON	67	n/a	n/a	0	0	0
261581	WORD	wordpools/wasnorm_wordpool_576.txt	LTP386	ltpFR2	14	2	SAUSAGE	1238	n/a	n/a	0	0	0
264340	WORD	wordpools/wasnorm_wordpool_576.txt	LTP386	ltpFR2	14	2	MUFFIN	929	n/a	n/a	0	0	0
266965	WORD	wordpools/wasnorm_wordpool_576.txt	LTP386	ltpFR2	14	2	TOASTER	1472	n/a	n/a	0	0	0
269740	WORD	wordpools/wasnorm_wordpool_576.txt	LTP386	ltpFR2	14	2	WAITRESS	1581	n/a	n/a	0	0	0
272382	WORD	wordpools/wasnorm_wordpool_576.txt	LTP386	ltpFR2	14	2	TART	1436	n/a	n/a	0	0	0
275074	WORD	wordpools/wasnorm_wordpool_576.txt	LTP386	ltpFR2	14	2	RATTLE	1170	n/a	n/a	0	0	0
277733	WORD	wordpools/wasnorm_wordpool_576.txt	LTP386	ltpFR2	14	2	KETCHUP	771	n/a	n/a	0	0	0
280459	WORD	wordpools/wasnorm_wordpool_576.txt	LTP386	ltpFR2	14	2	COWBOY	395	n/a	n/a	0	0	0
283201	WORD	wordpools/wasnorm_wordpool_576.txt	LTP386	ltpFR2	14	2	ROD	1203	n/a	n/a	0	0	0
285759	WORD	wordpools/wasnorm_wordpool_576.txt	LTP386	ltpFR2	14	2	BARREL	91	n/a	n/a	0	0	0
288250	WORD	wordpools/wasnorm_wordpool_576.txt	LTP386	ltpFR2	14	2	LOFT	840	n/a	n/a	0	0	0
290859	WORD	wordpools/wasnorm_wordpool_576.txt	LTP386	ltpFR2	14	2	MEAT	883	n/a	n/a	0	0	0
293451	WORD	wordpools/wasnorm_wordpool_576.txt	LTP386	ltpFR2	14	2	QUEEN	1149	n/a	n/a	0	0	0
296042	WORD	wordpools/wasnorm_wordpool_576.txt	LTP386	ltpFR2	14	2	GREASE	660	n/a	n/a	0	0	0
298734	WORD	wordpools/wasnorm_wordpool_576.txt	LTP386	ltpFR2	14	2	LUMBER	848	n/a	n/a	0	0	0
301326	WORD	wordpools/wasnorm_wordpool_576.txt	LTP386	ltpFR2	14	2	HONEY	713	n/a	n/a	0	0	0
303901	WORD	wordpools/wasnorm_wordpool_576.txt	LTP386	ltpFR2	14	2	SCRIBBLE	1256	n/a	n/a	0	0	0
306376	WORD	wordpools/wasnorm_wordpool_576.txt	LTP386	ltpFR2	14	2	SERVANT	1271	n/a	n/a	0	0	0
309119	WORD	wordpools/wasnorm_wordpool_576.txt	LTP386	ltpFR2	14	2	BEEF	113	n/a	n/a	0	0	0
311576	WORD	wordpools/wasnorm_wordpool_576.txt	LTP386	ltpFR2	14	2	RUST	1219	n/a	n/a	0	0	0
314268	WORD	wordpools/wasnorm_wordpool_576.txt	LTP386	ltpFR2	14	2	MEDAL	885	n/a	n/a	0	0	0
315873	START	n/a	LTP386	ltpFR2	14	n/a	n/a	n/a	3	n/a	n/a	n/a	n/a
316906	DISTRACTOR	n/a	LTP386	ltpFR2	14	2	n/a	n/a	n/a	n/a	0	0	0
316910	PROB	n/a	LTP386	ltpFR2	14	n/a	n/a	n/a	3	23	9	7	7
318916	PROB	n/a	LTP386	ltpFR2	14	n/a	n/a	n/a	3	20	5	7	8
321175	PROB	n/a	LTP386	ltpFR2	14	n/a	n/a	n/a	3	16	7	3	6
322528	PROB	n/a	LTP386	ltpFR2	14	n/a	n/a	n/a	3	20	5	6	9
323916	PROB	n/a	LTP386	ltpFR2	14	n/a	n/a	n/a	3	16	7	8	1
325521	PROB	n/a	LTP386	ltpFR2	14	n/a	n/a	n/a	3	18	2	9	7
327511	PROB	n/a	LTP386	ltpFR2	14	n/a	n/a	n/a	3	12	5	1	6
328932	PROB	n/a	LTP386	ltpFR2	14	n/a	n/a	n/a	3	8	1	3	4
329986	PROB	n/a	LTP386	ltpFR2	14	n/a	n/a	n/a	3	15	4	4	7
331373	PROB	n/a	LTP386	ltpFR2	14	n/a	n/a	n/a	3	17	6	5	6
333029	PROB	n/a	LTP386	ltpFR2	14	n/a	n/a	n/a	3	11	1	1	9
333982	PROB	n/a	LTP386	ltpFR2	14	n/a	n/a	n/a	3	12	4	7	1
335470	PROB	n/a	LTP386	ltpFR2	14	n/a	n/a	n/a	3	18	8	7	3
336858	PROB	n/a	LTP386	ltpFR2	14	n/a	n/a	n/a	3	14	3	2	9
338096	PROB	n/a	LTP386	ltpFR2	14	n/a	n/a	n/a	3	14	4	8	2
339491	STOP	n/a	LTP386	ltpFR2	14	n/a	n/a	n/a	3	n/a	n/a	n/a	n/a
341741	REC_START	n/a	LTP386	ltpFR2	14	2	n/a	n/a	n/a	n/a	0	0	0
343015	REC_WORD	wordpools/wasnorm_wordpool_576.txt	LTP386	ltpFR2	14	2	HONEY	713	n/a	n/a	0	0	0
343745	REC_WORD	wordpools/wasnorm_wordpool_576.txt	LTP386	ltpFR2	14	2	LUMBER	848	n/a	n/a	0	0	0
344392	REC_WORD	wordpools/wasnorm_wordpool_576.txt	LTP386	ltpFR2	14	2	SERVANT	1271	n/a	n/a	0	0	0
346057	REC_WORD	wordpools/wasnorm_wordpool_576.txt	LTP386	ltpFR2	14	2	MEAT	883	n/a	n/a	0	0	0
347107	REC_WORD	wordpools/wasnorm_wordpool_576.txt	LTP386	ltpFR2	14	2	BACON	67	n/a	n/a	0	0	0
347798	REC_WORD	wordpools/wasnorm_wordpool_576.txt	LTP386	ltpFR2	14	2	SAUSAGE	1238	n/a	n/a	0	0	0
348878	REC_WORD	wordpools/wasnorm_wordpool_576.txt	LTP386	ltpFR2	14	2	GREASE	660	n/a	n/a	0	0	0
350007	REC_WORD	wordpools/wasnorm_wordpool_576.txt	LTP386	ltpFR2	14	2	RUST	1219	n/a	n/a	0	0	0
360313	REC_WORD	wordpools/wasnorm_wordpool_576.txt	LTP386	ltpFR2	14	2	BEEF	113	n/a	n/a	0	0	0
361673	REC_WORD	wordpools/wasnorm_wordpool_576.txt	LTP386	ltpFR2	14	2	STAMP	1370	n/a	n/a	0	0	0
408134	REC_WORD	wordpools/wasnorm_wordpool_576.txt	LTP386	ltpFR2	14	2	NECKLACE	940	n/a	n/a	0	0	0
432200	WORD	wordpools/wasnorm_wordpool_576.txt	LTP386	ltpFR2	14	3	BEAVER	109	n/a	n/a	0	0	0
434792	WORD	wordpools/wasnorm_wordpool_576.txt	LTP386	ltpFR2	14	3	OX	994	n/a	n/a	0	0	0
437484	WORD	wordpools/wasnorm_wordpool_576.txt	LTP386	ltpFR2	14	3	LAVA	804	n/a	n/a	0	0	0
439975	WORD	wordpools/wasnorm_wordpool_576.txt	LTP386	ltpFR2	14	3	MAILMAN	858	n/a	n/a	0	0	0
442768	WORD	wordpools/wasnorm_wordpool_576.txt	LTP386	ltpFR2	14	3	SHELTER	1282	n/a	n/a	0	0	0
445242	WORD	wordpools/wasnorm_wordpool_576.txt	LTP386	ltpFR2	14	3	MILDEW	893	n/a	n/a	0	0	0
448051	WORD	wordpools/wasnorm_wordpool_576.txt	LTP386	ltpFR2	14	3	TURKEY	1520	n/a	n/a	0	0	0
450827	WORD	wordpools/wasnorm_wordpool_576.txt	LTP386	ltpFR2	14	3	SEAL	1262	n/a	n/a	0	0	0
453369	WORD	wordpools/wasnorm_wordpool_576.txt	LTP386	ltpFR2	14	3	BUREAU	199	n/a	n/a	0	0	0
456027	WORD	wordpools/wasnorm_wordpool_576.txt	LTP386	ltpFR2	14	3	PEPPER	1047	n/a	n/a	0	0	0
458468	WORD	wordpools/wasnorm_wordpool_576.txt	LTP386	ltpFR2	14	3	COTTAGE	384	n/a	n/a	0	0	0
461044	WORD	wordpools/wasnorm_wordpool_576.txt	LTP386	ltpFR2	14	3	CONCERT	360	n/a	n/a	0	0	0
463819	WORD	wordpools/wasnorm_wordpool_576.txt	LTP386	ltpFR2	14	3	TROMBONE	1508	n/a	n/a	0	0	0
466561	WORD	wordpools/wasnorm_wordpool_576.txt	LTP386	ltpFR2	14	3	SHELF	1280	n/a	n/a	0	0	0
469370	WORD	wordpools/wasnorm_wordpool_576.txt	LTP386	ltpFR2	14	3	SHOULDER	1294	n/a	n/a	0	0	0
471895	WORD	wordpools/wasnorm_wordpool_576.txt	LTP386	ltpFR2	14	3	HANDBAG	684	n/a	n/a	0	0	0
474604	WORD	wordpools/wasnorm_wordpool_576.txt	LTP386	ltpFR2	14	3	GIRL	637	n/a	n/a	0	0	0
477079	WORD	wordpools/wasnorm_wordpool_576.txt	LTP386	ltpFR2	14	3	BOX	159	n/a	n/a	0	0	0
479871	WORD	wordpools/wasnorm_wordpool_576.txt	LTP386	ltpFR2	14	3	FEMALE	559	n/a	n/a	0	0	0
482613	WORD	wordpools/wasnorm_wordpool_576.txt	LTP386	ltpFR2	14	3	PIMPLE	1071	n/a	n/a	0	0	0
485255	WORD	wordpools/wasnorm_wordpool_576.txt	LTP386	ltpFR2	14	3	FINGER	567	n/a	n/a	0	0	0
487897	WORD	wordpools/wasnorm_wordpool_576.txt	LTP386	ltpFR2	14	3	PASSAGE	1019	n/a	n/a	0	0	0
490422	WORD	wordpools/wasnorm_wordpool_576.txt	LTP386	ltpFR2	14	3	SCARECROW	1245	n/a	n/a	0	0	0
493030	WORD	wordpools/wasnorm_wordpool_576.txt	LTP386	ltpFR2	14	3	PIGEON	1065	n/a	n/a	0	0	0
494636	START	n/a	LTP386	ltpFR2	14	n/a	n/a	n/a	4	n/a	n/a	n/a	n/a
495651	DISTRACTOR	n/a	LTP386	ltpFR2	14	3	n/a	n/a	n/a	n/a	0	0	0
495656	PROB	n/a	LTP386	ltpFR2	14	n/a	n/a	n/a	4	11	5	2	4
497880	PROB	n/a	LTP386	ltpFR2	14	n/a	n/a	n/a	4	25	8	8	7
499585	PROB	n/a	LTP386	ltpFR2	14	n/a	n/a	n/a	4	16	2	7	7
501006	PROB	n/a	LTP386	ltpFR2	14	n/a	n/a	n/a	4	16	6	9	1
502294	PROB	n/a	LTP386	ltpFR2	14	n/a	n/a	n/a	4	12	7	4	1
503464	PROB	n/a	LTP386	ltpFR2	14	n/a	n/a	n/a	4	17	9	1	7
504518	PROB	n/a	LTP386	ltpFR2	14	n/a	n/a	n/a	4	12	3	8	1
505889	PROB	n/a	LTP386	ltpFR2	14	n/a	n/a	n/a	4	23	8	8	7
508012	PROB	n/a	LTP386	ltpFR2	14	n/a	n/a	n/a	4	21	5	8	8
510002	PROB	n/a	LTP386	ltpFR2	14	n/a	n/a	n/a	4	17	7	5	5
511107	PROB	n/a	LTP386	ltpFR2	14	n/a	n/a	n/a	4	18	4	8	6
512209	PROB	n/a	LTP386	ltpFR2	14	n/a	n/a	n/a	4	6	1	1	4
513246	PROB	n/a	LTP386	ltpFR2	14	n/a	n/a	n/a	4	7	2	3	1
514533	PROB	n/a	LTP386	ltpFR2	14	n/a	n/a	n/a	4	23	6	8	9
516824	PROB	n/a	LTP386	ltpFR2	14	n/a	n/a	n/a	4	14	6	7	1
518624	STOP	n/a	LTP386	ltpFR2	14	n/a	n/a	n/a	4	n/a	n/a	n/a	n/a
520553	REC_START	n/a	LTP386	ltpFR2	14	3	n/a	n/a	n/a	n/a	0	0	0
521575	REC_WORD	wordpools/wasnorm_wordpool_576.txt	LTP386	ltpFR2	14	3	SHELTER	1282	n/a	n/a	0	0	0
522441	REC_WORD	wordpools/wasnorm_wordpool_576.txt	LTP386	ltpFR2	14	3	COTTAGE	384	n/a	n/a	0	0	0
523342	REC_WORD	wordpools/wasnorm_wordpool_576.txt	LTP386	ltpFR2	14	3	MILDEW	893	n/a	n/a	0	0	0
524289	REC_WORD	wordpools/wasnorm_wordpool_576.txt	LTP386	ltpFR2	14	3	OX	994	n/a	n/a	0	0	0
525191	REC_WORD	wordpools/wasnorm_wordpool_576.txt	LTP386	ltpFR2	14	3	LAVA	804	n/a	n/a	0	0	0
526097	REC_WORD	wordpools/wasnorm_wordpool_576.txt	LTP386	ltpFR2	14	3	MAILMAN	858	n/a	n/a	0	0	0
528393	REC_WORD	wordpools/wasnorm_wordpool_576.txt	LTP386	ltpFR2	14	3	GIRL	637	n/a	n/a	0	0	0
529102	REC_WORD	wordpools/wasnorm_wordpool_576.txt	LTP386	ltpFR2	14	3	FEMALE	559	n/a	n/a	0	0	0
531104	REC_WORD	wordpools/wasnorm_wordpool_576.txt	LTP386	ltpFR2	14	3	BUREAU	199	n/a	n/a	0	0	0
532112	REC_WORD	wordpools/wasnorm_wordpool_576.txt	LTP386	ltpFR2	14	3	PEPPER	1047	n/a	n/a	0	0	0
611013	WORD	wordpools/wasnorm_wordpool_576.txt	LTP386	ltpFR2	14	4	CLAM	315	n/a	n/a	0	0	0
613822	WORD	wordpools/wasnorm_wordpool_576.txt	LTP386	ltpFR2	14	4	POCKET	1093	n/a	n/a	0	0	0
616363	WORD	wordpools/wasnorm_wordpool_576.txt	LTP386	ltpFR2	14	4	BOYFRIEND	162	n/a	n/a	0	0	0
618788	WORD	wordpools/wasnorm_wordpool_576.txt	LTP386	ltpFR2	14	4	TUNNEL	1519	n/a	n/a	0	0	0
621279	WORD	wordpools/wasnorm_wordpool_576.txt	LTP386	ltpFR2	14	4	CRAB	397	n/a	n/a	0	0	0
623787	WORD	wordpools/wasnorm_wordpool_576.txt	LTP386	ltpFR2	14	4	HATCHET	691	n/a	n/a	0	0	0
626312	WORD	wordpools/wasnorm_wordpool_576.txt	LTP386	ltpFR2	14	4	TWISTER	1530	n/a	n/a	0	0	0
629089	WORD	wordpools/wasnorm_wordpool_576.txt	LTP386	ltpFR2	14	4	WRIST	1626	n/a	n/a	0	0	0
631880	WORD	wordpools/wasnorm_wordpool_576.txt	LTP386	ltpFR2	14	4	WIFE	1609	n/a	n/a	0	0	0
634472	WORD	wordpools/wasnorm_wordpool_576.txt	LTP386	ltpFR2	14	4	STAKE	1368	n/a	n/a	0	0	0
637014	WORD	wordpools/wasnorm_wordpool_576.txt	LTP386	ltpFR2	14	4	DINER	467	n/a	n/a	0	0	0
639739	WORD	wordpools/wasnorm_wordpool_576.txt	LTP386	ltpFR2	14	4	PADDLE	1000	n/a	n/a	0	0	0
642314	WORD	wordpools/wasnorm_wordpool_576.txt	LTP386	ltpFR2	14	4	VIKING	1565	n/a	n/a	0	0	0
644989	WORD	wordpools/wasnorm_wordpool_576.txt	LTP386	ltpFR2	14	4	PUPPY	1144	n/a	n/a	0	0	0
647447	WORD	wordpools/wasnorm_wordpool_576.txt	LTP386	ltpFR2	14	4	GHETTO	633	n/a	n/a	0	0	0
649972	WORD	wordpools/wasnorm_wordpool_576.txt	LTP386	ltpFR2	14	4	CATTLE	261	n/a	n/a	0	0	0
652497	WORD	wordpools/wasnorm_wordpool_576.txt	LTP386	ltpFR2	14	4	STOMACH	1384	n/a	n/a	0	0	0
655005	WORD	wordpools/wasnorm_wordpool_576.txt	LTP386	ltpFR2	14	4	GAZELLE	628	n/a	n/a	0	0	0
657714	WORD	wordpools/wasnorm_wordpool_576.txt	LTP386	ltpFR2	14	4	WOMAN	1620	n/a	n/a	0	0	0
660189	WORD	wordpools/wasnorm_wordpool_576.txt	LTP386	ltpFR2	14	4	BREAST	171	n/a	n/a	0	0	0
662981	WORD	wordpools/wasnorm_wordpool_576.txt	LTP386	ltpFR2	14	4	BELLY	119	n/a	n/a	0	0	0
665456	WORD	wordpools/wasnorm_wordpool_576.txt	LTP386	ltpFR2	14	4	FLOWER	584	n/a	n/a	0	0	0
667980	WORD	wordpools/wasnorm_wordpool_576.txt	LTP386	ltpFR2	14	4	RECEIPT	1173	n/a	n/a	0	0	0
670639	WORD	wordpools/wasnorm_wordpool_576.txt	LTP386	ltpFR2	14	4	HIKER	708	n/a	n/a	0	0	0
672245	START	n/a	LTP386	ltpFR2	14	n/a	n/a	n/a	5	n/a	n/a	n/a	n/a
673354	DISTRACTOR	n/a	LTP386	ltpFR2	14	4	n/a	n/a	n/a	n/a	0	0	0
673365	PROB	n/a	LTP386	ltpFR2	14	n/a	n/a	n/a	5	16	5	6	5
674803	PROB	n/a	LTP386	ltpFR2	14	n/a	n/a	n/a	5	15	4	6	5
676091	PROB	n/a	LTP386	ltpFR2	14	n/a	n/a	n/a	5	19	8	9	2
677913	PROB	n/a	LTP386	ltpFR2	14	n/a	n/a	n/a	5	13	3	1	9
679101	PROB	n/a	LTP386	ltpFR2	14	n/a	n/a	n/a	5	20	9	7	4
680220	PROB	n/a	LTP386	ltpFR2	14	n/a	n/a	n/a	5	14	5	8	1
681575	PROB	n/a	LTP386	ltpFR2	14	n/a	n/a	n/a	5	15	5	7	3
682829	PROB	n/a	LTP386	ltpFR2	14	n/a	n/a	n/a	5	1	8	9	7
684317	PROB	n/a	LTP386	ltpFR2	14	n/a	n/a	n/a	5	17	3	6	8
686507	PROB	n/a	LTP386	ltpFR2	14	n/a	n/a	n/a	5	16	6	6	4
688447	PROB	n/a	LTP386	ltpFR2	14	n/a	n/a	n/a	5	15	8	3	4
689617	PROB	n/a	LTP386	ltpFR2	14	n/a	n/a	n/a	5	15	6	1	8
690988	PROB	n/a	LTP386	ltpFR2	14	n/a	n/a	n/a	5	12	2	2	8
692126	PROB	n/a	LTP386	ltpFR2	14	n/a	n/a	n/a	5	15	4	8	3
693764	PROB	n/a	LTP386	ltpFR2	14	n/a	n/a	n/a	5	12	5	2	5
694700	PROB	n/a	LTP386	ltpFR2	14	n/a	n/a	n/a	5	1	7	9	6
695622	STOP	n/a	LTP386	ltpFR2	14	n/a	n/a	n/a	5	n/a	n/a	n/a	n/a
698180	REC_START	n/a	LTP386	ltpFR2	14	4	n/a	n/a	n/a	n/a	0	0	0
699984	REC_WORD	wordpools/wasnorm_wordpool_576.txt	LTP386	ltpFR2	14	4	WIFE	1609	n/a	n/a	0	0	0
700573	REC_WORD	wordpools/wasnorm_wordpool_576.txt	LTP386	ltpFR2	14	4	FEMALE	559	n/a	n/a	0	0	0
701620	REC_WORD	wordpools/wasnorm_wordpool_576.txt	LTP386	ltpFR2	14	4	BREAST	171	n/a	n/a	0	0	0
702561	REC_WORD	wordpools/wasnorm_wordpool_576.txt	LTP386	ltpFR2	14	4	HUSBAND	728	n/a	n/a	0	0	0
703215	REC_WORD_VV	wordpools/wasnorm_wordpool_576.txt	LTP386	ltpFR2	14	4	<>	-1	n/a	n/a	0	0	0
704136	REC_WORD	wordpools/wasnorm_wordpool_576.txt	LTP386	ltpFR2	14	4	BOYFRIEND	162	n/a	n/a	0	0	0
709618	REC_WORD	wordpools/wasnorm_wordpool_576.txt	LTP386	ltpFR2	14	4	CLAM	315	n/a	n/a	0	0	0
713273	REC_WORD	wordpools/wasnorm_wordpool_576.txt	LTP386	ltpFR2	14	4	TUNNEL	1519	n/a	n/a	0	0	0
714669	REC_WORD	wordpools/wasnorm_wordpool_576.txt	LTP386	ltpFR2	14	4	HATCHET	691	n/a	n/a	0	0	0
715850	REC_WORD	wordpools/wasnorm_wordpool_576.txt	LTP386	ltpFR2	14	4	WRIST	1626	n/a	n/a	0	0	0
716677	REC_WORD	wordpools/wasnorm_wordpool_576.txt	LTP386	ltpFR2	14	4	STOMACH	1384	n/a	n/a	0	0	0
718103	REC_WORD	wordpools/wasnorm_wordpool_576.txt	LTP386	ltpFR2	14	4	BELLY	119	n/a	n/a	0	0	0
726134	REC_WORD	wordpools/wasnorm_wordpool_576.txt	LTP386	ltpFR2	14	4	VIKING	1565	n/a	n/a	0	0	0
788621	DISTRACTOR	n/a	LTP386	ltpFR2	14	5	n/a	n/a	n/a	n/a	0	0	0
788621	START	n/a	LTP386	ltpFR2	14	n/a	n/a	n/a	6	n/a	n/a	n/a	n/a
788638	PROB	n/a	LTP386	ltpFR2	14	n/a	n/a	n/a	6	20	8	4	8
790929	PROB	n/a	LTP386	ltpFR2	14	n/a	n/a	n/a	6	21	8	5	8
792835	PROB	n/a	LTP386	ltpFR2	14	n/a	n/a	n/a	6	5	2	2	1
793922	PROB	n/a	LTP386	ltpFR2	14	n/a	n/a	n/a	6	17	9	6	2
795259	PROB	n/a	LTP386	ltpFR2	14	n/a	n/a	n/a	6	10	5	1	4
796296	PROB	n/a	LTP386	ltpFR2	14	n/a	n/a	n/a	6	14	2	9	3
797567	PROB	n/a	LTP386	ltpFR2	14	n/a	n/a	n/a	6	11	2	2	7
798637	PROB	n/a	LTP386	ltpFR2	14	n/a	n/a	n/a	6	7	1	5	1
799724	PROB	n/a	LTP386	ltpFR2	14	n/a	n/a	n/a	6	14	5	7	2
801948	PROB	n/a	LTP386	ltpFR2	14	n/a	n/a	n/a	6	20	5	7	8
803469	PROB	n/a	LTP386	ltpFR2	14	n/a	n/a	n/a	6	13	7	4	2
804941	PROB	n/a	LTP386	ltpFR2	14	n/a	n/a	n/a	6	9	5	1	3
806295	PROB	n/a	LTP386	ltpFR2	14	n/a	n/a	n/a	6	20	7	4	9
807415	PROB	n/a	LTP386	ltpFR2	14	n/a	n/a	n/a	6	15	2	7	6
808987	PROB	n/a	LTP386	ltpFR2	14	n/a	n/a	n/a	6	22	6	9	9
810743	PROB	n/a	LTP386	ltpFR2	14	n/a	n/a	n/a	6	10	6	1	3
811961	STOP	n/a	LTP386	ltpFR2	14	n/a	n/a	n/a	6	n/a	n/a	n/a	n/a
813736	WORD	wordpools/wasnorm_wordpool_576.txt	LTP386	ltpFR2	14	5	APPLE	33	n/a	n/a	0	0	0
816211	WORD	wordpools/wasnorm_wordpool_576.txt	LTP386	ltpFR2	14	5	PAPER	1011	n/a	n/a	0	0	0
818752	WORD	wordpools/wasnorm_wordpool_576.txt	LTP386	ltpFR2	14	5	BASEMENT	94	n/a	n/a	0	0	0
821444	WORD	wordpools/wasnorm_wordpool_576.txt	LTP386	ltpFR2	14	5	CELLAR	267	n/a	n/a	0	0	0
824104	WORD	wordpools/wasnorm_wordpool_576.txt	LTP386	ltpFR2	14	5	PEACH	1031	n/a	n/a	0	0	0
826878	WORD	wordpools/wasnorm_wordpool_576.txt	LTP386	ltpFR2	14	5	VICTIM	1562	n/a	n/a	0	0	0
829671	WORD	wordpools/wasnorm_wordpool_576.txt	LTP386	ltpFR2	14	5	DENTIST	447	n/a	n/a	0	0	0
832430	WORD	wordpools/wasnorm_wordpool_576.txt	LTP386	ltpFR2	14	5	BRACES	164	n/a	n/a	0	0	0
834921	WORD	wordpools/wasnorm_wordpool_576.txt	LTP386	ltpFR2	14	5	SADDLE	1221	n/a	n/a	0	0	0
837546	WORD	wordpools/wasnorm_wordpool_576.txt	LTP386	ltpFR2	14	5	LEOPARD	812	n/a	n/a	0	0	0
840004	WORD	wordpools/wasnorm_wordpool_576.txt	LTP386	ltpFR2	14	5	GRIZZLY	662	n/a	n/a	0	0	0
842613	WORD	wordpools/wasnorm_wordpool_576.txt	LTP386	ltpFR2	14	5	SANDWICH	1232	n/a	n/a	0	0	0
845355	WORD	wordpools/wasnorm_wordpool_576.txt	LTP386	ltpFR2	14	5	SNAKE	1333	n/a	n/a	0	0	0
847963	WORD	wordpools/wasnorm_wordpool_576.txt	LTP386	ltpFR2	14	5	THIEF	1456	n/a	n/a	0	0	0
850756	WORD	wordpools/wasnorm_wordpool_576.txt	LTP386	ltpFR2	14	5	SPHINX	1349	n/a	n/a	0	0	0
853515	WORD	wordpools/wasnorm_wordpool_576.txt	LTP386	ltpFR2	14	5	BLOUSE	139	n/a	n/a	0	0	0
856240	WORD	wordpools/wasnorm_wordpool_576.txt	LTP386	ltpFR2	14	5	ROCKET	1202	n/a	n/a	0	0	0
858932	WORD	wordpools/wasnorm_wordpool_576.txt	LTP386	ltpFR2	14	5	GRILL	661	n/a	n/a	0	0	0
861574	WORD	wordpools/wasnorm_wordpool_576.txt	LTP386	ltpFR2	14	5	PLATE	1086	n/a	n/a	0	0	0
864216	WORD	wordpools/wasnorm_wordpool_576.txt	LTP386	ltpFR2	14	5	CHIPMUNK	304	n/a	n/a	0	0	0
866858	WORD	wordpools/wasnorm_wordpool_576.txt	LTP386	ltpFR2	14	5	FOREST	593	n/a	n/a	0	0	0
869634	WORD	wordpools/wasnorm_wordpool_576.txt	LTP386	ltpFR2	14	5	GARDEN	623	n/a	n/a	0	0	0
872376	WORD	wordpools/wasnorm_wordpool_576.txt	LTP386	ltpFR2	14	5	FLASHLIGHT	575	n/a	n/a	0	0	0
874934	WORD	wordpools/wasnorm_wordpool_576.txt	LTP386	ltpFR2	14	5	STAPLE	1371	n/a	n/a	0	0	0
876540	START	n/a	LTP386	ltpFR2	14	n/a	n/a	n/a	7	n/a	n/a	n/a	n/a
877477	DISTRACTOR	n/a	LTP386	ltpFR2	14	5	n/a	n/a	n/a	n/a	0	0	0
877492	PROB	n/a	LTP386	ltpFR2	14	n/a	n/a	n/a	7	11	1	7	3
878730	PROB	n/a	LTP386	ltpFR2	14	n/a	n/a	n/a	7	23	9	7	7
880218	PROB	n/a	LTP386	ltpFR2	14	n/a	n/a	n/a	7	24	8	7	9
881856	PROB	n/a	LTP386	ltpFR2	14	n/a	n/a	n/a	7	16	4	3	9
883112	PROB	n/a	LTP386	ltpFR2	14	n/a	n/a	n/a	7	11	2	5	4
884264	PROB	n/a	LTP386	ltpFR2	14	n/a	n/a	n/a	7	23	8	6	9
885987	PROB	n/a	LTP386	ltpFR2	14	n/a	n/a	n/a	7	9	4	4	1
887007	PROB	n/a	LTP386	ltpFR2	14	n/a	n/a	n/a	7	19	6	5	8
888511	PROB	n/a	LTP386	ltpFR2	14	n/a	n/a	n/a	7	11	5	3	3
889598	PROB	n/a	LTP386	ltpFR2	14	n/a	n/a	n/a	7	13	7	5	1
891138	PROB	n/a	LTP386	ltpFR2	14	n/a	n/a	n/a	7	20	9	8	3
893528	PROB	n/a	LTP386	ltpFR2	14	n/a	n/a	n/a	7	21	9	8	4
894815	PROB	n/a	LTP386	ltpFR2	14	n/a	n/a	n/a	7	22	8	7	7
896337	PROB	n/a	LTP386	ltpFR2	14	n/a	n/a	n/a	7	13	2	4	7
897791	PROB	n/a	LTP386	ltpFR2	14	n/a	n/a	n/a	7	9	3	2	4
900117	STOP	n/a	LTP386	ltpFR2	14	n/a	n/a	n/a	7	n/a	n/a	n/a	n/a
902357	REC_START	n/a	LTP386	ltpFR2	14	5	n/a	n/a	n/a	n/a	0	0	0
905050	REC_WORD	wordpools/wasnorm_wordpool_576.txt	LTP386	ltpFR2	14	5	FOREST	593	n/a	n/a	0	0	0
905816	REC_WORD	wordpools/wasnorm_wordpool_576.txt	LTP386	ltpFR2	14	5	SNAKE	1333	n/a	n/a	0	0	0
906750	REC_WORD	wordpools/wasnorm_wordpool_576.txt	LTP386	ltpFR2	14	5	CHIPMUNK	304	n/a	n/a	0	0	0
907467	REC_WORD	wordpools/wasnorm_wordpool_576.txt	LTP386	ltpFR2	14	5	FLASHLIGHT	575	n/a	n/a	0	0	0
908718	REC_WORD	wordpools/wasnorm_wordpool_576.txt	LTP386	ltpFR2	14	5	APPLE	33	n/a	n/a	0	0	0
909518	REC_WORD	wordpools/wasnorm_wordpool_576.txt	LTP386	ltpFR2	14	5	BLOUSE	139	n/a	n/a	0	0	0
910376	REC_WORD	wordpools/wasnorm_wordpool_576.txt	LTP386	ltpFR2	14	5	PEACH	1031	n/a	n/a	0	0	0
911822	REC_WORD	wordpools/wasnorm_wordpool_576.txt	LTP386	ltpFR2	14	5	GRILL	661	n/a	n/a	0	0	0
912740	REC_WORD	wordpools/wasnorm_wordpool_576.txt	LTP386	ltpFR2	14	5	GARDEN	623	n/a	n/a	0	0	0
992799	DISTRACTOR	n/a	LTP386	ltpFR2	14	6	n/a	n/a	n/a	n/a	0	0	0
992799	START	n/a	LTP386	ltpFR2	14	n/a	n/a	n/a	8	n/a	n/a	n/a	n/a
992816	PROB	n/a	LTP386	ltpFR2	14	n/a	n/a	n/a	8	17	3	9	5
994404	PROB	n/a	LTP386	ltpFR2	14	n/a	n/a	n/a	8	10	1	4	5
995642	PROB	n/a	LTP386	ltpFR2	14	n/a	n/a	n/a	8	9	2	6	1
997498	PROB	n/a	LTP386	ltpFR2	14	n/a	n/a	n/a	8	13	1	4	8
998835	PROB	n/a	LTP386	ltpFR2	14	n/a	n/a	n/a	8	14	3	8	3
1001344	PROB	n/a	LTP386	ltpFR2	14	n/a	n/a	n/a	8	16	8	5	3
1002614	PROB	n/a	LTP386	ltpFR2	14	n/a	n/a	n/a	8	10	6	2	2
1004019	PROB	n/a	LTP386	ltpFR2	14	n/a	n/a	n/a	8	18	9	5	4
1005240	PROB	n/a	LTP386	ltpFR2	14	n/a	n/a	n/a	8	11	1	3	7
1006326	PROB	n/a	LTP386	ltpFR2	14	n/a	n/a	n/a	8	15	1	5	9
1007430	PROB	n/a	LTP386	ltpFR2	14	n/a	n/a	n/a	8	8	2	2	4
1008433	PROB	n/a	LTP386	ltpFR2	14	n/a	n/a	n/a	8	11	5	4	2
1010991	PROB	n/a	LTP386	ltpFR2	14	n/a	n/a	n/a	8	21	8	6	7
1012781	PROB	n/a	LTP386	ltpFR2	14	n/a	n/a	n/a	8	13	1	5	7
1014453	PROB	n/a	LTP386	ltpFR2	14	n/a	n/a	n/a	8	2	3	9	9
1015840	STOP	n/a	LTP386	ltpFR2	14	n/a	n/a	n/a	8	n/a	n/a	n/a	n/a
1017931	WORD	wordpools/wasnorm_wordpool_576.txt	LTP386	ltpFR2	14	6	HORSE	719	n/a	n/a	0	0	0
1020723	WORD	wordpools/wasnorm_wordpool_576.txt	LTP386	ltpFR2	14	6	PRIMATE	1123	n/a	n/a	0	0	0
1023465	WORD	wordpools/wasnorm_wordpool_576.txt	LTP386	ltpFR2	14	6	APRON	35	n/a	n/a	0	0	0
1026108	WORD	wordpools/wasnorm_wordpool_576.txt	LTP386	ltpFR2	14	6	CHAUFFEUR	283	n/a	n/a	0	0	0
1028665	WORD	wordpools/wasnorm_wordpool_576.txt	LTP386	ltpFR2	14	6	SURVEY	1414	n/a	n/a	0	0	0
1031190	WORD	wordpools/wasnorm_wordpool_576.txt	LTP386	ltpFR2	14	6	DRUG	501	n/a	n/a	0	0	0
1033732	WORD	wordpools/wasnorm_wordpool_576.txt	LTP386	ltpFR2	14	6	SIDEWALK	1303	n/a	n/a	0	0	0
1036441	WORD	wordpools/wasnorm_wordpool_576.txt	LTP386	ltpFR2	14	6	GRAVEL	659	n/a	n/a	0	0	0
1039216	WORD	wordpools/wasnorm_wordpool_576.txt	LTP386	ltpFR2	14	6	MAPLE	866	n/a	n/a	0	0	0
1041875	WORD	wordpools/wasnorm_wordpool_576.txt	LTP386	ltpFR2	14	6	SUNSET	1408	n/a	n/a	0	0	0
1044634	WORD	wordpools/wasnorm_wordpool_576.txt	LTP386	ltpFR2	14	6	SUNRISE	1407	n/a	n/a	0	0	0
1047143	WORD	wordpools/wasnorm_wordpool_576.txt	LTP386	ltpFR2	14	6	JOURNAL	760	n/a	n/a	0	0	0
1049617	WORD	wordpools/wasnorm_wordpool_576.txt	LTP386	ltpFR2	14	6	BRAKE	166	n/a	n/a	0	0	0
1052409	WORD	wordpools/wasnorm_wordpool_576.txt	LTP386	ltpFR2	14	6	QUARTER	1148	n/a	n/a	0	0	0
1054884	WORD	wordpools/wasnorm_wordpool_576.txt	LTP386	ltpFR2	14	6	STONE	1385	n/a	n/a	0	0	0
1057509	WORD	wordpools/wasnorm_wordpool_576.txt	LTP386	ltpFR2	14	6	THRONE	1461	n/a	n/a	0	0	0
1059950	WORD	wordpools/wasnorm_wordpool_576.txt	LTP386	ltpFR2	14	6	MARS	873	n/a	n/a	0	0	0
1062575	WORD	wordpools/wasnorm_wordpool_576.txt	LTP386	ltpFR2	14	6	SHERIFF	1284	n/a	n/a	0	0	0
1065368	WORD	wordpools/wasnorm_wordpool_576.txt	LTP386	ltpFR2	14	6	BLOCKADE	137	n/a	n/a	0	0	0
1068043	WORD	wordpools/wasnorm_wordpool_576.txt	LTP386	ltpFR2	14	6	GRAVE	658	n/a	n/a	0	0	0
1070534	WORD	wordpools/wasnorm_wordpool_576.txt	LTP386	ltpFR2	14	6	CORAL	378	n/a	n/a	0	0	0
1072959	WORD	wordpools/wasnorm_wordpool_576.txt	LTP386	ltpFR2	14	6	PALACE	1006	n/a	n/a	0	0	0
1075383	WORD	wordpools/wasnorm_wordpool_576.txt	LTP386	ltpFR2	14	6	CONTRACT	368	n/a	n/a	0	0	0
1078025	WORD	wordpools/wasnorm_wordpool_576.txt	LTP386	ltpFR2	14	6	HORNET	718	n/a	n/a	0	0	0
1079631	START	n/a	LTP386	ltpFR2	14	n/a	n/a	n/a	9	n/a	n/a	n/a	n/a
1080465	DISTRACTOR	n/a	LTP386	ltpFR2	14	6	n/a	n/a	n/a	n/a	0	0	0
1080467	PROB	n/a	LTP386	ltpFR2	14	n/a	n/a	n/a	9	12	2	7	3
1081804	PROB	n/a	LTP386	ltpFR2	14	n/a	n/a	n/a	9	17	1	9	7
1082975	PROB	n/a	LTP386	ltpFR2	14	n/a	n/a	n/a	9	11	4	3	4
1084245	PROB	n/a	LTP386	ltpFR2	14	n/a	n/a	n/a	9	20	2	9	9
1085734	PROB	n/a	LTP386	ltpFR2	14	n/a	n/a	n/a	9	21	6	6	9
1087173	PROB	n/a	LTP386	ltpFR2	14	n/a	n/a	n/a	9	18	4	7	7
1088543	PROB	n/a	LTP386	ltpFR2	14	n/a	n/a	n/a	9	12	2	2	8
1089546	PROB	n/a	LTP386	ltpFR2	14	n/a	n/a	n/a	9	25	8	7	8
1090967	PROB	n/a	LTP386	ltpFR2	14	n/a	n/a	n/a	9	12	3	2	7
1092506	PROB	n/a	LTP386	ltpFR2	14	n/a	n/a	n/a	9	13	6	4	3
1093576	PROB	n/a	LTP386	ltpFR2	14	n/a	n/a	n/a	9	22	7	8	7
1096485	PROB	n/a	LTP386	ltpFR2	14	n/a	n/a	n/a	9	20	9	7	4
1097589	PROB	n/a	LTP386	ltpFR2	14	n/a	n/a	n/a	9	17	2	6	9
1098926	PROB	n/a	LTP386	ltpFR2	14	n/a	n/a	n/a	9	16	6	5	5
1100214	PROB	n/a	LTP386	ltpFR2	14	n/a	n/a	n/a	9	12	4	5	3
1103066	STOP	n/a	LTP386	ltpFR2	14	n/a	n/a	n/a	9	n/a	n/a	n/a	n/a
1105465	REC_START	n/a	LTP386	ltpFR2	14	6	n/a	n/a	n/a	n/a	0	0	0
1106770	REC_WORD	wordpools/wasnorm_wordpool_576.txt	LTP386	ltpFR2	14	6	SIDEWALK	1303	n/a	n/a	0	0	0
1107641	REC_WORD	wordpools/wasnorm_wordpool_576.txt	LTP386	ltpFR2	14	6	GRAVEL	659	n/a	n/a	0	0	0
1108283	REC_WORD	wordpools/wasnorm_wordpool_576.txt	LTP386	ltpFR2	14	6	MAPLE	866	n/a	n/a	0	0	0
1109182	REC_WORD	wordpools/wasnorm_wordpool_576.txt	LTP386	ltpFR2	14	6	JOURNAL	760	n/a	n/a	0	0	0
1109767	REC_WORD	wordpools/wasnorm_wordpool_576.txt	LTP386	ltpFR2	14	6	SUNRISE	1407	n/a	n/a	0	0	0
1110822	REC_WORD	wordpools/wasnorm_wordpool_576.txt	LTP386	ltpFR2	14	6	SUNSET	1408	n/a	n/a	0	0	0
1126034	REC_WORD	wordpools/wasnorm_wordpool_576.txt	LTP386	ltpFR2	14	6	QUARTER	1148	n/a	n/a	0	0	0
1195924	WORD	wordpools/wasnorm_wordpool_576.txt	LTP386	ltpFR2	14	7	BALLOON	75	n/a	n/a	0	0	0
1198583	WORD	wordpools/wasnorm_wordpool_576.txt	LTP386	ltpFR2	14	7	DAISY	435	n/a	n/a	0	0	0
1201358	WORD	wordpools/wasnorm_wordpool_576.txt	LTP386	ltpFR2	14	7	WORLD	1622	n/a	n/a	0	0	0
1203916	WORD	wordpools/wasnorm_wordpool_576.txt	LTP386	ltpFR2	14	7	LAGOON	795	n/a	n/a	0	0	0
1206358	WORD	wordpools/wasnorm_wordpool_576.txt	LTP386	ltpFR2	14	7	GALLON	618	n/a	n/a	0	0	0
1208866	WORD	wordpools/wasnorm_wordpool_576.txt	LTP386	ltpFR2	14	7	LABEL	790	n/a	n/a	0	0	0
1211675	WORD	wordpools/wasnorm_wordpool_576.txt	LTP386	ltpFR2	14	7	IGLOO	734	n/a	n/a	0	0	0
1214267	WORD	wordpools/wasnorm_wordpool_576.txt	LTP386	ltpFR2	14	7	TRUCK	1512	n/a	n/a	0	0	0
1216858	WORD	wordpools/wasnorm_wordpool_576.txt	LTP386	ltpFR2	14	7	HIGHWAY	707	n/a	n/a	0	0	0
1219484	WORD	wordpools/wasnorm_wordpool_576.txt	LTP386	ltpFR2	14	7	GLOBE	641	n/a	n/a	0	0	0
1222276	WORD	wordpools/wasnorm_wordpool_576.txt	LTP386	ltpFR2	14	7	RIVER	1194	n/a	n/a	0	0	0
1224851	WORD	wordpools/wasnorm_wordpool_576.txt	LTP386	ltpFR2	14	7	BACKBONE	66	n/a	n/a	0	0	0
1227376	WORD	wordpools/wasnorm_wordpool_576.txt	LTP386	ltpFR2	14	7	CANDY	230	n/a	n/a	0	0	0
1230034	WORD	wordpools/wasnorm_wordpool_576.txt	LTP386	ltpFR2	14	7	COLLEGE	346	n/a	n/a	0	0	0
1232810	WORD	wordpools/wasnorm_wordpool_576.txt	LTP386	ltpFR2	14	7	STUDENT	1395	n/a	n/a	0	0	0
1235368	WORD	wordpools/wasnorm_wordpool_576.txt	LTP386	ltpFR2	14	7	PECAN	1036	n/a	n/a	0	0	0
1238162	WORD	wordpools/wasnorm_wordpool_576.txt	LTP386	ltpFR2	14	7	LAKE	796	n/a	n/a	0	0	0
1240736	WORD	wordpools/wasnorm_wordpool_576.txt	LTP386	ltpFR2	14	7	STREAM	1392	n/a	n/a	0	0	0
1243528	WORD	wordpools/wasnorm_wordpool_576.txt	LTP386	ltpFR2	14	7	COD	340	n/a	n/a	0	0	0
1246003	WORD	wordpools/wasnorm_wordpool_576.txt	LTP386	ltpFR2	14	7	MOP	916	n/a	n/a	0	0	0
1248477	WORD	wordpools/wasnorm_wordpool_576.txt	LTP386	ltpFR2	14	7	BULLET	194	n/a	n/a	0	0	0
1251120	WORD	wordpools/wasnorm_wordpool_576.txt	LTP386	ltpFR2	14	7	GARBAGE	622	n/a	n/a	0	0	0
1253627	WORD	wordpools/wasnorm_wordpool_576.txt	LTP386	ltpFR2	14	7	SODA	1341	n/a	n/a	0	0	0
1256286	WORD	wordpools/wasnorm_wordpool_576.txt	LTP386	ltpFR2	14	7	FRANCE	601	n/a	n/a	0	0	0
1257892	START	n/a	LTP386	ltpFR2	14	n/a	n/a	n/a	10	n/a	n/a	n/a	n/a
1258889	DISTRACTOR	n/a	LTP386	ltpFR2	14	7	n/a	n/a	n/a	n/a	0	0	0
1258894	PROB	n/a	LTP386	ltpFR2	14	n/a	n/a	n/a	10	24	8	9	7
1261938	PROB	n/a	LTP386	ltpFR2	14	n/a	n/a	n/a	10	17	6	8	3
1263627	PROB	n/a	LTP386	ltpFR2	14	n/a	n/a	n/a	10	10	6	3	1
1264847	PROB	n/a	LTP386	ltpFR2	14	n/a	n/a	n/a	10	24	9	8	7
1266252	PROB	n/a	LTP386	ltpFR2	14	n/a	n/a	n/a	10	13	3	7	3
1267272	PROB	n/a	LTP386	ltpFR2	14	n/a	n/a	n/a	10	18	9	7	2
1268476	PROB	n/a	LTP386	ltpFR2	14	n/a	n/a	n/a	10	11	9	1	1
1269429	PROB	n/a	LTP386	ltpFR2	14	n/a	n/a	n/a	10	12	5	4	3
1271653	PROB	n/a	LTP386	ltpFR2	14	n/a	n/a	n/a	10	16	4	9	3
1273175	PROB	n/a	LTP386	ltpFR2	14	n/a	n/a	n/a	10	11	6	2	3
1274646	PROB	n/a	LTP386	ltpFR2	14	n/a	n/a	n/a	10	12	4	1	7
1275766	PROB	n/a	LTP386	ltpFR2	14	n/a	n/a	n/a	10	14	7	6	1
1277070	PROB	n/a	LTP386	ltpFR2	14	n/a	n/a	n/a	10	20	6	7	7
1278976	PROB	n/a	LTP386	ltpFR2	14	n/a	n/a	n/a	10	13	3	7	3
1280030	PROB	n/a	LTP386	ltpFR2	14	n/a	n/a	n/a	10	8	5	1	2
1281137	STOP	n/a	LTP386	ltpFR2	14	n/a	n/a	n/a	10	n/a	n/a	n/a	n/a
1283625	REC_START	n/a	LTP386	ltpFR2	14	7	n/a	n/a	n/a	n/a	0	0	0
1284222	REC_WORD	wordpools/wasnorm_wordpool_576.txt	LTP386	ltpFR2	14	7	FRANCE	601	n/a	n/a	0	0	0
1289112	REC_WORD	wordpools/wasnorm_wordpool_576.txt	LTP386	ltpFR2	14	7	LAGOON	795	n/a	n/a	0	0	0
1290201	REC_WORD	wordpools/wasnorm_wordpool_576.txt	LTP386	ltpFR2	14	7	RIVER	1194	n/a	n/a	0	0	0
1290906	REC_WORD	wordpools/wasnorm_wordpool_576.txt	LTP386	ltpFR2	14	7	COD	340	n/a	n/a	0	0	0
1291631	REC_WORD	wordpools/wasnorm_wordpool_576.txt	LTP386	ltpFR2	14	7	STREAM	1392	n/a	n/a	0	0	0
1292871	REC_WORD	wordpools/wasnorm_wordpool_576.txt	LTP386	ltpFR2	14	7	LAKE	796	n/a	n/a	0	0	0
1294238	REC_WORD	wordpools/wasnorm_wordpool_576.txt	LTP386	ltpFR2	14	7	WORLD	1622	n/a	n/a	0	0	0
1295246	REC_WORD	wordpools/wasnorm_wordpool_576.txt	LTP386	ltpFR2	14	7	GLOBE	641	n/a	n/a	0	0	0
1296080	REC_WORD	wordpools/wasnorm_wordpool_576.txt	LTP386	ltpFR2	14	7	COLLEGE	346	n/a	n/a	0	0	0
1297062	REC_WORD	wordpools/wasnorm_wordpool_576.txt	LTP386	ltpFR2	14	7	STUDENT	1395	n/a	n/a	0	0	0
1298377	REC_WORD	wordpools/wasnorm_wordpool_576.txt	LTP386	ltpFR2	14	7	BALLOON	75	n/a	n/a	0	0	0
1299493	REC_WORD	wordpools/wasnorm_wordpool_576.txt	LTP386	ltpFR2	14	7	DAISY	435	n/a	n/a	0	0	0
1304401	REC_WORD	wordpools/wasnorm_wordpool_576.txt	LTP386	ltpFR2	14	7	BULLET	194	n/a	n/a	0	0	0
1374084	WORD	wordpools/wasnorm_wordpool_576.txt	LTP386	ltpFR2	14	8	PLASTER	1085	n/a	n/a	0	0	0
1376760	WORD	wordpools/wasnorm_wordpool_576.txt	LTP386	ltpFR2	14	8	HOUND	724	n/a	n/a	0	0	0
1379301	WORD	wordpools/wasnorm_wordpool_576.txt	LTP386	ltpFR2	14	8	MONEY	908	n/a	n/a	0	0	0
1382060	WORD	wordpools/wasnorm_wordpool_576.txt	LTP386	ltpFR2	14	8	SILK	1307	n/a	n/a	0	0	0
1384669	WORD	wordpools/wasnorm_wordpool_576.txt	LTP386	ltpFR2	14	8	BLADE	134	n/a	n/a	0	0	0
1387428	WORD	wordpools/wasnorm_wordpool_576.txt	LTP386	ltpFR2	14	8	DRILL	497	n/a	n/a	0	0	0
1390187	WORD	wordpools/wasnorm_wordpool_576.txt	LTP386	ltpFR2	14	8	MOTEL	919	n/a	n/a	0	0	0
1392895	WORD	wordpools/wasnorm_wordpool_576.txt	LTP386	ltpFR2	14	8	DORM	488	n/a	n/a	0	0	0
1395587	WORD	wordpools/wasnorm_wordpool_576.txt	LTP386	ltpFR2	14	8	BOARD	143	n/a	n/a	0	0	0
1398229	WORD	wordpools/wasnorm_wordpool_576.txt	LTP386	ltpFR2	14	8	SUBWAY	1400	n/a	n/a	0	0	0
1400971	WORD	wordpools/wasnorm_wordpool_576.txt	LTP386	ltpFR2	14	8	COFFEE	341	n/a	n/a	0	0	0
1403563	WORD	wordpools/wasnorm_wordpool_576.txt	LTP386	ltpFR2	14	8	SWORD	1423	n/a	n/a	0	0	0
1406055	WORD	wordpools/wasnorm_wordpool_576.txt	LTP386	ltpFR2	14	8	SLIME	1327	n/a	n/a	0	0	0
1408479	WORD	wordpools/wasnorm_wordpool_576.txt	LTP386	ltpFR2	14	8	GYMNAST	675	n/a	n/a	0	0	0
1411004	WORD	wordpools/wasnorm_wordpool_576.txt	LTP386	ltpFR2	14	8	BLENDER	136	n/a	n/a	0	0	0
1413646	WORD	wordpools/wasnorm_wordpool_576.txt	LTP386	ltpFR2	14	8	FOOT	590	n/a	n/a	0	0	0
1416271	WORD	wordpools/wasnorm_wordpool_576.txt	LTP386	ltpFR2	14	8	CYCLONE	431	n/a	n/a	0	0	0
1418696	WORD	wordpools/wasnorm_wordpool_576.txt	LTP386	ltpFR2	14	8	PUDDLE	1140	n/a	n/a	0	0	0
1421404	WORD	wordpools/wasnorm_wordpool_576.txt	LTP386	ltpFR2	14	8	ITEM	746	n/a	n/a	0	0	0
1424046	WORD	wordpools/wasnorm_wordpool_576.txt	LTP386	ltpFR2	14	8	EYELASH	546	n/a	n/a	0	0	0
1426839	WORD	wordpools/wasnorm_wordpool_576.txt	LTP386	ltpFR2	14	8	BEAKER	104	n/a	n/a	0	0	0
1429564	WORD	wordpools/wasnorm_wordpool_576.txt	LTP386	ltpFR2	14	8	CHEMIST	292	n/a	n/a	0	0	0
1431989	WORD	wordpools/wasnorm_wordpool_576.txt	LTP386	ltpFR2	14	8	CROWN	415	n/a	n/a	0	0	0
1434714	WORD	wordpools/wasnorm_wordpool_576.txt	LTP386	ltpFR2	14	8	FRECKLE	602	n/a	n/a	0	0	0
1436320	START	n/a	LTP386	ltpFR2	14	n/a	n/a	n/a	11	n/a	n/a	n/a	n/a
1437401	DISTRACTOR	n/a	LTP386	ltpFR2	14	8	n/a	n/a	n/a	n/a	0	0	0
1437406	PROB	n/a	LTP386	ltpFR2	14	n/a	n/a	n/a	11	17	3	5	9
1438928	PROB	n/a	LTP386	ltpFR2	14	n/a	n/a	n/a	11	13	2	5	6
1440249	PROB	n/a	LTP386	ltpFR2	14	n/a	n/a	n/a	11	8	3	2	3
1441402	PROB	n/a	LTP386	ltpFR2	14	n/a	n/a	n/a	11	18	5	5	8
1442406	PROB	n/a	LTP386	ltpFR2	14	n/a	n/a	n/a	11	15	5	2	8
1444512	PROB	n/a	LTP386	ltpFR2	14	n/a	n/a	n/a	11	21	9	9	3
1447021	PROB	n/a	LTP386	ltpFR2	14	n/a	n/a	n/a	11	14	9	4	1
1448275	PROB	n/a	LTP386	ltpFR2	14	n/a	n/a	n/a	11	16	8	3	5
1449529	PROB	n/a	LTP386	ltpFR2	14	n/a	n/a	n/a	11	2	9	8	5
1451502	PROB	n/a	LTP386	ltpFR2	14	n/a	n/a	n/a	11	16	7	5	4
1453325	PROB	n/a	LTP386	ltpFR2	14	n/a	n/a	n/a	11	17	2	8	7
1454612	PROB	n/a	LTP386	ltpFR2	14	n/a	n/a	n/a	11	24	6	8	8
1456151	PROB	n/a	LTP386	ltpFR2	14	n/a	n/a	n/a	11	21	9	9	3
1457404	PROB	n/a	LTP386	ltpFR2	14	n/a	n/a	n/a	11	16	7	3	6
1460320	STOP	n/a	LTP386	ltpFR2	14	n/a	n/a	n/a	11	n/a	n/a	n/a	n/a
1462155	REC_START	n/a	LTP386	ltpFR2	14	8	n/a	n/a	n/a	n/a	0	0	0
1462823	REC_WORD	wordpools/wasnorm_wordpool_576.txt	LTP386	ltpFR2	14	8	FOOT	590	n/a	n/a	0	0	0
1464471	REC_WORD	wordpools/wasnorm_wordpool_576.txt	LTP386	ltpFR2	14	8	DORM	488	n/a	n/a	0	0	0
1465240	REC_WORD	wordpools/wasnorm_wordpool_576.txt	LTP386	ltpFR2	14	8	MOTEL	919	n/a	n/a	0	0	0
1466259	REC_WORD	wordpools/wasnorm_wordpool_576.txt	LTP386	ltpFR2	14	8	CYCLONE	431	n/a	n/a	0	0	0
1468210	REC_WORD	wordpools/wasnorm_wordpool_576.txt	LTP386	ltpFR2	14	8	PUDDLE	1140	n/a	n/a	0	0	0
1470540	REC_WORD	wordpools/wasnorm_wordpool_576.txt	LTP386	ltpFR2	14	8	BLADE	134	n/a	n/a	0	0	0
1471533	REC_WORD	wordpools/wasnorm_wordpool_576.txt	LTP386	ltpFR2	14	8	GYMNAST	675	n/a	n/a	0	0	0
1476645	REC_WORD	wordpools/wasnorm_wordpool_576.txt	LTP386	ltpFR2	14	8	BLENDER	136	n/a	n/a	0	0	0
1478726	REC_WORD	wordpools/wasnorm_wordpool_576.txt	LTP386	ltpFR2	14	8	SUBWAY	1400	n/a	n/a	0	0	0
1538684	REST_REWET	n/a	LTP386	ltpFR2	14	8	n/a	n/a	n/a	n/a	0	0	0
1765486	WORD	wordpools/wasnorm_wordpool_576.txt	LTP386	ltpFR2	14	9	SKIRT	1319	n/a	n/a	0	0	0
1768261	WORD	wordpools/wasnorm_wordpool_576.txt	LTP386	ltpFR2	14	9	DIVER	476	n/a	n/a	0	0	0
1770886	WORD	wordpools/wasnorm_wordpool_576.txt	LTP386	ltpFR2	14	9	BEAST	108	n/a	n/a	0	0	0
1773628	WORD	wordpools/wasnorm_wordpool_576.txt	LTP386	ltpFR2	14	9	PANTHER	1009	n/a	n/a	0	0	0
1776438	WORD	wordpools/wasnorm_wordpool_576.txt	LTP386	ltpFR2	14	9	POISON	1096	n/a	n/a	0	0	0
1778946	WORD	wordpools/wasnorm_wordpool_576.txt	LTP386	ltpFR2	14	9	PIGMENT	1066	n/a	n/a	0	0	0
1781404	WORD	wordpools/wasnorm_wordpool_576.txt	LTP386	ltpFR2	14	9	SALMON	1227	n/a	n/a	0	0	0
1783962	WORD	wordpools/wasnorm_wordpool_576.txt	LTP386	ltpFR2	14	9	TUTU	1524	n/a	n/a	0	0	0
1786671	WORD	wordpools/wasnorm_wordpool_576.txt	LTP386	ltpFR2	14	9	DANCER	437	n/a	n/a	0	0	0
1789263	WORD	wordpools/wasnorm_wordpool_576.txt	LTP386	ltpFR2	14	9	FLESH	579	n/a	n/a	0	0	0
1791687	WORD	wordpools/wasnorm_wordpool_576.txt	LTP386	ltpFR2	14	9	SHRUB	1299	n/a	n/a	0	0	0
1794479	WORD	wordpools/wasnorm_wordpool_576.txt	LTP386	ltpFR2	14	9	CAMEL	223	n/a	n/a	0	0	0
1797188	WORD	wordpools/wasnorm_wordpool_576.txt	LTP386	ltpFR2	14	9	ICING	732	n/a	n/a	0	0	0
1799629	WORD	wordpools/wasnorm_wordpool_576.txt	LTP386	ltpFR2	14	9	WIDOW	1608	n/a	n/a	0	0	0
1802105	WORD	wordpools/wasnorm_wordpool_576.txt	LTP386	ltpFR2	14	9	BIKE	125	n/a	n/a	0	0	0
1804595	WORD	wordpools/wasnorm_wordpool_576.txt	LTP386	ltpFR2	14	9	CANYON	235	n/a	n/a	0	0	0
1807288	WORD	wordpools/wasnorm_wordpool_576.txt	LTP386	ltpFR2	14	9	COCOON	339	n/a	n/a	0	0	0
1810013	WORD	wordpools/wasnorm_wordpool_576.txt	LTP386	ltpFR2	14	9	PICNIC	1060	n/a	n/a	0	0	0
1812588	WORD	wordpools/wasnorm_wordpool_576.txt	LTP386	ltpFR2	14	9	SPARROW	1347	n/a	n/a	0	0	0
1815347	WORD	wordpools/wasnorm_wordpool_576.txt	LTP386	ltpFR2	14	9	JUNGLE	764	n/a	n/a	0	0	0
1817922	WORD	wordpools/wasnorm_wordpool_576.txt	LTP386	ltpFR2	14	9	BANK	83	n/a	n/a	0	0	0
1820614	WORD	wordpools/wasnorm_wordpool_576.txt	LTP386	ltpFR2	14	9	SCALLOP	1242	n/a	n/a	0	0	0
1823157	WORD	wordpools/wasnorm_wordpool_576.txt	LTP386	ltpFR2	14	9	PUPIL	1143	n/a	n/a	0	0	0
1825630	WORD	wordpools/wasnorm_wordpool_576.txt	LTP386	ltpFR2	14	9	COIN	343	n/a	n/a	0	0	0
1827236	START	n/a	LTP386	ltpFR2	14	n/a	n/a	n/a	12	n/a	n/a	n/a	n/a
1828066	DISTRACTOR	n/a	LTP386	ltpFR2	14	9	n/a	n/a	n/a	n/a	0	0	0
1828072	PROB	n/a	LTP386	ltpFR2	14	n/a	n/a	n/a	12	11	5	2	4
1829810	PROB	n/a	LTP386	ltpFR2	14	n/a	n/a	n/a	12	18	9	8	1
1831483	PROB	n/a	LTP386	ltpFR2	14	n/a	n/a	n/a	12	12	3	4	5
1833723	PROB	n/a	LTP386	ltpFR2	14	n/a	n/a	n/a	12	16	7	1	5
1835412	PROB	n/a	LTP386	ltpFR2	14	n/a	n/a	n/a	12	18	6	6	6
1836465	PROB	n/a	LTP386	ltpFR2	14	n/a	n/a	n/a	12	18	1	8	9
1837485	PROB	n/a	LTP386	ltpFR2	14	n/a	n/a	n/a	12	16	6	1	9
1838639	PROB	n/a	LTP386	ltpFR2	14	n/a	n/a	n/a	12	12	5	2	5
1839642	PROB	n/a	LTP386	ltpFR2	14	n/a	n/a	n/a	12	24	6	9	9
1840980	PROB	n/a	LTP386	ltpFR2	14	n/a	n/a	n/a	12	20	8	8	6
1842234	PROB	n/a	LTP386	ltpFR2	14	n/a	n/a	n/a	12	11	8	2	1
1844175	PROB	n/a	LTP386	ltpFR2	14	n/a	n/a	n/a	12	6	3	2	1
1845561	PROB	n/a	LTP386	ltpFR2	14	n/a	n/a	n/a	12	14	6	2	6
1846732	PROB	n/a	LTP386	ltpFR2	14	n/a	n/a	n/a	12	5	1	1	3
1847719	PROB	n/a	LTP386	ltpFR2	14	n/a	n/a	n/a	12	18	8	9	1
1849541	PROB	n/a	LTP386	ltpFR2	14	n/a	n/a	n/a	12	20	3	8	9
1850841	STOP	n/a	LTP386	ltpFR2	14	n/a	n/a	n/a	12	n/a	n/a	n/a	n/a
1853139	REC_START	n/a	LTP386	ltpFR2	14	9	n/a	n/a	n/a	n/a	0	0	0
1853807	REC_WORD	wordpools/wasnorm_wordpool_576.txt	LTP386	ltpFR2	14	9	SKIRT	1319	n/a	n/a	0	0	0
1943579	DISTRACTOR	n/a	LTP386	ltpFR2	14	10	n/a	n/a	n/a	n/a	0	0	0
1943579	START	n/a	LTP386	ltpFR2	14	n/a	n/a	n/a	13	n/a	n/a	n/a	n/a
1943596	PROB	n/a	LTP386	ltpFR2	14	n/a	n/a	n/a	13	19	6	4	9
1944933	PROB	n/a	LTP386	ltpFR2	14	n/a	n/a	n/a	13	25	9	7	9
1947375	PROB	n/a	LTP386	ltpFR2	14	n/a	n/a	n/a	13	18	5	5	8
1948712	PROB	n/a	LTP386	ltpFR2	14	n/a	n/a	n/a	13	24	8	8	6
1950301	PROB	n/a	LTP386	ltpFR2	14	n/a	n/a	n/a	13	20	9	6	5
1951739	PROB	n/a	LTP386	ltpFR2	14	n/a	n/a	n/a	13	18	1	9	8
1952742	PROB	n/a	LTP386	ltpFR2	14	n/a	n/a	n/a	13	11	2	4	5
1954397	PROB	n/a	LTP386	ltpFR2	14	n/a	n/a	n/a	13	12	2	3	8
1955802	PROB	n/a	LTP386	ltpFR2	14	n/a	n/a	n/a	13	13	7	4	2
1957124	PROB	n/a	LTP386	ltpFR2	14	n/a	n/a	n/a	13	20	8	9	3
1958945	PROB	n/a	LTP386	ltpFR2	14	n/a	n/a	n/a	13	20	5	7	8
1960417	PROB	n/a	LTP386	ltpFR2	14	n/a	n/a	n/a	13	15	5	8	2
1963059	PROB	n/a	LTP386	ltpFR2	14	n/a	n/a	n/a	13	13	5	1	8
1964664	PROB	n/a	LTP386	ltpFR2	14	n/a	n/a	n/a	13	20	2	9	9
1966069	STOP	n/a	LTP386	ltpFR2	14	n/a	n/a	n/a	13	n/a	n/a	n/a	n/a
1968560	WORD	wordpools/wasnorm_wordpool_576.txt	LTP386	ltpFR2	14	10	CLAMP	316	n/a	n/a	0	0	0
1971269	WORD	wordpools/wasnorm_wordpool_576.txt	LTP386	ltpFR2	14	10	LEG	809	n/a	n/a	0	0	0
1974044	WORD	wordpools/wasnorm_wordpool_576.txt	LTP386	ltpFR2	14	10	TEACHER	1440	n/a	n/a	0	0	0
1976469	WORD	wordpools/wasnorm_wordpool_576.txt	LTP386	ltpFR2	14	10	ELBOW	520	n/a	n/a	0	0	0
1979179	WORD	wordpools/wasnorm_wordpool_576.txt	LTP386	ltpFR2	14	10	GLOVE	642	n/a	n/a	0	0	0
1981970	WORD	wordpools/wasnorm_wordpool_576.txt	LTP386	ltpFR2	14	10	PISTON	1076	n/a	n/a	0	0	0
1984645	WORD	wordpools/wasnorm_wordpool_576.txt	LTP386	ltpFR2	14	10	TOURIST	1488	n/a	n/a	0	0	0
1987321	WORD	wordpools/wasnorm_wordpool_576.txt	LTP386	ltpFR2	14	10	WAGON	1578	n/a	n/a	0	0	0
1989896	WORD	wordpools/wasnorm_wordpool_576.txt	LTP386	ltpFR2	14	10	TRANSPLANT	1496	n/a	n/a	0	0	0
1992604	WORD	wordpools/wasnorm_wordpool_576.txt	LTP386	ltpFR2	14	10	OZONE	996	n/a	n/a	0	0	0
1995029	WORD	wordpools/wasnorm_wordpool_576.txt	LTP386	ltpFR2	14	10	SUMMIT	1405	n/a	n/a	0	0	0
1997604	WORD	wordpools/wasnorm_wordpool_576.txt	LTP386	ltpFR2	14	10	SLOPE	1328	n/a	n/a	0	0	0
2000163	WORD	wordpools/wasnorm_wordpool_576.txt	LTP386	ltpFR2	14	10	VELVET	1555	n/a	n/a	0	0	0
2002788	WORD	wordpools/wasnorm_wordpool_576.txt	LTP386	ltpFR2	14	10	PARTNER	1017	n/a	n/a	0	0	0
2005513	WORD	wordpools/wasnorm_wordpool_576.txt	LTP386	ltpFR2	14	10	FRIEND	606	n/a	n/a	0	0	0
2007971	WORD	wordpools/wasnorm_wordpool_576.txt	LTP386	ltpFR2	14	10	HEART	697	n/a	n/a	0	0	0
2010696	WORD	wordpools/wasnorm_wordpool_576.txt	LTP386	ltpFR2	14	10	ICEBERG	731	n/a	n/a	0	0	0
2013272	WORD	wordpools/wasnorm_wordpool_576.txt	LTP386	ltpFR2	14	10	SUITCASE	1403	n/a	n/a	0	0	0
2015863	WORD	wordpools/wasnorm_wordpool_576.txt	LTP386	ltpFR2	14	10	CASHIER	254	n/a	n/a	0	0	0
2018656	WORD	wordpools/wasnorm_wordpool_576.txt	LTP386	ltpFR2	14	10	SOFTBALL	1343	n/a	n/a	0	0	0
2021231	WORD	wordpools/wasnorm_wordpool_576.txt	LTP386	ltpFR2	14	10	TURNIP	1521	n/a	n/a	0	0	0
2023806	WORD	wordpools/wasnorm_wordpool_576.txt	LTP386	ltpFR2	14	10	CASKET	255	n/a	n/a	0	0	0
2026498	WORD	wordpools/wasnorm_wordpool_576.txt	LTP386	ltpFR2	14	10	PACKAGE	997	n/a	n/a	0	0	0
2029107	WORD	wordpools/wasnorm_wordpool_576.txt	LTP386	ltpFR2	14	10	HEADBAND	696	n/a	n/a	0	0	0
2030712	START	n/a	LTP386	ltpFR2	14	n/a	n/a	n/a	14	n/a	n/a	n/a	n/a
2031622	DISTRACTOR	n/a	LTP386	ltpFR2	14	10	n/a	n/a	n/a	n/a	0	0	0
2031631	PROB	n/a	LTP386	ltpFR2	14	n/a	n/a	n/a	14	17	2	8	7
2033086	PROB	n/a	LTP386	ltpFR2	14	n/a	n/a	n/a	14	9	1	4	4
2034140	PROB	n/a	LTP386	ltpFR2	14	n/a	n/a	n/a	14	13	6	5	2
2035310	PROB	n/a	LTP386	ltpFR2	14	n/a	n/a	n/a	14	18	3	8	7
2036480	PROB	n/a	LTP386	ltpFR2	14	n/a	n/a	n/a	14	15	9	5	1
2037567	PROB	n/a	LTP386	ltpFR2	14	n/a	n/a	n/a	14	16	6	2	8
2038804	PROB	n/a	LTP386	ltpFR2	14	n/a	n/a	n/a	14	11	3	3	5
2039891	PROB	n/a	LTP386	ltpFR2	14	n/a	n/a	n/a	14	19	9	9	1
2041011	PROB	n/a	LTP386	ltpFR2	14	n/a	n/a	n/a	14	15	7	7	1
2042099	PROB	n/a	LTP386	ltpFR2	14	n/a	n/a	n/a	14	17	8	7	2
2043653	PROB	n/a	LTP386	ltpFR2	14	n/a	n/a	n/a	14	16	6	9	1
2044690	PROB	n/a	LTP386	ltpFR2	14	n/a	n/a	n/a	14	13	8	3	2
2046579	PROB	n/a	LTP386	ltpFR2	14	n/a	n/a	n/a	14	15	2	7	6
2048736	PROB	n/a	LTP386	ltpFR2	14	n/a	n/a	n/a	14	8	5	2	1
2050442	PROB	n/a	LTP386	ltpFR2	14	n/a	n/a	n/a	14	21	8	9	4
2052281	PROB	n/a	LTP386	ltpFR2	14	n/a	n/a	n/a	14	23	6	9	8
2054015	STOP	n/a	LTP386	ltpFR2	14	n/a	n/a	n/a	14	n/a	n/a	n/a	n/a
2056479	REC_START	n/a	LTP386	ltpFR2	14	10	n/a	n/a	n/a	n/a	0	0	0
2057770	REC_WORD	wordpools/wasnorm_wordpool_576.txt	LTP386	ltpFR2	14	10	PACKAGE	997	n/a	n/a	0	0	0
2059029	REC_WORD	wordpools/wasnorm_wordpool_576.txt	LTP386	ltpFR2	14	10	HEADBAND	696	n/a	n/a	0	0	0
2060431	REC_WORD	wordpools/wasnorm_wordpool_576.txt	LTP386	ltpFR2	14	10	TURNIP	1521	n/a	n/a	0	0	0
2061864	REC_WORD	wordpools/wasnorm_wordpool_576.txt	LTP386	ltpFR2	14	10	TOURIST	1488	n/a	n/a	0	0	0
2146938	WORD	wordpools/wasnorm_wordpool_576.txt	LTP386	ltpFR2	14	11	PLIERS	1089	n/a	n/a	0	0	0
2149747	WORD	wordpools/wasnorm_wordpool_576.txt	LTP386	ltpFR2	14	11	VIRUS	1572	n/a	n/a	0	0	0
2152221	WORD	wordpools/wasnorm_wordpool_576.txt	LTP386	ltpFR2	14	11	LOVER	846	n/a	n/a	0	0	0
2154746	WORD	wordpools/wasnorm_wordpool_576.txt	LTP386	ltpFR2	14	11	TWIG	1527	n/a	n/a	0	0	0
2157271	WORD	wordpools/wasnorm_wordpool_576.txt	LTP386	ltpFR2	14	11	SALT	1229	n/a	n/a	0	0	0
2160014	WORD	wordpools/wasnorm_wordpool_576.txt	LTP386	ltpFR2	14	11	DUST	508	n/a	n/a	0	0	0
2162471	WORD	wordpools/wasnorm_wordpool_576.txt	LTP386	ltpFR2	14	11	SPOON	1357	n/a	n/a	0	0	0
2164929	WORD	wordpools/wasnorm_wordpool_576.txt	LTP386	ltpFR2	14	11	GANGSTER	620	n/a	n/a	0	0	0
2167538	WORD	wordpools/wasnorm_wordpool_576.txt	LTP386	ltpFR2	14	11	RIFLE	1192	n/a	n/a	0	0	0
2169996	WORD	wordpools/wasnorm_wordpool_576.txt	LTP386	ltpFR2	14	11	BRIEFCASE	175	n/a	n/a	0	0	0
2172771	WORD	wordpools/wasnorm_wordpool_576.txt	LTP386	ltpFR2	14	11	FIDDLE	561	n/a	n/a	0	0	0
2175463	WORD	wordpools/wasnorm_wordpool_576.txt	LTP386	ltpFR2	14	11	BARLEY	88	n/a	n/a	0	0	0
2177938	WORD	wordpools/wasnorm_wordpool_576.txt	LTP386	ltpFR2	14	11	RUG	1215	n/a	n/a	0	0	0
2180396	WORD	wordpools/wasnorm_wordpool_576.txt	LTP386	ltpFR2	14	11	BUBBLE	183	n/a	n/a	0	0	0
2183139	WORD	wordpools/wasnorm_wordpool_576.txt	LTP386	ltpFR2	14	11	CRITIC	410	n/a	n/a	0	0	0
2185847	WORD	wordpools/wasnorm_wordpool_576.txt	LTP386	ltpFR2	14	11	KEEPER	769	n/a	n/a	0	0	0
2188606	WORD	wordpools/wasnorm_wordpool_576.txt	LTP386	ltpFR2	14	11	CABIN	211	n/a	n/a	0	0	0
2191332	WORD	wordpools/wasnorm_wordpool_576.txt	LTP386	ltpFR2	14	11	OMELET	976	n/a	n/a	0	0	0
2193790	WORD	wordpools/wasnorm_wordpool_576.txt	LTP386	ltpFR2	14	11	VALVE	1546	n/a	n/a	0	0	0
2196415	WORD	wordpools/wasnorm_wordpool_576.txt	LTP386	ltpFR2	14	11	XEROX	1628	n/a	n/a	0	0	0
2198956	WORD	wordpools/wasnorm_wordpool_576.txt	LTP386	ltpFR2	14	11	EXPERT	543	n/a	n/a	0	0	0
2201615	WORD	wordpools/wasnorm_wordpool_576.txt	LTP386	ltpFR2	14	11	KNIFE	785	n/a	n/a	0	0	0
2204091	WORD	wordpools/wasnorm_wordpool_576.txt	LTP386	ltpFR2	14	11	SNAIL	1332	n/a	n/a	0	0	0
2206564	WORD	wordpools/wasnorm_wordpool_576.txt	LTP386	ltpFR2	14	11	SLUG	1329	n/a	n/a	0	0	0
2208171	START	n/a	LTP386	ltpFR2	14	n/a	n/a	n/a	15	n/a	n/a	n/a	n/a
2209207	DISTRACTOR	n/a	LTP386	ltpFR2	14	11	n/a	n/a	n/a	n/a	0	0	0
2209223	PROB	n/a	LTP386	ltpFR2	14	n/a	n/a	n/a	15	18	9	8	1
2210611	PROB	n/a	LTP386	ltpFR2	14	n/a	n/a	n/a	15	4	1	2	1
2212182	PROB	n/a	LTP386	ltpFR2	14	n/a	n/a	n/a	15	19	5	7	7
2213721	PROB	n/a	LTP386	ltpFR2	14	n/a	n/a	n/a	15	12	3	4	5
2215844	PROB	n/a	LTP386	ltpFR2	14	n/a	n/a	n/a	15	23	9	7	7
2217249	PROB	n/a	LTP386	ltpFR2	14	n/a	n/a	n/a	15	12	2	6	4
2218419	PROB	n/a	LTP386	ltpFR2	14	n/a	n/a	n/a	15	16	4	9	3
2219673	PROB	n/a	LTP386	ltpFR2	14	n/a	n/a	n/a	15	12	3	8	1
2220860	PROB	n/a	LTP386	ltpFR2	14	n/a	n/a	n/a	15	8	1	3	4
2221931	PROB	n/a	LTP386	ltpFR2	14	n/a	n/a	n/a	15	13	9	2	2
2223318	PROB	n/a	LTP386	ltpFR2	14	n/a	n/a	n/a	15	12	3	1	8
2224589	PROB	n/a	LTP386	ltpFR2	14	n/a	n/a	n/a	15	16	6	1	9
2225726	PROB	n/a	LTP386	ltpFR2	14	n/a	n/a	n/a	15	22	7	6	9
2227281	PROB	n/a	LTP386	ltpFR2	14	n/a	n/a	n/a	15	18	4	9	5
2228552	PROB	n/a	LTP386	ltpFR2	14	n/a	n/a	n/a	15	16	2	7	7
2229873	PROB	n/a	LTP386	ltpFR2	14	n/a	n/a	n/a	15	13	6	4	3
2230981	STOP	n/a	LTP386	ltpFR2	14	n/a	n/a	n/a	15	n/a	n/a	n/a	n/a
2233954	REC_START	n/a	LTP386	ltpFR2	14	11	n/a	n/a	n/a	n/a	0	0	0
2234597	REC_WORD	wordpools/wasnorm_wordpool_576.txt	LTP386	ltpFR2	14	11	SNAIL	1332	n/a	n/a	0	0	0
2235310	REC_WORD	wordpools/wasnorm_wordpool_576.txt	LTP386	ltpFR2	14	11	SALT	1229	n/a	n/a	0	0	0
2236201	REC_WORD	wordpools/wasnorm_wordpool_576.txt	LTP386	ltpFR2	14	11	SPOON	1357	n/a	n/a	0	0	0
2238604	REC_WORD	wordpools/wasnorm_wordpool_576.txt	LTP386	ltpFR2	14	11	KNIFE	785	n/a	n/a	0	0	0
2244490	REC_WORD	wordpools/wasnorm_wordpool_576.txt	LTP386	ltpFR2	14	11	PLIERS	1089	n/a	n/a	0	0	0
2265245	REC_WORD	wordpools/wasnorm_wordpool_576.txt	LTP386	ltpFR2	14	11	SLUG	1329	n/a	n/a	0	0	0
2324413	WORD	wordpools/wasnorm_wordpool_576.txt	LTP386	ltpFR2	14	12	DUSTPAN	509	n/a	n/a	0	0	0
2327122	WORD	wordpools/wasnorm_wordpool_576.txt	LTP386	ltpFR2	14	12	SUPPER	1411	n/a	n/a	0	0	0
2329730	WORD	wordpools/wasnorm_wordpool_576.txt	LTP386	ltpFR2	14	12	MISSILE	900	n/a	n/a	0	0	0
2332405	WORD	wordpools/wasnorm_wordpool_576.txt	LTP386	ltpFR2	14	12	PRINCE	1124	n/a	n/a	0	0	0
2334863	WORD	wordpools/wasnorm_wordpool_576.txt	LTP386	ltpFR2	14	12	SNACK	1331	n/a	n/a	0	0	0
2337371	WORD	wordpools/wasnorm_wordpool_576.txt	LTP386	ltpFR2	14	12	KITCHEN	778	n/a	n/a	0	0	0
2339913	WORD	wordpools/wasnorm_wordpool_576.txt	LTP386	ltpFR2	14	12	THREAD	1460	n/a	n/a	0	0	0
2342655	WORD	wordpools/wasnorm_wordpool_576.txt	LTP386	ltpFR2	14	12	BINDER	127	n/a	n/a	0	0	0
2345330	WORD	wordpools/wasnorm_wordpool_576.txt	LTP386	ltpFR2	14	12	RAZOR	1171	n/a	n/a	0	0	0
2347755	WORD	wordpools/wasnorm_wordpool_576.txt	LTP386	ltpFR2	14	12	SWIMMER	1420	n/a	n/a	0	0	0
2350547	WORD	wordpools/wasnorm_wordpool_576.txt	LTP386	ltpFR2	14	12	JURY	766	n/a	n/a	0	0	0
2352972	WORD	wordpools/wasnorm_wordpool_576.txt	LTP386	ltpFR2	14	12	WITNESS	1618	n/a	n/a	0	0	0
2355463	WORD	wordpools/wasnorm_wordpool_576.txt	LTP386	ltpFR2	14	12	FARMER	553	n/a	n/a	0	0	0
2357971	WORD	wordpools/wasnorm_wordpool_576.txt	LTP386	ltpFR2	14	12	LACE	792	n/a	n/a	0	0	0
2360479	WORD	wordpools/wasnorm_wordpool_576.txt	LTP386	ltpFR2	14	12	CUSTARD	429	n/a	n/a	0	0	0
2362971	WORD	wordpools/wasnorm_wordpool_576.txt	LTP386	ltpFR2	14	12	OYSTER	995	n/a	n/a	0	0	0
2365696	WORD	wordpools/wasnorm_wordpool_576.txt	LTP386	ltpFR2	14	12	CABBAGE	210	n/a	n/a	0	0	0
2368155	WORD	wordpools/wasnorm_wordpool_576.txt	LTP386	ltpFR2	14	12	PICTURE	1061	n/a	n/a	0	0	0
2370612	WORD	wordpools/wasnorm_wordpool_576.txt	LTP386	ltpFR2	14	12	AGENT	10	n/a	n/a	0	0	0
2373138	WORD	wordpools/wasnorm_wordpool_576.txt	LTP386	ltpFR2	14	12	CANAL	226	n/a	n/a	0	0	0
2375779	WORD	wordpools/wasnorm_wordpool_576.txt	LTP386	ltpFR2	14	12	TROUT	1511	n/a	n/a	0	0	0
2378287	WORD	wordpools/wasnorm_wordpool_576.txt	LTP386	ltpFR2	14	12	AIRPLANE	12	n/a	n/a	0	0	0
2381013	WORD	wordpools/wasnorm_wordpool_576.txt	LTP386	ltpFR2	14	12	SLIDE	1326	n/a	n/a	0	0	0
2383537	WORD	wordpools/wasnorm_wordpool_576.txt	LTP386	ltpFR2	14	12	FUNGUS	614	n/a	n/a	0	0	0
2385144	START	n/a	LTP386	ltpFR2	14	n/a	n/a	n/a	16	n/a	n/a	n/a	n/a
2386011	DISTRACTOR	n/a	LTP386	ltpFR2	14	12	n/a	n/a	n/a	n/a	0	0	0
2386012	PROB	n/a	LTP386	ltpFR2	14	n/a	n/a	n/a	16	18	6	7	5
2387550	PROB	n/a	LTP386	ltpFR2	14	n/a	n/a	n/a	16	10	2	4	4
2389022	PROB	n/a	LTP386	ltpFR2	14	n/a	n/a	n/a	16	17	9	7	1
2390242	PROB	n/a	LTP386	ltpFR2	14	n/a	n/a	n/a	16	15	5	3	7
2391731	PROB	n/a	LTP386	ltpFR2	14	n/a	n/a	n/a	16	16	9	2	5
2394005	PROB	n/a	LTP386	ltpFR2	14	n/a	n/a	n/a	16	13	2	2	9
2395176	PROB	n/a	LTP386	ltpFR2	14	n/a	n/a	n/a	16	21	4	9	8
2396713	PROB	n/a	LTP386	ltpFR2	14	n/a	n/a	n/a	16	19	2	9	8
2400191	PROB	n/a	LTP386	ltpFR2	14	n/a	n/a	n/a	16	19	7	9	3
2401529	PROB	n/a	LTP386	ltpFR2	14	n/a	n/a	n/a	16	14	6	6	2
2403385	PROB	n/a	LTP386	ltpFR2	14	n/a	n/a	n/a	16	10	1	7	2
2404890	PROB	n/a	LTP386	ltpFR2	14	n/a	n/a	n/a	16	18	7	7	4
2406512	PROB	n/a	LTP386	ltpFR2	14	n/a	n/a	n/a	16	15	9	4	2
2407978	STOP	n/a	LTP386	ltpFR2	14	n/a	n/a	n/a	16	n/a	n/a	n/a	n/a
2411044	REC_START	n/a	LTP386	ltpFR2	14	12	n/a	n/a	n/a	n/a	0	0	0
2411513	REC_WORD	wordpools/wasnorm_wordpool_576.txt	LTP386	ltpFR2	14	12	DUSTPAN	509	n/a	n/a	0	0	0
2501503	WORD	wordpools/wasnorm_wordpool_576.txt	LTP386	ltpFR2	14	13	OUTLAW	989	n/a	n/a	0	0	0
2504112	WORD	wordpools/wasnorm_wordpool_576.txt	LTP386	ltpFR2	14	13	DIME	466	n/a	n/a	0	0	0
2506820	WORD	wordpools/wasnorm_wordpool_576.txt	LTP386	ltpFR2	14	13	BUCKET	184	n/a	n/a	0	0	0
2509428	WORD	wordpools/wasnorm_wordpool_576.txt	LTP386	ltpFR2	14	13	CHAPEL	280	n/a	n/a	0	0	0
2512020	WORD	wordpools/wasnorm_wordpool_576.txt	LTP386	ltpFR2	14	13	LIPSTICK	829	n/a	n/a	0	0	0
2514495	WORD	wordpools/wasnorm_wordpool_576.txt	LTP386	ltpFR2	14	13	SHOVEL	1295	n/a	n/a	0	0	0
2517070	WORD	wordpools/wasnorm_wordpool_576.txt	LTP386	ltpFR2	14	13	MATCH	878	n/a	n/a	0	0	0
2519845	WORD	wordpools/wasnorm_wordpool_576.txt	LTP386	ltpFR2	14	13	EUROPE	541	n/a	n/a	0	0	0
2522454	WORD	wordpools/wasnorm_wordpool_576.txt	LTP386	ltpFR2	14	13	FLAG	573	n/a	n/a	0	0	0
2524945	WORD	wordpools/wasnorm_wordpool_576.txt	LTP386	ltpFR2	14	13	REBEL	1172	n/a	n/a	0	0	0
2527386	WORD	wordpools/wasnorm_wordpool_576.txt	LTP386	ltpFR2	14	13	SWITCH	1422	n/a	n/a	0	0	0
2530146	WORD	wordpools/wasnorm_wordpool_576.txt	LTP386	ltpFR2	14	13	TUBA	1515	n/a	n/a	0	0	0
2532921	WORD	wordpools/wasnorm_wordpool_576.txt	LTP386	ltpFR2	14	13	OUTDOORS	987	n/a	n/a	0	0	0
2535613	WORD	wordpools/wasnorm_wordpool_576.txt	LTP386	ltpFR2	14	13	PREACHER	1119	n/a	n/a	0	0	0
2538272	WORD	wordpools/wasnorm_wordpool_576.txt	LTP386	ltpFR2	14	13	CROSS	413	n/a	n/a	0	0	0
2540763	WORD	wordpools/wasnorm_wordpool_576.txt	LTP386	ltpFR2	14	13	BURGLAR	200	n/a	n/a	0	0	0
2543321	WORD	wordpools/wasnorm_wordpool_576.txt	LTP386	ltpFR2	14	13	GUARD	667	n/a	n/a	0	0	0
2545930	WORD	wordpools/wasnorm_wordpool_576.txt	LTP386	ltpFR2	14	13	EGYPT	519	n/a	n/a	0	0	0
2548672	WORD	wordpools/wasnorm_wordpool_576.txt	LTP386	ltpFR2	14	13	FLUTE	585	n/a	n/a	0	0	0
2551131	WORD	wordpools/wasnorm_wordpool_576.txt	LTP386	ltpFR2	14	13	TURTLE	1522	n/a	n/a	0	0	0
2553555	WORD	wordpools/wasnorm_wordpool_576.txt	LTP386	ltpFR2	14	13	TILE	1468	n/a	n/a	0	0	0
2556196	WORD	wordpools/wasnorm_wordpool_576.txt	LTP386	ltpFR2	14	13	CEILING	265	n/a	n/a	0	0	0
2558939	WORD	wordpools/wasnorm_wordpool_576.txt	LTP386	ltpFR2	14	13	BADGE	68	n/a	n/a	0	0	0
2561413	WORD	wordpools/wasnorm_wordpool_576.txt	LTP386	ltpFR2	14	13	WORKER	1621	n/a	n/a	0	0	0
2563019	START	n/a	LTP386	ltpFR2	14	n/a	n/a	n/a	17	n/a	n/a	n/a	n/a
2564009	DISTRACTOR	n/a	LTP386	ltpFR2	14	13	n/a	n/a	n/a	n/a	0	0	0
2564022	PROB	n/a	LTP386	ltpFR2	14	n/a	n/a	n/a	17	11	4	6	1
2565359	PROB	n/a	LTP386	ltpFR2	14	n/a	n/a	n/a	17	7	4	1	2
2567399	PROB	n/a	LTP386	ltpFR2	14	n/a	n/a	n/a	17	17	2	7	8
2569139	PROB	n/a	LTP386	ltpFR2	14	n/a	n/a	n/a	17	14	7	1	6
2570643	PROB	n/a	LTP386	ltpFR2	14	n/a	n/a	n/a	17	19	5	6	8
2572116	PROB	n/a	LTP386	ltpFR2	14	n/a	n/a	n/a	17	20	9	2	9
2573703	PROB	n/a	LTP386	ltpFR2	14	n/a	n/a	n/a	17	14	6	7	1
2574941	PROB	n/a	LTP386	ltpFR2	14	n/a	n/a	n/a	17	11	3	1	7
2575894	PROB	n/a	LTP386	ltpFR2	14	n/a	n/a	n/a	17	25	9	9	7
2579088	PROB	n/a	LTP386	ltpFR2	14	n/a	n/a	n/a	17	13	9	1	3
2580325	PROB	n/a	LTP386	ltpFR2	14	n/a	n/a	n/a	17	16	3	8	5
2581763	PROB	n/a	LTP386	ltpFR2	14	n/a	n/a	n/a	17	11	1	9	1
2582749	PROB	n/a	LTP386	ltpFR2	14	n/a	n/a	n/a	17	24	8	8	6
2584271	PROB	n/a	LTP386	ltpFR2	14	n/a	n/a	n/a	17	13	8	2	3
2585695	STOP	n/a	LTP386	ltpFR2	14	n/a	n/a	n/a	17	n/a	n/a	n/a	n/a
2588936	REC_START	n/a	LTP386	ltpFR2	14	13	n/a	n/a	n/a	n/a	0	0	0
2589437	REC_WORD	wordpools/wasnorm_wordpool_576.txt	LTP386	ltpFR2	14	13	OUTLAW	989	n/a	n/a	0	0	0
2591295	REC_WORD	wordpools/wasnorm_wordpool_576.txt	LTP386	ltpFR2	14	13	BUCKET	184	n/a	n/a	0	0	0
2592211	REC_WORD	wordpools/wasnorm_wordpool_576.txt	LTP386	ltpFR2	14	13	DIME	466	n/a	n/a	0	0	0
2603064	REC_WORD	wordpools/wasnorm_wordpool_576.txt	LTP386	ltpFR2	14	13	CHAPEL	280	n/a	n/a	0	0	0
2679379	DISTRACTOR	n/a	LTP386	ltpFR2	14	14	n/a	n/a	n/a	n/a	0	0	0
2679379	START	n/a	LTP386	ltpFR2	14	n/a	n/a	n/a	18	n/a	n/a	n/a	n/a
2679395	PROB	n/a	LTP386	ltpFR2	14	n/a	n/a	n/a	18	23	9	8	6
2680817	PROB	n/a	LTP386	ltpFR2	14	n/a	n/a	n/a	18	18	4	5	9
2681987	PROB	n/a	LTP386	ltpFR2	14	n/a	n/a	n/a	18	10	1	6	3
2683142	PROB	n/a	LTP386	ltpFR2	14	n/a	n/a	n/a	18	19	8	6	5
2684445	PROB	n/a	LTP386	ltpFR2	14	n/a	n/a	n/a	18	14	3	8	3
2685749	PROB	n/a	LTP386	ltpFR2	14	n/a	n/a	n/a	18	13	5	5	3
2686719	PROB	n/a	LTP386	ltpFR2	14	n/a	n/a	n/a	18	21	6	7	8
2689027	PROB	n/a	LTP386	ltpFR2	14	n/a	n/a	n/a	18	11	8	2	1
2690180	PROB	n/a	LTP386	ltpFR2	14	n/a	n/a	n/a	18	13	4	4	5
2692571	PROB	n/a	LTP386	ltpFR2	14	n/a	n/a	n/a	18	18	4	7	7
2693859	PROB	n/a	LTP386	ltpFR2	14	n/a	n/a	n/a	18	7	1	1	5
2695046	PROB	n/a	LTP386	ltpFR2	14	n/a	n/a	n/a	18	16	5	5	6
2696217	PROB	n/a	LTP386	ltpFR2	14	n/a	n/a	n/a	18	13	1	7	5
2697688	PROB	n/a	LTP386	ltpFR2	14	n/a	n/a	n/a	18	7	1	1	5
2698808	PROB	n/a	LTP386	ltpFR2	14	n/a	n/a	n/a	18	16	8	6	2
2700230	PROB	n/a	LTP386	ltpFR2	14	n/a	n/a	n/a	18	11	2	8	1
2701867	STOP	n/a	LTP386	ltpFR2	14	n/a	n/a	n/a	18	n/a	n/a	n/a	n/a
2704410	WORD	wordpools/wasnorm_wordpool_576.txt	LTP386	ltpFR2	14	14	PENGUIN	1044	n/a	n/a	0	0	0
2706884	WORD	wordpools/wasnorm_wordpool_576.txt	LTP386	ltpFR2	14	14	CRAYON	401	n/a	n/a	0	0	0
2709576	WORD	wordpools/wasnorm_wordpool_576.txt	LTP386	ltpFR2	14	14	AIRPORT	13	n/a	n/a	0	0	0
2712202	WORD	wordpools/wasnorm_wordpool_576.txt	LTP386	ltpFR2	14	14	HOOD	714	n/a	n/a	0	0	0
2714977	WORD	wordpools/wasnorm_wordpool_576.txt	LTP386	ltpFR2	14	14	FRUIT	610	n/a	n/a	0	0	0
2717653	WORD	wordpools/wasnorm_wordpool_576.txt	LTP386	ltpFR2	14	14	RADISH	1158	n/a	n/a	0	0	0
2720412	WORD	wordpools/wasnorm_wordpool_576.txt	LTP386	ltpFR2	14	14	STICKER	1382	n/a	n/a	0	0	0
2723088	WORD	wordpools/wasnorm_wordpool_576.txt	LTP386	ltpFR2	14	14	WHISTLE	1606	n/a	n/a	0	0	0
2725729	WORD	wordpools/wasnorm_wordpool_576.txt	LTP386	ltpFR2	14	14	LAMP	798	n/a	n/a	0	0	0
2728354	WORD	wordpools/wasnorm_wordpool_576.txt	LTP386	ltpFR2	14	14	COOK	372	n/a	n/a	0	0	0
2730795	WORD	wordpools/wasnorm_wordpool_576.txt	LTP386	ltpFR2	14	14	MARROW	872	n/a	n/a	0	0	0
2733253	WORD	wordpools/wasnorm_wordpool_576.txt	LTP386	ltpFR2	14	14	QUAIL	1147	n/a	n/a	0	0	0
2735778	WORD	wordpools/wasnorm_wordpool_576.txt	LTP386	ltpFR2	14	14	CAFE	216	n/a	n/a	0	0	0
2738403	WORD	wordpools/wasnorm_wordpool_576.txt	LTP386	ltpFR2	14	14	PILOT	1070	n/a	n/a	0	0	0
2740911	WORD	wordpools/wasnorm_wordpool_576.txt	LTP386	ltpFR2	14	14	LODGE	839	n/a	n/a	0	0	0
2743436	WORD	wordpools/wasnorm_wordpool_576.txt	LTP386	ltpFR2	14	14	CHILD	299	n/a	n/a	0	0	0
2746096	WORD	wordpools/wasnorm_wordpool_576.txt	LTP386	ltpFR2	14	14	BRANDY	169	n/a	n/a	0	0	0
2748820	WORD	wordpools/wasnorm_wordpool_576.txt	LTP386	ltpFR2	14	14	COCKTAIL	338	n/a	n/a	0	0	0
2751562	WORD	wordpools/wasnorm_wordpool_576.txt	LTP386	ltpFR2	14	14	PORTRAIT	1111	n/a	n/a	0	0	0
2754138	WORD	wordpools/wasnorm_wordpool_576.txt	LTP386	ltpFR2	14	14	SKETCH	1315	n/a	n/a	0	0	0
2756796	WORD	wordpools/wasnorm_wordpool_576.txt	LTP386	ltpFR2	14	14	ATOM	55	n/a	n/a	0	0	0
2759304	WORD	wordpools/wasnorm_wordpool_576.txt	LTP386	ltpFR2	14	14	BUGGY	188	n/a	n/a	0	0	0
2762013	WORD	wordpools/wasnorm_wordpool_576.txt	LTP386	ltpFR2	14	14	KNAPSACK	783	n/a	n/a	0	0	0
2764471	WORD	wordpools/wasnorm_wordpool_576.txt	LTP386	ltpFR2	14	14	ORCHID	982	n/a	n/a	0	0	0
2766076	START	n/a	LTP386	ltpFR2	14	n/a	n/a	n/a	19	n/a	n/a	n/a	n/a
2767272	DISTRACTOR	n/a	LTP386	ltpFR2	14	14	n/a	n/a	n/a	n/a	0	0	0
2767280	PROB	n/a	LTP386	ltpFR2	14	n/a	n/a	n/a	19	13	3	3	7
2768467	PROB	n/a	LTP386	ltpFR2	14	n/a	n/a	n/a	19	13	2	9	2
2769939	PROB	n/a	LTP386	ltpFR2	14	n/a	n/a	n/a	19	15	7	5	3
2771127	PROB	n/a	LTP386	ltpFR2	14	n/a	n/a	n/a	19	18	3	9	6
2772463	PROB	n/a	LTP386	ltpFR2	14	n/a	n/a	n/a	19	21	5	7	9
2774286	PROB	n/a	LTP386	ltpFR2	14	n/a	n/a	n/a	19	20	5	8	7
2776192	PROB	n/a	LTP386	ltpFR2	14	n/a	n/a	n/a	19	10	6	3	1
2777262	PROB	n/a	LTP386	ltpFR2	14	n/a	n/a	n/a	19	18	6	6	6
2778332	PROB	n/a	LTP386	ltpFR2	14	n/a	n/a	n/a	19	14	6	2	6
2779603	PROB	n/a	LTP386	ltpFR2	14	n/a	n/a	n/a	19	15	2	7	6
2780891	PROB	n/a	LTP386	ltpFR2	14	n/a	n/a	n/a	19	14	4	9	1
2782044	PROB	n/a	LTP386	ltpFR2	14	n/a	n/a	n/a	19	6	3	2	1
2783265	PROB	n/a	LTP386	ltpFR2	14	n/a	n/a	n/a	19	21	9	4	8
2784452	PROB	n/a	LTP386	ltpFR2	14	n/a	n/a	n/a	19	10	4	1	5
2785639	PROB	n/a	LTP386	ltpFR2	14	n/a	n/a	n/a	19	14	1	4	9
2786760	PROB	n/a	LTP386	ltpFR2	14	n/a	n/a	n/a	19	14	3	4	7
2788331	PROB	n/a	LTP386	ltpFR2	14	n/a	n/a	n/a	19	10	8	1	1
2789365	STOP	n/a	LTP386	ltpFR2	14	n/a	n/a	n/a	19	n/a	n/a	n/a	n/a
2791927	REC_START	n/a	LTP386	ltpFR2	14	14	n/a	n/a	n/a	n/a	0	0	0
2792328	REC_WORD	wordpools/wasnorm_wordpool_576.txt	LTP386	ltpFR2	14	14	BUGGY	188	n/a	n/a	0	0	0
2793229	REC_WORD	wordpools/wasnorm_wordpool_576.txt	LTP386	ltpFR2	14	14	KNAPSACK	783	n/a	n/a	0	0	0
2794412	REC_WORD	wordpools/wasnorm_wordpool_576.txt	LTP386	ltpFR2	14	14	ATOM	55	n/a	n/a	0	0	0
2798233	REC_WORD	wordpools/wasnorm_wordpool_576.txt	LTP386	ltpFR2	14	14	LODGE	839	n/a	n/a	0	0	0
2799355	REC_WORD	wordpools/wasnorm_wordpool_576.txt	LTP386	ltpFR2	14	14	PORTRAIT	1111	n/a	n/a	0	0	0
2800494	REC_WORD	wordpools/wasnorm_wordpool_576.txt	LTP386	ltpFR2	14	14	AIRPLANE	12	n/a	n/a	0	0	0
2806226	REC_WORD	wordpools/wasnorm_wordpool_576.txt	LTP386	ltpFR2	14	14	STICKER	1382	n/a	n/a	0	0	0
2807354	REC_WORD	wordpools/wasnorm_wordpool_576.txt	LTP386	ltpFR2	14	14	WHISKERS	1605	n/a	n/a	0	0	0
2810101	REC_WORD	wordpools/wasnorm_wordpool_576.txt	LTP386	ltpFR2	14	14	CRAYON	401	n/a	n/a	0	0	0
2811054	REC_WORD	wordpools/wasnorm_wordpool_576.txt	LTP386	ltpFR2	14	14	HOOD	714	n/a	n/a	0	0	0
2882386	WORD	wordpools/wasnorm_wordpool_576.txt	LTP386	ltpFR2	14	15	OFFICE	972	n/a	n/a	0	0	0
2885195	WORD	wordpools/wasnorm_wordpool_576.txt	LTP386	ltpFR2	14	15	TYPIST	1532	n/a	n/a	0	0	0
2887737	WORD	wordpools/wasnorm_wordpool_576.txt	LTP386	ltpFR2	14	15	LUGGAGE	847	n/a	n/a	0	0	0
2890445	WORD	wordpools/wasnorm_wordpool_576.txt	LTP386	ltpFR2	14	15	CRATER	400	n/a	n/a	0	0	0
2893122	WORD	wordpools/wasnorm_wordpool_576.txt	LTP386	ltpFR2	14	15	PERMIT	1051	n/a	n/a	0	0	0
2895579	WORD	wordpools/wasnorm_wordpool_576.txt	LTP386	ltpFR2	14	15	ZIPPER	1636	n/a	n/a	0	0	0
2898121	WORD	wordpools/wasnorm_wordpool_576.txt	LTP386	ltpFR2	14	15	GROUND	666	n/a	n/a	0	0	0
2900796	WORD	wordpools/wasnorm_wordpool_576.txt	LTP386	ltpFR2	14	15	VALLEY	1545	n/a	n/a	0	0	0
2903387	WORD	wordpools/wasnorm_wordpool_576.txt	LTP386	ltpFR2	14	15	EAGLE	512	n/a	n/a	0	0	0
2906147	WORD	wordpools/wasnorm_wordpool_576.txt	LTP386	ltpFR2	14	15	UNCLE	1536	n/a	n/a	0	0	0
2908788	WORD	wordpools/wasnorm_wordpool_576.txt	LTP386	ltpFR2	14	15	SCOTCH	1251	n/a	n/a	0	0	0
2911514	WORD	wordpools/wasnorm_wordpool_576.txt	LTP386	ltpFR2	14	15	FLASK	576	n/a	n/a	0	0	0
2914256	WORD	wordpools/wasnorm_wordpool_576.txt	LTP386	ltpFR2	14	15	BLACKBOARD	133	n/a	n/a	0	0	0
2917065	WORD	wordpools/wasnorm_wordpool_576.txt	LTP386	ltpFR2	14	15	POPCORN	1104	n/a	n/a	0	0	0
2919857	WORD	wordpools/wasnorm_wordpool_576.txt	LTP386	ltpFR2	14	15	COMPASS	358	n/a	n/a	0	0	0
2922650	WORD	wordpools/wasnorm_wordpool_576.txt	LTP386	ltpFR2	14	15	NIGHTGOWN	953	n/a	n/a	0	0	0
2925358	WORD	wordpools/wasnorm_wordpool_576.txt	LTP386	ltpFR2	14	15	SHIRT	1287	n/a	n/a	0	0	0
2927917	WORD	wordpools/wasnorm_wordpool_576.txt	LTP386	ltpFR2	14	15	ACTRESS	6	n/a	n/a	0	0	0
2930559	WORD	wordpools/wasnorm_wordpool_576.txt	LTP386	ltpFR2	14	15	ASIA	46	n/a	n/a	0	0	0
2933017	WORD	wordpools/wasnorm_wordpool_576.txt	LTP386	ltpFR2	14	15	TRACTOR	1493	n/a	n/a	0	0	0
2935441	WORD	wordpools/wasnorm_wordpool_576.txt	LTP386	ltpFR2	14	15	PASTRY	1022	n/a	n/a	0	0	0
2937983	WORD	wordpools/wasnorm_wordpool_576.txt	LTP386	ltpFR2	14	15	CITRUS	313	n/a	n/a	0	0	0
2940558	WORD	wordpools/wasnorm_wordpool_576.txt	LTP386	ltpFR2	14	15	COUSIN	392	n/a	n/a	0	0	0
2942982	WORD	wordpools/wasnorm_wordpool_576.txt	LTP386	ltpFR2	14	15	INMATE	738	n/a	n/a	0	0	0
2944588	START	n/a	LTP386	ltpFR2	14	n/a	n/a	n/a	20	n/a	n/a	n/a	n/a
2945575	DISTRACTOR	n/a	LTP386	ltpFR2	14	15	n/a	n/a	n/a	n/a	0	0	0
2945591	PROB	n/a	LTP386	ltpFR2	14	n/a	n/a	n/a	20	7	5	1	1
2946811	PROB	n/a	LTP386	ltpFR2	14	n/a	n/a	n/a	20	17	8	8	1
2948199	PROB	n/a	LTP386	ltpFR2	14	n/a	n/a	n/a	20	12	3	7	2
2949370	PROB	n/a	LTP386	ltpFR2	14	n/a	n/a	n/a	20	9	2	2	5
2950473	PROB	n/a	LTP386	ltpFR2	14	n/a	n/a	n/a	20	24	9	9	6
2952764	PROB	n/a	LTP386	ltpFR2	14	n/a	n/a	n/a	20	7	1	1	5
2953918	PROB	n/a	LTP386	ltpFR2	14	n/a	n/a	n/a	20	15	8	6	1
2955122	PROB	n/a	LTP386	ltpFR2	14	n/a	n/a	n/a	20	16	8	2	8
2956677	PROB	n/a	LTP386	ltpFR2	14	n/a	n/a	n/a	20	12	3	8	1
2958099	PROB	n/a	LTP386	ltpFR2	14	n/a	n/a	n/a	20	18	1	9	8
2959419	PROB	n/a	LTP386	ltpFR2	14	n/a	n/a	n/a	20	12	1	4	7
2960840	PROB	n/a	LTP386	ltpFR2	14	n/a	n/a	n/a	20	7	4	2	1
2962495	PROB	n/a	LTP386	ltpFR2	14	n/a	n/a	n/a	20	13	4	3	6
2964184	PROB	n/a	LTP386	ltpFR2	14	n/a	n/a	n/a	20	13	9	3	1
2965288	PROB	n/a	LTP386	ltpFR2	14	n/a	n/a	n/a	20	10	2	2	6
2966558	PROB	n/a	LTP386	ltpFR2	14	n/a	n/a	n/a	20	13	3	5	6
2967994	STOP	n/a	LTP386	ltpFR2	14	n/a	n/a	n/a	20	n/a	n/a	n/a	n/a
2970371	REC_START	n/a	LTP386	ltpFR2	14	15	n/a	n/a	n/a	n/a	0	0	0
2971350	REC_WORD	wordpools/wasnorm_wordpool_576.txt	LTP386	ltpFR2	14	15	TYPIST	1532	n/a	n/a	0	0	0
2972419	REC_WORD	wordpools/wasnorm_wordpool_576.txt	LTP386	ltpFR2	14	15	OFFICE	972	n/a	n/a	0	0	0
2976825	REC_WORD	wordpools/wasnorm_wordpool_576.txt	LTP386	ltpFR2	14	15	VALLEY	1545	n/a	n/a	0	0	0
3060814	DISTRACTOR	n/a	LTP386	ltpFR2	14	16	n/a	n/a	n/a	n/a	0	0	0
3060814	START	n/a	LTP386	ltpFR2	14	n/a	n/a	n/a	21	n/a	n/a	n/a	n/a
3060830	PROB	n/a	LTP386	ltpFR2	14	n/a	n/a	n/a	21	9	1	4	4
3062469	PROB	n/a	LTP386	ltpFR2	14	n/a	n/a	n/a	21	22	7	6	9
3064459	PROB	n/a	LTP386	ltpFR2	14	n/a	n/a	n/a	21	14	3	5	6
3065863	PROB	n/a	LTP386	ltpFR2	14	n/a	n/a	n/a	21	10	2	7	1
3067084	PROB	n/a	LTP386	ltpFR2	14	n/a	n/a	n/a	21	3	1	1	1
3068088	PROB	n/a	LTP386	ltpFR2	14	n/a	n/a	n/a	21	25	8	8	9
3069609	PROB	n/a	LTP386	ltpFR2	14	n/a	n/a	n/a	21	17	5	6	6
3071115	PROB	n/a	LTP386	ltpFR2	14	n/a	n/a	n/a	21	13	5	7	2
3072920	PROB	n/a	LTP386	ltpFR2	14	n/a	n/a	n/a	21	5	3	1	1
3073822	PROB	n/a	LTP386	ltpFR2	14	n/a	n/a	n/a	21	18	7	9	2
3075094	PROB	n/a	LTP386	ltpFR2	14	n/a	n/a	n/a	21	20	6	8	6
3076999	PROB	n/a	LTP386	ltpFR2	14	n/a	n/a	n/a	21	10	2	4	4
3078154	PROB	n/a	LTP386	ltpFR2	14	n/a	n/a	n/a	21	13	1	5	7
3079390	PROB	n/a	LTP386	ltpFR2	14	n/a	n/a	n/a	21	20	9	2	9
3080695	PROB	n/a	LTP386	ltpFR2	14	n/a	n/a	n/a	21	17	6	5	6
3083303	PROB	n/a	LTP386	ltpFR2	14	n/a	n/a	n/a	21	19	9	4	6
3084390	STOP	n/a	LTP386	ltpFR2	14	n/a	n/a	n/a	21	n/a	n/a	n/a	n/a
3085978	WORD	wordpools/wasnorm_wordpool_576.txt	LTP386	ltpFR2	14	16	SCISSORS	1250	n/a	n/a	0	0	0
3088721	WORD	wordpools/wasnorm_wordpool_576.txt	LTP386	ltpFR2	14	16	SPACE	1345	n/a	n/a	0	0	0
3091245	WORD	wordpools/wasnorm_wordpool_576.txt	LTP386	ltpFR2	14	16	HOSTESS	723	n/a	n/a	0	0	0
3093854	WORD	wordpools/wasnorm_wordpool_576.txt	LTP386	ltpFR2	14	16	JUDGE	761	n/a	n/a	0	0	0
3096362	WORD	wordpools/wasnorm_wordpool_576.txt	LTP386	ltpFR2	14	16	CHAMPAGNE	278	n/a	n/a	0	0	0
3098970	WORD	wordpools/wasnorm_wordpool_576.txt	LTP386	ltpFR2	14	16	LEADER	807	n/a	n/a	0	0	0
3101395	WORD	wordpools/wasnorm_wordpool_576.txt	LTP386	ltpFR2	14	16	COSTUME	383	n/a	n/a	0	0	0
3103987	WORD	wordpools/wasnorm_wordpool_576.txt	LTP386	ltpFR2	14	16	COBRA	336	n/a	n/a	0	0	0
3106562	WORD	wordpools/wasnorm_wordpool_576.txt	LTP386	ltpFR2	14	16	NOVEL	960	n/a	n/a	0	0	0
3109138	WORD	wordpools/wasnorm_wordpool_576.txt	LTP386	ltpFR2	14	16	AUTHOR	61	n/a	n/a	0	0	0
3111762	WORD	wordpools/wasnorm_wordpool_576.txt	LTP386	ltpFR2	14	16	CUPBOARD	425	n/a	n/a	0	0	0
3114437	WORD	wordpools/wasnorm_wordpool_576.txt	LTP386	ltpFR2	14	16	DRINK	498	n/a	n/a	0	0	0
3117213	WORD	wordpools/wasnorm_wordpool_576.txt	LTP386	ltpFR2	14	16	TORTOISE	1486	n/a	n/a	0	0	0
3119671	WORD	wordpools/wasnorm_wordpool_576.txt	LTP386	ltpFR2	14	16	GLASS	639	n/a	n/a	0	0	0
3122246	WORD	wordpools/wasnorm_wordpool_576.txt	LTP386	ltpFR2	14	16	COUNTY	389	n/a	n/a	0	0	0
3124754	WORD	wordpools/wasnorm_wordpool_576.txt	LTP386	ltpFR2	14	16	YARN	1631	n/a	n/a	0	0	0
3127346	WORD	wordpools/wasnorm_wordpool_576.txt	LTP386	ltpFR2	14	16	LAPEL	800	n/a	n/a	0	0	0
3130139	WORD	wordpools/wasnorm_wordpool_576.txt	LTP386	ltpFR2	14	16	ANKLE	24	n/a	n/a	0	0	0
3132696	WORD	wordpools/wasnorm_wordpool_576.txt	LTP386	ltpFR2	14	16	BLUEPRINT	142	n/a	n/a	0	0	0
3135372	WORD	wordpools/wasnorm_wordpool_576.txt	LTP386	ltpFR2	14	16	WARDROBE	1587	n/a	n/a	0	0	0
3137863	WORD	wordpools/wasnorm_wordpool_576.txt	LTP386	ltpFR2	14	16	SUSPECT	1415	n/a	n/a	0	0	0
3140304	WORD	wordpools/wasnorm_wordpool_576.txt	LTP386	ltpFR2	14	16	ROBBER	1197	n/a	n/a	0	0	0
3142863	WORD	wordpools/wasnorm_wordpool_576.txt	LTP386	ltpFR2	14	16	BOUQUET	157	n/a	n/a	0	0	0
3145321	WORD	wordpools/wasnorm_wordpool_576.txt	LTP386	ltpFR2	14	16	LADDER	793	n/a	n/a	0	0	0
3146926	START	n/a	LTP386	ltpFR2	14	n/a	n/a	n/a	22	n/a	n/a	n/a	n/a
3148046	DISTRACTOR	n/a	LTP386	ltpFR2	14	16	n/a	n/a	n/a	n/a	0	0	0
3148063	PROB	n/a	LTP386	ltpFR2	14	n/a	n/a	n/a	22	19	8	6	5
3149484	PROB	n/a	LTP386	ltpFR2	14	n/a	n/a	n/a	22	12	8	3	1
3150638	PROB	n/a	LTP386	ltpFR2	14	n/a	n/a	n/a	22	9	6	2	1
3151842	PROB	n/a	LTP386	ltpFR2	14	n/a	n/a	n/a	22	15	8	2	5
3153246	PROB	n/a	LTP386	ltpFR2	14	n/a	n/a	n/a	22	16	4	6	6
3154567	PROB	n/a	LTP386	ltpFR2	14	n/a	n/a	n/a	22	14	6	2	6
3155838	PROB	n/a	LTP386	ltpFR2	14	n/a	n/a	n/a	22	13	7	5	1
3157160	PROB	n/a	LTP386	ltpFR2	14	n/a	n/a	n/a	22	13	7	2	4
3158597	PROB	n/a	LTP386	ltpFR2	14	n/a	n/a	n/a	22	21	3	9	9
3159834	PROB	n/a	LTP386	ltpFR2	14	n/a	n/a	n/a	22	11	1	8	2
3160921	PROB	n/a	LTP386	ltpFR2	14	n/a	n/a	n/a	22	17	2	6	9
3162276	PROB	n/a	LTP386	ltpFR2	14	n/a	n/a	n/a	22	13	1	4	8
3163646	PROB	n/a	LTP386	ltpFR2	14	n/a	n/a	n/a	22	13	3	7	3
3164650	PROB	n/a	LTP386	ltpFR2	14	n/a	n/a	n/a	22	14	9	2	3
3165870	PROB	n/a	LTP386	ltpFR2	14	n/a	n/a	n/a	22	13	4	8	1
3167041	PROB	n/a	LTP386	ltpFR2	14	n/a	n/a	n/a	22	21	9	8	4
3168211	PROB	n/a	LTP386	ltpFR2	14	n/a	n/a	n/a	22	16	5	3	8
3169568	STOP	n/a	LTP386	ltpFR2	14	n/a	n/a	n/a	22	n/a	n/a	n/a	n/a
3172861	REC_START	n/a	LTP386	ltpFR2	14	16	n/a	n/a	n/a	n/a	0	0	0
3173374	REC_WORD	wordpools/wasnorm_wordpool_576.txt	LTP386	ltpFR2	14	16	BOUQUET	157	n/a	n/a	0	0	0
3175542	REC_WORD	wordpools/wasnorm_wordpool_576.txt	LTP386	ltpFR2	14	16	SUSPECT	1415	n/a	n/a	0	0	0
3176789	REC_WORD	wordpools/wasnorm_wordpool_576.txt	LTP386	ltpFR2	14	16	ROBBER	1197	n/a	n/a	0	0	0
3195241	REC_WORD	wordpools/wasnorm_wordpool_576.txt	LTP386	ltpFR2	14	16	CHAMPAGNE	278	n/a	n/a	0	0	0
3201882	REC_WORD	wordpools/wasnorm_wordpool_576.txt	LTP386	ltpFR2	14	16	COBRA	336	n/a	n/a	0	0	0
3202802	REC_WORD	wordpools/wasnorm_wordpool_576.txt	LTP386	ltpFR2	14	16	WARDROBE	1587	n/a	n/a	0	0	0
3204060	REC_WORD	wordpools/wasnorm_wordpool_576.txt	LTP386	ltpFR2	14	16	BLUEPRINT	142	n/a	n/a	0	0	0
3205337	REC_WORD	wordpools/wasnorm_wordpool_576.txt	LTP386	ltpFR2	14	16	NOVEL	960	n/a	n/a	0	0	0
3249391	REST_REWET	n/a	LTP386	ltpFR2	14	16	n/a	n/a	n/a	n/a	0	0	0
3453184	DISTRACTOR	n/a	LTP386	ltpFR2	14	17	n/a	n/a	n/a	n/a	0	0	0
3453184	START	n/a	LTP386	ltpFR2	14	n/a	n/a	n/a	23	n/a	n/a	n/a	n/a
3453201	PROB	n/a	LTP386	ltpFR2	14	n/a	n/a	n/a	23	13	4	7	2
3454555	PROB	n/a	LTP386	ltpFR2	14	n/a	n/a	n/a	23	19	5	8	6
3456161	PROB	n/a	LTP386	ltpFR2	14	n/a	n/a	n/a	23	18	2	7	9
3457448	PROB	n/a	LTP386	ltpFR2	14	n/a	n/a	n/a	23	12	3	3	6
3459036	PROB	n/a	LTP386	ltpFR2	14	n/a	n/a	n/a	23	13	5	4	4
3460324	PROB	n/a	LTP386	ltpFR2	14	n/a	n/a	n/a	23	19	7	3	9
3461327	PROB	n/a	LTP386	ltpFR2	14	n/a	n/a	n/a	23	19	7	3	9
3462447	PROB	n/a	LTP386	ltpFR2	14	n/a	n/a	n/a	23	11	4	5	2
3463668	PROB	n/a	LTP386	ltpFR2	14	n/a	n/a	n/a	23	11	2	3	6
3465107	PROB	n/a	LTP386	ltpFR2	14	n/a	n/a	n/a	23	12	5	1	6
3466427	PROB	n/a	LTP386	ltpFR2	14	n/a	n/a	n/a	23	25	9	8	8
3468316	PROB	n/a	LTP386	ltpFR2	14	n/a	n/a	n/a	23	16	2	9	5
3469570	PROB	n/a	LTP386	ltpFR2	14	n/a	n/a	n/a	23	13	4	4	5
3471110	PROB	n/a	LTP386	ltpFR2	14	n/a	n/a	n/a	23	18	9	8	1
3472163	PROB	n/a	LTP386	ltpFR2	14	n/a	n/a	n/a	23	11	4	5	2
3473366	PROB	n/a	LTP386	ltpFR2	14	n/a	n/a	n/a	23	16	4	3	9
3474570	PROB	n/a	LTP386	ltpFR2	14	n/a	n/a	n/a	23	6	1	2	3
3475640	PROB	n/a	LTP386	ltpFR2	14	n/a	n/a	n/a	23	15	6	1	8
3476705	STOP	n/a	LTP386	ltpFR2	14	n/a	n/a	n/a	23	n/a	n/a	n/a	n/a
3478166	WORD	wordpools/wasnorm_wordpool_576.txt	LTP386	ltpFR2	14	17	PARENT	1013	n/a	n/a	0	0	0
3480924	WORD	wordpools/wasnorm_wordpool_576.txt	LTP386	ltpFR2	14	17	SHORTCAKE	1292	n/a	n/a	0	0	0
3483516	WORD	wordpools/wasnorm_wordpool_576.txt	LTP386	ltpFR2	14	17	PERCH	1048	n/a	n/a	0	0	0
3486224	WORD	wordpools/wasnorm_wordpool_576.txt	LTP386	ltpFR2	14	17	MAILBOX	857	n/a	n/a	0	0	0
3488883	WORD	wordpools/wasnorm_wordpool_576.txt	LTP386	ltpFR2	14	17	POSTAGE	1113	n/a	n/a	0	0	0
3491525	WORD	wordpools/wasnorm_wordpool_576.txt	LTP386	ltpFR2	14	17	PLAID	1080	n/a	n/a	0	0	0
3493966	WORD	wordpools/wasnorm_wordpool_576.txt	LTP386	ltpFR2	14	17	DAUGHTER	442	n/a	n/a	0	0	0
3496775	WORD	wordpools/wasnorm_wordpool_576.txt	LTP386	ltpFR2	14	17	BROOK	177	n/a	n/a	0	0	0
3499434	WORD	wordpools/wasnorm_wordpool_576.txt	LTP386	ltpFR2	14	17	COOKBOOK	373	n/a	n/a	0	0	0
3502243	WORD	wordpools/wasnorm_wordpool_576.txt	LTP386	ltpFR2	14	17	HAMPER	682	n/a	n/a	0	0	0
3504968	WORD	wordpools/wasnorm_wordpool_576.txt	LTP386	ltpFR2	14	17	FOX	598	n/a	n/a	0	0	0
3507677	WORD	wordpools/wasnorm_wordpool_576.txt	LTP386	ltpFR2	14	17	CREATURE	403	n/a	n/a	0	0	0
3510403	WORD	wordpools/wasnorm_wordpool_576.txt	LTP386	ltpFR2	14	17	CLOTHES	327	n/a	n/a	0	0	0
3513028	WORD	wordpools/wasnorm_wordpool_576.txt	LTP386	ltpFR2	14	17	DRESS	495	n/a	n/a	0	0	0
3515569	WORD	wordpools/wasnorm_wordpool_576.txt	LTP386	ltpFR2	14	17	JAPAN	749	n/a	n/a	0	0	0
3518145	WORD	wordpools/wasnorm_wordpool_576.txt	LTP386	ltpFR2	14	17	LONDON	843	n/a	n/a	0	0	0
3520753	WORD	wordpools/wasnorm_wordpool_576.txt	LTP386	ltpFR2	14	17	AWARD	63	n/a	n/a	0	0	0
3523278	WORD	wordpools/wasnorm_wordpool_576.txt	LTP386	ltpFR2	14	17	MOTOR	922	n/a	n/a	0	0	0
3525919	WORD	wordpools/wasnorm_wordpool_576.txt	LTP386	ltpFR2	14	17	WASHER	1592	n/a	n/a	0	0	0
3528662	WORD	wordpools/wasnorm_wordpool_576.txt	LTP386	ltpFR2	14	17	SALAD	1224	n/a	n/a	0	0	0
3531220	WORD	wordpools/wasnorm_wordpool_576.txt	LTP386	ltpFR2	14	17	SIBLING	1301	n/a	n/a	0	0	0
3533711	WORD	wordpools/wasnorm_wordpool_576.txt	LTP386	ltpFR2	14	17	RAFT	1159	n/a	n/a	0	0	0
3536487	WORD	wordpools/wasnorm_wordpool_576.txt	LTP386	ltpFR2	14	17	BUTCHER	203	n/a	n/a	0	0	0
3539180	WORD	wordpools/wasnorm_wordpool_576.txt	LTP386	ltpFR2	14	17	DONOR	485	n/a	n/a	0	0	0
3540785	START	n/a	LTP386	ltpFR2	14	n/a	n/a	n/a	24	n/a	n/a	n/a	n/a
3541651	DISTRACTOR	n/a	LTP386	ltpFR2	14	17	n/a	n/a	n/a	n/a	0	0	0
3541654	PROB	n/a	LTP386	ltpFR2	14	n/a	n/a	n/a	24	12	2	5	5
3543143	PROB	n/a	LTP386	ltpFR2	14	n/a	n/a	n/a	24	17	4	6	7
3544647	PROB	n/a	LTP386	ltpFR2	14	n/a	n/a	n/a	24	17	3	9	5
3546169	PROB	n/a	LTP386	ltpFR2	14	n/a	n/a	n/a	24	5	2	1	2
3547139	PROB	n/a	LTP386	ltpFR2	14	n/a	n/a	n/a	24	13	5	4	3
3549179	PROB	n/a	LTP386	ltpFR2	14	n/a	n/a	n/a	24	16	2	9	5
3550984	PROB	n/a	LTP386	ltpFR2	14	n/a	n/a	n/a	24	15	2	7	6
3552806	PROB	n/a	LTP386	ltpFR2	14	n/a	n/a	n/a	24	21	9	7	5
3554162	PROB	n/a	LTP386	ltpFR2	14	n/a	n/a	n/a	24	16	4	6	6
3555465	PROB	n/a	LTP386	ltpFR2	14	n/a	n/a	n/a	24	21	8	8	5
3557421	PROB	n/a	LTP386	ltpFR2	14	n/a	n/a	n/a	24	13	7	2	4
3558525	PROB	n/a	LTP386	ltpFR2	14	n/a	n/a	n/a	24	9	5	1	3
3560665	PROB	n/a	LTP386	ltpFR2	14	n/a	n/a	n/a	24	12	8	1	3
3561719	PROB	n/a	LTP386	ltpFR2	14	n/a	n/a	n/a	24	10	2	5	3
3564300	STOP	n/a	LTP386	ltpFR2	14	n/a	n/a	n/a	24	n/a	n/a	n/a	n/a
3566585	REC_START	n/a	LTP386	ltpFR2	14	17	n/a	n/a	n/a	n/a	0	0	0
3567046	REC_WORD	wordpools/wasnorm_wordpool_576.txt	LTP386	ltpFR2	14	17	BUTCHER	203	n/a	n/a	0	0	0
3567684	REC_WORD	wordpools/wasnorm_wordpool_576.txt	LTP386	ltpFR2	14	17	DAUGHTER	442	n/a	n/a	0	0	0
3568259	REC_WORD	wordpools/wasnorm_wordpool_576.txt	LTP386	ltpFR2	14	17	PARENT	1013	n/a	n/a	0	0	0
3571471	REC_WORD	wordpools/wasnorm_wordpool_576.txt	LTP386	ltpFR2	14	17	SIBLING	1301	n/a	n/a	0	0	0
3574165	REC_WORD	wordpools/wasnorm_wordpool_576.txt	LTP386	ltpFR2	14	17	FOX	598	n/a	n/a	0	0	0
3636565	REC_WORD_VV	wordpools/wasnorm_wordpool_576.txt	LTP386	ltpFR2	14	17	<>	-1	n/a	n/a	0	0	0
3637565	REC_WORD_VV	wordpools/wasnorm_wordpool_576.txt	LTP386	ltpFR2	14	17	<>	-1	n/a	n/a	0	0	0
3638565	REC_WORD_VV	wordpools/wasnorm_wordpool_576.txt	LTP386	ltpFR2	14	17	<>	-1	n/a	n/a	0	0	0
3657044	WORD	wordpools/wasnorm_wordpool_576.txt	LTP386	ltpFR2	14	18	FLEET	578	n/a	n/a	0	0	0
3659536	WORD	wordpools/wasnorm_wordpool_576.txt	LTP386	ltpFR2	14	18	COLONEL	348	n/a	n/a	0	0	0
3662194	WORD	wordpools/wasnorm_wordpool_576.txt	LTP386	ltpFR2	14	18	YOLK	1633	n/a	n/a	0	0	0
3664669	WORD	wordpools/wasnorm_wordpool_576.txt	LTP386	ltpFR2	14	18	ULCER	1533	n/a	n/a	0	0	0
3667311	WORD	wordpools/wasnorm_wordpool_576.txt	LTP386	ltpFR2	14	18	DENIM	446	n/a	n/a	0	0	0
3669802	WORD	wordpools/wasnorm_wordpool_576.txt	LTP386	ltpFR2	14	18	MARKET	871	n/a	n/a	0	0	0
3672561	WORD	wordpools/wasnorm_wordpool_576.txt	LTP386	ltpFR2	14	18	WRENCH	1625	n/a	n/a	0	0	0
3675086	WORD	wordpools/wasnorm_wordpool_576.txt	LTP386	ltpFR2	14	18	ACTOR	5	n/a	n/a	0	0	0
3677744	WORD	wordpools/wasnorm_wordpool_576.txt	LTP386	ltpFR2	14	18	FRIAR	605	n/a	n/a	0	0	0
3680420	WORD	wordpools/wasnorm_wordpool_576.txt	LTP386	ltpFR2	14	18	PEDAL	1037	n/a	n/a	0	0	0
3683195	WORD	wordpools/wasnorm_wordpool_576.txt	LTP386	ltpFR2	14	18	POWDER	1117	n/a	n/a	0	0	0
3685988	WORD	wordpools/wasnorm_wordpool_576.txt	LTP386	ltpFR2	14	18	PISTOL	1075	n/a	n/a	0	0	0
3688630	WORD	wordpools/wasnorm_wordpool_576.txt	LTP386	ltpFR2	14	18	TEMPLE	1448	n/a	n/a	0	0	0
3691188	WORD	wordpools/wasnorm_wordpool_576.txt	LTP386	ltpFR2	14	18	SHORTS	1293	n/a	n/a	0	0	0
3693763	WORD	wordpools/wasnorm_wordpool_576.txt	LTP386	ltpFR2	14	18	GIFT	635	n/a	n/a	0	0	0
3696221	WORD	wordpools/wasnorm_wordpool_576.txt	LTP386	ltpFR2	14	18	LETTUCE	814	n/a	n/a	0	0	0
3698829	WORD	wordpools/wasnorm_wordpool_576.txt	LTP386	ltpFR2	14	18	LADY	794	n/a	n/a	0	0	0
3701304	WORD	wordpools/wasnorm_wordpool_576.txt	LTP386	ltpFR2	14	18	SEAFOOD	1260	n/a	n/a	0	0	0
3703996	WORD	wordpools/wasnorm_wordpool_576.txt	LTP386	ltpFR2	14	18	ARMY	39	n/a	n/a	0	0	0
3706538	WORD	wordpools/wasnorm_wordpool_576.txt	LTP386	ltpFR2	14	18	CREVICE	405	n/a	n/a	0	0	0
3709230	WORD	wordpools/wasnorm_wordpool_576.txt	LTP386	ltpFR2	14	18	DOUGHNUT	490	n/a	n/a	0	0	0
3711738	WORD	wordpools/wasnorm_wordpool_576.txt	LTP386	ltpFR2	14	18	HERO	706	n/a	n/a	0	0	0
3714380	WORD	wordpools/wasnorm_wordpool_576.txt	LTP386	ltpFR2	14	18	COUNTRY	388	n/a	n/a	0	0	0
3716888	WORD	wordpools/wasnorm_wordpool_576.txt	LTP386	ltpFR2	14	18	CIGAR	308	n/a	n/a	0	0	0
3718493	START	n/a	LTP386	ltpFR2	14	n/a	n/a	n/a	25	n/a	n/a	n/a	n/a
3719412	DISTRACTOR	n/a	LTP386	ltpFR2	14	18	n/a	n/a	n/a	n/a	0	0	0
3719429	PROB	n/a	LTP386	ltpFR2	14	n/a	n/a	n/a	25	14	7	6	1
3721018	PROB	n/a	LTP386	ltpFR2	14	n/a	n/a	n/a	25	21	6	6	9
3722322	PROB	n/a	LTP386	ltpFR2	14	n/a	n/a	n/a	25	14	7	6	1
3723710	PROB	n/a	LTP386	ltpFR2	14	n/a	n/a	n/a	25	14	4	4	6
3726569	PROB	n/a	LTP386	ltpFR2	14	n/a	n/a	n/a	25	16	9	3	4
3727739	PROB	n/a	LTP386	ltpFR2	14	n/a	n/a	n/a	25	19	4	7	8
3729412	PROB	n/a	LTP386	ltpFR2	14	n/a	n/a	n/a	25	15	1	9	5
3730432	PROB	n/a	LTP386	ltpFR2	14	n/a	n/a	n/a	25	12	6	1	5
3731569	PROB	n/a	LTP386	ltpFR2	14	n/a	n/a	n/a	25	12	6	4	2
3732639	PROB	n/a	LTP386	ltpFR2	14	n/a	n/a	n/a	25	21	8	9	4
3734930	PROB	n/a	LTP386	ltpFR2	14	n/a	n/a	n/a	25	15	1	8	6
3736468	PROB	n/a	LTP386	ltpFR2	14	n/a	n/a	n/a	25	14	5	5	4
3737571	PROB	n/a	LTP386	ltpFR2	14	n/a	n/a	n/a	25	17	7	9	1
3739127	PROB	n/a	LTP386	ltpFR2	14	n/a	n/a	n/a	25	11	2	1	8
3741122	STOP	n/a	LTP386	ltpFR2	14	n/a	n/a	n/a	25	n/a	n/a	n/a	n/a
3744345	REC_START	n/a	LTP386	ltpFR2	14	18	n/a	n/a	n/a	n/a	0	0	0
3745407	REC_WORD	wordpools/wasnorm_wordpool_576.txt	LTP386	ltpFR2	14	18	DOUGHNUT	490	n/a	n/a	0	0	0
3762782	REC_WORD	wordpools/wasnorm_wordpool_576.txt	LTP386	ltpFR2	14	18	FRIAR	605	n/a	n/a	0	0	0
3765091	REC_WORD	wordpools/wasnorm_wordpool_576.txt	LTP386	ltpFR2	14	18	FLEET	578	n/a	n/a	0	0	0
3766012	REC_WORD	wordpools/wasnorm_wordpool_576.txt	LTP386	ltpFR2	14	18	COLONEL	348	n/a	n/a	0	0	0
3810502	REC_WORD_VV	wordpools/wasnorm_wordpool_576.txt	LTP386	ltpFR2	14	18	<>	-1	n/a	n/a	0	0	0
3811502	REC_WORD_VV	wordpools/wasnorm_wordpool_576.txt	LTP386	ltpFR2	14	18	<>	-1	n/a	n/a	0	0	0
3812502	REC_WORD_VV	wordpools/wasnorm_wordpool_576.txt	LTP386	ltpFR2	14	18	<>	-1	n/a	n/a	0	0	0
3813963	REC_WORD_VV	wordpools/wasnorm_wordpool_576.txt	LTP386	ltpFR2	14	18	<>	-1	n/a	n/a	0	0	0
3814963	REC_WORD_VV	wordpools/wasnorm_wordpool_576.txt	LTP386	ltpFR2	14	18	<>	-1	n/a	n/a	0	0	0
3816798	REC_WORD_VV	wordpools/wasnorm_wordpool_576.txt	LTP386	ltpFR2	14	18	<>	-1	n/a	n/a	0	0	0
3817798	REC_WORD_VV	wordpools/wasnorm_wordpool_576.txt	LTP386	ltpFR2	14	18	<>	-1	n/a	n/a	0	0	0
3819015	REC_WORD_VV	wordpools/wasnorm_wordpool_576.txt	LTP386	ltpFR2	14	18	<>	-1	n/a	n/a	0	0	0
3834786	DISTRACTOR	n/a	LTP386	ltpFR2	14	19	n/a	n/a	n/a	n/a	0	0	0
3834786	START	n/a	LTP386	ltpFR2	14	n/a	n/a	n/a	26	n/a	n/a	n/a	n/a
3834803	PROB	n/a	LTP386	ltpFR2	14	n/a	n/a	n/a	26	21	3	9	9
3836274	PROB	n/a	LTP386	ltpFR2	14	n/a	n/a	n/a	26	24	7	8	9
3837612	PROB	n/a	LTP386	ltpFR2	14	n/a	n/a	n/a	26	13	3	4	6
3838632	PROB	n/a	LTP386	ltpFR2	14	n/a	n/a	n/a	26	8	1	1	6
3839602	PROB	n/a	LTP386	ltpFR2	14	n/a	n/a	n/a	26	13	2	2	9
3840739	PROB	n/a	LTP386	ltpFR2	14	n/a	n/a	n/a	26	7	2	3	2
3842428	PROB	n/a	LTP386	ltpFR2	14	n/a	n/a	n/a	26	21	9	7	5
3843665	PROB	n/a	LTP386	ltpFR2	14	n/a	n/a	n/a	26	8	1	3	4
3844952	PROB	n/a	LTP386	ltpFR2	14	n/a	n/a	n/a	26	17	5	6	6
3846357	PROB	n/a	LTP386	ltpFR2	14	n/a	n/a	n/a	26	17	8	3	6
3849300	PROB	n/a	LTP386	ltpFR2	14	n/a	n/a	n/a	26	17	6	7	8
3850738	PROB	n/a	LTP386	ltpFR2	14	n/a	n/a	n/a	26	10	8	1	1
3851791	PROB	n/a	LTP386	ltpFR2	14	n/a	n/a	n/a	26	12	2	8	2
3852962	PROB	n/a	LTP386	ltpFR2	14	n/a	n/a	n/a	26	10	1	7	2
3854651	PROB	n/a	LTP386	ltpFR2	14	n/a	n/a	n/a	26	11	2	6	3
3856306	PROB	n/a	LTP386	ltpFR2	14	n/a	n/a	n/a	26	11	4	1	6
3857259	PROB	n/a	LTP386	ltpFR2	14	n/a	n/a	n/a	26	16	5	3	8
3858684	STOP	n/a	LTP386	ltpFR2	14	n/a	n/a	n/a	26	n/a	n/a	n/a	n/a
3859985	WORD	wordpools/wasnorm_wordpool_576.txt	LTP386	ltpFR2	14	19	HUSBAND	728	n/a	n/a	0	0	0
3862727	WORD	wordpools/wasnorm_wordpool_576.txt	LTP386	ltpFR2	14	19	SHARK	1275	n/a	n/a	0	0	0
3865352	WORD	wordpools/wasnorm_wordpool_576.txt	LTP386	ltpFR2	14	19	MUMMY	932	n/a	n/a	0	0	0
3868129	WORD	wordpools/wasnorm_wordpool_576.txt	LTP386	ltpFR2	14	19	VAGRANT	1544	n/a	n/a	0	0	0
3870552	WORD	wordpools/wasnorm_wordpool_576.txt	LTP386	ltpFR2	14	19	COMET	353	n/a	n/a	0	0	0
3872993	WORD	wordpools/wasnorm_wordpool_576.txt	LTP386	ltpFR2	14	19	TOMBSTONE	1478	n/a	n/a	0	0	0
3875652	WORD	wordpools/wasnorm_wordpool_576.txt	LTP386	ltpFR2	14	19	STOVE	1388	n/a	n/a	0	0	0
3878444	WORD	wordpools/wasnorm_wordpool_576.txt	LTP386	ltpFR2	14	19	HUMAN	726	n/a	n/a	0	0	0
3881220	WORD	wordpools/wasnorm_wordpool_576.txt	LTP386	ltpFR2	14	19	COURSE	390	n/a	n/a	0	0	0
3883761	WORD	wordpools/wasnorm_wordpool_576.txt	LTP386	ltpFR2	14	19	PRINCESS	1125	n/a	n/a	0	0	0
3886236	WORD	wordpools/wasnorm_wordpool_576.txt	LTP386	ltpFR2	14	19	STAR	1373	n/a	n/a	0	0	0
3888962	WORD	wordpools/wasnorm_wordpool_576.txt	LTP386	ltpFR2	14	19	STALLION	1369	n/a	n/a	0	0	0
3891470	WORD	wordpools/wasnorm_wordpool_576.txt	LTP386	ltpFR2	14	19	BODY	145	n/a	n/a	0	0	0
3894229	WORD	wordpools/wasnorm_wordpool_576.txt	LTP386	ltpFR2	14	19	ARM	38	n/a	n/a	0	0	0
3896837	WORD	wordpools/wasnorm_wordpool_576.txt	LTP386	ltpFR2	14	19	ROBIN	1199	n/a	n/a	0	0	0
3899312	WORD	wordpools/wasnorm_wordpool_576.txt	LTP386	ltpFR2	14	19	SKILLET	1317	n/a	n/a	0	0	0
3901870	WORD	wordpools/wasnorm_wordpool_576.txt	LTP386	ltpFR2	14	19	TRENCH	1503	n/a	n/a	0	0	0
3904445	WORD	wordpools/wasnorm_wordpool_576.txt	LTP386	ltpFR2	14	19	DRESSER	496	n/a	n/a	0	0	0
3907155	WORD	wordpools/wasnorm_wordpool_576.txt	LTP386	ltpFR2	14	19	YACHT	1629	n/a	n/a	0	0	0
3909712	WORD	wordpools/wasnorm_wordpool_576.txt	LTP386	ltpFR2	14	19	EMPIRE	530	n/a	n/a	0	0	0
3912237	WORD	wordpools/wasnorm_wordpool_576.txt	LTP386	ltpFR2	14	19	DONKEY	484	n/a	n/a	0	0	0
3915029	WORD	wordpools/wasnorm_wordpool_576.txt	LTP386	ltpFR2	14	19	ZEBRA	1635	n/a	n/a	0	0	0
3917621	WORD	wordpools/wasnorm_wordpool_576.txt	LTP386	ltpFR2	14	19	FIREMAN	569	n/a	n/a	0	0	0
3920046	WORD	wordpools/wasnorm_wordpool_576.txt	LTP386	ltpFR2	14	19	FIREPLACE	570	n/a	n/a	0	0	0
3921651	START	n/a	LTP386	ltpFR2	14	n/a	n/a	n/a	27	n/a	n/a	n/a	n/a
3922685	DISTRACTOR	n/a	LTP386	ltpFR2	14	19	n/a	n/a	n/a	n/a	0	0	0
3922687	PROB	n/a	LTP386	ltpFR2	14	n/a	n/a	n/a	27	18	7	5	6
3924343	PROB	n/a	LTP386	ltpFR2	14	n/a	n/a	n/a	27	20	8	6	6
3925446	PROB	n/a	LTP386	ltpFR2	14	n/a	n/a	n/a	27	22	9	9	4
3927269	PROB	n/a	LTP386	ltpFR2	14	n/a	n/a	n/a	27	9	4	1	4
3928372	PROB	n/a	LTP386	ltpFR2	14	n/a	n/a	n/a	27	18	5	7	6
3930596	PROB	n/a	LTP386	ltpFR2	14	n/a	n/a	n/a	27	10	7	2	1
3931850	PROB	n/a	LTP386	ltpFR2	14	n/a	n/a	n/a	27	8	1	6	1
3932820	PROB	n/a	LTP386	ltpFR2	14	n/a	n/a	n/a	27	7	1	1	5
3933874	PROB	n/a	LTP386	ltpFR2	14	n/a	n/a	n/a	27	8	1	1	6
3934927	PROB	n/a	LTP386	ltpFR2	14	n/a	n/a	n/a	27	14	1	8	5
3936800	PROB	n/a	LTP386	ltpFR2	14	n/a	n/a	n/a	27	15	8	2	5
3938122	PROB	n/a	LTP386	ltpFR2	14	n/a	n/a	n/a	27	24	9	6	9
3939709	PROB	n/a	LTP386	ltpFR2	14	n/a	n/a	n/a	27	21	5	8	8
3941833	PROB	n/a	LTP386	ltpFR2	14	n/a	n/a	n/a	27	17	7	6	4
3942970	PROB	n/a	LTP386	ltpFR2	14	n/a	n/a	n/a	27	14	5	6	3
3945527	STOP	n/a	LTP386	ltpFR2	14	n/a	n/a	n/a	27	n/a	n/a	n/a	n/a
3947535	REC_START	n/a	LTP386	ltpFR2	14	19	n/a	n/a	n/a	n/a	0	0	0
3967414	REC_WORD	wordpools/wasnorm_wordpool_576.txt	LTP386	ltpFR2	14	19	PRINCESS	1125	n/a	n/a	0	0	0
3968309	REC_WORD	wordpools/wasnorm_wordpool_576.txt	LTP386	ltpFR2	14	19	HUSBAND	728	n/a	n/a	0	0	0
3973951	REC_WORD	wordpools/wasnorm_wordpool_576.txt	LTP386	ltpFR2	14	19	HUMAN	726	n/a	n/a	0	0	0
3974987	REC_WORD	wordpools/wasnorm_wordpool_576.txt	LTP386	ltpFR2	14	19	TOMBSTONE	1478	n/a	n/a	0	0	0
4037977	DISTRACTOR	n/a	LTP386	ltpFR2	14	20	n/a	n/a	n/a	n/a	0	0	0
4037978	START	n/a	LTP386	ltpFR2	14	n/a	n/a	n/a	28	n/a	n/a	n/a	n/a
4037994	PROB	n/a	LTP386	ltpFR2	14	n/a	n/a	n/a	28	10	5	2	3
4039416	PROB	n/a	LTP386	ltpFR2	14	n/a	n/a	n/a	28	15	4	2	9
4040603	PROB	n/a	LTP386	ltpFR2	14	n/a	n/a	n/a	28	15	6	7	2
4043328	PROB	n/a	LTP386	ltpFR2	14	n/a	n/a	n/a	28	13	6	1	6
4045067	PROB	n/a	LTP386	ltpFR2	14	n/a	n/a	n/a	28	16	5	6	5
4046455	PROB	n/a	LTP386	ltpFR2	14	n/a	n/a	n/a	28	14	3	5	6
4047826	PROB	n/a	LTP386	ltpFR2	14	n/a	n/a	n/a	28	11	6	2	3
4049148	PROB	n/a	LTP386	ltpFR2	14	n/a	n/a	n/a	28	20	8	5	7
4050936	PROB	n/a	LTP386	ltpFR2	14	n/a	n/a	n/a	28	12	9	2	1
4052658	PROB	n/a	LTP386	ltpFR2	14	n/a	n/a	n/a	28	17	5	7	5
4054013	PROB	n/a	LTP386	ltpFR2	14	n/a	n/a	n/a	28	20	4	7	9
4055417	PROB	n/a	LTP386	ltpFR2	14	n/a	n/a	n/a	28	18	5	5	8
4056370	PROB	n/a	LTP386	ltpFR2	14	n/a	n/a	n/a	28	11	4	1	6
4057407	PROB	n/a	LTP386	ltpFR2	14	n/a	n/a	n/a	28	25	8	8	9
4058695	PROB	n/a	LTP386	ltpFR2	14	n/a	n/a	n/a	28	15	2	8	5
4061002	STOP	n/a	LTP386	ltpFR2	14	n/a	n/a	n/a	28	n/a	n/a	n/a	n/a
4063143	WORD	wordpools/wasnorm_wordpool_576.txt	LTP386	ltpFR2	14	20	FILM	565	n/a	n/a	0	0	0
4065935	WORD	wordpools/wasnorm_wordpool_576.txt	LTP386	ltpFR2	14	20	SCULPTURE	1258	n/a	n/a	0	0	0
4068710	WORD	wordpools/wasnorm_wordpool_576.txt	LTP386	ltpFR2	14	20	FOOTBALL	591	n/a	n/a	0	0	0
4071486	WORD	wordpools/wasnorm_wordpool_576.txt	LTP386	ltpFR2	14	20	UMPIRE	1535	n/a	n/a	0	0	0
4073911	WORD	wordpools/wasnorm_wordpool_576.txt	LTP386	ltpFR2	14	20	PEBBLE	1035	n/a	n/a	0	0	0
4076552	WORD	wordpools/wasnorm_wordpool_576.txt	LTP386	ltpFR2	14	20	MILK	895	n/a	n/a	0	0	0
4079162	WORD	wordpools/wasnorm_wordpool_576.txt	LTP386	ltpFR2	14	20	BISON	131	n/a	n/a	0	0	0
4081669	WORD	wordpools/wasnorm_wordpool_576.txt	LTP386	ltpFR2	14	20	RABBIT	1152	n/a	n/a	0	0	0
4084227	WORD	wordpools/wasnorm_wordpool_576.txt	LTP386	ltpFR2	14	20	GAVEL	627	n/a	n/a	0	0	0
4086802	WORD	wordpools/wasnorm_wordpool_576.txt	LTP386	ltpFR2	14	20	BUG	187	n/a	n/a	0	0	0
4089461	WORD	wordpools/wasnorm_wordpool_576.txt	LTP386	ltpFR2	14	20	RACKET	1155	n/a	n/a	0	0	0
4091952	WORD	wordpools/wasnorm_wordpool_576.txt	LTP386	ltpFR2	14	20	NOTEBOOK	959	n/a	n/a	0	0	0
4094393	WORD	wordpools/wasnorm_wordpool_576.txt	LTP386	ltpFR2	14	20	FREEZER	604	n/a	n/a	0	0	0
4097203	WORD	wordpools/wasnorm_wordpool_576.txt	LTP386	ltpFR2	14	20	CATCHER	258	n/a	n/a	0	0	0
4099711	WORD	wordpools/wasnorm_wordpool_576.txt	LTP386	ltpFR2	14	20	DRAGON	492	n/a	n/a	0	0	0
4102235	WORD	wordpools/wasnorm_wordpool_576.txt	LTP386	ltpFR2	14	20	OUTFIT	988	n/a	n/a	0	0	0
4105045	WORD	wordpools/wasnorm_wordpool_576.txt	LTP386	ltpFR2	14	20	MARKER	870	n/a	n/a	0	0	0
4107503	WORD	wordpools/wasnorm_wordpool_576.txt	LTP386	ltpFR2	14	20	PARSLEY	1016	n/a	n/a	0	0	0
4110195	WORD	wordpools/wasnorm_wordpool_576.txt	LTP386	ltpFR2	14	20	CARROT	249	n/a	n/a	0	0	0
4112970	WORD	wordpools/wasnorm_wordpool_576.txt	LTP386	ltpFR2	14	20	PEANUT	1032	n/a	n/a	0	0	0
4115579	WORD	wordpools/wasnorm_wordpool_576.txt	LTP386	ltpFR2	14	20	BANKER	84	n/a	n/a	0	0	0
4118037	WORD	wordpools/wasnorm_wordpool_576.txt	LTP386	ltpFR2	14	20	PLUTO	1092	n/a	n/a	0	0	0
4120628	WORD	wordpools/wasnorm_wordpool_576.txt	LTP386	ltpFR2	14	20	VENUS	1557	n/a	n/a	0	0	0
4123287	WORD	wordpools/wasnorm_wordpool_576.txt	LTP386	ltpFR2	14	20	NAPKIN	937	n/a	n/a	0	0	0
4124892	START	n/a	LTP386	ltpFR2	14	n/a	n/a	n/a	29	n/a	n/a	n/a	n/a
4126038	DISTRACTOR	n/a	LTP386	ltpFR2	14	20	n/a	n/a	n/a	n/a	0	0	0
4126046	PROB	n/a	LTP386	ltpFR2	14	n/a	n/a	n/a	29	9	6	1	2
4127517	PROB	n/a	LTP386	ltpFR2	14	n/a	n/a	n/a	29	14	8	5	1
4128872	PROB	n/a	LTP386	ltpFR2	14	n/a	n/a	n/a	29	14	9	4	1
4130059	PROB	n/a	LTP386	ltpFR2	14	n/a	n/a	n/a	29	13	6	2	5
4131497	PROB	n/a	LTP386	ltpFR2	14	n/a	n/a	n/a	29	8	2	3	3
4132868	PROB	n/a	LTP386	ltpFR2	14	n/a	n/a	n/a	29	23	9	5	9
4135093	PROB	n/a	LTP386	ltpFR2	14	n/a	n/a	n/a	29	1	6	1	5
4136346	PROB	n/a	LTP386	ltpFR2	14	n/a	n/a	n/a	29	14	3	9	2
4137834	PROB	n/a	LTP386	ltpFR2	14	n/a	n/a	n/a	29	12	6	5	1
4138821	PROB	n/a	LTP386	ltpFR2	14	n/a	n/a	n/a	29	13	7	5	1
4141195	PROB	n/a	LTP386	ltpFR2	14	n/a	n/a	n/a	29	8	1	4	3
4142198	PROB	n/a	LTP386	ltpFR2	14	n/a	n/a	n/a	29	20	4	9	7
4143369	PROB	n/a	LTP386	ltpFR2	14	n/a	n/a	n/a	29	20	6	5	9
4144489	PROB	n/a	LTP386	ltpFR2	14	n/a	n/a	n/a	29	15	8	6	1
4145760	PROB	n/a	LTP386	ltpFR2	14	n/a	n/a	n/a	29	9	3	1	5
4147064	PROB	n/a	LTP386	ltpFR2	14	n/a	n/a	n/a	29	20	3	8	9
4148675	STOP	n/a	LTP386	ltpFR2	14	n/a	n/a	n/a	29	n/a	n/a	n/a	n/a
4150693	REC_START	n/a	LTP386	ltpFR2	14	20	n/a	n/a	n/a	n/a	0	0	0
4151423	REC_WORD	wordpools/wasnorm_wordpool_576.txt	LTP386	ltpFR2	14	20	UMPIRE	1535	n/a	n/a	0	0	0
4152218	REC_WORD	wordpools/wasnorm_wordpool_576.txt	LTP386	ltpFR2	14	20	NOTEBOOK	959	n/a	n/a	0	0	0
4152914	REC_WORD	wordpools/wasnorm_wordpool_576.txt	LTP386	ltpFR2	14	20	FOOTBALL	591	n/a	n/a	0	0	0
4159565	REC_WORD	wordpools/wasnorm_wordpool_576.txt	LTP386	ltpFR2	14	20	RACKET	1155	n/a	n/a	0	0	0
4163685	REC_WORD	wordpools/wasnorm_wordpool_576.txt	LTP386	ltpFR2	14	20	BISON	131	n/a	n/a	0	0	0
4164806	REC_WORD	wordpools/wasnorm_wordpool_576.txt	LTP386	ltpFR2	14	20	RABBIT	1152	n/a	n/a	0	0	0
4167274	REC_WORD	wordpools/wasnorm_wordpool_576.txt	LTP386	ltpFR2	14	20	DRAGON	492	n/a	n/a	0	0	0
4171981	REC_WORD	wordpools/wasnorm_wordpool_576.txt	LTP386	ltpFR2	14	20	VENUS	1557	n/a	n/a	0	0	0
4173551	REC_WORD	wordpools/wasnorm_wordpool_576.txt	LTP386	ltpFR2	14	20	CARROT	249	n/a	n/a	0	0	0
4241136	DISTRACTOR	n/a	LTP386	ltpFR2	14	21	n/a	n/a	n/a	n/a	0	0	0
4241136	START	n/a	LTP386	ltpFR2	14	n/a	n/a	n/a	30	n/a	n/a	n/a	n/a
4241153	PROB	n/a	LTP386	ltpFR2	14	n/a	n/a	n/a	30	5	2	2	1
4242239	PROB	n/a	LTP386	ltpFR2	14	n/a	n/a	n/a	30	7	2	3	5
4243794	PROB	n/a	LTP386	ltpFR2	14	n/a	n/a	n/a	30	13	2	2	9
4244931	PROB	n/a	LTP386	ltpFR2	14	n/a	n/a	n/a	30	11	1	3	7
4245968	PROB	n/a	LTP386	ltpFR2	14	n/a	n/a	n/a	30	14	4	9	1
4247021	PROB	n/a	LTP386	ltpFR2	14	n/a	n/a	n/a	30	15	6	2	7
4248793	PROB	n/a	LTP386	ltpFR2	14	n/a	n/a	n/a	30	13	1	4	8
4250733	PROB	n/a	LTP386	ltpFR2	14	n/a	n/a	n/a	30	1	9	7	3
4251954	PROB	n/a	LTP386	ltpFR2	14	n/a	n/a	n/a	30	12	7	4	1
4254145	PROB	n/a	LTP386	ltpFR2	14	n/a	n/a	n/a	30	18	7	8	3
4256084	PROB	n/a	LTP386	ltpFR2	14	n/a	n/a	n/a	30	22	7	9	6
4258374	PROB	n/a	LTP386	ltpFR2	14	n/a	n/a	n/a	30	15	4	2	9
4259829	PROB	n/a	LTP386	ltpFR2	14	n/a	n/a	n/a	30	7	3	1	3
4260899	PROB	n/a	LTP386	ltpFR2	14	n/a	n/a	n/a	30	14	1	8	5
4262822	PROB	n/a	LTP386	ltpFR2	14	n/a	n/a	n/a	30	15	4	8	3
4263872	STOP	n/a	LTP386	ltpFR2	14	n/a	n/a	n/a	30	n/a	n/a	n/a	n/a
4266083	WORD	wordpools/wasnorm_wordpool_576.txt	LTP386	ltpFR2	14	21	PASTA	1021	n/a	n/a	0	0	0
4268674	WORD	wordpools/wasnorm_wordpool_576.txt	LTP386	ltpFR2	14	21	BANQUET	86	n/a	n/a	0	0	0
4271383	WORD	wordpools/wasnorm_wordpool_576.txt	LTP386	ltpFR2	14	21	BRICK	172	n/a	n/a	0	0	0
4273958	WORD	wordpools/wasnorm_wordpool_576.txt	LTP386	ltpFR2	14	21	WHISKERS	1605	n/a	n/a	0	0	0
4276617	WORD	wordpools/wasnorm_wordpool_576.txt	LTP386	ltpFR2	14	21	TWEEZERS	1526	n/a	n/a	0	0	0
4279292	WORD	wordpools/wasnorm_wordpool_576.txt	LTP386	ltpFR2	14	21	PROTON	1132	n/a	n/a	0	0	0
4281984	WORD	wordpools/wasnorm_wordpool_576.txt	LTP386	ltpFR2	14	21	NEUTRON	947	n/a	n/a	0	0	0
4284660	WORD	wordpools/wasnorm_wordpool_576.txt	LTP386	ltpFR2	14	21	JELLO	754	n/a	n/a	0	0	0
4287102	WORD	wordpools/wasnorm_wordpool_576.txt	LTP386	ltpFR2	14	21	JUGGLER	763	n/a	n/a	0	0	0
4289626	WORD	wordpools/wasnorm_wordpool_576.txt	LTP386	ltpFR2	14	21	MATTRESS	879	n/a	n/a	0	0	0
4292217	WORD	wordpools/wasnorm_wordpool_576.txt	LTP386	ltpFR2	14	21	POSSUM	1112	n/a	n/a	0	0	0
4294926	WORD	wordpools/wasnorm_wordpool_576.txt	LTP386	ltpFR2	14	21	CAPTIVE	240	n/a	n/a	0	0	0
4297501	WORD	wordpools/wasnorm_wordpool_576.txt	LTP386	ltpFR2	14	21	CHEST	295	n/a	n/a	0	0	0
4300076	WORD	wordpools/wasnorm_wordpool_576.txt	LTP386	ltpFR2	14	21	ROOSTER	1209	n/a	n/a	0	0	0
4302735	WORD	wordpools/wasnorm_wordpool_576.txt	LTP386	ltpFR2	14	21	PATROL	1027	n/a	n/a	0	0	0
4305226	WORD	wordpools/wasnorm_wordpool_576.txt	LTP386	ltpFR2	14	21	LIZARD	834	n/a	n/a	0	0	0
4307784	WORD	wordpools/wasnorm_wordpool_576.txt	LTP386	ltpFR2	14	21	MONSTER	912	n/a	n/a	0	0	0
4310259	WORD	wordpools/wasnorm_wordpool_576.txt	LTP386	ltpFR2	14	21	LUNCH	849	n/a	n/a	0	0	0
4312750	WORD	wordpools/wasnorm_wordpool_576.txt	LTP386	ltpFR2	14	21	DANDRUFF	439	n/a	n/a	0	0	0
4315509	WORD	wordpools/wasnorm_wordpool_576.txt	LTP386	ltpFR2	14	21	PUDDING	1139	n/a	n/a	0	0	0
4318119	WORD	wordpools/wasnorm_wordpool_576.txt	LTP386	ltpFR2	14	21	PERFUME	1049	n/a	n/a	0	0	0
4320676	WORD	wordpools/wasnorm_wordpool_576.txt	LTP386	ltpFR2	14	21	WAITER	1580	n/a	n/a	0	0	0
4323485	WORD	wordpools/wasnorm_wordpool_576.txt	LTP386	ltpFR2	14	21	DRIVER	499	n/a	n/a	0	0	0
4325993	WORD	wordpools/wasnorm_wordpool_576.txt	LTP386	ltpFR2	14	21	TAXI	1438	n/a	n/a	0	0	0
4327599	START	n/a	LTP386	ltpFR2	14	n/a	n/a	n/a	31	n/a	n/a	n/a	n/a
4328543	DISTRACTOR	n/a	LTP386	ltpFR2	14	21	n/a	n/a	n/a	n/a	0	0	0
4328552	PROB	n/a	LTP386	ltpFR2	14	n/a	n/a	n/a	31	10	4	5	1
4329722	PROB	n/a	LTP386	ltpFR2	14	n/a	n/a	n/a	31	10	2	3	5
4331411	PROB	n/a	LTP386	ltpFR2	14	n/a	n/a	n/a	31	15	2	6	7
4332832	PROB	n/a	LTP386	ltpFR2	14	n/a	n/a	n/a	31	17	7	6	4
4334019	PROB	n/a	LTP386	ltpFR2	14	n/a	n/a	n/a	31	14	3	7	4
4335357	PROB	n/a	LTP386	ltpFR2	14	n/a	n/a	n/a	31	18	9	5	4
4336427	PROB	n/a	LTP386	ltpFR2	14	n/a	n/a	n/a	31	23	8	7	8
4338300	PROB	n/a	LTP386	ltpFR2	14	n/a	n/a	n/a	31	16	2	8	6
4340090	PROB	n/a	LTP386	ltpFR2	14	n/a	n/a	n/a	31	11	5	1	5
4341059	PROB	n/a	LTP386	ltpFR2	14	n/a	n/a	n/a	31	8	5	2	1
4342130	PROB	n/a	LTP386	ltpFR2	14	n/a	n/a	n/a	31	12	8	3	1
4343550	PROB	n/a	LTP386	ltpFR2	14	n/a	n/a	n/a	31	16	3	4	9
4344888	PROB	n/a	LTP386	ltpFR2	14	n/a	n/a	n/a	31	11	1	3	7
4345841	PROB	n/a	LTP386	ltpFR2	14	n/a	n/a	n/a	31	14	4	7	3
4346944	PROB	n/a	LTP386	ltpFR2	14	n/a	n/a	n/a	31	244	9	8	7
4348616	PROB	n/a	LTP386	ltpFR2	14	n/a	n/a	n/a	31	18	7	6	5
4350867	STOP	n/a	LTP386	ltpFR2	14	n/a	n/a	n/a	31	n/a	n/a	n/a	n/a
4353516	REC_START	n/a	LTP386	ltpFR2	14	21	n/a	n/a	n/a	n/a	0	0	0
4354033	REC_WORD	wordpools/wasnorm_wordpool_576.txt	LTP386	ltpFR2	14	21	DANDRUFF	439	n/a	n/a	0	0	0
4354852	REC_WORD	wordpools/wasnorm_wordpool_576.txt	LTP386	ltpFR2	14	21	ROOSTER	1209	n/a	n/a	0	0	0
4356063	REC_WORD	wordpools/wasnorm_wordpool_576.txt	LTP386	ltpFR2	14	21	BRICK	172	n/a	n/a	0	0	0
4357212	REC_WORD	wordpools/wasnorm_wordpool_576.txt	LTP386	ltpFR2	14	21	BANQUET	86	n/a	n/a	0	0	0
4358970	REC_WORD	wordpools/wasnorm_wordpool_576.txt	LTP386	ltpFR2	14	21	JELLO	754	n/a	n/a	0	0	0
4359980	REC_WORD_VV	wordpools/wasnorm_wordpool_576.txt	LTP386	ltpFR2	14	21	<>	-1	n/a	n/a	0	0	0
4360315	REC_WORD	wordpools/wasnorm_wordpool_576.txt	LTP386	ltpFR2	14	21	PROTON	1132	n/a	n/a	0	0	0
4361400	REC_WORD	wordpools/wasnorm_wordpool_576.txt	LTP386	ltpFR2	14	21	NEUTRON	947	n/a	n/a	0	0	0
4380752	REC_WORD	wordpools/wasnorm_wordpool_576.txt	LTP386	ltpFR2	14	21	PASTA	1021	n/a	n/a	0	0	0
4381558	REC_WORD	wordpools/wasnorm_wordpool_576.txt	LTP386	ltpFR2	14	21	LUNCH	849	n/a	n/a	0	0	0
4389115	REC_WORD	wordpools/wasnorm_wordpool_576.txt	LTP386	ltpFR2	14	21	PATROL	1027	n/a	n/a	0	0	0
4389906	REC_WORD	wordpools/wasnorm_wordpool_576.txt	LTP386	ltpFR2	14	21	LIZARD	834	n/a	n/a	0	0	0
4390470	REC_WORD	wordpools/wasnorm_wordpool_576.txt	LTP386	ltpFR2	14	21	MONSTER	912	n/a	n/a	0	0	0
4443959	DISTRACTOR	n/a	LTP386	ltpFR2	14	22	n/a	n/a	n/a	n/a	0	0	0
4443959	START	n/a	LTP386	ltpFR2	14	n/a	n/a	n/a	32	n/a	n/a	n/a	n/a
4443975	PROB	n/a	LTP386	ltpFR2	14	n/a	n/a	n/a	32	13	7	5	1
4445380	PROB	n/a	LTP386	ltpFR2	14	n/a	n/a	n/a	32	19	9	5	5
4446366	PROB	n/a	LTP386	ltpFR2	14	n/a	n/a	n/a	32	8	1	2	5
4447587	PROB	n/a	LTP386	ltpFR2	14	n/a	n/a	n/a	32	17	4	8	5
4449075	PROB	n/a	LTP386	ltpFR2	14	n/a	n/a	n/a	32	12	7	2	3
4450580	PROB	n/a	LTP386	ltpFR2	14	n/a	n/a	n/a	32	12	2	5	5
4451583	PROB	n/a	LTP386	ltpFR2	14	n/a	n/a	n/a	32	9	4	4	1
4452620	PROB	n/a	LTP386	ltpFR2	14	n/a	n/a	n/a	32	16	3	9	4
4454543	PROB	n/a	LTP386	ltpFR2	14	n/a	n/a	n/a	32	8	1	4	3
4455563	PROB	n/a	LTP386	ltpFR2	14	n/a	n/a	n/a	32	5	1	2	2
4456566	PROB	n/a	LTP386	ltpFR2	14	n/a	n/a	n/a	32	14	5	5	4
4457553	PROB	n/a	LTP386	ltpFR2	14	n/a	n/a	n/a	32	11	9	1	1
4458506	PROB	n/a	LTP386	ltpFR2	14	n/a	n/a	n/a	32	22	6	7	9
4460378	PROB	n/a	LTP386	ltpFR2	14	n/a	n/a	n/a	32	25	9	8	8
4461900	PROB	n/a	LTP386	ltpFR2	14	n/a	n/a	n/a	32	12	3	1	8
4463422	PROB	n/a	LTP386	ltpFR2	14	n/a	n/a	n/a	32	14	5	8	1
4465478	PROB	n/a	LTP386	ltpFR2	14	n/a	n/a	n/a	32	10	6	3	1
4466902	STOP	n/a	LTP386	ltpFR2	14	n/a	n/a	n/a	32	n/a	n/a	n/a	n/a
4468939	WORD	wordpools/wasnorm_wordpool_576.txt	LTP386	ltpFR2	14	22	GUITAR	670	n/a	n/a	0	0	0
4471498	WORD	wordpools/wasnorm_wordpool_576.txt	LTP386	ltpFR2	14	22	REPORT	1184	n/a	n/a	0	0	0
4474006	WORD	wordpools/wasnorm_wordpool_576.txt	LTP386	ltpFR2	14	22	CHURCH	307	n/a	n/a	0	0	0
4476430	WORD	wordpools/wasnorm_wordpool_576.txt	LTP386	ltpFR2	14	22	SEAGULL	1261	n/a	n/a	0	0	0
