onset	duration	trial_type	sample	stim_file	subject	experiment	session	trial	item_name	item_num	list	answer	test_x	test_y	test_z
258.478	n/a	SESS_START	129239	n/a	LTP115	ltpFR2	10	n/a	n/a	n/a	n/a	n/a	0	0	0
296.054	n/a	START	148027	n/a	LTP115	ltpFR2	10	n/a	n/a	n/a	-1	n/a	n/a	n/a	n/a
296.104	n/a	PROB	148052	n/a	LTP115	ltpFR2	10	n/a	n/a	n/a	-1	14	4	4	6
297.544	n/a	PROB	148772	n/a	LTP115	ltpFR2	10	n/a	n/a	n/a	-1	12	7	1	4
298.726	n/a	PROB	149363	n/a	LTP115	ltpFR2	10	n/a	n/a	n/a	-1	9	2	4	3
300.84	n/a	PROB	150420	n/a	LTP115	ltpFR2	10	n/a	n/a	n/a	-1	15	4	4	7
302.328	n/a	PROB	151164	n/a	LTP115	ltpFR2	10	n/a	n/a	n/a	-1	17	6	7	4
303.952	n/a	PROB	151976	n/a	LTP115	ltpFR2	10	n/a	n/a	n/a	-1	11	2	2	7
305.456	n/a	PROB	152728	n/a	LTP115	ltpFR2	10	n/a	n/a	n/a	-1	23	6	7	8
307.402	n/a	STOP	153701	n/a	LTP115	ltpFR2	10	n/a	n/a	n/a	-1	n/a	n/a	n/a	n/a
354.394	n/a	DISTRACTOR	177197	n/a	LTP115	ltpFR2	10	1	n/a	n/a	n/a	n/a	0	0	0
354.394	n/a	START	177197	n/a	LTP115	ltpFR2	10	n/a	n/a	n/a	1	n/a	n/a	n/a	n/a
354.444	n/a	PROB	177222	n/a	LTP115	ltpFR2	10	n/a	n/a	n/a	1	9	1	2	6
355.698	n/a	PROB	177849	n/a	LTP115	ltpFR2	10	n/a	n/a	n/a	1	17	8	6	3
357.356	n/a	PROB	178678	n/a	LTP115	ltpFR2	10	n/a	n/a	n/a	1	9	2	2	5
358.626	n/a	PROB	179313	n/a	LTP115	ltpFR2	10	n/a	n/a	n/a	1	15	5	1	9
359.764	n/a	PROB	179882	n/a	LTP115	ltpFR2	10	n/a	n/a	n/a	1	17	8	6	3
361.404	n/a	PROB	180702	n/a	LTP115	ltpFR2	10	n/a	n/a	n/a	1	11	1	9	1
362.44	n/a	PROB	181220	n/a	LTP115	ltpFR2	10	n/a	n/a	n/a	1	19	8	6	5
363.746	n/a	PROB	181873	n/a	LTP115	ltpFR2	10	n/a	n/a	n/a	1	12	3	5	4
364.934	n/a	PROB	182467	n/a	LTP115	ltpFR2	10	n/a	n/a	n/a	1	15	9	4	2
366.874	n/a	PROB	183437	n/a	LTP115	ltpFR2	10	n/a	n/a	n/a	1	10	4	5	1
367.942	n/a	PROB	183971	n/a	LTP115	ltpFR2	10	n/a	n/a	n/a	1	14	2	5	7
369.78	n/a	PROB	184890	n/a	LTP115	ltpFR2	10	n/a	n/a	n/a	1	12	5	6	1
370.784	n/a	PROB	185392	n/a	LTP115	ltpFR2	10	n/a	n/a	n/a	1	19	9	5	5
371.89	n/a	PROB	185945	n/a	LTP115	ltpFR2	10	n/a	n/a	n/a	1	9	4	4	1
372.928	n/a	PROB	186464	n/a	LTP115	ltpFR2	10	n/a	n/a	n/a	1	19	3	8	8
374.566	n/a	PROB	187283	n/a	LTP115	ltpFR2	10	n/a	n/a	n/a	1	8	1	6	1
375.688	n/a	PROB	187844	n/a	LTP115	ltpFR2	10	n/a	n/a	n/a	1	14	1	7	6
376.928	n/a	STOP	188464	n/a	LTP115	ltpFR2	10	n/a	n/a	n/a	1	n/a	n/a	n/a	n/a
379.39	n/a	WORD	189695	wordpools/wasnorm_wordpool_576.txt	LTP115	ltpFR2	10	1	ACTOR	5	n/a	n/a	0	0	0
382.012	n/a	WORD	191006	wordpools/wasnorm_wordpool_576.txt	LTP115	ltpFR2	10	1	FRIEND	606	n/a	n/a	0	0	0
384.626	n/a	WORD	192313	wordpools/wasnorm_wordpool_576.txt	LTP115	ltpFR2	10	1	TAXI	1438	n/a	n/a	0	0	0
387.114	n/a	WORD	193557	wordpools/wasnorm_wordpool_576.txt	LTP115	ltpFR2	10	1	CLAMP	316	n/a	n/a	0	0	0
389.662	n/a	WORD	194831	wordpools/wasnorm_wordpool_576.txt	LTP115	ltpFR2	10	1	WOMAN	1620	n/a	n/a	0	0	0
392.288	n/a	WORD	196144	wordpools/wasnorm_wordpool_576.txt	LTP115	ltpFR2	10	1	BOX	159	n/a	n/a	0	0	0
394.714	n/a	WORD	197357	wordpools/wasnorm_wordpool_576.txt	LTP115	ltpFR2	10	1	BINDER	127	n/a	n/a	0	0	0
397.492	n/a	WORD	198746	wordpools/wasnorm_wordpool_576.txt	LTP115	ltpFR2	10	1	EYELASH	546	n/a	n/a	0	0	0
400.07	n/a	WORD	200035	wordpools/wasnorm_wordpool_576.txt	LTP115	ltpFR2	10	1	CREATURE	403	n/a	n/a	0	0	0
402.624	n/a	WORD	201312	wordpools/wasnorm_wordpool_576.txt	LTP115	ltpFR2	10	1	STOVE	1388	n/a	n/a	0	0	0
405.2	n/a	WORD	202600	wordpools/wasnorm_wordpool_576.txt	LTP115	ltpFR2	10	1	UMPIRE	1535	n/a	n/a	0	0	0
407.742	n/a	WORD	203871	wordpools/wasnorm_wordpool_576.txt	LTP115	ltpFR2	10	1	BISON	131	n/a	n/a	0	0	0
410.308	n/a	WORD	205154	wordpools/wasnorm_wordpool_576.txt	LTP115	ltpFR2	10	1	BARREL	91	n/a	n/a	0	0	0
413.018	n/a	WORD	206509	wordpools/wasnorm_wordpool_576.txt	LTP115	ltpFR2	10	1	BLACKBOARD	133	n/a	n/a	0	0	0
415.824	n/a	WORD	207912	wordpools/wasnorm_wordpool_576.txt	LTP115	ltpFR2	10	1	CUSTARD	429	n/a	n/a	0	0	0
418.6	n/a	WORD	209300	wordpools/wasnorm_wordpool_576.txt	LTP115	ltpFR2	10	1	MUMMY	932	n/a	n/a	0	0	0
421.394	n/a	WORD	210697	wordpools/wasnorm_wordpool_576.txt	LTP115	ltpFR2	10	1	MISTER	901	n/a	n/a	0	0	0
423.976	n/a	WORD	211988	wordpools/wasnorm_wordpool_576.txt	LTP115	ltpFR2	10	1	LADY	794	n/a	n/a	0	0	0
426.586	n/a	WORD	213293	wordpools/wasnorm_wordpool_576.txt	LTP115	ltpFR2	10	1	CATCHER	258	n/a	n/a	0	0	0
429.242	n/a	WORD	214621	wordpools/wasnorm_wordpool_576.txt	LTP115	ltpFR2	10	1	WIDOW	1608	n/a	n/a	0	0	0
432.02	n/a	WORD	216010	wordpools/wasnorm_wordpool_576.txt	LTP115	ltpFR2	10	1	LOVER	846	n/a	n/a	0	0	0
434.65	n/a	WORD	217325	wordpools/wasnorm_wordpool_576.txt	LTP115	ltpFR2	10	1	HEADBAND	696	n/a	n/a	0	0	0
437.16	n/a	WORD	218580	wordpools/wasnorm_wordpool_576.txt	LTP115	ltpFR2	10	1	CHEST	295	n/a	n/a	0	0	0
439.916	n/a	WORD	219958	wordpools/wasnorm_wordpool_576.txt	LTP115	ltpFR2	10	1	HOUND	724	n/a	n/a	0	0	0
441.526	n/a	START	220763	n/a	LTP115	ltpFR2	10	n/a	n/a	n/a	2	n/a	n/a	n/a	n/a
442.586	n/a	DISTRACTOR	221293	n/a	LTP115	ltpFR2	10	1	n/a	n/a	n/a	n/a	0	0	0
442.598	n/a	PROB	221299	n/a	LTP115	ltpFR2	10	n/a	n/a	n/a	2	12	5	5	2
444.65	n/a	PROB	222325	n/a	LTP115	ltpFR2	10	n/a	n/a	n/a	2	21	6	9	6
447.578	n/a	PROB	223789	n/a	LTP115	ltpFR2	10	n/a	n/a	n/a	2	19	9	1	9
448.866	n/a	PROB	224433	n/a	LTP115	ltpFR2	10	n/a	n/a	n/a	2	12	3	1	8
449.956	n/a	PROB	224978	n/a	LTP115	ltpFR2	10	n/a	n/a	n/a	2	14	2	4	8
451.31	n/a	PROB	225655	n/a	LTP115	ltpFR2	10	n/a	n/a	n/a	2	12	1	4	7
452.564	n/a	PROB	226282	n/a	LTP115	ltpFR2	10	n/a	n/a	n/a	2	20	2	9	9
454.86	n/a	PROB	227430	n/a	LTP115	ltpFR2	10	n/a	n/a	n/a	2	12	3	3	6
456.412	n/a	PROB	228206	n/a	LTP115	ltpFR2	10	n/a	n/a	n/a	2	19	8	7	4
457.918	n/a	PROB	228959	n/a	LTP115	ltpFR2	10	n/a	n/a	n/a	2	18	3	6	9
459.858	n/a	PROB	229929	n/a	LTP115	ltpFR2	10	n/a	n/a	n/a	2	22	9	8	5
461.464	n/a	PROB	230732	n/a	LTP115	ltpFR2	10	n/a	n/a	n/a	2	18	7	9	2
462.954	n/a	PROB	231477	n/a	LTP115	ltpFR2	10	n/a	n/a	n/a	2	11	2	1	8
465.528	n/a	STOP	232764	n/a	LTP115	ltpFR2	10	n/a	n/a	n/a	2	n/a	n/a	n/a	n/a
467.476	n/a	REC_START	233738	n/a	LTP115	ltpFR2	10	1	n/a	n/a	n/a	n/a	0	0	0
469.564	n/a	REC_WORD	234782	wordpools/wasnorm_wordpool_576.txt	LTP115	ltpFR2	10	1	TAXI	1438	n/a	n/a	0	0	0
470.728	n/a	REC_WORD	235364	wordpools/wasnorm_wordpool_576.txt	LTP115	ltpFR2	10	1	FRIEND	606	n/a	n/a	0	0	0
473.632	n/a	REC_WORD	236816	wordpools/wasnorm_wordpool_576.txt	LTP115	ltpFR2	10	1	ACTOR	5	n/a	n/a	0	0	0
475.638	n/a	REC_WORD	237819	wordpools/wasnorm_wordpool_576.txt	LTP115	ltpFR2	10	1	CLAMP	316	n/a	n/a	0	0	0
477.024	n/a	REC_WORD	238512	wordpools/wasnorm_wordpool_576.txt	LTP115	ltpFR2	10	1	WOMAN	1620	n/a	n/a	0	0	0
480.172	n/a	REC_WORD	240086	wordpools/wasnorm_wordpool_576.txt	LTP115	ltpFR2	10	1	UMPIRE	1535	n/a	n/a	0	0	0
482.36	n/a	REC_WORD	241180	wordpools/wasnorm_wordpool_576.txt	LTP115	ltpFR2	10	1	CATCHER	258	n/a	n/a	0	0	0
483.89	n/a	REC_WORD	241945	wordpools/wasnorm_wordpool_576.txt	LTP115	ltpFR2	10	1	CHEST	295	n/a	n/a	0	0	0
485.058	n/a	REC_WORD	242529	wordpools/wasnorm_wordpool_576.txt	LTP115	ltpFR2	10	1	BISON	131	n/a	n/a	0	0	0
485.994	n/a	REC_WORD	242997	wordpools/wasnorm_wordpool_576.txt	LTP115	ltpFR2	10	1	BLACKBOARD	133	n/a	n/a	0	0	0
487.038	n/a	REC_WORD	243519	wordpools/wasnorm_wordpool_576.txt	LTP115	ltpFR2	10	1	CUSTARD	429	n/a	n/a	0	0	0
489.15	n/a	REC_WORD	244575	wordpools/wasnorm_wordpool_576.txt	LTP115	ltpFR2	10	1	LADY	794	n/a	n/a	0	0	0
489.974	n/a	REC_WORD	244987	wordpools/wasnorm_wordpool_576.txt	LTP115	ltpFR2	10	1	MUMMY	932	n/a	n/a	0	0	0
493.372	n/a	REC_WORD	246686	wordpools/wasnorm_wordpool_576.txt	LTP115	ltpFR2	10	1	CREATURE	403	n/a	n/a	0	0	0
494.45	n/a	REC_WORD	247225	wordpools/wasnorm_wordpool_576.txt	LTP115	ltpFR2	10	1	BOX	159	n/a	n/a	0	0	0
498.902	n/a	REC_WORD	249451	wordpools/wasnorm_wordpool_576.txt	LTP115	ltpFR2	10	1	BARREL	91	n/a	n/a	0	0	0
501.006	n/a	REC_WORD	250503	wordpools/wasnorm_wordpool_576.txt	LTP115	ltpFR2	10	1	MISTER	901	n/a	n/a	0	0	0
502.956	n/a	REC_WORD	251478	wordpools/wasnorm_wordpool_576.txt	LTP115	ltpFR2	10	1	LOVER	846	n/a	n/a	0	0	0
504.034	n/a	REC_WORD	252017	wordpools/wasnorm_wordpool_576.txt	LTP115	ltpFR2	10	1	WIDOW	1608	n/a	n/a	0	0	0
558.524	n/a	DISTRACTOR	279262	n/a	LTP115	ltpFR2	10	2	n/a	n/a	n/a	n/a	0	0	0
558.524	n/a	START	279262	n/a	LTP115	ltpFR2	10	n/a	n/a	n/a	3	n/a	n/a	n/a	n/a
558.574	n/a	PROB	279287	n/a	LTP115	ltpFR2	10	n/a	n/a	n/a	3	13	1	6	6
560.242	n/a	PROB	280121	n/a	LTP115	ltpFR2	10	n/a	n/a	n/a	3	11	4	2	5
561.732	n/a	PROB	280866	n/a	LTP115	ltpFR2	10	n/a	n/a	n/a	3	13	2	9	2
563.556	n/a	PROB	281778	n/a	LTP115	ltpFR2	10	n/a	n/a	n/a	3	23	9	7	7
566.32	n/a	PROB	283160	n/a	LTP115	ltpFR2	10	n/a	n/a	n/a	3	11	3	4	4
567.704	n/a	PROB	283852	n/a	LTP115	ltpFR2	10	n/a	n/a	n/a	3	20	8	8	4
570.13	n/a	PROB	285065	n/a	LTP115	ltpFR2	10	n/a	n/a	n/a	3	23	6	9	8
571.64	n/a	PROB	285820	n/a	LTP115	ltpFR2	10	n/a	n/a	n/a	3	13	5	4	4
572.942	n/a	PROB	286471	n/a	LTP115	ltpFR2	10	n/a	n/a	n/a	3	20	7	6	7
574.3	n/a	PROB	287150	n/a	LTP115	ltpFR2	10	n/a	n/a	n/a	3	17	5	7	5
576.12	n/a	PROB	288060	n/a	LTP115	ltpFR2	10	n/a	n/a	n/a	3	18	6	7	5
578.428	n/a	PROB	289214	n/a	LTP115	ltpFR2	10	n/a	n/a	n/a	3	13	7	1	5
580.152	n/a	PROB	290076	n/a	LTP115	ltpFR2	10	n/a	n/a	n/a	3	15	8	1	6
581.53	n/a	STOP	290765	n/a	LTP115	ltpFR2	10	n/a	n/a	n/a	3	n/a	n/a	n/a	n/a
583.72	n/a	WORD	291860	wordpools/wasnorm_wordpool_576.txt	LTP115	ltpFR2	10	2	CHAMPAGNE	278	n/a	n/a	0	0	0
586.358	n/a	WORD	293179	wordpools/wasnorm_wordpool_576.txt	LTP115	ltpFR2	10	2	FLASK	576	n/a	n/a	0	0	0
589.108	n/a	WORD	294554	wordpools/wasnorm_wordpool_576.txt	LTP115	ltpFR2	10	2	TILE	1468	n/a	n/a	0	0	0
591.7	n/a	WORD	295850	wordpools/wasnorm_wordpool_576.txt	LTP115	ltpFR2	10	2	SPACE	1345	n/a	n/a	0	0	0
594.26	n/a	WORD	297130	wordpools/wasnorm_wordpool_576.txt	LTP115	ltpFR2	10	2	MOTOR	922	n/a	n/a	0	0	0
596.766	n/a	WORD	298383	wordpools/wasnorm_wordpool_576.txt	LTP115	ltpFR2	10	2	COOKBOOK	373	n/a	n/a	0	0	0
599.364	n/a	WORD	299682	wordpools/wasnorm_wordpool_576.txt	LTP115	ltpFR2	10	2	PEPPER	1047	n/a	n/a	0	0	0
601.852	n/a	WORD	300926	wordpools/wasnorm_wordpool_576.txt	LTP115	ltpFR2	10	2	SEAL	1262	n/a	n/a	0	0	0
604.534	n/a	WORD	302267	wordpools/wasnorm_wordpool_576.txt	LTP115	ltpFR2	10	2	BEAST	108	n/a	n/a	0	0	0
607.142	n/a	WORD	303571	wordpools/wasnorm_wordpool_576.txt	LTP115	ltpFR2	10	2	PEDAL	1037	n/a	n/a	0	0	0
609.602	n/a	WORD	304801	wordpools/wasnorm_wordpool_576.txt	LTP115	ltpFR2	10	2	MOP	916	n/a	n/a	0	0	0
612.228	n/a	WORD	306114	wordpools/wasnorm_wordpool_576.txt	LTP115	ltpFR2	10	2	SUNSET	1408	n/a	n/a	0	0	0
615.024	n/a	WORD	307512	wordpools/wasnorm_wordpool_576.txt	LTP115	ltpFR2	10	2	SPOUSE	1358	n/a	n/a	0	0	0
617.462	n/a	WORD	308731	wordpools/wasnorm_wordpool_576.txt	LTP115	ltpFR2	10	2	MEDAL	885	n/a	n/a	0	0	0
620.26	n/a	WORD	310130	wordpools/wasnorm_wordpool_576.txt	LTP115	ltpFR2	10	2	CHURCH	307	n/a	n/a	0	0	0
622.984	n/a	WORD	311492	wordpools/wasnorm_wordpool_576.txt	LTP115	ltpFR2	10	2	ORANGE	980	n/a	n/a	0	0	0
625.43	n/a	WORD	312715	wordpools/wasnorm_wordpool_576.txt	LTP115	ltpFR2	10	2	BRICK	172	n/a	n/a	0	0	0
628.218	n/a	WORD	314109	wordpools/wasnorm_wordpool_576.txt	LTP115	ltpFR2	10	2	LABEL	790	n/a	n/a	0	0	0
631.002	n/a	WORD	315501	wordpools/wasnorm_wordpool_576.txt	LTP115	ltpFR2	10	2	LEOPARD	812	n/a	n/a	0	0	0
633.644	n/a	WORD	316822	wordpools/wasnorm_wordpool_576.txt	LTP115	ltpFR2	10	2	FARMER	553	n/a	n/a	0	0	0
636.288	n/a	WORD	318144	wordpools/wasnorm_wordpool_576.txt	LTP115	ltpFR2	10	2	WIFE	1609	n/a	n/a	0	0	0
638.798	n/a	WORD	319399	wordpools/wasnorm_wordpool_576.txt	LTP115	ltpFR2	10	2	YOLK	1633	n/a	n/a	0	0	0
641.256	n/a	WORD	320628	wordpools/wasnorm_wordpool_576.txt	LTP115	ltpFR2	10	2	WASP	1593	n/a	n/a	0	0	0
643.884	n/a	WORD	321942	wordpools/wasnorm_wordpool_576.txt	LTP115	ltpFR2	10	2	SUBWAY	1400	n/a	n/a	0	0	0
645.49	n/a	START	322745	n/a	LTP115	ltpFR2	10	n/a	n/a	n/a	4	n/a	n/a	n/a	n/a
646.518	n/a	DISTRACTOR	323259	n/a	LTP115	ltpFR2	10	2	n/a	n/a	n/a	n/a	0	0	0
646.526	n/a	PROB	323263	n/a	LTP115	ltpFR2	10	n/a	n/a	n/a	4	14	2	6	6
648.73	n/a	PROB	324365	n/a	LTP115	ltpFR2	10	n/a	n/a	n/a	4	11	7	3	1
650.02	n/a	PROB	325010	n/a	LTP115	ltpFR2	10	n/a	n/a	n/a	4	12	1	6	5
651.692	n/a	PROB	325846	n/a	LTP115	ltpFR2	10	n/a	n/a	n/a	4	13	3	4	6
652.986	n/a	PROB	326493	n/a	LTP115	ltpFR2	10	n/a	n/a	n/a	4	20	8	9	3
654.72	n/a	PROB	327360	n/a	LTP115	ltpFR2	10	n/a	n/a	n/a	4	15	5	9	1
656.094	n/a	PROB	328047	n/a	LTP115	ltpFR2	10	n/a	n/a	n/a	4	11	2	5	4
657.832	n/a	PROB	328916	n/a	LTP115	ltpFR2	10	n/a	n/a	n/a	4	13	6	5	2
659.054	n/a	PROB	329527	n/a	LTP115	ltpFR2	10	n/a	n/a	n/a	4	15	5	3	7
660.76	n/a	PROB	330380	n/a	LTP115	ltpFR2	10	n/a	n/a	n/a	4	13	1	3	9
661.904	n/a	PROB	330952	n/a	LTP115	ltpFR2	10	n/a	n/a	n/a	4	18	2	7	9
664.024	n/a	PROB	332012	n/a	LTP115	ltpFR2	10	n/a	n/a	n/a	4	20	4	7	9
669.49	n/a	STOP	334745	n/a	LTP115	ltpFR2	10	n/a	n/a	n/a	4	n/a	n/a	n/a	n/a
671.368	n/a	REC_START	335684	n/a	LTP115	ltpFR2	10	2	n/a	n/a	n/a	n/a	0	0	0
673.052	n/a	REC_WORD	336526	wordpools/wasnorm_wordpool_576.txt	LTP115	ltpFR2	10	2	LEOPARD	812	n/a	n/a	0	0	0
673.8	n/a	REC_WORD	336900	wordpools/wasnorm_wordpool_576.txt	LTP115	ltpFR2	10	2	ORANGE	980	n/a	n/a	0	0	0
674.374	n/a	REC_WORD	337187	wordpools/wasnorm_wordpool_576.txt	LTP115	ltpFR2	10	2	SUNSET	1408	n/a	n/a	0	0	0
675.504	n/a	REC_WORD	337752	wordpools/wasnorm_wordpool_576.txt	LTP115	ltpFR2	10	2	SUBWAY	1400	n/a	n/a	0	0	0
676.786	n/a	REC_WORD	338393	wordpools/wasnorm_wordpool_576.txt	LTP115	ltpFR2	10	2	FARMER	553	n/a	n/a	0	0	0
677.682	n/a	REC_WORD	338841	wordpools/wasnorm_wordpool_576.txt	LTP115	ltpFR2	10	2	WIFE	1609	n/a	n/a	0	0	0
678.508	n/a	REC_WORD	339254	wordpools/wasnorm_wordpool_576.txt	LTP115	ltpFR2	10	2	YOLK	1633	n/a	n/a	0	0	0
704.38	n/a	REC_WORD	352190	wordpools/wasnorm_wordpool_576.txt	LTP115	ltpFR2	10	2	MOTORCYCLE	923	n/a	n/a	0	0	0
705.562	n/a	REC_WORD	352781	wordpools/wasnorm_wordpool_576.txt	LTP115	ltpFR2	10	2	PEDAL	1037	n/a	n/a	0	0	0
707.168	n/a	REC_WORD	353584	wordpools/wasnorm_wordpool_576.txt	LTP115	ltpFR2	10	2	SPOUSE	1358	n/a	n/a	0	0	0
708.168	n/a	REC_WORD_VV	354084	wordpools/wasnorm_wordpool_576.txt	LTP115	ltpFR2	10	2	<>	-1	n/a	n/a	0	0	0
709.144	n/a	REC_WORD	354572	wordpools/wasnorm_wordpool_576.txt	LTP115	ltpFR2	10	2	CHURCH	307	n/a	n/a	0	0	0
718.534	n/a	REC_WORD	359267	wordpools/wasnorm_wordpool_576.txt	LTP115	ltpFR2	10	2	BEAST	108	n/a	n/a	0	0	0
720.024	n/a	REC_WORD	360012	wordpools/wasnorm_wordpool_576.txt	LTP115	ltpFR2	10	2	TILE	1468	n/a	n/a	0	0	0
721.274	n/a	REC_WORD	360637	wordpools/wasnorm_wordpool_576.txt	LTP115	ltpFR2	10	2	SPACE	1345	n/a	n/a	0	0	0
722.136	n/a	REC_WORD	361068	wordpools/wasnorm_wordpool_576.txt	LTP115	ltpFR2	10	2	BRICK	172	n/a	n/a	0	0	0
723.03	n/a	REC_WORD	361515	wordpools/wasnorm_wordpool_576.txt	LTP115	ltpFR2	10	2	MOP	916	n/a	n/a	0	0	0
724.938	n/a	REC_WORD	362469	wordpools/wasnorm_wordpool_576.txt	LTP115	ltpFR2	10	2	CHAMPAGNE	278	n/a	n/a	0	0	0
725.796	n/a	REC_WORD	362898	wordpools/wasnorm_wordpool_576.txt	LTP115	ltpFR2	10	2	FLASK	576	n/a	n/a	0	0	0
742.31	n/a	REC_WORD	371155	wordpools/wasnorm_wordpool_576.txt	LTP115	ltpFR2	10	2	MOTOR	922	n/a	n/a	0	0	0
762.436	n/a	WORD	381218	wordpools/wasnorm_wordpool_576.txt	LTP115	ltpFR2	10	3	PERFUME	1049	n/a	n/a	0	0	0
764.896	n/a	WORD	382448	wordpools/wasnorm_wordpool_576.txt	LTP115	ltpFR2	10	3	STAR	1373	n/a	n/a	0	0	0
767.64	n/a	WORD	383820	wordpools/wasnorm_wordpool_576.txt	LTP115	ltpFR2	10	3	PISTOL	1075	n/a	n/a	0	0	0
770.25	n/a	WORD	385125	wordpools/wasnorm_wordpool_576.txt	LTP115	ltpFR2	10	3	GANGSTER	620	n/a	n/a	0	0	0
772.844	n/a	WORD	386422	wordpools/wasnorm_wordpool_576.txt	LTP115	ltpFR2	10	3	CHAPEL	280	n/a	n/a	0	0	0
775.436	n/a	WORD	387718	wordpools/wasnorm_wordpool_576.txt	LTP115	ltpFR2	10	3	CRIB	407	n/a	n/a	0	0	0
778.126	n/a	WORD	389063	wordpools/wasnorm_wordpool_576.txt	LTP115	ltpFR2	10	3	COMPASS	358	n/a	n/a	0	0	0
780.756	n/a	WORD	390378	wordpools/wasnorm_wordpool_576.txt	LTP115	ltpFR2	10	3	COMET	353	n/a	n/a	0	0	0
783.248	n/a	WORD	391624	wordpools/wasnorm_wordpool_576.txt	LTP115	ltpFR2	10	3	SCARECROW	1245	n/a	n/a	0	0	0
785.978	n/a	WORD	392989	wordpools/wasnorm_wordpool_576.txt	LTP115	ltpFR2	10	3	PEANUT	1032	n/a	n/a	0	0	0
788.452	n/a	WORD	394226	wordpools/wasnorm_wordpool_576.txt	LTP115	ltpFR2	10	3	ONION	977	n/a	n/a	0	0	0
791.08	n/a	WORD	395540	wordpools/wasnorm_wordpool_576.txt	LTP115	ltpFR2	10	3	COUCH	386	n/a	n/a	0	0	0
793.69	n/a	WORD	396845	wordpools/wasnorm_wordpool_576.txt	LTP115	ltpFR2	10	3	TABLE	1426	n/a	n/a	0	0	0
796.182	n/a	WORD	398091	wordpools/wasnorm_wordpool_576.txt	LTP115	ltpFR2	10	3	OX	994	n/a	n/a	0	0	0
798.792	n/a	WORD	399396	wordpools/wasnorm_wordpool_576.txt	LTP115	ltpFR2	10	3	INFANT	737	n/a	n/a	0	0	0
801.384	n/a	WORD	400692	wordpools/wasnorm_wordpool_576.txt	LTP115	ltpFR2	10	3	SCALPEL	1243	n/a	n/a	0	0	0
803.964	n/a	WORD	401982	wordpools/wasnorm_wordpool_576.txt	LTP115	ltpFR2	10	3	ELBOW	520	n/a	n/a	0	0	0
806.672	n/a	WORD	403336	wordpools/wasnorm_wordpool_576.txt	LTP115	ltpFR2	10	3	ICING	732	n/a	n/a	0	0	0
809.244	n/a	WORD	404622	wordpools/wasnorm_wordpool_576.txt	LTP115	ltpFR2	10	3	PEACH	1031	n/a	n/a	0	0	0
811.96	n/a	WORD	405980	wordpools/wasnorm_wordpool_576.txt	LTP115	ltpFR2	10	3	NEUTRON	947	n/a	n/a	0	0	0
814.652	n/a	WORD	407326	wordpools/wasnorm_wordpool_576.txt	LTP115	ltpFR2	10	3	VENUS	1557	n/a	n/a	0	0	0
817.14	n/a	WORD	408570	wordpools/wasnorm_wordpool_576.txt	LTP115	ltpFR2	10	3	BADGE	68	n/a	n/a	0	0	0
819.684	n/a	WORD	409842	wordpools/wasnorm_wordpool_576.txt	LTP115	ltpFR2	10	3	FOOT	590	n/a	n/a	0	0	0
822.248	n/a	WORD	411124	wordpools/wasnorm_wordpool_576.txt	LTP115	ltpFR2	10	3	MARROW	872	n/a	n/a	0	0	0
823.856	n/a	START	411928	n/a	LTP115	ltpFR2	10	n/a	n/a	n/a	5	n/a	n/a	n/a	n/a
824.692	n/a	DISTRACTOR	412346	n/a	LTP115	ltpFR2	10	3	n/a	n/a	n/a	n/a	0	0	0
824.708	n/a	PROB	412354	n/a	LTP115	ltpFR2	10	n/a	n/a	n/a	5	21	6	7	8
828.284	n/a	PROB	414142	n/a	LTP115	ltpFR2	10	n/a	n/a	n/a	5	10	6	2	2
829.542	n/a	PROB	414771	n/a	LTP115	ltpFR2	10	n/a	n/a	n/a	5	23	7	8	8
831.028	n/a	PROB	415514	n/a	LTP115	ltpFR2	10	n/a	n/a	n/a	5	10	6	1	3
832.182	n/a	PROB	416091	n/a	LTP115	ltpFR2	10	n/a	n/a	n/a	5	17	8	7	2
833.738	n/a	PROB	416869	n/a	LTP115	ltpFR2	10	n/a	n/a	n/a	5	13	2	2	9
835.142	n/a	PROB	417571	n/a	LTP115	ltpFR2	10	n/a	n/a	n/a	5	16	9	5	2
836.536	n/a	PROB	418268	n/a	LTP115	ltpFR2	10	n/a	n/a	n/a	5	13	2	3	8
838.472	n/a	PROB	419236	n/a	LTP115	ltpFR2	10	n/a	n/a	n/a	5	7	3	2	2
841.272	n/a	PROB	420636	n/a	LTP115	ltpFR2	10	n/a	n/a	n/a	5	8	1	2	5
842.426	n/a	PROB	421213	n/a	LTP115	ltpFR2	10	n/a	n/a	n/a	5	19	8	7	4
844.562	n/a	PROB	422281	n/a	LTP115	ltpFR2	10	n/a	n/a	n/a	5	21	9	3	9
846.036	n/a	PROB	423018	n/a	LTP115	ltpFR2	10	n/a	n/a	n/a	5	20	9	8	3
847.496	n/a	STOP	423748	n/a	LTP115	ltpFR2	10	n/a	n/a	n/a	5	n/a	n/a	n/a	n/a
849.766	n/a	REC_START	424883	n/a	LTP115	ltpFR2	10	3	n/a	n/a	n/a	n/a	0	0	0
850.75	n/a	REC_WORD	425375	wordpools/wasnorm_wordpool_576.txt	LTP115	ltpFR2	10	3	BADGE	68	n/a	n/a	0	0	0
851.376	n/a	REC_WORD	425688	wordpools/wasnorm_wordpool_576.txt	LTP115	ltpFR2	10	3	PEANUT	1032	n/a	n/a	0	0	0
851.984	n/a	REC_WORD	425992	wordpools/wasnorm_wordpool_576.txt	LTP115	ltpFR2	10	3	ONION	977	n/a	n/a	0	0	0
852.486	n/a	REC_WORD	426243	wordpools/wasnorm_wordpool_576.txt	LTP115	ltpFR2	10	3	FOOT	590	n/a	n/a	0	0	0
853.198	n/a	REC_WORD	426599	wordpools/wasnorm_wordpool_576.txt	LTP115	ltpFR2	10	3	MARROW	872	n/a	n/a	0	0	0
856.516	n/a	REC_WORD	428258	wordpools/wasnorm_wordpool_576.txt	LTP115	ltpFR2	10	3	CRIB	407	n/a	n/a	0	0	0
857.344	n/a	REC_WORD	428672	wordpools/wasnorm_wordpool_576.txt	LTP115	ltpFR2	10	3	INFANT	737	n/a	n/a	0	0	0
859.61	n/a	REC_WORD	429805	wordpools/wasnorm_wordpool_576.txt	LTP115	ltpFR2	10	3	TABLE	1426	n/a	n/a	0	0	0
861.132	n/a	REC_WORD	430566	wordpools/wasnorm_wordpool_576.txt	LTP115	ltpFR2	10	3	COUCH	386	n/a	n/a	0	0	0
862.086	n/a	REC_WORD	431043	wordpools/wasnorm_wordpool_576.txt	LTP115	ltpFR2	10	3	OX	994	n/a	n/a	0	0	0
865.056	n/a	REC_WORD	432528	wordpools/wasnorm_wordpool_576.txt	LTP115	ltpFR2	10	3	CHAPEL	280	n/a	n/a	0	0	0
866.266	n/a	REC_WORD	433133	wordpools/wasnorm_wordpool_576.txt	LTP115	ltpFR2	10	3	GANGSTER	620	n/a	n/a	0	0	0
868.924	n/a	REC_WORD	434462	wordpools/wasnorm_wordpool_576.txt	LTP115	ltpFR2	10	3	SCALPEL	1243	n/a	n/a	0	0	0
869.868	n/a	REC_WORD	434934	wordpools/wasnorm_wordpool_576.txt	LTP115	ltpFR2	10	3	PISTOL	1075	n/a	n/a	0	0	0
871.076	n/a	REC_WORD	435538	wordpools/wasnorm_wordpool_576.txt	LTP115	ltpFR2	10	3	STAR	1373	n/a	n/a	0	0	0
872.61	n/a	REC_WORD	436305	wordpools/wasnorm_wordpool_576.txt	LTP115	ltpFR2	10	3	COMET	353	n/a	n/a	0	0	0
873.918	n/a	REC_WORD	436959	wordpools/wasnorm_wordpool_576.txt	LTP115	ltpFR2	10	3	COMPASS	358	n/a	n/a	0	0	0
876.532	n/a	REC_WORD	438266	wordpools/wasnorm_wordpool_576.txt	LTP115	ltpFR2	10	3	PERFUME	1049	n/a	n/a	0	0	0
940.852	n/a	DISTRACTOR	470426	n/a	LTP115	ltpFR2	10	4	n/a	n/a	n/a	n/a	0	0	0
940.852	n/a	START	470426	n/a	LTP115	ltpFR2	10	n/a	n/a	n/a	6	n/a	n/a	n/a	n/a
940.902	n/a	PROB	470451	n/a	LTP115	ltpFR2	10	n/a	n/a	n/a	6	14	6	3	5
942.39	n/a	PROB	471195	n/a	LTP115	ltpFR2	10	n/a	n/a	n/a	6	11	7	1	3
943.456	n/a	PROB	471728	n/a	LTP115	ltpFR2	10	n/a	n/a	n/a	6	15	3	9	3
947.84	n/a	PROB	473920	n/a	LTP115	ltpFR2	10	n/a	n/a	n/a	6	13	5	2	6
949.446	n/a	PROB	474723	n/a	LTP115	ltpFR2	10	n/a	n/a	n/a	6	15	6	8	1
950.936	n/a	PROB	475468	n/a	LTP115	ltpFR2	10	n/a	n/a	n/a	6	18	7	6	5
952.592	n/a	PROB	476296	n/a	LTP115	ltpFR2	10	n/a	n/a	n/a	6	20	7	4	9
953.948	n/a	PROB	476974	n/a	LTP115	ltpFR2	10	n/a	n/a	n/a	6	8	2	2	4
955.358	n/a	PROB	477679	n/a	LTP115	ltpFR2	10	n/a	n/a	n/a	6	9	1	4	4
956.944	n/a	PROB	478472	n/a	LTP115	ltpFR2	10	n/a	n/a	n/a	6	17	7	4	6
958.854	n/a	PROB	479427	n/a	LTP115	ltpFR2	10	n/a	n/a	n/a	6	10	4	4	2
960.022	n/a	PROB	480011	n/a	LTP115	ltpFR2	10	n/a	n/a	n/a	6	14	8	5	1
961.342	n/a	PROB	480671	n/a	LTP115	ltpFR2	10	n/a	n/a	n/a	6	12	9	1	2
962.736	n/a	PROB	481368	n/a	LTP115	ltpFR2	10	n/a	n/a	n/a	6	9	7	1	1
963.718	n/a	STOP	481859	n/a	LTP115	ltpFR2	10	n/a	n/a	n/a	6	n/a	n/a	n/a	n/a
965.858	n/a	WORD	482929	wordpools/wasnorm_wordpool_576.txt	LTP115	ltpFR2	10	4	PIGEON	1065	n/a	n/a	0	0	0
968.322	n/a	WORD	484161	wordpools/wasnorm_wordpool_576.txt	LTP115	ltpFR2	10	4	BUGGY	188	n/a	n/a	0	0	0
970.846	n/a	WORD	485423	wordpools/wasnorm_wordpool_576.txt	LTP115	ltpFR2	10	4	GRAVE	658	n/a	n/a	0	0	0
973.544	n/a	WORD	486772	wordpools/wasnorm_wordpool_576.txt	LTP115	ltpFR2	10	4	TART	1436	n/a	n/a	0	0	0
976.22	n/a	WORD	488110	wordpools/wasnorm_wordpool_576.txt	LTP115	ltpFR2	10	4	PASTRY	1022	n/a	n/a	0	0	0
979.01	n/a	WORD	489505	wordpools/wasnorm_wordpool_576.txt	LTP115	ltpFR2	10	4	MATTRESS	879	n/a	n/a	0	0	0
981.54	n/a	WORD	490770	wordpools/wasnorm_wordpool_576.txt	LTP115	ltpFR2	10	4	LOFT	840	n/a	n/a	0	0	0
984.23	n/a	WORD	492115	wordpools/wasnorm_wordpool_576.txt	LTP115	ltpFR2	10	4	SWAMP	1416	n/a	n/a	0	0	0
987.046	n/a	WORD	493523	wordpools/wasnorm_wordpool_576.txt	LTP115	ltpFR2	10	4	PRIMATE	1123	n/a	n/a	0	0	0
989.7	n/a	WORD	494850	wordpools/wasnorm_wordpool_576.txt	LTP115	ltpFR2	10	4	QUARTER	1148	n/a	n/a	0	0	0
992.416	n/a	WORD	496208	wordpools/wasnorm_wordpool_576.txt	LTP115	ltpFR2	10	4	CYCLONE	431	n/a	n/a	0	0	0
995.222	n/a	WORD	497611	wordpools/wasnorm_wordpool_576.txt	LTP115	ltpFR2	10	4	MAILMAN	858	n/a	n/a	0	0	0
997.702	n/a	WORD	498851	wordpools/wasnorm_wordpool_576.txt	LTP115	ltpFR2	10	4	SODA	1341	n/a	n/a	0	0	0
1000.424	n/a	WORD	500212	wordpools/wasnorm_wordpool_576.txt	LTP115	ltpFR2	10	4	HUSBAND	728	n/a	n/a	0	0	0
1002.974	n/a	WORD	501487	wordpools/wasnorm_wordpool_576.txt	LTP115	ltpFR2	10	4	PARTNER	1017	n/a	n/a	0	0	0
1005.694	n/a	WORD	502847	wordpools/wasnorm_wordpool_576.txt	LTP115	ltpFR2	10	4	CAPTIVE	240	n/a	n/a	0	0	0
1008.226	n/a	WORD	504113	wordpools/wasnorm_wordpool_576.txt	LTP115	ltpFR2	10	4	CASKET	255	n/a	n/a	0	0	0
1010.686	n/a	WORD	505343	wordpools/wasnorm_wordpool_576.txt	LTP115	ltpFR2	10	4	CROSS	413	n/a	n/a	0	0	0
1013.38	n/a	WORD	506690	wordpools/wasnorm_wordpool_576.txt	LTP115	ltpFR2	10	4	LAKE	796	n/a	n/a	0	0	0
1016.124	n/a	WORD	508062	wordpools/wasnorm_wordpool_576.txt	LTP115	ltpFR2	10	4	REPORT	1184	n/a	n/a	0	0	0
1018.896	n/a	WORD	509448	wordpools/wasnorm_wordpool_576.txt	LTP115	ltpFR2	10	4	BUREAU	199	n/a	n/a	0	0	0
1021.36	n/a	WORD	510680	wordpools/wasnorm_wordpool_576.txt	LTP115	ltpFR2	10	4	SHELF	1280	n/a	n/a	0	0	0
1023.868	n/a	WORD	511934	wordpools/wasnorm_wordpool_576.txt	LTP115	ltpFR2	10	4	GRAVEL	659	n/a	n/a	0	0	0
1026.612	n/a	WORD	513306	wordpools/wasnorm_wordpool_576.txt	LTP115	ltpFR2	10	4	COTTAGE	384	n/a	n/a	0	0	0
1028.22	n/a	START	514110	n/a	LTP115	ltpFR2	10	n/a	n/a	n/a	7	n/a	n/a	n/a	n/a
1029.11	n/a	DISTRACTOR	514555	n/a	LTP115	ltpFR2	10	4	n/a	n/a	n/a	n/a	0	0	0
1029.124	n/a	PROB	514562	n/a	LTP115	ltpFR2	10	n/a	n/a	n/a	7	16	2	8	6
1030.49	n/a	PROB	515245	n/a	LTP115	ltpFR2	10	n/a	n/a	n/a	7	17	9	2	6
1031.862	n/a	PROB	515931	n/a	LTP115	ltpFR2	10	n/a	n/a	n/a	7	10	2	1	7
1033.034	n/a	PROB	516517	n/a	LTP115	ltpFR2	10	n/a	n/a	n/a	7	20	9	2	9
1034.89	n/a	PROB	517445	n/a	LTP115	ltpFR2	10	n/a	n/a	n/a	7	13	8	3	2
1036.212	n/a	PROB	518106	n/a	LTP115	ltpFR2	10	n/a	n/a	n/a	7	24	9	7	8
1039.21	n/a	PROB	519605	n/a	LTP115	ltpFR2	10	n/a	n/a	n/a	7	11	2	2	7
1040.478	n/a	PROB	520239	n/a	LTP115	ltpFR2	10	n/a	n/a	n/a	7	16	8	1	7
1042.352	n/a	PROB	521176	n/a	LTP115	ltpFR2	10	n/a	n/a	n/a	7	7	3	2	2
1045.766	n/a	PROB	522883	n/a	LTP115	ltpFR2	10	n/a	n/a	n/a	7	7	2	4	1
1047.054	n/a	PROB	523527	n/a	LTP115	ltpFR2	10	n/a	n/a	n/a	7	19	9	4	6
1049.012	n/a	PROB	524506	n/a	LTP115	ltpFR2	10	n/a	n/a	n/a	7	13	7	2	4
1051.45	n/a	STOP	525725	n/a	LTP115	ltpFR2	10	n/a	n/a	n/a	7	n/a	n/a	n/a	n/a
1054.014	n/a	REC_START	527007	n/a	LTP115	ltpFR2	10	4	n/a	n/a	n/a	n/a	0	0	0
1055.076	n/a	REC_WORD	527538	wordpools/wasnorm_wordpool_576.txt	LTP115	ltpFR2	10	4	GRAVEL	659	n/a	n/a	0	0	0
1056.24	n/a	REC_WORD	528120	wordpools/wasnorm_wordpool_576.txt	LTP115	ltpFR2	10	4	COTTAGE	384	n/a	n/a	0	0	0
1057.24	n/a	REC_WORD_VV	528620	wordpools/wasnorm_wordpool_576.txt	LTP115	ltpFR2	10	4	<>	-1	n/a	n/a	0	0	0
1057.778	n/a	REC_WORD	528889	wordpools/wasnorm_wordpool_576.txt	LTP115	ltpFR2	10	4	MARSH	874	n/a	n/a	0	0	0
1058.918	n/a	REC_WORD	529459	wordpools/wasnorm_wordpool_576.txt	LTP115	ltpFR2	10	4	LAKE	796	n/a	n/a	0	0	0
1060.264	n/a	REC_WORD	530132	wordpools/wasnorm_wordpool_576.txt	LTP115	ltpFR2	10	4	REPORT	1184	n/a	n/a	0	0	0
1061.1	n/a	REC_WORD	530550	wordpools/wasnorm_wordpool_576.txt	LTP115	ltpFR2	10	4	BUREAU	199	n/a	n/a	0	0	0
1061.72	n/a	REC_WORD	530860	wordpools/wasnorm_wordpool_576.txt	LTP115	ltpFR2	10	4	MAILMAN	858	n/a	n/a	0	0	0
1062.842	n/a	REC_WORD	531421	wordpools/wasnorm_wordpool_576.txt	LTP115	ltpFR2	10	4	HUSBAND	728	n/a	n/a	0	0	0
1066.342	n/a	REC_WORD	533171	wordpools/wasnorm_wordpool_576.txt	LTP115	ltpFR2	10	4	PARTNER	1017	n/a	n/a	0	0	0
1074.346	n/a	REC_WORD_VV	537173	wordpools/wasnorm_wordpool_576.txt	LTP115	ltpFR2	10	4	<>	-1	n/a	n/a	0	0	0
1075.908	n/a	REC_WORD	537954	wordpools/wasnorm_wordpool_576.txt	LTP115	ltpFR2	10	4	PIGEON	1065	n/a	n/a	0	0	0
1077.718	n/a	REC_WORD	538859	wordpools/wasnorm_wordpool_576.txt	LTP115	ltpFR2	10	4	BUGGY	188	n/a	n/a	0	0	0
1080.264	n/a	REC_WORD	540132	wordpools/wasnorm_wordpool_576.txt	LTP115	ltpFR2	10	4	GRAVE	658	n/a	n/a	0	0	0
1087.364	n/a	REC_WORD	543682	wordpools/wasnorm_wordpool_576.txt	LTP115	ltpFR2	10	4	CASKET	255	n/a	n/a	0	0	0
1092.262	n/a	REC_WORD	546131	wordpools/wasnorm_wordpool_576.txt	LTP115	ltpFR2	10	4	TART	1436	n/a	n/a	0	0	0
1093.472	n/a	REC_WORD	546736	wordpools/wasnorm_wordpool_576.txt	LTP115	ltpFR2	10	4	SODA	1341	n/a	n/a	0	0	0
1098.302	n/a	REC_WORD	549151	wordpools/wasnorm_wordpool_576.txt	LTP115	ltpFR2	10	4	PASTRY	1022	n/a	n/a	0	0	0
1101.838	n/a	REC_WORD	550919	wordpools/wasnorm_wordpool_576.txt	LTP115	ltpFR2	10	4	COTTAGE	384	n/a	n/a	0	0	0
1145.05	n/a	DISTRACTOR	572525	n/a	LTP115	ltpFR2	10	5	n/a	n/a	n/a	n/a	0	0	0
1145.05	n/a	START	572525	n/a	LTP115	ltpFR2	10	n/a	n/a	n/a	8	n/a	n/a	n/a	n/a
1145.1	n/a	PROB	572550	n/a	LTP115	ltpFR2	10	n/a	n/a	n/a	8	23	5	9	9
1147.04	n/a	PROB	573520	n/a	LTP115	ltpFR2	10	n/a	n/a	n/a	8	15	6	8	1
1149.46	n/a	PROB	574730	n/a	LTP115	ltpFR2	10	n/a	n/a	n/a	8	22	6	8	8
1151.052	n/a	PROB	575526	n/a	LTP115	ltpFR2	10	n/a	n/a	n/a	8	23	9	9	5
1152.422	n/a	PROB	576211	n/a	LTP115	ltpFR2	10	n/a	n/a	n/a	8	21	9	4	8
1154.196	n/a	PROB	577098	n/a	LTP115	ltpFR2	10	n/a	n/a	n/a	8	7	2	3	5
1156.008	n/a	PROB	578004	n/a	LTP115	ltpFR2	10	n/a	n/a	n/a	8	17	4	4	9
1158.48	n/a	PROB	579240	n/a	LTP115	ltpFR2	10	n/a	n/a	n/a	8	23	8	6	9
1160.454	n/a	PROB	580227	n/a	LTP115	ltpFR2	10	n/a	n/a	n/a	8	21	9	3	9
1162.01	n/a	PROB	581005	n/a	LTP115	ltpFR2	10	n/a	n/a	n/a	8	15	9	2	4
1163.414	n/a	PROB	581707	n/a	LTP115	ltpFR2	10	n/a	n/a	n/a	8	14	8	1	5
1164.77	n/a	PROB	582385	n/a	LTP115	ltpFR2	10	n/a	n/a	n/a	8	20	7	5	8
1166.844	n/a	PROB	583422	n/a	LTP115	ltpFR2	10	n/a	n/a	n/a	8	12	9	2	1
1168.994	n/a	STOP	584497	n/a	LTP115	ltpFR2	10	n/a	n/a	n/a	8	n/a	n/a	n/a	n/a
1170.062	n/a	WORD	585031	wordpools/wasnorm_wordpool_576.txt	LTP115	ltpFR2	10	5	MACHINE	852	n/a	n/a	0	0	0
1172.704	n/a	WORD	586352	wordpools/wasnorm_wordpool_576.txt	LTP115	ltpFR2	10	5	SHERIFF	1284	n/a	n/a	0	0	0
1175.196	n/a	WORD	587598	wordpools/wasnorm_wordpool_576.txt	LTP115	ltpFR2	10	5	AGENT	10	n/a	n/a	0	0	0
1177.942	n/a	WORD	588971	wordpools/wasnorm_wordpool_576.txt	LTP115	ltpFR2	10	5	BUBBLE	183	n/a	n/a	0	0	0
1180.496	n/a	WORD	590248	wordpools/wasnorm_wordpool_576.txt	LTP115	ltpFR2	10	5	STAMP	1370	n/a	n/a	0	0	0
1183.19	n/a	WORD	591595	wordpools/wasnorm_wordpool_576.txt	LTP115	ltpFR2	10	5	POISON	1096	n/a	n/a	0	0	0
1185.754	n/a	WORD	592877	wordpools/wasnorm_wordpool_576.txt	LTP115	ltpFR2	10	5	EAGLE	512	n/a	n/a	0	0	0
1188.382	n/a	WORD	594191	wordpools/wasnorm_wordpool_576.txt	LTP115	ltpFR2	10	5	GRIZZLY	662	n/a	n/a	0	0	0
1191.17	n/a	WORD	595585	wordpools/wasnorm_wordpool_576.txt	LTP115	ltpFR2	10	5	ARM	38	n/a	n/a	0	0	0
1193.834	n/a	WORD	596917	wordpools/wasnorm_wordpool_576.txt	LTP115	ltpFR2	10	5	FINGER	567	n/a	n/a	0	0	0
1196.492	n/a	WORD	598246	wordpools/wasnorm_wordpool_576.txt	LTP115	ltpFR2	10	5	FILM	565	n/a	n/a	0	0	0
1199.19	n/a	WORD	599595	wordpools/wasnorm_wordpool_576.txt	LTP115	ltpFR2	10	5	CAFE	216	n/a	n/a	0	0	0
1201.832	n/a	WORD	600916	wordpools/wasnorm_wordpool_576.txt	LTP115	ltpFR2	10	5	VALLEY	1545	n/a	n/a	0	0	0
1204.492	n/a	WORD	602246	wordpools/wasnorm_wordpool_576.txt	LTP115	ltpFR2	10	5	GARDEN	623	n/a	n/a	0	0	0
1206.936	n/a	WORD	603468	wordpools/wasnorm_wordpool_576.txt	LTP115	ltpFR2	10	5	PLAID	1080	n/a	n/a	0	0	0
1209.528	n/a	WORD	604764	wordpools/wasnorm_wordpool_576.txt	LTP115	ltpFR2	10	5	IDOL	733	n/a	n/a	0	0	0
1212.318	n/a	WORD	606159	wordpools/wasnorm_wordpool_576.txt	LTP115	ltpFR2	10	5	FEMALE	559	n/a	n/a	0	0	0
1214.968	n/a	WORD	607484	wordpools/wasnorm_wordpool_576.txt	LTP115	ltpFR2	10	5	PECAN	1036	n/a	n/a	0	0	0
1217.554	n/a	WORD	608777	wordpools/wasnorm_wordpool_576.txt	LTP115	ltpFR2	10	5	OMELET	976	n/a	n/a	0	0	0
1220.266	n/a	WORD	610133	wordpools/wasnorm_wordpool_576.txt	LTP115	ltpFR2	10	5	SUPPER	1411	n/a	n/a	0	0	0
1222.914	n/a	WORD	611457	wordpools/wasnorm_wordpool_576.txt	LTP115	ltpFR2	10	5	PICNIC	1060	n/a	n/a	0	0	0
1225.708	n/a	WORD	612854	wordpools/wasnorm_wordpool_576.txt	LTP115	ltpFR2	10	5	POPCORN	1104	n/a	n/a	0	0	0
1228.212	n/a	WORD	614106	wordpools/wasnorm_wordpool_576.txt	LTP115	ltpFR2	10	5	PACKAGE	997	n/a	n/a	0	0	0
1230.876	n/a	WORD	615438	wordpools/wasnorm_wordpool_576.txt	LTP115	ltpFR2	10	5	LACE	792	n/a	n/a	0	0	0
1232.494	n/a	START	616247	n/a	LTP115	ltpFR2	10	n/a	n/a	n/a	9	n/a	n/a	n/a	n/a
1233.662	n/a	DISTRACTOR	616831	n/a	LTP115	ltpFR2	10	5	n/a	n/a	n/a	n/a	0	0	0
1233.672	n/a	PROB	616836	n/a	LTP115	ltpFR2	10	n/a	n/a	n/a	9	16	2	6	8
1236.126	n/a	PROB	618063	n/a	LTP115	ltpFR2	10	n/a	n/a	n/a	9	12	6	2	4
1238.44	n/a	PROB	619220	n/a	LTP115	ltpFR2	10	n/a	n/a	n/a	9	17	4	5	8
1239.962	n/a	PROB	619981	n/a	LTP115	ltpFR2	10	n/a	n/a	n/a	9	15	4	5	6
1242.232	n/a	PROB	621116	n/a	LTP115	ltpFR2	10	n/a	n/a	n/a	9	18	6	8	4
1243.772	n/a	PROB	621886	n/a	LTP115	ltpFR2	10	n/a	n/a	n/a	9	12	7	2	3
1245.762	n/a	PROB	622881	n/a	LTP115	ltpFR2	10	n/a	n/a	n/a	9	16	4	3	9
1247.424	n/a	PROB	623712	n/a	LTP115	ltpFR2	10	n/a	n/a	n/a	9	12	5	5	2
1248.438	n/a	PROB	624219	n/a	LTP115	ltpFR2	10	n/a	n/a	n/a	9	16	4	8	4
1250.262	n/a	PROB	625131	n/a	LTP115	ltpFR2	10	n/a	n/a	n/a	9	20	9	8	3
1252.942	n/a	PROB	626471	n/a	LTP115	ltpFR2	10	n/a	n/a	n/a	9	8	4	2	2
1254.146	n/a	PROB	627073	n/a	LTP115	ltpFR2	10	n/a	n/a	n/a	9	12	6	5	1
1255.062	n/a	STOP	627531	n/a	LTP115	ltpFR2	10	n/a	n/a	n/a	9	n/a	n/a	n/a	n/a
1258.328	n/a	REC_START	629164	n/a	LTP115	ltpFR2	10	5	n/a	n/a	n/a	n/a	0	0	0
1259.872	n/a	REC_WORD	629936	wordpools/wasnorm_wordpool_576.txt	LTP115	ltpFR2	10	5	PACKAGE	997	n/a	n/a	0	0	0
1260.686	n/a	REC_WORD	630343	wordpools/wasnorm_wordpool_576.txt	LTP115	ltpFR2	10	5	LACE	792	n/a	n/a	0	0	0
1262.346	n/a	REC_WORD	631173	wordpools/wasnorm_wordpool_576.txt	LTP115	ltpFR2	10	5	FILM	565	n/a	n/a	0	0	0
1263.342	n/a	REC_WORD	631671	wordpools/wasnorm_wordpool_576.txt	LTP115	ltpFR2	10	5	POPCORN	1104	n/a	n/a	0	0	0
1264.882	n/a	REC_WORD	632441	wordpools/wasnorm_wordpool_576.txt	LTP115	ltpFR2	10	5	VALLEY	1545	n/a	n/a	0	0	0
1266.27	n/a	REC_WORD	633135	wordpools/wasnorm_wordpool_576.txt	LTP115	ltpFR2	10	5	CAFE	216	n/a	n/a	0	0	0
1267.562	n/a	REC_WORD	633781	wordpools/wasnorm_wordpool_576.txt	LTP115	ltpFR2	10	5	PICNIC	1060	n/a	n/a	0	0	0
1268.23	n/a	REC_WORD	634115	wordpools/wasnorm_wordpool_576.txt	LTP115	ltpFR2	10	5	SUPPER	1411	n/a	n/a	0	0	0
1268.98	n/a	REC_WORD	634490	wordpools/wasnorm_wordpool_576.txt	LTP115	ltpFR2	10	5	PECAN	1036	n/a	n/a	0	0	0
1271.838	n/a	REC_WORD	635919	wordpools/wasnorm_wordpool_576.txt	LTP115	ltpFR2	10	5	IDOL	733	n/a	n/a	0	0	0
1272.954	n/a	REC_WORD	636477	wordpools/wasnorm_wordpool_576.txt	LTP115	ltpFR2	10	5	FEMALE	559	n/a	n/a	0	0	0
1273.954	n/a	REC_WORD_VV	636977	wordpools/wasnorm_wordpool_576.txt	LTP115	ltpFR2	10	5	<>	-1	n/a	n/a	0	0	0
1276.748	n/a	REC_WORD	638374	wordpools/wasnorm_wordpool_576.txt	LTP115	ltpFR2	10	5	EAGLE	512	n/a	n/a	0	0	0
1277.264	n/a	REC_WORD	638632	wordpools/wasnorm_wordpool_576.txt	LTP115	ltpFR2	10	5	FINGER	567	n/a	n/a	0	0	0
1278.152	n/a	REC_WORD	639076	wordpools/wasnorm_wordpool_576.txt	LTP115	ltpFR2	10	5	ARM	38	n/a	n/a	0	0	0
1278.728	n/a	REC_WORD	639364	wordpools/wasnorm_wordpool_576.txt	LTP115	ltpFR2	10	5	GRIZZLY	662	n/a	n/a	0	0	0
1279.29	n/a	REC_WORD	639645	wordpools/wasnorm_wordpool_576.txt	LTP115	ltpFR2	10	5	SHERIFF	1284	n/a	n/a	0	0	0
1280.128	n/a	REC_WORD	640064	wordpools/wasnorm_wordpool_576.txt	LTP115	ltpFR2	10	5	AGENT	10	n/a	n/a	0	0	0
1280.878	n/a	REC_WORD	640439	wordpools/wasnorm_wordpool_576.txt	LTP115	ltpFR2	10	5	POISON	1096	n/a	n/a	0	0	0
1281.486	n/a	REC_WORD	640743	wordpools/wasnorm_wordpool_576.txt	LTP115	ltpFR2	10	5	MACHINE	852	n/a	n/a	0	0	0
1282.55	n/a	REC_WORD	641275	wordpools/wasnorm_wordpool_576.txt	LTP115	ltpFR2	10	5	BUBBLE	183	n/a	n/a	0	0	0
1287.528	n/a	REC_WORD	643764	wordpools/wasnorm_wordpool_576.txt	LTP115	ltpFR2	10	5	STAMP	1370	n/a	n/a	0	0	0
1349.38	n/a	WORD	674690	wordpools/wasnorm_wordpool_576.txt	LTP115	ltpFR2	10	6	CRATER	400	n/a	n/a	0	0	0
1351.924	n/a	WORD	675962	wordpools/wasnorm_wordpool_576.txt	LTP115	ltpFR2	10	6	BARLEY	88	n/a	n/a	0	0	0
1354.684	n/a	WORD	677342	wordpools/wasnorm_wordpool_576.txt	LTP115	ltpFR2	10	6	GYMNAST	675	n/a	n/a	0	0	0
1357.204	n/a	WORD	678602	wordpools/wasnorm_wordpool_576.txt	LTP115	ltpFR2	10	6	JUGGLER	763	n/a	n/a	0	0	0
1359.736	n/a	WORD	679868	wordpools/wasnorm_wordpool_576.txt	LTP115	ltpFR2	10	6	HOSTESS	723	n/a	n/a	0	0	0
1362.53	n/a	WORD	681265	wordpools/wasnorm_wordpool_576.txt	LTP115	ltpFR2	10	6	SUITCASE	1403	n/a	n/a	0	0	0
1365.292	n/a	WORD	682646	wordpools/wasnorm_wordpool_576.txt	LTP115	ltpFR2	10	6	FIDDLE	561	n/a	n/a	0	0	0
1368.098	n/a	WORD	684049	wordpools/wasnorm_wordpool_576.txt	LTP115	ltpFR2	10	6	LAVA	804	n/a	n/a	0	0	0
1370.572	n/a	WORD	685286	wordpools/wasnorm_wordpool_576.txt	LTP115	ltpFR2	10	6	OYSTER	995	n/a	n/a	0	0	0
1373.254	n/a	WORD	686627	wordpools/wasnorm_wordpool_576.txt	LTP115	ltpFR2	10	6	PASTA	1021	n/a	n/a	0	0	0
1375.948	n/a	WORD	687974	wordpools/wasnorm_wordpool_576.txt	LTP115	ltpFR2	10	6	AUTHOR	61	n/a	n/a	0	0	0
1378.47	n/a	WORD	689235	wordpools/wasnorm_wordpool_576.txt	LTP115	ltpFR2	10	6	LUGGAGE	847	n/a	n/a	0	0	0
1381.234	n/a	WORD	690617	wordpools/wasnorm_wordpool_576.txt	LTP115	ltpFR2	10	6	RAZOR	1171	n/a	n/a	0	0	0
1383.79	n/a	WORD	691895	wordpools/wasnorm_wordpool_576.txt	LTP115	ltpFR2	10	6	CLOTHES	327	n/a	n/a	0	0	0
1386.538	n/a	WORD	693269	wordpools/wasnorm_wordpool_576.txt	LTP115	ltpFR2	10	6	VELVET	1555	n/a	n/a	0	0	0
1389.198	n/a	WORD	694599	wordpools/wasnorm_wordpool_576.txt	LTP115	ltpFR2	10	6	NOMAD	955	n/a	n/a	0	0	0
1391.994	n/a	WORD	695997	wordpools/wasnorm_wordpool_576.txt	LTP115	ltpFR2	10	6	JOURNAL	760	n/a	n/a	0	0	0
1394.736	n/a	WORD	697368	wordpools/wasnorm_wordpool_576.txt	LTP115	ltpFR2	10	6	WHISKERS	1605	n/a	n/a	0	0	0
1397.158	n/a	WORD	698579	wordpools/wasnorm_wordpool_576.txt	LTP115	ltpFR2	10	6	PATIENT	1024	n/a	n/a	0	0	0
1399.616	n/a	WORD	699808	wordpools/wasnorm_wordpool_576.txt	LTP115	ltpFR2	10	6	PASSAGE	1019	n/a	n/a	0	0	0
1402.25	n/a	WORD	701125	wordpools/wasnorm_wordpool_576.txt	LTP115	ltpFR2	10	6	CABBAGE	210	n/a	n/a	0	0	0
1404.692	n/a	WORD	702346	wordpools/wasnorm_wordpool_576.txt	LTP115	ltpFR2	10	6	FUNGUS	614	n/a	n/a	0	0	0
1407.162	n/a	WORD	703581	wordpools/wasnorm_wordpool_576.txt	LTP115	ltpFR2	10	6	DENIM	446	n/a	n/a	0	0	0
1409.81	n/a	WORD	704905	wordpools/wasnorm_wordpool_576.txt	LTP115	ltpFR2	10	6	OUTFIT	988	n/a	n/a	0	0	0
1411.418	n/a	START	705709	n/a	LTP115	ltpFR2	10	n/a	n/a	n/a	10	n/a	n/a	n/a	n/a
1412.318	n/a	DISTRACTOR	706159	n/a	LTP115	ltpFR2	10	6	n/a	n/a	n/a	n/a	0	0	0
1412.332	n/a	PROB	706166	n/a	LTP115	ltpFR2	10	n/a	n/a	n/a	10	13	1	8	4
1413.788	n/a	PROB	706894	n/a	LTP115	ltpFR2	10	n/a	n/a	n/a	10	13	6	2	5
1416.23	n/a	PROB	708115	n/a	LTP115	ltpFR2	10	n/a	n/a	n/a	10	12	1	3	8
1417.954	n/a	PROB	708977	n/a	LTP115	ltpFR2	10	n/a	n/a	n/a	10	9	6	1	2
1419.042	n/a	PROB	709521	n/a	LTP115	ltpFR2	10	n/a	n/a	n/a	10	9	2	2	5
1420.384	n/a	PROB	710192	n/a	LTP115	ltpFR2	10	n/a	n/a	n/a	10	19	5	5	9
1422.122	n/a	PROB	711061	n/a	LTP115	ltpFR2	10	n/a	n/a	n/a	10	21	9	4	8
1423.726	n/a	PROB	711863	n/a	LTP115	ltpFR2	10	n/a	n/a	n/a	10	17	2	7	8
1425.298	n/a	PROB	712649	n/a	LTP115	ltpFR2	10	n/a	n/a	n/a	10	12	6	4	2
1427.406	n/a	PROB	713703	n/a	LTP115	ltpFR2	10	n/a	n/a	n/a	10	13	5	7	1
1429.164	n/a	PROB	714582	n/a	LTP115	ltpFR2	10	n/a	n/a	n/a	10	17	3	8	6
1435.418	n/a	STOP	717709	n/a	LTP115	ltpFR2	10	n/a	n/a	n/a	10	n/a	n/a	n/a	n/a
1437.332	n/a	REC_START	718666	n/a	LTP115	ltpFR2	10	6	n/a	n/a	n/a	n/a	0	0	0
1438.782	n/a	REC_WORD	719391	wordpools/wasnorm_wordpool_576.txt	LTP115	ltpFR2	10	6	NOMAD	955	n/a	n/a	0	0	0
1440.458	n/a	REC_WORD	720229	wordpools/wasnorm_wordpool_576.txt	LTP115	ltpFR2	10	6	DENIM	446	n/a	n/a	0	0	0
1441.01	n/a	REC_WORD	720505	wordpools/wasnorm_wordpool_576.txt	LTP115	ltpFR2	10	6	OUTFIT	988	n/a	n/a	0	0	0
1443.344	n/a	REC_WORD	721672	wordpools/wasnorm_wordpool_576.txt	LTP115	ltpFR2	10	6	GYMNAST	675	n/a	n/a	0	0	0
1444.48	n/a	REC_WORD	722240	wordpools/wasnorm_wordpool_576.txt	LTP115	ltpFR2	10	6	JUGGLER	763	n/a	n/a	0	0	0
1445.866	n/a	REC_WORD	722933	wordpools/wasnorm_wordpool_576.txt	LTP115	ltpFR2	10	6	AUTHOR	61	n/a	n/a	0	0	0
1447.234	n/a	REC_WORD	723617	wordpools/wasnorm_wordpool_576.txt	LTP115	ltpFR2	10	6	JOURNALIST	-1	n/a	n/a	0	0	0
1448.234	n/a	REC_WORD_VV	724117	wordpools/wasnorm_wordpool_576.txt	LTP115	ltpFR2	10	6	<>	-1	n/a	n/a	0	0	0
1448.578	n/a	REC_WORD	724289	wordpools/wasnorm_wordpool_576.txt	LTP115	ltpFR2	10	6	JOURNAL	760	n/a	n/a	0	0	0
1450.186	n/a	REC_WORD_VV	725093	wordpools/wasnorm_wordpool_576.txt	LTP115	ltpFR2	10	6	<>	-1	n/a	n/a	0	0	0
1451.15	n/a	REC_WORD	725575	wordpools/wasnorm_wordpool_576.txt	LTP115	ltpFR2	10	6	PASSAGE	1019	n/a	n/a	0	0	0
1452.15	n/a	REC_WORD_VV	726075	wordpools/wasnorm_wordpool_576.txt	LTP115	ltpFR2	10	6	<>	-1	n/a	n/a	0	0	0
1454.0	n/a	REC_WORD	727000	wordpools/wasnorm_wordpool_576.txt	LTP115	ltpFR2	10	6	PATIENT	1024	n/a	n/a	0	0	0
1456.826	n/a	REC_WORD	728413	wordpools/wasnorm_wordpool_576.txt	LTP115	ltpFR2	10	6	LAVA	804	n/a	n/a	0	0	0
1458.228	n/a	REC_WORD	729114	wordpools/wasnorm_wordpool_576.txt	LTP115	ltpFR2	10	6	CRATER	400	n/a	n/a	0	0	0
1459.93	n/a	REC_WORD	729965	wordpools/wasnorm_wordpool_576.txt	LTP115	ltpFR2	10	6	BARLEY	88	n/a	n/a	0	0	0
1460.944	n/a	REC_WORD	730472	wordpools/wasnorm_wordpool_576.txt	LTP115	ltpFR2	10	6	CABBAGE	210	n/a	n/a	0	0	0
1462.078	n/a	REC_WORD	731039	wordpools/wasnorm_wordpool_576.txt	LTP115	ltpFR2	10	6	FUNGUS	614	n/a	n/a	0	0	0
1463.788	n/a	REC_WORD	731894	wordpools/wasnorm_wordpool_576.txt	LTP115	ltpFR2	10	6	SUITCASE	1403	n/a	n/a	0	0	0
1464.74	n/a	REC_WORD	732370	wordpools/wasnorm_wordpool_576.txt	LTP115	ltpFR2	10	6	LUGGAGE	847	n/a	n/a	0	0	0
1465.84	n/a	REC_WORD	732920	wordpools/wasnorm_wordpool_576.txt	LTP115	ltpFR2	10	6	VELVET	1555	n/a	n/a	0	0	0
1466.796	n/a	REC_WORD	733398	wordpools/wasnorm_wordpool_576.txt	LTP115	ltpFR2	10	6	CLOTHES	327	n/a	n/a	0	0	0
1467.796	n/a	REC_WORD_VV	733898	wordpools/wasnorm_wordpool_576.txt	LTP115	ltpFR2	10	6	<>	-1	n/a	n/a	0	0	0
1479.432	n/a	REC_WORD	739716	wordpools/wasnorm_wordpool_576.txt	LTP115	ltpFR2	10	6	HOSTESS	723	n/a	n/a	0	0	0
1528.346	n/a	DISTRACTOR	764173	n/a	LTP115	ltpFR2	10	7	n/a	n/a	n/a	n/a	0	0	0
1528.348	n/a	START	764174	n/a	LTP115	ltpFR2	10	n/a	n/a	n/a	11	n/a	n/a	n/a	n/a
1528.398	n/a	PROB	764199	n/a	LTP115	ltpFR2	10	n/a	n/a	n/a	11	10	2	5	3
1529.886	n/a	PROB	764943	n/a	LTP115	ltpFR2	10	n/a	n/a	n/a	11	14	7	5	2
1531.822	n/a	PROB	765911	n/a	LTP115	ltpFR2	10	n/a	n/a	n/a	11	13	2	4	7
1533.396	n/a	PROB	766698	n/a	LTP115	ltpFR2	10	n/a	n/a	n/a	11	1	7	4	8
1536.006	n/a	PROB	768003	n/a	LTP115	ltpFR2	10	n/a	n/a	n/a	11	13	4	4	5
1538.136	n/a	PROB	769068	n/a	LTP115	ltpFR2	10	n/a	n/a	n/a	11	17	1	9	7
1539.468	n/a	PROB	769734	n/a	LTP115	ltpFR2	10	n/a	n/a	n/a	11	9	2	6	1
1541.832	n/a	PROB	770916	n/a	LTP115	ltpFR2	10	n/a	n/a	n/a	11	22	9	6	7
1543.97	n/a	PROB	771985	n/a	LTP115	ltpFR2	10	n/a	n/a	n/a	11	20	3	9	8
1545.374	n/a	PROB	772687	n/a	LTP115	ltpFR2	10	n/a	n/a	n/a	11	16	7	1	8
1547.282	n/a	PROB	773641	n/a	LTP115	ltpFR2	10	n/a	n/a	n/a	11	22	8	6	8
1549.74	n/a	PROB	774870	n/a	LTP115	ltpFR2	10	n/a	n/a	n/a	11	15	5	5	5
1552.35	n/a	STOP	776175	n/a	LTP115	ltpFR2	10	n/a	n/a	n/a	11	n/a	n/a	n/a	n/a
1553.456	n/a	WORD	776728	wordpools/wasnorm_wordpool_576.txt	LTP115	ltpFR2	10	7	MASK	876	n/a	n/a	0	0	0
1556.038	n/a	WORD	778019	wordpools/wasnorm_wordpool_576.txt	LTP115	ltpFR2	10	7	SKIRT	1319	n/a	n/a	0	0	0
1558.696	n/a	WORD	779348	wordpools/wasnorm_wordpool_576.txt	LTP115	ltpFR2	10	7	THREAD	1460	n/a	n/a	0	0	0
1561.124	n/a	WORD	780562	wordpools/wasnorm_wordpool_576.txt	LTP115	ltpFR2	10	7	DOLPHIN	483	n/a	n/a	0	0	0
1563.632	n/a	WORD	781816	wordpools/wasnorm_wordpool_576.txt	LTP115	ltpFR2	10	7	MONEY	908	n/a	n/a	0	0	0
1566.41	n/a	WORD	783205	wordpools/wasnorm_wordpool_576.txt	LTP115	ltpFR2	10	7	GUITAR	670	n/a	n/a	0	0	0
1569.154	n/a	WORD	784577	wordpools/wasnorm_wordpool_576.txt	LTP115	ltpFR2	10	7	ASIA	46	n/a	n/a	0	0	0
1571.708	n/a	WORD	785854	wordpools/wasnorm_wordpool_576.txt	LTP115	ltpFR2	10	7	SHORTS	1293	n/a	n/a	0	0	0
1574.256	n/a	WORD	787128	wordpools/wasnorm_wordpool_576.txt	LTP115	ltpFR2	10	7	SHELTER	1282	n/a	n/a	0	0	0
1577.052	n/a	WORD	788526	wordpools/wasnorm_wordpool_576.txt	LTP115	ltpFR2	10	7	GIRL	637	n/a	n/a	0	0	0
1579.542	n/a	WORD	789771	wordpools/wasnorm_wordpool_576.txt	LTP115	ltpFR2	10	7	THIEF	1456	n/a	n/a	0	0	0
1581.97	n/a	WORD	790985	wordpools/wasnorm_wordpool_576.txt	LTP115	ltpFR2	10	7	HORSE	719	n/a	n/a	0	0	0
1584.578	n/a	WORD	792289	wordpools/wasnorm_wordpool_576.txt	LTP115	ltpFR2	10	7	CARRIAGE	248	n/a	n/a	0	0	0
1587.268	n/a	WORD	793634	wordpools/wasnorm_wordpool_576.txt	LTP115	ltpFR2	10	7	FRAGRANCE	599	n/a	n/a	0	0	0
1589.95	n/a	WORD	794975	wordpools/wasnorm_wordpool_576.txt	LTP115	ltpFR2	10	7	GARLIC	624	n/a	n/a	0	0	0
1592.726	n/a	WORD	796363	wordpools/wasnorm_wordpool_576.txt	LTP115	ltpFR2	10	7	SWIMMER	1420	n/a	n/a	0	0	0
1595.404	n/a	WORD	797702	wordpools/wasnorm_wordpool_576.txt	LTP115	ltpFR2	10	7	LIZARD	834	n/a	n/a	0	0	0
1597.846	n/a	WORD	798923	wordpools/wasnorm_wordpool_576.txt	LTP115	ltpFR2	10	7	RECORD	1176	n/a	n/a	0	0	0
1600.49	n/a	WORD	800245	wordpools/wasnorm_wordpool_576.txt	LTP115	ltpFR2	10	7	GAZELLE	628	n/a	n/a	0	0	0
1602.996	n/a	WORD	801498	wordpools/wasnorm_wordpool_576.txt	LTP115	ltpFR2	10	7	TABLET	1427	n/a	n/a	0	0	0
1605.604	n/a	WORD	802802	wordpools/wasnorm_wordpool_576.txt	LTP115	ltpFR2	10	7	SHRUB	1299	n/a	n/a	0	0	0
1608.282	n/a	WORD	804141	wordpools/wasnorm_wordpool_576.txt	LTP115	ltpFR2	10	7	PARSLEY	1016	n/a	n/a	0	0	0
1610.982	n/a	WORD	805491	wordpools/wasnorm_wordpool_576.txt	LTP115	ltpFR2	10	7	MARKET	871	n/a	n/a	0	0	0
1613.808	n/a	WORD	806904	wordpools/wasnorm_wordpool_576.txt	LTP115	ltpFR2	10	7	TRUCK	1512	n/a	n/a	0	0	0
1615.414	n/a	START	807707	n/a	LTP115	ltpFR2	10	n/a	n/a	n/a	12	n/a	n/a	n/a	n/a
1616.434	n/a	DISTRACTOR	808217	n/a	LTP115	ltpFR2	10	7	n/a	n/a	n/a	n/a	0	0	0
1616.45	n/a	PROB	808225	n/a	LTP115	ltpFR2	10	n/a	n/a	n/a	12	10	4	3	3
1617.918	n/a	PROB	808959	n/a	LTP115	ltpFR2	10	n/a	n/a	n/a	12	8	1	1	6
1619.124	n/a	PROB	809562	n/a	LTP115	ltpFR2	10	n/a	n/a	n/a	12	10	4	1	5
1620.282	n/a	PROB	810141	n/a	LTP115	ltpFR2	10	n/a	n/a	n/a	12	14	9	3	2
1622.402	n/a	PROB	811201	n/a	LTP115	ltpFR2	10	n/a	n/a	n/a	12	7	2	3	2
1624.258	n/a	PROB	812129	n/a	LTP115	ltpFR2	10	n/a	n/a	n/a	12	17	7	2	8
1626.5	n/a	PROB	813250	n/a	LTP115	ltpFR2	10	n/a	n/a	n/a	12	17	7	8	2
1627.694	n/a	PROB	813847	n/a	LTP115	ltpFR2	10	n/a	n/a	n/a	12	13	8	4	1
1629.518	n/a	PROB	814759	n/a	LTP115	ltpFR2	10	n/a	n/a	n/a	12	10	5	4	1
1630.55	n/a	PROB	815275	n/a	LTP115	ltpFR2	10	n/a	n/a	n/a	12	17	5	9	3
1632.172	n/a	PROB	816086	n/a	LTP115	ltpFR2	10	n/a	n/a	n/a	12	12	3	4	5
1633.884	n/a	PROB	816942	n/a	LTP115	ltpFR2	10	n/a	n/a	n/a	12	21	9	8	4
1638.138	n/a	STOP	819069	n/a	LTP115	ltpFR2	10	n/a	n/a	n/a	12	n/a	n/a	n/a	n/a
1641.342	n/a	REC_START	820671	n/a	LTP115	ltpFR2	10	7	n/a	n/a	n/a	n/a	0	0	0
1643.082	n/a	REC_WORD	821541	wordpools/wasnorm_wordpool_576.txt	LTP115	ltpFR2	10	7	HORSE	719	n/a	n/a	0	0	0
1643.884	n/a	REC_WORD	821942	wordpools/wasnorm_wordpool_576.txt	LTP115	ltpFR2	10	7	THIEF	1456	n/a	n/a	0	0	0
1644.664	n/a	REC_WORD	822332	wordpools/wasnorm_wordpool_576.txt	LTP115	ltpFR2	10	7	GIRL	637	n/a	n/a	0	0	0
1645.218	n/a	REC_WORD	822609	wordpools/wasnorm_wordpool_576.txt	LTP115	ltpFR2	10	7	SHELTER	1282	n/a	n/a	0	0	0
1646.114	n/a	REC_WORD	823057	wordpools/wasnorm_wordpool_576.txt	LTP115	ltpFR2	10	7	SHRUB	1299	n/a	n/a	0	0	0
1647.04	n/a	REC_WORD	823520	wordpools/wasnorm_wordpool_576.txt	LTP115	ltpFR2	10	7	PARSLEY	1016	n/a	n/a	0	0	0
1648.448	n/a	REC_WORD	824224	wordpools/wasnorm_wordpool_576.txt	LTP115	ltpFR2	10	7	ASIA	46	n/a	n/a	0	0	0
1649.256	n/a	REC_WORD	824628	wordpools/wasnorm_wordpool_576.txt	LTP115	ltpFR2	10	7	REPORT	1184	n/a	n/a	0	0	0
1650.256	n/a	REC_WORD_VV	825128	wordpools/wasnorm_wordpool_576.txt	LTP115	ltpFR2	10	7	<>	-1	n/a	n/a	0	0	0
1652.17	n/a	REC_WORD	826085	wordpools/wasnorm_wordpool_576.txt	LTP115	ltpFR2	10	7	MARKET	871	n/a	n/a	0	0	0
1663.62	n/a	REC_WORD	831810	wordpools/wasnorm_wordpool_576.txt	LTP115	ltpFR2	10	7	MASK	876	n/a	n/a	0	0	0
1665.13	n/a	REC_WORD	832565	wordpools/wasnorm_wordpool_576.txt	LTP115	ltpFR2	10	7	SKIRT	1319	n/a	n/a	0	0	0
1666.008	n/a	REC_WORD	833004	wordpools/wasnorm_wordpool_576.txt	LTP115	ltpFR2	10	7	SHORTS	1293	n/a	n/a	0	0	0
1667.02	n/a	REC_WORD	833510	wordpools/wasnorm_wordpool_576.txt	LTP115	ltpFR2	10	7	THREAD	1460	n/a	n/a	0	0	0
1668.23	n/a	REC_WORD	834115	wordpools/wasnorm_wordpool_576.txt	LTP115	ltpFR2	10	7	DOLPHIN	483	n/a	n/a	0	0	0
1669.68	n/a	REC_WORD	834840	wordpools/wasnorm_wordpool_576.txt	LTP115	ltpFR2	10	7	MONEY	908	n/a	n/a	0	0	0
1670.764	n/a	REC_WORD	835382	wordpools/wasnorm_wordpool_576.txt	LTP115	ltpFR2	10	7	GUITAR	670	n/a	n/a	0	0	0
1682.986	n/a	REC_WORD	841493	wordpools/wasnorm_wordpool_576.txt	LTP115	ltpFR2	10	7	LIZARD	834	n/a	n/a	0	0	0
1684.272	n/a	REC_WORD	842136	wordpools/wasnorm_wordpool_576.txt	LTP115	ltpFR2	10	7	SWIM	-1	n/a	n/a	0	0	0
1685.272	n/a	REC_WORD_VV	842636	wordpools/wasnorm_wordpool_576.txt	LTP115	ltpFR2	10	7	<>	-1	n/a	n/a	0	0	0
1692.312	n/a	REC_WORD	846156	wordpools/wasnorm_wordpool_576.txt	LTP115	ltpFR2	10	7	GAZELLE	628	n/a	n/a	0	0	0
1732.376	n/a	DISTRACTOR	866188	n/a	LTP115	ltpFR2	10	8	n/a	n/a	n/a	n/a	0	0	0
1732.376	n/a	START	866188	n/a	LTP115	ltpFR2	10	n/a	n/a	n/a	13	n/a	n/a	n/a	n/a
1732.428	n/a	PROB	866214	n/a	LTP115	ltpFR2	10	n/a	n/a	n/a	13	8	2	4	2
1733.98	n/a	PROB	866990	n/a	LTP115	ltpFR2	10	n/a	n/a	n/a	13	19	7	7	5
1735.584	n/a	PROB	867792	n/a	LTP115	ltpFR2	10	n/a	n/a	n/a	13	17	9	5	3
1737.228	n/a	PROB	868614	n/a	LTP115	ltpFR2	10	n/a	n/a	n/a	13	13	3	2	8
1740.252	n/a	PROB	870126	n/a	LTP115	ltpFR2	10	n/a	n/a	n/a	13	13	6	1	6
1742.094	n/a	PROB	871047	n/a	LTP115	ltpFR2	10	n/a	n/a	n/a	13	7	1	5	1
1743.098	n/a	PROB	871549	n/a	LTP115	ltpFR2	10	n/a	n/a	n/a	13	14	1	8	5
1744.452	n/a	PROB	872226	n/a	LTP115	ltpFR2	10	n/a	n/a	n/a	13	13	9	3	1
1745.924	n/a	PROB	872962	n/a	LTP115	ltpFR2	10	n/a	n/a	n/a	13	12	6	5	1
1747.03	n/a	PROB	873515	n/a	LTP115	ltpFR2	10	n/a	n/a	n/a	13	17	3	7	7
1748.416	n/a	PROB	874208	n/a	LTP115	ltpFR2	10	n/a	n/a	n/a	13	23	6	9	8
1750.542	n/a	PROB	875271	n/a	LTP115	ltpFR2	10	n/a	n/a	n/a	13	19	6	8	5
1752.722	n/a	PROB	876361	n/a	LTP115	ltpFR2	10	n/a	n/a	n/a	13	20	6	5	9
1754.444	n/a	PROB	877222	n/a	LTP115	ltpFR2	10	n/a	n/a	n/a	13	12	3	1	8
1756.096	n/a	STOP	878048	n/a	LTP115	ltpFR2	10	n/a	n/a	n/a	13	n/a	n/a	n/a	n/a
1757.234	n/a	WORD	878617	wordpools/wasnorm_wordpool_576.txt	LTP115	ltpFR2	10	8	BRANCH	168	n/a	n/a	0	0	0
1759.732	n/a	WORD	879866	wordpools/wasnorm_wordpool_576.txt	LTP115	ltpFR2	10	8	SKETCH	1315	n/a	n/a	0	0	0
1762.458	n/a	WORD	881229	wordpools/wasnorm_wordpool_576.txt	LTP115	ltpFR2	10	8	PICTURE	1061	n/a	n/a	0	0	0
1765.214	n/a	WORD	882607	wordpools/wasnorm_wordpool_576.txt	LTP115	ltpFR2	10	8	PADDING	999	n/a	n/a	0	0	0
1767.646	n/a	WORD	883823	wordpools/wasnorm_wordpool_576.txt	LTP115	ltpFR2	10	8	OUTLAW	989	n/a	n/a	0	0	0
1770.272	n/a	WORD	885136	wordpools/wasnorm_wordpool_576.txt	LTP115	ltpFR2	10	8	SHOVEL	1295	n/a	n/a	0	0	0
1772.73	n/a	WORD	886365	wordpools/wasnorm_wordpool_576.txt	LTP115	ltpFR2	10	8	POSTAGE	1113	n/a	n/a	0	0	0
1775.152	n/a	WORD	887576	wordpools/wasnorm_wordpool_576.txt	LTP115	ltpFR2	10	8	BLADE	134	n/a	n/a	0	0	0
1777.65	n/a	WORD	888825	wordpools/wasnorm_wordpool_576.txt	LTP115	ltpFR2	10	8	CUPBOARD	425	n/a	n/a	0	0	0
1780.078	n/a	WORD	890039	wordpools/wasnorm_wordpool_576.txt	LTP115	ltpFR2	10	8	POCKET	1093	n/a	n/a	0	0	0
1782.686	n/a	WORD	891343	wordpools/wasnorm_wordpool_576.txt	LTP115	ltpFR2	10	8	CORAL	378	n/a	n/a	0	0	0
1785.496	n/a	WORD	892748	wordpools/wasnorm_wordpool_576.txt	LTP115	ltpFR2	10	8	SOFTBALL	1343	n/a	n/a	0	0	0
1788.258	n/a	WORD	894129	wordpools/wasnorm_wordpool_576.txt	LTP115	ltpFR2	10	8	BLENDER	136	n/a	n/a	0	0	0
1790.682	n/a	WORD	895341	wordpools/wasnorm_wordpool_576.txt	LTP115	ltpFR2	10	8	SHOULDER	1294	n/a	n/a	0	0	0
1793.26	n/a	WORD	896630	wordpools/wasnorm_wordpool_576.txt	LTP115	ltpFR2	10	8	CANYON	235	n/a	n/a	0	0	0
1795.886	n/a	WORD	897943	wordpools/wasnorm_wordpool_576.txt	LTP115	ltpFR2	10	8	CITRUS	313	n/a	n/a	0	0	0
1798.614	n/a	WORD	899307	wordpools/wasnorm_wordpool_576.txt	LTP115	ltpFR2	10	8	GRAPE	654	n/a	n/a	0	0	0
1801.102	n/a	WORD	900551	wordpools/wasnorm_wordpool_576.txt	LTP115	ltpFR2	10	8	AWARD	63	n/a	n/a	0	0	0
1803.7	n/a	WORD	901850	wordpools/wasnorm_wordpool_576.txt	LTP115	ltpFR2	10	8	GROUND	666	n/a	n/a	0	0	0
1806.342	n/a	WORD	903171	wordpools/wasnorm_wordpool_576.txt	LTP115	ltpFR2	10	8	RUG	1215	n/a	n/a	0	0	0
1809.116	n/a	WORD	904558	wordpools/wasnorm_wordpool_576.txt	LTP115	ltpFR2	10	8	SUMMIT	1405	n/a	n/a	0	0	0
1811.68	n/a	WORD	905840	wordpools/wasnorm_wordpool_576.txt	LTP115	ltpFR2	10	8	SUSPECT	1415	n/a	n/a	0	0	0
1814.224	n/a	WORD	907112	wordpools/wasnorm_wordpool_576.txt	LTP115	ltpFR2	10	8	OZONE	996	n/a	n/a	0	0	0
1817.03	n/a	WORD	908515	wordpools/wasnorm_wordpool_576.txt	LTP115	ltpFR2	10	8	BACKBONE	66	n/a	n/a	0	0	0
1818.64	n/a	START	909320	n/a	LTP115	ltpFR2	10	n/a	n/a	n/a	14	n/a	n/a	n/a	n/a
1819.45	n/a	DISTRACTOR	909725	n/a	LTP115	ltpFR2	10	8	n/a	n/a	n/a	n/a	0	0	0
1819.46	n/a	PROB	909730	n/a	LTP115	ltpFR2	10	n/a	n/a	n/a	14	11	6	3	2
1820.996	n/a	PROB	910498	n/a	LTP115	ltpFR2	10	n/a	n/a	n/a	14	16	6	2	8
1822.656	n/a	PROB	911328	n/a	LTP115	ltpFR2	10	n/a	n/a	n/a	14	16	4	9	3
1824.158	n/a	PROB	912079	n/a	LTP115	ltpFR2	10	n/a	n/a	n/a	14	10	2	4	4
1825.6	n/a	PROB	912800	n/a	LTP115	ltpFR2	10	n/a	n/a	n/a	14	15	5	9	1
1827.074	n/a	PROB	913537	n/a	LTP115	ltpFR2	10	n/a	n/a	n/a	14	19	6	7	6
1830.046	n/a	PROB	915023	n/a	LTP115	ltpFR2	10	n/a	n/a	n/a	14	16	7	7	2
1831.404	n/a	PROB	915702	n/a	LTP115	ltpFR2	10	n/a	n/a	n/a	14	16	2	7	7
1832.672	n/a	PROB	916336	n/a	LTP115	ltpFR2	10	n/a	n/a	n/a	14	20	4	8	8
1834.714	n/a	PROB	917357	n/a	LTP115	ltpFR2	10	n/a	n/a	n/a	14	15	3	9	3
1836.978	n/a	PROB	918489	n/a	LTP115	ltpFR2	10	n/a	n/a	n/a	14	13	4	6	3
1838.36	n/a	PROB	919180	n/a	LTP115	ltpFR2	10	n/a	n/a	n/a	14	6	3	1	2
1839.398	n/a	PROB	919699	n/a	LTP115	ltpFR2	10	n/a	n/a	n/a	14	14	9	4	1
1841.316	n/a	STOP	920658	n/a	LTP115	ltpFR2	10	n/a	n/a	n/a	14	n/a	n/a	n/a	n/a
1844.418	n/a	REC_START	922209	n/a	LTP115	ltpFR2	10	8	n/a	n/a	n/a	n/a	0	0	0
1845.03	n/a	REC_WORD	922515	wordpools/wasnorm_wordpool_576.txt	LTP115	ltpFR2	10	8	SUMMIT	1405	n/a	n/a	0	0	0
1846.252	n/a	REC_WORD	923126	wordpools/wasnorm_wordpool_576.txt	LTP115	ltpFR2	10	8	OZONE	996	n/a	n/a	0	0	0
1850.07	n/a	REC_WORD	925035	wordpools/wasnorm_wordpool_576.txt	LTP115	ltpFR2	10	8	BACKBONE	66	n/a	n/a	0	0	0
1851.07	n/a	REC_WORD_VV	925535	wordpools/wasnorm_wordpool_576.txt	LTP115	ltpFR2	10	8	<>	-1	n/a	n/a	0	0	0
1853.168	n/a	REC_WORD	926584	wordpools/wasnorm_wordpool_576.txt	LTP115	ltpFR2	10	8	SHOVEL	1295	n/a	n/a	0	0	0
1854.34	n/a	REC_WORD	927170	wordpools/wasnorm_wordpool_576.txt	LTP115	ltpFR2	10	8	RUG	1215	n/a	n/a	0	0	0
1854.998	n/a	REC_WORD	927499	wordpools/wasnorm_wordpool_576.txt	LTP115	ltpFR2	10	8	GROUND	666	n/a	n/a	0	0	0
1855.884	n/a	REC_WORD	927942	wordpools/wasnorm_wordpool_576.txt	LTP115	ltpFR2	10	8	CANYON	235	n/a	n/a	0	0	0
1858.566	n/a	REC_WORD	929283	wordpools/wasnorm_wordpool_576.txt	LTP115	ltpFR2	10	8	GRAPE	654	n/a	n/a	0	0	0
1866.368	n/a	REC_WORD_VV	933184	wordpools/wasnorm_wordpool_576.txt	LTP115	ltpFR2	10	8	<>	-1	n/a	n/a	0	0	0
1867.368	n/a	REC_WORD_VV	933684	wordpools/wasnorm_wordpool_576.txt	LTP115	ltpFR2	10	8	<>	-1	n/a	n/a	0	0	0
1868.368	n/a	REC_WORD_VV	934184	wordpools/wasnorm_wordpool_576.txt	LTP115	ltpFR2	10	8	<>	-1	n/a	n/a	0	0	0
1875.552	n/a	REC_WORD	937776	wordpools/wasnorm_wordpool_576.txt	LTP115	ltpFR2	10	8	CUPBOARD	425	n/a	n/a	0	0	0
1876.856	n/a	REC_WORD	938428	wordpools/wasnorm_wordpool_576.txt	LTP115	ltpFR2	10	8	SHOVEL	1295	n/a	n/a	0	0	0
1879.348	n/a	REC_WORD	939674	wordpools/wasnorm_wordpool_576.txt	LTP115	ltpFR2	10	8	AWARD	63	n/a	n/a	0	0	0
1888.174	n/a	REC_WORD	944087	wordpools/wasnorm_wordpool_576.txt	LTP115	ltpFR2	10	8	OUTLAW	989	n/a	n/a	0	0	0
1904.562	n/a	REC_WORD	952281	wordpools/wasnorm_wordpool_576.txt	LTP115	ltpFR2	10	8	CORAL	378	n/a	n/a	0	0	0
1905.712	n/a	REC_WORD	952856	wordpools/wasnorm_wordpool_576.txt	LTP115	ltpFR2	10	8	BLEND	-1	n/a	n/a	0	0	0
1906.656	n/a	REC_WORD	953328	wordpools/wasnorm_wordpool_576.txt	LTP115	ltpFR2	10	8	SOFTBALL	1343	n/a	n/a	0	0	0
1907.818	n/a	REC_WORD	953909	wordpools/wasnorm_wordpool_576.txt	LTP115	ltpFR2	10	8	SHOULDER	1294	n/a	n/a	0	0	0
1921.216	n/a	REST_REWET	960608	n/a	LTP115	ltpFR2	10	8	n/a	n/a	n/a	n/a	0	0	0
2358.638	n/a	WORD	1179319	wordpools/wasnorm_wordpool_576.txt	LTP115	ltpFR2	10	9	MILK	895	n/a	n/a	0	0	0
2361.292	n/a	WORD	1180646	wordpools/wasnorm_wordpool_576.txt	LTP115	ltpFR2	10	9	CATTLE	261	n/a	n/a	0	0	0
2363.988	n/a	WORD	1181994	wordpools/wasnorm_wordpool_576.txt	LTP115	ltpFR2	10	9	SNAKE	1333	n/a	n/a	0	0	0
2366.696	n/a	WORD	1183348	wordpools/wasnorm_wordpool_576.txt	LTP115	ltpFR2	10	9	TROUT	1511	n/a	n/a	0	0	0
2369.21	n/a	WORD	1184605	wordpools/wasnorm_wordpool_576.txt	LTP115	ltpFR2	10	9	SKILLET	1317	n/a	n/a	0	0	0
2371.654	n/a	WORD	1185827	wordpools/wasnorm_wordpool_576.txt	LTP115	ltpFR2	10	9	FLEET	578	n/a	n/a	0	0	0
2374.096	n/a	WORD	1187048	wordpools/wasnorm_wordpool_576.txt	LTP115	ltpFR2	10	9	DRESSER	496	n/a	n/a	0	0	0
2376.656	n/a	WORD	1188328	wordpools/wasnorm_wordpool_576.txt	LTP115	ltpFR2	10	9	BUNNY	198	n/a	n/a	0	0	0
2379.134	n/a	WORD	1189567	wordpools/wasnorm_wordpool_576.txt	LTP115	ltpFR2	10	9	TURTLE	1522	n/a	n/a	0	0	0
2381.944	n/a	WORD	1190972	wordpools/wasnorm_wordpool_576.txt	LTP115	ltpFR2	10	9	BRAKE	166	n/a	n/a	0	0	0
2384.682	n/a	WORD	1192341	wordpools/wasnorm_wordpool_576.txt	LTP115	ltpFR2	10	9	SALAD	1224	n/a	n/a	0	0	0
2387.114	n/a	WORD	1193557	wordpools/wasnorm_wordpool_576.txt	LTP115	ltpFR2	10	9	CHILD	299	n/a	n/a	0	0	0
2389.756	n/a	WORD	1194878	wordpools/wasnorm_wordpool_576.txt	LTP115	ltpFR2	10	9	ANKLE	24	n/a	n/a	0	0	0
2392.35	n/a	WORD	1196175	wordpools/wasnorm_wordpool_576.txt	LTP115	ltpFR2	10	9	SHARK	1275	n/a	n/a	0	0	0
2395.124	n/a	WORD	1197562	wordpools/wasnorm_wordpool_576.txt	LTP115	ltpFR2	10	9	ROBBER	1197	n/a	n/a	0	0	0
2397.682	n/a	WORD	1198841	wordpools/wasnorm_wordpool_576.txt	LTP115	ltpFR2	10	9	BURGLAR	200	n/a	n/a	0	0	0
2400.358	n/a	WORD	1200179	wordpools/wasnorm_wordpool_576.txt	LTP115	ltpFR2	10	9	VIRUS	1572	n/a	n/a	0	0	0
2402.906	n/a	WORD	1201453	wordpools/wasnorm_wordpool_576.txt	LTP115	ltpFR2	10	9	WAGON	1578	n/a	n/a	0	0	0
2405.55	n/a	WORD	1202775	wordpools/wasnorm_wordpool_576.txt	LTP115	ltpFR2	10	9	SCALLOP	1242	n/a	n/a	0	0	0
2408.128	n/a	WORD	1204064	wordpools/wasnorm_wordpool_576.txt	LTP115	ltpFR2	10	9	DAISY	435	n/a	n/a	0	0	0
2410.77	n/a	WORD	1205385	wordpools/wasnorm_wordpool_576.txt	LTP115	ltpFR2	10	9	OFFICE	972	n/a	n/a	0	0	0
2413.446	n/a	WORD	1206723	wordpools/wasnorm_wordpool_576.txt	LTP115	ltpFR2	10	9	DRUG	501	n/a	n/a	0	0	0
2416.104	n/a	WORD	1208052	wordpools/wasnorm_wordpool_576.txt	LTP115	ltpFR2	10	9	COD	340	n/a	n/a	0	0	0
2418.768	n/a	WORD	1209384	wordpools/wasnorm_wordpool_576.txt	LTP115	ltpFR2	10	9	HIKER	708	n/a	n/a	0	0	0
2420.374	n/a	START	1210187	n/a	LTP115	ltpFR2	10	n/a	n/a	n/a	15	n/a	n/a	n/a	n/a
2421.24	n/a	DISTRACTOR	1210620	n/a	LTP115	ltpFR2	10	9	n/a	n/a	n/a	n/a	0	0	0
2421.256	n/a	PROB	1210628	n/a	LTP115	ltpFR2	10	n/a	n/a	n/a	15	15	1	8	6
2422.928	n/a	PROB	1211464	n/a	LTP115	ltpFR2	10	n/a	n/a	n/a	15	15	8	3	4
2426.944	n/a	PROB	1213472	n/a	LTP115	ltpFR2	10	n/a	n/a	n/a	15	11	1	9	1
2428.048	n/a	PROB	1214024	n/a	LTP115	ltpFR2	10	n/a	n/a	n/a	15	16	2	6	8
2430.156	n/a	PROB	1215078	n/a	LTP115	ltpFR2	10	n/a	n/a	n/a	15	16	4	8	4
2431.794	n/a	PROB	1215897	n/a	LTP115	ltpFR2	10	n/a	n/a	n/a	15	17	9	7	1
2433.994	n/a	PROB	1216997	n/a	LTP115	ltpFR2	10	n/a	n/a	n/a	15	10	1	2	7
2435.376	n/a	PROB	1217688	n/a	LTP115	ltpFR2	10	n/a	n/a	n/a	15	18	8	3	7
2436.798	n/a	PROB	1218399	n/a	LTP115	ltpFR2	10	n/a	n/a	n/a	15	8	1	5	2
2438.604	n/a	PROB	1219302	n/a	LTP115	ltpFR2	10	n/a	n/a	n/a	15	17	6	9	2
2440.082	n/a	PROB	1220041	n/a	LTP115	ltpFR2	10	n/a	n/a	n/a	15	13	3	9	1
2441.45	n/a	PROB	1220725	n/a	LTP115	ltpFR2	10	n/a	n/a	n/a	15	24	9	9	6
2443.66	n/a	STOP	1221830	n/a	LTP115	ltpFR2	10	n/a	n/a	n/a	15	n/a	n/a	n/a	n/a
2446.202	n/a	REC_START	1223101	n/a	LTP115	ltpFR2	10	9	n/a	n/a	n/a	n/a	0	0	0
2447.518	n/a	REC_WORD	1223759	wordpools/wasnorm_wordpool_576.txt	LTP115	ltpFR2	10	9	TROUT	1511	n/a	n/a	0	0	0
2448.368	n/a	REC_WORD	1224184	wordpools/wasnorm_wordpool_576.txt	LTP115	ltpFR2	10	9	COD	340	n/a	n/a	0	0	0
2449.21	n/a	REC_WORD	1224605	wordpools/wasnorm_wordpool_576.txt	LTP115	ltpFR2	10	9	SHARK	1275	n/a	n/a	0	0	0
2450.202	n/a	REC_WORD	1225101	wordpools/wasnorm_wordpool_576.txt	LTP115	ltpFR2	10	9	SCALLOP	1242	n/a	n/a	0	0	0
2453.19	n/a	REC_WORD	1226595	wordpools/wasnorm_wordpool_576.txt	LTP115	ltpFR2	10	9	SKILLET	1317	n/a	n/a	0	0	0
2455.174	n/a	REC_WORD	1227587	wordpools/wasnorm_wordpool_576.txt	LTP115	ltpFR2	10	9	DRESSER	496	n/a	n/a	0	0	0
2455.988	n/a	REC_WORD	1227994	wordpools/wasnorm_wordpool_576.txt	LTP115	ltpFR2	10	9	BUNNY	198	n/a	n/a	0	0	0
2456.608	n/a	REC_WORD	1228304	wordpools/wasnorm_wordpool_576.txt	LTP115	ltpFR2	10	9	TURTLE	1522	n/a	n/a	0	0	0
2457.704	n/a	REC_WORD	1228852	wordpools/wasnorm_wordpool_576.txt	LTP115	ltpFR2	10	9	BRAKE	166	n/a	n/a	0	0	0
2459.2	n/a	REC_WORD	1229600	wordpools/wasnorm_wordpool_576.txt	LTP115	ltpFR2	10	9	ROBBER	1197	n/a	n/a	0	0	0
2460.848	n/a	REC_WORD	1230424	wordpools/wasnorm_wordpool_576.txt	LTP115	ltpFR2	10	9	BURGLAR	200	n/a	n/a	0	0	0
2462.064	n/a	REC_WORD	1231032	wordpools/wasnorm_wordpool_576.txt	LTP115	ltpFR2	10	9	CHILD	299	n/a	n/a	0	0	0
2463.754	n/a	REC_WORD	1231877	wordpools/wasnorm_wordpool_576.txt	LTP115	ltpFR2	10	9	ANKLE	24	n/a	n/a	0	0	0
2464.91	n/a	REC_WORD	1232455	wordpools/wasnorm_wordpool_576.txt	LTP115	ltpFR2	10	9	SNAKE	1333	n/a	n/a	0	0	0
2466.072	n/a	REC_WORD	1233036	wordpools/wasnorm_wordpool_576.txt	LTP115	ltpFR2	10	9	CATTLE	261	n/a	n/a	0	0	0
2466.99	n/a	REC_WORD	1233495	wordpools/wasnorm_wordpool_576.txt	LTP115	ltpFR2	10	9	MILK	895	n/a	n/a	0	0	0
2474.93	n/a	REC_WORD	1237465	wordpools/wasnorm_wordpool_576.txt	LTP115	ltpFR2	10	9	FLEET	578	n/a	n/a	0	0	0
2515.94	n/a	REC_WORD	1257970	wordpools/wasnorm_wordpool_576.txt	LTP115	ltpFR2	10	9	WAGON	1578	n/a	n/a	0	0	0
2559.104	n/a	WORD	1279552	wordpools/wasnorm_wordpool_576.txt	LTP115	ltpFR2	10	10	POSSUM	1112	n/a	n/a	0	0	0
2561.612	n/a	WORD	1280806	wordpools/wasnorm_wordpool_576.txt	LTP115	ltpFR2	10	10	HATCHET	691	n/a	n/a	0	0	0
2564.256	n/a	WORD	1282128	wordpools/wasnorm_wordpool_576.txt	LTP115	ltpFR2	10	10	SIBLING	1301	n/a	n/a	0	0	0
2566.866	n/a	WORD	1283433	wordpools/wasnorm_wordpool_576.txt	LTP115	ltpFR2	10	10	STOMACH	1384	n/a	n/a	0	0	0
2569.444	n/a	WORD	1284722	wordpools/wasnorm_wordpool_576.txt	LTP115	ltpFR2	10	10	GIFT	635	n/a	n/a	0	0	0
2571.998	n/a	WORD	1285999	wordpools/wasnorm_wordpool_576.txt	LTP115	ltpFR2	10	10	LILY	821	n/a	n/a	0	0	0
2574.512	n/a	WORD	1287256	wordpools/wasnorm_wordpool_576.txt	LTP115	ltpFR2	10	10	SLUG	1329	n/a	n/a	0	0	0
2577.106	n/a	WORD	1288553	wordpools/wasnorm_wordpool_576.txt	LTP115	ltpFR2	10	10	GOBLIN	645	n/a	n/a	0	0	0
2579.782	n/a	WORD	1289891	wordpools/wasnorm_wordpool_576.txt	LTP115	ltpFR2	10	10	DRIVER	499	n/a	n/a	0	0	0
2582.208	n/a	WORD	1291104	wordpools/wasnorm_wordpool_576.txt	LTP115	ltpFR2	10	10	RUST	1219	n/a	n/a	0	0	0
2584.868	n/a	WORD	1292434	wordpools/wasnorm_wordpool_576.txt	LTP115	ltpFR2	10	10	BODY	145	n/a	n/a	0	0	0
2587.446	n/a	WORD	1293723	wordpools/wasnorm_wordpool_576.txt	LTP115	ltpFR2	10	10	INMATE	738	n/a	n/a	0	0	0
2590.206	n/a	WORD	1295103	wordpools/wasnorm_wordpool_576.txt	LTP115	ltpFR2	10	10	SURVEY	1414	n/a	n/a	0	0	0
2592.682	n/a	WORD	1296341	wordpools/wasnorm_wordpool_576.txt	LTP115	ltpFR2	10	10	MAILBOX	857	n/a	n/a	0	0	0
2595.42	n/a	WORD	1297710	wordpools/wasnorm_wordpool_576.txt	LTP115	ltpFR2	10	10	RIVER	1194	n/a	n/a	0	0	0
2597.946	n/a	WORD	1298973	wordpools/wasnorm_wordpool_576.txt	LTP115	ltpFR2	10	10	TRIBE	1505	n/a	n/a	0	0	0
2600.562	n/a	WORD	1300281	wordpools/wasnorm_wordpool_576.txt	LTP115	ltpFR2	10	10	SERVANT	1271	n/a	n/a	0	0	0
2603.218	n/a	WORD	1301609	wordpools/wasnorm_wordpool_576.txt	LTP115	ltpFR2	10	10	APRON	35	n/a	n/a	0	0	0
2605.966	n/a	WORD	1302983	wordpools/wasnorm_wordpool_576.txt	LTP115	ltpFR2	10	10	NECKLACE	940	n/a	n/a	0	0	0
2608.676	n/a	WORD	1304338	wordpools/wasnorm_wordpool_576.txt	LTP115	ltpFR2	10	10	BACON	67	n/a	n/a	0	0	0
2611.498	n/a	WORD	1305749	wordpools/wasnorm_wordpool_576.txt	LTP115	ltpFR2	10	10	BULLET	194	n/a	n/a	0	0	0
2614.314	n/a	WORD	1307157	wordpools/wasnorm_wordpool_576.txt	LTP115	ltpFR2	10	10	RIFLE	1192	n/a	n/a	0	0	0
2616.74	n/a	WORD	1308370	wordpools/wasnorm_wordpool_576.txt	LTP115	ltpFR2	10	10	APPLE	33	n/a	n/a	0	0	0
2619.282	n/a	WORD	1309641	wordpools/wasnorm_wordpool_576.txt	LTP115	ltpFR2	10	10	BROOK	177	n/a	n/a	0	0	0
2620.89	n/a	START	1310445	n/a	LTP115	ltpFR2	10	n/a	n/a	n/a	16	n/a	n/a	n/a	n/a
2621.98	n/a	DISTRACTOR	1310990	n/a	LTP115	ltpFR2	10	10	n/a	n/a	n/a	n/a	0	0	0
2621.994	n/a	PROB	1310997	n/a	LTP115	ltpFR2	10	n/a	n/a	n/a	16	21	6	6	9
2624.8	n/a	PROB	1312400	n/a	LTP115	ltpFR2	10	n/a	n/a	n/a	16	13	4	3	6
2626.656	n/a	PROB	1313328	n/a	LTP115	ltpFR2	10	n/a	n/a	n/a	16	24	9	8	7
2628.28	n/a	PROB	1314140	n/a	LTP115	ltpFR2	10	n/a	n/a	n/a	16	17	7	7	3
2629.668	n/a	PROB	1314834	n/a	LTP115	ltpFR2	10	n/a	n/a	n/a	16	14	6	2	6
2631.742	n/a	PROB	1315871	n/a	LTP115	ltpFR2	10	n/a	n/a	n/a	16	20	5	7	8
2633.554	n/a	PROB	1316777	n/a	LTP115	ltpFR2	10	n/a	n/a	n/a	16	15	2	8	5
2635.01	n/a	PROB	1317505	n/a	LTP115	ltpFR2	10	n/a	n/a	n/a	16	18	9	3	6
2637.298	n/a	PROB	1318649	n/a	LTP115	ltpFR2	10	n/a	n/a	n/a	16	16	6	7	3
2638.452	n/a	PROB	1319226	n/a	LTP115	ltpFR2	10	n/a	n/a	n/a	16	13	4	2	7
2639.778	n/a	PROB	1319889	n/a	LTP115	ltpFR2	10	n/a	n/a	n/a	16	19	8	4	7
2641.346	n/a	PROB	1320673	n/a	LTP115	ltpFR2	10	n/a	n/a	n/a	16	21	7	9	6
2644.892	n/a	STOP	1322446	n/a	LTP115	ltpFR2	10	n/a	n/a	n/a	16	n/a	n/a	n/a	n/a
2646.74	n/a	REC_START	1323370	n/a	LTP115	ltpFR2	10	10	n/a	n/a	n/a	n/a	0	0	0
2648.596	n/a	REC_WORD	1324298	wordpools/wasnorm_wordpool_576.txt	LTP115	ltpFR2	10	10	BACON	67	n/a	n/a	0	0	0
2649.602	n/a	REC_WORD	1324801	wordpools/wasnorm_wordpool_576.txt	LTP115	ltpFR2	10	10	RIFLE	1192	n/a	n/a	0	0	0
2650.382	n/a	REC_WORD	1325191	wordpools/wasnorm_wordpool_576.txt	LTP115	ltpFR2	10	10	BULLET	194	n/a	n/a	0	0	0
2651.012	n/a	REC_WORD	1325506	wordpools/wasnorm_wordpool_576.txt	LTP115	ltpFR2	10	10	APPLE	33	n/a	n/a	0	0	0
2653.488	n/a	REC_WORD	1326744	wordpools/wasnorm_wordpool_576.txt	LTP115	ltpFR2	10	10	DRIVER	499	n/a	n/a	0	0	0
2655.326	n/a	REC_WORD	1327663	wordpools/wasnorm_wordpool_576.txt	LTP115	ltpFR2	10	10	SIBLING	1301	n/a	n/a	0	0	0
2656.326	n/a	REC_WORD_VV	1328163	wordpools/wasnorm_wordpool_576.txt	LTP115	ltpFR2	10	10	<>	-1	n/a	n/a	0	0	0
2657.482	n/a	REC_WORD	1328741	wordpools/wasnorm_wordpool_576.txt	LTP115	ltpFR2	10	10	BELLY	119	n/a	n/a	0	0	0
2663.754	n/a	REC_WORD	1331877	wordpools/wasnorm_wordpool_576.txt	LTP115	ltpFR2	10	10	HATCHET	691	n/a	n/a	0	0	0
2664.672	n/a	REC_WORD	1332336	wordpools/wasnorm_wordpool_576.txt	LTP115	ltpFR2	10	10	RUST	1219	n/a	n/a	0	0	0
2665.568	n/a	REC_WORD	1332784	wordpools/wasnorm_wordpool_576.txt	LTP115	ltpFR2	10	10	POSSUM	1112	n/a	n/a	0	0	0
2666.762	n/a	REC_WORD	1333381	wordpools/wasnorm_wordpool_576.txt	LTP115	ltpFR2	10	10	LILY	821	n/a	n/a	0	0	0
2667.706	n/a	REC_WORD	1333853	wordpools/wasnorm_wordpool_576.txt	LTP115	ltpFR2	10	10	RIVER	1194	n/a	n/a	0	0	0
2668.542	n/a	REC_WORD	1334271	wordpools/wasnorm_wordpool_576.txt	LTP115	ltpFR2	10	10	BROOK	177	n/a	n/a	0	0	0
2715.844	n/a	REC_WORD	1357922	wordpools/wasnorm_wordpool_576.txt	LTP115	ltpFR2	10	10	RUST	1219	n/a	n/a	0	0	0
2716.678	n/a	REC_WORD	1358339	wordpools/wasnorm_wordpool_576.txt	LTP115	ltpFR2	10	10	INMATE	738	n/a	n/a	0	0	0
2720.63	n/a	REC_WORD	1360315	wordpools/wasnorm_wordpool_576.txt	LTP115	ltpFR2	10	10	SURVEY	1414	n/a	n/a	0	0	0
2737.786	n/a	WORD	1368893	wordpools/wasnorm_wordpool_576.txt	LTP115	ltpFR2	10	11	BANK	83	n/a	n/a	0	0	0
2740.242	n/a	WORD	1370121	wordpools/wasnorm_wordpool_576.txt	LTP115	ltpFR2	10	11	DUSTPAN	509	n/a	n/a	0	0	0
2742.706	n/a	WORD	1371353	wordpools/wasnorm_wordpool_576.txt	LTP115	ltpFR2	10	11	CROWN	415	n/a	n/a	0	0	0
2745.482	n/a	WORD	1372741	wordpools/wasnorm_wordpool_576.txt	LTP115	ltpFR2	10	11	LONDON	843	n/a	n/a	0	0	0
2747.92	n/a	WORD	1373960	wordpools/wasnorm_wordpool_576.txt	LTP115	ltpFR2	10	11	KITCHEN	778	n/a	n/a	0	0	0
2750.668	n/a	WORD	1375334	wordpools/wasnorm_wordpool_576.txt	LTP115	ltpFR2	10	11	CLOCK	325	n/a	n/a	0	0	0
2753.374	n/a	WORD	1376687	wordpools/wasnorm_wordpool_576.txt	LTP115	ltpFR2	10	11	HOOD	714	n/a	n/a	0	0	0
2756.136	n/a	WORD	1378068	wordpools/wasnorm_wordpool_576.txt	LTP115	ltpFR2	10	11	CLAM	315	n/a	n/a	0	0	0
2758.616	n/a	WORD	1379308	wordpools/wasnorm_wordpool_576.txt	LTP115	ltpFR2	10	11	PAIL	1002	n/a	n/a	0	0	0
2761.188	n/a	WORD	1380594	wordpools/wasnorm_wordpool_576.txt	LTP115	ltpFR2	10	11	GLOVE	642	n/a	n/a	0	0	0
2763.748	n/a	WORD	1381874	wordpools/wasnorm_wordpool_576.txt	LTP115	ltpFR2	10	11	COCKTAIL	338	n/a	n/a	0	0	0
2766.262	n/a	WORD	1383131	wordpools/wasnorm_wordpool_576.txt	LTP115	ltpFR2	10	11	BRANDY	169	n/a	n/a	0	0	0
2768.772	n/a	WORD	1384386	wordpools/wasnorm_wordpool_576.txt	LTP115	ltpFR2	10	11	TWISTER	1530	n/a	n/a	0	0	0
2771.36	n/a	WORD	1385680	wordpools/wasnorm_wordpool_576.txt	LTP115	ltpFR2	10	11	HONEY	713	n/a	n/a	0	0	0
2774.076	n/a	WORD	1387038	wordpools/wasnorm_wordpool_576.txt	LTP115	ltpFR2	10	11	AIRPORT	13	n/a	n/a	0	0	0
2776.568	n/a	WORD	1388284	wordpools/wasnorm_wordpool_576.txt	LTP115	ltpFR2	10	11	SADDLE	1221	n/a	n/a	0	0	0
2779.112	n/a	WORD	1389556	wordpools/wasnorm_wordpool_576.txt	LTP115	ltpFR2	10	11	CASHEW	253	n/a	n/a	0	0	0
2781.638	n/a	WORD	1390819	wordpools/wasnorm_wordpool_576.txt	LTP115	ltpFR2	10	11	VALVE	1546	n/a	n/a	0	0	0
2784.326	n/a	WORD	1392163	wordpools/wasnorm_wordpool_576.txt	LTP115	ltpFR2	10	11	PUDDLE	1140	n/a	n/a	0	0	0
2786.94	n/a	WORD	1393470	wordpools/wasnorm_wordpool_576.txt	LTP115	ltpFR2	10	11	MISSILE	900	n/a	n/a	0	0	0
2789.646	n/a	WORD	1394823	wordpools/wasnorm_wordpool_576.txt	LTP115	ltpFR2	10	11	ROCKET	1202	n/a	n/a	0	0	0
2792.112	n/a	WORD	1396056	wordpools/wasnorm_wordpool_576.txt	LTP115	ltpFR2	10	11	EMPIRE	530	n/a	n/a	0	0	0
2794.638	n/a	WORD	1397319	wordpools/wasnorm_wordpool_576.txt	LTP115	ltpFR2	10	11	MAMMAL	861	n/a	n/a	0	0	0
2797.246	n/a	WORD	1398623	wordpools/wasnorm_wordpool_576.txt	LTP115	ltpFR2	10	11	AIRPLANE	12	n/a	n/a	0	0	0
2798.854	n/a	START	1399427	n/a	LTP115	ltpFR2	10	n/a	n/a	n/a	17	n/a	n/a	n/a	n/a
2799.844	n/a	DISTRACTOR	1399922	n/a	LTP115	ltpFR2	10	11	n/a	n/a	n/a	n/a	0	0	0
2799.856	n/a	PROB	1399928	n/a	LTP115	ltpFR2	10	n/a	n/a	n/a	17	10	1	8	1
2801.324	n/a	PROB	1400662	n/a	LTP115	ltpFR2	10	n/a	n/a	n/a	17	16	6	1	9
2803.772	n/a	PROB	1401886	n/a	LTP115	ltpFR2	10	n/a	n/a	n/a	17	14	7	2	5
2806.61	n/a	PROB	1403305	n/a	LTP115	ltpFR2	10	n/a	n/a	n/a	17	18	9	3	6
2808.006	n/a	PROB	1404003	n/a	LTP115	ltpFR2	10	n/a	n/a	n/a	17	11	5	2	4
2809.46	n/a	PROB	1404730	n/a	LTP115	ltpFR2	10	n/a	n/a	n/a	17	11	3	1	7
2810.698	n/a	PROB	1405349	n/a	LTP115	ltpFR2	10	n/a	n/a	n/a	17	15	6	1	8
2812.468	n/a	PROB	1406234	n/a	LTP115	ltpFR2	10	n/a	n/a	n/a	17	12	7	1	4
2813.726	n/a	PROB	1406863	n/a	LTP115	ltpFR2	10	n/a	n/a	n/a	17	20	4	9	7
2815.166	n/a	PROB	1407583	n/a	LTP115	ltpFR2	10	n/a	n/a	n/a	17	17	6	4	7
2816.588	n/a	PROB	1408294	n/a	LTP115	ltpFR2	10	n/a	n/a	n/a	17	15	9	5	1
2818.608	n/a	PROB	1409304	n/a	LTP115	ltpFR2	10	n/a	n/a	n/a	17	16	4	4	8
2820.046	n/a	PROB	1410023	n/a	LTP115	ltpFR2	10	n/a	n/a	n/a	17	13	6	5	2
2821.378	n/a	STOP	1410689	n/a	LTP115	ltpFR2	10	n/a	n/a	n/a	17	n/a	n/a	n/a	n/a
2824.768	n/a	REC_START	1412384	n/a	LTP115	ltpFR2	10	11	n/a	n/a	n/a	n/a	0	0	0
2829.966	n/a	REC_WORD	1414983	wordpools/wasnorm_wordpool_576.txt	LTP115	ltpFR2	10	11	MAMMAL	861	n/a	n/a	0	0	0
2831.89	n/a	REC_WORD	1415945	wordpools/wasnorm_wordpool_576.txt	LTP115	ltpFR2	10	11	LONDON	843	n/a	n/a	0	0	0
2833.022	n/a	REC_WORD	1416511	wordpools/wasnorm_wordpool_576.txt	LTP115	ltpFR2	10	11	EMPIRE	530	n/a	n/a	0	0	0
2834.962	n/a	REC_WORD	1417481	wordpools/wasnorm_wordpool_576.txt	LTP115	ltpFR2	10	11	CROWN	415	n/a	n/a	0	0	0
2838.392	n/a	REC_WORD	1419196	wordpools/wasnorm_wordpool_576.txt	LTP115	ltpFR2	10	11	BANK	83	n/a	n/a	0	0	0
2844.422	n/a	REC_WORD	1422211	wordpools/wasnorm_wordpool_576.txt	LTP115	ltpFR2	10	11	PUDDLE	1140	n/a	n/a	0	0	0
2845.704	n/a	REC_WORD	1422852	wordpools/wasnorm_wordpool_576.txt	LTP115	ltpFR2	10	11	DUSTPAN	509	n/a	n/a	0	0	0
2847.51	n/a	REC_WORD	1423755	wordpools/wasnorm_wordpool_576.txt	LTP115	ltpFR2	10	11	KITCHEN	778	n/a	n/a	0	0	0
2848.496	n/a	REC_WORD	1424248	wordpools/wasnorm_wordpool_576.txt	LTP115	ltpFR2	10	11	HONEY	713	n/a	n/a	0	0	0
2849.652	n/a	REC_WORD	1424826	wordpools/wasnorm_wordpool_576.txt	LTP115	ltpFR2	10	11	COCKTAIL	338	n/a	n/a	0	0	0
2850.836	n/a	REC_WORD	1425418	wordpools/wasnorm_wordpool_576.txt	LTP115	ltpFR2	10	11	BRANDY	169	n/a	n/a	0	0	0
2852.228	n/a	REC_WORD	1426114	wordpools/wasnorm_wordpool_576.txt	LTP115	ltpFR2	10	11	CLAM	315	n/a	n/a	0	0	0
2853.554	n/a	REC_WORD	1426777	wordpools/wasnorm_wordpool_576.txt	LTP115	ltpFR2	10	11	GLOVE	642	n/a	n/a	0	0	0
2854.906	n/a	REC_WORD	1427453	wordpools/wasnorm_wordpool_576.txt	LTP115	ltpFR2	10	11	PAIL	1002	n/a	n/a	0	0	0
2858.026	n/a	REC_WORD	1429013	wordpools/wasnorm_wordpool_576.txt	LTP115	ltpFR2	10	11	MISSILE	900	n/a	n/a	0	0	0
2858.792	n/a	REC_WORD	1429396	wordpools/wasnorm_wordpool_576.txt	LTP115	ltpFR2	10	11	ROCKET	1202	n/a	n/a	0	0	0
2864.566	n/a	REC_WORD	1432283	wordpools/wasnorm_wordpool_576.txt	LTP115	ltpFR2	10	11	SADDLE	1221	n/a	n/a	0	0	0
2878.448	n/a	REC_WORD	1439224	wordpools/wasnorm_wordpool_576.txt	LTP115	ltpFR2	10	11	CLOCK	325	n/a	n/a	0	0	0
2893.768	n/a	REC_WORD	1446884	wordpools/wasnorm_wordpool_576.txt	LTP115	ltpFR2	10	11	PLANE	1081	n/a	n/a	0	0	0
2915.85	n/a	WORD	1457925	wordpools/wasnorm_wordpool_576.txt	LTP115	ltpFR2	10	12	SPOOL	1356	n/a	n/a	0	0	0
2918.354	n/a	WORD	1459177	wordpools/wasnorm_wordpool_576.txt	LTP115	ltpFR2	10	12	PUPPY	1144	n/a	n/a	0	0	0
2921.088	n/a	WORD	1460544	wordpools/wasnorm_wordpool_576.txt	LTP115	ltpFR2	10	12	BOYFRIEND	162	n/a	n/a	0	0	0
2923.714	n/a	WORD	1461857	wordpools/wasnorm_wordpool_576.txt	LTP115	ltpFR2	10	12	CANAL	226	n/a	n/a	0	0	0
2926.34	n/a	WORD	1463170	wordpools/wasnorm_wordpool_576.txt	LTP115	ltpFR2	10	12	SEAGULL	1261	n/a	n/a	0	0	0
2928.95	n/a	WORD	1464475	wordpools/wasnorm_wordpool_576.txt	LTP115	ltpFR2	10	12	MUSTARD	935	n/a	n/a	0	0	0
2931.392	n/a	WORD	1465696	wordpools/wasnorm_wordpool_576.txt	LTP115	ltpFR2	10	12	TURKEY	1520	n/a	n/a	0	0	0
2934.002	n/a	WORD	1467001	wordpools/wasnorm_wordpool_576.txt	LTP115	ltpFR2	10	12	HELMET	702	n/a	n/a	0	0	0
2936.478	n/a	WORD	1468239	wordpools/wasnorm_wordpool_576.txt	LTP115	ltpFR2	10	12	CABIN	211	n/a	n/a	0	0	0
2938.99	n/a	WORD	1469495	wordpools/wasnorm_wordpool_576.txt	LTP115	ltpFR2	10	12	LODGE	839	n/a	n/a	0	0	0
2941.466	n/a	WORD	1470733	wordpools/wasnorm_wordpool_576.txt	LTP115	ltpFR2	10	12	MATCH	878	n/a	n/a	0	0	0
2943.924	n/a	WORD	1471962	wordpools/wasnorm_wordpool_576.txt	LTP115	ltpFR2	10	12	LUMBER	848	n/a	n/a	0	0	0
2946.512	n/a	WORD	1473256	wordpools/wasnorm_wordpool_576.txt	LTP115	ltpFR2	10	12	GLASS	639	n/a	n/a	0	0	0
2949.01	n/a	WORD	1474505	wordpools/wasnorm_wordpool_576.txt	LTP115	ltpFR2	10	12	ZIPPER	1636	n/a	n/a	0	0	0
2951.666	n/a	WORD	1475833	wordpools/wasnorm_wordpool_576.txt	LTP115	ltpFR2	10	12	JEANS	752	n/a	n/a	0	0	0
2954.364	n/a	WORD	1477182	wordpools/wasnorm_wordpool_576.txt	LTP115	ltpFR2	10	12	ANTLER	29	n/a	n/a	0	0	0
2956.99	n/a	WORD	1478495	wordpools/wasnorm_wordpool_576.txt	LTP115	ltpFR2	10	12	FLOWER	584	n/a	n/a	0	0	0
2959.468	n/a	WORD	1479734	wordpools/wasnorm_wordpool_576.txt	LTP115	ltpFR2	10	12	SPONGE	1355	n/a	n/a	0	0	0
2961.922	n/a	WORD	1480961	wordpools/wasnorm_wordpool_576.txt	LTP115	ltpFR2	10	12	JELLO	754	n/a	n/a	0	0	0
2964.586	n/a	WORD	1482293	wordpools/wasnorm_wordpool_576.txt	LTP115	ltpFR2	10	12	JUNGLE	764	n/a	n/a	0	0	0
2967.098	n/a	WORD	1483549	wordpools/wasnorm_wordpool_576.txt	LTP115	ltpFR2	10	12	MEAT	883	n/a	n/a	0	0	0
2969.74	n/a	WORD	1484870	wordpools/wasnorm_wordpool_576.txt	LTP115	ltpFR2	10	12	LASER	801	n/a	n/a	0	0	0
2972.3	n/a	WORD	1486150	wordpools/wasnorm_wordpool_576.txt	LTP115	ltpFR2	10	12	TRANSPLANT	1496	n/a	n/a	0	0	0
2975.01	n/a	WORD	1487505	wordpools/wasnorm_wordpool_576.txt	LTP115	ltpFR2	10	12	PATROL	1027	n/a	n/a	0	0	0
2976.616	n/a	START	1488308	n/a	LTP115	ltpFR2	10	n/a	n/a	n/a	18	n/a	n/a	n/a	n/a
2977.472	n/a	DISTRACTOR	1488736	n/a	LTP115	ltpFR2	10	12	n/a	n/a	n/a	n/a	0	0	0
2977.486	n/a	PROB	1488743	n/a	LTP115	ltpFR2	10	n/a	n/a	n/a	18	21	8	5	8
2979.94	n/a	PROB	1489970	n/a	LTP115	ltpFR2	10	n/a	n/a	n/a	18	14	4	7	3
2981.514	n/a	PROB	1490757	n/a	LTP115	ltpFR2	10	n/a	n/a	n/a	18	17	8	1	8
2982.936	n/a	PROB	1491468	n/a	LTP115	ltpFR2	10	n/a	n/a	n/a	18	9	3	3	3
2984.062	n/a	PROB	1492031	n/a	LTP115	ltpFR2	10	n/a	n/a	n/a	18	14	6	1	7
2985.864	n/a	PROB	1492932	n/a	LTP115	ltpFR2	10	n/a	n/a	n/a	18	22	9	8	5
2987.62	n/a	PROB	1493810	n/a	LTP115	ltpFR2	10	n/a	n/a	n/a	18	14	5	1	8
2989.326	n/a	PROB	1494663	n/a	LTP115	ltpFR2	10	n/a	n/a	n/a	18	19	7	8	4
2990.782	n/a	PROB	1495391	n/a	LTP115	ltpFR2	10	n/a	n/a	n/a	18	14	4	4	5
2992.092	n/a	PROB	1496046	n/a	LTP115	ltpFR2	10	n/a	n/a	n/a	18	17	5	3	9
2994.346	n/a	PROB	1497173	n/a	LTP115	ltpFR2	10	n/a	n/a	n/a	18	15	3	9	3
2996.192	n/a	PROB	1498096	n/a	LTP115	ltpFR2	10	n/a	n/a	n/a	18	18	6	6	6
2999.148	n/a	STOP	1499574	n/a	LTP115	ltpFR2	10	n/a	n/a	n/a	18	n/a	n/a	n/a	n/a
3002.46	n/a	REC_START	1501230	n/a	LTP115	ltpFR2	10	12	n/a	n/a	n/a	n/a	0	0	0
3003.262	n/a	REC_WORD	1501631	wordpools/wasnorm_wordpool_576.txt	LTP115	ltpFR2	10	12	PATROL	1027	n/a	n/a	0	0	0
3004.33	n/a	REC_WORD	1502165	wordpools/wasnorm_wordpool_576.txt	LTP115	ltpFR2	10	12	LASER	801	n/a	n/a	0	0	0
3005.154	n/a	REC_WORD	1502577	wordpools/wasnorm_wordpool_576.txt	LTP115	ltpFR2	10	12	TRANSPLANT	1496	n/a	n/a	0	0	0
3006.154	n/a	REC_WORD_VV	1503077	wordpools/wasnorm_wordpool_576.txt	LTP115	ltpFR2	10	12	<>	-1	n/a	n/a	0	0	0
3007.16	n/a	REC_WORD	1503580	wordpools/wasnorm_wordpool_576.txt	LTP115	ltpFR2	10	12	MEAT	883	n/a	n/a	0	0	0
3008.158	n/a	REC_WORD	1504079	wordpools/wasnorm_wordpool_576.txt	LTP115	ltpFR2	10	12	JELLO	754	n/a	n/a	0	0	0
3008.944	n/a	REC_WORD	1504472	wordpools/wasnorm_wordpool_576.txt	LTP115	ltpFR2	10	12	SPONGE	1355	n/a	n/a	0	0	0
3012.408	n/a	REC_WORD	1506204	wordpools/wasnorm_wordpool_576.txt	LTP115	ltpFR2	10	12	ZIPPER	1636	n/a	n/a	0	0	0
3013.532	n/a	REC_WORD	1506766	wordpools/wasnorm_wordpool_576.txt	LTP115	ltpFR2	10	12	JEANS	752	n/a	n/a	0	0	0
3014.532	n/a	REC_WORD_VV	1507266	wordpools/wasnorm_wordpool_576.txt	LTP115	ltpFR2	10	12	<>	-1	n/a	n/a	0	0	0
3015.504	n/a	REC_WORD	1507752	wordpools/wasnorm_wordpool_576.txt	LTP115	ltpFR2	10	12	CABIN	211	n/a	n/a	0	0	0
3016.618	n/a	REC_WORD	1508309	wordpools/wasnorm_wordpool_576.txt	LTP115	ltpFR2	10	12	JUNGLE	764	n/a	n/a	0	0	0
3017.586	n/a	REC_WORD	1508793	wordpools/wasnorm_wordpool_576.txt	LTP115	ltpFR2	10	12	LODGE	839	n/a	n/a	0	0	0
3018.54	n/a	REC_WORD	1509270	wordpools/wasnorm_wordpool_576.txt	LTP115	ltpFR2	10	12	MATCH	878	n/a	n/a	0	0	0
3019.74	n/a	REC_WORD	1509870	wordpools/wasnorm_wordpool_576.txt	LTP115	ltpFR2	10	12	LUMBER	848	n/a	n/a	0	0	0
3022.824	n/a	REC_WORD	1511412	wordpools/wasnorm_wordpool_576.txt	LTP115	ltpFR2	10	12	FLOWER	584	n/a	n/a	0	0	0
3025.704	n/a	REC_WORD	1512852	wordpools/wasnorm_wordpool_576.txt	LTP115	ltpFR2	10	12	BOYFRIEND	162	n/a	n/a	0	0	0
3028.642	n/a	REC_WORD	1514321	wordpools/wasnorm_wordpool_576.txt	LTP115	ltpFR2	10	12	CANAL	226	n/a	n/a	0	0	0
3029.756	n/a	REC_WORD	1514878	wordpools/wasnorm_wordpool_576.txt	LTP115	ltpFR2	10	12	HELMET	702	n/a	n/a	0	0	0
3031.44	n/a	REC_WORD	1515720	wordpools/wasnorm_wordpool_576.txt	LTP115	ltpFR2	10	12	PUPPY	1144	n/a	n/a	0	0	0
3032.242	n/a	REC_WORD	1516121	wordpools/wasnorm_wordpool_576.txt	LTP115	ltpFR2	10	12	SPOOL	1356	n/a	n/a	0	0	0
3033.392	n/a	REC_WORD	1516696	wordpools/wasnorm_wordpool_576.txt	LTP115	ltpFR2	10	12	SEAGULL	1261	n/a	n/a	0	0	0
3093.48	n/a	DISTRACTOR	1546740	n/a	LTP115	ltpFR2	10	13	n/a	n/a	n/a	n/a	0	0	0
3093.48	n/a	START	1546740	n/a	LTP115	ltpFR2	10	n/a	n/a	n/a	19	n/a	n/a	n/a	n/a
3093.53	n/a	PROB	1546765	n/a	LTP115	ltpFR2	10	n/a	n/a	n/a	19	11	5	4	2
3095.956	n/a	PROB	1547978	n/a	LTP115	ltpFR2	10	n/a	n/a	n/a	19	16	1	7	8
3097.26	n/a	PROB	1548630	n/a	LTP115	ltpFR2	10	n/a	n/a	n/a	19	13	9	3	1
3098.494	n/a	PROB	1549247	n/a	LTP115	ltpFR2	10	n/a	n/a	n/a	19	5	1	2	2
3099.682	n/a	PROB	1549841	n/a	LTP115	ltpFR2	10	n/a	n/a	n/a	19	19	5	9	5
3101.188	n/a	PROB	1550594	n/a	LTP115	ltpFR2	10	n/a	n/a	n/a	19	16	7	4	5
3103.53	n/a	PROB	1551765	n/a	LTP115	ltpFR2	10	n/a	n/a	n/a	19	18	8	5	5
3104.666	n/a	PROB	1552333	n/a	LTP115	ltpFR2	10	n/a	n/a	n/a	19	14	3	8	3
3107.044	n/a	PROB	1553522	n/a	LTP115	ltpFR2	10	n/a	n/a	n/a	19	8	1	5	2
3108.204	n/a	PROB	1554102	n/a	LTP115	ltpFR2	10	n/a	n/a	n/a	19	22	6	8	8
3110.678	n/a	PROB	1555339	n/a	LTP115	ltpFR2	10	n/a	n/a	n/a	19	15	6	8	1
3114.372	n/a	PROB	1557186	n/a	LTP115	ltpFR2	10	n/a	n/a	n/a	19	24	9	8	7
3116.712	n/a	STOP	1558356	n/a	LTP115	ltpFR2	10	n/a	n/a	n/a	19	n/a	n/a	n/a	n/a
3118.386	n/a	WORD	1559193	wordpools/wasnorm_wordpool_576.txt	LTP115	ltpFR2	10	13	CASHIER	254	n/a	n/a	0	0	0
3120.95	n/a	WORD	1560475	wordpools/wasnorm_wordpool_576.txt	LTP115	ltpFR2	10	13	PUDDING	1139	n/a	n/a	0	0	0
3123.628	n/a	WORD	1561814	wordpools/wasnorm_wordpool_576.txt	LTP115	ltpFR2	10	13	PANTHER	1009	n/a	n/a	0	0	0
3126.156	n/a	WORD	1563078	wordpools/wasnorm_wordpool_576.txt	LTP115	ltpFR2	10	13	BELLY	119	n/a	n/a	0	0	0
3128.63	n/a	WORD	1564315	wordpools/wasnorm_wordpool_576.txt	LTP115	ltpFR2	10	13	PLIERS	1089	n/a	n/a	0	0	0
3131.374	n/a	WORD	1565687	wordpools/wasnorm_wordpool_576.txt	LTP115	ltpFR2	10	13	SPHINX	1349	n/a	n/a	0	0	0
3134.152	n/a	WORD	1567076	wordpools/wasnorm_wordpool_576.txt	LTP115	ltpFR2	10	13	QUAIL	1147	n/a	n/a	0	0	0
3136.622	n/a	WORD	1568311	wordpools/wasnorm_wordpool_576.txt	LTP115	ltpFR2	10	13	TWEEZERS	1526	n/a	n/a	0	0	0
3139.338	n/a	WORD	1569669	wordpools/wasnorm_wordpool_576.txt	LTP115	ltpFR2	10	13	FLESH	579	n/a	n/a	0	0	0
3141.826	n/a	WORD	1570913	wordpools/wasnorm_wordpool_576.txt	LTP115	ltpFR2	10	13	FOX	598	n/a	n/a	0	0	0
3144.52	n/a	WORD	1572260	wordpools/wasnorm_wordpool_576.txt	LTP115	ltpFR2	10	13	TURNIP	1521	n/a	n/a	0	0	0
3147.236	n/a	WORD	1573618	wordpools/wasnorm_wordpool_576.txt	LTP115	ltpFR2	10	13	LETTUCE	814	n/a	n/a	0	0	0
3150.03	n/a	WORD	1575015	wordpools/wasnorm_wordpool_576.txt	LTP115	ltpFR2	10	13	EUROPE	541	n/a	n/a	0	0	0
3152.504	n/a	WORD	1576252	wordpools/wasnorm_wordpool_576.txt	LTP115	ltpFR2	10	13	FRANCE	601	n/a	n/a	0	0	0
3155.098	n/a	WORD	1577549	wordpools/wasnorm_wordpool_576.txt	LTP115	ltpFR2	10	13	PERCH	1048	n/a	n/a	0	0	0
3157.658	n/a	WORD	1578829	wordpools/wasnorm_wordpool_576.txt	LTP115	ltpFR2	10	13	SISTER	1312	n/a	n/a	0	0	0
3160.434	n/a	WORD	1580217	wordpools/wasnorm_wordpool_576.txt	LTP115	ltpFR2	10	13	ROBIN	1199	n/a	n/a	0	0	0
3163.13	n/a	WORD	1581565	wordpools/wasnorm_wordpool_576.txt	LTP115	ltpFR2	10	13	HEDGE	699	n/a	n/a	0	0	0
3165.622	n/a	WORD	1582811	wordpools/wasnorm_wordpool_576.txt	LTP115	ltpFR2	10	13	FLIPPER	580	n/a	n/a	0	0	0
3168.328	n/a	WORD	1584164	wordpools/wasnorm_wordpool_576.txt	LTP115	ltpFR2	10	13	CHIPMUNK	304	n/a	n/a	0	0	0
3170.804	n/a	WORD	1585402	wordpools/wasnorm_wordpool_576.txt	LTP115	ltpFR2	10	13	CANDY	230	n/a	n/a	0	0	0
3173.536	n/a	WORD	1586768	wordpools/wasnorm_wordpool_576.txt	LTP115	ltpFR2	10	13	CRAYON	401	n/a	n/a	0	0	0
3176.328	n/a	WORD	1588164	wordpools/wasnorm_wordpool_576.txt	LTP115	ltpFR2	10	13	OUTDOORS	987	n/a	n/a	0	0	0
3179.074	n/a	WORD	1589537	wordpools/wasnorm_wordpool_576.txt	LTP115	ltpFR2	10	13	KIDNEY	776	n/a	n/a	0	0	0
3180.69	n/a	START	1590345	n/a	LTP115	ltpFR2	10	n/a	n/a	n/a	20	n/a	n/a	n/a	n/a
3181.7	n/a	DISTRACTOR	1590850	n/a	LTP115	ltpFR2	10	13	n/a	n/a	n/a	n/a	0	0	0
3181.716	n/a	PROB	1590858	n/a	LTP115	ltpFR2	10	n/a	n/a	n/a	20	11	1	6	4
3183.052	n/a	PROB	1591526	n/a	LTP115	ltpFR2	10	n/a	n/a	n/a	20	19	9	4	6
3185.08	n/a	PROB	1592540	n/a	LTP115	ltpFR2	10	n/a	n/a	n/a	20	11	3	7	1
3186.598	n/a	PROB	1593299	n/a	LTP115	ltpFR2	10	n/a	n/a	n/a	20	20	4	8	8
3188.426	n/a	PROB	1594213	n/a	LTP115	ltpFR2	10	n/a	n/a	n/a	20	7	3	2	2
3189.994	n/a	PROB	1594997	n/a	LTP115	ltpFR2	10	n/a	n/a	n/a	20	14	3	6	5
3192.67	n/a	PROB	1596335	n/a	LTP115	ltpFR2	10	n/a	n/a	n/a	20	15	3	4	8
3195.48	n/a	PROB	1597740	n/a	LTP115	ltpFR2	10	n/a	n/a	n/a	20	19	2	8	9
3196.752	n/a	PROB	1598376	n/a	LTP115	ltpFR2	10	n/a	n/a	n/a	20	17	8	8	1
3198.426	n/a	PROB	1599213	n/a	LTP115	ltpFR2	10	n/a	n/a	n/a	20	10	5	3	2
3199.764	n/a	PROB	1599882	n/a	LTP115	ltpFR2	10	n/a	n/a	n/a	20	13	7	1	5
3200.884	n/a	PROB	1600442	n/a	LTP115	ltpFR2	10	n/a	n/a	n/a	20	11	4	4	3
3202.208	n/a	PROB	1601104	n/a	LTP115	ltpFR2	10	n/a	n/a	n/a	20	18	3	8	7
3203.814	n/a	STOP	1601907	n/a	LTP115	ltpFR2	10	n/a	n/a	n/a	20	n/a	n/a	n/a	n/a
3206.474	n/a	REC_START	1603237	n/a	LTP115	ltpFR2	10	13	n/a	n/a	n/a	n/a	0	0	0
3207.454	n/a	REC_WORD	1603727	wordpools/wasnorm_wordpool_576.txt	LTP115	ltpFR2	10	13	HEDGE	699	n/a	n/a	0	0	0
3208.244	n/a	REC_WORD	1604122	wordpools/wasnorm_wordpool_576.txt	LTP115	ltpFR2	10	13	PERCH	1048	n/a	n/a	0	0	0
3209.696	n/a	REC_WORD	1604848	wordpools/wasnorm_wordpool_576.txt	LTP115	ltpFR2	10	13	SISTER	1312	n/a	n/a	0	0	0
3210.626	n/a	REC_WORD	1605313	wordpools/wasnorm_wordpool_576.txt	LTP115	ltpFR2	10	13	ROBIN	1199	n/a	n/a	0	0	0
3211.466	n/a	REC_WORD	1605733	wordpools/wasnorm_wordpool_576.txt	LTP115	ltpFR2	10	13	CHIPMUNK	304	n/a	n/a	0	0	0
3212.296	n/a	REC_WORD	1606148	wordpools/wasnorm_wordpool_576.txt	LTP115	ltpFR2	10	13	FLIPPER	580	n/a	n/a	0	0	0
3221.422	n/a	REC_WORD	1610711	wordpools/wasnorm_wordpool_576.txt	LTP115	ltpFR2	10	13	TWEEZERS	1526	n/a	n/a	0	0	0
3222.222	n/a	REC_WORD	1611111	wordpools/wasnorm_wordpool_576.txt	LTP115	ltpFR2	10	13	PLIERS	1089	n/a	n/a	0	0	0
3223.314	n/a	REC_WORD	1611657	wordpools/wasnorm_wordpool_576.txt	LTP115	ltpFR2	10	13	PUDDING	1139	n/a	n/a	0	0	0
3224.116	n/a	REC_WORD	1612058	wordpools/wasnorm_wordpool_576.txt	LTP115	ltpFR2	10	13	CASHIER	254	n/a	n/a	0	0	0
3226.55	n/a	REC_WORD	1613275	wordpools/wasnorm_wordpool_576.txt	LTP115	ltpFR2	10	13	FLESH	579	n/a	n/a	0	0	0
3227.822	n/a	REC_WORD	1613911	wordpools/wasnorm_wordpool_576.txt	LTP115	ltpFR2	10	13	FOX	598	n/a	n/a	0	0	0
3228.822	n/a	REC_WORD_VV	1614411	wordpools/wasnorm_wordpool_576.txt	LTP115	ltpFR2	10	13	<>	-1	n/a	n/a	0	0	0
3232.722	n/a	REC_WORD	1616361	wordpools/wasnorm_wordpool_576.txt	LTP115	ltpFR2	10	13	LETTUCE	814	n/a	n/a	0	0	0
3233.478	n/a	REC_WORD	1616739	wordpools/wasnorm_wordpool_576.txt	LTP115	ltpFR2	10	13	TURNIP	1521	n/a	n/a	0	0	0
3237.462	n/a	REC_WORD	1618731	wordpools/wasnorm_wordpool_576.txt	LTP115	ltpFR2	10	13	LEOPARD	812	n/a	n/a	0	0	0
3238.508	n/a	REC_WORD	1619254	wordpools/wasnorm_wordpool_576.txt	LTP115	ltpFR2	10	13	JAGUAR	-1	n/a	n/a	0	0	0
3239.508	n/a	REC_WORD_VV	1619754	wordpools/wasnorm_wordpool_576.txt	LTP115	ltpFR2	10	13	<>	-1	n/a	n/a	0	0	0
3297.56	n/a	DISTRACTOR	1648780	n/a	LTP115	ltpFR2	10	14	n/a	n/a	n/a	n/a	0	0	0
3297.56	n/a	START	1648780	n/a	LTP115	ltpFR2	10	n/a	n/a	n/a	21	n/a	n/a	n/a	n/a
3297.61	n/a	PROB	1648805	n/a	LTP115	ltpFR2	10	n/a	n/a	n/a	21	17	6	2	9
3299.768	n/a	PROB	1649884	n/a	LTP115	ltpFR2	10	n/a	n/a	n/a	21	8	5	3	1
3301.006	n/a	PROB	1650503	n/a	LTP115	ltpFR2	10	n/a	n/a	n/a	21	19	4	8	7
3303.344	n/a	PROB	1651672	n/a	LTP115	ltpFR2	10	n/a	n/a	n/a	21	18	5	7	6
3305.106	n/a	PROB	1652553	n/a	LTP115	ltpFR2	10	n/a	n/a	n/a	21	19	7	8	4
3308.312	n/a	PROB	1654156	n/a	LTP115	ltpFR2	10	n/a	n/a	n/a	21	19	8	6	5
3310.27	n/a	PROB	1655135	n/a	LTP115	ltpFR2	10	n/a	n/a	n/a	21	14	3	6	5
3312.198	n/a	PROB	1656099	n/a	LTP115	ltpFR2	10	n/a	n/a	n/a	21	14	3	8	3
3314.018	n/a	PROB	1657009	n/a	LTP115	ltpFR2	10	n/a	n/a	n/a	21	14	6	2	6
3315.842	n/a	PROB	1657921	n/a	LTP115	ltpFR2	10	n/a	n/a	n/a	21	23	7	8	8
3318.552	n/a	PROB	1659276	n/a	LTP115	ltpFR2	10	n/a	n/a	n/a	21	19	5	7	7
3320.756	n/a	STOP	1660378	n/a	LTP115	ltpFR2	10	n/a	n/a	n/a	21	n/a	n/a	n/a	n/a
3322.688	n/a	WORD	1661344	wordpools/wasnorm_wordpool_576.txt	LTP115	ltpFR2	10	14	MONSTER	912	n/a	n/a	0	0	0
3325.428	n/a	WORD	1662714	wordpools/wasnorm_wordpool_576.txt	LTP115	ltpFR2	10	14	WRIST	1626	n/a	n/a	0	0	0
3328.194	n/a	WORD	1664097	wordpools/wasnorm_wordpool_576.txt	LTP115	ltpFR2	10	14	SEAFOOD	1260	n/a	n/a	0	0	0
3330.92	n/a	WORD	1665460	wordpools/wasnorm_wordpool_576.txt	LTP115	ltpFR2	10	14	PENGUIN	1044	n/a	n/a	0	0	0
3333.56	n/a	WORD	1666780	wordpools/wasnorm_wordpool_576.txt	LTP115	ltpFR2	10	14	SPARROW	1347	n/a	n/a	0	0	0
3336.354	n/a	WORD	1668177	wordpools/wasnorm_wordpool_576.txt	LTP115	ltpFR2	10	14	MESSAGE	888	n/a	n/a	0	0	0
3339.086	n/a	WORD	1669543	wordpools/wasnorm_wordpool_576.txt	LTP115	ltpFR2	10	14	BUTCHER	203	n/a	n/a	0	0	0
3341.578	n/a	WORD	1670789	wordpools/wasnorm_wordpool_576.txt	LTP115	ltpFR2	10	14	CONVICT	371	n/a	n/a	0	0	0
3344.138	n/a	WORD	1672069	wordpools/wasnorm_wordpool_576.txt	LTP115	ltpFR2	10	14	YACHT	1629	n/a	n/a	0	0	0
3346.93	n/a	WORD	1673465	wordpools/wasnorm_wordpool_576.txt	LTP115	ltpFR2	10	14	ISLAND	745	n/a	n/a	0	0	0
3349.44	n/a	WORD	1674720	wordpools/wasnorm_wordpool_576.txt	LTP115	ltpFR2	10	14	DRINK	498	n/a	n/a	0	0	0
3352.136	n/a	WORD	1676068	wordpools/wasnorm_wordpool_576.txt	LTP115	ltpFR2	10	14	NURSE	963	n/a	n/a	0	0	0
3354.94	n/a	WORD	1677470	wordpools/wasnorm_wordpool_576.txt	LTP115	ltpFR2	10	14	FIREPLACE	570	n/a	n/a	0	0	0
3357.734	n/a	WORD	1678867	wordpools/wasnorm_wordpool_576.txt	LTP115	ltpFR2	10	14	COCOON	339	n/a	n/a	0	0	0
3360.332	n/a	WORD	1680166	wordpools/wasnorm_wordpool_576.txt	LTP115	ltpFR2	10	14	LIGHTNING	820	n/a	n/a	0	0	0
3362.876	n/a	WORD	1681438	wordpools/wasnorm_wordpool_576.txt	LTP115	ltpFR2	10	14	MARS	873	n/a	n/a	0	0	0
3365.636	n/a	WORD	1682818	wordpools/wasnorm_wordpool_576.txt	LTP115	ltpFR2	10	14	POLICE	1098	n/a	n/a	0	0	0
3368.196	n/a	WORD	1684098	wordpools/wasnorm_wordpool_576.txt	LTP115	ltpFR2	10	14	GUARD	667	n/a	n/a	0	0	0
3370.856	n/a	WORD	1685428	wordpools/wasnorm_wordpool_576.txt	LTP115	ltpFR2	10	14	HOOK	715	n/a	n/a	0	0	0
3373.4	n/a	WORD	1686700	wordpools/wasnorm_wordpool_576.txt	LTP115	ltpFR2	10	14	CLOUD	328	n/a	n/a	0	0	0
3376.206	n/a	WORD	1688103	wordpools/wasnorm_wordpool_576.txt	LTP115	ltpFR2	10	14	KNIFE	785	n/a	n/a	0	0	0
3378.786	n/a	WORD	1689393	wordpools/wasnorm_wordpool_576.txt	LTP115	ltpFR2	10	14	PORK	1108	n/a	n/a	0	0	0
3381.38	n/a	WORD	1690690	wordpools/wasnorm_wordpool_576.txt	LTP115	ltpFR2	10	14	LION	827	n/a	n/a	0	0	0
3384.052	n/a	WORD	1692026	wordpools/wasnorm_wordpool_576.txt	LTP115	ltpFR2	10	14	CRITIC	410	n/a	n/a	0	0	0
3385.662	n/a	START	1692831	n/a	LTP115	ltpFR2	10	n/a	n/a	n/a	22	n/a	n/a	n/a	n/a
3386.624	n/a	DISTRACTOR	1693312	n/a	LTP115	ltpFR2	10	14	n/a	n/a	n/a	n/a	0	0	0
3386.632	n/a	PROB	1693316	n/a	LTP115	ltpFR2	10	n/a	n/a	n/a	22	13	5	3	5
3388.156	n/a	PROB	1694078	n/a	LTP115	ltpFR2	10	n/a	n/a	n/a	22	14	2	6	6
3390.06	n/a	PROB	1695030	n/a	LTP115	ltpFR2	10	n/a	n/a	n/a	22	17	5	7	5
3391.67	n/a	PROB	1695835	n/a	LTP115	ltpFR2	10	n/a	n/a	n/a	22	15	3	7	5
3393.254	n/a	PROB	1696627	n/a	LTP115	ltpFR2	10	n/a	n/a	n/a	22	12	3	2	7
3394.626	n/a	PROB	1697313	n/a	LTP115	ltpFR2	10	n/a	n/a	n/a	22	17	9	2	6
3396.806	n/a	PROB	1698403	n/a	LTP115	ltpFR2	10	n/a	n/a	n/a	22	17	5	3	9
3398.124	n/a	PROB	1699062	n/a	LTP115	ltpFR2	10	n/a	n/a	n/a	22	18	3	6	9
3399.566	n/a	PROB	1699783	n/a	LTP115	ltpFR2	10	n/a	n/a	n/a	22	16	8	3	5
3401.084	n/a	PROB	1700542	n/a	LTP115	ltpFR2	10	n/a	n/a	n/a	22	17	4	4	9
3403.008	n/a	PROB	1701504	n/a	LTP115	ltpFR2	10	n/a	n/a	n/a	22	6	1	2	3
3404.18	n/a	PROB	1702090	n/a	LTP115	ltpFR2	10	n/a	n/a	n/a	22	133	4	3	6
3405.952	n/a	PROB	1702976	n/a	LTP115	ltpFR2	10	n/a	n/a	n/a	22	20	9	3	8
3408.314	n/a	STOP	1704157	n/a	LTP115	ltpFR2	10	n/a	n/a	n/a	22	n/a	n/a	n/a	n/a
3411.44	n/a	REC_START	1705720	n/a	LTP115	ltpFR2	10	14	n/a	n/a	n/a	n/a	0	0	0
3412.396	n/a	REC_WORD	1706198	wordpools/wasnorm_wordpool_576.txt	LTP115	ltpFR2	10	14	HOOK	715	n/a	n/a	0	0	0
3412.962	n/a	REC_WORD	1706481	wordpools/wasnorm_wordpool_576.txt	LTP115	ltpFR2	10	14	KNIFE	785	n/a	n/a	0	0	0
3413.842	n/a	REC_WORD	1706921	wordpools/wasnorm_wordpool_576.txt	LTP115	ltpFR2	10	14	CONVICT	371	n/a	n/a	0	0	0
3414.764	n/a	REC_WORD	1707382	wordpools/wasnorm_wordpool_576.txt	LTP115	ltpFR2	10	14	POLICE	1098	n/a	n/a	0	0	0
3415.834	n/a	REC_WORD	1707917	wordpools/wasnorm_wordpool_576.txt	LTP115	ltpFR2	10	14	GUARD	667	n/a	n/a	0	0	0
3417.954	n/a	REC_WORD	1708977	wordpools/wasnorm_wordpool_576.txt	LTP115	ltpFR2	10	14	ISLAND	745	n/a	n/a	0	0	0
3420.312	n/a	REC_WORD	1710156	wordpools/wasnorm_wordpool_576.txt	LTP115	ltpFR2	10	14	YACHT	1629	n/a	n/a	0	0	0
3421.462	n/a	REC_WORD	1710731	wordpools/wasnorm_wordpool_576.txt	LTP115	ltpFR2	10	14	NURSE	963	n/a	n/a	0	0	0
3427.076	n/a	REC_WORD	1713538	wordpools/wasnorm_wordpool_576.txt	LTP115	ltpFR2	10	14	FIREPLACE	570	n/a	n/a	0	0	0
3428.076	n/a	REC_WORD_VV	1714038	wordpools/wasnorm_wordpool_576.txt	LTP115	ltpFR2	10	14	<>	-1	n/a	n/a	0	0	0
3431.26	n/a	REC_WORD	1715630	wordpools/wasnorm_wordpool_576.txt	LTP115	ltpFR2	10	14	DRINK	498	n/a	n/a	0	0	0
3434.374	n/a	REC_WORD	1717187	wordpools/wasnorm_wordpool_576.txt	LTP115	ltpFR2	10	14	LIGHTNING	820	n/a	n/a	0	0	0
3435.572	n/a	REC_WORD	1717786	wordpools/wasnorm_wordpool_576.txt	LTP115	ltpFR2	10	14	CLOUD	328	n/a	n/a	0	0	0
3436.742	n/a	REC_WORD	1718371	wordpools/wasnorm_wordpool_576.txt	LTP115	ltpFR2	10	14	PORK	1108	n/a	n/a	0	0	0
3439.91	n/a	REC_WORD	1719955	wordpools/wasnorm_wordpool_576.txt	LTP115	ltpFR2	10	14	BUTCHER	203	n/a	n/a	0	0	0
3441.224	n/a	REC_WORD	1720612	wordpools/wasnorm_wordpool_576.txt	LTP115	ltpFR2	10	14	VENUS	1557	n/a	n/a	0	0	0
3442.224	n/a	REC_WORD_VV	1721112	wordpools/wasnorm_wordpool_576.txt	LTP115	ltpFR2	10	14	<>	-1	n/a	n/a	0	0	0
3442.616	n/a	REC_WORD	1721308	wordpools/wasnorm_wordpool_576.txt	LTP115	ltpFR2	10	14	MARS	873	n/a	n/a	0	0	0
3444.496	n/a	REC_WORD_VV	1722248	wordpools/wasnorm_wordpool_576.txt	LTP115	ltpFR2	10	14	<>	-1	n/a	n/a	0	0	0
3451.572	n/a	REC_WORD_VV	1725786	wordpools/wasnorm_wordpool_576.txt	LTP115	ltpFR2	10	14	<>	-1	n/a	n/a	0	0	0
3453.364	n/a	REC_WORD	1726682	wordpools/wasnorm_wordpool_576.txt	LTP115	ltpFR2	10	14	CRITIC	410	n/a	n/a	0	0	0
3456.302	n/a	REC_WORD_VV	1728151	wordpools/wasnorm_wordpool_576.txt	LTP115	ltpFR2	10	14	<>	-1	n/a	n/a	0	0	0
3459.708	n/a	REC_WORD	1729854	wordpools/wasnorm_wordpool_576.txt	LTP115	ltpFR2	10	14	MONSTER	912	n/a	n/a	0	0	0
3460.708	n/a	REC_WORD_VV	1730354	wordpools/wasnorm_wordpool_576.txt	LTP115	ltpFR2	10	14	<>	-1	n/a	n/a	0	0	0
3464.818	n/a	REC_WORD	1732409	wordpools/wasnorm_wordpool_576.txt	LTP115	ltpFR2	10	14	SEAFOOD	1260	n/a	n/a	0	0	0
3465.756	n/a	REC_WORD	1732878	wordpools/wasnorm_wordpool_576.txt	LTP115	ltpFR2	10	14	PENGUIN	1044	n/a	n/a	0	0	0
3466.692	n/a	REC_WORD	1733346	wordpools/wasnorm_wordpool_576.txt	LTP115	ltpFR2	10	14	WRIST	1626	n/a	n/a	0	0	0
3502.51	n/a	WORD	1751255	wordpools/wasnorm_wordpool_576.txt	LTP115	ltpFR2	10	15	BOARD	143	n/a	n/a	0	0	0
3504.936	n/a	WORD	1752468	wordpools/wasnorm_wordpool_576.txt	LTP115	ltpFR2	10	15	STAKE	1368	n/a	n/a	0	0	0
3507.474	n/a	WORD	1753737	wordpools/wasnorm_wordpool_576.txt	LTP115	ltpFR2	10	15	BABY	64	n/a	n/a	0	0	0
3510.19	n/a	WORD	1755095	wordpools/wasnorm_wordpool_576.txt	LTP115	ltpFR2	10	15	BASEMENT	94	n/a	n/a	0	0	0
3513.0	n/a	WORD	1756500	wordpools/wasnorm_wordpool_576.txt	LTP115	ltpFR2	10	15	CRAB	397	n/a	n/a	0	0	0
3515.57	n/a	WORD	1757785	wordpools/wasnorm_wordpool_576.txt	LTP115	ltpFR2	10	15	PLUTO	1092	n/a	n/a	0	0	0
3518.052	n/a	WORD	1759026	wordpools/wasnorm_wordpool_576.txt	LTP115	ltpFR2	10	15	MUFFIN	929	n/a	n/a	0	0	0
3520.546	n/a	WORD	1760273	wordpools/wasnorm_wordpool_576.txt	LTP115	ltpFR2	10	15	SANDWICH	1232	n/a	n/a	0	0	0
3523.004	n/a	WORD	1761502	wordpools/wasnorm_wordpool_576.txt	LTP115	ltpFR2	10	15	BLOUSE	139	n/a	n/a	0	0	0
3525.626	n/a	WORD	1762813	wordpools/wasnorm_wordpool_576.txt	LTP115	ltpFR2	10	15	LAPEL	800	n/a	n/a	0	0	0
3528.374	n/a	WORD	1764187	wordpools/wasnorm_wordpool_576.txt	LTP115	ltpFR2	10	15	TORTOISE	1486	n/a	n/a	0	0	0
3531.17	n/a	WORD	1765585	wordpools/wasnorm_wordpool_576.txt	LTP115	ltpFR2	10	15	PILOT	1070	n/a	n/a	0	0	0
3533.98	n/a	WORD	1766990	wordpools/wasnorm_wordpool_576.txt	LTP115	ltpFR2	10	15	ROBOT	1200	n/a	n/a	0	0	0
3536.656	n/a	WORD	1768328	wordpools/wasnorm_wordpool_576.txt	LTP115	ltpFR2	10	15	SNAIL	1332	n/a	n/a	0	0	0
3539.418	n/a	WORD	1769709	wordpools/wasnorm_wordpool_576.txt	LTP115	ltpFR2	10	15	RATTLE	1170	n/a	n/a	0	0	0
3541.96	n/a	WORD	1770980	wordpools/wasnorm_wordpool_576.txt	LTP115	ltpFR2	10	15	DAUGHTER	442	n/a	n/a	0	0	0
3544.486	n/a	WORD	1772243	wordpools/wasnorm_wordpool_576.txt	LTP115	ltpFR2	10	15	FREEZER	604	n/a	n/a	0	0	0
3547.296	n/a	WORD	1773648	wordpools/wasnorm_wordpool_576.txt	LTP115	ltpFR2	10	15	CREVICE	405	n/a	n/a	0	0	0
3549.824	n/a	WORD	1774912	wordpools/wasnorm_wordpool_576.txt	LTP115	ltpFR2	10	15	MARKER	870	n/a	n/a	0	0	0
3552.362	n/a	WORD	1776181	wordpools/wasnorm_wordpool_576.txt	LTP115	ltpFR2	10	15	NOTEBOOK	959	n/a	n/a	0	0	0
3554.792	n/a	WORD	1777396	wordpools/wasnorm_wordpool_576.txt	LTP115	ltpFR2	10	15	SCRIBBLE	1256	n/a	n/a	0	0	0
3557.382	n/a	WORD	1778691	wordpools/wasnorm_wordpool_576.txt	LTP115	ltpFR2	10	15	PREACHER	1119	n/a	n/a	0	0	0
3560.03	n/a	WORD	1780015	wordpools/wasnorm_wordpool_576.txt	LTP115	ltpFR2	10	15	SERVER	1272	n/a	n/a	0	0	0
3562.622	n/a	WORD	1781311	wordpools/wasnorm_wordpool_576.txt	LTP115	ltpFR2	10	15	PARROT	1015	n/a	n/a	0	0	0
3564.23	n/a	START	1782115	n/a	LTP115	ltpFR2	10	n/a	n/a	n/a	23	n/a	n/a	n/a	n/a
3565.162	n/a	DISTRACTOR	1782581	n/a	LTP115	ltpFR2	10	15	n/a	n/a	n/a	n/a	0	0	0
3565.178	n/a	PROB	1782589	n/a	LTP115	ltpFR2	10	n/a	n/a	n/a	23	19	4	6	9
3566.85	n/a	PROB	1783425	n/a	LTP115	ltpFR2	10	n/a	n/a	n/a	23	17	6	6	5
3568.39	n/a	PROB	1784195	n/a	LTP115	ltpFR2	10	n/a	n/a	n/a	23	16	2	6	8
3569.794	n/a	PROB	1784897	n/a	LTP115	ltpFR2	10	n/a	n/a	n/a	23	15	7	5	3
3572.672	n/a	PROB	1786336	n/a	LTP115	ltpFR2	10	n/a	n/a	n/a	23	26	9	8	9
3574.868	n/a	PROB	1787434	n/a	LTP115	ltpFR2	10	n/a	n/a	n/a	23	12	1	8	3
3577.792	n/a	PROB	1788896	n/a	LTP115	ltpFR2	10	n/a	n/a	n/a	23	14	7	5	2
3579.47	n/a	PROB	1789735	n/a	LTP115	ltpFR2	10	n/a	n/a	n/a	23	19	5	6	8
3580.792	n/a	PROB	1790396	n/a	LTP115	ltpFR2	10	n/a	n/a	n/a	23	18	3	7	8
3582.248	n/a	PROB	1791124	n/a	LTP115	ltpFR2	10	n/a	n/a	n/a	23	5	1	3	1
3583.296	n/a	PROB	1791648	n/a	LTP115	ltpFR2	10	n/a	n/a	n/a	23	12	3	3	6
3584.87	n/a	PROB	1792435	n/a	LTP115	ltpFR2	10	n/a	n/a	n/a	23	12	2	9	1
3585.99	n/a	PROB	1792995	n/a	LTP115	ltpFR2	10	n/a	n/a	n/a	23	18	9	6	3
3587.658	n/a	STOP	1793829	n/a	LTP115	ltpFR2	10	n/a	n/a	n/a	23	n/a	n/a	n/a	n/a
3590.112	n/a	REC_START	1795056	n/a	LTP115	ltpFR2	10	15	n/a	n/a	n/a	n/a	0	0	0
3591.512	n/a	REC_WORD	1795756	wordpools/wasnorm_wordpool_576.txt	LTP115	ltpFR2	10	15	PARROT	1015	n/a	n/a	0	0	0
3594.252	n/a	REC_WORD	1797126	wordpools/wasnorm_wordpool_576.txt	LTP115	ltpFR2	10	15	BABY	64	n/a	n/a	0	0	0
3595.472	n/a	REC_WORD	1797736	wordpools/wasnorm_wordpool_576.txt	LTP115	ltpFR2	10	15	DAUGHTER	442	n/a	n/a	0	0	0
3596.508	n/a	REC_WORD	1798254	wordpools/wasnorm_wordpool_576.txt	LTP115	ltpFR2	10	15	RATTLE	1170	n/a	n/a	0	0	0
3598.864	n/a	REC_WORD	1799432	wordpools/wasnorm_wordpool_576.txt	LTP115	ltpFR2	10	15	SCRIBBLE	1256	n/a	n/a	0	0	0
3600.604	n/a	REC_WORD	1800302	wordpools/wasnorm_wordpool_576.txt	LTP115	ltpFR2	10	15	MARKER	870	n/a	n/a	0	0	0
3601.592	n/a	REC_WORD	1800796	wordpools/wasnorm_wordpool_576.txt	LTP115	ltpFR2	10	15	NOTEBOOK	959	n/a	n/a	0	0	0
3603.402	n/a	REC_WORD	1801701	wordpools/wasnorm_wordpool_576.txt	LTP115	ltpFR2	10	15	BASEMENT	94	n/a	n/a	0	0	0
3605.206	n/a	REC_WORD	1802603	wordpools/wasnorm_wordpool_576.txt	LTP115	ltpFR2	10	15	CRAB	397	n/a	n/a	0	0	0
3606.406	n/a	REC_WORD	1803203	wordpools/wasnorm_wordpool_576.txt	LTP115	ltpFR2	10	15	TORTOISE	1486	n/a	n/a	0	0	0
3607.362	n/a	REC_WORD	1803681	wordpools/wasnorm_wordpool_576.txt	LTP115	ltpFR2	10	15	SNAIL	1332	n/a	n/a	0	0	0
3608.488	n/a	REC_WORD	1804244	wordpools/wasnorm_wordpool_576.txt	LTP115	ltpFR2	10	15	CREVICE	405	n/a	n/a	0	0	0
3609.482	n/a	REC_WORD	1804741	wordpools/wasnorm_wordpool_576.txt	LTP115	ltpFR2	10	15	PREACHER	1119	n/a	n/a	0	0	0
3626.904	n/a	REC_WORD	1813452	wordpools/wasnorm_wordpool_576.txt	LTP115	ltpFR2	10	15	FREEZER	604	n/a	n/a	0	0	0
3681.142	n/a	DISTRACTOR	1840571	n/a	LTP115	ltpFR2	10	16	n/a	n/a	n/a	n/a	0	0	0
3681.142	n/a	START	1840571	n/a	LTP115	ltpFR2	10	n/a	n/a	n/a	24	n/a	n/a	n/a	n/a
3681.192	n/a	PROB	1840596	n/a	LTP115	ltpFR2	10	n/a	n/a	n/a	24	17	9	4	4
3683.234	n/a	PROB	1841617	n/a	LTP115	ltpFR2	10	n/a	n/a	n/a	24	13	3	7	3
3685.124	n/a	PROB	1842562	n/a	LTP115	ltpFR2	10	n/a	n/a	n/a	24	20	8	5	7
3687.026	n/a	PROB	1843513	n/a	LTP115	ltpFR2	10	n/a	n/a	n/a	24	9	3	4	2
3688.884	n/a	PROB	1844442	n/a	LTP115	ltpFR2	10	n/a	n/a	n/a	24	10	4	3	3
3690.624	n/a	PROB	1845312	n/a	LTP115	ltpFR2	10	n/a	n/a	n/a	24	21	8	6	7
3692.548	n/a	PROB	1846274	n/a	LTP115	ltpFR2	10	n/a	n/a	n/a	24	17	9	5	3
3694.276	n/a	PROB	1847138	n/a	LTP115	ltpFR2	10	n/a	n/a	n/a	24	19	8	4	7
3695.776	n/a	PROB	1847888	n/a	LTP115	ltpFR2	10	n/a	n/a	n/a	24	19	4	7	8
3697.182	n/a	PROB	1848591	n/a	LTP115	ltpFR2	10	n/a	n/a	n/a	24	16	2	7	7
3699.324	n/a	PROB	1849662	n/a	LTP115	ltpFR2	10	n/a	n/a	n/a	24	17	5	9	3
3701.164	n/a	PROB	1850582	n/a	LTP115	ltpFR2	10	n/a	n/a	n/a	24	11	3	6	2
3702.886	n/a	PROB	1851443	n/a	LTP115	ltpFR2	10	n/a	n/a	n/a	24	12	1	4	7
3704.312	n/a	STOP	1852156	n/a	LTP115	ltpFR2	10	n/a	n/a	n/a	24	n/a	n/a	n/a	n/a
3705.97	n/a	WORD	1852985	wordpools/wasnorm_wordpool_576.txt	LTP115	ltpFR2	10	16	FLASHLIGHT	575	n/a	n/a	0	0	0
3708.598	n/a	WORD	1854299	wordpools/wasnorm_wordpool_576.txt	LTP115	ltpFR2	10	16	FLUTE	585	n/a	n/a	0	0	0
3711.108	n/a	WORD	1855554	wordpools/wasnorm_wordpool_576.txt	LTP115	ltpFR2	10	16	DUST	508	n/a	n/a	0	0	0
3713.816	n/a	WORD	1856908	wordpools/wasnorm_wordpool_576.txt	LTP115	ltpFR2	10	16	WASHER	1592	n/a	n/a	0	0	0
3716.326	n/a	WORD	1858163	wordpools/wasnorm_wordpool_576.txt	LTP115	ltpFR2	10	16	WARDROBE	1587	n/a	n/a	0	0	0
3719.036	n/a	WORD	1859518	wordpools/wasnorm_wordpool_576.txt	LTP115	ltpFR2	10	16	ARMY	39	n/a	n/a	0	0	0
3721.746	n/a	WORD	1860873	wordpools/wasnorm_wordpool_576.txt	LTP115	ltpFR2	10	16	DORM	488	n/a	n/a	0	0	0
3724.274	n/a	WORD	1862137	wordpools/wasnorm_wordpool_576.txt	LTP115	ltpFR2	10	16	MARSH	874	n/a	n/a	0	0	0
3727.018	n/a	WORD	1863509	wordpools/wasnorm_wordpool_576.txt	LTP115	ltpFR2	10	16	COBRA	336	n/a	n/a	0	0	0
3729.828	n/a	WORD	1864914	wordpools/wasnorm_wordpool_576.txt	LTP115	ltpFR2	10	16	MOTEL	919	n/a	n/a	0	0	0
3732.588	n/a	WORD	1866294	wordpools/wasnorm_wordpool_576.txt	LTP115	ltpFR2	10	16	TUTU	1524	n/a	n/a	0	0	0
3735.344	n/a	WORD	1867672	wordpools/wasnorm_wordpool_576.txt	LTP115	ltpFR2	10	16	COOK	372	n/a	n/a	0	0	0
