mstime	trial_type	stim_file	subject	experiment	session	trial	task	item_name	item_num	recog_resp	recog_conf	resp	answer	test_x	test_y	test_z	color_r	color_g	color_b	case	font
0	SESS_START	n/a	LTP112	ltpFR	7	n/a	n/a	n/a	n/a	1	4	n/a	n/a	0	0	0	n/a	n/a	n/a	n/a	n/a
183833	START	n/a	LTP112	ltpFR	7	n/a	n/a	n/a	n/a	n/a	n/a	n/a	n/a	n/a	n/a	n/a	n/a	n/a	n/a	n/a	n/a
183858	PROB	n/a	LTP112	ltpFR	7	n/a	n/a	n/a	n/a	n/a	n/a	n/a	14	8	2	4	n/a	n/a	n/a	n/a	n/a
187706	PROB	n/a	LTP112	ltpFR	7	n/a	n/a	n/a	n/a	n/a	n/a	n/a	4	9	1	4	n/a	n/a	n/a	n/a	n/a
190231	PROB	n/a	LTP112	ltpFR	7	n/a	n/a	n/a	n/a	n/a	n/a	n/a	22	8	6	8	n/a	n/a	n/a	n/a	n/a
193613	PROB	n/a	LTP112	ltpFR	7	n/a	n/a	n/a	n/a	n/a	n/a	n/a	23	9	6	8	n/a	n/a	n/a	n/a	n/a
196171	PROB	n/a	LTP112	ltpFR	7	n/a	n/a	n/a	n/a	n/a	n/a	n/a	6	1	2	3	n/a	n/a	n/a	n/a	n/a
198162	PROB	n/a	LTP112	ltpFR	7	n/a	n/a	n/a	n/a	n/a	n/a	n/a	11	1	3	7	n/a	n/a	n/a	n/a	n/a
199835	PROB	n/a	LTP112	ltpFR	7	n/a	n/a	n/a	n/a	n/a	n/a	n/a	11	7	2	2	n/a	n/a	n/a	n/a	n/a
203138	STOP	n/a	LTP112	ltpFR	7	n/a	n/a	n/a	n/a	n/a	n/a	n/a	n/a	n/a	n/a	n/a	n/a	n/a	n/a	n/a	n/a
316278	WORD	wordpools/wasnorm_wordpool.txt	LTP112	ltpFR	7	1	0	REEF	1177	0	n/a	0	n/a	0	0	0	0.422607421875	0.5869140625	0	lower	amplitud.ttf
320110	WORD	wordpools/wasnorm_wordpool.txt	LTP112	ltpFR	7	1	0	VALLEY	1545	n/a	n/a	1	n/a	0	0	0	0.422607421875	0.5869140625	0	lower	amplitud.ttf
323941	WORD	wordpools/wasnorm_wordpool.txt	LTP112	ltpFR	7	1	0	LASH	802	n/a	n/a	0	n/a	0	0	0	0.422607421875	0.5869140625	0	lower	amplitud.ttf
327857	WORD	wordpools/wasnorm_wordpool.txt	LTP112	ltpFR	7	1	0	MOAT	903	n/a	n/a	1	n/a	0	0	0	0.422607421875	0.5869140625	0	lower	amplitud.ttf
331972	WORD	wordpools/wasnorm_wordpool.txt	LTP112	ltpFR	7	1	0	TAIL	1430	n/a	n/a	0	n/a	0	0	0	0.422607421875	0.5869140625	0	lower	amplitud.ttf
335896	WORD	wordpools/wasnorm_wordpool.txt	LTP112	ltpFR	7	1	0	CAFE	216	n/a	n/a	0	n/a	0	0	0	0.422607421875	0.5869140625	0	lower	amplitud.ttf
339994	WORD	wordpools/wasnorm_wordpool.txt	LTP112	ltpFR	7	1	0	WHIP	1604	n/a	n/a	0	n/a	0	0	0	0.422607421875	0.5869140625	0	lower	amplitud.ttf
343926	WORD	wordpools/wasnorm_wordpool.txt	LTP112	ltpFR	7	1	0	CRITIC	410	n/a	n/a	1	n/a	0	0	0	0.422607421875	0.5869140625	0	lower	amplitud.ttf
347958	WORD	wordpools/wasnorm_wordpool.txt	LTP112	ltpFR	7	1	0	LAPEL	800	n/a	n/a	0	n/a	0	0	0	0.422607421875	0.5869140625	0	lower	amplitud.ttf
352116	WORD	wordpools/wasnorm_wordpool.txt	LTP112	ltpFR	7	1	0	COUNTRY	388	n/a	n/a	1	n/a	0	0	0	0.422607421875	0.5869140625	0	lower	amplitud.ttf
355997	WORD	wordpools/wasnorm_wordpool.txt	LTP112	ltpFR	7	1	0	CONTINENT	367	n/a	n/a	1	n/a	0	0	0	0.422607421875	0.5869140625	0	lower	amplitud.ttf
359829	WORD	wordpools/wasnorm_wordpool.txt	LTP112	ltpFR	7	1	0	PAIL	1002	n/a	n/a	0	n/a	0	0	0	0.422607421875	0.5869140625	0	lower	amplitud.ttf
363719	WORD	wordpools/wasnorm_wordpool.txt	LTP112	ltpFR	7	1	0	JUG	762	n/a	n/a	0	n/a	0	0	0	0.422607421875	0.5869140625	0	lower	amplitud.ttf
367651	WORD	wordpools/wasnorm_wordpool.txt	LTP112	ltpFR	7	1	0	COLESLAW	344	n/a	n/a	0	n/a	0	0	0	0.422607421875	0.5869140625	0	lower	amplitud.ttf
371808	WORD	wordpools/wasnorm_wordpool.txt	LTP112	ltpFR	7	1	0	HUT	729	n/a	n/a	1	n/a	0	0	0	0.422607421875	0.5869140625	0	lower	amplitud.ttf
375781	WORD	wordpools/wasnorm_wordpool.txt	LTP112	ltpFR	7	1	0	FURNITURE	616	n/a	n/a	1	n/a	0	0	0	0.422607421875	0.5869140625	0	lower	amplitud.ttf
378789	START	n/a	LTP112	ltpFR	7	n/a	n/a	n/a	n/a	n/a	n/a	n/a	n/a	n/a	n/a	n/a	n/a	n/a	n/a	n/a	n/a
379830	PROB	n/a	LTP112	ltpFR	7	n/a	n/a	n/a	n/a	n/a	n/a	n/a	25	9	7	9	n/a	n/a	n/a	n/a	n/a
384196	PROB	n/a	LTP112	ltpFR	7	n/a	n/a	n/a	n/a	n/a	n/a	n/a	15	6	6	3	n/a	n/a	n/a	n/a	n/a
386474	STOP	n/a	LTP112	ltpFR	7	n/a	n/a	n/a	n/a	n/a	n/a	n/a	n/a	n/a	n/a	n/a	n/a	n/a	n/a	n/a	n/a
388711	REC_START	n/a	LTP112	ltpFR	7	1	n/a	n/a	n/a	n/a	n/a	n/a	n/a	0	0	0	n/a	n/a	n/a	n/a	n/a
390267	REC_WORD	wordpools/wasnorm_wordpool.txt	LTP112	ltpFR	7	1	0	MOAT	903	n/a	n/a	1	n/a	0	0	0	n/a	n/a	n/a	n/a	n/a
390582	REC_WORD	wordpools/wasnorm_wordpool.txt	LTP112	ltpFR	7	1	0	COUNTRY	388	n/a	n/a	1	n/a	0	0	0	n/a	n/a	n/a	n/a	n/a
390966	REC_WORD	wordpools/wasnorm_wordpool.txt	LTP112	ltpFR	7	1	0	CONTINENT	367	n/a	n/a	1	n/a	0	0	0	n/a	n/a	n/a	n/a	n/a
392203	REC_WORD	wordpools/wasnorm_wordpool.txt	LTP112	ltpFR	7	1	0	LASH	802	n/a	n/a	0	n/a	0	0	0	n/a	n/a	n/a	n/a	n/a
392807	REC_WORD	wordpools/wasnorm_wordpool.txt	LTP112	ltpFR	7	1	0	WHIP	1604	n/a	n/a	0	n/a	0	0	0	n/a	n/a	n/a	n/a	n/a
396378	REC_WORD	wordpools/wasnorm_wordpool.txt	LTP112	ltpFR	7	1	n/a	TIDE	1465	n/a	n/a	n/a	n/a	0	0	0	n/a	n/a	n/a	n/a	n/a
396727	REC_WORD	wordpools/wasnorm_wordpool.txt	LTP112	ltpFR	7	1	n/a	CORAL	378	n/a	n/a	n/a	n/a	0	0	0	n/a	n/a	n/a	n/a	n/a
397975	REC_WORD	wordpools/wasnorm_wordpool.txt	LTP112	ltpFR	7	1	0	TAIL	1430	n/a	n/a	0	n/a	0	0	0	n/a	n/a	n/a	n/a	n/a
406381	REC_WORD	wordpools/wasnorm_wordpool.txt	LTP112	ltpFR	7	1	0	MOAT	903	n/a	n/a	1	n/a	0	0	0	n/a	n/a	n/a	n/a	n/a
406725	REC_WORD	wordpools/wasnorm_wordpool.txt	LTP112	ltpFR	7	1	0	VALLEY	1545	n/a	n/a	1	n/a	0	0	0	n/a	n/a	n/a	n/a	n/a
407328	REC_WORD	wordpools/wasnorm_wordpool.txt	LTP112	ltpFR	7	1	0	CRITIC	410	n/a	n/a	1	n/a	0	0	0	n/a	n/a	n/a	n/a	n/a
469200	START	n/a	LTP112	ltpFR	7	n/a	n/a	n/a	n/a	n/a	n/a	n/a	n/a	n/a	n/a	n/a	n/a	n/a	n/a	n/a	n/a
470706	PROB	n/a	LTP112	ltpFR	7	n/a	n/a	n/a	n/a	n/a	n/a	n/a	16	1	6	9	n/a	n/a	n/a	n/a	n/a
473040	PROB	n/a	LTP112	ltpFR	7	n/a	n/a	n/a	n/a	n/a	n/a	n/a	13	3	2	8	n/a	n/a	n/a	n/a	n/a
477200	STOP	n/a	LTP112	ltpFR	7	n/a	n/a	n/a	n/a	n/a	n/a	n/a	n/a	n/a	n/a	n/a	n/a	n/a	n/a	n/a	n/a
478129	WORD	wordpools/wasnorm_wordpool.txt	LTP112	ltpFR	7	2	1	TICKET	1464	n/a	n/a	0	n/a	0	0	0	0.57763671875	0.412841796875	1	upper	zerothre.ttf
481137	START	n/a	LTP112	ltpFR	7	n/a	n/a	n/a	n/a	n/a	n/a	n/a	n/a	n/a	n/a	n/a	n/a	n/a	n/a	n/a	n/a
482195	PROB	n/a	LTP112	ltpFR	7	n/a	n/a	n/a	n/a	n/a	n/a	n/a	19	3	9	7	n/a	n/a	n/a	n/a	n/a
484019	PROB	n/a	LTP112	ltpFR	7	n/a	n/a	n/a	n/a	n/a	n/a	n/a	10	4	2	4	n/a	n/a	n/a	n/a	n/a
485593	PROB	n/a	LTP112	ltpFR	7	n/a	n/a	n/a	n/a	n/a	n/a	n/a	11	8	1	2	n/a	n/a	n/a	n/a	n/a
489137	STOP	n/a	LTP112	ltpFR	7	n/a	n/a	n/a	n/a	n/a	n/a	n/a	n/a	n/a	n/a	n/a	n/a	n/a	n/a	n/a	n/a
490233	WORD	wordpools/wasnorm_wordpool.txt	LTP112	ltpFR	7	2	1	PERMIT	1051	n/a	n/a	0	n/a	0	0	0	0.57763671875	0.412841796875	1	upper	zerothre.ttf
493241	START	n/a	LTP112	ltpFR	7	n/a	n/a	n/a	n/a	n/a	n/a	n/a	n/a	n/a	n/a	n/a	n/a	n/a	n/a	n/a	n/a
494390	PROB	n/a	LTP112	ltpFR	7	n/a	n/a	n/a	n/a	n/a	n/a	n/a	15	4	8	5	n/a	n/a	n/a	n/a	n/a
497738	PROB	n/a	LTP112	ltpFR	7	n/a	n/a	n/a	n/a	n/a	n/a	n/a	19	2	9	8	n/a	n/a	n/a	n/a	n/a
499953	STOP	n/a	LTP112	ltpFR	7	n/a	n/a	n/a	n/a	n/a	n/a	n/a	n/a	n/a	n/a	n/a	n/a	n/a	n/a	n/a	n/a
502304	WORD	wordpools/wasnorm_wordpool.txt	LTP112	ltpFR	7	2	1	ROOST	1208	n/a	n/a	0	n/a	0	0	0	0.57763671875	0.412841796875	1	upper	zerothre.ttf
505312	START	n/a	LTP112	ltpFR	7	n/a	n/a	n/a	n/a	n/a	n/a	n/a	n/a	n/a	n/a	n/a	n/a	n/a	n/a	n/a	n/a
506153	PROB	n/a	LTP112	ltpFR	7	n/a	n/a	n/a	n/a	n/a	n/a	n/a	10	5	4	1	n/a	n/a	n/a	n/a	n/a
507768	PROB	n/a	LTP112	ltpFR	7	n/a	n/a	n/a	n/a	n/a	n/a	n/a	11	1	9	1	n/a	n/a	n/a	n/a	n/a
508959	PROB	n/a	LTP112	ltpFR	7	n/a	n/a	n/a	n/a	n/a	n/a	n/a	4	1	2	1	n/a	n/a	n/a	n/a	n/a
510310	PROB	n/a	LTP112	ltpFR	7	n/a	n/a	n/a	n/a	n/a	n/a	n/a	20	9	5	6	n/a	n/a	n/a	n/a	n/a
512570	STOP	n/a	LTP112	ltpFR	7	n/a	n/a	n/a	n/a	n/a	n/a	n/a	n/a	n/a	n/a	n/a	n/a	n/a	n/a	n/a	n/a
514333	WORD	wordpools/wasnorm_wordpool.txt	LTP112	ltpFR	7	2	1	HEADBAND	696	n/a	n/a	0	n/a	0	0	0	0.57763671875	0.412841796875	1	upper	zerothre.ttf
517341	START	n/a	LTP112	ltpFR	7	n/a	n/a	n/a	n/a	n/a	n/a	n/a	n/a	n/a	n/a	n/a	n/a	n/a	n/a	n/a	n/a
518507	PROB	n/a	LTP112	ltpFR	7	n/a	n/a	n/a	n/a	n/a	n/a	n/a	16	3	4	9	n/a	n/a	n/a	n/a	n/a
522904	PROB	n/a	LTP112	ltpFR	7	n/a	n/a	n/a	n/a	n/a	n/a	n/a	11	4	5	2	n/a	n/a	n/a	n/a	n/a
524562	STOP	n/a	LTP112	ltpFR	7	n/a	n/a	n/a	n/a	n/a	n/a	n/a	n/a	n/a	n/a	n/a	n/a	n/a	n/a	n/a	n/a
526387	WORD	wordpools/wasnorm_wordpool.txt	LTP112	ltpFR	7	2	1	TRACTOR	1493	n/a	n/a	0	n/a	0	0	0	0.57763671875	0.412841796875	1	upper	zerothre.ttf
529395	START	n/a	LTP112	ltpFR	7	n/a	n/a	n/a	n/a	n/a	n/a	n/a	n/a	n/a	n/a	n/a	n/a	n/a	n/a	n/a	n/a
530294	PROB	n/a	LTP112	ltpFR	7	n/a	n/a	n/a	n/a	n/a	n/a	n/a	17	8	4	5	n/a	n/a	n/a	n/a	n/a
532527	PROB	n/a	LTP112	ltpFR	7	n/a	n/a	n/a	n/a	n/a	n/a	n/a	18	9	4	5	n/a	n/a	n/a	n/a	n/a
534708	PROB	n/a	LTP112	ltpFR	7	n/a	n/a	n/a	n/a	n/a	n/a	n/a	15	5	6	4	n/a	n/a	n/a	n/a	n/a
536138	STOP	n/a	LTP112	ltpFR	7	n/a	n/a	n/a	n/a	n/a	n/a	n/a	n/a	n/a	n/a	n/a	n/a	n/a	n/a	n/a	n/a
538566	WORD	wordpools/wasnorm_wordpool.txt	LTP112	ltpFR	7	2	1	WALRUS	1585	n/a	n/a	1	n/a	0	0	0	0.57763671875	0.412841796875	1	upper	zerothre.ttf
541574	START	n/a	LTP112	ltpFR	7	n/a	n/a	n/a	n/a	n/a	n/a	n/a	n/a	n/a	n/a	n/a	n/a	n/a	n/a	n/a	n/a
542482	PROB	n/a	LTP112	ltpFR	7	n/a	n/a	n/a	n/a	n/a	n/a	n/a	11	6	3	2	n/a	n/a	n/a	n/a	n/a
544331	PROB	n/a	LTP112	ltpFR	7	n/a	n/a	n/a	n/a	n/a	n/a	n/a	21	7	7	5	n/a	n/a	n/a	n/a	n/a
546089	PROB	n/a	LTP112	ltpFR	7	n/a	n/a	n/a	n/a	n/a	n/a	n/a	18	9	1	8	n/a	n/a	n/a	n/a	n/a
547770	PROB	n/a	LTP112	ltpFR	7	n/a	n/a	n/a	n/a	n/a	n/a	n/a	10	4	2	4	n/a	n/a	n/a	n/a	n/a
549098	STOP	n/a	LTP112	ltpFR	7	n/a	n/a	n/a	n/a	n/a	n/a	n/a	n/a	n/a	n/a	n/a	n/a	n/a	n/a	n/a	n/a
550619	WORD	wordpools/wasnorm_wordpool.txt	LTP112	ltpFR	7	2	1	BEAST	108	n/a	n/a	1	n/a	0	0	0	0.57763671875	0.412841796875	1	upper	zerothre.ttf
553627	START	n/a	LTP112	ltpFR	7	n/a	n/a	n/a	n/a	n/a	n/a	n/a	n/a	n/a	n/a	n/a	n/a	n/a	n/a	n/a	n/a
554676	PROB	n/a	LTP112	ltpFR	7	n/a	n/a	n/a	n/a	n/a	n/a	n/a	10	2	6	2	n/a	n/a	n/a	n/a	n/a
556293	PROB	n/a	LTP112	ltpFR	7	n/a	n/a	n/a	n/a	n/a	n/a	n/a	12	9	1	2	n/a	n/a	n/a	n/a	n/a
558750	PROB	n/a	LTP112	ltpFR	7	n/a	n/a	n/a	n/a	n/a	n/a	n/a	12	1	2	9	n/a	n/a	n/a	n/a	n/a
559949	PROB	n/a	LTP112	ltpFR	7	n/a	n/a	n/a	n/a	n/a	n/a	n/a	16	6	5	4	n/a	n/a	n/a	n/a	n/a
561530	STOP	n/a	LTP112	ltpFR	7	n/a	n/a	n/a	n/a	n/a	n/a	n/a	n/a	n/a	n/a	n/a	n/a	n/a	n/a	n/a	n/a
562441	WORD	wordpools/wasnorm_wordpool.txt	LTP112	ltpFR	7	2	1	FORT	595	n/a	n/a	0	n/a	0	0	0	0.57763671875	0.412841796875	1	upper	zerothre.ttf
565449	START	n/a	LTP112	ltpFR	7	n/a	n/a	n/a	n/a	n/a	n/a	n/a	n/a	n/a	n/a	n/a	n/a	n/a	n/a	n/a	n/a
566390	PROB	n/a	LTP112	ltpFR	7	n/a	n/a	n/a	n/a	n/a	n/a	n/a	13	2	9	2	n/a	n/a	n/a	n/a	n/a
568422	PROB	n/a	LTP112	ltpFR	7	n/a	n/a	n/a	n/a	n/a	n/a	n/a	16	6	3	7	n/a	n/a	n/a	n/a	n/a
570155	PROB	n/a	LTP112	ltpFR	7	n/a	n/a	n/a	n/a	n/a	n/a	n/a	15	4	6	5	n/a	n/a	n/a	n/a	n/a
573449	STOP	n/a	LTP112	ltpFR	7	n/a	n/a	n/a	n/a	n/a	n/a	n/a	n/a	n/a	n/a	n/a	n/a	n/a	n/a	n/a	n/a
574537	WORD	wordpools/wasnorm_wordpool.txt	LTP112	ltpFR	7	2	1	COLONEL	348	n/a	n/a	1	n/a	0	0	0	0.57763671875	0.412841796875	1	upper	zerothre.ttf
577545	START	n/a	LTP112	ltpFR	7	n/a	n/a	n/a	n/a	n/a	n/a	n/a	n/a	n/a	n/a	n/a	n/a	n/a	n/a	n/a	n/a
578718	PROB	n/a	LTP112	ltpFR	7	n/a	n/a	n/a	n/a	n/a	n/a	n/a	13	3	6	4	n/a	n/a	n/a	n/a	n/a
580043	PROB	n/a	LTP112	ltpFR	7	n/a	n/a	n/a	n/a	n/a	n/a	n/a	20	7	4	9	n/a	n/a	n/a	n/a	n/a
582451	PROB	n/a	LTP112	ltpFR	7	n/a	n/a	n/a	n/a	n/a	n/a	n/a	13	5	5	3	n/a	n/a	n/a	n/a	n/a
584250	STOP	n/a	LTP112	ltpFR	7	n/a	n/a	n/a	n/a	n/a	n/a	n/a	n/a	n/a	n/a	n/a	n/a	n/a	n/a	n/a	n/a
586399	WORD	wordpools/wasnorm_wordpool.txt	LTP112	ltpFR	7	2	1	HAY	693	n/a	n/a	0	n/a	0	0	0	0.57763671875	0.412841796875	1	upper	zerothre.ttf
589407	START	n/a	LTP112	ltpFR	7	n/a	n/a	n/a	n/a	n/a	n/a	n/a	n/a	n/a	n/a	n/a	n/a	n/a	n/a	n/a	n/a
590605	PROB	n/a	LTP112	ltpFR	7	n/a	n/a	n/a	n/a	n/a	n/a	n/a	19	9	1	9	n/a	n/a	n/a	n/a	n/a
592289	PROB	n/a	LTP112	ltpFR	7	n/a	n/a	n/a	n/a	n/a	n/a	n/a	10	1	1	8	n/a	n/a	n/a	n/a	n/a
594088	PROB	n/a	LTP112	ltpFR	7	n/a	n/a	n/a	n/a	n/a	n/a	n/a	15	7	5	3	n/a	n/a	n/a	n/a	n/a
596266	STOP	n/a	LTP112	ltpFR	7	n/a	n/a	n/a	n/a	n/a	n/a	n/a	n/a	n/a	n/a	n/a	n/a	n/a	n/a	n/a	n/a
598578	WORD	wordpools/wasnorm_wordpool.txt	LTP112	ltpFR	7	2	1	MERMAID	887	n/a	n/a	1	n/a	0	0	0	0.57763671875	0.412841796875	1	upper	zerothre.ttf
601586	START	n/a	LTP112	ltpFR	7	n/a	n/a	n/a	n/a	n/a	n/a	n/a	n/a	n/a	n/a	n/a	n/a	n/a	n/a	n/a	n/a
602569	PROB	n/a	LTP112	ltpFR	7	n/a	n/a	n/a	n/a	n/a	n/a	n/a	11	3	3	5	n/a	n/a	n/a	n/a	n/a
609586	STOP	n/a	LTP112	ltpFR	7	n/a	n/a	n/a	n/a	n/a	n/a	n/a	n/a	n/a	n/a	n/a	n/a	n/a	n/a	n/a	n/a
610483	WORD	wordpools/wasnorm_wordpool.txt	LTP112	ltpFR	7	2	1	PIGEON	1065	n/a	n/a	1	n/a	0	0	0	0.57763671875	0.412841796875	1	upper	zerothre.ttf
613490	START	n/a	LTP112	ltpFR	7	n/a	n/a	n/a	n/a	n/a	n/a	n/a	n/a	n/a	n/a	n/a	n/a	n/a	n/a	n/a	n/a
621489	STOP	n/a	LTP112	ltpFR	7	n/a	n/a	n/a	n/a	n/a	n/a	n/a	n/a	n/a	n/a	n/a	n/a	n/a	n/a	n/a	n/a
622627	WORD	wordpools/wasnorm_wordpool.txt	LTP112	ltpFR	7	2	1	PORCUPINE	1107	n/a	n/a	1	n/a	0	0	0	0.57763671875	0.412841796875	1	upper	zerothre.ttf
625635	START	n/a	LTP112	ltpFR	7	n/a	n/a	n/a	n/a	n/a	n/a	n/a	n/a	n/a	n/a	n/a	n/a	n/a	n/a	n/a	n/a
626502	PROB	n/a	LTP112	ltpFR	7	n/a	n/a	n/a	n/a	n/a	n/a	n/a	11	3	2	6	n/a	n/a	n/a	n/a	n/a
628035	PROB	n/a	LTP112	ltpFR	7	n/a	n/a	n/a	n/a	n/a	n/a	n/a	15	7	1	7	n/a	n/a	n/a	n/a	n/a
629434	PROB	n/a	LTP112	ltpFR	7	n/a	n/a	n/a	n/a	n/a	n/a	n/a	15	9	4	3	n/a	n/a	n/a	n/a	n/a
633274	STOP	n/a	LTP112	ltpFR	7	n/a	n/a	n/a	n/a	n/a	n/a	n/a	n/a	n/a	n/a	n/a	n/a	n/a	n/a	n/a	n/a
634748	WORD	wordpools/wasnorm_wordpool.txt	LTP112	ltpFR	7	2	1	WINGS	1614	n/a	n/a	1	n/a	0	0	0	0.57763671875	0.412841796875	1	upper	zerothre.ttf
637756	START	n/a	LTP112	ltpFR	7	n/a	n/a	n/a	n/a	n/a	n/a	n/a	n/a	n/a	n/a	n/a	n/a	n/a	n/a	n/a	n/a
638813	PROB	n/a	LTP112	ltpFR	7	n/a	n/a	n/a	n/a	n/a	n/a	n/a	16	4	5	7	n/a	n/a	n/a	n/a	n/a
640480	PROB	n/a	LTP112	ltpFR	7	n/a	n/a	n/a	n/a	n/a	n/a	n/a	13	2	8	3	n/a	n/a	n/a	n/a	n/a
641812	PROB	n/a	LTP112	ltpFR	7	n/a	n/a	n/a	n/a	n/a	n/a	n/a	8	4	1	3	n/a	n/a	n/a	n/a	n/a
643753	PROB	n/a	LTP112	ltpFR	7	n/a	n/a	n/a	n/a	n/a	n/a	n/a	17	9	3	5	n/a	n/a	n/a	n/a	n/a
645434	STOP	n/a	LTP112	ltpFR	7	n/a	n/a	n/a	n/a	n/a	n/a	n/a	n/a	n/a	n/a	n/a	n/a	n/a	n/a	n/a	n/a
646835	WORD	wordpools/wasnorm_wordpool.txt	LTP112	ltpFR	7	2	1	STABLE	1363	n/a	n/a	1	n/a	0	0	0	0.57763671875	0.412841796875	1	upper	zerothre.ttf
649843	START	n/a	LTP112	ltpFR	7	n/a	n/a	n/a	n/a	n/a	n/a	n/a	n/a	n/a	n/a	n/a	n/a	n/a	n/a	n/a	n/a
650951	PROB	n/a	LTP112	ltpFR	7	n/a	n/a	n/a	n/a	n/a	n/a	n/a	11	4	4	3	n/a	n/a	n/a	n/a	n/a
652493	PROB	n/a	LTP112	ltpFR	7	n/a	n/a	n/a	n/a	n/a	n/a	n/a	22	8	8	6	n/a	n/a	n/a	n/a	n/a
655300	PROB	n/a	LTP112	ltpFR	7	n/a	n/a	n/a	n/a	n/a	n/a	n/a	15	7	6	2	n/a	n/a	n/a	n/a	n/a
657753	STOP	n/a	LTP112	ltpFR	7	n/a	n/a	n/a	n/a	n/a	n/a	n/a	n/a	n/a	n/a	n/a	n/a	n/a	n/a	n/a	n/a
658873	WORD	wordpools/wasnorm_wordpool.txt	LTP112	ltpFR	7	2	1	DICTIONARY	463	n/a	n/a	0	n/a	0	0	0	0.57763671875	0.412841796875	1	upper	zerothre.ttf
661880	START	n/a	LTP112	ltpFR	7	n/a	n/a	n/a	n/a	n/a	n/a	n/a	n/a	n/a	n/a	n/a	n/a	n/a	n/a	n/a	n/a
662821	PROB	n/a	LTP112	ltpFR	7	n/a	n/a	n/a	n/a	n/a	n/a	n/a	18	8	3	7	n/a	n/a	n/a	n/a	n/a
665305	PROB	n/a	LTP112	ltpFR	7	n/a	n/a	n/a	n/a	n/a	n/a	n/a	16	6	4	6	n/a	n/a	n/a	n/a	n/a
668370	STOP	n/a	LTP112	ltpFR	7	n/a	n/a	n/a	n/a	n/a	n/a	n/a	n/a	n/a	n/a	n/a	n/a	n/a	n/a	n/a	n/a
671644	REC_START	n/a	LTP112	ltpFR	7	2	n/a	n/a	n/a	n/a	n/a	n/a	n/a	0	0	0	n/a	n/a	n/a	n/a	n/a
674123	REC_WORD	wordpools/wasnorm_wordpool.txt	LTP112	ltpFR	7	2	1	DICTIONARY	463	n/a	n/a	0	n/a	0	0	0	n/a	n/a	n/a	n/a	n/a
677216	REC_WORD	wordpools/wasnorm_wordpool.txt	LTP112	ltpFR	7	2	1	WINGS	1614	n/a	n/a	1	n/a	0	0	0	n/a	n/a	n/a	n/a	n/a
679376	REC_WORD	wordpools/wasnorm_wordpool.txt	LTP112	ltpFR	7	2	1	COLONEL	348	n/a	n/a	1	n/a	0	0	0	n/a	n/a	n/a	n/a	n/a
778348	START	n/a	LTP112	ltpFR	7	n/a	n/a	n/a	n/a	n/a	n/a	n/a	n/a	n/a	n/a	n/a	n/a	n/a	n/a	n/a	n/a
779855	PROB	n/a	LTP112	ltpFR	7	n/a	n/a	n/a	n/a	n/a	n/a	n/a	11	7	2	2	n/a	n/a	n/a	n/a	n/a
781813	PROB	n/a	LTP112	ltpFR	7	n/a	n/a	n/a	n/a	n/a	n/a	n/a	14	7	2	5	n/a	n/a	n/a	n/a	n/a
783563	PROB	n/a	LTP112	ltpFR	7	n/a	n/a	n/a	n/a	n/a	n/a	n/a	18	3	6	9	n/a	n/a	n/a	n/a	n/a
786106	STOP	n/a	LTP112	ltpFR	7	n/a	n/a	n/a	n/a	n/a	n/a	n/a	n/a	n/a	n/a	n/a	n/a	n/a	n/a	n/a	n/a
787220	WORD	wordpools/wasnorm_wordpool.txt	LTP112	ltpFR	7	3	1	THUMB	1462	n/a	n/a	1	n/a	0	0	0	0.57763671875	0.412841796875	1	upper	zerothre.ttf
790228	START	n/a	LTP112	ltpFR	7	n/a	n/a	n/a	n/a	n/a	n/a	n/a	n/a	n/a	n/a	n/a	n/a	n/a	n/a	n/a	n/a
791052	PROB	n/a	LTP112	ltpFR	7	n/a	n/a	n/a	n/a	n/a	n/a	n/a	17	7	9	1	n/a	n/a	n/a	n/a	n/a
792326	PROB	n/a	LTP112	ltpFR	7	n/a	n/a	n/a	n/a	n/a	n/a	n/a	19	9	3	8	n/a	n/a	n/a	n/a	n/a
798228	STOP	n/a	LTP112	ltpFR	7	n/a	n/a	n/a	n/a	n/a	n/a	n/a	n/a	n/a	n/a	n/a	n/a	n/a	n/a	n/a	n/a
799257	WORD	wordpools/wasnorm_wordpool.txt	LTP112	ltpFR	7	3	1	MAJOR	859	n/a	n/a	1	n/a	0	0	0	0.57763671875	0.412841796875	1	upper	zerothre.ttf
802265	START	n/a	LTP112	ltpFR	7	n/a	n/a	n/a	n/a	n/a	n/a	n/a	n/a	n/a	n/a	n/a	n/a	n/a	n/a	n/a	n/a
803198	PROB	n/a	LTP112	ltpFR	7	n/a	n/a	n/a	n/a	n/a	n/a	n/a	15	3	4	8	n/a	n/a	n/a	n/a	n/a
805405	PROB	n/a	LTP112	ltpFR	7	n/a	n/a	n/a	n/a	n/a	n/a	n/a	22	5	8	9	n/a	n/a	n/a	n/a	n/a
807695	PROB	n/a	LTP112	ltpFR	7	n/a	n/a	n/a	n/a	n/a	n/a	n/a	16	7	5	4	n/a	n/a	n/a	n/a	n/a
809697	STOP	n/a	LTP112	ltpFR	7	n/a	n/a	n/a	n/a	n/a	n/a	n/a	n/a	n/a	n/a	n/a	n/a	n/a	n/a	n/a	n/a
811453	WORD	wordpools/wasnorm_wordpool.txt	LTP112	ltpFR	7	3	1	REFRIGERATOR	1179	n/a	n/a	0	n/a	0	0	0	0.57763671875	0.412841796875	1	upper	zerothre.ttf
814461	START	n/a	LTP112	ltpFR	7	n/a	n/a	n/a	n/a	n/a	n/a	n/a	n/a	n/a	n/a	n/a	n/a	n/a	n/a	n/a	n/a
815393	PROB	n/a	LTP112	ltpFR	7	n/a	n/a	n/a	n/a	n/a	n/a	n/a	12	6	1	5	n/a	n/a	n/a	n/a	n/a
817218	PROB	n/a	LTP112	ltpFR	7	n/a	n/a	n/a	n/a	n/a	n/a	n/a	14	6	1	7	n/a	n/a	n/a	n/a	n/a
819542	PROB	n/a	LTP112	ltpFR	7	n/a	n/a	n/a	n/a	n/a	n/a	n/a	12	3	8	1	n/a	n/a	n/a	n/a	n/a
821418	STOP	n/a	LTP112	ltpFR	7	n/a	n/a	n/a	n/a	n/a	n/a	n/a	n/a	n/a	n/a	n/a	n/a	n/a	n/a	n/a	n/a
823664	WORD	wordpools/wasnorm_wordpool.txt	LTP112	ltpFR	7	3	1	ICEBERG	731	n/a	n/a	0	n/a	0	0	0	0.57763671875	0.412841796875	1	upper	zerothre.ttf
826672	START	n/a	LTP112	ltpFR	7	n/a	n/a	n/a	n/a	n/a	n/a	n/a	n/a	n/a	n/a	n/a	n/a	n/a	n/a	n/a	n/a
827613	PROB	n/a	LTP112	ltpFR	7	n/a	n/a	n/a	n/a	n/a	n/a	n/a	12	4	3	5	n/a	n/a	n/a	n/a	n/a
829754	PROB	n/a	LTP112	ltpFR	7	n/a	n/a	n/a	n/a	n/a	n/a	n/a	7	1	5	1	n/a	n/a	n/a	n/a	n/a
831154	PROB	n/a	LTP112	ltpFR	7	n/a	n/a	n/a	n/a	n/a	n/a	n/a	21	8	8	5	n/a	n/a	n/a	n/a	n/a
834672	STOP	n/a	LTP112	ltpFR	7	n/a	n/a	n/a	n/a	n/a	n/a	n/a	n/a	n/a	n/a	n/a	n/a	n/a	n/a	n/a	n/a
835536	WORD	wordpools/wasnorm_wordpool.txt	LTP112	ltpFR	7	3	1	HEEL	700	n/a	n/a	1	n/a	0	0	0	0.57763671875	0.412841796875	1	upper	zerothre.ttf
838544	START	n/a	LTP112	ltpFR	7	n/a	n/a	n/a	n/a	n/a	n/a	n/a	n/a	n/a	n/a	n/a	n/a	n/a	n/a	n/a	n/a
839476	PROB	n/a	LTP112	ltpFR	7	n/a	n/a	n/a	n/a	n/a	n/a	n/a	14	8	2	4	n/a	n/a	n/a	n/a	n/a
840817	PROB	n/a	LTP112	ltpFR	7	n/a	n/a	n/a	n/a	n/a	n/a	n/a	16	3	8	5	n/a	n/a	n/a	n/a	n/a
843375	PROB	n/a	LTP112	ltpFR	7	n/a	n/a	n/a	n/a	n/a	n/a	n/a	12	5	2	5	n/a	n/a	n/a	n/a	n/a
844882	PROB	n/a	LTP112	ltpFR	7	n/a	n/a	n/a	n/a	n/a	n/a	n/a	10	3	1	6	n/a	n/a	n/a	n/a	n/a
846434	STOP	n/a	LTP112	ltpFR	7	n/a	n/a	n/a	n/a	n/a	n/a	n/a	n/a	n/a	n/a	n/a	n/a	n/a	n/a	n/a	n/a
847689	WORD	wordpools/wasnorm_wordpool.txt	LTP112	ltpFR	7	3	1	HOE	711	n/a	n/a	0	n/a	0	0	0	0.57763671875	0.412841796875	1	upper	zerothre.ttf
850697	START	n/a	LTP112	ltpFR	7	n/a	n/a	n/a	n/a	n/a	n/a	n/a	n/a	n/a	n/a	n/a	n/a	n/a	n/a	n/a	n/a
851522	PROB	n/a	LTP112	ltpFR	7	n/a	n/a	n/a	n/a	n/a	n/a	n/a	14	7	1	6	n/a	n/a	n/a	n/a	n/a
853246	PROB	n/a	LTP112	ltpFR	7	n/a	n/a	n/a	n/a	n/a	n/a	n/a	9	5	1	3	n/a	n/a	n/a	n/a	n/a
854895	PROB	n/a	LTP112	ltpFR	7	n/a	n/a	n/a	n/a	n/a	n/a	n/a	12	9	2	1	n/a	n/a	n/a	n/a	n/a
856337	PROB	n/a	LTP112	ltpFR	7	n/a	n/a	n/a	n/a	n/a	n/a	n/a	21	8	8	5	n/a	n/a	n/a	n/a	n/a
857809	STOP	n/a	LTP112	ltpFR	7	n/a	n/a	n/a	n/a	n/a	n/a	n/a	n/a	n/a	n/a	n/a	n/a	n/a	n/a	n/a	n/a
859593	WORD	wordpools/wasnorm_wordpool.txt	LTP112	ltpFR	7	3	1	DANDELION	438	n/a	n/a	1	n/a	0	0	0	0.57763671875	0.412841796875	1	upper	zerothre.ttf
862593	START	n/a	LTP112	ltpFR	7	n/a	n/a	n/a	n/a	n/a	n/a	n/a	n/a	n/a	n/a	n/a	n/a	n/a	n/a	n/a	n/a
863767	PROB	n/a	LTP112	ltpFR	7	n/a	n/a	n/a	n/a	n/a	n/a	n/a	13	4	1	8	n/a	n/a	n/a	n/a	n/a
866109	PROB	n/a	LTP112	ltpFR	7	n/a	n/a	n/a	n/a	n/a	n/a	n/a	16	5	5	6	n/a	n/a	n/a	n/a	n/a
867649	PROB	n/a	LTP112	ltpFR	7	n/a	n/a	n/a	n/a	n/a	n/a	n/a	11	3	7	1	n/a	n/a	n/a	n/a	n/a
870593	STOP	n/a	LTP112	ltpFR	7	n/a	n/a	n/a	n/a	n/a	n/a	n/a	n/a	n/a	n/a	n/a	n/a	n/a	n/a	n/a	n/a
871523	WORD	wordpools/wasnorm_wordpool.txt	LTP112	ltpFR	7	3	1	COOLER	375	n/a	n/a	0	n/a	0	0	0	0.57763671875	0.412841796875	1	upper	zerothre.ttf
874531	START	n/a	LTP112	ltpFR	7	n/a	n/a	n/a	n/a	n/a	n/a	n/a	n/a	n/a	n/a	n/a	n/a	n/a	n/a	n/a	n/a
875430	PROB	n/a	LTP112	ltpFR	7	n/a	n/a	n/a	n/a	n/a	n/a	n/a	7	3	2	2	n/a	n/a	n/a	n/a	n/a
877171	PROB	n/a	LTP112	ltpFR	7	n/a	n/a	n/a	n/a	n/a	n/a	n/a	20	9	6	5	n/a	n/a	n/a	n/a	n/a
879496	PROB	n/a	LTP112	ltpFR	7	n/a	n/a	n/a	n/a	n/a	n/a	n/a	18	8	1	9	n/a	n/a	n/a	n/a	n/a
881354	STOP	n/a	LTP112	ltpFR	7	n/a	n/a	n/a	n/a	n/a	n/a	n/a	n/a	n/a	n/a	n/a	n/a	n/a	n/a	n/a	n/a
883693	WORD	wordpools/wasnorm_wordpool.txt	LTP112	ltpFR	7	3	1	EMPEROR	529	n/a	n/a	1	n/a	0	0	0	0.57763671875	0.412841796875	1	upper	zerothre.ttf
886701	START	n/a	LTP112	ltpFR	7	n/a	n/a	n/a	n/a	n/a	n/a	n/a	n/a	n/a	n/a	n/a	n/a	n/a	n/a	n/a	n/a
887650	PROB	n/a	LTP112	ltpFR	7	n/a	n/a	n/a	n/a	n/a	n/a	n/a	6	3	2	1	n/a	n/a	n/a	n/a	n/a
889017	PROB	n/a	LTP112	ltpFR	7	n/a	n/a	n/a	n/a	n/a	n/a	n/a	12	9	3	1	n/a	n/a	n/a	n/a	n/a
890607	PROB	n/a	LTP112	ltpFR	7	n/a	n/a	n/a	n/a	n/a	n/a	n/a	20	5	6	9	n/a	n/a	n/a	n/a	n/a
894701	STOP	n/a	LTP112	ltpFR	7	n/a	n/a	n/a	n/a	n/a	n/a	n/a	n/a	n/a	n/a	n/a	n/a	n/a	n/a	n/a	n/a
895805	WORD	wordpools/wasnorm_wordpool.txt	LTP112	ltpFR	7	3	1	QUEEN	1149	n/a	n/a	1	n/a	0	0	0	0.57763671875	0.412841796875	1	upper	zerothre.ttf
898813	START	n/a	LTP112	ltpFR	7	n/a	n/a	n/a	n/a	n/a	n/a	n/a	n/a	n/a	n/a	n/a	n/a	n/a	n/a	n/a	n/a
899946	PROB	n/a	LTP112	ltpFR	7	n/a	n/a	n/a	n/a	n/a	n/a	n/a	17	6	4	7	n/a	n/a	n/a	n/a	n/a
901837	PROB	n/a	LTP112	ltpFR	7	n/a	n/a	n/a	n/a	n/a	n/a	n/a	12	7	3	2	n/a	n/a	n/a	n/a	n/a
903162	PROB	n/a	LTP112	ltpFR	7	n/a	n/a	n/a	n/a	n/a	n/a	n/a	15	6	3	6	n/a	n/a	n/a	n/a	n/a
905410	STOP	n/a	LTP112	ltpFR	7	n/a	n/a	n/a	n/a	n/a	n/a	n/a	n/a	n/a	n/a	n/a	n/a	n/a	n/a	n/a	n/a
908010	WORD	wordpools/wasnorm_wordpool.txt	LTP112	ltpFR	7	3	1	OVEN	991	n/a	n/a	0	n/a	0	0	0	0.57763671875	0.412841796875	1	upper	zerothre.ttf
911018	START	n/a	LTP112	ltpFR	7	n/a	n/a	n/a	n/a	n/a	n/a	n/a	n/a	n/a	n/a	n/a	n/a	n/a	n/a	n/a	n/a
911983	PROB	n/a	LTP112	ltpFR	7	n/a	n/a	n/a	n/a	n/a	n/a	n/a	19	8	7	4	n/a	n/a	n/a	n/a	n/a
914832	PROB	n/a	LTP112	ltpFR	7	n/a	n/a	n/a	n/a	n/a	n/a	n/a	16	9	5	2	n/a	n/a	n/a	n/a	n/a
919018	STOP	n/a	LTP112	ltpFR	7	n/a	n/a	n/a	n/a	n/a	n/a	n/a	n/a	n/a	n/a	n/a	n/a	n/a	n/a	n/a	n/a
919972	WORD	wordpools/wasnorm_wordpool.txt	LTP112	ltpFR	7	3	1	GLOVE	642	n/a	n/a	0	n/a	0	0	0	0.57763671875	0.412841796875	1	upper	zerothre.ttf
922980	START	n/a	LTP112	ltpFR	7	n/a	n/a	n/a	n/a	n/a	n/a	n/a	n/a	n/a	n/a	n/a	n/a	n/a	n/a	n/a	n/a
923804	PROB	n/a	LTP112	ltpFR	7	n/a	n/a	n/a	n/a	n/a	n/a	n/a	19	4	6	9	n/a	n/a	n/a	n/a	n/a
925321	PROB	n/a	LTP112	ltpFR	7	n/a	n/a	n/a	n/a	n/a	n/a	n/a	8	1	6	1	n/a	n/a	n/a	n/a	n/a
926669	PROB	n/a	LTP112	ltpFR	7	n/a	n/a	n/a	n/a	n/a	n/a	n/a	21	6	8	7	n/a	n/a	n/a	n/a	n/a
930042	STOP	n/a	LTP112	ltpFR	7	n/a	n/a	n/a	n/a	n/a	n/a	n/a	n/a	n/a	n/a	n/a	n/a	n/a	n/a	n/a	n/a
932185	WORD	wordpools/wasnorm_wordpool.txt	LTP112	ltpFR	7	3	1	MILITARY	894	n/a	n/a	0	n/a	0	0	0	0.57763671875	0.412841796875	1	upper	zerothre.ttf
935193	START	n/a	LTP112	ltpFR	7	n/a	n/a	n/a	n/a	n/a	n/a	n/a	n/a	n/a	n/a	n/a	n/a	n/a	n/a	n/a	n/a
936292	PROB	n/a	LTP112	ltpFR	7	n/a	n/a	n/a	n/a	n/a	n/a	n/a	20	6	7	9	n/a	n/a	n/a	n/a	n/a
939358	PROB	n/a	LTP112	ltpFR	7	n/a	n/a	n/a	n/a	n/a	n/a	n/a	22	9	3	8	n/a	n/a	n/a	n/a	n/a
942546	STOP	n/a	LTP112	ltpFR	7	n/a	n/a	n/a	n/a	n/a	n/a	n/a	n/a	n/a	n/a	n/a	n/a	n/a	n/a	n/a	n/a
944098	WORD	wordpools/wasnorm_wordpool.txt	LTP112	ltpFR	7	3	1	YARD	1630	n/a	n/a	0	n/a	0	0	0	0.57763671875	0.412841796875	1	upper	zerothre.ttf
947105	START	n/a	LTP112	ltpFR	7	n/a	n/a	n/a	n/a	n/a	n/a	n/a	n/a	n/a	n/a	n/a	n/a	n/a	n/a	n/a	n/a
948096	PROB	n/a	LTP112	ltpFR	7	n/a	n/a	n/a	n/a	n/a	n/a	n/a	17	4	6	7	n/a	n/a	n/a	n/a	n/a
949462	PROB	n/a	LTP112	ltpFR	7	n/a	n/a	n/a	n/a	n/a	n/a	n/a	12	1	3	8	n/a	n/a	n/a	n/a	n/a
951636	PROB	n/a	LTP112	ltpFR	7	n/a	n/a	n/a	n/a	n/a	n/a	n/a	17	4	5	9	n/a	n/a	n/a	n/a	n/a
954522	STOP	n/a	LTP112	ltpFR	7	n/a	n/a	n/a	n/a	n/a	n/a	n/a	n/a	n/a	n/a	n/a	n/a	n/a	n/a	n/a	n/a
956185	WORD	wordpools/wasnorm_wordpool.txt	LTP112	ltpFR	7	3	1	BATHTUB	100	n/a	n/a	0	n/a	0	0	0	0.57763671875	0.412841796875	1	upper	zerothre.ttf
959193	START	n/a	LTP112	ltpFR	7	n/a	n/a	n/a	n/a	n/a	n/a	n/a	n/a	n/a	n/a	n/a	n/a	n/a	n/a	n/a	n/a
960284	PROB	n/a	LTP112	ltpFR	7	n/a	n/a	n/a	n/a	n/a	n/a	n/a	14	8	2	4	n/a	n/a	n/a	n/a	n/a
961757	PROB	n/a	LTP112	ltpFR	7	n/a	n/a	n/a	n/a	n/a	n/a	n/a	25	9	9	7	n/a	n/a	n/a	n/a	n/a
967193	STOP	n/a	LTP112	ltpFR	7	n/a	n/a	n/a	n/a	n/a	n/a	n/a	n/a	n/a	n/a	n/a	n/a	n/a	n/a	n/a	n/a
968406	WORD	wordpools/wasnorm_wordpool.txt	LTP112	ltpFR	7	3	1	DOOR	486	n/a	n/a	n/a	n/a	0	0	0	0.57763671875	0.412841796875	1	upper	zerothre.ttf
971430	SLOW_MSG	n/a	LTP112	ltpFR	7	3	n/a	n/a	n/a	n/a	n/a	n/a	n/a	0	0	0	n/a	n/a	n/a	n/a	n/a
972945	START	n/a	LTP112	ltpFR	7	n/a	n/a	n/a	n/a	n/a	n/a	n/a	n/a	n/a	n/a	n/a	n/a	n/a	n/a	n/a	n/a
974145	PROB	n/a	LTP112	ltpFR	7	n/a	n/a	n/a	n/a	n/a	n/a	n/a	10	1	2	7	n/a	n/a	n/a	n/a	n/a
975985	PROB	n/a	LTP112	ltpFR	7	n/a	n/a	n/a	n/a	n/a	n/a	n/a	12	2	6	4	n/a	n/a	n/a	n/a	n/a
977586	PROB	n/a	LTP112	ltpFR	7	n/a	n/a	n/a	n/a	n/a	n/a	n/a	16	1	8	7	n/a	n/a	n/a	n/a	n/a
979913	STOP	n/a	LTP112	ltpFR	7	n/a	n/a	n/a	n/a	n/a	n/a	n/a	n/a	n/a	n/a	n/a	n/a	n/a	n/a	n/a	n/a
982834	REC_START	n/a	LTP112	ltpFR	7	3	n/a	n/a	n/a	n/a	n/a	n/a	n/a	0	0	0	n/a	n/a	n/a	n/a	n/a
1039325	REC_WORD	wordpools/wasnorm_wordpool.txt	LTP112	ltpFR	7	3	1	BATHTUB	100	n/a	n/a	0	n/a	0	0	0	n/a	n/a	n/a	n/a	n/a
1043246	REC_WORD	wordpools/wasnorm_wordpool.txt	LTP112	ltpFR	7	3	1	WALRUS	1585	n/a	n/a	1	n/a	0	0	0	n/a	n/a	n/a	n/a	n/a
1080923	WORD	wordpools/wasnorm_wordpool.txt	LTP112	ltpFR	7	4	0	COOK	372	n/a	n/a	1	n/a	0	0	0	0.422607421875	0.5869140625	0	lower	amplitud.ttf
1084788	WORD	wordpools/wasnorm_wordpool.txt	LTP112	ltpFR	7	4	0	SLUG	1329	n/a	n/a	0	n/a	0	0	0	0.422607421875	0.5869140625	0	lower	amplitud.ttf
1088670	WORD	wordpools/wasnorm_wordpool.txt	LTP112	ltpFR	7	4	0	MARINE	869	n/a	n/a	1	n/a	0	0	0	0.422607421875	0.5869140625	0	lower	amplitud.ttf
1092587	WORD	wordpools/wasnorm_wordpool.txt	LTP112	ltpFR	7	4	0	PORK	1108	n/a	n/a	1	n/a	0	0	0	0.422607421875	0.5869140625	0	lower	amplitud.ttf
1096693	WORD	wordpools/wasnorm_wordpool.txt	LTP112	ltpFR	7	4	0	BACON	67	n/a	n/a	1	n/a	0	0	0	0.422607421875	0.5869140625	0	lower	amplitud.ttf
1100858	WORD	wordpools/wasnorm_wordpool.txt	LTP112	ltpFR	7	4	0	PEARL	1034	n/a	n/a	0	n/a	0	0	0	0.422607421875	0.5869140625	0	lower	amplitud.ttf
1104706	WORD	wordpools/wasnorm_wordpool.txt	LTP112	ltpFR	7	4	0	TUNA	1518	n/a	n/a	1	n/a	0	0	0	0.422607421875	0.5869140625	0	lower	amplitud.ttf
1108705	WORD	wordpools/wasnorm_wordpool.txt	LTP112	ltpFR	7	4	0	STREAM	1392	n/a	n/a	1	n/a	0	0	0	0.422607421875	0.5869140625	0	lower	amplitud.ttf
1112820	WORD	wordpools/wasnorm_wordpool.txt	LTP112	ltpFR	7	4	0	TERMITE	1451	n/a	n/a	0	n/a	0	0	0	0.422607421875	0.5869140625	0	lower	amplitud.ttf
1116927	WORD	wordpools/wasnorm_wordpool.txt	LTP112	ltpFR	7	4	0	OYSTER	995	n/a	n/a	0	n/a	0	0	0	0.422607421875	0.5869140625	0	lower	amplitud.ttf
1120776	WORD	wordpools/wasnorm_wordpool.txt	LTP112	ltpFR	7	4	0	LID	817	n/a	n/a	0	n/a	0	0	0	0.422607421875	0.5869140625	0	lower	amplitud.ttf
1124699	WORD	wordpools/wasnorm_wordpool.txt	LTP112	ltpFR	7	4	0	SUMMIT	1405	n/a	n/a	1	n/a	0	0	0	0.422607421875	0.5869140625	0	lower	amplitud.ttf
1128848	WORD	wordpools/wasnorm_wordpool.txt	LTP112	ltpFR	7	4	0	OATS	968	n/a	n/a	0	n/a	0	0	0	0.422607421875	0.5869140625	0	lower	amplitud.ttf
1132680	WORD	wordpools/wasnorm_wordpool.txt	LTP112	ltpFR	7	4	0	SHELL	1281	n/a	n/a	0	n/a	0	0	0	0.422607421875	0.5869140625	0	lower	amplitud.ttf
1136770	WORD	wordpools/wasnorm_wordpool.txt	LTP112	ltpFR	7	4	0	CITIZEN	312	n/a	n/a	1	n/a	0	0	0	0.422607421875	0.5869140625	0	lower	amplitud.ttf
1140802	WORD	wordpools/wasnorm_wordpool.txt	LTP112	ltpFR	7	4	0	JAPAN	749	n/a	n/a	1	n/a	0	0	0	0.422607421875	0.5869140625	0	lower	amplitud.ttf
1143809	START	n/a	LTP112	ltpFR	7	n/a	n/a	n/a	n/a	n/a	n/a	n/a	n/a	n/a	n/a	n/a	n/a	n/a	n/a	n/a	n/a
1144884	PROB	n/a	LTP112	ltpFR	7	n/a	n/a	n/a	n/a	n/a	n/a	n/a	9	2	6	1	n/a	n/a	n/a	n/a	n/a
1147775	PROB	n/a	LTP112	ltpFR	7	n/a	n/a	n/a	n/a	n/a	n/a	n/a	23	4	9	8	n/a	n/a	n/a	n/a	n/a
1150905	STOP	n/a	LTP112	ltpFR	7	n/a	n/a	n/a	n/a	n/a	n/a	n/a	n/a	n/a	n/a	n/a	n/a	n/a	n/a	n/a	n/a
1153656	REC_START	n/a	LTP112	ltpFR	7	4	n/a	n/a	n/a	n/a	n/a	n/a	n/a	0	0	0	n/a	n/a	n/a	n/a	n/a
1156624	REC_WORD	wordpools/wasnorm_wordpool.txt	LTP112	ltpFR	7	4	0	MARINE	869	n/a	n/a	1	n/a	0	0	0	n/a	n/a	n/a	n/a	n/a
1157138	REC_WORD	wordpools/wasnorm_wordpool.txt	LTP112	ltpFR	7	4	0	PEARL	1034	n/a	n/a	0	n/a	0	0	0	n/a	n/a	n/a	n/a	n/a
1157552	REC_WORD	wordpools/wasnorm_wordpool.txt	LTP112	ltpFR	7	4	0	PORK	1108	n/a	n/a	1	n/a	0	0	0	n/a	n/a	n/a	n/a	n/a
1158277	REC_WORD	wordpools/wasnorm_wordpool.txt	LTP112	ltpFR	7	4	0	SLUG	1329	n/a	n/a	0	n/a	0	0	0	n/a	n/a	n/a	n/a	n/a
1159922	REC_WORD	wordpools/wasnorm_wordpool.txt	LTP112	ltpFR	7	4	0	COOK	372	n/a	n/a	1	n/a	0	0	0	n/a	n/a	n/a	n/a	n/a
1164870	REC_WORD	wordpools/wasnorm_wordpool.txt	LTP112	ltpFR	7	4	0	PEARL	1034	n/a	n/a	0	n/a	0	0	0	n/a	n/a	n/a	n/a	n/a
1165733	REC_WORD	wordpools/wasnorm_wordpool.txt	LTP112	ltpFR	7	4	n/a	CLAM	315	n/a	n/a	n/a	n/a	0	0	0	n/a	n/a	n/a	n/a	n/a
1166214	REC_WORD	wordpools/wasnorm_wordpool.txt	LTP112	ltpFR	7	4	0	OYSTER	995	n/a	n/a	0	n/a	0	0	0	n/a	n/a	n/a	n/a	n/a
1170732	REC_WORD	wordpools/wasnorm_wordpool.txt	LTP112	ltpFR	7	4	0	JAPAN	749	n/a	n/a	1	n/a	0	0	0	n/a	n/a	n/a	n/a	n/a
1263692	START	n/a	LTP112	ltpFR	7	n/a	n/a	n/a	n/a	n/a	n/a	n/a	n/a	n/a	n/a	n/a	n/a	n/a	n/a	n/a	n/a
1265201	PROB	n/a	LTP112	ltpFR	7	n/a	n/a	n/a	n/a	n/a	n/a	n/a	10	1	8	1	n/a	n/a	n/a	n/a	n/a
1266624	PROB	n/a	LTP112	ltpFR	7	n/a	n/a	n/a	n/a	n/a	n/a	n/a	14	1	9	4	n/a	n/a	n/a	n/a	n/a
1268832	PROB	n/a	LTP112	ltpFR	7	n/a	n/a	n/a	n/a	n/a	n/a	n/a	16	5	9	2	n/a	n/a	n/a	n/a	n/a
1270831	PROB	n/a	LTP112	ltpFR	7	n/a	n/a	n/a	n/a	n/a	n/a	n/a	15	3	6	6	n/a	n/a	n/a	n/a	n/a
1272697	PROB	n/a	LTP112	ltpFR	7	n/a	n/a	n/a	n/a	n/a	n/a	n/a	11	6	2	3	n/a	n/a	n/a	n/a	n/a
1274281	PROB	n/a	LTP112	ltpFR	7	n/a	n/a	n/a	n/a	n/a	n/a	n/a	14	4	3	7	n/a	n/a	n/a	n/a	n/a
1275712	PROB	n/a	LTP112	ltpFR	7	n/a	n/a	n/a	n/a	n/a	n/a	n/a	17	1	9	7	n/a	n/a	n/a	n/a	n/a
1278314	STOP	n/a	LTP112	ltpFR	7	n/a	n/a	n/a	n/a	n/a	n/a	n/a	n/a	n/a	n/a	n/a	n/a	n/a	n/a	n/a	n/a
1280602	WORD	wordpools/wasnorm_wordpool.txt	LTP112	ltpFR	7	5	1	GREASE	660	n/a	n/a	0	n/a	0	0	0	0.57763671875	0.412841796875	1	upper	zerothre.ttf
1283610	START	n/a	LTP112	ltpFR	7	n/a	n/a	n/a	n/a	n/a	n/a	n/a	n/a	n/a	n/a	n/a	n/a	n/a	n/a	n/a	n/a
1284793	PROB	n/a	LTP112	ltpFR	7	n/a	n/a	n/a	n/a	n/a	n/a	n/a	15	5	8	2	n/a	n/a	n/a	n/a	n/a
1286617	PROB	n/a	LTP112	ltpFR	7	n/a	n/a	n/a	n/a	n/a	n/a	n/a	17	1	8	8	n/a	n/a	n/a	n/a	n/a
1288217	PROB	n/a	LTP112	ltpFR	7	n/a	n/a	n/a	n/a	n/a	n/a	n/a	17	7	9	2	n/a	n/a	n/a	n/a	n/a
1289741	PROB	n/a	LTP112	ltpFR	7	n/a	n/a	n/a	n/a	n/a	n/a	n/a	16	8	3	5	n/a	n/a	n/a	n/a	n/a
1291907	PROB	n/a	LTP112	ltpFR	7	n/a	n/a	n/a	n/a	n/a	n/a	n/a	11	2	6	3	n/a	n/a	n/a	n/a	n/a
1293656	PROB	n/a	LTP112	ltpFR	7	n/a	n/a	n/a	n/a	n/a	n/a	n/a	15	1	5	9	n/a	n/a	n/a	n/a	n/a
1295789	PROB	n/a	LTP112	ltpFR	7	n/a	n/a	n/a	n/a	n/a	n/a	n/a	26	9	9	7	n/a	n/a	n/a	n/a	n/a
1298729	STOP	n/a	LTP112	ltpFR	7	n/a	n/a	n/a	n/a	n/a	n/a	n/a	n/a	n/a	n/a	n/a	n/a	n/a	n/a	n/a	n/a
1300604	WORD	wordpools/wasnorm_wordpool.txt	LTP112	ltpFR	7	5	1	GALLON	618	n/a	n/a	0	n/a	0	0	0	0.57763671875	0.412841796875	1	upper	zerothre.ttf
1303611	START	n/a	LTP112	ltpFR	7	n/a	n/a	n/a	n/a	n/a	n/a	n/a	n/a	n/a	n/a	n/a	n/a	n/a	n/a	n/a	n/a
1304661	PROB	n/a	LTP112	ltpFR	7	n/a	n/a	n/a	n/a	n/a	n/a	n/a	15	3	4	8	n/a	n/a	n/a	n/a	n/a
1306519	PROB	n/a	LTP112	ltpFR	7	n/a	n/a	n/a	n/a	n/a	n/a	n/a	11	8	1	3	n/a	n/a	n/a	n/a	n/a
1308859	PROB	n/a	LTP112	ltpFR	7	n/a	n/a	n/a	n/a	n/a	n/a	n/a	18	8	6	4	n/a	n/a	n/a	n/a	n/a
1311159	PROB	n/a	LTP112	ltpFR	7	n/a	n/a	n/a	n/a	n/a	n/a	n/a	11	5	2	4	n/a	n/a	n/a	n/a	n/a
1313042	PROB	n/a	LTP112	ltpFR	7	n/a	n/a	n/a	n/a	n/a	n/a	n/a	12	8	2	2	n/a	n/a	n/a	n/a	n/a
1314483	PROB	n/a	LTP112	ltpFR	7	n/a	n/a	n/a	n/a	n/a	n/a	n/a	13	7	2	4	n/a	n/a	n/a	n/a	n/a
1319611	STOP	n/a	LTP112	ltpFR	7	n/a	n/a	n/a	n/a	n/a	n/a	n/a	n/a	n/a	n/a	n/a	n/a	n/a	n/a	n/a	n/a
1320705	WORD	wordpools/wasnorm_wordpool.txt	LTP112	ltpFR	7	5	1	MINK	897	n/a	n/a	1	n/a	0	0	0	0.57763671875	0.412841796875	1	upper	zerothre.ttf
1323713	START	n/a	LTP112	ltpFR	7	n/a	n/a	n/a	n/a	n/a	n/a	n/a	n/a	n/a	n/a	n/a	n/a	n/a	n/a	n/a	n/a
1324737	PROB	n/a	LTP112	ltpFR	7	n/a	n/a	n/a	n/a	n/a	n/a	n/a	11	7	2	2	n/a	n/a	n/a	n/a	n/a
1326071	PROB	n/a	LTP112	ltpFR	7	n/a	n/a	n/a	n/a	n/a	n/a	n/a	20	9	8	3	n/a	n/a	n/a	n/a	n/a
1330261	PROB	n/a	LTP112	ltpFR	7	n/a	n/a	n/a	n/a	n/a	n/a	n/a	18	4	6	8	n/a	n/a	n/a	n/a	n/a
1331718	PROB	n/a	LTP112	ltpFR	7	n/a	n/a	n/a	n/a	n/a	n/a	n/a	4	1	3	3	n/a	n/a	n/a	n/a	n/a
1333226	PROB	n/a	LTP112	ltpFR	7	n/a	n/a	n/a	n/a	n/a	n/a	n/a	22	8	9	5	n/a	n/a	n/a	n/a	n/a
1339713	STOP	n/a	LTP112	ltpFR	7	n/a	n/a	n/a	n/a	n/a	n/a	n/a	n/a	n/a	n/a	n/a	n/a	n/a	n/a	n/a	n/a
1340706	WORD	wordpools/wasnorm_wordpool.txt	LTP112	ltpFR	7	5	1	HOOD	714	n/a	n/a	0	n/a	0	0	0	0.57763671875	0.412841796875	1	upper	zerothre.ttf
1343714	START	n/a	LTP112	ltpFR	7	n/a	n/a	n/a	n/a	n/a	n/a	n/a	n/a	n/a	n/a	n/a	n/a	n/a	n/a	n/a	n/a
1344556	PROB	n/a	LTP112	ltpFR	7	n/a	n/a	n/a	n/a	n/a	n/a	n/a	18	9	3	6	n/a	n/a	n/a	n/a	n/a
1347113	PROB	n/a	LTP112	ltpFR	7	n/a	n/a	n/a	n/a	n/a	n/a	n/a	17	5	8	4	n/a	n/a	n/a	n/a	n/a
1349471	PROB	n/a	LTP112	ltpFR	7	n/a	n/a	n/a	n/a	n/a	n/a	n/a	20	8	9	3	n/a	n/a	n/a	n/a	n/a
1353236	PROB	n/a	LTP112	ltpFR	7	n/a	n/a	n/a	n/a	n/a	n/a	n/a	9	2	2	5	n/a	n/a	n/a	n/a	n/a
1354643	PROB	n/a	LTP112	ltpFR	7	n/a	n/a	n/a	n/a	n/a	n/a	n/a	22	6	9	4	n/a	n/a	n/a	n/a	n/a
1359714	STOP	n/a	LTP112	ltpFR	7	n/a	n/a	n/a	n/a	n/a	n/a	n/a	n/a	n/a	n/a	n/a	n/a	n/a	n/a	n/a	n/a
1360832	WORD	wordpools/wasnorm_wordpool.txt	LTP112	ltpFR	7	5	1	ANT	25	n/a	n/a	1	n/a	0	0	0	0.57763671875	0.412841796875	1	upper	zerothre.ttf
1363840	START	n/a	LTP112	ltpFR	7	n/a	n/a	n/a	n/a	n/a	n/a	n/a	n/a	n/a	n/a	n/a	n/a	n/a	n/a	n/a	n/a
1364898	PROB	n/a	LTP112	ltpFR	7	n/a	n/a	n/a	n/a	n/a	n/a	n/a	18	5	9	4	n/a	n/a	n/a	n/a	n/a
1367056	PROB	n/a	LTP112	ltpFR	7	n/a	n/a	n/a	n/a	n/a	n/a	n/a	13	1	8	4	n/a	n/a	n/a	n/a	n/a
1368879	PROB	n/a	LTP112	ltpFR	7	n/a	n/a	n/a	n/a	n/a	n/a	n/a	13	1	5	7	n/a	n/a	n/a	n/a	n/a
1371288	PROB	n/a	LTP112	ltpFR	7	n/a	n/a	n/a	n/a	n/a	n/a	n/a	16	9	3	4	n/a	n/a	n/a	n/a	n/a
1375012	PROB	n/a	LTP112	ltpFR	7	n/a	n/a	n/a	n/a	n/a	n/a	n/a	17	4	4	9	n/a	n/a	n/a	n/a	n/a
1377502	PROB	n/a	LTP112	ltpFR	7	n/a	n/a	n/a	n/a	n/a	n/a	n/a	10	4	2	4	n/a	n/a	n/a	n/a	n/a
1379066	STOP	n/a	LTP112	ltpFR	7	n/a	n/a	n/a	n/a	n/a	n/a	n/a	n/a	n/a	n/a	n/a	n/a	n/a	n/a	n/a	n/a
1381034	WORD	wordpools/wasnorm_wordpool.txt	LTP112	ltpFR	7	5	1	SCOUT	1252	n/a	n/a	1	n/a	0	0	0	0.57763671875	0.412841796875	1	upper	zerothre.ttf
1384042	START	n/a	LTP112	ltpFR	7	n/a	n/a	n/a	n/a	n/a	n/a	n/a	n/a	n/a	n/a	n/a	n/a	n/a	n/a	n/a	n/a
1384949	PROB	n/a	LTP112	ltpFR	7	n/a	n/a	n/a	n/a	n/a	n/a	n/a	15	5	8	2	n/a	n/a	n/a	n/a	n/a
1386756	PROB	n/a	LTP112	ltpFR	7	n/a	n/a	n/a	n/a	n/a	n/a	n/a	11	4	6	1	n/a	n/a	n/a	n/a	n/a
1388574	PROB	n/a	LTP112	ltpFR	7	n/a	n/a	n/a	n/a	n/a	n/a	n/a	13	4	8	1	n/a	n/a	n/a	n/a	n/a
1390323	PROB	n/a	LTP112	ltpFR	7	n/a	n/a	n/a	n/a	n/a	n/a	n/a	22	7	8	6	n/a	n/a	n/a	n/a	n/a
1400042	STOP	n/a	LTP112	ltpFR	7	n/a	n/a	n/a	n/a	n/a	n/a	n/a	n/a	n/a	n/a	n/a	n/a	n/a	n/a	n/a	n/a
1400943	WORD	wordpools/wasnorm_wordpool.txt	LTP112	ltpFR	7	5	1	GARDEN	623	n/a	n/a	1	n/a	0	0	0	0.57763671875	0.412841796875	1	upper	zerothre.ttf
1403951	START	n/a	LTP112	ltpFR	7	n/a	n/a	n/a	n/a	n/a	n/a	n/a	n/a	n/a	n/a	n/a	n/a	n/a	n/a	n/a	n/a
1404950	PROB	n/a	LTP112	ltpFR	7	n/a	n/a	n/a	n/a	n/a	n/a	n/a	19	3	7	9	n/a	n/a	n/a	n/a	n/a
1406392	PROB	n/a	LTP112	ltpFR	7	n/a	n/a	n/a	n/a	n/a	n/a	n/a	9	2	3	4	n/a	n/a	n/a	n/a	n/a
1409549	PROB	n/a	LTP112	ltpFR	7	n/a	n/a	n/a	n/a	n/a	n/a	n/a	13	2	7	4	n/a	n/a	n/a	n/a	n/a
1413448	PROB	n/a	LTP112	ltpFR	7	n/a	n/a	n/a	n/a	n/a	n/a	n/a	18	6	4	8	n/a	n/a	n/a	n/a	n/a
1414780	PROB	n/a	LTP112	ltpFR	7	n/a	n/a	n/a	n/a	n/a	n/a	n/a	13	7	3	2	n/a	n/a	n/a	n/a	n/a
1416189	PROB	n/a	LTP112	ltpFR	7	n/a	n/a	n/a	n/a	n/a	n/a	n/a	18	5	9	4	n/a	n/a	n/a	n/a	n/a
1419921	STOP	n/a	LTP112	ltpFR	7	n/a	n/a	n/a	n/a	n/a	n/a	n/a	n/a	n/a	n/a	n/a	n/a	n/a	n/a	n/a	n/a
1421079	WORD	wordpools/wasnorm_wordpool.txt	LTP112	ltpFR	7	5	1	BEGGAR	117	n/a	n/a	1	n/a	0	0	0	0.57763671875	0.412841796875	1	upper	zerothre.ttf
1424086	START	n/a	LTP112	ltpFR	7	n/a	n/a	n/a	n/a	n/a	n/a	n/a	n/a	n/a	n/a	n/a	n/a	n/a	n/a	n/a	n/a
1425111	PROB	n/a	LTP112	ltpFR	7	n/a	n/a	n/a	n/a	n/a	n/a	n/a	11	1	1	9	n/a	n/a	n/a	n/a	n/a
1426335	PROB	n/a	LTP112	ltpFR	7	n/a	n/a	n/a	n/a	n/a	n/a	n/a	12	3	6	3	n/a	n/a	n/a	n/a	n/a
1428418	PROB	n/a	LTP112	ltpFR	7	n/a	n/a	n/a	n/a	n/a	n/a	n/a	13	7	3	3	n/a	n/a	n/a	n/a	n/a
1429800	PROB	n/a	LTP112	ltpFR	7	n/a	n/a	n/a	n/a	n/a	n/a	n/a	11	6	5	5	n/a	n/a	n/a	n/a	n/a
1431333	PROB	n/a	LTP112	ltpFR	7	n/a	n/a	n/a	n/a	n/a	n/a	n/a	15	3	7	5	n/a	n/a	n/a	n/a	n/a
1433466	PROB	n/a	LTP112	ltpFR	7	n/a	n/a	n/a	n/a	n/a	n/a	n/a	16	7	6	6	n/a	n/a	n/a	n/a	n/a
1438222	PROB	n/a	LTP112	ltpFR	7	n/a	n/a	n/a	n/a	n/a	n/a	n/a	9	3	3	3	n/a	n/a	n/a	n/a	n/a
1439769	STOP	n/a	LTP112	ltpFR	7	n/a	n/a	n/a	n/a	n/a	n/a	n/a	n/a	n/a	n/a	n/a	n/a	n/a	n/a	n/a	n/a
1440896	WORD	wordpools/wasnorm_wordpool.txt	LTP112	ltpFR	7	5	1	PAW	1029	n/a	n/a	1	n/a	0	0	0	0.57763671875	0.412841796875	1	upper	zerothre.ttf
1443903	START	n/a	LTP112	ltpFR	7	n/a	n/a	n/a	n/a	n/a	n/a	n/a	n/a	n/a	n/a	n/a	n/a	n/a	n/a	n/a	n/a
1445062	PROB	n/a	LTP112	ltpFR	7	n/a	n/a	n/a	n/a	n/a	n/a	n/a	14	7	3	4	n/a	n/a	n/a	n/a	n/a
1446470	PROB	n/a	LTP112	ltpFR	7	n/a	n/a	n/a	n/a	n/a	n/a	n/a	14	9	4	1	n/a	n/a	n/a	n/a	n/a
1447968	PROB	n/a	LTP112	ltpFR	7	n/a	n/a	n/a	n/a	n/a	n/a	n/a	17	3	8	6	n/a	n/a	n/a	n/a	n/a
1450368	PROB	n/a	LTP112	ltpFR	7	n/a	n/a	n/a	n/a	n/a	n/a	n/a	18	3	6	9	n/a	n/a	n/a	n/a	n/a
1453092	PROB	n/a	LTP112	ltpFR	7	n/a	n/a	n/a	n/a	n/a	n/a	n/a	12	4	6	2	n/a	n/a	n/a	n/a	n/a
1455541	PROB	n/a	LTP112	ltpFR	7	n/a	n/a	n/a	n/a	n/a	n/a	n/a	16	6	3	7	n/a	n/a	n/a	n/a	n/a
1459903	STOP	n/a	LTP112	ltpFR	7	n/a	n/a	n/a	n/a	n/a	n/a	n/a	n/a	n/a	n/a	n/a	n/a	n/a	n/a	n/a	n/a
1460797	WORD	wordpools/wasnorm_wordpool.txt	LTP112	ltpFR	7	5	1	WELL	1600	n/a	n/a	0	n/a	0	0	0	0.57763671875	0.412841796875	1	upper	zerothre.ttf
1463805	START	n/a	LTP112	ltpFR	7	n/a	n/a	n/a	n/a	n/a	n/a	n/a	n/a	n/a	n/a	n/a	n/a	n/a	n/a	n/a	n/a
1464621	PROB	n/a	LTP112	ltpFR	7	n/a	n/a	n/a	n/a	n/a	n/a	n/a	6	1	1	4	n/a	n/a	n/a	n/a	n/a
1466346	PROB	n/a	LTP112	ltpFR	7	n/a	n/a	n/a	n/a	n/a	n/a	n/a	18	9	8	1	n/a	n/a	n/a	n/a	n/a
1467986	PROB	n/a	LTP112	ltpFR	7	n/a	n/a	n/a	n/a	n/a	n/a	n/a	17	9	2	6	n/a	n/a	n/a	n/a	n/a
1470610	PROB	n/a	LTP112	ltpFR	7	n/a	n/a	n/a	n/a	n/a	n/a	n/a	12	8	2	2	n/a	n/a	n/a	n/a	n/a
1472344	PROB	n/a	LTP112	ltpFR	7	n/a	n/a	n/a	n/a	n/a	n/a	n/a	19	6	9	4	n/a	n/a	n/a	n/a	n/a
1474700	PROB	n/a	LTP112	ltpFR	7	n/a	n/a	n/a	n/a	n/a	n/a	n/a	8	5	1	2	n/a	n/a	n/a	n/a	n/a
1476800	PROB	n/a	LTP112	ltpFR	7	n/a	n/a	n/a	n/a	n/a	n/a	n/a	19	6	4	9	n/a	n/a	n/a	n/a	n/a
1479234	STOP	n/a	LTP112	ltpFR	7	n/a	n/a	n/a	n/a	n/a	n/a	n/a	n/a	n/a	n/a	n/a	n/a	n/a	n/a	n/a	n/a
1480648	WORD	wordpools/wasnorm_wordpool.txt	LTP112	ltpFR	7	5	1	PUPIL	1143	n/a	n/a	1	n/a	0	0	0	0.57763671875	0.412841796875	1	upper	zerothre.ttf
1483656	START	n/a	LTP112	ltpFR	7	n/a	n/a	n/a	n/a	n/a	n/a	n/a	n/a	n/a	n/a	n/a	n/a	n/a	n/a	n/a	n/a
1484688	PROB	n/a	LTP112	ltpFR	7	n/a	n/a	n/a	n/a	n/a	n/a	n/a	16	3	8	5	n/a	n/a	n/a	n/a	n/a
1486838	PROB	n/a	LTP112	ltpFR	7	n/a	n/a	n/a	n/a	n/a	n/a	n/a	16	3	8	5	n/a	n/a	n/a	n/a	n/a
1488080	PROB	n/a	LTP112	ltpFR	7	n/a	n/a	n/a	n/a	n/a	n/a	n/a	10	3	2	5	n/a	n/a	n/a	n/a	n/a
1490254	PROB	n/a	LTP112	ltpFR	7	n/a	n/a	n/a	n/a	n/a	n/a	n/a	22	9	7	6	n/a	n/a	n/a	n/a	n/a
1499656	STOP	n/a	LTP112	ltpFR	7	n/a	n/a	n/a	n/a	n/a	n/a	n/a	n/a	n/a	n/a	n/a	n/a	n/a	n/a	n/a	n/a
1500783	WORD	wordpools/wasnorm_wordpool.txt	LTP112	ltpFR	7	5	1	SOCK	1339	n/a	n/a	0	n/a	0	0	0	0.57763671875	0.412841796875	1	upper	zerothre.ttf
1503790	START	n/a	LTP112	ltpFR	7	n/a	n/a	n/a	n/a	n/a	n/a	n/a	n/a	n/a	n/a	n/a	n/a	n/a	n/a	n/a	n/a
1504865	PROB	n/a	LTP112	ltpFR	7	n/a	n/a	n/a	n/a	n/a	n/a	n/a	20	9	9	2	n/a	n/a	n/a	n/a	n/a
1507181	PROB	n/a	LTP112	ltpFR	7	n/a	n/a	n/a	n/a	n/a	n/a	n/a	9	4	4	1	n/a	n/a	n/a	n/a	n/a
1509613	PROB	n/a	LTP112	ltpFR	7	n/a	n/a	n/a	n/a	n/a	n/a	n/a	14	6	7	1	n/a	n/a	n/a	n/a	n/a
1511721	PROB	n/a	LTP112	ltpFR	7	n/a	n/a	n/a	n/a	n/a	n/a	n/a	17	7	5	5	n/a	n/a	n/a	n/a	n/a
1513104	PROB	n/a	LTP112	ltpFR	7	n/a	n/a	n/a	n/a	n/a	n/a	n/a	10	1	1	8	n/a	n/a	n/a	n/a	n/a
1514554	PROB	n/a	LTP112	ltpFR	7	n/a	n/a	n/a	n/a	n/a	n/a	n/a	19	6	4	9	n/a	n/a	n/a	n/a	n/a
1516045	PROB	n/a	LTP112	ltpFR	7	n/a	n/a	n/a	n/a	n/a	n/a	n/a	8	4	1	4	n/a	n/a	n/a	n/a	n/a
1517370	PROB	n/a	LTP112	ltpFR	7	n/a	n/a	n/a	n/a	n/a	n/a	n/a	14	8	5	1	n/a	n/a	n/a	n/a	n/a
1519186	STOP	n/a	LTP112	ltpFR	7	n/a	n/a	n/a	n/a	n/a	n/a	n/a	n/a	n/a	n/a	n/a	n/a	n/a	n/a	n/a	n/a
1520767	WORD	wordpools/wasnorm_wordpool.txt	LTP112	ltpFR	7	5	1	TULIP	1517	n/a	n/a	1	n/a	0	0	0	0.57763671875	0.412841796875	1	upper	zerothre.ttf
1523775	START	n/a	LTP112	ltpFR	7	n/a	n/a	n/a	n/a	n/a	n/a	n/a	n/a	n/a	n/a	n/a	n/a	n/a	n/a	n/a	n/a
1524807	PROB	n/a	LTP112	ltpFR	7	n/a	n/a	n/a	n/a	n/a	n/a	n/a	15	3	9	3	n/a	n/a	n/a	n/a	n/a
1527441	PROB	n/a	LTP112	ltpFR	7	n/a	n/a	n/a	n/a	n/a	n/a	n/a	25	8	7	9	n/a	n/a	n/a	n/a	n/a
1533405	PROB	n/a	LTP112	ltpFR	7	n/a	n/a	n/a	n/a	n/a	n/a	n/a	11	4	3	4	n/a	n/a	n/a	n/a	n/a
1537179	PROB	n/a	LTP112	ltpFR	7	n/a	n/a	n/a	n/a	n/a	n/a	n/a	13	3	4	6	n/a	n/a	n/a	n/a	n/a
1538913	STOP	n/a	LTP112	ltpFR	7	n/a	n/a	n/a	n/a	n/a	n/a	n/a	n/a	n/a	n/a	n/a	n/a	n/a	n/a	n/a	n/a
1540685	WORD	wordpools/wasnorm_wordpool.txt	LTP112	ltpFR	7	5	1	TREAD	1499	n/a	n/a	0	n/a	0	0	0	0.57763671875	0.412841796875	1	upper	zerothre.ttf
1543693	START	n/a	LTP112	ltpFR	7	n/a	n/a	n/a	n/a	n/a	n/a	n/a	n/a	n/a	n/a	n/a	n/a	n/a	n/a	n/a	n/a
1544535	PROB	n/a	LTP112	ltpFR	7	n/a	n/a	n/a	n/a	n/a	n/a	n/a	13	4	7	2	n/a	n/a	n/a	n/a	n/a
1547376	PROB	n/a	LTP112	ltpFR	7	n/a	n/a	n/a	n/a	n/a	n/a	n/a	174	9	6	2	n/a	n/a	n/a	n/a	n/a
1549225	PROB	n/a	LTP112	ltpFR	7	n/a	n/a	n/a	n/a	n/a	n/a	n/a	17	9	1	7	n/a	n/a	n/a	n/a	n/a
1550840	PROB	n/a	LTP112	ltpFR	7	n/a	n/a	n/a	n/a	n/a	n/a	n/a	14	9	2	3	n/a	n/a	n/a	n/a	n/a
1552656	PROB	n/a	LTP112	ltpFR	7	n/a	n/a	n/a	n/a	n/a	n/a	n/a	16	3	5	8	n/a	n/a	n/a	n/a	n/a
1554281	PROB	n/a	LTP112	ltpFR	7	n/a	n/a	n/a	n/a	n/a	n/a	n/a	10	2	2	6	n/a	n/a	n/a	n/a	n/a
1555838	PROB	n/a	LTP112	ltpFR	7	n/a	n/a	n/a	n/a	n/a	n/a	n/a	11	6	2	3	n/a	n/a	n/a	n/a	n/a
1559693	STOP	n/a	LTP112	ltpFR	7	n/a	n/a	n/a	n/a	n/a	n/a	n/a	n/a	n/a	n/a	n/a	n/a	n/a	n/a	n/a	n/a
1560513	WORD	wordpools/wasnorm_wordpool.txt	LTP112	ltpFR	7	5	1	OWNER	993	n/a	n/a	1	n/a	0	0	0	0.57763671875	0.412841796875	1	upper	zerothre.ttf
1563520	START	n/a	LTP112	ltpFR	7	n/a	n/a	n/a	n/a	n/a	n/a	n/a	n/a	n/a	n/a	n/a	n/a	n/a	n/a	n/a	n/a
1564494	PROB	n/a	LTP112	ltpFR	7	n/a	n/a	n/a	n/a	n/a	n/a	n/a	14	4	4	6	n/a	n/a	n/a	n/a	n/a
1566077	PROB	n/a	LTP112	ltpFR	7	n/a	n/a	n/a	n/a	n/a	n/a	n/a	25	8	9	8	n/a	n/a	n/a	n/a	n/a
1569384	PROB	n/a	LTP112	ltpFR	7	n/a	n/a	n/a	n/a	n/a	n/a	n/a	15	4	2	9	n/a	n/a	n/a	n/a	n/a
1571492	PROB	n/a	LTP112	ltpFR	7	n/a	n/a	n/a	n/a	n/a	n/a	n/a	18	2	8	8	n/a	n/a	n/a	n/a	n/a
1573283	PROB	n/a	LTP112	ltpFR	7	n/a	n/a	n/a	n/a	n/a	n/a	n/a	8	3	3	2	n/a	n/a	n/a	n/a	n/a
1575191	PROB	n/a	LTP112	ltpFR	7	n/a	n/a	n/a	n/a	n/a	n/a	n/a	10	2	4	4	n/a	n/a	n/a	n/a	n/a
1576515	PROB	n/a	LTP112	ltpFR	7	n/a	n/a	n/a	n/a	n/a	n/a	n/a	15	8	5	2	n/a	n/a	n/a	n/a	n/a
1579434	STOP	n/a	LTP112	ltpFR	7	n/a	n/a	n/a	n/a	n/a	n/a	n/a	n/a	n/a	n/a	n/a	n/a	n/a	n/a	n/a	n/a
1580572	WORD	wordpools/wasnorm_wordpool.txt	LTP112	ltpFR	7	5	1	CONSUMER	365	n/a	n/a	1	n/a	0	0	0	0.57763671875	0.412841796875	1	upper	zerothre.ttf
1583580	START	n/a	LTP112	ltpFR	7	n/a	n/a	n/a	n/a	n/a	n/a	n/a	n/a	n/a	n/a	n/a	n/a	n/a	n/a	n/a	n/a
1584446	PROB	n/a	LTP112	ltpFR	7	n/a	n/a	n/a	n/a	n/a	n/a	n/a	14	7	5	2	n/a	n/a	n/a	n/a	n/a
1585961	PROB	n/a	LTP112	ltpFR	7	n/a	n/a	n/a	n/a	n/a	n/a	n/a	20	5	8	7	n/a	n/a	n/a	n/a	n/a
1588469	PROB	n/a	LTP112	ltpFR	7	n/a	n/a	n/a	n/a	n/a	n/a	n/a	19	8	3	8	n/a	n/a	n/a	n/a	n/a
1592850	PROB	n/a	LTP112	ltpFR	7	n/a	n/a	n/a	n/a	n/a	n/a	n/a	18	6	6	8	n/a	n/a	n/a	n/a	n/a
1594849	PROB	n/a	LTP112	ltpFR	7	n/a	n/a	n/a	n/a	n/a	n/a	n/a	9	2	6	1	n/a	n/a	n/a	n/a	n/a
1596607	PROB	n/a	LTP112	ltpFR	7	n/a	n/a	n/a	n/a	n/a	n/a	n/a	17	7	8	2	n/a	n/a	n/a	n/a	n/a
1598146	STOP	n/a	LTP112	ltpFR	7	n/a	n/a	n/a	n/a	n/a	n/a	n/a	n/a	n/a	n/a	n/a	n/a	n/a	n/a	n/a	n/a
1601440	REC_START	n/a	LTP112	ltpFR	7	5	n/a	n/a	n/a	n/a	n/a	n/a	n/a	0	0	0	n/a	n/a	n/a	n/a	n/a
1602956	REC_WORD	wordpools/wasnorm_wordpool.txt	LTP112	ltpFR	7	5	1	CONSUMER	365	n/a	n/a	1	n/a	0	0	0	n/a	n/a	n/a	n/a	n/a
1603620	REC_WORD	wordpools/wasnorm_wordpool.txt	LTP112	ltpFR	7	5	1	GREASE	660	n/a	n/a	0	n/a	0	0	0	n/a	n/a	n/a	n/a	n/a
1604004	REC_WORD	wordpools/wasnorm_wordpool.txt	LTP112	ltpFR	7	5	1	HOOD	714	n/a	n/a	0	n/a	0	0	0	n/a	n/a	n/a	n/a	n/a
1604648	REC_WORD	wordpools/wasnorm_wordpool.txt	LTP112	ltpFR	7	5	1	WELL	1600	n/a	n/a	0	n/a	0	0	0	n/a	n/a	n/a	n/a	n/a
1613911	REC_WORD	wordpools/wasnorm_wordpool.txt	LTP112	ltpFR	7	5	0	CONTINENT	367	n/a	n/a	1	n/a	0	0	0	n/a	n/a	n/a	n/a	n/a
1680379	START	n/a	LTP112	ltpFR	7	n/a	n/a	n/a	n/a	n/a	n/a	n/a	n/a	n/a	n/a	n/a	n/a	n/a	n/a	n/a	n/a
1681885	PROB	n/a	LTP112	ltpFR	7	n/a	n/a	n/a	n/a	n/a	n/a	n/a	13	3	4	6	n/a	n/a	n/a	n/a	n/a
1684335	PROB	n/a	LTP112	ltpFR	7	n/a	n/a	n/a	n/a	n/a	n/a	n/a	20	5	9	6	n/a	n/a	n/a	n/a	n/a
1688379	STOP	n/a	LTP112	ltpFR	7	n/a	n/a	n/a	n/a	n/a	n/a	n/a	n/a	n/a	n/a	n/a	n/a	n/a	n/a	n/a	n/a
1689325	WORD	wordpools/wasnorm_wordpool.txt	LTP112	ltpFR	7	6	1	BIRD	129	n/a	n/a	3	n/a	0	0	0	0.57763671875	0.412841796875	1	upper	zerothre.ttf
1690450	KEY_MSG	n/a	LTP112	ltpFR	7	6	n/a	n/a	n/a	n/a	n/a	n/a	n/a	0	0	0	n/a	n/a	n/a	n/a	n/a
1692333	START	n/a	LTP112	ltpFR	7	n/a	n/a	n/a	n/a	n/a	n/a	n/a	n/a	n/a	n/a	n/a	n/a	n/a	n/a	n/a	n/a
1693324	PROB	n/a	LTP112	ltpFR	7	n/a	n/a	n/a	n/a	n/a	n/a	n/a	15	2	9	4	n/a	n/a	n/a	n/a	n/a
1695356	PROB	n/a	LTP112	ltpFR	7	n/a	n/a	n/a	n/a	n/a	n/a	n/a	16	5	9	2	n/a	n/a	n/a	n/a	n/a
1697056	PROB	n/a	LTP112	ltpFR	7	n/a	n/a	n/a	n/a	n/a	n/a	n/a	12	6	5	1	n/a	n/a	n/a	n/a	n/a
1698713	PROB	n/a	LTP112	ltpFR	7	n/a	n/a	n/a	n/a	n/a	n/a	n/a	12	4	6	2	n/a	n/a	n/a	n/a	n/a
1700162	STOP	n/a	LTP112	ltpFR	7	n/a	n/a	n/a	n/a	n/a	n/a	n/a	n/a	n/a	n/a	n/a	n/a	n/a	n/a	n/a	n/a
1701529	WORD	wordpools/wasnorm_wordpool.txt	LTP112	ltpFR	7	6	1	ALBUM	14	n/a	n/a	0	n/a	0	0	0	0.57763671875	0.412841796875	1	upper	zerothre.ttf
1704537	START	n/a	LTP112	ltpFR	7	n/a	n/a	n/a	n/a	n/a	n/a	n/a	n/a	n/a	n/a	n/a	n/a	n/a	n/a	n/a	n/a
1705727	PROB	n/a	LTP112	ltpFR	7	n/a	n/a	n/a	n/a	n/a	n/a	n/a	19	5	9	5	n/a	n/a	n/a	n/a	n/a
1707244	PROB	n/a	LTP112	ltpFR	7	n/a	n/a	n/a	n/a	n/a	n/a	n/a	14	8	4	2	n/a	n/a	n/a	n/a	n/a
1708684	PROB	n/a	LTP112	ltpFR	7	n/a	n/a	n/a	n/a	n/a	n/a	n/a	15	6	2	7	n/a	n/a	n/a	n/a	n/a
1711442	STOP	n/a	LTP112	ltpFR	7	n/a	n/a	n/a	n/a	n/a	n/a	n/a	n/a	n/a	n/a	n/a	n/a	n/a	n/a	n/a	n/a
1713657	WORD	wordpools/wasnorm_wordpool.txt	LTP112	ltpFR	7	6	1	DRAWING	494	n/a	n/a	0	n/a	0	0	0	0.57763671875	0.412841796875	1	upper	zerothre.ttf
1716665	START	n/a	LTP112	ltpFR	7	n/a	n/a	n/a	n/a	n/a	n/a	n/a	n/a	n/a	n/a	n/a	n/a	n/a	n/a	n/a	n/a
1717499	PROB	n/a	LTP112	ltpFR	7	n/a	n/a	n/a	n/a	n/a	n/a	n/a	19	6	9	4	n/a	n/a	n/a	n/a	n/a
1719556	PROB	n/a	LTP112	ltpFR	7	n/a	n/a	n/a	n/a	n/a	n/a	n/a	15	3	9	3	n/a	n/a	n/a	n/a	n/a
1724665	STOP	n/a	LTP112	ltpFR	7	n/a	n/a	n/a	n/a	n/a	n/a	n/a	n/a	n/a	n/a	n/a	n/a	n/a	n/a	n/a	n/a
1725695	WORD	wordpools/wasnorm_wordpool.txt	LTP112	ltpFR	7	6	1	TIGER	1467	n/a	n/a	1	n/a	0	0	0	0.57763671875	0.412841796875	1	upper	zerothre.ttf
1728702	START	n/a	LTP112	ltpFR	7	n/a	n/a	n/a	n/a	n/a	n/a	n/a	n/a	n/a	n/a	n/a	n/a	n/a	n/a	n/a	n/a
1729860	PROB	n/a	LTP112	ltpFR	7	n/a	n/a	n/a	n/a	n/a	n/a	n/a	16	4	9	3	n/a	n/a	n/a	n/a	n/a
1732001	PROB	n/a	LTP112	ltpFR	7	n/a	n/a	n/a	n/a	n/a	n/a	n/a	20	4	8	8	n/a	n/a	n/a	n/a	n/a
1734593	PROB	n/a	LTP112	ltpFR	7	n/a	n/a	n/a	n/a	n/a	n/a	n/a	4	2	1	1	n/a	n/a	n/a	n/a	n/a
1735649	STOP	n/a	LTP112	ltpFR	7	n/a	n/a	n/a	n/a	n/a	n/a	n/a	n/a	n/a	n/a	n/a	n/a	n/a	n/a	n/a	n/a
1737749	WORD	wordpools/wasnorm_wordpool.txt	LTP112	ltpFR	7	6	1	WART	1590	n/a	n/a	1	n/a	0	0	0	0.57763671875	0.412841796875	1	upper	zerothre.ttf
1740756	START	n/a	LTP112	ltpFR	7	n/a	n/a	n/a	n/a	n/a	n/a	n/a	n/a	n/a	n/a	n/a	n/a	n/a	n/a	n/a	n/a
1741864	PROB	n/a	LTP112	ltpFR	7	n/a	n/a	n/a	n/a	n/a	n/a	n/a	10	5	1	4	n/a	n/a	n/a	n/a	n/a
1743473	PROB	n/a	LTP112	ltpFR	7	n/a	n/a	n/a	n/a	n/a	n/a	n/a	11	1	4	6	n/a	n/a	n/a	n/a	n/a
1744796	PROB	n/a	LTP112	ltpFR	7	n/a	n/a	n/a	n/a	n/a	n/a	n/a	16	1	8	7	n/a	n/a	n/a	n/a	n/a
1746563	PROB	n/a	LTP112	ltpFR	7	n/a	n/a	n/a	n/a	n/a	n/a	n/a	13	6	1	6	n/a	n/a	n/a	n/a	n/a
1748082	STOP	n/a	LTP112	ltpFR	7	n/a	n/a	n/a	n/a	n/a	n/a	n/a	n/a	n/a	n/a	n/a	n/a	n/a	n/a	n/a	n/a
1749620	WORD	wordpools/wasnorm_wordpool.txt	LTP112	ltpFR	7	6	1	HORSE	719	n/a	n/a	1	n/a	0	0	0	0.57763671875	0.412841796875	1	upper	zerothre.ttf
1752627	START	n/a	LTP112	ltpFR	7	n/a	n/a	n/a	n/a	n/a	n/a	n/a	n/a	n/a	n/a	n/a	n/a	n/a	n/a	n/a	n/a
1753486	PROB	n/a	LTP112	ltpFR	7	n/a	n/a	n/a	n/a	n/a	n/a	n/a	17	6	6	5	n/a	n/a	n/a	n/a	n/a
1755352	PROB	n/a	LTP112	ltpFR	7	n/a	n/a	n/a	n/a	n/a	n/a	n/a	16	5	9	2	n/a	n/a	n/a	n/a	n/a
1760627	STOP	n/a	LTP112	ltpFR	7	n/a	n/a	n/a	n/a	n/a	n/a	n/a	n/a	n/a	n/a	n/a	n/a	n/a	n/a	n/a	n/a
1761815	WORD	wordpools/wasnorm_wordpool.txt	LTP112	ltpFR	7	6	1	RIDER	1191	n/a	n/a	1	n/a	0	0	0	0.57763671875	0.412841796875	1	upper	zerothre.ttf
1764823	START	n/a	LTP112	ltpFR	7	n/a	n/a	n/a	n/a	n/a	n/a	n/a	n/a	n/a	n/a	n/a	n/a	n/a	n/a	n/a	n/a
1765639	PROB	n/a	LTP112	ltpFR	7	n/a	n/a	n/a	n/a	n/a	n/a	n/a	14	5	4	5	n/a	n/a	n/a	n/a	n/a
1767123	PROB	n/a	LTP112	ltpFR	7	n/a	n/a	n/a	n/a	n/a	n/a	n/a	19	4	6	9	n/a	n/a	n/a	n/a	n/a
1768422	PROB	n/a	LTP112	ltpFR	7	n/a	n/a	n/a	n/a	n/a	n/a	n/a	14	1	6	7	n/a	n/a	n/a	n/a	n/a
1770022	PROB	n/a	LTP112	ltpFR	7	n/a	n/a	n/a	n/a	n/a	n/a	n/a	15	6	6	3	n/a	n/a	n/a	n/a	n/a
1771458	STOP	n/a	LTP112	ltpFR	7	n/a	n/a	n/a	n/a	n/a	n/a	n/a	n/a	n/a	n/a	n/a	n/a	n/a	n/a	n/a	n/a
1773886	WORD	wordpools/wasnorm_wordpool.txt	LTP112	ltpFR	7	6	1	SKATE	1313	n/a	n/a	0	n/a	0	0	0	0.57763671875	0.412841796875	1	upper	zerothre.ttf
1776894	START	n/a	LTP112	ltpFR	7	n/a	n/a	n/a	n/a	n/a	n/a	n/a	n/a	n/a	n/a	n/a	n/a	n/a	n/a	n/a	n/a
1777768	PROB	n/a	LTP112	ltpFR	7	n/a	n/a	n/a	n/a	n/a	n/a	n/a	17	8	6	3	n/a	n/a	n/a	n/a	n/a
1780068	PROB	n/a	LTP112	ltpFR	7	n/a	n/a	n/a	n/a	n/a	n/a	n/a	11	6	2	3	n/a	n/a	n/a	n/a	n/a
1781675	PROB	n/a	LTP112	ltpFR	7	n/a	n/a	n/a	n/a	n/a	n/a	n/a	10	6	1	3	n/a	n/a	n/a	n/a	n/a
1783042	PROB	n/a	LTP112	ltpFR	7	n/a	n/a	n/a	n/a	n/a	n/a	n/a	11	1	6	4	n/a	n/a	n/a	n/a	n/a
1784130	STOP	n/a	LTP112	ltpFR	7	n/a	n/a	n/a	n/a	n/a	n/a	n/a	n/a	n/a	n/a	n/a	n/a	n/a	n/a	n/a	n/a
1785823	WORD	wordpools/wasnorm_wordpool.txt	LTP112	ltpFR	7	6	1	BEAR	106	n/a	n/a	n/a	n/a	0	0	0	0.57763671875	0.412841796875	1	upper	zerothre.ttf
1788847	SLOW_MSG	n/a	LTP112	ltpFR	7	6	n/a	n/a	n/a	n/a	n/a	n/a	n/a	0	0	0	n/a	n/a	n/a	n/a	n/a
1790357	START	n/a	LTP112	ltpFR	7	n/a	n/a	n/a	n/a	n/a	n/a	n/a	n/a	n/a	n/a	n/a	n/a	n/a	n/a	n/a	n/a
1791306	PROB	n/a	LTP112	ltpFR	7	n/a	n/a	n/a	n/a	n/a	n/a	n/a	17	9	5	8	n/a	n/a	n/a	n/a	n/a
1795404	PROB	n/a	LTP112	ltpFR	7	n/a	n/a	n/a	n/a	n/a	n/a	n/a	15	5	3	7	n/a	n/a	n/a	n/a	n/a
1797298	STOP	n/a	LTP112	ltpFR	7	n/a	n/a	n/a	n/a	n/a	n/a	n/a	n/a	n/a	n/a	n/a	n/a	n/a	n/a	n/a	n/a
1799186	WORD	wordpools/wasnorm_wordpool.txt	LTP112	ltpFR	7	6	1	DISHWASHER	475	n/a	n/a	0	n/a	0	0	0	0.57763671875	0.412841796875	1	upper	zerothre.ttf
1802194	START	n/a	LTP112	ltpFR	7	n/a	n/a	n/a	n/a	n/a	n/a	n/a	n/a	n/a	n/a	n/a	n/a	n/a	n/a	n/a	n/a
1803010	PROB	n/a	LTP112	ltpFR	7	n/a	n/a	n/a	n/a	n/a	n/a	n/a	6	4	1	1	n/a	n/a	n/a	n/a	n/a
1804493	PROB	n/a	LTP112	ltpFR	7	n/a	n/a	n/a	n/a	n/a	n/a	n/a	14	6	4	4	n/a	n/a	n/a	n/a	n/a
1805741	PROB	n/a	LTP112	ltpFR	7	n/a	n/a	n/a	n/a	n/a	n/a	n/a	20	5	6	9	n/a	n/a	n/a	n/a	n/a
1810193	STOP	n/a	LTP112	ltpFR	7	n/a	n/a	n/a	n/a	n/a	n/a	n/a	n/a	n/a	n/a	n/a	n/a	n/a	n/a	n/a	n/a
1811257	WORD	wordpools/wasnorm_wordpool.txt	LTP112	ltpFR	7	6	1	PUBLICATION	1136	n/a	n/a	0	n/a	0	0	0	0.57763671875	0.412841796875	1	upper	zerothre.ttf
1814265	START	n/a	LTP112	ltpFR	7	n/a	n/a	n/a	n/a	n/a	n/a	n/a	n/a	n/a	n/a	n/a	n/a	n/a	n/a	n/a	n/a
1815131	PROB	n/a	LTP112	ltpFR	7	n/a	n/a	n/a	n/a	n/a	n/a	n/a	14	4	8	2	n/a	n/a	n/a	n/a	n/a
1816514	PROB	n/a	LTP112	ltpFR	7	n/a	n/a	n/a	n/a	n/a	n/a	n/a	14	1	4	9	n/a	n/a	n/a	n/a	n/a
1817995	PROB	n/a	LTP112	ltpFR	7	n/a	n/a	n/a	n/a	n/a	n/a	n/a	16	9	2	5	n/a	n/a	n/a	n/a	n/a
1819836	PROB	n/a	LTP112	ltpFR	7	n/a	n/a	n/a	n/a	n/a	n/a	n/a	12	4	6	2	n/a	n/a	n/a	n/a	n/a
1821354	STOP	n/a	LTP112	ltpFR	7	n/a	n/a	n/a	n/a	n/a	n/a	n/a	n/a	n/a	n/a	n/a	n/a	n/a	n/a	n/a	n/a
1823228	WORD	wordpools/wasnorm_wordpool.txt	LTP112	ltpFR	7	6	1	SOLDIER	1344	n/a	n/a	1	n/a	0	0	0	0.57763671875	0.412841796875	1	upper	zerothre.ttf
1826236	START	n/a	LTP112	ltpFR	7	n/a	n/a	n/a	n/a	n/a	n/a	n/a	n/a	n/a	n/a	n/a	n/a	n/a	n/a	n/a	n/a
1827310	PROB	n/a	LTP112	ltpFR	7	n/a	n/a	n/a	n/a	n/a	n/a	n/a	10	3	4	3	n/a	n/a	n/a	n/a	n/a
1829608	PROB	n/a	LTP112	ltpFR	7	n/a	n/a	n/a	n/a	n/a	n/a	n/a	21	7	9	4	n/a	n/a	n/a	n/a	n/a
1834236	STOP	n/a	LTP112	ltpFR	7	n/a	n/a	n/a	n/a	n/a	n/a	n/a	n/a	n/a	n/a	n/a	n/a	n/a	n/a	n/a	n/a
1835324	WORD	wordpools/wasnorm_wordpool.txt	LTP112	ltpFR	7	6	1	TOASTER	1472	n/a	n/a	0	n/a	0	0	0	0.57763671875	0.412841796875	1	upper	zerothre.ttf
1838331	START	n/a	LTP112	ltpFR	7	n/a	n/a	n/a	n/a	n/a	n/a	n/a	n/a	n/a	n/a	n/a	n/a	n/a	n/a	n/a	n/a
1839214	PROB	n/a	LTP112	ltpFR	7	n/a	n/a	n/a	n/a	n/a	n/a	n/a	15	2	7	6	n/a	n/a	n/a	n/a	n/a
1841929	PROB	n/a	LTP112	ltpFR	7	n/a	n/a	n/a	n/a	n/a	n/a	n/a	13	1	4	8	n/a	n/a	n/a	n/a	n/a
1843969	PROB	n/a	LTP112	ltpFR	7	n/a	n/a	n/a	n/a	n/a	n/a	n/a	14	7	6	1	n/a	n/a	n/a	n/a	n/a
1845314	STOP	n/a	LTP112	ltpFR	7	n/a	n/a	n/a	n/a	n/a	n/a	n/a	n/a	n/a	n/a	n/a	n/a	n/a	n/a	n/a	n/a
1847261	WORD	wordpools/wasnorm_wordpool.txt	LTP112	ltpFR	7	6	1	HERB	704	n/a	n/a	1	n/a	0	0	0	0.57763671875	0.412841796875	1	upper	zerothre.ttf
1850269	START	n/a	LTP112	ltpFR	7	n/a	n/a	n/a	n/a	n/a	n/a	n/a	n/a	n/a	n/a	n/a	n/a	n/a	n/a	n/a	n/a
1851309	PROB	n/a	LTP112	ltpFR	7	n/a	n/a	n/a	n/a	n/a	n/a	n/a	4	1	5	1	n/a	n/a	n/a	n/a	n/a
1852750	PROB	n/a	LTP112	ltpFR	7	n/a	n/a	n/a	n/a	n/a	n/a	n/a	15	7	5	3	n/a	n/a	n/a	n/a	n/a
1854907	PROB	n/a	LTP112	ltpFR	7	n/a	n/a	n/a	n/a	n/a	n/a	n/a	22	7	9	6	n/a	n/a	n/a	n/a	n/a
1856825	STOP	n/a	LTP112	ltpFR	7	n/a	n/a	n/a	n/a	n/a	n/a	n/a	n/a	n/a	n/a	n/a	n/a	n/a	n/a	n/a	n/a
1859382	WORD	wordpools/wasnorm_wordpool.txt	LTP112	ltpFR	7	6	1	PIMPLE	1071	n/a	n/a	1	n/a	0	0	0	0.57763671875	0.412841796875	1	upper	zerothre.ttf
1862389	START	n/a	LTP112	ltpFR	7	n/a	n/a	n/a	n/a	n/a	n/a	n/a	n/a	n/a	n/a	n/a	n/a	n/a	n/a	n/a	n/a
1863572	PROB	n/a	LTP112	ltpFR	7	n/a	n/a	n/a	n/a	n/a	n/a	n/a	433	4	2	1	n/a	n/a	n/a	n/a	n/a
1867271	PROB	n/a	LTP112	ltpFR	7	n/a	n/a	n/a	n/a	n/a	n/a	n/a	11	5	2	4	n/a	n/a	n/a	n/a	n/a
1869546	STOP	n/a	LTP112	ltpFR	7	n/a	n/a	n/a	n/a	n/a	n/a	n/a	n/a	n/a	n/a	n/a	n/a	n/a	n/a	n/a	n/a
1871561	WORD	wordpools/wasnorm_wordpool.txt	LTP112	ltpFR	7	6	1	BOARD	143	n/a	n/a	0	n/a	0	0	0	0.57763671875	0.412841796875	1	upper	zerothre.ttf
1874568	START	n/a	LTP112	ltpFR	7	n/a	n/a	n/a	n/a	n/a	n/a	n/a	n/a	n/a	n/a	n/a	n/a	n/a	n/a	n/a	n/a
1875617	PROB	n/a	LTP112	ltpFR	7	n/a	n/a	n/a	n/a	n/a	n/a	n/a	9	1	6	2	n/a	n/a	n/a	n/a	n/a
1877949	PROB	n/a	LTP112	ltpFR	7	n/a	n/a	n/a	n/a	n/a	n/a	n/a	5	3	1	1	n/a	n/a	n/a	n/a	n/a
1882567	STOP	n/a	LTP112	ltpFR	7	n/a	n/a	n/a	n/a	n/a	n/a	n/a	n/a	n/a	n/a	n/a	n/a	n/a	n/a	n/a	n/a
1884357	REC_START	n/a	LTP112	ltpFR	7	6	n/a	n/a	n/a	n/a	n/a	n/a	n/a	0	0	0	n/a	n/a	n/a	n/a	n/a
1886018	REC_WORD	wordpools/wasnorm_wordpool.txt	LTP112	ltpFR	7	6	1	REFRIGERATOR	1179	n/a	n/a	0	n/a	0	0	0	n/a	n/a	n/a	n/a	n/a
1887540	REC_WORD	wordpools/wasnorm_wordpool.txt	LTP112	ltpFR	7	6	1	BIRD	129	n/a	n/a	3	n/a	0	0	0	n/a	n/a	n/a	n/a	n/a
1890667	REC_WORD	wordpools/wasnorm_wordpool.txt	LTP112	ltpFR	7	6	1	DISHWASHER	475	n/a	n/a	0	n/a	0	0	0	n/a	n/a	n/a	n/a	n/a
1964578	WORD	wordpools/wasnorm_wordpool.txt	LTP112	ltpFR	7	7	0	RADIATOR	1156	n/a	n/a	0	n/a	0	0	0	0.422607421875	0.5869140625	0	lower	amplitud.ttf
1968443	WORD	wordpools/wasnorm_wordpool.txt	LTP112	ltpFR	7	7	0	SICKLE	1302	n/a	n/a	0	n/a	0	0	0	0.422607421875	0.5869140625	0	lower	amplitud.ttf
1972433	WORD	wordpools/wasnorm_wordpool.txt	LTP112	ltpFR	7	7	0	TRAIN	1494	n/a	n/a	1	n/a	0	0	0	0.422607421875	0.5869140625	0	lower	amplitud.ttf
1976374	WORD	wordpools/wasnorm_wordpool.txt	LTP112	ltpFR	7	7	0	MEDAL	885	n/a	n/a	0	n/a	0	0	0	0.422607421875	0.5869140625	0	lower	amplitud.ttf
1980439	WORD	wordpools/wasnorm_wordpool.txt	LTP112	ltpFR	7	7	0	OMELET	976	n/a	n/a	0	n/a	0	0	0	0.422607421875	0.5869140625	0	lower	amplitud.ttf
1984421	WORD	wordpools/wasnorm_wordpool.txt	LTP112	ltpFR	7	7	0	COMPANION	357	n/a	n/a	1	n/a	0	0	0	0.422607421875	0.5869140625	0	lower	amplitud.ttf
1988236	WORD	wordpools/wasnorm_wordpool.txt	LTP112	ltpFR	7	7	0	PADDING	999	n/a	n/a	0	n/a	0	0	0	0.422607421875	0.5869140625	0	lower	amplitud.ttf
1992243	WORD	wordpools/wasnorm_wordpool.txt	LTP112	ltpFR	7	7	0	LOFT	840	n/a	n/a	1	n/a	0	0	0	0.422607421875	0.5869140625	0	lower	amplitud.ttf
1996250	WORD	wordpools/wasnorm_wordpool.txt	LTP112	ltpFR	7	7	0	GUITAR	670	n/a	n/a	1	n/a	0	0	0	0.422607421875	0.5869140625	0	lower	amplitud.ttf
2000290	WORD	wordpools/wasnorm_wordpool.txt	LTP112	ltpFR	7	7	0	KITE	779	n/a	n/a	1	n/a	0	0	0	0.422607421875	0.5869140625	0	lower	amplitud.ttf
2004314	WORD	wordpools/wasnorm_wordpool.txt	LTP112	ltpFR	7	7	0	PASSENGER	1020	n/a	n/a	1	n/a	0	0	0	0.422607421875	0.5869140625	0	lower	amplitud.ttf
2008321	WORD	wordpools/wasnorm_wordpool.txt	LTP112	ltpFR	7	7	0	CABOOSE	214	n/a	n/a	1	n/a	0	0	0	0.422607421875	0.5869140625	0	lower	amplitud.ttf
2012427	WORD	wordpools/wasnorm_wordpool.txt	LTP112	ltpFR	7	7	0	FINGERNAIL	568	n/a	n/a	0	n/a	0	0	0	0.422607421875	0.5869140625	0	lower	amplitud.ttf
2016359	WORD	wordpools/wasnorm_wordpool.txt	LTP112	ltpFR	7	7	0	CLIMBER	323	n/a	n/a	1	n/a	0	0	0	0.422607421875	0.5869140625	0	lower	amplitud.ttf
2020550	WORD	wordpools/wasnorm_wordpool.txt	LTP112	ltpFR	7	7	0	AUTHOR	61	n/a	n/a	1	n/a	0	0	0	0.422607421875	0.5869140625	0	lower	amplitud.ttf
2024465	WORD	wordpools/wasnorm_wordpool.txt	LTP112	ltpFR	7	7	0	ENCYCLOPEDIA	533	n/a	n/a	1	n/a	0	0	0	0.422607421875	0.5869140625	0	lower	amplitud.ttf
2030330	REC_START	n/a	LTP112	ltpFR	7	7	n/a	n/a	n/a	n/a	n/a	n/a	n/a	0	0	0	n/a	n/a	n/a	n/a	n/a
2031248	REC_WORD	wordpools/wasnorm_wordpool.txt	LTP112	ltpFR	7	7	0	ENCYCLOPEDIA	533	n/a	n/a	1	n/a	0	0	0	n/a	n/a	n/a	n/a	n/a
2039284	REC_WORD	wordpools/wasnorm_wordpool.txt	LTP112	ltpFR	7	7	1	DICTIONARY	463	n/a	n/a	0	n/a	0	0	0	n/a	n/a	n/a	n/a	n/a
2041998	REC_WORD	wordpools/wasnorm_wordpool.txt	LTP112	ltpFR	7	7	0	CABOOSE	214	n/a	n/a	1	n/a	0	0	0	n/a	n/a	n/a	n/a	n/a
2042393	REC_WORD	wordpools/wasnorm_wordpool.txt	LTP112	ltpFR	7	7	0	TRAIN	1494	n/a	n/a	1	n/a	0	0	0	n/a	n/a	n/a	n/a	n/a
2044019	REC_WORD	wordpools/wasnorm_wordpool.txt	LTP112	ltpFR	7	7	0	FINGERNAIL	568	n/a	n/a	0	n/a	0	0	0	n/a	n/a	n/a	n/a	n/a
2110484	WORD	wordpools/wasnorm_wordpool.txt	LTP112	ltpFR	7	8	0	LAGOON	795	n/a	n/a	1	n/a	0	0	0	0.422607421875	0.5869140625	0	lower	amplitud.ttf
2114483	WORD	wordpools/wasnorm_wordpool.txt	LTP112	ltpFR	7	8	0	TIDE	1465	n/a	n/a	1	n/a	0	0	0	0.422607421875	0.5869140625	0	lower	amplitud.ttf
2118639	WORD	wordpools/wasnorm_wordpool.txt	LTP112	ltpFR	7	8	0	CREVICE	405	n/a	n/a	1	n/a	0	0	0	0.422607421875	0.5869140625	0	lower	amplitud.ttf
2122555	WORD	wordpools/wasnorm_wordpool.txt	LTP112	ltpFR	7	8	0	BROOK	177	n/a	n/a	1	n/a	0	0	0	0.422607421875	0.5869140625	0	lower	amplitud.ttf
2126537	WORD	wordpools/wasnorm_wordpool.txt	LTP112	ltpFR	7	8	0	CRATER	400	n/a	n/a	0	n/a	0	0	0	0.422607421875	0.5869140625	0	lower	amplitud.ttf
2130544	WORD	wordpools/wasnorm_wordpool.txt	LTP112	ltpFR	7	8	0	PATIENT	1024	n/a	n/a	1	n/a	0	0	0	0.422607421875	0.5869140625	0	lower	amplitud.ttf
2134592	WORD	wordpools/wasnorm_wordpool.txt	LTP112	ltpFR	7	8	0	ACID	2	n/a	n/a	0	n/a	0	0	0	0.422607421875	0.5869140625	0	lower	amplitud.ttf
2138416	WORD	wordpools/wasnorm_wordpool.txt	LTP112	ltpFR	7	8	0	ICING	732	n/a	n/a	0	n/a	0	0	0	0.422607421875	0.5869140625	0	lower	amplitud.ttf
2142231	WORD	wordpools/wasnorm_wordpool.txt	LTP112	ltpFR	7	8	0	CREAM	402	n/a	n/a	0	n/a	0	0	0	0.422607421875	0.5869140625	0	lower	amplitud.ttf
2146413	WORD	wordpools/wasnorm_wordpool.txt	LTP112	ltpFR	7	8	0	SURGEON	1413	n/a	n/a	1	n/a	0	0	0	0.422607421875	0.5869140625	0	lower	amplitud.ttf
2150412	WORD	wordpools/wasnorm_wordpool.txt	LTP112	ltpFR	7	8	0	HAIL	676	n/a	n/a	0	n/a	0	0	0	0.422607421875	0.5869140625	0	lower	amplitud.ttf
2154452	WORD	wordpools/wasnorm_wordpool.txt	LTP112	ltpFR	7	8	0	SPRINKLE	1359	n/a	n/a	0	n/a	0	0	0	0.422607421875	0.5869140625	0	lower	amplitud.ttf
2158376	WORD	wordpools/wasnorm_wordpool.txt	LTP112	ltpFR	7	8	0	DOLLAR	482	n/a	n/a	1	n/a	0	0	0	0.422607421875	0.5869140625	0	lower	amplitud.ttf
2162308	WORD	wordpools/wasnorm_wordpool.txt	LTP112	ltpFR	7	8	0	TUBE	1516	n/a	n/a	0	n/a	0	0	0	0.422607421875	0.5869140625	0	lower	amplitud.ttf
2166365	WORD	wordpools/wasnorm_wordpool.txt	LTP112	ltpFR	7	8	0	PLIERS	1089	n/a	n/a	0	n/a	0	0	0	0.422607421875	0.5869140625	0	lower	amplitud.ttf
2170271	WORD	wordpools/wasnorm_wordpool.txt	LTP112	ltpFR	7	8	0	JOKER	759	n/a	n/a	1	n/a	0	0	0	0.422607421875	0.5869140625	0	lower	amplitud.ttf
2173279	START	n/a	LTP112	ltpFR	7	n/a	n/a	n/a	n/a	n/a	n/a	n/a	n/a	n/a	n/a	n/a	n/a	n/a	n/a	n/a	n/a
2174328	PROB	n/a	LTP112	ltpFR	7	n/a	n/a	n/a	n/a	n/a	n/a	n/a	20	6	5	9	n/a	n/a	n/a	n/a	n/a
2178160	PROB	n/a	LTP112	ltpFR	7	n/a	n/a	n/a	n/a	n/a	n/a	n/a	15	2	6	7	n/a	n/a	n/a	n/a	n/a
2180235	PROB	n/a	LTP112	ltpFR	7	n/a	n/a	n/a	n/a	n/a	n/a	n/a	4	1	2	1	n/a	n/a	n/a	n/a	n/a
2181758	PROB	n/a	LTP112	ltpFR	7	n/a	n/a	n/a	n/a	n/a	n/a	n/a	14	4	4	6	n/a	n/a	n/a	n/a	n/a
2182924	PROB	n/a	LTP112	ltpFR	7	n/a	n/a	n/a	n/a	n/a	n/a	n/a	23	8	7	7	n/a	n/a	n/a	n/a	n/a
2185158	PROB	n/a	LTP112	ltpFR	7	n/a	n/a	n/a	n/a	n/a	n/a	n/a	21	9	9	3	n/a	n/a	n/a	n/a	n/a
2186840	PROB	n/a	LTP112	ltpFR	7	n/a	n/a	n/a	n/a	n/a	n/a	n/a	16	3	8	5	n/a	n/a	n/a	n/a	n/a
2189066	STOP	n/a	LTP112	ltpFR	7	n/a	n/a	n/a	n/a	n/a	n/a	n/a	n/a	n/a	n/a	n/a	n/a	n/a	n/a	n/a	n/a
2191182	REC_START	n/a	LTP112	ltpFR	7	8	n/a	n/a	n/a	n/a	n/a	n/a	n/a	0	0	0	n/a	n/a	n/a	n/a	n/a
2193641	REC_WORD	wordpools/wasnorm_wordpool.txt	LTP112	ltpFR	7	8	0	SURGEON	1413	n/a	n/a	1	n/a	0	0	0	n/a	n/a	n/a	n/a	n/a
2194629	REC_WORD	wordpools/wasnorm_wordpool.txt	LTP112	ltpFR	7	8	0	CREVICE	405	n/a	n/a	1	n/a	0	0	0	n/a	n/a	n/a	n/a	n/a
2280441	WORD	wordpools/wasnorm_wordpool.txt	LTP112	ltpFR	7	9	0	CABBAGE	210	n/a	n/a	0	n/a	0	0	0	0.422607421875	0.5869140625	0	lower	amplitud.ttf
2284398	WORD	wordpools/wasnorm_wordpool.txt	LTP112	ltpFR	7	9	0	SENATE	1267	n/a	n/a	1	n/a	0	0	0	0.422607421875	0.5869140625	0	lower	amplitud.ttf
2288271	WORD	wordpools/wasnorm_wordpool.txt	LTP112	ltpFR	7	9	0	SENATOR	1268	n/a	n/a	1	n/a	0	0	0	0.422607421875	0.5869140625	0	lower	amplitud.ttf
2292378	WORD	wordpools/wasnorm_wordpool.txt	LTP112	ltpFR	7	9	0	CABIN	211	n/a	n/a	1	n/a	0	0	0	0.422607421875	0.5869140625	0	lower	amplitud.ttf
2296369	WORD	wordpools/wasnorm_wordpool.txt	LTP112	ltpFR	7	9	0	FROST	609	n/a	n/a	0	n/a	0	0	0	0.422607421875	0.5869140625	0	lower	amplitud.ttf
2300350	WORD	wordpools/wasnorm_wordpool.txt	LTP112	ltpFR	7	9	0	VEAL	1551	n/a	n/a	1	n/a	0	0	0	0.422607421875	0.5869140625	0	lower	amplitud.ttf
2304249	WORD	wordpools/wasnorm_wordpool.txt	LTP112	ltpFR	7	9	0	VEST	1559	n/a	n/a	0	n/a	0	0	0	0.422607421875	0.5869140625	0	lower	amplitud.ttf
2308123	WORD	wordpools/wasnorm_wordpool.txt	LTP112	ltpFR	7	9	0	LINT	826	n/a	n/a	0	n/a	0	0	0	0.422607421875	0.5869140625	0	lower	amplitud.ttf
2312254	WORD	wordpools/wasnorm_wordpool.txt	LTP112	ltpFR	7	9	0	BANQUET	86	n/a	n/a	0	n/a	0	0	0	0.422607421875	0.5869140625	0	lower	amplitud.ttf
2316186	WORD	wordpools/wasnorm_wordpool.txt	LTP112	ltpFR	7	9	0	JAW	751	n/a	n/a	0	n/a	0	0	0	0.422607421875	0.5869140625	0	lower	amplitud.ttf
2320293	WORD	wordpools/wasnorm_wordpool.txt	LTP112	ltpFR	7	9	0	SHARK	1275	n/a	n/a	1	n/a	0	0	0	0.422607421875	0.5869140625	0	lower	amplitud.ttf
2324317	WORD	wordpools/wasnorm_wordpool.txt	LTP112	ltpFR	7	9	0	PRINTER	1126	n/a	n/a	1	n/a	0	0	0	0.422607421875	0.5869140625	0	lower	amplitud.ttf
2328474	WORD	wordpools/wasnorm_wordpool.txt	LTP112	ltpFR	7	9	0	IGLOO	734	n/a	n/a	1	n/a	0	0	0	0.422607421875	0.5869140625	0	lower	amplitud.ttf
2332464	WORD	wordpools/wasnorm_wordpool.txt	LTP112	ltpFR	7	9	0	TIMBER	1469	n/a	n/a	1	n/a	0	0	0	0.422607421875	0.5869140625	0	lower	amplitud.ttf
2336379	WORD	wordpools/wasnorm_wordpool.txt	LTP112	ltpFR	7	9	0	MONKEY	911	n/a	n/a	1	n/a	0	0	0	0.422607421875	0.5869140625	0	lower	amplitud.ttf
2340345	WORD	wordpools/wasnorm_wordpool.txt	LTP112	ltpFR	7	9	0	NECKLACE	940	n/a	n/a	0	n/a	0	0	0	0.422607421875	0.5869140625	0	lower	amplitud.ttf
2343352	START	n/a	LTP112	ltpFR	7	n/a	n/a	n/a	n/a	n/a	n/a	n/a	n/a	n/a	n/a	n/a	n/a	n/a	n/a	n/a	n/a
2344368	PROB	n/a	LTP112	ltpFR	7	n/a	n/a	n/a	n/a	n/a	n/a	n/a	18	4	6	8	n/a	n/a	n/a	n/a	n/a
2347559	PROB	n/a	LTP112	ltpFR	7	n/a	n/a	n/a	n/a	n/a	n/a	n/a	10	5	3	2	n/a	n/a	n/a	n/a	n/a
2349291	PROB	n/a	LTP112	ltpFR	7	n/a	n/a	n/a	n/a	n/a	n/a	n/a	4	2	1	1	n/a	n/a	n/a	n/a	n/a
2350578	STOP	n/a	LTP112	ltpFR	7	n/a	n/a	n/a	n/a	n/a	n/a	n/a	n/a	n/a	n/a	n/a	n/a	n/a	n/a	n/a	n/a
2353141	REC_START	n/a	LTP112	ltpFR	7	9	n/a	n/a	n/a	n/a	n/a	n/a	n/a	0	0	0	n/a	n/a	n/a	n/a	n/a
2354832	REC_WORD	wordpools/wasnorm_wordpool.txt	LTP112	ltpFR	7	9	0	IGLOO	734	n/a	n/a	1	n/a	0	0	0	n/a	n/a	n/a	n/a	n/a
2356443	REC_WORD	wordpools/wasnorm_wordpool.txt	LTP112	ltpFR	7	9	0	CABBAGE	210	n/a	n/a	0	n/a	0	0	0	n/a	n/a	n/a	n/a	n/a
2359910	REC_WORD	wordpools/wasnorm_wordpool.txt	LTP112	ltpFR	7	9	0	SENATOR	1268	n/a	n/a	1	n/a	0	0	0	n/a	n/a	n/a	n/a	n/a
2360515	REC_WORD	wordpools/wasnorm_wordpool.txt	LTP112	ltpFR	7	9	0	SENATE	1267	n/a	n/a	1	n/a	0	0	0	n/a	n/a	n/a	n/a	n/a
2401032	REC_WORD	wordpools/wasnorm_wordpool.txt	LTP112	ltpFR	7	9	0	BANQUET	86	n/a	n/a	0	n/a	0	0	0	n/a	n/a	n/a	n/a	n/a
2431421	START	n/a	LTP112	ltpFR	7	n/a	n/a	n/a	n/a	n/a	n/a	n/a	n/a	n/a	n/a	n/a	n/a	n/a	n/a	n/a	n/a
2432927	PROB	n/a	LTP112	ltpFR	7	n/a	n/a	n/a	n/a	n/a	n/a	n/a	18	6	9	3	n/a	n/a	n/a	n/a	n/a
2435353	PROB	n/a	LTP112	ltpFR	7	n/a	n/a	n/a	n/a	n/a	n/a	n/a	14	5	6	3	n/a	n/a	n/a	n/a	n/a
2437260	PROB	n/a	LTP112	ltpFR	7	n/a	n/a	n/a	n/a	n/a	n/a	n/a	8	1	2	5	n/a	n/a	n/a	n/a	n/a
2438873	STOP	n/a	LTP112	ltpFR	7	n/a	n/a	n/a	n/a	n/a	n/a	n/a	n/a	n/a	n/a	n/a	n/a	n/a	n/a	n/a	n/a
2440526	WORD	wordpools/wasnorm_wordpool.txt	LTP112	ltpFR	7	10	1	LEG	809	n/a	n/a	1	n/a	0	0	0	0.57763671875	0.412841796875	1	upper	zerothre.ttf
2443533	START	n/a	LTP112	ltpFR	7	n/a	n/a	n/a	n/a	n/a	n/a	n/a	n/a	n/a	n/a	n/a	n/a	n/a	n/a	n/a	n/a
2444349	PROB	n/a	LTP112	ltpFR	7	n/a	n/a	n/a	n/a	n/a	n/a	n/a	13	7	2	4	n/a	n/a	n/a	n/a	n/a
2447157	PROB	n/a	LTP112	ltpFR	7	n/a	n/a	n/a	n/a	n/a	n/a	n/a	6	5	2	2	n/a	n/a	n/a	n/a	n/a
2448630	PROB	n/a	LTP112	ltpFR	7	n/a	n/a	n/a	n/a	n/a	n/a	n/a	15	6	3	6	n/a	n/a	n/a	n/a	n/a
2450586	STOP	n/a	LTP112	ltpFR	7	n/a	n/a	n/a	n/a	n/a	n/a	n/a	n/a	n/a	n/a	n/a	n/a	n/a	n/a	n/a	n/a
2452555	WORD	wordpools/wasnorm_wordpool.txt	LTP112	ltpFR	7	10	1	ELM	527	n/a	n/a	1	n/a	0	0	0	0.57763671875	0.412841796875	1	upper	zerothre.ttf
2455563	START	n/a	LTP112	ltpFR	7	n/a	n/a	n/a	n/a	n/a	n/a	n/a	n/a	n/a	n/a	n/a	n/a	n/a	n/a	n/a	n/a
2456503	PROB	n/a	LTP112	ltpFR	7	n/a	n/a	n/a	n/a	n/a	n/a	n/a	14	4	3	7	n/a	n/a	n/a	n/a	n/a
2457719	PROB	n/a	LTP112	ltpFR	7	n/a	n/a	n/a	n/a	n/a	n/a	n/a	13	8	3	5	n/a	n/a	n/a	n/a	n/a
2459569	PROB	n/a	LTP112	ltpFR	7	n/a	n/a	n/a	n/a	n/a	n/a	n/a	16	1	7	8	n/a	n/a	n/a	n/a	n/a
2461268	PROB	n/a	LTP112	ltpFR	7	n/a	n/a	n/a	n/a	n/a	n/a	n/a	17	5	4	8	n/a	n/a	n/a	n/a	n/a
2463122	STOP	n/a	LTP112	ltpFR	7	n/a	n/a	n/a	n/a	n/a	n/a	n/a	n/a	n/a	n/a	n/a	n/a	n/a	n/a	n/a	n/a
2464616	WORD	wordpools/wasnorm_wordpool.txt	LTP112	ltpFR	7	10	1	MONGOOSE	909	n/a	n/a	1	n/a	0	0	0	0.57763671875	0.412841796875	1	upper	zerothre.ttf
2467624	START	n/a	LTP112	ltpFR	7	n/a	n/a	n/a	n/a	n/a	n/a	n/a	n/a	n/a	n/a	n/a	n/a	n/a	n/a	n/a	n/a
2468781	PROB	n/a	LTP112	ltpFR	7	n/a	n/a	n/a	n/a	n/a	n/a	n/a	13	1	5	7	n/a	n/a	n/a	n/a	n/a
2470465	PROB	n/a	LTP112	ltpFR	7	n/a	n/a	n/a	n/a	n/a	n/a	n/a	24	9	6	7	n/a	n/a	n/a	n/a	n/a
2475623	STOP	n/a	LTP112	ltpFR	7	n/a	n/a	n/a	n/a	n/a	n/a	n/a	n/a	n/a	n/a	n/a	n/a	n/a	n/a	n/a	n/a
2476820	WORD	wordpools/wasnorm_wordpool.txt	LTP112	ltpFR	7	10	1	POSSUM	1112	n/a	n/a	1	n/a	0	0	0	0.57763671875	0.412841796875	1	upper	zerothre.ttf
2479828	START	n/a	LTP112	ltpFR	7	n/a	n/a	n/a	n/a	n/a	n/a	n/a	n/a	n/a	n/a	n/a	n/a	n/a	n/a	n/a	n/a
2480744	PROB	n/a	LTP112	ltpFR	7	n/a	n/a	n/a	n/a	n/a	n/a	n/a	12	6	2	5	n/a	n/a	n/a	n/a	n/a
2482910	PROB	n/a	LTP112	ltpFR	7	n/a	n/a	n/a	n/a	n/a	n/a	n/a	13	7	2	4	n/a	n/a	n/a	n/a	n/a
2484951	PROB	n/a	LTP112	ltpFR	7	n/a	n/a	n/a	n/a	n/a	n/a	n/a	13	8	3	2	n/a	n/a	n/a	n/a	n/a
2486514	STOP	n/a	LTP112	ltpFR	7	n/a	n/a	n/a	n/a	n/a	n/a	n/a	n/a	n/a	n/a	n/a	n/a	n/a	n/a	n/a	n/a
2488666	WORD	wordpools/wasnorm_wordpool.txt	LTP112	ltpFR	7	10	1	BULLET	194	n/a	n/a	0	n/a	0	0	0	0.57763671875	0.412841796875	1	upper	zerothre.ttf
2491674	START	n/a	LTP112	ltpFR	7	n/a	n/a	n/a	n/a	n/a	n/a	n/a	n/a	n/a	n/a	n/a	n/a	n/a	n/a	n/a	n/a
2492507	PROB	n/a	LTP112	ltpFR	7	n/a	n/a	n/a	n/a	n/a	n/a	n/a	58	3	1	4	n/a	n/a	n/a	n/a	n/a
2494532	PROB	n/a	LTP112	ltpFR	7	n/a	n/a	n/a	n/a	n/a	n/a	n/a	11	1	9	1	n/a	n/a	n/a	n/a	n/a
2495980	PROB	n/a	LTP112	ltpFR	7	n/a	n/a	n/a	n/a	n/a	n/a	n/a	19	9	7	3	n/a	n/a	n/a	n/a	n/a
2499673	STOP	n/a	LTP112	ltpFR	7	n/a	n/a	n/a	n/a	n/a	n/a	n/a	n/a	n/a	n/a	n/a	n/a	n/a	n/a	n/a	n/a
2500513	WORD	wordpools/wasnorm_wordpool.txt	LTP112	ltpFR	7	10	1	CONE	363	n/a	n/a	0	n/a	0	0	0	0.57763671875	0.412841796875	1	upper	zerothre.ttf
2503521	START	n/a	LTP112	ltpFR	7	n/a	n/a	n/a	n/a	n/a	n/a	n/a	n/a	n/a	n/a	n/a	n/a	n/a	n/a	n/a	n/a
2504685	PROB	n/a	LTP112	ltpFR	7	n/a	n/a	n/a	n/a	n/a	n/a	n/a	15	2	6	7	n/a	n/a	n/a	n/a	n/a
2506693	PROB	n/a	LTP112	ltpFR	7	n/a	n/a	n/a	n/a	n/a	n/a	n/a	12	6	2	4	n/a	n/a	n/a	n/a	n/a
2508609	PROB	n/a	LTP112	ltpFR	7	n/a	n/a	n/a	n/a	n/a	n/a	n/a	24	8	8	8	n/a	n/a	n/a	n/a	n/a
2511274	STOP	n/a	LTP112	ltpFR	7	n/a	n/a	n/a	n/a	n/a	n/a	n/a	n/a	n/a	n/a	n/a	n/a	n/a	n/a	n/a	n/a
2512584	WORD	wordpools/wasnorm_wordpool.txt	LTP112	ltpFR	7	10	1	CATCHER	258	n/a	n/a	1	n/a	0	0	0	0.57763671875	0.412841796875	1	upper	zerothre.ttf
2515591	START	n/a	LTP112	ltpFR	7	n/a	n/a	n/a	n/a	n/a	n/a	n/a	n/a	n/a	n/a	n/a	n/a	n/a	n/a	n/a	n/a
2516623	PROB	n/a	LTP112	ltpFR	7	n/a	n/a	n/a	n/a	n/a	n/a	n/a	18	3	6	9	n/a	n/a	n/a	n/a	n/a
2519597	PROB	n/a	LTP112	ltpFR	7	n/a	n/a	n/a	n/a	n/a	n/a	n/a	6	2	2	2	n/a	n/a	n/a	n/a	n/a
2520855	PROB	n/a	LTP112	ltpFR	7	n/a	n/a	n/a	n/a	n/a	n/a	n/a	7	2	2	3	n/a	n/a	n/a	n/a	n/a
2522546	STOP	n/a	LTP112	ltpFR	7	n/a	n/a	n/a	n/a	n/a	n/a	n/a	n/a	n/a	n/a	n/a	n/a	n/a	n/a	n/a	n/a
2524753	WORD	wordpools/wasnorm_wordpool.txt	LTP112	ltpFR	7	10	1	DOLL	481	n/a	n/a	0	n/a	0	0	0	0.57763671875	0.412841796875	1	upper	zerothre.ttf
2527761	START	n/a	LTP112	ltpFR	7	n/a	n/a	n/a	n/a	n/a	n/a	n/a	n/a	n/a	n/a	n/a	n/a	n/a	n/a	n/a	n/a
2528744	PROB	n/a	LTP112	ltpFR	7	n/a	n/a	n/a	n/a	n/a	n/a	n/a	16	7	2	7	n/a	n/a	n/a	n/a	n/a
2530834	PROB	n/a	LTP112	ltpFR	7	n/a	n/a	n/a	n/a	n/a	n/a	n/a	17	6	9	2	n/a	n/a	n/a	n/a	n/a
2532975	PROB	n/a	LTP112	ltpFR	7	n/a	n/a	n/a	n/a	n/a	n/a	n/a	15	5	5	5	n/a	n/a	n/a	n/a	n/a
2534201	PROB	n/a	LTP112	ltpFR	7	n/a	n/a	n/a	n/a	n/a	n/a	n/a	17	1	9	7	n/a	n/a	n/a	n/a	n/a
2535394	STOP	n/a	LTP112	ltpFR	7	n/a	n/a	n/a	n/a	n/a	n/a	n/a	n/a	n/a	n/a	n/a	n/a	n/a	n/a	n/a	n/a
2536957	WORD	wordpools/wasnorm_wordpool.txt	LTP112	ltpFR	7	10	1	TOWEL	1489	n/a	n/a	0	n/a	0	0	0	0.57763671875	0.412841796875	1	upper	zerothre.ttf
2539965	START	n/a	LTP112	ltpFR	7	n/a	n/a	n/a	n/a	n/a	n/a	n/a	n/a	n/a	n/a	n/a	n/a	n/a	n/a	n/a	n/a
2541032	PROB	n/a	LTP112	ltpFR	7	n/a	n/a	n/a	n/a	n/a	n/a	n/a	9	2	5	2	n/a	n/a	n/a	n/a	n/a
2543089	PROB	n/a	LTP112	ltpFR	7	n/a	n/a	n/a	n/a	n/a	n/a	n/a	15	4	9	2	n/a	n/a	n/a	n/a	n/a
2545039	PROB	n/a	LTP112	ltpFR	7	n/a	n/a	n/a	n/a	n/a	n/a	n/a	10	8	1	1	n/a	n/a	n/a	n/a	n/a
2547965	STOP	n/a	LTP112	ltpFR	7	n/a	n/a	n/a	n/a	n/a	n/a	n/a	n/a	n/a	n/a	n/a	n/a	n/a	n/a	n/a	n/a
2549046	WORD	wordpools/wasnorm_wordpool.txt	LTP112	ltpFR	7	10	1	BUBBLE	183	n/a	n/a	0	n/a	0	0	0	0.57763671875	0.412841796875	1	upper	zerothre.ttf
2552053	START	n/a	LTP112	ltpFR	7	n/a	n/a	n/a	n/a	n/a	n/a	n/a	n/a	n/a	n/a	n/a	n/a	n/a	n/a	n/a	n/a
2552868	PROB	n/a	LTP112	ltpFR	7	n/a	n/a	n/a	n/a	n/a	n/a	n/a	11	2	6	3	n/a	n/a	n/a	n/a	n/a
2554634	PROB	n/a	LTP112	ltpFR	7	n/a	n/a	n/a	n/a	n/a	n/a	n/a	22	9	6	7	n/a	n/a	n/a	n/a	n/a
2560053	STOP	n/a	LTP112	ltpFR	7	n/a	n/a	n/a	n/a	n/a	n/a	n/a	n/a	n/a	n/a	n/a	n/a	n/a	n/a	n/a	n/a
2560865	WORD	wordpools/wasnorm_wordpool.txt	LTP112	ltpFR	7	10	1	PADDLE	1000	n/a	n/a	0	n/a	0	0	0	0.57763671875	0.412841796875	1	upper	zerothre.ttf
2563873	START	n/a	LTP112	ltpFR	7	n/a	n/a	n/a	n/a	n/a	n/a	n/a	n/a	n/a	n/a	n/a	n/a	n/a	n/a	n/a	n/a
2564981	PROB	n/a	LTP112	ltpFR	7	n/a	n/a	n/a	n/a	n/a	n/a	n/a	22	9	9	4	n/a	n/a	n/a	n/a	n/a
2571873	STOP	n/a	LTP112	ltpFR	7	n/a	n/a	n/a	n/a	n/a	n/a	n/a	n/a	n/a	n/a	n/a	n/a	n/a	n/a	n/a	n/a
2572853	WORD	wordpools/wasnorm_wordpool.txt	LTP112	ltpFR	7	10	1	PORT	1110	n/a	n/a	0	n/a	0	0	0	0.57763671875	0.412841796875	1	upper	zerothre.ttf
2575861	START	n/a	LTP112	ltpFR	7	n/a	n/a	n/a	n/a	n/a	n/a	n/a	n/a	n/a	n/a	n/a	n/a	n/a	n/a	n/a	n/a
2576677	PROB	n/a	LTP112	ltpFR	7	n/a	n/a	n/a	n/a	n/a	n/a	n/a	10	4	3	3	n/a	n/a	n/a	n/a	n/a
2578127	PROB	n/a	LTP112	ltpFR	7	n/a	n/a	n/a	n/a	n/a	n/a	n/a	10	1	7	2	n/a	n/a	n/a	n/a	n/a
2579260	PROB	n/a	LTP112	ltpFR	7	n/a	n/a	n/a	n/a	n/a	n/a	n/a	10	5	3	2	n/a	n/a	n/a	n/a	n/a
2583861	STOP	n/a	LTP112	ltpFR	7	n/a	n/a	n/a	n/a	n/a	n/a	n/a	n/a	n/a	n/a	n/a	n/a	n/a	n/a	n/a	n/a
2584774	WORD	wordpools/wasnorm_wordpool.txt	LTP112	ltpFR	7	10	1	SHELTER	1282	n/a	n/a	0	n/a	0	0	0	0.57763671875	0.412841796875	1	upper	zerothre.ttf
2587781	START	n/a	LTP112	ltpFR	7	n/a	n/a	n/a	n/a	n/a	n/a	n/a	n/a	n/a	n/a	n/a	n/a	n/a	n/a	n/a	n/a
2588789	PROB	n/a	LTP112	ltpFR	7	n/a	n/a	n/a	n/a	n/a	n/a	n/a	14	3	8	3	n/a	n/a	n/a	n/a	n/a
2590589	PROB	n/a	LTP112	ltpFR	7	n/a	n/a	n/a	n/a	n/a	n/a	n/a	14	1	5	8	n/a	n/a	n/a	n/a	n/a
2595781	STOP	n/a	LTP112	ltpFR	7	n/a	n/a	n/a	n/a	n/a	n/a	n/a	n/a	n/a	n/a	n/a	n/a	n/a	n/a	n/a	n/a
2596703	WORD	wordpools/wasnorm_wordpool.txt	LTP112	ltpFR	7	10	1	ACORN	3	n/a	n/a	1	n/a	0	0	0	0.57763671875	0.412841796875	1	upper	zerothre.ttf
2599710	START	n/a	LTP112	ltpFR	7	n/a	n/a	n/a	n/a	n/a	n/a	n/a	n/a	n/a	n/a	n/a	n/a	n/a	n/a	n/a	n/a
2600626	PROB	n/a	LTP112	ltpFR	7	n/a	n/a	n/a	n/a	n/a	n/a	n/a	19	8	8	3	n/a	n/a	n/a	n/a	n/a
2602302	PROB	n/a	LTP112	ltpFR	7	n/a	n/a	n/a	n/a	n/a	n/a	n/a	16	3	6	7	n/a	n/a	n/a	n/a	n/a
2604134	PROB	n/a	LTP112	ltpFR	7	n/a	n/a	n/a	n/a	n/a	n/a	n/a	10	2	5	3	n/a	n/a	n/a	n/a	n/a
2606067	PROB	n/a	LTP112	ltpFR	7	n/a	n/a	n/a	n/a	n/a	n/a	n/a	11	1	7	3	n/a	n/a	n/a	n/a	n/a
2607226	STOP	n/a	LTP112	ltpFR	7	n/a	n/a	n/a	n/a	n/a	n/a	n/a	n/a	n/a	n/a	n/a	n/a	n/a	n/a	n/a	n/a
2608807	WORD	wordpools/wasnorm_wordpool.txt	LTP112	ltpFR	7	10	1	GRIZZLY	662	n/a	n/a	1	n/a	0	0	0	0.57763671875	0.412841796875	1	upper	zerothre.ttf
2611814	START	n/a	LTP112	ltpFR	7	n/a	n/a	n/a	n/a	n/a	n/a	n/a	n/a	n/a	n/a	n/a	n/a	n/a	n/a	n/a	n/a
2612889	PROB	n/a	LTP112	ltpFR	7	n/a	n/a	n/a	n/a	n/a	n/a	n/a	20	8	3	9	n/a	n/a	n/a	n/a	n/a
2615131	PROB	n/a	LTP112	ltpFR	7	n/a	n/a	n/a	n/a	n/a	n/a	n/a	14	2	8	2	n/a	n/a	n/a	n/a	n/a
2616397	PROB	n/a	LTP112	ltpFR	7	n/a	n/a	n/a	n/a	n/a	n/a	n/a	14	4	9	1	n/a	n/a	n/a	n/a	n/a
2619813	STOP	n/a	LTP112	ltpFR	7	n/a	n/a	n/a	n/a	n/a	n/a	n/a	n/a	n/a	n/a	n/a	n/a	n/a	n/a	n/a	n/a
2620744	WORD	wordpools/wasnorm_wordpool.txt	LTP112	ltpFR	7	10	1	BOXER	160	n/a	n/a	1	n/a	0	0	0	0.57763671875	0.412841796875	1	upper	zerothre.ttf
2623752	START	n/a	LTP112	ltpFR	7	n/a	n/a	n/a	n/a	n/a	n/a	n/a	n/a	n/a	n/a	n/a	n/a	n/a	n/a	n/a	n/a
2624735	PROB	n/a	LTP112	ltpFR	7	n/a	n/a	n/a	n/a	n/a	n/a	n/a	19	9	6	4	n/a	n/a	n/a	n/a	n/a
2626210	PROB	n/a	LTP112	ltpFR	7	n/a	n/a	n/a	n/a	n/a	n/a	n/a	8	1	6	1	n/a	n/a	n/a	n/a	n/a
2627642	PROB	n/a	LTP112	ltpFR	7	n/a	n/a	n/a	n/a	n/a	n/a	n/a	17	3	5	9	n/a	n/a	n/a	n/a	n/a
2631752	STOP	n/a	LTP112	ltpFR	7	n/a	n/a	n/a	n/a	n/a	n/a	n/a	n/a	n/a	n/a	n/a	n/a	n/a	n/a	n/a	n/a
2633649	REC_START	n/a	LTP112	ltpFR	7	10	n/a	n/a	n/a	n/a	n/a	n/a	n/a	0	0	0	n/a	n/a	n/a	n/a	n/a
2634477	REC_WORD	wordpools/wasnorm_wordpool.txt	LTP112	ltpFR	7	10	1	ACORN	3	n/a	n/a	1	n/a	0	0	0	n/a	n/a	n/a	n/a	n/a
2635001	REC_WORD	wordpools/wasnorm_wordpool.txt	LTP112	ltpFR	7	10	1	GRIZZLY	662	n/a	n/a	1	n/a	0	0	0	n/a	n/a	n/a	n/a	n/a
2709247	REST_REWET	n/a	LTP112	ltpFR	7	10	n/a	n/a	n/a	n/a	n/a	n/a	n/a	0	0	0	n/a	n/a	n/a	n/a	n/a
3088455	WORD	wordpools/wasnorm_wordpool.txt	LTP112	ltpFR	7	11	0	SATURN	1236	n/a	n/a	1	n/a	0	0	0	0.422607421875	0.5869140625	0	lower	amplitud.ttf
3092495	WORD	wordpools/wasnorm_wordpool.txt	LTP112	ltpFR	7	11	0	BELL	118	n/a	n/a	0	n/a	0	0	0	0.422607421875	0.5869140625	0	lower	amplitud.ttf
3096352	WORD	wordpools/wasnorm_wordpool.txt	LTP112	ltpFR	7	11	0	BASKET	95	n/a	n/a	1	n/a	0	0	0	0.422607421875	0.5869140625	0	lower	amplitud.ttf
3100225	WORD	wordpools/wasnorm_wordpool.txt	LTP112	ltpFR	7	11	0	RACKET	1155	n/a	n/a	1	n/a	0	0	0	0.422607421875	0.5869140625	0	lower	amplitud.ttf
3104274	WORD	wordpools/wasnorm_wordpool.txt	LTP112	ltpFR	7	11	0	QUAIL	1147	n/a	n/a	1	n/a	0	0	0	0.422607421875	0.5869140625	0	lower	amplitud.ttf
3108289	WORD	wordpools/wasnorm_wordpool.txt	LTP112	ltpFR	7	11	0	HAWK	692	n/a	n/a	1	n/a	0	0	0	0.422607421875	0.5869140625	0	lower	amplitud.ttf
3112413	WORD	wordpools/wasnorm_wordpool.txt	LTP112	ltpFR	7	11	0	POLYESTER	1100	n/a	n/a	0	n/a	0	0	0	0.422607421875	0.5869140625	0	lower	amplitud.ttf
3116536	WORD	wordpools/wasnorm_wordpool.txt	LTP112	ltpFR	7	11	0	DRIVEWAY	500	n/a	n/a	1	n/a	0	0	0	0.422607421875	0.5869140625	0	lower	amplitud.ttf
3120543	WORD	wordpools/wasnorm_wordpool.txt	LTP112	ltpFR	7	11	0	CHAUFFEUR	283	n/a	n/a	1	n/a	0	0	0	0.422607421875	0.5869140625	0	lower	amplitud.ttf
3124632	WORD	wordpools/wasnorm_wordpool.txt	LTP112	ltpFR	7	11	0	UNDERWEAR	1537	n/a	n/a	1	n/a	0	0	0	0.422607421875	0.5869140625	0	lower	amplitud.ttf
3128499	WORD	wordpools/wasnorm_wordpool.txt	LTP112	ltpFR	7	11	0	ROOSTER	1209	n/a	n/a	1	n/a	0	0	0	0.422607421875	0.5869140625	0	lower	amplitud.ttf
3132638	WORD	wordpools/wasnorm_wordpool.txt	LTP112	ltpFR	7	11	0	PARROT	1015	n/a	n/a	1	n/a	0	0	0	0.422607421875	0.5869140625	0	lower	amplitud.ttf
3136853	WORD	wordpools/wasnorm_wordpool.txt	LTP112	ltpFR	7	11	0	RING	1193	n/a	n/a	0	n/a	0	0	0	0.422607421875	0.5869140625	0	lower	amplitud.ttf
3140927	WORD	wordpools/wasnorm_wordpool.txt	LTP112	ltpFR	7	11	0	PEPPER	1047	n/a	n/a	0	n/a	0	0	0	0.422607421875	0.5869140625	0	lower	amplitud.ttf
3144775	WORD	wordpools/wasnorm_wordpool.txt	LTP112	ltpFR	7	11	0	TOAD	1470	n/a	n/a	0	n/a	0	0	0	0.422607421875	0.5869140625	0	lower	amplitud.ttf
3148874	WORD	wordpools/wasnorm_wordpool.txt	LTP112	ltpFR	7	11	0	MACARONI	851	n/a	n/a	0	n/a	0	0	0	0.422607421875	0.5869140625	0	lower	amplitud.ttf
3154557	REC_START	n/a	LTP112	ltpFR	7	11	n/a	n/a	n/a	n/a	n/a	n/a	n/a	0	0	0	n/a	n/a	n/a	n/a	n/a
3156288	REC_WORD	wordpools/wasnorm_wordpool.txt	LTP112	ltpFR	7	11	0	MACARONI	851	n/a	n/a	0	n/a	0	0	0	n/a	n/a	n/a	n/a	n/a
3157006	REC_WORD	wordpools/wasnorm_wordpool.txt	LTP112	ltpFR	7	11	1	TOASTER	1472	n/a	n/a	0	n/a	0	0	0	n/a	n/a	n/a	n/a	n/a
3157531	REC_WORD	wordpools/wasnorm_wordpool.txt	LTP112	ltpFR	7	11	0	ROOSTER	1209	n/a	n/a	1	n/a	0	0	0	n/a	n/a	n/a	n/a	n/a
3163696	REC_WORD	wordpools/wasnorm_wordpool.txt	LTP112	ltpFR	7	11	0	SATURN	1236	n/a	n/a	1	n/a	0	0	0	n/a	n/a	n/a	n/a	n/a
3203326	REC_WORD	wordpools/wasnorm_wordpool.txt	LTP112	ltpFR	7	11	n/a	FREEWAY	603	n/a	n/a	n/a	n/a	0	0	0	n/a	n/a	n/a	n/a	n/a
3232312	START	n/a	LTP112	ltpFR	7	n/a	n/a	n/a	n/a	n/a	n/a	n/a	n/a	n/a	n/a	n/a	n/a	n/a	n/a	n/a	n/a
3233819	PROB	n/a	LTP112	ltpFR	7	n/a	n/a	n/a	n/a	n/a	n/a	n/a	22	6	9	7	n/a	n/a	n/a	n/a	n/a
3238068	PROB	n/a	LTP112	ltpFR	7	n/a	n/a	n/a	n/a	n/a	n/a	n/a	16	5	9	2	n/a	n/a	n/a	n/a	n/a
3239800	PROB	n/a	LTP112	ltpFR	7	n/a	n/a	n/a	n/a	n/a	n/a	n/a	21	3	9	9	n/a	n/a	n/a	n/a	n/a
3242774	PROB	n/a	LTP112	ltpFR	7	n/a	n/a	n/a	n/a	n/a	n/a	n/a	13	1	6	6	n/a	n/a	n/a	n/a	n/a
3244224	PROB	n/a	LTP112	ltpFR	7	n/a	n/a	n/a	n/a	n/a	n/a	n/a	16	5	3	8	n/a	n/a	n/a	n/a	n/a
3246772	PROB	n/a	LTP112	ltpFR	7	n/a	n/a	n/a	n/a	n/a	n/a	n/a	11	6	4	1	n/a	n/a	n/a	n/a	n/a
3248042	STOP	n/a	LTP112	ltpFR	7	n/a	n/a	n/a	n/a	n/a	n/a	n/a	n/a	n/a	n/a	n/a	n/a	n/a	n/a	n/a	n/a
3249214	WORD	wordpools/wasnorm_wordpool.txt	LTP112	ltpFR	7	12	1	THERMOMETER	1453	n/a	n/a	0	n/a	0	0	0	0.57763671875	0.412841796875	1	upper	zerothre.ttf
3252222	START	n/a	LTP112	ltpFR	7	n/a	n/a	n/a	n/a	n/a	n/a	n/a	n/a	n/a	n/a	n/a	n/a	n/a	n/a	n/a	n/a
3253421	PROB	n/a	LTP112	ltpFR	7	n/a	n/a	n/a	n/a	n/a	n/a	n/a	21	4	7	7	n/a	n/a	n/a	n/a	n/a
3255362	PROB	n/a	LTP112	ltpFR	7	n/a	n/a	n/a	n/a	n/a	n/a	n/a	15	5	9	1	n/a	n/a	n/a	n/a	n/a
3256811	PROB	n/a	LTP112	ltpFR	7	n/a	n/a	n/a	n/a	n/a	n/a	n/a	16	5	9	2	n/a	n/a	n/a	n/a	n/a
3258553	PROB	n/a	LTP112	ltpFR	7	n/a	n/a	n/a	n/a	n/a	n/a	n/a	12	9	1	2	n/a	n/a	n/a	n/a	n/a
3260577	PROB	n/a	LTP112	ltpFR	7	n/a	n/a	n/a	n/a	n/a	n/a	n/a	11	4	5	2	n/a	n/a	n/a	n/a	n/a
3262151	PROB	n/a	LTP112	ltpFR	7	n/a	n/a	n/a	n/a	n/a	n/a	n/a	11	3	6	2	n/a	n/a	n/a	n/a	n/a
3263883	PROB	n/a	LTP112	ltpFR	7	n/a	n/a	n/a	n/a	n/a	n/a	n/a	8	4	3	1	n/a	n/a	n/a	n/a	n/a
3265350	PROB	n/a	LTP112	ltpFR	7	n/a	n/a	n/a	n/a	n/a	n/a	n/a	17	6	6	5	n/a	n/a	n/a	n/a	n/a
3266793	STOP	n/a	LTP112	ltpFR	7	n/a	n/a	n/a	n/a	n/a	n/a	n/a	n/a	n/a	n/a	n/a	n/a	n/a	n/a	n/a	n/a
3269365	WORD	wordpools/wasnorm_wordpool.txt	LTP112	ltpFR	7	12	1	MASK	876	n/a	n/a	0	n/a	0	0	0	0.57763671875	0.412841796875	1	upper	zerothre.ttf
3272373	START	n/a	LTP112	ltpFR	7	n/a	n/a	n/a	n/a	n/a	n/a	n/a	n/a	n/a	n/a	n/a	n/a	n/a	n/a	n/a	n/a
3273556	PROB	n/a	LTP112	ltpFR	7	n/a	n/a	n/a	n/a	n/a	n/a	n/a	18	8	4	6	n/a	n/a	n/a	n/a	n/a
3275621	PROB	n/a	LTP112	ltpFR	7	n/a	n/a	n/a	n/a	n/a	n/a	n/a	12	4	6	2	n/a	n/a	n/a	n/a	n/a
3276995	PROB	n/a	LTP112	ltpFR	7	n/a	n/a	n/a	n/a	n/a	n/a	n/a	18	8	5	5	n/a	n/a	n/a	n/a	n/a
3278229	PROB	n/a	LTP112	ltpFR	7	n/a	n/a	n/a	n/a	n/a	n/a	n/a	16	4	9	3	n/a	n/a	n/a	n/a	n/a
3280145	PROB	n/a	LTP112	ltpFR	7	n/a	n/a	n/a	n/a	n/a	n/a	n/a	20	8	4	8	n/a	n/a	n/a	n/a	n/a
3282403	PROB	n/a	LTP112	ltpFR	7	n/a	n/a	n/a	n/a	n/a	n/a	n/a	14	6	4	4	n/a	n/a	n/a	n/a	n/a
3284460	PROB	n/a	LTP112	ltpFR	7	n/a	n/a	n/a	n/a	n/a	n/a	n/a	15	6	1	8	n/a	n/a	n/a	n/a	n/a
3287426	STOP	n/a	LTP112	ltpFR	7	n/a	n/a	n/a	n/a	n/a	n/a	n/a	n/a	n/a	n/a	n/a	n/a	n/a	n/a	n/a	n/a
3289442	WORD	wordpools/wasnorm_wordpool.txt	LTP112	ltpFR	7	12	1	NEWSPAPER	948	n/a	n/a	0	n/a	0	0	0	0.57763671875	0.412841796875	1	upper	zerothre.ttf
3292449	START	n/a	LTP112	ltpFR	7	n/a	n/a	n/a	n/a	n/a	n/a	n/a	n/a	n/a	n/a	n/a	n/a	n/a	n/a	n/a	n/a
3293265	PROB	n/a	LTP112	ltpFR	7	n/a	n/a	n/a	n/a	n/a	n/a	n/a	6	1	3	2	n/a	n/a	n/a	n/a	n/a
3294797	PROB	n/a	LTP112	ltpFR	7	n/a	n/a	n/a	n/a	n/a	n/a	n/a	12	2	5	5	n/a	n/a	n/a	n/a	n/a
3296005	PROB	n/a	LTP112	ltpFR	7	n/a	n/a	n/a	n/a	n/a	n/a	n/a	11	6	3	2	n/a	n/a	n/a	n/a	n/a
3297613	PROB	n/a	LTP112	ltpFR	7	n/a	n/a	n/a	n/a	n/a	n/a	n/a	24	8	8	8	n/a	n/a	n/a	n/a	n/a
3298971	PROB	n/a	LTP112	ltpFR	7	n/a	n/a	n/a	n/a	n/a	n/a	n/a	20	8	5	7	n/a	n/a	n/a	n/a	n/a
3302961	PROB	n/a	LTP112	ltpFR	7	n/a	n/a	n/a	n/a	n/a	n/a	n/a	16	5	3	8	n/a	n/a	n/a	n/a	n/a
3305369	PROB	n/a	LTP112	ltpFR	7	n/a	n/a	n/a	n/a	n/a	n/a	n/a	9	6	2	1	n/a	n/a	n/a	n/a	n/a
3308449	STOP	n/a	LTP112	ltpFR	7	n/a	n/a	n/a	n/a	n/a	n/a	n/a	n/a	n/a	n/a	n/a	n/a	n/a	n/a	n/a	n/a
3309335	WORD	wordpools/wasnorm_wordpool.txt	LTP112	ltpFR	7	12	1	CLIFF	322	n/a	n/a	0	n/a	0	0	0	0.57763671875	0.412841796875	1	upper	zerothre.ttf
3312342	START	n/a	LTP112	ltpFR	7	n/a	n/a	n/a	n/a	n/a	n/a	n/a	n/a	n/a	n/a	n/a	n/a	n/a	n/a	n/a	n/a
3313167	PROB	n/a	LTP112	ltpFR	7	n/a	n/a	n/a	n/a	n/a	n/a	n/a	7	2	3	2	n/a	n/a	n/a	n/a	n/a
3316274	PROB	n/a	LTP112	ltpFR	7	n/a	n/a	n/a	n/a	n/a	n/a	n/a	18	7	3	8	n/a	n/a	n/a	n/a	n/a
3318797	PROB	n/a	LTP112	ltpFR	7	n/a	n/a	n/a	n/a	n/a	n/a	n/a	14	8	4	2	n/a	n/a	n/a	n/a	n/a
3321904	PROB	n/a	LTP112	ltpFR	7	n/a	n/a	n/a	n/a	n/a	n/a	n/a	13	3	2	8	n/a	n/a	n/a	n/a	n/a
3325312	PROB	n/a	LTP112	ltpFR	7	n/a	n/a	n/a	n/a	n/a	n/a	n/a	17	6	2	9	n/a	n/a	n/a	n/a	n/a
3327426	STOP	n/a	LTP112	ltpFR	7	n/a	n/a	n/a	n/a	n/a	n/a	n/a	n/a	n/a	n/a	n/a	n/a	n/a	n/a	n/a	n/a
3329236	WORD	wordpools/wasnorm_wordpool.txt	LTP112	ltpFR	7	12	1	BLUEBERRY	140	n/a	n/a	1	n/a	0	0	0	0.57763671875	0.412841796875	1	upper	zerothre.ttf
3332244	START	n/a	LTP112	ltpFR	7	n/a	n/a	n/a	n/a	n/a	n/a	n/a	n/a	n/a	n/a	n/a	n/a	n/a	n/a	n/a	n/a
3333218	PROB	n/a	LTP112	ltpFR	7	n/a	n/a	n/a	n/a	n/a	n/a	n/a	17	9	5	3	n/a	n/a	n/a	n/a	n/a
3335117	PROB	n/a	LTP112	ltpFR	7	n/a	n/a	n/a	n/a	n/a	n/a	n/a	16	5	4	7	n/a	n/a	n/a	n/a	n/a
3337624	PROB	n/a	LTP112	ltpFR	7	n/a	n/a	n/a	n/a	n/a	n/a	n/a	19	1	9	9	n/a	n/a	n/a	n/a	n/a
3339224	PROB	n/a	LTP112	ltpFR	7	n/a	n/a	n/a	n/a	n/a	n/a	n/a	17	9	4	4	n/a	n/a	n/a	n/a	n/a
3342115	PROB	n/a	LTP112	ltpFR	7	n/a	n/a	n/a	n/a	n/a	n/a	n/a	15	4	8	3	n/a	n/a	n/a	n/a	n/a
3344247	PROB	n/a	LTP112	ltpFR	7	n/a	n/a	n/a	n/a	n/a	n/a	n/a	12	1	6	5	n/a	n/a	n/a	n/a	n/a
3346097	PROB	n/a	LTP112	ltpFR	7	n/a	n/a	n/a	n/a	n/a	n/a	n/a	14	9	3	2	n/a	n/a	n/a	n/a	n/a
3347442	STOP	n/a	LTP112	ltpFR	7	n/a	n/a	n/a	n/a	n/a	n/a	n/a	n/a	n/a	n/a	n/a	n/a	n/a	n/a	n/a	n/a
3349112	WORD	wordpools/wasnorm_wordpool.txt	LTP112	ltpFR	7	12	1	PHILOSOPHER	1054	n/a	n/a	1	n/a	0	0	0	0.57763671875	0.412841796875	1	upper	zerothre.ttf
3352120	START	n/a	LTP112	ltpFR	7	n/a	n/a	n/a	n/a	n/a	n/a	n/a	n/a	n/a	n/a	n/a	n/a	n/a	n/a	n/a	n/a
3353202	PROB	n/a	LTP112	ltpFR	7	n/a	n/a	n/a	n/a	n/a	n/a	n/a	23	8	9	6	n/a	n/a	n/a	n/a	n/a
3358576	PROB	n/a	LTP112	ltpFR	7	n/a	n/a	n/a	n/a	n/a	n/a	n/a	22	9	3	9	n/a	n/a	n/a	n/a	n/a
3361957	PROB	n/a	LTP112	ltpFR	7	n/a	n/a	n/a	n/a	n/a	n/a	n/a	13	3	4	6	n/a	n/a	n/a	n/a	n/a
3363973	PROB	n/a	LTP112	ltpFR	7	n/a	n/a	n/a	n/a	n/a	n/a	n/a	16	8	4	4	n/a	n/a	n/a	n/a	n/a
3366514	PROB	n/a	LTP112	ltpFR	7	n/a	n/a	n/a	n/a	n/a	n/a	n/a	5	2	2	1	n/a	n/a	n/a	n/a	n/a
3367881	STOP	n/a	LTP112	ltpFR	7	n/a	n/a	n/a	n/a	n/a	n/a	n/a	n/a	n/a	n/a	n/a	n/a	n/a	n/a	n/a	n/a
3368937	WORD	wordpools/wasnorm_wordpool.txt	LTP112	ltpFR	7	12	1	PROFESSOR	1131	n/a	n/a	1	n/a	0	0	0	0.57763671875	0.412841796875	1	upper	zerothre.ttf
3371945	START	n/a	LTP112	ltpFR	7	n/a	n/a	n/a	n/a	n/a	n/a	n/a	n/a	n/a	n/a	n/a	n/a	n/a	n/a	n/a	n/a
3372936	PROB	n/a	LTP112	ltpFR	7	n/a	n/a	n/a	n/a	n/a	n/a	n/a	16	6	1	9	n/a	n/a	n/a	n/a	n/a
3375011	PROB	n/a	LTP112	ltpFR	7	n/a	n/a	n/a	n/a	n/a	n/a	n/a	23	9	7	7	n/a	n/a	n/a	n/a	n/a
3377460	PROB	n/a	LTP112	ltpFR	7	n/a	n/a	n/a	n/a	n/a	n/a	n/a	15	3	7	5	n/a	n/a	n/a	n/a	n/a
3380026	PROB	n/a	LTP112	ltpFR	7	n/a	n/a	n/a	n/a	n/a	n/a	n/a	13	3	6	4	n/a	n/a	n/a	n/a	n/a
3381242	PROB	n/a	LTP112	ltpFR	7	n/a	n/a	n/a	n/a	n/a	n/a	n/a	14	1	9	4	n/a	n/a	n/a	n/a	n/a
3382575	PROB	n/a	LTP112	ltpFR	7	n/a	n/a	n/a	n/a	n/a	n/a	n/a	18	1	8	9	n/a	n/a	n/a	n/a	n/a
3383949	PROB	n/a	LTP112	ltpFR	7	n/a	n/a	n/a	n/a	n/a	n/a	n/a	114	2	8	4	n/a	n/a	n/a	n/a	n/a
3385524	PROB	n/a	LTP112	ltpFR	7	n/a	n/a	n/a	n/a	n/a	n/a	n/a	5	1	3	1	n/a	n/a	n/a	n/a	n/a
3386889	STOP	n/a	LTP112	ltpFR	7	n/a	n/a	n/a	n/a	n/a	n/a	n/a	n/a	n/a	n/a	n/a	n/a	n/a	n/a	n/a	n/a
3389098	WORD	wordpools/wasnorm_wordpool.txt	LTP112	ltpFR	7	12	1	COLUMN	350	n/a	n/a	0	n/a	0	0	0	0.57763671875	0.412841796875	1	upper	zerothre.ttf
3392106	START	n/a	LTP112	ltpFR	7	n/a	n/a	n/a	n/a	n/a	n/a	n/a	n/a	n/a	n/a	n/a	n/a	n/a	n/a	n/a	n/a
3393263	PROB	n/a	LTP112	ltpFR	7	n/a	n/a	n/a	n/a	n/a	n/a	n/a	13	7	3	3	n/a	n/a	n/a	n/a	n/a
3395204	PROB	n/a	LTP112	ltpFR	7	n/a	n/a	n/a	n/a	n/a	n/a	n/a	15	1	7	7	n/a	n/a	n/a	n/a	n/a
3396412	PROB	n/a	LTP112	ltpFR	7	n/a	n/a	n/a	n/a	n/a	n/a	n/a	16	4	9	3	n/a	n/a	n/a	n/a	n/a
3398777	PROB	n/a	LTP112	ltpFR	7	n/a	n/a	n/a	n/a	n/a	n/a	n/a	12	7	5	7	n/a	n/a	n/a	n/a	n/a
3400793	PROB	n/a	LTP112	ltpFR	7	n/a	n/a	n/a	n/a	n/a	n/a	n/a	14	7	1	6	n/a	n/a	n/a	n/a	n/a
3402667	PROB	n/a	LTP112	ltpFR	7	n/a	n/a	n/a	n/a	n/a	n/a	n/a	15	7	1	5	n/a	n/a	n/a	n/a	n/a
3404518	PROB	n/a	LTP112	ltpFR	7	n/a	n/a	n/a	n/a	n/a	n/a	n/a	7	1	4	2	n/a	n/a	n/a	n/a	n/a
3407290	STOP	n/a	LTP112	ltpFR	7	n/a	n/a	n/a	n/a	n/a	n/a	n/a	n/a	n/a	n/a	n/a	n/a	n/a	n/a	n/a	n/a
3409183	WORD	wordpools/wasnorm_wordpool.txt	LTP112	ltpFR	7	12	1	BABY	64	n/a	n/a	1	n/a	0	0	0	0.57763671875	0.412841796875	1	upper	zerothre.ttf
3412190	START	n/a	LTP112	ltpFR	7	n/a	n/a	n/a	n/a	n/a	n/a	n/a	n/a	n/a	n/a	n/a	n/a	n/a	n/a	n/a	n/a
3413314	PROB	n/a	LTP112	ltpFR	7	n/a	n/a	n/a	n/a	n/a	n/a	n/a	10	4	1	5	n/a	n/a	n/a	n/a	n/a
3415205	PROB	n/a	LTP112	ltpFR	7	n/a	n/a	n/a	n/a	n/a	n/a	n/a	7	2	3	2	n/a	n/a	n/a	n/a	n/a
3417263	PROB	n/a	LTP112	ltpFR	7	n/a	n/a	n/a	n/a	n/a	n/a	n/a	9	1	3	5	n/a	n/a	n/a	n/a	n/a
3421012	PROB	n/a	LTP112	ltpFR	7	n/a	n/a	n/a	n/a	n/a	n/a	n/a	12	3	8	1	n/a	n/a	n/a	n/a	n/a
3422693	PROB	n/a	LTP112	ltpFR	7	n/a	n/a	n/a	n/a	n/a	n/a	n/a	98	4	2	2	n/a	n/a	n/a	n/a	n/a
3424943	PROB	n/a	LTP112	ltpFR	7	n/a	n/a	n/a	n/a	n/a	n/a	n/a	13	4	3	6	n/a	n/a	n/a	n/a	n/a
3427114	STOP	n/a	LTP112	ltpFR	7	n/a	n/a	n/a	n/a	n/a	n/a	n/a	n/a	n/a	n/a	n/a	n/a	n/a	n/a	n/a	n/a
3429267	WORD	wordpools/wasnorm_wordpool.txt	LTP112	ltpFR	7	12	1	DRESSER	496	n/a	n/a	0	n/a	0	0	0	0.57763671875	0.412841796875	1	upper	zerothre.ttf
3432275	START	n/a	LTP112	ltpFR	7	n/a	n/a	n/a	n/a	n/a	n/a	n/a	n/a	n/a	n/a	n/a	n/a	n/a	n/a	n/a	n/a
3433257	PROB	n/a	LTP112	ltpFR	7	n/a	n/a	n/a	n/a	n/a	n/a	n/a	16	2	5	9	n/a	n/a	n/a	n/a	n/a
3435323	PROB	n/a	LTP112	ltpFR	7	n/a	n/a	n/a	n/a	n/a	n/a	n/a	18	5	9	4	n/a	n/a	n/a	n/a	n/a
3438031	PROB	n/a	LTP112	ltpFR	7	n/a	n/a	n/a	n/a	n/a	n/a	n/a	19	1	9	9	n/a	n/a	n/a	n/a	n/a
3439372	PROB	n/a	LTP112	ltpFR	7	n/a	n/a	n/a	n/a	n/a	n/a	n/a	12	8	1	3	n/a	n/a	n/a	n/a	n/a
3440962	PROB	n/a	LTP112	ltpFR	7	n/a	n/a	n/a	n/a	n/a	n/a	n/a	17	9	3	5	n/a	n/a	n/a	n/a	n/a
3443786	PROB	n/a	LTP112	ltpFR	7	n/a	n/a	n/a	n/a	n/a	n/a	n/a	10	1	4	5	n/a	n/a	n/a	n/a	n/a
3445253	PROB	n/a	LTP112	ltpFR	7	n/a	n/a	n/a	n/a	n/a	n/a	n/a	5	2	1	2	n/a	n/a	n/a	n/a	n/a
3448274	STOP	n/a	LTP112	ltpFR	7	n/a	n/a	n/a	n/a	n/a	n/a	n/a	n/a	n/a	n/a	n/a	n/a	n/a	n/a	n/a	n/a
3449368	WORD	wordpools/wasnorm_wordpool.txt	LTP112	ltpFR	7	12	1	XEROX	1628	n/a	n/a	0	n/a	0	0	0	0.57763671875	0.412841796875	1	upper	zerothre.ttf
3452384	START	n/a	LTP112	ltpFR	7	n/a	n/a	n/a	n/a	n/a	n/a	n/a	n/a	n/a	n/a	n/a	n/a	n/a	n/a	n/a	n/a
3453542	PROB	n/a	LTP112	ltpFR	7	n/a	n/a	n/a	n/a	n/a	n/a	n/a	5	3	1	2	n/a	n/a	n/a	n/a	n/a
3454824	PROB	n/a	LTP112	ltpFR	7	n/a	n/a	n/a	n/a	n/a	n/a	n/a	13	6	4	3	n/a	n/a	n/a	n/a	n/a
3456208	PROB	n/a	LTP112	ltpFR	7	n/a	n/a	n/a	n/a	n/a	n/a	n/a	12	2	9	1	n/a	n/a	n/a	n/a	n/a
3457357	PROB	n/a	LTP112	ltpFR	7	n/a	n/a	n/a	n/a	n/a	n/a	n/a	13	2	6	5	n/a	n/a	n/a	n/a	n/a
3460123	PROB	n/a	LTP112	ltpFR	7	n/a	n/a	n/a	n/a	n/a	n/a	n/a	16	8	4	4	n/a	n/a	n/a	n/a	n/a
3462305	PROB	n/a	LTP112	ltpFR	7	n/a	n/a	n/a	n/a	n/a	n/a	n/a	13	7	2	4	n/a	n/a	n/a	n/a	n/a
3465154	PROB	n/a	LTP112	ltpFR	7	n/a	n/a	n/a	n/a	n/a	n/a	n/a	19	9	2	8	n/a	n/a	n/a	n/a	n/a
3467290	STOP	n/a	LTP112	ltpFR	7	n/a	n/a	n/a	n/a	n/a	n/a	n/a	n/a	n/a	n/a	n/a	n/a	n/a	n/a	n/a	n/a
3469311	WORD	wordpools/wasnorm_wordpool.txt	LTP112	ltpFR	7	12	1	BURGLAR	200	n/a	n/a	1	n/a	0	0	0	0.57763671875	0.412841796875	1	upper	zerothre.ttf
3472319	START	n/a	LTP112	ltpFR	7	n/a	n/a	n/a	n/a	n/a	n/a	n/a	n/a	n/a	n/a	n/a	n/a	n/a	n/a	n/a	n/a
3473518	PROB	n/a	LTP112	ltpFR	7	n/a	n/a	n/a	n/a	n/a	n/a	n/a	23	8	9	4	n/a	n/a	n/a	n/a	n/a
3476076	PROB	n/a	LTP112	ltpFR	7	n/a	n/a	n/a	n/a	n/a	n/a	n/a	2	5	8	7	n/a	n/a	n/a	n/a	n/a
3477957	PROB	n/a	LTP112	ltpFR	7	n/a	n/a	n/a	n/a	n/a	n/a	n/a	17	9	5	3	n/a	n/a	n/a	n/a	n/a
3481848	PROB	n/a	LTP112	ltpFR	7	n/a	n/a	n/a	n/a	n/a	n/a	n/a	5	1	2	2	n/a	n/a	n/a	n/a	n/a
3482789	PROB	n/a	LTP112	ltpFR	7	n/a	n/a	n/a	n/a	n/a	n/a	n/a	16	5	2	9	n/a	n/a	n/a	n/a	n/a
3485056	PROB	n/a	LTP112	ltpFR	7	n/a	n/a	n/a	n/a	n/a	n/a	n/a	24	8	6	8	n/a	n/a	n/a	n/a	n/a
3486897	STOP	n/a	LTP112	ltpFR	7	n/a	n/a	n/a	n/a	n/a	n/a	n/a	n/a	n/a	n/a	n/a	n/a	n/a	n/a	n/a	n/a
3489446	WORD	wordpools/wasnorm_wordpool.txt	LTP112	ltpFR	7	12	1	KID	775	n/a	n/a	1	n/a	0	0	0	0.57763671875	0.412841796875	1	upper	zerothre.ttf
3492454	START	n/a	LTP112	ltpFR	7	n/a	n/a	n/a	n/a	n/a	n/a	n/a	n/a	n/a	n/a	n/a	n/a	n/a	n/a	n/a	n/a
3493494	PROB	n/a	LTP112	ltpFR	7	n/a	n/a	n/a	n/a	n/a	n/a	n/a	22	8	9	5	n/a	n/a	n/a	n/a	n/a
3496759	PROB	n/a	LTP112	ltpFR	7	n/a	n/a	n/a	n/a	n/a	n/a	n/a	21	7	5	9	n/a	n/a	n/a	n/a	n/a
3499442	PROB	n/a	LTP112	ltpFR	7	n/a	n/a	n/a	n/a	n/a	n/a	n/a	13	4	3	6	n/a	n/a	n/a	n/a	n/a
3501325	PROB	n/a	LTP112	ltpFR	7	n/a	n/a	n/a	n/a	n/a	n/a	n/a	10	3	5	2	n/a	n/a	n/a	n/a	n/a
3506065	PROB	n/a	LTP112	ltpFR	7	n/a	n/a	n/a	n/a	n/a	n/a	n/a	18	3	9	6	n/a	n/a	n/a	n/a	n/a
3507969	STOP	n/a	LTP112	ltpFR	7	n/a	n/a	n/a	n/a	n/a	n/a	n/a	n/a	n/a	n/a	n/a	n/a	n/a	n/a	n/a	n/a
3509654	WORD	wordpools/wasnorm_wordpool.txt	LTP112	ltpFR	7	12	1	TACK	1428	n/a	n/a	0	n/a	0	0	0	0.57763671875	0.412841796875	1	upper	zerothre.ttf
3512662	START	n/a	LTP112	ltpFR	7	n/a	n/a	n/a	n/a	n/a	n/a	n/a	n/a	n/a	n/a	n/a	n/a	n/a	n/a	n/a	n/a
3513512	PROB	n/a	LTP112	ltpFR	7	n/a	n/a	n/a	n/a	n/a	n/a	n/a	9	6	2	1	n/a	n/a	n/a	n/a	n/a
3515137	PROB	n/a	LTP112	ltpFR	7	n/a	n/a	n/a	n/a	n/a	n/a	n/a	21	5	9	7	n/a	n/a	n/a	n/a	n/a
3518901	PROB	n/a	LTP112	ltpFR	7	n/a	n/a	n/a	n/a	n/a	n/a	n/a	12	5	5	2	n/a	n/a	n/a	n/a	n/a
3520435	PROB	n/a	LTP112	ltpFR	7	n/a	n/a	n/a	n/a	n/a	n/a	n/a	12	3	3	6	n/a	n/a	n/a	n/a	n/a
3522026	PROB	n/a	LTP112	ltpFR	7	n/a	n/a	n/a	n/a	n/a	n/a	n/a	17	6	8	3	n/a	n/a	n/a	n/a	n/a
3523858	PROB	n/a	LTP112	ltpFR	7	n/a	n/a	n/a	n/a	n/a	n/a	n/a	16	7	7	2	n/a	n/a	n/a	n/a	n/a
3525441	PROB	n/a	LTP112	ltpFR	7	n/a	n/a	n/a	n/a	n/a	n/a	n/a	8	5	1	2	n/a	n/a	n/a	n/a	n/a
3528662	STOP	n/a	LTP112	ltpFR	7	n/a	n/a	n/a	n/a	n/a	n/a	n/a	n/a	n/a	n/a	n/a	n/a	n/a	n/a	n/a	n/a
3529614	WORD	wordpools/wasnorm_wordpool.txt	LTP112	ltpFR	7	12	1	HAMMER	680	n/a	n/a	0	n/a	0	0	0	0.57763671875	0.412841796875	1	upper	zerothre.ttf
3532622	START	n/a	LTP112	ltpFR	7	n/a	n/a	n/a	n/a	n/a	n/a	n/a	n/a	n/a	n/a	n/a	n/a	n/a	n/a	n/a	n/a
3533671	PROB	n/a	LTP112	ltpFR	7	n/a	n/a	n/a	n/a	n/a	n/a	n/a	8	3	2	3	n/a	n/a	n/a	n/a	n/a
3535878	PROB	n/a	LTP112	ltpFR	7	n/a	n/a	n/a	n/a	n/a	n/a	n/a	8	3	4	1	n/a	n/a	n/a	n/a	n/a
3538029	PROB	n/a	LTP112	ltpFR	7	n/a	n/a	n/a	n/a	n/a	n/a	n/a	14	5	3	6	n/a	n/a	n/a	n/a	n/a
3541444	PROB	n/a	LTP112	ltpFR	7	n/a	n/a	n/a	n/a	n/a	n/a	n/a	14	3	7	4	n/a	n/a	n/a	n/a	n/a
3542743	PROB	n/a	LTP112	ltpFR	7	n/a	n/a	n/a	n/a	n/a	n/a	n/a	14	6	2	6	n/a	n/a	n/a	n/a	n/a
3544193	PROB	n/a	LTP112	ltpFR	7	n/a	n/a	n/a	n/a	n/a	n/a	n/a	14	4	3	7	n/a	n/a	n/a	n/a	n/a
3545559	PROB	n/a	LTP112	ltpFR	7	n/a	n/a	n/a	n/a	n/a	n/a	n/a	10	1	6	3	n/a	n/a	n/a	n/a	n/a
3547194	STOP	n/a	LTP112	ltpFR	7	n/a	n/a	n/a	n/a	n/a	n/a	n/a	n/a	n/a	n/a	n/a	n/a	n/a	n/a	n/a	n/a
3549640	WORD	wordpools/wasnorm_wordpool.txt	LTP112	ltpFR	7	12	1	EYELASH	546	n/a	n/a	0	n/a	0	0	0	0.57763671875	0.412841796875	1	upper	zerothre.ttf
3552648	START	n/a	LTP112	ltpFR	7	n/a	n/a	n/a	n/a	n/a	n/a	n/a	n/a	n/a	n/a	n/a	n/a	n/a	n/a	n/a	n/a
3553664	PROB	n/a	LTP112	ltpFR	7	n/a	n/a	n/a	n/a	n/a	n/a	n/a	13	4	2	7	n/a	n/a	n/a	n/a	n/a
3556679	PROB	n/a	LTP112	ltpFR	7	n/a	n/a	n/a	n/a	n/a	n/a	n/a	13	4	4	5	n/a	n/a	n/a	n/a	n/a
3558555	PROB	n/a	LTP112	ltpFR	7	n/a	n/a	n/a	n/a	n/a	n/a	n/a	18	6	6	6	n/a	n/a	n/a	n/a	n/a
3561603	PROB	n/a	LTP112	ltpFR	7	n/a	n/a	n/a	n/a	n/a	n/a	n/a	15	6	2	5	n/a	n/a	n/a	n/a	n/a
3565186	PROB	n/a	LTP112	ltpFR	7	n/a	n/a	n/a	n/a	n/a	n/a	n/a	12	9	1	2	n/a	n/a	n/a	n/a	n/a
3566742	PROB	n/a	LTP112	ltpFR	7	n/a	n/a	n/a	n/a	n/a	n/a	n/a	13	3	7	3	n/a	n/a	n/a	n/a	n/a
3568274	STOP	n/a	LTP112	ltpFR	7	n/a	n/a	n/a	n/a	n/a	n/a	n/a	n/a	n/a	n/a	n/a	n/a	n/a	n/a	n/a	n/a
3570459	REC_START	n/a	LTP112	ltpFR	7	12	n/a	n/a	n/a	n/a	n/a	n/a	n/a	0	0	0	n/a	n/a	n/a	n/a	n/a
3575457	REC_WORD	wordpools/wasnorm_wordpool.txt	LTP112	ltpFR	7	12	1	BABY	64	n/a	n/a	1	n/a	0	0	0	n/a	n/a	n/a	n/a	n/a
3581559	REC_WORD	wordpools/wasnorm_wordpool.txt	LTP112	ltpFR	7	12	1	ACORN	3	n/a	n/a	1	n/a	0	0	0	n/a	n/a	n/a	n/a	n/a
3649572	WORD	wordpools/wasnorm_wordpool.txt	LTP112	ltpFR	7	13	1	RAKE	1164	n/a	n/a	0	n/a	0	0	0	0.57763671875	0.412841796875	1	upper	zerothre.ttf
3653612	WORD	wordpools/wasnorm_wordpool.txt	LTP112	ltpFR	7	13	1	WARRIOR	1589	n/a	n/a	1	n/a	0	0	0	0.57763671875	0.412841796875	1	upper	zerothre.ttf
3657445	WORD	wordpools/wasnorm_wordpool.txt	LTP112	ltpFR	7	13	1	SEAFOOD	1260	n/a	n/a	0	n/a	0	0	0	0.57763671875	0.412841796875	1	upper	zerothre.ttf
3661427	WORD	wordpools/wasnorm_wordpool.txt	LTP112	ltpFR	7	13	1	HOOK	715	n/a	n/a	0	n/a	0	0	0	0.57763671875	0.412841796875	1	upper	zerothre.ttf
3665616	WORD	wordpools/wasnorm_wordpool.txt	LTP112	ltpFR	7	13	1	FIREMAN	569	n/a	n/a	1	n/a	0	0	0	0.57763671875	0.412841796875	1	upper	zerothre.ttf
3669557	WORD	wordpools/wasnorm_wordpool.txt	LTP112	ltpFR	7	13	1	MINER	896	n/a	n/a	1	n/a	0	0	0	0.57763671875	0.412841796875	1	upper	zerothre.ttf
3673630	WORD	wordpools/wasnorm_wordpool.txt	LTP112	ltpFR	7	13	1	CHAIN	273	n/a	n/a	0	n/a	0	0	0	0.57763671875	0.412841796875	1	upper	zerothre.ttf
3677563	WORD	wordpools/wasnorm_wordpool.txt	LTP112	ltpFR	7	13	1	BUS	201	n/a	n/a	1	n/a	0	0	0	0.57763671875	0.412841796875	1	upper	zerothre.ttf
3681503	WORD	wordpools/wasnorm_wordpool.txt	LTP112	ltpFR	7	13	1	OCTOPUS	971	n/a	n/a	1	n/a	0	0	0	0.57763671875	0.412841796875	1	upper	zerothre.ttf
3685351	WORD	wordpools/wasnorm_wordpool.txt	LTP112	ltpFR	7	13	1	FISH	571	n/a	n/a	1	n/a	0	0	0	0.57763671875	0.412841796875	1	upper	zerothre.ttf
3689467	WORD	wordpools/wasnorm_wordpool.txt	LTP112	ltpFR	7	13	1	BACKBONE	66	n/a	n/a	0	n/a	0	0	0	0.57763671875	0.412841796875	1	upper	zerothre.ttf
3693324	WORD	wordpools/wasnorm_wordpool.txt	LTP112	ltpFR	7	13	1	FLORIDA	582	n/a	n/a	0	n/a	0	0	0	0.57763671875	0.412841796875	1	upper	zerothre.ttf
3697181	WORD	wordpools/wasnorm_wordpool.txt	LTP112	ltpFR	7	13	1	WRENCH	1625	n/a	n/a	0	n/a	0	0	0	0.57763671875	0.412841796875	1	upper	zerothre.ttf
3701087	WORD	wordpools/wasnorm_wordpool.txt	LTP112	ltpFR	7	13	1	GROUND	666	n/a	n/a	0	n/a	0	0	0	0.57763671875	0.412841796875	1	upper	zerothre.ttf
3705044	WORD	wordpools/wasnorm_wordpool.txt	LTP112	ltpFR	7	13	1	SCHOOL	1248	n/a	n/a	0	n/a	0	0	0	0.57763671875	0.412841796875	1	upper	zerothre.ttf
3708900	WORD	wordpools/wasnorm_wordpool.txt	LTP112	ltpFR	7	13	1	BACK	65	n/a	n/a	1	n/a	0	0	0	0.57763671875	0.412841796875	1	upper	zerothre.ttf
3711908	START	n/a	LTP112	ltpFR	7	n/a	n/a	n/a	n/a	n/a	n/a	n/a	n/a	n/a	n/a	n/a	n/a	n/a	n/a	n/a	n/a
3713042	PROB	n/a	LTP112	ltpFR	7	n/a	n/a	n/a	n/a	n/a	n/a	n/a	14	3	6	5	n/a	n/a	n/a	n/a	n/a
3716215	PROB	n/a	LTP112	ltpFR	7	n/a	n/a	n/a	n/a	n/a	n/a	n/a	18	2	8	8	n/a	n/a	n/a	n/a	n/a
3718015	PROB	n/a	LTP112	ltpFR	7	n/a	n/a	n/a	n/a	n/a	n/a	n/a	14	1	5	8	n/a	n/a	n/a	n/a	n/a
3720022	PROB	n/a	LTP112	ltpFR	7	n/a	n/a	n/a	n/a	n/a	n/a	n/a	11	8	1	2	n/a	n/a	n/a	n/a	n/a
3721339	PROB	n/a	LTP112	ltpFR	7	n/a	n/a	n/a	n/a	n/a	n/a	n/a	14	6	7	1	n/a	n/a	n/a	n/a	n/a
3722695	PROB	n/a	LTP112	ltpFR	7	n/a	n/a	n/a	n/a	n/a	n/a	n/a	18	1	8	9	n/a	n/a	n/a	n/a	n/a
3727908	STOP	n/a	LTP112	ltpFR	7	n/a	n/a	n/a	n/a	n/a	n/a	n/a	n/a	n/a	n/a	n/a	n/a	n/a	n/a	n/a	n/a
3729760	REC_START	n/a	LTP112	ltpFR	7	13	n/a	n/a	n/a	n/a	n/a	n/a	n/a	0	0	0	n/a	n/a	n/a	n/a	n/a
3732918	REC_WORD	wordpools/wasnorm_wordpool.txt	LTP112	ltpFR	7	13	1	SEAFOOD	1260	n/a	n/a	0	n/a	0	0	0	n/a	n/a	n/a	n/a	n/a
3735297	REC_WORD	wordpools/wasnorm_wordpool.txt	LTP112	ltpFR	7	13	1	WARRIOR	1589	n/a	n/a	1	n/a	0	0	0	n/a	n/a	n/a	n/a	n/a
3735961	REC_WORD	wordpools/wasnorm_wordpool.txt	LTP112	ltpFR	7	13	1	RAKE	1164	n/a	n/a	0	n/a	0	0	0	n/a	n/a	n/a	n/a	n/a
3746217	REC_WORD	wordpools/wasnorm_wordpool.txt	LTP112	ltpFR	7	13	1	BACK	65	n/a	n/a	1	n/a	0	0	0	n/a	n/a	n/a	n/a	n/a
3746706	REC_WORD	wordpools/wasnorm_wordpool.txt	LTP112	ltpFR	7	13	1	BACKBONE	66	n/a	n/a	0	n/a	0	0	0	n/a	n/a	n/a	n/a	n/a
3751351	REC_WORD	wordpools/wasnorm_wordpool.txt	LTP112	ltpFR	7	13	1	SCHOOL	1248	n/a	n/a	0	n/a	0	0	0	n/a	n/a	n/a	n/a	n/a
3752274	REC_WORD	wordpools/wasnorm_wordpool.txt	LTP112	ltpFR	7	13	1	GROUND	666	n/a	n/a	0	n/a	0	0	0	n/a	n/a	n/a	n/a	n/a
3809382	WORD	wordpools/wasnorm_wordpool.txt	LTP112	ltpFR	7	14	0	ELECTRON	522	n/a	n/a	0	n/a	0	0	0	0.422607421875	0.5869140625	0	lower	amplitud.ttf
3813439	WORD	wordpools/wasnorm_wordpool.txt	LTP112	ltpFR	7	14	0	NERVE	944	n/a	n/a	0	n/a	0	0	0	0.422607421875	0.5869140625	0	lower	amplitud.ttf
3817580	WORD	wordpools/wasnorm_wordpool.txt	LTP112	ltpFR	7	14	0	REFEREE	1178	n/a	n/a	1	n/a	0	0	0	0.422607421875	0.5869140625	0	lower	amplitud.ttf
3821536	WORD	wordpools/wasnorm_wordpool.txt	LTP112	ltpFR	7	14	0	COACH	331	n/a	n/a	1	n/a	0	0	0	0.422607421875	0.5869140625	0	lower	amplitud.ttf
3825734	WORD	wordpools/wasnorm_wordpool.txt	LTP112	ltpFR	7	14	0	CONVENT	370	n/a	n/a	1	n/a	0	0	0	0.422607421875	0.5869140625	0	lower	amplitud.ttf
3829592	WORD	wordpools/wasnorm_wordpool.txt	LTP112	ltpFR	7	14	0	GIFT	635	n/a	n/a	0	n/a	0	0	0	0.422607421875	0.5869140625	0	lower	amplitud.ttf
3833566	WORD	wordpools/wasnorm_wordpool.txt	LTP112	ltpFR	7	14	0	TUBA	1515	n/a	n/a	1	n/a	0	0	0	0.422607421875	0.5869140625	0	lower	amplitud.ttf
3837780	WORD	wordpools/wasnorm_wordpool.txt	LTP112	ltpFR	7	14	0	SCISSORS	1250	n/a	n/a	0	n/a	0	0	0	0.422607421875	0.5869140625	0	lower	amplitud.ttf
3841770	WORD	wordpools/wasnorm_wordpool.txt	LTP112	ltpFR	7	14	0	SCALPEL	1243	n/a	n/a	0	n/a	0	0	0	0.422607421875	0.5869140625	0	lower	amplitud.ttf
3845935	WORD	wordpools/wasnorm_wordpool.txt	LTP112	ltpFR	7	14	0	AFRICA	9	n/a	n/a	1	n/a	0	0	0	0.422607421875	0.5869140625	0	lower	amplitud.ttf
3850101	WORD	wordpools/wasnorm_wordpool.txt	LTP112	ltpFR	7	14	0	SCROLL	1257	n/a	n/a	1	n/a	0	0	0	0.422607421875	0.5869140625	0	lower	amplitud.ttf
3854167	WORD	wordpools/wasnorm_wordpool.txt	LTP112	ltpFR	7	14	0	PREACHER	1119	n/a	n/a	1	n/a	0	0	0	0.422607421875	0.5869140625	0	lower	amplitud.ttf
