mstime	trial_type	stim_file	subject	experiment	session	trial	item_name	item_num	list	answer	test_x	test_y	test_z
0	SESS_START	n/a	LTP115	ltpFR2	7	n/a	n/a	n/a	n/a	n/a	0	0	0
13763	START	n/a	LTP115	ltpFR2	7	n/a	n/a	n/a	-1	n/a	n/a	n/a	n/a
13796	PROB	n/a	LTP115	ltpFR2	7	n/a	n/a	n/a	-1	12	2	8	2
15044	PROB	n/a	LTP115	ltpFR2	7	n/a	n/a	n/a	-1	22	7	9	6
17309	PROB	n/a	LTP115	ltpFR2	7	n/a	n/a	n/a	-1	14	2	9	3
19223	PROB	n/a	LTP115	ltpFR2	7	n/a	n/a	n/a	-1	19	9	5	7
20603	PROB	n/a	LTP115	ltpFR2	7	n/a	n/a	n/a	-1	21	9	8	4
22667	PROB	n/a	LTP115	ltpFR2	7	n/a	n/a	n/a	-1	12	1	3	8
24015	PROB	n/a	LTP115	ltpFR2	7	n/a	n/a	n/a	-1	14	4	2	8
25542	STOP	n/a	LTP115	ltpFR2	7	n/a	n/a	n/a	-1	n/a	n/a	n/a	n/a
57948	WORD	wordpools/wasnorm_wordpool_576.txt	LTP115	ltpFR2	7	1	CYCLONE	431	n/a	n/a	0	0	0
60744	WORD	wordpools/wasnorm_wordpool_576.txt	LTP115	ltpFR2	7	1	WAITER	1580	n/a	n/a	0	0	0
63507	WORD	wordpools/wasnorm_wordpool_576.txt	LTP115	ltpFR2	7	1	GUARD	667	n/a	n/a	0	0	0
66237	WORD	wordpools/wasnorm_wordpool_576.txt	LTP115	ltpFR2	7	1	SUPPER	1411	n/a	n/a	0	0	0
68665	WORD	wordpools/wasnorm_wordpool_576.txt	LTP115	ltpFR2	7	1	OX	994	n/a	n/a	0	0	0
71496	WORD	wordpools/wasnorm_wordpool_576.txt	LTP115	ltpFR2	7	1	FLIPPER	580	n/a	n/a	0	0	0
74091	WORD	wordpools/wasnorm_wordpool_576.txt	LTP115	ltpFR2	7	1	TOMBSTONE	1478	n/a	n/a	0	0	0
76820	WORD	wordpools/wasnorm_wordpool_576.txt	LTP115	ltpFR2	7	1	PUPPY	1144	n/a	n/a	0	0	0
79401	WORD	wordpools/wasnorm_wordpool_576.txt	LTP115	ltpFR2	7	1	PLUTO	1092	n/a	n/a	0	0	0
81829	WORD	wordpools/wasnorm_wordpool_576.txt	LTP115	ltpFR2	7	1	TART	1436	n/a	n/a	0	0	0
84560	WORD	wordpools/wasnorm_wordpool_576.txt	LTP115	ltpFR2	7	1	NECKLACE	940	n/a	n/a	0	0	0
87072	WORD	wordpools/wasnorm_wordpool_576.txt	LTP115	ltpFR2	7	1	MEDAL	885	n/a	n/a	0	0	0
89569	WORD	wordpools/wasnorm_wordpool_576.txt	LTP115	ltpFR2	7	1	SURVEY	1414	n/a	n/a	0	0	0
92298	WORD	wordpools/wasnorm_wordpool_576.txt	LTP115	ltpFR2	7	1	BIKE	125	n/a	n/a	0	0	0
94977	WORD	wordpools/wasnorm_wordpool_576.txt	LTP115	ltpFR2	7	1	PATROL	1027	n/a	n/a	0	0	0
97474	WORD	wordpools/wasnorm_wordpool_576.txt	LTP115	ltpFR2	7	1	CASKET	255	n/a	n/a	0	0	0
100203	WORD	wordpools/wasnorm_wordpool_576.txt	LTP115	ltpFR2	7	1	LIZARD	834	n/a	n/a	0	0	0
102849	WORD	wordpools/wasnorm_wordpool_576.txt	LTP115	ltpFR2	7	1	SNAKE	1333	n/a	n/a	0	0	0
105296	WORD	wordpools/wasnorm_wordpool_576.txt	LTP115	ltpFR2	7	1	MAMMAL	861	n/a	n/a	0	0	0
107908	WORD	wordpools/wasnorm_wordpool_576.txt	LTP115	ltpFR2	7	1	SEAGULL	1261	n/a	n/a	0	0	0
110555	WORD	wordpools/wasnorm_wordpool_576.txt	LTP115	ltpFR2	7	1	CLOCK	325	n/a	n/a	0	0	0
113183	WORD	wordpools/wasnorm_wordpool_576.txt	LTP115	ltpFR2	7	1	STAMP	1370	n/a	n/a	0	0	0
115963	WORD	wordpools/wasnorm_wordpool_576.txt	LTP115	ltpFR2	7	1	AIRPORT	13	n/a	n/a	0	0	0
118675	WORD	wordpools/wasnorm_wordpool_576.txt	LTP115	ltpFR2	7	1	BISON	131	n/a	n/a	0	0	0
120291	START	n/a	LTP115	ltpFR2	7	n/a	n/a	n/a	1	n/a	n/a	n/a	n/a
121370	DISTRACTOR	n/a	LTP115	ltpFR2	7	1	n/a	n/a	n/a	n/a	0	0	0
121372	PROB	n/a	LTP115	ltpFR2	7	n/a	n/a	n/a	1	11	4	2	5
123403	PROB	n/a	LTP115	ltpFR2	7	n/a	n/a	n/a	1	20	9	2	9
124966	PROB	n/a	LTP115	ltpFR2	7	n/a	n/a	n/a	1	18	9	8	1
126282	PROB	n/a	LTP115	ltpFR2	7	n/a	n/a	n/a	1	17	7	2	9
127928	PROB	n/a	LTP115	ltpFR2	7	n/a	n/a	n/a	1	19	4	9	6
130526	PROB	n/a	LTP115	ltpFR2	7	n/a	n/a	n/a	1	18	4	9	5
132523	PROB	n/a	LTP115	ltpFR2	7	n/a	n/a	n/a	1	17	9	1	7
134553	PROB	n/a	LTP115	ltpFR2	7	n/a	n/a	n/a	1	15	6	4	5
135900	PROB	n/a	LTP115	ltpFR2	7	n/a	n/a	n/a	1	10	4	3	3
137515	PROB	n/a	LTP115	ltpFR2	7	n/a	n/a	n/a	1	13	4	3	6
139313	PROB	n/a	LTP115	ltpFR2	7	n/a	n/a	n/a	1	11	3	7	1
140411	PROB	n/a	LTP115	ltpFR2	7	n/a	n/a	n/a	1	23	9	8	6
141924	PROB	n/a	LTP115	ltpFR2	7	n/a	n/a	n/a	1	22	6	8	8
143672	STOP	n/a	LTP115	ltpFR2	7	n/a	n/a	n/a	1	n/a	n/a	n/a	n/a
146118	REC_START	n/a	LTP115	ltpFR2	7	1	n/a	n/a	n/a	n/a	0	0	0
147276	REC_WORD	wordpools/wasnorm_wordpool_576.txt	LTP115	ltpFR2	7	1	CYCLONE	431	n/a	n/a	0	0	0
148659	REC_WORD	wordpools/wasnorm_wordpool_576.txt	LTP115	ltpFR2	7	1	OX	994	n/a	n/a	0	0	0
149596	REC_WORD	wordpools/wasnorm_wordpool_576.txt	LTP115	ltpFR2	7	1	FLIPPER	580	n/a	n/a	0	0	0
150939	REC_WORD	wordpools/wasnorm_wordpool_576.txt	LTP115	ltpFR2	7	1	WAITER	1580	n/a	n/a	0	0	0
152050	REC_WORD	wordpools/wasnorm_wordpool_576.txt	LTP115	ltpFR2	7	1	NECKLACE	940	n/a	n/a	0	0	0
152925	REC_WORD	wordpools/wasnorm_wordpool_576.txt	LTP115	ltpFR2	7	1	PATROL	1027	n/a	n/a	0	0	0
154238	REC_WORD	wordpools/wasnorm_wordpool_576.txt	LTP115	ltpFR2	7	1	GUARD	667	n/a	n/a	0	0	0
155181	REC_WORD	wordpools/wasnorm_wordpool_576.txt	LTP115	ltpFR2	7	1	CASKET	255	n/a	n/a	0	0	0
156451	REC_WORD	wordpools/wasnorm_wordpool_576.txt	LTP115	ltpFR2	7	1	LIZARD	834	n/a	n/a	0	0	0
157184	REC_WORD	wordpools/wasnorm_wordpool_576.txt	LTP115	ltpFR2	7	1	SNAKE	1333	n/a	n/a	0	0	0
158418	REC_WORD	wordpools/wasnorm_wordpool_576.txt	LTP115	ltpFR2	7	1	AIRPORT	13	n/a	n/a	0	0	0
159282	REC_WORD	wordpools/wasnorm_wordpool_576.txt	LTP115	ltpFR2	7	1	CLOCK	325	n/a	n/a	0	0	0
160425	REC_WORD	wordpools/wasnorm_wordpool_576.txt	LTP115	ltpFR2	7	1	TOMBSTONE	1478	n/a	n/a	0	0	0
161425	REC_WORD_VV	wordpools/wasnorm_wordpool_576.txt	LTP115	ltpFR2	7	1	<>	-1	n/a	n/a	0	0	0
168072	REC_WORD	wordpools/wasnorm_wordpool_576.txt	LTP115	ltpFR2	7	1	MAMMAL	861	n/a	n/a	0	0	0
177421	REC_WORD	wordpools/wasnorm_wordpool_576.txt	LTP115	ltpFR2	7	1	SUPPER	1411	n/a	n/a	0	0	0
180380	REC_WORD	wordpools/wasnorm_wordpool_576.txt	LTP115	ltpFR2	7	1	PUPPY	1144	n/a	n/a	0	0	0
182583	REC_WORD	wordpools/wasnorm_wordpool_576.txt	LTP115	ltpFR2	7	1	PLUTO	1092	n/a	n/a	0	0	0
236818	DISTRACTOR	n/a	LTP115	ltpFR2	7	2	n/a	n/a	n/a	n/a	0	0	0
236819	START	n/a	LTP115	ltpFR2	7	n/a	n/a	n/a	2	n/a	n/a	n/a	n/a
236852	PROB	n/a	LTP115	ltpFR2	7	n/a	n/a	n/a	2	13	3	7	3
237983	PROB	n/a	LTP115	ltpFR2	7	n/a	n/a	n/a	2	23	9	8	6
240264	PROB	n/a	LTP115	ltpFR2	7	n/a	n/a	n/a	2	14	5	3	6
241579	PROB	n/a	LTP115	ltpFR2	7	n/a	n/a	n/a	2	17	9	2	6
243092	PROB	n/a	LTP115	ltpFR2	7	n/a	n/a	n/a	2	15	4	2	9
244441	PROB	n/a	LTP115	ltpFR2	7	n/a	n/a	n/a	2	21	6	8	7
248817	PROB	n/a	LTP115	ltpFR2	7	n/a	n/a	n/a	2	18	4	8	6
250566	PROB	n/a	LTP115	ltpFR2	7	n/a	n/a	n/a	2	11	2	7	2
251963	PROB	n/a	LTP115	ltpFR2	7	n/a	n/a	n/a	2	12	9	2	1
253578	PROB	n/a	LTP115	ltpFR2	7	n/a	n/a	n/a	2	18	8	8	2
254942	PROB	n/a	LTP115	ltpFR2	7	n/a	n/a	n/a	2	15	6	7	2
256739	PROB	n/a	LTP115	ltpFR2	7	n/a	n/a	n/a	2	11	2	4	5
257954	PROB	n/a	LTP115	ltpFR2	7	n/a	n/a	n/a	2	17	2	6	9
260043	STOP	n/a	LTP115	ltpFR2	7	n/a	n/a	n/a	2	n/a	n/a	n/a	n/a
262031	WORD	wordpools/wasnorm_wordpool_576.txt	LTP115	ltpFR2	7	2	VIKING	1565	n/a	n/a	0	0	0
264644	WORD	wordpools/wasnorm_wordpool_576.txt	LTP115	ltpFR2	7	2	ROCKET	1202	n/a	n/a	0	0	0
267391	WORD	wordpools/wasnorm_wordpool_576.txt	LTP115	ltpFR2	7	2	SIDEWALK	1303	n/a	n/a	0	0	0
269836	WORD	wordpools/wasnorm_wordpool_576.txt	LTP115	ltpFR2	7	2	QUEEN	1149	n/a	n/a	0	0	0
272666	WORD	wordpools/wasnorm_wordpool_576.txt	LTP115	ltpFR2	7	2	DRESS	495	n/a	n/a	0	0	0
275112	WORD	wordpools/wasnorm_wordpool_576.txt	LTP115	ltpFR2	7	2	SCULPTURE	1258	n/a	n/a	0	0	0
277841	WORD	wordpools/wasnorm_wordpool_576.txt	LTP115	ltpFR2	7	2	CRUTCH	417	n/a	n/a	0	0	0
280654	WORD	wordpools/wasnorm_wordpool_576.txt	LTP115	ltpFR2	7	2	DENIM	446	n/a	n/a	0	0	0
283368	WORD	wordpools/wasnorm_wordpool_576.txt	LTP115	ltpFR2	7	2	HIGHWAY	707	n/a	n/a	0	0	0
285913	WORD	wordpools/wasnorm_wordpool_576.txt	LTP115	ltpFR2	7	2	TERMITE	1451	n/a	n/a	0	0	0
288725	WORD	wordpools/wasnorm_wordpool_576.txt	LTP115	ltpFR2	7	2	TWIG	1527	n/a	n/a	0	0	0
291539	WORD	wordpools/wasnorm_wordpool_576.txt	LTP115	ltpFR2	7	2	NIGHTGOWN	953	n/a	n/a	0	0	0
294301	WORD	wordpools/wasnorm_wordpool_576.txt	LTP115	ltpFR2	7	2	MATTRESS	879	n/a	n/a	0	0	0
297080	WORD	wordpools/wasnorm_wordpool_576.txt	LTP115	ltpFR2	7	2	NOVEL	960	n/a	n/a	0	0	0
299511	WORD	wordpools/wasnorm_wordpool_576.txt	LTP115	ltpFR2	7	2	PASSAGE	1019	n/a	n/a	0	0	0
302206	WORD	wordpools/wasnorm_wordpool_576.txt	LTP115	ltpFR2	7	2	POPCORN	1104	n/a	n/a	0	0	0
304669	WORD	wordpools/wasnorm_wordpool_576.txt	LTP115	ltpFR2	7	2	PERMIT	1051	n/a	n/a	0	0	0
307316	WORD	wordpools/wasnorm_wordpool_576.txt	LTP115	ltpFR2	7	2	FRANCE	601	n/a	n/a	0	0	0
309844	WORD	wordpools/wasnorm_wordpool_576.txt	LTP115	ltpFR2	7	2	BLOUSE	139	n/a	n/a	0	0	0
312607	WORD	wordpools/wasnorm_wordpool_576.txt	LTP115	ltpFR2	7	2	VAGRANT	1544	n/a	n/a	0	0	0
315037	WORD	wordpools/wasnorm_wordpool_576.txt	LTP115	ltpFR2	7	2	NAPKIN	937	n/a	n/a	0	0	0
317633	WORD	wordpools/wasnorm_wordpool_576.txt	LTP115	ltpFR2	7	2	PREACHER	1119	n/a	n/a	0	0	0
320247	WORD	wordpools/wasnorm_wordpool_576.txt	LTP115	ltpFR2	7	2	HORNET	718	n/a	n/a	0	0	0
322809	WORD	wordpools/wasnorm_wordpool_576.txt	LTP115	ltpFR2	7	2	SLUG	1329	n/a	n/a	0	0	0
324424	START	n/a	LTP115	ltpFR2	7	n/a	n/a	n/a	3	n/a	n/a	n/a	n/a
325289	DISTRACTOR	n/a	LTP115	ltpFR2	7	2	n/a	n/a	n/a	n/a	0	0	0
325306	PROB	n/a	LTP115	ltpFR2	7	n/a	n/a	n/a	3	15	1	7	7
327336	PROB	n/a	LTP115	ltpFR2	7	n/a	n/a	n/a	3	19	7	8	4
328916	PROB	n/a	LTP115	ltpFR2	7	n/a	n/a	n/a	3	11	7	3	1
330181	PROB	n/a	LTP115	ltpFR2	7	n/a	n/a	n/a	3	17	9	7	1
331745	PROB	n/a	LTP115	ltpFR2	7	n/a	n/a	n/a	3	20	7	8	5
334559	PROB	n/a	LTP115	ltpFR2	7	n/a	n/a	n/a	3	13	3	1	9
335889	PROB	n/a	LTP115	ltpFR2	7	n/a	n/a	n/a	3	5	1	3	1
336771	PROB	n/a	LTP115	ltpFR2	7	n/a	n/a	n/a	3	12	2	3	7
338868	PROB	n/a	LTP115	ltpFR2	7	n/a	n/a	n/a	3	13	3	8	2
340100	PROB	n/a	LTP115	ltpFR2	7	n/a	n/a	n/a	3	20	6	9	5
342113	PROB	n/a	LTP115	ltpFR2	7	n/a	n/a	n/a	3	11	2	5	4
343661	PROB	n/a	LTP115	ltpFR2	7	n/a	n/a	n/a	3	19	7	5	7
345642	PROB	n/a	LTP115	ltpFR2	7	n/a	n/a	n/a	3	18	3	9	6
347406	STOP	n/a	LTP115	ltpFR2	7	n/a	n/a	n/a	3	n/a	n/a	n/a	n/a
350186	REC_START	n/a	LTP115	ltpFR2	7	2	n/a	n/a	n/a	n/a	0	0	0
351023	REC_WORD	wordpools/wasnorm_wordpool_576.txt	LTP115	ltpFR2	7	2	VAGRANT	1544	n/a	n/a	0	0	0
351870	REC_WORD	wordpools/wasnorm_wordpool_576.txt	LTP115	ltpFR2	7	2	PREACHER	1119	n/a	n/a	0	0	0
352869	REC_WORD	wordpools/wasnorm_wordpool_576.txt	LTP115	ltpFR2	7	2	NAPKIN	937	n/a	n/a	0	0	0
355641	REC_WORD	wordpools/wasnorm_wordpool_576.txt	LTP115	ltpFR2	7	2	HORNET	718	n/a	n/a	0	0	0
362371	REC_WORD	wordpools/wasnorm_wordpool_576.txt	LTP115	ltpFR2	7	2	VIKING	1565	n/a	n/a	0	0	0
363270	REC_WORD	wordpools/wasnorm_wordpool_576.txt	LTP115	ltpFR2	7	2	ROCKET	1202	n/a	n/a	0	0	0
364636	REC_WORD	wordpools/wasnorm_wordpool_576.txt	LTP115	ltpFR2	7	2	HIGHWAY	707	n/a	n/a	0	0	0
365618	REC_WORD	wordpools/wasnorm_wordpool_576.txt	LTP115	ltpFR2	7	2	NOVEL	960	n/a	n/a	0	0	0
366277	REC_WORD	wordpools/wasnorm_wordpool_576.txt	LTP115	ltpFR2	7	2	PASSAGE	1019	n/a	n/a	0	0	0
367039	REC_WORD	wordpools/wasnorm_wordpool_576.txt	LTP115	ltpFR2	7	2	POPCORN	1104	n/a	n/a	0	0	0
368434	REC_WORD	wordpools/wasnorm_wordpool_576.txt	LTP115	ltpFR2	7	2	QUEEN	1149	n/a	n/a	0	0	0
369118	REC_WORD	wordpools/wasnorm_wordpool_576.txt	LTP115	ltpFR2	7	2	STATUE	1374	n/a	n/a	0	0	0
370118	REC_WORD_VV	wordpools/wasnorm_wordpool_576.txt	LTP115	ltpFR2	7	2	<>	-1	n/a	n/a	0	0	0
371342	REC_WORD	wordpools/wasnorm_wordpool_576.txt	LTP115	ltpFR2	7	2	TERMITE	1451	n/a	n/a	0	0	0
371860	REC_WORD	wordpools/wasnorm_wordpool_576.txt	LTP115	ltpFR2	7	2	MATTRESS	879	n/a	n/a	0	0	0
372738	REC_WORD	wordpools/wasnorm_wordpool_576.txt	LTP115	ltpFR2	7	2	TWIG	1527	n/a	n/a	0	0	0
374438	REC_WORD	wordpools/wasnorm_wordpool_576.txt	LTP115	ltpFR2	7	2	DRESS	495	n/a	n/a	0	0	0
375453	REC_WORD	wordpools/wasnorm_wordpool_576.txt	LTP115	ltpFR2	7	2	NIGHTGOWN	953	n/a	n/a	0	0	0
376593	REC_WORD	wordpools/wasnorm_wordpool_576.txt	LTP115	ltpFR2	7	2	BLOUSE	139	n/a	n/a	0	0	0
377701	REC_WORD	wordpools/wasnorm_wordpool_576.txt	LTP115	ltpFR2	7	2	CRUTCH	417	n/a	n/a	0	0	0
378715	REC_WORD	wordpools/wasnorm_wordpool_576.txt	LTP115	ltpFR2	7	2	SIDEWALK	1303	n/a	n/a	0	0	0
379715	REC_WORD_VV	wordpools/wasnorm_wordpool_576.txt	LTP115	ltpFR2	7	2	<>	-1	n/a	n/a	0	0	0
385068	REC_WORD	wordpools/wasnorm_wordpool_576.txt	LTP115	ltpFR2	7	2	PERMIT	1051	n/a	n/a	0	0	0
396376	REC_WORD_VV	wordpools/wasnorm_wordpool_576.txt	LTP115	ltpFR2	7	2	<>	-1	n/a	n/a	0	0	0
418185	REC_WORD_VV	wordpools/wasnorm_wordpool_576.txt	LTP115	ltpFR2	7	2	<>	-1	n/a	n/a	0	0	0
440835	DISTRACTOR	n/a	LTP115	ltpFR2	7	3	n/a	n/a	n/a	n/a	0	0	0
440835	START	n/a	LTP115	ltpFR2	7	n/a	n/a	n/a	4	n/a	n/a	n/a	n/a
440868	PROB	n/a	LTP115	ltpFR2	7	n/a	n/a	n/a	4	13	6	5	2
442367	PROB	n/a	LTP115	ltpFR2	7	n/a	n/a	n/a	4	16	8	6	2
443797	PROB	n/a	LTP115	ltpFR2	7	n/a	n/a	n/a	4	16	9	1	6
444846	PROB	n/a	LTP115	ltpFR2	7	n/a	n/a	n/a	4	14	8	4	2
446328	PROB	n/a	LTP115	ltpFR2	7	n/a	n/a	n/a	4	18	8	3	6
447841	PROB	n/a	LTP115	ltpFR2	7	n/a	n/a	n/a	4	18	5	5	8
449123	PROB	n/a	LTP115	ltpFR2	7	n/a	n/a	n/a	4	9	5	3	1
450937	PROB	n/a	LTP115	ltpFR2	7	n/a	n/a	n/a	4	17	8	6	3
452519	PROB	n/a	LTP115	ltpFR2	7	n/a	n/a	n/a	4	20	4	9	7
454516	PROB	n/a	LTP115	ltpFR2	7	n/a	n/a	n/a	4	15	9	4	2
456079	PROB	n/a	LTP115	ltpFR2	7	n/a	n/a	n/a	4	21	9	7	5
458110	PROB	n/a	LTP115	ltpFR2	7	n/a	n/a	n/a	4	15	7	1	7
459409	PROB	n/a	LTP115	ltpFR2	7	n/a	n/a	n/a	4	15	2	6	7
461139	PROB	n/a	LTP115	ltpFR2	7	n/a	n/a	n/a	4	17	9	2	6
463203	PROB	n/a	LTP115	ltpFR2	7	n/a	n/a	n/a	4	19	3	7	9
464296	STOP	n/a	LTP115	ltpFR2	7	n/a	n/a	n/a	4	n/a	n/a	n/a	n/a
465981	WORD	wordpools/wasnorm_wordpool_576.txt	LTP115	ltpFR2	7	3	MISTER	901	n/a	n/a	0	0	0
468579	WORD	wordpools/wasnorm_wordpool_576.txt	LTP115	ltpFR2	7	3	JEANS	752	n/a	n/a	0	0	0
471374	WORD	wordpools/wasnorm_wordpool_576.txt	LTP115	ltpFR2	7	3	ZIPPER	1636	n/a	n/a	0	0	0
474086	WORD	wordpools/wasnorm_wordpool_576.txt	LTP115	ltpFR2	7	3	WOMAN	1620	n/a	n/a	0	0	0
476882	WORD	wordpools/wasnorm_wordpool_576.txt	LTP115	ltpFR2	7	3	MILDEW	893	n/a	n/a	0	0	0
479529	WORD	wordpools/wasnorm_wordpool_576.txt	LTP115	ltpFR2	7	3	VALVE	1546	n/a	n/a	0	0	0
482292	WORD	wordpools/wasnorm_wordpool_576.txt	LTP115	ltpFR2	7	3	MARSH	874	n/a	n/a	0	0	0
484937	WORD	wordpools/wasnorm_wordpool_576.txt	LTP115	ltpFR2	7	3	DRIVER	499	n/a	n/a	0	0	0
487567	WORD	wordpools/wasnorm_wordpool_576.txt	LTP115	ltpFR2	7	3	GIRL	637	n/a	n/a	0	0	0
490363	WORD	wordpools/wasnorm_wordpool_576.txt	LTP115	ltpFR2	7	3	TURKEY	1520	n/a	n/a	0	0	0
493158	WORD	wordpools/wasnorm_wordpool_576.txt	LTP115	ltpFR2	7	3	TRUCK	1512	n/a	n/a	0	0	0
495904	WORD	wordpools/wasnorm_wordpool_576.txt	LTP115	ltpFR2	7	3	COOKBOOK	373	n/a	n/a	0	0	0
498351	WORD	wordpools/wasnorm_wordpool_576.txt	LTP115	ltpFR2	7	3	PIGEON	1065	n/a	n/a	0	0	0
501046	WORD	wordpools/wasnorm_wordpool_576.txt	LTP115	ltpFR2	7	3	FOX	598	n/a	n/a	0	0	0
503577	WORD	wordpools/wasnorm_wordpool_576.txt	LTP115	ltpFR2	7	3	DINER	467	n/a	n/a	0	0	0
506106	WORD	wordpools/wasnorm_wordpool_576.txt	LTP115	ltpFR2	7	3	SALAD	1224	n/a	n/a	0	0	0
508885	WORD	wordpools/wasnorm_wordpool_576.txt	LTP115	ltpFR2	7	3	TWEEZERS	1526	n/a	n/a	0	0	0
511532	WORD	wordpools/wasnorm_wordpool_576.txt	LTP115	ltpFR2	7	3	CATTLE	261	n/a	n/a	0	0	0
514177	WORD	wordpools/wasnorm_wordpool_576.txt	LTP115	ltpFR2	7	3	QUAIL	1147	n/a	n/a	0	0	0
516740	WORD	wordpools/wasnorm_wordpool_576.txt	LTP115	ltpFR2	7	3	SLIDE	1326	n/a	n/a	0	0	0
519504	WORD	wordpools/wasnorm_wordpool_576.txt	LTP115	ltpFR2	7	3	PLAYGROUND	1087	n/a	n/a	0	0	0
521999	WORD	wordpools/wasnorm_wordpool_576.txt	LTP115	ltpFR2	7	3	SCRIBBLE	1256	n/a	n/a	0	0	0
524745	WORD	wordpools/wasnorm_wordpool_576.txt	LTP115	ltpFR2	7	3	NURSE	963	n/a	n/a	0	0	0
527509	WORD	wordpools/wasnorm_wordpool_576.txt	LTP115	ltpFR2	7	3	EXPERT	543	n/a	n/a	0	0	0
529122	START	n/a	LTP115	ltpFR2	7	n/a	n/a	n/a	5	n/a	n/a	n/a	n/a
530027	DISTRACTOR	n/a	LTP115	ltpFR2	7	3	n/a	n/a	n/a	n/a	0	0	0
530037	PROB	n/a	LTP115	ltpFR2	7	n/a	n/a	n/a	5	15	7	4	4
533133	PROB	n/a	LTP115	ltpFR2	7	n/a	n/a	n/a	5	2	9	5	9
535696	PROB	n/a	LTP115	ltpFR2	7	n/a	n/a	n/a	5	13	7	2	1
537344	PROB	n/a	LTP115	ltpFR2	7	n/a	n/a	n/a	5	11	1	2	8
539124	PROB	n/a	LTP115	ltpFR2	7	n/a	n/a	n/a	5	25	9	9	7
543051	PROB	n/a	LTP115	ltpFR2	7	n/a	n/a	n/a	5	14	5	2	7
544849	PROB	n/a	LTP115	ltpFR2	7	n/a	n/a	n/a	5	14	7	4	3
547296	PROB	n/a	LTP115	ltpFR2	7	n/a	n/a	n/a	5	5	3	1	1
548411	PROB	n/a	LTP115	ltpFR2	7	n/a	n/a	n/a	5	14	5	8	1
549925	PROB	n/a	LTP115	ltpFR2	7	n/a	n/a	n/a	5	15	9	1	5
550973	PROB	n/a	LTP115	ltpFR2	7	n/a	n/a	n/a	5	18	4	5	9
552585	STOP	n/a	LTP115	ltpFR2	7	n/a	n/a	n/a	5	n/a	n/a	n/a	n/a
554885	REC_START	n/a	LTP115	ltpFR2	7	3	n/a	n/a	n/a	n/a	0	0	0
555976	REC_WORD	wordpools/wasnorm_wordpool_576.txt	LTP115	ltpFR2	7	3	MISTER	901	n/a	n/a	0	0	0
558627	REC_WORD	wordpools/wasnorm_wordpool_576.txt	LTP115	ltpFR2	7	3	JEANS	752	n/a	n/a	0	0	0
559425	REC_WORD	wordpools/wasnorm_wordpool_576.txt	LTP115	ltpFR2	7	3	ZIPPER	1636	n/a	n/a	0	0	0
560310	REC_WORD	wordpools/wasnorm_wordpool_576.txt	LTP115	ltpFR2	7	3	WOMAN	1620	n/a	n/a	0	0	0
562254	REC_WORD	wordpools/wasnorm_wordpool_576.txt	LTP115	ltpFR2	7	3	GIRL	637	n/a	n/a	0	0	0
563268	REC_WORD	wordpools/wasnorm_wordpool_576.txt	LTP115	ltpFR2	7	3	TWEEZERS	1526	n/a	n/a	0	0	0
564268	REC_WORD_VV	wordpools/wasnorm_wordpool_576.txt	LTP115	ltpFR2	7	3	<>	-1	n/a	n/a	0	0	0
566698	REC_WORD	wordpools/wasnorm_wordpool_576.txt	LTP115	ltpFR2	7	3	DRIVER	499	n/a	n/a	0	0	0
568049	REC_WORD	wordpools/wasnorm_wordpool_576.txt	LTP115	ltpFR2	7	3	TRUCK	1512	n/a	n/a	0	0	0
569871	REC_WORD	wordpools/wasnorm_wordpool_576.txt	LTP115	ltpFR2	7	3	COOKBOOK	373	n/a	n/a	0	0	0
570741	REC_WORD	wordpools/wasnorm_wordpool_576.txt	LTP115	ltpFR2	7	3	TURKEY	1520	n/a	n/a	0	0	0
571599	REC_WORD	wordpools/wasnorm_wordpool_576.txt	LTP115	ltpFR2	7	3	QUAIL	1147	n/a	n/a	0	0	0
573745	REC_WORD	wordpools/wasnorm_wordpool_576.txt	LTP115	ltpFR2	7	3	PIGEON	1065	n/a	n/a	0	0	0
574472	REC_WORD	wordpools/wasnorm_wordpool_576.txt	LTP115	ltpFR2	7	3	FOX	598	n/a	n/a	0	0	0
575817	REC_WORD	wordpools/wasnorm_wordpool_576.txt	LTP115	ltpFR2	7	3	CATTLE	261	n/a	n/a	0	0	0
577256	REC_WORD	wordpools/wasnorm_wordpool_576.txt	LTP115	ltpFR2	7	3	PLAYGROUND	1087	n/a	n/a	0	0	0
578163	REC_WORD	wordpools/wasnorm_wordpool_576.txt	LTP115	ltpFR2	7	3	SLIDE	1326	n/a	n/a	0	0	0
578932	REC_WORD	wordpools/wasnorm_wordpool_576.txt	LTP115	ltpFR2	7	3	SCRIBBLE	1256	n/a	n/a	0	0	0
580433	REC_WORD	wordpools/wasnorm_wordpool_576.txt	LTP115	ltpFR2	7	3	GIRL	637	n/a	n/a	0	0	0
583461	REC_WORD	wordpools/wasnorm_wordpool_576.txt	LTP115	ltpFR2	7	3	EXPERT	543	n/a	n/a	0	0	0
584283	REC_WORD	wordpools/wasnorm_wordpool_576.txt	LTP115	ltpFR2	7	3	NURSE	963	n/a	n/a	0	0	0
597737	REC_WORD_VV	wordpools/wasnorm_wordpool_576.txt	LTP115	ltpFR2	7	3	<>	-1	n/a	n/a	0	0	0
628708	REC_WORD	wordpools/wasnorm_wordpool_576.txt	LTP115	ltpFR2	7	3	MILDEW	893	n/a	n/a	0	0	0
645552	WORD	wordpools/wasnorm_wordpool_576.txt	LTP115	ltpFR2	7	4	OUTFIT	988	n/a	n/a	0	0	0
648264	WORD	wordpools/wasnorm_wordpool_576.txt	LTP115	ltpFR2	7	4	LACE	792	n/a	n/a	0	0	0
650710	WORD	wordpools/wasnorm_wordpool_576.txt	LTP115	ltpFR2	7	4	MATCH	878	n/a	n/a	0	0	0
653373	WORD	wordpools/wasnorm_wordpool_576.txt	LTP115	ltpFR2	7	4	FEMALE	559	n/a	n/a	0	0	0
656069	WORD	wordpools/wasnorm_wordpool_576.txt	LTP115	ltpFR2	7	4	SPHINX	1349	n/a	n/a	0	0	0
658748	WORD	wordpools/wasnorm_wordpool_576.txt	LTP115	ltpFR2	7	4	TEMPLE	1448	n/a	n/a	0	0	0
661462	WORD	wordpools/wasnorm_wordpool_576.txt	LTP115	ltpFR2	7	4	WORKER	1621	n/a	n/a	0	0	0
664140	WORD	wordpools/wasnorm_wordpool_576.txt	LTP115	ltpFR2	7	4	SAUSAGE	1238	n/a	n/a	0	0	0
666886	WORD	wordpools/wasnorm_wordpool_576.txt	LTP115	ltpFR2	7	4	FIDDLE	561	n/a	n/a	0	0	0
669566	WORD	wordpools/wasnorm_wordpool_576.txt	LTP115	ltpFR2	7	4	CONCERT	360	n/a	n/a	0	0	0
672162	WORD	wordpools/wasnorm_wordpool_576.txt	LTP115	ltpFR2	7	4	HAMPER	682	n/a	n/a	0	0	0
674841	WORD	wordpools/wasnorm_wordpool_576.txt	LTP115	ltpFR2	7	4	HEART	697	n/a	n/a	0	0	0
677388	WORD	wordpools/wasnorm_wordpool_576.txt	LTP115	ltpFR2	7	4	QUARTER	1148	n/a	n/a	0	0	0
679967	WORD	wordpools/wasnorm_wordpool_576.txt	LTP115	ltpFR2	7	4	PIZZA	1079	n/a	n/a	0	0	0
682531	WORD	wordpools/wasnorm_wordpool_576.txt	LTP115	ltpFR2	7	4	UMPIRE	1535	n/a	n/a	0	0	0
685176	WORD	wordpools/wasnorm_wordpool_576.txt	LTP115	ltpFR2	7	4	WRIST	1626	n/a	n/a	0	0	0
687772	WORD	wordpools/wasnorm_wordpool_576.txt	LTP115	ltpFR2	7	4	BANQUET	86	n/a	n/a	0	0	0
690369	WORD	wordpools/wasnorm_wordpool_576.txt	LTP115	ltpFR2	7	4	OFFICE	972	n/a	n/a	0	0	0
692848	WORD	wordpools/wasnorm_wordpool_576.txt	LTP115	ltpFR2	7	4	SCARECROW	1245	n/a	n/a	0	0	0
695395	WORD	wordpools/wasnorm_wordpool_576.txt	LTP115	ltpFR2	7	4	HAWK	692	n/a	n/a	0	0	0
698090	WORD	wordpools/wasnorm_wordpool_576.txt	LTP115	ltpFR2	7	4	BANKER	84	n/a	n/a	0	0	0
700571	WORD	wordpools/wasnorm_wordpool_576.txt	LTP115	ltpFR2	7	4	BELLY	119	n/a	n/a	0	0	0
703333	WORD	wordpools/wasnorm_wordpool_576.txt	LTP115	ltpFR2	7	4	BOUQUET	157	n/a	n/a	0	0	0
705845	WORD	wordpools/wasnorm_wordpool_576.txt	LTP115	ltpFR2	7	4	JUGGLER	763	n/a	n/a	0	0	0
707461	START	n/a	LTP115	ltpFR2	7	n/a	n/a	n/a	6	n/a	n/a	n/a	n/a
708361	DISTRACTOR	n/a	LTP115	ltpFR2	7	4	n/a	n/a	n/a	n/a	0	0	0
708376	PROB	n/a	LTP115	ltpFR2	7	n/a	n/a	n/a	6	11	7	3	1
709740	PROB	n/a	LTP115	ltpFR2	7	n/a	n/a	n/a	6	9	5	2	2
711138	PROB	n/a	LTP115	ltpFR2	7	n/a	n/a	n/a	6	15	1	7	7
713068	PROB	n/a	LTP115	ltpFR2	7	n/a	n/a	n/a	6	13	5	2	6
714500	PROB	n/a	LTP115	ltpFR2	7	n/a	n/a	n/a	6	10	6	3	1
715731	PROB	n/a	LTP115	ltpFR2	7	n/a	n/a	n/a	6	24	9	8	7
717446	PROB	n/a	LTP115	ltpFR2	7	n/a	n/a	n/a	6	13	4	7	2
718943	PROB	n/a	LTP115	ltpFR2	7	n/a	n/a	n/a	6	18	9	7	2
721340	PROB	n/a	LTP115	ltpFR2	7	n/a	n/a	n/a	6	21	6	9	6
723170	PROB	n/a	LTP115	ltpFR2	7	n/a	n/a	n/a	6	19	8	9	2
724934	PROB	n/a	LTP115	ltpFR2	7	n/a	n/a	n/a	6	19	4	9	6
726698	PROB	n/a	LTP115	ltpFR2	7	n/a	n/a	n/a	6	18	3	6	9
728013	PROB	n/a	LTP115	ltpFR2	7	n/a	n/a	n/a	6	8	2	4	2
730422	STOP	n/a	LTP115	ltpFR2	7	n/a	n/a	n/a	6	n/a	n/a	n/a	n/a
733356	REC_START	n/a	LTP115	ltpFR2	7	4	n/a	n/a	n/a	n/a	0	0	0
734934	REC_WORD	wordpools/wasnorm_wordpool_576.txt	LTP115	ltpFR2	7	4	BANQUET	86	n/a	n/a	0	0	0
735597	REC_WORD	wordpools/wasnorm_wordpool_576.txt	LTP115	ltpFR2	7	4	BOUQUET	157	n/a	n/a	0	0	0
737218	REC_WORD	wordpools/wasnorm_wordpool_576.txt	LTP115	ltpFR2	7	4	QUARTER	1148	n/a	n/a	0	0	0
738519	REC_WORD	wordpools/wasnorm_wordpool_576.txt	LTP115	ltpFR2	7	4	UMPIRE	1535	n/a	n/a	0	0	0
740037	REC_WORD	wordpools/wasnorm_wordpool_576.txt	LTP115	ltpFR2	7	4	SAUSAGE	1238	n/a	n/a	0	0	0
741037	REC_WORD_VV	wordpools/wasnorm_wordpool_576.txt	LTP115	ltpFR2	7	4	<>	-1	n/a	n/a	0	0	0
741674	REC_WORD	wordpools/wasnorm_wordpool_576.txt	LTP115	ltpFR2	7	4	PIZZA	1079	n/a	n/a	0	0	0
743095	REC_WORD	wordpools/wasnorm_wordpool_576.txt	LTP115	ltpFR2	7	4	BELLY	119	n/a	n/a	0	0	0
744422	REC_WORD	wordpools/wasnorm_wordpool_576.txt	LTP115	ltpFR2	7	4	WORKER	1621	n/a	n/a	0	0	0
745817	REC_WORD	wordpools/wasnorm_wordpool_576.txt	LTP115	ltpFR2	7	4	TEMPLE	1448	n/a	n/a	0	0	0
746909	REC_WORD	wordpools/wasnorm_wordpool_576.txt	LTP115	ltpFR2	7	4	SPHINX	1349	n/a	n/a	0	0	0
747909	REC_WORD_VV	wordpools/wasnorm_wordpool_576.txt	LTP115	ltpFR2	7	4	<>	-1	n/a	n/a	0	0	0
748981	REC_WORD	wordpools/wasnorm_wordpool_576.txt	LTP115	ltpFR2	7	4	FEMALE	559	n/a	n/a	0	0	0
749981	REC_WORD_VV	wordpools/wasnorm_wordpool_576.txt	LTP115	ltpFR2	7	4	<>	-1	n/a	n/a	0	0	0
752922	REC_WORD	wordpools/wasnorm_wordpool_576.txt	LTP115	ltpFR2	7	4	OUTFIT	988	n/a	n/a	0	0	0
754054	REC_WORD	wordpools/wasnorm_wordpool_576.txt	LTP115	ltpFR2	7	4	LACE	792	n/a	n/a	0	0	0
755156	REC_WORD	wordpools/wasnorm_wordpool_576.txt	LTP115	ltpFR2	7	4	MATCH	878	n/a	n/a	0	0	0
765082	REC_WORD	wordpools/wasnorm_wordpool_576.txt	LTP115	ltpFR2	7	4	BANKER	84	n/a	n/a	0	0	0
768039	REC_WORD	wordpools/wasnorm_wordpool_576.txt	LTP115	ltpFR2	7	4	HAWK	692	n/a	n/a	0	0	0
768786	REC_WORD	wordpools/wasnorm_wordpool_576.txt	LTP115	ltpFR2	7	4	SCARECROW	1245	n/a	n/a	0	0	0
769786	REC_WORD_VV	wordpools/wasnorm_wordpool_576.txt	LTP115	ltpFR2	7	4	<>	-1	n/a	n/a	0	0	0
824022	WORD	wordpools/wasnorm_wordpool_576.txt	LTP115	ltpFR2	7	5	CELLAR	267	n/a	n/a	0	0	0
826486	WORD	wordpools/wasnorm_wordpool_576.txt	LTP115	ltpFR2	7	5	SUBWAY	1400	n/a	n/a	0	0	0
829147	WORD	wordpools/wasnorm_wordpool_576.txt	LTP115	ltpFR2	7	5	PASTRY	1022	n/a	n/a	0	0	0
831860	WORD	wordpools/wasnorm_wordpool_576.txt	LTP115	ltpFR2	7	5	HONEY	713	n/a	n/a	0	0	0
834341	WORD	wordpools/wasnorm_wordpool_576.txt	LTP115	ltpFR2	7	5	PATIENT	1024	n/a	n/a	0	0	0
837152	WORD	wordpools/wasnorm_wordpool_576.txt	LTP115	ltpFR2	7	5	LAKE	796	n/a	n/a	0	0	0
839832	WORD	wordpools/wasnorm_wordpool_576.txt	LTP115	ltpFR2	7	5	CLOTHES	327	n/a	n/a	0	0	0
842346	WORD	wordpools/wasnorm_wordpool_576.txt	LTP115	ltpFR2	7	5	SKETCH	1315	n/a	n/a	0	0	0
845124	WORD	wordpools/wasnorm_wordpool_576.txt	LTP115	ltpFR2	7	5	TABLE	1426	n/a	n/a	0	0	0
847670	WORD	wordpools/wasnorm_wordpool_576.txt	LTP115	ltpFR2	7	5	DRAWING	494	n/a	n/a	0	0	0
850150	WORD	wordpools/wasnorm_wordpool_576.txt	LTP115	ltpFR2	7	5	FRUIT	610	n/a	n/a	0	0	0
852846	WORD	wordpools/wasnorm_wordpool_576.txt	LTP115	ltpFR2	7	5	MUFFIN	929	n/a	n/a	0	0	0
855460	WORD	wordpools/wasnorm_wordpool_576.txt	LTP115	ltpFR2	7	5	FRAME	600	n/a	n/a	0	0	0
858038	WORD	wordpools/wasnorm_wordpool_576.txt	LTP115	ltpFR2	7	5	RAFT	1159	n/a	n/a	0	0	0
860486	WORD	wordpools/wasnorm_wordpool_576.txt	LTP115	ltpFR2	7	5	VICTIM	1562	n/a	n/a	0	0	0
863131	WORD	wordpools/wasnorm_wordpool_576.txt	LTP115	ltpFR2	7	5	MUMMY	932	n/a	n/a	0	0	0
865677	WORD	wordpools/wasnorm_wordpool_576.txt	LTP115	ltpFR2	7	5	EGYPT	519	n/a	n/a	0	0	0
868391	WORD	wordpools/wasnorm_wordpool_576.txt	LTP115	ltpFR2	7	5	WINDOW	1611	n/a	n/a	0	0	0
871052	WORD	wordpools/wasnorm_wordpool_576.txt	LTP115	ltpFR2	7	5	SUITCASE	1403	n/a	n/a	0	0	0
873732	WORD	wordpools/wasnorm_wordpool_576.txt	LTP115	ltpFR2	7	5	KEEPER	769	n/a	n/a	0	0	0
876229	WORD	wordpools/wasnorm_wordpool_576.txt	LTP115	ltpFR2	7	5	STREAM	1392	n/a	n/a	0	0	0
878658	WORD	wordpools/wasnorm_wordpool_576.txt	LTP115	ltpFR2	7	5	CHEMIST	292	n/a	n/a	0	0	0
881388	WORD	wordpools/wasnorm_wordpool_576.txt	LTP115	ltpFR2	7	5	RUST	1219	n/a	n/a	0	0	0
884167	WORD	wordpools/wasnorm_wordpool_576.txt	LTP115	ltpFR2	7	5	MOTOR	922	n/a	n/a	0	0	0
885781	START	n/a	LTP115	ltpFR2	7	n/a	n/a	n/a	7	n/a	n/a	n/a	n/a
886610	DISTRACTOR	n/a	LTP115	ltpFR2	7	5	n/a	n/a	n/a	n/a	0	0	0
886613	PROB	n/a	LTP115	ltpFR2	7	n/a	n/a	n/a	7	7	1	1	5
888161	PROB	n/a	LTP115	ltpFR2	7	n/a	n/a	n/a	7	10	3	5	2
890242	PROB	n/a	LTP115	ltpFR2	7	n/a	n/a	n/a	7	16	4	4	8
891972	PROB	n/a	LTP115	ltpFR2	7	n/a	n/a	n/a	7	14	2	8	4
894203	PROB	n/a	LTP115	ltpFR2	7	n/a	n/a	n/a	7	19	4	6	9
895551	PROB	n/a	LTP115	ltpFR2	7	n/a	n/a	n/a	7	12	2	8	2
896815	PROB	n/a	LTP115	ltpFR2	7	n/a	n/a	n/a	7	22	7	7	8
899694	PROB	n/a	LTP115	ltpFR2	7	n/a	n/a	n/a	7	21	7	7	7
901008	PROB	n/a	LTP115	ltpFR2	7	n/a	n/a	n/a	7	22	8	9	5
904504	PROB	n/a	LTP115	ltpFR2	7	n/a	n/a	n/a	7	10	3	4	3
907284	PROB	n/a	LTP115	ltpFR2	7	n/a	n/a	n/a	7	14	3	7	4
908546	STOP	n/a	LTP115	ltpFR2	7	n/a	n/a	n/a	7	n/a	n/a	n/a	n/a
911677	REC_START	n/a	LTP115	ltpFR2	7	5	n/a	n/a	n/a	n/a	0	0	0
913721	REC_WORD	wordpools/wasnorm_wordpool_576.txt	LTP115	ltpFR2	7	5	CELLAR	267	n/a	n/a	0	0	0
915010	REC_WORD	wordpools/wasnorm_wordpool_576.txt	LTP115	ltpFR2	7	5	WINDOW	1611	n/a	n/a	0	0	0
917277	REC_WORD	wordpools/wasnorm_wordpool_576.txt	LTP115	ltpFR2	7	5	RUST	1219	n/a	n/a	0	0	0
918890	REC_WORD	wordpools/wasnorm_wordpool_576.txt	LTP115	ltpFR2	7	5	MOTOR	922	n/a	n/a	0	0	0
920063	REC_WORD	wordpools/wasnorm_wordpool_576.txt	LTP115	ltpFR2	7	5	SUBWAY	1400	n/a	n/a	0	0	0
921871	REC_WORD	wordpools/wasnorm_wordpool_576.txt	LTP115	ltpFR2	7	5	STREAM	1392	n/a	n/a	0	0	0
923062	REC_WORD	wordpools/wasnorm_wordpool_576.txt	LTP115	ltpFR2	7	5	CHEMIST	292	n/a	n/a	0	0	0
924577	REC_WORD	wordpools/wasnorm_wordpool_576.txt	LTP115	ltpFR2	7	5	PATIENT	1024	n/a	n/a	0	0	0
926871	REC_WORD	wordpools/wasnorm_wordpool_576.txt	LTP115	ltpFR2	7	5	KEEPER	769	n/a	n/a	0	0	0
927496	REC_WORD	wordpools/wasnorm_wordpool_576.txt	LTP115	ltpFR2	7	5	SUITCASE	1403	n/a	n/a	0	0	0
928496	REC_WORD_VV	wordpools/wasnorm_wordpool_576.txt	LTP115	ltpFR2	7	5	<>	-1	n/a	n/a	0	0	0
929528	REC_WORD	wordpools/wasnorm_wordpool_576.txt	LTP115	ltpFR2	7	5	DRAWING	494	n/a	n/a	0	0	0
930664	REC_WORD	wordpools/wasnorm_wordpool_576.txt	LTP115	ltpFR2	7	5	TABLE	1426	n/a	n/a	0	0	0
931746	REC_WORD	wordpools/wasnorm_wordpool_576.txt	LTP115	ltpFR2	7	5	LAKE	796	n/a	n/a	0	0	0
932858	REC_WORD	wordpools/wasnorm_wordpool_576.txt	LTP115	ltpFR2	7	5	CLOTHES	327	n/a	n/a	0	0	0
934124	REC_WORD	wordpools/wasnorm_wordpool_576.txt	LTP115	ltpFR2	7	5	FRAME	600	n/a	n/a	0	0	0
935782	REC_WORD	wordpools/wasnorm_wordpool_576.txt	LTP115	ltpFR2	7	5	HONEY	713	n/a	n/a	0	0	0
936685	REC_WORD	wordpools/wasnorm_wordpool_576.txt	LTP115	ltpFR2	7	5	TART	1436	n/a	n/a	0	0	0
937330	REC_WORD	wordpools/wasnorm_wordpool_576.txt	LTP115	ltpFR2	7	5	MUFFIN	929	n/a	n/a	0	0	0
938833	REC_WORD	wordpools/wasnorm_wordpool_576.txt	LTP115	ltpFR2	7	5	FRUIT	610	n/a	n/a	0	0	0
945829	REC_WORD	wordpools/wasnorm_wordpool_576.txt	LTP115	ltpFR2	7	5	VICTIM	1562	n/a	n/a	0	0	0
946941	REC_WORD	wordpools/wasnorm_wordpool_576.txt	LTP115	ltpFR2	7	5	EGYPT	519	n/a	n/a	0	0	0
947881	REC_WORD	wordpools/wasnorm_wordpool_576.txt	LTP115	ltpFR2	7	5	MUMMY	932	n/a	n/a	0	0	0
1002327	DISTRACTOR	n/a	LTP115	ltpFR2	7	6	n/a	n/a	n/a	n/a	0	0	0
1002327	START	n/a	LTP115	ltpFR2	7	n/a	n/a	n/a	8	n/a	n/a	n/a	n/a
1002360	PROB	n/a	LTP115	ltpFR2	7	n/a	n/a	n/a	8	25	9	7	9
1004491	PROB	n/a	LTP115	ltpFR2	7	n/a	n/a	n/a	8	14	4	1	9
1006255	PROB	n/a	LTP115	ltpFR2	7	n/a	n/a	n/a	8	15	4	4	7
1007951	PROB	n/a	LTP115	ltpFR2	7	n/a	n/a	n/a	8	17	3	5	9
1009567	PROB	n/a	LTP115	ltpFR2	7	n/a	n/a	n/a	8	18	3	7	8
1010764	PROB	n/a	LTP115	ltpFR2	7	n/a	n/a	n/a	8	12	5	6	1
1011995	PROB	n/a	LTP115	ltpFR2	7	n/a	n/a	n/a	8	18	7	7	4
1013244	PROB	n/a	LTP115	ltpFR2	7	n/a	n/a	n/a	8	10	7	2	1
1014658	PROB	n/a	LTP115	ltpFR2	7	n/a	n/a	n/a	8	13	1	6	6
1015890	PROB	n/a	LTP115	ltpFR2	7	n/a	n/a	n/a	8	15	5	3	7
1017338	PROB	n/a	LTP115	ltpFR2	7	n/a	n/a	n/a	8	14	7	4	3
1018769	PROB	n/a	LTP115	ltpFR2	7	n/a	n/a	n/a	8	12	4	1	7
1020033	PROB	n/a	LTP115	ltpFR2	7	n/a	n/a	n/a	8	15	1	9	5
1021132	PROB	n/a	LTP115	ltpFR2	7	n/a	n/a	n/a	8	23	9	9	5
1022531	PROB	n/a	LTP115	ltpFR2	7	n/a	n/a	n/a	8	17	5	9	3
1024111	PROB	n/a	LTP115	ltpFR2	7	n/a	n/a	n/a	8	17	7	2	8
1025796	STOP	n/a	LTP115	ltpFR2	7	n/a	n/a	n/a	8	n/a	n/a	n/a	n/a
1027274	WORD	wordpools/wasnorm_wordpool_576.txt	LTP115	ltpFR2	7	6	MAPLE	866	n/a	n/a	0	0	0
1030085	WORD	wordpools/wasnorm_wordpool_576.txt	LTP115	ltpFR2	7	6	WITNESS	1618	n/a	n/a	0	0	0
1032598	WORD	wordpools/wasnorm_wordpool_576.txt	LTP115	ltpFR2	7	6	RATTLE	1170	n/a	n/a	0	0	0
1035345	WORD	wordpools/wasnorm_wordpool_576.txt	LTP115	ltpFR2	7	6	SHOULDER	1294	n/a	n/a	0	0	0
1037890	WORD	wordpools/wasnorm_wordpool_576.txt	LTP115	ltpFR2	7	6	PORTRAIT	1111	n/a	n/a	0	0	0
1040670	WORD	wordpools/wasnorm_wordpool_576.txt	LTP115	ltpFR2	7	6	COBRA	336	n/a	n/a	0	0	0
1043250	WORD	wordpools/wasnorm_wordpool_576.txt	LTP115	ltpFR2	7	6	BRIEFCASE	175	n/a	n/a	0	0	0
1045696	WORD	wordpools/wasnorm_wordpool_576.txt	LTP115	ltpFR2	7	6	WIFE	1609	n/a	n/a	0	0	0
1048193	WORD	wordpools/wasnorm_wordpool_576.txt	LTP115	ltpFR2	7	6	INMATE	738	n/a	n/a	0	0	0
1050705	WORD	wordpools/wasnorm_wordpool_576.txt	LTP115	ltpFR2	7	6	CAMEL	223	n/a	n/a	0	0	0
1053319	WORD	wordpools/wasnorm_wordpool_576.txt	LTP115	ltpFR2	7	6	CRICKET	408	n/a	n/a	0	0	0
1056114	WORD	wordpools/wasnorm_wordpool_576.txt	LTP115	ltpFR2	7	6	CANDY	230	n/a	n/a	0	0	0
1058544	WORD	wordpools/wasnorm_wordpool_576.txt	LTP115	ltpFR2	7	6	TRIBE	1505	n/a	n/a	0	0	0
1061207	WORD	wordpools/wasnorm_wordpool_576.txt	LTP115	ltpFR2	7	6	NOMAD	955	n/a	n/a	0	0	0
1063985	WORD	wordpools/wasnorm_wordpool_576.txt	LTP115	ltpFR2	7	6	FRECKLE	602	n/a	n/a	0	0	0
1066715	WORD	wordpools/wasnorm_wordpool_576.txt	LTP115	ltpFR2	7	6	SUMMIT	1405	n/a	n/a	0	0	0
1069495	WORD	wordpools/wasnorm_wordpool_576.txt	LTP115	ltpFR2	7	6	BEEF	113	n/a	n/a	0	0	0
1072224	WORD	wordpools/wasnorm_wordpool_576.txt	LTP115	ltpFR2	7	6	COOK	372	n/a	n/a	0	0	0
1075003	WORD	wordpools/wasnorm_wordpool_576.txt	LTP115	ltpFR2	7	6	OUTLAW	989	n/a	n/a	0	0	0
1077517	WORD	wordpools/wasnorm_wordpool_576.txt	LTP115	ltpFR2	7	6	BREAST	171	n/a	n/a	0	0	0
1080062	WORD	wordpools/wasnorm_wordpool_576.txt	LTP115	ltpFR2	7	6	JELLY	755	n/a	n/a	0	0	0
1082808	WORD	wordpools/wasnorm_wordpool_576.txt	LTP115	ltpFR2	7	6	POSTAGE	1113	n/a	n/a	0	0	0
1085555	WORD	wordpools/wasnorm_wordpool_576.txt	LTP115	ltpFR2	7	6	MAILBOX	857	n/a	n/a	0	0	0
1088150	WORD	wordpools/wasnorm_wordpool_576.txt	LTP115	ltpFR2	7	6	CONVICT	371	n/a	n/a	0	0	0
1089765	START	n/a	LTP115	ltpFR2	7	n/a	n/a	n/a	9	n/a	n/a	n/a	n/a
1090612	DISTRACTOR	n/a	LTP115	ltpFR2	7	6	n/a	n/a	n/a	n/a	0	0	0
1090613	PROB	n/a	LTP115	ltpFR2	7	n/a	n/a	n/a	9	14	8	3	3
1092228	PROB	n/a	LTP115	ltpFR2	7	n/a	n/a	n/a	9	20	9	9	2
1093493	PROB	n/a	LTP115	ltpFR2	7	n/a	n/a	n/a	9	20	8	9	3
1094923	PROB	n/a	LTP115	ltpFR2	7	n/a	n/a	n/a	9	10	2	5	3
1096088	PROB	n/a	LTP115	ltpFR2	7	n/a	n/a	n/a	9	10	6	1	3
1097354	PROB	n/a	LTP115	ltpFR2	7	n/a	n/a	n/a	9	20	9	6	5
1099700	PROB	n/a	LTP115	ltpFR2	7	n/a	n/a	n/a	9	22	9	9	4
1101031	PROB	n/a	LTP115	ltpFR2	7	n/a	n/a	n/a	9	21	5	9	7
1103028	PROB	n/a	LTP115	ltpFR2	7	n/a	n/a	n/a	9	17	9	1	7
1104992	PROB	n/a	LTP115	ltpFR2	7	n/a	n/a	n/a	9	20	8	4	8
1106241	PROB	n/a	LTP115	ltpFR2	7	n/a	n/a	n/a	9	18	5	6	7
1107556	PROB	n/a	LTP115	ltpFR2	7	n/a	n/a	n/a	9	17	3	9	5
1109420	PROB	n/a	LTP115	ltpFR2	7	n/a	n/a	n/a	9	11	6	2	3
1111882	PROB	n/a	LTP115	ltpFR2	7	n/a	n/a	n/a	9	19	3	8	8
1113271	STOP	n/a	LTP115	ltpFR2	7	n/a	n/a	n/a	9	n/a	n/a	n/a	n/a
1115561	REC_START	n/a	LTP115	ltpFR2	7	6	n/a	n/a	n/a	n/a	0	0	0
1117820	REC_WORD	wordpools/wasnorm_wordpool_576.txt	LTP115	ltpFR2	7	6	OUTLAW	989	n/a	n/a	0	0	0
1118985	REC_WORD	wordpools/wasnorm_wordpool_576.txt	LTP115	ltpFR2	7	6	CONVICT	371	n/a	n/a	0	0	0
1119985	REC_WORD_VV	wordpools/wasnorm_wordpool_576.txt	LTP115	ltpFR2	7	6	<>	-1	n/a	n/a	0	0	0
1120329	REC_WORD	wordpools/wasnorm_wordpool_576.txt	LTP115	ltpFR2	7	6	INMATE	738	n/a	n/a	0	0	0
1123353	REC_WORD	wordpools/wasnorm_wordpool_576.txt	LTP115	ltpFR2	7	6	WIFE	1609	n/a	n/a	0	0	0
1124299	REC_WORD	wordpools/wasnorm_wordpool_576.txt	LTP115	ltpFR2	7	6	BREAST	171	n/a	n/a	0	0	0
1125828	REC_WORD	wordpools/wasnorm_wordpool_576.txt	LTP115	ltpFR2	7	6	JELLY	755	n/a	n/a	0	0	0
1129549	REC_WORD	wordpools/wasnorm_wordpool_576.txt	LTP115	ltpFR2	7	6	PACKAGE	997	n/a	n/a	0	0	0
1130549	REC_WORD_VV	wordpools/wasnorm_wordpool_576.txt	LTP115	ltpFR2	7	6	<>	-1	n/a	n/a	0	0	0
1131629	REC_WORD	wordpools/wasnorm_wordpool_576.txt	LTP115	ltpFR2	7	6	MAILBOX	857	n/a	n/a	0	0	0
1132629	REC_WORD_VV	wordpools/wasnorm_wordpool_576.txt	LTP115	ltpFR2	7	6	<>	-1	n/a	n/a	0	0	0
1134552	REC_WORD	wordpools/wasnorm_wordpool_576.txt	LTP115	ltpFR2	7	6	WITNESS	1618	n/a	n/a	0	0	0
1136009	REC_WORD	wordpools/wasnorm_wordpool_576.txt	LTP115	ltpFR2	7	6	COBRA	336	n/a	n/a	0	0	0
1137411	REC_WORD	wordpools/wasnorm_wordpool_576.txt	LTP115	ltpFR2	7	6	MAPLE	866	n/a	n/a	0	0	0
1138776	REC_WORD	wordpools/wasnorm_wordpool_576.txt	LTP115	ltpFR2	7	6	FRECKLE	602	n/a	n/a	0	0	0
1143996	REC_WORD	wordpools/wasnorm_wordpool_576.txt	LTP115	ltpFR2	7	6	WITNESS	1618	n/a	n/a	0	0	0
1144953	REC_WORD	wordpools/wasnorm_wordpool_576.txt	LTP115	ltpFR2	7	6	COBRA	336	n/a	n/a	0	0	0
1145871	REC_WORD	wordpools/wasnorm_wordpool_576.txt	LTP115	ltpFR2	7	6	MAPLE	866	n/a	n/a	0	0	0
1147294	REC_WORD	wordpools/wasnorm_wordpool_576.txt	LTP115	ltpFR2	7	6	RATTLE	1170	n/a	n/a	0	0	0
1149214	REC_WORD	wordpools/wasnorm_wordpool_576.txt	LTP115	ltpFR2	7	6	CAMEL	223	n/a	n/a	0	0	0
1150243	REC_WORD	wordpools/wasnorm_wordpool_576.txt	LTP115	ltpFR2	7	6	BEEF	113	n/a	n/a	0	0	0
1151085	REC_WORD	wordpools/wasnorm_wordpool_576.txt	LTP115	ltpFR2	7	6	SUMMIT	1405	n/a	n/a	0	0	0
1152212	REC_WORD	wordpools/wasnorm_wordpool_576.txt	LTP115	ltpFR2	7	6	TRIBE	1505	n/a	n/a	0	0	0
1153369	REC_WORD	wordpools/wasnorm_wordpool_576.txt	LTP115	ltpFR2	7	6	NOMAD	955	n/a	n/a	0	0	0
1206244	WORD	wordpools/wasnorm_wordpool_576.txt	LTP115	ltpFR2	7	7	SWIMMER	1420	n/a	n/a	0	0	0
1208673	WORD	wordpools/wasnorm_wordpool_576.txt	LTP115	ltpFR2	7	7	CLAM	315	n/a	n/a	0	0	0
1211386	WORD	wordpools/wasnorm_wordpool_576.txt	LTP115	ltpFR2	7	7	CURTAIN	427	n/a	n/a	0	0	0
1214148	WORD	wordpools/wasnorm_wordpool_576.txt	LTP115	ltpFR2	7	7	SMOG	1330	n/a	n/a	0	0	0
1216827	WORD	wordpools/wasnorm_wordpool_576.txt	LTP115	ltpFR2	7	7	CLOUD	328	n/a	n/a	0	0	0
1219308	WORD	wordpools/wasnorm_wordpool_576.txt	LTP115	ltpFR2	7	7	ORCHID	982	n/a	n/a	0	0	0
1222003	WORD	wordpools/wasnorm_wordpool_576.txt	LTP115	ltpFR2	7	7	FLOWER	584	n/a	n/a	0	0	0
1224567	WORD	wordpools/wasnorm_wordpool_576.txt	LTP115	ltpFR2	7	7	BASEMENT	94	n/a	n/a	0	0	0
1227162	WORD	wordpools/wasnorm_wordpool_576.txt	LTP115	ltpFR2	7	7	TURTLE	1522	n/a	n/a	0	0	0
1229808	WORD	wordpools/wasnorm_wordpool_576.txt	LTP115	ltpFR2	7	7	PARSLEY	1016	n/a	n/a	0	0	0
1232489	WORD	wordpools/wasnorm_wordpool_576.txt	LTP115	ltpFR2	7	7	ROBBER	1197	n/a	n/a	0	0	0
1234917	WORD	wordpools/wasnorm_wordpool_576.txt	LTP115	ltpFR2	7	7	GIFT	635	n/a	n/a	0	0	0
1237663	WORD	wordpools/wasnorm_wordpool_576.txt	LTP115	ltpFR2	7	7	REBEL	1172	n/a	n/a	0	0	0
1240227	WORD	wordpools/wasnorm_wordpool_576.txt	LTP115	ltpFR2	7	7	HOOD	714	n/a	n/a	0	0	0
1242956	WORD	wordpools/wasnorm_wordpool_576.txt	LTP115	ltpFR2	7	7	DIVER	476	n/a	n/a	0	0	0
1245436	WORD	wordpools/wasnorm_wordpool_576.txt	LTP115	ltpFR2	7	7	CLIMBER	323	n/a	n/a	0	0	0
1247965	WORD	wordpools/wasnorm_wordpool_576.txt	LTP115	ltpFR2	7	7	LABEL	790	n/a	n/a	0	0	0
1250579	WORD	wordpools/wasnorm_wordpool_576.txt	LTP115	ltpFR2	7	7	SHRUB	1299	n/a	n/a	0	0	0
1253275	WORD	wordpools/wasnorm_wordpool_576.txt	LTP115	ltpFR2	7	7	FUNGUS	614	n/a	n/a	0	0	0
1256036	WORD	wordpools/wasnorm_wordpool_576.txt	LTP115	ltpFR2	7	7	BLOCKADE	137	n/a	n/a	0	0	0
1258616	WORD	wordpools/wasnorm_wordpool_576.txt	LTP115	ltpFR2	7	7	PECAN	1036	n/a	n/a	0	0	0
1261062	WORD	wordpools/wasnorm_wordpool_576.txt	LTP115	ltpFR2	7	7	CHIPMUNK	304	n/a	n/a	0	0	0
1263725	WORD	wordpools/wasnorm_wordpool_576.txt	LTP115	ltpFR2	7	7	CUSTARD	429	n/a	n/a	0	0	0
1266222	WORD	wordpools/wasnorm_wordpool_576.txt	LTP115	ltpFR2	7	7	CABIN	211	n/a	n/a	0	0	0
1267836	START	n/a	LTP115	ltpFR2	7	n/a	n/a	n/a	10	n/a	n/a	n/a	n/a
1268750	DISTRACTOR	n/a	LTP115	ltpFR2	7	7	n/a	n/a	n/a	n/a	0	0	0
1268751	PROB	n/a	LTP115	ltpFR2	7	n/a	n/a	n/a	10	15	4	5	6
1270682	PROB	n/a	LTP115	ltpFR2	7	n/a	n/a	n/a	10	10	6	3	1
1271730	PROB	n/a	LTP115	ltpFR2	7	n/a	n/a	n/a	10	23	8	9	6
1273428	PROB	n/a	LTP115	ltpFR2	7	n/a	n/a	n/a	10	20	6	5	9
1274809	PROB	n/a	LTP115	ltpFR2	7	n/a	n/a	n/a	10	8	3	3	2
1276723	PROB	n/a	LTP115	ltpFR2	7	n/a	n/a	n/a	10	16	5	9	2
1278919	PROB	n/a	LTP115	ltpFR2	7	n/a	n/a	n/a	10	13	2	5	6
1280318	PROB	n/a	LTP115	ltpFR2	7	n/a	n/a	n/a	10	14	6	3	5
1281765	PROB	n/a	LTP115	ltpFR2	7	n/a	n/a	n/a	10	19	4	8	7
1283097	PROB	n/a	LTP115	ltpFR2	7	n/a	n/a	n/a	10	10	3	5	2
1284246	PROB	n/a	LTP115	ltpFR2	7	n/a	n/a	n/a	10	22	9	6	7
1286092	PROB	n/a	LTP115	ltpFR2	7	n/a	n/a	n/a	10	15	1	7	7
1287242	PROB	n/a	LTP115	ltpFR2	7	n/a	n/a	n/a	10	7	1	4	2
1288672	PROB	n/a	LTP115	ltpFR2	7	n/a	n/a	n/a	10	16	8	1	7
1290834	STOP	n/a	LTP115	ltpFR2	7	n/a	n/a	n/a	10	n/a	n/a	n/a	n/a
1293715	REC_START	n/a	LTP115	ltpFR2	7	7	n/a	n/a	n/a	n/a	0	0	0
1294535	REC_WORD	wordpools/wasnorm_wordpool_576.txt	LTP115	ltpFR2	7	7	CABIN	211	n/a	n/a	0	0	0
1295227	REC_WORD	wordpools/wasnorm_wordpool_576.txt	LTP115	ltpFR2	7	7	BLOCKADE	137	n/a	n/a	0	0	0
1296182	REC_WORD	wordpools/wasnorm_wordpool_576.txt	LTP115	ltpFR2	7	7	ROBBER	1197	n/a	n/a	0	0	0
1297028	REC_WORD	wordpools/wasnorm_wordpool_576.txt	LTP115	ltpFR2	7	7	HOOD	714	n/a	n/a	0	0	0
1298075	REC_WORD	wordpools/wasnorm_wordpool_576.txt	LTP115	ltpFR2	7	7	REBEL	1172	n/a	n/a	0	0	0
1302363	REC_WORD	wordpools/wasnorm_wordpool_576.txt	LTP115	ltpFR2	7	7	FLOWER	584	n/a	n/a	0	0	0
1303102	REC_WORD	wordpools/wasnorm_wordpool_576.txt	LTP115	ltpFR2	7	7	SHRUB	1299	n/a	n/a	0	0	0
1303959	REC_WORD	wordpools/wasnorm_wordpool_576.txt	LTP115	ltpFR2	7	7	ORCHID	982	n/a	n/a	0	0	0
1304875	REC_WORD	wordpools/wasnorm_wordpool_576.txt	LTP115	ltpFR2	7	7	PARSLEY	1016	n/a	n/a	0	0	0
1306567	REC_WORD	wordpools/wasnorm_wordpool_576.txt	LTP115	ltpFR2	7	7	SWIMMER	1420	n/a	n/a	0	0	0
1307396	REC_WORD	wordpools/wasnorm_wordpool_576.txt	LTP115	ltpFR2	7	7	DIVER	476	n/a	n/a	0	0	0
1308259	REC_WORD	wordpools/wasnorm_wordpool_576.txt	LTP115	ltpFR2	7	7	CLIMBER	323	n/a	n/a	0	0	0
1309817	REC_WORD	wordpools/wasnorm_wordpool_576.txt	LTP115	ltpFR2	7	7	LABEL	790	n/a	n/a	0	0	0
1312139	REC_WORD	wordpools/wasnorm_wordpool_576.txt	LTP115	ltpFR2	7	7	CLAM	315	n/a	n/a	0	0	0
1314312	REC_WORD	wordpools/wasnorm_wordpool_576.txt	LTP115	ltpFR2	7	7	BASEMENT	94	n/a	n/a	0	0	0
1315240	REC_WORD	wordpools/wasnorm_wordpool_576.txt	LTP115	ltpFR2	7	7	TURTLE	1522	n/a	n/a	0	0	0
1332937	REC_WORD	wordpools/wasnorm_wordpool_576.txt	LTP115	ltpFR2	7	7	PECAN	1036	n/a	n/a	0	0	0
1333808	REC_WORD	wordpools/wasnorm_wordpool_576.txt	LTP115	ltpFR2	7	7	CHIPMUNK	304	n/a	n/a	0	0	0
1384365	WORD	wordpools/wasnorm_wordpool_576.txt	LTP115	ltpFR2	7	8	MARS	873	n/a	n/a	0	0	0
1386811	WORD	wordpools/wasnorm_wordpool_576.txt	LTP115	ltpFR2	7	8	POLICE	1098	n/a	n/a	0	0	0
1389607	WORD	wordpools/wasnorm_wordpool_576.txt	LTP115	ltpFR2	7	8	BADGE	68	n/a	n/a	0	0	0
1392187	WORD	wordpools/wasnorm_wordpool_576.txt	LTP115	ltpFR2	7	8	ROBIN	1199	n/a	n/a	0	0	0
1394832	WORD	wordpools/wasnorm_wordpool_576.txt	LTP115	ltpFR2	7	8	ROOSTER	1209	n/a	n/a	0	0	0
1397280	WORD	wordpools/wasnorm_wordpool_576.txt	LTP115	ltpFR2	7	8	LEG	809	n/a	n/a	0	0	0
1399942	WORD	wordpools/wasnorm_wordpool_576.txt	LTP115	ltpFR2	7	8	WHISKERS	1605	n/a	n/a	0	0	0
1402721	WORD	wordpools/wasnorm_wordpool_576.txt	LTP115	ltpFR2	7	8	GARBAGE	622	n/a	n/a	0	0	0
1405184	WORD	wordpools/wasnorm_wordpool_576.txt	LTP115	ltpFR2	7	8	SEAFOOD	1260	n/a	n/a	0	0	0
1407946	WORD	wordpools/wasnorm_wordpool_576.txt	LTP115	ltpFR2	7	8	ANKLE	24	n/a	n/a	0	0	0
1410527	WORD	wordpools/wasnorm_wordpool_576.txt	LTP115	ltpFR2	7	8	UNCLE	1536	n/a	n/a	0	0	0
1412989	WORD	wordpools/wasnorm_wordpool_576.txt	LTP115	ltpFR2	7	8	SALMON	1227	n/a	n/a	0	0	0
1415520	WORD	wordpools/wasnorm_wordpool_576.txt	LTP115	ltpFR2	7	8	BLENDER	136	n/a	n/a	0	0	0
1417948	WORD	wordpools/wasnorm_wordpool_576.txt	LTP115	ltpFR2	7	8	WIDOW	1608	n/a	n/a	0	0	0
1420496	WORD	wordpools/wasnorm_wordpool_576.txt	LTP115	ltpFR2	7	8	RACKET	1155	n/a	n/a	0	0	0
1422991	WORD	wordpools/wasnorm_wordpool_576.txt	LTP115	ltpFR2	7	8	CHILD	299	n/a	n/a	0	0	0
1425637	WORD	wordpools/wasnorm_wordpool_576.txt	LTP115	ltpFR2	7	8	PUPIL	1143	n/a	n/a	0	0	0
1428401	WORD	wordpools/wasnorm_wordpool_576.txt	LTP115	ltpFR2	7	8	ELBOW	520	n/a	n/a	0	0	0
1430896	WORD	wordpools/wasnorm_wordpool_576.txt	LTP115	ltpFR2	7	8	APRON	35	n/a	n/a	0	0	0
1433625	WORD	wordpools/wasnorm_wordpool_576.txt	LTP115	ltpFR2	7	8	BRAKE	166	n/a	n/a	0	0	0
1436088	WORD	wordpools/wasnorm_wordpool_576.txt	LTP115	ltpFR2	7	8	CHAUFFEUR	283	n/a	n/a	0	0	0
1438519	WORD	wordpools/wasnorm_wordpool_576.txt	LTP115	ltpFR2	7	8	TUTU	1524	n/a	n/a	0	0	0
1440965	WORD	wordpools/wasnorm_wordpool_576.txt	LTP115	ltpFR2	7	8	YARN	1631	n/a	n/a	0	0	0
1443744	WORD	wordpools/wasnorm_wordpool_576.txt	LTP115	ltpFR2	7	8	PARENT	1013	n/a	n/a	0	0	0
1445359	START	n/a	LTP115	ltpFR2	7	n/a	n/a	n/a	11	n/a	n/a	n/a	n/a
1446287	DISTRACTOR	n/a	LTP115	ltpFR2	7	8	n/a	n/a	n/a	n/a	0	0	0
1446291	PROB	n/a	LTP115	ltpFR2	7	n/a	n/a	n/a	11	6	4	1	1
1447987	PROB	n/a	LTP115	ltpFR2	7	n/a	n/a	n/a	11	10	3	2	5
1449470	PROB	n/a	LTP115	ltpFR2	7	n/a	n/a	n/a	11	17	7	5	5
1450883	PROB	n/a	LTP115	ltpFR2	7	n/a	n/a	n/a	11	12	6	5	1
1451982	PROB	n/a	LTP115	ltpFR2	7	n/a	n/a	n/a	11	20	8	7	5
1453679	PROB	n/a	LTP115	ltpFR2	7	n/a	n/a	n/a	11	16	7	5	4
1456409	PROB	n/a	LTP115	ltpFR2	7	n/a	n/a	n/a	11	17	7	5	5
1457856	PROB	n/a	LTP115	ltpFR2	7	n/a	n/a	n/a	11	10	2	2	6
1459088	PROB	n/a	LTP115	ltpFR2	7	n/a	n/a	n/a	11	21	4	8	9
1460586	PROB	n/a	LTP115	ltpFR2	7	n/a	n/a	n/a	11	14	5	2	7
1462034	PROB	n/a	LTP115	ltpFR2	7	n/a	n/a	n/a	11	12	3	5	4
1463516	PROB	n/a	LTP115	ltpFR2	7	n/a	n/a	n/a	11	10	7	2	1
1464498	PROB	n/a	LTP115	ltpFR2	7	n/a	n/a	n/a	11	17	6	9	2
1466378	PROB	n/a	LTP115	ltpFR2	7	n/a	n/a	n/a	11	20	6	9	5
1468463	STOP	n/a	LTP115	ltpFR2	7	n/a	n/a	n/a	11	n/a	n/a	n/a	n/a
1471305	REC_START	n/a	LTP115	ltpFR2	7	8	n/a	n/a	n/a	n/a	0	0	0
1472043	REC_WORD	wordpools/wasnorm_wordpool_576.txt	LTP115	ltpFR2	7	8	PARENT	1013	n/a	n/a	0	0	0
1472680	REC_WORD	wordpools/wasnorm_wordpool_576.txt	LTP115	ltpFR2	7	8	CHILD	299	n/a	n/a	0	0	0
1473450	REC_WORD	wordpools/wasnorm_wordpool_576.txt	LTP115	ltpFR2	7	8	UNCLE	1536	n/a	n/a	0	0	0
1474721	REC_WORD	wordpools/wasnorm_wordpool_576.txt	LTP115	ltpFR2	7	8	ROBIN	1199	n/a	n/a	0	0	0
1478819	REC_WORD	wordpools/wasnorm_wordpool_576.txt	LTP115	ltpFR2	7	8	POLICE	1098	n/a	n/a	0	0	0
1479742	REC_WORD	wordpools/wasnorm_wordpool_576.txt	LTP115	ltpFR2	7	8	BADGE	68	n/a	n/a	0	0	0
1480487	REC_WORD	wordpools/wasnorm_wordpool_576.txt	LTP115	ltpFR2	7	8	MARS	873	n/a	n/a	0	0	0
1481993	REC_WORD	wordpools/wasnorm_wordpool_576.txt	LTP115	ltpFR2	7	8	BRAKE	166	n/a	n/a	0	0	0
1486388	REC_WORD	wordpools/wasnorm_wordpool_576.txt	LTP115	ltpFR2	7	8	ANKLE	24	n/a	n/a	0	0	0
1487175	REC_WORD	wordpools/wasnorm_wordpool_576.txt	LTP115	ltpFR2	7	8	ELBOW	520	n/a	n/a	0	0	0
1488231	REC_WORD	wordpools/wasnorm_wordpool_576.txt	LTP115	ltpFR2	7	8	LEG	809	n/a	n/a	0	0	0
1492173	REC_WORD	wordpools/wasnorm_wordpool_576.txt	LTP115	ltpFR2	7	8	SEAFOOD	1260	n/a	n/a	0	0	0
1493104	REC_WORD	wordpools/wasnorm_wordpool_576.txt	LTP115	ltpFR2	7	8	SALMON	1227	n/a	n/a	0	0	0
1494603	REC_WORD	wordpools/wasnorm_wordpool_576.txt	LTP115	ltpFR2	7	8	BLENDER	136	n/a	n/a	0	0	0
1500391	REC_WORD	wordpools/wasnorm_wordpool_576.txt	LTP115	ltpFR2	7	8	ROOSTER	1209	n/a	n/a	0	0	0
1502787	REC_WORD	wordpools/wasnorm_wordpool_576.txt	LTP115	ltpFR2	7	8	WIDOW	1608	n/a	n/a	0	0	0
1507899	REC_WORD	wordpools/wasnorm_wordpool_576.txt	LTP115	ltpFR2	7	8	WHISKERS	1605	n/a	n/a	0	0	0
1547907	REST_REWET	n/a	LTP115	ltpFR2	7	8	n/a	n/a	n/a	n/a	0	0	0
2050934	WORD	wordpools/wasnorm_wordpool_576.txt	LTP115	ltpFR2	7	9	JUDGE	761	n/a	n/a	0	0	0
2053482	WORD	wordpools/wasnorm_wordpool_576.txt	LTP115	ltpFR2	7	9	COLLEGE	346	n/a	n/a	0	0	0
2055910	WORD	wordpools/wasnorm_wordpool_576.txt	LTP115	ltpFR2	7	9	FLEET	578	n/a	n/a	0	0	0
2058524	WORD	wordpools/wasnorm_wordpool_576.txt	LTP115	ltpFR2	7	9	SUNSET	1408	n/a	n/a	0	0	0
2061237	WORD	wordpools/wasnorm_wordpool_576.txt	LTP115	ltpFR2	7	9	CITRUS	313	n/a	n/a	0	0	0
2063799	WORD	wordpools/wasnorm_wordpool_576.txt	LTP115	ltpFR2	7	9	HOOK	715	n/a	n/a	0	0	0
2066546	WORD	wordpools/wasnorm_wordpool_576.txt	LTP115	ltpFR2	7	9	STOMACH	1384	n/a	n/a	0	0	0
2069158	WORD	wordpools/wasnorm_wordpool_576.txt	LTP115	ltpFR2	7	9	BULLET	194	n/a	n/a	0	0	0
2071637	WORD	wordpools/wasnorm_wordpool_576.txt	LTP115	ltpFR2	7	9	COURSE	390	n/a	n/a	0	0	0
2074351	WORD	wordpools/wasnorm_wordpool_576.txt	LTP115	ltpFR2	7	9	COUCH	386	n/a	n/a	0	0	0
2076896	WORD	wordpools/wasnorm_wordpool_576.txt	LTP115	ltpFR2	7	9	LAGOON	795	n/a	n/a	0	0	0
2079625	WORD	wordpools/wasnorm_wordpool_576.txt	LTP115	ltpFR2	7	9	LAPEL	800	n/a	n/a	0	0	0
2082256	WORD	wordpools/wasnorm_wordpool_576.txt	LTP115	ltpFR2	7	9	SHIRT	1287	n/a	n/a	0	0	0
2084751	WORD	wordpools/wasnorm_wordpool_576.txt	LTP115	ltpFR2	7	9	GALLON	618	n/a	n/a	0	0	0
2087299	WORD	wordpools/wasnorm_wordpool_576.txt	LTP115	ltpFR2	7	9	SEAL	1262	n/a	n/a	0	0	0
2089994	WORD	wordpools/wasnorm_wordpool_576.txt	LTP115	ltpFR2	7	9	BATHTUB	100	n/a	n/a	0	0	0
2092773	WORD	wordpools/wasnorm_wordpool_576.txt	LTP115	ltpFR2	7	9	PAIL	1002	n/a	n/a	0	0	0
2095270	WORD	wordpools/wasnorm_wordpool_576.txt	LTP115	ltpFR2	7	9	OUTDOORS	987	n/a	n/a	0	0	0
2098048	WORD	wordpools/wasnorm_wordpool_576.txt	LTP115	ltpFR2	7	9	THRONE	1461	n/a	n/a	0	0	0
2100678	WORD	wordpools/wasnorm_wordpool_576.txt	LTP115	ltpFR2	7	9	KIDNEY	776	n/a	n/a	0	0	0
2103275	WORD	wordpools/wasnorm_wordpool_576.txt	LTP115	ltpFR2	7	9	PLATE	1086	n/a	n/a	0	0	0
2105937	WORD	wordpools/wasnorm_wordpool_576.txt	LTP115	ltpFR2	7	9	BACKBONE	66	n/a	n/a	0	0	0
2108616	WORD	wordpools/wasnorm_wordpool_576.txt	LTP115	ltpFR2	7	9	COLONEL	348	n/a	n/a	0	0	0
2111197	WORD	wordpools/wasnorm_wordpool_576.txt	LTP115	ltpFR2	7	9	TROUT	1511	n/a	n/a	0	0	0
2112810	START	n/a	LTP115	ltpFR2	7	n/a	n/a	n/a	12	n/a	n/a	n/a	n/a
2113654	DISTRACTOR	n/a	LTP115	ltpFR2	7	9	n/a	n/a	n/a	n/a	0	0	0
2113659	PROB	n/a	LTP115	ltpFR2	7	n/a	n/a	n/a	12	12	3	7	2
2115440	PROB	n/a	LTP115	ltpFR2	7	n/a	n/a	n/a	12	22	9	9	4
2116821	PROB	n/a	LTP115	ltpFR2	7	n/a	n/a	n/a	12	10	6	3	1
2117869	PROB	n/a	LTP115	ltpFR2	7	n/a	n/a	n/a	12	19	9	1	9
2119252	PROB	n/a	LTP115	ltpFR2	7	n/a	n/a	n/a	12	19	6	8	5
2121515	PROB	n/a	LTP115	ltpFR2	7	n/a	n/a	n/a	12	12	4	5	3
2122845	PROB	n/a	LTP115	ltpFR2	7	n/a	n/a	n/a	12	18	7	8	3
2124261	PROB	n/a	LTP115	ltpFR2	7	n/a	n/a	n/a	12	11	4	3	4
2125691	PROB	n/a	LTP115	ltpFR2	7	n/a	n/a	n/a	12	19	7	5	7
2127089	PROB	n/a	LTP115	ltpFR2	7	n/a	n/a	n/a	12	19	5	5	9
2128255	PROB	n/a	LTP115	ltpFR2	7	n/a	n/a	n/a	12	17	6	6	5
2131865	PROB	n/a	LTP115	ltpFR2	7	n/a	n/a	n/a	12	16	6	2	8
2133497	PROB	n/a	LTP115	ltpFR2	7	n/a	n/a	n/a	12	12	2	2	8
2134678	PROB	n/a	LTP115	ltpFR2	7	n/a	n/a	n/a	12	14	5	2	7
2136190	STOP	n/a	LTP115	ltpFR2	7	n/a	n/a	n/a	12	n/a	n/a	n/a	n/a
2138574	REC_START	n/a	LTP115	ltpFR2	7	9	n/a	n/a	n/a	n/a	0	0	0
2139410	REC_WORD	wordpools/wasnorm_wordpool_576.txt	LTP115	ltpFR2	7	9	FLEET	578	n/a	n/a	0	0	0
2141163	REC_WORD	wordpools/wasnorm_wordpool_576.txt	LTP115	ltpFR2	7	9	TROUT	1511	n/a	n/a	0	0	0
2144131	REC_WORD_VV	wordpools/wasnorm_wordpool_576.txt	LTP115	ltpFR2	7	9	<>	-1	n/a	n/a	0	0	0
2145131	REC_WORD_VV	wordpools/wasnorm_wordpool_576.txt	LTP115	ltpFR2	7	9	<>	-1	n/a	n/a	0	0	0
2148277	REC_WORD	wordpools/wasnorm_wordpool_576.txt	LTP115	ltpFR2	7	9	SALMON	1227	n/a	n/a	0	0	0
2149277	REC_WORD_VV	wordpools/wasnorm_wordpool_576.txt	LTP115	ltpFR2	7	9	<>	-1	n/a	n/a	0	0	0
2150846	REC_WORD	wordpools/wasnorm_wordpool_576.txt	LTP115	ltpFR2	7	9	SEAL	1262	n/a	n/a	0	0	0
2152926	REC_WORD	wordpools/wasnorm_wordpool_576.txt	LTP115	ltpFR2	7	9	JUDGE	761	n/a	n/a	0	0	0
2153843	REC_WORD	wordpools/wasnorm_wordpool_576.txt	LTP115	ltpFR2	7	9	LAPEL	800	n/a	n/a	0	0	0
2154914	REC_WORD	wordpools/wasnorm_wordpool_576.txt	LTP115	ltpFR2	7	9	SHIRT	1287	n/a	n/a	0	0	0
2158578	REC_WORD	wordpools/wasnorm_wordpool_576.txt	LTP115	ltpFR2	7	9	BULLET	194	n/a	n/a	0	0	0
2159383	REC_WORD	wordpools/wasnorm_wordpool_576.txt	LTP115	ltpFR2	7	9	THRONE	1461	n/a	n/a	0	0	0
2161021	REC_WORD	wordpools/wasnorm_wordpool_576.txt	LTP115	ltpFR2	7	9	GALLON	618	n/a	n/a	0	0	0
2161874	REC_WORD	wordpools/wasnorm_wordpool_576.txt	LTP115	ltpFR2	7	9	BATHTUB	100	n/a	n/a	0	0	0
2164215	REC_WORD	wordpools/wasnorm_wordpool_576.txt	LTP115	ltpFR2	7	9	PLATE	1086	n/a	n/a	0	0	0
2166848	REC_WORD	wordpools/wasnorm_wordpool_576.txt	LTP115	ltpFR2	7	9	LAGOON	795	n/a	n/a	0	0	0
2167869	REC_WORD	wordpools/wasnorm_wordpool_576.txt	LTP115	ltpFR2	7	9	STUDENT	1395	n/a	n/a	0	0	0
2169283	REC_WORD	wordpools/wasnorm_wordpool_576.txt	LTP115	ltpFR2	7	9	COURSE	390	n/a	n/a	0	0	0
2170502	REC_WORD	wordpools/wasnorm_wordpool_576.txt	LTP115	ltpFR2	7	9	COLLEGE	346	n/a	n/a	0	0	0
2177914	REC_WORD	wordpools/wasnorm_wordpool_576.txt	LTP115	ltpFR2	7	9	SUNSET	1408	n/a	n/a	0	0	0
2178914	REC_WORD_VV	wordpools/wasnorm_wordpool_576.txt	LTP115	ltpFR2	7	9	<>	-1	n/a	n/a	0	0	0
2179753	REC_WORD	wordpools/wasnorm_wordpool_576.txt	LTP115	ltpFR2	7	9	CITRUS	313	n/a	n/a	0	0	0
2180753	REC_WORD_VV	wordpools/wasnorm_wordpool_576.txt	LTP115	ltpFR2	7	9	<>	-1	n/a	n/a	0	0	0
2186080	REC_WORD	wordpools/wasnorm_wordpool_576.txt	LTP115	ltpFR2	7	9	PAIL	1002	n/a	n/a	0	0	0
2205275	REC_WORD	wordpools/wasnorm_wordpool_576.txt	LTP115	ltpFR2	7	9	HOOK	715	n/a	n/a	0	0	0
2229257	WORD	wordpools/wasnorm_wordpool_576.txt	LTP115	ltpFR2	7	10	SOFTBALL	1343	n/a	n/a	0	0	0
2231752	WORD	wordpools/wasnorm_wordpool_576.txt	LTP115	ltpFR2	7	10	HARP	689	n/a	n/a	0	0	0
2234216	WORD	wordpools/wasnorm_wordpool_576.txt	LTP115	ltpFR2	7	10	BARLEY	88	n/a	n/a	0	0	0
2236711	WORD	wordpools/wasnorm_wordpool_576.txt	LTP115	ltpFR2	7	10	LETTUCE	814	n/a	n/a	0	0	0
2239475	WORD	wordpools/wasnorm_wordpool_576.txt	LTP115	ltpFR2	7	10	CASHIER	254	n/a	n/a	0	0	0
2241937	WORD	wordpools/wasnorm_wordpool_576.txt	LTP115	ltpFR2	7	10	PLAZA	1088	n/a	n/a	0	0	0
2244633	WORD	wordpools/wasnorm_wordpool_576.txt	LTP115	ltpFR2	7	10	RECEIPT	1173	n/a	n/a	0	0	0
2247396	WORD	wordpools/wasnorm_wordpool_576.txt	LTP115	ltpFR2	7	10	COIN	343	n/a	n/a	0	0	0
2250025	WORD	wordpools/wasnorm_wordpool_576.txt	LTP115	ltpFR2	7	10	AIRPLANE	12	n/a	n/a	0	0	0
2252472	WORD	wordpools/wasnorm_wordpool_576.txt	LTP115	ltpFR2	7	10	MARKET	871	n/a	n/a	0	0	0
2255184	WORD	wordpools/wasnorm_wordpool_576.txt	LTP115	ltpFR2	7	10	PEDAL	1037	n/a	n/a	0	0	0
2257897	WORD	wordpools/wasnorm_wordpool_576.txt	LTP115	ltpFR2	7	10	COUNTY	389	n/a	n/a	0	0	0
2260659	WORD	wordpools/wasnorm_wordpool_576.txt	LTP115	ltpFR2	7	10	FREEZER	604	n/a	n/a	0	0	0
2263406	WORD	wordpools/wasnorm_wordpool_576.txt	LTP115	ltpFR2	7	10	LODGE	839	n/a	n/a	0	0	0
2265918	WORD	wordpools/wasnorm_wordpool_576.txt	LTP115	ltpFR2	7	10	FRIEND	606	n/a	n/a	0	0	0
2268581	WORD	wordpools/wasnorm_wordpool_576.txt	LTP115	ltpFR2	7	10	NEUTRON	947	n/a	n/a	0	0	0
2271328	WORD	wordpools/wasnorm_wordpool_576.txt	LTP115	ltpFR2	7	10	MACHINE	852	n/a	n/a	0	0	0
2273940	WORD	wordpools/wasnorm_wordpool_576.txt	LTP115	ltpFR2	7	10	DRINK	498	n/a	n/a	0	0	0
2276636	WORD	wordpools/wasnorm_wordpool_576.txt	LTP115	ltpFR2	7	10	CHAMPAGNE	278	n/a	n/a	0	0	0
2279233	WORD	wordpools/wasnorm_wordpool_576.txt	LTP115	ltpFR2	7	10	COWBOY	395	n/a	n/a	0	0	0
2281945	WORD	wordpools/wasnorm_wordpool_576.txt	LTP115	ltpFR2	7	10	DIME	466	n/a	n/a	0	0	0
2284559	WORD	wordpools/wasnorm_wordpool_576.txt	LTP115	ltpFR2	7	10	IDOL	733	n/a	n/a	0	0	0
2287120	WORD	wordpools/wasnorm_wordpool_576.txt	LTP115	ltpFR2	7	10	STATUE	1374	n/a	n/a	0	0	0
2289568	WORD	wordpools/wasnorm_wordpool_576.txt	LTP115	ltpFR2	7	10	COUNTRY	388	n/a	n/a	0	0	0
2291181	START	n/a	LTP115	ltpFR2	7	n/a	n/a	n/a	13	n/a	n/a	n/a	n/a
2291985	DISTRACTOR	n/a	LTP115	ltpFR2	7	10	n/a	n/a	n/a	n/a	0	0	0
2291997	PROB	n/a	LTP115	ltpFR2	7	n/a	n/a	n/a	13	14	2	7	5
2294194	PROB	n/a	LTP115	ltpFR2	7	n/a	n/a	n/a	13	14	4	7	6
2295509	PROB	n/a	LTP115	ltpFR2	7	n/a	n/a	n/a	13	15	1	8	6
2298587	PROB	n/a	LTP115	ltpFR2	7	n/a	n/a	n/a	13	16	5	3	8
2300168	PROB	n/a	LTP115	ltpFR2	7	n/a	n/a	n/a	13	19	6	7	6
2302747	PROB	n/a	LTP115	ltpFR2	7	n/a	n/a	n/a	13	9	5	2	2
2304179	PROB	n/a	LTP115	ltpFR2	7	n/a	n/a	n/a	13	18	6	8	4
2305926	PROB	n/a	LTP115	ltpFR2	7	n/a	n/a	n/a	13	22	9	7	6
2308207	PROB	n/a	LTP115	ltpFR2	7	n/a	n/a	n/a	13	16	7	1	8
2310120	PROB	n/a	LTP115	ltpFR2	7	n/a	n/a	n/a	13	25	7	9	9
2313165	PROB	n/a	LTP115	ltpFR2	7	n/a	n/a	n/a	13	8	3	1	4
2314298	STOP	n/a	LTP115	ltpFR2	7	n/a	n/a	n/a	13	n/a	n/a	n/a	n/a
2317077	REC_START	n/a	LTP115	ltpFR2	7	10	n/a	n/a	n/a	n/a	0	0	0
2318690	REC_WORD	wordpools/wasnorm_wordpool_576.txt	LTP115	ltpFR2	7	10	STATUE	1374	n/a	n/a	0	0	0
2319792	REC_WORD	wordpools/wasnorm_wordpool_576.txt	LTP115	ltpFR2	7	10	IDOL	733	n/a	n/a	0	0	0
2320445	REC_WORD	wordpools/wasnorm_wordpool_576.txt	LTP115	ltpFR2	7	10	CASHIER	254	n/a	n/a	0	0	0
2321144	REC_WORD	wordpools/wasnorm_wordpool_576.txt	LTP115	ltpFR2	7	10	MACHINE	852	n/a	n/a	0	0	0
2322011	REC_WORD	wordpools/wasnorm_wordpool_576.txt	LTP115	ltpFR2	7	10	PLAZA	1088	n/a	n/a	0	0	0
2322656	REC_WORD	wordpools/wasnorm_wordpool_576.txt	LTP115	ltpFR2	7	10	COIN	343	n/a	n/a	0	0	0
2323107	REC_WORD	wordpools/wasnorm_wordpool_576.txt	LTP115	ltpFR2	7	10	RECEIPT	1173	n/a	n/a	0	0	0
2324017	REC_WORD	wordpools/wasnorm_wordpool_576.txt	LTP115	ltpFR2	7	10	DIME	466	n/a	n/a	0	0	0
2335659	REC_WORD	wordpools/wasnorm_wordpool_576.txt	LTP115	ltpFR2	7	10	LODGE	839	n/a	n/a	0	0	0
2336659	REC_WORD_VV	wordpools/wasnorm_wordpool_576.txt	LTP115	ltpFR2	7	10	<>	-1	n/a	n/a	0	0	0
2337647	REC_WORD	wordpools/wasnorm_wordpool_576.txt	LTP115	ltpFR2	7	10	AIRPORT	13	n/a	n/a	0	0	0
2338773	REC_WORD	wordpools/wasnorm_wordpool_576.txt	LTP115	ltpFR2	7	10	COUNTRY	388	n/a	n/a	0	0	0
2339468	REC_WORD	wordpools/wasnorm_wordpool_576.txt	LTP115	ltpFR2	7	10	COUNTY	389	n/a	n/a	0	0	0
2341933	REC_WORD	wordpools/wasnorm_wordpool_576.txt	LTP115	ltpFR2	7	10	FREEZER	604	n/a	n/a	0	0	0
2342933	REC_WORD_VV	wordpools/wasnorm_wordpool_576.txt	LTP115	ltpFR2	7	10	<>	-1	n/a	n/a	0	0	0
2344223	REC_WORD	wordpools/wasnorm_wordpool_576.txt	LTP115	ltpFR2	7	10	LETTUCE	814	n/a	n/a	0	0	0
2345055	REC_WORD	wordpools/wasnorm_wordpool_576.txt	LTP115	ltpFR2	7	10	BARLEY	88	n/a	n/a	0	0	0
2348452	REC_WORD	wordpools/wasnorm_wordpool_576.txt	LTP115	ltpFR2	7	10	SOFTBALL	1343	n/a	n/a	0	0	0
2366659	REC_WORD	wordpools/wasnorm_wordpool_576.txt	LTP115	ltpFR2	7	10	FRIEND	606	n/a	n/a	0	0	0
2407743	DISTRACTOR	n/a	LTP115	ltpFR2	7	11	n/a	n/a	n/a	n/a	0	0	0
2407743	START	n/a	LTP115	ltpFR2	7	n/a	n/a	n/a	14	n/a	n/a	n/a	n/a
2407776	PROB	n/a	LTP115	ltpFR2	7	n/a	n/a	n/a	14	22	9	4	8
2409590	PROB	n/a	LTP115	ltpFR2	7	n/a	n/a	n/a	14	18	3	8	7
2412470	PROB	n/a	LTP115	ltpFR2	7	n/a	n/a	n/a	14	8	1	1	6
2413768	PROB	n/a	LTP115	ltpFR2	7	n/a	n/a	n/a	14	7	1	1	5
2414899	PROB	n/a	LTP115	ltpFR2	7	n/a	n/a	n/a	14	10	8	1	1
2415914	PROB	n/a	LTP115	ltpFR2	7	n/a	n/a	n/a	14	17	1	8	8
2417645	PROB	n/a	LTP115	ltpFR2	7	n/a	n/a	n/a	14	12	4	7	1
2418860	PROB	n/a	LTP115	ltpFR2	7	n/a	n/a	n/a	14	15	3	9	3
2420542	PROB	n/a	LTP115	ltpFR2	7	n/a	n/a	n/a	14	18	8	1	9
2422155	PROB	n/a	LTP115	ltpFR2	7	n/a	n/a	n/a	14	20	3	9	8
2425068	PROB	n/a	LTP115	ltpFR2	7	n/a	n/a	n/a	14	10	1	2	7
2426317	PROB	n/a	LTP115	ltpFR2	7	n/a	n/a	n/a	14	17	3	9	5
2428564	PROB	n/a	LTP115	ltpFR2	7	n/a	n/a	n/a	14	19	7	9	3
2430177	PROB	n/a	LTP115	ltpFR2	7	n/a	n/a	n/a	14	12	7	3	2
2431525	STOP	n/a	LTP115	ltpFR2	7	n/a	n/a	n/a	14	n/a	n/a	n/a	n/a
2432806	WORD	wordpools/wasnorm_wordpool_576.txt	LTP115	ltpFR2	7	11	MILK	895	n/a	n/a	0	0	0
2435437	WORD	wordpools/wasnorm_wordpool_576.txt	LTP115	ltpFR2	7	11	TRACTOR	1493	n/a	n/a	0	0	0
2438148	WORD	wordpools/wasnorm_wordpool_576.txt	LTP115	ltpFR2	7	11	SNACK	1331	n/a	n/a	0	0	0
2440828	WORD	wordpools/wasnorm_wordpool_576.txt	LTP115	ltpFR2	7	11	TOURIST	1488	n/a	n/a	0	0	0
2443475	WORD	wordpools/wasnorm_wordpool_576.txt	LTP115	ltpFR2	7	11	COCOON	339	n/a	n/a	0	0	0
2446137	WORD	wordpools/wasnorm_wordpool_576.txt	LTP115	ltpFR2	7	11	PARTNER	1017	n/a	n/a	0	0	0
2448916	WORD	wordpools/wasnorm_wordpool_576.txt	LTP115	ltpFR2	7	11	SISTER	1312	n/a	n/a	0	0	0
2451363	WORD	wordpools/wasnorm_wordpool_576.txt	LTP115	ltpFR2	7	11	HUSBAND	728	n/a	n/a	0	0	0
2453975	WORD	wordpools/wasnorm_wordpool_576.txt	LTP115	ltpFR2	7	11	FOREHEAD	592	n/a	n/a	0	0	0
2456704	WORD	wordpools/wasnorm_wordpool_576.txt	LTP115	ltpFR2	7	11	VELVET	1555	n/a	n/a	0	0	0
2459167	WORD	wordpools/wasnorm_wordpool_576.txt	LTP115	ltpFR2	7	11	PADDING	999	n/a	n/a	0	0	0
2461980	WORD	wordpools/wasnorm_wordpool_576.txt	LTP115	ltpFR2	7	11	LIVER	833	n/a	n/a	0	0	0
2464743	WORD	wordpools/wasnorm_wordpool_576.txt	LTP115	ltpFR2	7	11	CHURCH	307	n/a	n/a	0	0	0
2467307	WORD	wordpools/wasnorm_wordpool_576.txt	LTP115	ltpFR2	7	11	GLOBE	641	n/a	n/a	0	0	0
2469868	WORD	wordpools/wasnorm_wordpool_576.txt	LTP115	ltpFR2	7	11	ACTRESS	6	n/a	n/a	0	0	0
2472565	WORD	wordpools/wasnorm_wordpool_576.txt	LTP115	ltpFR2	7	11	STUDENT	1395	n/a	n/a	0	0	0
2475094	WORD	wordpools/wasnorm_wordpool_576.txt	LTP115	ltpFR2	7	11	SPIDER	1351	n/a	n/a	0	0	0
2477840	WORD	wordpools/wasnorm_wordpool_576.txt	LTP115	ltpFR2	7	11	CAFE	216	n/a	n/a	0	0	0
2480619	WORD	wordpools/wasnorm_wordpool_576.txt	LTP115	ltpFR2	7	11	TUBA	1515	n/a	n/a	0	0	0
2483049	WORD	wordpools/wasnorm_wordpool_576.txt	LTP115	ltpFR2	7	11	RECORD	1176	n/a	n/a	0	0	0
2485745	WORD	wordpools/wasnorm_wordpool_576.txt	LTP115	ltpFR2	7	11	ROD	1203	n/a	n/a	0	0	0
2488425	WORD	wordpools/wasnorm_wordpool_576.txt	LTP115	ltpFR2	7	11	TEACHER	1440	n/a	n/a	0	0	0
2491004	WORD	wordpools/wasnorm_wordpool_576.txt	LTP115	ltpFR2	7	11	STICKER	1382	n/a	n/a	0	0	0
2493617	WORD	wordpools/wasnorm_wordpool_576.txt	LTP115	ltpFR2	7	11	DOLPHIN	483	n/a	n/a	0	0	0
2495232	START	n/a	LTP115	ltpFR2	7	n/a	n/a	n/a	15	n/a	n/a	n/a	n/a
2496198	DISTRACTOR	n/a	LTP115	ltpFR2	7	11	n/a	n/a	n/a	n/a	0	0	0
2496214	PROB	n/a	LTP115	ltpFR2	7	n/a	n/a	n/a	15	18	7	4	7
2498328	PROB	n/a	LTP115	ltpFR2	7	n/a	n/a	n/a	15	11	6	2	3
2500424	PROB	n/a	LTP115	ltpFR2	7	n/a	n/a	n/a	15	6	1	2	3
2501473	PROB	n/a	LTP115	ltpFR2	7	n/a	n/a	n/a	15	11	2	6	3
2502953	PROB	n/a	LTP115	ltpFR2	7	n/a	n/a	n/a	15	20	9	7	4
2504651	PROB	n/a	LTP115	ltpFR2	7	n/a	n/a	n/a	15	8	1	4	3
2505932	PROB	n/a	LTP115	ltpFR2	7	n/a	n/a	n/a	15	9	1	6	2
2507481	PROB	n/a	LTP115	ltpFR2	7	n/a	n/a	n/a	15	14	3	5	6
2508994	PROB	n/a	LTP115	ltpFR2	7	n/a	n/a	n/a	15	7	1	5	1
2510026	PROB	n/a	LTP115	ltpFR2	7	n/a	n/a	n/a	15	12	5	6	1
2511091	PROB	n/a	LTP115	ltpFR2	7	n/a	n/a	n/a	15	134	1	7	6
2513455	PROB	n/a	LTP115	ltpFR2	7	n/a	n/a	n/a	15	13	2	8	3
2515519	PROB	n/a	LTP115	ltpFR2	7	n/a	n/a	n/a	15	12	5	1	6
2516916	PROB	n/a	LTP115	ltpFR2	7	n/a	n/a	n/a	15	21	5	8	8
2518686	STOP	n/a	LTP115	ltpFR2	7	n/a	n/a	n/a	15	n/a	n/a	n/a	n/a
2521160	REC_START	n/a	LTP115	ltpFR2	7	11	n/a	n/a	n/a	n/a	0	0	0
2522469	REC_WORD	wordpools/wasnorm_wordpool_576.txt	LTP115	ltpFR2	7	11	TEACHER	1440	n/a	n/a	0	0	0
2523094	REC_WORD	wordpools/wasnorm_wordpool_576.txt	LTP115	ltpFR2	7	11	ROD	1203	n/a	n/a	0	0	0
2523599	REC_WORD	wordpools/wasnorm_wordpool_576.txt	LTP115	ltpFR2	7	11	STICKER	1382	n/a	n/a	0	0	0
2524125	REC_WORD	wordpools/wasnorm_wordpool_576.txt	LTP115	ltpFR2	7	11	STUDENT	1395	n/a	n/a	0	0	0
2525667	REC_WORD	wordpools/wasnorm_wordpool_576.txt	LTP115	ltpFR2	7	11	ACTRESS	6	n/a	n/a	0	0	0
2527656	REC_WORD	wordpools/wasnorm_wordpool_576.txt	LTP115	ltpFR2	7	11	TRACTOR	1493	n/a	n/a	0	0	0
2529225	REC_WORD	wordpools/wasnorm_wordpool_576.txt	LTP115	ltpFR2	7	11	GLOBE	641	n/a	n/a	0	0	0
2532252	REC_WORD	wordpools/wasnorm_wordpool_576.txt	LTP115	ltpFR2	7	11	TOURIST	1488	n/a	n/a	0	0	0
2534924	REC_WORD	wordpools/wasnorm_wordpool_576.txt	LTP115	ltpFR2	7	11	PARTNER	1017	n/a	n/a	0	0	0
2535547	REC_WORD	wordpools/wasnorm_wordpool_576.txt	LTP115	ltpFR2	7	11	SISTER	1312	n/a	n/a	0	0	0
2536199	REC_WORD	wordpools/wasnorm_wordpool_576.txt	LTP115	ltpFR2	7	11	HUSBAND	728	n/a	n/a	0	0	0
2539130	REC_WORD	wordpools/wasnorm_wordpool_576.txt	LTP115	ltpFR2	7	11	SNACK	1331	n/a	n/a	0	0	0
2540411	REC_WORD	wordpools/wasnorm_wordpool_576.txt	LTP115	ltpFR2	7	11	MILK	895	n/a	n/a	0	0	0
2548150	REC_WORD	wordpools/wasnorm_wordpool_576.txt	LTP115	ltpFR2	7	11	SPIDER	1351	n/a	n/a	0	0	0
2548912	REC_WORD	wordpools/wasnorm_wordpool_576.txt	LTP115	ltpFR2	7	11	CAFE	216	n/a	n/a	0	0	0
2611826	DISTRACTOR	n/a	LTP115	ltpFR2	7	12	n/a	n/a	n/a	n/a	0	0	0
2611827	START	n/a	LTP115	ltpFR2	7	n/a	n/a	n/a	16	n/a	n/a	n/a	n/a
2611860	PROB	n/a	LTP115	ltpFR2	7	n/a	n/a	n/a	16	12	3	6	3
2614207	PROB	n/a	LTP115	ltpFR2	7	n/a	n/a	n/a	16	12	1	3	9
2615854	PROB	n/a	LTP115	ltpFR2	7	n/a	n/a	n/a	16	16	7	1	8
2620282	PROB	n/a	LTP115	ltpFR2	7	n/a	n/a	n/a	16	14	5	7	2
2622428	PROB	n/a	LTP115	ltpFR2	7	n/a	n/a	n/a	16	22	8	5	9
2624442	PROB	n/a	LTP115	ltpFR2	7	n/a	n/a	n/a	16	10	3	4	3
2626522	PROB	n/a	LTP115	ltpFR2	7	n/a	n/a	n/a	16	19	9	4	6
2628486	PROB	n/a	LTP115	ltpFR2	7	n/a	n/a	n/a	16	10	1	8	1
2629485	PROB	n/a	LTP115	ltpFR2	7	n/a	n/a	n/a	16	16	6	1	9
2630848	PROB	n/a	LTP115	ltpFR2	7	n/a	n/a	n/a	16	14	6	7	1
2632197	PROB	n/a	LTP115	ltpFR2	7	n/a	n/a	n/a	16	3	1	1	1
2633095	PROB	n/a	LTP115	ltpFR2	7	n/a	n/a	n/a	16	23	8	9	6
2635048	STOP	n/a	LTP115	ltpFR2	7	n/a	n/a	n/a	16	n/a	n/a	n/a	n/a
2636706	WORD	wordpools/wasnorm_wordpool_576.txt	LTP115	ltpFR2	7	12	PLAID	1080	n/a	n/a	0	0	0
2639403	WORD	wordpools/wasnorm_wordpool_576.txt	LTP115	ltpFR2	7	12	BUBBLE	183	n/a	n/a	0	0	0
2641899	WORD	wordpools/wasnorm_wordpool_576.txt	LTP115	ltpFR2	7	12	PADDLE	1000	n/a	n/a	0	0	0
2644661	WORD	wordpools/wasnorm_wordpool_576.txt	LTP115	ltpFR2	7	12	BROTHER	179	n/a	n/a	0	0	0
2647242	WORD	wordpools/wasnorm_wordpool_576.txt	LTP115	ltpFR2	7	12	PEANUT	1032	n/a	n/a	0	0	0
2649854	WORD	wordpools/wasnorm_wordpool_576.txt	LTP115	ltpFR2	7	12	FRAGRANCE	599	n/a	n/a	0	0	0
2652567	WORD	wordpools/wasnorm_wordpool_576.txt	LTP115	ltpFR2	7	12	PEPPER	1047	n/a	n/a	0	0	0
2655363	WORD	wordpools/wasnorm_wordpool_576.txt	LTP115	ltpFR2	7	12	PEBBLE	1035	n/a	n/a	0	0	0
2657909	WORD	wordpools/wasnorm_wordpool_576.txt	LTP115	ltpFR2	7	12	TREAT	1501	n/a	n/a	0	0	0
2660556	WORD	wordpools/wasnorm_wordpool_576.txt	LTP115	ltpFR2	7	12	SPONGE	1355	n/a	n/a	0	0	0
2663151	WORD	wordpools/wasnorm_wordpool_576.txt	LTP115	ltpFR2	7	12	PIMPLE	1071	n/a	n/a	0	0	0
2665797	WORD	wordpools/wasnorm_wordpool_576.txt	LTP115	ltpFR2	7	12	CRATER	400	n/a	n/a	0	0	0
2668411	WORD	wordpools/wasnorm_wordpool_576.txt	LTP115	ltpFR2	7	12	EMPIRE	530	n/a	n/a	0	0	0
2670856	WORD	wordpools/wasnorm_wordpool_576.txt	LTP115	ltpFR2	7	12	GREASE	660	n/a	n/a	0	0	0
2673487	WORD	wordpools/wasnorm_wordpool_576.txt	LTP115	ltpFR2	7	12	BUGGY	188	n/a	n/a	0	0	0
2676015	WORD	wordpools/wasnorm_wordpool_576.txt	LTP115	ltpFR2	7	12	PERFUME	1049	n/a	n/a	0	0	0
2678595	WORD	wordpools/wasnorm_wordpool_576.txt	LTP115	ltpFR2	7	12	MARINE	869	n/a	n/a	0	0	0
2681225	WORD	wordpools/wasnorm_wordpool_576.txt	LTP115	ltpFR2	7	12	CASHEW	253	n/a	n/a	0	0	0
2683954	WORD	wordpools/wasnorm_wordpool_576.txt	LTP115	ltpFR2	7	12	TORTOISE	1486	n/a	n/a	0	0	0
2686633	WORD	wordpools/wasnorm_wordpool_576.txt	LTP115	ltpFR2	7	12	SNAIL	1332	n/a	n/a	0	0	0
2689330	WORD	wordpools/wasnorm_wordpool_576.txt	LTP115	ltpFR2	7	12	PICTURE	1061	n/a	n/a	0	0	0
2692075	WORD	wordpools/wasnorm_wordpool_576.txt	LTP115	ltpFR2	7	12	CANYON	235	n/a	n/a	0	0	0
2694788	WORD	wordpools/wasnorm_wordpool_576.txt	LTP115	ltpFR2	7	12	TRANSPLANT	1496	n/a	n/a	0	0	0
2697568	WORD	wordpools/wasnorm_wordpool_576.txt	LTP115	ltpFR2	7	12	SPARROW	1347	n/a	n/a	0	0	0
2699181	START	n/a	LTP115	ltpFR2	7	n/a	n/a	n/a	17	n/a	n/a	n/a	n/a
2700207	DISTRACTOR	n/a	LTP115	ltpFR2	7	12	n/a	n/a	n/a	n/a	0	0	0
2700214	PROB	n/a	LTP115	ltpFR2	7	n/a	n/a	n/a	17	17	7	2	8
2703443	PROB	n/a	LTP115	ltpFR2	7	n/a	n/a	n/a	17	11	2	7	2
2705106	PROB	n/a	LTP115	ltpFR2	7	n/a	n/a	n/a	17	18	9	6	3
2706555	PROB	n/a	LTP115	ltpFR2	7	n/a	n/a	n/a	17	19	9	4	6
2708485	PROB	n/a	LTP115	ltpFR2	7	n/a	n/a	n/a	17	20	4	7	9
2710148	PROB	n/a	LTP115	ltpFR2	7	n/a	n/a	n/a	17	12	3	3	6
2712346	PROB	n/a	LTP115	ltpFR2	7	n/a	n/a	n/a	17	12	8	1	3
2714076	PROB	n/a	LTP115	ltpFR2	7	n/a	n/a	n/a	17	10	6	1	3
2715690	PROB	n/a	LTP115	ltpFR2	7	n/a	n/a	n/a	17	12	3	6	3
2717970	PROB	n/a	LTP115	ltpFR2	7	n/a	n/a	n/a	17	12	6	3	3
2719353	PROB	n/a	LTP115	ltpFR2	7	n/a	n/a	n/a	17	14	4	4	6
2721032	PROB	n/a	LTP115	ltpFR2	7	n/a	n/a	n/a	17	9	6	1	2
2722347	STOP	n/a	LTP115	ltpFR2	7	n/a	n/a	n/a	17	n/a	n/a	n/a	n/a
2725060	REC_START	n/a	LTP115	ltpFR2	7	12	n/a	n/a	n/a	n/a	0	0	0
2725728	REC_WORD	wordpools/wasnorm_wordpool_576.txt	LTP115	ltpFR2	7	12	FRAGRANCE	599	n/a	n/a	0	0	0
2726639	REC_WORD	wordpools/wasnorm_wordpool_576.txt	LTP115	ltpFR2	7	12	PERFUME	1049	n/a	n/a	0	0	0
2728591	REC_WORD	wordpools/wasnorm_wordpool_576.txt	LTP115	ltpFR2	7	12	PEPPER	1047	n/a	n/a	0	0	0
2732277	REC_WORD	wordpools/wasnorm_wordpool_576.txt	LTP115	ltpFR2	7	12	PEBBLE	1035	n/a	n/a	0	0	0
2733617	REC_WORD	wordpools/wasnorm_wordpool_576.txt	LTP115	ltpFR2	7	12	PADDLE	1000	n/a	n/a	0	0	0
2734865	REC_WORD	wordpools/wasnorm_wordpool_576.txt	LTP115	ltpFR2	7	12	BUBBLE	183	n/a	n/a	0	0	0
2737989	REC_WORD	wordpools/wasnorm_wordpool_576.txt	LTP115	ltpFR2	7	12	GREASE	660	n/a	n/a	0	0	0
2739328	REC_WORD	wordpools/wasnorm_wordpool_576.txt	LTP115	ltpFR2	7	12	BROTHER	179	n/a	n/a	0	0	0
2740663	REC_WORD	wordpools/wasnorm_wordpool_576.txt	LTP115	ltpFR2	7	12	TORTOISE	1486	n/a	n/a	0	0	0
2741481	REC_WORD	wordpools/wasnorm_wordpool_576.txt	LTP115	ltpFR2	7	12	SNAIL	1332	n/a	n/a	0	0	0
2742866	REC_WORD	wordpools/wasnorm_wordpool_576.txt	LTP115	ltpFR2	7	12	EMPIRE	530	n/a	n/a	0	0	0
2743866	REC_WORD_VV	wordpools/wasnorm_wordpool_576.txt	LTP115	ltpFR2	7	12	<>	-1	n/a	n/a	0	0	0
2748588	REC_WORD	wordpools/wasnorm_wordpool_576.txt	LTP115	ltpFR2	7	12	PADDLE	1000	n/a	n/a	0	0	0
2769122	REC_WORD	wordpools/wasnorm_wordpool_576.txt	LTP115	ltpFR2	7	12	TREAT	1501	n/a	n/a	0	0	0
2770447	REC_WORD	wordpools/wasnorm_wordpool_576.txt	LTP115	ltpFR2	7	12	CASHEW	253	n/a	n/a	0	0	0
2772222	REC_WORD	wordpools/wasnorm_wordpool_576.txt	LTP115	ltpFR2	7	12	PEANUT	1032	n/a	n/a	0	0	0
2815826	WORD	wordpools/wasnorm_wordpool_576.txt	LTP115	ltpFR2	7	13	DUST	508	n/a	n/a	0	0	0
2818540	WORD	wordpools/wasnorm_wordpool_576.txt	LTP115	ltpFR2	7	13	SODA	1341	n/a	n/a	0	0	0
2821052	WORD	wordpools/wasnorm_wordpool_576.txt	LTP115	ltpFR2	7	13	PENGUIN	1044	n/a	n/a	0	0	0
2823582	WORD	wordpools/wasnorm_wordpool_576.txt	LTP115	ltpFR2	7	13	WAITRESS	1581	n/a	n/a	0	0	0
2826145	WORD	wordpools/wasnorm_wordpool_576.txt	LTP115	ltpFR2	7	13	CRAYON	401	n/a	n/a	0	0	0
2828624	WORD	wordpools/wasnorm_wordpool_576.txt	LTP115	ltpFR2	7	13	DRAGON	492	n/a	n/a	0	0	0
2831188	WORD	wordpools/wasnorm_wordpool_576.txt	LTP115	ltpFR2	7	13	STAKE	1368	n/a	n/a	0	0	0
2833617	WORD	wordpools/wasnorm_wordpool_576.txt	LTP115	ltpFR2	7	13	MISSILE	900	n/a	n/a	0	0	0
2836381	WORD	wordpools/wasnorm_wordpool_576.txt	LTP115	ltpFR2	7	13	SADDLE	1221	n/a	n/a	0	0	0
2838893	WORD	wordpools/wasnorm_wordpool_576.txt	LTP115	ltpFR2	7	13	BANJO	82	n/a	n/a	0	0	0
2841423	WORD	wordpools/wasnorm_wordpool_576.txt	LTP115	ltpFR2	7	13	THREAD	1460	n/a	n/a	0	0	0
2843852	WORD	wordpools/wasnorm_wordpool_576.txt	LTP115	ltpFR2	7	13	TOASTER	1472	n/a	n/a	0	0	0
2846432	WORD	wordpools/wasnorm_wordpool_576.txt	LTP115	ltpFR2	7	13	GOBLIN	645	n/a	n/a	0	0	0
2849094	WORD	wordpools/wasnorm_wordpool_576.txt	LTP115	ltpFR2	7	13	SALT	1229	n/a	n/a	0	0	0
2851575	WORD	wordpools/wasnorm_wordpool_576.txt	LTP115	ltpFR2	7	13	GARLIC	624	n/a	n/a	0	0	0
2854137	WORD	wordpools/wasnorm_wordpool_576.txt	LTP115	ltpFR2	7	13	CUPBOARD	425	n/a	n/a	0	0	0
2856650	WORD	wordpools/wasnorm_wordpool_576.txt	LTP115	ltpFR2	7	13	CHAPEL	280	n/a	n/a	0	0	0
2859146	WORD	wordpools/wasnorm_wordpool_576.txt	LTP115	ltpFR2	7	13	SHELF	1280	n/a	n/a	0	0	0
2861925	WORD	wordpools/wasnorm_wordpool_576.txt	LTP115	ltpFR2	7	13	JAPAN	749	n/a	n/a	0	0	0
2864406	WORD	wordpools/wasnorm_wordpool_576.txt	LTP115	ltpFR2	7	13	ASIA	46	n/a	n/a	0	0	0
2867151	WORD	wordpools/wasnorm_wordpool_576.txt	LTP115	ltpFR2	7	13	GRAVEL	659	n/a	n/a	0	0	0
2869847	WORD	wordpools/wasnorm_wordpool_576.txt	LTP115	ltpFR2	7	13	ZEBRA	1635	n/a	n/a	0	0	0
2872626	WORD	wordpools/wasnorm_wordpool_576.txt	LTP115	ltpFR2	7	13	POET	1095	n/a	n/a	0	0	0
2875440	WORD	wordpools/wasnorm_wordpool_576.txt	LTP115	ltpFR2	7	13	COUSIN	392	n/a	n/a	0	0	0
2877053	START	n/a	LTP115	ltpFR2	7	n/a	n/a	n/a	18	n/a	n/a	n/a	n/a
2877960	DISTRACTOR	n/a	LTP115	ltpFR2	7	13	n/a	n/a	n/a	n/a	0	0	0
2877968	PROB	n/a	LTP115	ltpFR2	7	n/a	n/a	n/a	18	13	2	6	5
2880015	PROB	n/a	LTP115	ltpFR2	7	n/a	n/a	n/a	18	23	8	9	6
2882346	PROB	n/a	LTP115	ltpFR2	7	n/a	n/a	n/a	18	9	3	1	5
2883643	PROB	n/a	LTP115	ltpFR2	7	n/a	n/a	n/a	18	16	1	9	6
2885940	PROB	n/a	LTP115	ltpFR2	7	n/a	n/a	n/a	18	17	6	6	5
2888037	PROB	n/a	LTP115	ltpFR2	7	n/a	n/a	n/a	18	16	4	7	5
2889618	PROB	n/a	LTP115	ltpFR2	7	n/a	n/a	n/a	18	13	5	1	7
2891066	PROB	n/a	LTP115	ltpFR2	7	n/a	n/a	n/a	18	23	7	9	7
2893046	PROB	n/a	LTP115	ltpFR2	7	n/a	n/a	n/a	18	14	6	7	1
2894710	PROB	n/a	LTP115	ltpFR2	7	n/a	n/a	n/a	18	16	3	6	7
2896276	PROB	n/a	LTP115	ltpFR2	7	n/a	n/a	n/a	18	8	2	1	5
2897989	PROB	n/a	LTP115	ltpFR2	7	n/a	n/a	n/a	18	15	4	7	4
2899538	PROB	n/a	LTP115	ltpFR2	7	n/a	n/a	n/a	18	15	3	9	3
2900790	STOP	n/a	LTP115	ltpFR2	7	n/a	n/a	n/a	18	n/a	n/a	n/a	n/a
2902949	REC_START	n/a	LTP115	ltpFR2	7	13	n/a	n/a	n/a	n/a	0	0	0
2903874	REC_WORD	wordpools/wasnorm_wordpool_576.txt	LTP115	ltpFR2	7	13	ZEBRA	1635	n/a	n/a	0	0	0
2906422	REC_WORD	wordpools/wasnorm_wordpool_576.txt	LTP115	ltpFR2	7	13	DUST	508	n/a	n/a	0	0	0
2907057	REC_WORD	wordpools/wasnorm_wordpool_576.txt	LTP115	ltpFR2	7	13	SODA	1341	n/a	n/a	0	0	0
2907720	REC_WORD	wordpools/wasnorm_wordpool_576.txt	LTP115	ltpFR2	7	13	PENGUIN	1044	n/a	n/a	0	0	0
2908408	REC_WORD	wordpools/wasnorm_wordpool_576.txt	LTP115	ltpFR2	7	13	WAITRESS	1581	n/a	n/a	0	0	0
2909986	REC_WORD	wordpools/wasnorm_wordpool_576.txt	LTP115	ltpFR2	7	13	STAKE	1368	n/a	n/a	0	0	0
2916472	REC_WORD	wordpools/wasnorm_wordpool_576.txt	LTP115	ltpFR2	7	13	CRAYON	401	n/a	n/a	0	0	0
2920019	REC_WORD	wordpools/wasnorm_wordpool_576.txt	LTP115	ltpFR2	7	13	DRAWING	494	n/a	n/a	0	0	0
2928720	REC_WORD	wordpools/wasnorm_wordpool_576.txt	LTP115	ltpFR2	7	13	THREAD	1460	n/a	n/a	0	0	0
2929703	REC_WORD	wordpools/wasnorm_wordpool_576.txt	LTP115	ltpFR2	7	13	SADDLE	1221	n/a	n/a	0	0	0
2930770	REC_WORD	wordpools/wasnorm_wordpool_576.txt	LTP115	ltpFR2	7	13	CUPBOARD	425	n/a	n/a	0	0	0
2932235	REC_WORD	wordpools/wasnorm_wordpool_576.txt	LTP115	ltpFR2	7	13	SHELF	1280	n/a	n/a	0	0	0
2993615	DISTRACTOR	n/a	LTP115	ltpFR2	7	14	n/a	n/a	n/a	n/a	0	0	0
2993615	START	n/a	LTP115	ltpFR2	7	n/a	n/a	n/a	19	n/a	n/a	n/a	n/a
2993648	PROB	n/a	LTP115	ltpFR2	7	n/a	n/a	n/a	19	12	6	5	1
2994963	PROB	n/a	LTP115	ltpFR2	7	n/a	n/a	n/a	19	15	6	1	8
2996429	PROB	n/a	LTP115	ltpFR2	7	n/a	n/a	n/a	19	15	4	6	5
2997609	PROB	n/a	LTP115	ltpFR2	7	n/a	n/a	n/a	19	8	3	3	2
3000339	PROB	n/a	LTP115	ltpFR2	7	n/a	n/a	n/a	19	13	6	6	1
3001986	PROB	n/a	LTP115	ltpFR2	7	n/a	n/a	n/a	19	9	3	3	3
3003001	PROB	n/a	LTP115	ltpFR2	7	n/a	n/a	n/a	19	7	3	1	3
3004284	PROB	n/a	LTP115	ltpFR2	7	n/a	n/a	n/a	19	18	9	3	6
3005631	PROB	n/a	LTP115	ltpFR2	7	n/a	n/a	n/a	19	22	8	9	5
3008094	PROB	n/a	LTP115	ltpFR2	7	n/a	n/a	n/a	19	13	9	3	1
3011073	PROB	n/a	LTP115	ltpFR2	7	n/a	n/a	n/a	19	10	4	1	5
3012587	PROB	n/a	LTP115	ltpFR2	7	n/a	n/a	n/a	19	11	5	5	1
3013602	PROB	n/a	LTP115	ltpFR2	7	n/a	n/a	n/a	19	15	5	6	4
3015100	PROB	n/a	LTP115	ltpFR2	7	n/a	n/a	n/a	19	17	6	6	5
3016442	STOP	n/a	LTP115	ltpFR2	7	n/a	n/a	n/a	19	n/a	n/a	n/a	n/a
3018579	WORD	wordpools/wasnorm_wordpool_576.txt	LTP115	ltpFR2	7	14	MAILMAN	858	n/a	n/a	0	0	0
3021392	WORD	wordpools/wasnorm_wordpool_576.txt	LTP115	ltpFR2	7	14	HOUND	724	n/a	n/a	0	0	0
3023937	WORD	wordpools/wasnorm_wordpool_576.txt	LTP115	ltpFR2	7	14	POSSUM	1112	n/a	n/a	0	0	0
3026716	WORD	wordpools/wasnorm_wordpool_576.txt	LTP115	ltpFR2	7	14	CHEST	295	n/a	n/a	0	0	0
3029463	WORD	wordpools/wasnorm_wordpool_576.txt	LTP115	ltpFR2	7	14	RAZOR	1171	n/a	n/a	0	0	0
3031975	WORD	wordpools/wasnorm_wordpool_576.txt	LTP115	ltpFR2	7	14	GAVEL	627	n/a	n/a	0	0	0
3034406	WORD	wordpools/wasnorm_wordpool_576.txt	LTP115	ltpFR2	7	14	ISLAND	745	n/a	n/a	0	0	0
3036935	WORD	wordpools/wasnorm_wordpool_576.txt	LTP115	ltpFR2	7	14	ARMY	39	n/a	n/a	0	0	0
3039432	WORD	wordpools/wasnorm_wordpool_576.txt	LTP115	ltpFR2	7	14	CEILING	265	n/a	n/a	0	0	0
3042177	WORD	wordpools/wasnorm_wordpool_576.txt	LTP115	ltpFR2	7	14	CRITIC	410	n/a	n/a	0	0	0
3044607	WORD	wordpools/wasnorm_wordpool_576.txt	LTP115	ltpFR2	7	14	BEAST	108	n/a	n/a	0	0	0
3047086	WORD	wordpools/wasnorm_wordpool_576.txt	LTP115	ltpFR2	7	14	PUDDLE	1140	n/a	n/a	0	0	0
3049766	WORD	wordpools/wasnorm_wordpool_576.txt	LTP115	ltpFR2	7	14	WHISTLE	1606	n/a	n/a	0	0	0
3052363	WORD	wordpools/wasnorm_wordpool_576.txt	LTP115	ltpFR2	7	14	KNIFE	785	n/a	n/a	0	0	0
3055108	WORD	wordpools/wasnorm_wordpool_576.txt	LTP115	ltpFR2	7	14	TABLET	1427	n/a	n/a	0	0	0
3057904	WORD	wordpools/wasnorm_wordpool_576.txt	LTP115	ltpFR2	7	14	OINTMENT	974	n/a	n/a	0	0	0
3060616	WORD	wordpools/wasnorm_wordpool_576.txt	LTP115	ltpFR2	7	14	COD	340	n/a	n/a	0	0	0
3063046	WORD	wordpools/wasnorm_wordpool_576.txt	LTP115	ltpFR2	7	14	SHARK	1275	n/a	n/a	0	0	0
3065477	WORD	wordpools/wasnorm_wordpool_576.txt	LTP115	ltpFR2	7	14	LION	827	n/a	n/a	0	0	0
3068155	WORD	wordpools/wasnorm_wordpool_576.txt	LTP115	ltpFR2	7	14	GUITAR	670	n/a	n/a	0	0	0
3070735	WORD	wordpools/wasnorm_wordpool_576.txt	LTP115	ltpFR2	7	14	GROUND	666	n/a	n/a	0	0	0
3073299	WORD	wordpools/wasnorm_wordpool_576.txt	LTP115	ltpFR2	7	14	SWORD	1423	n/a	n/a	0	0	0
3075794	WORD	wordpools/wasnorm_wordpool_576.txt	LTP115	ltpFR2	7	14	LOFT	840	n/a	n/a	0	0	0
3078475	WORD	wordpools/wasnorm_wordpool_576.txt	LTP115	ltpFR2	7	14	VENUS	1557	n/a	n/a	0	0	0
3080088	START	n/a	LTP115	ltpFR2	7	n/a	n/a	n/a	20	n/a	n/a	n/a	n/a
3081212	DISTRACTOR	n/a	LTP115	ltpFR2	7	14	n/a	n/a	n/a	n/a	0	0	0
3081221	PROB	n/a	LTP115	ltpFR2	7	n/a	n/a	n/a	20	10	2	1	7
3082984	PROB	n/a	LTP115	ltpFR2	7	n/a	n/a	n/a	20	12	3	5	4
3084399	PROB	n/a	LTP115	ltpFR2	7	n/a	n/a	n/a	20	18	6	4	8
3086396	PROB	n/a	LTP115	ltpFR2	7	n/a	n/a	n/a	20	16	4	7	5
3090007	PROB	n/a	LTP115	ltpFR2	7	n/a	n/a	n/a	20	18	8	2	8
3091472	PROB	n/a	LTP115	ltpFR2	7	n/a	n/a	n/a	20	17	3	5	9
3092803	PROB	n/a	LTP115	ltpFR2	7	n/a	n/a	n/a	20	20	7	7	6
3094418	PROB	n/a	LTP115	ltpFR2	7	n/a	n/a	n/a	20	18	7	6	5
3096081	PROB	n/a	LTP115	ltpFR2	7	n/a	n/a	n/a	20	14	3	4	7
3097662	PROB	n/a	LTP115	ltpFR2	7	n/a	n/a	n/a	20	13	7	4	2
3099311	PROB	n/a	LTP115	ltpFR2	7	n/a	n/a	n/a	20	17	1	8	8
3100807	PROB	n/a	LTP115	ltpFR2	7	n/a	n/a	n/a	20	11	2	1	8
3102635	STOP	n/a	LTP115	ltpFR2	7	n/a	n/a	n/a	20	n/a	n/a	n/a	n/a
3105884	REC_START	n/a	LTP115	ltpFR2	7	14	n/a	n/a	n/a	n/a	0	0	0
3106764	REC_WORD	wordpools/wasnorm_wordpool_576.txt	LTP115	ltpFR2	7	14	SWORD	1423	n/a	n/a	0	0	0
3107708	REC_WORD	wordpools/wasnorm_wordpool_576.txt	LTP115	ltpFR2	7	14	GROUND	666	n/a	n/a	0	0	0
3108431	REC_WORD	wordpools/wasnorm_wordpool_576.txt	LTP115	ltpFR2	7	14	KNIFE	785	n/a	n/a	0	0	0
3109279	REC_WORD	wordpools/wasnorm_wordpool_576.txt	LTP115	ltpFR2	7	14	ISLAND	745	n/a	n/a	0	0	0
3110071	REC_WORD	wordpools/wasnorm_wordpool_576.txt	LTP115	ltpFR2	7	14	GAVEL	627	n/a	n/a	0	0	0
3112626	REC_WORD	wordpools/wasnorm_wordpool_576.txt	LTP115	ltpFR2	7	14	LION	827	n/a	n/a	0	0	0
3115443	REC_WORD	wordpools/wasnorm_wordpool_576.txt	LTP115	ltpFR2	7	14	SHARK	1275	n/a	n/a	0	0	0
3125639	REC_WORD	wordpools/wasnorm_wordpool_576.txt	LTP115	ltpFR2	7	14	SALMON	1227	n/a	n/a	0	0	0
3153135	REC_WORD	wordpools/wasnorm_wordpool_576.txt	LTP115	ltpFR2	7	14	ARMY	39	n/a	n/a	0	0	0
3154135	REC_WORD_VV	wordpools/wasnorm_wordpool_576.txt	LTP115	ltpFR2	7	14	<>	-1	n/a	n/a	0	0	0
3161389	REC_WORD	wordpools/wasnorm_wordpool_576.txt	LTP115	ltpFR2	7	14	WAITRESS	1581	n/a	n/a	0	0	0
3162791	REC_WORD_VV	wordpools/wasnorm_wordpool_576.txt	LTP115	ltpFR2	7	14	<>	-1	n/a	n/a	0	0	0
3163791	REC_WORD_VV	wordpools/wasnorm_wordpool_576.txt	LTP115	ltpFR2	7	14	<>	-1	n/a	n/a	0	0	0
3175692	REC_WORD	wordpools/wasnorm_wordpool_576.txt	LTP115	ltpFR2	7	14	GUITAR	670	n/a	n/a	0	0	0
3196534	DISTRACTOR	n/a	LTP115	ltpFR2	7	15	n/a	n/a	n/a	n/a	0	0	0
3196535	START	n/a	LTP115	ltpFR2	7	n/a	n/a	n/a	21	n/a	n/a	n/a	n/a
3196568	PROB	n/a	LTP115	ltpFR2	7	n/a	n/a	n/a	21	15	3	7	5
3199347	PROB	n/a	LTP115	ltpFR2	7	n/a	n/a	n/a	21	20	9	3	8
3201294	PROB	n/a	LTP115	ltpFR2	7	n/a	n/a	n/a	21	14	7	6	1
3202874	PROB	n/a	LTP115	ltpFR2	7	n/a	n/a	n/a	21	12	6	1	5
3203939	PROB	n/a	LTP115	ltpFR2	7	n/a	n/a	n/a	21	11	6	4	1
3204938	PROB	n/a	LTP115	ltpFR2	7	n/a	n/a	n/a	21	10	7	1	2
3206086	PROB	n/a	LTP115	ltpFR2	7	n/a	n/a	n/a	21	20	2	9	9
3208899	PROB	n/a	LTP115	ltpFR2	7	n/a	n/a	n/a	21	14	6	2	6
3210945	PROB	n/a	LTP115	ltpFR2	7	n/a	n/a	n/a	21	13	8	3	2
3212077	PROB	n/a	LTP115	ltpFR2	7	n/a	n/a	n/a	21	15	9	1	5
3214192	PROB	n/a	LTP115	ltpFR2	7	n/a	n/a	n/a	21	16	5	8	3
3215556	PROB	n/a	LTP115	ltpFR2	7	n/a	n/a	n/a	21	112	1	4	7
3216804	PROB	n/a	LTP115	ltpFR2	7	n/a	n/a	n/a	21	22	5	9	8
3219399	STOP	n/a	LTP115	ltpFR2	7	n/a	n/a	n/a	21	n/a	n/a	n/a	n/a
3221364	WORD	wordpools/wasnorm_wordpool_576.txt	LTP115	ltpFR2	7	15	PIGMENT	1066	n/a	n/a	0	0	0
3224109	WORD	wordpools/wasnorm_wordpool_576.txt	LTP115	ltpFR2	7	15	MARKER	870	n/a	n/a	0	0	0
3226839	WORD	wordpools/wasnorm_wordpool_576.txt	LTP115	ltpFR2	7	15	PASTA	1021	n/a	n/a	0	0	0
3229469	WORD	wordpools/wasnorm_wordpool_576.txt	LTP115	ltpFR2	7	15	LOVER	846	n/a	n/a	0	0	0
3231998	WORD	wordpools/wasnorm_wordpool_576.txt	LTP115	ltpFR2	7	15	WARDROBE	1587	n/a	n/a	0	0	0
3234445	WORD	wordpools/wasnorm_wordpool_576.txt	LTP115	ltpFR2	7	15	SIBLING	1301	n/a	n/a	0	0	0
3237040	WORD	wordpools/wasnorm_wordpool_576.txt	LTP115	ltpFR2	7	15	IGLOO	734	n/a	n/a	0	0	0
3239687	WORD	wordpools/wasnorm_wordpool_576.txt	LTP115	ltpFR2	7	15	SUNRISE	1407	n/a	n/a	0	0	0
3242284	WORD	wordpools/wasnorm_wordpool_576.txt	LTP115	ltpFR2	7	15	BOYFRIEND	162	n/a	n/a	0	0	0
3245045	WORD	wordpools/wasnorm_wordpool_576.txt	LTP115	ltpFR2	7	15	KLEENEX	782	n/a	n/a	0	0	0
3247791	WORD	wordpools/wasnorm_wordpool_576.txt	LTP115	ltpFR2	7	15	KNAPSACK	783	n/a	n/a	0	0	0
3250438	WORD	wordpools/wasnorm_wordpool_576.txt	LTP115	ltpFR2	7	15	CRAB	397	n/a	n/a	0	0	0
3252900	WORD	wordpools/wasnorm_wordpool_576.txt	LTP115	ltpFR2	7	15	SCALLOP	1242	n/a	n/a	0	0	0
3255498	WORD	wordpools/wasnorm_wordpool_576.txt	LTP115	ltpFR2	7	15	PACKAGE	997	n/a	n/a	0	0	0
3257960	WORD	wordpools/wasnorm_wordpool_576.txt	LTP115	ltpFR2	7	15	MESSAGE	888	n/a	n/a	0	0	0
3260639	WORD	wordpools/wasnorm_wordpool_576.txt	LTP115	ltpFR2	7	15	AUTHOR	61	n/a	n/a	0	0	0
3263286	WORD	wordpools/wasnorm_wordpool_576.txt	LTP115	ltpFR2	7	15	LIPSTICK	829	n/a	n/a	0	0	0
3265781	WORD	wordpools/wasnorm_wordpool_576.txt	LTP115	ltpFR2	7	15	TILE	1468	n/a	n/a	0	0	0
3268379	WORD	wordpools/wasnorm_wordpool_576.txt	LTP115	ltpFR2	7	15	FLAG	573	n/a	n/a	0	0	0
3271140	WORD	wordpools/wasnorm_wordpool_576.txt	LTP115	ltpFR2	7	15	ORANGE	980	n/a	n/a	0	0	0
3273637	WORD	wordpools/wasnorm_wordpool_576.txt	LTP115	ltpFR2	7	15	HOSTESS	723	n/a	n/a	0	0	0
3276116	WORD	wordpools/wasnorm_wordpool_576.txt	LTP115	ltpFR2	7	15	GAZELLE	628	n/a	n/a	0	0	0
3278729	WORD	wordpools/wasnorm_wordpool_576.txt	LTP115	ltpFR2	7	15	COMET	353	n/a	n/a	0	0	0
3281393	WORD	wordpools/wasnorm_wordpool_576.txt	LTP115	ltpFR2	7	15	CIGAR	308	n/a	n/a	0	0	0
3283006	START	n/a	LTP115	ltpFR2	7	n/a	n/a	n/a	22	n/a	n/a	n/a	n/a
3283949	DISTRACTOR	n/a	LTP115	ltpFR2	7	15	n/a	n/a	n/a	n/a	0	0	0
3283955	PROB	n/a	LTP115	ltpFR2	7	n/a	n/a	n/a	22	10	3	6	1
3285221	PROB	n/a	LTP115	ltpFR2	7	n/a	n/a	n/a	22	18	3	9	6
3286784	PROB	n/a	LTP115	ltpFR2	7	n/a	n/a	n/a	22	22	8	7	6
3288798	PROB	n/a	LTP115	ltpFR2	7	n/a	n/a	n/a	22	18	2	8	8
3290595	PROB	n/a	LTP115	ltpFR2	7	n/a	n/a	n/a	22	11	5	3	3
3292527	PROB	n/a	LTP115	ltpFR2	7	n/a	n/a	n/a	22	18	9	2	7
3294107	PROB	n/a	LTP115	ltpFR2	7	n/a	n/a	n/a	22	12	1	6	5
3295239	PROB	n/a	LTP115	ltpFR2	7	n/a	n/a	n/a	22	8	1	6	1
3296371	PROB	n/a	LTP115	ltpFR2	7	n/a	n/a	n/a	22	15	9	4	2
3298468	PROB	n/a	LTP115	ltpFR2	7	n/a	n/a	n/a	22	22	9	8	5
3300048	PROB	n/a	LTP115	ltpFR2	7	n/a	n/a	n/a	22	2	5	4	3
3301214	PROB	n/a	LTP115	ltpFR2	7	n/a	n/a	n/a	22	11	2	2	7
3303909	PROB	n/a	LTP115	ltpFR2	7	n/a	n/a	n/a	22	13	2	9	2
3306776	STOP	n/a	LTP115	ltpFR2	7	n/a	n/a	n/a	22	n/a	n/a	n/a	n/a
3308852	REC_START	n/a	LTP115	ltpFR2	7	15	n/a	n/a	n/a	n/a	0	0	0
3310452	REC_WORD	wordpools/wasnorm_wordpool_576.txt	LTP115	ltpFR2	7	15	GAZELLE	628	n/a	n/a	0	0	0
3311167	REC_WORD	wordpools/wasnorm_wordpool_576.txt	LTP115	ltpFR2	7	15	COMET	353	n/a	n/a	0	0	0
3311713	REC_WORD	wordpools/wasnorm_wordpool_576.txt	LTP115	ltpFR2	7	15	HOSTESS	723	n/a	n/a	0	0	0
3313116	REC_WORD	wordpools/wasnorm_wordpool_576.txt	LTP115	ltpFR2	7	15	IGLOO	734	n/a	n/a	0	0	0
3314407	REC_WORD	wordpools/wasnorm_wordpool_576.txt	LTP115	ltpFR2	7	15	LOVER	846	n/a	n/a	0	0	0
3315023	REC_WORD	wordpools/wasnorm_wordpool_576.txt	LTP115	ltpFR2	7	15	BOYFRIEND	162	n/a	n/a	0	0	0
3316251	REC_WORD	wordpools/wasnorm_wordpool_576.txt	LTP115	ltpFR2	7	15	SIBLING	1301	n/a	n/a	0	0	0
3317511	REC_WORD	wordpools/wasnorm_wordpool_576.txt	LTP115	ltpFR2	7	15	TILE	1468	n/a	n/a	0	0	0
3319555	REC_WORD	wordpools/wasnorm_wordpool_576.txt	LTP115	ltpFR2	7	15	SISTER	1312	n/a	n/a	0	0	0
3321423	REC_WORD_VV	wordpools/wasnorm_wordpool_576.txt	LTP115	ltpFR2	7	15	<>	-1	n/a	n/a	0	0	0
3321723	REC_WORD	wordpools/wasnorm_wordpool_576.txt	LTP115	ltpFR2	7	15	LIPSTICK	829	n/a	n/a	0	0	0
3326939	REC_WORD	wordpools/wasnorm_wordpool_576.txt	LTP115	ltpFR2	7	15	PACKAGE	997	n/a	n/a	0	0	0
3327796	REC_WORD	wordpools/wasnorm_wordpool_576.txt	LTP115	ltpFR2	7	15	MESSAGE	888	n/a	n/a	0	0	0
3360257	REC_WORD	wordpools/wasnorm_wordpool_576.txt	LTP115	ltpFR2	7	15	CRAB	397	n/a	n/a	0	0	0
3361668	REC_WORD	wordpools/wasnorm_wordpool_576.txt	LTP115	ltpFR2	7	15	PASTA	1021	n/a	n/a	0	0	0
3363068	REC_WORD	wordpools/wasnorm_wordpool_576.txt	LTP115	ltpFR2	7	15	MARKER	870	n/a	n/a	0	0	0
3366030	REC_WORD	wordpools/wasnorm_wordpool_576.txt	LTP115	ltpFR2	7	15	AUTHOR	61	n/a	n/a	0	0	0
3367650	REC_WORD	wordpools/wasnorm_wordpool_576.txt	LTP115	ltpFR2	7	15	PIGMENT	1066	n/a	n/a	0	0	0
3369978	REC_WORD	wordpools/wasnorm_wordpool_576.txt	LTP115	ltpFR2	7	15	SCALLOP	1242	n/a	n/a	0	0	0
3379376	REC_WORD	wordpools/wasnorm_wordpool_576.txt	LTP115	ltpFR2	7	15	SUNRISE	1407	n/a	n/a	0	0	0
3380090	REC_WORD	wordpools/wasnorm_wordpool_576.txt	LTP115	ltpFR2	7	15	ORANGE	980	n/a	n/a	0	0	0
3399552	WORD	wordpools/wasnorm_wordpool_576.txt	LTP115	ltpFR2	7	16	PRIMATE	1123	n/a	n/a	0	0	0
3402199	WORD	wordpools/wasnorm_wordpool_576.txt	LTP115	ltpFR2	7	16	LONDON	843	n/a	n/a	0	0	0
3404993	WORD	wordpools/wasnorm_wordpool_576.txt	LTP115	ltpFR2	7	16	SLIME	1327	n/a	n/a	0	0	0
3407673	WORD	wordpools/wasnorm_wordpool_576.txt	LTP115	ltpFR2	7	16	SKIRT	1319	n/a	n/a	0	0	0
3410204	WORD	wordpools/wasnorm_wordpool_576.txt	LTP115	ltpFR2	7	16	JUNGLE	764	n/a	n/a	0	0	0
3412765	WORD	wordpools/wasnorm_wordpool_576.txt	LTP115	ltpFR2	7	16	RUG	1215	n/a	n/a	0	0	0
3415346	WORD	wordpools/wasnorm_wordpool_576.txt	LTP115	ltpFR2	7	16	SILK	1307	n/a	n/a	0	0	0
3417791	WORD	wordpools/wasnorm_wordpool_576.txt	LTP115	ltpFR2	7	16	LEOPARD	812	n/a	n/a	0	0	0
3420222	WORD	wordpools/wasnorm_wordpool_576.txt	LTP115	ltpFR2	7	16	PANTHER	1009	n/a	n/a	0	0	0
3422651	WORD	wordpools/wasnorm_wordpool_576.txt	LTP115	ltpFR2	7	16	CAPTIVE	240	n/a	n/a	0	0	0
3425215	WORD	wordpools/wasnorm_wordpool_576.txt	LTP115	ltpFR2	7	16	PRINCE	1124	n/a	n/a	0	0	0
3428026	WORD	wordpools/wasnorm_wordpool_576.txt	LTP115	ltpFR2	7	16	DAISY	435	n/a	n/a	0	0	0
3430706	WORD	wordpools/wasnorm_wordpool_576.txt	LTP115	ltpFR2	7	16	ICEBERG	731	n/a	n/a	0	0	0
3433253	WORD	wordpools/wasnorm_wordpool_576.txt	LTP115	ltpFR2	7	16	BUG	187	n/a	n/a	0	0	0
3436048	WORD	wordpools/wasnorm_wordpool_576.txt	LTP115	ltpFR2	7	16	BINDER	127	n/a	n/a	0	0	0
3438562	WORD	wordpools/wasnorm_wordpool_576.txt	LTP115	ltpFR2	7	16	REPORT	1184	n/a	n/a	0	0	0
3441074	WORD	wordpools/wasnorm_wordpool_576.txt	LTP115	ltpFR2	7	16	PEACH	1031	n/a	n/a	0	0	0
3443786	WORD	wordpools/wasnorm_wordpool_576.txt	LTP115	ltpFR2	7	16	COMPASS	358	n/a	n/a	0	0	0
3446567	WORD	wordpools/wasnorm_wordpool_576.txt	LTP115	ltpFR2	7	16	BUCKET	184	n/a	n/a	0	0	0
3449062	WORD	wordpools/wasnorm_wordpool_576.txt	LTP115	ltpFR2	7	16	SUSPECT	1415	n/a	n/a	0	0	0
3451625	WORD	wordpools/wasnorm_wordpool_576.txt	LTP115	ltpFR2	7	16	PISTOL	1075	n/a	n/a	0	0	0
3454138	WORD	wordpools/wasnorm_wordpool_576.txt	LTP115	ltpFR2	7	16	SKILLET	1317	n/a	n/a	0	0	0
3456634	WORD	wordpools/wasnorm_wordpool_576.txt	LTP115	ltpFR2	7	16	BRANCH	168	n/a	n/a	0	0	0
3459281	WORD	wordpools/wasnorm_wordpool_576.txt	LTP115	ltpFR2	7	16	PILOT	1070	n/a	n/a	0	0	0
3460895	START	n/a	LTP115	ltpFR2	7	n/a	n/a	n/a	23	n/a	n/a	n/a	n/a
3461811	DISTRACTOR	n/a	LTP115	ltpFR2	7	16	n/a	n/a	n/a	n/a	0	0	0
3461827	PROB	n/a	LTP115	ltpFR2	7	n/a	n/a	n/a	23	20	9	8	3
3464855	PROB	n/a	LTP115	ltpFR2	7	n/a	n/a	n/a	23	17	7	3	7
3466504	PROB	n/a	LTP115	ltpFR2	7	n/a	n/a	n/a	23	14	3	7	4
3468084	PROB	n/a	LTP115	ltpFR2	7	n/a	n/a	n/a	23	185	5	9	4
3469333	PROB	n/a	LTP115	ltpFR2	7	n/a	n/a	n/a	23	14	3	5	6
3471928	PROB	n/a	LTP115	ltpFR2	7	n/a	n/a	n/a	23	20	3	9	8
3474591	PROB	n/a	LTP115	ltpFR2	7	n/a	n/a	n/a	23	12	5	2	5
3475873	PROB	n/a	LTP115	ltpFR2	7	n/a	n/a	n/a	23	14	3	5	6
3478204	PROB	n/a	LTP115	ltpFR2	7	n/a	n/a	n/a	23	20	3	8	9
3480350	PROB	n/a	LTP115	ltpFR2	7	n/a	n/a	n/a	23	1	3	9	6
3484894	STOP	n/a	LTP115	ltpFR2	7	n/a	n/a	n/a	23	n/a	n/a	n/a	n/a
3486740	REC_START	n/a	LTP115	ltpFR2	7	16	n/a	n/a	n/a	n/a	0	0	0
3489781	REC_WORD	wordpools/wasnorm_wordpool_576.txt	LTP115	ltpFR2	7	16	SKILLET	1317	n/a	n/a	0	0	0
3490807	REC_WORD	wordpools/wasnorm_wordpool_576.txt	LTP115	ltpFR2	7	16	BUG	187	n/a	n/a	0	0	0
3492381	REC_WORD	wordpools/wasnorm_wordpool_576.txt	LTP115	ltpFR2	7	16	PRIMATE	1123	n/a	n/a	0	0	0
3494706	REC_WORD	wordpools/wasnorm_wordpool_576.txt	LTP115	ltpFR2	7	16	LONDON	843	n/a	n/a	0	0	0
3497417	REC_WORD	wordpools/wasnorm_wordpool_576.txt	LTP115	ltpFR2	7	16	SILK	1307	n/a	n/a	0	0	0
3498210	REC_WORD	wordpools/wasnorm_wordpool_576.txt	LTP115	ltpFR2	7	16	PRINCE	1124	n/a	n/a	0	0	0
3500031	REC_WORD	wordpools/wasnorm_wordpool_576.txt	LTP115	ltpFR2	7	16	PISTOL	1075	n/a	n/a	0	0	0
3501938	REC_WORD	wordpools/wasnorm_wordpool_576.txt	LTP115	ltpFR2	7	16	JUNGLE	764	n/a	n/a	0	0	0
3502835	REC_WORD	wordpools/wasnorm_wordpool_576.txt	LTP115	ltpFR2	7	16	CAPTIVE	240	n/a	n/a	0	0	0
3504198	REC_WORD	wordpools/wasnorm_wordpool_576.txt	LTP115	ltpFR2	7	16	LEOPARD	812	n/a	n/a	0	0	0
3504851	REC_WORD	wordpools/wasnorm_wordpool_576.txt	LTP115	ltpFR2	7	16	PANTHER	1009	n/a	n/a	0	0	0
3515480	REC_WORD	wordpools/wasnorm_wordpool_576.txt	LTP115	ltpFR2	7	16	SKIRT	1319	n/a	n/a	0	0	0
3516920	REC_WORD	wordpools/wasnorm_wordpool_576.txt	LTP115	ltpFR2	7	16	RUG	1215	n/a	n/a	0	0	0
3545372	REC_WORD	wordpools/wasnorm_wordpool_576.txt	LTP115	ltpFR2	7	16	SLIME	1327	n/a	n/a	0	0	0
3546372	REC_WORD_VV	wordpools/wasnorm_wordpool_576.txt	LTP115	ltpFR2	7	16	<>	-1	n/a	n/a	0	0	0
3563345	REST_REWET	n/a	LTP115	ltpFR2	7	16	n/a	n/a	n/a	n/a	0	0	0
4004712	WORD	wordpools/wasnorm_wordpool_576.txt	LTP115	ltpFR2	7	17	RABBIT	1152	n/a	n/a	0	0	0
4007542	WORD	wordpools/wasnorm_wordpool_576.txt	LTP115	ltpFR2	7	17	HERO	706	n/a	n/a	0	0	0
4010255	WORD	wordpools/wasnorm_wordpool_576.txt	LTP115	ltpFR2	7	17	GRAPE	654	n/a	n/a	0	0	0
4012783	WORD	wordpools/wasnorm_wordpool_576.txt	LTP115	ltpFR2	7	17	BARREL	91	n/a	n/a	0	0	0
4015513	WORD	wordpools/wasnorm_wordpool_576.txt	LTP115	ltpFR2	7	17	GRILL	661	n/a	n/a	0	0	0
4018025	WORD	wordpools/wasnorm_wordpool_576.txt	LTP115	ltpFR2	7	17	WASHER	1592	n/a	n/a	0	0	0
4020573	WORD	wordpools/wasnorm_wordpool_576.txt	LTP115	ltpFR2	7	17	DRESSER	496	n/a	n/a	0	0	0
4023269	WORD	wordpools/wasnorm_wordpool_576.txt	LTP115	ltpFR2	7	17	CARROT	249	n/a	n/a	0	0	0
4025698	WORD	wordpools/wasnorm_wordpool_576.txt	LTP115	ltpFR2	7	17	LIGHTNING	820	n/a	n/a	0	0	0
4028211	WORD	wordpools/wasnorm_wordpool_576.txt	LTP115	ltpFR2	7	17	FIREMAN	569	n/a	n/a	0	0	0
4030657	WORD	wordpools/wasnorm_wordpool_576.txt	LTP115	ltpFR2	7	17	COFFEE	341	n/a	n/a	0	0	0
4033087	WORD	wordpools/wasnorm_wordpool_576.txt	LTP115	ltpFR2	7	17	FLUTE	585	n/a	n/a	0	0	0
4035766	WORD	wordpools/wasnorm_wordpool_576.txt	LTP115	ltpFR2	7	17	SCISSORS	1250	n/a	n/a	0	0	0
4038363	WORD	wordpools/wasnorm_wordpool_576.txt	LTP115	ltpFR2	7	17	CRIB	407	n/a	n/a	0	0	0
4041175	WORD	wordpools/wasnorm_wordpool_576.txt	LTP115	ltpFR2	7	17	SCALPEL	1243	n/a	n/a	0	0	0
4043854	WORD	wordpools/wasnorm_wordpool_576.txt	LTP115	ltpFR2	7	17	DENTIST	447	n/a	n/a	0	0	0
4046451	WORD	wordpools/wasnorm_wordpool_576.txt	LTP115	ltpFR2	7	17	FINGER	567	n/a	n/a	0	0	0
4049146	WORD	wordpools/wasnorm_wordpool_576.txt	LTP115	ltpFR2	7	17	BLUEPRINT	142	n/a	n/a	0	0	0
4051942	WORD	wordpools/wasnorm_wordpool_576.txt	LTP115	ltpFR2	7	17	STAPLE	1371	n/a	n/a	0	0	0
4054473	WORD	wordpools/wasnorm_wordpool_576.txt	LTP115	ltpFR2	7	17	PAPER	1011	n/a	n/a	0	0	0
4057285	WORD	wordpools/wasnorm_wordpool_576.txt	LTP115	ltpFR2	7	17	ROBOT	1200	n/a	n/a	0	0	0
4060014	WORD	wordpools/wasnorm_wordpool_576.txt	LTP115	ltpFR2	7	17	HANDBAG	684	n/a	n/a	0	0	0
4062544	WORD	wordpools/wasnorm_wordpool_576.txt	LTP115	ltpFR2	7	17	MEAT	883	n/a	n/a	0	0	0
4065106	WORD	wordpools/wasnorm_wordpool_576.txt	LTP115	ltpFR2	7	17	CANAL	226	n/a	n/a	0	0	0
4066721	START	n/a	LTP115	ltpFR2	7	n/a	n/a	n/a	24	n/a	n/a	n/a	n/a
4067755	DISTRACTOR	n/a	LTP115	ltpFR2	7	17	n/a	n/a	n/a	n/a	0	0	0
4067769	PROB	n/a	LTP115	ltpFR2	7	n/a	n/a	n/a	24	20	9	3	8
4070449	PROB	n/a	LTP115	ltpFR2	7	n/a	n/a	n/a	24	15	4	8	3
4072163	PROB	n/a	LTP115	ltpFR2	7	n/a	n/a	n/a	24	14	7	3	4
4073561	PROB	n/a	LTP115	ltpFR2	7	n/a	n/a	n/a	24	20	8	5	7
4076706	PROB	n/a	LTP115	ltpFR2	7	n/a	n/a	n/a	24	21	9	4	8
4079136	PROB	n/a	LTP115	ltpFR2	7	n/a	n/a	n/a	24	22	5	8	9
4080833	PROB	n/a	LTP115	ltpFR2	7	n/a	n/a	n/a	24	17	7	2	8
4082963	PROB	n/a	LTP115	ltpFR2	7	n/a	n/a	n/a	24	15	6	3	6
4084744	PROB	n/a	LTP115	ltpFR2	7	n/a	n/a	n/a	24	12	4	2	6
4086293	PROB	n/a	LTP115	ltpFR2	7	n/a	n/a	n/a	24	14	5	9	3
4090720	STOP	n/a	LTP115	ltpFR2	7	n/a	n/a	n/a	24	n/a	n/a	n/a	n/a
4092666	REC_START	n/a	LTP115	ltpFR2	7	17	n/a	n/a	n/a	n/a	0	0	0
4093658	REC_WORD	wordpools/wasnorm_wordpool_576.txt	LTP115	ltpFR2	7	17	SCALPEL	1243	n/a	n/a	0	0	0
4094615	REC_WORD	wordpools/wasnorm_wordpool_576.txt	LTP115	ltpFR2	7	17	SCISSORS	1250	n/a	n/a	0	0	0
4095615	REC_WORD_VV	wordpools/wasnorm_wordpool_576.txt	LTP115	ltpFR2	7	17	<>	-1	n/a	n/a	0	0	0
4096328	REC_WORD	wordpools/wasnorm_wordpool_576.txt	LTP115	ltpFR2	7	17	RABBIT	1152	n/a	n/a	0	0	0
4097002	REC_WORD	wordpools/wasnorm_wordpool_576.txt	LTP115	ltpFR2	7	17	MEAT	883	n/a	n/a	0	0	0
4098050	REC_WORD	wordpools/wasnorm_wordpool_576.txt	LTP115	ltpFR2	7	17	GRILL	661	n/a	n/a	0	0	0
4098949	REC_WORD	wordpools/wasnorm_wordpool_576.txt	LTP115	ltpFR2	7	17	CARROT	249	n/a	n/a	0	0	0
4099909	REC_WORD	wordpools/wasnorm_wordpool_576.txt	LTP115	ltpFR2	7	17	HERO	706	n/a	n/a	0	0	0
4101575	REC_WORD	wordpools/wasnorm_wordpool_576.txt	LTP115	ltpFR2	7	17	WASHER	1592	n/a	n/a	0	0	0
4102451	REC_WORD	wordpools/wasnorm_wordpool_576.txt	LTP115	ltpFR2	7	17	DRESSER	496	n/a	n/a	0	0	0
4107377	REC_WORD	wordpools/wasnorm_wordpool_576.txt	LTP115	ltpFR2	7	17	CRIB	407	n/a	n/a	0	0	0
4109535	REC_WORD	wordpools/wasnorm_wordpool_576.txt	LTP115	ltpFR2	7	17	ROBOT	1200	n/a	n/a	0	0	0
4113712	REC_WORD	wordpools/wasnorm_wordpool_576.txt	LTP115	ltpFR2	7	17	GRAPE	654	n/a	n/a	0	0	0
4114538	REC_WORD	wordpools/wasnorm_wordpool_576.txt	LTP115	ltpFR2	7	17	BARREL	91	n/a	n/a	0	0	0
4115208	REC_WORD	wordpools/wasnorm_wordpool_576.txt	LTP115	ltpFR2	7	17	FLUTE	585	n/a	n/a	0	0	0
4124519	REC_WORD	wordpools/wasnorm_wordpool_576.txt	LTP115	ltpFR2	7	17	STAPLE	1371	n/a	n/a	0	0	0
4125537	REC_WORD	wordpools/wasnorm_wordpool_576.txt	LTP115	ltpFR2	7	17	PAPER	1011	n/a	n/a	0	0	0
4128654	REC_WORD	wordpools/wasnorm_wordpool_576.txt	LTP115	ltpFR2	7	17	CRIB	407	n/a	n/a	0	0	0
4129326	REC_WORD	wordpools/wasnorm_wordpool_576.txt	LTP115	ltpFR2	7	17	HANDBAG	684	n/a	n/a	0	0	0
4130326	REC_WORD_VV	wordpools/wasnorm_wordpool_576.txt	LTP115	ltpFR2	7	17	<>	-1	n/a	n/a	0	0	0
4143727	REC_WORD	wordpools/wasnorm_wordpool_576.txt	LTP115	ltpFR2	7	17	FIREMAN	569	n/a	n/a	0	0	0
4144942	REC_WORD	wordpools/wasnorm_wordpool_576.txt	LTP115	ltpFR2	7	17	LIGHTNING	820	n/a	n/a	0	0	0
4183350	DISTRACTOR	n/a	LTP115	ltpFR2	7	18	n/a	n/a	n/a	n/a	0	0	0
4183350	START	n/a	LTP115	ltpFR2	7	n/a	n/a	n/a	25	n/a	n/a	n/a	n/a
4183383	PROB	n/a	LTP115	ltpFR2	7	n/a	n/a	n/a	25	16	3	5	8
4185197	PROB	n/a	LTP115	ltpFR2	7	n/a	n/a	n/a	25	10	7	2	1
4186329	PROB	n/a	LTP115	ltpFR2	7	n/a	n/a	n/a	25	10	3	4	3
4188276	PROB	n/a	LTP115	ltpFR2	7	n/a	n/a	n/a	25	20	7	5	8
4189640	PROB	n/a	LTP115	ltpFR2	7	n/a	n/a	n/a	25	16	1	8	7
4191787	PROB	n/a	LTP115	ltpFR2	7	n/a	n/a	n/a	25	17	1	7	9
4193202	PROB	n/a	LTP115	ltpFR2	7	n/a	n/a	n/a	25	12	6	4	2
4194982	PROB	n/a	LTP115	ltpFR2	7	n/a	n/a	n/a	25	14	4	4	6
4197096	PROB	n/a	LTP115	ltpFR2	7	n/a	n/a	n/a	25	7	1	2	4
4198378	PROB	n/a	LTP115	ltpFR2	7	n/a	n/a	n/a	25	17	2	9	6
4200124	PROB	n/a	LTP115	ltpFR2	7	n/a	n/a	n/a	25	15	5	8	2
4201424	PROB	n/a	LTP115	ltpFR2	7	n/a	n/a	n/a	25	9	4	3	2
4202804	PROB	n/a	LTP115	ltpFR2	7	n/a	n/a	n/a	25	10	4	2	4
4204336	PROB	n/a	LTP115	ltpFR2	7	n/a	n/a	n/a	25	16	2	8	6
4207350	STOP	n/a	LTP115	ltpFR2	7	n/a	n/a	n/a	25	n/a	n/a	n/a	n/a
4208313	WORD	wordpools/wasnorm_wordpool_576.txt	LTP115	ltpFR2	7	18	LUMBER	848	n/a	n/a	0	0	0
4210959	WORD	wordpools/wasnorm_wordpool_576.txt	LTP115	ltpFR2	7	18	SPOUSE	1358	n/a	n/a	0	0	0
4213506	WORD	wordpools/wasnorm_wordpool_576.txt	LTP115	ltpFR2	7	18	SHORTS	1293	n/a	n/a	0	0	0
4216051	WORD	wordpools/wasnorm_wordpool_576.txt	LTP115	ltpFR2	7	18	WRENCH	1625	n/a	n/a	0	0	0
4218515	WORD	wordpools/wasnorm_wordpool_576.txt	LTP115	ltpFR2	7	18	PLIERS	1089	n/a	n/a	0	0	0
4221244	WORD	wordpools/wasnorm_wordpool_576.txt	LTP115	ltpFR2	7	18	ATOM	55	n/a	n/a	0	0	0
4223756	WORD	wordpools/wasnorm_wordpool_576.txt	LTP115	ltpFR2	7	18	ATLAS	53	n/a	n/a	0	0	0
4226237	WORD	wordpools/wasnorm_wordpool_576.txt	LTP115	ltpFR2	7	18	OYSTER	995	n/a	n/a	0	0	0
4228915	WORD	wordpools/wasnorm_wordpool_576.txt	LTP115	ltpFR2	7	18	ANTLER	29	n/a	n/a	0	0	0
4231429	WORD	wordpools/wasnorm_wordpool_576.txt	LTP115	ltpFR2	7	18	WORLD	1622	n/a	n/a	0	0	0
4233975	WORD	wordpools/wasnorm_wordpool_576.txt	LTP115	ltpFR2	7	18	LAVA	804	n/a	n/a	0	0	0
4236489	WORD	wordpools/wasnorm_wordpool_576.txt	LTP115	ltpFR2	7	18	STONE	1385	n/a	n/a	0	0	0
4239285	WORD	wordpools/wasnorm_wordpool_576.txt	LTP115	ltpFR2	7	18	DOUGHNUT	490	n/a	n/a	0	0	0
4241796	WORD	wordpools/wasnorm_wordpool_576.txt	LTP115	ltpFR2	7	18	COSTUME	383	n/a	n/a	0	0	0
4244560	WORD	wordpools/wasnorm_wordpool_576.txt	LTP115	ltpFR2	7	18	DORM	488	n/a	n/a	0	0	0
4247039	WORD	wordpools/wasnorm_wordpool_576.txt	LTP115	ltpFR2	7	18	MOTEL	919	n/a	n/a	0	0	0
4249668	WORD	wordpools/wasnorm_wordpool_576.txt	LTP115	ltpFR2	7	18	LADDER	793	n/a	n/a	0	0	0
4252299	WORD	wordpools/wasnorm_wordpool_576.txt	LTP115	ltpFR2	7	18	FOREST	593	n/a	n/a	0	0	0
4254894	WORD	wordpools/wasnorm_wordpool_576.txt	LTP115	ltpFR2	7	18	DRILL	497	n/a	n/a	0	0	0
4257491	WORD	wordpools/wasnorm_wordpool_576.txt	LTP115	ltpFR2	7	18	MONSTER	912	n/a	n/a	0	0	0
4260070	WORD	wordpools/wasnorm_wordpool_576.txt	LTP115	ltpFR2	7	18	XEROX	1628	n/a	n/a	0	0	0
4262749	WORD	wordpools/wasnorm_wordpool_576.txt	LTP115	ltpFR2	7	18	PISTON	1076	n/a	n/a	0	0	0
4265296	WORD	wordpools/wasnorm_wordpool_576.txt	LTP115	ltpFR2	7	18	CORAL	378	n/a	n/a	0	0	0
4268108	WORD	wordpools/wasnorm_wordpool_576.txt	LTP115	ltpFR2	7	18	TWISTER	1530	n/a	n/a	0	0	0
4269722	START	n/a	LTP115	ltpFR2	7	n/a	n/a	n/a	26	n/a	n/a	n/a	n/a
4270605	DISTRACTOR	n/a	LTP115	ltpFR2	7	18	n/a	n/a	n/a	n/a	0	0	0
4270621	PROB	n/a	LTP115	ltpFR2	7	n/a	n/a	n/a	26	19	7	7	5
4273084	PROB	n/a	LTP115	ltpFR2	7	n/a	n/a	n/a	26	22	8	9	4
4274981	PROB	n/a	LTP115	ltpFR2	7	n/a	n/a	n/a	26	11	6	2	3
4277329	PROB	n/a	LTP115	ltpFR2	7	n/a	n/a	n/a	26	11	6	3	2
4278775	PROB	n/a	LTP115	ltpFR2	7	n/a	n/a	n/a	26	11	5	4	2
4280157	PROB	n/a	LTP115	ltpFR2	7	n/a	n/a	n/a	26	13	5	7	1
4282736	PROB	n/a	LTP115	ltpFR2	7	n/a	n/a	n/a	26	9	4	4	1
4283951	PROB	n/a	LTP115	ltpFR2	7	n/a	n/a	n/a	26	16	6	4	6
4285099	PROB	n/a	LTP115	ltpFR2	7	n/a	n/a	n/a	26	21	8	9	4
4286680	PROB	n/a	LTP115	ltpFR2	7	n/a	n/a	n/a	26	22	9	6	7
4288229	PROB	n/a	LTP115	ltpFR2	7	n/a	n/a	n/a	26	6	1	3	2
4289461	PROB	n/a	LTP115	ltpFR2	7	n/a	n/a	n/a	26	12	1	8	3
4291291	PROB	n/a	LTP115	ltpFR2	7	n/a	n/a	n/a	26	12	6	1	5
4292575	STOP	n/a	LTP115	ltpFR2	7	n/a	n/a	n/a	26	n/a	n/a	n/a	n/a
4295536	REC_START	n/a	LTP115	ltpFR2	7	18	n/a	n/a	n/a	n/a	0	0	0
4296325	REC_WORD	wordpools/wasnorm_wordpool_576.txt	LTP115	ltpFR2	7	18	PISTON	1076	n/a	n/a	0	0	0
4296983	REC_WORD	wordpools/wasnorm_wordpool_576.txt	LTP115	ltpFR2	7	18	MONSTER	912	n/a	n/a	0	0	0
4298752	REC_WORD	wordpools/wasnorm_wordpool_576.txt	LTP115	ltpFR2	7	18	DORM	488	n/a	n/a	0	0	0
4299279	REC_WORD	wordpools/wasnorm_wordpool_576.txt	LTP115	ltpFR2	7	18	MOTEL	919	n/a	n/a	0	0	0
4302498	REC_WORD	wordpools/wasnorm_wordpool_576.txt	LTP115	ltpFR2	7	18	XEROX	1628	n/a	n/a	0	0	0
4303498	REC_WORD_VV	wordpools/wasnorm_wordpool_576.txt	LTP115	ltpFR2	7	18	<>	-1	n/a	n/a	0	0	0
4307857	REC_WORD	wordpools/wasnorm_wordpool_576.txt	LTP115	ltpFR2	7	18	WIFE	1609	n/a	n/a	0	0	0
4309591	REC_WORD	wordpools/wasnorm_wordpool_576.txt	LTP115	ltpFR2	7	18	COSTUME	383	n/a	n/a	0	0	0
4311757	REC_WORD	wordpools/wasnorm_wordpool_576.txt	LTP115	ltpFR2	7	18	LUMBER	848	n/a	n/a	0	0	0
4312818	REC_WORD	wordpools/wasnorm_wordpool_576.txt	LTP115	ltpFR2	7	18	SHORTS	1293	n/a	n/a	0	0	0
4313851	REC_WORD	wordpools/wasnorm_wordpool_576.txt	LTP115	ltpFR2	7	18	TWISTER	1530	n/a	n/a	0	0	0
4315795	REC_WORD	wordpools/wasnorm_wordpool_576.txt	LTP115	ltpFR2	7	18	WRENCH	1625	n/a	n/a	0	0	0
4316612	REC_WORD	wordpools/wasnorm_wordpool_576.txt	LTP115	ltpFR2	7	18	PLIERS	1089	n/a	n/a	0	0	0
4317612	REC_WORD_VV	wordpools/wasnorm_wordpool_576.txt	LTP115	ltpFR2	7	18	<>	-1	n/a	n/a	0	0	0
4321871	REC_WORD	wordpools/wasnorm_wordpool_576.txt	LTP115	ltpFR2	7	18	WRENCH	1625	n/a	n/a	0	0	0
4322658	REC_WORD	wordpools/wasnorm_wordpool_576.txt	LTP115	ltpFR2	7	18	PLIERS	1089	n/a	n/a	0	0	0
4323658	REC_WORD_VV	wordpools/wasnorm_wordpool_576.txt	LTP115	ltpFR2	7	18	<>	-1	n/a	n/a	0	0	0
4325002	REC_WORD	wordpools/wasnorm_wordpool_576.txt	LTP115	ltpFR2	7	18	SCREWDRIVER	1255	n/a	n/a	0	0	0
4326002	REC_WORD_VV	wordpools/wasnorm_wordpool_576.txt	LTP115	ltpFR2	7	18	<>	-1	n/a	n/a	0	0	0
4332411	REC_WORD	wordpools/wasnorm_wordpool_576.txt	LTP115	ltpFR2	7	18	ANTLER	29	n/a	n/a	0	0	0
4333697	REC_WORD	wordpools/wasnorm_wordpool_576.txt	LTP115	ltpFR2	7	18	ATOM	55	n/a	n/a	0	0	0
4335740	REC_WORD	wordpools/wasnorm_wordpool_576.txt	LTP115	ltpFR2	7	18	ATLAS	53	n/a	n/a	0	0	0
4338828	REC_WORD	wordpools/wasnorm_wordpool_576.txt	LTP115	ltpFR2	7	18	WORLD	1622	n/a	n/a	0	0	0
4340252	REC_WORD	wordpools/wasnorm_wordpool_576.txt	LTP115	ltpFR2	7	18	LAVA	804	n/a	n/a	0	0	0
4340897	REC_WORD	wordpools/wasnorm_wordpool_576.txt	LTP115	ltpFR2	7	18	PEBBLE	1035	n/a	n/a	0	0	0
4341441	REC_WORD	wordpools/wasnorm_wordpool_576.txt	LTP115	ltpFR2	7	18	FOREST	593	n/a	n/a	0	0	0
4342312	REC_WORD	wordpools/wasnorm_wordpool_576.txt	LTP115	ltpFR2	7	18	LADDER	793	n/a	n/a	0	0	0
4355568	REC_WORD	wordpools/wasnorm_wordpool_576.txt	LTP115	ltpFR2	7	18	CORAL	378	n/a	n/a	0	0	0
4386219	WORD	wordpools/wasnorm_wordpool_576.txt	LTP115	ltpFR2	7	19	APPLE	33	n/a	n/a	0	0	0
4388714	WORD	wordpools/wasnorm_wordpool_576.txt	LTP115	ltpFR2	7	19	LAMP	798	n/a	n/a	0	0	0
4391394	WORD	wordpools/wasnorm_wordpool_576.txt	LTP115	ltpFR2	7	19	LASER	801	n/a	n/a	0	0	0
4394073	WORD	wordpools/wasnorm_wordpool_576.txt	LTP115	ltpFR2	7	19	BODY	145	n/a	n/a	0	0	0
4396802	WORD	wordpools/wasnorm_wordpool_576.txt	LTP115	ltpFR2	7	19	GYMNAST	675	n/a	n/a	0	0	0
4399233	WORD	wordpools/wasnorm_wordpool_576.txt	LTP115	ltpFR2	7	19	MARROW	872	n/a	n/a	0	0	0
4402044	WORD	wordpools/wasnorm_wordpool_576.txt	LTP115	ltpFR2	7	19	TROMBONE	1508	n/a	n/a	0	0	0
4404824	WORD	wordpools/wasnorm_wordpool_576.txt	LTP115	ltpFR2	7	19	LUNCH	849	n/a	n/a	0	0	0
