onset	duration	trial_type	sample	stim_file	subject	experiment	session	trial	task	item_name	item_num	recog_resp	recog_conf	resp	answer	test_x	test_y	test_z	color_r	color_g	color_b	case	font
231.0	n/a	SESS_START	115500	n/a	LTP212	ltpFR	11	n/a	n/a	n/a	n/a	0	n/a	n/a	n/a	0	0	0	n/a	n/a	n/a	n/a	n/a
263.328	n/a	START	131664	n/a	LTP212	ltpFR	11	n/a	n/a	n/a	n/a	n/a	n/a	n/a	n/a	n/a	n/a	n/a	n/a	n/a	n/a	n/a	n/a
263.362	n/a	PROB	131681	n/a	LTP212	ltpFR	11	n/a	n/a	n/a	n/a	n/a	n/a	n/a	27	9	9	9	n/a	n/a	n/a	n/a	n/a
265.856	n/a	PROB	132928	n/a	LTP212	ltpFR	11	n/a	n/a	n/a	n/a	n/a	n/a	n/a	23	9	8	6	n/a	n/a	n/a	n/a	n/a
269.32	n/a	PROB	134660	n/a	LTP212	ltpFR	11	n/a	n/a	n/a	n/a	n/a	n/a	n/a	23	9	8	6	n/a	n/a	n/a	n/a	n/a
272.448	n/a	PROB	136224	n/a	LTP212	ltpFR	11	n/a	n/a	n/a	n/a	n/a	n/a	n/a	12	1	2	9	n/a	n/a	n/a	n/a	n/a
273.994	n/a	PROB	136997	n/a	LTP212	ltpFR	11	n/a	n/a	n/a	n/a	n/a	n/a	n/a	18	7	9	2	n/a	n/a	n/a	n/a	n/a
277.258	n/a	PROB	138629	n/a	LTP212	ltpFR	11	n/a	n/a	n/a	n/a	n/a	n/a	n/a	22	6	7	9	n/a	n/a	n/a	n/a	n/a
282.91	n/a	STOP	141455	n/a	LTP212	ltpFR	11	n/a	n/a	n/a	n/a	n/a	n/a	n/a	n/a	n/a	n/a	n/a	n/a	n/a	n/a	n/a	n/a
304.7	n/a	START	152350	n/a	LTP212	ltpFR	11	n/a	n/a	n/a	n/a	n/a	n/a	n/a	n/a	n/a	n/a	n/a	n/a	n/a	n/a	n/a	n/a
306.214	n/a	PROB	153107	n/a	LTP212	ltpFR	11	n/a	n/a	n/a	n/a	n/a	n/a	n/a	13	9	2	2	n/a	n/a	n/a	n/a	n/a
309.442	n/a	PROB	154721	n/a	LTP212	ltpFR	11	n/a	n/a	n/a	n/a	n/a	n/a	n/a	19	9	4	6	n/a	n/a	n/a	n/a	n/a
311.158	n/a	STOP	155579	n/a	LTP212	ltpFR	11	n/a	n/a	n/a	n/a	n/a	n/a	n/a	n/a	n/a	n/a	n/a	n/a	n/a	n/a	n/a	n/a
313.802	n/a	WORD	156901	wordpools/wasnorm_wordpool_less_exclusions.txt	LTP212	ltpFR	11	1	0	PITCHFORK	1078	n/a	n/a	1	n/a	0	0	0	0.57763671875	0.412841796875	1	upper	zerothre.ttf
316.814	n/a	START	158407	n/a	LTP212	ltpFR	11	n/a	n/a	n/a	n/a	n/a	n/a	n/a	n/a	n/a	n/a	n/a	n/a	n/a	n/a	n/a	n/a
317.912	n/a	PROB	158956	n/a	LTP212	ltpFR	11	n/a	n/a	n/a	n/a	n/a	n/a	n/a	17	7	4	6	n/a	n/a	n/a	n/a	n/a
320.06	n/a	PROB	160030	n/a	LTP212	ltpFR	11	n/a	n/a	n/a	n/a	n/a	n/a	n/a	16	4	6	6	n/a	n/a	n/a	n/a	n/a
321.656	n/a	PROB	160828	n/a	LTP212	ltpFR	11	n/a	n/a	n/a	n/a	n/a	n/a	n/a	17	6	5	6	n/a	n/a	n/a	n/a	n/a
323.406	n/a	STOP	161703	n/a	LTP212	ltpFR	11	n/a	n/a	n/a	n/a	n/a	n/a	n/a	n/a	n/a	n/a	n/a	n/a	n/a	n/a	n/a	n/a
325.9	n/a	WORD	162950	wordpools/wasnorm_wordpool_less_exclusions.txt	LTP212	ltpFR	11	1	0	SILVERWARE	1308	n/a	n/a	0	n/a	0	0	0	0.57763671875	0.412841796875	1	upper	zerothre.ttf
328.914	n/a	START	164457	n/a	LTP212	ltpFR	11	n/a	n/a	n/a	n/a	n/a	n/a	n/a	n/a	n/a	n/a	n/a	n/a	n/a	n/a	n/a	n/a
330.11	n/a	PROB	165055	n/a	LTP212	ltpFR	11	n/a	n/a	n/a	n/a	n/a	n/a	n/a	19	9	8	2	n/a	n/a	n/a	n/a	n/a
331.56	n/a	PROB	165780	n/a	LTP212	ltpFR	11	n/a	n/a	n/a	n/a	n/a	n/a	n/a	19	9	2	8	n/a	n/a	n/a	n/a	n/a
333.058	n/a	PROB	166529	n/a	LTP212	ltpFR	11	n/a	n/a	n/a	n/a	n/a	n/a	n/a	17	8	2	7	n/a	n/a	n/a	n/a	n/a
334.756	n/a	PROB	167378	n/a	LTP212	ltpFR	11	n/a	n/a	n/a	n/a	n/a	n/a	n/a	18	4	6	8	n/a	n/a	n/a	n/a	n/a
336.694	n/a	STOP	168347	n/a	LTP212	ltpFR	11	n/a	n/a	n/a	n/a	n/a	n/a	n/a	n/a	n/a	n/a	n/a	n/a	n/a	n/a	n/a	n/a
337.85	n/a	WORD	168925	wordpools/wasnorm_wordpool_less_exclusions.txt	LTP212	ltpFR	11	1	0	SIBLING	1301	n/a	n/a	1	n/a	0	0	0	0.57763671875	0.412841796875	1	upper	zerothre.ttf
340.864	n/a	START	170432	n/a	LTP212	ltpFR	11	n/a	n/a	n/a	n/a	n/a	n/a	n/a	n/a	n/a	n/a	n/a	n/a	n/a	n/a	n/a	n/a
341.894	n/a	PROB	170947	n/a	LTP212	ltpFR	11	n/a	n/a	n/a	n/a	n/a	n/a	n/a	21	4	9	8	n/a	n/a	n/a	n/a	n/a
344.408	n/a	PROB	172204	n/a	LTP212	ltpFR	11	n/a	n/a	n/a	n/a	n/a	n/a	n/a	17	9	7	1	n/a	n/a	n/a	n/a	n/a
346.038	n/a	PROB	173019	n/a	LTP212	ltpFR	11	n/a	n/a	n/a	n/a	n/a	n/a	n/a	10	1	3	6	n/a	n/a	n/a	n/a	n/a
347.678	n/a	STOP	173839	n/a	LTP212	ltpFR	11	n/a	n/a	n/a	n/a	n/a	n/a	n/a	n/a	n/a	n/a	n/a	n/a	n/a	n/a	n/a	n/a
350.048	n/a	WORD	175024	wordpools/wasnorm_wordpool_less_exclusions.txt	LTP212	ltpFR	11	1	0	BATHTUB	100	n/a	n/a	1	n/a	0	0	0	0.57763671875	0.412841796875	1	upper	zerothre.ttf
353.062	n/a	START	176531	n/a	LTP212	ltpFR	11	n/a	n/a	n/a	n/a	n/a	n/a	n/a	n/a	n/a	n/a	n/a	n/a	n/a	n/a	n/a	n/a
354.01	n/a	PROB	177005	n/a	LTP212	ltpFR	11	n/a	n/a	n/a	n/a	n/a	n/a	n/a	18	3	8	7	n/a	n/a	n/a	n/a	n/a
355.54	n/a	PROB	177770	n/a	LTP212	ltpFR	11	n/a	n/a	n/a	n/a	n/a	n/a	n/a	18	9	2	7	n/a	n/a	n/a	n/a	n/a
357.372	n/a	PROB	178686	n/a	LTP212	ltpFR	11	n/a	n/a	n/a	n/a	n/a	n/a	n/a	10	7	2	1	n/a	n/a	n/a	n/a	n/a
358.77	n/a	PROB	179385	n/a	LTP212	ltpFR	11	n/a	n/a	n/a	n/a	n/a	n/a	n/a	10	1	8	1	n/a	n/a	n/a	n/a	n/a
359.894	n/a	STOP	179947	n/a	LTP212	ltpFR	11	n/a	n/a	n/a	n/a	n/a	n/a	n/a	n/a	n/a	n/a	n/a	n/a	n/a	n/a	n/a	n/a
361.882	n/a	WORD	180941	wordpools/wasnorm_wordpool_less_exclusions.txt	LTP212	ltpFR	11	1	0	PIER	1063	n/a	n/a	1	n/a	0	0	0	0.57763671875	0.412841796875	1	upper	zerothre.ttf
364.894	n/a	START	182447	n/a	LTP212	ltpFR	11	n/a	n/a	n/a	n/a	n/a	n/a	n/a	n/a	n/a	n/a	n/a	n/a	n/a	n/a	n/a	n/a
365.742	n/a	PROB	182871	n/a	LTP212	ltpFR	11	n/a	n/a	n/a	n/a	n/a	n/a	n/a	13	9	1	3	n/a	n/a	n/a	n/a	n/a
367.408	n/a	PROB	183704	n/a	LTP212	ltpFR	11	n/a	n/a	n/a	n/a	n/a	n/a	n/a	19	6	4	9	n/a	n/a	n/a	n/a	n/a
368.904	n/a	PROB	184452	n/a	LTP212	ltpFR	11	n/a	n/a	n/a	n/a	n/a	n/a	n/a	13	2	5	6	n/a	n/a	n/a	n/a	n/a
372.886	n/a	STOP	186443	n/a	LTP212	ltpFR	11	n/a	n/a	n/a	n/a	n/a	n/a	n/a	n/a	n/a	n/a	n/a	n/a	n/a	n/a	n/a	n/a
374.112	n/a	WORD	187056	wordpools/wasnorm_wordpool_less_exclusions.txt	LTP212	ltpFR	11	1	0	RECEIPT	1173	n/a	n/a	0	n/a	0	0	0	0.57763671875	0.412841796875	1	upper	zerothre.ttf
377.126	n/a	START	188563	n/a	LTP212	ltpFR	11	n/a	n/a	n/a	n/a	n/a	n/a	n/a	n/a	n/a	n/a	n/a	n/a	n/a	n/a	n/a	n/a
378.292	n/a	PROB	189146	n/a	LTP212	ltpFR	11	n/a	n/a	n/a	n/a	n/a	n/a	n/a	23	8	9	6	n/a	n/a	n/a	n/a	n/a
381.102	n/a	PROB	190551	n/a	LTP212	ltpFR	11	n/a	n/a	n/a	n/a	n/a	n/a	n/a	15	9	3	3	n/a	n/a	n/a	n/a	n/a
383.334	n/a	PROB	191667	n/a	LTP212	ltpFR	11	n/a	n/a	n/a	n/a	n/a	n/a	n/a	10	4	5	1	n/a	n/a	n/a	n/a	n/a
384.678	n/a	STOP	192339	n/a	LTP212	ltpFR	11	n/a	n/a	n/a	n/a	n/a	n/a	n/a	n/a	n/a	n/a	n/a	n/a	n/a	n/a	n/a	n/a
386.096	n/a	WORD	193048	wordpools/wasnorm_wordpool_less_exclusions.txt	LTP212	ltpFR	11	1	0	VOLCANO	1575	n/a	n/a	1	n/a	0	0	0	0.57763671875	0.412841796875	1	upper	zerothre.ttf
389.108	n/a	START	194554	n/a	LTP212	ltpFR	11	n/a	n/a	n/a	n/a	n/a	n/a	n/a	n/a	n/a	n/a	n/a	n/a	n/a	n/a	n/a	n/a
389.99	n/a	PROB	194995	n/a	LTP212	ltpFR	11	n/a	n/a	n/a	n/a	n/a	n/a	n/a	21	9	3	9	n/a	n/a	n/a	n/a	n/a
391.786	n/a	PROB	195893	n/a	LTP212	ltpFR	11	n/a	n/a	n/a	n/a	n/a	n/a	n/a	14	3	7	4	n/a	n/a	n/a	n/a	n/a
393.684	n/a	PROB	196842	n/a	LTP212	ltpFR	11	n/a	n/a	n/a	n/a	n/a	n/a	n/a	9	1	7	1	n/a	n/a	n/a	n/a	n/a
395.232	n/a	PROB	197616	n/a	LTP212	ltpFR	11	n/a	n/a	n/a	n/a	n/a	n/a	n/a	16	4	6	6	n/a	n/a	n/a	n/a	n/a
396.63	n/a	STOP	198315	n/a	LTP212	ltpFR	11	n/a	n/a	n/a	n/a	n/a	n/a	n/a	n/a	n/a	n/a	n/a	n/a	n/a	n/a	n/a	n/a
397.928	n/a	WORD	198964	wordpools/wasnorm_wordpool_less_exclusions.txt	LTP212	ltpFR	11	1	0	SHOE	1288	n/a	n/a	0	n/a	0	0	0	0.57763671875	0.412841796875	1	upper	zerothre.ttf
400.94	n/a	START	200470	n/a	LTP212	ltpFR	11	n/a	n/a	n/a	n/a	n/a	n/a	n/a	n/a	n/a	n/a	n/a	n/a	n/a	n/a	n/a	n/a
401.922	n/a	PROB	200961	n/a	LTP212	ltpFR	11	n/a	n/a	n/a	n/a	n/a	n/a	n/a	17	6	8	3	n/a	n/a	n/a	n/a	n/a
404.718	n/a	PROB	202359	n/a	LTP212	ltpFR	11	n/a	n/a	n/a	n/a	n/a	n/a	n/a	15	8	4	3	n/a	n/a	n/a	n/a	n/a
408.94	n/a	STOP	204470	n/a	LTP212	ltpFR	11	n/a	n/a	n/a	n/a	n/a	n/a	n/a	n/a	n/a	n/a	n/a	n/a	n/a	n/a	n/a	n/a
410.026	n/a	WORD	205013	wordpools/wasnorm_wordpool_less_exclusions.txt	LTP212	ltpFR	11	1	0	WATER	1594	n/a	n/a	0	n/a	0	0	0	0.57763671875	0.412841796875	1	upper	zerothre.ttf
413.04	n/a	START	206520	n/a	LTP212	ltpFR	11	n/a	n/a	n/a	n/a	n/a	n/a	n/a	n/a	n/a	n/a	n/a	n/a	n/a	n/a	n/a	n/a
413.972	n/a	PROB	206986	n/a	LTP212	ltpFR	11	n/a	n/a	n/a	n/a	n/a	n/a	n/a	9	4	2	3	n/a	n/a	n/a	n/a	n/a
416.184	n/a	PROB	208092	n/a	LTP212	ltpFR	11	n/a	n/a	n/a	n/a	n/a	n/a	n/a	22	8	9	5	n/a	n/a	n/a	n/a	n/a
421.04	n/a	STOP	210520	n/a	LTP212	ltpFR	11	n/a	n/a	n/a	n/a	n/a	n/a	n/a	n/a	n/a	n/a	n/a	n/a	n/a	n/a	n/a	n/a
421.892	n/a	WORD	210946	wordpools/wasnorm_wordpool_less_exclusions.txt	LTP212	ltpFR	11	1	0	TUNNEL	1519	n/a	n/a	1	n/a	0	0	0	0.57763671875	0.412841796875	1	upper	zerothre.ttf
424.906	n/a	START	212453	n/a	LTP212	ltpFR	11	n/a	n/a	n/a	n/a	n/a	n/a	n/a	n/a	n/a	n/a	n/a	n/a	n/a	n/a	n/a	n/a
425.986	n/a	PROB	212993	n/a	LTP212	ltpFR	11	n/a	n/a	n/a	n/a	n/a	n/a	n/a	12	4	2	6	n/a	n/a	n/a	n/a	n/a
428.15	n/a	PROB	214075	n/a	LTP212	ltpFR	11	n/a	n/a	n/a	n/a	n/a	n/a	n/a	22	7	7	8	n/a	n/a	n/a	n/a	n/a
430.196	n/a	PROB	215098	n/a	LTP212	ltpFR	11	n/a	n/a	n/a	n/a	n/a	n/a	n/a	21	9	3	9	n/a	n/a	n/a	n/a	n/a
432.104	n/a	STOP	216052	n/a	LTP212	ltpFR	11	n/a	n/a	n/a	n/a	n/a	n/a	n/a	n/a	n/a	n/a	n/a	n/a	n/a	n/a	n/a	n/a
433.792	n/a	WORD	216896	wordpools/wasnorm_wordpool_less_exclusions.txt	LTP212	ltpFR	11	1	0	TAR	1435	n/a	n/a	0	n/a	0	0	0	0.57763671875	0.412841796875	1	upper	zerothre.ttf
436.804	n/a	START	218402	n/a	LTP212	ltpFR	11	n/a	n/a	n/a	n/a	n/a	n/a	n/a	n/a	n/a	n/a	n/a	n/a	n/a	n/a	n/a	n/a
437.786	n/a	PROB	218893	n/a	LTP212	ltpFR	11	n/a	n/a	n/a	n/a	n/a	n/a	n/a	17	4	6	7	n/a	n/a	n/a	n/a	n/a
439.766	n/a	PROB	219883	n/a	LTP212	ltpFR	11	n/a	n/a	n/a	n/a	n/a	n/a	n/a	6	1	1	4	n/a	n/a	n/a	n/a	n/a
441.098	n/a	PROB	220549	n/a	LTP212	ltpFR	11	n/a	n/a	n/a	n/a	n/a	n/a	n/a	21	9	4	8	n/a	n/a	n/a	n/a	n/a
443.808	n/a	STOP	221904	n/a	LTP212	ltpFR	11	n/a	n/a	n/a	n/a	n/a	n/a	n/a	n/a	n/a	n/a	n/a	n/a	n/a	n/a	n/a	n/a
445.874	n/a	WORD	222937	wordpools/wasnorm_wordpool_less_exclusions.txt	LTP212	ltpFR	11	1	0	ALLEY	15	n/a	n/a	1	n/a	0	0	0	0.57763671875	0.412841796875	1	upper	zerothre.ttf
448.886	n/a	START	224443	n/a	LTP212	ltpFR	11	n/a	n/a	n/a	n/a	n/a	n/a	n/a	n/a	n/a	n/a	n/a	n/a	n/a	n/a	n/a	n/a
449.834	n/a	PROB	224917	n/a	LTP212	ltpFR	11	n/a	n/a	n/a	n/a	n/a	n/a	n/a	15	4	8	3	n/a	n/a	n/a	n/a	n/a
451.664	n/a	PROB	225832	n/a	LTP212	ltpFR	11	n/a	n/a	n/a	n/a	n/a	n/a	n/a	12	4	7	1	n/a	n/a	n/a	n/a	n/a
453.38	n/a	PROB	226690	n/a	LTP212	ltpFR	11	n/a	n/a	n/a	n/a	n/a	n/a	n/a	21	7	8	6	n/a	n/a	n/a	n/a	n/a
456.288	n/a	STOP	228144	n/a	LTP212	ltpFR	11	n/a	n/a	n/a	n/a	n/a	n/a	n/a	n/a	n/a	n/a	n/a	n/a	n/a	n/a	n/a	n/a
457.772	n/a	WORD	228886	wordpools/wasnorm_wordpool_less_exclusions.txt	LTP212	ltpFR	11	1	0	NET	946	n/a	n/a	0	n/a	0	0	0	0.57763671875	0.412841796875	1	upper	zerothre.ttf
460.784	n/a	START	230392	n/a	LTP212	ltpFR	11	n/a	n/a	n/a	n/a	n/a	n/a	n/a	n/a	n/a	n/a	n/a	n/a	n/a	n/a	n/a	n/a
461.782	n/a	PROB	230891	n/a	LTP212	ltpFR	11	n/a	n/a	n/a	n/a	n/a	n/a	n/a	9	3	5	1	n/a	n/a	n/a	n/a	n/a
463.53	n/a	PROB	231765	n/a	LTP212	ltpFR	11	n/a	n/a	n/a	n/a	n/a	n/a	n/a	15	8	4	3	n/a	n/a	n/a	n/a	n/a
465.396	n/a	PROB	232698	n/a	LTP212	ltpFR	11	n/a	n/a	n/a	n/a	n/a	n/a	n/a	16	9	4	3	n/a	n/a	n/a	n/a	n/a
467.504	n/a	STOP	233752	n/a	LTP212	ltpFR	11	n/a	n/a	n/a	n/a	n/a	n/a	n/a	n/a	n/a	n/a	n/a	n/a	n/a	n/a	n/a	n/a
469.956	n/a	WORD	234978	wordpools/wasnorm_wordpool_less_exclusions.txt	LTP212	ltpFR	11	1	0	BRICK	172	n/a	n/a	0	n/a	0	0	0	0.57763671875	0.412841796875	1	upper	zerothre.ttf
472.968	n/a	START	236484	n/a	LTP212	ltpFR	11	n/a	n/a	n/a	n/a	n/a	n/a	n/a	n/a	n/a	n/a	n/a	n/a	n/a	n/a	n/a	n/a
474.148	n/a	PROB	237074	n/a	LTP212	ltpFR	11	n/a	n/a	n/a	n/a	n/a	n/a	n/a	17	8	6	3	n/a	n/a	n/a	n/a	n/a
476.512	n/a	PROB	238256	n/a	LTP212	ltpFR	11	n/a	n/a	n/a	n/a	n/a	n/a	n/a	5	3	1	1	n/a	n/a	n/a	n/a	n/a
477.644	n/a	PROB	238822	n/a	LTP212	ltpFR	11	n/a	n/a	n/a	n/a	n/a	n/a	n/a	11	1	6	4	n/a	n/a	n/a	n/a	n/a
479.008	n/a	PROB	239504	n/a	LTP212	ltpFR	11	n/a	n/a	n/a	n/a	n/a	n/a	n/a	17	2	8	7	n/a	n/a	n/a	n/a	n/a
480.258	n/a	STOP	240129	n/a	LTP212	ltpFR	11	n/a	n/a	n/a	n/a	n/a	n/a	n/a	n/a	n/a	n/a	n/a	n/a	n/a	n/a	n/a	n/a
482.086	n/a	WORD	241043	wordpools/wasnorm_wordpool_less_exclusions.txt	LTP212	ltpFR	11	1	0	BUILDING	191	n/a	n/a	1	n/a	0	0	0	0.57763671875	0.412841796875	1	upper	zerothre.ttf
485.1	n/a	START	242550	n/a	LTP212	ltpFR	11	n/a	n/a	n/a	n/a	n/a	n/a	n/a	n/a	n/a	n/a	n/a	n/a	n/a	n/a	n/a	n/a
486.098	n/a	PROB	243049	n/a	LTP212	ltpFR	11	n/a	n/a	n/a	n/a	n/a	n/a	n/a	26	9	8	9	n/a	n/a	n/a	n/a	n/a
488.794	n/a	PROB	244397	n/a	LTP212	ltpFR	11	n/a	n/a	n/a	n/a	n/a	n/a	n/a	20	8	6	6	n/a	n/a	n/a	n/a	n/a
490.492	n/a	PROB	245246	n/a	LTP212	ltpFR	11	n/a	n/a	n/a	n/a	n/a	n/a	n/a	3	1	1	1	n/a	n/a	n/a	n/a	n/a
491.56	n/a	STOP	245780	n/a	LTP212	ltpFR	11	n/a	n/a	n/a	n/a	n/a	n/a	n/a	n/a	n/a	n/a	n/a	n/a	n/a	n/a	n/a	n/a
494.304	n/a	WORD	247152	wordpools/wasnorm_wordpool_less_exclusions.txt	LTP212	ltpFR	11	1	0	TWIN	1528	n/a	n/a	1	n/a	0	0	0	0.57763671875	0.412841796875	1	upper	zerothre.ttf
497.316	n/a	START	248658	n/a	LTP212	ltpFR	11	n/a	n/a	n/a	n/a	n/a	n/a	n/a	n/a	n/a	n/a	n/a	n/a	n/a	n/a	n/a	n/a
498.13	n/a	PROB	249065	n/a	LTP212	ltpFR	11	n/a	n/a	n/a	n/a	n/a	n/a	n/a	13	6	4	3	n/a	n/a	n/a	n/a	n/a
499.728	n/a	PROB	249864	n/a	LTP212	ltpFR	11	n/a	n/a	n/a	n/a	n/a	n/a	n/a	12	3	6	3	n/a	n/a	n/a	n/a	n/a
501.326	n/a	PROB	250663	n/a	LTP212	ltpFR	11	n/a	n/a	n/a	n/a	n/a	n/a	n/a	22	7	7	8	n/a	n/a	n/a	n/a	n/a
505.314	n/a	STOP	252657	n/a	LTP212	ltpFR	11	n/a	n/a	n/a	n/a	n/a	n/a	n/a	n/a	n/a	n/a	n/a	n/a	n/a	n/a	n/a	n/a
507.15	n/a	REC_START	253575	n/a	LTP212	ltpFR	11	1	n/a	n/a	n/a	n/a	n/a	n/a	n/a	0	0	0	n/a	n/a	n/a	n/a	n/a
508.716	n/a	REC_WORD	254358	wordpools/wasnorm_wordpool_less_exclusions.txt	LTP212	ltpFR	11	1	0	ALLEY	15	n/a	n/a	1	n/a	0	0	0	n/a	n/a	n/a	n/a	n/a
509.584	n/a	REC_WORD	254792	wordpools/wasnorm_wordpool_less_exclusions.txt	LTP212	ltpFR	11	1	0	TUNNEL	1519	n/a	n/a	1	n/a	0	0	0	n/a	n/a	n/a	n/a	n/a
510.598	n/a	REC_WORD	255299	wordpools/wasnorm_wordpool_less_exclusions.txt	LTP212	ltpFR	11	1	0	BUILDING	191	n/a	n/a	1	n/a	0	0	0	n/a	n/a	n/a	n/a	n/a
511.714	n/a	REC_WORD	255857	wordpools/wasnorm_wordpool_less_exclusions.txt	LTP212	ltpFR	11	1	0	WATER	1594	n/a	n/a	0	n/a	0	0	0	n/a	n/a	n/a	n/a	n/a
512.378	n/a	REC_WORD	256189	wordpools/wasnorm_wordpool_less_exclusions.txt	LTP212	ltpFR	11	1	0	SILVERWARE	1308	n/a	n/a	0	n/a	0	0	0	n/a	n/a	n/a	n/a	n/a
513.91	n/a	REC_WORD	256955	wordpools/wasnorm_wordpool_less_exclusions.txt	LTP212	ltpFR	11	1	0	RECEIPT	1173	n/a	n/a	0	n/a	0	0	0	n/a	n/a	n/a	n/a	n/a
515.766	n/a	REC_WORD	257883	wordpools/wasnorm_wordpool_less_exclusions.txt	LTP212	ltpFR	11	1	0	TAR	1435	n/a	n/a	0	n/a	0	0	0	n/a	n/a	n/a	n/a	n/a
517.188	n/a	REC_WORD	258594	wordpools/wasnorm_wordpool_less_exclusions.txt	LTP212	ltpFR	11	1	0	BRICK	172	n/a	n/a	0	n/a	0	0	0	n/a	n/a	n/a	n/a	n/a
518.36	n/a	REC_WORD	259180	wordpools/wasnorm_wordpool_less_exclusions.txt	LTP212	ltpFR	11	1	0	SHOE	1288	n/a	n/a	0	n/a	0	0	0	n/a	n/a	n/a	n/a	n/a
520.01	n/a	REC_WORD	260005	wordpools/wasnorm_wordpool_less_exclusions.txt	LTP212	ltpFR	11	1	0	VOLCANO	1575	n/a	n/a	1	n/a	0	0	0	n/a	n/a	n/a	n/a	n/a
528.324	n/a	REC_WORD	264162	wordpools/wasnorm_wordpool_less_exclusions.txt	LTP212	ltpFR	11	1	0	SIBLING	1301	n/a	n/a	1	n/a	0	0	0	n/a	n/a	n/a	n/a	n/a
529.57	n/a	REC_WORD	264785	wordpools/wasnorm_wordpool_less_exclusions.txt	LTP212	ltpFR	11	1	0	TWIN	1528	n/a	n/a	1	n/a	0	0	0	n/a	n/a	n/a	n/a	n/a
617.586	n/a	WORD	308793	wordpools/wasnorm_wordpool_less_exclusions.txt	LTP212	ltpFR	11	2	1	CACTUS	215	n/a	n/a	1	n/a	0	0	0	0.422607421875	0.5869140625	0	lower	amplitud.ttf
621.498	n/a	WORD	310749	wordpools/wasnorm_wordpool_less_exclusions.txt	LTP212	ltpFR	11	2	1	OATMEAL	967	n/a	n/a	0	n/a	0	0	0	0.422607421875	0.5869140625	0	lower	amplitud.ttf
625.442	n/a	WORD	312721	wordpools/wasnorm_wordpool_less_exclusions.txt	LTP212	ltpFR	11	2	1	CAPTAIN	239	n/a	n/a	1	n/a	0	0	0	0.422607421875	0.5869140625	0	lower	amplitud.ttf
629.32	n/a	WORD	314660	wordpools/wasnorm_wordpool_less_exclusions.txt	LTP212	ltpFR	11	2	1	TOASTER	1472	n/a	n/a	0	n/a	0	0	0	0.422607421875	0.5869140625	0	lower	amplitud.ttf
633.33	n/a	WORD	316665	wordpools/wasnorm_wordpool_less_exclusions.txt	LTP212	ltpFR	11	2	1	LILY	821	n/a	n/a	1	n/a	0	0	0	0.422607421875	0.5869140625	0	lower	amplitud.ttf
637.158	n/a	WORD	318579	wordpools/wasnorm_wordpool_less_exclusions.txt	LTP212	ltpFR	11	2	1	TRACTOR	1493	n/a	n/a	0	n/a	0	0	0	0.422607421875	0.5869140625	0	lower	amplitud.ttf
641.152	n/a	WORD	320576	wordpools/wasnorm_wordpool_less_exclusions.txt	LTP212	ltpFR	11	2	1	PORCUPINE	1107	n/a	n/a	1	n/a	0	0	0	0.422607421875	0.5869140625	0	lower	amplitud.ttf
645.196	n/a	WORD	322598	wordpools/wasnorm_wordpool_less_exclusions.txt	LTP212	ltpFR	11	2	1	DECK	443	n/a	n/a	0	n/a	0	0	0	0.422607421875	0.5869140625	0	lower	amplitud.ttf
649.374	n/a	WORD	324687	wordpools/wasnorm_wordpool_less_exclusions.txt	LTP212	ltpFR	11	2	1	MASK	876	n/a	n/a	0	n/a	0	0	0	0.422607421875	0.5869140625	0	lower	amplitud.ttf
653.55	n/a	WORD	326775	wordpools/wasnorm_wordpool_less_exclusions.txt	LTP212	ltpFR	11	2	1	SAUCER	1237	n/a	n/a	0	n/a	0	0	0	0.422607421875	0.5869140625	0	lower	amplitud.ttf
657.544	n/a	WORD	328772	wordpools/wasnorm_wordpool_less_exclusions.txt	LTP212	ltpFR	11	2	1	COP	376	n/a	n/a	1	n/a	0	0	0	0.422607421875	0.5869140625	0	lower	amplitud.ttf
661.604	n/a	WORD	330802	wordpools/wasnorm_wordpool_less_exclusions.txt	LTP212	ltpFR	11	2	1	TEAPOT	1442	n/a	n/a	0	n/a	0	0	0	0.422607421875	0.5869140625	0	lower	amplitud.ttf
665.614	n/a	WORD	332807	wordpools/wasnorm_wordpool_less_exclusions.txt	LTP212	ltpFR	11	2	1	CHARCOAL	281	n/a	n/a	0	n/a	0	0	0	0.422607421875	0.5869140625	0	lower	amplitud.ttf
669.842	n/a	WORD	334921	wordpools/wasnorm_wordpool_less_exclusions.txt	LTP212	ltpFR	11	2	1	MINER	896	n/a	n/a	1	n/a	0	0	0	0.422607421875	0.5869140625	0	lower	amplitud.ttf
673.886	n/a	WORD	336943	wordpools/wasnorm_wordpool_less_exclusions.txt	LTP212	ltpFR	11	2	1	TAXI	1438	n/a	n/a	0	n/a	0	0	0	0.422607421875	0.5869140625	0	lower	amplitud.ttf
677.88	n/a	WORD	338940	wordpools/wasnorm_wordpool_less_exclusions.txt	LTP212	ltpFR	11	2	1	WINDSHIELD	1612	n/a	n/a	0	n/a	0	0	0	0.422607421875	0.5869140625	0	lower	amplitud.ttf
680.894	n/a	START	340447	n/a	LTP212	ltpFR	11	n/a	n/a	n/a	n/a	n/a	n/a	n/a	n/a	n/a	n/a	n/a	n/a	n/a	n/a	n/a	n/a
681.808	n/a	PROB	340904	n/a	LTP212	ltpFR	11	n/a	n/a	n/a	n/a	n/a	n/a	n/a	16	4	6	6	n/a	n/a	n/a	n/a	n/a
683.572	n/a	PROB	341786	n/a	LTP212	ltpFR	11	n/a	n/a	n/a	n/a	n/a	n/a	n/a	10	1	6	3	n/a	n/a	n/a	n/a	n/a
685.454	n/a	PROB	342727	n/a	LTP212	ltpFR	11	n/a	n/a	n/a	n/a	n/a	n/a	n/a	23	8	8	7	n/a	n/a	n/a	n/a	n/a
688.252	n/a	STOP	344126	n/a	LTP212	ltpFR	11	n/a	n/a	n/a	n/a	n/a	n/a	n/a	n/a	n/a	n/a	n/a	n/a	n/a	n/a	n/a	n/a
690.812	n/a	REC_START	345406	n/a	LTP212	ltpFR	11	2	n/a	n/a	n/a	n/a	n/a	n/a	n/a	0	0	0	n/a	n/a	n/a	n/a	n/a
691.48	n/a	REC_WORD	345740	wordpools/wasnorm_wordpool_less_exclusions.txt	LTP212	ltpFR	11	2	1	CHARCOAL	281	n/a	n/a	0	n/a	0	0	0	n/a	n/a	n/a	n/a	n/a
692.398	n/a	REC_WORD	346199	wordpools/wasnorm_wordpool_less_exclusions.txt	LTP212	ltpFR	11	2	1	MINER	896	n/a	n/a	1	n/a	0	0	0	n/a	n/a	n/a	n/a	n/a
693.572	n/a	REC_WORD	346786	wordpools/wasnorm_wordpool_less_exclusions.txt	LTP212	ltpFR	11	2	1	TAXI	1438	n/a	n/a	0	n/a	0	0	0	n/a	n/a	n/a	n/a	n/a
694.704	n/a	REC_WORD	347352	wordpools/wasnorm_wordpool_less_exclusions.txt	LTP212	ltpFR	11	2	1	WINDSHIELD	1612	n/a	n/a	0	n/a	0	0	0	n/a	n/a	n/a	n/a	n/a
697.162	n/a	REC_WORD	348581	wordpools/wasnorm_wordpool_less_exclusions.txt	LTP212	ltpFR	11	2	1	CAPTAIN	239	n/a	n/a	1	n/a	0	0	0	n/a	n/a	n/a	n/a	n/a
699.472	n/a	REC_WORD	349736	wordpools/wasnorm_wordpool_less_exclusions.txt	LTP212	ltpFR	11	2	1	OATMEAL	967	n/a	n/a	0	n/a	0	0	0	n/a	n/a	n/a	n/a	n/a
707.1	n/a	REC_WORD	353550	wordpools/wasnorm_wordpool_less_exclusions.txt	LTP212	ltpFR	11	2	1	CACTUS	215	n/a	n/a	1	n/a	0	0	0	n/a	n/a	n/a	n/a	n/a
708.462	n/a	REC_WORD	354231	wordpools/wasnorm_wordpool_less_exclusions.txt	LTP212	ltpFR	11	2	1	LILY	821	n/a	n/a	1	n/a	0	0	0	n/a	n/a	n/a	n/a	n/a
776.352	n/a	WORD	388176	wordpools/wasnorm_wordpool_less_exclusions.txt	LTP212	ltpFR	11	3	0	TEA	1439	n/a	n/a	0	n/a	0	0	0	0.57763671875	0.412841796875	1	upper	zerothre.ttf
780.38	n/a	WORD	390190	wordpools/wasnorm_wordpool_less_exclusions.txt	LTP212	ltpFR	11	3	0	LAWYER	806	n/a	n/a	1	n/a	0	0	0	0.57763671875	0.412841796875	1	upper	zerothre.ttf
784.572	n/a	WORD	392286	wordpools/wasnorm_wordpool_less_exclusions.txt	LTP212	ltpFR	11	3	0	TICK	1463	n/a	n/a	0	n/a	0	0	0	0.57763671875	0.412841796875	1	upper	zerothre.ttf
788.616	n/a	WORD	394308	wordpools/wasnorm_wordpool_less_exclusions.txt	LTP212	ltpFR	11	3	0	BOARD	143	n/a	n/a	1	n/a	0	0	0	0.57763671875	0.412841796875	1	upper	zerothre.ttf
792.644	n/a	WORD	396322	wordpools/wasnorm_wordpool_less_exclusions.txt	LTP212	ltpFR	11	3	0	THUMB	1462	n/a	n/a	0	n/a	0	0	0	0.57763671875	0.412841796875	1	upper	zerothre.ttf
796.754	n/a	WORD	398377	wordpools/wasnorm_wordpool_less_exclusions.txt	LTP212	ltpFR	11	3	1	HAY	693	n/a	n/a	0	n/a	0	0	0	0.422607421875	0.5869140625	0	lower	amplitud.ttf
800.948	n/a	WORD	400474	wordpools/wasnorm_wordpool_less_exclusions.txt	LTP212	ltpFR	11	3	1	CATERPILLAR	259	n/a	n/a	1	n/a	0	0	0	0.422607421875	0.5869140625	0	lower	amplitud.ttf
804.992	n/a	WORD	402496	wordpools/wasnorm_wordpool_less_exclusions.txt	LTP212	ltpFR	11	3	1	BISON	131	n/a	n/a	1	n/a	0	0	0	0.422607421875	0.5869140625	0	lower	amplitud.ttf
808.838	n/a	WORD	404419	wordpools/wasnorm_wordpool_less_exclusions.txt	LTP212	ltpFR	11	3	1	LAMB	797	n/a	n/a	1	n/a	0	0	0	0.422607421875	0.5869140625	0	lower	amplitud.ttf
812.682	n/a	WORD	406341	wordpools/wasnorm_wordpool_less_exclusions.txt	LTP212	ltpFR	11	3	0	COWBOY	395	n/a	n/a	1	n/a	0	0	0	0.57763671875	0.412841796875	1	upper	zerothre.ttf
816.808	n/a	WORD	408404	wordpools/wasnorm_wordpool_less_exclusions.txt	LTP212	ltpFR	11	3	0	LIMB	822	n/a	n/a	1	n/a	0	0	0	0.57763671875	0.412841796875	1	upper	zerothre.ttf
820.652	n/a	WORD	410326	wordpools/wasnorm_wordpool_less_exclusions.txt	LTP212	ltpFR	11	3	0	WHEEL	1603	n/a	n/a	0	n/a	0	0	0	0.57763671875	0.412841796875	1	upper	zerothre.ttf
824.764	n/a	WORD	412382	wordpools/wasnorm_wordpool_less_exclusions.txt	LTP212	ltpFR	11	3	1	WAGON	1578	n/a	n/a	0	n/a	0	0	0	0.422607421875	0.5869140625	0	lower	amplitud.ttf
828.608	n/a	WORD	414304	wordpools/wasnorm_wordpool_less_exclusions.txt	LTP212	ltpFR	11	3	1	PAIL	1002	n/a	n/a	0	n/a	0	0	0	0.422607421875	0.5869140625	0	lower	amplitud.ttf
832.586	n/a	WORD	416293	wordpools/wasnorm_wordpool_less_exclusions.txt	LTP212	ltpFR	11	3	1	FAUCET	555	n/a	n/a	0	n/a	0	0	0	0.422607421875	0.5869140625	0	lower	amplitud.ttf
836.596	n/a	WORD	418298	wordpools/wasnorm_wordpool_less_exclusions.txt	LTP212	ltpFR	11	3	1	FINGER	567	n/a	n/a	1	n/a	0	0	0	0.422607421875	0.5869140625	0	lower	amplitud.ttf
842.604	n/a	REC_START	421302	n/a	LTP212	ltpFR	11	3	n/a	n/a	n/a	n/a	n/a	n/a	n/a	0	0	0	n/a	n/a	n/a	n/a	n/a
843.142	n/a	REC_WORD	421571	wordpools/wasnorm_wordpool_less_exclusions.txt	LTP212	ltpFR	11	3	1	WAGON	1578	n/a	n/a	0	n/a	0	0	0	n/a	n/a	n/a	n/a	n/a
844.11	n/a	REC_WORD	422055	wordpools/wasnorm_wordpool_less_exclusions.txt	LTP212	ltpFR	11	3	1	PAIL	1002	n/a	n/a	0	n/a	0	0	0	n/a	n/a	n/a	n/a	n/a
844.854	n/a	REC_WORD	422427	wordpools/wasnorm_wordpool_less_exclusions.txt	LTP212	ltpFR	11	3	1	FAUCET	555	n/a	n/a	0	n/a	0	0	0	n/a	n/a	n/a	n/a	n/a
846.056	n/a	REC_WORD	423028	wordpools/wasnorm_wordpool_less_exclusions.txt	LTP212	ltpFR	11	3	1	FINGER	567	n/a	n/a	1	n/a	0	0	0	n/a	n/a	n/a	n/a	n/a
847.354	n/a	REC_WORD	423677	wordpools/wasnorm_wordpool_less_exclusions.txt	LTP212	ltpFR	11	3	0	WHEEL	1603	n/a	n/a	0	n/a	0	0	0	n/a	n/a	n/a	n/a	n/a
848.63	n/a	REC_WORD	424315	wordpools/wasnorm_wordpool_less_exclusions.txt	LTP212	ltpFR	11	3	0	THUMB	1462	n/a	n/a	0	n/a	0	0	0	n/a	n/a	n/a	n/a	n/a
849.952	n/a	REC_WORD	424976	wordpools/wasnorm_wordpool_less_exclusions.txt	LTP212	ltpFR	11	3	0	LIMB	822	n/a	n/a	1	n/a	0	0	0	n/a	n/a	n/a	n/a	n/a
851.668	n/a	REC_WORD	425834	wordpools/wasnorm_wordpool_less_exclusions.txt	LTP212	ltpFR	11	3	0	TEA	1439	n/a	n/a	0	n/a	0	0	0	n/a	n/a	n/a	n/a	n/a
861.896	n/a	REC_WORD	430948	wordpools/wasnorm_wordpool_less_exclusions.txt	LTP212	ltpFR	11	3	1	TRACTOR	1493	n/a	n/a	0	n/a	0	0	0	n/a	n/a	n/a	n/a	n/a
864.644	n/a	REC_WORD	432322	wordpools/wasnorm_wordpool_less_exclusions.txt	LTP212	ltpFR	11	3	0	LAWYER	806	n/a	n/a	1	n/a	0	0	0	n/a	n/a	n/a	n/a	n/a
871.434	n/a	REC_WORD	435717	wordpools/wasnorm_wordpool_less_exclusions.txt	LTP212	ltpFR	11	3	1	BISON	131	n/a	n/a	1	n/a	0	0	0	n/a	n/a	n/a	n/a	n/a
872.936	n/a	REC_WORD	436468	wordpools/wasnorm_wordpool_less_exclusions.txt	LTP212	ltpFR	11	3	1	LAMB	797	n/a	n/a	1	n/a	0	0	0	n/a	n/a	n/a	n/a	n/a
874.278	n/a	REC_WORD	437139	wordpools/wasnorm_wordpool_less_exclusions.txt	LTP212	ltpFR	11	3	1	CATERPILLAR	259	n/a	n/a	1	n/a	0	0	0	n/a	n/a	n/a	n/a	n/a
911.694	n/a	REC_WORD	455847	wordpools/wasnorm_wordpool_less_exclusions.txt	LTP212	ltpFR	11	3	1	HAY	693	n/a	n/a	0	n/a	0	0	0	n/a	n/a	n/a	n/a	n/a
944.986	n/a	WORD	472493	wordpools/wasnorm_wordpool_less_exclusions.txt	LTP212	ltpFR	11	4	0	BRUSH	182	n/a	n/a	0	n/a	0	0	0	0.57763671875	0.412841796875	1	upper	zerothre.ttf
949.146	n/a	WORD	474573	wordpools/wasnorm_wordpool_less_exclusions.txt	LTP212	ltpFR	11	4	0	COMMANDER	354	n/a	n/a	1	n/a	0	0	0	0.57763671875	0.412841796875	1	upper	zerothre.ttf
953.074	n/a	WORD	476537	wordpools/wasnorm_wordpool_less_exclusions.txt	LTP212	ltpFR	11	4	1	JOURNAL	760	n/a	n/a	0	n/a	0	0	0	0.422607421875	0.5869140625	0	lower	amplitud.ttf
957.152	n/a	WORD	478576	wordpools/wasnorm_wordpool_less_exclusions.txt	LTP212	ltpFR	11	4	1	GUITAR	670	n/a	n/a	0	n/a	0	0	0	0.422607421875	0.5869140625	0	lower	amplitud.ttf
961.33	n/a	WORD	480665	wordpools/wasnorm_wordpool_less_exclusions.txt	LTP212	ltpFR	11	4	1	BUTTERFLY	206	n/a	n/a	1	n/a	0	0	0	0.422607421875	0.5869140625	0	lower	amplitud.ttf
965.29	n/a	WORD	482645	wordpools/wasnorm_wordpool_less_exclusions.txt	LTP212	ltpFR	11	4	1	PEACH	1031	n/a	n/a	1	n/a	0	0	0	0.422607421875	0.5869140625	0	lower	amplitud.ttf
969.318	n/a	WORD	484659	wordpools/wasnorm_wordpool_less_exclusions.txt	LTP212	ltpFR	11	4	0	MONGOOSE	909	n/a	n/a	0	n/a	0	0	0	0.57763671875	0.412841796875	1	upper	zerothre.ttf
973.428	n/a	WORD	486714	wordpools/wasnorm_wordpool_less_exclusions.txt	LTP212	ltpFR	11	4	0	POSSUM	1112	n/a	n/a	0	n/a	0	0	0	0.57763671875	0.412841796875	1	upper	zerothre.ttf
977.388	n/a	WORD	488694	wordpools/wasnorm_wordpool_less_exclusions.txt	LTP212	ltpFR	11	4	0	COUNTRY	388	n/a	n/a	1	n/a	0	0	0	0.57763671875	0.412841796875	1	upper	zerothre.ttf
981.464	n/a	WORD	490732	wordpools/wasnorm_wordpool_less_exclusions.txt	LTP212	ltpFR	11	4	0	PLATE	1086	n/a	n/a	0	n/a	0	0	0	0.57763671875	0.412841796875	1	upper	zerothre.ttf
985.676	n/a	WORD	492838	wordpools/wasnorm_wordpool_less_exclusions.txt	LTP212	ltpFR	11	4	0	PARENT	1013	n/a	n/a	1	n/a	0	0	0	0.57763671875	0.412841796875	1	upper	zerothre.ttf
989.818	n/a	WORD	494909	wordpools/wasnorm_wordpool_less_exclusions.txt	LTP212	ltpFR	11	4	0	FIDDLE	561	n/a	n/a	1	n/a	0	0	0	0.57763671875	0.412841796875	1	upper	zerothre.ttf
993.646	n/a	WORD	496823	wordpools/wasnorm_wordpool_less_exclusions.txt	LTP212	ltpFR	11	4	1	DRAWER	493	n/a	n/a	0	n/a	0	0	0	0.422607421875	0.5869140625	0	lower	amplitud.ttf
997.824	n/a	WORD	498912	wordpools/wasnorm_wordpool_less_exclusions.txt	LTP212	ltpFR	11	4	1	CLOSET	326	n/a	n/a	0	n/a	0	0	0	0.422607421875	0.5869140625	0	lower	amplitud.ttf
1001.834	n/a	WORD	500917	wordpools/wasnorm_wordpool_less_exclusions.txt	LTP212	ltpFR	11	4	1	COUSIN	392	n/a	n/a	1	n/a	0	0	0	0.422607421875	0.5869140625	0	lower	amplitud.ttf
1005.894	n/a	WORD	502947	wordpools/wasnorm_wordpool_less_exclusions.txt	LTP212	ltpFR	11	4	1	VEGETABLE	1552	n/a	n/a	1	n/a	0	0	0	0.422607421875	0.5869140625	0	lower	amplitud.ttf
1008.908	n/a	START	504454	n/a	LTP212	ltpFR	11	n/a	n/a	n/a	n/a	n/a	n/a	n/a	n/a	n/a	n/a	n/a	n/a	n/a	n/a	n/a	n/a
1009.906	n/a	PROB	504953	n/a	LTP212	ltpFR	11	n/a	n/a	n/a	n/a	n/a	n/a	n/a	19	4	8	7	n/a	n/a	n/a	n/a	n/a
1012.37	n/a	PROB	506185	n/a	LTP212	ltpFR	11	n/a	n/a	n/a	n/a	n/a	n/a	n/a	14	9	2	3	n/a	n/a	n/a	n/a	n/a
1014.466	n/a	PROB	507233	n/a	LTP212	ltpFR	11	n/a	n/a	n/a	n/a	n/a	n/a	n/a	20	3	8	9	n/a	n/a	n/a	n/a	n/a
1016.93	n/a	PROB	508465	n/a	LTP212	ltpFR	11	n/a	n/a	n/a	n/a	n/a	n/a	n/a	23	7	7	9	n/a	n/a	n/a	n/a	n/a
1020.74	n/a	PROB	510370	n/a	LTP212	ltpFR	11	n/a	n/a	n/a	n/a	n/a	n/a	n/a	21	9	8	4	n/a	n/a	n/a	n/a	n/a
1023.07	n/a	PROB	511535	n/a	LTP212	ltpFR	11	n/a	n/a	n/a	n/a	n/a	n/a	n/a	11	1	4	6	n/a	n/a	n/a	n/a	n/a
1024.616	n/a	STOP	512308	n/a	LTP212	ltpFR	11	n/a	n/a	n/a	n/a	n/a	n/a	n/a	n/a	n/a	n/a	n/a	n/a	n/a	n/a	n/a	n/a
1026.782	n/a	REC_START	513391	n/a	LTP212	ltpFR	11	4	n/a	n/a	n/a	n/a	n/a	n/a	n/a	0	0	0	n/a	n/a	n/a	n/a	n/a
1027.48	n/a	REC_WORD	513740	wordpools/wasnorm_wordpool_less_exclusions.txt	LTP212	ltpFR	11	4	1	DRAWER	493	n/a	n/a	0	n/a	0	0	0	n/a	n/a	n/a	n/a	n/a
1028.58	n/a	REC_WORD	514290	wordpools/wasnorm_wordpool_less_exclusions.txt	LTP212	ltpFR	11	4	1	CLOSET	326	n/a	n/a	0	n/a	0	0	0	n/a	n/a	n/a	n/a	n/a
1030.254	n/a	REC_WORD	515127	wordpools/wasnorm_wordpool_less_exclusions.txt	LTP212	ltpFR	11	4	1	COUSIN	392	n/a	n/a	1	n/a	0	0	0	n/a	n/a	n/a	n/a	n/a
1040.256	n/a	REC_WORD	520128	wordpools/wasnorm_wordpool_less_exclusions.txt	LTP212	ltpFR	11	4	0	PLATE	1086	n/a	n/a	0	n/a	0	0	0	n/a	n/a	n/a	n/a	n/a
1043.266	n/a	REC_WORD	521633	wordpools/wasnorm_wordpool_less_exclusions.txt	LTP212	ltpFR	11	4	1	GUITAR	670	n/a	n/a	0	n/a	0	0	0	n/a	n/a	n/a	n/a	n/a
1044.876	n/a	REC_WORD	522438	wordpools/wasnorm_wordpool_less_exclusions.txt	LTP212	ltpFR	11	4	0	FIDDLE	561	n/a	n/a	1	n/a	0	0	0	n/a	n/a	n/a	n/a	n/a
1048.132	n/a	REC_WORD	524066	wordpools/wasnorm_wordpool_less_exclusions.txt	LTP212	ltpFR	11	4	1	BUTTERFLY	206	n/a	n/a	1	n/a	0	0	0	n/a	n/a	n/a	n/a	n/a
1052.796	n/a	REC_WORD	526398	wordpools/wasnorm_wordpool_less_exclusions.txt	LTP212	ltpFR	11	4	1	VEGETABLE	1552	n/a	n/a	1	n/a	0	0	0	n/a	n/a	n/a	n/a	n/a
1055.946	n/a	REC_WORD	527973	wordpools/wasnorm_wordpool_less_exclusions.txt	LTP212	ltpFR	11	4	1	PEACH	1031	n/a	n/a	1	n/a	0	0	0	n/a	n/a	n/a	n/a	n/a
1080.914	n/a	REC_WORD	540457	wordpools/wasnorm_wordpool_less_exclusions.txt	LTP212	ltpFR	11	4	0	POSSUM	1112	n/a	n/a	0	n/a	0	0	0	n/a	n/a	n/a	n/a	n/a
1082.132	n/a	REC_WORD	541066	wordpools/wasnorm_wordpool_less_exclusions.txt	LTP212	ltpFR	11	4	0	MONGOOSE	909	n/a	n/a	0	n/a	0	0	0	n/a	n/a	n/a	n/a	n/a
1121.592	n/a	START	560796	n/a	LTP212	ltpFR	11	n/a	n/a	n/a	n/a	n/a	n/a	n/a	n/a	n/a	n/a	n/a	n/a	n/a	n/a	n/a	n/a
1123.106	n/a	PROB	561553	n/a	LTP212	ltpFR	11	n/a	n/a	n/a	n/a	n/a	n/a	n/a	14	9	2	3	n/a	n/a	n/a	n/a	n/a
1124.686	n/a	PROB	562343	n/a	LTP212	ltpFR	11	n/a	n/a	n/a	n/a	n/a	n/a	n/a	15	5	2	9	n/a	n/a	n/a	n/a	n/a
1129.59	n/a	STOP	564795	n/a	LTP212	ltpFR	11	n/a	n/a	n/a	n/a	n/a	n/a	n/a	n/a	n/a	n/a	n/a	n/a	n/a	n/a	n/a	n/a
1130.478	n/a	WORD	565239	wordpools/wasnorm_wordpool_less_exclusions.txt	LTP212	ltpFR	11	5	1	CLOTHES	327	n/a	n/a	0	n/a	0	0	0	0.422607421875	0.5869140625	0	lower	amplitud.ttf
1133.49	n/a	START	566745	n/a	LTP212	ltpFR	11	n/a	n/a	n/a	n/a	n/a	n/a	n/a	n/a	n/a	n/a	n/a	n/a	n/a	n/a	n/a	n/a
1134.572	n/a	PROB	567286	n/a	LTP212	ltpFR	11	n/a	n/a	n/a	n/a	n/a	n/a	n/a	5	2	1	2	n/a	n/a	n/a	n/a	n/a
1136.052	n/a	PROB	568026	n/a	LTP212	ltpFR	11	n/a	n/a	n/a	n/a	n/a	n/a	n/a	12	1	8	3	n/a	n/a	n/a	n/a	n/a
1139.082	n/a	PROB	569541	n/a	LTP212	ltpFR	11	n/a	n/a	n/a	n/a	n/a	n/a	n/a	10	2	7	1	n/a	n/a	n/a	n/a	n/a
1140.586	n/a	STOP	570293	n/a	LTP212	ltpFR	11	n/a	n/a	n/a	n/a	n/a	n/a	n/a	n/a	n/a	n/a	n/a	n/a	n/a	n/a	n/a	n/a
1142.394	n/a	WORD	571197	wordpools/wasnorm_wordpool_less_exclusions.txt	LTP212	ltpFR	11	5	1	DRIVER	499	n/a	n/a	1	n/a	0	0	0	0.422607421875	0.5869140625	0	lower	amplitud.ttf
1145.406	n/a	START	572703	n/a	LTP212	ltpFR	11	n/a	n/a	n/a	n/a	n/a	n/a	n/a	n/a	n/a	n/a	n/a	n/a	n/a	n/a	n/a	n/a
1146.52	n/a	PROB	573260	n/a	LTP212	ltpFR	11	n/a	n/a	n/a	n/a	n/a	n/a	n/a	13	1	8	4	n/a	n/a	n/a	n/a	n/a
1148.684	n/a	PROB	574342	n/a	LTP212	ltpFR	11	n/a	n/a	n/a	n/a	n/a	n/a	n/a	12	3	7	2	n/a	n/a	n/a	n/a	n/a
1150.4	n/a	PROB	575200	n/a	LTP212	ltpFR	11	n/a	n/a	n/a	n/a	n/a	n/a	n/a	11	8	2	1	n/a	n/a	n/a	n/a	n/a
1151.914	n/a	STOP	575957	n/a	LTP212	ltpFR	11	n/a	n/a	n/a	n/a	n/a	n/a	n/a	n/a	n/a	n/a	n/a	n/a	n/a	n/a	n/a	n/a
1154.26	n/a	WORD	577130	wordpools/wasnorm_wordpool_less_exclusions.txt	LTP212	ltpFR	11	5	1	SUPERVISOR	1410	n/a	n/a	1	n/a	0	0	0	0.422607421875	0.5869140625	0	lower	amplitud.ttf
1157.274	n/a	START	578637	n/a	LTP212	ltpFR	11	n/a	n/a	n/a	n/a	n/a	n/a	n/a	n/a	n/a	n/a	n/a	n/a	n/a	n/a	n/a	n/a
1158.238	n/a	PROB	579119	n/a	LTP212	ltpFR	11	n/a	n/a	n/a	n/a	n/a	n/a	n/a	16	7	4	5	n/a	n/a	n/a	n/a	n/a
1160.716	n/a	PROB	580358	n/a	LTP212	ltpFR	11	n/a	n/a	n/a	n/a	n/a	n/a	n/a	18	4	9	5	n/a	n/a	n/a	n/a	n/a
1163.628	n/a	PROB	581814	n/a	LTP212	ltpFR	11	n/a	n/a	n/a	n/a	n/a	n/a	n/a	6	1	4	1	n/a	n/a	n/a	n/a	n/a
1164.73	n/a	STOP	582365	n/a	LTP212	ltpFR	11	n/a	n/a	n/a	n/a	n/a	n/a	n/a	n/a	n/a	n/a	n/a	n/a	n/a	n/a	n/a	n/a
1166.258	n/a	WORD	583129	wordpools/wasnorm_wordpool_less_exclusions.txt	LTP212	ltpFR	11	5	1	RUNNER	1218	n/a	n/a	1	n/a	0	0	0	0.422607421875	0.5869140625	0	lower	amplitud.ttf
1169.272	n/a	START	584636	n/a	LTP212	ltpFR	11	n/a	n/a	n/a	n/a	n/a	n/a	n/a	n/a	n/a	n/a	n/a	n/a	n/a	n/a	n/a	n/a
1170.17	n/a	PROB	585085	n/a	LTP212	ltpFR	11	n/a	n/a	n/a	n/a	n/a	n/a	n/a	19	5	9	5	n/a	n/a	n/a	n/a	n/a
1171.916	n/a	PROB	585958	n/a	LTP212	ltpFR	11	n/a	n/a	n/a	n/a	n/a	n/a	n/a	16	1	6	9	n/a	n/a	n/a	n/a	n/a
1174.164	n/a	PROB	587082	n/a	LTP212	ltpFR	11	n/a	n/a	n/a	n/a	n/a	n/a	n/a	8	2	5	1	n/a	n/a	n/a	n/a	n/a
1176.268	n/a	STOP	588134	n/a	LTP212	ltpFR	11	n/a	n/a	n/a	n/a	n/a	n/a	n/a	n/a	n/a	n/a	n/a	n/a	n/a	n/a	n/a	n/a
1178.09	n/a	WORD	589045	wordpools/wasnorm_wordpool_less_exclusions.txt	LTP212	ltpFR	11	5	1	TRIBE	1505	n/a	n/a	0	n/a	0	0	0	0.422607421875	0.5869140625	0	lower	amplitud.ttf
1181.104	n/a	START	590552	n/a	LTP212	ltpFR	11	n/a	n/a	n/a	n/a	n/a	n/a	n/a	n/a	n/a	n/a	n/a	n/a	n/a	n/a	n/a	n/a
1182.118	n/a	PROB	591059	n/a	LTP212	ltpFR	11	n/a	n/a	n/a	n/a	n/a	n/a	n/a	17	9	6	2	n/a	n/a	n/a	n/a	n/a
1184.848	n/a	PROB	592424	n/a	LTP212	ltpFR	11	n/a	n/a	n/a	n/a	n/a	n/a	n/a	18	8	4	6	n/a	n/a	n/a	n/a	n/a
1187.144	n/a	PROB	593572	n/a	LTP212	ltpFR	11	n/a	n/a	n/a	n/a	n/a	n/a	n/a	20	4	8	8	n/a	n/a	n/a	n/a	n/a
1188.986	n/a	STOP	594493	n/a	LTP212	ltpFR	11	n/a	n/a	n/a	n/a	n/a	n/a	n/a	n/a	n/a	n/a	n/a	n/a	n/a	n/a	n/a	n/a
1190.14	n/a	WORD	595070	wordpools/wasnorm_wordpool_less_exclusions.txt	LTP212	ltpFR	11	5	1	PEAR	1033	n/a	n/a	1	n/a	0	0	0	0.422607421875	0.5869140625	0	lower	amplitud.ttf
1193.152	n/a	START	596576	n/a	LTP212	ltpFR	11	n/a	n/a	n/a	n/a	n/a	n/a	n/a	n/a	n/a	n/a	n/a	n/a	n/a	n/a	n/a	n/a
1194.216	n/a	PROB	597108	n/a	LTP212	ltpFR	11	n/a	n/a	n/a	n/a	n/a	n/a	n/a	13	6	2	5	n/a	n/a	n/a	n/a	n/a
1196.746	n/a	PROB	598373	n/a	LTP212	ltpFR	11	n/a	n/a	n/a	n/a	n/a	n/a	n/a	21	3	9	9	n/a	n/a	n/a	n/a	n/a
1198.328	n/a	PROB	599164	n/a	LTP212	ltpFR	11	n/a	n/a	n/a	n/a	n/a	n/a	n/a	7	3	2	2	n/a	n/a	n/a	n/a	n/a
1200.084	n/a	STOP	600042	n/a	LTP212	ltpFR	11	n/a	n/a	n/a	n/a	n/a	n/a	n/a	n/a	n/a	n/a	n/a	n/a	n/a	n/a	n/a	n/a
1201.972	n/a	WORD	600986	wordpools/wasnorm_wordpool_less_exclusions.txt	LTP212	ltpFR	11	5	1	OPERA	978	n/a	n/a	0	n/a	0	0	0	0.422607421875	0.5869140625	0	lower	amplitud.ttf
1204.984	n/a	START	602492	n/a	LTP212	ltpFR	11	n/a	n/a	n/a	n/a	n/a	n/a	n/a	n/a	n/a	n/a	n/a	n/a	n/a	n/a	n/a	n/a
1205.816	n/a	PROB	602908	n/a	LTP212	ltpFR	11	n/a	n/a	n/a	n/a	n/a	n/a	n/a	5	1	2	2	n/a	n/a	n/a	n/a	n/a
1206.98	n/a	PROB	603490	n/a	LTP212	ltpFR	11	n/a	n/a	n/a	n/a	n/a	n/a	n/a	12	1	2	9	n/a	n/a	n/a	n/a	n/a
1208.778	n/a	PROB	604389	n/a	LTP212	ltpFR	11	n/a	n/a	n/a	n/a	n/a	n/a	n/a	15	8	1	6	n/a	n/a	n/a	n/a	n/a
1211.058	n/a	PROB	605529	n/a	LTP212	ltpFR	11	n/a	n/a	n/a	n/a	n/a	n/a	n/a	15	8	1	6	n/a	n/a	n/a	n/a	n/a
1212.188	n/a	STOP	606094	n/a	LTP212	ltpFR	11	n/a	n/a	n/a	n/a	n/a	n/a	n/a	n/a	n/a	n/a	n/a	n/a	n/a	n/a	n/a	n/a
1213.888	n/a	WORD	606944	wordpools/wasnorm_wordpool_less_exclusions.txt	LTP212	ltpFR	11	5	1	CARAVAN	242	n/a	n/a	0	n/a	0	0	0	0.422607421875	0.5869140625	0	lower	amplitud.ttf
1216.9	n/a	START	608450	n/a	LTP212	ltpFR	11	n/a	n/a	n/a	n/a	n/a	n/a	n/a	n/a	n/a	n/a	n/a	n/a	n/a	n/a	n/a	n/a
1217.882	n/a	PROB	608941	n/a	LTP212	ltpFR	11	n/a	n/a	n/a	n/a	n/a	n/a	n/a	12	5	5	2	n/a	n/a	n/a	n/a	n/a
1219.264	n/a	PROB	609632	n/a	LTP212	ltpFR	11	n/a	n/a	n/a	n/a	n/a	n/a	n/a	9	7	1	1	n/a	n/a	n/a	n/a	n/a
1224.892	n/a	STOP	612446	n/a	LTP212	ltpFR	11	n/a	n/a	n/a	n/a	n/a	n/a	n/a	n/a	n/a	n/a	n/a	n/a	n/a	n/a	n/a	n/a
1225.97	n/a	WORD	612985	wordpools/wasnorm_wordpool_less_exclusions.txt	LTP212	ltpFR	11	5	1	WRIST	1626	n/a	n/a	1	n/a	0	0	0	0.422607421875	0.5869140625	0	lower	amplitud.ttf
1228.982	n/a	START	614491	n/a	LTP212	ltpFR	11	n/a	n/a	n/a	n/a	n/a	n/a	n/a	n/a	n/a	n/a	n/a	n/a	n/a	n/a	n/a	n/a
1230.148	n/a	PROB	615074	n/a	LTP212	ltpFR	11	n/a	n/a	n/a	n/a	n/a	n/a	n/a	18	9	1	8	n/a	n/a	n/a	n/a	n/a
1232.676	n/a	PROB	616338	n/a	LTP212	ltpFR	11	n/a	n/a	n/a	n/a	n/a	n/a	n/a	9	5	3	1	n/a	n/a	n/a	n/a	n/a
1236.982	n/a	STOP	618491	n/a	LTP212	ltpFR	11	n/a	n/a	n/a	n/a	n/a	n/a	n/a	n/a	n/a	n/a	n/a	n/a	n/a	n/a	n/a	n/a
1237.886	n/a	WORD	618943	wordpools/wasnorm_wordpool_less_exclusions.txt	LTP212	ltpFR	11	5	1	LEG	809	n/a	n/a	1	n/a	0	0	0	0.422607421875	0.5869140625	0	lower	amplitud.ttf
1240.898	n/a	START	620449	n/a	LTP212	ltpFR	11	n/a	n/a	n/a	n/a	n/a	n/a	n/a	n/a	n/a	n/a	n/a	n/a	n/a	n/a	n/a	n/a
1242.012	n/a	PROB	621006	n/a	LTP212	ltpFR	11	n/a	n/a	n/a	n/a	n/a	n/a	n/a	22	4	9	9	n/a	n/a	n/a	n/a	n/a
1243.86	n/a	PROB	621930	n/a	LTP212	ltpFR	11	n/a	n/a	n/a	n/a	n/a	n/a	n/a	9	4	3	2	n/a	n/a	n/a	n/a	n/a
1245.69	n/a	PROB	622845	n/a	LTP212	ltpFR	11	n/a	n/a	n/a	n/a	n/a	n/a	n/a	8	4	2	2	n/a	n/a	n/a	n/a	n/a
1248.898	n/a	STOP	624449	n/a	LTP212	ltpFR	11	n/a	n/a	n/a	n/a	n/a	n/a	n/a	n/a	n/a	n/a	n/a	n/a	n/a	n/a	n/a	n/a
1250.084	n/a	WORD	625042	wordpools/wasnorm_wordpool_less_exclusions.txt	LTP212	ltpFR	11	5	1	TREAD	1499	n/a	n/a	0	n/a	0	0	0	0.422607421875	0.5869140625	0	lower	amplitud.ttf
1253.096	n/a	START	626548	n/a	LTP212	ltpFR	11	n/a	n/a	n/a	n/a	n/a	n/a	n/a	n/a	n/a	n/a	n/a	n/a	n/a	n/a	n/a	n/a
1254.144	n/a	PROB	627072	n/a	LTP212	ltpFR	11	n/a	n/a	n/a	n/a	n/a	n/a	n/a	12	7	1	4	n/a	n/a	n/a	n/a	n/a
1256.008	n/a	PROB	628004	n/a	LTP212	ltpFR	11	n/a	n/a	n/a	n/a	n/a	n/a	n/a	19	4	8	7	n/a	n/a	n/a	n/a	n/a
1258.822	n/a	PROB	629411	n/a	LTP212	ltpFR	11	n/a	n/a	n/a	n/a	n/a	n/a	n/a	13	2	3	8	n/a	n/a	n/a	n/a	n/a
1260.7	n/a	STOP	630350	n/a	LTP212	ltpFR	11	n/a	n/a	n/a	n/a	n/a	n/a	n/a	n/a	n/a	n/a	n/a	n/a	n/a	n/a	n/a	n/a
1262.3	n/a	WORD	631150	wordpools/wasnorm_wordpool_less_exclusions.txt	LTP212	ltpFR	11	5	1	SWIMMER	1420	n/a	n/a	1	n/a	0	0	0	0.422607421875	0.5869140625	0	lower	amplitud.ttf
1265.312	n/a	START	632656	n/a	LTP212	ltpFR	11	n/a	n/a	n/a	n/a	n/a	n/a	n/a	n/a	n/a	n/a	n/a	n/a	n/a	n/a	n/a	n/a
1266.278	n/a	PROB	633139	n/a	LTP212	ltpFR	11	n/a	n/a	n/a	n/a	n/a	n/a	n/a	23	9	5	8	n/a	n/a	n/a	n/a	n/a
1269.638	n/a	PROB	634819	n/a	LTP212	ltpFR	11	n/a	n/a	n/a	n/a	n/a	n/a	n/a	15	8	3	4	n/a	n/a	n/a	n/a	n/a
1273.204	n/a	STOP	636602	n/a	LTP212	ltpFR	11	n/a	n/a	n/a	n/a	n/a	n/a	n/a	n/a	n/a	n/a	n/a	n/a	n/a	n/a	n/a	n/a
1274.148	n/a	WORD	637074	wordpools/wasnorm_wordpool_less_exclusions.txt	LTP212	ltpFR	11	5	1	LINT	826	n/a	n/a	0	n/a	0	0	0	0.422607421875	0.5869140625	0	lower	amplitud.ttf
1277.16	n/a	START	638580	n/a	LTP212	ltpFR	11	n/a	n/a	n/a	n/a	n/a	n/a	n/a	n/a	n/a	n/a	n/a	n/a	n/a	n/a	n/a	n/a
1278.026	n/a	PROB	639013	n/a	LTP212	ltpFR	11	n/a	n/a	n/a	n/a	n/a	n/a	n/a	15	7	3	5	n/a	n/a	n/a	n/a	n/a
1279.74	n/a	PROB	639870	n/a	LTP212	ltpFR	11	n/a	n/a	n/a	n/a	n/a	n/a	n/a	14	4	3	7	n/a	n/a	n/a	n/a	n/a
1282.054	n/a	PROB	641027	n/a	LTP212	ltpFR	11	n/a	n/a	n/a	n/a	n/a	n/a	n/a	12	3	4	5	n/a	n/a	n/a	n/a	n/a
1284.196	n/a	STOP	642098	n/a	LTP212	ltpFR	11	n/a	n/a	n/a	n/a	n/a	n/a	n/a	n/a	n/a	n/a	n/a	n/a	n/a	n/a	n/a	n/a
1285.982	n/a	WORD	642991	wordpools/wasnorm_wordpool_less_exclusions.txt	LTP212	ltpFR	11	5	1	ARENA	37	n/a	n/a	0	n/a	0	0	0	0.422607421875	0.5869140625	0	lower	amplitud.ttf
1288.994	n/a	START	644497	n/a	LTP212	ltpFR	11	n/a	n/a	n/a	n/a	n/a	n/a	n/a	n/a	n/a	n/a	n/a	n/a	n/a	n/a	n/a	n/a
1290.192	n/a	PROB	645096	n/a	LTP212	ltpFR	11	n/a	n/a	n/a	n/a	n/a	n/a	n/a	19	9	8	2	n/a	n/a	n/a	n/a	n/a
1293.154	n/a	PROB	646577	n/a	LTP212	ltpFR	11	n/a	n/a	n/a	n/a	n/a	n/a	n/a	13	2	6	5	n/a	n/a	n/a	n/a	n/a
1296.246	n/a	STOP	648123	n/a	LTP212	ltpFR	11	n/a	n/a	n/a	n/a	n/a	n/a	n/a	n/a	n/a	n/a	n/a	n/a	n/a	n/a	n/a	n/a
1297.814	n/a	WORD	648907	wordpools/wasnorm_wordpool_less_exclusions.txt	LTP212	ltpFR	11	5	1	LUNCH	849	n/a	n/a	0	n/a	0	0	0	0.422607421875	0.5869140625	0	lower	amplitud.ttf
1300.826	n/a	START	650413	n/a	LTP212	ltpFR	11	n/a	n/a	n/a	n/a	n/a	n/a	n/a	n/a	n/a	n/a	n/a	n/a	n/a	n/a	n/a	n/a
1301.974	n/a	PROB	650987	n/a	LTP212	ltpFR	11	n/a	n/a	n/a	n/a	n/a	n/a	n/a	12	3	2	7	n/a	n/a	n/a	n/a	n/a
1303.522	n/a	PROB	651761	n/a	LTP212	ltpFR	11	n/a	n/a	n/a	n/a	n/a	n/a	n/a	19	8	6	5	n/a	n/a	n/a	n/a	n/a
1305.518	n/a	PROB	652759	n/a	LTP212	ltpFR	11	n/a	n/a	n/a	n/a	n/a	n/a	n/a	3	1	1	1	n/a	n/a	n/a	n/a	n/a
1306.55	n/a	PROB	653275	n/a	LTP212	ltpFR	11	n/a	n/a	n/a	n/a	n/a	n/a	n/a	18	7	5	6	n/a	n/a	n/a	n/a	n/a
1308.71	n/a	STOP	654355	n/a	LTP212	ltpFR	11	n/a	n/a	n/a	n/a	n/a	n/a	n/a	n/a	n/a	n/a	n/a	n/a	n/a	n/a	n/a	n/a
1309.93	n/a	WORD	654965	wordpools/wasnorm_wordpool_less_exclusions.txt	LTP212	ltpFR	11	5	1	NAPKIN	937	n/a	n/a	0	n/a	0	0	0	0.422607421875	0.5869140625	0	lower	amplitud.ttf
1312.942	n/a	START	656471	n/a	LTP212	ltpFR	11	n/a	n/a	n/a	n/a	n/a	n/a	n/a	n/a	n/a	n/a	n/a	n/a	n/a	n/a	n/a	n/a
1313.906	n/a	PROB	656953	n/a	LTP212	ltpFR	11	n/a	n/a	n/a	n/a	n/a	n/a	n/a	21	6	7	8	n/a	n/a	n/a	n/a	n/a
1316.438	n/a	PROB	658219	n/a	LTP212	ltpFR	11	n/a	n/a	n/a	n/a	n/a	n/a	n/a	15	4	9	2	n/a	n/a	n/a	n/a	n/a
1318.616	n/a	PROB	659308	n/a	LTP212	ltpFR	11	n/a	n/a	n/a	n/a	n/a	n/a	n/a	7	4	2	1	n/a	n/a	n/a	n/a	n/a
1320.214	n/a	STOP	660107	n/a	LTP212	ltpFR	11	n/a	n/a	n/a	n/a	n/a	n/a	n/a	n/a	n/a	n/a	n/a	n/a	n/a	n/a	n/a	n/a
1322.876	n/a	REC_START	661438	n/a	LTP212	ltpFR	11	5	n/a	n/a	n/a	n/a	n/a	n/a	n/a	0	0	0	n/a	n/a	n/a	n/a	n/a
1324.578	n/a	REC_WORD	662289	wordpools/wasnorm_wordpool_less_exclusions.txt	LTP212	ltpFR	11	5	1	LUNCH	849	n/a	n/a	0	n/a	0	0	0	n/a	n/a	n/a	n/a	n/a
1326.248	n/a	REC_WORD	663124	wordpools/wasnorm_wordpool_less_exclusions.txt	LTP212	ltpFR	11	5	1	NAPKIN	937	n/a	n/a	0	n/a	0	0	0	n/a	n/a	n/a	n/a	n/a
1328.404	n/a	REC_WORD	664202	wordpools/wasnorm_wordpool_less_exclusions.txt	LTP212	ltpFR	11	5	1	RUNNER	1218	n/a	n/a	1	n/a	0	0	0	n/a	n/a	n/a	n/a	n/a
1329.666	n/a	REC_WORD	664833	wordpools/wasnorm_wordpool_less_exclusions.txt	LTP212	ltpFR	11	5	1	SWIMMER	1420	n/a	n/a	1	n/a	0	0	0	n/a	n/a	n/a	n/a	n/a
1331.552	n/a	REC_WORD	665776	wordpools/wasnorm_wordpool_less_exclusions.txt	LTP212	ltpFR	11	5	1	ARENA	37	n/a	n/a	0	n/a	0	0	0	n/a	n/a	n/a	n/a	n/a
1336.346	n/a	REC_WORD	668173	wordpools/wasnorm_wordpool_less_exclusions.txt	LTP212	ltpFR	11	5	1	SUPERVISOR	1410	n/a	n/a	1	n/a	0	0	0	n/a	n/a	n/a	n/a	n/a
1347.166	n/a	REC_WORD	673583	wordpools/wasnorm_wordpool_less_exclusions.txt	LTP212	ltpFR	11	5	0	COMMANDER	354	n/a	n/a	1	n/a	0	0	0	n/a	n/a	n/a	n/a	n/a
1349.49	n/a	REC_WORD	674745	wordpools/wasnorm_wordpool_less_exclusions.txt	LTP212	ltpFR	11	5	1	TREAD	1499	n/a	n/a	0	n/a	0	0	0	n/a	n/a	n/a	n/a	n/a
1407.484	n/a	START	703742	n/a	LTP212	ltpFR	11	n/a	n/a	n/a	n/a	n/a	n/a	n/a	n/a	n/a	n/a	n/a	n/a	n/a	n/a	n/a	n/a
1408.998	n/a	PROB	704499	n/a	LTP212	ltpFR	11	n/a	n/a	n/a	n/a	n/a	n/a	n/a	15	8	1	6	n/a	n/a	n/a	n/a	n/a
1411.862	n/a	PROB	705931	n/a	LTP212	ltpFR	11	n/a	n/a	n/a	n/a	n/a	n/a	n/a	12	9	1	2	n/a	n/a	n/a	n/a	n/a
1413.176	n/a	PROB	706588	n/a	LTP212	ltpFR	11	n/a	n/a	n/a	n/a	n/a	n/a	n/a	13	4	8	1	n/a	n/a	n/a	n/a	n/a
1414.656	n/a	PROB	707328	n/a	LTP212	ltpFR	11	n/a	n/a	n/a	n/a	n/a	n/a	n/a	7	1	4	2	n/a	n/a	n/a	n/a	n/a
1416.554	n/a	PROB	708277	n/a	LTP212	ltpFR	11	n/a	n/a	n/a	n/a	n/a	n/a	n/a	13	3	8	2	n/a	n/a	n/a	n/a	n/a
1418.352	n/a	PROB	709176	n/a	LTP212	ltpFR	11	n/a	n/a	n/a	n/a	n/a	n/a	n/a	11	3	3	5	n/a	n/a	n/a	n/a	n/a
1420.134	n/a	PROB	710067	n/a	LTP212	ltpFR	11	n/a	n/a	n/a	n/a	n/a	n/a	n/a	16	9	2	5	n/a	n/a	n/a	n/a	n/a
1423.486	n/a	STOP	711743	n/a	LTP212	ltpFR	11	n/a	n/a	n/a	n/a	n/a	n/a	n/a	n/a	n/a	n/a	n/a	n/a	n/a	n/a	n/a	n/a
1424.444	n/a	WORD	712222	wordpools/wasnorm_wordpool_less_exclusions.txt	LTP212	ltpFR	11	6	1	RAISIN	1163	n/a	n/a	1	n/a	0	0	0	0.422607421875	0.5869140625	0	lower	amplitud.ttf
1427.456	n/a	START	713728	n/a	LTP212	ltpFR	11	n/a	n/a	n/a	n/a	n/a	n/a	n/a	n/a	n/a	n/a	n/a	n/a	n/a	n/a	n/a	n/a
1428.588	n/a	PROB	714294	n/a	LTP212	ltpFR	11	n/a	n/a	n/a	n/a	n/a	n/a	n/a	10	1	3	6	n/a	n/a	n/a	n/a	n/a
1430.336	n/a	PROB	715168	n/a	LTP212	ltpFR	11	n/a	n/a	n/a	n/a	n/a	n/a	n/a	25	9	7	9	n/a	n/a	n/a	n/a	n/a
1432.482	n/a	PROB	716241	n/a	LTP212	ltpFR	11	n/a	n/a	n/a	n/a	n/a	n/a	n/a	20	7	4	9	n/a	n/a	n/a	n/a	n/a
1435.826	n/a	PROB	717913	n/a	LTP212	ltpFR	11	n/a	n/a	n/a	n/a	n/a	n/a	n/a	19	5	7	7	n/a	n/a	n/a	n/a	n/a
1437.59	n/a	PROB	718795	n/a	LTP212	ltpFR	11	n/a	n/a	n/a	n/a	n/a	n/a	n/a	9	2	6	1	n/a	n/a	n/a	n/a	n/a
1438.956	n/a	PROB	719478	n/a	LTP212	ltpFR	11	n/a	n/a	n/a	n/a	n/a	n/a	n/a	22	9	4	9	n/a	n/a	n/a	n/a	n/a
1440.602	n/a	PROB	720301	n/a	LTP212	ltpFR	11	n/a	n/a	n/a	n/a	n/a	n/a	n/a	18	2	9	7	n/a	n/a	n/a	n/a	n/a
1442.888	n/a	STOP	721444	n/a	LTP212	ltpFR	11	n/a	n/a	n/a	n/a	n/a	n/a	n/a	n/a	n/a	n/a	n/a	n/a	n/a	n/a	n/a	n/a
1444.364	n/a	WORD	722182	wordpools/wasnorm_wordpool_less_exclusions.txt	LTP212	ltpFR	11	6	1	BIOLOGIST	128	n/a	n/a	1	n/a	0	0	0	0.422607421875	0.5869140625	0	lower	amplitud.ttf
1447.378	n/a	START	723689	n/a	LTP212	ltpFR	11	n/a	n/a	n/a	n/a	n/a	n/a	n/a	n/a	n/a	n/a	n/a	n/a	n/a	n/a	n/a	n/a
1448.442	n/a	PROB	724221	n/a	LTP212	ltpFR	11	n/a	n/a	n/a	n/a	n/a	n/a	n/a	16	5	9	2	n/a	n/a	n/a	n/a	n/a
1451.236	n/a	PROB	725618	n/a	LTP212	ltpFR	11	n/a	n/a	n/a	n/a	n/a	n/a	n/a	13	3	8	2	n/a	n/a	n/a	n/a	n/a
1454.598	n/a	PROB	727299	n/a	LTP212	ltpFR	11	n/a	n/a	n/a	n/a	n/a	n/a	n/a	14	1	4	9	n/a	n/a	n/a	n/a	n/a
1458.608	n/a	PROB	729304	n/a	LTP212	ltpFR	11	n/a	n/a	n/a	n/a	n/a	n/a	n/a	11	3	3	5	n/a	n/a	n/a	n/a	n/a
1460.458	n/a	PROB	730229	n/a	LTP212	ltpFR	11	n/a	n/a	n/a	n/a	n/a	n/a	n/a	10	5	1	4	n/a	n/a	n/a	n/a	n/a
1462.072	n/a	STOP	731036	n/a	LTP212	ltpFR	11	n/a	n/a	n/a	n/a	n/a	n/a	n/a	n/a	n/a	n/a	n/a	n/a	n/a	n/a	n/a	n/a
1464.5	n/a	WORD	732250	wordpools/wasnorm_wordpool_less_exclusions.txt	LTP212	ltpFR	11	6	1	DIAGRAM	456	n/a	n/a	0	n/a	0	0	0	0.422607421875	0.5869140625	0	lower	amplitud.ttf
1467.512	n/a	START	733756	n/a	LTP212	ltpFR	11	n/a	n/a	n/a	n/a	n/a	n/a	n/a	n/a	n/a	n/a	n/a	n/a	n/a	n/a	n/a	n/a
1468.378	n/a	PROB	734189	n/a	LTP212	ltpFR	11	n/a	n/a	n/a	n/a	n/a	n/a	n/a	16	3	5	8	n/a	n/a	n/a	n/a	n/a
1471.34	n/a	PROB	735670	n/a	LTP212	ltpFR	11	n/a	n/a	n/a	n/a	n/a	n/a	n/a	11	3	3	5	n/a	n/a	n/a	n/a	n/a
1473.52	n/a	PROB	736760	n/a	LTP212	ltpFR	11	n/a	n/a	n/a	n/a	n/a	n/a	n/a	13	2	6	5	n/a	n/a	n/a	n/a	n/a
1476.632	n/a	PROB	738316	n/a	LTP212	ltpFR	11	n/a	n/a	n/a	n/a	n/a	n/a	n/a	14	1	4	9	n/a	n/a	n/a	n/a	n/a
1478.43	n/a	PROB	739215	n/a	LTP212	ltpFR	11	n/a	n/a	n/a	n/a	n/a	n/a	n/a	14	4	5	5	n/a	n/a	n/a	n/a	n/a
1480.01	n/a	PROB	740005	n/a	LTP212	ltpFR	11	n/a	n/a	n/a	n/a	n/a	n/a	n/a	13	1	6	6	n/a	n/a	n/a	n/a	n/a
1483.512	n/a	STOP	741756	n/a	LTP212	ltpFR	11	n/a	n/a	n/a	n/a	n/a	n/a	n/a	n/a	n/a	n/a	n/a	n/a	n/a	n/a	n/a	n/a
1484.72	n/a	WORD	742360	wordpools/wasnorm_wordpool_less_exclusions.txt	LTP212	ltpFR	11	6	1	PASTRY	1022	n/a	n/a	0	n/a	0	0	0	0.422607421875	0.5869140625	0	lower	amplitud.ttf
1487.734	n/a	START	743867	n/a	LTP212	ltpFR	11	n/a	n/a	n/a	n/a	n/a	n/a	n/a	n/a	n/a	n/a	n/a	n/a	n/a	n/a	n/a	n/a
1488.666	n/a	PROB	744333	n/a	LTP212	ltpFR	11	n/a	n/a	n/a	n/a	n/a	n/a	n/a	14	8	1	5	n/a	n/a	n/a	n/a	n/a
1491.494	n/a	PROB	745747	n/a	LTP212	ltpFR	11	n/a	n/a	n/a	n/a	n/a	n/a	n/a	9	3	3	3	n/a	n/a	n/a	n/a	n/a
1492.676	n/a	PROB	746338	n/a	LTP212	ltpFR	11	n/a	n/a	n/a	n/a	n/a	n/a	n/a	14	1	4	9	n/a	n/a	n/a	n/a	n/a
1494.49	n/a	PROB	747245	n/a	LTP212	ltpFR	11	n/a	n/a	n/a	n/a	n/a	n/a	n/a	9	3	5	1	n/a	n/a	n/a	n/a	n/a
1497.052	n/a	PROB	748526	n/a	LTP212	ltpFR	11	n/a	n/a	n/a	n/a	n/a	n/a	n/a	11	3	3	5	n/a	n/a	n/a	n/a	n/a
1498.784	n/a	PROB	749392	n/a	LTP212	ltpFR	11	n/a	n/a	n/a	n/a	n/a	n/a	n/a	18	4	5	9	n/a	n/a	n/a	n/a	n/a
1501.046	n/a	PROB	750523	n/a	LTP212	ltpFR	11	n/a	n/a	n/a	n/a	n/a	n/a	n/a	11	2	3	6	n/a	n/a	n/a	n/a	n/a
1503.264	n/a	STOP	751632	n/a	LTP212	ltpFR	11	n/a	n/a	n/a	n/a	n/a	n/a	n/a	n/a	n/a	n/a	n/a	n/a	n/a	n/a	n/a	n/a
1504.742	n/a	WORD	752371	wordpools/wasnorm_wordpool_less_exclusions.txt	LTP212	ltpFR	11	6	1	CHEMIST	292	n/a	n/a	1	n/a	0	0	0	0.422607421875	0.5869140625	0	lower	amplitud.ttf
1507.754	n/a	START	753877	n/a	LTP212	ltpFR	11	n/a	n/a	n/a	n/a	n/a	n/a	n/a	n/a	n/a	n/a	n/a	n/a	n/a	n/a	n/a	n/a
1508.602	n/a	PROB	754301	n/a	LTP212	ltpFR	11	n/a	n/a	n/a	n/a	n/a	n/a	n/a	15	1	6	8	n/a	n/a	n/a	n/a	n/a
1511.064	n/a	PROB	755532	n/a	LTP212	ltpFR	11	n/a	n/a	n/a	n/a	n/a	n/a	n/a	17	9	3	5	n/a	n/a	n/a	n/a	n/a
1513.86	n/a	PROB	756930	n/a	LTP212	ltpFR	11	n/a	n/a	n/a	n/a	n/a	n/a	n/a	12	3	7	2	n/a	n/a	n/a	n/a	n/a
1523.754	n/a	STOP	761877	n/a	LTP212	ltpFR	11	n/a	n/a	n/a	n/a	n/a	n/a	n/a	n/a	n/a	n/a	n/a	n/a	n/a	n/a	n/a	n/a
1524.844	n/a	WORD	762422	wordpools/wasnorm_wordpool_less_exclusions.txt	LTP212	ltpFR	11	6	1	FIN	566	n/a	n/a	1	n/a	0	0	0	0.422607421875	0.5869140625	0	lower	amplitud.ttf
1527.856	n/a	START	763928	n/a	LTP212	ltpFR	11	n/a	n/a	n/a	n/a	n/a	n/a	n/a	n/a	n/a	n/a	n/a	n/a	n/a	n/a	n/a	n/a
1528.904	n/a	PROB	764452	n/a	LTP212	ltpFR	11	n/a	n/a	n/a	n/a	n/a	n/a	n/a	21	7	5	9	n/a	n/a	n/a	n/a	n/a
1531.718	n/a	PROB	765859	n/a	LTP212	ltpFR	11	n/a	n/a	n/a	n/a	n/a	n/a	n/a	15	2	8	5	n/a	n/a	n/a	n/a	n/a
1534.68	n/a	PROB	767340	n/a	LTP212	ltpFR	11	n/a	n/a	n/a	n/a	n/a	n/a	n/a	13	2	3	8	n/a	n/a	n/a	n/a	n/a
1537.192	n/a	PROB	768596	n/a	LTP212	ltpFR	11	n/a	n/a	n/a	n/a	n/a	n/a	n/a	16	2	6	8	n/a	n/a	n/a	n/a	n/a
1538.756	n/a	PROB	769378	n/a	LTP212	ltpFR	11	n/a	n/a	n/a	n/a	n/a	n/a	n/a	15	1	7	7	n/a	n/a	n/a	n/a	n/a
1540.222	n/a	PROB	770111	n/a	LTP212	ltpFR	11	n/a	n/a	n/a	n/a	n/a	n/a	n/a	14	9	3	2	n/a	n/a	n/a	n/a	n/a
1542.472	n/a	STOP	771236	n/a	LTP212	ltpFR	11	n/a	n/a	n/a	n/a	n/a	n/a	n/a	n/a	n/a	n/a	n/a	n/a	n/a	n/a	n/a	n/a
1544.98	n/a	WORD	772490	wordpools/wasnorm_wordpool_less_exclusions.txt	LTP212	ltpFR	11	6	1	MAMMAL	861	n/a	n/a	1	n/a	0	0	0	0.422607421875	0.5869140625	0	lower	amplitud.ttf
1547.994	n/a	START	773997	n/a	LTP212	ltpFR	11	n/a	n/a	n/a	n/a	n/a	n/a	n/a	n/a	n/a	n/a	n/a	n/a	n/a	n/a	n/a	n/a
1548.942	n/a	PROB	774471	n/a	LTP212	ltpFR	11	n/a	n/a	n/a	n/a	n/a	n/a	n/a	16	7	4	5	n/a	n/a	n/a	n/a	n/a
1551.356	n/a	PROB	775678	n/a	LTP212	ltpFR	11	n/a	n/a	n/a	n/a	n/a	n/a	n/a	14	6	3	5	n/a	n/a	n/a	n/a	n/a
1554.352	n/a	PROB	777176	n/a	LTP212	ltpFR	11	n/a	n/a	n/a	n/a	n/a	n/a	n/a	9	4	1	4	n/a	n/a	n/a	n/a	n/a
1555.582	n/a	PROB	777791	n/a	LTP212	ltpFR	11	n/a	n/a	n/a	n/a	n/a	n/a	n/a	20	6	5	9	n/a	n/a	n/a	n/a	n/a
1560.076	n/a	PROB	780038	n/a	LTP212	ltpFR	11	n/a	n/a	n/a	n/a	n/a	n/a	n/a	16	4	7	5	n/a	n/a	n/a	n/a	n/a
1563.114	n/a	STOP	781557	n/a	LTP212	ltpFR	11	n/a	n/a	n/a	n/a	n/a	n/a	n/a	n/a	n/a	n/a	n/a	n/a	n/a	n/a	n/a	n/a
1564.852	n/a	WORD	782426	wordpools/wasnorm_wordpool_less_exclusions.txt	LTP212	ltpFR	11	6	1	BAG	69	n/a	n/a	0	n/a	0	0	0	0.422607421875	0.5869140625	0	lower	amplitud.ttf
1567.864	n/a	START	783932	n/a	LTP212	ltpFR	11	n/a	n/a	n/a	n/a	n/a	n/a	n/a	n/a	n/a	n/a	n/a	n/a	n/a	n/a	n/a	n/a
1568.962	n/a	PROB	784481	n/a	LTP212	ltpFR	11	n/a	n/a	n/a	n/a	n/a	n/a	n/a	16	5	6	5	n/a	n/a	n/a	n/a	n/a
1570.876	n/a	PROB	785438	n/a	LTP212	ltpFR	11	n/a	n/a	n/a	n/a	n/a	n/a	n/a	19	8	4	5	n/a	n/a	n/a	n/a	n/a
1573.19	n/a	PROB	786595	n/a	LTP212	ltpFR	11	n/a	n/a	n/a	n/a	n/a	n/a	n/a	20	5	9	6	n/a	n/a	n/a	n/a	n/a
1577.034	n/a	PROB	788517	n/a	LTP212	ltpFR	11	n/a	n/a	n/a	n/a	n/a	n/a	n/a	11	5	2	4	n/a	n/a	n/a	n/a	n/a
1580.08	n/a	PROB	790040	n/a	LTP212	ltpFR	11	n/a	n/a	n/a	n/a	n/a	n/a	n/a	20	8	8	4	n/a	n/a	n/a	n/a	n/a
1583.864	n/a	STOP	791932	n/a	LTP212	ltpFR	11	n/a	n/a	n/a	n/a	n/a	n/a	n/a	n/a	n/a	n/a	n/a	n/a	n/a	n/a	n/a	n/a
1584.772	n/a	WORD	792386	wordpools/wasnorm_wordpool_less_exclusions.txt	LTP212	ltpFR	11	6	1	ESSAY	540	n/a	n/a	0	n/a	0	0	0	0.422607421875	0.5869140625	0	lower	amplitud.ttf
1587.786	n/a	START	793893	n/a	LTP212	ltpFR	11	n/a	n/a	n/a	n/a	n/a	n/a	n/a	n/a	n/a	n/a	n/a	n/a	n/a	n/a	n/a	n/a
1588.95	n/a	PROB	794475	n/a	LTP212	ltpFR	11	n/a	n/a	n/a	n/a	n/a	n/a	n/a	14	3	6	5	n/a	n/a	n/a	n/a	n/a
1590.98	n/a	PROB	795490	n/a	LTP212	ltpFR	11	n/a	n/a	n/a	n/a	n/a	n/a	n/a	10	3	2	5	n/a	n/a	n/a	n/a	n/a
1593.726	n/a	PROB	796863	n/a	LTP212	ltpFR	11	n/a	n/a	n/a	n/a	n/a	n/a	n/a	15	4	3	8	n/a	n/a	n/a	n/a	n/a
1595.806	n/a	PROB	797903	n/a	LTP212	ltpFR	11	n/a	n/a	n/a	n/a	n/a	n/a	n/a	10	2	6	2	n/a	n/a	n/a	n/a	n/a
1597.77	n/a	PROB	798885	n/a	LTP212	ltpFR	11	n/a	n/a	n/a	n/a	n/a	n/a	n/a	16	7	6	3	n/a	n/a	n/a	n/a	n/a
1600.2	n/a	PROB	800100	n/a	LTP212	ltpFR	11	n/a	n/a	n/a	n/a	n/a	n/a	n/a	17	5	5	7	n/a	n/a	n/a	n/a	n/a
1601.93	n/a	PROB	800965	n/a	LTP212	ltpFR	11	n/a	n/a	n/a	n/a	n/a	n/a	n/a	19	5	9	5	n/a	n/a	n/a	n/a	n/a
1603.674	n/a	STOP	801837	n/a	LTP212	ltpFR	11	n/a	n/a	n/a	n/a	n/a	n/a	n/a	n/a	n/a	n/a	n/a	n/a	n/a	n/a	n/a	n/a
1604.81	n/a	WORD	802405	wordpools/wasnorm_wordpool_less_exclusions.txt	LTP212	ltpFR	11	6	1	JELLY	755	n/a	n/a	0	n/a	0	0	0	0.422607421875	0.5869140625	0	lower	amplitud.ttf
1607.822	n/a	START	803911	n/a	LTP212	ltpFR	11	n/a	n/a	n/a	n/a	n/a	n/a	n/a	n/a	n/a	n/a	n/a	n/a	n/a	n/a	n/a	n/a
1608.92	n/a	PROB	804460	n/a	LTP212	ltpFR	11	n/a	n/a	n/a	n/a	n/a	n/a	n/a	21	6	8	7	n/a	n/a	n/a	n/a	n/a
1613.414	n/a	PROB	806707	n/a	LTP212	ltpFR	11	n/a	n/a	n/a	n/a	n/a	n/a	n/a	22	7	9	6	n/a	n/a	n/a	n/a	n/a
1617.008	n/a	PROB	808504	n/a	LTP212	ltpFR	11	n/a	n/a	n/a	n/a	n/a	n/a	n/a	22	6	8	8	n/a	n/a	n/a	n/a	n/a
1619.072	n/a	PROB	809536	n/a	LTP212	ltpFR	11	n/a	n/a	n/a	n/a	n/a	n/a	n/a	20	5	7	8	n/a	n/a	n/a	n/a	n/a
1622.818	n/a	STOP	811409	n/a	LTP212	ltpFR	11	n/a	n/a	n/a	n/a	n/a	n/a	n/a	n/a	n/a	n/a	n/a	n/a	n/a	n/a	n/a	n/a
1624.946	n/a	WORD	812473	wordpools/wasnorm_wordpool_less_exclusions.txt	LTP212	ltpFR	11	6	1	BANK	83	n/a	n/a	0	n/a	0	0	0	0.422607421875	0.5869140625	0	lower	amplitud.ttf
1627.96	n/a	START	813980	n/a	LTP212	ltpFR	11	n/a	n/a	n/a	n/a	n/a	n/a	n/a	n/a	n/a	n/a	n/a	n/a	n/a	n/a	n/a	n/a
1628.958	n/a	PROB	814479	n/a	LTP212	ltpFR	11	n/a	n/a	n/a	n/a	n/a	n/a	n/a	12	4	3	5	n/a	n/a	n/a	n/a	n/a
1632.836	n/a	PROB	816418	n/a	LTP212	ltpFR	11	n/a	n/a	n/a	n/a	n/a	n/a	n/a	22	9	8	5	n/a	n/a	n/a	n/a	n/a
1636.68	n/a	PROB	818340	n/a	LTP212	ltpFR	11	n/a	n/a	n/a	n/a	n/a	n/a	n/a	16	8	5	3	n/a	n/a	n/a	n/a	n/a
1638.792	n/a	PROB	819396	n/a	LTP212	ltpFR	11	n/a	n/a	n/a	n/a	n/a	n/a	n/a	4	1	2	1	n/a	n/a	n/a	n/a	n/a
1640.058	n/a	PROB	820029	n/a	LTP212	ltpFR	11	n/a	n/a	n/a	n/a	n/a	n/a	n/a	23	7	9	7	n/a	n/a	n/a	n/a	n/a
1643.082	n/a	STOP	821541	n/a	LTP212	ltpFR	11	n/a	n/a	n/a	n/a	n/a	n/a	n/a	n/a	n/a	n/a	n/a	n/a	n/a	n/a	n/a	n/a
1644.918	n/a	WORD	822459	wordpools/wasnorm_wordpool_less_exclusions.txt	LTP212	ltpFR	11	6	1	CAVE	263	n/a	n/a	0	n/a	0	0	0	0.422607421875	0.5869140625	0	lower	amplitud.ttf
1647.93	n/a	START	823965	n/a	LTP212	ltpFR	11	n/a	n/a	n/a	n/a	n/a	n/a	n/a	n/a	n/a	n/a	n/a	n/a	n/a	n/a	n/a	n/a
1648.744	n/a	PROB	824372	n/a	LTP212	ltpFR	11	n/a	n/a	n/a	n/a	n/a	n/a	n/a	15	9	7	1	n/a	n/a	n/a	n/a	n/a
1650.608	n/a	PROB	825304	n/a	LTP212	ltpFR	11	n/a	n/a	n/a	n/a	n/a	n/a	n/a	21	7	8	6	n/a	n/a	n/a	n/a	n/a
1657.35	n/a	PROB	828675	n/a	LTP212	ltpFR	11	n/a	n/a	n/a	n/a	n/a	n/a	n/a	18	9	1	8	n/a	n/a	n/a	n/a	n/a
1659.364	n/a	PROB	829682	n/a	LTP212	ltpFR	11	n/a	n/a	n/a	n/a	n/a	n/a	n/a	18	5	9	4	n/a	n/a	n/a	n/a	n/a
1663.928	n/a	STOP	831964	n/a	LTP212	ltpFR	11	n/a	n/a	n/a	n/a	n/a	n/a	n/a	n/a	n/a	n/a	n/a	n/a	n/a	n/a	n/a	n/a
1665.154	n/a	WORD	832577	wordpools/wasnorm_wordpool_less_exclusions.txt	LTP212	ltpFR	11	6	1	SEAL	1262	n/a	n/a	1	n/a	0	0	0	0.422607421875	0.5869140625	0	lower	amplitud.ttf
1668.166	n/a	START	834083	n/a	LTP212	ltpFR	11	n/a	n/a	n/a	n/a	n/a	n/a	n/a	n/a	n/a	n/a	n/a	n/a	n/a	n/a	n/a	n/a
1669.282	n/a	PROB	834641	n/a	LTP212	ltpFR	11	n/a	n/a	n/a	n/a	n/a	n/a	n/a	18	3	8	7	n/a	n/a	n/a	n/a	n/a
1670.978	n/a	PROB	835489	n/a	LTP212	ltpFR	11	n/a	n/a	n/a	n/a	n/a	n/a	n/a	15	6	2	7	n/a	n/a	n/a	n/a	n/a
1674.224	n/a	PROB	837112	n/a	LTP212	ltpFR	11	n/a	n/a	n/a	n/a	n/a	n/a	n/a	13	4	1	8	n/a	n/a	n/a	n/a	n/a
1676.92	n/a	PROB	838460	n/a	LTP212	ltpFR	11	n/a	n/a	n/a	n/a	n/a	n/a	n/a	16	7	1	8	n/a	n/a	n/a	n/a	n/a
1678.684	n/a	PROB	839342	n/a	LTP212	ltpFR	11	n/a	n/a	n/a	n/a	n/a	n/a	n/a	23	7	7	9	n/a	n/a	n/a	n/a	n/a
1681.046	n/a	PROB	840523	n/a	LTP212	ltpFR	11	n/a	n/a	n/a	n/a	n/a	n/a	n/a	5	1	2	2	n/a	n/a	n/a	n/a	n/a
1684.166	n/a	STOP	842083	n/a	LTP212	ltpFR	11	n/a	n/a	n/a	n/a	n/a	n/a	n/a	n/a	n/a	n/a	n/a	n/a	n/a	n/a	n/a	n/a
1685.224	n/a	WORD	842612	wordpools/wasnorm_wordpool_less_exclusions.txt	LTP212	ltpFR	11	6	1	JEANS	752	n/a	n/a	0	n/a	0	0	0	0.422607421875	0.5869140625	0	lower	amplitud.ttf
1688.236	n/a	START	844118	n/a	LTP212	ltpFR	11	n/a	n/a	n/a	n/a	n/a	n/a	n/a	n/a	n/a	n/a	n/a	n/a	n/a	n/a	n/a	n/a
1689.352	n/a	PROB	844676	n/a	LTP212	ltpFR	11	n/a	n/a	n/a	n/a	n/a	n/a	n/a	12	2	1	9	n/a	n/a	n/a	n/a	n/a
1690.85	n/a	PROB	845425	n/a	LTP212	ltpFR	11	n/a	n/a	n/a	n/a	n/a	n/a	n/a	15	6	8	1	n/a	n/a	n/a	n/a	n/a
1693.162	n/a	PROB	846581	n/a	LTP212	ltpFR	11	n/a	n/a	n/a	n/a	n/a	n/a	n/a	19	6	4	9	n/a	n/a	n/a	n/a	n/a
1695.076	n/a	PROB	847538	n/a	LTP212	ltpFR	11	n/a	n/a	n/a	n/a	n/a	n/a	n/a	8	4	2	2	n/a	n/a	n/a	n/a	n/a
1696.658	n/a	PROB	848329	n/a	LTP212	ltpFR	11	n/a	n/a	n/a	n/a	n/a	n/a	n/a	10	7	2	1	n/a	n/a	n/a	n/a	n/a
1698.87	n/a	PROB	849435	n/a	LTP212	ltpFR	11	n/a	n/a	n/a	n/a	n/a	n/a	n/a	14	6	1	7	n/a	n/a	n/a	n/a	n/a
1700.868	n/a	PROB	850434	n/a	LTP212	ltpFR	11	n/a	n/a	n/a	n/a	n/a	n/a	n/a	18	6	7	5	n/a	n/a	n/a	n/a	n/a
1703.692	n/a	STOP	851846	n/a	LTP212	ltpFR	11	n/a	n/a	n/a	n/a	n/a	n/a	n/a	n/a	n/a	n/a	n/a	n/a	n/a	n/a	n/a	n/a
1705.062	n/a	WORD	852531	wordpools/wasnorm_wordpool_less_exclusions.txt	LTP212	ltpFR	11	6	1	DENIM	446	n/a	n/a	0	n/a	0	0	0	0.422607421875	0.5869140625	0	lower	amplitud.ttf
1708.074	n/a	START	854037	n/a	LTP212	ltpFR	11	n/a	n/a	n/a	n/a	n/a	n/a	n/a	n/a	n/a	n/a	n/a	n/a	n/a	n/a	n/a	n/a
1709.272	n/a	PROB	854636	n/a	LTP212	ltpFR	11	n/a	n/a	n/a	n/a	n/a	n/a	n/a	14	9	2	3	n/a	n/a	n/a	n/a	n/a
1711.934	n/a	PROB	855967	n/a	LTP212	ltpFR	11	n/a	n/a	n/a	n/a	n/a	n/a	n/a	8	2	3	3	n/a	n/a	n/a	n/a	n/a
1713.832	n/a	PROB	856916	n/a	LTP212	ltpFR	11	n/a	n/a	n/a	n/a	n/a	n/a	n/a	16	6	7	3	n/a	n/a	n/a	n/a	n/a
1715.446	n/a	PROB	857723	n/a	LTP212	ltpFR	11	n/a	n/a	n/a	n/a	n/a	n/a	n/a	15	9	1	5	n/a	n/a	n/a	n/a	n/a
1716.944	n/a	PROB	858472	n/a	LTP212	ltpFR	11	n/a	n/a	n/a	n/a	n/a	n/a	n/a	13	6	5	2	n/a	n/a	n/a	n/a	n/a
1718.758	n/a	PROB	859379	n/a	LTP212	ltpFR	11	n/a	n/a	n/a	n/a	n/a	n/a	n/a	4	1	1	2	n/a	n/a	n/a	n/a	n/a
1719.972	n/a	PROB	859986	n/a	LTP212	ltpFR	11	n/a	n/a	n/a	n/a	n/a	n/a	n/a	19	9	8	2	n/a	n/a	n/a	n/a	n/a
1721.354	n/a	PROB	860677	n/a	LTP212	ltpFR	11	n/a	n/a	n/a	n/a	n/a	n/a	n/a	22	7	6	7	n/a	n/a	n/a	n/a	n/a
1723.028	n/a	STOP	861514	n/a	LTP212	ltpFR	11	n/a	n/a	n/a	n/a	n/a	n/a	n/a	n/a	n/a	n/a	n/a	n/a	n/a	n/a	n/a	n/a
1725.182	n/a	WORD	862591	wordpools/wasnorm_wordpool_less_exclusions.txt	LTP212	ltpFR	11	6	1	MAILMAN	858	n/a	n/a	1	n/a	0	0	0	0.422607421875	0.5869140625	0	lower	amplitud.ttf
1728.194	n/a	START	864097	n/a	LTP212	ltpFR	11	n/a	n/a	n/a	n/a	n/a	n/a	n/a	n/a	n/a	n/a	n/a	n/a	n/a	n/a	n/a	n/a
1729.176	n/a	PROB	864588	n/a	LTP212	ltpFR	11	n/a	n/a	n/a	n/a	n/a	n/a	n/a	18	3	7	8	n/a	n/a	n/a	n/a	n/a
1731.456	n/a	PROB	865728	n/a	LTP212	ltpFR	11	n/a	n/a	n/a	n/a	n/a	n/a	n/a	16	9	2	5	n/a	n/a	n/a	n/a	n/a
1733.354	n/a	PROB	866677	n/a	LTP212	ltpFR	11	n/a	n/a	n/a	n/a	n/a	n/a	n/a	15	6	4	5	n/a	n/a	n/a	n/a	n/a
1735.3	n/a	PROB	867650	n/a	LTP212	ltpFR	11	n/a	n/a	n/a	n/a	n/a	n/a	n/a	27	9	9	9	n/a	n/a	n/a	n/a	n/a
1737.83	n/a	PROB	868915	n/a	LTP212	ltpFR	11	n/a	n/a	n/a	n/a	n/a	n/a	n/a	9	5	2	2	n/a	n/a	n/a	n/a	n/a
1739.412	n/a	PROB	869706	n/a	LTP212	ltpFR	11	n/a	n/a	n/a	n/a	n/a	n/a	n/a	16	6	4	6	n/a	n/a	n/a	n/a	n/a
1744.194	n/a	STOP	872097	n/a	LTP212	ltpFR	11	n/a	n/a	n/a	n/a	n/a	n/a	n/a	n/a	n/a	n/a	n/a	n/a	n/a	n/a	n/a	n/a
1746.258	n/a	REC_START	873129	n/a	LTP212	ltpFR	11	6	n/a	n/a	n/a	n/a	n/a	n/a	n/a	0	0	0	n/a	n/a	n/a	n/a	n/a
1748.124	n/a	REC_WORD	874062	wordpools/wasnorm_wordpool_less_exclusions.txt	LTP212	ltpFR	11	6	1	MAILMAN	858	n/a	n/a	1	n/a	0	0	0	n/a	n/a	n/a	n/a	n/a
1749.686	n/a	REC_WORD	874843	wordpools/wasnorm_wordpool_less_exclusions.txt	LTP212	ltpFR	11	6	1	JEANS	752	n/a	n/a	0	n/a	0	0	0	n/a	n/a	n/a	n/a	n/a
1751.332	n/a	REC_WORD	875666	wordpools/wasnorm_wordpool_less_exclusions.txt	LTP212	ltpFR	11	6	1	DENIM	446	n/a	n/a	0	n/a	0	0	0	n/a	n/a	n/a	n/a	n/a
1752.404	n/a	REC_WORD	876202	wordpools/wasnorm_wordpool_less_exclusions.txt	LTP212	ltpFR	11	6	1	FIN	566	n/a	n/a	1	n/a	0	0	0	n/a	n/a	n/a	n/a	n/a
1753.866	n/a	REC_WORD	876933	wordpools/wasnorm_wordpool_less_exclusions.txt	LTP212	ltpFR	11	6	1	MAMMAL	861	n/a	n/a	1	n/a	0	0	0	n/a	n/a	n/a	n/a	n/a
1755.288	n/a	REC_WORD	877644	wordpools/wasnorm_wordpool_less_exclusions.txt	LTP212	ltpFR	11	6	1	CHEMIST	292	n/a	n/a	1	n/a	0	0	0	n/a	n/a	n/a	n/a	n/a
1756.73	n/a	REC_WORD	878365	wordpools/wasnorm_wordpool_less_exclusions.txt	LTP212	ltpFR	11	6	1	BIOLOGIST	128	n/a	n/a	1	n/a	0	0	0	n/a	n/a	n/a	n/a	n/a
1764.168	n/a	REC_WORD	882084	wordpools/wasnorm_wordpool_less_exclusions.txt	LTP212	ltpFR	11	6	1	LUNCH	849	n/a	n/a	0	n/a	0	0	0	n/a	n/a	n/a	n/a	n/a
1766.308	n/a	REC_WORD	883154	wordpools/wasnorm_wordpool_less_exclusions.txt	LTP212	ltpFR	11	6	1	NAPKIN	937	n/a	n/a	0	n/a	0	0	0	n/a	n/a	n/a	n/a	n/a
1860.714	n/a	WORD	930357	wordpools/wasnorm_wordpool_less_exclusions.txt	LTP212	ltpFR	11	7	1	RING	1193	n/a	n/a	0	n/a	0	0	0	0.422607421875	0.5869140625	0	lower	amplitud.ttf
1864.592	n/a	WORD	932296	wordpools/wasnorm_wordpool_less_exclusions.txt	LTP212	ltpFR	11	7	1	TABLET	1427	n/a	n/a	0	n/a	0	0	0	0.422607421875	0.5869140625	0	lower	amplitud.ttf
1868.768	n/a	WORD	934384	wordpools/wasnorm_wordpool_less_exclusions.txt	LTP212	ltpFR	11	7	1	ROCK	1201	n/a	n/a	0	n/a	0	0	0	0.422607421875	0.5869140625	0	lower	amplitud.ttf
1872.714	n/a	WORD	936357	wordpools/wasnorm_wordpool_less_exclusions.txt	LTP212	ltpFR	11	7	1	MOAT	903	n/a	n/a	0	n/a	0	0	0	0.422607421875	0.5869140625	0	lower	amplitud.ttf
1876.824	n/a	WORD	938412	wordpools/wasnorm_wordpool_less_exclusions.txt	LTP212	ltpFR	11	7	0	PEN	1041	n/a	n/a	0	n/a	0	0	0	0.57763671875	0.412841796875	1	upper	zerothre.ttf
1881.034	n/a	WORD	940517	wordpools/wasnorm_wordpool_less_exclusions.txt	LTP212	ltpFR	11	7	0	CROW	414	n/a	n/a	0	n/a	0	0	0	0.57763671875	0.412841796875	1	upper	zerothre.ttf
1885.012	n/a	WORD	942506	wordpools/wasnorm_wordpool_less_exclusions.txt	LTP212	ltpFR	11	7	0	PIGEON	1065	n/a	n/a	0	n/a	0	0	0	0.57763671875	0.412841796875	1	upper	zerothre.ttf
1889.088	n/a	WORD	944544	wordpools/wasnorm_wordpool_less_exclusions.txt	LTP212	ltpFR	11	7	0	CREEK	404	n/a	n/a	1	n/a	0	0	0	0.57763671875	0.412841796875	1	upper	zerothre.ttf
1893.266	n/a	WORD	946633	wordpools/wasnorm_wordpool_less_exclusions.txt	LTP212	ltpFR	11	7	0	STORE	1387	n/a	n/a	1	n/a	0	0	0	0.57763671875	0.412841796875	1	upper	zerothre.ttf
1897.344	n/a	WORD	948672	wordpools/wasnorm_wordpool_less_exclusions.txt	LTP212	ltpFR	11	7	0	BANQUET	86	n/a	n/a	1	n/a	0	0	0	0.57763671875	0.412841796875	1	upper	zerothre.ttf
1901.254	n/a	WORD	950627	wordpools/wasnorm_wordpool_less_exclusions.txt	LTP212	ltpFR	11	7	1	STOMACH	1384	n/a	n/a	1	n/a	0	0	0	0.422607421875	0.5869140625	0	lower	amplitud.ttf
1905.466	n/a	WORD	952733	wordpools/wasnorm_wordpool_less_exclusions.txt	LTP212	ltpFR	11	7	1	TICKET	1464	n/a	n/a	0	n/a	0	0	0	0.422607421875	0.5869140625	0	lower	amplitud.ttf
1909.36	n/a	WORD	954680	wordpools/wasnorm_wordpool_less_exclusions.txt	LTP212	ltpFR	11	7	0	FILM	565	n/a	n/a	0	n/a	0	0	0	0.57763671875	0.412841796875	1	upper	zerothre.ttf
1913.304	n/a	WORD	956652	wordpools/wasnorm_wordpool_less_exclusions.txt	LTP212	ltpFR	11	7	0	CHEF	290	n/a	n/a	1	n/a	0	0	0	0.57763671875	0.412841796875	1	upper	zerothre.ttf
1917.514	n/a	WORD	958757	wordpools/wasnorm_wordpool_less_exclusions.txt	LTP212	ltpFR	11	7	1	PRINCESS	1125	n/a	n/a	1	n/a	0	0	0	0.422607421875	0.5869140625	0	lower	amplitud.ttf
1921.558	n/a	WORD	960779	wordpools/wasnorm_wordpool_less_exclusions.txt	LTP212	ltpFR	11	7	1	EMERALD	528	n/a	n/a	0	n/a	0	0	0	0.422607421875	0.5869140625	0	lower	amplitud.ttf
1924.57	n/a	START	962285	n/a	LTP212	ltpFR	11	n/a	n/a	n/a	n/a	n/a	n/a	n/a	n/a	n/a	n/a	n/a	n/a	n/a	n/a	n/a	n/a
1925.702	n/a	PROB	962851	n/a	LTP212	ltpFR	11	n/a	n/a	n/a	n/a	n/a	n/a	n/a	20	7	8	5	n/a	n/a	n/a	n/a	n/a
1929.196	n/a	PROB	964598	n/a	LTP212	ltpFR	11	n/a	n/a	n/a	n/a	n/a	n/a	n/a	12	2	9	1	n/a	n/a	n/a	n/a	n/a
1931.006	n/a	STOP	965503	n/a	LTP212	ltpFR	11	n/a	n/a	n/a	n/a	n/a	n/a	n/a	n/a	n/a	n/a	n/a	n/a	n/a	n/a	n/a	n/a
1934.474	n/a	REC_START	967237	n/a	LTP212	ltpFR	11	7	n/a	n/a	n/a	n/a	n/a	n/a	n/a	0	0	0	n/a	n/a	n/a	n/a	n/a
1935.376	n/a	REC_WORD	967688	wordpools/wasnorm_wordpool_less_exclusions.txt	LTP212	ltpFR	11	7	1	PRINCESS	1125	n/a	n/a	1	n/a	0	0	0	n/a	n/a	n/a	n/a	n/a
1936.558	n/a	REC_WORD	968279	wordpools/wasnorm_wordpool_less_exclusions.txt	LTP212	ltpFR	11	7	0	BANQUET	86	n/a	n/a	1	n/a	0	0	0	n/a	n/a	n/a	n/a	n/a
1938.24	n/a	REC_WORD	969120	wordpools/wasnorm_wordpool_less_exclusions.txt	LTP212	ltpFR	11	7	1	EMERALD	528	n/a	n/a	0	n/a	0	0	0	n/a	n/a	n/a	n/a	n/a
1939.298	n/a	REC_WORD	969649	wordpools/wasnorm_wordpool_less_exclusions.txt	LTP212	ltpFR	11	7	1	STOMACH	1384	n/a	n/a	1	n/a	0	0	0	n/a	n/a	n/a	n/a	n/a
1940.888	n/a	REC_WORD	970444	wordpools/wasnorm_wordpool_less_exclusions.txt	LTP212	ltpFR	11	7	0	CHEF	290	n/a	n/a	1	n/a	0	0	0	n/a	n/a	n/a	n/a	n/a
1944.086	n/a	REC_WORD	972043	wordpools/wasnorm_wordpool_less_exclusions.txt	LTP212	ltpFR	11	7	0	CROW	414	n/a	n/a	0	n/a	0	0	0	n/a	n/a	n/a	n/a	n/a
1945.178	n/a	REC_WORD	972589	wordpools/wasnorm_wordpool_less_exclusions.txt	LTP212	ltpFR	11	7	0	PIGEON	1065	n/a	n/a	0	n/a	0	0	0	n/a	n/a	n/a	n/a	n/a
1956.124	n/a	REC_WORD	978062	wordpools/wasnorm_wordpool_less_exclusions.txt	LTP212	ltpFR	11	7	1	MOAT	903	n/a	n/a	0	n/a	0	0	0	n/a	n/a	n/a	n/a	n/a
1960.784	n/a	REC_WORD	980392	wordpools/wasnorm_wordpool_less_exclusions.txt	LTP212	ltpFR	11	7	1	ROCK	1201	n/a	n/a	0	n/a	0	0	0	n/a	n/a	n/a	n/a	n/a
1964.206	n/a	REC_WORD	982103	wordpools/wasnorm_wordpool_less_exclusions.txt	LTP212	ltpFR	11	7	0	PEN	1041	n/a	n/a	0	n/a	0	0	0	n/a	n/a	n/a	n/a	n/a
2085.88	n/a	WORD	1042940	wordpools/wasnorm_wordpool_less_exclusions.txt	LTP212	ltpFR	11	8	0	TUB	1514	n/a	n/a	1	n/a	0	0	0	0.57763671875	0.412841796875	1	upper	zerothre.ttf
2090.042	n/a	WORD	1045021	wordpools/wasnorm_wordpool_less_exclusions.txt	LTP212	ltpFR	11	8	0	MATCH	878	n/a	n/a	0	n/a	0	0	0	0.57763671875	0.412841796875	1	upper	zerothre.ttf
2094.002	n/a	WORD	1047001	wordpools/wasnorm_wordpool_less_exclusions.txt	LTP212	ltpFR	11	8	0	CUB	419	n/a	n/a	1	n/a	0	0	0	0.57763671875	0.412841796875	1	upper	zerothre.ttf
2097.88	n/a	WORD	1048940	wordpools/wasnorm_wordpool_less_exclusions.txt	LTP212	ltpFR	11	8	0	KLEENEX	782	n/a	n/a	0	n/a	0	0	0	0.57763671875	0.412841796875	1	upper	zerothre.ttf
2101.842	n/a	WORD	1050921	wordpools/wasnorm_wordpool_less_exclusions.txt	LTP212	ltpFR	11	8	0	CONTRACT	368	n/a	n/a	0	n/a	0	0	0	0.57763671875	0.412841796875	1	upper	zerothre.ttf
2105.768	n/a	WORD	1052884	wordpools/wasnorm_wordpool_less_exclusions.txt	LTP212	ltpFR	11	8	0	NEWSSTAND	949	n/a	n/a	1	n/a	0	0	0	0.57763671875	0.412841796875	1	upper	zerothre.ttf
2109.83	n/a	WORD	1054915	wordpools/wasnorm_wordpool_less_exclusions.txt	LTP212	ltpFR	11	8	0	PLUM	1090	n/a	n/a	0	n/a	0	0	0	0.57763671875	0.412841796875	1	upper	zerothre.ttf
2113.974	n/a	WORD	1056987	wordpools/wasnorm_wordpool_less_exclusions.txt	LTP212	ltpFR	11	8	0	BOUQUET	157	n/a	n/a	0	n/a	0	0	0	0.57763671875	0.412841796875	1	upper	zerothre.ttf
2117.9	n/a	WORD	1058950	wordpools/wasnorm_wordpool_less_exclusions.txt	LTP212	ltpFR	11	8	0	GRASS	655	n/a	n/a	0	n/a	0	0	0	0.57763671875	0.412841796875	1	upper	zerothre.ttf
2121.912	n/a	WORD	1060956	wordpools/wasnorm_wordpool_less_exclusions.txt	LTP212	ltpFR	11	8	0	ICEBERG	731	n/a	n/a	1	n/a	0	0	0	0.57763671875	0.412841796875	1	upper	zerothre.ttf
2125.872	n/a	WORD	1062936	wordpools/wasnorm_wordpool_less_exclusions.txt	LTP212	ltpFR	11	8	0	BANDANNA	80	n/a	n/a	0	n/a	0	0	0	0.57763671875	0.412841796875	1	upper	zerothre.ttf
2129.95	n/a	WORD	1064975	wordpools/wasnorm_wordpool_less_exclusions.txt	LTP212	ltpFR	11	8	0	MEADOW	881	n/a	n/a	1	n/a	0	0	0	0.57763671875	0.412841796875	1	upper	zerothre.ttf
2134.026	n/a	WORD	1067013	wordpools/wasnorm_wordpool_less_exclusions.txt	LTP212	ltpFR	11	8	0	FLEA	577	n/a	n/a	0	n/a	0	0	0	0.57763671875	0.412841796875	1	upper	zerothre.ttf
2138.104	n/a	WORD	1069052	wordpools/wasnorm_wordpool_less_exclusions.txt	LTP212	ltpFR	11	8	0	SHED	1277	n/a	n/a	1	n/a	0	0	0	0.57763671875	0.412841796875	1	upper	zerothre.ttf
2142.298	n/a	WORD	1071149	wordpools/wasnorm_wordpool_less_exclusions.txt	LTP212	ltpFR	11	8	0	PENGUIN	1044	n/a	n/a	1	n/a	0	0	0	0.57763671875	0.412841796875	1	upper	zerothre.ttf
2146.31	n/a	WORD	1073155	wordpools/wasnorm_wordpool_less_exclusions.txt	LTP212	ltpFR	11	8	0	PARROT	1015	n/a	n/a	0	n/a	0	0	0	0.57763671875	0.412841796875	1	upper	zerothre.ttf
2149.322	n/a	START	1074661	n/a	LTP212	ltpFR	11	n/a	n/a	n/a	n/a	n/a	n/a	n/a	n/a	n/a	n/a	n/a	n/a	n/a	n/a	n/a	n/a
2150.354	n/a	PROB	1075177	n/a	LTP212	ltpFR	11	n/a	n/a	n/a	n/a	n/a	n/a	n/a	19	9	7	3	n/a	n/a	n/a	n/a	n/a
2152.482	n/a	PROB	1076241	n/a	LTP212	ltpFR	11	n/a	n/a	n/a	n/a	n/a	n/a	n/a	17	1	7	9	n/a	n/a	n/a	n/a	n/a
2154.68	n/a	PROB	1077340	n/a	LTP212	ltpFR	11	n/a	n/a	n/a	n/a	n/a	n/a	n/a	12	4	4	4	n/a	n/a	n/a	n/a	n/a
2155.994	n/a	PROB	1077997	n/a	LTP212	ltpFR	11	n/a	n/a	n/a	n/a	n/a	n/a	n/a	14	4	6	4	n/a	n/a	n/a	n/a	n/a
2157.426	n/a	PROB	1078713	n/a	LTP212	ltpFR	11	n/a	n/a	n/a	n/a	n/a	n/a	n/a	7	1	3	3	n/a	n/a	n/a	n/a	n/a
2158.756	n/a	PROB	1079378	n/a	LTP212	ltpFR	11	n/a	n/a	n/a	n/a	n/a	n/a	n/a	16	6	8	2	n/a	n/a	n/a	n/a	n/a
2160.736	n/a	PROB	1080368	n/a	LTP212	ltpFR	11	n/a	n/a	n/a	n/a	n/a	n/a	n/a	11	2	3	6	n/a	n/a	n/a	n/a	n/a
2165.322	n/a	STOP	1082661	n/a	LTP212	ltpFR	11	n/a	n/a	n/a	n/a	n/a	n/a	n/a	n/a	n/a	n/a	n/a	n/a	n/a	n/a	n/a	n/a
2167.078	n/a	REC_START	1083539	n/a	LTP212	ltpFR	11	8	n/a	n/a	n/a	n/a	n/a	n/a	n/a	0	0	0	n/a	n/a	n/a	n/a	n/a
2167.598	n/a	REC_WORD	1083799	wordpools/wasnorm_wordpool_less_exclusions.txt	LTP212	ltpFR	11	8	0	SHED	1277	n/a	n/a	1	n/a	0	0	0	n/a	n/a	n/a	n/a	n/a
2168.85	n/a	REC_WORD	1084425	wordpools/wasnorm_wordpool_less_exclusions.txt	LTP212	ltpFR	11	8	0	PENGUIN	1044	n/a	n/a	1	n/a	0	0	0	n/a	n/a	n/a	n/a	n/a
2170.686	n/a	REC_WORD	1085343	wordpools/wasnorm_wordpool_less_exclusions.txt	LTP212	ltpFR	11	8	0	PARROT	1015	n/a	n/a	0	n/a	0	0	0	n/a	n/a	n/a	n/a	n/a
2177.444	n/a	REC_WORD	1088722	wordpools/wasnorm_wordpool_less_exclusions.txt	LTP212	ltpFR	11	8	0	MATCH	878	n/a	n/a	0	n/a	0	0	0	n/a	n/a	n/a	n/a	n/a
2180.354	n/a	REC_WORD	1090177	wordpools/wasnorm_wordpool_less_exclusions.txt	LTP212	ltpFR	11	8	0	BANDANNA	80	n/a	n/a	0	n/a	0	0	0	n/a	n/a	n/a	n/a	n/a
2181.894	n/a	REC_WORD	1090947	wordpools/wasnorm_wordpool_less_exclusions.txt	LTP212	ltpFR	11	8	0	BOUQUET	157	n/a	n/a	0	n/a	0	0	0	n/a	n/a	n/a	n/a	n/a
2203.616	n/a	REC_WORD	1101808	wordpools/wasnorm_wordpool_less_exclusions.txt	LTP212	ltpFR	11	8	0	FLEA	577	n/a	n/a	0	n/a	0	0	0	n/a	n/a	n/a	n/a	n/a
2252.086	n/a	WORD	1126043	wordpools/wasnorm_wordpool_less_exclusions.txt	LTP212	ltpFR	11	9	0	PELT	1040	n/a	n/a	1	n/a	0	0	0	0.57763671875	0.412841796875	1	upper	zerothre.ttf
2256.23	n/a	WORD	1128115	wordpools/wasnorm_wordpool_less_exclusions.txt	LTP212	ltpFR	11	9	0	DART	440	n/a	n/a	0	n/a	0	0	0	0.57763671875	0.412841796875	1	upper	zerothre.ttf
2260.324	n/a	WORD	1130162	wordpools/wasnorm_wordpool_less_exclusions.txt	LTP212	ltpFR	11	9	0	COMET	353	n/a	n/a	1	n/a	0	0	0	0.57763671875	0.412841796875	1	upper	zerothre.ttf
2264.534	n/a	WORD	1132267	wordpools/wasnorm_wordpool_less_exclusions.txt	LTP212	ltpFR	11	9	0	PAINTER	1004	n/a	n/a	1	n/a	0	0	0	0.57763671875	0.412841796875	1	upper	zerothre.ttf
2268.628	n/a	WORD	1134314	wordpools/wasnorm_wordpool_less_exclusions.txt	LTP212	ltpFR	11	9	0	TOWER	1490	n/a	n/a	1	n/a	0	0	0	0.57763671875	0.412841796875	1	upper	zerothre.ttf
2272.804	n/a	WORD	1136402	wordpools/wasnorm_wordpool_less_exclusions.txt	LTP212	ltpFR	11	9	0	ROOMMATE	1207	n/a	n/a	1	n/a	0	0	0	0.57763671875	0.412841796875	1	upper	zerothre.ttf
2276.682	n/a	WORD	1138341	wordpools/wasnorm_wordpool_less_exclusions.txt	LTP212	ltpFR	11	9	0	FOE	587	n/a	n/a	1	n/a	0	0	0	0.57763671875	0.412841796875	1	upper	zerothre.ttf
2280.61	n/a	WORD	1140305	wordpools/wasnorm_wordpool_less_exclusions.txt	LTP212	ltpFR	11	9	0	ASTEROID	50	n/a	n/a	1	n/a	0	0	0	0.57763671875	0.412841796875	1	upper	zerothre.ttf
2284.704	n/a	WORD	1142352	wordpools/wasnorm_wordpool_less_exclusions.txt	LTP212	ltpFR	11	9	0	SAPPHIRE	1234	n/a	n/a	0	n/a	0	0	0	0.57763671875	0.412841796875	1	upper	zerothre.ttf
2288.864	n/a	WORD	1144432	wordpools/wasnorm_wordpool_less_exclusions.txt	LTP212	ltpFR	11	9	0	CRYSTAL	418	n/a	n/a	0	n/a	0	0	0	0.57763671875	0.412841796875	1	upper	zerothre.ttf
2292.708	n/a	WORD	1146354	wordpools/wasnorm_wordpool_less_exclusions.txt	LTP212	ltpFR	11	9	0	GEM	629	n/a	n/a	0	n/a	0	0	0	0.57763671875	0.412841796875	1	upper	zerothre.ttf
2296.836	n/a	WORD	1148418	wordpools/wasnorm_wordpool_less_exclusions.txt	LTP212	ltpFR	11	9	0	CHESS	294	n/a	n/a	0	n/a	0	0	0	0.57763671875	0.412841796875	1	upper	zerothre.ttf
2300.812	n/a	WORD	1150406	wordpools/wasnorm_wordpool_less_exclusions.txt	LTP212	ltpFR	11	9	0	MACHINE	852	n/a	n/a	1	n/a	0	0	0	0.57763671875	0.412841796875	1	upper	zerothre.ttf
2304.974	n/a	WORD	1152487	wordpools/wasnorm_wordpool_less_exclusions.txt	LTP212	ltpFR	11	9	0	OVAL	990	n/a	n/a	0	n/a	0	0	0	0.57763671875	0.412841796875	1	upper	zerothre.ttf
2309.034	n/a	WORD	1154517	wordpools/wasnorm_wordpool_less_exclusions.txt	LTP212	ltpFR	11	9	0	SERVER	1272	n/a	n/a	1	n/a	0	0	0	0.57763671875	0.412841796875	1	upper	zerothre.ttf
2312.862	n/a	WORD	1156431	wordpools/wasnorm_wordpool_less_exclusions.txt	LTP212	ltpFR	11	9	0	SUPERMARKET	1409	n/a	n/a	1	n/a	0	0	0	0.57763671875	0.412841796875	1	upper	zerothre.ttf
2318.82	n/a	REC_START	1159410	n/a	LTP212	ltpFR	11	9	n/a	n/a	n/a	n/a	n/a	n/a	n/a	0	0	0	n/a	n/a	n/a	n/a	n/a
2319.488	n/a	REC_WORD	1159744	wordpools/wasnorm_wordpool_less_exclusions.txt	LTP212	ltpFR	11	9	0	SAPPHIRE	1234	n/a	n/a	0	n/a	0	0	0	n/a	n/a	n/a	n/a	n/a
2320.95	n/a	REC_WORD	1160475	wordpools/wasnorm_wordpool_less_exclusions.txt	LTP212	ltpFR	11	9	0	CRYSTAL	418	n/a	n/a	0	n/a	0	0	0	n/a	n/a	n/a	n/a	n/a
2322.448	n/a	REC_WORD	1161224	wordpools/wasnorm_wordpool_less_exclusions.txt	LTP212	ltpFR	11	9	0	GEM	629	n/a	n/a	0	n/a	0	0	0	n/a	n/a	n/a	n/a	n/a
2325.076	n/a	REC_WORD	1162538	wordpools/wasnorm_wordpool_less_exclusions.txt	LTP212	ltpFR	11	9	0	OVAL	990	n/a	n/a	0	n/a	0	0	0	n/a	n/a	n/a	n/a	n/a
2326.074	n/a	REC_WORD	1163037	wordpools/wasnorm_wordpool_less_exclusions.txt	LTP212	ltpFR	11	9	0	SUPERMARKET	1409	n/a	n/a	1	n/a	0	0	0	n/a	n/a	n/a	n/a	n/a
2331.158	n/a	REC_WORD	1165579	wordpools/wasnorm_wordpool_less_exclusions.txt	LTP212	ltpFR	11	9	0	DART	440	n/a	n/a	0	n/a	0	0	0	n/a	n/a	n/a	n/a	n/a
2332.564	n/a	REC_WORD	1166282	wordpools/wasnorm_wordpool_less_exclusions.txt	LTP212	ltpFR	11	9	0	ASTEROID	50	n/a	n/a	1	n/a	0	0	0	n/a	n/a	n/a	n/a	n/a
2333.822	n/a	REC_WORD	1166911	wordpools/wasnorm_wordpool_less_exclusions.txt	LTP212	ltpFR	11	9	0	COMET	353	n/a	n/a	1	n/a	0	0	0	n/a	n/a	n/a	n/a	n/a
2335.332	n/a	REC_WORD	1167666	wordpools/wasnorm_wordpool_less_exclusions.txt	LTP212	ltpFR	11	9	0	PELT	1040	n/a	n/a	1	n/a	0	0	0	n/a	n/a	n/a	n/a	n/a
2336.734	n/a	REC_WORD	1168367	wordpools/wasnorm_wordpool_less_exclusions.txt	LTP212	ltpFR	11	9	0	SERVER	1272	n/a	n/a	1	n/a	0	0	0	n/a	n/a	n/a	n/a	n/a
2348.228	n/a	REC_WORD	1174114	wordpools/wasnorm_wordpool_less_exclusions.txt	LTP212	ltpFR	11	9	0	PAINTER	1004	n/a	n/a	1	n/a	0	0	0	n/a	n/a	n/a	n/a	n/a
2420.702	n/a	START	1210351	n/a	LTP212	ltpFR	11	n/a	n/a	n/a	n/a	n/a	n/a	n/a	n/a	n/a	n/a	n/a	n/a	n/a	n/a	n/a	n/a
2422.216	n/a	PROB	1211108	n/a	LTP212	ltpFR	11	n/a	n/a	n/a	n/a	n/a	n/a	n/a	14	1	7	6	n/a	n/a	n/a	n/a	n/a
2424.63	n/a	PROB	1212315	n/a	LTP212	ltpFR	11	n/a	n/a	n/a	n/a	n/a	n/a	n/a	16	3	8	5	n/a	n/a	n/a	n/a	n/a
2427.558	n/a	STOP	1213779	n/a	LTP212	ltpFR	11	n/a	n/a	n/a	n/a	n/a	n/a	n/a	n/a	n/a	n/a	n/a	n/a	n/a	n/a	n/a	n/a
2429.822	n/a	WORD	1214911	wordpools/wasnorm_wordpool_less_exclusions.txt	LTP212	ltpFR	11	10	1	BILL	126	n/a	n/a	0	n/a	0	0	0	0.422607421875	0.5869140625	0	lower	amplitud.ttf
2432.834	n/a	START	1216417	n/a	LTP212	ltpFR	11	n/a	n/a	n/a	n/a	n/a	n/a	n/a	n/a	n/a	n/a	n/a	n/a	n/a	n/a	n/a	n/a
2433.716	n/a	PROB	1216858	n/a	LTP212	ltpFR	11	n/a	n/a	n/a	n/a	n/a	n/a	n/a	14	6	6	2	n/a	n/a	n/a	n/a	n/a
2435.514	n/a	PROB	1217757	n/a	LTP212	ltpFR	11	n/a	n/a	n/a	n/a	n/a	n/a	n/a	20	9	6	5	n/a	n/a	n/a	n/a	n/a
2437.728	n/a	PROB	1218864	n/a	LTP212	ltpFR	11	n/a	n/a	n/a	n/a	n/a	n/a	n/a	17	1	8	8	n/a	n/a	n/a	n/a	n/a
2439.59	n/a	STOP	1219795	n/a	LTP212	ltpFR	11	n/a	n/a	n/a	n/a	n/a	n/a	n/a	n/a	n/a	n/a	n/a	n/a	n/a	n/a	n/a	n/a
2441.688	n/a	WORD	1220844	wordpools/wasnorm_wordpool_less_exclusions.txt	LTP212	ltpFR	11	10	1	APPLE	33	n/a	n/a	1	n/a	0	0	0	0.422607421875	0.5869140625	0	lower	amplitud.ttf
2444.702	n/a	START	1222351	n/a	LTP212	ltpFR	11	n/a	n/a	n/a	n/a	n/a	n/a	n/a	n/a	n/a	n/a	n/a	n/a	n/a	n/a	n/a	n/a
2445.616	n/a	PROB	1222808	n/a	LTP212	ltpFR	11	n/a	n/a	n/a	n/a	n/a	n/a	n/a	15	7	6	2	n/a	n/a	n/a	n/a	n/a
2448.03	n/a	PROB	1224015	n/a	LTP212	ltpFR	11	n/a	n/a	n/a	n/a	n/a	n/a	n/a	11	3	4	4	n/a	n/a	n/a	n/a	n/a
2452.702	n/a	STOP	1226351	n/a	LTP212	ltpFR	11	n/a	n/a	n/a	n/a	n/a	n/a	n/a	n/a	n/a	n/a	n/a	n/a	n/a	n/a	n/a	n/a
2453.704	n/a	WORD	1226852	wordpools/wasnorm_wordpool_less_exclusions.txt	LTP212	ltpFR	11	10	1	VINE	1568	n/a	n/a	1	n/a	0	0	0	0.422607421875	0.5869140625	0	lower	amplitud.ttf
2456.716	n/a	START	1228358	n/a	LTP212	ltpFR	11	n/a	n/a	n/a	n/a	n/a	n/a	n/a	n/a	n/a	n/a	n/a	n/a	n/a	n/a	n/a	n/a
2457.682	n/a	PROB	1228841	n/a	LTP212	ltpFR	11	n/a	n/a	n/a	n/a	n/a	n/a	n/a	25	7	9	9	n/a	n/a	n/a	n/a	n/a
2460.078	n/a	PROB	1230039	n/a	LTP212	ltpFR	11	n/a	n/a	n/a	n/a	n/a	n/a	n/a	16	7	5	4	n/a	n/a	n/a	n/a	n/a
2462.924	n/a	PROB	1231462	n/a	LTP212	ltpFR	11	n/a	n/a	n/a	n/a	n/a	n/a	n/a	16	6	3	7	n/a	n/a	n/a	n/a	n/a
2464.416	n/a	STOP	1232208	n/a	LTP212	ltpFR	11	n/a	n/a	n/a	n/a	n/a	n/a	n/a	n/a	n/a	n/a	n/a	n/a	n/a	n/a	n/a	n/a
2465.654	n/a	WORD	1232827	wordpools/wasnorm_wordpool_less_exclusions.txt	LTP212	ltpFR	11	10	1	CHIPMUNK	304	n/a	n/a	1	n/a	0	0	0	0.422607421875	0.5869140625	0	lower	amplitud.ttf
2468.666	n/a	START	1234333	n/a	LTP212	ltpFR	11	n/a	n/a	n/a	n/a	n/a	n/a	n/a	n/a	n/a	n/a	n/a	n/a	n/a	n/a	n/a	n/a
2469.598	n/a	PROB	1234799	n/a	LTP212	ltpFR	11	n/a	n/a	n/a	n/a	n/a	n/a	n/a	17	9	4	4	n/a	n/a	n/a	n/a	n/a
2473.31	n/a	PROB	1236655	n/a	LTP212	ltpFR	11	n/a	n/a	n/a	n/a	n/a	n/a	n/a	15	6	2	7	n/a	n/a	n/a	n/a	n/a
2475.518	n/a	STOP	1237759	n/a	LTP212	ltpFR	11	n/a	n/a	n/a	n/a	n/a	n/a	n/a	n/a	n/a	n/a	n/a	n/a	n/a	n/a	n/a	n/a
2477.636	n/a	WORD	1238818	wordpools/wasnorm_wordpool_less_exclusions.txt	LTP212	ltpFR	11	10	0	CHAIRPERSON	275	n/a	n/a	1	n/a	0	0	0	0.57763671875	0.412841796875	1	upper	zerothre.ttf
2480.648	n/a	START	1240324	n/a	LTP212	ltpFR	11	n/a	n/a	n/a	n/a	n/a	n/a	n/a	n/a	n/a	n/a	n/a	n/a	n/a	n/a	n/a	n/a
2481.646	n/a	PROB	1240823	n/a	LTP212	ltpFR	11	n/a	n/a	n/a	n/a	n/a	n/a	n/a	17	5	4	8	n/a	n/a	n/a	n/a	n/a
2488.648	n/a	STOP	1244324	n/a	LTP212	ltpFR	11	n/a	n/a	n/a	n/a	n/a	n/a	n/a	n/a	n/a	n/a	n/a	n/a	n/a	n/a	n/a	n/a
2489.484	n/a	WORD	1244742	wordpools/wasnorm_wordpool_less_exclusions.txt	LTP212	ltpFR	11	10	0	TORTOISE	1486	n/a	n/a	1	n/a	0	0	0	0.57763671875	0.412841796875	1	upper	zerothre.ttf
2492.496	n/a	START	1246248	n/a	LTP212	ltpFR	11	n/a	n/a	n/a	n/a	n/a	n/a	n/a	n/a	n/a	n/a	n/a	n/a	n/a	n/a	n/a	n/a
2493.33	n/a	PROB	1246665	n/a	LTP212	ltpFR	11	n/a	n/a	n/a	n/a	n/a	n/a	n/a	7	2	2	3	n/a	n/a	n/a	n/a	n/a
2496.008	n/a	PROB	1248004	n/a	LTP212	ltpFR	11	n/a	n/a	n/a	n/a	n/a	n/a	n/a	6	2	3	1	n/a	n/a	n/a	n/a	n/a
2497.788	n/a	PROB	1248894	n/a	LTP212	ltpFR	11	n/a	n/a	n/a	n/a	n/a	n/a	n/a	20	9	6	5	n/a	n/a	n/a	n/a	n/a
2499.384	n/a	STOP	1249692	n/a	LTP212	ltpFR	11	n/a	n/a	n/a	n/a	n/a	n/a	n/a	n/a	n/a	n/a	n/a	n/a	n/a	n/a	n/a	n/a
2501.65	n/a	WORD	1250825	wordpools/wasnorm_wordpool_less_exclusions.txt	LTP212	ltpFR	11	10	0	BLOUSE	139	n/a	n/a	0	n/a	0	0	0	0.57763671875	0.412841796875	1	upper	zerothre.ttf
2504.662	n/a	START	1252331	n/a	LTP212	ltpFR	11	n/a	n/a	n/a	n/a	n/a	n/a	n/a	n/a	n/a	n/a	n/a	n/a	n/a	n/a	n/a	n/a
2505.494	n/a	PROB	1252747	n/a	LTP212	ltpFR	11	n/a	n/a	n/a	n/a	n/a	n/a	n/a	15	3	9	3	n/a	n/a	n/a	n/a	n/a
2508.14	n/a	PROB	1254070	n/a	LTP212	ltpFR	11	n/a	n/a	n/a	n/a	n/a	n/a	n/a	14	2	3	9	n/a	n/a	n/a	n/a	n/a
2511.44	n/a	STOP	1255720	n/a	LTP212	ltpFR	11	n/a	n/a	n/a	n/a	n/a	n/a	n/a	n/a	n/a	n/a	n/a	n/a	n/a	n/a	n/a	n/a
2513.484	n/a	WORD	1256742	wordpools/wasnorm_wordpool_less_exclusions.txt	LTP212	ltpFR	11	10	0	CLAY	320	n/a	n/a	0	n/a	0	0	0	0.57763671875	0.412841796875	1	upper	zerothre.ttf
2516.496	n/a	START	1258248	n/a	LTP212	ltpFR	11	n/a	n/a	n/a	n/a	n/a	n/a	n/a	n/a	n/a	n/a	n/a	n/a	n/a	n/a	n/a	n/a
2517.594	n/a	PROB	1258797	n/a	LTP212	ltpFR	11	n/a	n/a	n/a	n/a	n/a	n/a	n/a	12	1	6	5	n/a	n/a	n/a	n/a	n/a
2519.024	n/a	PROB	1259512	n/a	LTP212	ltpFR	11	n/a	n/a	n/a	n/a	n/a	n/a	n/a	18	8	6	4	n/a	n/a	n/a	n/a	n/a
2520.474	n/a	PROB	1260237	n/a	LTP212	ltpFR	11	n/a	n/a	n/a	n/a	n/a	n/a	n/a	11	3	7	1	n/a	n/a	n/a	n/a	n/a
2521.82	n/a	PROB	1260910	n/a	LTP212	ltpFR	11	n/a	n/a	n/a	n/a	n/a	n/a	n/a	16	3	5	8	n/a	n/a	n/a	n/a	n/a
2523.856	n/a	STOP	1261928	n/a	LTP212	ltpFR	11	n/a	n/a	n/a	n/a	n/a	n/a	n/a	n/a	n/a	n/a	n/a	n/a	n/a	n/a	n/a	n/a
2525.532	n/a	WORD	1262766	wordpools/wasnorm_wordpool_less_exclusions.txt	LTP212	ltpFR	11	10	1	NEWSPAPER	948	n/a	n/a	0	n/a	0	0	0	0.422607421875	0.5869140625	0	lower	amplitud.ttf
2528.544	n/a	START	1264272	n/a	LTP212	ltpFR	11	n/a	n/a	n/a	n/a	n/a	n/a	n/a	n/a	n/a	n/a	n/a	n/a	n/a	n/a	n/a	n/a
2529.608	n/a	PROB	1264804	n/a	LTP212	ltpFR	11	n/a	n/a	n/a	n/a	n/a	n/a	n/a	24	7	9	8	n/a	n/a	n/a	n/a	n/a
2533.036	n/a	PROB	1266518	n/a	LTP212	ltpFR	11	n/a	n/a	n/a	n/a	n/a	n/a	n/a	14	7	6	1	n/a	n/a	n/a	n/a	n/a
2534.734	n/a	PROB	1267367	n/a	LTP212	ltpFR	11	n/a	n/a	n/a	n/a	n/a	n/a	n/a	15	3	3	9	n/a	n/a	n/a	n/a	n/a
2536.224	n/a	STOP	1268112	n/a	LTP212	ltpFR	11	n/a	n/a	n/a	n/a	n/a	n/a	n/a	n/a	n/a	n/a	n/a	n/a	n/a	n/a	n/a	n/a
2537.596	n/a	WORD	1268798	wordpools/wasnorm_wordpool_less_exclusions.txt	LTP212	ltpFR	11	10	1	VEST	1559	n/a	n/a	0	n/a	0	0	0	0.422607421875	0.5869140625	0	lower	amplitud.ttf
2540.61	n/a	START	1270305	n/a	LTP212	ltpFR	11	n/a	n/a	n/a	n/a	n/a	n/a	n/a	n/a	n/a	n/a	n/a	n/a	n/a	n/a	n/a	n/a
2541.54	n/a	PROB	1270770	n/a	LTP212	ltpFR	11	n/a	n/a	n/a	n/a	n/a	n/a	n/a	14	8	4	2	n/a	n/a	n/a	n/a	n/a
2543.954	n/a	PROB	1271977	n/a	LTP212	ltpFR	11	n/a	n/a	n/a	n/a	n/a	n/a	n/a	4	2	1	1	n/a	n/a	n/a	n/a	n/a
2545.068	n/a	PROB	1272534	n/a	LTP212	ltpFR	11	n/a	n/a	n/a	n/a	n/a	n/a	n/a	13	7	4	2	n/a	n/a	n/a	n/a	n/a
2547.144	n/a	STOP	1273572	n/a	LTP212	ltpFR	11	n/a	n/a	n/a	n/a	n/a	n/a	n/a	n/a	n/a	n/a	n/a	n/a	n/a	n/a	n/a	n/a
2549.746	n/a	WORD	1274873	wordpools/wasnorm_wordpool_less_exclusions.txt	LTP212	ltpFR	11	10	1	STRANGER	1389	n/a	n/a	1	n/a	0	0	0	0.422607421875	0.5869140625	0	lower	amplitud.ttf
2552.758	n/a	START	1276379	n/a	LTP212	ltpFR	11	n/a	n/a	n/a	n/a	n/a	n/a	n/a	n/a	n/a	n/a	n/a	n/a	n/a	n/a	n/a	n/a
2553.838	n/a	PROB	1276919	n/a	LTP212	ltpFR	11	n/a	n/a	n/a	n/a	n/a	n/a	n/a	16	6	5	5	n/a	n/a	n/a	n/a	n/a
2556.068	n/a	PROB	1278034	n/a	LTP212	ltpFR	11	n/a	n/a	n/a	n/a	n/a	n/a	n/a	15	3	9	3	n/a	n/a	n/a	n/a	n/a
2558.914	n/a	PROB	1279457	n/a	LTP212	ltpFR	11	n/a	n/a	n/a	n/a	n/a	n/a	n/a	16	9	6	1	n/a	n/a	n/a	n/a	n/a
2560.352	n/a	STOP	1280176	n/a	LTP212	ltpFR	11	n/a	n/a	n/a	n/a	n/a	n/a	n/a	n/a	n/a	n/a	n/a	n/a	n/a	n/a	n/a	n/a
2561.794	n/a	WORD	1280897	wordpools/wasnorm_wordpool_less_exclusions.txt	LTP212	ltpFR	11	10	1	TRAITOR	1495	n/a	n/a	1	n/a	0	0	0	0.422607421875	0.5869140625	0	lower	amplitud.ttf
2564.806	n/a	START	1282403	n/a	LTP212	ltpFR	11	n/a	n/a	n/a	n/a	n/a	n/a	n/a	n/a	n/a	n/a	n/a	n/a	n/a	n/a	n/a	n/a
2565.738	n/a	PROB	1282869	n/a	LTP212	ltpFR	11	n/a	n/a	n/a	n/a	n/a	n/a	n/a	21	8	5	8	n/a	n/a	n/a	n/a	n/a
2568.352	n/a	PROB	1284176	n/a	LTP212	ltpFR	11	n/a	n/a	n/a	n/a	n/a	n/a	n/a	5	1	3	1	n/a	n/a	n/a	n/a	n/a
2569.948	n/a	PROB	1284974	n/a	LTP212	ltpFR	11	n/a	n/a	n/a	n/a	n/a	n/a	n/a	12	7	1	4	n/a	n/a	n/a	n/a	n/a
2572.424	n/a	STOP	1286212	n/a	LTP212	ltpFR	11	n/a	n/a	n/a	n/a	n/a	n/a	n/a	n/a	n/a	n/a	n/a	n/a	n/a	n/a	n/a	n/a
2574.01	n/a	WORD	1287005	wordpools/wasnorm_wordpool_less_exclusions.txt	LTP212	ltpFR	11	10	0	DOCUMENT	479	n/a	n/a	0	n/a	0	0	0	0.57763671875	0.412841796875	1	upper	zerothre.ttf
2577.022	n/a	START	1288511	n/a	LTP212	ltpFR	11	n/a	n/a	n/a	n/a	n/a	n/a	n/a	n/a	n/a	n/a	n/a	n/a	n/a	n/a	n/a	n/a
2578.054	n/a	PROB	1289027	n/a	LTP212	ltpFR	11	n/a	n/a	n/a	n/a	n/a	n/a	n/a	7	1	2	4	n/a	n/a	n/a	n/a	n/a
2580.334	n/a	PROB	1290167	n/a	LTP212	ltpFR	11	n/a	n/a	n/a	n/a	n/a	n/a	n/a	13	1	9	3	n/a	n/a	n/a	n/a	n/a
2582.498	n/a	PROB	1291249	n/a	LTP212	ltpFR	11	n/a	n/a	n/a	n/a	n/a	n/a	n/a	10	1	3	6	n/a	n/a	n/a	n/a	n/a
2584.496	n/a	STOP	1292248	n/a	LTP212	ltpFR	11	n/a	n/a	n/a	n/a	n/a	n/a	n/a	n/a	n/a	n/a	n/a	n/a	n/a	n/a	n/a	n/a
2585.892	n/a	WORD	1292946	wordpools/wasnorm_wordpool_less_exclusions.txt	LTP212	ltpFR	11	10	0	SLUG	1329	n/a	n/a	0	n/a	0	0	0	0.57763671875	0.412841796875	1	upper	zerothre.ttf
2588.904	n/a	START	1294452	n/a	LTP212	ltpFR	11	n/a	n/a	n/a	n/a	n/a	n/a	n/a	n/a	n/a	n/a	n/a	n/a	n/a	n/a	n/a	n/a
2590.102	n/a	PROB	1295051	n/a	LTP212	ltpFR	11	n/a	n/a	n/a	n/a	n/a	n/a	n/a	11	6	4	1	n/a	n/a	n/a	n/a	n/a
2591.95	n/a	PROB	1295975	n/a	LTP212	ltpFR	11	n/a	n/a	n/a	n/a	n/a	n/a	n/a	14	8	1	5	n/a	n/a	n/a	n/a	n/a
2596.904	n/a	STOP	1298452	n/a	LTP212	ltpFR	11	n/a	n/a	n/a	n/a	n/a	n/a	n/a	n/a	n/a	n/a	n/a	n/a	n/a	n/a	n/a	n/a
2597.84	n/a	WORD	1298920	wordpools/wasnorm_wordpool_less_exclusions.txt	LTP212	ltpFR	11	10	0	JUDGE	761	n/a	n/a	1	n/a	0	0	0	0.57763671875	0.412841796875	1	upper	zerothre.ttf
2600.854	n/a	START	1300427	n/a	LTP212	ltpFR	11	n/a	n/a	n/a	n/a	n/a	n/a	n/a	n/a	n/a	n/a	n/a	n/a	n/a	n/a	n/a	n/a
2601.718	n/a	PROB	1300859	n/a	LTP212	ltpFR	11	n/a	n/a	n/a	n/a	n/a	n/a	n/a	16	7	7	2	n/a	n/a	n/a	n/a	n/a
2604.58	n/a	PROB	1302290	n/a	LTP212	ltpFR	11	n/a	n/a	n/a	n/a	n/a	n/a	n/a	11	5	2	4	n/a	n/a	n/a	n/a	n/a
2608.854	n/a	STOP	1304427	n/a	LTP212	ltpFR	11	n/a	n/a	n/a	n/a	n/a	n/a	n/a	n/a	n/a	n/a	n/a	n/a	n/a	n/a	n/a	n/a
2609.906	n/a	WORD	1304953	wordpools/wasnorm_wordpool_less_exclusions.txt	LTP212	ltpFR	11	10	0	ATTORNEY	58	n/a	n/a	1	n/a	0	0	0	0.57763671875	0.412841796875	1	upper	zerothre.ttf
2612.918	n/a	START	1306459	n/a	LTP212	ltpFR	11	n/a	n/a	n/a	n/a	n/a	n/a	n/a	n/a	n/a	n/a	n/a	n/a	n/a	n/a	n/a	n/a
2613.8	n/a	PROB	1306900	n/a	LTP212	ltpFR	11	n/a	n/a	n/a	n/a	n/a	n/a	n/a	14	6	6	2	n/a	n/a	n/a	n/a	n/a
2616.114	n/a	PROB	1308057	n/a	LTP212	ltpFR	11	n/a	n/a	n/a	n/a	n/a	n/a	n/a	15	9	1	5	n/a	n/a	n/a	n/a	n/a
2618.078	n/a	PROB	1309039	n/a	LTP212	ltpFR	11	n/a	n/a	n/a	n/a	n/a	n/a	n/a	9	3	1	5	n/a	n/a	n/a	n/a	n/a
2620.208	n/a	STOP	1310104	n/a	LTP212	ltpFR	11	n/a	n/a	n/a	n/a	n/a	n/a	n/a	n/a	n/a	n/a	n/a	n/a	n/a	n/a	n/a	n/a
2622.804	n/a	REC_START	1311402	n/a	LTP212	ltpFR	11	10	n/a	n/a	n/a	n/a	n/a	n/a	n/a	0	0	0	n/a	n/a	n/a	n/a	n/a
2623.398	n/a	REC_WORD	1311699	wordpools/wasnorm_wordpool_less_exclusions.txt	LTP212	ltpFR	11	10	1	STRANGER	1389	n/a	n/a	1	n/a	0	0	0	n/a	n/a	n/a	n/a	n/a
2624.51	n/a	REC_WORD	1312255	wordpools/wasnorm_wordpool_less_exclusions.txt	LTP212	ltpFR	11	10	1	TRAITOR	1495	n/a	n/a	1	n/a	0	0	0	n/a	n/a	n/a	n/a	n/a
2626.032	n/a	REC_WORD	1313016	wordpools/wasnorm_wordpool_less_exclusions.txt	LTP212	ltpFR	11	10	0	DOCUMENT	479	n/a	n/a	0	n/a	0	0	0	n/a	n/a	n/a	n/a	n/a
2627.16	n/a	REC_WORD	1313580	wordpools/wasnorm_wordpool_less_exclusions.txt	LTP212	ltpFR	11	10	0	JUDGE	761	n/a	n/a	1	n/a	0	0	0	n/a	n/a	n/a	n/a	n/a
2628.428	n/a	REC_WORD	1314214	wordpools/wasnorm_wordpool_less_exclusions.txt	LTP212	ltpFR	11	10	0	SLUG	1329	n/a	n/a	0	n/a	0	0	0	n/a	n/a	n/a	n/a	n/a
2629.932	n/a	REC_WORD	1314966	wordpools/wasnorm_wordpool_less_exclusions.txt	LTP212	ltpFR	11	10	0	ATTORNEY	58	n/a	n/a	1	n/a	0	0	0	n/a	n/a	n/a	n/a	n/a
2640.364	n/a	REC_WORD	1320182	wordpools/wasnorm_wordpool_less_exclusions.txt	LTP212	ltpFR	11	10	0	CHAIRPERSON	275	n/a	n/a	1	n/a	0	0	0	n/a	n/a	n/a	n/a	n/a
2693.768	n/a	REC_WORD	1346884	wordpools/wasnorm_wordpool_less_exclusions.txt	LTP212	ltpFR	11	10	0	SHED	1277	n/a	n/a	1	n/a	0	0	0	n/a	n/a	n/a	n/a	n/a
2698.41	n/a	REST_REWET	1349205	n/a	LTP212	ltpFR	11	10	n/a	n/a	n/a	n/a	n/a	n/a	n/a	0	0	0	n/a	n/a	n/a	n/a	n/a
2876.43	n/a	START	1438215	n/a	LTP212	ltpFR	11	n/a	n/a	n/a	n/a	n/a	n/a	n/a	n/a	n/a	n/a	n/a	n/a	n/a	n/a	n/a	n/a
2877.944	n/a	PROB	1438972	n/a	LTP212	ltpFR	11	n/a	n/a	n/a	n/a	n/a	n/a	n/a	7	2	2	3	n/a	n/a	n/a	n/a	n/a
2879.74	n/a	PROB	1439870	n/a	LTP212	ltpFR	11	n/a	n/a	n/a	n/a	n/a	n/a	n/a	14	5	1	8	n/a	n/a	n/a	n/a	n/a
2882.304	n/a	PROB	1441152	n/a	LTP212	ltpFR	11	n/a	n/a	n/a	n/a	n/a	n/a	n/a	15	6	4	5	n/a	n/a	n/a	n/a	n/a
2884.468	n/a	PROB	1442234	n/a	LTP212	ltpFR	11	n/a	n/a	n/a	n/a	n/a	n/a	n/a	15	8	2	5	n/a	n/a	n/a	n/a	n/a
2885.914	n/a	PROB	1442957	n/a	LTP212	ltpFR	11	n/a	n/a	n/a	n/a	n/a	n/a	n/a	18	6	9	3	n/a	n/a	n/a	n/a	n/a
2888.362	n/a	PROB	1444181	n/a	LTP212	ltpFR	11	n/a	n/a	n/a	n/a	n/a	n/a	n/a	13	5	4	4	n/a	n/a	n/a	n/a	n/a
2891.62	n/a	STOP	1445810	n/a	LTP212	ltpFR	11	n/a	n/a	n/a	n/a	n/a	n/a	n/a	n/a	n/a	n/a	n/a	n/a	n/a	n/a	n/a	n/a
2893.586	n/a	WORD	1446793	wordpools/wasnorm_wordpool_less_exclusions.txt	LTP212	ltpFR	11	11	0	SAUSAGE	1238	n/a	n/a	0	n/a	0	0	0	0.57763671875	0.412841796875	1	upper	zerothre.ttf
2896.6	n/a	START	1448300	n/a	LTP212	ltpFR	11	n/a	n/a	n/a	n/a	n/a	n/a	n/a	n/a	n/a	n/a	n/a	n/a	n/a	n/a	n/a	n/a
2897.448	n/a	PROB	1448724	n/a	LTP212	ltpFR	11	n/a	n/a	n/a	n/a	n/a	n/a	n/a	14	2	8	4	n/a	n/a	n/a	n/a	n/a
2899.346	n/a	PROB	1449673	n/a	LTP212	ltpFR	11	n/a	n/a	n/a	n/a	n/a	n/a	n/a	12	2	1	9	n/a	n/a	n/a	n/a	n/a
2901.36	n/a	PROB	1450680	n/a	LTP212	ltpFR	11	n/a	n/a	n/a	n/a	n/a	n/a	n/a	21	8	8	5	n/a	n/a	n/a	n/a	n/a
2903.222	n/a	PROB	1451611	n/a	LTP212	ltpFR	11	n/a	n/a	n/a	n/a	n/a	n/a	n/a	9	4	2	3	n/a	n/a	n/a	n/a	n/a
2905.436	n/a	PROB	1452718	n/a	LTP212	ltpFR	11	n/a	n/a	n/a	n/a	n/a	n/a	n/a	11	3	7	1	n/a	n/a	n/a	n/a	n/a
2906.8	n/a	PROB	1453400	n/a	LTP212	ltpFR	11	n/a	n/a	n/a	n/a	n/a	n/a	n/a	17	2	6	9	n/a	n/a	n/a	n/a	n/a
2909.246	n/a	PROB	1454623	n/a	LTP212	ltpFR	11	n/a	n/a	n/a	n/a	n/a	n/a	n/a	11	5	1	5	n/a	n/a	n/a	n/a	n/a
2910.446	n/a	PROB	1455223	n/a	LTP212	ltpFR	11	n/a	n/a	n/a	n/a	n/a	n/a	n/a	17	9	5	3	n/a	n/a	n/a	n/a	n/a
2912.548	n/a	STOP	1456274	n/a	LTP212	ltpFR	11	n/a	n/a	n/a	n/a	n/a	n/a	n/a	n/a	n/a	n/a	n/a	n/a	n/a	n/a	n/a	n/a
2913.69	n/a	WORD	1456845	wordpools/wasnorm_wordpool_less_exclusions.txt	LTP212	ltpFR	11	11	0	CHICKEN	297	n/a	n/a	0	n/a	0	0	0	0.57763671875	0.412841796875	1	upper	zerothre.ttf
2916.704	n/a	START	1458352	n/a	LTP212	ltpFR	11	n/a	n/a	n/a	n/a	n/a	n/a	n/a	n/a	n/a	n/a	n/a	n/a	n/a	n/a	n/a	n/a
2917.752	n/a	PROB	1458876	n/a	LTP212	ltpFR	11	n/a	n/a	n/a	n/a	n/a	n/a	n/a	13	5	3	5	n/a	n/a	n/a	n/a	n/a
2919.434	n/a	PROB	1459717	n/a	LTP212	ltpFR	11	n/a	n/a	n/a	n/a	n/a	n/a	n/a	25	8	8	9	n/a	n/a	n/a	n/a	n/a
2924.94	n/a	PROB	1462470	n/a	LTP212	ltpFR	11	n/a	n/a	n/a	n/a	n/a	n/a	n/a	17	6	4	7	n/a	n/a	n/a	n/a	n/a
2926.754	n/a	PROB	1463377	n/a	LTP212	ltpFR	11	n/a	n/a	n/a	n/a	n/a	n/a	n/a	18	9	7	2	n/a	n/a	n/a	n/a	n/a
2929.634	n/a	PROB	1464817	n/a	LTP212	ltpFR	11	n/a	n/a	n/a	n/a	n/a	n/a	n/a	15	6	6	3	n/a	n/a	n/a	n/a	n/a
2932.704	n/a	STOP	1466352	n/a	LTP212	ltpFR	11	n/a	n/a	n/a	n/a	n/a	n/a	n/a	n/a	n/a	n/a	n/a	n/a	n/a	n/a	n/a	n/a
2933.91	n/a	WORD	1466955	wordpools/wasnorm_wordpool_less_exclusions.txt	LTP212	ltpFR	11	11	0	DAISY	435	n/a	n/a	0	n/a	0	0	0	0.57763671875	0.412841796875	1	upper	zerothre.ttf
2936.924	n/a	START	1468462	n/a	LTP212	ltpFR	11	n/a	n/a	n/a	n/a	n/a	n/a	n/a	n/a	n/a	n/a	n/a	n/a	n/a	n/a	n/a	n/a
2937.954	n/a	PROB	1468977	n/a	LTP212	ltpFR	11	n/a	n/a	n/a	n/a	n/a	n/a	n/a	13	3	5	5	n/a	n/a	n/a	n/a	n/a
2939.304	n/a	PROB	1469652	n/a	LTP212	ltpFR	11	n/a	n/a	n/a	n/a	n/a	n/a	n/a	21	9	6	6	n/a	n/a	n/a	n/a	n/a
2940.95	n/a	PROB	1470475	n/a	LTP212	ltpFR	11	n/a	n/a	n/a	n/a	n/a	n/a	n/a	12	8	3	1	n/a	n/a	n/a	n/a	n/a
2942.98	n/a	PROB	1471490	n/a	LTP212	ltpFR	11	n/a	n/a	n/a	n/a	n/a	n/a	n/a	17	5	8	4	n/a	n/a	n/a	n/a	n/a
2944.994	n/a	PROB	1472497	n/a	LTP212	ltpFR	11	n/a	n/a	n/a	n/a	n/a	n/a	n/a	17	6	7	4	n/a	n/a	n/a	n/a	n/a
2947.806	n/a	PROB	1473903	n/a	LTP212	ltpFR	11	n/a	n/a	n/a	n/a	n/a	n/a	n/a	17	7	4	7	n/a	n/a	n/a	n/a	n/a
2949.504	n/a	PROB	1474752	n/a	LTP212	ltpFR	11	n/a	n/a	n/a	n/a	n/a	n/a	n/a	13	9	3	1	n/a	n/a	n/a	n/a	n/a
2952.87	n/a	STOP	1476435	n/a	LTP212	ltpFR	11	n/a	n/a	n/a	n/a	n/a	n/a	n/a	n/a	n/a	n/a	n/a	n/a	n/a	n/a	n/a	n/a
2953.88	n/a	WORD	1476940	wordpools/wasnorm_wordpool_less_exclusions.txt	LTP212	ltpFR	11	11	1	TIMBER	1469	n/a	n/a	0	n/a	0	0	0	0.422607421875	0.5869140625	0	lower	amplitud.ttf
2956.894	n/a	START	1478447	n/a	LTP212	ltpFR	11	n/a	n/a	n/a	n/a	n/a	n/a	n/a	n/a	n/a	n/a	n/a	n/a	n/a	n/a	n/a	n/a
2957.992	n/a	PROB	1478996	n/a	LTP212	ltpFR	11	n/a	n/a	n/a	n/a	n/a	n/a	n/a	14	9	3	2	n/a	n/a	n/a	n/a	n/a
2959.872	n/a	PROB	1479936	n/a	LTP212	ltpFR	11	n/a	n/a	n/a	n/a	n/a	n/a	n/a	20	7	8	5	n/a	n/a	n/a	n/a	n/a
2965.432	n/a	PROB	1482716	n/a	LTP212	ltpFR	11	n/a	n/a	n/a	n/a	n/a	n/a	n/a	14	5	1	8	n/a	n/a	n/a	n/a	n/a
2968.31	n/a	PROB	1484155	n/a	LTP212	ltpFR	11	n/a	n/a	n/a	n/a	n/a	n/a	n/a	13	1	6	6	n/a	n/a	n/a	n/a	n/a
2969.874	n/a	PROB	1484937	n/a	LTP212	ltpFR	11	n/a	n/a	n/a	n/a	n/a	n/a	n/a	16	5	6	5	n/a	n/a	n/a	n/a	n/a
2971.59	n/a	STOP	1485795	n/a	LTP212	ltpFR	11	n/a	n/a	n/a	n/a	n/a	n/a	n/a	n/a	n/a	n/a	n/a	n/a	n/a	n/a	n/a	n/a
2973.984	n/a	WORD	1486992	wordpools/wasnorm_wordpool_less_exclusions.txt	LTP212	ltpFR	11	11	1	FIG	563	n/a	n/a	1	n/a	0	0	0	0.422607421875	0.5869140625	0	lower	amplitud.ttf
2976.996	n/a	START	1488498	n/a	LTP212	ltpFR	11	n/a	n/a	n/a	n/a	n/a	n/a	n/a	n/a	n/a	n/a	n/a	n/a	n/a	n/a	n/a	n/a
2978.162	n/a	PROB	1489081	n/a	LTP212	ltpFR	11	n/a	n/a	n/a	n/a	n/a	n/a	n/a	23	8	9	6	n/a	n/a	n/a	n/a	n/a
2982.206	n/a	PROB	1491103	n/a	LTP212	ltpFR	11	n/a	n/a	n/a	n/a	n/a	n/a	n/a	17	7	3	7	n/a	n/a	n/a	n/a	n/a
2983.986	n/a	PROB	1491993	n/a	LTP212	ltpFR	11	n/a	n/a	n/a	n/a	n/a	n/a	n/a	14	1	7	6	n/a	n/a	n/a	n/a	n/a
2986.0	n/a	PROB	1493000	n/a	LTP212	ltpFR	11	n/a	n/a	n/a	n/a	n/a	n/a	n/a	11	1	3	7	n/a	n/a	n/a	n/a	n/a
2987.514	n/a	PROB	1493757	n/a	LTP212	ltpFR	11	n/a	n/a	n/a	n/a	n/a	n/a	n/a	18	8	7	3	n/a	n/a	n/a	n/a	n/a
2988.946	n/a	PROB	1494473	n/a	LTP212	ltpFR	11	n/a	n/a	n/a	n/a	n/a	n/a	n/a	16	3	4	9	n/a	n/a	n/a	n/a	n/a
2992.998	n/a	STOP	1496499	n/a	LTP212	ltpFR	11	n/a	n/a	n/a	n/a	n/a	n/a	n/a	n/a	n/a	n/a	n/a	n/a	n/a	n/a	n/a	n/a
2994.154	n/a	WORD	1497077	wordpools/wasnorm_wordpool_less_exclusions.txt	LTP212	ltpFR	11	11	1	SWATTER	1418	n/a	n/a	0	n/a	0	0	0	0.422607421875	0.5869140625	0	lower	amplitud.ttf
2997.168	n/a	START	1498584	n/a	LTP212	ltpFR	11	n/a	n/a	n/a	n/a	n/a	n/a	n/a	n/a	n/a	n/a	n/a	n/a	n/a	n/a	n/a	n/a
2998.166	n/a	PROB	1499083	n/a	LTP212	ltpFR	11	n/a	n/a	n/a	n/a	n/a	n/a	n/a	12	2	7	3	n/a	n/a	n/a	n/a	n/a
2999.546	n/a	PROB	1499773	n/a	LTP212	ltpFR	11	n/a	n/a	n/a	n/a	n/a	n/a	n/a	16	5	6	5	n/a	n/a	n/a	n/a	n/a
3001.178	n/a	PROB	1500589	n/a	LTP212	ltpFR	11	n/a	n/a	n/a	n/a	n/a	n/a	n/a	17	9	7	1	n/a	n/a	n/a	n/a	n/a
3003.524	n/a	PROB	1501762	n/a	LTP212	ltpFR	11	n/a	n/a	n/a	n/a	n/a	n/a	n/a	10	3	4	3	n/a	n/a	n/a	n/a	n/a
3005.456	n/a	PROB	1502728	n/a	LTP212	ltpFR	11	n/a	n/a	n/a	n/a	n/a	n/a	n/a	6	2	2	2	n/a	n/a	n/a	n/a	n/a
3006.604	n/a	PROB	1503302	n/a	LTP212	ltpFR	11	n/a	n/a	n/a	n/a	n/a	n/a	n/a	15	2	5	8	n/a	n/a	n/a	n/a	n/a
3009.232	n/a	PROB	1504616	n/a	LTP212	ltpFR	11	n/a	n/a	n/a	n/a	n/a	n/a	n/a	18	4	7	7	n/a	n/a	n/a	n/a	n/a
3012.678	n/a	STOP	1506339	n/a	LTP212	ltpFR	11	n/a	n/a	n/a	n/a	n/a	n/a	n/a	n/a	n/a	n/a	n/a	n/a	n/a	n/a	n/a	n/a
3014.158	n/a	WORD	1507079	wordpools/wasnorm_wordpool_less_exclusions.txt	LTP212	ltpFR	11	11	1	WELL	1600	n/a	n/a	0	n/a	0	0	0	0.422607421875	0.5869140625	0	lower	amplitud.ttf
3017.17	n/a	START	1508585	n/a	LTP212	ltpFR	11	n/a	n/a	n/a	n/a	n/a	n/a	n/a	n/a	n/a	n/a	n/a	n/a	n/a	n/a	n/a	n/a
3018.286	n/a	PROB	1509143	n/a	LTP212	ltpFR	11	n/a	n/a	n/a	n/a	n/a	n/a	n/a	6	3	1	2	n/a	n/a	n/a	n/a	n/a
3019.734	n/a	PROB	1509867	n/a	LTP212	ltpFR	11	n/a	n/a	n/a	n/a	n/a	n/a	n/a	16	1	6	9	n/a	n/a	n/a	n/a	n/a
3021.864	n/a	PROB	1510932	n/a	LTP212	ltpFR	11	n/a	n/a	n/a	n/a	n/a	n/a	n/a	12	2	9	1	n/a	n/a	n/a	n/a	n/a
3023.312	n/a	PROB	1511656	n/a	LTP212	ltpFR	11	n/a	n/a	n/a	n/a	n/a	n/a	n/a	21	7	9	5	n/a	n/a	n/a	n/a	n/a
3026.19	n/a	PROB	1513095	n/a	LTP212	ltpFR	11	n/a	n/a	n/a	n/a	n/a	n/a	n/a	21	4	8	9	n/a	n/a	n/a	n/a	n/a
3028.388	n/a	PROB	1514194	n/a	LTP212	ltpFR	11	n/a	n/a	n/a	n/a	n/a	n/a	n/a	18	9	8	1	n/a	n/a	n/a	n/a	n/a
3029.902	n/a	PROB	1514951	n/a	LTP212	ltpFR	11	n/a	n/a	n/a	n/a	n/a	n/a	n/a	12	7	3	2	n/a	n/a	n/a	n/a	n/a
3033.17	n/a	STOP	1516585	n/a	LTP212	ltpFR	11	n/a	n/a	n/a	n/a	n/a	n/a	n/a	n/a	n/a	n/a	n/a	n/a	n/a	n/a	n/a	n/a
3034.228	n/a	WORD	1517114	wordpools/wasnorm_wordpool_less_exclusions.txt	LTP212	ltpFR	11	11	1	ORCHID	982	n/a	n/a	1	n/a	0	0	0	0.422607421875	0.5869140625	0	lower	amplitud.ttf
3037.24	n/a	START	1518620	n/a	LTP212	ltpFR	11	n/a	n/a	n/a	n/a	n/a	n/a	n/a	n/a	n/a	n/a	n/a	n/a	n/a	n/a	n/a	n/a
3038.14	n/a	PROB	1519070	n/a	LTP212	ltpFR	11	n/a	n/a	n/a	n/a	n/a	n/a	n/a	11	1	8	2	n/a	n/a	n/a	n/a	n/a
3039.586	n/a	PROB	1519793	n/a	LTP212	ltpFR	11	n/a	n/a	n/a	n/a	n/a	n/a	n/a	7	4	2	1	n/a	n/a	n/a	n/a	n/a
3041.252	n/a	PROB	1520626	n/a	LTP212	ltpFR	11	n/a	n/a	n/a	n/a	n/a	n/a	n/a	13	6	6	1	n/a	n/a	n/a	n/a	n/a
3042.582	n/a	PROB	1521291	n/a	LTP212	ltpFR	11	n/a	n/a	n/a	n/a	n/a	n/a	n/a	24	7	9	8	n/a	n/a	n/a	n/a	n/a
3046.11	n/a	PROB	1523055	n/a	LTP212	ltpFR	11	n/a	n/a	n/a	n/a	n/a	n/a	n/a	18	5	5	8	n/a	n/a	n/a	n/a	n/a
3047.46	n/a	PROB	1523730	n/a	LTP212	ltpFR	11	n/a	n/a	n/a	n/a	n/a	n/a	n/a	21	4	8	9	n/a	n/a	n/a	n/a	n/a
3049.206	n/a	PROB	1524603	n/a	LTP212	ltpFR	11	n/a	n/a	n/a	n/a	n/a	n/a	n/a	21	9	7	5	n/a	n/a	n/a	n/a	n/a
3051.888	n/a	STOP	1525944	n/a	LTP212	ltpFR	11	n/a	n/a	n/a	n/a	n/a	n/a	n/a	n/a	n/a	n/a	n/a	n/a	n/a	n/a	n/a	n/a
3054.266	n/a	WORD	1527133	wordpools/wasnorm_wordpool_less_exclusions.txt	LTP212	ltpFR	11	11	0	RACCOON	1153	n/a	n/a	1	n/a	0	0	0	0.57763671875	0.412841796875	1	upper	zerothre.ttf
3057.278	n/a	START	1528639	n/a	LTP212	ltpFR	11	n/a	n/a	n/a	n/a	n/a	n/a	n/a	n/a	n/a	n/a	n/a	n/a	n/a	n/a	n/a	n/a
3058.41	n/a	PROB	1529205	n/a	LTP212	ltpFR	11	n/a	n/a	n/a	n/a	n/a	n/a	n/a	19	2	8	9	n/a	n/a	n/a	n/a	n/a
3060.872	n/a	PROB	1530436	n/a	LTP212	ltpFR	11	n/a	n/a	n/a	n/a	n/a	n/a	n/a	19	4	9	6	n/a	n/a	n/a	n/a	n/a
3063.42	n/a	PROB	1531710	n/a	LTP212	ltpFR	11	n/a	n/a	n/a	n/a	n/a	n/a	n/a	17	3	6	8	n/a	n/a	n/a	n/a	n/a
3065.516	n/a	PROB	1532758	n/a	LTP212	ltpFR	11	n/a	n/a	n/a	n/a	n/a	n/a	n/a	15	5	3	7	n/a	n/a	n/a	n/a	n/a
3067.314	n/a	PROB	1533657	n/a	LTP212	ltpFR	11	n/a	n/a	n/a	n/a	n/a	n/a	n/a	13	1	9	3	n/a	n/a	n/a	n/a	n/a
3073.278	n/a	STOP	1536639	n/a	LTP212	ltpFR	11	n/a	n/a	n/a	n/a	n/a	n/a	n/a	n/a	n/a	n/a	n/a	n/a	n/a	n/a	n/a	n/a
3074.32	n/a	WORD	1537160	wordpools/wasnorm_wordpool_less_exclusions.txt	LTP212	ltpFR	11	11	0	OX	994	n/a	n/a	1	n/a	0	0	0	0.57763671875	0.412841796875	1	upper	zerothre.ttf
3077.334	n/a	START	1538667	n/a	LTP212	ltpFR	11	n/a	n/a	n/a	n/a	n/a	n/a	n/a	n/a	n/a	n/a	n/a	n/a	n/a	n/a	n/a	n/a
3078.414	n/a	PROB	1539207	n/a	LTP212	ltpFR	11	n/a	n/a	n/a	n/a	n/a	n/a	n/a	12	1	3	8	n/a	n/a	n/a	n/a	n/a
3080.76	n/a	PROB	1540380	n/a	LTP212	ltpFR	11	n/a	n/a	n/a	n/a	n/a	n/a	n/a	13	2	5	6	n/a	n/a	n/a	n/a	n/a
3082.308	n/a	PROB	1541154	n/a	LTP212	ltpFR	11	n/a	n/a	n/a	n/a	n/a	n/a	n/a	16	2	5	9	n/a	n/a	n/a	n/a	n/a
3084.82	n/a	PROB	1542410	n/a	LTP212	ltpFR	11	n/a	n/a	n/a	n/a	n/a	n/a	n/a	21	5	9	7	n/a	n/a	n/a	n/a	n/a
3088.016	n/a	PROB	1544008	n/a	LTP212	ltpFR	11	n/a	n/a	n/a	n/a	n/a	n/a	n/a	15	3	3	9	n/a	n/a	n/a	n/a	n/a
3089.98	n/a	PROB	1544990	n/a	LTP212	ltpFR	11	n/a	n/a	n/a	n/a	n/a	n/a	n/a	19	4	6	9	n/a	n/a	n/a	n/a	n/a
3091.864	n/a	STOP	1545932	n/a	LTP212	ltpFR	11	n/a	n/a	n/a	n/a	n/a	n/a	n/a	n/a	n/a	n/a	n/a	n/a	n/a	n/a	n/a	n/a
3094.49	n/a	WORD	1547245	wordpools/wasnorm_wordpool_less_exclusions.txt	LTP212	ltpFR	11	11	1	ISLAND	745	n/a	n/a	0	n/a	0	0	0	0.422607421875	0.5869140625	0	lower	amplitud.ttf
3097.502	n/a	START	1548751	n/a	LTP212	ltpFR	11	n/a	n/a	n/a	n/a	n/a	n/a	n/a	n/a	n/a	n/a	n/a	n/a	n/a	n/a	n/a	n/a
3098.6	n/a	PROB	1549300	n/a	LTP212	ltpFR	11	n/a	n/a	n/a	n/a	n/a	n/a	n/a	24	8	9	7	n/a	n/a	n/a	n/a	n/a
3101.896	n/a	PROB	1550948	n/a	LTP212	ltpFR	11	n/a	n/a	n/a	n/a	n/a	n/a	n/a	15	3	5	7	n/a	n/a	n/a	n/a	n/a
3104.824	n/a	PROB	1552412	n/a	LTP212	ltpFR	11	n/a	n/a	n/a	n/a	n/a	n/a	n/a	10	3	4	3	n/a	n/a	n/a	n/a	n/a
3106.622	n/a	PROB	1553311	n/a	LTP212	ltpFR	11	n/a	n/a	n/a	n/a	n/a	n/a	n/a	9	1	3	5	n/a	n/a	n/a	n/a	n/a
3108.586	n/a	PROB	1554293	n/a	LTP212	ltpFR	11	n/a	n/a	n/a	n/a	n/a	n/a	n/a	16	2	5	9	n/a	n/a	n/a	n/a	n/a
3111.198	n/a	PROB	1555599	n/a	LTP212	ltpFR	11	n/a	n/a	n/a	n/a	n/a	n/a	n/a	18	5	4	9	n/a	n/a	n/a	n/a	n/a
3112.808	n/a	STOP	1556404	n/a	LTP212	ltpFR	11	n/a	n/a	n/a	n/a	n/a	n/a	n/a	n/a	n/a	n/a	n/a	n/a	n/a	n/a	n/a	n/a
3114.592	n/a	WORD	1557296	wordpools/wasnorm_wordpool_less_exclusions.txt	LTP212	ltpFR	11	11	1	JET	756	n/a	n/a	0	n/a	0	0	0	0.422607421875	0.5869140625	0	lower	amplitud.ttf
3117.606	n/a	START	1558803	n/a	LTP212	ltpFR	11	n/a	n/a	n/a	n/a	n/a	n/a	n/a	n/a	n/a	n/a	n/a	n/a	n/a	n/a	n/a	n/a
3118.522	n/a	PROB	1559261	n/a	LTP212	ltpFR	11	n/a	n/a	n/a	n/a	n/a	n/a	n/a	10	1	2	7	n/a	n/a	n/a	n/a	n/a
3120.002	n/a	PROB	1560001	n/a	LTP212	ltpFR	11	n/a	n/a	n/a	n/a	n/a	n/a	n/a	23	8	6	9	n/a	n/a	n/a	n/a	n/a
3125.062	n/a	PROB	1562531	n/a	LTP212	ltpFR	11	n/a	n/a	n/a	n/a	n/a	n/a	n/a	26	8	9	9	n/a	n/a	n/a	n/a	n/a
3127.008	n/a	PROB	1563504	n/a	LTP212	ltpFR	11	n/a	n/a	n/a	n/a	n/a	n/a	n/a	12	9	1	2	n/a	n/a	n/a	n/a	n/a
3128.622	n/a	PROB	1564311	n/a	LTP212	ltpFR	11	n/a	n/a	n/a	n/a	n/a	n/a	n/a	13	3	1	9	n/a	n/a	n/a	n/a	n/a
3130.372	n/a	PROB	1565186	n/a	LTP212	ltpFR	11	n/a	n/a	n/a	n/a	n/a	n/a	n/a	11	3	2	6	n/a	n/a	n/a	n/a	n/a
3132.362	n/a	STOP	1566181	n/a	LTP212	ltpFR	11	n/a	n/a	n/a	n/a	n/a	n/a	n/a	n/a	n/a	n/a	n/a	n/a	n/a	n/a	n/a	n/a
3134.448	n/a	WORD	1567224	wordpools/wasnorm_wordpool_less_exclusions.txt	LTP212	ltpFR	11	11	1	ELF	525	n/a	n/a	1	n/a	0	0	0	0.422607421875	0.5869140625	0	lower	amplitud.ttf
