mstime	trial_type	stim_file	subject	experiment	session	trial	item_name	item_num	list	answer	test_x	test_y	test_z
0	SESS_START	n/a	LTP323	ltpFR2	3	n/a	n/a	n/a	n/a	n/a	0	0	0
18535	START	n/a	LTP323	ltpFR2	3	n/a	n/a	n/a	-1	n/a	n/a	n/a	n/a
18562	PROB	n/a	LTP323	ltpFR2	3	n/a	n/a	n/a	-1	9	4	1	4
21819	PROB	n/a	LTP323	ltpFR2	3	n/a	n/a	n/a	-1	17	6	5	6
24154	PROB	n/a	LTP323	ltpFR2	3	n/a	n/a	n/a	-1	21	5	7	9
26355	PROB	n/a	LTP323	ltpFR2	3	n/a	n/a	n/a	-1	16	6	5	5
28073	PROB	n/a	LTP323	ltpFR2	3	n/a	n/a	n/a	-1	15	4	5	6
29761	STOP	n/a	LTP323	ltpFR2	3	n/a	n/a	n/a	-1	n/a	n/a	n/a	n/a
73327	WORD	wordpools/wasnorm_wordpool_576.txt	LTP323	ltpFR2	3	1	OUTLAW	989	n/a	n/a	0	0	0
75923	WORD	wordpools/wasnorm_wordpool_576.txt	LTP323	ltpFR2	3	1	TEMPLE	1448	n/a	n/a	0	0	0
78626	WORD	wordpools/wasnorm_wordpool_576.txt	LTP323	ltpFR2	3	1	PARTNER	1017	n/a	n/a	0	0	0
81435	WORD	wordpools/wasnorm_wordpool_576.txt	LTP323	ltpFR2	3	1	CREATURE	403	n/a	n/a	0	0	0
83895	WORD	wordpools/wasnorm_wordpool_576.txt	LTP323	ltpFR2	3	1	CHIPMUNK	304	n/a	n/a	0	0	0
86665	WORD	wordpools/wasnorm_wordpool_576.txt	LTP323	ltpFR2	3	1	CLAMP	316	n/a	n/a	0	0	0
89216	WORD	wordpools/wasnorm_wordpool_576.txt	LTP323	ltpFR2	3	1	CHAMPAGNE	278	n/a	n/a	0	0	0
91960	WORD	wordpools/wasnorm_wordpool_576.txt	LTP323	ltpFR2	3	1	CRIB	407	n/a	n/a	0	0	0
94647	WORD	wordpools/wasnorm_wordpool_576.txt	LTP323	ltpFR2	3	1	CONVICT	371	n/a	n/a	0	0	0
97315	WORD	wordpools/wasnorm_wordpool_576.txt	LTP323	ltpFR2	3	1	PLAID	1080	n/a	n/a	0	0	0
100067	WORD	wordpools/wasnorm_wordpool_576.txt	LTP323	ltpFR2	3	1	LOFT	840	n/a	n/a	0	0	0
102860	WORD	wordpools/wasnorm_wordpool_576.txt	LTP323	ltpFR2	3	1	BEAST	108	n/a	n/a	0	0	0
105438	WORD	wordpools/wasnorm_wordpool_576.txt	LTP323	ltpFR2	3	1	FARMER	553	n/a	n/a	0	0	0
107924	WORD	wordpools/wasnorm_wordpool_576.txt	LTP323	ltpFR2	3	1	SCRIBBLE	1256	n/a	n/a	0	0	0
110542	WORD	wordpools/wasnorm_wordpool_576.txt	LTP323	ltpFR2	3	1	JOURNAL	760	n/a	n/a	0	0	0
113128	WORD	wordpools/wasnorm_wordpool_576.txt	LTP323	ltpFR2	3	1	LACE	792	n/a	n/a	0	0	0
115897	WORD	wordpools/wasnorm_wordpool_576.txt	LTP323	ltpFR2	3	1	SCOTCH	1251	n/a	n/a	0	0	0
118617	WORD	wordpools/wasnorm_wordpool_576.txt	LTP323	ltpFR2	3	1	SPHINX	1349	n/a	n/a	0	0	0
121208	WORD	wordpools/wasnorm_wordpool_576.txt	LTP323	ltpFR2	3	1	HEART	697	n/a	n/a	0	0	0
123937	WORD	wordpools/wasnorm_wordpool_576.txt	LTP323	ltpFR2	3	1	SWITCH	1422	n/a	n/a	0	0	0
126757	WORD	wordpools/wasnorm_wordpool_576.txt	LTP323	ltpFR2	3	1	CANDY	230	n/a	n/a	0	0	0
129559	WORD	wordpools/wasnorm_wordpool_576.txt	LTP323	ltpFR2	3	1	TURNIP	1521	n/a	n/a	0	0	0
132344	WORD	wordpools/wasnorm_wordpool_576.txt	LTP323	ltpFR2	3	1	PASTA	1021	n/a	n/a	0	0	0
134801	WORD	wordpools/wasnorm_wordpool_576.txt	LTP323	ltpFR2	3	1	CABBAGE	210	n/a	n/a	0	0	0
136415	START	n/a	LTP323	ltpFR2	3	n/a	n/a	n/a	1	n/a	n/a	n/a	n/a
137576	DISTRACTOR	n/a	LTP323	ltpFR2	3	1	n/a	n/a	n/a	n/a	0	0	0
137582	PROB	n/a	LTP323	ltpFR2	3	n/a	n/a	n/a	1	12	6	4	2
139933	PROB	n/a	LTP323	ltpFR2	3	n/a	n/a	n/a	1	17	3	5	9
142184	PROB	n/a	LTP323	ltpFR2	3	n/a	n/a	n/a	1	16	5	7	4
144469	PROB	n/a	LTP323	ltpFR2	3	n/a	n/a	n/a	1	16	9	6	1
147005	PROB	n/a	LTP323	ltpFR2	3	n/a	n/a	n/a	1	20	7	8	5
150776	PROB	n/a	LTP323	ltpFR2	3	n/a	n/a	n/a	1	14	8	4	2
152359	PROB	n/a	LTP323	ltpFR2	3	n/a	n/a	n/a	1	14	6	1	7
154378	PROB	n/a	LTP323	ltpFR2	3	n/a	n/a	n/a	1	13	3	9	1
156513	PROB	n/a	LTP323	ltpFR2	3	n/a	n/a	n/a	1	17	7	3	7
157914	PROB	n/a	LTP323	ltpFR2	3	n/a	n/a	n/a	1	1	8	9	2
160336	STOP	n/a	LTP323	ltpFR2	3	n/a	n/a	n/a	1	n/a	n/a	n/a	n/a
162320	REC_START	n/a	LTP323	ltpFR2	3	1	n/a	n/a	n/a	n/a	0	0	0
164331	REC_WORD	wordpools/wasnorm_wordpool_576.txt	LTP323	ltpFR2	3	1	TURNIP	1521	n/a	n/a	0	0	0
165123	REC_WORD	wordpools/wasnorm_wordpool_576.txt	LTP323	ltpFR2	3	1	CANDY	230	n/a	n/a	0	0	0
166084	REC_WORD	wordpools/wasnorm_wordpool_576.txt	LTP323	ltpFR2	3	1	PASTA	1021	n/a	n/a	0	0	0
167656	REC_WORD	wordpools/wasnorm_wordpool_576.txt	LTP323	ltpFR2	3	1	CONVICT	371	n/a	n/a	0	0	0
168396	REC_WORD	wordpools/wasnorm_wordpool_576.txt	LTP323	ltpFR2	3	1	OUTLAW	989	n/a	n/a	0	0	0
170220	REC_WORD	wordpools/wasnorm_wordpool_576.txt	LTP323	ltpFR2	3	1	PLAID	1080	n/a	n/a	0	0	0
171543	REC_WORD	wordpools/wasnorm_wordpool_576.txt	LTP323	ltpFR2	3	1	CREATURE	403	n/a	n/a	0	0	0
172275	REC_WORD	wordpools/wasnorm_wordpool_576.txt	LTP323	ltpFR2	3	1	BEAST	108	n/a	n/a	0	0	0
173196	REC_WORD	wordpools/wasnorm_wordpool_576.txt	LTP323	ltpFR2	3	1	CHIPMUNK	304	n/a	n/a	0	0	0
174829	REC_WORD	wordpools/wasnorm_wordpool_576.txt	LTP323	ltpFR2	3	1	PARTNER	1017	n/a	n/a	0	0	0
178775	REC_WORD	wordpools/wasnorm_wordpool_576.txt	LTP323	ltpFR2	3	1	CLAMP	316	n/a	n/a	0	0	0
179556	REC_WORD	wordpools/wasnorm_wordpool_576.txt	LTP323	ltpFR2	3	1	CRIB	407	n/a	n/a	0	0	0
180509	REC_WORD	wordpools/wasnorm_wordpool_576.txt	LTP323	ltpFR2	3	1	TEMPLE	1448	n/a	n/a	0	0	0
181975	REC_WORD	wordpools/wasnorm_wordpool_576.txt	LTP323	ltpFR2	3	1	CHAMPAGNE	278	n/a	n/a	0	0	0
183192	REC_WORD	wordpools/wasnorm_wordpool_576.txt	LTP323	ltpFR2	3	1	LACE	792	n/a	n/a	0	0	0
187753	REC_WORD	wordpools/wasnorm_wordpool_576.txt	LTP323	ltpFR2	3	1	FARMER	553	n/a	n/a	0	0	0
198318	REC_WORD	wordpools/wasnorm_wordpool_576.txt	LTP323	ltpFR2	3	1	HEART	697	n/a	n/a	0	0	0
252762	DISTRACTOR	n/a	LTP323	ltpFR2	3	2	n/a	n/a	n/a	n/a	0	0	0
252763	START	n/a	LTP323	ltpFR2	3	n/a	n/a	n/a	2	n/a	n/a	n/a	n/a
252776	PROB	n/a	LTP323	ltpFR2	3	n/a	n/a	n/a	2	15	8	2	5
254658	PROB	n/a	LTP323	ltpFR2	3	n/a	n/a	n/a	2	10	2	6	2
256375	PROB	n/a	LTP323	ltpFR2	3	n/a	n/a	n/a	2	17	9	1	7
258728	PROB	n/a	LTP323	ltpFR2	3	n/a	n/a	n/a	2	20	6	9	5
261312	PROB	n/a	LTP323	ltpFR2	3	n/a	n/a	n/a	2	19	9	5	5
262869	PROB	n/a	LTP323	ltpFR2	3	n/a	n/a	n/a	2	11	5	3	3
265303	PROB	n/a	LTP323	ltpFR2	3	n/a	n/a	n/a	2	14	5	1	8
267039	PROB	n/a	LTP323	ltpFR2	3	n/a	n/a	n/a	2	14	7	4	3
268792	PROB	n/a	LTP323	ltpFR2	3	n/a	n/a	n/a	2	16	7	3	6
270425	PROB	n/a	LTP323	ltpFR2	3	n/a	n/a	n/a	2	12	3	2	7
272326	PROB	n/a	LTP323	ltpFR2	3	n/a	n/a	n/a	2	17	8	4	5
274746	PROB	n/a	LTP323	ltpFR2	3	n/a	n/a	n/a	2	11	8	1	2
276104	STOP	n/a	LTP323	ltpFR2	3	n/a	n/a	n/a	2	n/a	n/a	n/a	n/a
277661	WORD	wordpools/wasnorm_wordpool_576.txt	LTP323	ltpFR2	3	2	ULCER	1533	n/a	n/a	0	0	0
280101	WORD	wordpools/wasnorm_wordpool_576.txt	LTP323	ltpFR2	3	2	LUMBER	848	n/a	n/a	0	0	0
282830	WORD	wordpools/wasnorm_wordpool_576.txt	LTP323	ltpFR2	3	2	BANQUET	86	n/a	n/a	0	0	0
285316	WORD	wordpools/wasnorm_wordpool_576.txt	LTP323	ltpFR2	3	2	GRAVEL	659	n/a	n/a	0	0	0
287951	WORD	wordpools/wasnorm_wordpool_576.txt	LTP323	ltpFR2	3	2	SIDEWALK	1303	n/a	n/a	0	0	0
290442	WORD	wordpools/wasnorm_wordpool_576.txt	LTP323	ltpFR2	3	2	SHOULDER	1294	n/a	n/a	0	0	0
292888	WORD	wordpools/wasnorm_wordpool_576.txt	LTP323	ltpFR2	3	2	PRINCE	1124	n/a	n/a	0	0	0
295691	WORD	wordpools/wasnorm_wordpool_576.txt	LTP323	ltpFR2	3	2	SUNRISE	1407	n/a	n/a	0	0	0
298459	WORD	wordpools/wasnorm_wordpool_576.txt	LTP323	ltpFR2	3	2	SUNSET	1408	n/a	n/a	0	0	0
301078	WORD	wordpools/wasnorm_wordpool_576.txt	LTP323	ltpFR2	3	2	LEG	809	n/a	n/a	0	0	0
303748	WORD	wordpools/wasnorm_wordpool_576.txt	LTP323	ltpFR2	3	2	GARLIC	624	n/a	n/a	0	0	0
306282	WORD	wordpools/wasnorm_wordpool_576.txt	LTP323	ltpFR2	3	2	PACKAGE	997	n/a	n/a	0	0	0
309058	WORD	wordpools/wasnorm_wordpool_576.txt	LTP323	ltpFR2	3	2	ORCHID	982	n/a	n/a	0	0	0
311611	WORD	wordpools/wasnorm_wordpool_576.txt	LTP323	ltpFR2	3	2	TROMBONE	1508	n/a	n/a	0	0	0
314362	WORD	wordpools/wasnorm_wordpool_576.txt	LTP323	ltpFR2	3	2	THRONE	1461	n/a	n/a	0	0	0
317007	WORD	wordpools/wasnorm_wordpool_576.txt	LTP323	ltpFR2	3	2	MISTER	901	n/a	n/a	0	0	0
319676	WORD	wordpools/wasnorm_wordpool_576.txt	LTP323	ltpFR2	3	2	WORKER	1621	n/a	n/a	0	0	0
322143	WORD	wordpools/wasnorm_wordpool_576.txt	LTP323	ltpFR2	3	2	TERMITE	1451	n/a	n/a	0	0	0
324946	WORD	wordpools/wasnorm_wordpool_576.txt	LTP323	ltpFR2	3	2	COUNTY	389	n/a	n/a	0	0	0
327607	WORD	wordpools/wasnorm_wordpool_576.txt	LTP323	ltpFR2	3	2	MISSILE	900	n/a	n/a	0	0	0
330050	WORD	wordpools/wasnorm_wordpool_576.txt	LTP323	ltpFR2	3	2	PEPPER	1047	n/a	n/a	0	0	0
332569	WORD	wordpools/wasnorm_wordpool_576.txt	LTP323	ltpFR2	3	2	BLOCKADE	137	n/a	n/a	0	0	0
335087	WORD	wordpools/wasnorm_wordpool_576.txt	LTP323	ltpFR2	3	2	SNAIL	1332	n/a	n/a	0	0	0
337815	WORD	wordpools/wasnorm_wordpool_576.txt	LTP323	ltpFR2	3	2	PIGEON	1065	n/a	n/a	0	0	0
339425	START	n/a	LTP323	ltpFR2	3	n/a	n/a	n/a	3	n/a	n/a	n/a	n/a
340386	DISTRACTOR	n/a	LTP323	ltpFR2	3	2	n/a	n/a	n/a	n/a	0	0	0
340391	PROB	n/a	LTP323	ltpFR2	3	n/a	n/a	n/a	3	15	7	4	4
342486	PROB	n/a	LTP323	ltpFR2	3	n/a	n/a	n/a	3	16	8	7	1
344336	PROB	n/a	LTP323	ltpFR2	3	n/a	n/a	n/a	3	13	2	2	9
346421	PROB	n/a	LTP323	ltpFR2	3	n/a	n/a	n/a	3	14	1	8	5
348956	PROB	n/a	LTP323	ltpFR2	3	n/a	n/a	n/a	3	19	3	9	7
350575	PROB	n/a	LTP323	ltpFR2	3	n/a	n/a	n/a	3	8	3	4	1
353427	PROB	n/a	LTP323	ltpFR2	3	n/a	n/a	n/a	3	13	6	4	3
355030	PROB	n/a	LTP323	ltpFR2	3	n/a	n/a	n/a	3	14	3	4	7
356897	PROB	n/a	LTP323	ltpFR2	3	n/a	n/a	n/a	3	13	9	2	2
358915	PROB	n/a	LTP323	ltpFR2	3	n/a	n/a	n/a	3	10	7	1	2
360483	PROB	n/a	LTP323	ltpFR2	3	n/a	n/a	n/a	3	13	3	6	4
362176	STOP	n/a	LTP323	ltpFR2	3	n/a	n/a	n/a	3	n/a	n/a	n/a	n/a
365305	REC_START	n/a	LTP323	ltpFR2	3	2	n/a	n/a	n/a	n/a	0	0	0
369771	REC_WORD	wordpools/wasnorm_wordpool_576.txt	LTP323	ltpFR2	3	2	ULCER	1533	n/a	n/a	0	0	0
370384	REC_WORD	wordpools/wasnorm_wordpool_576.txt	LTP323	ltpFR2	3	2	LUMBER	848	n/a	n/a	0	0	0
371513	REC_WORD	wordpools/wasnorm_wordpool_576.txt	LTP323	ltpFR2	3	2	BANQUET	86	n/a	n/a	0	0	0
373368	REC_WORD	wordpools/wasnorm_wordpool_576.txt	LTP323	ltpFR2	3	2	GRAVEL	659	n/a	n/a	0	0	0
375026	REC_WORD	wordpools/wasnorm_wordpool_576.txt	LTP323	ltpFR2	3	2	SIDEWALK	1303	n/a	n/a	0	0	0
375729	REC_WORD	wordpools/wasnorm_wordpool_576.txt	LTP323	ltpFR2	3	2	SHOULDER	1294	n/a	n/a	0	0	0
378769	REC_WORD	wordpools/wasnorm_wordpool_576.txt	LTP323	ltpFR2	3	2	PIGEON	1065	n/a	n/a	0	0	0
379522	REC_WORD	wordpools/wasnorm_wordpool_576.txt	LTP323	ltpFR2	3	2	TERMITE	1451	n/a	n/a	0	0	0
381250	REC_WORD	wordpools/wasnorm_wordpool_576.txt	LTP323	ltpFR2	3	2	SNAIL	1332	n/a	n/a	0	0	0
386910	REC_WORD	wordpools/wasnorm_wordpool_576.txt	LTP323	ltpFR2	3	2	LUMBER	848	n/a	n/a	0	0	0
388802	REC_WORD	wordpools/wasnorm_wordpool_576.txt	LTP323	ltpFR2	3	2	MISTER	901	n/a	n/a	0	0	0
389359	REC_WORD	wordpools/wasnorm_wordpool_576.txt	LTP323	ltpFR2	3	2	WORKER	1621	n/a	n/a	0	0	0
389816	REC_WORD	wordpools/wasnorm_wordpool_576.txt	LTP323	ltpFR2	3	2	THRONE	1461	n/a	n/a	0	0	0
402646	REC_WORD	wordpools/wasnorm_wordpool_576.txt	LTP323	ltpFR2	3	2	LEG	809	n/a	n/a	0	0	0
404777	REC_WORD	wordpools/wasnorm_wordpool_576.txt	LTP323	ltpFR2	3	2	GARLIC	624	n/a	n/a	0	0	0
413138	REC_WORD	wordpools/wasnorm_wordpool_576.txt	LTP323	ltpFR2	3	2	BANQUET	86	n/a	n/a	0	0	0
420635	REC_WORD	wordpools/wasnorm_wordpool_576.txt	LTP323	ltpFR2	3	2	COUNTY	389	n/a	n/a	0	0	0
424099	REC_WORD	wordpools/wasnorm_wordpool_576.txt	LTP323	ltpFR2	3	2	MISSILE	900	n/a	n/a	0	0	0
424544	REC_WORD	wordpools/wasnorm_wordpool_576.txt	LTP323	ltpFR2	3	2	BLOCKADE	137	n/a	n/a	0	0	0
455779	WORD	wordpools/wasnorm_wordpool_576.txt	LTP323	ltpFR2	3	3	AIRPORT	13	n/a	n/a	0	0	0
458348	WORD	wordpools/wasnorm_wordpool_576.txt	LTP323	ltpFR2	3	3	RUST	1219	n/a	n/a	0	0	0
460983	WORD	wordpools/wasnorm_wordpool_576.txt	LTP323	ltpFR2	3	3	BRIEFCASE	175	n/a	n/a	0	0	0
463485	WORD	wordpools/wasnorm_wordpool_576.txt	LTP323	ltpFR2	3	3	SKILLET	1317	n/a	n/a	0	0	0
466220	WORD	wordpools/wasnorm_wordpool_576.txt	LTP323	ltpFR2	3	3	DAISY	435	n/a	n/a	0	0	0
468658	WORD	wordpools/wasnorm_wordpool_576.txt	LTP323	ltpFR2	3	3	DAUGHTER	442	n/a	n/a	0	0	0
471157	WORD	wordpools/wasnorm_wordpool_576.txt	LTP323	ltpFR2	3	3	LILY	821	n/a	n/a	0	0	0
473576	WORD	wordpools/wasnorm_wordpool_576.txt	LTP323	ltpFR2	3	3	PEDAL	1037	n/a	n/a	0	0	0
476078	WORD	wordpools/wasnorm_wordpool_576.txt	LTP323	ltpFR2	3	3	PLIERS	1089	n/a	n/a	0	0	0
478614	WORD	wordpools/wasnorm_wordpool_576.txt	LTP323	ltpFR2	3	3	SPOON	1357	n/a	n/a	0	0	0
481432	WORD	wordpools/wasnorm_wordpool_576.txt	LTP323	ltpFR2	3	3	BOUQUET	157	n/a	n/a	0	0	0
483984	WORD	wordpools/wasnorm_wordpool_576.txt	LTP323	ltpFR2	3	3	KNAPSACK	783	n/a	n/a	0	0	0
486436	WORD	wordpools/wasnorm_wordpool_576.txt	LTP323	ltpFR2	3	3	PUDDING	1139	n/a	n/a	0	0	0
489254	WORD	wordpools/wasnorm_wordpool_576.txt	LTP323	ltpFR2	3	3	MARROW	872	n/a	n/a	0	0	0
491806	WORD	wordpools/wasnorm_wordpool_576.txt	LTP323	ltpFR2	3	3	BINDER	127	n/a	n/a	0	0	0
494475	WORD	wordpools/wasnorm_wordpool_576.txt	LTP323	ltpFR2	3	3	HOUND	724	n/a	n/a	0	0	0
497161	WORD	wordpools/wasnorm_wordpool_576.txt	LTP323	ltpFR2	3	3	JUGGLER	763	n/a	n/a	0	0	0
499663	WORD	wordpools/wasnorm_wordpool_576.txt	LTP323	ltpFR2	3	3	GYMNAST	675	n/a	n/a	0	0	0
502398	WORD	wordpools/wasnorm_wordpool_576.txt	LTP323	ltpFR2	3	3	SUMMIT	1405	n/a	n/a	0	0	0
504954	WORD	wordpools/wasnorm_wordpool_576.txt	LTP323	ltpFR2	3	3	MATTRESS	879	n/a	n/a	0	0	0
507686	WORD	wordpools/wasnorm_wordpool_576.txt	LTP323	ltpFR2	3	3	HEADBAND	696	n/a	n/a	0	0	0
510320	WORD	wordpools/wasnorm_wordpool_576.txt	LTP323	ltpFR2	3	3	PUPPY	1144	n/a	n/a	0	0	0
513139	WORD	wordpools/wasnorm_wordpool_576.txt	LTP323	ltpFR2	3	3	AUTHOR	61	n/a	n/a	0	0	0
515659	WORD	wordpools/wasnorm_wordpool_576.txt	LTP323	ltpFR2	3	3	PASSAGE	1019	n/a	n/a	0	0	0
517265	START	n/a	LTP323	ltpFR2	3	n/a	n/a	n/a	4	n/a	n/a	n/a	n/a
518163	DISTRACTOR	n/a	LTP323	ltpFR2	3	3	n/a	n/a	n/a	n/a	0	0	0
518176	PROB	n/a	LTP323	ltpFR2	3	n/a	n/a	n/a	4	16	5	4	7
520668	PROB	n/a	LTP323	ltpFR2	3	n/a	n/a	n/a	4	11	1	4	6
522128	PROB	n/a	LTP323	ltpFR2	3	n/a	n/a	n/a	4	14	4	9	1
524019	PROB	n/a	LTP323	ltpFR2	3	n/a	n/a	n/a	4	8	2	2	4
525420	PROB	n/a	LTP323	ltpFR2	3	n/a	n/a	n/a	4	11	5	3	3
527371	PROB	n/a	LTP323	ltpFR2	3	n/a	n/a	n/a	4	6	1	2	3
529206	PROB	n/a	LTP323	ltpFR2	3	n/a	n/a	n/a	4	18	9	3	6
531491	PROB	n/a	LTP323	ltpFR2	3	n/a	n/a	n/a	4	16	4	7	5
533310	PROB	n/a	LTP323	ltpFR2	3	n/a	n/a	n/a	4	18	7	2	9
535478	PROB	n/a	LTP323	ltpFR2	3	n/a	n/a	n/a	4	16	5	4	7
541265	STOP	n/a	LTP323	ltpFR2	3	n/a	n/a	n/a	4	n/a	n/a	n/a	n/a
543118	REC_START	n/a	LTP323	ltpFR2	3	3	n/a	n/a	n/a	n/a	0	0	0
545146	REC_WORD	wordpools/wasnorm_wordpool_576.txt	LTP323	ltpFR2	3	3	HOUND	724	n/a	n/a	0	0	0
545834	REC_WORD	wordpools/wasnorm_wordpool_576.txt	LTP323	ltpFR2	3	3	PUPPY	1144	n/a	n/a	0	0	0
546828	REC_WORD	wordpools/wasnorm_wordpool_576.txt	LTP323	ltpFR2	3	3	DAISY	435	n/a	n/a	0	0	0
547592	REC_WORD	wordpools/wasnorm_wordpool_576.txt	LTP323	ltpFR2	3	3	LILY	821	n/a	n/a	0	0	0
548791	REC_WORD	wordpools/wasnorm_wordpool_576.txt	LTP323	ltpFR2	3	3	BOUQUET	157	n/a	n/a	0	0	0
550514	REC_WORD	wordpools/wasnorm_wordpool_576.txt	LTP323	ltpFR2	3	3	SKILLET	1317	n/a	n/a	0	0	0
551439	REC_WORD	wordpools/wasnorm_wordpool_576.txt	LTP323	ltpFR2	3	3	MARROW	872	n/a	n/a	0	0	0
552191	REC_WORD	wordpools/wasnorm_wordpool_576.txt	LTP323	ltpFR2	3	3	PUDDING	1139	n/a	n/a	0	0	0
554595	REC_WORD	wordpools/wasnorm_wordpool_576.txt	LTP323	ltpFR2	3	3	RUST	1219	n/a	n/a	0	0	0
555268	REC_WORD	wordpools/wasnorm_wordpool_576.txt	LTP323	ltpFR2	3	3	AIRPORT	13	n/a	n/a	0	0	0
555990	REC_WORD	wordpools/wasnorm_wordpool_576.txt	LTP323	ltpFR2	3	3	BRIEFCASE	175	n/a	n/a	0	0	0
556990	REC_WORD_VV	wordpools/wasnorm_wordpool_576.txt	LTP323	ltpFR2	3	3	<>	-1	n/a	n/a	0	0	0
557437	REC_WORD	wordpools/wasnorm_wordpool_576.txt	LTP323	ltpFR2	3	3	PEDAL	1037	n/a	n/a	0	0	0
559880	REC_WORD	wordpools/wasnorm_wordpool_576.txt	LTP323	ltpFR2	3	3	AUTHOR	61	n/a	n/a	0	0	0
561534	REC_WORD	wordpools/wasnorm_wordpool_576.txt	LTP323	ltpFR2	3	3	BINDER	127	n/a	n/a	0	0	0
563902	REC_WORD	wordpools/wasnorm_wordpool_576.txt	LTP323	ltpFR2	3	3	KNAPSACK	783	n/a	n/a	0	0	0
568610	REC_WORD	wordpools/wasnorm_wordpool_576.txt	LTP323	ltpFR2	3	3	JUGGLER	763	n/a	n/a	0	0	0
569200	REC_WORD	wordpools/wasnorm_wordpool_576.txt	LTP323	ltpFR2	3	3	GYMNAST	675	n/a	n/a	0	0	0
573236	REC_WORD	wordpools/wasnorm_wordpool_576.txt	LTP323	ltpFR2	3	3	SUMMIT	1405	n/a	n/a	0	0	0
575535	REC_WORD	wordpools/wasnorm_wordpool_576.txt	LTP323	ltpFR2	3	3	MATTRESS	879	n/a	n/a	0	0	0
602660	REC_WORD	wordpools/wasnorm_wordpool_576.txt	LTP323	ltpFR2	3	3	SKILLET	1317	n/a	n/a	0	0	0
606765	REC_WORD	wordpools/wasnorm_wordpool_576.txt	LTP323	ltpFR2	3	3	DAUGHTER	442	n/a	n/a	0	0	0
614086	REC_WORD	wordpools/wasnorm_wordpool_576.txt	LTP323	ltpFR2	3	3	DAISY	435	n/a	n/a	0	0	0
614567	REC_WORD	wordpools/wasnorm_wordpool_576.txt	LTP323	ltpFR2	3	3	LILY	821	n/a	n/a	0	0	0
633528	DISTRACTOR	n/a	LTP323	ltpFR2	3	4	n/a	n/a	n/a	n/a	0	0	0
633528	START	n/a	LTP323	ltpFR2	3	n/a	n/a	n/a	5	n/a	n/a	n/a	n/a
633543	PROB	n/a	LTP323	ltpFR2	3	n/a	n/a	n/a	5	18	9	3	6
636328	PROB	n/a	LTP323	ltpFR2	3	n/a	n/a	n/a	5	25	9	7	9
641100	PROB	n/a	LTP323	ltpFR2	3	n/a	n/a	n/a	5	11	7	2	2
642818	PROB	n/a	LTP323	ltpFR2	3	n/a	n/a	n/a	5	12	9	2	1
644952	PROB	n/a	LTP323	ltpFR2	3	n/a	n/a	n/a	5	12	9	1	2
646405	PROB	n/a	LTP323	ltpFR2	3	n/a	n/a	n/a	5	7	1	1	5
647971	PROB	n/a	LTP323	ltpFR2	3	n/a	n/a	n/a	5	20	4	8	8
650157	PROB	n/a	LTP323	ltpFR2	3	n/a	n/a	n/a	5	21	9	6	6
652676	PROB	n/a	LTP323	ltpFR2	3	n/a	n/a	n/a	5	17	7	8	2
657528	STOP	n/a	LTP323	ltpFR2	3	n/a	n/a	n/a	5	n/a	n/a	n/a	n/a
658649	WORD	wordpools/wasnorm_wordpool_576.txt	LTP323	ltpFR2	3	4	FLASK	576	n/a	n/a	0	0	0
661217	WORD	wordpools/wasnorm_wordpool_576.txt	LTP323	ltpFR2	3	4	HOSTESS	723	n/a	n/a	0	0	0
663770	WORD	wordpools/wasnorm_wordpool_576.txt	LTP323	ltpFR2	3	4	RIFLE	1192	n/a	n/a	0	0	0
666571	WORD	wordpools/wasnorm_wordpool_576.txt	LTP323	ltpFR2	3	4	BOARD	143	n/a	n/a	0	0	0
669224	WORD	wordpools/wasnorm_wordpool_576.txt	LTP323	ltpFR2	3	4	LASER	801	n/a	n/a	0	0	0
672009	WORD	wordpools/wasnorm_wordpool_576.txt	LTP323	ltpFR2	3	4	FLASHLIGHT	575	n/a	n/a	0	0	0
674714	WORD	wordpools/wasnorm_wordpool_576.txt	LTP323	ltpFR2	3	4	HOOD	714	n/a	n/a	0	0	0
677281	WORD	wordpools/wasnorm_wordpool_576.txt	LTP323	ltpFR2	3	4	NIGHTGOWN	953	n/a	n/a	0	0	0
680017	WORD	wordpools/wasnorm_wordpool_576.txt	LTP323	ltpFR2	3	4	EXPERT	543	n/a	n/a	0	0	0
682703	WORD	wordpools/wasnorm_wordpool_576.txt	LTP323	ltpFR2	3	4	PARROT	1015	n/a	n/a	0	0	0
685371	WORD	wordpools/wasnorm_wordpool_576.txt	LTP323	ltpFR2	3	4	TURKEY	1520	n/a	n/a	0	0	0
688107	WORD	wordpools/wasnorm_wordpool_576.txt	LTP323	ltpFR2	3	4	VAGRANT	1544	n/a	n/a	0	0	0
690775	WORD	wordpools/wasnorm_wordpool_576.txt	LTP323	ltpFR2	3	4	SOFTBALL	1343	n/a	n/a	0	0	0
693561	WORD	wordpools/wasnorm_wordpool_576.txt	LTP323	ltpFR2	3	4	RACKET	1155	n/a	n/a	0	0	0
695995	WORD	wordpools/wasnorm_wordpool_576.txt	LTP323	ltpFR2	3	4	COCKTAIL	338	n/a	n/a	0	0	0
698648	WORD	wordpools/wasnorm_wordpool_576.txt	LTP323	ltpFR2	3	4	SHOVEL	1295	n/a	n/a	0	0	0
701201	WORD	wordpools/wasnorm_wordpool_576.txt	LTP323	ltpFR2	3	4	BUCKET	184	n/a	n/a	0	0	0
703752	WORD	wordpools/wasnorm_wordpool_576.txt	LTP323	ltpFR2	3	4	JELLO	754	n/a	n/a	0	0	0
706453	WORD	wordpools/wasnorm_wordpool_576.txt	LTP323	ltpFR2	3	4	YACHT	1629	n/a	n/a	0	0	0
709005	WORD	wordpools/wasnorm_wordpool_576.txt	LTP323	ltpFR2	3	4	TEACHER	1440	n/a	n/a	0	0	0
711441	WORD	wordpools/wasnorm_wordpool_576.txt	LTP323	ltpFR2	3	4	BULLET	194	n/a	n/a	0	0	0
713909	WORD	wordpools/wasnorm_wordpool_576.txt	LTP323	ltpFR2	3	4	PORTRAIT	1111	n/a	n/a	0	0	0
716445	WORD	wordpools/wasnorm_wordpool_576.txt	LTP323	ltpFR2	3	4	HIGHWAY	707	n/a	n/a	0	0	0
718913	WORD	wordpools/wasnorm_wordpool_576.txt	LTP323	ltpFR2	3	4	DONKEY	484	n/a	n/a	0	0	0
720532	START	n/a	LTP323	ltpFR2	3	n/a	n/a	n/a	6	n/a	n/a	n/a	n/a
721434	DISTRACTOR	n/a	LTP323	ltpFR2	3	4	n/a	n/a	n/a	n/a	0	0	0
721448	PROB	n/a	LTP323	ltpFR2	3	n/a	n/a	n/a	6	11	3	6	2
724735	PROB	n/a	LTP323	ltpFR2	3	n/a	n/a	n/a	6	17	8	7	2
727401	PROB	n/a	LTP323	ltpFR2	3	n/a	n/a	n/a	6	18	1	9	8
729053	PROB	n/a	LTP323	ltpFR2	3	n/a	n/a	n/a	6	13	6	5	2
731539	PROB	n/a	LTP323	ltpFR2	3	n/a	n/a	n/a	6	11	1	8	2
733090	PROB	n/a	LTP323	ltpFR2	3	n/a	n/a	n/a	6	16	7	3	6
734591	PROB	n/a	LTP323	ltpFR2	3	n/a	n/a	n/a	6	22	6	8	8
738611	PROB	n/a	LTP323	ltpFR2	3	n/a	n/a	n/a	6	14	1	9	4
741167	PROB	n/a	LTP323	ltpFR2	3	n/a	n/a	n/a	6	8	4	2	2
743208	STOP	n/a	LTP323	ltpFR2	3	n/a	n/a	n/a	6	n/a	n/a	n/a	n/a
746272	REC_START	n/a	LTP323	ltpFR2	3	4	n/a	n/a	n/a	n/a	0	0	0
751005	REC_WORD	wordpools/wasnorm_wordpool_576.txt	LTP323	ltpFR2	3	4	FLASK	576	n/a	n/a	0	0	0
751684	REC_WORD	wordpools/wasnorm_wordpool_576.txt	LTP323	ltpFR2	3	4	RIFLE	1192	n/a	n/a	0	0	0
752431	REC_WORD	wordpools/wasnorm_wordpool_576.txt	LTP323	ltpFR2	3	4	HOSTESS	723	n/a	n/a	0	0	0
754368	REC_WORD	wordpools/wasnorm_wordpool_576.txt	LTP323	ltpFR2	3	4	FLASHLIGHT	575	n/a	n/a	0	0	0
755096	REC_WORD	wordpools/wasnorm_wordpool_576.txt	LTP323	ltpFR2	3	4	HOOD	714	n/a	n/a	0	0	0
759548	REC_WORD	wordpools/wasnorm_wordpool_576.txt	LTP323	ltpFR2	3	4	NIGHTGOWN	953	n/a	n/a	0	0	0
762610	REC_WORD	wordpools/wasnorm_wordpool_576.txt	LTP323	ltpFR2	3	4	SOFTBALL	1343	n/a	n/a	0	0	0
763403	REC_WORD	wordpools/wasnorm_wordpool_576.txt	LTP323	ltpFR2	3	4	RACKET	1155	n/a	n/a	0	0	0
764765	REC_WORD	wordpools/wasnorm_wordpool_576.txt	LTP323	ltpFR2	3	4	COCKTAIL	338	n/a	n/a	0	0	0
771747	REC_WORD	wordpools/wasnorm_wordpool_576.txt	LTP323	ltpFR2	3	4	BULLET	194	n/a	n/a	0	0	0
772284	REC_WORD	wordpools/wasnorm_wordpool_576.txt	LTP323	ltpFR2	3	4	TEACHER	1440	n/a	n/a	0	0	0
773218	REC_WORD	wordpools/wasnorm_wordpool_576.txt	LTP323	ltpFR2	3	4	PORTRAIT	1111	n/a	n/a	0	0	0
790202	REC_WORD	wordpools/wasnorm_wordpool_576.txt	LTP323	ltpFR2	3	4	HIGHWAY	707	n/a	n/a	0	0	0
836714	WORD	wordpools/wasnorm_wordpool_576.txt	LTP323	ltpFR2	3	5	GLOVE	642	n/a	n/a	0	0	0
839282	WORD	wordpools/wasnorm_wordpool_576.txt	LTP323	ltpFR2	3	5	BUNNY	198	n/a	n/a	0	0	0
842067	WORD	wordpools/wasnorm_wordpool_576.txt	LTP323	ltpFR2	3	5	SUITCASE	1403	n/a	n/a	0	0	0
844688	WORD	wordpools/wasnorm_wordpool_576.txt	LTP323	ltpFR2	3	5	CAFE	216	n/a	n/a	0	0	0
847172	WORD	wordpools/wasnorm_wordpool_576.txt	LTP323	ltpFR2	3	5	ACTRESS	6	n/a	n/a	0	0	0
849681	WORD	wordpools/wasnorm_wordpool_576.txt	LTP323	ltpFR2	3	5	LAVA	804	n/a	n/a	0	0	0
852482	WORD	wordpools/wasnorm_wordpool_576.txt	LTP323	ltpFR2	3	5	MARINE	869	n/a	n/a	0	0	0
855250	WORD	wordpools/wasnorm_wordpool_576.txt	LTP323	ltpFR2	3	5	FIDDLE	561	n/a	n/a	0	0	0
857885	WORD	wordpools/wasnorm_wordpool_576.txt	LTP323	ltpFR2	3	5	LIPSTICK	829	n/a	n/a	0	0	0
860383	WORD	wordpools/wasnorm_wordpool_576.txt	LTP323	ltpFR2	3	5	CATCHER	258	n/a	n/a	0	0	0
863040	WORD	wordpools/wasnorm_wordpool_576.txt	LTP323	ltpFR2	3	5	MARKER	870	n/a	n/a	0	0	0
865621	WORD	wordpools/wasnorm_wordpool_576.txt	LTP323	ltpFR2	3	5	DRILL	497	n/a	n/a	0	0	0
868339	WORD	wordpools/wasnorm_wordpool_576.txt	LTP323	ltpFR2	3	5	UMPIRE	1535	n/a	n/a	0	0	0
871092	WORD	wordpools/wasnorm_wordpool_576.txt	LTP323	ltpFR2	3	5	DOLPHIN	483	n/a	n/a	0	0	0
873662	WORD	wordpools/wasnorm_wordpool_576.txt	LTP323	ltpFR2	3	5	COUNTRY	388	n/a	n/a	0	0	0
876146	WORD	wordpools/wasnorm_wordpool_576.txt	LTP323	ltpFR2	3	5	TABLET	1427	n/a	n/a	0	0	0
878931	WORD	wordpools/wasnorm_wordpool_576.txt	LTP323	ltpFR2	3	5	MEDAL	885	n/a	n/a	0	0	0
881500	WORD	wordpools/wasnorm_wordpool_576.txt	LTP323	ltpFR2	3	5	AWARD	63	n/a	n/a	0	0	0
884052	WORD	wordpools/wasnorm_wordpool_576.txt	LTP323	ltpFR2	3	5	MILK	895	n/a	n/a	0	0	0
886689	WORD	wordpools/wasnorm_wordpool_576.txt	LTP323	ltpFR2	3	5	DRINK	498	n/a	n/a	0	0	0
889423	WORD	wordpools/wasnorm_wordpool_576.txt	LTP323	ltpFR2	3	5	LIZARD	834	n/a	n/a	0	0	0
892109	WORD	wordpools/wasnorm_wordpool_576.txt	LTP323	ltpFR2	3	5	PIGMENT	1066	n/a	n/a	0	0	0
894812	WORD	wordpools/wasnorm_wordpool_576.txt	LTP323	ltpFR2	3	5	BUBBLE	183	n/a	n/a	0	0	0
897549	WORD	wordpools/wasnorm_wordpool_576.txt	LTP323	ltpFR2	3	5	BATHTUB	100	n/a	n/a	0	0	0
899167	START	n/a	LTP323	ltpFR2	3	n/a	n/a	n/a	7	n/a	n/a	n/a	n/a
900218	DISTRACTOR	n/a	LTP323	ltpFR2	3	5	n/a	n/a	n/a	n/a	0	0	0
900233	PROB	n/a	LTP323	ltpFR2	3	n/a	n/a	n/a	7	12	1	3	8
903785	PROB	n/a	LTP323	ltpFR2	3	n/a	n/a	n/a	7	9	7	1	1
905270	PROB	n/a	LTP323	ltpFR2	3	n/a	n/a	n/a	7	11	6	2	3
907888	PROB	n/a	LTP323	ltpFR2	3	n/a	n/a	n/a	7	14	4	9	1
910056	PROB	n/a	LTP323	ltpFR2	3	n/a	n/a	n/a	7	22	7	7	8
912958	PROB	n/a	LTP323	ltpFR2	3	n/a	n/a	n/a	7	24	9	7	8
918330	PROB	n/a	LTP323	ltpFR2	3	n/a	n/a	n/a	7	13	3	7	3
923167	STOP	n/a	LTP323	ltpFR2	3	n/a	n/a	n/a	7	n/a	n/a	n/a	n/a
925070	REC_START	n/a	LTP323	ltpFR2	3	5	n/a	n/a	n/a	n/a	0	0	0
927671	REC_WORD	wordpools/wasnorm_wordpool_576.txt	LTP323	ltpFR2	3	5	GLOVE	642	n/a	n/a	0	0	0
928422	REC_WORD	wordpools/wasnorm_wordpool_576.txt	LTP323	ltpFR2	3	5	BUNNY	198	n/a	n/a	0	0	0
929350	REC_WORD	wordpools/wasnorm_wordpool_576.txt	LTP323	ltpFR2	3	5	BRIEFCASE	175	n/a	n/a	0	0	0
932564	REC_WORD	wordpools/wasnorm_wordpool_576.txt	LTP323	ltpFR2	3	5	CAFE	216	n/a	n/a	0	0	0
933204	REC_WORD	wordpools/wasnorm_wordpool_576.txt	LTP323	ltpFR2	3	5	ACTRESS	6	n/a	n/a	0	0	0
936680	REC_WORD	wordpools/wasnorm_wordpool_576.txt	LTP323	ltpFR2	3	5	MARINE	869	n/a	n/a	0	0	0
938153	REC_WORD	wordpools/wasnorm_wordpool_576.txt	LTP323	ltpFR2	3	5	LIZARD	834	n/a	n/a	0	0	0
939912	REC_WORD	wordpools/wasnorm_wordpool_576.txt	LTP323	ltpFR2	3	5	COUNTRY	388	n/a	n/a	0	0	0
941237	REC_WORD	wordpools/wasnorm_wordpool_576.txt	LTP323	ltpFR2	3	5	DOLPHIN	483	n/a	n/a	0	0	0
943798	REC_WORD	wordpools/wasnorm_wordpool_576.txt	LTP323	ltpFR2	3	5	MILK	895	n/a	n/a	0	0	0
944437	REC_WORD	wordpools/wasnorm_wordpool_576.txt	LTP323	ltpFR2	3	5	DRILL	497	n/a	n/a	0	0	0
950714	REC_WORD	wordpools/wasnorm_wordpool_576.txt	LTP323	ltpFR2	3	5	CATCHER	258	n/a	n/a	0	0	0
952076	REC_WORD	wordpools/wasnorm_wordpool_576.txt	LTP323	ltpFR2	3	5	ACTRESS	6	n/a	n/a	0	0	0
952722	REC_WORD	wordpools/wasnorm_wordpool_576.txt	LTP323	ltpFR2	3	5	MEDAL	885	n/a	n/a	0	0	0
953158	REC_WORD	wordpools/wasnorm_wordpool_576.txt	LTP323	ltpFR2	3	5	AWARD	63	n/a	n/a	0	0	0
956734	REC_WORD	wordpools/wasnorm_wordpool_576.txt	LTP323	ltpFR2	3	5	MARKER	870	n/a	n/a	0	0	0
957754	REC_WORD	wordpools/wasnorm_wordpool_576.txt	LTP323	ltpFR2	3	5	DRILL	497	n/a	n/a	0	0	0
963424	REC_WORD	wordpools/wasnorm_wordpool_576.txt	LTP323	ltpFR2	3	5	LIPSTICK	829	n/a	n/a	0	0	0
964468	REC_WORD	wordpools/wasnorm_wordpool_576.txt	LTP323	ltpFR2	3	5	PIGMENT	1066	n/a	n/a	0	0	0
975006	REC_WORD	wordpools/wasnorm_wordpool_576.txt	LTP323	ltpFR2	3	5	SUITCASE	1403	n/a	n/a	0	0	0
977048	REC_WORD	wordpools/wasnorm_wordpool_576.txt	LTP323	ltpFR2	3	5	CAFE	216	n/a	n/a	0	0	0
995925	REC_WORD	wordpools/wasnorm_wordpool_576.txt	LTP323	ltpFR2	3	5	AUTHOR	61	n/a	n/a	0	0	0
1015511	WORD	wordpools/wasnorm_wordpool_576.txt	LTP323	ltpFR2	3	6	HORNET	718	n/a	n/a	0	0	0
1018275	WORD	wordpools/wasnorm_wordpool_576.txt	LTP323	ltpFR2	3	6	FLIPPER	580	n/a	n/a	0	0	0
1020866	WORD	wordpools/wasnorm_wordpool_576.txt	LTP323	ltpFR2	3	6	APPLE	33	n/a	n/a	0	0	0
1023495	WORD	wordpools/wasnorm_wordpool_576.txt	LTP323	ltpFR2	3	6	PEBBLE	1035	n/a	n/a	0	0	0
1026097	WORD	wordpools/wasnorm_wordpool_576.txt	LTP323	ltpFR2	3	6	PISTON	1076	n/a	n/a	0	0	0
1028790	WORD	wordpools/wasnorm_wordpool_576.txt	LTP323	ltpFR2	3	6	GARBAGE	622	n/a	n/a	0	0	0
1031568	WORD	wordpools/wasnorm_wordpool_576.txt	LTP323	ltpFR2	3	6	CITRUS	313	n/a	n/a	0	0	0
1034294	WORD	wordpools/wasnorm_wordpool_576.txt	LTP323	ltpFR2	3	6	RIVER	1194	n/a	n/a	0	0	0
1037039	WORD	wordpools/wasnorm_wordpool_576.txt	LTP323	ltpFR2	3	6	PILOT	1070	n/a	n/a	0	0	0
1039600	WORD	wordpools/wasnorm_wordpool_576.txt	LTP323	ltpFR2	3	6	FRUIT	610	n/a	n/a	0	0	0
1042143	WORD	wordpools/wasnorm_wordpool_576.txt	LTP323	ltpFR2	3	6	GRAPE	654	n/a	n/a	0	0	0
1044786	WORD	wordpools/wasnorm_wordpool_576.txt	LTP323	ltpFR2	3	6	GUARD	667	n/a	n/a	0	0	0
1047388	WORD	wordpools/wasnorm_wordpool_576.txt	LTP323	ltpFR2	3	6	BLADE	134	n/a	n/a	0	0	0
1050024	WORD	wordpools/wasnorm_wordpool_576.txt	LTP323	ltpFR2	3	6	SWORD	1423	n/a	n/a	0	0	0
1052776	WORD	wordpools/wasnorm_wordpool_576.txt	LTP323	ltpFR2	3	6	ONION	977	n/a	n/a	0	0	0
1055445	WORD	wordpools/wasnorm_wordpool_576.txt	LTP323	ltpFR2	3	6	COD	340	n/a	n/a	0	0	0
1057897	WORD	wordpools/wasnorm_wordpool_576.txt	LTP323	ltpFR2	3	6	CHAPEL	280	n/a	n/a	0	0	0
1060316	WORD	wordpools/wasnorm_wordpool_576.txt	LTP323	ltpFR2	3	6	CATTLE	261	n/a	n/a	0	0	0
1062736	WORD	wordpools/wasnorm_wordpool_576.txt	LTP323	ltpFR2	3	6	JELLY	755	n/a	n/a	0	0	0
1065527	WORD	wordpools/wasnorm_wordpool_576.txt	LTP323	ltpFR2	3	6	WASP	1593	n/a	n/a	0	0	0
1068272	WORD	wordpools/wasnorm_wordpool_576.txt	LTP323	ltpFR2	3	6	CRATER	400	n/a	n/a	0	0	0
1070958	WORD	wordpools/wasnorm_wordpool_576.txt	LTP323	ltpFR2	3	6	PICNIC	1060	n/a	n/a	0	0	0
1073678	WORD	wordpools/wasnorm_wordpool_576.txt	LTP323	ltpFR2	3	6	RELISH	1183	n/a	n/a	0	0	0
1076262	WORD	wordpools/wasnorm_wordpool_576.txt	LTP323	ltpFR2	3	6	DINER	467	n/a	n/a	0	0	0
1077871	START	n/a	LTP323	ltpFR2	3	n/a	n/a	n/a	8	n/a	n/a	n/a	n/a
1078876	DISTRACTOR	n/a	LTP323	ltpFR2	3	6	n/a	n/a	n/a	n/a	0	0	0
1078881	PROB	n/a	LTP323	ltpFR2	3	n/a	n/a	n/a	8	10	6	2	2
1080766	PROB	n/a	LTP323	ltpFR2	3	n/a	n/a	n/a	8	16	1	6	9
1084486	PROB	n/a	LTP323	ltpFR2	3	n/a	n/a	n/a	8	20	5	8	7
1087254	PROB	n/a	LTP323	ltpFR2	3	n/a	n/a	n/a	8	27	9	9	9
1090006	PROB	n/a	LTP323	ltpFR2	3	n/a	n/a	n/a	8	9	1	6	2
1092141	PROB	n/a	LTP323	ltpFR2	3	n/a	n/a	n/a	8	16	5	7	4
1094076	PROB	n/a	LTP323	ltpFR2	3	n/a	n/a	n/a	8	11	6	4	1
1095445	PROB	n/a	LTP323	ltpFR2	3	n/a	n/a	n/a	8	20	8	7	5
1097648	PROB	n/a	LTP323	ltpFR2	3	n/a	n/a	n/a	8	19	7	3	9
1099080	PROB	n/a	LTP323	ltpFR2	3	n/a	n/a	n/a	8	15	5	8	2
1101216	STOP	n/a	LTP323	ltpFR2	3	n/a	n/a	n/a	8	n/a	n/a	n/a	n/a
1103784	REC_START	n/a	LTP323	ltpFR2	3	6	n/a	n/a	n/a	n/a	0	0	0
1106379	REC_WORD	wordpools/wasnorm_wordpool_576.txt	LTP323	ltpFR2	3	6	HORNET	718	n/a	n/a	0	0	0
1107994	REC_WORD	wordpools/wasnorm_wordpool_576.txt	LTP323	ltpFR2	3	6	WASP	1593	n/a	n/a	0	0	0
1111609	REC_WORD	wordpools/wasnorm_wordpool_576.txt	LTP323	ltpFR2	3	6	DINER	467	n/a	n/a	0	0	0
1113586	REC_WORD	wordpools/wasnorm_wordpool_576.txt	LTP323	ltpFR2	3	6	APPLE	33	n/a	n/a	0	0	0
1114517	REC_WORD	wordpools/wasnorm_wordpool_576.txt	LTP323	ltpFR2	3	6	GARBAGE	622	n/a	n/a	0	0	0
1116399	REC_WORD	wordpools/wasnorm_wordpool_576.txt	LTP323	ltpFR2	3	6	CITRUS	313	n/a	n/a	0	0	0
1119238	REC_WORD	wordpools/wasnorm_wordpool_576.txt	LTP323	ltpFR2	3	6	ONION	977	n/a	n/a	0	0	0
1120014	REC_WORD	wordpools/wasnorm_wordpool_576.txt	LTP323	ltpFR2	3	6	FRUIT	610	n/a	n/a	0	0	0
1121830	REC_WORD	wordpools/wasnorm_wordpool_576.txt	LTP323	ltpFR2	3	6	GRAPE	654	n/a	n/a	0	0	0
1130860	REC_WORD	wordpools/wasnorm_wordpool_576.txt	LTP323	ltpFR2	3	6	PISTON	1076	n/a	n/a	0	0	0
1132445	REC_WORD	wordpools/wasnorm_wordpool_576.txt	LTP323	ltpFR2	3	6	PEBBLE	1035	n/a	n/a	0	0	0
1142973	REC_WORD	wordpools/wasnorm_wordpool_576.txt	LTP323	ltpFR2	3	6	CRATER	400	n/a	n/a	0	0	0
1143553	REC_WORD	wordpools/wasnorm_wordpool_576.txt	LTP323	ltpFR2	3	6	RIVER	1194	n/a	n/a	0	0	0
1144361	REC_WORD	wordpools/wasnorm_wordpool_576.txt	LTP323	ltpFR2	3	6	PILOT	1070	n/a	n/a	0	0	0
1146637	REC_WORD	wordpools/wasnorm_wordpool_576.txt	LTP323	ltpFR2	3	6	BLADE	134	n/a	n/a	0	0	0
1148127	REC_WORD	wordpools/wasnorm_wordpool_576.txt	LTP323	ltpFR2	3	6	SWORD	1423	n/a	n/a	0	0	0
1150712	REC_WORD	wordpools/wasnorm_wordpool_576.txt	LTP323	ltpFR2	3	6	CHAPEL	280	n/a	n/a	0	0	0
1153399	REC_WORD	wordpools/wasnorm_wordpool_576.txt	LTP323	ltpFR2	3	6	COD	340	n/a	n/a	0	0	0
1157139	REC_WORD	wordpools/wasnorm_wordpool_576.txt	LTP323	ltpFR2	3	6	CATTLE	261	n/a	n/a	0	0	0
1194243	DISTRACTOR	n/a	LTP323	ltpFR2	3	7	n/a	n/a	n/a	n/a	0	0	0
1194243	START	n/a	LTP323	ltpFR2	3	n/a	n/a	n/a	9	n/a	n/a	n/a	n/a
1194260	PROB	n/a	LTP323	ltpFR2	3	n/a	n/a	n/a	9	14	2	6	9
1198512	PROB	n/a	LTP323	ltpFR2	3	n/a	n/a	n/a	9	16	5	9	2
1204749	PROB	n/a	LTP323	ltpFR2	3	n/a	n/a	n/a	9	5	2	2	1
1206300	PROB	n/a	LTP323	ltpFR2	3	n/a	n/a	n/a	9	13	3	2	8
1208202	PROB	n/a	LTP323	ltpFR2	3	n/a	n/a	n/a	9	12	6	5	1
1210053	PROB	n/a	LTP323	ltpFR2	3	n/a	n/a	n/a	9	6	1	2	3
1212505	PROB	n/a	LTP323	ltpFR2	3	n/a	n/a	n/a	9	13	5	1	7
1218243	STOP	n/a	LTP323	ltpFR2	3	n/a	n/a	n/a	9	n/a	n/a	n/a	n/a
1219278	WORD	wordpools/wasnorm_wordpool_576.txt	LTP323	ltpFR2	3	7	PIMPLE	1071	n/a	n/a	0	0	0
1222000	WORD	wordpools/wasnorm_wordpool_576.txt	LTP323	ltpFR2	3	7	PROTON	1132	n/a	n/a	0	0	0
1224502	WORD	wordpools/wasnorm_wordpool_576.txt	LTP323	ltpFR2	3	7	SIBLING	1301	n/a	n/a	0	0	0
1227234	WORD	wordpools/wasnorm_wordpool_576.txt	LTP323	ltpFR2	3	7	CRAYON	401	n/a	n/a	0	0	0
1229704	WORD	wordpools/wasnorm_wordpool_576.txt	LTP323	ltpFR2	3	7	SPIDER	1351	n/a	n/a	0	0	0
1232138	WORD	wordpools/wasnorm_wordpool_576.txt	LTP323	ltpFR2	3	7	DENIM	446	n/a	n/a	0	0	0
1234777	WORD	wordpools/wasnorm_wordpool_576.txt	LTP323	ltpFR2	3	7	FRANCE	601	n/a	n/a	0	0	0
1237413	WORD	wordpools/wasnorm_wordpool_576.txt	LTP323	ltpFR2	3	7	LONDON	843	n/a	n/a	0	0	0
1240061	WORD	wordpools/wasnorm_wordpool_576.txt	LTP323	ltpFR2	3	7	COUCH	386	n/a	n/a	0	0	0
1242596	WORD	wordpools/wasnorm_wordpool_576.txt	LTP323	ltpFR2	3	7	SLUG	1329	n/a	n/a	0	0	0
1245131	WORD	wordpools/wasnorm_wordpool_576.txt	LTP323	ltpFR2	3	7	PECAN	1036	n/a	n/a	0	0	0
1247689	WORD	wordpools/wasnorm_wordpool_576.txt	LTP323	ltpFR2	3	7	FOREST	593	n/a	n/a	0	0	0
1250340	WORD	wordpools/wasnorm_wordpool_576.txt	LTP323	ltpFR2	3	7	MAPLE	866	n/a	n/a	0	0	0
1252976	WORD	wordpools/wasnorm_wordpool_576.txt	LTP323	ltpFR2	3	7	SANDWICH	1232	n/a	n/a	0	0	0
1255595	WORD	wordpools/wasnorm_wordpool_576.txt	LTP323	ltpFR2	3	7	BUGGY	188	n/a	n/a	0	0	0
1258247	WORD	wordpools/wasnorm_wordpool_576.txt	LTP323	ltpFR2	3	7	BASEMENT	94	n/a	n/a	0	0	0
1260761	WORD	wordpools/wasnorm_wordpool_576.txt	LTP323	ltpFR2	3	7	FLESH	579	n/a	n/a	0	0	0
1263535	WORD	wordpools/wasnorm_wordpool_576.txt	LTP323	ltpFR2	3	7	CHEMIST	292	n/a	n/a	0	0	0
1266230	WORD	wordpools/wasnorm_wordpool_576.txt	LTP323	ltpFR2	3	7	SUPPER	1411	n/a	n/a	0	0	0
1268899	WORD	wordpools/wasnorm_wordpool_576.txt	LTP323	ltpFR2	3	7	DENTIST	447	n/a	n/a	0	0	0
1271568	WORD	wordpools/wasnorm_wordpool_576.txt	LTP323	ltpFR2	3	7	SCALPEL	1243	n/a	n/a	0	0	0
1274003	WORD	wordpools/wasnorm_wordpool_576.txt	LTP323	ltpFR2	3	7	SEAFOOD	1260	n/a	n/a	0	0	0
1276730	WORD	wordpools/wasnorm_wordpool_576.txt	LTP323	ltpFR2	3	7	BROTHER	179	n/a	n/a	0	0	0
1279223	WORD	wordpools/wasnorm_wordpool_576.txt	LTP323	ltpFR2	3	7	BLACKBOARD	133	n/a	n/a	0	0	0
1280833	START	n/a	LTP323	ltpFR2	3	n/a	n/a	n/a	10	n/a	n/a	n/a	n/a
1281859	DISTRACTOR	n/a	LTP323	ltpFR2	3	7	n/a	n/a	n/a	n/a	0	0	0
1281866	PROB	n/a	LTP323	ltpFR2	3	n/a	n/a	n/a	10	9	3	2	4
1284670	PROB	n/a	LTP323	ltpFR2	3	n/a	n/a	n/a	10	9	1	3	5
1286654	PROB	n/a	LTP323	ltpFR2	3	n/a	n/a	n/a	10	20	7	7	6
1288755	PROB	n/a	LTP323	ltpFR2	3	n/a	n/a	n/a	10	14	8	2	4
1290472	PROB	n/a	LTP323	ltpFR2	3	n/a	n/a	n/a	10	15	2	6	7
1293709	PROB	n/a	LTP323	ltpFR2	3	n/a	n/a	n/a	10	18	4	8	6
1295843	PROB	n/a	LTP323	ltpFR2	3	n/a	n/a	n/a	10	24	6	9	9
1299463	PROB	n/a	LTP323	ltpFR2	3	n/a	n/a	n/a	10	18	9	8	1
1304832	STOP	n/a	LTP323	ltpFR2	3	n/a	n/a	n/a	10	n/a	n/a	n/a	n/a
1306621	REC_START	n/a	LTP323	ltpFR2	3	7	n/a	n/a	n/a	n/a	0	0	0
1309196	REC_WORD	wordpools/wasnorm_wordpool_576.txt	LTP323	ltpFR2	3	7	CRAYON	401	n/a	n/a	0	0	0
1310177	REC_WORD	wordpools/wasnorm_wordpool_576.txt	LTP323	ltpFR2	3	7	SIBLING	1301	n/a	n/a	0	0	0
1310983	REC_WORD	wordpools/wasnorm_wordpool_576.txt	LTP323	ltpFR2	3	7	BROTHER	179	n/a	n/a	0	0	0
1312330	REC_WORD	wordpools/wasnorm_wordpool_576.txt	LTP323	ltpFR2	3	7	COUCH	386	n/a	n/a	0	0	0
1313938	REC_WORD	wordpools/wasnorm_wordpool_576.txt	LTP323	ltpFR2	3	7	SANDWICH	1232	n/a	n/a	0	0	0
1314938	REC_WORD_VV	wordpools/wasnorm_wordpool_576.txt	LTP323	ltpFR2	3	7	<>	-1	n/a	n/a	0	0	0
1315258	REC_WORD	wordpools/wasnorm_wordpool_576.txt	LTP323	ltpFR2	3	7	SLUG	1329	n/a	n/a	0	0	0
1316558	REC_WORD	wordpools/wasnorm_wordpool_576.txt	LTP323	ltpFR2	3	7	FLESH	579	n/a	n/a	0	0	0
1318229	REC_WORD	wordpools/wasnorm_wordpool_576.txt	LTP323	ltpFR2	3	7	BASEMENT	94	n/a	n/a	0	0	0
1320665	REC_WORD	wordpools/wasnorm_wordpool_576.txt	LTP323	ltpFR2	3	7	SUPPER	1411	n/a	n/a	0	0	0
1321860	REC_WORD	wordpools/wasnorm_wordpool_576.txt	LTP323	ltpFR2	3	7	DENTIST	447	n/a	n/a	0	0	0
1322903	REC_WORD	wordpools/wasnorm_wordpool_576.txt	LTP323	ltpFR2	3	7	SCALPEL	1243	n/a	n/a	0	0	0
1329008	REC_WORD	wordpools/wasnorm_wordpool_576.txt	LTP323	ltpFR2	3	7	FOREST	593	n/a	n/a	0	0	0
1329731	REC_WORD	wordpools/wasnorm_wordpool_576.txt	LTP323	ltpFR2	3	7	PECAN	1036	n/a	n/a	0	0	0
1331037	REC_WORD	wordpools/wasnorm_wordpool_576.txt	LTP323	ltpFR2	3	7	MAPLE	866	n/a	n/a	0	0	0
1342542	REC_WORD	wordpools/wasnorm_wordpool_576.txt	LTP323	ltpFR2	3	7	CHEMIST	292	n/a	n/a	0	0	0
1356090	REC_WORD	wordpools/wasnorm_wordpool_576.txt	LTP323	ltpFR2	3	7	BLACKBOARD	133	n/a	n/a	0	0	0
1366007	REC_WORD	wordpools/wasnorm_wordpool_576.txt	LTP323	ltpFR2	3	7	PIMPLE	1071	n/a	n/a	0	0	0
1370744	REC_WORD	wordpools/wasnorm_wordpool_576.txt	LTP323	ltpFR2	3	7	SANDWICH	1232	n/a	n/a	0	0	0
1397096	DISTRACTOR	n/a	LTP323	ltpFR2	3	8	n/a	n/a	n/a	n/a	0	0	0
1397096	START	n/a	LTP323	ltpFR2	3	n/a	n/a	n/a	11	n/a	n/a	n/a	n/a
1397111	PROB	n/a	LTP323	ltpFR2	3	n/a	n/a	n/a	11	11	1	8	2
1399113	PROB	n/a	LTP323	ltpFR2	3	n/a	n/a	n/a	11	18	9	3	6
1402115	PROB	n/a	LTP323	ltpFR2	3	n/a	n/a	n/a	11	14	4	8	2
1404417	PROB	n/a	LTP323	ltpFR2	3	n/a	n/a	n/a	11	21	8	4	9
1410372	PROB	n/a	LTP323	ltpFR2	3	n/a	n/a	n/a	11	27	9	9	9
1412207	PROB	n/a	LTP323	ltpFR2	3	n/a	n/a	n/a	11	10	4	2	4
1414843	PROB	n/a	LTP323	ltpFR2	3	n/a	n/a	n/a	11	18	6	9	3
1417361	PROB	n/a	LTP323	ltpFR2	3	n/a	n/a	n/a	11	18	5	5	8
1421096	STOP	n/a	LTP323	ltpFR2	3	n/a	n/a	n/a	11	n/a	n/a	n/a	n/a
1422082	WORD	wordpools/wasnorm_wordpool_576.txt	LTP323	ltpFR2	3	8	COOK	372	n/a	n/a	0	0	0
1424784	WORD	wordpools/wasnorm_wordpool_576.txt	LTP323	ltpFR2	3	8	BRANDY	169	n/a	n/a	0	0	0
1427403	WORD	wordpools/wasnorm_wordpool_576.txt	LTP323	ltpFR2	3	8	FUNGUS	614	n/a	n/a	0	0	0
1429989	WORD	wordpools/wasnorm_wordpool_576.txt	LTP323	ltpFR2	3	8	SLIME	1327	n/a	n/a	0	0	0
1432440	WORD	wordpools/wasnorm_wordpool_576.txt	LTP323	ltpFR2	3	8	COBRA	336	n/a	n/a	0	0	0
1435192	WORD	wordpools/wasnorm_wordpool_576.txt	LTP323	ltpFR2	3	8	SLOPE	1328	n/a	n/a	0	0	0
1437995	WORD	wordpools/wasnorm_wordpool_576.txt	LTP323	ltpFR2	3	8	STOMACH	1384	n/a	n/a	0	0	0
1440717	WORD	wordpools/wasnorm_wordpool_576.txt	LTP323	ltpFR2	3	8	LION	827	n/a	n/a	0	0	0
1443482	WORD	wordpools/wasnorm_wordpool_576.txt	LTP323	ltpFR2	3	8	PATROL	1027	n/a	n/a	0	0	0
1446217	WORD	wordpools/wasnorm_wordpool_576.txt	LTP323	ltpFR2	3	8	STAMP	1370	n/a	n/a	0	0	0
1448786	WORD	wordpools/wasnorm_wordpool_576.txt	LTP323	ltpFR2	3	8	NAPKIN	937	n/a	n/a	0	0	0
1451239	WORD	wordpools/wasnorm_wordpool_576.txt	LTP323	ltpFR2	3	8	TURTLE	1522	n/a	n/a	0	0	0
1454027	WORD	wordpools/wasnorm_wordpool_576.txt	LTP323	ltpFR2	3	8	OYSTER	995	n/a	n/a	0	0	0
1456726	WORD	wordpools/wasnorm_wordpool_576.txt	LTP323	ltpFR2	3	8	LEOPARD	812	n/a	n/a	0	0	0
1459361	WORD	wordpools/wasnorm_wordpool_576.txt	LTP323	ltpFR2	3	8	CUPBOARD	425	n/a	n/a	0	0	0
1462096	WORD	wordpools/wasnorm_wordpool_576.txt	LTP323	ltpFR2	3	8	HANDBAG	684	n/a	n/a	0	0	0
1464650	WORD	wordpools/wasnorm_wordpool_576.txt	LTP323	ltpFR2	3	8	XEROX	1628	n/a	n/a	0	0	0
1467204	WORD	wordpools/wasnorm_wordpool_576.txt	LTP323	ltpFR2	3	8	MACHINE	852	n/a	n/a	0	0	0
1469840	WORD	wordpools/wasnorm_wordpool_576.txt	LTP323	ltpFR2	3	8	TRANSPLANT	1496	n/a	n/a	0	0	0
1472337	WORD	wordpools/wasnorm_wordpool_576.txt	LTP323	ltpFR2	3	8	PERCH	1048	n/a	n/a	0	0	0
1475028	WORD	wordpools/wasnorm_wordpool_576.txt	LTP323	ltpFR2	3	8	HONEY	713	n/a	n/a	0	0	0
1477458	WORD	wordpools/wasnorm_wordpool_576.txt	LTP323	ltpFR2	3	8	FOREHEAD	592	n/a	n/a	0	0	0
1480115	WORD	wordpools/wasnorm_wordpool_576.txt	LTP323	ltpFR2	3	8	MATCH	878	n/a	n/a	0	0	0
1482730	WORD	wordpools/wasnorm_wordpool_576.txt	LTP323	ltpFR2	3	8	KLEENEX	782	n/a	n/a	0	0	0
1484335	START	n/a	LTP323	ltpFR2	3	n/a	n/a	n/a	12	n/a	n/a	n/a	n/a
1485281	DISTRACTOR	n/a	LTP323	ltpFR2	3	8	n/a	n/a	n/a	n/a	0	0	0
1485286	PROB	n/a	LTP323	ltpFR2	3	n/a	n/a	n/a	12	20	8	8	4
1489555	PROB	n/a	LTP323	ltpFR2	3	n/a	n/a	n/a	12	22	8	6	8
1491775	PROB	n/a	LTP323	ltpFR2	3	n/a	n/a	n/a	12	21	9	4	8
1494926	PROB	n/a	LTP323	ltpFR2	3	n/a	n/a	n/a	12	9	1	6	2
1496944	PROB	n/a	LTP323	ltpFR2	3	n/a	n/a	n/a	12	11	6	3	2
1498863	PROB	n/a	LTP323	ltpFR2	3	n/a	n/a	n/a	12	8	1	1	6
1500315	PROB	n/a	LTP323	ltpFR2	3	n/a	n/a	n/a	12	21	8	7	6
1504736	PROB	n/a	LTP323	ltpFR2	3	n/a	n/a	n/a	12	16	9	2	5
1508200	STOP	n/a	LTP323	ltpFR2	3	n/a	n/a	n/a	12	n/a	n/a	n/a	n/a
1510272	REC_START	n/a	LTP323	ltpFR2	3	8	n/a	n/a	n/a	n/a	0	0	0
1511237	REC_WORD	wordpools/wasnorm_wordpool_576.txt	LTP323	ltpFR2	3	8	COOK	372	n/a	n/a	0	0	0
1511830	REC_WORD	wordpools/wasnorm_wordpool_576.txt	LTP323	ltpFR2	3	8	BRANDY	169	n/a	n/a	0	0	0
1512370	REC_WORD	wordpools/wasnorm_wordpool_576.txt	LTP323	ltpFR2	3	8	FUNGUS	614	n/a	n/a	0	0	0
1515852	REC_WORD	wordpools/wasnorm_wordpool_576.txt	LTP323	ltpFR2	3	8	SLIME	1327	n/a	n/a	0	0	0
1520295	REC_WORD	wordpools/wasnorm_wordpool_576.txt	LTP323	ltpFR2	3	8	SLOPE	1328	n/a	n/a	0	0	0
1522834	REC_WORD	wordpools/wasnorm_wordpool_576.txt	LTP323	ltpFR2	3	8	COBRA	336	n/a	n/a	0	0	0
1524311	REC_WORD	wordpools/wasnorm_wordpool_576.txt	LTP323	ltpFR2	3	8	STOMACH	1384	n/a	n/a	0	0	0
1525839	REC_WORD	wordpools/wasnorm_wordpool_576.txt	LTP323	ltpFR2	3	8	LION	827	n/a	n/a	0	0	0
1526355	REC_WORD	wordpools/wasnorm_wordpool_576.txt	LTP323	ltpFR2	3	8	LEOPARD	812	n/a	n/a	0	0	0
1527253	REC_WORD	wordpools/wasnorm_wordpool_576.txt	LTP323	ltpFR2	3	8	PATROL	1027	n/a	n/a	0	0	0
1536104	REC_WORD	wordpools/wasnorm_wordpool_576.txt	LTP323	ltpFR2	3	8	TURTLE	1522	n/a	n/a	0	0	0
1536709	REC_WORD	wordpools/wasnorm_wordpool_576.txt	LTP323	ltpFR2	3	8	OYSTER	995	n/a	n/a	0	0	0
1540780	REC_WORD	wordpools/wasnorm_wordpool_576.txt	LTP323	ltpFR2	3	8	TRANSPLANT	1496	n/a	n/a	0	0	0
1541552	REC_WORD	wordpools/wasnorm_wordpool_576.txt	LTP323	ltpFR2	3	8	XEROX	1628	n/a	n/a	0	0	0
1542552	REC_WORD_VV	wordpools/wasnorm_wordpool_576.txt	LTP323	ltpFR2	3	8	<>	-1	n/a	n/a	0	0	0
1544103	REC_WORD	wordpools/wasnorm_wordpool_576.txt	LTP323	ltpFR2	3	8	MACHINE	852	n/a	n/a	0	0	0
1555537	REC_WORD	wordpools/wasnorm_wordpool_576.txt	LTP323	ltpFR2	3	8	FOREHEAD	592	n/a	n/a	0	0	0
1556414	REC_WORD	wordpools/wasnorm_wordpool_576.txt	LTP323	ltpFR2	3	8	HONEY	713	n/a	n/a	0	0	0
1556942	REC_WORD	wordpools/wasnorm_wordpool_576.txt	LTP323	ltpFR2	3	8	PERCH	1048	n/a	n/a	0	0	0
1586803	REST_REWET	n/a	LTP323	ltpFR2	3	8	n/a	n/a	n/a	n/a	0	0	0
1784718	WORD	wordpools/wasnorm_wordpool_576.txt	LTP323	ltpFR2	3	9	GHETTO	633	n/a	n/a	0	0	0
1787287	WORD	wordpools/wasnorm_wordpool_576.txt	LTP323	ltpFR2	3	9	MONEY	908	n/a	n/a	0	0	0
1789889	WORD	wordpools/wasnorm_wordpool_576.txt	LTP323	ltpFR2	3	9	BANK	83	n/a	n/a	0	0	0
1792666	WORD	wordpools/wasnorm_wordpool_576.txt	LTP323	ltpFR2	3	9	LOVER	846	n/a	n/a	0	0	0
1795418	WORD	wordpools/wasnorm_wordpool_576.txt	LTP323	ltpFR2	3	9	FLAG	573	n/a	n/a	0	0	0
1798186	WORD	wordpools/wasnorm_wordpool_576.txt	LTP323	ltpFR2	3	9	PENGUIN	1044	n/a	n/a	0	0	0
1800954	WORD	wordpools/wasnorm_wordpool_576.txt	LTP323	ltpFR2	3	9	DRESS	495	n/a	n/a	0	0	0
1803652	WORD	wordpools/wasnorm_wordpool_576.txt	LTP323	ltpFR2	3	9	DASHBOARD	441	n/a	n/a	0	0	0
1806375	WORD	wordpools/wasnorm_wordpool_576.txt	LTP323	ltpFR2	3	9	FRAME	600	n/a	n/a	0	0	0
1809078	WORD	wordpools/wasnorm_wordpool_576.txt	LTP323	ltpFR2	3	9	POET	1095	n/a	n/a	0	0	0
1811841	WORD	wordpools/wasnorm_wordpool_576.txt	LTP323	ltpFR2	3	9	CROSS	413	n/a	n/a	0	0	0
1814449	WORD	wordpools/wasnorm_wordpool_576.txt	LTP323	ltpFR2	3	9	FRIEND	606	n/a	n/a	0	0	0
1816900	WORD	wordpools/wasnorm_wordpool_576.txt	LTP323	ltpFR2	3	9	LAGOON	795	n/a	n/a	0	0	0
1819497	WORD	wordpools/wasnorm_wordpool_576.txt	LTP323	ltpFR2	3	9	FIREMAN	569	n/a	n/a	0	0	0
1822071	WORD	wordpools/wasnorm_wordpool_576.txt	LTP323	ltpFR2	3	9	HELMET	702	n/a	n/a	0	0	0
1824602	WORD	wordpools/wasnorm_wordpool_576.txt	LTP323	ltpFR2	3	9	SWAMP	1416	n/a	n/a	0	0	0
1827170	WORD	wordpools/wasnorm_wordpool_576.txt	LTP323	ltpFR2	3	9	HORSE	719	n/a	n/a	0	0	0
1829805	WORD	wordpools/wasnorm_wordpool_576.txt	LTP323	ltpFR2	3	9	COWBOY	395	n/a	n/a	0	0	0
1832541	WORD	wordpools/wasnorm_wordpool_576.txt	LTP323	ltpFR2	3	9	ZEBRA	1635	n/a	n/a	0	0	0
1835226	WORD	wordpools/wasnorm_wordpool_576.txt	LTP323	ltpFR2	3	9	GARDEN	623	n/a	n/a	0	0	0
1838029	WORD	wordpools/wasnorm_wordpool_576.txt	LTP323	ltpFR2	3	9	EYELASH	546	n/a	n/a	0	0	0
1840831	WORD	wordpools/wasnorm_wordpool_576.txt	LTP323	ltpFR2	3	9	STAKE	1368	n/a	n/a	0	0	0
1843300	WORD	wordpools/wasnorm_wordpool_576.txt	LTP323	ltpFR2	3	9	BURGLAR	200	n/a	n/a	0	0	0
1846018	WORD	wordpools/wasnorm_wordpool_576.txt	LTP323	ltpFR2	3	9	HARP	689	n/a	n/a	0	0	0
1847626	START	n/a	LTP323	ltpFR2	3	n/a	n/a	n/a	13	n/a	n/a	n/a	n/a
1848492	DISTRACTOR	n/a	LTP323	ltpFR2	3	9	n/a	n/a	n/a	n/a	0	0	0
1848504	PROB	n/a	LTP323	ltpFR2	3	n/a	n/a	n/a	13	23	7	8	8
1852941	PROB	n/a	LTP323	ltpFR2	3	n/a	n/a	n/a	13	16	4	8	4
1855408	PROB	n/a	LTP323	ltpFR2	3	n/a	n/a	n/a	13	13	8	3	2
1857110	PROB	n/a	LTP323	ltpFR2	3	n/a	n/a	n/a	13	7	5	1	1
1858395	PROB	n/a	LTP323	ltpFR2	3	n/a	n/a	n/a	13	10	4	3	3
1860363	PROB	n/a	LTP323	ltpFR2	3	n/a	n/a	n/a	13	22	9	7	6
1863332	PROB	n/a	LTP323	ltpFR2	3	n/a	n/a	n/a	13	1	5	2	7
1871626	STOP	n/a	LTP323	ltpFR2	3	n/a	n/a	n/a	13	n/a	n/a	n/a	n/a
1873394	REC_START	n/a	LTP323	ltpFR2	3	9	n/a	n/a	n/a	n/a	0	0	0
1875531	REC_WORD	wordpools/wasnorm_wordpool_576.txt	LTP323	ltpFR2	3	9	GHETTO	633	n/a	n/a	0	0	0
1875966	REC_WORD	wordpools/wasnorm_wordpool_576.txt	LTP323	ltpFR2	3	9	MONEY	908	n/a	n/a	0	0	0
1876583	REC_WORD	wordpools/wasnorm_wordpool_576.txt	LTP323	ltpFR2	3	9	BANK	83	n/a	n/a	0	0	0
1879688	REC_WORD	wordpools/wasnorm_wordpool_576.txt	LTP323	ltpFR2	3	9	PENGUIN	1044	n/a	n/a	0	0	0
1882189	REC_WORD	wordpools/wasnorm_wordpool_576.txt	LTP323	ltpFR2	3	9	DRESS	495	n/a	n/a	0	0	0
1884435	REC_WORD	wordpools/wasnorm_wordpool_576.txt	LTP323	ltpFR2	3	9	LOVER	846	n/a	n/a	0	0	0
1887697	REC_WORD	wordpools/wasnorm_wordpool_576.txt	LTP323	ltpFR2	3	9	DASHBOARD	441	n/a	n/a	0	0	0
1888353	REC_WORD	wordpools/wasnorm_wordpool_576.txt	LTP323	ltpFR2	3	9	FRAME	600	n/a	n/a	0	0	0
1891850	REC_WORD	wordpools/wasnorm_wordpool_576.txt	LTP323	ltpFR2	3	9	FIREMAN	569	n/a	n/a	0	0	0
1892408	REC_WORD	wordpools/wasnorm_wordpool_576.txt	LTP323	ltpFR2	3	9	HELMET	702	n/a	n/a	0	0	0
1893883	REC_WORD	wordpools/wasnorm_wordpool_576.txt	LTP323	ltpFR2	3	9	LAGOON	795	n/a	n/a	0	0	0
1894758	REC_WORD	wordpools/wasnorm_wordpool_576.txt	LTP323	ltpFR2	3	9	SWAMP	1416	n/a	n/a	0	0	0
1896240	REC_WORD	wordpools/wasnorm_wordpool_576.txt	LTP323	ltpFR2	3	9	HORSE	719	n/a	n/a	0	0	0
1897117	REC_WORD	wordpools/wasnorm_wordpool_576.txt	LTP323	ltpFR2	3	9	COWBOY	395	n/a	n/a	0	0	0
1897907	REC_WORD	wordpools/wasnorm_wordpool_576.txt	LTP323	ltpFR2	3	9	BURGLAR	200	n/a	n/a	0	0	0
1900376	REC_WORD	wordpools/wasnorm_wordpool_576.txt	LTP323	ltpFR2	3	9	EYELASH	546	n/a	n/a	0	0	0
1903837	REC_WORD	wordpools/wasnorm_wordpool_576.txt	LTP323	ltpFR2	3	9	GARDEN	623	n/a	n/a	0	0	0
1963845	WORD	wordpools/wasnorm_wordpool_576.txt	LTP323	ltpFR2	3	10	FLUTE	585	n/a	n/a	0	0	0
1966547	WORD	wordpools/wasnorm_wordpool_576.txt	LTP323	ltpFR2	3	10	SNAKE	1333	n/a	n/a	0	0	0
1969156	WORD	wordpools/wasnorm_wordpool_576.txt	LTP323	ltpFR2	3	10	RATTLE	1170	n/a	n/a	0	0	0
1971874	WORD	wordpools/wasnorm_wordpool_576.txt	LTP323	ltpFR2	3	10	SHELTER	1282	n/a	n/a	0	0	0
1974644	WORD	wordpools/wasnorm_wordpool_576.txt	LTP323	ltpFR2	3	10	DORM	488	n/a	n/a	0	0	0
1977439	WORD	wordpools/wasnorm_wordpool_576.txt	LTP323	ltpFR2	3	10	STICKER	1382	n/a	n/a	0	0	0
1979941	WORD	wordpools/wasnorm_wordpool_576.txt	LTP323	ltpFR2	3	10	MUFFIN	929	n/a	n/a	0	0	0
1982734	WORD	wordpools/wasnorm_wordpool_576.txt	LTP323	ltpFR2	3	10	WARDROBE	1587	n/a	n/a	0	0	0
1985412	WORD	wordpools/wasnorm_wordpool_576.txt	LTP323	ltpFR2	3	10	BREAST	171	n/a	n/a	0	0	0
1988154	WORD	wordpools/wasnorm_wordpool_576.txt	LTP323	ltpFR2	3	10	SHORTCAKE	1292	n/a	n/a	0	0	0
1990883	WORD	wordpools/wasnorm_wordpool_576.txt	LTP323	ltpFR2	3	10	LIVER	833	n/a	n/a	0	0	0
1993485	WORD	wordpools/wasnorm_wordpool_576.txt	LTP323	ltpFR2	3	10	LAMP	798	n/a	n/a	0	0	0
1995960	WORD	wordpools/wasnorm_wordpool_576.txt	LTP323	ltpFR2	3	10	NECKLACE	940	n/a	n/a	0	0	0
1998455	WORD	wordpools/wasnorm_wordpool_576.txt	LTP323	ltpFR2	3	10	WRIST	1626	n/a	n/a	0	0	0
2001124	WORD	wordpools/wasnorm_wordpool_576.txt	LTP323	ltpFR2	3	10	BELLY	119	n/a	n/a	0	0	0
2003826	WORD	wordpools/wasnorm_wordpool_576.txt	LTP323	ltpFR2	3	10	STOVE	1388	n/a	n/a	0	0	0
2006419	WORD	wordpools/wasnorm_wordpool_576.txt	LTP323	ltpFR2	3	10	WRENCH	1625	n/a	n/a	0	0	0
2009088	WORD	wordpools/wasnorm_wordpool_576.txt	LTP323	ltpFR2	3	10	MARKET	871	n/a	n/a	0	0	0
2011775	WORD	wordpools/wasnorm_wordpool_576.txt	LTP323	ltpFR2	3	10	PLASTER	1085	n/a	n/a	0	0	0
2014318	WORD	wordpools/wasnorm_wordpool_576.txt	LTP323	ltpFR2	3	10	CONCERT	360	n/a	n/a	0	0	0
2017044	WORD	wordpools/wasnorm_wordpool_576.txt	LTP323	ltpFR2	3	10	COSTUME	383	n/a	n/a	0	0	0
2019805	WORD	wordpools/wasnorm_wordpool_576.txt	LTP323	ltpFR2	3	10	CLAM	315	n/a	n/a	0	0	0
2022573	WORD	wordpools/wasnorm_wordpool_576.txt	LTP323	ltpFR2	3	10	GALLON	618	n/a	n/a	0	0	0
2025068	WORD	wordpools/wasnorm_wordpool_576.txt	LTP323	ltpFR2	3	10	CASHIER	254	n/a	n/a	0	0	0
2026679	START	n/a	LTP323	ltpFR2	3	n/a	n/a	n/a	14	n/a	n/a	n/a	n/a
2027553	DISTRACTOR	n/a	LTP323	ltpFR2	3	10	n/a	n/a	n/a	n/a	0	0	0
2027560	PROB	n/a	LTP323	ltpFR2	3	n/a	n/a	n/a	14	14	4	5	5
2029937	PROB	n/a	LTP323	ltpFR2	3	n/a	n/a	n/a	14	5	3	1	1
2031205	PROB	n/a	LTP323	ltpFR2	3	n/a	n/a	n/a	14	9	1	7	1
2032856	PROB	n/a	LTP323	ltpFR2	3	n/a	n/a	n/a	14	1	5	4	2
2034759	PROB	n/a	LTP323	ltpFR2	3	n/a	n/a	n/a	14	13	9	1	3
2040212	PROB	n/a	LTP323	ltpFR2	3	n/a	n/a	n/a	14	17	6	2	9
2042231	PROB	n/a	LTP323	ltpFR2	3	n/a	n/a	n/a	14	19	9	1	9
2044250	PROB	n/a	LTP323	ltpFR2	3	n/a	n/a	n/a	14	16	6	8	2
2045968	PROB	n/a	LTP323	ltpFR2	3	n/a	n/a	n/a	14	10	2	1	7
2047487	PROB	n/a	LTP323	ltpFR2	3	n/a	n/a	n/a	14	18	9	5	4
2050679	STOP	n/a	LTP323	ltpFR2	3	n/a	n/a	n/a	14	n/a	n/a	n/a	n/a
2052423	REC_START	n/a	LTP323	ltpFR2	3	10	n/a	n/a	n/a	n/a	0	0	0
2055380	REC_WORD	wordpools/wasnorm_wordpool_576.txt	LTP323	ltpFR2	3	10	PLASTER	1085	n/a	n/a	0	0	0
2056064	REC_WORD	wordpools/wasnorm_wordpool_576.txt	LTP323	ltpFR2	3	10	LIVER	833	n/a	n/a	0	0	0
2056563	REC_WORD	wordpools/wasnorm_wordpool_576.txt	LTP323	ltpFR2	3	10	CONCERT	360	n/a	n/a	0	0	0
2060117	REC_WORD	wordpools/wasnorm_wordpool_576.txt	LTP323	ltpFR2	3	10	BELLY	119	n/a	n/a	0	0	0
2060605	REC_WORD	wordpools/wasnorm_wordpool_576.txt	LTP323	ltpFR2	3	10	WARDROBE	1587	n/a	n/a	0	0	0
2061990	REC_WORD	wordpools/wasnorm_wordpool_576.txt	LTP323	ltpFR2	3	10	BREAST	171	n/a	n/a	0	0	0
2062378	REC_WORD	wordpools/wasnorm_wordpool_576.txt	LTP323	ltpFR2	3	10	NECKLACE	940	n/a	n/a	0	0	0
2064900	REC_WORD	wordpools/wasnorm_wordpool_576.txt	LTP323	ltpFR2	3	10	WRIST	1626	n/a	n/a	0	0	0
2065811	REC_WORD	wordpools/wasnorm_wordpool_576.txt	LTP323	ltpFR2	3	10	STOVE	1388	n/a	n/a	0	0	0
2070286	REC_WORD	wordpools/wasnorm_wordpool_576.txt	LTP323	ltpFR2	3	10	MARKET	871	n/a	n/a	0	0	0
2078512	REC_WORD	wordpools/wasnorm_wordpool_576.txt	LTP323	ltpFR2	3	10	CLAM	315	n/a	n/a	0	0	0
2079043	REC_WORD	wordpools/wasnorm_wordpool_576.txt	LTP323	ltpFR2	3	10	GALLON	618	n/a	n/a	0	0	0
2079679	REC_WORD	wordpools/wasnorm_wordpool_576.txt	LTP323	ltpFR2	3	10	CASHIER	254	n/a	n/a	0	0	0
2083186	REC_WORD	wordpools/wasnorm_wordpool_576.txt	LTP323	ltpFR2	3	10	COSTUME	383	n/a	n/a	0	0	0
2089419	REC_WORD	wordpools/wasnorm_wordpool_576.txt	LTP323	ltpFR2	3	10	SHORTCAKE	1292	n/a	n/a	0	0	0
2098547	REC_WORD	wordpools/wasnorm_wordpool_576.txt	LTP323	ltpFR2	3	10	SNAKE	1333	n/a	n/a	0	0	0
2099096	REC_WORD	wordpools/wasnorm_wordpool_576.txt	LTP323	ltpFR2	3	10	FLUTE	585	n/a	n/a	0	0	0
2101112	REC_WORD	wordpools/wasnorm_wordpool_576.txt	LTP323	ltpFR2	3	10	DORM	488	n/a	n/a	0	0	0
2101464	REC_WORD	wordpools/wasnorm_wordpool_576.txt	LTP323	ltpFR2	3	10	SHELTER	1282	n/a	n/a	0	0	0
2107978	REC_WORD	wordpools/wasnorm_wordpool_576.txt	LTP323	ltpFR2	3	10	RATTLE	1170	n/a	n/a	0	0	0
2142898	WORD	wordpools/wasnorm_wordpool_576.txt	LTP323	ltpFR2	3	11	PUPIL	1143	n/a	n/a	0	0	0
2145602	WORD	wordpools/wasnorm_wordpool_576.txt	LTP323	ltpFR2	3	11	RABBIT	1152	n/a	n/a	0	0	0
2148320	WORD	wordpools/wasnorm_wordpool_576.txt	LTP323	ltpFR2	3	11	MARS	873	n/a	n/a	0	0	0
2150772	WORD	wordpools/wasnorm_wordpool_576.txt	LTP323	ltpFR2	3	11	CANYON	235	n/a	n/a	0	0	0
2153340	WORD	wordpools/wasnorm_wordpool_576.txt	LTP323	ltpFR2	3	11	CARROT	249	n/a	n/a	0	0	0
2156142	WORD	wordpools/wasnorm_wordpool_576.txt	LTP323	ltpFR2	3	11	GREASE	660	n/a	n/a	0	0	0
2158961	WORD	wordpools/wasnorm_wordpool_576.txt	LTP323	ltpFR2	3	11	BARREL	91	n/a	n/a	0	0	0
2161579	WORD	wordpools/wasnorm_wordpool_576.txt	LTP323	ltpFR2	3	11	RUG	1215	n/a	n/a	0	0	0
2164215	WORD	wordpools/wasnorm_wordpool_576.txt	LTP323	ltpFR2	3	11	CEILING	265	n/a	n/a	0	0	0
2166768	WORD	wordpools/wasnorm_wordpool_576.txt	LTP323	ltpFR2	3	11	SCARECROW	1245	n/a	n/a	0	0	0
2169486	WORD	wordpools/wasnorm_wordpool_576.txt	LTP323	ltpFR2	3	11	LUGGAGE	847	n/a	n/a	0	0	0
2172224	WORD	wordpools/wasnorm_wordpool_576.txt	LTP323	ltpFR2	3	11	SAUSAGE	1238	n/a	n/a	0	0	0
2174974	WORD	wordpools/wasnorm_wordpool_576.txt	LTP323	ltpFR2	3	11	MAILMAN	858	n/a	n/a	0	0	0
2177512	WORD	wordpools/wasnorm_wordpool_576.txt	LTP323	ltpFR2	3	11	SEAL	1262	n/a	n/a	0	0	0
2180294	WORD	wordpools/wasnorm_wordpool_576.txt	LTP323	ltpFR2	3	11	HUSBAND	728	n/a	n/a	0	0	0
2182813	WORD	wordpools/wasnorm_wordpool_576.txt	LTP323	ltpFR2	3	11	BACON	67	n/a	n/a	0	0	0
2185298	WORD	wordpools/wasnorm_wordpool_576.txt	LTP323	ltpFR2	3	11	DANDRUFF	439	n/a	n/a	0	0	0
2188049	WORD	wordpools/wasnorm_wordpool_576.txt	LTP323	ltpFR2	3	11	AIRPLANE	12	n/a	n/a	0	0	0
2190603	WORD	wordpools/wasnorm_wordpool_576.txt	LTP323	ltpFR2	3	11	GAVEL	627	n/a	n/a	0	0	0
2193337	WORD	wordpools/wasnorm_wordpool_576.txt	LTP323	ltpFR2	3	11	CUSTARD	429	n/a	n/a	0	0	0
2196156	WORD	wordpools/wasnorm_wordpool_576.txt	LTP323	ltpFR2	3	11	BLENDER	136	n/a	n/a	0	0	0
2198579	WORD	wordpools/wasnorm_wordpool_576.txt	LTP323	ltpFR2	3	11	SISTER	1312	n/a	n/a	0	0	0
2201077	WORD	wordpools/wasnorm_wordpool_576.txt	LTP323	ltpFR2	3	11	SALMON	1227	n/a	n/a	0	0	0
2203680	WORD	wordpools/wasnorm_wordpool_576.txt	LTP323	ltpFR2	3	11	CRITIC	410	n/a	n/a	0	0	0
2205285	START	n/a	LTP323	ltpFR2	3	n/a	n/a	n/a	15	n/a	n/a	n/a	n/a
2206279	DISTRACTOR	n/a	LTP323	ltpFR2	3	11	n/a	n/a	n/a	n/a	0	0	0
2206286	PROB	n/a	LTP323	ltpFR2	3	n/a	n/a	n/a	15	14	4	5	5
2208721	PROB	n/a	LTP323	ltpFR2	3	n/a	n/a	n/a	15	17	4	5	8
2211038	PROB	n/a	LTP323	ltpFR2	3	n/a	n/a	n/a	15	8	5	1	2
2213125	PROB	n/a	LTP323	ltpFR2	3	n/a	n/a	n/a	15	8	3	4	1
2215009	PROB	n/a	LTP323	ltpFR2	3	n/a	n/a	n/a	15	13	2	9	2
2217345	PROB	n/a	LTP323	ltpFR2	3	n/a	n/a	n/a	15	13	1	4	8
2219312	PROB	n/a	LTP323	ltpFR2	3	n/a	n/a	n/a	15	20	9	4	7
2221715	PROB	n/a	LTP323	ltpFR2	3	n/a	n/a	n/a	15	10	1	8	1
2223181	PROB	n/a	LTP323	ltpFR2	3	n/a	n/a	n/a	15	1	8	1	2
2229285	STOP	n/a	LTP323	ltpFR2	3	n/a	n/a	n/a	15	n/a	n/a	n/a	n/a
2231124	REC_START	n/a	LTP323	ltpFR2	3	11	n/a	n/a	n/a	n/a	0	0	0
2233146	REC_WORD	wordpools/wasnorm_wordpool_576.txt	LTP323	ltpFR2	3	11	GAVEL	627	n/a	n/a	0	0	0
2233614	REC_WORD	wordpools/wasnorm_wordpool_576.txt	LTP323	ltpFR2	3	11	CUSTARD	429	n/a	n/a	0	0	0
2234360	REC_WORD	wordpools/wasnorm_wordpool_576.txt	LTP323	ltpFR2	3	11	BLENDER	136	n/a	n/a	0	0	0
2234903	REC_WORD	wordpools/wasnorm_wordpool_576.txt	LTP323	ltpFR2	3	11	SISTER	1312	n/a	n/a	0	0	0
2235585	REC_WORD	wordpools/wasnorm_wordpool_576.txt	LTP323	ltpFR2	3	11	HUSBAND	728	n/a	n/a	0	0	0
2236585	REC_WORD_VV	wordpools/wasnorm_wordpool_576.txt	LTP323	ltpFR2	3	11	<>	-1	n/a	n/a	0	0	0
2238459	REC_WORD	wordpools/wasnorm_wordpool_576.txt	LTP323	ltpFR2	3	11	DANDRUFF	439	n/a	n/a	0	0	0
2239208	REC_WORD	wordpools/wasnorm_wordpool_576.txt	LTP323	ltpFR2	3	11	BACON	67	n/a	n/a	0	0	0
2240496	REC_WORD	wordpools/wasnorm_wordpool_576.txt	LTP323	ltpFR2	3	11	AIRPLANE	12	n/a	n/a	0	0	0
2247588	REC_WORD	wordpools/wasnorm_wordpool_576.txt	LTP323	ltpFR2	3	11	CRITIC	410	n/a	n/a	0	0	0
2267673	REC_WORD	wordpools/wasnorm_wordpool_576.txt	LTP323	ltpFR2	3	11	PUPIL	1143	n/a	n/a	0	0	0
2270741	REC_WORD	wordpools/wasnorm_wordpool_576.txt	LTP323	ltpFR2	3	11	RABBIT	1152	n/a	n/a	0	0	0
2280435	REC_WORD	wordpools/wasnorm_wordpool_576.txt	LTP323	ltpFR2	3	11	CARROT	249	n/a	n/a	0	0	0
2282659	REC_WORD	wordpools/wasnorm_wordpool_576.txt	LTP323	ltpFR2	3	11	CANYON	235	n/a	n/a	0	0	0
2283590	REC_WORD	wordpools/wasnorm_wordpool_576.txt	LTP323	ltpFR2	3	11	BARREL	91	n/a	n/a	0	0	0
2284299	REC_WORD	wordpools/wasnorm_wordpool_576.txt	LTP323	ltpFR2	3	11	RUG	1215	n/a	n/a	0	0	0
2288953	REC_WORD	wordpools/wasnorm_wordpool_576.txt	LTP323	ltpFR2	3	11	MAILMAN	858	n/a	n/a	0	0	0
2290193	REC_WORD	wordpools/wasnorm_wordpool_576.txt	LTP323	ltpFR2	3	11	SAUSAGE	1238	n/a	n/a	0	0	0
2321552	DISTRACTOR	n/a	LTP323	ltpFR2	3	12	n/a	n/a	n/a	n/a	0	0	0
2321553	START	n/a	LTP323	ltpFR2	3	n/a	n/a	n/a	16	n/a	n/a	n/a	n/a
2321568	PROB	n/a	LTP323	ltpFR2	3	n/a	n/a	n/a	16	18	9	1	8
2324833	PROB	n/a	LTP323	ltpFR2	3	n/a	n/a	n/a	16	20	4	8	8
2327351	PROB	n/a	LTP323	ltpFR2	3	n/a	n/a	n/a	16	12	4	7	1
2329739	PROB	n/a	LTP323	ltpFR2	3	n/a	n/a	n/a	16	12	6	4	2
2331406	PROB	n/a	LTP323	ltpFR2	3	n/a	n/a	n/a	16	18	7	5	6
2333691	PROB	n/a	LTP323	ltpFR2	3	n/a	n/a	n/a	16	15	4	8	3
2336728	PROB	n/a	LTP323	ltpFR2	3	n/a	n/a	n/a	16	14	5	6	3
2338829	PROB	n/a	LTP323	ltpFR2	3	n/a	n/a	n/a	16	17	5	9	3
2345553	STOP	n/a	LTP323	ltpFR2	3	n/a	n/a	n/a	16	n/a	n/a	n/a	n/a
2346502	WORD	wordpools/wasnorm_wordpool_576.txt	LTP323	ltpFR2	3	12	WORLD	1622	n/a	n/a	0	0	0
2348954	WORD	wordpools/wasnorm_wordpool_576.txt	LTP323	ltpFR2	3	12	ATLAS	53	n/a	n/a	0	0	0
2351708	WORD	wordpools/wasnorm_wordpool_576.txt	LTP323	ltpFR2	3	12	PLUTO	1092	n/a	n/a	0	0	0
2354425	WORD	wordpools/wasnorm_wordpool_576.txt	LTP323	ltpFR2	3	12	VALLEY	1545	n/a	n/a	0	0	0
2357161	WORD	wordpools/wasnorm_wordpool_576.txt	LTP323	ltpFR2	3	12	JUDGE	761	n/a	n/a	0	0	0
2359614	WORD	wordpools/wasnorm_wordpool_576.txt	LTP323	ltpFR2	3	12	BRACES	164	n/a	n/a	0	0	0
2362065	WORD	wordpools/wasnorm_wordpool_576.txt	LTP323	ltpFR2	3	12	GRILL	661	n/a	n/a	0	0	0
2364618	WORD	wordpools/wasnorm_wordpool_576.txt	LTP323	ltpFR2	3	12	GUITAR	670	n/a	n/a	0	0	0
2367386	WORD	wordpools/wasnorm_wordpool_576.txt	LTP323	ltpFR2	3	12	WITNESS	1618	n/a	n/a	0	0	0
2370038	WORD	wordpools/wasnorm_wordpool_576.txt	LTP323	ltpFR2	3	12	LUNCH	849	n/a	n/a	0	0	0
2372591	WORD	wordpools/wasnorm_wordpool_576.txt	LTP323	ltpFR2	3	12	CABIN	211	n/a	n/a	0	0	0
2375259	WORD	wordpools/wasnorm_wordpool_576.txt	LTP323	ltpFR2	3	12	VIKING	1565	n/a	n/a	0	0	0
2377962	WORD	wordpools/wasnorm_wordpool_576.txt	LTP323	ltpFR2	3	12	SLIDE	1326	n/a	n/a	0	0	0
2380546	WORD	wordpools/wasnorm_wordpool_576.txt	LTP323	ltpFR2	3	12	PLAYGROUND	1087	n/a	n/a	0	0	0
2383115	WORD	wordpools/wasnorm_wordpool_576.txt	LTP323	ltpFR2	3	12	THREAD	1460	n/a	n/a	0	0	0
2385567	WORD	wordpools/wasnorm_wordpool_576.txt	LTP323	ltpFR2	3	12	LABEL	790	n/a	n/a	0	0	0
2388302	WORD	wordpools/wasnorm_wordpool_576.txt	LTP323	ltpFR2	3	12	PAPER	1011	n/a	n/a	0	0	0
2391038	WORD	wordpools/wasnorm_wordpool_576.txt	LTP323	ltpFR2	3	12	SURVEY	1414	n/a	n/a	0	0	0
2393759	WORD	wordpools/wasnorm_wordpool_576.txt	LTP323	ltpFR2	3	12	SWIMMER	1420	n/a	n/a	0	0	0
2396492	WORD	wordpools/wasnorm_wordpool_576.txt	LTP323	ltpFR2	3	12	BARLEY	88	n/a	n/a	0	0	0
2398961	WORD	wordpools/wasnorm_wordpool_576.txt	LTP323	ltpFR2	3	12	STAR	1373	n/a	n/a	0	0	0
2401730	WORD	wordpools/wasnorm_wordpool_576.txt	LTP323	ltpFR2	3	12	PLATE	1086	n/a	n/a	0	0	0
2404232	WORD	wordpools/wasnorm_wordpool_576.txt	LTP323	ltpFR2	3	12	MOTOR	922	n/a	n/a	0	0	0
2406983	WORD	wordpools/wasnorm_wordpool_576.txt	LTP323	ltpFR2	3	12	PANTHER	1009	n/a	n/a	0	0	0
2408603	START	n/a	LTP323	ltpFR2	3	n/a	n/a	n/a	17	n/a	n/a	n/a	n/a
2409500	DISTRACTOR	n/a	LTP323	ltpFR2	3	12	n/a	n/a	n/a	n/a	0	0	0
2409505	PROB	n/a	LTP323	ltpFR2	3	n/a	n/a	n/a	17	16	1	7	8
2412237	PROB	n/a	LTP323	ltpFR2	3	n/a	n/a	n/a	17	18	2	9	7
2415640	PROB	n/a	LTP323	ltpFR2	3	n/a	n/a	n/a	17	19	8	8	3
2418692	PROB	n/a	LTP323	ltpFR2	3	n/a	n/a	n/a	17	18	3	9	6
2421644	PROB	n/a	LTP323	ltpFR2	3	n/a	n/a	n/a	17	16	8	6	2
2424467	PROB	n/a	LTP323	ltpFR2	3	n/a	n/a	n/a	17	17	7	6	4
2426184	PROB	n/a	LTP323	ltpFR2	3	n/a	n/a	n/a	17	20	4	8	8
2428705	PROB	n/a	LTP323	ltpFR2	3	n/a	n/a	n/a	17	9	1	1	7
2430450	PROB	n/a	LTP323	ltpFR2	3	n/a	n/a	n/a	17	8	2	5	1
2432208	STOP	n/a	LTP323	ltpFR2	3	n/a	n/a	n/a	17	n/a	n/a	n/a	n/a
2434492	REC_START	n/a	LTP323	ltpFR2	3	12	n/a	n/a	n/a	n/a	0	0	0
2435967	REC_WORD	wordpools/wasnorm_wordpool_576.txt	LTP323	ltpFR2	3	12	PANTHER	1009	n/a	n/a	0	0	0
2436628	REC_WORD	wordpools/wasnorm_wordpool_576.txt	LTP323	ltpFR2	3	12	PLATE	1086	n/a	n/a	0	0	0
2437154	REC_WORD	wordpools/wasnorm_wordpool_576.txt	LTP323	ltpFR2	3	12	LUNCH	849	n/a	n/a	0	0	0
2437708	REC_WORD	wordpools/wasnorm_wordpool_576.txt	LTP323	ltpFR2	3	12	CABIN	211	n/a	n/a	0	0	0
2439859	REC_WORD	wordpools/wasnorm_wordpool_576.txt	LTP323	ltpFR2	3	12	SWIMMER	1420	n/a	n/a	0	0	0
2440859	REC_WORD_VV	wordpools/wasnorm_wordpool_576.txt	LTP323	ltpFR2	3	12	<>	-1	n/a	n/a	0	0	0
2441027	REC_WORD	wordpools/wasnorm_wordpool_576.txt	LTP323	ltpFR2	3	12	STAR	1373	n/a	n/a	0	0	0
2442552	REC_WORD	wordpools/wasnorm_wordpool_576.txt	LTP323	ltpFR2	3	12	BARLEY	88	n/a	n/a	0	0	0
2444801	REC_WORD	wordpools/wasnorm_wordpool_576.txt	LTP323	ltpFR2	3	12	GRILL	661	n/a	n/a	0	0	0
2445277	REC_WORD	wordpools/wasnorm_wordpool_576.txt	LTP323	ltpFR2	3	12	WITNESS	1618	n/a	n/a	0	0	0
2454545	REC_WORD	wordpools/wasnorm_wordpool_576.txt	LTP323	ltpFR2	3	12	WORLD	1622	n/a	n/a	0	0	0
2455621	REC_WORD	wordpools/wasnorm_wordpool_576.txt	LTP323	ltpFR2	3	12	ATLAS	53	n/a	n/a	0	0	0
2456383	REC_WORD	wordpools/wasnorm_wordpool_576.txt	LTP323	ltpFR2	3	12	SURVEY	1414	n/a	n/a	0	0	0
2457745	REC_WORD	wordpools/wasnorm_wordpool_576.txt	LTP323	ltpFR2	3	12	PLUTO	1092	n/a	n/a	0	0	0
2458535	REC_WORD	wordpools/wasnorm_wordpool_576.txt	LTP323	ltpFR2	3	12	JUDGE	761	n/a	n/a	0	0	0
2474680	REC_WORD	wordpools/wasnorm_wordpool_576.txt	LTP323	ltpFR2	3	12	GUITAR	670	n/a	n/a	0	0	0
2487719	REC_WORD	wordpools/wasnorm_wordpool_576.txt	LTP323	ltpFR2	3	12	OYSTER	995	n/a	n/a	0	0	0
2488318	REC_WORD	wordpools/wasnorm_wordpool_576.txt	LTP323	ltpFR2	3	12	MOTOR	922	n/a	n/a	0	0	0
2497038	REC_WORD	wordpools/wasnorm_wordpool_576.txt	LTP323	ltpFR2	3	12	VIKING	1565	n/a	n/a	0	0	0
2524932	WORD	wordpools/wasnorm_wordpool_576.txt	LTP323	ltpFR2	3	13	MUMMY	932	n/a	n/a	0	0	0
2527419	WORD	wordpools/wasnorm_wordpool_576.txt	LTP323	ltpFR2	3	13	POPCORN	1104	n/a	n/a	0	0	0
2530228	WORD	wordpools/wasnorm_wordpool_576.txt	LTP323	ltpFR2	3	13	BUTCHER	203	n/a	n/a	0	0	0
2532963	WORD	wordpools/wasnorm_wordpool_576.txt	LTP323	ltpFR2	3	13	TABLE	1426	n/a	n/a	0	0	0
2535432	WORD	wordpools/wasnorm_wordpool_576.txt	LTP323	ltpFR2	3	13	ICING	732	n/a	n/a	0	0	0
2538228	WORD	wordpools/wasnorm_wordpool_576.txt	LTP323	ltpFR2	3	13	CAMEL	223	n/a	n/a	0	0	0
2541014	WORD	wordpools/wasnorm_wordpool_576.txt	LTP323	ltpFR2	3	13	EMPIRE	530	n/a	n/a	0	0	0
2543606	WORD	wordpools/wasnorm_wordpool_576.txt	LTP323	ltpFR2	3	13	CASHEW	253	n/a	n/a	0	0	0
2546368	WORD	wordpools/wasnorm_wordpool_576.txt	LTP323	ltpFR2	3	13	KNIFE	785	n/a	n/a	0	0	0
2549170	WORD	wordpools/wasnorm_wordpool_576.txt	LTP323	ltpFR2	3	13	TORTOISE	1486	n/a	n/a	0	0	0
2551806	WORD	wordpools/wasnorm_wordpool_576.txt	LTP323	ltpFR2	3	13	PEACH	1031	n/a	n/a	0	0	0
2554609	WORD	wordpools/wasnorm_wordpool_576.txt	LTP323	ltpFR2	3	13	BUREAU	199	n/a	n/a	0	0	0
2557310	WORD	wordpools/wasnorm_wordpool_576.txt	LTP323	ltpFR2	3	13	HAMPER	682	n/a	n/a	0	0	0
2559984	WORD	wordpools/wasnorm_wordpool_576.txt	LTP323	ltpFR2	3	13	WIFE	1609	n/a	n/a	0	0	0
2562599	WORD	wordpools/wasnorm_wordpool_576.txt	LTP323	ltpFR2	3	13	LADY	794	n/a	n/a	0	0	0
2565401	WORD	wordpools/wasnorm_wordpool_576.txt	LTP323	ltpFR2	3	13	WIDOW	1608	n/a	n/a	0	0	0
2568053	WORD	wordpools/wasnorm_wordpool_576.txt	LTP323	ltpFR2	3	13	SCULPTURE	1258	n/a	n/a	0	0	0
2570538	WORD	wordpools/wasnorm_wordpool_576.txt	LTP323	ltpFR2	3	13	SPOUSE	1358	n/a	n/a	0	0	0
2573257	WORD	wordpools/wasnorm_wordpool_576.txt	LTP323	ltpFR2	3	13	SEAGULL	1261	n/a	n/a	0	0	0
2575859	WORD	wordpools/wasnorm_wordpool_576.txt	LTP323	ltpFR2	3	13	FOOTBALL	591	n/a	n/a	0	0	0
2578428	WORD	wordpools/wasnorm_wordpool_576.txt	LTP323	ltpFR2	3	13	OZONE	996	n/a	n/a	0	0	0
2580980	WORD	wordpools/wasnorm_wordpool_576.txt	LTP323	ltpFR2	3	13	CORAL	378	n/a	n/a	0	0	0
2583667	WORD	wordpools/wasnorm_wordpool_576.txt	LTP323	ltpFR2	3	13	DANCER	437	n/a	n/a	0	0	0
2586287	WORD	wordpools/wasnorm_wordpool_576.txt	LTP323	ltpFR2	3	13	TUTU	1524	n/a	n/a	0	0	0
2587903	START	n/a	LTP323	ltpFR2	3	n/a	n/a	n/a	18	n/a	n/a	n/a	n/a
2589083	DISTRACTOR	n/a	LTP323	ltpFR2	3	13	n/a	n/a	n/a	n/a	0	0	0
2589089	PROB	n/a	LTP323	ltpFR2	3	n/a	n/a	n/a	18	13	7	2	4
2592822	PROB	n/a	LTP323	ltpFR2	3	n/a	n/a	n/a	18	1	9	7	3
2594457	PROB	n/a	LTP323	ltpFR2	3	n/a	n/a	n/a	18	9	6	1	2
2598161	PROB	n/a	LTP323	ltpFR2	3	n/a	n/a	n/a	18	9	6	1	2
2599778	PROB	n/a	LTP323	ltpFR2	3	n/a	n/a	n/a	18	22	7	6	9
2605449	PROB	n/a	LTP323	ltpFR2	3	n/a	n/a	n/a	18	11	1	7	3
2607284	PROB	n/a	LTP323	ltpFR2	3	n/a	n/a	n/a	18	14	4	5	5
2608987	PROB	n/a	LTP323	ltpFR2	3	n/a	n/a	n/a	18	15	7	1	7
2610832	STOP	n/a	LTP323	ltpFR2	3	n/a	n/a	n/a	18	n/a	n/a	n/a	n/a
2613727	REC_START	n/a	LTP323	ltpFR2	3	13	n/a	n/a	n/a	n/a	0	0	0
2614881	REC_WORD	wordpools/wasnorm_wordpool_576.txt	LTP323	ltpFR2	3	13	SEAGULL	1261	n/a	n/a	0	0	0
2615496	REC_WORD	wordpools/wasnorm_wordpool_576.txt	LTP323	ltpFR2	3	13	SCULPTURE	1258	n/a	n/a	0	0	0
2617761	REC_WORD	wordpools/wasnorm_wordpool_576.txt	LTP323	ltpFR2	3	13	LADY	794	n/a	n/a	0	0	0
2618247	REC_WORD	wordpools/wasnorm_wordpool_576.txt	LTP323	ltpFR2	3	13	WIFE	1609	n/a	n/a	0	0	0
2618729	REC_WORD	wordpools/wasnorm_wordpool_576.txt	LTP323	ltpFR2	3	13	WIDOW	1608	n/a	n/a	0	0	0
2621377	REC_WORD	wordpools/wasnorm_wordpool_576.txt	LTP323	ltpFR2	3	13	POPCORN	1104	n/a	n/a	0	0	0
2622402	REC_WORD	wordpools/wasnorm_wordpool_576.txt	LTP323	ltpFR2	3	13	MUMMY	932	n/a	n/a	0	0	0
2625051	REC_WORD	wordpools/wasnorm_wordpool_576.txt	LTP323	ltpFR2	3	13	CASHEW	253	n/a	n/a	0	0	0
2626988	REC_WORD	wordpools/wasnorm_wordpool_576.txt	LTP323	ltpFR2	3	13	BUTCHER	203	n/a	n/a	0	0	0
2627428	REC_WORD	wordpools/wasnorm_wordpool_576.txt	LTP323	ltpFR2	3	13	TABLE	1426	n/a	n/a	0	0	0
2627867	REC_WORD	wordpools/wasnorm_wordpool_576.txt	LTP323	ltpFR2	3	13	KNIFE	785	n/a	n/a	0	0	0
2628610	REC_WORD	wordpools/wasnorm_wordpool_576.txt	LTP323	ltpFR2	3	13	CAMEL	223	n/a	n/a	0	0	0
2629283	REC_WORD	wordpools/wasnorm_wordpool_576.txt	LTP323	ltpFR2	3	13	TORTOISE	1486	n/a	n/a	0	0	0
2631243	REC_WORD	wordpools/wasnorm_wordpool_576.txt	LTP323	ltpFR2	3	13	TURTLE	1522	n/a	n/a	0	0	0
2633063	REC_WORD	wordpools/wasnorm_wordpool_576.txt	LTP323	ltpFR2	3	13	ICING	732	n/a	n/a	0	0	0
2636497	REC_WORD	wordpools/wasnorm_wordpool_576.txt	LTP323	ltpFR2	3	13	HAMPER	682	n/a	n/a	0	0	0
2637204	REC_WORD	wordpools/wasnorm_wordpool_576.txt	LTP323	ltpFR2	3	13	BUREAU	199	n/a	n/a	0	0	0
2641135	REC_WORD	wordpools/wasnorm_wordpool_576.txt	LTP323	ltpFR2	3	13	OZONE	996	n/a	n/a	0	0	0
2641688	REC_WORD	wordpools/wasnorm_wordpool_576.txt	LTP323	ltpFR2	3	13	FOOTBALL	591	n/a	n/a	0	0	0
2650128	REC_WORD	wordpools/wasnorm_wordpool_576.txt	LTP323	ltpFR2	3	13	SPOUSE	1358	n/a	n/a	0	0	0
2704176	WORD	wordpools/wasnorm_wordpool_576.txt	LTP323	ltpFR2	3	14	MONSTER	912	n/a	n/a	0	0	0
2706636	WORD	wordpools/wasnorm_wordpool_576.txt	LTP323	ltpFR2	3	14	COCOON	339	n/a	n/a	0	0	0
2709114	WORD	wordpools/wasnorm_wordpool_576.txt	LTP323	ltpFR2	3	14	SKIRT	1319	n/a	n/a	0	0	0
2711600	WORD	wordpools/wasnorm_wordpool_576.txt	LTP323	ltpFR2	3	14	JEANS	752	n/a	n/a	0	0	0
2714235	WORD	wordpools/wasnorm_wordpool_576.txt	LTP323	ltpFR2	3	14	ICEBERG	731	n/a	n/a	0	0	0
2717037	WORD	wordpools/wasnorm_wordpool_576.txt	LTP323	ltpFR2	3	14	TOURIST	1488	n/a	n/a	0	0	0
2719730	WORD	wordpools/wasnorm_wordpool_576.txt	LTP323	ltpFR2	3	14	COUSIN	392	n/a	n/a	0	0	0
2722181	WORD	wordpools/wasnorm_wordpool_576.txt	LTP323	ltpFR2	3	14	CARRIAGE	248	n/a	n/a	0	0	0
2724926	WORD	wordpools/wasnorm_wordpool_576.txt	LTP323	ltpFR2	3	14	FINGER	567	n/a	n/a	0	0	0
2727528	WORD	wordpools/wasnorm_wordpool_576.txt	LTP323	ltpFR2	3	14	ROBBER	1197	n/a	n/a	0	0	0
2729963	WORD	wordpools/wasnorm_wordpool_576.txt	LTP323	ltpFR2	3	14	CYCLONE	431	n/a	n/a	0	0	0
2732399	WORD	wordpools/wasnorm_wordpool_576.txt	LTP323	ltpFR2	3	14	NEUTRON	947	n/a	n/a	0	0	0
2734883	WORD	wordpools/wasnorm_wordpool_576.txt	LTP323	ltpFR2	3	14	ATOM	55	n/a	n/a	0	0	0
2737604	WORD	wordpools/wasnorm_wordpool_576.txt	LTP323	ltpFR2	3	14	CLOCK	325	n/a	n/a	0	0	0
2740288	WORD	wordpools/wasnorm_wordpool_576.txt	LTP323	ltpFR2	3	14	PRINCESS	1125	n/a	n/a	0	0	0
2742981	WORD	wordpools/wasnorm_wordpool_576.txt	LTP323	ltpFR2	3	14	CROWN	415	n/a	n/a	0	0	0
2745409	WORD	wordpools/wasnorm_wordpool_576.txt	LTP323	ltpFR2	3	14	CRICKET	408	n/a	n/a	0	0	0
2747969	WORD	wordpools/wasnorm_wordpool_576.txt	LTP323	ltpFR2	3	14	LODGE	839	n/a	n/a	0	0	0
2750779	WORD	wordpools/wasnorm_wordpool_576.txt	LTP323	ltpFR2	3	14	TWEEZERS	1526	n/a	n/a	0	0	0
2753264	WORD	wordpools/wasnorm_wordpool_576.txt	LTP323	ltpFR2	3	14	PARENT	1013	n/a	n/a	0	0	0
2755992	WORD	wordpools/wasnorm_wordpool_576.txt	LTP323	ltpFR2	3	14	SERVER	1272	n/a	n/a	0	0	0
2758669	WORD	wordpools/wasnorm_wordpool_576.txt	LTP323	ltpFR2	3	14	SHIRT	1287	n/a	n/a	0	0	0
2761470	WORD	wordpools/wasnorm_wordpool_576.txt	LTP323	ltpFR2	3	14	COOKBOOK	373	n/a	n/a	0	0	0
2764283	WORD	wordpools/wasnorm_wordpool_576.txt	LTP323	ltpFR2	3	14	SALAD	1224	n/a	n/a	0	0	0
2765891	START	n/a	LTP323	ltpFR2	3	n/a	n/a	n/a	19	n/a	n/a	n/a	n/a
2767079	DISTRACTOR	n/a	LTP323	ltpFR2	3	14	n/a	n/a	n/a	n/a	0	0	0
2767085	PROB	n/a	LTP323	ltpFR2	3	n/a	n/a	n/a	19	21	5	7	9
2771521	PROB	n/a	LTP323	ltpFR2	3	n/a	n/a	n/a	19	7	3	1	3
2773439	PROB	n/a	LTP323	ltpFR2	3	n/a	n/a	n/a	19	12	5	4	3
2775791	PROB	n/a	LTP323	ltpFR2	3	n/a	n/a	n/a	19	17	8	6	3
2777876	PROB	n/a	LTP323	ltpFR2	3	n/a	n/a	n/a	19	10	3	2	5
2780563	PROB	n/a	LTP323	ltpFR2	3	n/a	n/a	n/a	19	19	8	5	6
2784115	PROB	n/a	LTP323	ltpFR2	3	n/a	n/a	n/a	19	9	2	4	3
2786618	PROB	n/a	LTP323	ltpFR2	3	n/a	n/a	n/a	19	16	5	2	9
2788689	STOP	n/a	LTP323	ltpFR2	3	n/a	n/a	n/a	19	n/a	n/a	n/a	n/a
2791638	REC_START	n/a	LTP323	ltpFR2	3	14	n/a	n/a	n/a	n/a	0	0	0
2793546	REC_WORD	wordpools/wasnorm_wordpool_576.txt	LTP323	ltpFR2	3	14	DRESS	495	n/a	n/a	0	0	0
2794487	REC_WORD	wordpools/wasnorm_wordpool_576.txt	LTP323	ltpFR2	3	14	PANTS	1010	n/a	n/a	0	0	0
2795577	REC_WORD	wordpools/wasnorm_wordpool_576.txt	LTP323	ltpFR2	3	14	ICEBERG	731	n/a	n/a	0	0	0
2796587	REC_WORD	wordpools/wasnorm_wordpool_576.txt	LTP323	ltpFR2	3	14	CARRIAGE	248	n/a	n/a	0	0	0
2797505	REC_WORD	wordpools/wasnorm_wordpool_576.txt	LTP323	ltpFR2	3	14	FINGER	567	n/a	n/a	0	0	0
2798928	REC_WORD	wordpools/wasnorm_wordpool_576.txt	LTP323	ltpFR2	3	14	COUSIN	392	n/a	n/a	0	0	0
2801372	REC_WORD	wordpools/wasnorm_wordpool_576.txt	LTP323	ltpFR2	3	14	PARENT	1013	n/a	n/a	0	0	0
2810240	REC_WORD	wordpools/wasnorm_wordpool_576.txt	LTP323	ltpFR2	3	14	SALAD	1224	n/a	n/a	0	0	0
2818785	REC_WORD	wordpools/wasnorm_wordpool_576.txt	LTP323	ltpFR2	3	14	SHIRT	1287	n/a	n/a	0	0	0
2830848	REC_WORD	wordpools/wasnorm_wordpool_576.txt	LTP323	ltpFR2	3	14	TOURIST	1488	n/a	n/a	0	0	0
2840333	REC_WORD	wordpools/wasnorm_wordpool_576.txt	LTP323	ltpFR2	3	14	MONSTER	912	n/a	n/a	0	0	0
2840898	REC_WORD	wordpools/wasnorm_wordpool_576.txt	LTP323	ltpFR2	3	14	COCOON	339	n/a	n/a	0	0	0
2882097	DISTRACTOR	n/a	LTP323	ltpFR2	3	15	n/a	n/a	n/a	n/a	0	0	0
2882097	START	n/a	LTP323	ltpFR2	3	n/a	n/a	n/a	20	n/a	n/a	n/a	n/a
2882114	PROB	n/a	LTP323	ltpFR2	3	n/a	n/a	n/a	20	8	5	2	1
2884600	PROB	n/a	LTP323	ltpFR2	3	n/a	n/a	n/a	20	10	5	3	2
2886667	PROB	n/a	LTP323	ltpFR2	3	n/a	n/a	n/a	20	14	6	5	3
2888752	PROB	n/a	LTP323	ltpFR2	3	n/a	n/a	n/a	20	16	3	7	6
2890704	PROB	n/a	LTP323	ltpFR2	3	n/a	n/a	n/a	20	10	7	1	2
2892304	PROB	n/a	LTP323	ltpFR2	3	n/a	n/a	n/a	20	18	9	3	6
2894104	PROB	n/a	LTP323	ltpFR2	3	n/a	n/a	n/a	20	16	6	3	7
2896105	PROB	n/a	LTP323	ltpFR2	3	n/a	n/a	n/a	20	15	6	3	6
2898824	PROB	n/a	LTP323	ltpFR2	3	n/a	n/a	n/a	20	19	5	9	5
2900792	PROB	n/a	LTP323	ltpFR2	3	n/a	n/a	n/a	20	17	7	5	5
2902593	PROB	n/a	LTP323	ltpFR2	3	n/a	n/a	n/a	20	6	4	1	1
2905040	STOP	n/a	LTP323	ltpFR2	3	n/a	n/a	n/a	20	n/a	n/a	n/a	n/a
2906935	WORD	wordpools/wasnorm_wordpool_576.txt	LTP323	ltpFR2	3	15	PREACHER	1119	n/a	n/a	0	0	0
2909718	WORD	wordpools/wasnorm_wordpool_576.txt	LTP323	ltpFR2	3	15	HUMAN	726	n/a	n/a	0	0	0
2912269	WORD	wordpools/wasnorm_wordpool_576.txt	LTP323	ltpFR2	3	15	PALACE	1006	n/a	n/a	0	0	0
2914837	WORD	wordpools/wasnorm_wordpool_576.txt	LTP323	ltpFR2	3	15	LAPEL	800	n/a	n/a	0	0	0
2917556	WORD	wordpools/wasnorm_wordpool_576.txt	LTP323	ltpFR2	3	15	FEMALE	559	n/a	n/a	0	0	0
2920309	WORD	wordpools/wasnorm_wordpool_576.txt	LTP323	ltpFR2	3	15	GROUND	666	n/a	n/a	0	0	0
2923094	WORD	wordpools/wasnorm_wordpool_576.txt	LTP323	ltpFR2	3	15	TOASTER	1472	n/a	n/a	0	0	0
2925551	WORD	wordpools/wasnorm_wordpool_576.txt	LTP323	ltpFR2	3	15	BOX	159	n/a	n/a	0	0	0
2928286	WORD	wordpools/wasnorm_wordpool_576.txt	LTP323	ltpFR2	3	15	PISTOL	1075	n/a	n/a	0	0	0
2930788	WORD	wordpools/wasnorm_wordpool_576.txt	LTP323	ltpFR2	3	15	PEANUT	1032	n/a	n/a	0	0	0
2933368	WORD	wordpools/wasnorm_wordpool_576.txt	LTP323	ltpFR2	3	15	OUTFIT	988	n/a	n/a	0	0	0
2936137	WORD	wordpools/wasnorm_wordpool_576.txt	LTP323	ltpFR2	3	15	CLOTHES	327	n/a	n/a	0	0	0
2938555	WORD	wordpools/wasnorm_wordpool_576.txt	LTP323	ltpFR2	3	15	LAKE	796	n/a	n/a	0	0	0
2940974	WORD	wordpools/wasnorm_wordpool_576.txt	LTP323	ltpFR2	3	15	ISLAND	745	n/a	n/a	0	0	0
2943782	WORD	wordpools/wasnorm_wordpool_576.txt	LTP323	ltpFR2	3	15	HAND	683	n/a	n/a	0	0	0
2946328	WORD	wordpools/wasnorm_wordpool_576.txt	LTP323	ltpFR2	3	15	COLLEGE	346	n/a	n/a	0	0	0
2949103	WORD	wordpools/wasnorm_wordpool_576.txt	LTP323	ltpFR2	3	15	SPOOL	1356	n/a	n/a	0	0	0
2951600	WORD	wordpools/wasnorm_wordpool_576.txt	LTP323	ltpFR2	3	15	LETTUCE	814	n/a	n/a	0	0	0
2954317	WORD	wordpools/wasnorm_wordpool_576.txt	LTP323	ltpFR2	3	15	BLUEPRINT	142	n/a	n/a	0	0	0
2956903	WORD	wordpools/wasnorm_wordpool_576.txt	LTP323	ltpFR2	3	15	KEEPER	769	n/a	n/a	0	0	0
2959680	WORD	wordpools/wasnorm_wordpool_576.txt	LTP323	ltpFR2	3	15	PERMIT	1051	n/a	n/a	0	0	0
2962347	WORD	wordpools/wasnorm_wordpool_576.txt	LTP323	ltpFR2	3	15	GIFT	635	n/a	n/a	0	0	0
2965059	WORD	wordpools/wasnorm_wordpool_576.txt	LTP323	ltpFR2	3	15	FRIAR	605	n/a	n/a	0	0	0
2967628	WORD	wordpools/wasnorm_wordpool_576.txt	LTP323	ltpFR2	3	15	LEADER	807	n/a	n/a	0	0	0
2969237	START	n/a	LTP323	ltpFR2	3	n/a	n/a	n/a	21	n/a	n/a	n/a	n/a
2970418	DISTRACTOR	n/a	LTP323	ltpFR2	3	15	n/a	n/a	n/a	n/a	0	0	0
2970430	PROB	n/a	LTP323	ltpFR2	3	n/a	n/a	n/a	21	11	4	6	1
2972724	PROB	n/a	LTP323	ltpFR2	3	n/a	n/a	n/a	21	23	8	8	7
2976341	PROB	n/a	LTP323	ltpFR2	3	n/a	n/a	n/a	21	21	7	9	5
2979945	PROB	n/a	LTP323	ltpFR2	3	n/a	n/a	n/a	21	18	8	8	2
2981679	PROB	n/a	LTP323	ltpFR2	3	n/a	n/a	n/a	21	3	1	1	1
2983831	PROB	n/a	LTP323	ltpFR2	3	n/a	n/a	n/a	21	9	1	2	6
2986334	PROB	n/a	LTP323	ltpFR2	3	n/a	n/a	n/a	21	18	8	4	6
2989470	PROB	n/a	LTP323	ltpFR2	3	n/a	n/a	n/a	21	7	4	2	1
2992040	STOP	n/a	LTP323	ltpFR2	3	n/a	n/a	n/a	21	n/a	n/a	n/a	n/a
2994991	REC_START	n/a	LTP323	ltpFR2	3	15	n/a	n/a	n/a	n/a	0	0	0
2996213	REC_WORD	wordpools/wasnorm_wordpool_576.txt	LTP323	ltpFR2	3	15	PREACHER	1119	n/a	n/a	0	0	0
2996690	REC_WORD	wordpools/wasnorm_wordpool_576.txt	LTP323	ltpFR2	3	15	FRIAR	605	n/a	n/a	0	0	0
2997300	REC_WORD	wordpools/wasnorm_wordpool_576.txt	LTP323	ltpFR2	3	15	LEADER	807	n/a	n/a	0	0	0
2998816	REC_WORD	wordpools/wasnorm_wordpool_576.txt	LTP323	ltpFR2	3	15	HUMAN	726	n/a	n/a	0	0	0
2999851	REC_WORD	wordpools/wasnorm_wordpool_576.txt	LTP323	ltpFR2	3	15	PALACE	1006	n/a	n/a	0	0	0
3004032	REC_WORD	wordpools/wasnorm_wordpool_576.txt	LTP323	ltpFR2	3	15	LAPEL	800	n/a	n/a	0	0	0
3004613	REC_WORD	wordpools/wasnorm_wordpool_576.txt	LTP323	ltpFR2	3	15	CLOTHES	327	n/a	n/a	0	0	0
3011216	REC_WORD	wordpools/wasnorm_wordpool_576.txt	LTP323	ltpFR2	3	15	OUTFIT	988	n/a	n/a	0	0	0
3013451	REC_WORD	wordpools/wasnorm_wordpool_576.txt	LTP323	ltpFR2	3	15	LAKE	796	n/a	n/a	0	0	0
3014201	REC_WORD	wordpools/wasnorm_wordpool_576.txt	LTP323	ltpFR2	3	15	ISLAND	745	n/a	n/a	0	0	0
3044609	REC_WORD	wordpools/wasnorm_wordpool_576.txt	LTP323	ltpFR2	3	15	TOASTER	1472	n/a	n/a	0	0	0
3051275	REC_WORD	wordpools/wasnorm_wordpool_576.txt	LTP323	ltpFR2	3	15	BOX	159	n/a	n/a	0	0	0
3051811	REC_WORD	wordpools/wasnorm_wordpool_576.txt	LTP323	ltpFR2	3	15	PISTOL	1075	n/a	n/a	0	0	0
3052458	REC_WORD	wordpools/wasnorm_wordpool_576.txt	LTP323	ltpFR2	3	15	PEANUT	1032	n/a	n/a	0	0	0
3085434	DISTRACTOR	n/a	LTP323	ltpFR2	3	16	n/a	n/a	n/a	n/a	0	0	0
3085434	START	n/a	LTP323	ltpFR2	3	n/a	n/a	n/a	22	n/a	n/a	n/a	n/a
3085448	PROB	n/a	LTP323	ltpFR2	3	n/a	n/a	n/a	22	16	7	6	3
3087651	PROB	n/a	LTP323	ltpFR2	3	n/a	n/a	n/a	22	15	5	2	8
3090569	PROB	n/a	LTP323	ltpFR2	3	n/a	n/a	n/a	22	11	1	3	7
3092055	PROB	n/a	LTP323	ltpFR2	3	n/a	n/a	n/a	22	23	5	9	9
3094774	PROB	n/a	LTP323	ltpFR2	3	n/a	n/a	n/a	22	21	5	9	7
3098410	PROB	n/a	LTP323	ltpFR2	3	n/a	n/a	n/a	22	23	8	8	7
3104398	PROB	n/a	LTP323	ltpFR2	3	n/a	n/a	n/a	22	15	6	5	4
3109434	STOP	n/a	LTP323	ltpFR2	3	n/a	n/a	n/a	22	n/a	n/a	n/a	n/a
3110537	WORD	wordpools/wasnorm_wordpool_576.txt	LTP323	ltpFR2	3	16	POSSUM	1112	n/a	n/a	0	0	0
3113039	WORD	wordpools/wasnorm_wordpool_576.txt	LTP323	ltpFR2	3	16	BISON	131	n/a	n/a	0	0	0
3115742	WORD	wordpools/wasnorm_wordpool_576.txt	LTP323	ltpFR2	3	16	PADDLE	1000	n/a	n/a	0	0	0
3118459	WORD	wordpools/wasnorm_wordpool_576.txt	LTP323	ltpFR2	3	16	TUNNEL	1519	n/a	n/a	0	0	0
3120995	WORD	wordpools/wasnorm_wordpool_576.txt	LTP323	ltpFR2	3	16	BOYFRIEND	162	n/a	n/a	0	0	0
3123597	WORD	wordpools/wasnorm_wordpool_576.txt	LTP323	ltpFR2	3	16	CHURCH	307	n/a	n/a	0	0	0
3126031	WORD	wordpools/wasnorm_wordpool_576.txt	LTP323	ltpFR2	3	16	IDOL	733	n/a	n/a	0	0	0
3128850	WORD	wordpools/wasnorm_wordpool_576.txt	LTP323	ltpFR2	3	16	VALVE	1546	n/a	n/a	0	0	0
3131670	WORD	wordpools/wasnorm_wordpool_576.txt	LTP323	ltpFR2	3	16	TAXI	1438	n/a	n/a	0	0	0
3134308	WORD	wordpools/wasnorm_wordpool_576.txt	LTP323	ltpFR2	3	16	HOOK	715	n/a	n/a	0	0	0
3137107	WORD	wordpools/wasnorm_wordpool_576.txt	LTP323	ltpFR2	3	16	BANJO	82	n/a	n/a	0	0	0
3139693	WORD	wordpools/wasnorm_wordpool_576.txt	LTP323	ltpFR2	3	16	ITEM	746	n/a	n/a	0	0	0
3142497	WORD	wordpools/wasnorm_wordpool_576.txt	LTP323	ltpFR2	3	16	TROUT	1511	n/a	n/a	0	0	0
3145180	WORD	wordpools/wasnorm_wordpool_576.txt	LTP323	ltpFR2	3	16	VENUS	1557	n/a	n/a	0	0	0
3147899	WORD	wordpools/wasnorm_wordpool_576.txt	LTP323	ltpFR2	3	16	RADISH	1158	n/a	n/a	0	0	0
3150538	WORD	wordpools/wasnorm_wordpool_576.txt	LTP323	ltpFR2	3	16	RECEIPT	1173	n/a	n/a	0	0	0
3153019	WORD	wordpools/wasnorm_wordpool_576.txt	LTP323	ltpFR2	3	16	MOTEL	919	n/a	n/a	0	0	0
3155525	WORD	wordpools/wasnorm_wordpool_576.txt	LTP323	ltpFR2	3	16	MEAT	883	n/a	n/a	0	0	0
3158239	WORD	wordpools/wasnorm_wordpool_576.txt	LTP323	ltpFR2	3	16	INMATE	738	n/a	n/a	0	0	0
3160963	WORD	wordpools/wasnorm_wordpool_576.txt	LTP323	ltpFR2	3	16	NOMAD	955	n/a	n/a	0	0	0
3163515	WORD	wordpools/wasnorm_wordpool_576.txt	LTP323	ltpFR2	3	16	BEAVER	109	n/a	n/a	0	0	0
3165996	WORD	wordpools/wasnorm_wordpool_576.txt	LTP323	ltpFR2	3	16	MAMMAL	861	n/a	n/a	0	0	0
3168581	WORD	wordpools/wasnorm_wordpool_576.txt	LTP323	ltpFR2	3	16	WHISKERS	1605	n/a	n/a	0	0	0
3171000	WORD	wordpools/wasnorm_wordpool_576.txt	LTP323	ltpFR2	3	16	SHELF	1280	n/a	n/a	0	0	0
3172608	START	n/a	LTP323	ltpFR2	3	n/a	n/a	n/a	23	n/a	n/a	n/a	n/a
3173426	DISTRACTOR	n/a	LTP323	ltpFR2	3	16	n/a	n/a	n/a	n/a	0	0	0
3173434	PROB	n/a	LTP323	ltpFR2	3	n/a	n/a	n/a	23	21	5	7	9
3177492	PROB	n/a	LTP323	ltpFR2	3	n/a	n/a	n/a	23	14	7	5	2
3179944	PROB	n/a	LTP323	ltpFR2	3	n/a	n/a	n/a	23	22	8	6	8
3182413	PROB	n/a	LTP323	ltpFR2	3	n/a	n/a	n/a	23	17	5	5	7
3184132	PROB	n/a	LTP323	ltpFR2	3	n/a	n/a	n/a	23	17	3	8	6
3187001	PROB	n/a	LTP323	ltpFR2	3	n/a	n/a	n/a	23	19	8	7	4
3189237	PROB	n/a	LTP323	ltpFR2	3	n/a	n/a	n/a	23	22	7	6	9
3195296	STOP	n/a	LTP323	ltpFR2	3	n/a	n/a	n/a	23	n/a	n/a	n/a	n/a
3198393	REC_START	n/a	LTP323	ltpFR2	3	16	n/a	n/a	n/a	n/a	0	0	0
3201018	REC_WORD	wordpools/wasnorm_wordpool_576.txt	LTP323	ltpFR2	3	16	POSSUM	1112	n/a	n/a	0	0	0
3201879	REC_WORD	wordpools/wasnorm_wordpool_576.txt	LTP323	ltpFR2	3	16	BISON	131	n/a	n/a	0	0	0
3203812	REC_WORD	wordpools/wasnorm_wordpool_576.txt	LTP323	ltpFR2	3	16	BEAVER	109	n/a	n/a	0	0	0
3204264	REC_WORD	wordpools/wasnorm_wordpool_576.txt	LTP323	ltpFR2	3	16	WHISKERS	1605	n/a	n/a	0	0	0
3204833	REC_WORD	wordpools/wasnorm_wordpool_576.txt	LTP323	ltpFR2	3	16	MAMMAL	861	n/a	n/a	0	0	0
3205575	REC_WORD	wordpools/wasnorm_wordpool_576.txt	LTP323	ltpFR2	3	16	PADDLE	1000	n/a	n/a	0	0	0
3207115	REC_WORD	wordpools/wasnorm_wordpool_576.txt	LTP323	ltpFR2	3	16	TUNNEL	1519	n/a	n/a	0	0	0
3209056	REC_WORD	wordpools/wasnorm_wordpool_576.txt	LTP323	ltpFR2	3	16	BOYFRIEND	162	n/a	n/a	0	0	0
3211546	REC_WORD	wordpools/wasnorm_wordpool_576.txt	LTP323	ltpFR2	3	16	TAXI	1438	n/a	n/a	0	0	0
3213709	REC_WORD	wordpools/wasnorm_wordpool_576.txt	LTP323	ltpFR2	3	16	INMATE	738	n/a	n/a	0	0	0
3214840	REC_WORD	wordpools/wasnorm_wordpool_576.txt	LTP323	ltpFR2	3	16	NOMAD	955	n/a	n/a	0	0	0
3219905	REC_WORD	wordpools/wasnorm_wordpool_576.txt	LTP323	ltpFR2	3	16	RECEIPT	1173	n/a	n/a	0	0	0
3221488	REC_WORD	wordpools/wasnorm_wordpool_576.txt	LTP323	ltpFR2	3	16	HOTEL	-1	n/a	n/a	0	0	0
3222675	REC_WORD	wordpools/wasnorm_wordpool_576.txt	LTP323	ltpFR2	3	16	MEAT	883	n/a	n/a	0	0	0
3226298	REC_WORD	wordpools/wasnorm_wordpool_576.txt	LTP323	ltpFR2	3	16	VALVE	1546	n/a	n/a	0	0	0
3227988	REC_WORD	wordpools/wasnorm_wordpool_576.txt	LTP323	ltpFR2	3	16	IDOL	733	n/a	n/a	0	0	0
3228624	REC_WORD	wordpools/wasnorm_wordpool_576.txt	LTP323	ltpFR2	3	16	CHURCH	307	n/a	n/a	0	0	0
3240632	REC_WORD	wordpools/wasnorm_wordpool_576.txt	LTP323	ltpFR2	3	16	HOOK	715	n/a	n/a	0	0	0
3241031	REC_WORD	wordpools/wasnorm_wordpool_576.txt	LTP323	ltpFR2	3	16	TROUT	1511	n/a	n/a	0	0	0
3274925	REST_REWET	n/a	LTP323	ltpFR2	3	16	n/a	n/a	n/a	n/a	0	0	0
3590654	DISTRACTOR	n/a	LTP323	ltpFR2	3	17	n/a	n/a	n/a	n/a	0	0	0
3590654	START	n/a	LTP323	ltpFR2	3	n/a	n/a	n/a	24	n/a	n/a	n/a	n/a
3590671	PROB	n/a	LTP323	ltpFR2	3	n/a	n/a	n/a	24	13	5	6	2
3594288	PROB	n/a	LTP323	ltpFR2	3	n/a	n/a	n/a	24	11	8	1	2
3595640	PROB	n/a	LTP323	ltpFR2	3	n/a	n/a	n/a	24	17	6	3	8
3597426	PROB	n/a	LTP323	ltpFR2	3	n/a	n/a	n/a	24	22	9	4	9
3600962	PROB	n/a	LTP323	ltpFR2	3	n/a	n/a	n/a	24	19	6	8	5
3604079	PROB	n/a	LTP323	ltpFR2	3	n/a	n/a	n/a	24	18	5	4	9
3607267	PROB	n/a	LTP323	ltpFR2	3	n/a	n/a	n/a	24	9	1	1	7
3608567	PROB	n/a	LTP323	ltpFR2	3	n/a	n/a	n/a	24	7	1	1	5
3610034	PROB	n/a	LTP323	ltpFR2	3	n/a	n/a	n/a	24	16	3	9	4
3614654	STOP	n/a	LTP323	ltpFR2	3	n/a	n/a	n/a	24	n/a	n/a	n/a	n/a
3615706	WORD	wordpools/wasnorm_wordpool_576.txt	LTP323	ltpFR2	3	17	BODY	145	n/a	n/a	0	0	0
3618325	WORD	wordpools/wasnorm_wordpool_576.txt	LTP323	ltpFR2	3	17	INFANT	737	n/a	n/a	0	0	0
3621109	WORD	wordpools/wasnorm_wordpool_576.txt	LTP323	ltpFR2	3	17	OMELET	976	n/a	n/a	0	0	0
3623861	WORD	wordpools/wasnorm_wordpool_576.txt	LTP323	ltpFR2	3	17	WAGON	1578	n/a	n/a	0	0	0
3626280	WORD	wordpools/wasnorm_wordpool_576.txt	LTP323	ltpFR2	3	17	OUTDOORS	987	n/a	n/a	0	0	0
3629032	WORD	wordpools/wasnorm_wordpool_576.txt	LTP323	ltpFR2	3	17	JUNGLE	764	n/a	n/a	0	0	0
3631571	WORD	wordpools/wasnorm_wordpool_576.txt	LTP323	ltpFR2	3	17	ORANGE	980	n/a	n/a	0	0	0
3634186	WORD	wordpools/wasnorm_wordpool_576.txt	LTP323	ltpFR2	3	17	HEDGE	699	n/a	n/a	0	0	0
3636705	WORD	wordpools/wasnorm_wordpool_576.txt	LTP323	ltpFR2	3	17	STONE	1385	n/a	n/a	0	0	0
3639356	WORD	wordpools/wasnorm_wordpool_576.txt	LTP323	ltpFR2	3	17	COURSE	390	n/a	n/a	0	0	0
3641875	WORD	wordpools/wasnorm_wordpool_576.txt	LTP323	ltpFR2	3	17	BRANCH	168	n/a	n/a	0	0	0
3644394	WORD	wordpools/wasnorm_wordpool_576.txt	LTP323	ltpFR2	3	17	WINDOW	1611	n/a	n/a	0	0	0
3647045	WORD	wordpools/wasnorm_wordpool_576.txt	LTP323	ltpFR2	3	17	BRICK	172	n/a	n/a	0	0	0
3649765	WORD	wordpools/wasnorm_wordpool_576.txt	LTP323	ltpFR2	3	17	COTTAGE	384	n/a	n/a	0	0	0
3652421	WORD	wordpools/wasnorm_wordpool_576.txt	LTP323	ltpFR2	3	17	CLIMBER	323	n/a	n/a	0	0	0
3655019	WORD	wordpools/wasnorm_wordpool_576.txt	LTP323	ltpFR2	3	17	LIGHTNING	820	n/a	n/a	0	0	0
3657492	WORD	wordpools/wasnorm_wordpool_576.txt	LTP323	ltpFR2	3	17	CLOUD	328	n/a	n/a	0	0	0
3660173	WORD	wordpools/wasnorm_wordpool_576.txt	LTP323	ltpFR2	3	17	GRIZZLY	662	n/a	n/a	0	0	0
3662791	WORD	wordpools/wasnorm_wordpool_576.txt	LTP323	ltpFR2	3	17	THIEF	1456	n/a	n/a	0	0	0
3665449	WORD	wordpools/wasnorm_wordpool_576.txt	LTP323	ltpFR2	3	17	TRACTOR	1493	n/a	n/a	0	0	0
3668145	WORD	wordpools/wasnorm_wordpool_576.txt	LTP323	ltpFR2	3	17	POISON	1096	n/a	n/a	0	0	0
3670631	WORD	wordpools/wasnorm_wordpool_576.txt	LTP323	ltpFR2	3	17	DRUG	501	n/a	n/a	0	0	0
3673216	WORD	wordpools/wasnorm_wordpool_576.txt	LTP323	ltpFR2	3	17	CREVICE	405	n/a	n/a	0	0	0
3675659	WORD	wordpools/wasnorm_wordpool_576.txt	LTP323	ltpFR2	3	17	KIDNEY	776	n/a	n/a	0	0	0
3677269	START	n/a	LTP323	ltpFR2	3	n/a	n/a	n/a	25	n/a	n/a	n/a	n/a
3678461	DISTRACTOR	n/a	LTP323	ltpFR2	3	17	n/a	n/a	n/a	n/a	0	0	0
3678469	PROB	n/a	LTP323	ltpFR2	3	n/a	n/a	n/a	25	15	1	6	8
3681779	PROB	n/a	LTP323	ltpFR2	3	n/a	n/a	n/a	25	16	6	6	4
3683445	PROB	n/a	LTP323	ltpFR2	3	n/a	n/a	n/a	25	18	5	7	6
3685565	PROB	n/a	LTP323	ltpFR2	3	n/a	n/a	n/a	25	18	6	5	7
3687549	PROB	n/a	LTP323	ltpFR2	3	n/a	n/a	n/a	25	10	1	5	4
3690721	PROB	n/a	LTP323	ltpFR2	3	n/a	n/a	n/a	25	21	8	7	6
3695757	PROB	n/a	LTP323	ltpFR2	3	n/a	n/a	n/a	25	19	6	8	5
3697959	PROB	n/a	LTP323	ltpFR2	3	n/a	n/a	n/a	25	18	8	1	9
3699776	STOP	n/a	LTP323	ltpFR2	3	n/a	n/a	n/a	25	n/a	n/a	n/a	n/a
3703196	REC_START	n/a	LTP323	ltpFR2	3	17	n/a	n/a	n/a	n/a	0	0	0
3704963	REC_WORD	wordpools/wasnorm_wordpool_576.txt	LTP323	ltpFR2	3	17	BRICK	172	n/a	n/a	0	0	0
3705323	REC_WORD	wordpools/wasnorm_wordpool_576.txt	LTP323	ltpFR2	3	17	COTTAGE	384	n/a	n/a	0	0	0
3705934	REC_WORD	wordpools/wasnorm_wordpool_576.txt	LTP323	ltpFR2	3	17	WINDOW	1611	n/a	n/a	0	0	0
3706461	REC_WORD	wordpools/wasnorm_wordpool_576.txt	LTP323	ltpFR2	3	17	CREVICE	405	n/a	n/a	0	0	0
3707119	REC_WORD	wordpools/wasnorm_wordpool_576.txt	LTP323	ltpFR2	3	17	TRACTOR	1493	n/a	n/a	0	0	0
3709602	REC_WORD	wordpools/wasnorm_wordpool_576.txt	LTP323	ltpFR2	3	17	COURSE	390	n/a	n/a	0	0	0
3710531	REC_WORD	wordpools/wasnorm_wordpool_576.txt	LTP323	ltpFR2	3	17	BRANCH	168	n/a	n/a	0	0	0
3712813	REC_WORD	wordpools/wasnorm_wordpool_576.txt	LTP323	ltpFR2	3	17	JUNGLE	764	n/a	n/a	0	0	0
3714829	REC_WORD	wordpools/wasnorm_wordpool_576.txt	LTP323	ltpFR2	3	17	ORANGE	980	n/a	n/a	0	0	0
3718149	REC_WORD	wordpools/wasnorm_wordpool_576.txt	LTP323	ltpFR2	3	17	STONE	1385	n/a	n/a	0	0	0
3726784	REC_WORD	wordpools/wasnorm_wordpool_576.txt	LTP323	ltpFR2	3	17	DRUG	501	n/a	n/a	0	0	0
3727245	REC_WORD	wordpools/wasnorm_wordpool_576.txt	LTP323	ltpFR2	3	17	POISON	1096	n/a	n/a	0	0	0
3731258	REC_WORD	wordpools/wasnorm_wordpool_576.txt	LTP323	ltpFR2	3	17	KIDNEY	776	n/a	n/a	0	0	0
3742436	REC_WORD	wordpools/wasnorm_wordpool_576.txt	LTP323	ltpFR2	3	17	CLIMBER	323	n/a	n/a	0	0	0
3793655	WORD	wordpools/wasnorm_wordpool_576.txt	LTP323	ltpFR2	3	18	FREEZER	604	n/a	n/a	0	0	0
3796291	WORD	wordpools/wasnorm_wordpool_576.txt	LTP323	ltpFR2	3	18	IGLOO	734	n/a	n/a	0	0	0
3798960	WORD	wordpools/wasnorm_wordpool_576.txt	LTP323	ltpFR2	3	18	MUSTARD	935	n/a	n/a	0	0	0
3801730	WORD	wordpools/wasnorm_wordpool_576.txt	LTP323	ltpFR2	3	18	MASK	876	n/a	n/a	0	0	0
3804531	WORD	wordpools/wasnorm_wordpool_576.txt	LTP323	ltpFR2	3	18	TRUCK	1512	n/a	n/a	0	0	0
3807116	WORD	wordpools/wasnorm_wordpool_576.txt	LTP323	ltpFR2	3	18	DONOR	485	n/a	n/a	0	0	0
3809952	WORD	wordpools/wasnorm_wordpool_576.txt	LTP323	ltpFR2	3	18	DIVER	476	n/a	n/a	0	0	0
3812454	WORD	wordpools/wasnorm_wordpool_576.txt	LTP323	ltpFR2	3	18	SHARK	1275	n/a	n/a	0	0	0
3814990	WORD	wordpools/wasnorm_wordpool_576.txt	LTP323	ltpFR2	3	18	STATUE	1374	n/a	n/a	0	0	0
3817476	WORD	wordpools/wasnorm_wordpool_576.txt	LTP323	ltpFR2	3	18	CANAL	226	n/a	n/a	0	0	0
3820127	WORD	wordpools/wasnorm_wordpool_576.txt	LTP323	ltpFR2	3	18	FRECKLE	602	n/a	n/a	0	0	0
3822732	WORD	wordpools/wasnorm_wordpool_576.txt	LTP323	ltpFR2	3	18	COIN	343	n/a	n/a	0	0	0
3825399	WORD	wordpools/wasnorm_wordpool_576.txt	LTP323	ltpFR2	3	18	ARMY	39	n/a	n/a	0	0	0
3827834	WORD	wordpools/wasnorm_wordpool_576.txt	LTP323	ltpFR2	3	18	EGYPT	519	n/a	n/a	0	0	0
3830402	WORD	wordpools/wasnorm_wordpool_576.txt	LTP323	ltpFR2	3	18	COMPASS	358	n/a	n/a	0	0	0
3833071	WORD	wordpools/wasnorm_wordpool_576.txt	LTP323	ltpFR2	3	18	KETCHUP	771	n/a	n/a	0	0	0
3835539	WORD	wordpools/wasnorm_wordpool_576.txt	LTP323	ltpFR2	3	18	SADDLE	1221	n/a	n/a	0	0	0
3838192	WORD	wordpools/wasnorm_wordpool_576.txt	LTP323	ltpFR2	3	18	BACKBONE	66	n/a	n/a	0	0	0
3840927	WORD	wordpools/wasnorm_wordpool_576.txt	LTP323	ltpFR2	3	18	STALLION	1369	n/a	n/a	0	0	0
3843562	WORD	wordpools/wasnorm_wordpool_576.txt	LTP323	ltpFR2	3	18	ROCKET	1202	n/a	n/a	0	0	0
3846131	WORD	wordpools/wasnorm_wordpool_576.txt	LTP323	ltpFR2	3	18	RAZOR	1171	n/a	n/a	0	0	0
3848785	WORD	wordpools/wasnorm_wordpool_576.txt	LTP323	ltpFR2	3	18	HATCHET	691	n/a	n/a	0	0	0
3851502	WORD	wordpools/wasnorm_wordpool_576.txt	LTP323	ltpFR2	3	18	HIKER	708	n/a	n/a	0	0	0
3854020	WORD	wordpools/wasnorm_wordpool_576.txt	LTP323	ltpFR2	3	18	QUEEN	1149	n/a	n/a	0	0	0
3855626	START	n/a	LTP323	ltpFR2	3	n/a	n/a	n/a	26	n/a	n/a	n/a	n/a
3856622	DISTRACTOR	n/a	LTP323	ltpFR2	3	18	n/a	n/a	n/a	n/a	0	0	0
3856641	PROB	n/a	LTP323	ltpFR2	3	n/a	n/a	n/a	26	12	8	1	3
3858856	PROB	n/a	LTP323	ltpFR2	3	n/a	n/a	n/a	26	16	4	4	4
3861026	PROB	n/a	LTP323	ltpFR2	3	n/a	n/a	n/a	26	12	3	5	4
3866448	PROB	n/a	LTP323	ltpFR2	3	n/a	n/a	n/a	26	15	9	3	3
3868665	PROB	n/a	LTP323	ltpFR2	3	n/a	n/a	n/a	26	16	1	7	8
3872405	PROB	n/a	LTP323	ltpFR2	3	n/a	n/a	n/a	26	15	2	9	4
3875941	PROB	n/a	LTP323	ltpFR2	3	n/a	n/a	n/a	26	18	7	4	7
3878216	STOP	n/a	LTP323	ltpFR2	3	n/a	n/a	n/a	26	n/a	n/a	n/a	n/a
3881430	REC_START	n/a	LTP323	ltpFR2	3	18	n/a	n/a	n/a	n/a	0	0	0
3882839	REC_WORD	wordpools/wasnorm_wordpool_576.txt	LTP323	ltpFR2	3	18	HIKER	708	n/a	n/a	0	0	0
3883434	REC_WORD	wordpools/wasnorm_wordpool_576.txt	LTP323	ltpFR2	3	18	HATCHET	691	n/a	n/a	0	0	0
3884096	REC_WORD	wordpools/wasnorm_wordpool_576.txt	LTP323	ltpFR2	3	18	STALLION	1369	n/a	n/a	0	0	0
3884915	REC_WORD	wordpools/wasnorm_wordpool_576.txt	LTP323	ltpFR2	3	18	SADDLE	1221	n/a	n/a	0	0	0
3885915	REC_WORD_VV	wordpools/wasnorm_wordpool_576.txt	LTP323	ltpFR2	3	18	<>	-1	n/a	n/a	0	0	0
3887107	REC_WORD	wordpools/wasnorm_wordpool_576.txt	LTP323	ltpFR2	3	18	KETCHUP	771	n/a	n/a	0	0	0
3887566	REC_WORD	wordpools/wasnorm_wordpool_576.txt	LTP323	ltpFR2	3	18	MUSTARD	935	n/a	n/a	0	0	0
3888256	REC_WORD	wordpools/wasnorm_wordpool_576.txt	LTP323	ltpFR2	3	18	FRECKLE	602	n/a	n/a	0	0	0
3889288	REC_WORD	wordpools/wasnorm_wordpool_576.txt	LTP323	ltpFR2	3	18	IGLOO	734	n/a	n/a	0	0	0
3890310	REC_WORD	wordpools/wasnorm_wordpool_576.txt	LTP323	ltpFR2	3	18	MASK	876	n/a	n/a	0	0	0
3892481	REC_WORD	wordpools/wasnorm_wordpool_576.txt	LTP323	ltpFR2	3	18	CANAL	226	n/a	n/a	0	0	0
3893153	REC_WORD	wordpools/wasnorm_wordpool_576.txt	LTP323	ltpFR2	3	18	STALLION	1369	n/a	n/a	0	0	0
3894153	REC_WORD_VV	wordpools/wasnorm_wordpool_576.txt	LTP323	ltpFR2	3	18	<>	-1	n/a	n/a	0	0	0
3895151	REC_WORD	wordpools/wasnorm_wordpool_576.txt	LTP323	ltpFR2	3	18	FRECKLE	602	n/a	n/a	0	0	0
3895795	REC_WORD	wordpools/wasnorm_wordpool_576.txt	LTP323	ltpFR2	3	18	COIN	343	n/a	n/a	0	0	0
3896560	REC_WORD	wordpools/wasnorm_wordpool_576.txt	LTP323	ltpFR2	3	18	ARMY	39	n/a	n/a	0	0	0
3897235	REC_WORD	wordpools/wasnorm_wordpool_576.txt	LTP323	ltpFR2	3	18	EGYPT	519	n/a	n/a	0	0	0
3898147	REC_WORD	wordpools/wasnorm_wordpool_576.txt	LTP323	ltpFR2	3	18	COMPASS	358	n/a	n/a	0	0	0
3906564	REC_WORD	wordpools/wasnorm_wordpool_576.txt	LTP323	ltpFR2	3	18	TRUCK	1512	n/a	n/a	0	0	0
3907032	REC_WORD	wordpools/wasnorm_wordpool_576.txt	LTP323	ltpFR2	3	18	DONOR	485	n/a	n/a	0	0	0
3907475	REC_WORD	wordpools/wasnorm_wordpool_576.txt	LTP323	ltpFR2	3	18	BACKBONE	66	n/a	n/a	0	0	0
3908992	REC_WORD	wordpools/wasnorm_wordpool_576.txt	LTP323	ltpFR2	3	18	RAZOR	1171	n/a	n/a	0	0	0
3909554	REC_WORD	wordpools/wasnorm_wordpool_576.txt	LTP323	ltpFR2	3	18	ROCKET	1202	n/a	n/a	0	0	0
3913270	REC_WORD	wordpools/wasnorm_wordpool_576.txt	LTP323	ltpFR2	3	18	DIVER	476	n/a	n/a	0	0	0
3913786	REC_WORD	wordpools/wasnorm_wordpool_576.txt	LTP323	ltpFR2	3	18	SHARK	1275	n/a	n/a	0	0	0
3971855	DISTRACTOR	n/a	LTP323	ltpFR2	3	19	n/a	n/a	n/a	n/a	0	0	0
3971855	START	n/a	LTP323	ltpFR2	3	n/a	n/a	n/a	27	n/a	n/a	n/a	n/a
3971870	PROB	n/a	LTP323	ltpFR2	3	n/a	n/a	n/a	27	15	8	2	5
3973705	PROB	n/a	LTP323	ltpFR2	3	n/a	n/a	n/a	27	15	6	5	4
3975257	PROB	n/a	LTP323	ltpFR2	3	n/a	n/a	n/a	27	23	9	7	7
3977941	PROB	n/a	LTP323	ltpFR2	3	n/a	n/a	n/a	27	18	8	4	6
3979694	PROB	n/a	LTP323	ltpFR2	3	n/a	n/a	n/a	27	20	7	8	5
3982696	PROB	n/a	LTP323	ltpFR2	3	n/a	n/a	n/a	27	20	9	3	8
3985683	PROB	n/a	LTP323	ltpFR2	3	n/a	n/a	n/a	27	12	5	3	4
3987866	PROB	n/a	LTP323	ltpFR2	3	n/a	n/a	n/a	27	16	9	4	3
3989934	PROB	n/a	LTP323	ltpFR2	3	n/a	n/a	n/a	27	18	3	9	6
3992220	PROB	n/a	LTP323	ltpFR2	3	n/a	n/a	n/a	27	11	2	3	6
3993706	PROB	n/a	LTP323	ltpFR2	3	n/a	n/a	n/a	27	10	8	1	1
3995113	STOP	n/a	LTP323	ltpFR2	3	n/a	n/a	n/a	27	n/a	n/a	n/a	n/a
3997042	WORD	wordpools/wasnorm_wordpool_576.txt	LTP323	ltpFR2	3	19	TILE	1468	n/a	n/a	0	0	0
3999482	WORD	wordpools/wasnorm_wordpool_576.txt	LTP323	ltpFR2	3	19	FLOWER	584	n/a	n/a	0	0	0
4002279	WORD	wordpools/wasnorm_wordpool_576.txt	LTP323	ltpFR2	3	19	YARN	1631	n/a	n/a	0	0	0
4005031	WORD	wordpools/wasnorm_wordpool_576.txt	LTP323	ltpFR2	3	19	ANTLER	29	n/a	n/a	0	0	0
4007583	WORD	wordpools/wasnorm_wordpool_576.txt	LTP323	ltpFR2	3	19	PASTRY	1022	n/a	n/a	0	0	0
4010336	WORD	wordpools/wasnorm_wordpool_576.txt	LTP323	ltpFR2	3	19	CRAB	397	n/a	n/a	0	0	0
4012988	WORD	wordpools/wasnorm_wordpool_576.txt	LTP323	ltpFR2	3	19	BEAKER	104	n/a	n/a	0	0	0
4015490	WORD	wordpools/wasnorm_wordpool_576.txt	LTP323	ltpFR2	3	19	AGENT	10	n/a	n/a	0	0	0
4018042	WORD	wordpools/wasnorm_wordpool_576.txt	LTP323	ltpFR2	3	19	MARSH	874	n/a	n/a	0	0	0
4020745	WORD	wordpools/wasnorm_wordpool_576.txt	LTP323	ltpFR2	3	19	TOMBSTONE	1478	n/a	n/a	0	0	0
4023566	WORD	wordpools/wasnorm_wordpool_576.txt	LTP323	ltpFR2	3	19	PIZZA	1079	n/a	n/a	0	0	0
4026132	WORD	wordpools/wasnorm_wordpool_576.txt	LTP323	ltpFR2	3	19	COFFEE	341	n/a	n/a	0	0	0
4028918	WORD	wordpools/wasnorm_wordpool_576.txt	LTP323	ltpFR2	3	19	MILDEW	893	n/a	n/a	0	0	0
4031503	WORD	wordpools/wasnorm_wordpool_576.txt	LTP323	ltpFR2	3	19	GANGSTER	620	n/a	n/a	0	0	0
4034139	WORD	wordpools/wasnorm_wordpool_576.txt	LTP323	ltpFR2	3	19	VICTIM	1562	n/a	n/a	0	0	0
4036793	WORD	wordpools/wasnorm_wordpool_576.txt	LTP323	ltpFR2	3	19	APRON	35	n/a	n/a	0	0	0
4039245	WORD	wordpools/wasnorm_wordpool_576.txt	LTP323	ltpFR2	3	19	TWISTER	1530	n/a	n/a	0	0	0
4042062	WORD	wordpools/wasnorm_wordpool_576.txt	LTP323	ltpFR2	3	19	MAILBOX	857	n/a	n/a	0	0	0
4044564	WORD	wordpools/wasnorm_wordpool_576.txt	LTP323	ltpFR2	3	19	POSTAGE	1113	n/a	n/a	0	0	0
4047383	WORD	wordpools/wasnorm_wordpool_576.txt	LTP323	ltpFR2	3	19	SCALLOP	1242	n/a	n/a	0	0	0
4050102	WORD	wordpools/wasnorm_wordpool_576.txt	LTP323	ltpFR2	3	19	NOTEBOOK	959	n/a	n/a	0	0	0
4052755	WORD	wordpools/wasnorm_wordpool_576.txt	LTP323	ltpFR2	3	19	SKETCH	1315	n/a	n/a	0	0	0
4055306	WORD	wordpools/wasnorm_wordpool_576.txt	LTP323	ltpFR2	3	19	VIRUS	1572	n/a	n/a	0	0	0
4058025	WORD	wordpools/wasnorm_wordpool_576.txt	LTP323	ltpFR2	3	19	SHERIFF	1284	n/a	n/a	0	0	0
4059645	START	n/a	LTP323	ltpFR2	3	n/a	n/a	n/a	28	n/a	n/a	n/a	n/a
4060842	DISTRACTOR	n/a	LTP323	ltpFR2	3	19	n/a	n/a	n/a	n/a	0	0	0
4060861	PROB	n/a	LTP323	ltpFR2	3	n/a	n/a	n/a	28	9	4	4	1
4063680	PROB	n/a	LTP323	ltpFR2	3	n/a	n/a	n/a	28	16	8	5	3
4065947	PROB	n/a	LTP323	ltpFR2	3	n/a	n/a	n/a	28	18	6	3	9
4068249	PROB	n/a	LTP323	ltpFR2	3	n/a	n/a	n/a	28	15	6	3	6
4071519	PROB	n/a	LTP323	ltpFR2	3	n/a	n/a	n/a	28	15	2	7	6
4073955	PROB	n/a	LTP323	ltpFR2	3	n/a	n/a	n/a	28	20	9	9	2
4075940	PROB	n/a	LTP323	ltpFR2	3	n/a	n/a	n/a	28	19	2	8	9
4077659	PROB	n/a	LTP323	ltpFR2	3	n/a	n/a	n/a	28	12	2	1	9
4079527	PROB	n/a	LTP323	ltpFR2	3	n/a	n/a	n/a	28	11	3	1	7
4083645	STOP	n/a	LTP323	ltpFR2	3	n/a	n/a	n/a	28	n/a	n/a	n/a	n/a
4085566	REC_START	n/a	LTP323	ltpFR2	3	19	n/a	n/a	n/a	n/a	0	0	0
4089091	REC_WORD	wordpools/wasnorm_wordpool_576.txt	LTP323	ltpFR2	3	19	FLOWER	584	n/a	n/a	0	0	0
4089687	REC_WORD	wordpools/wasnorm_wordpool_576.txt	LTP323	ltpFR2	3	19	TILE	1468	n/a	n/a	0	0	0
4090252	REC_WORD	wordpools/wasnorm_wordpool_576.txt	LTP323	ltpFR2	3	19	YARN	1631	n/a	n/a	0	0	0
4092378	REC_WORD	wordpools/wasnorm_wordpool_576.txt	LTP323	ltpFR2	3	19	MILDEW	893	n/a	n/a	0	0	0
4093596	REC_WORD	wordpools/wasnorm_wordpool_576.txt	LTP323	ltpFR2	3	19	PASTRY	1022	n/a	n/a	0	0	0
4094884	REC_WORD	wordpools/wasnorm_wordpool_576.txt	LTP323	ltpFR2	3	19	CRAB	397	n/a	n/a	0	0	0
4095403	REC_WORD	wordpools/wasnorm_wordpool_576.txt	LTP323	ltpFR2	3	19	SCALLOP	1242	n/a	n/a	0	0	0
4096966	REC_WORD	wordpools/wasnorm_wordpool_576.txt	LTP323	ltpFR2	3	19	PIZZA	1079	n/a	n/a	0	0	0
4097907	REC_WORD	wordpools/wasnorm_wordpool_576.txt	LTP323	ltpFR2	3	19	COFFEE	341	n/a	n/a	0	0	0
4098689	REC_WORD	wordpools/wasnorm_wordpool_576.txt	LTP323	ltpFR2	3	19	APRON	35	n/a	n/a	0	0	0
4100635	REC_WORD	wordpools/wasnorm_wordpool_576.txt	LTP323	ltpFR2	3	19	TOMBSTONE	1478	n/a	n/a	0	0	0
4102138	REC_WORD	wordpools/wasnorm_wordpool_576.txt	LTP323	ltpFR2	3	19	AGENT	10	n/a	n/a	0	0	0
4105367	REC_WORD	wordpools/wasnorm_wordpool_576.txt	LTP323	ltpFR2	3	19	MARSH	874	n/a	n/a	0	0	0
4114575	REC_WORD	wordpools/wasnorm_wordpool_576.txt	LTP323	ltpFR2	3	19	TWISTER	1530	n/a	n/a	0	0	0
4118574	REC_WORD	wordpools/wasnorm_wordpool_576.txt	LTP323	ltpFR2	3	19	MAIL	-1	n/a	n/a	0	0	0
4122030	REC_WORD	wordpools/wasnorm_wordpool_576.txt	LTP323	ltpFR2	3	19	MAILBOX	857	n/a	n/a	0	0	0
4123030	REC_WORD_VV	wordpools/wasnorm_wordpool_576.txt	LTP323	ltpFR2	3	19	<>	-1	n/a	n/a	0	0	0
4124034	REC_WORD	wordpools/wasnorm_wordpool_576.txt	LTP323	ltpFR2	3	19	POSTAGE	1113	n/a	n/a	0	0	0
4129826	REC_WORD	wordpools/wasnorm_wordpool_576.txt	LTP323	ltpFR2	3	19	NOTEBOOK	959	n/a	n/a	0	0	0
4130287	REC_WORD	wordpools/wasnorm_wordpool_576.txt	LTP323	ltpFR2	3	19	SKETCH	1315	n/a	n/a	0	0	0
4131077	REC_WORD	wordpools/wasnorm_wordpool_576.txt	LTP323	ltpFR2	3	19	VIRUS	1572	n/a	n/a	0	0	0
4132077	REC_WORD_VV	wordpools/wasnorm_wordpool_576.txt	LTP323	ltpFR2	3	19	<>	-1	n/a	n/a	0	0	0
4137765	REC_WORD	wordpools/wasnorm_wordpool_576.txt	LTP323	ltpFR2	3	19	GANGSTER	620	n/a	n/a	0	0	0
4138428	REC_WORD	wordpools/wasnorm_wordpool_576.txt	LTP323	ltpFR2	3	19	VICTIM	1562	n/a	n/a	0	0	0
4175991	DISTRACTOR	n/a	LTP323	ltpFR2	3	20	n/a	n/a	n/a	n/a	0	0	0
4175991	START	n/a	LTP323	ltpFR2	3	n/a	n/a	n/a	29	n/a	n/a	n/a	n/a
4176005	PROB	n/a	LTP323	ltpFR2	3	n/a	n/a	n/a	29	20	4	7	9
4178174	PROB	n/a	LTP323	ltpFR2	3	n/a	n/a	n/a	29	12	4	2	6
4180292	PROB	n/a	LTP323	ltpFR2	3	n/a	n/a	n/a	29	9	5	1	3
4182511	PROB	n/a	LTP323	ltpFR2	3	n/a	n/a	n/a	29	14	7	4	3
4184279	PROB	n/a	LTP323	ltpFR2	3	n/a	n/a	n/a	29	6	2	1	3
4186814	PROB	n/a	LTP323	ltpFR2	3	n/a	n/a	n/a	29	11	2	6	3
4189634	PROB	n/a	LTP323	ltpFR2	3	n/a	n/a	n/a	29	25	9	9	7
4192285	PROB	n/a	LTP323	ltpFR2	3	n/a	n/a	n/a	29	14	1	5	8
4194471	PROB	n/a	LTP323	ltpFR2	3	n/a	n/a	n/a	29	17	3	5	9
4196690	PROB	n/a	LTP323	ltpFR2	3	n/a	n/a	n/a	29	12	2	7	3
4199991	STOP	n/a	LTP323	ltpFR2	3	n/a	n/a	n/a	29	n/a	n/a	n/a	n/a
4200927	WORD	wordpools/wasnorm_wordpool_576.txt	LTP323	ltpFR2	3	20	WHISTLE	1606	n/a	n/a	0	0	0
4203563	WORD	wordpools/wasnorm_wordpool_576.txt	LTP323	ltpFR2	3	20	NURSE	963	n/a	n/a	0	0	0
4206089	WORD	wordpools/wasnorm_wordpool_576.txt	LTP323	ltpFR2	3	20	CONTRACT	368	n/a	n/a	0	0	0
4208550	WORD	wordpools/wasnorm_wordpool_576.txt	LTP323	ltpFR2	3	20	SILK	1307	n/a	n/a	0	0	0
4211076	WORD	wordpools/wasnorm_wordpool_576.txt	LTP323	ltpFR2	3	20	TWIG	1527	n/a	n/a	0	0	0
4213606	WORD	wordpools/wasnorm_wordpool_576.txt	LTP323	ltpFR2	3	20	CHAUFFEUR	283	n/a	n/a	0	0	0
4216280	WORD	wordpools/wasnorm_wordpool_576.txt	LTP323	ltpFR2	3	20	CHEST	295	n/a	n/a	0	0	0
4219059	WORD	wordpools/wasnorm_wordpool_576.txt	LTP323	ltpFR2	3	20	WOMAN	1620	n/a	n/a	0	0	0
4221578	WORD	wordpools/wasnorm_wordpool_576.txt	LTP323	ltpFR2	3	20	JURY	766	n/a	n/a	0	0	0
4224269	WORD	wordpools/wasnorm_wordpool_576.txt	LTP323	ltpFR2	3	20	FRAGRANCE	599	n/a	n/a	0	0	0
4226766	WORD	wordpools/wasnorm_wordpool_576.txt	LTP323	ltpFR2	3	20	PERFUME	1049	n/a	n/a	0	0	0
4229285	WORD	wordpools/wasnorm_wordpool_576.txt	LTP323	ltpFR2	3	20	FLEET	578	n/a	n/a	0	0	0
4232069	WORD	wordpools/wasnorm_wordpool_576.txt	LTP323	ltpFR2	3	20	DUSTPAN	509	n/a	n/a	0	0	0
4234539	WORD	wordpools/wasnorm_wordpool_576.txt	LTP323	ltpFR2	3	20	CIGAR	308	n/a	n/a	0	0	0
4237107	WORD	wordpools/wasnorm_wordpool_576.txt	LTP323	ltpFR2	3	20	PLAZA	1088	n/a	n/a	0	0	0
4239711	WORD	wordpools/wasnorm_wordpool_576.txt	LTP323	ltpFR2	3	20	ANKLE	24	n/a	n/a	0	0	0
4242500	WORD	wordpools/wasnorm_wordpool_576.txt	LTP323	ltpFR2	3	20	ARM	38	n/a	n/a	0	0	0
4244964	WORD	wordpools/wasnorm_wordpool_576.txt	LTP323	ltpFR2	3	20	POWDER	1117	n/a	n/a	0	0	0
4247549	WORD	wordpools/wasnorm_wordpool_576.txt	LTP323	ltpFR2	3	20	GIRL	637	n/a	n/a	0	0	0
4250268	WORD	wordpools/wasnorm_wordpool_576.txt	LTP323	ltpFR2	3	20	DUST	508	n/a	n/a	0	0	0
4252904	WORD	wordpools/wasnorm_wordpool_576.txt	LTP323	ltpFR2	3	20	SHORTS	1293	n/a	n/a	0	0	0
4255624	WORD	wordpools/wasnorm_wordpool_576.txt	LTP323	ltpFR2	3	20	PORK	1108	n/a	n/a	0	0	0
4258409	WORD	wordpools/wasnorm_wordpool_576.txt	LTP323	ltpFR2	3	20	SHRUB	1299	n/a	n/a	0	0	0
4261144	WORD	wordpools/wasnorm_wordpool_576.txt	LTP323	ltpFR2	3	20	BUG	187	n/a	n/a	0	0	0
4262751	START	n/a	LTP323	ltpFR2	3	n/a	n/a	n/a	30	n/a	n/a	n/a	n/a
4263904	DISTRACTOR	n/a	LTP323	ltpFR2	3	20	n/a	n/a	n/a	n/a	0	0	0
4263913	PROB	n/a	LTP323	ltpFR2	3	n/a	n/a	n/a	30	10	1	7	2
4266365	PROB	n/a	LTP323	ltpFR2	3	n/a	n/a	n/a	30	14	2	5	7
4268184	PROB	n/a	LTP323	ltpFR2	3	n/a	n/a	n/a	30	17	3	6	8
4270317	PROB	n/a	LTP323	ltpFR2	3	n/a	n/a	n/a	30	14	3	7	4
4273287	PROB	n/a	LTP323	ltpFR2	3	n/a	n/a	n/a	30	15	2	8	5
4275488	PROB	n/a	LTP323	ltpFR2	3	n/a	n/a	n/a	30	16	5	7	4
