mstime	trial_type	stim_file	subject	experiment	session	trial	task	item_name	item_num	recog_conf	resp	answer	test_x	test_y	test_z	color_b	color_g	color_r	case	font
0	SESS_START	n/a	LTP073	ltpFR	8	n/a	n/a	n/a	n/a	2	n/a	n/a	0	0	0	n/a	n/a	n/a	n/a	n/a
34995	START	n/a	LTP073	ltpFR	8	n/a	n/a	n/a	n/a	n/a	n/a	n/a	n/a	n/a	n/a	n/a	n/a	n/a	n/a	n/a
35020	PROB	n/a	LTP073	ltpFR	8	n/a	n/a	n/a	n/a	n/a	n/a	17	9	1	7	n/a	n/a	n/a	n/a	n/a
38994	PROB	n/a	LTP073	ltpFR	8	n/a	n/a	n/a	n/a	n/a	n/a	13	1	6	6	n/a	n/a	n/a	n/a	n/a
40928	PROB	n/a	LTP073	ltpFR	8	n/a	n/a	n/a	n/a	n/a	n/a	17	5	7	5	n/a	n/a	n/a	n/a	n/a
42936	PROB	n/a	LTP073	ltpFR	8	n/a	n/a	n/a	n/a	n/a	n/a	6	3	1	2	n/a	n/a	n/a	n/a	n/a
44453	PROB	n/a	LTP073	ltpFR	8	n/a	n/a	n/a	n/a	n/a	n/a	12	3	6	3	n/a	n/a	n/a	n/a	n/a
46044	PROB	n/a	LTP073	ltpFR	8	n/a	n/a	n/a	n/a	n/a	n/a	11	7	2	2	n/a	n/a	n/a	n/a	n/a
47545	PROB	n/a	LTP073	ltpFR	8	n/a	n/a	n/a	n/a	n/a	n/a	19	8	2	9	n/a	n/a	n/a	n/a	n/a
50235	PROB	n/a	LTP073	ltpFR	8	n/a	n/a	n/a	n/a	n/a	n/a	6	1	3	2	n/a	n/a	n/a	n/a	n/a
51653	PROB	n/a	LTP073	ltpFR	8	n/a	n/a	n/a	n/a	n/a	n/a	7	3	1	3	n/a	n/a	n/a	n/a	n/a
53353	PROB	n/a	LTP073	ltpFR	8	n/a	n/a	n/a	n/a	n/a	n/a	15	8	2	5	n/a	n/a	n/a	n/a	n/a
54634	STOP	n/a	LTP073	ltpFR	8	n/a	n/a	n/a	n/a	n/a	n/a	n/a	n/a	n/a	n/a	n/a	n/a	n/a	n/a	n/a
136339	START	n/a	LTP073	ltpFR	8	n/a	n/a	n/a	n/a	n/a	n/a	n/a	n/a	n/a	n/a	n/a	n/a	n/a	n/a	n/a
137845	PROB	n/a	LTP073	ltpFR	8	n/a	n/a	n/a	n/a	n/a	n/a	19	4	6	9	n/a	n/a	n/a	n/a	n/a
139895	PROB	n/a	LTP073	ltpFR	8	n/a	n/a	n/a	n/a	n/a	n/a	14	9	1	4	n/a	n/a	n/a	n/a	n/a
141630	PROB	n/a	LTP073	ltpFR	8	n/a	n/a	n/a	n/a	n/a	n/a	8	2	3	5	n/a	n/a	n/a	n/a	n/a
142881	STOP	n/a	LTP073	ltpFR	8	n/a	n/a	n/a	n/a	n/a	n/a	n/a	n/a	n/a	n/a	n/a	n/a	n/a	n/a	n/a
145413	WORD	wordpools/wasnorm_wordpool.txt	LTP073	ltpFR	8	1	0	CAB	209	n/a	1	n/a	0	0	0	1	0.412841796875	0.57763671875	upper	../fonts/amplitud.ttf
148421	START	n/a	LTP073	ltpFR	8	n/a	n/a	n/a	n/a	n/a	n/a	n/a	n/a	n/a	n/a	n/a	n/a	n/a	n/a	n/a
149421	PROB	n/a	LTP073	ltpFR	8	n/a	n/a	n/a	n/a	n/a	n/a	18	7	4	7	n/a	n/a	n/a	n/a	n/a
151203	PROB	n/a	LTP073	ltpFR	8	n/a	n/a	n/a	n/a	n/a	n/a	13	7	5	1	n/a	n/a	n/a	n/a	n/a
152878	PROB	n/a	LTP073	ltpFR	8	n/a	n/a	n/a	n/a	n/a	n/a	16	5	5	6	n/a	n/a	n/a	n/a	n/a
156418	STOP	n/a	LTP073	ltpFR	8	n/a	n/a	n/a	n/a	n/a	n/a	n/a	n/a	n/a	n/a	n/a	n/a	n/a	n/a	n/a
157528	WORD	wordpools/wasnorm_wordpool.txt	LTP073	ltpFR	8	1	0	DRIVEWAY	500	n/a	1	n/a	0	0	0	1	0.412841796875	0.57763671875	upper	../fonts/amplitud.ttf
160537	START	n/a	LTP073	ltpFR	8	n/a	n/a	n/a	n/a	n/a	n/a	n/a	n/a	n/a	n/a	n/a	n/a	n/a	n/a	n/a
161428	PROB	n/a	LTP073	ltpFR	8	n/a	n/a	n/a	n/a	n/a	n/a	14	8	4	2	n/a	n/a	n/a	n/a	n/a
163252	PROB	n/a	LTP073	ltpFR	8	n/a	n/a	n/a	n/a	n/a	n/a	16	2	9	5	n/a	n/a	n/a	n/a	n/a
164960	PROB	n/a	LTP073	ltpFR	8	n/a	n/a	n/a	n/a	n/a	n/a	15	4	5	6	n/a	n/a	n/a	n/a	n/a
166235	PROB	n/a	LTP073	ltpFR	8	n/a	n/a	n/a	n/a	n/a	n/a	17	7	8	2	n/a	n/a	n/a	n/a	n/a
167801	STOP	n/a	LTP073	ltpFR	8	n/a	n/a	n/a	n/a	n/a	n/a	n/a	n/a	n/a	n/a	n/a	n/a	n/a	n/a	n/a
169419	WORD	wordpools/wasnorm_wordpool.txt	LTP073	ltpFR	8	1	0	DIAMOND	458	n/a	0	n/a	0	0	0	1	0.412841796875	0.57763671875	upper	../fonts/amplitud.ttf
172428	START	n/a	LTP073	ltpFR	8	n/a	n/a	n/a	n/a	n/a	n/a	n/a	n/a	n/a	n/a	n/a	n/a	n/a	n/a	n/a
173427	PROB	n/a	LTP073	ltpFR	8	n/a	n/a	n/a	n/a	n/a	n/a	15	6	7	2	n/a	n/a	n/a	n/a	n/a
174859	PROB	n/a	LTP073	ltpFR	8	n/a	n/a	n/a	n/a	n/a	n/a	12	7	3	2	n/a	n/a	n/a	n/a	n/a
176394	PROB	n/a	LTP073	ltpFR	8	n/a	n/a	n/a	n/a	n/a	n/a	15	7	4	4	n/a	n/a	n/a	n/a	n/a
178034	PROB	n/a	LTP073	ltpFR	8	n/a	n/a	n/a	n/a	n/a	n/a	10	1	6	3	n/a	n/a	n/a	n/a	n/a
179602	STOP	n/a	LTP073	ltpFR	8	n/a	n/a	n/a	n/a	n/a	n/a	n/a	n/a	n/a	n/a	n/a	n/a	n/a	n/a	n/a
181560	WORD	wordpools/wasnorm_wordpool.txt	LTP073	ltpFR	8	1	0	TELEPHONE	1445	n/a	0	n/a	0	0	0	1	0.412841796875	0.57763671875	upper	../fonts/amplitud.ttf
184569	START	n/a	LTP073	ltpFR	8	n/a	n/a	n/a	n/a	n/a	n/a	n/a	n/a	n/a	n/a	n/a	n/a	n/a	n/a	n/a
185501	PROB	n/a	LTP073	ltpFR	8	n/a	n/a	n/a	n/a	n/a	n/a	14	3	6	5	n/a	n/a	n/a	n/a	n/a
186967	PROB	n/a	LTP073	ltpFR	8	n/a	n/a	n/a	n/a	n/a	n/a	14	3	5	6	n/a	n/a	n/a	n/a	n/a
189883	PROB	n/a	LTP073	ltpFR	8	n/a	n/a	n/a	n/a	n/a	n/a	19	1	5	3	n/a	n/a	n/a	n/a	n/a
192033	STOP	n/a	LTP073	ltpFR	8	n/a	n/a	n/a	n/a	n/a	n/a	n/a	n/a	n/a	n/a	n/a	n/a	n/a	n/a	n/a
193701	WORD	wordpools/wasnorm_wordpool.txt	LTP073	ltpFR	8	1	0	CELERY	266	n/a	0	n/a	0	0	0	1	0.412841796875	0.57763671875	upper	../fonts/amplitud.ttf
196709	START	n/a	LTP073	ltpFR	8	n/a	n/a	n/a	n/a	n/a	n/a	n/a	n/a	n/a	n/a	n/a	n/a	n/a	n/a	n/a
197534	PROB	n/a	LTP073	ltpFR	8	n/a	n/a	n/a	n/a	n/a	n/a	19	7	4	8	n/a	n/a	n/a	n/a	n/a
199108	PROB	n/a	LTP073	ltpFR	8	n/a	n/a	n/a	n/a	n/a	n/a	15	1	9	5	n/a	n/a	n/a	n/a	n/a
200309	PROB	n/a	LTP073	ltpFR	8	n/a	n/a	n/a	n/a	n/a	n/a	7	1	4	2	n/a	n/a	n/a	n/a	n/a
201700	PROB	n/a	LTP073	ltpFR	8	n/a	n/a	n/a	n/a	n/a	n/a	21	8	5	8	n/a	n/a	n/a	n/a	n/a
203786	STOP	n/a	LTP073	ltpFR	8	n/a	n/a	n/a	n/a	n/a	n/a	n/a	n/a	n/a	n/a	n/a	n/a	n/a	n/a	n/a
205866	WORD	wordpools/wasnorm_wordpool.txt	LTP073	ltpFR	8	1	0	BONE	148	n/a	0	n/a	0	0	0	1	0.412841796875	0.57763671875	upper	../fonts/amplitud.ttf
208874	START	n/a	LTP073	ltpFR	8	n/a	n/a	n/a	n/a	n/a	n/a	n/a	n/a	n/a	n/a	n/a	n/a	n/a	n/a	n/a
209791	PROB	n/a	LTP073	ltpFR	8	n/a	n/a	n/a	n/a	n/a	n/a	21	4	8	9	n/a	n/a	n/a	n/a	n/a
211724	PROB	n/a	LTP073	ltpFR	8	n/a	n/a	n/a	n/a	n/a	n/a	12	6	3	3	n/a	n/a	n/a	n/a	n/a
213273	PROB	n/a	LTP073	ltpFR	8	n/a	n/a	n/a	n/a	n/a	n/a	16	5	6	5	n/a	n/a	n/a	n/a	n/a
215402	STOP	n/a	LTP073	ltpFR	8	n/a	n/a	n/a	n/a	n/a	n/a	n/a	n/a	n/a	n/a	n/a	n/a	n/a	n/a	n/a
217956	WORD	wordpools/wasnorm_wordpool.txt	LTP073	ltpFR	8	1	0	PUPPY	1144	n/a	1	n/a	0	0	0	1	0.412841796875	0.57763671875	upper	../fonts/amplitud.ttf
220957	START	n/a	LTP073	ltpFR	8	n/a	n/a	n/a	n/a	n/a	n/a	n/a	n/a	n/a	n/a	n/a	n/a	n/a	n/a	n/a
221814	PROB	n/a	LTP073	ltpFR	8	n/a	n/a	n/a	n/a	n/a	n/a	16	2	6	8	n/a	n/a	n/a	n/a	n/a
224006	PROB	n/a	LTP073	ltpFR	8	n/a	n/a	n/a	n/a	n/a	n/a	21	9	6	8	n/a	n/a	n/a	n/a	n/a
228953	STOP	n/a	LTP073	ltpFR	8	n/a	n/a	n/a	n/a	n/a	n/a	n/a	n/a	n/a	n/a	n/a	n/a	n/a	n/a	n/a
230047	WORD	wordpools/wasnorm_wordpool.txt	LTP073	ltpFR	8	1	0	STEREO	1378	n/a	0	n/a	0	0	0	1	0.412841796875	0.57763671875	upper	../fonts/amplitud.ttf
233056	START	n/a	LTP073	ltpFR	8	n/a	n/a	n/a	n/a	n/a	n/a	n/a	n/a	n/a	n/a	n/a	n/a	n/a	n/a	n/a
234063	PROB	n/a	LTP073	ltpFR	8	n/a	n/a	n/a	n/a	n/a	n/a	13	3	2	8	n/a	n/a	n/a	n/a	n/a
236238	PROB	n/a	LTP073	ltpFR	8	n/a	n/a	n/a	n/a	n/a	n/a	11	3	7	1	n/a	n/a	n/a	n/a	n/a
237656	PROB	n/a	LTP073	ltpFR	8	n/a	n/a	n/a	n/a	n/a	n/a	21	9	4	8	n/a	n/a	n/a	n/a	n/a
239778	STOP	n/a	LTP073	ltpFR	8	n/a	n/a	n/a	n/a	n/a	n/a	n/a	n/a	n/a	n/a	n/a	n/a	n/a	n/a	n/a
242013	WORD	wordpools/wasnorm_wordpool.txt	LTP073	ltpFR	8	1	0	ICEBERG	731	n/a	1	n/a	0	0	0	1	0.412841796875	0.57763671875	upper	../fonts/amplitud.ttf
245022	START	n/a	LTP073	ltpFR	8	n/a	n/a	n/a	n/a	n/a	n/a	n/a	n/a	n/a	n/a	n/a	n/a	n/a	n/a	n/a
246163	PROB	n/a	LTP073	ltpFR	8	n/a	n/a	n/a	n/a	n/a	n/a	16	7	8	1	n/a	n/a	n/a	n/a	n/a
247539	PROB	n/a	LTP073	ltpFR	8	n/a	n/a	n/a	n/a	n/a	n/a	11	5	2	4	n/a	n/a	n/a	n/a	n/a
248871	PROB	n/a	LTP073	ltpFR	8	n/a	n/a	n/a	n/a	n/a	n/a	23	9	5	9	n/a	n/a	n/a	n/a	n/a
251079	PROB	n/a	LTP073	ltpFR	8	n/a	n/a	n/a	n/a	n/a	n/a	6	4	1	1	n/a	n/a	n/a	n/a	n/a
252233	STOP	n/a	LTP073	ltpFR	8	n/a	n/a	n/a	n/a	n/a	n/a	n/a	n/a	n/a	n/a	n/a	n/a	n/a	n/a	n/a
253945	WORD	wordpools/wasnorm_wordpool.txt	LTP073	ltpFR	8	1	0	SUITCASE	1403	n/a	1	n/a	0	0	0	1	0.412841796875	0.57763671875	upper	../fonts/amplitud.ttf
256954	START	n/a	LTP073	ltpFR	8	n/a	n/a	n/a	n/a	n/a	n/a	n/a	n/a	n/a	n/a	n/a	n/a	n/a	n/a	n/a
257970	PROB	n/a	LTP073	ltpFR	8	n/a	n/a	n/a	n/a	n/a	n/a	10	2	6	2	n/a	n/a	n/a	n/a	n/a
260178	PROB	n/a	LTP073	ltpFR	8	n/a	n/a	n/a	n/a	n/a	n/a	17	1	7	9	n/a	n/a	n/a	n/a	n/a
262587	PROB	n/a	LTP073	ltpFR	8	n/a	n/a	n/a	n/a	n/a	n/a	10	1	2	7	n/a	n/a	n/a	n/a	n/a
264490	STOP	n/a	LTP073	ltpFR	8	n/a	n/a	n/a	n/a	n/a	n/a	n/a	n/a	n/a	n/a	n/a	n/a	n/a	n/a	n/a
265903	WORD	wordpools/wasnorm_wordpool.txt	LTP073	ltpFR	8	1	0	OBOE	969	n/a	1	n/a	0	0	0	1	0.412841796875	0.57763671875	upper	../fonts/amplitud.ttf
268911	START	n/a	LTP073	ltpFR	8	n/a	n/a	n/a	n/a	n/a	n/a	n/a	n/a	n/a	n/a	n/a	n/a	n/a	n/a	n/a
269803	PROB	n/a	LTP073	ltpFR	8	n/a	n/a	n/a	n/a	n/a	n/a	22	6	9	7	n/a	n/a	n/a	n/a	n/a
273227	PROB	n/a	LTP073	ltpFR	8	n/a	n/a	n/a	n/a	n/a	n/a	21	4	8	9	n/a	n/a	n/a	n/a	n/a
276910	STOP	n/a	LTP073	ltpFR	8	n/a	n/a	n/a	n/a	n/a	n/a	n/a	n/a	n/a	n/a	n/a	n/a	n/a	n/a	n/a
278102	WORD	wordpools/wasnorm_wordpool.txt	LTP073	ltpFR	8	1	0	FUNGUS	614	n/a	0	n/a	0	0	0	1	0.412841796875	0.57763671875	upper	../fonts/amplitud.ttf
281110	START	n/a	LTP073	ltpFR	8	n/a	n/a	n/a	n/a	n/a	n/a	n/a	n/a	n/a	n/a	n/a	n/a	n/a	n/a	n/a
282093	PROB	n/a	LTP073	ltpFR	8	n/a	n/a	n/a	n/a	n/a	n/a	10	6	2	2	n/a	n/a	n/a	n/a	n/a
284285	PROB	n/a	LTP073	ltpFR	8	n/a	n/a	n/a	n/a	n/a	n/a	15	4	9	4	n/a	n/a	n/a	n/a	n/a
286135	PROB	n/a	LTP073	ltpFR	8	n/a	n/a	n/a	n/a	n/a	n/a	19	8	2	9	n/a	n/a	n/a	n/a	n/a
288105	STOP	n/a	LTP073	ltpFR	8	n/a	n/a	n/a	n/a	n/a	n/a	n/a	n/a	n/a	n/a	n/a	n/a	n/a	n/a	n/a
290118	WORD	wordpools/wasnorm_wordpool.txt	LTP073	ltpFR	8	1	0	VISITOR	1573	n/a	1	n/a	0	0	0	1	0.412841796875	0.57763671875	upper	../fonts/amplitud.ttf
293126	START	n/a	LTP073	ltpFR	8	n/a	n/a	n/a	n/a	n/a	n/a	n/a	n/a	n/a	n/a	n/a	n/a	n/a	n/a	n/a
294176	PROB	n/a	LTP073	ltpFR	8	n/a	n/a	n/a	n/a	n/a	n/a	6	4	1	1	n/a	n/a	n/a	n/a	n/a
295460	PROB	n/a	LTP073	ltpFR	8	n/a	n/a	n/a	n/a	n/a	n/a	15	1	9	5	n/a	n/a	n/a	n/a	n/a
296785	PROB	n/a	LTP073	ltpFR	8	n/a	n/a	n/a	n/a	n/a	n/a	25	9	9	7	n/a	n/a	n/a	n/a	n/a
300049	STOP	n/a	LTP073	ltpFR	8	n/a	n/a	n/a	n/a	n/a	n/a	n/a	n/a	n/a	n/a	n/a	n/a	n/a	n/a	n/a
302008	WORD	wordpools/wasnorm_wordpool.txt	LTP073	ltpFR	8	1	0	CUBE	420	n/a	0	n/a	0	0	0	1	0.412841796875	0.57763671875	upper	../fonts/amplitud.ttf
305009	START	n/a	LTP073	ltpFR	8	n/a	n/a	n/a	n/a	n/a	n/a	n/a	n/a	n/a	n/a	n/a	n/a	n/a	n/a	n/a
305941	PROB	n/a	LTP073	ltpFR	8	n/a	n/a	n/a	n/a	n/a	n/a	15	2	7	6	n/a	n/a	n/a	n/a	n/a
307975	PROB	n/a	LTP073	ltpFR	8	n/a	n/a	n/a	n/a	n/a	n/a	17	8	2	7	n/a	n/a	n/a	n/a	n/a
309351	PROB	n/a	LTP073	ltpFR	8	n/a	n/a	n/a	n/a	n/a	n/a	11	5	4	2	n/a	n/a	n/a	n/a	n/a
311133	PROB	n/a	LTP073	ltpFR	8	n/a	n/a	n/a	n/a	n/a	n/a	15	8	5	2	n/a	n/a	n/a	n/a	n/a
312490	STOP	n/a	LTP073	ltpFR	8	n/a	n/a	n/a	n/a	n/a	n/a	n/a	n/a	n/a	n/a	n/a	n/a	n/a	n/a	n/a
313974	WORD	wordpools/wasnorm_wordpool.txt	LTP073	ltpFR	8	1	0	PUMP	1141	n/a	1	n/a	0	0	0	1	0.412841796875	0.57763671875	upper	../fonts/amplitud.ttf
316974	START	n/a	LTP073	ltpFR	8	n/a	n/a	n/a	n/a	n/a	n/a	n/a	n/a	n/a	n/a	n/a	n/a	n/a	n/a	n/a
318066	PROB	n/a	LTP073	ltpFR	8	n/a	n/a	n/a	n/a	n/a	n/a	15	6	5	4	n/a	n/a	n/a	n/a	n/a
320466	PROB	n/a	LTP073	ltpFR	8	n/a	n/a	n/a	n/a	n/a	n/a	19	8	8	3	n/a	n/a	n/a	n/a	n/a
323182	PROB	n/a	LTP073	ltpFR	8	n/a	n/a	n/a	n/a	n/a	n/a	21	9	6	6	n/a	n/a	n/a	n/a	n/a
324825	STOP	n/a	LTP073	ltpFR	8	n/a	n/a	n/a	n/a	n/a	n/a	n/a	n/a	n/a	n/a	n/a	n/a	n/a	n/a	n/a
325832	WORD	wordpools/wasnorm_wordpool.txt	LTP073	ltpFR	8	1	0	CRIMINAL	409	n/a	1	n/a	0	0	0	1	0.412841796875	0.57763671875	upper	../fonts/amplitud.ttf
328840	START	n/a	LTP073	ltpFR	8	n/a	n/a	n/a	n/a	n/a	n/a	n/a	n/a	n/a	n/a	n/a	n/a	n/a	n/a	n/a
329716	PROB	n/a	LTP073	ltpFR	8	n/a	n/a	n/a	n/a	n/a	n/a	14	8	3	3	n/a	n/a	n/a	n/a	n/a
331666	PROB	n/a	LTP073	ltpFR	8	n/a	n/a	n/a	n/a	n/a	n/a	17	5	9	3	n/a	n/a	n/a	n/a	n/a
334307	PROB	n/a	LTP073	ltpFR	8	n/a	n/a	n/a	n/a	n/a	n/a	12	2	4	6	n/a	n/a	n/a	n/a	n/a
335881	STOP	n/a	LTP073	ltpFR	8	n/a	n/a	n/a	n/a	n/a	n/a	n/a	n/a	n/a	n/a	n/a	n/a	n/a	n/a	n/a
338666	REC_START	n/a	LTP073	ltpFR	8	1	n/a	n/a	n/a	n/a	n/a	n/a	0	0	0	n/a	n/a	n/a	n/a	n/a
340234	REC_WORD	wordpools/wasnorm_wordpool.txt	LTP073	ltpFR	8	1	0	CRIMINAL	409	n/a	1	n/a	0	0	0	n/a	n/a	n/a	n/a	n/a
341229	REC_WORD	wordpools/wasnorm_wordpool.txt	LTP073	ltpFR	8	1	0	PUMP	1141	n/a	1	n/a	0	0	0	n/a	n/a	n/a	n/a	n/a
342186	REC_WORD	wordpools/wasnorm_wordpool.txt	LTP073	ltpFR	8	1	0	VISITOR	1573	n/a	1	n/a	0	0	0	n/a	n/a	n/a	n/a	n/a
343422	REC_WORD	wordpools/wasnorm_wordpool.txt	LTP073	ltpFR	8	1	0	PUPPY	1144	n/a	1	n/a	0	0	0	n/a	n/a	n/a	n/a	n/a
344412	REC_WORD	wordpools/wasnorm_wordpool.txt	LTP073	ltpFR	8	1	0	DIAMOND	458	n/a	0	n/a	0	0	0	n/a	n/a	n/a	n/a	n/a
346854	REC_WORD	wordpools/wasnorm_wordpool.txt	LTP073	ltpFR	8	1	0	CUBE	420	n/a	0	n/a	0	0	0	n/a	n/a	n/a	n/a	n/a
347968	REC_WORD	wordpools/wasnorm_wordpool.txt	LTP073	ltpFR	8	1	0	ICEBERG	731	n/a	1	n/a	0	0	0	n/a	n/a	n/a	n/a	n/a
349232	REC_WORD	wordpools/wasnorm_wordpool.txt	LTP073	ltpFR	8	1	0	CAB	209	n/a	1	n/a	0	0	0	n/a	n/a	n/a	n/a	n/a
350176	REC_WORD	wordpools/wasnorm_wordpool.txt	LTP073	ltpFR	8	1	0	DRIVEWAY	500	n/a	1	n/a	0	0	0	n/a	n/a	n/a	n/a	n/a
356909	REC_WORD	wordpools/wasnorm_wordpool.txt	LTP073	ltpFR	8	1	0	OBOE	969	n/a	1	n/a	0	0	0	n/a	n/a	n/a	n/a	n/a
357476	REC_WORD_VV	wordpools/wasnorm_wordpool.txt	LTP073	ltpFR	8	1	n/a	<>	-1	n/a	n/a	n/a	0	0	0	n/a	n/a	n/a	n/a	n/a
430692	WORD	wordpools/wasnorm_wordpool.txt	LTP073	ltpFR	8	2	0	HUT	729	n/a	0	n/a	0	0	0	1	0.412841796875	0.57763671875	upper	../fonts/amplitud.ttf
434641	WORD	wordpools/wasnorm_wordpool.txt	LTP073	ltpFR	8	2	0	SENATOR	1268	n/a	1	n/a	0	0	0	1	0.412841796875	0.57763671875	upper	../fonts/amplitud.ttf
438458	WORD	wordpools/wasnorm_wordpool.txt	LTP073	ltpFR	8	2	0	FOLLOWER	589	n/a	1	n/a	0	0	0	1	0.412841796875	0.57763671875	upper	../fonts/amplitud.ttf
442324	WORD	wordpools/wasnorm_wordpool.txt	LTP073	ltpFR	8	2	1	RACCOON	1153	n/a	1	n/a	0	0	0	0	0.5869140625	0.422607421875	lower	../fonts/zerothre.ttf
446382	WORD	wordpools/wasnorm_wordpool.txt	LTP073	ltpFR	8	2	1	EYELASH	546	n/a	0	n/a	0	0	0	0	0.5869140625	0.422607421875	lower	../fonts/zerothre.ttf
450457	WORD	wordpools/wasnorm_wordpool.txt	LTP073	ltpFR	8	2	1	VILLAGE	1566	n/a	0	n/a	0	0	0	0	0.5869140625	0.422607421875	lower	../fonts/zerothre.ttf
454473	WORD	wordpools/wasnorm_wordpool.txt	LTP073	ltpFR	8	2	1	GYM	674	n/a	0	n/a	0	0	0	0	0.5869140625	0.422607421875	lower	../fonts/zerothre.ttf
458340	WORD	wordpools/wasnorm_wordpool.txt	LTP073	ltpFR	8	2	1	FRUIT	610	n/a	0	n/a	0	0	0	0	0.5869140625	0.422607421875	lower	../fonts/zerothre.ttf
462339	WORD	wordpools/wasnorm_wordpool.txt	LTP073	ltpFR	8	2	0	SNORKEL	1336	n/a	0	n/a	0	0	0	1	0.412841796875	0.57763671875	upper	../fonts/amplitud.ttf
466522	WORD	wordpools/wasnorm_wordpool.txt	LTP073	ltpFR	8	2	0	CREEK	404	n/a	1	n/a	0	0	0	1	0.412841796875	0.57763671875	upper	../fonts/amplitud.ttf
470589	WORD	wordpools/wasnorm_wordpool.txt	LTP073	ltpFR	8	2	0	BOOT	150	n/a	0	n/a	0	0	0	1	0.412841796875	0.57763671875	upper	../fonts/amplitud.ttf
474472	WORD	wordpools/wasnorm_wordpool.txt	LTP073	ltpFR	8	2	0	CLOSET	326	n/a	1	n/a	0	0	0	1	0.412841796875	0.57763671875	upper	../fonts/amplitud.ttf
478322	WORD	wordpools/wasnorm_wordpool.txt	LTP073	ltpFR	8	2	0	EDITORIAL	517	n/a	1	n/a	0	0	0	1	0.412841796875	0.57763671875	upper	../fonts/amplitud.ttf
482530	WORD	wordpools/wasnorm_wordpool.txt	LTP073	ltpFR	8	2	1	SHOE	1288	n/a	0	n/a	0	0	0	0	0.5869140625	0.422607421875	lower	../fonts/zerothre.ttf
486479	WORD	wordpools/wasnorm_wordpool.txt	LTP073	ltpFR	8	2	1	BUNNY	198	n/a	1	n/a	0	0	0	0	0.5869140625	0.422607421875	lower	../fonts/zerothre.ttf
490412	WORD	wordpools/wasnorm_wordpool.txt	LTP073	ltpFR	8	2	1	MAGAZINE	853	n/a	0	n/a	0	0	0	0	0.5869140625	0.422607421875	lower	../fonts/zerothre.ttf
493412	START	n/a	LTP073	ltpFR	8	n/a	n/a	n/a	n/a	n/a	n/a	n/a	n/a	n/a	n/a	n/a	n/a	n/a	n/a	n/a
494269	PROB	n/a	LTP073	ltpFR	8	n/a	n/a	n/a	n/a	n/a	n/a	14	6	6	2	n/a	n/a	n/a	n/a	n/a
496011	PROB	n/a	LTP073	ltpFR	8	n/a	n/a	n/a	n/a	n/a	n/a	11	5	5	1	n/a	n/a	n/a	n/a	n/a
497236	PROB	n/a	LTP073	ltpFR	8	n/a	n/a	n/a	n/a	n/a	n/a	8	3	4	1	n/a	n/a	n/a	n/a	n/a
498712	PROB	n/a	LTP073	ltpFR	8	n/a	n/a	n/a	n/a	n/a	n/a	15	2	4	9	n/a	n/a	n/a	n/a	n/a
501001	STOP	n/a	LTP073	ltpFR	8	n/a	n/a	n/a	n/a	n/a	n/a	n/a	n/a	n/a	n/a	n/a	n/a	n/a	n/a	n/a
503286	REC_START	n/a	LTP073	ltpFR	8	2	n/a	n/a	n/a	n/a	n/a	n/a	0	0	0	n/a	n/a	n/a	n/a	n/a
504651	REC_WORD	wordpools/wasnorm_wordpool.txt	LTP073	ltpFR	8	2	1	MAGAZINE	853	n/a	0	n/a	0	0	0	n/a	n/a	n/a	n/a	n/a
506628	REC_WORD	wordpools/wasnorm_wordpool.txt	LTP073	ltpFR	8	2	0	EDITORIAL	517	n/a	1	n/a	0	0	0	n/a	n/a	n/a	n/a	n/a
507674	REC_WORD	wordpools/wasnorm_wordpool.txt	LTP073	ltpFR	8	2	1	SHOE	1288	n/a	0	n/a	0	0	0	n/a	n/a	n/a	n/a	n/a
509030	REC_WORD	wordpools/wasnorm_wordpool.txt	LTP073	ltpFR	8	2	1	BUNNY	198	n/a	1	n/a	0	0	0	n/a	n/a	n/a	n/a	n/a
509759	REC_WORD	wordpools/wasnorm_wordpool.txt	LTP073	ltpFR	8	2	1	RACCOON	1153	n/a	1	n/a	0	0	0	n/a	n/a	n/a	n/a	n/a
511659	REC_WORD	wordpools/wasnorm_wordpool.txt	LTP073	ltpFR	8	2	0	FOLLOWER	589	n/a	1	n/a	0	0	0	n/a	n/a	n/a	n/a	n/a
512661	REC_WORD	wordpools/wasnorm_wordpool.txt	LTP073	ltpFR	8	2	0	SENATOR	1268	n/a	1	n/a	0	0	0	n/a	n/a	n/a	n/a	n/a
513733	REC_WORD	wordpools/wasnorm_wordpool.txt	LTP073	ltpFR	8	2	0	HUT	729	n/a	0	n/a	0	0	0	n/a	n/a	n/a	n/a	n/a
514641	REC_WORD	wordpools/wasnorm_wordpool.txt	LTP073	ltpFR	8	2	1	GYM	674	n/a	0	n/a	0	0	0	n/a	n/a	n/a	n/a	n/a
515614	REC_WORD	wordpools/wasnorm_wordpool.txt	LTP073	ltpFR	8	2	1	VILLAGE	1566	n/a	0	n/a	0	0	0	n/a	n/a	n/a	n/a	n/a
571824	REC_WORD	wordpools/wasnorm_wordpool.txt	LTP073	ltpFR	8	2	0	CREEK	404	n/a	1	n/a	0	0	0	n/a	n/a	n/a	n/a	n/a
595688	WORD	wordpools/wasnorm_wordpool.txt	LTP073	ltpFR	8	3	1	TABLET	1427	n/a	0	n/a	0	0	0	0	0.5869140625	0.422607421875	lower	../fonts/zerothre.ttf
599721	WORD	wordpools/wasnorm_wordpool.txt	LTP073	ltpFR	8	3	1	CANARY	227	n/a	0	n/a	0	0	0	0	0.5869140625	0.422607421875	lower	../fonts/zerothre.ttf
603911	WORD	wordpools/wasnorm_wordpool.txt	LTP073	ltpFR	8	3	1	EUROPE	541	n/a	0	n/a	0	0	0	0	0.5869140625	0.422607421875	lower	../fonts/zerothre.ttf
607745	WORD	wordpools/wasnorm_wordpool.txt	LTP073	ltpFR	8	3	1	RAFT	1159	n/a	0	n/a	0	0	0	0	0.5869140625	0.422607421875	lower	../fonts/zerothre.ttf
611553	WORD	wordpools/wasnorm_wordpool.txt	LTP073	ltpFR	8	3	1	CHAMBER	277	n/a	0	n/a	0	0	0	0	0.5869140625	0.422607421875	lower	../fonts/zerothre.ttf
615762	WORD	wordpools/wasnorm_wordpool.txt	LTP073	ltpFR	8	3	1	RAM	1165	n/a	1	n/a	0	0	0	0	0.5869140625	0.422607421875	lower	../fonts/zerothre.ttf
619802	WORD	wordpools/wasnorm_wordpool.txt	LTP073	ltpFR	8	3	1	BOXER	160	n/a	1	n/a	0	0	0	0	0.5869140625	0.422607421875	lower	../fonts/zerothre.ttf
623810	WORD	wordpools/wasnorm_wordpool.txt	LTP073	ltpFR	8	3	1	ZEBRA	1635	n/a	1	n/a	0	0	0	0	0.5869140625	0.422607421875	lower	../fonts/zerothre.ttf
627935	WORD	wordpools/wasnorm_wordpool.txt	LTP073	ltpFR	8	3	1	HOSE	720	n/a	0	n/a	0	0	0	0	0.5869140625	0.422607421875	lower	../fonts/zerothre.ttf
631868	WORD	wordpools/wasnorm_wordpool.txt	LTP073	ltpFR	8	3	1	SWIMMER	1420	n/a	1	n/a	0	0	0	0	0.5869140625	0.422607421875	lower	../fonts/zerothre.ttf
635693	WORD	wordpools/wasnorm_wordpool.txt	LTP073	ltpFR	8	3	1	PIPE	1073	n/a	0	n/a	0	0	0	0	0.5869140625	0.422607421875	lower	../fonts/zerothre.ttf
639535	WORD	wordpools/wasnorm_wordpool.txt	LTP073	ltpFR	8	3	1	KANGAROO	768	n/a	1	n/a	0	0	0	0	0.5869140625	0.422607421875	lower	../fonts/zerothre.ttf
643526	WORD	wordpools/wasnorm_wordpool.txt	LTP073	ltpFR	8	3	1	WATERFALL	1595	n/a	0	n/a	0	0	0	0	0.5869140625	0.422607421875	lower	../fonts/zerothre.ttf
647576	WORD	wordpools/wasnorm_wordpool.txt	LTP073	ltpFR	8	3	1	PARIS	1014	n/a	0	n/a	0	0	0	0	0.5869140625	0.422607421875	lower	../fonts/zerothre.ttf
651467	WORD	wordpools/wasnorm_wordpool.txt	LTP073	ltpFR	8	3	1	MANAGER	863	n/a	1	n/a	0	0	0	0	0.5869140625	0.422607421875	lower	../fonts/zerothre.ttf
655500	WORD	wordpools/wasnorm_wordpool.txt	LTP073	ltpFR	8	3	1	SECRETARY	1265	n/a	1	n/a	0	0	0	0	0.5869140625	0.422607421875	lower	../fonts/zerothre.ttf
661367	REC_START	n/a	LTP073	ltpFR	8	3	n/a	n/a	n/a	n/a	n/a	n/a	0	0	0	n/a	n/a	n/a	n/a	n/a
662817	REC_WORD	wordpools/wasnorm_wordpool.txt	LTP073	ltpFR	8	3	1	SWIMMER	1420	n/a	1	n/a	0	0	0	n/a	n/a	n/a	n/a	n/a
663906	REC_WORD	wordpools/wasnorm_wordpool.txt	LTP073	ltpFR	8	3	1	MANAGER	863	n/a	1	n/a	0	0	0	n/a	n/a	n/a	n/a	n/a
664959	REC_WORD	wordpools/wasnorm_wordpool.txt	LTP073	ltpFR	8	3	1	CANARY	227	n/a	0	n/a	0	0	0	n/a	n/a	n/a	n/a	n/a
666213	REC_WORD	wordpools/wasnorm_wordpool.txt	LTP073	ltpFR	8	3	1	ZEBRA	1635	n/a	1	n/a	0	0	0	n/a	n/a	n/a	n/a	n/a
667203	REC_WORD	wordpools/wasnorm_wordpool.txt	LTP073	ltpFR	8	3	1	KANGAROO	768	n/a	1	n/a	0	0	0	n/a	n/a	n/a	n/a	n/a
668715	REC_WORD	wordpools/wasnorm_wordpool.txt	LTP073	ltpFR	8	3	1	EUROPE	541	n/a	0	n/a	0	0	0	n/a	n/a	n/a	n/a	n/a
669429	REC_WORD	wordpools/wasnorm_wordpool.txt	LTP073	ltpFR	8	3	1	PARIS	1014	n/a	0	n/a	0	0	0	n/a	n/a	n/a	n/a	n/a
670331	REC_WORD	wordpools/wasnorm_wordpool.txt	LTP073	ltpFR	8	3	1	TABLET	1427	n/a	0	n/a	0	0	0	n/a	n/a	n/a	n/a	n/a
671262	REC_WORD	wordpools/wasnorm_wordpool.txt	LTP073	ltpFR	8	3	1	CHAMBER	277	n/a	0	n/a	0	0	0	n/a	n/a	n/a	n/a	n/a
673231	REC_WORD	wordpools/wasnorm_wordpool.txt	LTP073	ltpFR	8	3	1	HOSE	720	n/a	0	n/a	0	0	0	n/a	n/a	n/a	n/a	n/a
674827	REC_WORD	wordpools/wasnorm_wordpool.txt	LTP073	ltpFR	8	3	1	RAFT	1159	n/a	0	n/a	0	0	0	n/a	n/a	n/a	n/a	n/a
692303	REC_WORD	wordpools/wasnorm_wordpool.txt	LTP073	ltpFR	8	3	1	SECRETARY	1265	n/a	1	n/a	0	0	0	n/a	n/a	n/a	n/a	n/a
748669	START	n/a	LTP073	ltpFR	8	n/a	n/a	n/a	n/a	n/a	n/a	n/a	n/a	n/a	n/a	n/a	n/a	n/a	n/a	n/a
750176	PROB	n/a	LTP073	ltpFR	8	n/a	n/a	n/a	n/a	n/a	n/a	15	5	1	9	n/a	n/a	n/a	n/a	n/a
752518	PROB	n/a	LTP073	ltpFR	8	n/a	n/a	n/a	n/a	n/a	n/a	13	2	2	9	n/a	n/a	n/a	n/a	n/a
754585	PROB	n/a	LTP073	ltpFR	8	n/a	n/a	n/a	n/a	n/a	n/a	18	7	3	8	n/a	n/a	n/a	n/a	n/a
755977	STOP	n/a	LTP073	ltpFR	8	n/a	n/a	n/a	n/a	n/a	n/a	n/a	n/a	n/a	n/a	n/a	n/a	n/a	n/a	n/a
757784	WORD	wordpools/wasnorm_wordpool.txt	LTP073	ltpFR	8	4	1	BRAKE	166	n/a	0	n/a	0	0	0	0	0.5869140625	0.422607421875	lower	../fonts/zerothre.ttf
760785	START	n/a	LTP073	ltpFR	8	n/a	n/a	n/a	n/a	n/a	n/a	n/a	n/a	n/a	n/a	n/a	n/a	n/a	n/a	n/a
761742	PROB	n/a	LTP073	ltpFR	8	n/a	n/a	n/a	n/a	n/a	n/a	22	8	5	9	n/a	n/a	n/a	n/a	n/a
765050	PROB	n/a	LTP073	ltpFR	8	n/a	n/a	n/a	n/a	n/a	n/a	11	7	2	2	n/a	n/a	n/a	n/a	n/a
768784	STOP	n/a	LTP073	ltpFR	8	n/a	n/a	n/a	n/a	n/a	n/a	n/a	n/a	n/a	n/a	n/a	n/a	n/a	n/a	n/a
769684	WORD	wordpools/wasnorm_wordpool.txt	LTP073	ltpFR	8	4	1	LIME	823	n/a	0	n/a	0	0	0	0	0.5869140625	0.422607421875	lower	../fonts/zerothre.ttf
772692	START	n/a	LTP073	ltpFR	8	n/a	n/a	n/a	n/a	n/a	n/a	n/a	n/a	n/a	n/a	n/a	n/a	n/a	n/a	n/a
773508	PROB	n/a	LTP073	ltpFR	8	n/a	n/a	n/a	n/a	n/a	n/a	23	8	9	6	n/a	n/a	n/a	n/a	n/a
776932	PROB	n/a	LTP073	ltpFR	8	n/a	n/a	n/a	n/a	n/a	n/a	18	7	4	7	n/a	n/a	n/a	n/a	n/a
779297	STOP	n/a	LTP073	ltpFR	8	n/a	n/a	n/a	n/a	n/a	n/a	n/a	n/a	n/a	n/a	n/a	n/a	n/a	n/a	n/a
781741	WORD	wordpools/wasnorm_wordpool.txt	LTP073	ltpFR	8	4	0	DAD	433	n/a	1	n/a	0	0	0	1	0.412841796875	0.57763671875	upper	../fonts/amplitud.ttf
784750	START	n/a	LTP073	ltpFR	8	n/a	n/a	n/a	n/a	n/a	n/a	n/a	n/a	n/a	n/a	n/a	n/a	n/a	n/a	n/a
785865	PROB	n/a	LTP073	ltpFR	8	n/a	n/a	n/a	n/a	n/a	n/a	8	3	1	4	n/a	n/a	n/a	n/a	n/a
787482	PROB	n/a	LTP073	ltpFR	8	n/a	n/a	n/a	n/a	n/a	n/a	20	8	8	4	n/a	n/a	n/a	n/a	n/a
789273	PROB	n/a	LTP073	ltpFR	8	n/a	n/a	n/a	n/a	n/a	n/a	15	4	4	7	n/a	n/a	n/a	n/a	n/a
791650	STOP	n/a	LTP073	ltpFR	8	n/a	n/a	n/a	n/a	n/a	n/a	n/a	n/a	n/a	n/a	n/a	n/a	n/a	n/a	n/a
793889	WORD	wordpools/wasnorm_wordpool.txt	LTP073	ltpFR	8	4	0	BALLOON	75	n/a	0	n/a	0	0	0	1	0.412841796875	0.57763671875	upper	../fonts/amplitud.ttf
796898	START	n/a	LTP073	ltpFR	8	n/a	n/a	n/a	n/a	n/a	n/a	n/a	n/a	n/a	n/a	n/a	n/a	n/a	n/a	n/a
797805	PROB	n/a	LTP073	ltpFR	8	n/a	n/a	n/a	n/a	n/a	n/a	8	2	4	2	n/a	n/a	n/a	n/a	n/a
799089	PROB	n/a	LTP073	ltpFR	8	n/a	n/a	n/a	n/a	n/a	n/a	18	7	8	3	n/a	n/a	n/a	n/a	n/a
800914	PROB	n/a	LTP073	ltpFR	8	n/a	n/a	n/a	n/a	n/a	n/a	14	3	5	6	n/a	n/a	n/a	n/a	n/a
804898	STOP	n/a	LTP073	ltpFR	8	n/a	n/a	n/a	n/a	n/a	n/a	n/a	n/a	n/a	n/a	n/a	n/a	n/a	n/a	n/a
805988	WORD	wordpools/wasnorm_wordpool.txt	LTP073	ltpFR	8	4	0	HUSBAND	728	n/a	1	n/a	0	0	0	1	0.412841796875	0.57763671875	upper	../fonts/amplitud.ttf
808997	START	n/a	LTP073	ltpFR	8	n/a	n/a	n/a	n/a	n/a	n/a	n/a	n/a	n/a	n/a	n/a	n/a	n/a	n/a	n/a
809921	PROB	n/a	LTP073	ltpFR	8	n/a	n/a	n/a	n/a	n/a	n/a	13	8	4	1	n/a	n/a	n/a	n/a	n/a
811655	PROB	n/a	LTP073	ltpFR	8	n/a	n/a	n/a	n/a	n/a	n/a	16	5	8	3	n/a	n/a	n/a	n/a	n/a
814689	PROB	n/a	LTP073	ltpFR	8	n/a	n/a	n/a	n/a	n/a	n/a	14	7	4	3	n/a	n/a	n/a	n/a	n/a
816410	STOP	n/a	LTP073	ltpFR	8	n/a	n/a	n/a	n/a	n/a	n/a	n/a	n/a	n/a	n/a	n/a	n/a	n/a	n/a	n/a
817879	WORD	wordpools/wasnorm_wordpool.txt	LTP073	ltpFR	8	4	0	AUTOMOBILE	62	n/a	1	n/a	0	0	0	1	0.412841796875	0.57763671875	upper	../fonts/amplitud.ttf
820888	START	n/a	LTP073	ltpFR	8	n/a	n/a	n/a	n/a	n/a	n/a	n/a	n/a	n/a	n/a	n/a	n/a	n/a	n/a	n/a
821820	PROB	n/a	LTP073	ltpFR	8	n/a	n/a	n/a	n/a	n/a	n/a	21	9	4	8	n/a	n/a	n/a	n/a	n/a
825713	PROB	n/a	LTP073	ltpFR	8	n/a	n/a	n/a	n/a	n/a	n/a	10	3	6	1	n/a	n/a	n/a	n/a	n/a
827178	PROB	n/a	LTP073	ltpFR	8	n/a	n/a	n/a	n/a	n/a	n/a	12	4	7	1	n/a	n/a	n/a	n/a	n/a
828498	STOP	n/a	LTP073	ltpFR	8	n/a	n/a	n/a	n/a	n/a	n/a	n/a	n/a	n/a	n/a	n/a	n/a	n/a	n/a	n/a
829771	WORD	wordpools/wasnorm_wordpool.txt	LTP073	ltpFR	8	4	1	SUN	1406	n/a	0	n/a	0	0	0	0	0.5869140625	0.422607421875	lower	../fonts/zerothre.ttf
832779	START	n/a	LTP073	ltpFR	8	n/a	n/a	n/a	n/a	n/a	n/a	n/a	n/a	n/a	n/a	n/a	n/a	n/a	n/a	n/a
833936	PROB	n/a	LTP073	ltpFR	8	n/a	n/a	n/a	n/a	n/a	n/a	16	6	6	4	n/a	n/a	n/a	n/a	n/a
836278	PROB	n/a	LTP073	ltpFR	8	n/a	n/a	n/a	n/a	n/a	n/a	17	6	8	3	n/a	n/a	n/a	n/a	n/a
838454	PROB	n/a	LTP073	ltpFR	8	n/a	n/a	n/a	n/a	n/a	n/a	14	1	7	6	n/a	n/a	n/a	n/a	n/a
840273	STOP	n/a	LTP073	ltpFR	8	n/a	n/a	n/a	n/a	n/a	n/a	n/a	n/a	n/a	n/a	n/a	n/a	n/a	n/a	n/a
841977	WORD	wordpools/wasnorm_wordpool.txt	LTP073	ltpFR	8	4	1	RESTAURANT	1187	n/a	0	n/a	0	0	0	0	0.5869140625	0.422607421875	lower	../fonts/zerothre.ttf
844986	START	n/a	LTP073	ltpFR	8	n/a	n/a	n/a	n/a	n/a	n/a	n/a	n/a	n/a	n/a	n/a	n/a	n/a	n/a	n/a
845960	PROB	n/a	LTP073	ltpFR	8	n/a	n/a	n/a	n/a	n/a	n/a	12	8	1	3	n/a	n/a	n/a	n/a	n/a
847586	PROB	n/a	LTP073	ltpFR	8	n/a	n/a	n/a	n/a	n/a	n/a	19	8	6	5	n/a	n/a	n/a	n/a	n/a
849719	PROB	n/a	LTP073	ltpFR	8	n/a	n/a	n/a	n/a	n/a	n/a	15	7	7	1	n/a	n/a	n/a	n/a	n/a
850868	PROB	n/a	LTP073	ltpFR	8	n/a	n/a	n/a	n/a	n/a	n/a	18	7	5	6	n/a	n/a	n/a	n/a	n/a
852833	STOP	n/a	LTP073	ltpFR	8	n/a	n/a	n/a	n/a	n/a	n/a	n/a	n/a	n/a	n/a	n/a	n/a	n/a	n/a	n/a
853893	WORD	wordpools/wasnorm_wordpool.txt	LTP073	ltpFR	8	4	1	WHEAT	1602	n/a	0	n/a	0	0	0	0	0.5869140625	0.422607421875	lower	../fonts/zerothre.ttf
856902	START	n/a	LTP073	ltpFR	8	n/a	n/a	n/a	n/a	n/a	n/a	n/a	n/a	n/a	n/a	n/a	n/a	n/a	n/a	n/a
857984	PROB	n/a	LTP073	ltpFR	8	n/a	n/a	n/a	n/a	n/a	n/a	20	8	6	6	n/a	n/a	n/a	n/a	n/a
860001	PROB	n/a	LTP073	ltpFR	8	n/a	n/a	n/a	n/a	n/a	n/a	14	1	8	5	n/a	n/a	n/a	n/a	n/a
861544	PROB	n/a	LTP073	ltpFR	8	n/a	n/a	n/a	n/a	n/a	n/a	11	1	6	4	n/a	n/a	n/a	n/a	n/a
863001	PROB	n/a	LTP073	ltpFR	8	n/a	n/a	n/a	n/a	n/a	n/a	17	4	6	7	n/a	n/a	n/a	n/a	n/a
864314	STOP	n/a	LTP073	ltpFR	8	n/a	n/a	n/a	n/a	n/a	n/a	n/a	n/a	n/a	n/a	n/a	n/a	n/a	n/a	n/a
865743	WORD	wordpools/wasnorm_wordpool.txt	LTP073	ltpFR	8	4	1	TAIL	1430	n/a	0	n/a	0	0	0	0	0.5869140625	0.422607421875	lower	../fonts/zerothre.ttf
868752	START	n/a	LTP073	ltpFR	8	n/a	n/a	n/a	n/a	n/a	n/a	n/a	n/a	n/a	n/a	n/a	n/a	n/a	n/a	n/a
869693	PROB	n/a	LTP073	ltpFR	8	n/a	n/a	n/a	n/a	n/a	n/a	8	3	3	2	n/a	n/a	n/a	n/a	n/a
870950	PROB	n/a	LTP073	ltpFR	8	n/a	n/a	n/a	n/a	n/a	n/a	6	3	2	1	n/a	n/a	n/a	n/a	n/a
872275	PROB	n/a	LTP073	ltpFR	8	n/a	n/a	n/a	n/a	n/a	n/a	18	9	2	7	n/a	n/a	n/a	n/a	n/a
873693	PROB	n/a	LTP073	ltpFR	8	n/a	n/a	n/a	n/a	n/a	n/a	10	1	6	3	n/a	n/a	n/a	n/a	n/a
875200	PROB	n/a	LTP073	ltpFR	8	n/a	n/a	n/a	n/a	n/a	n/a	8	3	4	1	n/a	n/a	n/a	n/a	n/a
876458	STOP	n/a	LTP073	ltpFR	8	n/a	n/a	n/a	n/a	n/a	n/a	n/a	n/a	n/a	n/a	n/a	n/a	n/a	n/a	n/a
877841	WORD	wordpools/wasnorm_wordpool.txt	LTP073	ltpFR	8	4	0	FATHER	554	n/a	1	n/a	0	0	0	1	0.412841796875	0.57763671875	upper	../fonts/amplitud.ttf
880850	START	n/a	LTP073	ltpFR	8	n/a	n/a	n/a	n/a	n/a	n/a	n/a	n/a	n/a	n/a	n/a	n/a	n/a	n/a	n/a
881899	PROB	n/a	LTP073	ltpFR	8	n/a	n/a	n/a	n/a	n/a	n/a	21	6	9	6	n/a	n/a	n/a	n/a	n/a
884049	PROB	n/a	LTP073	ltpFR	8	n/a	n/a	n/a	n/a	n/a	n/a	17	1	7	9	n/a	n/a	n/a	n/a	n/a
887817	STOP	n/a	LTP073	ltpFR	8	n/a	n/a	n/a	n/a	n/a	n/a	n/a	n/a	n/a	n/a	n/a	n/a	n/a	n/a	n/a
890007	WORD	wordpools/wasnorm_wordpool.txt	LTP073	ltpFR	8	4	0	CONVICT	371	n/a	1	n/a	0	0	0	1	0.412841796875	0.57763671875	upper	../fonts/amplitud.ttf
893016	START	n/a	LTP073	ltpFR	8	n/a	n/a	n/a	n/a	n/a	n/a	n/a	n/a	n/a	n/a	n/a	n/a	n/a	n/a	n/a
893882	PROB	n/a	LTP073	ltpFR	8	n/a	n/a	n/a	n/a	n/a	n/a	13	4	4	7	n/a	n/a	n/a	n/a	n/a
896708	PROB	n/a	LTP073	ltpFR	8	n/a	n/a	n/a	n/a	n/a	n/a	12	3	3	6	n/a	n/a	n/a	n/a	n/a
898048	PROB	n/a	LTP073	ltpFR	8	n/a	n/a	n/a	n/a	n/a	n/a	12	2	8	2	n/a	n/a	n/a	n/a	n/a
899115	PROB	n/a	LTP073	ltpFR	8	n/a	n/a	n/a	n/a	n/a	n/a	12	3	3	6	n/a	n/a	n/a	n/a	n/a
900722	STOP	n/a	LTP073	ltpFR	8	n/a	n/a	n/a	n/a	n/a	n/a	n/a	n/a	n/a	n/a	n/a	n/a	n/a	n/a	n/a
902156	WORD	wordpools/wasnorm_wordpool.txt	LTP073	ltpFR	8	4	0	FUGITIVE	612	n/a	1	n/a	0	0	0	1	0.412841796875	0.57763671875	upper	../fonts/amplitud.ttf
905165	START	n/a	LTP073	ltpFR	8	n/a	n/a	n/a	n/a	n/a	n/a	n/a	n/a	n/a	n/a	n/a	n/a	n/a	n/a	n/a
905981	PROB	n/a	LTP073	ltpFR	8	n/a	n/a	n/a	n/a	n/a	n/a	16	8	2	6	n/a	n/a	n/a	n/a	n/a
907839	PROB	n/a	LTP073	ltpFR	8	n/a	n/a	n/a	n/a	n/a	n/a	14	4	2	8	n/a	n/a	n/a	n/a	n/a
909532	PROB	n/a	LTP073	ltpFR	8	n/a	n/a	n/a	n/a	n/a	n/a	16	1	9	6	n/a	n/a	n/a	n/a	n/a
911264	PROB	n/a	LTP073	ltpFR	8	n/a	n/a	n/a	n/a	n/a	n/a	17	2	9	8	n/a	n/a	n/a	n/a	n/a
912969	STOP	n/a	LTP073	ltpFR	8	n/a	n/a	n/a	n/a	n/a	n/a	n/a	n/a	n/a	n/a	n/a	n/a	n/a	n/a	n/a
914348	WORD	wordpools/wasnorm_wordpool.txt	LTP073	ltpFR	8	4	0	LAMP	798	n/a	0	n/a	0	0	0	1	0.412841796875	0.57763671875	upper	../fonts/amplitud.ttf
917357	START	n/a	LTP073	ltpFR	8	n/a	n/a	n/a	n/a	n/a	n/a	n/a	n/a	n/a	n/a	n/a	n/a	n/a	n/a	n/a
918356	PROB	n/a	LTP073	ltpFR	8	n/a	n/a	n/a	n/a	n/a	n/a	15	7	4	4	n/a	n/a	n/a	n/a	n/a
921539	PROB	n/a	LTP073	ltpFR	8	n/a	n/a	n/a	n/a	n/a	n/a	20	7	8	5	n/a	n/a	n/a	n/a	n/a
923945	STOP	n/a	LTP073	ltpFR	8	n/a	n/a	n/a	n/a	n/a	n/a	n/a	n/a	n/a	n/a	n/a	n/a	n/a	n/a	n/a
926405	WORD	wordpools/wasnorm_wordpool.txt	LTP073	ltpFR	8	4	1	FIN	566	n/a	0	n/a	0	0	0	0	0.5869140625	0.422607421875	lower	../fonts/zerothre.ttf
929414	START	n/a	LTP073	ltpFR	8	n/a	n/a	n/a	n/a	n/a	n/a	n/a	n/a	n/a	n/a	n/a	n/a	n/a	n/a	n/a
930279	PROB	n/a	LTP073	ltpFR	8	n/a	n/a	n/a	n/a	n/a	n/a	22	4	9	9	n/a	n/a	n/a	n/a	n/a
931971	PROB	n/a	LTP073	ltpFR	8	n/a	n/a	n/a	n/a	n/a	n/a	23	9	7	7	n/a	n/a	n/a	n/a	n/a
933929	PROB	n/a	LTP073	ltpFR	8	n/a	n/a	n/a	n/a	n/a	n/a	17	7	7	3	n/a	n/a	n/a	n/a	n/a
935993	STOP	n/a	LTP073	ltpFR	8	n/a	n/a	n/a	n/a	n/a	n/a	n/a	n/a	n/a	n/a	n/a	n/a	n/a	n/a	n/a
938279	WORD	wordpools/wasnorm_wordpool.txt	LTP073	ltpFR	8	4	1	OCTOPUS	971	n/a	1	n/a	0	0	0	0	0.5869140625	0.422607421875	lower	../fonts/zerothre.ttf
941295	START	n/a	LTP073	ltpFR	8	n/a	n/a	n/a	n/a	n/a	n/a	n/a	n/a	n/a	n/a	n/a	n/a	n/a	n/a	n/a
942112	PROB	n/a	LTP073	ltpFR	8	n/a	n/a	n/a	n/a	n/a	n/a	18	5	9	4	n/a	n/a	n/a	n/a	n/a
945329	PROB	n/a	LTP073	ltpFR	8	n/a	n/a	n/a	n/a	n/a	n/a	10	7	2	1	n/a	n/a	n/a	n/a	n/a
946895	PROB	n/a	LTP073	ltpFR	8	n/a	n/a	n/a	n/a	n/a	n/a	14	2	7	5	n/a	n/a	n/a	n/a	n/a
948698	STOP	n/a	LTP073	ltpFR	8	n/a	n/a	n/a	n/a	n/a	n/a	n/a	n/a	n/a	n/a	n/a	n/a	n/a	n/a	n/a
951037	REC_START	n/a	LTP073	ltpFR	8	4	n/a	n/a	n/a	n/a	n/a	n/a	0	0	0	n/a	n/a	n/a	n/a	n/a
952111	REC_WORD	wordpools/wasnorm_wordpool.txt	LTP073	ltpFR	8	4	1	OCTOPUS	971	n/a	1	n/a	0	0	0	n/a	n/a	n/a	n/a	n/a
953111	REC_WORD_VV	wordpools/wasnorm_wordpool.txt	LTP073	ltpFR	8	4	n/a	<>	-1	n/a	n/a	n/a	0	0	0	n/a	n/a	n/a	n/a	n/a
953440	REC_WORD	wordpools/wasnorm_wordpool.txt	LTP073	ltpFR	8	4	1	FIN	566	n/a	0	n/a	0	0	0	n/a	n/a	n/a	n/a	n/a
955109	REC_WORD	wordpools/wasnorm_wordpool.txt	LTP073	ltpFR	8	4	0	CONVICT	371	n/a	1	n/a	0	0	0	n/a	n/a	n/a	n/a	n/a
955988	REC_WORD	wordpools/wasnorm_wordpool.txt	LTP073	ltpFR	8	4	0	FUGITIVE	612	n/a	1	n/a	0	0	0	n/a	n/a	n/a	n/a	n/a
957327	REC_WORD	wordpools/wasnorm_wordpool.txt	LTP073	ltpFR	8	4	0	FATHER	554	n/a	1	n/a	0	0	0	n/a	n/a	n/a	n/a	n/a
957937	REC_WORD	wordpools/wasnorm_wordpool.txt	LTP073	ltpFR	8	4	0	HUSBAND	728	n/a	1	n/a	0	0	0	n/a	n/a	n/a	n/a	n/a
958732	REC_WORD	wordpools/wasnorm_wordpool.txt	LTP073	ltpFR	8	4	0	DAD	433	n/a	1	n/a	0	0	0	n/a	n/a	n/a	n/a	n/a
959229	REC_WORD	wordpools/wasnorm_wordpool.txt	LTP073	ltpFR	8	4	0	AUTOMOBILE	62	n/a	1	n/a	0	0	0	n/a	n/a	n/a	n/a	n/a
961093	REC_WORD	wordpools/wasnorm_wordpool.txt	LTP073	ltpFR	8	4	1	LIME	823	n/a	0	n/a	0	0	0	n/a	n/a	n/a	n/a	n/a
997423	REC_WORD	wordpools/wasnorm_wordpool.txt	LTP073	ltpFR	8	4	0	BALLOON	75	n/a	0	n/a	0	0	0	n/a	n/a	n/a	n/a	n/a
1033230	WORD	wordpools/wasnorm_wordpool.txt	LTP073	ltpFR	8	5	1	SUPERVISOR	1410	n/a	1	n/a	0	0	0	0	0.5869140625	0.422607421875	lower	../fonts/zerothre.ttf
1037263	WORD	wordpools/wasnorm_wordpool.txt	LTP073	ltpFR	8	5	1	WEB	1598	n/a	0	n/a	0	0	0	0	0.5869140625	0.422607421875	lower	../fonts/zerothre.ttf
1041288	WORD	wordpools/wasnorm_wordpool.txt	LTP073	ltpFR	8	5	1	BUBBLE	183	n/a	0	n/a	0	0	0	0	0.5869140625	0.422607421875	lower	../fonts/zerothre.ttf
1045397	WORD	wordpools/wasnorm_wordpool.txt	LTP073	ltpFR	8	5	1	PEOPLE	1046	n/a	1	n/a	0	0	0	0	0.5869140625	0.422607421875	lower	../fonts/zerothre.ttf
1049555	WORD	wordpools/wasnorm_wordpool.txt	LTP073	ltpFR	8	5	1	COBBLER	335	n/a	1	n/a	0	0	0	0	0.5869140625	0.422607421875	lower	../fonts/zerothre.ttf
1053554	WORD	wordpools/wasnorm_wordpool.txt	LTP073	ltpFR	8	5	1	CUPBOARD	425	n/a	0	n/a	0	0	0	0	0.5869140625	0.422607421875	lower	../fonts/zerothre.ttf
1057512	WORD	wordpools/wasnorm_wordpool.txt	LTP073	ltpFR	8	5	1	FEAST	556	n/a	0	n/a	0	0	0	0	0.5869140625	0.422607421875	lower	../fonts/zerothre.ttf
1061662	WORD	wordpools/wasnorm_wordpool.txt	LTP073	ltpFR	8	5	1	GANG	619	n/a	1	n/a	0	0	0	0	0.5869140625	0.422607421875	lower	../fonts/zerothre.ttf
1065670	WORD	wordpools/wasnorm_wordpool.txt	LTP073	ltpFR	8	5	1	LAVA	804	n/a	0	n/a	0	0	0	0	0.5869140625	0.422607421875	lower	../fonts/zerothre.ttf
1069570	WORD	wordpools/wasnorm_wordpool.txt	LTP073	ltpFR	8	5	1	ROOMMATE	1207	n/a	1	n/a	0	0	0	0	0.5869140625	0.422607421875	lower	../fonts/zerothre.ttf
1073711	WORD	wordpools/wasnorm_wordpool.txt	LTP073	ltpFR	8	5	1	FELLOW	558	n/a	1	n/a	0	0	0	0	0.5869140625	0.422607421875	lower	../fonts/zerothre.ttf
1077877	WORD	wordpools/wasnorm_wordpool.txt	LTP073	ltpFR	8	5	1	FLEET	578	n/a	0	n/a	0	0	0	0	0.5869140625	0.422607421875	lower	../fonts/zerothre.ttf
1081993	WORD	wordpools/wasnorm_wordpool.txt	LTP073	ltpFR	8	5	1	ENGINEER	536	n/a	1	n/a	0	0	0	0	0.5869140625	0.422607421875	lower	../fonts/zerothre.ttf
1086034	WORD	wordpools/wasnorm_wordpool.txt	LTP073	ltpFR	8	5	1	SKYSCRAPER	1322	n/a	0	n/a	0	0	0	0	0.5869140625	0.422607421875	lower	../fonts/zerothre.ttf
1090159	WORD	wordpools/wasnorm_wordpool.txt	LTP073	ltpFR	8	5	1	WARRIOR	1589	n/a	1	n/a	0	0	0	0	0.5869140625	0.422607421875	lower	../fonts/zerothre.ttf
1094000	WORD	wordpools/wasnorm_wordpool.txt	LTP073	ltpFR	8	5	1	FOOT	590	n/a	1	n/a	0	0	0	0	0.5869140625	0.422607421875	lower	../fonts/zerothre.ttf
1097009	START	n/a	LTP073	ltpFR	8	n/a	n/a	n/a	n/a	n/a	n/a	n/a	n/a	n/a	n/a	n/a	n/a	n/a	n/a	n/a
1097858	PROB	n/a	LTP073	ltpFR	8	n/a	n/a	n/a	n/a	n/a	n/a	21	6	8	7	n/a	n/a	n/a	n/a	n/a
1100426	PROB	n/a	LTP073	ltpFR	8	n/a	n/a	n/a	n/a	n/a	n/a	12	6	4	2	n/a	n/a	n/a	n/a	n/a
1101668	PROB	n/a	LTP073	ltpFR	8	n/a	n/a	n/a	n/a	n/a	n/a	13	4	2	7	n/a	n/a	n/a	n/a	n/a
1104250	PROB	n/a	LTP073	ltpFR	8	n/a	n/a	n/a	n/a	n/a	n/a	13	4	6	3	n/a	n/a	n/a	n/a	n/a
1105609	PROB	n/a	LTP073	ltpFR	8	n/a	n/a	n/a	n/a	n/a	n/a	8	2	4	2	n/a	n/a	n/a	n/a	n/a
1106875	PROB	n/a	LTP073	ltpFR	8	n/a	n/a	n/a	n/a	n/a	n/a	10	8	1	1	n/a	n/a	n/a	n/a	n/a
1108158	PROB	n/a	LTP073	ltpFR	8	n/a	n/a	n/a	n/a	n/a	n/a	20	4	7	9	n/a	n/a	n/a	n/a	n/a
1110742	PROB	n/a	LTP073	ltpFR	8	n/a	n/a	n/a	n/a	n/a	n/a	14	2	8	4	n/a	n/a	n/a	n/a	n/a
1112354	STOP	n/a	LTP073	ltpFR	8	n/a	n/a	n/a	n/a	n/a	n/a	n/a	n/a	n/a	n/a	n/a	n/a	n/a	n/a	n/a
1114792	REC_START	n/a	LTP073	ltpFR	8	5	n/a	n/a	n/a	n/a	n/a	n/a	0	0	0	n/a	n/a	n/a	n/a	n/a
1116201	REC_WORD	wordpools/wasnorm_wordpool.txt	LTP073	ltpFR	8	5	1	ENGINEER	536	n/a	1	n/a	0	0	0	n/a	n/a	n/a	n/a	n/a
1117196	REC_WORD	wordpools/wasnorm_wordpool.txt	LTP073	ltpFR	8	5	1	WARRIOR	1589	n/a	1	n/a	0	0	0	n/a	n/a	n/a	n/a	n/a
1118892	REC_WORD	wordpools/wasnorm_wordpool.txt	LTP073	ltpFR	8	5	1	PEOPLE	1046	n/a	1	n/a	0	0	0	n/a	n/a	n/a	n/a	n/a
1119430	REC_WORD	wordpools/wasnorm_wordpool.txt	LTP073	ltpFR	8	5	1	FELLOW	558	n/a	1	n/a	0	0	0	n/a	n/a	n/a	n/a	n/a
1120623	REC_WORD	wordpools/wasnorm_wordpool.txt	LTP073	ltpFR	8	5	1	ROOMMATE	1207	n/a	1	n/a	0	0	0	n/a	n/a	n/a	n/a	n/a
1121932	REC_WORD	wordpools/wasnorm_wordpool.txt	LTP073	ltpFR	8	5	1	GANG	619	n/a	1	n/a	0	0	0	n/a	n/a	n/a	n/a	n/a
1123274	REC_WORD	wordpools/wasnorm_wordpool.txt	LTP073	ltpFR	8	5	1	SUPERVISOR	1410	n/a	1	n/a	0	0	0	n/a	n/a	n/a	n/a	n/a
1125363	REC_WORD	wordpools/wasnorm_wordpool.txt	LTP073	ltpFR	8	5	1	WEB	1598	n/a	0	n/a	0	0	0	n/a	n/a	n/a	n/a	n/a
1127080	REC_WORD	wordpools/wasnorm_wordpool.txt	LTP073	ltpFR	8	5	1	SKYSCRAPER	1322	n/a	0	n/a	0	0	0	n/a	n/a	n/a	n/a	n/a
1128080	REC_WORD_VV	wordpools/wasnorm_wordpool.txt	LTP073	ltpFR	8	5	n/a	<>	-1	n/a	n/a	n/a	0	0	0	n/a	n/a	n/a	n/a	n/a
1197311	WORD	wordpools/wasnorm_wordpool.txt	LTP073	ltpFR	8	6	0	CONTINENT	367	n/a	1	n/a	0	0	0	1	0.412841796875	0.57763671875	upper	../fonts/amplitud.ttf
1201293	WORD	wordpools/wasnorm_wordpool.txt	LTP073	ltpFR	8	6	0	FOLDER	588	n/a	0	n/a	0	0	0	1	0.412841796875	0.57763671875	upper	../fonts/amplitud.ttf
1205360	WORD	wordpools/wasnorm_wordpool.txt	LTP073	ltpFR	8	6	0	HORSE	719	n/a	1	n/a	0	0	0	1	0.412841796875	0.57763671875	upper	../fonts/amplitud.ttf
1209360	WORD	wordpools/wasnorm_wordpool.txt	LTP073	ltpFR	8	6	0	MUMMY	932	n/a	1	n/a	0	0	0	1	0.412841796875	0.57763671875	upper	../fonts/amplitud.ttf
1213451	WORD	wordpools/wasnorm_wordpool.txt	LTP073	ltpFR	8	6	0	DAM	436	n/a	1	n/a	0	0	0	1	0.412841796875	0.57763671875	upper	../fonts/amplitud.ttf
1217434	WORD	wordpools/wasnorm_wordpool.txt	LTP073	ltpFR	8	6	0	CORAL	378	n/a	1	n/a	0	0	0	1	0.412841796875	0.57763671875	upper	../fonts/amplitud.ttf
1221417	WORD	wordpools/wasnorm_wordpool.txt	LTP073	ltpFR	8	6	0	PAD	998	n/a	0	n/a	0	0	0	1	0.412841796875	0.57763671875	upper	../fonts/amplitud.ttf
1225375	WORD	wordpools/wasnorm_wordpool.txt	LTP073	ltpFR	8	6	0	CASTLE	256	n/a	1	n/a	0	0	0	1	0.412841796875	0.57763671875	upper	../fonts/amplitud.ttf
1229517	WORD	wordpools/wasnorm_wordpool.txt	LTP073	ltpFR	8	6	0	MACHINE	852	n/a	1	n/a	0	0	0	1	0.412841796875	0.57763671875	upper	../fonts/amplitud.ttf
1233483	WORD	wordpools/wasnorm_wordpool.txt	LTP073	ltpFR	8	6	0	COWBOY	395	n/a	1	n/a	0	0	0	1	0.412841796875	0.57763671875	upper	../fonts/amplitud.ttf
1237399	WORD	wordpools/wasnorm_wordpool.txt	LTP073	ltpFR	8	6	0	WALLET	1583	n/a	0	n/a	0	0	0	1	0.412841796875	0.57763671875	upper	../fonts/amplitud.ttf
1241231	WORD	wordpools/wasnorm_wordpool.txt	LTP073	ltpFR	8	6	0	INDIAN	736	n/a	1	n/a	0	0	0	1	0.412841796875	0.57763671875	upper	../fonts/amplitud.ttf
1245098	WORD	wordpools/wasnorm_wordpool.txt	LTP073	ltpFR	8	6	0	SILK	1307	n/a	0	n/a	0	0	0	1	0.412841796875	0.57763671875	upper	../fonts/amplitud.ttf
1249281	WORD	wordpools/wasnorm_wordpool.txt	LTP073	ltpFR	8	6	0	LINEN	825	n/a	0	n/a	0	0	0	1	0.412841796875	0.57763671875	upper	../fonts/amplitud.ttf
1253331	WORD	wordpools/wasnorm_wordpool.txt	LTP073	ltpFR	8	6	0	CLIPPERS	324	n/a	0	n/a	0	0	0	1	0.412841796875	0.57763671875	upper	../fonts/amplitud.ttf
1257381	WORD	wordpools/wasnorm_wordpool.txt	LTP073	ltpFR	8	6	0	SAW	1239	n/a	1	n/a	0	0	0	1	0.412841796875	0.57763671875	upper	../fonts/amplitud.ttf
1260390	START	n/a	LTP073	ltpFR	8	n/a	n/a	n/a	n/a	n/a	n/a	n/a	n/a	n/a	n/a	n/a	n/a	n/a	n/a	n/a
1261247	PROB	n/a	LTP073	ltpFR	8	n/a	n/a	n/a	n/a	n/a	n/a	13	1	6	6	n/a	n/a	n/a	n/a	n/a
1263021	PROB	n/a	LTP073	ltpFR	8	n/a	n/a	n/a	n/a	n/a	n/a	16	6	3	7	n/a	n/a	n/a	n/a	n/a
1265255	PROB	n/a	LTP073	ltpFR	8	n/a	n/a	n/a	n/a	n/a	n/a	7	1	3	3	n/a	n/a	n/a	n/a	n/a
1266889	STOP	n/a	LTP073	ltpFR	8	n/a	n/a	n/a	n/a	n/a	n/a	n/a	n/a	n/a	n/a	n/a	n/a	n/a	n/a	n/a
1270205	REC_START	n/a	LTP073	ltpFR	8	6	n/a	n/a	n/a	n/a	n/a	n/a	0	0	0	n/a	n/a	n/a	n/a	n/a
1271183	REC_WORD	wordpools/wasnorm_wordpool.txt	LTP073	ltpFR	8	6	0	CONTINENT	367	n/a	1	n/a	0	0	0	n/a	n/a	n/a	n/a	n/a
1272145	REC_WORD	wordpools/wasnorm_wordpool.txt	LTP073	ltpFR	8	6	0	CASTLE	256	n/a	1	n/a	0	0	0	n/a	n/a	n/a	n/a	n/a
1273800	REC_WORD	wordpools/wasnorm_wordpool.txt	LTP073	ltpFR	8	6	0	CLIPPERS	324	n/a	0	n/a	0	0	0	n/a	n/a	n/a	n/a	n/a
1274345	REC_WORD	wordpools/wasnorm_wordpool.txt	LTP073	ltpFR	8	6	0	WALLET	1583	n/a	0	n/a	0	0	0	n/a	n/a	n/a	n/a	n/a
1274923	REC_WORD	wordpools/wasnorm_wordpool.txt	LTP073	ltpFR	8	6	0	LINEN	825	n/a	0	n/a	0	0	0	n/a	n/a	n/a	n/a	n/a
1275439	REC_WORD	wordpools/wasnorm_wordpool.txt	LTP073	ltpFR	8	6	0	SILK	1307	n/a	0	n/a	0	0	0	n/a	n/a	n/a	n/a	n/a
1279046	REC_WORD	wordpools/wasnorm_wordpool.txt	LTP073	ltpFR	8	6	0	MUMMY	932	n/a	1	n/a	0	0	0	n/a	n/a	n/a	n/a	n/a
1282669	REC_WORD	wordpools/wasnorm_wordpool.txt	LTP073	ltpFR	8	6	0	SAW	1239	n/a	1	n/a	0	0	0	n/a	n/a	n/a	n/a	n/a
1283512	REC_WORD	wordpools/wasnorm_wordpool.txt	LTP073	ltpFR	8	6	0	MACHINE	852	n/a	1	n/a	0	0	0	n/a	n/a	n/a	n/a	n/a
1290989	REC_WORD	wordpools/wasnorm_wordpool.txt	LTP073	ltpFR	8	6	0	COWBOY	395	n/a	1	n/a	0	0	0	n/a	n/a	n/a	n/a	n/a
1291646	REC_WORD	wordpools/wasnorm_wordpool.txt	LTP073	ltpFR	8	6	0	INDIAN	736	n/a	1	n/a	0	0	0	n/a	n/a	n/a	n/a	n/a
1292202	REC_WORD	wordpools/wasnorm_wordpool.txt	LTP073	ltpFR	8	6	0	HORSE	719	n/a	1	n/a	0	0	0	n/a	n/a	n/a	n/a	n/a
1309981	REC_WORD	wordpools/wasnorm_wordpool.txt	LTP073	ltpFR	8	6	1	BUBBLE	183	n/a	0	n/a	0	0	0	n/a	n/a	n/a	n/a	n/a
1351675	START	n/a	LTP073	ltpFR	8	n/a	n/a	n/a	n/a	n/a	n/a	n/a	n/a	n/a	n/a	n/a	n/a	n/a	n/a	n/a
1353181	PROB	n/a	LTP073	ltpFR	8	n/a	n/a	n/a	n/a	n/a	n/a	15	9	3	3	n/a	n/a	n/a	n/a	n/a
1355873	PROB	n/a	LTP073	ltpFR	8	n/a	n/a	n/a	n/a	n/a	n/a	10	2	6	2	n/a	n/a	n/a	n/a	n/a
1358499	PROB	n/a	LTP073	ltpFR	8	n/a	n/a	n/a	n/a	n/a	n/a	17	4	5	8	n/a	n/a	n/a	n/a	n/a
1360424	PROB	n/a	LTP073	ltpFR	8	n/a	n/a	n/a	n/a	n/a	n/a	9	2	5	2	n/a	n/a	n/a	n/a	n/a
1362956	PROB	n/a	LTP073	ltpFR	8	n/a	n/a	n/a	n/a	n/a	n/a	15	6	1	8	n/a	n/a	n/a	n/a	n/a
1364548	PROB	n/a	LTP073	ltpFR	8	n/a	n/a	n/a	n/a	n/a	n/a	17	6	8	3	n/a	n/a	n/a	n/a	n/a
1366225	STOP	n/a	LTP073	ltpFR	8	n/a	n/a	n/a	n/a	n/a	n/a	n/a	n/a	n/a	n/a	n/a	n/a	n/a	n/a	n/a
1368673	WORD	wordpools/wasnorm_wordpool.txt	LTP073	ltpFR	8	7	0	STEWARDESS	1381	n/a	1	n/a	0	0	0	1	0.412841796875	0.57763671875	upper	../fonts/amplitud.ttf
1371682	START	n/a	LTP073	ltpFR	8	n/a	n/a	n/a	n/a	n/a	n/a	n/a	n/a	n/a	n/a	n/a	n/a	n/a	n/a	n/a
1372548	PROB	n/a	LTP073	ltpFR	8	n/a	n/a	n/a	n/a	n/a	n/a	9	5	2	2	n/a	n/a	n/a	n/a	n/a
1374238	PROB	n/a	LTP073	ltpFR	8	n/a	n/a	n/a	n/a	n/a	n/a	15	1	7	7	n/a	n/a	n/a	n/a	n/a
1375489	PROB	n/a	LTP073	ltpFR	8	n/a	n/a	n/a	n/a	n/a	n/a	14	3	8	3	n/a	n/a	n/a	n/a	n/a
1378306	PROB	n/a	LTP073	ltpFR	8	n/a	n/a	n/a	n/a	n/a	n/a	10	3	3	4	n/a	n/a	n/a	n/a	n/a
1379963	PROB	n/a	LTP073	ltpFR	8	n/a	n/a	n/a	n/a	n/a	n/a	7	3	3	1	n/a	n/a	n/a	n/a	n/a
1381988	PROB	n/a	LTP073	ltpFR	8	n/a	n/a	n/a	n/a	n/a	n/a	21	3	9	9	n/a	n/a	n/a	n/a	n/a
1384664	PROB	n/a	LTP073	ltpFR	8	n/a	n/a	n/a	n/a	n/a	n/a	15	6	6	3	n/a	n/a	n/a	n/a	n/a
1387538	STOP	n/a	LTP073	ltpFR	8	n/a	n/a	n/a	n/a	n/a	n/a	n/a	n/a	n/a	n/a	n/a	n/a	n/a	n/a	n/a
1388887	WORD	wordpools/wasnorm_wordpool.txt	LTP073	ltpFR	8	7	0	COB	334	n/a	0	n/a	0	0	0	1	0.412841796875	0.57763671875	upper	../fonts/amplitud.ttf
1391896	START	n/a	LTP073	ltpFR	8	n/a	n/a	n/a	n/a	n/a	n/a	n/a	n/a	n/a	n/a	n/a	n/a	n/a	n/a	n/a
1392920	PROB	n/a	LTP073	ltpFR	8	n/a	n/a	n/a	n/a	n/a	n/a	16	3	9	4	n/a	n/a	n/a	n/a	n/a
1394538	PROB	n/a	LTP073	ltpFR	8	n/a	n/a	n/a	n/a	n/a	n/a	9	3	2	4	n/a	n/a	n/a	n/a	n/a
1396295	PROB	n/a	LTP073	ltpFR	8	n/a	n/a	n/a	n/a	n/a	n/a	11	5	2	4	n/a	n/a	n/a	n/a	n/a
1398045	PROB	n/a	LTP073	ltpFR	8	n/a	n/a	n/a	n/a	n/a	n/a	4	1	1	2	n/a	n/a	n/a	n/a	n/a
1399295	PROB	n/a	LTP073	ltpFR	8	n/a	n/a	n/a	n/a	n/a	n/a	17	6	3	8	n/a	n/a	n/a	n/a	n/a
1401228	PROB	n/a	LTP073	ltpFR	8	n/a	n/a	n/a	n/a	n/a	n/a	13	4	2	7	n/a	n/a	n/a	n/a	n/a
1404936	PROB	n/a	LTP073	ltpFR	8	n/a	n/a	n/a	n/a	n/a	n/a	22	9	8	5	n/a	n/a	n/a	n/a	n/a
1407586	STOP	n/a	LTP073	ltpFR	8	n/a	n/a	n/a	n/a	n/a	n/a	n/a	n/a	n/a	n/a	n/a	n/a	n/a	n/a	n/a
1408869	WORD	wordpools/wasnorm_wordpool.txt	LTP073	ltpFR	8	7	0	NOVEL	960	n/a	0	n/a	0	0	0	1	0.412841796875	0.57763671875	upper	../fonts/amplitud.ttf
1411878	START	n/a	LTP073	ltpFR	8	n/a	n/a	n/a	n/a	n/a	n/a	n/a	n/a	n/a	n/a	n/a	n/a	n/a	n/a	n/a
1412877	PROB	n/a	LTP073	ltpFR	8	n/a	n/a	n/a	n/a	n/a	n/a	17	7	9	1	n/a	n/a	n/a	n/a	n/a
1414802	PROB	n/a	LTP073	ltpFR	8	n/a	n/a	n/a	n/a	n/a	n/a	17	5	8	4	n/a	n/a	n/a	n/a	n/a
1417060	PROB	n/a	LTP073	ltpFR	8	n/a	n/a	n/a	n/a	n/a	n/a	19	4	6	9	n/a	n/a	n/a	n/a	n/a
1418536	PROB	n/a	LTP073	ltpFR	8	n/a	n/a	n/a	n/a	n/a	n/a	14	3	8	3	n/a	n/a	n/a	n/a	n/a
1420177	PROB	n/a	LTP073	ltpFR	8	n/a	n/a	n/a	n/a	n/a	n/a	6	1	1	4	n/a	n/a	n/a	n/a	n/a
1421569	PROB	n/a	LTP073	ltpFR	8	n/a	n/a	n/a	n/a	n/a	n/a	13	7	1	5	n/a	n/a	n/a	n/a	n/a
1423193	PROB	n/a	LTP073	ltpFR	8	n/a	n/a	n/a	n/a	n/a	n/a	15	1	8	6	n/a	n/a	n/a	n/a	n/a
1424519	PROB	n/a	LTP073	ltpFR	8	n/a	n/a	n/a	n/a	n/a	n/a	5	1	2	2	n/a	n/a	n/a	n/a	n/a
1426259	PROB	n/a	LTP073	ltpFR	8	n/a	n/a	n/a	n/a	n/a	n/a	18	6	6	6	n/a	n/a	n/a	n/a	n/a
1427658	STOP	n/a	LTP073	ltpFR	8	n/a	n/a	n/a	n/a	n/a	n/a	n/a	n/a	n/a	n/a	n/a	n/a	n/a	n/a	n/a
1428959	WORD	wordpools/wasnorm_wordpool.txt	LTP073	ltpFR	8	7	0	LUNCH	849	n/a	0	n/a	0	0	0	1	0.412841796875	0.57763671875	upper	../fonts/amplitud.ttf
1431968	START	n/a	LTP073	ltpFR	8	n/a	n/a	n/a	n/a	n/a	n/a	n/a	n/a	n/a	n/a	n/a	n/a	n/a	n/a	n/a
1433059	PROB	n/a	LTP073	ltpFR	8	n/a	n/a	n/a	n/a	n/a	n/a	15	2	4	9	n/a	n/a	n/a	n/a	n/a
1434950	PROB	n/a	LTP073	ltpFR	8	n/a	n/a	n/a	n/a	n/a	n/a	12	3	8	1	n/a	n/a	n/a	n/a	n/a
1436751	PROB	n/a	LTP073	ltpFR	8	n/a	n/a	n/a	n/a	n/a	n/a	13	7	1	5	n/a	n/a	n/a	n/a	n/a
1438718	PROB	n/a	LTP073	ltpFR	8	n/a	n/a	n/a	n/a	n/a	n/a	5	2	2	1	n/a	n/a	n/a	n/a	n/a
1439842	PROB	n/a	LTP073	ltpFR	8	n/a	n/a	n/a	n/a	n/a	n/a	13	3	9	1	n/a	n/a	n/a	n/a	n/a
1441709	PROB	n/a	LTP073	ltpFR	8	n/a	n/a	n/a	n/a	n/a	n/a	17	8	7	2	n/a	n/a	n/a	n/a	n/a
1443484	PROB	n/a	LTP073	ltpFR	8	n/a	n/a	n/a	n/a	n/a	n/a	11	3	6	2	n/a	n/a	n/a	n/a	n/a
1445484	PROB	n/a	LTP073	ltpFR	8	n/a	n/a	n/a	n/a	n/a	n/a	17	7	9	1	n/a	n/a	n/a	n/a	n/a
1447546	STOP	n/a	LTP073	ltpFR	8	n/a	n/a	n/a	n/a	n/a	n/a	n/a	n/a	n/a	n/a	n/a	n/a	n/a	n/a	n/a
1449099	WORD	wordpools/wasnorm_wordpool.txt	LTP073	ltpFR	8	7	0	WINDSHIELD	1612	n/a	1	n/a	0	0	0	1	0.412841796875	0.57763671875	upper	../fonts/amplitud.ttf
1452100	START	n/a	LTP073	ltpFR	8	n/a	n/a	n/a	n/a	n/a	n/a	n/a	n/a	n/a	n/a	n/a	n/a	n/a	n/a	n/a
1453116	PROB	n/a	LTP073	ltpFR	8	n/a	n/a	n/a	n/a	n/a	n/a	12	1	4	7	n/a	n/a	n/a	n/a	n/a
1454792	PROB	n/a	LTP073	ltpFR	8	n/a	n/a	n/a	n/a	n/a	n/a	22	6	7	9	n/a	n/a	n/a	n/a	n/a
1457508	PROB	n/a	LTP073	ltpFR	8	n/a	n/a	n/a	n/a	n/a	n/a	14	3	8	3	n/a	n/a	n/a	n/a	n/a
1459708	PROB	n/a	LTP073	ltpFR	8	n/a	n/a	n/a	n/a	n/a	n/a	13	7	3	3	n/a	n/a	n/a	n/a	n/a
1461290	PROB	n/a	LTP073	ltpFR	8	n/a	n/a	n/a	n/a	n/a	n/a	14	2	9	3	n/a	n/a	n/a	n/a	n/a
1463890	PROB	n/a	LTP073	ltpFR	8	n/a	n/a	n/a	n/a	n/a	n/a	16	5	6	5	n/a	n/a	n/a	n/a	n/a
1465840	PROB	n/a	LTP073	ltpFR	8	n/a	n/a	n/a	n/a	n/a	n/a	8	4	3	1	n/a	n/a	n/a	n/a	n/a
1466993	STOP	n/a	LTP073	ltpFR	8	n/a	n/a	n/a	n/a	n/a	n/a	n/a	n/a	n/a	n/a	n/a	n/a	n/a	n/a	n/a
1468940	WORD	wordpools/wasnorm_wordpool.txt	LTP073	ltpFR	8	7	1	TIGER	1467	n/a	n/a	n/a	0	0	0	0	0.5869140625	0.422607421875	lower	../fonts/zerothre.ttf
1471964	SLOW_MSG	n/a	LTP073	ltpFR	8	7	n/a	n/a	n/a	n/a	n/a	n/a	0	0	0	n/a	n/a	n/a	n/a	n/a
1473474	START	n/a	LTP073	ltpFR	8	n/a	n/a	n/a	n/a	n/a	n/a	n/a	n/a	n/a	n/a	n/a	n/a	n/a	n/a	n/a
1474574	PROB	n/a	LTP073	ltpFR	8	n/a	n/a	n/a	n/a	n/a	n/a	21	7	3	9	n/a	n/a	n/a	n/a	n/a
1476623	PROB	n/a	LTP073	ltpFR	8	n/a	n/a	n/a	n/a	n/a	n/a	11	3	6	2	n/a	n/a	n/a	n/a	n/a
1478997	PROB	n/a	LTP073	ltpFR	8	n/a	n/a	n/a	n/a	n/a	n/a	15	3	8	4	n/a	n/a	n/a	n/a	n/a
1481139	PROB	n/a	LTP073	ltpFR	8	n/a	n/a	n/a	n/a	n/a	n/a	13	5	7	1	n/a	n/a	n/a	n/a	n/a
1483498	PROB	n/a	LTP073	ltpFR	8	n/a	n/a	n/a	n/a	n/a	n/a	13	2	2	9	n/a	n/a	n/a	n/a	n/a
1485481	PROB	n/a	LTP073	ltpFR	8	n/a	n/a	n/a	n/a	n/a	n/a	16	6	8	2	n/a	n/a	n/a	n/a	n/a
1487356	PROB	n/a	LTP073	ltpFR	8	n/a	n/a	n/a	n/a	n/a	n/a	2	9	2	9	n/a	n/a	n/a	n/a	n/a
1489249	STOP	n/a	LTP073	ltpFR	8	n/a	n/a	n/a	n/a	n/a	n/a	n/a	n/a	n/a	n/a	n/a	n/a	n/a	n/a	n/a
1490464	WORD	wordpools/wasnorm_wordpool.txt	LTP073	ltpFR	8	7	1	DEER	444	n/a	1	n/a	0	0	0	0	0.5869140625	0.422607421875	lower	../fonts/zerothre.ttf
1493473	START	n/a	LTP073	ltpFR	8	n/a	n/a	n/a	n/a	n/a	n/a	n/a	n/a	n/a	n/a	n/a	n/a	n/a	n/a	n/a
1494397	PROB	n/a	LTP073	ltpFR	8	n/a	n/a	n/a	n/a	n/a	n/a	5	2	1	2	n/a	n/a	n/a	n/a	n/a
1495572	PROB	n/a	LTP073	ltpFR	8	n/a	n/a	n/a	n/a	n/a	n/a	18	3	8	7	n/a	n/a	n/a	n/a	n/a
1499580	PROB	n/a	LTP073	ltpFR	8	n/a	n/a	n/a	n/a	n/a	n/a	22	5	9	8	n/a	n/a	n/a	n/a	n/a
1502555	PROB	n/a	LTP073	ltpFR	8	n/a	n/a	n/a	n/a	n/a	n/a	18	9	6	3	n/a	n/a	n/a	n/a	n/a
1504245	PROB	n/a	LTP073	ltpFR	8	n/a	n/a	n/a	n/a	n/a	n/a	15	5	8	2	n/a	n/a	n/a	n/a	n/a
1506879	PROB	n/a	LTP073	ltpFR	8	n/a	n/a	n/a	n/a	n/a	n/a	12	5	4	3	n/a	n/a	n/a	n/a	n/a
1509362	STOP	n/a	LTP073	ltpFR	8	n/a	n/a	n/a	n/a	n/a	n/a	n/a	n/a	n/a	n/a	n/a	n/a	n/a	n/a	n/a
1510304	WORD	wordpools/wasnorm_wordpool.txt	LTP073	ltpFR	8	7	1	ANTELOPE	27	n/a	1	n/a	0	0	0	0	0.5869140625	0.422607421875	lower	../fonts/zerothre.ttf
1513304	START	n/a	LTP073	ltpFR	8	n/a	n/a	n/a	n/a	n/a	n/a	n/a	n/a	n/a	n/a	n/a	n/a	n/a	n/a	n/a
1514220	PROB	n/a	LTP073	ltpFR	8	n/a	n/a	n/a	n/a	n/a	n/a	15	3	9	3	n/a	n/a	n/a	n/a	n/a
1516562	PROB	n/a	LTP073	ltpFR	8	n/a	n/a	n/a	n/a	n/a	n/a	13	7	3	3	n/a	n/a	n/a	n/a	n/a
1518219	PROB	n/a	LTP073	ltpFR	8	n/a	n/a	n/a	n/a	n/a	n/a	13	2	5	6	n/a	n/a	n/a	n/a	n/a
1520886	PROB	n/a	LTP073	ltpFR	8	n/a	n/a	n/a	n/a	n/a	n/a	7	4	1	2	n/a	n/a	n/a	n/a	n/a
1524977	PROB	n/a	LTP073	ltpFR	8	n/a	n/a	n/a	n/a	n/a	n/a	14	2	3	9	n/a	n/a	n/a	n/a	n/a
1527436	PROB	n/a	LTP073	ltpFR	8	n/a	n/a	n/a	n/a	n/a	n/a	18	8	6	4	n/a	n/a	n/a	n/a	n/a
1529129	STOP	n/a	LTP073	ltpFR	8	n/a	n/a	n/a	n/a	n/a	n/a	n/a	n/a	n/a	n/a	n/a	n/a	n/a	n/a	n/a
1530378	WORD	wordpools/wasnorm_wordpool.txt	LTP073	ltpFR	8	7	1	BANNER	85	n/a	0	n/a	0	0	0	0	0.5869140625	0.422607421875	lower	../fonts/zerothre.ttf
1533386	START	n/a	LTP073	ltpFR	8	n/a	n/a	n/a	n/a	n/a	n/a	n/a	n/a	n/a	n/a	n/a	n/a	n/a	n/a	n/a
1534411	PROB	n/a	LTP073	ltpFR	8	n/a	n/a	n/a	n/a	n/a	n/a	12	4	2	6	n/a	n/a	n/a	n/a	n/a
1536118	PROB	n/a	LTP073	ltpFR	8	n/a	n/a	n/a	n/a	n/a	n/a	19	5	8	6	n/a	n/a	n/a	n/a	n/a
1538494	PROB	n/a	LTP073	ltpFR	8	n/a	n/a	n/a	n/a	n/a	n/a	24	7	8	9	n/a	n/a	n/a	n/a	n/a
1540510	PROB	n/a	LTP073	ltpFR	8	n/a	n/a	n/a	n/a	n/a	n/a	23	9	8	6	n/a	n/a	n/a	n/a	n/a
1543302	PROB	n/a	LTP073	ltpFR	8	n/a	n/a	n/a	n/a	n/a	n/a	18	2	9	7	n/a	n/a	n/a	n/a	n/a
1545867	PROB	n/a	LTP073	ltpFR	8	n/a	n/a	n/a	n/a	n/a	n/a	13	2	3	8	n/a	n/a	n/a	n/a	n/a
1548113	STOP	n/a	LTP073	ltpFR	8	n/a	n/a	n/a	n/a	n/a	n/a	n/a	n/a	n/a	n/a	n/a	n/a	n/a	n/a	n/a
1550225	WORD	wordpools/wasnorm_wordpool.txt	LTP073	ltpFR	8	7	1	WAVE	1596	n/a	0	n/a	0	0	0	0	0.5869140625	0.422607421875	lower	../fonts/zerothre.ttf
1553234	START	n/a	LTP073	ltpFR	8	n/a	n/a	n/a	n/a	n/a	n/a	n/a	n/a	n/a	n/a	n/a	n/a	n/a	n/a	n/a
1554409	PROB	n/a	LTP073	ltpFR	8	n/a	n/a	n/a	n/a	n/a	n/a	12	7	3	2	n/a	n/a	n/a	n/a	n/a
1555693	PROB	n/a	LTP073	ltpFR	8	n/a	n/a	n/a	n/a	n/a	n/a	14	2	7	5	n/a	n/a	n/a	n/a	n/a
1557568	PROB	n/a	LTP073	ltpFR	8	n/a	n/a	n/a	n/a	n/a	n/a	18	5	6	7	n/a	n/a	n/a	n/a	n/a
1560808	PROB	n/a	LTP073	ltpFR	8	n/a	n/a	n/a	n/a	n/a	n/a	15	3	7	5	n/a	n/a	n/a	n/a	n/a
1562033	PROB	n/a	LTP073	ltpFR	8	n/a	n/a	n/a	n/a	n/a	n/a	12	9	1	2	n/a	n/a	n/a	n/a	n/a
1563309	PROB	n/a	LTP073	ltpFR	8	n/a	n/a	n/a	n/a	n/a	n/a	13	8	4	1	n/a	n/a	n/a	n/a	n/a
1564816	PROB	n/a	LTP073	ltpFR	8	n/a	n/a	n/a	n/a	n/a	n/a	14	5	5	4	n/a	n/a	n/a	n/a	n/a
1566066	PROB	n/a	LTP073	ltpFR	8	n/a	n/a	n/a	n/a	n/a	n/a	16	4	8	4	n/a	n/a	n/a	n/a	n/a
1569209	STOP	n/a	LTP073	ltpFR	8	n/a	n/a	n/a	n/a	n/a	n/a	n/a	n/a	n/a	n/a	n/a	n/a	n/a	n/a	n/a
1570224	WORD	wordpools/wasnorm_wordpool.txt	LTP073	ltpFR	8	7	0	CITIZEN	312	n/a	1	n/a	0	0	0	1	0.412841796875	0.57763671875	upper	../fonts/amplitud.ttf
1573232	START	n/a	LTP073	ltpFR	8	n/a	n/a	n/a	n/a	n/a	n/a	n/a	n/a	n/a	n/a	n/a	n/a	n/a	n/a	n/a
1574290	PROB	n/a	LTP073	ltpFR	8	n/a	n/a	n/a	n/a	n/a	n/a	14	9	1	4	n/a	n/a	n/a	n/a	n/a
1575624	PROB	n/a	LTP073	ltpFR	8	n/a	n/a	n/a	n/a	n/a	n/a	10	3	3	4	n/a	n/a	n/a	n/a	n/a
1577032	PROB	n/a	LTP073	ltpFR	8	n/a	n/a	n/a	n/a	n/a	n/a	13	6	2	5	n/a	n/a	n/a	n/a	n/a
1578641	PROB	n/a	LTP073	ltpFR	8	n/a	n/a	n/a	n/a	n/a	n/a	4	1	2	1	n/a	n/a	n/a	n/a	n/a
1579840	PROB	n/a	LTP073	ltpFR	8	n/a	n/a	n/a	n/a	n/a	n/a	11	8	1	2	n/a	n/a	n/a	n/a	n/a
1581281	PROB	n/a	LTP073	ltpFR	8	n/a	n/a	n/a	n/a	n/a	n/a	9	1	1	7	n/a	n/a	n/a	n/a	n/a
1582831	PROB	n/a	LTP073	ltpFR	8	n/a	n/a	n/a	n/a	n/a	n/a	19	5	6	8	n/a	n/a	n/a	n/a	n/a
1585264	PROB	n/a	LTP073	ltpFR	8	n/a	n/a	n/a	n/a	n/a	n/a	14	7	3	4	n/a	n/a	n/a	n/a	n/a
1586465	PROB	n/a	LTP073	ltpFR	8	n/a	n/a	n/a	n/a	n/a	n/a	9	5	3	1	n/a	n/a	n/a	n/a	n/a
1588113	STOP	n/a	LTP073	ltpFR	8	n/a	n/a	n/a	n/a	n/a	n/a	n/a	n/a	n/a	n/a	n/a	n/a	n/a	n/a	n/a
1590139	WORD	wordpools/wasnorm_wordpool.txt	LTP073	ltpFR	8	7	0	PISTON	1076	n/a	1	n/a	0	0	0	1	0.412841796875	0.57763671875	upper	../fonts/amplitud.ttf
1593148	START	n/a	LTP073	ltpFR	8	n/a	n/a	n/a	n/a	n/a	n/a	n/a	n/a	n/a	n/a	n/a	n/a	n/a	n/a	n/a
1594080	PROB	n/a	LTP073	ltpFR	8	n/a	n/a	n/a	n/a	n/a	n/a	18	1	8	9	n/a	n/a	n/a	n/a	n/a
1595864	PROB	n/a	LTP073	ltpFR	8	n/a	n/a	n/a	n/a	n/a	n/a	17	4	7	6	n/a	n/a	n/a	n/a	n/a
1597781	PROB	n/a	LTP073	ltpFR	8	n/a	n/a	n/a	n/a	n/a	n/a	13	5	3	3	n/a	n/a	n/a	n/a	n/a
1599623	PROB	n/a	LTP073	ltpFR	8	n/a	n/a	n/a	n/a	n/a	n/a	13	2	2	9	n/a	n/a	n/a	n/a	n/a
1601997	PROB	n/a	LTP073	ltpFR	8	n/a	n/a	n/a	n/a	n/a	n/a	12	5	5	2	n/a	n/a	n/a	n/a	n/a
1603356	PROB	n/a	LTP073	ltpFR	8	n/a	n/a	n/a	n/a	n/a	n/a	11	9	1	1	n/a	n/a	n/a	n/a	n/a
1604406	PROB	n/a	LTP073	ltpFR	8	n/a	n/a	n/a	n/a	n/a	n/a	9	3	1	5	n/a	n/a	n/a	n/a	n/a
1605913	PROB	n/a	LTP073	ltpFR	8	n/a	n/a	n/a	n/a	n/a	n/a	10	4	3	3	n/a	n/a	n/a	n/a	n/a
1609148	STOP	n/a	LTP073	ltpFR	8	n/a	n/a	n/a	n/a	n/a	n/a	n/a	n/a	n/a	n/a	n/a	n/a	n/a	n/a	n/a
1609963	WORD	wordpools/wasnorm_wordpool.txt	LTP073	ltpFR	8	7	0	STICKER	1382	n/a	0	n/a	0	0	0	1	0.412841796875	0.57763671875	upper	../fonts/amplitud.ttf
1612971	START	n/a	LTP073	ltpFR	8	n/a	n/a	n/a	n/a	n/a	n/a	n/a	n/a	n/a	n/a	n/a	n/a	n/a	n/a	n/a
1613887	PROB	n/a	LTP073	ltpFR	8	n/a	n/a	n/a	n/a	n/a	n/a	12	8	3	1	n/a	n/a	n/a	n/a	n/a
1616663	PROB	n/a	LTP073	ltpFR	8	n/a	n/a	n/a	n/a	n/a	n/a	10	1	6	3	n/a	n/a	n/a	n/a	n/a
1618279	PROB	n/a	LTP073	ltpFR	8	n/a	n/a	n/a	n/a	n/a	n/a	14	3	4	7	n/a	n/a	n/a	n/a	n/a
1620580	PROB	n/a	LTP073	ltpFR	8	n/a	n/a	n/a	n/a	n/a	n/a	5	2	2	1	n/a	n/a	n/a	n/a	n/a
1621571	PROB	n/a	LTP073	ltpFR	8	n/a	n/a	n/a	n/a	n/a	n/a	22	7	7	8	n/a	n/a	n/a	n/a	n/a
1624203	PROB	n/a	LTP073	ltpFR	8	n/a	n/a	n/a	n/a	n/a	n/a	13	8	1	4	n/a	n/a	n/a	n/a	n/a
1626654	PROB	n/a	LTP073	ltpFR	8	n/a	n/a	n/a	n/a	n/a	n/a	7	3	2	2	n/a	n/a	n/a	n/a	n/a
1628249	STOP	n/a	LTP073	ltpFR	8	n/a	n/a	n/a	n/a	n/a	n/a	n/a	n/a	n/a	n/a	n/a	n/a	n/a	n/a	n/a
1629936	WORD	wordpools/wasnorm_wordpool.txt	LTP073	ltpFR	8	7	1	ENCYCLOPEDIA	533	n/a	0	n/a	0	0	0	0	0.5869140625	0.422607421875	lower	../fonts/zerothre.ttf
1632945	START	n/a	LTP073	ltpFR	8	n/a	n/a	n/a	n/a	n/a	n/a	n/a	n/a	n/a	n/a	n/a	n/a	n/a	n/a	n/a
1633787	PROB	n/a	LTP073	ltpFR	8	n/a	n/a	n/a	n/a	n/a	n/a	16	6	3	7	n/a	n/a	n/a	n/a	n/a
1635462	PROB	n/a	LTP073	ltpFR	8	n/a	n/a	n/a	n/a	n/a	n/a	18	2	9	7	n/a	n/a	n/a	n/a	n/a
1638269	PROB	n/a	LTP073	ltpFR	8	n/a	n/a	n/a	n/a	n/a	n/a	24	8	9	7	n/a	n/a	n/a	n/a	n/a
1640985	PROB	n/a	LTP073	ltpFR	8	n/a	n/a	n/a	n/a	n/a	n/a	14	7	3	4	n/a	n/a	n/a	n/a	n/a
1642386	PROB	n/a	LTP073	ltpFR	8	n/a	n/a	n/a	n/a	n/a	n/a	9	7	1	1	n/a	n/a	n/a	n/a	n/a
1643603	PROB	n/a	LTP073	ltpFR	8	n/a	n/a	n/a	n/a	n/a	n/a	15	5	1	9	n/a	n/a	n/a	n/a	n/a
1645010	PROB	n/a	LTP073	ltpFR	8	n/a	n/a	n/a	n/a	n/a	n/a	15	2	8	5	n/a	n/a	n/a	n/a	n/a
1646143	PROB	n/a	LTP073	ltpFR	8	n/a	n/a	n/a	n/a	n/a	n/a	13	3	1	9	n/a	n/a	n/a	n/a	n/a
1648201	STOP	n/a	LTP073	ltpFR	8	n/a	n/a	n/a	n/a	n/a	n/a	n/a	n/a	n/a	n/a	n/a	n/a	n/a	n/a	n/a
1649794	WORD	wordpools/wasnorm_wordpool.txt	LTP073	ltpFR	8	7	1	JAPAN	749	n/a	0	n/a	0	0	0	0	0.5869140625	0.422607421875	lower	../fonts/zerothre.ttf
1652802	START	n/a	LTP073	ltpFR	8	n/a	n/a	n/a	n/a	n/a	n/a	n/a	n/a	n/a	n/a	n/a	n/a	n/a	n/a	n/a
1653918	PROB	n/a	LTP073	ltpFR	8	n/a	n/a	n/a	n/a	n/a	n/a	11	6	3	2	n/a	n/a	n/a	n/a	n/a
1656876	PROB	n/a	LTP073	ltpFR	8	n/a	n/a	n/a	n/a	n/a	n/a	13	3	9	1	n/a	n/a	n/a	n/a	n/a
1659368	PROB	n/a	LTP073	ltpFR	8	n/a	n/a	n/a	n/a	n/a	n/a	17	7	3	7	n/a	n/a	n/a	n/a	n/a
1660743	PROB	n/a	LTP073	ltpFR	8	n/a	n/a	n/a	n/a	n/a	n/a	6	1	2	3	n/a	n/a	n/a	n/a	n/a
1661934	PROB	n/a	LTP073	ltpFR	8	n/a	n/a	n/a	n/a	n/a	n/a	15	5	9	1	n/a	n/a	n/a	n/a	n/a
1663343	PROB	n/a	LTP073	ltpFR	8	n/a	n/a	n/a	n/a	n/a	n/a	17	7	5	5	n/a	n/a	n/a	n/a	n/a
1664942	PROB	n/a	LTP073	ltpFR	8	n/a	n/a	n/a	n/a	n/a	n/a	9	5	3	1	n/a	n/a	n/a	n/a	n/a
1667434	STOP	n/a	LTP073	ltpFR	8	n/a	n/a	n/a	n/a	n/a	n/a	n/a	n/a	n/a	n/a	n/a	n/a	n/a	n/a	n/a
1669892	WORD	wordpools/wasnorm_wordpool.txt	LTP073	ltpFR	8	7	1	SIRLOIN	1311	n/a	0	n/a	0	0	0	0	0.5869140625	0.422607421875	lower	../fonts/zerothre.ttf
1672900	START	n/a	LTP073	ltpFR	8	n/a	n/a	n/a	n/a	n/a	n/a	n/a	n/a	n/a	n/a	n/a	n/a	n/a	n/a	n/a
1673891	PROB	n/a	LTP073	ltpFR	8	n/a	n/a	n/a	n/a	n/a	n/a	17	7	9	1	n/a	n/a	n/a	n/a	n/a
1675475	PROB	n/a	LTP073	ltpFR	8	n/a	n/a	n/a	n/a	n/a	n/a	7	1	1	5	n/a	n/a	n/a	n/a	n/a
1676684	PROB	n/a	LTP073	ltpFR	8	n/a	n/a	n/a	n/a	n/a	n/a	15	1	7	7	n/a	n/a	n/a	n/a	n/a
1677991	PROB	n/a	LTP073	ltpFR	8	n/a	n/a	n/a	n/a	n/a	n/a	6	1	2	3	n/a	n/a	n/a	n/a	n/a
1679258	PROB	n/a	LTP073	ltpFR	8	n/a	n/a	n/a	n/a	n/a	n/a	13	4	8	1	n/a	n/a	n/a	n/a	n/a
1680891	PROB	n/a	LTP073	ltpFR	8	n/a	n/a	n/a	n/a	n/a	n/a	17	2	6	9	n/a	n/a	n/a	n/a	n/a
1683249	PROB	n/a	LTP073	ltpFR	8	n/a	n/a	n/a	n/a	n/a	n/a	14	1	8	5	n/a	n/a	n/a	n/a	n/a
1684767	PROB	n/a	LTP073	ltpFR	8	n/a	n/a	n/a	n/a	n/a	n/a	13	1	6	6	n/a	n/a	n/a	n/a	n/a
1686308	PROB	n/a	LTP073	ltpFR	8	n/a	n/a	n/a	n/a	n/a	n/a	18	6	6	6	n/a	n/a	n/a	n/a	n/a
1687610	STOP	n/a	LTP073	ltpFR	8	n/a	n/a	n/a	n/a	n/a	n/a	n/a	n/a	n/a	n/a	n/a	n/a	n/a	n/a	n/a
1690799	REC_START	n/a	LTP073	ltpFR	8	7	n/a	n/a	n/a	n/a	n/a	n/a	0	0	0	n/a	n/a	n/a	n/a	n/a
1691725	REC_WORD	wordpools/wasnorm_wordpool.txt	LTP073	ltpFR	8	7	1	SIRLOIN	1311	n/a	0	n/a	0	0	0	n/a	n/a	n/a	n/a	n/a
1692763	REC_WORD	wordpools/wasnorm_wordpool.txt	LTP073	ltpFR	8	7	1	ENCYCLOPEDIA	533	n/a	0	n/a	0	0	0	n/a	n/a	n/a	n/a	n/a
1693763	REC_WORD_VV	wordpools/wasnorm_wordpool.txt	LTP073	ltpFR	8	7	n/a	<>	-1	n/a	n/a	n/a	0	0	0	n/a	n/a	n/a	n/a	n/a
1694469	REC_WORD	wordpools/wasnorm_wordpool.txt	LTP073	ltpFR	8	7	1	JAPAN	749	n/a	0	n/a	0	0	0	n/a	n/a	n/a	n/a	n/a
1695988	REC_WORD	wordpools/wasnorm_wordpool.txt	LTP073	ltpFR	8	7	1	ANTELOPE	27	n/a	1	n/a	0	0	0	n/a	n/a	n/a	n/a	n/a
1697030	REC_WORD	wordpools/wasnorm_wordpool.txt	LTP073	ltpFR	8	7	0	PISTON	1076	n/a	1	n/a	0	0	0	n/a	n/a	n/a	n/a	n/a
1700002	REC_WORD_VV	wordpools/wasnorm_wordpool.txt	LTP073	ltpFR	8	7	n/a	<>	-1	n/a	n/a	n/a	0	0	0	n/a	n/a	n/a	n/a	n/a
1701002	REC_WORD_VV	wordpools/wasnorm_wordpool.txt	LTP073	ltpFR	8	7	n/a	<>	-1	n/a	n/a	n/a	0	0	0	n/a	n/a	n/a	n/a	n/a
1703066	REC_WORD	wordpools/wasnorm_wordpool.txt	LTP073	ltpFR	8	7	0	NOVEL	960	n/a	0	n/a	0	0	0	n/a	n/a	n/a	n/a	n/a
1704697	REC_WORD	wordpools/wasnorm_wordpool.txt	LTP073	ltpFR	8	7	0	STEWARDESS	1381	n/a	1	n/a	0	0	0	n/a	n/a	n/a	n/a	n/a
1774017	WORD	wordpools/wasnorm_wordpool.txt	LTP073	ltpFR	8	8	1	CHICK	296	n/a	1	n/a	0	0	0	0	0.5869140625	0.422607421875	lower	../fonts/zerothre.ttf
1777842	WORD	wordpools/wasnorm_wordpool.txt	LTP073	ltpFR	8	8	1	ACTOR	5	n/a	1	n/a	0	0	0	0	0.5869140625	0.422607421875	lower	../fonts/zerothre.ttf
1781793	WORD	wordpools/wasnorm_wordpool.txt	LTP073	ltpFR	8	8	1	SOAP	1337	n/a	0	n/a	0	0	0	0	0.5869140625	0.422607421875	lower	../fonts/zerothre.ttf
1785617	WORD	wordpools/wasnorm_wordpool.txt	LTP073	ltpFR	8	8	1	BILL	126	n/a	0	n/a	0	0	0	0	0.5869140625	0.422607421875	lower	../fonts/zerothre.ttf
1789759	WORD	wordpools/wasnorm_wordpool.txt	LTP073	ltpFR	8	8	0	PLAID	1080	n/a	0	n/a	0	0	0	1	0.412841796875	0.57763671875	upper	../fonts/amplitud.ttf
1793717	WORD	wordpools/wasnorm_wordpool.txt	LTP073	ltpFR	8	8	0	SWEATER	1419	n/a	0	n/a	0	0	0	1	0.412841796875	0.57763671875	upper	../fonts/amplitud.ttf
1797642	WORD	wordpools/wasnorm_wordpool.txt	LTP073	ltpFR	8	8	1	INVENTOR	743	n/a	1	n/a	0	0	0	0	0.5869140625	0.422607421875	lower	../fonts/zerothre.ttf
1801633	WORD	wordpools/wasnorm_wordpool.txt	LTP073	ltpFR	8	8	1	VIRUS	1572	n/a	0	n/a	0	0	0	0	0.5869140625	0.422607421875	lower	../fonts/zerothre.ttf
1805724	WORD	wordpools/wasnorm_wordpool.txt	LTP073	ltpFR	8	8	1	HOSPITAL	721	n/a	0	n/a	0	0	0	0	0.5869140625	0.422607421875	lower	../fonts/zerothre.ttf
1809532	WORD	wordpools/wasnorm_wordpool.txt	LTP073	ltpFR	8	8	1	ELECTRICIAN	521	n/a	1	n/a	0	0	0	0	0.5869140625	0.422607421875	lower	../fonts/zerothre.ttf
1813582	WORD	wordpools/wasnorm_wordpool.txt	LTP073	ltpFR	8	8	0	PLIERS	1089	n/a	0	n/a	0	0	0	1	0.412841796875	0.57763671875	upper	../fonts/amplitud.ttf
1817707	WORD	wordpools/wasnorm_wordpool.txt	LTP073	ltpFR	8	8	0	EARRING	514	n/a	0	n/a	0	0	0	1	0.412841796875	0.57763671875	upper	../fonts/amplitud.ttf
1821598	WORD	wordpools/wasnorm_wordpool.txt	LTP073	ltpFR	8	8	0	FLESH	579	n/a	0	n/a	0	0	0	1	0.412841796875	0.57763671875	upper	../fonts/amplitud.ttf
1825523	WORD	wordpools/wasnorm_wordpool.txt	LTP073	ltpFR	8	8	0	ROBE	1198	n/a	1	n/a	0	0	0	1	0.412841796875	0.57763671875	upper	../fonts/amplitud.ttf
1829356	WORD	wordpools/wasnorm_wordpool.txt	LTP073	ltpFR	8	8	0	VIDEO	1564	n/a	0	n/a	0	0	0	1	0.412841796875	0.57763671875	upper	../fonts/amplitud.ttf
1833356	WORD	wordpools/wasnorm_wordpool.txt	LTP073	ltpFR	8	8	0	ROOSTER	1209	n/a	0	n/a	0	0	0	1	0.412841796875	0.57763671875	upper	../fonts/amplitud.ttf
1836364	START	n/a	LTP073	ltpFR	8	n/a	n/a	n/a	n/a	n/a	n/a	n/a	n/a	n/a	n/a	n/a	n/a	n/a	n/a	n/a
1837229	PROB	n/a	LTP073	ltpFR	8	n/a	n/a	n/a	n/a	n/a	n/a	25	9	8	8	n/a	n/a	n/a	n/a	n/a
1840438	PROB	n/a	LTP073	ltpFR	8	n/a	n/a	n/a	n/a	n/a	n/a	13	2	9	2	n/a	n/a	n/a	n/a	n/a
1842538	PROB	n/a	LTP073	ltpFR	8	n/a	n/a	n/a	n/a	n/a	n/a	7	2	2	3	n/a	n/a	n/a	n/a	n/a
1844129	PROB	n/a	LTP073	ltpFR	8	n/a	n/a	n/a	n/a	n/a	n/a	12	8	2	2	n/a	n/a	n/a	n/a	n/a
1845571	PROB	n/a	LTP073	ltpFR	8	n/a	n/a	n/a	n/a	n/a	n/a	23	7	9	7	n/a	n/a	n/a	n/a	n/a
1847912	PROB	n/a	LTP073	ltpFR	8	n/a	n/a	n/a	n/a	n/a	n/a	10	7	1	2	n/a	n/a	n/a	n/a	n/a
1849646	PROB	n/a	LTP073	ltpFR	8	n/a	n/a	n/a	n/a	n/a	n/a	18	4	8	6	n/a	n/a	n/a	n/a	n/a
1851394	STOP	n/a	LTP073	ltpFR	8	n/a	n/a	n/a	n/a	n/a	n/a	n/a	n/a	n/a	n/a	n/a	n/a	n/a	n/a	n/a
1854287	REC_START	n/a	LTP073	ltpFR	8	8	n/a	n/a	n/a	n/a	n/a	n/a	0	0	0	n/a	n/a	n/a	n/a	n/a
1855483	REC_WORD	wordpools/wasnorm_wordpool.txt	LTP073	ltpFR	8	8	0	ROOSTER	1209	n/a	0	n/a	0	0	0	n/a	n/a	n/a	n/a	n/a
1856985	REC_WORD	wordpools/wasnorm_wordpool.txt	LTP073	ltpFR	8	8	1	ELECTRICIAN	521	n/a	1	n/a	0	0	0	n/a	n/a	n/a	n/a	n/a
1857825	REC_WORD	wordpools/wasnorm_wordpool.txt	LTP073	ltpFR	8	8	1	INVENTOR	743	n/a	1	n/a	0	0	0	n/a	n/a	n/a	n/a	n/a
1858770	REC_WORD	wordpools/wasnorm_wordpool.txt	LTP073	ltpFR	8	8	0	PLIERS	1089	n/a	0	n/a	0	0	0	n/a	n/a	n/a	n/a	n/a
1859731	REC_WORD	wordpools/wasnorm_wordpool.txt	LTP073	ltpFR	8	8	0	EARRING	514	n/a	0	n/a	0	0	0	n/a	n/a	n/a	n/a	n/a
1861329	REC_WORD	wordpools/wasnorm_wordpool.txt	LTP073	ltpFR	8	8	0	PLAID	1080	n/a	0	n/a	0	0	0	n/a	n/a	n/a	n/a	n/a
1862083	REC_WORD	wordpools/wasnorm_wordpool.txt	LTP073	ltpFR	8	8	0	SWEATER	1419	n/a	0	n/a	0	0	0	n/a	n/a	n/a	n/a	n/a
1863450	REC_WORD	wordpools/wasnorm_wordpool.txt	LTP073	ltpFR	8	8	1	CHICK	296	n/a	1	n/a	0	0	0	n/a	n/a	n/a	n/a	n/a
1864382	REC_WORD	wordpools/wasnorm_wordpool.txt	LTP073	ltpFR	8	8	1	ACTOR	5	n/a	1	n/a	0	0	0	n/a	n/a	n/a	n/a	n/a
1883817	REC_WORD	wordpools/wasnorm_wordpool.txt	LTP073	ltpFR	8	8	1	BILL	126	n/a	0	n/a	0	0	0	n/a	n/a	n/a	n/a	n/a
1884428	REC_WORD	wordpools/wasnorm_wordpool.txt	LTP073	ltpFR	8	8	1	SOAP	1337	n/a	0	n/a	0	0	0	n/a	n/a	n/a	n/a	n/a
1943197	START	n/a	LTP073	ltpFR	8	n/a	n/a	n/a	n/a	n/a	n/a	n/a	n/a	n/a	n/a	n/a	n/a	n/a	n/a	n/a
1944706	PROB	n/a	LTP073	ltpFR	8	n/a	n/a	n/a	n/a	n/a	n/a	21	6	9	6	n/a	n/a	n/a	n/a	n/a
1947005	PROB	n/a	LTP073	ltpFR	8	n/a	n/a	n/a	n/a	n/a	n/a	15	8	4	3	n/a	n/a	n/a	n/a	n/a
1948580	PROB	n/a	LTP073	ltpFR	8	n/a	n/a	n/a	n/a	n/a	n/a	13	5	3	5	n/a	n/a	n/a	n/a	n/a
1950025	STOP	n/a	LTP073	ltpFR	8	n/a	n/a	n/a	n/a	n/a	n/a	n/a	n/a	n/a	n/a	n/a	n/a	n/a	n/a	n/a
1952288	WORD	wordpools/wasnorm_wordpool.txt	LTP073	ltpFR	8	9	0	EAGLE	512	n/a	1	n/a	0	0	0	1	0.412841796875	0.57763671875	upper	../fonts/amplitud.ttf
1955296	START	n/a	LTP073	ltpFR	8	n/a	n/a	n/a	n/a	n/a	n/a	n/a	n/a	n/a	n/a	n/a	n/a	n/a	n/a	n/a
1956447	PROB	n/a	LTP073	ltpFR	8	n/a	n/a	n/a	n/a	n/a	n/a	12	2	5	5	n/a	n/a	n/a	n/a	n/a
1957571	PROB	n/a	LTP073	ltpFR	8	n/a	n/a	n/a	n/a	n/a	n/a	13	8	4	1	n/a	n/a	n/a	n/a	n/a
1958904	PROB	n/a	LTP073	ltpFR	8	n/a	n/a	n/a	n/a	n/a	n/a	13	2	7	4	n/a	n/a	n/a	n/a	n/a
1963296	STOP	n/a	LTP073	ltpFR	8	n/a	n/a	n/a	n/a	n/a	n/a	n/a	n/a	n/a	n/a	n/a	n/a	n/a	n/a	n/a
1964137	WORD	wordpools/wasnorm_wordpool.txt	LTP073	ltpFR	8	9	0	ROBIN	1199	n/a	0	n/a	0	0	0	1	0.412841796875	0.57763671875	upper	../fonts/amplitud.ttf
1967145	START	n/a	LTP073	ltpFR	8	n/a	n/a	n/a	n/a	n/a	n/a	n/a	n/a	n/a	n/a	n/a	n/a	n/a	n/a	n/a
1968078	PROB	n/a	LTP073	ltpFR	8	n/a	n/a	n/a	n/a	n/a	n/a	12	6	4	2	n/a	n/a	n/a	n/a	n/a
1969203	PROB	n/a	LTP073	ltpFR	8	n/a	n/a	n/a	n/a	n/a	n/a	12	4	7	1	n/a	n/a	n/a	n/a	n/a
1970637	PROB	n/a	LTP073	ltpFR	8	n/a	n/a	n/a	n/a	n/a	n/a	20	8	5	7	n/a	n/a	n/a	n/a	n/a
1972894	PROB	n/a	LTP073	ltpFR	8	n/a	n/a	n/a	n/a	n/a	n/a	15	9	1	5	n/a	n/a	n/a	n/a	n/a
1974330	STOP	n/a	LTP073	ltpFR	8	n/a	n/a	n/a	n/a	n/a	n/a	n/a	n/a	n/a	n/a	n/a	n/a	n/a	n/a	n/a
1975969	WORD	wordpools/wasnorm_wordpool.txt	LTP073	ltpFR	8	9	0	GALLON	618	n/a	0	n/a	0	0	0	1	0.412841796875	0.57763671875	upper	../fonts/amplitud.ttf
1978978	START	n/a	LTP073	ltpFR	8	n/a	n/a	n/a	n/a	n/a	n/a	n/a	n/a	n/a	n/a	n/a	n/a	n/a	n/a	n/a
1980085	PROB	n/a	LTP073	ltpFR	8	n/a	n/a	n/a	n/a	n/a	n/a	17	5	5	7	n/a	n/a	n/a	n/a	n/a
1981461	PROB	n/a	LTP073	ltpFR	8	n/a	n/a	n/a	n/a	n/a	n/a	15	5	7	3	n/a	n/a	n/a	n/a	n/a
1986978	STOP	n/a	LTP073	ltpFR	8	n/a	n/a	n/a	n/a	n/a	n/a	n/a	n/a	n/a	n/a	n/a	n/a	n/a	n/a	n/a
1988185	WORD	wordpools/wasnorm_wordpool.txt	LTP073	ltpFR	8	9	0	ASH	44	n/a	0	n/a	0	0	0	1	0.412841796875	0.57763671875	upper	../fonts/amplitud.ttf
1991193	START	n/a	LTP073	ltpFR	8	n/a	n/a	n/a	n/a	n/a	n/a	n/a	n/a	n/a	n/a	n/a	n/a	n/a	n/a	n/a
1992336	PROB	n/a	LTP073	ltpFR	8	n/a	n/a	n/a	n/a	n/a	n/a	9	5	3	1	n/a	n/a	n/a	n/a	n/a
1994619	PROB	n/a	LTP073	ltpFR	8	n/a	n/a	n/a	n/a	n/a	n/a	9	3	2	4	n/a	n/a	n/a	n/a	n/a
1996677	PROB	n/a	LTP073	ltpFR	8	n/a	n/a	n/a	n/a	n/a	n/a	13	5	7	1	n/a	n/a	n/a	n/a	n/a
1998113	STOP	n/a	LTP073	ltpFR	8	n/a	n/a	n/a	n/a	n/a	n/a	n/a	n/a	n/a	n/a	n/a	n/a	n/a	n/a	n/a
2000126	WORD	wordpools/wasnorm_wordpool.txt	LTP073	ltpFR	8	9	1	DIAL	457	n/a	0	n/a	0	0	0	0	0.5869140625	0.422607421875	lower	../fonts/zerothre.ttf
2003134	START	n/a	LTP073	ltpFR	8	n/a	n/a	n/a	n/a	n/a	n/a	n/a	n/a	n/a	n/a	n/a	n/a	n/a	n/a	n/a
2004134	PROB	n/a	LTP073	ltpFR	8	n/a	n/a	n/a	n/a	n/a	n/a	11	1	6	4	n/a	n/a	n/a	n/a	n/a
2006958	PROB	n/a	LTP073	ltpFR	8	n/a	n/a	n/a	n/a	n/a	n/a	14	8	4	2	n/a	n/a	n/a	n/a	n/a
2008917	PROB	n/a	LTP073	ltpFR	8	n/a	n/a	n/a	n/a	n/a	n/a	12	1	7	4	n/a	n/a	n/a	n/a	n/a
2010849	STOP	n/a	LTP073	ltpFR	8	n/a	n/a	n/a	n/a	n/a	n/a	n/a	n/a	n/a	n/a	n/a	n/a	n/a	n/a	n/a
2012300	WORD	wordpools/wasnorm_wordpool.txt	LTP073	ltpFR	8	9	1	FAUCET	555	n/a	0	n/a	0	0	0	0	0.5869140625	0.422607421875	lower	../fonts/zerothre.ttf
2015309	START	n/a	LTP073	ltpFR	8	n/a	n/a	n/a	n/a	n/a	n/a	n/a	n/a	n/a	n/a	n/a	n/a	n/a	n/a	n/a
2016367	PROB	n/a	LTP073	ltpFR	8	n/a	n/a	n/a	n/a	n/a	n/a	22	9	7	6	n/a	n/a	n/a	n/a	n/a
2018417	PROB	n/a	LTP073	ltpFR	8	n/a	n/a	n/a	n/a	n/a	n/a	8	1	2	5	n/a	n/a	n/a	n/a	n/a
2020116	PROB	n/a	LTP073	ltpFR	8	n/a	n/a	n/a	n/a	n/a	n/a	16	6	8	2	n/a	n/a	n/a	n/a	n/a
2022081	STOP	n/a	LTP073	ltpFR	8	n/a	n/a	n/a	n/a	n/a	n/a	n/a	n/a	n/a	n/a	n/a	n/a	n/a	n/a	n/a
2024157	WORD	wordpools/wasnorm_wordpool.txt	LTP073	ltpFR	8	9	1	GOVERNOR	651	n/a	1	n/a	0	0	0	0	0.5869140625	0.422607421875	lower	../fonts/zerothre.ttf
2027158	START	n/a	LTP073	ltpFR	8	n/a	n/a	n/a	n/a	n/a	n/a	n/a	n/a	n/a	n/a	n/a	n/a	n/a	n/a	n/a
2027999	PROB	n/a	LTP073	ltpFR	8	n/a	n/a	n/a	n/a	n/a	n/a	17	2	7	8	n/a	n/a	n/a	n/a	n/a
2030040	PROB	n/a	LTP073	ltpFR	8	n/a	n/a	n/a	n/a	n/a	n/a	7	1	1	5	n/a	n/a	n/a	n/a	n/a
2031566	PROB	n/a	LTP073	ltpFR	8	n/a	n/a	n/a	n/a	n/a	n/a	14	6	7	1	n/a	n/a	n/a	n/a	n/a
2034338	STOP	n/a	LTP073	ltpFR	8	n/a	n/a	n/a	n/a	n/a	n/a	n/a	n/a	n/a	n/a	n/a	n/a	n/a	n/a	n/a
2035973	WORD	wordpools/wasnorm_wordpool.txt	LTP073	ltpFR	8	9	1	TOWN	1491	n/a	0	n/a	0	0	0	0	0.5869140625	0.422607421875	lower	../fonts/zerothre.ttf
2038982	START	n/a	LTP073	ltpFR	8	n/a	n/a	n/a	n/a	n/a	n/a	n/a	n/a	n/a	n/a	n/a	n/a	n/a	n/a	n/a
2040065	PROB	n/a	LTP073	ltpFR	8	n/a	n/a	n/a	n/a	n/a	n/a	19	8	3	8	n/a	n/a	n/a	n/a	n/a
2042615	PROB	n/a	LTP073	ltpFR	8	n/a	n/a	n/a	n/a	n/a	n/a	14	1	6	7	n/a	n/a	n/a	n/a	n/a
2046982	STOP	n/a	LTP073	ltpFR	8	n/a	n/a	n/a	n/a	n/a	n/a	n/a	n/a	n/a	n/a	n/a	n/a	n/a	n/a	n/a
2047931	WORD	wordpools/wasnorm_wordpool.txt	LTP073	ltpFR	8	9	1	SINK	1309	n/a	0	n/a	0	0	0	0	0.5869140625	0.422607421875	lower	../fonts/zerothre.ttf
2050939	START	n/a	LTP073	ltpFR	8	n/a	n/a	n/a	n/a	n/a	n/a	n/a	n/a	n/a	n/a	n/a	n/a	n/a	n/a	n/a
2051955	PROB	n/a	LTP073	ltpFR	8	n/a	n/a	n/a	n/a	n/a	n/a	18	5	7	6	n/a	n/a	n/a	n/a	n/a
2054030	PROB	n/a	LTP073	ltpFR	8	n/a	n/a	n/a	n/a	n/a	n/a	19	7	8	4	n/a	n/a	n/a	n/a	n/a
2055731	PROB	n/a	LTP073	ltpFR	8	n/a	n/a	n/a	n/a	n/a	n/a	18	7	6	5	n/a	n/a	n/a	n/a	n/a
2058177	STOP	n/a	LTP073	ltpFR	8	n/a	n/a	n/a	n/a	n/a	n/a	n/a	n/a	n/a	n/a	n/a	n/a	n/a	n/a	n/a
2060105	WORD	wordpools/wasnorm_wordpool.txt	LTP073	ltpFR	8	9	0	COUGAR	387	n/a	1	n/a	0	0	0	1	0.412841796875	0.57763671875	upper	../fonts/amplitud.ttf
2063113	START	n/a	LTP073	ltpFR	8	n/a	n/a	n/a	n/a	n/a	n/a	n/a	n/a	n/a	n/a	n/a	n/a	n/a	n/a	n/a
2063954	PROB	n/a	LTP073	ltpFR	8	n/a	n/a	n/a	n/a	n/a	n/a	21	5	8	8	n/a	n/a	n/a	n/a	n/a
2065913	PROB	n/a	LTP073	ltpFR	8	n/a	n/a	n/a	n/a	n/a	n/a	17	8	4	5	n/a	n/a	n/a	n/a	n/a
2067463	PROB	n/a	LTP073	ltpFR	8	n/a	n/a	n/a	n/a	n/a	n/a	14	3	4	7	n/a	n/a	n/a	n/a	n/a
2069857	STOP	n/a	LTP073	ltpFR	8	n/a	n/a	n/a	n/a	n/a	n/a	n/a	n/a	n/a	n/a	n/a	n/a	n/a	n/a	n/a
2072012	WORD	wordpools/wasnorm_wordpool.txt	LTP073	ltpFR	8	9	0	PORCH	1106	n/a	1	n/a	0	0	0	1	0.412841796875	0.57763671875	upper	../fonts/amplitud.ttf
2075021	START	n/a	LTP073	ltpFR	8	n/a	n/a	n/a	n/a	n/a	n/a	n/a	n/a	n/a	n/a	n/a	n/a	n/a	n/a	n/a
2076145	PROB	n/a	LTP073	ltpFR	8	n/a	n/a	n/a	n/a	n/a	n/a	12	2	6	4	n/a	n/a	n/a	n/a	n/a
2078070	PROB	n/a	LTP073	ltpFR	8	n/a	n/a	n/a	n/a	n/a	n/a	23	9	8	6	n/a	n/a	n/a	n/a	n/a
2080754	PROB	n/a	LTP073	ltpFR	8	n/a	n/a	n/a	n/a	n/a	n/a	9	1	3	5	n/a	n/a	n/a	n/a	n/a
2082889	STOP	n/a	LTP073	ltpFR	8	n/a	n/a	n/a	n/a	n/a	n/a	n/a	n/a	n/a	n/a	n/a	n/a	n/a	n/a	n/a
2084145	WORD	wordpools/wasnorm_wordpool.txt	LTP073	ltpFR	8	9	1	DAGGER	434	n/a	1	n/a	0	0	0	0	0.5869140625	0.422607421875	lower	../fonts/zerothre.ttf
2087153	START	n/a	LTP073	ltpFR	8	n/a	n/a	n/a	n/a	n/a	n/a	n/a	n/a	n/a	n/a	n/a	n/a	n/a	n/a	n/a
2087969	PROB	n/a	LTP073	ltpFR	8	n/a	n/a	n/a	n/a	n/a	n/a	20	7	5	8	n/a	n/a	n/a	n/a	n/a
2090520	PROB	n/a	LTP073	ltpFR	8	n/a	n/a	n/a	n/a	n/a	n/a	11	2	6	3	n/a	n/a	n/a	n/a	n/a
2092261	PROB	n/a	LTP073	ltpFR	8	n/a	n/a	n/a	n/a	n/a	n/a	16	4	8	4	n/a	n/a	n/a	n/a	n/a
2094378	STOP	n/a	LTP073	ltpFR	8	n/a	n/a	n/a	n/a	n/a	n/a	n/a	n/a	n/a	n/a	n/a	n/a	n/a	n/a	n/a
2096260	WORD	wordpools/wasnorm_wordpool.txt	LTP073	ltpFR	8	9	1	SURGEON	1413	n/a	1	n/a	0	0	0	0	0.5869140625	0.422607421875	lower	../fonts/zerothre.ttf
2099269	START	n/a	LTP073	ltpFR	8	n/a	n/a	n/a	n/a	n/a	n/a	n/a	n/a	n/a	n/a	n/a	n/a	n/a	n/a	n/a
2100369	PROB	n/a	LTP073	ltpFR	8	n/a	n/a	n/a	n/a	n/a	n/a	18	2	9	7	n/a	n/a	n/a	n/a	n/a
2102252	PROB	n/a	LTP073	ltpFR	8	n/a	n/a	n/a	n/a	n/a	n/a	17	5	5	7	n/a	n/a	n/a	n/a	n/a
2103477	PROB	n/a	LTP073	ltpFR	8	n/a	n/a	n/a	n/a	n/a	n/a	14	9	2	3	n/a	n/a	n/a	n/a	n/a
2105276	PROB	n/a	LTP073	ltpFR	8	n/a	n/a	n/a	n/a	n/a	n/a	11	2	3	6	n/a	n/a	n/a	n/a	n/a
2107041	STOP	n/a	LTP073	ltpFR	8	n/a	n/a	n/a	n/a	n/a	n/a	n/a	n/a	n/a	n/a	n/a	n/a	n/a	n/a	n/a
2108419	WORD	wordpools/wasnorm_wordpool.txt	LTP073	ltpFR	8	9	1	LEOPARD	812	n/a	1	n/a	0	0	0	0	0.5869140625	0.422607421875	lower	../fonts/zerothre.ttf
2111427	START	n/a	LTP073	ltpFR	8	n/a	n/a	n/a	n/a	n/a	n/a	n/a	n/a	n/a	n/a	n/a	n/a	n/a	n/a	n/a
2112344	PROB	n/a	LTP073	ltpFR	8	n/a	n/a	n/a	n/a	n/a	n/a	16	4	7	5	n/a	n/a	n/a	n/a	n/a
2113785	PROB	n/a	LTP073	ltpFR	8	n/a	n/a	n/a	n/a	n/a	n/a	18	9	1	8	n/a	n/a	n/a	n/a	n/a
2114992	PROB	n/a	LTP073	ltpFR	8	n/a	n/a	n/a	n/a	n/a	n/a	21	9	9	3	n/a	n/a	n/a	n/a	n/a
2116418	PROB	n/a	LTP073	ltpFR	8	n/a	n/a	n/a	n/a	n/a	n/a	15	4	5	6	n/a	n/a	n/a	n/a	n/a
2118225	STOP	n/a	LTP073	ltpFR	8	n/a	n/a	n/a	n/a	n/a	n/a	n/a	n/a	n/a	n/a	n/a	n/a	n/a	n/a	n/a
2120451	WORD	wordpools/wasnorm_wordpool.txt	LTP073	ltpFR	8	9	0	PUDDLE	1140	n/a	0	n/a	0	0	0	1	0.412841796875	0.57763671875	upper	../fonts/amplitud.ttf
2123460	START	n/a	LTP073	ltpFR	8	n/a	n/a	n/a	n/a	n/a	n/a	n/a	n/a	n/a	n/a	n/a	n/a	n/a	n/a	n/a
2124275	PROB	n/a	LTP073	ltpFR	8	n/a	n/a	n/a	n/a	n/a	n/a	9	2	5	3	n/a	n/a	n/a	n/a	n/a
2126334	PROB	n/a	LTP073	ltpFR	8	n/a	n/a	n/a	n/a	n/a	n/a	20	8	8	4	n/a	n/a	n/a	n/a	n/a
2131460	STOP	n/a	LTP073	ltpFR	8	n/a	n/a	n/a	n/a	n/a	n/a	n/a	n/a	n/a	n/a	n/a	n/a	n/a	n/a	n/a
2132350	WORD	wordpools/wasnorm_wordpool.txt	LTP073	ltpFR	8	9	0	PICK	1058	n/a	n/a	n/a	0	0	0	1	0.412841796875	0.57763671875	upper	../fonts/amplitud.ttf
2135375	SLOW_MSG	n/a	LTP073	ltpFR	8	9	n/a	n/a	n/a	n/a	n/a	n/a	0	0	0	n/a	n/a	n/a	n/a	n/a
2136891	START	n/a	LTP073	ltpFR	8	n/a	n/a	n/a	n/a	n/a	n/a	n/a	n/a	n/a	n/a	n/a	n/a	n/a	n/a	n/a
2137824	PROB	n/a	LTP073	ltpFR	8	n/a	n/a	n/a	n/a	n/a	n/a	16	6	1	9	n/a	n/a	n/a	n/a	n/a
2139815	PROB	n/a	LTP073	ltpFR	8	n/a	n/a	n/a	n/a	n/a	n/a	20	9	6	5	n/a	n/a	n/a	n/a	n/a
2143115	PROB	n/a	LTP073	ltpFR	8	n/a	n/a	n/a	n/a	n/a	n/a	14	6	4	4	n/a	n/a	n/a	n/a	n/a
2144738	STOP	n/a	LTP073	ltpFR	8	n/a	n/a	n/a	n/a	n/a	n/a	n/a	n/a	n/a	n/a	n/a	n/a	n/a	n/a	n/a
2146700	REC_START	n/a	LTP073	ltpFR	8	9	n/a	n/a	n/a	n/a	n/a	n/a	0	0	0	n/a	n/a	n/a	n/a	n/a
2149339	REC_WORD	wordpools/wasnorm_wordpool.txt	LTP073	ltpFR	8	9	1	DAGGER	434	n/a	1	n/a	0	0	0	n/a	n/a	n/a	n/a	n/a
2150226	REC_WORD	wordpools/wasnorm_wordpool.txt	LTP073	ltpFR	8	9	1	SURGEON	1413	n/a	1	n/a	0	0	0	n/a	n/a	n/a	n/a	n/a
2151284	REC_WORD	wordpools/wasnorm_wordpool.txt	LTP073	ltpFR	8	9	1	LEOPARD	812	n/a	1	n/a	0	0	0	n/a	n/a	n/a	n/a	n/a
2152387	REC_WORD	wordpools/wasnorm_wordpool.txt	LTP073	ltpFR	8	9	0	COUGAR	387	n/a	1	n/a	0	0	0	n/a	n/a	n/a	n/a	n/a
2153453	REC_WORD	wordpools/wasnorm_wordpool.txt	LTP073	ltpFR	8	9	1	GOVERNOR	651	n/a	1	n/a	0	0	0	n/a	n/a	n/a	n/a	n/a
2154498	REC_WORD	wordpools/wasnorm_wordpool.txt	LTP073	ltpFR	8	9	1	TOWN	1491	n/a	0	n/a	0	0	0	n/a	n/a	n/a	n/a	n/a
2158101	REC_WORD	wordpools/wasnorm_wordpool.txt	LTP073	ltpFR	8	9	0	ROBIN	1199	n/a	0	n/a	0	0	0	n/a	n/a	n/a	n/a	n/a
2158756	REC_WORD	wordpools/wasnorm_wordpool.txt	LTP073	ltpFR	8	9	0	EAGLE	512	n/a	1	n/a	0	0	0	n/a	n/a	n/a	n/a	n/a
2159765	REC_WORD	wordpools/wasnorm_wordpool.txt	LTP073	ltpFR	8	9	0	GALLON	618	n/a	0	n/a	0	0	0	n/a	n/a	n/a	n/a	n/a
2163797	REC_WORD	wordpools/wasnorm_wordpool.txt	LTP073	ltpFR	8	9	1	FAUCET	555	n/a	0	n/a	0	0	0	n/a	n/a	n/a	n/a	n/a
2164590	REC_WORD	wordpools/wasnorm_wordpool.txt	LTP073	ltpFR	8	9	1	SINK	1309	n/a	0	n/a	0	0	0	n/a	n/a	n/a	n/a	n/a
2228842	WORD	wordpools/wasnorm_wordpool.txt	LTP073	ltpFR	8	10	0	DORM	488	n/a	1	n/a	0	0	0	1	0.412841796875	0.57763671875	upper	../fonts/amplitud.ttf
2232975	WORD	wordpools/wasnorm_wordpool.txt	LTP073	ltpFR	8	10	0	BED	110	n/a	1	n/a	0	0	0	1	0.412841796875	0.57763671875	upper	../fonts/amplitud.ttf
2237000	WORD	wordpools/wasnorm_wordpool.txt	LTP073	ltpFR	8	10	0	LIMB	822	n/a	1	n/a	0	0	0	1	0.412841796875	0.57763671875	upper	../fonts/amplitud.ttf
2241150	WORD	wordpools/wasnorm_wordpool.txt	LTP073	ltpFR	8	10	0	CONVENT	370	n/a	1	n/a	0	0	0	1	0.412841796875	0.57763671875	upper	../fonts/amplitud.ttf
2245091	WORD	wordpools/wasnorm_wordpool.txt	LTP073	ltpFR	8	10	0	DESSERT	453	n/a	1	n/a	0	0	0	1	0.412841796875	0.57763671875	upper	../fonts/amplitud.ttf
2249282	WORD	wordpools/wasnorm_wordpool.txt	LTP073	ltpFR	8	10	0	GRAVE	658	n/a	1	n/a	0	0	0	1	0.412841796875	0.57763671875	upper	../fonts/amplitud.ttf
2253375	WORD	wordpools/wasnorm_wordpool.txt	LTP073	ltpFR	8	10	0	BEAKER	104	n/a	0	n/a	0	0	0	1	0.412841796875	0.57763671875	upper	../fonts/amplitud.ttf
2257341	WORD	wordpools/wasnorm_wordpool.txt	LTP073	ltpFR	8	10	0	FLASK	576	n/a	0	n/a	0	0	0	1	0.412841796875	0.57763671875	upper	../fonts/amplitud.ttf
2261190	WORD	wordpools/wasnorm_wordpool.txt	LTP073	ltpFR	8	10	0	PIKE	1067	n/a	1	n/a	0	0	0	1	0.412841796875	0.57763671875	upper	../fonts/amplitud.ttf
2265273	WORD	wordpools/wasnorm_wordpool.txt	LTP073	ltpFR	8	10	0	COW	393	n/a	1	n/a	0	0	0	1	0.412841796875	0.57763671875	upper	../fonts/amplitud.ttf
2269164	WORD	wordpools/wasnorm_wordpool.txt	LTP073	ltpFR	8	10	0	IGLOO	734	n/a	1	n/a	0	0	0	1	0.412841796875	0.57763671875	upper	../fonts/amplitud.ttf
2273156	WORD	wordpools/wasnorm_wordpool.txt	LTP073	ltpFR	8	10	0	HANDKERCHIEF	686	n/a	0	n/a	0	0	0	1	0.412841796875	0.57763671875	upper	../fonts/amplitud.ttf
2277348	WORD	wordpools/wasnorm_wordpool.txt	LTP073	ltpFR	8	10	0	JOINT	758	n/a	0	n/a	0	0	0	1	0.412841796875	0.57763671875	upper	../fonts/amplitud.ttf
2281348	WORD	wordpools/wasnorm_wordpool.txt	LTP073	ltpFR	8	10	0	CATHEDRAL	260	n/a	1	n/a	0	0	0	1	0.412841796875	0.57763671875	upper	../fonts/amplitud.ttf
2285497	WORD	wordpools/wasnorm_wordpool.txt	LTP073	ltpFR	8	10	0	COMPASS	358	n/a	1	n/a	0	0	0	1	0.412841796875	0.57763671875	upper	../fonts/amplitud.ttf
2289630	WORD	wordpools/wasnorm_wordpool.txt	LTP073	ltpFR	8	10	0	WAITRESS	1581	n/a	1	n/a	0	0	0	1	0.412841796875	0.57763671875	upper	../fonts/amplitud.ttf
2295589	REC_START	n/a	LTP073	ltpFR	8	10	n/a	n/a	n/a	n/a	n/a	n/a	0	0	0	n/a	n/a	n/a	n/a	n/a
2297118	REC_WORD	wordpools/wasnorm_wordpool.txt	LTP073	ltpFR	8	10	0	COMPASS	358	n/a	1	n/a	0	0	0	n/a	n/a	n/a	n/a	n/a
2298178	REC_WORD	wordpools/wasnorm_wordpool.txt	LTP073	ltpFR	8	10	0	HANDKERCHIEF	686	n/a	0	n/a	0	0	0	n/a	n/a	n/a	n/a	n/a
2299484	REC_WORD	wordpools/wasnorm_wordpool.txt	LTP073	ltpFR	8	10	0	WAITRESS	1581	n/a	1	n/a	0	0	0	n/a	n/a	n/a	n/a	n/a
2301400	REC_WORD	wordpools/wasnorm_wordpool.txt	LTP073	ltpFR	8	10	0	DESSERT	453	n/a	1	n/a	0	0	0	n/a	n/a	n/a	n/a	n/a
2303517	REC_WORD	wordpools/wasnorm_wordpool.txt	LTP073	ltpFR	8	10	0	LIMB	822	n/a	1	n/a	0	0	0	n/a	n/a	n/a	n/a	n/a
2304498	REC_WORD	wordpools/wasnorm_wordpool.txt	LTP073	ltpFR	8	10	0	JOINT	758	n/a	0	n/a	0	0	0	n/a	n/a	n/a	n/a	n/a
2325213	REC_WORD	wordpools/wasnorm_wordpool.txt	LTP073	ltpFR	8	10	0	IGLOO	734	n/a	1	n/a	0	0	0	n/a	n/a	n/a	n/a	n/a
2341829	REC_WORD	wordpools/wasnorm_wordpool.txt	LTP073	ltpFR	8	10	0	DORM	488	n/a	1	n/a	0	0	0	n/a	n/a	n/a	n/a	n/a
2345486	REC_WORD	wordpools/wasnorm_wordpool.txt	LTP073	ltpFR	8	10	0	CONVENT	370	n/a	1	n/a	0	0	0	n/a	n/a	n/a	n/a	n/a
2346259	REC_WORD	wordpools/wasnorm_wordpool.txt	LTP073	ltpFR	8	10	0	CATHEDRAL	260	n/a	1	n/a	0	0	0	n/a	n/a	n/a	n/a	n/a
2378541	WORD	wordpools/wasnorm_wordpool.txt	LTP073	ltpFR	8	11	1	CARAVAN	242	n/a	0	n/a	0	0	0	0	0.5869140625	0.422607421875	lower	../fonts/zerothre.ttf
2382365	WORD	wordpools/wasnorm_wordpool.txt	LTP073	ltpFR	8	11	1	BEAN	105	n/a	0	n/a	0	0	0	0	0.5869140625	0.422607421875	lower	../fonts/zerothre.ttf
2386565	WORD	wordpools/wasnorm_wordpool.txt	LTP073	ltpFR	8	11	1	TURNIP	1521	n/a	0	n/a	0	0	0	0	0.5869140625	0.422607421875	lower	../fonts/zerothre.ttf
2390448	WORD	wordpools/wasnorm_wordpool.txt	LTP073	ltpFR	8	11	1	JUG	762	n/a	0	n/a	0	0	0	0	0.5869140625	0.422607421875	lower	../fonts/zerothre.ttf
2394389	WORD	wordpools/wasnorm_wordpool.txt	LTP073	ltpFR	8	11	1	SCALLOP	1242	n/a	1	n/a	0	0	0	0	0.5869140625	0.422607421875	lower	../fonts/zerothre.ttf
2398221	WORD	wordpools/wasnorm_wordpool.txt	LTP073	ltpFR	8	11	1	TAXI	1438	n/a	0	n/a	0	0	0	0	0.5869140625	0.422607421875	lower	../fonts/zerothre.ttf
2402155	WORD	wordpools/wasnorm_wordpool.txt	LTP073	ltpFR	8	11	1	FOREHEAD	592	n/a	1	n/a	0	0	0	0	0.5869140625	0.422607421875	lower	../fonts/zerothre.ttf
2406238	WORD	wordpools/wasnorm_wordpool.txt	LTP073	ltpFR	8	11	1	PELICAN	1039	n/a	1	n/a	0	0	0	0	0.5869140625	0.422607421875	lower	../fonts/zerothre.ttf
2410271	WORD	wordpools/wasnorm_wordpool.txt	LTP073	ltpFR	8	11	1	DOVE	491	n/a	1	n/a	0	0	0	0	0.5869140625	0.422607421875	lower	../fonts/zerothre.ttf
2414270	WORD	wordpools/wasnorm_wordpool.txt	LTP073	ltpFR	8	11	1	SCARF	1246	n/a	0	n/a	0	0	0	0	0.5869140625	0.422607421875	lower	../fonts/zerothre.ttf
2418203	WORD	wordpools/wasnorm_wordpool.txt	LTP073	ltpFR	8	11	1	PEARL	1034	n/a	0	n/a	0	0	0	0	0.5869140625	0.422607421875	lower	../fonts/zerothre.ttf
2422371	WORD	wordpools/wasnorm_wordpool.txt	LTP073	ltpFR	8	11	1	MAPLE	866	n/a	0	n/a	0	0	0	0	0.5869140625	0.422607421875	lower	../fonts/zerothre.ttf
2426294	WORD	wordpools/wasnorm_wordpool.txt	LTP073	ltpFR	8	11	1	WALNUT	1584	n/a	0	n/a	0	0	0	0	0.5869140625	0.422607421875	lower	../fonts/zerothre.ttf
2430202	WORD	wordpools/wasnorm_wordpool.txt	LTP073	ltpFR	8	11	1	LAMB	797	n/a	1	n/a	0	0	0	0	0.5869140625	0.422607421875	lower	../fonts/zerothre.ttf
2434060	WORD	wordpools/wasnorm_wordpool.txt	LTP073	ltpFR	8	11	1	PICNIC	1060	n/a	0	n/a	0	0	0	0	0.5869140625	0.422607421875	lower	../fonts/zerothre.ttf
2438169	WORD	wordpools/wasnorm_wordpool.txt	LTP073	ltpFR	8	11	1	OCEAN	970	n/a	0	n/a	0	0	0	0	0.5869140625	0.422607421875	lower	../fonts/zerothre.ttf
2441177	START	n/a	LTP073	ltpFR	8	n/a	n/a	n/a	n/a	n/a	n/a	n/a	n/a	n/a	n/a	n/a	n/a	n/a	n/a	n/a
2442068	PROB	n/a	LTP073	ltpFR	8	n/a	n/a	n/a	n/a	n/a	n/a	10	1	8	1	n/a	n/a	n/a	n/a	n/a
2443902	PROB	n/a	LTP073	ltpFR	8	n/a	n/a	n/a	n/a	n/a	n/a	15	1	7	7	n/a	n/a	n/a	n/a	n/a
2445076	PROB	n/a	LTP073	ltpFR	8	n/a	n/a	n/a	n/a	n/a	n/a	5	1	1	3	n/a	n/a	n/a	n/a	n/a
2447160	PROB	n/a	LTP073	ltpFR	8	n/a	n/a	n/a	n/a	n/a	n/a	11	6	3	2	n/a	n/a	n/a	n/a	n/a
2448450	STOP	n/a	LTP073	ltpFR	8	n/a	n/a	n/a	n/a	n/a	n/a	n/a	n/a	n/a	n/a	n/a	n/a	n/a	n/a	n/a
2451052	REC_START	n/a	LTP073	ltpFR	8	11	n/a	n/a	n/a	n/a	n/a	n/a	0	0	0	n/a	n/a	n/a	n/a	n/a
2452474	REC_WORD	wordpools/wasnorm_wordpool.txt	LTP073	ltpFR	8	11	1	SCALLOP	1242	n/a	1	n/a	0	0	0	n/a	n/a	n/a	n/a	n/a
2453959	REC_WORD	wordpools/wasnorm_wordpool.txt	LTP073	ltpFR	8	11	1	OCEAN	970	n/a	0	n/a	0	0	0	n/a	n/a	n/a	n/a	n/a
2455734	REC_WORD	wordpools/wasnorm_wordpool.txt	LTP073	ltpFR	8	11	1	PICNIC	1060	n/a	0	n/a	0	0	0	n/a	n/a	n/a	n/a	n/a
2457062	REC_WORD	wordpools/wasnorm_wordpool.txt	LTP073	ltpFR	8	11	1	BEAN	105	n/a	0	n/a	0	0	0	n/a	n/a	n/a	n/a	n/a
2457869	REC_WORD	wordpools/wasnorm_wordpool.txt	LTP073	ltpFR	8	11	1	TURNIP	1521	n/a	0	n/a	0	0	0	n/a	n/a	n/a	n/a	n/a
2458814	REC_WORD	wordpools/wasnorm_wordpool.txt	LTP073	ltpFR	8	11	1	JUG	762	n/a	0	n/a	0	0	0	n/a	n/a	n/a	n/a	n/a
2459734	REC_WORD	wordpools/wasnorm_wordpool.txt	LTP073	ltpFR	8	11	1	CARAVAN	242	n/a	0	n/a	0	0	0	n/a	n/a	n/a	n/a	n/a
2461091	REC_WORD	wordpools/wasnorm_wordpool.txt	LTP073	ltpFR	8	11	1	TAXI	1438	n/a	0	n/a	0	0	0	n/a	n/a	n/a	n/a	n/a
2463476	REC_WORD	wordpools/wasnorm_wordpool.txt	LTP073	ltpFR	8	11	1	LAMB	797	n/a	1	n/a	0	0	0	n/a	n/a	n/a	n/a	n/a
2496926	REC_WORD	wordpools/wasnorm_wordpool.txt	LTP073	ltpFR	8	11	1	MAPLE	866	n/a	0	n/a	0	0	0	n/a	n/a	n/a	n/a	n/a
2497530	REC_WORD	wordpools/wasnorm_wordpool.txt	LTP073	ltpFR	8	11	1	WALNUT	1584	n/a	0	n/a	0	0	0	n/a	n/a	n/a	n/a	n/a
2532295	START	n/a	LTP073	ltpFR	8	n/a	n/a	n/a	n/a	n/a	n/a	n/a	n/a	n/a	n/a	n/a	n/a	n/a	n/a	n/a
2533803	PROB	n/a	LTP073	ltpFR	8	n/a	n/a	n/a	n/a	n/a	n/a	11	6	1	4	n/a	n/a	n/a	n/a	n/a
2535011	PROB	n/a	LTP073	ltpFR	8	n/a	n/a	n/a	n/a	n/a	n/a	12	3	8	1	n/a	n/a	n/a	n/a	n/a
2536337	PROB	n/a	LTP073	ltpFR	8	n/a	n/a	n/a	n/a	n/a	n/a	16	5	5	6	n/a	n/a	n/a	n/a	n/a
2537487	PROB	n/a	LTP073	ltpFR	8	n/a	n/a	n/a	n/a	n/a	n/a	21	9	4	8	n/a	n/a	n/a	n/a	n/a
2539329	PROB	n/a	LTP073	ltpFR	8	n/a	n/a	n/a	n/a	n/a	n/a	11	3	3	5	n/a	n/a	n/a	n/a	n/a
2541269	PROB	n/a	LTP073	ltpFR	8	n/a	n/a	n/a	n/a	n/a	n/a	21	3	7	9	n/a	n/a	n/a	n/a	n/a
2543445	PROB	n/a	LTP073	ltpFR	8	n/a	n/a	n/a	n/a	n/a	n/a	16	9	6	1	n/a	n/a	n/a	n/a	n/a
2545403	PROB	n/a	LTP073	ltpFR	8	n/a	n/a	n/a	n/a	n/a	n/a	12	9	2	1	n/a	n/a	n/a	n/a	n/a
2547169	STOP	n/a	LTP073	ltpFR	8	n/a	n/a	n/a	n/a	n/a	n/a	n/a	n/a	n/a	n/a	n/a	n/a	n/a	n/a	n/a
2549445	WORD	wordpools/wasnorm_wordpool.txt	LTP073	ltpFR	8	12	1	UNIFORM	1539	n/a	0	n/a	0	0	0	0	0.5869140625	0.422607421875	lower	../fonts/zerothre.ttf
2552453	START	n/a	LTP073	ltpFR	8	n/a	n/a	n/a	n/a	n/a	n/a	n/a	n/a	n/a	n/a	n/a	n/a	n/a	n/a	n/a
2553403	PROB	n/a	LTP073	ltpFR	8	n/a	n/a	n/a	n/a	n/a	n/a	10	2	7	1	n/a	n/a	n/a	n/a	n/a
2555043	PROB	n/a	LTP073	ltpFR	8	n/a	n/a	n/a	n/a	n/a	n/a	17	4	5	8	n/a	n/a	n/a	n/a	n/a
2557619	PROB	n/a	LTP073	ltpFR	8	n/a	n/a	n/a	n/a	n/a	n/a	16	8	6	2	n/a	n/a	n/a	n/a	n/a
2559319	PROB	n/a	LTP073	ltpFR	8	n/a	n/a	n/a	n/a	n/a	n/a	16	8	5	1	n/a	n/a	n/a	n/a	n/a
2560644	PROB	n/a	LTP073	ltpFR	8	n/a	n/a	n/a	n/a	n/a	n/a	7	2	2	3	n/a	n/a	n/a	n/a	n/a
2565059	PROB	n/a	LTP073	ltpFR	8	n/a	n/a	n/a	n/a	n/a	n/a	11	1	1	9	n/a	n/a	n/a	n/a	n/a
2566134	PROB	n/a	LTP073	ltpFR	8	n/a	n/a	n/a	n/a	n/a	n/a	15	2	6	7	n/a	n/a	n/a	n/a	n/a
2567929	STOP	n/a	LTP073	ltpFR	8	n/a	n/a	n/a	n/a	n/a	n/a	n/a	n/a	n/a	n/a	n/a	n/a	n/a	n/a	n/a
2569627	WORD	wordpools/wasnorm_wordpool.txt	LTP073	ltpFR	8	12	1	RAZOR	1171	n/a	0	n/a	0	0	0	0	0.5869140625	0.422607421875	lower	../fonts/zerothre.ttf
2572635	START	n/a	LTP073	ltpFR	8	n/a	n/a	n/a	n/a	n/a	n/a	n/a	n/a	n/a	n/a	n/a	n/a	n/a	n/a	n/a
2573651	PROB	n/a	LTP073	ltpFR	8	n/a	n/a	n/a	n/a	n/a	n/a	24	6	9	9	n/a	n/a	n/a	n/a	n/a
2575559	PROB	n/a	LTP073	ltpFR	8	n/a	n/a	n/a	n/a	n/a	n/a	19	3	7	9	n/a	n/a	n/a	n/a	n/a
2577017	PROB	n/a	LTP073	ltpFR	8	n/a	n/a	n/a	n/a	n/a	n/a	12	1	2	9	n/a	n/a	n/a	n/a	n/a
2578359	PROB	n/a	LTP073	ltpFR	8	n/a	n/a	n/a	n/a	n/a	n/a	14	6	3	5	n/a	n/a	n/a	n/a	n/a
2581125	PROB	n/a	LTP073	ltpFR	8	n/a	n/a	n/a	n/a	n/a	n/a	16	2	8	6	n/a	n/a	n/a	n/a	n/a
2582359	PROB	n/a	LTP073	ltpFR	8	n/a	n/a	n/a	n/a	n/a	n/a	12	2	3	7	n/a	n/a	n/a	n/a	n/a
2584041	PROB	n/a	LTP073	ltpFR	8	n/a	n/a	n/a	n/a	n/a	n/a	20	4	7	9	n/a	n/a	n/a	n/a	n/a
2586317	PROB	n/a	LTP073	ltpFR	8	n/a	n/a	n/a	n/a	n/a	n/a	16	8	4	2	n/a	n/a	n/a	n/a	n/a
2587642	STOP	n/a	LTP073	ltpFR	8	n/a	n/a	n/a	n/a	n/a	n/a	n/a	n/a	n/a	n/a	n/a	n/a	n/a	n/a	n/a
2589816	WORD	wordpools/wasnorm_wordpool.txt	LTP073	ltpFR	8	12	0	FENCE	560	n/a	0	n/a	0	0	0	1	0.412841796875	0.57763671875	upper	../fonts/amplitud.ttf
2592824	START	n/a	LTP073	ltpFR	8	n/a	n/a	n/a	n/a	n/a	n/a	n/a	n/a	n/a	n/a	n/a	n/a	n/a	n/a	n/a
2593716	PROB	n/a	LTP073	ltpFR	8	n/a	n/a	n/a	n/a	n/a	n/a	16	6	1	9	n/a	n/a	n/a	n/a	n/a
2595716	PROB	n/a	LTP073	ltpFR	8	n/a	n/a	n/a	n/a	n/a	n/a	19	6	8	5	n/a	n/a	n/a	n/a	n/a
2597533	PROB	n/a	LTP073	ltpFR	8	n/a	n/a	n/a	n/a	n/a	n/a	17	9	3	5	n/a	n/a	n/a	n/a	n/a
2598965	PROB	n/a	LTP073	ltpFR	8	n/a	n/a	n/a	n/a	n/a	n/a	16	6	2	8	n/a	n/a	n/a	n/a	n/a
2600516	PROB	n/a	LTP073	ltpFR	8	n/a	n/a	n/a	n/a	n/a	n/a	17	6	8	3	n/a	n/a	n/a	n/a	n/a
2602182	PROB	n/a	LTP073	ltpFR	8	n/a	n/a	n/a	n/a	n/a	n/a	17	5	9	4	n/a	n/a	n/a	n/a	n/a
2604707	PROB	n/a	LTP073	ltpFR	8	n/a	n/a	n/a	n/a	n/a	n/a	21	4	8	9	n/a	n/a	n/a	n/a	n/a
2606749	PROB	n/a	LTP073	ltpFR	8	n/a	n/a	n/a	n/a	n/a	n/a	13	2	9	2	n/a	n/a	n/a	n/a	n/a
2608554	STOP	n/a	LTP073	ltpFR	8	n/a	n/a	n/a	n/a	n/a	n/a	n/a	n/a	n/a	n/a	n/a	n/a	n/a	n/a	n/a
2609831	WORD	wordpools/wasnorm_wordpool.txt	LTP073	ltpFR	8	12	0	PRUNE	1134	n/a	0	n/a	0	0	0	1	0.412841796875	0.57763671875	upper	../fonts/amplitud.ttf
2612840	START	n/a	LTP073	ltpFR	8	n/a	n/a	n/a	n/a	n/a	n/a	n/a	n/a	n/a	n/a	n/a	n/a	n/a	n/a	n/a
2613748	PROB	n/a	LTP073	ltpFR	8	n/a	n/a	n/a	n/a	n/a	n/a	13	9	2	2	n/a	n/a	n/a	n/a	n/a
2615448	PROB	n/a	LTP073	ltpFR	8	n/a	n/a	n/a	n/a	n/a	n/a	7	4	1	2	n/a	n/a	n/a	n/a	n/a
2617155	PROB	n/a	LTP073	ltpFR	8	n/a	n/a	n/a	n/a	n/a	n/a	14	9	3	2	n/a	n/a	n/a	n/a	n/a
2619590	PROB	n/a	LTP073	ltpFR	8	n/a	n/a	n/a	n/a	n/a	n/a	23	7	8	8	n/a	n/a	n/a	n/a	n/a
2622556	PROB	n/a	LTP073	ltpFR	8	n/a	n/a	n/a	n/a	n/a	n/a	23	8	8	7	n/a	n/a	n/a	n/a	n/a
2625205	PROB	n/a	LTP073	ltpFR	8	n/a	n/a	n/a	n/a	n/a	n/a	1	5	2	5	n/a	n/a	n/a	n/a	n/a
2626772	PROB	n/a	LTP073	ltpFR	8	n/a	n/a	n/a	n/a	n/a	n/a	12	5	1	6	n/a	n/a	n/a	n/a	n/a
2628698	STOP	n/a	LTP073	ltpFR	8	n/a	n/a	n/a	n/a	n/a	n/a	n/a	n/a	n/a	n/a	n/a	n/a	n/a	n/a	n/a
2630021	WORD	wordpools/wasnorm_wordpool.txt	LTP073	ltpFR	8	12	0	TOILET	1475	n/a	0	n/a	0	0	0	1	0.412841796875	0.57763671875	upper	../fonts/amplitud.ttf
2633030	START	n/a	LTP073	ltpFR	8	n/a	n/a	n/a	n/a	n/a	n/a	n/a	n/a	n/a	n/a	n/a	n/a	n/a	n/a	n/a
2634137	PROB	n/a	LTP073	ltpFR	8	n/a	n/a	n/a	n/a	n/a	n/a	8	1	6	1	n/a	n/a	n/a	n/a	n/a
2635372	PROB	n/a	LTP073	ltpFR	8	n/a	n/a	n/a	n/a	n/a	n/a	15	9	3	3	n/a	n/a	n/a	n/a	n/a
2637305	PROB	n/a	LTP073	ltpFR	8	n/a	n/a	n/a	n/a	n/a	n/a	14	3	5	6	n/a	n/a	n/a	n/a	n/a
2638937	PROB	n/a	LTP073	ltpFR	8	n/a	n/a	n/a	n/a	n/a	n/a	12	4	6	2	n/a	n/a	n/a	n/a	n/a
2640137	PROB	n/a	LTP073	ltpFR	8	n/a	n/a	n/a	n/a	n/a	n/a	11	4	4	3	n/a	n/a	n/a	n/a	n/a
2641970	PROB	n/a	LTP073	ltpFR	8	n/a	n/a	n/a	n/a	n/a	n/a	18	7	8	3	n/a	n/a	n/a	n/a	n/a
2643571	PROB	n/a	LTP073	ltpFR	8	n/a	n/a	n/a	n/a	n/a	n/a	12	8	3	1	n/a	n/a	n/a	n/a	n/a
2644887	PROB	n/a	LTP073	ltpFR	8	n/a	n/a	n/a	n/a	n/a	n/a	18	3	8	7	n/a	n/a	n/a	n/a	n/a
2646995	PROB	n/a	LTP073	ltpFR	8	n/a	n/a	n/a	n/a	n/a	n/a	16	5	5	6	n/a	n/a	n/a	n/a	n/a
2648121	STOP	n/a	LTP073	ltpFR	8	n/a	n/a	n/a	n/a	n/a	n/a	n/a	n/a	n/a	n/a	n/a	n/a	n/a	n/a	n/a
2650236	WORD	wordpools/wasnorm_wordpool.txt	LTP073	ltpFR	8	12	0	BATHROOM	99	n/a	1	n/a	0	0	0	1	0.412841796875	0.57763671875	upper	../fonts/amplitud.ttf
2653245	START	n/a	LTP073	ltpFR	8	n/a	n/a	n/a	n/a	n/a	n/a	n/a	n/a	n/a	n/a	n/a	n/a	n/a	n/a	n/a
2654111	PROB	n/a	LTP073	ltpFR	8	n/a	n/a	n/a	n/a	n/a	n/a	22	5	8	9	n/a	n/a	n/a	n/a	n/a
2657103	PROB	n/a	LTP073	ltpFR	8	n/a	n/a	n/a	n/a	n/a	n/a	12	1	9	2	n/a	n/a	n/a	n/a	n/a
2658337	PROB	n/a	LTP073	ltpFR	8	n/a	n/a	n/a	n/a	n/a	n/a	9	2	2	5	n/a	n/a	n/a	n/a	n/a
2661177	PROB	n/a	LTP073	ltpFR	8	n/a	n/a	n/a	n/a	n/a	n/a	14	7	3	4	n/a	n/a	n/a	n/a	n/a
2662486	PROB	n/a	LTP073	ltpFR	8	n/a	n/a	n/a	n/a	n/a	n/a	9	3	3	3	n/a	n/a	n/a	n/a	n/a
2664345	PROB	n/a	LTP073	ltpFR	8	n/a	n/a	n/a	n/a	n/a	n/a	13	1	7	5	n/a	n/a	n/a	n/a	n/a
2666268	PROB	n/a	LTP073	ltpFR	8	n/a	n/a	n/a	n/a	n/a	n/a	18	7	5	6	n/a	n/a	n/a	n/a	n/a
2668315	STOP	n/a	LTP073	ltpFR	8	n/a	n/a	n/a	n/a	n/a	n/a	n/a	n/a	n/a	n/a	n/a	n/a	n/a	n/a	n/a
2670152	WORD	wordpools/wasnorm_wordpool.txt	LTP073	ltpFR	8	12	1	PEACH	1031	n/a	0	n/a	0	0	0	0	0.5869140625	0.422607421875	lower	../fonts/zerothre.ttf
2673160	START	n/a	LTP073	ltpFR	8	n/a	n/a	n/a	n/a	n/a	n/a	n/a	n/a	n/a	n/a	n/a	n/a	n/a	n/a	n/a
2674185	PROB	n/a	LTP073	ltpFR	8	n/a	n/a	n/a	n/a	n/a	n/a	10	2	4	4	n/a	n/a	n/a	n/a	n/a
2676159	PROB	n/a	LTP073	ltpFR	8	n/a	n/a	n/a	n/a	n/a	n/a	22	9	8	5	n/a	n/a	n/a	n/a	n/a
2677719	PROB	n/a	LTP073	ltpFR	8	n/a	n/a	n/a	n/a	n/a	n/a	17	7	7	5	n/a	n/a	n/a	n/a	n/a
2679934	PROB	n/a	LTP073	ltpFR	8	n/a	n/a	n/a	n/a	n/a	n/a	12	8	1	3	n/a	n/a	n/a	n/a	n/a
2682460	PROB	n/a	LTP073	ltpFR	8	n/a	n/a	n/a	n/a	n/a	n/a	17	8	4	5	n/a	n/a	n/a	n/a	n/a
2684510	PROB	n/a	LTP073	ltpFR	8	n/a	n/a	n/a	n/a	n/a	n/a	10	1	7	2	n/a	n/a	n/a	n/a	n/a
2686067	PROB	n/a	LTP073	ltpFR	8	n/a	n/a	n/a	n/a	n/a	n/a	13	4	2	7	n/a	n/a	n/a	n/a	n/a
2688378	STOP	n/a	LTP073	ltpFR	8	n/a	n/a	n/a	n/a	n/a	n/a	n/a	n/a	n/a	n/a	n/a	n/a	n/a	n/a	n/a
2690067	WORD	wordpools/wasnorm_wordpool.txt	LTP073	ltpFR	8	12	1	BARLEY	88	n/a	0	n/a	0	0	0	0	0.5869140625	0.422607421875	lower	../fonts/zerothre.ttf
2693075	START	n/a	LTP073	ltpFR	8	n/a	n/a	n/a	n/a	n/a	n/a	n/a	n/a	n/a	n/a	n/a	n/a	n/a	n/a	n/a
2694041	PROB	n/a	LTP073	ltpFR	8	n/a	n/a	n/a	n/a	n/a	n/a	19	8	4	7	n/a	n/a	n/a	n/a	n/a
2696033	PROB	n/a	LTP073	ltpFR	8	n/a	n/a	n/a	n/a	n/a	n/a	10	5	2	3	n/a	n/a	n/a	n/a	n/a
2698799	PROB	n/a	LTP073	ltpFR	8	n/a	n/a	n/a	n/a	n/a	n/a	18	7	2	9	n/a	n/a	n/a	n/a	n/a
2700916	PROB	n/a	LTP073	ltpFR	8	n/a	n/a	n/a	n/a	n/a	n/a	13	3	7	3	n/a	n/a	n/a	n/a	n/a
2702533	PROB	n/a	LTP073	ltpFR	8	n/a	n/a	n/a	n/a	n/a	n/a	20	9	5	6	n/a	n/a	n/a	n/a	n/a
2704467	PROB	n/a	LTP073	ltpFR	8	n/a	n/a	n/a	n/a	n/a	n/a	13	1	9	3	n/a	n/a	n/a	n/a	n/a
2706099	PROB	n/a	LTP073	ltpFR	8	n/a	n/a	n/a	n/a	n/a	n/a	18	6	7	5	n/a	n/a	n/a	n/a	n/a
2707905	STOP	n/a	LTP073	ltpFR	8	n/a	n/a	n/a	n/a	n/a	n/a	n/a	n/a	n/a	n/a	n/a	n/a	n/a	n/a	n/a
2709899	WORD	wordpools/wasnorm_wordpool.txt	LTP073	ltpFR	8	12	1	FARMER	553	n/a	1	n/a	0	0	0	0	0.5869140625	0.422607421875	lower	../fonts/zerothre.ttf
2712907	START	n/a	LTP073	ltpFR	8	n/a	n/a	n/a	n/a	n/a	n/a	n/a	n/a	n/a	n/a	n/a	n/a	n/a	n/a	n/a
2714107	PROB	n/a	LTP073	ltpFR	8	n/a	n/a	n/a	n/a	n/a	n/a	11	3	5	3	n/a	n/a	n/a	n/a	n/a
2715907	PROB	n/a	LTP073	ltpFR	8	n/a	n/a	n/a	n/a	n/a	n/a	19	9	8	2	n/a	n/a	n/a	n/a	n/a
2717591	PROB	n/a	LTP073	ltpFR	8	n/a	n/a	n/a	n/a	n/a	n/a	20	6	6	8	n/a	n/a	n/a	n/a	n/a
2719965	PROB	n/a	LTP073	ltpFR	8	n/a	n/a	n/a	n/a	n/a	n/a	15	7	6	2	n/a	n/a	n/a	n/a	n/a
2721273	PROB	n/a	LTP073	ltpFR	8	n/a	n/a	n/a	n/a	n/a	n/a	17	6	5	6	n/a	n/a	n/a	n/a	n/a
2722998	PROB	n/a	LTP073	ltpFR	8	n/a	n/a	n/a	n/a	n/a	n/a	14	2	5	7	n/a	n/a	n/a	n/a	n/a
2725098	PROB	n/a	LTP073	ltpFR	8	n/a	n/a	n/a	n/a	n/a	n/a	14	1	9	4	n/a	n/a	n/a	n/a	n/a
2726332	PROB	n/a	LTP073	ltpFR	8	n/a	n/a	n/a	n/a	n/a	n/a	13	2	5	6	n/a	n/a	n/a	n/a	n/a
2728426	STOP	n/a	LTP073	ltpFR	8	n/a	n/a	n/a	n/a	n/a	n/a	n/a	n/a	n/a	n/a	n/a	n/a	n/a	n/a	n/a
2729997	WORD	wordpools/wasnorm_wordpool.txt	LTP073	ltpFR	8	12	0	THIGH	1457	n/a	1	n/a	0	0	0	1	0.412841796875	0.57763671875	upper	../fonts/amplitud.ttf
2733006	START	n/a	LTP073	ltpFR	8	n/a	n/a	n/a	n/a	n/a	n/a	n/a	n/a	n/a	n/a	n/a	n/a	n/a	n/a	n/a
2733938	PROB	n/a	LTP073	ltpFR	8	n/a	n/a	n/a	n/a	n/a	n/a	13	5	3	5	n/a	n/a	n/a	n/a	n/a
2735489	PROB	n/a	LTP073	ltpFR	8	n/a	n/a	n/a	n/a	n/a	n/a	10	1	6	3	n/a	n/a	n/a	n/a	n/a
2737147	PROB	n/a	LTP073	ltpFR	8	n/a	n/a	n/a	n/a	n/a	n/a	12	4	5	3	n/a	n/a	n/a	n/a	n/a
2738564	PROB	n/a	LTP073	ltpFR	8	n/a	n/a	n/a	n/a	n/a	n/a	22	8	9	5	n/a	n/a	n/a	n/a	n/a
2740088	PROB	n/a	LTP073	ltpFR	8	n/a	n/a	n/a	n/a	n/a	n/a	21	8	4	9	n/a	n/a	n/a	n/a	n/a
2742689	PROB	n/a	LTP073	ltpFR	8	n/a	n/a	n/a	n/a	n/a	n/a	9	1	7	1	n/a	n/a	n/a	n/a	n/a
2744004	PROB	n/a	LTP073	ltpFR	8	n/a	n/a	n/a	n/a	n/a	n/a	10	3	5	1	n/a	n/a	n/a	n/a	n/a
2745572	PROB	n/a	LTP073	ltpFR	8	n/a	n/a	n/a	n/a	n/a	n/a	12	4	3	5	n/a	n/a	n/a	n/a	n/a
2747945	STOP	n/a	LTP073	ltpFR	8	n/a	n/a	n/a	n/a	n/a	n/a	n/a	n/a	n/a	n/a	n/a	n/a	n/a	n/a	n/a
2749871	WORD	wordpools/wasnorm_wordpool.txt	LTP073	ltpFR	8	12	0	RUM	1217	n/a	0	n/a	0	0	0	1	0.412841796875	0.57763671875	upper	../fonts/amplitud.ttf
2752879	START	n/a	LTP073	ltpFR	8	n/a	n/a	n/a	n/a	n/a	n/a	n/a	n/a	n/a	n/a	n/a	n/a	n/a	n/a	n/a
2753945	PROB	n/a	LTP073	ltpFR	8	n/a	n/a	n/a	n/a	n/a	n/a	20	7	4	9	n/a	n/a	n/a	n/a	n/a
2756004	PROB	n/a	LTP073	ltpFR	8	n/a	n/a	n/a	n/a	n/a	n/a	14	1	6	7	n/a	n/a	n/a	n/a	n/a
2757446	PROB	n/a	LTP073	ltpFR	8	n/a	n/a	n/a	n/a	n/a	n/a	14	8	5	1	n/a	n/a	n/a	n/a	n/a
2758962	PROB	n/a	LTP073	ltpFR	8	n/a	n/a	n/a	n/a	n/a	n/a	16	9	1	6	n/a	n/a	n/a	n/a	n/a
2760521	PROB	n/a	LTP073	ltpFR	8	n/a	n/a	n/a	n/a	n/a	n/a	19	7	8	4	n/a	n/a	n/a	n/a	n/a
2763020	PROB	n/a	LTP073	ltpFR	8	n/a	n/a	n/a	n/a	n/a	n/a	14	1	5	8	n/a	n/a	n/a	n/a	n/a
2764646	PROB	n/a	LTP073	ltpFR	8	n/a	n/a	n/a	n/a	n/a	n/a	21	9	4	8	n/a	n/a	n/a	n/a	n/a
2766236	PROB	n/a	LTP073	ltpFR	8	n/a	n/a	n/a	n/a	n/a	n/a	9	2	3	4	n/a	n/a	n/a	n/a	n/a
2768289	STOP	n/a	LTP073	ltpFR	8	n/a	n/a	n/a	n/a	n/a	n/a	n/a	n/a	n/a	n/a	n/a	n/a	n/a	n/a	n/a
2769978	WORD	wordpools/wasnorm_wordpool.txt	LTP073	ltpFR	8	12	0	WINE	1613	n/a	0	n/a	0	0	0	1	0.412841796875	0.57763671875	upper	../fonts/amplitud.ttf
2772986	START	n/a	LTP073	ltpFR	8	n/a	n/a	n/a	n/a	n/a	n/a	n/a	n/a	n/a	n/a	n/a	n/a	n/a	n/a	n/a
2773869	PROB	n/a	LTP073	ltpFR	8	n/a	n/a	n/a	n/a	n/a	n/a	15	2	5	8	n/a	n/a	n/a	n/a	n/a
2775894	PROB	n/a	LTP073	ltpFR	8	n/a	n/a	n/a	n/a	n/a	n/a	20	9	8	3	n/a	n/a	n/a	n/a	n/a
2777794	PROB	n/a	LTP073	ltpFR	8	n/a	n/a	n/a	n/a	n/a	n/a	18	5	6	7	n/a	n/a	n/a	n/a	n/a
2779311	PROB	n/a	LTP073	ltpFR	8	n/a	n/a	n/a	n/a	n/a	n/a	18	2	8	8	n/a	n/a	n/a	n/a	n/a
2780852	PROB	n/a	LTP073	ltpFR	8	n/a	n/a	n/a	n/a	n/a	n/a	21	6	9	6	n/a	n/a	n/a	n/a	n/a
2782444	PROB	n/a	LTP073	ltpFR	8	n/a	n/a	n/a	n/a	n/a	n/a	11	6	3	2	n/a	n/a	n/a	n/a	n/a
2783968	PROB	n/a	LTP073	ltpFR	8	n/a	n/a	n/a	n/a	n/a	n/a	10	2	2	6	n/a	n/a	n/a	n/a	n/a
2786577	PROB	n/a	LTP073	ltpFR	8	n/a	n/a	n/a	n/a	n/a	n/a	11	4	5	2	n/a	n/a	n/a	n/a	n/a
2788602	STOP	n/a	LTP073	ltpFR	8	n/a	n/a	n/a	n/a	n/a	n/a	n/a	n/a	n/a	n/a	n/a	n/a	n/a	n/a	n/a
2789859	WORD	wordpools/wasnorm_wordpool.txt	LTP073	ltpFR	8	12	0	WORM	1623	n/a	0	n/a	0	0	0	1	0.412841796875	0.57763671875	upper	../fonts/amplitud.ttf
2792868	START	n/a	LTP073	ltpFR	8	n/a	n/a	n/a	n/a	n/a	n/a	n/a	n/a	n/a	n/a	n/a	n/a	n/a	n/a	n/a
2794001	PROB	n/a	LTP073	ltpFR	8	n/a	n/a	n/a	n/a	n/a	n/a	22	7	6	9	n/a	n/a	n/a	n/a	n/a
2796302	PROB	n/a	LTP073	ltpFR	8	n/a	n/a	n/a	n/a	n/a	n/a	8	2	4	2	n/a	n/a	n/a	n/a	n/a
2797477	PROB	n/a	LTP073	ltpFR	8	n/a	n/a	n/a	n/a	n/a	n/a	17	9	6	2	n/a	n/a	n/a	n/a	n/a
2799959	PROB	n/a	LTP073	ltpFR	8	n/a	n/a	n/a	n/a	n/a	n/a	13	3	2	8	n/a	n/a	n/a	n/a	n/a
2801751	PROB	n/a	LTP073	ltpFR	8	n/a	n/a	n/a	n/a	n/a	n/a	14	8	2	4	n/a	n/a	n/a	n/a	n/a
2802950	PROB	n/a	LTP073	ltpFR	8	n/a	n/a	n/a	n/a	n/a	n/a	15	2	8	5	n/a	n/a	n/a	n/a	n/a
2804108	PROB	n/a	LTP073	ltpFR	8	n/a	n/a	n/a	n/a	n/a	n/a	21	4	8	9	n/a	n/a	n/a	n/a	n/a
2808868	STOP	n/a	LTP073	ltpFR	8	n/a	n/a	n/a	n/a	n/a	n/a	n/a	n/a	n/a	n/a	n/a	n/a	n/a	n/a	n/a
2809726	WORD	wordpools/wasnorm_wordpool.txt	LTP073	ltpFR	8	12	1	CONSUMER	365	n/a	1	n/a	0	0	0	0	0.5869140625	0.422607421875	lower	../fonts/zerothre.ttf
2812734	START	n/a	LTP073	ltpFR	8	n/a	n/a	n/a	n/a	n/a	n/a	n/a	n/a	n/a	n/a	n/a	n/a	n/a	n/a	n/a
2813634	PROB	n/a	LTP073	ltpFR	8	n/a	n/a	n/a	n/a	n/a	n/a	14	8	4	2	n/a	n/a	n/a	n/a	n/a
2815400	PROB	n/a	LTP073	ltpFR	8	n/a	n/a	n/a	n/a	n/a	n/a	16	2	5	9	n/a	n/a	n/a	n/a	n/a
2817417	PROB	n/a	LTP073	ltpFR	8	n/a	n/a	n/a	n/a	n/a	n/a	17	8	6	3	n/a	n/a	n/a	n/a	n/a
2820383	PROB	n/a	LTP073	ltpFR	8	n/a	n/a	n/a	n/a	n/a	n/a	12	3	2	7	n/a	n/a	n/a	n/a	n/a
2821990	PROB	n/a	LTP073	ltpFR	8	n/a	n/a	n/a	n/a	n/a	n/a	12	2	9	1	n/a	n/a	n/a	n/a	n/a
2823949	PROB	n/a	LTP073	ltpFR	8	n/a	n/a	n/a	n/a	n/a	n/a	16	9	1	6	n/a	n/a	n/a	n/a	n/a
2825558	PROB	n/a	LTP073	ltpFR	8	n/a	n/a	n/a	n/a	n/a	n/a	18	6	9	3	n/a	n/a	n/a	n/a	n/a
2827378	STOP	n/a	LTP073	ltpFR	8	n/a	n/a	n/a	n/a	n/a	n/a	n/a	n/a	n/a	n/a	n/a	n/a	n/a	n/a	n/a
2829683	WORD	wordpools/wasnorm_wordpool.txt	LTP073	ltpFR	8	12	1	SHERIFF	1284	n/a	1	n/a	0	0	0	0	0.5869140625	0.422607421875	lower	../fonts/zerothre.ttf
2832691	START	n/a	LTP073	ltpFR	8	n/a	n/a	n/a	n/a	n/a	n/a	n/a	n/a	n/a	n/a	n/a	n/a	n/a	n/a	n/a
2833507	PROB	n/a	LTP073	ltpFR	8	n/a	n/a	n/a	n/a	n/a	n/a	18	9	8	1	n/a	n/a	n/a	n/a	n/a
2835649	PROB	n/a	LTP073	ltpFR	8	n/a	n/a	n/a	n/a	n/a	n/a	17	8	5	4	n/a	n/a	n/a	n/a	n/a
2838181	PROB	n/a	LTP073	ltpFR	8	n/a	n/a	n/a	n/a	n/a	n/a	7	5	1	1	n/a	n/a	n/a	n/a	n/a
2839473	PROB	n/a	LTP073	ltpFR	8	n/a	n/a	n/a	n/a	n/a	n/a	13	2	9	2	n/a	n/a	n/a	n/a	n/a
2841206	PROB	n/a	LTP073	ltpFR	8	n/a	n/a	n/a	n/a	n/a	n/a	16	6	6	4	n/a	n/a	n/a	n/a	n/a
2843114	PROB	n/a	LTP073	ltpFR	8	n/a	n/a	n/a	n/a	n/a	n/a	16	5	4	7	n/a	n/a	n/a	n/a	n/a
2844631	PROB	n/a	LTP073	ltpFR	8	n/a	n/a	n/a	n/a	n/a	n/a	9	5	2	2	n/a	n/a	n/a	n/a	n/a
2846272	PROB	n/a	LTP073	ltpFR	8	n/a	n/a	n/a	n/a	n/a	n/a	13	7	3	3	n/a	n/a	n/a	n/a	n/a
2847522	STOP	n/a	LTP073	ltpFR	8	n/a	n/a	n/a	n/a	n/a	n/a	n/a	n/a	n/a	n/a	n/a	n/a	n/a	n/a	n/a
2849681	WORD	wordpools/wasnorm_wordpool.txt	LTP073	ltpFR	8	12	1	BOOK	149	n/a	0	n/a	0	0	0	0	0.5869140625	0.422607421875	lower	../fonts/zerothre.ttf
2852689	START	n/a	LTP073	ltpFR	8	n/a	n/a	n/a	n/a	n/a	n/a	n/a	n/a	n/a	n/a	n/a	n/a	n/a	n/a	n/a
2853597	PROB	n/a	LTP073	ltpFR	8	n/a	n/a	n/a	n/a	n/a	n/a	16	2	8	6	n/a	n/a	n/a	n/a	n/a
2855246	PROB	n/a	LTP073	ltpFR	8	n/a	n/a	n/a	n/a	n/a	n/a	18	9	1	8	n/a	n/a	n/a	n/a	n/a
2856631	PROB	n/a	LTP073	ltpFR	8	n/a	n/a	n/a	n/a	n/a	n/a	10	5	4	1	n/a	n/a	n/a	n/a	n/a
2859630	PROB	n/a	LTP073	ltpFR	8	n/a	n/a	n/a	n/a	n/a	n/a	15	7	3	5	n/a	n/a	n/a	n/a	n/a
2860789	PROB	n/a	LTP073	ltpFR	8	n/a	n/a	n/a	n/a	n/a	n/a	14	6	4	4	n/a	n/a	n/a	n/a	n/a
2861979	PROB	n/a	LTP073	ltpFR	8	n/a	n/a	n/a	n/a	n/a	n/a	14	2	4	8	n/a	n/a	n/a	n/a	n/a
2863912	PROB	n/a	LTP073	ltpFR	8	n/a	n/a	n/a	n/a	n/a	n/a	7	1	2	4	n/a	n/a	n/a	n/a	n/a
2866388	PROB	n/a	LTP073	ltpFR	8	n/a	n/a	n/a	n/a	n/a	n/a	9	2	2	5	n/a	n/a	n/a	n/a	n/a
2867650	STOP	n/a	LTP073	ltpFR	8	n/a	n/a	n/a	n/a	n/a	n/a	n/a	n/a	n/a	n/a	n/a	n/a	n/a	n/a	n/a
2870488	REC_START	n/a	LTP073	ltpFR	8	12	n/a	n/a	n/a	n/a	n/a	n/a	0	0	0	n/a	n/a	n/a	n/a	n/a
2871789	REC_WORD	wordpools/wasnorm_wordpool.txt	LTP073	ltpFR	8	12	1	SHERIFF	1284	n/a	1	n/a	0	0	0	n/a	n/a	n/a	n/a	n/a
2872572	REC_WORD	wordpools/wasnorm_wordpool.txt	LTP073	ltpFR	8	12	1	CONSUMER	365	n/a	1	n/a	0	0	0	n/a	n/a	n/a	n/a	n/a
2873743	REC_WORD	wordpools/wasnorm_wordpool.txt	LTP073	ltpFR	8	12	1	BARLEY	88	n/a	0	n/a	0	0	0	n/a	n/a	n/a	n/a	n/a
2874352	REC_WORD	wordpools/wasnorm_wordpool.txt	LTP073	ltpFR	8	12	0	WINE	1613	n/a	0	n/a	0	0	0	n/a	n/a	n/a	n/a	n/a
2874877	REC_WORD	wordpools/wasnorm_wordpool.txt	LTP073	ltpFR	8	12	0	RUM	1217	n/a	0	n/a	0	0	0	n/a	n/a	n/a	n/a	n/a
2895285	REC_WORD_VV	wordpools/wasnorm_wordpool.txt	LTP073	ltpFR	8	12	n/a	<>	-1	n/a	n/a	n/a	0	0	0	n/a	n/a	n/a	n/a	n/a
2896285	REC_WORD_VV	wordpools/wasnorm_wordpool.txt	LTP073	ltpFR	8	12	n/a	<>	-1	n/a	n/a	n/a	0	0	0	n/a	n/a	n/a	n/a	n/a
2911956	REC_WORD	wordpools/wasnorm_wordpool.txt	LTP073	ltpFR	8	12	0	TOILET	1475	n/a	0	n/a	0	0	0	n/a	n/a	n/a	n/a	n/a
2912636	REC_WORD	wordpools/wasnorm_wordpool.txt	LTP073	ltpFR	8	12	0	BATHROOM	99	n/a	1	n/a	0	0	0	n/a	n/a	n/a	n/a	n/a
2913510	REC_WORD	wordpools/wasnorm_wordpool.txt	LTP073	ltpFR	8	12	0	PRUNE	1134	n/a	0	n/a	0	0	0	n/a	n/a	n/a	n/a	n/a
2946123	REST_REWET	n/a	LTP073	ltpFR	8	12	n/a	n/a	n/a	n/a	n/a	n/a	0	0	0	n/a	n/a	n/a	n/a	n/a
3376842	REC_START	n/a	LTP073	ltpFR	8	1	n/a	n/a	n/a	n/a	n/a	n/a	0	0	0	n/a	n/a	n/a	n/a	n/a
