onset	duration	trial_type	sample	stim_file	subject	experiment	session	trial	item_name	item_num	list	answer	test_x	test_y	test_z
218.51220703125	n/a	SESS_START	447513	n/a	LTP389	ltpFR2	3	n/a	n/a	n/a	n/a	n/a	0	0	0
232.98095703125	n/a	START	477145	n/a	LTP389	ltpFR2	3	n/a	n/a	n/a	-1	n/a	n/a	n/a	n/a
233.0107421875	n/a	PROB	477206	n/a	LTP389	ltpFR2	3	n/a	n/a	n/a	-1	18	3	7	8
236.36083984375	n/a	PROB	484067	n/a	LTP389	ltpFR2	3	n/a	n/a	n/a	-1	14	3	3	8
239.6279296875	n/a	PROB	490758	n/a	LTP389	ltpFR2	3	n/a	n/a	n/a	-1	17	6	8	3
242.62744140625	n/a	PROB	496901	n/a	LTP389	ltpFR2	3	n/a	n/a	n/a	-1	21	7	7	7
243.90576171875	n/a	STOP	499519	n/a	LTP389	ltpFR2	3	n/a	n/a	n/a	-1	n/a	n/a	n/a	n/a
283.92529296875	n/a	WORD	581479	wordpools/wasnorm_wordpool_576.txt	LTP389	ltpFR2	3	1	POPCORN	1104	n/a	n/a	0	0	0
286.625	n/a	WORD	587008	wordpools/wasnorm_wordpool_576.txt	LTP389	ltpFR2	3	1	SHORTS	1293	n/a	n/a	0	0	0
289.14208984375	n/a	WORD	592163	wordpools/wasnorm_wordpool_576.txt	LTP389	ltpFR2	3	1	CLOTHES	327	n/a	n/a	0	0	0
291.89208984375	n/a	WORD	597795	wordpools/wasnorm_wordpool_576.txt	LTP389	ltpFR2	3	1	SUSPECT	1415	n/a	n/a	0	0	0
294.3251953125	n/a	WORD	602778	wordpools/wasnorm_wordpool_576.txt	LTP389	ltpFR2	3	1	MASK	876	n/a	n/a	0	0	0
296.97509765625	n/a	WORD	608205	wordpools/wasnorm_wordpool_576.txt	LTP389	ltpFR2	3	1	SCOTCH	1251	n/a	n/a	0	0	0
299.69189453125	n/a	WORD	613769	wordpools/wasnorm_wordpool_576.txt	LTP389	ltpFR2	3	1	DRINK	498	n/a	n/a	0	0	0
302.35888671875	n/a	WORD	619231	wordpools/wasnorm_wordpool_576.txt	LTP389	ltpFR2	3	1	KLEENEX	782	n/a	n/a	0	0	0
305.15771484375	n/a	WORD	624963	wordpools/wasnorm_wordpool_576.txt	LTP389	ltpFR2	3	1	NOVEL	960	n/a	n/a	0	0	0
307.974609375	n/a	WORD	630732	wordpools/wasnorm_wordpool_576.txt	LTP389	ltpFR2	3	1	POET	1095	n/a	n/a	0	0	0
310.7744140625	n/a	WORD	636466	wordpools/wasnorm_wordpool_576.txt	LTP389	ltpFR2	3	1	SPOOL	1356	n/a	n/a	0	0	0
313.44140625	n/a	WORD	641928	wordpools/wasnorm_wordpool_576.txt	LTP389	ltpFR2	3	1	MISSILE	900	n/a	n/a	0	0	0
315.92431640625	n/a	WORD	647013	wordpools/wasnorm_wordpool_576.txt	LTP389	ltpFR2	3	1	THRONE	1461	n/a	n/a	0	0	0
318.67431640625	n/a	WORD	652645	wordpools/wasnorm_wordpool_576.txt	LTP389	ltpFR2	3	1	EUROPE	541	n/a	n/a	0	0	0
321.30712890625	n/a	WORD	658037	wordpools/wasnorm_wordpool_576.txt	LTP389	ltpFR2	3	1	STOMACH	1384	n/a	n/a	0	0	0
324.07421875	n/a	WORD	663704	wordpools/wasnorm_wordpool_576.txt	LTP389	ltpFR2	3	1	PICTURE	1061	n/a	n/a	0	0	0
326.57275390625	n/a	WORD	668821	wordpools/wasnorm_wordpool_576.txt	LTP389	ltpFR2	3	1	CHURCH	307	n/a	n/a	0	0	0
329.306640625	n/a	WORD	674420	wordpools/wasnorm_wordpool_576.txt	LTP389	ltpFR2	3	1	ANKLE	24	n/a	n/a	0	0	0
331.98974609375	n/a	WORD	679915	wordpools/wasnorm_wordpool_576.txt	LTP389	ltpFR2	3	1	TRUCK	1512	n/a	n/a	0	0	0
334.7568359375	n/a	WORD	685582	wordpools/wasnorm_wordpool_576.txt	LTP389	ltpFR2	3	1	ROCKET	1202	n/a	n/a	0	0	0
337.28955078125	n/a	WORD	690769	wordpools/wasnorm_wordpool_576.txt	LTP389	ltpFR2	3	1	NIGHTGOWN	953	n/a	n/a	0	0	0
339.8896484375	n/a	WORD	696094	wordpools/wasnorm_wordpool_576.txt	LTP389	ltpFR2	3	1	GALLON	618	n/a	n/a	0	0	0
342.70654296875	n/a	WORD	701863	wordpools/wasnorm_wordpool_576.txt	LTP389	ltpFR2	3	1	ULCER	1533	n/a	n/a	0	0	0
345.3564453125	n/a	WORD	707290	wordpools/wasnorm_wordpool_576.txt	LTP389	ltpFR2	3	1	CHAUFFEUR	283	n/a	n/a	0	0	0
346.97314453125	n/a	START	710601	n/a	LTP389	ltpFR2	3	n/a	n/a	n/a	1	n/a	n/a	n/a	n/a
347.79736328125	n/a	DISTRACTOR	712289	n/a	LTP389	ltpFR2	3	1	n/a	n/a	n/a	n/a	0	0	0
347.80615234375	n/a	PROB	712307	n/a	LTP389	ltpFR2	3	n/a	n/a	n/a	1	20	9	2	9
349.50634765625	n/a	PROB	715789	n/a	LTP389	ltpFR2	3	n/a	n/a	n/a	1	19	9	2	8
351.6220703125	n/a	PROB	720122	n/a	LTP389	ltpFR2	3	n/a	n/a	n/a	1	21	4	9	8
353.9560546875	n/a	PROB	724902	n/a	LTP389	ltpFR2	3	n/a	n/a	n/a	1	10	2	4	4
355.35595703125	n/a	PROB	727769	n/a	LTP389	ltpFR2	3	n/a	n/a	n/a	1	17	9	3	5
357.93896484375	n/a	PROB	733059	n/a	LTP389	ltpFR2	3	n/a	n/a	n/a	1	15	7	1	7
359.2216796875	n/a	PROB	735686	n/a	LTP389	ltpFR2	3	n/a	n/a	n/a	1	12	6	4	2
360.587890625	n/a	PROB	738484	n/a	LTP389	ltpFR2	3	n/a	n/a	n/a	1	9	4	4	1
361.888671875	n/a	PROB	741148	n/a	LTP389	ltpFR2	3	n/a	n/a	n/a	1	7	3	2	2
363.53857421875	n/a	PROB	744527	n/a	LTP389	ltpFR2	3	n/a	n/a	n/a	1	13	1	6	6
365.15576171875	n/a	PROB	747839	n/a	LTP389	ltpFR2	3	n/a	n/a	n/a	1	19	8	9	2
367.35546875	n/a	PROB	752344	n/a	LTP389	ltpFR2	3	n/a	n/a	n/a	1	21	7	9	5
369.6005859375	n/a	STOP	756942	n/a	LTP389	ltpFR2	3	n/a	n/a	n/a	1	n/a	n/a	n/a	n/a
372.87255859375	n/a	REC_START	763643	n/a	LTP389	ltpFR2	3	1	n/a	n/a	n/a	n/a	0	0	0
373.68359375	n/a	REC_WORD	765304	wordpools/wasnorm_wordpool_576.txt	LTP389	ltpFR2	3	1	POPCORN	1104	n/a	n/a	0	0	0
374.50634765625	n/a	REC_WORD	766989	wordpools/wasnorm_wordpool_576.txt	LTP389	ltpFR2	3	1	SHORTS	1293	n/a	n/a	0	0	0
376.0263671875	n/a	REC_WORD	770102	wordpools/wasnorm_wordpool_576.txt	LTP389	ltpFR2	3	1	CLOTHES	327	n/a	n/a	0	0	0
377.26416015625	n/a	REC_WORD	772637	wordpools/wasnorm_wordpool_576.txt	LTP389	ltpFR2	3	1	GALLON	618	n/a	n/a	0	0	0
378.71923828125	n/a	REC_WORD	775617	wordpools/wasnorm_wordpool_576.txt	LTP389	ltpFR2	3	1	CHAUFFEUR	283	n/a	n/a	0	0	0
380.078125	n/a	REC_WORD	778400	wordpools/wasnorm_wordpool_576.txt	LTP389	ltpFR2	3	1	SCOTCH	1251	n/a	n/a	0	0	0
382.18017578125	n/a	REC_WORD	782705	wordpools/wasnorm_wordpool_576.txt	LTP389	ltpFR2	3	1	DRINK	498	n/a	n/a	0	0	0
386.03125	n/a	REC_WORD	790592	wordpools/wasnorm_wordpool_576.txt	LTP389	ltpFR2	3	1	CHURCH	307	n/a	n/a	0	0	0
388.7197265625	n/a	REC_WORD	796098	wordpools/wasnorm_wordpool_576.txt	LTP389	ltpFR2	3	1	PICTURE	1061	n/a	n/a	0	0	0
395.7587890625	n/a	REC_WORD	810514	wordpools/wasnorm_wordpool_576.txt	LTP389	ltpFR2	3	1	MASK	876	n/a	n/a	0	0	0
409.9443359375	n/a	REC_WORD	839566	wordpools/wasnorm_wordpool_576.txt	LTP389	ltpFR2	3	1	TRUCK	1512	n/a	n/a	0	0	0
412.0810546875	n/a	REC_WORD	843942	wordpools/wasnorm_wordpool_576.txt	LTP389	ltpFR2	3	1	ROCKET	1202	n/a	n/a	0	0	0
433.013671875	n/a	REC_WORD	886812	wordpools/wasnorm_wordpool_576.txt	LTP389	ltpFR2	3	1	NOVEL	960	n/a	n/a	0	0	0
434.16162109375	n/a	REC_WORD	889163	wordpools/wasnorm_wordpool_576.txt	LTP389	ltpFR2	3	1	POET	1095	n/a	n/a	0	0	0
463.30029296875	n/a	DISTRACTOR	948839	n/a	LTP389	ltpFR2	3	2	n/a	n/a	n/a	n/a	0	0	0
463.30126953125	n/a	START	948841	n/a	LTP389	ltpFR2	3	n/a	n/a	n/a	2	n/a	n/a	n/a	n/a
463.3173828125	n/a	PROB	948874	n/a	LTP389	ltpFR2	3	n/a	n/a	n/a	2	19	5	8	6
466.017578125	n/a	PROB	954404	n/a	LTP389	ltpFR2	3	n/a	n/a	n/a	2	9	1	3	5
467.41748046875	n/a	PROB	957271	n/a	LTP389	ltpFR2	3	n/a	n/a	n/a	2	14	6	6	2
468.71728515625	n/a	PROB	959933	n/a	LTP389	ltpFR2	3	n/a	n/a	n/a	2	20	5	7	8
471.63427734375	n/a	PROB	965907	n/a	LTP389	ltpFR2	3	n/a	n/a	n/a	2	12	5	6	1
473.21728515625	n/a	PROB	969149	n/a	LTP389	ltpFR2	3	n/a	n/a	n/a	2	20	6	9	5
474.9501953125	n/a	PROB	972698	n/a	LTP389	ltpFR2	3	n/a	n/a	n/a	2	13	3	4	6
476.783203125	n/a	PROB	976452	n/a	LTP389	ltpFR2	3	n/a	n/a	n/a	2	18	9	1	8
478.10009765625	n/a	PROB	979149	n/a	LTP389	ltpFR2	3	n/a	n/a	n/a	2	8	2	4	2
479.51708984375	n/a	PROB	982051	n/a	LTP389	ltpFR2	3	n/a	n/a	n/a	2	5	1	3	1
480.59912109375	n/a	PROB	984267	n/a	LTP389	ltpFR2	3	n/a	n/a	n/a	2	22	6	7	9
483.06689453125	n/a	PROB	989321	n/a	LTP389	ltpFR2	3	n/a	n/a	n/a	2	5	2	1	2
484.28271484375	n/a	PROB	991811	n/a	LTP389	ltpFR2	3	n/a	n/a	n/a	2	14	5	6	3
485.849609375	n/a	STOP	995020	n/a	LTP389	ltpFR2	3	n/a	n/a	n/a	2	n/a	n/a	n/a	n/a
488.33251953125	n/a	WORD	1000105	wordpools/wasnorm_wordpool_576.txt	LTP389	ltpFR2	3	2	CHEST	295	n/a	n/a	0	0	0
490.91650390625	n/a	WORD	1005397	wordpools/wasnorm_wordpool_576.txt	LTP389	ltpFR2	3	2	HONEY	713	n/a	n/a	0	0	0
493.732421875	n/a	WORD	1011164	wordpools/wasnorm_wordpool_576.txt	LTP389	ltpFR2	3	2	JAPAN	749	n/a	n/a	0	0	0
496.4326171875	n/a	WORD	1016694	wordpools/wasnorm_wordpool_576.txt	LTP389	ltpFR2	3	2	SCALPEL	1243	n/a	n/a	0	0	0
498.93212890625	n/a	WORD	1021813	wordpools/wasnorm_wordpool_576.txt	LTP389	ltpFR2	3	2	NURSE	963	n/a	n/a	0	0	0
501.365234375	n/a	WORD	1026796	wordpools/wasnorm_wordpool_576.txt	LTP389	ltpFR2	3	2	DANDRUFF	439	n/a	n/a	0	0	0
503.94921875	n/a	WORD	1032088	wordpools/wasnorm_wordpool_576.txt	LTP389	ltpFR2	3	2	YARN	1631	n/a	n/a	0	0	0
506.5322265625	n/a	WORD	1037378	wordpools/wasnorm_wordpool_576.txt	LTP389	ltpFR2	3	2	PEACH	1031	n/a	n/a	0	0	0
509.298828125	n/a	WORD	1043044	wordpools/wasnorm_wordpool_576.txt	LTP389	ltpFR2	3	2	LONDON	843	n/a	n/a	0	0	0
512.03173828125	n/a	WORD	1048641	wordpools/wasnorm_wordpool_576.txt	LTP389	ltpFR2	3	2	DAUGHTER	442	n/a	n/a	0	0	0
514.7646484375	n/a	WORD	1054238	wordpools/wasnorm_wordpool_576.txt	LTP389	ltpFR2	3	2	SHOVEL	1295	n/a	n/a	0	0	0
517.431640625	n/a	WORD	1059700	wordpools/wasnorm_wordpool_576.txt	LTP389	ltpFR2	3	2	GRAVEL	659	n/a	n/a	0	0	0
519.8984375	n/a	WORD	1064752	wordpools/wasnorm_wordpool_576.txt	LTP389	ltpFR2	3	2	FOREST	593	n/a	n/a	0	0	0
522.5146484375	n/a	WORD	1070110	wordpools/wasnorm_wordpool_576.txt	LTP389	ltpFR2	3	2	VAGRANT	1544	n/a	n/a	0	0	0
525.181640625	n/a	WORD	1075572	wordpools/wasnorm_wordpool_576.txt	LTP389	ltpFR2	3	2	GIFT	635	n/a	n/a	0	0	0
527.78125	n/a	WORD	1080896	wordpools/wasnorm_wordpool_576.txt	LTP389	ltpFR2	3	2	BREAST	171	n/a	n/a	0	0	0
530.24755859375	n/a	WORD	1085947	wordpools/wasnorm_wordpool_576.txt	LTP389	ltpFR2	3	2	SURVEY	1414	n/a	n/a	0	0	0
532.9970703125	n/a	WORD	1091578	wordpools/wasnorm_wordpool_576.txt	LTP389	ltpFR2	3	2	CHEMIST	292	n/a	n/a	0	0	0
535.7470703125	n/a	WORD	1097210	wordpools/wasnorm_wordpool_576.txt	LTP389	ltpFR2	3	2	ROOSTER	1209	n/a	n/a	0	0	0
538.4140625	n/a	WORD	1102672	wordpools/wasnorm_wordpool_576.txt	LTP389	ltpFR2	3	2	SHRUB	1299	n/a	n/a	0	0	0
541.130859375	n/a	WORD	1108236	wordpools/wasnorm_wordpool_576.txt	LTP389	ltpFR2	3	2	BUGGY	188	n/a	n/a	0	0	0
543.8466796875	n/a	WORD	1113798	wordpools/wasnorm_wordpool_576.txt	LTP389	ltpFR2	3	2	OINTMENT	974	n/a	n/a	0	0	0
546.61376953125	n/a	WORD	1119465	wordpools/wasnorm_wordpool_576.txt	LTP389	ltpFR2	3	2	BLOCKADE	137	n/a	n/a	0	0	0
549.31396484375	n/a	WORD	1124995	wordpools/wasnorm_wordpool_576.txt	LTP389	ltpFR2	3	2	INFANT	737	n/a	n/a	0	0	0
550.9306640625	n/a	START	1128306	n/a	LTP389	ltpFR2	3	n/a	n/a	n/a	3	n/a	n/a	n/a	n/a
552.1083984375	n/a	DISTRACTOR	1130718	n/a	LTP389	ltpFR2	3	2	n/a	n/a	n/a	n/a	0	0	0
552.11376953125	n/a	PROB	1130729	n/a	LTP389	ltpFR2	3	n/a	n/a	n/a	3	17	5	4	8
554.86376953125	n/a	PROB	1136361	n/a	LTP389	ltpFR2	3	n/a	n/a	n/a	3	12	4	7	1
557.12939453125	n/a	PROB	1141001	n/a	LTP389	ltpFR2	3	n/a	n/a	n/a	3	5	2	1	2
558.17919921875	n/a	PROB	1143151	n/a	LTP389	ltpFR2	3	n/a	n/a	n/a	3	17	4	4	9
559.96337890625	n/a	PROB	1146805	n/a	LTP389	ltpFR2	3	n/a	n/a	n/a	3	13	8	3	2
562.1630859375	n/a	PROB	1151310	n/a	LTP389	ltpFR2	3	n/a	n/a	n/a	3	19	4	8	7
564.81298828125	n/a	PROB	1156737	n/a	LTP389	ltpFR2	3	n/a	n/a	n/a	3	23	8	6	9
568.1962890625	n/a	PROB	1163666	n/a	LTP389	ltpFR2	3	n/a	n/a	n/a	3	14	5	6	3
569.76318359375	n/a	PROB	1166875	n/a	LTP389	ltpFR2	3	n/a	n/a	n/a	3	16	5	6	5
571.44580078125	n/a	PROB	1170321	n/a	LTP389	ltpFR2	3	n/a	n/a	n/a	3	19	7	7	5
572.99609375	n/a	PROB	1173496	n/a	LTP389	ltpFR2	3	n/a	n/a	n/a	3	16	4	9	3
574.52978515625	n/a	STOP	1176637	n/a	LTP389	ltpFR2	3	n/a	n/a	n/a	3	n/a	n/a	n/a	n/a
576.77880859375	n/a	REC_START	1181243	n/a	LTP389	ltpFR2	3	2	n/a	n/a	n/a	n/a	0	0	0
579.73876953125	n/a	REC_WORD	1187305	wordpools/wasnorm_wordpool_576.txt	LTP389	ltpFR2	3	2	HONEY	713	n/a	n/a	0	0	0
580.5869140625	n/a	REC_WORD	1189042	wordpools/wasnorm_wordpool_576.txt	LTP389	ltpFR2	3	2	PEACH	1031	n/a	n/a	0	0	0
581.396484375	n/a	REC_WORD	1190700	wordpools/wasnorm_wordpool_576.txt	LTP389	ltpFR2	3	2	CHEST	295	n/a	n/a	0	0	0
582.3388671875	n/a	REC_WORD	1192630	wordpools/wasnorm_wordpool_576.txt	LTP389	ltpFR2	3	2	BREAST	171	n/a	n/a	0	0	0
583.12060546875	n/a	REC_WORD	1194231	wordpools/wasnorm_wordpool_576.txt	LTP389	ltpFR2	3	2	JAPAN	749	n/a	n/a	0	0	0
584.25048828125	n/a	REC_WORD	1196545	wordpools/wasnorm_wordpool_576.txt	LTP389	ltpFR2	3	2	LONDON	843	n/a	n/a	0	0	0
587.31640625	n/a	REC_WORD	1202824	wordpools/wasnorm_wordpool_576.txt	LTP389	ltpFR2	3	2	ROOSTER	1209	n/a	n/a	0	0	0
589.46826171875	n/a	REC_WORD	1207231	wordpools/wasnorm_wordpool_576.txt	LTP389	ltpFR2	3	2	OINTMENT	974	n/a	n/a	0	0	0
594.984375	n/a	REC_WORD	1218528	wordpools/wasnorm_wordpool_576.txt	LTP389	ltpFR2	3	2	NURSE	963	n/a	n/a	0	0	0
600.60400390625	n/a	REC_WORD	1230037	wordpools/wasnorm_wordpool_576.txt	LTP389	ltpFR2	3	2	SCALPEL	1243	n/a	n/a	0	0	0
620.45263671875	n/a	REC_WORD	1270687	wordpools/wasnorm_wordpool_576.txt	LTP389	ltpFR2	3	2	BLOCKADE	137	n/a	n/a	0	0	0
627.0322265625	n/a	REC_WORD	1284162	wordpools/wasnorm_wordpool_576.txt	LTP389	ltpFR2	3	2	GRAVEL	659	n/a	n/a	0	0	0
630.7822265625	n/a	REC_WORD	1291842	wordpools/wasnorm_wordpool_576.txt	LTP389	ltpFR2	3	2	DIG	-1	n/a	n/a	0	0	0
641.626953125	n/a	REC_WORD	1314052	wordpools/wasnorm_wordpool_576.txt	LTP389	ltpFR2	3	2	SHOVEL	1295	n/a	n/a	0	0	0
651.52734375	n/a	REC_WORD_VV	1334328	wordpools/wasnorm_wordpool_576.txt	LTP389	ltpFR2	3	2	<>	-1	n/a	n/a	0	0	0
667.2080078125	n/a	DISTRACTOR	1366442	n/a	LTP389	ltpFR2	3	3	n/a	n/a	n/a	n/a	0	0	0
667.2080078125	n/a	START	1366442	n/a	LTP389	ltpFR2	3	n/a	n/a	n/a	4	n/a	n/a	n/a	n/a
667.22509765625	n/a	PROB	1366477	n/a	LTP389	ltpFR2	3	n/a	n/a	n/a	4	20	6	7	7
669.4580078125	n/a	PROB	1371050	n/a	LTP389	ltpFR2	3	n/a	n/a	n/a	4	12	2	5	5
670.6748046875	n/a	PROB	1373542	n/a	LTP389	ltpFR2	3	n/a	n/a	n/a	4	25	9	8	8
674.2578125	n/a	PROB	1380880	n/a	LTP389	ltpFR2	3	n/a	n/a	n/a	4	21	9	5	7
677.4248046875	n/a	PROB	1387366	n/a	LTP389	ltpFR2	3	n/a	n/a	n/a	4	22	9	6	7
681.67431640625	n/a	PROB	1396069	n/a	LTP389	ltpFR2	3	n/a	n/a	n/a	4	6	1	3	2
683.25732421875	n/a	PROB	1399311	n/a	LTP389	ltpFR2	3	n/a	n/a	n/a	4	23	7	7	9
685.47412109375	n/a	PROB	1403851	n/a	LTP389	ltpFR2	3	n/a	n/a	n/a	4	12	2	1	9
687.92431640625	n/a	PROB	1408869	n/a	LTP389	ltpFR2	3	n/a	n/a	n/a	4	19	1	9	9
691.20703125	n/a	STOP	1415592	n/a	LTP389	ltpFR2	3	n/a	n/a	n/a	4	n/a	n/a	n/a	n/a
692.09033203125	n/a	WORD	1417401	wordpools/wasnorm_wordpool_576.txt	LTP389	ltpFR2	3	3	SPOON	1357	n/a	n/a	0	0	0
694.83984375	n/a	WORD	1423032	wordpools/wasnorm_wordpool_576.txt	LTP389	ltpFR2	3	3	KNIFE	785	n/a	n/a	0	0	0
697.30712890625	n/a	WORD	1428085	wordpools/wasnorm_wordpool_576.txt	LTP389	ltpFR2	3	3	PUPIL	1143	n/a	n/a	0	0	0
699.8896484375	n/a	WORD	1433374	wordpools/wasnorm_wordpool_576.txt	LTP389	ltpFR2	3	3	LODGE	839	n/a	n/a	0	0	0
702.4228515625	n/a	WORD	1438562	wordpools/wasnorm_wordpool_576.txt	LTP389	ltpFR2	3	3	DONKEY	484	n/a	n/a	0	0	0
704.95654296875	n/a	WORD	1443751	wordpools/wasnorm_wordpool_576.txt	LTP389	ltpFR2	3	3	EYELASH	546	n/a	n/a	0	0	0
707.70654296875	n/a	WORD	1449383	wordpools/wasnorm_wordpool_576.txt	LTP389	ltpFR2	3	3	FRECKLE	602	n/a	n/a	0	0	0
710.40673828125	n/a	WORD	1454913	wordpools/wasnorm_wordpool_576.txt	LTP389	ltpFR2	3	3	LAVA	804	n/a	n/a	0	0	0
713.08935546875	n/a	WORD	1460407	wordpools/wasnorm_wordpool_576.txt	LTP389	ltpFR2	3	3	STONE	1385	n/a	n/a	0	0	0
715.8564453125	n/a	WORD	1466074	wordpools/wasnorm_wordpool_576.txt	LTP389	ltpFR2	3	3	VALVE	1546	n/a	n/a	0	0	0
718.6064453125	n/a	WORD	1471706	wordpools/wasnorm_wordpool_576.txt	LTP389	ltpFR2	3	3	PASTA	1021	n/a	n/a	0	0	0
721.25537109375	n/a	WORD	1477131	wordpools/wasnorm_wordpool_576.txt	LTP389	ltpFR2	3	3	CHILD	299	n/a	n/a	0	0	0
723.9560546875	n/a	WORD	1482662	wordpools/wasnorm_wordpool_576.txt	LTP389	ltpFR2	3	3	BOUQUET	157	n/a	n/a	0	0	0
726.38916015625	n/a	WORD	1487645	wordpools/wasnorm_wordpool_576.txt	LTP389	ltpFR2	3	3	NOTEBOOK	959	n/a	n/a	0	0	0
728.90478515625	n/a	WORD	1492797	wordpools/wasnorm_wordpool_576.txt	LTP389	ltpFR2	3	3	HERO	706	n/a	n/a	0	0	0
731.3388671875	n/a	WORD	1497782	wordpools/wasnorm_wordpool_576.txt	LTP389	ltpFR2	3	3	COSTUME	383	n/a	n/a	0	0	0
733.78857421875	n/a	WORD	1502799	wordpools/wasnorm_wordpool_576.txt	LTP389	ltpFR2	3	3	STUDENT	1395	n/a	n/a	0	0	0
736.5048828125	n/a	WORD	1508362	wordpools/wasnorm_wordpool_576.txt	LTP389	ltpFR2	3	3	LAKE	796	n/a	n/a	0	0	0
739.0546875	n/a	WORD	1513584	wordpools/wasnorm_wordpool_576.txt	LTP389	ltpFR2	3	3	BURGLAR	200	n/a	n/a	0	0	0
741.638671875	n/a	WORD	1518876	wordpools/wasnorm_wordpool_576.txt	LTP389	ltpFR2	3	3	NAPKIN	937	n/a	n/a	0	0	0
744.38818359375	n/a	WORD	1524507	wordpools/wasnorm_wordpool_576.txt	LTP389	ltpFR2	3	3	CLOCK	325	n/a	n/a	0	0	0
747.037109375	n/a	WORD	1529932	wordpools/wasnorm_wordpool_576.txt	LTP389	ltpFR2	3	3	RAFT	1159	n/a	n/a	0	0	0
749.60400390625	n/a	WORD	1535189	wordpools/wasnorm_wordpool_576.txt	LTP389	ltpFR2	3	3	SPONGE	1355	n/a	n/a	0	0	0
752.3212890625	n/a	WORD	1540754	wordpools/wasnorm_wordpool_576.txt	LTP389	ltpFR2	3	3	WORLD	1622	n/a	n/a	0	0	0
753.93798828125	n/a	START	1544065	n/a	LTP389	ltpFR2	3	n/a	n/a	n/a	5	n/a	n/a	n/a	n/a
755.0791015625	n/a	DISTRACTOR	1546402	n/a	LTP389	ltpFR2	3	3	n/a	n/a	n/a	n/a	0	0	0
755.0869140625	n/a	PROB	1546418	n/a	LTP389	ltpFR2	3	n/a	n/a	n/a	5	20	8	8	4
757.32080078125	n/a	PROB	1550993	n/a	LTP389	ltpFR2	3	n/a	n/a	n/a	5	10	2	1	7
759.32080078125	n/a	PROB	1555089	n/a	LTP389	ltpFR2	3	n/a	n/a	n/a	5	13	6	4	3
760.75390625	n/a	PROB	1558024	n/a	LTP389	ltpFR2	3	n/a	n/a	n/a	5	17	6	2	9
762.65380859375	n/a	PROB	1561915	n/a	LTP389	ltpFR2	3	n/a	n/a	n/a	5	11	4	5	2
764.10400390625	n/a	PROB	1564885	n/a	LTP389	ltpFR2	3	n/a	n/a	n/a	5	17	4	7	6
767.00390625	n/a	PROB	1570824	n/a	LTP389	ltpFR2	3	n/a	n/a	n/a	5	20	5	9	6
769.95361328125	n/a	PROB	1576865	n/a	LTP389	ltpFR2	3	n/a	n/a	n/a	5	21	7	7	7
771.2197265625	n/a	PROB	1579458	n/a	LTP389	ltpFR2	3	n/a	n/a	n/a	5	18	8	5	5
772.8203125	n/a	PROB	1582736	n/a	LTP389	ltpFR2	3	n/a	n/a	n/a	5	18	5	6	7
774.28662109375	n/a	PROB	1585739	n/a	LTP389	ltpFR2	3	n/a	n/a	n/a	5	19	6	7	6
776.67431640625	n/a	STOP	1590629	n/a	LTP389	ltpFR2	3	n/a	n/a	n/a	5	n/a	n/a	n/a	n/a
779.72021484375	n/a	REC_START	1596867	n/a	LTP389	ltpFR2	3	3	n/a	n/a	n/a	n/a	0	0	0
781.00537109375	n/a	REC_WORD	1599499	wordpools/wasnorm_wordpool_576.txt	LTP389	ltpFR2	3	3	SPOON	1357	n/a	n/a	0	0	0
782.3349609375	n/a	REC_WORD	1602222	wordpools/wasnorm_wordpool_576.txt	LTP389	ltpFR2	3	3	KNIFE	785	n/a	n/a	0	0	0
783.38427734375	n/a	REC_WORD	1604371	wordpools/wasnorm_wordpool_576.txt	LTP389	ltpFR2	3	3	PUPIL	1143	n/a	n/a	0	0	0
785.05712890625	n/a	REC_WORD	1607797	wordpools/wasnorm_wordpool_576.txt	LTP389	ltpFR2	3	3	LAVA	804	n/a	n/a	0	0	0
786.06787109375	n/a	REC_WORD	1609867	wordpools/wasnorm_wordpool_576.txt	LTP389	ltpFR2	3	3	STONE	1385	n/a	n/a	0	0	0
787.34814453125	n/a	REC_WORD	1612489	wordpools/wasnorm_wordpool_576.txt	LTP389	ltpFR2	3	3	CABIN	211	n/a	n/a	0	0	0
788.8671875	n/a	REC_WORD	1615600	wordpools/wasnorm_wordpool_576.txt	LTP389	ltpFR2	3	3	CLOCK	325	n/a	n/a	0	0	0
791.56884765625	n/a	REC_WORD	1621133	wordpools/wasnorm_wordpool_576.txt	LTP389	ltpFR2	3	3	BURGLAR	200	n/a	n/a	0	0	0
793.1005859375	n/a	REC_WORD	1624270	wordpools/wasnorm_wordpool_576.txt	LTP389	ltpFR2	3	3	LAKE	796	n/a	n/a	0	0	0
794.28271484375	n/a	REC_WORD	1626691	wordpools/wasnorm_wordpool_576.txt	LTP389	ltpFR2	3	3	RAFT	1159	n/a	n/a	0	0	0
795.4169921875	n/a	REC_WORD	1629014	wordpools/wasnorm_wordpool_576.txt	LTP389	ltpFR2	3	3	SPONGE	1355	n/a	n/a	0	0	0
798.58544921875	n/a	REC_WORD	1635503	wordpools/wasnorm_wordpool_576.txt	LTP389	ltpFR2	3	3	COSTUME	383	n/a	n/a	0	0	0
806.576171875	n/a	REC_WORD	1651868	wordpools/wasnorm_wordpool_576.txt	LTP389	ltpFR2	3	3	STUDENT	1395	n/a	n/a	0	0	0
816.00927734375	n/a	REC_WORD	1671187	wordpools/wasnorm_wordpool_576.txt	LTP389	ltpFR2	3	3	PASTA	1021	n/a	n/a	0	0	0
817.2529296875	n/a	REC_WORD	1673734	wordpools/wasnorm_wordpool_576.txt	LTP389	ltpFR2	3	3	CHILD	299	n/a	n/a	0	0	0
818.548828125	n/a	REC_WORD	1676388	wordpools/wasnorm_wordpool_576.txt	LTP389	ltpFR2	3	3	INFANT	737	n/a	n/a	0	0	0
870.16552734375	n/a	WORD	1782099	wordpools/wasnorm_wordpool_576.txt	LTP389	ltpFR2	3	4	CREVICE	405	n/a	n/a	0	0	0
872.79931640625	n/a	WORD	1787493	wordpools/wasnorm_wordpool_576.txt	LTP389	ltpFR2	3	4	FARMER	553	n/a	n/a	0	0	0
875.4482421875	n/a	WORD	1792918	wordpools/wasnorm_wordpool_576.txt	LTP389	ltpFR2	3	4	LABEL	790	n/a	n/a	0	0	0
878.01513671875	n/a	WORD	1798175	wordpools/wasnorm_wordpool_576.txt	LTP389	ltpFR2	3	4	BINDER	127	n/a	n/a	0	0	0
880.78173828125	n/a	WORD	1803841	wordpools/wasnorm_wordpool_576.txt	LTP389	ltpFR2	3	4	SAUSAGE	1238	n/a	n/a	0	0	0
883.5810546875	n/a	WORD	1809574	wordpools/wasnorm_wordpool_576.txt	LTP389	ltpFR2	3	4	PAIL	1002	n/a	n/a	0	0	0
886.23193359375	n/a	WORD	1815003	wordpools/wasnorm_wordpool_576.txt	LTP389	ltpFR2	3	4	TUNNEL	1519	n/a	n/a	0	0	0
888.78173828125	n/a	WORD	1820225	wordpools/wasnorm_wordpool_576.txt	LTP389	ltpFR2	3	4	GRILL	661	n/a	n/a	0	0	0
891.3818359375	n/a	WORD	1825550	wordpools/wasnorm_wordpool_576.txt	LTP389	ltpFR2	3	4	WASP	1593	n/a	n/a	0	0	0
893.94775390625	n/a	WORD	1830805	wordpools/wasnorm_wordpool_576.txt	LTP389	ltpFR2	3	4	SODA	1341	n/a	n/a	0	0	0
896.38037109375	n/a	WORD	1835787	wordpools/wasnorm_wordpool_576.txt	LTP389	ltpFR2	3	4	TWIG	1527	n/a	n/a	0	0	0
898.8642578125	n/a	WORD	1840874	wordpools/wasnorm_wordpool_576.txt	LTP389	ltpFR2	3	4	FLESH	579	n/a	n/a	0	0	0
901.54638671875	n/a	WORD	1846367	wordpools/wasnorm_wordpool_576.txt	LTP389	ltpFR2	3	4	SALMON	1227	n/a	n/a	0	0	0
904.2802734375	n/a	WORD	1851966	wordpools/wasnorm_wordpool_576.txt	LTP389	ltpFR2	3	4	HARP	689	n/a	n/a	0	0	0
907.09716796875	n/a	WORD	1857735	wordpools/wasnorm_wordpool_576.txt	LTP389	ltpFR2	3	4	BUTCHER	203	n/a	n/a	0	0	0
909.56298828125	n/a	WORD	1862785	wordpools/wasnorm_wordpool_576.txt	LTP389	ltpFR2	3	4	BEEF	113	n/a	n/a	0	0	0
912.14697265625	n/a	WORD	1868077	wordpools/wasnorm_wordpool_576.txt	LTP389	ltpFR2	3	4	VELVET	1555	n/a	n/a	0	0	0
914.81396484375	n/a	WORD	1873539	wordpools/wasnorm_wordpool_576.txt	LTP389	ltpFR2	3	4	PICNIC	1060	n/a	n/a	0	0	0
917.5458984375	n/a	WORD	1879134	wordpools/wasnorm_wordpool_576.txt	LTP389	ltpFR2	3	4	MOTEL	919	n/a	n/a	0	0	0
919.9794921875	n/a	WORD	1884118	wordpools/wasnorm_wordpool_576.txt	LTP389	ltpFR2	3	4	DORM	488	n/a	n/a	0	0	0
922.49658203125	n/a	WORD	1889273	wordpools/wasnorm_wordpool_576.txt	LTP389	ltpFR2	3	4	BANJO	82	n/a	n/a	0	0	0
924.99658203125	n/a	WORD	1894393	wordpools/wasnorm_wordpool_576.txt	LTP389	ltpFR2	3	4	SUBWAY	1400	n/a	n/a	0	0	0
927.4794921875	n/a	WORD	1899478	wordpools/wasnorm_wordpool_576.txt	LTP389	ltpFR2	3	4	MISTER	901	n/a	n/a	0	0	0
930.16259765625	n/a	WORD	1904973	wordpools/wasnorm_wordpool_576.txt	LTP389	ltpFR2	3	4	MAMMAL	861	n/a	n/a	0	0	0
931.779296875	n/a	START	1908284	n/a	LTP389	ltpFR2	3	n/a	n/a	n/a	6	n/a	n/a	n/a	n/a
932.87841796875	n/a	DISTRACTOR	1910535	n/a	LTP389	ltpFR2	3	4	n/a	n/a	n/a	n/a	0	0	0
932.896484375	n/a	PROB	1910572	n/a	LTP389	ltpFR2	3	n/a	n/a	n/a	6	5	3	1	1
934.62939453125	n/a	PROB	1914121	n/a	LTP389	ltpFR2	3	n/a	n/a	n/a	6	13	6	3	4
936.64599609375	n/a	PROB	1918251	n/a	LTP389	ltpFR2	3	n/a	n/a	n/a	6	15	7	2	6
938.17919921875	n/a	PROB	1921391	n/a	LTP389	ltpFR2	3	n/a	n/a	n/a	6	19	9	4	6
940.1962890625	n/a	PROB	1925522	n/a	LTP389	ltpFR2	3	n/a	n/a	n/a	6	16	1	7	8
941.61181640625	n/a	PROB	1928421	n/a	LTP389	ltpFR2	3	n/a	n/a	n/a	6	15	3	3	9
943.0791015625	n/a	PROB	1931426	n/a	LTP389	ltpFR2	3	n/a	n/a	n/a	6	16	6	3	7
945.2119140625	n/a	PROB	1935794	n/a	LTP389	ltpFR2	3	n/a	n/a	n/a	6	12	1	8	3
947.1787109375	n/a	PROB	1939822	n/a	LTP389	ltpFR2	3	n/a	n/a	n/a	6	24	9	7	8
949.728515625	n/a	PROB	1945044	n/a	LTP389	ltpFR2	3	n/a	n/a	n/a	6	11	3	7	1
951.16162109375	n/a	PROB	1947979	n/a	LTP389	ltpFR2	3	n/a	n/a	n/a	6	13	7	4	2
953.44482421875	n/a	PROB	1952655	n/a	LTP389	ltpFR2	3	n/a	n/a	n/a	6	6	4	1	1
954.71435546875	n/a	STOP	1955255	n/a	LTP389	ltpFR2	3	n/a	n/a	n/a	6	n/a	n/a	n/a	n/a
957.728515625	n/a	REC_START	1961428	n/a	LTP389	ltpFR2	3	4	n/a	n/a	n/a	n/a	0	0	0
958.6494140625	n/a	REC_WORD	1963314	wordpools/wasnorm_wordpool_576.txt	LTP389	ltpFR2	3	4	CREVICE	405	n/a	n/a	0	0	0
960.00830078125	n/a	REC_WORD	1966097	wordpools/wasnorm_wordpool_576.txt	LTP389	ltpFR2	3	4	FARMER	553	n/a	n/a	0	0	0
961.7353515625	n/a	REC_WORD	1969634	wordpools/wasnorm_wordpool_576.txt	LTP389	ltpFR2	3	4	MISTER	901	n/a	n/a	0	0	0
962.478515625	n/a	REC_WORD	1971156	wordpools/wasnorm_wordpool_576.txt	LTP389	ltpFR2	3	4	SALMON	1227	n/a	n/a	0	0	0
963.43115234375	n/a	REC_WORD	1973107	wordpools/wasnorm_wordpool_576.txt	LTP389	ltpFR2	3	4	PAIL	1002	n/a	n/a	0	0	0
966.16943359375	n/a	REC_WORD	1978715	wordpools/wasnorm_wordpool_576.txt	LTP389	ltpFR2	3	4	TWIG	1527	n/a	n/a	0	0	0
967.17822265625	n/a	REC_WORD	1980781	wordpools/wasnorm_wordpool_576.txt	LTP389	ltpFR2	3	4	SODA	1341	n/a	n/a	0	0	0
968.59423828125	n/a	REC_WORD	1983681	wordpools/wasnorm_wordpool_576.txt	LTP389	ltpFR2	3	4	SAUSAGE	1238	n/a	n/a	0	0	0
971.130859375	n/a	REC_WORD	1988876	wordpools/wasnorm_wordpool_576.txt	LTP389	ltpFR2	3	4	BEEF	113	n/a	n/a	0	0	0
972.83984375	n/a	REC_WORD	1992376	wordpools/wasnorm_wordpool_576.txt	LTP389	ltpFR2	3	4	GRILL	661	n/a	n/a	0	0	0
973.751953125	n/a	REC_WORD	1994244	wordpools/wasnorm_wordpool_576.txt	LTP389	ltpFR2	3	4	PICNIC	1060	n/a	n/a	0	0	0
974.64013671875	n/a	REC_WORD	1996063	wordpools/wasnorm_wordpool_576.txt	LTP389	ltpFR2	3	4	VELVET	1555	n/a	n/a	0	0	0
976.203125	n/a	REC_WORD	1999264	wordpools/wasnorm_wordpool_576.txt	LTP389	ltpFR2	3	4	HARP	689	n/a	n/a	0	0	0
977.181640625	n/a	REC_WORD	2001268	wordpools/wasnorm_wordpool_576.txt	LTP389	ltpFR2	3	4	BANJO	82	n/a	n/a	0	0	0
979.0498046875	n/a	REC_WORD	2005094	wordpools/wasnorm_wordpool_576.txt	LTP389	ltpFR2	3	4	DORM	488	n/a	n/a	0	0	0
989.74951171875	n/a	REC_WORD	2027007	wordpools/wasnorm_wordpool_576.txt	LTP389	ltpFR2	3	4	MAMMAL	861	n/a	n/a	0	0	0
998.17919921875	n/a	REC_WORD	2044271	wordpools/wasnorm_wordpool_576.txt	LTP389	ltpFR2	3	4	SUBWAY	1400	n/a	n/a	0	0	0
1020.00927734375	n/a	REC_WORD	2088979	wordpools/wasnorm_wordpool_576.txt	LTP389	ltpFR2	3	4	LABEL	790	n/a	n/a	0	0	0
1026.0234375	n/a	REC_WORD	2101296	wordpools/wasnorm_wordpool_576.txt	LTP389	ltpFR2	3	4	BINDER	127	n/a	n/a	0	0	0
1048.1904296875	n/a	WORD	2146694	wordpools/wasnorm_wordpool_576.txt	LTP389	ltpFR2	3	5	CAPTIVE	240	n/a	n/a	0	0	0
1050.890625	n/a	WORD	2152224	wordpools/wasnorm_wordpool_576.txt	LTP389	ltpFR2	3	5	COURSE	390	n/a	n/a	0	0	0
1053.62353515625	n/a	WORD	2157821	wordpools/wasnorm_wordpool_576.txt	LTP389	ltpFR2	3	5	COLLEGE	346	n/a	n/a	0	0	0
1056.05712890625	n/a	WORD	2162805	wordpools/wasnorm_wordpool_576.txt	LTP389	ltpFR2	3	5	SPHINX	1349	n/a	n/a	0	0	0
1058.64013671875	n/a	WORD	2168095	wordpools/wasnorm_wordpool_576.txt	LTP389	ltpFR2	3	5	FOOTBALL	591	n/a	n/a	0	0	0
1061.10693359375	n/a	WORD	2173147	wordpools/wasnorm_wordpool_576.txt	LTP389	ltpFR2	3	5	VALLEY	1545	n/a	n/a	0	0	0
1063.68994140625	n/a	WORD	2178437	wordpools/wasnorm_wordpool_576.txt	LTP389	ltpFR2	3	5	MARS	873	n/a	n/a	0	0	0
1066.35693359375	n/a	WORD	2183899	wordpools/wasnorm_wordpool_576.txt	LTP389	ltpFR2	3	5	SLOPE	1328	n/a	n/a	0	0	0
1069.0556640625	n/a	WORD	2189426	wordpools/wasnorm_wordpool_576.txt	LTP389	ltpFR2	3	5	BEAST	108	n/a	n/a	0	0	0
1071.505859375	n/a	WORD	2194444	wordpools/wasnorm_wordpool_576.txt	LTP389	ltpFR2	3	5	STAR	1373	n/a	n/a	0	0	0
1073.97265625	n/a	WORD	2199496	wordpools/wasnorm_wordpool_576.txt	LTP389	ltpFR2	3	5	SUMMIT	1405	n/a	n/a	0	0	0
1076.439453125	n/a	WORD	2204548	wordpools/wasnorm_wordpool_576.txt	LTP389	ltpFR2	3	5	FINGER	567	n/a	n/a	0	0	0
1078.8896484375	n/a	WORD	2209566	wordpools/wasnorm_wordpool_576.txt	LTP389	ltpFR2	3	5	EMPIRE	530	n/a	n/a	0	0	0
1081.322265625	n/a	WORD	2214548	wordpools/wasnorm_wordpool_576.txt	LTP389	ltpFR2	3	5	TWEEZERS	1526	n/a	n/a	0	0	0
1084.05517578125	n/a	WORD	2220145	wordpools/wasnorm_wordpool_576.txt	LTP389	ltpFR2	3	5	LOVER	846	n/a	n/a	0	0	0
1086.67236328125	n/a	WORD	2225505	wordpools/wasnorm_wordpool_576.txt	LTP389	ltpFR2	3	5	BISON	131	n/a	n/a	0	0	0
1089.1552734375	n/a	WORD	2230590	wordpools/wasnorm_wordpool_576.txt	LTP389	ltpFR2	3	5	GYMNAST	675	n/a	n/a	0	0	0
1091.97216796875	n/a	WORD	2236359	wordpools/wasnorm_wordpool_576.txt	LTP389	ltpFR2	3	5	MEDAL	885	n/a	n/a	0	0	0
1094.43896484375	n/a	WORD	2241411	wordpools/wasnorm_wordpool_576.txt	LTP389	ltpFR2	3	5	SNACK	1331	n/a	n/a	0	0	0
1097.0048828125	n/a	WORD	2246666	wordpools/wasnorm_wordpool_576.txt	LTP389	ltpFR2	3	5	DINER	467	n/a	n/a	0	0	0
1099.65478515625	n/a	WORD	2252093	wordpools/wasnorm_wordpool_576.txt	LTP389	ltpFR2	3	5	WIFE	1609	n/a	n/a	0	0	0
1102.171875	n/a	WORD	2257248	wordpools/wasnorm_wordpool_576.txt	LTP389	ltpFR2	3	5	GRAVE	658	n/a	n/a	0	0	0
1104.90478515625	n/a	WORD	2262845	wordpools/wasnorm_wordpool_576.txt	LTP389	ltpFR2	3	5	WIDOW	1608	n/a	n/a	0	0	0
1107.4375	n/a	WORD	2268032	wordpools/wasnorm_wordpool_576.txt	LTP389	ltpFR2	3	5	PAPER	1011	n/a	n/a	0	0	0
1109.0546875	n/a	START	2271344	n/a	LTP389	ltpFR2	3	n/a	n/a	n/a	7	n/a	n/a	n/a	n/a
1109.87060546875	n/a	DISTRACTOR	2273015	n/a	LTP389	ltpFR2	3	5	n/a	n/a	n/a	n/a	0	0	0
1109.8876953125	n/a	PROB	2273050	n/a	LTP389	ltpFR2	3	n/a	n/a	n/a	7	6	2	3	1
1111.42138671875	n/a	PROB	2276191	n/a	LTP389	ltpFR2	3	n/a	n/a	n/a	7	10	5	1	4
1112.92138671875	n/a	PROB	2279263	n/a	LTP389	ltpFR2	3	n/a	n/a	n/a	7	7	1	4	2
1114.38720703125	n/a	PROB	2282265	n/a	LTP389	ltpFR2	3	n/a	n/a	n/a	7	13	9	2	2
1116.1044921875	n/a	PROB	2285782	n/a	LTP389	ltpFR2	3	n/a	n/a	n/a	7	10	2	6	2
1117.771484375	n/a	PROB	2289196	n/a	LTP389	ltpFR2	3	n/a	n/a	n/a	7	11	4	1	6
1119.27001953125	n/a	PROB	2292265	n/a	LTP389	ltpFR2	3	n/a	n/a	n/a	7	18	5	8	5
1120.80419921875	n/a	PROB	2295407	n/a	LTP389	ltpFR2	3	n/a	n/a	n/a	7	17	3	6	8
1122.35400390625	n/a	PROB	2298581	n/a	LTP389	ltpFR2	3	n/a	n/a	n/a	7	10	2	1	7
1123.80419921875	n/a	PROB	2301551	n/a	LTP389	ltpFR2	3	n/a	n/a	n/a	7	17	8	6	3
1127.30419921875	n/a	PROB	2308719	n/a	LTP389	ltpFR2	3	n/a	n/a	n/a	7	16	1	7	8
1128.60400390625	n/a	PROB	2311381	n/a	LTP389	ltpFR2	3	n/a	n/a	n/a	7	19	8	1	8
1133.0537109375	n/a	STOP	2320494	n/a	LTP389	ltpFR2	3	n/a	n/a	n/a	7	n/a	n/a	n/a	n/a
1134.8369140625	n/a	REC_START	2324146	n/a	LTP389	ltpFR2	3	5	n/a	n/a	n/a	n/a	0	0	0
1136.017578125	n/a	REC_WORD	2326564	wordpools/wasnorm_wordpool_576.txt	LTP389	ltpFR2	3	5	CAPTIVE	240	n/a	n/a	0	0	0
1136.8798828125	n/a	REC_WORD	2328330	wordpools/wasnorm_wordpool_576.txt	LTP389	ltpFR2	3	5	COLLEGE	346	n/a	n/a	0	0	0
1137.89453125	n/a	REC_WORD	2330408	wordpools/wasnorm_wordpool_576.txt	LTP389	ltpFR2	3	5	COURSE	390	n/a	n/a	0	0	0
1139.232421875	n/a	REC_WORD	2333148	wordpools/wasnorm_wordpool_576.txt	LTP389	ltpFR2	3	5	SUMMIT	1405	n/a	n/a	0	0	0
1140.46435546875	n/a	REC_WORD	2335671	wordpools/wasnorm_wordpool_576.txt	LTP389	ltpFR2	3	5	FOOTBALL	591	n/a	n/a	0	0	0
1142.30859375	n/a	REC_WORD	2339448	wordpools/wasnorm_wordpool_576.txt	LTP389	ltpFR2	3	5	MARS	873	n/a	n/a	0	0	0
1143.5302734375	n/a	REC_WORD	2341950	wordpools/wasnorm_wordpool_576.txt	LTP389	ltpFR2	3	5	SPHINX	1349	n/a	n/a	0	0	0
1145.64453125	n/a	REC_WORD	2346280	wordpools/wasnorm_wordpool_576.txt	LTP389	ltpFR2	3	5	WIFE	1609	n/a	n/a	0	0	0
1146.83837890625	n/a	REC_WORD	2348725	wordpools/wasnorm_wordpool_576.txt	LTP389	ltpFR2	3	5	WIDOW	1608	n/a	n/a	0	0	0
1167.40576171875	n/a	REC_WORD	2390847	wordpools/wasnorm_wordpool_576.txt	LTP389	ltpFR2	3	5	VALLEY	1545	n/a	n/a	0	0	0
1174.83544921875	n/a	REC_WORD	2406063	wordpools/wasnorm_wordpool_576.txt	LTP389	ltpFR2	3	5	SNACK	1331	n/a	n/a	0	0	0
1225.28271484375	n/a	DISTRACTOR	2509379	n/a	LTP389	ltpFR2	3	6	n/a	n/a	n/a	n/a	0	0	0
1225.28271484375	n/a	START	2509379	n/a	LTP389	ltpFR2	3	n/a	n/a	n/a	8	n/a	n/a	n/a	n/a
1225.298828125	n/a	PROB	2509412	n/a	LTP389	ltpFR2	3	n/a	n/a	n/a	8	14	3	2	9
1227.0986328125	n/a	PROB	2513098	n/a	LTP389	ltpFR2	3	n/a	n/a	n/a	8	16	6	2	8
1228.69873046875	n/a	PROB	2516375	n/a	LTP389	ltpFR2	3	n/a	n/a	n/a	8	24	6	9	9
1231.8984375	n/a	PROB	2522928	n/a	LTP389	ltpFR2	3	n/a	n/a	n/a	8	12	5	6	1
1233.88232421875	n/a	PROB	2526991	n/a	LTP389	ltpFR2	3	n/a	n/a	n/a	8	11	4	1	6
1235.49853515625	n/a	PROB	2530301	n/a	LTP389	ltpFR2	3	n/a	n/a	n/a	8	23	8	6	9
1238.181640625	n/a	PROB	2535796	n/a	LTP389	ltpFR2	3	n/a	n/a	n/a	8	16	2	7	7
1239.78125	n/a	PROB	2539072	n/a	LTP389	ltpFR2	3	n/a	n/a	n/a	8	18	9	1	8
1241.08251953125	n/a	PROB	2541737	n/a	LTP389	ltpFR2	3	n/a	n/a	n/a	8	20	6	9	5
1242.8984375	n/a	PROB	2545456	n/a	LTP389	ltpFR2	3	n/a	n/a	n/a	8	17	7	3	7
1244.59814453125	n/a	PROB	2548937	n/a	LTP389	ltpFR2	3	n/a	n/a	n/a	8	11	1	2	8
1246.63134765625	n/a	PROB	2553101	n/a	LTP389	ltpFR2	3	n/a	n/a	n/a	8	12	1	4	7
1248.41796875	n/a	STOP	2556760	n/a	LTP389	ltpFR2	3	n/a	n/a	n/a	8	n/a	n/a	n/a	n/a
1250.130859375	n/a	WORD	2560268	wordpools/wasnorm_wordpool_576.txt	LTP389	ltpFR2	3	6	WAGON	1578	n/a	n/a	0	0	0
1252.93115234375	n/a	WORD	2566003	wordpools/wasnorm_wordpool_576.txt	LTP389	ltpFR2	3	6	SOFTBALL	1343	n/a	n/a	0	0	0
1255.59765625	n/a	WORD	2571464	wordpools/wasnorm_wordpool_576.txt	LTP389	ltpFR2	3	6	UMPIRE	1535	n/a	n/a	0	0	0
1258.19775390625	n/a	WORD	2576789	wordpools/wasnorm_wordpool_576.txt	LTP389	ltpFR2	3	6	SLUG	1329	n/a	n/a	0	0	0
1260.7646484375	n/a	WORD	2582046	wordpools/wasnorm_wordpool_576.txt	LTP389	ltpFR2	3	6	MOP	916	n/a	n/a	0	0	0
1263.33056640625	n/a	WORD	2587301	wordpools/wasnorm_wordpool_576.txt	LTP389	ltpFR2	3	6	SERVANT	1271	n/a	n/a	0	0	0
1266.0634765625	n/a	WORD	2592898	wordpools/wasnorm_wordpool_576.txt	LTP389	ltpFR2	3	6	AIRPLANE	12	n/a	n/a	0	0	0
1268.51318359375	n/a	WORD	2597915	wordpools/wasnorm_wordpool_576.txt	LTP389	ltpFR2	3	6	CHIPMUNK	304	n/a	n/a	0	0	0
1271.16357421875	n/a	WORD	2603343	wordpools/wasnorm_wordpool_576.txt	LTP389	ltpFR2	3	6	BROOK	177	n/a	n/a	0	0	0
1273.7470703125	n/a	WORD	2608634	wordpools/wasnorm_wordpool_576.txt	LTP389	ltpFR2	3	6	BARREL	91	n/a	n/a	0	0	0
1276.26318359375	n/a	WORD	2613787	wordpools/wasnorm_wordpool_576.txt	LTP389	ltpFR2	3	6	KITCHEN	778	n/a	n/a	0	0	0
1279.080078125	n/a	WORD	2619556	wordpools/wasnorm_wordpool_576.txt	LTP389	ltpFR2	3	6	DENTIST	447	n/a	n/a	0	0	0
1281.7470703125	n/a	WORD	2625018	wordpools/wasnorm_wordpool_576.txt	LTP389	ltpFR2	3	6	JUNGLE	764	n/a	n/a	0	0	0
1284.4296875	n/a	WORD	2630512	wordpools/wasnorm_wordpool_576.txt	LTP389	ltpFR2	3	6	BUCKET	184	n/a	n/a	0	0	0
1287.02978515625	n/a	WORD	2635837	wordpools/wasnorm_wordpool_576.txt	LTP389	ltpFR2	3	6	REPORT	1184	n/a	n/a	0	0	0
1289.82958984375	n/a	WORD	2641571	wordpools/wasnorm_wordpool_576.txt	LTP389	ltpFR2	3	6	SCULPTURE	1258	n/a	n/a	0	0	0
1292.49560546875	n/a	WORD	2647031	wordpools/wasnorm_wordpool_576.txt	LTP389	ltpFR2	3	6	SIBLING	1301	n/a	n/a	0	0	0
1295.24560546875	n/a	WORD	2652663	wordpools/wasnorm_wordpool_576.txt	LTP389	ltpFR2	3	6	FEMALE	559	n/a	n/a	0	0	0
1297.91259765625	n/a	WORD	2658125	wordpools/wasnorm_wordpool_576.txt	LTP389	ltpFR2	3	6	LIGHTNING	820	n/a	n/a	0	0	0
1300.37939453125	n/a	WORD	2663177	wordpools/wasnorm_wordpool_576.txt	LTP389	ltpFR2	3	6	APRON	35	n/a	n/a	0	0	0
1303.029296875	n/a	WORD	2668604	wordpools/wasnorm_wordpool_576.txt	LTP389	ltpFR2	3	6	LIPSTICK	829	n/a	n/a	0	0	0
1305.67919921875	n/a	WORD	2674031	wordpools/wasnorm_wordpool_576.txt	LTP389	ltpFR2	3	6	POWDER	1117	n/a	n/a	0	0	0
1308.2783203125	n/a	WORD	2679354	wordpools/wasnorm_wordpool_576.txt	LTP389	ltpFR2	3	6	GLASS	639	n/a	n/a	0	0	0
1311.09521484375	n/a	WORD	2685123	wordpools/wasnorm_wordpool_576.txt	LTP389	ltpFR2	3	6	BEAKER	104	n/a	n/a	0	0	0
1312.7119140625	n/a	START	2688434	n/a	LTP389	ltpFR2	3	n/a	n/a	n/a	9	n/a	n/a	n/a	n/a
1313.759765625	n/a	DISTRACTOR	2690580	n/a	LTP389	ltpFR2	3	6	n/a	n/a	n/a	n/a	0	0	0
1313.76171875	n/a	PROB	2690584	n/a	LTP389	ltpFR2	3	n/a	n/a	n/a	9	14	3	4	7
1315.9951171875	n/a	PROB	2695158	n/a	LTP389	ltpFR2	3	n/a	n/a	n/a	9	9	2	4	3
1317.56103515625	n/a	PROB	2698365	n/a	LTP389	ltpFR2	3	n/a	n/a	n/a	9	16	9	4	4
1319.44482421875	n/a	PROB	2702223	n/a	LTP389	ltpFR2	3	n/a	n/a	n/a	9	25	8	9	8
1322.3115234375	n/a	PROB	2708094	n/a	LTP389	ltpFR2	3	n/a	n/a	n/a	9	13	6	6	1
1323.57763671875	n/a	PROB	2710687	n/a	LTP389	ltpFR2	3	n/a	n/a	n/a	9	18	7	2	9
1325.0615234375	n/a	PROB	2713726	n/a	LTP389	ltpFR2	3	n/a	n/a	n/a	9	15	7	7	1
1326.177734375	n/a	PROB	2716012	n/a	LTP389	ltpFR2	3	n/a	n/a	n/a	9	9	2	3	4
1328.12744140625	n/a	PROB	2720005	n/a	LTP389	ltpFR2	3	n/a	n/a	n/a	9	12	8	1	3
1329.611328125	n/a	PROB	2723044	n/a	LTP389	ltpFR2	3	n/a	n/a	n/a	9	5	1	2	2
1330.59423828125	n/a	PROB	2725057	n/a	LTP389	ltpFR2	3	n/a	n/a	n/a	9	19	8	2	9
1332.4443359375	n/a	PROB	2728846	n/a	LTP389	ltpFR2	3	n/a	n/a	n/a	9	18	8	9	1
1334.71044921875	n/a	PROB	2733487	n/a	LTP389	ltpFR2	3	n/a	n/a	n/a	9	12	7	3	2
1335.97021484375	n/a	STOP	2736067	n/a	LTP389	ltpFR2	3	n/a	n/a	n/a	9	n/a	n/a	n/a	n/a
1338.59423828125	n/a	REC_START	2741441	n/a	LTP389	ltpFR2	3	6	n/a	n/a	n/a	n/a	0	0	0
1339.78125	n/a	REC_WORD	2743872	wordpools/wasnorm_wordpool_576.txt	LTP389	ltpFR2	3	6	WAGON	1578	n/a	n/a	0	0	0
1340.578125	n/a	REC_WORD	2745504	wordpools/wasnorm_wordpool_576.txt	LTP389	ltpFR2	3	6	SOFTBALL	1343	n/a	n/a	0	0	0
1342.55224609375	n/a	REC_WORD	2749547	wordpools/wasnorm_wordpool_576.txt	LTP389	ltpFR2	3	6	UMPIRE	1535	n/a	n/a	0	0	0
1343.68994140625	n/a	REC_WORD	2751877	wordpools/wasnorm_wordpool_576.txt	LTP389	ltpFR2	3	6	SLUG	1329	n/a	n/a	0	0	0
1345.27294921875	n/a	REC_WORD	2755119	wordpools/wasnorm_wordpool_576.txt	LTP389	ltpFR2	3	6	MOP	916	n/a	n/a	0	0	0
1346.29296875	n/a	REC_WORD	2757208	wordpools/wasnorm_wordpool_576.txt	LTP389	ltpFR2	3	6	SERVANT	1271	n/a	n/a	0	0	0
1349.009765625	n/a	REC_WORD	2762772	wordpools/wasnorm_wordpool_576.txt	LTP389	ltpFR2	3	6	AIRPLANE	12	n/a	n/a	0	0	0
1352.5576171875	n/a	REC_WORD	2770038	wordpools/wasnorm_wordpool_576.txt	LTP389	ltpFR2	3	6	CHIPMUNK	304	n/a	n/a	0	0	0
1354.73046875	n/a	REC_WORD	2774488	wordpools/wasnorm_wordpool_576.txt	LTP389	ltpFR2	3	6	WAGON	1578	n/a	n/a	0	0	0
1355.79150390625	n/a	REC_WORD	2776661	wordpools/wasnorm_wordpool_576.txt	LTP389	ltpFR2	3	6	KITCHEN	778	n/a	n/a	0	0	0
1356.9833984375	n/a	REC_WORD	2779102	wordpools/wasnorm_wordpool_576.txt	LTP389	ltpFR2	3	6	POWDER	1117	n/a	n/a	0	0	0
1358.14453125	n/a	REC_WORD	2781480	wordpools/wasnorm_wordpool_576.txt	LTP389	ltpFR2	3	6	GLASS	639	n/a	n/a	0	0	0
1361.50927734375	n/a	REC_WORD	2788371	wordpools/wasnorm_wordpool_576.txt	LTP389	ltpFR2	3	6	LIPSTICK	829	n/a	n/a	0	0	0
1376.89599609375	n/a	REC_WORD	2819883	wordpools/wasnorm_wordpool_576.txt	LTP389	ltpFR2	3	6	REPORT	1184	n/a	n/a	0	0	0
1429.05615234375	n/a	WORD	2926707	wordpools/wasnorm_wordpool_576.txt	LTP389	ltpFR2	3	7	PORTRAIT	1111	n/a	n/a	0	0	0
1431.67333984375	n/a	WORD	2932067	wordpools/wasnorm_wordpool_576.txt	LTP389	ltpFR2	3	7	FUNGUS	614	n/a	n/a	0	0	0
1434.490234375	n/a	WORD	2937836	wordpools/wasnorm_wordpool_576.txt	LTP389	ltpFR2	3	7	PLUTO	1092	n/a	n/a	0	0	0
1437.27294921875	n/a	WORD	2943535	wordpools/wasnorm_wordpool_576.txt	LTP389	ltpFR2	3	7	TOASTER	1472	n/a	n/a	0	0	0
1439.873046875	n/a	WORD	2948860	wordpools/wasnorm_wordpool_576.txt	LTP389	ltpFR2	3	7	PIZZA	1079	n/a	n/a	0	0	0
1442.3388671875	n/a	WORD	2953910	wordpools/wasnorm_wordpool_576.txt	LTP389	ltpFR2	3	7	CEILING	265	n/a	n/a	0	0	0
1445.15576171875	n/a	WORD	2959679	wordpools/wasnorm_wordpool_576.txt	LTP389	ltpFR2	3	7	SNAIL	1332	n/a	n/a	0	0	0
1447.60546875	n/a	WORD	2964696	wordpools/wasnorm_wordpool_576.txt	LTP389	ltpFR2	3	7	BUREAU	199	n/a	n/a	0	0	0
1450.23876953125	n/a	WORD	2970089	wordpools/wasnorm_wordpool_576.txt	LTP389	ltpFR2	3	7	DRESSER	496	n/a	n/a	0	0	0
1452.78857421875	n/a	WORD	2975311	wordpools/wasnorm_wordpool_576.txt	LTP389	ltpFR2	3	7	PANTHER	1009	n/a	n/a	0	0	0
1455.22216796875	n/a	WORD	2980295	wordpools/wasnorm_wordpool_576.txt	LTP389	ltpFR2	3	7	SWORD	1423	n/a	n/a	0	0	0
1457.8720703125	n/a	WORD	2985722	wordpools/wasnorm_wordpool_576.txt	LTP389	ltpFR2	3	7	DOUGHNUT	490	n/a	n/a	0	0	0
1460.58837890625	n/a	WORD	2991285	wordpools/wasnorm_wordpool_576.txt	LTP389	ltpFR2	3	7	COFFEE	341	n/a	n/a	0	0	0
1463.1708984375	n/a	WORD	2996574	wordpools/wasnorm_wordpool_576.txt	LTP389	ltpFR2	3	7	PLASTER	1085	n/a	n/a	0	0	0
1465.97119140625	n/a	WORD	3002309	wordpools/wasnorm_wordpool_576.txt	LTP389	ltpFR2	3	7	TORTOISE	1486	n/a	n/a	0	0	0
1468.4208984375	n/a	WORD	3007326	wordpools/wasnorm_wordpool_576.txt	LTP389	ltpFR2	3	7	CARROT	249	n/a	n/a	0	0	0
1470.98779296875	n/a	WORD	3012583	wordpools/wasnorm_wordpool_576.txt	LTP389	ltpFR2	3	7	SLIME	1327	n/a	n/a	0	0	0
1473.720703125	n/a	WORD	3018180	wordpools/wasnorm_wordpool_576.txt	LTP389	ltpFR2	3	7	WHISTLE	1606	n/a	n/a	0	0	0
1476.45458984375	n/a	WORD	3023779	wordpools/wasnorm_wordpool_576.txt	LTP389	ltpFR2	3	7	TUBA	1515	n/a	n/a	0	0	0
1479.0546875	n/a	WORD	3029104	wordpools/wasnorm_wordpool_576.txt	LTP389	ltpFR2	3	7	COUSIN	392	n/a	n/a	0	0	0
1481.4873046875	n/a	WORD	3034086	wordpools/wasnorm_wordpool_576.txt	LTP389	ltpFR2	3	7	GUITAR	670	n/a	n/a	0	0	0
1484.03759765625	n/a	WORD	3039309	wordpools/wasnorm_wordpool_576.txt	LTP389	ltpFR2	3	7	YOLK	1633	n/a	n/a	0	0	0
1486.67041015625	n/a	WORD	3044701	wordpools/wasnorm_wordpool_576.txt	LTP389	ltpFR2	3	7	SEAL	1262	n/a	n/a	0	0	0
1489.10302734375	n/a	WORD	3049683	wordpools/wasnorm_wordpool_576.txt	LTP389	ltpFR2	3	7	FRANCE	601	n/a	n/a	0	0	0
1490.72021484375	n/a	START	3052995	n/a	LTP389	ltpFR2	3	n/a	n/a	n/a	10	n/a	n/a	n/a	n/a
1491.77197265625	n/a	DISTRACTOR	3055149	n/a	LTP389	ltpFR2	3	7	n/a	n/a	n/a	n/a	0	0	0
1491.787109375	n/a	PROB	3055180	n/a	LTP389	ltpFR2	3	n/a	n/a	n/a	10	12	3	1	8
1494.0703125	n/a	PROB	3059856	n/a	LTP389	ltpFR2	3	n/a	n/a	n/a	10	17	1	7	9
1495.88720703125	n/a	PROB	3063577	n/a	LTP389	ltpFR2	3	n/a	n/a	n/a	10	17	8	5	4
1498.13720703125	n/a	PROB	3068185	n/a	LTP389	ltpFR2	3	n/a	n/a	n/a	10	9	4	4	1
1499.15283203125	n/a	PROB	3070265	n/a	LTP389	ltpFR2	3	n/a	n/a	n/a	10	8	3	2	3
1500.6201171875	n/a	PROB	3073270	n/a	LTP389	ltpFR2	3	n/a	n/a	n/a	10	15	6	2	7
1503.302734375	n/a	PROB	3078764	n/a	LTP389	ltpFR2	3	n/a	n/a	n/a	10	13	2	7	4
1505.169921875	n/a	PROB	3082588	n/a	LTP389	ltpFR2	3	n/a	n/a	n/a	10	12	6	4	2
1506.40283203125	n/a	PROB	3085113	n/a	LTP389	ltpFR2	3	n/a	n/a	n/a	10	26	9	9	8
1509.28564453125	n/a	PROB	3091017	n/a	LTP389	ltpFR2	3	n/a	n/a	n/a	10	24	7	9	8
1511.36962890625	n/a	PROB	3095285	n/a	LTP389	ltpFR2	3	n/a	n/a	n/a	10	14	6	5	3
1514.71826171875	n/a	STOP	3102143	n/a	LTP389	ltpFR2	3	n/a	n/a	n/a	10	n/a	n/a	n/a	n/a
1516.53515625	n/a	REC_START	3105864	n/a	LTP389	ltpFR2	3	7	n/a	n/a	n/a	n/a	0	0	0
1517.5322265625	n/a	REC_WORD	3107906	wordpools/wasnorm_wordpool_576.txt	LTP389	ltpFR2	3	7	PORTRAIT	1111	n/a	n/a	0	0	0
1518.435546875	n/a	REC_WORD	3109756	wordpools/wasnorm_wordpool_576.txt	LTP389	ltpFR2	3	7	PLASTER	1085	n/a	n/a	0	0	0
1519.54931640625	n/a	REC_WORD	3112037	wordpools/wasnorm_wordpool_576.txt	LTP389	ltpFR2	3	7	PLUTO	1092	n/a	n/a	0	0	0
1521.42333984375	n/a	REC_WORD	3115875	wordpools/wasnorm_wordpool_576.txt	LTP389	ltpFR2	3	7	FUNGUS	614	n/a	n/a	0	0	0
1523.8779296875	n/a	REC_WORD	3120902	wordpools/wasnorm_wordpool_576.txt	LTP389	ltpFR2	3	7	SWORD	1423	n/a	n/a	0	0	0
1525.14697265625	n/a	REC_WORD	3123501	wordpools/wasnorm_wordpool_576.txt	LTP389	ltpFR2	3	7	TUBA	1515	n/a	n/a	0	0	0
1526.30029296875	n/a	REC_WORD	3125863	wordpools/wasnorm_wordpool_576.txt	LTP389	ltpFR2	3	7	COUSIN	392	n/a	n/a	0	0	0
1528.40283203125	n/a	REC_WORD	3130169	wordpools/wasnorm_wordpool_576.txt	LTP389	ltpFR2	3	7	CARROT	249	n/a	n/a	0	0	0
1532.3818359375	n/a	REC_WORD	3138318	wordpools/wasnorm_wordpool_576.txt	LTP389	ltpFR2	3	7	CEILING	265	n/a	n/a	0	0	0
1534.546875	n/a	REC_WORD	3142752	wordpools/wasnorm_wordpool_576.txt	LTP389	ltpFR2	3	7	FRANCE	601	n/a	n/a	0	0	0
1537.82373046875	n/a	REC_WORD	3149463	wordpools/wasnorm_wordpool_576.txt	LTP389	ltpFR2	3	7	WHISTLE	1606	n/a	n/a	0	0	0
1546.09033203125	n/a	REC_WORD	3166393	wordpools/wasnorm_wordpool_576.txt	LTP389	ltpFR2	3	7	TORTOISE	1486	n/a	n/a	0	0	0
1551.30029296875	n/a	REC_WORD	3177063	wordpools/wasnorm_wordpool_576.txt	LTP389	ltpFR2	3	7	YOLK	1633	n/a	n/a	0	0	0
1552.2001953125	n/a	REC_WORD	3178906	wordpools/wasnorm_wordpool_576.txt	LTP389	ltpFR2	3	7	BUREAU	199	n/a	n/a	0	0	0
1553.70703125	n/a	REC_WORD	3181992	wordpools/wasnorm_wordpool_576.txt	LTP389	ltpFR2	3	7	DRESSER	496	n/a	n/a	0	0	0
1557.81982421875	n/a	REC_WORD	3190415	wordpools/wasnorm_wordpool_576.txt	LTP389	ltpFR2	3	7	PIZZA	1079	n/a	n/a	0	0	0
1572.25146484375	n/a	REC_WORD	3219971	wordpools/wasnorm_wordpool_576.txt	LTP389	ltpFR2	3	7	SNAIL	1332	n/a	n/a	0	0	0
1606.96533203125	n/a	DISTRACTOR	3291065	n/a	LTP389	ltpFR2	3	8	n/a	n/a	n/a	n/a	0	0	0
1606.96533203125	n/a	START	3291065	n/a	LTP389	ltpFR2	3	n/a	n/a	n/a	11	n/a	n/a	n/a	n/a
1606.9814453125	n/a	PROB	3291098	n/a	LTP389	ltpFR2	3	n/a	n/a	n/a	11	20	7	4	9
1609.9482421875	n/a	PROB	3297174	n/a	LTP389	ltpFR2	3	n/a	n/a	n/a	11	14	4	9	1
1612.28125	n/a	PROB	3301952	n/a	LTP389	ltpFR2	3	n/a	n/a	n/a	11	18	8	2	8
1614.09814453125	n/a	PROB	3305673	n/a	LTP389	ltpFR2	3	n/a	n/a	n/a	11	10	1	1	8
1615.56396484375	n/a	PROB	3308675	n/a	LTP389	ltpFR2	3	n/a	n/a	n/a	11	9	4	4	1
1616.6640625	n/a	PROB	3310928	n/a	LTP389	ltpFR2	3	n/a	n/a	n/a	11	11	2	8	1
1617.93115234375	n/a	PROB	3313523	n/a	LTP389	ltpFR2	3	n/a	n/a	n/a	11	20	7	7	6
1621.31396484375	n/a	PROB	3320451	n/a	LTP389	ltpFR2	3	n/a	n/a	n/a	11	6	3	1	2
1622.69775390625	n/a	PROB	3323285	n/a	LTP389	ltpFR2	3	n/a	n/a	n/a	11	14	6	2	6
1624.34765625	n/a	PROB	3326664	n/a	LTP389	ltpFR2	3	n/a	n/a	n/a	11	14	5	6	3
1625.89794921875	n/a	PROB	3329839	n/a	LTP389	ltpFR2	3	n/a	n/a	n/a	11	16	8	6	2
1628.380859375	n/a	PROB	3334924	n/a	LTP389	ltpFR2	3	n/a	n/a	n/a	11	13	3	4	6
1630.130859375	n/a	STOP	3338508	n/a	LTP389	ltpFR2	3	n/a	n/a	n/a	11	n/a	n/a	n/a	n/a
1632.1806640625	n/a	WORD	3342706	wordpools/wasnorm_wordpool_576.txt	LTP389	ltpFR2	3	8	REBEL	1172	n/a	n/a	0	0	0
1634.99658203125	n/a	WORD	3348473	wordpools/wasnorm_wordpool_576.txt	LTP389	ltpFR2	3	8	CASHEW	253	n/a	n/a	0	0	0
1637.529296875	n/a	WORD	3353660	wordpools/wasnorm_wordpool_576.txt	LTP389	ltpFR2	3	8	CRITIC	410	n/a	n/a	0	0	0
1640.21337890625	n/a	WORD	3359157	wordpools/wasnorm_wordpool_576.txt	LTP389	ltpFR2	3	8	GIRL	637	n/a	n/a	0	0	0
1642.84619140625	n/a	WORD	3364549	wordpools/wasnorm_wordpool_576.txt	LTP389	ltpFR2	3	8	ICING	732	n/a	n/a	0	0	0
1645.4462890625	n/a	WORD	3369874	wordpools/wasnorm_wordpool_576.txt	LTP389	ltpFR2	3	8	MONSTER	912	n/a	n/a	0	0	0
1648.24609375	n/a	WORD	3375608	wordpools/wasnorm_wordpool_576.txt	LTP389	ltpFR2	3	8	CREATURE	403	n/a	n/a	0	0	0
1650.69580078125	n/a	WORD	3380625	wordpools/wasnorm_wordpool_576.txt	LTP389	ltpFR2	3	8	BANQUET	86	n/a	n/a	0	0	0
1653.47998046875	n/a	WORD	3386327	wordpools/wasnorm_wordpool_576.txt	LTP389	ltpFR2	3	8	RACKET	1155	n/a	n/a	0	0	0
1656.095703125	n/a	WORD	3391684	wordpools/wasnorm_wordpool_576.txt	LTP389	ltpFR2	3	8	SUITCASE	1403	n/a	n/a	0	0	0
1658.845703125	n/a	WORD	3397316	wordpools/wasnorm_wordpool_576.txt	LTP389	ltpFR2	3	8	CRATER	400	n/a	n/a	0	0	0
1661.3955078125	n/a	WORD	3402538	wordpools/wasnorm_wordpool_576.txt	LTP389	ltpFR2	3	8	CAMEL	223	n/a	n/a	0	0	0
1664.0126953125	n/a	WORD	3407898	wordpools/wasnorm_wordpool_576.txt	LTP389	ltpFR2	3	8	COLONEL	348	n/a	n/a	0	0	0
1666.52734375	n/a	WORD	3413048	wordpools/wasnorm_wordpool_576.txt	LTP389	ltpFR2	3	8	ORANGE	980	n/a	n/a	0	0	0
1669.24560546875	n/a	WORD	3418615	wordpools/wasnorm_wordpool_576.txt	LTP389	ltpFR2	3	8	HEART	697	n/a	n/a	0	0	0
1672.01220703125	n/a	WORD	3424281	wordpools/wasnorm_wordpool_576.txt	LTP389	ltpFR2	3	8	CRUTCH	417	n/a	n/a	0	0	0
1674.4951171875	n/a	WORD	3429366	wordpools/wasnorm_wordpool_576.txt	LTP389	ltpFR2	3	8	FLOWER	584	n/a	n/a	0	0	0
1676.96240234375	n/a	WORD	3434419	wordpools/wasnorm_wordpool_576.txt	LTP389	ltpFR2	3	8	STOVE	1388	n/a	n/a	0	0	0
1679.6123046875	n/a	WORD	3439846	wordpools/wasnorm_wordpool_576.txt	LTP389	ltpFR2	3	8	STREAM	1392	n/a	n/a	0	0	0
1682.2451171875	n/a	WORD	3445238	wordpools/wasnorm_wordpool_576.txt	LTP389	ltpFR2	3	8	DAISY	435	n/a	n/a	0	0	0
1684.77783203125	n/a	WORD	3450425	wordpools/wasnorm_wordpool_576.txt	LTP389	ltpFR2	3	8	CITRUS	313	n/a	n/a	0	0	0
1687.31103515625	n/a	WORD	3455613	wordpools/wasnorm_wordpool_576.txt	LTP389	ltpFR2	3	8	SWAMP	1416	n/a	n/a	0	0	0
1690.1279296875	n/a	WORD	3461382	wordpools/wasnorm_wordpool_576.txt	LTP389	ltpFR2	3	8	HIGHWAY	707	n/a	n/a	0	0	0
1692.77783203125	n/a	WORD	3466809	wordpools/wasnorm_wordpool_576.txt	LTP389	ltpFR2	3	8	SIDEWALK	1303	n/a	n/a	0	0	0
1694.39453125	n/a	START	3470120	n/a	LTP389	ltpFR2	3	n/a	n/a	n/a	12	n/a	n/a	n/a	n/a
1695.4248046875	n/a	DISTRACTOR	3472230	n/a	LTP389	ltpFR2	3	8	n/a	n/a	n/a	n/a	0	0	0
1695.427734375	n/a	PROB	3472236	n/a	LTP389	ltpFR2	3	n/a	n/a	n/a	12	8	2	2	4
1696.927734375	n/a	PROB	3475308	n/a	LTP389	ltpFR2	3	n/a	n/a	n/a	12	12	6	4	2
1698.29443359375	n/a	PROB	3478107	n/a	LTP389	ltpFR2	3	n/a	n/a	n/a	12	18	3	7	8
1699.92724609375	n/a	PROB	3481451	n/a	LTP389	ltpFR2	3	n/a	n/a	n/a	12	8	1	3	4
1701.1943359375	n/a	PROB	3484046	n/a	LTP389	ltpFR2	3	n/a	n/a	n/a	12	10	2	1	7
1702.7275390625	n/a	PROB	3487186	n/a	LTP389	ltpFR2	3	n/a	n/a	n/a	12	15	7	3	5
1704.16015625	n/a	PROB	3490120	n/a	LTP389	ltpFR2	3	n/a	n/a	n/a	12	19	4	6	9
1705.47705078125	n/a	PROB	3492817	n/a	LTP389	ltpFR2	3	n/a	n/a	n/a	12	17	1	9	7
1706.79296875	n/a	PROB	3495512	n/a	LTP389	ltpFR2	3	n/a	n/a	n/a	12	8	3	2	3
1708.126953125	n/a	PROB	3498244	n/a	LTP389	ltpFR2	3	n/a	n/a	n/a	12	21	4	9	8
1710.52587890625	n/a	PROB	3503157	n/a	LTP389	ltpFR2	3	n/a	n/a	n/a	12	19	6	4	9
1711.876953125	n/a	PROB	3505924	n/a	LTP389	ltpFR2	3	n/a	n/a	n/a	12	15	7	5	3
1713.81005859375	n/a	PROB	3509883	n/a	LTP389	ltpFR2	3	n/a	n/a	n/a	12	23	8	6	9
1718.39404296875	n/a	STOP	3519271	n/a	LTP389	ltpFR2	3	n/a	n/a	n/a	12	n/a	n/a	n/a	n/a
1720.259765625	n/a	REC_START	3523092	n/a	LTP389	ltpFR2	3	8	n/a	n/a	n/a	n/a	0	0	0
1721.642578125	n/a	REC_WORD	3525924	wordpools/wasnorm_wordpool_576.txt	LTP389	ltpFR2	3	8	REBEL	1172	n/a	n/a	0	0	0
1722.61181640625	n/a	REC_WORD	3527909	wordpools/wasnorm_wordpool_576.txt	LTP389	ltpFR2	3	8	CRITIC	410	n/a	n/a	0	0	0
1725.8095703125	n/a	REC_WORD	3534458	wordpools/wasnorm_wordpool_576.txt	LTP389	ltpFR2	3	8	MONSTER	912	n/a	n/a	0	0	0
1727.1865234375	n/a	REC_WORD	3537278	wordpools/wasnorm_wordpool_576.txt	LTP389	ltpFR2	3	8	GIRL	637	n/a	n/a	0	0	0
1728.20361328125	n/a	REC_WORD	3539361	wordpools/wasnorm_wordpool_576.txt	LTP389	ltpFR2	3	8	CREATURE	403	n/a	n/a	0	0	0
1730.49755859375	n/a	REC_WORD	3544059	wordpools/wasnorm_wordpool_576.txt	LTP389	ltpFR2	3	8	BANQUET	86	n/a	n/a	0	0	0
1733.3203125	n/a	REC_WORD	3549840	wordpools/wasnorm_wordpool_576.txt	LTP389	ltpFR2	3	8	ORANGE	980	n/a	n/a	0	0	0
1734.17724609375	n/a	REC_WORD	3551595	wordpools/wasnorm_wordpool_576.txt	LTP389	ltpFR2	3	8	CITRUS	313	n/a	n/a	0	0	0
1735.58251953125	n/a	REC_WORD	3554473	wordpools/wasnorm_wordpool_576.txt	LTP389	ltpFR2	3	8	SIDEWAY	-1	n/a	n/a	0	0	0
1736.85400390625	n/a	REC_WORD	3557077	wordpools/wasnorm_wordpool_576.txt	LTP389	ltpFR2	3	8	SIDEWALK	1303	n/a	n/a	0	0	0
1738.81005859375	n/a	REC_WORD	3561083	wordpools/wasnorm_wordpool_576.txt	LTP389	ltpFR2	3	8	HIGHWAY	707	n/a	n/a	0	0	0
1760.6474609375	n/a	REC_WORD	3605806	wordpools/wasnorm_wordpool_576.txt	LTP389	ltpFR2	3	8	SUITCASE	1403	n/a	n/a	0	0	0
1771.70703125	n/a	REC_WORD	3628456	wordpools/wasnorm_wordpool_576.txt	LTP389	ltpFR2	3	8	COLONEL	348	n/a	n/a	0	0	0
1794.04248046875	n/a	REC_WORD	3674199	wordpools/wasnorm_wordpool_576.txt	LTP389	ltpFR2	3	8	CASHEW	253	n/a	n/a	0	0	0
1796.80615234375	n/a	REST_REWET	3679859	n/a	LTP389	ltpFR2	3	8	n/a	n/a	n/a	n/a	0	0	0
2650.56640625	n/a	WORD	5428360	wordpools/wasnorm_wordpool_576.txt	LTP389	ltpFR2	3	9	PLAYGROUND	1087	n/a	n/a	0	0	0
2653.03369140625	n/a	WORD	5433413	wordpools/wasnorm_wordpool_576.txt	LTP389	ltpFR2	3	9	TYPIST	1532	n/a	n/a	0	0	0
2655.849609375	n/a	WORD	5439180	wordpools/wasnorm_wordpool_576.txt	LTP389	ltpFR2	3	9	LUNCH	849	n/a	n/a	0	0	0
2658.3994140625	n/a	WORD	5444402	wordpools/wasnorm_wordpool_576.txt	LTP389	ltpFR2	3	9	CAFE	216	n/a	n/a	0	0	0
2660.94921875	n/a	WORD	5449624	wordpools/wasnorm_wordpool_576.txt	LTP389	ltpFR2	3	9	BODY	145	n/a	n/a	0	0	0
2663.76611328125	n/a	WORD	5455393	wordpools/wasnorm_wordpool_576.txt	LTP389	ltpFR2	3	9	CURTAIN	427	n/a	n/a	0	0	0
2666.498046875	n/a	WORD	5460988	wordpools/wasnorm_wordpool_576.txt	LTP389	ltpFR2	3	9	WINDOW	1611	n/a	n/a	0	0	0
2668.93212890625	n/a	WORD	5465973	wordpools/wasnorm_wordpool_576.txt	LTP389	ltpFR2	3	9	SANDWICH	1232	n/a	n/a	0	0	0
2671.6318359375	n/a	WORD	5471502	wordpools/wasnorm_wordpool_576.txt	LTP389	ltpFR2	3	9	CONVICT	371	n/a	n/a	0	0	0
2674.431640625	n/a	WORD	5477236	wordpools/wasnorm_wordpool_576.txt	LTP389	ltpFR2	3	9	ATOM	55	n/a	n/a	0	0	0
2676.86572265625	n/a	WORD	5482221	wordpools/wasnorm_wordpool_576.txt	LTP389	ltpFR2	3	9	RELISH	1183	n/a	n/a	0	0	0
2679.66552734375	n/a	WORD	5487955	wordpools/wasnorm_wordpool_576.txt	LTP389	ltpFR2	3	9	DASHBOARD	441	n/a	n/a	0	0	0
2682.36474609375	n/a	WORD	5493483	wordpools/wasnorm_wordpool_576.txt	LTP389	ltpFR2	3	9	GREASE	660	n/a	n/a	0	0	0
2684.8486328125	n/a	WORD	5498570	wordpools/wasnorm_wordpool_576.txt	LTP389	ltpFR2	3	9	PARSLEY	1016	n/a	n/a	0	0	0
2687.63134765625	n/a	WORD	5504269	wordpools/wasnorm_wordpool_576.txt	LTP389	ltpFR2	3	9	GUARD	667	n/a	n/a	0	0	0
2690.29833984375	n/a	WORD	5509731	wordpools/wasnorm_wordpool_576.txt	LTP389	ltpFR2	3	9	STAPLE	1371	n/a	n/a	0	0	0
2692.9814453125	n/a	WORD	5515226	wordpools/wasnorm_wordpool_576.txt	LTP389	ltpFR2	3	9	WORKER	1621	n/a	n/a	0	0	0
2695.4140625	n/a	WORD	5520208	wordpools/wasnorm_wordpool_576.txt	LTP389	ltpFR2	3	9	TABLE	1426	n/a	n/a	0	0	0
2698.1640625	n/a	WORD	5525840	wordpools/wasnorm_wordpool_576.txt	LTP389	ltpFR2	3	9	GHETTO	633	n/a	n/a	0	0	0
2700.68115234375	n/a	WORD	5530995	wordpools/wasnorm_wordpool_576.txt	LTP389	ltpFR2	3	9	MUSTARD	935	n/a	n/a	0	0	0
2703.2978515625	n/a	WORD	5536354	wordpools/wasnorm_wordpool_576.txt	LTP389	ltpFR2	3	9	DRAGON	492	n/a	n/a	0	0	0
2706.03076171875	n/a	WORD	5541951	wordpools/wasnorm_wordpool_576.txt	LTP389	ltpFR2	3	9	IGLOO	734	n/a	n/a	0	0	0
2708.56396484375	n/a	WORD	5547139	wordpools/wasnorm_wordpool_576.txt	LTP389	ltpFR2	3	9	FOOT	590	n/a	n/a	0	0	0
2711.28076171875	n/a	WORD	5552703	wordpools/wasnorm_wordpool_576.txt	LTP389	ltpFR2	3	9	GARLIC	624	n/a	n/a	0	0	0
2712.8974609375	n/a	START	5556014	n/a	LTP389	ltpFR2	3	n/a	n/a	n/a	13	n/a	n/a	n/a	n/a
2713.91552734375	n/a	DISTRACTOR	5558099	n/a	LTP389	ltpFR2	3	9	n/a	n/a	n/a	n/a	0	0	0
2713.9306640625	n/a	PROB	5558130	n/a	LTP389	ltpFR2	3	n/a	n/a	n/a	13	18	5	7	6
2717.9462890625	n/a	PROB	5566354	n/a	LTP389	ltpFR2	3	n/a	n/a	n/a	13	17	4	5	8
2719.58056640625	n/a	PROB	5569701	n/a	LTP389	ltpFR2	3	n/a	n/a	n/a	13	23	9	8	6
2722.4794921875	n/a	PROB	5575638	n/a	LTP389	ltpFR2	3	n/a	n/a	n/a	13	14	3	3	8
2725.86328125	n/a	PROB	5582568	n/a	LTP389	ltpFR2	3	n/a	n/a	n/a	13	8	1	1	6
2727.39599609375	n/a	PROB	5585707	n/a	LTP389	ltpFR2	3	n/a	n/a	n/a	13	16	2	7	7
2728.72900390625	n/a	PROB	5588437	n/a	LTP389	ltpFR2	3	n/a	n/a	n/a	13	11	4	5	2
2730.11328125	n/a	PROB	5591272	n/a	LTP389	ltpFR2	3	n/a	n/a	n/a	13	17	7	7	3
2732.0458984375	n/a	PROB	5595230	n/a	LTP389	ltpFR2	3	n/a	n/a	n/a	13	9	1	4	4
2733.11279296875	n/a	PROB	5597415	n/a	LTP389	ltpFR2	3	n/a	n/a	n/a	13	16	5	6	5
2734.74609375	n/a	PROB	5600760	n/a	LTP389	ltpFR2	3	n/a	n/a	n/a	13	13	7	1	5
2736.498046875	n/a	STOP	5604348	n/a	LTP389	ltpFR2	3	n/a	n/a	n/a	13	n/a	n/a	n/a	n/a
2738.69677734375	n/a	REC_START	5608851	n/a	LTP389	ltpFR2	3	9	n/a	n/a	n/a	n/a	0	0	0
2739.86181640625	n/a	REC_WORD	5611237	wordpools/wasnorm_wordpool_576.txt	LTP389	ltpFR2	3	9	PLAYGROUND	1087	n/a	n/a	0	0	0
2741.1884765625	n/a	REC_WORD	5613954	wordpools/wasnorm_wordpool_576.txt	LTP389	ltpFR2	3	9	GUARD	667	n/a	n/a	0	0	0
2742.78759765625	n/a	REC_WORD	5617229	wordpools/wasnorm_wordpool_576.txt	LTP389	ltpFR2	3	9	LUNCH	849	n/a	n/a	0	0	0
2743.5517578125	n/a	REC_WORD	5618794	wordpools/wasnorm_wordpool_576.txt	LTP389	ltpFR2	3	9	CAFE	216	n/a	n/a	0	0	0
2744.6494140625	n/a	REC_WORD	5621042	wordpools/wasnorm_wordpool_576.txt	LTP389	ltpFR2	3	9	MUSTARD	935	n/a	n/a	0	0	0
2745.9326171875	n/a	REC_WORD	5623670	wordpools/wasnorm_wordpool_576.txt	LTP389	ltpFR2	3	9	RELISH	1183	n/a	n/a	0	0	0
2747.515625	n/a	REC_WORD	5626912	wordpools/wasnorm_wordpool_576.txt	LTP389	ltpFR2	3	9	PARSLEY	1016	n/a	n/a	0	0	0
2748.91552734375	n/a	REC_WORD	5629779	wordpools/wasnorm_wordpool_576.txt	LTP389	ltpFR2	3	9	GREASE	660	n/a	n/a	0	0	0
2750.87939453125	n/a	REC_WORD	5633801	wordpools/wasnorm_wordpool_576.txt	LTP389	ltpFR2	3	9	GARLIC	624	n/a	n/a	0	0	0
2753.857421875	n/a	REC_WORD	5639900	wordpools/wasnorm_wordpool_576.txt	LTP389	ltpFR2	3	9	DRAGON	492	n/a	n/a	0	0	0
2758.85791015625	n/a	REC_WORD	5650141	wordpools/wasnorm_wordpool_576.txt	LTP389	ltpFR2	3	9	GHETTO	633	n/a	n/a	0	0	0
2829.1748046875	n/a	WORD	5794150	wordpools/wasnorm_wordpool_576.txt	LTP389	ltpFR2	3	10	PLIERS	1089	n/a	n/a	0	0	0
2831.974609375	n/a	WORD	5799884	wordpools/wasnorm_wordpool_576.txt	LTP389	ltpFR2	3	10	NEUTRON	947	n/a	n/a	0	0	0
2834.44189453125	n/a	WORD	5804937	wordpools/wasnorm_wordpool_576.txt	LTP389	ltpFR2	3	10	CUSTARD	429	n/a	n/a	0	0	0
2837.2578125	n/a	WORD	5810704	wordpools/wasnorm_wordpool_576.txt	LTP389	ltpFR2	3	10	COOKBOOK	373	n/a	n/a	0	0	0
2839.84130859375	n/a	WORD	5815995	wordpools/wasnorm_wordpool_576.txt	LTP389	ltpFR2	3	10	TAXI	1438	n/a	n/a	0	0	0
2842.37451171875	n/a	WORD	5821183	wordpools/wasnorm_wordpool_576.txt	LTP389	ltpFR2	3	10	PARENT	1013	n/a	n/a	0	0	0
2844.92431640625	n/a	WORD	5826405	wordpools/wasnorm_wordpool_576.txt	LTP389	ltpFR2	3	10	PROTON	1132	n/a	n/a	0	0	0
2847.72412109375	n/a	WORD	5832139	wordpools/wasnorm_wordpool_576.txt	LTP389	ltpFR2	3	10	RIVER	1194	n/a	n/a	0	0	0
2850.240234375	n/a	WORD	5837292	wordpools/wasnorm_wordpool_576.txt	LTP389	ltpFR2	3	10	DIVER	476	n/a	n/a	0	0	0
2852.9072265625	n/a	WORD	5842754	wordpools/wasnorm_wordpool_576.txt	LTP389	ltpFR2	3	10	CONTRACT	368	n/a	n/a	0	0	0
2855.72412109375	n/a	WORD	5848523	wordpools/wasnorm_wordpool_576.txt	LTP389	ltpFR2	3	10	RUST	1219	n/a	n/a	0	0	0
2858.423828125	n/a	WORD	5854052	wordpools/wasnorm_wordpool_576.txt	LTP389	ltpFR2	3	10	MAPLE	866	n/a	n/a	0	0	0
2860.9736328125	n/a	WORD	5859274	wordpools/wasnorm_wordpool_576.txt	LTP389	ltpFR2	3	10	STAKE	1368	n/a	n/a	0	0	0
2863.62353515625	n/a	WORD	5864701	wordpools/wasnorm_wordpool_576.txt	LTP389	ltpFR2	3	10	GANGSTER	620	n/a	n/a	0	0	0
2866.1396484375	n/a	WORD	5869854	wordpools/wasnorm_wordpool_576.txt	LTP389	ltpFR2	3	10	GARBAGE	622	n/a	n/a	0	0	0
2868.58935546875	n/a	WORD	5874871	wordpools/wasnorm_wordpool_576.txt	LTP389	ltpFR2	3	10	BALLOON	75	n/a	n/a	0	0	0
2871.2236328125	n/a	WORD	5880266	wordpools/wasnorm_wordpool_576.txt	LTP389	ltpFR2	3	10	GRAPE	654	n/a	n/a	0	0	0
2873.9892578125	n/a	WORD	5885930	wordpools/wasnorm_wordpool_576.txt	LTP389	ltpFR2	3	10	CHAMPAGNE	278	n/a	n/a	0	0	0
2876.439453125	n/a	WORD	5890948	wordpools/wasnorm_wordpool_576.txt	LTP389	ltpFR2	3	10	HUSBAND	728	n/a	n/a	0	0	0
2879.08935546875	n/a	WORD	5896375	wordpools/wasnorm_wordpool_576.txt	LTP389	ltpFR2	3	10	GOBLIN	645	n/a	n/a	0	0	0
2881.77197265625	n/a	WORD	5901869	wordpools/wasnorm_wordpool_576.txt	LTP389	ltpFR2	3	10	TRIBE	1505	n/a	n/a	0	0	0
2884.47119140625	n/a	WORD	5907397	wordpools/wasnorm_wordpool_576.txt	LTP389	ltpFR2	3	10	ONION	977	n/a	n/a	0	0	0
2887.15576171875	n/a	WORD	5912895	wordpools/wasnorm_wordpool_576.txt	LTP389	ltpFR2	3	10	TURKEY	1520	n/a	n/a	0	0	0
2889.9560546875	n/a	WORD	5918630	wordpools/wasnorm_wordpool_576.txt	LTP389	ltpFR2	3	10	DONOR	485	n/a	n/a	0	0	0
2891.57177734375	n/a	START	5921939	n/a	LTP389	ltpFR2	3	n/a	n/a	n/a	14	n/a	n/a	n/a	n/a
2892.44970703125	n/a	DISTRACTOR	5923737	n/a	LTP389	ltpFR2	3	10	n/a	n/a	n/a	n/a	0	0	0
2892.45458984375	n/a	PROB	5923747	n/a	LTP389	ltpFR2	3	n/a	n/a	n/a	14	12	3	6	3
2894.53857421875	n/a	PROB	5928015	n/a	LTP389	ltpFR2	3	n/a	n/a	n/a	14	16	4	5	7
2895.95458984375	n/a	PROB	5930915	n/a	LTP389	ltpFR2	3	n/a	n/a	n/a	14	10	2	5	3
2897.9716796875	n/a	PROB	5935046	n/a	LTP389	ltpFR2	3	n/a	n/a	n/a	14	4	1	1	2
2899.388671875	n/a	PROB	5937948	n/a	LTP389	ltpFR2	3	n/a	n/a	n/a	14	5	3	1	1
2900.6044921875	n/a	PROB	5940438	n/a	LTP389	ltpFR2	3	n/a	n/a	n/a	14	19	7	7	5
2902.50341796875	n/a	PROB	5944327	n/a	LTP389	ltpFR2	3	n/a	n/a	n/a	14	6	1	1	4
2903.8212890625	n/a	PROB	5947026	n/a	LTP389	ltpFR2	3	n/a	n/a	n/a	14	15	6	3	6
2905.70458984375	n/a	PROB	5950883	n/a	LTP389	ltpFR2	3	n/a	n/a	n/a	14	17	9	3	5
2907.98828125	n/a	PROB	5955560	n/a	LTP389	ltpFR2	3	n/a	n/a	n/a	14	20	9	7	4
2909.77099609375	n/a	PROB	5959211	n/a	LTP389	ltpFR2	3	n/a	n/a	n/a	14	22	8	7	7
2912.5029296875	n/a	PROB	5964806	n/a	LTP389	ltpFR2	3	n/a	n/a	n/a	14	12	2	7	3
2914.48095703125	n/a	STOP	5968857	n/a	LTP389	ltpFR2	3	n/a	n/a	n/a	14	n/a	n/a	n/a	n/a
2917.40478515625	n/a	REC_START	5974845	n/a	LTP389	ltpFR2	3	10	n/a	n/a	n/a	n/a	0	0	0
2919.0908203125	n/a	REC_WORD	5978298	wordpools/wasnorm_wordpool_576.txt	LTP389	ltpFR2	3	10	PLIERS	1089	n/a	n/a	0	0	0
2920.27490234375	n/a	REC_WORD	5980723	wordpools/wasnorm_wordpool_576.txt	LTP389	ltpFR2	3	10	CUSTARD	429	n/a	n/a	0	0	0
2921.43798828125	n/a	REC_WORD	5983105	wordpools/wasnorm_wordpool_576.txt	LTP389	ltpFR2	3	10	GRAPE	654	n/a	n/a	0	0	0
2922.27197265625	n/a	REC_WORD	5984813	wordpools/wasnorm_wordpool_576.txt	LTP389	ltpFR2	3	10	NEUTRON	947	n/a	n/a	0	0	0
2923.19873046875	n/a	REC_WORD	5986711	wordpools/wasnorm_wordpool_576.txt	LTP389	ltpFR2	3	10	PROTON	1132	n/a	n/a	0	0	0
2924.794921875	n/a	REC_WORD	5989980	wordpools/wasnorm_wordpool_576.txt	LTP389	ltpFR2	3	10	TAXI	1438	n/a	n/a	0	0	0
2926.3916015625	n/a	REC_WORD	5993250	wordpools/wasnorm_wordpool_576.txt	LTP389	ltpFR2	3	10	DIVER	476	n/a	n/a	0	0	0
2927.716796875	n/a	REC_WORD	5995964	wordpools/wasnorm_wordpool_576.txt	LTP389	ltpFR2	3	10	RIVER	1194	n/a	n/a	0	0	0
2929.150390625	n/a	REC_WORD	5998900	wordpools/wasnorm_wordpool_576.txt	LTP389	ltpFR2	3	10	GARBAGE	622	n/a	n/a	0	0	0
2940.68701171875	n/a	REC_WORD	6022527	wordpools/wasnorm_wordpool_576.txt	LTP389	ltpFR2	3	10	GOBLIN	645	n/a	n/a	0	0	0
2943.10107421875	n/a	REC_WORD	6027471	wordpools/wasnorm_wordpool_576.txt	LTP389	ltpFR2	3	10	ONION	977	n/a	n/a	0	0	0
2945.27587890625	n/a	REC_WORD	6031925	wordpools/wasnorm_wordpool_576.txt	LTP389	ltpFR2	3	10	COOKBOOK	373	n/a	n/a	0	0	0
2962.07470703125	n/a	REC_WORD	6066329	wordpools/wasnorm_wordpool_576.txt	LTP389	ltpFR2	3	10	FATHER	554	n/a	n/a	0	0	0
2963.36962890625	n/a	REC_WORD	6068981	wordpools/wasnorm_wordpool_576.txt	LTP389	ltpFR2	3	10	HUSBAND	728	n/a	n/a	0	0	0
3007.85009765625	n/a	DISTRACTOR	6160077	n/a	LTP389	ltpFR2	3	11	n/a	n/a	n/a	n/a	0	0	0
3007.85009765625	n/a	START	6160077	n/a	LTP389	ltpFR2	3	n/a	n/a	n/a	15	n/a	n/a	n/a	n/a
3007.8671875	n/a	PROB	6160112	n/a	LTP389	ltpFR2	3	n/a	n/a	n/a	15	21	6	6	9
3010.68310546875	n/a	PROB	6165879	n/a	LTP389	ltpFR2	3	n/a	n/a	n/a	15	24	9	7	8
3012.666015625	n/a	PROB	6169940	n/a	LTP389	ltpFR2	3	n/a	n/a	n/a	15	14	1	4	9
3014.8828125	n/a	PROB	6174480	n/a	LTP389	ltpFR2	3	n/a	n/a	n/a	15	16	9	3	4
3017.015625	n/a	PROB	6178848	n/a	LTP389	ltpFR2	3	n/a	n/a	n/a	15	9	1	1	7
3018.41552734375	n/a	PROB	6181715	n/a	LTP389	ltpFR2	3	n/a	n/a	n/a	15	16	6	7	3
3020.8154296875	n/a	PROB	6186630	n/a	LTP389	ltpFR2	3	n/a	n/a	n/a	15	14	5	7	2
3022.5498046875	n/a	PROB	6190182	n/a	LTP389	ltpFR2	3	n/a	n/a	n/a	15	7	4	2	1
3023.982421875	n/a	PROB	6193116	n/a	LTP389	ltpFR2	3	n/a	n/a	n/a	15	17	1	8	8
3025.38232421875	n/a	PROB	6195983	n/a	LTP389	ltpFR2	3	n/a	n/a	n/a	15	15	6	7	2
3027.982421875	n/a	PROB	6201308	n/a	LTP389	ltpFR2	3	n/a	n/a	n/a	15	11	5	5	1
3029.13232421875	n/a	PROB	6203663	n/a	LTP389	ltpFR2	3	n/a	n/a	n/a	15	21	6	9	6
3031.13037109375	n/a	STOP	6207755	n/a	LTP389	ltpFR2	3	n/a	n/a	n/a	15	n/a	n/a	n/a	n/a
3032.68212890625	n/a	WORD	6210933	wordpools/wasnorm_wordpool_576.txt	LTP389	ltpFR2	3	11	COTTAGE	384	n/a	n/a	0	0	0
3035.365234375	n/a	WORD	6216428	wordpools/wasnorm_wordpool_576.txt	LTP389	ltpFR2	3	11	GAZELLE	628	n/a	n/a	0	0	0
3038.0478515625	n/a	WORD	6221922	wordpools/wasnorm_wordpool_576.txt	LTP389	ltpFR2	3	11	RUG	1215	n/a	n/a	0	0	0
3040.59814453125	n/a	WORD	6227145	wordpools/wasnorm_wordpool_576.txt	LTP389	ltpFR2	3	11	TILE	1468	n/a	n/a	0	0	0
3043.26513671875	n/a	WORD	6232607	wordpools/wasnorm_wordpool_576.txt	LTP389	ltpFR2	3	11	GLOVE	642	n/a	n/a	0	0	0
3045.98193359375	n/a	WORD	6238171	wordpools/wasnorm_wordpool_576.txt	LTP389	ltpFR2	3	11	MESSAGE	888	n/a	n/a	0	0	0
3048.44775390625	n/a	WORD	6243221	wordpools/wasnorm_wordpool_576.txt	LTP389	ltpFR2	3	11	SHARK	1275	n/a	n/a	0	0	0
3050.99755859375	n/a	WORD	6248443	wordpools/wasnorm_wordpool_576.txt	LTP389	ltpFR2	3	11	SEAFOOD	1260	n/a	n/a	0	0	0
3053.49658203125	n/a	WORD	6253561	wordpools/wasnorm_wordpool_576.txt	LTP389	ltpFR2	3	11	QUAIL	1147	n/a	n/a	0	0	0
3055.96435546875	n/a	WORD	6258615	wordpools/wasnorm_wordpool_576.txt	LTP389	ltpFR2	3	11	ORCHID	982	n/a	n/a	0	0	0
3058.73046875	n/a	WORD	6264280	wordpools/wasnorm_wordpool_576.txt	LTP389	ltpFR2	3	11	HAWK	692	n/a	n/a	0	0	0
3061.4794921875	n/a	WORD	6269910	wordpools/wasnorm_wordpool_576.txt	LTP389	ltpFR2	3	11	LETTUCE	814	n/a	n/a	0	0	0
3063.9140625	n/a	WORD	6274896	wordpools/wasnorm_wordpool_576.txt	LTP389	ltpFR2	3	11	TURNIP	1521	n/a	n/a	0	0	0
3066.59716796875	n/a	WORD	6280391	wordpools/wasnorm_wordpool_576.txt	LTP389	ltpFR2	3	11	SMOG	1330	n/a	n/a	0	0	0
3069.1142578125	n/a	WORD	6285546	wordpools/wasnorm_wordpool_576.txt	LTP389	ltpFR2	3	11	CROSS	413	n/a	n/a	0	0	0
3071.61376953125	n/a	WORD	6290665	wordpools/wasnorm_wordpool_576.txt	LTP389	ltpFR2	3	11	ANTLER	29	n/a	n/a	0	0	0
3074.06396484375	n/a	WORD	6295683	wordpools/wasnorm_wordpool_576.txt	LTP389	ltpFR2	3	11	BRAKE	166	n/a	n/a	0	0	0
3076.82958984375	n/a	WORD	6301347	wordpools/wasnorm_wordpool_576.txt	LTP389	ltpFR2	3	11	SALAD	1224	n/a	n/a	0	0	0
3079.32958984375	n/a	WORD	6306467	wordpools/wasnorm_wordpool_576.txt	LTP389	ltpFR2	3	11	OYSTER	995	n/a	n/a	0	0	0
3081.91259765625	n/a	WORD	6311757	wordpools/wasnorm_wordpool_576.txt	LTP389	ltpFR2	3	11	SHORTCAKE	1292	n/a	n/a	0	0	0
3084.49560546875	n/a	WORD	6317047	wordpools/wasnorm_wordpool_576.txt	LTP389	ltpFR2	3	11	JELLY	755	n/a	n/a	0	0	0
3087.0966796875	n/a	WORD	6322374	wordpools/wasnorm_wordpool_576.txt	LTP389	ltpFR2	3	11	ROBIN	1199	n/a	n/a	0	0	0
3089.6962890625	n/a	WORD	6327698	wordpools/wasnorm_wordpool_576.txt	LTP389	ltpFR2	3	11	MARKET	871	n/a	n/a	0	0	0
3092.3291015625	n/a	WORD	6333090	wordpools/wasnorm_wordpool_576.txt	LTP389	ltpFR2	3	11	HOOD	714	n/a	n/a	0	0	0
3093.9462890625	n/a	START	6336402	n/a	LTP389	ltpFR2	3	n/a	n/a	n/a	16	n/a	n/a	n/a	n/a
3094.79931640625	n/a	DISTRACTOR	6338149	n/a	LTP389	ltpFR2	3	11	n/a	n/a	n/a	n/a	0	0	0
3094.81201171875	n/a	PROB	6338175	n/a	LTP389	ltpFR2	3	n/a	n/a	n/a	16	20	3	9	8
3102.31201171875	n/a	PROB	6353535	n/a	LTP389	ltpFR2	3	n/a	n/a	n/a	16	19	9	5	5
3104.294921875	n/a	PROB	6357596	n/a	LTP389	ltpFR2	3	n/a	n/a	n/a	16	17	5	6	6
3106.6787109375	n/a	PROB	6362478	n/a	LTP389	ltpFR2	3	n/a	n/a	n/a	16	20	6	5	9
3108.76171875	n/a	PROB	6366744	n/a	LTP389	ltpFR2	3	n/a	n/a	n/a	16	8	1	1	6
3110.16162109375	n/a	PROB	6369611	n/a	LTP389	ltpFR2	3	n/a	n/a	n/a	16	17	9	3	5
3111.978515625	n/a	PROB	6373332	n/a	LTP389	ltpFR2	3	n/a	n/a	n/a	16	15	5	4	6
3113.4775390625	n/a	PROB	6376402	n/a	LTP389	ltpFR2	3	n/a	n/a	n/a	16	10	1	7	2
3115.41162109375	n/a	PROB	6380363	n/a	LTP389	ltpFR2	3	n/a	n/a	n/a	16	10	5	4	1
3116.62646484375	n/a	STOP	6382851	n/a	LTP389	ltpFR2	3	n/a	n/a	n/a	16	n/a	n/a	n/a	n/a
3119.7783203125	n/a	REC_START	6389306	n/a	LTP389	ltpFR2	3	11	n/a	n/a	n/a	n/a	0	0	0
3120.59326171875	n/a	REC_WORD	6390975	wordpools/wasnorm_wordpool_576.txt	LTP389	ltpFR2	3	11	COTTAGE	384	n/a	n/a	0	0	0
3122.46435546875	n/a	REC_WORD	6394807	wordpools/wasnorm_wordpool_576.txt	LTP389	ltpFR2	3	11	RUG	1215	n/a	n/a	0	0	0
3123.75537109375	n/a	REC_WORD	6397451	wordpools/wasnorm_wordpool_576.txt	LTP389	ltpFR2	3	11	TILE	1468	n/a	n/a	0	0	0
3124.80029296875	n/a	REC_WORD	6399591	wordpools/wasnorm_wordpool_576.txt	LTP389	ltpFR2	3	11	GAZELLE	628	n/a	n/a	0	0	0
3127.59228515625	n/a	REC_WORD	6405309	wordpools/wasnorm_wordpool_576.txt	LTP389	ltpFR2	3	11	OYSTER	995	n/a	n/a	0	0	0
3128.39013671875	n/a	REC_WORD	6406943	wordpools/wasnorm_wordpool_576.txt	LTP389	ltpFR2	3	11	SEAFOOD	1260	n/a	n/a	0	0	0
3129.4052734375	n/a	REC_WORD	6409022	wordpools/wasnorm_wordpool_576.txt	LTP389	ltpFR2	3	11	SHARK	1275	n/a	n/a	0	0	0
3130.56689453125	n/a	REC_WORD	6411401	wordpools/wasnorm_wordpool_576.txt	LTP389	ltpFR2	3	11	LETTUCE	814	n/a	n/a	0	0	0
3131.5361328125	n/a	REC_WORD	6413386	wordpools/wasnorm_wordpool_576.txt	LTP389	ltpFR2	3	11	SALAD	1224	n/a	n/a	0	0	0
3132.51513671875	n/a	REC_WORD	6415391	wordpools/wasnorm_wordpool_576.txt	LTP389	ltpFR2	3	11	SHORTCAKE	1292	n/a	n/a	0	0	0
3134.90869140625	n/a	REC_WORD	6420293	wordpools/wasnorm_wordpool_576.txt	LTP389	ltpFR2	3	11	MARKET	871	n/a	n/a	0	0	0
3138.0869140625	n/a	REC_WORD	6426802	wordpools/wasnorm_wordpool_576.txt	LTP389	ltpFR2	3	11	TURNIP	1521	n/a	n/a	0	0	0
3147.80029296875	n/a	REC_WORD	6446695	wordpools/wasnorm_wordpool_576.txt	LTP389	ltpFR2	3	11	ROBIN	1199	n/a	n/a	0	0	0
3167.4951171875	n/a	REC_WORD	6487030	wordpools/wasnorm_wordpool_576.txt	LTP389	ltpFR2	3	11	GLOVE	642	n/a	n/a	0	0	0
3168.69091796875	n/a	REC_WORD	6489479	wordpools/wasnorm_wordpool_576.txt	LTP389	ltpFR2	3	11	MESSAGE	888	n/a	n/a	0	0	0
3210.2236328125	n/a	DISTRACTOR	6574538	n/a	LTP389	ltpFR2	3	12	n/a	n/a	n/a	n/a	0	0	0
3210.224609375	n/a	START	6574540	n/a	LTP389	ltpFR2	3	n/a	n/a	n/a	17	n/a	n/a	n/a	n/a
3210.24072265625	n/a	PROB	6574573	n/a	LTP389	ltpFR2	3	n/a	n/a	n/a	17	11	7	1	3
3211.92333984375	n/a	PROB	6578019	n/a	LTP389	ltpFR2	3	n/a	n/a	n/a	17	16	9	4	3
3213.75732421875	n/a	PROB	6581775	n/a	LTP389	ltpFR2	3	n/a	n/a	n/a	17	8	4	2	2
3215.55712890625	n/a	PROB	6585461	n/a	LTP389	ltpFR2	3	n/a	n/a	n/a	17	17	2	7	8
3217.30615234375	n/a	PROB	6589043	n/a	LTP389	ltpFR2	3	n/a	n/a	n/a	17	10	7	1	2
3218.740234375	n/a	PROB	6591980	n/a	LTP389	ltpFR2	3	n/a	n/a	n/a	17	15	3	3	9
3220.10595703125	n/a	PROB	6594777	n/a	LTP389	ltpFR2	3	n/a	n/a	n/a	17	20	6	9	5
3221.68994140625	n/a	PROB	6598021	n/a	LTP389	ltpFR2	3	n/a	n/a	n/a	17	21	7	5	9
3226.1728515625	n/a	PROB	6607202	n/a	LTP389	ltpFR2	3	n/a	n/a	n/a	17	21	9	5	7
3228.123046875	n/a	PROB	6611196	n/a	LTP389	ltpFR2	3	n/a	n/a	n/a	17	21	6	7	8
3232.22265625	n/a	PROB	6619592	n/a	LTP389	ltpFR2	3	n/a	n/a	n/a	17	9	1	2	6
3233.4267578125	n/a	STOP	6622058	n/a	LTP389	ltpFR2	3	n/a	n/a	n/a	17	n/a	n/a	n/a	n/a
3235.10546875	n/a	WORD	6625496	wordpools/wasnorm_wordpool_576.txt	LTP389	ltpFR2	3	12	PACKAGE	997	n/a	n/a	0	0	0
3237.65576171875	n/a	WORD	6630719	wordpools/wasnorm_wordpool_576.txt	LTP389	ltpFR2	3	12	ELBOW	520	n/a	n/a	0	0	0
3240.42236328125	n/a	WORD	6636385	wordpools/wasnorm_wordpool_576.txt	LTP389	ltpFR2	3	12	SUNSET	1408	n/a	n/a	0	0	0
3243.03857421875	n/a	WORD	6641743	wordpools/wasnorm_wordpool_576.txt	LTP389	ltpFR2	3	12	MAILBOX	857	n/a	n/a	0	0	0
3245.822265625	n/a	WORD	6647444	wordpools/wasnorm_wordpool_576.txt	LTP389	ltpFR2	3	12	DOLPHIN	483	n/a	n/a	0	0	0
3248.2880859375	n/a	WORD	6652494	wordpools/wasnorm_wordpool_576.txt	LTP389	ltpFR2	3	12	SALT	1229	n/a	n/a	0	0	0
3251.0380859375	n/a	WORD	6658126	wordpools/wasnorm_wordpool_576.txt	LTP389	ltpFR2	3	12	HOSTESS	723	n/a	n/a	0	0	0
3253.85498046875	n/a	WORD	6663895	wordpools/wasnorm_wordpool_576.txt	LTP389	ltpFR2	3	12	SKETCH	1315	n/a	n/a	0	0	0
3256.30517578125	n/a	WORD	6668913	wordpools/wasnorm_wordpool_576.txt	LTP389	ltpFR2	3	12	VIKING	1565	n/a	n/a	0	0	0
3258.921875	n/a	WORD	6674272	wordpools/wasnorm_wordpool_576.txt	LTP389	ltpFR2	3	12	BLACKBOARD	133	n/a	n/a	0	0	0
3261.62158203125	n/a	WORD	6679801	wordpools/wasnorm_wordpool_576.txt	LTP389	ltpFR2	3	12	TUTU	1524	n/a	n/a	0	0	0
3264.20458984375	n/a	WORD	6685091	wordpools/wasnorm_wordpool_576.txt	LTP389	ltpFR2	3	12	DANCER	437	n/a	n/a	0	0	0
3266.90478515625	n/a	WORD	6690621	wordpools/wasnorm_wordpool_576.txt	LTP389	ltpFR2	3	12	MARSH	874	n/a	n/a	0	0	0
3269.4697265625	n/a	WORD	6695874	wordpools/wasnorm_wordpool_576.txt	LTP389	ltpFR2	3	12	GROUND	666	n/a	n/a	0	0	0
3271.8876953125	n/a	WORD	6700826	wordpools/wasnorm_wordpool_576.txt	LTP389	ltpFR2	3	12	BLENDER	136	n/a	n/a	0	0	0
3274.42041015625	n/a	WORD	6706013	wordpools/wasnorm_wordpool_576.txt	LTP389	ltpFR2	3	12	HAND	683	n/a	n/a	0	0	0
3277.2373046875	n/a	WORD	6711782	wordpools/wasnorm_wordpool_576.txt	LTP389	ltpFR2	3	12	TOMBSTONE	1478	n/a	n/a	0	0	0
3279.787109375	n/a	WORD	6717004	wordpools/wasnorm_wordpool_576.txt	LTP389	ltpFR2	3	12	WASHER	1592	n/a	n/a	0	0	0
3282.419921875	n/a	WORD	6722396	wordpools/wasnorm_wordpool_576.txt	LTP389	ltpFR2	3	12	SHELTER	1282	n/a	n/a	0	0	0
3285.1201171875	n/a	WORD	6727926	wordpools/wasnorm_wordpool_576.txt	LTP389	ltpFR2	3	12	LIZARD	834	n/a	n/a	0	0	0
3287.60400390625	n/a	WORD	6733013	wordpools/wasnorm_wordpool_576.txt	LTP389	ltpFR2	3	12	WARDROBE	1587	n/a	n/a	0	0	0
3290.169921875	n/a	WORD	6738268	wordpools/wasnorm_wordpool_576.txt	LTP389	ltpFR2	3	12	OMELET	976	n/a	n/a	0	0	0
3292.81982421875	n/a	WORD	6743695	wordpools/wasnorm_wordpool_576.txt	LTP389	ltpFR2	3	12	SKILLET	1317	n/a	n/a	0	0	0
3295.28662109375	n/a	WORD	6748747	wordpools/wasnorm_wordpool_576.txt	LTP389	ltpFR2	3	12	OZONE	996	n/a	n/a	0	0	0
3296.90380859375	n/a	START	6752059	n/a	LTP389	ltpFR2	3	n/a	n/a	n/a	18	n/a	n/a	n/a	n/a
3298.099609375	n/a	DISTRACTOR	6754508	n/a	LTP389	ltpFR2	3	12	n/a	n/a	n/a	n/a	0	0	0
3298.1025390625	n/a	PROB	6754514	n/a	LTP389	ltpFR2	3	n/a	n/a	n/a	18	18	6	3	9
3299.88671875	n/a	PROB	6758168	n/a	LTP389	ltpFR2	3	n/a	n/a	n/a	18	13	5	7	1
3302.25244140625	n/a	PROB	6763013	n/a	LTP389	ltpFR2	3	n/a	n/a	n/a	18	15	1	7	7
3303.53662109375	n/a	PROB	6765643	n/a	LTP389	ltpFR2	3	n/a	n/a	n/a	18	18	5	6	7
3305.50146484375	n/a	PROB	6769667	n/a	LTP389	ltpFR2	3	n/a	n/a	n/a	18	18	5	6	7
3306.83642578125	n/a	PROB	6772401	n/a	LTP389	ltpFR2	3	n/a	n/a	n/a	18	6	2	3	1
3308.1025390625	n/a	PROB	6774994	n/a	LTP389	ltpFR2	3	n/a	n/a	n/a	18	14	8	1	5
3309.63525390625	n/a	PROB	6778133	n/a	LTP389	ltpFR2	3	n/a	n/a	n/a	18	10	5	3	2
3311.43505859375	n/a	PROB	6781819	n/a	LTP389	ltpFR2	3	n/a	n/a	n/a	18	10	8	1	1
3312.6689453125	n/a	PROB	6784346	n/a	LTP389	ltpFR2	3	n/a	n/a	n/a	18	14	9	3	2
3316.05224609375	n/a	PROB	6791275	n/a	LTP389	ltpFR2	3	n/a	n/a	n/a	18	14	9	1	4
3317.4189453125	n/a	PROB	6794074	n/a	LTP389	ltpFR2	3	n/a	n/a	n/a	18	6	1	1	4
3318.56884765625	n/a	PROB	6796429	n/a	LTP389	ltpFR2	3	n/a	n/a	n/a	18	20	9	2	9
3320.3779296875	n/a	STOP	6800134	n/a	LTP389	ltpFR2	3	n/a	n/a	n/a	18	n/a	n/a	n/a	n/a
3322.71875	n/a	REC_START	6804928	n/a	LTP389	ltpFR2	3	12	n/a	n/a	n/a	n/a	0	0	0
3323.3916015625	n/a	REC_WORD	6806306	wordpools/wasnorm_wordpool_576.txt	LTP389	ltpFR2	3	12	PACKAGE	997	n/a	n/a	0	0	0
3324.3876953125	n/a	REC_WORD	6808346	wordpools/wasnorm_wordpool_576.txt	LTP389	ltpFR2	3	12	ELBOW	520	n/a	n/a	0	0	0
3325.46484375	n/a	REC_WORD	6810552	wordpools/wasnorm_wordpool_576.txt	LTP389	ltpFR2	3	12	MAILBOX	857	n/a	n/a	0	0	0
3326.4755859375	n/a	REC_WORD	6812622	wordpools/wasnorm_wordpool_576.txt	LTP389	ltpFR2	3	12	SUNSET	1408	n/a	n/a	0	0	0
3327.79052734375	n/a	REC_WORD	6815315	wordpools/wasnorm_wordpool_576.txt	LTP389	ltpFR2	3	12	SKETCH	1315	n/a	n/a	0	0	0
3329.18359375	n/a	REC_WORD	6818168	wordpools/wasnorm_wordpool_576.txt	LTP389	ltpFR2	3	12	DOLPHIN	483	n/a	n/a	0	0	0
3330.72265625	n/a	REC_WORD	6821320	wordpools/wasnorm_wordpool_576.txt	LTP389	ltpFR2	3	12	BLENDER	136	n/a	n/a	0	0	0
3331.4267578125	n/a	REC_WORD	6822762	wordpools/wasnorm_wordpool_576.txt	LTP389	ltpFR2	3	12	SALT	1229	n/a	n/a	0	0	0
3338.99853515625	n/a	REC_WORD	6838269	wordpools/wasnorm_wordpool_576.txt	LTP389	ltpFR2	3	12	TUTU	1524	n/a	n/a	0	0	0
3341.37744140625	n/a	REC_WORD	6843141	wordpools/wasnorm_wordpool_576.txt	LTP389	ltpFR2	3	12	WARDROBE	1587	n/a	n/a	0	0	0
3342.76806640625	n/a	REC_WORD	6845989	wordpools/wasnorm_wordpool_576.txt	LTP389	ltpFR2	3	12	BLACKBOARD	133	n/a	n/a	0	0	0
3348.5078125	n/a	REC_WORD	6857744	wordpools/wasnorm_wordpool_576.txt	LTP389	ltpFR2	3	12	MARSH	874	n/a	n/a	0	0	0
3354.60498046875	n/a	REC_WORD	6870231	wordpools/wasnorm_wordpool_576.txt	LTP389	ltpFR2	3	12	VIKING	1565	n/a	n/a	0	0	0
3362.482421875	n/a	REC_WORD	6886364	wordpools/wasnorm_wordpool_576.txt	LTP389	ltpFR2	3	12	WASHER	1592	n/a	n/a	0	0	0
3370.2861328125	n/a	REC_WORD	6902346	wordpools/wasnorm_wordpool_576.txt	LTP389	ltpFR2	3	12	HAND	683	n/a	n/a	0	0	0
3413.18115234375	n/a	WORD	6990195	wordpools/wasnorm_wordpool_576.txt	LTP389	ltpFR2	3	13	LAPEL	800	n/a	n/a	0	0	0
3415.69775390625	n/a	WORD	6995349	wordpools/wasnorm_wordpool_576.txt	LTP389	ltpFR2	3	13	VICTIM	1562	n/a	n/a	0	0	0
3418.33056640625	n/a	WORD	7000741	wordpools/wasnorm_wordpool_576.txt	LTP389	ltpFR2	3	13	POSSUM	1112	n/a	n/a	0	0	0
3420.7978515625	n/a	WORD	7005794	wordpools/wasnorm_wordpool_576.txt	LTP389	ltpFR2	3	13	LEG	809	n/a	n/a	0	0	0
3423.24755859375	n/a	WORD	7010811	wordpools/wasnorm_wordpool_576.txt	LTP389	ltpFR2	3	13	ARM	38	n/a	n/a	0	0	0
3425.9306640625	n/a	WORD	7016306	wordpools/wasnorm_wordpool_576.txt	LTP389	ltpFR2	3	13	SCISSORS	1250	n/a	n/a	0	0	0
3428.36328125	n/a	WORD	7021288	wordpools/wasnorm_wordpool_576.txt	LTP389	ltpFR2	3	13	BRANDY	169	n/a	n/a	0	0	0
3430.896484375	n/a	WORD	7026476	wordpools/wasnorm_wordpool_576.txt	LTP389	ltpFR2	3	13	FLASK	576	n/a	n/a	0	0	0
3433.43017578125	n/a	WORD	7031665	wordpools/wasnorm_wordpool_576.txt	LTP389	ltpFR2	3	13	PEDAL	1037	n/a	n/a	0	0	0
3435.99609375	n/a	WORD	7036920	wordpools/wasnorm_wordpool_576.txt	LTP389	ltpFR2	3	13	MOTOR	922	n/a	n/a	0	0	0
3438.76318359375	n/a	WORD	7042587	wordpools/wasnorm_wordpool_576.txt	LTP389	ltpFR2	3	13	FREEZER	604	n/a	n/a	0	0	0
3441.26318359375	n/a	WORD	7047707	wordpools/wasnorm_wordpool_576.txt	LTP389	ltpFR2	3	13	PRINCE	1124	n/a	n/a	0	0	0
3443.86279296875	n/a	WORD	7053031	wordpools/wasnorm_wordpool_576.txt	LTP389	ltpFR2	3	13	TART	1436	n/a	n/a	0	0	0
3446.41259765625	n/a	WORD	7058253	wordpools/wasnorm_wordpool_576.txt	LTP389	ltpFR2	3	13	MONEY	908	n/a	n/a	0	0	0
3448.962890625	n/a	WORD	7063476	wordpools/wasnorm_wordpool_576.txt	LTP389	ltpFR2	3	13	HANDBAG	684	n/a	n/a	0	0	0
3451.6455078125	n/a	WORD	7068970	wordpools/wasnorm_wordpool_576.txt	LTP389	ltpFR2	3	13	CRAYON	401	n/a	n/a	0	0	0
3454.24560546875	n/a	WORD	7074295	wordpools/wasnorm_wordpool_576.txt	LTP389	ltpFR2	3	13	SCRIBBLE	1256	n/a	n/a	0	0	0
3456.7783203125	n/a	WORD	7079482	wordpools/wasnorm_wordpool_576.txt	LTP389	ltpFR2	3	13	PADDING	999	n/a	n/a	0	0	0
3459.57861328125	n/a	WORD	7085217	wordpools/wasnorm_wordpool_576.txt	LTP389	ltpFR2	3	13	DIME	466	n/a	n/a	0	0	0
3462.078125	n/a	WORD	7090336	wordpools/wasnorm_wordpool_576.txt	LTP389	ltpFR2	3	13	ICEBERG	731	n/a	n/a	0	0	0
3464.62841796875	n/a	WORD	7095559	wordpools/wasnorm_wordpool_576.txt	LTP389	ltpFR2	3	13	PARTNER	1017	n/a	n/a	0	0	0
3467.06201171875	n/a	WORD	7100543	wordpools/wasnorm_wordpool_576.txt	LTP389	ltpFR2	3	13	CORAL	378	n/a	n/a	0	0	0
3469.72802734375	n/a	WORD	7106003	wordpools/wasnorm_wordpool_576.txt	LTP389	ltpFR2	3	13	BOARD	143	n/a	n/a	0	0	0
3472.4599609375	n/a	WORD	7111598	wordpools/wasnorm_wordpool_576.txt	LTP389	ltpFR2	3	13	MATTRESS	879	n/a	n/a	0	0	0
3474.06201171875	n/a	START	7114879	n/a	LTP389	ltpFR2	3	n/a	n/a	n/a	19	n/a	n/a	n/a	n/a
3475.22998046875	n/a	DISTRACTOR	7117271	n/a	LTP389	ltpFR2	3	13	n/a	n/a	n/a	n/a	0	0	0
3475.2451171875	n/a	PROB	7117302	n/a	LTP389	ltpFR2	3	n/a	n/a	n/a	19	16	6	8	2
3477.57763671875	n/a	PROB	7122079	n/a	LTP389	ltpFR2	3	n/a	n/a	n/a	19	16	3	8	5
3479.14453125	n/a	PROB	7125288	n/a	LTP389	ltpFR2	3	n/a	n/a	n/a	19	16	6	1	9
3480.64453125	n/a	PROB	7128360	n/a	LTP389	ltpFR2	3	n/a	n/a	n/a	19	13	9	1	3
3482.16064453125	n/a	PROB	7131465	n/a	LTP389	ltpFR2	3	n/a	n/a	n/a	19	13	6	2	7
3483.86083984375	n/a	PROB	7134947	n/a	LTP389	ltpFR2	3	n/a	n/a	n/a	19	20	8	6	6
3486.37744140625	n/a	PROB	7140101	n/a	LTP389	ltpFR2	3	n/a	n/a	n/a	19	10	2	4	4
3487.77734375	n/a	PROB	7142968	n/a	LTP389	ltpFR2	3	n/a	n/a	n/a	19	14	8	2	4
3489.16064453125	n/a	PROB	7145801	n/a	LTP389	ltpFR2	3	n/a	n/a	n/a	19	16	7	4	5
3492.51025390625	n/a	PROB	7152661	n/a	LTP389	ltpFR2	3	n/a	n/a	n/a	19	9	3	4	2
3494.21044921875	n/a	PROB	7156143	n/a	LTP389	ltpFR2	3	n/a	n/a	n/a	19	26	9	9	8
3497.59423828125	n/a	STOP	7163073	n/a	LTP389	ltpFR2	3	n/a	n/a	n/a	19	n/a	n/a	n/a	n/a
3499.97705078125	n/a	REC_START	7167953	n/a	LTP389	ltpFR2	3	13	n/a	n/a	n/a	n/a	0	0	0
3501.22314453125	n/a	REC_WORD	7170505	wordpools/wasnorm_wordpool_576.txt	LTP389	ltpFR2	3	13	ICEBERG	731	n/a	n/a	0	0	0
3502.212890625	n/a	REC_WORD	7172532	wordpools/wasnorm_wordpool_576.txt	LTP389	ltpFR2	3	13	CORAL	378	n/a	n/a	0	0	0
3504.33984375	n/a	REC_WORD	7176888	wordpools/wasnorm_wordpool_576.txt	LTP389	ltpFR2	3	13	TART	1436	n/a	n/a	0	0	0
3505.24609375	n/a	REC_WORD	7178744	wordpools/wasnorm_wordpool_576.txt	LTP389	ltpFR2	3	13	FREEZER	604	n/a	n/a	0	0	0
3508.349609375	n/a	REC_WORD	7185100	wordpools/wasnorm_wordpool_576.txt	LTP389	ltpFR2	3	13	MONEY	908	n/a	n/a	0	0	0
3510.1337890625	n/a	REC_WORD	7188754	wordpools/wasnorm_wordpool_576.txt	LTP389	ltpFR2	3	13	HANDBAG	684	n/a	n/a	0	0	0
3512.96875	n/a	REC_WORD	7194560	wordpools/wasnorm_wordpool_576.txt	LTP389	ltpFR2	3	13	LAPEL	800	n/a	n/a	0	0	0
3516.3427734375	n/a	REC_WORD	7201470	wordpools/wasnorm_wordpool_576.txt	LTP389	ltpFR2	3	13	LEG	809	n/a	n/a	0	0	0
3517.38330078125	n/a	REC_WORD	7203601	wordpools/wasnorm_wordpool_576.txt	LTP389	ltpFR2	3	13	ARM	38	n/a	n/a	0	0	0
3518.40673828125	n/a	REC_WORD	7205697	wordpools/wasnorm_wordpool_576.txt	LTP389	ltpFR2	3	13	SCISSORS	1250	n/a	n/a	0	0	0
3519.66943359375	n/a	REC_WORD	7208283	wordpools/wasnorm_wordpool_576.txt	LTP389	ltpFR2	3	13	MOTOR	922	n/a	n/a	0	0	0
3520.75634765625	n/a	REC_WORD	7210509	wordpools/wasnorm_wordpool_576.txt	LTP389	ltpFR2	3	13	PEDAL	1037	n/a	n/a	0	0	0
3532.998046875	n/a	REC_WORD	7235580	wordpools/wasnorm_wordpool_576.txt	LTP389	ltpFR2	3	13	BOARD	143	n/a	n/a	0	0	0
3534.14599609375	n/a	REC_WORD	7237931	wordpools/wasnorm_wordpool_576.txt	LTP389	ltpFR2	3	13	DIME	466	n/a	n/a	0	0	0
3555.830078125	n/a	REC_WORD	7282340	wordpools/wasnorm_wordpool_576.txt	LTP389	ltpFR2	3	13	PRINCE	1124	n/a	n/a	0	0	0
3590.43896484375	n/a	WORD	7353219	wordpools/wasnorm_wordpool_576.txt	LTP389	ltpFR2	3	14	BROTHER	179	n/a	n/a	0	0	0
3593.171875	n/a	WORD	7358816	wordpools/wasnorm_wordpool_576.txt	LTP389	ltpFR2	3	14	CATCHER	258	n/a	n/a	0	0	0
3595.88916015625	n/a	WORD	7364381	wordpools/wasnorm_wordpool_576.txt	LTP389	ltpFR2	3	14	PUPPY	1144	n/a	n/a	0	0	0
3598.388671875	n/a	WORD	7369500	wordpools/wasnorm_wordpool_576.txt	LTP389	ltpFR2	3	14	HAMPER	682	n/a	n/a	0	0	0
3601.0888671875	n/a	WORD	7375030	wordpools/wasnorm_wordpool_576.txt	LTP389	ltpFR2	3	14	COUCH	386	n/a	n/a	0	0	0
3603.755859375	n/a	WORD	7380492	wordpools/wasnorm_wordpool_576.txt	LTP389	ltpFR2	3	14	BUNNY	198	n/a	n/a	0	0	0
3606.1884765625	n/a	WORD	7385474	wordpools/wasnorm_wordpool_576.txt	LTP389	ltpFR2	3	14	CABBAGE	210	n/a	n/a	0	0	0
3608.70556640625	n/a	WORD	7390629	wordpools/wasnorm_wordpool_576.txt	LTP389	ltpFR2	3	14	TRANSPLANT	1496	n/a	n/a	0	0	0
3611.37158203125	n/a	WORD	7396089	wordpools/wasnorm_wordpool_576.txt	LTP389	ltpFR2	3	14	BRACES	164	n/a	n/a	0	0	0
3614.1044921875	n/a	WORD	7401686	wordpools/wasnorm_wordpool_576.txt	LTP389	ltpFR2	3	14	RABBIT	1152	n/a	n/a	0	0	0
3616.67138671875	n/a	WORD	7406943	wordpools/wasnorm_wordpool_576.txt	LTP389	ltpFR2	3	14	PISTON	1076	n/a	n/a	0	0	0
3619.22119140625	n/a	WORD	7412165	wordpools/wasnorm_wordpool_576.txt	LTP389	ltpFR2	3	14	DRIVER	499	n/a	n/a	0	0	0
3621.75439453125	n/a	WORD	7417353	wordpools/wasnorm_wordpool_576.txt	LTP389	ltpFR2	3	14	CLAMP	316	n/a	n/a	0	0	0
3624.5712890625	n/a	WORD	7423122	wordpools/wasnorm_wordpool_576.txt	LTP389	ltpFR2	3	14	OUTFIT	988	n/a	n/a	0	0	0
3627.38818359375	n/a	WORD	7428891	wordpools/wasnorm_wordpool_576.txt	LTP389	ltpFR2	3	14	TROUT	1511	n/a	n/a	0	0	0
3630.2041015625	n/a	WORD	7434658	wordpools/wasnorm_wordpool_576.txt	LTP389	ltpFR2	3	14	MARKER	870	n/a	n/a	0	0	0
3633.00390625	n/a	WORD	7440392	wordpools/wasnorm_wordpool_576.txt	LTP389	ltpFR2	3	14	RAZOR	1171	n/a	n/a	0	0	0
3635.6708984375	n/a	WORD	7445854	wordpools/wasnorm_wordpool_576.txt	LTP389	ltpFR2	3	14	SNAKE	1333	n/a	n/a	0	0	0
3638.1865234375	n/a	WORD	7451006	wordpools/wasnorm_wordpool_576.txt	LTP389	ltpFR2	3	14	FRIEND	606	n/a	n/a	0	0	0
3641.00341796875	n/a	WORD	7456775	wordpools/wasnorm_wordpool_576.txt	LTP389	ltpFR2	3	14	BUG	187	n/a	n/a	0	0	0
3643.5703125	n/a	WORD	7462032	wordpools/wasnorm_wordpool_576.txt	LTP389	ltpFR2	3	14	CRAB	397	n/a	n/a	0	0	0
3646.30322265625	n/a	WORD	7467629	wordpools/wasnorm_wordpool_576.txt	LTP389	ltpFR2	3	14	MUFFIN	929	n/a	n/a	0	0	0
3648.93603515625	n/a	WORD	7473021	wordpools/wasnorm_wordpool_576.txt	LTP389	ltpFR2	3	14	SKIRT	1319	n/a	n/a	0	0	0
3651.38623046875	n/a	WORD	7478039	wordpools/wasnorm_wordpool_576.txt	LTP389	ltpFR2	3	14	TWISTER	1530	n/a	n/a	0	0	0
3653.0029296875	n/a	START	7481350	n/a	LTP389	ltpFR2	3	n/a	n/a	n/a	20	n/a	n/a	n/a	n/a
3653.88134765625	n/a	DISTRACTOR	7483149	n/a	LTP389	ltpFR2	3	14	n/a	n/a	n/a	n/a	0	0	0
3653.88623046875	n/a	PROB	7483159	n/a	LTP389	ltpFR2	3	n/a	n/a	n/a	20	18	9	2	8
3656.05322265625	n/a	PROB	7487597	n/a	LTP389	ltpFR2	3	n/a	n/a	n/a	20	20	6	9	5
3658.3359375	n/a	PROB	7492272	n/a	LTP389	ltpFR2	3	n/a	n/a	n/a	20	11	7	2	2
3659.98583984375	n/a	PROB	7495651	n/a	LTP389	ltpFR2	3	n/a	n/a	n/a	20	9	3	2	4
3661.98583984375	n/a	PROB	7499747	n/a	LTP389	ltpFR2	3	n/a	n/a	n/a	20	17	6	3	8
3663.65283203125	n/a	PROB	7503161	n/a	LTP389	ltpFR2	3	n/a	n/a	n/a	20	13	3	3	7
3665.2685546875	n/a	PROB	7506470	n/a	LTP389	ltpFR2	3	n/a	n/a	n/a	20	21	5	8	8
3667.56884765625	n/a	PROB	7511181	n/a	LTP389	ltpFR2	3	n/a	n/a	n/a	20	16	6	4	6
3669.70263671875	n/a	PROB	7515551	n/a	LTP389	ltpFR2	3	n/a	n/a	n/a	20	11	7	1	3
3671.50244140625	n/a	PROB	7519237	n/a	LTP389	ltpFR2	3	n/a	n/a	n/a	20	12	8	3	1
3673.91845703125	n/a	PROB	7524185	n/a	LTP389	ltpFR2	3	n/a	n/a	n/a	20	15	4	8	3
3675.79443359375	n/a	STOP	7528027	n/a	LTP389	ltpFR2	3	n/a	n/a	n/a	20	n/a	n/a	n/a	n/a
3678.93505859375	n/a	REC_START	7534459	n/a	LTP389	ltpFR2	3	14	n/a	n/a	n/a	n/a	0	0	0
3679.72509765625	n/a	REC_WORD	7536077	wordpools/wasnorm_wordpool_576.txt	LTP389	ltpFR2	3	14	BROTHER	179	n/a	n/a	0	0	0
3680.783203125	n/a	REC_WORD	7538244	wordpools/wasnorm_wordpool_576.txt	LTP389	ltpFR2	3	14	CATCHER	258	n/a	n/a	0	0	0
3682.0712890625	n/a	REC_WORD	7540882	wordpools/wasnorm_wordpool_576.txt	LTP389	ltpFR2	3	14	TRANSPLANT	1496	n/a	n/a	0	0	0
3684.60498046875	n/a	REC_WORD	7546071	wordpools/wasnorm_wordpool_576.txt	LTP389	ltpFR2	3	14	BUNNY	198	n/a	n/a	0	0	0
3685.421875	n/a	REC_WORD	7547744	wordpools/wasnorm_wordpool_576.txt	LTP389	ltpFR2	3	14	PUPPY	1144	n/a	n/a	0	0	0
3686.369140625	n/a	REC_WORD	7549684	wordpools/wasnorm_wordpool_576.txt	LTP389	ltpFR2	3	14	RABBIT	1152	n/a	n/a	0	0	0
3688.2919921875	n/a	REC_WORD	7553622	wordpools/wasnorm_wordpool_576.txt	LTP389	ltpFR2	3	14	CABBAGE	210	n/a	n/a	0	0	0
3689.33984375	n/a	REC_WORD	7555768	wordpools/wasnorm_wordpool_576.txt	LTP389	ltpFR2	3	14	MUFFIN	929	n/a	n/a	0	0	0
3690.259765625	n/a	REC_WORD	7557652	wordpools/wasnorm_wordpool_576.txt	LTP389	ltpFR2	3	14	SKIRT	1319	n/a	n/a	0	0	0
3691.7578125	n/a	REC_WORD	7560720	wordpools/wasnorm_wordpool_576.txt	LTP389	ltpFR2	3	14	RAZOR	1171	n/a	n/a	0	0	0
3692.99560546875	n/a	REC_WORD	7563255	wordpools/wasnorm_wordpool_576.txt	LTP389	ltpFR2	3	14	MARKER	870	n/a	n/a	0	0	0
3694.802734375	n/a	REC_WORD	7566956	wordpools/wasnorm_wordpool_576.txt	LTP389	ltpFR2	3	14	HAMPER	682	n/a	n/a	0	0	0
3698.86376953125	n/a	REC_WORD	7575273	wordpools/wasnorm_wordpool_576.txt	LTP389	ltpFR2	3	14	PISTON	1076	n/a	n/a	0	0	0
3704.0283203125	n/a	REC_WORD	7585850	wordpools/wasnorm_wordpool_576.txt	LTP389	ltpFR2	3	14	MATTRESS	879	n/a	n/a	0	0	0
3728.41259765625	n/a	REC_WORD	7635789	wordpools/wasnorm_wordpool_576.txt	LTP389	ltpFR2	3	14	DRIVER	499	n/a	n/a	0	0	0
3769.38134765625	n/a	DISTRACTOR	7719693	n/a	LTP389	ltpFR2	3	15	n/a	n/a	n/a	n/a	0	0	0
3769.38134765625	n/a	START	7719693	n/a	LTP389	ltpFR2	3	n/a	n/a	n/a	21	n/a	n/a	n/a	n/a
3769.3974609375	n/a	PROB	7719726	n/a	LTP389	ltpFR2	3	n/a	n/a	n/a	21	15	6	4	5
3771.197265625	n/a	PROB	7723412	n/a	LTP389	ltpFR2	3	n/a	n/a	n/a	21	12	3	2	7
3774.28125	n/a	PROB	7729728	n/a	LTP389	ltpFR2	3	n/a	n/a	n/a	21	18	6	8	4
3776.76416015625	n/a	PROB	7734813	n/a	LTP389	ltpFR2	3	n/a	n/a	n/a	21	13	1	7	5
3778.43017578125	n/a	PROB	7738225	n/a	LTP389	ltpFR2	3	n/a	n/a	n/a	21	16	2	6	8
3779.697265625	n/a	PROB	7740820	n/a	LTP389	ltpFR2	3	n/a	n/a	n/a	21	19	7	7	5
3781.39697265625	n/a	PROB	7744301	n/a	LTP389	ltpFR2	3	n/a	n/a	n/a	21	3	1	1	1
3782.44580078125	n/a	PROB	7746449	n/a	LTP389	ltpFR2	3	n/a	n/a	n/a	21	15	8	6	3
3784.513671875	n/a	PROB	7750684	n/a	LTP389	ltpFR2	3	n/a	n/a	n/a	21	18	8	5	5
3785.8798828125	n/a	PROB	7753482	n/a	LTP389	ltpFR2	3	n/a	n/a	n/a	21	9	2	2	5
3787.11376953125	n/a	PROB	7756009	n/a	LTP389	ltpFR2	3	n/a	n/a	n/a	21	14	2	6	6
3788.4296875	n/a	PROB	7758704	n/a	LTP389	ltpFR2	3	n/a	n/a	n/a	21	17	6	4	7
3789.763671875	n/a	PROB	7761436	n/a	LTP389	ltpFR2	3	n/a	n/a	n/a	21	15	4	6	5
3790.94677734375	n/a	PROB	7763859	n/a	LTP389	ltpFR2	3	n/a	n/a	n/a	21	21	8	9	4
3793.24951171875	n/a	STOP	7768575	n/a	LTP389	ltpFR2	3	n/a	n/a	n/a	21	n/a	n/a	n/a	n/a
3794.5634765625	n/a	WORD	7771266	wordpools/wasnorm_wordpool_576.txt	LTP389	ltpFR2	3	15	FLUTE	585	n/a	n/a	0	0	0
3797.0966796875	n/a	WORD	7776454	wordpools/wasnorm_wordpool_576.txt	LTP389	ltpFR2	3	15	JURY	766	n/a	n/a	0	0	0
3799.76220703125	n/a	WORD	7781913	wordpools/wasnorm_wordpool_576.txt	LTP389	ltpFR2	3	15	ASIA	46	n/a	n/a	0	0	0
3802.26220703125	n/a	WORD	7787033	wordpools/wasnorm_wordpool_576.txt	LTP389	ltpFR2	3	15	COOK	372	n/a	n/a	0	0	0
3804.6962890625	n/a	WORD	7792018	wordpools/wasnorm_wordpool_576.txt	LTP389	ltpFR2	3	15	HATCHET	691	n/a	n/a	0	0	0
3807.42919921875	n/a	WORD	7797615	wordpools/wasnorm_wordpool_576.txt	LTP389	ltpFR2	3	15	FIDDLE	561	n/a	n/a	0	0	0
3810.0458984375	n/a	WORD	7802974	wordpools/wasnorm_wordpool_576.txt	LTP389	ltpFR2	3	15	PIANO	1057	n/a	n/a	0	0	0
3812.77880859375	n/a	WORD	7808571	wordpools/wasnorm_wordpool_576.txt	LTP389	ltpFR2	3	15	GRIZZLY	662	n/a	n/a	0	0	0
3815.44482421875	n/a	WORD	7814031	wordpools/wasnorm_wordpool_576.txt	LTP389	ltpFR2	3	15	CATTLE	261	n/a	n/a	0	0	0
3817.87890625	n/a	WORD	7819016	wordpools/wasnorm_wordpool_576.txt	LTP389	ltpFR2	3	15	PECAN	1036	n/a	n/a	0	0	0
3820.32861328125	n/a	WORD	7824033	wordpools/wasnorm_wordpool_576.txt	LTP389	ltpFR2	3	15	JOURNAL	760	n/a	n/a	0	0	0
3822.99462890625	n/a	WORD	7829493	wordpools/wasnorm_wordpool_576.txt	LTP389	ltpFR2	3	15	SHELF	1280	n/a	n/a	0	0	0
3825.62841796875	n/a	WORD	7834887	wordpools/wasnorm_wordpool_576.txt	LTP389	ltpFR2	3	15	FIREMAN	569	n/a	n/a	0	0	0
3828.14453125	n/a	WORD	7840040	wordpools/wasnorm_wordpool_576.txt	LTP389	ltpFR2	3	15	TRACTOR	1493	n/a	n/a	0	0	0
3830.861328125	n/a	WORD	7845604	wordpools/wasnorm_wordpool_576.txt	LTP389	ltpFR2	3	15	JEANS	752	n/a	n/a	0	0	0
3833.6611328125	n/a	WORD	7851338	wordpools/wasnorm_wordpool_576.txt	LTP389	ltpFR2	3	15	DRILL	497	n/a	n/a	0	0	0
3836.37841796875	n/a	WORD	7856903	wordpools/wasnorm_wordpool_576.txt	LTP389	ltpFR2	3	15	CASHIER	254	n/a	n/a	0	0	0
3839.1611328125	n/a	WORD	7862602	wordpools/wasnorm_wordpool_576.txt	LTP389	ltpFR2	3	15	POLICE	1098	n/a	n/a	0	0	0
3841.67724609375	n/a	WORD	7867755	wordpools/wasnorm_wordpool_576.txt	LTP389	ltpFR2	3	15	OUTLAW	989	n/a	n/a	0	0	0
3844.36083984375	n/a	WORD	7873251	wordpools/wasnorm_wordpool_576.txt	LTP389	ltpFR2	3	15	CONCERT	360	n/a	n/a	0	0	0
3847.0107421875	n/a	WORD	7878678	wordpools/wasnorm_wordpool_576.txt	LTP389	ltpFR2	3	15	FILM	565	n/a	n/a	0	0	0
3849.7109375	n/a	WORD	7884208	wordpools/wasnorm_wordpool_576.txt	LTP389	ltpFR2	3	15	TOURIST	1488	n/a	n/a	0	0	0
3852.5107421875	n/a	WORD	7889942	wordpools/wasnorm_wordpool_576.txt	LTP389	ltpFR2	3	15	PEANUT	1032	n/a	n/a	0	0	0
3855.04345703125	n/a	WORD	7895129	wordpools/wasnorm_wordpool_576.txt	LTP389	ltpFR2	3	15	LUGGAGE	847	n/a	n/a	0	0	0
3856.66064453125	n/a	START	7898441	n/a	LTP389	ltpFR2	3	n/a	n/a	n/a	22	n/a	n/a	n/a	n/a
3857.75341796875	n/a	DISTRACTOR	7900679	n/a	LTP389	ltpFR2	3	15	n/a	n/a	n/a	n/a	0	0	0
3857.7607421875	n/a	PROB	7900694	n/a	LTP389	ltpFR2	3	n/a	n/a	n/a	22	20	8	3	9
3859.84326171875	n/a	PROB	7904959	n/a	LTP389	ltpFR2	3	n/a	n/a	n/a	22	9	1	2	6
3861.12646484375	n/a	PROB	7907587	n/a	LTP389	ltpFR2	3	n/a	n/a	n/a	22	8	2	4	2
3862.810546875	n/a	PROB	7911036	n/a	LTP389	ltpFR2	3	n/a	n/a	n/a	22	11	2	1	8
3864.37646484375	n/a	PROB	7914243	n/a	LTP389	ltpFR2	3	n/a	n/a	n/a	22	14	5	4	5
3865.96044921875	n/a	PROB	7917487	n/a	LTP389	ltpFR2	3	n/a	n/a	n/a	22	11	1	1	9
3867.193359375	n/a	PROB	7920012	n/a	LTP389	ltpFR2	3	n/a	n/a	n/a	22	13	5	6	2
3868.9091796875	n/a	PROB	7923526	n/a	LTP389	ltpFR2	3	n/a	n/a	n/a	22	12	2	2	8
3870.84326171875	n/a	PROB	7927487	n/a	LTP389	ltpFR2	3	n/a	n/a	n/a	22	18	6	5	7
3872.30908203125	n/a	PROB	7930489	n/a	LTP389	ltpFR2	3	n/a	n/a	n/a	22	18	3	8	7
3874.35888671875	n/a	PROB	7934687	n/a	LTP389	ltpFR2	3	n/a	n/a	n/a	22	13	1	6	6
3875.57568359375	n/a	PROB	7937179	n/a	LTP389	ltpFR2	3	n/a	n/a	n/a	22	22	9	8	5
3878.0087890625	n/a	PROB	7942162	n/a	LTP389	ltpFR2	3	n/a	n/a	n/a	22	14	6	4	4
3879.73779296875	n/a	STOP	7945703	n/a	LTP389	ltpFR2	3	n/a	n/a	n/a	22	n/a	n/a	n/a	n/a
3882.5927734375	n/a	REC_START	7951550	n/a	LTP389	ltpFR2	3	15	n/a	n/a	n/a	n/a	0	0	0
3883.2705078125	n/a	REC_WORD	7952938	wordpools/wasnorm_wordpool_576.txt	LTP389	ltpFR2	3	15	FLUTE	585	n/a	n/a	0	0	0
3884.46044921875	n/a	REC_WORD	7955375	wordpools/wasnorm_wordpool_576.txt	LTP389	ltpFR2	3	15	JURY	766	n/a	n/a	0	0	0
3885.509765625	n/a	REC_WORD	7957524	wordpools/wasnorm_wordpool_576.txt	LTP389	ltpFR2	3	15	ASIA	46	n/a	n/a	0	0	0
3888.3115234375	n/a	REC_WORD	7963262	wordpools/wasnorm_wordpool_576.txt	LTP389	ltpFR2	3	15	HATCHET	691	n/a	n/a	0	0	0
3891.2705078125	n/a	REC_WORD	7969322	wordpools/wasnorm_wordpool_576.txt	LTP389	ltpFR2	3	15	BANJO	82	n/a	n/a	0	0	0
3892.49951171875	n/a	REC_WORD	7971839	wordpools/wasnorm_wordpool_576.txt	LTP389	ltpFR2	3	15	GRIZZLY	662	n/a	n/a	0	0	0
3896.9013671875	n/a	REC_WORD	7980854	wordpools/wasnorm_wordpool_576.txt	LTP389	ltpFR2	3	15	JEANS	752	n/a	n/a	0	0	0
3898.04443359375	n/a	REC_WORD	7983195	wordpools/wasnorm_wordpool_576.txt	LTP389	ltpFR2	3	15	FIREMAN	569	n/a	n/a	0	0	0
3901.80029296875	n/a	REC_WORD	7990887	wordpools/wasnorm_wordpool_576.txt	LTP389	ltpFR2	3	15	POLICE	1098	n/a	n/a	0	0	0
3935.84912109375	n/a	REC_WORD	8060619	wordpools/wasnorm_wordpool_576.txt	LTP389	ltpFR2	3	15	ROBBER	1197	n/a	n/a	0	0	0
3973.03759765625	n/a	DISTRACTOR	8136781	n/a	LTP389	ltpFR2	3	16	n/a	n/a	n/a	n/a	0	0	0
3973.03759765625	n/a	START	8136781	n/a	LTP389	ltpFR2	3	n/a	n/a	n/a	23	n/a	n/a	n/a	n/a
3973.0546875	n/a	PROB	8136816	n/a	LTP389	ltpFR2	3	n/a	n/a	n/a	23	10	2	5	3
3975.32080078125	n/a	PROB	8141457	n/a	LTP389	ltpFR2	3	n/a	n/a	n/a	23	20	9	2	9
3976.8876953125	n/a	PROB	8144666	n/a	LTP389	ltpFR2	3	n/a	n/a	n/a	23	13	6	1	6
3978.20458984375	n/a	PROB	8147363	n/a	LTP389	ltpFR2	3	n/a	n/a	n/a	23	14	2	8	4
3979.50439453125	n/a	PROB	8150025	n/a	LTP389	ltpFR2	3	n/a	n/a	n/a	23	6	3	1	2
3981.33740234375	n/a	PROB	8153779	n/a	LTP389	ltpFR2	3	n/a	n/a	n/a	23	15	8	5	2
3982.9375	n/a	PROB	8157056	n/a	LTP389	ltpFR2	3	n/a	n/a	n/a	23	12	4	4	4
3984.1875	n/a	PROB	8159616	n/a	LTP389	ltpFR2	3	n/a	n/a	n/a	23	7	2	2	3
3985.88720703125	n/a	PROB	8163097	n/a	LTP389	ltpFR2	3	n/a	n/a	n/a	23	6	1	1	4
3987.08740234375	n/a	PROB	8165555	n/a	LTP389	ltpFR2	3	n/a	n/a	n/a	23	13	1	7	5
3988.72021484375	n/a	PROB	8168899	n/a	LTP389	ltpFR2	3	n/a	n/a	n/a	23	24	6	9	9
3990.453125	n/a	PROB	8172448	n/a	LTP389	ltpFR2	3	n/a	n/a	n/a	23	23	5	8	9
3992.453125	n/a	PROB	8176544	n/a	LTP389	ltpFR2	3	n/a	n/a	n/a	23	6	1	3	2
3993.654296875	n/a	PROB	8179004	n/a	LTP389	ltpFR2	3	n/a	n/a	n/a	23	12	7	3	2
3994.904296875	n/a	PROB	8181564	n/a	LTP389	ltpFR2	3	n/a	n/a	n/a	23	19	2	8	9
3996.05810546875	n/a	STOP	8183927	n/a	LTP389	ltpFR2	3	n/a	n/a	n/a	23	n/a	n/a	n/a	n/a
3998.15380859375	n/a	WORD	8188219	wordpools/wasnorm_wordpool_576.txt	LTP389	ltpFR2	3	16	FLIPPER	580	n/a	n/a	0	0	0
4000.86962890625	n/a	WORD	8193781	wordpools/wasnorm_wordpool_576.txt	LTP389	ltpFR2	3	16	SPACE	1345	n/a	n/a	0	0	0
4003.36962890625	n/a	WORD	8198901	wordpools/wasnorm_wordpool_576.txt	LTP389	ltpFR2	3	16	VENUS	1557	n/a	n/a	0	0	0
4006.0029296875	n/a	WORD	8204294	wordpools/wasnorm_wordpool_576.txt	LTP389	ltpFR2	3	16	KIDNEY	776	n/a	n/a	0	0	0
4008.6025390625	n/a	WORD	8209618	wordpools/wasnorm_wordpool_576.txt	LTP389	ltpFR2	3	16	PERFUME	1049	n/a	n/a	0	0	0
4011.302734375	n/a	WORD	8215148	wordpools/wasnorm_wordpool_576.txt	LTP389	ltpFR2	3	16	PREACHER	1119	n/a	n/a	0	0	0
4014.11962890625	n/a	WORD	8220917	wordpools/wasnorm_wordpool_576.txt	LTP389	ltpFR2	3	16	CHAPEL	280	n/a	n/a	0	0	0
4016.65234375	n/a	WORD	8226104	wordpools/wasnorm_wordpool_576.txt	LTP389	ltpFR2	3	16	KEEPER	769	n/a	n/a	0	0	0
4019.26904296875	n/a	WORD	8231463	wordpools/wasnorm_wordpool_576.txt	LTP389	ltpFR2	3	16	BULLET	194	n/a	n/a	0	0	0
4022.0361328125	n/a	WORD	8237130	wordpools/wasnorm_wordpool_576.txt	LTP389	ltpFR2	3	16	RIFLE	1192	n/a	n/a	0	0	0
4024.81884765625	n/a	WORD	8242829	wordpools/wasnorm_wordpool_576.txt	LTP389	ltpFR2	3	16	XEROX	1628	n/a	n/a	0	0	0
4027.40185546875	n/a	WORD	8248119	wordpools/wasnorm_wordpool_576.txt	LTP389	ltpFR2	3	16	CANYON	235	n/a	n/a	0	0	0
4030.134765625	n/a	WORD	8253716	wordpools/wasnorm_wordpool_576.txt	LTP389	ltpFR2	3	16	UNCLE	1536	n/a	n/a	0	0	0
4032.73486328125	n/a	WORD	8259041	wordpools/wasnorm_wordpool_576.txt	LTP389	ltpFR2	3	16	COMET	353	n/a	n/a	0	0	0
4035.1845703125	n/a	WORD	8264058	wordpools/wasnorm_wordpool_576.txt	LTP389	ltpFR2	3	16	BRIEFCASE	175	n/a	n/a	0	0	0
4037.96875	n/a	WORD	8269760	wordpools/wasnorm_wordpool_576.txt	LTP389	ltpFR2	3	16	STATUE	1374	n/a	n/a	0	0	0
4040.43359375	n/a	WORD	8274808	wordpools/wasnorm_wordpool_576.txt	LTP389	ltpFR2	3	16	PEBBLE	1035	n/a	n/a	0	0	0
4042.8515625	n/a	WORD	8279760	wordpools/wasnorm_wordpool_576.txt	LTP389	ltpFR2	3	16	CELLAR	267	n/a	n/a	0	0	0
4045.6015625	n/a	WORD	8285392	wordpools/wasnorm_wordpool_576.txt	LTP389	ltpFR2	3	16	BASEMENT	94	n/a	n/a	0	0	0
4048.16748046875	n/a	WORD	8290647	wordpools/wasnorm_wordpool_576.txt	LTP389	ltpFR2	3	16	COUNTY	389	n/a	n/a	0	0	0
4050.93408203125	n/a	WORD	8296313	wordpools/wasnorm_wordpool_576.txt	LTP389	ltpFR2	3	16	MILK	895	n/a	n/a	0	0	0
4053.43310546875	n/a	WORD	8301431	wordpools/wasnorm_wordpool_576.txt	LTP389	ltpFR2	3	16	TEMPLE	1448	n/a	n/a	0	0	0
4055.88427734375	n/a	WORD	8306451	wordpools/wasnorm_wordpool_576.txt	LTP389	ltpFR2	3	16	BRICK	172	n/a	n/a	0	0	0
4058.6337890625	n/a	WORD	8312082	wordpools/wasnorm_wordpool_576.txt	LTP389	ltpFR2	3	16	OFFICE	972	n/a	n/a	0	0	0
4060.2509765625	n/a	START	8315394	n/a	LTP389	ltpFR2	3	n/a	n/a	n/a	24	n/a	n/a	n/a	n/a
4061.35302734375	n/a	DISTRACTOR	8317651	n/a	LTP389	ltpFR2	3	16	n/a	n/a	n/a	n/a	0	0	0
4061.36669921875	n/a	PROB	8317679	n/a	LTP389	ltpFR2	3	n/a	n/a	n/a	24	7	1	4	2
4063.083984375	n/a	PROB	8321196	n/a	LTP389	ltpFR2	3	n/a	n/a	n/a	24	15	5	5	5
4064.216796875	n/a	PROB	8323516	n/a	LTP389	ltpFR2	3	n/a	n/a	n/a	24	11	4	6	1
4065.40087890625	n/a	PROB	8325941	n/a	LTP389	ltpFR2	3	n/a	n/a	n/a	24	21	7	6	8
4068.6005859375	n/a	PROB	8332494	n/a	LTP389	ltpFR2	3	n/a	n/a	n/a	24	17	8	4	5
4070.482421875	n/a	PROB	8336348	n/a	LTP389	ltpFR2	3	n/a	n/a	n/a	24	21	6	6	9
4072.482421875	n/a	PROB	8340444	n/a	LTP389	ltpFR2	3	n/a	n/a	n/a	24	20	6	8	6
4075.8662109375	n/a	PROB	8347374	n/a	LTP389	ltpFR2	3	n/a	n/a	n/a	24	17	7	9	1
4077.31640625	n/a	PROB	8350344	n/a	LTP389	ltpFR2	3	n/a	n/a	n/a	24	14	6	2	6
4078.7333984375	n/a	PROB	8353246	n/a	LTP389	ltpFR2	3	n/a	n/a	n/a	24	8	1	5	2
4079.9833984375	n/a	PROB	8355806	n/a	LTP389	ltpFR2	3	n/a	n/a	n/a	24	14	5	5	4
4081.1162109375	n/a	PROB	8358126	n/a	LTP389	ltpFR2	3	n/a	n/a	n/a	24	19	8	6	5
4083.73828125	n/a	STOP	8363496	n/a	LTP389	ltpFR2	3	n/a	n/a	n/a	24	n/a	n/a	n/a	n/a
4086.166015625	n/a	REC_START	8368468	n/a	LTP389	ltpFR2	3	16	n/a	n/a	n/a	n/a	0	0	0
4087.52685546875	n/a	REC_WORD	8371255	wordpools/wasnorm_wordpool_576.txt	LTP389	ltpFR2	3	16	FLIPPER	580	n/a	n/a	0	0	0
4088.85107421875	n/a	REC_WORD	8373967	wordpools/wasnorm_wordpool_576.txt	LTP389	ltpFR2	3	16	KEEPER	769	n/a	n/a	0	0	0
4089.91796875	n/a	REC_WORD	8376152	wordpools/wasnorm_wordpool_576.txt	LTP389	ltpFR2	3	16	SPACE	1345	n/a	n/a	0	0	0
4091.1279296875	n/a	REC_WORD	8378630	wordpools/wasnorm_wordpool_576.txt	LTP389	ltpFR2	3	16	VENUS	1557	n/a	n/a	0	0	0
4094.18994140625	n/a	REC_WORD	8384901	wordpools/wasnorm_wordpool_576.txt	LTP389	ltpFR2	3	16	COMET	353	n/a	n/a	0	0	0
4096.6865234375	n/a	REC_WORD	8390014	wordpools/wasnorm_wordpool_576.txt	LTP389	ltpFR2	3	16	CREATURE	403	n/a	n/a	0	0	0
4097.53662109375	n/a	REC_WORD	8391755	wordpools/wasnorm_wordpool_576.txt	LTP389	ltpFR2	3	16	CHURCH	307	n/a	n/a	0	0	0
4098.36376953125	n/a	REC_WORD	8393449	wordpools/wasnorm_wordpool_576.txt	LTP389	ltpFR2	3	16	TEMPLE	1448	n/a	n/a	0	0	0
4099.2705078125	n/a	REC_WORD	8395306	wordpools/wasnorm_wordpool_576.txt	LTP389	ltpFR2	3	16	STATUE	1374	n/a	n/a	0	0	0
4101.33056640625	n/a	REC_WORD	8399525	wordpools/wasnorm_wordpool_576.txt	LTP389	ltpFR2	3	16	BRIEFCASE	175	n/a	n/a	0	0	0
4109.41650390625	n/a	REC_WORD	8416085	wordpools/wasnorm_wordpool_576.txt	LTP389	ltpFR2	3	16	KIDNEY	776	n/a	n/a	0	0	0
4118.51611328125	n/a	REC_WORD	8434721	wordpools/wasnorm_wordpool_576.txt	LTP389	ltpFR2	3	16	PEBBLE	1035	n/a	n/a	0	0	0
4162.71240234375	n/a	REST_REWET	8525235	n/a	LTP389	ltpFR2	3	16	n/a	n/a	n/a	n/a	0	0	0
4296.05615234375	n/a	WORD	8798323	wordpools/wasnorm_wordpool_576.txt	LTP389	ltpFR2	3	17	CRICKET	408	n/a	n/a	0	0	0
4298.5234375	n/a	WORD	8803376	wordpools/wasnorm_wordpool_576.txt	LTP389	ltpFR2	3	17	BIKE	125	n/a	n/a	0	0	0
4301.13916015625	n/a	WORD	8808733	wordpools/wasnorm_wordpool_576.txt	LTP389	ltpFR2	3	17	HELMET	702	n/a	n/a	0	0	0
4303.921875	n/a	WORD	8814432	wordpools/wasnorm_wordpool_576.txt	LTP389	ltpFR2	3	17	BLADE	134	n/a	n/a	0	0	0
4306.40576171875	n/a	WORD	8819519	wordpools/wasnorm_wordpool_576.txt	LTP389	ltpFR2	3	17	STALLION	1369	n/a	n/a	0	0	0
4309.0888671875	n/a	WORD	8825014	wordpools/wasnorm_wordpool_576.txt	LTP389	ltpFR2	3	17	TERMITE	1451	n/a	n/a	0	0	0
4311.671875	n/a	WORD	8830304	wordpools/wasnorm_wordpool_576.txt	LTP389	ltpFR2	3	17	BRANCH	168	n/a	n/a	0	0	0
4314.45458984375	n/a	WORD	8836003	wordpools/wasnorm_wordpool_576.txt	LTP389	ltpFR2	3	17	TURTLE	1522	n/a	n/a	0	0	0
4317.23876953125	n/a	WORD	8841705	wordpools/wasnorm_wordpool_576.txt	LTP389	ltpFR2	3	17	COBRA	336	n/a	n/a	0	0	0
