mstime	trial_type	stim_file	subject	experiment	session	trial	task	item_name	item_num	recog_conf	resp	color_b	color_g	color_r	case	font
0	SESS_START	n/a	LTP166	ltpFR	1	n/a	n/a	n/a	n/a	5	n/a	n/a	n/a	n/a	n/a	n/a
287491	SESS_START	n/a	LTP166	ltpFR	1	n/a	n/a	n/a	n/a	n/a	n/a	n/a	n/a	n/a	n/a	n/a
359754	WORD	wordpools/wasnorm_wordpool_less_exclusions.txt	LTP166	ltpFR	1	1	0	COBBLER	335	n/a	1	1	0.412841796875	0.57763671875	lower	../fonts/zerothre.ttf
363615	WORD	wordpools/wasnorm_wordpool_less_exclusions.txt	LTP166	ltpFR	1	1	0	MISTER	901	n/a	1	1	0.412841796875	0.57763671875	lower	../fonts/zerothre.ttf
367459	WORD	wordpools/wasnorm_wordpool_less_exclusions.txt	LTP166	ltpFR	1	1	0	BISCUIT	130	n/a	0	1	0.412841796875	0.57763671875	lower	../fonts/zerothre.ttf
371403	WORD	wordpools/wasnorm_wordpool_less_exclusions.txt	LTP166	ltpFR	1	1	0	TOAST	1471	n/a	0	1	0.412841796875	0.57763671875	lower	../fonts/zerothre.ttf
375314	WORD	wordpools/wasnorm_wordpool_less_exclusions.txt	LTP166	ltpFR	1	1	1	CLAY	320	n/a	0	0	0.5869140625	0.422607421875	upper	../fonts/amplitud.ttf
379491	WORD	wordpools/wasnorm_wordpool_less_exclusions.txt	LTP166	ltpFR	1	1	1	TRIGGER	1507	n/a	0	0	0.5869140625	0.422607421875	upper	../fonts/amplitud.ttf
383485	WORD	wordpools/wasnorm_wordpool_less_exclusions.txt	LTP166	ltpFR	1	1	1	GENTLEMAN	631	n/a	1	0	0.5869140625	0.422607421875	upper	../fonts/amplitud.ttf
387562	WORD	wordpools/wasnorm_wordpool_less_exclusions.txt	LTP166	ltpFR	1	1	1	NAIL	936	n/a	0	0	0.5869140625	0.422607421875	upper	../fonts/amplitud.ttf
391640	WORD	wordpools/wasnorm_wordpool_less_exclusions.txt	LTP166	ltpFR	1	1	0	DIRECTOR	471	n/a	1	1	0.412841796875	0.57763671875	lower	../fonts/zerothre.ttf
395600	WORD	wordpools/wasnorm_wordpool_less_exclusions.txt	LTP166	ltpFR	1	1	0	THREAD	1460	n/a	0	1	0.412841796875	0.57763671875	lower	../fonts/zerothre.ttf
399794	WORD	wordpools/wasnorm_wordpool_less_exclusions.txt	LTP166	ltpFR	1	1	0	CAULIFLOWER	262	n/a	0	1	0.412841796875	0.57763671875	lower	../fonts/zerothre.ttf
403921	WORD	wordpools/wasnorm_wordpool_less_exclusions.txt	LTP166	ltpFR	1	1	0	TANGERINE	1431	n/a	0	1	0.412841796875	0.57763671875	lower	../fonts/zerothre.ttf
408115	WORD	wordpools/wasnorm_wordpool_less_exclusions.txt	LTP166	ltpFR	1	1	1	ACTRESS	6	n/a	1	0	0.5869140625	0.422607421875	upper	../fonts/amplitud.ttf
412325	WORD	wordpools/wasnorm_wordpool_less_exclusions.txt	LTP166	ltpFR	1	1	1	VET	1560	n/a	1	0	0.5869140625	0.422607421875	upper	../fonts/amplitud.ttf
416486	WORD	wordpools/wasnorm_wordpool_less_exclusions.txt	LTP166	ltpFR	1	1	1	CHIPMUNK	304	n/a	1	0	0.5869140625	0.422607421875	upper	../fonts/amplitud.ttf
420413	WORD	wordpools/wasnorm_wordpool_less_exclusions.txt	LTP166	ltpFR	1	1	1	LUMBER	848	n/a	0	0	0.5869140625	0.422607421875	upper	../fonts/amplitud.ttf
426212	REC_START	n/a	LTP166	ltpFR	1	1	n/a	n/a	n/a	n/a	n/a	n/a	n/a	n/a	n/a	n/a
427209	REC_WORD	wordpools/wasnorm_wordpool_less_exclusions.txt	LTP166	ltpFR	1	1	1	LUMBER	848	n/a	0	n/a	n/a	n/a	n/a	n/a
428018	REC_WORD	wordpools/wasnorm_wordpool_less_exclusions.txt	LTP166	ltpFR	1	1	1	CHIPMUNK	304	n/a	1	n/a	n/a	n/a	n/a	n/a
429200	REC_WORD	wordpools/wasnorm_wordpool_less_exclusions.txt	LTP166	ltpFR	1	1	1	ACTRESS	6	n/a	1	n/a	n/a	n/a	n/a	n/a
430168	REC_WORD	wordpools/wasnorm_wordpool_less_exclusions.txt	LTP166	ltpFR	1	1	1	GENTLEMAN	631	n/a	1	n/a	n/a	n/a	n/a	n/a
433171	REC_WORD	wordpools/wasnorm_wordpool_less_exclusions.txt	LTP166	ltpFR	1	1	0	TOAST	1471	n/a	0	n/a	n/a	n/a	n/a	n/a
433785	REC_WORD	wordpools/wasnorm_wordpool_less_exclusions.txt	LTP166	ltpFR	1	1	0	CAULIFLOWER	262	n/a	0	n/a	n/a	n/a	n/a	n/a
436957	REC_WORD	wordpools/wasnorm_wordpool_less_exclusions.txt	LTP166	ltpFR	1	1	1	VET	1560	n/a	1	n/a	n/a	n/a	n/a	n/a
440325	REC_WORD	wordpools/wasnorm_wordpool_less_exclusions.txt	LTP166	ltpFR	1	1	0	COBBLER	335	n/a	1	n/a	n/a	n/a	n/a	n/a
444211	REC_WORD	wordpools/wasnorm_wordpool_less_exclusions.txt	LTP166	ltpFR	1	1	1	CLAY	320	n/a	0	n/a	n/a	n/a	n/a	n/a
467927	REC_WORD	wordpools/wasnorm_wordpool_less_exclusions.txt	LTP166	ltpFR	1	1	1	LUMBER	848	n/a	0	n/a	n/a	n/a	n/a	n/a
506368	WORD	wordpools/wasnorm_wordpool_less_exclusions.txt	LTP166	ltpFR	1	2	1	PARTY	1018	n/a	0	0	0.5869140625	0.422607421875	upper	../fonts/amplitud.ttf
510479	WORD	wordpools/wasnorm_wordpool_less_exclusions.txt	LTP166	ltpFR	1	2	1	BUTLER	204	n/a	1	0	0.5869140625	0.422607421875	upper	../fonts/amplitud.ttf
514589	WORD	wordpools/wasnorm_wordpool_less_exclusions.txt	LTP166	ltpFR	1	2	0	DANDELION	438	n/a	0	1	0.412841796875	0.57763671875	lower	../fonts/zerothre.ttf
518450	WORD	wordpools/wasnorm_wordpool_less_exclusions.txt	LTP166	ltpFR	1	2	0	BRACELET	163	n/a	0	1	0.412841796875	0.57763671875	lower	../fonts/zerothre.ttf
522627	WORD	wordpools/wasnorm_wordpool_less_exclusions.txt	LTP166	ltpFR	1	2	0	WIRE	1616	n/a	0	1	0.412841796875	0.57763671875	lower	../fonts/zerothre.ttf
526721	WORD	wordpools/wasnorm_wordpool_less_exclusions.txt	LTP166	ltpFR	1	2	1	PATRIOT	1026	n/a	1	0	0.5869140625	0.422607421875	upper	../fonts/amplitud.ttf
530832	WORD	wordpools/wasnorm_wordpool_less_exclusions.txt	LTP166	ltpFR	1	2	1	BANNER	85	n/a	0	0	0.5869140625	0.422607421875	upper	../fonts/amplitud.ttf
534759	WORD	wordpools/wasnorm_wordpool_less_exclusions.txt	LTP166	ltpFR	1	2	1	HIGHWAY	707	n/a	0	0	0.5869140625	0.422607421875	upper	../fonts/amplitud.ttf
538836	WORD	wordpools/wasnorm_wordpool_less_exclusions.txt	LTP166	ltpFR	1	2	1	HIKER	708	n/a	1	0	0.5869140625	0.422607421875	upper	../fonts/amplitud.ttf
542964	WORD	wordpools/wasnorm_wordpool_less_exclusions.txt	LTP166	ltpFR	1	2	0	TURNIP	1521	n/a	0	1	0.412841796875	0.57763671875	lower	../fonts/zerothre.ttf
547174	WORD	wordpools/wasnorm_wordpool_less_exclusions.txt	LTP166	ltpFR	1	2	0	ANIMAL	23	n/a	1	1	0.412841796875	0.57763671875	lower	../fonts/zerothre.ttf
551285	WORD	wordpools/wasnorm_wordpool_less_exclusions.txt	LTP166	ltpFR	1	2	0	NET	946	n/a	1	1	0.412841796875	0.57763671875	lower	../fonts/zerothre.ttf
555345	WORD	wordpools/wasnorm_wordpool_less_exclusions.txt	LTP166	ltpFR	1	2	0	THORN	1459	n/a	0	1	0.412841796875	0.57763671875	lower	../fonts/zerothre.ttf
559372	WORD	wordpools/wasnorm_wordpool_less_exclusions.txt	LTP166	ltpFR	1	2	0	ORCHID	982	n/a	0	1	0.412841796875	0.57763671875	lower	../fonts/zerothre.ttf
563218	WORD	wordpools/wasnorm_wordpool_less_exclusions.txt	LTP166	ltpFR	1	2	1	FARM	552	n/a	0	0	0.5869140625	0.422607421875	upper	../fonts/amplitud.ttf
567194	WORD	wordpools/wasnorm_wordpool_less_exclusions.txt	LTP166	ltpFR	1	2	1	APPENDAGE	32	n/a	0	0	0.5869140625	0.422607421875	upper	../fonts/amplitud.ttf
573136	REC_START	n/a	LTP166	ltpFR	1	2	n/a	n/a	n/a	n/a	n/a	n/a	n/a	n/a	n/a	n/a
573993	REC_WORD	wordpools/wasnorm_wordpool_less_exclusions.txt	LTP166	ltpFR	1	2	1	APPENDAGE	32	n/a	0	n/a	n/a	n/a	n/a	n/a
575106	REC_WORD	wordpools/wasnorm_wordpool_less_exclusions.txt	LTP166	ltpFR	1	2	1	FARM	552	n/a	0	n/a	n/a	n/a	n/a	n/a
577750	REC_WORD	wordpools/wasnorm_wordpool_less_exclusions.txt	LTP166	ltpFR	1	2	0	ANIMAL	23	n/a	1	n/a	n/a	n/a	n/a	n/a
578733	REC_WORD	wordpools/wasnorm_wordpool_less_exclusions.txt	LTP166	ltpFR	1	2	1	PATRIOT	1026	n/a	1	n/a	n/a	n/a	n/a	n/a
583168	REC_WORD	wordpools/wasnorm_wordpool_less_exclusions.txt	LTP166	ltpFR	1	2	0	DANDELION	438	n/a	0	n/a	n/a	n/a	n/a	n/a
584106	REC_WORD	wordpools/wasnorm_wordpool_less_exclusions.txt	LTP166	ltpFR	1	2	0	BRACELET	163	n/a	0	n/a	n/a	n/a	n/a	n/a
586291	REC_WORD	wordpools/wasnorm_wordpool_less_exclusions.txt	LTP166	ltpFR	1	2	0	ORCHID	982	n/a	0	n/a	n/a	n/a	n/a	n/a
599087	REC_WORD	wordpools/wasnorm_wordpool_less_exclusions.txt	LTP166	ltpFR	1	2	1	BANNER	85	n/a	0	n/a	n/a	n/a	n/a	n/a
609623	REC_WORD	wordpools/wasnorm_wordpool_less_exclusions.txt	LTP166	ltpFR	1	2	1	ACTRESS	6	n/a	1	n/a	n/a	n/a	n/a	n/a
622898	REC_WORD	wordpools/wasnorm_wordpool_less_exclusions.txt	LTP166	ltpFR	1	2	n/a	WRIST	1626	n/a	n/a	n/a	n/a	n/a	n/a	n/a
655412	WORD	wordpools/wasnorm_wordpool_less_exclusions.txt	LTP166	ltpFR	1	3	0	CHICK	296	n/a	0	1	0.412841796875	0.57763671875	lower	../fonts/zerothre.ttf
659456	WORD	wordpools/wasnorm_wordpool_less_exclusions.txt	LTP166	ltpFR	1	3	0	CAKE	219	n/a	0	1	0.412841796875	0.57763671875	lower	../fonts/zerothre.ttf
663517	WORD	wordpools/wasnorm_wordpool_less_exclusions.txt	LTP166	ltpFR	1	3	0	EYE	545	n/a	0	1	0.412841796875	0.57763671875	lower	../fonts/zerothre.ttf
667511	WORD	wordpools/wasnorm_wordpool_less_exclusions.txt	LTP166	ltpFR	1	3	0	DUSTPAN	509	n/a	1	1	0.412841796875	0.57763671875	lower	../fonts/zerothre.ttf
671688	WORD	wordpools/wasnorm_wordpool_less_exclusions.txt	LTP166	ltpFR	1	3	0	FINGER	567	n/a	0	1	0.412841796875	0.57763671875	lower	../fonts/zerothre.ttf
675749	WORD	wordpools/wasnorm_wordpool_less_exclusions.txt	LTP166	ltpFR	1	3	1	WAGON	1578	n/a	0	0	0.5869140625	0.422607421875	upper	../fonts/amplitud.ttf
679660	WORD	wordpools/wasnorm_wordpool_less_exclusions.txt	LTP166	ltpFR	1	3	1	PORCUPINE	1107	n/a	1	0	0.5869140625	0.422607421875	upper	../fonts/amplitud.ttf
683637	WORD	wordpools/wasnorm_wordpool_less_exclusions.txt	LTP166	ltpFR	1	3	1	FARMER	553	n/a	1	0	0.5869140625	0.422607421875	upper	../fonts/amplitud.ttf
687514	WORD	wordpools/wasnorm_wordpool_less_exclusions.txt	LTP166	ltpFR	1	3	1	APARTMENT	30	n/a	0	0	0.5869140625	0.422607421875	upper	../fonts/amplitud.ttf
691625	WORD	wordpools/wasnorm_wordpool_less_exclusions.txt	LTP166	ltpFR	1	3	1	SHELTER	1282	n/a	0	0	0.5869140625	0.422607421875	upper	../fonts/amplitud.ttf
695652	WORD	wordpools/wasnorm_wordpool_less_exclusions.txt	LTP166	ltpFR	1	3	1	GREASE	660	n/a	0	0	0.5869140625	0.422607421875	upper	../fonts/amplitud.ttf
699480	WORD	wordpools/wasnorm_wordpool_less_exclusions.txt	LTP166	ltpFR	1	3	0	WHEEL	1603	n/a	1	1	0.412841796875	0.57763671875	lower	../fonts/zerothre.ttf
703457	WORD	wordpools/wasnorm_wordpool_less_exclusions.txt	LTP166	ltpFR	1	3	0	TAXI	1438	n/a	1	1	0.412841796875	0.57763671875	lower	../fonts/zerothre.ttf
707535	WORD	wordpools/wasnorm_wordpool_less_exclusions.txt	LTP166	ltpFR	1	3	0	PUPIL	1143	n/a	0	1	0.412841796875	0.57763671875	lower	../fonts/zerothre.ttf
711512	WORD	wordpools/wasnorm_wordpool_less_exclusions.txt	LTP166	ltpFR	1	3	1	PRINCE	1124	n/a	1	0	0.5869140625	0.422607421875	upper	../fonts/amplitud.ttf
715573	WORD	wordpools/wasnorm_wordpool_less_exclusions.txt	LTP166	ltpFR	1	3	1	CHICKEN	297	n/a	1	0	0.5869140625	0.422607421875	upper	../fonts/amplitud.ttf
721481	REC_START	n/a	LTP166	ltpFR	1	3	n/a	n/a	n/a	n/a	n/a	n/a	n/a	n/a	n/a	n/a
722419	REC_WORD	wordpools/wasnorm_wordpool_less_exclusions.txt	LTP166	ltpFR	1	3	1	CHICKEN	297	n/a	1	n/a	n/a	n/a	n/a	n/a
723037	REC_WORD	wordpools/wasnorm_wordpool_less_exclusions.txt	LTP166	ltpFR	1	3	1	PORCUPINE	1107	n/a	1	n/a	n/a	n/a	n/a	n/a
724873	REC_WORD	wordpools/wasnorm_wordpool_less_exclusions.txt	LTP166	ltpFR	1	3	1	PRINCE	1124	n/a	1	n/a	n/a	n/a	n/a	n/a
725671	REC_WORD	wordpools/wasnorm_wordpool_less_exclusions.txt	LTP166	ltpFR	1	3	1	FARMER	553	n/a	1	n/a	n/a	n/a	n/a	n/a
727048	REC_WORD	wordpools/wasnorm_wordpool_less_exclusions.txt	LTP166	ltpFR	1	3	0	EYE	545	n/a	0	n/a	n/a	n/a	n/a	n/a
727722	REC_WORD	wordpools/wasnorm_wordpool_less_exclusions.txt	LTP166	ltpFR	1	3	0	PUPIL	1143	n/a	0	n/a	n/a	n/a	n/a	n/a
729183	REC_WORD	wordpools/wasnorm_wordpool_less_exclusions.txt	LTP166	ltpFR	1	3	0	WHEEL	1603	n/a	1	n/a	n/a	n/a	n/a	n/a
729727	REC_WORD	wordpools/wasnorm_wordpool_less_exclusions.txt	LTP166	ltpFR	1	3	0	TAXI	1438	n/a	1	n/a	n/a	n/a	n/a	n/a
736806	REC_WORD	wordpools/wasnorm_wordpool_less_exclusions.txt	LTP166	ltpFR	1	3	0	CAKE	219	n/a	0	n/a	n/a	n/a	n/a	n/a
767162	REC_WORD	wordpools/wasnorm_wordpool_less_exclusions.txt	LTP166	ltpFR	1	3	0	DUSTPAN	509	n/a	1	n/a	n/a	n/a	n/a	n/a
801161	WORD	wordpools/wasnorm_wordpool_less_exclusions.txt	LTP166	ltpFR	1	4	0	JUDGE	761	n/a	1	1	0.412841796875	0.57763671875	lower	../fonts/zerothre.ttf
805355	WORD	wordpools/wasnorm_wordpool_less_exclusions.txt	LTP166	ltpFR	1	4	0	DOCK	477	n/a	1	1	0.412841796875	0.57763671875	lower	../fonts/zerothre.ttf
809499	WORD	wordpools/wasnorm_wordpool_less_exclusions.txt	LTP166	ltpFR	1	4	0	BRAN	167	n/a	0	1	0.412841796875	0.57763671875	lower	../fonts/zerothre.ttf
813376	WORD	wordpools/wasnorm_wordpool_less_exclusions.txt	LTP166	ltpFR	1	4	0	LONDON	843	n/a	1	1	0.412841796875	0.57763671875	lower	../fonts/zerothre.ttf
817304	WORD	wordpools/wasnorm_wordpool_less_exclusions.txt	LTP166	ltpFR	1	4	0	NIGHTGOWN	953	n/a	1	1	0.412841796875	0.57763671875	lower	../fonts/zerothre.ttf
821216	WORD	wordpools/wasnorm_wordpool_less_exclusions.txt	LTP166	ltpFR	1	4	0	HAMMOCK	681	n/a	1	1	0.412841796875	0.57763671875	lower	../fonts/zerothre.ttf
825092	WORD	wordpools/wasnorm_wordpool_less_exclusions.txt	LTP166	ltpFR	1	4	0	TOASTER	1472	n/a	1	1	0.412841796875	0.57763671875	lower	../fonts/zerothre.ttf
828987	WORD	wordpools/wasnorm_wordpool_less_exclusions.txt	LTP166	ltpFR	1	4	0	COTTAGE	384	n/a	1	1	0.412841796875	0.57763671875	lower	../fonts/zerothre.ttf
833030	WORD	wordpools/wasnorm_wordpool_less_exclusions.txt	LTP166	ltpFR	1	4	0	MOTORCYCLE	923	n/a	1	1	0.412841796875	0.57763671875	lower	../fonts/zerothre.ttf
836908	WORD	wordpools/wasnorm_wordpool_less_exclusions.txt	LTP166	ltpFR	1	4	0	BUTTER	205	n/a	0	1	0.412841796875	0.57763671875	lower	../fonts/zerothre.ttf
840769	WORD	wordpools/wasnorm_wordpool_less_exclusions.txt	LTP166	ltpFR	1	4	0	COURT	391	n/a	1	1	0.412841796875	0.57763671875	lower	../fonts/zerothre.ttf
844663	WORD	wordpools/wasnorm_wordpool_less_exclusions.txt	LTP166	ltpFR	1	4	0	PAINT	1003	n/a	1	1	0.412841796875	0.57763671875	lower	../fonts/zerothre.ttf
848607	WORD	wordpools/wasnorm_wordpool_less_exclusions.txt	LTP166	ltpFR	1	4	0	BALLOON	75	n/a	0	1	0.412841796875	0.57763671875	lower	../fonts/zerothre.ttf
852518	WORD	wordpools/wasnorm_wordpool_less_exclusions.txt	LTP166	ltpFR	1	4	0	ATMOSPHERE	54	n/a	1	1	0.412841796875	0.57763671875	lower	../fonts/zerothre.ttf
856562	WORD	wordpools/wasnorm_wordpool_less_exclusions.txt	LTP166	ltpFR	1	4	0	GUM	672	n/a	0	1	0.412841796875	0.57763671875	lower	../fonts/zerothre.ttf
860390	WORD	wordpools/wasnorm_wordpool_less_exclusions.txt	LTP166	ltpFR	1	4	0	SHARK	1275	n/a	1	1	0.412841796875	0.57763671875	lower	../fonts/zerothre.ttf
866266	REC_START	n/a	LTP166	ltpFR	1	4	n/a	n/a	n/a	n/a	n/a	n/a	n/a	n/a	n/a	n/a
867538	REC_WORD	wordpools/wasnorm_wordpool_less_exclusions.txt	LTP166	ltpFR	1	4	0	SHARK	1275	n/a	1	n/a	n/a	n/a	n/a	n/a
868795	REC_WORD	wordpools/wasnorm_wordpool_less_exclusions.txt	LTP166	ltpFR	1	4	0	GUM	672	n/a	0	n/a	n/a	n/a	n/a	n/a
870566	REC_WORD	wordpools/wasnorm_wordpool_less_exclusions.txt	LTP166	ltpFR	1	4	0	LONDON	843	n/a	1	n/a	n/a	n/a	n/a	n/a
871359	REC_WORD	wordpools/wasnorm_wordpool_less_exclusions.txt	LTP166	ltpFR	1	4	0	NIGHTGOWN	953	n/a	1	n/a	n/a	n/a	n/a	n/a
872018	REC_WORD	wordpools/wasnorm_wordpool_less_exclusions.txt	LTP166	ltpFR	1	4	0	COTTAGE	384	n/a	1	n/a	n/a	n/a	n/a	n/a
876697	REC_WORD	wordpools/wasnorm_wordpool_less_exclusions.txt	LTP166	ltpFR	1	4	0	COURT	391	n/a	1	n/a	n/a	n/a	n/a	n/a
913269	REC_WORD	wordpools/wasnorm_wordpool_less_exclusions.txt	LTP166	ltpFR	1	4	0	ATMOSPHERE	54	n/a	1	n/a	n/a	n/a	n/a	n/a
926494	REC_WORD	wordpools/wasnorm_wordpool_less_exclusions.txt	LTP166	ltpFR	1	4	0	TOASTER	1472	n/a	1	n/a	n/a	n/a	n/a	n/a
944747	WORD	wordpools/wasnorm_wordpool_less_exclusions.txt	LTP166	ltpFR	1	5	1	ARCHITECT	36	n/a	1	0	0.5869140625	0.422607421875	upper	../fonts/amplitud.ttf
948674	WORD	wordpools/wasnorm_wordpool_less_exclusions.txt	LTP166	ltpFR	1	5	1	LADDER	793	n/a	0	0	0.5869140625	0.422607421875	upper	../fonts/amplitud.ttf
952702	WORD	wordpools/wasnorm_wordpool_less_exclusions.txt	LTP166	ltpFR	1	5	1	REEF	1177	n/a	1	0	0.5869140625	0.422607421875	upper	../fonts/amplitud.ttf
956729	WORD	wordpools/wasnorm_wordpool_less_exclusions.txt	LTP166	ltpFR	1	5	1	SWAMP	1416	n/a	1	0	0.5869140625	0.422607421875	upper	../fonts/amplitud.ttf
960740	WORD	wordpools/wasnorm_wordpool_less_exclusions.txt	LTP166	ltpFR	1	5	1	CREEK	404	n/a	1	0	0.5869140625	0.422607421875	upper	../fonts/amplitud.ttf
964717	WORD	wordpools/wasnorm_wordpool_less_exclusions.txt	LTP166	ltpFR	1	5	1	QUILT	1151	n/a	0	0	0.5869140625	0.422607421875	upper	../fonts/amplitud.ttf
968928	WORD	wordpools/wasnorm_wordpool_less_exclusions.txt	LTP166	ltpFR	1	5	1	CASTLE	256	n/a	0	0	0.5869140625	0.422607421875	upper	../fonts/amplitud.ttf
972855	WORD	wordpools/wasnorm_wordpool_less_exclusions.txt	LTP166	ltpFR	1	5	1	MOAT	903	n/a	0	0	0.5869140625	0.422607421875	upper	../fonts/amplitud.ttf
976782	WORD	wordpools/wasnorm_wordpool_less_exclusions.txt	LTP166	ltpFR	1	5	1	ZOO	1637	n/a	1	0	0.5869140625	0.422607421875	upper	../fonts/amplitud.ttf
980943	WORD	wordpools/wasnorm_wordpool_less_exclusions.txt	LTP166	ltpFR	1	5	1	JUNGLE	764	n/a	1	0	0.5869140625	0.422607421875	upper	../fonts/amplitud.ttf
984771	WORD	wordpools/wasnorm_wordpool_less_exclusions.txt	LTP166	ltpFR	1	5	1	WASP	1593	n/a	1	0	0.5869140625	0.422607421875	upper	../fonts/amplitud.ttf
988681	WORD	wordpools/wasnorm_wordpool_less_exclusions.txt	LTP166	ltpFR	1	5	1	HORNET	718	n/a	1	0	0.5869140625	0.422607421875	upper	../fonts/amplitud.ttf
992609	WORD	wordpools/wasnorm_wordpool_less_exclusions.txt	LTP166	ltpFR	1	5	1	HELICOPTER	701	n/a	0	0	0.5869140625	0.422607421875	upper	../fonts/amplitud.ttf
996703	WORD	wordpools/wasnorm_wordpool_less_exclusions.txt	LTP166	ltpFR	1	5	1	KITCHEN	778	n/a	0	0	0.5869140625	0.422607421875	upper	../fonts/amplitud.ttf
1000830	WORD	wordpools/wasnorm_wordpool_less_exclusions.txt	LTP166	ltpFR	1	5	1	WITCH	1617	n/a	1	0	0.5869140625	0.422607421875	upper	../fonts/amplitud.ttf
1005007	WORD	wordpools/wasnorm_wordpool_less_exclusions.txt	LTP166	ltpFR	1	5	1	LAKE	796	n/a	1	0	0.5869140625	0.422607421875	upper	../fonts/amplitud.ttf
1010682	REC_START	n/a	LTP166	ltpFR	1	5	n/a	n/a	n/a	n/a	n/a	n/a	n/a	n/a	n/a	n/a
1012528	REC_WORD	wordpools/wasnorm_wordpool_less_exclusions.txt	LTP166	ltpFR	1	5	1	LAKE	796	n/a	1	n/a	n/a	n/a	n/a	n/a
1013725	REC_WORD	wordpools/wasnorm_wordpool_less_exclusions.txt	LTP166	ltpFR	1	5	1	CREEK	404	n/a	1	n/a	n/a	n/a	n/a	n/a
1015456	REC_WORD	wordpools/wasnorm_wordpool_less_exclusions.txt	LTP166	ltpFR	1	5	1	MOAT	903	n/a	0	n/a	n/a	n/a	n/a	n/a
1021138	REC_WORD	wordpools/wasnorm_wordpool_less_exclusions.txt	LTP166	ltpFR	1	5	1	CASTLE	256	n/a	0	n/a	n/a	n/a	n/a	n/a
1023637	REC_WORD	wordpools/wasnorm_wordpool_less_exclusions.txt	LTP166	ltpFR	1	5	1	ARCHITECT	36	n/a	1	n/a	n/a	n/a	n/a	n/a
1030502	REC_WORD	wordpools/wasnorm_wordpool_less_exclusions.txt	LTP166	ltpFR	1	5	1	HORNET	718	n/a	1	n/a	n/a	n/a	n/a	n/a
1031040	REC_WORD	wordpools/wasnorm_wordpool_less_exclusions.txt	LTP166	ltpFR	1	5	1	WASP	1593	n/a	1	n/a	n/a	n/a	n/a	n/a
1059875	REC_WORD	wordpools/wasnorm_wordpool_less_exclusions.txt	LTP166	ltpFR	1	5	n/a	BROOK	177	n/a	n/a	n/a	n/a	n/a	n/a	n/a
1065088	REC_WORD	wordpools/wasnorm_wordpool_less_exclusions.txt	LTP166	ltpFR	1	5	1	JUNGLE	764	n/a	1	n/a	n/a	n/a	n/a	n/a
1066315	REC_WORD	wordpools/wasnorm_wordpool_less_exclusions.txt	LTP166	ltpFR	1	5	1	ZOO	1637	n/a	1	n/a	n/a	n/a	n/a	n/a
1089564	WORD	wordpools/wasnorm_wordpool_less_exclusions.txt	LTP166	ltpFR	1	6	-1	BATTERY	101	n/a	-1	1	1.0	1.0	upper	../fonts/Verdana.ttf
1093591	WORD	wordpools/wasnorm_wordpool_less_exclusions.txt	LTP166	ltpFR	1	6	-1	NEWSSTAND	949	n/a	-1	1	1.0	1.0	upper	../fonts/Verdana.ttf
1097685	WORD	wordpools/wasnorm_wordpool_less_exclusions.txt	LTP166	ltpFR	1	6	-1	RAM	1165	n/a	-1	1	1.0	1.0	upper	../fonts/Verdana.ttf
1101696	WORD	wordpools/wasnorm_wordpool_less_exclusions.txt	LTP166	ltpFR	1	6	-1	FRECKLE	602	n/a	-1	1	1.0	1.0	upper	../fonts/Verdana.ttf
1105557	WORD	wordpools/wasnorm_wordpool_less_exclusions.txt	LTP166	ltpFR	1	6	-1	SKIN	1318	n/a	-1	1	1.0	1.0	upper	../fonts/Verdana.ttf
1109434	WORD	wordpools/wasnorm_wordpool_less_exclusions.txt	LTP166	ltpFR	1	6	-1	ELK	526	n/a	-1	1	1.0	1.0	upper	../fonts/Verdana.ttf
1113628	WORD	wordpools/wasnorm_wordpool_less_exclusions.txt	LTP166	ltpFR	1	6	-1	SNORKEL	1336	n/a	-1	1	1.0	1.0	upper	../fonts/Verdana.ttf
1117805	WORD	wordpools/wasnorm_wordpool_less_exclusions.txt	LTP166	ltpFR	1	6	-1	PLATE	1086	n/a	-1	1	1.0	1.0	upper	../fonts/Verdana.ttf
1121882	WORD	wordpools/wasnorm_wordpool_less_exclusions.txt	LTP166	ltpFR	1	6	-1	BANQUET	86	n/a	-1	1	1.0	1.0	upper	../fonts/Verdana.ttf
1125710	WORD	wordpools/wasnorm_wordpool_less_exclusions.txt	LTP166	ltpFR	1	6	-1	SPRINKLE	1359	n/a	-1	1	1.0	1.0	upper	../fonts/Verdana.ttf
1129671	WORD	wordpools/wasnorm_wordpool_less_exclusions.txt	LTP166	ltpFR	1	6	-1	CAB	209	n/a	-1	1	1.0	1.0	upper	../fonts/Verdana.ttf
1133848	WORD	wordpools/wasnorm_wordpool_less_exclusions.txt	LTP166	ltpFR	1	6	-1	COOLER	375	n/a	-1	1	1.0	1.0	upper	../fonts/Verdana.ttf
1137792	WORD	wordpools/wasnorm_wordpool_less_exclusions.txt	LTP166	ltpFR	1	6	-1	FREEZER	604	n/a	-1	1	1.0	1.0	upper	../fonts/Verdana.ttf
1141886	WORD	wordpools/wasnorm_wordpool_less_exclusions.txt	LTP166	ltpFR	1	6	-1	TERMITE	1451	n/a	-1	1	1.0	1.0	upper	../fonts/Verdana.ttf
1145980	WORD	wordpools/wasnorm_wordpool_less_exclusions.txt	LTP166	ltpFR	1	6	-1	TORTOISE	1486	n/a	-1	1	1.0	1.0	upper	../fonts/Verdana.ttf
1150107	WORD	wordpools/wasnorm_wordpool_less_exclusions.txt	LTP166	ltpFR	1	6	-1	OMELET	976	n/a	-1	1	1.0	1.0	upper	../fonts/Verdana.ttf
1155882	REC_START	n/a	LTP166	ltpFR	1	6	n/a	n/a	n/a	n/a	n/a	n/a	n/a	n/a	n/a	n/a
1157468	REC_WORD	wordpools/wasnorm_wordpool_less_exclusions.txt	LTP166	ltpFR	1	6	-1	OMELET	976	n/a	-1	n/a	n/a	n/a	n/a	n/a
1158067	REC_WORD	wordpools/wasnorm_wordpool_less_exclusions.txt	LTP166	ltpFR	1	6	-1	TORTOISE	1486	n/a	-1	n/a	n/a	n/a	n/a	n/a
1160022	REC_WORD	wordpools/wasnorm_wordpool_less_exclusions.txt	LTP166	ltpFR	1	6	-1	BATTERY	101	n/a	-1	n/a	n/a	n/a	n/a	n/a
1160502	REC_WORD	wordpools/wasnorm_wordpool_less_exclusions.txt	LTP166	ltpFR	1	6	-1	NEWSSTAND	949	n/a	-1	n/a	n/a	n/a	n/a	n/a
1161245	REC_WORD	wordpools/wasnorm_wordpool_less_exclusions.txt	LTP166	ltpFR	1	6	-1	RAM	1165	n/a	-1	n/a	n/a	n/a	n/a	n/a
1161734	REC_WORD	wordpools/wasnorm_wordpool_less_exclusions.txt	LTP166	ltpFR	1	6	-1	SKIN	1318	n/a	-1	n/a	n/a	n/a	n/a	n/a
1162402	REC_WORD	wordpools/wasnorm_wordpool_less_exclusions.txt	LTP166	ltpFR	1	6	-1	FRECKLE	602	n/a	-1	n/a	n/a	n/a	n/a	n/a
1165051	REC_WORD	wordpools/wasnorm_wordpool_less_exclusions.txt	LTP166	ltpFR	1	6	-1	OMELET	976	n/a	-1	n/a	n/a	n/a	n/a	n/a
1170858	REC_WORD	wordpools/wasnorm_wordpool_less_exclusions.txt	LTP166	ltpFR	1	6	-1	ELK	526	n/a	-1	n/a	n/a	n/a	n/a	n/a
1175567	REC_WORD	wordpools/wasnorm_wordpool_less_exclusions.txt	LTP166	ltpFR	1	6	-1	BANQUET	86	n/a	-1	n/a	n/a	n/a	n/a	n/a
1177971	REC_WORD	wordpools/wasnorm_wordpool_less_exclusions.txt	LTP166	ltpFR	1	6	-1	PLATE	1086	n/a	-1	n/a	n/a	n/a	n/a	n/a
1187036	REC_WORD	wordpools/wasnorm_wordpool_less_exclusions.txt	LTP166	ltpFR	1	6	-1	TERMITE	1451	n/a	-1	n/a	n/a	n/a	n/a	n/a
1188947	REC_WORD	wordpools/wasnorm_wordpool_less_exclusions.txt	LTP166	ltpFR	1	6	-1	COOLER	375	n/a	-1	n/a	n/a	n/a	n/a	n/a
1189490	REC_WORD	wordpools/wasnorm_wordpool_less_exclusions.txt	LTP166	ltpFR	1	6	-1	FREEZER	604	n/a	-1	n/a	n/a	n/a	n/a	n/a
1207205	REC_WORD	wordpools/wasnorm_wordpool_less_exclusions.txt	LTP166	ltpFR	1	6	-1	SNORKEL	1336	n/a	-1	n/a	n/a	n/a	n/a	n/a
1236445	WORD	wordpools/wasnorm_wordpool_less_exclusions.txt	LTP166	ltpFR	1	7	0	BINDER	127	n/a	1	1	0.412841796875	0.57763671875	lower	../fonts/zerothre.ttf
1240439	WORD	wordpools/wasnorm_wordpool_less_exclusions.txt	LTP166	ltpFR	1	7	0	ZUCCHINI	1638	n/a	0	1	0.412841796875	0.57763671875	lower	../fonts/zerothre.ttf
1244449	WORD	wordpools/wasnorm_wordpool_less_exclusions.txt	LTP166	ltpFR	1	7	0	MEDAL	885	n/a	0	1	0.412841796875	0.57763671875	lower	../fonts/zerothre.ttf
1248278	WORD	wordpools/wasnorm_wordpool_less_exclusions.txt	LTP166	ltpFR	1	7	0	MINER	896	n/a	1	1	0.412841796875	0.57763671875	lower	../fonts/zerothre.ttf
1252204	WORD	wordpools/wasnorm_wordpool_less_exclusions.txt	LTP166	ltpFR	1	7	0	BAKER	71	n/a	1	1	0.412841796875	0.57763671875	lower	../fonts/zerothre.ttf
1256348	WORD	wordpools/wasnorm_wordpool_less_exclusions.txt	LTP166	ltpFR	1	7	0	GROCERIES	663	n/a	1	1	0.412841796875	0.57763671875	lower	../fonts/zerothre.ttf
1260277	WORD	wordpools/wasnorm_wordpool_less_exclusions.txt	LTP166	ltpFR	1	7	0	PILL	1068	n/a	0	1	0.412841796875	0.57763671875	lower	../fonts/zerothre.ttf
1264238	WORD	wordpools/wasnorm_wordpool_less_exclusions.txt	LTP166	ltpFR	1	7	0	TORNADO	1485	n/a	1	1	0.412841796875	0.57763671875	lower	../fonts/zerothre.ttf
1268131	WORD	wordpools/wasnorm_wordpool_less_exclusions.txt	LTP166	ltpFR	1	7	0	WHEAT	1602	n/a	0	1	0.412841796875	0.57763671875	lower	../fonts/zerothre.ttf
1272108	WORD	wordpools/wasnorm_wordpool_less_exclusions.txt	LTP166	ltpFR	1	7	0	ICEBERG	731	n/a	1	1	0.412841796875	0.57763671875	lower	../fonts/zerothre.ttf
1276220	WORD	wordpools/wasnorm_wordpool_less_exclusions.txt	LTP166	ltpFR	1	7	0	ICE	730	n/a	0	1	0.412841796875	0.57763671875	lower	../fonts/zerothre.ttf
1280312	WORD	wordpools/wasnorm_wordpool_less_exclusions.txt	LTP166	ltpFR	1	7	0	LIVER	833	n/a	0	1	0.412841796875	0.57763671875	lower	../fonts/zerothre.ttf
1284258	WORD	wordpools/wasnorm_wordpool_less_exclusions.txt	LTP166	ltpFR	1	7	0	COMMUNITY	356	n/a	1	1	0.412841796875	0.57763671875	lower	../fonts/zerothre.ttf
1288367	WORD	wordpools/wasnorm_wordpool_less_exclusions.txt	LTP166	ltpFR	1	7	0	OINTMENT	974	n/a	0	1	0.412841796875	0.57763671875	lower	../fonts/zerothre.ttf
1292511	WORD	wordpools/wasnorm_wordpool_less_exclusions.txt	LTP166	ltpFR	1	7	0	COAT	333	n/a	1	1	0.412841796875	0.57763671875	lower	../fonts/zerothre.ttf
1296372	WORD	wordpools/wasnorm_wordpool_less_exclusions.txt	LTP166	ltpFR	1	7	0	POCKET	1093	n/a	0	1	0.412841796875	0.57763671875	lower	../fonts/zerothre.ttf
1302215	REC_START	n/a	LTP166	ltpFR	1	7	n/a	n/a	n/a	n/a	n/a	n/a	n/a	n/a	n/a	n/a
1303307	REC_WORD	wordpools/wasnorm_wordpool_less_exclusions.txt	LTP166	ltpFR	1	7	0	POCKET	1093	n/a	0	n/a	n/a	n/a	n/a	n/a
1304050	REC_WORD	wordpools/wasnorm_wordpool_less_exclusions.txt	LTP166	ltpFR	1	7	0	OINTMENT	974	n/a	0	n/a	n/a	n/a	n/a	n/a
1304834	REC_WORD	wordpools/wasnorm_wordpool_less_exclusions.txt	LTP166	ltpFR	1	7	0	COMMUNITY	356	n/a	1	n/a	n/a	n/a	n/a	n/a
1307802	REC_WORD	wordpools/wasnorm_wordpool_less_exclusions.txt	LTP166	ltpFR	1	7	0	MINER	896	n/a	1	n/a	n/a	n/a	n/a	n/a
1308505	REC_WORD	wordpools/wasnorm_wordpool_less_exclusions.txt	LTP166	ltpFR	1	7	0	BAKER	71	n/a	1	n/a	n/a	n/a	n/a	n/a
1310216	REC_WORD	wordpools/wasnorm_wordpool_less_exclusions.txt	LTP166	ltpFR	1	7	0	GROCERIES	663	n/a	1	n/a	n/a	n/a	n/a	n/a
1315659	REC_WORD	wordpools/wasnorm_wordpool_less_exclusions.txt	LTP166	ltpFR	1	7	0	MEDAL	885	n/a	0	n/a	n/a	n/a	n/a	n/a
1321446	REC_WORD	wordpools/wasnorm_wordpool_less_exclusions.txt	LTP166	ltpFR	1	7	0	BINDER	127	n/a	1	n/a	n/a	n/a	n/a	n/a
1336078	REC_WORD	wordpools/wasnorm_wordpool_less_exclusions.txt	LTP166	ltpFR	1	7	0	WHEAT	1602	n/a	0	n/a	n/a	n/a	n/a	n/a
1339226	REC_WORD	wordpools/wasnorm_wordpool_less_exclusions.txt	LTP166	ltpFR	1	7	0	TORNADO	1485	n/a	1	n/a	n/a	n/a	n/a	n/a
1345372	REC_WORD	wordpools/wasnorm_wordpool_less_exclusions.txt	LTP166	ltpFR	1	7	0	LIVER	833	n/a	0	n/a	n/a	n/a	n/a	n/a
1380829	WORD	wordpools/wasnorm_wordpool_less_exclusions.txt	LTP166	ltpFR	1	8	-1	CHAPEL	280	n/a	-1	1	1.0	1.0	upper	../fonts/Verdana.ttf
1384990	WORD	wordpools/wasnorm_wordpool_less_exclusions.txt	LTP166	ltpFR	1	8	-1	LEADER	807	n/a	-1	1	1.0	1.0	upper	../fonts/Verdana.ttf
1388967	WORD	wordpools/wasnorm_wordpool_less_exclusions.txt	LTP166	ltpFR	1	8	-1	TROMBONE	1508	n/a	-1	1	1.0	1.0	upper	../fonts/Verdana.ttf
1392811	WORD	wordpools/wasnorm_wordpool_less_exclusions.txt	LTP166	ltpFR	1	8	-1	RECORD	1176	n/a	-1	1	1.0	1.0	upper	../fonts/Verdana.ttf
1396922	WORD	wordpools/wasnorm_wordpool_less_exclusions.txt	LTP166	ltpFR	1	8	-1	SEAL	1262	n/a	-1	1	1.0	1.0	upper	../fonts/Verdana.ttf
1400882	WORD	wordpools/wasnorm_wordpool_less_exclusions.txt	LTP166	ltpFR	1	8	-1	FENCE	560	n/a	-1	1	1.0	1.0	upper	../fonts/Verdana.ttf
1404760	WORD	wordpools/wasnorm_wordpool_less_exclusions.txt	LTP166	ltpFR	1	8	-1	AUDIENCE	59	n/a	-1	1	1.0	1.0	upper	../fonts/Verdana.ttf
1408737	WORD	wordpools/wasnorm_wordpool_less_exclusions.txt	LTP166	ltpFR	1	8	-1	MARSH	874	n/a	-1	1	1.0	1.0	upper	../fonts/Verdana.ttf
1412698	WORD	wordpools/wasnorm_wordpool_less_exclusions.txt	LTP166	ltpFR	1	8	-1	SCALLOP	1242	n/a	-1	1	1.0	1.0	upper	../fonts/Verdana.ttf
1416892	WORD	wordpools/wasnorm_wordpool_less_exclusions.txt	LTP166	ltpFR	1	8	-1	CARDINAL	244	n/a	-1	1	1.0	1.0	upper	../fonts/Verdana.ttf
1420919	WORD	wordpools/wasnorm_wordpool_less_exclusions.txt	LTP166	ltpFR	1	8	-1	FRIAR	605	n/a	-1	1	1.0	1.0	upper	../fonts/Verdana.ttf
1425013	WORD	wordpools/wasnorm_wordpool_less_exclusions.txt	LTP166	ltpFR	1	8	-1	PRIEST	1122	n/a	-1	1	1.0	1.0	upper	../fonts/Verdana.ttf
1428907	WORD	wordpools/wasnorm_wordpool_less_exclusions.txt	LTP166	ltpFR	1	8	-1	CANARY	227	n/a	-1	1	1.0	1.0	upper	../fonts/Verdana.ttf
1432851	WORD	wordpools/wasnorm_wordpool_less_exclusions.txt	LTP166	ltpFR	1	8	-1	FAIRY	549	n/a	-1	1	1.0	1.0	upper	../fonts/Verdana.ttf
1437062	WORD	wordpools/wasnorm_wordpool_less_exclusions.txt	LTP166	ltpFR	1	8	-1	PRESIDENT	1121	n/a	-1	1	1.0	1.0	upper	../fonts/Verdana.ttf
1441156	WORD	wordpools/wasnorm_wordpool_less_exclusions.txt	LTP166	ltpFR	1	8	-1	SHORTCAKE	1292	n/a	-1	1	1.0	1.0	upper	../fonts/Verdana.ttf
1447097	REC_START	n/a	LTP166	ltpFR	1	8	n/a	n/a	n/a	n/a	n/a	n/a	n/a	n/a	n/a	n/a
1449272	REC_WORD	wordpools/wasnorm_wordpool_less_exclusions.txt	LTP166	ltpFR	1	8	-1	CHAPEL	280	n/a	-1	n/a	n/a	n/a	n/a	n/a
1450714	REC_WORD	wordpools/wasnorm_wordpool_less_exclusions.txt	LTP166	ltpFR	1	8	-1	LEADER	807	n/a	-1	n/a	n/a	n/a	n/a	n/a
1452140	REC_WORD	wordpools/wasnorm_wordpool_less_exclusions.txt	LTP166	ltpFR	1	8	-1	PRESIDENT	1121	n/a	-1	n/a	n/a	n/a	n/a	n/a
1453008	REC_WORD	wordpools/wasnorm_wordpool_less_exclusions.txt	LTP166	ltpFR	1	8	-1	FRIAR	605	n/a	-1	n/a	n/a	n/a	n/a	n/a
1453802	REC_WORD	wordpools/wasnorm_wordpool_less_exclusions.txt	LTP166	ltpFR	1	8	-1	PRIEST	1122	n/a	-1	n/a	n/a	n/a	n/a	n/a
1457513	REC_WORD	wordpools/wasnorm_wordpool_less_exclusions.txt	LTP166	ltpFR	1	8	-1	SEAL	1262	n/a	-1	n/a	n/a	n/a	n/a	n/a
1458685	REC_WORD	wordpools/wasnorm_wordpool_less_exclusions.txt	LTP166	ltpFR	1	8	-1	FENCE	560	n/a	-1	n/a	n/a	n/a	n/a	n/a
1459573	REC_WORD	wordpools/wasnorm_wordpool_less_exclusions.txt	LTP166	ltpFR	1	8	-1	MARSH	874	n/a	-1	n/a	n/a	n/a	n/a	n/a
1463818	REC_WORD	wordpools/wasnorm_wordpool_less_exclusions.txt	LTP166	ltpFR	1	8	-1	FAIRY	549	n/a	-1	n/a	n/a	n/a	n/a	n/a
1526395	WORD	wordpools/wasnorm_wordpool_less_exclusions.txt	LTP166	ltpFR	1	9	1	CALF	222	n/a	1	0	0.5869140625	0.422607421875	upper	../fonts/amplitud.ttf
1530240	WORD	wordpools/wasnorm_wordpool_less_exclusions.txt	LTP166	ltpFR	1	9	1	COW	393	n/a	1	0	0.5869140625	0.422607421875	upper	../fonts/amplitud.ttf
1534150	WORD	wordpools/wasnorm_wordpool_less_exclusions.txt	LTP166	ltpFR	1	9	1	ESSAY	540	n/a	0	0	0.5869140625	0.422607421875	upper	../fonts/amplitud.ttf
1538161	WORD	wordpools/wasnorm_wordpool_less_exclusions.txt	LTP166	ltpFR	1	9	1	INSECT	740	n/a	1	0	0.5869140625	0.422607421875	upper	../fonts/amplitud.ttf
1542338	WORD	wordpools/wasnorm_wordpool_less_exclusions.txt	LTP166	ltpFR	1	9	1	CONSOLE	364	n/a	0	0	0.5869140625	0.422607421875	upper	../fonts/amplitud.ttf
1546216	WORD	wordpools/wasnorm_wordpool_less_exclusions.txt	LTP166	ltpFR	1	9	1	DEPARTMENT	449	n/a	0	0	0.5869140625	0.422607421875	upper	../fonts/amplitud.ttf
1550210	WORD	wordpools/wasnorm_wordpool_less_exclusions.txt	LTP166	ltpFR	1	9	1	SACK	1220	n/a	0	0	0.5869140625	0.422607421875	upper	../fonts/amplitud.ttf
1554070	WORD	wordpools/wasnorm_wordpool_less_exclusions.txt	LTP166	ltpFR	1	9	1	GRASSHOPPER	656	n/a	1	0	0.5869140625	0.422607421875	upper	../fonts/amplitud.ttf
1557915	WORD	wordpools/wasnorm_wordpool_less_exclusions.txt	LTP166	ltpFR	1	9	1	DRIVEWAY	500	n/a	0	0	0.5869140625	0.422607421875	upper	../fonts/amplitud.ttf
1561875	WORD	wordpools/wasnorm_wordpool_less_exclusions.txt	LTP166	ltpFR	1	9	1	COURSE	390	n/a	0	0	0.5869140625	0.422607421875	upper	../fonts/amplitud.ttf
1565969	WORD	wordpools/wasnorm_wordpool_less_exclusions.txt	LTP166	ltpFR	1	9	1	POLYESTER	1100	n/a	0	0	0.5869140625	0.422607421875	upper	../fonts/amplitud.ttf
1570080	WORD	wordpools/wasnorm_wordpool_less_exclusions.txt	LTP166	ltpFR	1	9	1	SKIRT	1319	n/a	0	0	0.5869140625	0.422607421875	upper	../fonts/amplitud.ttf
1574024	WORD	wordpools/wasnorm_wordpool_less_exclusions.txt	LTP166	ltpFR	1	9	1	CONTRACTOR	369	n/a	0	0	0.5869140625	0.422607421875	upper	../fonts/amplitud.ttf
1577868	WORD	wordpools/wasnorm_wordpool_less_exclusions.txt	LTP166	ltpFR	1	9	1	HOME	712	n/a	0	0	0.5869140625	0.422607421875	upper	../fonts/amplitud.ttf
1582079	WORD	wordpools/wasnorm_wordpool_less_exclusions.txt	LTP166	ltpFR	1	9	1	COIN	343	n/a	0	0	0.5869140625	0.422607421875	upper	../fonts/amplitud.ttf
1586139	WORD	wordpools/wasnorm_wordpool_less_exclusions.txt	LTP166	ltpFR	1	9	1	NOVEL	960	n/a	0	0	0.5869140625	0.422607421875	upper	../fonts/amplitud.ttf
1591814	REC_START	n/a	LTP166	ltpFR	1	9	n/a	n/a	n/a	n/a	n/a	n/a	n/a	n/a	n/a	n/a
1593056	REC_WORD	wordpools/wasnorm_wordpool_less_exclusions.txt	LTP166	ltpFR	1	9	1	NOVEL	960	n/a	0	n/a	n/a	n/a	n/a	n/a
1594058	REC_WORD	wordpools/wasnorm_wordpool_less_exclusions.txt	LTP166	ltpFR	1	9	1	HOME	712	n/a	0	n/a	n/a	n/a	n/a	n/a
1595390	REC_WORD	wordpools/wasnorm_wordpool_less_exclusions.txt	LTP166	ltpFR	1	9	1	DEPARTMENT	449	n/a	0	n/a	n/a	n/a	n/a	n/a
1596587	REC_WORD	wordpools/wasnorm_wordpool_less_exclusions.txt	LTP166	ltpFR	1	9	1	INSECT	740	n/a	1	n/a	n/a	n/a	n/a	n/a
1598389	REC_WORD	wordpools/wasnorm_wordpool_less_exclusions.txt	LTP166	ltpFR	1	9	1	CALF	222	n/a	1	n/a	n/a	n/a	n/a	n/a
1598992	REC_WORD	wordpools/wasnorm_wordpool_less_exclusions.txt	LTP166	ltpFR	1	9	1	COW	393	n/a	1	n/a	n/a	n/a	n/a	n/a
1602948	REC_WORD	wordpools/wasnorm_wordpool_less_exclusions.txt	LTP166	ltpFR	1	9	1	COIN	343	n/a	0	n/a	n/a	n/a	n/a	n/a
1610421	REC_WORD	wordpools/wasnorm_wordpool_less_exclusions.txt	LTP166	ltpFR	1	9	1	DRIVEWAY	500	n/a	0	n/a	n/a	n/a	n/a	n/a
1646774	REC_WORD	wordpools/wasnorm_wordpool_less_exclusions.txt	LTP166	ltpFR	1	9	n/a	NOTEBOOK	959	n/a	n/a	n/a	n/a	n/a	n/a	n/a
1670680	WORD	wordpools/wasnorm_wordpool_less_exclusions.txt	LTP166	ltpFR	1	10	0	VAN	1548	n/a	1	1	0.412841796875	0.57763671875	lower	../fonts/zerothre.ttf
1674557	WORD	wordpools/wasnorm_wordpool_less_exclusions.txt	LTP166	ltpFR	1	10	0	LION	827	n/a	1	1	0.412841796875	0.57763671875	lower	../fonts/zerothre.ttf
1678418	WORD	wordpools/wasnorm_wordpool_less_exclusions.txt	LTP166	ltpFR	1	10	1	SQUID	1361	n/a	1	0	0.5869140625	0.422607421875	upper	../fonts/amplitud.ttf
1682379	WORD	wordpools/wasnorm_wordpool_less_exclusions.txt	LTP166	ltpFR	1	10	1	PASSAGE	1019	n/a	0	0	0.5869140625	0.422607421875	upper	../fonts/amplitud.ttf
1686489	WORD	wordpools/wasnorm_wordpool_less_exclusions.txt	LTP166	ltpFR	1	10	1	KEY	773	n/a	0	0	0.5869140625	0.422607421875	upper	../fonts/amplitud.ttf
1690367	WORD	wordpools/wasnorm_wordpool_less_exclusions.txt	LTP166	ltpFR	1	10	1	CRAB	397	n/a	1	0	0.5869140625	0.422607421875	upper	../fonts/amplitud.ttf
1694311	WORD	wordpools/wasnorm_wordpool_less_exclusions.txt	LTP166	ltpFR	1	10	1	UNIVERSE	1540	n/a	0	0	0.5869140625	0.422607421875	upper	../fonts/amplitud.ttf
1698421	WORD	wordpools/wasnorm_wordpool_less_exclusions.txt	LTP166	ltpFR	1	10	1	WAX	1597	n/a	0	0	0.5869140625	0.422607421875	upper	../fonts/amplitud.ttf
1702382	WORD	wordpools/wasnorm_wordpool_less_exclusions.txt	LTP166	ltpFR	1	10	0	VEIN	1554	n/a	0	1	0.412841796875	0.57763671875	lower	../fonts/zerothre.ttf
1706526	WORD	wordpools/wasnorm_wordpool_less_exclusions.txt	LTP166	ltpFR	1	10	0	METEOR	889	n/a	1	1	0.412841796875	0.57763671875	lower	../fonts/zerothre.ttf
1710453	WORD	wordpools/wasnorm_wordpool_less_exclusions.txt	LTP166	ltpFR	1	10	1	VIOLIN	1571	n/a	0	0	0.5869140625	0.422607421875	upper	../fonts/amplitud.ttf
1714314	WORD	wordpools/wasnorm_wordpool_less_exclusions.txt	LTP166	ltpFR	1	10	1	ORCHESTRA	981	n/a	0	0	0.5869140625	0.422607421875	upper	../fonts/amplitud.ttf
1718243	WORD	wordpools/wasnorm_wordpool_less_exclusions.txt	LTP166	ltpFR	1	10	0	FOE	587	n/a	1	1	0.412841796875	0.57763671875	lower	../fonts/zerothre.ttf
1722119	WORD	wordpools/wasnorm_wordpool_less_exclusions.txt	LTP166	ltpFR	1	10	0	SCARF	1246	n/a	n/a	1	0.412841796875	0.57763671875	lower	../fonts/zerothre.ttf
1725148	SLOW_MSG	n/a	LTP166	ltpFR	1	10	n/a	n/a	n/a	n/a	n/a	n/a	n/a	n/a	n/a	n/a
1727778	WORD	wordpools/wasnorm_wordpool_less_exclusions.txt	LTP166	ltpFR	1	10	0	TRAY	1498	n/a	1	1	0.412841796875	0.57763671875	lower	../fonts/zerothre.ttf
1731788	WORD	wordpools/wasnorm_wordpool_less_exclusions.txt	LTP166	ltpFR	1	10	0	DESSERT	453	n/a	0	1	0.412841796875	0.57763671875	lower	../fonts/zerothre.ttf
1737630	REC_START	n/a	LTP166	ltpFR	1	10	n/a	n/a	n/a	n/a	n/a	n/a	n/a	n/a	n/a	n/a
1738847	REC_WORD	wordpools/wasnorm_wordpool_less_exclusions.txt	LTP166	ltpFR	1	10	0	DESSERT	453	n/a	0	n/a	n/a	n/a	n/a	n/a
1741152	REC_WORD	wordpools/wasnorm_wordpool_less_exclusions.txt	LTP166	ltpFR	1	10	1	PASSAGE	1019	n/a	0	n/a	n/a	n/a	n/a	n/a
1744294	REC_WORD	wordpools/wasnorm_wordpool_less_exclusions.txt	LTP166	ltpFR	1	10	0	SCARF	1246	n/a	n/a	n/a	n/a	n/a	n/a	n/a
1749467	REC_WORD	wordpools/wasnorm_wordpool_less_exclusions.txt	LTP166	ltpFR	1	10	1	SQUID	1361	n/a	1	n/a	n/a	n/a	n/a	n/a
1753599	REC_WORD	wordpools/wasnorm_wordpool_less_exclusions.txt	LTP166	ltpFR	1	10	0	TRAY	1498	n/a	1	n/a	n/a	n/a	n/a	n/a
1768849	REC_WORD	wordpools/wasnorm_wordpool_less_exclusions.txt	LTP166	ltpFR	1	10	1	UNIVERSE	1540	n/a	0	n/a	n/a	n/a	n/a	n/a
1771024	REC_WORD	wordpools/wasnorm_wordpool_less_exclusions.txt	LTP166	ltpFR	1	10	1	KEY	773	n/a	0	n/a	n/a	n/a	n/a	n/a
1781430	REC_WORD	wordpools/wasnorm_wordpool_less_exclusions.txt	LTP166	ltpFR	1	10	0	VEIN	1554	n/a	0	n/a	n/a	n/a	n/a	n/a
1793403	REC_WORD	wordpools/wasnorm_wordpool_less_exclusions.txt	LTP166	ltpFR	1	10	1	WAX	1597	n/a	0	n/a	n/a	n/a	n/a	n/a
1811761	REC_WORD	wordpools/wasnorm_wordpool_less_exclusions.txt	LTP166	ltpFR	1	10	1	VIOLIN	1571	n/a	0	n/a	n/a	n/a	n/a	n/a
1817011	WORD	wordpools/wasnorm_wordpool_less_exclusions.txt	LTP166	ltpFR	1	11	-1	CACTUS	215	n/a	-1	1	1.0	1.0	upper	../fonts/Verdana.ttf
1820972	WORD	wordpools/wasnorm_wordpool_less_exclusions.txt	LTP166	ltpFR	1	11	-1	DRESSER	496	n/a	-1	1	1.0	1.0	upper	../fonts/Verdana.ttf
1824999	WORD	wordpools/wasnorm_wordpool_less_exclusions.txt	LTP166	ltpFR	1	11	-1	ATTIRE	57	n/a	-1	1	1.0	1.0	upper	../fonts/Verdana.ttf
1828960	WORD	wordpools/wasnorm_wordpool_less_exclusions.txt	LTP166	ltpFR	1	11	-1	VESSEL	1558	n/a	-1	1	1.0	1.0	upper	../fonts/Verdana.ttf
1832921	WORD	wordpools/wasnorm_wordpool_less_exclusions.txt	LTP166	ltpFR	1	11	-1	EMPIRE	530	n/a	-1	1	1.0	1.0	upper	../fonts/Verdana.ttf
1836848	WORD	wordpools/wasnorm_wordpool_less_exclusions.txt	LTP166	ltpFR	1	11	-1	TIMBER	1469	n/a	-1	1	1.0	1.0	upper	../fonts/Verdana.ttf
1840709	WORD	wordpools/wasnorm_wordpool_less_exclusions.txt	LTP166	ltpFR	1	11	-1	COUNTRY	388	n/a	-1	1	1.0	1.0	upper	../fonts/Verdana.ttf
1844753	WORD	wordpools/wasnorm_wordpool_less_exclusions.txt	LTP166	ltpFR	1	11	-1	BLUEJAY	141	n/a	-1	1	1.0	1.0	upper	../fonts/Verdana.ttf
1848747	WORD	wordpools/wasnorm_wordpool_less_exclusions.txt	LTP166	ltpFR	1	11	-1	TOWER	1490	n/a	-1	1	1.0	1.0	upper	../fonts/Verdana.ttf
1852608	WORD	wordpools/wasnorm_wordpool_less_exclusions.txt	LTP166	ltpFR	1	11	-1	WORKER	1621	n/a	-1	1	1.0	1.0	upper	../fonts/Verdana.ttf
1856635	WORD	wordpools/wasnorm_wordpool_less_exclusions.txt	LTP166	ltpFR	1	11	-1	CORPORATION	382	n/a	-1	1	1.0	1.0	upper	../fonts/Verdana.ttf
1860579	WORD	wordpools/wasnorm_wordpool_less_exclusions.txt	LTP166	ltpFR	1	11	-1	BOAT	144	n/a	-1	1	1.0	1.0	upper	../fonts/Verdana.ttf
1864457	WORD	wordpools/wasnorm_wordpool_less_exclusions.txt	LTP166	ltpFR	1	11	-1	REFRIGERATOR	1179	n/a	-1	1	1.0	1.0	upper	../fonts/Verdana.ttf
1868651	WORD	wordpools/wasnorm_wordpool_less_exclusions.txt	LTP166	ltpFR	1	11	-1	HOSTESS	723	n/a	-1	1	1.0	1.0	upper	../fonts/Verdana.ttf
1872778	WORD	wordpools/wasnorm_wordpool_less_exclusions.txt	LTP166	ltpFR	1	11	-1	POPE	1105	n/a	-1	1	1.0	1.0	upper	../fonts/Verdana.ttf
1876739	WORD	wordpools/wasnorm_wordpool_less_exclusions.txt	LTP166	ltpFR	1	11	-1	BLOSSOM	138	n/a	-1	1	1.0	1.0	upper	../fonts/Verdana.ttf
1882530	REC_START	n/a	LTP166	ltpFR	1	11	n/a	n/a	n/a	n/a	n/a	n/a	n/a	n/a	n/a	n/a
1883962	REC_WORD	wordpools/wasnorm_wordpool_less_exclusions.txt	LTP166	ltpFR	1	11	-1	BLOSSOM	138	n/a	-1	n/a	n/a	n/a	n/a	n/a
1884840	REC_WORD	wordpools/wasnorm_wordpool_less_exclusions.txt	LTP166	ltpFR	1	11	-1	BOAT	144	n/a	-1	n/a	n/a	n/a	n/a	n/a
1885283	REC_WORD	wordpools/wasnorm_wordpool_less_exclusions.txt	LTP166	ltpFR	1	11	-1	HOSTESS	723	n/a	-1	n/a	n/a	n/a	n/a	n/a
1886132	REC_WORD	wordpools/wasnorm_wordpool_less_exclusions.txt	LTP166	ltpFR	1	11	-1	PRIEST	1122	n/a	-1	n/a	n/a	n/a	n/a	n/a
1887708	REC_WORD	wordpools/wasnorm_wordpool_less_exclusions.txt	LTP166	ltpFR	1	11	-1	CACTUS	215	n/a	-1	n/a	n/a	n/a	n/a	n/a
1888352	REC_WORD	wordpools/wasnorm_wordpool_less_exclusions.txt	LTP166	ltpFR	1	11	-1	DRESSER	496	n/a	-1	n/a	n/a	n/a	n/a	n/a
1889145	REC_WORD	wordpools/wasnorm_wordpool_less_exclusions.txt	LTP166	ltpFR	1	11	-1	ATTIRE	57	n/a	-1	n/a	n/a	n/a	n/a	n/a
1903018	REC_WORD	wordpools/wasnorm_wordpool_less_exclusions.txt	LTP166	ltpFR	1	11	-1	VESSEL	1558	n/a	-1	n/a	n/a	n/a	n/a	n/a
1913414	REC_WORD	wordpools/wasnorm_wordpool_less_exclusions.txt	LTP166	ltpFR	1	11	-1	CORPORATION	382	n/a	-1	n/a	n/a	n/a	n/a	n/a
1950265	REC_WORD	wordpools/wasnorm_wordpool_less_exclusions.txt	LTP166	ltpFR	1	11	-1	REFRIGERATOR	1179	n/a	-1	n/a	n/a	n/a	n/a	n/a
1962777	WORD	wordpools/wasnorm_wordpool_less_exclusions.txt	LTP166	ltpFR	1	12	1	RIVER	1194	n/a	1	0	0.5869140625	0.422607421875	upper	../fonts/amplitud.ttf
1966804	WORD	wordpools/wasnorm_wordpool_less_exclusions.txt	LTP166	ltpFR	1	12	1	BOLT	146	n/a	0	0	0.5869140625	0.422607421875	upper	../fonts/amplitud.ttf
1970682	WORD	wordpools/wasnorm_wordpool_less_exclusions.txt	LTP166	ltpFR	1	12	1	SUN	1406	n/a	0	0	0.5869140625	0.422607421875	upper	../fonts/amplitud.ttf
1974825	WORD	wordpools/wasnorm_wordpool_less_exclusions.txt	LTP166	ltpFR	1	12	1	CLERK	321	n/a	1	0	0.5869140625	0.422607421875	upper	../fonts/amplitud.ttf
1978753	WORD	wordpools/wasnorm_wordpool_less_exclusions.txt	LTP166	ltpFR	1	12	1	SPONGE	1355	n/a	0	0	0.5869140625	0.422607421875	upper	../fonts/amplitud.ttf
1982614	WORD	wordpools/wasnorm_wordpool_less_exclusions.txt	LTP166	ltpFR	1	12	1	SUPERMARKET	1409	n/a	0	0	0.5869140625	0.422607421875	upper	../fonts/amplitud.ttf
1986758	WORD	wordpools/wasnorm_wordpool_less_exclusions.txt	LTP166	ltpFR	1	12	1	COOKBOOK	373	n/a	0	0	0.5869140625	0.422607421875	upper	../fonts/amplitud.ttf
1990935	WORD	wordpools/wasnorm_wordpool_less_exclusions.txt	LTP166	ltpFR	1	12	1	SUBMARINE	1398	n/a	0	0	0.5869140625	0.422607421875	upper	../fonts/amplitud.ttf
1995145	WORD	wordpools/wasnorm_wordpool_less_exclusions.txt	LTP166	ltpFR	1	12	1	SILVERWARE	1308	n/a	0	0	0.5869140625	0.422607421875	upper	../fonts/amplitud.ttf
1999206	WORD	wordpools/wasnorm_wordpool_less_exclusions.txt	LTP166	ltpFR	1	12	1	RAG	1160	n/a	0	0	0.5869140625	0.422607421875	upper	../fonts/amplitud.ttf
2003100	WORD	wordpools/wasnorm_wordpool_less_exclusions.txt	LTP166	ltpFR	1	12	1	PUDDLE	1140	n/a	0	0	0.5869140625	0.422607421875	upper	../fonts/amplitud.ttf
2007094	WORD	wordpools/wasnorm_wordpool_less_exclusions.txt	LTP166	ltpFR	1	12	1	GUARD	667	n/a	1	0	0.5869140625	0.422607421875	upper	../fonts/amplitud.ttf
2011288	WORD	wordpools/wasnorm_wordpool_less_exclusions.txt	LTP166	ltpFR	1	12	1	POLICE	1098	n/a	1	0	0.5869140625	0.422607421875	upper	../fonts/amplitud.ttf
2015448	WORD	wordpools/wasnorm_wordpool_less_exclusions.txt	LTP166	ltpFR	1	12	1	MONUMENT	913	n/a	0	0	0.5869140625	0.422607421875	upper	../fonts/amplitud.ttf
2019342	WORD	wordpools/wasnorm_wordpool_less_exclusions.txt	LTP166	ltpFR	1	12	1	GEM	629	n/a	0	0	0.5869140625	0.422607421875	upper	../fonts/amplitud.ttf
2023221	WORD	wordpools/wasnorm_wordpool_less_exclusions.txt	LTP166	ltpFR	1	12	1	VAGRANT	1544	n/a	1	0	0.5869140625	0.422607421875	upper	../fonts/amplitud.ttf
2029128	REC_START	n/a	LTP166	ltpFR	1	12	n/a	n/a	n/a	n/a	n/a	n/a	n/a	n/a	n/a	n/a
2030140	REC_WORD	wordpools/wasnorm_wordpool_less_exclusions.txt	LTP166	ltpFR	1	12	1	VAGRANT	1544	n/a	1	n/a	n/a	n/a	n/a	n/a
2031408	REC_WORD	wordpools/wasnorm_wordpool_less_exclusions.txt	LTP166	ltpFR	1	12	1	POLICE	1098	n/a	1	n/a	n/a	n/a	n/a	n/a
2032071	REC_WORD	wordpools/wasnorm_wordpool_less_exclusions.txt	LTP166	ltpFR	1	12	1	GUARD	667	n/a	1	n/a	n/a	n/a	n/a	n/a
2045775	REC_WORD	wordpools/wasnorm_wordpool_less_exclusions.txt	LTP166	ltpFR	1	12	1	RAG	1160	n/a	0	n/a	n/a	n/a	n/a	n/a
2046572	REC_WORD	wordpools/wasnorm_wordpool_less_exclusions.txt	LTP166	ltpFR	1	12	1	SPONGE	1355	n/a	0	n/a	n/a	n/a	n/a	n/a
2063929	REC_WORD	wordpools/wasnorm_wordpool_less_exclusions.txt	LTP166	ltpFR	1	12	1	GEM	629	n/a	0	n/a	n/a	n/a	n/a	n/a
2069735	REC_WORD	wordpools/wasnorm_wordpool_less_exclusions.txt	LTP166	ltpFR	1	12	1	SUPERMARKET	1409	n/a	0	n/a	n/a	n/a	n/a	n/a
2085604	REC_WORD	wordpools/wasnorm_wordpool_less_exclusions.txt	LTP166	ltpFR	1	12	1	PUDDLE	1140	n/a	0	n/a	n/a	n/a	n/a	n/a
2103993	REC_WORD_VV	wordpools/wasnorm_wordpool_less_exclusions.txt	LTP166	ltpFR	1	12	n/a	<>	-1	n/a	n/a	n/a	n/a	n/a	n/a	n/a
2104715	REST_REWET	n/a	LTP166	ltpFR	1	12	n/a	n/a	n/a	n/a	n/a	n/a	n/a	n/a	n/a	n/a
2548302	WORD	wordpools/wasnorm_wordpool_less_exclusions.txt	LTP166	ltpFR	1	13	1	VEGETABLE	1552	n/a	1	0	0.5869140625	0.422607421875	upper	../fonts/amplitud.ttf
2552313	WORD	wordpools/wasnorm_wordpool_less_exclusions.txt	LTP166	ltpFR	1	13	1	GUARDIAN	668	n/a	1	0	0.5869140625	0.422607421875	upper	../fonts/amplitud.ttf
2556440	WORD	wordpools/wasnorm_wordpool_less_exclusions.txt	LTP166	ltpFR	1	13	0	CAPTAIN	239	n/a	1	1	0.412841796875	0.57763671875	lower	../fonts/zerothre.ttf
2560318	WORD	wordpools/wasnorm_wordpool_less_exclusions.txt	LTP166	ltpFR	1	13	0	NAVIGATOR	938	n/a	1	1	0.412841796875	0.57763671875	lower	../fonts/zerothre.ttf
2564462	WORD	wordpools/wasnorm_wordpool_less_exclusions.txt	LTP166	ltpFR	1	13	1	MOWER	928	n/a	0	0	0.5869140625	0.422607421875	upper	../fonts/amplitud.ttf
2568539	WORD	wordpools/wasnorm_wordpool_less_exclusions.txt	LTP166	ltpFR	1	13	1	YARD	1630	n/a	0	0	0.5869140625	0.422607421875	upper	../fonts/amplitud.ttf
2572766	WORD	wordpools/wasnorm_wordpool_less_exclusions.txt	LTP166	ltpFR	1	13	0	BACKBONE	66	n/a	n/a	1	0.412841796875	0.57763671875	lower	../fonts/zerothre.ttf
2575795	SLOW_MSG	n/a	LTP166	ltpFR	1	13	n/a	n/a	n/a	n/a	n/a	n/a	n/a	n/a	n/a	n/a
2578191	WORD	wordpools/wasnorm_wordpool_less_exclusions.txt	LTP166	ltpFR	1	13	0	KANGAROO	768	n/a	0	1	0.412841796875	0.57763671875	lower	../fonts/zerothre.ttf
2582135	WORD	wordpools/wasnorm_wordpool_less_exclusions.txt	LTP166	ltpFR	1	13	0	GUEST	669	n/a	1	1	0.412841796875	0.57763671875	lower	../fonts/zerothre.ttf
2586046	WORD	wordpools/wasnorm_wordpool_less_exclusions.txt	LTP166	ltpFR	1	13	0	CUFF	423	n/a	0	1	0.412841796875	0.57763671875	lower	../fonts/zerothre.ttf
2589890	WORD	wordpools/wasnorm_wordpool_less_exclusions.txt	LTP166	ltpFR	1	13	0	BALLOT	76	n/a	0	1	0.412841796875	0.57763671875	lower	../fonts/zerothre.ttf
2593968	WORD	wordpools/wasnorm_wordpool_less_exclusions.txt	LTP166	ltpFR	1	13	0	FOLLOWER	589	n/a	1	1	0.412841796875	0.57763671875	lower	../fonts/zerothre.ttf
2598111	WORD	wordpools/wasnorm_wordpool_less_exclusions.txt	LTP166	ltpFR	1	13	1	PLAID	1080	n/a	0	0	0.5869140625	0.422607421875	upper	../fonts/amplitud.ttf
2601972	WORD	wordpools/wasnorm_wordpool_less_exclusions.txt	LTP166	ltpFR	1	13	1	SANDWICH	1232	n/a	0	0	0.5869140625	0.422607421875	upper	../fonts/amplitud.ttf
2605800	WORD	wordpools/wasnorm_wordpool_less_exclusions.txt	LTP166	ltpFR	1	13	1	MUSHROOM	934	n/a	1	0	0.5869140625	0.422607421875	upper	../fonts/amplitud.ttf
2609661	WORD	wordpools/wasnorm_wordpool_less_exclusions.txt	LTP166	ltpFR	1	13	1	RELATIVE	1182	n/a	3	0	0.5869140625	0.422607421875	upper	../fonts/amplitud.ttf
2611475	KEY_MSG	n/a	LTP166	ltpFR	1	13	n/a	n/a	n/a	n/a	n/a	n/a	n/a	n/a	n/a	n/a
2615902	REC_START	n/a	LTP166	ltpFR	1	13	n/a	n/a	n/a	n/a	n/a	n/a	n/a	n/a	n/a	n/a
2617658	REC_WORD	wordpools/wasnorm_wordpool_less_exclusions.txt	LTP166	ltpFR	1	13	1	RELATIVE	1182	n/a	3	n/a	n/a	n/a	n/a	n/a
2619968	REC_WORD	wordpools/wasnorm_wordpool_less_exclusions.txt	LTP166	ltpFR	1	13	1	MUSHROOM	934	n/a	1	n/a	n/a	n/a	n/a	n/a
2622701	REC_WORD	wordpools/wasnorm_wordpool_less_exclusions.txt	LTP166	ltpFR	1	13	1	PLAID	1080	n/a	0	n/a	n/a	n/a	n/a	n/a
2624756	REC_WORD	wordpools/wasnorm_wordpool_less_exclusions.txt	LTP166	ltpFR	1	13	0	FOLLOWER	589	n/a	1	n/a	n/a	n/a	n/a	n/a
2632837	REC_WORD	wordpools/wasnorm_wordpool_less_exclusions.txt	LTP166	ltpFR	1	13	1	VEGETABLE	1552	n/a	1	n/a	n/a	n/a	n/a	n/a
2638426	REC_WORD	wordpools/wasnorm_wordpool_less_exclusions.txt	LTP166	ltpFR	1	13	0	CUFF	423	n/a	0	n/a	n/a	n/a	n/a	n/a
2641583	REC_WORD	wordpools/wasnorm_wordpool_less_exclusions.txt	LTP166	ltpFR	1	13	0	KANGAROO	768	n/a	0	n/a	n/a	n/a	n/a	n/a
2696514	WORD	wordpools/wasnorm_wordpool_less_exclusions.txt	LTP166	ltpFR	1	14	0	STUDENT	1395	n/a	1	1	0.412841796875	0.57763671875	lower	../fonts/zerothre.ttf
2700691	WORD	wordpools/wasnorm_wordpool_less_exclusions.txt	LTP166	ltpFR	1	14	0	ALMOND	18	n/a	0	1	0.412841796875	0.57763671875	lower	../fonts/zerothre.ttf
2704735	WORD	wordpools/wasnorm_wordpool_less_exclusions.txt	LTP166	ltpFR	1	14	0	CAPE	237	n/a	0	1	0.412841796875	0.57763671875	lower	../fonts/zerothre.ttf
2708730	WORD	wordpools/wasnorm_wordpool_less_exclusions.txt	LTP166	ltpFR	1	14	0	TONGUE	1479	n/a	0	1	0.412841796875	0.57763671875	lower	../fonts/zerothre.ttf
2712940	WORD	wordpools/wasnorm_wordpool_less_exclusions.txt	LTP166	ltpFR	1	14	0	CLAW	319	n/a	0	1	0.412841796875	0.57763671875	lower	../fonts/zerothre.ttf
2716934	WORD	wordpools/wasnorm_wordpool_less_exclusions.txt	LTP166	ltpFR	1	14	0	BELL	118	n/a	0	1	0.412841796875	0.57763671875	lower	../fonts/zerothre.ttf
2720895	WORD	wordpools/wasnorm_wordpool_less_exclusions.txt	LTP166	ltpFR	1	14	0	EGG	518	n/a	0	1	0.412841796875	0.57763671875	lower	../fonts/zerothre.ttf
2724756	WORD	wordpools/wasnorm_wordpool_less_exclusions.txt	LTP166	ltpFR	1	14	0	SKILLET	1317	n/a	1	1	0.412841796875	0.57763671875	lower	../fonts/zerothre.ttf
2728883	WORD	wordpools/wasnorm_wordpool_less_exclusions.txt	LTP166	ltpFR	1	14	0	COLLEGE	346	n/a	1	1	0.412841796875	0.57763671875	lower	../fonts/zerothre.ttf
2733010	WORD	wordpools/wasnorm_wordpool_less_exclusions.txt	LTP166	ltpFR	1	14	0	CASHEW	253	n/a	0	1	0.412841796875	0.57763671875	lower	../fonts/zerothre.ttf
2736954	WORD	wordpools/wasnorm_wordpool_less_exclusions.txt	LTP166	ltpFR	1	14	0	HERO	706	n/a	1	1	0.412841796875	0.57763671875	lower	../fonts/zerothre.ttf
2740915	WORD	wordpools/wasnorm_wordpool_less_exclusions.txt	LTP166	ltpFR	1	14	0	LAPEL	800	n/a	0	1	0.412841796875	0.57763671875	lower	../fonts/zerothre.ttf
2745009	WORD	wordpools/wasnorm_wordpool_less_exclusions.txt	LTP166	ltpFR	1	14	0	SHERIFF	1284	n/a	1	1	0.412841796875	0.57763671875	lower	../fonts/zerothre.ttf
2748920	WORD	wordpools/wasnorm_wordpool_less_exclusions.txt	LTP166	ltpFR	1	14	0	UNIFORM	1539	n/a	0	1	0.412841796875	0.57763671875	lower	../fonts/zerothre.ttf
2752847	WORD	wordpools/wasnorm_wordpool_less_exclusions.txt	LTP166	ltpFR	1	14	0	COLT	349	n/a	1	1	0.412841796875	0.57763671875	lower	../fonts/zerothre.ttf
2756724	WORD	wordpools/wasnorm_wordpool_less_exclusions.txt	LTP166	ltpFR	1	14	0	COACH	331	n/a	1	1	0.412841796875	0.57763671875	lower	../fonts/zerothre.ttf
2762533	REC_START	n/a	LTP166	ltpFR	1	14	n/a	n/a	n/a	n/a	n/a	n/a	n/a	n/a	n/a	n/a
2763356	REC_WORD	wordpools/wasnorm_wordpool_less_exclusions.txt	LTP166	ltpFR	1	14	0	COLT	349	n/a	1	n/a	n/a	n/a	n/a	n/a
2764019	REC_WORD	wordpools/wasnorm_wordpool_less_exclusions.txt	LTP166	ltpFR	1	14	0	COACH	331	n/a	1	n/a	n/a	n/a	n/a	n/a
2764594	REC_WORD	wordpools/wasnorm_wordpool_less_exclusions.txt	LTP166	ltpFR	1	14	0	STUDENT	1395	n/a	1	n/a	n/a	n/a	n/a	n/a
2766239	REC_WORD	wordpools/wasnorm_wordpool_less_exclusions.txt	LTP166	ltpFR	1	14	0	COLLEGE	346	n/a	1	n/a	n/a	n/a	n/a	n/a
2774865	REC_WORD	wordpools/wasnorm_wordpool_less_exclusions.txt	LTP166	ltpFR	1	14	0	CAPE	237	n/a	0	n/a	n/a	n/a	n/a	n/a
2775533	REC_WORD	wordpools/wasnorm_wordpool_less_exclusions.txt	LTP166	ltpFR	1	14	0	HERO	706	n/a	1	n/a	n/a	n/a	n/a	n/a
2809935	REC_WORD	wordpools/wasnorm_wordpool_less_exclusions.txt	LTP166	ltpFR	1	14	0	ALMOND	18	n/a	0	n/a	n/a	n/a	n/a	n/a
2810548	REC_WORD	wordpools/wasnorm_wordpool_less_exclusions.txt	LTP166	ltpFR	1	14	0	CASHEW	253	n/a	0	n/a	n/a	n/a	n/a	n/a
2818302	REC_WORD	wordpools/wasnorm_wordpool_less_exclusions.txt	LTP166	ltpFR	1	14	0	UNIFORM	1539	n/a	0	n/a	n/a	n/a	n/a	n/a
2831915	REC_WORD_VV	wordpools/wasnorm_wordpool_less_exclusions.txt	LTP166	ltpFR	1	14	n/a	<>	-1	n/a	n/a	n/a	n/a	n/a	n/a	n/a
2847389	WORD	wordpools/wasnorm_wordpool_less_exclusions.txt	LTP166	ltpFR	1	15	1	SALOON	1228	n/a	0	0	0.5869140625	0.422607421875	upper	../fonts/amplitud.ttf
2851433	WORD	wordpools/wasnorm_wordpool_less_exclusions.txt	LTP166	ltpFR	1	15	1	WINE	1613	n/a	0	0	0.5869140625	0.422607421875	upper	../fonts/amplitud.ttf
2855610	WORD	wordpools/wasnorm_wordpool_less_exclusions.txt	LTP166	ltpFR	1	15	1	FLANNEL	574	n/a	0	0	0.5869140625	0.422607421875	upper	../fonts/amplitud.ttf
2859821	WORD	wordpools/wasnorm_wordpool_less_exclusions.txt	LTP166	ltpFR	1	15	1	ALLIGATOR	16	n/a	1	0	0.5869140625	0.422607421875	upper	../fonts/amplitud.ttf
2863731	WORD	wordpools/wasnorm_wordpool_less_exclusions.txt	LTP166	ltpFR	1	15	1	COBRA	336	n/a	1	0	0.5869140625	0.422607421875	upper	../fonts/amplitud.ttf
2867942	WORD	wordpools/wasnorm_wordpool_less_exclusions.txt	LTP166	ltpFR	1	15	0	BARRACUDA	90	n/a	1	1	0.412841796875	0.57763671875	lower	../fonts/zerothre.ttf
2871969	WORD	wordpools/wasnorm_wordpool_less_exclusions.txt	LTP166	ltpFR	1	15	0	MONK	910	n/a	1	1	0.412841796875	0.57763671875	lower	../fonts/zerothre.ttf
2876063	WORD	wordpools/wasnorm_wordpool_less_exclusions.txt	LTP166	ltpFR	1	15	0	TOWN	1491	n/a	1	1	0.412841796875	0.57763671875	lower	../fonts/zerothre.ttf
2880241	WORD	wordpools/wasnorm_wordpool_less_exclusions.txt	LTP166	ltpFR	1	15	0	NICOTINE	951	n/a	0	1	0.412841796875	0.57763671875	lower	../fonts/zerothre.ttf
2884334	WORD	wordpools/wasnorm_wordpool_less_exclusions.txt	LTP166	ltpFR	1	15	0	HOSE	720	n/a	1	1	0.412841796875	0.57763671875	lower	../fonts/zerothre.ttf
2888494	WORD	wordpools/wasnorm_wordpool_less_exclusions.txt	LTP166	ltpFR	1	15	1	FLIPPER	580	n/a	0	0	0.5869140625	0.422607421875	upper	../fonts/amplitud.ttf
2892355	WORD	wordpools/wasnorm_wordpool_less_exclusions.txt	LTP166	ltpFR	1	15	1	LINT	826	n/a	0	0	0.5869140625	0.422607421875	upper	../fonts/amplitud.ttf
2896299	WORD	wordpools/wasnorm_wordpool_less_exclusions.txt	LTP166	ltpFR	1	15	1	BROOK	177	n/a	0	0	0.5869140625	0.422607421875	upper	../fonts/amplitud.ttf
2900127	WORD	wordpools/wasnorm_wordpool_less_exclusions.txt	LTP166	ltpFR	1	15	0	BEAD	103	n/a	0	1	0.412841796875	0.57763671875	lower	../fonts/zerothre.ttf
2904304	WORD	wordpools/wasnorm_wordpool_less_exclusions.txt	LTP166	ltpFR	1	15	0	PEARL	1034	n/a	1	1	0.412841796875	0.57763671875	lower	../fonts/zerothre.ttf
2908331	WORD	wordpools/wasnorm_wordpool_less_exclusions.txt	LTP166	ltpFR	1	15	0	EXPERT	543	n/a	1	1	0.412841796875	0.57763671875	lower	../fonts/zerothre.ttf
2914073	REC_START	n/a	LTP166	ltpFR	1	15	n/a	n/a	n/a	n/a	n/a	n/a	n/a	n/a	n/a	n/a
2915130	REC_WORD	wordpools/wasnorm_wordpool_less_exclusions.txt	LTP166	ltpFR	1	15	0	PEARL	1034	n/a	1	n/a	n/a	n/a	n/a	n/a
2916098	REC_WORD	wordpools/wasnorm_wordpool_less_exclusions.txt	LTP166	ltpFR	1	15	0	EXPERT	543	n/a	1	n/a	n/a	n/a	n/a	n/a
2917081	REC_WORD	wordpools/wasnorm_wordpool_less_exclusions.txt	LTP166	ltpFR	1	15	1	LINT	826	n/a	0	n/a	n/a	n/a	n/a	n/a
2918383	REC_WORD	wordpools/wasnorm_wordpool_less_exclusions.txt	LTP166	ltpFR	1	15	1	SALOON	1228	n/a	0	n/a	n/a	n/a	n/a	n/a
2921890	REC_WORD	wordpools/wasnorm_wordpool_less_exclusions.txt	LTP166	ltpFR	1	15	0	BARRACUDA	90	n/a	1	n/a	n/a	n/a	n/a	n/a
2925512	REC_WORD	wordpools/wasnorm_wordpool_less_exclusions.txt	LTP166	ltpFR	1	15	1	BROOK	177	n/a	0	n/a	n/a	n/a	n/a	n/a
2930105	REC_WORD_VV	wordpools/wasnorm_wordpool_less_exclusions.txt	LTP166	ltpFR	1	15	n/a	<>	-1	n/a	n/a	n/a	n/a	n/a	n/a	n/a
2955025	REC_WORD	wordpools/wasnorm_wordpool_less_exclusions.txt	LTP166	ltpFR	1	15	0	PEARL	1034	n/a	1	n/a	n/a	n/a	n/a	n/a
2956806	REC_WORD	wordpools/wasnorm_wordpool_less_exclusions.txt	LTP166	ltpFR	1	15	0	BEAD	103	n/a	0	n/a	n/a	n/a	n/a	n/a
2979259	REC_WORD	wordpools/wasnorm_wordpool_less_exclusions.txt	LTP166	ltpFR	1	15	1	FLANNEL	574	n/a	0	n/a	n/a	n/a	n/a	n/a
2999247	WORD	wordpools/wasnorm_wordpool_less_exclusions.txt	LTP166	ltpFR	1	16	-1	ORNAMENT	985	n/a	-1	1	1.0	1.0	upper	../fonts/Verdana.ttf
3003107	WORD	wordpools/wasnorm_wordpool_less_exclusions.txt	LTP166	ltpFR	1	16	-1	SKYSCRAPER	1322	n/a	-1	1	1.0	1.0	upper	../fonts/Verdana.ttf
3006967	WORD	wordpools/wasnorm_wordpool_less_exclusions.txt	LTP166	ltpFR	1	16	-1	REPORT	1184	n/a	-1	1	1.0	1.0	upper	../fonts/Verdana.ttf
3010995	WORD	wordpools/wasnorm_wordpool_less_exclusions.txt	LTP166	ltpFR	1	16	-1	ALBUM	14	n/a	-1	1	1.0	1.0	upper	../fonts/Verdana.ttf
3014972	WORD	wordpools/wasnorm_wordpool_less_exclusions.txt	LTP166	ltpFR	1	16	-1	TREE	1502	n/a	-1	1	1.0	1.0	upper	../fonts/Verdana.ttf
3019183	WORD	wordpools/wasnorm_wordpool_less_exclusions.txt	LTP166	ltpFR	1	16	-1	APPLE	33	n/a	-1	1	1.0	1.0	upper	../fonts/Verdana.ttf
3023393	WORD	wordpools/wasnorm_wordpool_less_exclusions.txt	LTP166	ltpFR	1	16	-1	PEAR	1033	n/a	-1	1	1.0	1.0	upper	../fonts/Verdana.ttf
3027370	WORD	wordpools/wasnorm_wordpool_less_exclusions.txt	LTP166	ltpFR	1	16	-1	PADDING	999	n/a	-1	1	1.0	1.0	upper	../fonts/Verdana.ttf
3031315	WORD	wordpools/wasnorm_wordpool_less_exclusions.txt	LTP166	ltpFR	1	16	-1	BLANKET	135	n/a	-1	1	1.0	1.0	upper	../fonts/Verdana.ttf
3035425	WORD	wordpools/wasnorm_wordpool_less_exclusions.txt	LTP166	ltpFR	1	16	-1	BALLERINA	74	n/a	-1	1	1.0	1.0	upper	../fonts/Verdana.ttf
3039635	WORD	wordpools/wasnorm_wordpool_less_exclusions.txt	LTP166	ltpFR	1	16	-1	GOWN	652	n/a	-1	1	1.0	1.0	upper	../fonts/Verdana.ttf
3043829	WORD	wordpools/wasnorm_wordpool_less_exclusions.txt	LTP166	ltpFR	1	16	-1	PRAIRIE	1118	n/a	-1	1	1.0	1.0	upper	../fonts/Verdana.ttf
3047723	WORD	wordpools/wasnorm_wordpool_less_exclusions.txt	LTP166	ltpFR	1	16	-1	PAD	998	n/a	-1	1	1.0	1.0	upper	../fonts/Verdana.ttf
3051900	WORD	wordpools/wasnorm_wordpool_less_exclusions.txt	LTP166	ltpFR	1	16	-1	WALLET	1583	n/a	-1	1	1.0	1.0	upper	../fonts/Verdana.ttf
3055828	WORD	wordpools/wasnorm_wordpool_less_exclusions.txt	LTP166	ltpFR	1	16	-1	GLOVE	642	n/a	-1	1	1.0	1.0	upper	../fonts/Verdana.ttf
3059988	WORD	wordpools/wasnorm_wordpool_less_exclusions.txt	LTP166	ltpFR	1	16	-1	STAPLER	1372	n/a	-1	1	1.0	1.0	upper	../fonts/Verdana.ttf
3065614	REC_START	n/a	LTP166	ltpFR	1	16	n/a	n/a	n/a	n/a	n/a	n/a	n/a	n/a	n/a	n/a
3066113	REC_WORD	wordpools/wasnorm_wordpool_less_exclusions.txt	LTP166	ltpFR	1	16	-1	WALLET	1583	n/a	-1	n/a	n/a	n/a	n/a	n/a
3066582	REC_WORD	wordpools/wasnorm_wordpool_less_exclusions.txt	LTP166	ltpFR	1	16	-1	GLOVE	642	n/a	-1	n/a	n/a	n/a	n/a	n/a
3066940	REC_WORD	wordpools/wasnorm_wordpool_less_exclusions.txt	LTP166	ltpFR	1	16	-1	STAPLER	1372	n/a	-1	n/a	n/a	n/a	n/a	n/a
3069305	REC_WORD	wordpools/wasnorm_wordpool_less_exclusions.txt	LTP166	ltpFR	1	16	-1	PADDING	999	n/a	-1	n/a	n/a	n/a	n/a	n/a
3069849	REC_WORD	wordpools/wasnorm_wordpool_less_exclusions.txt	LTP166	ltpFR	1	16	-1	PAD	998	n/a	-1	n/a	n/a	n/a	n/a	n/a
3072642	REC_WORD	wordpools/wasnorm_wordpool_less_exclusions.txt	LTP166	ltpFR	1	16	-1	SKYSCRAPER	1322	n/a	-1	n/a	n/a	n/a	n/a	n/a
3073666	REC_WORD	wordpools/wasnorm_wordpool_less_exclusions.txt	LTP166	ltpFR	1	16	-1	ORNAMENT	985	n/a	-1	n/a	n/a	n/a	n/a	n/a
3076299	REC_WORD	wordpools/wasnorm_wordpool_less_exclusions.txt	LTP166	ltpFR	1	16	-1	REPORT	1184	n/a	-1	n/a	n/a	n/a	n/a	n/a
3079802	REC_WORD	wordpools/wasnorm_wordpool_less_exclusions.txt	LTP166	ltpFR	1	16	-1	ALBUM	14	n/a	-1	n/a	n/a	n/a	n/a	n/a
3080609	REC_WORD	wordpools/wasnorm_wordpool_less_exclusions.txt	LTP166	ltpFR	1	16	-1	TREE	1502	n/a	-1	n/a	n/a	n/a	n/a	n/a
3081827	REC_WORD	wordpools/wasnorm_wordpool_less_exclusions.txt	LTP166	ltpFR	1	16	-1	PEAR	1033	n/a	-1	n/a	n/a	n/a	n/a	n/a
3082660	REC_WORD	wordpools/wasnorm_wordpool_less_exclusions.txt	LTP166	ltpFR	1	16	-1	APPLE	33	n/a	-1	n/a	n/a	n/a	n/a	n/a
3083902	REC_WORD	wordpools/wasnorm_wordpool_less_exclusions.txt	LTP166	ltpFR	1	16	-1	BALLERINA	74	n/a	-1	n/a	n/a	n/a	n/a	n/a
3084940	REC_WORD	wordpools/wasnorm_wordpool_less_exclusions.txt	LTP166	ltpFR	1	16	-1	GOWN	652	n/a	-1	n/a	n/a	n/a	n/a	n/a
3160289	REC_START	n/a	LTP166	ltpFR	1	n/a	n/a	n/a	n/a	n/a	n/a	n/a	n/a	n/a	n/a	n/a
3160838	FFR_REC_WORD	wordpools/wasnorm_wordpool_less_exclusions.txt	LTP166	ltpFR	1	n/a	1	GUARDIAN	668	n/a	1	n/a	n/a	n/a	n/a	n/a
3162823	FFR_REC_WORD	wordpools/wasnorm_wordpool_less_exclusions.txt	LTP166	ltpFR	1	n/a	1	POLICE	1098	n/a	1	n/a	n/a	n/a	n/a	n/a
3164624	FFR_REC_WORD	wordpools/wasnorm_wordpool_less_exclusions.txt	LTP166	ltpFR	1	n/a	0	UNIFORM	1539	n/a	0	n/a	n/a	n/a	n/a	n/a
3166290	FFR_REC_WORD	wordpools/wasnorm_wordpool_less_exclusions.txt	LTP166	ltpFR	1	n/a	0	CAPE	237	n/a	0	n/a	n/a	n/a	n/a	n/a
3167063	FFR_REC_WORD	wordpools/wasnorm_wordpool_less_exclusions.txt	LTP166	ltpFR	1	n/a	0	HERO	706	n/a	1	n/a	n/a	n/a	n/a	n/a
3167852	FFR_REC_WORD	wordpools/wasnorm_wordpool_less_exclusions.txt	LTP166	ltpFR	1	n/a	-1	PAD	998	n/a	-1	n/a	n/a	n/a	n/a	n/a
3168989	FFR_REC_WORD	wordpools/wasnorm_wordpool_less_exclusions.txt	LTP166	ltpFR	1	n/a	-1	PADDING	999	n/a	-1	n/a	n/a	n/a	n/a	n/a
3172496	FFR_REC_WORD	wordpools/wasnorm_wordpool_less_exclusions.txt	LTP166	ltpFR	1	n/a	-1	BALLERINA	74	n/a	-1	n/a	n/a	n/a	n/a	n/a
3173554	FFR_REC_WORD	wordpools/wasnorm_wordpool_less_exclusions.txt	LTP166	ltpFR	1	n/a	-1	GOWN	652	n/a	-1	n/a	n/a	n/a	n/a	n/a
3175069	FFR_REC_WORD	wordpools/wasnorm_wordpool_less_exclusions.txt	LTP166	ltpFR	1	n/a	-1	STAPLER	1372	n/a	-1	n/a	n/a	n/a	n/a	n/a
3176686	FFR_REC_WORD	wordpools/wasnorm_wordpool_less_exclusions.txt	LTP166	ltpFR	1	n/a	-1	WALLET	1583	n/a	-1	n/a	n/a	n/a	n/a	n/a
3177295	FFR_REC_WORD	wordpools/wasnorm_wordpool_less_exclusions.txt	LTP166	ltpFR	1	n/a	-1	GLOVE	642	n/a	-1	n/a	n/a	n/a	n/a	n/a
3178342	FFR_REC_WORD	wordpools/wasnorm_wordpool_less_exclusions.txt	LTP166	ltpFR	1	n/a	-1	SKYSCRAPER	1322	n/a	-1	n/a	n/a	n/a	n/a	n/a
3179342	FFR_REC_WORD_VV	wordpools/wasnorm_wordpool_less_exclusions.txt	LTP166	ltpFR	1	n/a	n/a	<>	-1	n/a	n/a	n/a	n/a	n/a	n/a	n/a
3181169	FFR_REC_WORD_VV	wordpools/wasnorm_wordpool_less_exclusions.txt	LTP166	ltpFR	1	n/a	n/a	<>	-1	n/a	n/a	n/a	n/a	n/a	n/a	n/a
3181740	FFR_REC_WORD	wordpools/wasnorm_wordpool_less_exclusions.txt	LTP166	ltpFR	1	n/a	-1	TREE	1502	n/a	-1	n/a	n/a	n/a	n/a	n/a
3182214	FFR_REC_WORD	wordpools/wasnorm_wordpool_less_exclusions.txt	LTP166	ltpFR	1	n/a	-1	ALBUM	14	n/a	-1	n/a	n/a	n/a	n/a	n/a
3183731	FFR_REC_WORD	wordpools/wasnorm_wordpool_less_exclusions.txt	LTP166	ltpFR	1	n/a	-1	ORNAMENT	985	n/a	-1	n/a	n/a	n/a	n/a	n/a
3184214	FFR_REC_WORD	wordpools/wasnorm_wordpool_less_exclusions.txt	LTP166	ltpFR	1	n/a	-1	REPORT	1184	n/a	-1	n/a	n/a	n/a	n/a	n/a
3186933	FFR_REC_WORD	wordpools/wasnorm_wordpool_less_exclusions.txt	LTP166	ltpFR	1	n/a	-1	APPLE	33	n/a	-1	n/a	n/a	n/a	n/a	n/a
3188001	FFR_REC_WORD	wordpools/wasnorm_wordpool_less_exclusions.txt	LTP166	ltpFR	1	n/a	-1	PEAR	1033	n/a	-1	n/a	n/a	n/a	n/a	n/a
3192719	FFR_REC_WORD	wordpools/wasnorm_wordpool_less_exclusions.txt	LTP166	ltpFR	1	n/a	1	PORCUPINE	1107	n/a	1	n/a	n/a	n/a	n/a	n/a
3197818	FFR_REC_WORD	wordpools/wasnorm_wordpool_less_exclusions.txt	LTP166	ltpFR	1	n/a	1	BROOK	177	n/a	0	n/a	n/a	n/a	n/a	n/a
3198397	FFR_REC_WORD	wordpools/wasnorm_wordpool_less_exclusions.txt	LTP166	ltpFR	1	n/a	1	CREEK	404	n/a	1	n/a	n/a	n/a	n/a	n/a
3199929	FFR_REC_WORD	wordpools/wasnorm_wordpool_less_exclusions.txt	LTP166	ltpFR	1	n/a	n/a	STREAM	1392	n/a	n/a	n/a	n/a	n/a	n/a	n/a
3201784	FFR_REC_WORD	wordpools/wasnorm_wordpool_less_exclusions.txt	LTP166	ltpFR	1	n/a	1	LAKE	796	n/a	1	n/a	n/a	n/a	n/a	n/a
3203655	FFR_REC_WORD	wordpools/wasnorm_wordpool_less_exclusions.txt	LTP166	ltpFR	1	n/a	1	MOAT	903	n/a	0	n/a	n/a	n/a	n/a	n/a
3204359	FFR_REC_WORD	wordpools/wasnorm_wordpool_less_exclusions.txt	LTP166	ltpFR	1	n/a	1	CASTLE	256	n/a	0	n/a	n/a	n/a	n/a	n/a
3205187	FFR_REC_WORD	wordpools/wasnorm_wordpool_less_exclusions.txt	LTP166	ltpFR	1	n/a	0	LONDON	843	n/a	1	n/a	n/a	n/a	n/a	n/a
3205950	FFR_REC_WORD	wordpools/wasnorm_wordpool_less_exclusions.txt	LTP166	ltpFR	1	n/a	0	COTTAGE	384	n/a	1	n/a	n/a	n/a	n/a	n/a
3210959	FFR_REC_WORD	wordpools/wasnorm_wordpool_less_exclusions.txt	LTP166	ltpFR	1	n/a	0	NET	946	n/a	1	n/a	n/a	n/a	n/a	n/a
3213772	FFR_REC_WORD	wordpools/wasnorm_wordpool_less_exclusions.txt	LTP166	ltpFR	1	n/a	0	PEARL	1034	n/a	1	n/a	n/a	n/a	n/a	n/a
3214321	FFR_REC_WORD	wordpools/wasnorm_wordpool_less_exclusions.txt	LTP166	ltpFR	1	n/a	0	BEAD	103	n/a	0	n/a	n/a	n/a	n/a	n/a
3214715	FFR_REC_WORD	wordpools/wasnorm_wordpool_less_exclusions.txt	LTP166	ltpFR	1	n/a	0	BARRACUDA	90	n/a	1	n/a	n/a	n/a	n/a	n/a
3219649	FFR_REC_WORD	wordpools/wasnorm_wordpool_less_exclusions.txt	LTP166	ltpFR	1	n/a	-1	CACTUS	215	n/a	-1	n/a	n/a	n/a	n/a	n/a
3221295	FFR_REC_WORD	wordpools/wasnorm_wordpool_less_exclusions.txt	LTP166	ltpFR	1	n/a	-1	VESSEL	1558	n/a	-1	n/a	n/a	n/a	n/a	n/a
3222258	FFR_REC_WORD	wordpools/wasnorm_wordpool_less_exclusions.txt	LTP166	ltpFR	1	n/a	-1	DRESSER	496	n/a	-1	n/a	n/a	n/a	n/a	n/a
3222916	FFR_REC_WORD	wordpools/wasnorm_wordpool_less_exclusions.txt	LTP166	ltpFR	1	n/a	-1	ATTIRE	57	n/a	-1	n/a	n/a	n/a	n/a	n/a
3225406	FFR_REC_WORD	wordpools/wasnorm_wordpool_less_exclusions.txt	LTP166	ltpFR	1	n/a	-1	BANQUET	86	n/a	-1	n/a	n/a	n/a	n/a	n/a
3227361	FFR_REC_WORD	wordpools/wasnorm_wordpool_less_exclusions.txt	LTP166	ltpFR	1	n/a	-1	PLATE	1086	n/a	-1	n/a	n/a	n/a	n/a	n/a
3230818	FFR_REC_WORD	wordpools/wasnorm_wordpool_less_exclusions.txt	LTP166	ltpFR	1	n/a	1	PARTY	1018	n/a	0	n/a	n/a	n/a	n/a	n/a
3232300	FFR_REC_WORD	wordpools/wasnorm_wordpool_less_exclusions.txt	LTP166	ltpFR	1	n/a	1	SALOON	1228	n/a	0	n/a	n/a	n/a	n/a	n/a
3234226	FFR_REC_WORD	wordpools/wasnorm_wordpool_less_exclusions.txt	LTP166	ltpFR	1	n/a	1	LINT	826	n/a	0	n/a	n/a	n/a	n/a	n/a
3256819	FFR_REC_WORD	wordpools/wasnorm_wordpool_less_exclusions.txt	LTP166	ltpFR	1	n/a	0	BALLOON	75	n/a	0	n/a	n/a	n/a	n/a	n/a
3258406	FFR_REC_WORD	wordpools/wasnorm_wordpool_less_exclusions.txt	LTP166	ltpFR	1	n/a	0	TOAST	1471	n/a	0	n/a	n/a	n/a	n/a	n/a
3259144	FFR_REC_WORD	wordpools/wasnorm_wordpool_less_exclusions.txt	LTP166	ltpFR	1	n/a	0	TOASTER	1472	n/a	1	n/a	n/a	n/a	n/a	n/a
3263489	FFR_REC_WORD	wordpools/wasnorm_wordpool_less_exclusions.txt	LTP166	ltpFR	1	n/a	0	TORNADO	1485	n/a	1	n/a	n/a	n/a	n/a	n/a
3264756	FFR_REC_WORD	wordpools/wasnorm_wordpool_less_exclusions.txt	LTP166	ltpFR	1	n/a	1	UNIVERSE	1540	n/a	0	n/a	n/a	n/a	n/a	n/a
3265530	FFR_REC_WORD	wordpools/wasnorm_wordpool_less_exclusions.txt	LTP166	ltpFR	1	n/a	0	ATMOSPHERE	54	n/a	1	n/a	n/a	n/a	n/a	n/a
3280914	FFR_REC_WORD	wordpools/wasnorm_wordpool_less_exclusions.txt	LTP166	ltpFR	1	n/a	0	SCARF	1246	n/a	n/a	n/a	n/a	n/a	n/a	n/a
3285609	FFR_REC_WORD	wordpools/wasnorm_wordpool_less_exclusions.txt	LTP166	ltpFR	1	n/a	1	PLAID	1080	n/a	0	n/a	n/a	n/a	n/a	n/a
3286442	FFR_REC_WORD	wordpools/wasnorm_wordpool_less_exclusions.txt	LTP166	ltpFR	1	n/a	1	FLANNEL	574	n/a	0	n/a	n/a	n/a	n/a	n/a
3291545	FFR_REC_WORD	wordpools/wasnorm_wordpool_less_exclusions.txt	LTP166	ltpFR	1	n/a	0	FOLLOWER	589	n/a	1	n/a	n/a	n/a	n/a	n/a
3295421	FFR_REC_WORD	wordpools/wasnorm_wordpool_less_exclusions.txt	LTP166	ltpFR	1	n/a	0	STUDENT	1395	n/a	1	n/a	n/a	n/a	n/a	n/a
3296080	FFR_REC_WORD	wordpools/wasnorm_wordpool_less_exclusions.txt	LTP166	ltpFR	1	n/a	0	COLLEGE	346	n/a	1	n/a	n/a	n/a	n/a	n/a
3297400	FFR_REC_WORD	wordpools/wasnorm_wordpool_less_exclusions.txt	LTP166	ltpFR	1	n/a	0	COLLEGE	346	n/a	1	n/a	n/a	n/a	n/a	n/a
3300116	FFR_REC_WORD	wordpools/wasnorm_wordpool_less_exclusions.txt	LTP166	ltpFR	1	n/a	0	BINDER	127	n/a	1	n/a	n/a	n/a	n/a	n/a
3300680	FFR_REC_WORD	wordpools/wasnorm_wordpool_less_exclusions.txt	LTP166	ltpFR	1	n/a	n/a	NOTEBOOK	959	n/a	n/a	n/a	n/a	n/a	n/a	n/a
3305059	FFR_REC_WORD	wordpools/wasnorm_wordpool_less_exclusions.txt	LTP166	ltpFR	1	n/a	0	LAPEL	800	n/a	0	n/a	n/a	n/a	n/a	n/a
3307030	FFR_REC_WORD	wordpools/wasnorm_wordpool_less_exclusions.txt	LTP166	ltpFR	1	n/a	0	POCKET	1093	n/a	0	n/a	n/a	n/a	n/a	n/a
3342863	FFR_REC_WORD	wordpools/wasnorm_wordpool_less_exclusions.txt	LTP166	ltpFR	1	n/a	1	VET	1560	n/a	1	n/a	n/a	n/a	n/a	n/a
3344041	FFR_REC_WORD	wordpools/wasnorm_wordpool_less_exclusions.txt	LTP166	ltpFR	1	n/a	1	ACTRESS	6	n/a	1	n/a	n/a	n/a	n/a	n/a
3346311	FFR_REC_WORD	wordpools/wasnorm_wordpool_less_exclusions.txt	LTP166	ltpFR	1	n/a	0	MINER	896	n/a	1	n/a	n/a	n/a	n/a	n/a
3357376	FFR_REC_WORD	wordpools/wasnorm_wordpool_less_exclusions.txt	LTP166	ltpFR	1	n/a	1	CLERK	321	n/a	1	n/a	n/a	n/a	n/a	n/a
3358917	FFR_REC_WORD	wordpools/wasnorm_wordpool_less_exclusions.txt	LTP166	ltpFR	1	n/a	0	COURT	391	n/a	1	n/a	n/a	n/a	n/a	n/a
3364808	FFR_REC_WORD	wordpools/wasnorm_wordpool_less_exclusions.txt	LTP166	ltpFR	1	n/a	-1	REPORT	1184	n/a	-1	n/a	n/a	n/a	n/a	n/a
3410410	FFR_REC_WORD	wordpools/wasnorm_wordpool_less_exclusions.txt	LTP166	ltpFR	1	n/a	0	EGG	518	n/a	0	n/a	n/a	n/a	n/a	n/a
3415554	FFR_REC_WORD	wordpools/wasnorm_wordpool_less_exclusions.txt	LTP166	ltpFR	1	n/a	-1	OMELET	976	n/a	-1	n/a	n/a	n/a	n/a	n/a
3430454	FFR_REC_WORD	wordpools/wasnorm_wordpool_less_exclusions.txt	LTP166	ltpFR	1	n/a	1	SQUID	1361	n/a	1	n/a	n/a	n/a	n/a	n/a
3520701	REC_START	n/a	LTP166	ltpFR	1	1	n/a	n/a	n/a	n/a	n/a	n/a	n/a	n/a	n/a	n/a
3520734	RECOG_TARGET	n/a	LTP166	ltpFR	1	1	0	BELL	118	5	0	n/a	n/a	n/a	n/a	n/a
3522547	RECOG_RESP	n/a	LTP166	ltpFR	1	1	0	BELL	118	n/a	0	n/a	n/a	n/a	n/a	n/a
3527041	RECOG_CONF	n/a	LTP166	ltpFR	1	1	0	BELL	118	5	0	n/a	n/a	n/a	n/a	n/a
3529071	RECOG_TARGET	n/a	LTP166	ltpFR	1	1	0	LAPEL	800	5	0	n/a	n/a	n/a	n/a	n/a
3531148	RECOG_RESP	n/a	LTP166	ltpFR	1	1	0	LAPEL	800	n/a	0	n/a	n/a	n/a	n/a	n/a
3533066	RECOG_CONF	n/a	LTP166	ltpFR	1	1	0	LAPEL	800	5	0	n/a	n/a	n/a	n/a	n/a
3535129	RECOG_TARGET	n/a	LTP166	ltpFR	1	1	0	EYE	545	5	0	n/a	n/a	n/a	n/a	n/a
3536048	RECOG_RESP	n/a	LTP166	ltpFR	1	1	0	EYE	545	n/a	0	n/a	n/a	n/a	n/a	n/a
3537637	RECOG_CONF	n/a	LTP166	ltpFR	1	1	0	EYE	545	5	0	n/a	n/a	n/a	n/a	n/a
3539389	RECOG_TARGET	n/a	LTP166	ltpFR	1	1	0	ICE	730	5	0	n/a	n/a	n/a	n/a	n/a
3540178	RECOG_RESP	n/a	LTP166	ltpFR	1	1	0	ICE	730	n/a	0	n/a	n/a	n/a	n/a	n/a
3541481	RECOG_CONF	n/a	LTP166	ltpFR	1	1	0	ICE	730	5	0	n/a	n/a	n/a	n/a	n/a
3543251	RECOG_TARGET	n/a	LTP166	ltpFR	1	1	0	NET	946	5	1	n/a	n/a	n/a	n/a	n/a
3544923	RECOG_RESP	n/a	LTP166	ltpFR	1	1	0	NET	946	n/a	1	n/a	n/a	n/a	n/a	n/a
3546215	RECOG_CONF	n/a	LTP166	ltpFR	1	1	0	NET	946	5	1	n/a	n/a	n/a	n/a	n/a
3548060	RECOG_TARGET	n/a	LTP166	ltpFR	1	1	1	CREEK	404	5	1	n/a	n/a	n/a	n/a	n/a
3548914	RECOG_RESP	n/a	LTP166	ltpFR	1	1	1	CREEK	404	n/a	1	n/a	n/a	n/a	n/a	n/a
3550209	RECOG_CONF	n/a	LTP166	ltpFR	1	1	1	CREEK	404	5	1	n/a	n/a	n/a	n/a	n/a
3551871	RECOG_TARGET	n/a	LTP166	ltpFR	1	1	0	WHEEL	1603	5	1	n/a	n/a	n/a	n/a	n/a
3552704	RECOG_RESP	n/a	LTP166	ltpFR	1	1	0	WHEEL	1603	n/a	1	n/a	n/a	n/a	n/a	n/a
3553840	RECOG_CONF	n/a	LTP166	ltpFR	1	1	0	WHEEL	1603	5	1	n/a	n/a	n/a	n/a	n/a
3555682	RECOG_LURE	n/a	LTP166	ltpFR	1	1	n/a	SOLDIER	1344	4	n/a	n/a	n/a	n/a	n/a	n/a
3556612	RECOG_RESP	n/a	LTP166	ltpFR	1	1	n/a	SOLDIER	1344	n/a	n/a	n/a	n/a	n/a	n/a	n/a
3558020	RECOG_CONF	n/a	LTP166	ltpFR	1	1	n/a	SOLDIER	1344	4	n/a	n/a	n/a	n/a	n/a	n/a
3559842	RECOG_TARGET	n/a	LTP166	ltpFR	1	1	0	NICOTINE	951	5	0	n/a	n/a	n/a	n/a	n/a
3560893	RECOG_RESP	n/a	LTP166	ltpFR	1	1	0	NICOTINE	951	n/a	0	n/a	n/a	n/a	n/a	n/a
3562031	RECOG_CONF	n/a	LTP166	ltpFR	1	1	0	NICOTINE	951	5	0	n/a	n/a	n/a	n/a	n/a
3563919	RECOG_LURE	n/a	LTP166	ltpFR	1	1	n/a	WRIST	1626	4	n/a	n/a	n/a	n/a	n/a	n/a
3564932	RECOG_RESP	n/a	LTP166	ltpFR	1	1	n/a	WRIST	1626	n/a	n/a	n/a	n/a	n/a	n/a	n/a
3567261	RECOG_CONF	n/a	LTP166	ltpFR	1	1	n/a	WRIST	1626	4	n/a	n/a	n/a	n/a	n/a	n/a
3569095	RECOG_LURE	n/a	LTP166	ltpFR	1	1	n/a	COMMANDER	354	4	n/a	n/a	n/a	n/a	n/a	n/a
3570263	RECOG_RESP	n/a	LTP166	ltpFR	1	1	n/a	COMMANDER	354	n/a	n/a	n/a	n/a	n/a	n/a	n/a
3571949	RECOG_CONF	n/a	LTP166	ltpFR	1	1	n/a	COMMANDER	354	4	n/a	n/a	n/a	n/a	n/a	n/a
3573472	RECOG_TARGET	n/a	LTP166	ltpFR	1	1	0	JUDGE	761	2	1	n/a	n/a	n/a	n/a	n/a
3575653	RECOG_RESP	n/a	LTP166	ltpFR	1	1	0	JUDGE	761	n/a	1	n/a	n/a	n/a	n/a	n/a
3576970	RECOG_CONF	n/a	LTP166	ltpFR	1	1	0	JUDGE	761	2	1	n/a	n/a	n/a	n/a	n/a
3578880	RECOG_TARGET	n/a	LTP166	ltpFR	1	1	0	CAULIFLOWER	262	5	0	n/a	n/a	n/a	n/a	n/a
3579927	RECOG_RESP	n/a	LTP166	ltpFR	1	1	0	CAULIFLOWER	262	n/a	0	n/a	n/a	n/a	n/a	n/a
3581013	RECOG_CONF	n/a	LTP166	ltpFR	1	1	0	CAULIFLOWER	262	5	0	n/a	n/a	n/a	n/a	n/a
3582874	RECOG_TARGET	n/a	LTP166	ltpFR	1	1	-1	NEWSSTAND	949	5	-1	n/a	n/a	n/a	n/a	n/a
3583884	RECOG_RESP	n/a	LTP166	ltpFR	1	1	-1	NEWSSTAND	949	n/a	-1	n/a	n/a	n/a	n/a	n/a
3585317	RECOG_CONF	n/a	LTP166	ltpFR	1	1	-1	NEWSSTAND	949	5	-1	n/a	n/a	n/a	n/a	n/a
3587201	RECOG_TARGET	n/a	LTP166	ltpFR	1	1	0	NIGHTGOWN	953	5	1	n/a	n/a	n/a	n/a	n/a
3588043	RECOG_RESP	n/a	LTP166	ltpFR	1	1	0	NIGHTGOWN	953	n/a	1	n/a	n/a	n/a	n/a	n/a
3589360	RECOG_CONF	n/a	LTP166	ltpFR	1	1	0	NIGHTGOWN	953	5	1	n/a	n/a	n/a	n/a	n/a
3590862	RECOG_TARGET	n/a	LTP166	ltpFR	1	1	1	LINT	826	5	0	n/a	n/a	n/a	n/a	n/a
3592749	RECOG_RESP	n/a	LTP166	ltpFR	1	1	1	LINT	826	n/a	0	n/a	n/a	n/a	n/a	n/a
3593929	RECOG_CONF	n/a	LTP166	ltpFR	1	1	1	LINT	826	5	0	n/a	n/a	n/a	n/a	n/a
3595705	RECOG_TARGET	n/a	LTP166	ltpFR	1	1	0	BALLOON	75	5	0	n/a	n/a	n/a	n/a	n/a
3596351	RECOG_RESP	n/a	LTP166	ltpFR	1	1	0	BALLOON	75	n/a	0	n/a	n/a	n/a	n/a	n/a
3597511	RECOG_CONF	n/a	LTP166	ltpFR	1	1	0	BALLOON	75	5	0	n/a	n/a	n/a	n/a	n/a
3599218	RECOG_LURE	n/a	LTP166	ltpFR	1	1	n/a	BEETLE	116	4	n/a	n/a	n/a	n/a	n/a	n/a
3600187	RECOG_RESP	n/a	LTP166	ltpFR	1	1	n/a	BEETLE	116	n/a	n/a	n/a	n/a	n/a	n/a	n/a
3601712	RECOG_CONF	n/a	LTP166	ltpFR	1	1	n/a	BEETLE	116	4	n/a	n/a	n/a	n/a	n/a	n/a
3603377	RECOG_LURE	n/a	LTP166	ltpFR	1	1	n/a	CABOOSE	214	3	n/a	n/a	n/a	n/a	n/a	n/a
3605197	RECOG_RESP	n/a	LTP166	ltpFR	1	1	n/a	CABOOSE	214	n/a	n/a	n/a	n/a	n/a	n/a	n/a
3606780	RECOG_CONF	n/a	LTP166	ltpFR	1	1	n/a	CABOOSE	214	3	n/a	n/a	n/a	n/a	n/a	n/a
3608586	RECOG_TARGET	n/a	LTP166	ltpFR	1	1	1	PARTY	1018	5	0	n/a	n/a	n/a	n/a	n/a
3609658	RECOG_RESP	n/a	LTP166	ltpFR	1	1	1	PARTY	1018	n/a	0	n/a	n/a	n/a	n/a	n/a
3610791	RECOG_CONF	n/a	LTP166	ltpFR	1	1	1	PARTY	1018	5	0	n/a	n/a	n/a	n/a	n/a
3616658	REC_START	n/a	LTP166	ltpFR	1	2	n/a	n/a	n/a	n/a	n/a	n/a	n/a	n/a	n/a	n/a
3616690	RECOG_TARGET	n/a	LTP166	ltpFR	1	2	-1	PAD	998	5	-1	n/a	n/a	n/a	n/a	n/a
3618144	RECOG_RESP	n/a	LTP166	ltpFR	1	2	-1	PAD	998	n/a	-1	n/a	n/a	n/a	n/a	n/a
3619424	RECOG_CONF	n/a	LTP166	ltpFR	1	2	-1	PAD	998	5	-1	n/a	n/a	n/a	n/a	n/a
3621633	RECOG_TARGET	n/a	LTP166	ltpFR	1	2	-1	WORKER	1621	2	-1	n/a	n/a	n/a	n/a	n/a
3623778	RECOG_RESP	n/a	LTP166	ltpFR	1	2	-1	WORKER	1621	n/a	-1	n/a	n/a	n/a	n/a	n/a
3625044	RECOG_CONF	n/a	LTP166	ltpFR	1	2	-1	WORKER	1621	2	-1	n/a	n/a	n/a	n/a	n/a
3626909	RECOG_LURE	n/a	LTP166	ltpFR	1	2	n/a	GLUE	643	3	n/a	n/a	n/a	n/a	n/a	n/a
3627748	RECOG_RESP	n/a	LTP166	ltpFR	1	2	n/a	GLUE	643	n/a	n/a	n/a	n/a	n/a	n/a	n/a
3629217	RECOG_CONF	n/a	LTP166	ltpFR	1	2	n/a	GLUE	643	3	n/a	n/a	n/a	n/a	n/a	n/a
3631036	RECOG_TARGET	n/a	LTP166	ltpFR	1	2	1	NAIL	936	2	0	n/a	n/a	n/a	n/a	n/a
3633244	RECOG_RESP	n/a	LTP166	ltpFR	1	2	1	NAIL	936	n/a	0	n/a	n/a	n/a	n/a	n/a
3634517	RECOG_CONF	n/a	LTP166	ltpFR	1	2	1	NAIL	936	2	0	n/a	n/a	n/a	n/a	n/a
3636478	RECOG_TARGET	n/a	LTP166	ltpFR	1	2	-1	TOWER	1490	3	-1	n/a	n/a	n/a	n/a	n/a
3638743	RECOG_RESP	n/a	LTP166	ltpFR	1	2	-1	TOWER	1490	n/a	-1	n/a	n/a	n/a	n/a	n/a
3640012	RECOG_CONF	n/a	LTP166	ltpFR	1	2	-1	TOWER	1490	3	-1	n/a	n/a	n/a	n/a	n/a
3641820	RECOG_TARGET	n/a	LTP166	ltpFR	1	2	-1	TORTOISE	1486	5	-1	n/a	n/a	n/a	n/a	n/a
3642687	RECOG_RESP	n/a	LTP166	ltpFR	1	2	-1	TORTOISE	1486	n/a	-1	n/a	n/a	n/a	n/a	n/a
3643768	RECOG_CONF	n/a	LTP166	ltpFR	1	2	-1	TORTOISE	1486	5	-1	n/a	n/a	n/a	n/a	n/a
3645481	RECOG_TARGET	n/a	LTP166	ltpFR	1	2	-1	TIMBER	1469	3	-1	n/a	n/a	n/a	n/a	n/a
3646608	RECOG_RESP	n/a	LTP166	ltpFR	1	2	-1	TIMBER	1469	n/a	-1	n/a	n/a	n/a	n/a	n/a
3648258	RECOG_CONF	n/a	LTP166	ltpFR	1	2	-1	TIMBER	1469	3	-1	n/a	n/a	n/a	n/a	n/a
3649891	RECOG_TARGET	n/a	LTP166	ltpFR	1	2	1	VIOLIN	1571	5	0	n/a	n/a	n/a	n/a	n/a
3650807	RECOG_RESP	n/a	LTP166	ltpFR	1	2	1	VIOLIN	1571	n/a	0	n/a	n/a	n/a	n/a	n/a
3652053	RECOG_CONF	n/a	LTP166	ltpFR	1	2	1	VIOLIN	1571	5	0	n/a	n/a	n/a	n/a	n/a
3653619	RECOG_LURE	n/a	LTP166	ltpFR	1	2	n/a	HELMET	702	3	n/a	n/a	n/a	n/a	n/a	n/a
3655084	RECOG_RESP	n/a	LTP166	ltpFR	1	2	n/a	HELMET	702	n/a	n/a	n/a	n/a	n/a	n/a	n/a
3657012	RECOG_CONF	n/a	LTP166	ltpFR	1	2	n/a	HELMET	702	3	n/a	n/a	n/a	n/a	n/a	n/a
3658861	RECOG_TARGET	n/a	LTP166	ltpFR	1	2	-1	BLOSSOM	138	4	-1	n/a	n/a	n/a	n/a	n/a
3659754	RECOG_RESP	n/a	LTP166	ltpFR	1	2	-1	BLOSSOM	138	n/a	-1	n/a	n/a	n/a	n/a	n/a
3661155	RECOG_CONF	n/a	LTP166	ltpFR	1	2	-1	BLOSSOM	138	4	-1	n/a	n/a	n/a	n/a	n/a
3662838	RECOG_LURE	n/a	LTP166	ltpFR	1	2	n/a	TWISTER	1530	2	n/a	n/a	n/a	n/a	n/a	n/a
3665574	RECOG_RESP	n/a	LTP166	ltpFR	1	2	n/a	TWISTER	1530	n/a	n/a	n/a	n/a	n/a	n/a	n/a
3667302	RECOG_CONF	n/a	LTP166	ltpFR	1	2	n/a	TWISTER	1530	2	n/a	n/a	n/a	n/a	n/a	n/a
3669095	RECOG_TARGET	n/a	LTP166	ltpFR	1	2	-1	GLOVE	642	4	-1	n/a	n/a	n/a	n/a	n/a
3670896	RECOG_RESP	n/a	LTP166	ltpFR	1	2	-1	GLOVE	642	n/a	-1	n/a	n/a	n/a	n/a	n/a
3672063	RECOG_CONF	n/a	LTP166	ltpFR	1	2	-1	GLOVE	642	4	-1	n/a	n/a	n/a	n/a	n/a
3673805	RECOG_TARGET	n/a	LTP166	ltpFR	1	2	0	BEAD	103	5	0	n/a	n/a	n/a	n/a	n/a
3674792	RECOG_RESP	n/a	LTP166	ltpFR	1	2	0	BEAD	103	n/a	0	n/a	n/a	n/a	n/a	n/a
3676029	RECOG_CONF	n/a	LTP166	ltpFR	1	2	0	BEAD	103	5	0	n/a	n/a	n/a	n/a	n/a
3677816	RECOG_TARGET	n/a	LTP166	ltpFR	1	2	-1	FENCE	560	5	-1	n/a	n/a	n/a	n/a	n/a
3679245	RECOG_RESP	n/a	LTP166	ltpFR	1	2	-1	FENCE	560	n/a	-1	n/a	n/a	n/a	n/a	n/a
3680396	RECOG_CONF	n/a	LTP166	ltpFR	1	2	-1	FENCE	560	5	-1	n/a	n/a	n/a	n/a	n/a
3681960	RECOG_TARGET	n/a	LTP166	ltpFR	1	2	-1	TREE	1502	5	-1	n/a	n/a	n/a	n/a	n/a
3683297	RECOG_RESP	n/a	LTP166	ltpFR	1	2	-1	TREE	1502	n/a	-1	n/a	n/a	n/a	n/a	n/a
3684515	RECOG_CONF	n/a	LTP166	ltpFR	1	2	-1	TREE	1502	5	-1	n/a	n/a	n/a	n/a	n/a
3686336	RECOG_TARGET	n/a	LTP166	ltpFR	1	2	0	TORNADO	1485	5	1	n/a	n/a	n/a	n/a	n/a
3687019	RECOG_RESP	n/a	LTP166	ltpFR	1	2	0	TORNADO	1485	n/a	1	n/a	n/a	n/a	n/a	n/a
3688133	RECOG_CONF	n/a	LTP166	ltpFR	1	2	0	TORNADO	1485	5	1	n/a	n/a	n/a	n/a	n/a
3689715	RECOG_TARGET	n/a	LTP166	ltpFR	1	2	1	COBRA	336	5	1	n/a	n/a	n/a	n/a	n/a
3690455	RECOG_RESP	n/a	LTP166	ltpFR	1	2	1	COBRA	336	n/a	1	n/a	n/a	n/a	n/a	n/a
3691543	RECOG_CONF	n/a	LTP166	ltpFR	1	2	1	COBRA	336	5	1	n/a	n/a	n/a	n/a	n/a
3693193	RECOG_TARGET	n/a	LTP166	ltpFR	1	2	0	FOLLOWER	589	5	1	n/a	n/a	n/a	n/a	n/a
3694601	RECOG_RESP	n/a	LTP166	ltpFR	1	2	0	FOLLOWER	589	n/a	1	n/a	n/a	n/a	n/a	n/a
3695734	RECOG_CONF	n/a	LTP166	ltpFR	1	2	0	FOLLOWER	589	5	1	n/a	n/a	n/a	n/a	n/a
3697453	RECOG_TARGET	n/a	LTP166	ltpFR	1	2	1	VAGRANT	1544	5	1	n/a	n/a	n/a	n/a	n/a
3698203	RECOG_RESP	n/a	LTP166	ltpFR	1	2	1	VAGRANT	1544	n/a	1	n/a	n/a	n/a	n/a	n/a
3699247	RECOG_CONF	n/a	LTP166	ltpFR	1	2	1	VAGRANT	1544	5	1	n/a	n/a	n/a	n/a	n/a
3700848	RECOG_TARGET	n/a	LTP166	ltpFR	1	2	-1	PRIEST	1122	5	-1	n/a	n/a	n/a	n/a	n/a
3701588	RECOG_RESP	n/a	LTP166	ltpFR	1	2	-1	PRIEST	1122	n/a	-1	n/a	n/a	n/a	n/a	n/a
3702582	RECOG_CONF	n/a	LTP166	ltpFR	1	2	-1	PRIEST	1122	5	-1	n/a	n/a	n/a	n/a	n/a
3710398	REC_START	n/a	LTP166	ltpFR	1	3	n/a	n/a	n/a	n/a	n/a	n/a	n/a	n/a	n/a	n/a
3710434	RECOG_TARGET	n/a	LTP166	ltpFR	1	3	0	WIRE	1616	5	0	n/a	n/a	n/a	n/a	n/a
3711264	RECOG_RESP	n/a	LTP166	ltpFR	1	3	0	WIRE	1616	n/a	0	n/a	n/a	n/a	n/a	n/a
3712371	RECOG_CONF	n/a	LTP166	ltpFR	1	3	0	WIRE	1616	5	0	n/a	n/a	n/a	n/a	n/a
3714112	RECOG_TARGET	n/a	LTP166	ltpFR	1	3	1	SILVERWARE	1308	5	0	n/a	n/a	n/a	n/a	n/a
3715031	RECOG_RESP	n/a	LTP166	ltpFR	1	3	1	SILVERWARE	1308	n/a	0	n/a	n/a	n/a	n/a	n/a
3716112	RECOG_CONF	n/a	LTP166	ltpFR	1	3	1	SILVERWARE	1308	5	0	n/a	n/a	n/a	n/a	n/a
3717823	RECOG_TARGET	n/a	LTP166	ltpFR	1	3	-1	PLATE	1086	5	-1	n/a	n/a	n/a	n/a	n/a
3718460	RECOG_RESP	n/a	LTP166	ltpFR	1	3	-1	PLATE	1086	n/a	-1	n/a	n/a	n/a	n/a	n/a
3719517	RECOG_CONF	n/a	LTP166	ltpFR	1	3	-1	PLATE	1086	5	-1	n/a	n/a	n/a	n/a	n/a
3721168	RECOG_TARGET	n/a	LTP166	ltpFR	1	3	-1	ELK	526	5	-1	n/a	n/a	n/a	n/a	n/a
3721878	RECOG_RESP	n/a	LTP166	ltpFR	1	3	-1	ELK	526	n/a	-1	n/a	n/a	n/a	n/a	n/a
3722827	RECOG_CONF	n/a	LTP166	ltpFR	1	3	-1	ELK	526	5	-1	n/a	n/a	n/a	n/a	n/a
3724529	RECOG_LURE	n/a	LTP166	ltpFR	1	3	n/a	DIAGRAM	456	5	n/a	n/a	n/a	n/a	n/a	n/a
3725293	RECOG_RESP	n/a	LTP166	ltpFR	1	3	n/a	DIAGRAM	456	n/a	n/a	n/a	n/a	n/a	n/a	n/a
3726285	RECOG_CONF	n/a	LTP166	ltpFR	1	3	n/a	DIAGRAM	456	5	n/a	n/a	n/a	n/a	n/a	n/a
3728024	RECOG_LURE	n/a	LTP166	ltpFR	1	3	n/a	VIOLA	1570	5	n/a	n/a	n/a	n/a	n/a	n/a
3729043	RECOG_RESP	n/a	LTP166	ltpFR	1	3	n/a	VIOLA	1570	n/a	n/a	n/a	n/a	n/a	n/a	n/a
3730059	RECOG_CONF	n/a	LTP166	ltpFR	1	3	n/a	VIOLA	1570	5	n/a	n/a	n/a	n/a	n/a	n/a
3731835	RECOG_TARGET	n/a	LTP166	ltpFR	1	3	-1	FAIRY	549	5	-1	n/a	n/a	n/a	n/a	n/a
3732622	RECOG_RESP	n/a	LTP166	ltpFR	1	3	-1	FAIRY	549	n/a	-1	n/a	n/a	n/a	n/a	n/a
3733632	RECOG_CONF	n/a	LTP166	ltpFR	1	3	-1	FAIRY	549	5	-1	n/a	n/a	n/a	n/a	n/a
3735280	RECOG_TARGET	n/a	LTP166	ltpFR	1	3	0	WHEAT	1602	5	0	n/a	n/a	n/a	n/a	n/a
3737067	RECOG_RESP	n/a	LTP166	ltpFR	1	3	0	WHEAT	1602	n/a	0	n/a	n/a	n/a	n/a	n/a
3738040	RECOG_CONF	n/a	LTP166	ltpFR	1	3	0	WHEAT	1602	5	0	n/a	n/a	n/a	n/a	n/a
3739723	RECOG_TARGET	n/a	LTP166	ltpFR	1	3	1	SUPERMARKET	1409	5	0	n/a	n/a	n/a	n/a	n/a
3740411	RECOG_RESP	n/a	LTP166	ltpFR	1	3	1	SUPERMARKET	1409	n/a	0	n/a	n/a	n/a	n/a	n/a
3741398	RECOG_CONF	n/a	LTP166	ltpFR	1	3	1	SUPERMARKET	1409	5	0	n/a	n/a	n/a	n/a	n/a
3743018	RECOG_TARGET	n/a	LTP166	ltpFR	1	3	-1	STAPLER	1372	5	-1	n/a	n/a	n/a	n/a	n/a
3743741	RECOG_RESP	n/a	LTP166	ltpFR	1	3	-1	STAPLER	1372	n/a	-1	n/a	n/a	n/a	n/a	n/a
3744662	RECOG_CONF	n/a	LTP166	ltpFR	1	3	-1	STAPLER	1372	5	-1	n/a	n/a	n/a	n/a	n/a
3746280	RECOG_TARGET	n/a	LTP166	ltpFR	1	3	1	GUARDIAN	668	5	1	n/a	n/a	n/a	n/a	n/a
3747270	RECOG_RESP_VV	n/a	LTP166	ltpFR	1	3	1	GUARDIAN	668	n/a	1	n/a	n/a	n/a	n/a	n/a
3747788	RECOG_RESP	n/a	LTP166	ltpFR	1	3	1	GUARDIAN	668	n/a	1	n/a	n/a	n/a	n/a	n/a
3748868	RECOG_CONF	n/a	LTP166	ltpFR	1	3	1	GUARDIAN	668	5	1	n/a	n/a	n/a	n/a	n/a
3750607	RECOG_TARGET	n/a	LTP166	ltpFR	1	3	0	TRAY	1498	5	1	n/a	n/a	n/a	n/a	n/a
3751436	RECOG_RESP	n/a	LTP166	ltpFR	1	3	0	TRAY	1498	n/a	1	n/a	n/a	n/a	n/a	n/a
3752417	RECOG_CONF	n/a	LTP166	ltpFR	1	3	0	TRAY	1498	5	1	n/a	n/a	n/a	n/a	n/a
3754135	RECOG_TARGET	n/a	LTP166	ltpFR	1	3	1	SWAMP	1416	5	1	n/a	n/a	n/a	n/a	n/a
3754817	RECOG_RESP	n/a	LTP166	ltpFR	1	3	1	SWAMP	1416	n/a	1	n/a	n/a	n/a	n/a	n/a
3755748	RECOG_CONF	n/a	LTP166	ltpFR	1	3	1	SWAMP	1416	5	1	n/a	n/a	n/a	n/a	n/a
3757314	RECOG_TARGET	n/a	LTP166	ltpFR	1	3	0	MONK	910	5	1	n/a	n/a	n/a	n/a	n/a
3758524	RECOG_RESP	n/a	LTP166	ltpFR	1	3	0	MONK	910	n/a	1	n/a	n/a	n/a	n/a	n/a
3759486	RECOG_CONF	n/a	LTP166	ltpFR	1	3	0	MONK	910	5	1	n/a	n/a	n/a	n/a	n/a
3761259	RECOG_TARGET	n/a	LTP166	ltpFR	1	3	1	SUBMARINE	1398	5	0	n/a	n/a	n/a	n/a	n/a
3762193	RECOG_RESP	n/a	LTP166	ltpFR	1	3	1	SUBMARINE	1398	n/a	0	n/a	n/a	n/a	n/a	n/a
3763160	RECOG_CONF	n/a	LTP166	ltpFR	1	3	1	SUBMARINE	1398	5	0	n/a	n/a	n/a	n/a	n/a
3764719	RECOG_TARGET	n/a	LTP166	ltpFR	1	3	1	ACTRESS	6	5	1	n/a	n/a	n/a	n/a	n/a
3765391	RECOG_RESP	n/a	LTP166	ltpFR	1	3	1	ACTRESS	6	n/a	1	n/a	n/a	n/a	n/a	n/a
3766307	RECOG_CONF	n/a	LTP166	ltpFR	1	3	1	ACTRESS	6	5	1	n/a	n/a	n/a	n/a	n/a
3767915	RECOG_LURE	n/a	LTP166	ltpFR	1	3	n/a	CONVENT	370	5	n/a	n/a	n/a	n/a	n/a	n/a
3769175	RECOG_RESP	n/a	LTP166	ltpFR	1	3	n/a	CONVENT	370	n/a	n/a	n/a	n/a	n/a	n/a	n/a
3770084	RECOG_CONF	n/a	LTP166	ltpFR	1	3	n/a	CONVENT	370	5	n/a	n/a	n/a	n/a	n/a	n/a
3771642	RECOG_TARGET	n/a	LTP166	ltpFR	1	3	1	WAGON	1578	3	0	n/a	n/a	n/a	n/a	n/a
3773273	RECOG_RESP	n/a	LTP166	ltpFR	1	3	1	WAGON	1578	n/a	0	n/a	n/a	n/a	n/a	n/a
3774305	RECOG_CONF	n/a	LTP166	ltpFR	1	3	1	WAGON	1578	3	0	n/a	n/a	n/a	n/a	n/a
3776136	RECOG_TARGET	n/a	LTP166	ltpFR	1	3	0	DESSERT	453	5	0	n/a	n/a	n/a	n/a	n/a
3776851	RECOG_RESP	n/a	LTP166	ltpFR	1	3	0	DESSERT	453	n/a	0	n/a	n/a	n/a	n/a	n/a
3777869	RECOG_CONF	n/a	LTP166	ltpFR	1	3	0	DESSERT	453	5	0	n/a	n/a	n/a	n/a	n/a
3779497	RECOG_LURE	n/a	LTP166	ltpFR	1	3	n/a	TEENAGER	1444	3	n/a	n/a	n/a	n/a	n/a	n/a
3781342	RECOG_RESP	n/a	LTP166	ltpFR	1	3	n/a	TEENAGER	1444	n/a	n/a	n/a	n/a	n/a	n/a	n/a
3782599	RECOG_CONF	n/a	LTP166	ltpFR	1	3	n/a	TEENAGER	1444	3	n/a	n/a	n/a	n/a	n/a	n/a
3786402	REC_START	n/a	LTP166	ltpFR	1	4	n/a	n/a	n/a	n/a	n/a	n/a	n/a	n/a	n/a	n/a
3786437	RECOG_TARGET	n/a	LTP166	ltpFR	1	4	1	PASSAGE	1019	2	0	n/a	n/a	n/a	n/a	n/a
3787823	RECOG_RESP	n/a	LTP166	ltpFR	1	4	1	PASSAGE	1019	n/a	0	n/a	n/a	n/a	n/a	n/a
3789113	RECOG_CONF	n/a	LTP166	ltpFR	1	4	1	PASSAGE	1019	2	0	n/a	n/a	n/a	n/a	n/a
3790830	RECOG_TARGET	n/a	LTP166	ltpFR	1	4	-1	BLANKET	135	3	-1	n/a	n/a	n/a	n/a	n/a
3792188	RECOG_RESP	n/a	LTP166	ltpFR	1	4	-1	BLANKET	135	n/a	-1	n/a	n/a	n/a	n/a	n/a
3793508	RECOG_CONF	n/a	LTP166	ltpFR	1	4	-1	BLANKET	135	3	-1	n/a	n/a	n/a	n/a	n/a
3795225	RECOG_TARGET	n/a	LTP166	ltpFR	1	4	0	LONDON	843	5	1	n/a	n/a	n/a	n/a	n/a
3795866	RECOG_RESP	n/a	LTP166	ltpFR	1	4	0	LONDON	843	n/a	1	n/a	n/a	n/a	n/a	n/a
3796943	RECOG_CONF	n/a	LTP166	ltpFR	1	4	0	LONDON	843	5	1	n/a	n/a	n/a	n/a	n/a
3798519	RECOG_TARGET	n/a	LTP166	ltpFR	1	4	-1	CACTUS	215	5	-1	n/a	n/a	n/a	n/a	n/a
3799246	RECOG_RESP	n/a	LTP166	ltpFR	1	4	-1	CACTUS	215	n/a	-1	n/a	n/a	n/a	n/a	n/a
3800315	RECOG_CONF	n/a	LTP166	ltpFR	1	4	-1	CACTUS	215	5	-1	n/a	n/a	n/a	n/a	n/a
3801764	RECOG_TARGET	n/a	LTP166	ltpFR	1	4	1	GUARD	667	5	1	n/a	n/a	n/a	n/a	n/a
3802670	RECOG_RESP	n/a	LTP166	ltpFR	1	4	1	GUARD	667	n/a	1	n/a	n/a	n/a	n/a	n/a
3803707	RECOG_CONF	n/a	LTP166	ltpFR	1	4	1	GUARD	667	5	1	n/a	n/a	n/a	n/a	n/a
3805176	RECOG_TARGET	n/a	LTP166	ltpFR	1	4	1	FARM	552	5	0	n/a	n/a	n/a	n/a	n/a
3805883	RECOG_RESP	n/a	LTP166	ltpFR	1	4	1	FARM	552	n/a	0	n/a	n/a	n/a	n/a	n/a
3806888	RECOG_CONF	n/a	LTP166	ltpFR	1	4	1	FARM	552	5	0	n/a	n/a	n/a	n/a	n/a
3808421	RECOG_TARGET	n/a	LTP166	ltpFR	1	4	1	PLAID	1080	5	0	n/a	n/a	n/a	n/a	n/a
3809055	RECOG_RESP	n/a	LTP166	ltpFR	1	4	1	PLAID	1080	n/a	0	n/a	n/a	n/a	n/a	n/a
3810043	RECOG_CONF	n/a	LTP166	ltpFR	1	4	1	PLAID	1080	5	0	n/a	n/a	n/a	n/a	n/a
3811683	RECOG_TARGET	n/a	LTP166	ltpFR	1	4	0	ANIMAL	23	5	1	n/a	n/a	n/a	n/a	n/a
3812350	RECOG_RESP	n/a	LTP166	ltpFR	1	4	0	ANIMAL	23	n/a	1	n/a	n/a	n/a	n/a	n/a
3813275	RECOG_CONF	n/a	LTP166	ltpFR	1	4	0	ANIMAL	23	5	1	n/a	n/a	n/a	n/a	n/a
3814845	RECOG_TARGET	n/a	LTP166	ltpFR	1	4	0	BRACELET	163	5	0	n/a	n/a	n/a	n/a	n/a
3816022	RECOG_RESP	n/a	LTP166	ltpFR	1	4	0	BRACELET	163	n/a	0	n/a	n/a	n/a	n/a	n/a
3817037	RECOG_CONF	n/a	LTP166	ltpFR	1	4	0	BRACELET	163	5	0	n/a	n/a	n/a	n/a	n/a
3818522	RECOG_TARGET	n/a	LTP166	ltpFR	1	4	-1	CAB	209	3	-1	n/a	n/a	n/a	n/a	n/a
3819481	RECOG_RESP_VV	n/a	LTP166	ltpFR	1	4	-1	CAB	209	n/a	-1	n/a	n/a	n/a	n/a	n/a
3820016	RECOG_RESP	n/a	LTP166	ltpFR	1	4	-1	CAB	209	n/a	-1	n/a	n/a	n/a	n/a	n/a
3821711	RECOG_CONF	n/a	LTP166	ltpFR	1	4	-1	CAB	209	3	-1	n/a	n/a	n/a	n/a	n/a
3823382	RECOG_TARGET	n/a	LTP166	ltpFR	1	4	0	BALLOT	76	5	0	n/a	n/a	n/a	n/a	n/a
3824522	RECOG_RESP	n/a	LTP166	ltpFR	1	4	0	BALLOT	76	n/a	0	n/a	n/a	n/a	n/a	n/a
3825541	RECOG_CONF	n/a	LTP166	ltpFR	1	4	0	BALLOT	76	5	0	n/a	n/a	n/a	n/a	n/a
3827110	RECOG_TARGET	n/a	LTP166	ltpFR	1	4	1	LADDER	793	5	0	n/a	n/a	n/a	n/a	n/a
3828432	RECOG_RESP	n/a	LTP166	ltpFR	1	4	1	LADDER	793	n/a	0	n/a	n/a	n/a	n/a	n/a
3829529	RECOG_CONF	n/a	LTP166	ltpFR	1	4	1	LADDER	793	5	0	n/a	n/a	n/a	n/a	n/a
3831137	RECOG_TARGET	n/a	LTP166	ltpFR	1	4	1	APPENDAGE	32	5	0	n/a	n/a	n/a	n/a	n/a
3831998	RECOG_RESP	n/a	LTP166	ltpFR	1	4	1	APPENDAGE	32	n/a	0	n/a	n/a	n/a	n/a	n/a
3833111	RECOG_CONF	n/a	LTP166	ltpFR	1	4	1	APPENDAGE	32	5	0	n/a	n/a	n/a	n/a	n/a
3834732	RECOG_LURE	n/a	LTP166	ltpFR	1	4	n/a	FUGITIVE	612	3	n/a	n/a	n/a	n/a	n/a	n/a
3835757	RECOG_RESP	n/a	LTP166	ltpFR	1	4	n/a	FUGITIVE	612	n/a	n/a	n/a	n/a	n/a	n/a	n/a
3837248	RECOG_CONF	n/a	LTP166	ltpFR	1	4	n/a	FUGITIVE	612	3	n/a	n/a	n/a	n/a	n/a	n/a
3838842	RECOG_TARGET	n/a	LTP166	ltpFR	1	4	0	GUEST	669	3	1	n/a	n/a	n/a	n/a	n/a
3839851	RECOG_RESP	n/a	LTP166	ltpFR	1	4	0	GUEST	669	n/a	1	n/a	n/a	n/a	n/a	n/a
3841174	RECOG_CONF	n/a	LTP166	ltpFR	1	4	0	GUEST	669	3	1	n/a	n/a	n/a	n/a	n/a
3842986	RECOG_LURE	n/a	LTP166	ltpFR	1	4	n/a	RADIATOR	1156	4	n/a	n/a	n/a	n/a	n/a	n/a
3844301	RECOG_RESP	n/a	LTP166	ltpFR	1	4	n/a	RADIATOR	1156	n/a	n/a	n/a	n/a	n/a	n/a	n/a
3845766	RECOG_CONF	n/a	LTP166	ltpFR	1	4	n/a	RADIATOR	1156	4	n/a	n/a	n/a	n/a	n/a	n/a
3847413	RECOG_TARGET	n/a	LTP166	ltpFR	1	4	1	COW	393	5	1	n/a	n/a	n/a	n/a	n/a
3848730	RECOG_RESP_VV	n/a	LTP166	ltpFR	1	4	1	COW	393	n/a	1	n/a	n/a	n/a	n/a	n/a
3849635	RECOG_RESP	n/a	LTP166	ltpFR	1	4	1	COW	393	n/a	1	n/a	n/a	n/a	n/a	n/a
3851070	RECOG_CONF	n/a	LTP166	ltpFR	1	4	1	COW	393	5	1	n/a	n/a	n/a	n/a	n/a
3852688	RECOG_LURE	n/a	LTP166	ltpFR	1	4	n/a	MIRROR	899	2	n/a	n/a	n/a	n/a	n/a	n/a
3853648	RECOG_RESP	n/a	LTP166	ltpFR	1	4	n/a	MIRROR	899	n/a	n/a	n/a	n/a	n/a	n/a	n/a
3855413	RECOG_CONF	n/a	LTP166	ltpFR	1	4	n/a	MIRROR	899	2	n/a	n/a	n/a	n/a	n/a	n/a
3857098	RECOG_TARGET	n/a	LTP166	ltpFR	1	4	-1	ORNAMENT	985	5	-1	n/a	n/a	n/a	n/a	n/a
3858162	RECOG_RESP	n/a	LTP166	ltpFR	1	4	-1	ORNAMENT	985	n/a	-1	n/a	n/a	n/a	n/a	n/a
3859132	RECOG_CONF	n/a	LTP166	ltpFR	1	4	-1	ORNAMENT	985	5	-1	n/a	n/a	n/a	n/a	n/a
3860659	RECOG_TARGET	n/a	LTP166	ltpFR	1	4	1	QUILT	1151	5	0	n/a	n/a	n/a	n/a	n/a
3861339	RECOG_RESP	n/a	LTP166	ltpFR	1	4	1	QUILT	1151	n/a	0	n/a	n/a	n/a	n/a	n/a
3862324	RECOG_CONF	n/a	LTP166	ltpFR	1	4	1	QUILT	1151	5	0	n/a	n/a	n/a	n/a	n/a
3867785	REC_START	n/a	LTP166	ltpFR	1	5	n/a	n/a	n/a	n/a	n/a	n/a	n/a	n/a	n/a	n/a
3867815	RECOG_TARGET	n/a	LTP166	ltpFR	1	5	-1	HOSTESS	723	5	-1	n/a	n/a	n/a	n/a	n/a
3868544	RECOG_RESP	n/a	LTP166	ltpFR	1	5	-1	HOSTESS	723	n/a	-1	n/a	n/a	n/a	n/a	n/a
3869559	RECOG_CONF	n/a	LTP166	ltpFR	1	5	-1	HOSTESS	723	5	-1	n/a	n/a	n/a	n/a	n/a
3871111	RECOG_LURE	n/a	LTP166	ltpFR	1	5	n/a	TULIP	1517	3	n/a	n/a	n/a	n/a	n/a	n/a
3872332	RECOG_RESP	n/a	LTP166	ltpFR	1	5	n/a	TULIP	1517	n/a	n/a	n/a	n/a	n/a	n/a	n/a
3873527	RECOG_CONF	n/a	LTP166	ltpFR	1	5	n/a	TULIP	1517	3	n/a	n/a	n/a	n/a	n/a	n/a
3875154	RECOG_TARGET	n/a	LTP166	ltpFR	1	5	0	COACH	331	5	1	n/a	n/a	n/a	n/a	n/a
3876219	RECOG_RESP	n/a	LTP166	ltpFR	1	5	0	COACH	331	n/a	1	n/a	n/a	n/a	n/a	n/a
3877348	RECOG_CONF	n/a	LTP166	ltpFR	1	5	0	COACH	331	5	1	n/a	n/a	n/a	n/a	n/a
3879049	RECOG_TARGET	n/a	LTP166	ltpFR	1	5	0	EXPERT	543	4	1	n/a	n/a	n/a	n/a	n/a
3880032	RECOG_RESP	n/a	LTP166	ltpFR	1	5	0	EXPERT	543	n/a	1	n/a	n/a	n/a	n/a	n/a
3882779	RECOG_CONF	n/a	LTP166	ltpFR	1	5	0	EXPERT	543	4	1	n/a	n/a	n/a	n/a	n/a
3884707	RECOG_TARGET	n/a	LTP166	ltpFR	1	5	-1	GOWN	652	5	-1	n/a	n/a	n/a	n/a	n/a
3886362	RECOG_RESP_VV	n/a	LTP166	ltpFR	1	5	-1	GOWN	652	n/a	-1	n/a	n/a	n/a	n/a	n/a
3886922	RECOG_RESP	n/a	LTP166	ltpFR	1	5	-1	GOWN	652	n/a	-1	n/a	n/a	n/a	n/a	n/a
3888051	RECOG_CONF	n/a	LTP166	ltpFR	1	5	-1	GOWN	652	5	-1	n/a	n/a	n/a	n/a	n/a
3889783	RECOG_TARGET	n/a	LTP166	ltpFR	1	5	0	MOTORCYCLE	923	5	1	n/a	n/a	n/a	n/a	n/a
3890611	RECOG_RESP	n/a	LTP166	ltpFR	1	5	0	MOTORCYCLE	923	n/a	1	n/a	n/a	n/a	n/a	n/a
3891608	RECOG_CONF	n/a	LTP166	ltpFR	1	5	0	MOTORCYCLE	923	5	1	n/a	n/a	n/a	n/a	n/a
3893144	RECOG_LURE	n/a	LTP166	ltpFR	1	5	n/a	BUFFALO	186	4	n/a	n/a	n/a	n/a	n/a	n/a
3894108	RECOG_RESP	n/a	LTP166	ltpFR	1	5	n/a	BUFFALO	186	n/a	n/a	n/a	n/a	n/a	n/a	n/a
3895579	RECOG_CONF	n/a	LTP166	ltpFR	1	5	n/a	BUFFALO	186	4	n/a	n/a	n/a	n/a	n/a	n/a
3897338	RECOG_TARGET	n/a	LTP166	ltpFR	1	5	1	MOWER	928	5	0	n/a	n/a	n/a	n/a	n/a
3898303	RECOG_RESP	n/a	LTP166	ltpFR	1	5	1	MOWER	928	n/a	0	n/a	n/a	n/a	n/a	n/a
3899334	RECOG_CONF	n/a	LTP166	ltpFR	1	5	1	MOWER	928	5	0	n/a	n/a	n/a	n/a	n/a
3901049	RECOG_TARGET	n/a	LTP166	ltpFR	1	5	0	CUFF	423	5	0	n/a	n/a	n/a	n/a	n/a
3901747	RECOG_RESP	n/a	LTP166	ltpFR	1	5	0	CUFF	423	n/a	0	n/a	n/a	n/a	n/a	n/a
3902641	RECOG_CONF	n/a	LTP166	ltpFR	1	5	0	CUFF	423	5	0	n/a	n/a	n/a	n/a	n/a
3904178	RECOG_LURE	n/a	LTP166	ltpFR	1	5	n/a	JACKET	747	4	n/a	n/a	n/a	n/a	n/a	n/a
3904923	RECOG_RESP	n/a	LTP166	ltpFR	1	5	n/a	JACKET	747	n/a	n/a	n/a	n/a	n/a	n/a	n/a
3905959	RECOG_CONF	n/a	LTP166	ltpFR	1	5	n/a	JACKET	747	4	n/a	n/a	n/a	n/a	n/a	n/a
3907706	RECOG_LURE	n/a	LTP166	ltpFR	1	5	n/a	BRAIN	165	3	n/a	n/a	n/a	n/a	n/a	n/a
3909007	RECOG_RESP	n/a	LTP166	ltpFR	1	5	n/a	BRAIN	165	n/a	n/a	n/a	n/a	n/a	n/a	n/a
3910501	RECOG_CONF	n/a	LTP166	ltpFR	1	5	n/a	BRAIN	165	3	n/a	n/a	n/a	n/a	n/a	n/a
3912332	RECOG_TARGET	n/a	LTP166	ltpFR	1	5	1	CRAB	397	4	1	n/a	n/a	n/a	n/a	n/a
3913517	RECOG_RESP	n/a	LTP166	ltpFR	1	5	1	CRAB	397	n/a	1	n/a	n/a	n/a	n/a	n/a
3914888	RECOG_CONF	n/a	LTP166	ltpFR	1	5	1	CRAB	397	4	1	n/a	n/a	n/a	n/a	n/a
3916709	RECOG_TARGET	n/a	LTP166	ltpFR	1	5	1	HIGHWAY	707	1	0	n/a	n/a	n/a	n/a	n/a
3918086	RECOG_RESP	n/a	LTP166	ltpFR	1	5	1	HIGHWAY	707	n/a	0	n/a	n/a	n/a	n/a	n/a
3919574	RECOG_CONF	n/a	LTP166	ltpFR	1	5	1	HIGHWAY	707	1	0	n/a	n/a	n/a	n/a	n/a
3921402	RECOG_TARGET	n/a	LTP166	ltpFR	1	5	1	BANNER	85	5	0	n/a	n/a	n/a	n/a	n/a
3922313	RECOG_RESP	n/a	LTP166	ltpFR	1	5	1	BANNER	85	n/a	0	n/a	n/a	n/a	n/a	n/a
3923303	RECOG_CONF	n/a	LTP166	ltpFR	1	5	1	BANNER	85	5	0	n/a	n/a	n/a	n/a	n/a
3925030	RECOG_TARGET	n/a	LTP166	ltpFR	1	5	1	WITCH	1617	5	1	n/a	n/a	n/a	n/a	n/a
3926231	RECOG_RESP	n/a	LTP166	ltpFR	1	5	1	WITCH	1617	n/a	1	n/a	n/a	n/a	n/a	n/a
3927315	RECOG_CONF	n/a	LTP166	ltpFR	1	5	1	WITCH	1617	5	1	n/a	n/a	n/a	n/a	n/a
3928841	RECOG_TARGET	n/a	LTP166	ltpFR	1	5	1	UNIVERSE	1540	5	0	n/a	n/a	n/a	n/a	n/a
3929632	RECOG_RESP	n/a	LTP166	ltpFR	1	5	1	UNIVERSE	1540	n/a	0	n/a	n/a	n/a	n/a	n/a
3930717	RECOG_CONF	n/a	LTP166	ltpFR	1	5	1	UNIVERSE	1540	5	0	n/a	n/a	n/a	n/a	n/a
3932452	RECOG_TARGET	n/a	LTP166	ltpFR	1	5	0	DUSTPAN	509	5	1	n/a	n/a	n/a	n/a	n/a
3933296	RECOG_RESP	n/a	LTP166	ltpFR	1	5	0	DUSTPAN	509	n/a	1	n/a	n/a	n/a	n/a	n/a
3934339	RECOG_CONF	n/a	LTP166	ltpFR	1	5	0	DUSTPAN	509	5	1	n/a	n/a	n/a	n/a	n/a
3936047	RECOG_TARGET	n/a	LTP166	ltpFR	1	5	-1	FRIAR	605	5	-1	n/a	n/a	n/a	n/a	n/a
3936926	RECOG_RESP	n/a	LTP166	ltpFR	1	5	-1	FRIAR	605	n/a	-1	n/a	n/a	n/a	n/a	n/a
3937853	RECOG_CONF	n/a	LTP166	ltpFR	1	5	-1	FRIAR	605	5	-1	n/a	n/a	n/a	n/a	n/a
3939475	RECOG_LURE	n/a	LTP166	ltpFR	1	5	n/a	PURSE	1145	2	n/a	n/a	n/a	n/a	n/a	n/a
3941805	RECOG_RESP	n/a	LTP166	ltpFR	1	5	n/a	PURSE	1145	n/a	n/a	n/a	n/a	n/a	n/a	n/a
3943259	RECOG_CONF	n/a	LTP166	ltpFR	1	5	n/a	PURSE	1145	2	n/a	n/a	n/a	n/a	n/a	n/a
3944984	RECOG_TARGET	n/a	LTP166	ltpFR	1	5	1	FLIPPER	580	5	0	n/a	n/a	n/a	n/a	n/a
3946761	RECOG_RESP	n/a	LTP166	ltpFR	1	5	1	FLIPPER	580	n/a	0	n/a	n/a	n/a	n/a	n/a
3947798	RECOG_CONF	n/a	LTP166	ltpFR	1	5	1	FLIPPER	580	5	0	n/a	n/a	n/a	n/a	n/a
3952014	REC_START	n/a	LTP166	ltpFR	1	6	n/a	n/a	n/a	n/a	n/a	n/a	n/a	n/a	n/a	n/a
3952040	RECOG_TARGET	n/a	LTP166	ltpFR	1	6	1	BROOK	177	5	0	n/a	n/a	n/a	n/a	n/a
3952795	RECOG_RESP	n/a	LTP166	ltpFR	1	6	1	BROOK	177	n/a	0	n/a	n/a	n/a	n/a	n/a
3953675	RECOG_CONF	n/a	LTP166	ltpFR	1	6	1	BROOK	177	5	0	n/a	n/a	n/a	n/a	n/a
3955335	RECOG_LURE	n/a	LTP166	ltpFR	1	6	n/a	PROTON	1132	5	n/a	n/a	n/a	n/a	n/a	n/a
3956590	RECOG_RESP	n/a	LTP166	ltpFR	1	6	n/a	PROTON	1132	n/a	n/a	n/a	n/a	n/a	n/a	n/a
3957510	RECOG_CONF	n/a	LTP166	ltpFR	1	6	n/a	PROTON	1132	5	n/a	n/a	n/a	n/a	n/a	n/a
3959162	RECOG_TARGET	n/a	LTP166	ltpFR	1	6	-1	LEADER	807	5	-1	n/a	n/a	n/a	n/a	n/a
3960186	RECOG_RESP	n/a	LTP166	ltpFR	1	6	-1	LEADER	807	n/a	-1	n/a	n/a	n/a	n/a	n/a
3961183	RECOG_CONF	n/a	LTP166	ltpFR	1	6	-1	LEADER	807	5	-1	n/a	n/a	n/a	n/a	n/a
3962857	RECOG_TARGET	n/a	LTP166	ltpFR	1	6	0	NAVIGATOR	938	3	1	n/a	n/a	n/a	n/a	n/a
3963960	RECOG_RESP	n/a	LTP166	ltpFR	1	6	0	NAVIGATOR	938	n/a	1	n/a	n/a	n/a	n/a	n/a
3964946	RECOG_CONF	n/a	LTP166	ltpFR	1	6	0	NAVIGATOR	938	3	1	n/a	n/a	n/a	n/a	n/a
3966635	RECOG_TARGET	n/a	LTP166	ltpFR	1	6	-1	POPE	1105	5	-1	n/a	n/a	n/a	n/a	n/a
3967712	RECOG_RESP	n/a	LTP166	ltpFR	1	6	-1	POPE	1105	n/a	-1	n/a	n/a	n/a	n/a	n/a
3968629	RECOG_CONF	n/a	LTP166	ltpFR	1	6	-1	POPE	1105	5	-1	n/a	n/a	n/a	n/a	n/a
3970312	RECOG_LURE	n/a	LTP166	ltpFR	1	6	n/a	EMPLOYER	532	2	n/a	n/a	n/a	n/a	n/a	n/a
3971607	RECOG_RESP	n/a	LTP166	ltpFR	1	6	n/a	EMPLOYER	532	n/a	n/a	n/a	n/a	n/a	n/a	n/a
3972636	RECOG_CONF	n/a	LTP166	ltpFR	1	6	n/a	EMPLOYER	532	2	n/a	n/a	n/a	n/a	n/a	n/a
3974373	RECOG_TARGET	n/a	LTP166	ltpFR	1	6	0	DANDELION	438	5	0	n/a	n/a	n/a	n/a	n/a
3975612	RECOG_RESP	n/a	LTP166	ltpFR	1	6	0	DANDELION	438	n/a	0	n/a	n/a	n/a	n/a	n/a
3976667	RECOG_CONF	n/a	LTP166	ltpFR	1	6	0	DANDELION	438	5	0	n/a	n/a	n/a	n/a	n/a
3978417	RECOG_TARGET	n/a	LTP166	ltpFR	1	6	-1	BOAT	144	5	-1	n/a	n/a	n/a	n/a	n/a
3979370	RECOG_RESP	n/a	LTP166	ltpFR	1	6	-1	BOAT	144	n/a	-1	n/a	n/a	n/a	n/a	n/a
3980331	RECOG_CONF	n/a	LTP166	ltpFR	1	6	-1	BOAT	144	5	-1	n/a	n/a	n/a	n/a	n/a
3981978	RECOG_TARGET	n/a	LTP166	ltpFR	1	6	-1	SEAL	1262	5	-1	n/a	n/a	n/a	n/a	n/a
3982876	RECOG_RESP	n/a	LTP166	ltpFR	1	6	-1	SEAL	1262	n/a	-1	n/a	n/a	n/a	n/a	n/a
3983872	RECOG_CONF	n/a	LTP166	ltpFR	1	6	-1	SEAL	1262	5	-1	n/a	n/a	n/a	n/a	n/a
3985590	RECOG_TARGET	n/a	LTP166	ltpFR	1	6	0	VAN	1548	5	1	n/a	n/a	n/a	n/a	n/a
3986595	RECOG_RESP	n/a	LTP166	ltpFR	1	6	0	VAN	1548	n/a	1	n/a	n/a	n/a	n/a	n/a
3987602	RECOG_CONF	n/a	LTP166	ltpFR	1	6	0	VAN	1548	5	1	n/a	n/a	n/a	n/a	n/a
3989252	RECOG_TARGET	n/a	LTP166	ltpFR	1	6	1	PRINCE	1124	5	1	n/a	n/a	n/a	n/a	n/a
3990039	RECOG_RESP	n/a	LTP166	ltpFR	1	6	1	PRINCE	1124	n/a	1	n/a	n/a	n/a	n/a	n/a
3990895	RECOG_CONF	n/a	LTP166	ltpFR	1	6	1	PRINCE	1124	5	1	n/a	n/a	n/a	n/a	n/a
3992529	RECOG_TARGET	n/a	LTP166	ltpFR	1	6	-1	CORPORATION	382	5	-1	n/a	n/a	n/a	n/a	n/a
3993559	RECOG_RESP	n/a	LTP166	ltpFR	1	6	-1	CORPORATION	382	n/a	-1	n/a	n/a	n/a	n/a	n/a
3994380	RECOG_CONF	n/a	LTP166	ltpFR	1	6	-1	CORPORATION	382	5	-1	n/a	n/a	n/a	n/a	n/a
3995991	RECOG_TARGET	n/a	LTP166	ltpFR	1	6	0	BUTTER	205	3	0	n/a	n/a	n/a	n/a	n/a
3996962	RECOG_RESP	n/a	LTP166	ltpFR	1	6	0	BUTTER	205	n/a	0	n/a	n/a	n/a	n/a	n/a
3997964	RECOG_CONF	n/a	LTP166	ltpFR	1	6	0	BUTTER	205	3	0	n/a	n/a	n/a	n/a	n/a
3999619	RECOG_TARGET	n/a	LTP166	ltpFR	1	6	-1	APPLE	33	5	-1	n/a	n/a	n/a	n/a	n/a
4000526	RECOG_RESP	n/a	LTP166	ltpFR	1	6	-1	APPLE	33	n/a	-1	n/a	n/a	n/a	n/a	n/a
4001445	RECOG_CONF	n/a	LTP166	ltpFR	1	6	-1	APPLE	33	5	-1	n/a	n/a	n/a	n/a	n/a
4003113	RECOG_TARGET	n/a	LTP166	ltpFR	1	6	1	INSECT	740	5	1	n/a	n/a	n/a	n/a	n/a
4004048	RECOG_RESP	n/a	LTP166	ltpFR	1	6	1	INSECT	740	n/a	1	n/a	n/a	n/a	n/a	n/a
4005028	RECOG_CONF	n/a	LTP166	ltpFR	1	6	1	INSECT	740	5	1	n/a	n/a	n/a	n/a	n/a
4006741	RECOG_LURE	n/a	LTP166	ltpFR	1	6	n/a	FOSSIL	596	3	n/a	n/a	n/a	n/a	n/a	n/a
4008120	RECOG_RESP	n/a	LTP166	ltpFR	1	6	n/a	FOSSIL	596	n/a	n/a	n/a	n/a	n/a	n/a	n/a
4009512	RECOG_CONF	n/a	LTP166	ltpFR	1	6	n/a	FOSSIL	596	3	n/a	n/a	n/a	n/a	n/a	n/a
4011817	RECOG_TARGET	n/a	LTP166	ltpFR	1	6	1	KEY	773	5	0	n/a	n/a	n/a	n/a	n/a
4013188	RECOG_RESP	n/a	LTP166	ltpFR	1	6	1	KEY	773	n/a	0	n/a	n/a	n/a	n/a	n/a
4014197	RECOG_CONF	n/a	LTP166	ltpFR	1	6	1	KEY	773	5	0	n/a	n/a	n/a	n/a	n/a
4015961	RECOG_TARGET	n/a	LTP166	ltpFR	1	6	0	HAMMOCK	681	5	1	n/a	n/a	n/a	n/a	n/a
4016792	RECOG_RESP	n/a	LTP166	ltpFR	1	6	0	HAMMOCK	681	n/a	1	n/a	n/a	n/a	n/a	n/a
4017673	RECOG_CONF	n/a	LTP166	ltpFR	1	6	0	HAMMOCK	681	5	1	n/a	n/a	n/a	n/a	n/a
4019372	RECOG_TARGET	n/a	LTP166	ltpFR	1	6	0	FINGER	567	5	0	n/a	n/a	n/a	n/a	n/a
4020114	RECOG_RESP	n/a	LTP166	ltpFR	1	6	0	FINGER	567	n/a	0	n/a	n/a	n/a	n/a	n/a
4021017	RECOG_CONF	n/a	LTP166	ltpFR	1	6	0	FINGER	567	5	0	n/a	n/a	n/a	n/a	n/a
4022601	RECOG_TARGET	n/a	LTP166	ltpFR	1	6	1	ESSAY	540	5	0	n/a	n/a	n/a	n/a	n/a
4023461	RECOG_RESP	n/a	LTP166	ltpFR	1	6	1	ESSAY	540	n/a	0	n/a	n/a	n/a	n/a	n/a
4024399	RECOG_CONF	n/a	LTP166	ltpFR	1	6	1	ESSAY	540	5	0	n/a	n/a	n/a	n/a	n/a
4029038	REC_START	n/a	LTP166	ltpFR	1	7	n/a	n/a	n/a	n/a	n/a	n/a	n/a	n/a	n/a	n/a
4029075	RECOG_TARGET	n/a	LTP166	ltpFR	1	7	0	GROCERIES	663	5	1	n/a	n/a	n/a	n/a	n/a
4030447	RECOG_RESP	n/a	LTP166	ltpFR	1	7	0	GROCERIES	663	n/a	1	n/a	n/a	n/a	n/a	n/a
4031687	RECOG_CONF	n/a	LTP166	ltpFR	1	7	0	GROCERIES	663	5	1	n/a	n/a	n/a	n/a	n/a
4033285	RECOG_TARGET	n/a	LTP166	ltpFR	1	7	0	EGG	518	5	0	n/a	n/a	n/a	n/a	n/a
4034060	RECOG_RESP	n/a	LTP166	ltpFR	1	7	0	EGG	518	n/a	0	n/a	n/a	n/a	n/a	n/a
4035230	RECOG_CONF	n/a	LTP166	ltpFR	1	7	0	EGG	518	5	0	n/a	n/a	n/a	n/a	n/a
4036747	RECOG_TARGET	n/a	LTP166	ltpFR	1	7	0	COMMUNITY	356	5	1	n/a	n/a	n/a	n/a	n/a
4037479	RECOG_RESP	n/a	LTP166	ltpFR	1	7	0	COMMUNITY	356	n/a	1	n/a	n/a	n/a	n/a	n/a
4038524	RECOG_CONF	n/a	LTP166	ltpFR	1	7	0	COMMUNITY	356	5	1	n/a	n/a	n/a	n/a	n/a
4040308	RECOG_TARGET	n/a	LTP166	ltpFR	1	7	0	MEDAL	885	5	0	n/a	n/a	n/a	n/a	n/a
4040996	RECOG_RESP	n/a	LTP166	ltpFR	1	7	0	MEDAL	885	n/a	0	n/a	n/a	n/a	n/a	n/a
4041901	RECOG_CONF	n/a	LTP166	ltpFR	1	7	0	MEDAL	885	5	0	n/a	n/a	n/a	n/a	n/a
4043620	RECOG_TARGET	n/a	LTP166	ltpFR	1	7	-1	TERMITE	1451	5	-1	n/a	n/a	n/a	n/a	n/a
4044359	RECOG_RESP	n/a	LTP166	ltpFR	1	7	-1	TERMITE	1451	n/a	-1	n/a	n/a	n/a	n/a	n/a
4045352	RECOG_CONF	n/a	LTP166	ltpFR	1	7	-1	TERMITE	1451	5	-1	n/a	n/a	n/a	n/a	n/a
4046965	RECOG_TARGET	n/a	LTP166	ltpFR	1	7	0	DIRECTOR	471	3	1	n/a	n/a	n/a	n/a	n/a
4048248	RECOG_RESP	n/a	LTP166	ltpFR	1	7	0	DIRECTOR	471	n/a	1	n/a	n/a	n/a	n/a	n/a
4049449	RECOG_CONF	n/a	LTP166	ltpFR	1	7	0	DIRECTOR	471	3	1	n/a	n/a	n/a	n/a	n/a
4051308	RECOG_LURE	n/a	LTP166	ltpFR	1	7	n/a	HORSE	719	4	n/a	n/a	n/a	n/a	n/a	n/a
4052392	RECOG_RESP	n/a	LTP166	ltpFR	1	7	n/a	HORSE	719	n/a	n/a	n/a	n/a	n/a	n/a	n/a
