onset	duration	trial_type	sample	stim_file	subject	experiment	session	trial	item_name	item_num	list	answer	test_x	test_y	test_z
238.614	n/a	SESS_START	119307	n/a	LTP210	ltpFR2	14	n/a	n/a	n/a	n/a	n/a	0	0	0
293.702	n/a	START	146851	n/a	LTP210	ltpFR2	14	n/a	n/a	n/a	-1	n/a	n/a	n/a	n/a
293.734	n/a	PROB	146867	n/a	LTP210	ltpFR2	14	n/a	n/a	n/a	-1	16	4	9	3
295.782	n/a	PROB	147891	n/a	LTP210	ltpFR2	14	n/a	n/a	n/a	-1	17	9	2	6
297.644	n/a	PROB	148822	n/a	LTP210	ltpFR2	14	n/a	n/a	n/a	-1	20	7	5	8
299.176	n/a	PROB	149588	n/a	LTP210	ltpFR2	14	n/a	n/a	n/a	-1	23	9	8	6
301.274	n/a	PROB	150637	n/a	LTP210	ltpFR2	14	n/a	n/a	n/a	-1	14	6	6	2
302.488	n/a	PROB	151244	n/a	LTP210	ltpFR2	14	n/a	n/a	n/a	-1	15	2	7	6
304.118	n/a	PROB	152059	n/a	LTP210	ltpFR2	14	n/a	n/a	n/a	-1	14	9	2	3
305.508	n/a	STOP	152754	n/a	LTP210	ltpFR2	14	n/a	n/a	n/a	-1	n/a	n/a	n/a	n/a
404.354	n/a	WORD	202177	wordpools/wasnorm_wordpool_576.txt	LTP210	ltpFR2	14	1	BRIEFCASE	175	n/a	n/a	0	0	0
406.984	n/a	WORD	203492	wordpools/wasnorm_wordpool_576.txt	LTP210	ltpFR2	14	1	CONTRACT	368	n/a	n/a	0	0	0
409.796	n/a	WORD	204898	wordpools/wasnorm_wordpool_576.txt	LTP210	ltpFR2	14	1	SPONGE	1355	n/a	n/a	0	0	0
412.342	n/a	WORD	206171	wordpools/wasnorm_wordpool_576.txt	LTP210	ltpFR2	14	1	OZONE	996	n/a	n/a	0	0	0
414.988	n/a	WORD	207494	wordpools/wasnorm_wordpool_576.txt	LTP210	ltpFR2	14	1	TAXI	1438	n/a	n/a	0	0	0
417.702	n/a	WORD	208851	wordpools/wasnorm_wordpool_576.txt	LTP210	ltpFR2	14	1	SUPPER	1411	n/a	n/a	0	0	0
420.38	n/a	WORD	210190	wordpools/wasnorm_wordpool_576.txt	LTP210	ltpFR2	14	1	PLUTO	1092	n/a	n/a	0	0	0
423.176	n/a	WORD	211588	wordpools/wasnorm_wordpool_576.txt	LTP210	ltpFR2	14	1	WASP	1593	n/a	n/a	0	0	0
425.806	n/a	WORD	212903	wordpools/wasnorm_wordpool_576.txt	LTP210	ltpFR2	14	1	HONEY	713	n/a	n/a	0	0	0
428.6	n/a	WORD	214300	wordpools/wasnorm_wordpool_576.txt	LTP210	ltpFR2	14	1	BELLY	119	n/a	n/a	0	0	0
431.314	n/a	WORD	215657	wordpools/wasnorm_wordpool_576.txt	LTP210	ltpFR2	14	1	RUST	1219	n/a	n/a	0	0	0
434.126	n/a	WORD	217063	wordpools/wasnorm_wordpool_576.txt	LTP210	ltpFR2	14	1	PERCH	1048	n/a	n/a	0	0	0
436.69	n/a	WORD	218345	wordpools/wasnorm_wordpool_576.txt	LTP210	ltpFR2	14	1	DASHBOARD	441	n/a	n/a	0	0	0
439.436	n/a	WORD	219718	wordpools/wasnorm_wordpool_576.txt	LTP210	ltpFR2	14	1	PERFUME	1049	n/a	n/a	0	0	0
441.866	n/a	WORD	220933	wordpools/wasnorm_wordpool_576.txt	LTP210	ltpFR2	14	1	CONVICT	371	n/a	n/a	0	0	0
444.61	n/a	WORD	222305	wordpools/wasnorm_wordpool_576.txt	LTP210	ltpFR2	14	1	AIRPORT	13	n/a	n/a	0	0	0
447.208	n/a	WORD	223604	wordpools/wasnorm_wordpool_576.txt	LTP210	ltpFR2	14	1	GLOBE	641	n/a	n/a	0	0	0
449.836	n/a	WORD	224918	wordpools/wasnorm_wordpool_576.txt	LTP210	ltpFR2	14	1	TROMBONE	1508	n/a	n/a	0	0	0
452.598	n/a	WORD	226299	wordpools/wasnorm_wordpool_576.txt	LTP210	ltpFR2	14	1	DIVER	476	n/a	n/a	0	0	0
455.112	n/a	WORD	227556	wordpools/wasnorm_wordpool_576.txt	LTP210	ltpFR2	14	1	BATHTUB	100	n/a	n/a	0	0	0
457.558	n/a	WORD	228779	wordpools/wasnorm_wordpool_576.txt	LTP210	ltpFR2	14	1	LAGOON	795	n/a	n/a	0	0	0
460.254	n/a	WORD	230127	wordpools/wasnorm_wordpool_576.txt	LTP210	ltpFR2	14	1	MOP	916	n/a	n/a	0	0	0
463.034	n/a	WORD	231517	wordpools/wasnorm_wordpool_576.txt	LTP210	ltpFR2	14	1	MUMMY	932	n/a	n/a	0	0	0
465.546	n/a	WORD	232773	wordpools/wasnorm_wordpool_576.txt	LTP210	ltpFR2	14	1	BANK	83	n/a	n/a	0	0	0
467.162	n/a	START	233581	n/a	LTP210	ltpFR2	14	n/a	n/a	n/a	1	n/a	n/a	n/a	n/a
468.254	n/a	DISTRACTOR	234127	n/a	LTP210	ltpFR2	14	1	n/a	n/a	n/a	n/a	0	0	0
468.26	n/a	PROB	234130	n/a	LTP210	ltpFR2	14	n/a	n/a	n/a	1	15	7	5	3
469.74	n/a	PROB	234870	n/a	LTP210	ltpFR2	14	n/a	n/a	n/a	1	22	8	5	9
472.186	n/a	PROB	236093	n/a	LTP210	ltpFR2	14	n/a	n/a	n/a	1	16	7	1	8
474.566	n/a	PROB	237283	n/a	LTP210	ltpFR2	14	n/a	n/a	n/a	1	12	1	9	2
475.848	n/a	PROB	237924	n/a	LTP210	ltpFR2	14	n/a	n/a	n/a	1	15	5	2	8
477.08	n/a	PROB	238540	n/a	LTP210	ltpFR2	14	n/a	n/a	n/a	1	13	8	1	4
479.06	n/a	PROB	239530	n/a	LTP210	ltpFR2	14	n/a	n/a	n/a	1	24	6	9	9
480.556	n/a	PROB	240278	n/a	LTP210	ltpFR2	14	n/a	n/a	n/a	1	12	8	2	2
481.69	n/a	PROB	240845	n/a	LTP210	ltpFR2	14	n/a	n/a	n/a	1	16	3	8	5
483.668	n/a	PROB	241834	n/a	LTP210	ltpFR2	14	n/a	n/a	n/a	1	13	2	3	8
485.416	n/a	PROB	242708	n/a	LTP210	ltpFR2	14	n/a	n/a	n/a	1	16	6	5	5
486.782	n/a	PROB	243391	n/a	LTP210	ltpFR2	14	n/a	n/a	n/a	1	15	9	5	1
487.914	n/a	PROB	243957	n/a	LTP210	ltpFR2	14	n/a	n/a	n/a	1	22	7	7	8
489.736	n/a	STOP	244868	n/a	LTP210	ltpFR2	14	n/a	n/a	n/a	1	n/a	n/a	n/a	n/a
493.108	n/a	REC_START	246554	n/a	LTP210	ltpFR2	14	1	n/a	n/a	n/a	n/a	0	0	0
493.948	n/a	REC_WORD	246974	wordpools/wasnorm_wordpool_576.txt	LTP210	ltpFR2	14	1	TAXI	1438	n/a	n/a	0	0	0
495.544	n/a	REC_WORD	247772	wordpools/wasnorm_wordpool_576.txt	LTP210	ltpFR2	14	1	BRIEFCASE	175	n/a	n/a	0	0	0
497.188	n/a	REC_WORD	248594	wordpools/wasnorm_wordpool_576.txt	LTP210	ltpFR2	14	1	CONVICT	371	n/a	n/a	0	0	0
502.128	n/a	REC_WORD	251064	wordpools/wasnorm_wordpool_576.txt	LTP210	ltpFR2	14	1	BATHTUB	100	n/a	n/a	0	0	0
503.91	n/a	REC_WORD	251955	wordpools/wasnorm_wordpool_576.txt	LTP210	ltpFR2	14	1	AIRPORT	13	n/a	n/a	0	0	0
505.364	n/a	REC_WORD	252682	wordpools/wasnorm_wordpool_576.txt	LTP210	ltpFR2	14	1	SPONGE	1355	n/a	n/a	0	0	0
507.236	n/a	REC_WORD	253618	wordpools/wasnorm_wordpool_576.txt	LTP210	ltpFR2	14	1	MOP	916	n/a	n/a	0	0	0
508.534	n/a	REC_WORD	254267	wordpools/wasnorm_wordpool_576.txt	LTP210	ltpFR2	14	1	MUMMY	932	n/a	n/a	0	0	0
516.054	n/a	REC_WORD	258027	wordpools/wasnorm_wordpool_576.txt	LTP210	ltpFR2	14	1	PERFUME	1049	n/a	n/a	0	0	0
545.868	n/a	REC_WORD	272934	wordpools/wasnorm_wordpool_576.txt	LTP210	ltpFR2	14	1	DIVER	476	n/a	n/a	0	0	0
584.072	n/a	DISTRACTOR	292036	n/a	LTP210	ltpFR2	14	2	n/a	n/a	n/a	n/a	0	0	0
584.072	n/a	START	292036	n/a	LTP210	ltpFR2	14	n/a	n/a	n/a	2	n/a	n/a	n/a	n/a
584.104	n/a	PROB	292052	n/a	LTP210	ltpFR2	14	n/a	n/a	n/a	2	8	5	1	2
585.404	n/a	PROB	292702	n/a	LTP210	ltpFR2	14	n/a	n/a	n/a	2	19	8	5	6
586.85	n/a	PROB	293425	n/a	LTP210	ltpFR2	14	n/a	n/a	n/a	2	20	8	7	5
591.26	n/a	PROB	295630	n/a	LTP210	ltpFR2	14	n/a	n/a	n/a	2	19	6	4	9
592.46	n/a	PROB	296230	n/a	LTP210	ltpFR2	14	n/a	n/a	n/a	2	15	5	4	6
594.006	n/a	PROB	297003	n/a	LTP210	ltpFR2	14	n/a	n/a	n/a	2	15	8	3	4
595.77	n/a	PROB	297885	n/a	LTP210	ltpFR2	14	n/a	n/a	n/a	2	15	8	6	1
598.8	n/a	PROB	299400	n/a	LTP210	ltpFR2	14	n/a	n/a	n/a	2	15	6	1	8
600.198	n/a	PROB	300099	n/a	LTP210	ltpFR2	14	n/a	n/a	n/a	2	3	1	1	1
601.13	n/a	PROB	300565	n/a	LTP210	ltpFR2	14	n/a	n/a	n/a	2	14	5	6	3
602.576	n/a	PROB	301288	n/a	LTP210	ltpFR2	14	n/a	n/a	n/a	2	23	5	9	9
604.108	n/a	PROB	302054	n/a	LTP210	ltpFR2	14	n/a	n/a	n/a	2	11	6	3	2
605.424	n/a	PROB	302712	n/a	LTP210	ltpFR2	14	n/a	n/a	n/a	2	15	6	8	1
607.112	n/a	STOP	303556	n/a	LTP210	ltpFR2	14	n/a	n/a	n/a	2	n/a	n/a	n/a	n/a
609.268	n/a	WORD	304634	wordpools/wasnorm_wordpool_576.txt	LTP210	ltpFR2	14	2	WRENCH	1625	n/a	n/a	0	0	0
611.896	n/a	WORD	305948	wordpools/wasnorm_wordpool_576.txt	LTP210	ltpFR2	14	2	PLIERS	1089	n/a	n/a	0	0	0
614.46	n/a	WORD	307230	wordpools/wasnorm_wordpool_576.txt	LTP210	ltpFR2	14	2	PANTHER	1009	n/a	n/a	0	0	0
617.122	n/a	WORD	308561	wordpools/wasnorm_wordpool_576.txt	LTP210	ltpFR2	14	2	NAPKIN	937	n/a	n/a	0	0	0
619.65	n/a	WORD	309825	wordpools/wasnorm_wordpool_576.txt	LTP210	ltpFR2	14	2	DANDRUFF	439	n/a	n/a	0	0	0
622.164	n/a	WORD	311082	wordpools/wasnorm_wordpool_576.txt	LTP210	ltpFR2	14	2	AIRPLANE	12	n/a	n/a	0	0	0
624.71	n/a	WORD	312355	wordpools/wasnorm_wordpool_576.txt	LTP210	ltpFR2	14	2	SLOPE	1328	n/a	n/a	0	0	0
627.424	n/a	WORD	313712	wordpools/wasnorm_wordpool_576.txt	LTP210	ltpFR2	14	2	HOUND	724	n/a	n/a	0	0	0
629.954	n/a	WORD	314977	wordpools/wasnorm_wordpool_576.txt	LTP210	ltpFR2	14	2	PAPER	1011	n/a	n/a	0	0	0
632.5	n/a	WORD	316250	wordpools/wasnorm_wordpool_576.txt	LTP210	ltpFR2	14	2	GHETTO	633	n/a	n/a	0	0	0
634.93	n/a	WORD	317465	wordpools/wasnorm_wordpool_576.txt	LTP210	ltpFR2	14	2	EXPERT	543	n/a	n/a	0	0	0
637.426	n/a	WORD	318713	wordpools/wasnorm_wordpool_576.txt	LTP210	ltpFR2	14	2	TUTU	1524	n/a	n/a	0	0	0
639.99	n/a	WORD	319995	wordpools/wasnorm_wordpool_576.txt	LTP210	ltpFR2	14	2	SISTER	1312	n/a	n/a	0	0	0
642.718	n/a	WORD	321359	wordpools/wasnorm_wordpool_576.txt	LTP210	ltpFR2	14	2	SANDWICH	1232	n/a	n/a	0	0	0
645.248	n/a	WORD	322624	wordpools/wasnorm_wordpool_576.txt	LTP210	ltpFR2	14	2	HERO	706	n/a	n/a	0	0	0
647.76	n/a	WORD	323880	wordpools/wasnorm_wordpool_576.txt	LTP210	ltpFR2	14	2	CANYON	235	n/a	n/a	0	0	0
650.224	n/a	WORD	325112	wordpools/wasnorm_wordpool_576.txt	LTP210	ltpFR2	14	2	BARLEY	88	n/a	n/a	0	0	0
652.986	n/a	WORD	326493	wordpools/wasnorm_wordpool_576.txt	LTP210	ltpFR2	14	2	MONSTER	912	n/a	n/a	0	0	0
655.75	n/a	WORD	327875	wordpools/wasnorm_wordpool_576.txt	LTP210	ltpFR2	14	2	SHELTER	1282	n/a	n/a	0	0	0
658.494	n/a	WORD	329247	wordpools/wasnorm_wordpool_576.txt	LTP210	ltpFR2	14	2	PADDLE	1000	n/a	n/a	0	0	0
661.14	n/a	WORD	330570	wordpools/wasnorm_wordpool_576.txt	LTP210	ltpFR2	14	2	BINDER	127	n/a	n/a	0	0	0
663.586	n/a	WORD	331793	wordpools/wasnorm_wordpool_576.txt	LTP210	ltpFR2	14	2	SCALLOP	1242	n/a	n/a	0	0	0
666.15	n/a	WORD	333075	wordpools/wasnorm_wordpool_576.txt	LTP210	ltpFR2	14	2	TROUT	1511	n/a	n/a	0	0	0
668.662	n/a	WORD	334331	wordpools/wasnorm_wordpool_576.txt	LTP210	ltpFR2	14	2	RAFT	1159	n/a	n/a	0	0	0
670.278	n/a	START	335139	n/a	LTP210	ltpFR2	14	n/a	n/a	n/a	3	n/a	n/a	n/a	n/a
671.294	n/a	DISTRACTOR	335647	n/a	LTP210	ltpFR2	14	2	n/a	n/a	n/a	n/a	0	0	0
671.31	n/a	PROB	335655	n/a	LTP210	ltpFR2	14	n/a	n/a	n/a	3	18	9	7	2
673.406	n/a	PROB	336703	n/a	LTP210	ltpFR2	14	n/a	n/a	n/a	3	20	8	5	7
675.786	n/a	PROB	337893	n/a	LTP210	ltpFR2	14	n/a	n/a	n/a	3	10	2	7	1
677.018	n/a	PROB	338509	n/a	LTP210	ltpFR2	14	n/a	n/a	n/a	3	7	3	2	2
679.53	n/a	PROB	339765	n/a	LTP210	ltpFR2	14	n/a	n/a	n/a	3	9	1	2	6
680.762	n/a	PROB	340381	n/a	LTP210	ltpFR2	14	n/a	n/a	n/a	3	14	2	5	7
682.276	n/a	PROB	341138	n/a	LTP210	ltpFR2	14	n/a	n/a	n/a	3	14	4	7	3
683.474	n/a	PROB	341737	n/a	LTP210	ltpFR2	14	n/a	n/a	n/a	3	20	8	4	8
685.222	n/a	PROB	342611	n/a	LTP210	ltpFR2	14	n/a	n/a	n/a	3	1	5	5	2
686.486	n/a	PROB	343243	n/a	LTP210	ltpFR2	14	n/a	n/a	n/a	3	20	8	8	4
688.734	n/a	PROB	344367	n/a	LTP210	ltpFR2	14	n/a	n/a	n/a	3	14	5	2	7
690.23	n/a	PROB	345115	n/a	LTP210	ltpFR2	14	n/a	n/a	n/a	3	9	2	3	4
691.962	n/a	PROB	345981	n/a	LTP210	ltpFR2	14	n/a	n/a	n/a	3	13	4	2	7
693.442	n/a	STOP	346721	n/a	LTP210	ltpFR2	14	n/a	n/a	n/a	3	n/a	n/a	n/a	n/a
696.156	n/a	REC_START	348078	n/a	LTP210	ltpFR2	14	2	n/a	n/a	n/a	n/a	0	0	0
696.754	n/a	REC_WORD	348377	wordpools/wasnorm_wordpool_576.txt	LTP210	ltpFR2	14	2	WRENCH	1625	n/a	n/a	0	0	0
698.162	n/a	REC_WORD	349081	wordpools/wasnorm_wordpool_576.txt	LTP210	ltpFR2	14	2	PLIERS	1089	n/a	n/a	0	0	0
699.822	n/a	REC_WORD	349911	wordpools/wasnorm_wordpool_576.txt	LTP210	ltpFR2	14	2	GHETTO	633	n/a	n/a	0	0	0
701.328	n/a	REC_WORD	350664	wordpools/wasnorm_wordpool_576.txt	LTP210	ltpFR2	14	2	PAPER	1011	n/a	n/a	0	0	0
702.9	n/a	REC_WORD	351450	wordpools/wasnorm_wordpool_576.txt	LTP210	ltpFR2	14	2	AIRPLANE	12	n/a	n/a	0	0	0
704.67	n/a	REC_WORD	352335	wordpools/wasnorm_wordpool_576.txt	LTP210	ltpFR2	14	2	HERO	706	n/a	n/a	0	0	0
706.182	n/a	REC_WORD	353091	wordpools/wasnorm_wordpool_576.txt	LTP210	ltpFR2	14	2	SANDWICH	1232	n/a	n/a	0	0	0
707.916	n/a	REC_WORD	353958	wordpools/wasnorm_wordpool_576.txt	LTP210	ltpFR2	14	2	SISTER	1312	n/a	n/a	0	0	0
786.854	n/a	WORD	393427	wordpools/wasnorm_wordpool_576.txt	LTP210	ltpFR2	14	3	VIKING	1565	n/a	n/a	0	0	0
789.352	n/a	WORD	394676	wordpools/wasnorm_wordpool_576.txt	LTP210	ltpFR2	14	3	PACKAGE	997	n/a	n/a	0	0	0
791.948	n/a	WORD	395974	wordpools/wasnorm_wordpool_576.txt	LTP210	ltpFR2	14	3	MARSH	874	n/a	n/a	0	0	0
794.642	n/a	WORD	397321	wordpools/wasnorm_wordpool_576.txt	LTP210	ltpFR2	14	3	FLASHLIGHT	575	n/a	n/a	0	0	0
797.44	n/a	WORD	398720	wordpools/wasnorm_wordpool_576.txt	LTP210	ltpFR2	14	3	BOX	159	n/a	n/a	0	0	0
800.168	n/a	WORD	400084	wordpools/wasnorm_wordpool_576.txt	LTP210	ltpFR2	14	3	GAVEL	627	n/a	n/a	0	0	0
802.732	n/a	WORD	401366	wordpools/wasnorm_wordpool_576.txt	LTP210	ltpFR2	14	3	WITNESS	1618	n/a	n/a	0	0	0
805.344	n/a	WORD	402672	wordpools/wasnorm_wordpool_576.txt	LTP210	ltpFR2	14	3	LEADER	807	n/a	n/a	0	0	0
807.94	n/a	WORD	403970	wordpools/wasnorm_wordpool_576.txt	LTP210	ltpFR2	14	3	SLIDE	1326	n/a	n/a	0	0	0
810.72	n/a	WORD	405360	wordpools/wasnorm_wordpool_576.txt	LTP210	ltpFR2	14	3	PUDDLE	1140	n/a	n/a	0	0	0
813.166	n/a	WORD	406583	wordpools/wasnorm_wordpool_576.txt	LTP210	ltpFR2	14	3	WAITRESS	1581	n/a	n/a	0	0	0
815.896	n/a	WORD	407948	wordpools/wasnorm_wordpool_576.txt	LTP210	ltpFR2	14	3	STOMACH	1384	n/a	n/a	0	0	0
818.324	n/a	WORD	409162	wordpools/wasnorm_wordpool_576.txt	LTP210	ltpFR2	14	3	SHOVEL	1295	n/a	n/a	0	0	0
820.854	n/a	WORD	410427	wordpools/wasnorm_wordpool_576.txt	LTP210	ltpFR2	14	3	CRUTCH	417	n/a	n/a	0	0	0
823.55	n/a	WORD	411775	wordpools/wasnorm_wordpool_576.txt	LTP210	ltpFR2	14	3	PUDDING	1139	n/a	n/a	0	0	0
826.064	n/a	WORD	413032	wordpools/wasnorm_wordpool_576.txt	LTP210	ltpFR2	14	3	BACKBONE	66	n/a	n/a	0	0	0
828.726	n/a	WORD	414363	wordpools/wasnorm_wordpool_576.txt	LTP210	ltpFR2	14	3	KETCHUP	771	n/a	n/a	0	0	0
831.372	n/a	WORD	415686	wordpools/wasnorm_wordpool_576.txt	LTP210	ltpFR2	14	3	EGYPT	519	n/a	n/a	0	0	0
833.836	n/a	WORD	416918	wordpools/wasnorm_wordpool_576.txt	LTP210	ltpFR2	14	3	SEAL	1262	n/a	n/a	0	0	0
836.382	n/a	WORD	418191	wordpools/wasnorm_wordpool_576.txt	LTP210	ltpFR2	14	3	SPHINX	1349	n/a	n/a	0	0	0
839.028	n/a	WORD	419514	wordpools/wasnorm_wordpool_576.txt	LTP210	ltpFR2	14	3	TEMPLE	1448	n/a	n/a	0	0	0
841.474	n/a	WORD	420737	wordpools/wasnorm_wordpool_576.txt	LTP210	ltpFR2	14	3	UNCLE	1536	n/a	n/a	0	0	0
844.136	n/a	WORD	422068	wordpools/wasnorm_wordpool_576.txt	LTP210	ltpFR2	14	3	SERVANT	1271	n/a	n/a	0	0	0
846.598	n/a	WORD	423299	wordpools/wasnorm_wordpool_576.txt	LTP210	ltpFR2	14	3	YACHT	1629	n/a	n/a	0	0	0
848.214	n/a	START	424107	n/a	LTP210	ltpFR2	14	n/a	n/a	n/a	4	n/a	n/a	n/a	n/a
849.04	n/a	DISTRACTOR	424520	n/a	LTP210	ltpFR2	14	3	n/a	n/a	n/a	n/a	0	0	0
849.046	n/a	PROB	424523	n/a	LTP210	ltpFR2	14	n/a	n/a	n/a	4	21	7	5	9
850.726	n/a	PROB	425363	n/a	LTP210	ltpFR2	14	n/a	n/a	n/a	4	14	1	4	9
851.974	n/a	PROB	425987	n/a	LTP210	ltpFR2	14	n/a	n/a	n/a	4	15	1	5	9
853.156	n/a	PROB	426578	n/a	LTP210	ltpFR2	14	n/a	n/a	n/a	4	15	5	6	4
854.372	n/a	PROB	427186	n/a	LTP210	ltpFR2	14	n/a	n/a	n/a	4	16	5	9	2
856.068	n/a	PROB	428034	n/a	LTP210	ltpFR2	14	n/a	n/a	n/a	4	14	2	7	5
857.548	n/a	PROB	428774	n/a	LTP210	ltpFR2	14	n/a	n/a	n/a	4	14	8	5	1
859.68	n/a	PROB	429840	n/a	LTP210	ltpFR2	14	n/a	n/a	n/a	4	10	4	4	2
861.094	n/a	PROB	430547	n/a	LTP210	ltpFR2	14	n/a	n/a	n/a	4	13	6	2	5
863.226	n/a	PROB	431613	n/a	LTP210	ltpFR2	14	n/a	n/a	n/a	4	16	8	5	3
865.206	n/a	PROB	432603	n/a	LTP210	ltpFR2	14	n/a	n/a	n/a	4	23	7	8	8
867.252	n/a	PROB	433626	n/a	LTP210	ltpFR2	14	n/a	n/a	n/a	4	7	3	1	3
869.284	n/a	PROB	434642	n/a	LTP210	ltpFR2	14	n/a	n/a	n/a	4	17	8	5	4
870.964	n/a	STOP	435482	n/a	LTP210	ltpFR2	14	n/a	n/a	n/a	4	n/a	n/a	n/a	n/a
874.026	n/a	REC_START	437013	n/a	LTP210	ltpFR2	14	3	n/a	n/a	n/a	n/a	0	0	0
874.686	n/a	REC_WORD	437343	wordpools/wasnorm_wordpool_576.txt	LTP210	ltpFR2	14	3	VIKING	1565	n/a	n/a	0	0	0
876.214	n/a	REC_WORD	438107	wordpools/wasnorm_wordpool_576.txt	LTP210	ltpFR2	14	3	PACKAGE	997	n/a	n/a	0	0	0
877.8	n/a	REC_WORD	438900	wordpools/wasnorm_wordpool_576.txt	LTP210	ltpFR2	14	3	BOX	159	n/a	n/a	0	0	0
879.326	n/a	REC_WORD	439663	wordpools/wasnorm_wordpool_576.txt	LTP210	ltpFR2	14	3	EGYPT	519	n/a	n/a	0	0	0
880.5	n/a	REC_WORD	440250	wordpools/wasnorm_wordpool_576.txt	LTP210	ltpFR2	14	3	SPHINX	1349	n/a	n/a	0	0	0
882.476	n/a	REC_WORD	441238	wordpools/wasnorm_wordpool_576.txt	LTP210	ltpFR2	14	3	UNCLE	1536	n/a	n/a	0	0	0
906.734	n/a	REC_WORD	453367	wordpools/wasnorm_wordpool_576.txt	LTP210	ltpFR2	14	3	WAITRESS	1581	n/a	n/a	0	0	0
908.648	n/a	REC_WORD	454324	wordpools/wasnorm_wordpool_576.txt	LTP210	ltpFR2	14	3	BACKBONE	66	n/a	n/a	0	0	0
910.352	n/a	REC_WORD	455176	wordpools/wasnorm_wordpool_576.txt	LTP210	ltpFR2	14	3	SHOVEL	1295	n/a	n/a	0	0	0
912.228	n/a	REC_WORD	456114	wordpools/wasnorm_wordpool_576.txt	LTP210	ltpFR2	14	3	PUDDING	1139	n/a	n/a	0	0	0
914.496	n/a	REC_WORD	457248	wordpools/wasnorm_wordpool_576.txt	LTP210	ltpFR2	14	3	KETCHUP	771	n/a	n/a	0	0	0
1045.456	n/a	DISTRACTOR	522728	n/a	LTP210	ltpFR2	14	4	n/a	n/a	n/a	n/a	0	0	0
1045.456	n/a	START	522728	n/a	LTP210	ltpFR2	14	n/a	n/a	n/a	5	n/a	n/a	n/a	n/a
1045.488	n/a	PROB	522744	n/a	LTP210	ltpFR2	14	n/a	n/a	n/a	5	20	8	4	8
1046.936	n/a	PROB	523468	n/a	LTP210	ltpFR2	14	n/a	n/a	n/a	5	15	4	3	8
1048.502	n/a	PROB	524251	n/a	LTP210	ltpFR2	14	n/a	n/a	n/a	5	9	2	2	5
1049.8	n/a	PROB	524900	n/a	LTP210	ltpFR2	14	n/a	n/a	n/a	5	15	1	7	7
1051.114	n/a	PROB	525557	n/a	LTP210	ltpFR2	14	n/a	n/a	n/a	5	11	5	5	1
1052.162	n/a	PROB	526081	n/a	LTP210	ltpFR2	14	n/a	n/a	n/a	5	17	5	9	3
1054.01	n/a	PROB	527005	n/a	LTP210	ltpFR2	14	n/a	n/a	n/a	5	17	3	6	8
1055.94	n/a	PROB	527970	n/a	LTP210	ltpFR2	14	n/a	n/a	n/a	5	21	8	7	6
1058.47	n/a	PROB	529235	n/a	LTP210	ltpFR2	14	n/a	n/a	n/a	5	24	8	7	9
1060.516	n/a	PROB	530258	n/a	LTP210	ltpFR2	14	n/a	n/a	n/a	5	21	8	6	7
1062.198	n/a	PROB	531099	n/a	LTP210	ltpFR2	14	n/a	n/a	n/a	5	16	3	6	7
1063.728	n/a	PROB	531864	n/a	LTP210	ltpFR2	14	n/a	n/a	n/a	5	20	8	8	4
1065.292	n/a	PROB	532646	n/a	LTP210	ltpFR2	14	n/a	n/a	n/a	5	15	5	9	1
1066.392	n/a	PROB	533196	n/a	LTP210	ltpFR2	14	n/a	n/a	n/a	5	9	4	2	3
1067.888	n/a	PROB	533944	n/a	LTP210	ltpFR2	14	n/a	n/a	n/a	5	7	2	1	4
1069.158	n/a	STOP	534579	n/a	LTP210	ltpFR2	14	n/a	n/a	n/a	5	n/a	n/a	n/a	n/a
1070.402	n/a	WORD	535201	wordpools/wasnorm_wordpool_576.txt	LTP210	ltpFR2	14	4	BANKER	84	n/a	n/a	0	0	0
1073.098	n/a	WORD	536549	wordpools/wasnorm_wordpool_576.txt	LTP210	ltpFR2	14	4	COIN	343	n/a	n/a	0	0	0
1075.542	n/a	WORD	537771	wordpools/wasnorm_wordpool_576.txt	LTP210	ltpFR2	14	4	COCKTAIL	338	n/a	n/a	0	0	0
1078.224	n/a	WORD	539112	wordpools/wasnorm_wordpool_576.txt	LTP210	ltpFR2	14	4	COD	340	n/a	n/a	0	0	0
1080.836	n/a	WORD	540418	wordpools/wasnorm_wordpool_576.txt	LTP210	ltpFR2	14	4	COLLEGE	346	n/a	n/a	0	0	0
1083.564	n/a	WORD	541782	wordpools/wasnorm_wordpool_576.txt	LTP210	ltpFR2	14	4	PEANUT	1032	n/a	n/a	0	0	0
1086.294	n/a	WORD	543147	wordpools/wasnorm_wordpool_576.txt	LTP210	ltpFR2	14	4	BADGE	68	n/a	n/a	0	0	0
1089.042	n/a	WORD	544521	wordpools/wasnorm_wordpool_576.txt	LTP210	ltpFR2	14	4	AGENT	10	n/a	n/a	0	0	0
1091.522	n/a	WORD	545761	wordpools/wasnorm_wordpool_576.txt	LTP210	ltpFR2	14	4	NOTEBOOK	959	n/a	n/a	0	0	0
1093.95	n/a	WORD	546975	wordpools/wasnorm_wordpool_576.txt	LTP210	ltpFR2	14	4	FOOT	590	n/a	n/a	0	0	0
1096.464	n/a	WORD	548232	wordpools/wasnorm_wordpool_576.txt	LTP210	ltpFR2	14	4	HEADBAND	696	n/a	n/a	0	0	0
1099.194	n/a	WORD	549597	wordpools/wasnorm_wordpool_576.txt	LTP210	ltpFR2	14	4	THREAD	1460	n/a	n/a	0	0	0
1101.69	n/a	WORD	550845	wordpools/wasnorm_wordpool_576.txt	LTP210	ltpFR2	14	4	GRIZZLY	662	n/a	n/a	0	0	0
1104.336	n/a	WORD	552168	wordpools/wasnorm_wordpool_576.txt	LTP210	ltpFR2	14	4	JUNGLE	764	n/a	n/a	0	0	0
1106.782	n/a	WORD	553391	wordpools/wasnorm_wordpool_576.txt	LTP210	ltpFR2	14	4	LOVER	846	n/a	n/a	0	0	0
1109.594	n/a	WORD	554797	wordpools/wasnorm_wordpool_576.txt	LTP210	ltpFR2	14	4	HEART	697	n/a	n/a	0	0	0
1112.158	n/a	WORD	556079	wordpools/wasnorm_wordpool_576.txt	LTP210	ltpFR2	14	4	HOOK	715	n/a	n/a	0	0	0
1114.97	n/a	WORD	557485	wordpools/wasnorm_wordpool_576.txt	LTP210	ltpFR2	14	4	RECEIPT	1173	n/a	n/a	0	0	0
1117.716	n/a	WORD	558858	wordpools/wasnorm_wordpool_576.txt	LTP210	ltpFR2	14	4	MESSAGE	888	n/a	n/a	0	0	0
1120.512	n/a	WORD	560256	wordpools/wasnorm_wordpool_576.txt	LTP210	ltpFR2	14	4	CRATER	400	n/a	n/a	0	0	0
1122.94	n/a	WORD	561470	wordpools/wasnorm_wordpool_576.txt	LTP210	ltpFR2	14	4	BUBBLE	183	n/a	n/a	0	0	0
1125.636	n/a	WORD	562818	wordpools/wasnorm_wordpool_576.txt	LTP210	ltpFR2	14	4	ARM	38	n/a	n/a	0	0	0
1128.332	n/a	WORD	564166	wordpools/wasnorm_wordpool_576.txt	LTP210	ltpFR2	14	4	RECORD	1176	n/a	n/a	0	0	0
1131.112	n/a	WORD	565556	wordpools/wasnorm_wordpool_576.txt	LTP210	ltpFR2	14	4	FREEZER	604	n/a	n/a	0	0	0
1132.726	n/a	START	566363	n/a	LTP210	ltpFR2	14	n/a	n/a	n/a	6	n/a	n/a	n/a	n/a
1133.554	n/a	DISTRACTOR	566777	n/a	LTP210	ltpFR2	14	4	n/a	n/a	n/a	n/a	0	0	0
1133.558	n/a	PROB	566779	n/a	LTP210	ltpFR2	14	n/a	n/a	n/a	6	14	4	7	3
1135.14	n/a	PROB	567570	n/a	LTP210	ltpFR2	14	n/a	n/a	n/a	6	12	2	6	4
1136.854	n/a	PROB	568427	n/a	LTP210	ltpFR2	14	n/a	n/a	n/a	6	13	4	5	4
1138.434	n/a	PROB	569217	n/a	LTP210	ltpFR2	14	n/a	n/a	n/a	6	14	9	2	3
1139.8	n/a	PROB	569900	n/a	LTP210	ltpFR2	14	n/a	n/a	n/a	6	16	7	8	1
1141.246	n/a	PROB	570623	n/a	LTP210	ltpFR2	14	n/a	n/a	n/a	6	15	2	4	9
1142.928	n/a	PROB	571464	n/a	LTP210	ltpFR2	14	n/a	n/a	n/a	6	10	2	3	5
1144.326	n/a	PROB	572163	n/a	LTP210	ltpFR2	14	n/a	n/a	n/a	6	19	8	9	2
1146.272	n/a	PROB	573136	n/a	LTP210	ltpFR2	14	n/a	n/a	n/a	6	24	6	9	9
1148.952	n/a	PROB	574476	n/a	LTP210	ltpFR2	14	n/a	n/a	n/a	6	14	4	3	7
1150.068	n/a	PROB	575034	n/a	LTP210	ltpFR2	14	n/a	n/a	n/a	6	11	2	5	4
1151.416	n/a	PROB	575708	n/a	LTP210	ltpFR2	14	n/a	n/a	n/a	6	21	6	8	7
1154.994	n/a	PROB	577497	n/a	LTP210	ltpFR2	14	n/a	n/a	n/a	6	16	9	2	5
1156.566	n/a	STOP	578283	n/a	LTP210	ltpFR2	14	n/a	n/a	n/a	6	n/a	n/a	n/a	n/a
1158.588	n/a	REC_START	579294	n/a	LTP210	ltpFR2	14	4	n/a	n/a	n/a	n/a	0	0	0
1159.672	n/a	REC_WORD	579836	wordpools/wasnorm_wordpool_576.txt	LTP210	ltpFR2	14	4	NOTEBOOK	959	n/a	n/a	0	0	0
1162.542	n/a	REC_WORD	581271	wordpools/wasnorm_wordpool_576.txt	LTP210	ltpFR2	14	4	MESSAGE	888	n/a	n/a	0	0	0
1164.17	n/a	REC_WORD	582085	wordpools/wasnorm_wordpool_576.txt	LTP210	ltpFR2	14	4	RECEIPT	1173	n/a	n/a	0	0	0
1166.832	n/a	REC_WORD	583416	wordpools/wasnorm_wordpool_576.txt	LTP210	ltpFR2	14	4	LOVER	846	n/a	n/a	0	0	0
1249.27	n/a	DISTRACTOR	624635	n/a	LTP210	ltpFR2	14	5	n/a	n/a	n/a	n/a	0	0	0
1249.272	n/a	START	624636	n/a	LTP210	ltpFR2	14	n/a	n/a	n/a	7	n/a	n/a	n/a	n/a
1249.304	n/a	PROB	624652	n/a	LTP210	ltpFR2	14	n/a	n/a	n/a	7	12	7	1	4
1254.064	n/a	PROB	627032	n/a	LTP210	ltpFR2	14	n/a	n/a	n/a	7	15	1	6	8
1255.678	n/a	PROB	627839	n/a	LTP210	ltpFR2	14	n/a	n/a	n/a	7	6	1	4	1
1256.86	n/a	PROB	628430	n/a	LTP210	ltpFR2	14	n/a	n/a	n/a	7	18	3	7	8
1258.374	n/a	PROB	629187	n/a	LTP210	ltpFR2	14	n/a	n/a	n/a	7	14	4	4	6
1259.622	n/a	PROB	629811	n/a	LTP210	ltpFR2	14	n/a	n/a	n/a	7	15	9	2	4
1261.154	n/a	PROB	630577	n/a	LTP210	ltpFR2	14	n/a	n/a	n/a	7	10	2	7	1
1262.368	n/a	PROB	631184	n/a	LTP210	ltpFR2	14	n/a	n/a	n/a	7	18	5	5	8
1263.484	n/a	PROB	631742	n/a	LTP210	ltpFR2	14	n/a	n/a	n/a	7	10	1	5	4
1264.698	n/a	PROB	632349	n/a	LTP210	ltpFR2	14	n/a	n/a	n/a	7	15	1	9	5
1265.73	n/a	PROB	632865	n/a	LTP210	ltpFR2	14	n/a	n/a	n/a	7	18	8	8	2
1266.878	n/a	PROB	633439	n/a	LTP210	ltpFR2	14	n/a	n/a	n/a	7	16	1	9	6
1267.994	n/a	PROB	633997	n/a	LTP210	ltpFR2	14	n/a	n/a	n/a	7	12	3	4	5
1269.606	n/a	PROB	634803	n/a	LTP210	ltpFR2	14	n/a	n/a	n/a	7	12	5	2	5
1270.806	n/a	PROB	635403	n/a	LTP210	ltpFR2	14	n/a	n/a	n/a	7	19	7	6	6
1272.498	n/a	STOP	636249	n/a	LTP210	ltpFR2	14	n/a	n/a	n/a	7	n/a	n/a	n/a	n/a
1274.316	n/a	WORD	637158	wordpools/wasnorm_wordpool_576.txt	LTP210	ltpFR2	14	5	DUSTPAN	509	n/a	n/a	0	0	0
1276.83	n/a	WORD	638415	wordpools/wasnorm_wordpool_576.txt	LTP210	ltpFR2	14	5	HARP	689	n/a	n/a	0	0	0
1279.426	n/a	WORD	639713	wordpools/wasnorm_wordpool_576.txt	LTP210	ltpFR2	14	5	DENIM	446	n/a	n/a	0	0	0
1282.122	n/a	WORD	641061	wordpools/wasnorm_wordpool_576.txt	LTP210	ltpFR2	14	5	PATROL	1027	n/a	n/a	0	0	0
1284.584	n/a	WORD	642292	wordpools/wasnorm_wordpool_576.txt	LTP210	ltpFR2	14	5	SHERIFF	1284	n/a	n/a	0	0	0
1287.064	n/a	WORD	643532	wordpools/wasnorm_wordpool_576.txt	LTP210	ltpFR2	14	5	LADY	794	n/a	n/a	0	0	0
1289.81	n/a	WORD	644905	wordpools/wasnorm_wordpool_576.txt	LTP210	ltpFR2	14	5	PLAZA	1088	n/a	n/a	0	0	0
1292.54	n/a	WORD	646270	wordpools/wasnorm_wordpool_576.txt	LTP210	ltpFR2	14	5	POSSUM	1112	n/a	n/a	0	0	0
1295.052	n/a	WORD	647526	wordpools/wasnorm_wordpool_576.txt	LTP210	ltpFR2	14	5	MISTER	901	n/a	n/a	0	0	0
1297.564	n/a	WORD	648782	wordpools/wasnorm_wordpool_576.txt	LTP210	ltpFR2	14	5	LAPEL	800	n/a	n/a	0	0	0
1300.228	n/a	WORD	650114	wordpools/wasnorm_wordpool_576.txt	LTP210	ltpFR2	14	5	FRAME	600	n/a	n/a	0	0	0
1302.674	n/a	WORD	651337	wordpools/wasnorm_wordpool_576.txt	LTP210	ltpFR2	14	5	DAISY	435	n/a	n/a	0	0	0
1305.37	n/a	WORD	652685	wordpools/wasnorm_wordpool_576.txt	LTP210	ltpFR2	14	5	CUSTARD	429	n/a	n/a	0	0	0
1308.184	n/a	WORD	654092	wordpools/wasnorm_wordpool_576.txt	LTP210	ltpFR2	14	5	PASTRY	1022	n/a	n/a	0	0	0
1310.796	n/a	WORD	655398	wordpools/wasnorm_wordpool_576.txt	LTP210	ltpFR2	14	5	MAPLE	866	n/a	n/a	0	0	0
1313.542	n/a	WORD	656771	wordpools/wasnorm_wordpool_576.txt	LTP210	ltpFR2	14	5	FOREST	593	n/a	n/a	0	0	0
1316.072	n/a	WORD	658036	wordpools/wasnorm_wordpool_576.txt	LTP210	ltpFR2	14	5	SERVER	1272	n/a	n/a	0	0	0
1318.736	n/a	WORD	659368	wordpools/wasnorm_wordpool_576.txt	LTP210	ltpFR2	14	5	LIZARD	834	n/a	n/a	0	0	0
1321.214	n/a	WORD	660607	wordpools/wasnorm_wordpool_576.txt	LTP210	ltpFR2	14	5	DINER	467	n/a	n/a	0	0	0
1323.994	n/a	WORD	661997	wordpools/wasnorm_wordpool_576.txt	LTP210	ltpFR2	14	5	PICNIC	1060	n/a	n/a	0	0	0
1326.54	n/a	WORD	663270	wordpools/wasnorm_wordpool_576.txt	LTP210	ltpFR2	14	5	PRIMATE	1123	n/a	n/a	0	0	0
1329.22	n/a	WORD	664610	wordpools/wasnorm_wordpool_576.txt	LTP210	ltpFR2	14	5	TABLE	1426	n/a	n/a	0	0	0
1331.682	n/a	WORD	665841	wordpools/wasnorm_wordpool_576.txt	LTP210	ltpFR2	14	5	FLEET	578	n/a	n/a	0	0	0
1334.312	n/a	WORD	667156	wordpools/wasnorm_wordpool_576.txt	LTP210	ltpFR2	14	5	CHAPEL	280	n/a	n/a	0	0	0
1335.926	n/a	START	667963	n/a	LTP210	ltpFR2	14	n/a	n/a	n/a	8	n/a	n/a	n/a	n/a
1336.734	n/a	DISTRACTOR	668367	n/a	LTP210	ltpFR2	14	5	n/a	n/a	n/a	n/a	0	0	0
1336.742	n/a	PROB	668371	n/a	LTP210	ltpFR2	14	n/a	n/a	n/a	8	14	4	8	2
1338.706	n/a	PROB	669353	n/a	LTP210	ltpFR2	14	n/a	n/a	n/a	8	9	4	4	1
1340.07	n/a	PROB	670035	n/a	LTP210	ltpFR2	14	n/a	n/a	n/a	8	14	9	3	2
1341.434	n/a	PROB	670717	n/a	LTP210	ltpFR2	14	n/a	n/a	n/a	8	12	2	6	4
1342.598	n/a	PROB	671299	n/a	LTP210	ltpFR2	14	n/a	n/a	n/a	8	15	9	3	3
1344.098	n/a	PROB	672049	n/a	LTP210	ltpFR2	14	n/a	n/a	n/a	8	4	1	1	2
1345.262	n/a	PROB	672631	n/a	LTP210	ltpFR2	14	n/a	n/a	n/a	8	20	7	8	5
1347.092	n/a	PROB	673546	n/a	LTP210	ltpFR2	14	n/a	n/a	n/a	8	12	8	2	2
1348.174	n/a	PROB	674087	n/a	LTP210	ltpFR2	14	n/a	n/a	n/a	8	13	4	4	5
1350.222	n/a	PROB	675111	n/a	LTP210	ltpFR2	14	n/a	n/a	n/a	8	12	2	3	7
1351.568	n/a	PROB	675784	n/a	LTP210	ltpFR2	14	n/a	n/a	n/a	8	16	1	9	6
1352.584	n/a	PROB	676292	n/a	LTP210	ltpFR2	14	n/a	n/a	n/a	8	21	8	6	7
1354.664	n/a	PROB	677332	n/a	LTP210	ltpFR2	14	n/a	n/a	n/a	8	22	4	9	9
1356.03	n/a	PROB	678015	n/a	LTP210	ltpFR2	14	n/a	n/a	n/a	8	22	8	6	8
1357.976	n/a	PROB	678988	n/a	LTP210	ltpFR2	14	n/a	n/a	n/a	8	10	1	7	2
1359.114	n/a	STOP	679557	n/a	LTP210	ltpFR2	14	n/a	n/a	n/a	8	n/a	n/a	n/a	n/a
1361.788	n/a	REC_START	680894	n/a	LTP210	ltpFR2	14	5	n/a	n/a	n/a	n/a	0	0	0
1362.47	n/a	REC_WORD	681235	wordpools/wasnorm_wordpool_576.txt	LTP210	ltpFR2	14	5	MAPLE	866	n/a	n/a	0	0	0
1363.816	n/a	REC_WORD	681908	wordpools/wasnorm_wordpool_576.txt	LTP210	ltpFR2	14	5	FOREST	593	n/a	n/a	0	0	0
1365.96	n/a	REC_WORD	682980	wordpools/wasnorm_wordpool_576.txt	LTP210	ltpFR2	14	5	PICNIC	1060	n/a	n/a	0	0	0
1367.306	n/a	REC_WORD	683653	wordpools/wasnorm_wordpool_576.txt	LTP210	ltpFR2	14	5	SERVER	1272	n/a	n/a	0	0	0
1369.172	n/a	REC_WORD	684586	wordpools/wasnorm_wordpool_576.txt	LTP210	ltpFR2	14	5	DINER	467	n/a	n/a	0	0	0
1389.162	n/a	REC_WORD	694581	wordpools/wasnorm_wordpool_576.txt	LTP210	ltpFR2	14	5	LADY	794	n/a	n/a	0	0	0
1543.22	n/a	DISTRACTOR	771610	n/a	LTP210	ltpFR2	14	6	n/a	n/a	n/a	n/a	0	0	0
1543.22	n/a	START	771610	n/a	LTP210	ltpFR2	14	n/a	n/a	n/a	9	n/a	n/a	n/a	n/a
1543.252	n/a	PROB	771626	n/a	LTP210	ltpFR2	14	n/a	n/a	n/a	9	15	5	9	1
1544.468	n/a	PROB	772234	n/a	LTP210	ltpFR2	14	n/a	n/a	n/a	9	12	4	7	1
1546.098	n/a	PROB	773049	n/a	LTP210	ltpFR2	14	n/a	n/a	n/a	9	5	1	1	3
1547.08	n/a	PROB	773540	n/a	LTP210	ltpFR2	14	n/a	n/a	n/a	9	22	8	7	7
1550.458	n/a	PROB	775229	n/a	LTP210	ltpFR2	14	n/a	n/a	n/a	9	14	3	4	7
1551.74	n/a	PROB	775870	n/a	LTP210	ltpFR2	14	n/a	n/a	n/a	9	16	5	2	9
1553.222	n/a	PROB	776611	n/a	LTP210	ltpFR2	14	n/a	n/a	n/a	9	8	5	2	1
1554.52	n/a	PROB	777260	n/a	LTP210	ltpFR2	14	n/a	n/a	n/a	9	23	5	9	9
1555.834	n/a	PROB	777917	n/a	LTP210	ltpFR2	14	n/a	n/a	n/a	9	8	1	1	6
1556.9	n/a	PROB	778450	n/a	LTP210	ltpFR2	14	n/a	n/a	n/a	9	16	2	7	7
1558.314	n/a	PROB	779157	n/a	LTP210	ltpFR2	14	n/a	n/a	n/a	9	13	4	2	7
1559.894	n/a	PROB	779947	n/a	LTP210	ltpFR2	14	n/a	n/a	n/a	9	9	2	2	5
1561.076	n/a	PROB	780538	n/a	LTP210	ltpFR2	14	n/a	n/a	n/a	9	12	1	6	5
1562.292	n/a	PROB	781146	n/a	LTP210	ltpFR2	14	n/a	n/a	n/a	9	13	7	2	4
1563.988	n/a	PROB	781994	n/a	LTP210	ltpFR2	14	n/a	n/a	n/a	9	20	7	9	4
1566.238	n/a	STOP	783119	n/a	LTP210	ltpFR2	14	n/a	n/a	n/a	9	n/a	n/a	n/a	n/a
1568.166	n/a	WORD	784083	wordpools/wasnorm_wordpool_576.txt	LTP210	ltpFR2	14	6	LACE	792	n/a	n/a	0	0	0
1570.878	n/a	WORD	785439	wordpools/wasnorm_wordpool_576.txt	LTP210	ltpFR2	14	6	SCARF	1246	n/a	n/a	0	0	0
1573.524	n/a	WORD	786762	wordpools/wasnorm_wordpool_576.txt	LTP210	ltpFR2	14	6	BUTCHER	203	n/a	n/a	0	0	0
1576.004	n/a	WORD	788002	wordpools/wasnorm_wordpool_576.txt	LTP210	ltpFR2	14	6	LIPSTICK	829	n/a	n/a	0	0	0
1578.8	n/a	WORD	789400	wordpools/wasnorm_wordpool_576.txt	LTP210	ltpFR2	14	6	SKILLET	1317	n/a	n/a	0	0	0
1581.512	n/a	WORD	790756	wordpools/wasnorm_wordpool_576.txt	LTP210	ltpFR2	14	6	SUNRISE	1407	n/a	n/a	0	0	0
1584.026	n/a	WORD	792013	wordpools/wasnorm_wordpool_576.txt	LTP210	ltpFR2	14	6	HOSTESS	723	n/a	n/a	0	0	0
1586.488	n/a	WORD	793244	wordpools/wasnorm_wordpool_576.txt	LTP210	ltpFR2	14	6	ACTRESS	6	n/a	n/a	0	0	0
1589.15	n/a	WORD	794575	wordpools/wasnorm_wordpool_576.txt	LTP210	ltpFR2	14	6	SNAKE	1333	n/a	n/a	0	0	0
1591.814	n/a	WORD	795907	wordpools/wasnorm_wordpool_576.txt	LTP210	ltpFR2	14	6	GLOVE	642	n/a	n/a	0	0	0
1594.576	n/a	WORD	797288	wordpools/wasnorm_wordpool_576.txt	LTP210	ltpFR2	14	6	FINGER	567	n/a	n/a	0	0	0
1597.238	n/a	WORD	798619	wordpools/wasnorm_wordpool_576.txt	LTP210	ltpFR2	14	6	ATOM	55	n/a	n/a	0	0	0
1600.052	n/a	WORD	800026	wordpools/wasnorm_wordpool_576.txt	LTP210	ltpFR2	14	6	SOFTBALL	1343	n/a	n/a	0	0	0
1602.532	n/a	WORD	801266	wordpools/wasnorm_wordpool_576.txt	LTP210	ltpFR2	14	6	WHISTLE	1606	n/a	n/a	0	0	0
1605.244	n/a	WORD	802622	wordpools/wasnorm_wordpool_576.txt	LTP210	ltpFR2	14	6	BODY	145	n/a	n/a	0	0	0
1608.006	n/a	WORD	804003	wordpools/wasnorm_wordpool_576.txt	LTP210	ltpFR2	14	6	WOMAN	1620	n/a	n/a	0	0	0
1610.77	n/a	WORD	805385	wordpools/wasnorm_wordpool_576.txt	LTP210	ltpFR2	14	6	CRITIC	410	n/a	n/a	0	0	0
1613.416	n/a	WORD	806708	wordpools/wasnorm_wordpool_576.txt	LTP210	ltpFR2	14	6	COCOON	339	n/a	n/a	0	0	0
1615.978	n/a	WORD	807989	wordpools/wasnorm_wordpool_576.txt	LTP210	ltpFR2	14	6	CATCHER	258	n/a	n/a	0	0	0
1618.608	n/a	WORD	809304	wordpools/wasnorm_wordpool_576.txt	LTP210	ltpFR2	14	6	SALT	1229	n/a	n/a	0	0	0
1621.338	n/a	WORD	810669	wordpools/wasnorm_wordpool_576.txt	LTP210	ltpFR2	14	6	RAZOR	1171	n/a	n/a	0	0	0
1623.8	n/a	WORD	811900	wordpools/wasnorm_wordpool_576.txt	LTP210	ltpFR2	14	6	JUGGLER	763	n/a	n/a	0	0	0
1626.264	n/a	WORD	813132	wordpools/wasnorm_wordpool_576.txt	LTP210	ltpFR2	14	6	BALLOON	75	n/a	n/a	0	0	0
1628.742	n/a	WORD	814371	wordpools/wasnorm_wordpool_576.txt	LTP210	ltpFR2	14	6	CITRUS	313	n/a	n/a	0	0	0
1630.358	n/a	START	815179	n/a	LTP210	ltpFR2	14	n/a	n/a	n/a	10	n/a	n/a	n/a	n/a
1631.26	n/a	DISTRACTOR	815630	n/a	LTP210	ltpFR2	14	6	n/a	n/a	n/a	n/a	0	0	0
1631.272	n/a	PROB	815636	n/a	LTP210	ltpFR2	14	n/a	n/a	n/a	10	12	1	9	2
1632.652	n/a	PROB	816326	n/a	LTP210	ltpFR2	14	n/a	n/a	n/a	10	9	1	4	4
1633.852	n/a	PROB	816926	n/a	LTP210	ltpFR2	14	n/a	n/a	n/a	10	5	2	2	1
1635.0	n/a	PROB	817500	n/a	LTP210	ltpFR2	14	n/a	n/a	n/a	10	13	4	6	3
1636.282	n/a	PROB	818141	n/a	LTP210	ltpFR2	14	n/a	n/a	n/a	10	10	2	7	1
1637.546	n/a	PROB	818773	n/a	LTP210	ltpFR2	14	n/a	n/a	n/a	10	13	7	5	1
1639.926	n/a	PROB	819963	n/a	LTP210	ltpFR2	14	n/a	n/a	n/a	10	18	5	6	7
1642.072	n/a	PROB	821036	n/a	LTP210	ltpFR2	14	n/a	n/a	n/a	10	18	7	6	5
1643.97	n/a	PROB	821985	n/a	LTP210	ltpFR2	14	n/a	n/a	n/a	10	15	5	2	8
1645.202	n/a	PROB	822601	n/a	LTP210	ltpFR2	14	n/a	n/a	n/a	10	13	7	2	4
1646.816	n/a	PROB	823408	n/a	LTP210	ltpFR2	14	n/a	n/a	n/a	10	17	9	1	7
1647.964	n/a	PROB	823982	n/a	LTP210	ltpFR2	14	n/a	n/a	n/a	10	15	5	3	7
1649.396	n/a	PROB	824698	n/a	LTP210	ltpFR2	14	n/a	n/a	n/a	10	18	3	8	7
1650.976	n/a	PROB	825488	n/a	LTP210	ltpFR2	14	n/a	n/a	n/a	10	17	2	8	7
1652.672	n/a	PROB	826336	n/a	LTP210	ltpFR2	14	n/a	n/a	n/a	10	18	3	7	8
1653.902	n/a	STOP	826951	n/a	LTP210	ltpFR2	14	n/a	n/a	n/a	10	n/a	n/a	n/a	n/a
1656.12	n/a	REC_START	828060	n/a	LTP210	ltpFR2	14	6	n/a	n/a	n/a	n/a	0	0	0
1656.912	n/a	REC_WORD	828456	wordpools/wasnorm_wordpool_576.txt	LTP210	ltpFR2	14	6	CITRUS	313	n/a	n/a	0	0	0
1658.59	n/a	REC_WORD	829295	wordpools/wasnorm_wordpool_576.txt	LTP210	ltpFR2	14	6	JUGGLER	763	n/a	n/a	0	0	0
1661.142	n/a	REC_WORD	830571	wordpools/wasnorm_wordpool_576.txt	LTP210	ltpFR2	14	6	LACE	792	n/a	n/a	0	0	0
1664.628	n/a	REC_WORD	832314	wordpools/wasnorm_wordpool_576.txt	LTP210	ltpFR2	14	6	WOMAN	1620	n/a	n/a	0	0	0
1668.092	n/a	REC_WORD	834046	wordpools/wasnorm_wordpool_576.txt	LTP210	ltpFR2	14	6	BODY	145	n/a	n/a	0	0	0
1746.784	n/a	DISTRACTOR	873392	n/a	LTP210	ltpFR2	14	7	n/a	n/a	n/a	n/a	0	0	0
1746.784	n/a	START	873392	n/a	LTP210	ltpFR2	14	n/a	n/a	n/a	11	n/a	n/a	n/a	n/a
1746.818	n/a	PROB	873409	n/a	LTP210	ltpFR2	14	n/a	n/a	n/a	11	11	1	7	3
1748.032	n/a	PROB	874016	n/a	LTP210	ltpFR2	14	n/a	n/a	n/a	11	16	3	7	6
1749.098	n/a	PROB	874549	n/a	LTP210	ltpFR2	14	n/a	n/a	n/a	11	17	2	8	7
1750.262	n/a	PROB	875131	n/a	LTP210	ltpFR2	14	n/a	n/a	n/a	11	15	4	8	3
1752.426	n/a	PROB	876213	n/a	LTP210	ltpFR2	14	n/a	n/a	n/a	11	18	5	4	9
1754.056	n/a	PROB	877028	n/a	LTP210	ltpFR2	14	n/a	n/a	n/a	11	13	7	2	4
1755.772	n/a	PROB	877886	n/a	LTP210	ltpFR2	14	n/a	n/a	n/a	11	9	1	7	1
1757.036	n/a	PROB	878518	n/a	LTP210	ltpFR2	14	n/a	n/a	n/a	11	15	7	2	6
1759.434	n/a	PROB	879717	n/a	LTP210	ltpFR2	14	n/a	n/a	n/a	11	13	7	1	5
1763.16	n/a	PROB	881580	n/a	LTP210	ltpFR2	14	n/a	n/a	n/a	11	16	8	7	1
1764.658	n/a	PROB	882329	n/a	LTP210	ltpFR2	14	n/a	n/a	n/a	11	13	4	5	4
1766.39	n/a	PROB	883195	n/a	LTP210	ltpFR2	14	n/a	n/a	n/a	11	21	6	8	7
1769.568	n/a	STOP	884784	n/a	LTP210	ltpFR2	14	n/a	n/a	n/a	11	n/a	n/a	n/a	n/a
1771.748	n/a	WORD	885874	wordpools/wasnorm_wordpool_576.txt	LTP210	ltpFR2	14	7	PISTOL	1075	n/a	n/a	0	0	0
1774.294	n/a	WORD	887147	wordpools/wasnorm_wordpool_576.txt	LTP210	ltpFR2	14	7	RIFLE	1192	n/a	n/a	0	0	0
1777.074	n/a	WORD	888537	wordpools/wasnorm_wordpool_576.txt	LTP210	ltpFR2	14	7	BABY	64	n/a	n/a	0	0	0
1779.602	n/a	WORD	889801	wordpools/wasnorm_wordpool_576.txt	LTP210	ltpFR2	14	7	CAPTIVE	240	n/a	n/a	0	0	0
1782.1	n/a	WORD	891050	wordpools/wasnorm_wordpool_576.txt	LTP210	ltpFR2	14	7	APRON	35	n/a	n/a	0	0	0
1784.678	n/a	WORD	892339	wordpools/wasnorm_wordpool_576.txt	LTP210	ltpFR2	14	7	AUTHOR	61	n/a	n/a	0	0	0
1787.408	n/a	WORD	893704	wordpools/wasnorm_wordpool_576.txt	LTP210	ltpFR2	14	7	REPORT	1184	n/a	n/a	0	0	0
1789.92	n/a	WORD	894960	wordpools/wasnorm_wordpool_576.txt	LTP210	ltpFR2	14	7	KIDNEY	776	n/a	n/a	0	0	0
1792.368	n/a	WORD	896184	wordpools/wasnorm_wordpool_576.txt	LTP210	ltpFR2	14	7	CASKET	255	n/a	n/a	0	0	0
1794.88	n/a	WORD	897440	wordpools/wasnorm_wordpool_576.txt	LTP210	ltpFR2	14	7	OUTDOORS	987	n/a	n/a	0	0	0
1797.608	n/a	WORD	898804	wordpools/wasnorm_wordpool_576.txt	LTP210	ltpFR2	14	7	SUNSET	1408	n/a	n/a	0	0	0
1800.288	n/a	WORD	900144	wordpools/wasnorm_wordpool_576.txt	LTP210	ltpFR2	14	7	GREASE	660	n/a	n/a	0	0	0
1803.018	n/a	WORD	901509	wordpools/wasnorm_wordpool_576.txt	LTP210	ltpFR2	14	7	PILOT	1070	n/a	n/a	0	0	0
1805.646	n/a	WORD	902823	wordpools/wasnorm_wordpool_576.txt	LTP210	ltpFR2	14	7	GROUND	666	n/a	n/a	0	0	0
1808.21	n/a	WORD	904105	wordpools/wasnorm_wordpool_576.txt	LTP210	ltpFR2	14	7	BUCKET	184	n/a	n/a	0	0	0
1810.64	n/a	WORD	905320	wordpools/wasnorm_wordpool_576.txt	LTP210	ltpFR2	14	7	ROCKET	1202	n/a	n/a	0	0	0
1813.236	n/a	WORD	906618	wordpools/wasnorm_wordpool_576.txt	LTP210	ltpFR2	14	7	CHURCH	307	n/a	n/a	0	0	0
1815.766	n/a	WORD	907883	wordpools/wasnorm_wordpool_576.txt	LTP210	ltpFR2	14	7	STOVE	1388	n/a	n/a	0	0	0
1818.494	n/a	WORD	909247	wordpools/wasnorm_wordpool_576.txt	LTP210	ltpFR2	14	7	ROBOT	1200	n/a	n/a	0	0	0
1820.992	n/a	WORD	910496	wordpools/wasnorm_wordpool_576.txt	LTP210	ltpFR2	14	7	SPOOL	1356	n/a	n/a	0	0	0
1823.704	n/a	WORD	911852	wordpools/wasnorm_wordpool_576.txt	LTP210	ltpFR2	14	7	LAMP	798	n/a	n/a	0	0	0
1826.366	n/a	WORD	913183	wordpools/wasnorm_wordpool_576.txt	LTP210	ltpFR2	14	7	SWITCH	1422	n/a	n/a	0	0	0
1828.896	n/a	WORD	914448	wordpools/wasnorm_wordpool_576.txt	LTP210	ltpFR2	14	7	SHRUB	1299	n/a	n/a	0	0	0
1831.692	n/a	WORD	915846	wordpools/wasnorm_wordpool_576.txt	LTP210	ltpFR2	14	7	PEBBLE	1035	n/a	n/a	0	0	0
1833.306	n/a	START	916653	n/a	LTP210	ltpFR2	14	n/a	n/a	n/a	12	n/a	n/a	n/a	n/a
1834.368	n/a	DISTRACTOR	917184	n/a	LTP210	ltpFR2	14	7	n/a	n/a	n/a	n/a	0	0	0
1834.372	n/a	PROB	917186	n/a	LTP210	ltpFR2	14	n/a	n/a	n/a	12	16	9	5	2
1836.336	n/a	PROB	918168	n/a	LTP210	ltpFR2	14	n/a	n/a	n/a	12	21	9	5	7
1839.198	n/a	PROB	919599	n/a	LTP210	ltpFR2	14	n/a	n/a	n/a	12	16	6	2	8
1840.496	n/a	PROB	920248	n/a	LTP210	ltpFR2	14	n/a	n/a	n/a	12	12	1	4	7
1841.794	n/a	PROB	920897	n/a	LTP210	ltpFR2	14	n/a	n/a	n/a	12	14	1	9	4
1843.176	n/a	PROB	921588	n/a	LTP210	ltpFR2	14	n/a	n/a	n/a	12	16	4	4	8
1844.524	n/a	PROB	922262	n/a	LTP210	ltpFR2	14	n/a	n/a	n/a	12	17	7	2	8
1846.104	n/a	PROB	923052	n/a	LTP210	ltpFR2	14	n/a	n/a	n/a	12	10	2	7	1
1847.452	n/a	PROB	923726	n/a	LTP210	ltpFR2	14	n/a	n/a	n/a	12	26	8	9	9
1849.0	n/a	PROB	924500	n/a	LTP210	ltpFR2	14	n/a	n/a	n/a	12	21	7	5	9
1850.646	n/a	PROB	925323	n/a	LTP210	ltpFR2	14	n/a	n/a	n/a	12	8	3	3	2
1852.012	n/a	PROB	926006	n/a	LTP210	ltpFR2	14	n/a	n/a	n/a	12	15	3	6	6
1853.444	n/a	PROB	926722	n/a	LTP210	ltpFR2	14	n/a	n/a	n/a	12	16	7	6	3
1856.09	n/a	STOP	928045	n/a	LTP210	ltpFR2	14	n/a	n/a	n/a	12	n/a	n/a	n/a	n/a
1859.07	n/a	REC_START	929535	n/a	LTP210	ltpFR2	14	7	n/a	n/a	n/a	n/a	0	0	0
1862.688	n/a	REC_WORD	931344	wordpools/wasnorm_wordpool_576.txt	LTP210	ltpFR2	14	7	BUCKET	184	n/a	n/a	0	0	0
1864.54	n/a	REC_WORD	932270	wordpools/wasnorm_wordpool_576.txt	LTP210	ltpFR2	14	7	CHURCH	307	n/a	n/a	0	0	0
1867.558	n/a	REC_WORD	933779	wordpools/wasnorm_wordpool_576.txt	LTP210	ltpFR2	14	7	PEBBLE	1035	n/a	n/a	0	0	0
1869.79	n/a	REC_WORD	934895	wordpools/wasnorm_wordpool_576.txt	LTP210	ltpFR2	14	7	STOVE	1388	n/a	n/a	0	0	0
1949.734	n/a	WORD	974867	wordpools/wasnorm_wordpool_576.txt	LTP210	ltpFR2	14	8	ROBIN	1199	n/a	n/a	0	0	0
1952.298	n/a	WORD	976149	wordpools/wasnorm_wordpool_576.txt	LTP210	ltpFR2	14	8	FEMALE	559	n/a	n/a	0	0	0
1954.994	n/a	WORD	977497	wordpools/wasnorm_wordpool_576.txt	LTP210	ltpFR2	14	8	NEUTRON	947	n/a	n/a	0	0	0
1957.756	n/a	WORD	978878	wordpools/wasnorm_wordpool_576.txt	LTP210	ltpFR2	14	8	BEAKER	104	n/a	n/a	0	0	0
1960.186	n/a	WORD	980093	wordpools/wasnorm_wordpool_576.txt	LTP210	ltpFR2	14	8	FRIEND	606	n/a	n/a	0	0	0
1962.964	n/a	WORD	981482	wordpools/wasnorm_wordpool_576.txt	LTP210	ltpFR2	14	8	WORKER	1621	n/a	n/a	0	0	0
1965.594	n/a	WORD	982797	wordpools/wasnorm_wordpool_576.txt	LTP210	ltpFR2	14	8	MONEY	908	n/a	n/a	0	0	0
1968.024	n/a	WORD	984012	wordpools/wasnorm_wordpool_576.txt	LTP210	ltpFR2	14	8	HAMPER	682	n/a	n/a	0	0	0
1970.754	n/a	WORD	985377	wordpools/wasnorm_wordpool_576.txt	LTP210	ltpFR2	14	8	TUBA	1515	n/a	n/a	0	0	0
1973.3	n/a	WORD	986650	wordpools/wasnorm_wordpool_576.txt	LTP210	ltpFR2	14	8	TOMBSTONE	1478	n/a	n/a	0	0	0
1975.862	n/a	WORD	987931	wordpools/wasnorm_wordpool_576.txt	LTP210	ltpFR2	14	8	SCARECROW	1245	n/a	n/a	0	0	0
1978.342	n/a	WORD	989171	wordpools/wasnorm_wordpool_576.txt	LTP210	ltpFR2	14	8	BOARD	143	n/a	n/a	0	0	0
1981.054	n/a	WORD	990527	wordpools/wasnorm_wordpool_576.txt	LTP210	ltpFR2	14	8	PIZZA	1079	n/a	n/a	0	0	0
1983.818	n/a	WORD	991909	wordpools/wasnorm_wordpool_576.txt	LTP210	ltpFR2	14	8	FRIAR	605	n/a	n/a	0	0	0
1986.562	n/a	WORD	993281	wordpools/wasnorm_wordpool_576.txt	LTP210	ltpFR2	14	8	BASEMENT	94	n/a	n/a	0	0	0
1989.06	n/a	WORD	994530	wordpools/wasnorm_wordpool_576.txt	LTP210	ltpFR2	14	8	CELLAR	267	n/a	n/a	0	0	0
1991.572	n/a	WORD	995786	wordpools/wasnorm_wordpool_576.txt	LTP210	ltpFR2	14	8	SAUSAGE	1238	n/a	n/a	0	0	0
1994.102	n/a	WORD	997051	wordpools/wasnorm_wordpool_576.txt	LTP210	ltpFR2	14	8	PECAN	1036	n/a	n/a	0	0	0
1996.532	n/a	WORD	998266	wordpools/wasnorm_wordpool_576.txt	LTP210	ltpFR2	14	8	TEACHER	1440	n/a	n/a	0	0	0
1999.078	n/a	WORD	999539	wordpools/wasnorm_wordpool_576.txt	LTP210	ltpFR2	14	8	DIME	466	n/a	n/a	0	0	0
2001.656	n/a	WORD	1000828	wordpools/wasnorm_wordpool_576.txt	LTP210	ltpFR2	14	8	VICTIM	1562	n/a	n/a	0	0	0
2004.354	n/a	WORD	1002177	wordpools/wasnorm_wordpool_576.txt	LTP210	ltpFR2	14	8	SUSPECT	1415	n/a	n/a	0	0	0
2007.1	n/a	WORD	1003550	wordpools/wasnorm_wordpool_576.txt	LTP210	ltpFR2	14	8	OUTLAW	989	n/a	n/a	0	0	0
2009.762	n/a	WORD	1004881	wordpools/wasnorm_wordpool_576.txt	LTP210	ltpFR2	14	8	HORSE	719	n/a	n/a	0	0	0
2011.378	n/a	START	1005689	n/a	LTP210	ltpFR2	14	n/a	n/a	n/a	13	n/a	n/a	n/a	n/a
2012.312	n/a	DISTRACTOR	1006156	n/a	LTP210	ltpFR2	14	8	n/a	n/a	n/a	n/a	0	0	0
2012.326	n/a	PROB	1006163	n/a	LTP210	ltpFR2	14	n/a	n/a	n/a	13	13	9	2	2
2014.206	n/a	PROB	1007103	n/a	LTP210	ltpFR2	14	n/a	n/a	n/a	13	17	7	5	5
2015.92	n/a	PROB	1007960	n/a	LTP210	ltpFR2	14	n/a	n/a	n/a	13	17	6	8	3
2018.016	n/a	PROB	1009008	n/a	LTP210	ltpFR2	14	n/a	n/a	n/a	13	12	4	3	5
2019.864	n/a	PROB	1009932	n/a	LTP210	ltpFR2	14	n/a	n/a	n/a	13	13	1	6	6
2021.228	n/a	PROB	1010614	n/a	LTP210	ltpFR2	14	n/a	n/a	n/a	13	14	2	6	6
2023.092	n/a	PROB	1011546	n/a	LTP210	ltpFR2	14	n/a	n/a	n/a	13	20	5	9	6
2029.116	n/a	PROB	1014558	n/a	LTP210	ltpFR2	14	n/a	n/a	n/a	13	11	5	2	4
2031.064	n/a	PROB	1015532	n/a	LTP210	ltpFR2	14	n/a	n/a	n/a	13	21	9	4	8
2032.978	n/a	PROB	1016489	n/a	LTP210	ltpFR2	14	n/a	n/a	n/a	13	22	6	9	7
2034.988	n/a	STOP	1017494	n/a	LTP210	ltpFR2	14	n/a	n/a	n/a	13	n/a	n/a	n/a	n/a
2037.322	n/a	REC_START	1018661	n/a	LTP210	ltpFR2	14	8	n/a	n/a	n/a	n/a	0	0	0
2039.61	n/a	REC_WORD	1019805	wordpools/wasnorm_wordpool_576.txt	LTP210	ltpFR2	14	8	SUSPECT	1415	n/a	n/a	0	0	0
2041.224	n/a	REC_WORD	1020612	wordpools/wasnorm_wordpool_576.txt	LTP210	ltpFR2	14	8	VICTIM	1562	n/a	n/a	0	0	0
2043.078	n/a	REC_WORD	1021539	wordpools/wasnorm_wordpool_576.txt	LTP210	ltpFR2	14	8	OUTLAW	989	n/a	n/a	0	0	0
2045.614	n/a	REC_WORD	1022807	wordpools/wasnorm_wordpool_576.txt	LTP210	ltpFR2	14	8	TEACHER	1440	n/a	n/a	0	0	0
2047.438	n/a	REC_WORD	1023719	wordpools/wasnorm_wordpool_576.txt	LTP210	ltpFR2	14	8	DIME	466	n/a	n/a	0	0	0
2050.982	n/a	REC_WORD	1025491	wordpools/wasnorm_wordpool_576.txt	LTP210	ltpFR2	14	8	ROBIN	1199	n/a	n/a	0	0	0
2053.284	n/a	REC_WORD	1026642	wordpools/wasnorm_wordpool_576.txt	LTP210	ltpFR2	14	8	FEMALE	559	n/a	n/a	0	0	0
2114.008	n/a	REST_REWET	1057004	n/a	LTP210	ltpFR2	14	8	n/a	n/a	n/a	n/a	0	0	0
2572.53	n/a	WORD	1286265	wordpools/wasnorm_wordpool_576.txt	LTP210	ltpFR2	14	9	PASSAGE	1019	n/a	n/a	0	0	0
2575.01	n/a	WORD	1287505	wordpools/wasnorm_wordpool_576.txt	LTP210	ltpFR2	14	9	STAKE	1368	n/a	n/a	0	0	0
2577.756	n/a	WORD	1288878	wordpools/wasnorm_wordpool_576.txt	LTP210	ltpFR2	14	9	ISLAND	745	n/a	n/a	0	0	0
2580.268	n/a	WORD	1290134	wordpools/wasnorm_wordpool_576.txt	LTP210	ltpFR2	14	9	GARDEN	623	n/a	n/a	0	0	0
2582.748	n/a	WORD	1291374	wordpools/wasnorm_wordpool_576.txt	LTP210	ltpFR2	14	9	ICING	732	n/a	n/a	0	0	0
2585.412	n/a	WORD	1292706	wordpools/wasnorm_wordpool_576.txt	LTP210	ltpFR2	14	9	OMELET	976	n/a	n/a	0	0	0
2588.058	n/a	WORD	1294029	wordpools/wasnorm_wordpool_576.txt	LTP210	ltpFR2	14	9	BRACES	164	n/a	n/a	0	0	0
2590.686	n/a	WORD	1295343	wordpools/wasnorm_wordpool_576.txt	LTP210	ltpFR2	14	9	FARMER	553	n/a	n/a	0	0	0
2593.416	n/a	WORD	1296708	wordpools/wasnorm_wordpool_576.txt	LTP210	ltpFR2	14	9	HUSBAND	728	n/a	n/a	0	0	0
2596.128	n/a	WORD	1298064	wordpools/wasnorm_wordpool_576.txt	LTP210	ltpFR2	14	9	DRINK	498	n/a	n/a	0	0	0
2598.842	n/a	WORD	1299421	wordpools/wasnorm_wordpool_576.txt	LTP210	ltpFR2	14	9	FLASK	576	n/a	n/a	0	0	0
2601.57	n/a	WORD	1300785	wordpools/wasnorm_wordpool_576.txt	LTP210	ltpFR2	14	9	OINTMENT	974	n/a	n/a	0	0	0
2604.216	n/a	WORD	1302108	wordpools/wasnorm_wordpool_576.txt	LTP210	ltpFR2	14	9	SODA	1341	n/a	n/a	0	0	0
2606.712	n/a	WORD	1303356	wordpools/wasnorm_wordpool_576.txt	LTP210	ltpFR2	14	9	BOUQUET	157	n/a	n/a	0	0	0
2609.342	n/a	WORD	1304671	wordpools/wasnorm_wordpool_576.txt	LTP210	ltpFR2	14	9	EUROPE	541	n/a	n/a	0	0	0
2611.772	n/a	WORD	1305886	wordpools/wasnorm_wordpool_576.txt	LTP210	ltpFR2	14	9	KITCHEN	778	n/a	n/a	0	0	0
2614.252	n/a	WORD	1307126	wordpools/wasnorm_wordpool_576.txt	LTP210	ltpFR2	14	9	COOKBOOK	373	n/a	n/a	0	0	0
2616.814	n/a	WORD	1308407	wordpools/wasnorm_wordpool_576.txt	LTP210	ltpFR2	14	9	NIGHTGOWN	953	n/a	n/a	0	0	0
2619.444	n/a	WORD	1309722	wordpools/wasnorm_wordpool_576.txt	LTP210	ltpFR2	14	9	CLIMBER	323	n/a	n/a	0	0	0
2622.14	n/a	WORD	1311070	wordpools/wasnorm_wordpool_576.txt	LTP210	ltpFR2	14	9	SPOUSE	1358	n/a	n/a	0	0	0
2624.886	n/a	WORD	1312443	wordpools/wasnorm_wordpool_576.txt	LTP210	ltpFR2	14	9	MARKET	871	n/a	n/a	0	0	0
2627.482	n/a	WORD	1313741	wordpools/wasnorm_wordpool_576.txt	LTP210	ltpFR2	14	9	GUITAR	670	n/a	n/a	0	0	0
2630.244	n/a	WORD	1315122	wordpools/wasnorm_wordpool_576.txt	LTP210	ltpFR2	14	9	CROSS	413	n/a	n/a	0	0	0
2632.74	n/a	WORD	1316370	wordpools/wasnorm_wordpool_576.txt	LTP210	ltpFR2	14	9	COUNTRY	388	n/a	n/a	0	0	0
2634.356	n/a	START	1317178	n/a	LTP210	ltpFR2	14	n/a	n/a	n/a	14	n/a	n/a	n/a	n/a
2635.516	n/a	DISTRACTOR	1317758	n/a	LTP210	ltpFR2	14	9	n/a	n/a	n/a	n/a	0	0	0
2635.52	n/a	PROB	1317760	n/a	LTP210	ltpFR2	14	n/a	n/a	n/a	14	20	9	4	7
2637.716	n/a	PROB	1318858	n/a	LTP210	ltpFR2	14	n/a	n/a	n/a	14	1	4	8	1
2639.548	n/a	PROB	1319774	n/a	LTP210	ltpFR2	14	n/a	n/a	n/a	14	14	4	9	1
2643.458	n/a	PROB	1321729	n/a	LTP210	ltpFR2	14	n/a	n/a	n/a	14	16	3	5	8
2645.97	n/a	PROB	1322985	n/a	LTP210	ltpFR2	14	n/a	n/a	n/a	14	10	7	2	1
2647.086	n/a	PROB	1323543	n/a	LTP210	ltpFR2	14	n/a	n/a	n/a	14	16	8	1	7
2648.384	n/a	PROB	1324192	n/a	LTP210	ltpFR2	14	n/a	n/a	n/a	14	15	4	7	4
2650.714	n/a	PROB	1325357	n/a	LTP210	ltpFR2	14	n/a	n/a	n/a	14	13	7	5	1
2652.96	n/a	PROB	1326480	n/a	LTP210	ltpFR2	14	n/a	n/a	n/a	14	10	6	3	1
2654.424	n/a	PROB	1327212	n/a	LTP210	ltpFR2	14	n/a	n/a	n/a	14	20	7	2	9
2658.356	n/a	STOP	1329178	n/a	LTP210	ltpFR2	14	n/a	n/a	n/a	14	n/a	n/a	n/a	n/a
2660.234	n/a	REC_START	1330117	n/a	LTP210	ltpFR2	14	9	n/a	n/a	n/a	n/a	0	0	0
2661.348	n/a	REC_WORD	1330674	wordpools/wasnorm_wordpool_576.txt	LTP210	ltpFR2	14	9	HUSBAND	728	n/a	n/a	0	0	0
2663.012	n/a	REC_WORD	1331506	wordpools/wasnorm_wordpool_576.txt	LTP210	ltpFR2	14	9	SPOUSE	1358	n/a	n/a	0	0	0
2664.562	n/a	REC_WORD	1332281	wordpools/wasnorm_wordpool_576.txt	LTP210	ltpFR2	14	9	FARMER	553	n/a	n/a	0	0	0
2669.88	n/a	REC_WORD	1334940	wordpools/wasnorm_wordpool_576.txt	LTP210	ltpFR2	14	9	BRACES	164	n/a	n/a	0	0	0
2675.78	n/a	REC_WORD	1337890	wordpools/wasnorm_wordpool_576.txt	LTP210	ltpFR2	14	9	PASSAGE	1019	n/a	n/a	0	0	0
2677.634	n/a	REC_WORD	1338817	wordpools/wasnorm_wordpool_576.txt	LTP210	ltpFR2	14	9	STAKE	1368	n/a	n/a	0	0	0
2711.69	n/a	REC_WORD	1355845	wordpools/wasnorm_wordpool_576.txt	LTP210	ltpFR2	14	9	ISLAND	745	n/a	n/a	0	0	0
2750.882	n/a	DISTRACTOR	1375441	n/a	LTP210	ltpFR2	14	10	n/a	n/a	n/a	n/a	0	0	0
2750.884	n/a	START	1375442	n/a	LTP210	ltpFR2	14	n/a	n/a	n/a	15	n/a	n/a	n/a	n/a
2750.916	n/a	PROB	1375458	n/a	LTP210	ltpFR2	14	n/a	n/a	n/a	15	20	8	9	3
2753.312	n/a	PROB	1376656	n/a	LTP210	ltpFR2	14	n/a	n/a	n/a	15	9	4	1	4
2754.494	n/a	PROB	1377247	n/a	LTP210	ltpFR2	14	n/a	n/a	n/a	15	24	8	8	8
2756.142	n/a	PROB	1378071	n/a	LTP210	ltpFR2	14	n/a	n/a	n/a	15	17	1	7	9
2759.288	n/a	PROB	1379644	n/a	LTP210	ltpFR2	14	n/a	n/a	n/a	15	11	3	5	3
2761.052	n/a	PROB	1380526	n/a	LTP210	ltpFR2	14	n/a	n/a	n/a	15	11	1	2	8
2762.166	n/a	PROB	1381083	n/a	LTP210	ltpFR2	14	n/a	n/a	n/a	15	13	7	1	5
2763.83	n/a	PROB	1381915	n/a	LTP210	ltpFR2	14	n/a	n/a	n/a	15	13	1	8	4
2766.276	n/a	PROB	1383138	n/a	LTP210	ltpFR2	14	n/a	n/a	n/a	15	21	9	6	6
2769.156	n/a	PROB	1384578	n/a	LTP210	ltpFR2	14	n/a	n/a	n/a	15	13	3	4	6
2772.384	n/a	PROB	1386192	n/a	LTP210	ltpFR2	14	n/a	n/a	n/a	15	14	6	5	3
2774.478	n/a	STOP	1387239	n/a	LTP210	ltpFR2	14	n/a	n/a	n/a	15	n/a	n/a	n/a	n/a
2775.862	n/a	WORD	1387931	wordpools/wasnorm_wordpool_576.txt	LTP210	ltpFR2	14	10	SUITCASE	1403	n/a	n/a	0	0	0
2778.542	n/a	WORD	1389271	wordpools/wasnorm_wordpool_576.txt	LTP210	ltpFR2	14	10	JURY	766	n/a	n/a	0	0	0
2781.088	n/a	WORD	1390544	wordpools/wasnorm_wordpool_576.txt	LTP210	ltpFR2	14	10	TILE	1468	n/a	n/a	0	0	0
2783.666	n/a	WORD	1391833	wordpools/wasnorm_wordpool_576.txt	LTP210	ltpFR2	14	10	CUPBOARD	425	n/a	n/a	0	0	0
2786.164	n/a	WORD	1393082	wordpools/wasnorm_wordpool_576.txt	LTP210	ltpFR2	14	10	PASTA	1021	n/a	n/a	0	0	0
2788.826	n/a	WORD	1394413	wordpools/wasnorm_wordpool_576.txt	LTP210	ltpFR2	14	10	TRENCH	1503	n/a	n/a	0	0	0
2791.256	n/a	WORD	1395628	wordpools/wasnorm_wordpool_576.txt	LTP210	ltpFR2	14	10	WASHER	1592	n/a	n/a	0	0	0
2793.852	n/a	WORD	1396926	wordpools/wasnorm_wordpool_576.txt	LTP210	ltpFR2	14	10	POCKET	1093	n/a	n/a	0	0	0
2796.464	n/a	WORD	1398232	wordpools/wasnorm_wordpool_576.txt	LTP210	ltpFR2	14	10	JEANS	752	n/a	n/a	0	0	0
2799.228	n/a	WORD	1399614	wordpools/wasnorm_wordpool_576.txt	LTP210	ltpFR2	14	10	HEDGE	699	n/a	n/a	0	0	0
2801.84	n/a	WORD	1400920	wordpools/wasnorm_wordpool_576.txt	LTP210	ltpFR2	14	10	PEDAL	1037	n/a	n/a	0	0	0
2804.454	n/a	WORD	1402227	wordpools/wasnorm_wordpool_576.txt	LTP210	ltpFR2	14	10	SMOG	1330	n/a	n/a	0	0	0
2807.284	n/a	WORD	1403642	wordpools/wasnorm_wordpool_576.txt	LTP210	ltpFR2	14	10	RUG	1215	n/a	n/a	0	0	0
2810.096	n/a	WORD	1405048	wordpools/wasnorm_wordpool_576.txt	LTP210	ltpFR2	14	10	SWORD	1423	n/a	n/a	0	0	0
2812.874	n/a	WORD	1406437	wordpools/wasnorm_wordpool_576.txt	LTP210	ltpFR2	14	10	SCISSORS	1250	n/a	n/a	0	0	0
2815.47	n/a	WORD	1407735	wordpools/wasnorm_wordpool_576.txt	LTP210	ltpFR2	14	10	WIDOW	1608	n/a	n/a	0	0	0
2817.934	n/a	WORD	1408967	wordpools/wasnorm_wordpool_576.txt	LTP210	ltpFR2	14	10	LUMBER	848	n/a	n/a	0	0	0
2820.364	n/a	WORD	1410182	wordpools/wasnorm_wordpool_576.txt	LTP210	ltpFR2	14	10	MARINE	869	n/a	n/a	0	0	0
2822.876	n/a	WORD	1411438	wordpools/wasnorm_wordpool_576.txt	LTP210	ltpFR2	14	10	LAKE	796	n/a	n/a	0	0	0
2825.638	n/a	WORD	1412819	wordpools/wasnorm_wordpool_576.txt	LTP210	ltpFR2	14	10	RATTLE	1170	n/a	n/a	0	0	0
2828.402	n/a	WORD	1414201	wordpools/wasnorm_wordpool_576.txt	LTP210	ltpFR2	14	10	BRAKE	166	n/a	n/a	0	0	0
2831.214	n/a	WORD	1415607	wordpools/wasnorm_wordpool_576.txt	LTP210	ltpFR2	14	10	CIGAR	308	n/a	n/a	0	0	0
2833.66	n/a	WORD	1416830	wordpools/wasnorm_wordpool_576.txt	LTP210	ltpFR2	14	10	SHORTCAKE	1292	n/a	n/a	0	0	0
2836.406	n/a	WORD	1418203	wordpools/wasnorm_wordpool_576.txt	LTP210	ltpFR2	14	10	SNACK	1331	n/a	n/a	0	0	0
2838.02	n/a	START	1419010	n/a	LTP210	ltpFR2	14	n/a	n/a	n/a	16	n/a	n/a	n/a	n/a
2838.862	n/a	DISTRACTOR	1419431	n/a	LTP210	ltpFR2	14	10	n/a	n/a	n/a	n/a	0	0	0
2838.87	n/a	PROB	1419435	n/a	LTP210	ltpFR2	14	n/a	n/a	n/a	16	14	2	3	9
2840.434	n/a	PROB	1420217	n/a	LTP210	ltpFR2	14	n/a	n/a	n/a	16	19	7	6	6
2842.946	n/a	PROB	1421473	n/a	LTP210	ltpFR2	14	n/a	n/a	n/a	16	19	9	6	4
2844.144	n/a	PROB	1422072	n/a	LTP210	ltpFR2	14	n/a	n/a	n/a	16	19	9	2	8
2845.392	n/a	PROB	1422696	n/a	LTP210	ltpFR2	14	n/a	n/a	n/a	16	15	4	7	4
2846.974	n/a	PROB	1423487	n/a	LTP210	ltpFR2	14	n/a	n/a	n/a	16	10	3	2	5
2848.338	n/a	PROB	1424169	n/a	LTP210	ltpFR2	14	n/a	n/a	n/a	16	15	1	6	8
2850.918	n/a	PROB	1425459	n/a	LTP210	ltpFR2	14	n/a	n/a	n/a	16	18	9	5	4
2852.332	n/a	PROB	1426166	n/a	LTP210	ltpFR2	14	n/a	n/a	n/a	16	17	9	6	2
2854.594	n/a	PROB	1427297	n/a	LTP210	ltpFR2	14	n/a	n/a	n/a	16	19	8	3	8
2856.542	n/a	PROB	1428271	n/a	LTP210	ltpFR2	14	n/a	n/a	n/a	16	11	4	6	1
2857.69	n/a	PROB	1428845	n/a	LTP210	ltpFR2	14	n/a	n/a	n/a	16	20	9	3	8
2859.388	n/a	PROB	1429694	n/a	LTP210	ltpFR2	14	n/a	n/a	n/a	16	14	5	6	3
2861.022	n/a	STOP	1430511	n/a	LTP210	ltpFR2	14	n/a	n/a	n/a	16	n/a	n/a	n/a	n/a
2864.008	n/a	REC_START	1432004	n/a	LTP210	ltpFR2	14	10	n/a	n/a	n/a	n/a	0	0	0
2864.446	n/a	REC_WORD	1432223	wordpools/wasnorm_wordpool_576.txt	LTP210	ltpFR2	14	10	SHORTCAKE	1292	n/a	n/a	0	0	0
2865.944	n/a	REC_WORD	1432972	wordpools/wasnorm_wordpool_576.txt	LTP210	ltpFR2	14	10	SNACK	1331	n/a	n/a	0	0	0
2877.86	n/a	REC_WORD	1438930	wordpools/wasnorm_wordpool_576.txt	LTP210	ltpFR2	14	10	JURY	766	n/a	n/a	0	0	0
2882.25	n/a	REC_WORD	1441125	wordpools/wasnorm_wordpool_576.txt	LTP210	ltpFR2	14	10	SUITCASE	1403	n/a	n/a	0	0	0
2898.736	n/a	REC_WORD	1449368	wordpools/wasnorm_wordpool_576.txt	LTP210	ltpFR2	14	10	WIDOW	1608	n/a	n/a	0	0	0
3057.462	n/a	DISTRACTOR	1528731	n/a	LTP210	ltpFR2	14	11	n/a	n/a	n/a	n/a	0	0	0
3057.464	n/a	START	1528732	n/a	LTP210	ltpFR2	14	n/a	n/a	n/a	17	n/a	n/a	n/a	n/a
3057.496	n/a	PROB	1528748	n/a	LTP210	ltpFR2	14	n/a	n/a	n/a	17	15	6	1	8
3059.46	n/a	PROB	1529730	n/a	LTP210	ltpFR2	14	n/a	n/a	n/a	17	20	8	5	7
3061.324	n/a	PROB	1530662	n/a	LTP210	ltpFR2	14	n/a	n/a	n/a	17	16	6	2	8
3062.704	n/a	PROB	1531352	n/a	LTP210	ltpFR2	14	n/a	n/a	n/a	17	11	1	7	3
3063.87	n/a	PROB	1531935	n/a	LTP210	ltpFR2	14	n/a	n/a	n/a	17	21	8	9	4
3065.4	n/a	PROB	1532700	n/a	LTP210	ltpFR2	14	n/a	n/a	n/a	17	16	7	7	2
3066.832	n/a	PROB	1533416	n/a	LTP210	ltpFR2	14	n/a	n/a	n/a	17	13	6	3	4
3068.562	n/a	PROB	1534281	n/a	LTP210	ltpFR2	14	n/a	n/a	n/a	17	7	3	2	2
3070.444	n/a	PROB	1535222	n/a	LTP210	ltpFR2	14	n/a	n/a	n/a	17	15	9	5	1
3071.542	n/a	PROB	1535771	n/a	LTP210	ltpFR2	14	n/a	n/a	n/a	17	24	8	9	7
3073.538	n/a	PROB	1536769	n/a	LTP210	ltpFR2	14	n/a	n/a	n/a	17	17	7	9	1
3074.736	n/a	PROB	1537368	n/a	LTP210	ltpFR2	14	n/a	n/a	n/a	17	15	8	5	2
3076.75	n/a	PROB	1538375	n/a	LTP210	ltpFR2	14	n/a	n/a	n/a	17	19	8	7	4
3079.014	n/a	PROB	1539507	n/a	LTP210	ltpFR2	14	n/a	n/a	n/a	17	13	7	5	1
3081.25	n/a	STOP	1540625	n/a	LTP210	ltpFR2	14	n/a	n/a	n/a	17	n/a	n/a	n/a	n/a
3082.326	n/a	WORD	1541163	wordpools/wasnorm_wordpool_576.txt	LTP210	ltpFR2	14	11	ARMY	39	n/a	n/a	0	0	0
3085.054	n/a	WORD	1542527	wordpools/wasnorm_wordpool_576.txt	LTP210	ltpFR2	14	11	MISSILE	900	n/a	n/a	0	0	0
3087.518	n/a	WORD	1543759	wordpools/wasnorm_wordpool_576.txt	LTP210	ltpFR2	14	11	SKIRT	1319	n/a	n/a	0	0	0
3090.13	n/a	WORD	1545065	wordpools/wasnorm_wordpool_576.txt	LTP210	ltpFR2	14	11	LIVER	833	n/a	n/a	0	0	0
3092.61	n/a	WORD	1546305	wordpools/wasnorm_wordpool_576.txt	LTP210	ltpFR2	14	11	DOLPHIN	483	n/a	n/a	0	0	0
3095.106	n/a	WORD	1547553	wordpools/wasnorm_wordpool_576.txt	LTP210	ltpFR2	14	11	PLASTER	1085	n/a	n/a	0	0	0
3097.736	n/a	WORD	1548868	wordpools/wasnorm_wordpool_576.txt	LTP210	ltpFR2	14	11	SIBLING	1301	n/a	n/a	0	0	0
3100.482	n/a	WORD	1550241	wordpools/wasnorm_wordpool_576.txt	LTP210	ltpFR2	14	11	CRICKET	408	n/a	n/a	0	0	0
3103.212	n/a	WORD	1551606	wordpools/wasnorm_wordpool_576.txt	LTP210	ltpFR2	14	11	PRINCE	1124	n/a	n/a	0	0	0
3105.974	n/a	WORD	1552987	wordpools/wasnorm_wordpool_576.txt	LTP210	ltpFR2	14	11	SPACE	1345	n/a	n/a	0	0	0
3108.77	n/a	WORD	1554385	wordpools/wasnorm_wordpool_576.txt	LTP210	ltpFR2	14	11	LABEL	790	n/a	n/a	0	0	0
3111.5	n/a	WORD	1555750	wordpools/wasnorm_wordpool_576.txt	LTP210	ltpFR2	14	11	COTTAGE	384	n/a	n/a	0	0	0
3114.112	n/a	WORD	1557056	wordpools/wasnorm_wordpool_576.txt	LTP210	ltpFR2	14	11	BROTHER	179	n/a	n/a	0	0	0
3116.64	n/a	WORD	1558320	wordpools/wasnorm_wordpool_576.txt	LTP210	ltpFR2	14	11	BISON	131	n/a	n/a	0	0	0
3119.338	n/a	WORD	1559669	wordpools/wasnorm_wordpool_576.txt	LTP210	ltpFR2	14	11	LEOPARD	812	n/a	n/a	0	0	0
3121.884	n/a	WORD	1560942	wordpools/wasnorm_wordpool_576.txt	LTP210	ltpFR2	14	11	PORK	1108	n/a	n/a	0	0	0
3124.714	n/a	WORD	1562357	wordpools/wasnorm_wordpool_576.txt	LTP210	ltpFR2	14	11	MARS	873	n/a	n/a	0	0	0
3127.176	n/a	WORD	1563588	wordpools/wasnorm_wordpool_576.txt	LTP210	ltpFR2	14	11	DRAWING	494	n/a	n/a	0	0	0
3129.822	n/a	WORD	1564911	wordpools/wasnorm_wordpool_576.txt	LTP210	ltpFR2	14	11	PICTURE	1061	n/a	n/a	0	0	0
3132.452	n/a	WORD	1566226	wordpools/wasnorm_wordpool_576.txt	LTP210	ltpFR2	14	11	NECKLACE	940	n/a	n/a	0	0	0
3134.982	n/a	WORD	1567491	wordpools/wasnorm_wordpool_576.txt	LTP210	ltpFR2	14	11	ZIPPER	1636	n/a	n/a	0	0	0
3137.576	n/a	WORD	1568788	wordpools/wasnorm_wordpool_576.txt	LTP210	ltpFR2	14	11	JELLY	755	n/a	n/a	0	0	0
3140.374	n/a	WORD	1570187	wordpools/wasnorm_wordpool_576.txt	LTP210	ltpFR2	14	11	PARTNER	1017	n/a	n/a	0	0	0
3142.82	n/a	WORD	1571410	wordpools/wasnorm_wordpool_576.txt	LTP210	ltpFR2	14	11	RADISH	1158	n/a	n/a	0	0	0
3144.434	n/a	START	1572217	n/a	LTP210	ltpFR2	14	n/a	n/a	n/a	18	n/a	n/a	n/a	n/a
3145.386	n/a	DISTRACTOR	1572693	n/a	LTP210	ltpFR2	14	11	n/a	n/a	n/a	n/a	0	0	0
3145.4	n/a	PROB	1572700	n/a	LTP210	ltpFR2	14	n/a	n/a	n/a	18	15	5	7	3
3147.496	n/a	PROB	1573748	n/a	LTP210	ltpFR2	14	n/a	n/a	n/a	18	9	2	2	5
3148.828	n/a	PROB	1574414	n/a	LTP210	ltpFR2	14	n/a	n/a	n/a	18	14	6	3	5
3150.606	n/a	PROB	1575303	n/a	LTP210	ltpFR2	14	n/a	n/a	n/a	18	11	6	1	4
3152.322	n/a	PROB	1576161	n/a	LTP210	ltpFR2	14	n/a	n/a	n/a	18	16	7	8	1
3153.72	n/a	PROB	1576860	n/a	LTP210	ltpFR2	14	n/a	n/a	n/a	18	17	7	1	9
3155.002	n/a	PROB	1577501	n/a	LTP210	ltpFR2	14	n/a	n/a	n/a	18	7	4	1	2
3156.382	n/a	PROB	1578191	n/a	LTP210	ltpFR2	14	n/a	n/a	n/a	18	19	8	9	2
3157.714	n/a	PROB	1578857	n/a	LTP210	ltpFR2	14	n/a	n/a	n/a	18	14	7	6	1
3159.228	n/a	PROB	1579614	n/a	LTP210	ltpFR2	14	n/a	n/a	n/a	18	19	5	9	5
3160.41	n/a	PROB	1580205	n/a	LTP210	ltpFR2	14	n/a	n/a	n/a	18	10	3	3	4
3161.69	n/a	PROB	1580845	n/a	LTP210	ltpFR2	14	n/a	n/a	n/a	18	14	1	8	5
3163.538	n/a	PROB	1581769	n/a	LTP210	ltpFR2	14	n/a	n/a	n/a	18	8	2	2	4
3165.054	n/a	PROB	1582527	n/a	LTP210	ltpFR2	14	n/a	n/a	n/a	18	19	8	4	7
3166.768	n/a	PROB	1583384	n/a	LTP210	ltpFR2	14	n/a	n/a	n/a	18	16	6	3	7
3168.202	n/a	STOP	1584101	n/a	LTP210	ltpFR2	14	n/a	n/a	n/a	18	n/a	n/a	n/a	n/a
3170.362	n/a	REC_START	1585181	n/a	LTP210	ltpFR2	14	11	n/a	n/a	n/a	n/a	0	0	0
3172.04	n/a	REC_WORD	1586020	wordpools/wasnorm_wordpool_576.txt	LTP210	ltpFR2	14	11	PICTURE	1061	n/a	n/a	0	0	0
3173.754	n/a	REC_WORD	1586877	wordpools/wasnorm_wordpool_576.txt	LTP210	ltpFR2	14	11	DRAWING	494	n/a	n/a	0	0	0
3177.184	n/a	REC_WORD	1588592	wordpools/wasnorm_wordpool_576.txt	LTP210	ltpFR2	14	11	BROTHER	179	n/a	n/a	0	0	0
3178.93	n/a	REC_WORD	1589465	wordpools/wasnorm_wordpool_576.txt	LTP210	ltpFR2	14	11	ARMY	39	n/a	n/a	0	0	0
3180.526	n/a	REC_WORD	1590263	wordpools/wasnorm_wordpool_576.txt	LTP210	ltpFR2	14	11	MISSILE	900	n/a	n/a	0	0	0
3206.914	n/a	REC_WORD	1603457	wordpools/wasnorm_wordpool_576.txt	LTP210	ltpFR2	14	11	SCISSORS	1250	n/a	n/a	0	0	0
3261.028	n/a	WORD	1630514	wordpools/wasnorm_wordpool_576.txt	LTP210	ltpFR2	14	12	FIREPLACE	570	n/a	n/a	0	0	0
3263.824	n/a	WORD	1631912	wordpools/wasnorm_wordpool_576.txt	LTP210	ltpFR2	14	12	SPOON	1357	n/a	n/a	0	0	0
3266.57	n/a	WORD	1633285	wordpools/wasnorm_wordpool_576.txt	LTP210	ltpFR2	14	12	CHAUFFEUR	283	n/a	n/a	0	0	0
3269.166	n/a	WORD	1634583	wordpools/wasnorm_wordpool_576.txt	LTP210	ltpFR2	14	12	MACHINE	852	n/a	n/a	0	0	0
3271.796	n/a	WORD	1635898	wordpools/wasnorm_wordpool_576.txt	LTP210	ltpFR2	14	12	MATCH	878	n/a	n/a	0	0	0
3274.558	n/a	WORD	1637279	wordpools/wasnorm_wordpool_576.txt	LTP210	ltpFR2	14	12	PIMPLE	1071	n/a	n/a	0	0	0
3277.154	n/a	WORD	1638577	wordpools/wasnorm_wordpool_576.txt	LTP210	ltpFR2	14	12	MOTOR	922	n/a	n/a	0	0	0
3279.918	n/a	WORD	1639959	wordpools/wasnorm_wordpool_576.txt	LTP210	ltpFR2	14	12	SUMMIT	1405	n/a	n/a	0	0	0
3282.612	n/a	WORD	1641306	wordpools/wasnorm_wordpool_576.txt	LTP210	ltpFR2	14	12	CLOTHES	327	n/a	n/a	0	0	0
3285.292	n/a	WORD	1642646	wordpools/wasnorm_wordpool_576.txt	LTP210	ltpFR2	14	12	XEROX	1628	n/a	n/a	0	0	0
3287.906	n/a	WORD	1643953	wordpools/wasnorm_wordpool_576.txt	LTP210	ltpFR2	14	12	MILK	895	n/a	n/a	0	0	0
3290.552	n/a	WORD	1645276	wordpools/wasnorm_wordpool_576.txt	LTP210	ltpFR2	14	12	CAMEL	223	n/a	n/a	0	0	0
3293.114	n/a	WORD	1646557	wordpools/wasnorm_wordpool_576.txt	LTP210	ltpFR2	14	12	FOREHEAD	592	n/a	n/a	0	0	0
3295.726	n/a	WORD	1647863	wordpools/wasnorm_wordpool_576.txt	LTP210	ltpFR2	14	12	INFANT	737	n/a	n/a	0	0	0
3298.322	n/a	WORD	1649161	wordpools/wasnorm_wordpool_576.txt	LTP210	ltpFR2	14	12	CARRIAGE	248	n/a	n/a	0	0	0
3300.836	n/a	WORD	1650418	wordpools/wasnorm_wordpool_576.txt	LTP210	ltpFR2	14	12	CYCLONE	431	n/a	n/a	0	0	0
3303.598	n/a	WORD	1651799	wordpools/wasnorm_wordpool_576.txt	LTP210	ltpFR2	14	12	CLOUD	328	n/a	n/a	0	0	0
3306.078	n/a	WORD	1653039	wordpools/wasnorm_wordpool_576.txt	LTP210	ltpFR2	14	12	TURNIP	1521	n/a	n/a	0	0	0
3308.724	n/a	WORD	1654362	wordpools/wasnorm_wordpool_576.txt	LTP210	ltpFR2	14	12	TERMITE	1451	n/a	n/a	0	0	0
3311.536	n/a	WORD	1655768	wordpools/wasnorm_wordpool_576.txt	LTP210	ltpFR2	14	12	ANTLER	29	n/a	n/a	0	0	0
3314.282	n/a	WORD	1657141	wordpools/wasnorm_wordpool_576.txt	LTP210	ltpFR2	14	12	LUNCH	849	n/a	n/a	0	0	0
3316.812	n/a	WORD	1658406	wordpools/wasnorm_wordpool_576.txt	LTP210	ltpFR2	14	12	BANQUET	86	n/a	n/a	0	0	0
3319.524	n/a	WORD	1659762	wordpools/wasnorm_wordpool_576.txt	LTP210	ltpFR2	14	12	FLOWER	584	n/a	n/a	0	0	0
3322.32	n/a	WORD	1661160	wordpools/wasnorm_wordpool_576.txt	LTP210	ltpFR2	14	12	TOASTER	1472	n/a	n/a	0	0	0
3323.934	n/a	START	1661967	n/a	LTP210	ltpFR2	14	n/a	n/a	n/a	19	n/a	n/a	n/a	n/a
3324.862	n/a	DISTRACTOR	1662431	n/a	LTP210	ltpFR2	14	12	n/a	n/a	n/a	n/a	0	0	0
3324.866	n/a	PROB	1662433	n/a	LTP210	ltpFR2	14	n/a	n/a	n/a	19	11	4	4	3
3327.412	n/a	PROB	1663706	n/a	LTP210	ltpFR2	14	n/a	n/a	n/a	19	12	7	3	2
3328.978	n/a	PROB	1664489	n/a	LTP210	ltpFR2	14	n/a	n/a	n/a	19	12	1	2	9
3330.176	n/a	PROB	1665088	n/a	LTP210	ltpFR2	14	n/a	n/a	n/a	19	15	5	3	7
3331.458	n/a	PROB	1665729	n/a	LTP210	ltpFR2	14	n/a	n/a	n/a	19	16	5	4	7
3334.22	n/a	PROB	1667110	n/a	LTP210	ltpFR2	14	n/a	n/a	n/a	19	10	2	6	2
3335.584	n/a	PROB	1667792	n/a	LTP210	ltpFR2	14	n/a	n/a	n/a	19	17	7	8	2
3337.032	n/a	PROB	1668516	n/a	LTP210	ltpFR2	14	n/a	n/a	n/a	19	15	4	5	6
3338.514	n/a	PROB	1669257	n/a	LTP210	ltpFR2	14	n/a	n/a	n/a	19	17	2	9	6
3340.494	n/a	PROB	1670247	n/a	LTP210	ltpFR2	14	n/a	n/a	n/a	19	5	1	2	2
3341.542	n/a	PROB	1670771	n/a	LTP210	ltpFR2	14	n/a	n/a	n/a	19	19	8	5	7
3343.556	n/a	PROB	1671778	n/a	LTP210	ltpFR2	14	n/a	n/a	n/a	19	14	6	6	2
3346.692	n/a	STOP	1673346	n/a	LTP210	ltpFR2	14	n/a	n/a	n/a	19	n/a	n/a	n/a	n/a
3349.798	n/a	REC_START	1674899	n/a	LTP210	ltpFR2	14	12	n/a	n/a	n/a	n/a	0	0	0
3350.742	n/a	REC_WORD	1675371	wordpools/wasnorm_wordpool_576.txt	LTP210	ltpFR2	14	12	MACHINE	852	n/a	n/a	0	0	0
3352.416	n/a	REC_WORD	1676208	wordpools/wasnorm_wordpool_576.txt	LTP210	ltpFR2	14	12	MATCH	878	n/a	n/a	0	0	0
3354.212	n/a	REC_WORD	1677106	wordpools/wasnorm_wordpool_576.txt	LTP210	ltpFR2	14	12	MOTOR	922	n/a	n/a	0	0	0
3440.53	n/a	DISTRACTOR	1720265	n/a	LTP210	ltpFR2	14	13	n/a	n/a	n/a	n/a	0	0	0
3440.53	n/a	START	1720265	n/a	LTP210	ltpFR2	14	n/a	n/a	n/a	20	n/a	n/a	n/a	n/a
3440.562	n/a	PROB	1720281	n/a	LTP210	ltpFR2	14	n/a	n/a	n/a	20	14	3	7	4
3441.91	n/a	PROB	1720955	n/a	LTP210	ltpFR2	14	n/a	n/a	n/a	20	14	5	5	4
3442.942	n/a	PROB	1721471	n/a	LTP210	ltpFR2	14	n/a	n/a	n/a	20	13	9	1	3
3444.04	n/a	PROB	1722020	n/a	LTP210	ltpFR2	14	n/a	n/a	n/a	20	17	4	5	8
3446.17	n/a	PROB	1723085	n/a	LTP210	ltpFR2	14	n/a	n/a	n/a	20	13	7	3	3
3447.418	n/a	PROB	1723709	n/a	LTP210	ltpFR2	14	n/a	n/a	n/a	20	14	7	3	4
3448.9	n/a	PROB	1724450	n/a	LTP210	ltpFR2	14	n/a	n/a	n/a	20	20	6	8	6
3450.532	n/a	PROB	1725266	n/a	LTP210	ltpFR2	14	n/a	n/a	n/a	20	9	5	1	3
3451.912	n/a	PROB	1725956	n/a	LTP210	ltpFR2	14	n/a	n/a	n/a	20	12	3	6	3
3453.494	n/a	PROB	1726747	n/a	LTP210	ltpFR2	14	n/a	n/a	n/a	20	11	2	7	2
3455.024	n/a	PROB	1727512	n/a	LTP210	ltpFR2	14	n/a	n/a	n/a	20	17	7	1	9
3456.972	n/a	PROB	1728486	n/a	LTP210	ltpFR2	14	n/a	n/a	n/a	20	12	4	4	4
3458.37	n/a	PROB	1729185	n/a	LTP210	ltpFR2	14	n/a	n/a	n/a	20	16	7	1	8
3460.732	n/a	PROB	1730366	n/a	LTP210	ltpFR2	14	n/a	n/a	n/a	20	24	9	9	6
3464.53	n/a	STOP	1732265	n/a	LTP210	ltpFR2	14	n/a	n/a	n/a	20	n/a	n/a	n/a	n/a
3465.708	n/a	WORD	1732854	wordpools/wasnorm_wordpool_576.txt	LTP210	ltpFR2	14	13	WHISKERS	1605	n/a	n/a	0	0	0
3468.388	n/a	WORD	1734194	wordpools/wasnorm_wordpool_576.txt	LTP210	ltpFR2	14	13	COUCH	386	n/a	n/a	0	0	0
3470.868	n/a	WORD	1735434	wordpools/wasnorm_wordpool_576.txt	LTP210	ltpFR2	14	13	COOK	372	n/a	n/a	0	0	0
3473.446	n/a	WORD	1736723	wordpools/wasnorm_wordpool_576.txt	LTP210	ltpFR2	14	13	STICKER	1382	n/a	n/a	0	0	0
3476.042	n/a	WORD	1738021	wordpools/wasnorm_wordpool_576.txt	LTP210	ltpFR2	14	13	CLAMP	316	n/a	n/a	0	0	0
3478.756	n/a	WORD	1739378	wordpools/wasnorm_wordpool_576.txt	LTP210	ltpFR2	14	13	DUST	508	n/a	n/a	0	0	0
3481.32	n/a	WORD	1740660	wordpools/wasnorm_wordpool_576.txt	LTP210	ltpFR2	14	13	UMPIRE	1535	n/a	n/a	0	0	0
3483.798	n/a	WORD	1741899	wordpools/wasnorm_wordpool_576.txt	LTP210	ltpFR2	14	13	FOOTBALL	591	n/a	n/a	0	0	0
3486.346	n/a	WORD	1743173	wordpools/wasnorm_wordpool_576.txt	LTP210	ltpFR2	14	13	VALLEY	1545	n/a	n/a	0	0	0
3488.858	n/a	WORD	1744429	wordpools/wasnorm_wordpool_576.txt	LTP210	ltpFR2	14	13	BULLET	194	n/a	n/a	0	0	0
3491.304	n/a	WORD	1745652	wordpools/wasnorm_wordpool_576.txt	LTP210	ltpFR2	14	13	POISON	1096	n/a	n/a	0	0	0
3493.85	n/a	WORD	1746925	wordpools/wasnorm_wordpool_576.txt	LTP210	ltpFR2	14	13	NOVEL	960	n/a	n/a	0	0	0
3496.33	n/a	WORD	1748165	wordpools/wasnorm_wordpool_576.txt	LTP210	ltpFR2	14	13	EMPIRE	530	n/a	n/a	0	0	0
3499.01	n/a	WORD	1749505	wordpools/wasnorm_wordpool_576.txt	LTP210	ltpFR2	14	13	PREACHER	1119	n/a	n/a	0	0	0
3501.722	n/a	WORD	1750861	wordpools/wasnorm_wordpool_576.txt	LTP210	ltpFR2	14	13	PENGUIN	1044	n/a	n/a	0	0	0
3504.402	n/a	WORD	1752201	wordpools/wasnorm_wordpool_576.txt	LTP210	ltpFR2	14	13	CRAYON	401	n/a	n/a	0	0	0
3507.064	n/a	WORD	1753532	wordpools/wasnorm_wordpool_576.txt	LTP210	ltpFR2	14	13	MARKER	870	n/a	n/a	0	0	0
3509.544	n/a	WORD	1754772	wordpools/wasnorm_wordpool_576.txt	LTP210	ltpFR2	14	13	LASER	801	n/a	n/a	0	0	0
3512.274	n/a	WORD	1756137	wordpools/wasnorm_wordpool_576.txt	LTP210	ltpFR2	14	13	STAPLE	1371	n/a	n/a	0	0	0
3514.702	n/a	WORD	1757351	wordpools/wasnorm_wordpool_576.txt	LTP210	ltpFR2	14	13	FIDDLE	561	n/a	n/a	0	0	0
3517.516	n/a	WORD	1758758	wordpools/wasnorm_wordpool_576.txt	LTP210	ltpFR2	14	13	DRUG	501	n/a	n/a	0	0	0
3520.112	n/a	WORD	1760056	wordpools/wasnorm_wordpool_576.txt	LTP210	ltpFR2	14	13	SCOTCH	1251	n/a	n/a	0	0	0
3522.79	n/a	WORD	1761395	wordpools/wasnorm_wordpool_576.txt	LTP210	ltpFR2	14	13	CANAL	226	n/a	n/a	0	0	0
3525.454	n/a	WORD	1762727	wordpools/wasnorm_wordpool_576.txt	LTP210	ltpFR2	14	13	COBRA	336	n/a	n/a	0	0	0
3527.068	n/a	START	1763534	n/a	LTP210	ltpFR2	14	n/a	n/a	n/a	21	n/a	n/a	n/a	n/a
3528.016	n/a	DISTRACTOR	1764008	n/a	LTP210	ltpFR2	14	13	n/a	n/a	n/a	n/a	0	0	0
3528.032	n/a	PROB	1764016	n/a	LTP210	ltpFR2	14	n/a	n/a	n/a	21	13	5	4	4
3529.93	n/a	PROB	1764965	n/a	LTP210	ltpFR2	14	n/a	n/a	n/a	21	8	2	3	3
3531.626	n/a	PROB	1765813	n/a	LTP210	ltpFR2	14	n/a	n/a	n/a	21	23	5	9	9
3533.092	n/a	PROB	1766546	n/a	LTP210	ltpFR2	14	n/a	n/a	n/a	21	13	9	2	2
3534.806	n/a	PROB	1767403	n/a	LTP210	ltpFR2	14	n/a	n/a	n/a	21	8	3	4	1
3536.338	n/a	PROB	1768169	n/a	LTP210	ltpFR2	14	n/a	n/a	n/a	21	18	6	5	7
3538.468	n/a	PROB	1769234	n/a	LTP210	ltpFR2	14	n/a	n/a	n/a	21	12	7	3	2
3539.698	n/a	PROB	1769849	n/a	LTP210	ltpFR2	14	n/a	n/a	n/a	21	18	9	5	4
3541.662	n/a	PROB	1770831	n/a	LTP210	ltpFR2	14	n/a	n/a	n/a	21	19	5	5	9
3542.86	n/a	PROB	1771430	n/a	LTP210	ltpFR2	14	n/a	n/a	n/a	21	19	7	3	9
3544.06	n/a	PROB	1772030	n/a	LTP210	ltpFR2	14	n/a	n/a	n/a	21	21	9	9	3
3545.374	n/a	PROB	1772687	n/a	LTP210	ltpFR2	14	n/a	n/a	n/a	21	7	4	1	2
3546.704	n/a	PROB	1773352	n/a	LTP210	ltpFR2	14	n/a	n/a	n/a	21	10	2	2	6
3547.986	n/a	PROB	1773993	n/a	LTP210	ltpFR2	14	n/a	n/a	n/a	21	17	5	8	4
3549.96	n/a	STOP	1774980	n/a	LTP210	ltpFR2	14	n/a	n/a	n/a	21	n/a	n/a	n/a	n/a
3552.946	n/a	REC_START	1776473	n/a	LTP210	ltpFR2	14	13	n/a	n/a	n/a	n/a	0	0	0
3553.76	n/a	REC_WORD	1776880	wordpools/wasnorm_wordpool_576.txt	LTP210	ltpFR2	14	13	COBRA	336	n/a	n/a	0	0	0
3555.684	n/a	REC_WORD	1777842	wordpools/wasnorm_wordpool_576.txt	LTP210	ltpFR2	14	13	PREACHER	1119	n/a	n/a	0	0	0
3643.628	n/a	WORD	1821814	wordpools/wasnorm_wordpool_576.txt	LTP210	ltpFR2	14	14	KEEPER	769	n/a	n/a	0	0	0
3646.358	n/a	WORD	1823179	wordpools/wasnorm_wordpool_576.txt	LTP210	ltpFR2	14	14	BRICK	172	n/a	n/a	0	0	0
3649.138	n/a	WORD	1824569	wordpools/wasnorm_wordpool_576.txt	LTP210	ltpFR2	14	14	VIRUS	1572	n/a	n/a	0	0	0
3651.682	n/a	WORD	1825841	wordpools/wasnorm_wordpool_576.txt	LTP210	ltpFR2	14	14	SNAIL	1332	n/a	n/a	0	0	0
3654.346	n/a	WORD	1827173	wordpools/wasnorm_wordpool_576.txt	LTP210	ltpFR2	14	14	SEAFOOD	1260	n/a	n/a	0	0	0
3657.126	n/a	WORD	1828563	wordpools/wasnorm_wordpool_576.txt	LTP210	ltpFR2	14	14	QUARTER	1148	n/a	n/a	0	0	0
3659.704	n/a	WORD	1829852	wordpools/wasnorm_wordpool_576.txt	LTP210	ltpFR2	14	14	CASHIER	254	n/a	n/a	0	0	0
3662.368	n/a	WORD	1831184	wordpools/wasnorm_wordpool_576.txt	LTP210	ltpFR2	14	14	GARBAGE	622	n/a	n/a	0	0	0
3665.08	n/a	WORD	1832540	wordpools/wasnorm_wordpool_576.txt	LTP210	ltpFR2	14	14	RIVER	1194	n/a	n/a	0	0	0
3667.626	n/a	WORD	1833813	wordpools/wasnorm_wordpool_576.txt	LTP210	ltpFR2	14	14	BLUEPRINT	142	n/a	n/a	0	0	0
3670.222	n/a	WORD	1835111	wordpools/wasnorm_wordpool_576.txt	LTP210	ltpFR2	14	14	TRIBE	1505	n/a	n/a	0	0	0
3672.752	n/a	WORD	1836376	wordpools/wasnorm_wordpool_576.txt	LTP210	ltpFR2	14	14	SEAGULL	1261	n/a	n/a	0	0	0
3675.482	n/a	WORD	1837741	wordpools/wasnorm_wordpool_576.txt	LTP210	ltpFR2	14	14	PUPIL	1143	n/a	n/a	0	0	0
3678.194	n/a	WORD	1839097	wordpools/wasnorm_wordpool_576.txt	LTP210	ltpFR2	14	14	SURVEY	1414	n/a	n/a	0	0	0
3680.824	n/a	WORD	1840412	wordpools/wasnorm_wordpool_576.txt	LTP210	ltpFR2	14	14	PIGEON	1065	n/a	n/a	0	0	0
3683.37	n/a	WORD	1841685	wordpools/wasnorm_wordpool_576.txt	LTP210	ltpFR2	14	14	GRAPE	654	n/a	n/a	0	0	0
3686.182	n/a	WORD	1843091	wordpools/wasnorm_wordpool_576.txt	LTP210	ltpFR2	14	14	MATTRESS	879	n/a	n/a	0	0	0
3688.66	n/a	WORD	1844330	wordpools/wasnorm_wordpool_576.txt	LTP210	ltpFR2	14	14	SWAMP	1416	n/a	n/a	0	0	0
3691.49	n/a	WORD	1845745	wordpools/wasnorm_wordpool_576.txt	LTP210	ltpFR2	14	14	BRANCH	168	n/a	n/a	0	0	0
3694.02	n/a	WORD	1847010	wordpools/wasnorm_wordpool_576.txt	LTP210	ltpFR2	14	14	FUNGUS	614	n/a	n/a	0	0	0
3696.534	n/a	WORD	1848267	wordpools/wasnorm_wordpool_576.txt	LTP210	ltpFR2	14	14	VENUS	1557	n/a	n/a	0	0	0
3699.146	n/a	WORD	1849573	wordpools/wasnorm_wordpool_576.txt	LTP210	ltpFR2	14	14	CRAB	397	n/a	n/a	0	0	0
3701.826	n/a	WORD	1850913	wordpools/wasnorm_wordpool_576.txt	LTP210	ltpFR2	14	14	DORM	488	n/a	n/a	0	0	0
3704.604	n/a	WORD	1852302	wordpools/wasnorm_wordpool_576.txt	LTP210	ltpFR2	14	14	SWIMMER	1420	n/a	n/a	0	0	0
3706.22	n/a	START	1853110	n/a	LTP210	ltpFR2	14	n/a	n/a	n/a	22	n/a	n/a	n/a	n/a
3707.314	n/a	DISTRACTOR	1853657	n/a	LTP210	ltpFR2	14	14	n/a	n/a	n/a	n/a	0	0	0
3707.318	n/a	PROB	1853659	n/a	LTP210	ltpFR2	14	n/a	n/a	n/a	22	20	9	2	9
3709.298	n/a	PROB	1854649	n/a	LTP210	ltpFR2	14	n/a	n/a	n/a	22	15	4	4	7
3711.828	n/a	PROB	1855914	n/a	LTP210	ltpFR2	14	n/a	n/a	n/a	22	16	2	8	6
3713.21	n/a	PROB	1856605	n/a	LTP210	ltpFR2	14	n/a	n/a	n/a	22	14	1	6	7
3714.808	n/a	PROB	1857404	n/a	LTP210	ltpFR2	14	n/a	n/a	n/a	22	18	9	1	8
3716.288	n/a	PROB	1858144	n/a	LTP210	ltpFR2	14	n/a	n/a	n/a	22	20	9	2	9
3717.702	n/a	PROB	1858851	n/a	LTP210	ltpFR2	14	n/a	n/a	n/a	22	19	9	1	9
3719.616	n/a	PROB	1859808	n/a	LTP210	ltpFR2	14	n/a	n/a	n/a	22	15	7	3	5
3721.114	n/a	PROB	1860557	n/a	LTP210	ltpFR2	14	n/a	n/a	n/a	22	20	8	3	9
3723.178	n/a	PROB	1861589	n/a	LTP210	ltpFR2	14	n/a	n/a	n/a	22	16	3	9	4
3725.774	n/a	PROB	1862887	n/a	LTP210	ltpFR2	14	n/a	n/a	n/a	22	12	1	3	8
3727.854	n/a	PROB	1863927	n/a	LTP210	ltpFR2	14	n/a	n/a	n/a	22	18	9	2	7
3729.61	n/a	STOP	1864805	n/a	LTP210	ltpFR2	14	n/a	n/a	n/a	22	n/a	n/a	n/a	n/a
3732.132	n/a	REC_START	1866066	n/a	LTP210	ltpFR2	14	14	n/a	n/a	n/a	n/a	0	0	0
3733.402	n/a	REC_WORD	1866701	wordpools/wasnorm_wordpool_576.txt	LTP210	ltpFR2	14	14	VENUS	1557	n/a	n/a	0	0	0
3736.054	n/a	REC_WORD	1868027	wordpools/wasnorm_wordpool_576.txt	LTP210	ltpFR2	14	14	RIVER	1194	n/a	n/a	0	0	0
3743.732	n/a	REC_WORD	1871866	wordpools/wasnorm_wordpool_576.txt	LTP210	ltpFR2	14	14	SEAGULL	1261	n/a	n/a	0	0	0
3746.192	n/a	REC_WORD	1873096	wordpools/wasnorm_wordpool_576.txt	LTP210	ltpFR2	14	14	SEAFOOD	1260	n/a	n/a	0	0	0
3748.48	n/a	REC_WORD	1874240	wordpools/wasnorm_wordpool_576.txt	LTP210	ltpFR2	14	14	CRAB	397	n/a	n/a	0	0	0
3750.798	n/a	REC_WORD	1875399	wordpools/wasnorm_wordpool_576.txt	LTP210	ltpFR2	14	14	SNAIL	1332	n/a	n/a	0	0	0
3769.1	n/a	REC_WORD	1884550	wordpools/wasnorm_wordpool_576.txt	LTP210	ltpFR2	14	14	KEEPER	769	n/a	n/a	0	0	0
3770.982	n/a	REC_WORD	1885491	wordpools/wasnorm_wordpool_576.txt	LTP210	ltpFR2	14	14	VIRUS	1572	n/a	n/a	0	0	0
3822.814	n/a	WORD	1911407	wordpools/wasnorm_wordpool_576.txt	LTP210	ltpFR2	14	15	CHEMIST	292	n/a	n/a	0	0	0
3825.394	n/a	WORD	1912697	wordpools/wasnorm_wordpool_576.txt	LTP210	ltpFR2	14	15	COURSE	390	n/a	n/a	0	0	0
3827.922	n/a	WORD	1913961	wordpools/wasnorm_wordpool_576.txt	LTP210	ltpFR2	14	15	CEILING	265	n/a	n/a	0	0	0
3830.418	n/a	WORD	1915209	wordpools/wasnorm_wordpool_576.txt	LTP210	ltpFR2	14	15	TWIG	1527	n/a	n/a	0	0	0
3832.982	n/a	WORD	1916491	wordpools/wasnorm_wordpool_576.txt	LTP210	ltpFR2	14	15	OYSTER	995	n/a	n/a	0	0	0
3835.626	n/a	WORD	1917813	wordpools/wasnorm_wordpool_576.txt	LTP210	ltpFR2	14	15	TUNNEL	1519	n/a	n/a	0	0	0
3838.19	n/a	WORD	1919095	wordpools/wasnorm_wordpool_576.txt	LTP210	ltpFR2	14	15	SUBWAY	1400	n/a	n/a	0	0	0
3840.904	n/a	WORD	1920452	wordpools/wasnorm_wordpool_576.txt	LTP210	ltpFR2	14	15	MUSTARD	935	n/a	n/a	0	0	0
3843.664	n/a	WORD	1921832	wordpools/wasnorm_wordpool_576.txt	LTP210	ltpFR2	14	15	PERMIT	1051	n/a	n/a	0	0	0
3846.428	n/a	WORD	1923214	wordpools/wasnorm_wordpool_576.txt	LTP210	ltpFR2	14	15	PATIENT	1024	n/a	n/a	0	0	0
3849.174	n/a	WORD	1924587	wordpools/wasnorm_wordpool_576.txt	LTP210	ltpFR2	14	15	HAWK	692	n/a	n/a	0	0	0
3851.652	n/a	WORD	1925826	wordpools/wasnorm_wordpool_576.txt	LTP210	ltpFR2	14	15	COSTUME	383	n/a	n/a	0	0	0
3854.168	n/a	WORD	1927084	wordpools/wasnorm_wordpool_576.txt	LTP210	ltpFR2	14	15	IGLOO	734	n/a	n/a	0	0	0
3856.898	n/a	WORD	1928449	wordpools/wasnorm_wordpool_576.txt	LTP210	ltpFR2	14	15	BROOK	177	n/a	n/a	0	0	0
3859.676	n/a	WORD	1929838	wordpools/wasnorm_wordpool_576.txt	LTP210	ltpFR2	14	15	MEDAL	885	n/a	n/a	0	0	0
3862.29	n/a	WORD	1931145	wordpools/wasnorm_wordpool_576.txt	LTP210	ltpFR2	14	15	STREAM	1392	n/a	n/a	0	0	0
3864.718	n/a	WORD	1932359	wordpools/wasnorm_wordpool_576.txt	LTP210	ltpFR2	14	15	PLAID	1080	n/a	n/a	0	0	0
3867.198	n/a	WORD	1933599	wordpools/wasnorm_wordpool_576.txt	LTP210	ltpFR2	14	15	AWARD	63	n/a	n/a	0	0	0
3869.96	n/a	WORD	1934980	wordpools/wasnorm_wordpool_576.txt	LTP210	ltpFR2	14	15	TOURIST	1488	n/a	n/a	0	0	0
3872.69	n/a	WORD	1936345	wordpools/wasnorm_wordpool_576.txt	LTP210	ltpFR2	14	15	LOFT	840	n/a	n/a	0	0	0
3875.336	n/a	WORD	1937668	wordpools/wasnorm_wordpool_576.txt	LTP210	ltpFR2	14	15	ELBOW	520	n/a	n/a	0	0	0
3877.916	n/a	WORD	1938958	wordpools/wasnorm_wordpool_576.txt	LTP210	ltpFR2	14	15	WRIST	1626	n/a	n/a	0	0	0
3880.61	n/a	WORD	1940305	wordpools/wasnorm_wordpool_576.txt	LTP210	ltpFR2	14	15	LUGGAGE	847	n/a	n/a	0	0	0
3883.108	n/a	WORD	1941554	wordpools/wasnorm_wordpool_576.txt	LTP210	ltpFR2	14	15	RACKET	1155	n/a	n/a	0	0	0
3884.722	n/a	START	1942361	n/a	LTP210	ltpFR2	14	n/a	n/a	n/a	23	n/a	n/a	n/a	n/a
3885.644	n/a	DISTRACTOR	1942822	n/a	LTP210	ltpFR2	14	15	n/a	n/a	n/a	n/a	0	0	0
3885.654	n/a	PROB	1942827	n/a	LTP210	ltpFR2	14	n/a	n/a	n/a	23	14	7	6	1
3887.434	n/a	PROB	1943717	n/a	LTP210	ltpFR2	14	n/a	n/a	n/a	23	15	3	9	3
3888.932	n/a	PROB	1944466	n/a	LTP210	ltpFR2	14	n/a	n/a	n/a	23	21	6	7	8
3891.61	n/a	PROB	1945805	n/a	LTP210	ltpFR2	14	n/a	n/a	n/a	23	21	5	8	8
3894.158	n/a	PROB	1947079	n/a	LTP210	ltpFR2	14	n/a	n/a	n/a	23	21	7	6	8
3896.172	n/a	PROB	1948086	n/a	LTP210	ltpFR2	14	n/a	n/a	n/a	23	12	4	1	7
3897.77	n/a	PROB	1948885	n/a	LTP210	ltpFR2	14	n/a	n/a	n/a	23	20	7	9	4
3900.132	n/a	PROB	1950066	n/a	LTP210	ltpFR2	14	n/a	n/a	n/a	23	11	2	1	8
3901.53	n/a	PROB	1950765	n/a	LTP210	ltpFR2	14	n/a	n/a	n/a	23	16	2	5	9
3903.078	n/a	PROB	1951539	n/a	LTP210	ltpFR2	14	n/a	n/a	n/a	23	24	6	9	9
3904.808	n/a	PROB	1952404	n/a	LTP210	ltpFR2	14	n/a	n/a	n/a	23	20	9	9	2
3908.722	n/a	STOP	1954361	n/a	LTP210	ltpFR2	14	n/a	n/a	n/a	23	n/a	n/a	n/a	n/a
3910.518	n/a	REC_START	1955259	n/a	LTP210	ltpFR2	14	15	n/a	n/a	n/a	n/a	0	0	0
3915.494	n/a	REC_WORD	1957747	wordpools/wasnorm_wordpool_576.txt	LTP210	ltpFR2	14	15	OYSTER	995	n/a	n/a	0	0	0
3920.546	n/a	REC_WORD	1960273	wordpools/wasnorm_wordpool_576.txt	LTP210	ltpFR2	14	15	CHEMIST	292	n/a	n/a	0	0	0
3922.752	n/a	REC_WORD	1961376	wordpools/wasnorm_wordpool_576.txt	LTP210	ltpFR2	14	15	COURSE	390	n/a	n/a	0	0	0
4001.2	n/a	WORD	2000600	wordpools/wasnorm_wordpool_576.txt	LTP210	ltpFR2	14	16	ANKLE	24	n/a	n/a	0	0	0
4003.814	n/a	WORD	2001907	wordpools/wasnorm_wordpool_576.txt	LTP210	ltpFR2	14	16	WARDROBE	1587	n/a	n/a	0	0	0
4006.46	n/a	WORD	2003230	wordpools/wasnorm_wordpool_576.txt	LTP210	ltpFR2	14	16	NOMAD	955	n/a	n/a	0	0	0
4009.088	n/a	WORD	2004544	wordpools/wasnorm_wordpool_576.txt	LTP210	ltpFR2	14	16	GAZELLE	628	n/a	n/a	0	0	0
4011.734	n/a	WORD	2005867	wordpools/wasnorm_wordpool_576.txt	LTP210	ltpFR2	14	16	PROTON	1132	n/a	n/a	0	0	0
4014.298	n/a	WORD	2007149	wordpools/wasnorm_wordpool_576.txt	LTP210	ltpFR2	14	16	POWDER	1117	n/a	n/a	0	0	0
4017.044	n/a	WORD	2008522	wordpools/wasnorm_wordpool_576.txt	LTP210	ltpFR2	14	16	DONOR	485	n/a	n/a	0	0	0
4019.556	n/a	WORD	2009778	wordpools/wasnorm_wordpool_576.txt	LTP210	ltpFR2	14	16	TRANSPLANT	1496	n/a	n/a	0	0	0
4022.02	n/a	WORD	2011010	wordpools/wasnorm_wordpool_576.txt	LTP210	ltpFR2	14	16	ZEBRA	1635	n/a	n/a	0	0	0
4024.566	n/a	WORD	2012283	wordpools/wasnorm_wordpool_576.txt	LTP210	ltpFR2	14	16	SALMON	1227	n/a	n/a	0	0	0
4027.046	n/a	WORD	2013523	wordpools/wasnorm_wordpool_576.txt	LTP210	ltpFR2	14	16	PARSLEY	1016	n/a	n/a	0	0	0
4029.508	n/a	WORD	2014754	wordpools/wasnorm_wordpool_576.txt	LTP210	ltpFR2	14	16	FLUTE	585	n/a	n/a	0	0	0
4031.954	n/a	WORD	2015977	wordpools/wasnorm_wordpool_576.txt	LTP210	ltpFR2	14	16	HANDBAG	684	n/a	n/a	0	0	0
4034.75	n/a	WORD	2017375	wordpools/wasnorm_wordpool_576.txt	LTP210	ltpFR2	14	16	KNAPSACK	783	n/a	n/a	0	0	0
4037.396	n/a	WORD	2018698	wordpools/wasnorm_wordpool_576.txt	LTP210	ltpFR2	14	16	CREATURE	403	n/a	n/a	0	0	0
4040.01	n/a	WORD	2020005	wordpools/wasnorm_wordpool_576.txt	LTP210	ltpFR2	14	16	SHARK	1275	n/a	n/a	0	0	0
4042.588	n/a	WORD	2021294	wordpools/wasnorm_wordpool_576.txt	LTP210	ltpFR2	14	16	PUPPY	1144	n/a	n/a	0	0	0
4045.334	n/a	WORD	2022667	wordpools/wasnorm_wordpool_576.txt	LTP210	ltpFR2	14	16	LION	827	n/a	n/a	0	0	0
4048.014	n/a	WORD	2024007	wordpools/wasnorm_wordpool_576.txt	LTP210	ltpFR2	14	16	PEACH	1031	n/a	n/a	0	0	0
4050.642	n/a	WORD	2025321	wordpools/wasnorm_wordpool_576.txt	LTP210	ltpFR2	14	16	PLATE	1086	n/a	n/a	0	0	0
4053.322	n/a	WORD	2026661	wordpools/wasnorm_wordpool_576.txt	LTP210	ltpFR2	14	16	GLASS	639	n/a	n/a	0	0	0
4056.134	n/a	WORD	2028067	wordpools/wasnorm_wordpool_576.txt	LTP210	ltpFR2	14	16	FIREMAN	569	n/a	n/a	0	0	0
4058.696	n/a	WORD	2029348	wordpools/wasnorm_wordpool_576.txt	LTP210	ltpFR2	14	16	SALAD	1224	n/a	n/a	0	0	0
4061.278	n/a	WORD	2030639	wordpools/wasnorm_wordpool_576.txt	LTP210	ltpFR2	14	16	BUREAU	199	n/a	n/a	0	0	0
4062.892	n/a	START	2031446	n/a	LTP210	ltpFR2	14	n/a	n/a	n/a	24	n/a	n/a	n/a	n/a
4063.696	n/a	DISTRACTOR	2031848	n/a	LTP210	ltpFR2	14	16	n/a	n/a	n/a	n/a	0	0	0
4063.706	n/a	PROB	2031853	n/a	LTP210	ltpFR2	14	n/a	n/a	n/a	24	19	9	1	9
4065.172	n/a	PROB	2032586	n/a	LTP210	ltpFR2	14	n/a	n/a	n/a	24	22	9	9	4
4066.52	n/a	PROB	2033260	n/a	LTP210	ltpFR2	14	n/a	n/a	n/a	24	18	4	9	5
4068.616	n/a	PROB	2034308	n/a	LTP210	ltpFR2	14	n/a	n/a	n/a	24	5	2	1	2
4069.848	n/a	PROB	2034924	n/a	LTP210	ltpFR2	14	n/a	n/a	n/a	24	12	1	7	4
4071.062	n/a	PROB	2035531	n/a	LTP210	ltpFR2	14	n/a	n/a	n/a	24	13	2	7	4
4073.776	n/a	PROB	2036888	n/a	LTP210	ltpFR2	14	n/a	n/a	n/a	24	13	6	2	5
4075.522	n/a	PROB	2037761	n/a	LTP210	ltpFR2	14	n/a	n/a	n/a	24	9	1	6	2
4076.772	n/a	PROB	2038386	n/a	LTP210	ltpFR2	14	n/a	n/a	n/a	24	16	6	8	2
4078.552	n/a	PROB	2039276	n/a	LTP210	ltpFR2	14	n/a	n/a	n/a	24	15	3	9	3
4080.05	n/a	PROB	2040025	n/a	LTP210	ltpFR2	14	n/a	n/a	n/a	24	12	6	1	5
4081.398	n/a	PROB	2040699	n/a	LTP210	ltpFR2	14	n/a	n/a	n/a	24	8	4	1	3
4082.73	n/a	PROB	2041365	n/a	LTP210	ltpFR2	14	n/a	n/a	n/a	24	14	2	9	3
4084.642	n/a	PROB	2042321	n/a	LTP210	ltpFR2	14	n/a	n/a	n/a	24	14	4	8	2
4085.88	n/a	STOP	2042940	n/a	LTP210	ltpFR2	14	n/a	n/a	n/a	24	n/a	n/a	n/a	n/a
4088.838	n/a	REC_START	2044419	n/a	LTP210	ltpFR2	14	16	n/a	n/a	n/a	n/a	0	0	0
4096.802	n/a	REC_WORD	2048401	wordpools/wasnorm_wordpool_576.txt	LTP210	ltpFR2	14	16	PROTON	1132	n/a	n/a	0	0	0
4101.352	n/a	REC_WORD	2050676	wordpools/wasnorm_wordpool_576.txt	LTP210	ltpFR2	14	16	PUPPY	1144	n/a	n/a	0	0	0
4103.32	n/a	REC_WORD	2051660	wordpools/wasnorm_wordpool_576.txt	LTP210	ltpFR2	14	16	SHARK	1275	n/a	n/a	0	0	0
4105.284	n/a	REC_WORD	2052642	wordpools/wasnorm_wordpool_576.txt	LTP210	ltpFR2	14	16	GAZELLE	628	n/a	n/a	0	0	0
4149.384	n/a	REC_WORD	2074692	wordpools/wasnorm_wordpool_576.txt	LTP210	ltpFR2	14	16	ANKLE	24	n/a	n/a	0	0	0
4165.474	n/a	REST_REWET	2082737	n/a	LTP210	ltpFR2	14	16	n/a	n/a	n/a	n/a	0	0	0
4462.634	n/a	DISTRACTOR	2231317	n/a	LTP210	ltpFR2	14	17	n/a	n/a	n/a	n/a	0	0	0
4462.634	n/a	START	2231317	n/a	LTP210	ltpFR2	14	n/a	n/a	n/a	25	n/a	n/a	n/a	n/a
4462.666	n/a	PROB	2231333	n/a	LTP210	ltpFR2	14	n/a	n/a	n/a	25	15	8	7	1
4464.048	n/a	PROB	2232024	n/a	LTP210	ltpFR2	14	n/a	n/a	n/a	25	18	9	4	5
4466.546	n/a	PROB	2233273	n/a	LTP210	ltpFR2	14	n/a	n/a	n/a	25	17	1	8	8
4468.142	n/a	PROB	2234071	n/a	LTP210	ltpFR2	14	n/a	n/a	n/a	25	6	2	3	1
4469.308	n/a	PROB	2234654	n/a	LTP210	ltpFR2	14	n/a	n/a	n/a	25	18	9	4	5
4471.372	n/a	PROB	2235686	n/a	LTP210	ltpFR2	14	n/a	n/a	n/a	25	10	6	2	2
4472.636	n/a	PROB	2236318	n/a	LTP210	ltpFR2	14	n/a	n/a	n/a	25	23	7	9	7
4474.632	n/a	PROB	2237316	n/a	LTP210	ltpFR2	14	n/a	n/a	n/a	25	14	6	4	4
4475.848	n/a	PROB	2237924	n/a	LTP210	ltpFR2	14	n/a	n/a	n/a	25	16	8	3	5
4477.446	n/a	PROB	2238723	n/a	LTP210	ltpFR2	14	n/a	n/a	n/a	25	19	4	8	7
4479.094	n/a	PROB	2239547	n/a	LTP210	ltpFR2	14	n/a	n/a	n/a	25	13	8	1	4
4480.69	n/a	PROB	2240345	n/a	LTP210	ltpFR2	14	n/a	n/a	n/a	25	11	4	4	3
4481.988	n/a	PROB	2240994	n/a	LTP210	ltpFR2	14	n/a	n/a	n/a	25	14	3	6	5
4483.436	n/a	PROB	2241718	n/a	LTP210	ltpFR2	14	n/a	n/a	n/a	25	7	2	2	3
4485.924	n/a	STOP	2242962	n/a	LTP210	ltpFR2	14	n/a	n/a	n/a	25	n/a	n/a	n/a	n/a
4487.564	n/a	WORD	2243782	wordpools/wasnorm_wordpool_576.txt	LTP210	ltpFR2	14	17	SHELF	1280	n/a	n/a	0	0	0
4490.11	n/a	WORD	2245055	wordpools/wasnorm_wordpool_576.txt	LTP210	ltpFR2	14	17	SHIRT	1287	n/a	n/a	0	0	0
4492.822	n/a	WORD	2246411	wordpools/wasnorm_wordpool_576.txt	LTP210	ltpFR2	14	17	BLOUSE	139	n/a	n/a	0	0	0
4495.518	n/a	WORD	2247759	wordpools/wasnorm_wordpool_576.txt	LTP210	ltpFR2	14	17	POET	1095	n/a	n/a	0	0	0
4498.314	n/a	WORD	2249157	wordpools/wasnorm_wordpool_576.txt	LTP210	ltpFR2	14	17	GIFT	635	n/a	n/a	0	0	0
4500.76	n/a	WORD	2250380	wordpools/wasnorm_wordpool_576.txt	LTP210	ltpFR2	14	17	CASHEW	253	n/a	n/a	0	0	0
4503.324	n/a	WORD	2251662	wordpools/wasnorm_wordpool_576.txt	LTP210	ltpFR2	14	17	CABBAGE	210	n/a	n/a	0	0	0
4506.052	n/a	WORD	2253026	wordpools/wasnorm_wordpool_576.txt	LTP210	ltpFR2	14	17	LETTUCE	814	n/a	n/a	0	0	0
4508.614	n/a	WORD	2254307	wordpools/wasnorm_wordpool_576.txt	LTP210	ltpFR2	14	17	WINDOW	1611	n/a	n/a	0	0	0
4511.412	n/a	WORD	2255706	wordpools/wasnorm_wordpool_576.txt	LTP210	ltpFR2	14	17	QUAIL	1147	n/a	n/a	0	0	0
4513.858	n/a	WORD	2256929	wordpools/wasnorm_wordpool_576.txt	LTP210	ltpFR2	14	17	COFFEE	341	n/a	n/a	0	0	0
4516.304	n/a	WORD	2258152	wordpools/wasnorm_wordpool_576.txt	LTP210	ltpFR2	14	17	JELLO	754	n/a	n/a	0	0	0
4519.0	n/a	WORD	2259500	wordpools/wasnorm_wordpool_576.txt	LTP210	ltpFR2	14	17	COMPASS	358	n/a	n/a	0	0	0
4521.678	n/a	WORD	2260839	wordpools/wasnorm_wordpool_576.txt	LTP210	ltpFR2	14	17	ATLAS	53	n/a	n/a	0	0	0
4524.376	n/a	WORD	2262188	wordpools/wasnorm_wordpool_576.txt	LTP210	ltpFR2	14	17	JOURNAL	760	n/a	n/a	0	0	0
4526.84	n/a	WORD	2263420	wordpools/wasnorm_wordpool_576.txt	LTP210	ltpFR2	14	17	CURTAIN	427	n/a	n/a	0	0	0
4529.436	n/a	WORD	2264718	wordpools/wasnorm_wordpool_576.txt	LTP210	ltpFR2	14	17	WAITER	1580	n/a	n/a	0	0	0
4532.066	n/a	WORD	2266033	wordpools/wasnorm_wordpool_576.txt	LTP210	ltpFR2	14	17	CAFE	216	n/a	n/a	0	0	0
4534.494	n/a	WORD	2267247	wordpools/wasnorm_wordpool_576.txt	LTP210	ltpFR2	14	17	GIRL	637	n/a	n/a	0	0	0
4537.04	n/a	WORD	2268520	wordpools/wasnorm_wordpool_576.txt	LTP210	ltpFR2	14	17	POPCORN	1104	n/a	n/a	0	0	0
4539.72	n/a	WORD	2269860	wordpools/wasnorm_wordpool_576.txt	LTP210	ltpFR2	14	17	CRIB	407	n/a	n/a	0	0	0
4542.532	n/a	WORD	2271266	wordpools/wasnorm_wordpool_576.txt	LTP210	ltpFR2	14	17	ULCER	1533	n/a	n/a	0	0	0
4545.162	n/a	WORD	2272581	wordpools/wasnorm_wordpool_576.txt	LTP210	ltpFR2	14	17	MAILMAN	858	n/a	n/a	0	0	0
4547.69	n/a	WORD	2273845	wordpools/wasnorm_wordpool_576.txt	LTP210	ltpFR2	14	17	VAGRANT	1544	n/a	n/a	0	0	0
4549.306	n/a	START	2274653	n/a	LTP210	ltpFR2	14	n/a	n/a	n/a	26	n/a	n/a	n/a	n/a
4550.222	n/a	DISTRACTOR	2275111	n/a	LTP210	ltpFR2	14	17	n/a	n/a	n/a	n/a	0	0	0
4550.238	n/a	PROB	2275119	n/a	LTP210	ltpFR2	14	n/a	n/a	n/a	26	17	5	5	7
4551.786	n/a	PROB	2275893	n/a	LTP210	ltpFR2	14	n/a	n/a	n/a	26	8	1	4	3
4553.216	n/a	PROB	2276608	n/a	LTP210	ltpFR2	14	n/a	n/a	n/a	26	13	5	3	5
4554.382	n/a	PROB	2277191	n/a	LTP210	ltpFR2	14	n/a	n/a	n/a	26	17	6	4	7
4555.78	n/a	PROB	2277890	n/a	LTP210	ltpFR2	14	n/a	n/a	n/a	26	19	5	8	6
4557.494	n/a	PROB	2278747	n/a	LTP210	ltpFR2	14	n/a	n/a	n/a	26	16	8	1	7
4558.942	n/a	PROB	2279471	n/a	LTP210	ltpFR2	14	n/a	n/a	n/a	26	15	9	1	5
4560.34	n/a	PROB	2280170	n/a	LTP210	ltpFR2	14	n/a	n/a	n/a	26	10	2	1	7
4561.97	n/a	PROB	2280985	n/a	LTP210	ltpFR2	14	n/a	n/a	n/a	26	12	4	4	4
4563.068	n/a	PROB	2281534	n/a	LTP210	ltpFR2	14	n/a	n/a	n/a	26	13	4	1	8
4564.5	n/a	PROB	2282250	n/a	LTP210	ltpFR2	14	n/a	n/a	n/a	26	5	2	1	2
4565.814	n/a	PROB	2282907	n/a	LTP210	ltpFR2	14	n/a	n/a	n/a	26	16	4	5	7
4568.128	n/a	PROB	2284064	n/a	LTP210	ltpFR2	14	n/a	n/a	n/a	26	9	1	3	5
4570.558	n/a	PROB	2285279	n/a	LTP210	ltpFR2	14	n/a	n/a	n/a	26	8	2	3	3
4571.966	n/a	STOP	2285983	n/a	LTP210	ltpFR2	14	n/a	n/a	n/a	26	n/a	n/a	n/a	n/a
4575.118	n/a	REC_START	2287559	n/a	LTP210	ltpFR2	14	17	n/a	n/a	n/a	n/a	0	0	0
4576.026	n/a	REC_WORD	2288013	wordpools/wasnorm_wordpool_576.txt	LTP210	ltpFR2	14	17	ULCER	1533	n/a	n/a	0	0	0
4580.396	n/a	REC_WORD	2290198	wordpools/wasnorm_wordpool_576.txt	LTP210	ltpFR2	14	17	SHIRT	1287	n/a	n/a	0	0	0
4582.096	n/a	REC_WORD	2291048	wordpools/wasnorm_wordpool_576.txt	LTP210	ltpFR2	14	17	BLOUSE	139	n/a	n/a	0	0	0
4592.408	n/a	REC_WORD	2296204	wordpools/wasnorm_wordpool_576.txt	LTP210	ltpFR2	14	17	WAITER	1580	n/a	n/a	0	0	0
4594.11	n/a	REC_WORD	2297055	wordpools/wasnorm_wordpool_576.txt	LTP210	ltpFR2	14	17	CAFE	216	n/a	n/a	0	0	0
4596.21	n/a	REC_WORD	2298105	wordpools/wasnorm_wordpool_576.txt	LTP210	ltpFR2	14	17	GIRL	637	n/a	n/a	0	0	0
4665.784	n/a	DISTRACTOR	2332892	n/a	LTP210	ltpFR2	14	18	n/a	n/a	n/a	n/a	0	0	0
4665.784	n/a	START	2332892	n/a	LTP210	ltpFR2	14	n/a	n/a	n/a	27	n/a	n/a	n/a	n/a
4665.816	n/a	PROB	2332908	n/a	LTP210	ltpFR2	14	n/a	n/a	n/a	27	18	4	8	6
4667.746	n/a	PROB	2333873	n/a	LTP210	ltpFR2	14	n/a	n/a	n/a	27	8	1	6	1
4668.962	n/a	PROB	2334481	n/a	LTP210	ltpFR2	14	n/a	n/a	n/a	27	4	1	1	2
4670.094	n/a	PROB	2335047	n/a	LTP210	ltpFR2	14	n/a	n/a	n/a	27	17	7	7	3
4671.324	n/a	PROB	2335662	n/a	LTP210	ltpFR2	14	n/a	n/a	n/a	27	14	3	6	5
4672.972	n/a	PROB	2336486	n/a	LTP210	ltpFR2	14	n/a	n/a	n/a	27	16	5	7	4
4674.788	n/a	PROB	2337394	n/a	LTP210	ltpFR2	14	n/a	n/a	n/a	27	5	1	2	2
4676.018	n/a	PROB	2338009	n/a	LTP210	ltpFR2	14	n/a	n/a	n/a	27	19	8	7	6
4678.548	n/a	PROB	2339274	n/a	LTP210	ltpFR2	14	n/a	n/a	n/a	27	21	8	6	7
4681.61	n/a	PROB	2340805	n/a	LTP210	ltpFR2	14	n/a	n/a	n/a	27	15	3	5	7
4683.656	n/a	PROB	2341828	n/a	LTP210	ltpFR2	14	n/a	n/a	n/a	27	24	9	6	9
4685.272	n/a	PROB	2342636	n/a	LTP210	ltpFR2	14	n/a	n/a	n/a	27	13	1	5	7
4687.436	n/a	PROB	2343718	n/a	LTP210	ltpFR2	14	n/a	n/a	n/a	27	15	7	3	5
4688.4	n/a	STOP	2344200	n/a	LTP210	ltpFR2	14	n/a	n/a	n/a	27	n/a	n/a	n/a	n/a
4691.014	n/a	WORD	2345507	wordpools/wasnorm_wordpool_576.txt	LTP210	ltpFR2	14	18	FRAGRANCE	599	n/a	n/a	0	0	0
4693.542	n/a	WORD	2346771	wordpools/wasnorm_wordpool_576.txt	LTP210	ltpFR2	14	18	KNIFE	785	n/a	n/a	0	0	0
4696.372	n/a	WORD	2348186	wordpools/wasnorm_wordpool_576.txt	LTP210	ltpFR2	14	18	DONKEY	484	n/a	n/a	0	0	0
4698.934	n/a	WORD	2349467	wordpools/wasnorm_wordpool_576.txt	LTP210	ltpFR2	14	18	DRIVER	499	n/a	n/a	0	0	0
4701.612	n/a	WORD	2350806	wordpools/wasnorm_wordpool_576.txt	LTP210	ltpFR2	14	18	ROD	1203	n/a	n/a	0	0	0
4704.176	n/a	WORD	2352088	wordpools/wasnorm_wordpool_576.txt	LTP210	ltpFR2	14	18	LIGHTNING	820	n/a	n/a	0	0	0
4706.688	n/a	WORD	2353344	wordpools/wasnorm_wordpool_576.txt	LTP210	ltpFR2	14	18	GALLON	618	n/a	n/a	0	0	0
4709.136	n/a	WORD	2354568	wordpools/wasnorm_wordpool_576.txt	LTP210	ltpFR2	14	18	STAR	1373	n/a	n/a	0	0	0
4711.932	n/a	WORD	2355966	wordpools/wasnorm_wordpool_576.txt	LTP210	ltpFR2	14	18	SLUG	1329	n/a	n/a	0	0	0
4714.528	n/a	WORD	2357264	wordpools/wasnorm_wordpool_576.txt	LTP210	ltpFR2	14	18	WAGON	1578	n/a	n/a	0	0	0
4717.074	n/a	WORD	2358537	wordpools/wasnorm_wordpool_576.txt	LTP210	ltpFR2	14	18	COMET	353	n/a	n/a	0	0	0
4719.52	n/a	WORD	2359760	wordpools/wasnorm_wordpool_576.txt	LTP210	ltpFR2	14	18	HOOD	714	n/a	n/a	0	0	0
4722.25	n/a	WORD	2361125	wordpools/wasnorm_wordpool_576.txt	LTP210	ltpFR2	14	18	FRECKLE	602	n/a	n/a	0	0	0
4724.696	n/a	WORD	2362348	wordpools/wasnorm_wordpool_576.txt	LTP210	ltpFR2	14	18	EAGLE	512	n/a	n/a	0	0	0
4727.358	n/a	WORD	2363679	wordpools/wasnorm_wordpool_576.txt	LTP210	ltpFR2	14	18	SPIDER	1351	n/a	n/a	0	0	0
4729.872	n/a	WORD	2364936	wordpools/wasnorm_wordpool_576.txt	LTP210	ltpFR2	14	18	BUG	187	n/a	n/a	0	0	0
4732.666	n/a	WORD	2366333	wordpools/wasnorm_wordpool_576.txt	LTP210	ltpFR2	14	18	WORLD	1622	n/a	n/a	0	0	0
4735.364	n/a	WORD	2367682	wordpools/wasnorm_wordpool_576.txt	LTP210	ltpFR2	14	18	TREAT	1501	n/a	n/a	0	0	0
4737.794	n/a	WORD	2368897	wordpools/wasnorm_wordpool_576.txt	LTP210	ltpFR2	14	18	INMATE	738	n/a	n/a	0	0	0
4740.472	n/a	WORD	2370236	wordpools/wasnorm_wordpool_576.txt	LTP210	ltpFR2	14	18	BOYFRIEND	162	n/a	n/a	0	0	0
4743.236	n/a	WORD	2371618	wordpools/wasnorm_wordpool_576.txt	LTP210	ltpFR2	14	18	PADDING	999	n/a	n/a	0	0	0
4745.948	n/a	WORD	2372974	wordpools/wasnorm_wordpool_576.txt	LTP210	ltpFR2	14	18	HIKER	708	n/a	n/a	0	0	0
4748.444	n/a	WORD	2374222	wordpools/wasnorm_wordpool_576.txt	LTP210	ltpFR2	14	18	CABIN	211	n/a	n/a	0	0	0
4750.992	n/a	WORD	2375496	wordpools/wasnorm_wordpool_576.txt	LTP210	ltpFR2	14	18	LODGE	839	n/a	n/a	0	0	0
4752.604	n/a	START	2376302	n/a	LTP210	ltpFR2	14	n/a	n/a	n/a	28	n/a	n/a	n/a	n/a
4753.456	n/a	DISTRACTOR	2376728	n/a	LTP210	ltpFR2	14	18	n/a	n/a	n/a	n/a	0	0	0
4753.47	n/a	PROB	2376735	n/a	LTP210	ltpFR2	14	n/a	n/a	n/a	28	17	9	5	3
4755.402	n/a	PROB	2377701	n/a	LTP210	ltpFR2	14	n/a	n/a	n/a	28	14	6	4	4
4756.666	n/a	PROB	2378333	n/a	LTP210	ltpFR2	14	n/a	n/a	n/a	28	10	3	2	5
4758.13	n/a	PROB	2379065	n/a	LTP210	ltpFR2	14	n/a	n/a	n/a	28	12	4	2	6
4759.346	n/a	PROB	2379673	n/a	LTP210	ltpFR2	14	n/a	n/a	n/a	28	21	6	7	8
4761.526	n/a	PROB	2380763	n/a	LTP210	ltpFR2	14	n/a	n/a	n/a	28	14	3	9	2
4763.124	n/a	PROB	2381562	n/a	LTP210	ltpFR2	14	n/a	n/a	n/a	28	16	6	3	7
4764.322	n/a	PROB	2382161	n/a	LTP210	ltpFR2	14	n/a	n/a	n/a	28	21	9	9	3
4765.586	n/a	PROB	2382793	n/a	LTP210	ltpFR2	14	n/a	n/a	n/a	28	18	8	1	9
4766.834	n/a	PROB	2383417	n/a	LTP210	ltpFR2	14	n/a	n/a	n/a	28	12	1	8	3
4768.764	n/a	PROB	2384382	n/a	LTP210	ltpFR2	14	n/a	n/a	n/a	28	8	3	3	2
4770.312	n/a	PROB	2385156	n/a	LTP210	ltpFR2	14	n/a	n/a	n/a	28	16	8	6	2
4771.876	n/a	PROB	2385938	n/a	LTP210	ltpFR2	14	n/a	n/a	n/a	28	13	2	8	3
4773.606	n/a	PROB	2386803	n/a	LTP210	ltpFR2	14	n/a	n/a	n/a	28	4	1	1	2
4775.352	n/a	STOP	2387676	n/a	LTP210	ltpFR2	14	n/a	n/a	n/a	28	n/a	n/a	n/a	n/a
4778.418	n/a	REC_START	2389209	n/a	LTP210	ltpFR2	14	18	n/a	n/a	n/a	n/a	0	0	0
4780.536	n/a	REC_WORD	2390268	wordpools/wasnorm_wordpool_576.txt	LTP210	ltpFR2	14	18	LIGHTNING	820	n/a	n/a	0	0	0
4782.216	n/a	REC_WORD	2391108	wordpools/wasnorm_wordpool_576.txt	LTP210	ltpFR2	14	18	ROD	1203	n/a	n/a	0	0	0
4794.45	n/a	REC_WORD	2397225	wordpools/wasnorm_wordpool_576.txt	LTP210	ltpFR2	14	18	COFFEE	341	n/a	n/a	0	0	0
4823.93	n/a	REC_WORD	2411965	wordpools/wasnorm_wordpool_576.txt	LTP210	ltpFR2	14	18	EAGLE	512	n/a	n/a	0	0	0
4869.066	n/a	DISTRACTOR	2434533	n/a	LTP210	ltpFR2	14	19	n/a	n/a	n/a	n/a	0	0	0
4869.066	n/a	START	2434533	n/a	LTP210	ltpFR2	14	n/a	n/a	n/a	29	n/a	n/a	n/a	n/a
4869.1	n/a	PROB	2434550	n/a	LTP210	ltpFR2	14	n/a	n/a	n/a	29	11	1	6	4
4870.264	n/a	PROB	2435132	n/a	LTP210	ltpFR2	14	n/a	n/a	n/a	29	14	7	2	5
4871.912	n/a	PROB	2435956	n/a	LTP210	ltpFR2	14	n/a	n/a	n/a	29	20	9	5	6
4873.51	n/a	PROB	2436755	n/a	LTP210	ltpFR2	14	n/a	n/a	n/a	29	7	2	2	3
4875.29	n/a	PROB	2437645	n/a	LTP210	ltpFR2	14	n/a	n/a	n/a	29	15	2	9	4
4877.354	n/a	PROB	2438677	n/a	LTP210	ltpFR2	14	n/a	n/a	n/a	29	13	2	5	6
4878.768	n/a	PROB	2439384	n/a	LTP210	ltpFR2	14	n/a	n/a	n/a	29	9	1	7	1
4879.95	n/a	PROB	2439975	n/a	LTP210	ltpFR2	14	n/a	n/a	n/a	29	17	3	7	7
4881.198	n/a	PROB	2440599	n/a	LTP210	ltpFR2	14	n/a	n/a	n/a	29	25	7	9	9
4882.912	n/a	PROB	2441456	n/a	LTP210	ltpFR2	14	n/a	n/a	n/a	29	18	7	9	2
4885.042	n/a	PROB	2442521	n/a	LTP210	ltpFR2	14	n/a	n/a	n/a	29	13	6	2	5
4887.022	n/a	PROB	2443511	n/a	LTP210	ltpFR2	14	n/a	n/a	n/a	29	15	3	9	3
4888.536	n/a	PROB	2444268	n/a	LTP210	ltpFR2	14	n/a	n/a	n/a	29	18	7	3	8
4889.802	n/a	PROB	2444901	n/a	LTP210	ltpFR2	14	n/a	n/a	n/a	29	8	2	4	2
4891.05	n/a	PROB	2445525	n/a	LTP210	ltpFR2	14	n/a	n/a	n/a	29	12	2	1	9
4892.098	n/a	STOP	2446049	n/a	LTP210	ltpFR2	14	n/a	n/a	n/a	29	n/a	n/a	n/a	n/a
4894.228	n/a	WORD	2447114	wordpools/wasnorm_wordpool_576.txt	LTP210	ltpFR2	14	19	POSTAGE	1113	n/a	n/a	0	0	0
4896.674	n/a	WORD	2448337	wordpools/wasnorm_wordpool_576.txt	LTP210	ltpFR2	14	19	BURGLAR	200	n/a	n/a	0	0	0
4899.456	n/a	WORD	2449728	wordpools/wasnorm_wordpool_576.txt	LTP210	ltpFR2	14	19	MAMMAL	861	n/a	n/a	0	0	0
4901.902	n/a	WORD	2450951	wordpools/wasnorm_wordpool_576.txt	LTP210	ltpFR2	14	19	FOX	598	n/a	n/a	0	0	0
4904.43	n/a	WORD	2452215	wordpools/wasnorm_wordpool_576.txt	LTP210	ltpFR2	14	19	NURSE	963	n/a	n/a	0	0	0
4906.86	n/a	WORD	2453430	wordpools/wasnorm_wordpool_576.txt	LTP210	ltpFR2	14	19	MEAT	883	n/a	n/a	0	0	0
4909.374	n/a	WORD	2454687	wordpools/wasnorm_wordpool_576.txt	LTP210	ltpFR2	14	19	GRILL	661	n/a	n/a	0	0	0
4911.854	n/a	WORD	2455927	wordpools/wasnorm_wordpool_576.txt	LTP210	ltpFR2	14	19	SLIME	1327	n/a	n/a	0	0	0
4914.614	n/a	WORD	2457307	wordpools/wasnorm_wordpool_576.txt	LTP210	ltpFR2	14	19	ONION	977	n/a	n/a	0	0	0
4917.262	n/a	WORD	2458631	wordpools/wasnorm_wordpool_576.txt	LTP210	ltpFR2	14	19	APPLE	33	n/a	n/a	0	0	0
4919.792	n/a	WORD	2459896	wordpools/wasnorm_wordpool_576.txt	LTP210	ltpFR2	14	19	DRILL	497	n/a	n/a	0	0	0
4922.454	n/a	WORD	2461227	wordpools/wasnorm_wordpool_576.txt	LTP210	ltpFR2	14	19	TRACTOR	1493	n/a	n/a	0	0	0
4925.234	n/a	WORD	2462617	wordpools/wasnorm_wordpool_576.txt	LTP210	ltpFR2	14	19	YARN	1631	n/a	n/a	0	0	0
4927.812	n/a	WORD	2463906	wordpools/wasnorm_wordpool_576.txt	LTP210	ltpFR2	14	19	COUSIN	392	n/a	n/a	0	0	0
4930.308	n/a	WORD	2465154	wordpools/wasnorm_wordpool_576.txt	LTP210	ltpFR2	14	19	BARREL	91	n/a	n/a	0	0	0
4933.104	n/a	WORD	2466552	wordpools/wasnorm_wordpool_576.txt	LTP210	ltpFR2	14	19	HAND	683	n/a	n/a	0	0	0
4935.9	n/a	WORD	2467950	wordpools/wasnorm_wordpool_576.txt	LTP210	ltpFR2	14	19	SHOULDER	1294	n/a	n/a	0	0	0
4938.596	n/a	WORD	2469298	wordpools/wasnorm_wordpool_576.txt	LTP210	ltpFR2	14	19	OX	994	n/a	n/a	0	0	0
4941.042	n/a	WORD	2470521	wordpools/wasnorm_wordpool_576.txt	LTP210	ltpFR2	14	19	BANJO	82	n/a	n/a	0	0	0
4943.772	n/a	WORD	2471886	wordpools/wasnorm_wordpool_576.txt	LTP210	ltpFR2	14	19	MILDEW	893	n/a	n/a	0	0	0
4946.352	n/a	WORD	2473176	wordpools/wasnorm_wordpool_576.txt	LTP210	ltpFR2	14	19	GRAVE	658	n/a	n/a	0	0	0
4948.932	n/a	WORD	2474466	wordpools/wasnorm_wordpool_576.txt	LTP210	ltpFR2	14	19	BUNNY	198	n/a	n/a	0	0	0
4951.41	n/a	WORD	2475705	wordpools/wasnorm_wordpool_576.txt	LTP210	ltpFR2	14	19	RABBIT	1152	n/a	n/a	0	0	0
4954.074	n/a	WORD	2477037	wordpools/wasnorm_wordpool_576.txt	LTP210	ltpFR2	14	19	MAILBOX	857	n/a	n/a	0	0	0
4955.686	n/a	START	2477843	n/a	LTP210	ltpFR2	14	n/a	n/a	n/a	30	n/a	n/a	n/a	n/a
4956.554	n/a	DISTRACTOR	2478277	n/a	LTP210	ltpFR2	14	19	n/a	n/a	n/a	n/a	0	0	0
4956.57	n/a	PROB	2478285	n/a	LTP210	ltpFR2	14	n/a	n/a	n/a	30	12	5	5	2
4958.134	n/a	PROB	2479067	n/a	LTP210	ltpFR2	14	n/a	n/a	n/a	30	9	4	3	2
4960.032	n/a	PROB	2480016	n/a	LTP210	ltpFR2	14	n/a	n/a	n/a	30	19	7	8	4
4962.144	n/a	PROB	2481072	n/a	LTP210	ltpFR2	14	n/a	n/a	n/a	30	13	3	5	5
4963.442	n/a	PROB	2481721	n/a	LTP210	ltpFR2	14	n/a	n/a	n/a	30	13	9	2	2
4965.024	n/a	PROB	2482512	n/a	LTP210	ltpFR2	14	n/a	n/a	n/a	30	14	5	8	1
4967.004	n/a	PROB	2483502	n/a	LTP210	ltpFR2	14	n/a	n/a	n/a	30	17	3	8	6
4969.034	n/a	PROB	2484517	n/a	LTP210	ltpFR2	14	n/a	n/a	n/a	30	17	3	6	8
4971.73	n/a	PROB	2485865	n/a	LTP210	ltpFR2	14	n/a	n/a	n/a	30	18	5	6	7
4973.794	n/a	PROB	2486897	n/a	LTP210	ltpFR2	14	n/a	n/a	n/a	30	8	4	3	1
4975.176	n/a	PROB	2487588	n/a	LTP210	ltpFR2	14	n/a	n/a	n/a	30	21	6	6	9
4976.774	n/a	PROB	2488387	n/a	LTP210	ltpFR2	14	n/a	n/a	n/a	30	7	1	1	5
4978.006	n/a	PROB	2489003	n/a	LTP210	ltpFR2	14	n/a	n/a	n/a	30	19	8	5	6
4979.564	n/a	STOP	2489782	n/a	LTP210	ltpFR2	14	n/a	n/a	n/a	30	n/a	n/a	n/a	n/a
4981.484	n/a	REC_START	2490742	n/a	LTP210	ltpFR2	14	19	n/a	n/a	n/a	n/a	0	0	0
4982.346	n/a	REC_WORD	2491173	wordpools/wasnorm_wordpool_576.txt	LTP210	ltpFR2	14	19	POSTAGE	1113	n/a	n/a	0	0	0
4984.142	n/a	REC_WORD	2492071	wordpools/wasnorm_wordpool_576.txt	LTP210	ltpFR2	14	19	MAILBOX	857	n/a	n/a	0	0	0
4986.11	n/a	REC_WORD	2493055	wordpools/wasnorm_wordpool_576.txt	LTP210	ltpFR2	14	19	GRAVE	658	n/a	n/a	0	0	0
4987.796	n/a	REC_WORD	2493898	wordpools/wasnorm_wordpool_576.txt	LTP210	ltpFR2	14	19	BUNNY	198	n/a	n/a	0	0	0
4989.502	n/a	REC_WORD	2494751	wordpools/wasnorm_wordpool_576.txt	LTP210	ltpFR2	14	19	RABBIT	1152	n/a	n/a	0	0	0
5001.694	n/a	REC_WORD	2500847	wordpools/wasnorm_wordpool_576.txt	LTP210	ltpFR2	14	19	DRILL	497	n/a	n/a	0	0	0
5072.166	n/a	DISTRACTOR	2536083	n/a	LTP210	ltpFR2	14	20	n/a	n/a	n/a	n/a	0	0	0
5072.166	n/a	START	2536083	n/a	LTP210	ltpFR2	14	n/a	n/a	n/a	31	n/a	n/a	n/a	n/a
5072.2	n/a	PROB	2536100	n/a	LTP210	ltpFR2	14	n/a	n/a	n/a	31	20	8	9	3
5073.68	n/a	PROB	2536840	n/a	LTP210	ltpFR2	14	n/a	n/a	n/a	31	13	7	3	3
5074.796	n/a	PROB	2537398	n/a	LTP210	ltpFR2	14	n/a	n/a	n/a	31	20	7	4	9
5076.126	n/a	PROB	2538063	n/a	LTP210	ltpFR2	14	n/a	n/a	n/a	31	14	1	4	9
5077.508	n/a	PROB	2538754	n/a	LTP210	ltpFR2	14	n/a	n/a	n/a	31	18	8	3	7
5078.79	n/a	PROB	2539395	n/a	LTP210	ltpFR2	14	n/a	n/a	n/a	31	14	2	7	5
5081.086	n/a	PROB	2540543	n/a	LTP210	ltpFR2	14	n/a	n/a	n/a	31	11	3	6	2
5082.682	n/a	PROB	2541341	n/a	LTP210	ltpFR2	14	n/a	n/a	n/a	31	23	9	5	9
5084.264	n/a	PROB	2542132	n/a	LTP210	ltpFR2	14	n/a	n/a	n/a	31	18	4	7	7
5085.962	n/a	PROB	2542981	n/a	LTP210	ltpFR2	14	n/a	n/a	n/a	31	16	2	7	7
5087.642	n/a	PROB	2543821	n/a	LTP210	ltpFR2	14	n/a	n/a	n/a	31	17	5	4	8
5089.356	n/a	PROB	2544678	n/a	LTP210	ltpFR2	14	n/a	n/a	n/a	31	17	4	5	8
5091.004	n/a	PROB	2545502	n/a	LTP210	ltpFR2	14	n/a	n/a	n/a	31	17	7	6	4
5092.336	n/a	PROB	2546168	n/a	LTP210	ltpFR2	14	n/a	n/a	n/a	31	19	3	7	9
5093.568	n/a	PROB	2546784	n/a	LTP210	ltpFR2	14	n/a	n/a	n/a	31	23	8	8	7
5095.782	n/a	STOP	2547891	n/a	LTP210	ltpFR2	14	n/a	n/a	n/a	31	n/a	n/a	n/a	n/a
5097.312	n/a	WORD	2548656	wordpools/wasnorm_wordpool_576.txt	LTP210	ltpFR2	14	20	DOUGHNUT	490	n/a	n/a	0	0	0
5099.758	n/a	WORD	2549879	wordpools/wasnorm_wordpool_576.txt	LTP210	ltpFR2	14	20	HORNET	718	n/a	n/a	0	0	0
5102.27	n/a	WORD	2551135	wordpools/wasnorm_wordpool_576.txt	LTP210	ltpFR2	14	20	HATCHET	691	n/a	n/a	0	0	0
5104.868	n/a	WORD	2552434	wordpools/wasnorm_wordpool_576.txt	LTP210	ltpFR2	14	20	JAPAN	749	n/a	n/a	0	0	0
5107.514	n/a	WORD	2553757	wordpools/wasnorm_wordpool_576.txt	LTP210	ltpFR2	14	20	SCULPTURE	1258	n/a	n/a	0	0	0
5110.176	n/a	WORD	2555088	wordpools/wasnorm_wordpool_576.txt	LTP210	ltpFR2	14	20	OUTFIT	988	n/a	n/a	0	0	0
5112.838	n/a	WORD	2556419	wordpools/wasnorm_wordpool_576.txt	LTP210	ltpFR2	14	20	WIFE	1609	n/a	n/a	0	0	0
5115.65	n/a	WORD	2557825	wordpools/wasnorm_wordpool_576.txt	LTP210	ltpFR2	14	20	POLICE	1098	n/a	n/a	0	0	0
5118.248	n/a	WORD	2559124	wordpools/wasnorm_wordpool_576.txt	LTP210	ltpFR2	14	20	SIDEWALK	1303	n/a	n/a	0	0	0
5121.01	n/a	WORD	2560505	wordpools/wasnorm_wordpool_576.txt	LTP210	ltpFR2	14	20	GRAVEL	659	n/a	n/a	0	0	0
5123.506	n/a	WORD	2561753	wordpools/wasnorm_wordpool_576.txt	LTP210	ltpFR2	14	20	HIGHWAY	707	n/a	n/a	0	0	0
5126.136	n/a	WORD	2563068	wordpools/wasnorm_wordpool_576.txt	LTP210	ltpFR2	14	20	PISTON	1076	n/a	n/a	0	0	0
5128.782	n/a	WORD	2564391	wordpools/wasnorm_wordpool_576.txt	LTP210	ltpFR2	14	20	GUARD	667	n/a	n/a	0	0	0
5131.396	n/a	WORD	2565698	wordpools/wasnorm_wordpool_576.txt	LTP210	ltpFR2	14	20	ASIA	46	n/a	n/a	0	0	0
5133.874	n/a	WORD	2566937	wordpools/wasnorm_wordpool_576.txt	LTP210	ltpFR2	14	20	PARROT	1015	n/a	n/a	0	0	0
5136.504	n/a	WORD	2568252	wordpools/wasnorm_wordpool_576.txt	LTP210	ltpFR2	14	20	CHILD	299	n/a	n/a	0	0	0
