onset	duration	trial_type	sample	stim_file	subject	experiment	session	trial	task	item_name	item_num	recog_resp	recog_conf	resp	color_r	color_g	color_b	case	font
231.504	n/a	SESS_START	115752	n/a	LTP102	ltpFR	17	n/a	n/a	n/a	n/a	0	5	n/a	n/a	n/a	n/a	n/a	n/a
314.026	n/a	WORD	157013	wordpools/wasnorm_wordpool.txt	LTP102	ltpFR	17	1	1	BELT	120	1	4	0	0.422607421875	0.5869140625	0	lower	zerothre.ttf
317.876	n/a	WORD	158938	wordpools/wasnorm_wordpool.txt	LTP102	ltpFR	17	1	1	CHURCH	307	0	n/a	0	0.422607421875	0.5869140625	0	lower	zerothre.ttf
321.926	n/a	WORD	160963	wordpools/wasnorm_wordpool.txt	LTP102	ltpFR	17	1	1	DINER	467	n/a	n/a	0	0.422607421875	0.5869140625	0	lower	zerothre.ttf
326.018	n/a	WORD	163009	wordpools/wasnorm_wordpool.txt	LTP102	ltpFR	17	1	0	ZOO	1637	n/a	n/a	1	0.57763671875	0.412841796875	1	upper	amplitud.ttf
330.168	n/a	WORD	165084	wordpools/wasnorm_wordpool.txt	LTP102	ltpFR	17	1	0	HORSE	719	n/a	n/a	1	0.57763671875	0.412841796875	1	upper	amplitud.ttf
334.316	n/a	WORD	167158	wordpools/wasnorm_wordpool.txt	LTP102	ltpFR	17	1	0	BIRD	129	n/a	n/a	1	0.57763671875	0.412841796875	1	upper	amplitud.ttf
338.218	n/a	WORD	169109	wordpools/wasnorm_wordpool.txt	LTP102	ltpFR	17	1	0	SWAN	1417	n/a	n/a	1	0.57763671875	0.412841796875	1	upper	amplitud.ttf
342.276	n/a	WORD	171138	wordpools/wasnorm_wordpool.txt	LTP102	ltpFR	17	1	0	WHEAT	1602	n/a	n/a	0	0.57763671875	0.412841796875	1	upper	amplitud.ttf
346.366	n/a	WORD	173183	wordpools/wasnorm_wordpool.txt	LTP102	ltpFR	17	1	0	POWDER	1117	n/a	n/a	0	0.57763671875	0.412841796875	1	upper	amplitud.ttf
350.242	n/a	WORD	175121	wordpools/wasnorm_wordpool.txt	LTP102	ltpFR	17	1	1	TEMPLE	1448	n/a	n/a	0	0.422607421875	0.5869140625	0	lower	zerothre.ttf
354.218	n/a	WORD	177109	wordpools/wasnorm_wordpool.txt	LTP102	ltpFR	17	1	1	KING	777	n/a	n/a	1	0.422607421875	0.5869140625	0	lower	zerothre.ttf
358.06	n/a	WORD	179030	wordpools/wasnorm_wordpool.txt	LTP102	ltpFR	17	1	1	MOAT	903	n/a	n/a	0	0.422607421875	0.5869140625	0	lower	zerothre.ttf
361.984	n/a	WORD	180992	wordpools/wasnorm_wordpool.txt	LTP102	ltpFR	17	1	1	PUCK	1138	n/a	n/a	0	0.422607421875	0.5869140625	0	lower	zerothre.ttf
366.008	n/a	WORD	183004	wordpools/wasnorm_wordpool.txt	LTP102	ltpFR	17	1	1	THORN	1459	n/a	n/a	0	0.422607421875	0.5869140625	0	lower	zerothre.ttf
370.166	n/a	WORD	185083	wordpools/wasnorm_wordpool.txt	LTP102	ltpFR	17	1	0	WAITER	1580	n/a	n/a	1	0.57763671875	0.412841796875	1	upper	amplitud.ttf
374.25	n/a	WORD	187125	wordpools/wasnorm_wordpool.txt	LTP102	ltpFR	17	1	0	BABY	64	n/a	n/a	0	0.57763671875	0.412841796875	1	upper	amplitud.ttf
380.06	n/a	REC_START	190030	n/a	LTP102	ltpFR	17	1	n/a	n/a	n/a	n/a	n/a	n/a	n/a	n/a	n/a	n/a	n/a
381.85	n/a	REC_WORD	190925	wordpools/wasnorm_wordpool.txt	LTP102	ltpFR	17	1	0	BABY	64	n/a	n/a	0	n/a	n/a	n/a	n/a	n/a
383.582	n/a	REC_WORD	191791	wordpools/wasnorm_wordpool.txt	LTP102	ltpFR	17	1	1	TEMPLE	1448	n/a	n/a	0	n/a	n/a	n/a	n/a	n/a
385.986	n/a	REC_WORD	192993	wordpools/wasnorm_wordpool.txt	LTP102	ltpFR	17	1	0	HORSE	719	n/a	n/a	1	n/a	n/a	n/a	n/a	n/a
389.962	n/a	REC_WORD	194981	wordpools/wasnorm_wordpool.txt	LTP102	ltpFR	17	1	0	SWAN	1417	n/a	n/a	1	n/a	n/a	n/a	n/a	n/a
391.738	n/a	REC_WORD	195869	wordpools/wasnorm_wordpool.txt	LTP102	ltpFR	17	1	0	BIRD	129	n/a	n/a	1	n/a	n/a	n/a	n/a	n/a
394.212	n/a	REC_WORD_VV	197106	wordpools/wasnorm_wordpool.txt	LTP102	ltpFR	17	1	n/a	<>	-1	n/a	n/a	n/a	n/a	n/a	n/a	n/a	n/a
395.436	n/a	REC_WORD	197718	wordpools/wasnorm_wordpool.txt	LTP102	ltpFR	17	1	0	BABY	64	n/a	n/a	0	n/a	n/a	n/a	n/a	n/a
397.686	n/a	REC_WORD	198843	wordpools/wasnorm_wordpool.txt	LTP102	ltpFR	17	1	1	MOAT	903	n/a	n/a	0	n/a	n/a	n/a	n/a	n/a
398.988	n/a	REC_WORD	199494	wordpools/wasnorm_wordpool.txt	LTP102	ltpFR	17	1	0	POWDER	1117	n/a	n/a	0	n/a	n/a	n/a	n/a	n/a
400.658	n/a	REC_WORD	200329	wordpools/wasnorm_wordpool.txt	LTP102	ltpFR	17	1	0	WHEAT	1602	n/a	n/a	0	n/a	n/a	n/a	n/a	n/a
402.43	n/a	REC_WORD	201215	wordpools/wasnorm_wordpool.txt	LTP102	ltpFR	17	1	n/a	WAITRESS	1581	n/a	n/a	n/a	n/a	n/a	n/a	n/a	n/a
405.234	n/a	REC_WORD	202617	wordpools/wasnorm_wordpool.txt	LTP102	ltpFR	17	1	1	KING	777	n/a	n/a	1	n/a	n/a	n/a	n/a	n/a
408.82	n/a	REC_WORD	204410	wordpools/wasnorm_wordpool.txt	LTP102	ltpFR	17	1	1	BELT	120	n/a	n/a	0	n/a	n/a	n/a	n/a	n/a
412.168	n/a	REC_WORD	206084	wordpools/wasnorm_wordpool.txt	LTP102	ltpFR	17	1	1	MOAT	903	n/a	n/a	0	n/a	n/a	n/a	n/a	n/a
416.654	n/a	REC_WORD	208327	wordpools/wasnorm_wordpool.txt	LTP102	ltpFR	17	1	1	BELT	120	n/a	n/a	0	n/a	n/a	n/a	n/a	n/a
426.316	n/a	REC_WORD	213158	wordpools/wasnorm_wordpool.txt	LTP102	ltpFR	17	1	n/a	BALL	73	n/a	n/a	n/a	n/a	n/a	n/a	n/a	n/a
430.262	n/a	REC_WORD	215131	wordpools/wasnorm_wordpool.txt	LTP102	ltpFR	17	1	0	BABY	64	n/a	n/a	0	n/a	n/a	n/a	n/a	n/a
438.08	n/a	REC_WORD	219040	wordpools/wasnorm_wordpool.txt	LTP102	ltpFR	17	1	0	BIRD	129	n/a	n/a	1	n/a	n/a	n/a	n/a	n/a
444.56	n/a	REC_WORD	222280	wordpools/wasnorm_wordpool.txt	LTP102	ltpFR	17	1	1	KING	777	n/a	n/a	1	n/a	n/a	n/a	n/a	n/a
452.228	n/a	REC_WORD	226114	wordpools/wasnorm_wordpool.txt	LTP102	ltpFR	17	1	n/a	GLUTEN	-1	n/a	n/a	n/a	n/a	n/a	n/a	n/a	n/a
466.422	n/a	WORD	233211	wordpools/wasnorm_wordpool.txt	LTP102	ltpFR	17	2	0	MOTOR	922	n/a	n/a	1	0.57763671875	0.412841796875	1	upper	amplitud.ttf
470.24	n/a	WORD	235120	wordpools/wasnorm_wordpool.txt	LTP102	ltpFR	17	2	0	BATTERY	101	n/a	n/a	0	0.57763671875	0.412841796875	1	upper	amplitud.ttf
474.306	n/a	WORD	237153	wordpools/wasnorm_wordpool.txt	LTP102	ltpFR	17	2	0	FRAGRANCE	599	n/a	n/a	0	0.57763671875	0.412841796875	1	upper	amplitud.ttf
478.322	n/a	WORD	239161	wordpools/wasnorm_wordpool.txt	LTP102	ltpFR	17	2	0	GANG	619	n/a	n/a	1	0.57763671875	0.412841796875	1	upper	amplitud.ttf
482.504	n/a	WORD	241252	wordpools/wasnorm_wordpool.txt	LTP102	ltpFR	17	2	0	GRAVEL	659	n/a	n/a	0	0.57763671875	0.412841796875	1	upper	amplitud.ttf
486.622	n/a	WORD	243311	wordpools/wasnorm_wordpool.txt	LTP102	ltpFR	17	2	0	RAIL	1161	n/a	n/a	1	0.57763671875	0.412841796875	1	upper	amplitud.ttf
490.57	n/a	WORD	245285	wordpools/wasnorm_wordpool.txt	LTP102	ltpFR	17	2	1	CIGAR	308	n/a	n/a	1	0.422607421875	0.5869140625	0	lower	zerothre.ttf
494.388	n/a	WORD	247194	wordpools/wasnorm_wordpool.txt	LTP102	ltpFR	17	2	1	TOAD	1470	n/a	n/a	1	0.422607421875	0.5869140625	0	lower	zerothre.ttf
498.472	n/a	WORD	249236	wordpools/wasnorm_wordpool.txt	LTP102	ltpFR	17	2	1	TRIGGER	1507	n/a	n/a	0	0.422607421875	0.5869140625	0	lower	zerothre.ttf
502.67	n/a	WORD	251335	wordpools/wasnorm_wordpool.txt	LTP102	ltpFR	17	2	1	MAMMAL	861	n/a	n/a	1	0.422607421875	0.5869140625	0	lower	zerothre.ttf
506.704	n/a	WORD	253352	wordpools/wasnorm_wordpool.txt	LTP102	ltpFR	17	2	1	DOG	480	n/a	n/a	1	0.422607421875	0.5869140625	0	lower	zerothre.ttf
510.896	n/a	WORD	255448	wordpools/wasnorm_wordpool.txt	LTP102	ltpFR	17	2	1	AUTHOR	61	n/a	n/a	1	0.422607421875	0.5869140625	0	lower	zerothre.ttf
514.904	n/a	WORD	257452	wordpools/wasnorm_wordpool.txt	LTP102	ltpFR	17	2	0	DETECTIVE	454	n/a	n/a	2	0.57763671875	0.412841796875	1	upper	amplitud.ttf
517.346	n/a	KEY_MSG	258673	n/a	LTP102	ltpFR	17	2	n/a	n/a	n/a	n/a	n/a	n/a	n/a	n/a	n/a	n/a	n/a
519.77	n/a	WORD	259885	wordpools/wasnorm_wordpool.txt	LTP102	ltpFR	17	2	0	CHIMNEY	301	n/a	n/a	1	0.57763671875	0.412841796875	1	upper	amplitud.ttf
523.896	n/a	WORD	261948	wordpools/wasnorm_wordpool.txt	LTP102	ltpFR	17	2	1	SPHINX	1349	n/a	n/a	0	0.422607421875	0.5869140625	0	lower	zerothre.ttf
527.794	n/a	WORD	263897	wordpools/wasnorm_wordpool.txt	LTP102	ltpFR	17	2	1	DEODORANT	448	n/a	n/a	0	0.422607421875	0.5869140625	0	lower	zerothre.ttf
533.63	n/a	REC_START	266815	n/a	LTP102	ltpFR	17	2	n/a	n/a	n/a	n/a	n/a	n/a	n/a	n/a	n/a	n/a	n/a
535.416	n/a	REC_WORD	267708	wordpools/wasnorm_wordpool.txt	LTP102	ltpFR	17	2	1	DEODORANT	448	n/a	n/a	0	n/a	n/a	n/a	n/a	n/a
537.67	n/a	REC_WORD	268835	wordpools/wasnorm_wordpool.txt	LTP102	ltpFR	17	2	n/a	WAITRESS	1581	n/a	n/a	n/a	n/a	n/a	n/a	n/a	n/a
540.608	n/a	REC_WORD	270304	wordpools/wasnorm_wordpool.txt	LTP102	ltpFR	17	2	n/a	BEAVER	109	n/a	n/a	n/a	n/a	n/a	n/a	n/a	n/a
542.608	n/a	REC_WORD	271304	wordpools/wasnorm_wordpool.txt	LTP102	ltpFR	17	2	1	DOG	480	n/a	n/a	1	n/a	n/a	n/a	n/a	n/a
543.766	n/a	REC_WORD	271883	wordpools/wasnorm_wordpool.txt	LTP102	ltpFR	17	2	1	MAMMAL	861	n/a	n/a	1	n/a	n/a	n/a	n/a	n/a
545.382	n/a	REC_WORD	272691	wordpools/wasnorm_wordpool.txt	LTP102	ltpFR	17	2	0	BIRD	129	n/a	n/a	1	n/a	n/a	n/a	n/a	n/a
549.968	n/a	REC_WORD	274984	wordpools/wasnorm_wordpool.txt	LTP102	ltpFR	17	2	n/a	[???]	-1	n/a	n/a	n/a	n/a	n/a	n/a	n/a	n/a
555.556	n/a	REC_WORD	277778	wordpools/wasnorm_wordpool.txt	LTP102	ltpFR	17	2	0	RAIL	1161	n/a	n/a	1	n/a	n/a	n/a	n/a	n/a
559.276	n/a	REC_WORD	279638	wordpools/wasnorm_wordpool.txt	LTP102	ltpFR	17	2	n/a	REFRIGERATOR	1179	n/a	n/a	n/a	n/a	n/a	n/a	n/a	n/a
563.712	n/a	REC_WORD	281856	wordpools/wasnorm_wordpool.txt	LTP102	ltpFR	17	2	0	MOTOR	922	n/a	n/a	1	n/a	n/a	n/a	n/a	n/a
565.358	n/a	REC_WORD	282679	wordpools/wasnorm_wordpool.txt	LTP102	ltpFR	17	2	0	BATTERY	101	n/a	n/a	0	n/a	n/a	n/a	n/a	n/a
567.204	n/a	REC_WORD	283602	wordpools/wasnorm_wordpool.txt	LTP102	ltpFR	17	2	0	FRAGRANCE	599	n/a	n/a	0	n/a	n/a	n/a	n/a	n/a
568.204	n/a	REC_WORD_VV	284102	wordpools/wasnorm_wordpool.txt	LTP102	ltpFR	17	2	n/a	<>	-1	n/a	n/a	n/a	n/a	n/a	n/a	n/a	n/a
601.622	n/a	REC_WORD	300811	wordpools/wasnorm_wordpool.txt	LTP102	ltpFR	17	2	1	MOAT	903	n/a	n/a	0	n/a	n/a	n/a	n/a	n/a
604.836	n/a	REC_WORD	302418	wordpools/wasnorm_wordpool.txt	LTP102	ltpFR	17	2	0	MOTOR	922	n/a	n/a	1	n/a	n/a	n/a	n/a	n/a
608.242	n/a	REC_WORD_VV	304121	wordpools/wasnorm_wordpool.txt	LTP102	ltpFR	17	2	n/a	<>	-1	n/a	n/a	n/a	n/a	n/a	n/a	n/a	n/a
618.986	n/a	WORD	309493	wordpools/wasnorm_wordpool.txt	LTP102	ltpFR	17	3	0	BILL	126	n/a	n/a	1	0.57763671875	0.412841796875	1	upper	amplitud.ttf
623.118	n/a	WORD	311559	wordpools/wasnorm_wordpool.txt	LTP102	ltpFR	17	3	0	ARTIST	43	n/a	n/a	1	0.57763671875	0.412841796875	1	upper	amplitud.ttf
627.26	n/a	WORD	313630	wordpools/wasnorm_wordpool.txt	LTP102	ltpFR	17	3	0	BEER	114	n/a	n/a	0	0.57763671875	0.412841796875	1	upper	amplitud.ttf
631.236	n/a	WORD	315618	wordpools/wasnorm_wordpool.txt	LTP102	ltpFR	17	3	0	TOMB	1477	n/a	n/a	1	0.57763671875	0.412841796875	1	upper	amplitud.ttf
635.094	n/a	WORD	317547	wordpools/wasnorm_wordpool.txt	LTP102	ltpFR	17	3	0	CASKET	255	n/a	n/a	1	0.57763671875	0.412841796875	1	upper	amplitud.ttf
639.276	n/a	WORD	319638	wordpools/wasnorm_wordpool.txt	LTP102	ltpFR	17	3	0	SCENERY	1247	n/a	n/a	1	0.57763671875	0.412841796875	1	upper	amplitud.ttf
643.134	n/a	WORD	321567	wordpools/wasnorm_wordpool.txt	LTP102	ltpFR	17	3	0	VIKING	1565	n/a	n/a	1	0.57763671875	0.412841796875	1	upper	amplitud.ttf
646.992	n/a	WORD	323496	wordpools/wasnorm_wordpool.txt	LTP102	ltpFR	17	3	0	BUYER	208	n/a	n/a	1	0.57763671875	0.412841796875	1	upper	amplitud.ttf
651.186	n/a	WORD	325593	wordpools/wasnorm_wordpool.txt	LTP102	ltpFR	17	3	0	PIG	1064	n/a	n/a	0	0.57763671875	0.412841796875	1	upper	amplitud.ttf
655.002	n/a	WORD	327501	wordpools/wasnorm_wordpool.txt	LTP102	ltpFR	17	3	0	MULE	931	n/a	n/a	1	0.57763671875	0.412841796875	1	upper	amplitud.ttf
658.934	n/a	WORD	329467	wordpools/wasnorm_wordpool.txt	LTP102	ltpFR	17	3	0	CRATER	400	n/a	n/a	1	0.57763671875	0.412841796875	1	upper	amplitud.ttf
662.758	n/a	WORD	331379	wordpools/wasnorm_wordpool.txt	LTP102	ltpFR	17	3	0	PHOTO	1055	n/a	n/a	0	0.57763671875	0.412841796875	1	upper	amplitud.ttf
666.632	n/a	WORD	333316	wordpools/wasnorm_wordpool.txt	LTP102	ltpFR	17	3	0	CAFETERIA	217	n/a	n/a	1	0.57763671875	0.412841796875	1	upper	amplitud.ttf
670.558	n/a	WORD	335279	wordpools/wasnorm_wordpool.txt	LTP102	ltpFR	17	3	0	TURKEY	1520	n/a	n/a	1	0.57763671875	0.412841796875	1	upper	amplitud.ttf
674.724	n/a	WORD	337362	wordpools/wasnorm_wordpool.txt	LTP102	ltpFR	17	3	0	CENT	270	n/a	n/a	0	0.57763671875	0.412841796875	1	upper	amplitud.ttf
678.55	n/a	WORD	339275	wordpools/wasnorm_wordpool.txt	LTP102	ltpFR	17	3	0	WATER	1594	n/a	n/a	1	0.57763671875	0.412841796875	1	upper	amplitud.ttf
684.242	n/a	REC_START	342121	n/a	LTP102	ltpFR	17	3	n/a	n/a	n/a	n/a	n/a	n/a	n/a	n/a	n/a	n/a	n/a
686.322	n/a	REC_WORD	343161	wordpools/wasnorm_wordpool.txt	LTP102	ltpFR	17	3	0	WATER	1594	n/a	n/a	1	n/a	n/a	n/a	n/a	n/a
689.69	n/a	REC_WORD	344845	wordpools/wasnorm_wordpool.txt	LTP102	ltpFR	17	3	0	CHIMNEY	301	n/a	n/a	1	n/a	n/a	n/a	n/a	n/a
693.772	n/a	REC_WORD	346886	wordpools/wasnorm_wordpool.txt	LTP102	ltpFR	17	3	0	VIKING	1565	n/a	n/a	1	n/a	n/a	n/a	n/a	n/a
696.894	n/a	REC_WORD	348447	wordpools/wasnorm_wordpool.txt	LTP102	ltpFR	17	3	n/a	BELL	118	n/a	n/a	n/a	n/a	n/a	n/a	n/a	n/a
700.078	n/a	REC_WORD	350039	wordpools/wasnorm_wordpool.txt	LTP102	ltpFR	17	3	1	TOAD	1470	n/a	n/a	1	n/a	n/a	n/a	n/a	n/a
706.552	n/a	REC_WORD	353276	wordpools/wasnorm_wordpool.txt	LTP102	ltpFR	17	3	0	BILL	126	n/a	n/a	1	n/a	n/a	n/a	n/a	n/a
713.658	n/a	REC_WORD	356829	wordpools/wasnorm_wordpool.txt	LTP102	ltpFR	17	3	0	BUYER	208	n/a	n/a	1	n/a	n/a	n/a	n/a	n/a
733.712	n/a	REC_WORD	366856	wordpools/wasnorm_wordpool.txt	LTP102	ltpFR	17	3	1	TRIGGER	1507	n/a	n/a	0	n/a	n/a	n/a	n/a	n/a
752.366	n/a	REC_WORD	376183	wordpools/wasnorm_wordpool.txt	LTP102	ltpFR	17	3	0	CHIMNEY	301	n/a	n/a	1	n/a	n/a	n/a	n/a	n/a
763.806	n/a	WORD	381903	wordpools/wasnorm_wordpool.txt	LTP102	ltpFR	17	4	0	BUCKET	184	n/a	n/a	1	0.57763671875	0.412841796875	1	upper	amplitud.ttf
767.89	n/a	WORD	383945	wordpools/wasnorm_wordpool.txt	LTP102	ltpFR	17	4	0	SLEIGH	1325	n/a	n/a	1	0.57763671875	0.412841796875	1	upper	amplitud.ttf
772.024	n/a	WORD	386012	wordpools/wasnorm_wordpool.txt	LTP102	ltpFR	17	4	0	ELF	525	n/a	n/a	1	0.57763671875	0.412841796875	1	upper	amplitud.ttf
775.982	n/a	WORD	387991	wordpools/wasnorm_wordpool.txt	LTP102	ltpFR	17	4	0	TUBA	1515	n/a	n/a	1	0.57763671875	0.412841796875	1	upper	amplitud.ttf
780.114	n/a	WORD	390057	wordpools/wasnorm_wordpool.txt	LTP102	ltpFR	17	4	0	FLASK	576	n/a	n/a	0	0.57763671875	0.412841796875	1	upper	amplitud.ttf
783.956	n/a	WORD	391978	wordpools/wasnorm_wordpool.txt	LTP102	ltpFR	17	4	0	FURNITURE	616	n/a	n/a	1	0.57763671875	0.412841796875	1	upper	amplitud.ttf
787.872	n/a	WORD	393936	wordpools/wasnorm_wordpool.txt	LTP102	ltpFR	17	4	0	LOUNGE	845	n/a	n/a	1	0.57763671875	0.412841796875	1	upper	amplitud.ttf
791.764	n/a	WORD	395882	wordpools/wasnorm_wordpool.txt	LTP102	ltpFR	17	4	0	BARLEY	88	n/a	n/a	0	0.57763671875	0.412841796875	1	upper	amplitud.ttf
795.972	n/a	WORD	397986	wordpools/wasnorm_wordpool.txt	LTP102	ltpFR	17	4	0	ORCHESTRA	981	n/a	n/a	1	0.57763671875	0.412841796875	1	upper	amplitud.ttf
800.006	n/a	WORD	400003	wordpools/wasnorm_wordpool.txt	LTP102	ltpFR	17	4	0	MICROPHONE	890	n/a	n/a	0	0.57763671875	0.412841796875	1	upper	amplitud.ttf
803.938	n/a	WORD	401969	wordpools/wasnorm_wordpool.txt	LTP102	ltpFR	17	4	0	PENDULUM	1043	n/a	n/a	1	0.57763671875	0.412841796875	1	upper	amplitud.ttf
807.93	n/a	WORD	403965	wordpools/wasnorm_wordpool.txt	LTP102	ltpFR	17	4	0	DILL	465	n/a	n/a	0	0.57763671875	0.412841796875	1	upper	amplitud.ttf
812.08	n/a	WORD	406040	wordpools/wasnorm_wordpool.txt	LTP102	ltpFR	17	4	0	CHEMICAL	291	n/a	n/a	0	0.57763671875	0.412841796875	1	upper	amplitud.ttf
815.956	n/a	WORD	407978	wordpools/wasnorm_wordpool.txt	LTP102	ltpFR	17	4	0	LIGHTER	819	n/a	n/a	0	0.57763671875	0.412841796875	1	upper	amplitud.ttf
819.92	n/a	WORD	409960	wordpools/wasnorm_wordpool.txt	LTP102	ltpFR	17	4	0	POLE	1097	n/a	n/a	1	0.57763671875	0.412841796875	1	upper	amplitud.ttf
823.972	n/a	WORD	411986	wordpools/wasnorm_wordpool.txt	LTP102	ltpFR	17	4	0	SURF	1412	n/a	n/a	0	0.57763671875	0.412841796875	1	upper	amplitud.ttf
829.772	n/a	REC_START	414886	n/a	LTP102	ltpFR	17	4	n/a	n/a	n/a	n/a	n/a	n/a	n/a	n/a	n/a	n/a	n/a
831.826	n/a	REC_WORD	415913	wordpools/wasnorm_wordpool.txt	LTP102	ltpFR	17	4	0	CHEMICAL	291	n/a	n/a	0	n/a	n/a	n/a	n/a	n/a
833.068	n/a	REC_WORD	416534	wordpools/wasnorm_wordpool.txt	LTP102	ltpFR	17	4	0	SURF	1412	n/a	n/a	0	n/a	n/a	n/a	n/a	n/a
835.034	n/a	REC_WORD	417517	wordpools/wasnorm_wordpool.txt	LTP102	ltpFR	17	4	n/a	CHEMIST	292	n/a	n/a	n/a	n/a	n/a	n/a	n/a	n/a
837.988	n/a	REC_WORD	418994	wordpools/wasnorm_wordpool.txt	LTP102	ltpFR	17	4	1	MOAT	903	n/a	n/a	0	n/a	n/a	n/a	n/a	n/a
843.99	n/a	REC_WORD	421995	wordpools/wasnorm_wordpool.txt	LTP102	ltpFR	17	4	1	TOAD	1470	n/a	n/a	1	n/a	n/a	n/a	n/a	n/a
857.12	n/a	REC_WORD	428560	wordpools/wasnorm_wordpool.txt	LTP102	ltpFR	17	4	0	SLEIGH	1325	n/a	n/a	1	n/a	n/a	n/a	n/a	n/a
860.802	n/a	REC_WORD	430401	wordpools/wasnorm_wordpool.txt	LTP102	ltpFR	17	4	0	FLASK	576	n/a	n/a	0	n/a	n/a	n/a	n/a	n/a
866.62	n/a	REC_WORD	433310	wordpools/wasnorm_wordpool.txt	LTP102	ltpFR	17	4	0	POLE	1097	n/a	n/a	1	n/a	n/a	n/a	n/a	n/a
868.63	n/a	REC_WORD	434315	wordpools/wasnorm_wordpool.txt	LTP102	ltpFR	17	4	0	ELF	525	n/a	n/a	1	n/a	n/a	n/a	n/a	n/a
873.558	n/a	REC_WORD	436779	wordpools/wasnorm_wordpool.txt	LTP102	ltpFR	17	4	n/a	COUCH	386	n/a	n/a	n/a	n/a	n/a	n/a	n/a	n/a
876.392	n/a	REC_WORD	438196	wordpools/wasnorm_wordpool.txt	LTP102	ltpFR	17	4	0	FURNITURE	616	n/a	n/a	1	n/a	n/a	n/a	n/a	n/a
878.144	n/a	REC_WORD	439072	wordpools/wasnorm_wordpool.txt	LTP102	ltpFR	17	4	0	LOUNGE	845	n/a	n/a	1	n/a	n/a	n/a	n/a	n/a
916.66	n/a	WORD	458330	wordpools/wasnorm_wordpool.txt	LTP102	ltpFR	17	5	-1	ISLAND	745	n/a	n/a	-1	1.0	1.0	1	upper	Verdana.ttf
920.51	n/a	WORD	460255	wordpools/wasnorm_wordpool.txt	LTP102	ltpFR	17	5	-1	DIAMOND	458	n/a	n/a	-1	1.0	1.0	1	upper	Verdana.ttf
924.71	n/a	WORD	462355	wordpools/wasnorm_wordpool.txt	LTP102	ltpFR	17	5	-1	BED	110	n/a	n/a	-1	1.0	1.0	1	upper	Verdana.ttf
928.844	n/a	WORD	464422	wordpools/wasnorm_wordpool.txt	LTP102	ltpFR	17	5	-1	PATIENT	1024	n/a	n/a	-1	1.0	1.0	1	upper	Verdana.ttf
932.684	n/a	WORD	466342	wordpools/wasnorm_wordpool.txt	LTP102	ltpFR	17	5	-1	COMPUTER	359	n/a	n/a	-1	1.0	1.0	1	upper	Verdana.ttf
936.776	n/a	WORD	468388	wordpools/wasnorm_wordpool.txt	LTP102	ltpFR	17	5	-1	SATURN	1236	n/a	n/a	-1	1.0	1.0	1	upper	Verdana.ttf
940.934	n/a	WORD	470467	wordpools/wasnorm_wordpool.txt	LTP102	ltpFR	17	5	-1	MARS	873	n/a	n/a	-1	1.0	1.0	1	upper	Verdana.ttf
945.028	n/a	WORD	472514	wordpools/wasnorm_wordpool.txt	LTP102	ltpFR	17	5	-1	ORNAMENT	985	n/a	n/a	-1	1.0	1.0	1	upper	Verdana.ttf
948.842	n/a	WORD	474421	wordpools/wasnorm_wordpool.txt	LTP102	ltpFR	17	5	-1	ROOT	1210	n/a	n/a	-1	1.0	1.0	1	upper	Verdana.ttf
953.026	n/a	WORD	476513	wordpools/wasnorm_wordpool.txt	LTP102	ltpFR	17	5	-1	BRIDGE	174	n/a	n/a	-1	1.0	1.0	1	upper	Verdana.ttf
956.934	n/a	WORD	478467	wordpools/wasnorm_wordpool.txt	LTP102	ltpFR	17	5	-1	ANCESTOR	20	n/a	n/a	-1	1.0	1.0	1	upper	Verdana.ttf
961.142	n/a	WORD	480571	wordpools/wasnorm_wordpool.txt	LTP102	ltpFR	17	5	-1	STOCKING	1383	n/a	n/a	-1	1.0	1.0	1	upper	Verdana.ttf
965.06	n/a	WORD	482530	wordpools/wasnorm_wordpool.txt	LTP102	ltpFR	17	5	-1	DICE	461	n/a	n/a	-1	1.0	1.0	1	upper	Verdana.ttf
968.994	n/a	WORD	484497	wordpools/wasnorm_wordpool.txt	LTP102	ltpFR	17	5	-1	FIELD	562	n/a	n/a	-1	1.0	1.0	1	upper	Verdana.ttf
973.134	n/a	WORD	486567	wordpools/wasnorm_wordpool.txt	LTP102	ltpFR	17	5	-1	DOORBELL	487	n/a	n/a	-1	1.0	1.0	1	upper	Verdana.ttf
977.018	n/a	WORD	488509	wordpools/wasnorm_wordpool.txt	LTP102	ltpFR	17	5	-1	LEG	809	n/a	n/a	-1	1.0	1.0	1	upper	Verdana.ttf
982.71	n/a	REC_START	491355	n/a	LTP102	ltpFR	17	5	n/a	n/a	n/a	n/a	n/a	n/a	n/a	n/a	n/a	n/a	n/a
984.006	n/a	REC_WORD	492003	wordpools/wasnorm_wordpool.txt	LTP102	ltpFR	17	5	-1	LEG	809	n/a	n/a	-1	n/a	n/a	n/a	n/a	n/a
985.946	n/a	REC_WORD_VV	492973	wordpools/wasnorm_wordpool.txt	LTP102	ltpFR	17	5	n/a	<>	-1	n/a	n/a	n/a	n/a	n/a	n/a	n/a	n/a
987.768	n/a	REC_WORD	493884	wordpools/wasnorm_wordpool.txt	LTP102	ltpFR	17	5	n/a	WINDOW	1611	n/a	n/a	n/a	n/a	n/a	n/a	n/a	n/a
989.804	n/a	REC_WORD	494902	wordpools/wasnorm_wordpool.txt	LTP102	ltpFR	17	5	-1	ISLAND	745	n/a	n/a	-1	n/a	n/a	n/a	n/a	n/a
991.37	n/a	REC_WORD	495685	wordpools/wasnorm_wordpool.txt	LTP102	ltpFR	17	5	-1	FIELD	562	n/a	n/a	-1	n/a	n/a	n/a	n/a	n/a
993.37	n/a	REC_WORD	496685	wordpools/wasnorm_wordpool.txt	LTP102	ltpFR	17	5	-1	DICE	461	n/a	n/a	-1	n/a	n/a	n/a	n/a	n/a
995.33	n/a	REC_WORD	497665	wordpools/wasnorm_wordpool.txt	LTP102	ltpFR	17	5	0	BUYER	208	n/a	n/a	1	n/a	n/a	n/a	n/a	n/a
998.2	n/a	REC_WORD	499100	wordpools/wasnorm_wordpool.txt	LTP102	ltpFR	17	5	1	TRIGGER	1507	n/a	n/a	0	n/a	n/a	n/a	n/a	n/a
1002.964	n/a	REC_WORD	501482	wordpools/wasnorm_wordpool.txt	LTP102	ltpFR	17	5	-1	FIELD	562	n/a	n/a	-1	n/a	n/a	n/a	n/a	n/a
1007.744	n/a	REC_WORD	503872	wordpools/wasnorm_wordpool.txt	LTP102	ltpFR	17	5	n/a	HILL	-1	n/a	n/a	n/a	n/a	n/a	n/a	n/a	n/a
1010.652	n/a	REC_WORD	505326	wordpools/wasnorm_wordpool.txt	LTP102	ltpFR	17	5	0	BUCKET	184	n/a	n/a	1	n/a	n/a	n/a	n/a	n/a
1013.84	n/a	REC_WORD	506920	wordpools/wasnorm_wordpool.txt	LTP102	ltpFR	17	5	0	DILL	465	n/a	n/a	0	n/a	n/a	n/a	n/a	n/a
1018.13	n/a	REC_WORD_VV	509065	wordpools/wasnorm_wordpool.txt	LTP102	ltpFR	17	5	n/a	<>	-1	n/a	n/a	n/a	n/a	n/a	n/a	n/a	n/a
1018.47	n/a	REC_WORD	509235	wordpools/wasnorm_wordpool.txt	LTP102	ltpFR	17	5	1	DOG	480	n/a	n/a	1	n/a	n/a	n/a	n/a	n/a
1025.42	n/a	REC_WORD	512710	wordpools/wasnorm_wordpool.txt	LTP102	ltpFR	17	5	n/a	COW	393	n/a	n/a	n/a	n/a	n/a	n/a	n/a	n/a
1070.914	n/a	WORD	535457	wordpools/wasnorm_wordpool.txt	LTP102	ltpFR	17	6	0	REGISTER	1180	n/a	n/a	1	0.57763671875	0.412841796875	1	upper	amplitud.ttf
1075.04	n/a	WORD	537520	wordpools/wasnorm_wordpool.txt	LTP102	ltpFR	17	6	0	QUARTER	1148	n/a	n/a	0	0.57763671875	0.412841796875	1	upper	amplitud.ttf
1079.064	n/a	WORD	539532	wordpools/wasnorm_wordpool.txt	LTP102	ltpFR	17	6	0	CALENDAR	221	n/a	n/a	1	0.57763671875	0.412841796875	1	upper	amplitud.ttf
1083.148	n/a	WORD	541574	wordpools/wasnorm_wordpool.txt	LTP102	ltpFR	17	6	0	BEAN	105	n/a	n/a	0	0.57763671875	0.412841796875	1	upper	amplitud.ttf
1087.114	n/a	WORD	543557	wordpools/wasnorm_wordpool.txt	LTP102	ltpFR	17	6	1	BIKE	125	n/a	n/a	0	0.422607421875	0.5869140625	0	lower	zerothre.ttf
1091.19	n/a	WORD	545595	wordpools/wasnorm_wordpool.txt	LTP102	ltpFR	17	6	1	DIVER	476	n/a	n/a	1	0.422607421875	0.5869140625	0	lower	zerothre.ttf
1095.014	n/a	WORD	547507	wordpools/wasnorm_wordpool.txt	LTP102	ltpFR	17	6	0	BLACKBERRY	132	n/a	n/a	0	0.57763671875	0.412841796875	1	upper	amplitud.ttf
1099.13	n/a	WORD	549565	wordpools/wasnorm_wordpool.txt	LTP102	ltpFR	17	6	0	BRUSH	182	n/a	n/a	1	0.57763671875	0.412841796875	1	upper	amplitud.ttf
1102.964	n/a	WORD	551482	wordpools/wasnorm_wordpool.txt	LTP102	ltpFR	17	6	0	CATHEDRAL	260	n/a	n/a	2	0.57763671875	0.412841796875	1	upper	amplitud.ttf
1104.806	n/a	KEY_MSG	552403	n/a	LTP102	ltpFR	17	6	n/a	n/a	n/a	n/a	n/a	n/a	n/a	n/a	n/a	n/a	n/a
1107.388	n/a	WORD	553694	wordpools/wasnorm_wordpool.txt	LTP102	ltpFR	17	6	0	PREACHER	1119	n/a	n/a	0	0.57763671875	0.412841796875	1	upper	amplitud.ttf
1111.362	n/a	WORD	555681	wordpools/wasnorm_wordpool.txt	LTP102	ltpFR	17	6	1	SKELETON	1314	n/a	n/a	1	0.422607421875	0.5869140625	0	lower	zerothre.ttf
1115.472	n/a	WORD	557736	wordpools/wasnorm_wordpool.txt	LTP102	ltpFR	17	6	1	WOLF	1619	n/a	n/a	1	0.422607421875	0.5869140625	0	lower	zerothre.ttf
1119.438	n/a	WORD	559719	wordpools/wasnorm_wordpool.txt	LTP102	ltpFR	17	6	1	PEOPLE	1046	n/a	n/a	0	0.422607421875	0.5869140625	0	lower	zerothre.ttf
1123.256	n/a	WORD	561628	wordpools/wasnorm_wordpool.txt	LTP102	ltpFR	17	6	1	PEACH	1031	n/a	n/a	1	0.422607421875	0.5869140625	0	lower	zerothre.ttf
1127.222	n/a	WORD	563611	wordpools/wasnorm_wordpool.txt	LTP102	ltpFR	17	6	1	PUMP	1141	n/a	n/a	0	0.422607421875	0.5869140625	0	lower	zerothre.ttf
1131.122	n/a	WORD	565561	wordpools/wasnorm_wordpool.txt	LTP102	ltpFR	17	6	1	PEDESTRIAN	1038	n/a	n/a	1	0.422607421875	0.5869140625	0	lower	zerothre.ttf
1137.206	n/a	REC_START	568603	n/a	LTP102	ltpFR	17	6	n/a	n/a	n/a	n/a	n/a	n/a	n/a	n/a	n/a	n/a	n/a
1139.4	n/a	REC_WORD	569700	wordpools/wasnorm_wordpool.txt	LTP102	ltpFR	17	6	1	PEDESTRIAN	1038	n/a	n/a	1	n/a	n/a	n/a	n/a	n/a
1141.95	n/a	REC_WORD	570975	wordpools/wasnorm_wordpool.txt	LTP102	ltpFR	17	6	1	PEACH	1031	n/a	n/a	1	n/a	n/a	n/a	n/a	n/a
1143.812	n/a	REC_WORD	571906	wordpools/wasnorm_wordpool.txt	LTP102	ltpFR	17	6	1	SKELETON	1314	n/a	n/a	1	n/a	n/a	n/a	n/a	n/a
1145.992	n/a	REC_WORD	572996	wordpools/wasnorm_wordpool.txt	LTP102	ltpFR	17	6	1	WOLF	1619	n/a	n/a	1	n/a	n/a	n/a	n/a	n/a
1157.64	n/a	REC_WORD	578820	wordpools/wasnorm_wordpool.txt	LTP102	ltpFR	17	6	n/a	REFRIGERATOR	1179	n/a	n/a	n/a	n/a	n/a	n/a	n/a	n/a
1163.284	n/a	REC_WORD	581642	wordpools/wasnorm_wordpool.txt	LTP102	ltpFR	17	6	1	PEOPLE	1046	n/a	n/a	0	n/a	n/a	n/a	n/a	n/a
1169.314	n/a	REC_WORD	584657	wordpools/wasnorm_wordpool.txt	LTP102	ltpFR	17	6	0	BIRD	129	n/a	n/a	1	n/a	n/a	n/a	n/a	n/a
1179.352	n/a	REC_WORD	589676	wordpools/wasnorm_wordpool.txt	LTP102	ltpFR	17	6	n/a	CUPBOARD	425	n/a	n/a	n/a	n/a	n/a	n/a	n/a	n/a
1182.394	n/a	REC_WORD	591197	wordpools/wasnorm_wordpool.txt	LTP102	ltpFR	17	6	0	BLACKBERRY	132	n/a	n/a	0	n/a	n/a	n/a	n/a	n/a
1189.37	n/a	REC_WORD	594685	wordpools/wasnorm_wordpool.txt	LTP102	ltpFR	17	6	n/a	COUCH	386	n/a	n/a	n/a	n/a	n/a	n/a	n/a	n/a
1195.386	n/a	REC_WORD	597693	wordpools/wasnorm_wordpool.txt	LTP102	ltpFR	17	6	-1	DIAMOND	458	n/a	n/a	-1	n/a	n/a	n/a	n/a	n/a
1200.006	n/a	REC_WORD_VV	600003	wordpools/wasnorm_wordpool.txt	LTP102	ltpFR	17	6	n/a	<>	-1	n/a	n/a	n/a	n/a	n/a	n/a	n/a	n/a
1203.718	n/a	REC_WORD	601859	wordpools/wasnorm_wordpool.txt	LTP102	ltpFR	17	6	0	BABY	64	n/a	n/a	0	n/a	n/a	n/a	n/a	n/a
1209.874	n/a	REC_WORD	604937	wordpools/wasnorm_wordpool.txt	LTP102	ltpFR	17	6	n/a	PAPER	1011	n/a	n/a	n/a	n/a	n/a	n/a	n/a	n/a
1211.516	n/a	REC_WORD	605758	wordpools/wasnorm_wordpool.txt	LTP102	ltpFR	17	6	1	DIVER	476	n/a	n/a	1	n/a	n/a	n/a	n/a	n/a
1222.262	n/a	WORD	611131	wordpools/wasnorm_wordpool.txt	LTP102	ltpFR	17	7	1	ELBOW	520	n/a	n/a	0	0.422607421875	0.5869140625	0	lower	zerothre.ttf
1226.136	n/a	WORD	613068	wordpools/wasnorm_wordpool.txt	LTP102	ltpFR	17	7	1	ARM	38	n/a	n/a	1	0.422607421875	0.5869140625	0	lower	zerothre.ttf
1230.236	n/a	WORD	615118	wordpools/wasnorm_wordpool.txt	LTP102	ltpFR	17	7	1	FOSSIL	596	n/a	n/a	0	0.422607421875	0.5869140625	0	lower	zerothre.ttf
1234.26	n/a	WORD	617130	wordpools/wasnorm_wordpool.txt	LTP102	ltpFR	17	7	1	FRAME	600	n/a	n/a	0	0.422607421875	0.5869140625	0	lower	zerothre.ttf
1238.22	n/a	WORD	619110	wordpools/wasnorm_wordpool.txt	LTP102	ltpFR	17	7	1	SHERIFF	1284	n/a	n/a	1	0.422607421875	0.5869140625	0	lower	zerothre.ttf
1242.102	n/a	WORD	621051	wordpools/wasnorm_wordpool.txt	LTP102	ltpFR	17	7	1	MANAGER	863	n/a	n/a	1	0.422607421875	0.5869140625	0	lower	zerothre.ttf
1246.21	n/a	WORD	623105	wordpools/wasnorm_wordpool.txt	LTP102	ltpFR	17	7	1	CANE	231	n/a	n/a	0	0.422607421875	0.5869140625	0	lower	zerothre.ttf
1250.044	n/a	WORD	625022	wordpools/wasnorm_wordpool.txt	LTP102	ltpFR	17	7	1	HANDCUFFS	685	n/a	n/a	0	0.422607421875	0.5869140625	0	lower	zerothre.ttf
1254.244	n/a	WORD	627122	wordpools/wasnorm_wordpool.txt	LTP102	ltpFR	17	7	1	DIRECTOR	471	n/a	n/a	1	0.422607421875	0.5869140625	0	lower	zerothre.ttf
1258.094	n/a	WORD	629047	wordpools/wasnorm_wordpool.txt	LTP102	ltpFR	17	7	1	YARD	1630	n/a	n/a	0	0.422607421875	0.5869140625	0	lower	zerothre.ttf
1261.91	n/a	WORD	630955	wordpools/wasnorm_wordpool.txt	LTP102	ltpFR	17	7	1	SHOWER	1296	n/a	n/a	0	0.422607421875	0.5869140625	0	lower	zerothre.ttf
1265.85	n/a	WORD	632925	wordpools/wasnorm_wordpool.txt	LTP102	ltpFR	17	7	1	CORAL	378	n/a	n/a	1	0.422607421875	0.5869140625	0	lower	zerothre.ttf
1270.042	n/a	WORD	635021	wordpools/wasnorm_wordpool.txt	LTP102	ltpFR	17	7	1	SADDLE	1221	n/a	n/a	0	0.422607421875	0.5869140625	0	lower	zerothre.ttf
1274.034	n/a	WORD	637017	wordpools/wasnorm_wordpool.txt	LTP102	ltpFR	17	7	1	DONKEY	484	n/a	n/a	1	0.422607421875	0.5869140625	0	lower	zerothre.ttf
1277.858	n/a	WORD	638929	wordpools/wasnorm_wordpool.txt	LTP102	ltpFR	17	7	1	AUTOMOBILE	62	n/a	n/a	0	0.422607421875	0.5869140625	0	lower	zerothre.ttf
1281.8	n/a	WORD	640900	wordpools/wasnorm_wordpool.txt	LTP102	ltpFR	17	7	1	COFFEE	341	n/a	n/a	0	0.422607421875	0.5869140625	0	lower	zerothre.ttf
1287.742	n/a	REC_START	643871	n/a	LTP102	ltpFR	17	7	n/a	n/a	n/a	n/a	n/a	n/a	n/a	n/a	n/a	n/a	n/a
1288.92	n/a	REC_WORD	644460	wordpools/wasnorm_wordpool.txt	LTP102	ltpFR	17	7	1	COFFEE	341	n/a	n/a	0	n/a	n/a	n/a	n/a	n/a
1290.526	n/a	REC_WORD	645263	wordpools/wasnorm_wordpool.txt	LTP102	ltpFR	17	7	0	BEAN	105	n/a	n/a	0	n/a	n/a	n/a	n/a	n/a
1292.302	n/a	REC_WORD	646151	wordpools/wasnorm_wordpool.txt	LTP102	ltpFR	17	7	n/a	DUST	508	n/a	n/a	n/a	n/a	n/a	n/a	n/a	n/a
1293.728	n/a	REC_WORD	646864	wordpools/wasnorm_wordpool.txt	LTP102	ltpFR	17	7	0	POWDER	1117	n/a	n/a	0	n/a	n/a	n/a	n/a	n/a
1299.582	n/a	REC_WORD	649791	wordpools/wasnorm_wordpool.txt	LTP102	ltpFR	17	7	0	DILL	465	n/a	n/a	0	n/a	n/a	n/a	n/a	n/a
1303.028	n/a	REC_WORD	651514	wordpools/wasnorm_wordpool.txt	LTP102	ltpFR	17	7	1	COFFEE	341	n/a	n/a	0	n/a	n/a	n/a	n/a	n/a
1307.15	n/a	REC_WORD	653575	wordpools/wasnorm_wordpool.txt	LTP102	ltpFR	17	7	n/a	HIKE	-1	n/a	n/a	n/a	n/a	n/a	n/a	n/a	n/a
1311.224	n/a	REC_WORD	655612	wordpools/wasnorm_wordpool.txt	LTP102	ltpFR	17	7	1	BIKE	125	n/a	n/a	0	n/a	n/a	n/a	n/a	n/a
1347.5	n/a	REC_WORD	673750	wordpools/wasnorm_wordpool.txt	LTP102	ltpFR	17	7	1	DONKEY	484	n/a	n/a	1	n/a	n/a	n/a	n/a	n/a
1354.782	n/a	REC_WORD	677391	wordpools/wasnorm_wordpool.txt	LTP102	ltpFR	17	7	1	MAMMAL	861	n/a	n/a	1	n/a	n/a	n/a	n/a	n/a
1360.456	n/a	REC_WORD	680228	wordpools/wasnorm_wordpool.txt	LTP102	ltpFR	17	7	1	FRAME	600	n/a	n/a	0	n/a	n/a	n/a	n/a	n/a
1371.63	n/a	WORD	685815	wordpools/wasnorm_wordpool.txt	LTP102	ltpFR	17	8	1	CHAMBER	277	n/a	n/a	0	0.422607421875	0.5869140625	0	lower	zerothre.ttf
1375.482	n/a	WORD	687741	wordpools/wasnorm_wordpool.txt	LTP102	ltpFR	17	8	1	WITNESS	1618	n/a	n/a	1	0.422607421875	0.5869140625	0	lower	zerothre.ttf
1379.548	n/a	WORD	689774	wordpools/wasnorm_wordpool.txt	LTP102	ltpFR	17	8	1	CRYSTAL	418	n/a	n/a	0	0.422607421875	0.5869140625	0	lower	zerothre.ttf
1383.39	n/a	WORD	691695	wordpools/wasnorm_wordpool.txt	LTP102	ltpFR	17	8	1	HUMAN	726	n/a	n/a	1	0.422607421875	0.5869140625	0	lower	zerothre.ttf
1387.24	n/a	WORD	693620	wordpools/wasnorm_wordpool.txt	LTP102	ltpFR	17	8	1	CAP	236	n/a	n/a	0	0.422607421875	0.5869140625	0	lower	zerothre.ttf
1391.43	n/a	WORD	695715	wordpools/wasnorm_wordpool.txt	LTP102	ltpFR	17	8	1	FIST	572	n/a	n/a	0	0.422607421875	0.5869140625	0	lower	zerothre.ttf
1395.548	n/a	WORD	697774	wordpools/wasnorm_wordpool.txt	LTP102	ltpFR	17	8	1	SLIDE	1326	n/a	n/a	0	0.422607421875	0.5869140625	0	lower	zerothre.ttf
1399.364	n/a	WORD	699682	wordpools/wasnorm_wordpool.txt	LTP102	ltpFR	17	8	1	DIAGRAM	456	n/a	n/a	0	0.422607421875	0.5869140625	0	lower	zerothre.ttf
1403.456	n/a	WORD	701728	wordpools/wasnorm_wordpool.txt	LTP102	ltpFR	17	8	1	ROSE	1212	n/a	n/a	1	0.422607421875	0.5869140625	0	lower	zerothre.ttf
1407.454	n/a	WORD	703727	wordpools/wasnorm_wordpool.txt	LTP102	ltpFR	17	8	1	GARDEN	623	n/a	n/a	0	0.422607421875	0.5869140625	0	lower	zerothre.ttf
1411.306	n/a	WORD	705653	wordpools/wasnorm_wordpool.txt	LTP102	ltpFR	17	8	1	CONE	363	n/a	n/a	0	0.422607421875	0.5869140625	0	lower	zerothre.ttf
1415.19	n/a	WORD	707595	wordpools/wasnorm_wordpool.txt	LTP102	ltpFR	17	8	1	GLOVE	642	n/a	n/a	0	0.422607421875	0.5869140625	0	lower	zerothre.ttf
1419.09	n/a	WORD	709545	wordpools/wasnorm_wordpool.txt	LTP102	ltpFR	17	8	1	BUTLER	204	n/a	n/a	1	0.422607421875	0.5869140625	0	lower	zerothre.ttf
1423.014	n/a	WORD	711507	wordpools/wasnorm_wordpool.txt	LTP102	ltpFR	17	8	1	SKETCH	1315	n/a	n/a	0	0.422607421875	0.5869140625	0	lower	zerothre.ttf
1426.904	n/a	WORD	713452	wordpools/wasnorm_wordpool.txt	LTP102	ltpFR	17	8	1	CRAB	397	n/a	n/a	1	0.422607421875	0.5869140625	0	lower	zerothre.ttf
1430.904	n/a	WORD	715452	wordpools/wasnorm_wordpool.txt	LTP102	ltpFR	17	8	1	BARRACUDA	90	n/a	n/a	1	0.422607421875	0.5869140625	0	lower	zerothre.ttf
1436.788	n/a	REC_START	718394	n/a	LTP102	ltpFR	17	8	n/a	n/a	n/a	n/a	n/a	n/a	n/a	n/a	n/a	n/a	n/a
1438.264	n/a	REC_WORD	719132	wordpools/wasnorm_wordpool.txt	LTP102	ltpFR	17	8	1	BARRACUDA	90	n/a	n/a	1	n/a	n/a	n/a	n/a	n/a
1440.322	n/a	REC_WORD	720161	wordpools/wasnorm_wordpool.txt	LTP102	ltpFR	17	8	n/a	SALMON	1227	n/a	n/a	n/a	n/a	n/a	n/a	n/a	n/a
1443.304	n/a	REC_WORD	721652	wordpools/wasnorm_wordpool.txt	LTP102	ltpFR	17	8	1	BIKE	125	n/a	n/a	0	n/a	n/a	n/a	n/a	n/a
1447.404	n/a	REC_WORD_VV	723702	wordpools/wasnorm_wordpool.txt	LTP102	ltpFR	17	8	n/a	<>	-1	n/a	n/a	n/a	n/a	n/a	n/a	n/a	n/a
1447.834	n/a	REC_WORD	723917	wordpools/wasnorm_wordpool.txt	LTP102	ltpFR	17	8	1	HUMAN	726	n/a	n/a	1	n/a	n/a	n/a	n/a	n/a
1450.212	n/a	REC_WORD	725106	wordpools/wasnorm_wordpool.txt	LTP102	ltpFR	17	8	1	SHERIFF	1284	n/a	n/a	1	n/a	n/a	n/a	n/a	n/a
1453.67	n/a	REC_WORD	726835	wordpools/wasnorm_wordpool.txt	LTP102	ltpFR	17	8	1	FRAME	600	n/a	n/a	0	n/a	n/a	n/a	n/a	n/a
1457.148	n/a	REC_WORD	728574	wordpools/wasnorm_wordpool.txt	LTP102	ltpFR	17	8	1	BELT	120	n/a	n/a	0	n/a	n/a	n/a	n/a	n/a
1459.966	n/a	REC_WORD	729983	wordpools/wasnorm_wordpool.txt	LTP102	ltpFR	17	8	0	FRAGRANCE	599	n/a	n/a	0	n/a	n/a	n/a	n/a	n/a
1468.128	n/a	REC_WORD	734064	wordpools/wasnorm_wordpool.txt	LTP102	ltpFR	17	8	1	CHAMBER	277	n/a	n/a	0	n/a	n/a	n/a	n/a	n/a
1470.648	n/a	REC_WORD_VV	735324	wordpools/wasnorm_wordpool.txt	LTP102	ltpFR	17	8	n/a	<>	-1	n/a	n/a	n/a	n/a	n/a	n/a	n/a	n/a
1471.316	n/a	REC_WORD	735658	wordpools/wasnorm_wordpool.txt	LTP102	ltpFR	17	8	1	CRYSTAL	418	n/a	n/a	0	n/a	n/a	n/a	n/a	n/a
1474.934	n/a	REC_WORD	737467	wordpools/wasnorm_wordpool.txt	LTP102	ltpFR	17	8	1	HUMAN	726	n/a	n/a	1	n/a	n/a	n/a	n/a	n/a
1480.356	n/a	REC_WORD	740178	wordpools/wasnorm_wordpool.txt	LTP102	ltpFR	17	8	n/a	BOOK	149	n/a	n/a	n/a	n/a	n/a	n/a	n/a	n/a
1487.434	n/a	REC_WORD	743717	wordpools/wasnorm_wordpool.txt	LTP102	ltpFR	17	8	-1	BED	110	n/a	n/a	-1	n/a	n/a	n/a	n/a	n/a
1517.986	n/a	WORD	758993	wordpools/wasnorm_wordpool.txt	LTP102	ltpFR	17	9	-1	SPIDER	1351	n/a	n/a	-1	1.0	1.0	1	upper	Verdana.ttf
1521.928	n/a	WORD	760964	wordpools/wasnorm_wordpool.txt	LTP102	ltpFR	17	9	-1	CONSUMER	365	n/a	n/a	-1	1.0	1.0	1	upper	Verdana.ttf
1525.752	n/a	WORD	762876	wordpools/wasnorm_wordpool.txt	LTP102	ltpFR	17	9	-1	RECEIPT	1173	n/a	n/a	-1	1.0	1.0	1	upper	Verdana.ttf
1529.876	n/a	WORD	764938	wordpools/wasnorm_wordpool.txt	LTP102	ltpFR	17	9	-1	CREVICE	405	n/a	n/a	-1	1.0	1.0	1	upper	Verdana.ttf
1533.86	n/a	WORD	766930	wordpools/wasnorm_wordpool.txt	LTP102	ltpFR	17	9	-1	GIRL	637	n/a	n/a	-1	1.0	1.0	1	upper	Verdana.ttf
1537.702	n/a	WORD	768851	wordpools/wasnorm_wordpool.txt	LTP102	ltpFR	17	9	-1	SKILLET	1317	n/a	n/a	-1	1.0	1.0	1	upper	Verdana.ttf
1541.876	n/a	WORD	770938	wordpools/wasnorm_wordpool.txt	LTP102	ltpFR	17	9	-1	PAN	1008	n/a	n/a	-1	1.0	1.0	1	upper	Verdana.ttf
1546.052	n/a	WORD	773026	wordpools/wasnorm_wordpool.txt	LTP102	ltpFR	17	9	-1	BARN	89	n/a	n/a	-1	1.0	1.0	1	upper	Verdana.ttf
1550.026	n/a	WORD	775013	wordpools/wasnorm_wordpool.txt	LTP102	ltpFR	17	9	-1	MOTH	920	n/a	n/a	-1	1.0	1.0	1	upper	Verdana.ttf
1554.052	n/a	WORD	777026	wordpools/wasnorm_wordpool.txt	LTP102	ltpFR	17	9	-1	GRIZZLY	662	n/a	n/a	-1	1.0	1.0	1	upper	Verdana.ttf
1557.952	n/a	WORD	778976	wordpools/wasnorm_wordpool.txt	LTP102	ltpFR	17	9	-1	WILDERNESS	1610	n/a	n/a	-1	1.0	1.0	1	upper	Verdana.ttf
1561.934	n/a	WORD	780967	wordpools/wasnorm_wordpool.txt	LTP102	ltpFR	17	9	-1	HOOD	714	n/a	n/a	-1	1.0	1.0	1	upper	Verdana.ttf
1565.8	n/a	WORD	782900	wordpools/wasnorm_wordpool.txt	LTP102	ltpFR	17	9	-1	SCRIBBLE	1256	n/a	n/a	-1	1.0	1.0	1	upper	Verdana.ttf
1569.776	n/a	WORD	784888	wordpools/wasnorm_wordpool.txt	LTP102	ltpFR	17	9	-1	WAITRESS	1581	n/a	n/a	-1	1.0	1.0	1	upper	Verdana.ttf
1573.692	n/a	WORD	786846	wordpools/wasnorm_wordpool.txt	LTP102	ltpFR	17	9	-1	VEST	1559	n/a	n/a	-1	1.0	1.0	1	upper	Verdana.ttf
1577.776	n/a	WORD	788888	wordpools/wasnorm_wordpool.txt	LTP102	ltpFR	17	9	-1	DIARY	460	n/a	n/a	-1	1.0	1.0	1	upper	Verdana.ttf
1583.552	n/a	REC_START	791776	n/a	LTP102	ltpFR	17	9	n/a	n/a	n/a	n/a	n/a	n/a	n/a	n/a	n/a	n/a	n/a
1585.584	n/a	REC_WORD	792792	wordpools/wasnorm_wordpool.txt	LTP102	ltpFR	17	9	-1	DIARY	460	n/a	n/a	-1	n/a	n/a	n/a	n/a	n/a
1587.716	n/a	REC_WORD	793858	wordpools/wasnorm_wordpool.txt	LTP102	ltpFR	17	9	1	SKETCH	1315	n/a	n/a	0	n/a	n/a	n/a	n/a	n/a
1589.838	n/a	REC_WORD_VV	794919	wordpools/wasnorm_wordpool.txt	LTP102	ltpFR	17	9	n/a	<>	-1	n/a	n/a	n/a	n/a	n/a	n/a	n/a	n/a
1591.184	n/a	REC_WORD	795592	wordpools/wasnorm_wordpool.txt	LTP102	ltpFR	17	9	1	DIAGRAM	456	n/a	n/a	0	n/a	n/a	n/a	n/a	n/a
1594.208	n/a	REC_WORD	797104	wordpools/wasnorm_wordpool.txt	LTP102	ltpFR	17	9	0	BUCKET	184	n/a	n/a	1	n/a	n/a	n/a	n/a	n/a
1596.992	n/a	REC_WORD	798496	wordpools/wasnorm_wordpool.txt	LTP102	ltpFR	17	9	1	TOAD	1470	n/a	n/a	1	n/a	n/a	n/a	n/a	n/a
1607.432	n/a	REC_WORD	803716	wordpools/wasnorm_wordpool.txt	LTP102	ltpFR	17	9	0	BLACKBERRY	132	n/a	n/a	0	n/a	n/a	n/a	n/a	n/a
1609.738	n/a	REC_WORD	804869	wordpools/wasnorm_wordpool.txt	LTP102	ltpFR	17	9	-1	ISLAND	745	n/a	n/a	-1	n/a	n/a	n/a	n/a	n/a
1612.134	n/a	REC_WORD	806067	wordpools/wasnorm_wordpool.txt	LTP102	ltpFR	17	9	-1	DIAMOND	458	n/a	n/a	-1	n/a	n/a	n/a	n/a	n/a
1614.334	n/a	REC_WORD	807167	wordpools/wasnorm_wordpool.txt	LTP102	ltpFR	17	9	-1	ROOT	1210	n/a	n/a	-1	n/a	n/a	n/a	n/a	n/a
1618.654	n/a	REC_WORD	809327	wordpools/wasnorm_wordpool.txt	LTP102	ltpFR	17	9	-1	HOOD	714	n/a	n/a	-1	n/a	n/a	n/a	n/a	n/a
1650.952	n/a	REC_WORD	825476	wordpools/wasnorm_wordpool.txt	LTP102	ltpFR	17	9	-1	PAN	1008	n/a	n/a	-1	n/a	n/a	n/a	n/a	n/a
1669.79	n/a	WORD	834895	wordpools/wasnorm_wordpool.txt	LTP102	ltpFR	17	10	-1	DIGGER	464	n/a	n/a	-1	1.0	1.0	1	upper	Verdana.ttf
1673.974	n/a	WORD	836987	wordpools/wasnorm_wordpool.txt	LTP102	ltpFR	17	10	-1	ALLIGATOR	16	n/a	n/a	-1	1.0	1.0	1	upper	Verdana.ttf
1677.89	n/a	WORD	838945	wordpools/wasnorm_wordpool.txt	LTP102	ltpFR	17	10	-1	DUNGEON	507	n/a	n/a	-1	1.0	1.0	1	upper	Verdana.ttf
1681.99	n/a	WORD	840995	wordpools/wasnorm_wordpool.txt	LTP102	ltpFR	17	10	-1	BUN	197	n/a	n/a	-1	1.0	1.0	1	upper	Verdana.ttf
1685.814	n/a	WORD	842907	wordpools/wasnorm_wordpool.txt	LTP102	ltpFR	17	10	-1	VAULT	1550	n/a	n/a	-1	1.0	1.0	1	upper	Verdana.ttf
1689.798	n/a	WORD	844899	wordpools/wasnorm_wordpool.txt	LTP102	ltpFR	17	10	-1	OUTLAW	989	n/a	n/a	-1	1.0	1.0	1	upper	Verdana.ttf
1693.906	n/a	WORD	846953	wordpools/wasnorm_wordpool.txt	LTP102	ltpFR	17	10	-1	LOAF	835	n/a	n/a	-1	1.0	1.0	1	upper	Verdana.ttf
1697.972	n/a	WORD	848986	wordpools/wasnorm_wordpool.txt	LTP102	ltpFR	17	10	-1	JELLY	755	n/a	n/a	-1	1.0	1.0	1	upper	Verdana.ttf
1701.948	n/a	WORD	850974	wordpools/wasnorm_wordpool.txt	LTP102	ltpFR	17	10	-1	WALLET	1583	n/a	n/a	-1	1.0	1.0	1	upper	Verdana.ttf
1705.99	n/a	WORD	852995	wordpools/wasnorm_wordpool.txt	LTP102	ltpFR	17	10	-1	PRESIDENT	1121	n/a	n/a	-1	1.0	1.0	1	upper	Verdana.ttf
1709.948	n/a	WORD	854974	wordpools/wasnorm_wordpool.txt	LTP102	ltpFR	17	10	-1	CROWN	415	n/a	n/a	-1	1.0	1.0	1	upper	Verdana.ttf
1713.99	n/a	WORD	856995	wordpools/wasnorm_wordpool.txt	LTP102	ltpFR	17	10	-1	QUEEN	1149	n/a	n/a	-1	1.0	1.0	1	upper	Verdana.ttf
1718.182	n/a	WORD	859091	wordpools/wasnorm_wordpool.txt	LTP102	ltpFR	17	10	-1	MEAT	883	n/a	n/a	-1	1.0	1.0	1	upper	Verdana.ttf
1722.33	n/a	WORD	861165	wordpools/wasnorm_wordpool.txt	LTP102	ltpFR	17	10	-1	GALAXY	617	n/a	n/a	-1	1.0	1.0	1	upper	Verdana.ttf
1726.256	n/a	WORD	863128	wordpools/wasnorm_wordpool.txt	LTP102	ltpFR	17	10	-1	EARTH	515	n/a	n/a	-1	1.0	1.0	1	upper	Verdana.ttf
1730.256	n/a	WORD	865128	wordpools/wasnorm_wordpool.txt	LTP102	ltpFR	17	10	-1	BULLET	194	n/a	n/a	-1	1.0	1.0	1	upper	Verdana.ttf
1736.34	n/a	REC_START	868170	n/a	LTP102	ltpFR	17	10	n/a	n/a	n/a	n/a	n/a	n/a	n/a	n/a	n/a	n/a	n/a
1737.342	n/a	REC_WORD	868671	wordpools/wasnorm_wordpool.txt	LTP102	ltpFR	17	10	-1	BULLET	194	n/a	n/a	-1	n/a	n/a	n/a	n/a	n/a
1739.268	n/a	REC_WORD	869634	wordpools/wasnorm_wordpool.txt	LTP102	ltpFR	17	10	-1	EARTH	515	n/a	n/a	-1	n/a	n/a	n/a	n/a	n/a
1744.596	n/a	REC_WORD	872298	wordpools/wasnorm_wordpool.txt	LTP102	ltpFR	17	10	-1	BULLET	194	n/a	n/a	-1	n/a	n/a	n/a	n/a	n/a
1749.97	n/a	REC_WORD	874985	wordpools/wasnorm_wordpool.txt	LTP102	ltpFR	17	10	-1	GALAXY	617	n/a	n/a	-1	n/a	n/a	n/a	n/a	n/a
1754.414	n/a	REC_WORD	877207	wordpools/wasnorm_wordpool.txt	LTP102	ltpFR	17	10	0	POLE	1097	n/a	n/a	1	n/a	n/a	n/a	n/a	n/a
1757.212	n/a	REC_WORD	878606	wordpools/wasnorm_wordpool.txt	LTP102	ltpFR	17	10	-1	SATURN	1236	n/a	n/a	-1	n/a	n/a	n/a	n/a	n/a
1759.872	n/a	REC_WORD	879936	wordpools/wasnorm_wordpool.txt	LTP102	ltpFR	17	10	-1	MARS	873	n/a	n/a	-1	n/a	n/a	n/a	n/a	n/a
1767.854	n/a	REC_WORD	883927	wordpools/wasnorm_wordpool.txt	LTP102	ltpFR	17	10	-1	DIGGER	464	n/a	n/a	-1	n/a	n/a	n/a	n/a	n/a
1771.716	n/a	REC_WORD	885858	wordpools/wasnorm_wordpool.txt	LTP102	ltpFR	17	10	-1	MEAT	883	n/a	n/a	-1	n/a	n/a	n/a	n/a	n/a
1773.702	n/a	REC_WORD	886851	wordpools/wasnorm_wordpool.txt	LTP102	ltpFR	17	10	-1	VAULT	1550	n/a	n/a	-1	n/a	n/a	n/a	n/a	n/a
1778.63	n/a	REC_WORD	889315	wordpools/wasnorm_wordpool.txt	LTP102	ltpFR	17	10	n/a	RICE	1190	n/a	n/a	n/a	n/a	n/a	n/a	n/a	n/a
1784.062	n/a	REC_WORD	892031	wordpools/wasnorm_wordpool.txt	LTP102	ltpFR	17	10	n/a	RICE	1190	n/a	n/a	n/a	n/a	n/a	n/a	n/a	n/a
1792.306	n/a	REC_WORD	896153	wordpools/wasnorm_wordpool.txt	LTP102	ltpFR	17	10	-1	WAITRESS	1581	n/a	n/a	-1	n/a	n/a	n/a	n/a	n/a
1795.432	n/a	REC_WORD	897716	wordpools/wasnorm_wordpool.txt	LTP102	ltpFR	17	10	-1	ALLIGATOR	16	n/a	n/a	-1	n/a	n/a	n/a	n/a	n/a
1800.542	n/a	REC_WORD	900271	wordpools/wasnorm_wordpool.txt	LTP102	ltpFR	17	10	0	BLACKBERRY	132	n/a	n/a	0	n/a	n/a	n/a	n/a	n/a
1819.17	n/a	WORD	909585	wordpools/wasnorm_wordpool.txt	LTP102	ltpFR	17	11	-1	TAR	1435	n/a	n/a	-1	1.0	1.0	1	upper	Verdana.ttf
1823.352	n/a	WORD	911676	wordpools/wasnorm_wordpool.txt	LTP102	ltpFR	17	11	-1	RAILROAD	1162	n/a	n/a	-1	1.0	1.0	1	upper	Verdana.ttf
1827.254	n/a	WORD	913627	wordpools/wasnorm_wordpool.txt	LTP102	ltpFR	17	11	-1	FLORIDA	582	n/a	n/a	-1	1.0	1.0	1	upper	Verdana.ttf
1831.296	n/a	WORD	915648	wordpools/wasnorm_wordpool.txt	LTP102	ltpFR	17	11	-1	NIGHTGOWN	953	n/a	n/a	-1	1.0	1.0	1	upper	Verdana.ttf
1835.36	n/a	WORD	917680	wordpools/wasnorm_wordpool.txt	LTP102	ltpFR	17	11	-1	GRAVE	658	n/a	n/a	-1	1.0	1.0	1	upper	Verdana.ttf
1839.368	n/a	WORD	919684	wordpools/wasnorm_wordpool.txt	LTP102	ltpFR	17	11	-1	SUPERMARKET	1409	n/a	n/a	-1	1.0	1.0	1	upper	Verdana.ttf
1843.468	n/a	WORD	921734	wordpools/wasnorm_wordpool.txt	LTP102	ltpFR	17	11	-1	STORE	1387	n/a	n/a	-1	1.0	1.0	1	upper	Verdana.ttf
1847.536	n/a	WORD	923768	wordpools/wasnorm_wordpool.txt	LTP102	ltpFR	17	11	-1	BLANKET	135	n/a	n/a	-1	1.0	1.0	1	upper	Verdana.ttf
1851.644	n/a	WORD	925822	wordpools/wasnorm_wordpool.txt	LTP102	ltpFR	17	11	-1	FISH	571	n/a	n/a	-1	1.0	1.0	1	upper	Verdana.ttf
1855.484	n/a	WORD	927742	wordpools/wasnorm_wordpool.txt	LTP102	ltpFR	17	11	-1	DINOSAUR	469	n/a	n/a	-1	1.0	1.0	1	upper	Verdana.ttf
1859.442	n/a	WORD	929721	wordpools/wasnorm_wordpool.txt	LTP102	ltpFR	17	11	-1	CITY	314	n/a	n/a	-1	1.0	1.0	1	upper	Verdana.ttf
1863.344	n/a	WORD	931672	wordpools/wasnorm_wordpool.txt	LTP102	ltpFR	17	11	-1	FOREST	593	n/a	n/a	-1	1.0	1.0	1	upper	Verdana.ttf
1867.178	n/a	WORD	933589	wordpools/wasnorm_wordpool.txt	LTP102	ltpFR	17	11	-1	CELLO	268	n/a	n/a	-1	1.0	1.0	1	upper	Verdana.ttf
1871.052	n/a	WORD	935526	wordpools/wasnorm_wordpool.txt	LTP102	ltpFR	17	11	-1	CLARINET	317	n/a	n/a	-1	1.0	1.0	1	upper	Verdana.ttf
1875.16	n/a	WORD	937580	wordpools/wasnorm_wordpool.txt	LTP102	ltpFR	17	11	-1	BIBLE	124	n/a	n/a	-1	1.0	1.0	1	upper	Verdana.ttf
1879.358	n/a	WORD	939679	wordpools/wasnorm_wordpool.txt	LTP102	ltpFR	17	11	-1	FOLLOWER	589	n/a	n/a	-1	1.0	1.0	1	upper	Verdana.ttf
1884.986	n/a	REC_START	942493	n/a	LTP102	ltpFR	17	11	n/a	n/a	n/a	n/a	n/a	n/a	n/a	n/a	n/a	n/a	n/a
1887.344	n/a	REC_WORD	943672	wordpools/wasnorm_wordpool.txt	LTP102	ltpFR	17	11	-1	FOLLOWER	589	n/a	n/a	-1	n/a	n/a	n/a	n/a	n/a
1890.538	n/a	REC_WORD	945269	wordpools/wasnorm_wordpool.txt	LTP102	ltpFR	17	11	0	TURKEY	1520	n/a	n/a	1	n/a	n/a	n/a	n/a	n/a
1893.222	n/a	REC_WORD	946611	wordpools/wasnorm_wordpool.txt	LTP102	ltpFR	17	11	-1	CROWN	415	n/a	n/a	-1	n/a	n/a	n/a	n/a	n/a
1896.942	n/a	REC_WORD	948471	wordpools/wasnorm_wordpool.txt	LTP102	ltpFR	17	11	-1	QUEEN	1149	n/a	n/a	-1	n/a	n/a	n/a	n/a	n/a
1898.514	n/a	REC_WORD	949257	wordpools/wasnorm_wordpool.txt	LTP102	ltpFR	17	11	1	KING	777	n/a	n/a	1	n/a	n/a	n/a	n/a	n/a
1900.25	n/a	REC_WORD	950125	wordpools/wasnorm_wordpool.txt	LTP102	ltpFR	17	11	-1	PRESIDENT	1121	n/a	n/a	-1	n/a	n/a	n/a	n/a	n/a
1902.036	n/a	REC_WORD	951018	wordpools/wasnorm_wordpool.txt	LTP102	ltpFR	17	11	-1	FOLLOWER	589	n/a	n/a	-1	n/a	n/a	n/a	n/a	n/a
1907.21	n/a	REC_WORD	953605	wordpools/wasnorm_wordpool.txt	LTP102	ltpFR	17	11	-1	BULLET	194	n/a	n/a	-1	n/a	n/a	n/a	n/a	n/a
1911.88	n/a	REC_WORD	955940	wordpools/wasnorm_wordpool.txt	LTP102	ltpFR	17	11	-1	GALAXY	617	n/a	n/a	-1	n/a	n/a	n/a	n/a	n/a
1915.686	n/a	REC_WORD	957843	wordpools/wasnorm_wordpool.txt	LTP102	ltpFR	17	11	-1	MARS	873	n/a	n/a	-1	n/a	n/a	n/a	n/a	n/a
1917.268	n/a	REC_WORD	958634	wordpools/wasnorm_wordpool.txt	LTP102	ltpFR	17	11	-1	SATURN	1236	n/a	n/a	-1	n/a	n/a	n/a	n/a	n/a
1922.96	n/a	REC_WORD	961480	wordpools/wasnorm_wordpool.txt	LTP102	ltpFR	17	11	-1	ROOT	1210	n/a	n/a	-1	n/a	n/a	n/a	n/a	n/a
1934.828	n/a	REC_WORD	967414	wordpools/wasnorm_wordpool.txt	LTP102	ltpFR	17	11	n/a	OFFICE	972	n/a	n/a	n/a	n/a	n/a	n/a	n/a	n/a
1937.068	n/a	REC_WORD	968534	wordpools/wasnorm_wordpool.txt	LTP102	ltpFR	17	11	n/a	TOFU	-1	n/a	n/a	n/a	n/a	n/a	n/a	n/a	n/a
1943.256	n/a	REC_WORD	971628	wordpools/wasnorm_wordpool.txt	LTP102	ltpFR	17	11	1	BELT	120	n/a	n/a	0	n/a	n/a	n/a	n/a	n/a
1957.798	n/a	REC_WORD	978899	wordpools/wasnorm_wordpool.txt	LTP102	ltpFR	17	11	n/a	TOMATO	1476	n/a	n/a	n/a	n/a	n/a	n/a	n/a	n/a
1966.024	n/a	WORD	983012	wordpools/wasnorm_wordpool.txt	LTP102	ltpFR	17	12	1	BARTENDER	92	n/a	n/a	1	0.422607421875	0.5869140625	0	lower	zerothre.ttf
1970.132	n/a	WORD	985066	wordpools/wasnorm_wordpool.txt	LTP102	ltpFR	17	12	1	VACUUM	1543	n/a	n/a	0	0.422607421875	0.5869140625	0	lower	zerothre.ttf
1974.1	n/a	WORD	987050	wordpools/wasnorm_wordpool.txt	LTP102	ltpFR	17	12	0	PEANUT	1032	n/a	n/a	0	0.57763671875	0.412841796875	1	upper	amplitud.ttf
1978.198	n/a	WORD	989099	wordpools/wasnorm_wordpool.txt	LTP102	ltpFR	17	12	0	RABBIT	1152	n/a	n/a	1	0.57763671875	0.412841796875	1	upper	amplitud.ttf
1982.016	n/a	WORD	991008	wordpools/wasnorm_wordpool.txt	LTP102	ltpFR	17	12	0	HARE	688	n/a	n/a	1	0.57763671875	0.412841796875	1	upper	amplitud.ttf
1985.874	n/a	WORD	992937	wordpools/wasnorm_wordpool.txt	LTP102	ltpFR	17	12	0	GUARD	667	n/a	n/a	1	0.57763671875	0.412841796875	1	upper	amplitud.ttf
1989.856	n/a	WORD	994928	wordpools/wasnorm_wordpool.txt	LTP102	ltpFR	17	12	0	TOENAIL	1474	n/a	n/a	0	0.57763671875	0.412841796875	1	upper	amplitud.ttf
1993.956	n/a	WORD	996978	wordpools/wasnorm_wordpool.txt	LTP102	ltpFR	17	12	1	DAISY	435	n/a	n/a	1	0.422607421875	0.5869140625	0	lower	zerothre.ttf
1997.964	n/a	WORD	998982	wordpools/wasnorm_wordpool.txt	LTP102	ltpFR	17	12	1	RELATIVE	1182	n/a	n/a	1	0.422607421875	0.5869140625	0	lower	zerothre.ttf
2001.798	n/a	WORD	1000899	wordpools/wasnorm_wordpool.txt	LTP102	ltpFR	17	12	1	MARGARINE	868	n/a	n/a	0	0.422607421875	0.5869140625	0	lower	zerothre.ttf
2005.948	n/a	WORD	1002974	wordpools/wasnorm_wordpool.txt	LTP102	ltpFR	17	12	1	WART	1590	n/a	n/a	0	0.422607421875	0.5869140625	0	lower	zerothre.ttf
2009.99	n/a	WORD	1004995	wordpools/wasnorm_wordpool.txt	LTP102	ltpFR	17	12	1	NOOSE	956	n/a	n/a	0	0.422607421875	0.5869140625	0	lower	zerothre.ttf
2014.124	n/a	WORD	1007062	wordpools/wasnorm_wordpool.txt	LTP102	ltpFR	17	12	1	VICTIM	1562	n/a	n/a	1	0.422607421875	0.5869140625	0	lower	zerothre.ttf
2018.272	n/a	WORD	1009136	wordpools/wasnorm_wordpool.txt	LTP102	ltpFR	17	12	0	MEAL	882	n/a	n/a	0	0.57763671875	0.412841796875	1	upper	amplitud.ttf
2022.39	n/a	WORD	1011195	wordpools/wasnorm_wordpool.txt	LTP102	ltpFR	17	12	0	COOK	372	n/a	n/a	1	0.57763671875	0.412841796875	1	upper	amplitud.ttf
2026.43	n/a	WORD	1013215	wordpools/wasnorm_wordpool.txt	LTP102	ltpFR	17	12	0	BATH	98	n/a	n/a	1	0.57763671875	0.412841796875	1	upper	amplitud.ttf
2032.132	n/a	REC_START	1016066	n/a	LTP102	ltpFR	17	12	n/a	n/a	n/a	n/a	n/a	n/a	n/a	n/a	n/a	n/a	n/a
2033.918	n/a	REC_WORD	1016959	wordpools/wasnorm_wordpool.txt	LTP102	ltpFR	17	12	0	BATH	98	n/a	n/a	1	n/a	n/a	n/a	n/a	n/a
2035.458	n/a	REC_WORD	1017729	wordpools/wasnorm_wordpool.txt	LTP102	ltpFR	17	12	0	COOK	372	n/a	n/a	1	n/a	n/a	n/a	n/a	n/a
2037.364	n/a	REC_WORD	1018682	wordpools/wasnorm_wordpool.txt	LTP102	ltpFR	17	12	0	MEAL	882	n/a	n/a	0	n/a	n/a	n/a	n/a	n/a
2040.218	n/a	REC_WORD	1020109	wordpools/wasnorm_wordpool.txt	LTP102	ltpFR	17	12	-1	TAR	1435	n/a	n/a	-1	n/a	n/a	n/a	n/a	n/a
2042.684	n/a	REC_WORD	1021342	wordpools/wasnorm_wordpool.txt	LTP102	ltpFR	17	12	-1	RAILROAD	1162	n/a	n/a	-1	n/a	n/a	n/a	n/a	n/a
2047.142	n/a	REC_WORD	1023571	wordpools/wasnorm_wordpool.txt	LTP102	ltpFR	17	12	-1	CONSUMER	365	n/a	n/a	-1	n/a	n/a	n/a	n/a	n/a
2049.268	n/a	REC_WORD	1024634	wordpools/wasnorm_wordpool.txt	LTP102	ltpFR	17	12	0	BUYER	208	n/a	n/a	1	n/a	n/a	n/a	n/a	n/a
2055.036	n/a	REC_WORD	1027518	wordpools/wasnorm_wordpool.txt	LTP102	ltpFR	17	12	n/a	HERO	706	n/a	n/a	n/a	n/a	n/a	n/a	n/a	n/a
2056.806	n/a	REC_WORD	1028403	wordpools/wasnorm_wordpool.txt	LTP102	ltpFR	17	12	1	VICTIM	1562	n/a	n/a	1	n/a	n/a	n/a	n/a	n/a
2059.664	n/a	REC_WORD	1029832	wordpools/wasnorm_wordpool.txt	LTP102	ltpFR	17	12	1	SHERIFF	1284	n/a	n/a	1	n/a	n/a	n/a	n/a	n/a
2076.382	n/a	REC_WORD	1038191	wordpools/wasnorm_wordpool.txt	LTP102	ltpFR	17	12	-1	VAULT	1550	n/a	n/a	-1	n/a	n/a	n/a	n/a	n/a
2089.978	n/a	REC_WORD	1044989	wordpools/wasnorm_wordpool.txt	LTP102	ltpFR	17	12	1	BARTENDER	92	n/a	n/a	1	n/a	n/a	n/a	n/a	n/a
2096.842	n/a	REC_WORD	1048421	wordpools/wasnorm_wordpool.txt	LTP102	ltpFR	17	12	-1	BRIDGE	174	n/a	n/a	-1	n/a	n/a	n/a	n/a	n/a
2104.636	n/a	REC_WORD	1052318	wordpools/wasnorm_wordpool.txt	LTP102	ltpFR	17	12	0	BEAN	105	n/a	n/a	0	n/a	n/a	n/a	n/a	n/a
2107.762	n/a	REST_REWET	1053881	n/a	LTP102	ltpFR	17	12	n/a	n/a	n/a	n/a	n/a	n/a	n/a	n/a	n/a	n/a	n/a
2516.734	n/a	WORD	1258367	wordpools/wasnorm_wordpool.txt	LTP102	ltpFR	17	13	0	RODENT	1204	n/a	n/a	0	0.57763671875	0.412841796875	1	upper	amplitud.ttf
2520.85	n/a	WORD	1260425	wordpools/wasnorm_wordpool.txt	LTP102	ltpFR	17	13	0	LUMBER	848	n/a	n/a	1	0.57763671875	0.412841796875	1	upper	amplitud.ttf
2524.684	n/a	WORD	1262342	wordpools/wasnorm_wordpool.txt	LTP102	ltpFR	17	13	0	FIGHTER	564	n/a	n/a	1	0.57763671875	0.412841796875	1	upper	amplitud.ttf
2528.884	n/a	WORD	1264442	wordpools/wasnorm_wordpool.txt	LTP102	ltpFR	17	13	0	BOXER	160	n/a	n/a	1	0.57763671875	0.412841796875	1	upper	amplitud.ttf
2533.034	n/a	WORD	1266517	wordpools/wasnorm_wordpool.txt	LTP102	ltpFR	17	13	0	WEED	1599	n/a	n/a	0	0.57763671875	0.412841796875	1	upper	amplitud.ttf
2537.102	n/a	WORD	1268551	wordpools/wasnorm_wordpool.txt	LTP102	ltpFR	17	13	0	HEDGE	699	n/a	n/a	1	0.57763671875	0.412841796875	1	upper	amplitud.ttf
2540.924	n/a	WORD	1270462	wordpools/wasnorm_wordpool.txt	LTP102	ltpFR	17	13	0	PENCIL	1042	n/a	n/a	0	0.57763671875	0.412841796875	1	upper	amplitud.ttf
2544.992	n/a	WORD	1272496	wordpools/wasnorm_wordpool.txt	LTP102	ltpFR	17	13	0	TANGERINE	1431	n/a	n/a	0	0.57763671875	0.412841796875	1	upper	amplitud.ttf
2549.076	n/a	WORD	1274538	wordpools/wasnorm_wordpool.txt	LTP102	ltpFR	17	13	0	BOARD	143	n/a	n/a	1	0.57763671875	0.412841796875	1	upper	amplitud.ttf
2552.892	n/a	WORD	1276446	wordpools/wasnorm_wordpool.txt	LTP102	ltpFR	17	13	0	BODY	145	n/a	n/a	1	0.57763671875	0.412841796875	1	upper	amplitud.ttf
2556.9	n/a	WORD	1278450	wordpools/wasnorm_wordpool.txt	LTP102	ltpFR	17	13	0	FLANNEL	574	n/a	n/a	0	0.57763671875	0.412841796875	1	upper	amplitud.ttf
2560.932	n/a	WORD	1280466	wordpools/wasnorm_wordpool.txt	LTP102	ltpFR	17	13	0	CAT	257	n/a	n/a	0	0.57763671875	0.412841796875	1	upper	amplitud.ttf
2564.758	n/a	WORD	1282379	wordpools/wasnorm_wordpool.txt	LTP102	ltpFR	17	13	0	GOBLIN	645	n/a	n/a	1	0.57763671875	0.412841796875	1	upper	amplitud.ttf
2568.658	n/a	WORD	1284329	wordpools/wasnorm_wordpool.txt	LTP102	ltpFR	17	13	0	BERRY	122	n/a	n/a	0	0.57763671875	0.412841796875	1	upper	amplitud.ttf
2572.674	n/a	WORD	1286337	wordpools/wasnorm_wordpool.txt	LTP102	ltpFR	17	13	0	SCOTCH	1251	n/a	n/a	1	0.57763671875	0.412841796875	1	upper	amplitud.ttf
2576.8	n/a	WORD	1288400	wordpools/wasnorm_wordpool.txt	LTP102	ltpFR	17	13	0	BRANDY	169	n/a	n/a	0	0.57763671875	0.412841796875	1	upper	amplitud.ttf
2582.774	n/a	REC_START	1291387	n/a	LTP102	ltpFR	17	13	n/a	n/a	n/a	n/a	n/a	n/a	n/a	n/a	n/a	n/a	n/a
2584.66	n/a	REC_WORD	1292330	wordpools/wasnorm_wordpool.txt	LTP102	ltpFR	17	13	0	SCOTCH	1251	n/a	n/a	1	n/a	n/a	n/a	n/a	n/a
2586.44	n/a	REC_WORD	1293220	wordpools/wasnorm_wordpool.txt	LTP102	ltpFR	17	13	0	BRANDY	169	n/a	n/a	0	n/a	n/a	n/a	n/a	n/a
2588.122	n/a	REC_WORD	1294061	wordpools/wasnorm_wordpool.txt	LTP102	ltpFR	17	13	0	RODENT	1204	n/a	n/a	0	n/a	n/a	n/a	n/a	n/a
2590.028	n/a	REC_WORD	1295014	wordpools/wasnorm_wordpool.txt	LTP102	ltpFR	17	13	0	WEED	1599	n/a	n/a	0	n/a	n/a	n/a	n/a	n/a
2591.884	n/a	REC_WORD	1295942	wordpools/wasnorm_wordpool.txt	LTP102	ltpFR	17	13	0	FIGHTER	564	n/a	n/a	1	n/a	n/a	n/a	n/a	n/a
2593.86	n/a	REC_WORD	1296930	wordpools/wasnorm_wordpool.txt	LTP102	ltpFR	17	13	n/a	CLIMBER	323	n/a	n/a	n/a	n/a	n/a	n/a	n/a	n/a
2597.402	n/a	REC_WORD	1298701	wordpools/wasnorm_wordpool.txt	LTP102	ltpFR	17	13	0	LUMBER	848	n/a	n/a	1	n/a	n/a	n/a	n/a	n/a
2600.27	n/a	REC_WORD	1300135	wordpools/wasnorm_wordpool.txt	LTP102	ltpFR	17	13	0	HEDGE	699	n/a	n/a	1	n/a	n/a	n/a	n/a	n/a
2603.524	n/a	REC_WORD	1301762	wordpools/wasnorm_wordpool.txt	LTP102	ltpFR	17	13	0	BODY	145	n/a	n/a	1	n/a	n/a	n/a	n/a	n/a
2613.416	n/a	REC_WORD	1306708	wordpools/wasnorm_wordpool.txt	LTP102	ltpFR	17	13	0	WEED	1599	n/a	n/a	0	n/a	n/a	n/a	n/a	n/a
2615.826	n/a	REC_WORD	1307913	wordpools/wasnorm_wordpool.txt	LTP102	ltpFR	17	13	n/a	POT	1114	n/a	n/a	n/a	n/a	n/a	n/a	n/a	n/a
2620.954	n/a	REC_WORD	1310477	wordpools/wasnorm_wordpool.txt	LTP102	ltpFR	17	13	1	VACUUM	1543	n/a	n/a	0	n/a	n/a	n/a	n/a	n/a
2643.874	n/a	REC_WORD	1321937	wordpools/wasnorm_wordpool.txt	LTP102	ltpFR	17	13	0	ARTIST	43	n/a	n/a	1	n/a	n/a	n/a	n/a	n/a
2650.694	n/a	REC_WORD	1325347	wordpools/wasnorm_wordpool.txt	LTP102	ltpFR	17	13	0	CHEMICAL	291	n/a	n/a	0	n/a	n/a	n/a	n/a	n/a
2656.69	n/a	REC_WORD	1328345	wordpools/wasnorm_wordpool.txt	LTP102	ltpFR	17	13	0	RODENT	1204	n/a	n/a	0	n/a	n/a	n/a	n/a	n/a
2661.588	n/a	WORD	1330794	wordpools/wasnorm_wordpool.txt	LTP102	ltpFR	17	14	0	SAUSAGE	1238	n/a	n/a	0	0.57763671875	0.412841796875	1	upper	amplitud.ttf
2665.554	n/a	WORD	1332777	wordpools/wasnorm_wordpool.txt	LTP102	ltpFR	17	14	0	COLESLAW	344	n/a	n/a	1	0.57763671875	0.412841796875	1	upper	amplitud.ttf
2669.688	n/a	WORD	1334844	wordpools/wasnorm_wordpool.txt	LTP102	ltpFR	17	14	1	TURTLE	1522	n/a	n/a	1	0.422607421875	0.5869140625	0	lower	zerothre.ttf
2673.746	n/a	WORD	1336873	wordpools/wasnorm_wordpool.txt	LTP102	ltpFR	17	14	1	WORM	1623	n/a	n/a	1	0.422607421875	0.5869140625	0	lower	zerothre.ttf
2677.762	n/a	WORD	1338881	wordpools/wasnorm_wordpool.txt	LTP102	ltpFR	17	14	0	SLUG	1329	n/a	n/a	0	0.57763671875	0.412841796875	1	upper	amplitud.ttf
2681.804	n/a	WORD	1340902	wordpools/wasnorm_wordpool.txt	LTP102	ltpFR	17	14	0	TOWN	1491	n/a	n/a	2	0.57763671875	0.412841796875	1	upper	amplitud.ttf
2683.912	n/a	KEY_MSG	1341956	n/a	LTP102	ltpFR	17	14	n/a	n/a	n/a	n/a	n/a	n/a	n/a	n/a	n/a	n/a	n/a
2686.388	n/a	WORD	1343194	wordpools/wasnorm_wordpool.txt	LTP102	ltpFR	17	14	0	PICTURE	1061	n/a	n/a	0	0.57763671875	0.412841796875	1	upper	amplitud.ttf
2690.462	n/a	WORD	1345231	wordpools/wasnorm_wordpool.txt	LTP102	ltpFR	17	14	0	POPE	1105	n/a	n/a	1	0.57763671875	0.412841796875	1	upper	amplitud.ttf
2694.454	n/a	WORD	1347227	wordpools/wasnorm_wordpool.txt	LTP102	ltpFR	17	14	1	MARKET	871	n/a	n/a	1	0.422607421875	0.5869140625	0	lower	zerothre.ttf
2698.304	n/a	WORD	1349152	wordpools/wasnorm_wordpool.txt	LTP102	ltpFR	17	14	1	TEAPOT	1442	n/a	n/a	0	0.422607421875	0.5869140625	0	lower	zerothre.ttf
2702.246	n/a	WORD	1351123	wordpools/wasnorm_wordpool.txt	LTP102	ltpFR	17	14	1	BAY	102	n/a	n/a	0	0.422607421875	0.5869140625	0	lower	zerothre.ttf
2706.212	n/a	WORD	1353106	wordpools/wasnorm_wordpool.txt	LTP102	ltpFR	17	14	1	SUBMARINE	1398	n/a	n/a	0	0.422607421875	0.5869140625	0	lower	zerothre.ttf
2710.346	n/a	WORD	1355173	wordpools/wasnorm_wordpool.txt	LTP102	ltpFR	17	14	1	STEW	1380	n/a	n/a	0	0.422607421875	0.5869140625	0	lower	zerothre.ttf
2714.296	n/a	WORD	1357148	wordpools/wasnorm_wordpool.txt	LTP102	ltpFR	17	14	1	DICTIONARY	463	n/a	n/a	0	0.422607421875	0.5869140625	0	lower	zerothre.ttf
2718.146	n/a	WORD	1359073	wordpools/wasnorm_wordpool.txt	LTP102	ltpFR	17	14	0	GOVERNOR	651	n/a	n/a	1	0.57763671875	0.412841796875	1	upper	amplitud.ttf
2722.054	n/a	WORD	1361027	wordpools/wasnorm_wordpool.txt	LTP102	ltpFR	17	14	0	TEA	1439	n/a	n/a	0	0.57763671875	0.412841796875	1	upper	amplitud.ttf
2727.912	n/a	REC_START	1363956	n/a	LTP102	ltpFR	17	14	n/a	n/a	n/a	n/a	n/a	n/a	n/a	n/a	n/a	n/a	n/a
2729.07	n/a	REC_WORD	1364535	wordpools/wasnorm_wordpool.txt	LTP102	ltpFR	17	14	0	TEA	1439	n/a	n/a	0	n/a	n/a	n/a	n/a	n/a
2730.73	n/a	REC_WORD	1365365	wordpools/wasnorm_wordpool.txt	LTP102	ltpFR	17	14	0	GOVERNOR	651	n/a	n/a	1	n/a	n/a	n/a	n/a	n/a
2733.344	n/a	REC_WORD	1366672	wordpools/wasnorm_wordpool.txt	LTP102	ltpFR	17	14	-1	BULLET	194	n/a	n/a	-1	n/a	n/a	n/a	n/a	n/a
2740.054	n/a	REC_WORD	1370027	wordpools/wasnorm_wordpool.txt	LTP102	ltpFR	17	14	-1	GALAXY	617	n/a	n/a	-1	n/a	n/a	n/a	n/a	n/a
2755.914	n/a	REC_WORD	1377957	wordpools/wasnorm_wordpool.txt	LTP102	ltpFR	17	14	0	TEA	1439	n/a	n/a	0	n/a	n/a	n/a	n/a	n/a
2761.034	n/a	REC_WORD	1380517	wordpools/wasnorm_wordpool.txt	LTP102	ltpFR	17	14	1	ROSE	1212	n/a	n/a	1	n/a	n/a	n/a	n/a	n/a
2765.562	n/a	REC_WORD	1382781	wordpools/wasnorm_wordpool.txt	LTP102	ltpFR	17	14	n/a	LILY	821	n/a	n/a	n/a	n/a	n/a	n/a	n/a	n/a
2769.604	n/a	REC_WORD	1384802	wordpools/wasnorm_wordpool.txt	LTP102	ltpFR	17	14	0	COLESLAW	344	n/a	n/a	1	n/a	n/a	n/a	n/a	n/a
2772.028	n/a	REC_WORD	1386014	wordpools/wasnorm_wordpool.txt	LTP102	ltpFR	17	14	0	BLACKBERRY	132	n/a	n/a	0	n/a	n/a	n/a	n/a	n/a
2775.028	n/a	REC_WORD	1387514	wordpools/wasnorm_wordpool.txt	LTP102	ltpFR	17	14	-1	SUPERMARKET	1409	n/a	n/a	-1	n/a	n/a	n/a	n/a	n/a
2802.606	n/a	REC_WORD_VV	1401303	wordpools/wasnorm_wordpool.txt	LTP102	ltpFR	17	14	n/a	<>	-1	n/a	n/a	n/a	n/a	n/a	n/a	n/a	n/a
2807.002	n/a	WORD	1403501	wordpools/wasnorm_wordpool.txt	LTP102	ltpFR	17	15	1	PATH	1023	n/a	n/a	0	0.422607421875	0.5869140625	0	lower	zerothre.ttf
2811.21	n/a	WORD	1405605	wordpools/wasnorm_wordpool.txt	LTP102	ltpFR	17	15	1	OATMEAL	967	n/a	n/a	0	0.422607421875	0.5869140625	0	lower	zerothre.ttf
2815.402	n/a	WORD	1407701	wordpools/wasnorm_wordpool.txt	LTP102	ltpFR	17	15	1	SCROLL	1257	n/a	n/a	0	0.422607421875	0.5869140625	0	lower	zerothre.ttf
2819.55	n/a	WORD	1409775	wordpools/wasnorm_wordpool.txt	LTP102	ltpFR	17	15	1	ADULT	8	n/a	n/a	1	0.422607421875	0.5869140625	0	lower	zerothre.ttf
2823.708	n/a	WORD	1411854	wordpools/wasnorm_wordpool.txt	LTP102	ltpFR	17	15	0	POSTAGE	1113	n/a	n/a	1	0.57763671875	0.412841796875	1	upper	amplitud.ttf
2827.626	n/a	WORD	1413813	wordpools/wasnorm_wordpool.txt	LTP102	ltpFR	17	15	0	TRICYCLE	1506	n/a	n/a	1	0.57763671875	0.412841796875	1	upper	amplitud.ttf
2831.534	n/a	WORD	1415767	wordpools/wasnorm_wordpool.txt	LTP102	ltpFR	17	15	1	OX	994	n/a	n/a	1	0.422607421875	0.5869140625	0	lower	zerothre.ttf
2835.692	n/a	WORD	1417846	wordpools/wasnorm_wordpool.txt	LTP102	ltpFR	17	15	1	LION	827	n/a	n/a	1	0.422607421875	0.5869140625	0	lower	zerothre.ttf
2839.65	n/a	WORD	1419825	wordpools/wasnorm_wordpool.txt	LTP102	ltpFR	17	15	0	ROOF	1205	n/a	n/a	1	0.57763671875	0.412841796875	1	upper	amplitud.ttf
2843.592	n/a	WORD	1421796	wordpools/wasnorm_wordpool.txt	LTP102	ltpFR	17	15	0	WALL	1582	n/a	n/a	1	0.57763671875	0.412841796875	1	upper	amplitud.ttf
2847.634	n/a	WORD	1423817	wordpools/wasnorm_wordpool.txt	LTP102	ltpFR	17	15	0	GUARDIAN	668	n/a	n/a	1	0.57763671875	0.412841796875	1	upper	amplitud.ttf
2851.5	n/a	WORD	1425750	wordpools/wasnorm_wordpool.txt	LTP102	ltpFR	17	15	0	PAD	998	n/a	n/a	0	0.57763671875	0.412841796875	1	upper	amplitud.ttf
2855.424	n/a	WORD	1427712	wordpools/wasnorm_wordpool.txt	LTP102	ltpFR	17	15	0	CHAUFFEUR	283	n/a	n/a	1	0.57763671875	0.412841796875	1	upper	amplitud.ttf
2859.492	n/a	WORD	1429746	wordpools/wasnorm_wordpool.txt	LTP102	ltpFR	17	15	0	PLAQUE	1084	n/a	n/a	0	0.57763671875	0.412841796875	1	upper	amplitud.ttf
2863.55	n/a	WORD	1431775	wordpools/wasnorm_wordpool.txt	LTP102	ltpFR	17	15	1	TOOTHPASTE	1483	n/a	n/a	0	0.422607421875	0.5869140625	0	lower	zerothre.ttf
2867.516	n/a	WORD	1433758	wordpools/wasnorm_wordpool.txt	LTP102	ltpFR	17	15	1	CAKE	219	n/a	n/a	0	0.422607421875	0.5869140625	0	lower	zerothre.ttf
2873.134	n/a	REC_START	1436567	n/a	LTP102	ltpFR	17	15	n/a	n/a	n/a	n/a	n/a	n/a	n/a	n/a	n/a	n/a	n/a
2874.686	n/a	REC_WORD	1437343	wordpools/wasnorm_wordpool.txt	LTP102	ltpFR	17	15	1	CAKE	219	n/a	n/a	0	n/a	n/a	n/a	n/a	n/a
2876.806	n/a	REC_WORD	1438403	wordpools/wasnorm_wordpool.txt	LTP102	ltpFR	17	15	1	TOOTHPASTE	1483	n/a	n/a	0	n/a	n/a	n/a	n/a	n/a
2879.404	n/a	REC_WORD	1439702	wordpools/wasnorm_wordpool.txt	LTP102	ltpFR	17	15	0	PLAQUE	1084	n/a	n/a	0	n/a	n/a	n/a	n/a	n/a
2882.996	n/a	REC_WORD	1441498	wordpools/wasnorm_wordpool.txt	LTP102	ltpFR	17	15	0	QUARTER	1148	n/a	n/a	0	n/a	n/a	n/a	n/a	n/a
2895.016	n/a	REC_WORD	1447508	wordpools/wasnorm_wordpool.txt	LTP102	ltpFR	17	15	0	LUMBER	848	n/a	n/a	1	n/a	n/a	n/a	n/a	n/a
2902.15	n/a	REC_WORD	1451075	wordpools/wasnorm_wordpool.txt	LTP102	ltpFR	17	15	n/a	BENCH	121	n/a	n/a	n/a	n/a	n/a	n/a	n/a	n/a
2929.4	n/a	REC_WORD	1464700	wordpools/wasnorm_wordpool.txt	LTP102	ltpFR	17	15	n/a	FALL	-1	n/a	n/a	n/a	n/a	n/a	n/a	n/a	n/a
2930.512	n/a	REC_WORD	1465256	wordpools/wasnorm_wordpool.txt	LTP102	ltpFR	17	15	0	WALL	1582	n/a	n/a	1	n/a	n/a	n/a	n/a	n/a
2944.362	n/a	REC_WORD	1472181	wordpools/wasnorm_wordpool.txt	LTP102	ltpFR	17	15	0	ROOF	1205	n/a	n/a	1	n/a	n/a	n/a	n/a	n/a
2951.938	n/a	WORD	1475969	wordpools/wasnorm_wordpool.txt	LTP102	ltpFR	17	16	1	SUSPECT	1415	n/a	n/a	1	0.422607421875	0.5869140625	0	lower	zerothre.ttf
2956.038	n/a	WORD	1478019	wordpools/wasnorm_wordpool.txt	LTP102	ltpFR	17	16	1	PATROL	1027	n/a	n/a	0	0.422607421875	0.5869140625	0	lower	zerothre.ttf
2960.056	n/a	WORD	1480028	wordpools/wasnorm_wordpool.txt	LTP102	ltpFR	17	16	1	NEEDLE	941	n/a	n/a	0	0.422607421875	0.5869140625	0	lower	zerothre.ttf
2964.048	n/a	WORD	1482024	wordpools/wasnorm_wordpool.txt	LTP102	ltpFR	17	16	1	PIN	1072	n/a	n/a	0	0.422607421875	0.5869140625	0	lower	zerothre.ttf
2968.14	n/a	WORD	1484070	wordpools/wasnorm_wordpool.txt	LTP102	ltpFR	17	16	1	TROPHY	1509	n/a	n/a	0	0.422607421875	0.5869140625	0	lower	zerothre.ttf
2972.29	n/a	WORD	1486145	wordpools/wasnorm_wordpool.txt	LTP102	ltpFR	17	16	1	NICKEL	950	n/a	n/a	0	0.422607421875	0.5869140625	0	lower	zerothre.ttf
2976.288	n/a	WORD	1488144	wordpools/wasnorm_wordpool.txt	LTP102	ltpFR	17	16	1	BULLY	196	n/a	n/a	1	0.422607421875	0.5869140625	0	lower	zerothre.ttf
2980.238	n/a	WORD	1490119	wordpools/wasnorm_wordpool.txt	LTP102	ltpFR	17	16	1	ENGINEER	536	n/a	n/a	1	0.422607421875	0.5869140625	0	lower	zerothre.ttf
2984.364	n/a	WORD	1492182	wordpools/wasnorm_wordpool.txt	LTP102	ltpFR	17	16	1	BANJO	82	n/a	n/a	0	0.422607421875	0.5869140625	0	lower	zerothre.ttf
2988.472	n/a	WORD	1494236	wordpools/wasnorm_wordpool.txt	LTP102	ltpFR	17	16	1	MILK	895	n/a	n/a	0	0.422607421875	0.5869140625	0	lower	zerothre.ttf
2992.314	n/a	WORD	1496157	wordpools/wasnorm_wordpool.txt	LTP102	ltpFR	17	16	1	NOMAD	955	n/a	n/a	1	0.422607421875	0.5869140625	0	lower	zerothre.ttf
2996.346	n/a	WORD	1498173	wordpools/wasnorm_wordpool.txt	LTP102	ltpFR	17	16	1	DOLLAR	482	n/a	n/a	0	0.422607421875	0.5869140625	0	lower	zerothre.ttf
3000.346	n/a	WORD	1500173	wordpools/wasnorm_wordpool.txt	LTP102	ltpFR	17	16	1	DISC	473	n/a	n/a	0	0.422607421875	0.5869140625	0	lower	zerothre.ttf
3004.53	n/a	WORD	1502265	wordpools/wasnorm_wordpool.txt	LTP102	ltpFR	17	16	1	WIDOW	1608	n/a	n/a	1	0.422607421875	0.5869140625	0	lower	zerothre.ttf
3008.412	n/a	WORD	1504206	wordpools/wasnorm_wordpool.txt	LTP102	ltpFR	17	16	1	ASSISTANT	48	n/a	n/a	1	0.422607421875	0.5869140625	0	lower	zerothre.ttf
3012.404	n/a	WORD	1506202	wordpools/wasnorm_wordpool.txt	LTP102	ltpFR	17	16	1	WORKER	1621	n/a	n/a	1	0.422607421875	0.5869140625	0	lower	zerothre.ttf
3018.196	n/a	REC_START	1509098	n/a	LTP102	ltpFR	17	16	n/a	n/a	n/a	n/a	n/a	n/a	n/a	n/a	n/a	n/a	n/a
3020.482	n/a	REC_WORD	1510241	wordpools/wasnorm_wordpool.txt	LTP102	ltpFR	17	16	1	WORKER	1621	n/a	n/a	1	n/a	n/a	n/a	n/a	n/a
3022.298	n/a	REC_WORD	1511149	wordpools/wasnorm_wordpool.txt	LTP102	ltpFR	17	16	1	ASSISTANT	48	n/a	n/a	1	n/a	n/a	n/a	n/a	n/a
3025.556	n/a	REC_WORD	1512778	wordpools/wasnorm_wordpool.txt	LTP102	ltpFR	17	16	n/a	JOB	-1	n/a	n/a	n/a	n/a	n/a	n/a	n/a	n/a
3035.908	n/a	REC_WORD	1517954	wordpools/wasnorm_wordpool.txt	LTP102	ltpFR	17	16	-1	BUN	197	n/a	n/a	-1	n/a	n/a	n/a	n/a	n/a
3050.494	n/a	REC_WORD	1525247	wordpools/wasnorm_wordpool.txt	LTP102	ltpFR	17	16	0	TOENAIL	1474	n/a	n/a	0	n/a	n/a	n/a	n/a	n/a
3057.424	n/a	REC_WORD	1528712	wordpools/wasnorm_wordpool.txt	LTP102	ltpFR	17	16	1	CAKE	219	n/a	n/a	0	n/a	n/a	n/a	n/a	n/a
3072.272	n/a	REC_WORD	1536136	wordpools/wasnorm_wordpool.txt	LTP102	ltpFR	17	16	n/a	MILDEW	893	n/a	n/a	n/a	n/a	n/a	n/a	n/a	n/a
3084.868	n/a	REC_WORD	1542434	wordpools/wasnorm_wordpool.txt	LTP102	ltpFR	17	16	-1	VEST	1559	n/a	n/a	-1	n/a	n/a	n/a	n/a	n/a
3113.552	n/a	REC_START	1556776	n/a	LTP102	ltpFR	17	1	n/a	n/a	n/a	n/a	n/a	n/a	n/a	n/a	n/a	n/a	n/a
3113.584	n/a	RECOG_TARGET	1556792	n/a	LTP102	ltpFR	17	1	0	FLANNEL	574	1	4	0	n/a	n/a	n/a	n/a	n/a
3115.698	n/a	RECOG_RESP	1557849	n/a	LTP102	ltpFR	17	1	0	FLANNEL	574	1	n/a	0	n/a	n/a	n/a	n/a	n/a
3117.778	n/a	RECOG_CONF	1558889	n/a	LTP102	ltpFR	17	1	0	FLANNEL	574	n/a	4	0	n/a	n/a	n/a	n/a	n/a
3119.452	n/a	RECOG_TARGET	1559726	n/a	LTP102	ltpFR	17	1	1	COFFEE	341	1	5	0	n/a	n/a	n/a	n/a	n/a
3120.138	n/a	RECOG_RESP	1560069	n/a	LTP102	ltpFR	17	1	1	COFFEE	341	1	n/a	0	n/a	n/a	n/a	n/a	n/a
3121.37	n/a	RECOG_CONF	1560685	n/a	LTP102	ltpFR	17	1	1	COFFEE	341	n/a	5	0	n/a	n/a	n/a	n/a	n/a
3122.692	n/a	RECOG_TARGET	1561346	n/a	LTP102	ltpFR	17	1	-1	BARN	89	1	5	-1	n/a	n/a	n/a	n/a	n/a
3123.232	n/a	RECOG_RESP	1561616	n/a	LTP102	ltpFR	17	1	-1	BARN	89	1	n/a	-1	n/a	n/a	n/a	n/a	n/a
3124.154	n/a	RECOG_CONF	1562077	n/a	LTP102	ltpFR	17	1	-1	BARN	89	n/a	5	-1	n/a	n/a	n/a	n/a	n/a
3125.6	n/a	RECOG_LURE	1562800	n/a	LTP102	ltpFR	17	1	n/a	CYCLONE	431	0	4	n/a	n/a	n/a	n/a	n/a	n/a
3126.3	n/a	RECOG_RESP	1563150	n/a	LTP102	ltpFR	17	1	n/a	CYCLONE	431	0	n/a	n/a	n/a	n/a	n/a	n/a	n/a
3127.586	n/a	RECOG_CONF	1563793	n/a	LTP102	ltpFR	17	1	n/a	CYCLONE	431	n/a	4	n/a	n/a	n/a	n/a	n/a	n/a
3128.992	n/a	RECOG_TARGET	1564496	n/a	LTP102	ltpFR	17	1	1	MILK	895	1	3	0	n/a	n/a	n/a	n/a	n/a
3129.822	n/a	RECOG_RESP	1564911	n/a	LTP102	ltpFR	17	1	1	MILK	895	1	n/a	0	n/a	n/a	n/a	n/a	n/a
3130.858	n/a	RECOG_CONF	1565429	n/a	LTP102	ltpFR	17	1	1	MILK	895	n/a	3	0	n/a	n/a	n/a	n/a	n/a
3132.194	n/a	RECOG_TARGET	1566097	n/a	LTP102	ltpFR	17	1	-1	GALAXY	617	1	5	-1	n/a	n/a	n/a	n/a	n/a
3132.79	n/a	RECOG_RESP	1566395	n/a	LTP102	ltpFR	17	1	-1	GALAXY	617	1	n/a	-1	n/a	n/a	n/a	n/a	n/a
3133.672	n/a	RECOG_CONF	1566836	n/a	LTP102	ltpFR	17	1	-1	GALAXY	617	n/a	5	-1	n/a	n/a	n/a	n/a	n/a
3135.026	n/a	RECOG_TARGET	1567513	n/a	LTP102	ltpFR	17	1	1	TURTLE	1522	1	5	1	n/a	n/a	n/a	n/a	n/a
3135.588	n/a	RECOG_RESP	1567794	n/a	LTP102	ltpFR	17	1	1	TURTLE	1522	1	n/a	1	n/a	n/a	n/a	n/a	n/a
3136.336	n/a	RECOG_CONF	1568168	n/a	LTP102	ltpFR	17	1	1	TURTLE	1522	n/a	5	1	n/a	n/a	n/a	n/a	n/a
3137.916	n/a	RECOG_TARGET	1568958	n/a	LTP102	ltpFR	17	1	-1	STOCKING	1383	0	2	-1	n/a	n/a	n/a	n/a	n/a
3138.566	n/a	RECOG_RESP	1569283	n/a	LTP102	ltpFR	17	1	-1	STOCKING	1383	0	n/a	-1	n/a	n/a	n/a	n/a	n/a
3139.74	n/a	RECOG_CONF	1569870	n/a	LTP102	ltpFR	17	1	-1	STOCKING	1383	n/a	2	-1	n/a	n/a	n/a	n/a	n/a
3141.094	n/a	RECOG_TARGET	1570547	n/a	LTP102	ltpFR	17	1	1	DOG	480	1	5	1	n/a	n/a	n/a	n/a	n/a
3141.73	n/a	RECOG_RESP	1570865	n/a	LTP102	ltpFR	17	1	1	DOG	480	1	n/a	1	n/a	n/a	n/a	n/a	n/a
3142.474	n/a	RECOG_CONF	1571237	n/a	LTP102	ltpFR	17	1	1	DOG	480	n/a	5	1	n/a	n/a	n/a	n/a	n/a
3143.842	n/a	RECOG_TARGET	1571921	n/a	LTP102	ltpFR	17	1	-1	NIGHTGOWN	953	1	5	-1	n/a	n/a	n/a	n/a	n/a
3144.464	n/a	RECOG_RESP	1572232	n/a	LTP102	ltpFR	17	1	-1	NIGHTGOWN	953	1	n/a	-1	n/a	n/a	n/a	n/a	n/a
3145.308	n/a	RECOG_CONF	1572654	n/a	LTP102	ltpFR	17	1	-1	NIGHTGOWN	953	n/a	5	-1	n/a	n/a	n/a	n/a	n/a
3146.718	n/a	RECOG_TARGET	1573359	n/a	LTP102	ltpFR	17	1	-1	MEAT	883	1	5	-1	n/a	n/a	n/a	n/a	n/a
3147.228	n/a	RECOG_RESP	1573614	n/a	LTP102	ltpFR	17	1	-1	MEAT	883	1	n/a	-1	n/a	n/a	n/a	n/a	n/a
3148.17	n/a	RECOG_CONF	1574085	n/a	LTP102	ltpFR	17	1	-1	MEAT	883	n/a	5	-1	n/a	n/a	n/a	n/a	n/a
3149.534	n/a	RECOG_TARGET	1574767	n/a	LTP102	ltpFR	17	1	1	OATMEAL	967	1	5	0	n/a	n/a	n/a	n/a	n/a
3150.062	n/a	RECOG_RESP	1575031	n/a	LTP102	ltpFR	17	1	1	OATMEAL	967	1	n/a	0	n/a	n/a	n/a	n/a	n/a
3150.794	n/a	RECOG_CONF	1575397	n/a	LTP102	ltpFR	17	1	1	OATMEAL	967	n/a	5	0	n/a	n/a	n/a	n/a	n/a
3152.326	n/a	RECOG_TARGET	1576163	n/a	LTP102	ltpFR	17	1	0	FIGHTER	564	1	5	1	n/a	n/a	n/a	n/a	n/a
3152.96	n/a	RECOG_RESP	1576480	n/a	LTP102	ltpFR	17	1	0	FIGHTER	564	1	n/a	1	n/a	n/a	n/a	n/a	n/a
3153.688	n/a	RECOG_CONF	1576844	n/a	LTP102	ltpFR	17	1	0	FIGHTER	564	n/a	5	1	n/a	n/a	n/a	n/a	n/a
3155.1	n/a	RECOG_LURE	1577550	n/a	LTP102	ltpFR	17	1	n/a	SUBURB	1399	0	5	n/a	n/a	n/a	n/a	n/a	n/a
3155.694	n/a	RECOG_RESP	1577847	n/a	LTP102	ltpFR	17	1	n/a	SUBURB	1399	0	n/a	n/a	n/a	n/a	n/a	n/a	n/a
3156.412	n/a	RECOG_CONF	1578206	n/a	LTP102	ltpFR	17	1	n/a	SUBURB	1399	n/a	5	n/a	n/a	n/a	n/a	n/a	n/a
3157.742	n/a	RECOG_TARGET	1578871	n/a	LTP102	ltpFR	17	1	-1	DICE	461	1	5	-1	n/a	n/a	n/a	n/a	n/a
3158.302	n/a	RECOG_RESP	1579151	n/a	LTP102	ltpFR	17	1	-1	DICE	461	1	n/a	-1	n/a	n/a	n/a	n/a	n/a
3158.998	n/a	RECOG_CONF	1579499	n/a	LTP102	ltpFR	17	1	-1	DICE	461	n/a	5	-1	n/a	n/a	n/a	n/a	n/a
3160.45	n/a	RECOG_TARGET	1580225	n/a	LTP102	ltpFR	17	1	1	BUTLER	204	1	5	1	n/a	n/a	n/a	n/a	n/a
3160.938	n/a	RECOG_RESP	1580469	n/a	LTP102	ltpFR	17	1	1	BUTLER	204	1	n/a	1	n/a	n/a	n/a	n/a	n/a
3161.68	n/a	RECOG_CONF	1580840	n/a	LTP102	ltpFR	17	1	1	BUTLER	204	n/a	5	1	n/a	n/a	n/a	n/a	n/a
3163.126	n/a	RECOG_TARGET	1581563	n/a	LTP102	ltpFR	17	1	0	QUARTER	1148	1	5	0	n/a	n/a	n/a	n/a	n/a
3163.602	n/a	RECOG_RESP	1581801	n/a	LTP102	ltpFR	17	1	0	QUARTER	1148	1	n/a	0	n/a	n/a	n/a	n/a	n/a
3164.534	n/a	RECOG_CONF	1582267	n/a	LTP102	ltpFR	17	1	0	QUARTER	1148	n/a	5	0	n/a	n/a	n/a	n/a	n/a
3165.924	n/a	RECOG_TARGET	1582962	n/a	LTP102	ltpFR	17	1	0	WEED	1599	1	5	0	n/a	n/a	n/a	n/a	n/a
3166.514	n/a	RECOG_RESP	1583257	n/a	LTP102	ltpFR	17	1	0	WEED	1599	1	n/a	0	n/a	n/a	n/a	n/a	n/a
3167.238	n/a	RECOG_CONF	1583619	n/a	LTP102	ltpFR	17	1	0	WEED	1599	n/a	5	0	n/a	n/a	n/a	n/a	n/a
3168.6	n/a	RECOG_TARGET	1584300	n/a	LTP102	ltpFR	17	1	0	BRUSH	182	1	5	1	n/a	n/a	n/a	n/a	n/a
3169.184	n/a	RECOG_RESP	1584592	n/a	LTP102	ltpFR	17	1	0	BRUSH	182	1	n/a	1	n/a	n/a	n/a	n/a	n/a
3169.942	n/a	RECOG_CONF	1584971	n/a	LTP102	ltpFR	17	1	0	BRUSH	182	n/a	5	1	n/a	n/a	n/a	n/a	n/a
3171.3	n/a	RECOG_TARGET	1585650	n/a	LTP102	ltpFR	17	1	-1	WAITRESS	1581	1	5	-1	n/a	n/a	n/a	n/a	n/a
3171.882	n/a	RECOG_RESP	1585941	n/a	LTP102	ltpFR	17	1	-1	WAITRESS	1581	1	n/a	-1	n/a	n/a	n/a	n/a	n/a
3172.586	n/a	RECOG_CONF	1586293	n/a	LTP102	ltpFR	17	1	-1	WAITRESS	1581	n/a	5	-1	n/a	n/a	n/a	n/a	n/a
3187.654	n/a	REC_START	1593827	n/a	LTP102	ltpFR	17	2	n/a	n/a	n/a	n/a	n/a	n/a	n/a	n/a	n/a	n/a	n/a
3187.69	n/a	RECOG_TARGET	1593845	n/a	LTP102	ltpFR	17	2	1	PUMP	1141	1	3	0	n/a	n/a	n/a	n/a	n/a
3188.352	n/a	RECOG_RESP	1594176	n/a	LTP102	ltpFR	17	2	1	PUMP	1141	1	n/a	0	n/a	n/a	n/a	n/a	n/a
3189.116	n/a	RECOG_CONF	1594558	n/a	LTP102	ltpFR	17	2	1	PUMP	1141	n/a	3	0	n/a	n/a	n/a	n/a	n/a
3190.582	n/a	RECOG_LURE	1595291	n/a	LTP102	ltpFR	17	2	n/a	SHED	1277	0	4	n/a	n/a	n/a	n/a	n/a	n/a
3191.496	n/a	RECOG_RESP	1595748	n/a	LTP102	ltpFR	17	2	n/a	SHED	1277	0	n/a	n/a	n/a	n/a	n/a	n/a	n/a
3192.348	n/a	RECOG_CONF	1596174	n/a	LTP102	ltpFR	17	2	n/a	SHED	1277	n/a	4	n/a	n/a	n/a	n/a	n/a	n/a
3193.69	n/a	RECOG_TARGET	1596845	n/a	LTP102	ltpFR	17	2	0	CASKET	255	1	5	1	n/a	n/a	n/a	n/a	n/a
3194.538	n/a	RECOG_RESP	1597269	n/a	LTP102	ltpFR	17	2	0	CASKET	255	1	n/a	1	n/a	n/a	n/a	n/a	n/a
3195.172	n/a	RECOG_CONF	1597586	n/a	LTP102	ltpFR	17	2	0	CASKET	255	n/a	5	1	n/a	n/a	n/a	n/a	n/a
3196.532	n/a	RECOG_TARGET	1598266	n/a	LTP102	ltpFR	17	2	0	BLACKBERRY	132	1	5	0	n/a	n/a	n/a	n/a	n/a
3197.068	n/a	RECOG_RESP	1598534	n/a	LTP102	ltpFR	17	2	0	BLACKBERRY	132	1	n/a	0	n/a	n/a	n/a	n/a	n/a
3197.768	n/a	RECOG_CONF	1598884	n/a	LTP102	ltpFR	17	2	0	BLACKBERRY	132	n/a	5	0	n/a	n/a	n/a	n/a	n/a
3199.042	n/a	RECOG_LURE	1599521	n/a	LTP102	ltpFR	17	2	n/a	ICEBERG	731	0	5	n/a	n/a	n/a	n/a	n/a	n/a
3199.698	n/a	RECOG_RESP	1599849	n/a	LTP102	ltpFR	17	2	n/a	ICEBERG	731	0	n/a	n/a	n/a	n/a	n/a	n/a	n/a
3200.492	n/a	RECOG_CONF	1600246	n/a	LTP102	ltpFR	17	2	n/a	ICEBERG	731	n/a	5	n/a	n/a	n/a	n/a	n/a	n/a
3201.808	n/a	RECOG_TARGET	1600904	n/a	LTP102	ltpFR	17	2	0	WHEAT	1602	1	5	0	n/a	n/a	n/a	n/a	n/a
3202.442	n/a	RECOG_RESP	1601221	n/a	LTP102	ltpFR	17	2	0	WHEAT	1602	1	n/a	0	n/a	n/a	n/a	n/a	n/a
3203.156	n/a	RECOG_CONF	1601578	n/a	LTP102	ltpFR	17	2	0	WHEAT	1602	n/a	5	0	n/a	n/a	n/a	n/a	n/a
3204.532	n/a	RECOG_TARGET	1602266	n/a	LTP102	ltpFR	17	2	1	SCROLL	1257	1	5	0	n/a	n/a	n/a	n/a	n/a
3205.05	n/a	RECOG_RESP	1602525	n/a	LTP102	ltpFR	17	2	1	SCROLL	1257	1	n/a	0	n/a	n/a	n/a	n/a	n/a
3205.67	n/a	RECOG_CONF	1602835	n/a	LTP102	ltpFR	17	2	1	SCROLL	1257	n/a	5	0	n/a	n/a	n/a	n/a	n/a
3207.108	n/a	RECOG_TARGET	1603554	n/a	LTP102	ltpFR	17	2	-1	RAILROAD	1162	1	5	-1	n/a	n/a	n/a	n/a	n/a
3207.57	n/a	RECOG_RESP	1603785	n/a	LTP102	ltpFR	17	2	-1	RAILROAD	1162	1	n/a	-1	n/a	n/a	n/a	n/a	n/a
3208.244	n/a	RECOG_CONF	1604122	n/a	LTP102	ltpFR	17	2	-1	RAILROAD	1162	n/a	5	-1	n/a	n/a	n/a	n/a	n/a
3209.698	n/a	RECOG_TARGET	1604849	n/a	LTP102	ltpFR	17	2	1	ARM	38	1	5	1	n/a	n/a	n/a	n/a	n/a
3210.354	n/a	RECOG_RESP_VV	1605177	n/a	LTP102	ltpFR	17	2	1	ARM	38	0	n/a	1	n/a	n/a	n/a	n/a	n/a
3211.332	n/a	RECOG_RESP	1605666	n/a	LTP102	ltpFR	17	2	1	ARM	38	1	n/a	1	n/a	n/a	n/a	n/a	n/a
3212.274	n/a	RECOG_CONF	1606137	n/a	LTP102	ltpFR	17	2	1	ARM	38	n/a	5	1	n/a	n/a	n/a	n/a	n/a
3213.664	n/a	RECOG_LURE	1606832	n/a	LTP102	ltpFR	17	2	n/a	BOUQUET	157	0	5	n/a	n/a	n/a	n/a	n/a	n/a
3214.55	n/a	RECOG_RESP	1607275	n/a	LTP102	ltpFR	17	2	n/a	BOUQUET	157	0	n/a	n/a	n/a	n/a	n/a	n/a	n/a
3215.318	n/a	RECOG_CONF	1607659	n/a	LTP102	ltpFR	17	2	n/a	BOUQUET	157	n/a	5	n/a	n/a	n/a	n/a	n/a	n/a
3216.622	n/a	RECOG_TARGET	1608311	n/a	LTP102	ltpFR	17	2	-1	DOORBELL	487	0	3	-1	n/a	n/a	n/a	n/a	n/a
3217.644	n/a	RECOG_RESP	1608822	n/a	LTP102	ltpFR	17	2	-1	DOORBELL	487	0	n/a	-1	n/a	n/a	n/a	n/a	n/a
3218.532	n/a	RECOG_CONF	1609266	n/a	LTP102	ltpFR	17	2	-1	DOORBELL	487	n/a	3	-1	n/a	n/a	n/a	n/a	n/a
3219.982	n/a	RECOG_TARGET	1609991	n/a	LTP102	ltpFR	17	2	0	BATH	98	1	5	1	n/a	n/a	n/a	n/a	n/a
3220.592	n/a	RECOG_RESP	1610296	n/a	LTP102	ltpFR	17	2	0	BATH	98	1	n/a	1	n/a	n/a	n/a	n/a	n/a
3221.344	n/a	RECOG_CONF	1610672	n/a	LTP102	ltpFR	17	2	0	BATH	98	n/a	5	1	n/a	n/a	n/a	n/a	n/a
3222.79	n/a	RECOG_TARGET	1611395	n/a	LTP102	ltpFR	17	2	1	GLOVE	642	1	3	0	n/a	n/a	n/a	n/a	n/a
3223.29	n/a	RECOG_RESP	1611645	n/a	LTP102	ltpFR	17	2	1	GLOVE	642	1	n/a	0	n/a	n/a	n/a	n/a	n/a
3223.978	n/a	RECOG_CONF	1611989	n/a	LTP102	ltpFR	17	2	1	GLOVE	642	n/a	3	0	n/a	n/a	n/a	n/a	n/a
3225.366	n/a	RECOG_TARGET	1612683	n/a	LTP102	ltpFR	17	2	1	PATROL	1027	1	3	0	n/a	n/a	n/a	n/a	n/a
3226.004	n/a	RECOG_RESP	1613002	n/a	LTP102	ltpFR	17	2	1	PATROL	1027	1	n/a	0	n/a	n/a	n/a	n/a	n/a
3226.742	n/a	RECOG_CONF	1613371	n/a	LTP102	ltpFR	17	2	1	PATROL	1027	n/a	3	0	n/a	n/a	n/a	n/a	n/a
3228.506	n/a	RECOG_TARGET	1614253	n/a	LTP102	ltpFR	17	2	1	SUBMARINE	1398	1	5	0	n/a	n/a	n/a	n/a	n/a
3229.092	n/a	RECOG_RESP	1614546	n/a	LTP102	ltpFR	17	2	1	SUBMARINE	1398	1	n/a	0	n/a	n/a	n/a	n/a	n/a
3229.886	n/a	RECOG_CONF	1614943	n/a	LTP102	ltpFR	17	2	1	SUBMARINE	1398	n/a	5	0	n/a	n/a	n/a	n/a	n/a
3231.332	n/a	RECOG_TARGET	1615666	n/a	LTP102	ltpFR	17	2	1	HUMAN	726	1	5	1	n/a	n/a	n/a	n/a	n/a
3231.9	n/a	RECOG_RESP	1615950	n/a	LTP102	ltpFR	17	2	1	HUMAN	726	1	n/a	1	n/a	n/a	n/a	n/a	n/a
3232.56	n/a	RECOG_CONF	1616280	n/a	LTP102	ltpFR	17	2	1	HUMAN	726	n/a	5	1	n/a	n/a	n/a	n/a	n/a
3234.116	n/a	RECOG_TARGET	1617058	n/a	LTP102	ltpFR	17	2	0	WALL	1582	1	5	1	n/a	n/a	n/a	n/a	n/a
3234.484	n/a	RECOG_RESP	1617242	n/a	LTP102	ltpFR	17	2	0	WALL	1582	1	n/a	1	n/a	n/a	n/a	n/a	n/a
3235.254	n/a	RECOG_CONF	1617627	n/a	LTP102	ltpFR	17	2	0	WALL	1582	n/a	5	1	n/a	n/a	n/a	n/a	n/a
3236.464	n/a	RECOG_LURE	1618232	n/a	LTP102	ltpFR	17	2	n/a	COLONEL	348	0	5	n/a	n/a	n/a	n/a	n/a	n/a
3237.04	n/a	RECOG_RESP	1618520	n/a	LTP102	ltpFR	17	2	n/a	COLONEL	348	0	n/a	n/a	n/a	n/a	n/a	n/a	n/a
3237.788	n/a	RECOG_CONF	1618894	n/a	LTP102	ltpFR	17	2	n/a	COLONEL	348	n/a	5	n/a	n/a	n/a	n/a	n/a	n/a
3239.066	n/a	RECOG_TARGET	1619533	n/a	LTP102	ltpFR	17	2	-1	SCRIBBLE	1256	1	5	-1	n/a	n/a	n/a	n/a	n/a
3239.694	n/a	RECOG_RESP	1619847	n/a	LTP102	ltpFR	17	2	-1	SCRIBBLE	1256	1	n/a	-1	n/a	n/a	n/a	n/a	n/a
3240.532	n/a	RECOG_CONF	1620266	n/a	LTP102	ltpFR	17	2	-1	SCRIBBLE	1256	n/a	5	-1	n/a	n/a	n/a	n/a	n/a
3241.79	n/a	RECOG_TARGET	1620895	n/a	LTP102	ltpFR	17	2	1	BULLY	196	1	5	1	n/a	n/a	n/a	n/a	n/a
3242.308	n/a	RECOG_RESP	1621154	n/a	LTP102	ltpFR	17	2	1	BULLY	196	1	n/a	1	n/a	n/a	n/a	n/a	n/a
3242.986	n/a	RECOG_CONF	1621493	n/a	LTP102	ltpFR	17	2	1	BULLY	196	n/a	5	1	n/a	n/a	n/a	n/a	n/a
3247.514	n/a	REC_START	1623757	n/a	LTP102	ltpFR	17	3	n/a	n/a	n/a	n/a	n/a	n/a	n/a	n/a	n/a	n/a	n/a
3247.548	n/a	RECOG_LURE	1623774	n/a	LTP102	ltpFR	17	3	n/a	CABOOSE	214	0	5	n/a	n/a	n/a	n/a	n/a	n/a
3248.378	n/a	RECOG_RESP	1624189	n/a	LTP102	ltpFR	17	3	n/a	CABOOSE	214	0	n/a	n/a	n/a	n/a	n/a	n/a	n/a
3249.086	n/a	RECOG_CONF	1624543	n/a	LTP102	ltpFR	17	3	n/a	CABOOSE	214	n/a	5	n/a	n/a	n/a	n/a	n/a	n/a
3250.366	n/a	RECOG_LURE	1625183	n/a	LTP102	ltpFR	17	3	n/a	VISITOR	1573	0	5	n/a	n/a	n/a	n/a	n/a	n/a
3251.006	n/a	RECOG_RESP	1625503	n/a	LTP102	ltpFR	17	3	n/a	VISITOR	1573	0	n/a	n/a	n/a	n/a	n/a	n/a	n/a
3251.64	n/a	RECOG_CONF	1625820	n/a	LTP102	ltpFR	17	3	n/a	VISITOR	1573	n/a	5	n/a	n/a	n/a	n/a	n/a	n/a
3253.056	n/a	RECOG_TARGET	1626528	n/a	LTP102	ltpFR	17	3	1	OX	994	1	5	1	n/a	n/a	n/a	n/a	n/a
3253.566	n/a	RECOG_RESP	1626783	n/a	LTP102	ltpFR	17	3	1	OX	994	1	n/a	1	n/a	n/a	n/a	n/a	n/a
3254.224	n/a	RECOG_CONF	1627112	n/a	LTP102	ltpFR	17	3	1	OX	994	n/a	5	1	n/a	n/a	n/a	n/a	n/a
3255.614	n/a	RECOG_TARGET	1627807	n/a	LTP102	ltpFR	17	3	0	MEAL	882	1	5	0	n/a	n/a	n/a	n/a	n/a
3256.14	n/a	RECOG_RESP	1628070	n/a	LTP102	ltpFR	17	3	0	MEAL	882	1	n/a	0	n/a	n/a	n/a	n/a	n/a
3256.8	n/a	RECOG_CONF	1628400	n/a	LTP102	ltpFR	17	3	0	MEAL	882	n/a	5	0	n/a	n/a	n/a	n/a	n/a
3258.216	n/a	RECOG_TARGET	1629108	n/a	LTP102	ltpFR	17	3	0	GUARD	667	1	4	1	n/a	n/a	n/a	n/a	n/a
3258.664	n/a	RECOG_RESP	1629332	n/a	LTP102	ltpFR	17	3	0	GUARD	667	1	n/a	1	n/a	n/a	n/a	n/a	n/a
3259.494	n/a	RECOG_CONF	1629747	n/a	LTP102	ltpFR	17	3	0	GUARD	667	n/a	4	1	n/a	n/a	n/a	n/a	n/a
3260.798	n/a	RECOG_LURE	1630399	n/a	LTP102	ltpFR	17	3	n/a	ELECTRON	522	0	5	n/a	n/a	n/a	n/a	n/a	n/a
3261.478	n/a	RECOG_RESP	1630739	n/a	LTP102	ltpFR	17	3	n/a	ELECTRON	522	0	n/a	n/a	n/a	n/a	n/a	n/a	n/a
3262.276	n/a	RECOG_CONF	1631138	n/a	LTP102	ltpFR	17	3	n/a	ELECTRON	522	n/a	5	n/a	n/a	n/a	n/a	n/a	n/a
3263.714	n/a	RECOG_TARGET	1631857	n/a	LTP102	ltpFR	17	3	0	RABBIT	1152	1	5	1	n/a	n/a	n/a	n/a	n/a
3264.406	n/a	RECOG_RESP	1632203	n/a	LTP102	ltpFR	17	3	0	RABBIT	1152	1	n/a	1	n/a	n/a	n/a	n/a	n/a
3265.03	n/a	RECOG_CONF	1632515	n/a	LTP102	ltpFR	17	3	0	RABBIT	1152	n/a	5	1	n/a	n/a	n/a	n/a	n/a
3266.506	n/a	RECOG_TARGET	1633253	n/a	LTP102	ltpFR	17	3	0	ROOF	1205	1	5	1	n/a	n/a	n/a	n/a	n/a
3267.14	n/a	RECOG_RESP	1633570	n/a	LTP102	ltpFR	17	3	0	ROOF	1205	1	n/a	1	n/a	n/a	n/a	n/a	n/a
3267.824	n/a	RECOG_CONF	1633912	n/a	LTP102	ltpFR	17	3	0	ROOF	1205	n/a	5	1	n/a	n/a	n/a	n/a	n/a
3269.082	n/a	RECOG_LURE	1634541	n/a	LTP102	ltpFR	17	3	n/a	HEART	697	1	2	n/a	n/a	n/a	n/a	n/a	n/a
3269.744	n/a	RECOG_RESP_VV	1634872	n/a	LTP102	ltpFR	17	3	n/a	HEART	697	0	n/a	n/a	n/a	n/a	n/a	n/a	n/a
3270.368	n/a	RECOG_RESP	1635184	n/a	LTP102	ltpFR	17	3	n/a	HEART	697	1	n/a	n/a	n/a	n/a	n/a	n/a	n/a
3271.186	n/a	RECOG_CONF	1635593	n/a	LTP102	ltpFR	17	3	n/a	HEART	697	n/a	2	n/a	n/a	n/a	n/a	n/a	n/a
3272.546	n/a	RECOG_TARGET	1636273	n/a	LTP102	ltpFR	17	3	1	DIVER	476	1	5	1	n/a	n/a	n/a	n/a	n/a
3273.192	n/a	RECOG_RESP	1636596	n/a	LTP102	ltpFR	17	3	1	DIVER	476	1	n/a	1	n/a	n/a	n/a	n/a	n/a
3273.84	n/a	RECOG_CONF	1636920	n/a	LTP102	ltpFR	17	3	1	DIVER	476	n/a	5	1	n/a	n/a	n/a	n/a	n/a
3275.098	n/a	RECOG_TARGET	1637549	n/a	LTP102	ltpFR	17	3	1	MARGARINE	868	1	5	0	n/a	n/a	n/a	n/a	n/a
3275.616	n/a	RECOG_RESP	1637808	n/a	LTP102	ltpFR	17	3	1	MARGARINE	868	1	n/a	0	n/a	n/a	n/a	n/a	n/a
3276.246	n/a	RECOG_CONF	1638123	n/a	LTP102	ltpFR	17	3	1	MARGARINE	868	n/a	5	0	n/a	n/a	n/a	n/a	n/a
3277.488	n/a	RECOG_TARGET	1638744	n/a	LTP102	ltpFR	17	3	-1	VEST	1559	1	5	-1	n/a	n/a	n/a	n/a	n/a
3278.008	n/a	RECOG_RESP	1639004	n/a	LTP102	ltpFR	17	3	-1	VEST	1559	1	n/a	-1	n/a	n/a	n/a	n/a	n/a
3278.61	n/a	RECOG_CONF	1639305	n/a	LTP102	ltpFR	17	3	-1	VEST	1559	n/a	5	-1	n/a	n/a	n/a	n/a	n/a
3279.888	n/a	RECOG_LURE	1639944	n/a	LTP102	ltpFR	17	3	n/a	POLICE	1098	0	5	n/a	n/a	n/a	n/a	n/a	n/a
3280.69	n/a	RECOG_RESP	1640345	n/a	LTP102	ltpFR	17	3	n/a	POLICE	1098	0	n/a	n/a	n/a	n/a	n/a	n/a	n/a
3281.394	n/a	RECOG_CONF	1640697	n/a	LTP102	ltpFR	17	3	n/a	POLICE	1098	n/a	5	n/a	n/a	n/a	n/a	n/a	n/a
3282.756	n/a	RECOG_LURE	1641378	n/a	LTP102	ltpFR	17	3	n/a	WICK	1607	0	4	n/a	n/a	n/a	n/a	n/a	n/a
3283.51	n/a	RECOG_RESP	1641755	n/a	LTP102	ltpFR	17	3	n/a	WICK	1607	0	n/a	n/a	n/a	n/a	n/a	n/a	n/a
3284.488	n/a	RECOG_CONF	1642244	n/a	LTP102	ltpFR	17	3	n/a	WICK	1607	n/a	4	n/a	n/a	n/a	n/a	n/a	n/a
3285.822	n/a	RECOG_LURE	1642911	n/a	LTP102	ltpFR	17	3	n/a	FORK	594	0	3	n/a	n/a	n/a	n/a	n/a	n/a
3286.612	n/a	RECOG_RESP	1643306	n/a	LTP102	ltpFR	17	3	n/a	FORK	594	0	n/a	n/a	n/a	n/a	n/a	n/a	n/a
3287.37	n/a	RECOG_CONF	1643685	n/a	LTP102	ltpFR	17	3	n/a	FORK	594	n/a	3	n/a	n/a	n/a	n/a	n/a	n/a
3288.696	n/a	RECOG_TARGET	1644348	n/a	LTP102	ltpFR	17	3	0	DETECTIVE	454	0	1	2	n/a	n/a	n/a	n/a	n/a
3290.03	n/a	RECOG_RESP	1645015	n/a	LTP102	ltpFR	17	3	0	DETECTIVE	454	0	n/a	2	n/a	n/a	n/a	n/a	n/a
3290.892	n/a	RECOG_CONF	1645446	n/a	LTP102	ltpFR	17	3	0	DETECTIVE	454	n/a	1	2	n/a	n/a	n/a	n/a	n/a
3292.206	n/a	RECOG_LURE	1646103	n/a	LTP102	ltpFR	17	3	n/a	BASKET	95	1	5	n/a	n/a	n/a	n/a	n/a	n/a
3293.198	n/a	RECOG_RESP	1646599	n/a	LTP102	ltpFR	17	3	n/a	BASKET	95	1	n/a	n/a	n/a	n/a	n/a	n/a	n/a
3293.956	n/a	RECOG_CONF	1646978	n/a	LTP102	ltpFR	17	3	n/a	BASKET	95	n/a	5	n/a	n/a	n/a	n/a	n/a	n/a
3295.356	n/a	RECOG_TARGET	1647678	n/a	LTP102	ltpFR	17	3	0	BUCKET	184	1	5	1	n/a	n/a	n/a	n/a	n/a
3296.436	n/a	RECOG_RESP	1648218	n/a	LTP102	ltpFR	17	3	0	BUCKET	184	1	n/a	1	n/a	n/a	n/a	n/a	n/a
3297.24	n/a	RECOG_CONF	1648620	n/a	LTP102	ltpFR	17	3	0	BUCKET	184	n/a	5	1	n/a	n/a	n/a	n/a	n/a
3298.646	n/a	RECOG_TARGET	1649323	n/a	LTP102	ltpFR	17	3	0	BOXER	160	1	5	1	n/a	n/a	n/a	n/a	n/a
3299.17	n/a	RECOG_RESP	1649585	n/a	LTP102	ltpFR	17	3	0	BOXER	160	1	n/a	1	n/a	n/a	n/a	n/a	n/a
3299.724	n/a	RECOG_CONF	1649862	n/a	LTP102	ltpFR	17	3	0	BOXER	160	n/a	5	1	n/a	n/a	n/a	n/a	n/a
3301.08	n/a	RECOG_TARGET	1650540	n/a	LTP102	ltpFR	17	3	1	TOAD	1470	1	5	1	n/a	n/a	n/a	n/a	n/a
3301.624	n/a	RECOG_RESP	1650812	n/a	LTP102	ltpFR	17	3	1	TOAD	1470	1	n/a	1	n/a	n/a	n/a	n/a	n/a
3302.238	n/a	RECOG_CONF	1651119	n/a	LTP102	ltpFR	17	3	1	TOAD	1470	n/a	5	1	n/a	n/a	n/a	n/a	n/a
3311.656	n/a	REC_START	1655828	n/a	LTP102	ltpFR	17	4	n/a	n/a	n/a	n/a	n/a	n/a	n/a	n/a	n/a	n/a	n/a
3311.688	n/a	RECOG_LURE	1655844	n/a	LTP102	ltpFR	17	4	n/a	TWIN	1528	0	5	n/a	n/a	n/a	n/a	n/a	n/a
3312.378	n/a	RECOG_RESP	1656189	n/a	LTP102	ltpFR	17	4	n/a	TWIN	1528	0	n/a	n/a	n/a	n/a	n/a	n/a	n/a
3312.998	n/a	RECOG_CONF	1656499	n/a	LTP102	ltpFR	17	4	n/a	TWIN	1528	n/a	5	n/a	n/a	n/a	n/a	n/a	n/a
3314.38	n/a	RECOG_TARGET	1657190	n/a	LTP102	ltpFR	17	4	-1	BUN	197	1	5	-1	n/a	n/a	n/a	n/a	n/a
3314.942	n/a	RECOG_RESP	1657471	n/a	LTP102	ltpFR	17	4	-1	BUN	197	1	n/a	-1	n/a	n/a	n/a	n/a	n/a
3315.482	n/a	RECOG_CONF	1657741	n/a	LTP102	ltpFR	17	4	-1	BUN	197	n/a	5	-1	n/a	n/a	n/a	n/a	n/a
3316.896	n/a	RECOG_TARGET	1658448	n/a	LTP102	ltpFR	17	4	-1	CONSUMER	365	1	5	-1	n/a	n/a	n/a	n/a	n/a
3317.474	n/a	RECOG_RESP	1658737	n/a	LTP102	ltpFR	17	4	-1	CONSUMER	365	1	n/a	-1	n/a	n/a	n/a	n/a	n/a
3318.016	n/a	RECOG_CONF	1659008	n/a	LTP102	ltpFR	17	4	-1	CONSUMER	365	n/a	5	-1	n/a	n/a	n/a	n/a	n/a
3319.364	n/a	RECOG_LURE	1659682	n/a	LTP102	ltpFR	17	4	n/a	FLEET	578	0	5	n/a	n/a	n/a	n/a	n/a	n/a
3319.822	n/a	RECOG_RESP_VV	1659911	n/a	LTP102	ltpFR	17	4	n/a	FLEET	578	1	n/a	n/a	n/a	n/a	n/a	n/a	n/a
3320.082	n/a	RECOG_RESP	1660041	n/a	LTP102	ltpFR	17	4	n/a	FLEET	578	0	n/a	n/a	n/a	n/a	n/a	n/a	n/a
3320.74	n/a	RECOG_CONF	1660370	n/a	LTP102	ltpFR	17	4	n/a	FLEET	578	n/a	5	n/a	n/a	n/a	n/a	n/a	n/a
3322.054	n/a	RECOG_TARGET	1661027	n/a	LTP102	ltpFR	17	4	-1	PAN	1008	1	5	-1	n/a	n/a	n/a	n/a	n/a
3322.636	n/a	RECOG_RESP	1661318	n/a	LTP102	ltpFR	17	4	-1	PAN	1008	1	n/a	-1	n/a	n/a	n/a	n/a	n/a
3323.284	n/a	RECOG_CONF	1661642	n/a	LTP102	ltpFR	17	4	-1	PAN	1008	n/a	5	-1	n/a	n/a	n/a	n/a	n/a
3324.778	n/a	RECOG_LURE	1662389	n/a	LTP102	ltpFR	17	4	n/a	SNAIL	1332	1	4	n/a	n/a	n/a	n/a	n/a	n/a
3325.564	n/a	RECOG_RESP	1662782	n/a	LTP102	ltpFR	17	4	n/a	SNAIL	1332	1	n/a	n/a	n/a	n/a	n/a	n/a	n/a
3326.418	n/a	RECOG_CONF	1663209	n/a	LTP102	ltpFR	17	4	n/a	SNAIL	1332	n/a	4	n/a	n/a	n/a	n/a	n/a	n/a
3327.696	n/a	RECOG_TARGET	1663848	n/a	LTP102	ltpFR	17	4	0	PLAQUE	1084	1	5	0	n/a	n/a	n/a	n/a	n/a
3328.538	n/a	RECOG_RESP	1664269	n/a	LTP102	ltpFR	17	4	0	PLAQUE	1084	1	n/a	0	n/a	n/a	n/a	n/a	n/a
3329.122	n/a	RECOG_CONF	1664561	n/a	LTP102	ltpFR	17	4	0	PLAQUE	1084	n/a	5	0	n/a	n/a	n/a	n/a	n/a
3330.422	n/a	RECOG_TARGET	1665211	n/a	LTP102	ltpFR	17	4	1	MOAT	903	1	5	0	n/a	n/a	n/a	n/a	n/a
3331.058	n/a	RECOG_RESP	1665529	n/a	LTP102	ltpFR	17	4	1	MOAT	903	1	n/a	0	n/a	n/a	n/a	n/a	n/a
3332.314	n/a	RECOG_CONF	1666157	n/a	LTP102	ltpFR	17	4	1	MOAT	903	n/a	5	0	n/a	n/a	n/a	n/a	n/a
3333.894	n/a	RECOG_LURE	1666947	n/a	LTP102	ltpFR	17	4	n/a	QUAIL	1147	0	5	n/a	n/a	n/a	n/a	n/a	n/a
3334.59	n/a	RECOG_RESP	1667295	n/a	LTP102	ltpFR	17	4	n/a	QUAIL	1147	0	n/a	n/a	n/a	n/a	n/a	n/a	n/a
3335.528	n/a	RECOG_CONF	1667764	n/a	LTP102	ltpFR	17	4	n/a	QUAIL	1147	n/a	5	n/a	n/a	n/a	n/a	n/a	n/a
3336.946	n/a	RECOG_LURE	1668473	n/a	LTP102	ltpFR	17	4	n/a	GALLON	618	0	5	n/a	n/a	n/a	n/a	n/a	n/a
3337.708	n/a	RECOG_RESP	1668854	n/a	LTP102	ltpFR	17	4	n/a	GALLON	618	0	n/a	n/a	n/a	n/a	n/a	n/a	n/a
3338.372	n/a	RECOG_CONF	1669186	n/a	LTP102	ltpFR	17	4	n/a	GALLON	618	n/a	5	n/a	n/a	n/a	n/a	n/a	n/a
3339.654	n/a	RECOG_LURE	1669827	n/a	LTP102	ltpFR	17	4	n/a	SIDEWALK	1303	0	3	n/a	n/a	n/a	n/a	n/a	n/a
3340.662	n/a	RECOG_RESP	1670331	n/a	LTP102	ltpFR	17	4	n/a	SIDEWALK	1303	0	n/a	n/a	n/a	n/a	n/a	n/a	n/a
3341.374	n/a	RECOG_CONF	1670687	n/a	LTP102	ltpFR	17	4	n/a	SIDEWALK	1303	n/a	3	n/a	n/a	n/a	n/a	n/a	n/a
3342.654	n/a	RECOG_TARGET	1671327	n/a	LTP102	ltpFR	17	4	0	POWDER	1117	1	5	0	n/a	n/a	n/a	n/a	n/a
3343.386	n/a	RECOG_RESP	1671693	n/a	LTP102	ltpFR	17	4	0	POWDER	1117	1	n/a	0	n/a	n/a	n/a	n/a	n/a
3344.208	n/a	RECOG_CONF	1672104	n/a	LTP102	ltpFR	17	4	0	POWDER	1117	n/a	5	0	n/a	n/a	n/a	n/a	n/a
3345.604	n/a	RECOG_TARGET	1672802	n/a	LTP102	ltpFR	17	4	0	HEDGE	699	1	5	1	n/a	n/a	n/a	n/a	n/a
3346.174	n/a	RECOG_RESP	1673087	n/a	LTP102	ltpFR	17	4	0	HEDGE	699	1	n/a	1	n/a	n/a	n/a	n/a	n/a
3346.922	n/a	RECOG_CONF	1673461	n/a	LTP102	ltpFR	17	4	0	HEDGE	699	n/a	5	1	n/a	n/a	n/a	n/a	n/a
3348.27	n/a	RECOG_TARGET	1674135	n/a	LTP102	ltpFR	17	4	-1	DUNGEON	507	1	5	-1	n/a	n/a	n/a	n/a	n/a
3348.832	n/a	RECOG_RESP	1674416	n/a	LTP102	ltpFR	17	4	-1	DUNGEON	507	1	n/a	-1	n/a	n/a	n/a	n/a	n/a
3349.446	n/a	RECOG_CONF	1674723	n/a	LTP102	ltpFR	17	4	-1	DUNGEON	507	n/a	5	-1	n/a	n/a	n/a	n/a	n/a
3350.678	n/a	RECOG_TARGET	1675339	n/a	LTP102	ltpFR	17	4	1	CHAMBER	277	1	5	0	n/a	n/a	n/a	n/a	n/a
3352.33	n/a	RECOG_RESP	1676165	n/a	LTP102	ltpFR	17	4	1	CHAMBER	277	1	n/a	0	n/a	n/a	n/a	n/a	n/a
3353.338	n/a	RECOG_CONF	1676669	n/a	LTP102	ltpFR	17	4	1	CHAMBER	277	n/a	5	0	n/a	n/a	n/a	n/a	n/a
3354.812	n/a	RECOG_TARGET	1677406	n/a	LTP102	ltpFR	17	4	-1	ORNAMENT	985	1	5	-1	n/a	n/a	n/a	n/a	n/a
3355.354	n/a	RECOG_RESP	1677677	n/a	LTP102	ltpFR	17	4	-1	ORNAMENT	985	1	n/a	-1	n/a	n/a	n/a	n/a	n/a
3356.202	n/a	RECOG_CONF	1678101	n/a	LTP102	ltpFR	17	4	-1	ORNAMENT	985	n/a	5	-1	n/a	n/a	n/a	n/a	n/a
3357.636	n/a	RECOG_TARGET	1678818	n/a	LTP102	ltpFR	17	4	-1	PATIENT	1024	1	4	-1	n/a	n/a	n/a	n/a	n/a
3358.222	n/a	RECOG_RESP	1679111	n/a	LTP102	ltpFR	17	4	-1	PATIENT	1024	1	n/a	-1	n/a	n/a	n/a	n/a	n/a
3359.166	n/a	RECOG_CONF	1679583	n/a	LTP102	ltpFR	17	4	-1	PATIENT	1024	n/a	4	-1	n/a	n/a	n/a	n/a	n/a
3360.444	n/a	RECOG_TARGET	1680222	n/a	LTP102	ltpFR	17	4	1	CHURCH	307	1	5	0	n/a	n/a	n/a	n/a	n/a
3361.5	n/a	RECOG_RESP_VV	1680750	n/a	LTP102	ltpFR	17	4	1	CHURCH	307	0	n/a	0	n/a	n/a	n/a	n/a	n/a
3363.036	n/a	RECOG_RESP	1681518	n/a	LTP102	ltpFR	17	4	1	CHURCH	307	1	n/a	0	n/a	n/a	n/a	n/a	n/a
3363.864	n/a	RECOG_CONF	1681932	n/a	LTP102	ltpFR	17	4	1	CHURCH	307	n/a	5	0	n/a	n/a	n/a	n/a	n/a
3365.338	n/a	RECOG_TARGET	1682669	n/a	LTP102	ltpFR	17	4	0	SLUG	1329	0	5	0	n/a	n/a	n/a	n/a	n/a
3366.434	n/a	RECOG_RESP	1683217	n/a	LTP102	ltpFR	17	4	0	SLUG	1329	0	n/a	0	n/a	n/a	n/a	n/a	n/a
3367.188	n/a	RECOG_CONF	1683594	n/a	LTP102	ltpFR	17	4	0	SLUG	1329	n/a	5	0	n/a	n/a	n/a	n/a	n/a
3368.602	n/a	RECOG_TARGET	1684301	n/a	LTP102	ltpFR	17	4	0	BABY	64	1	5	0	n/a	n/a	n/a	n/a	n/a
3369.682	n/a	RECOG_RESP	1684841	n/a	LTP102	ltpFR	17	4	0	BABY	64	1	n/a	0	n/a	n/a	n/a	n/a	n/a
3370.64	n/a	RECOG_CONF	1685320	n/a	LTP102	ltpFR	17	4	0	BABY	64	n/a	5	0	n/a	n/a	n/a	n/a	n/a
3377.3	n/a	REC_START	1688650	n/a	LTP102	ltpFR	17	5	n/a	n/a	n/a	n/a	n/a	n/a	n/a	n/a	n/a	n/a	n/a
3377.338	n/a	RECOG_LURE	1688669	n/a	LTP102	ltpFR	17	5	n/a	DANCER	437	1	2	n/a	n/a	n/a	n/a	n/a	n/a
3378.092	n/a	RECOG_RESP	1689046	n/a	LTP102	ltpFR	17	5	n/a	DANCER	437	1	n/a	n/a	n/a	n/a	n/a	n/a	n/a
3379.02	n/a	RECOG_CONF	1689510	n/a	LTP102	ltpFR	17	5	n/a	DANCER	437	n/a	2	n/a	n/a	n/a	n/a	n/a	n/a
3380.42	n/a	RECOG_TARGET	1690210	n/a	LTP102	ltpFR	17	5	1	MAMMAL	861	1	5	1	n/a	n/a	n/a	n/a	n/a
3381.03	n/a	RECOG_RESP	1690515	n/a	LTP102	ltpFR	17	5	1	MAMMAL	861	1	n/a	1	n/a	n/a	n/a	n/a	n/a
3381.614	n/a	RECOG_CONF	1690807	n/a	LTP102	ltpFR	17	5	1	MAMMAL	861	n/a	5	1	n/a	n/a	n/a	n/a	n/a
3382.936	n/a	RECOG_TARGET	1691468	n/a	LTP102	ltpFR	17	5	0	CHAUFFEUR	283	1	5	1	n/a	n/a	n/a	n/a	n/a
3383.456	n/a	RECOG_RESP	1691728	n/a	LTP102	ltpFR	17	5	0	CHAUFFEUR	283	1	n/a	1	n/a	n/a	n/a	n/a	n/a
3384.04	n/a	RECOG_CONF	1692020	n/a	LTP102	ltpFR	17	5	0	CHAUFFEUR	283	n/a	5	1	n/a	n/a	n/a	n/a	n/a
3385.444	n/a	RECOG_TARGET	1692722	n/a	LTP102	ltpFR	17	5	0	PAD	998	1	5	0	n/a	n/a	n/a	n/a	n/a
3386.084	n/a	RECOG_RESP	1693042	n/a	LTP102	ltpFR	17	5	0	PAD	998	1	n/a	0	n/a	n/a	n/a	n/a	n/a
3386.654	n/a	RECOG_CONF	1693327	n/a	LTP102	ltpFR	17	5	0	PAD	998	n/a	5	0	n/a	n/a	n/a	n/a	n/a
3388.002	n/a	RECOG_TARGET	1694001	n/a	LTP102	ltpFR	17	5	1	SKETCH	1315	1	5	0	n/a	n/a	n/a	n/a	n/a
3388.544	n/a	RECOG_RESP	1694272	n/a	LTP102	ltpFR	17	5	1	SKETCH	1315	1	n/a	0	n/a	n/a	n/a	n/a	n/a
3389.234	n/a	RECOG_CONF	1694617	n/a	LTP102	ltpFR	17	5	1	SKETCH	1315	n/a	5	0	n/a	n/a	n/a	n/a	n/a
3390.618	n/a	RECOG_TARGET	1695309	n/a	LTP102	ltpFR	17	5	0	WATER	1594	1	5	1	n/a	n/a	n/a	n/a	n/a
3391.212	n/a	RECOG_RESP	1695606	n/a	LTP102	ltpFR	17	5	0	WATER	1594	1	n/a	1	n/a	n/a	n/a	n/a	n/a
3391.792	n/a	RECOG_CONF	1695896	n/a	LTP102	ltpFR	17	5	0	WATER	1594	n/a	5	1	n/a	n/a	n/a	n/a	n/a
3393.094	n/a	RECOG_TARGET	1696547	n/a	LTP102	ltpFR	17	5	0	CAFETERIA	217	1	4	1	n/a	n/a	n/a	n/a	n/a
3393.752	n/a	RECOG_RESP	1696876	n/a	LTP102	ltpFR	17	5	0	CAFETERIA	217	1	n/a	1	n/a	n/a	n/a	n/a	n/a
3394.526	n/a	RECOG_CONF	1697263	n/a	LTP102	ltpFR	17	5	0	CAFETERIA	217	n/a	4	1	n/a	n/a	n/a	n/a	n/a
3395.818	n/a	RECOG_TARGET	1697909	n/a	LTP102	ltpFR	17	5	0	FRAGRANCE	599	1	5	0	n/a	n/a	n/a	n/a	n/a
3396.356	n/a	RECOG_RESP	1698178	n/a	LTP102	ltpFR	17	5	0	FRAGRANCE	599	1	n/a	0	n/a	n/a	n/a	n/a	n/a
3397.04	n/a	RECOG_CONF	1698520	n/a	LTP102	ltpFR	17	5	0	FRAGRANCE	599	n/a	5	0	n/a	n/a	n/a	n/a	n/a
3398.328	n/a	RECOG_TARGET	1699164	n/a	LTP102	ltpFR	17	5	0	TOENAIL	1474	1	5	0	n/a	n/a	n/a	n/a	n/a
3398.862	n/a	RECOG_RESP	1699431	n/a	LTP102	ltpFR	17	5	0	TOENAIL	1474	1	n/a	0	n/a	n/a	n/a	n/a	n/a
3399.454	n/a	RECOG_CONF	1699727	n/a	LTP102	ltpFR	17	5	0	TOENAIL	1474	n/a	5	0	n/a	n/a	n/a	n/a	n/a
3400.686	n/a	RECOG_LURE	1700343	n/a	LTP102	ltpFR	17	5	n/a	ONION	977	0	2	n/a	n/a	n/a	n/a	n/a	n/a
3401.44	n/a	RECOG_RESP_VV	1700720	n/a	LTP102	ltpFR	17	5	n/a	ONION	977	0	n/a	n/a	n/a	n/a	n/a	n/a	n/a
3401.994	n/a	RECOG_RESP_VV	1700997	n/a	LTP102	ltpFR	17	5	n/a	ONION	977	1	n/a	n/a	n/a	n/a	n/a	n/a	n/a
3402.832	n/a	RECOG_RESP	1701416	n/a	LTP102	ltpFR	17	5	n/a	ONION	977	0	n/a	n/a	n/a	n/a	n/a	n/a	n/a
3404.684	n/a	RECOG_CONF	1702342	n/a	LTP102	ltpFR	17	5	n/a	ONION	977	n/a	2	n/a	n/a	n/a	n/a	n/a	n/a
3406.17	n/a	RECOG_TARGET	1703085	n/a	LTP102	ltpFR	17	5	1	DAISY	435	1	5	1	n/a	n/a	n/a	n/a	n/a
3406.904	n/a	RECOG_RESP	1703452	n/a	LTP102	ltpFR	17	5	1	DAISY	435	1	n/a	1	n/a	n/a	n/a	n/a	n/a
3407.516	n/a	RECOG_CONF	1703758	n/a	LTP102	ltpFR	17	5	1	DAISY	435	n/a	5	1	n/a	n/a	n/a	n/a	n/a
3409.252	n/a	RECOG_LURE	1704626	n/a	LTP102	ltpFR	17	5	n/a	BADGE	68	0	1	n/a	n/a	n/a	n/a	n/a	n/a
3410.28	n/a	RECOG_RESP_VV	1705140	n/a	LTP102	ltpFR	17	5	n/a	BADGE	68	1	n/a	n/a	n/a	n/a	n/a	n/a	n/a
3411.118	n/a	RECOG_RESP	1705559	n/a	LTP102	ltpFR	17	5	n/a	BADGE	68	0	n/a	n/a	n/a	n/a	n/a	n/a	n/a
3412.684	n/a	RECOG_CONF	1706342	n/a	LTP102	ltpFR	17	5	n/a	BADGE	68	n/a	1	n/a	n/a	n/a	n/a	n/a	n/a
3414.286	n/a	RECOG_TARGET	1707143	n/a	LTP102	ltpFR	17	5	1	SHOWER	1296	1	5	0	n/a	n/a	n/a	n/a	n/a
3415.01	n/a	RECOG_RESP	1707505	n/a	LTP102	ltpFR	17	5	1	SHOWER	1296	1	n/a	0	n/a	n/a	n/a	n/a	n/a
3416.268	n/a	RECOG_CONF	1708134	n/a	LTP102	ltpFR	17	5	1	SHOWER	1296	n/a	5	0	n/a	n/a	n/a	n/a	n/a
3417.668	n/a	RECOG_TARGET	1708834	n/a	LTP102	ltpFR	17	5	-1	DIAMOND	458	1	5	-1	n/a	n/a	n/a	n/a	n/a
3418.174	n/a	RECOG_RESP	1709087	n/a	LTP102	ltpFR	17	5	-1	DIAMOND	458	1	n/a	-1	n/a	n/a	n/a	n/a	n/a
3418.712	n/a	RECOG_CONF	1709356	n/a	LTP102	ltpFR	17	5	-1	DIAMOND	458	n/a	5	-1	n/a	n/a	n/a	n/a	n/a
3420.16	n/a	RECOG_TARGET	1710080	n/a	LTP102	ltpFR	17	5	1	BAY	102	1	5	0	n/a	n/a	n/a	n/a	n/a
3420.968	n/a	RECOG_RESP	1710484	n/a	LTP102	ltpFR	17	5	1	BAY	102	1	n/a	0	n/a	n/a	n/a	n/a	n/a
3421.636	n/a	RECOG_CONF	1710818	n/a	LTP102	ltpFR	17	5	1	BAY	102	n/a	5	0	n/a	n/a	n/a	n/a	n/a
3423.144	n/a	RECOG_TARGET	1711572	n/a	LTP102	ltpFR	17	5	0	VIKING	1565	1	5	1	n/a	n/a	n/a	n/a	n/a
3423.676	n/a	RECOG_RESP	1711838	n/a	LTP102	ltpFR	17	5	0	VIKING	1565	1	n/a	1	n/a	n/a	n/a	n/a	n/a
3424.34	n/a	RECOG_CONF	1712170	n/a	LTP102	ltpFR	17	5	0	VIKING	1565	n/a	5	1	n/a	n/a	n/a	n/a	n/a
3425.81	n/a	RECOG_TARGET	1712905	n/a	LTP102	ltpFR	17	5	0	PICTURE	1061	0	1	0	n/a	n/a	n/a	n/a	n/a
3427.298	n/a	RECOG_RESP	1713649	n/a	LTP102	ltpFR	17	5	0	PICTURE	1061	0	n/a	0	n/a	n/a	n/a	n/a	n/a
3428.56	n/a	RECOG_CONF	1714280	n/a	LTP102	ltpFR	17	5	0	PICTURE	1061	n/a	1	0	n/a	n/a	n/a	n/a	n/a
3430.018	n/a	RECOG_TARGET	1715009	n/a	LTP102	ltpFR	17	5	0	COOK	372	1	5	1	n/a	n/a	n/a	n/a	n/a
3430.74	n/a	RECOG_RESP	1715370	n/a	LTP102	ltpFR	17	5	0	COOK	372	1	n/a	1	n/a	n/a	n/a	n/a	n/a
3431.374	n/a	RECOG_CONF	1715687	n/a	LTP102	ltpFR	17	5	0	COOK	372	n/a	5	1	n/a	n/a	n/a	n/a	n/a
3432.684	n/a	RECOG_TARGET	1716342	n/a	LTP102	ltpFR	17	5	1	ADULT	8	0	1	1	n/a	n/a	n/a	n/a	n/a
3434.194	n/a	RECOG_RESP	1717097	n/a	LTP102	ltpFR	17	5	1	ADULT	8	0	n/a	1	n/a	n/a	n/a	n/a	n/a
3435.516	n/a	RECOG_CONF	1717758	n/a	LTP102	ltpFR	17	5	1	ADULT	8	n/a	1	1	n/a	n/a	n/a	n/a	n/a
3436.926	n/a	RECOG_TARGET	1718463	n/a	LTP102	ltpFR	17	5	0	MULE	931	0	5	1	n/a	n/a	n/a	n/a	n/a
3437.63	n/a	RECOG_RESP	1718815	n/a	LTP102	ltpFR	17	5	0	MULE	931	0	n/a	1	n/a	n/a	n/a	n/a	n/a
3438.498	n/a	RECOG_CONF	1719249	n/a	LTP102	ltpFR	17	5	0	MULE	931	n/a	5	1	n/a	n/a	n/a	n/a	n/a
3452.246	n/a	REC_START	1726123	n/a	LTP102	ltpFR	17	6	n/a	n/a	n/a	n/a	n/a	n/a	n/a	n/a	n/a	n/a	n/a
3452.284	n/a	RECOG_TARGET	1726142	n/a	LTP102	ltpFR	17	6	1	ENGINEER	536	1	5	1	n/a	n/a	n/a	n/a	n/a
3452.85	n/a	RECOG_RESP	1726425	n/a	LTP102	ltpFR	17	6	1	ENGINEER	536	1	n/a	1	n/a	n/a	n/a	n/a	n/a
3453.568	n/a	RECOG_CONF	1726784	n/a	LTP102	ltpFR	17	6	1	ENGINEER	536	n/a	5	1	n/a	n/a	n/a	n/a	n/a
3455.076	n/a	RECOG_TARGET	1727538	n/a	LTP102	ltpFR	17	6	1	BIKE	125	1	5	0	n/a	n/a	n/a	n/a	n/a
3455.648	n/a	RECOG_RESP	1727824	n/a	LTP102	ltpFR	17	6	1	BIKE	125	1	n/a	0	n/a	n/a	n/a	n/a	n/a
3456.262	n/a	RECOG_CONF	1728131	n/a	LTP102	ltpFR	17	6	1	BIKE	125	n/a	5	0	n/a	n/a	n/a	n/a	n/a
3457.668	n/a	RECOG_TARGET	1728834	n/a	LTP102	ltpFR	17	6	0	ELF	525	1	5	1	n/a	n/a	n/a	n/a	n/a
3458.202	n/a	RECOG_RESP	1729101	n/a	LTP102	ltpFR	17	6	0	ELF	525	1	n/a	1	n/a	n/a	n/a	n/a	n/a
3458.846	n/a	RECOG_CONF	1729423	n/a	LTP102	ltpFR	17	6	0	ELF	525	n/a	5	1	n/a	n/a	n/a	n/a	n/a
3460.334	n/a	RECOG_LURE	1730167	n/a	LTP102	ltpFR	17	6	n/a	NAPKIN	937	0	4	n/a	n/a	n/a	n/a	n/a	n/a
3461.036	n/a	RECOG_RESP	1730518	n/a	LTP102	ltpFR	17	6	n/a	NAPKIN	937	0	n/a	n/a	n/a	n/a	n/a	n/a	n/a
3461.83	n/a	RECOG_CONF	1730915	n/a	LTP102	ltpFR	17	6	n/a	NAPKIN	937	n/a	4	n/a	n/a	n/a	n/a	n/a	n/a
3463.276	n/a	RECOG_TARGET	1731638	n/a	LTP102	ltpFR	17	6	1	FOSSIL	596	1	5	0	n/a	n/a	n/a	n/a	n/a
3463.78	n/a	RECOG_RESP	1731890	n/a	LTP102	ltpFR	17	6	1	FOSSIL	596	1	n/a	0	n/a	n/a	n/a	n/a	n/a
3464.364	n/a	RECOG_CONF	1732182	n/a	LTP102	ltpFR	17	6	1	FOSSIL	596	n/a	5	0	n/a	n/a	n/a	n/a	n/a
3465.808	n/a	RECOG_TARGET	1732904	n/a	LTP102	ltpFR	17	6	0	POSTAGE	1113	1	3	1	n/a	n/a	n/a	n/a	n/a
3466.444	n/a	RECOG_RESP	1733222	n/a	LTP102	ltpFR	17	6	0	POSTAGE	1113	1	n/a	1	n/a	n/a	n/a	n/a	n/a
3467.318	n/a	RECOG_CONF	1733659	n/a	LTP102	ltpFR	17	6	0	POSTAGE	1113	n/a	3	1	n/a	n/a	n/a	n/a	n/a
3468.658	n/a	RECOG_TARGET	1734329	n/a	LTP102	ltpFR	17	6	-1	OUTLAW	989	0	4	-1	n/a	n/a	n/a	n/a	n/a
3469.202	n/a	RECOG_RESP_VV	1734601	n/a	LTP102	ltpFR	17	6	-1	OUTLAW	989	1	n/a	-1	n/a	n/a	n/a	n/a	n/a
3469.562	n/a	RECOG_RESP	1734781	n/a	LTP102	ltpFR	17	6	-1	OUTLAW	989	0	n/a	-1	n/a	n/a	n/a	n/a	n/a
3470.63	n/a	RECOG_CONF	1735315	n/a	LTP102	ltpFR	17	6	-1	OUTLAW	989	n/a	4	-1	n/a	n/a	n/a	n/a	n/a
3472.042	n/a	RECOG_TARGET	1736021	n/a	LTP102	ltpFR	17	6	-1	COMPUTER	359	1	5	-1	n/a	n/a	n/a	n/a	n/a
3473.03	n/a	RECOG_RESP	1736515	n/a	LTP102	ltpFR	17	6	-1	COMPUTER	359	1	n/a	-1	n/a	n/a	n/a	n/a	n/a
3473.664	n/a	RECOG_CONF	1736832	n/a	LTP102	ltpFR	17	6	-1	COMPUTER	359	n/a	5	-1	n/a	n/a	n/a	n/a	n/a
3475.084	n/a	RECOG_TARGET	1737542	n/a	LTP102	ltpFR	17	6	1	VACUUM	1543	1	5	0	n/a	n/a	n/a	n/a	n/a
3475.814	n/a	RECOG_RESP	1737907	n/a	LTP102	ltpFR	17	6	1	VACUUM	1543	1	n/a	0	n/a	n/a	n/a	n/a	n/a
3476.498	n/a	RECOG_CONF	1738249	n/a	LTP102	ltpFR	17	6	1	VACUUM	1543	n/a	5	0	n/a	n/a	n/a	n/a	n/a
3477.774	n/a	RECOG_TARGET	1738887	n/a	LTP102	ltpFR	17	6	0	TOWN	1491	1	5	2	n/a	n/a	n/a	n/a	n/a
3478.422	n/a	RECOG_RESP	1739211	n/a	LTP102	ltpFR	17	6	0	TOWN	1491	1	n/a	2	n/a	n/a	n/a	n/a	n/a
3478.982	n/a	RECOG_CONF	1739491	n/a	LTP102	ltpFR	17	6	0	TOWN	1491	n/a	5	2	n/a	n/a	n/a	n/a	n/a
3480.242	n/a	RECOG_LURE	1740121	n/a	LTP102	ltpFR	17	6	n/a	SCALPEL	1243	0	4	n/a	n/a	n/a	n/a	n/a	n/a
3480.882	n/a	RECOG_RESP	1740441	n/a	LTP102	ltpFR	17	6	n/a	SCALPEL	1243	0	n/a	n/a	n/a	n/a	n/a	n/a	n/a
3481.616	n/a	RECOG_CONF	1740808	n/a	LTP102	ltpFR	17	6	n/a	SCALPEL	1243	n/a	4	n/a	n/a	n/a	n/a	n/a	n/a
3482.982	n/a	RECOG_TARGET	1741491	n/a	LTP102	ltpFR	17	6	0	DILL	465	1	5	0	n/a	n/a	n/a	n/a	n/a
3483.612	n/a	RECOG_RESP	1741806	n/a	LTP102	ltpFR	17	6	0	DILL	465	1	n/a	0	n/a	n/a	n/a	n/a	n/a
3484.39	n/a	RECOG_CONF	1742195	n/a	LTP102	ltpFR	17	6	0	DILL	465	n/a	5	0	n/a	n/a	n/a	n/a	n/a
3485.632	n/a	RECOG_LURE	1742816	n/a	LTP102	ltpFR	17	6	n/a	COW	393	0	3	n/a	n/a	n/a	n/a	n/a	n/a
3486.394	n/a	RECOG_RESP	1743197	n/a	LTP102	ltpFR	17	6	n/a	COW	393	0	n/a	n/a	n/a	n/a	n/a	n/a	n/a
3488.61	n/a	RECOG_CONF	1744305	n/a	LTP102	ltpFR	17	6	n/a	COW	393	n/a	3	n/a	n/a	n/a	n/a	n/a	n/a
3490.058	n/a	RECOG_TARGET	1745029	n/a	LTP102	ltpFR	17	6	0	RAIL	1161	1	5	1	n/a	n/a	n/a	n/a	n/a
3491.484	n/a	RECOG_RESP	1745742	n/a	LTP102	ltpFR	17	6	0	RAIL	1161	1	n/a	1	n/a	n/a	n/a	n/a	n/a
3492.612	n/a	RECOG_CONF	1746306	n/a	LTP102	ltpFR	17	6	0	RAIL	1161	n/a	5	1	n/a	n/a	n/a	n/a	n/a
3494.084	n/a	RECOG_TARGET	1747042	n/a	LTP102	ltpFR	17	6	1	NEEDLE	941	1	5	0	n/a	n/a	n/a	n/a	n/a
3494.782	n/a	RECOG_RESP	1747391	n/a	LTP102	ltpFR	17	6	1	NEEDLE	941	1	n/a	0	n/a	n/a	n/a	n/a	n/a
3495.524	n/a	RECOG_CONF	1747762	n/a	LTP102	ltpFR	17	6	1	NEEDLE	941	n/a	5	0	n/a	n/a	n/a	n/a	n/a
3496.716	n/a	RECOG_TARGET	1748358	n/a	LTP102	ltpFR	17	6	-1	JELLY	755	0	1	-1	n/a	n/a	n/a	n/a	n/a
3497.38	n/a	RECOG_RESP	1748690	n/a	LTP102	ltpFR	17	6	-1	JELLY	755	0	n/a	-1	n/a	n/a	n/a	n/a	n/a
3499.974	n/a	RECOG_CONF	1749987	n/a	LTP102	ltpFR	17	6	-1	JELLY	755	n/a	1	-1	n/a	n/a	n/a	n/a	n/a
3501.376	n/a	RECOG_TARGET	1750688	n/a	LTP102	ltpFR	17	6	-1	GIRL	637	1	2	-1	n/a	n/a	n/a	n/a	n/a
3504.016	n/a	RECOG_RESP_VV	1752008	n/a	LTP102	ltpFR	17	6	-1	GIRL	637	1	n/a	-1	n/a	n/a	n/a	n/a	n/a
3505.622	n/a	RECOG_RESP_VV	1752811	n/a	LTP102	ltpFR	17	6	-1	GIRL	637	1	n/a	-1	n/a	n/a	n/a	n/a	n/a
3505.982	n/a	RECOG_RESP	1752991	n/a	LTP102	ltpFR	17	6	-1	GIRL	637	1	n/a	-1	n/a	n/a	n/a	n/a	n/a
3507.708	n/a	RECOG_CONF	1753854	n/a	LTP102	ltpFR	17	6	-1	GIRL	637	n/a	2	-1	n/a	n/a	n/a	n/a	n/a
3509.324	n/a	RECOG_LURE	1754662	n/a	LTP102	ltpFR	17	6	n/a	TWINE	1529	0	5	n/a	n/a	n/a	n/a	n/a	n/a
3510.262	n/a	RECOG_RESP	1755131	n/a	LTP102	ltpFR	17	6	n/a	TWINE	1529	0	n/a	n/a	n/a	n/a	n/a	n/a	n/a
