onset	duration	trial_type	sample	stim_file	subject	experiment	session	trial	item_name	item_num	list	answer	test_x	test_y	test_z
340.748	n/a	SESS_START	170374	n/a	LTP236	ltpFR2	0	n/a	n/a	n/a	n/a	n/a	0	0	0
420.166	n/a	START	210083	n/a	LTP236	ltpFR2	0	n/a	n/a	n/a	-1	n/a	n/a	n/a	n/a
420.198	n/a	PROB	210099	n/a	LTP236	ltpFR2	0	n/a	n/a	n/a	-1	15	6	5	4
423.084	n/a	PROB	211542	n/a	LTP236	ltpFR2	0	n/a	n/a	n/a	-1	15	1	7	7
424.736	n/a	PROB	212368	n/a	LTP236	ltpFR2	0	n/a	n/a	n/a	-1	19	9	6	4
427.42	n/a	PROB	213710	n/a	LTP236	ltpFR2	0	n/a	n/a	n/a	-1	17	5	5	7
428.956	n/a	PROB	214478	n/a	LTP236	ltpFR2	0	n/a	n/a	n/a	-1	18	8	9	1
431.07	n/a	STOP	215535	n/a	LTP236	ltpFR2	0	n/a	n/a	n/a	-1	n/a	n/a	n/a	n/a
540.016	n/a	DISTRACTOR	270008	n/a	LTP236	ltpFR2	0	1	n/a	n/a	n/a	n/a	0	0	0
540.016	n/a	START	270008	n/a	LTP236	ltpFR2	0	n/a	n/a	n/a	1	n/a	n/a	n/a	n/a
540.05	n/a	PROB	270025	n/a	LTP236	ltpFR2	0	n/a	n/a	n/a	1	12	4	1	7
542.952	n/a	PROB	271476	n/a	LTP236	ltpFR2	0	n/a	n/a	n/a	1	19	6	6	7
545.506	n/a	PROB	272753	n/a	LTP236	ltpFR2	0	n/a	n/a	n/a	1	10	6	3	1
547.49	n/a	PROB	273745	n/a	LTP236	ltpFR2	0	n/a	n/a	n/a	1	14	1	6	7
549.158	n/a	PROB	274579	n/a	LTP236	ltpFR2	0	n/a	n/a	n/a	1	18	7	7	4
550.56	n/a	PROB	275280	n/a	LTP236	ltpFR2	0	n/a	n/a	n/a	1	15	2	9	4
552.078	n/a	PROB	276039	n/a	LTP236	ltpFR2	0	n/a	n/a	n/a	1	20	5	7	8
554.046	n/a	PROB	277023	n/a	LTP236	ltpFR2	0	n/a	n/a	n/a	1	17	9	3	5
556.348	n/a	PROB	278174	n/a	LTP236	ltpFR2	0	n/a	n/a	n/a	1	3	1	1	1
557.448	n/a	PROB	278724	n/a	LTP236	ltpFR2	0	n/a	n/a	n/a	1	13	2	9	2
558.95	n/a	PROB	279475	n/a	LTP236	ltpFR2	0	n/a	n/a	n/a	1	11	2	8	1
560.15	n/a	PROB	280075	n/a	LTP236	ltpFR2	0	n/a	n/a	n/a	1	7	2	2	3
561.386	n/a	PROB	280693	n/a	LTP236	ltpFR2	0	n/a	n/a	n/a	1	16	6	1	9
563.186	n/a	STOP	281593	n/a	LTP236	ltpFR2	0	n/a	n/a	n/a	1	n/a	n/a	n/a	n/a
565.206	n/a	WORD	282603	wordpools/wasnorm_wordpool_576.txt	LTP236	ltpFR2	0	1	PLUTO	1092	n/a	n/a	0	0	0
567.774	n/a	WORD	283887	wordpools/wasnorm_wordpool_576.txt	LTP236	ltpFR2	0	1	FILM	565	n/a	n/a	0	0	0
570.26	n/a	WORD	285130	wordpools/wasnorm_wordpool_576.txt	LTP236	ltpFR2	0	1	KETCHUP	771	n/a	n/a	0	0	0
572.712	n/a	WORD	286356	wordpools/wasnorm_wordpool_576.txt	LTP236	ltpFR2	0	1	SALAD	1224	n/a	n/a	0	0	0
575.214	n/a	WORD	287607	wordpools/wasnorm_wordpool_576.txt	LTP236	ltpFR2	0	1	FRECKLE	602	n/a	n/a	0	0	0
577.882	n/a	WORD	288941	wordpools/wasnorm_wordpool_576.txt	LTP236	ltpFR2	0	1	WHISKERS	1605	n/a	n/a	0	0	0
580.568	n/a	WORD	290284	wordpools/wasnorm_wordpool_576.txt	LTP236	ltpFR2	0	1	BOYFRIEND	162	n/a	n/a	0	0	0
583.12	n/a	WORD	291560	wordpools/wasnorm_wordpool_576.txt	LTP236	ltpFR2	0	1	SPIDER	1351	n/a	n/a	0	0	0
585.672	n/a	WORD	292836	wordpools/wasnorm_wordpool_576.txt	LTP236	ltpFR2	0	1	CASKET	255	n/a	n/a	0	0	0
588.24	n/a	WORD	294120	wordpools/wasnorm_wordpool_576.txt	LTP236	ltpFR2	0	1	DANDRUFF	439	n/a	n/a	0	0	0
590.926	n/a	WORD	295463	wordpools/wasnorm_wordpool_576.txt	LTP236	ltpFR2	0	1	CRITIC	410	n/a	n/a	0	0	0
593.578	n/a	WORD	296789	wordpools/wasnorm_wordpool_576.txt	LTP236	ltpFR2	0	1	KNAPSACK	783	n/a	n/a	0	0	0
596.18	n/a	WORD	298090	wordpools/wasnorm_wordpool_576.txt	LTP236	ltpFR2	0	1	OX	994	n/a	n/a	0	0	0
598.968	n/a	WORD	299484	wordpools/wasnorm_wordpool_576.txt	LTP236	ltpFR2	0	1	SWIMMER	1420	n/a	n/a	0	0	0
601.586	n/a	WORD	300793	wordpools/wasnorm_wordpool_576.txt	LTP236	ltpFR2	0	1	MARINE	869	n/a	n/a	0	0	0
604.222	n/a	WORD	302111	wordpools/wasnorm_wordpool_576.txt	LTP236	ltpFR2	0	1	HANDBAG	684	n/a	n/a	0	0	0
606.824	n/a	WORD	303412	wordpools/wasnorm_wordpool_576.txt	LTP236	ltpFR2	0	1	ACTRESS	6	n/a	n/a	0	0	0
609.392	n/a	WORD	304696	wordpools/wasnorm_wordpool_576.txt	LTP236	ltpFR2	0	1	SKETCH	1315	n/a	n/a	0	0	0
611.844	n/a	WORD	305922	wordpools/wasnorm_wordpool_576.txt	LTP236	ltpFR2	0	1	PEACH	1031	n/a	n/a	0	0	0
614.446	n/a	WORD	307223	wordpools/wasnorm_wordpool_576.txt	LTP236	ltpFR2	0	1	PERCH	1048	n/a	n/a	0	0	0
617.032	n/a	WORD	308516	wordpools/wasnorm_wordpool_576.txt	LTP236	ltpFR2	0	1	DIME	466	n/a	n/a	0	0	0
619.618	n/a	WORD	309809	wordpools/wasnorm_wordpool_576.txt	LTP236	ltpFR2	0	1	DRAWING	494	n/a	n/a	0	0	0
622.286	n/a	WORD	311143	wordpools/wasnorm_wordpool_576.txt	LTP236	ltpFR2	0	1	CHILD	299	n/a	n/a	0	0	0
625.072	n/a	WORD	312536	wordpools/wasnorm_wordpool_576.txt	LTP236	ltpFR2	0	1	TRUCK	1512	n/a	n/a	0	0	0
626.69	n/a	START	313345	n/a	LTP236	ltpFR2	0	n/a	n/a	n/a	2	n/a	n/a	n/a	n/a
627.574	n/a	DISTRACTOR	313787	n/a	LTP236	ltpFR2	0	1	n/a	n/a	n/a	n/a	0	0	0
627.592	n/a	PROB	313796	n/a	LTP236	ltpFR2	0	n/a	n/a	n/a	2	16	3	6	7
630.26	n/a	PROB	315130	n/a	LTP236	ltpFR2	0	n/a	n/a	n/a	2	21	9	6	6
632.428	n/a	PROB	316214	n/a	LTP236	ltpFR2	0	n/a	n/a	n/a	2	18	4	9	5
634.18	n/a	PROB	317090	n/a	LTP236	ltpFR2	0	n/a	n/a	n/a	2	16	3	7	6
635.432	n/a	PROB	317716	n/a	LTP236	ltpFR2	0	n/a	n/a	n/a	2	22	6	6	8
639.034	n/a	PROB	319517	n/a	LTP236	ltpFR2	0	n/a	n/a	n/a	2	16	6	1	9
640.818	n/a	PROB	320409	n/a	LTP236	ltpFR2	0	n/a	n/a	n/a	2	19	5	5	9
641.986	n/a	PROB	320993	n/a	LTP236	ltpFR2	0	n/a	n/a	n/a	2	23	7	7	9
643.388	n/a	PROB	321694	n/a	LTP236	ltpFR2	0	n/a	n/a	n/a	2	17	3	9	5
644.722	n/a	PROB	322361	n/a	LTP236	ltpFR2	0	n/a	n/a	n/a	2	21	8	8	5
646.124	n/a	PROB	323062	n/a	LTP236	ltpFR2	0	n/a	n/a	n/a	2	24	9	8	7
648.376	n/a	PROB	324188	n/a	LTP236	ltpFR2	0	n/a	n/a	n/a	2	16	4	4	8
649.554	n/a	STOP	324777	n/a	LTP236	ltpFR2	0	n/a	n/a	n/a	2	n/a	n/a	n/a	n/a
652.68	n/a	REC_START	326340	n/a	LTP236	ltpFR2	0	1	n/a	n/a	n/a	n/a	0	0	0
653.886	n/a	REC_WORD	326943	wordpools/wasnorm_wordpool_576.txt	LTP236	ltpFR2	0	1	PLUTO	1092	n/a	n/a	0	0	0
654.838	n/a	REC_WORD	327419	wordpools/wasnorm_wordpool_576.txt	LTP236	ltpFR2	0	1	ACTRESS	6	n/a	n/a	0	0	0
655.838	n/a	REC_WORD	327919	wordpools/wasnorm_wordpool_576.txt	LTP236	ltpFR2	0	1	BOYFRIEND	162	n/a	n/a	0	0	0
656.774	n/a	REC_WORD	328387	wordpools/wasnorm_wordpool_576.txt	LTP236	ltpFR2	0	1	HANDBAG	684	n/a	n/a	0	0	0
658.252	n/a	REC_WORD	329126	wordpools/wasnorm_wordpool_576.txt	LTP236	ltpFR2	0	1	KNAPSACK	783	n/a	n/a	0	0	0
659.31	n/a	REC_WORD	329655	wordpools/wasnorm_wordpool_576.txt	LTP236	ltpFR2	0	1	CASKET	255	n/a	n/a	0	0	0
660.274	n/a	REC_WORD	330137	wordpools/wasnorm_wordpool_576.txt	LTP236	ltpFR2	0	1	SALAD	1224	n/a	n/a	0	0	0
661.422	n/a	REC_WORD	330711	wordpools/wasnorm_wordpool_576.txt	LTP236	ltpFR2	0	1	KETCHUP	771	n/a	n/a	0	0	0
673.75	n/a	REC_WORD	336875	wordpools/wasnorm_wordpool_576.txt	LTP236	ltpFR2	0	1	DRAWING	494	n/a	n/a	0	0	0
674.69	n/a	REC_WORD	337345	wordpools/wasnorm_wordpool_576.txt	LTP236	ltpFR2	0	1	SKETCH	1315	n/a	n/a	0	0	0
716.912	n/a	REC_WORD	358456	wordpools/wasnorm_wordpool_576.txt	LTP236	ltpFR2	0	1	FILM	565	n/a	n/a	0	0	0
775.284	n/a	WORD	387642	wordpools/wasnorm_wordpool_576.txt	LTP236	ltpFR2	0	2	COLLEGE	346	n/a	n/a	0	0	0
777.936	n/a	WORD	388968	wordpools/wasnorm_wordpool_576.txt	LTP236	ltpFR2	0	2	BULLET	194	n/a	n/a	0	0	0
780.404	n/a	WORD	390202	wordpools/wasnorm_wordpool_576.txt	LTP236	ltpFR2	0	2	PISTOL	1075	n/a	n/a	0	0	0
783.074	n/a	WORD	391537	wordpools/wasnorm_wordpool_576.txt	LTP236	ltpFR2	0	2	CLAM	315	n/a	n/a	0	0	0
785.626	n/a	WORD	392813	wordpools/wasnorm_wordpool_576.txt	LTP236	ltpFR2	0	2	STUDENT	1395	n/a	n/a	0	0	0
788.212	n/a	WORD	394106	wordpools/wasnorm_wordpool_576.txt	LTP236	ltpFR2	0	2	MEAT	883	n/a	n/a	0	0	0
790.646	n/a	WORD	395323	wordpools/wasnorm_wordpool_576.txt	LTP236	ltpFR2	0	2	HIKER	708	n/a	n/a	0	0	0
793.432	n/a	WORD	396716	wordpools/wasnorm_wordpool_576.txt	LTP236	ltpFR2	0	2	MARKER	870	n/a	n/a	0	0	0
795.984	n/a	WORD	397992	wordpools/wasnorm_wordpool_576.txt	LTP236	ltpFR2	0	2	JOURNAL	760	n/a	n/a	0	0	0
798.704	n/a	WORD	399352	wordpools/wasnorm_wordpool_576.txt	LTP236	ltpFR2	0	2	CARRIAGE	248	n/a	n/a	0	0	0
801.322	n/a	WORD	400661	wordpools/wasnorm_wordpool_576.txt	LTP236	ltpFR2	0	2	COWBOY	395	n/a	n/a	0	0	0
804.09	n/a	WORD	402045	wordpools/wasnorm_wordpool_576.txt	LTP236	ltpFR2	0	2	COFFEE	341	n/a	n/a	0	0	0
806.61	n/a	WORD	403305	wordpools/wasnorm_wordpool_576.txt	LTP236	ltpFR2	0	2	LAVA	804	n/a	n/a	0	0	0
809.328	n/a	WORD	404664	wordpools/wasnorm_wordpool_576.txt	LTP236	ltpFR2	0	2	NIGHTGOWN	953	n/a	n/a	0	0	0
811.816	n/a	WORD	405908	wordpools/wasnorm_wordpool_576.txt	LTP236	ltpFR2	0	2	CLOCK	325	n/a	n/a	0	0	0
814.6	n/a	WORD	407300	wordpools/wasnorm_wordpool_576.txt	LTP236	ltpFR2	0	2	PANTHER	1009	n/a	n/a	0	0	0
817.17	n/a	WORD	408585	wordpools/wasnorm_wordpool_576.txt	LTP236	ltpFR2	0	2	WAITRESS	1581	n/a	n/a	0	0	0
819.654	n/a	WORD	409827	wordpools/wasnorm_wordpool_576.txt	LTP236	ltpFR2	0	2	PERFUME	1049	n/a	n/a	0	0	0
822.106	n/a	WORD	411053	wordpools/wasnorm_wordpool_576.txt	LTP236	ltpFR2	0	2	STALLION	1369	n/a	n/a	0	0	0
824.842	n/a	WORD	412421	wordpools/wasnorm_wordpool_576.txt	LTP236	ltpFR2	0	2	MARSH	874	n/a	n/a	0	0	0
827.594	n/a	WORD	413797	wordpools/wasnorm_wordpool_576.txt	LTP236	ltpFR2	0	2	SPONGE	1355	n/a	n/a	0	0	0
830.348	n/a	WORD	415174	wordpools/wasnorm_wordpool_576.txt	LTP236	ltpFR2	0	2	MATTRESS	879	n/a	n/a	0	0	0
832.966	n/a	WORD	416483	wordpools/wasnorm_wordpool_576.txt	LTP236	ltpFR2	0	2	TURTLE	1522	n/a	n/a	0	0	0
835.802	n/a	WORD	417901	wordpools/wasnorm_wordpool_576.txt	LTP236	ltpFR2	0	2	POWDER	1117	n/a	n/a	0	0	0
837.42	n/a	START	418710	n/a	LTP236	ltpFR2	0	n/a	n/a	n/a	3	n/a	n/a	n/a	n/a
838.462	n/a	DISTRACTOR	419231	n/a	LTP236	ltpFR2	0	2	n/a	n/a	n/a	n/a	0	0	0
838.488	n/a	PROB	419244	n/a	LTP236	ltpFR2	0	n/a	n/a	n/a	3	9	5	1	3
841.54	n/a	PROB	420770	n/a	LTP236	ltpFR2	0	n/a	n/a	n/a	3	12	3	1	8
842.858	n/a	PROB	421429	n/a	LTP236	ltpFR2	0	n/a	n/a	n/a	3	6	2	1	3
844.042	n/a	PROB	422021	n/a	LTP236	ltpFR2	0	n/a	n/a	n/a	3	17	7	9	1
845.41	n/a	PROB	422705	n/a	LTP236	ltpFR2	0	n/a	n/a	n/a	3	13	4	6	3
846.56	n/a	PROB	423280	n/a	LTP236	ltpFR2	0	n/a	n/a	n/a	3	16	6	7	3
847.728	n/a	PROB	423864	n/a	LTP236	ltpFR2	0	n/a	n/a	n/a	3	8	4	1	3
848.896	n/a	PROB	424448	n/a	LTP236	ltpFR2	0	n/a	n/a	n/a	3	17	7	7	3
850.096	n/a	PROB	425048	n/a	LTP236	ltpFR2	0	n/a	n/a	n/a	3	22	9	4	9
851.364	n/a	PROB	425682	n/a	LTP236	ltpFR2	0	n/a	n/a	n/a	3	16	6	3	7
852.65	n/a	PROB	426325	n/a	LTP236	ltpFR2	0	n/a	n/a	n/a	3	11	1	7	3
853.8	n/a	PROB	426900	n/a	LTP236	ltpFR2	0	n/a	n/a	n/a	3	8	1	2	5
855.052	n/a	PROB	427526	n/a	LTP236	ltpFR2	0	n/a	n/a	n/a	3	17	9	7	1
856.202	n/a	PROB	428101	n/a	LTP236	ltpFR2	0	n/a	n/a	n/a	3	13	1	5	7
857.386	n/a	PROB	428693	n/a	LTP236	ltpFR2	0	n/a	n/a	n/a	3	13	8	4	1
858.438	n/a	PROB	429219	n/a	LTP236	ltpFR2	0	n/a	n/a	n/a	3	12	6	4	2
859.438	n/a	PROB	429719	n/a	LTP236	ltpFR2	0	n/a	n/a	n/a	3	18	8	7	3
860.958	n/a	STOP	430479	n/a	LTP236	ltpFR2	0	n/a	n/a	n/a	3	n/a	n/a	n/a	n/a
863.326	n/a	REC_START	431663	n/a	LTP236	ltpFR2	0	2	n/a	n/a	n/a	n/a	0	0	0
864.188	n/a	REC_WORD	432094	wordpools/wasnorm_wordpool_576.txt	LTP236	ltpFR2	0	2	STALLION	1369	n/a	n/a	0	0	0
865.346	n/a	REC_WORD	432673	wordpools/wasnorm_wordpool_576.txt	LTP236	ltpFR2	0	2	POWDER	1117	n/a	n/a	0	0	0
865.97	n/a	REC_WORD	432985	wordpools/wasnorm_wordpool_576.txt	LTP236	ltpFR2	0	2	STUDENT	1395	n/a	n/a	0	0	0
866.978	n/a	REC_WORD	433489	wordpools/wasnorm_wordpool_576.txt	LTP236	ltpFR2	0	2	COLLEGE	346	n/a	n/a	0	0	0
868.888	n/a	REC_WORD	434444	wordpools/wasnorm_wordpool_576.txt	LTP236	ltpFR2	0	2	PISTOL	1075	n/a	n/a	0	0	0
870.294	n/a	REC_WORD	435147	wordpools/wasnorm_wordpool_576.txt	LTP236	ltpFR2	0	2	BULLET	194	n/a	n/a	0	0	0
872.446	n/a	REC_WORD	436223	wordpools/wasnorm_wordpool_576.txt	LTP236	ltpFR2	0	2	CLAM	315	n/a	n/a	0	0	0
873.45	n/a	REC_WORD	436725	wordpools/wasnorm_wordpool_576.txt	LTP236	ltpFR2	0	2	MEAT	883	n/a	n/a	0	0	0
875.292	n/a	REC_WORD	437646	wordpools/wasnorm_wordpool_576.txt	LTP236	ltpFR2	0	2	TURTLE	1522	n/a	n/a	0	0	0
885.194	n/a	REC_WORD	442597	wordpools/wasnorm_wordpool_576.txt	LTP236	ltpFR2	0	2	STALLION	1369	n/a	n/a	0	0	0
892.244	n/a	REC_WORD	446122	wordpools/wasnorm_wordpool_576.txt	LTP236	ltpFR2	0	2	JOURNAL	760	n/a	n/a	0	0	0
893.386	n/a	REC_WORD	446693	wordpools/wasnorm_wordpool_576.txt	LTP236	ltpFR2	0	2	MARKER	870	n/a	n/a	0	0	0
901.126	n/a	REC_WORD	450563	wordpools/wasnorm_wordpool_576.txt	LTP236	ltpFR2	0	2	WAITRESS	1581	n/a	n/a	0	0	0
953.786	n/a	WORD	476893	wordpools/wasnorm_wordpool_576.txt	LTP236	ltpFR2	0	3	CORAL	378	n/a	n/a	0	0	0
956.22	n/a	WORD	478110	wordpools/wasnorm_wordpool_576.txt	LTP236	ltpFR2	0	3	MEDAL	885	n/a	n/a	0	0	0
958.74	n/a	WORD	479370	wordpools/wasnorm_wordpool_576.txt	LTP236	ltpFR2	0	3	FLEET	578	n/a	n/a	0	0	0
961.292	n/a	WORD	480646	wordpools/wasnorm_wordpool_576.txt	LTP236	ltpFR2	0	3	VIRUS	1572	n/a	n/a	0	0	0
963.744	n/a	WORD	481872	wordpools/wasnorm_wordpool_576.txt	LTP236	ltpFR2	0	3	POPCORN	1104	n/a	n/a	0	0	0
966.312	n/a	WORD	483156	wordpools/wasnorm_wordpool_576.txt	LTP236	ltpFR2	0	3	PECAN	1036	n/a	n/a	0	0	0
968.798	n/a	WORD	484399	wordpools/wasnorm_wordpool_576.txt	LTP236	ltpFR2	0	3	DAUGHTER	442	n/a	n/a	0	0	0
971.318	n/a	WORD	485659	wordpools/wasnorm_wordpool_576.txt	LTP236	ltpFR2	0	3	KEEPER	769	n/a	n/a	0	0	0
974.002	n/a	WORD	487001	wordpools/wasnorm_wordpool_576.txt	LTP236	ltpFR2	0	3	SALMON	1227	n/a	n/a	0	0	0
976.588	n/a	WORD	488294	wordpools/wasnorm_wordpool_576.txt	LTP236	ltpFR2	0	3	SHARK	1275	n/a	n/a	0	0	0
979.09	n/a	WORD	489545	wordpools/wasnorm_wordpool_576.txt	LTP236	ltpFR2	0	3	FUNGUS	614	n/a	n/a	0	0	0
981.626	n/a	WORD	490813	wordpools/wasnorm_wordpool_576.txt	LTP236	ltpFR2	0	3	HONEY	713	n/a	n/a	0	0	0
984.378	n/a	WORD	492189	wordpools/wasnorm_wordpool_576.txt	LTP236	ltpFR2	0	3	ICEBERG	731	n/a	n/a	0	0	0
986.898	n/a	WORD	493449	wordpools/wasnorm_wordpool_576.txt	LTP236	ltpFR2	0	3	PLASTER	1085	n/a	n/a	0	0	0
989.482	n/a	WORD	494741	wordpools/wasnorm_wordpool_576.txt	LTP236	ltpFR2	0	3	JUGGLER	763	n/a	n/a	0	0	0
992.052	n/a	WORD	496026	wordpools/wasnorm_wordpool_576.txt	LTP236	ltpFR2	0	3	TUBA	1515	n/a	n/a	0	0	0
994.554	n/a	WORD	497277	wordpools/wasnorm_wordpool_576.txt	LTP236	ltpFR2	0	3	PEANUT	1032	n/a	n/a	0	0	0
997.072	n/a	WORD	498536	wordpools/wasnorm_wordpool_576.txt	LTP236	ltpFR2	0	3	TRACTOR	1493	n/a	n/a	0	0	0
999.824	n/a	WORD	499912	wordpools/wasnorm_wordpool_576.txt	LTP236	ltpFR2	0	3	ONION	977	n/a	n/a	0	0	0
1002.51	n/a	WORD	501255	wordpools/wasnorm_wordpool_576.txt	LTP236	ltpFR2	0	3	GHETTO	633	n/a	n/a	0	0	0
1005.312	n/a	WORD	502656	wordpools/wasnorm_wordpool_576.txt	LTP236	ltpFR2	0	3	NECKLACE	940	n/a	n/a	0	0	0
1007.964	n/a	WORD	503982	wordpools/wasnorm_wordpool_576.txt	LTP236	ltpFR2	0	3	EMPIRE	530	n/a	n/a	0	0	0
1010.65	n/a	WORD	505325	wordpools/wasnorm_wordpool_576.txt	LTP236	ltpFR2	0	3	FRIEND	606	n/a	n/a	0	0	0
1013.386	n/a	WORD	506693	wordpools/wasnorm_wordpool_576.txt	LTP236	ltpFR2	0	3	SISTER	1312	n/a	n/a	0	0	0
1015.004	n/a	START	507502	n/a	LTP236	ltpFR2	0	n/a	n/a	n/a	4	n/a	n/a	n/a	n/a
1015.826	n/a	DISTRACTOR	507913	n/a	LTP236	ltpFR2	0	3	n/a	n/a	n/a	n/a	0	0	0
1015.838	n/a	PROB	507919	n/a	LTP236	ltpFR2	0	n/a	n/a	n/a	4	22	9	7	6
1018.79	n/a	PROB	509395	n/a	LTP236	ltpFR2	0	n/a	n/a	n/a	4	10	4	4	2
1019.974	n/a	PROB	509987	n/a	LTP236	ltpFR2	0	n/a	n/a	n/a	4	19	6	5	8
1021.292	n/a	PROB	510646	n/a	LTP236	ltpFR2	0	n/a	n/a	n/a	4	18	6	5	7
1023.378	n/a	PROB	511689	n/a	LTP236	ltpFR2	0	n/a	n/a	n/a	4	13	3	1	9
1024.562	n/a	PROB	512281	n/a	LTP236	ltpFR2	0	n/a	n/a	n/a	4	16	3	4	9
1025.88	n/a	PROB	512940	n/a	LTP236	ltpFR2	0	n/a	n/a	n/a	4	13	4	7	2
1027.566	n/a	PROB	513783	n/a	LTP236	ltpFR2	0	n/a	n/a	n/a	4	8	4	1	3
1028.666	n/a	PROB	514333	n/a	LTP236	ltpFR2	0	n/a	n/a	n/a	4	22	8	9	5
1029.934	n/a	PROB	514967	n/a	LTP236	ltpFR2	0	n/a	n/a	n/a	4	13	3	5	5
1031.202	n/a	PROB	515601	n/a	LTP236	ltpFR2	0	n/a	n/a	n/a	4	16	8	1	7
1032.386	n/a	PROB	516193	n/a	LTP236	ltpFR2	0	n/a	n/a	n/a	4	15	4	5	6
1034.154	n/a	PROB	517077	n/a	LTP236	ltpFR2	0	n/a	n/a	n/a	4	24	8	8	8
1035.472	n/a	PROB	517736	n/a	LTP236	ltpFR2	0	n/a	n/a	n/a	4	14	5	2	7
1036.706	n/a	PROB	518353	n/a	LTP236	ltpFR2	0	n/a	n/a	n/a	4	20	8	3	9
1038.002	n/a	STOP	519001	n/a	LTP236	ltpFR2	0	n/a	n/a	n/a	4	n/a	n/a	n/a	n/a
1040.91	n/a	REC_START	520455	n/a	LTP236	ltpFR2	0	3	n/a	n/a	n/a	n/a	0	0	0
1042.196	n/a	REC_WORD	521098	wordpools/wasnorm_wordpool_576.txt	LTP236	ltpFR2	0	3	CORAL	378	n/a	n/a	0	0	0
1043.092	n/a	REC_WORD	521546	wordpools/wasnorm_wordpool_576.txt	LTP236	ltpFR2	0	3	EMPIRE	530	n/a	n/a	0	0	0
1044.212	n/a	REC_WORD	522106	wordpools/wasnorm_wordpool_576.txt	LTP236	ltpFR2	0	3	DAUGHTER	442	n/a	n/a	0	0	0
1044.84	n/a	REC_WORD	522420	wordpools/wasnorm_wordpool_576.txt	LTP236	ltpFR2	0	3	SISTER	1312	n/a	n/a	0	0	0
1045.584	n/a	REC_WORD	522792	wordpools/wasnorm_wordpool_576.txt	LTP236	ltpFR2	0	3	FRIEND	606	n/a	n/a	0	0	0
1049.884	n/a	REC_WORD	524942	wordpools/wasnorm_wordpool_576.txt	LTP236	ltpFR2	0	3	PEANUT	1032	n/a	n/a	0	0	0
1050.99	n/a	REC_WORD	525495	wordpools/wasnorm_wordpool_576.txt	LTP236	ltpFR2	0	3	ONION	977	n/a	n/a	0	0	0
1052.292	n/a	REC_WORD	526146	wordpools/wasnorm_wordpool_576.txt	LTP236	ltpFR2	0	3	GHETTO	633	n/a	n/a	0	0	0
1081.07	n/a	REC_WORD	540535	wordpools/wasnorm_wordpool_576.txt	LTP236	ltpFR2	0	3	FUNGUS	614	n/a	n/a	0	0	0
1081.878	n/a	REC_WORD	540939	wordpools/wasnorm_wordpool_576.txt	LTP236	ltpFR2	0	3	VIRUS	1572	n/a	n/a	0	0	0
1083.04	n/a	REC_WORD	541520	wordpools/wasnorm_wordpool_576.txt	LTP236	ltpFR2	0	3	HONEY	713	n/a	n/a	0	0	0
1098.408	n/a	REC_WORD	549204	wordpools/wasnorm_wordpool_576.txt	LTP236	ltpFR2	0	3	MEDAL	885	n/a	n/a	0	0	0
1103.932	n/a	REC_WORD	551966	wordpools/wasnorm_wordpool_576.txt	LTP236	ltpFR2	0	3	TUBA	1515	n/a	n/a	0	0	0
1131.57	n/a	WORD	565785	wordpools/wasnorm_wordpool_576.txt	LTP236	ltpFR2	0	4	TABLET	1427	n/a	n/a	0	0	0
1134.156	n/a	WORD	567078	wordpools/wasnorm_wordpool_576.txt	LTP236	ltpFR2	0	4	DRUG	501	n/a	n/a	0	0	0
1136.658	n/a	WORD	568329	wordpools/wasnorm_wordpool_576.txt	LTP236	ltpFR2	0	4	OINTMENT	974	n/a	n/a	0	0	0
1139.31	n/a	WORD	569655	wordpools/wasnorm_wordpool_576.txt	LTP236	ltpFR2	0	4	MUSTARD	935	n/a	n/a	0	0	0
1141.864	n/a	WORD	570932	wordpools/wasnorm_wordpool_576.txt	LTP236	ltpFR2	0	4	FOREST	593	n/a	n/a	0	0	0
1144.664	n/a	WORD	572332	wordpools/wasnorm_wordpool_576.txt	LTP236	ltpFR2	0	4	MARKET	871	n/a	n/a	0	0	0
1147.316	n/a	WORD	573658	wordpools/wasnorm_wordpool_576.txt	LTP236	ltpFR2	0	4	SHELF	1280	n/a	n/a	0	0	0
1149.986	n/a	WORD	574993	wordpools/wasnorm_wordpool_576.txt	LTP236	ltpFR2	0	4	LIPSTICK	829	n/a	n/a	0	0	0
1152.504	n/a	WORD	576252	wordpools/wasnorm_wordpool_576.txt	LTP236	ltpFR2	0	4	ICING	732	n/a	n/a	0	0	0
1155.156	n/a	WORD	577578	wordpools/wasnorm_wordpool_576.txt	LTP236	ltpFR2	0	4	STAPLE	1371	n/a	n/a	0	0	0
1157.958	n/a	WORD	578979	wordpools/wasnorm_wordpool_576.txt	LTP236	ltpFR2	0	4	TEACHER	1440	n/a	n/a	0	0	0
1160.512	n/a	WORD	580256	wordpools/wasnorm_wordpool_576.txt	LTP236	ltpFR2	0	4	MUFFIN	929	n/a	n/a	0	0	0
1163.246	n/a	WORD	581623	wordpools/wasnorm_wordpool_576.txt	LTP236	ltpFR2	0	4	DASHBOARD	441	n/a	n/a	0	0	0
1165.982	n/a	WORD	582991	wordpools/wasnorm_wordpool_576.txt	LTP236	ltpFR2	0	4	SPHINX	1349	n/a	n/a	0	0	0
1168.5	n/a	WORD	584250	wordpools/wasnorm_wordpool_576.txt	LTP236	ltpFR2	0	4	CATCHER	258	n/a	n/a	0	0	0
1170.97	n/a	WORD	585485	wordpools/wasnorm_wordpool_576.txt	LTP236	ltpFR2	0	4	SOFTBALL	1343	n/a	n/a	0	0	0
1173.656	n/a	WORD	586828	wordpools/wasnorm_wordpool_576.txt	LTP236	ltpFR2	0	4	SHORTCAKE	1292	n/a	n/a	0	0	0
1176.424	n/a	WORD	588212	wordpools/wasnorm_wordpool_576.txt	LTP236	ltpFR2	0	4	ACTOR	5	n/a	n/a	0	0	0
1179.16	n/a	WORD	589580	wordpools/wasnorm_wordpool_576.txt	LTP236	ltpFR2	0	4	PAPER	1011	n/a	n/a	0	0	0
1181.628	n/a	WORD	590814	wordpools/wasnorm_wordpool_576.txt	LTP236	ltpFR2	0	4	TYPIST	1532	n/a	n/a	0	0	0
1184.366	n/a	WORD	592183	wordpools/wasnorm_wordpool_576.txt	LTP236	ltpFR2	0	4	GREASE	660	n/a	n/a	0	0	0
1186.884	n/a	WORD	593442	wordpools/wasnorm_wordpool_576.txt	LTP236	ltpFR2	0	4	TWIG	1527	n/a	n/a	0	0	0
1189.552	n/a	WORD	594776	wordpools/wasnorm_wordpool_576.txt	LTP236	ltpFR2	0	4	GRILL	661	n/a	n/a	0	0	0
1192.306	n/a	WORD	596153	wordpools/wasnorm_wordpool_576.txt	LTP236	ltpFR2	0	4	ROD	1203	n/a	n/a	0	0	0
1193.924	n/a	START	596962	n/a	LTP236	ltpFR2	0	n/a	n/a	n/a	5	n/a	n/a	n/a	n/a
1195.032	n/a	DISTRACTOR	597516	n/a	LTP236	ltpFR2	0	4	n/a	n/a	n/a	n/a	0	0	0
1195.04	n/a	PROB	597520	n/a	LTP236	ltpFR2	0	n/a	n/a	n/a	5	13	1	4	8
1196.958	n/a	PROB	598479	n/a	LTP236	ltpFR2	0	n/a	n/a	n/a	5	17	9	5	3
1201.38	n/a	PROB	600690	n/a	LTP236	ltpFR2	0	n/a	n/a	n/a	5	23	9	7	7
1203.482	n/a	PROB	601741	n/a	LTP236	ltpFR2	0	n/a	n/a	n/a	5	11	9	1	1
1204.832	n/a	PROB	602416	n/a	LTP236	ltpFR2	0	n/a	n/a	n/a	5	9	2	3	4
1206.35	n/a	PROB	603175	n/a	LTP236	ltpFR2	0	n/a	n/a	n/a	5	20	6	5	9
1207.718	n/a	PROB	603859	n/a	LTP236	ltpFR2	0	n/a	n/a	n/a	5	12	3	5	4
1209.02	n/a	PROB	604510	n/a	LTP236	ltpFR2	0	n/a	n/a	n/a	5	9	1	3	5
1210.186	n/a	PROB	605093	n/a	LTP236	ltpFR2	0	n/a	n/a	n/a	5	13	3	7	3
1211.354	n/a	PROB	605677	n/a	LTP236	ltpFR2	0	n/a	n/a	n/a	5	20	8	4	8
1213.64	n/a	PROB	606820	n/a	LTP236	ltpFR2	0	n/a	n/a	n/a	5	10	1	6	3
1214.824	n/a	PROB	607412	n/a	LTP236	ltpFR2	0	n/a	n/a	n/a	5	16	9	2	5
1217.924	n/a	STOP	608962	n/a	LTP236	ltpFR2	0	n/a	n/a	n/a	5	n/a	n/a	n/a	n/a
1219.778	n/a	REC_START	609889	n/a	LTP236	ltpFR2	0	4	n/a	n/a	n/a	n/a	0	0	0
1221.248	n/a	REC_WORD	610624	wordpools/wasnorm_wordpool_576.txt	LTP236	ltpFR2	0	4	ICING	732	n/a	n/a	0	0	0
1222.456	n/a	REC_WORD	611228	wordpools/wasnorm_wordpool_576.txt	LTP236	ltpFR2	0	4	GREASE	660	n/a	n/a	0	0	0
1224.456	n/a	REC_WORD	612228	wordpools/wasnorm_wordpool_576.txt	LTP236	ltpFR2	0	4	SHORTCAKE	1292	n/a	n/a	0	0	0
1225.916	n/a	REC_WORD	612958	wordpools/wasnorm_wordpool_576.txt	LTP236	ltpFR2	0	4	ROD	1203	n/a	n/a	0	0	0
1227.284	n/a	REC_WORD	613642	wordpools/wasnorm_wordpool_576.txt	LTP236	ltpFR2	0	4	TWIG	1527	n/a	n/a	0	0	0
1228.27	n/a	REC_WORD	614135	wordpools/wasnorm_wordpool_576.txt	LTP236	ltpFR2	0	4	FOREST	593	n/a	n/a	0	0	0
1229.602	n/a	REC_WORD	614801	wordpools/wasnorm_wordpool_576.txt	LTP236	ltpFR2	0	4	GRILL	661	n/a	n/a	0	0	0
1230.858	n/a	REC_WORD	615429	wordpools/wasnorm_wordpool_576.txt	LTP236	ltpFR2	0	4	TEACHER	1440	n/a	n/a	0	0	0
1233.14	n/a	REC_WORD	616570	wordpools/wasnorm_wordpool_576.txt	LTP236	ltpFR2	0	4	MARKET	871	n/a	n/a	0	0	0
1243.612	n/a	REC_WORD	621806	wordpools/wasnorm_wordpool_576.txt	LTP236	ltpFR2	0	4	LIPSTICK	829	n/a	n/a	0	0	0
1248.0	n/a	REC_WORD	624000	wordpools/wasnorm_wordpool_576.txt	LTP236	ltpFR2	0	4	TYPIST	1532	n/a	n/a	0	0	0
1256.784	n/a	REC_WORD	628392	wordpools/wasnorm_wordpool_576.txt	LTP236	ltpFR2	0	4	MUSTARD	935	n/a	n/a	0	0	0
1265.524	n/a	REC_WORD	632762	wordpools/wasnorm_wordpool_576.txt	LTP236	ltpFR2	0	4	SHELF	1280	n/a	n/a	0	0	0
1310.406	n/a	DISTRACTOR	655203	n/a	LTP236	ltpFR2	0	5	n/a	n/a	n/a	n/a	0	0	0
1310.406	n/a	START	655203	n/a	LTP236	ltpFR2	0	n/a	n/a	n/a	6	n/a	n/a	n/a	n/a
1310.438	n/a	PROB	655219	n/a	LTP236	ltpFR2	0	n/a	n/a	n/a	6	23	8	9	6
1312.724	n/a	PROB	656362	n/a	LTP236	ltpFR2	0	n/a	n/a	n/a	6	14	4	2	8
1315.426	n/a	PROB	657713	n/a	LTP236	ltpFR2	0	n/a	n/a	n/a	6	13	8	4	1
1316.544	n/a	PROB	658272	n/a	LTP236	ltpFR2	0	n/a	n/a	n/a	6	15	4	6	5
1317.628	n/a	PROB	658814	n/a	LTP236	ltpFR2	0	n/a	n/a	n/a	6	15	2	7	6
1318.812	n/a	PROB	659406	n/a	LTP236	ltpFR2	0	n/a	n/a	n/a	6	9	1	7	1
1320.448	n/a	PROB	660224	n/a	LTP236	ltpFR2	0	n/a	n/a	n/a	6	21	8	6	7
1322.716	n/a	PROB	661358	n/a	LTP236	ltpFR2	0	n/a	n/a	n/a	6	15	6	2	7
1324.266	n/a	PROB	662133	n/a	LTP236	ltpFR2	0	n/a	n/a	n/a	6	18	3	6	9
1325.784	n/a	PROB	662892	n/a	LTP236	ltpFR2	0	n/a	n/a	n/a	6	13	2	7	4
1326.97	n/a	PROB	663485	n/a	LTP236	ltpFR2	0	n/a	n/a	n/a	6	8	2	3	3
1328.47	n/a	PROB	664235	n/a	LTP236	ltpFR2	0	n/a	n/a	n/a	6	13	1	4	8
1329.638	n/a	PROB	664819	n/a	LTP236	ltpFR2	0	n/a	n/a	n/a	6	12	3	7	2
1334.406	n/a	STOP	667203	n/a	LTP236	ltpFR2	0	n/a	n/a	n/a	6	n/a	n/a	n/a	n/a
1335.292	n/a	WORD	667646	wordpools/wasnorm_wordpool_576.txt	LTP236	ltpFR2	0	5	SUBWAY	1400	n/a	n/a	0	0	0
1338.078	n/a	WORD	669039	wordpools/wasnorm_wordpool_576.txt	LTP236	ltpFR2	0	5	ORCHID	982	n/a	n/a	0	0	0
1340.598	n/a	WORD	670299	wordpools/wasnorm_wordpool_576.txt	LTP236	ltpFR2	0	5	SUSPECT	1415	n/a	n/a	0	0	0
1343.166	n/a	WORD	671583	wordpools/wasnorm_wordpool_576.txt	LTP236	ltpFR2	0	5	DRESSER	496	n/a	n/a	0	0	0
1345.768	n/a	WORD	672884	wordpools/wasnorm_wordpool_576.txt	LTP236	ltpFR2	0	5	PIANO	1057	n/a	n/a	0	0	0
1348.254	n/a	WORD	674127	wordpools/wasnorm_wordpool_576.txt	LTP236	ltpFR2	0	5	SNAIL	1332	n/a	n/a	0	0	0
1350.924	n/a	WORD	675462	wordpools/wasnorm_wordpool_576.txt	LTP236	ltpFR2	0	5	OYSTER	995	n/a	n/a	0	0	0
1353.71	n/a	WORD	676855	wordpools/wasnorm_wordpool_576.txt	LTP236	ltpFR2	0	5	CROWN	415	n/a	n/a	0	0	0
1356.378	n/a	WORD	678189	wordpools/wasnorm_wordpool_576.txt	LTP236	ltpFR2	0	5	BACKBONE	66	n/a	n/a	0	0	0
1359.08	n/a	WORD	679540	wordpools/wasnorm_wordpool_576.txt	LTP236	ltpFR2	0	5	COOKBOOK	373	n/a	n/a	0	0	0
1361.682	n/a	WORD	680841	wordpools/wasnorm_wordpool_576.txt	LTP236	ltpFR2	0	5	PADDING	999	n/a	n/a	0	0	0
1364.184	n/a	WORD	682092	wordpools/wasnorm_wordpool_576.txt	LTP236	ltpFR2	0	5	VELVET	1555	n/a	n/a	0	0	0
1366.87	n/a	WORD	683435	wordpools/wasnorm_wordpool_576.txt	LTP236	ltpFR2	0	5	KITCHEN	778	n/a	n/a	0	0	0
1369.622	n/a	WORD	684811	wordpools/wasnorm_wordpool_576.txt	LTP236	ltpFR2	0	5	TWEEZERS	1526	n/a	n/a	0	0	0
1372.324	n/a	WORD	686162	wordpools/wasnorm_wordpool_576.txt	LTP236	ltpFR2	0	5	FARMER	553	n/a	n/a	0	0	0
1375.094	n/a	WORD	687547	wordpools/wasnorm_wordpool_576.txt	LTP236	ltpFR2	0	5	COCKTAIL	338	n/a	n/a	0	0	0
1377.846	n/a	WORD	688923	wordpools/wasnorm_wordpool_576.txt	LTP236	ltpFR2	0	5	FLASK	576	n/a	n/a	0	0	0
1380.598	n/a	WORD	690299	wordpools/wasnorm_wordpool_576.txt	LTP236	ltpFR2	0	5	PLATE	1086	n/a	n/a	0	0	0
1383.066	n/a	WORD	691533	wordpools/wasnorm_wordpool_576.txt	LTP236	ltpFR2	0	5	CONVICT	371	n/a	n/a	0	0	0
1385.618	n/a	WORD	692809	wordpools/wasnorm_wordpool_576.txt	LTP236	ltpFR2	0	5	BEAST	108	n/a	n/a	0	0	0
1388.254	n/a	WORD	694127	wordpools/wasnorm_wordpool_576.txt	LTP236	ltpFR2	0	5	ASIA	46	n/a	n/a	0	0	0
1390.94	n/a	WORD	695470	wordpools/wasnorm_wordpool_576.txt	LTP236	ltpFR2	0	5	OUTLAW	989	n/a	n/a	0	0	0
1393.726	n/a	WORD	696863	wordpools/wasnorm_wordpool_576.txt	LTP236	ltpFR2	0	5	BURGLAR	200	n/a	n/a	0	0	0
1396.53	n/a	WORD	698265	wordpools/wasnorm_wordpool_576.txt	LTP236	ltpFR2	0	5	PRINCESS	1125	n/a	n/a	0	0	0
1398.148	n/a	START	699074	n/a	LTP236	ltpFR2	0	n/a	n/a	n/a	7	n/a	n/a	n/a	n/a
1399.304	n/a	DISTRACTOR	699652	n/a	LTP236	ltpFR2	0	5	n/a	n/a	n/a	n/a	0	0	0
1399.314	n/a	PROB	699657	n/a	LTP236	ltpFR2	0	n/a	n/a	n/a	7	10	1	2	7
1401.716	n/a	PROB	700858	n/a	LTP236	ltpFR2	0	n/a	n/a	n/a	7	9	3	3	3
1402.9	n/a	PROB	701450	n/a	LTP236	ltpFR2	0	n/a	n/a	n/a	7	6	1	3	2
1404.452	n/a	PROB	702226	n/a	LTP236	ltpFR2	0	n/a	n/a	n/a	7	10	6	2	2
1407.122	n/a	PROB	703561	n/a	LTP236	ltpFR2	0	n/a	n/a	n/a	7	18	3	7	8
1408.756	n/a	PROB	704378	n/a	LTP236	ltpFR2	0	n/a	n/a	n/a	7	13	3	8	2
1411.508	n/a	PROB	705754	n/a	LTP236	ltpFR2	0	n/a	n/a	n/a	7	14	5	6	3
1412.71	n/a	PROB	706355	n/a	LTP236	ltpFR2	0	n/a	n/a	n/a	7	7	1	1	5
1413.81	n/a	PROB	706905	n/a	LTP236	ltpFR2	0	n/a	n/a	n/a	7	19	6	4	9
1415.628	n/a	PROB	707814	n/a	LTP236	ltpFR2	0	n/a	n/a	n/a	7	12	1	4	7
1416.796	n/a	PROB	708398	n/a	LTP236	ltpFR2	0	n/a	n/a	n/a	7	10	6	3	1
1418.246	n/a	PROB	709123	n/a	LTP236	ltpFR2	0	n/a	n/a	n/a	7	18	9	1	8
1419.398	n/a	PROB	709699	n/a	LTP236	ltpFR2	0	n/a	n/a	n/a	7	18	8	9	1
1420.634	n/a	STOP	710317	n/a	LTP236	ltpFR2	0	n/a	n/a	n/a	7	n/a	n/a	n/a	n/a
1424.02	n/a	REC_START	712010	n/a	LTP236	ltpFR2	0	5	n/a	n/a	n/a	n/a	0	0	0
1425.054	n/a	REC_WORD	712527	wordpools/wasnorm_wordpool_576.txt	LTP236	ltpFR2	0	5	CONVICT	371	n/a	n/a	0	0	0
1426.328	n/a	REC_WORD	713164	wordpools/wasnorm_wordpool_576.txt	LTP236	ltpFR2	0	5	OUTLAW	989	n/a	n/a	0	0	0
1427.28	n/a	REC_WORD	713640	wordpools/wasnorm_wordpool_576.txt	LTP236	ltpFR2	0	5	BURGLAR	200	n/a	n/a	0	0	0
1428.126	n/a	REC_WORD	714063	wordpools/wasnorm_wordpool_576.txt	LTP236	ltpFR2	0	5	PRINCESS	1125	n/a	n/a	0	0	0
1429.062	n/a	REC_WORD	714531	wordpools/wasnorm_wordpool_576.txt	LTP236	ltpFR2	0	5	CROWN	415	n/a	n/a	0	0	0
1429.828	n/a	REC_WORD	714914	wordpools/wasnorm_wordpool_576.txt	LTP236	ltpFR2	0	5	SNAIL	1332	n/a	n/a	0	0	0
1430.824	n/a	REC_WORD	715412	wordpools/wasnorm_wordpool_576.txt	LTP236	ltpFR2	0	5	BACKBONE	66	n/a	n/a	0	0	0
1432.536	n/a	REC_WORD	716268	wordpools/wasnorm_wordpool_576.txt	LTP236	ltpFR2	0	5	PADDING	999	n/a	n/a	0	0	0
1434.984	n/a	REC_WORD	717492	wordpools/wasnorm_wordpool_576.txt	LTP236	ltpFR2	0	5	OYSTER	995	n/a	n/a	0	0	0
1443.74	n/a	REC_WORD	721870	wordpools/wasnorm_wordpool_576.txt	LTP236	ltpFR2	0	5	COOKBOOK	373	n/a	n/a	0	0	0
1444.722	n/a	REC_WORD	722361	wordpools/wasnorm_wordpool_576.txt	LTP236	ltpFR2	0	5	COCKTAIL	338	n/a	n/a	0	0	0
1445.562	n/a	REC_WORD	722781	wordpools/wasnorm_wordpool_576.txt	LTP236	ltpFR2	0	5	FLASK	576	n/a	n/a	0	0	0
1446.792	n/a	REC_WORD	723396	wordpools/wasnorm_wordpool_576.txt	LTP236	ltpFR2	0	5	PLATE	1086	n/a	n/a	0	0	0
1454.178	n/a	REC_WORD	727089	wordpools/wasnorm_wordpool_576.txt	LTP236	ltpFR2	0	5	KITCHEN	778	n/a	n/a	0	0	0
1462.864	n/a	REC_WORD	731432	wordpools/wasnorm_wordpool_576.txt	LTP236	ltpFR2	0	5	ASIA	46	n/a	n/a	0	0	0
1514.612	n/a	DISTRACTOR	757306	n/a	LTP236	ltpFR2	0	6	n/a	n/a	n/a	n/a	0	0	0
1514.612	n/a	START	757306	n/a	LTP236	ltpFR2	0	n/a	n/a	n/a	8	n/a	n/a	n/a	n/a
1514.646	n/a	PROB	757323	n/a	LTP236	ltpFR2	0	n/a	n/a	n/a	8	18	3	6	9
1516.714	n/a	PROB	758357	n/a	LTP236	ltpFR2	0	n/a	n/a	n/a	8	18	8	8	2
1518.048	n/a	PROB	759024	n/a	LTP236	ltpFR2	0	n/a	n/a	n/a	8	12	5	1	6
1519.082	n/a	PROB	759541	n/a	LTP236	ltpFR2	0	n/a	n/a	n/a	8	15	8	3	4
1520.218	n/a	PROB	760109	n/a	LTP236	ltpFR2	0	n/a	n/a	n/a	8	21	9	5	8
1521.534	n/a	PROB	760767	n/a	LTP236	ltpFR2	0	n/a	n/a	n/a	8	11	3	5	3
1523.42	n/a	PROB	761710	n/a	LTP236	ltpFR2	0	n/a	n/a	n/a	8	13	6	1	6
1524.638	n/a	PROB	762319	n/a	LTP236	ltpFR2	0	n/a	n/a	n/a	8	20	7	4	9
1525.888	n/a	PROB	762944	n/a	LTP236	ltpFR2	0	n/a	n/a	n/a	8	18	5	7	6
1527.256	n/a	PROB	763628	n/a	LTP236	ltpFR2	0	n/a	n/a	n/a	8	11	8	1	2
1528.908	n/a	PROB	764454	n/a	LTP236	ltpFR2	0	n/a	n/a	n/a	8	11	1	7	3
1530.392	n/a	PROB	765196	n/a	LTP236	ltpFR2	0	n/a	n/a	n/a	8	11	3	6	2
1531.56	n/a	PROB	765780	n/a	LTP236	ltpFR2	0	n/a	n/a	n/a	8	25	8	8	9
1535.196	n/a	PROB	767598	n/a	LTP236	ltpFR2	0	n/a	n/a	n/a	8	15	4	9	2
1536.648	n/a	PROB	768324	n/a	LTP236	ltpFR2	0	n/a	n/a	n/a	8	15	1	5	9
1538.532	n/a	STOP	769266	n/a	LTP236	ltpFR2	0	n/a	n/a	n/a	8	n/a	n/a	n/a	n/a
1539.816	n/a	WORD	769908	wordpools/wasnorm_wordpool_576.txt	LTP236	ltpFR2	0	6	QUEEN	1149	n/a	n/a	0	0	0
1542.486	n/a	WORD	771243	wordpools/wasnorm_wordpool_576.txt	LTP236	ltpFR2	0	6	THRONE	1461	n/a	n/a	0	0	0
1544.988	n/a	WORD	772494	wordpools/wasnorm_wordpool_576.txt	LTP236	ltpFR2	0	6	FREEZER	604	n/a	n/a	0	0	0
1547.79	n/a	WORD	773895	wordpools/wasnorm_wordpool_576.txt	LTP236	ltpFR2	0	6	FIREMAN	569	n/a	n/a	0	0	0
1550.542	n/a	WORD	775271	wordpools/wasnorm_wordpool_576.txt	LTP236	ltpFR2	0	6	PUPPY	1144	n/a	n/a	0	0	0
1553.112	n/a	WORD	776556	wordpools/wasnorm_wordpool_576.txt	LTP236	ltpFR2	0	6	SUPPER	1411	n/a	n/a	0	0	0
1555.814	n/a	WORD	777907	wordpools/wasnorm_wordpool_576.txt	LTP236	ltpFR2	0	6	BUBBLE	183	n/a	n/a	0	0	0
1558.434	n/a	WORD	779217	wordpools/wasnorm_wordpool_576.txt	LTP236	ltpFR2	0	6	FOOTBALL	591	n/a	n/a	0	0	0
1561.102	n/a	WORD	780551	wordpools/wasnorm_wordpool_576.txt	LTP236	ltpFR2	0	6	MOTEL	919	n/a	n/a	0	0	0
1563.588	n/a	WORD	781794	wordpools/wasnorm_wordpool_576.txt	LTP236	ltpFR2	0	6	GUITAR	670	n/a	n/a	0	0	0
1566.106	n/a	WORD	783053	wordpools/wasnorm_wordpool_576.txt	LTP236	ltpFR2	0	6	HEDGE	699	n/a	n/a	0	0	0
1568.726	n/a	WORD	784363	wordpools/wasnorm_wordpool_576.txt	LTP236	ltpFR2	0	6	LUMBER	848	n/a	n/a	0	0	0
1571.344	n/a	WORD	785672	wordpools/wasnorm_wordpool_576.txt	LTP236	ltpFR2	0	6	SHORTS	1293	n/a	n/a	0	0	0
1573.896	n/a	WORD	786948	wordpools/wasnorm_wordpool_576.txt	LTP236	ltpFR2	0	6	REPORT	1184	n/a	n/a	0	0	0
1576.532	n/a	WORD	788266	wordpools/wasnorm_wordpool_576.txt	LTP236	ltpFR2	0	6	UMPIRE	1535	n/a	n/a	0	0	0
1579.084	n/a	WORD	789542	wordpools/wasnorm_wordpool_576.txt	LTP236	ltpFR2	0	6	STICKER	1382	n/a	n/a	0	0	0
1581.586	n/a	WORD	790793	wordpools/wasnorm_wordpool_576.txt	LTP236	ltpFR2	0	6	IGLOO	734	n/a	n/a	0	0	0
1584.122	n/a	WORD	792061	wordpools/wasnorm_wordpool_576.txt	LTP236	ltpFR2	0	6	LASER	801	n/a	n/a	0	0	0
1586.956	n/a	WORD	793478	wordpools/wasnorm_wordpool_576.txt	LTP236	ltpFR2	0	6	HAMPER	682	n/a	n/a	0	0	0
1589.726	n/a	WORD	794863	wordpools/wasnorm_wordpool_576.txt	LTP236	ltpFR2	0	6	PARSLEY	1016	n/a	n/a	0	0	0
1592.212	n/a	WORD	796106	wordpools/wasnorm_wordpool_576.txt	LTP236	ltpFR2	0	6	ROBIN	1199	n/a	n/a	0	0	0
1594.83	n/a	WORD	797415	wordpools/wasnorm_wordpool_576.txt	LTP236	ltpFR2	0	6	STAKE	1368	n/a	n/a	0	0	0
1597.65	n/a	WORD	798825	wordpools/wasnorm_wordpool_576.txt	LTP236	ltpFR2	0	6	COURSE	390	n/a	n/a	0	0	0
1600.484	n/a	WORD	800242	wordpools/wasnorm_wordpool_576.txt	LTP236	ltpFR2	0	6	CANDY	230	n/a	n/a	0	0	0
1602.104	n/a	START	801052	n/a	LTP236	ltpFR2	0	n/a	n/a	n/a	9	n/a	n/a	n/a	n/a
1603.26	n/a	DISTRACTOR	801630	n/a	LTP236	ltpFR2	0	6	n/a	n/a	n/a	n/a	0	0	0
1603.288	n/a	PROB	801644	n/a	LTP236	ltpFR2	0	n/a	n/a	n/a	9	12	7	1	4
1605.288	n/a	PROB	802644	n/a	LTP236	ltpFR2	0	n/a	n/a	n/a	9	20	9	5	6
1608.41	n/a	PROB	804205	n/a	LTP236	ltpFR2	0	n/a	n/a	n/a	9	16	4	4	8
1609.76	n/a	PROB	804880	n/a	LTP236	ltpFR2	0	n/a	n/a	n/a	9	7	4	1	2
1611.478	n/a	PROB	805739	n/a	LTP236	ltpFR2	0	n/a	n/a	n/a	9	18	9	3	6
1613.296	n/a	PROB	806648	n/a	LTP236	ltpFR2	0	n/a	n/a	n/a	9	25	9	7	9
1616.182	n/a	PROB	808091	n/a	LTP236	ltpFR2	0	n/a	n/a	n/a	9	13	1	6	6
1618.15	n/a	PROB	809075	n/a	LTP236	ltpFR2	0	n/a	n/a	n/a	9	18	6	8	4
1619.384	n/a	PROB	809692	n/a	LTP236	ltpFR2	0	n/a	n/a	n/a	9	20	5	8	7
1620.802	n/a	PROB	810401	n/a	LTP236	ltpFR2	0	n/a	n/a	n/a	9	16	5	5	6
1622.004	n/a	PROB	811002	n/a	LTP236	ltpFR2	0	n/a	n/a	n/a	9	14	8	1	5
1623.788	n/a	PROB	811894	n/a	LTP236	ltpFR2	0	n/a	n/a	n/a	9	14	3	8	8
1625.558	n/a	STOP	812779	n/a	LTP236	ltpFR2	0	n/a	n/a	n/a	9	n/a	n/a	n/a	n/a
1628.06	n/a	REC_START	814030	n/a	LTP236	ltpFR2	0	6	n/a	n/a	n/a	n/a	0	0	0
1629.024	n/a	REC_WORD	814512	wordpools/wasnorm_wordpool_576.txt	LTP236	ltpFR2	0	6	STAKE	1368	n/a	n/a	0	0	0
1630.098	n/a	REC_WORD	815049	wordpools/wasnorm_wordpool_576.txt	LTP236	ltpFR2	0	6	COURSE	390	n/a	n/a	0	0	0
1630.952	n/a	REC_WORD	815476	wordpools/wasnorm_wordpool_576.txt	LTP236	ltpFR2	0	6	CANDY	230	n/a	n/a	0	0	0
1632.05	n/a	REC_WORD	816025	wordpools/wasnorm_wordpool_576.txt	LTP236	ltpFR2	0	6	UMPIRE	1535	n/a	n/a	0	0	0
1635.472	n/a	REC_WORD	817736	wordpools/wasnorm_wordpool_576.txt	LTP236	ltpFR2	0	6	QUEEN	1149	n/a	n/a	0	0	0
1637.314	n/a	REC_WORD	818657	wordpools/wasnorm_wordpool_576.txt	LTP236	ltpFR2	0	6	THRONE	1461	n/a	n/a	0	0	0
1638.438	n/a	REC_WORD	819219	wordpools/wasnorm_wordpool_576.txt	LTP236	ltpFR2	0	6	MOTEL	919	n/a	n/a	0	0	0
1641.46	n/a	REC_WORD	820730	wordpools/wasnorm_wordpool_576.txt	LTP236	ltpFR2	0	6	PARSLEY	1016	n/a	n/a	0	0	0
1642.408	n/a	REC_WORD	821204	wordpools/wasnorm_wordpool_576.txt	LTP236	ltpFR2	0	6	FIREMAN	569	n/a	n/a	0	0	0
1643.508	n/a	REC_WORD	821754	wordpools/wasnorm_wordpool_576.txt	LTP236	ltpFR2	0	6	PUPPY	1144	n/a	n/a	0	0	0
1644.654	n/a	REC_WORD	822327	wordpools/wasnorm_wordpool_576.txt	LTP236	ltpFR2	0	6	LUMBER	848	n/a	n/a	0	0	0
1645.732	n/a	REC_WORD	822866	wordpools/wasnorm_wordpool_576.txt	LTP236	ltpFR2	0	6	FREEZER	604	n/a	n/a	0	0	0
1647.274	n/a	REC_WORD	823637	wordpools/wasnorm_wordpool_576.txt	LTP236	ltpFR2	0	6	IGLOO	734	n/a	n/a	0	0	0
1718.52	n/a	DISTRACTOR	859260	n/a	LTP236	ltpFR2	0	7	n/a	n/a	n/a	n/a	0	0	0
1718.52	n/a	START	859260	n/a	LTP236	ltpFR2	0	n/a	n/a	n/a	10	n/a	n/a	n/a	n/a
1718.536	n/a	PROB	859268	n/a	LTP236	ltpFR2	0	n/a	n/a	n/a	10	13	4	8	1
1720.404	n/a	PROB	860202	n/a	LTP236	ltpFR2	0	n/a	n/a	n/a	10	20	5	7	8
1721.688	n/a	PROB	860844	n/a	LTP236	ltpFR2	0	n/a	n/a	n/a	10	16	8	7	1
1723.44	n/a	PROB	861720	n/a	LTP236	ltpFR2	0	n/a	n/a	n/a	10	11	4	2	5
1724.542	n/a	PROB	862271	n/a	LTP236	ltpFR2	0	n/a	n/a	n/a	10	9	1	1	7
1725.692	n/a	PROB	862846	n/a	LTP236	ltpFR2	0	n/a	n/a	n/a	10	25	8	9	8
1728.328	n/a	PROB	864164	n/a	LTP236	ltpFR2	0	n/a	n/a	n/a	10	16	5	4	7
1729.578	n/a	PROB	864789	n/a	LTP236	ltpFR2	0	n/a	n/a	n/a	10	13	8	1	4
1730.996	n/a	PROB	865498	n/a	LTP236	ltpFR2	0	n/a	n/a	n/a	10	8	2	4	2
1732.498	n/a	PROB	866249	n/a	LTP236	ltpFR2	0	n/a	n/a	n/a	10	10	3	5	2
1733.782	n/a	PROB	866891	n/a	LTP236	ltpFR2	0	n/a	n/a	n/a	10	20	9	6	5
1735.05	n/a	PROB	867525	n/a	LTP236	ltpFR2	0	n/a	n/a	n/a	10	18	3	8	7
1736.334	n/a	PROB	868167	n/a	LTP236	ltpFR2	0	n/a	n/a	n/a	10	16	3	4	9
1737.668	n/a	PROB	868834	n/a	LTP236	ltpFR2	0	n/a	n/a	n/a	10	15	4	2	9
1738.986	n/a	PROB	869493	n/a	LTP236	ltpFR2	0	n/a	n/a	n/a	10	15	7	7	1
1740.154	n/a	PROB	870077	n/a	LTP236	ltpFR2	0	n/a	n/a	n/a	10	23	9	6	8
1741.416	n/a	STOP	870708	n/a	LTP236	ltpFR2	0	n/a	n/a	n/a	10	n/a	n/a	n/a	n/a
1743.54	n/a	WORD	871770	wordpools/wasnorm_wordpool_576.txt	LTP236	ltpFR2	0	7	GARLIC	624	n/a	n/a	0	0	0
1746.092	n/a	WORD	873046	wordpools/wasnorm_wordpool_576.txt	LTP236	ltpFR2	0	7	POCKET	1093	n/a	n/a	0	0	0
1748.862	n/a	WORD	874431	wordpools/wasnorm_wordpool_576.txt	LTP236	ltpFR2	0	7	SLIME	1327	n/a	n/a	0	0	0
1751.58	n/a	WORD	875790	wordpools/wasnorm_wordpool_576.txt	LTP236	ltpFR2	0	7	ROBBER	1197	n/a	n/a	0	0	0
1754.2	n/a	WORD	877100	wordpools/wasnorm_wordpool_576.txt	LTP236	ltpFR2	0	7	VICTIM	1562	n/a	n/a	0	0	0
1756.784	n/a	WORD	878392	wordpools/wasnorm_wordpool_576.txt	LTP236	ltpFR2	0	7	BREAST	171	n/a	n/a	0	0	0
1759.454	n/a	WORD	879727	wordpools/wasnorm_wordpool_576.txt	LTP236	ltpFR2	0	7	ROOSTER	1209	n/a	n/a	0	0	0
1762.24	n/a	WORD	881120	wordpools/wasnorm_wordpool_576.txt	LTP236	ltpFR2	0	7	JEANS	752	n/a	n/a	0	0	0
1764.892	n/a	WORD	882446	wordpools/wasnorm_wordpool_576.txt	LTP236	ltpFR2	0	7	RIVER	1194	n/a	n/a	0	0	0
1767.678	n/a	WORD	883839	wordpools/wasnorm_wordpool_576.txt	LTP236	ltpFR2	0	7	OUTDOORS	987	n/a	n/a	0	0	0
1770.314	n/a	WORD	885157	wordpools/wasnorm_wordpool_576.txt	LTP236	ltpFR2	0	7	VENUS	1557	n/a	n/a	0	0	0
1772.766	n/a	WORD	886383	wordpools/wasnorm_wordpool_576.txt	LTP236	ltpFR2	0	7	GARBAGE	622	n/a	n/a	0	0	0
1775.3	n/a	WORD	887650	wordpools/wasnorm_wordpool_576.txt	LTP236	ltpFR2	0	7	BLOUSE	139	n/a	n/a	0	0	0
1777.886	n/a	WORD	888943	wordpools/wasnorm_wordpool_576.txt	LTP236	ltpFR2	0	7	ZIPPER	1636	n/a	n/a	0	0	0
1780.506	n/a	WORD	890253	wordpools/wasnorm_wordpool_576.txt	LTP236	ltpFR2	0	7	LAMP	798	n/a	n/a	0	0	0
1783.19	n/a	WORD	891595	wordpools/wasnorm_wordpool_576.txt	LTP236	ltpFR2	0	7	VIKING	1565	n/a	n/a	0	0	0
1785.642	n/a	WORD	892821	wordpools/wasnorm_wordpool_576.txt	LTP236	ltpFR2	0	7	FIDDLE	561	n/a	n/a	0	0	0
1788.346	n/a	WORD	894173	wordpools/wasnorm_wordpool_576.txt	LTP236	ltpFR2	0	7	PUDDLE	1140	n/a	n/a	0	0	0
1790.88	n/a	WORD	895440	wordpools/wasnorm_wordpool_576.txt	LTP236	ltpFR2	0	7	STOMACH	1384	n/a	n/a	0	0	0
1793.416	n/a	WORD	896708	wordpools/wasnorm_wordpool_576.txt	LTP236	ltpFR2	0	7	COLONEL	348	n/a	n/a	0	0	0
1796.134	n/a	WORD	898067	wordpools/wasnorm_wordpool_576.txt	LTP236	ltpFR2	0	7	LEADER	807	n/a	n/a	0	0	0
1798.904	n/a	WORD	899452	wordpools/wasnorm_wordpool_576.txt	LTP236	ltpFR2	0	7	GARDEN	623	n/a	n/a	0	0	0
1801.64	n/a	WORD	900820	wordpools/wasnorm_wordpool_576.txt	LTP236	ltpFR2	0	7	SMOG	1330	n/a	n/a	0	0	0
1804.158	n/a	WORD	902079	wordpools/wasnorm_wordpool_576.txt	LTP236	ltpFR2	0	7	FLUTE	585	n/a	n/a	0	0	0
1805.776	n/a	START	902888	n/a	LTP236	ltpFR2	0	n/a	n/a	n/a	11	n/a	n/a	n/a	n/a
1806.86	n/a	DISTRACTOR	903430	n/a	LTP236	ltpFR2	0	7	n/a	n/a	n/a	n/a	0	0	0
1806.878	n/a	PROB	903439	n/a	LTP236	ltpFR2	0	n/a	n/a	n/a	11	14	1	9	4
1808.912	n/a	PROB	904456	n/a	LTP236	ltpFR2	0	n/a	n/a	n/a	11	12	4	1	7
1810.396	n/a	PROB	905198	n/a	LTP236	ltpFR2	0	n/a	n/a	n/a	11	15	4	2	9
1811.664	n/a	PROB	905832	n/a	LTP236	ltpFR2	0	n/a	n/a	n/a	11	10	6	1	3
1813.316	n/a	PROB	906658	n/a	LTP236	ltpFR2	0	n/a	n/a	n/a	11	22	9	9	4
1814.534	n/a	PROB	907267	n/a	LTP236	ltpFR2	0	n/a	n/a	n/a	11	16	8	3	5
1816.518	n/a	PROB	908259	n/a	LTP236	ltpFR2	0	n/a	n/a	n/a	11	15	8	1	6
1818.42	n/a	PROB	909210	n/a	LTP236	ltpFR2	0	n/a	n/a	n/a	11	20	9	3	8
1819.806	n/a	PROB	909903	n/a	LTP236	ltpFR2	0	n/a	n/a	n/a	11	19	7	4	8
1821.024	n/a	PROB	910512	n/a	LTP236	ltpFR2	0	n/a	n/a	n/a	11	16	4	3	9
1822.324	n/a	PROB	911162	n/a	LTP236	ltpFR2	0	n/a	n/a	n/a	11	16	3	4	9
1823.658	n/a	PROB	911829	n/a	LTP236	ltpFR2	0	n/a	n/a	n/a	11	17	5	7	5
1825.444	n/a	PROB	912722	n/a	LTP236	ltpFR2	0	n/a	n/a	n/a	11	18	9	5	4
1827.028	n/a	PROB	913514	n/a	LTP236	ltpFR2	0	n/a	n/a	n/a	11	20	5	6	9
1828.45	n/a	STOP	914225	n/a	LTP236	ltpFR2	0	n/a	n/a	n/a	11	n/a	n/a	n/a	n/a
1831.682	n/a	REC_START	915841	n/a	LTP236	ltpFR2	0	7	n/a	n/a	n/a	n/a	0	0	0
1833.2	n/a	REC_WORD	916600	wordpools/wasnorm_wordpool_576.txt	LTP236	ltpFR2	0	7	GARDEN	623	n/a	n/a	0	0	0
1833.848	n/a	REC_WORD	916924	wordpools/wasnorm_wordpool_576.txt	LTP236	ltpFR2	0	7	SMOG	1330	n/a	n/a	0	0	0
1834.962	n/a	REC_WORD	917481	wordpools/wasnorm_wordpool_576.txt	LTP236	ltpFR2	0	7	FLUTE	585	n/a	n/a	0	0	0
1836.304	n/a	REC_WORD	918152	wordpools/wasnorm_wordpool_576.txt	LTP236	ltpFR2	0	7	ROBBER	1197	n/a	n/a	0	0	0
1837.588	n/a	REC_WORD	918794	wordpools/wasnorm_wordpool_576.txt	LTP236	ltpFR2	0	7	RIVER	1194	n/a	n/a	0	0	0
1838.522	n/a	REC_WORD	919261	wordpools/wasnorm_wordpool_576.txt	LTP236	ltpFR2	0	7	SLIME	1327	n/a	n/a	0	0	0
1840.08	n/a	REC_WORD	920040	wordpools/wasnorm_wordpool_576.txt	LTP236	ltpFR2	0	7	POCKET	1093	n/a	n/a	0	0	0
1841.278	n/a	REC_WORD	920639	wordpools/wasnorm_wordpool_576.txt	LTP236	ltpFR2	0	7	BREAST	171	n/a	n/a	0	0	0
1842.276	n/a	REC_WORD	921138	wordpools/wasnorm_wordpool_576.txt	LTP236	ltpFR2	0	7	BLOUSE	139	n/a	n/a	0	0	0
1843.588	n/a	REC_WORD	921794	wordpools/wasnorm_wordpool_576.txt	LTP236	ltpFR2	0	7	ZIPPER	1636	n/a	n/a	0	0	0
1845.132	n/a	REC_WORD	922566	wordpools/wasnorm_wordpool_576.txt	LTP236	ltpFR2	0	7	JEANS	752	n/a	n/a	0	0	0
1849.61	n/a	REC_WORD	924805	wordpools/wasnorm_wordpool_576.txt	LTP236	ltpFR2	0	7	COLONEL	348	n/a	n/a	0	0	0
1850.736	n/a	REC_WORD	925368	wordpools/wasnorm_wordpool_576.txt	LTP236	ltpFR2	0	7	LEADER	807	n/a	n/a	0	0	0
1853.162	n/a	REC_WORD	926581	wordpools/wasnorm_wordpool_576.txt	LTP236	ltpFR2	0	7	VIKING	1565	n/a	n/a	0	0	0
1861.84	n/a	REC_WORD	930920	wordpools/wasnorm_wordpool_576.txt	LTP236	ltpFR2	0	7	ROOSTER	1209	n/a	n/a	0	0	0
1875.0	n/a	REC_WORD	937500	wordpools/wasnorm_wordpool_576.txt	LTP236	ltpFR2	0	7	VENUS	1557	n/a	n/a	0	0	0
1922.158	n/a	DISTRACTOR	961079	n/a	LTP236	ltpFR2	0	8	n/a	n/a	n/a	n/a	0	0	0
1922.158	n/a	START	961079	n/a	LTP236	ltpFR2	0	n/a	n/a	n/a	12	n/a	n/a	n/a	n/a
1922.176	n/a	PROB	961088	n/a	LTP236	ltpFR2	0	n/a	n/a	n/a	12	15	3	6	6
1925.194	n/a	PROB	962597	n/a	LTP236	ltpFR2	0	n/a	n/a	n/a	12	16	5	2	9
1926.464	n/a	PROB	963232	n/a	LTP236	ltpFR2	0	n/a	n/a	n/a	12	5	2	2	1
1927.564	n/a	PROB	963782	n/a	LTP236	ltpFR2	0	n/a	n/a	n/a	12	12	6	2	4
1929.616	n/a	PROB	964808	n/a	LTP236	ltpFR2	0	n/a	n/a	n/a	12	17	2	8	7
1931.166	n/a	PROB	965583	n/a	LTP236	ltpFR2	0	n/a	n/a	n/a	12	16	8	4	4
1932.568	n/a	PROB	966284	n/a	LTP236	ltpFR2	0	n/a	n/a	n/a	12	11	4	3	4
1933.736	n/a	PROB	966868	n/a	LTP236	ltpFR2	0	n/a	n/a	n/a	12	11	1	8	2
1935.036	n/a	PROB	967518	n/a	LTP236	ltpFR2	0	n/a	n/a	n/a	12	18	5	5	8
1936.122	n/a	PROB	968061	n/a	LTP236	ltpFR2	0	n/a	n/a	n/a	12	19	6	5	8
1937.438	n/a	PROB	968719	n/a	LTP236	ltpFR2	0	n/a	n/a	n/a	12	14	2	5	7
1938.874	n/a	PROB	969437	n/a	LTP236	ltpFR2	0	n/a	n/a	n/a	12	15	1	6	8
1940.758	n/a	PROB	970379	n/a	LTP236	ltpFR2	0	n/a	n/a	n/a	12	13	9	1	3
1946.16	n/a	STOP	973080	n/a	LTP236	ltpFR2	0	n/a	n/a	n/a	12	n/a	n/a	n/a	n/a
1947.046	n/a	WORD	973523	wordpools/wasnorm_wordpool_576.txt	LTP236	ltpFR2	0	8	VALVE	1546	n/a	n/a	0	0	0
1949.482	n/a	WORD	974741	wordpools/wasnorm_wordpool_576.txt	LTP236	ltpFR2	0	8	BLENDER	136	n/a	n/a	0	0	0
1952.218	n/a	WORD	976109	wordpools/wasnorm_wordpool_576.txt	LTP236	ltpFR2	0	8	LIZARD	834	n/a	n/a	0	0	0
1954.954	n/a	WORD	977477	wordpools/wasnorm_wordpool_576.txt	LTP236	ltpFR2	0	8	CONCERT	360	n/a	n/a	0	0	0
1957.488	n/a	WORD	978744	wordpools/wasnorm_wordpool_576.txt	LTP236	ltpFR2	0	8	POSSUM	1112	n/a	n/a	0	0	0
1959.958	n/a	WORD	979979	wordpools/wasnorm_wordpool_576.txt	LTP236	ltpFR2	0	8	BISON	131	n/a	n/a	0	0	0
1962.542	n/a	WORD	981271	wordpools/wasnorm_wordpool_576.txt	LTP236	ltpFR2	0	8	LAPEL	800	n/a	n/a	0	0	0
1964.996	n/a	WORD	982498	wordpools/wasnorm_wordpool_576.txt	LTP236	ltpFR2	0	8	SHIRT	1287	n/a	n/a	0	0	0
1967.648	n/a	WORD	983824	wordpools/wasnorm_wordpool_576.txt	LTP236	ltpFR2	0	8	FOX	598	n/a	n/a	0	0	0
1970.25	n/a	WORD	985125	wordpools/wasnorm_wordpool_576.txt	LTP236	ltpFR2	0	8	GIFT	635	n/a	n/a	0	0	0
1972.802	n/a	WORD	986401	wordpools/wasnorm_wordpool_576.txt	LTP236	ltpFR2	0	8	POSTAGE	1113	n/a	n/a	0	0	0
1975.438	n/a	WORD	987719	wordpools/wasnorm_wordpool_576.txt	LTP236	ltpFR2	0	8	PILOT	1070	n/a	n/a	0	0	0
1978.222	n/a	WORD	989111	wordpools/wasnorm_wordpool_576.txt	LTP236	ltpFR2	0	8	LACE	792	n/a	n/a	0	0	0
1980.842	n/a	WORD	990421	wordpools/wasnorm_wordpool_576.txt	LTP236	ltpFR2	0	8	PISTON	1076	n/a	n/a	0	0	0
1983.612	n/a	WORD	991806	wordpools/wasnorm_wordpool_576.txt	LTP236	ltpFR2	0	8	NOVEL	960	n/a	n/a	0	0	0
1986.214	n/a	WORD	993107	wordpools/wasnorm_wordpool_576.txt	LTP236	ltpFR2	0	8	WAITER	1580	n/a	n/a	0	0	0
1989.032	n/a	WORD	994516	wordpools/wasnorm_wordpool_576.txt	LTP236	ltpFR2	0	8	CABBAGE	210	n/a	n/a	0	0	0
1991.718	n/a	WORD	995859	wordpools/wasnorm_wordpool_576.txt	LTP236	ltpFR2	0	8	WRENCH	1625	n/a	n/a	0	0	0
1994.454	n/a	WORD	997227	wordpools/wasnorm_wordpool_576.txt	LTP236	ltpFR2	0	8	BRAKE	166	n/a	n/a	0	0	0
1996.972	n/a	WORD	998486	wordpools/wasnorm_wordpool_576.txt	LTP236	ltpFR2	0	8	RIFLE	1192	n/a	n/a	0	0	0
1999.458	n/a	WORD	999729	wordpools/wasnorm_wordpool_576.txt	LTP236	ltpFR2	0	8	ANKLE	24	n/a	n/a	0	0	0
2002.01	n/a	WORD	1001005	wordpools/wasnorm_wordpool_576.txt	LTP236	ltpFR2	0	8	RUST	1219	n/a	n/a	0	0	0
2004.68	n/a	WORD	1002340	wordpools/wasnorm_wordpool_576.txt	LTP236	ltpFR2	0	8	LETTUCE	814	n/a	n/a	0	0	0
2007.114	n/a	WORD	1003557	wordpools/wasnorm_wordpool_576.txt	LTP236	ltpFR2	0	8	JUDGE	761	n/a	n/a	0	0	0
2008.732	n/a	START	1004366	n/a	LTP236	ltpFR2	0	n/a	n/a	n/a	13	n/a	n/a	n/a	n/a
2009.554	n/a	DISTRACTOR	1004777	n/a	LTP236	ltpFR2	0	8	n/a	n/a	n/a	n/a	0	0	0
2009.566	n/a	PROB	1004783	n/a	LTP236	ltpFR2	0	n/a	n/a	n/a	13	15	1	6	8
2014.32	n/a	PROB	1007160	n/a	LTP236	ltpFR2	0	n/a	n/a	n/a	13	7	4	2	1
2015.788	n/a	PROB	1007894	n/a	LTP236	ltpFR2	0	n/a	n/a	n/a	13	6	1	3	2
2017.356	n/a	PROB	1008678	n/a	LTP236	ltpFR2	0	n/a	n/a	n/a	13	11	4	4	3
2018.64	n/a	PROB	1009320	n/a	LTP236	ltpFR2	0	n/a	n/a	n/a	13	14	5	4	5
2021.176	n/a	PROB	1010588	n/a	LTP236	ltpFR2	0	n/a	n/a	n/a	13	19	9	2	8
2022.294	n/a	PROB	1011147	n/a	LTP236	ltpFR2	0	n/a	n/a	n/a	13	20	7	6	7
2023.88	n/a	PROB	1011940	n/a	LTP236	ltpFR2	0	n/a	n/a	n/a	13	16	4	7	5
2024.962	n/a	PROB	1012481	n/a	LTP236	ltpFR2	0	n/a	n/a	n/a	13	4	1	2	1
2026.214	n/a	PROB	1013107	n/a	LTP236	ltpFR2	0	n/a	n/a	n/a	13	16	7	6	3
2027.764	n/a	PROB	1013882	n/a	LTP236	ltpFR2	0	n/a	n/a	n/a	13	16	4	9	3
2030.45	n/a	PROB	1015225	n/a	LTP236	ltpFR2	0	n/a	n/a	n/a	13	14	1	5	8
2031.622	n/a	STOP	1015811	n/a	LTP236	ltpFR2	0	n/a	n/a	n/a	13	n/a	n/a	n/a	n/a
2034.706	n/a	REC_START	1017353	n/a	LTP236	ltpFR2	0	8	n/a	n/a	n/a	n/a	0	0	0
2036.196	n/a	REC_WORD	1018098	wordpools/wasnorm_wordpool_576.txt	LTP236	ltpFR2	0	8	JUDGE	761	n/a	n/a	0	0	0
2037.196	n/a	REC_WORD	1018598	wordpools/wasnorm_wordpool_576.txt	LTP236	ltpFR2	0	8	BISON	131	n/a	n/a	0	0	0
2038.468	n/a	REC_WORD	1019234	wordpools/wasnorm_wordpool_576.txt	LTP236	ltpFR2	0	8	LIZARD	834	n/a	n/a	0	0	0
2039.878	n/a	REC_WORD	1019939	wordpools/wasnorm_wordpool_576.txt	LTP236	ltpFR2	0	8	POSSUM	1112	n/a	n/a	0	0	0
2046.97	n/a	REC_WORD	1023485	wordpools/wasnorm_wordpool_576.txt	LTP236	ltpFR2	0	8	WAITER	1580	n/a	n/a	0	0	0
2048.128	n/a	REC_WORD	1024064	wordpools/wasnorm_wordpool_576.txt	LTP236	ltpFR2	0	8	CABBAGE	210	n/a	n/a	0	0	0
2049.47	n/a	REC_WORD	1024735	wordpools/wasnorm_wordpool_576.txt	LTP236	ltpFR2	0	8	LETTUCE	814	n/a	n/a	0	0	0
2053.812	n/a	REC_WORD	1026906	wordpools/wasnorm_wordpool_576.txt	LTP236	ltpFR2	0	8	PISTOL	1075	n/a	n/a	0	0	0
2057.458	n/a	REC_WORD	1028729	wordpools/wasnorm_wordpool_576.txt	LTP236	ltpFR2	0	8	RIFLE	1192	n/a	n/a	0	0	0
2061.108	n/a	REC_WORD	1030554	wordpools/wasnorm_wordpool_576.txt	LTP236	ltpFR2	0	8	RUST	1219	n/a	n/a	0	0	0
2066.79	n/a	REC_WORD	1033395	wordpools/wasnorm_wordpool_576.txt	LTP236	ltpFR2	0	8	ANKLE	24	n/a	n/a	0	0	0
2080.424	n/a	REC_WORD	1040212	wordpools/wasnorm_wordpool_576.txt	LTP236	ltpFR2	0	8	PILOT	1070	n/a	n/a	0	0	0
2081.558	n/a	REC_WORD	1040779	wordpools/wasnorm_wordpool_576.txt	LTP236	ltpFR2	0	8	POSTAGE	1113	n/a	n/a	0	0	0
2082.558	n/a	REC_WORD_VV	1041279	wordpools/wasnorm_wordpool_576.txt	LTP236	ltpFR2	0	8	<>	-1	n/a	n/a	0	0	0
2087.122	n/a	REC_WORD	1043561	wordpools/wasnorm_wordpool_576.txt	LTP236	ltpFR2	0	8	GIFT	635	n/a	n/a	0	0	0
2088.074	n/a	REC_WORD	1044037	wordpools/wasnorm_wordpool_576.txt	LTP236	ltpFR2	0	8	LACE	792	n/a	n/a	0	0	0
2089.328	n/a	REC_WORD	1044664	wordpools/wasnorm_wordpool_576.txt	LTP236	ltpFR2	0	8	BOOK	149	n/a	n/a	0	0	0
2099.126	n/a	REC_WORD	1049563	wordpools/wasnorm_wordpool_576.txt	LTP236	ltpFR2	0	8	VALVE	1546	n/a	n/a	0	0	0
2111.27	n/a	REST_REWET	1055635	n/a	LTP236	ltpFR2	0	8	n/a	n/a	n/a	n/a	0	0	0
2482.336	n/a	WORD	1241168	wordpools/wasnorm_wordpool_576.txt	LTP236	ltpFR2	0	9	WASHER	1592	n/a	n/a	0	0	0
2484.82	n/a	WORD	1242410	wordpools/wasnorm_wordpool_576.txt	LTP236	ltpFR2	0	9	PARROT	1015	n/a	n/a	0	0	0
2487.422	n/a	WORD	1243711	wordpools/wasnorm_wordpool_576.txt	LTP236	ltpFR2	0	9	TABLE	1426	n/a	n/a	0	0	0
2489.942	n/a	WORD	1244971	wordpools/wasnorm_wordpool_576.txt	LTP236	ltpFR2	0	9	PICNIC	1060	n/a	n/a	0	0	0
2492.628	n/a	WORD	1246314	wordpools/wasnorm_wordpool_576.txt	LTP236	ltpFR2	0	9	SHRUB	1299	n/a	n/a	0	0	0
2495.33	n/a	WORD	1247665	wordpools/wasnorm_wordpool_576.txt	LTP236	ltpFR2	0	9	PACKAGE	997	n/a	n/a	0	0	0
2498.132	n/a	WORD	1249066	wordpools/wasnorm_wordpool_576.txt	LTP236	ltpFR2	0	9	HEART	697	n/a	n/a	0	0	0
2500.886	n/a	WORD	1250443	wordpools/wasnorm_wordpool_576.txt	LTP236	ltpFR2	0	9	DONOR	485	n/a	n/a	0	0	0
2503.37	n/a	WORD	1251685	wordpools/wasnorm_wordpool_576.txt	LTP236	ltpFR2	0	9	PRINCE	1124	n/a	n/a	0	0	0
2506.206	n/a	WORD	1253103	wordpools/wasnorm_wordpool_576.txt	LTP236	ltpFR2	0	9	CROSS	413	n/a	n/a	0	0	0
2508.84	n/a	WORD	1254420	wordpools/wasnorm_wordpool_576.txt	LTP236	ltpFR2	0	9	HUSBAND	728	n/a	n/a	0	0	0
2511.31	n/a	WORD	1255655	wordpools/wasnorm_wordpool_576.txt	LTP236	ltpFR2	0	9	DORM	488	n/a	n/a	0	0	0
2513.912	n/a	WORD	1256956	wordpools/wasnorm_wordpool_576.txt	LTP236	ltpFR2	0	9	CABIN	211	n/a	n/a	0	0	0
2516.464	n/a	WORD	1258232	wordpools/wasnorm_wordpool_576.txt	LTP236	ltpFR2	0	9	PIGEON	1065	n/a	n/a	0	0	0
2518.984	n/a	WORD	1259492	wordpools/wasnorm_wordpool_576.txt	LTP236	ltpFR2	0	9	JAPAN	749	n/a	n/a	0	0	0
2521.752	n/a	WORD	1260876	wordpools/wasnorm_wordpool_576.txt	LTP236	ltpFR2	0	9	PEBBLE	1035	n/a	n/a	0	0	0
2524.488	n/a	WORD	1262244	wordpools/wasnorm_wordpool_576.txt	LTP236	ltpFR2	0	9	COOK	372	n/a	n/a	0	0	0
2527.04	n/a	WORD	1263520	wordpools/wasnorm_wordpool_576.txt	LTP236	ltpFR2	0	9	CHURCH	307	n/a	n/a	0	0	0
2529.592	n/a	WORD	1264796	wordpools/wasnorm_wordpool_576.txt	LTP236	ltpFR2	0	9	GOBLIN	645	n/a	n/a	0	0	0
2532.078	n/a	WORD	1266039	wordpools/wasnorm_wordpool_576.txt	LTP236	ltpFR2	0	9	ARMY	39	n/a	n/a	0	0	0
2534.564	n/a	WORD	1267282	wordpools/wasnorm_wordpool_576.txt	LTP236	ltpFR2	0	9	TEMPLE	1448	n/a	n/a	0	0	0
2537.216	n/a	WORD	1268608	wordpools/wasnorm_wordpool_576.txt	LTP236	ltpFR2	0	9	FRANCE	601	n/a	n/a	0	0	0
2539.684	n/a	WORD	1269842	wordpools/wasnorm_wordpool_576.txt	LTP236	ltpFR2	0	9	CRAYON	401	n/a	n/a	0	0	0
2542.336	n/a	WORD	1271168	wordpools/wasnorm_wordpool_576.txt	LTP236	ltpFR2	0	9	SKILLET	1317	n/a	n/a	0	0	0
2543.954	n/a	START	1271977	n/a	LTP236	ltpFR2	0	n/a	n/a	n/a	14	n/a	n/a	n/a	n/a
2545.088	n/a	DISTRACTOR	1272544	n/a	LTP236	ltpFR2	0	9	n/a	n/a	n/a	n/a	0	0	0
2545.106	n/a	PROB	1272553	n/a	LTP236	ltpFR2	0	n/a	n/a	n/a	14	14	9	1	4
2546.956	n/a	PROB	1273478	n/a	LTP236	ltpFR2	0	n/a	n/a	n/a	14	16	5	2	9
2548.574	n/a	PROB	1274287	n/a	LTP236	ltpFR2	0	n/a	n/a	n/a	14	8	1	1	6
2549.692	n/a	PROB	1274846	n/a	LTP236	ltpFR2	0	n/a	n/a	n/a	14	23	7	7	9
2552.978	n/a	PROB	1276489	n/a	LTP236	ltpFR2	0	n/a	n/a	n/a	14	11	5	4	2
2554.146	n/a	PROB	1277073	n/a	LTP236	ltpFR2	0	n/a	n/a	n/a	14	17	2	8	7
2555.314	n/a	PROB	1277657	n/a	LTP236	ltpFR2	0	n/a	n/a	n/a	14	13	3	1	9
2556.432	n/a	PROB	1278216	n/a	LTP236	ltpFR2	0	n/a	n/a	n/a	14	13	7	5	1
2557.416	n/a	PROB	1278708	n/a	LTP236	ltpFR2	0	n/a	n/a	n/a	14	14	8	5	1
2558.55	n/a	PROB	1279275	n/a	LTP236	ltpFR2	0	n/a	n/a	n/a	14	21	8	5	8
2560.034	n/a	PROB	1280017	n/a	LTP236	ltpFR2	0	n/a	n/a	n/a	14	13	6	2	5
2561.136	n/a	PROB	1280568	n/a	LTP236	ltpFR2	0	n/a	n/a	n/a	14	13	7	2	4
2562.286	n/a	PROB	1281143	n/a	LTP236	ltpFR2	0	n/a	n/a	n/a	14	19	9	5	3
2563.822	n/a	PROB	1281911	n/a	LTP236	ltpFR2	0	n/a	n/a	n/a	14	10	1	2	8
2565.372	n/a	PROB	1282686	n/a	LTP236	ltpFR2	0	n/a	n/a	n/a	14	12	9	2	1
2567.304	n/a	STOP	1283652	n/a	LTP236	ltpFR2	0	n/a	n/a	n/a	14	n/a	n/a	n/a	n/a
2569.828	n/a	REC_START	1284914	n/a	LTP236	ltpFR2	0	9	n/a	n/a	n/a	n/a	0	0	0
2570.914	n/a	REC_WORD	1285457	wordpools/wasnorm_wordpool_576.txt	LTP236	ltpFR2	0	9	PIGEON	1065	n/a	n/a	0	0	0
2572.124	n/a	REC_WORD	1286062	wordpools/wasnorm_wordpool_576.txt	LTP236	ltpFR2	0	9	PRINCE	1124	n/a	n/a	0	0	0
2573.182	n/a	REC_WORD	1286591	wordpools/wasnorm_wordpool_576.txt	LTP236	ltpFR2	0	9	HUSBAND	728	n/a	n/a	0	0	0
2574.182	n/a	REC_WORD_VV	1287091	wordpools/wasnorm_wordpool_576.txt	LTP236	ltpFR2	0	9	<>	-1	n/a	n/a	0	0	0
2575.198	n/a	REC_WORD	1287599	wordpools/wasnorm_wordpool_576.txt	LTP236	ltpFR2	0	9	PACKAGE	997	n/a	n/a	0	0	0
2576.224	n/a	REC_WORD	1288112	wordpools/wasnorm_wordpool_576.txt	LTP236	ltpFR2	0	9	JAPAN	749	n/a	n/a	0	0	0
2577.09	n/a	REC_WORD	1288545	wordpools/wasnorm_wordpool_576.txt	LTP236	ltpFR2	0	9	FRANCE	601	n/a	n/a	0	0	0
2578.21	n/a	REC_WORD	1289105	wordpools/wasnorm_wordpool_576.txt	LTP236	ltpFR2	0	9	SKILLET	1317	n/a	n/a	0	0	0
2579.526	n/a	REC_WORD	1289763	wordpools/wasnorm_wordpool_576.txt	LTP236	ltpFR2	0	9	COOK	372	n/a	n/a	0	0	0
2580.884	n/a	REC_WORD	1290442	wordpools/wasnorm_wordpool_576.txt	LTP236	ltpFR2	0	9	HEART	697	n/a	n/a	0	0	0
2582.418	n/a	REC_WORD	1291209	wordpools/wasnorm_wordpool_576.txt	LTP236	ltpFR2	0	9	DONOR	485	n/a	n/a	0	0	0
2591.792	n/a	REC_WORD	1295896	wordpools/wasnorm_wordpool_576.txt	LTP236	ltpFR2	0	9	PIGEON	1065	n/a	n/a	0	0	0
2593.25	n/a	REC_WORD	1296625	wordpools/wasnorm_wordpool_576.txt	LTP236	ltpFR2	0	9	WASHER	1592	n/a	n/a	0	0	0
2594.408	n/a	REC_WORD	1297204	wordpools/wasnorm_wordpool_576.txt	LTP236	ltpFR2	0	9	TABLE	1426	n/a	n/a	0	0	0
2596.402	n/a	REC_WORD	1298201	wordpools/wasnorm_wordpool_576.txt	LTP236	ltpFR2	0	9	PICNIC	1060	n/a	n/a	0	0	0
2598.116	n/a	REC_WORD	1299058	wordpools/wasnorm_wordpool_576.txt	LTP236	ltpFR2	0	9	SHRUB	1299	n/a	n/a	0	0	0
2599.534	n/a	REC_WORD	1299767	wordpools/wasnorm_wordpool_576.txt	LTP236	ltpFR2	0	9	PEBBLE	1035	n/a	n/a	0	0	0
2609.78	n/a	REC_WORD	1304890	wordpools/wasnorm_wordpool_576.txt	LTP236	ltpFR2	0	9	CRAYON	401	n/a	n/a	0	0	0
2660.286	n/a	DISTRACTOR	1330143	n/a	LTP236	ltpFR2	0	10	n/a	n/a	n/a	n/a	0	0	0
2660.286	n/a	START	1330143	n/a	LTP236	ltpFR2	0	n/a	n/a	n/a	15	n/a	n/a	n/a	n/a
2660.302	n/a	PROB	1330151	n/a	LTP236	ltpFR2	0	n/a	n/a	n/a	15	17	6	5	6
2662.472	n/a	PROB	1331236	n/a	LTP236	ltpFR2	0	n/a	n/a	n/a	15	7	2	3	2
2663.672	n/a	PROB	1331836	n/a	LTP236	ltpFR2	0	n/a	n/a	n/a	15	16	3	6	7
2666.408	n/a	PROB	1333204	n/a	LTP236	ltpFR2	0	n/a	n/a	n/a	15	5	1	3	1
2667.426	n/a	PROB	1333713	n/a	LTP236	ltpFR2	0	n/a	n/a	n/a	15	8	2	3	3
2668.928	n/a	PROB	1334464	n/a	LTP236	ltpFR2	0	n/a	n/a	n/a	15	15	1	9	5
2669.946	n/a	PROB	1334973	n/a	LTP236	ltpFR2	0	n/a	n/a	n/a	15	10	5	2	3
2671.13	n/a	PROB	1335565	n/a	LTP236	ltpFR2	0	n/a	n/a	n/a	15	20	8	9	3
2676.15	n/a	PROB	1338075	n/a	LTP236	ltpFR2	0	n/a	n/a	n/a	15	12	2	1	9
2677.686	n/a	PROB	1338843	n/a	LTP236	ltpFR2	0	n/a	n/a	n/a	15	17	8	5	4
2680.204	n/a	PROB	1340102	n/a	LTP236	ltpFR2	0	n/a	n/a	n/a	15	17	2	7	8
2681.504	n/a	PROB	1340752	n/a	LTP236	ltpFR2	0	n/a	n/a	n/a	15	21	5	6	6
2683.498	n/a	STOP	1341749	n/a	LTP236	ltpFR2	0	n/a	n/a	n/a	15	n/a	n/a	n/a	n/a
2685.474	n/a	WORD	1342737	wordpools/wasnorm_wordpool_576.txt	LTP236	ltpFR2	0	10	FLESH	579	n/a	n/a	0	0	0
2688.128	n/a	WORD	1344064	wordpools/wasnorm_wordpool_576.txt	LTP236	ltpFR2	0	10	MAILBOX	857	n/a	n/a	0	0	0
2690.796	n/a	WORD	1345398	wordpools/wasnorm_wordpool_576.txt	LTP236	ltpFR2	0	10	MESSAGE	888	n/a	n/a	0	0	0
2693.532	n/a	WORD	1346766	wordpools/wasnorm_wordpool_576.txt	LTP236	ltpFR2	0	10	HAWK	692	n/a	n/a	0	0	0
2696.0	n/a	WORD	1348000	wordpools/wasnorm_wordpool_576.txt	LTP236	ltpFR2	0	10	EGYPT	519	n/a	n/a	0	0	0
2698.436	n/a	WORD	1349218	wordpools/wasnorm_wordpool_576.txt	LTP236	ltpFR2	0	10	HATCHET	691	n/a	n/a	0	0	0
2701.104	n/a	WORD	1350552	wordpools/wasnorm_wordpool_576.txt	LTP236	ltpFR2	0	10	MONEY	908	n/a	n/a	0	0	0
2703.856	n/a	WORD	1351928	wordpools/wasnorm_wordpool_576.txt	LTP236	ltpFR2	0	10	MUMMY	932	n/a	n/a	0	0	0
2706.308	n/a	WORD	1353154	wordpools/wasnorm_wordpool_576.txt	LTP236	ltpFR2	0	10	COMPASS	358	n/a	n/a	0	0	0
2708.844	n/a	WORD	1354422	wordpools/wasnorm_wordpool_576.txt	LTP236	ltpFR2	0	10	SHERIFF	1284	n/a	n/a	0	0	0
2711.496	n/a	WORD	1355748	wordpools/wasnorm_wordpool_576.txt	LTP236	ltpFR2	0	10	ORANGE	980	n/a	n/a	0	0	0
2714.282	n/a	WORD	1357141	wordpools/wasnorm_wordpool_576.txt	LTP236	ltpFR2	0	10	CHEST	295	n/a	n/a	0	0	0
2716.718	n/a	WORD	1358359	wordpools/wasnorm_wordpool_576.txt	LTP236	ltpFR2	0	10	CHIPMUNK	304	n/a	n/a	0	0	0
2719.42	n/a	WORD	1359710	wordpools/wasnorm_wordpool_576.txt	LTP236	ltpFR2	0	10	SCULPTURE	1258	n/a	n/a	0	0	0
2721.89	n/a	WORD	1360945	wordpools/wasnorm_wordpool_576.txt	LTP236	ltpFR2	0	10	BROOK	177	n/a	n/a	0	0	0
2724.558	n/a	WORD	1362279	wordpools/wasnorm_wordpool_576.txt	LTP236	ltpFR2	0	10	GRAPE	654	n/a	n/a	0	0	0
2727.328	n/a	WORD	1363664	wordpools/wasnorm_wordpool_576.txt	LTP236	ltpFR2	0	10	PORK	1108	n/a	n/a	0	0	0
2730.012	n/a	WORD	1365006	wordpools/wasnorm_wordpool_576.txt	LTP236	ltpFR2	0	10	FINGER	567	n/a	n/a	0	0	0
2732.748	n/a	WORD	1366374	wordpools/wasnorm_wordpool_576.txt	LTP236	ltpFR2	0	10	GLOVE	642	n/a	n/a	0	0	0
2735.268	n/a	WORD	1367634	wordpools/wasnorm_wordpool_576.txt	LTP236	ltpFR2	0	10	GIRL	637	n/a	n/a	0	0	0
2737.77	n/a	WORD	1368885	wordpools/wasnorm_wordpool_576.txt	LTP236	ltpFR2	0	10	LOVER	846	n/a	n/a	0	0	0
2740.354	n/a	WORD	1370177	wordpools/wasnorm_wordpool_576.txt	LTP236	ltpFR2	0	10	DOUGHNUT	490	n/a	n/a	0	0	0
2743.174	n/a	WORD	1371587	wordpools/wasnorm_wordpool_576.txt	LTP236	ltpFR2	0	10	MARS	873	n/a	n/a	0	0	0
2745.71	n/a	WORD	1372855	wordpools/wasnorm_wordpool_576.txt	LTP236	ltpFR2	0	10	MAMMAL	861	n/a	n/a	0	0	0
2747.328	n/a	START	1373664	n/a	LTP236	ltpFR2	0	n/a	n/a	n/a	16	n/a	n/a	n/a	n/a
2748.248	n/a	DISTRACTOR	1374124	n/a	LTP236	ltpFR2	0	10	n/a	n/a	n/a	n/a	0	0	0
2748.262	n/a	PROB	1374131	n/a	LTP236	ltpFR2	0	n/a	n/a	n/a	16	17	8	7	2
2750.196	n/a	PROB	1375098	n/a	LTP236	ltpFR2	0	n/a	n/a	n/a	16	9	1	2	6
2751.814	n/a	PROB	1375907	n/a	LTP236	ltpFR2	0	n/a	n/a	n/a	16	15	7	1	7
2753.382	n/a	PROB	1376691	n/a	LTP236	ltpFR2	0	n/a	n/a	n/a	16	13	4	2	7
2754.484	n/a	PROB	1377242	n/a	LTP236	ltpFR2	0	n/a	n/a	n/a	16	14	8	3	3
2755.934	n/a	PROB	1377967	n/a	LTP236	ltpFR2	0	n/a	n/a	n/a	16	9	1	6	2
2756.986	n/a	PROB	1378493	n/a	LTP236	ltpFR2	0	n/a	n/a	n/a	16	10	2	5	3
2758.486	n/a	PROB	1379243	n/a	LTP236	ltpFR2	0	n/a	n/a	n/a	16	17	4	9	4
2759.722	n/a	PROB	1379861	n/a	LTP236	ltpFR2	0	n/a	n/a	n/a	16	9	5	3	1
2760.738	n/a	PROB	1380369	n/a	LTP236	ltpFR2	0	n/a	n/a	n/a	16	12	8	3	1
2761.84	n/a	PROB	1380920	n/a	LTP236	ltpFR2	0	n/a	n/a	n/a	16	9	6	2	1
2762.874	n/a	PROB	1381437	n/a	LTP236	ltpFR2	0	n/a	n/a	n/a	16	13	2	7	4
2763.992	n/a	PROB	1381996	n/a	LTP236	ltpFR2	0	n/a	n/a	n/a	16	18	7	3	8
2765.076	n/a	PROB	1382538	n/a	LTP236	ltpFR2	0	n/a	n/a	n/a	16	21	8	9	4
2766.56	n/a	PROB	1383280	n/a	LTP236	ltpFR2	0	n/a	n/a	n/a	16	12	1	8	3
2768.262	n/a	PROB	1384131	n/a	LTP236	ltpFR2	0	n/a	n/a	n/a	16	21	9	5	7
2769.696	n/a	PROB	1384848	n/a	LTP236	ltpFR2	0	n/a	n/a	n/a	16	17	7	9	1
2770.818	n/a	STOP	1385409	n/a	LTP236	ltpFR2	0	n/a	n/a	n/a	16	n/a	n/a	n/a	n/a
2773.182	n/a	REC_START	1386591	n/a	LTP236	ltpFR2	0	10	n/a	n/a	n/a	n/a	0	0	0
2774.318	n/a	REC_WORD	1387159	wordpools/wasnorm_wordpool_576.txt	LTP236	ltpFR2	0	10	MAMMAL	861	n/a	n/a	0	0	0
2775.202	n/a	REC_WORD	1387601	wordpools/wasnorm_wordpool_576.txt	LTP236	ltpFR2	0	10	MARS	873	n/a	n/a	0	0	0
2776.766	n/a	REC_WORD	1388383	wordpools/wasnorm_wordpool_576.txt	LTP236	ltpFR2	0	10	GIRL	637	n/a	n/a	0	0	0
2777.672	n/a	REC_WORD	1388836	wordpools/wasnorm_wordpool_576.txt	LTP236	ltpFR2	0	10	LOVER	846	n/a	n/a	0	0	0
2778.696	n/a	REC_WORD	1389348	wordpools/wasnorm_wordpool_576.txt	LTP236	ltpFR2	0	10	FLESH	579	n/a	n/a	0	0	0
2779.608	n/a	REC_WORD	1389804	wordpools/wasnorm_wordpool_576.txt	LTP236	ltpFR2	0	10	FINGER	567	n/a	n/a	0	0	0
2780.916	n/a	REC_WORD	1390458	wordpools/wasnorm_wordpool_576.txt	LTP236	ltpFR2	0	10	GLOVE	642	n/a	n/a	0	0	0
2783.298	n/a	REC_WORD	1391649	wordpools/wasnorm_wordpool_576.txt	LTP236	ltpFR2	0	10	ORANGE	980	n/a	n/a	0	0	0
2784.622	n/a	REC_WORD	1392311	wordpools/wasnorm_wordpool_576.txt	LTP236	ltpFR2	0	10	CHEST	295	n/a	n/a	0	0	0
2785.784	n/a	REC_WORD	1392892	wordpools/wasnorm_wordpool_576.txt	LTP236	ltpFR2	0	10	CHIPMUNK	304	n/a	n/a	0	0	0
2787.364	n/a	REC_WORD	1393682	wordpools/wasnorm_wordpool_576.txt	LTP236	ltpFR2	0	10	EGYPT	519	n/a	n/a	0	0	0
2788.186	n/a	REC_WORD	1394093	wordpools/wasnorm_wordpool_576.txt	LTP236	ltpFR2	0	10	MUMMY	932	n/a	n/a	0	0	0
2788.712	n/a	REC_WORD	1394356	wordpools/wasnorm_wordpool_576.txt	LTP236	ltpFR2	0	10	SCULPTURE	1258	n/a	n/a	0	0	0
2789.712	n/a	REC_WORD_VV	1394856	wordpools/wasnorm_wordpool_576.txt	LTP236	ltpFR2	0	10	<>	-1	n/a	n/a	0	0	0
2790.318	n/a	REC_WORD	1395159	wordpools/wasnorm_wordpool_576.txt	LTP236	ltpFR2	0	10	MAIL	-1	n/a	n/a	0	0	0
2791.108	n/a	REC_WORD	1395554	wordpools/wasnorm_wordpool_576.txt	LTP236	ltpFR2	0	10	HAWK	692	n/a	n/a	0	0	0
2792.042	n/a	REC_WORD	1396021	wordpools/wasnorm_wordpool_576.txt	LTP236	ltpFR2	0	10	MONEY	908	n/a	n/a	0	0	0
2796.378	n/a	REC_WORD	1398189	wordpools/wasnorm_wordpool_576.txt	LTP236	ltpFR2	0	10	LETTER	813	n/a	n/a	0	0	0
2813.07	n/a	REC_WORD	1406535	wordpools/wasnorm_wordpool_576.txt	LTP236	ltpFR2	0	10	BROOK	177	n/a	n/a	0	0	0
2841.114	n/a	REC_WORD	1420557	wordpools/wasnorm_wordpool_576.txt	LTP236	ltpFR2	0	10	MAILBOX	857	n/a	n/a	0	0	0
2842.114	n/a	REC_WORD_VV	1421057	wordpools/wasnorm_wordpool_576.txt	LTP236	ltpFR2	0	10	<>	-1	n/a	n/a	0	0	0
2863.642	n/a	DISTRACTOR	1431821	n/a	LTP236	ltpFR2	0	11	n/a	n/a	n/a	n/a	0	0	0
2863.642	n/a	START	1431821	n/a	LTP236	ltpFR2	0	n/a	n/a	n/a	17	n/a	n/a	n/a	n/a
2863.66	n/a	PROB	1431830	n/a	LTP236	ltpFR2	0	n/a	n/a	n/a	17	15	7	6	2
2866.346	n/a	PROB	1433173	n/a	LTP236	ltpFR2	0	n/a	n/a	n/a	17	12	1	9	2
2867.362	n/a	PROB	1433681	n/a	LTP236	ltpFR2	0	n/a	n/a	n/a	17	12	8	1	3
2868.68	n/a	PROB	1434340	n/a	LTP236	ltpFR2	0	n/a	n/a	n/a	17	24	9	8	7
2871.4	n/a	PROB	1435700	n/a	LTP236	ltpFR2	0	n/a	n/a	n/a	17	16	2	8	6
2873.118	n/a	PROB	1436559	n/a	LTP236	ltpFR2	0	n/a	n/a	n/a	17	25	9	9	7
2876.686	n/a	PROB	1438343	n/a	LTP236	ltpFR2	0	n/a	n/a	n/a	17	15	4	3	8
2877.954	n/a	PROB	1438977	n/a	LTP236	ltpFR2	0	n/a	n/a	n/a	17	19	4	6	9
2879.406	n/a	PROB	1439703	n/a	LTP236	ltpFR2	0	n/a	n/a	n/a	17	12	6	3	3
2883.076	n/a	PROB	1441538	n/a	LTP236	ltpFR2	0	n/a	n/a	n/a	17	17	6	2	9
2884.41	n/a	PROB	1442205	n/a	LTP236	ltpFR2	0	n/a	n/a	n/a	17	16	5	6	5
2885.562	n/a	PROB	1442781	n/a	LTP236	ltpFR2	0	n/a	n/a	n/a	17	16	7	4	5
2886.646	n/a	STOP	1443323	n/a	LTP236	ltpFR2	0	n/a	n/a	n/a	17	n/a	n/a	n/a	n/a
2888.614	n/a	WORD	1444307	wordpools/wasnorm_wordpool_576.txt	LTP236	ltpFR2	0	11	BUGGY	188	n/a	n/a	0	0	0
2891.234	n/a	WORD	1445617	wordpools/wasnorm_wordpool_576.txt	LTP236	ltpFR2	0	11	GANGSTER	620	n/a	n/a	0	0	0
2894.002	n/a	WORD	1447001	wordpools/wasnorm_wordpool_576.txt	LTP236	ltpFR2	0	11	WHISTLE	1606	n/a	n/a	0	0	0
2896.822	n/a	WORD	1448411	wordpools/wasnorm_wordpool_576.txt	LTP236	ltpFR2	0	11	BIKE	125	n/a	n/a	0	0	0
2899.44	n/a	WORD	1449720	wordpools/wasnorm_wordpool_576.txt	LTP236	ltpFR2	0	11	PLAID	1080	n/a	n/a	0	0	0
2902.21	n/a	WORD	1451105	wordpools/wasnorm_wordpool_576.txt	LTP236	ltpFR2	0	11	SCRIBBLE	1256	n/a	n/a	0	0	0
2905.028	n/a	WORD	1452514	wordpools/wasnorm_wordpool_576.txt	LTP236	ltpFR2	0	11	JELLO	754	n/a	n/a	0	0	0
2907.78	n/a	WORD	1453890	wordpools/wasnorm_wordpool_576.txt	LTP236	ltpFR2	0	11	PASTRY	1022	n/a	n/a	0	0	0
2910.266	n/a	WORD	1455133	wordpools/wasnorm_wordpool_576.txt	LTP236	ltpFR2	0	11	BUTCHER	203	n/a	n/a	0	0	0
2912.934	n/a	WORD	1456467	wordpools/wasnorm_wordpool_576.txt	LTP236	ltpFR2	0	11	DUSTPAN	509	n/a	n/a	0	0	0
2915.586	n/a	WORD	1457793	wordpools/wasnorm_wordpool_576.txt	LTP236	ltpFR2	0	11	MOP	916	n/a	n/a	0	0	0
2918.356	n/a	WORD	1459178	wordpools/wasnorm_wordpool_576.txt	LTP236	ltpFR2	0	11	BANJO	82	n/a	n/a	0	0	0
2920.808	n/a	WORD	1460404	wordpools/wasnorm_wordpool_576.txt	LTP236	ltpFR2	0	11	HARP	689	n/a	n/a	0	0	0
2923.494	n/a	WORD	1461747	wordpools/wasnorm_wordpool_576.txt	LTP236	ltpFR2	0	11	BANQUET	86	n/a	n/a	0	0	0
2926.312	n/a	WORD	1463156	wordpools/wasnorm_wordpool_576.txt	LTP236	ltpFR2	0	11	RATTLE	1170	n/a	n/a	0	0	0
2928.832	n/a	WORD	1464416	wordpools/wasnorm_wordpool_576.txt	LTP236	ltpFR2	0	11	MAPLE	866	n/a	n/a	0	0	0
2931.366	n/a	WORD	1465683	wordpools/wasnorm_wordpool_576.txt	LTP236	ltpFR2	0	11	BRANCH	168	n/a	n/a	0	0	0
2934.02	n/a	WORD	1467010	wordpools/wasnorm_wordpool_576.txt	LTP236	ltpFR2	0	11	GAZELLE	628	n/a	n/a	0	0	0
2936.822	n/a	WORD	1468411	wordpools/wasnorm_wordpool_576.txt	LTP236	ltpFR2	0	11	PERMIT	1051	n/a	n/a	0	0	0
2939.592	n/a	WORD	1469796	wordpools/wasnorm_wordpool_576.txt	LTP236	ltpFR2	0	11	CREVICE	405	n/a	n/a	0	0	0
2942.144	n/a	WORD	1471072	wordpools/wasnorm_wordpool_576.txt	LTP236	ltpFR2	0	11	SIBLING	1301	n/a	n/a	0	0	0
2944.746	n/a	WORD	1472373	wordpools/wasnorm_wordpool_576.txt	LTP236	ltpFR2	0	11	CUPBOARD	425	n/a	n/a	0	0	0
2947.214	n/a	WORD	1473607	wordpools/wasnorm_wordpool_576.txt	LTP236	ltpFR2	0	11	BEEF	113	n/a	n/a	0	0	0
2949.682	n/a	WORD	1474841	wordpools/wasnorm_wordpool_576.txt	LTP236	ltpFR2	0	11	INFANT	737	n/a	n/a	0	0	0
2951.302	n/a	START	1475651	n/a	LTP236	ltpFR2	0	n/a	n/a	n/a	18	n/a	n/a	n/a	n/a
2952.104	n/a	DISTRACTOR	1476052	n/a	LTP236	ltpFR2	0	11	n/a	n/a	n/a	n/a	0	0	0
2952.118	n/a	PROB	1476059	n/a	LTP236	ltpFR2	0	n/a	n/a	n/a	18	9	4	1	4
2954.47	n/a	PROB	1477235	n/a	LTP236	ltpFR2	0	n/a	n/a	n/a	18	18	3	7	8
2955.938	n/a	PROB	1477969	n/a	LTP236	ltpFR2	0	n/a	n/a	n/a	18	19	8	6	5
2957.19	n/a	PROB	1478595	n/a	LTP236	ltpFR2	0	n/a	n/a	n/a	18	18	2	7	9
2958.256	n/a	PROB	1479128	n/a	LTP236	ltpFR2	0	n/a	n/a	n/a	18	14	2	3	9
2959.524	n/a	PROB	1479762	n/a	LTP236	ltpFR2	0	n/a	n/a	n/a	18	16	3	5	8
2962.944	n/a	PROB	1481472	n/a	LTP236	ltpFR2	0	n/a	n/a	n/a	18	11	2	8	1
2963.844	n/a	PROB	1481922	n/a	LTP236	ltpFR2	0	n/a	n/a	n/a	18	16	7	6	3
2964.862	n/a	PROB	1482431	n/a	LTP236	ltpFR2	0	n/a	n/a	n/a	18	18	5	5	8
2965.898	n/a	PROB	1482949	n/a	LTP236	ltpFR2	0	n/a	n/a	n/a	18	9	4	4	1
2966.78	n/a	PROB	1483390	n/a	LTP236	ltpFR2	0	n/a	n/a	n/a	18	12	6	5	1
2967.798	n/a	PROB	1483899	n/a	LTP236	ltpFR2	0	n/a	n/a	n/a	18	12	3	6	3
2968.798	n/a	PROB	1484399	n/a	LTP236	ltpFR2	0	n/a	n/a	n/a	18	22	7	7	8
2969.934	n/a	PROB	1484967	n/a	LTP236	ltpFR2	0	n/a	n/a	n/a	18	16	8	2	6
2971.25	n/a	PROB	1485625	n/a	LTP236	ltpFR2	0	n/a	n/a	n/a	18	14	9	2	3
2972.536	n/a	PROB	1486268	n/a	LTP236	ltpFR2	0	n/a	n/a	n/a	18	24	9	9	6
2973.766	n/a	STOP	1486883	n/a	LTP236	ltpFR2	0	n/a	n/a	n/a	18	n/a	n/a	n/a	n/a
2977.19	n/a	REC_START	1488595	n/a	LTP236	ltpFR2	0	11	n/a	n/a	n/a	n/a	0	0	0
2978.25	n/a	REC_WORD	1489125	wordpools/wasnorm_wordpool_576.txt	LTP236	ltpFR2	0	11	CUPBOARD	425	n/a	n/a	0	0	0
2979.156	n/a	REC_WORD	1489578	wordpools/wasnorm_wordpool_576.txt	LTP236	ltpFR2	0	11	CREVICE	405	n/a	n/a	0	0	0
2980.388	n/a	REC_WORD	1490194	wordpools/wasnorm_wordpool_576.txt	LTP236	ltpFR2	0	11	INFANT	737	n/a	n/a	0	0	0
2982.454	n/a	REC_WORD	1491227	wordpools/wasnorm_wordpool_576.txt	LTP236	ltpFR2	0	11	GANGSTER	620	n/a	n/a	0	0	0
2983.86	n/a	REC_WORD	1491930	wordpools/wasnorm_wordpool_576.txt	LTP236	ltpFR2	0	11	WHISTLE	1606	n/a	n/a	0	0	0
2985.614	n/a	REC_WORD	1492807	wordpools/wasnorm_wordpool_576.txt	LTP236	ltpFR2	0	11	BANJO	82	n/a	n/a	0	0	0
2987.108	n/a	REC_WORD	1493554	wordpools/wasnorm_wordpool_576.txt	LTP236	ltpFR2	0	11	RATTLE	1170	n/a	n/a	0	0	0
2990.344	n/a	REC_WORD	1495172	wordpools/wasnorm_wordpool_576.txt	LTP236	ltpFR2	0	11	BUTCHER	203	n/a	n/a	0	0	0
2993.59	n/a	REC_WORD	1496795	wordpools/wasnorm_wordpool_576.txt	LTP236	ltpFR2	0	11	JELLO	754	n/a	n/a	0	0	0
2994.72	n/a	REC_WORD	1497360	wordpools/wasnorm_wordpool_576.txt	LTP236	ltpFR2	0	11	MAPLE	866	n/a	n/a	0	0	0
3005.464	n/a	REC_WORD	1502732	wordpools/wasnorm_wordpool_576.txt	LTP236	ltpFR2	0	11	BANQUET	86	n/a	n/a	0	0	0
3028.088	n/a	REC_WORD	1514044	wordpools/wasnorm_wordpool_576.txt	LTP236	ltpFR2	0	11	BIKE	125	n/a	n/a	0	0	0
3033.888	n/a	REC_WORD	1516944	wordpools/wasnorm_wordpool_576.txt	LTP236	ltpFR2	0	11	PLAID	1080	n/a	n/a	0	0	0
3067.866	n/a	WORD	1533933	wordpools/wasnorm_wordpool_576.txt	LTP236	ltpFR2	0	12	BEAVER	109	n/a	n/a	0	0	0
3070.452	n/a	WORD	1535226	wordpools/wasnorm_wordpool_576.txt	LTP236	ltpFR2	0	12	CREATURE	403	n/a	n/a	0	0	0
3073.054	n/a	WORD	1536527	wordpools/wasnorm_wordpool_576.txt	LTP236	ltpFR2	0	12	CIGAR	308	n/a	n/a	0	0	0
3075.756	n/a	WORD	1537878	wordpools/wasnorm_wordpool_576.txt	LTP236	ltpFR2	0	12	LOFT	840	n/a	n/a	0	0	0
3078.326	n/a	WORD	1539163	wordpools/wasnorm_wordpool_576.txt	LTP236	ltpFR2	0	12	SILK	1307	n/a	n/a	0	0	0
3080.778	n/a	WORD	1540389	wordpools/wasnorm_wordpool_576.txt	LTP236	ltpFR2	0	12	SCARECROW	1245	n/a	n/a	0	0	0
3083.446	n/a	WORD	1541723	wordpools/wasnorm_wordpool_576.txt	LTP236	ltpFR2	0	12	OUTFIT	988	n/a	n/a	0	0	0
3085.964	n/a	WORD	1542982	wordpools/wasnorm_wordpool_576.txt	LTP236	ltpFR2	0	12	TWISTER	1530	n/a	n/a	0	0	0
3088.434	n/a	WORD	1544217	wordpools/wasnorm_wordpool_576.txt	LTP236	ltpFR2	0	12	PUPIL	1143	n/a	n/a	0	0	0
3090.886	n/a	WORD	1545443	wordpools/wasnorm_wordpool_576.txt	LTP236	ltpFR2	0	12	WIFE	1609	n/a	n/a	0	0	0
3093.356	n/a	WORD	1546678	wordpools/wasnorm_wordpool_576.txt	LTP236	ltpFR2	0	12	SNACK	1331	n/a	n/a	0	0	0
3096.092	n/a	WORD	1548046	wordpools/wasnorm_wordpool_576.txt	LTP236	ltpFR2	0	12	YOLK	1633	n/a	n/a	0	0	0
3098.576	n/a	WORD	1549288	wordpools/wasnorm_wordpool_576.txt	LTP236	ltpFR2	0	12	RELISH	1183	n/a	n/a	0	0	0
3101.028	n/a	WORD	1550514	wordpools/wasnorm_wordpool_576.txt	LTP236	ltpFR2	0	12	COTTAGE	384	n/a	n/a	0	0	0
3103.748	n/a	WORD	1551874	wordpools/wasnorm_wordpool_576.txt	LTP236	ltpFR2	0	12	SCALLOP	1242	n/a	n/a	0	0	0
3106.55	n/a	WORD	1553275	wordpools/wasnorm_wordpool_576.txt	LTP236	ltpFR2	0	12	BUNNY	198	n/a	n/a	0	0	0
3109.352	n/a	WORD	1554676	wordpools/wasnorm_wordpool_576.txt	LTP236	ltpFR2	0	12	COMET	353	n/a	n/a	0	0	0
3111.988	n/a	WORD	1555994	wordpools/wasnorm_wordpool_576.txt	LTP236	ltpFR2	0	12	DRILL	497	n/a	n/a	0	0	0
3114.556	n/a	WORD	1557278	wordpools/wasnorm_wordpool_576.txt	LTP236	ltpFR2	0	12	MATCH	878	n/a	n/a	0	0	0
3117.142	n/a	WORD	1558571	wordpools/wasnorm_wordpool_576.txt	LTP236	ltpFR2	0	12	SUMMIT	1405	n/a	n/a	0	0	0
3119.81	n/a	WORD	1559905	wordpools/wasnorm_wordpool_576.txt	LTP236	ltpFR2	0	12	SANDWICH	1232	n/a	n/a	0	0	0
3122.262	n/a	WORD	1561131	wordpools/wasnorm_wordpool_576.txt	LTP236	ltpFR2	0	12	CYCLONE	431	n/a	n/a	0	0	0
3124.832	n/a	WORD	1562416	wordpools/wasnorm_wordpool_576.txt	LTP236	ltpFR2	0	12	CAFE	216	n/a	n/a	0	0	0
3127.434	n/a	WORD	1563717	wordpools/wasnorm_wordpool_576.txt	LTP236	ltpFR2	0	12	COUSIN	392	n/a	n/a	0	0	0
3129.052	n/a	START	1564526	n/a	LTP236	ltpFR2	0	n/a	n/a	n/a	19	n/a	n/a	n/a	n/a
3130.132	n/a	DISTRACTOR	1565066	n/a	LTP236	ltpFR2	0	12	n/a	n/a	n/a	n/a	0	0	0
3130.152	n/a	PROB	1565076	n/a	LTP236	ltpFR2	0	n/a	n/a	n/a	19	3	1	1	1
3131.954	n/a	PROB	1565977	n/a	LTP236	ltpFR2	0	n/a	n/a	n/a	19	18	9	3	6
3134.272	n/a	PROB	1567136	n/a	LTP236	ltpFR2	0	n/a	n/a	n/a	19	16	1	6	9
3135.424	n/a	PROB	1567712	n/a	LTP236	ltpFR2	0	n/a	n/a	n/a	19	9	5	2	2
3136.558	n/a	PROB	1568279	n/a	LTP236	ltpFR2	0	n/a	n/a	n/a	19	7	3	1	3
3138.31	n/a	PROB	1569155	n/a	LTP236	ltpFR2	0	n/a	n/a	n/a	19	16	5	4	7
3139.46	n/a	PROB	1569730	n/a	LTP236	ltpFR2	0	n/a	n/a	n/a	19	5	3	1	1
3140.644	n/a	PROB	1570322	n/a	LTP236	ltpFR2	0	n/a	n/a	n/a	19	17	5	6	6
3142.396	n/a	PROB	1571198	n/a	LTP236	ltpFR2	0	n/a	n/a	n/a	19	10	4	1	5
3143.914	n/a	PROB	1571957	n/a	LTP236	ltpFR2	0	n/a	n/a	n/a	19	10	4	3	3
3146.468	n/a	PROB	1573234	n/a	LTP236	ltpFR2	0	n/a	n/a	n/a	19	7	4	2	1
3147.702	n/a	PROB	1573851	n/a	LTP236	ltpFR2	0	n/a	n/a	n/a	19	20	6	9	5
3149.67	n/a	PROB	1574835	n/a	LTP236	ltpFR2	0	n/a	n/a	n/a	19	27	9	9	9
3150.988	n/a	PROB	1575494	n/a	LTP236	ltpFR2	0	n/a	n/a	n/a	19	14	1	7	6
3152.162	n/a	STOP	1576081	n/a	LTP236	ltpFR2	0	n/a	n/a	n/a	19	n/a	n/a	n/a	n/a
3154.958	n/a	REC_START	1577479	n/a	LTP236	ltpFR2	0	12	n/a	n/a	n/a	n/a	0	0	0
3156.17	n/a	REC_WORD	1578085	wordpools/wasnorm_wordpool_576.txt	LTP236	ltpFR2	0	12	COTTAGE	384	n/a	n/a	0	0	0
3157.458	n/a	REC_WORD	1578729	wordpools/wasnorm_wordpool_576.txt	LTP236	ltpFR2	0	12	WIFE	1609	n/a	n/a	0	0	0
3158.502	n/a	REC_WORD	1579251	wordpools/wasnorm_wordpool_576.txt	LTP236	ltpFR2	0	12	COUSIN	392	n/a	n/a	0	0	0
3159.958	n/a	REC_WORD	1579979	wordpools/wasnorm_wordpool_576.txt	LTP236	ltpFR2	0	12	YOLK	1633	n/a	n/a	0	0	0
3161.588	n/a	REC_WORD	1580794	wordpools/wasnorm_wordpool_576.txt	LTP236	ltpFR2	0	12	SANDWICH	1232	n/a	n/a	0	0	0
3162.588	n/a	REC_WORD_VV	1581294	wordpools/wasnorm_wordpool_576.txt	LTP236	ltpFR2	0	12	<>	-1	n/a	n/a	0	0	0
3166.372	n/a	REC_WORD	1583186	wordpools/wasnorm_wordpool_576.txt	LTP236	ltpFR2	0	12	BUNNY	198	n/a	n/a	0	0	0
3171.38	n/a	REC_WORD	1585690	wordpools/wasnorm_wordpool_576.txt	LTP236	ltpFR2	0	12	RELISH	1183	n/a	n/a	0	0	0
3178.52	n/a	REC_WORD	1589260	wordpools/wasnorm_wordpool_576.txt	LTP236	ltpFR2	0	12	PUPIL	1143	n/a	n/a	0	0	0
3185.094	n/a	REC_WORD	1592547	wordpools/wasnorm_wordpool_576.txt	LTP236	ltpFR2	0	12	DRILL	497	n/a	n/a	0	0	0
3204.424	n/a	REC_WORD	1602212	wordpools/wasnorm_wordpool_576.txt	LTP236	ltpFR2	0	12	CREATURE	403	n/a	n/a	0	0	0
3205.668	n/a	REC_WORD	1602834	wordpools/wasnorm_wordpool_576.txt	LTP236	ltpFR2	0	12	BEAVER	109	n/a	n/a	0	0	0
3206.398	n/a	REC_WORD	1603199	wordpools/wasnorm_wordpool_576.txt	LTP236	ltpFR2	0	12	CIGAR	308	n/a	n/a	0	0	0
3208.73	n/a	REC_WORD	1604365	wordpools/wasnorm_wordpool_576.txt	LTP236	ltpFR2	0	12	SCARECROW	1245	n/a	n/a	0	0	0
3209.73	n/a	REC_WORD_VV	1604865	wordpools/wasnorm_wordpool_576.txt	LTP236	ltpFR2	0	12	<>	-1	n/a	n/a	0	0	0
3245.584	n/a	DISTRACTOR	1622792	n/a	LTP236	ltpFR2	0	13	n/a	n/a	n/a	n/a	0	0	0
3245.584	n/a	START	1622792	n/a	LTP236	ltpFR2	0	n/a	n/a	n/a	20	n/a	n/a	n/a	n/a
3245.618	n/a	PROB	1622809	n/a	LTP236	ltpFR2	0	n/a	n/a	n/a	20	15	1	6	8
3247.586	n/a	PROB	1623793	n/a	LTP236	ltpFR2	0	n/a	n/a	n/a	20	13	1	8	4
3249.52	n/a	PROB	1624760	n/a	LTP236	ltpFR2	0	n/a	n/a	n/a	20	15	9	1	5
3250.572	n/a	PROB	1625286	n/a	LTP236	ltpFR2	0	n/a	n/a	n/a	20	5	2	2	1
3251.506	n/a	PROB	1625753	n/a	LTP236	ltpFR2	0	n/a	n/a	n/a	20	14	3	2	9
3252.758	n/a	PROB	1626379	n/a	LTP236	ltpFR2	0	n/a	n/a	n/a	20	16	9	2	5
3253.876	n/a	PROB	1626938	n/a	LTP236	ltpFR2	0	n/a	n/a	n/a	20	10	5	4	1
3255.41	n/a	PROB	1627705	n/a	LTP236	ltpFR2	0	n/a	n/a	n/a	20	16	5	6	5
3257.494	n/a	PROB	1628747	n/a	LTP236	ltpFR2	0	n/a	n/a	n/a	20	17	5	7	5
3258.762	n/a	PROB	1629381	n/a	LTP236	ltpFR2	0	n/a	n/a	n/a	20	17	4	7	6
3260.064	n/a	PROB	1630032	n/a	LTP236	ltpFR2	0	n/a	n/a	n/a	20	3	1	1	1
3260.932	n/a	PROB	1630466	n/a	LTP236	ltpFR2	0	n/a	n/a	n/a	20	16	8	1	7
3262.132	n/a	PROB	1631066	n/a	LTP236	ltpFR2	0	n/a	n/a	n/a	20	14	4	5	5
3263.366	n/a	PROB	1631683	n/a	LTP236	ltpFR2	0	n/a	n/a	n/a	20	25	8	9	8
3268.324	n/a	STOP	1634162	n/a	LTP236	ltpFR2	0	n/a	n/a	n/a	20	n/a	n/a	n/a	n/a
3270.456	n/a	WORD	1635228	wordpools/wasnorm_wordpool_576.txt	LTP236	ltpFR2	0	13	TERMITE	1451	n/a	n/a	0	0	0
3272.974	n/a	WORD	1636487	wordpools/wasnorm_wordpool_576.txt	LTP236	ltpFR2	0	13	BUREAU	199	n/a	n/a	0	0	0
3275.694	n/a	WORD	1637847	wordpools/wasnorm_wordpool_576.txt	LTP236	ltpFR2	0	13	COSTUME	383	n/a	n/a	0	0	0
3278.278	n/a	WORD	1639139	wordpools/wasnorm_wordpool_576.txt	LTP236	ltpFR2	0	13	OFFICE	972	n/a	n/a	0	0	0
3280.814	n/a	WORD	1640407	wordpools/wasnorm_wordpool_576.txt	LTP236	ltpFR2	0	13	TROMBONE	1508	n/a	n/a	0	0	0
3283.434	n/a	WORD	1641717	wordpools/wasnorm_wordpool_576.txt	LTP236	ltpFR2	0	13	RECORD	1176	n/a	n/a	0	0	0
3286.268	n/a	WORD	1643134	wordpools/wasnorm_wordpool_576.txt	LTP236	ltpFR2	0	13	BOARD	143	n/a	n/a	0	0	0
3288.954	n/a	WORD	1644477	wordpools/wasnorm_wordpool_576.txt	LTP236	ltpFR2	0	13	REBEL	1172	n/a	n/a	0	0	0
3291.456	n/a	WORD	1645728	wordpools/wasnorm_wordpool_576.txt	LTP236	ltpFR2	0	13	JUNGLE	764	n/a	n/a	0	0	0
3294.292	n/a	WORD	1647146	wordpools/wasnorm_wordpool_576.txt	LTP236	ltpFR2	0	13	RECEIPT	1173	n/a	n/a	0	0	0
3296.894	n/a	WORD	1648447	wordpools/wasnorm_wordpool_576.txt	LTP236	ltpFR2	0	13	BRICK	172	n/a	n/a	0	0	0
3299.53	n/a	WORD	1649765	wordpools/wasnorm_wordpool_576.txt	LTP236	ltpFR2	0	13	FOOT	590	n/a	n/a	0	0	0
3302.132	n/a	WORD	1651066	wordpools/wasnorm_wordpool_576.txt	LTP236	ltpFR2	0	13	LEG	809	n/a	n/a	0	0	0
3304.95	n/a	WORD	1652475	wordpools/wasnorm_wordpool_576.txt	LTP236	ltpFR2	0	13	PASSAGE	1019	n/a	n/a	0	0	0
3307.72	n/a	WORD	1653860	wordpools/wasnorm_wordpool_576.txt	LTP236	ltpFR2	0	13	CLOUD	328	n/a	n/a	0	0	0
3310.256	n/a	WORD	1655128	wordpools/wasnorm_wordpool_576.txt	LTP236	ltpFR2	0	13	HORSE	719	n/a	n/a	0	0	0
3312.958	n/a	WORD	1656479	wordpools/wasnorm_wordpool_576.txt	LTP236	ltpFR2	0	13	WORLD	1622	n/a	n/a	0	0	0
3315.778	n/a	WORD	1657889	wordpools/wasnorm_wordpool_576.txt	LTP236	ltpFR2	0	13	ATLAS	53	n/a	n/a	0	0	0
3318.514	n/a	WORD	1659257	wordpools/wasnorm_wordpool_576.txt	LTP236	ltpFR2	0	13	BANKER	84	n/a	n/a	0	0	0
3321.232	n/a	WORD	1660616	wordpools/wasnorm_wordpool_576.txt	LTP236	ltpFR2	0	13	PATROL	1027	n/a	n/a	0	0	0
3323.768	n/a	WORD	1661884	wordpools/wasnorm_wordpool_576.txt	LTP236	ltpFR2	0	13	AUTHOR	61	n/a	n/a	0	0	0
3326.52	n/a	WORD	1663260	wordpools/wasnorm_wordpool_576.txt	LTP236	ltpFR2	0	13	PUDDING	1139	n/a	n/a	0	0	0
3329.156	n/a	WORD	1664578	wordpools/wasnorm_wordpool_576.txt	LTP236	ltpFR2	0	13	SHOULDER	1294	n/a	n/a	0	0	0
3331.808	n/a	WORD	1665904	wordpools/wasnorm_wordpool_576.txt	LTP236	ltpFR2	0	13	BINDER	127	n/a	n/a	0	0	0
3333.426	n/a	START	1666713	n/a	LTP236	ltpFR2	0	n/a	n/a	n/a	21	n/a	n/a	n/a	n/a
3334.602	n/a	DISTRACTOR	1667301	n/a	LTP236	ltpFR2	0	13	n/a	n/a	n/a	n/a	0	0	0
3334.61	n/a	PROB	1667305	n/a	LTP236	ltpFR2	0	n/a	n/a	n/a	21	13	6	5	2
3337.378	n/a	PROB	1668689	n/a	LTP236	ltpFR2	0	n/a	n/a	n/a	21	10	2	6	2
3339.38	n/a	PROB	1669690	n/a	LTP236	ltpFR2	0	n/a	n/a	n/a	21	15	2	6	7
3340.832	n/a	PROB	1670416	n/a	LTP236	ltpFR2	0	n/a	n/a	n/a	21	7	2	4	1
3343.25	n/a	PROB	1671625	n/a	LTP236	ltpFR2	0	n/a	n/a	n/a	21	18	4	5	9
3345.586	n/a	PROB	1672793	n/a	LTP236	ltpFR2	0	n/a	n/a	n/a	21	18	9	6	3
3346.936	n/a	PROB	1673468	n/a	LTP236	ltpFR2	0	n/a	n/a	n/a	21	12	1	9	2
3348.222	n/a	PROB	1674111	n/a	LTP236	ltpFR2	0	n/a	n/a	n/a	21	16	7	2	7
3350.324	n/a	PROB	1675162	n/a	LTP236	ltpFR2	0	n/a	n/a	n/a	21	11	2	3	6
3351.474	n/a	PROB	1675737	n/a	LTP236	ltpFR2	0	n/a	n/a	n/a	21	11	3	5	3
3352.958	n/a	PROB	1676479	n/a	LTP236	ltpFR2	0	n/a	n/a	n/a	21	14	7	1	6
3354.11	n/a	PROB	1677055	n/a	LTP236	ltpFR2	0	n/a	n/a	n/a	21	6	2	3	1
3355.31	n/a	PROB	1677655	n/a	LTP236	ltpFR2	0	n/a	n/a	n/a	21	13	2	8	3
3356.47	n/a	STOP	1678235	n/a	LTP236	ltpFR2	0	n/a	n/a	n/a	21	n/a	n/a	n/a	n/a
3359.348	n/a	REC_START	1679674	n/a	LTP236	ltpFR2	0	13	n/a	n/a	n/a	n/a	0	0	0
3360.274	n/a	REC_WORD	1680137	wordpools/wasnorm_wordpool_576.txt	LTP236	ltpFR2	0	13	PATROL	1027	n/a	n/a	0	0	0
3361.774	n/a	REC_WORD	1680887	wordpools/wasnorm_wordpool_576.txt	LTP236	ltpFR2	0	13	BINDER	127	n/a	n/a	0	0	0
3362.872	n/a	REC_WORD	1681436	wordpools/wasnorm_wordpool_576.txt	LTP236	ltpFR2	0	13	OFFICE	972	n/a	n/a	0	0	0
3363.93	n/a	REC_WORD	1681965	wordpools/wasnorm_wordpool_576.txt	LTP236	ltpFR2	0	13	CLOUD	328	n/a	n/a	0	0	0
3364.982	n/a	REC_WORD	1682491	wordpools/wasnorm_wordpool_576.txt	LTP236	ltpFR2	0	13	WORLD	1622	n/a	n/a	0	0	0
3366.068	n/a	REC_WORD	1683034	wordpools/wasnorm_wordpool_576.txt	LTP236	ltpFR2	0	13	ATLAS	53	n/a	n/a	0	0	0
3367.414	n/a	REC_WORD	1683707	wordpools/wasnorm_wordpool_576.txt	LTP236	ltpFR2	0	13	TERMITE	1451	n/a	n/a	0	0	0
3372.508	n/a	REC_WORD	1686254	wordpools/wasnorm_wordpool_576.txt	LTP236	ltpFR2	0	13	RECEIPT	1173	n/a	n/a	0	0	0
3373.616	n/a	REC_WORD	1686808	wordpools/wasnorm_wordpool_576.txt	LTP236	ltpFR2	0	13	SHOULDER	1294	n/a	n/a	0	0	0
3374.804	n/a	REC_WORD	1687402	wordpools/wasnorm_wordpool_576.txt	LTP236	ltpFR2	0	13	LEG	809	n/a	n/a	0	0	0
3375.62	n/a	REC_WORD	1687810	wordpools/wasnorm_wordpool_576.txt	LTP236	ltpFR2	0	13	FOOT	590	n/a	n/a	0	0	0
3376.98	n/a	REC_WORD	1688490	wordpools/wasnorm_wordpool_576.txt	LTP236	ltpFR2	0	13	BRICK	172	n/a	n/a	0	0	0
3449.974	n/a	DISTRACTOR	1724987	n/a	LTP236	ltpFR2	0	14	n/a	n/a	n/a	n/a	0	0	0
3449.974	n/a	START	1724987	n/a	LTP236	ltpFR2	0	n/a	n/a	n/a	22	n/a	n/a	n/a	n/a
3450.008	n/a	PROB	1725004	n/a	LTP236	ltpFR2	0	n/a	n/a	n/a	22	14	6	5	3
3452.094	n/a	PROB	1726047	n/a	LTP236	ltpFR2	0	n/a	n/a	n/a	22	14	6	4	4
3455.462	n/a	PROB	1727731	n/a	LTP236	ltpFR2	0	n/a	n/a	n/a	22	12	5	6	1
3456.53	n/a	PROB	1728265	n/a	LTP236	ltpFR2	0	n/a	n/a	n/a	22	10	1	3	6
3457.714	n/a	PROB	1728857	n/a	LTP236	ltpFR2	0	n/a	n/a	n/a	22	12	2	6	4
3458.848	n/a	PROB	1729424	n/a	LTP236	ltpFR2	0	n/a	n/a	n/a	22	10	3	5	2
3460.216	n/a	PROB	1730108	n/a	LTP236	ltpFR2	0	n/a	n/a	n/a	22	19	4	9	6
3461.434	n/a	PROB	1730717	n/a	LTP236	ltpFR2	0	n/a	n/a	n/a	22	13	5	2	6
3462.886	n/a	PROB	1731443	n/a	LTP236	ltpFR2	0	n/a	n/a	n/a	22	9	1	5	3
3464.002	n/a	PROB	1732001	n/a	LTP236	ltpFR2	0	n/a	n/a	n/a	22	21	5	9	7
3465.706	n/a	PROB	1732853	n/a	LTP236	ltpFR2	0	n/a	n/a	n/a	22	16	6	6	4
3467.674	n/a	PROB	1733837	n/a	LTP236	ltpFR2	0	n/a	n/a	n/a	22	15	4	2	9
3468.858	n/a	PROB	1734429	n/a	LTP236	ltpFR2	0	n/a	n/a	n/a	22	19	6	7	6
3473.974	n/a	STOP	1736987	n/a	LTP236	ltpFR2	0	n/a	n/a	n/a	22	n/a	n/a	n/a	n/a
3475.08	n/a	WORD	1737540	wordpools/wasnorm_wordpool_576.txt	LTP236	ltpFR2	0	14	ANTLER	29	n/a	n/a	0	0	0
3477.848	n/a	WORD	1738924	wordpools/wasnorm_wordpool_576.txt	LTP236	ltpFR2	0	14	CHAMPAGNE	278	n/a	n/a	0	0	0
3480.634	n/a	WORD	1740317	wordpools/wasnorm_wordpool_576.txt	LTP236	ltpFR2	0	14	BEAKER	104	n/a	n/a	0	0	0
3483.12	n/a	WORD	1741560	wordpools/wasnorm_wordpool_576.txt	LTP236	ltpFR2	0	14	THREAD	1460	n/a	n/a	0	0	0
3485.788	n/a	WORD	1742894	wordpools/wasnorm_wordpool_576.txt	LTP236	ltpFR2	0	14	SIDEWALK	1303	n/a	n/a	0	0	0
3488.592	n/a	WORD	1744296	wordpools/wasnorm_wordpool_576.txt	LTP236	ltpFR2	0	14	APPLE	33	n/a	n/a	0	0	0
3491.26	n/a	WORD	1745630	wordpools/wasnorm_wordpool_576.txt	LTP236	ltpFR2	0	14	ELBOW	520	n/a	n/a	0	0	0
3493.812	n/a	WORD	1746906	wordpools/wasnorm_wordpool_576.txt	LTP236	ltpFR2	0	14	TART	1436	n/a	n/a	0	0	0
3496.464	n/a	WORD	1748232	wordpools/wasnorm_wordpool_576.txt	LTP236	ltpFR2	0	14	SUNSET	1408	n/a	n/a	0	0	0
3499.084	n/a	WORD	1749542	wordpools/wasnorm_wordpool_576.txt	LTP236	ltpFR2	0	14	TILE	1468	n/a	n/a	0	0	0
3501.904	n/a	WORD	1750952	wordpools/wasnorm_wordpool_576.txt	LTP236	ltpFR2	0	14	SWITCH	1422	n/a	n/a	0	0	0
3504.438	n/a	WORD	1752219	wordpools/wasnorm_wordpool_576.txt	LTP236	ltpFR2	0	14	CRIB	407	n/a	n/a	0	0	0
3507.106	n/a	WORD	1753553	wordpools/wasnorm_wordpool_576.txt	LTP236	ltpFR2	0	14	OZONE	996	n/a	n/a	0	0	0
3509.692	n/a	WORD	1754846	wordpools/wasnorm_wordpool_576.txt	LTP236	ltpFR2	0	14	TROUT	1511	n/a	n/a	0	0	0
3512.46	n/a	WORD	1756230	wordpools/wasnorm_wordpool_576.txt	LTP236	ltpFR2	0	14	SEAFOOD	1260	n/a	n/a	0	0	0
3515.114	n/a	WORD	1757557	wordpools/wasnorm_wordpool_576.txt	LTP236	ltpFR2	0	14	MASK	876	n/a	n/a	0	0	0
3517.95	n/a	WORD	1758975	wordpools/wasnorm_wordpool_576.txt	LTP236	ltpFR2	0	14	ULCER	1533	n/a	n/a	0	0	0
3520.686	n/a	WORD	1760343	wordpools/wasnorm_wordpool_576.txt	LTP236	ltpFR2	0	14	BELLY	119	n/a	n/a	0	0	0
3523.388	n/a	WORD	1761694	wordpools/wasnorm_wordpool_576.txt	LTP236	ltpFR2	0	14	PATIENT	1024	n/a	n/a	0	0	0
3525.94	n/a	WORD	1762970	wordpools/wasnorm_wordpool_576.txt	LTP236	ltpFR2	0	14	GROUND	666	n/a	n/a	0	0	0
3528.626	n/a	WORD	1764313	wordpools/wasnorm_wordpool_576.txt	LTP236	ltpFR2	0	14	PEPPER	1047	n/a	n/a	0	0	0
3531.428	n/a	WORD	1765714	wordpools/wasnorm_wordpool_576.txt	LTP236	ltpFR2	0	14	CELLAR	267	n/a	n/a	0	0	0
3534.064	n/a	WORD	1767032	wordpools/wasnorm_wordpool_576.txt	LTP236	ltpFR2	0	14	TURNIP	1521	n/a	n/a	0	0	0
3536.832	n/a	WORD	1768416	wordpools/wasnorm_wordpool_576.txt	LTP236	ltpFR2	0	14	YARN	1631	n/a	n/a	0	0	0
3538.45	n/a	START	1769225	n/a	LTP236	ltpFR2	0	n/a	n/a	n/a	23	n/a	n/a	n/a	n/a
3539.584	n/a	DISTRACTOR	1769792	n/a	LTP236	ltpFR2	0	14	n/a	n/a	n/a	n/a	0	0	0
3539.602	n/a	PROB	1769801	n/a	LTP236	ltpFR2	0	n/a	n/a	n/a	23	7	2	4	1
3543.17	n/a	PROB	1771585	n/a	LTP236	ltpFR2	0	n/a	n/a	n/a	23	19	9	3	7
3545.54	n/a	PROB	1772770	n/a	LTP236	ltpFR2	0	n/a	n/a	n/a	23	14	9	3	2
3547.04	n/a	PROB	1773520	n/a	LTP236	ltpFR2	0	n/a	n/a	n/a	23	17	6	5	6
3549.626	n/a	PROB	1774813	n/a	LTP236	ltpFR2	0	n/a	n/a	n/a	23	11	3	4	4
3551.444	n/a	PROB	1775722	n/a	LTP236	ltpFR2	0	n/a	n/a	n/a	23	13	3	9	1
3552.578	n/a	PROB	1776289	n/a	LTP236	ltpFR2	0	n/a	n/a	n/a	23	13	3	9	1
3555.314	n/a	PROB	1777657	n/a	LTP236	ltpFR2	0	n/a	n/a	n/a	23	19	6	8	5
3556.632	n/a	PROB	1778316	n/a	LTP236	ltpFR2	0	n/a	n/a	n/a	23	24	9	9	6
3558.234	n/a	PROB	1779117	n/a	LTP236	ltpFR2	0	n/a	n/a	n/a	23	19	2	9	8
3559.552	n/a	PROB	1779776	n/a	LTP236	ltpFR2	0	n/a	n/a	n/a	23	12	1	8	3
3560.918	n/a	PROB	1780459	n/a	LTP236	ltpFR2	0	n/a	n/a	n/a	23	15	7	6	2
3562.138	n/a	STOP	1781069	n/a	LTP236	ltpFR2	0	n/a	n/a	n/a	23	n/a	n/a	n/a	n/a
3564.272	n/a	REC_START	1782136	n/a	LTP236	ltpFR2	0	14	n/a	n/a	n/a	n/a	0	0	0
3565.318	n/a	REC_WORD	1782659	wordpools/wasnorm_wordpool_576.txt	LTP236	ltpFR2	0	14	TURNIP	1521	n/a	n/a	0	0	0
3566.064	n/a	REC_WORD	1783032	wordpools/wasnorm_wordpool_576.txt	LTP236	ltpFR2	0	14	YARN	1631	n/a	n/a	0	0	0
3566.71	n/a	REC_WORD	1783355	wordpools/wasnorm_wordpool_576.txt	LTP236	ltpFR2	0	14	TROUT	1511	n/a	n/a	0	0	0
3567.28	n/a	REC_WORD	1783640	wordpools/wasnorm_wordpool_576.txt	LTP236	ltpFR2	0	14	SEAFOOD	1260	n/a	n/a	0	0	0
3568.12	n/a	REC_WORD	1784060	wordpools/wasnorm_wordpool_576.txt	LTP236	ltpFR2	0	14	SIDEWALK	1303	n/a	n/a	0	0	0
3569.12	n/a	REC_WORD_VV	1784560	wordpools/wasnorm_wordpool_576.txt	LTP236	ltpFR2	0	14	<>	-1	n/a	n/a	0	0	0
3570.878	n/a	REC_WORD	1785439	wordpools/wasnorm_wordpool_576.txt	LTP236	ltpFR2	0	14	CELLAR	267	n/a	n/a	0	0	0
3571.88	n/a	REC_WORD_VV	1785940	wordpools/wasnorm_wordpool_576.txt	LTP236	ltpFR2	0	14	<>	-1	n/a	n/a	0	0	0
3573.302	n/a	REC_WORD	1786651	wordpools/wasnorm_wordpool_576.txt	LTP236	ltpFR2	0	14	SUNSET	1408	n/a	n/a	0	0	0
3582.366	n/a	REC_WORD	1791183	wordpools/wasnorm_wordpool_576.txt	LTP236	ltpFR2	0	14	CHAMPAGNE	278	n/a	n/a	0	0	0
3583.636	n/a	REC_WORD	1791818	wordpools/wasnorm_wordpool_576.txt	LTP236	ltpFR2	0	14	APPLE	33	n/a	n/a	0	0	0
3585.574	n/a	REC_WORD	1792787	wordpools/wasnorm_wordpool_576.txt	LTP236	ltpFR2	0	14	BEAKER	104	n/a	n/a	0	0	0
3586.49	n/a	REC_WORD	1793245	wordpools/wasnorm_wordpool_576.txt	LTP236	ltpFR2	0	14	TART	1436	n/a	n/a	0	0	0
3589.264	n/a	REC_WORD	1794632	wordpools/wasnorm_wordpool_576.txt	LTP236	ltpFR2	0	14	ANTLER	29	n/a	n/a	0	0	0
3591.802	n/a	REC_WORD	1795901	wordpools/wasnorm_wordpool_576.txt	LTP236	ltpFR2	0	14	GROUND	666	n/a	n/a	0	0	0
3592.832	n/a	REC_WORD	1796416	wordpools/wasnorm_wordpool_576.txt	LTP236	ltpFR2	0	14	PEPPER	1047	n/a	n/a	0	0	0
3629.08	n/a	REC_WORD	1814540	wordpools/wasnorm_wordpool_576.txt	LTP236	ltpFR2	0	14	THREAD	1460	n/a	n/a	0	0	0
3654.748	n/a	WORD	1827374	wordpools/wasnorm_wordpool_576.txt	LTP236	ltpFR2	0	15	HOOD	714	n/a	n/a	0	0	0
3657.234	n/a	WORD	1828617	wordpools/wasnorm_wordpool_576.txt	LTP236	ltpFR2	0	15	BRACES	164	n/a	n/a	0	0	0
3659.936	n/a	WORD	1829968	wordpools/wasnorm_wordpool_576.txt	LTP236	ltpFR2	0	15	EYELASH	546	n/a	n/a	0	0	0
3662.706	n/a	WORD	1831353	wordpools/wasnorm_wordpool_576.txt	LTP236	ltpFR2	0	15	HOSTESS	723	n/a	n/a	0	0	0
3665.224	n/a	WORD	1832612	wordpools/wasnorm_wordpool_576.txt	LTP236	ltpFR2	0	15	CITRUS	313	n/a	n/a	0	0	0
3667.776	n/a	WORD	1833888	wordpools/wasnorm_wordpool_576.txt	LTP236	ltpFR2	0	15	DENIM	446	n/a	n/a	0	0	0
3670.512	n/a	WORD	1835256	wordpools/wasnorm_wordpool_576.txt	LTP236	ltpFR2	0	15	FLIPPER	580	n/a	n/a	0	0	0
3673.064	n/a	WORD	1836532	wordpools/wasnorm_wordpool_576.txt	LTP236	ltpFR2	0	15	UNCLE	1536	n/a	n/a	0	0	0
3675.866	n/a	WORD	1837933	wordpools/wasnorm_wordpool_576.txt	LTP236	ltpFR2	0	15	SCOTCH	1251	n/a	n/a	0	0	0
3678.502	n/a	WORD	1839251	wordpools/wasnorm_wordpool_576.txt	LTP236	ltpFR2	0	15	PEDAL	1037	n/a	n/a	0	0	0
3681.088	n/a	WORD	1840544	wordpools/wasnorm_wordpool_576.txt	LTP236	ltpFR2	0	15	NAPKIN	937	n/a	n/a	0	0	0
3683.758	n/a	WORD	1841879	wordpools/wasnorm_wordpool_576.txt	LTP236	ltpFR2	0	15	SHOVEL	1295	n/a	n/a	0	0	0
3686.442	n/a	WORD	1843221	wordpools/wasnorm_wordpool_576.txt	LTP236	ltpFR2	0	15	TRENCH	1503	n/a	n/a	0	0	0
3689.012	n/a	WORD	1844506	wordpools/wasnorm_wordpool_576.txt	LTP236	ltpFR2	0	15	CLOTHES	327	n/a	n/a	0	0	0
3691.45	n/a	WORD	1845725	wordpools/wasnorm_wordpool_576.txt	LTP236	ltpFR2	0	15	DRIVER	499	n/a	n/a	0	0	0
3693.934	n/a	WORD	1846967	wordpools/wasnorm_wordpool_576.txt	LTP236	ltpFR2	0	15	FLASHLIGHT	575	n/a	n/a	0	0	0
3696.554	n/a	WORD	1848277	wordpools/wasnorm_wordpool_576.txt	LTP236	ltpFR2	0	15	TUNNEL	1519	n/a	n/a	0	0	0
3699.322	n/a	WORD	1849661	wordpools/wasnorm_wordpool_576.txt	LTP236	ltpFR2	0	15	MACHINE	852	n/a	n/a	0	0	0
3701.748	n/a	WORD	1850874	wordpools/wasnorm_wordpool_576.txt	LTP236	ltpFR2	0	15	ROBOT	1200	n/a	n/a	0	0	0
3704.376	n/a	WORD	1852188	wordpools/wasnorm_wordpool_576.txt	LTP236	ltpFR2	0	15	COIN	343	n/a	n/a	0	0	0
3707.114	n/a	WORD	1853557	wordpools/wasnorm_wordpool_576.txt	LTP236	ltpFR2	0	15	COD	340	n/a	n/a	0	0	0
3709.772	n/a	WORD	1854886	wordpools/wasnorm_wordpool_576.txt	LTP236	ltpFR2	0	15	DRINK	498	n/a	n/a	0	0	0
3712.302	n/a	WORD	1856151	wordpools/wasnorm_wordpool_576.txt	LTP236	ltpFR2	0	15	SLOPE	1328	n/a	n/a	0	0	0
3714.952	n/a	WORD	1857476	wordpools/wasnorm_wordpool_576.txt	LTP236	ltpFR2	0	15	CONTRACT	368	n/a	n/a	0	0	0
3716.562	n/a	START	1858281	n/a	LTP236	ltpFR2	0	n/a	n/a	n/a	24	n/a	n/a	n/a	n/a
3717.738	n/a	DISTRACTOR	1858869	n/a	LTP236	ltpFR2	0	15	n/a	n/a	n/a	n/a	0	0	0
3717.744	n/a	PROB	1858872	n/a	LTP236	ltpFR2	0	n/a	n/a	n/a	24	26	9	9	8
3720.48	n/a	PROB	1860240	n/a	LTP236	ltpFR2	0	n/a	n/a	n/a	24	16	9	2	5
3722.514	n/a	PROB	1861257	n/a	LTP236	ltpFR2	0	n/a	n/a	n/a	24	19	4	6	9
3724.066	n/a	PROB	1862033	n/a	LTP236	ltpFR2	0	n/a	n/a	n/a	24	23	5	8	8
3725.398	n/a	PROB	1862699	n/a	LTP236	ltpFR2	0	n/a	n/a	n/a	24	18	2	8	8
3726.618	n/a	PROB	1863309	n/a	LTP236	ltpFR2	0	n/a	n/a	n/a	24	12	1	2	9
3727.702	n/a	PROB	1863851	n/a	LTP236	ltpFR2	0	n/a	n/a	n/a	24	17	7	7	3
3729.402	n/a	PROB	1864701	n/a	LTP236	ltpFR2	0	n/a	n/a	n/a	24	15	4	7	4
3730.52	n/a	PROB	1865260	n/a	LTP236	ltpFR2	0	n/a	n/a	n/a	24	17	2	9	6
3731.79	n/a	PROB	1865895	n/a	LTP236	ltpFR2	0	n/a	n/a	n/a	24	10	1	6	3
3732.972	n/a	PROB	1866486	n/a	LTP236	ltpFR2	0	n/a	n/a	n/a	24	10	1	6	3
3733.99	n/a	PROB	1866995	n/a	LTP236	ltpFR2	0	n/a	n/a	n/a	24	20	7	4	9
3735.324	n/a	PROB	1867662	n/a	LTP236	ltpFR2	0	n/a	n/a	n/a	24	14	8	2	4
3740.562	n/a	STOP	1870281	n/a	LTP236	ltpFR2	0	n/a	n/a	n/a	24	n/a	n/a	n/a	n/a
3742.446	n/a	REC_START	1871223	n/a	LTP236	ltpFR2	0	15	n/a	n/a	n/a	n/a	0	0	0
3743.6	n/a	REC_WORD	1871800	wordpools/wasnorm_wordpool_576.txt	LTP236	ltpFR2	0	15	SCOTCH	1251	n/a	n/a	0	0	0
3744.84	n/a	REC_WORD	1872420	wordpools/wasnorm_wordpool_576.txt	LTP236	ltpFR2	0	15	DRINK	498	n/a	n/a	0	0	0
3745.642	n/a	REC_WORD	1872821	wordpools/wasnorm_wordpool_576.txt	LTP236	ltpFR2	0	15	CONTRACT	368	n/a	n/a	0	0	0
3746.642	n/a	REC_WORD_VV	1873321	wordpools/wasnorm_wordpool_576.txt	LTP236	ltpFR2	0	15	<>	-1	n/a	n/a	0	0	0
3748.822	n/a	REC_WORD	1874411	wordpools/wasnorm_wordpool_576.txt	LTP236	ltpFR2	0	15	UNCLE	1536	n/a	n/a	0	0	0
3749.422	n/a	REC_WORD	1874711	wordpools/wasnorm_wordpool_576.txt	LTP236	ltpFR2	0	15	HOSTESS	723	n/a	n/a	0	0	0
3750.422	n/a	REC_WORD_VV	1875211	wordpools/wasnorm_wordpool_576.txt	LTP236	ltpFR2	0	15	<>	-1	n/a	n/a	0	0	0
3754.634	n/a	REC_WORD	1877317	wordpools/wasnorm_wordpool_576.txt	LTP236	ltpFR2	0	15	TRENCH	1503	n/a	n/a	0	0	0
3757.49	n/a	REC_WORD	1878745	wordpools/wasnorm_wordpool_576.txt	LTP236	ltpFR2	0	15	MACHINE	852	n/a	n/a	0	0	0
3758.49	n/a	REC_WORD_VV	1879245	wordpools/wasnorm_wordpool_576.txt	LTP236	ltpFR2	0	15	<>	-1	n/a	n/a	0	0	0
3760.462	n/a	REC_WORD	1880231	wordpools/wasnorm_wordpool_576.txt	LTP236	ltpFR2	0	15	TUNNEL	1519	n/a	n/a	0	0	0
3761.266	n/a	REC_WORD	1880633	wordpools/wasnorm_wordpool_576.txt	LTP236	ltpFR2	0	15	ROBOT	1200	n/a	n/a	0	0	0
3832.902	n/a	DISTRACTOR	1916451	n/a	LTP236	ltpFR2	0	16	n/a	n/a	n/a	n/a	0	0	0
3832.902	n/a	START	1916451	n/a	LTP236	ltpFR2	0	n/a	n/a	n/a	25	n/a	n/a	n/a	n/a
3832.916	n/a	PROB	1916458	n/a	LTP236	ltpFR2	0	n/a	n/a	n/a	25	19	7	8	4
3835.402	n/a	PROB	1917701	n/a	LTP236	ltpFR2	0	n/a	n/a	n/a	25	18	9	6	3
3836.706	n/a	PROB	1918353	n/a	LTP236	ltpFR2	0	n/a	n/a	n/a	25	13	4	3	6
3837.87	n/a	PROB	1918935	n/a	LTP236	ltpFR2	0	n/a	n/a	n/a	25	10	1	1	8
3840.156	n/a	PROB	1920078	n/a	LTP236	ltpFR2	0	n/a	n/a	n/a	25	22	7	9	6
3842.308	n/a	PROB	1921154	n/a	LTP236	ltpFR2	0	n/a	n/a	n/a	25	9	2	6	1
3844.076	n/a	PROB	1922038	n/a	LTP236	ltpFR2	0	n/a	n/a	n/a	25	7	3	3	1
3845.226	n/a	PROB	1922613	n/a	LTP236	ltpFR2	0	n/a	n/a	n/a	25	12	4	6	2
3846.378	n/a	PROB	1923189	n/a	LTP236	ltpFR2	0	n/a	n/a	n/a	25	21	8	7	6
3848.762	n/a	PROB	1924381	n/a	LTP236	ltpFR2	0	n/a	n/a	n/a	25	17	8	5	4
3850.666	n/a	PROB	1925333	n/a	LTP236	ltpFR2	0	n/a	n/a	n/a	25	16	6	3	7
3852.198	n/a	PROB	1926099	n/a	LTP236	ltpFR2	0	n/a	n/a	n/a	25	3	1	1	1
3853.298	n/a	PROB	1926649	n/a	LTP236	ltpFR2	0	n/a	n/a	n/a	25	16	7	9	3
3856.902	n/a	STOP	1928451	n/a	LTP236	ltpFR2	0	n/a	n/a	n/a	25	n/a	n/a	n/a	n/a
3858.02	n/a	WORD	1929010	wordpools/wasnorm_wordpool_576.txt	LTP236	ltpFR2	0	16	BRANDY	169	n/a	n/a	0	0	0
3860.644	n/a	WORD	1930322	wordpools/wasnorm_wordpool_576.txt	LTP236	ltpFR2	0	16	SPOON	1357	n/a	n/a	0	0	0
3863.446	n/a	WORD	1931723	wordpools/wasnorm_wordpool_576.txt	LTP236	ltpFR2	0	16	PLAYGROUND	1087	n/a	n/a	0	0	0
3865.898	n/a	WORD	1932949	wordpools/wasnorm_wordpool_576.txt	LTP236	ltpFR2	0	16	SLIDE	1326	n/a	n/a	0	0	0
3868.482	n/a	WORD	1934241	wordpools/wasnorm_wordpool_576.txt	LTP236	ltpFR2	0	16	PADDLE	1000	n/a	n/a	0	0	0
3871.018	n/a	WORD	1935509	wordpools/wasnorm_wordpool_576.txt	LTP236	ltpFR2	0	16	YACHT	1629	n/a	n/a	0	0	0
3873.688	n/a	WORD	1936844	wordpools/wasnorm_wordpool_576.txt	LTP236	ltpFR2	0	16	WAGON	1578	n/a	n/a	0	0	0
3876.502	n/a	WORD	1938251	wordpools/wasnorm_wordpool_576.txt	LTP236	ltpFR2	0	16	POLICE	1098	n/a	n/a	0	0	0
3878.97	n/a	WORD	1939485	wordpools/wasnorm_wordpool_576.txt	LTP236	ltpFR2	0	16	TUTU	1524	n/a	n/a	0	0	0
3881.778	n/a	WORD	1940889	wordpools/wasnorm_wordpool_576.txt	LTP236	ltpFR2	0	16	CAPTIVE	240	n/a	n/a	0	0	0
3884.574	n/a	WORD	1942287	wordpools/wasnorm_wordpool_576.txt	LTP236	ltpFR2	0	16	GYMNAST	675	n/a	n/a	0	0	0
3887.26	n/a	WORD	1943630	wordpools/wasnorm_wordpool_576.txt	LTP236	ltpFR2	0	16	COUNTY	389	n/a	n/a	0	0	0
3890.046	n/a	WORD	1945023	wordpools/wasnorm_wordpool_576.txt	LTP236	ltpFR2	0	16	QUAIL	1147	n/a	n/a	0	0	0
3892.748	n/a	WORD	1946374	wordpools/wasnorm_wordpool_576.txt	LTP236	ltpFR2	0	16	PIMPLE	1071	n/a	n/a	0	0	0
3895.35	n/a	WORD	1947675	wordpools/wasnorm_wordpool_576.txt	LTP236	ltpFR2	0	16	CRATER	400	n/a	n/a	0	0	0
3897.808	n/a	WORD	1948904	wordpools/wasnorm_wordpool_576.txt	LTP236	ltpFR2	0	16	BLUEPRINT	142	n/a	n/a	0	0	0
3900.378	n/a	WORD	1950189	wordpools/wasnorm_wordpool_576.txt	LTP236	ltpFR2	0	16	ITEM	746	n/a	n/a	0	0	0
3903.172	n/a	WORD	1951586	wordpools/wasnorm_wordpool_576.txt	LTP236	ltpFR2	0	16	JELLY	755	n/a	n/a	0	0	0
3905.758	n/a	WORD	1952879	wordpools/wasnorm_wordpool_576.txt	LTP236	ltpFR2	0	16	CRAB	397	n/a	n/a	0	0	0
3908.318	n/a	WORD	1954159	wordpools/wasnorm_wordpool_576.txt	LTP236	ltpFR2	0	16	LADDER	793	n/a	n/a	0	0	0
3910.796	n/a	WORD	1955398	wordpools/wasnorm_wordpool_576.txt	LTP236	ltpFR2	0	16	RACKET	1155	n/a	n/a	0	0	0
3913.246	n/a	WORD	1956623	wordpools/wasnorm_wordpool_576.txt	LTP236	ltpFR2	0	16	VALLEY	1545	n/a	n/a	0	0	0
3915.84	n/a	WORD	1957920	wordpools/wasnorm_wordpool_576.txt	LTP236	ltpFR2	0	16	GUARD	667	n/a	n/a	0	0	0
3918.576	n/a	WORD	1959288	wordpools/wasnorm_wordpool_576.txt	LTP236	ltpFR2	0	16	BLADE	134	n/a	n/a	0	0	0
3920.186	n/a	START	1960093	n/a	LTP236	ltpFR2	0	n/a	n/a	n/a	26	n/a	n/a	n/a	n/a
3921.054	n/a	DISTRACTOR	1960527	n/a	LTP236	ltpFR2	0	16	n/a	n/a	n/a	n/a	0	0	0
3921.06	n/a	PROB	1960530	n/a	LTP236	ltpFR2	0	n/a	n/a	n/a	26	21	7	9	5
3923.572	n/a	PROB	1961786	n/a	LTP236	ltpFR2	0	n/a	n/a	n/a	26	23	9	7	7
3927.156	n/a	PROB	1963578	n/a	LTP236	ltpFR2	0	n/a	n/a	n/a	26	14	3	7	4
3928.51	n/a	PROB	1964255	n/a	LTP236	ltpFR2	0	n/a	n/a	n/a	26	16	1	7	8
3929.66	n/a	PROB	1964830	n/a	LTP236	ltpFR2	0	n/a	n/a	n/a	26	15	6	3	6
3931.31	n/a	PROB	1965655	n/a	LTP236	ltpFR2	0	n/a	n/a	n/a	26	25	8	8	9
3933.844	n/a	PROB	1966922	n/a	LTP236	ltpFR2	0	n/a	n/a	n/a	26	15	7	7	4
3935.196	n/a	PROB	1967598	n/a	LTP236	ltpFR2	0	n/a	n/a	n/a	26	13	3	4	6
3936.582	n/a	PROB	1968291	n/a	LTP236	ltpFR2	0	n/a	n/a	n/a	26	19	9	6	4
3937.732	n/a	PROB	1968866	n/a	LTP236	ltpFR2	0	n/a	n/a	n/a	26	10	2	5	3
3939.5	n/a	PROB	1969750	n/a	LTP236	ltpFR2	0	n/a	n/a	n/a	26	25	8	9	8
3941.368	n/a	PROB	1970684	n/a	LTP236	ltpFR2	0	n/a	n/a	n/a	26	13	7	5	1
3944.188	n/a	STOP	1972094	n/a	LTP236	ltpFR2	0	n/a	n/a	n/a	26	n/a	n/a	n/a	n/a
3945.956	n/a	REC_START	1972978	n/a	LTP236	ltpFR2	0	16	n/a	n/a	n/a	n/a	0	0	0
3948.306	n/a	REC_WORD	1974153	wordpools/wasnorm_wordpool_576.txt	LTP236	ltpFR2	0	16	YACHT	1629	n/a	n/a	0	0	0
3949.346	n/a	REC_WORD	1974673	wordpools/wasnorm_wordpool_576.txt	LTP236	ltpFR2	0	16	GYMNAST	675	n/a	n/a	0	0	0
3950.666	n/a	REC_WORD	1975333	wordpools/wasnorm_wordpool_576.txt	LTP236	ltpFR2	0	16	LADDER	793	n/a	n/a	0	0	0
3956.726	n/a	REC_WORD	1978363	wordpools/wasnorm_wordpool_576.txt	LTP236	ltpFR2	0	16	JELLY	755	n/a	n/a	0	0	0
3958.484	n/a	REC_WORD	1979242	wordpools/wasnorm_wordpool_576.txt	LTP236	ltpFR2	0	16	CRAB	397	n/a	n/a	0	0	0
3962.216	n/a	REC_WORD	1981108	wordpools/wasnorm_wordpool_576.txt	LTP236	ltpFR2	0	16	PARADE	-1	n/a	n/a	0	0	0
3964.426	n/a	REC_WORD	1982213	wordpools/wasnorm_wordpool_576.txt	LTP236	ltpFR2	0	16	PLAYGROUND	1087	n/a	n/a	0	0	0
3965.32	n/a	REC_WORD	1982660	wordpools/wasnorm_wordpool_576.txt	LTP236	ltpFR2	0	16	SLIDE	1326	n/a	n/a	0	0	0
3966.418	n/a	REC_WORD	1983209	wordpools/wasnorm_wordpool_576.txt	LTP236	ltpFR2	0	16	BLADE	134	n/a	n/a	0	0	0
3967.236	n/a	REC_WORD	1983618	wordpools/wasnorm_wordpool_576.txt	LTP236	ltpFR2	0	16	GUARD	667	n/a	n/a	0	0	0
3967.992	n/a	REC_WORD	1983996	wordpools/wasnorm_wordpool_576.txt	LTP236	ltpFR2	0	16	POLICE	1098	n/a	n/a	0	0	0
3970.836	n/a	REC_WORD	1985418	wordpools/wasnorm_wordpool_576.txt	LTP236	ltpFR2	0	16	PADDLE	1000	n/a	n/a	0	0	0
3974.922	n/a	REC_WORD	1987461	wordpools/wasnorm_wordpool_576.txt	LTP236	ltpFR2	0	16	CAPTIVE	240	n/a	n/a	0	0	0
3976.94	n/a	REC_WORD	1988470	wordpools/wasnorm_wordpool_576.txt	LTP236	ltpFR2	0	16	TUTU	1524	n/a	n/a	0	0	0
3982.776	n/a	REC_WORD	1991388	wordpools/wasnorm_wordpool_576.txt	LTP236	ltpFR2	0	16	WAGON	1578	n/a	n/a	0	0	0
3987.642	n/a	REC_WORD	1993821	wordpools/wasnorm_wordpool_576.txt	LTP236	ltpFR2	0	16	SPOON	1357	n/a	n/a	0	0	0
3989.568	n/a	REC_WORD	1994784	wordpools/wasnorm_wordpool_576.txt	LTP236	ltpFR2	0	16	BRANDY	169	n/a	n/a	0	0	0
4022.498	n/a	REST_REWET	2011249	n/a	LTP236	ltpFR2	0	16	n/a	n/a	n/a	n/a	0	0	0
4313.376	n/a	WORD	2156688	wordpools/wasnorm_wordpool_576.txt	LTP236	ltpFR2	0	17	CANAL	226	n/a	n/a	0	0	0
4315.912	n/a	WORD	2157956	wordpools/wasnorm_wordpool_576.txt	LTP236	ltpFR2	0	17	ISLAND	745	n/a	n/a	0	0	0
4318.68	n/a	WORD	2159340	wordpools/wasnorm_wordpool_576.txt	LTP236	ltpFR2	0	17	WIDOW	1608	n/a	n/a	0	0	0
4321.484	n/a	WORD	2160742	wordpools/wasnorm_wordpool_576.txt	LTP236	ltpFR2	0	17	QUARTER	1148	n/a	n/a	0	0	0
4324.22	n/a	WORD	2162110	wordpools/wasnorm_wordpool_576.txt	LTP236	ltpFR2	0	17	VAGRANT	1544	n/a	n/a	0	0	0
4326.786	n/a	WORD	2163393	wordpools/wasnorm_wordpool_576.txt	LTP236	ltpFR2	0	17	STREAM	1392	n/a	n/a	0	0	0
4329.556	n/a	WORD	2164778	wordpools/wasnorm_wordpool_576.txt	LTP236	ltpFR2	0	17	LUGGAGE	847	n/a	n/a	0	0	0
4332.274	n/a	WORD	2166137	wordpools/wasnorm_wordpool_576.txt	LTP236	ltpFR2	0	17	THIEF	1456	n/a	n/a	0	0	0
4334.696	n/a	WORD	2167348	wordpools/wasnorm_wordpool_576.txt	LTP236	ltpFR2	0	17	MARROW	872	n/a	n/a	0	0	0
4337.128	n/a	WORD	2168564	wordpools/wasnorm_wordpool_576.txt	LTP236	ltpFR2	0	17	HOOK	715	n/a	n/a	0	0	0
4339.834	n/a	WORD	2169917	wordpools/wasnorm_wordpool_576.txt	LTP236	ltpFR2	0	17	SUITCASE	1403	n/a	n/a	0	0	0
4342.316	n/a	WORD	2171158	wordpools/wasnorm_wordpool_576.txt	LTP236	ltpFR2	0	17	SERVER	1272	n/a	n/a	0	0	0
4345.034	n/a	WORD	2172517	wordpools/wasnorm_wordpool_576.txt	LTP236	ltpFR2	0	17	CUSTARD	429	n/a	n/a	0	0	0
4347.82	n/a	WORD	2173910	wordpools/wasnorm_wordpool_576.txt	LTP236	ltpFR2	0	17	SURVEY	1414	n/a	n/a	0	0	0
4350.36	n/a	WORD	2175180	wordpools/wasnorm_wordpool_576.txt	LTP236	ltpFR2	0	17	FOREHEAD	592	n/a	n/a	0	0	0
4353.124	n/a	WORD	2176562	wordpools/wasnorm_wordpool_576.txt	LTP236	ltpFR2	0	17	HUMAN	726	n/a	n/a	0	0	0
4355.848	n/a	WORD	2177924	wordpools/wasnorm_wordpool_576.txt	LTP236	ltpFR2	0	17	SPOUSE	1358	n/a	n/a	0	0	0
4358.332	n/a	WORD	2179166	wordpools/wasnorm_wordpool_576.txt	LTP236	ltpFR2	0	17	PARTNER	1017	n/a	n/a	0	0	0
4360.864	n/a	WORD	2180432	wordpools/wasnorm_wordpool_576.txt	LTP236	ltpFR2	0	17	CANYON	235	n/a	n/a	0	0	0
4363.336	n/a	WORD	2181668	wordpools/wasnorm_wordpool_576.txt	LTP236	ltpFR2	0	17	CLIMBER	323	n/a	n/a	0	0	0
4365.834	n/a	WORD	2182917	wordpools/wasnorm_wordpool_576.txt	LTP236	ltpFR2	0	17	RUG	1215	n/a	n/a	0	0	0
4368.52	n/a	WORD	2184260	wordpools/wasnorm_wordpool_576.txt	LTP236	ltpFR2	0	17	DINER	467	n/a	n/a	0	0	0
