onset	duration	trial_type	sample	stim_file	subject	experiment	session	trial	task	item_name	item_num	recog_resp	recog_conf	resp	answer	test_x	test_y	test_z	color_r	color_g	color_b	case	font
215.092	n/a	SESS_START	107546	n/a	LTP086	ltpFR	11	n/a	n/a	n/a	n/a	1	1	n/a	n/a	0	0	0	n/a	n/a	n/a	n/a	n/a
238.27	n/a	START	119135	n/a	LTP086	ltpFR	11	n/a	n/a	n/a	n/a	n/a	n/a	n/a	n/a	n/a	n/a	n/a	n/a	n/a	n/a	n/a	n/a
238.296	n/a	PROB	119148	n/a	LTP086	ltpFR	11	n/a	n/a	n/a	n/a	n/a	n/a	n/a	18	6	6	6	n/a	n/a	n/a	n/a	n/a
240.07	n/a	PROB	120035	n/a	LTP086	ltpFR	11	n/a	n/a	n/a	n/a	n/a	n/a	n/a	15	4	4	7	n/a	n/a	n/a	n/a	n/a
244.52	n/a	PROB	122260	n/a	LTP086	ltpFR	11	n/a	n/a	n/a	n/a	n/a	n/a	n/a	9	2	3	4	n/a	n/a	n/a	n/a	n/a
246.794	n/a	PROB	123397	n/a	LTP086	ltpFR	11	n/a	n/a	n/a	n/a	n/a	n/a	n/a	13	8	2	3	n/a	n/a	n/a	n/a	n/a
248.686	n/a	PROB	124343	n/a	LTP086	ltpFR	11	n/a	n/a	n/a	n/a	n/a	n/a	n/a	5	3	1	1	n/a	n/a	n/a	n/a	n/a
250.186	n/a	PROB	125093	n/a	LTP086	ltpFR	11	n/a	n/a	n/a	n/a	n/a	n/a	n/a	19	8	6	5	n/a	n/a	n/a	n/a	n/a
252.976	n/a	PROB	126488	n/a	LTP086	ltpFR	11	n/a	n/a	n/a	n/a	n/a	n/a	n/a	6	1	1	4	n/a	n/a	n/a	n/a	n/a
254.71	n/a	PROB	127355	n/a	LTP086	ltpFR	11	n/a	n/a	n/a	n/a	n/a	n/a	n/a	18	7	4	7	n/a	n/a	n/a	n/a	n/a
258.27	n/a	STOP	129135	n/a	LTP086	ltpFR	11	n/a	n/a	n/a	n/a	n/a	n/a	n/a	n/a	n/a	n/a	n/a	n/a	n/a	n/a	n/a	n/a
303.034	n/a	WORD	151517	wordpools/wasnorm_wordpool.txt	LTP086	ltpFR	11	1	1	JUG	762	1	1	0	n/a	0	0	0	0.57763671875	0.412841796875	1	lower	zerothre.ttf
307.034	n/a	WORD	153517	wordpools/wasnorm_wordpool.txt	LTP086	ltpFR	11	1	1	WIDOW	1608	1	n/a	0	n/a	0	0	0	0.57763671875	0.412841796875	1	lower	zerothre.ttf
311.11	n/a	WORD	155555	wordpools/wasnorm_wordpool.txt	LTP086	ltpFR	11	1	1	MAN	862	n/a	n/a	0	n/a	0	0	0	0.57763671875	0.412841796875	1	lower	zerothre.ttf
315.024	n/a	WORD	157512	wordpools/wasnorm_wordpool.txt	LTP086	ltpFR	11	1	1	DAD	433	n/a	n/a	1	n/a	0	0	0	0.57763671875	0.412841796875	1	lower	zerothre.ttf
318.884	n/a	WORD	159442	wordpools/wasnorm_wordpool.txt	LTP086	ltpFR	11	1	1	PATROL	1027	n/a	n/a	0	n/a	0	0	0	0.57763671875	0.412841796875	1	lower	zerothre.ttf
322.876	n/a	WORD	161438	wordpools/wasnorm_wordpool.txt	LTP086	ltpFR	11	1	1	GUITAR	670	n/a	n/a	1	n/a	0	0	0	0.57763671875	0.412841796875	1	lower	zerothre.ttf
326.884	n/a	WORD	163442	wordpools/wasnorm_wordpool.txt	LTP086	ltpFR	11	1	1	PIANO	1057	n/a	n/a	0	n/a	0	0	0	0.57763671875	0.412841796875	1	lower	zerothre.ttf
330.858	n/a	WORD	165429	wordpools/wasnorm_wordpool.txt	LTP086	ltpFR	11	1	1	CREATURE	403	n/a	n/a	1	n/a	0	0	0	0.57763671875	0.412841796875	1	lower	zerothre.ttf
334.892	n/a	WORD	167446	wordpools/wasnorm_wordpool.txt	LTP086	ltpFR	11	1	1	BAY	102	n/a	n/a	0	n/a	0	0	0	0.57763671875	0.412841796875	1	lower	zerothre.ttf
338.942	n/a	WORD	169471	wordpools/wasnorm_wordpool.txt	LTP086	ltpFR	11	1	1	SEAGULL	1261	n/a	n/a	1	n/a	0	0	0	0.57763671875	0.412841796875	1	lower	zerothre.ttf
343.084	n/a	WORD	171542	wordpools/wasnorm_wordpool.txt	LTP086	ltpFR	11	1	1	PEPPER	1047	n/a	n/a	0	n/a	0	0	0	0.57763671875	0.412841796875	1	lower	zerothre.ttf
347.292	n/a	WORD	173646	wordpools/wasnorm_wordpool.txt	LTP086	ltpFR	11	1	1	CUBE	420	n/a	n/a	0	n/a	0	0	0	0.57763671875	0.412841796875	1	lower	zerothre.ttf
351.408	n/a	WORD	175704	wordpools/wasnorm_wordpool.txt	LTP086	ltpFR	11	1	1	BUFFALO	186	n/a	n/a	1	n/a	0	0	0	0.57763671875	0.412841796875	1	lower	zerothre.ttf
355.476	n/a	WORD	177738	wordpools/wasnorm_wordpool.txt	LTP086	ltpFR	11	1	1	HUT	729	n/a	n/a	0	n/a	0	0	0	0.57763671875	0.412841796875	1	lower	zerothre.ttf
359.466	n/a	WORD	179733	wordpools/wasnorm_wordpool.txt	LTP086	ltpFR	11	1	1	APARTMENT	30	n/a	n/a	0	n/a	0	0	0	0.57763671875	0.412841796875	1	lower	zerothre.ttf
363.574	n/a	WORD	181787	wordpools/wasnorm_wordpool.txt	LTP086	ltpFR	11	1	1	RADIATOR	1156	n/a	n/a	0	n/a	0	0	0	0.57763671875	0.412841796875	1	lower	zerothre.ttf
366.574	n/a	START	183287	n/a	LTP086	ltpFR	11	n/a	n/a	n/a	n/a	n/a	n/a	n/a	n/a	n/a	n/a	n/a	n/a	n/a	n/a	n/a	n/a
367.482	n/a	PROB	183741	n/a	LTP086	ltpFR	11	n/a	n/a	n/a	n/a	n/a	n/a	n/a	12	7	1	4	n/a	n/a	n/a	n/a	n/a
374.574	n/a	STOP	187287	n/a	LTP086	ltpFR	11	n/a	n/a	n/a	n/a	n/a	n/a	n/a	n/a	n/a	n/a	n/a	n/a	n/a	n/a	n/a	n/a
376.4	n/a	REC_START	188200	n/a	LTP086	ltpFR	11	1	n/a	n/a	n/a	n/a	n/a	n/a	n/a	0	0	0	n/a	n/a	n/a	n/a	n/a
377.164	n/a	REC_WORD	188582	wordpools/wasnorm_wordpool.txt	LTP086	ltpFR	11	1	1	APARTMENT	30	n/a	n/a	0	n/a	0	0	0	n/a	n/a	n/a	n/a	n/a
378.132	n/a	REC_WORD	189066	wordpools/wasnorm_wordpool.txt	LTP086	ltpFR	11	1	1	RADIATOR	1156	n/a	n/a	0	n/a	0	0	0	n/a	n/a	n/a	n/a	n/a
379.228	n/a	REC_WORD	189614	wordpools/wasnorm_wordpool.txt	LTP086	ltpFR	11	1	1	PEPPER	1047	n/a	n/a	0	n/a	0	0	0	n/a	n/a	n/a	n/a	n/a
380.06	n/a	REC_WORD	190030	wordpools/wasnorm_wordpool.txt	LTP086	ltpFR	11	1	1	CUBE	420	n/a	n/a	0	n/a	0	0	0	n/a	n/a	n/a	n/a	n/a
381.26	n/a	REC_WORD	190630	wordpools/wasnorm_wordpool.txt	LTP086	ltpFR	11	1	1	BAY	102	n/a	n/a	0	n/a	0	0	0	n/a	n/a	n/a	n/a	n/a
382.012	n/a	REC_WORD	191006	wordpools/wasnorm_wordpool.txt	LTP086	ltpFR	11	1	1	SEAGULL	1261	n/a	n/a	1	n/a	0	0	0	n/a	n/a	n/a	n/a	n/a
383.11	n/a	REC_WORD	191555	wordpools/wasnorm_wordpool.txt	LTP086	ltpFR	11	1	1	CREATURE	403	n/a	n/a	1	n/a	0	0	0	n/a	n/a	n/a	n/a	n/a
384.082	n/a	REC_WORD	192041	wordpools/wasnorm_wordpool.txt	LTP086	ltpFR	11	1	1	GUITAR	670	n/a	n/a	1	n/a	0	0	0	n/a	n/a	n/a	n/a	n/a
385.09	n/a	REC_WORD	192545	wordpools/wasnorm_wordpool.txt	LTP086	ltpFR	11	1	1	PIANO	1057	n/a	n/a	0	n/a	0	0	0	n/a	n/a	n/a	n/a	n/a
388.184	n/a	REC_WORD	194092	wordpools/wasnorm_wordpool.txt	LTP086	ltpFR	11	1	1	MAN	862	n/a	n/a	0	n/a	0	0	0	n/a	n/a	n/a	n/a	n/a
389.376	n/a	REC_WORD	194688	wordpools/wasnorm_wordpool.txt	LTP086	ltpFR	11	1	1	DAD	433	n/a	n/a	1	n/a	0	0	0	n/a	n/a	n/a	n/a	n/a
391.096	n/a	REC_WORD	195548	wordpools/wasnorm_wordpool.txt	LTP086	ltpFR	11	1	1	PATROL	1027	n/a	n/a	0	n/a	0	0	0	n/a	n/a	n/a	n/a	n/a
393.278	n/a	REC_WORD	196639	wordpools/wasnorm_wordpool.txt	LTP086	ltpFR	11	1	1	WIDOW	1608	n/a	n/a	0	n/a	0	0	0	n/a	n/a	n/a	n/a	n/a
395.562	n/a	REC_WORD	197781	wordpools/wasnorm_wordpool.txt	LTP086	ltpFR	11	1	1	WIDOW	1608	n/a	n/a	0	n/a	0	0	0	n/a	n/a	n/a	n/a	n/a
397.104	n/a	REC_WORD_VV	198552	wordpools/wasnorm_wordpool.txt	LTP086	ltpFR	11	1	n/a	<>	-1	n/a	n/a	n/a	n/a	0	0	0	n/a	n/a	n/a	n/a	n/a
423.446	n/a	REC_WORD	211723	wordpools/wasnorm_wordpool.txt	LTP086	ltpFR	11	1	1	JUG	762	n/a	n/a	0	n/a	0	0	0	n/a	n/a	n/a	n/a	n/a
478.256	n/a	START	239128	n/a	LTP086	ltpFR	11	n/a	n/a	n/a	n/a	n/a	n/a	n/a	n/a	n/a	n/a	n/a	n/a	n/a	n/a	n/a	n/a
479.764	n/a	PROB	239882	n/a	LTP086	ltpFR	11	n/a	n/a	n/a	n/a	n/a	n/a	n/a	25	9	9	7	n/a	n/a	n/a	n/a	n/a
485.332	n/a	STOP	242666	n/a	LTP086	ltpFR	11	n/a	n/a	n/a	n/a	n/a	n/a	n/a	n/a	n/a	n/a	n/a	n/a	n/a	n/a	n/a	n/a
487.238	n/a	WORD	243619	wordpools/wasnorm_wordpool.txt	LTP086	ltpFR	11	2	0	FEMALE	559	n/a	n/a	0	n/a	0	0	0	0.422607421875	0.5869140625	0	upper	amplitud.ttf
490.246	n/a	START	245123	n/a	LTP086	ltpFR	11	n/a	n/a	n/a	n/a	n/a	n/a	n/a	n/a	n/a	n/a	n/a	n/a	n/a	n/a	n/a	n/a
491.18	n/a	PROB	245590	n/a	LTP086	ltpFR	11	n/a	n/a	n/a	n/a	n/a	n/a	n/a	10	1	8	1	n/a	n/a	n/a	n/a	n/a
493.422	n/a	PROB	246711	n/a	LTP086	ltpFR	11	n/a	n/a	n/a	n/a	n/a	n/a	n/a	12	7	4	1	n/a	n/a	n/a	n/a	n/a
498.044	n/a	STOP	249022	n/a	LTP086	ltpFR	11	n/a	n/a	n/a	n/a	n/a	n/a	n/a	n/a	n/a	n/a	n/a	n/a	n/a	n/a	n/a	n/a
499.356	n/a	WORD	249678	wordpools/wasnorm_wordpool.txt	LTP086	ltpFR	11	2	0	DINER	467	n/a	n/a	0	n/a	0	0	0	0.422607421875	0.5869140625	0	upper	amplitud.ttf
502.364	n/a	START	251182	n/a	LTP086	ltpFR	11	n/a	n/a	n/a	n/a	n/a	n/a	n/a	n/a	n/a	n/a	n/a	n/a	n/a	n/a	n/a	n/a
503.364	n/a	PROB	251682	n/a	LTP086	ltpFR	11	n/a	n/a	n/a	n/a	n/a	n/a	n/a	21	6	9	6	n/a	n/a	n/a	n/a	n/a
506.472	n/a	PROB	253236	n/a	LTP086	ltpFR	11	n/a	n/a	n/a	n/a	n/a	n/a	n/a	12	2	9	1	n/a	n/a	n/a	n/a	n/a
509.758	n/a	STOP	254879	n/a	LTP086	ltpFR	11	n/a	n/a	n/a	n/a	n/a	n/a	n/a	n/a	n/a	n/a	n/a	n/a	n/a	n/a	n/a	n/a
511.37	n/a	WORD	255685	wordpools/wasnorm_wordpool.txt	LTP086	ltpFR	11	2	0	BALLERINA	74	n/a	n/a	1	n/a	0	0	0	0.422607421875	0.5869140625	0	upper	amplitud.ttf
514.38	n/a	START	257190	n/a	LTP086	ltpFR	11	n/a	n/a	n/a	n/a	n/a	n/a	n/a	n/a	n/a	n/a	n/a	n/a	n/a	n/a	n/a	n/a
515.23	n/a	PROB	257615	n/a	LTP086	ltpFR	11	n/a	n/a	n/a	n/a	n/a	n/a	n/a	16	9	1	6	n/a	n/a	n/a	n/a	n/a
516.422	n/a	PROB	258211	n/a	LTP086	ltpFR	11	n/a	n/a	n/a	n/a	n/a	n/a	n/a	10	2	1	7	n/a	n/a	n/a	n/a	n/a
517.912	n/a	PROB	258956	n/a	LTP086	ltpFR	11	n/a	n/a	n/a	n/a	n/a	n/a	n/a	21	9	3	9	n/a	n/a	n/a	n/a	n/a
522.38	n/a	STOP	261190	n/a	LTP086	ltpFR	11	n/a	n/a	n/a	n/a	n/a	n/a	n/a	n/a	n/a	n/a	n/a	n/a	n/a	n/a	n/a	n/a
523.396	n/a	WORD	261698	wordpools/wasnorm_wordpool.txt	LTP086	ltpFR	11	2	0	SCREW	1254	n/a	n/a	0	n/a	0	0	0	0.422607421875	0.5869140625	0	upper	amplitud.ttf
526.396	n/a	START	263198	n/a	LTP086	ltpFR	11	n/a	n/a	n/a	n/a	n/a	n/a	n/a	n/a	n/a	n/a	n/a	n/a	n/a	n/a	n/a	n/a
527.496	n/a	PROB	263748	n/a	LTP086	ltpFR	11	n/a	n/a	n/a	n/a	n/a	n/a	n/a	15	1	8	6	n/a	n/a	n/a	n/a	n/a
534.396	n/a	STOP	267198	n/a	LTP086	ltpFR	11	n/a	n/a	n/a	n/a	n/a	n/a	n/a	n/a	n/a	n/a	n/a	n/a	n/a	n/a	n/a	n/a
535.496	n/a	WORD	267748	wordpools/wasnorm_wordpool.txt	LTP086	ltpFR	11	2	1	SALOON	1228	n/a	n/a	2	n/a	0	0	0	0.57763671875	0.412841796875	1	lower	zerothre.ttf
535.962	n/a	KEY_MSG	267981	n/a	LTP086	ltpFR	11	2	n/a	n/a	n/a	n/a	n/a	n/a	n/a	0	0	0	n/a	n/a	n/a	n/a	n/a
538.496	n/a	START	269248	n/a	LTP086	ltpFR	11	n/a	n/a	n/a	n/a	n/a	n/a	n/a	n/a	n/a	n/a	n/a	n/a	n/a	n/a	n/a	n/a
539.47	n/a	PROB	269735	n/a	LTP086	ltpFR	11	n/a	n/a	n/a	n/a	n/a	n/a	n/a	13	8	2	3	n/a	n/a	n/a	n/a	n/a
540.646	n/a	PROB	270323	n/a	LTP086	ltpFR	11	n/a	n/a	n/a	n/a	n/a	n/a	n/a	16	2	5	9	n/a	n/a	n/a	n/a	n/a
546.496	n/a	STOP	273248	n/a	LTP086	ltpFR	11	n/a	n/a	n/a	n/a	n/a	n/a	n/a	n/a	n/a	n/a	n/a	n/a	n/a	n/a	n/a	n/a
547.486	n/a	WORD	273743	wordpools/wasnorm_wordpool.txt	LTP086	ltpFR	11	2	1	TABLE	1426	n/a	n/a	0	n/a	0	0	0	0.57763671875	0.412841796875	1	lower	zerothre.ttf
550.496	n/a	START	275248	n/a	LTP086	ltpFR	11	n/a	n/a	n/a	n/a	n/a	n/a	n/a	n/a	n/a	n/a	n/a	n/a	n/a	n/a	n/a	n/a
551.328	n/a	PROB	275664	n/a	LTP086	ltpFR	11	n/a	n/a	n/a	n/a	n/a	n/a	n/a	11	7	2	2	n/a	n/a	n/a	n/a	n/a
558.496	n/a	STOP	279248	n/a	LTP086	ltpFR	11	n/a	n/a	n/a	n/a	n/a	n/a	n/a	n/a	n/a	n/a	n/a	n/a	n/a	n/a	n/a	n/a
559.696	n/a	WORD	279848	wordpools/wasnorm_wordpool.txt	LTP086	ltpFR	11	2	1	PATIO	1025	n/a	n/a	0	n/a	0	0	0	0.57763671875	0.412841796875	1	lower	zerothre.ttf
562.704	n/a	START	281352	n/a	LTP086	ltpFR	11	n/a	n/a	n/a	n/a	n/a	n/a	n/a	n/a	n/a	n/a	n/a	n/a	n/a	n/a	n/a	n/a
563.694	n/a	PROB	281847	n/a	LTP086	ltpFR	11	n/a	n/a	n/a	n/a	n/a	n/a	n/a	15	9	3	3	n/a	n/a	n/a	n/a	n/a
570.704	n/a	STOP	285352	n/a	LTP086	ltpFR	11	n/a	n/a	n/a	n/a	n/a	n/a	n/a	n/a	n/a	n/a	n/a	n/a	n/a	n/a	n/a	n/a
571.678	n/a	WORD	285839	wordpools/wasnorm_wordpool.txt	LTP086	ltpFR	11	2	1	BALLOON	75	n/a	n/a	0	n/a	0	0	0	0.57763671875	0.412841796875	1	lower	zerothre.ttf
574.688	n/a	START	287344	n/a	LTP086	ltpFR	11	n/a	n/a	n/a	n/a	n/a	n/a	n/a	n/a	n/a	n/a	n/a	n/a	n/a	n/a	n/a	n/a
575.678	n/a	PROB	287839	n/a	LTP086	ltpFR	11	n/a	n/a	n/a	n/a	n/a	n/a	n/a	16	7	6	3	n/a	n/a	n/a	n/a	n/a
579.036	n/a	PROB	289518	n/a	LTP086	ltpFR	11	n/a	n/a	n/a	n/a	n/a	n/a	n/a	17	6	7	4	n/a	n/a	n/a	n/a	n/a
580.378	n/a	PROB	290189	n/a	LTP086	ltpFR	11	n/a	n/a	n/a	n/a	n/a	n/a	n/a	12	5	5	2	n/a	n/a	n/a	n/a	n/a
581.378	n/a	STOP	290689	n/a	LTP086	ltpFR	11	n/a	n/a	n/a	n/a	n/a	n/a	n/a	n/a	n/a	n/a	n/a	n/a	n/a	n/a	n/a	n/a
583.536	n/a	WORD	291768	wordpools/wasnorm_wordpool.txt	LTP086	ltpFR	11	2	0	FEAST	556	n/a	n/a	2	n/a	0	0	0	0.422607421875	0.5869140625	0	upper	amplitud.ttf
583.844	n/a	KEY_MSG	291922	n/a	LTP086	ltpFR	11	2	n/a	n/a	n/a	n/a	n/a	n/a	n/a	0	0	0	n/a	n/a	n/a	n/a	n/a
586.544	n/a	START	293272	n/a	LTP086	ltpFR	11	n/a	n/a	n/a	n/a	n/a	n/a	n/a	n/a	n/a	n/a	n/a	n/a	n/a	n/a	n/a	n/a
587.66	n/a	PROB	293830	n/a	LTP086	ltpFR	11	n/a	n/a	n/a	n/a	n/a	n/a	n/a	73	4	4	5	n/a	n/a	n/a	n/a	n/a
594.546	n/a	STOP	297273	n/a	LTP086	ltpFR	11	n/a	n/a	n/a	n/a	n/a	n/a	n/a	n/a	n/a	n/a	n/a	n/a	n/a	n/a	n/a	n/a
595.486	n/a	WORD	297743	wordpools/wasnorm_wordpool.txt	LTP086	ltpFR	11	2	0	COOLER	375	n/a	n/a	0	n/a	0	0	0	0.422607421875	0.5869140625	0	upper	amplitud.ttf
598.494	n/a	START	299247	n/a	LTP086	ltpFR	11	n/a	n/a	n/a	n/a	n/a	n/a	n/a	n/a	n/a	n/a	n/a	n/a	n/a	n/a	n/a	n/a
599.378	n/a	PROB	299689	n/a	LTP086	ltpFR	11	n/a	n/a	n/a	n/a	n/a	n/a	n/a	5	1	2	2	n/a	n/a	n/a	n/a	n/a
601.026	n/a	PROB	300513	n/a	LTP086	ltpFR	11	n/a	n/a	n/a	n/a	n/a	n/a	n/a	9	1	1	7	n/a	n/a	n/a	n/a	n/a
602.828	n/a	PROB	301414	n/a	LTP086	ltpFR	11	n/a	n/a	n/a	n/a	n/a	n/a	n/a	14	7	2	5	n/a	n/a	n/a	n/a	n/a
605.946	n/a	STOP	302973	n/a	LTP086	ltpFR	11	n/a	n/a	n/a	n/a	n/a	n/a	n/a	n/a	n/a	n/a	n/a	n/a	n/a	n/a	n/a	n/a
607.336	n/a	WORD	303668	wordpools/wasnorm_wordpool.txt	LTP086	ltpFR	11	2	0	EYE	545	n/a	n/a	0	n/a	0	0	0	0.422607421875	0.5869140625	0	upper	amplitud.ttf
610.344	n/a	START	305172	n/a	LTP086	ltpFR	11	n/a	n/a	n/a	n/a	n/a	n/a	n/a	n/a	n/a	n/a	n/a	n/a	n/a	n/a	n/a	n/a
611.386	n/a	PROB	305693	n/a	LTP086	ltpFR	11	n/a	n/a	n/a	n/a	n/a	n/a	n/a	21	9	3	9	n/a	n/a	n/a	n/a	n/a
618.344	n/a	STOP	309172	n/a	LTP086	ltpFR	11	n/a	n/a	n/a	n/a	n/a	n/a	n/a	n/a	n/a	n/a	n/a	n/a	n/a	n/a	n/a	n/a
619.428	n/a	WORD	309714	wordpools/wasnorm_wordpool.txt	LTP086	ltpFR	11	2	0	DIRT	472	n/a	n/a	0	n/a	0	0	0	0.422607421875	0.5869140625	0	upper	amplitud.ttf
622.436	n/a	START	311218	n/a	LTP086	ltpFR	11	n/a	n/a	n/a	n/a	n/a	n/a	n/a	n/a	n/a	n/a	n/a	n/a	n/a	n/a	n/a	n/a
623.36	n/a	PROB	311680	n/a	LTP086	ltpFR	11	n/a	n/a	n/a	n/a	n/a	n/a	n/a	13	8	4	1	n/a	n/a	n/a	n/a	n/a
626.008	n/a	PROB	313004	n/a	LTP086	ltpFR	11	n/a	n/a	n/a	n/a	n/a	n/a	n/a	14	7	1	6	n/a	n/a	n/a	n/a	n/a
630.436	n/a	STOP	315218	n/a	LTP086	ltpFR	11	n/a	n/a	n/a	n/a	n/a	n/a	n/a	n/a	n/a	n/a	n/a	n/a	n/a	n/a	n/a	n/a
631.628	n/a	WORD	315814	wordpools/wasnorm_wordpool.txt	LTP086	ltpFR	11	2	1	LEADER	807	n/a	n/a	2	n/a	0	0	0	0.57763671875	0.412841796875	1	lower	zerothre.ttf
631.894	n/a	KEY_MSG	315947	n/a	LTP086	ltpFR	11	2	n/a	n/a	n/a	n/a	n/a	n/a	n/a	0	0	0	n/a	n/a	n/a	n/a	n/a
634.636	n/a	START	317318	n/a	LTP086	ltpFR	11	n/a	n/a	n/a	n/a	n/a	n/a	n/a	n/a	n/a	n/a	n/a	n/a	n/a	n/a	n/a	n/a
635.794	n/a	PROB	317897	n/a	LTP086	ltpFR	11	n/a	n/a	n/a	n/a	n/a	n/a	n/a	10	6	2	2	n/a	n/a	n/a	n/a	n/a
637.618	n/a	PROB	318809	n/a	LTP086	ltpFR	11	n/a	n/a	n/a	n/a	n/a	n/a	n/a	11	6	3	2	n/a	n/a	n/a	n/a	n/a
639.344	n/a	PROB	319672	n/a	LTP086	ltpFR	11	n/a	n/a	n/a	n/a	n/a	n/a	n/a	18	6	9	3	n/a	n/a	n/a	n/a	n/a
642.34	n/a	STOP	321170	n/a	LTP086	ltpFR	11	n/a	n/a	n/a	n/a	n/a	n/a	n/a	n/a	n/a	n/a	n/a	n/a	n/a	n/a	n/a	n/a
643.826	n/a	WORD	321913	wordpools/wasnorm_wordpool.txt	LTP086	ltpFR	11	2	1	PRESIDENT	1121	n/a	n/a	2	n/a	0	0	0	0.57763671875	0.412841796875	1	lower	zerothre.ttf
644.576	n/a	KEY_MSG	322288	n/a	LTP086	ltpFR	11	2	n/a	n/a	n/a	n/a	n/a	n/a	n/a	0	0	0	n/a	n/a	n/a	n/a	n/a
646.834	n/a	START	323417	n/a	LTP086	ltpFR	11	n/a	n/a	n/a	n/a	n/a	n/a	n/a	n/a	n/a	n/a	n/a	n/a	n/a	n/a	n/a	n/a
647.868	n/a	PROB	323934	n/a	LTP086	ltpFR	11	n/a	n/a	n/a	n/a	n/a	n/a	n/a	5	3	1	1	n/a	n/a	n/a	n/a	n/a
649.51	n/a	PROB	324755	n/a	LTP086	ltpFR	11	n/a	n/a	n/a	n/a	n/a	n/a	n/a	18	7	7	4	n/a	n/a	n/a	n/a	n/a
651.318	n/a	PROB	325659	n/a	LTP086	ltpFR	11	n/a	n/a	n/a	n/a	n/a	n/a	n/a	12	3	3	6	n/a	n/a	n/a	n/a	n/a
653.382	n/a	STOP	326691	n/a	LTP086	ltpFR	11	n/a	n/a	n/a	n/a	n/a	n/a	n/a	n/a	n/a	n/a	n/a	n/a	n/a	n/a	n/a	n/a
656.008	n/a	WORD	328004	wordpools/wasnorm_wordpool.txt	LTP086	ltpFR	11	2	1	LOBSTER	837	n/a	n/a	0	n/a	0	0	0	0.57763671875	0.412841796875	1	lower	zerothre.ttf
659.018	n/a	START	329509	n/a	LTP086	ltpFR	11	n/a	n/a	n/a	n/a	n/a	n/a	n/a	n/a	n/a	n/a	n/a	n/a	n/a	n/a	n/a	n/a
660.058	n/a	PROB	330029	n/a	LTP086	ltpFR	11	n/a	n/a	n/a	n/a	n/a	n/a	n/a	13	6	6	1	n/a	n/a	n/a	n/a	n/a
661.334	n/a	PROB	330667	n/a	LTP086	ltpFR	11	n/a	n/a	n/a	n/a	n/a	n/a	n/a	15	8	2	5	n/a	n/a	n/a	n/a	n/a
662.634	n/a	PROB	331317	n/a	LTP086	ltpFR	11	n/a	n/a	n/a	n/a	n/a	n/a	n/a	12	5	1	6	n/a	n/a	n/a	n/a	n/a
667.018	n/a	STOP	333509	n/a	LTP086	ltpFR	11	n/a	n/a	n/a	n/a	n/a	n/a	n/a	n/a	n/a	n/a	n/a	n/a	n/a	n/a	n/a	n/a
667.892	n/a	WORD	333946	wordpools/wasnorm_wordpool.txt	LTP086	ltpFR	11	2	1	DOUGH	489	n/a	n/a	0	n/a	0	0	0	0.57763671875	0.412841796875	1	lower	zerothre.ttf
670.892	n/a	START	335446	n/a	LTP086	ltpFR	11	n/a	n/a	n/a	n/a	n/a	n/a	n/a	n/a	n/a	n/a	n/a	n/a	n/a	n/a	n/a	n/a
671.876	n/a	PROB	335938	n/a	LTP086	ltpFR	11	n/a	n/a	n/a	n/a	n/a	n/a	n/a	14	8	5	1	n/a	n/a	n/a	n/a	n/a
674.526	n/a	PROB	337263	n/a	LTP086	ltpFR	11	n/a	n/a	n/a	n/a	n/a	n/a	n/a	11	3	6	2	n/a	n/a	n/a	n/a	n/a
677.47	n/a	STOP	338735	n/a	LTP086	ltpFR	11	n/a	n/a	n/a	n/a	n/a	n/a	n/a	n/a	n/a	n/a	n/a	n/a	n/a	n/a	n/a	n/a
680.684	n/a	REC_START	340342	n/a	LTP086	ltpFR	11	2	n/a	n/a	n/a	n/a	n/a	n/a	n/a	0	0	0	n/a	n/a	n/a	n/a	n/a
681.422	n/a	REC_WORD	340711	wordpools/wasnorm_wordpool.txt	LTP086	ltpFR	11	2	1	PRESIDENT	1121	n/a	n/a	2	n/a	0	0	0	n/a	n/a	n/a	n/a	n/a
682.042	n/a	REC_WORD	341021	wordpools/wasnorm_wordpool.txt	LTP086	ltpFR	11	2	1	LOBSTER	837	n/a	n/a	0	n/a	0	0	0	n/a	n/a	n/a	n/a	n/a
684.58	n/a	REC_WORD_VV	342290	wordpools/wasnorm_wordpool.txt	LTP086	ltpFR	11	2	n/a	<>	-1	n/a	n/a	n/a	n/a	0	0	0	n/a	n/a	n/a	n/a	n/a
686.91	n/a	REC_WORD_VV	343455	wordpools/wasnorm_wordpool.txt	LTP086	ltpFR	11	2	n/a	<>	-1	n/a	n/a	n/a	n/a	0	0	0	n/a	n/a	n/a	n/a	n/a
701.268	n/a	REC_WORD	350634	wordpools/wasnorm_wordpool.txt	LTP086	ltpFR	11	2	0	EYE	545	n/a	n/a	0	n/a	0	0	0	n/a	n/a	n/a	n/a	n/a
757.616	n/a	START	378808	n/a	LTP086	ltpFR	11	n/a	n/a	n/a	n/a	n/a	n/a	n/a	n/a	n/a	n/a	n/a	n/a	n/a	n/a	n/a	n/a
759.124	n/a	PROB	379562	n/a	LTP086	ltpFR	11	n/a	n/a	n/a	n/a	n/a	n/a	n/a	14	9	2	3	n/a	n/a	n/a	n/a	n/a
761.564	n/a	PROB	380782	n/a	LTP086	ltpFR	11	n/a	n/a	n/a	n/a	n/a	n/a	n/a	19	4	6	9	n/a	n/a	n/a	n/a	n/a
765.616	n/a	STOP	382808	n/a	LTP086	ltpFR	11	n/a	n/a	n/a	n/a	n/a	n/a	n/a	n/a	n/a	n/a	n/a	n/a	n/a	n/a	n/a	n/a
766.748	n/a	WORD	383374	wordpools/wasnorm_wordpool.txt	LTP086	ltpFR	11	3	1	TAXI	1438	n/a	n/a	0	n/a	0	0	0	0.57763671875	0.412841796875	1	lower	zerothre.ttf
769.758	n/a	START	384879	n/a	LTP086	ltpFR	11	n/a	n/a	n/a	n/a	n/a	n/a	n/a	n/a	n/a	n/a	n/a	n/a	n/a	n/a	n/a	n/a
770.914	n/a	PROB	385457	n/a	LTP086	ltpFR	11	n/a	n/a	n/a	n/a	n/a	n/a	n/a	22	7	6	9	n/a	n/a	n/a	n/a	n/a
775.606	n/a	PROB	387803	n/a	LTP086	ltpFR	11	n/a	n/a	n/a	n/a	n/a	n/a	n/a	7	2	3	3	n/a	n/a	n/a	n/a	n/a
777.42	n/a	STOP	388710	n/a	LTP086	ltpFR	11	n/a	n/a	n/a	n/a	n/a	n/a	n/a	n/a	n/a	n/a	n/a	n/a	n/a	n/a	n/a	n/a
778.732	n/a	WORD	389366	wordpools/wasnorm_wordpool.txt	LTP086	ltpFR	11	3	1	CAR	241	n/a	n/a	0	n/a	0	0	0	0.57763671875	0.412841796875	1	lower	zerothre.ttf
781.74	n/a	START	390870	n/a	LTP086	ltpFR	11	n/a	n/a	n/a	n/a	n/a	n/a	n/a	n/a	n/a	n/a	n/a	n/a	n/a	n/a	n/a	n/a
782.59	n/a	PROB	391295	n/a	LTP086	ltpFR	11	n/a	n/a	n/a	n/a	n/a	n/a	n/a	20	9	2	9	n/a	n/a	n/a	n/a	n/a
784.298	n/a	PROB	392149	n/a	LTP086	ltpFR	11	n/a	n/a	n/a	n/a	n/a	n/a	n/a	10	1	2	7	n/a	n/a	n/a	n/a	n/a
785.748	n/a	PROB	392874	n/a	LTP086	ltpFR	11	n/a	n/a	n/a	n/a	n/a	n/a	n/a	15	6	1	8	n/a	n/a	n/a	n/a	n/a
789.74	n/a	STOP	394870	n/a	LTP086	ltpFR	11	n/a	n/a	n/a	n/a	n/a	n/a	n/a	n/a	n/a	n/a	n/a	n/a	n/a	n/a	n/a	n/a
790.748	n/a	WORD	395374	wordpools/wasnorm_wordpool.txt	LTP086	ltpFR	11	3	1	TUTU	1524	n/a	n/a	0	n/a	0	0	0	0.57763671875	0.412841796875	1	lower	zerothre.ttf
793.756	n/a	START	396878	n/a	LTP086	ltpFR	11	n/a	n/a	n/a	n/a	n/a	n/a	n/a	n/a	n/a	n/a	n/a	n/a	n/a	n/a	n/a	n/a
794.89	n/a	PROB	397445	n/a	LTP086	ltpFR	11	n/a	n/a	n/a	n/a	n/a	n/a	n/a	11	3	4	4	n/a	n/a	n/a	n/a	n/a
796.514	n/a	PROB	398257	n/a	LTP086	ltpFR	11	n/a	n/a	n/a	n/a	n/a	n/a	n/a	15	5	5	5	n/a	n/a	n/a	n/a	n/a
797.698	n/a	PROB	398849	n/a	LTP086	ltpFR	11	n/a	n/a	n/a	n/a	n/a	n/a	n/a	23	9	9	7	n/a	n/a	n/a	n/a	n/a
801.252	n/a	STOP	400626	n/a	LTP086	ltpFR	11	n/a	n/a	n/a	n/a	n/a	n/a	n/a	n/a	n/a	n/a	n/a	n/a	n/a	n/a	n/a	n/a
802.93	n/a	WORD	401465	wordpools/wasnorm_wordpool.txt	LTP086	ltpFR	11	3	0	COCKTAIL	338	n/a	n/a	2	n/a	0	0	0	0.422607421875	0.5869140625	0	upper	amplitud.ttf
803.264	n/a	KEY_MSG	401632	n/a	LTP086	ltpFR	11	3	n/a	n/a	n/a	n/a	n/a	n/a	n/a	0	0	0	n/a	n/a	n/a	n/a	n/a
805.938	n/a	START	402969	n/a	LTP086	ltpFR	11	n/a	n/a	n/a	n/a	n/a	n/a	n/a	n/a	n/a	n/a	n/a	n/a	n/a	n/a	n/a	n/a
807.122	n/a	PROB	403561	n/a	LTP086	ltpFR	11	n/a	n/a	n/a	n/a	n/a	n/a	n/a	22	7	8	7	n/a	n/a	n/a	n/a	n/a
810.506	n/a	PROB	405253	n/a	LTP086	ltpFR	11	n/a	n/a	n/a	n/a	n/a	n/a	n/a	15	9	2	4	n/a	n/a	n/a	n/a	n/a
813.174	n/a	STOP	406587	n/a	LTP086	ltpFR	11	n/a	n/a	n/a	n/a	n/a	n/a	n/a	n/a	n/a	n/a	n/a	n/a	n/a	n/a	n/a	n/a
815.054	n/a	WORD	407527	wordpools/wasnorm_wordpool.txt	LTP086	ltpFR	11	3	0	GRAVEL	659	n/a	n/a	0	n/a	0	0	0	0.422607421875	0.5869140625	0	upper	amplitud.ttf
818.064	n/a	START	409032	n/a	LTP086	ltpFR	11	n/a	n/a	n/a	n/a	n/a	n/a	n/a	n/a	n/a	n/a	n/a	n/a	n/a	n/a	n/a	n/a
819.012	n/a	PROB	409506	n/a	LTP086	ltpFR	11	n/a	n/a	n/a	n/a	n/a	n/a	n/a	14	2	5	7	n/a	n/a	n/a	n/a	n/a
821.138	n/a	PROB	410569	n/a	LTP086	ltpFR	11	n/a	n/a	n/a	n/a	n/a	n/a	n/a	13	4	4	5	n/a	n/a	n/a	n/a	n/a
824.838	n/a	STOP	412419	n/a	LTP086	ltpFR	11	n/a	n/a	n/a	n/a	n/a	n/a	n/a	n/a	n/a	n/a	n/a	n/a	n/a	n/a	n/a	n/a
827.146	n/a	WORD	413573	wordpools/wasnorm_wordpool.txt	LTP086	ltpFR	11	3	0	DRUG	501	n/a	n/a	0	n/a	0	0	0	0.422607421875	0.5869140625	0	upper	amplitud.ttf
830.156	n/a	START	415078	n/a	LTP086	ltpFR	11	n/a	n/a	n/a	n/a	n/a	n/a	n/a	n/a	n/a	n/a	n/a	n/a	n/a	n/a	n/a	n/a
831.214	n/a	PROB	415607	n/a	LTP086	ltpFR	11	n/a	n/a	n/a	n/a	n/a	n/a	n/a	19	4	9	6	n/a	n/a	n/a	n/a	n/a
834.314	n/a	PROB	417157	n/a	LTP086	ltpFR	11	n/a	n/a	n/a	n/a	n/a	n/a	n/a	10	5	4	1	n/a	n/a	n/a	n/a	n/a
838.156	n/a	STOP	419078	n/a	LTP086	ltpFR	11	n/a	n/a	n/a	n/a	n/a	n/a	n/a	n/a	n/a	n/a	n/a	n/a	n/a	n/a	n/a	n/a
839.07	n/a	WORD	419535	wordpools/wasnorm_wordpool.txt	LTP086	ltpFR	11	3	1	SPICE	1350	n/a	n/a	2	n/a	0	0	0	0.57763671875	0.412841796875	1	lower	zerothre.ttf
839.572	n/a	KEY_MSG	419786	n/a	LTP086	ltpFR	11	3	n/a	n/a	n/a	n/a	n/a	n/a	n/a	0	0	0	n/a	n/a	n/a	n/a	n/a
842.078	n/a	START	421039	n/a	LTP086	ltpFR	11	n/a	n/a	n/a	n/a	n/a	n/a	n/a	n/a	n/a	n/a	n/a	n/a	n/a	n/a	n/a	n/a
843.028	n/a	PROB	421514	n/a	LTP086	ltpFR	11	n/a	n/a	n/a	n/a	n/a	n/a	n/a	18	9	4	5	n/a	n/a	n/a	n/a	n/a
845.63	n/a	PROB	422815	n/a	LTP086	ltpFR	11	n/a	n/a	n/a	n/a	n/a	n/a	n/a	14	3	3	8	n/a	n/a	n/a	n/a	n/a
848.388	n/a	PROB	424194	n/a	LTP086	ltpFR	11	n/a	n/a	n/a	n/a	n/a	n/a	n/a	10	8	1	1	n/a	n/a	n/a	n/a	n/a
850.03	n/a	STOP	425015	n/a	LTP086	ltpFR	11	n/a	n/a	n/a	n/a	n/a	n/a	n/a	n/a	n/a	n/a	n/a	n/a	n/a	n/a	n/a	n/a
851.154	n/a	WORD	425577	wordpools/wasnorm_wordpool.txt	LTP086	ltpFR	11	3	1	CELLAR	267	n/a	n/a	0	n/a	0	0	0	0.57763671875	0.412841796875	1	lower	zerothre.ttf
854.164	n/a	START	427082	n/a	LTP086	ltpFR	11	n/a	n/a	n/a	n/a	n/a	n/a	n/a	n/a	n/a	n/a	n/a	n/a	n/a	n/a	n/a	n/a
855.312	n/a	PROB	427656	n/a	LTP086	ltpFR	11	n/a	n/a	n/a	n/a	n/a	n/a	n/a	9	3	3	3	n/a	n/a	n/a	n/a	n/a
856.546	n/a	PROB	428273	n/a	LTP086	ltpFR	11	n/a	n/a	n/a	n/a	n/a	n/a	n/a	16	2	9	5	n/a	n/a	n/a	n/a	n/a
862.164	n/a	STOP	431082	n/a	LTP086	ltpFR	11	n/a	n/a	n/a	n/a	n/a	n/a	n/a	n/a	n/a	n/a	n/a	n/a	n/a	n/a	n/a	n/a
863.12	n/a	WORD	431560	wordpools/wasnorm_wordpool.txt	LTP086	ltpFR	11	3	1	STRAW	1390	n/a	n/a	0	n/a	0	0	0	0.57763671875	0.412841796875	1	lower	zerothre.ttf
866.13	n/a	START	433065	n/a	LTP086	ltpFR	11	n/a	n/a	n/a	n/a	n/a	n/a	n/a	n/a	n/a	n/a	n/a	n/a	n/a	n/a	n/a	n/a
867.112	n/a	PROB	433556	n/a	LTP086	ltpFR	11	n/a	n/a	n/a	n/a	n/a	n/a	n/a	17	2	9	6	n/a	n/a	n/a	n/a	n/a
874.13	n/a	STOP	437065	n/a	LTP086	ltpFR	11	n/a	n/a	n/a	n/a	n/a	n/a	n/a	n/a	n/a	n/a	n/a	n/a	n/a	n/a	n/a	n/a
875.17	n/a	WORD	437585	wordpools/wasnorm_wordpool.txt	LTP086	ltpFR	11	3	1	SWAN	1417	n/a	n/a	0	n/a	0	0	0	0.57763671875	0.412841796875	1	lower	zerothre.ttf
878.18	n/a	START	439090	n/a	LTP086	ltpFR	11	n/a	n/a	n/a	n/a	n/a	n/a	n/a	n/a	n/a	n/a	n/a	n/a	n/a	n/a	n/a	n/a
879.078	n/a	PROB	439539	n/a	LTP086	ltpFR	11	n/a	n/a	n/a	n/a	n/a	n/a	n/a	15	3	5	7	n/a	n/a	n/a	n/a	n/a
881.436	n/a	PROB	440718	n/a	LTP086	ltpFR	11	n/a	n/a	n/a	n/a	n/a	n/a	n/a	21	9	9	3	n/a	n/a	n/a	n/a	n/a
883.944	n/a	PROB	441972	n/a	LTP086	ltpFR	11	n/a	n/a	n/a	n/a	n/a	n/a	n/a	17	7	9	1	n/a	n/a	n/a	n/a	n/a
885.408	n/a	STOP	442704	n/a	LTP086	ltpFR	11	n/a	n/a	n/a	n/a	n/a	n/a	n/a	n/a	n/a	n/a	n/a	n/a	n/a	n/a	n/a	n/a
887.236	n/a	WORD	443618	wordpools/wasnorm_wordpool.txt	LTP086	ltpFR	11	3	1	COCOON	339	n/a	n/a	1	n/a	0	0	0	0.57763671875	0.412841796875	1	lower	zerothre.ttf
890.246	n/a	START	445123	n/a	LTP086	ltpFR	11	n/a	n/a	n/a	n/a	n/a	n/a	n/a	n/a	n/a	n/a	n/a	n/a	n/a	n/a	n/a	n/a
891.17	n/a	PROB	445585	n/a	LTP086	ltpFR	11	n/a	n/a	n/a	n/a	n/a	n/a	n/a	8	2	2	4	n/a	n/a	n/a	n/a	n/a
892.346	n/a	PROB	446173	n/a	LTP086	ltpFR	11	n/a	n/a	n/a	n/a	n/a	n/a	n/a	13	7	1	5	n/a	n/a	n/a	n/a	n/a
898.246	n/a	STOP	449123	n/a	LTP086	ltpFR	11	n/a	n/a	n/a	n/a	n/a	n/a	n/a	n/a	n/a	n/a	n/a	n/a	n/a	n/a	n/a	n/a
899.428	n/a	WORD	449714	wordpools/wasnorm_wordpool.txt	LTP086	ltpFR	11	3	0	CURB	426	n/a	n/a	0	n/a	0	0	0	0.422607421875	0.5869140625	0	upper	amplitud.ttf
902.436	n/a	START	451218	n/a	LTP086	ltpFR	11	n/a	n/a	n/a	n/a	n/a	n/a	n/a	n/a	n/a	n/a	n/a	n/a	n/a	n/a	n/a	n/a
903.612	n/a	PROB	451806	n/a	LTP086	ltpFR	11	n/a	n/a	n/a	n/a	n/a	n/a	n/a	9	1	7	1	n/a	n/a	n/a	n/a	n/a
905.086	n/a	PROB	452543	n/a	LTP086	ltpFR	11	n/a	n/a	n/a	n/a	n/a	n/a	n/a	15	9	2	4	n/a	n/a	n/a	n/a	n/a
907.878	n/a	PROB	453939	n/a	LTP086	ltpFR	11	n/a	n/a	n/a	n/a	n/a	n/a	n/a	13	3	7	3	n/a	n/a	n/a	n/a	n/a
909.194	n/a	STOP	454597	n/a	LTP086	ltpFR	11	n/a	n/a	n/a	n/a	n/a	n/a	n/a	n/a	n/a	n/a	n/a	n/a	n/a	n/a	n/a	n/a
911.336	n/a	WORD	455668	wordpools/wasnorm_wordpool.txt	LTP086	ltpFR	11	3	0	OX	994	n/a	n/a	0	n/a	0	0	0	0.422607421875	0.5869140625	0	upper	amplitud.ttf
914.346	n/a	START	457173	n/a	LTP086	ltpFR	11	n/a	n/a	n/a	n/a	n/a	n/a	n/a	n/a	n/a	n/a	n/a	n/a	n/a	n/a	n/a	n/a
915.162	n/a	PROB	457581	n/a	LTP086	ltpFR	11	n/a	n/a	n/a	n/a	n/a	n/a	n/a	15	2	5	8	n/a	n/a	n/a	n/a	n/a
919.652	n/a	PROB	459826	n/a	LTP086	ltpFR	11	n/a	n/a	n/a	n/a	n/a	n/a	n/a	18	8	8	2	n/a	n/a	n/a	n/a	n/a
921.386	n/a	STOP	460693	n/a	LTP086	ltpFR	11	n/a	n/a	n/a	n/a	n/a	n/a	n/a	n/a	n/a	n/a	n/a	n/a	n/a	n/a	n/a	n/a
923.252	n/a	WORD	461626	wordpools/wasnorm_wordpool.txt	LTP086	ltpFR	11	3	0	MOOSE	915	n/a	n/a	2	n/a	0	0	0	0.422607421875	0.5869140625	0	upper	amplitud.ttf
923.72	n/a	KEY_MSG	461860	n/a	LTP086	ltpFR	11	3	n/a	n/a	n/a	n/a	n/a	n/a	n/a	0	0	0	n/a	n/a	n/a	n/a	n/a
926.26	n/a	START	463130	n/a	LTP086	ltpFR	11	n/a	n/a	n/a	n/a	n/a	n/a	n/a	n/a	n/a	n/a	n/a	n/a	n/a	n/a	n/a	n/a
927.378	n/a	PROB	463689	n/a	LTP086	ltpFR	11	n/a	n/a	n/a	n/a	n/a	n/a	n/a	12	8	3	1	n/a	n/a	n/a	n/a	n/a
930.018	n/a	PROB	465009	n/a	LTP086	ltpFR	11	n/a	n/a	n/a	n/a	n/a	n/a	n/a	17	5	9	3	n/a	n/a	n/a	n/a	n/a
933.468	n/a	STOP	466734	n/a	LTP086	ltpFR	11	n/a	n/a	n/a	n/a	n/a	n/a	n/a	n/a	n/a	n/a	n/a	n/a	n/a	n/a	n/a	n/a
935.16	n/a	WORD	467580	wordpools/wasnorm_wordpool.txt	LTP086	ltpFR	11	3	0	DIRECTOR	471	n/a	n/a	0	n/a	0	0	0	0.422607421875	0.5869140625	0	upper	amplitud.ttf
938.17	n/a	START	469085	n/a	LTP086	ltpFR	11	n/a	n/a	n/a	n/a	n/a	n/a	n/a	n/a	n/a	n/a	n/a	n/a	n/a	n/a	n/a	n/a
939.186	n/a	PROB	469593	n/a	LTP086	ltpFR	11	n/a	n/a	n/a	n/a	n/a	n/a	n/a	19	7	4	8	n/a	n/a	n/a	n/a	n/a
942.11	n/a	PROB	471055	n/a	LTP086	ltpFR	11	n/a	n/a	n/a	n/a	n/a	n/a	n/a	15	9	2	4	n/a	n/a	n/a	n/a	n/a
946.164	n/a	STOP	473082	n/a	LTP086	ltpFR	11	n/a	n/a	n/a	n/a	n/a	n/a	n/a	n/a	n/a	n/a	n/a	n/a	n/a	n/a	n/a	n/a
947.328	n/a	WORD	473664	wordpools/wasnorm_wordpool.txt	LTP086	ltpFR	11	3	0	DINOSAUR	469	n/a	n/a	0	n/a	0	0	0	0.422607421875	0.5869140625	0	upper	amplitud.ttf
950.336	n/a	START	475168	n/a	LTP086	ltpFR	11	n/a	n/a	n/a	n/a	n/a	n/a	n/a	n/a	n/a	n/a	n/a	n/a	n/a	n/a	n/a	n/a
951.21	n/a	PROB	475605	n/a	LTP086	ltpFR	11	n/a	n/a	n/a	n/a	n/a	n/a	n/a	9	2	4	4	n/a	n/a	n/a	n/a	n/a
952.528	n/a	PROB	476264	n/a	LTP086	ltpFR	11	n/a	n/a	n/a	n/a	n/a	n/a	n/a	14	1	6	7	n/a	n/a	n/a	n/a	n/a
958.336	n/a	STOP	479168	n/a	LTP086	ltpFR	11	n/a	n/a	n/a	n/a	n/a	n/a	n/a	n/a	n/a	n/a	n/a	n/a	n/a	n/a	n/a	n/a
960.26	n/a	REC_START	480130	n/a	LTP086	ltpFR	11	3	n/a	n/a	n/a	n/a	n/a	n/a	n/a	0	0	0	n/a	n/a	n/a	n/a	n/a
961.054	n/a	REC_WORD	480527	wordpools/wasnorm_wordpool.txt	LTP086	ltpFR	11	3	0	DINOSAUR	469	n/a	n/a	0	n/a	0	0	0	n/a	n/a	n/a	n/a	n/a
962.156	n/a	REC_WORD	481078	wordpools/wasnorm_wordpool.txt	LTP086	ltpFR	11	3	0	MOOSE	915	n/a	n/a	2	n/a	0	0	0	n/a	n/a	n/a	n/a	n/a
962.866	n/a	REC_WORD	481433	wordpools/wasnorm_wordpool.txt	LTP086	ltpFR	11	3	0	OX	994	n/a	n/a	0	n/a	0	0	0	n/a	n/a	n/a	n/a	n/a
964.676	n/a	REC_WORD	482338	wordpools/wasnorm_wordpool.txt	LTP086	ltpFR	11	3	1	COCOON	339	n/a	n/a	1	n/a	0	0	0	n/a	n/a	n/a	n/a	n/a
968.946	n/a	REC_WORD_VV	484473	wordpools/wasnorm_wordpool.txt	LTP086	ltpFR	11	3	n/a	<>	-1	n/a	n/a	n/a	n/a	0	0	0	n/a	n/a	n/a	n/a	n/a
973.416	n/a	REC_WORD	486708	wordpools/wasnorm_wordpool.txt	LTP086	ltpFR	11	3	1	TAXI	1438	n/a	n/a	0	n/a	0	0	0	n/a	n/a	n/a	n/a	n/a
974.148	n/a	REC_WORD	487074	wordpools/wasnorm_wordpool.txt	LTP086	ltpFR	11	3	1	CAR	241	n/a	n/a	0	n/a	0	0	0	n/a	n/a	n/a	n/a	n/a
1039.792	n/a	START	519896	n/a	LTP086	ltpFR	11	n/a	n/a	n/a	n/a	n/a	n/a	n/a	n/a	n/a	n/a	n/a	n/a	n/a	n/a	n/a	n/a
1041.3	n/a	PROB	520650	n/a	LTP086	ltpFR	11	n/a	n/a	n/a	n/a	n/a	n/a	n/a	13	8	1	4	n/a	n/a	n/a	n/a	n/a
1043.106	n/a	PROB	521553	n/a	LTP086	ltpFR	11	n/a	n/a	n/a	n/a	n/a	n/a	n/a	14	4	2	8	n/a	n/a	n/a	n/a	n/a
1044.516	n/a	PROB	522258	n/a	LTP086	ltpFR	11	n/a	n/a	n/a	n/a	n/a	n/a	n/a	10	1	2	7	n/a	n/a	n/a	n/a	n/a
1045.866	n/a	PROB	522933	n/a	LTP086	ltpFR	11	n/a	n/a	n/a	n/a	n/a	n/a	n/a	19	3	7	9	n/a	n/a	n/a	n/a	n/a
1048.258	n/a	PROB	524129	n/a	LTP086	ltpFR	11	n/a	n/a	n/a	n/a	n/a	n/a	n/a	16	3	7	6	n/a	n/a	n/a	n/a	n/a
1049.94	n/a	PROB	524970	n/a	LTP086	ltpFR	11	n/a	n/a	n/a	n/a	n/a	n/a	n/a	18	5	9	4	n/a	n/a	n/a	n/a	n/a
1055.792	n/a	STOP	527896	n/a	LTP086	ltpFR	11	n/a	n/a	n/a	n/a	n/a	n/a	n/a	n/a	n/a	n/a	n/a	n/a	n/a	n/a	n/a	n/a
1056.966	n/a	WORD	528483	wordpools/wasnorm_wordpool.txt	LTP086	ltpFR	11	4	0	TOOL	1480	n/a	n/a	2	n/a	0	0	0	0.422607421875	0.5869140625	0	upper	amplitud.ttf
1057.766	n/a	KEY_MSG	528883	n/a	LTP086	ltpFR	11	4	n/a	n/a	n/a	n/a	n/a	n/a	n/a	0	0	0	n/a	n/a	n/a	n/a	n/a
1059.974	n/a	START	529987	n/a	LTP086	ltpFR	11	n/a	n/a	n/a	n/a	n/a	n/a	n/a	n/a	n/a	n/a	n/a	n/a	n/a	n/a	n/a	n/a
1061.048	n/a	PROB	530524	n/a	LTP086	ltpFR	11	n/a	n/a	n/a	n/a	n/a	n/a	n/a	16	1	6	9	n/a	n/a	n/a	n/a	n/a
1063.758	n/a	PROB	531879	n/a	LTP086	ltpFR	11	n/a	n/a	n/a	n/a	n/a	n/a	n/a	19	7	7	5	n/a	n/a	n/a	n/a	n/a
1066.2	n/a	PROB	533100	n/a	LTP086	ltpFR	11	n/a	n/a	n/a	n/a	n/a	n/a	n/a	16	9	6	1	n/a	n/a	n/a	n/a	n/a
1068.466	n/a	PROB	534233	n/a	LTP086	ltpFR	11	n/a	n/a	n/a	n/a	n/a	n/a	n/a	13	4	3	6	n/a	n/a	n/a	n/a	n/a
1075.974	n/a	STOP	537987	n/a	LTP086	ltpFR	11	n/a	n/a	n/a	n/a	n/a	n/a	n/a	n/a	n/a	n/a	n/a	n/a	n/a	n/a	n/a	n/a
1076.866	n/a	WORD	538433	wordpools/wasnorm_wordpool.txt	LTP086	ltpFR	11	4	0	WHALE	1601	n/a	n/a	0	n/a	0	0	0	0.422607421875	0.5869140625	0	upper	amplitud.ttf
1079.874	n/a	START	539937	n/a	LTP086	ltpFR	11	n/a	n/a	n/a	n/a	n/a	n/a	n/a	n/a	n/a	n/a	n/a	n/a	n/a	n/a	n/a	n/a
1081.006	n/a	PROB	540503	n/a	LTP086	ltpFR	11	n/a	n/a	n/a	n/a	n/a	n/a	n/a	23	7	7	9	n/a	n/a	n/a	n/a	n/a
1085.266	n/a	PROB	542633	n/a	LTP086	ltpFR	11	n/a	n/a	n/a	n/a	n/a	n/a	n/a	13	4	3	6	n/a	n/a	n/a	n/a	n/a
1087.116	n/a	PROB	543558	n/a	LTP086	ltpFR	11	n/a	n/a	n/a	n/a	n/a	n/a	n/a	15	5	7	3	n/a	n/a	n/a	n/a	n/a
1089.34	n/a	PROB	544670	n/a	LTP086	ltpFR	11	n/a	n/a	n/a	n/a	n/a	n/a	n/a	20	6	9	5	n/a	n/a	n/a	n/a	n/a
1095.874	n/a	STOP	547937	n/a	LTP086	ltpFR	11	n/a	n/a	n/a	n/a	n/a	n/a	n/a	n/a	n/a	n/a	n/a	n/a	n/a	n/a	n/a	n/a
1096.84	n/a	WORD	548420	wordpools/wasnorm_wordpool.txt	LTP086	ltpFR	11	4	0	EXPERT	543	n/a	n/a	0	n/a	0	0	0	0.422607421875	0.5869140625	0	upper	amplitud.ttf
1099.84	n/a	START	549920	n/a	LTP086	ltpFR	11	n/a	n/a	n/a	n/a	n/a	n/a	n/a	n/a	n/a	n/a	n/a	n/a	n/a	n/a	n/a	n/a
1100.674	n/a	PROB	550337	n/a	LTP086	ltpFR	11	n/a	n/a	n/a	n/a	n/a	n/a	n/a	15	1	7	5	n/a	n/a	n/a	n/a	n/a
1105.14	n/a	PROB	552570	n/a	LTP086	ltpFR	11	n/a	n/a	n/a	n/a	n/a	n/a	n/a	5	1	2	2	n/a	n/a	n/a	n/a	n/a
1106.598	n/a	PROB	553299	n/a	LTP086	ltpFR	11	n/a	n/a	n/a	n/a	n/a	n/a	n/a	17	4	9	1	n/a	n/a	n/a	n/a	n/a
1107.972	n/a	PROB	553986	n/a	LTP086	ltpFR	11	n/a	n/a	n/a	n/a	n/a	n/a	n/a	15	4	3	8	n/a	n/a	n/a	n/a	n/a
1113.174	n/a	PROB	556587	n/a	LTP086	ltpFR	11	n/a	n/a	n/a	n/a	n/a	n/a	n/a	16	4	4	8	n/a	n/a	n/a	n/a	n/a
1114.924	n/a	STOP	557462	n/a	LTP086	ltpFR	11	n/a	n/a	n/a	n/a	n/a	n/a	n/a	n/a	n/a	n/a	n/a	n/a	n/a	n/a	n/a	n/a
1116.682	n/a	WORD	558341	wordpools/wasnorm_wordpool.txt	LTP086	ltpFR	11	4	0	FIN	566	n/a	n/a	0	n/a	0	0	0	0.422607421875	0.5869140625	0	upper	amplitud.ttf
1119.69	n/a	START	559845	n/a	LTP086	ltpFR	11	n/a	n/a	n/a	n/a	n/a	n/a	n/a	n/a	n/a	n/a	n/a	n/a	n/a	n/a	n/a	n/a
1120.848	n/a	PROB	560424	n/a	LTP086	ltpFR	11	n/a	n/a	n/a	n/a	n/a	n/a	n/a	4	1	2	1	n/a	n/a	n/a	n/a	n/a
1122.83	n/a	PROB	561415	n/a	LTP086	ltpFR	11	n/a	n/a	n/a	n/a	n/a	n/a	n/a	21	8	6	7	n/a	n/a	n/a	n/a	n/a
1130.656	n/a	PROB	565328	n/a	LTP086	ltpFR	11	n/a	n/a	n/a	n/a	n/a	n/a	n/a	18	8	7	3	n/a	n/a	n/a	n/a	n/a
1135.69	n/a	STOP	567845	n/a	LTP086	ltpFR	11	n/a	n/a	n/a	n/a	n/a	n/a	n/a	n/a	n/a	n/a	n/a	n/a	n/a	n/a	n/a	n/a
1136.772	n/a	WORD	568386	wordpools/wasnorm_wordpool.txt	LTP086	ltpFR	11	4	0	FROST	609	n/a	n/a	0	n/a	0	0	0	0.422607421875	0.5869140625	0	upper	amplitud.ttf
1139.78	n/a	START	569890	n/a	LTP086	ltpFR	11	n/a	n/a	n/a	n/a	n/a	n/a	n/a	n/a	n/a	n/a	n/a	n/a	n/a	n/a	n/a	n/a
1140.656	n/a	PROB	570328	n/a	LTP086	ltpFR	11	n/a	n/a	n/a	n/a	n/a	n/a	n/a	17	7	3	7	n/a	n/a	n/a	n/a	n/a
1141.93	n/a	PROB	570965	n/a	LTP086	ltpFR	11	n/a	n/a	n/a	n/a	n/a	n/a	n/a	10	8	1	1	n/a	n/a	n/a	n/a	n/a
1143.214	n/a	PROB	571607	n/a	LTP086	ltpFR	11	n/a	n/a	n/a	n/a	n/a	n/a	n/a	19	7	3	9	n/a	n/a	n/a	n/a	n/a
1144.69	n/a	PROB	572345	n/a	LTP086	ltpFR	11	n/a	n/a	n/a	n/a	n/a	n/a	n/a	15	1	8	6	n/a	n/a	n/a	n/a	n/a
1146.864	n/a	PROB	573432	n/a	LTP086	ltpFR	11	n/a	n/a	n/a	n/a	n/a	n/a	n/a	15	5	3	7	n/a	n/a	n/a	n/a	n/a
1148.314	n/a	PROB	574157	n/a	LTP086	ltpFR	11	n/a	n/a	n/a	n/a	n/a	n/a	n/a	19	9	9	3	n/a	n/a	n/a	n/a	n/a
1153.256	n/a	PROB	576628	n/a	LTP086	ltpFR	11	n/a	n/a	n/a	n/a	n/a	n/a	n/a	12	5	5	2	n/a	n/a	n/a	n/a	n/a
1154.598	n/a	STOP	577299	n/a	LTP086	ltpFR	11	n/a	n/a	n/a	n/a	n/a	n/a	n/a	n/a	n/a	n/a	n/a	n/a	n/a	n/a	n/a	n/a
1156.906	n/a	WORD	578453	wordpools/wasnorm_wordpool.txt	LTP086	ltpFR	11	4	0	PROFESSIONAL	1130	n/a	n/a	0	n/a	0	0	0	0.422607421875	0.5869140625	0	upper	amplitud.ttf
1159.914	n/a	START	579957	n/a	LTP086	ltpFR	11	n/a	n/a	n/a	n/a	n/a	n/a	n/a	n/a	n/a	n/a	n/a	n/a	n/a	n/a	n/a	n/a
1161.088	n/a	PROB	580544	n/a	LTP086	ltpFR	11	n/a	n/a	n/a	n/a	n/a	n/a	n/a	16	1	8	7	n/a	n/a	n/a	n/a	n/a
1165.164	n/a	PROB	582582	n/a	LTP086	ltpFR	11	n/a	n/a	n/a	n/a	n/a	n/a	n/a	10	5	2	3	n/a	n/a	n/a	n/a	n/a
1168.556	n/a	PROB	584278	n/a	LTP086	ltpFR	11	n/a	n/a	n/a	n/a	n/a	n/a	n/a	24	8	8	8	n/a	n/a	n/a	n/a	n/a
1170.788	n/a	PROB	585394	n/a	LTP086	ltpFR	11	n/a	n/a	n/a	n/a	n/a	n/a	n/a	15	1	9	5	n/a	n/a	n/a	n/a	n/a
1172.422	n/a	PROB	586211	n/a	LTP086	ltpFR	11	n/a	n/a	n/a	n/a	n/a	n/a	n/a	17	4	7	6	n/a	n/a	n/a	n/a	n/a
1175.12	n/a	STOP	587560	n/a	LTP086	ltpFR	11	n/a	n/a	n/a	n/a	n/a	n/a	n/a	n/a	n/a	n/a	n/a	n/a	n/a	n/a	n/a	n/a
1177.054	n/a	WORD	588527	wordpools/wasnorm_wordpool.txt	LTP086	ltpFR	11	4	0	WIFE	1609	n/a	n/a	1	n/a	0	0	0	0.422607421875	0.5869140625	0	upper	amplitud.ttf
1180.062	n/a	START	590031	n/a	LTP086	ltpFR	11	n/a	n/a	n/a	n/a	n/a	n/a	n/a	n/a	n/a	n/a	n/a	n/a	n/a	n/a	n/a	n/a
1180.962	n/a	PROB	590481	n/a	LTP086	ltpFR	11	n/a	n/a	n/a	n/a	n/a	n/a	n/a	20	8	5	7	n/a	n/a	n/a	n/a	n/a
1186.564	n/a	PROB	593282	n/a	LTP086	ltpFR	11	n/a	n/a	n/a	n/a	n/a	n/a	n/a	15	9	3	3	n/a	n/a	n/a	n/a	n/a
1190.036	n/a	PROB	595018	n/a	LTP086	ltpFR	11	n/a	n/a	n/a	n/a	n/a	n/a	n/a	15	2	6	7	n/a	n/a	n/a	n/a	n/a
1196.064	n/a	STOP	598032	n/a	LTP086	ltpFR	11	n/a	n/a	n/a	n/a	n/a	n/a	n/a	n/a	n/a	n/a	n/a	n/a	n/a	n/a	n/a	n/a
1197.196	n/a	WORD	598598	wordpools/wasnorm_wordpool.txt	LTP086	ltpFR	11	4	0	SCALE	1241	n/a	n/a	0	n/a	0	0	0	0.422607421875	0.5869140625	0	upper	amplitud.ttf
1200.196	n/a	START	600098	n/a	LTP086	ltpFR	11	n/a	n/a	n/a	n/a	n/a	n/a	n/a	n/a	n/a	n/a	n/a	n/a	n/a	n/a	n/a	n/a
1201.146	n/a	PROB	600573	n/a	LTP086	ltpFR	11	n/a	n/a	n/a	n/a	n/a	n/a	n/a	6	2	2	2	n/a	n/a	n/a	n/a	n/a
1202.262	n/a	PROB	601131	n/a	LTP086	ltpFR	11	n/a	n/a	n/a	n/a	n/a	n/a	n/a	15	3	9	3	n/a	n/a	n/a	n/a	n/a
1204.954	n/a	PROB	602477	n/a	LTP086	ltpFR	11	n/a	n/a	n/a	n/a	n/a	n/a	n/a	18	8	9	1	n/a	n/a	n/a	n/a	n/a
1206.388	n/a	PROB	603194	n/a	LTP086	ltpFR	11	n/a	n/a	n/a	n/a	n/a	n/a	n/a	11	6	2	3	n/a	n/a	n/a	n/a	n/a
1208.47	n/a	PROB	604235	n/a	LTP086	ltpFR	11	n/a	n/a	n/a	n/a	n/a	n/a	n/a	19	9	8	2	n/a	n/a	n/a	n/a	n/a
1210.554	n/a	PROB	605277	n/a	LTP086	ltpFR	11	n/a	n/a	n/a	n/a	n/a	n/a	n/a	15	2	7	6	n/a	n/a	n/a	n/a	n/a
1216.146	n/a	STOP	608073	n/a	LTP086	ltpFR	11	n/a	n/a	n/a	n/a	n/a	n/a	n/a	n/a	n/a	n/a	n/a	n/a	n/a	n/a	n/a	n/a
1217.178	n/a	WORD	608589	wordpools/wasnorm_wordpool.txt	LTP086	ltpFR	11	4	0	GRAPE	654	n/a	n/a	0	n/a	0	0	0	0.422607421875	0.5869140625	0	upper	amplitud.ttf
1220.188	n/a	START	610094	n/a	LTP086	ltpFR	11	n/a	n/a	n/a	n/a	n/a	n/a	n/a	n/a	n/a	n/a	n/a	n/a	n/a	n/a	n/a	n/a
1221.018	n/a	PROB	610509	n/a	LTP086	ltpFR	11	n/a	n/a	n/a	n/a	n/a	n/a	n/a	13	7	5	1	n/a	n/a	n/a	n/a	n/a
1223.296	n/a	PROB	611648	n/a	LTP086	ltpFR	11	n/a	n/a	n/a	n/a	n/a	n/a	n/a	8	4	2	2	n/a	n/a	n/a	n/a	n/a
1225.188	n/a	PROB	612594	n/a	LTP086	ltpFR	11	n/a	n/a	n/a	n/a	n/a	n/a	n/a	21	9	4	8	n/a	n/a	n/a	n/a	n/a
1232.912	n/a	PROB	616456	n/a	LTP086	ltpFR	11	n/a	n/a	n/a	n/a	n/a	n/a	n/a	19	9	7	3	n/a	n/a	n/a	n/a	n/a
1236.188	n/a	STOP	618094	n/a	LTP086	ltpFR	11	n/a	n/a	n/a	n/a	n/a	n/a	n/a	n/a	n/a	n/a	n/a	n/a	n/a	n/a	n/a	n/a
1237.078	n/a	WORD	618539	wordpools/wasnorm_wordpool.txt	LTP086	ltpFR	11	4	0	VINE	1568	n/a	n/a	0	n/a	0	0	0	0.422607421875	0.5869140625	0	upper	amplitud.ttf
1240.086	n/a	START	620043	n/a	LTP086	ltpFR	11	n/a	n/a	n/a	n/a	n/a	n/a	n/a	n/a	n/a	n/a	n/a	n/a	n/a	n/a	n/a	n/a
1241.12	n/a	PROB	620560	n/a	LTP086	ltpFR	11	n/a	n/a	n/a	n/a	n/a	n/a	n/a	15	6	4	5	n/a	n/a	n/a	n/a	n/a
1242.528	n/a	PROB	621264	n/a	LTP086	ltpFR	11	n/a	n/a	n/a	n/a	n/a	n/a	n/a	10	2	1	7	n/a	n/a	n/a	n/a	n/a
1244.01	n/a	PROB	622005	n/a	LTP086	ltpFR	11	n/a	n/a	n/a	n/a	n/a	n/a	n/a	14	4	6	4	n/a	n/a	n/a	n/a	n/a
1245.278	n/a	PROB	622639	n/a	LTP086	ltpFR	11	n/a	n/a	n/a	n/a	n/a	n/a	n/a	12	6	8	8	n/a	n/a	n/a	n/a	n/a
1256.086	n/a	STOP	628043	n/a	LTP086	ltpFR	11	n/a	n/a	n/a	n/a	n/a	n/a	n/a	n/a	n/a	n/a	n/a	n/a	n/a	n/a	n/a	n/a
1256.936	n/a	WORD	628468	wordpools/wasnorm_wordpool.txt	LTP086	ltpFR	11	4	0	CABBAGE	210	n/a	n/a	0	n/a	0	0	0	0.422607421875	0.5869140625	0	upper	amplitud.ttf
1259.944	n/a	START	629972	n/a	LTP086	ltpFR	11	n/a	n/a	n/a	n/a	n/a	n/a	n/a	n/a	n/a	n/a	n/a	n/a	n/a	n/a	n/a	n/a
1260.878	n/a	PROB	630439	n/a	LTP086	ltpFR	11	n/a	n/a	n/a	n/a	n/a	n/a	n/a	19	9	4	6	n/a	n/a	n/a	n/a	n/a
1262.428	n/a	PROB	631214	n/a	LTP086	ltpFR	11	n/a	n/a	n/a	n/a	n/a	n/a	n/a	15	9	2	4	n/a	n/a	n/a	n/a	n/a
1264.944	n/a	PROB	632472	n/a	LTP086	ltpFR	11	n/a	n/a	n/a	n/a	n/a	n/a	n/a	22	5	8	9	n/a	n/a	n/a	n/a	n/a
1275.944	n/a	STOP	637972	n/a	LTP086	ltpFR	11	n/a	n/a	n/a	n/a	n/a	n/a	n/a	n/a	n/a	n/a	n/a	n/a	n/a	n/a	n/a	n/a
1276.828	n/a	WORD	638414	wordpools/wasnorm_wordpool.txt	LTP086	ltpFR	11	4	0	TURNIP	1521	n/a	n/a	0	n/a	0	0	0	0.422607421875	0.5869140625	0	upper	amplitud.ttf
1279.836	n/a	START	639918	n/a	LTP086	ltpFR	11	n/a	n/a	n/a	n/a	n/a	n/a	n/a	n/a	n/a	n/a	n/a	n/a	n/a	n/a	n/a	n/a
1281.034	n/a	PROB	640517	n/a	LTP086	ltpFR	11	n/a	n/a	n/a	n/a	n/a	n/a	n/a	12	4	7	1	n/a	n/a	n/a	n/a	n/a
1285.044	n/a	PROB	642522	n/a	LTP086	ltpFR	11	n/a	n/a	n/a	n/a	n/a	n/a	n/a	7	1	5	1	n/a	n/a	n/a	n/a	n/a
1286.594	n/a	PROB	643297	n/a	LTP086	ltpFR	11	n/a	n/a	n/a	n/a	n/a	n/a	n/a	26	9	8	9	n/a	n/a	n/a	n/a	n/a
1290.052	n/a	PROB	645026	n/a	LTP086	ltpFR	11	n/a	n/a	n/a	n/a	n/a	n/a	n/a	18	9	5	4	n/a	n/a	n/a	n/a	n/a
1292.452	n/a	PROB	646226	n/a	LTP086	ltpFR	11	n/a	n/a	n/a	n/a	n/a	n/a	n/a	18	8	9	1	n/a	n/a	n/a	n/a	n/a
1293.984	n/a	PROB	646992	n/a	LTP086	ltpFR	11	n/a	n/a	n/a	n/a	n/a	n/a	n/a	10	7	1	2	n/a	n/a	n/a	n/a	n/a
1295.166	n/a	STOP	647583	n/a	LTP086	ltpFR	11	n/a	n/a	n/a	n/a	n/a	n/a	n/a	n/a	n/a	n/a	n/a	n/a	n/a	n/a	n/a	n/a
1296.834	n/a	WORD	648417	wordpools/wasnorm_wordpool.txt	LTP086	ltpFR	11	4	0	SEAFOOD	1260	n/a	n/a	0	n/a	0	0	0	0.422607421875	0.5869140625	0	upper	amplitud.ttf
1299.844	n/a	START	649922	n/a	LTP086	ltpFR	11	n/a	n/a	n/a	n/a	n/a	n/a	n/a	n/a	n/a	n/a	n/a	n/a	n/a	n/a	n/a	n/a
1300.792	n/a	PROB	650396	n/a	LTP086	ltpFR	11	n/a	n/a	n/a	n/a	n/a	n/a	n/a	11	2	5	4	n/a	n/a	n/a	n/a	n/a
1302.686	n/a	PROB	651343	n/a	LTP086	ltpFR	11	n/a	n/a	n/a	n/a	n/a	n/a	n/a	18	9	2	7	n/a	n/a	n/a	n/a	n/a
1305.368	n/a	PROB	652684	n/a	LTP086	ltpFR	11	n/a	n/a	n/a	n/a	n/a	n/a	n/a	13	1	6	6	n/a	n/a	n/a	n/a	n/a
1307.176	n/a	PROB	653588	n/a	LTP086	ltpFR	11	n/a	n/a	n/a	n/a	n/a	n/a	n/a	16	9	1	6	n/a	n/a	n/a	n/a	n/a
1308.518	n/a	PROB	654259	n/a	LTP086	ltpFR	11	n/a	n/a	n/a	n/a	n/a	n/a	n/a	14	4	9	1	n/a	n/a	n/a	n/a	n/a
1310.494	n/a	PROB	655247	n/a	LTP086	ltpFR	11	n/a	n/a	n/a	n/a	n/a	n/a	n/a	12	7	1	4	n/a	n/a	n/a	n/a	n/a
1315.844	n/a	STOP	657922	n/a	LTP086	ltpFR	11	n/a	n/a	n/a	n/a	n/a	n/a	n/a	n/a	n/a	n/a	n/a	n/a	n/a	n/a	n/a	n/a
1316.668	n/a	WORD	658334	wordpools/wasnorm_wordpool.txt	LTP086	ltpFR	11	4	0	VET	1560	n/a	n/a	0	n/a	0	0	0	0.422607421875	0.5869140625	0	upper	amplitud.ttf
1319.676	n/a	START	659838	n/a	LTP086	ltpFR	11	n/a	n/a	n/a	n/a	n/a	n/a	n/a	n/a	n/a	n/a	n/a	n/a	n/a	n/a	n/a	n/a
1320.642	n/a	PROB	660321	n/a	LTP086	ltpFR	11	n/a	n/a	n/a	n/a	n/a	n/a	n/a	14	4	6	4	n/a	n/a	n/a	n/a	n/a
1321.776	n/a	PROB	660888	n/a	LTP086	ltpFR	11	n/a	n/a	n/a	n/a	n/a	n/a	n/a	7	4	2	1	n/a	n/a	n/a	n/a	n/a
1323.218	n/a	PROB	661609	n/a	LTP086	ltpFR	11	n/a	n/a	n/a	n/a	n/a	n/a	n/a	9	1	3	5	n/a	n/a	n/a	n/a	n/a
1324.984	n/a	PROB	662492	n/a	LTP086	ltpFR	11	n/a	n/a	n/a	n/a	n/a	n/a	n/a	8	3	2	3	n/a	n/a	n/a	n/a	n/a
1327.442	n/a	PROB	663721	n/a	LTP086	ltpFR	11	n/a	n/a	n/a	n/a	n/a	n/a	n/a	19	7	5	6	n/a	n/a	n/a	n/a	n/a
1331.392	n/a	PROB	665696	n/a	LTP086	ltpFR	11	n/a	n/a	n/a	n/a	n/a	n/a	n/a	9	4	4	1	n/a	n/a	n/a	n/a	n/a
1335.678	n/a	STOP	667839	n/a	LTP086	ltpFR	11	n/a	n/a	n/a	n/a	n/a	n/a	n/a	n/a	n/a	n/a	n/a	n/a	n/a	n/a	n/a	n/a
1336.808	n/a	WORD	668404	wordpools/wasnorm_wordpool.txt	LTP086	ltpFR	11	4	0	HUMAN	726	n/a	n/a	0	n/a	0	0	0	0.422607421875	0.5869140625	0	upper	amplitud.ttf
1339.81	n/a	START	669905	n/a	LTP086	ltpFR	11	n/a	n/a	n/a	n/a	n/a	n/a	n/a	n/a	n/a	n/a	n/a	n/a	n/a	n/a	n/a	n/a
1340.676	n/a	PROB	670338	n/a	LTP086	ltpFR	11	n/a	n/a	n/a	n/a	n/a	n/a	n/a	11	9	1	1	n/a	n/a	n/a	n/a	n/a
1342.134	n/a	PROB	671067	n/a	LTP086	ltpFR	11	n/a	n/a	n/a	n/a	n/a	n/a	n/a	7	1	2	4	n/a	n/a	n/a	n/a	n/a
1344.4	n/a	PROB	672200	n/a	LTP086	ltpFR	11	n/a	n/a	n/a	n/a	n/a	n/a	n/a	18	8	8	2	n/a	n/a	n/a	n/a	n/a
1349.884	n/a	PROB	674942	n/a	LTP086	ltpFR	11	n/a	n/a	n/a	n/a	n/a	n/a	n/a	11	2	2	7	n/a	n/a	n/a	n/a	n/a
1355.81	n/a	STOP	677905	n/a	LTP086	ltpFR	11	n/a	n/a	n/a	n/a	n/a	n/a	n/a	n/a	n/a	n/a	n/a	n/a	n/a	n/a	n/a	n/a
1356.666	n/a	WORD	678333	wordpools/wasnorm_wordpool.txt	LTP086	ltpFR	11	4	0	CLAM	315	n/a	n/a	0	n/a	0	0	0	0.422607421875	0.5869140625	0	upper	amplitud.ttf
1359.676	n/a	START	679838	n/a	LTP086	ltpFR	11	n/a	n/a	n/a	n/a	n/a	n/a	n/a	n/a	n/a	n/a	n/a	n/a	n/a	n/a	n/a	n/a
1360.624	n/a	PROB	680312	n/a	LTP086	ltpFR	11	n/a	n/a	n/a	n/a	n/a	n/a	n/a	10	5	2	3	n/a	n/a	n/a	n/a	n/a
1363.158	n/a	PROB	681579	n/a	LTP086	ltpFR	11	n/a	n/a	n/a	n/a	n/a	n/a	n/a	19	5	9	5	n/a	n/a	n/a	n/a	n/a
1365.074	n/a	PROB	682537	n/a	LTP086	ltpFR	11	n/a	n/a	n/a	n/a	n/a	n/a	n/a	17	3	5	7	n/a	n/a	n/a	n/a	n/a
1370.108	n/a	PROB	685054	n/a	LTP086	ltpFR	11	n/a	n/a	n/a	n/a	n/a	n/a	n/a	15	2	7	6	n/a	n/a	n/a	n/a	n/a
1375.266	n/a	STOP	687633	n/a	LTP086	ltpFR	11	n/a	n/a	n/a	n/a	n/a	n/a	n/a	n/a	n/a	n/a	n/a	n/a	n/a	n/a	n/a	n/a
1377.476	n/a	REC_START	688738	n/a	LTP086	ltpFR	11	4	n/a	n/a	n/a	n/a	n/a	n/a	n/a	0	0	0	n/a	n/a	n/a	n/a	n/a
1378.334	n/a	REC_WORD	689167	wordpools/wasnorm_wordpool.txt	LTP086	ltpFR	11	4	0	SEAFOOD	1260	n/a	n/a	0	n/a	0	0	0	n/a	n/a	n/a	n/a	n/a
1385.788	n/a	REC_WORD_VV	692894	wordpools/wasnorm_wordpool.txt	LTP086	ltpFR	11	4	n/a	<>	-1	n/a	n/a	n/a	n/a	0	0	0	n/a	n/a	n/a	n/a	n/a
1392.756	n/a	REC_WORD_VV	696378	wordpools/wasnorm_wordpool.txt	LTP086	ltpFR	11	4	n/a	<>	-1	n/a	n/a	n/a	n/a	0	0	0	n/a	n/a	n/a	n/a	n/a
1460.19	n/a	WORD	730095	wordpools/wasnorm_wordpool.txt	LTP086	ltpFR	11	5	1	CRICKET	408	n/a	n/a	1	n/a	0	0	0	0.57763671875	0.412841796875	1	lower	zerothre.ttf
1464.398	n/a	WORD	732199	wordpools/wasnorm_wordpool.txt	LTP086	ltpFR	11	5	1	SQUIRREL	1362	n/a	n/a	1	n/a	0	0	0	0.57763671875	0.412841796875	1	lower	zerothre.ttf
1468.556	n/a	WORD	734278	wordpools/wasnorm_wordpool.txt	LTP086	ltpFR	11	5	1	SEASHORE	1263	n/a	n/a	1	n/a	0	0	0	0.57763671875	0.412841796875	1	lower	zerothre.ttf
1472.764	n/a	WORD	736382	wordpools/wasnorm_wordpool.txt	LTP086	ltpFR	11	5	1	PROTRACTOR	1133	n/a	n/a	0	n/a	0	0	0	0.57763671875	0.412841796875	1	lower	zerothre.ttf
1476.772	n/a	WORD	738386	wordpools/wasnorm_wordpool.txt	LTP086	ltpFR	11	5	0	SHOELACE	1289	n/a	n/a	0	n/a	0	0	0	0.422607421875	0.5869140625	0	upper	amplitud.ttf
1480.698	n/a	WORD	740349	wordpools/wasnorm_wordpool.txt	LTP086	ltpFR	11	5	0	WAIST	1579	n/a	n/a	0	n/a	0	0	0	0.422607421875	0.5869140625	0	upper	amplitud.ttf
1484.872	n/a	WORD	742436	wordpools/wasnorm_wordpool.txt	LTP086	ltpFR	11	5	0	DOUGHNUT	490	n/a	n/a	0	n/a	0	0	0	0.422607421875	0.5869140625	0	upper	amplitud.ttf
1489.046	n/a	WORD	744523	wordpools/wasnorm_wordpool.txt	LTP086	ltpFR	11	5	1	WHISKERS	1605	n/a	n/a	0	n/a	0	0	0	0.57763671875	0.412841796875	1	lower	zerothre.ttf
1492.864	n/a	WORD	746432	wordpools/wasnorm_wordpool.txt	LTP086	ltpFR	11	5	1	BRUNETTE	181	n/a	n/a	1	n/a	0	0	0	0.57763671875	0.412841796875	1	lower	zerothre.ttf
1496.714	n/a	WORD	748357	wordpools/wasnorm_wordpool.txt	LTP086	ltpFR	11	5	1	EMPEROR	529	n/a	n/a	1	n/a	0	0	0	0.57763671875	0.412841796875	1	lower	zerothre.ttf
1500.748	n/a	WORD	750374	wordpools/wasnorm_wordpool.txt	LTP086	ltpFR	11	5	1	QUEEN	1149	n/a	n/a	1	n/a	0	0	0	0.57763671875	0.412841796875	1	lower	zerothre.ttf
1504.954	n/a	WORD	752477	wordpools/wasnorm_wordpool.txt	LTP086	ltpFR	11	5	0	CHAMPION	279	n/a	n/a	2	n/a	0	0	0	0.422607421875	0.5869140625	0	upper	amplitud.ttf
1505.33	n/a	KEY_MSG	752665	n/a	LTP086	ltpFR	11	5	n/a	n/a	n/a	n/a	n/a	n/a	n/a	0	0	0	n/a	n/a	n/a	n/a	n/a
1508.822	n/a	WORD	754411	wordpools/wasnorm_wordpool.txt	LTP086	ltpFR	11	5	0	FUDGE	611	n/a	n/a	0	n/a	0	0	0	0.422607421875	0.5869140625	0	upper	amplitud.ttf
1512.704	n/a	WORD	756352	wordpools/wasnorm_wordpool.txt	LTP086	ltpFR	11	5	0	INSECT	740	n/a	n/a	0	n/a	0	0	0	0.422607421875	0.5869140625	0	upper	amplitud.ttf
1516.796	n/a	WORD	758398	wordpools/wasnorm_wordpool.txt	LTP086	ltpFR	11	5	0	TEA	1439	n/a	n/a	0	n/a	0	0	0	0.422607421875	0.5869140625	0	upper	amplitud.ttf
1520.622	n/a	WORD	760311	wordpools/wasnorm_wordpool.txt	LTP086	ltpFR	11	5	0	TROPHY	1509	n/a	n/a	0	n/a	0	0	0	0.422607421875	0.5869140625	0	upper	amplitud.ttf
1523.63	n/a	START	761815	n/a	LTP086	ltpFR	11	n/a	n/a	n/a	n/a	n/a	n/a	n/a	n/a	n/a	n/a	n/a	n/a	n/a	n/a	n/a	n/a
1524.438	n/a	PROB	762219	n/a	LTP086	ltpFR	11	n/a	n/a	n/a	n/a	n/a	n/a	n/a	6	4	1	1	n/a	n/a	n/a	n/a	n/a
1526.154	n/a	PROB	763077	n/a	LTP086	ltpFR	11	n/a	n/a	n/a	n/a	n/a	n/a	n/a	15	1	7	7	n/a	n/a	n/a	n/a	n/a
1527.546	n/a	PROB	763773	n/a	LTP086	ltpFR	11	n/a	n/a	n/a	n/a	n/a	n/a	n/a	8	1	2	5	n/a	n/a	n/a	n/a	n/a
1529.322	n/a	PROB	764661	n/a	LTP086	ltpFR	11	n/a	n/a	n/a	n/a	n/a	n/a	n/a	12	1	2	9	n/a	n/a	n/a	n/a	n/a
1530.804	n/a	PROB	765402	n/a	LTP086	ltpFR	11	n/a	n/a	n/a	n/a	n/a	n/a	n/a	23	6	7	8	n/a	n/a	n/a	n/a	n/a
1539.37	n/a	STOP	769685	n/a	LTP086	ltpFR	11	n/a	n/a	n/a	n/a	n/a	n/a	n/a	n/a	n/a	n/a	n/a	n/a	n/a	n/a	n/a	n/a
1541.414	n/a	REC_START	770707	n/a	LTP086	ltpFR	11	5	n/a	n/a	n/a	n/a	n/a	n/a	n/a	0	0	0	n/a	n/a	n/a	n/a	n/a
1541.868	n/a	REC_WORD	770934	wordpools/wasnorm_wordpool.txt	LTP086	ltpFR	11	5	0	CHAMPION	279	n/a	n/a	2	n/a	0	0	0	n/a	n/a	n/a	n/a	n/a
1542.64	n/a	REC_WORD	771320	wordpools/wasnorm_wordpool.txt	LTP086	ltpFR	11	5	0	TROPHY	1509	n/a	n/a	0	n/a	0	0	0	n/a	n/a	n/a	n/a	n/a
1543.442	n/a	REC_WORD	771721	wordpools/wasnorm_wordpool.txt	LTP086	ltpFR	11	5	0	FUDGE	611	n/a	n/a	0	n/a	0	0	0	n/a	n/a	n/a	n/a	n/a
1544.45	n/a	REC_WORD	772225	wordpools/wasnorm_wordpool.txt	LTP086	ltpFR	11	5	0	INSECT	740	n/a	n/a	0	n/a	0	0	0	n/a	n/a	n/a	n/a	n/a
1547.294	n/a	REC_WORD_VV	773647	wordpools/wasnorm_wordpool.txt	LTP086	ltpFR	11	5	n/a	<>	-1	n/a	n/a	n/a	n/a	0	0	0	n/a	n/a	n/a	n/a	n/a
1550.882	n/a	REC_WORD	775441	wordpools/wasnorm_wordpool.txt	LTP086	ltpFR	11	5	1	SEASHORE	1263	n/a	n/a	1	n/a	0	0	0	n/a	n/a	n/a	n/a	n/a
1551.62	n/a	REC_WORD	775810	wordpools/wasnorm_wordpool.txt	LTP086	ltpFR	11	5	0	SHOELACE	1289	n/a	n/a	0	n/a	0	0	0	n/a	n/a	n/a	n/a	n/a
1552.602	n/a	REC_WORD	776301	wordpools/wasnorm_wordpool.txt	LTP086	ltpFR	11	5	1	PROTRACTOR	1133	n/a	n/a	0	n/a	0	0	0	n/a	n/a	n/a	n/a	n/a
1559.004	n/a	REC_WORD	779502	wordpools/wasnorm_wordpool.txt	LTP086	ltpFR	11	5	1	SQUIRREL	1362	n/a	n/a	1	n/a	0	0	0	n/a	n/a	n/a	n/a	n/a
1563.818	n/a	REC_WORD_VV	781909	wordpools/wasnorm_wordpool.txt	LTP086	ltpFR	11	5	n/a	<>	-1	n/a	n/a	n/a	n/a	0	0	0	n/a	n/a	n/a	n/a	n/a
1568.702	n/a	REC_WORD	784351	wordpools/wasnorm_wordpool.txt	LTP086	ltpFR	11	5	1	CRICKET	408	n/a	n/a	1	n/a	0	0	0	n/a	n/a	n/a	n/a	n/a
1583.2	n/a	REC_WORD	791600	wordpools/wasnorm_wordpool.txt	LTP086	ltpFR	11	5	1	BRUNETTE	181	n/a	n/a	1	n/a	0	0	0	n/a	n/a	n/a	n/a	n/a
1627.544	n/a	WORD	813772	wordpools/wasnorm_wordpool.txt	LTP086	ltpFR	11	6	1	ACROBAT	4	n/a	n/a	0	n/a	0	0	0	0.57763671875	0.412841796875	1	lower	zerothre.ttf
1631.534	n/a	WORD	815767	wordpools/wasnorm_wordpool.txt	LTP086	ltpFR	11	6	1	CLOWN	330	n/a	n/a	1	n/a	0	0	0	0.57763671875	0.412841796875	1	lower	zerothre.ttf
1635.376	n/a	WORD	817688	wordpools/wasnorm_wordpool.txt	LTP086	ltpFR	11	6	1	CONE	363	n/a	n/a	1	n/a	0	0	0	0.57763671875	0.412841796875	1	lower	zerothre.ttf
1639.518	n/a	WORD	819759	wordpools/wasnorm_wordpool.txt	LTP086	ltpFR	11	6	1	PLATE	1086	n/a	n/a	0	n/a	0	0	0	0.57763671875	0.412841796875	1	lower	zerothre.ttf
1643.718	n/a	WORD	821859	wordpools/wasnorm_wordpool.txt	LTP086	ltpFR	11	6	1	ANKLE	24	n/a	n/a	1	n/a	0	0	0	0.57763671875	0.412841796875	1	lower	zerothre.ttf
1647.626	n/a	WORD	823813	wordpools/wasnorm_wordpool.txt	LTP086	ltpFR	11	6	1	TRACTOR	1493	n/a	n/a	0	n/a	0	0	0	0.57763671875	0.412841796875	1	lower	zerothre.ttf
1651.452	n/a	WORD	825726	wordpools/wasnorm_wordpool.txt	LTP086	ltpFR	11	6	1	CART	250	n/a	n/a	n/a	n/a	0	0	0	0.57763671875	0.412841796875	1	lower	zerothre.ttf
1654.476	n/a	SLOW_MSG	827238	n/a	LTP086	ltpFR	11	6	n/a	n/a	n/a	n/a	n/a	n/a	n/a	0	0	0	n/a	n/a	n/a	n/a	n/a
1657.01	n/a	WORD	828505	wordpools/wasnorm_wordpool.txt	LTP086	ltpFR	11	6	1	HATCHET	691	n/a	n/a	0	n/a	0	0	0	0.57763671875	0.412841796875	1	lower	zerothre.ttf
1660.834	n/a	WORD	830417	wordpools/wasnorm_wordpool.txt	LTP086	ltpFR	11	6	1	CARDINAL	244	n/a	n/a	0	n/a	0	0	0	0.57763671875	0.412841796875	1	lower	zerothre.ttf
1664.776	n/a	WORD	832388	wordpools/wasnorm_wordpool.txt	LTP086	ltpFR	11	6	1	LITTER	832	n/a	n/a	0	n/a	0	0	0	0.57763671875	0.412841796875	1	lower	zerothre.ttf
1668.884	n/a	WORD	834442	wordpools/wasnorm_wordpool.txt	LTP086	ltpFR	11	6	1	PUPIL	1143	n/a	n/a	1	n/a	0	0	0	0.57763671875	0.412841796875	1	lower	zerothre.ttf
1672.7	n/a	WORD	836350	wordpools/wasnorm_wordpool.txt	LTP086	ltpFR	11	6	1	PENGUIN	1044	n/a	n/a	1	n/a	0	0	0	0.57763671875	0.412841796875	1	lower	zerothre.ttf
1676.56	n/a	WORD	838280	wordpools/wasnorm_wordpool.txt	LTP086	ltpFR	11	6	1	KLEENEX	782	n/a	n/a	0	n/a	0	0	0	0.57763671875	0.412841796875	1	lower	zerothre.ttf
1680.7	n/a	WORD	840350	wordpools/wasnorm_wordpool.txt	LTP086	ltpFR	11	6	1	DOVE	491	n/a	n/a	0	n/a	0	0	0	0.57763671875	0.412841796875	1	lower	zerothre.ttf
1684.642	n/a	WORD	842321	wordpools/wasnorm_wordpool.txt	LTP086	ltpFR	11	6	1	PUMPKIN	1142	n/a	n/a	0	n/a	0	0	0	0.57763671875	0.412841796875	1	lower	zerothre.ttf
1688.634	n/a	WORD	844317	wordpools/wasnorm_wordpool.txt	LTP086	ltpFR	11	6	1	CUP	424	n/a	n/a	1	n/a	0	0	0	0.57763671875	0.412841796875	1	lower	zerothre.ttf
1691.642	n/a	START	845821	n/a	LTP086	ltpFR	11	n/a	n/a	n/a	n/a	n/a	n/a	n/a	n/a	n/a	n/a	n/a	n/a	n/a	n/a	n/a	n/a
1692.616	n/a	PROB	846308	n/a	LTP086	ltpFR	11	n/a	n/a	n/a	n/a	n/a	n/a	n/a	14	9	2	3	n/a	n/a	n/a	n/a	n/a
1694.874	n/a	PROB	847437	n/a	LTP086	ltpFR	11	n/a	n/a	n/a	n/a	n/a	n/a	n/a	8	2	3	3	n/a	n/a	n/a	n/a	n/a
1696.71	n/a	PROB	848355	n/a	LTP086	ltpFR	11	n/a	n/a	n/a	n/a	n/a	n/a	n/a	16	4	6	6	n/a	n/a	n/a	n/a	n/a
1698.786	n/a	STOP	849393	n/a	LTP086	ltpFR	11	n/a	n/a	n/a	n/a	n/a	n/a	n/a	n/a	n/a	n/a	n/a	n/a	n/a	n/a	n/a	n/a
1701.418	n/a	REC_START	850709	n/a	LTP086	ltpFR	11	6	n/a	n/a	n/a	n/a	n/a	n/a	n/a	0	0	0	n/a	n/a	n/a	n/a	n/a
1702.12	n/a	REC_WORD	851060	wordpools/wasnorm_wordpool.txt	LTP086	ltpFR	11	6	1	PUPIL	1143	n/a	n/a	1	n/a	0	0	0	n/a	n/a	n/a	n/a	n/a
1702.84	n/a	REC_WORD	851420	wordpools/wasnorm_wordpool.txt	LTP086	ltpFR	11	6	1	DOVE	491	n/a	n/a	0	n/a	0	0	0	n/a	n/a	n/a	n/a	n/a
1704.89	n/a	REC_WORD	852445	wordpools/wasnorm_wordpool.txt	LTP086	ltpFR	11	6	1	PENGUIN	1044	n/a	n/a	1	n/a	0	0	0	n/a	n/a	n/a	n/a	n/a
1717.782	n/a	REC_WORD	858891	wordpools/wasnorm_wordpool.txt	LTP086	ltpFR	11	6	1	PUMPKIN	1142	n/a	n/a	0	n/a	0	0	0	n/a	n/a	n/a	n/a	n/a
1780.432	n/a	WORD	890216	wordpools/wasnorm_wordpool.txt	LTP086	ltpFR	11	7	1	CHARCOAL	281	n/a	n/a	0	n/a	0	0	0	0.57763671875	0.412841796875	1	lower	zerothre.ttf
1784.49	n/a	WORD	892245	wordpools/wasnorm_wordpool.txt	LTP086	ltpFR	11	7	1	ARMY	39	n/a	n/a	0	n/a	0	0	0	0.57763671875	0.412841796875	1	lower	zerothre.ttf
1788.306	n/a	WORD	894153	wordpools/wasnorm_wordpool.txt	LTP086	ltpFR	11	7	0	SHARK	1275	n/a	n/a	0	n/a	0	0	0	0.422607421875	0.5869140625	0	upper	amplitud.ttf
1792.222	n/a	WORD	896111	wordpools/wasnorm_wordpool.txt	LTP086	ltpFR	11	7	0	MINER	896	n/a	n/a	1	n/a	0	0	0	0.422607421875	0.5869140625	0	upper	amplitud.ttf
1796.24	n/a	WORD	898120	wordpools/wasnorm_wordpool.txt	LTP086	ltpFR	11	7	1	HEATER	698	n/a	n/a	0	n/a	0	0	0	0.57763671875	0.412841796875	1	lower	zerothre.ttf
1800.222	n/a	WORD	900111	wordpools/wasnorm_wordpool.txt	LTP086	ltpFR	11	7	1	CRIB	407	n/a	n/a	1	n/a	0	0	0	0.57763671875	0.412841796875	1	lower	zerothre.ttf
1804.056	n/a	WORD	902028	wordpools/wasnorm_wordpool.txt	LTP086	ltpFR	11	7	1	DENTIST	447	n/a	n/a	2	n/a	0	0	0	0.57763671875	0.412841796875	1	lower	zerothre.ttf
1804.656	n/a	KEY_MSG	902328	n/a	LTP086	ltpFR	11	7	n/a	n/a	n/a	n/a	n/a	n/a	n/a	0	0	0	n/a	n/a	n/a	n/a	n/a
1808.156	n/a	WORD	904078	wordpools/wasnorm_wordpool.txt	LTP086	ltpFR	11	7	1	ENEMY	534	n/a	n/a	1	n/a	0	0	0	0.57763671875	0.412841796875	1	lower	zerothre.ttf
1812.314	n/a	WORD	906157	wordpools/wasnorm_wordpool.txt	LTP086	ltpFR	11	7	0	PARTNER	1017	n/a	n/a	0	n/a	0	0	0	0.422607421875	0.5869140625	0	upper	amplitud.ttf
1816.19	n/a	WORD	908095	wordpools/wasnorm_wordpool.txt	LTP086	ltpFR	11	7	0	CHAPEL	280	n/a	n/a	0	n/a	0	0	0	0.422607421875	0.5869140625	0	upper	amplitud.ttf
1820.08	n/a	WORD	910040	wordpools/wasnorm_wordpool.txt	LTP086	ltpFR	11	7	0	SPRINKLE	1359	n/a	n/a	0	n/a	0	0	0	0.422607421875	0.5869140625	0	upper	amplitud.ttf
1824.112	n/a	WORD	912056	wordpools/wasnorm_wordpool.txt	LTP086	ltpFR	11	7	0	SCISSORS	1250	n/a	n/a	0	n/a	0	0	0	0.422607421875	0.5869140625	0	upper	amplitud.ttf
1828.062	n/a	WORD	914031	wordpools/wasnorm_wordpool.txt	LTP086	ltpFR	11	7	0	RAZOR	1171	n/a	n/a	0	n/a	0	0	0	0.422607421875	0.5869140625	0	upper	amplitud.ttf
1831.922	n/a	WORD	915961	wordpools/wasnorm_wordpool.txt	LTP086	ltpFR	11	7	0	HAMMOCK	681	n/a	n/a	0	n/a	0	0	0	0.422607421875	0.5869140625	0	upper	amplitud.ttf
1836.054	n/a	WORD	918027	wordpools/wasnorm_wordpool.txt	LTP086	ltpFR	11	7	1	ROBE	1198	n/a	n/a	0	n/a	0	0	0	0.57763671875	0.412841796875	1	lower	zerothre.ttf
1840.046	n/a	WORD	920023	wordpools/wasnorm_wordpool.txt	LTP086	ltpFR	11	7	1	THERMOMETER	1453	n/a	n/a	0	n/a	0	0	0	0.57763671875	0.412841796875	1	lower	zerothre.ttf
1845.706	n/a	REC_START	922853	n/a	LTP086	ltpFR	11	7	n/a	n/a	n/a	n/a	n/a	n/a	n/a	0	0	0	n/a	n/a	n/a	n/a	n/a
1846.348	n/a	REC_WORD	923174	wordpools/wasnorm_wordpool.txt	LTP086	ltpFR	11	7	0	SPRINKLE	1359	n/a	n/a	0	n/a	0	0	0	n/a	n/a	n/a	n/a	n/a
1847.266	n/a	REC_WORD	923633	wordpools/wasnorm_wordpool.txt	LTP086	ltpFR	11	7	1	ROBE	1198	n/a	n/a	0	n/a	0	0	0	n/a	n/a	n/a	n/a	n/a
1847.96	n/a	REC_WORD	923980	wordpools/wasnorm_wordpool.txt	LTP086	ltpFR	11	7	1	THERMOMETER	1453	n/a	n/a	0	n/a	0	0	0	n/a	n/a	n/a	n/a	n/a
1848.882	n/a	REC_WORD	924441	wordpools/wasnorm_wordpool.txt	LTP086	ltpFR	11	7	0	HAMMOCK	681	n/a	n/a	0	n/a	0	0	0	n/a	n/a	n/a	n/a	n/a
1851.772	n/a	REC_WORD_VV	925886	wordpools/wasnorm_wordpool.txt	LTP086	ltpFR	11	7	n/a	<>	-1	n/a	n/a	n/a	n/a	0	0	0	n/a	n/a	n/a	n/a	n/a
1852.904	n/a	REC_WORD	926452	wordpools/wasnorm_wordpool.txt	LTP086	ltpFR	11	7	1	ARMY	39	n/a	n/a	0	n/a	0	0	0	n/a	n/a	n/a	n/a	n/a
1857.554	n/a	REC_WORD	928777	wordpools/wasnorm_wordpool.txt	LTP086	ltpFR	11	7	1	DENTIST	447	n/a	n/a	2	n/a	0	0	0	n/a	n/a	n/a	n/a	n/a
1871.048	n/a	REC_WORD	935524	wordpools/wasnorm_wordpool.txt	LTP086	ltpFR	11	7	1	HEATER	698	n/a	n/a	0	n/a	0	0	0	n/a	n/a	n/a	n/a	n/a
1871.832	n/a	REC_WORD	935916	wordpools/wasnorm_wordpool.txt	LTP086	ltpFR	11	7	1	CRIB	407	n/a	n/a	1	n/a	0	0	0	n/a	n/a	n/a	n/a	n/a
1873.918	n/a	REC_WORD	936959	wordpools/wasnorm_wordpool.txt	LTP086	ltpFR	11	7	0	SHARK	1275	n/a	n/a	0	n/a	0	0	0	n/a	n/a	n/a	n/a	n/a
1874.856	n/a	REC_WORD	937428	wordpools/wasnorm_wordpool.txt	LTP086	ltpFR	11	7	0	MINER	896	n/a	n/a	1	n/a	0	0	0	n/a	n/a	n/a	n/a	n/a
1924.828	n/a	WORD	962414	wordpools/wasnorm_wordpool.txt	LTP086	ltpFR	11	8	0	APPLE	33	n/a	n/a	0	n/a	0	0	0	0.422607421875	0.5869140625	0	upper	amplitud.ttf
1928.878	n/a	WORD	964439	wordpools/wasnorm_wordpool.txt	LTP086	ltpFR	11	8	0	PEARL	1034	n/a	n/a	0	n/a	0	0	0	0.422607421875	0.5869140625	0	upper	amplitud.ttf
1932.754	n/a	WORD	966377	wordpools/wasnorm_wordpool.txt	LTP086	ltpFR	11	8	0	CUFF	423	n/a	n/a	0	n/a	0	0	0	0.422607421875	0.5869140625	0	upper	amplitud.ttf
1936.936	n/a	WORD	968468	wordpools/wasnorm_wordpool.txt	LTP086	ltpFR	11	8	0	CORPORATION	382	n/a	n/a	0	n/a	0	0	0	0.422607421875	0.5869140625	0	upper	amplitud.ttf
1940.928	n/a	WORD	970464	wordpools/wasnorm_wordpool.txt	LTP086	ltpFR	11	8	0	RASPBERRY	1168	n/a	n/a	0	n/a	0	0	0	0.422607421875	0.5869140625	0	upper	amplitud.ttf
1944.752	n/a	WORD	972376	wordpools/wasnorm_wordpool.txt	LTP086	ltpFR	11	8	0	ESCALATOR	539	n/a	n/a	1	n/a	0	0	0	0.422607421875	0.5869140625	0	upper	amplitud.ttf
1948.86	n/a	WORD	974430	wordpools/wasnorm_wordpool.txt	LTP086	ltpFR	11	8	0	GREASE	660	n/a	n/a	0	n/a	0	0	0	0.422607421875	0.5869140625	0	upper	amplitud.ttf
1953.076	n/a	WORD	976538	wordpools/wasnorm_wordpool.txt	LTP086	ltpFR	11	8	0	MOTOR	922	n/a	n/a	0	n/a	0	0	0	0.422607421875	0.5869140625	0	upper	amplitud.ttf
1957.26	n/a	WORD	978630	wordpools/wasnorm_wordpool.txt	LTP086	ltpFR	11	8	0	WICK	1607	n/a	n/a	1	n/a	0	0	0	0.422607421875	0.5869140625	0	upper	amplitud.ttf
1961.378	n/a	WORD	980689	wordpools/wasnorm_wordpool.txt	LTP086	ltpFR	11	8	0	STAKE	1368	n/a	n/a	0	n/a	0	0	0	0.422607421875	0.5869140625	0	upper	amplitud.ttf
1965.336	n/a	WORD	982668	wordpools/wasnorm_wordpool.txt	LTP086	ltpFR	11	8	0	GROCERY	664	n/a	n/a	1	n/a	0	0	0	0.422607421875	0.5869140625	0	upper	amplitud.ttf
1969.502	n/a	WORD	984751	wordpools/wasnorm_wordpool.txt	LTP086	ltpFR	11	8	0	SWING	1421	n/a	n/a	0	n/a	0	0	0	0.422607421875	0.5869140625	0	upper	amplitud.ttf
1973.344	n/a	WORD	986672	wordpools/wasnorm_wordpool.txt	LTP086	ltpFR	11	8	0	KNUCKLE	789	n/a	n/a	0	n/a	0	0	0	0.422607421875	0.5869140625	0	upper	amplitud.ttf
1977.344	n/a	WORD	988672	wordpools/wasnorm_wordpool.txt	LTP086	ltpFR	11	8	0	QUARTER	1148	n/a	n/a	1	n/a	0	0	0	0.422607421875	0.5869140625	0	upper	amplitud.ttf
1981.534	n/a	WORD	990767	wordpools/wasnorm_wordpool.txt	LTP086	ltpFR	11	8	0	METEOR	889	n/a	n/a	n/a	n/a	0	0	0	0.422607421875	0.5869140625	0	upper	amplitud.ttf
1984.56	n/a	SLOW_MSG	992280	n/a	LTP086	ltpFR	11	8	n/a	n/a	n/a	n/a	n/a	n/a	n/a	0	0	0	n/a	n/a	n/a	n/a	n/a
1987.026	n/a	WORD	993513	wordpools/wasnorm_wordpool.txt	LTP086	ltpFR	11	8	0	ASTEROID	50	n/a	n/a	0	n/a	0	0	0	0.422607421875	0.5869140625	0	upper	amplitud.ttf
1992.852	n/a	REC_START	996426	n/a	LTP086	ltpFR	11	8	n/a	n/a	n/a	n/a	n/a	n/a	n/a	0	0	0	n/a	n/a	n/a	n/a	n/a
1993.426	n/a	REC_WORD	996713	wordpools/wasnorm_wordpool.txt	LTP086	ltpFR	11	8	0	SWING	1421	n/a	n/a	0	n/a	0	0	0	n/a	n/a	n/a	n/a	n/a
1994.474	n/a	REC_WORD	997237	wordpools/wasnorm_wordpool.txt	LTP086	ltpFR	11	8	0	METEOR	889	n/a	n/a	n/a	n/a	0	0	0	n/a	n/a	n/a	n/a	n/a
1995.316	n/a	REC_WORD	997658	wordpools/wasnorm_wordpool.txt	LTP086	ltpFR	11	8	0	KNUCKLE	789	n/a	n/a	0	n/a	0	0	0	n/a	n/a	n/a	n/a	n/a
1996.28	n/a	REC_WORD	998140	wordpools/wasnorm_wordpool.txt	LTP086	ltpFR	11	8	0	ASTEROID	50	n/a	n/a	0	n/a	0	0	0	n/a	n/a	n/a	n/a	n/a
1998.738	n/a	REC_WORD	999369	wordpools/wasnorm_wordpool.txt	LTP086	ltpFR	11	8	0	ESCALATOR	539	n/a	n/a	1	n/a	0	0	0	n/a	n/a	n/a	n/a	n/a
1999.586	n/a	REC_WORD	999793	wordpools/wasnorm_wordpool.txt	LTP086	ltpFR	11	8	0	RASPBERRY	1168	n/a	n/a	0	n/a	0	0	0	n/a	n/a	n/a	n/a	n/a
2003.05	n/a	REC_WORD	1001525	wordpools/wasnorm_wordpool.txt	LTP086	ltpFR	11	8	0	PEARL	1034	n/a	n/a	0	n/a	0	0	0	n/a	n/a	n/a	n/a	n/a
2003.684	n/a	REC_WORD	1001842	wordpools/wasnorm_wordpool.txt	LTP086	ltpFR	11	8	0	CORPORATION	382	n/a	n/a	0	n/a	0	0	0	n/a	n/a	n/a	n/a	n/a
2005.528	n/a	REC_WORD	1002764	wordpools/wasnorm_wordpool.txt	LTP086	ltpFR	11	8	0	MOTOR	922	n/a	n/a	0	n/a	0	0	0	n/a	n/a	n/a	n/a	n/a
2011.186	n/a	REC_WORD	1005593	wordpools/wasnorm_wordpool.txt	LTP086	ltpFR	11	8	0	GREASE	660	n/a	n/a	0	n/a	0	0	0	n/a	n/a	n/a	n/a	n/a
2063.958	n/a	REC_WORD	1031979	wordpools/wasnorm_wordpool.txt	LTP086	ltpFR	11	8	0	SCISSORS	1250	n/a	n/a	0	n/a	0	0	0	n/a	n/a	n/a	n/a	n/a
2064.61	n/a	REC_WORD_VV	1032305	wordpools/wasnorm_wordpool.txt	LTP086	ltpFR	11	8	n/a	<>	-1	n/a	n/a	n/a	n/a	0	0	0	n/a	n/a	n/a	n/a	n/a
2074.734	n/a	START	1037367	n/a	LTP086	ltpFR	11	n/a	n/a	n/a	n/a	n/a	n/a	n/a	n/a	n/a	n/a	n/a	n/a	n/a	n/a	n/a	n/a
2076.242	n/a	PROB	1038121	n/a	LTP086	ltpFR	11	n/a	n/a	n/a	n/a	n/a	n/a	n/a	13	2	8	3	n/a	n/a	n/a	n/a	n/a
2077.792	n/a	PROB	1038896	n/a	LTP086	ltpFR	11	n/a	n/a	n/a	n/a	n/a	n/a	n/a	15	7	5	3	n/a	n/a	n/a	n/a	n/a
2079.04	n/a	PROB	1039520	n/a	LTP086	ltpFR	11	n/a	n/a	n/a	n/a	n/a	n/a	n/a	9	3	3	3	n/a	n/a	n/a	n/a	n/a
2082.734	n/a	STOP	1041367	n/a	LTP086	ltpFR	11	n/a	n/a	n/a	n/a	n/a	n/a	n/a	n/a	n/a	n/a	n/a	n/a	n/a	n/a	n/a	n/a
2083.624	n/a	WORD	1041812	wordpools/wasnorm_wordpool.txt	LTP086	ltpFR	11	9	0	FACTORY	548	n/a	n/a	2	n/a	0	0	0	0.422607421875	0.5869140625	0	upper	amplitud.ttf
2083.974	n/a	KEY_MSG	1041987	n/a	LTP086	ltpFR	11	9	n/a	n/a	n/a	n/a	n/a	n/a	n/a	0	0	0	n/a	n/a	n/a	n/a	n/a
2086.624	n/a	START	1043312	n/a	LTP086	ltpFR	11	n/a	n/a	n/a	n/a	n/a	n/a	n/a	n/a	n/a	n/a	n/a	n/a	n/a	n/a	n/a	n/a
2087.548	n/a	PROB	1043774	n/a	LTP086	ltpFR	11	n/a	n/a	n/a	n/a	n/a	n/a	n/a	13	6	5	2	n/a	n/a	n/a	n/a	n/a
2090.206	n/a	PROB	1045103	n/a	LTP086	ltpFR	11	n/a	n/a	n/a	n/a	n/a	n/a	n/a	18	1	9	8	n/a	n/a	n/a	n/a	n/a
2091.332	n/a	PROB	1045666	n/a	LTP086	ltpFR	11	n/a	n/a	n/a	n/a	n/a	n/a	n/a	14	5	5	4	n/a	n/a	n/a	n/a	n/a
2092.716	n/a	PROB	1046358	n/a	LTP086	ltpFR	11	n/a	n/a	n/a	n/a	n/a	n/a	n/a	11	2	8	1	n/a	n/a	n/a	n/a	n/a
2094.168	n/a	STOP	1047084	n/a	LTP086	ltpFR	11	n/a	n/a	n/a	n/a	n/a	n/a	n/a	n/a	n/a	n/a	n/a	n/a	n/a	n/a	n/a	n/a
2095.798	n/a	WORD	1047899	wordpools/wasnorm_wordpool.txt	LTP086	ltpFR	11	9	0	VOLUNTEER	1577	n/a	n/a	0	n/a	0	0	0	0.422607421875	0.5869140625	0	upper	amplitud.ttf
2098.8	n/a	START	1049400	n/a	LTP086	ltpFR	11	n/a	n/a	n/a	n/a	n/a	n/a	n/a	n/a	n/a	n/a	n/a	n/a	n/a	n/a	n/a	n/a
2099.998	n/a	PROB	1049999	n/a	LTP086	ltpFR	11	n/a	n/a	n/a	n/a	n/a	n/a	n/a	7	1	5	1	n/a	n/a	n/a	n/a	n/a
2101.956	n/a	PROB	1050978	n/a	LTP086	ltpFR	11	n/a	n/a	n/a	n/a	n/a	n/a	n/a	17	8	2	7	n/a	n/a	n/a	n/a	n/a
2106.8	n/a	STOP	1053400	n/a	LTP086	ltpFR	11	n/a	n/a	n/a	n/a	n/a	n/a	n/a	n/a	n/a	n/a	n/a	n/a	n/a	n/a	n/a	n/a
2107.898	n/a	WORD	1053949	wordpools/wasnorm_wordpool.txt	LTP086	ltpFR	11	9	1	REFEREE	1178	n/a	n/a	2	n/a	0	0	0	0.57763671875	0.412841796875	1	lower	zerothre.ttf
2108.006	n/a	KEY_MSG	1054003	n/a	LTP086	ltpFR	11	9	n/a	n/a	n/a	n/a	n/a	n/a	n/a	0	0	0	n/a	n/a	n/a	n/a	n/a
2110.908	n/a	START	1055454	n/a	LTP086	ltpFR	11	n/a	n/a	n/a	n/a	n/a	n/a	n/a	n/a	n/a	n/a	n/a	n/a	n/a	n/a	n/a	n/a
2111.79	n/a	PROB	1055895	n/a	LTP086	ltpFR	11	n/a	n/a	n/a	n/a	n/a	n/a	n/a	9	1	7	1	n/a	n/a	n/a	n/a	n/a
2113.274	n/a	PROB	1056637	n/a	LTP086	ltpFR	11	n/a	n/a	n/a	n/a	n/a	n/a	n/a	8	5	2	1	n/a	n/a	n/a	n/a	n/a
2115.08	n/a	PROB	1057540	n/a	LTP086	ltpFR	11	n/a	n/a	n/a	n/a	n/a	n/a	n/a	11	2	2	7	n/a	n/a	n/a	n/a	n/a
2117.96	n/a	STOP	1058980	n/a	LTP086	ltpFR	11	n/a	n/a	n/a	n/a	n/a	n/a	n/a	n/a	n/a	n/a	n/a	n/a	n/a	n/a	n/a	n/a
2119.798	n/a	WORD	1059899	wordpools/wasnorm_wordpool.txt	LTP086	ltpFR	11	9	1	BENCH	121	n/a	n/a	0	n/a	0	0	0	0.57763671875	0.412841796875	1	lower	zerothre.ttf
2122.806	n/a	START	1061403	n/a	LTP086	ltpFR	11	n/a	n/a	n/a	n/a	n/a	n/a	n/a	n/a	n/a	n/a	n/a	n/a	n/a	n/a	n/a	n/a
2123.782	n/a	PROB	1061891	n/a	LTP086	ltpFR	11	n/a	n/a	n/a	n/a	n/a	n/a	n/a	15	4	6	5	n/a	n/a	n/a	n/a	n/a
2130.808	n/a	STOP	1065404	n/a	LTP086	ltpFR	11	n/a	n/a	n/a	n/a	n/a	n/a	n/a	n/a	n/a	n/a	n/a	n/a	n/a	n/a	n/a	n/a
2131.656	n/a	WORD	1065828	wordpools/wasnorm_wordpool.txt	LTP086	ltpFR	11	9	1	DESK	452	n/a	n/a	0	n/a	0	0	0	0.57763671875	0.412841796875	1	lower	zerothre.ttf
2134.666	n/a	START	1067333	n/a	LTP086	ltpFR	11	n/a	n/a	n/a	n/a	n/a	n/a	n/a	n/a	n/a	n/a	n/a	n/a	n/a	n/a	n/a	n/a
2135.864	n/a	PROB	1067932	n/a	LTP086	ltpFR	11	n/a	n/a	n/a	n/a	n/a	n/a	n/a	6	1	3	2	n/a	n/a	n/a	n/a	n/a
2138.34	n/a	PROB	1069170	n/a	LTP086	ltpFR	11	n/a	n/a	n/a	n/a	n/a	n/a	n/a	16	3	9	4	n/a	n/a	n/a	n/a	n/a
2141.49	n/a	STOP	1070745	n/a	LTP086	ltpFR	11	n/a	n/a	n/a	n/a	n/a	n/a	n/a	n/a	n/a	n/a	n/a	n/a	n/a	n/a	n/a	n/a
2143.756	n/a	WORD	1071878	wordpools/wasnorm_wordpool.txt	LTP086	ltpFR	11	9	1	INVENTOR	743	n/a	n/a	0	n/a	0	0	0	0.57763671875	0.412841796875	1	lower	zerothre.ttf
2146.764	n/a	START	1073382	n/a	LTP086	ltpFR	11	n/a	n/a	n/a	n/a	n/a	n/a	n/a	n/a	n/a	n/a	n/a	n/a	n/a	n/a	n/a	n/a
2147.748	n/a	PROB	1073874	n/a	LTP086	ltpFR	11	n/a	n/a	n/a	n/a	n/a	n/a	n/a	21	8	9	4	n/a	n/a	n/a	n/a	n/a
2153.038	n/a	PROB	1076519	n/a	LTP086	ltpFR	11	n/a	n/a	n/a	n/a	n/a	n/a	n/a	18	6	6	6	n/a	n/a	n/a	n/a	n/a
2154.41	n/a	STOP	1077205	n/a	LTP086	ltpFR	11	n/a	n/a	n/a	n/a	n/a	n/a	n/a	n/a	n/a	n/a	n/a	n/a	n/a	n/a	n/a	n/a
2155.78	n/a	WORD	1077890	wordpools/wasnorm_wordpool.txt	LTP086	ltpFR	11	9	0	BARK	87	n/a	n/a	2	n/a	0	0	0	0.422607421875	0.5869140625	0	upper	amplitud.ttf
2156.08	n/a	KEY_MSG	1078040	n/a	LTP086	ltpFR	11	9	n/a	n/a	n/a	n/a	n/a	n/a	n/a	0	0	0	n/a	n/a	n/a	n/a	n/a
2158.78	n/a	START	1079390	n/a	LTP086	ltpFR	11	n/a	n/a	n/a	n/a	n/a	n/a	n/a	n/a	n/a	n/a	n/a	n/a	n/a	n/a	n/a	n/a
2159.798	n/a	PROB	1079899	n/a	LTP086	ltpFR	11	n/a	n/a	n/a	n/a	n/a	n/a	n/a	11	2	8	1	n/a	n/a	n/a	n/a	n/a
2161.648	n/a	PROB	1080824	n/a	LTP086	ltpFR	11	n/a	n/a	n/a	n/a	n/a	n/a	n/a	14	4	6	4	n/a	n/a	n/a	n/a	n/a
2163.146	n/a	PROB	1081573	n/a	LTP086	ltpFR	11	n/a	n/a	n/a	n/a	n/a	n/a	n/a	19	4	6	9	n/a	n/a	n/a	n/a	n/a
2166.78	n/a	STOP	1083390	n/a	LTP086	ltpFR	11	n/a	n/a	n/a	n/a	n/a	n/a	n/a	n/a	n/a	n/a	n/a	n/a	n/a	n/a	n/a	n/a
2167.622	n/a	WORD	1083811	wordpools/wasnorm_wordpool.txt	LTP086	ltpFR	11	9	0	BLUEJAY	141	n/a	n/a	0	n/a	0	0	0	0.422607421875	0.5869140625	0	upper	amplitud.ttf
2170.632	n/a	START	1085316	n/a	LTP086	ltpFR	11	n/a	n/a	n/a	n/a	n/a	n/a	n/a	n/a	n/a	n/a	n/a	n/a	n/a	n/a	n/a	n/a
2171.448	n/a	PROB	1085724	n/a	LTP086	ltpFR	11	n/a	n/a	n/a	n/a	n/a	n/a	n/a	23	8	8	7	n/a	n/a	n/a	n/a	n/a
2174.964	n/a	PROB	1087482	n/a	LTP086	ltpFR	11	n/a	n/a	n/a	n/a	n/a	n/a	n/a	14	7	4	3	n/a	n/a	n/a	n/a	n/a
2177.628	n/a	STOP	1088814	n/a	LTP086	ltpFR	11	n/a	n/a	n/a	n/a	n/a	n/a	n/a	n/a	n/a	n/a	n/a	n/a	n/a	n/a	n/a	n/a
2179.504	n/a	WORD	1089752	wordpools/wasnorm_wordpool.txt	LTP086	ltpFR	11	9	0	PICTURE	1061	n/a	n/a	0	n/a	0	0	0	0.422607421875	0.5869140625	0	upper	amplitud.ttf
2182.506	n/a	START	1091253	n/a	LTP086	ltpFR	11	n/a	n/a	n/a	n/a	n/a	n/a	n/a	n/a	n/a	n/a	n/a	n/a	n/a	n/a	n/a	n/a
2183.704	n/a	PROB	1091852	n/a	LTP086	ltpFR	11	n/a	n/a	n/a	n/a	n/a	n/a	n/a	198	8	2	9	n/a	n/a	n/a	n/a	n/a
2184.946	n/a	PROB	1092473	n/a	LTP086	ltpFR	11	n/a	n/a	n/a	n/a	n/a	n/a	n/a	17	5	8	4	n/a	n/a	n/a	n/a	n/a
2190.132	n/a	STOP	1095066	n/a	LTP086	ltpFR	11	n/a	n/a	n/a	n/a	n/a	n/a	n/a	n/a	n/a	n/a	n/a	n/a	n/a	n/a	n/a	n/a
2191.63	n/a	WORD	1095815	wordpools/wasnorm_wordpool.txt	LTP086	ltpFR	11	9	1	WAGON	1578	n/a	n/a	0	n/a	0	0	0	0.57763671875	0.412841796875	1	lower	zerothre.ttf
2194.638	n/a	START	1097319	n/a	LTP086	ltpFR	11	n/a	n/a	n/a	n/a	n/a	n/a	n/a	n/a	n/a	n/a	n/a	n/a	n/a	n/a	n/a	n/a
2195.696	n/a	PROB	1097848	n/a	LTP086	ltpFR	11	n/a	n/a	n/a	n/a	n/a	n/a	n/a	21	5	8	8	n/a	n/a	n/a	n/a	n/a
2200.012	n/a	PROB	1100006	n/a	LTP086	ltpFR	11	n/a	n/a	n/a	n/a	n/a	n/a	n/a	12	4	6	2	n/a	n/a	n/a	n/a	n/a
2201.468	n/a	STOP	1100734	n/a	LTP086	ltpFR	11	n/a	n/a	n/a	n/a	n/a	n/a	n/a	n/a	n/a	n/a	n/a	n/a	n/a	n/a	n/a	n/a
2203.57	n/a	WORD	1101785	wordpools/wasnorm_wordpool.txt	LTP086	ltpFR	11	9	1	PONY	1102	n/a	n/a	0	n/a	0	0	0	0.57763671875	0.412841796875	1	lower	zerothre.ttf
2206.572	n/a	START	1103286	n/a	LTP086	ltpFR	11	n/a	n/a	n/a	n/a	n/a	n/a	n/a	n/a	n/a	n/a	n/a	n/a	n/a	n/a	n/a	n/a
2207.654	n/a	PROB	1103827	n/a	LTP086	ltpFR	11	n/a	n/a	n/a	n/a	n/a	n/a	n/a	17	1	8	8	n/a	n/a	n/a	n/a	n/a
2214.572	n/a	STOP	1107286	n/a	LTP086	ltpFR	11	n/a	n/a	n/a	n/a	n/a	n/a	n/a	n/a	n/a	n/a	n/a	n/a	n/a	n/a	n/a	n/a
2215.562	n/a	WORD	1107781	wordpools/wasnorm_wordpool.txt	LTP086	ltpFR	11	9	1	JAM	748	n/a	n/a	0	n/a	0	0	0	0.57763671875	0.412841796875	1	lower	zerothre.ttf
2218.572	n/a	START	1109286	n/a	LTP086	ltpFR	11	n/a	n/a	n/a	n/a	n/a	n/a	n/a	n/a	n/a	n/a	n/a	n/a	n/a	n/a	n/a	n/a
2219.538	n/a	PROB	1109769	n/a	LTP086	ltpFR	11	n/a	n/a	n/a	n/a	n/a	n/a	n/a	15	3	3	9	n/a	n/a	n/a	n/a	n/a
2222.028	n/a	PROB	1111014	n/a	LTP086	ltpFR	11	n/a	n/a	n/a	n/a	n/a	n/a	n/a	14	5	3	6	n/a	n/a	n/a	n/a	n/a
2226.572	n/a	STOP	1113286	n/a	LTP086	ltpFR	11	n/a	n/a	n/a	n/a	n/a	n/a	n/a	n/a	n/a	n/a	n/a	n/a	n/a	n/a	n/a	n/a
2227.47	n/a	WORD	1113735	wordpools/wasnorm_wordpool.txt	LTP086	ltpFR	11	9	1	TREE	1502	n/a	n/a	0	n/a	0	0	0	0.57763671875	0.412841796875	1	lower	zerothre.ttf
2230.48	n/a	START	1115240	n/a	LTP086	ltpFR	11	n/a	n/a	n/a	n/a	n/a	n/a	n/a	n/a	n/a	n/a	n/a	n/a	n/a	n/a	n/a	n/a
2231.37	n/a	PROB	1115685	n/a	LTP086	ltpFR	11	n/a	n/a	n/a	n/a	n/a	n/a	n/a	17	8	3	6	n/a	n/a	n/a	n/a	n/a
2234.62	n/a	PROB	1117310	n/a	LTP086	ltpFR	11	n/a	n/a	n/a	n/a	n/a	n/a	n/a	19	9	6	4	n/a	n/a	n/a	n/a	n/a
2236.036	n/a	PROB	1118018	n/a	LTP086	ltpFR	11	n/a	n/a	n/a	n/a	n/a	n/a	n/a	19	4	7	8	n/a	n/a	n/a	n/a	n/a
2238.198	n/a	STOP	1119099	n/a	LTP086	ltpFR	11	n/a	n/a	n/a	n/a	n/a	n/a	n/a	n/a	n/a	n/a	n/a	n/a	n/a	n/a	n/a	n/a
2239.296	n/a	WORD	1119648	wordpools/wasnorm_wordpool.txt	LTP086	ltpFR	11	9	0	WAVE	1596	n/a	n/a	2	n/a	0	0	0	0.422607421875	0.5869140625	0	upper	amplitud.ttf
2239.596	n/a	KEY_MSG	1119798	n/a	LTP086	ltpFR	11	9	n/a	n/a	n/a	n/a	n/a	n/a	n/a	0	0	0	n/a	n/a	n/a	n/a	n/a
2242.304	n/a	START	1121152	n/a	LTP086	ltpFR	11	n/a	n/a	n/a	n/a	n/a	n/a	n/a	n/a	n/a	n/a	n/a	n/a	n/a	n/a	n/a	n/a
2243.16	n/a	PROB	1121580	n/a	LTP086	ltpFR	11	n/a	n/a	n/a	n/a	n/a	n/a	n/a	14	5	5	4	n/a	n/a	n/a	n/a	n/a
2245.578	n/a	PROB	1122789	n/a	LTP086	ltpFR	11	n/a	n/a	n/a	n/a	n/a	n/a	n/a	24	9	9	6	n/a	n/a	n/a	n/a	n/a
2250.15	n/a	STOP	1125075	n/a	LTP086	ltpFR	11	n/a	n/a	n/a	n/a	n/a	n/a	n/a	n/a	n/a	n/a	n/a	n/a	n/a	n/a	n/a	n/a
2251.128	n/a	WORD	1125564	wordpools/wasnorm_wordpool.txt	LTP086	ltpFR	11	9	0	JELLY	755	n/a	n/a	2	n/a	0	0	0	0.422607421875	0.5869140625	0	upper	amplitud.ttf
2251.954	n/a	KEY_MSG	1125977	n/a	LTP086	ltpFR	11	9	n/a	n/a	n/a	n/a	n/a	n/a	n/a	0	0	0	n/a	n/a	n/a	n/a	n/a
2254.136	n/a	START	1127068	n/a	LTP086	ltpFR	11	n/a	n/a	n/a	n/a	n/a	n/a	n/a	n/a	n/a	n/a	n/a	n/a	n/a	n/a	n/a	n/a
2255.212	n/a	PROB	1127606	n/a	LTP086	ltpFR	11	n/a	n/a	n/a	n/a	n/a	n/a	n/a	15	5	9	1	n/a	n/a	n/a	n/a	n/a
2256.478	n/a	PROB	1128239	n/a	LTP086	ltpFR	11	n/a	n/a	n/a	n/a	n/a	n/a	n/a	25	9	6	9	n/a	n/a	n/a	n/a	n/a
2261.63	n/a	STOP	1130815	n/a	LTP086	ltpFR	11	n/a	n/a	n/a	n/a	n/a	n/a	n/a	n/a	n/a	n/a	n/a	n/a	n/a	n/a	n/a	n/a
2263.06	n/a	WORD	1131530	wordpools/wasnorm_wordpool.txt	LTP086	ltpFR	11	9	0	DICE	461	n/a	n/a	0	n/a	0	0	0	0.422607421875	0.5869140625	0	upper	amplitud.ttf
2266.06	n/a	START	1133030	n/a	LTP086	ltpFR	11	n/a	n/a	n/a	n/a	n/a	n/a	n/a	n/a	n/a	n/a	n/a	n/a	n/a	n/a	n/a	n/a
2267.034	n/a	PROB	1133517	n/a	LTP086	ltpFR	11	n/a	n/a	n/a	n/a	n/a	n/a	n/a	15	8	4	1	n/a	n/a	n/a	n/a	n/a
2274.062	n/a	STOP	1137031	n/a	LTP086	ltpFR	11	n/a	n/a	n/a	n/a	n/a	n/a	n/a	n/a	n/a	n/a	n/a	n/a	n/a	n/a	n/a	n/a
2275.804	n/a	REC_START	1137902	n/a	LTP086	ltpFR	11	9	n/a	n/a	n/a	n/a	n/a	n/a	n/a	0	0	0	n/a	n/a	n/a	n/a	n/a
2276.716	n/a	REC_WORD	1138358	wordpools/wasnorm_wordpool.txt	LTP086	ltpFR	11	9	0	DICE	461	n/a	n/a	0	n/a	0	0	0	n/a	n/a	n/a	n/a	n/a
2295.52	n/a	REC_WORD_VV	1147760	wordpools/wasnorm_wordpool.txt	LTP086	ltpFR	11	9	n/a	<>	-1	n/a	n/a	n/a	n/a	0	0	0	n/a	n/a	n/a	n/a	n/a
2383.466	n/a	WORD	1191733	wordpools/wasnorm_wordpool.txt	LTP086	ltpFR	11	10	1	TAIL	1430	n/a	n/a	0	n/a	0	0	0	0.57763671875	0.412841796875	1	lower	zerothre.ttf
2387.616	n/a	WORD	1193808	wordpools/wasnorm_wordpool.txt	LTP086	ltpFR	11	10	1	CUPBOARD	425	n/a	n/a	0	n/a	0	0	0	0.57763671875	0.412841796875	1	lower	zerothre.ttf
2391.684	n/a	WORD	1195842	wordpools/wasnorm_wordpool.txt	LTP086	ltpFR	11	10	1	BAKER	71	n/a	n/a	1	n/a	0	0	0	0.57763671875	0.412841796875	1	lower	zerothre.ttf
2395.524	n/a	WORD	1197762	wordpools/wasnorm_wordpool.txt	LTP086	ltpFR	11	10	1	BOTTLE	153	n/a	n/a	0	n/a	0	0	0	0.57763671875	0.412841796875	1	lower	zerothre.ttf
2399.492	n/a	WORD	1199746	wordpools/wasnorm_wordpool.txt	LTP086	ltpFR	11	10	1	CHAUFFEUR	283	n/a	n/a	1	n/a	0	0	0	0.57763671875	0.412841796875	1	lower	zerothre.ttf
2403.574	n/a	WORD	1201787	wordpools/wasnorm_wordpool.txt	LTP086	ltpFR	11	10	1	SAUSAGE	1238	n/a	n/a	1	n/a	0	0	0	0.57763671875	0.412841796875	1	lower	zerothre.ttf
2407.392	n/a	WORD	1203696	wordpools/wasnorm_wordpool.txt	LTP086	ltpFR	11	10	1	MICROSCOPE	891	n/a	n/a	0	n/a	0	0	0	0.57763671875	0.412841796875	1	lower	zerothre.ttf
2411.374	n/a	WORD	1205687	wordpools/wasnorm_wordpool.txt	LTP086	ltpFR	11	10	1	MOLECULE	905	n/a	n/a	0	n/a	0	0	0	0.57763671875	0.412841796875	1	lower	zerothre.ttf
2415.308	n/a	WORD	1207654	wordpools/wasnorm_wordpool.txt	LTP086	ltpFR	11	10	1	DRINK	498	n/a	n/a	0	n/a	0	0	0	0.57763671875	0.412841796875	1	lower	zerothre.ttf
2419.232	n/a	WORD	1209616	wordpools/wasnorm_wordpool.txt	LTP086	ltpFR	11	10	1	BATTERY	101	n/a	n/a	0	n/a	0	0	0	0.57763671875	0.412841796875	1	lower	zerothre.ttf
2423.432	n/a	WORD	1211716	wordpools/wasnorm_wordpool.txt	LTP086	ltpFR	11	10	1	LAMP	798	n/a	n/a	0	n/a	0	0	0	0.57763671875	0.412841796875	1	lower	zerothre.ttf
2427.432	n/a	WORD	1213716	wordpools/wasnorm_wordpool.txt	LTP086	ltpFR	11	10	1	PLUTO	1092	n/a	n/a	0	n/a	0	0	0	0.57763671875	0.412841796875	1	lower	zerothre.ttf
2431.482	n/a	WORD	1215741	wordpools/wasnorm_wordpool.txt	LTP086	ltpFR	11	10	1	SHEEP	1278	n/a	n/a	1	n/a	0	0	0	0.57763671875	0.412841796875	1	lower	zerothre.ttf
2435.498	n/a	WORD	1217749	wordpools/wasnorm_wordpool.txt	LTP086	ltpFR	11	10	1	SCARF	1246	n/a	n/a	0	n/a	0	0	0	0.57763671875	0.412841796875	1	lower	zerothre.ttf
2439.432	n/a	WORD	1219716	wordpools/wasnorm_wordpool.txt	LTP086	ltpFR	11	10	1	HOSTAGE	722	n/a	n/a	1	n/a	0	0	0	0.57763671875	0.412841796875	1	lower	zerothre.ttf
2443.574	n/a	WORD	1221787	wordpools/wasnorm_wordpool.txt	LTP086	ltpFR	11	10	1	PRISON	1127	n/a	n/a	0	n/a	0	0	0	0.57763671875	0.412841796875	1	lower	zerothre.ttf
2446.582	n/a	START	1223291	n/a	LTP086	ltpFR	11	n/a	n/a	n/a	n/a	n/a	n/a	n/a	n/a	n/a	n/a	n/a	n/a	n/a	n/a	n/a	n/a
2447.448	n/a	PROB	1223724	n/a	LTP086	ltpFR	11	n/a	n/a	n/a	n/a	n/a	n/a	n/a	16	3	5	8	n/a	n/a	n/a	n/a	n/a
2451.148	n/a	PROB	1225574	n/a	LTP086	ltpFR	11	n/a	n/a	n/a	n/a	n/a	n/a	n/a	14	6	7	1	n/a	n/a	n/a	n/a	n/a
2453.574	n/a	PROB	1226787	n/a	LTP086	ltpFR	11	n/a	n/a	n/a	n/a	n/a	n/a	n/a	23	8	8	5	n/a	n/a	n/a	n/a	n/a
2457.282	n/a	PROB	1228641	n/a	LTP086	ltpFR	11	n/a	n/a	n/a	n/a	n/a	n/a	n/a	7	3	2	2	n/a	n/a	n/a	n/a	n/a
2462.582	n/a	STOP	1231291	n/a	LTP086	ltpFR	11	n/a	n/a	n/a	n/a	n/a	n/a	n/a	n/a	n/a	n/a	n/a	n/a	n/a	n/a	n/a	n/a
2464.414	n/a	REC_START	1232207	n/a	LTP086	ltpFR	11	10	n/a	n/a	n/a	n/a	n/a	n/a	n/a	0	0	0	n/a	n/a	n/a	n/a	n/a
2465.214	n/a	REC_WORD	1232607	wordpools/wasnorm_wordpool.txt	LTP086	ltpFR	11	10	1	PRISON	1127	n/a	n/a	0	n/a	0	0	0	n/a	n/a	n/a	n/a	n/a
2465.922	n/a	REC_WORD	1232961	wordpools/wasnorm_wordpool.txt	LTP086	ltpFR	11	10	1	HOSTAGE	722	n/a	n/a	1	n/a	0	0	0	n/a	n/a	n/a	n/a	n/a
2467.104	n/a	REC_WORD	1233552	wordpools/wasnorm_wordpool.txt	LTP086	ltpFR	11	10	1	CHAUFFEUR	283	n/a	n/a	1	n/a	0	0	0	n/a	n/a	n/a	n/a	n/a
2468.112	n/a	REC_WORD	1234056	wordpools/wasnorm_wordpool.txt	LTP086	ltpFR	11	10	1	BOTTLE	153	n/a	n/a	0	n/a	0	0	0	n/a	n/a	n/a	n/a	n/a
2468.818	n/a	REC_WORD	1234409	wordpools/wasnorm_wordpool.txt	LTP086	ltpFR	11	10	1	MICROSCOPE	891	n/a	n/a	0	n/a	0	0	0	n/a	n/a	n/a	n/a	n/a
2469.738	n/a	REC_WORD	1234869	wordpools/wasnorm_wordpool.txt	LTP086	ltpFR	11	10	1	MOLECULE	905	n/a	n/a	0	n/a	0	0	0	n/a	n/a	n/a	n/a	n/a
2472.428	n/a	REC_WORD_VV	1236214	wordpools/wasnorm_wordpool.txt	LTP086	ltpFR	11	10	n/a	<>	-1	n/a	n/a	n/a	n/a	0	0	0	n/a	n/a	n/a	n/a	n/a
2476.896	n/a	REC_WORD_VV	1238448	wordpools/wasnorm_wordpool.txt	LTP086	ltpFR	11	10	n/a	<>	-1	n/a	n/a	n/a	n/a	0	0	0	n/a	n/a	n/a	n/a	n/a
2477.896	n/a	REC_WORD_VV	1238948	wordpools/wasnorm_wordpool.txt	LTP086	ltpFR	11	10	n/a	<>	-1	n/a	n/a	n/a	n/a	0	0	0	n/a	n/a	n/a	n/a	n/a
2540.012	n/a	REST_REWET	1270006	n/a	LTP086	ltpFR	11	10	n/a	n/a	n/a	n/a	n/a	n/a	n/a	0	0	0	n/a	n/a	n/a	n/a	n/a
2872.63	n/a	START	1436315	n/a	LTP086	ltpFR	11	n/a	n/a	n/a	n/a	n/a	n/a	n/a	n/a	n/a	n/a	n/a	n/a	n/a	n/a	n/a	n/a
2874.136	n/a	PROB	1437068	n/a	LTP086	ltpFR	11	n/a	n/a	n/a	n/a	n/a	n/a	n/a	13	9	2	2	n/a	n/a	n/a	n/a	n/a
2877.72	n/a	PROB	1438860	n/a	LTP086	ltpFR	11	n/a	n/a	n/a	n/a	n/a	n/a	n/a	21	8	6	7	n/a	n/a	n/a	n/a	n/a
2883.238	n/a	PROB	1441619	n/a	LTP086	ltpFR	11	n/a	n/a	n/a	n/a	n/a	n/a	n/a	15	8	2	5	n/a	n/a	n/a	n/a	n/a
2885.02	n/a	PROB	1442510	n/a	LTP086	ltpFR	11	n/a	n/a	n/a	n/a	n/a	n/a	n/a	9	2	2	5	n/a	n/a	n/a	n/a	n/a
2887.166	n/a	STOP	1443583	n/a	LTP086	ltpFR	11	n/a	n/a	n/a	n/a	n/a	n/a	n/a	n/a	n/a	n/a	n/a	n/a	n/a	n/a	n/a	n/a
2889.446	n/a	WORD	1444723	wordpools/wasnorm_wordpool.txt	LTP086	ltpFR	11	11	0	DRYER	503	n/a	n/a	0	n/a	0	0	0	0.422607421875	0.5869140625	0	upper	amplitud.ttf
2892.454	n/a	START	1446227	n/a	LTP086	ltpFR	11	n/a	n/a	n/a	n/a	n/a	n/a	n/a	n/a	n/a	n/a	n/a	n/a	n/a	n/a	n/a	n/a
2893.478	n/a	PROB	1446739	n/a	LTP086	ltpFR	11	n/a	n/a	n/a	n/a	n/a	n/a	n/a	17	5	6	6	n/a	n/a	n/a	n/a	n/a
2896.086	n/a	PROB	1448043	n/a	LTP086	ltpFR	11	n/a	n/a	n/a	n/a	n/a	n/a	n/a	20	5	6	9	n/a	n/a	n/a	n/a	n/a
2899.454	n/a	PROB	1449727	n/a	LTP086	ltpFR	11	n/a	n/a	n/a	n/a	n/a	n/a	n/a	10	2	4	4	n/a	n/a	n/a	n/a	n/a
2902.086	n/a	PROB	1451043	n/a	LTP086	ltpFR	11	n/a	n/a	n/a	n/a	n/a	n/a	n/a	10	4	3	3	n/a	n/a	n/a	n/a	n/a
2908.456	n/a	STOP	1454228	n/a	LTP086	ltpFR	11	n/a	n/a	n/a	n/a	n/a	n/a	n/a	n/a	n/a	n/a	n/a	n/a	n/a	n/a	n/a	n/a
2909.512	n/a	WORD	1454756	wordpools/wasnorm_wordpool.txt	LTP086	ltpFR	11	11	0	COMB	351	n/a	n/a	0	n/a	0	0	0	0.422607421875	0.5869140625	0	upper	amplitud.ttf
2912.52	n/a	START	1456260	n/a	LTP086	ltpFR	11	n/a	n/a	n/a	n/a	n/a	n/a	n/a	n/a	n/a	n/a	n/a	n/a	n/a	n/a	n/a	n/a
2913.636	n/a	PROB	1456818	n/a	LTP086	ltpFR	11	n/a	n/a	n/a	n/a	n/a	n/a	n/a	20	7	7	6	n/a	n/a	n/a	n/a	n/a
2916.212	n/a	PROB	1458106	n/a	LTP086	ltpFR	11	n/a	n/a	n/a	n/a	n/a	n/a	n/a	14	8	2	4	n/a	n/a	n/a	n/a	n/a
2918.586	n/a	PROB	1459293	n/a	LTP086	ltpFR	11	n/a	n/a	n/a	n/a	n/a	n/a	n/a	1	7	1	2	n/a	n/a	n/a	n/a	n/a
2920.57	n/a	PROB	1460285	n/a	LTP086	ltpFR	11	n/a	n/a	n/a	n/a	n/a	n/a	n/a	12	3	5	4	n/a	n/a	n/a	n/a	n/a
2923.82	n/a	PROB	1461910	n/a	LTP086	ltpFR	11	n/a	n/a	n/a	n/a	n/a	n/a	n/a	15	3	6	6	n/a	n/a	n/a	n/a	n/a
2928.522	n/a	STOP	1464261	n/a	LTP086	ltpFR	11	n/a	n/a	n/a	n/a	n/a	n/a	n/a	n/a	n/a	n/a	n/a	n/a	n/a	n/a	n/a	n/a
2929.644	n/a	WORD	1464822	wordpools/wasnorm_wordpool.txt	LTP086	ltpFR	11	11	0	CONDUCTOR	362	n/a	n/a	0	n/a	0	0	0	0.422607421875	0.5869140625	0	upper	amplitud.ttf
2932.654	n/a	START	1466327	n/a	LTP086	ltpFR	11	n/a	n/a	n/a	n/a	n/a	n/a	n/a	n/a	n/a	n/a	n/a	n/a	n/a	n/a	n/a	n/a
2933.76	n/a	PROB	1466880	n/a	LTP086	ltpFR	11	n/a	n/a	n/a	n/a	n/a	n/a	n/a	12	2	1	9	n/a	n/a	n/a	n/a	n/a
2935.61	n/a	PROB	1467805	n/a	LTP086	ltpFR	11	n/a	n/a	n/a	n/a	n/a	n/a	n/a	10	5	3	2	n/a	n/a	n/a	n/a	n/a
2938.102	n/a	PROB	1469051	n/a	LTP086	ltpFR	11	n/a	n/a	n/a	n/a	n/a	n/a	n/a	15	4	2	9	n/a	n/a	n/a	n/a	n/a
2943.994	n/a	PROB	1471997	n/a	LTP086	ltpFR	11	n/a	n/a	n/a	n/a	n/a	n/a	n/a	15	6	6	3	n/a	n/a	n/a	n/a	n/a
2948.654	n/a	STOP	1474327	n/a	LTP086	ltpFR	11	n/a	n/a	n/a	n/a	n/a	n/a	n/a	n/a	n/a	n/a	n/a	n/a	n/a	n/a	n/a	n/a
2949.67	n/a	WORD	1474835	wordpools/wasnorm_wordpool.txt	LTP086	ltpFR	11	11	0	VIDEO	1564	n/a	n/a	0	n/a	0	0	0	0.422607421875	0.5869140625	0	upper	amplitud.ttf
2952.678	n/a	START	1476339	n/a	LTP086	ltpFR	11	n/a	n/a	n/a	n/a	n/a	n/a	n/a	n/a	n/a	n/a	n/a	n/a	n/a	n/a	n/a	n/a
2953.718	n/a	PROB	1476859	n/a	LTP086	ltpFR	11	n/a	n/a	n/a	n/a	n/a	n/a	n/a	9	2	1	6	n/a	n/a	n/a	n/a	n/a
2956.018	n/a	PROB	1478009	n/a	LTP086	ltpFR	11	n/a	n/a	n/a	n/a	n/a	n/a	n/a	21	6	6	9	n/a	n/a	n/a	n/a	n/a
2960.77	n/a	PROB	1480385	n/a	LTP086	ltpFR	11	n/a	n/a	n/a	n/a	n/a	n/a	n/a	11	6	3	2	n/a	n/a	n/a	n/a	n/a
2966.01	n/a	PROB	1483005	n/a	LTP086	ltpFR	11	n/a	n/a	n/a	n/a	n/a	n/a	n/a	10	1	1	8	n/a	n/a	n/a	n/a	n/a
2967.908	n/a	STOP	1483954	n/a	LTP086	ltpFR	11	n/a	n/a	n/a	n/a	n/a	n/a	n/a	n/a	n/a	n/a	n/a	n/a	n/a	n/a	n/a	n/a
2969.836	n/a	WORD	1484918	wordpools/wasnorm_wordpool.txt	LTP086	ltpFR	11	11	0	FRANCE	601	n/a	n/a	0	n/a	0	0	0	0.422607421875	0.5869140625	0	upper	amplitud.ttf
2972.852	n/a	START	1486426	n/a	LTP086	ltpFR	11	n/a	n/a	n/a	n/a	n/a	n/a	n/a	n/a	n/a	n/a	n/a	n/a	n/a	n/a	n/a	n/a
2973.936	n/a	PROB	1486968	n/a	LTP086	ltpFR	11	n/a	n/a	n/a	n/a	n/a	n/a	n/a	25	8	9	8	n/a	n/a	n/a	n/a	n/a
2979.042	n/a	PROB	1489521	n/a	LTP086	ltpFR	11	n/a	n/a	n/a	n/a	n/a	n/a	n/a	15	5	1	9	n/a	n/a	n/a	n/a	n/a
2983.092	n/a	PROB	1491546	n/a	LTP086	ltpFR	11	n/a	n/a	n/a	n/a	n/a	n/a	n/a	17	8	4	5	n/a	n/a	n/a	n/a	n/a
2987.876	n/a	STOP	1493938	n/a	LTP086	ltpFR	11	n/a	n/a	n/a	n/a	n/a	n/a	n/a	n/a	n/a	n/a	n/a	n/a	n/a	n/a	n/a	n/a
2990.034	n/a	WORD	1495017	wordpools/wasnorm_wordpool.txt	LTP086	ltpFR	11	11	0	PAINTING	1005	n/a	n/a	0	n/a	0	0	0	0.422607421875	0.5869140625	0	upper	amplitud.ttf
2993.042	n/a	START	1496521	n/a	LTP086	ltpFR	11	n/a	n/a	n/a	n/a	n/a	n/a	n/a	n/a	n/a	n/a	n/a	n/a	n/a	n/a	n/a	n/a
2994.158	n/a	PROB	1497079	n/a	LTP086	ltpFR	11	n/a	n/a	n/a	n/a	n/a	n/a	n/a	13	3	5	5	n/a	n/a	n/a	n/a	n/a
2995.752	n/a	PROB	1497876	n/a	LTP086	ltpFR	11	n/a	n/a	n/a	n/a	n/a	n/a	n/a	10	1	5	4	n/a	n/a	n/a	n/a	n/a
2997.518	n/a	PROB	1498759	n/a	LTP086	ltpFR	11	n/a	n/a	n/a	n/a	n/a	n/a	n/a	16	4	9	3	n/a	n/a	n/a	n/a	n/a
3001.002	n/a	PROB	1500501	n/a	LTP086	ltpFR	11	n/a	n/a	n/a	n/a	n/a	n/a	n/a	16	1	8	7	n/a	n/a	n/a	n/a	n/a
3009.044	n/a	STOP	1504522	n/a	LTP086	ltpFR	11	n/a	n/a	n/a	n/a	n/a	n/a	n/a	n/a	n/a	n/a	n/a	n/a	n/a	n/a	n/a	n/a
3009.86	n/a	WORD	1504930	wordpools/wasnorm_wordpool.txt	LTP086	ltpFR	11	11	0	SCULPTURE	1258	n/a	n/a	0	n/a	0	0	0	0.422607421875	0.5869140625	0	upper	amplitud.ttf
3012.868	n/a	START	1506434	n/a	LTP086	ltpFR	11	n/a	n/a	n/a	n/a	n/a	n/a	n/a	n/a	n/a	n/a	n/a	n/a	n/a	n/a	n/a	n/a
3013.876	n/a	PROB	1506938	n/a	LTP086	ltpFR	11	n/a	n/a	n/a	n/a	n/a	n/a	n/a	19	7	6	6	n/a	n/a	n/a	n/a	n/a
3017.31	n/a	PROB	1508655	n/a	LTP086	ltpFR	11	n/a	n/a	n/a	n/a	n/a	n/a	n/a	15	4	4	5	n/a	n/a	n/a	n/a	n/a
3021.36	n/a	PROB	1510680	n/a	LTP086	ltpFR	11	n/a	n/a	n/a	n/a	n/a	n/a	n/a	12	3	4	5	n/a	n/a	n/a	n/a	n/a
3028.582	n/a	STOP	1514291	n/a	LTP086	ltpFR	11	n/a	n/a	n/a	n/a	n/a	n/a	n/a	n/a	n/a	n/a	n/a	n/a	n/a	n/a	n/a	n/a
3029.742	n/a	WORD	1514871	wordpools/wasnorm_wordpool.txt	LTP086	ltpFR	11	11	0	PASSENGER	1020	n/a	n/a	0	n/a	0	0	0	0.422607421875	0.5869140625	0	upper	amplitud.ttf
3032.75	n/a	START	1516375	n/a	LTP086	ltpFR	11	n/a	n/a	n/a	n/a	n/a	n/a	n/a	n/a	n/a	n/a	n/a	n/a	n/a	n/a	n/a	n/a
3033.884	n/a	PROB	1516942	n/a	LTP086	ltpFR	11	n/a	n/a	n/a	n/a	n/a	n/a	n/a	15	5	9	1	n/a	n/a	n/a	n/a	n/a
3035.158	n/a	PROB	1517579	n/a	LTP086	ltpFR	11	n/a	n/a	n/a	n/a	n/a	n/a	n/a	13	5	1	7	n/a	n/a	n/a	n/a	n/a
3038.684	n/a	PROB	1519342	n/a	LTP086	ltpFR	11	n/a	n/a	n/a	n/a	n/a	n/a	n/a	14	2	8	4	n/a	n/a	n/a	n/a	n/a
3041.258	n/a	PROB	1520629	n/a	LTP086	ltpFR	11	n/a	n/a	n/a	n/a	n/a	n/a	n/a	8	3	2	3	n/a	n/a	n/a	n/a	n/a
3043.124	n/a	PROB	1521562	n/a	LTP086	ltpFR	11	n/a	n/a	n/a	n/a	n/a	n/a	n/a	12	3	6	3	n/a	n/a	n/a	n/a	n/a
3045.45	n/a	PROB	1522725	n/a	LTP086	ltpFR	11	n/a	n/a	n/a	n/a	n/a	n/a	n/a	13	7	1	5	n/a	n/a	n/a	n/a	n/a
3048.07	n/a	STOP	1524035	n/a	LTP086	ltpFR	11	n/a	n/a	n/a	n/a	n/a	n/a	n/a	n/a	n/a	n/a	n/a	n/a	n/a	n/a	n/a	n/a
3049.758	n/a	WORD	1524879	wordpools/wasnorm_wordpool.txt	LTP086	ltpFR	11	11	0	SCREEN	1253	n/a	n/a	1	n/a	0	0	0	0.422607421875	0.5869140625	0	upper	amplitud.ttf
3052.766	n/a	START	1526383	n/a	LTP086	ltpFR	11	n/a	n/a	n/a	n/a	n/a	n/a	n/a	n/a	n/a	n/a	n/a	n/a	n/a	n/a	n/a	n/a
3053.916	n/a	PROB	1526958	n/a	LTP086	ltpFR	11	n/a	n/a	n/a	n/a	n/a	n/a	n/a	18	9	1	8	n/a	n/a	n/a	n/a	n/a
3055.424	n/a	PROB	1527712	n/a	LTP086	ltpFR	11	n/a	n/a	n/a	n/a	n/a	n/a	n/a	3	1	1	1	n/a	n/a	n/a	n/a	n/a
3056.532	n/a	PROB	1528266	n/a	LTP086	ltpFR	11	n/a	n/a	n/a	n/a	n/a	n/a	n/a	9	2	5	3	n/a	n/a	n/a	n/a	n/a
3059.082	n/a	PROB	1529541	n/a	LTP086	ltpFR	11	n/a	n/a	n/a	n/a	n/a	n/a	n/a	9	2	4	3	n/a	n/a	n/a	n/a	n/a
3062.026	n/a	PROB	1531013	n/a	LTP086	ltpFR	11	n/a	n/a	n/a	n/a	n/a	n/a	n/a	12	7	4	1	n/a	n/a	n/a	n/a	n/a
3068.768	n/a	STOP	1534384	n/a	LTP086	ltpFR	11	n/a	n/a	n/a	n/a	n/a	n/a	n/a	n/a	n/a	n/a	n/a	n/a	n/a	n/a	n/a	n/a
3069.766	n/a	WORD	1534883	wordpools/wasnorm_wordpool.txt	LTP086	ltpFR	11	11	0	CHECKERS	285	n/a	n/a	0	n/a	0	0	0	0.422607421875	0.5869140625	0	upper	amplitud.ttf
3072.774	n/a	START	1536387	n/a	LTP086	ltpFR	11	n/a	n/a	n/a	n/a	n/a	n/a	n/a	n/a	n/a	n/a	n/a	n/a	n/a	n/a	n/a	n/a
3073.624	n/a	PROB	1536812	n/a	LTP086	ltpFR	11	n/a	n/a	n/a	n/a	n/a	n/a	n/a	12	3	6	3	n/a	n/a	n/a	n/a	n/a
3075.74	n/a	PROB	1537870	n/a	LTP086	ltpFR	11	n/a	n/a	n/a	n/a	n/a	n/a	n/a	14	1	4	9	n/a	n/a	n/a	n/a	n/a
3078.166	n/a	PROB	1539083	n/a	LTP086	ltpFR	11	n/a	n/a	n/a	n/a	n/a	n/a	n/a	103	9	2	2	n/a	n/a	n/a	n/a	n/a
3081.982	n/a	PROB	1540991	n/a	LTP086	ltpFR	11	n/a	n/a	n/a	n/a	n/a	n/a	n/a	11	7	2	2	n/a	n/a	n/a	n/a	n/a
3088.776	n/a	STOP	1544388	n/a	LTP086	ltpFR	11	n/a	n/a	n/a	n/a	n/a	n/a	n/a	n/a	n/a	n/a	n/a	n/a	n/a	n/a	n/a	n/a
3089.666	n/a	WORD	1544833	wordpools/wasnorm_wordpool.txt	LTP086	ltpFR	11	11	0	PEBBLE	1035	n/a	n/a	0	n/a	0	0	0	0.422607421875	0.5869140625	0	upper	amplitud.ttf
3092.674	n/a	START	1546337	n/a	LTP086	ltpFR	11	n/a	n/a	n/a	n/a	n/a	n/a	n/a	n/a	n/a	n/a	n/a	n/a	n/a	n/a	n/a	n/a
3093.616	n/a	PROB	1546808	n/a	LTP086	ltpFR	11	n/a	n/a	n/a	n/a	n/a	n/a	n/a	11	5	2	4	n/a	n/a	n/a	n/a	n/a
3096.682	n/a	PROB	1548341	n/a	LTP086	ltpFR	11	n/a	n/a	n/a	n/a	n/a	n/a	n/a	14	9	3	2	n/a	n/a	n/a	n/a	n/a
3099.482	n/a	PROB	1549741	n/a	LTP086	ltpFR	11	n/a	n/a	n/a	n/a	n/a	n/a	n/a	18	2	9	7	n/a	n/a	n/a	n/a	n/a
3104.932	n/a	PROB	1552466	n/a	LTP086	ltpFR	11	n/a	n/a	n/a	n/a	n/a	n/a	n/a	21	9	3	9	n/a	n/a	n/a	n/a	n/a
3108.676	n/a	STOP	1554338	n/a	LTP086	ltpFR	11	n/a	n/a	n/a	n/a	n/a	n/a	n/a	n/a	n/a	n/a	n/a	n/a	n/a	n/a	n/a	n/a
3109.54	n/a	WORD	1554770	wordpools/wasnorm_wordpool.txt	LTP086	ltpFR	11	11	0	REEF	1177	n/a	n/a	0	n/a	0	0	0	0.422607421875	0.5869140625	0	upper	amplitud.ttf
3112.548	n/a	START	1556274	n/a	LTP086	ltpFR	11	n/a	n/a	n/a	n/a	n/a	n/a	n/a	n/a	n/a	n/a	n/a	n/a	n/a	n/a	n/a	n/a
3113.456	n/a	PROB	1556728	n/a	LTP086	ltpFR	11	n/a	n/a	n/a	n/a	n/a	n/a	n/a	26	8	9	9	n/a	n/a	n/a	n/a	n/a
3116.29	n/a	PROB	1558145	n/a	LTP086	ltpFR	11	n/a	n/a	n/a	n/a	n/a	n/a	n/a	21	9	9	9	n/a	n/a	n/a	n/a	n/a
3118.74	n/a	PROB	1559370	n/a	LTP086	ltpFR	11	n/a	n/a	n/a	n/a	n/a	n/a	n/a	18	6	9	4	n/a	n/a	n/a	n/a	n/a
3123.232	n/a	PROB	1561616	n/a	LTP086	ltpFR	11	n/a	n/a	n/a	n/a	n/a	n/a	n/a	15	5	7	3	n/a	n/a	n/a	n/a	n/a
3124.782	n/a	PROB	1562391	n/a	LTP086	ltpFR	11	n/a	n/a	n/a	n/a	n/a	n/a	n/a	11	2	2	7	n/a	n/a	n/a	n/a	n/a
3127.22	n/a	STOP	1563610	n/a	LTP086	ltpFR	11	n/a	n/a	n/a	n/a	n/a	n/a	n/a	n/a	n/a	n/a	n/a	n/a	n/a	n/a	n/a	n/a
3129.422	n/a	WORD	1564711	wordpools/wasnorm_wordpool.txt	LTP086	ltpFR	11	11	0	OAR	966	n/a	n/a	0	n/a	0	0	0	0.422607421875	0.5869140625	0	upper	amplitud.ttf
3132.424	n/a	START	1566212	n/a	LTP086	ltpFR	11	n/a	n/a	n/a	n/a	n/a	n/a	n/a	n/a	n/a	n/a	n/a	n/a	n/a	n/a	n/a	n/a
3133.306	n/a	PROB	1566653	n/a	LTP086	ltpFR	11	n/a	n/a	n/a	n/a	n/a	n/a	n/a	20	9	2	9	n/a	n/a	n/a	n/a	n/a
3135.44	n/a	PROB	1567720	n/a	LTP086	ltpFR	11	n/a	n/a	n/a	n/a	n/a	n/a	n/a	20	3	8	9	n/a	n/a	n/a	n/a	n/a
3139.856	n/a	PROB	1569928	n/a	LTP086	ltpFR	11	n/a	n/a	n/a	n/a	n/a	n/a	n/a	24	6	9	9	n/a	n/a	n/a	n/a	n/a
3147.276	n/a	STOP	1573638	n/a	LTP086	ltpFR	11	n/a	n/a	n/a	n/a	n/a	n/a	n/a	n/a	n/a	n/a	n/a	n/a	n/a	n/a	n/a	n/a
3149.414	n/a	WORD	1574707	wordpools/wasnorm_wordpool.txt	LTP086	ltpFR	11	11	0	MONEY	908	n/a	n/a	0	n/a	0	0	0	0.422607421875	0.5869140625	0	upper	amplitud.ttf
3152.422	n/a	START	1576211	n/a	LTP086	ltpFR	11	n/a	n/a	n/a	n/a	n/a	n/a	n/a	n/a	n/a	n/a	n/a	n/a	n/a	n/a	n/a	n/a
3153.422	n/a	PROB	1576711	n/a	LTP086	ltpFR	11	n/a	n/a	n/a	n/a	n/a	n/a	n/a	13	8	4	1	n/a	n/a	n/a	n/a	n/a
3155.348	n/a	PROB	1577674	n/a	LTP086	ltpFR	11	n/a	n/a	n/a	n/a	n/a	n/a	n/a	19	4	9	6	n/a	n/a	n/a	n/a	n/a
3158.832	n/a	PROB	1579416	n/a	LTP086	ltpFR	11	n/a	n/a	n/a	n/a	n/a	n/a	n/a	8	1	3	4	n/a	n/a	n/a	n/a	n/a
3160.79	n/a	PROB	1580395	n/a	LTP086	ltpFR	11	n/a	n/a	n/a	n/a	n/a	n/a	n/a	11	4	4	3	n/a	n/a	n/a	n/a	n/a
3162.58	n/a	PROB	1581290	n/a	LTP086	ltpFR	11	n/a	n/a	n/a	n/a	n/a	n/a	n/a	13	3	7	3	n/a	n/a	n/a	n/a	n/a
3168.424	n/a	STOP	1584212	n/a	LTP086	ltpFR	11	n/a	n/a	n/a	n/a	n/a	n/a	n/a	n/a	n/a	n/a	n/a	n/a	n/a	n/a	n/a	n/a
3169.38	n/a	WORD	1584690	wordpools/wasnorm_wordpool.txt	LTP086	ltpFR	11	11	0	RUST	1219	n/a	n/a	0	n/a	0	0	0	0.422607421875	0.5869140625	0	upper	amplitud.ttf
3172.388	n/a	START	1586194	n/a	LTP086	ltpFR	11	n/a	n/a	n/a	n/a	n/a	n/a	n/a	n/a	n/a	n/a	n/a	n/a	n/a	n/a	n/a	n/a
3173.404	n/a	PROB	1586702	n/a	LTP086	ltpFR	11	n/a	n/a	n/a	n/a	n/a	n/a	n/a	13	9	1	3	n/a	n/a	n/a	n/a	n/a
3174.588	n/a	PROB	1587294	n/a	LTP086	ltpFR	11	n/a	n/a	n/a	n/a	n/a	n/a	n/a	24	8	7	9	n/a	n/a	n/a	n/a	n/a
3180.88	n/a	PROB	1590440	n/a	LTP086	ltpFR	11	n/a	n/a	n/a	n/a	n/a	n/a	n/a	15	6	6	3	n/a	n/a	n/a	n/a	n/a
3188.39	n/a	STOP	1594195	n/a	LTP086	ltpFR	11	n/a	n/a	n/a	n/a	n/a	n/a	n/a	n/a	n/a	n/a	n/a	n/a	n/a	n/a	n/a	n/a
3189.288	n/a	WORD	1594644	wordpools/wasnorm_wordpool.txt	LTP086	ltpFR	11	11	0	CLARINET	317	n/a	n/a	0	n/a	0	0	0	0.422607421875	0.5869140625	0	upper	amplitud.ttf
3192.296	n/a	START	1596148	n/a	LTP086	ltpFR	11	n/a	n/a	n/a	n/a	n/a	n/a	n/a	n/a	n/a	n/a	n/a	n/a	n/a	n/a	n/a	n/a
3193.186	n/a	PROB	1596593	n/a	LTP086	ltpFR	11	n/a	n/a	n/a	n/a	n/a	n/a	n/a	8	6	1	1	n/a	n/a	n/a	n/a	n/a
3194.822	n/a	PROB	1597411	n/a	LTP086	ltpFR	11	n/a	n/a	n/a	n/a	n/a	n/a	n/a	13	5	5	3	n/a	n/a	n/a	n/a	n/a
3195.996	n/a	PROB	1597998	n/a	LTP086	ltpFR	11	n/a	n/a	n/a	n/a	n/a	n/a	n/a	14	4	7	3	n/a	n/a	n/a	n/a	n/a
3198.388	n/a	PROB	1599194	n/a	LTP086	ltpFR	11	n/a	n/a	n/a	n/a	n/a	n/a	n/a	14	5	3	6	n/a	n/a	n/a	n/a	n/a
3202.188	n/a	PROB	1601094	n/a	LTP086	ltpFR	11	n/a	n/a	n/a	n/a	n/a	n/a	n/a	21	9	4	8	n/a	n/a	n/a	n/a	n/a
3207.24	n/a	STOP	1603620	n/a	LTP086	ltpFR	11	n/a	n/a	n/a	n/a	n/a	n/a	n/a	n/a	n/a	n/a	n/a	n/a	n/a	n/a	n/a	n/a
3210.088	n/a	REC_START	1605044	n/a	LTP086	ltpFR	11	11	n/a	n/a	n/a	n/a	n/a	n/a	n/a	0	0	0	n/a	n/a	n/a	n/a	n/a
3210.626	n/a	REC_WORD	1605313	wordpools/wasnorm_wordpool.txt	LTP086	ltpFR	11	11	0	CLARINET	317	n/a	n/a	0	n/a	0	0	0	n/a	n/a	n/a	n/a	n/a
3211.71	n/a	REC_WORD	1605855	wordpools/wasnorm_wordpool.txt	LTP086	ltpFR	11	11	0	RUST	1219	n/a	n/a	0	n/a	0	0	0	n/a	n/a	n/a	n/a	n/a
3214.068	n/a	REC_WORD_VV	1607034	wordpools/wasnorm_wordpool.txt	LTP086	ltpFR	11	11	n/a	<>	-1	n/a	n/a	n/a	n/a	0	0	0	n/a	n/a	n/a	n/a	n/a
3217.432	n/a	REC_WORD_VV	1608716	wordpools/wasnorm_wordpool.txt	LTP086	ltpFR	11	11	n/a	<>	-1	n/a	n/a	n/a	n/a	0	0	0	n/a	n/a	n/a	n/a	n/a
3218.432	n/a	REC_WORD_VV	1609216	wordpools/wasnorm_wordpool.txt	LTP086	ltpFR	11	11	n/a	<>	-1	n/a	n/a	n/a	n/a	0	0	0	n/a	n/a	n/a	n/a	n/a
3241.118	n/a	REC_WORD	1620559	wordpools/wasnorm_wordpool.txt	LTP086	ltpFR	11	11	0	CONDUCTOR	362	n/a	n/a	0	n/a	0	0	0	n/a	n/a	n/a	n/a	n/a
3288.718	n/a	WORD	1644359	wordpools/wasnorm_wordpool.txt	LTP086	ltpFR	11	12	0	SCALLOP	1242	n/a	n/a	0	n/a	0	0	0	0.422607421875	0.5869140625	0	upper	amplitud.ttf
3292.844	n/a	WORD	1646422	wordpools/wasnorm_wordpool.txt	LTP086	ltpFR	11	12	0	MEAL	882	n/a	n/a	0	n/a	0	0	0	0.422607421875	0.5869140625	0	upper	amplitud.ttf
3296.82	n/a	WORD	1648410	wordpools/wasnorm_wordpool.txt	LTP086	ltpFR	11	12	0	EARRING	514	n/a	n/a	0	n/a	0	0	0	0.422607421875	0.5869140625	0	upper	amplitud.ttf
3300.994	n/a	WORD	1650497	wordpools/wasnorm_wordpool.txt	LTP086	ltpFR	11	12	1	CHIMPANZEE	302	n/a	n/a	0	n/a	0	0	0	0.57763671875	0.412841796875	1	lower	zerothre.ttf
3305.026	n/a	WORD	1652513	wordpools/wasnorm_wordpool.txt	LTP086	ltpFR	11	12	1	CUSTARD	429	n/a	n/a	1	n/a	0	0	0	0.57763671875	0.412841796875	1	lower	zerothre.ttf
3309.168	n/a	WORD	1654584	wordpools/wasnorm_wordpool.txt	LTP086	ltpFR	11	12	0	HAWK	692	n/a	n/a	1	n/a	0	0	0	0.422607421875	0.5869140625	0	upper	amplitud.ttf
3313.378	n/a	WORD	1656689	wordpools/wasnorm_wordpool.txt	LTP086	ltpFR	11	12	0	PELICAN	1039	n/a	n/a	0	n/a	0	0	0	0.422607421875	0.5869140625	0	upper	amplitud.ttf
3317.502	n/a	WORD	1658751	wordpools/wasnorm_wordpool.txt	LTP086	ltpFR	11	12	1	TWIG	1527	n/a	n/a	0	n/a	0	0	0	0.57763671875	0.412841796875	1	lower	zerothre.ttf
3321.586	n/a	WORD	1660793	wordpools/wasnorm_wordpool.txt	LTP086	ltpFR	11	12	1	JUPITER	765	n/a	n/a	1	n/a	0	0	0	0.57763671875	0.412841796875	1	lower	zerothre.ttf
3325.652	n/a	WORD	1662826	wordpools/wasnorm_wordpool.txt	LTP086	ltpFR	11	12	1	BRAN	167	n/a	n/a	0	n/a	0	0	0	0.57763671875	0.412841796875	1	lower	zerothre.ttf
3329.476	n/a	WORD	1664738	wordpools/wasnorm_wordpool.txt	LTP086	ltpFR	11	12	1	DESIGNER	451	n/a	n/a	0	n/a	0	0	0	0.57763671875	0.412841796875	1	lower	zerothre.ttf
3333.552	n/a	WORD	1666776	wordpools/wasnorm_wordpool.txt	LTP086	ltpFR	11	12	1	UNIFORM	1539	n/a	n/a	0	n/a	0	0	0	0.57763671875	0.412841796875	1	lower	zerothre.ttf
3337.71	n/a	WORD	1668855	wordpools/wasnorm_wordpool.txt	LTP086	ltpFR	11	12	1	TONGUE	1479	n/a	n/a	1	n/a	0	0	0	0.57763671875	0.412841796875	1	lower	zerothre.ttf
3341.676	n/a	WORD	1670838	wordpools/wasnorm_wordpool.txt	LTP086	ltpFR	11	12	0	NEPTUNE	943	n/a	n/a	0	n/a	0	0	0	0.422607421875	0.5869140625	0	upper	amplitud.ttf
3345.626	n/a	WORD	1672813	wordpools/wasnorm_wordpool.txt	LTP086	ltpFR	11	12	0	CRUMB	416	n/a	n/a	0	n/a	0	0	0	0.422607421875	0.5869140625	0	upper	amplitud.ttf
3349.526	n/a	WORD	1674763	wordpools/wasnorm_wordpool.txt	LTP086	ltpFR	11	12	0	TOOTHPASTE	1483	n/a	n/a	n/a	n/a	0	0	0	0.422607421875	0.5869140625	0	upper	amplitud.ttf
3352.552	n/a	SLOW_MSG	1676276	n/a	LTP086	ltpFR	11	12	n/a	n/a	n/a	n/a	n/a	n/a	n/a	0	0	0	n/a	n/a	n/a	n/a	n/a
3354.068	n/a	START	1677034	n/a	LTP086	ltpFR	11	n/a	n/a	n/a	n/a	n/a	n/a	n/a	n/a	n/a	n/a	n/a	n/a	n/a	n/a	n/a	n/a
3354.942	n/a	PROB	1677471	n/a	LTP086	ltpFR	11	n/a	n/a	n/a	n/a	n/a	n/a	n/a	11	2	2	7	n/a	n/a	n/a	n/a	n/a
3357.56	n/a	PROB	1678780	n/a	LTP086	ltpFR	11	n/a	n/a	n/a	n/a	n/a	n/a	n/a	13	7	4	2	n/a	n/a	n/a	n/a	n/a
3361.392	n/a	STOP	1680696	n/a	LTP086	ltpFR	11	n/a	n/a	n/a	n/a	n/a	n/a	n/a	n/a	n/a	n/a	n/a	n/a	n/a	n/a	n/a	n/a
3363.834	n/a	REC_START	1681917	n/a	LTP086	ltpFR	11	12	n/a	n/a	n/a	n/a	n/a	n/a	n/a	0	0	0	n/a	n/a	n/a	n/a	n/a
3364.244	n/a	REC_WORD	1682122	wordpools/wasnorm_wordpool.txt	LTP086	ltpFR	11	12	0	CRUMB	416	n/a	n/a	0	n/a	0	0	0	n/a	n/a	n/a	n/a	n/a
3364.954	n/a	REC_WORD	1682477	wordpools/wasnorm_wordpool.txt	LTP086	ltpFR	11	12	1	JUPITER	765	n/a	n/a	1	n/a	0	0	0	n/a	n/a	n/a	n/a	n/a
3365.766	n/a	REC_WORD	1682883	wordpools/wasnorm_wordpool.txt	LTP086	ltpFR	11	12	0	NEPTUNE	943	n/a	n/a	0	n/a	0	0	0	n/a	n/a	n/a	n/a	n/a
3369.556	n/a	REC_WORD_VV	1684778	wordpools/wasnorm_wordpool.txt	LTP086	ltpFR	11	12	n/a	<>	-1	n/a	n/a	n/a	n/a	0	0	0	n/a	n/a	n/a	n/a	n/a
3370.414	n/a	REC_WORD	1685207	wordpools/wasnorm_wordpool.txt	LTP086	ltpFR	11	12	0	SCALLOP	1242	n/a	n/a	0	n/a	0	0	0	n/a	n/a	n/a	n/a	n/a
3372.526	n/a	REC_WORD	1686263	wordpools/wasnorm_wordpool.txt	LTP086	ltpFR	11	12	0	MEAL	882	n/a	n/a	0	n/a	0	0	0	n/a	n/a	n/a	n/a	n/a
3373.258	n/a	REC_WORD	1686629	wordpools/wasnorm_wordpool.txt	LTP086	ltpFR	11	12	1	DESIGNER	451	n/a	n/a	0	n/a	0	0	0	n/a	n/a	n/a	n/a	n/a
3382.612	n/a	REC_WORD	1691306	wordpools/wasnorm_wordpool.txt	LTP086	ltpFR	11	12	1	CHIMPANZEE	302	n/a	n/a	0	n/a	0	0	0	n/a	n/a	n/a	n/a	n/a
3388.808	n/a	REC_WORD_VV	1694404	wordpools/wasnorm_wordpool.txt	LTP086	ltpFR	11	12	n/a	<>	-1	n/a	n/a	n/a	n/a	0	0	0	n/a	n/a	n/a	n/a	n/a
3418.368	n/a	REC_WORD	1709184	wordpools/wasnorm_wordpool.txt	LTP086	ltpFR	11	12	1	BRAN	167	n/a	n/a	0	n/a	0	0	0	n/a	n/a	n/a	n/a	n/a
3455.066	n/a	REC_START	1727533	n/a	LTP086	ltpFR	11	1	n/a	n/a	n/a	n/a	n/a	n/a	n/a	0	0	0	n/a	n/a	n/a	n/a	n/a
3455.098	n/a	RECOG_TARGET	1727549	n/a	LTP086	ltpFR	11	1	1	CLOWN	330	1	1	1	n/a	0	0	0	n/a	n/a	n/a	n/a	n/a
3455.808	n/a	RECOG_RESP	1727904	n/a	LTP086	ltpFR	11	1	1	CLOWN	330	1	n/a	1	n/a	0	0	0	n/a	n/a	n/a	n/a	n/a
3456.726	n/a	RECOG_CONF	1728363	n/a	LTP086	ltpFR	11	1	1	CLOWN	330	n/a	1	1	n/a	0	0	0	n/a	n/a	n/a	n/a	n/a
3458.064	n/a	RECOG_LURE	1729032	n/a	LTP086	ltpFR	11	1	n/a	MARINE	869	1	1	n/a	n/a	0	0	0	n/a	n/a	n/a	n/a	n/a
3458.752	n/a	RECOG_RESP_VV	1729376	n/a	LTP086	ltpFR	11	1	n/a	MARINE	869	0	n/a	n/a	n/a	0	0	0	n/a	n/a	n/a	n/a	n/a
3459.406	n/a	RECOG_RESP	1729703	n/a	LTP086	ltpFR	11	1	n/a	MARINE	869	1	n/a	n/a	n/a	0	0	0	n/a	n/a	n/a	n/a	n/a
3460.154	n/a	RECOG_CONF	1730077	n/a	LTP086	ltpFR	11	1	n/a	MARINE	869	n/a	1	n/a	n/a	0	0	0	n/a	n/a	n/a	n/a	n/a
3461.39	n/a	RECOG_TARGET	1730695	n/a	LTP086	ltpFR	11	1	0	PAINTING	1005	1	5	0	n/a	0	0	0	n/a	n/a	n/a	n/a	n/a
3461.806	n/a	RECOG_RESP	1730903	n/a	LTP086	ltpFR	11	1	0	PAINTING	1005	1	n/a	0	n/a	0	0	0	n/a	n/a	n/a	n/a	n/a
3462.424	n/a	RECOG_CONF	1731212	n/a	LTP086	ltpFR	11	1	0	PAINTING	1005	n/a	5	0	n/a	0	0	0	n/a	n/a	n/a	n/a	n/a
3463.574	n/a	RECOG_LURE	1731787	n/a	LTP086	ltpFR	11	1	n/a	TROUT	1511	0	2	n/a	n/a	0	0	0	n/a	n/a	n/a	n/a	n/a
3463.95	n/a	RECOG_RESP	1731975	n/a	LTP086	ltpFR	11	1	n/a	TROUT	1511	0	n/a	n/a	n/a	0	0	0	n/a	n/a	n/a	n/a	n/a
3464.462	n/a	RECOG_CONF	1732231	n/a	LTP086	ltpFR	11	1	n/a	TROUT	1511	n/a	2	n/a	n/a	0	0	0	n/a	n/a	n/a	n/a	n/a
3465.748	n/a	RECOG_LURE	1732874	n/a	LTP086	ltpFR	11	1	n/a	FRUIT	610	0	1	n/a	n/a	0	0	0	n/a	n/a	n/a	n/a	n/a
3465.986	n/a	RECOG_RESP	1732993	n/a	LTP086	ltpFR	11	1	n/a	FRUIT	610	0	n/a	n/a	n/a	0	0	0	n/a	n/a	n/a	n/a	n/a
3466.582	n/a	RECOG_CONF	1733291	n/a	LTP086	ltpFR	11	1	n/a	FRUIT	610	n/a	1	n/a	n/a	0	0	0	n/a	n/a	n/a	n/a	n/a
3467.632	n/a	RECOG_TARGET	1733816	n/a	LTP086	ltpFR	11	1	1	SWAN	1417	1	5	0	n/a	0	0	0	n/a	n/a	n/a	n/a	n/a
3467.872	n/a	RECOG_RESP_VV	1733936	n/a	LTP086	ltpFR	11	1	1	SWAN	1417	0	n/a	0	n/a	0	0	0	n/a	n/a	n/a	n/a	n/a
3468.186	n/a	RECOG_RESP	1734093	n/a	LTP086	ltpFR	11	1	1	SWAN	1417	1	n/a	0	n/a	0	0	0	n/a	n/a	n/a	n/a	n/a
3468.81	n/a	RECOG_CONF	1734405	n/a	LTP086	ltpFR	11	1	1	SWAN	1417	n/a	5	0	n/a	0	0	0	n/a	n/a	n/a	n/a	n/a
3469.94	n/a	RECOG_LURE	1734970	n/a	LTP086	ltpFR	11	1	n/a	PIT	1077	1	1	n/a	n/a	0	0	0	n/a	n/a	n/a	n/a	n/a
3470.236	n/a	RECOG_RESP	1735118	n/a	LTP086	ltpFR	11	1	n/a	PIT	1077	1	n/a	n/a	n/a	0	0	0	n/a	n/a	n/a	n/a	n/a
3470.744	n/a	RECOG_CONF	1735372	n/a	LTP086	ltpFR	11	1	n/a	PIT	1077	n/a	1	n/a	n/a	0	0	0	n/a	n/a	n/a	n/a	n/a
3471.94	n/a	RECOG_LURE	1735970	n/a	LTP086	ltpFR	11	1	n/a	LUNCH	849	1	1	n/a	n/a	0	0	0	n/a	n/a	n/a	n/a	n/a
3472.182	n/a	RECOG_RESP	1736091	n/a	LTP086	ltpFR	11	1	n/a	LUNCH	849	1	n/a	n/a	n/a	0	0	0	n/a	n/a	n/a	n/a	n/a
3472.822	n/a	RECOG_CONF	1736411	n/a	LTP086	ltpFR	11	1	n/a	LUNCH	849	n/a	1	n/a	n/a	0	0	0	n/a	n/a	n/a	n/a	n/a
3473.94	n/a	RECOG_TARGET	1736970	n/a	LTP086	ltpFR	11	1	1	JAM	748	0	1	0	n/a	0	0	0	n/a	n/a	n/a	n/a	n/a
3474.248	n/a	RECOG_RESP	1737124	n/a	LTP086	ltpFR	11	1	1	JAM	748	0	n/a	0	n/a	0	0	0	n/a	n/a	n/a	n/a	n/a
3474.944	n/a	RECOG_CONF	1737472	n/a	LTP086	ltpFR	11	1	1	JAM	748	n/a	1	0	n/a	0	0	0	n/a	n/a	n/a	n/a	n/a
3476.172	n/a	RECOG_TARGET	1738086	n/a	LTP086	ltpFR	11	1	1	SAUSAGE	1238	1	5	1	n/a	0	0	0	n/a	n/a	n/a	n/a	n/a
3476.402	n/a	RECOG_RESP	1738201	n/a	LTP086	ltpFR	11	1	1	SAUSAGE	1238	1	n/a	1	n/a	0	0	0	n/a	n/a	n/a	n/a	n/a
3477.042	n/a	RECOG_CONF	1738521	n/a	LTP086	ltpFR	11	1	1	SAUSAGE	1238	n/a	5	1	n/a	0	0	0	n/a	n/a	n/a	n/a	n/a
3478.114	n/a	RECOG_LURE	1739057	n/a	LTP086	ltpFR	11	1	n/a	OBOE	969	1	1	n/a	n/a	0	0	0	n/a	n/a	n/a	n/a	n/a
3478.308	n/a	RECOG_RESP	1739154	n/a	LTP086	ltpFR	11	1	n/a	OBOE	969	1	n/a	n/a	n/a	0	0	0	n/a	n/a	n/a	n/a	n/a
3478.808	n/a	RECOG_CONF	1739404	n/a	LTP086	ltpFR	11	1	n/a	OBOE	969	n/a	1	n/a	n/a	0	0	0	n/a	n/a	n/a	n/a	n/a
3480.348	n/a	RECOG_TARGET	1740174	n/a	LTP086	ltpFR	11	1	0	COCKTAIL	338	1	5	2	n/a	0	0	0	n/a	n/a	n/a	n/a	n/a
3480.548	n/a	RECOG_RESP	1740274	n/a	LTP086	ltpFR	11	1	0	COCKTAIL	338	1	n/a	2	n/a	0	0	0	n/a	n/a	n/a	n/a	n/a
3481.022	n/a	RECOG_CONF	1740511	n/a	LTP086	ltpFR	11	1	0	COCKTAIL	338	n/a	5	2	n/a	0	0	0	n/a	n/a	n/a	n/a	n/a
3482.264	n/a	RECOG_LURE	1741132	n/a	LTP086	ltpFR	11	1	n/a	STONE	1385	1	5	n/a	n/a	0	0	0	n/a	n/a	n/a	n/a	n/a
3482.498	n/a	RECOG_RESP	1741249	n/a	LTP086	ltpFR	11	1	n/a	STONE	1385	1	n/a	n/a	n/a	0	0	0	n/a	n/a	n/a	n/a	n/a
3482.968	n/a	RECOG_CONF	1741484	n/a	LTP086	ltpFR	11	1	n/a	STONE	1385	n/a	5	n/a	n/a	0	0	0	n/a	n/a	n/a	n/a	n/a
3484.256	n/a	RECOG_LURE	1742128	n/a	LTP086	ltpFR	11	1	n/a	SNEAKER	1334	1	1	n/a	n/a	0	0	0	n/a	n/a	n/a	n/a	n/a
3484.424	n/a	RECOG_RESP	1742212	n/a	LTP086	ltpFR	11	1	n/a	SNEAKER	1334	1	n/a	n/a	n/a	0	0	0	n/a	n/a	n/a	n/a	n/a
3484.98	n/a	RECOG_CONF	1742490	n/a	LTP086	ltpFR	11	1	n/a	SNEAKER	1334	n/a	1	n/a	n/a	0	0	0	n/a	n/a	n/a	n/a	n/a
