onset	duration	trial_type	sample	stim_file	subject	experiment	session	trial	task	item_name	item_num	recog_conf	resp	color_b	color_g	color_r	case	font
291.924	n/a	SESS_START	145962	n/a	LTP090	ltpFR	1	n/a	n/a	n/a	n/a	n/a	n/a	n/a	n/a	n/a	n/a	n/a
387.628	n/a	WORD	193814	wordpools/wasnorm_wordpool.txt	LTP090	ltpFR	1	1	1	LION	827	n/a	1	1	0.412841796875	0.57763671875	lower	../fonts/zerothre.ttf
391.612	n/a	WORD	195806	wordpools/wasnorm_wordpool.txt	LTP090	ltpFR	1	1	1	BOYFRIEND	162	n/a	1	1	0.412841796875	0.57763671875	lower	../fonts/zerothre.ttf
395.504	n/a	WORD	197752	wordpools/wasnorm_wordpool.txt	LTP090	ltpFR	1	1	1	TRIBE	1505	n/a	1	1	0.412841796875	0.57763671875	lower	../fonts/zerothre.ttf
399.454	n/a	WORD	199727	wordpools/wasnorm_wordpool.txt	LTP090	ltpFR	1	1	0	FURNITURE	616	n/a	1	0	0.5869140625	0.422607421875	upper	../fonts/amplitud.ttf
403.402	n/a	WORD	201701	wordpools/wasnorm_wordpool.txt	LTP090	ltpFR	1	1	0	MANSION	864	n/a	1	0	0.5869140625	0.422607421875	upper	../fonts/amplitud.ttf
407.554	n/a	WORD	203777	wordpools/wasnorm_wordpool.txt	LTP090	ltpFR	1	1	0	TICK	1463	n/a	0	0	0.5869140625	0.422607421875	upper	../fonts/amplitud.ttf
411.57	n/a	WORD	205785	wordpools/wasnorm_wordpool.txt	LTP090	ltpFR	1	1	1	DOUGH	489	n/a	0	1	0.412841796875	0.57763671875	lower	../fonts/zerothre.ttf
415.404	n/a	WORD	207702	wordpools/wasnorm_wordpool.txt	LTP090	ltpFR	1	1	1	VELVET	1555	n/a	0	1	0.412841796875	0.57763671875	lower	../fonts/zerothre.ttf
419.594	n/a	WORD	209797	wordpools/wasnorm_wordpool.txt	LTP090	ltpFR	1	1	1	LIPSTICK	829	n/a	0	1	0.412841796875	0.57763671875	lower	../fonts/zerothre.ttf
423.776	n/a	WORD	211888	wordpools/wasnorm_wordpool.txt	LTP090	ltpFR	1	1	0	BISON	131	n/a	1	0	0.5869140625	0.422607421875	upper	../fonts/amplitud.ttf
427.918	n/a	WORD	213959	wordpools/wasnorm_wordpool.txt	LTP090	ltpFR	1	1	0	STOVE	1388	n/a	1	0	0.5869140625	0.422607421875	upper	../fonts/amplitud.ttf
431.776	n/a	WORD	215888	wordpools/wasnorm_wordpool.txt	LTP090	ltpFR	1	1	0	COYOTE	396	n/a	1	0	0.5869140625	0.422607421875	upper	../fonts/amplitud.ttf
435.644	n/a	WORD	217822	wordpools/wasnorm_wordpool.txt	LTP090	ltpFR	1	1	0	MARBLE	867	n/a	0	0	0.5869140625	0.422607421875	upper	../fonts/amplitud.ttf
439.668	n/a	WORD	219834	wordpools/wasnorm_wordpool.txt	LTP090	ltpFR	1	1	0	CREATURE	403	n/a	1	0	0.5869140625	0.422607421875	upper	../fonts/amplitud.ttf
443.86	n/a	WORD	221930	wordpools/wasnorm_wordpool.txt	LTP090	ltpFR	1	1	1	RUBY	1214	n/a	0	1	0.412841796875	0.57763671875	lower	../fonts/zerothre.ttf
447.876	n/a	WORD	223938	wordpools/wasnorm_wordpool.txt	LTP090	ltpFR	1	1	1	JEWEL	757	n/a	0	1	0.412841796875	0.57763671875	lower	../fonts/zerothre.ttf
453.602	n/a	REC_START	226801	n/a	LTP090	ltpFR	1	1	n/a	n/a	n/a	n/a	n/a	n/a	n/a	n/a	n/a	n/a
455.074	n/a	REC_WORD	227537	wordpools/wasnorm_wordpool.txt	LTP090	ltpFR	1	1	1	JEWEL	757	n/a	0	n/a	n/a	n/a	n/a	n/a
456.296	n/a	REC_WORD	228148	wordpools/wasnorm_wordpool.txt	LTP090	ltpFR	1	1	1	RUBY	1214	n/a	0	n/a	n/a	n/a	n/a	n/a
457.968	n/a	REC_WORD	228984	wordpools/wasnorm_wordpool.txt	LTP090	ltpFR	1	1	1	LION	827	n/a	1	n/a	n/a	n/a	n/a	n/a
459.23	n/a	REC_WORD	229615	wordpools/wasnorm_wordpool.txt	LTP090	ltpFR	1	1	1	BOYFRIEND	162	n/a	1	n/a	n/a	n/a	n/a	n/a
460.86	n/a	REC_WORD	230430	wordpools/wasnorm_wordpool.txt	LTP090	ltpFR	1	1	1	LIPSTICK	829	n/a	0	n/a	n/a	n/a	n/a	n/a
462.352	n/a	REC_WORD	231176	wordpools/wasnorm_wordpool.txt	LTP090	ltpFR	1	1	0	FURNITURE	616	n/a	1	n/a	n/a	n/a	n/a	n/a
463.768	n/a	REC_WORD	231884	wordpools/wasnorm_wordpool.txt	LTP090	ltpFR	1	1	0	STOVE	1388	n/a	1	n/a	n/a	n/a	n/a	n/a
465.66	n/a	REC_WORD	232830	wordpools/wasnorm_wordpool.txt	LTP090	ltpFR	1	1	0	BISON	131	n/a	1	n/a	n/a	n/a	n/a	n/a
468.14	n/a	REC_WORD	234070	wordpools/wasnorm_wordpool.txt	LTP090	ltpFR	1	1	1	LION	827	n/a	1	n/a	n/a	n/a	n/a	n/a
479.216	n/a	REC_WORD	239608	wordpools/wasnorm_wordpool.txt	LTP090	ltpFR	1	1	0	CREATURE	403	n/a	1	n/a	n/a	n/a	n/a	n/a
497.24	n/a	REC_WORD	248620	wordpools/wasnorm_wordpool.txt	LTP090	ltpFR	1	1	1	DOUGH	489	n/a	0	n/a	n/a	n/a	n/a	n/a
546.008	n/a	WORD	273004	wordpools/wasnorm_wordpool.txt	LTP090	ltpFR	1	2	0	ADULT	8	n/a	1	0	0.5869140625	0.422607421875	upper	../fonts/amplitud.ttf
549.882	n/a	WORD	274941	wordpools/wasnorm_wordpool.txt	LTP090	ltpFR	1	2	0	GULL	671	n/a	0	0	0.5869140625	0.422607421875	upper	../fonts/amplitud.ttf
553.756	n/a	WORD	276878	wordpools/wasnorm_wordpool.txt	LTP090	ltpFR	1	2	0	WINGS	1614	n/a	0	0	0.5869140625	0.422607421875	upper	../fonts/amplitud.ttf
557.64	n/a	WORD	278820	wordpools/wasnorm_wordpool.txt	LTP090	ltpFR	1	2	0	PLATE	1086	n/a	0	0	0.5869140625	0.422607421875	upper	../fonts/amplitud.ttf
561.5	n/a	WORD	280750	wordpools/wasnorm_wordpool.txt	LTP090	ltpFR	1	2	0	ALLIGATOR	16	n/a	1	0	0.5869140625	0.422607421875	upper	../fonts/amplitud.ttf
565.516	n/a	WORD	282758	wordpools/wasnorm_wordpool.txt	LTP090	ltpFR	1	2	0	GRILL	661	n/a	1	0	0.5869140625	0.422607421875	upper	../fonts/amplitud.ttf
569.382	n/a	WORD	284691	wordpools/wasnorm_wordpool.txt	LTP090	ltpFR	1	2	1	TOOTHPASTE	1483	n/a	0	1	0.412841796875	0.57763671875	lower	../fonts/zerothre.ttf
573.59	n/a	WORD	286795	wordpools/wasnorm_wordpool.txt	LTP090	ltpFR	1	2	1	GOO	648	n/a	0	1	0.412841796875	0.57763671875	lower	../fonts/zerothre.ttf
577.54	n/a	WORD	288770	wordpools/wasnorm_wordpool.txt	LTP090	ltpFR	1	2	1	KITCHEN	778	n/a	0	1	0.412841796875	0.57763671875	lower	../fonts/zerothre.ttf
581.74	n/a	WORD	290870	wordpools/wasnorm_wordpool.txt	LTP090	ltpFR	1	2	0	CROCODILE	411	n/a	1	0	0.5869140625	0.422607421875	upper	../fonts/amplitud.ttf
585.94	n/a	WORD	292970	wordpools/wasnorm_wordpool.txt	LTP090	ltpFR	1	2	0	NUCLEUS	961	n/a	0	0	0.5869140625	0.422607421875	upper	../fonts/amplitud.ttf
589.914	n/a	WORD	294957	wordpools/wasnorm_wordpool.txt	LTP090	ltpFR	1	2	1	SPY	1360	n/a	1	1	0.412841796875	0.57763671875	lower	../fonts/zerothre.ttf
593.822	n/a	WORD	296911	wordpools/wasnorm_wordpool.txt	LTP090	ltpFR	1	2	1	HANDCUFFS	685	n/a	0	1	0.412841796875	0.57763671875	lower	../fonts/zerothre.ttf
597.888	n/a	WORD	298944	wordpools/wasnorm_wordpool.txt	LTP090	ltpFR	1	2	1	PAIL	1002	n/a	0	1	0.412841796875	0.57763671875	lower	../fonts/zerothre.ttf
601.88	n/a	WORD	300940	wordpools/wasnorm_wordpool.txt	LTP090	ltpFR	1	2	1	SCOTCH	1251	n/a	0	1	0.412841796875	0.57763671875	lower	../fonts/zerothre.ttf
605.856	n/a	WORD	302928	wordpools/wasnorm_wordpool.txt	LTP090	ltpFR	1	2	1	DISC	473	n/a	0	1	0.412841796875	0.57763671875	lower	../fonts/zerothre.ttf
611.708	n/a	REC_START	305854	n/a	LTP090	ltpFR	1	2	n/a	n/a	n/a	n/a	n/a	n/a	n/a	n/a	n/a	n/a
612.83	n/a	REC_WORD	306415	wordpools/wasnorm_wordpool.txt	LTP090	ltpFR	1	2	1	DISC	473	n/a	0	n/a	n/a	n/a	n/a	n/a
614.462	n/a	REC_WORD	307231	wordpools/wasnorm_wordpool.txt	LTP090	ltpFR	1	2	1	SPY	1360	n/a	1	n/a	n/a	n/a	n/a	n/a
615.784	n/a	REC_WORD	307892	wordpools/wasnorm_wordpool.txt	LTP090	ltpFR	1	2	1	SCOTCH	1251	n/a	0	n/a	n/a	n/a	n/a	n/a
618.142	n/a	REC_WORD	309071	wordpools/wasnorm_wordpool.txt	LTP090	ltpFR	1	2	0	CROCODILE	411	n/a	1	n/a	n/a	n/a	n/a	n/a
620.582	n/a	REC_WORD	310291	wordpools/wasnorm_wordpool.txt	LTP090	ltpFR	1	2	0	ALLIGATOR	16	n/a	1	n/a	n/a	n/a	n/a	n/a
628.336	n/a	REC_WORD	314168	wordpools/wasnorm_wordpool.txt	LTP090	ltpFR	1	2	0	ADULT	8	n/a	1	n/a	n/a	n/a	n/a	n/a
631.972	n/a	REC_WORD	315986	wordpools/wasnorm_wordpool.txt	LTP090	ltpFR	1	2	1	TOOTHPASTE	1483	n/a	0	n/a	n/a	n/a	n/a	n/a
634.022	n/a	REC_WORD	317011	wordpools/wasnorm_wordpool.txt	LTP090	ltpFR	1	2	1	GOO	648	n/a	0	n/a	n/a	n/a	n/a	n/a
637.914	n/a	REC_WORD	318957	wordpools/wasnorm_wordpool.txt	LTP090	ltpFR	1	2	0	GRILL	661	n/a	1	n/a	n/a	n/a	n/a	n/a
652.248	n/a	REC_WORD	326124	wordpools/wasnorm_wordpool.txt	LTP090	ltpFR	1	2	1	KITCHEN	778	n/a	0	n/a	n/a	n/a	n/a	n/a
659.526	n/a	REC_WORD	329763	wordpools/wasnorm_wordpool.txt	LTP090	ltpFR	1	2	0	WINGS	1614	n/a	0	n/a	n/a	n/a	n/a	n/a
660.962	n/a	REC_WORD	330481	wordpools/wasnorm_wordpool.txt	LTP090	ltpFR	1	2	0	GULL	671	n/a	0	n/a	n/a	n/a	n/a	n/a
670.532	n/a	REC_WORD	335266	wordpools/wasnorm_wordpool.txt	LTP090	ltpFR	1	2	1	DISC	473	n/a	0	n/a	n/a	n/a	n/a	n/a
700.446	n/a	WORD	350223	wordpools/wasnorm_wordpool.txt	LTP090	ltpFR	1	3	-1	PADDLE	1000	n/a	-1	1	1.0	1.0	upper	../fonts/Verdana.ttf
704.354	n/a	WORD	352177	wordpools/wasnorm_wordpool.txt	LTP090	ltpFR	1	3	-1	MARINE	869	n/a	-1	1	1.0	1.0	upper	../fonts/Verdana.ttf
708.354	n/a	WORD	354177	wordpools/wasnorm_wordpool.txt	LTP090	ltpFR	1	3	-1	SAXOPHONE	1240	n/a	-1	1	1.0	1.0	upper	../fonts/Verdana.ttf
712.412	n/a	WORD	356206	wordpools/wasnorm_wordpool.txt	LTP090	ltpFR	1	3	-1	EXPERT	543	n/a	-1	1	1.0	1.0	upper	../fonts/Verdana.ttf
716.596	n/a	WORD	358298	wordpools/wasnorm_wordpool.txt	LTP090	ltpFR	1	3	-1	NOMAD	955	n/a	-1	1	1.0	1.0	upper	../fonts/Verdana.ttf
720.72	n/a	WORD	360360	wordpools/wasnorm_wordpool.txt	LTP090	ltpFR	1	3	-1	COBRA	336	n/a	-1	1	1.0	1.0	upper	../fonts/Verdana.ttf
724.878	n/a	WORD	362439	wordpools/wasnorm_wordpool.txt	LTP090	ltpFR	1	3	-1	SCAPEGOAT	1244	n/a	-1	1	1.0	1.0	upper	../fonts/Verdana.ttf
728.912	n/a	WORD	364456	wordpools/wasnorm_wordpool.txt	LTP090	ltpFR	1	3	-1	VICTIM	1562	n/a	-1	1	1.0	1.0	upper	../fonts/Verdana.ttf
732.894	n/a	WORD	366447	wordpools/wasnorm_wordpool.txt	LTP090	ltpFR	1	3	-1	DUNGEON	507	n/a	-1	1	1.0	1.0	upper	../fonts/Verdana.ttf
737.06	n/a	WORD	368530	wordpools/wasnorm_wordpool.txt	LTP090	ltpFR	1	3	-1	SKYSCRAPER	1322	n/a	-1	1	1.0	1.0	upper	../fonts/Verdana.ttf
741.136	n/a	WORD	370568	wordpools/wasnorm_wordpool.txt	LTP090	ltpFR	1	3	-1	VEHICLE	1553	n/a	-1	1	1.0	1.0	upper	../fonts/Verdana.ttf
745.01	n/a	WORD	372505	wordpools/wasnorm_wordpool.txt	LTP090	ltpFR	1	3	-1	CHAUFFEUR	283	n/a	-1	1	1.0	1.0	upper	../fonts/Verdana.ttf
749.06	n/a	WORD	374530	wordpools/wasnorm_wordpool.txt	LTP090	ltpFR	1	3	-1	CELLO	268	n/a	-1	1	1.0	1.0	upper	../fonts/Verdana.ttf
753.144	n/a	WORD	376572	wordpools/wasnorm_wordpool.txt	LTP090	ltpFR	1	3	-1	WORM	1623	n/a	-1	1	1.0	1.0	upper	../fonts/Verdana.ttf
757.268	n/a	WORD	378634	wordpools/wasnorm_wordpool.txt	LTP090	ltpFR	1	3	-1	WIDOW	1608	n/a	-1	1	1.0	1.0	upper	../fonts/Verdana.ttf
761.268	n/a	WORD	380634	wordpools/wasnorm_wordpool.txt	LTP090	ltpFR	1	3	-1	SHIP	1286	n/a	-1	1	1.0	1.0	upper	../fonts/Verdana.ttf
766.902	n/a	REC_START	383451	n/a	LTP090	ltpFR	1	3	n/a	n/a	n/a	n/a	n/a	n/a	n/a	n/a	n/a	n/a
768.524	n/a	REC_WORD	384262	wordpools/wasnorm_wordpool.txt	LTP090	ltpFR	1	3	-1	SHIP	1286	n/a	-1	n/a	n/a	n/a	n/a	n/a
769.95	n/a	REC_WORD	384975	wordpools/wasnorm_wordpool.txt	LTP090	ltpFR	1	3	n/a	SAILOR	1223	n/a	n/a	n/a	n/a	n/a	n/a	n/a
771.318	n/a	REC_WORD	385659	wordpools/wasnorm_wordpool.txt	LTP090	ltpFR	1	3	-1	SAXOPHONE	1240	n/a	-1	n/a	n/a	n/a	n/a	n/a
773.054	n/a	REC_WORD	386527	wordpools/wasnorm_wordpool.txt	LTP090	ltpFR	1	3	-1	EXPERT	543	n/a	-1	n/a	n/a	n/a	n/a	n/a
777.468	n/a	REC_WORD	388734	wordpools/wasnorm_wordpool.txt	LTP090	ltpFR	1	3	-1	SCAPEGOAT	1244	n/a	-1	n/a	n/a	n/a	n/a	n/a
779.558	n/a	REC_WORD	389779	wordpools/wasnorm_wordpool.txt	LTP090	ltpFR	1	3	-1	COBRA	336	n/a	-1	n/a	n/a	n/a	n/a	n/a
780.736	n/a	REC_WORD	390368	wordpools/wasnorm_wordpool.txt	LTP090	ltpFR	1	3	-1	VICTIM	1562	n/a	-1	n/a	n/a	n/a	n/a	n/a
784.722	n/a	REC_WORD	392361	wordpools/wasnorm_wordpool.txt	LTP090	ltpFR	1	3	-1	DUNGEON	507	n/a	-1	n/a	n/a	n/a	n/a	n/a
786.094	n/a	REC_WORD	393047	wordpools/wasnorm_wordpool.txt	LTP090	ltpFR	1	3	-1	SKYSCRAPER	1322	n/a	-1	n/a	n/a	n/a	n/a	n/a
789.686	n/a	REC_WORD	394843	wordpools/wasnorm_wordpool.txt	LTP090	ltpFR	1	3	-1	CELLO	268	n/a	-1	n/a	n/a	n/a	n/a	n/a
791.772	n/a	REC_WORD	395886	wordpools/wasnorm_wordpool.txt	LTP090	ltpFR	1	3	-1	WIDOW	1608	n/a	-1	n/a	n/a	n/a	n/a	n/a
794.706	n/a	REC_WORD	397353	wordpools/wasnorm_wordpool.txt	LTP090	ltpFR	1	3	-1	WORM	1623	n/a	-1	n/a	n/a	n/a	n/a	n/a
803.038	n/a	REC_WORD	401519	wordpools/wasnorm_wordpool.txt	LTP090	ltpFR	1	3	-1	SHIP	1286	n/a	-1	n/a	n/a	n/a	n/a	n/a
853.584	n/a	WORD	426792	wordpools/wasnorm_wordpool.txt	LTP090	ltpFR	1	4	0	STAMP	1370	n/a	0	0	0.5869140625	0.422607421875	upper	../fonts/amplitud.ttf
857.558	n/a	WORD	428779	wordpools/wasnorm_wordpool.txt	LTP090	ltpFR	1	4	0	GERM	632	n/a	0	0	0.5869140625	0.422607421875	upper	../fonts/amplitud.ttf
861.61	n/a	WORD	430805	wordpools/wasnorm_wordpool.txt	LTP090	ltpFR	1	4	0	WELL	1600	n/a	1	0	0.5869140625	0.422607421875	upper	../fonts/amplitud.ttf
865.634	n/a	WORD	432817	wordpools/wasnorm_wordpool.txt	LTP090	ltpFR	1	4	0	ZEBRA	1635	n/a	1	0	0.5869140625	0.422607421875	upper	../fonts/amplitud.ttf
869.45	n/a	WORD	434725	wordpools/wasnorm_wordpool.txt	LTP090	ltpFR	1	4	0	MAGNET	855	n/a	0	0	0.5869140625	0.422607421875	upper	../fonts/amplitud.ttf
873.424	n/a	WORD	436712	wordpools/wasnorm_wordpool.txt	LTP090	ltpFR	1	4	0	SIDING	1304	n/a	0	0	0.5869140625	0.422607421875	upper	../fonts/amplitud.ttf
877.516	n/a	WORD	438758	wordpools/wasnorm_wordpool.txt	LTP090	ltpFR	1	4	0	JAW	751	n/a	1	0	0.5869140625	0.422607421875	upper	../fonts/amplitud.ttf
881.616	n/a	WORD	440808	wordpools/wasnorm_wordpool.txt	LTP090	ltpFR	1	4	0	WOMAN	1620	n/a	1	0	0.5869140625	0.422607421875	upper	../fonts/amplitud.ttf
885.758	n/a	WORD	442879	wordpools/wasnorm_wordpool.txt	LTP090	ltpFR	1	4	0	GENTLEMAN	631	n/a	1	0	0.5869140625	0.422607421875	upper	../fonts/amplitud.ttf
889.716	n/a	WORD	444858	wordpools/wasnorm_wordpool.txt	LTP090	ltpFR	1	4	0	SOCK	1339	n/a	0	0	0.5869140625	0.422607421875	upper	../fonts/amplitud.ttf
893.708	n/a	WORD	446854	wordpools/wasnorm_wordpool.txt	LTP090	ltpFR	1	4	0	KID	775	n/a	0	0	0.5869140625	0.422607421875	upper	../fonts/amplitud.ttf
897.898	n/a	WORD	448949	wordpools/wasnorm_wordpool.txt	LTP090	ltpFR	1	4	0	DUMP	505	n/a	1	0	0.5869140625	0.422607421875	upper	../fonts/amplitud.ttf
901.874	n/a	WORD	450937	wordpools/wasnorm_wordpool.txt	LTP090	ltpFR	1	4	0	SNORKEL	1336	n/a	0	0	0.5869140625	0.422607421875	upper	../fonts/amplitud.ttf
906.082	n/a	WORD	453041	wordpools/wasnorm_wordpool.txt	LTP090	ltpFR	1	4	0	WAGON	1578	n/a	1	0	0.5869140625	0.422607421875	upper	../fonts/amplitud.ttf
910.114	n/a	WORD	455057	wordpools/wasnorm_wordpool.txt	LTP090	ltpFR	1	4	0	KNAPSACK	783	n/a	0	0	0.5869140625	0.422607421875	upper	../fonts/amplitud.ttf
914.19	n/a	WORD	457095	wordpools/wasnorm_wordpool.txt	LTP090	ltpFR	1	4	0	BUCKET	184	n/a	0	0	0.5869140625	0.422607421875	upper	../fonts/amplitud.ttf
920.14	n/a	REC_START	460070	n/a	LTP090	ltpFR	1	4	n/a	n/a	n/a	n/a	n/a	n/a	n/a	n/a	n/a	n/a
922.08	n/a	REC_WORD	461040	wordpools/wasnorm_wordpool.txt	LTP090	ltpFR	1	4	0	BUCKET	184	n/a	0	n/a	n/a	n/a	n/a	n/a
923.218	n/a	REC_WORD	461609	wordpools/wasnorm_wordpool.txt	LTP090	ltpFR	1	4	0	KNAPSACK	783	n/a	0	n/a	n/a	n/a	n/a	n/a
925.194	n/a	REC_WORD	462597	wordpools/wasnorm_wordpool.txt	LTP090	ltpFR	1	4	0	KID	775	n/a	0	n/a	n/a	n/a	n/a	n/a
926.61	n/a	REC_WORD	463305	wordpools/wasnorm_wordpool.txt	LTP090	ltpFR	1	4	0	SNORKEL	1336	n/a	0	n/a	n/a	n/a	n/a	n/a
928.272	n/a	REC_WORD	464136	wordpools/wasnorm_wordpool.txt	LTP090	ltpFR	1	4	n/a	SHARK	1275	n/a	n/a	n/a	n/a	n/a	n/a	n/a
929.864	n/a	REC_WORD	464932	wordpools/wasnorm_wordpool.txt	LTP090	ltpFR	1	4	0	WELL	1600	n/a	1	n/a	n/a	n/a	n/a	n/a
931.24	n/a	REC_WORD	465620	wordpools/wasnorm_wordpool.txt	LTP090	ltpFR	1	4	0	GENTLEMAN	631	n/a	1	n/a	n/a	n/a	n/a	n/a
933.22	n/a	REC_WORD	466610	wordpools/wasnorm_wordpool.txt	LTP090	ltpFR	1	4	0	WOMAN	1620	n/a	1	n/a	n/a	n/a	n/a	n/a
945.11	n/a	REC_WORD	472555	wordpools/wasnorm_wordpool.txt	LTP090	ltpFR	1	4	0	SIDING	1304	n/a	0	n/a	n/a	n/a	n/a	n/a
951.64	n/a	REC_WORD	475820	wordpools/wasnorm_wordpool.txt	LTP090	ltpFR	1	4	0	STAMP	1370	n/a	0	n/a	n/a	n/a	n/a	n/a
953.45	n/a	REC_WORD	476725	wordpools/wasnorm_wordpool.txt	LTP090	ltpFR	1	4	0	GERM	632	n/a	0	n/a	n/a	n/a	n/a	n/a
958.36	n/a	REC_WORD	479180	wordpools/wasnorm_wordpool.txt	LTP090	ltpFR	1	4	0	DUMP	505	n/a	1	n/a	n/a	n/a	n/a	n/a
961.632	n/a	REC_WORD	480816	wordpools/wasnorm_wordpool.txt	LTP090	ltpFR	1	4	0	WAGON	1578	n/a	1	n/a	n/a	n/a	n/a	n/a
1022.446	n/a	WORD	511223	wordpools/wasnorm_wordpool.txt	LTP090	ltpFR	1	5	-1	CLIPPERS	324	n/a	-1	1	1.0	1.0	upper	../fonts/Verdana.ttf
1026.388	n/a	WORD	513194	wordpools/wasnorm_wordpool.txt	LTP090	ltpFR	1	5	-1	TWEEZERS	1526	n/a	-1	1	1.0	1.0	upper	../fonts/Verdana.ttf
1030.554	n/a	WORD	515277	wordpools/wasnorm_wordpool.txt	LTP090	ltpFR	1	5	-1	SURF	1412	n/a	-1	1	1.0	1.0	upper	../fonts/Verdana.ttf
1034.438	n/a	WORD	517219	wordpools/wasnorm_wordpool.txt	LTP090	ltpFR	1	5	-1	VALVE	1546	n/a	-1	1	1.0	1.0	upper	../fonts/Verdana.ttf
1038.638	n/a	WORD	519319	wordpools/wasnorm_wordpool.txt	LTP090	ltpFR	1	5	-1	SCRIBBLE	1256	n/a	-1	1	1.0	1.0	upper	../fonts/Verdana.ttf
1042.554	n/a	WORD	521277	wordpools/wasnorm_wordpool.txt	LTP090	ltpFR	1	5	-1	ESSAY	540	n/a	-1	1	1.0	1.0	upper	../fonts/Verdana.ttf
1046.612	n/a	WORD	523306	wordpools/wasnorm_wordpool.txt	LTP090	ltpFR	1	5	-1	HIGHWAY	707	n/a	-1	1	1.0	1.0	upper	../fonts/Verdana.ttf
1050.62	n/a	WORD	525310	wordpools/wasnorm_wordpool.txt	LTP090	ltpFR	1	5	-1	MARSH	874	n/a	-1	1	1.0	1.0	upper	../fonts/Verdana.ttf
1054.704	n/a	WORD	527352	wordpools/wasnorm_wordpool.txt	LTP090	ltpFR	1	5	-1	ELEVATOR	524	n/a	-1	1	1.0	1.0	upper	../fonts/Verdana.ttf
1058.57	n/a	WORD	529285	wordpools/wasnorm_wordpool.txt	LTP090	ltpFR	1	5	-1	RADISH	1158	n/a	-1	1	1.0	1.0	upper	../fonts/Verdana.ttf
1062.446	n/a	WORD	531223	wordpools/wasnorm_wordpool.txt	LTP090	ltpFR	1	5	-1	POLICE	1098	n/a	-1	1	1.0	1.0	upper	../fonts/Verdana.ttf
1066.496	n/a	WORD	533248	wordpools/wasnorm_wordpool.txt	LTP090	ltpFR	1	5	-1	CASKET	255	n/a	-1	1	1.0	1.0	upper	../fonts/Verdana.ttf
1070.678	n/a	WORD	535339	wordpools/wasnorm_wordpool.txt	LTP090	ltpFR	1	5	-1	BEAN	105	n/a	-1	1	1.0	1.0	upper	../fonts/Verdana.ttf
1074.754	n/a	WORD	537377	wordpools/wasnorm_wordpool.txt	LTP090	ltpFR	1	5	-1	ENGINE	535	n/a	-1	1	1.0	1.0	upper	../fonts/Verdana.ttf
1078.97	n/a	WORD	539485	wordpools/wasnorm_wordpool.txt	LTP090	ltpFR	1	5	-1	SEASHORE	1263	n/a	-1	1	1.0	1.0	upper	../fonts/Verdana.ttf
1082.878	n/a	WORD	541439	wordpools/wasnorm_wordpool.txt	LTP090	ltpFR	1	5	-1	OAR	966	n/a	-1	1	1.0	1.0	upper	../fonts/Verdana.ttf
1088.91	n/a	REC_START	544455	n/a	LTP090	ltpFR	1	5	n/a	n/a	n/a	n/a	n/a	n/a	n/a	n/a	n/a	n/a
1090.222	n/a	REC_WORD	545111	wordpools/wasnorm_wordpool.txt	LTP090	ltpFR	1	5	-1	OAR	966	n/a	-1	n/a	n/a	n/a	n/a	n/a
1091.612	n/a	REC_WORD	545806	wordpools/wasnorm_wordpool.txt	LTP090	ltpFR	1	5	-1	SEASHORE	1263	n/a	-1	n/a	n/a	n/a	n/a	n/a
1096.998	n/a	REC_WORD	548499	wordpools/wasnorm_wordpool.txt	LTP090	ltpFR	1	5	n/a	BEACH	-1	n/a	n/a	n/a	n/a	n/a	n/a	n/a
1100.83	n/a	REC_WORD	550415	wordpools/wasnorm_wordpool.txt	LTP090	ltpFR	1	5	-1	TWEEZERS	1526	n/a	-1	n/a	n/a	n/a	n/a	n/a
1104.402	n/a	REC_WORD	552201	wordpools/wasnorm_wordpool.txt	LTP090	ltpFR	1	5	-1	CLIPPERS	324	n/a	-1	n/a	n/a	n/a	n/a	n/a
1106.766	n/a	REC_WORD	553383	wordpools/wasnorm_wordpool.txt	LTP090	ltpFR	1	5	-1	HIGHWAY	707	n/a	-1	n/a	n/a	n/a	n/a	n/a
1108.95	n/a	REC_WORD	554475	wordpools/wasnorm_wordpool.txt	LTP090	ltpFR	1	5	-1	ESSAY	540	n/a	-1	n/a	n/a	n/a	n/a	n/a
1116.774	n/a	REC_WORD	558387	wordpools/wasnorm_wordpool.txt	LTP090	ltpFR	1	5	-1	MARSH	874	n/a	-1	n/a	n/a	n/a	n/a	n/a
1119.896	n/a	REC_WORD	559948	wordpools/wasnorm_wordpool.txt	LTP090	ltpFR	1	5	-1	CASKET	255	n/a	-1	n/a	n/a	n/a	n/a	n/a
1121.912	n/a	REC_WORD	560956	wordpools/wasnorm_wordpool.txt	LTP090	ltpFR	1	5	-1	BEAN	105	n/a	-1	n/a	n/a	n/a	n/a	n/a
1124.8	n/a	REC_WORD	562400	wordpools/wasnorm_wordpool.txt	LTP090	ltpFR	1	5	-1	RADISH	1158	n/a	-1	n/a	n/a	n/a	n/a	n/a
1127.5	n/a	REC_WORD	563750	wordpools/wasnorm_wordpool.txt	LTP090	ltpFR	1	5	-1	POLICE	1098	n/a	-1	n/a	n/a	n/a	n/a	n/a
1175.342	n/a	WORD	587671	wordpools/wasnorm_wordpool.txt	LTP090	ltpFR	1	6	1	SUNRISE	1407	n/a	0	1	0.412841796875	0.57763671875	lower	../fonts/zerothre.ttf
1179.226	n/a	WORD	589613	wordpools/wasnorm_wordpool.txt	LTP090	ltpFR	1	6	1	SHORE	1291	n/a	0	1	0.412841796875	0.57763671875	lower	../fonts/zerothre.ttf
1183.224	n/a	WORD	591612	wordpools/wasnorm_wordpool.txt	LTP090	ltpFR	1	6	1	CLAW	319	n/a	0	1	0.412841796875	0.57763671875	lower	../fonts/zerothre.ttf
1187.174	n/a	WORD	593587	wordpools/wasnorm_wordpool.txt	LTP090	ltpFR	1	6	1	PRODUCER	1129	n/a	1	1	0.412841796875	0.57763671875	lower	../fonts/zerothre.ttf
1191.352	n/a	WORD	595676	wordpools/wasnorm_wordpool.txt	LTP090	ltpFR	1	6	1	BODY	145	n/a	1	1	0.412841796875	0.57763671875	lower	../fonts/zerothre.ttf
1195.418	n/a	WORD	597709	wordpools/wasnorm_wordpool.txt	LTP090	ltpFR	1	6	1	APARTMENT	30	n/a	0	1	0.412841796875	0.57763671875	lower	../fonts/zerothre.ttf
1199.25	n/a	WORD	599625	wordpools/wasnorm_wordpool.txt	LTP090	ltpFR	1	6	1	UMPIRE	1535	n/a	1	1	0.412841796875	0.57763671875	lower	../fonts/zerothre.ttf
1203.09	n/a	WORD	601545	wordpools/wasnorm_wordpool.txt	LTP090	ltpFR	1	6	1	FLANNEL	574	n/a	0	1	0.412841796875	0.57763671875	lower	../fonts/zerothre.ttf
1206.94	n/a	WORD	603470	wordpools/wasnorm_wordpool.txt	LTP090	ltpFR	1	6	1	BED	110	n/a	0	1	0.412841796875	0.57763671875	lower	../fonts/zerothre.ttf
1211.008	n/a	WORD	605504	wordpools/wasnorm_wordpool.txt	LTP090	ltpFR	1	6	1	SCARF	1246	n/a	0	1	0.412841796875	0.57763671875	lower	../fonts/zerothre.ttf
1214.866	n/a	WORD	607433	wordpools/wasnorm_wordpool.txt	LTP090	ltpFR	1	6	1	JUGGLER	763	n/a	1	1	0.412841796875	0.57763671875	lower	../fonts/zerothre.ttf
1218.816	n/a	WORD	609408	wordpools/wasnorm_wordpool.txt	LTP090	ltpFR	1	6	1	SEAGULL	1261	n/a	1	1	0.412841796875	0.57763671875	lower	../fonts/zerothre.ttf
1222.65	n/a	WORD	611325	wordpools/wasnorm_wordpool.txt	LTP090	ltpFR	1	6	1	CROW	414	n/a	1	1	0.412841796875	0.57763671875	lower	../fonts/zerothre.ttf
1226.732	n/a	WORD	613366	wordpools/wasnorm_wordpool.txt	LTP090	ltpFR	1	6	1	CAMERA	224	n/a	0	1	0.412841796875	0.57763671875	lower	../fonts/zerothre.ttf
1230.858	n/a	WORD	615429	wordpools/wasnorm_wordpool.txt	LTP090	ltpFR	1	6	1	BASKETBALL	96	n/a	0	1	0.412841796875	0.57763671875	lower	../fonts/zerothre.ttf
1234.882	n/a	WORD	617441	wordpools/wasnorm_wordpool.txt	LTP090	ltpFR	1	6	1	INTESTINE	742	n/a	1	1	0.412841796875	0.57763671875	lower	../fonts/zerothre.ttf
1240.858	n/a	REC_START	620429	n/a	LTP090	ltpFR	1	6	n/a	n/a	n/a	n/a	n/a	n/a	n/a	n/a	n/a	n/a
1242.872	n/a	REC_WORD	621436	wordpools/wasnorm_wordpool.txt	LTP090	ltpFR	1	6	1	INTESTINE	742	n/a	1	n/a	n/a	n/a	n/a	n/a
1244.674	n/a	REC_WORD	622337	wordpools/wasnorm_wordpool.txt	LTP090	ltpFR	1	6	1	BODY	145	n/a	1	n/a	n/a	n/a	n/a	n/a
1246.464	n/a	REC_WORD	623232	wordpools/wasnorm_wordpool.txt	LTP090	ltpFR	1	6	1	PRODUCER	1129	n/a	1	n/a	n/a	n/a	n/a	n/a
1248.604	n/a	REC_WORD	624302	wordpools/wasnorm_wordpool.txt	LTP090	ltpFR	1	6	1	JUGGLER	763	n/a	1	n/a	n/a	n/a	n/a	n/a
1251.006	n/a	REC_WORD	625503	wordpools/wasnorm_wordpool.txt	LTP090	ltpFR	1	6	1	BASKETBALL	96	n/a	0	n/a	n/a	n/a	n/a	n/a
1253.056	n/a	REC_WORD	626528	wordpools/wasnorm_wordpool.txt	LTP090	ltpFR	1	6	1	CAMERA	224	n/a	0	n/a	n/a	n/a	n/a	n/a
1254.996	n/a	REC_WORD	627498	wordpools/wasnorm_wordpool.txt	LTP090	ltpFR	1	6	1	BED	110	n/a	0	n/a	n/a	n/a	n/a	n/a
1256.952	n/a	REC_WORD	628476	wordpools/wasnorm_wordpool.txt	LTP090	ltpFR	1	6	1	SEAGULL	1261	n/a	1	n/a	n/a	n/a	n/a	n/a
1259.066	n/a	REC_WORD	629533	wordpools/wasnorm_wordpool.txt	LTP090	ltpFR	1	6	1	SUNRISE	1407	n/a	0	n/a	n/a	n/a	n/a	n/a
1270.516	n/a	REC_WORD	635258	wordpools/wasnorm_wordpool.txt	LTP090	ltpFR	1	6	1	APARTMENT	30	n/a	0	n/a	n/a	n/a	n/a	n/a
1277.83	n/a	REC_WORD	638915	wordpools/wasnorm_wordpool.txt	LTP090	ltpFR	1	6	1	FLANNEL	574	n/a	0	n/a	n/a	n/a	n/a	n/a
1281.028	n/a	REC_WORD	640514	wordpools/wasnorm_wordpool.txt	LTP090	ltpFR	1	6	1	SCARF	1246	n/a	0	n/a	n/a	n/a	n/a	n/a
1323.43	n/a	WORD	661715	wordpools/wasnorm_wordpool.txt	LTP090	ltpFR	1	7	1	MECHANIC	884	n/a	1	1	0.412841796875	0.57763671875	lower	../fonts/zerothre.ttf
1327.304	n/a	WORD	663652	wordpools/wasnorm_wordpool.txt	LTP090	ltpFR	1	7	1	ANGEL	22	n/a	1	1	0.412841796875	0.57763671875	lower	../fonts/zerothre.ttf
1331.356	n/a	WORD	665678	wordpools/wasnorm_wordpool.txt	LTP090	ltpFR	1	7	1	CAT	257	n/a	1	1	0.412841796875	0.57763671875	lower	../fonts/zerothre.ttf
1335.364	n/a	WORD	667682	wordpools/wasnorm_wordpool.txt	LTP090	ltpFR	1	7	1	PENNY	1045	n/a	0	1	0.412841796875	0.57763671875	lower	../fonts/zerothre.ttf
1339.556	n/a	WORD	669778	wordpools/wasnorm_wordpool.txt	LTP090	ltpFR	1	7	1	CASH	252	n/a	0	1	0.412841796875	0.57763671875	lower	../fonts/zerothre.ttf
1343.446	n/a	WORD	671723	wordpools/wasnorm_wordpool.txt	LTP090	ltpFR	1	7	1	LEOPARD	812	n/a	1	1	0.412841796875	0.57763671875	lower	../fonts/zerothre.ttf
1347.522	n/a	WORD	673761	wordpools/wasnorm_wordpool.txt	LTP090	ltpFR	1	7	1	ARTERY	41	n/a	1	1	0.412841796875	0.57763671875	lower	../fonts/zerothre.ttf
1351.388	n/a	WORD	675694	wordpools/wasnorm_wordpool.txt	LTP090	ltpFR	1	7	1	PHOTO	1055	n/a	0	1	0.412841796875	0.57763671875	lower	../fonts/zerothre.ttf
1355.396	n/a	WORD	677698	wordpools/wasnorm_wordpool.txt	LTP090	ltpFR	1	7	1	SICKLE	1302	n/a	0	1	0.412841796875	0.57763671875	lower	../fonts/zerothre.ttf
1359.238	n/a	WORD	679619	wordpools/wasnorm_wordpool.txt	LTP090	ltpFR	1	7	1	HATCHET	691	n/a	0	1	0.412841796875	0.57763671875	lower	../fonts/zerothre.ttf
1363.054	n/a	WORD	681527	wordpools/wasnorm_wordpool.txt	LTP090	ltpFR	1	7	1	DIAGRAM	456	n/a	0	1	0.412841796875	0.57763671875	lower	../fonts/zerothre.ttf
1367.012	n/a	WORD	683506	wordpools/wasnorm_wordpool.txt	LTP090	ltpFR	1	7	1	MULE	931	n/a	1	1	0.412841796875	0.57763671875	lower	../fonts/zerothre.ttf
1371.038	n/a	WORD	685519	wordpools/wasnorm_wordpool.txt	LTP090	ltpFR	1	7	1	WASHCLOTH	1591	n/a	0	1	0.412841796875	0.57763671875	lower	../fonts/zerothre.ttf
1375.196	n/a	WORD	687598	wordpools/wasnorm_wordpool.txt	LTP090	ltpFR	1	7	1	CANAL	226	n/a	0	1	0.412841796875	0.57763671875	lower	../fonts/zerothre.ttf
1379.262	n/a	WORD	689631	wordpools/wasnorm_wordpool.txt	LTP090	ltpFR	1	7	1	ANTEATER	26	n/a	0	1	0.412841796875	0.57763671875	lower	../fonts/zerothre.ttf
1383.162	n/a	WORD	691581	wordpools/wasnorm_wordpool.txt	LTP090	ltpFR	1	7	1	MARGARINE	868	n/a	0	1	0.412841796875	0.57763671875	lower	../fonts/zerothre.ttf
1388.796	n/a	REC_START	694398	n/a	LTP090	ltpFR	1	7	n/a	n/a	n/a	n/a	n/a	n/a	n/a	n/a	n/a	n/a
1390.986	n/a	REC_WORD	695493	wordpools/wasnorm_wordpool.txt	LTP090	ltpFR	1	7	1	MARGARINE	868	n/a	0	n/a	n/a	n/a	n/a	n/a
1392.792	n/a	REC_WORD	696396	wordpools/wasnorm_wordpool.txt	LTP090	ltpFR	1	7	1	ANTEATER	26	n/a	0	n/a	n/a	n/a	n/a	n/a
1398.184	n/a	REC_WORD	699092	wordpools/wasnorm_wordpool.txt	LTP090	ltpFR	1	7	1	SICKLE	1302	n/a	0	n/a	n/a	n/a	n/a	n/a
1407.824	n/a	REC_WORD	703912	wordpools/wasnorm_wordpool.txt	LTP090	ltpFR	1	7	1	CAT	257	n/a	1	n/a	n/a	n/a	n/a	n/a
1409.938	n/a	REC_WORD	704969	wordpools/wasnorm_wordpool.txt	LTP090	ltpFR	1	7	1	LEOPARD	812	n/a	1	n/a	n/a	n/a	n/a	n/a
1412.458	n/a	REC_WORD	706229	wordpools/wasnorm_wordpool.txt	LTP090	ltpFR	1	7	1	ANGEL	22	n/a	1	n/a	n/a	n/a	n/a	n/a
1414.708	n/a	REC_WORD	707354	wordpools/wasnorm_wordpool.txt	LTP090	ltpFR	1	7	1	MECHANIC	884	n/a	1	n/a	n/a	n/a	n/a	n/a
1453.526	n/a	REC_WORD	726763	wordpools/wasnorm_wordpool.txt	LTP090	ltpFR	1	7	1	ARTERY	41	n/a	1	n/a	n/a	n/a	n/a	n/a
1475.918	n/a	WORD	737959	wordpools/wasnorm_wordpool.txt	LTP090	ltpFR	1	8	0	BELLY	119	n/a	1	0	0.5869140625	0.422607421875	upper	../fonts/amplitud.ttf
1480.05	n/a	WORD	740025	wordpools/wasnorm_wordpool.txt	LTP090	ltpFR	1	8	0	PRISONER	1128	n/a	1	0	0.5869140625	0.422607421875	upper	../fonts/amplitud.ttf
1484.2	n/a	WORD	742100	wordpools/wasnorm_wordpool.txt	LTP090	ltpFR	1	8	0	STREET	1393	n/a	1	0	0.5869140625	0.422607421875	upper	../fonts/amplitud.ttf
1488.402	n/a	WORD	744201	wordpools/wasnorm_wordpool.txt	LTP090	ltpFR	1	8	0	DAD	433	n/a	1	0	0.5869140625	0.422607421875	upper	../fonts/amplitud.ttf
1492.534	n/a	WORD	746267	wordpools/wasnorm_wordpool.txt	LTP090	ltpFR	1	8	0	MEAL	882	n/a	1	0	0.5869140625	0.422607421875	upper	../fonts/amplitud.ttf
1496.444	n/a	WORD	748222	wordpools/wasnorm_wordpool.txt	LTP090	ltpFR	1	8	0	SIGNATURE	1306	n/a	0	0	0.5869140625	0.422607421875	upper	../fonts/amplitud.ttf
1500.376	n/a	WORD	750188	wordpools/wasnorm_wordpool.txt	LTP090	ltpFR	1	8	0	LABEL	790	n/a	0	0	0.5869140625	0.422607421875	upper	../fonts/amplitud.ttf
1504.316	n/a	WORD	752158	wordpools/wasnorm_wordpool.txt	LTP090	ltpFR	1	8	0	COAL	332	n/a	0	0	0.5869140625	0.422607421875	upper	../fonts/amplitud.ttf
1508.502	n/a	WORD	754251	wordpools/wasnorm_wordpool.txt	LTP090	ltpFR	1	8	0	DIARY	460	n/a	0	0	0.5869140625	0.422607421875	upper	../fonts/amplitud.ttf
1512.584	n/a	WORD	756292	wordpools/wasnorm_wordpool.txt	LTP090	ltpFR	1	8	0	BANQUET	86	n/a	1	0	0.5869140625	0.422607421875	upper	../fonts/amplitud.ttf
1516.668	n/a	WORD	758334	wordpools/wasnorm_wordpool.txt	LTP090	ltpFR	1	8	0	TRICYCLE	1506	n/a	1	0	0.5869140625	0.422607421875	upper	../fonts/amplitud.ttf
1520.642	n/a	WORD	760321	wordpools/wasnorm_wordpool.txt	LTP090	ltpFR	1	8	0	SERVER	1272	n/a	1	0	0.5869140625	0.422607421875	upper	../fonts/amplitud.ttf
1524.56	n/a	WORD	762280	wordpools/wasnorm_wordpool.txt	LTP090	ltpFR	1	8	0	GAZELLE	628	n/a	1	0	0.5869140625	0.422607421875	upper	../fonts/amplitud.ttf
1528.434	n/a	WORD	764217	wordpools/wasnorm_wordpool.txt	LTP090	ltpFR	1	8	0	POSSUM	1112	n/a	0	0	0.5869140625	0.422607421875	upper	../fonts/amplitud.ttf
1532.3	n/a	WORD	766150	wordpools/wasnorm_wordpool.txt	LTP090	ltpFR	1	8	0	ROBOT	1200	n/a	1	0	0.5869140625	0.422607421875	upper	../fonts/amplitud.ttf
1536.332	n/a	WORD	768166	wordpools/wasnorm_wordpool.txt	LTP090	ltpFR	1	8	0	FEAST	556	n/a	1	0	0.5869140625	0.422607421875	upper	../fonts/amplitud.ttf
1542.25	n/a	REC_START	771125	n/a	LTP090	ltpFR	1	8	n/a	n/a	n/a	n/a	n/a	n/a	n/a	n/a	n/a	n/a
1543.816	n/a	REC_WORD	771908	wordpools/wasnorm_wordpool.txt	LTP090	ltpFR	1	8	0	FEAST	556	n/a	1	n/a	n/a	n/a	n/a	n/a
1545.658	n/a	REC_WORD	772829	wordpools/wasnorm_wordpool.txt	LTP090	ltpFR	1	8	0	BANQUET	86	n/a	1	n/a	n/a	n/a	n/a	n/a
1547.648	n/a	REC_WORD	773824	wordpools/wasnorm_wordpool.txt	LTP090	ltpFR	1	8	0	MEAL	882	n/a	1	n/a	n/a	n/a	n/a	n/a
1549.768	n/a	REC_WORD	774884	wordpools/wasnorm_wordpool.txt	LTP090	ltpFR	1	8	0	SERVER	1272	n/a	1	n/a	n/a	n/a	n/a	n/a
1552.552	n/a	REC_WORD	776276	wordpools/wasnorm_wordpool.txt	LTP090	ltpFR	1	8	0	STREET	1393	n/a	1	n/a	n/a	n/a	n/a	n/a
1555.426	n/a	REC_WORD	777713	wordpools/wasnorm_wordpool.txt	LTP090	ltpFR	1	8	0	PRISONER	1128	n/a	1	n/a	n/a	n/a	n/a	n/a
1557.516	n/a	REC_WORD	778758	wordpools/wasnorm_wordpool.txt	LTP090	ltpFR	1	8	0	BELLY	119	n/a	1	n/a	n/a	n/a	n/a	n/a
1559.816	n/a	REC_WORD	779908	wordpools/wasnorm_wordpool.txt	LTP090	ltpFR	1	8	0	DAD	433	n/a	1	n/a	n/a	n/a	n/a	n/a
1566.512	n/a	REC_WORD	783256	wordpools/wasnorm_wordpool.txt	LTP090	ltpFR	1	8	0	TRICYCLE	1506	n/a	1	n/a	n/a	n/a	n/a	n/a
1569.066	n/a	REC_WORD	784533	wordpools/wasnorm_wordpool.txt	LTP090	ltpFR	1	8	0	ROBOT	1200	n/a	1	n/a	n/a	n/a	n/a	n/a
1572.518	n/a	REC_WORD	786259	wordpools/wasnorm_wordpool.txt	LTP090	ltpFR	1	8	0	COAL	332	n/a	0	n/a	n/a	n/a	n/a	n/a
1574.732	n/a	REC_WORD	787366	wordpools/wasnorm_wordpool.txt	LTP090	ltpFR	1	8	0	SIGNATURE	1306	n/a	0	n/a	n/a	n/a	n/a	n/a
1577.806	n/a	REC_WORD	788903	wordpools/wasnorm_wordpool.txt	LTP090	ltpFR	1	8	0	DIARY	460	n/a	0	n/a	n/a	n/a	n/a	n/a
1580.964	n/a	REC_WORD	790482	wordpools/wasnorm_wordpool.txt	LTP090	ltpFR	1	8	0	LABEL	790	n/a	0	n/a	n/a	n/a	n/a	n/a
1584.86	n/a	REC_WORD	792430	wordpools/wasnorm_wordpool.txt	LTP090	ltpFR	1	8	0	GAZELLE	628	n/a	1	n/a	n/a	n/a	n/a	n/a
1624.98	n/a	WORD	812490	wordpools/wasnorm_wordpool.txt	LTP090	ltpFR	1	9	0	TRAY	1498	n/a	0	0	0.5869140625	0.422607421875	upper	../fonts/amplitud.ttf
1629.048	n/a	WORD	814524	wordpools/wasnorm_wordpool.txt	LTP090	ltpFR	1	9	0	PICNIC	1060	n/a	1	0	0.5869140625	0.422607421875	upper	../fonts/amplitud.ttf
1633.13	n/a	WORD	816565	wordpools/wasnorm_wordpool.txt	LTP090	ltpFR	1	9	0	BEER	114	n/a	0	0	0.5869140625	0.422607421875	upper	../fonts/amplitud.ttf
1637.064	n/a	WORD	818532	wordpools/wasnorm_wordpool.txt	LTP090	ltpFR	1	9	0	BEARD	107	n/a	0	0	0.5869140625	0.422607421875	upper	../fonts/amplitud.ttf
1640.98	n/a	WORD	820490	wordpools/wasnorm_wordpool.txt	LTP090	ltpFR	1	9	0	ERASER	538	n/a	0	0	0.5869140625	0.422607421875	upper	../fonts/amplitud.ttf
1645.014	n/a	WORD	822507	wordpools/wasnorm_wordpool.txt	LTP090	ltpFR	1	9	0	WHISTLE	1606	n/a	0	0	0.5869140625	0.422607421875	upper	../fonts/amplitud.ttf
1648.938	n/a	WORD	824469	wordpools/wasnorm_wordpool.txt	LTP090	ltpFR	1	9	0	MICROPHONE	890	n/a	0	0	0.5869140625	0.422607421875	upper	../fonts/amplitud.ttf
1652.93	n/a	WORD	826465	wordpools/wasnorm_wordpool.txt	LTP090	ltpFR	1	9	0	ROBE	1198	n/a	1	0	0.5869140625	0.422607421875	upper	../fonts/amplitud.ttf
1656.888	n/a	WORD	828444	wordpools/wasnorm_wordpool.txt	LTP090	ltpFR	1	9	0	HEADBAND	696	n/a	0	0	0.5869140625	0.422607421875	upper	../fonts/amplitud.ttf
1660.83	n/a	WORD	830415	wordpools/wasnorm_wordpool.txt	LTP090	ltpFR	1	9	0	BARTENDER	92	n/a	1	0	0.5869140625	0.422607421875	upper	../fonts/amplitud.ttf
1664.88	n/a	WORD	832440	wordpools/wasnorm_wordpool.txt	LTP090	ltpFR	1	9	0	PLUMBER	1091	n/a	1	0	0.5869140625	0.422607421875	upper	../fonts/amplitud.ttf
1668.896	n/a	WORD	834448	wordpools/wasnorm_wordpool.txt	LTP090	ltpFR	1	9	0	SINK	1309	n/a	0	0	0.5869140625	0.422607421875	upper	../fonts/amplitud.ttf
1672.93	n/a	WORD	836465	wordpools/wasnorm_wordpool.txt	LTP090	ltpFR	1	9	0	ROD	1203	n/a	0	0	0.5869140625	0.422607421875	upper	../fonts/amplitud.ttf
1676.788	n/a	WORD	838394	wordpools/wasnorm_wordpool.txt	LTP090	ltpFR	1	9	0	TEACHER	1440	n/a	1	0	0.5869140625	0.422607421875	upper	../fonts/amplitud.ttf
1680.954	n/a	WORD	840477	wordpools/wasnorm_wordpool.txt	LTP090	ltpFR	1	9	0	DISH	474	n/a	0	0	0.5869140625	0.422607421875	upper	../fonts/amplitud.ttf
1684.88	n/a	WORD	842440	wordpools/wasnorm_wordpool.txt	LTP090	ltpFR	1	9	0	TOWEL	1489	n/a	0	0	0.5869140625	0.422607421875	upper	../fonts/amplitud.ttf
1690.73	n/a	REC_START	845365	n/a	LTP090	ltpFR	1	9	n/a	n/a	n/a	n/a	n/a	n/a	n/a	n/a	n/a	n/a
1692.442	n/a	REC_WORD	846221	wordpools/wasnorm_wordpool.txt	LTP090	ltpFR	1	9	0	TOWEL	1489	n/a	0	n/a	n/a	n/a	n/a	n/a
1694.406	n/a	REC_WORD	847203	wordpools/wasnorm_wordpool.txt	LTP090	ltpFR	1	9	0	PICNIC	1060	n/a	1	n/a	n/a	n/a	n/a	n/a
1696.962	n/a	REC_WORD	848481	wordpools/wasnorm_wordpool.txt	LTP090	ltpFR	1	9	0	TRAY	1498	n/a	0	n/a	n/a	n/a	n/a	n/a
1698.602	n/a	REC_WORD	849301	wordpools/wasnorm_wordpool.txt	LTP090	ltpFR	1	9	0	PLATE	1086	n/a	0	n/a	n/a	n/a	n/a	n/a
1702.314	n/a	REC_WORD	851157	wordpools/wasnorm_wordpool.txt	LTP090	ltpFR	1	9	0	ROBE	1198	n/a	1	n/a	n/a	n/a	n/a	n/a
1703.932	n/a	REC_WORD	851966	wordpools/wasnorm_wordpool.txt	LTP090	ltpFR	1	9	0	HEADBAND	696	n/a	0	n/a	n/a	n/a	n/a	n/a
1707.592	n/a	REC_WORD	853796	wordpools/wasnorm_wordpool.txt	LTP090	ltpFR	1	9	0	PLUMBER	1091	n/a	1	n/a	n/a	n/a	n/a	n/a
1709.124	n/a	REC_WORD	854562	wordpools/wasnorm_wordpool.txt	LTP090	ltpFR	1	9	0	SINK	1309	n/a	0	n/a	n/a	n/a	n/a	n/a
1710.87	n/a	REC_WORD	855435	wordpools/wasnorm_wordpool.txt	LTP090	ltpFR	1	9	0	ROD	1203	n/a	0	n/a	n/a	n/a	n/a	n/a
1713.454	n/a	REC_WORD	856727	wordpools/wasnorm_wordpool.txt	LTP090	ltpFR	1	9	0	TEACHER	1440	n/a	1	n/a	n/a	n/a	n/a	n/a
1726.042	n/a	REC_WORD	863021	wordpools/wasnorm_wordpool.txt	LTP090	ltpFR	1	9	0	ERASER	538	n/a	0	n/a	n/a	n/a	n/a	n/a
1738.344	n/a	REC_WORD	869172	wordpools/wasnorm_wordpool.txt	LTP090	ltpFR	1	9	0	BARTENDER	92	n/a	1	n/a	n/a	n/a	n/a	n/a
1773.462	n/a	WORD	886731	wordpools/wasnorm_wordpool.txt	LTP090	ltpFR	1	10	0	FOREHEAD	592	n/a	1	0	0.5869140625	0.422607421875	upper	../fonts/amplitud.ttf
1777.644	n/a	WORD	888822	wordpools/wasnorm_wordpool.txt	LTP090	ltpFR	1	10	0	NOSE	957	n/a	0	0	0.5869140625	0.422607421875	upper	../fonts/amplitud.ttf
1781.828	n/a	WORD	890914	wordpools/wasnorm_wordpool.txt	LTP090	ltpFR	1	10	0	HEATER	698	n/a	0	0	0.5869140625	0.422607421875	upper	../fonts/amplitud.ttf
1785.952	n/a	WORD	892976	wordpools/wasnorm_wordpool.txt	LTP090	ltpFR	1	10	0	PUDDLE	1140	n/a	0	0	0.5869140625	0.422607421875	upper	../fonts/amplitud.ttf
1789.902	n/a	WORD	894951	wordpools/wasnorm_wordpool.txt	LTP090	ltpFR	1	10	1	ASSISTANT	48	n/a	1	1	0.412841796875	0.57763671875	lower	../fonts/zerothre.ttf
1793.778	n/a	WORD	896889	wordpools/wasnorm_wordpool.txt	LTP090	ltpFR	1	10	1	ORANGE	980	n/a	1	1	0.412841796875	0.57763671875	lower	../fonts/zerothre.ttf
1797.768	n/a	WORD	898884	wordpools/wasnorm_wordpool.txt	LTP090	ltpFR	1	10	1	SUPERMARKET	1409	n/a	0	1	0.412841796875	0.57763671875	lower	../fonts/zerothre.ttf
1801.686	n/a	WORD	900843	wordpools/wasnorm_wordpool.txt	LTP090	ltpFR	1	10	1	KANGAROO	768	n/a	1	1	0.412841796875	0.57763671875	lower	../fonts/zerothre.ttf
1805.494	n/a	WORD	902747	wordpools/wasnorm_wordpool.txt	LTP090	ltpFR	1	10	1	NOTE	958	n/a	0	1	0.412841796875	0.57763671875	lower	../fonts/zerothre.ttf
1809.552	n/a	WORD	904776	wordpools/wasnorm_wordpool.txt	LTP090	ltpFR	1	10	1	BOTTLE	153	n/a	0	1	0.412841796875	0.57763671875	lower	../fonts/zerothre.ttf
1813.652	n/a	WORD	906826	wordpools/wasnorm_wordpool.txt	LTP090	ltpFR	1	10	0	RACCOON	1153	n/a	0	0	0.5869140625	0.422607421875	upper	../fonts/amplitud.ttf
1817.676	n/a	WORD	908838	wordpools/wasnorm_wordpool.txt	LTP090	ltpFR	1	10	0	FLUTE	585	n/a	0	0	0.5869140625	0.422607421875	upper	../fonts/amplitud.ttf
1821.586	n/a	WORD	910793	wordpools/wasnorm_wordpool.txt	LTP090	ltpFR	1	10	0	WORKER	1621	n/a	1	0	0.5869140625	0.422607421875	upper	../fonts/amplitud.ttf
1825.436	n/a	WORD	912718	wordpools/wasnorm_wordpool.txt	LTP090	ltpFR	1	10	0	CHEF	290	n/a	1	0	0.5869140625	0.422607421875	upper	../fonts/amplitud.ttf
1829.602	n/a	WORD	914801	wordpools/wasnorm_wordpool.txt	LTP090	ltpFR	1	10	1	CABIN	211	n/a	0	1	0.412841796875	0.57763671875	lower	../fonts/zerothre.ttf
1833.784	n/a	WORD	916892	wordpools/wasnorm_wordpool.txt	LTP090	ltpFR	1	10	1	HOUSE	725	n/a	0	1	0.412841796875	0.57763671875	lower	../fonts/zerothre.ttf
1839.86	n/a	REC_START	919930	n/a	LTP090	ltpFR	1	10	n/a	n/a	n/a	n/a	n/a	n/a	n/a	n/a	n/a	n/a
1841.276	n/a	REC_WORD	920638	wordpools/wasnorm_wordpool.txt	LTP090	ltpFR	1	10	1	HOUSE	725	n/a	0	n/a	n/a	n/a	n/a	n/a
1843.716	n/a	REC_WORD	921858	wordpools/wasnorm_wordpool.txt	LTP090	ltpFR	1	10	1	CABIN	211	n/a	0	n/a	n/a	n/a	n/a	n/a
1846.728	n/a	REC_WORD	923364	wordpools/wasnorm_wordpool.txt	LTP090	ltpFR	1	10	1	KANGAROO	768	n/a	1	n/a	n/a	n/a	n/a	n/a
1849.936	n/a	REC_WORD	924968	wordpools/wasnorm_wordpool.txt	LTP090	ltpFR	1	10	1	SUPERMARKET	1409	n/a	0	n/a	n/a	n/a	n/a	n/a
1853.494	n/a	REC_WORD	926747	wordpools/wasnorm_wordpool.txt	LTP090	ltpFR	1	10	1	NOTE	958	n/a	0	n/a	n/a	n/a	n/a	n/a
1863.93	n/a	REC_WORD	931965	wordpools/wasnorm_wordpool.txt	LTP090	ltpFR	1	10	0	HEATER	698	n/a	0	n/a	n/a	n/a	n/a	n/a
1867.068	n/a	REC_WORD	933534	wordpools/wasnorm_wordpool.txt	LTP090	ltpFR	1	10	0	NOSE	957	n/a	0	n/a	n/a	n/a	n/a	n/a
1869.228	n/a	REC_WORD	934614	wordpools/wasnorm_wordpool.txt	LTP090	ltpFR	1	10	0	FOREHEAD	592	n/a	1	n/a	n/a	n/a	n/a	n/a
1920.808	n/a	WORD	960404	wordpools/wasnorm_wordpool.txt	LTP090	ltpFR	1	11	0	MOUNTAIN	924	n/a	1	0	0.5869140625	0.422607421875	upper	../fonts/amplitud.ttf
1924.998	n/a	WORD	962499	wordpools/wasnorm_wordpool.txt	LTP090	ltpFR	1	11	0	SIDEWALK	1303	n/a	1	0	0.5869140625	0.422607421875	upper	../fonts/amplitud.ttf
1929.022	n/a	WORD	964511	wordpools/wasnorm_wordpool.txt	LTP090	ltpFR	1	11	1	DRYER	503	n/a	0	1	0.412841796875	0.57763671875	lower	../fonts/zerothre.ttf
1933.08	n/a	WORD	966540	wordpools/wasnorm_wordpool.txt	LTP090	ltpFR	1	11	1	PUBLICATION	1136	n/a	0	1	0.412841796875	0.57763671875	lower	../fonts/zerothre.ttf
1937.106	n/a	WORD	968553	wordpools/wasnorm_wordpool.txt	LTP090	ltpFR	1	11	1	TORTOISE	1486	n/a	1	1	0.412841796875	0.57763671875	lower	../fonts/zerothre.ttf
1941.09	n/a	WORD	970545	wordpools/wasnorm_wordpool.txt	LTP090	ltpFR	1	11	1	ARTICLE	42	n/a	0	1	0.412841796875	0.57763671875	lower	../fonts/zerothre.ttf
1945.098	n/a	WORD	972549	wordpools/wasnorm_wordpool.txt	LTP090	ltpFR	1	11	0	ALLEY	15	n/a	1	0	0.5869140625	0.422607421875	upper	../fonts/amplitud.ttf
1949.256	n/a	WORD	974628	wordpools/wasnorm_wordpool.txt	LTP090	ltpFR	1	11	0	BEEF	113	n/a	0	0	0.5869140625	0.422607421875	upper	../fonts/amplitud.ttf
1953.348	n/a	WORD	976674	wordpools/wasnorm_wordpool.txt	LTP090	ltpFR	1	11	0	HERD	705	n/a	1	0	0.5869140625	0.422607421875	upper	../fonts/amplitud.ttf
1957.19	n/a	WORD	978595	wordpools/wasnorm_wordpool.txt	LTP090	ltpFR	1	11	1	BUG	187	n/a	1	1	0.412841796875	0.57763671875	lower	../fonts/zerothre.ttf
1961.23	n/a	WORD	980615	wordpools/wasnorm_wordpool.txt	LTP090	ltpFR	1	11	1	CRICKET	408	n/a	1	1	0.412841796875	0.57763671875	lower	../fonts/zerothre.ttf
1965.114	n/a	WORD	982557	wordpools/wasnorm_wordpool.txt	LTP090	ltpFR	1	11	1	TOOTHBRUSH	1482	n/a	0	1	0.412841796875	0.57763671875	lower	../fonts/zerothre.ttf
1969.322	n/a	WORD	984661	wordpools/wasnorm_wordpool.txt	LTP090	ltpFR	1	11	1	SNAKE	1333	n/a	1	1	0.412841796875	0.57763671875	lower	../fonts/zerothre.ttf
1973.254	n/a	WORD	986627	wordpools/wasnorm_wordpool.txt	LTP090	ltpFR	1	11	0	BINDER	127	n/a	0	0	0.5869140625	0.422607421875	upper	../fonts/amplitud.ttf
1977.464	n/a	WORD	988732	wordpools/wasnorm_wordpool.txt	LTP090	ltpFR	1	11	0	CRATER	400	n/a	1	0	0.5869140625	0.422607421875	upper	../fonts/amplitud.ttf
1981.356	n/a	WORD	990678	wordpools/wasnorm_wordpool.txt	LTP090	ltpFR	1	11	0	PLANET	1082	n/a	1	0	0.5869140625	0.422607421875	upper	../fonts/amplitud.ttf
1987.188	n/a	REC_START	993594	n/a	LTP090	ltpFR	1	11	n/a	n/a	n/a	n/a	n/a	n/a	n/a	n/a	n/a	n/a
1988.61	n/a	REC_WORD	994305	wordpools/wasnorm_wordpool.txt	LTP090	ltpFR	1	11	0	PLANET	1082	n/a	1	n/a	n/a	n/a	n/a	n/a
1990.232	n/a	REC_WORD	995116	wordpools/wasnorm_wordpool.txt	LTP090	ltpFR	1	11	0	CRATER	400	n/a	1	n/a	n/a	n/a	n/a	n/a
1992.242	n/a	REC_WORD	996121	wordpools/wasnorm_wordpool.txt	LTP090	ltpFR	1	11	0	MOUNTAIN	924	n/a	1	n/a	n/a	n/a	n/a	n/a
1994.348	n/a	REC_WORD	997174	wordpools/wasnorm_wordpool.txt	LTP090	ltpFR	1	11	0	HERD	705	n/a	1	n/a	n/a	n/a	n/a	n/a
1996.732	n/a	REC_WORD	998366	wordpools/wasnorm_wordpool.txt	LTP090	ltpFR	1	11	1	BUG	187	n/a	1	n/a	n/a	n/a	n/a	n/a
1998.758	n/a	REC_WORD	999379	wordpools/wasnorm_wordpool.txt	LTP090	ltpFR	1	11	1	CRICKET	408	n/a	1	n/a	n/a	n/a	n/a	n/a
2000.914	n/a	REC_WORD	1000457	wordpools/wasnorm_wordpool.txt	LTP090	ltpFR	1	11	1	TORTOISE	1486	n/a	1	n/a	n/a	n/a	n/a	n/a
2005.258	n/a	REC_WORD	1002629	wordpools/wasnorm_wordpool.txt	LTP090	ltpFR	1	11	0	BINDER	127	n/a	0	n/a	n/a	n/a	n/a	n/a
2006.944	n/a	REC_WORD	1003472	wordpools/wasnorm_wordpool.txt	LTP090	ltpFR	1	11	1	ARTICLE	42	n/a	0	n/a	n/a	n/a	n/a	n/a
2008.796	n/a	REC_WORD	1004398	wordpools/wasnorm_wordpool.txt	LTP090	ltpFR	1	11	1	PUBLICATION	1136	n/a	0	n/a	n/a	n/a	n/a	n/a
2021.782	n/a	REC_WORD	1010891	wordpools/wasnorm_wordpool.txt	LTP090	ltpFR	1	11	0	SIDEWALK	1303	n/a	1	n/a	n/a	n/a	n/a	n/a
2023.468	n/a	REC_WORD	1011734	wordpools/wasnorm_wordpool.txt	LTP090	ltpFR	1	11	0	ALLEY	15	n/a	1	n/a	n/a	n/a	n/a	n/a
2073.53	n/a	WORD	1036765	wordpools/wasnorm_wordpool.txt	LTP090	ltpFR	1	12	1	SHERIFF	1284	n/a	1	1	0.412841796875	0.57763671875	lower	../fonts/zerothre.ttf
2077.646	n/a	WORD	1038823	wordpools/wasnorm_wordpool.txt	LTP090	ltpFR	1	12	1	DEPUTY	450	n/a	1	1	0.412841796875	0.57763671875	lower	../fonts/zerothre.ttf
2081.754	n/a	WORD	1040877	wordpools/wasnorm_wordpool.txt	LTP090	ltpFR	1	12	1	SWING	1421	n/a	0	1	0.412841796875	0.57763671875	lower	../fonts/zerothre.ttf
2085.686	n/a	WORD	1042843	wordpools/wasnorm_wordpool.txt	LTP090	ltpFR	1	12	1	PATIO	1025	n/a	0	1	0.412841796875	0.57763671875	lower	../fonts/zerothre.ttf
2089.786	n/a	WORD	1044893	wordpools/wasnorm_wordpool.txt	LTP090	ltpFR	1	12	1	ARCHITECT	36	n/a	1	1	0.412841796875	0.57763671875	lower	../fonts/zerothre.ttf
2093.886	n/a	WORD	1046943	wordpools/wasnorm_wordpool.txt	LTP090	ltpFR	1	12	0	HOOD	714	n/a	0	0	0.5869140625	0.422607421875	upper	../fonts/amplitud.ttf
2097.886	n/a	WORD	1048943	wordpools/wasnorm_wordpool.txt	LTP090	ltpFR	1	12	0	STEREO	1378	n/a	0	0	0.5869140625	0.422607421875	upper	../fonts/amplitud.ttf
2102.078	n/a	WORD	1051039	wordpools/wasnorm_wordpool.txt	LTP090	ltpFR	1	12	0	ORCHID	982	n/a	0	0	0.5869140625	0.422607421875	upper	../fonts/amplitud.ttf
2106.152	n/a	WORD	1053076	wordpools/wasnorm_wordpool.txt	LTP090	ltpFR	1	12	1	RASPBERRY	1168	n/a	0	1	0.412841796875	0.57763671875	lower	../fonts/zerothre.ttf
2110.284	n/a	WORD	1055142	wordpools/wasnorm_wordpool.txt	LTP090	ltpFR	1	12	1	RAISIN	1163	n/a	0	1	0.412841796875	0.57763671875	lower	../fonts/zerothre.ttf
2114.16	n/a	WORD	1057080	wordpools/wasnorm_wordpool.txt	LTP090	ltpFR	1	12	1	CORK	380	n/a	0	1	0.412841796875	0.57763671875	lower	../fonts/zerothre.ttf
2118.01	n/a	WORD	1059005	wordpools/wasnorm_wordpool.txt	LTP090	ltpFR	1	12	0	CHEDDAR	286	n/a	0	0	0.5869140625	0.422607421875	upper	../fonts/amplitud.ttf
2122.176	n/a	WORD	1061088	wordpools/wasnorm_wordpool.txt	LTP090	ltpFR	1	12	0	PISTON	1076	n/a	0	0	0.5869140625	0.422607421875	upper	../fonts/amplitud.ttf
2126.092	n/a	WORD	1063046	wordpools/wasnorm_wordpool.txt	LTP090	ltpFR	1	12	0	SWAN	1417	n/a	0	0	0.5869140625	0.422607421875	upper	../fonts/amplitud.ttf
2130.21	n/a	WORD	1065105	wordpools/wasnorm_wordpool.txt	LTP090	ltpFR	1	12	0	GARDEN	623	n/a	1	0	0.5869140625	0.422607421875	upper	../fonts/amplitud.ttf
2134.286	n/a	WORD	1067143	wordpools/wasnorm_wordpool.txt	LTP090	ltpFR	1	12	0	DRILL	497	n/a	0	0	0.5869140625	0.422607421875	upper	../fonts/amplitud.ttf
2140.368	n/a	REC_START	1070184	n/a	LTP090	ltpFR	1	12	n/a	n/a	n/a	n/a	n/a	n/a	n/a	n/a	n/a	n/a
2142.12	n/a	REC_WORD	1071060	wordpools/wasnorm_wordpool.txt	LTP090	ltpFR	1	12	0	DRILL	497	n/a	0	n/a	n/a	n/a	n/a	n/a
2143.896	n/a	REC_WORD	1071948	wordpools/wasnorm_wordpool.txt	LTP090	ltpFR	1	12	0	GARDEN	623	n/a	1	n/a	n/a	n/a	n/a	n/a
2145.91	n/a	REC_WORD	1072955	wordpools/wasnorm_wordpool.txt	LTP090	ltpFR	1	12	0	ORCHID	982	n/a	0	n/a	n/a	n/a	n/a	n/a
2147.322	n/a	REC_WORD	1073661	wordpools/wasnorm_wordpool.txt	LTP090	ltpFR	1	12	0	SWAN	1417	n/a	0	n/a	n/a	n/a	n/a	n/a
2150.032	n/a	REC_WORD	1075016	wordpools/wasnorm_wordpool.txt	LTP090	ltpFR	1	12	1	RASPBERRY	1168	n/a	0	n/a	n/a	n/a	n/a	n/a
2152.208	n/a	REC_WORD	1076104	wordpools/wasnorm_wordpool.txt	LTP090	ltpFR	1	12	1	RAISIN	1163	n/a	0	n/a	n/a	n/a	n/a	n/a
2159.182	n/a	REC_WORD	1079591	wordpools/wasnorm_wordpool.txt	LTP090	ltpFR	1	12	1	SHERIFF	1284	n/a	1	n/a	n/a	n/a	n/a	n/a
2161.118	n/a	REC_WORD	1080559	wordpools/wasnorm_wordpool.txt	LTP090	ltpFR	1	12	1	DEPUTY	450	n/a	1	n/a	n/a	n/a	n/a	n/a
2215.966	n/a	REST_REWET	1107983	n/a	LTP090	ltpFR	1	12	n/a	n/a	n/a	n/a	n/a	n/a	n/a	n/a	n/a	n/a
2633.674	n/a	WORD	1316837	wordpools/wasnorm_wordpool.txt	LTP090	ltpFR	1	13	1	ELM	527	n/a	1	1	0.412841796875	0.57763671875	lower	../fonts/zerothre.ttf
2637.506	n/a	WORD	1318753	wordpools/wasnorm_wordpool.txt	LTP090	ltpFR	1	13	1	LEAF	808	n/a	1	1	0.412841796875	0.57763671875	lower	../fonts/zerothre.ttf
2641.69	n/a	WORD	1320845	wordpools/wasnorm_wordpool.txt	LTP090	ltpFR	1	13	1	TOAST	1471	n/a	0	1	0.412841796875	0.57763671875	lower	../fonts/zerothre.ttf
2645.824	n/a	WORD	1322912	wordpools/wasnorm_wordpool.txt	LTP090	ltpFR	1	13	1	OVEN	991	n/a	0	1	0.412841796875	0.57763671875	lower	../fonts/zerothre.ttf
2649.906	n/a	WORD	1324953	wordpools/wasnorm_wordpool.txt	LTP090	ltpFR	1	13	0	AUTHOR	61	n/a	1	0	0.5869140625	0.422607421875	upper	../fonts/amplitud.ttf
2653.814	n/a	WORD	1326907	wordpools/wasnorm_wordpool.txt	LTP090	ltpFR	1	13	0	FOLDER	588	n/a	0	0	0.5869140625	0.422607421875	upper	../fonts/amplitud.ttf
2657.69	n/a	WORD	1328845	wordpools/wasnorm_wordpool.txt	LTP090	ltpFR	1	13	0	ATTIRE	57	n/a	1	0	0.5869140625	0.422607421875	upper	../fonts/amplitud.ttf
2661.532	n/a	WORD	1330766	wordpools/wasnorm_wordpool.txt	LTP090	ltpFR	1	13	0	CITIZEN	312	n/a	1	0	0.5869140625	0.422607421875	upper	../fonts/amplitud.ttf
2665.44	n/a	WORD	1332720	wordpools/wasnorm_wordpool.txt	LTP090	ltpFR	1	13	0	TAVERN	1437	n/a	1	0	0.5869140625	0.422607421875	upper	../fonts/amplitud.ttf
2669.514	n/a	WORD	1334757	wordpools/wasnorm_wordpool.txt	LTP090	ltpFR	1	13	0	MOUSE	925	n/a	0	0	0.5869140625	0.422607421875	upper	../fonts/amplitud.ttf
2673.472	n/a	WORD	1336736	wordpools/wasnorm_wordpool.txt	LTP090	ltpFR	1	13	1	UNIFORM	1539	n/a	0	1	0.412841796875	0.57763671875	lower	../fonts/zerothre.ttf
2677.446	n/a	WORD	1338723	wordpools/wasnorm_wordpool.txt	LTP090	ltpFR	1	13	1	COSTUME	383	n/a	0	1	0.412841796875	0.57763671875	lower	../fonts/zerothre.ttf
2681.38	n/a	WORD	1340690	wordpools/wasnorm_wordpool.txt	LTP090	ltpFR	1	13	0	AUDIENCE	59	n/a	1	0	0.5869140625	0.422607421875	upper	../fonts/amplitud.ttf
2685.196	n/a	WORD	1342598	wordpools/wasnorm_wordpool.txt	LTP090	ltpFR	1	13	0	MAGAZINE	853	n/a	0	0	0.5869140625	0.422607421875	upper	../fonts/amplitud.ttf
2689.022	n/a	WORD	1344511	wordpools/wasnorm_wordpool.txt	LTP090	ltpFR	1	13	1	FOUNTAIN	597	n/a	0	1	0.412841796875	0.57763671875	lower	../fonts/zerothre.ttf
2692.904	n/a	WORD	1346452	wordpools/wasnorm_wordpool.txt	LTP090	ltpFR	1	13	1	TYPEWRITER	1531	n/a	0	1	0.412841796875	0.57763671875	lower	../fonts/zerothre.ttf
2698.672	n/a	REC_START	1349336	n/a	LTP090	ltpFR	1	13	n/a	n/a	n/a	n/a	n/a	n/a	n/a	n/a	n/a	n/a
2700.568	n/a	REC_WORD	1350284	wordpools/wasnorm_wordpool.txt	LTP090	ltpFR	1	13	1	TYPEWRITER	1531	n/a	0	n/a	n/a	n/a	n/a	n/a
2702.06	n/a	REC_WORD	1351030	wordpools/wasnorm_wordpool.txt	LTP090	ltpFR	1	13	1	FOUNTAIN	597	n/a	0	n/a	n/a	n/a	n/a	n/a
2705.522	n/a	REC_WORD	1352761	wordpools/wasnorm_wordpool.txt	LTP090	ltpFR	1	13	0	AUDIENCE	59	n/a	1	n/a	n/a	n/a	n/a	n/a
2708.2	n/a	REC_WORD	1354100	wordpools/wasnorm_wordpool.txt	LTP090	ltpFR	1	13	0	TAVERN	1437	n/a	1	n/a	n/a	n/a	n/a	n/a
2709.652	n/a	REC_WORD	1354826	wordpools/wasnorm_wordpool.txt	LTP090	ltpFR	1	13	0	MOUSE	925	n/a	0	n/a	n/a	n/a	n/a	n/a
2711.708	n/a	REC_WORD	1355854	wordpools/wasnorm_wordpool.txt	LTP090	ltpFR	1	13	1	UNIFORM	1539	n/a	0	n/a	n/a	n/a	n/a	n/a
2713.444	n/a	REC_WORD	1356722	wordpools/wasnorm_wordpool.txt	LTP090	ltpFR	1	13	1	COSTUME	383	n/a	0	n/a	n/a	n/a	n/a	n/a
2715.14	n/a	REC_WORD	1357570	wordpools/wasnorm_wordpool.txt	LTP090	ltpFR	1	13	0	ATTIRE	57	n/a	1	n/a	n/a	n/a	n/a	n/a
2719.566	n/a	REC_WORD	1359783	wordpools/wasnorm_wordpool.txt	LTP090	ltpFR	1	13	1	ELM	527	n/a	1	n/a	n/a	n/a	n/a	n/a
2727.508	n/a	REC_WORD	1363754	wordpools/wasnorm_wordpool.txt	LTP090	ltpFR	1	13	1	LEAF	808	n/a	1	n/a	n/a	n/a	n/a	n/a
2782.47	n/a	WORD	1391235	wordpools/wasnorm_wordpool.txt	LTP090	ltpFR	1	14	-1	STEM	1376	n/a	-1	1	1.0	1.0	upper	../fonts/Verdana.ttf
2786.578	n/a	WORD	1393289	wordpools/wasnorm_wordpool.txt	LTP090	ltpFR	1	14	-1	CEREAL	272	n/a	-1	1	1.0	1.0	upper	../fonts/Verdana.ttf
2790.71	n/a	WORD	1395355	wordpools/wasnorm_wordpool.txt	LTP090	ltpFR	1	14	-1	BRAN	167	n/a	-1	1	1.0	1.0	upper	../fonts/Verdana.ttf
2794.61	n/a	WORD	1397305	wordpools/wasnorm_wordpool.txt	LTP090	ltpFR	1	14	-1	TOMATO	1476	n/a	-1	1	1.0	1.0	upper	../fonts/Verdana.ttf
2798.72	n/a	WORD	1399360	wordpools/wasnorm_wordpool.txt	LTP090	ltpFR	1	14	-1	PORCUPINE	1107	n/a	-1	1	1.0	1.0	upper	../fonts/Verdana.ttf
2802.802	n/a	WORD	1401401	wordpools/wasnorm_wordpool.txt	LTP090	ltpFR	1	14	-1	SEAL	1262	n/a	-1	1	1.0	1.0	upper	../fonts/Verdana.ttf
2806.644	n/a	WORD	1403322	wordpools/wasnorm_wordpool.txt	LTP090	ltpFR	1	14	-1	SLOPE	1328	n/a	-1	1	1.0	1.0	upper	../fonts/Verdana.ttf
2810.568	n/a	WORD	1405284	wordpools/wasnorm_wordpool.txt	LTP090	ltpFR	1	14	-1	WALLET	1583	n/a	-1	1	1.0	1.0	upper	../fonts/Verdana.ttf
2814.718	n/a	WORD	1407359	wordpools/wasnorm_wordpool.txt	LTP090	ltpFR	1	14	-1	CAVE	263	n/a	-1	1	1.0	1.0	upper	../fonts/Verdana.ttf
2818.56	n/a	WORD	1409280	wordpools/wasnorm_wordpool.txt	LTP090	ltpFR	1	14	-1	MAYONNAISE	880	n/a	-1	1	1.0	1.0	upper	../fonts/Verdana.ttf
2822.618	n/a	WORD	1411309	wordpools/wasnorm_wordpool.txt	LTP090	ltpFR	1	14	-1	HIKER	708	n/a	-1	1	1.0	1.0	upper	../fonts/Verdana.ttf
2826.726	n/a	WORD	1413363	wordpools/wasnorm_wordpool.txt	LTP090	ltpFR	1	14	-1	CUSTOMER	430	n/a	-1	1	1.0	1.0	upper	../fonts/Verdana.ttf
2830.576	n/a	WORD	1415288	wordpools/wasnorm_wordpool.txt	LTP090	ltpFR	1	14	-1	CAFE	216	n/a	-1	1	1.0	1.0	upper	../fonts/Verdana.ttf
2834.668	n/a	WORD	1417334	wordpools/wasnorm_wordpool.txt	LTP090	ltpFR	1	14	-1	SANDWICH	1232	n/a	-1	1	1.0	1.0	upper	../fonts/Verdana.ttf
2838.594	n/a	WORD	1419297	wordpools/wasnorm_wordpool.txt	LTP090	ltpFR	1	14	-1	CARTON	251	n/a	-1	1	1.0	1.0	upper	../fonts/Verdana.ttf
2842.594	n/a	WORD	1421297	wordpools/wasnorm_wordpool.txt	LTP090	ltpFR	1	14	-1	BURGLAR	200	n/a	-1	1	1.0	1.0	upper	../fonts/Verdana.ttf
2848.268	n/a	REC_START	1424134	n/a	LTP090	ltpFR	1	14	n/a	n/a	n/a	n/a	n/a	n/a	n/a	n/a	n/a	n/a
2850.198	n/a	REC_WORD	1425099	wordpools/wasnorm_wordpool.txt	LTP090	ltpFR	1	14	-1	BURGLAR	200	n/a	-1	n/a	n/a	n/a	n/a	n/a
2853.146	n/a	REC_WORD	1426573	wordpools/wasnorm_wordpool.txt	LTP090	ltpFR	1	14	-1	SANDWICH	1232	n/a	-1	n/a	n/a	n/a	n/a	n/a
2854.978	n/a	REC_WORD	1427489	wordpools/wasnorm_wordpool.txt	LTP090	ltpFR	1	14	-1	CAFE	216	n/a	-1	n/a	n/a	n/a	n/a	n/a
2857.164	n/a	REC_WORD	1428582	wordpools/wasnorm_wordpool.txt	LTP090	ltpFR	1	14	-1	CAVE	263	n/a	-1	n/a	n/a	n/a	n/a	n/a
2858.93	n/a	REC_WORD	1429465	wordpools/wasnorm_wordpool.txt	LTP090	ltpFR	1	14	-1	HIKER	708	n/a	-1	n/a	n/a	n/a	n/a	n/a
2860.514	n/a	REC_WORD	1430257	wordpools/wasnorm_wordpool.txt	LTP090	ltpFR	1	14	-1	SLOPE	1328	n/a	-1	n/a	n/a	n/a	n/a	n/a
2862.28	n/a	REC_WORD	1431140	wordpools/wasnorm_wordpool.txt	LTP090	ltpFR	1	14	-1	STEM	1376	n/a	-1	n/a	n/a	n/a	n/a	n/a
2864.336	n/a	REC_WORD	1432168	wordpools/wasnorm_wordpool.txt	LTP090	ltpFR	1	14	-1	PORCUPINE	1107	n/a	-1	n/a	n/a	n/a	n/a	n/a
2866.89	n/a	REC_WORD	1433445	wordpools/wasnorm_wordpool.txt	LTP090	ltpFR	1	14	-1	TOMATO	1476	n/a	-1	n/a	n/a	n/a	n/a	n/a
2868.456	n/a	REC_WORD	1434228	wordpools/wasnorm_wordpool.txt	LTP090	ltpFR	1	14	-1	CEREAL	272	n/a	-1	n/a	n/a	n/a	n/a	n/a
2870.228	n/a	REC_WORD	1435114	wordpools/wasnorm_wordpool.txt	LTP090	ltpFR	1	14	-1	BRAN	167	n/a	-1	n/a	n/a	n/a	n/a	n/a
2874.574	n/a	REC_WORD	1437287	wordpools/wasnorm_wordpool.txt	LTP090	ltpFR	1	14	-1	CARTON	251	n/a	-1	n/a	n/a	n/a	n/a	n/a
2879.08	n/a	REC_WORD	1439540	wordpools/wasnorm_wordpool.txt	LTP090	ltpFR	1	14	-1	MAYONNAISE	880	n/a	-1	n/a	n/a	n/a	n/a	n/a
2941.858	n/a	WORD	1470929	wordpools/wasnorm_wordpool.txt	LTP090	ltpFR	1	15	1	BLOUSE	139	n/a	0	1	0.412841796875	0.57763671875	lower	../fonts/zerothre.ttf
2945.94	n/a	WORD	1472970	wordpools/wasnorm_wordpool.txt	LTP090	ltpFR	1	15	1	CANARY	227	n/a	1	1	0.412841796875	0.57763671875	lower	../fonts/zerothre.ttf
2949.972	n/a	WORD	1474986	wordpools/wasnorm_wordpool.txt	LTP090	ltpFR	1	15	1	ROBIN	1199	n/a	1	1	0.412841796875	0.57763671875	lower	../fonts/zerothre.ttf
2954.022	n/a	WORD	1477011	wordpools/wasnorm_wordpool.txt	LTP090	ltpFR	1	15	1	SIBLING	1301	n/a	1	1	0.412841796875	0.57763671875	lower	../fonts/zerothre.ttf
2957.964	n/a	WORD	1478982	wordpools/wasnorm_wordpool.txt	LTP090	ltpFR	1	15	1	ROOMMATE	1207	n/a	1	1	0.412841796875	0.57763671875	lower	../fonts/zerothre.ttf
2961.882	n/a	WORD	1480941	wordpools/wasnorm_wordpool.txt	LTP090	ltpFR	1	15	1	CABINET	212	n/a	0	1	0.412841796875	0.57763671875	lower	../fonts/zerothre.ttf
2965.872	n/a	WORD	1482936	wordpools/wasnorm_wordpool.txt	LTP090	ltpFR	1	15	1	MAPLE	866	n/a	1	1	0.412841796875	0.57763671875	lower	../fonts/zerothre.ttf
2969.714	n/a	WORD	1484857	wordpools/wasnorm_wordpool.txt	LTP090	ltpFR	1	15	1	FOREST	593	n/a	1	1	0.412841796875	0.57763671875	lower	../fonts/zerothre.ttf
2973.614	n/a	WORD	1486807	wordpools/wasnorm_wordpool.txt	LTP090	ltpFR	1	15	1	RASH	1167	n/a	0	1	0.412841796875	0.57763671875	lower	../fonts/zerothre.ttf
2977.498	n/a	WORD	1488749	wordpools/wasnorm_wordpool.txt	LTP090	ltpFR	1	15	1	ROOM	1206	n/a	0	1	0.412841796875	0.57763671875	lower	../fonts/zerothre.ttf
2981.33	n/a	WORD	1490665	wordpools/wasnorm_wordpool.txt	LTP090	ltpFR	1	15	1	BANNER	85	n/a	0	1	0.412841796875	0.57763671875	lower	../fonts/zerothre.ttf
2985.414	n/a	WORD	1492707	wordpools/wasnorm_wordpool.txt	LTP090	ltpFR	1	15	1	PUPIL	1143	n/a	1	1	0.412841796875	0.57763671875	lower	../fonts/zerothre.ttf
2989.58	n/a	WORD	1494790	wordpools/wasnorm_wordpool.txt	LTP090	ltpFR	1	15	1	UNDERWEAR	1537	n/a	0	1	0.412841796875	0.57763671875	lower	../fonts/zerothre.ttf
2993.59	n/a	WORD	1496795	wordpools/wasnorm_wordpool.txt	LTP090	ltpFR	1	15	1	HEAD	695	n/a	1	1	0.412841796875	0.57763671875	lower	../fonts/zerothre.ttf
2997.482	n/a	WORD	1498741	wordpools/wasnorm_wordpool.txt	LTP090	ltpFR	1	15	1	STAFF	1365	n/a	1	1	0.412841796875	0.57763671875	lower	../fonts/zerothre.ttf
3001.372	n/a	WORD	1500686	wordpools/wasnorm_wordpool.txt	LTP090	ltpFR	1	15	1	SHORTS	1293	n/a	0	1	0.412841796875	0.57763671875	lower	../fonts/zerothre.ttf
3007.322	n/a	REC_START	1503661	n/a	LTP090	ltpFR	1	15	n/a	n/a	n/a	n/a	n/a	n/a	n/a	n/a	n/a	n/a
3008.708	n/a	REC_WORD	1504354	wordpools/wasnorm_wordpool.txt	LTP090	ltpFR	1	15	1	SHORTS	1293	n/a	0	n/a	n/a	n/a	n/a	n/a
3011.052	n/a	REC_WORD	1505526	wordpools/wasnorm_wordpool.txt	LTP090	ltpFR	1	15	1	UNDERWEAR	1537	n/a	0	n/a	n/a	n/a	n/a	n/a
3013.168	n/a	REC_WORD	1506584	wordpools/wasnorm_wordpool.txt	LTP090	ltpFR	1	15	1	HEAD	695	n/a	1	n/a	n/a	n/a	n/a	n/a
3015.368	n/a	REC_WORD	1507684	wordpools/wasnorm_wordpool.txt	LTP090	ltpFR	1	15	1	STAFF	1365	n/a	1	n/a	n/a	n/a	n/a	n/a
3017.32	n/a	REC_WORD	1508660	wordpools/wasnorm_wordpool.txt	LTP090	ltpFR	1	15	1	ROOM	1206	n/a	0	n/a	n/a	n/a	n/a	n/a
3018.692	n/a	REC_WORD	1509346	wordpools/wasnorm_wordpool.txt	LTP090	ltpFR	1	15	1	ROOMMATE	1207	n/a	1	n/a	n/a	n/a	n/a	n/a
3020.836	n/a	REC_WORD	1510418	wordpools/wasnorm_wordpool.txt	LTP090	ltpFR	1	15	1	CABINET	212	n/a	0	n/a	n/a	n/a	n/a	n/a
3022.512	n/a	REC_WORD	1511256	wordpools/wasnorm_wordpool.txt	LTP090	ltpFR	1	15	1	ROBIN	1199	n/a	1	n/a	n/a	n/a	n/a	n/a
3024.948	n/a	REC_WORD	1512474	wordpools/wasnorm_wordpool.txt	LTP090	ltpFR	1	15	1	CANARY	227	n/a	1	n/a	n/a	n/a	n/a	n/a
3026.704	n/a	REC_WORD	1513352	wordpools/wasnorm_wordpool.txt	LTP090	ltpFR	1	15	1	MAPLE	866	n/a	1	n/a	n/a	n/a	n/a	n/a
3028.714	n/a	REC_WORD	1514357	wordpools/wasnorm_wordpool.txt	LTP090	ltpFR	1	15	1	FOREST	593	n/a	1	n/a	n/a	n/a	n/a	n/a
3094.302	n/a	WORD	1547151	wordpools/wasnorm_wordpool.txt	LTP090	ltpFR	1	16	-1	TIDE	1465	n/a	-1	1	1.0	1.0	upper	../fonts/Verdana.ttf
3098.152	n/a	WORD	1549076	wordpools/wasnorm_wordpool.txt	LTP090	ltpFR	1	16	-1	WATER	1594	n/a	-1	1	1.0	1.0	upper	../fonts/Verdana.ttf
3102.328	n/a	WORD	1551164	wordpools/wasnorm_wordpool.txt	LTP090	ltpFR	1	16	-1	BARLEY	88	n/a	-1	1	1.0	1.0	upper	../fonts/Verdana.ttf
3106.226	n/a	WORD	1553113	wordpools/wasnorm_wordpool.txt	LTP090	ltpFR	1	16	-1	HOUND	724	n/a	-1	1	1.0	1.0	upper	../fonts/Verdana.ttf
3110.176	n/a	WORD	1555088	wordpools/wasnorm_wordpool.txt	LTP090	ltpFR	1	16	-1	CRACKER	398	n/a	-1	1	1.0	1.0	upper	../fonts/Verdana.ttf
3114.344	n/a	WORD	1557172	wordpools/wasnorm_wordpool.txt	LTP090	ltpFR	1	16	-1	STALLION	1369	n/a	-1	1	1.0	1.0	upper	../fonts/Verdana.ttf
3118.218	n/a	WORD	1559109	wordpools/wasnorm_wordpool.txt	LTP090	ltpFR	1	16	-1	CARROT	249	n/a	-1	1	1.0	1.0	upper	../fonts/Verdana.ttf
3122.326	n/a	WORD	1561163	wordpools/wasnorm_wordpool.txt	LTP090	ltpFR	1	16	-1	BRANCH	168	n/a	-1	1	1.0	1.0	upper	../fonts/Verdana.ttf
3126.302	n/a	WORD	1563151	wordpools/wasnorm_wordpool.txt	LTP090	ltpFR	1	16	-1	LANDSCAPE	799	n/a	-1	1	1.0	1.0	upper	../fonts/Verdana.ttf
3130.494	n/a	WORD	1565247	wordpools/wasnorm_wordpool.txt	LTP090	ltpFR	1	16	-1	COLONEL	348	n/a	-1	1	1.0	1.0	upper	../fonts/Verdana.ttf
3134.352	n/a	WORD	1567176	wordpools/wasnorm_wordpool.txt	LTP090	ltpFR	1	16	-1	CHEESE	289	n/a	-1	1	1.0	1.0	upper	../fonts/Verdana.ttf
3138.226	n/a	WORD	1569113	wordpools/wasnorm_wordpool.txt	LTP090	ltpFR	1	16	-1	BUNNY	198	n/a	-1	1	1.0	1.0	upper	../fonts/Verdana.ttf
3142.26	n/a	WORD	1571130	wordpools/wasnorm_wordpool.txt	LTP090	ltpFR	1	16	-1	TROUSERS	1510	n/a	-1	1	1.0	1.0	upper	../fonts/Verdana.ttf
3146.192	n/a	WORD	1573096	wordpools/wasnorm_wordpool.txt	LTP090	ltpFR	1	16	-1	BUTTON	207	n/a	-1	1	1.0	1.0	upper	../fonts/Verdana.ttf
3150.326	n/a	WORD	1575163	wordpools/wasnorm_wordpool.txt	LTP090	ltpFR	1	16	-1	LODGE	839	n/a	-1	1	1.0	1.0	upper	../fonts/Verdana.ttf
3154.368	n/a	WORD	1577184	wordpools/wasnorm_wordpool.txt	LTP090	ltpFR	1	16	-1	PASSAGE	1019	n/a	-1	1	1.0	1.0	upper	../fonts/Verdana.ttf
3160.31	n/a	REC_START	1580155	n/a	LTP090	ltpFR	1	16	n/a	n/a	n/a	n/a	n/a	n/a	n/a	n/a	n/a	n/a
3162.17	n/a	REC_WORD	1581085	wordpools/wasnorm_wordpool.txt	LTP090	ltpFR	1	16	-1	LODGE	839	n/a	-1	n/a	n/a	n/a	n/a	n/a
3163.482	n/a	REC_WORD	1581741	wordpools/wasnorm_wordpool.txt	LTP090	ltpFR	1	16	-1	PASSAGE	1019	n/a	-1	n/a	n/a	n/a	n/a	n/a
3165.742	n/a	REC_WORD	1582871	wordpools/wasnorm_wordpool.txt	LTP090	ltpFR	1	16	-1	TIDE	1465	n/a	-1	n/a	n/a	n/a	n/a	n/a
3167.078	n/a	REC_WORD	1583539	wordpools/wasnorm_wordpool.txt	LTP090	ltpFR	1	16	-1	WATER	1594	n/a	-1	n/a	n/a	n/a	n/a	n/a
3168.83	n/a	REC_WORD	1584415	wordpools/wasnorm_wordpool.txt	LTP090	ltpFR	1	16	-1	BARLEY	88	n/a	-1	n/a	n/a	n/a	n/a	n/a
3171.874	n/a	REC_WORD	1585937	wordpools/wasnorm_wordpool.txt	LTP090	ltpFR	1	16	-1	HOUND	724	n/a	-1	n/a	n/a	n/a	n/a	n/a
3173.77	n/a	REC_WORD	1586885	wordpools/wasnorm_wordpool.txt	LTP090	ltpFR	1	16	-1	STALLION	1369	n/a	-1	n/a	n/a	n/a	n/a	n/a
3176.888	n/a	REC_WORD	1588444	wordpools/wasnorm_wordpool.txt	LTP090	ltpFR	1	16	-1	BUNNY	198	n/a	-1	n/a	n/a	n/a	n/a	n/a
3179.048	n/a	REC_WORD	1589524	wordpools/wasnorm_wordpool.txt	LTP090	ltpFR	1	16	-1	CRACKER	398	n/a	-1	n/a	n/a	n/a	n/a	n/a
3180.714	n/a	REC_WORD	1590357	wordpools/wasnorm_wordpool.txt	LTP090	ltpFR	1	16	-1	CHEESE	289	n/a	-1	n/a	n/a	n/a	n/a	n/a
3182.894	n/a	REC_WORD	1591447	wordpools/wasnorm_wordpool.txt	LTP090	ltpFR	1	16	-1	CARROT	249	n/a	-1	n/a	n/a	n/a	n/a	n/a
3185.04	n/a	REC_WORD	1592520	wordpools/wasnorm_wordpool.txt	LTP090	ltpFR	1	16	-1	COLONEL	348	n/a	-1	n/a	n/a	n/a	n/a	n/a
3186.59	n/a	REC_WORD	1593295	wordpools/wasnorm_wordpool.txt	LTP090	ltpFR	1	16	-1	TROUSERS	1510	n/a	-1	n/a	n/a	n/a	n/a	n/a
3189.26	n/a	REC_WORD	1594630	wordpools/wasnorm_wordpool.txt	LTP090	ltpFR	1	16	-1	LODGE	839	n/a	-1	n/a	n/a	n/a	n/a	n/a
3191.54	n/a	REC_WORD	1595770	wordpools/wasnorm_wordpool.txt	LTP090	ltpFR	1	16	-1	PASSAGE	1019	n/a	-1	n/a	n/a	n/a	n/a	n/a
3195.79	n/a	REC_WORD	1597895	wordpools/wasnorm_wordpool.txt	LTP090	ltpFR	1	16	-1	LANDSCAPE	799	n/a	-1	n/a	n/a	n/a	n/a	n/a
3199.806	n/a	REC_WORD	1599903	wordpools/wasnorm_wordpool.txt	LTP090	ltpFR	1	16	-1	BRANCH	168	n/a	-1	n/a	n/a	n/a	n/a	n/a
3285.074	n/a	REC_START	1642537	n/a	LTP090	ltpFR	1	1	n/a	n/a	n/a	n/a	n/a	n/a	n/a	n/a	n/a	n/a
3285.106	n/a	RECOG_TARGET	1642553	n/a	LTP090	ltpFR	1	1	-1	RADISH	1158	5	-1	n/a	n/a	n/a	n/a	n/a
3287.868	n/a	RECOG_RESP	1643934	n/a	LTP090	ltpFR	1	1	-1	RADISH	1158	n/a	-1	n/a	n/a	n/a	n/a	n/a
3291.484	n/a	RECOG_CONF	1645742	n/a	LTP090	ltpFR	1	1	-1	RADISH	1158	5	-1	n/a	n/a	n/a	n/a	n/a
3293.322	n/a	RECOG_LURE	1646661	n/a	LTP090	ltpFR	1	1	n/a	GRADUATE	653	4	n/a	n/a	n/a	n/a	n/a	n/a
3295.406	n/a	RECOG_RESP	1647703	n/a	LTP090	ltpFR	1	1	n/a	GRADUATE	653	n/a	n/a	n/a	n/a	n/a	n/a	n/a
3298.36	n/a	RECOG_CONF	1649180	n/a	LTP090	ltpFR	1	1	n/a	GRADUATE	653	4	n/a	n/a	n/a	n/a	n/a	n/a
3300.106	n/a	RECOG_TARGET	1650053	n/a	LTP090	ltpFR	1	1	-1	SEASHORE	1263	5	-1	n/a	n/a	n/a	n/a	n/a
3301.378	n/a	RECOG_RESP	1650689	n/a	LTP090	ltpFR	1	1	-1	SEASHORE	1263	n/a	-1	n/a	n/a	n/a	n/a	n/a
3303.588	n/a	RECOG_CONF	1651794	n/a	LTP090	ltpFR	1	1	-1	SEASHORE	1263	5	-1	n/a	n/a	n/a	n/a	n/a
3305.472	n/a	RECOG_TARGET	1652736	n/a	LTP090	ltpFR	1	1	0	KNAPSACK	783	5	0	n/a	n/a	n/a	n/a	n/a
3307.09	n/a	RECOG_RESP	1653545	n/a	LTP090	ltpFR	1	1	0	KNAPSACK	783	n/a	0	n/a	n/a	n/a	n/a	n/a
3309.306	n/a	RECOG_CONF	1654653	n/a	LTP090	ltpFR	1	1	0	KNAPSACK	783	5	0	n/a	n/a	n/a	n/a	n/a
3311.406	n/a	RECOG_TARGET	1655703	n/a	LTP090	ltpFR	1	1	-1	SURF	1412	4	-1	n/a	n/a	n/a	n/a	n/a
3313.136	n/a	RECOG_RESP	1656568	n/a	LTP090	ltpFR	1	1	-1	SURF	1412	n/a	-1	n/a	n/a	n/a	n/a	n/a
3315.132	n/a	RECOG_CONF	1657566	n/a	LTP090	ltpFR	1	1	-1	SURF	1412	4	-1	n/a	n/a	n/a	n/a	n/a
3317.056	n/a	RECOG_TARGET	1658528	n/a	LTP090	ltpFR	1	1	1	DISC	473	5	0	n/a	n/a	n/a	n/a	n/a
3317.94	n/a	RECOG_RESP	1658970	n/a	LTP090	ltpFR	1	1	1	DISC	473	n/a	0	n/a	n/a	n/a	n/a	n/a
3320.09	n/a	RECOG_CONF	1660045	n/a	LTP090	ltpFR	1	1	1	DISC	473	5	0	n/a	n/a	n/a	n/a	n/a
3321.832	n/a	RECOG_TARGET	1660916	n/a	LTP090	ltpFR	1	1	-1	WORM	1623	5	-1	n/a	n/a	n/a	n/a	n/a
3322.73	n/a	RECOG_RESP	1661365	n/a	LTP090	ltpFR	1	1	-1	WORM	1623	n/a	-1	n/a	n/a	n/a	n/a	n/a
3325.468	n/a	RECOG_CONF	1662734	n/a	LTP090	ltpFR	1	1	-1	WORM	1623	5	-1	n/a	n/a	n/a	n/a	n/a
3327.306	n/a	RECOG_LURE	1663653	n/a	LTP090	ltpFR	1	1	n/a	ABDOMEN	1	4	n/a	n/a	n/a	n/a	n/a	n/a
3328.832	n/a	RECOG_RESP	1664416	n/a	LTP090	ltpFR	1	1	n/a	ABDOMEN	1	n/a	n/a	n/a	n/a	n/a	n/a	n/a
3331.556	n/a	RECOG_CONF	1665778	n/a	LTP090	ltpFR	1	1	n/a	ABDOMEN	1	4	n/a	n/a	n/a	n/a	n/a	n/a
3333.306	n/a	RECOG_TARGET	1666653	n/a	LTP090	ltpFR	1	1	1	MAPLE	866	5	1	n/a	n/a	n/a	n/a	n/a
3334.334	n/a	RECOG_RESP	1667167	n/a	LTP090	ltpFR	1	1	1	MAPLE	866	n/a	1	n/a	n/a	n/a	n/a	n/a
3337.372	n/a	RECOG_CONF	1668686	n/a	LTP090	ltpFR	1	1	1	MAPLE	866	5	1	n/a	n/a	n/a	n/a	n/a
3339.122	n/a	RECOG_LURE	1669561	n/a	LTP090	ltpFR	1	1	n/a	CLAM	315	3	n/a	n/a	n/a	n/a	n/a	n/a
3340.416	n/a	RECOG_RESP	1670208	n/a	LTP090	ltpFR	1	1	n/a	CLAM	315	n/a	n/a	n/a	n/a	n/a	n/a	n/a
3342.88	n/a	RECOG_CONF	1671440	n/a	LTP090	ltpFR	1	1	n/a	CLAM	315	3	n/a	n/a	n/a	n/a	n/a	n/a
3344.672	n/a	RECOG_TARGET	1672336	n/a	LTP090	ltpFR	1	1	1	PUBLICATION	1136	5	0	n/a	n/a	n/a	n/a	n/a
3346.218	n/a	RECOG_RESP	1673109	n/a	LTP090	ltpFR	1	1	1	PUBLICATION	1136	n/a	0	n/a	n/a	n/a	n/a	n/a
3348.588	n/a	RECOG_CONF	1674294	n/a	LTP090	ltpFR	1	1	1	PUBLICATION	1136	5	0	n/a	n/a	n/a	n/a	n/a
3350.422	n/a	RECOG_TARGET	1675211	n/a	LTP090	ltpFR	1	1	-1	HIKER	708	5	-1	n/a	n/a	n/a	n/a	n/a
3351.532	n/a	RECOG_RESP	1675766	n/a	LTP090	ltpFR	1	1	-1	HIKER	708	n/a	-1	n/a	n/a	n/a	n/a	n/a
3354.524	n/a	RECOG_CONF	1677262	n/a	LTP090	ltpFR	1	1	-1	HIKER	708	5	-1	n/a	n/a	n/a	n/a	n/a
3356.396	n/a	RECOG_TARGET	1678198	n/a	LTP090	ltpFR	1	1	0	DRILL	497	3	0	n/a	n/a	n/a	n/a	n/a
3358.72	n/a	RECOG_RESP	1679360	n/a	LTP090	ltpFR	1	1	0	DRILL	497	n/a	0	n/a	n/a	n/a	n/a	n/a
3361.09	n/a	RECOG_CONF	1680545	n/a	LTP090	ltpFR	1	1	0	DRILL	497	3	0	n/a	n/a	n/a	n/a	n/a
3362.754	n/a	RECOG_TARGET	1681377	n/a	LTP090	ltpFR	1	1	0	SIDING	1304	5	0	n/a	n/a	n/a	n/a	n/a
3363.764	n/a	RECOG_RESP	1681882	n/a	LTP090	ltpFR	1	1	0	SIDING	1304	n/a	0	n/a	n/a	n/a	n/a	n/a
3366.15	n/a	RECOG_CONF	1683075	n/a	LTP090	ltpFR	1	1	0	SIDING	1304	5	0	n/a	n/a	n/a	n/a	n/a
3367.806	n/a	RECOG_TARGET	1683903	n/a	LTP090	ltpFR	1	1	0	BANQUET	86	5	1	n/a	n/a	n/a	n/a	n/a
3368.902	n/a	RECOG_RESP	1684451	n/a	LTP090	ltpFR	1	1	0	BANQUET	86	n/a	1	n/a	n/a	n/a	n/a	n/a
3370.938	n/a	RECOG_CONF	1685469	n/a	LTP090	ltpFR	1	1	0	BANQUET	86	5	1	n/a	n/a	n/a	n/a	n/a
3372.856	n/a	RECOG_TARGET	1686428	n/a	LTP090	ltpFR	1	1	1	UNIFORM	1539	4	0	n/a	n/a	n/a	n/a	n/a
3374.206	n/a	RECOG_RESP	1687103	n/a	LTP090	ltpFR	1	1	1	UNIFORM	1539	n/a	0	n/a	n/a	n/a	n/a	n/a
3376.206	n/a	RECOG_CONF	1688103	n/a	LTP090	ltpFR	1	1	1	UNIFORM	1539	4	0	n/a	n/a	n/a	n/a	n/a
3378.138	n/a	RECOG_TARGET	1689069	n/a	LTP090	ltpFR	1	1	0	MANSION	864	5	1	n/a	n/a	n/a	n/a	n/a
3379.334	n/a	RECOG_RESP	1689667	n/a	LTP090	ltpFR	1	1	0	MANSION	864	n/a	1	n/a	n/a	n/a	n/a	n/a
3381.362	n/a	RECOG_CONF	1690681	n/a	LTP090	ltpFR	1	1	0	MANSION	864	5	1	n/a	n/a	n/a	n/a	n/a
3382.936	n/a	RECOG_TARGET	1691468	n/a	LTP090	ltpFR	1	1	0	SNORKEL	1336	5	0	n/a	n/a	n/a	n/a	n/a
3383.924	n/a	RECOG_RESP	1691962	n/a	LTP090	ltpFR	1	1	0	SNORKEL	1336	n/a	0	n/a	n/a	n/a	n/a	n/a
3385.936	n/a	RECOG_CONF	1692968	n/a	LTP090	ltpFR	1	1	0	SNORKEL	1336	5	0	n/a	n/a	n/a	n/a	n/a
3387.696	n/a	RECOG_TARGET	1693848	n/a	LTP090	ltpFR	1	1	1	UMPIRE	1535	3	1	n/a	n/a	n/a	n/a	n/a
3390.454	n/a	RECOG_RESP	1695227	n/a	LTP090	ltpFR	1	1	1	UMPIRE	1535	n/a	1	n/a	n/a	n/a	n/a	n/a
3393.398	n/a	RECOG_CONF	1696699	n/a	LTP090	ltpFR	1	1	1	UMPIRE	1535	3	1	n/a	n/a	n/a	n/a	n/a
3394.904	n/a	RECOG_LURE	1697452	n/a	LTP090	ltpFR	1	1	n/a	SAW	1239	3	n/a	n/a	n/a	n/a	n/a	n/a
3395.982	n/a	RECOG_RESP	1697991	n/a	LTP090	ltpFR	1	1	n/a	SAW	1239	n/a	n/a	n/a	n/a	n/a	n/a	n/a
3398.926	n/a	RECOG_CONF	1699463	n/a	LTP090	ltpFR	1	1	n/a	SAW	1239	3	n/a	n/a	n/a	n/a	n/a	n/a
3415.698	n/a	REC_START	1707849	n/a	LTP090	ltpFR	1	2	n/a	n/a	n/a	n/a	n/a	n/a	n/a	n/a	n/a	n/a
3415.728	n/a	RECOG_TARGET	1707864	n/a	LTP090	ltpFR	1	2	0	SOCK	1339	2	0	n/a	n/a	n/a	n/a	n/a
3417.124	n/a	RECOG_RESP	1708562	n/a	LTP090	ltpFR	1	2	0	SOCK	1339	n/a	0	n/a	n/a	n/a	n/a	n/a
3419.354	n/a	RECOG_CONF	1709677	n/a	LTP090	ltpFR	1	2	0	SOCK	1339	2	0	n/a	n/a	n/a	n/a	n/a
3421.128	n/a	RECOG_TARGET	1710564	n/a	LTP090	ltpFR	1	2	1	JUGGLER	763	5	1	n/a	n/a	n/a	n/a	n/a
3422.506	n/a	RECOG_RESP	1711253	n/a	LTP090	ltpFR	1	2	1	JUGGLER	763	n/a	1	n/a	n/a	n/a	n/a	n/a
3425.502	n/a	RECOG_CONF	1712751	n/a	LTP090	ltpFR	1	2	1	JUGGLER	763	5	1	n/a	n/a	n/a	n/a	n/a
3427.254	n/a	RECOG_TARGET	1713627	n/a	LTP090	ltpFR	1	2	0	NUCLEUS	961	5	0	n/a	n/a	n/a	n/a	n/a
3428.136	n/a	RECOG_RESP	1714068	n/a	LTP090	ltpFR	1	2	0	NUCLEUS	961	n/a	0	n/a	n/a	n/a	n/a	n/a
3430.28	n/a	RECOG_CONF	1715140	n/a	LTP090	ltpFR	1	2	0	NUCLEUS	961	5	0	n/a	n/a	n/a	n/a	n/a
3431.828	n/a	RECOG_TARGET	1715914	n/a	LTP090	ltpFR	1	2	-1	WATER	1594	5	-1	n/a	n/a	n/a	n/a	n/a
3432.7	n/a	RECOG_RESP	1716350	n/a	LTP090	ltpFR	1	2	-1	WATER	1594	n/a	-1	n/a	n/a	n/a	n/a	n/a
3434.79	n/a	RECOG_CONF	1717395	n/a	LTP090	ltpFR	1	2	-1	WATER	1594	5	-1	n/a	n/a	n/a	n/a	n/a
3436.452	n/a	RECOG_LURE	1718226	n/a	LTP090	ltpFR	1	2	n/a	SERPENT	1270	4	n/a	n/a	n/a	n/a	n/a	n/a
3437.784	n/a	RECOG_RESP	1718892	n/a	LTP090	ltpFR	1	2	n/a	SERPENT	1270	n/a	n/a	n/a	n/a	n/a	n/a	n/a
3439.628	n/a	RECOG_CONF	1719814	n/a	LTP090	ltpFR	1	2	n/a	SERPENT	1270	4	n/a	n/a	n/a	n/a	n/a	n/a
3441.102	n/a	RECOG_TARGET	1720551	n/a	LTP090	ltpFR	1	2	0	CREATURE	403	5	1	n/a	n/a	n/a	n/a	n/a
3442.074	n/a	RECOG_RESP	1721037	n/a	LTP090	ltpFR	1	2	0	CREATURE	403	n/a	1	n/a	n/a	n/a	n/a	n/a
3444.488	n/a	RECOG_CONF	1722244	n/a	LTP090	ltpFR	1	2	0	CREATURE	403	5	1	n/a	n/a	n/a	n/a	n/a
3446.094	n/a	RECOG_TARGET	1723047	n/a	LTP090	ltpFR	1	2	1	RASH	1167	5	0	n/a	n/a	n/a	n/a	n/a
3447.008	n/a	RECOG_RESP	1723504	n/a	LTP090	ltpFR	1	2	1	RASH	1167	n/a	0	n/a	n/a	n/a	n/a	n/a
3449.178	n/a	RECOG_CONF	1724589	n/a	LTP090	ltpFR	1	2	1	RASH	1167	5	0	n/a	n/a	n/a	n/a	n/a
3450.762	n/a	RECOG_LURE	1725381	n/a	LTP090	ltpFR	1	2	n/a	HOSE	720	3	n/a	n/a	n/a	n/a	n/a	n/a
3452.112	n/a	RECOG_RESP	1726056	n/a	LTP090	ltpFR	1	2	n/a	HOSE	720	n/a	n/a	n/a	n/a	n/a	n/a	n/a
3454.156	n/a	RECOG_CONF	1727078	n/a	LTP090	ltpFR	1	2	n/a	HOSE	720	3	n/a	n/a	n/a	n/a	n/a	n/a
3455.828	n/a	RECOG_TARGET	1727914	n/a	LTP090	ltpFR	1	2	1	MARGARINE	868	4	0	n/a	n/a	n/a	n/a	n/a
3457.056	n/a	RECOG_RESP	1728528	n/a	LTP090	ltpFR	1	2	1	MARGARINE	868	n/a	0	n/a	n/a	n/a	n/a	n/a
3458.696	n/a	RECOG_CONF	1729348	n/a	LTP090	ltpFR	1	2	1	MARGARINE	868	4	0	n/a	n/a	n/a	n/a	n/a
3460.46	n/a	RECOG_TARGET	1730230	n/a	LTP090	ltpFR	1	2	0	PLATE	1086	4	0	n/a	n/a	n/a	n/a	n/a
3461.61	n/a	RECOG_RESP	1730805	n/a	LTP090	ltpFR	1	2	0	PLATE	1086	n/a	0	n/a	n/a	n/a	n/a	n/a
3464.514	n/a	RECOG_CONF	1732257	n/a	LTP090	ltpFR	1	2	0	PLATE	1086	4	0	n/a	n/a	n/a	n/a	n/a
3466.152	n/a	RECOG_TARGET	1733076	n/a	LTP090	ltpFR	1	2	1	BOYFRIEND	162	3	1	n/a	n/a	n/a	n/a	n/a
3468.37	n/a	RECOG_RESP	1734185	n/a	LTP090	ltpFR	1	2	1	BOYFRIEND	162	n/a	1	n/a	n/a	n/a	n/a	n/a
3470.222	n/a	RECOG_CONF	1735111	n/a	LTP090	ltpFR	1	2	1	BOYFRIEND	162	3	1	n/a	n/a	n/a	n/a	n/a
3471.952	n/a	RECOG_TARGET	1735976	n/a	LTP090	ltpFR	1	2	0	WORKER	1621	5	1	n/a	n/a	n/a	n/a	n/a
3473.37	n/a	RECOG_RESP	1736685	n/a	LTP090	ltpFR	1	2	0	WORKER	1621	n/a	1	n/a	n/a	n/a	n/a	n/a
3476.118	n/a	RECOG_CONF	1738059	n/a	LTP090	ltpFR	1	2	0	WORKER	1621	5	1	n/a	n/a	n/a	n/a	n/a
3477.96	n/a	RECOG_LURE	1738980	n/a	LTP090	ltpFR	1	2	n/a	THICKET	1455	3	n/a	n/a	n/a	n/a	n/a	n/a
3479.27	n/a	RECOG_RESP	1739635	n/a	LTP090	ltpFR	1	2	n/a	THICKET	1455	n/a	n/a	n/a	n/a	n/a	n/a	n/a
3482.224	n/a	RECOG_CONF	1741112	n/a	LTP090	ltpFR	1	2	n/a	THICKET	1455	3	n/a	n/a	n/a	n/a	n/a	n/a
3483.752	n/a	RECOG_TARGET	1741876	n/a	LTP090	ltpFR	1	2	0	GAZELLE	628	3	1	n/a	n/a	n/a	n/a	n/a
3485.538	n/a	RECOG_RESP	1742769	n/a	LTP090	ltpFR	1	2	0	GAZELLE	628	n/a	1	n/a	n/a	n/a	n/a	n/a
3487.822	n/a	RECOG_CONF	1743911	n/a	LTP090	ltpFR	1	2	0	GAZELLE	628	3	1	n/a	n/a	n/a	n/a	n/a
3489.426	n/a	RECOG_TARGET	1744713	n/a	LTP090	ltpFR	1	2	1	LEOPARD	812	5	1	n/a	n/a	n/a	n/a	n/a
3490.392	n/a	RECOG_RESP	1745196	n/a	LTP090	ltpFR	1	2	1	LEOPARD	812	n/a	1	n/a	n/a	n/a	n/a	n/a
3492.252	n/a	RECOG_CONF	1746126	n/a	LTP090	ltpFR	1	2	1	LEOPARD	812	5	1	n/a	n/a	n/a	n/a	n/a
3494.342	n/a	RECOG_TARGET	1747171	n/a	LTP090	ltpFR	1	2	0	BINDER	127	2	0	n/a	n/a	n/a	n/a	n/a
3498.388	n/a	RECOG_RESP	1749194	n/a	LTP090	ltpFR	1	2	0	BINDER	127	n/a	0	n/a	n/a	n/a	n/a	n/a
3500.912	n/a	RECOG_CONF	1750456	n/a	LTP090	ltpFR	1	2	0	BINDER	127	2	0	n/a	n/a	n/a	n/a	n/a
3502.576	n/a	RECOG_TARGET	1751288	n/a	LTP090	ltpFR	1	2	0	FOLDER	588	3	0	n/a	n/a	n/a	n/a	n/a
3503.966	n/a	RECOG_RESP	1751983	n/a	LTP090	ltpFR	1	2	0	FOLDER	588	n/a	0	n/a	n/a	n/a	n/a	n/a
3506.122	n/a	RECOG_CONF	1753061	n/a	LTP090	ltpFR	1	2	0	FOLDER	588	3	0	n/a	n/a	n/a	n/a	n/a
3507.676	n/a	RECOG_TARGET	1753838	n/a	LTP090	ltpFR	1	2	1	PHOTO	1055	5	0	n/a	n/a	n/a	n/a	n/a
3509.13	n/a	RECOG_RESP	1754565	n/a	LTP090	ltpFR	1	2	1	PHOTO	1055	n/a	0	n/a	n/a	n/a	n/a	n/a
3511.31	n/a	RECOG_CONF	1755655	n/a	LTP090	ltpFR	1	2	1	PHOTO	1055	5	0	n/a	n/a	n/a	n/a	n/a
3513.018	n/a	RECOG_LURE	1756509	n/a	LTP090	ltpFR	1	2	n/a	TIMBER	1469	4	n/a	n/a	n/a	n/a	n/a	n/a
3514.054	n/a	RECOG_RESP	1757027	n/a	LTP090	ltpFR	1	2	n/a	TIMBER	1469	n/a	n/a	n/a	n/a	n/a	n/a	n/a
3516.368	n/a	RECOG_CONF	1758184	n/a	LTP090	ltpFR	1	2	n/a	TIMBER	1469	4	n/a	n/a	n/a	n/a	n/a	n/a
3517.934	n/a	RECOG_TARGET	1758967	n/a	LTP090	ltpFR	1	2	1	ORANGE	980	5	1	n/a	n/a	n/a	n/a	n/a
3518.942	n/a	RECOG_RESP	1759471	n/a	LTP090	ltpFR	1	2	1	ORANGE	980	n/a	1	n/a	n/a	n/a	n/a	n/a
3520.938	n/a	RECOG_CONF	1760469	n/a	LTP090	ltpFR	1	2	1	ORANGE	980	5	1	n/a	n/a	n/a	n/a	n/a
3531.814	n/a	REC_START	1765907	n/a	LTP090	ltpFR	1	3	n/a	n/a	n/a	n/a	n/a	n/a	n/a	n/a	n/a	n/a
3531.852	n/a	RECOG_TARGET	1765926	n/a	LTP090	ltpFR	1	3	0	BISON	131	2	1	n/a	n/a	n/a	n/a	n/a
3534.104	n/a	RECOG_RESP	1767052	n/a	LTP090	ltpFR	1	3	0	BISON	131	n/a	1	n/a	n/a	n/a	n/a	n/a
3536.388	n/a	RECOG_CONF	1768194	n/a	LTP090	ltpFR	1	3	0	BISON	131	2	1	n/a	n/a	n/a	n/a	n/a
3538.2	n/a	RECOG_TARGET	1769100	n/a	LTP090	ltpFR	1	3	-1	CRACKER	398	5	-1	n/a	n/a	n/a	n/a	n/a
3539.066	n/a	RECOG_RESP	1769533	n/a	LTP090	ltpFR	1	3	-1	CRACKER	398	n/a	-1	n/a	n/a	n/a	n/a	n/a
3541.048	n/a	RECOG_CONF	1770524	n/a	LTP090	ltpFR	1	3	-1	CRACKER	398	5	-1	n/a	n/a	n/a	n/a	n/a
3542.768	n/a	RECOG_TARGET	1771384	n/a	LTP090	ltpFR	1	3	1	PAIL	1002	3	0	n/a	n/a	n/a	n/a	n/a
3543.852	n/a	RECOG_RESP	1771926	n/a	LTP090	ltpFR	1	3	1	PAIL	1002	n/a	0	n/a	n/a	n/a	n/a	n/a
3547.024	n/a	RECOG_CONF	1773512	n/a	LTP090	ltpFR	1	3	1	PAIL	1002	3	0	n/a	n/a	n/a	n/a	n/a
3548.642	n/a	RECOG_TARGET	1774321	n/a	LTP090	ltpFR	1	3	-1	CAFE	216	5	-1	n/a	n/a	n/a	n/a	n/a
3549.598	n/a	RECOG_RESP	1774799	n/a	LTP090	ltpFR	1	3	-1	CAFE	216	n/a	-1	n/a	n/a	n/a	n/a	n/a
3552.282	n/a	RECOG_CONF	1776141	n/a	LTP090	ltpFR	1	3	-1	CAFE	216	5	-1	n/a	n/a	n/a	n/a	n/a
3553.932	n/a	RECOG_LURE	1776966	n/a	LTP090	ltpFR	1	3	n/a	GRATE	657	4	n/a	n/a	n/a	n/a	n/a	n/a
3554.798	n/a	RECOG_RESP	1777399	n/a	LTP090	ltpFR	1	3	n/a	GRATE	657	n/a	n/a	n/a	n/a	n/a	n/a	n/a
3556.832	n/a	RECOG_CONF	1778416	n/a	LTP090	ltpFR	1	3	n/a	GRATE	657	4	n/a	n/a	n/a	n/a	n/a	n/a
3558.424	n/a	RECOG_TARGET	1779212	n/a	LTP090	ltpFR	1	3	-1	TROUSERS	1510	5	-1	n/a	n/a	n/a	n/a	n/a
3559.282	n/a	RECOG_RESP	1779641	n/a	LTP090	ltpFR	1	3	-1	TROUSERS	1510	n/a	-1	n/a	n/a	n/a	n/a	n/a
3561.162	n/a	RECOG_CONF	1780581	n/a	LTP090	ltpFR	1	3	-1	TROUSERS	1510	5	-1	n/a	n/a	n/a	n/a	n/a
3563.074	n/a	RECOG_TARGET	1781537	n/a	LTP090	ltpFR	1	3	-1	TWEEZERS	1526	5	-1	n/a	n/a	n/a	n/a	n/a
3563.938	n/a	RECOG_RESP	1781969	n/a	LTP090	ltpFR	1	3	-1	TWEEZERS	1526	n/a	-1	n/a	n/a	n/a	n/a	n/a
3565.972	n/a	RECOG_CONF	1782986	n/a	LTP090	ltpFR	1	3	-1	TWEEZERS	1526	5	-1	n/a	n/a	n/a	n/a	n/a
3567.692	n/a	RECOG_TARGET	1783846	n/a	LTP090	ltpFR	1	3	0	ROBE	1198	5	1	n/a	n/a	n/a	n/a	n/a
3568.448	n/a	RECOG_RESP	1784224	n/a	LTP090	ltpFR	1	3	0	ROBE	1198	n/a	1	n/a	n/a	n/a	n/a	n/a
3570.402	n/a	RECOG_CONF	1785201	n/a	LTP090	ltpFR	1	3	0	ROBE	1198	5	1	n/a	n/a	n/a	n/a	n/a
3571.884	n/a	RECOG_TARGET	1785942	n/a	LTP090	ltpFR	1	3	1	PUPIL	1143	3	1	n/a	n/a	n/a	n/a	n/a
3574.438	n/a	RECOG_RESP	1787219	n/a	LTP090	ltpFR	1	3	1	PUPIL	1143	n/a	1	n/a	n/a	n/a	n/a	n/a
3576.498	n/a	RECOG_CONF	1788249	n/a	LTP090	ltpFR	1	3	1	PUPIL	1143	3	1	n/a	n/a	n/a	n/a	n/a
3577.974	n/a	RECOG_TARGET	1788987	n/a	LTP090	ltpFR	1	3	0	GULL	671	3	0	n/a	n/a	n/a	n/a	n/a
3579.512	n/a	RECOG_RESP	1789756	n/a	LTP090	ltpFR	1	3	0	GULL	671	n/a	0	n/a	n/a	n/a	n/a	n/a
3581.598	n/a	RECOG_CONF	1790799	n/a	LTP090	ltpFR	1	3	0	GULL	671	3	0	n/a	n/a	n/a	n/a	n/a
3582.95	n/a	RECOG_LURE	1791475	n/a	LTP090	ltpFR	1	3	n/a	MOVIE	927	3	n/a	n/a	n/a	n/a	n/a	n/a
3583.968	n/a	RECOG_RESP	1791984	n/a	LTP090	ltpFR	1	3	n/a	MOVIE	927	n/a	n/a	n/a	n/a	n/a	n/a	n/a
3586.158	n/a	RECOG_CONF	1793079	n/a	LTP090	ltpFR	1	3	n/a	MOVIE	927	3	n/a	n/a	n/a	n/a	n/a	n/a
3587.866	n/a	RECOG_LURE	1793933	n/a	LTP090	ltpFR	1	3	n/a	STRAWBERRY	1391	4	n/a	n/a	n/a	n/a	n/a	n/a
3590.254	n/a	RECOG_RESP	1795127	n/a	LTP090	ltpFR	1	3	n/a	STRAWBERRY	1391	n/a	n/a	n/a	n/a	n/a	n/a	n/a
3592.264	n/a	RECOG_CONF	1796132	n/a	LTP090	ltpFR	1	3	n/a	STRAWBERRY	1391	4	n/a	n/a	n/a	n/a	n/a	n/a
3593.782	n/a	RECOG_TARGET	1796891	n/a	LTP090	ltpFR	1	3	1	CAT	257	5	1	n/a	n/a	n/a	n/a	n/a
3594.774	n/a	RECOG_RESP	1797387	n/a	LTP090	ltpFR	1	3	1	CAT	257	n/a	1	n/a	n/a	n/a	n/a	n/a
3596.694	n/a	RECOG_CONF	1798347	n/a	LTP090	ltpFR	1	3	1	CAT	257	5	1	n/a	n/a	n/a	n/a	n/a
3598.298	n/a	RECOG_TARGET	1799149	n/a	LTP090	ltpFR	1	3	1	HANDCUFFS	685	2	0	n/a	n/a	n/a	n/a	n/a
3603.086	n/a	RECOG_RESP	1801543	n/a	LTP090	ltpFR	1	3	1	HANDCUFFS	685	n/a	0	n/a	n/a	n/a	n/a	n/a
3604.866	n/a	RECOG_CONF	1802433	n/a	LTP090	ltpFR	1	3	1	HANDCUFFS	685	2	0	n/a	n/a	n/a	n/a	n/a
3606.448	n/a	RECOG_TARGET	1803224	n/a	LTP090	ltpFR	1	3	-1	SKYSCRAPER	1322	5	-1	n/a	n/a	n/a	n/a	n/a
3607.44	n/a	RECOG_RESP	1803720	n/a	LTP090	ltpFR	1	3	-1	SKYSCRAPER	1322	n/a	-1	n/a	n/a	n/a	n/a	n/a
3609.944	n/a	RECOG_CONF	1804972	n/a	LTP090	ltpFR	1	3	-1	SKYSCRAPER	1322	5	-1	n/a	n/a	n/a	n/a	n/a
3611.324	n/a	RECOG_TARGET	1805662	n/a	LTP090	ltpFR	1	3	0	TRICYCLE	1506	5	1	n/a	n/a	n/a	n/a	n/a
3612.244	n/a	RECOG_RESP	1806122	n/a	LTP090	ltpFR	1	3	0	TRICYCLE	1506	n/a	1	n/a	n/a	n/a	n/a	n/a
3613.846	n/a	RECOG_CONF	1806923	n/a	LTP090	ltpFR	1	3	0	TRICYCLE	1506	5	1	n/a	n/a	n/a	n/a	n/a
3615.716	n/a	RECOG_LURE	1807858	n/a	LTP090	ltpFR	1	3	n/a	MOON	914	4	n/a	n/a	n/a	n/a	n/a	n/a
3616.674	n/a	RECOG_RESP	1808337	n/a	LTP090	ltpFR	1	3	n/a	MOON	914	n/a	n/a	n/a	n/a	n/a	n/a	n/a
3618.526	n/a	RECOG_CONF	1809263	n/a	LTP090	ltpFR	1	3	n/a	MOON	914	4	n/a	n/a	n/a	n/a	n/a	n/a
3619.98	n/a	RECOG_LURE	1809990	n/a	LTP090	ltpFR	1	3	n/a	PLUTO	1092	4	n/a	n/a	n/a	n/a	n/a	n/a
3621.22	n/a	RECOG_RESP	1810610	n/a	LTP090	ltpFR	1	3	n/a	PLUTO	1092	n/a	n/a	n/a	n/a	n/a	n/a	n/a
3623.306	n/a	RECOG_CONF	1811653	n/a	LTP090	ltpFR	1	3	n/a	PLUTO	1092	4	n/a	n/a	n/a	n/a	n/a	n/a
3625.132	n/a	RECOG_TARGET	1812566	n/a	LTP090	ltpFR	1	3	1	CLAW	319	2	0	n/a	n/a	n/a	n/a	n/a
3627.206	n/a	RECOG_RESP	1813603	n/a	LTP090	ltpFR	1	3	1	CLAW	319	n/a	0	n/a	n/a	n/a	n/a	n/a
3629.002	n/a	RECOG_CONF	1814501	n/a	LTP090	ltpFR	1	3	1	CLAW	319	2	0	n/a	n/a	n/a	n/a	n/a
3630.666	n/a	RECOG_TARGET	1815333	n/a	LTP090	ltpFR	1	3	0	WAGON	1578	5	1	n/a	n/a	n/a	n/a	n/a
3631.836	n/a	RECOG_RESP	1815918	n/a	LTP090	ltpFR	1	3	0	WAGON	1578	n/a	1	n/a	n/a	n/a	n/a	n/a
3633.432	n/a	RECOG_CONF	1816716	n/a	LTP090	ltpFR	1	3	0	WAGON	1578	5	1	n/a	n/a	n/a	n/a	n/a
3662.282	n/a	REC_START	1831141	n/a	LTP090	ltpFR	1	4	n/a	n/a	n/a	n/a	n/a	n/a	n/a	n/a	n/a	n/a
3662.322	n/a	RECOG_TARGET	1831161	n/a	LTP090	ltpFR	1	4	1	APARTMENT	30	5	0	n/a	n/a	n/a	n/a	n/a
3663.808	n/a	RECOG_RESP	1831904	n/a	LTP090	ltpFR	1	4	1	APARTMENT	30	n/a	0	n/a	n/a	n/a	n/a	n/a
3665.47	n/a	RECOG_CONF	1832735	n/a	LTP090	ltpFR	1	4	1	APARTMENT	30	5	0	n/a	n/a	n/a	n/a	n/a
3667.014	n/a	RECOG_TARGET	1833507	n/a	LTP090	ltpFR	1	4	0	MAGAZINE	853	1	0	n/a	n/a	n/a	n/a	n/a
3667.974	n/a	RECOG_RESP	1833987	n/a	LTP090	ltpFR	1	4	0	MAGAZINE	853	n/a	0	n/a	n/a	n/a	n/a	n/a
3669.75	n/a	RECOG_CONF	1834875	n/a	LTP090	ltpFR	1	4	0	MAGAZINE	853	1	0	n/a	n/a	n/a	n/a	n/a
3671.438	n/a	RECOG_TARGET	1835719	n/a	LTP090	ltpFR	1	4	0	FURNITURE	616	4	1	n/a	n/a	n/a	n/a	n/a
3672.574	n/a	RECOG_RESP	1836287	n/a	LTP090	ltpFR	1	4	0	FURNITURE	616	n/a	1	n/a	n/a	n/a	n/a	n/a
3675.338	n/a	RECOG_CONF	1837669	n/a	LTP090	ltpFR	1	4	0	FURNITURE	616	4	1	n/a	n/a	n/a	n/a	n/a
3676.912	n/a	RECOG_TARGET	1838456	n/a	LTP090	ltpFR	1	4	-1	SLOPE	1328	5	-1	n/a	n/a	n/a	n/a	n/a
3677.772	n/a	RECOG_RESP	1838886	n/a	LTP090	ltpFR	1	4	-1	SLOPE	1328	n/a	-1	n/a	n/a	n/a	n/a	n/a
3679.36	n/a	RECOG_CONF	1839680	n/a	LTP090	ltpFR	1	4	-1	SLOPE	1328	5	-1	n/a	n/a	n/a	n/a	n/a
3680.84	n/a	RECOG_TARGET	1840420	n/a	LTP090	ltpFR	1	4	0	ATTIRE	57	5	1	n/a	n/a	n/a	n/a	n/a
3681.764	n/a	RECOG_RESP	1840882	n/a	LTP090	ltpFR	1	4	0	ATTIRE	57	n/a	1	n/a	n/a	n/a	n/a	n/a
3684.108	n/a	RECOG_CONF	1842054	n/a	LTP090	ltpFR	1	4	0	ATTIRE	57	5	1	n/a	n/a	n/a	n/a	n/a
3685.74	n/a	RECOG_TARGET	1842870	n/a	LTP090	ltpFR	1	4	0	CRATER	400	2	1	n/a	n/a	n/a	n/a	n/a
3689.456	n/a	RECOG_RESP	1844728	n/a	LTP090	ltpFR	1	4	0	CRATER	400	n/a	1	n/a	n/a	n/a	n/a	n/a
3691.462	n/a	RECOG_CONF	1845731	n/a	LTP090	ltpFR	1	4	0	CRATER	400	2	1	n/a	n/a	n/a	n/a	n/a
3693.07	n/a	RECOG_TARGET	1846535	n/a	LTP090	ltpFR	1	4	-1	OAR	966	5	-1	n/a	n/a	n/a	n/a	n/a
3693.982	n/a	RECOG_RESP	1846991	n/a	LTP090	ltpFR	1	4	-1	OAR	966	n/a	-1	n/a	n/a	n/a	n/a	n/a
3695.722	n/a	RECOG_CONF	1847861	n/a	LTP090	ltpFR	1	4	-1	OAR	966	5	-1	n/a	n/a	n/a	n/a	n/a
3697.246	n/a	RECOG_LURE	1848623	n/a	LTP090	ltpFR	1	4	n/a	EMPIRE	530	3	n/a	n/a	n/a	n/a	n/a	n/a
3699.404	n/a	RECOG_RESP	1849702	n/a	LTP090	ltpFR	1	4	n/a	EMPIRE	530	n/a	n/a	n/a	n/a	n/a	n/a	n/a
3701.082	n/a	RECOG_CONF	1850541	n/a	LTP090	ltpFR	1	4	n/a	EMPIRE	530	3	n/a	n/a	n/a	n/a	n/a	n/a
3702.672	n/a	RECOG_LURE	1851336	n/a	LTP090	ltpFR	1	4	n/a	CUSTARD	429	4	n/a	n/a	n/a	n/a	n/a	n/a
3703.81	n/a	RECOG_RESP	1851905	n/a	LTP090	ltpFR	1	4	n/a	CUSTARD	429	n/a	n/a	n/a	n/a	n/a	n/a	n/a
3706.07	n/a	RECOG_CONF	1853035	n/a	LTP090	ltpFR	1	4	n/a	CUSTARD	429	4	n/a	n/a	n/a	n/a	n/a	n/a
3707.606	n/a	RECOG_TARGET	1853803	n/a	LTP090	ltpFR	1	4	-1	BUNNY	198	5	-1	n/a	n/a	n/a	n/a	n/a
3708.434	n/a	RECOG_RESP	1854217	n/a	LTP090	ltpFR	1	4	-1	BUNNY	198	n/a	-1	n/a	n/a	n/a	n/a	n/a
3710.06	n/a	RECOG_CONF	1855030	n/a	LTP090	ltpFR	1	4	-1	BUNNY	198	5	-1	n/a	n/a	n/a	n/a	n/a
3711.804	n/a	RECOG_LURE	1855902	n/a	LTP090	ltpFR	1	4	n/a	EYE	545	4	n/a	n/a	n/a	n/a	n/a	n/a
3713.0	n/a	RECOG_RESP	1856500	n/a	LTP090	ltpFR	1	4	n/a	EYE	545	n/a	n/a	n/a	n/a	n/a	n/a	n/a
3714.74	n/a	RECOG_CONF	1857370	n/a	LTP090	ltpFR	1	4	n/a	EYE	545	4	n/a	n/a	n/a	n/a	n/a	n/a
3716.02	n/a	RECOG_TARGET	1858010	n/a	LTP090	ltpFR	1	4	1	TORTOISE	1486	5	1	n/a	n/a	n/a	n/a	n/a
3716.984	n/a	RECOG_RESP	1858492	n/a	LTP090	ltpFR	1	4	1	TORTOISE	1486	n/a	1	n/a	n/a	n/a	n/a	n/a
3718.512	n/a	RECOG_CONF	1859256	n/a	LTP090	ltpFR	1	4	1	TORTOISE	1486	5	1	n/a	n/a	n/a	n/a	n/a
3720.204	n/a	RECOG_TARGET	1860102	n/a	LTP090	ltpFR	1	4	0	PRISONER	1128	5	1	n/a	n/a	n/a	n/a	n/a
3722.584	n/a	RECOG_RESP	1861292	n/a	LTP090	ltpFR	1	4	0	PRISONER	1128	n/a	1	n/a	n/a	n/a	n/a	n/a
3724.17	n/a	RECOG_CONF	1862085	n/a	LTP090	ltpFR	1	4	0	PRISONER	1128	5	1	n/a	n/a	n/a	n/a	n/a
3725.938	n/a	RECOG_TARGET	1862969	n/a	LTP090	ltpFR	1	4	1	ARCHITECT	36	5	1	n/a	n/a	n/a	n/a	n/a
3726.744	n/a	RECOG_RESP	1863372	n/a	LTP090	ltpFR	1	4	1	ARCHITECT	36	n/a	1	n/a	n/a	n/a	n/a	n/a
3728.65	n/a	RECOG_CONF	1864325	n/a	LTP090	ltpFR	1	4	1	ARCHITECT	36	5	1	n/a	n/a	n/a	n/a	n/a
3730.146	n/a	RECOG_TARGET	1865073	n/a	LTP090	ltpFR	1	4	1	SIBLING	1301	5	1	n/a	n/a	n/a	n/a	n/a
3731.014	n/a	RECOG_RESP	1865507	n/a	LTP090	ltpFR	1	4	1	SIBLING	1301	n/a	1	n/a	n/a	n/a	n/a	n/a
3732.88	n/a	RECOG_CONF	1866440	n/a	LTP090	ltpFR	1	4	1	SIBLING	1301	5	1	n/a	n/a	n/a	n/a	n/a
3734.488	n/a	RECOG_TARGET	1867244	n/a	LTP090	ltpFR	1	4	-1	NOMAD	955	4	-1	n/a	n/a	n/a	n/a	n/a
3735.708	n/a	RECOG_RESP	1867854	n/a	LTP090	ltpFR	1	4	-1	NOMAD	955	n/a	-1	n/a	n/a	n/a	n/a	n/a
3738.608	n/a	RECOG_CONF	1869304	n/a	LTP090	ltpFR	1	4	-1	NOMAD	955	4	-1	n/a	n/a	n/a	n/a	n/a
3740.22	n/a	RECOG_TARGET	1870110	n/a	LTP090	ltpFR	1	4	1	CABINET	212	5	0	n/a	n/a	n/a	n/a	n/a
3741.102	n/a	RECOG_RESP	1870551	n/a	LTP090	ltpFR	1	4	1	CABINET	212	n/a	0	n/a	n/a	n/a	n/a	n/a
3743.188	n/a	RECOG_CONF	1871594	n/a	LTP090	ltpFR	1	4	1	CABINET	212	5	0	n/a	n/a	n/a	n/a	n/a
3744.804	n/a	RECOG_LURE	1872402	n/a	LTP090	ltpFR	1	4	n/a	TUXEDO	1525	4	n/a	n/a	n/a	n/a	n/a	n/a
3746.03	n/a	RECOG_RESP	1873015	n/a	LTP090	ltpFR	1	4	n/a	TUXEDO	1525	n/a	n/a	n/a	n/a	n/a	n/a	n/a
3748.086	n/a	RECOG_CONF	1874043	n/a	LTP090	ltpFR	1	4	n/a	TUXEDO	1525	4	n/a	n/a	n/a	n/a	n/a	n/a
3749.704	n/a	RECOG_TARGET	1874852	n/a	LTP090	ltpFR	1	4	1	GOO	648	5	0	n/a	n/a	n/a	n/a	n/a
3750.606	n/a	RECOG_RESP	1875303	n/a	LTP090	ltpFR	1	4	1	GOO	648	n/a	0	n/a	n/a	n/a	n/a	n/a
3752.696	n/a	RECOG_CONF	1876348	n/a	LTP090	ltpFR	1	4	1	GOO	648	5	0	n/a	n/a	n/a	n/a	n/a
3754.178	n/a	RECOG_TARGET	1877089	n/a	LTP090	ltpFR	1	4	-1	CELLO	268	4	-1	n/a	n/a	n/a	n/a	n/a
3756.348	n/a	RECOG_RESP	1878174	n/a	LTP090	ltpFR	1	4	-1	CELLO	268	n/a	-1	n/a	n/a	n/a	n/a	n/a
3758.674	n/a	RECOG_CONF	1879337	n/a	LTP090	ltpFR	1	4	-1	CELLO	268	4	-1	n/a	n/a	n/a	n/a	n/a
3768.95	n/a	REC_START	1884475	n/a	LTP090	ltpFR	1	5	n/a	n/a	n/a	n/a	n/a	n/a	n/a	n/a	n/a	n/a
3768.986	n/a	RECOG_TARGET	1884493	n/a	LTP090	ltpFR	1	5	-1	BARLEY	88	5	-1	n/a	n/a	n/a	n/a	n/a
3769.838	n/a	RECOG_RESP	1884919	n/a	LTP090	ltpFR	1	5	-1	BARLEY	88	n/a	-1	n/a	n/a	n/a	n/a	n/a
3771.17	n/a	RECOG_CONF	1885585	n/a	LTP090	ltpFR	1	5	-1	BARLEY	88	5	-1	n/a	n/a	n/a	n/a	n/a
3772.72	n/a	RECOG_TARGET	1886360	n/a	LTP090	ltpFR	1	5	0	STAMP	1370	5	0	n/a	n/a	n/a	n/a	n/a
3773.964	n/a	RECOG_RESP	1886982	n/a	LTP090	ltpFR	1	5	0	STAMP	1370	n/a	0	n/a	n/a	n/a	n/a	n/a
3775.93	n/a	RECOG_CONF	1887965	n/a	LTP090	ltpFR	1	5	0	STAMP	1370	5	0	n/a	n/a	n/a	n/a	n/a
3777.512	n/a	RECOG_TARGET	1888756	n/a	LTP090	ltpFR	1	5	1	LEAF	808	5	1	n/a	n/a	n/a	n/a	n/a
3778.326	n/a	RECOG_RESP	1889163	n/a	LTP090	ltpFR	1	5	1	LEAF	808	n/a	1	n/a	n/a	n/a	n/a	n/a
3780.19	n/a	RECOG_CONF	1890095	n/a	LTP090	ltpFR	1	5	1	LEAF	808	5	1	n/a	n/a	n/a	n/a	n/a
3782.002	n/a	RECOG_TARGET	1891001	n/a	LTP090	ltpFR	1	5	0	HEADBAND	696	5	0	n/a	n/a	n/a	n/a	n/a
3782.85	n/a	RECOG_RESP	1891425	n/a	LTP090	ltpFR	1	5	0	HEADBAND	696	n/a	0	n/a	n/a	n/a	n/a	n/a
3784.85	n/a	RECOG_CONF	1892425	n/a	LTP090	ltpFR	1	5	0	HEADBAND	696	5	0	n/a	n/a	n/a	n/a	n/a
3786.452	n/a	RECOG_TARGET	1893226	n/a	LTP090	ltpFR	1	5	1	DOUGH	489	3	0	n/a	n/a	n/a	n/a	n/a
3787.778	n/a	RECOG_RESP	1893889	n/a	LTP090	ltpFR	1	5	1	DOUGH	489	n/a	0	n/a	n/a	n/a	n/a	n/a
3789.45	n/a	RECOG_CONF	1894725	n/a	LTP090	ltpFR	1	5	1	DOUGH	489	3	0	n/a	n/a	n/a	n/a	n/a
3791.244	n/a	RECOG_TARGET	1895622	n/a	LTP090	ltpFR	1	5	1	FOUNTAIN	597	5	0	n/a	n/a	n/a	n/a	n/a
3792.048	n/a	RECOG_RESP	1896024	n/a	LTP090	ltpFR	1	5	1	FOUNTAIN	597	n/a	0	n/a	n/a	n/a	n/a	n/a
3794.228	n/a	RECOG_CONF	1897114	n/a	LTP090	ltpFR	1	5	1	FOUNTAIN	597	5	0	n/a	n/a	n/a	n/a	n/a
3795.886	n/a	RECOG_TARGET	1897943	n/a	LTP090	ltpFR	1	5	0	PICNIC	1060	5	1	n/a	n/a	n/a	n/a	n/a
3796.688	n/a	RECOG_RESP	1898344	n/a	LTP090	ltpFR	1	5	0	PICNIC	1060	n/a	1	n/a	n/a	n/a	n/a	n/a
3798.4	n/a	RECOG_CONF	1899200	n/a	LTP090	ltpFR	1	5	0	PICNIC	1060	5	1	n/a	n/a	n/a	n/a	n/a
3800.01	n/a	RECOG_TARGET	1900005	n/a	LTP090	ltpFR	1	5	1	SCARF	1246	5	0	n/a	n/a	n/a	n/a	n/a
3800.74	n/a	RECOG_RESP	1900370	n/a	LTP090	ltpFR	1	5	1	SCARF	1246	n/a	0	n/a	n/a	n/a	n/a	n/a
3802.73	n/a	RECOG_CONF	1901365	n/a	LTP090	ltpFR	1	5	1	SCARF	1246	5	0	n/a	n/a	n/a	n/a	n/a
3804.426	n/a	RECOG_TARGET	1902213	n/a	LTP090	ltpFR	1	5	0	KID	775	5	0	n/a	n/a	n/a	n/a	n/a
3805.26	n/a	RECOG_RESP	1902630	n/a	LTP090	ltpFR	1	5	0	KID	775	n/a	0	n/a	n/a	n/a	n/a	n/a
3807.29	n/a	RECOG_CONF	1903645	n/a	LTP090	ltpFR	1	5	0	KID	775	5	0	n/a	n/a	n/a	n/a	n/a
3809.126	n/a	RECOG_TARGET	1904563	n/a	LTP090	ltpFR	1	5	-1	TOMATO	1476	5	-1	n/a	n/a	n/a	n/a	n/a
3809.924	n/a	RECOG_RESP	1904962	n/a	LTP090	ltpFR	1	5	-1	TOMATO	1476	n/a	-1	n/a	n/a	n/a	n/a	n/a
3811.98	n/a	RECOG_CONF	1905990	n/a	LTP090	ltpFR	1	5	-1	TOMATO	1476	5	-1	n/a	n/a	n/a	n/a	n/a
3813.544	n/a	RECOG_TARGET	1906772	n/a	LTP090	ltpFR	1	5	1	COSTUME	383	4	0	n/a	n/a	n/a	n/a	n/a
3815.232	n/a	RECOG_RESP	1907616	n/a	LTP090	ltpFR	1	5	1	COSTUME	383	n/a	0	n/a	n/a	n/a	n/a	n/a
3817.088	n/a	RECOG_CONF	1908544	n/a	LTP090	ltpFR	1	5	1	COSTUME	383	4	0	n/a	n/a	n/a	n/a	n/a
3818.752	n/a	RECOG_LURE	1909376	n/a	LTP090	ltpFR	1	5	n/a	TOWER	1490	3	n/a	n/a	n/a	n/a	n/a	n/a
3819.712	n/a	RECOG_RESP	1909856	n/a	LTP090	ltpFR	1	5	n/a	TOWER	1490	n/a	n/a	n/a	n/a	n/a	n/a	n/a
3821.758	n/a	RECOG_CONF	1910879	n/a	LTP090	ltpFR	1	5	n/a	TOWER	1490	3	n/a	n/a	n/a	n/a	n/a	n/a
3823.468	n/a	RECOG_TARGET	1911734	n/a	LTP090	ltpFR	1	5	-1	WALLET	1583	3	-1	n/a	n/a	n/a	n/a	n/a
3824.442	n/a	RECOG_RESP	1912221	n/a	LTP090	ltpFR	1	5	-1	WALLET	1583	n/a	-1	n/a	n/a	n/a	n/a	n/a
3826.668	n/a	RECOG_CONF	1913334	n/a	LTP090	ltpFR	1	5	-1	WALLET	1583	3	-1	n/a	n/a	n/a	n/a	n/a
3828.318	n/a	RECOG_TARGET	1914159	n/a	LTP090	ltpFR	1	5	0	TOWEL	1489	n/a	0	n/a	n/a	n/a	n/a	n/a
3829.736	n/a	RECOG_RESP_VV	1914868	n/a	LTP090	ltpFR	1	5	0	TOWEL	1489	n/a	0	n/a	n/a	n/a	n/a	n/a
3832.184	n/a	RECOG_RESP	1916092	n/a	LTP090	ltpFR	1	5	0	TOWEL	1489	n/a	0	n/a	n/a	n/a	n/a	n/a
3833.802	n/a	RECOG_TARGET	1916901	n/a	LTP090	ltpFR	1	5	-1	POLICE	1098	5	-1	n/a	n/a	n/a	n/a	n/a
3834.684	n/a	RECOG_RESP	1917342	n/a	LTP090	ltpFR	1	5	-1	POLICE	1098	n/a	-1	n/a	n/a	n/a	n/a	n/a
3836.52	n/a	RECOG_CONF	1918260	n/a	LTP090	ltpFR	1	5	-1	POLICE	1098	5	-1	n/a	n/a	n/a	n/a	n/a
3838.002	n/a	RECOG_TARGET	1919001	n/a	LTP090	ltpFR	1	5	1	SHERIFF	1284	5	1	n/a	n/a	n/a	n/a	n/a
3839.05	n/a	RECOG_RESP	1919525	n/a	LTP090	ltpFR	1	5	1	SHERIFF	1284	n/a	1	n/a	n/a	n/a	n/a	n/a
3841.056	n/a	RECOG_CONF	1920528	n/a	LTP090	ltpFR	1	5	1	SHERIFF	1284	5	1	n/a	n/a	n/a	n/a	n/a
3842.718	n/a	RECOG_TARGET	1921359	n/a	LTP090	ltpFR	1	5	-1	VEHICLE	1553	2	-1	n/a	n/a	n/a	n/a	n/a
3845.904	n/a	RECOG_RESP	1922952	n/a	LTP090	ltpFR	1	5	-1	VEHICLE	1553	n/a	-1	n/a	n/a	n/a	n/a	n/a
3847.6	n/a	RECOG_CONF	1923800	n/a	LTP090	ltpFR	1	5	-1	VEHICLE	1553	2	-1	n/a	n/a	n/a	n/a	n/a
3849.226	n/a	RECOG_TARGET	1924613	n/a	LTP090	ltpFR	1	5	1	BODY	145	5	1	n/a	n/a	n/a	n/a	n/a
3850.1	n/a	RECOG_RESP	1925050	n/a	LTP090	ltpFR	1	5	1	BODY	145	n/a	1	n/a	n/a	n/a	n/a	n/a
3852.59	n/a	RECOG_CONF	1926295	n/a	LTP090	ltpFR	1	5	1	BODY	145	5	1	n/a	n/a	n/a	n/a	n/a
3854.234	n/a	RECOG_TARGET	1927117	n/a	LTP090	ltpFR	1	5	1	ROOM	1206	5	0	n/a	n/a	n/a	n/a	n/a
3855.094	n/a	RECOG_RESP	1927547	n/a	LTP090	ltpFR	1	5	1	ROOM	1206	n/a	0	n/a	n/a	n/a	n/a	n/a
3856.78	n/a	RECOG_CONF	1928390	n/a	LTP090	ltpFR	1	5	1	ROOM	1206	5	0	n/a	n/a	n/a	n/a	n/a
3858.258	n/a	RECOG_LURE	1929129	n/a	LTP090	ltpFR	1	5	n/a	BLENDER	136	3	n/a	n/a	n/a	n/a	n/a	n/a
3859.998	n/a	RECOG_RESP	1929999	n/a	LTP090	ltpFR	1	5	n/a	BLENDER	136	n/a	n/a	n/a	n/a	n/a	n/a	n/a
3861.72	n/a	RECOG_CONF	1930860	n/a	LTP090	ltpFR	1	5	n/a	BLENDER	136	3	n/a	n/a	n/a	n/a	n/a	n/a
3866.896	n/a	REC_START	1933448	n/a	LTP090	ltpFR	1	6	n/a	n/a	n/a	n/a	n/a	n/a	n/a	n/a	n/a	n/a
3866.934	n/a	RECOG_TARGET	1933467	n/a	LTP090	ltpFR	1	6	0	MARBLE	867	5	0	n/a	n/a	n/a	n/a	n/a
3867.968	n/a	RECOG_RESP	1933984	n/a	LTP090	ltpFR	1	6	0	MARBLE	867	n/a	0	n/a	n/a	n/a	n/a	n/a
3869.586	n/a	RECOG_CONF	1934793	n/a	LTP090	ltpFR	1	6	0	MARBLE	867	5	0	n/a	n/a	n/a	n/a	n/a
3870.974	n/a	RECOG_LURE	1935487	n/a	LTP090	ltpFR	1	6	n/a	UMBRELLA	1534	4	n/a	n/a	n/a	n/a	n/a	n/a
3871.884	n/a	RECOG_RESP	1935942	n/a	LTP090	ltpFR	1	6	n/a	UMBRELLA	1534	n/a	n/a	n/a	n/a	n/a	n/a	n/a
3873.596	n/a	RECOG_CONF	1936798	n/a	LTP090	ltpFR	1	6	n/a	UMBRELLA	1534	4	n/a	n/a	n/a	n/a	n/a	n/a
3875.0	n/a	RECOG_LURE	1937500	n/a	LTP090	ltpFR	1	6	n/a	PRIMATE	1123	4	n/a	n/a	n/a	n/a	n/a	n/a
3876.132	n/a	RECOG_RESP	1938066	n/a	LTP090	ltpFR	1	6	n/a	PRIMATE	1123	n/a	n/a	n/a	n/a	n/a	n/a	n/a
3877.918	n/a	RECOG_CONF	1938959	n/a	LTP090	ltpFR	1	6	n/a	PRIMATE	1123	4	n/a	n/a	n/a	n/a	n/a	n/a
3879.392	n/a	RECOG_TARGET	1939696	n/a	LTP090	ltpFR	1	6	0	BEER	114	5	0	n/a	n/a	n/a	n/a	n/a
3880.202	n/a	RECOG_RESP	1940101	n/a	LTP090	ltpFR	1	6	0	BEER	114	n/a	0	n/a	n/a	n/a	n/a	n/a
3881.678	n/a	RECOG_CONF	1940839	n/a	LTP090	ltpFR	1	6	0	BEER	114	5	0	n/a	n/a	n/a	n/a	n/a
3883.25	n/a	RECOG_LURE	1941625	n/a	LTP090	ltpFR	1	6	n/a	COMMITTEE	355	4	n/a	n/a	n/a	n/a	n/a	n/a
3884.238	n/a	RECOG_RESP	1942119	n/a	LTP090	ltpFR	1	6	n/a	COMMITTEE	355	n/a	n/a	n/a	n/a	n/a	n/a	n/a
3885.92	n/a	RECOG_CONF	1942960	n/a	LTP090	ltpFR	1	6	n/a	COMMITTEE	355	4	n/a	n/a	n/a	n/a	n/a	n/a
3887.508	n/a	RECOG_TARGET	1943754	n/a	LTP090	ltpFR	1	6	0	SERVER	1272	5	1	n/a	n/a	n/a	n/a	n/a
3888.394	n/a	RECOG_RESP	1944197	n/a	LTP090	ltpFR	1	6	0	SERVER	1272	n/a	1	n/a	n/a	n/a	n/a	n/a
3890.3	n/a	RECOG_CONF	1945150	n/a	LTP090	ltpFR	1	6	0	SERVER	1272	5	1	n/a	n/a	n/a	n/a	n/a
3892.058	n/a	RECOG_LURE	1946029	n/a	LTP090	ltpFR	1	6	n/a	HAY	693	2	n/a	n/a	n/a	n/a	n/a	n/a
3894.09	n/a	RECOG_RESP	1947045	n/a	LTP090	ltpFR	1	6	n/a	HAY	693	n/a	n/a	n/a	n/a	n/a	n/a	n/a
3896.092	n/a	RECOG_CONF	1948046	n/a	LTP090	ltpFR	1	6	n/a	HAY	693	2	n/a	n/a	n/a	n/a	n/a	n/a
3897.474	n/a	RECOG_TARGET	1948737	n/a	LTP090	ltpFR	1	6	0	ORCHID	982	5	0	n/a	n/a	n/a	n/a	n/a
3898.432	n/a	RECOG_RESP	1949216	n/a	LTP090	ltpFR	1	6	0	ORCHID	982	n/a	0	n/a	n/a	n/a	n/a	n/a
3900.228	n/a	RECOG_CONF	1950114	n/a	LTP090	ltpFR	1	6	0	ORCHID	982	5	0	n/a	n/a	n/a	n/a	n/a
3901.892	n/a	RECOG_TARGET	1950946	n/a	LTP090	ltpFR	1	6	0	STEREO	1378	5	0	n/a	n/a	n/a	n/a	n/a
3903.64	n/a	RECOG_RESP	1951820	n/a	LTP090	ltpFR	1	6	0	STEREO	1378	n/a	0	n/a	n/a	n/a	n/a	n/a
3905.456	n/a	RECOG_CONF	1952728	n/a	LTP090	ltpFR	1	6	0	STEREO	1378	5	0	n/a	n/a	n/a	n/a	n/a
3907.066	n/a	RECOG_TARGET	1953533	n/a	LTP090	ltpFR	1	6	0	GARDEN	623	5	1	n/a	n/a	n/a	n/a	n/a
3907.936	n/a	RECOG_RESP	1953968	n/a	LTP090	ltpFR	1	6	0	GARDEN	623	n/a	1	n/a	n/a	n/a	n/a	n/a
3909.576	n/a	RECOG_CONF	1954788	n/a	LTP090	ltpFR	1	6	0	GARDEN	623	5	1	n/a	n/a	n/a	n/a	n/a
3910.982	n/a	RECOG_TARGET	1955491	n/a	LTP090	ltpFR	1	6	0	DAD	433	5	1	n/a	n/a	n/a	n/a	n/a
3911.752	n/a	RECOG_RESP	1955876	n/a	LTP090	ltpFR	1	6	0	DAD	433	n/a	1	n/a	n/a	n/a	n/a	n/a
3914.106	n/a	RECOG_CONF	1957053	n/a	LTP090	ltpFR	1	6	0	DAD	433	5	1	n/a	n/a	n/a	n/a	n/a
3915.726	n/a	RECOG_TARGET	1957863	n/a	LTP090	ltpFR	1	6	0	DUMP	505	5	1	n/a	n/a	n/a	n/a	n/a
3916.98	n/a	RECOG_RESP	1958490	n/a	LTP090	ltpFR	1	6	0	DUMP	505	n/a	1	n/a	n/a	n/a	n/a	n/a
3918.806	n/a	RECOG_CONF	1959403	n/a	LTP090	ltpFR	1	6	0	DUMP	505	5	1	n/a	n/a	n/a	n/a	n/a
3920.458	n/a	RECOG_TARGET	1960229	n/a	LTP090	ltpFR	1	6	1	KITCHEN	778	2	0	n/a	n/a	n/a	n/a	n/a
3922.588	n/a	RECOG_RESP	1961294	n/a	LTP090	ltpFR	1	6	1	KITCHEN	778	n/a	0	n/a	n/a	n/a	n/a	n/a
3924.574	n/a	RECOG_CONF	1962287	n/a	LTP090	ltpFR	1	6	1	KITCHEN	778	2	0	n/a	n/a	n/a	n/a	n/a
3926.016	n/a	RECOG_TARGET	1963008	n/a	LTP090	ltpFR	1	6	0	CROCODILE	411	5	1	n/a	n/a	n/a	n/a	n/a
3927.116	n/a	RECOG_RESP	1963558	n/a	LTP090	ltpFR	1	6	0	CROCODILE	411	n/a	1	n/a	n/a	n/a	n/a	n/a
3928.704	n/a	RECOG_CONF	1964352	n/a	LTP090	ltpFR	1	6	0	CROCODILE	411	5	1	n/a	n/a	n/a	n/a	n/a
3930.356	n/a	RECOG_TARGET	1965178	n/a	LTP090	ltpFR	1	6	1	ROOMMATE	1207	5	1	n/a	n/a	n/a	n/a	n/a
3931.174	n/a	RECOG_RESP	1965587	n/a	LTP090	ltpFR	1	6	1	ROOMMATE	1207	n/a	1	n/a	n/a	n/a	n/a	n/a
3933.114	n/a	RECOG_CONF	1966557	n/a	LTP090	ltpFR	1	6	1	ROOMMATE	1207	5	1	n/a	n/a	n/a	n/a	n/a
3934.8	n/a	RECOG_TARGET	1967400	n/a	LTP090	ltpFR	1	6	1	NOTE	958	5	0	n/a	n/a	n/a	n/a	n/a
3935.828	n/a	RECOG_RESP	1967914	n/a	LTP090	ltpFR	1	6	1	NOTE	958	n/a	0	n/a	n/a	n/a	n/a	n/a
3937.416	n/a	RECOG_CONF	1968708	n/a	LTP090	ltpFR	1	6	1	NOTE	958	5	0	n/a	n/a	n/a	n/a	n/a
3939.198	n/a	RECOG_TARGET	1969599	n/a	LTP090	ltpFR	1	6	0	PISTON	1076	5	0	n/a	n/a	n/a	n/a	n/a
3940.184	n/a	RECOG_RESP	1970092	n/a	LTP090	ltpFR	1	6	0	PISTON	1076	n/a	0	n/a	n/a	n/a	n/a	n/a
3942.024	n/a	RECOG_CONF	1971012	n/a	LTP090	ltpFR	1	6	0	PISTON	1076	5	0	n/a	n/a	n/a	n/a	n/a
3943.674	n/a	RECOG_LURE	1971837	n/a	LTP090	ltpFR	1	6	n/a	SISTER	1312	3	n/a	n/a	n/a	n/a	n/a	n/a
3944.704	n/a	RECOG_RESP	1972352	n/a	LTP090	ltpFR	1	6	n/a	SISTER	1312	n/a	n/a	n/a	n/a	n/a	n/a	n/a
3946.344	n/a	RECOG_CONF	1973172	n/a	LTP090	ltpFR	1	6	n/a	SISTER	1312	3	n/a	n/a	n/a	n/a	n/a	n/a
3947.84	n/a	RECOG_TARGET	1973920	n/a	LTP090	ltpFR	1	6	1	ANTEATER	26	5	0	n/a	n/a	n/a	n/a	n/a
3948.794	n/a	RECOG_RESP	1974397	n/a	LTP090	ltpFR	1	6	1	ANTEATER	26	n/a	0	n/a	n/a	n/a	n/a	n/a
3950.694	n/a	RECOG_CONF	1975347	n/a	LTP090	ltpFR	1	6	1	ANTEATER	26	5	0	n/a	n/a	n/a	n/a	n/a
3952.674	n/a	RECOG_TARGET	1976337	n/a	LTP090	ltpFR	1	6	0	FEAST	556	5	1	n/a	n/a	n/a	n/a	n/a
3953.604	n/a	RECOG_RESP	1976802	n/a	LTP090	ltpFR	1	6	0	FEAST	556	n/a	1	n/a	n/a	n/a	n/a	n/a
3955.664	n/a	RECOG_CONF	1977832	n/a	LTP090	ltpFR	1	6	0	FEAST	556	5	1	n/a	n/a	n/a	n/a	n/a
3963.61	n/a	REC_START	1981805	n/a	LTP090	ltpFR	1	7	n/a	n/a	n/a	n/a	n/a	n/a	n/a	n/a	n/a	n/a
3963.648	n/a	RECOG_TARGET	1981824	n/a	LTP090	ltpFR	1	7	-1	PORCUPINE	1107	4	-1	n/a	n/a	n/a	n/a	n/a
3965.372	n/a	RECOG_RESP	1982686	n/a	LTP090	ltpFR	1	7	-1	PORCUPINE	1107	n/a	-1	n/a	n/a	n/a	n/a	n/a
3967.198	n/a	RECOG_CONF	1983599	n/a	LTP090	ltpFR	1	7	-1	PORCUPINE	1107	4	-1	n/a	n/a	n/a	n/a	n/a
3968.782	n/a	RECOG_TARGET	1984391	n/a	LTP090	ltpFR	1	7	0	CHEF	290	5	1	n/a	n/a	n/a	n/a	n/a
3969.458	n/a	RECOG_RESP	1984729	n/a	LTP090	ltpFR	1	7	0	CHEF	290	n/a	1	n/a	n/a	n/a	n/a	n/a
3971.018	n/a	RECOG_CONF	1985509	n/a	LTP090	ltpFR	1	7	0	CHEF	290	5	1	n/a	n/a	n/a	n/a	n/a
3972.698	n/a	RECOG_TARGET	1986349	n/a	LTP090	ltpFR	1	7	0	CITIZEN	312	5	1	n/a	n/a	n/a	n/a	n/a
3973.568	n/a	RECOG_RESP	1986784	n/a	LTP090	ltpFR	1	7	0	CITIZEN	312	n/a	1	n/a	n/a	n/a	n/a	n/a
3975.14	n/a	RECOG_CONF	1987570	n/a	LTP090	ltpFR	1	7	0	CITIZEN	312	5	1	n/a	n/a	n/a	n/a	n/a
3976.748	n/a	RECOG_LURE	1988374	n/a	LTP090	ltpFR	1	7	n/a	ASTEROID	50	3	n/a	n/a	n/a	n/a	n/a	n/a
3978.014	n/a	RECOG_RESP	1989007	n/a	LTP090	ltpFR	1	7	n/a	ASTEROID	50	n/a	n/a	n/a	n/a	n/a	n/a	n/a
3979.63	n/a	RECOG_CONF	1989815	n/a	LTP090	ltpFR	1	7	n/a	ASTEROID	50	3	n/a	n/a	n/a	n/a	n/a	n/a
3981.198	n/a	RECOG_TARGET	1990599	n/a	LTP090	ltpFR	1	7	-1	ENGINE	535	5	-1	n/a	n/a	n/a	n/a	n/a
3982.388	n/a	RECOG_RESP	1991194	n/a	LTP090	ltpFR	1	7	-1	ENGINE	535	n/a	-1	n/a	n/a	n/a	n/a	n/a
3984.05	n/a	RECOG_CONF	1992025	n/a	LTP090	ltpFR	1	7	-1	ENGINE	535	5	-1	n/a	n/a	n/a	n/a	n/a
3985.674	n/a	RECOG_LURE	1992837	n/a	LTP090	ltpFR	1	7	n/a	BUREAU	199	3	n/a	n/a	n/a	n/a	n/a	n/a
3986.798	n/a	RECOG_RESP	1993399	n/a	LTP090	ltpFR	1	7	n/a	BUREAU	199	n/a	n/a	n/a	n/a	n/a	n/a	n/a
3988.39	n/a	RECOG_CONF	1994195	n/a	LTP090	ltpFR	1	7	n/a	BUREAU	199	3	n/a	n/a	n/a	n/a	n/a	n/a
3989.872	n/a	RECOG_TARGET	1994936	n/a	LTP090	ltpFR	1	7	-1	DUNGEON	507	5	-1	n/a	n/a	n/a	n/a	n/a
3990.67	n/a	RECOG_RESP	1995335	n/a	LTP090	ltpFR	1	7	-1	DUNGEON	507	n/a	-1	n/a	n/a	n/a	n/a	n/a
3992.202	n/a	RECOG_CONF	1996101	n/a	LTP090	ltpFR	1	7	-1	DUNGEON	507	5	-1	n/a	n/a	n/a	n/a	n/a
3993.964	n/a	RECOG_TARGET	1996982	n/a	LTP090	ltpFR	1	7	1	SEAGULL	1261	5	1	n/a	n/a	n/a	n/a	n/a
3994.816	n/a	RECOG_RESP	1997408	n/a	LTP090	ltpFR	1	7	1	SEAGULL	1261	n/a	1	n/a	n/a	n/a	n/a	n/a
3996.782	n/a	RECOG_CONF	1998391	n/a	LTP090	ltpFR	1	7	1	SEAGULL	1261	5	1	n/a	n/a	n/a	n/a	n/a
3998.388	n/a	RECOG_TARGET	1999194	n/a	LTP090	ltpFR	1	7	-1	BRANCH	168	5	-1	n/a	n/a	n/a	n/a	n/a
3999.226	n/a	RECOG_RESP	1999613	n/a	LTP090	ltpFR	1	7	-1	BRANCH	168	n/a	-1	n/a	n/a	n/a	n/a	n/a
4001.212	n/a	RECOG_CONF	2000606	n/a	LTP090	ltpFR	1	7	-1	BRANCH	168	5	-1	n/a	n/a	n/a	n/a	n/a
4002.672	n/a	RECOG_TARGET	2001336	n/a	LTP090	ltpFR	1	7	1	CASH	252	5	0	n/a	n/a	n/a	n/a	n/a
4003.482	n/a	RECOG_RESP	2001741	n/a	LTP090	ltpFR	1	7	1	CASH	252	n/a	0	n/a	n/a	n/a	n/a	n/a
4006.24	n/a	RECOG_CONF	2003120	n/a	LTP090	ltpFR	1	7	1	CASH	252	5	0	n/a	n/a	n/a	n/a	n/a
4007.914	n/a	RECOG_LURE	2003957	n/a	LTP090	ltpFR	1	7	n/a	ONION	977	4	n/a	n/a	n/a	n/a	n/a	n/a
4008.984	n/a	RECOG_RESP	2004492	n/a	LTP090	ltpFR	1	7	n/a	ONION	977	n/a	n/a	n/a	n/a	n/a	n/a	n/a
4010.75	n/a	RECOG_CONF	2005375	n/a	LTP090	ltpFR	1	7	n/a	ONION	977	4	n/a	n/a	n/a	n/a	n/a	n/a
4012.406	n/a	RECOG_TARGET	2006203	n/a	LTP090	ltpFR	1	7	1	CROW	414	5	1	n/a	n/a	n/a	n/a	n/a
4013.296	n/a	RECOG_RESP	2006648	n/a	LTP090	ltpFR	1	7	1	CROW	414	n/a	1	n/a	n/a	n/a	n/a	n/a
4015.112	n/a	RECOG_CONF	2007556	n/a	LTP090	ltpFR	1	7	1	CROW	414	5	1	n/a	n/a	n/a	n/a	n/a
4016.772	n/a	RECOG_TARGET	2008386	n/a	LTP090	ltpFR	1	7	0	LABEL	790	5	0	n/a	n/a	n/a	n/a	n/a
4017.74	n/a	RECOG_RESP	2008870	n/a	LTP090	ltpFR	1	7	0	LABEL	790	n/a	0	n/a	n/a	n/a	n/a	n/a
4019.96	n/a	RECOG_CONF	2009980	n/a	LTP090	ltpFR	1	7	0	LABEL	790	5	0	n/a	n/a	n/a	n/a	n/a
4021.722	n/a	RECOG_TARGET	2010861	n/a	LTP090	ltpFR	1	7	0	ALLIGATOR	16	3	1	n/a	n/a	n/a	n/a	n/a
4022.684	n/a	RECOG_RESP	2011342	n/a	LTP090	ltpFR	1	7	0	ALLIGATOR	16	n/a	1	n/a	n/a	n/a	n/a	n/a
4025.298	n/a	RECOG_CONF	2012649	n/a	LTP090	ltpFR	1	7	0	ALLIGATOR	16	3	1	n/a	n/a	n/a	n/a	n/a
4026.796	n/a	RECOG_TARGET	2013398	n/a	LTP090	ltpFR	1	7	1	FLANNEL	574	5	0	n/a	n/a	n/a	n/a	n/a
4027.638	n/a	RECOG_RESP	2013819	n/a	LTP090	ltpFR	1	7	1	FLANNEL	574	n/a	0	n/a	n/a	n/a	n/a	n/a
4029.858	n/a	RECOG_CONF	2014929	n/a	LTP090	ltpFR	1	7	1	FLANNEL	574	5	0	n/a	n/a	n/a	n/a	n/a
4031.604	n/a	RECOG_TARGET	2015802	n/a	LTP090	ltpFR	1	7	0	ROBOT	1200	5	1	n/a	n/a	n/a	n/a	n/a
4032.308	n/a	RECOG_RESP	2016154	n/a	LTP090	ltpFR	1	7	0	ROBOT	1200	n/a	1	n/a	n/a	n/a	n/a	n/a
4034.08	n/a	RECOG_CONF	2017040	n/a	LTP090	ltpFR	1	7	0	ROBOT	1200	5	1	n/a	n/a	n/a	n/a	n/a
4035.648	n/a	RECOG_TARGET	2017824	n/a	LTP090	ltpFR	1	7	-1	CUSTOMER	430	5	-1	n/a	n/a	n/a	n/a	n/a
4037.052	n/a	RECOG_RESP	2018526	n/a	LTP090	ltpFR	1	7	-1	CUSTOMER	430	n/a	-1	n/a	n/a	n/a	n/a	n/a
4038.698	n/a	RECOG_CONF	2019349	n/a	LTP090	ltpFR	1	7	-1	CUSTOMER	430	5	-1	n/a	n/a	n/a	n/a	n/a
