onset	duration	trial_type	sample	stim_file	subject	experiment	session	trial	item_name	item_num	list	answer	test_x	test_y	test_z
308.720703125	n/a	SESS_START	632260	n/a	LTP341	ltpFR2	7	n/a	n/a	n/a	n/a	n/a	0	0	0
335.361328125	n/a	START	686820	n/a	LTP341	ltpFR2	7	n/a	n/a	n/a	-1	n/a	n/a	n/a	n/a
335.375	n/a	PROB	686848	n/a	LTP341	ltpFR2	7	n/a	n/a	n/a	-1	17	7	8	2
338.1728515625	n/a	PROB	692578	n/a	LTP341	ltpFR2	7	n/a	n/a	n/a	-1	14	3	9	2
339.9228515625	n/a	PROB	696162	n/a	LTP341	ltpFR2	7	n/a	n/a	n/a	-1	16	6	3	7
342.35498046875	n/a	PROB	701143	n/a	LTP341	ltpFR2	7	n/a	n/a	n/a	-1	8	3	1	4
343.50390625	n/a	PROB	703496	n/a	LTP341	ltpFR2	7	n/a	n/a	n/a	-1	17	9	1	7
344.5869140625	n/a	PROB	705714	n/a	LTP341	ltpFR2	7	n/a	n/a	n/a	-1	2	5	8	9
346.0888671875	n/a	STOP	708790	n/a	LTP341	ltpFR2	7	n/a	n/a	n/a	-1	n/a	n/a	n/a	n/a
393.6806640625	n/a	DISTRACTOR	806258	n/a	LTP341	ltpFR2	7	1	n/a	n/a	n/a	n/a	0	0	0
393.6806640625	n/a	START	806258	n/a	LTP341	ltpFR2	7	n/a	n/a	n/a	1	n/a	n/a	n/a	n/a
393.69677734375	n/a	PROB	806291	n/a	LTP341	ltpFR2	7	n/a	n/a	n/a	1	13	3	2	8
395.9296875	n/a	PROB	810864	n/a	LTP341	ltpFR2	7	n/a	n/a	n/a	1	9	1	3	5
397.345703125	n/a	PROB	813764	n/a	LTP341	ltpFR2	7	n/a	n/a	n/a	1	13	3	8	2
398.3115234375	n/a	PROB	815742	n/a	LTP341	ltpFR2	7	n/a	n/a	n/a	1	1	6	5	5
399.6103515625	n/a	PROB	818402	n/a	LTP341	ltpFR2	7	n/a	n/a	n/a	1	8	2	3	3
401.0263671875	n/a	PROB	821302	n/a	LTP341	ltpFR2	7	n/a	n/a	n/a	1	21	6	6	9
402.76025390625	n/a	PROB	824853	n/a	LTP341	ltpFR2	7	n/a	n/a	n/a	1	19	8	4	7
404.12548828125	n/a	PROB	827649	n/a	LTP341	ltpFR2	7	n/a	n/a	n/a	1	17	1	8	8
405.57421875	n/a	PROB	830616	n/a	LTP341	ltpFR2	7	n/a	n/a	n/a	1	12	1	6	5
406.45703125	n/a	PROB	832424	n/a	LTP341	ltpFR2	7	n/a	n/a	n/a	1	10	3	4	3
407.9560546875	n/a	PROB	835494	n/a	LTP341	ltpFR2	7	n/a	n/a	n/a	1	25	9	7	9
409.77294921875	n/a	PROB	839215	n/a	LTP341	ltpFR2	7	n/a	n/a	n/a	1	18	8	4	6
411.72119140625	n/a	PROB	843205	n/a	LTP341	ltpFR2	7	n/a	n/a	n/a	1	10	8	1	1
412.6708984375	n/a	PROB	845150	n/a	LTP341	ltpFR2	7	n/a	n/a	n/a	1	5	1	3	1
413.62109375	n/a	PROB	847096	n/a	LTP341	ltpFR2	7	n/a	n/a	n/a	1	14	4	4	6
414.65283203125	n/a	PROB	849209	n/a	LTP341	ltpFR2	7	n/a	n/a	n/a	1	13	3	7	2
415.65283203125	n/a	PROB	851257	n/a	LTP341	ltpFR2	7	n/a	n/a	n/a	1	4	5	1	8
416.73779296875	n/a	STOP	853479	n/a	LTP341	ltpFR2	7	n/a	n/a	n/a	1	n/a	n/a	n/a	n/a
418.7861328125	n/a	WORD	857674	wordpools/wasnorm_wordpool_576.txt	LTP341	ltpFR2	7	1	MISTER	901	n/a	n/a	0	0	0
421.35009765625	n/a	WORD	862925	wordpools/wasnorm_wordpool_576.txt	LTP341	ltpFR2	7	1	ROOSTER	1209	n/a	n/a	0	0	0
423.9658203125	n/a	WORD	868282	wordpools/wasnorm_wordpool_576.txt	LTP341	ltpFR2	7	1	BUREAU	199	n/a	n/a	0	0	0
426.61474609375	n/a	WORD	873707	wordpools/wasnorm_wordpool_576.txt	LTP341	ltpFR2	7	1	SPIDER	1351	n/a	n/a	0	0	0
429.146484375	n/a	WORD	878892	wordpools/wasnorm_wordpool_576.txt	LTP341	ltpFR2	7	1	MASK	876	n/a	n/a	0	0	0
431.7294921875	n/a	WORD	884182	wordpools/wasnorm_wordpool_576.txt	LTP341	ltpFR2	7	1	FOREHEAD	592	n/a	n/a	0	0	0
434.32763671875	n/a	WORD	889503	wordpools/wasnorm_wordpool_576.txt	LTP341	ltpFR2	7	1	SKILLET	1317	n/a	n/a	0	0	0
437.0263671875	n/a	WORD	895030	wordpools/wasnorm_wordpool_576.txt	LTP341	ltpFR2	7	1	HAWK	692	n/a	n/a	0	0	0
439.79150390625	n/a	WORD	900693	wordpools/wasnorm_wordpool_576.txt	LTP341	ltpFR2	7	1	PENGUIN	1044	n/a	n/a	0	0	0
442.5234375	n/a	WORD	906288	wordpools/wasnorm_wordpool_576.txt	LTP341	ltpFR2	7	1	ROD	1203	n/a	n/a	0	0	0
444.9892578125	n/a	WORD	911338	wordpools/wasnorm_wordpool_576.txt	LTP341	ltpFR2	7	1	CRITIC	410	n/a	n/a	0	0	0
447.63720703125	n/a	WORD	916761	wordpools/wasnorm_wordpool_576.txt	LTP341	ltpFR2	7	1	CREATURE	403	n/a	n/a	0	0	0
450.453125	n/a	WORD	922528	wordpools/wasnorm_wordpool_576.txt	LTP341	ltpFR2	7	1	BEAKER	104	n/a	n/a	0	0	0
453.18505859375	n/a	WORD	928123	wordpools/wasnorm_wordpool_576.txt	LTP341	ltpFR2	7	1	MUSTARD	935	n/a	n/a	0	0	0
455.966796875	n/a	WORD	933820	wordpools/wasnorm_wordpool_576.txt	LTP341	ltpFR2	7	1	BOX	159	n/a	n/a	0	0	0
458.53173828125	n/a	WORD	939073	wordpools/wasnorm_wordpool_576.txt	LTP341	ltpFR2	7	1	OUTFIT	988	n/a	n/a	0	0	0
461.130859375	n/a	WORD	944396	wordpools/wasnorm_wordpool_576.txt	LTP341	ltpFR2	7	1	GALLON	618	n/a	n/a	0	0	0
463.78076171875	n/a	WORD	949823	wordpools/wasnorm_wordpool_576.txt	LTP341	ltpFR2	7	1	FIREMAN	569	n/a	n/a	0	0	0
466.478515625	n/a	WORD	955348	wordpools/wasnorm_wordpool_576.txt	LTP341	ltpFR2	7	1	BREAST	171	n/a	n/a	0	0	0
468.99365234375	n/a	WORD	960499	wordpools/wasnorm_wordpool_576.txt	LTP341	ltpFR2	7	1	TABLE	1426	n/a	n/a	0	0	0
471.4267578125	n/a	WORD	965482	wordpools/wasnorm_wordpool_576.txt	LTP341	ltpFR2	7	1	PORK	1108	n/a	n/a	0	0	0
474.00830078125	n/a	WORD	970769	wordpools/wasnorm_wordpool_576.txt	LTP341	ltpFR2	7	1	PRINCE	1124	n/a	n/a	0	0	0
476.607421875	n/a	WORD	976092	wordpools/wasnorm_wordpool_576.txt	LTP341	ltpFR2	7	1	SCALPEL	1243	n/a	n/a	0	0	0
479.25537109375	n/a	WORD	981515	wordpools/wasnorm_wordpool_576.txt	LTP341	ltpFR2	7	1	ROCKET	1202	n/a	n/a	0	0	0
480.8720703125	n/a	START	984826	n/a	LTP341	ltpFR2	7	n/a	n/a	n/a	2	n/a	n/a	n/a	n/a
481.828125	n/a	DISTRACTOR	986784	n/a	LTP341	ltpFR2	7	1	n/a	n/a	n/a	n/a	0	0	0
481.83837890625	n/a	PROB	986805	n/a	LTP341	ltpFR2	7	n/a	n/a	n/a	2	14	7	1	7
483.72021484375	n/a	PROB	990659	n/a	LTP341	ltpFR2	7	n/a	n/a	n/a	2	14	6	2	6
485.8193359375	n/a	PROB	994958	n/a	LTP341	ltpFR2	7	n/a	n/a	n/a	2	9	5	2	2
490.3671875	n/a	PROB	1004272	n/a	LTP341	ltpFR2	7	n/a	n/a	n/a	2	18	9	5	4
493.298828125	n/a	PROB	1010276	n/a	LTP341	ltpFR2	7	n/a	n/a	n/a	2	17	3	9	5
494.96484375	n/a	PROB	1013688	n/a	LTP341	ltpFR2	7	n/a	n/a	n/a	2	15	4	2	9
496.09765625	n/a	PROB	1016008	n/a	LTP341	ltpFR2	7	n/a	n/a	n/a	2	21	8	5	8
497.97998046875	n/a	PROB	1019863	n/a	LTP341	ltpFR2	7	n/a	n/a	n/a	2	8	1	5	2
499.3798828125	n/a	PROB	1022730	n/a	LTP341	ltpFR2	7	n/a	n/a	n/a	2	21	8	8	5
500.49560546875	n/a	PROB	1025015	n/a	LTP341	ltpFR2	7	n/a	n/a	n/a	2	18	7	3	8
501.9619140625	n/a	PROB	1028018	n/a	LTP341	ltpFR2	7	n/a	n/a	n/a	2	14	3	3	8
503.40966796875	n/a	STOP	1030983	n/a	LTP341	ltpFR2	7	n/a	n/a	n/a	2	n/a	n/a	n/a	n/a
506.6767578125	n/a	REC_START	1037674	n/a	LTP341	ltpFR2	7	1	n/a	n/a	n/a	n/a	0	0	0
507.0576171875	n/a	REC_WORD	1038454	wordpools/wasnorm_wordpool_576.txt	LTP341	ltpFR2	7	1	BREAST	171	n/a	n/a	0	0	0
507.62744140625	n/a	REC_WORD	1039621	wordpools/wasnorm_wordpool_576.txt	LTP341	ltpFR2	7	1	TABLE	1426	n/a	n/a	0	0	0
508.11865234375	n/a	REC_WORD	1040627	wordpools/wasnorm_wordpool_576.txt	LTP341	ltpFR2	7	1	PORK	1108	n/a	n/a	0	0	0
508.7607421875	n/a	REC_WORD	1041942	wordpools/wasnorm_wordpool_576.txt	LTP341	ltpFR2	7	1	PRINCE	1124	n/a	n/a	0	0	0
509.32373046875	n/a	REC_WORD	1043095	wordpools/wasnorm_wordpool_576.txt	LTP341	ltpFR2	7	1	SCALPEL	1243	n/a	n/a	0	0	0
510.08349609375	n/a	REC_WORD	1044651	wordpools/wasnorm_wordpool_576.txt	LTP341	ltpFR2	7	1	ROCKET	1202	n/a	n/a	0	0	0
512.6923828125	n/a	REC_WORD	1049994	wordpools/wasnorm_wordpool_576.txt	LTP341	ltpFR2	7	1	ROOSTER	1209	n/a	n/a	0	0	0
514.32421875	n/a	REC_WORD	1053336	wordpools/wasnorm_wordpool_576.txt	LTP341	ltpFR2	7	1	MASK	876	n/a	n/a	0	0	0
516.1171875	n/a	REC_WORD	1057008	wordpools/wasnorm_wordpool_576.txt	LTP341	ltpFR2	7	1	MISTER	901	n/a	n/a	0	0	0
551.12353515625	n/a	REC_WORD	1128701	wordpools/wasnorm_wordpool_576.txt	LTP341	ltpFR2	7	1	SPIDER	1351	n/a	n/a	0	0	0
597.09912109375	n/a	DISTRACTOR	1222859	n/a	LTP341	ltpFR2	7	2	n/a	n/a	n/a	n/a	0	0	0
597.09912109375	n/a	START	1222859	n/a	LTP341	ltpFR2	7	n/a	n/a	n/a	3	n/a	n/a	n/a	n/a
597.115234375	n/a	PROB	1222892	n/a	LTP341	ltpFR2	7	n/a	n/a	n/a	3	21	5	7	9
598.84814453125	n/a	PROB	1226441	n/a	LTP341	ltpFR2	7	n/a	n/a	n/a	3	14	8	3	1
599.8310546875	n/a	PROB	1228454	n/a	LTP341	ltpFR2	7	n/a	n/a	n/a	3	13	3	5	5
600.93017578125	n/a	PROB	1230705	n/a	LTP341	ltpFR2	7	n/a	n/a	n/a	3	14	2	7	5
602.197265625	n/a	PROB	1233300	n/a	LTP341	ltpFR2	7	n/a	n/a	n/a	3	19	5	9	5
603.51318359375	n/a	PROB	1235995	n/a	LTP341	ltpFR2	7	n/a	n/a	n/a	3	11	2	1	8
604.59521484375	n/a	PROB	1238211	n/a	LTP341	ltpFR2	7	n/a	n/a	n/a	3	16	1	8	7
605.794921875	n/a	PROB	1240668	n/a	LTP341	ltpFR2	7	n/a	n/a	n/a	3	25	7	9	9
607.39404296875	n/a	PROB	1243943	n/a	LTP341	ltpFR2	7	n/a	n/a	n/a	3	9	1	2	6
608.494140625	n/a	PROB	1246196	n/a	LTP341	ltpFR2	7	n/a	n/a	n/a	3	7	1	1	5
610.009765625	n/a	PROB	1249300	n/a	LTP341	ltpFR2	7	n/a	n/a	n/a	3	18	6	4	8
611.15869140625	n/a	PROB	1251653	n/a	LTP341	ltpFR2	7	n/a	n/a	n/a	3	11	1	4	6
612.27490234375	n/a	PROB	1253939	n/a	LTP341	ltpFR2	7	n/a	n/a	n/a	3	19	9	6	4
613.6748046875	n/a	PROB	1256806	n/a	LTP341	ltpFR2	7	n/a	n/a	n/a	3	19	6	8	5
615.44091796875	n/a	PROB	1260423	n/a	LTP341	ltpFR2	7	n/a	n/a	n/a	3	14	9	3	2
616.70654296875	n/a	PROB	1263015	n/a	LTP341	ltpFR2	7	n/a	n/a	n/a	3	7	5	1	1
617.73974609375	n/a	PROB	1265131	n/a	LTP341	ltpFR2	7	n/a	n/a	n/a	3	13	4	3	6
618.9716796875	n/a	PROB	1267654	n/a	LTP341	ltpFR2	7	n/a	n/a	n/a	3	14	4	2	8
620.69775390625	n/a	STOP	1271189	n/a	LTP341	ltpFR2	7	n/a	n/a	n/a	3	n/a	n/a	n/a	n/a
622.20361328125	n/a	WORD	1274273	wordpools/wasnorm_wordpool_576.txt	LTP341	ltpFR2	7	2	FLESH	579	n/a	n/a	0	0	0
624.96826171875	n/a	WORD	1279935	wordpools/wasnorm_wordpool_576.txt	LTP341	ltpFR2	7	2	SPOOL	1356	n/a	n/a	0	0	0
627.58447265625	n/a	WORD	1285293	wordpools/wasnorm_wordpool_576.txt	LTP341	ltpFR2	7	2	STAPLE	1371	n/a	n/a	0	0	0
630.24951171875	n/a	WORD	1290751	wordpools/wasnorm_wordpool_576.txt	LTP341	ltpFR2	7	2	INMATE	738	n/a	n/a	0	0	0
632.998046875	n/a	WORD	1296380	wordpools/wasnorm_wordpool_576.txt	LTP341	ltpFR2	7	2	FRANCE	601	n/a	n/a	0	0	0
635.6142578125	n/a	WORD	1301738	wordpools/wasnorm_wordpool_576.txt	LTP341	ltpFR2	7	2	CANAL	226	n/a	n/a	0	0	0
638.2958984375	n/a	WORD	1307230	wordpools/wasnorm_wordpool_576.txt	LTP341	ltpFR2	7	2	RAFT	1159	n/a	n/a	0	0	0
640.97802734375	n/a	WORD	1312723	wordpools/wasnorm_wordpool_576.txt	LTP341	ltpFR2	7	2	WRENCH	1625	n/a	n/a	0	0	0
643.4931640625	n/a	WORD	1317874	wordpools/wasnorm_wordpool_576.txt	LTP341	ltpFR2	7	2	POISON	1096	n/a	n/a	0	0	0
646.1259765625	n/a	WORD	1323266	wordpools/wasnorm_wordpool_576.txt	LTP341	ltpFR2	7	2	CHEST	295	n/a	n/a	0	0	0
648.8740234375	n/a	WORD	1328894	wordpools/wasnorm_wordpool_576.txt	LTP341	ltpFR2	7	2	GLOVE	642	n/a	n/a	0	0	0
651.48974609375	n/a	WORD	1334251	wordpools/wasnorm_wordpool_576.txt	LTP341	ltpFR2	7	2	FLOWER	584	n/a	n/a	0	0	0
654.1044921875	n/a	WORD	1339606	wordpools/wasnorm_wordpool_576.txt	LTP341	ltpFR2	7	2	PERFUME	1049	n/a	n/a	0	0	0
656.67041015625	n/a	WORD	1344861	wordpools/wasnorm_wordpool_576.txt	LTP341	ltpFR2	7	2	CROWN	415	n/a	n/a	0	0	0
659.435546875	n/a	WORD	1350524	wordpools/wasnorm_wordpool_576.txt	LTP341	ltpFR2	7	2	APPLE	33	n/a	n/a	0	0	0
662.03466796875	n/a	WORD	1355847	wordpools/wasnorm_wordpool_576.txt	LTP341	ltpFR2	7	2	PECAN	1036	n/a	n/a	0	0	0
664.767578125	n/a	WORD	1361444	wordpools/wasnorm_wordpool_576.txt	LTP341	ltpFR2	7	2	PRINCESS	1125	n/a	n/a	0	0	0
667.5654296875	n/a	WORD	1367174	wordpools/wasnorm_wordpool_576.txt	LTP341	ltpFR2	7	2	COFFEE	341	n/a	n/a	0	0	0
670.1640625	n/a	WORD	1372496	wordpools/wasnorm_wordpool_576.txt	LTP341	ltpFR2	7	2	COBRA	336	n/a	n/a	0	0	0
672.89599609375	n/a	WORD	1378091	wordpools/wasnorm_wordpool_576.txt	LTP341	ltpFR2	7	2	CEILING	265	n/a	n/a	0	0	0
675.39501953125	n/a	WORD	1383209	wordpools/wasnorm_wordpool_576.txt	LTP341	ltpFR2	7	2	BARLEY	88	n/a	n/a	0	0	0
677.89404296875	n/a	WORD	1388327	wordpools/wasnorm_wordpool_576.txt	LTP341	ltpFR2	7	2	PEPPER	1047	n/a	n/a	0	0	0
680.708984375	n/a	WORD	1394092	wordpools/wasnorm_wordpool_576.txt	LTP341	ltpFR2	7	2	SOFTBALL	1343	n/a	n/a	0	0	0
683.3408203125	n/a	WORD	1399482	wordpools/wasnorm_wordpool_576.txt	LTP341	ltpFR2	7	2	CRICKET	408	n/a	n/a	0	0	0
684.95703125	n/a	START	1402792	n/a	LTP341	ltpFR2	7	n/a	n/a	n/a	4	n/a	n/a	n/a	n/a
685.927734375	n/a	DISTRACTOR	1404780	n/a	LTP341	ltpFR2	7	2	n/a	n/a	n/a	n/a	0	0	0
685.93994140625	n/a	PROB	1404805	n/a	LTP341	ltpFR2	7	n/a	n/a	n/a	4	17	4	6	7
688.138671875	n/a	PROB	1409308	n/a	LTP341	ltpFR2	7	n/a	n/a	n/a	4	23	9	8	6
691.61962890625	n/a	PROB	1416437	n/a	LTP341	ltpFR2	7	n/a	n/a	n/a	4	13	1	3	9
692.5029296875	n/a	PROB	1418246	n/a	LTP341	ltpFR2	7	n/a	n/a	n/a	4	8	5	2	1
693.685546875	n/a	PROB	1420668	n/a	LTP341	ltpFR2	7	n/a	n/a	n/a	4	1	5	8	2
695.08544921875	n/a	PROB	1423535	n/a	LTP341	ltpFR2	7	n/a	n/a	n/a	4	14	3	6	5
696.41748046875	n/a	PROB	1426263	n/a	LTP341	ltpFR2	7	n/a	n/a	n/a	4	15	8	5	2
697.70068359375	n/a	PROB	1428891	n/a	LTP341	ltpFR2	7	n/a	n/a	n/a	4	18	2	7	9
699.05029296875	n/a	PROB	1431655	n/a	LTP341	ltpFR2	7	n/a	n/a	n/a	4	20	7	9	4
700.482421875	n/a	PROB	1434588	n/a	LTP341	ltpFR2	7	n/a	n/a	n/a	4	18	7	9	2
701.8984375	n/a	PROB	1437488	n/a	LTP341	ltpFR2	7	n/a	n/a	n/a	4	16	2	7	7
703.564453125	n/a	PROB	1440900	n/a	LTP341	ltpFR2	7	n/a	n/a	n/a	4	10	3	4	3
704.88037109375	n/a	PROB	1443595	n/a	LTP341	ltpFR2	7	n/a	n/a	n/a	4	15	4	2	9
708.9560546875	n/a	STOP	1451942	n/a	LTP341	ltpFR2	7	n/a	n/a	n/a	4	n/a	n/a	n/a	n/a
710.74609375	n/a	REC_START	1455608	n/a	LTP341	ltpFR2	7	2	n/a	n/a	n/a	n/a	0	0	0
711.51708984375	n/a	REC_WORD	1457187	wordpools/wasnorm_wordpool_576.txt	LTP341	ltpFR2	7	2	COBRA	336	n/a	n/a	0	0	0
712.9912109375	n/a	REC_WORD	1460206	wordpools/wasnorm_wordpool_576.txt	LTP341	ltpFR2	7	2	SCALPEL	1243	n/a	n/a	0	0	0
714.1689453125	n/a	REC_WORD	1462618	wordpools/wasnorm_wordpool_576.txt	LTP341	ltpFR2	7	2	INMATE	738	n/a	n/a	0	0	0
714.84619140625	n/a	REC_WORD	1464005	wordpools/wasnorm_wordpool_576.txt	LTP341	ltpFR2	7	2	FRANCE	601	n/a	n/a	0	0	0
715.94091796875	n/a	REC_WORD	1466247	wordpools/wasnorm_wordpool_576.txt	LTP341	ltpFR2	7	2	FLOWER	584	n/a	n/a	0	0	0
717.40283203125	n/a	REC_WORD	1469241	wordpools/wasnorm_wordpool_576.txt	LTP341	ltpFR2	7	2	PERFUME	1049	n/a	n/a	0	0	0
718.5751953125	n/a	REC_WORD	1471642	wordpools/wasnorm_wordpool_576.txt	LTP341	ltpFR2	7	2	PRINCESS	1125	n/a	n/a	0	0	0
723.298828125	n/a	REC_WORD	1481316	wordpools/wasnorm_wordpool_576.txt	LTP341	ltpFR2	7	2	CROWN	415	n/a	n/a	0	0	0
725.14501953125	n/a	REC_WORD	1485097	wordpools/wasnorm_wordpool_576.txt	LTP341	ltpFR2	7	2	STAPLE	1371	n/a	n/a	0	0	0
728.5517578125	n/a	REC_WORD	1492074	wordpools/wasnorm_wordpool_576.txt	LTP341	ltpFR2	7	2	FRESH	-1	n/a	n/a	0	0	0
732.45751953125	n/a	REC_WORD	1500073	wordpools/wasnorm_wordpool_576.txt	LTP341	ltpFR2	7	2	CHEST	295	n/a	n/a	0	0	0
734.04150390625	n/a	REC_WORD	1503317	wordpools/wasnorm_wordpool_576.txt	LTP341	ltpFR2	7	2	POISON	1096	n/a	n/a	0	0	0
801.16796875	n/a	DISTRACTOR	1640792	n/a	LTP341	ltpFR2	7	3	n/a	n/a	n/a	n/a	0	0	0
801.16796875	n/a	START	1640792	n/a	LTP341	ltpFR2	7	n/a	n/a	n/a	5	n/a	n/a	n/a	n/a
801.18359375	n/a	PROB	1640824	n/a	LTP341	ltpFR2	7	n/a	n/a	n/a	5	17	6	6	5
802.81689453125	n/a	PROB	1644169	n/a	LTP341	ltpFR2	7	n/a	n/a	n/a	5	19	6	4	9
804.2998046875	n/a	PROB	1647206	n/a	LTP341	ltpFR2	7	n/a	n/a	n/a	5	19	7	8	4
805.716796875	n/a	PROB	1650108	n/a	LTP341	ltpFR2	7	n/a	n/a	n/a	5	18	8	4	6
806.91455078125	n/a	PROB	1652561	n/a	LTP341	ltpFR2	7	n/a	n/a	n/a	5	16	4	8	4
808.71484375	n/a	PROB	1656248	n/a	LTP341	ltpFR2	7	n/a	n/a	n/a	5	14	8	3	3
809.91357421875	n/a	PROB	1658703	n/a	LTP341	ltpFR2	7	n/a	n/a	n/a	5	10	1	8	1
810.9794921875	n/a	PROB	1660886	n/a	LTP341	ltpFR2	7	n/a	n/a	n/a	5	18	7	9	2
813.095703125	n/a	PROB	1665220	n/a	LTP341	ltpFR2	7	n/a	n/a	n/a	5	20	6	5	9
814.24462890625	n/a	PROB	1667573	n/a	LTP341	ltpFR2	7	n/a	n/a	n/a	5	17	7	6	4
815.74560546875	n/a	PROB	1670647	n/a	LTP341	ltpFR2	7	n/a	n/a	n/a	5	16	6	6	4
817.193359375	n/a	PROB	1673612	n/a	LTP341	ltpFR2	7	n/a	n/a	n/a	5	23	9	9	5
818.8251953125	n/a	PROB	1676954	n/a	LTP341	ltpFR2	7	n/a	n/a	n/a	5	12	2	8	2
819.97509765625	n/a	PROB	1679309	n/a	LTP341	ltpFR2	7	n/a	n/a	n/a	5	7	3	1	3
821.32421875	n/a	PROB	1682072	n/a	LTP341	ltpFR2	7	n/a	n/a	n/a	5	17	7	3	7
822.6904296875	n/a	PROB	1684870	n/a	LTP341	ltpFR2	7	n/a	n/a	n/a	5	18	8	6	4
823.8583984375	n/a	STOP	1687262	n/a	LTP341	ltpFR2	7	n/a	n/a	n/a	5	n/a	n/a	n/a	n/a
826.08935546875	n/a	WORD	1691831	wordpools/wasnorm_wordpool_576.txt	LTP341	ltpFR2	7	3	PIGMENT	1066	n/a	n/a	0	0	0
828.52099609375	n/a	WORD	1696811	wordpools/wasnorm_wordpool_576.txt	LTP341	ltpFR2	7	3	DONOR	485	n/a	n/a	0	0	0
831.06982421875	n/a	WORD	1702031	wordpools/wasnorm_wordpool_576.txt	LTP341	ltpFR2	7	3	QUEEN	1149	n/a	n/a	0	0	0
833.7529296875	n/a	WORD	1707526	wordpools/wasnorm_wordpool_576.txt	LTP341	ltpFR2	7	3	JAPAN	749	n/a	n/a	0	0	0
836.45068359375	n/a	WORD	1713051	wordpools/wasnorm_wordpool_576.txt	LTP341	ltpFR2	7	3	EUROPE	541	n/a	n/a	0	0	0
839.1328125	n/a	WORD	1718544	wordpools/wasnorm_wordpool_576.txt	LTP341	ltpFR2	7	3	CHAUFFEUR	283	n/a	n/a	0	0	0
841.91455078125	n/a	WORD	1724241	wordpools/wasnorm_wordpool_576.txt	LTP341	ltpFR2	7	3	TART	1436	n/a	n/a	0	0	0
844.69677734375	n/a	WORD	1729939	wordpools/wasnorm_wordpool_576.txt	LTP341	ltpFR2	7	3	SODA	1341	n/a	n/a	0	0	0
847.1787109375	n/a	WORD	1735022	wordpools/wasnorm_wordpool_576.txt	LTP341	ltpFR2	7	3	RUST	1219	n/a	n/a	0	0	0
849.6943359375	n/a	WORD	1740174	wordpools/wasnorm_wordpool_576.txt	LTP341	ltpFR2	7	3	HUSBAND	728	n/a	n/a	0	0	0
852.50927734375	n/a	WORD	1745939	wordpools/wasnorm_wordpool_576.txt	LTP341	ltpFR2	7	3	LAVA	804	n/a	n/a	0	0	0
855.2744140625	n/a	WORD	1751602	wordpools/wasnorm_wordpool_576.txt	LTP341	ltpFR2	7	3	SHELF	1280	n/a	n/a	0	0	0
857.84033203125	n/a	WORD	1756857	wordpools/wasnorm_wordpool_576.txt	LTP341	ltpFR2	7	3	MOTOR	922	n/a	n/a	0	0	0
860.5224609375	n/a	WORD	1762350	wordpools/wasnorm_wordpool_576.txt	LTP341	ltpFR2	7	3	PISTON	1076	n/a	n/a	0	0	0
863.154296875	n/a	WORD	1767740	wordpools/wasnorm_wordpool_576.txt	LTP341	ltpFR2	7	3	DRAWING	494	n/a	n/a	0	0	0
865.97021484375	n/a	WORD	1773507	wordpools/wasnorm_wordpool_576.txt	LTP341	ltpFR2	7	3	FREEZER	604	n/a	n/a	0	0	0
868.5849609375	n/a	WORD	1778862	wordpools/wasnorm_wordpool_576.txt	LTP341	ltpFR2	7	3	FLAG	573	n/a	n/a	0	0	0
871.1669921875	n/a	WORD	1784150	wordpools/wasnorm_wordpool_576.txt	LTP341	ltpFR2	7	3	CHIPMUNK	304	n/a	n/a	0	0	0
873.93310546875	n/a	WORD	1789815	wordpools/wasnorm_wordpool_576.txt	LTP341	ltpFR2	7	3	POSSUM	1112	n/a	n/a	0	0	0
876.46484375	n/a	WORD	1795000	wordpools/wasnorm_wordpool_576.txt	LTP341	ltpFR2	7	3	COOKBOOK	373	n/a	n/a	0	0	0
878.94677734375	n/a	WORD	1800083	wordpools/wasnorm_wordpool_576.txt	LTP341	ltpFR2	7	3	WARDROBE	1587	n/a	n/a	0	0	0
881.5458984375	n/a	WORD	1805406	wordpools/wasnorm_wordpool_576.txt	LTP341	ltpFR2	7	3	FLUTE	585	n/a	n/a	0	0	0
884.29443359375	n/a	WORD	1811035	wordpools/wasnorm_wordpool_576.txt	LTP341	ltpFR2	7	3	DASHBOARD	441	n/a	n/a	0	0	0
886.7275390625	n/a	WORD	1816018	wordpools/wasnorm_wordpool_576.txt	LTP341	ltpFR2	7	3	CASHEW	253	n/a	n/a	0	0	0
888.34228515625	n/a	START	1819325	n/a	LTP341	ltpFR2	7	n/a	n/a	n/a	6	n/a	n/a	n/a	n/a
889.38134765625	n/a	DISTRACTOR	1821453	n/a	LTP341	ltpFR2	7	3	n/a	n/a	n/a	n/a	0	0	0
889.3916015625	n/a	PROB	1821474	n/a	LTP341	ltpFR2	7	n/a	n/a	n/a	6	19	9	6	4
891.6904296875	n/a	PROB	1826182	n/a	LTP341	ltpFR2	7	n/a	n/a	n/a	6	11	2	2	7
892.640625	n/a	PROB	1828128	n/a	LTP341	ltpFR2	7	n/a	n/a	n/a	6	10	1	5	4
893.75732421875	n/a	PROB	1830415	n/a	LTP341	ltpFR2	7	n/a	n/a	n/a	6	11	3	7	1
894.63916015625	n/a	PROB	1832221	n/a	LTP341	ltpFR2	7	n/a	n/a	n/a	6	16	3	5	8
896.0224609375	n/a	PROB	1835054	n/a	LTP341	ltpFR2	7	n/a	n/a	n/a	6	1	4	8	9
897.00537109375	n/a	PROB	1837067	n/a	LTP341	ltpFR2	7	n/a	n/a	n/a	6	25	9	7	9
899.287109375	n/a	PROB	1841740	n/a	LTP341	ltpFR2	7	n/a	n/a	n/a	6	17	2	8	7
900.58642578125	n/a	PROB	1844401	n/a	LTP341	ltpFR2	7	n/a	n/a	n/a	6	17	5	5	7
901.7529296875	n/a	PROB	1846790	n/a	LTP341	ltpFR2	7	n/a	n/a	n/a	6	15	6	2	7
903.1181640625	n/a	PROB	1849586	n/a	LTP341	ltpFR2	7	n/a	n/a	n/a	6	14	6	6	2
904.31787109375	n/a	PROB	1852043	n/a	LTP341	ltpFR2	7	n/a	n/a	n/a	6	8	1	1	6
905.90087890625	n/a	PROB	1855285	n/a	LTP341	ltpFR2	7	n/a	n/a	n/a	6	16	4	5	7
907.23291015625	n/a	PROB	1858013	n/a	LTP341	ltpFR2	7	n/a	n/a	n/a	6	25	9	7	9
909.44873046875	n/a	PROB	1862551	n/a	LTP341	ltpFR2	7	n/a	n/a	n/a	6	12	4	5	3
910.6650390625	n/a	PROB	1865042	n/a	LTP341	ltpFR2	7	n/a	n/a	n/a	6	13	3	6	4
911.9228515625	n/a	STOP	1867618	n/a	LTP341	ltpFR2	7	n/a	n/a	n/a	6	n/a	n/a	n/a	n/a
914.24658203125	n/a	REC_START	1872377	n/a	LTP341	ltpFR2	7	3	n/a	n/a	n/a	n/a	0	0	0
914.69482421875	n/a	REC_WORD	1873295	wordpools/wasnorm_wordpool_576.txt	LTP341	ltpFR2	7	3	PIGMENT	1066	n/a	n/a	0	0	0
915.61474609375	n/a	REC_WORD	1875179	wordpools/wasnorm_wordpool_576.txt	LTP341	ltpFR2	7	3	DONOR	485	n/a	n/a	0	0	0
916.87060546875	n/a	REC_WORD	1877751	wordpools/wasnorm_wordpool_576.txt	LTP341	ltpFR2	7	3	EUROPE	541	n/a	n/a	0	0	0
919.48388671875	n/a	REC_WORD	1883103	wordpools/wasnorm_wordpool_576.txt	LTP341	ltpFR2	7	3	JAPAN	749	n/a	n/a	0	0	0
920.521484375	n/a	REC_WORD	1885228	wordpools/wasnorm_wordpool_576.txt	LTP341	ltpFR2	7	3	QUEEN	1149	n/a	n/a	0	0	0
921.89453125	n/a	REC_WORD	1888040	wordpools/wasnorm_wordpool_576.txt	LTP341	ltpFR2	7	3	HUSBAND	728	n/a	n/a	0	0	0
923.974609375	n/a	REC_WORD	1892300	wordpools/wasnorm_wordpool_576.txt	LTP341	ltpFR2	7	3	TART	1436	n/a	n/a	0	0	0
924.6806640625	n/a	REC_WORD	1893746	wordpools/wasnorm_wordpool_576.txt	LTP341	ltpFR2	7	3	SODA	1341	n/a	n/a	0	0	0
931.08935546875	n/a	REC_WORD	1906871	wordpools/wasnorm_wordpool_576.txt	LTP341	ltpFR2	7	3	FREEZER	604	n/a	n/a	0	0	0
932.22021484375	n/a	REC_WORD	1909187	wordpools/wasnorm_wordpool_576.txt	LTP341	ltpFR2	7	3	DRAWING	494	n/a	n/a	0	0	0
934.1875	n/a	REC_WORD	1913216	wordpools/wasnorm_wordpool_576.txt	LTP341	ltpFR2	7	3	CHIPMUNK	304	n/a	n/a	0	0	0
935.111328125	n/a	REC_WORD	1915108	wordpools/wasnorm_wordpool_576.txt	LTP341	ltpFR2	7	3	POSSUM	1112	n/a	n/a	0	0	0
1004.6865234375	n/a	DISTRACTOR	2057598	n/a	LTP341	ltpFR2	7	4	n/a	n/a	n/a	n/a	0	0	0
1004.6865234375	n/a	START	2057598	n/a	LTP341	ltpFR2	7	n/a	n/a	n/a	7	n/a	n/a	n/a	n/a
1004.70361328125	n/a	PROB	2057633	n/a	LTP341	ltpFR2	7	n/a	n/a	n/a	7	11	8	1	2
1006.28515625	n/a	PROB	2060872	n/a	LTP341	ltpFR2	7	n/a	n/a	n/a	7	17	7	5	5
1007.50146484375	n/a	PROB	2063363	n/a	LTP341	ltpFR2	7	n/a	n/a	n/a	7	20	3	9	8
1008.7353515625	n/a	PROB	2065890	n/a	LTP341	ltpFR2	7	n/a	n/a	n/a	7	7	3	1	3
1009.8173828125	n/a	PROB	2068106	n/a	LTP341	ltpFR2	7	n/a	n/a	n/a	7	14	6	7	1
1010.85009765625	n/a	PROB	2070221	n/a	LTP341	ltpFR2	7	n/a	n/a	n/a	7	10	7	2	1
1011.75	n/a	PROB	2072064	n/a	LTP341	ltpFR2	7	n/a	n/a	n/a	7	13	5	6	2
1013.26513671875	n/a	PROB	2075167	n/a	LTP341	ltpFR2	7	n/a	n/a	n/a	7	9	3	1	5
1014.81494140625	n/a	PROB	2078341	n/a	LTP341	ltpFR2	7	n/a	n/a	n/a	7	17	2	8	7
1015.98095703125	n/a	PROB	2080729	n/a	LTP341	ltpFR2	7	n/a	n/a	n/a	7	23	9	6	8
1017.5302734375	n/a	PROB	2083902	n/a	LTP341	ltpFR2	7	n/a	n/a	n/a	7	24	8	7	9
1019.0791015625	n/a	PROB	2087074	n/a	LTP341	ltpFR2	7	n/a	n/a	n/a	7	18	2	7	9
1020.44482421875	n/a	PROB	2089871	n/a	LTP341	ltpFR2	7	n/a	n/a	n/a	7	20	3	9	8
1021.8779296875	n/a	PROB	2092806	n/a	LTP341	ltpFR2	7	n/a	n/a	n/a	7	13	5	2	6
1023.56103515625	n/a	PROB	2096253	n/a	LTP341	ltpFR2	7	n/a	n/a	n/a	7	9	2	2	5
1024.77685546875	n/a	PROB	2098743	n/a	LTP341	ltpFR2	7	n/a	n/a	n/a	7	15	8	2	5
1025.8759765625	n/a	PROB	2100994	n/a	LTP341	ltpFR2	7	n/a	n/a	n/a	7	12	2	2	8
1027.02587890625	n/a	PROB	2103349	n/a	LTP341	ltpFR2	7	n/a	n/a	n/a	7	15	1	7	7
1028.20263671875	n/a	STOP	2105759	n/a	LTP341	ltpFR2	7	n/a	n/a	n/a	7	n/a	n/a	n/a	n/a
1029.52490234375	n/a	WORD	2108467	wordpools/wasnorm_wordpool_576.txt	LTP341	ltpFR2	7	4	CLOTHES	327	n/a	n/a	0	0	0
1032.056640625	n/a	WORD	2113652	wordpools/wasnorm_wordpool_576.txt	LTP341	ltpFR2	7	4	DRILL	497	n/a	n/a	0	0	0
1034.72265625	n/a	WORD	2119112	wordpools/wasnorm_wordpool_576.txt	LTP341	ltpFR2	7	4	LUMBER	848	n/a	n/a	0	0	0
1037.470703125	n/a	WORD	2124740	wordpools/wasnorm_wordpool_576.txt	LTP341	ltpFR2	7	4	LASER	801	n/a	n/a	0	0	0
1040.2197265625	n/a	WORD	2130370	wordpools/wasnorm_wordpool_576.txt	LTP341	ltpFR2	7	4	SUPPER	1411	n/a	n/a	0	0	0
1042.818359375	n/a	WORD	2135692	wordpools/wasnorm_wordpool_576.txt	LTP341	ltpFR2	7	4	PARENT	1013	n/a	n/a	0	0	0
1045.58349609375	n/a	WORD	2141355	wordpools/wasnorm_wordpool_576.txt	LTP341	ltpFR2	7	4	PANTHER	1009	n/a	n/a	0	0	0
1048.01513671875	n/a	WORD	2146335	wordpools/wasnorm_wordpool_576.txt	LTP341	ltpFR2	7	4	QUARTER	1148	n/a	n/a	0	0	0
1050.54736328125	n/a	WORD	2151521	wordpools/wasnorm_wordpool_576.txt	LTP341	ltpFR2	7	4	EXPERT	543	n/a	n/a	0	0	0
1053.11328125	n/a	WORD	2156776	wordpools/wasnorm_wordpool_576.txt	LTP341	ltpFR2	7	4	WAITRESS	1581	n/a	n/a	0	0	0
1055.81201171875	n/a	WORD	2162303	wordpools/wasnorm_wordpool_576.txt	LTP341	ltpFR2	7	4	STICKER	1382	n/a	n/a	0	0	0
1058.5771484375	n/a	WORD	2167966	wordpools/wasnorm_wordpool_576.txt	LTP341	ltpFR2	7	4	HORSE	719	n/a	n/a	0	0	0
1061.15869140625	n/a	WORD	2173253	wordpools/wasnorm_wordpool_576.txt	LTP341	ltpFR2	7	4	MONSTER	912	n/a	n/a	0	0	0
1063.90771484375	n/a	WORD	2178883	wordpools/wasnorm_wordpool_576.txt	LTP341	ltpFR2	7	4	FUNGUS	614	n/a	n/a	0	0	0
1066.65673828125	n/a	WORD	2184513	wordpools/wasnorm_wordpool_576.txt	LTP341	ltpFR2	7	4	HOOK	715	n/a	n/a	0	0	0
1069.40576171875	n/a	WORD	2190143	wordpools/wasnorm_wordpool_576.txt	LTP341	ltpFR2	7	4	LUNCH	849	n/a	n/a	0	0	0
1072.07080078125	n/a	WORD	2195601	wordpools/wasnorm_wordpool_576.txt	LTP341	ltpFR2	7	4	BALLOON	75	n/a	n/a	0	0	0
1074.83544921875	n/a	WORD	2201263	wordpools/wasnorm_wordpool_576.txt	LTP341	ltpFR2	7	4	OZONE	996	n/a	n/a	0	0	0
1077.41845703125	n/a	WORD	2206553	wordpools/wasnorm_wordpool_576.txt	LTP341	ltpFR2	7	4	BADGE	68	n/a	n/a	0	0	0
1080.16650390625	n/a	WORD	2212181	wordpools/wasnorm_wordpool_576.txt	LTP341	ltpFR2	7	4	PATROL	1027	n/a	n/a	0	0	0
1082.88232421875	n/a	WORD	2217743	wordpools/wasnorm_wordpool_576.txt	LTP341	ltpFR2	7	4	PERMIT	1051	n/a	n/a	0	0	0
1085.68115234375	n/a	WORD	2223475	wordpools/wasnorm_wordpool_576.txt	LTP341	ltpFR2	7	4	CARROT	249	n/a	n/a	0	0	0
1088.1630859375	n/a	WORD	2228558	wordpools/wasnorm_wordpool_576.txt	LTP341	ltpFR2	7	4	PARSLEY	1016	n/a	n/a	0	0	0
1090.662109375	n/a	WORD	2233676	wordpools/wasnorm_wordpool_576.txt	LTP341	ltpFR2	7	4	YOLK	1633	n/a	n/a	0	0	0
1092.2783203125	n/a	START	2236986	n/a	LTP341	ltpFR2	7	n/a	n/a	n/a	8	n/a	n/a	n/a	n/a
1093.12890625	n/a	DISTRACTOR	2238728	n/a	LTP341	ltpFR2	7	4	n/a	n/a	n/a	n/a	0	0	0
1093.14404296875	n/a	PROB	2238759	n/a	LTP341	ltpFR2	7	n/a	n/a	n/a	8	20	4	5	8
1095.09326171875	n/a	PROB	2242751	n/a	LTP341	ltpFR2	7	n/a	n/a	n/a	8	16	4	5	7
1096.89208984375	n/a	PROB	2246435	n/a	LTP341	ltpFR2	7	n/a	n/a	n/a	8	19	3	7	9
1097.9580078125	n/a	PROB	2248618	n/a	LTP341	ltpFR2	7	n/a	n/a	n/a	8	1	8	5	7
1099.02392578125	n/a	PROB	2250801	n/a	LTP341	ltpFR2	7	n/a	n/a	n/a	8	23	9	5	9
1101.373046875	n/a	PROB	2255612	n/a	LTP341	ltpFR2	7	n/a	n/a	n/a	8	18	9	5	4
1102.8388671875	n/a	PROB	2258614	n/a	LTP341	ltpFR2	7	n/a	n/a	n/a	8	19	9	5	5
1104.43896484375	n/a	PROB	2261891	n/a	LTP341	ltpFR2	7	n/a	n/a	n/a	8	11	3	2	6
1106.32080078125	n/a	PROB	2265745	n/a	LTP341	ltpFR2	7	n/a	n/a	n/a	8	16	2	5	9
1108.8525390625	n/a	PROB	2270930	n/a	LTP341	ltpFR2	7	n/a	n/a	n/a	8	15	5	2	8
1110.11865234375	n/a	PROB	2273523	n/a	LTP341	ltpFR2	7	n/a	n/a	n/a	8	13	2	7	4
1111.36865234375	n/a	PROB	2276083	n/a	LTP341	ltpFR2	7	n/a	n/a	n/a	8	4	2	1	1
1112.36767578125	n/a	PROB	2278129	n/a	LTP341	ltpFR2	7	n/a	n/a	n/a	8	13	8	1	4
1113.83349609375	n/a	PROB	2281131	n/a	LTP341	ltpFR2	7	n/a	n/a	n/a	8	11	6	2	3
1115.099609375	n/a	STOP	2283724	n/a	LTP341	ltpFR2	7	n/a	n/a	n/a	8	n/a	n/a	n/a	n/a
1118.0654296875	n/a	REC_START	2289798	n/a	LTP341	ltpFR2	7	4	n/a	n/a	n/a	n/a	0	0	0
1118.4775390625	n/a	REC_WORD	2290642	wordpools/wasnorm_wordpool_576.txt	LTP341	ltpFR2	7	4	PATROL	1027	n/a	n/a	0	0	0
1119.12646484375	n/a	REC_WORD	2291971	wordpools/wasnorm_wordpool_576.txt	LTP341	ltpFR2	7	4	PARSLEY	1016	n/a	n/a	0	0	0
1121.02734375	n/a	REC_WORD	2295864	wordpools/wasnorm_wordpool_576.txt	LTP341	ltpFR2	7	4	CARROT	249	n/a	n/a	0	0	0
1123.2861328125	n/a	REC_WORD	2300490	wordpools/wasnorm_wordpool_576.txt	LTP341	ltpFR2	7	4	CLOTHES	327	n/a	n/a	0	0	0
1124.04638671875	n/a	REC_WORD	2302047	wordpools/wasnorm_wordpool_576.txt	LTP341	ltpFR2	7	4	LUMBER	848	n/a	n/a	0	0	0
1130.6142578125	n/a	REC_WORD	2315498	wordpools/wasnorm_wordpool_576.txt	LTP341	ltpFR2	7	4	PARENT	1013	n/a	n/a	0	0	0
1131.05322265625	n/a	REC_WORD	2316397	wordpools/wasnorm_wordpool_576.txt	LTP341	ltpFR2	7	4	SUPPER	1411	n/a	n/a	0	0	0
1131.6279296875	n/a	REC_WORD	2317574	wordpools/wasnorm_wordpool_576.txt	LTP341	ltpFR2	7	4	LUNCH	849	n/a	n/a	0	0	0
1133.15283203125	n/a	REC_WORD	2320697	wordpools/wasnorm_wordpool_576.txt	LTP341	ltpFR2	7	4	WAITRESS	1581	n/a	n/a	0	0	0
1134.0009765625	n/a	REC_WORD	2322434	wordpools/wasnorm_wordpool_576.txt	LTP341	ltpFR2	7	4	HOOK	715	n/a	n/a	0	0	0
1190.392578125	n/a	REC_WORD	2437924	wordpools/wasnorm_wordpool_576.txt	LTP341	ltpFR2	7	4	DRILL	497	n/a	n/a	0	0	0
1208.48779296875	n/a	DISTRACTOR	2474983	n/a	LTP341	ltpFR2	7	5	n/a	n/a	n/a	n/a	0	0	0
1208.4892578125	n/a	START	2474986	n/a	LTP341	ltpFR2	7	n/a	n/a	n/a	9	n/a	n/a	n/a	n/a
1208.5048828125	n/a	PROB	2475018	n/a	LTP341	ltpFR2	7	n/a	n/a	n/a	9	14	3	2	9
1210.0380859375	n/a	PROB	2478158	n/a	LTP341	ltpFR2	7	n/a	n/a	n/a	9	13	1	6	6
1211.40380859375	n/a	PROB	2480955	n/a	LTP341	ltpFR2	7	n/a	n/a	n/a	9	15	6	3	6
1213.18603515625	n/a	PROB	2484605	n/a	LTP341	ltpFR2	7	n/a	n/a	n/a	9	14	1	6	7
1214.36865234375	n/a	PROB	2487027	n/a	LTP341	ltpFR2	7	n/a	n/a	n/a	9	12	5	6	1
1215.31884765625	n/a	PROB	2488973	n/a	LTP341	ltpFR2	7	n/a	n/a	n/a	9	11	5	2	4
1216.8505859375	n/a	PROB	2492110	n/a	LTP341	ltpFR2	7	n/a	n/a	n/a	9	15	6	4	5
1218.11669921875	n/a	PROB	2494703	n/a	LTP341	ltpFR2	7	n/a	n/a	n/a	9	19	8	2	9
1219.216796875	n/a	PROB	2496956	n/a	LTP341	ltpFR2	7	n/a	n/a	n/a	9	17	7	1	9
1220.716796875	n/a	PROB	2500028	n/a	LTP341	ltpFR2	7	n/a	n/a	n/a	9	15	9	2	4
1222.19873046875	n/a	PROB	2503063	n/a	LTP341	ltpFR2	7	n/a	n/a	n/a	9	14	2	7	5
1224.59765625	n/a	PROB	2507976	n/a	LTP341	ltpFR2	7	n/a	n/a	n/a	9	12	4	6	2
1225.7314453125	n/a	PROB	2510298	n/a	LTP341	ltpFR2	7	n/a	n/a	n/a	9	12	3	2	7
1226.9296875	n/a	PROB	2512752	n/a	LTP341	ltpFR2	7	n/a	n/a	n/a	9	22	6	9	7
1228.6953125	n/a	PROB	2516368	n/a	LTP341	ltpFR2	7	n/a	n/a	n/a	9	16	6	2	8
1229.91162109375	n/a	PROB	2518859	n/a	LTP341	ltpFR2	7	n/a	n/a	n/a	9	15	6	4	5
1231.25146484375	n/a	STOP	2521603	n/a	LTP341	ltpFR2	7	n/a	n/a	n/a	9	n/a	n/a	n/a	n/a
1233.42626953125	n/a	WORD	2526057	wordpools/wasnorm_wordpool_576.txt	LTP341	ltpFR2	7	5	BOYFRIEND	162	n/a	n/a	0	0	0
1236.22509765625	n/a	WORD	2531789	wordpools/wasnorm_wordpool_576.txt	LTP341	ltpFR2	7	5	CANYON	235	n/a	n/a	0	0	0
1239.00732421875	n/a	WORD	2537487	wordpools/wasnorm_wordpool_576.txt	LTP341	ltpFR2	7	5	CREVICE	405	n/a	n/a	0	0	0
1241.740234375	n/a	WORD	2543084	wordpools/wasnorm_wordpool_576.txt	LTP341	ltpFR2	7	5	QUAIL	1147	n/a	n/a	0	0	0
1244.50390625	n/a	WORD	2548744	wordpools/wasnorm_wordpool_576.txt	LTP341	ltpFR2	7	5	HEADBAND	696	n/a	n/a	0	0	0
1247.05322265625	n/a	WORD	2553965	wordpools/wasnorm_wordpool_576.txt	LTP341	ltpFR2	7	5	SALAD	1224	n/a	n/a	0	0	0
1249.85205078125	n/a	WORD	2559697	wordpools/wasnorm_wordpool_576.txt	LTP341	ltpFR2	7	5	RABBIT	1152	n/a	n/a	0	0	0
1252.61669921875	n/a	WORD	2565359	wordpools/wasnorm_wordpool_576.txt	LTP341	ltpFR2	7	5	BUNNY	198	n/a	n/a	0	0	0
1255.28271484375	n/a	WORD	2570819	wordpools/wasnorm_wordpool_576.txt	LTP341	ltpFR2	7	5	GLASS	639	n/a	n/a	0	0	0
1257.96484375	n/a	WORD	2576312	wordpools/wasnorm_wordpool_576.txt	LTP341	ltpFR2	7	5	CURTAIN	427	n/a	n/a	0	0	0
1260.646484375	n/a	WORD	2581804	wordpools/wasnorm_wordpool_576.txt	LTP341	ltpFR2	7	5	BLENDER	136	n/a	n/a	0	0	0
1263.1455078125	n/a	WORD	2586922	wordpools/wasnorm_wordpool_576.txt	LTP341	ltpFR2	7	5	IGLOO	734	n/a	n/a	0	0	0
1265.66064453125	n/a	WORD	2592073	wordpools/wasnorm_wordpool_576.txt	LTP341	ltpFR2	7	5	BARREL	91	n/a	n/a	0	0	0
1268.2763671875	n/a	WORD	2597430	wordpools/wasnorm_wordpool_576.txt	LTP341	ltpFR2	7	5	KIDNEY	776	n/a	n/a	0	0	0
1271.09130859375	n/a	WORD	2603195	wordpools/wasnorm_wordpool_576.txt	LTP341	ltpFR2	7	5	LOVER	846	n/a	n/a	0	0	0
1273.75830078125	n/a	WORD	2608657	wordpools/wasnorm_wordpool_576.txt	LTP341	ltpFR2	7	5	GRAPE	654	n/a	n/a	0	0	0
1276.2890625	n/a	WORD	2613840	wordpools/wasnorm_wordpool_576.txt	LTP341	ltpFR2	7	5	THIEF	1456	n/a	n/a	0	0	0
1278.72216796875	n/a	WORD	2618823	wordpools/wasnorm_wordpool_576.txt	LTP341	ltpFR2	7	5	VIRUS	1572	n/a	n/a	0	0	0
1281.1533203125	n/a	WORD	2623802	wordpools/wasnorm_wordpool_576.txt	LTP341	ltpFR2	7	5	MARKET	871	n/a	n/a	0	0	0
1283.619140625	n/a	WORD	2628852	wordpools/wasnorm_wordpool_576.txt	LTP341	ltpFR2	7	5	FIDDLE	561	n/a	n/a	0	0	0
1286.35107421875	n/a	WORD	2634447	wordpools/wasnorm_wordpool_576.txt	LTP341	ltpFR2	7	5	BRAKE	166	n/a	n/a	0	0	0
1288.81689453125	n/a	WORD	2639497	wordpools/wasnorm_wordpool_576.txt	LTP341	ltpFR2	7	5	NIGHTGOWN	953	n/a	n/a	0	0	0
1291.5146484375	n/a	WORD	2645022	wordpools/wasnorm_wordpool_576.txt	LTP341	ltpFR2	7	5	HORNET	718	n/a	n/a	0	0	0
1294.06396484375	n/a	WORD	2650243	wordpools/wasnorm_wordpool_576.txt	LTP341	ltpFR2	7	5	STONE	1385	n/a	n/a	0	0	0
1295.6796875	n/a	START	2653552	n/a	LTP341	ltpFR2	7	n/a	n/a	n/a	10	n/a	n/a	n/a	n/a
1296.84375	n/a	DISTRACTOR	2655936	n/a	LTP341	ltpFR2	7	5	n/a	n/a	n/a	n/a	0	0	0
1296.845703125	n/a	PROB	2655940	n/a	LTP341	ltpFR2	7	n/a	n/a	n/a	10	20	7	5	8
1298.595703125	n/a	PROB	2659524	n/a	LTP341	ltpFR2	7	n/a	n/a	n/a	10	15	4	5	6
1300.04443359375	n/a	PROB	2662491	n/a	LTP341	ltpFR2	7	n/a	n/a	n/a	10	11	2	6	3
1301.310546875	n/a	PROB	2665084	n/a	LTP341	ltpFR2	7	n/a	n/a	n/a	10	20	6	9	5
1302.6767578125	n/a	PROB	2667882	n/a	LTP341	ltpFR2	7	n/a	n/a	n/a	10	20	8	7	5
1304.142578125	n/a	PROB	2670884	n/a	LTP341	ltpFR2	7	n/a	n/a	n/a	10	15	7	6	2
1305.49169921875	n/a	PROB	2673647	n/a	LTP341	ltpFR2	7	n/a	n/a	n/a	10	10	6	2	2
1306.37451171875	n/a	PROB	2675455	n/a	LTP341	ltpFR2	7	n/a	n/a	n/a	10	22	8	6	8
1307.9072265625	n/a	PROB	2678594	n/a	LTP341	ltpFR2	7	n/a	n/a	n/a	10	9	1	7	1
1309.00634765625	n/a	PROB	2680845	n/a	LTP341	ltpFR2	7	n/a	n/a	n/a	10	18	3	6	9
1310.33935546875	n/a	PROB	2683575	n/a	LTP341	ltpFR2	7	n/a	n/a	n/a	10	23	5	9	9
1311.822265625	n/a	PROB	2686612	n/a	LTP341	ltpFR2	7	n/a	n/a	n/a	10	10	2	2	6
1313.021484375	n/a	PROB	2689068	n/a	LTP341	ltpFR2	7	n/a	n/a	n/a	10	14	2	7	5
1315.10400390625	n/a	PROB	2693333	n/a	LTP341	ltpFR2	7	n/a	n/a	n/a	10	11	1	9	2
1316.13720703125	n/a	PROB	2695449	n/a	LTP341	ltpFR2	7	n/a	n/a	n/a	10	14	7	5	2
1317.703125	n/a	PROB	2698656	n/a	LTP341	ltpFR2	7	n/a	n/a	n/a	10	16	7	3	6
1318.97998046875	n/a	STOP	2701271	n/a	LTP341	ltpFR2	7	n/a	n/a	n/a	10	n/a	n/a	n/a	n/a
1321.51806640625	n/a	REC_START	2706469	n/a	LTP341	ltpFR2	7	5	n/a	n/a	n/a	n/a	0	0	0
1321.61181640625	n/a	REC_WORD	2706661	wordpools/wasnorm_wordpool_576.txt	LTP341	ltpFR2	7	5	VIRUS	1572	n/a	n/a	0	0	0
1322.27197265625	n/a	REC_WORD	2708013	wordpools/wasnorm_wordpool_576.txt	LTP341	ltpFR2	7	5	MARKET	871	n/a	n/a	0	0	0
1322.7939453125	n/a	REC_WORD	2709082	wordpools/wasnorm_wordpool_576.txt	LTP341	ltpFR2	7	5	FIDDLE	561	n/a	n/a	0	0	0
1323.22412109375	n/a	REC_WORD	2709963	wordpools/wasnorm_wordpool_576.txt	LTP341	ltpFR2	7	5	HORNET	718	n/a	n/a	0	0	0
1323.81787109375	n/a	REC_WORD	2711179	wordpools/wasnorm_wordpool_576.txt	LTP341	ltpFR2	7	5	STONE	1385	n/a	n/a	0	0	0
1326.5810546875	n/a	REC_WORD	2716838	wordpools/wasnorm_wordpool_576.txt	LTP341	ltpFR2	7	5	BOYFRIEND	162	n/a	n/a	0	0	0
1327.2158203125	n/a	REC_WORD	2718138	wordpools/wasnorm_wordpool_576.txt	LTP341	ltpFR2	7	5	LOVER	846	n/a	n/a	0	0	0
1327.85205078125	n/a	REC_WORD	2719441	wordpools/wasnorm_wordpool_576.txt	LTP341	ltpFR2	7	5	CANYON	235	n/a	n/a	0	0	0
1328.62109375	n/a	REC_WORD	2721016	wordpools/wasnorm_wordpool_576.txt	LTP341	ltpFR2	7	5	CREVICE	405	n/a	n/a	0	0	0
1330.7109375	n/a	REC_WORD	2725296	wordpools/wasnorm_wordpool_576.txt	LTP341	ltpFR2	7	5	GRAPE	654	n/a	n/a	0	0	0
1331.19873046875	n/a	REC_WORD	2726295	wordpools/wasnorm_wordpool_576.txt	LTP341	ltpFR2	7	5	SALAD	1224	n/a	n/a	0	0	0
1332.23388671875	n/a	REC_WORD	2728415	wordpools/wasnorm_wordpool_576.txt	LTP341	ltpFR2	7	5	BUNNY	198	n/a	n/a	0	0	0
1332.78857421875	n/a	REC_WORD	2729551	wordpools/wasnorm_wordpool_576.txt	LTP341	ltpFR2	7	5	RABBIT	1152	n/a	n/a	0	0	0
1334.48388671875	n/a	REC_WORD	2733023	wordpools/wasnorm_wordpool_576.txt	LTP341	ltpFR2	7	5	GLASS	639	n/a	n/a	0	0	0
1335.28759765625	n/a	REC_WORD	2734669	wordpools/wasnorm_wordpool_576.txt	LTP341	ltpFR2	7	5	BLENDER	136	n/a	n/a	0	0	0
1411.95751953125	n/a	WORD	2891689	wordpools/wasnorm_wordpool_576.txt	LTP341	ltpFR2	7	6	WIDOW	1608	n/a	n/a	0	0	0
1414.7724609375	n/a	WORD	2897454	wordpools/wasnorm_wordpool_576.txt	LTP341	ltpFR2	7	6	GRIZZLY	662	n/a	n/a	0	0	0
1417.42138671875	n/a	WORD	2902879	wordpools/wasnorm_wordpool_576.txt	LTP341	ltpFR2	7	6	HELMET	702	n/a	n/a	0	0	0
1420.1533203125	n/a	WORD	2908474	wordpools/wasnorm_wordpool_576.txt	LTP341	ltpFR2	7	6	UMPIRE	1535	n/a	n/a	0	0	0
1422.818359375	n/a	WORD	2913932	wordpools/wasnorm_wordpool_576.txt	LTP341	ltpFR2	7	6	MARSH	874	n/a	n/a	0	0	0
1425.50146484375	n/a	WORD	2919427	wordpools/wasnorm_wordpool_576.txt	LTP341	ltpFR2	7	6	PORTRAIT	1111	n/a	n/a	0	0	0
1428.2490234375	n/a	WORD	2925054	wordpools/wasnorm_wordpool_576.txt	LTP341	ltpFR2	7	6	PICTURE	1061	n/a	n/a	0	0	0
1430.865234375	n/a	WORD	2930412	wordpools/wasnorm_wordpool_576.txt	LTP341	ltpFR2	7	6	STAKE	1368	n/a	n/a	0	0	0
1433.3642578125	n/a	WORD	2935530	wordpools/wasnorm_wordpool_576.txt	LTP341	ltpFR2	7	6	LAGOON	795	n/a	n/a	0	0	0
1435.99609375	n/a	WORD	2940920	wordpools/wasnorm_wordpool_576.txt	LTP341	ltpFR2	7	6	KITCHEN	778	n/a	n/a	0	0	0
1438.52783203125	n/a	WORD	2946105	wordpools/wasnorm_wordpool_576.txt	LTP341	ltpFR2	7	6	SLIDE	1326	n/a	n/a	0	0	0
1441.126953125	n/a	WORD	2951428	wordpools/wasnorm_wordpool_576.txt	LTP341	ltpFR2	7	6	AIRPLANE	12	n/a	n/a	0	0	0
1443.6259765625	n/a	WORD	2956546	wordpools/wasnorm_wordpool_576.txt	LTP341	ltpFR2	7	6	WIFE	1609	n/a	n/a	0	0	0
1446.12353515625	n/a	WORD	2961661	wordpools/wasnorm_wordpool_576.txt	LTP341	ltpFR2	7	6	ULCER	1533	n/a	n/a	0	0	0
1448.87255859375	n/a	WORD	2967291	wordpools/wasnorm_wordpool_576.txt	LTP341	ltpFR2	7	6	BIKE	125	n/a	n/a	0	0	0
1451.53857421875	n/a	WORD	2972751	wordpools/wasnorm_wordpool_576.txt	LTP341	ltpFR2	7	6	COUNTY	389	n/a	n/a	0	0	0
1454.236328125	n/a	WORD	2978276	wordpools/wasnorm_wordpool_576.txt	LTP341	ltpFR2	7	6	COUNTRY	388	n/a	n/a	0	0	0
1456.70361328125	n/a	WORD	2983329	wordpools/wasnorm_wordpool_576.txt	LTP341	ltpFR2	7	6	SCRIBBLE	1256	n/a	n/a	0	0	0
1459.13427734375	n/a	WORD	2988307	wordpools/wasnorm_wordpool_576.txt	LTP341	ltpFR2	7	6	PUDDING	1139	n/a	n/a	0	0	0
1461.9501953125	n/a	WORD	2994074	wordpools/wasnorm_wordpool_576.txt	LTP341	ltpFR2	7	6	DANDRUFF	439	n/a	n/a	0	0	0
1464.498046875	n/a	WORD	2999292	wordpools/wasnorm_wordpool_576.txt	LTP341	ltpFR2	7	6	HEART	697	n/a	n/a	0	0	0
1467.26416015625	n/a	WORD	3004957	wordpools/wasnorm_wordpool_576.txt	LTP341	ltpFR2	7	6	GRAVEL	659	n/a	n/a	0	0	0
1469.7958984375	n/a	WORD	3010142	wordpools/wasnorm_wordpool_576.txt	LTP341	ltpFR2	7	6	NURSE	963	n/a	n/a	0	0	0
1472.4111328125	n/a	WORD	3015498	wordpools/wasnorm_wordpool_576.txt	LTP341	ltpFR2	7	6	HAMPER	682	n/a	n/a	0	0	0
1474.02783203125	n/a	START	3018809	n/a	LTP341	ltpFR2	7	n/a	n/a	n/a	11	n/a	n/a	n/a	n/a
1475.10400390625	n/a	DISTRACTOR	3021013	n/a	LTP341	ltpFR2	7	6	n/a	n/a	n/a	n/a	0	0	0
1475.10986328125	n/a	PROB	3021025	n/a	LTP341	ltpFR2	7	n/a	n/a	n/a	11	23	8	6	9
1477.7919921875	n/a	PROB	3026518	n/a	LTP341	ltpFR2	7	n/a	n/a	n/a	11	12	2	8	2
1479.14208984375	n/a	PROB	3029283	n/a	LTP341	ltpFR2	7	n/a	n/a	n/a	11	10	6	1	3
1480.3408203125	n/a	PROB	3031738	n/a	LTP341	ltpFR2	7	n/a	n/a	n/a	11	9	2	2	3
1482.423828125	n/a	PROB	3036004	n/a	LTP341	ltpFR2	7	n/a	n/a	n/a	11	20	4	7	9
1483.9228515625	n/a	PROB	3039074	n/a	LTP341	ltpFR2	7	n/a	n/a	n/a	11	16	2	8	6
1485.12158203125	n/a	PROB	3041529	n/a	LTP341	ltpFR2	7	n/a	n/a	n/a	11	14	3	8	3
1486.755859375	n/a	PROB	3044876	n/a	LTP341	ltpFR2	7	n/a	n/a	n/a	11	22	7	7	8
1491.45263671875	n/a	PROB	3054495	n/a	LTP341	ltpFR2	7	n/a	n/a	n/a	11	13	8	1	5
1492.5185546875	n/a	PROB	3056678	n/a	LTP341	ltpFR2	7	n/a	n/a	n/a	11	19	4	9	5
1494.16748046875	n/a	PROB	3060055	n/a	LTP341	ltpFR2	7	n/a	n/a	n/a	11	22	7	8	7
1496.38330078125	n/a	PROB	3064593	n/a	LTP341	ltpFR2	7	n/a	n/a	n/a	11	21	8	4	9
1497.6123046875	n/a	STOP	3067110	n/a	LTP341	ltpFR2	7	n/a	n/a	n/a	11	n/a	n/a	n/a	n/a
1499.96533203125	n/a	REC_START	3071929	n/a	LTP341	ltpFR2	7	6	n/a	n/a	n/a	n/a	0	0	0
1500.271484375	n/a	REC_WORD	3072556	wordpools/wasnorm_wordpool_576.txt	LTP341	ltpFR2	7	6	SCRIBBLE	1256	n/a	n/a	0	0	0
1500.8642578125	n/a	REC_WORD	3073770	wordpools/wasnorm_wordpool_576.txt	LTP341	ltpFR2	7	6	PUDDING	1139	n/a	n/a	0	0	0
1501.29150390625	n/a	REC_WORD	3074645	wordpools/wasnorm_wordpool_576.txt	LTP341	ltpFR2	7	6	DANDRUFF	439	n/a	n/a	0	0	0
1501.8134765625	n/a	REC_WORD	3075714	wordpools/wasnorm_wordpool_576.txt	LTP341	ltpFR2	7	6	NURSE	963	n/a	n/a	0	0	0
1503.91015625	n/a	REC_WORD	3080008	wordpools/wasnorm_wordpool_576.txt	LTP341	ltpFR2	7	6	GAVEL	627	n/a	n/a	0	0	0
1506.2890625	n/a	REC_WORD	3084880	wordpools/wasnorm_wordpool_576.txt	LTP341	ltpFR2	7	6	WIDOW	1608	n/a	n/a	0	0	0
1507.30810546875	n/a	REC_WORD	3086967	wordpools/wasnorm_wordpool_576.txt	LTP341	ltpFR2	7	6	WIFE	1609	n/a	n/a	0	0	0
1507.7421875	n/a	REC_WORD	3087856	wordpools/wasnorm_wordpool_576.txt	LTP341	ltpFR2	7	6	HELMET	702	n/a	n/a	0	0	0
1509.21923828125	n/a	REC_WORD	3090881	wordpools/wasnorm_wordpool_576.txt	LTP341	ltpFR2	7	6	CRITIC	410	n/a	n/a	0	0	0
1510.369140625	n/a	REC_WORD	3093236	wordpools/wasnorm_wordpool_576.txt	LTP341	ltpFR2	7	6	MARSH	874	n/a	n/a	0	0	0
1514.44677734375	n/a	REC_WORD	3101587	wordpools/wasnorm_wordpool_576.txt	LTP341	ltpFR2	7	6	AIRPLANE	12	n/a	n/a	0	0	0
1528.0908203125	n/a	REC_WORD	3129530	wordpools/wasnorm_wordpool_576.txt	LTP341	ltpFR2	7	6	DRAWING	494	n/a	n/a	0	0	0
1528.5986328125	n/a	REC_WORD	3130570	wordpools/wasnorm_wordpool_576.txt	LTP341	ltpFR2	7	6	PICTURE	1061	n/a	n/a	0	0	0
1531.3603515625	n/a	REC_WORD_VV	3136226	wordpools/wasnorm_wordpool_576.txt	LTP341	ltpFR2	7	6	<>	-1	n/a	n/a	0	0	0
1533.4375	n/a	REC_WORD	3140480	wordpools/wasnorm_wordpool_576.txt	LTP341	ltpFR2	7	6	PICTURE	1061	n/a	n/a	0	0	0
1533.857421875	n/a	REC_WORD	3141340	wordpools/wasnorm_wordpool_576.txt	LTP341	ltpFR2	7	6	PORTRAIT	1111	n/a	n/a	0	0	0
1590.40478515625	n/a	DISTRACTOR	3257149	n/a	LTP341	ltpFR2	7	7	n/a	n/a	n/a	n/a	0	0	0
1590.40478515625	n/a	START	3257149	n/a	LTP341	ltpFR2	7	n/a	n/a	n/a	12	n/a	n/a	n/a	n/a
1590.4208984375	n/a	PROB	3257182	n/a	LTP341	ltpFR2	7	n/a	n/a	n/a	12	14	1	5	8
1592.4208984375	n/a	PROB	3261278	n/a	LTP341	ltpFR2	7	n/a	n/a	n/a	12	10	1	6	3
1593.419921875	n/a	PROB	3263324	n/a	LTP341	ltpFR2	7	n/a	n/a	n/a	12	19	6	8	5
1595.43603515625	n/a	PROB	3267453	n/a	LTP341	ltpFR2	7	n/a	n/a	n/a	12	10	3	3	4
1596.31884765625	n/a	PROB	3269261	n/a	LTP341	ltpFR2	7	n/a	n/a	n/a	12	21	4	9	8
1597.78466796875	n/a	PROB	3272263	n/a	LTP341	ltpFR2	7	n/a	n/a	n/a	12	24	9	9	6
1600.05078125	n/a	PROB	3276904	n/a	LTP341	ltpFR2	7	n/a	n/a	n/a	12	13	2	2	9
1601.70068359375	n/a	PROB	3280283	n/a	LTP341	ltpFR2	7	n/a	n/a	n/a	12	19	7	7	5
1603.0986328125	n/a	PROB	3283146	n/a	LTP341	ltpFR2	7	n/a	n/a	n/a	12	19	6	5	8
1604.33154296875	n/a	PROB	3285671	n/a	LTP341	ltpFR2	7	n/a	n/a	n/a	12	18	3	7	8
1605.5146484375	n/a	PROB	3288094	n/a	LTP341	ltpFR2	7	n/a	n/a	n/a	12	15	6	5	4
1607.513671875	n/a	PROB	3292188	n/a	LTP341	ltpFR2	7	n/a	n/a	n/a	12	14	5	4	4
1609.73046875	n/a	PROB	3296728	n/a	LTP341	ltpFR2	7	n/a	n/a	n/a	12	14	1	7	6
1610.8955078125	n/a	PROB	3299114	n/a	LTP341	ltpFR2	7	n/a	n/a	n/a	12	19	9	2	8
1612.728515625	n/a	PROB	3302868	n/a	LTP341	ltpFR2	7	n/a	n/a	n/a	12	16	5	6	5
1614.0693359375	n/a	STOP	3305614	n/a	LTP341	ltpFR2	7	n/a	n/a	n/a	12	n/a	n/a	n/a	n/a
1615.2431640625	n/a	WORD	3308018	wordpools/wasnorm_wordpool_576.txt	LTP341	ltpFR2	7	7	SHORTS	1293	n/a	n/a	0	0	0
1617.89111328125	n/a	WORD	3313441	wordpools/wasnorm_wordpool_576.txt	LTP341	ltpFR2	7	7	SHIRT	1287	n/a	n/a	0	0	0
1620.34033203125	n/a	WORD	3318457	wordpools/wasnorm_wordpool_576.txt	LTP341	ltpFR2	7	7	SKIRT	1319	n/a	n/a	0	0	0
1622.921875	n/a	WORD	3323744	wordpools/wasnorm_wordpool_576.txt	LTP341	ltpFR2	7	7	TWEEZERS	1526	n/a	n/a	0	0	0
1625.4208984375	n/a	WORD	3328862	wordpools/wasnorm_wordpool_576.txt	LTP341	ltpFR2	7	7	NEUTRON	947	n/a	n/a	0	0	0
1627.93701171875	n/a	WORD	3334015	wordpools/wasnorm_wordpool_576.txt	LTP341	ltpFR2	7	7	VALLEY	1545	n/a	n/a	0	0	0
1630.5859375	n/a	WORD	3339440	wordpools/wasnorm_wordpool_576.txt	LTP341	ltpFR2	7	7	RIVER	1194	n/a	n/a	0	0	0
1633.23388671875	n/a	WORD	3344863	wordpools/wasnorm_wordpool_576.txt	LTP341	ltpFR2	7	7	ORCHID	982	n/a	n/a	0	0	0
1635.6826171875	n/a	WORD	3349878	wordpools/wasnorm_wordpool_576.txt	LTP341	ltpFR2	7	7	SUNRISE	1407	n/a	n/a	0	0	0
1638.2314453125	n/a	WORD	3355098	wordpools/wasnorm_wordpool_576.txt	LTP341	ltpFR2	7	7	JUGGLER	763	n/a	n/a	0	0	0
1641.04638671875	n/a	WORD	3360863	wordpools/wasnorm_wordpool_576.txt	LTP341	ltpFR2	7	7	TUNNEL	1519	n/a	n/a	0	0	0
1643.66259765625	n/a	WORD	3366221	wordpools/wasnorm_wordpool_576.txt	LTP341	ltpFR2	7	7	SUBWAY	1400	n/a	n/a	0	0	0
1646.17822265625	n/a	WORD	3371373	wordpools/wasnorm_wordpool_576.txt	LTP341	ltpFR2	7	7	BLUEPRINT	142	n/a	n/a	0	0	0
1648.744140625	n/a	WORD	3376628	wordpools/wasnorm_wordpool_576.txt	LTP341	ltpFR2	7	7	OUTDOORS	987	n/a	n/a	0	0	0
1651.54248046875	n/a	WORD	3382359	wordpools/wasnorm_wordpool_576.txt	LTP341	ltpFR2	7	7	GAZELLE	628	n/a	n/a	0	0	0
1653.97412109375	n/a	WORD	3387339	wordpools/wasnorm_wordpool_576.txt	LTP341	ltpFR2	7	7	FRIAR	605	n/a	n/a	0	0	0
1656.68896484375	n/a	WORD	3392899	wordpools/wasnorm_wordpool_576.txt	LTP341	ltpFR2	7	7	GARDEN	623	n/a	n/a	0	0	0
1659.455078125	n/a	WORD	3398564	wordpools/wasnorm_wordpool_576.txt	LTP341	ltpFR2	7	7	BRICK	172	n/a	n/a	0	0	0
1662.169921875	n/a	WORD	3404124	wordpools/wasnorm_wordpool_576.txt	LTP341	ltpFR2	7	7	BLACKBOARD	133	n/a	n/a	0	0	0
1664.619140625	n/a	WORD	3409140	wordpools/wasnorm_wordpool_576.txt	LTP341	ltpFR2	7	7	STAR	1373	n/a	n/a	0	0	0
1667.0849609375	n/a	WORD	3414190	wordpools/wasnorm_wordpool_576.txt	LTP341	ltpFR2	7	7	NOVEL	960	n/a	n/a	0	0	0
1669.81689453125	n/a	WORD	3419785	wordpools/wasnorm_wordpool_576.txt	LTP341	ltpFR2	7	7	WASHER	1592	n/a	n/a	0	0	0
1672.515625	n/a	WORD	3425312	wordpools/wasnorm_wordpool_576.txt	LTP341	ltpFR2	7	7	MATCH	878	n/a	n/a	0	0	0
1675.0478515625	n/a	WORD	3430498	wordpools/wasnorm_wordpool_576.txt	LTP341	ltpFR2	7	7	SWORD	1423	n/a	n/a	0	0	0
1676.66357421875	n/a	START	3433807	n/a	LTP341	ltpFR2	7	n/a	n/a	n/a	13	n/a	n/a	n/a	n/a
1677.75341796875	n/a	DISTRACTOR	3436039	n/a	LTP341	ltpFR2	7	7	n/a	n/a	n/a	n/a	0	0	0
1677.7626953125	n/a	PROB	3436058	n/a	LTP341	ltpFR2	7	n/a	n/a	n/a	13	14	4	6	4
1679.4287109375	n/a	PROB	3439470	n/a	LTP341	ltpFR2	7	n/a	n/a	n/a	13	22	8	5	9
1683.84326171875	n/a	PROB	3448511	n/a	LTP341	ltpFR2	7	n/a	n/a	n/a	13	11	1	1	9
1684.859375	n/a	PROB	3450592	n/a	LTP341	ltpFR2	7	n/a	n/a	n/a	13	14	7	3	4
1686.00830078125	n/a	PROB	3452945	n/a	LTP341	ltpFR2	7	n/a	n/a	n/a	13	17	6	3	8
1688.12451171875	n/a	PROB	3457279	n/a	LTP341	ltpFR2	7	n/a	n/a	n/a	13	14	7	5	2
1689.42431640625	n/a	PROB	3459941	n/a	LTP341	ltpFR2	7	n/a	n/a	n/a	13	18	8	6	4
1691.08935546875	n/a	PROB	3463351	n/a	LTP341	ltpFR2	7	n/a	n/a	n/a	13	17	4	9	4
1693.072265625	n/a	PROB	3467412	n/a	LTP341	ltpFR2	7	n/a	n/a	n/a	13	12	1	3	8
1694.30517578125	n/a	PROB	3469937	n/a	LTP341	ltpFR2	7	n/a	n/a	n/a	13	17	5	3	9
1695.73828125	n/a	PROB	3472872	n/a	LTP341	ltpFR2	7	n/a	n/a	n/a	13	9	1	7	1
1696.953125	n/a	PROB	3475360	n/a	LTP341	ltpFR2	7	n/a	n/a	n/a	13	16	8	4	4
1699.01904296875	n/a	PROB	3479591	n/a	LTP341	ltpFR2	7	n/a	n/a	n/a	13	15	5	7	3
1700.55712890625	n/a	STOP	3482741	n/a	LTP341	ltpFR2	7	n/a	n/a	n/a	13	n/a	n/a	n/a	n/a
1702.451171875	n/a	REC_START	3486620	n/a	LTP341	ltpFR2	7	7	n/a	n/a	n/a	n/a	0	0	0
1702.65478515625	n/a	REC_WORD_VV	3487037	wordpools/wasnorm_wordpool_576.txt	LTP341	ltpFR2	7	7	<>	-1	n/a	n/a	0	0	0
1703.2490234375	n/a	REC_WORD	3488254	wordpools/wasnorm_wordpool_576.txt	LTP341	ltpFR2	7	7	STAR	1373	n/a	n/a	0	0	0
1703.9599609375	n/a	REC_WORD	3489710	wordpools/wasnorm_wordpool_576.txt	LTP341	ltpFR2	7	7	NOVEL	960	n/a	n/a	0	0	0
1706.1279296875	n/a	REC_WORD	3494150	wordpools/wasnorm_wordpool_576.txt	LTP341	ltpFR2	7	7	SWORD	1423	n/a	n/a	0	0	0
1725.48828125	n/a	REC_WORD	3533800	wordpools/wasnorm_wordpool_576.txt	LTP341	ltpFR2	7	7	SKIRT	1319	n/a	n/a	0	0	0
1726.05615234375	n/a	REC_WORD	3534963	wordpools/wasnorm_wordpool_576.txt	LTP341	ltpFR2	7	7	SHIRT	1287	n/a	n/a	0	0	0
1726.529296875	n/a	REC_WORD	3535932	wordpools/wasnorm_wordpool_576.txt	LTP341	ltpFR2	7	7	SHORTS	1293	n/a	n/a	0	0	0
1728.203125	n/a	REC_WORD	3539360	wordpools/wasnorm_wordpool_576.txt	LTP341	ltpFR2	7	7	TWEEZERS	1526	n/a	n/a	0	0	0
1729.51025390625	n/a	REC_WORD	3542037	wordpools/wasnorm_wordpool_576.txt	LTP341	ltpFR2	7	7	VALLEY	1545	n/a	n/a	0	0	0
1730.2080078125	n/a	REC_WORD	3543466	wordpools/wasnorm_wordpool_576.txt	LTP341	ltpFR2	7	7	RIVER	1194	n/a	n/a	0	0	0
1730.79345703125	n/a	REC_WORD	3544665	wordpools/wasnorm_wordpool_576.txt	LTP341	ltpFR2	7	7	SUBWAY	1400	n/a	n/a	0	0	0
1731.60205078125	n/a	REC_WORD	3546321	wordpools/wasnorm_wordpool_576.txt	LTP341	ltpFR2	7	7	TUNNEL	1519	n/a	n/a	0	0	0
1733.029296875	n/a	REC_WORD	3549244	wordpools/wasnorm_wordpool_576.txt	LTP341	ltpFR2	7	7	BLUEPRINT	142	n/a	n/a	0	0	0
1765.447265625	n/a	REC_WORD	3615636	wordpools/wasnorm_wordpool_576.txt	LTP341	ltpFR2	7	7	JUGGLER	763	n/a	n/a	0	0	0
1792.890625	n/a	WORD	3671840	wordpools/wasnorm_wordpool_576.txt	LTP341	ltpFR2	7	8	SPOUSE	1358	n/a	n/a	0	0	0
1795.40673828125	n/a	WORD	3676993	wordpools/wasnorm_wordpool_576.txt	LTP341	ltpFR2	7	8	POWDER	1117	n/a	n/a	0	0	0
1797.9384765625	n/a	WORD	3682178	wordpools/wasnorm_wordpool_576.txt	LTP341	ltpFR2	7	8	LEADER	807	n/a	n/a	0	0	0
1800.73828125	n/a	WORD	3687912	wordpools/wasnorm_wordpool_576.txt	LTP341	ltpFR2	7	8	COOK	372	n/a	n/a	0	0	0
1803.55224609375	n/a	WORD	3693675	wordpools/wasnorm_wordpool_576.txt	LTP341	ltpFR2	7	8	ROBOT	1200	n/a	n/a	0	0	0
1806.234375	n/a	WORD	3699168	wordpools/wasnorm_wordpool_576.txt	LTP341	ltpFR2	7	8	CUSTARD	429	n/a	n/a	0	0	0
1808.8330078125	n/a	WORD	3704490	wordpools/wasnorm_wordpool_576.txt	LTP341	ltpFR2	7	8	RELISH	1183	n/a	n/a	0	0	0
1811.34814453125	n/a	WORD	3709641	wordpools/wasnorm_wordpool_576.txt	LTP341	ltpFR2	7	8	CROSS	413	n/a	n/a	0	0	0
1813.8310546875	n/a	WORD	3714726	wordpools/wasnorm_wordpool_576.txt	LTP341	ltpFR2	7	8	TURTLE	1522	n/a	n/a	0	0	0
1816.49609375	n/a	WORD	3720184	wordpools/wasnorm_wordpool_576.txt	LTP341	ltpFR2	7	8	VELVET	1555	n/a	n/a	0	0	0
1819.2119140625	n/a	WORD	3725746	wordpools/wasnorm_wordpool_576.txt	LTP341	ltpFR2	7	8	PARROT	1015	n/a	n/a	0	0	0
1821.82666015625	n/a	WORD	3731101	wordpools/wasnorm_wordpool_576.txt	LTP341	ltpFR2	7	8	OX	994	n/a	n/a	0	0	0
1824.2587890625	n/a	WORD	3736082	wordpools/wasnorm_wordpool_576.txt	LTP341	ltpFR2	7	8	SCULPTURE	1258	n/a	n/a	0	0	0
1826.95751953125	n/a	WORD	3741609	wordpools/wasnorm_wordpool_576.txt	LTP341	ltpFR2	7	8	STATUE	1374	n/a	n/a	0	0	0
1829.57373046875	n/a	WORD	3746967	wordpools/wasnorm_wordpool_576.txt	LTP341	ltpFR2	7	8	WHISKERS	1605	n/a	n/a	0	0	0
1832.388671875	n/a	WORD	3752732	wordpools/wasnorm_wordpool_576.txt	LTP341	ltpFR2	7	8	SWITCH	1422	n/a	n/a	0	0	0
1834.853515625	n/a	WORD	3757780	wordpools/wasnorm_wordpool_576.txt	LTP341	ltpFR2	7	8	HAND	683	n/a	n/a	0	0	0
1837.51953125	n/a	WORD	3763240	wordpools/wasnorm_wordpool_576.txt	LTP341	ltpFR2	7	8	BRANDY	169	n/a	n/a	0	0	0
1840.05126953125	n/a	WORD	3768425	wordpools/wasnorm_wordpool_576.txt	LTP341	ltpFR2	7	8	CHAMPAGNE	278	n/a	n/a	0	0	0
1842.8173828125	n/a	WORD	3774090	wordpools/wasnorm_wordpool_576.txt	LTP341	ltpFR2	7	8	BABY	64	n/a	n/a	0	0	0
1845.26513671875	n/a	WORD	3779103	wordpools/wasnorm_wordpool_576.txt	LTP341	ltpFR2	7	8	CAFE	216	n/a	n/a	0	0	0
1847.98095703125	n/a	WORD	3784665	wordpools/wasnorm_wordpool_576.txt	LTP341	ltpFR2	7	8	WORKER	1621	n/a	n/a	0	0	0
1850.7470703125	n/a	WORD	3790330	wordpools/wasnorm_wordpool_576.txt	LTP341	ltpFR2	7	8	HERO	706	n/a	n/a	0	0	0
1853.294921875	n/a	WORD	3795548	wordpools/wasnorm_wordpool_576.txt	LTP341	ltpFR2	7	8	FINGER	567	n/a	n/a	0	0	0
1854.9111328125	n/a	START	3798858	n/a	LTP341	ltpFR2	7	n/a	n/a	n/a	14	n/a	n/a	n/a	n/a
1855.74267578125	n/a	DISTRACTOR	3800561	n/a	LTP341	ltpFR2	7	8	n/a	n/a	n/a	n/a	0	0	0
1855.7451171875	n/a	PROB	3800566	n/a	LTP341	ltpFR2	7	n/a	n/a	n/a	14	12	4	2	6
1858.19287109375	n/a	PROB	3805579	n/a	LTP341	ltpFR2	7	n/a	n/a	n/a	14	17	4	6	7
1859.57568359375	n/a	PROB	3808411	n/a	LTP341	ltpFR2	7	n/a	n/a	n/a	14	8	2	1	5
1860.65771484375	n/a	PROB	3810627	n/a	LTP341	ltpFR2	7	n/a	n/a	n/a	14	20	5	7	8
1862.5078125	n/a	PROB	3814416	n/a	LTP341	ltpFR2	7	n/a	n/a	n/a	14	25	7	9	9
1863.87353515625	n/a	PROB	3817213	n/a	LTP341	ltpFR2	7	n/a	n/a	n/a	14	13	5	7	1
1865.40576171875	n/a	PROB	3820351	n/a	LTP341	ltpFR2	7	n/a	n/a	n/a	14	17	9	7	1
1867.75439453125	n/a	PROB	3825161	n/a	LTP341	ltpFR2	7	n/a	n/a	n/a	14	11	4	1	6
1868.70556640625	n/a	PROB	3827109	n/a	LTP341	ltpFR2	7	n/a	n/a	n/a	14	21	7	9	5
1869.95361328125	n/a	PROB	3829665	n/a	LTP341	ltpFR2	7	n/a	n/a	n/a	14	18	1	9	8
1871.103515625	n/a	PROB	3832020	n/a	LTP341	ltpFR2	7	n/a	n/a	n/a	14	12	5	3	4
1872.4853515625	n/a	PROB	3834850	n/a	LTP341	ltpFR2	7	n/a	n/a	n/a	14	16	6	2	8
1873.9013671875	n/a	PROB	3837750	n/a	LTP341	ltpFR2	7	n/a	n/a	n/a	14	15	3	9	3
1875.201171875	n/a	PROB	3840412	n/a	LTP341	ltpFR2	7	n/a	n/a	n/a	14	17	9	2	6
1876.6005859375	n/a	PROB	3843278	n/a	LTP341	ltpFR2	7	n/a	n/a	n/a	14	12	1	7	4
1877.703125	n/a	STOP	3845536	n/a	LTP341	ltpFR2	7	n/a	n/a	n/a	14	n/a	n/a	n/a	n/a
1880.8154296875	n/a	REC_START	3851910	n/a	LTP341	ltpFR2	7	8	n/a	n/a	n/a	n/a	0	0	0
1881.4921875	n/a	REC_WORD	3853296	wordpools/wasnorm_wordpool_576.txt	LTP341	ltpFR2	7	8	HERO	706	n/a	n/a	0	0	0
1882.1240234375	n/a	REC_WORD	3854590	wordpools/wasnorm_wordpool_576.txt	LTP341	ltpFR2	7	8	FINGER	567	n/a	n/a	0	0	0
1885.283203125	n/a	REC_WORD	3861060	wordpools/wasnorm_wordpool_576.txt	LTP341	ltpFR2	7	8	SPOUSE	1358	n/a	n/a	0	0	0
1890.93408203125	n/a	REC_WORD	3872633	wordpools/wasnorm_wordpool_576.txt	LTP341	ltpFR2	7	8	HAND	683	n/a	n/a	0	0	0
1894.1220703125	n/a	REC_WORD	3879162	wordpools/wasnorm_wordpool_576.txt	LTP341	ltpFR2	7	8	CAFE	216	n/a	n/a	0	0	0
1897.8759765625	n/a	REC_WORD	3886850	wordpools/wasnorm_wordpool_576.txt	LTP341	ltpFR2	7	8	BABY	64	n/a	n/a	0	0	0
1902.6826171875	n/a	REC_WORD	3896694	wordpools/wasnorm_wordpool_576.txt	LTP341	ltpFR2	7	8	CUSTARD	429	n/a	n/a	0	0	0
1905.9267578125	n/a	REC_WORD	3903338	wordpools/wasnorm_wordpool_576.txt	LTP341	ltpFR2	7	8	COOK	372	n/a	n/a	0	0	0
1906.978515625	n/a	REC_WORD	3905492	wordpools/wasnorm_wordpool_576.txt	LTP341	ltpFR2	7	8	LEADER	807	n/a	n/a	0	0	0
1915.12451171875	n/a	REC_WORD	3922175	wordpools/wasnorm_wordpool_576.txt	LTP341	ltpFR2	7	8	STATUE	1374	n/a	n/a	0	0	0
1917.58544921875	n/a	REC_WORD	3927215	wordpools/wasnorm_wordpool_576.txt	LTP341	ltpFR2	7	8	SCULPTURE	1258	n/a	n/a	0	0	0
1920.27099609375	n/a	REC_WORD	3932715	wordpools/wasnorm_wordpool_576.txt	LTP341	ltpFR2	7	8	PARROT	1015	n/a	n/a	0	0	0
1922.08203125	n/a	REC_WORD	3936424	wordpools/wasnorm_wordpool_576.txt	LTP341	ltpFR2	7	8	PANTHER	1009	n/a	n/a	0	0	0
1931.6611328125	n/a	REC_WORD	3956042	wordpools/wasnorm_wordpool_576.txt	LTP341	ltpFR2	7	8	BUFFALO	186	n/a	n/a	0	0	0
1957.34521484375	n/a	REST_REWET	4008643	n/a	LTP341	ltpFR2	7	8	n/a	n/a	n/a	n/a	0	0	0
2129.16259765625	n/a	WORD	4360525	wordpools/wasnorm_wordpool_576.txt	LTP341	ltpFR2	7	9	BROTHER	179	n/a	n/a	0	0	0
2131.86083984375	n/a	WORD	4366051	wordpools/wasnorm_wordpool_576.txt	LTP341	ltpFR2	7	9	DAUGHTER	442	n/a	n/a	0	0	0
2134.6435546875	n/a	WORD	4371750	wordpools/wasnorm_wordpool_576.txt	LTP341	ltpFR2	7	9	MOP	916	n/a	n/a	0	0	0
2137.2255859375	n/a	WORD	4377038	wordpools/wasnorm_wordpool_576.txt	LTP341	ltpFR2	7	9	SWIMMER	1420	n/a	n/a	0	0	0
2139.857421875	n/a	WORD	4382428	wordpools/wasnorm_wordpool_576.txt	LTP341	ltpFR2	7	9	SISTER	1312	n/a	n/a	0	0	0
2142.4892578125	n/a	WORD	4387818	wordpools/wasnorm_wordpool_576.txt	LTP341	ltpFR2	7	9	ATOM	55	n/a	n/a	0	0	0
2145.021484375	n/a	WORD	4393004	wordpools/wasnorm_wordpool_576.txt	LTP341	ltpFR2	7	9	PROTON	1132	n/a	n/a	0	0	0
2147.83740234375	n/a	WORD	4398771	wordpools/wasnorm_wordpool_576.txt	LTP341	ltpFR2	7	9	DIVER	476	n/a	n/a	0	0	0
2150.28515625	n/a	WORD	4403784	wordpools/wasnorm_wordpool_576.txt	LTP341	ltpFR2	7	9	STOMACH	1384	n/a	n/a	0	0	0
2152.85107421875	n/a	WORD	4409039	wordpools/wasnorm_wordpool_576.txt	LTP341	ltpFR2	7	9	HUMAN	726	n/a	n/a	0	0	0
2155.64990234375	n/a	WORD	4414771	wordpools/wasnorm_wordpool_576.txt	LTP341	ltpFR2	7	9	VALVE	1546	n/a	n/a	0	0	0
2158.18212890625	n/a	WORD	4419957	wordpools/wasnorm_wordpool_576.txt	LTP341	ltpFR2	7	9	BUBBLE	183	n/a	n/a	0	0	0
2160.78076171875	n/a	WORD	4425279	wordpools/wasnorm_wordpool_576.txt	LTP341	ltpFR2	7	9	PLAZA	1088	n/a	n/a	0	0	0
2163.22998046875	n/a	WORD	4430295	wordpools/wasnorm_wordpool_576.txt	LTP341	ltpFR2	7	9	INFANT	737	n/a	n/a	0	0	0
2165.794921875	n/a	WORD	4435548	wordpools/wasnorm_wordpool_576.txt	LTP341	ltpFR2	7	9	PIMPLE	1071	n/a	n/a	0	0	0
2168.36083984375	n/a	WORD	4440803	wordpools/wasnorm_wordpool_576.txt	LTP341	ltpFR2	7	9	COD	340	n/a	n/a	0	0	0
2170.892578125	n/a	WORD	4445988	wordpools/wasnorm_wordpool_576.txt	LTP341	ltpFR2	7	9	BEEF	113	n/a	n/a	0	0	0
2173.6923828125	n/a	WORD	4451722	wordpools/wasnorm_wordpool_576.txt	LTP341	ltpFR2	7	9	BODY	145	n/a	n/a	0	0	0
2176.4892578125	n/a	WORD	4457450	wordpools/wasnorm_wordpool_576.txt	LTP341	ltpFR2	7	9	CRATER	400	n/a	n/a	0	0	0
2179.10546875	n/a	WORD	4462808	wordpools/wasnorm_wordpool_576.txt	LTP341	ltpFR2	7	9	STREAM	1392	n/a	n/a	0	0	0
2181.8701171875	n/a	WORD	4468470	wordpools/wasnorm_wordpool_576.txt	LTP341	ltpFR2	7	9	CASHIER	254	n/a	n/a	0	0	0
2184.30224609375	n/a	WORD	4473451	wordpools/wasnorm_wordpool_576.txt	LTP341	ltpFR2	7	9	WRIST	1626	n/a	n/a	0	0	0
2187.0009765625	n/a	WORD	4478978	wordpools/wasnorm_wordpool_576.txt	LTP341	ltpFR2	7	9	ANKLE	24	n/a	n/a	0	0	0
2189.5	n/a	WORD	4484096	wordpools/wasnorm_wordpool_576.txt	LTP341	ltpFR2	7	9	CLOUD	328	n/a	n/a	0	0	0
2191.1162109375	n/a	START	4487406	n/a	LTP341	ltpFR2	7	n/a	n/a	n/a	15	n/a	n/a	n/a	n/a
2191.9599609375	n/a	DISTRACTOR	4489134	n/a	LTP341	ltpFR2	7	9	n/a	n/a	n/a	n/a	0	0	0
2191.9658203125	n/a	PROB	4489146	n/a	LTP341	ltpFR2	7	n/a	n/a	n/a	15	19	8	7	4
2194.06494140625	n/a	PROB	4493445	n/a	LTP341	ltpFR2	7	n/a	n/a	n/a	15	14	2	5	7
2195.2138671875	n/a	PROB	4495798	n/a	LTP341	ltpFR2	7	n/a	n/a	n/a	15	12	8	1	2
2196.046875	n/a	PROB	4497504	n/a	LTP341	ltpFR2	7	n/a	n/a	n/a	15	18	6	4	8
2197.9287109375	n/a	PROB	4501358	n/a	LTP341	ltpFR2	7	n/a	n/a	n/a	15	13	1	5	7
2199.12890625	n/a	PROB	4503816	n/a	LTP341	ltpFR2	7	n/a	n/a	n/a	15	13	6	5	2
2200.27783203125	n/a	PROB	4506169	n/a	LTP341	ltpFR2	7	n/a	n/a	n/a	15	14	4	9	2
2201.8779296875	n/a	PROB	4509446	n/a	LTP341	ltpFR2	7	n/a	n/a	n/a	15	8	2	2	4
2203.3095703125	n/a	PROB	4512378	n/a	LTP341	ltpFR2	7	n/a	n/a	n/a	15	11	8	1	2
2204.92578125	n/a	PROB	4515688	n/a	LTP341	ltpFR2	7	n/a	n/a	n/a	15	10	1	3	6
2206.3583984375	n/a	PROB	4518622	n/a	LTP341	ltpFR2	7	n/a	n/a	n/a	15	17	9	6	2
2207.7255859375	n/a	PROB	4521422	n/a	LTP341	ltpFR2	7	n/a	n/a	n/a	15	16	4	4	8
2208.9736328125	n/a	PROB	4523978	n/a	LTP341	ltpFR2	7	n/a	n/a	n/a	15	14	2	4	8
2210.15673828125	n/a	PROB	4526401	n/a	LTP341	ltpFR2	7	n/a	n/a	n/a	15	16	1	7	8
2211.322265625	n/a	PROB	4528788	n/a	LTP341	ltpFR2	7	n/a	n/a	n/a	15	154	5	8	1
2214.52734375	n/a	STOP	4535352	n/a	LTP341	ltpFR2	7	n/a	n/a	n/a	15	n/a	n/a	n/a	n/a
2216.95458984375	n/a	REC_START	4540323	n/a	LTP341	ltpFR2	7	9	n/a	n/a	n/a	n/a	0	0	0
2217.5693359375	n/a	REC_WORD	4541582	wordpools/wasnorm_wordpool_576.txt	LTP341	ltpFR2	7	9	BEEF	113	n/a	n/a	0	0	0
2218.03515625	n/a	REC_WORD	4542536	wordpools/wasnorm_wordpool_576.txt	LTP341	ltpFR2	7	9	ANKLE	24	n/a	n/a	0	0	0
2218.62353515625	n/a	REC_WORD	4543741	wordpools/wasnorm_wordpool_576.txt	LTP341	ltpFR2	7	9	CLOUD	328	n/a	n/a	0	0	0
2220.05029296875	n/a	REC_WORD	4546663	wordpools/wasnorm_wordpool_576.txt	LTP341	ltpFR2	7	9	SISTER	1312	n/a	n/a	0	0	0
2220.7353515625	n/a	REC_WORD	4548066	wordpools/wasnorm_wordpool_576.txt	LTP341	ltpFR2	7	9	BROTHER	179	n/a	n/a	0	0	0
2221.51123046875	n/a	REC_WORD	4549655	wordpools/wasnorm_wordpool_576.txt	LTP341	ltpFR2	7	9	DAUGHTER	442	n/a	n/a	0	0	0
2223.119140625	n/a	REC_WORD	4552948	wordpools/wasnorm_wordpool_576.txt	LTP341	ltpFR2	7	9	HUMAN	726	n/a	n/a	0	0	0
2223.67333984375	n/a	REC_WORD	4554083	wordpools/wasnorm_wordpool_576.txt	LTP341	ltpFR2	7	9	STOMACH	1384	n/a	n/a	0	0	0
2229.89990234375	n/a	REC_WORD	4566835	wordpools/wasnorm_wordpool_576.txt	LTP341	ltpFR2	7	9	MOP	916	n/a	n/a	0	0	0
2230.56787109375	n/a	REC_WORD	4568203	wordpools/wasnorm_wordpool_576.txt	LTP341	ltpFR2	7	9	PROTON	1132	n/a	n/a	0	0	0
2232.06494140625	n/a	REC_WORD	4571269	wordpools/wasnorm_wordpool_576.txt	LTP341	ltpFR2	7	9	ATOM	55	n/a	n/a	0	0	0
2244.4755859375	n/a	REC_WORD	4596686	wordpools/wasnorm_wordpool_576.txt	LTP341	ltpFR2	7	9	VALVE	1546	n/a	n/a	0	0	0
2245.28955078125	n/a	REC_WORD	4598353	wordpools/wasnorm_wordpool_576.txt	LTP341	ltpFR2	7	9	BUBBLE	183	n/a	n/a	0	0	0
2307.376953125	n/a	DISTRACTOR	4725508	n/a	LTP341	ltpFR2	7	10	n/a	n/a	n/a	n/a	0	0	0
2307.376953125	n/a	START	4725508	n/a	LTP341	ltpFR2	7	n/a	n/a	n/a	16	n/a	n/a	n/a	n/a
2307.39306640625	n/a	PROB	4725541	n/a	LTP341	ltpFR2	7	n/a	n/a	n/a	16	19	2	9	8
2309.22607421875	n/a	PROB	4729295	n/a	LTP341	ltpFR2	7	n/a	n/a	n/a	16	19	9	2	8
2310.7587890625	n/a	PROB	4732434	n/a	LTP341	ltpFR2	7	n/a	n/a	n/a	16	17	4	7	6
2312.5078125	n/a	PROB	4736016	n/a	LTP341	ltpFR2	7	n/a	n/a	n/a	16	10	2	3	5
2313.93994140625	n/a	PROB	4738949	n/a	LTP341	ltpFR2	7	n/a	n/a	n/a	16	22	6	8	8
2315.65576171875	n/a	PROB	4742463	n/a	LTP341	ltpFR2	7	n/a	n/a	n/a	16	16	8	1	7
2316.70654296875	n/a	PROB	4744615	n/a	LTP341	ltpFR2	7	n/a	n/a	n/a	16	11	7	1	3
2317.521484375	n/a	PROB	4746284	n/a	LTP341	ltpFR2	7	n/a	n/a	n/a	16	16	9	6	1
2318.53759765625	n/a	PROB	4748365	n/a	LTP341	ltpFR2	7	n/a	n/a	n/a	16	19	9	6	4
2319.6044921875	n/a	PROB	4750550	n/a	LTP341	ltpFR2	7	n/a	n/a	n/a	16	14	3	8	3
2320.95361328125	n/a	PROB	4753313	n/a	LTP341	ltpFR2	7	n/a	n/a	n/a	16	12	1	5	6
2323.15234375	n/a	PROB	4757816	n/a	LTP341	ltpFR2	7	n/a	n/a	n/a	16	12	5	2	5
2324.2685546875	n/a	PROB	4760102	n/a	LTP341	ltpFR2	7	n/a	n/a	n/a	16	16	8	6	2
2325.78466796875	n/a	PROB	4763207	n/a	LTP341	ltpFR2	7	n/a	n/a	n/a	16	16	6	8	2
2326.9833984375	n/a	PROB	4765662	n/a	LTP341	ltpFR2	7	n/a	n/a	n/a	16	12	5	6	1
2327.8505859375	n/a	PROB	4767438	n/a	LTP341	ltpFR2	7	n/a	n/a	n/a	16	16	7	5	4
2329.1494140625	n/a	PROB	4770098	n/a	LTP341	ltpFR2	7	n/a	n/a	n/a	16	14	5	8	1
2330.3515625	n/a	STOP	4772560	n/a	LTP341	ltpFR2	7	n/a	n/a	n/a	16	n/a	n/a	n/a	n/a
2332.498046875	n/a	WORD	4776956	wordpools/wasnorm_wordpool_576.txt	LTP341	ltpFR2	7	10	PASTA	1021	n/a	n/a	0	0	0
2334.947265625	n/a	WORD	4781972	wordpools/wasnorm_wordpool_576.txt	LTP341	ltpFR2	7	10	TYPIST	1532	n/a	n/a	0	0	0
2337.4951171875	n/a	WORD	4787190	wordpools/wasnorm_wordpool_576.txt	LTP341	ltpFR2	7	10	FOOTBALL	591	n/a	n/a	0	0	0
2340.17822265625	n/a	WORD	4792685	wordpools/wasnorm_wordpool_576.txt	LTP341	ltpFR2	7	10	SWAMP	1416	n/a	n/a	0	0	0
2342.89306640625	n/a	WORD	4798245	wordpools/wasnorm_wordpool_576.txt	LTP341	ltpFR2	7	10	HIGHWAY	707	n/a	n/a	0	0	0
2345.52490234375	n/a	WORD	4803635	wordpools/wasnorm_wordpool_576.txt	LTP341	ltpFR2	7	10	UNCLE	1536	n/a	n/a	0	0	0
2347.95703125	n/a	WORD	4808616	wordpools/wasnorm_wordpool_576.txt	LTP341	ltpFR2	7	10	SHORTCAKE	1292	n/a	n/a	0	0	0
2350.4228515625	n/a	WORD	4813666	wordpools/wasnorm_wordpool_576.txt	LTP341	ltpFR2	7	10	MAMMAL	861	n/a	n/a	0	0	0
2353.12158203125	n/a	WORD	4819193	wordpools/wasnorm_wordpool_576.txt	LTP341	ltpFR2	7	10	PUPPY	1144	n/a	n/a	0	0	0
2355.9365234375	n/a	WORD	4824958	wordpools/wasnorm_wordpool_576.txt	LTP341	ltpFR2	7	10	COMET	353	n/a	n/a	0	0	0
2358.6865234375	n/a	WORD	4830590	wordpools/wasnorm_wordpool_576.txt	LTP341	ltpFR2	7	10	ISLAND	745	n/a	n/a	0	0	0
2361.400390625	n/a	WORD	4836148	wordpools/wasnorm_wordpool_576.txt	LTP341	ltpFR2	7	10	SEAGULL	1261	n/a	n/a	0	0	0
2363.8994140625	n/a	WORD	4841266	wordpools/wasnorm_wordpool_576.txt	LTP341	ltpFR2	7	10	WASP	1593	n/a	n/a	0	0	0
2366.732421875	n/a	WORD	4847068	wordpools/wasnorm_wordpool_576.txt	LTP341	ltpFR2	7	10	GOBLIN	645	n/a	n/a	0	0	0
2369.4462890625	n/a	WORD	4852626	wordpools/wasnorm_wordpool_576.txt	LTP341	ltpFR2	7	10	TUTU	1524	n/a	n/a	0	0	0
2372.01220703125	n/a	WORD	4857881	wordpools/wasnorm_wordpool_576.txt	LTP341	ltpFR2	7	10	AIRPORT	13	n/a	n/a	0	0	0
2374.578125	n/a	WORD	4863136	wordpools/wasnorm_wordpool_576.txt	LTP341	ltpFR2	7	10	DRESSER	496	n/a	n/a	0	0	0
2377.22607421875	n/a	WORD	4868559	wordpools/wasnorm_wordpool_576.txt	LTP341	ltpFR2	7	10	MAILMAN	858	n/a	n/a	0	0	0
2379.9248046875	n/a	WORD	4874086	wordpools/wasnorm_wordpool_576.txt	LTP341	ltpFR2	7	10	COUSIN	392	n/a	n/a	0	0	0
2382.40673828125	n/a	WORD	4879169	wordpools/wasnorm_wordpool_576.txt	LTP341	ltpFR2	7	10	CATCHER	258	n/a	n/a	0	0	0
2384.93896484375	n/a	WORD	4884355	wordpools/wasnorm_wordpool_576.txt	LTP341	ltpFR2	7	10	DINER	467	n/a	n/a	0	0	0
2387.40478515625	n/a	WORD	4889405	wordpools/wasnorm_wordpool_576.txt	LTP341	ltpFR2	7	10	SNACK	1331	n/a	n/a	0	0	0
2390.13671875	n/a	WORD	4895000	wordpools/wasnorm_wordpool_576.txt	LTP341	ltpFR2	7	10	KLEENEX	782	n/a	n/a	0	0	0
2392.66845703125	n/a	WORD	4900185	wordpools/wasnorm_wordpool_576.txt	LTP341	ltpFR2	7	10	PAPER	1011	n/a	n/a	0	0	0
2394.28466796875	n/a	START	4903495	n/a	LTP341	ltpFR2	7	n/a	n/a	n/a	17	n/a	n/a	n/a	n/a
2395.3974609375	n/a	DISTRACTOR	4905774	n/a	LTP341	ltpFR2	7	10	n/a	n/a	n/a	n/a	0	0	0
2395.400390625	n/a	PROB	4905780	n/a	LTP341	ltpFR2	7	n/a	n/a	n/a	17	17	6	6	5
2397.5498046875	n/a	PROB	4910182	n/a	LTP341	ltpFR2	7	n/a	n/a	n/a	17	19	7	6	6
2398.91650390625	n/a	PROB	4912981	n/a	LTP341	ltpFR2	7	n/a	n/a	n/a	17	16	5	4	7
2399.99853515625	n/a	PROB	4915197	n/a	LTP341	ltpFR2	7	n/a	n/a	n/a	17	24	6	9	9
2402.03125	n/a	PROB	4919360	n/a	LTP341	ltpFR2	7	n/a	n/a	n/a	17	19	5	6	8
2403.1474609375	n/a	PROB	4921646	n/a	LTP341	ltpFR2	7	n/a	n/a	n/a	17	13	3	9	1
2404.0634765625	n/a	PROB	4923522	n/a	LTP341	ltpFR2	7	n/a	n/a	n/a	17	16	7	9	3
2405.46240234375	n/a	PROB	4926387	n/a	LTP341	ltpFR2	7	n/a	n/a	n/a	17	14	3	3	9
2406.59521484375	n/a	PROB	4928707	n/a	LTP341	ltpFR2	7	n/a	n/a	n/a	17	12	2	1	9
2407.861328125	n/a	PROB	4931300	n/a	LTP341	ltpFR2	7	n/a	n/a	n/a	17	13	2	8	3
2409.34423828125	n/a	PROB	4934337	n/a	LTP341	ltpFR2	7	n/a	n/a	n/a	17	20	5	8	7
2410.5771484375	n/a	PROB	4936862	n/a	LTP341	ltpFR2	7	n/a	n/a	n/a	17	14	8	2	4
2411.66015625	n/a	PROB	4939080	n/a	LTP341	ltpFR2	7	n/a	n/a	n/a	17	18	8	2	8
2412.89208984375	n/a	PROB	4941603	n/a	LTP341	ltpFR2	7	n/a	n/a	n/a	17	16	5	9	2
2413.97509765625	n/a	PROB	4943821	n/a	LTP341	ltpFR2	7	n/a	n/a	n/a	17	17	8	2	7
2415.09130859375	n/a	PROB	4946107	n/a	LTP341	ltpFR2	7	n/a	n/a	n/a	17	22	9	8	5
2416.35791015625	n/a	PROB	4948701	n/a	LTP341	ltpFR2	7	n/a	n/a	n/a	17	23	9	6	8
2417.6640625	n/a	STOP	4951376	n/a	LTP341	ltpFR2	7	n/a	n/a	n/a	17	n/a	n/a	n/a	n/a
2420.22314453125	n/a	REC_START	4956617	n/a	LTP341	ltpFR2	7	10	n/a	n/a	n/a	n/a	0	0	0
2422.5947265625	n/a	REC_WORD	4961474	wordpools/wasnorm_wordpool_576.txt	LTP341	ltpFR2	7	10	COUSIN	392	n/a	n/a	0	0	0
2425.3310546875	n/a	REC_WORD	4967078	wordpools/wasnorm_wordpool_576.txt	LTP341	ltpFR2	7	10	DINER	467	n/a	n/a	0	0	0
2426.60693359375	n/a	REC_WORD	4969691	wordpools/wasnorm_wordpool_576.txt	LTP341	ltpFR2	7	10	SNACK	1331	n/a	n/a	0	0	0
2427.89794921875	n/a	REC_WORD	4972335	wordpools/wasnorm_wordpool_576.txt	LTP341	ltpFR2	7	10	CATCHER	258	n/a	n/a	0	0	0
2434.0576171875	n/a	REC_WORD	4984950	wordpools/wasnorm_wordpool_576.txt	LTP341	ltpFR2	7	10	TYPIST	1532	n/a	n/a	0	0	0
2434.8876953125	n/a	REC_WORD	4986650	wordpools/wasnorm_wordpool_576.txt	LTP341	ltpFR2	7	10	PASTA	1021	n/a	n/a	0	0	0
2435.6796875	n/a	REC_WORD	4988272	wordpools/wasnorm_wordpool_576.txt	LTP341	ltpFR2	7	10	FOOTBALL	591	n/a	n/a	0	0	0
2437.1455078125	n/a	REC_WORD	4991274	wordpools/wasnorm_wordpool_576.txt	LTP341	ltpFR2	7	10	HIGHWAY	707	n/a	n/a	0	0	0
2438.2626953125	n/a	REC_WORD	4993562	wordpools/wasnorm_wordpool_576.txt	LTP341	ltpFR2	7	10	AIRPORT	13	n/a	n/a	0	0	0
2439.2255859375	n/a	REC_WORD	4995534	wordpools/wasnorm_wordpool_576.txt	LTP341	ltpFR2	7	10	UNCLE	1536	n/a	n/a	0	0	0
2440.4326171875	n/a	REC_WORD	4998006	wordpools/wasnorm_wordpool_576.txt	LTP341	ltpFR2	7	10	SHORTCAKE	1292	n/a	n/a	0	0	0
2443.0654296875	n/a	REC_WORD	5003398	wordpools/wasnorm_wordpool_576.txt	LTP341	ltpFR2	7	10	SEAGULL	1261	n/a	n/a	0	0	0
2443.95849609375	n/a	REC_WORD	5005227	wordpools/wasnorm_wordpool_576.txt	LTP341	ltpFR2	7	10	ISLAND	745	n/a	n/a	0	0	0
2444.99609375	n/a	REC_WORD	5007352	wordpools/wasnorm_wordpool_576.txt	LTP341	ltpFR2	7	10	GOBLIN	645	n/a	n/a	0	0	0
2510.6455078125	n/a	DISTRACTOR	5141802	n/a	LTP341	ltpFR2	7	11	n/a	n/a	n/a	n/a	0	0	0
2510.6455078125	n/a	START	5141802	n/a	LTP341	ltpFR2	7	n/a	n/a	n/a	18	n/a	n/a	n/a	n/a
2510.66259765625	n/a	PROB	5141837	n/a	LTP341	ltpFR2	7	n/a	n/a	n/a	18	11	5	5	1
2513.14453125	n/a	PROB	5146920	n/a	LTP341	ltpFR2	7	n/a	n/a	n/a	18	13	1	6	6
2514.1435546875	n/a	PROB	5148966	n/a	LTP341	ltpFR2	7	n/a	n/a	n/a	18	12	2	1	9
2514.943359375	n/a	PROB	5150604	n/a	LTP341	ltpFR2	7	n/a	n/a	n/a	18	14	4	4	6
2517.0751953125	n/a	PROB	5154970	n/a	LTP341	ltpFR2	7	n/a	n/a	n/a	18	20	8	4	8
2518.5751953125	n/a	PROB	5158042	n/a	LTP341	ltpFR2	7	n/a	n/a	n/a	18	18	6	9	3
2520.2412109375	n/a	PROB	5161454	n/a	LTP341	ltpFR2	7	n/a	n/a	n/a	18	19	9	9	1
2521.5234375	n/a	PROB	5164080	n/a	LTP341	ltpFR2	7	n/a	n/a	n/a	18	16	7	8	1
2522.67431640625	n/a	PROB	5166437	n/a	LTP341	ltpFR2	7	n/a	n/a	n/a	18	19	8	6	5
2524.05615234375	n/a	PROB	5169267	n/a	LTP341	ltpFR2	7	n/a	n/a	n/a	18	12	2	3	7
2525.10498046875	n/a	PROB	5171415	n/a	LTP341	ltpFR2	7	n/a	n/a	n/a	18	15	4	7	4
2526.67236328125	n/a	PROB	5174625	n/a	LTP341	ltpFR2	7	n/a	n/a	n/a	18	12	4	3	5
2527.87109375	n/a	PROB	5177080	n/a	LTP341	ltpFR2	7	n/a	n/a	n/a	18	11	6	1	4
2528.68798828125	n/a	PROB	5178753	n/a	LTP341	ltpFR2	7	n/a	n/a	n/a	18	10	1	8	1
2529.73583984375	n/a	PROB	5180899	n/a	LTP341	ltpFR2	7	n/a	n/a	n/a	18	6	2	2	2
2530.81884765625	n/a	PROB	5183117	n/a	LTP341	ltpFR2	7	n/a	n/a	n/a	18	17	4	9	4
2532.81787109375	n/a	PROB	5187211	n/a	LTP341	ltpFR2	7	n/a	n/a	n/a	18	20	2	9	9
2533.9599609375	n/a	STOP	5189550	n/a	LTP341	ltpFR2	7	n/a	n/a	n/a	18	n/a	n/a	n/a	n/a
2535.75	n/a	WORD	5193216	wordpools/wasnorm_wordpool_576.txt	LTP341	ltpFR2	7	11	RUG	1215	n/a	n/a	0	0	0
2538.298828125	n/a	WORD	5198436	wordpools/wasnorm_wordpool_576.txt	LTP341	ltpFR2	7	11	TEMPLE	1448	n/a	n/a	0	0	0
2541.0478515625	n/a	WORD	5204066	wordpools/wasnorm_wordpool_576.txt	LTP341	ltpFR2	7	11	BANKER	84	n/a	n/a	0	0	0
2543.49658203125	n/a	WORD	5209081	wordpools/wasnorm_wordpool_576.txt	LTP341	ltpFR2	7	11	JOURNAL	760	n/a	n/a	0	0	0
2546.29541015625	n/a	WORD	5214813	wordpools/wasnorm_wordpool_576.txt	LTP341	ltpFR2	7	11	SCARECROW	1245	n/a	n/a	0	0	0
2548.74365234375	n/a	WORD	5219827	wordpools/wasnorm_wordpool_576.txt	LTP341	ltpFR2	7	11	BULLET	194	n/a	n/a	0	0	0
2551.5595703125	n/a	WORD	5225594	wordpools/wasnorm_wordpool_576.txt	LTP341	ltpFR2	7	11	HOOD	714	n/a	n/a	0	0	0
2554.2744140625	n/a	WORD	5231154	wordpools/wasnorm_wordpool_576.txt	LTP341	ltpFR2	7	11	SPARROW	1347	n/a	n/a	0	0	0
2557.00634765625	n/a	WORD	5236749	wordpools/wasnorm_wordpool_576.txt	LTP341	ltpFR2	7	11	BLADE	134	n/a	n/a	0	0	0
2559.822265625	n/a	WORD	5242516	wordpools/wasnorm_wordpool_576.txt	LTP341	ltpFR2	7	11	SPHINX	1349	n/a	n/a	0	0	0
2562.287109375	n/a	WORD	5247564	wordpools/wasnorm_wordpool_576.txt	LTP341	ltpFR2	7	11	CLIMBER	323	n/a	n/a	0	0	0
2564.8193359375	n/a	WORD	5252750	wordpools/wasnorm_wordpool_576.txt	LTP341	ltpFR2	7	11	SUMMIT	1405	n/a	n/a	0	0	0
2567.6181640625	n/a	WORD	5258482	wordpools/wasnorm_wordpool_576.txt	LTP341	ltpFR2	7	11	BATHTUB	100	n/a	n/a	0	0	0
2570.083984375	n/a	WORD	5263532	wordpools/wasnorm_wordpool_576.txt	LTP341	ltpFR2	7	11	SPONGE	1355	n/a	n/a	0	0	0
2572.53271484375	n/a	WORD	5268547	wordpools/wasnorm_wordpool_576.txt	LTP341	ltpFR2	7	11	PALACE	1006	n/a	n/a	0	0	0
2575.03173828125	n/a	WORD	5273665	wordpools/wasnorm_wordpool_576.txt	LTP341	ltpFR2	7	11	DENTIST	447	n/a	n/a	0	0	0
2577.69775390625	n/a	WORD	5279125	wordpools/wasnorm_wordpool_576.txt	LTP341	ltpFR2	7	11	TURNIP	1521	n/a	n/a	0	0	0
2580.32861328125	n/a	WORD	5284513	wordpools/wasnorm_wordpool_576.txt	LTP341	ltpFR2	7	11	CHILD	299	n/a	n/a	0	0	0
2582.94482421875	n/a	WORD	5289871	wordpools/wasnorm_wordpool_576.txt	LTP341	ltpFR2	7	11	RAZOR	1171	n/a	n/a	0	0	0
2585.57666015625	n/a	WORD	5295261	wordpools/wasnorm_wordpool_576.txt	LTP341	ltpFR2	7	11	CLOCK	325	n/a	n/a	0	0	0
2588.20849609375	n/a	WORD	5300651	wordpools/wasnorm_wordpool_576.txt	LTP341	ltpFR2	7	11	MARINE	869	n/a	n/a	0	0	0
2590.7734375	n/a	WORD	5305904	wordpools/wasnorm_wordpool_576.txt	LTP341	ltpFR2	7	11	BEAVER	109	n/a	n/a	0	0	0
2593.55517578125	n/a	WORD	5311601	wordpools/wasnorm_wordpool_576.txt	LTP341	ltpFR2	7	11	MUMMY	932	n/a	n/a	0	0	0
2596.12109375	n/a	WORD	5316856	wordpools/wasnorm_wordpool_576.txt	LTP341	ltpFR2	7	11	LUGGAGE	847	n/a	n/a	0	0	0
2597.73828125	n/a	START	5320168	n/a	LTP341	ltpFR2	7	n/a	n/a	n/a	19	n/a	n/a	n/a	n/a
2598.75634765625	n/a	DISTRACTOR	5322253	n/a	LTP341	ltpFR2	7	11	n/a	n/a	n/a	n/a	0	0	0
2598.77001953125	n/a	PROB	5322281	n/a	LTP341	ltpFR2	7	n/a	n/a	n/a	19	13	4	4	5
2601.3681640625	n/a	PROB	5327602	n/a	LTP341	ltpFR2	7	n/a	n/a	n/a	19	5	1	2	2
2602.5849609375	n/a	PROB	5330094	n/a	LTP341	ltpFR2	7	n/a	n/a	n/a	19	18	2	9	7
2603.951171875	n/a	PROB	5332892	n/a	LTP341	ltpFR2	7	n/a	n/a	n/a	19	12	2	1	9
2605.0830078125	n/a	PROB	5335210	n/a	LTP341	ltpFR2	7	n/a	n/a	n/a	19	17	9	2	6
2607.23193359375	n/a	PROB	5339611	n/a	LTP341	ltpFR2	7	n/a	n/a	n/a	19	17	6	5	6
2608.98193359375	n/a	PROB	5343195	n/a	LTP341	ltpFR2	7	n/a	n/a	n/a	19	14	9	3	2
2610.3310546875	n/a	PROB	5345958	n/a	LTP341	ltpFR2	7	n/a	n/a	n/a	19	18	6	5	7
2611.56396484375	n/a	PROB	5348483	n/a	LTP341	ltpFR2	7	n/a	n/a	n/a	19	10	4	3	3
2612.7626953125	n/a	PROB	5350938	n/a	LTP341	ltpFR2	7	n/a	n/a	n/a	19	16	4	6	6
2614.72998046875	n/a	PROB	5354967	n/a	LTP341	ltpFR2	7	n/a	n/a	n/a	19	23	7	6	9
2616.4775390625	n/a	PROB	5358546	n/a	LTP341	ltpFR2	7	n/a	n/a	n/a	19	20	9	6	5
2618.2265625	n/a	PROB	5362128	n/a	LTP341	ltpFR2	7	n/a	n/a	n/a	19	19	6	7	6
2619.94287109375	n/a	PROB	5365643	n/a	LTP341	ltpFR2	7	n/a	n/a	n/a	19	14	5	6	3
2621.3125	n/a	STOP	5368448	n/a	LTP341	ltpFR2	7	n/a	n/a	n/a	19	n/a	n/a	n/a	n/a
2623.55859375	n/a	REC_START	5373048	n/a	LTP341	ltpFR2	7	11	n/a	n/a	n/a	n/a	0	0	0
2623.9755859375	n/a	REC_WORD	5373902	wordpools/wasnorm_wordpool_576.txt	LTP341	ltpFR2	7	11	MARINE	869	n/a	n/a	0	0	0
2624.59033203125	n/a	REC_WORD	5375161	wordpools/wasnorm_wordpool_576.txt	LTP341	ltpFR2	7	11	BEAVER	109	n/a	n/a	0	0	0
2625.24462890625	n/a	REC_WORD	5376501	wordpools/wasnorm_wordpool_576.txt	LTP341	ltpFR2	7	11	MUMMY	932	n/a	n/a	0	0	0
2625.92236328125	n/a	REC_WORD	5377889	wordpools/wasnorm_wordpool_576.txt	LTP341	ltpFR2	7	11	LUGGAGE	847	n/a	n/a	0	0	0
2629.482421875	n/a	REC_WORD	5385180	wordpools/wasnorm_wordpool_576.txt	LTP341	ltpFR2	7	11	TEMPLE	1448	n/a	n/a	0	0	0
2630.2353515625	n/a	REC_WORD	5386722	wordpools/wasnorm_wordpool_576.txt	LTP341	ltpFR2	7	11	RUG	1215	n/a	n/a	0	0	0
2631.1044921875	n/a	REC_WORD	5388502	wordpools/wasnorm_wordpool_576.txt	LTP341	ltpFR2	7	11	BANKER	84	n/a	n/a	0	0	0
2649.39794921875	n/a	REC_WORD	5425967	wordpools/wasnorm_wordpool_576.txt	LTP341	ltpFR2	7	11	DENTIST	447	n/a	n/a	0	0	0
2694.70361328125	n/a	REC_WORD	5518753	wordpools/wasnorm_wordpool_576.txt	LTP341	ltpFR2	7	11	CLIMBER	323	n/a	n/a	0	0	0
2695.3828125	n/a	REC_WORD	5520144	wordpools/wasnorm_wordpool_576.txt	LTP341	ltpFR2	7	11	SUMMIT	1405	n/a	n/a	0	0	0
2713.998046875	n/a	WORD	5558268	wordpools/wasnorm_wordpool_576.txt	LTP341	ltpFR2	7	12	TOMBSTONE	1478	n/a	n/a	0	0	0
2716.7802734375	n/a	WORD	5563966	wordpools/wasnorm_wordpool_576.txt	LTP341	ltpFR2	7	12	DUSTPAN	509	n/a	n/a	0	0	0
2719.42822265625	n/a	WORD	5569389	wordpools/wasnorm_wordpool_576.txt	LTP341	ltpFR2	7	12	JUNGLE	764	n/a	n/a	0	0	0
2722.11083984375	n/a	WORD	5574883	wordpools/wasnorm_wordpool_576.txt	LTP341	ltpFR2	7	12	ELBOW	520	n/a	n/a	0	0	0
2724.6259765625	n/a	WORD	5580034	wordpools/wasnorm_wordpool_576.txt	LTP341	ltpFR2	7	12	CRUTCH	417	n/a	n/a	0	0	0
2727.2919921875	n/a	WORD	5585494	wordpools/wasnorm_wordpool_576.txt	LTP341	ltpFR2	7	12	OINTMENT	974	n/a	n/a	0	0	0
2729.82373046875	n/a	WORD	5590679	wordpools/wasnorm_wordpool_576.txt	LTP341	ltpFR2	7	12	TILE	1468	n/a	n/a	0	0	0
2732.28857421875	n/a	WORD	5595727	wordpools/wasnorm_wordpool_576.txt	LTP341	ltpFR2	7	12	PLAID	1080	n/a	n/a	0	0	0
2734.8544921875	n/a	WORD	5600982	wordpools/wasnorm_wordpool_576.txt	LTP341	ltpFR2	7	12	COSTUME	383	n/a	n/a	0	0	0
2737.353515625	n/a	WORD	5606100	wordpools/wasnorm_wordpool_576.txt	LTP341	ltpFR2	7	12	ZEBRA	1635	n/a	n/a	0	0	0
2739.935546875	n/a	WORD	5611388	wordpools/wasnorm_wordpool_576.txt	LTP341	ltpFR2	7	12	LEG	809	n/a	n/a	0	0	0
2742.517578125	n/a	WORD	5616676	wordpools/wasnorm_wordpool_576.txt	LTP341	ltpFR2	7	12	POLICE	1098	n/a	n/a	0	0	0
2745.31640625	n/a	WORD	5622408	wordpools/wasnorm_wordpool_576.txt	LTP341	ltpFR2	7	12	DUST	508	n/a	n/a	0	0	0
2747.79833984375	n/a	WORD	5627491	wordpools/wasnorm_wordpool_576.txt	LTP341	ltpFR2	7	12	CHURCH	307	n/a	n/a	0	0	0
2750.330078125	n/a	WORD	5632676	wordpools/wasnorm_wordpool_576.txt	LTP341	ltpFR2	7	12	FRUIT	610	n/a	n/a	0	0	0
2752.912109375	n/a	WORD	5637964	wordpools/wasnorm_wordpool_576.txt	LTP341	ltpFR2	7	12	WOMAN	1620	n/a	n/a	0	0	0
2755.5439453125	n/a	WORD	5643354	wordpools/wasnorm_wordpool_576.txt	LTP341	ltpFR2	7	12	JELLY	755	n/a	n/a	0	0	0
2758.126953125	n/a	WORD	5648644	wordpools/wasnorm_wordpool_576.txt	LTP341	ltpFR2	7	12	HOSTESS	723	n/a	n/a	0	0	0
2760.67578125	n/a	WORD	5653864	wordpools/wasnorm_wordpool_576.txt	LTP341	ltpFR2	7	12	PEACH	1031	n/a	n/a	0	0	0
2763.14111328125	n/a	WORD	5658913	wordpools/wasnorm_wordpool_576.txt	LTP341	ltpFR2	7	12	ANTLER	29	n/a	n/a	0	0	0
2765.9560546875	n/a	WORD	5664678	wordpools/wasnorm_wordpool_576.txt	LTP341	ltpFR2	7	12	BUGGY	188	n/a	n/a	0	0	0
2768.52197265625	n/a	WORD	5669933	wordpools/wasnorm_wordpool_576.txt	LTP341	ltpFR2	7	12	MILDEW	893	n/a	n/a	0	0	0
2771.0205078125	n/a	WORD	5675050	wordpools/wasnorm_wordpool_576.txt	LTP341	ltpFR2	7	12	BURGLAR	200	n/a	n/a	0	0	0
2773.7197265625	n/a	WORD	5680578	wordpools/wasnorm_wordpool_576.txt	LTP341	ltpFR2	7	12	OUTLAW	989	n/a	n/a	0	0	0
2775.33544921875	n/a	START	5683887	n/a	LTP341	ltpFR2	7	n/a	n/a	n/a	20	n/a	n/a	n/a	n/a
2776.263671875	n/a	DISTRACTOR	5685788	n/a	LTP341	ltpFR2	7	12	n/a	n/a	n/a	n/a	0	0	0
2776.267578125	n/a	PROB	5685796	n/a	LTP341	ltpFR2	7	n/a	n/a	n/a	20	3	1	1	1
2778.30029296875	n/a	PROB	5689959	n/a	LTP341	ltpFR2	7	n/a	n/a	n/a	20	16	5	7	4
2782.43115234375	n/a	PROB	5698419	n/a	LTP341	ltpFR2	7	n/a	n/a	n/a	20	19	3	7	9
2783.54736328125	n/a	PROB	5700705	n/a	LTP341	ltpFR2	7	n/a	n/a	n/a	20	12	7	4	1
2784.46435546875	n/a	PROB	5702583	n/a	LTP341	ltpFR2	7	n/a	n/a	n/a	20	17	7	8	2
2785.74609375	n/a	PROB	5705208	n/a	LTP341	ltpFR2	7	n/a	n/a	n/a	20	19	6	4	9
2786.92919921875	n/a	PROB	5707631	n/a	LTP341	ltpFR2	7	n/a	n/a	n/a	20	16	6	4	6
2788.578125	n/a	PROB	5711008	n/a	LTP341	ltpFR2	7	n/a	n/a	n/a	20	8	1	5	2
2789.7783203125	n/a	PROB	5713466	n/a	LTP341	ltpFR2	7	n/a	n/a	n/a	20	15	3	5	7
2791.91015625	n/a	PROB	5717832	n/a	LTP341	ltpFR2	7	n/a	n/a	n/a	20	7	1	2	4
2793.06005859375	n/a	PROB	5720187	n/a	LTP341	ltpFR2	7	n/a	n/a	n/a	20	8	1	5	2
2794.52587890625	n/a	PROB	5723189	n/a	LTP341	ltpFR2	7	n/a	n/a	n/a	20	6	2	1	3
2795.64208984375	n/a	PROB	5725475	n/a	LTP341	ltpFR2	7	n/a	n/a	n/a	20	17	7	3	7
2797.1748046875	n/a	PROB	5728614	n/a	LTP341	ltpFR2	7	n/a	n/a	n/a	20	19	9	5	5
2798.27294921875	n/a	STOP	5730863	n/a	LTP341	ltpFR2	7	n/a	n/a	n/a	20	n/a	n/a	n/a	n/a
2801.27294921875	n/a	REC_START	5737007	n/a	LTP341	ltpFR2	7	12	n/a	n/a	n/a	n/a	0	0	0
2801.6806640625	n/a	REC_WORD	5737842	wordpools/wasnorm_wordpool_576.txt	LTP341	ltpFR2	7	12	ANTLER	29	n/a	n/a	0	0	0
2802.52685546875	n/a	REC_WORD	5739575	wordpools/wasnorm_wordpool_576.txt	LTP341	ltpFR2	7	12	BUGGY	188	n/a	n/a	0	0	0
2804.3037109375	n/a	REC_WORD	5743214	wordpools/wasnorm_wordpool_576.txt	LTP341	ltpFR2	7	12	MILDEW	893	n/a	n/a	0	0	0
2805.02490234375	n/a	REC_WORD	5744691	wordpools/wasnorm_wordpool_576.txt	LTP341	ltpFR2	7	12	OUTLAW	989	n/a	n/a	0	0	0
2809.95556640625	n/a	REC_WORD	5754789	wordpools/wasnorm_wordpool_576.txt	LTP341	ltpFR2	7	12	TOMBSTONE	1478	n/a	n/a	0	0	0
2811.130859375	n/a	REC_WORD	5757196	wordpools/wasnorm_wordpool_576.txt	LTP341	ltpFR2	7	12	DUSTPAN	509	n/a	n/a	0	0	0
2813.888671875	n/a	REC_WORD	5762844	wordpools/wasnorm_wordpool_576.txt	LTP341	ltpFR2	7	12	JUNGLE	764	n/a	n/a	0	0	0
2820.03515625	n/a	REC_WORD	5775432	wordpools/wasnorm_wordpool_576.txt	LTP341	ltpFR2	7	12	ZEBRA	1635	n/a	n/a	0	0	0
2820.728515625	n/a	REC_WORD	5776852	wordpools/wasnorm_wordpool_576.txt	LTP341	ltpFR2	7	12	COSTUME	383	n/a	n/a	0	0	0
2821.6884765625	n/a	REC_WORD	5778818	wordpools/wasnorm_wordpool_576.txt	LTP341	ltpFR2	7	12	LEG	809	n/a	n/a	0	0	0
2891.71337890625	n/a	DISTRACTOR	5922229	n/a	LTP341	ltpFR2	7	13	n/a	n/a	n/a	n/a	0	0	0
2891.71337890625	n/a	START	5922229	n/a	LTP341	ltpFR2	7	n/a	n/a	n/a	21	n/a	n/a	n/a	n/a
2891.7294921875	n/a	PROB	5922262	n/a	LTP341	ltpFR2	7	n/a	n/a	n/a	21	19	9	4	6
2893.46142578125	n/a	PROB	5925809	n/a	LTP341	ltpFR2	7	n/a	n/a	n/a	21	14	7	4	3
2894.6953125	n/a	PROB	5928336	n/a	LTP341	ltpFR2	7	n/a	n/a	n/a	21	18	5	8	5
2896.16015625	n/a	PROB	5931336	n/a	LTP341	ltpFR2	7	n/a	n/a	n/a	21	13	3	8	2
2897.2431640625	n/a	PROB	5933554	n/a	LTP341	ltpFR2	7	n/a	n/a	n/a	21	21	6	9	6
2898.64208984375	n/a	PROB	5936419	n/a	LTP341	ltpFR2	7	n/a	n/a	n/a	21	11	3	5	3
2900.025390625	n/a	PROB	5939252	n/a	LTP341	ltpFR2	7	n/a	n/a	n/a	21	23	6	7	9
2901.44140625	n/a	PROB	5942152	n/a	LTP341	ltpFR2	7	n/a	n/a	n/a	21	16	5	6	5
2902.75732421875	n/a	PROB	5944847	n/a	LTP341	ltpFR2	7	n/a	n/a	n/a	21	123	9	8	6
2904.55615234375	n/a	PROB	5948531	n/a	LTP341	ltpFR2	7	n/a	n/a	n/a	21	16	5	9	2
2907.7060546875	n/a	PROB	5954982	n/a	LTP341	ltpFR2	7	n/a	n/a	n/a	21	21	6	8	7
2909.30419921875	n/a	PROB	5958255	n/a	LTP341	ltpFR2	7	n/a	n/a	n/a	21	19	3	7	9
2910.3701171875	n/a	PROB	5960438	n/a	LTP341	ltpFR2	7	n/a	n/a	n/a	21	9	5	3	1
2911.31982421875	n/a	PROB	5962383	n/a	LTP341	ltpFR2	7	n/a	n/a	n/a	21	14	4	2	8
2912.453125	n/a	PROB	5964704	n/a	LTP341	ltpFR2	7	n/a	n/a	n/a	21	18	7	3	8
2913.9677734375	n/a	PROB	5967806	n/a	LTP341	ltpFR2	7	n/a	n/a	n/a	21	17	7	5	5
2915.01806640625	n/a	STOP	5969957	n/a	LTP341	ltpFR2	7	n/a	n/a	n/a	21	n/a	n/a	n/a	n/a
2916.86767578125	n/a	WORD	5973745	wordpools/wasnorm_wordpool_576.txt	LTP341	ltpFR2	7	13	SNAIL	1332	n/a	n/a	0	0	0
2919.3486328125	n/a	WORD	5978826	wordpools/wasnorm_wordpool_576.txt	LTP341	ltpFR2	7	13	TRANSPLANT	1496	n/a	n/a	0	0	0
2921.78173828125	n/a	WORD	5983809	wordpools/wasnorm_wordpool_576.txt	LTP341	ltpFR2	7	13	THREAD	1460	n/a	n/a	0	0	0
2924.396484375	n/a	WORD	5989164	wordpools/wasnorm_wordpool_576.txt	LTP341	ltpFR2	7	13	CABBAGE	210	n/a	n/a	0	0	0
2927.04541015625	n/a	WORD	5994589	wordpools/wasnorm_wordpool_576.txt	LTP341	ltpFR2	7	13	BANQUET	86	n/a	n/a	0	0	0
2929.5947265625	n/a	WORD	5999810	wordpools/wasnorm_wordpool_576.txt	LTP341	ltpFR2	7	13	ARM	38	n/a	n/a	0	0	0
2932.34326171875	n/a	WORD	6005439	wordpools/wasnorm_wordpool_576.txt	LTP341	ltpFR2	7	13	LIVER	833	n/a	n/a	0	0	0
2935.0751953125	n/a	WORD	6011034	wordpools/wasnorm_wordpool_576.txt	LTP341	ltpFR2	7	13	CITRUS	313	n/a	n/a	0	0	0
2937.67431640625	n/a	WORD	6016357	wordpools/wasnorm_wordpool_576.txt	LTP341	ltpFR2	7	13	ORANGE	980	n/a	n/a	0	0	0
2940.30517578125	n/a	WORD	6021745	wordpools/wasnorm_wordpool_576.txt	LTP341	ltpFR2	7	13	CATTLE	261	n/a	n/a	0	0	0
2942.7880859375	n/a	WORD	6026830	wordpools/wasnorm_wordpool_576.txt	LTP341	ltpFR2	7	13	GRAVE	658	n/a	n/a	0	0	0
2945.287109375	n/a	WORD	6031948	wordpools/wasnorm_wordpool_576.txt	LTP341	ltpFR2	7	13	SLIME	1327	n/a	n/a	0	0	0
2947.78515625	n/a	WORD	6037064	wordpools/wasnorm_wordpool_576.txt	LTP341	ltpFR2	7	13	LADDER	793	n/a	n/a	0	0	0
2950.41796875	n/a	WORD	6042456	wordpools/wasnorm_wordpool_576.txt	LTP341	ltpFR2	7	13	SLOPE	1328	n/a	n/a	0	0	0
2952.9658203125	n/a	WORD	6047674	wordpools/wasnorm_wordpool_576.txt	LTP341	ltpFR2	7	13	PEDAL	1037	n/a	n/a	0	0	0
2955.4150390625	n/a	WORD	6052690	wordpools/wasnorm_wordpool_576.txt	LTP341	ltpFR2	7	13	BUTCHER	203	n/a	n/a	0	0	0
2957.86376953125	n/a	WORD	6057705	wordpools/wasnorm_wordpool_576.txt	LTP341	ltpFR2	7	13	SAUSAGE	1238	n/a	n/a	0	0	0
2960.36279296875	n/a	WORD	6062823	wordpools/wasnorm_wordpool_576.txt	LTP341	ltpFR2	7	13	SCARF	1246	n/a	n/a	0	0	0
2962.99462890625	n/a	WORD	6068213	wordpools/wasnorm_wordpool_576.txt	LTP341	ltpFR2	7	13	TORTOISE	1486	n/a	n/a	0	0	0
2965.71142578125	n/a	WORD	6073777	wordpools/wasnorm_wordpool_576.txt	LTP341	ltpFR2	7	13	RACKET	1155	n/a	n/a	0	0	0
2968.3583984375	n/a	WORD	6079198	wordpools/wasnorm_wordpool_576.txt	LTP341	ltpFR2	7	13	ITEM	746	n/a	n/a	0	0	0
2970.82421875	n/a	WORD	6084248	wordpools/wasnorm_wordpool_576.txt	LTP341	ltpFR2	7	13	FARMER	553	n/a	n/a	0	0	0
2973.6064453125	n/a	WORD	6089946	wordpools/wasnorm_wordpool_576.txt	LTP341	ltpFR2	7	13	CABIN	211	n/a	n/a	0	0	0
2976.0380859375	n/a	WORD	6094926	wordpools/wasnorm_wordpool_576.txt	LTP341	ltpFR2	7	13	FEMALE	559	n/a	n/a	0	0	0
2977.654296875	n/a	START	6098236	n/a	LTP341	ltpFR2	7	n/a	n/a	n/a	22	n/a	n/a	n/a	n/a
2978.578125	n/a	DISTRACTOR	6100128	n/a	LTP341	ltpFR2	7	13	n/a	n/a	n/a	n/a	0	0	0
2978.58740234375	n/a	PROB	6100147	n/a	LTP341	ltpFR2	7	n/a	n/a	n/a	22	23	7	7	9
2982.4189453125	n/a	PROB	6107994	n/a	LTP341	ltpFR2	7	n/a	n/a	n/a	22	11	8	2	1
2983.3349609375	n/a	PROB	6109870	n/a	LTP341	ltpFR2	7	n/a	n/a	n/a	22	6	1	2	3
2984.46826171875	n/a	PROB	6112191	n/a	LTP341	ltpFR2	7	n/a	n/a	n/a	22	19	9	8	2
2986.75	n/a	PROB	6116864	n/a	LTP341	ltpFR2	7	n/a	n/a	n/a	22	20	2	9	9
2988.03271484375	n/a	PROB	6119491	n/a	LTP341	ltpFR2	7	n/a	n/a	n/a	22	6	1	4	1
2989.048828125	n/a	PROB	6121572	n/a	LTP341	ltpFR2	7	n/a	n/a	n/a	22	24	9	9	6
2990.48193359375	n/a	PROB	6124507	n/a	LTP341	ltpFR2	7	n/a	n/a	n/a	22	6	2	1	3
2991.5478515625	n/a	PROB	6126690	n/a	LTP341	ltpFR2	7	n/a	n/a	n/a	22	12	7	3	2
2992.4970703125	n/a	PROB	6128634	n/a	LTP341	ltpFR2	7	n/a	n/a	n/a	22	14	5	7	2
2994.0966796875	n/a	PROB	6131910	n/a	LTP341	ltpFR2	7	n/a	n/a	n/a	22	11	7	1	3
2995.19580078125	n/a	PROB	6134161	n/a	LTP341	ltpFR2	7	n/a	n/a	n/a	22	14	3	9	2
2996.478515625	n/a	PROB	6136788	n/a	LTP341	ltpFR2	7	n/a	n/a	n/a	22	12	1	6	5
2997.37890625	n/a	PROB	6138632	n/a	LTP341	ltpFR2	7	n/a	n/a	n/a	22	9	3	5	1
2998.49462890625	n/a	PROB	6140917	n/a	LTP341	ltpFR2	7	n/a	n/a	n/a	22	18	2	7	9
3000.1455078125	n/a	STOP	6144298	n/a	LTP341	ltpFR2	7	n/a	n/a	n/a	22	n/a	n/a	n/a	n/a
3003.54248046875	n/a	REC_START	6151255	n/a	LTP341	ltpFR2	7	13	n/a	n/a	n/a	n/a	0	0	0
3004.04833984375	n/a	REC_WORD	6152291	wordpools/wasnorm_wordpool_576.txt	LTP341	ltpFR2	7	13	ITEM	746	n/a	n/a	0	0	0
3004.640625	n/a	REC_WORD	6153504	wordpools/wasnorm_wordpool_576.txt	LTP341	ltpFR2	7	13	FARMER	553	n/a	n/a	0	0	0
3005.50244140625	n/a	REC_WORD	6155269	wordpools/wasnorm_wordpool_576.txt	LTP341	ltpFR2	7	13	CABIN	211	n/a	n/a	0	0	0
3006.3212890625	n/a	REC_WORD	6156946	wordpools/wasnorm_wordpool_576.txt	LTP341	ltpFR2	7	13	FEMALE	559	n/a	n/a	0	0	0
3015.6142578125	n/a	REC_WORD	6175978	wordpools/wasnorm_wordpool_576.txt	LTP341	ltpFR2	7	13	BANQUET	86	n/a	n/a	0	0	0
3017.541015625	n/a	REC_WORD	6179924	wordpools/wasnorm_wordpool_576.txt	LTP341	ltpFR2	7	13	BUTCHER	203	n/a	n/a	0	0	0
3018.18310546875	n/a	REC_WORD	6181239	wordpools/wasnorm_wordpool_576.txt	LTP341	ltpFR2	7	13	SAUSAGE	1238	n/a	n/a	0	0	0
3019.5732421875	n/a	REC_WORD	6184086	wordpools/wasnorm_wordpool_576.txt	LTP341	ltpFR2	7	13	CATTLE	261	n/a	n/a	0	0	0
3021.01416015625	n/a	REC_WORD	6187037	wordpools/wasnorm_wordpool_576.txt	LTP341	ltpFR2	7	13	ARM	38	n/a	n/a	0	0	0
3023.3271484375	n/a	REC_WORD	6191774	wordpools/wasnorm_wordpool_576.txt	LTP341	ltpFR2	7	13	LADDER	793	n/a	n/a	0	0	0
3024.51318359375	n/a	REC_WORD	6194203	wordpools/wasnorm_wordpool_576.txt	LTP341	ltpFR2	7	13	SLOPE	1328	n/a	n/a	0	0	0
3026.76806640625	n/a	REC_WORD	6198821	wordpools/wasnorm_wordpool_576.txt	LTP341	ltpFR2	7	13	PADDLE	1000	n/a	n/a	0	0	0
3037.83154296875	n/a	REC_WORD	6221479	wordpools/wasnorm_wordpool_576.txt	LTP341	ltpFR2	7	13	TRANSPLANT	1496	n/a	n/a	0	0	0
3039.185546875	n/a	REC_WORD	6224252	wordpools/wasnorm_wordpool_576.txt	LTP341	ltpFR2	7	13	CABBAGE	210	n/a	n/a	0	0	0
3093.998046875	n/a	DISTRACTOR	6336508	n/a	LTP341	ltpFR2	7	14	n/a	n/a	n/a	n/a	0	0	0
3093.9990234375	n/a	START	6336510	n/a	LTP341	ltpFR2	7	n/a	n/a	n/a	23	n/a	n/a	n/a	n/a
3094.01513671875	n/a	PROB	6336543	n/a	LTP341	ltpFR2	7	n/a	n/a	n/a	23	2	9	9	5
3095.69921875	n/a	PROB	6339992	n/a	LTP341	ltpFR2	7	n/a	n/a	n/a	23	16	6	1	9
3096.93017578125	n/a	PROB	6342513	n/a	LTP341	ltpFR2	7	n/a	n/a	n/a	23	15	7	5	3
3098.8798828125	n/a	PROB	6346506	n/a	LTP341	ltpFR2	7	n/a	n/a	n/a	23	1	5	2	9
3100.37890625	n/a	PROB	6349576	n/a	LTP341	ltpFR2	7	n/a	n/a	n/a	23	21	7	8	6
3102.77783203125	n/a	PROB	6354489	n/a	LTP341	ltpFR2	7	n/a	n/a	n/a	23	14	1	8	5
3103.876953125	n/a	PROB	6356740	n/a	LTP341	ltpFR2	7	n/a	n/a	n/a	23	18	6	5	7
3105.60986328125	n/a	PROB	6360289	n/a	LTP341	ltpFR2	7	n/a	n/a	n/a	23	19	3	8	9
3106.92578125	n/a	PROB	6362984	n/a	LTP341	ltpFR2	7	n/a	n/a	n/a	23	20	8	3	9
3108.44189453125	n/a	PROB	6366089	n/a	LTP341	ltpFR2	7	n/a	n/a	n/a	23	18	7	7	4
3109.77490234375	n/a	PROB	6368819	n/a	LTP341	ltpFR2	7	n/a	n/a	n/a	23	16	1	8	7
3111.0908203125	n/a	PROB	6371514	n/a	LTP341	ltpFR2	7	n/a	n/a	n/a	23	12	3	7	2
3112.03955078125	n/a	PROB	6373457	n/a	LTP341	ltpFR2	7	n/a	n/a	n/a	23	24	9	6	9
3113.65673828125	n/a	PROB	6376769	n/a	LTP341	ltpFR2	7	n/a	n/a	n/a	23	16	7	5	4
3115.5546875	n/a	PROB	6380656	n/a	LTP341	ltpFR2	7	n/a	n/a	n/a	23	12	3	3	6
3116.53076171875	n/a	STOP	6382655	n/a	LTP341	ltpFR2	7	n/a	n/a	n/a	23	n/a	n/a	n/a	n/a
3119.01953125	n/a	WORD	6387752	wordpools/wasnorm_wordpool_576.txt	LTP341	ltpFR2	7	14	LACE	792	n/a	n/a	0	0	0
3121.46826171875	n/a	WORD	6392767	wordpools/wasnorm_wordpool_576.txt	LTP341	ltpFR2	7	14	VENUS	1557	n/a	n/a	0	0	0
3123.984375	n/a	WORD	6397920	wordpools/wasnorm_wordpool_576.txt	LTP341	ltpFR2	7	14	RATTLE	1170	n/a	n/a	0	0	0
3126.51611328125	n/a	WORD	6403105	wordpools/wasnorm_wordpool_576.txt	LTP341	ltpFR2	7	14	PEANUT	1032	n/a	n/a	0	0	0
3129.21533203125	n/a	WORD	6408633	wordpools/wasnorm_wordpool_576.txt	LTP341	ltpFR2	7	14	FOX	598	n/a	n/a	0	0	0
3131.89697265625	n/a	WORD	6414125	wordpools/wasnorm_wordpool_576.txt	LTP341	ltpFR2	7	14	COURSE	390	n/a	n/a	0	0	0
3134.39599609375	n/a	WORD	6419243	wordpools/wasnorm_wordpool_576.txt	LTP341	ltpFR2	7	14	SHOVEL	1295	n/a	n/a	0	0	0
3136.9609375	n/a	WORD	6424496	wordpools/wasnorm_wordpool_576.txt	LTP341	ltpFR2	7	14	ASIA	46	n/a	n/a	0	0	0
3139.759765625	n/a	WORD	6430228	wordpools/wasnorm_wordpool_576.txt	LTP341	ltpFR2	7	14	MOTEL	919	n/a	n/a	0	0	0
3142.35888671875	n/a	WORD	6435551	wordpools/wasnorm_wordpool_576.txt	LTP341	ltpFR2	7	14	GROUND	666	n/a	n/a	0	0	0
3144.875	n/a	WORD	6440704	wordpools/wasnorm_wordpool_576.txt	LTP341	ltpFR2	7	14	CARRIAGE	248	n/a	n/a	0	0	0
3147.32275390625	n/a	WORD	6445717	wordpools/wasnorm_wordpool_576.txt	LTP341	ltpFR2	7	14	EYELASH	546	n/a	n/a	0	0	0
3149.9716796875	n/a	WORD	6451142	wordpools/wasnorm_wordpool_576.txt	LTP341	ltpFR2	7	14	FRECKLE	602	n/a	n/a	0	0	0
3152.50341796875	n/a	WORD	6456327	wordpools/wasnorm_wordpool_576.txt	LTP341	ltpFR2	7	14	PLUTO	1092	n/a	n/a	0	0	0
3155.28564453125	n/a	WORD	6462025	wordpools/wasnorm_wordpool_576.txt	LTP341	ltpFR2	7	14	SKETCH	1315	n/a	n/a	0	0	0
3157.984375	n/a	WORD	6467552	wordpools/wasnorm_wordpool_576.txt	LTP341	ltpFR2	7	14	PRIMATE	1123	n/a	n/a	0	0	0
3160.56640625	n/a	WORD	6472840	wordpools/wasnorm_wordpool_576.txt	LTP341	ltpFR2	7	14	PERCH	1048	n/a	n/a	0	0	0
3163.01513671875	n/a	WORD	6477855	wordpools/wasnorm_wordpool_576.txt	LTP341	ltpFR2	7	14	OYSTER	995	n/a	n/a	0	0	0
3165.830078125	n/a	WORD	6483620	wordpools/wasnorm_wordpool_576.txt	LTP341	ltpFR2	7	14	CYCLONE	431	n/a	n/a	0	0	0
3168.36328125	n/a	WORD	6488808	wordpools/wasnorm_wordpool_576.txt	LTP341	ltpFR2	7	14	PUDDLE	1140	n/a	n/a	0	0	0
3170.84521484375	n/a	WORD	6493891	wordpools/wasnorm_wordpool_576.txt	LTP341	ltpFR2	7	14	LAKE	796	n/a	n/a	0	0	0
3173.64404296875	n/a	WORD	6499623	wordpools/wasnorm_wordpool_576.txt	LTP341	ltpFR2	7	14	BUCKET	184	n/a	n/a	0	0	0
3176.2421875	n/a	WORD	6504944	wordpools/wasnorm_wordpool_576.txt	LTP341	ltpFR2	7	14	LIZARD	834	n/a	n/a	0	0	0
3178.89111328125	n/a	WORD	6510369	wordpools/wasnorm_wordpool_576.txt	LTP341	ltpFR2	7	14	BROOK	177	n/a	n/a	0	0	0
3180.5068359375	n/a	START	6513678	n/a	LTP341	ltpFR2	7	n/a	n/a	n/a	24	n/a	n/a	n/a	n/a
3181.31298828125	n/a	DISTRACTOR	6515329	n/a	LTP341	ltpFR2	7	14	n/a	n/a	n/a	n/a	0	0	0
3181.32275390625	n/a	PROB	6515349	n/a	LTP341	ltpFR2	7	n/a	n/a	n/a	24	14	8	1	5
3184.02197265625	n/a	PROB	6520877	n/a	LTP341	ltpFR2	7	n/a	n/a	n/a	24	14	5	7	2
3188.91943359375	n/a	PROB	6530907	n/a	LTP341	ltpFR2	7	n/a	n/a	n/a	24	12	2	1	9
3189.81982421875	n/a	PROB	6532751	n/a	LTP341	ltpFR2	7	n/a	n/a	n/a	24	8	4	1	3
3191.185546875	n/a	PROB	6535548	n/a	LTP341	ltpFR2	7	n/a	n/a	n/a	24	8	5	2	1
3192.53466796875	n/a	PROB	6538311	n/a	LTP341	ltpFR2	7	n/a	n/a	n/a	24	16	1	8	7
3193.70166015625	n/a	PROB	6540701	n/a	LTP341	ltpFR2	7	n/a	n/a	n/a	24	22	9	5	8
3195.3994140625	n/a	PROB	6544178	n/a	LTP341	ltpFR2	7	n/a	n/a	n/a	24	10	3	5	2
3196.58251953125	n/a	PROB	6546601	n/a	LTP341	ltpFR2	7	n/a	n/a	n/a	24	22	5	8	9
3197.9482421875	n/a	PROB	6549398	n/a	LTP341	ltpFR2	7	n/a	n/a	n/a	24	11	7	2	2
3199.08154296875	n/a	PROB	6551719	n/a	LTP341	ltpFR2	7	n/a	n/a	n/a	24	17	7	3	7
3200.34716796875	n/a	PROB	6554311	n/a	LTP341	ltpFR2	7	n/a	n/a	n/a	24	17	6	7	4
3202.0302734375	n/a	PROB	6557758	n/a	LTP341	ltpFR2	7	n/a	n/a	n/a	24	10	2	4	4
3203.53125	n/a	STOP	6560832	n/a	LTP341	ltpFR2	7	n/a	n/a	n/a	24	n/a	n/a	n/a	n/a
3206.39501953125	n/a	REC_START	6566697	n/a	LTP341	ltpFR2	7	14	n/a	n/a	n/a	n/a	0	0	0
3206.7353515625	n/a	REC_WORD	6567394	wordpools/wasnorm_wordpool_576.txt	LTP341	ltpFR2	7	14	PUDDLE	1140	n/a	n/a	0	0	0
3207.4091796875	n/a	REC_WORD	6568774	wordpools/wasnorm_wordpool_576.txt	LTP341	ltpFR2	7	14	LAKE	796	n/a	n/a	0	0	0
3208.05029296875	n/a	REC_WORD	6570087	wordpools/wasnorm_wordpool_576.txt	LTP341	ltpFR2	7	14	BLIZZARD	-1	n/a	n/a	0	0	0
3208.8251953125	n/a	REC_WORD	6571674	wordpools/wasnorm_wordpool_576.txt	LTP341	ltpFR2	7	14	BROOK	177	n/a	n/a	0	0	0
3211.43701171875	n/a	REC_WORD	6577023	wordpools/wasnorm_wordpool_576.txt	LTP341	ltpFR2	7	14	VENUS	1557	n/a	n/a	0	0	0
3212.19384765625	n/a	REC_WORD	6578573	wordpools/wasnorm_wordpool_576.txt	LTP341	ltpFR2	7	14	LACE	792	n/a	n/a	0	0	0
3216.47802734375	n/a	REC_WORD	6587347	wordpools/wasnorm_wordpool_576.txt	LTP341	ltpFR2	7	14	SHOVEL	1295	n/a	n/a	0	0	0
3218.22705078125	n/a	REC_WORD	6590929	wordpools/wasnorm_wordpool_576.txt	LTP341	ltpFR2	7	14	COURSE	390	n/a	n/a	0	0	0
3220.7158203125	n/a	REC_WORD	6596026	wordpools/wasnorm_wordpool_576.txt	LTP341	ltpFR2	7	14	ASIA	46	n/a	n/a	0	0	0
3222.5478515625	n/a	REC_WORD	6599778	wordpools/wasnorm_wordpool_576.txt	LTP341	ltpFR2	7	14	MOTEL	919	n/a	n/a	0	0	0
3225.71142578125	n/a	REC_WORD	6606257	wordpools/wasnorm_wordpool_576.txt	LTP341	ltpFR2	7	14	SKETCH	1315	n/a	n/a	0	0	0
3226.90576171875	n/a	REC_WORD	6608703	wordpools/wasnorm_wordpool_576.txt	LTP341	ltpFR2	7	14	PLUTO	1092	n/a	n/a	0	0	0
3228.53564453125	n/a	REC_WORD	6612041	wordpools/wasnorm_wordpool_576.txt	LTP341	ltpFR2	7	14	PRIMATE	1123	n/a	n/a	0	0	0
3229.4755859375	n/a	REC_WORD	6613966	wordpools/wasnorm_wordpool_576.txt	LTP341	ltpFR2	7	14	OYSTER	995	n/a	n/a	0	0	0
3296.8349609375	n/a	WORD	6751918	wordpools/wasnorm_wordpool_576.txt	LTP341	ltpFR2	7	15	NAPKIN	937	n/a	n/a	0	0	0
3299.466796875	n/a	WORD	6757308	wordpools/wasnorm_wordpool_576.txt	LTP341	ltpFR2	7	15	MEDAL	885	n/a	n/a	0	0	0
3302.16455078125	n/a	WORD	6762833	wordpools/wasnorm_wordpool_576.txt	LTP341	ltpFR2	7	15	LION	827	n/a	n/a	0	0	0
3304.88037109375	n/a	WORD	6768395	wordpools/wasnorm_wordpool_576.txt	LTP341	ltpFR2	7	15	YACHT	1629	n/a	n/a	0	0	0
3307.66357421875	n/a	WORD	6774095	wordpools/wasnorm_wordpool_576.txt	LTP341	ltpFR2	7	15	NECKLACE	940	n/a	n/a	0	0	0
3310.34423828125	n/a	WORD	6779585	wordpools/wasnorm_wordpool_576.txt	LTP341	ltpFR2	7	15	BISON	131	n/a	n/a	0	0	0
3313.09326171875	n/a	WORD	6785215	wordpools/wasnorm_wordpool_576.txt	LTP341	ltpFR2	7	15	ICING	732	n/a	n/a	0	0	0
3315.525390625	n/a	WORD	6790196	wordpools/wasnorm_wordpool_576.txt	LTP341	ltpFR2	7	15	LODGE	839	n/a	n/a	0	0	0
3318.30712890625	n/a	WORD	6795893	wordpools/wasnorm_wordpool_576.txt	LTP341	ltpFR2	7	15	TAXI	1438	n/a	n/a	0	0	0
3320.7392578125	n/a	WORD	6800874	wordpools/wasnorm_wordpool_576.txt	LTP341	ltpFR2	7	15	BANJO	82	n/a	n/a	0	0	0
3323.2548828125	n/a	WORD	6806026	wordpools/wasnorm_wordpool_576.txt	LTP341	ltpFR2	7	15	RADISH	1158	n/a	n/a	0	0	0
3325.8701171875	n/a	WORD	6811382	wordpools/wasnorm_wordpool_576.txt	LTP341	ltpFR2	7	15	BACON	67	n/a	n/a	0	0	0
3328.302734375	n/a	WORD	6816364	wordpools/wasnorm_wordpool_576.txt	LTP341	ltpFR2	7	15	OMELET	976	n/a	n/a	0	0	0
3330.7509765625	n/a	WORD	6821378	wordpools/wasnorm_wordpool_576.txt	LTP341	ltpFR2	7	15	PADDLE	1000	n/a	n/a	0	0	0
3333.43359375	n/a	WORD	6826872	wordpools/wasnorm_wordpool_576.txt	LTP341	ltpFR2	7	15	MAPLE	866	n/a	n/a	0	0	0
3336.015625	n/a	WORD	6832160	wordpools/wasnorm_wordpool_576.txt	LTP341	ltpFR2	7	15	HEDGE	699	n/a	n/a	0	0	0
3338.46484375	n/a	WORD	6837176	wordpools/wasnorm_wordpool_576.txt	LTP341	ltpFR2	7	15	MONEY	908	n/a	n/a	0	0	0
3341.0634765625	n/a	WORD	6842498	wordpools/wasnorm_wordpool_576.txt	LTP341	ltpFR2	7	15	KETCHUP	771	n/a	n/a	0	0	0
3343.71142578125	n/a	WORD	6847921	wordpools/wasnorm_wordpool_576.txt	LTP341	ltpFR2	7	15	JURY	766	n/a	n/a	0	0	0
3346.14453125	n/a	WORD	6852904	wordpools/wasnorm_wordpool_576.txt	LTP341	ltpFR2	7	15	DRINK	498	n/a	n/a	0	0	0
3348.9091796875	n/a	WORD	6858566	wordpools/wasnorm_wordpool_576.txt	LTP341	ltpFR2	7	15	REPORT	1184	n/a	n/a	0	0	0
3351.6591796875	n/a	WORD	6864198	wordpools/wasnorm_wordpool_576.txt	LTP341	ltpFR2	7	15	DORM	488	n/a	n/a	0	0	0
3354.2734375	n/a	WORD	6869552	wordpools/wasnorm_wordpool_576.txt	LTP341	ltpFR2	7	15	COTTAGE	384	n/a	n/a	0	0	0
3356.85498046875	n/a	WORD	6874839	wordpools/wasnorm_wordpool_576.txt	LTP341	ltpFR2	7	15	CRAB	397	n/a	n/a	0	0	0
3358.47216796875	n/a	START	6878151	n/a	LTP341	ltpFR2	7	n/a	n/a	n/a	25	n/a	n/a	n/a	n/a
3359.30126953125	n/a	DISTRACTOR	6879849	n/a	LTP341	ltpFR2	7	15	n/a	n/a	n/a	n/a	0	0	0
3359.30419921875	n/a	PROB	6879855	n/a	LTP341	ltpFR2	7	n/a	n/a	n/a	25	23	5	9	9
3362.38623046875	n/a	PROB	6886167	n/a	LTP341	ltpFR2	7	n/a	n/a	n/a	25	11	2	4	5
3364.03515625	n/a	PROB	6889544	n/a	LTP341	ltpFR2	7	n/a	n/a	n/a	25	17	8	8	1
3365.384765625	n/a	PROB	6892308	n/a	LTP341	ltpFR2	7	n/a	n/a	n/a	25	15	7	4	4
3366.73388671875	n/a	PROB	6895071	n/a	LTP341	ltpFR2	7	n/a	n/a	n/a	25	15	6	4	5
3368.06689453125	n/a	PROB	6897801	n/a	LTP341	ltpFR2	7	n/a	n/a	n/a	25	14	4	3	7
3369.2158203125	n/a	PROB	6900154	n/a	LTP341	ltpFR2	7	n/a	n/a	n/a	25	19	2	8	9
3370.33203125	n/a	PROB	6902440	n/a	LTP341	ltpFR2	7	n/a	n/a	n/a	25	20	7	6	7
3372.61474609375	n/a	PROB	6907115	n/a	LTP341	ltpFR2	7	n/a	n/a	n/a	25	14	7	2	5
3373.74755859375	n/a	PROB	6909435	n/a	LTP341	ltpFR2	7	n/a	n/a	n/a	25	20	8	7	5
3375.2294921875	n/a	PROB	6912470	n/a	LTP341	ltpFR2	7	n/a	n/a	n/a	25	12	2	6	4
3376.2626953125	n/a	PROB	6914586	n/a	LTP341	ltpFR2	7	n/a	n/a	n/a	25	15	5	8	2
3377.71240234375	n/a	PROB	6917555	n/a	LTP341	ltpFR2	7	n/a	n/a	n/a	25	20	9	3	8
3379.26171875	n/a	PROB	6920728	n/a	LTP341	ltpFR2	7	n/a	n/a	n/a	25	17	6	3	8
3380.74365234375	n/a	PROB	6923763	n/a	LTP341	ltpFR2	7	n/a	n/a	n/a	25	12	5	5	2
3381.54736328125	n/a	STOP	6925409	n/a	LTP341	ltpFR2	7	n/a	n/a	n/a	25	n/a	n/a	n/a	n/a
3384.2265625	n/a	REC_START	6930896	n/a	LTP341	ltpFR2	7	15	n/a	n/a	n/a	n/a	0	0	0
3384.5322265625	n/a	REC_WORD	6931522	wordpools/wasnorm_wordpool_576.txt	LTP341	ltpFR2	7	15	DRINK	498	n/a	n/a	0	0	0
3384.9794921875	n/a	REC_WORD_VV	6932438	wordpools/wasnorm_wordpool_576.txt	LTP341	ltpFR2	7	15	<>	-1	n/a	n/a	0	0	0
3385.50341796875	n/a	REC_WORD	6933511	wordpools/wasnorm_wordpool_576.txt	LTP341	ltpFR2	7	15	REPORT	1184	n/a	n/a	0	0	0
3386.33447265625	n/a	REC_WORD	6935213	wordpools/wasnorm_wordpool_576.txt	LTP341	ltpFR2	7	15	DORM	488	n/a	n/a	0	0	0
3387.099609375	n/a	REC_WORD	6936780	wordpools/wasnorm_wordpool_576.txt	LTP341	ltpFR2	7	15	CRAB	397	n/a	n/a	0	0	0
3399.51806640625	n/a	REC_WORD	6962213	wordpools/wasnorm_wordpool_576.txt	LTP341	ltpFR2	7	15	NAPKIN	937	n/a	n/a	0	0	0
3400.60498046875	n/a	REC_WORD	6964439	wordpools/wasnorm_wordpool_576.txt	LTP341	ltpFR2	7	15	MEDAL	885	n/a	n/a	0	0	0
3401.35107421875	n/a	REC_WORD	6965967	wordpools/wasnorm_wordpool_576.txt	LTP341	ltpFR2	7	15	NECKLACE	940	n/a	n/a	0	0	0
3403.80078125	n/a	REC_WORD	6970984	wordpools/wasnorm_wordpool_576.txt	LTP341	ltpFR2	7	15	YACHT	1629	n/a	n/a	0	0	0
3405.94580078125	n/a	REC_WORD	6975377	wordpools/wasnorm_wordpool_576.txt	LTP341	ltpFR2	7	15	PADDLE	1000	n/a	n/a	0	0	0
3411.083984375	n/a	REC_WORD	6985900	wordpools/wasnorm_wordpool_576.txt	LTP341	ltpFR2	7	15	LION	827	n/a	n/a	0	0	0
3422.02734375	n/a	REC_WORD	7008312	wordpools/wasnorm_wordpool_576.txt	LTP341	ltpFR2	7	15	MONEY	908	n/a	n/a	0	0	0
3423.42529296875	n/a	REC_WORD	7011175	wordpools/wasnorm_wordpool_576.txt	LTP341	ltpFR2	7	15	BANJO	82	n/a	n/a	0	0	0
3427.13623046875	n/a	REC_WORD	7018775	wordpools/wasnorm_wordpool_576.txt	LTP341	ltpFR2	7	15	TAXI	1438	n/a	n/a	0	0	0
3442.23095703125	n/a	REC_WORD	7049689	wordpools/wasnorm_wordpool_576.txt	LTP341	ltpFR2	7	15	OMELET	976	n/a	n/a	0	0	0
3448.671875	n/a	REC_WORD	7062880	wordpools/wasnorm_wordpool_576.txt	LTP341	ltpFR2	7	15	BACON	67	n/a	n/a	0	0	0
3454.23779296875	n/a	REC_WORD	7074279	wordpools/wasnorm_wordpool_576.txt	LTP341	ltpFR2	7	15	RADISH	1158	n/a	n/a	0	0	0
3457.70068359375	n/a	REC_WORD_VV	7081371	wordpools/wasnorm_wordpool_576.txt	LTP341	ltpFR2	7	15	<>	-1	n/a	n/a	0	0	0
