onset	duration	trial_type	sample	stim_file	subject	experiment	session	trial	item_name	item_num	list	answer	test_x	test_y	test_z
220.88	n/a	SESS_START	110440	n/a	LTP187	ltpFR2	6	n/a	n/a	n/a	n/a	n/a	0	0	0
235.276	n/a	START	117638	n/a	LTP187	ltpFR2	6	n/a	n/a	n/a	-1	n/a	n/a	n/a	n/a
235.292	n/a	PROB	117646	n/a	LTP187	ltpFR2	6	n/a	n/a	n/a	-1	10	4	4	2
236.778	n/a	PROB	118389	n/a	LTP187	ltpFR2	6	n/a	n/a	n/a	-1	11	4	4	3
238.596	n/a	PROB	119298	n/a	LTP187	ltpFR2	6	n/a	n/a	n/a	-1	13	4	4	5
240.43	n/a	PROB	120215	n/a	LTP187	ltpFR2	6	n/a	n/a	n/a	-1	12	3	6	3
242.016	n/a	PROB	121008	n/a	LTP187	ltpFR2	6	n/a	n/a	n/a	-1	17	8	4	5
243.502	n/a	PROB	121751	n/a	LTP187	ltpFR2	6	n/a	n/a	n/a	-1	10	3	2	5
244.834	n/a	PROB	122417	n/a	LTP187	ltpFR2	6	n/a	n/a	n/a	-1	12	3	3	6
246.3	n/a	STOP	123150	n/a	LTP187	ltpFR2	6	n/a	n/a	n/a	-1	n/a	n/a	n/a	n/a
283.602	n/a	WORD	141801	wordpools/wasnorm_wordpool_576.txt	LTP187	ltpFR2	6	1	POPCORN	1104	n/a	n/a	0	0	0
286.086	n/a	WORD	143043	wordpools/wasnorm_wordpool_576.txt	LTP187	ltpFR2	6	1	CATCHER	258	n/a	n/a	0	0	0
288.704	n/a	WORD	144352	wordpools/wasnorm_wordpool_576.txt	LTP187	ltpFR2	6	1	GAVEL	627	n/a	n/a	0	0	0
291.206	n/a	WORD	145603	wordpools/wasnorm_wordpool_576.txt	LTP187	ltpFR2	6	1	DIVER	476	n/a	n/a	0	0	0
293.84	n/a	WORD	146920	wordpools/wasnorm_wordpool_576.txt	LTP187	ltpFR2	6	1	MARINE	869	n/a	n/a	0	0	0
296.378	n/a	WORD	148189	wordpools/wasnorm_wordpool_576.txt	LTP187	ltpFR2	6	1	MAPLE	866	n/a	n/a	0	0	0
298.996	n/a	WORD	149498	wordpools/wasnorm_wordpool_576.txt	LTP187	ltpFR2	6	1	TWIG	1527	n/a	n/a	0	0	0
301.464	n/a	WORD	150732	wordpools/wasnorm_wordpool_576.txt	LTP187	ltpFR2	6	1	ARMY	39	n/a	n/a	0	0	0
303.934	n/a	WORD	151967	wordpools/wasnorm_wordpool_576.txt	LTP187	ltpFR2	6	1	FILM	565	n/a	n/a	0	0	0
306.704	n/a	WORD	153352	wordpools/wasnorm_wordpool_576.txt	LTP187	ltpFR2	6	1	VIKING	1565	n/a	n/a	0	0	0
309.138	n/a	WORD	154569	wordpools/wasnorm_wordpool_576.txt	LTP187	ltpFR2	6	1	SISTER	1312	n/a	n/a	0	0	0
311.626	n/a	WORD	155813	wordpools/wasnorm_wordpool_576.txt	LTP187	ltpFR2	6	1	CYCLONE	431	n/a	n/a	0	0	0
314.342	n/a	WORD	157171	wordpools/wasnorm_wordpool_576.txt	LTP187	ltpFR2	6	1	CRITIC	410	n/a	n/a	0	0	0
316.826	n/a	WORD	158413	wordpools/wasnorm_wordpool_576.txt	LTP187	ltpFR2	6	1	BUG	187	n/a	n/a	0	0	0
319.262	n/a	WORD	159631	wordpools/wasnorm_wordpool_576.txt	LTP187	ltpFR2	6	1	ACTRESS	6	n/a	n/a	0	0	0
322.048	n/a	WORD	161024	wordpools/wasnorm_wordpool_576.txt	LTP187	ltpFR2	6	1	JUDGE	761	n/a	n/a	0	0	0
324.748	n/a	WORD	162374	wordpools/wasnorm_wordpool_576.txt	LTP187	ltpFR2	6	1	GREASE	660	n/a	n/a	0	0	0
327.168	n/a	WORD	163584	wordpools/wasnorm_wordpool_576.txt	LTP187	ltpFR2	6	1	WIDOW	1608	n/a	n/a	0	0	0
329.64	n/a	WORD	164820	wordpools/wasnorm_wordpool_576.txt	LTP187	ltpFR2	6	1	TRUCK	1512	n/a	n/a	0	0	0
332.194	n/a	WORD	166097	wordpools/wasnorm_wordpool_576.txt	LTP187	ltpFR2	6	1	BIKE	125	n/a	n/a	0	0	0
334.712	n/a	WORD	167356	wordpools/wasnorm_wordpool_576.txt	LTP187	ltpFR2	6	1	ICING	732	n/a	n/a	0	0	0
337.31	n/a	WORD	168655	wordpools/wasnorm_wordpool_576.txt	LTP187	ltpFR2	6	1	SOFTBALL	1343	n/a	n/a	0	0	0
339.984	n/a	WORD	169992	wordpools/wasnorm_wordpool_576.txt	LTP187	ltpFR2	6	1	RACKET	1155	n/a	n/a	0	0	0
342.798	n/a	WORD	171399	wordpools/wasnorm_wordpool_576.txt	LTP187	ltpFR2	6	1	NECKLACE	940	n/a	n/a	0	0	0
344.406	n/a	START	172203	n/a	LTP187	ltpFR2	6	n/a	n/a	n/a	1	n/a	n/a	n/a	n/a
345.296	n/a	DISTRACTOR	172648	n/a	LTP187	ltpFR2	6	1	n/a	n/a	n/a	n/a	0	0	0
345.3	n/a	PROB	172650	n/a	LTP187	ltpFR2	6	n/a	n/a	n/a	1	8	3	2	3
346.984	n/a	PROB	173492	n/a	LTP187	ltpFR2	6	n/a	n/a	n/a	1	19	7	9	3
348.718	n/a	PROB	174359	n/a	LTP187	ltpFR2	6	n/a	n/a	n/a	1	15	6	4	5
349.852	n/a	PROB	174926	n/a	LTP187	ltpFR2	6	n/a	n/a	n/a	1	15	3	5	7
351.288	n/a	PROB	175644	n/a	LTP187	ltpFR2	6	n/a	n/a	n/a	1	16	6	6	4
352.522	n/a	PROB	176261	n/a	LTP187	ltpFR2	6	n/a	n/a	n/a	1	15	8	1	6
353.756	n/a	PROB	176878	n/a	LTP187	ltpFR2	6	n/a	n/a	n/a	1	17	7	4	6
355.256	n/a	PROB	177628	n/a	LTP187	ltpFR2	6	n/a	n/a	n/a	1	18	7	7	4
356.772	n/a	PROB	178386	n/a	LTP187	ltpFR2	6	n/a	n/a	n/a	1	14	3	8	3
358.176	n/a	PROB	179088	n/a	LTP187	ltpFR2	6	n/a	n/a	n/a	1	18	9	5	4
359.808	n/a	PROB	179904	n/a	LTP187	ltpFR2	6	n/a	n/a	n/a	1	17	8	2	7
360.81	n/a	PROB	180405	n/a	LTP187	ltpFR2	6	n/a	n/a	n/a	1	17	1	9	7
361.762	n/a	PROB	180881	n/a	LTP187	ltpFR2	6	n/a	n/a	n/a	1	19	7	5	7
363.046	n/a	PROB	181523	n/a	LTP187	ltpFR2	6	n/a	n/a	n/a	1	12	3	4	5
364.932	n/a	PROB	182466	n/a	LTP187	ltpFR2	6	n/a	n/a	n/a	1	6	1	3	2
366.216	n/a	PROB	183108	n/a	LTP187	ltpFR2	6	n/a	n/a	n/a	1	14	1	6	7
367.552	n/a	STOP	183776	n/a	LTP187	ltpFR2	6	n/a	n/a	n/a	1	n/a	n/a	n/a	n/a
370.286	n/a	REC_START	185143	n/a	LTP187	ltpFR2	6	1	n/a	n/a	n/a	n/a	0	0	0
372.702	n/a	REC_WORD	186351	wordpools/wasnorm_wordpool_576.txt	LTP187	ltpFR2	6	1	POPCORN	1104	n/a	n/a	0	0	0
374.3	n/a	REC_WORD	187150	wordpools/wasnorm_wordpool_576.txt	LTP187	ltpFR2	6	1	CATCHER	258	n/a	n/a	0	0	0
375.926	n/a	REC_WORD	187963	wordpools/wasnorm_wordpool_576.txt	LTP187	ltpFR2	6	1	GAVEL	627	n/a	n/a	0	0	0
378.22	n/a	REC_WORD	189110	wordpools/wasnorm_wordpool_576.txt	LTP187	ltpFR2	6	1	DIVER	476	n/a	n/a	0	0	0
379.526	n/a	REC_WORD	189763	wordpools/wasnorm_wordpool_576.txt	LTP187	ltpFR2	6	1	MARINE	869	n/a	n/a	0	0	0
380.97	n/a	REC_WORD	190485	wordpools/wasnorm_wordpool_576.txt	LTP187	ltpFR2	6	1	TWIG	1527	n/a	n/a	0	0	0
382.218	n/a	REC_WORD	191109	wordpools/wasnorm_wordpool_576.txt	LTP187	ltpFR2	6	1	ARMY	39	n/a	n/a	0	0	0
383.634	n/a	REC_WORD	191817	wordpools/wasnorm_wordpool_576.txt	LTP187	ltpFR2	6	1	VIKING	1565	n/a	n/a	0	0	0
385.692	n/a	REC_WORD	192846	wordpools/wasnorm_wordpool_576.txt	LTP187	ltpFR2	6	1	BUG	187	n/a	n/a	0	0	0
386.846	n/a	REC_WORD	193423	wordpools/wasnorm_wordpool_576.txt	LTP187	ltpFR2	6	1	FILM	565	n/a	n/a	0	0	0
395.06	n/a	REC_WORD	197530	wordpools/wasnorm_wordpool_576.txt	LTP187	ltpFR2	6	1	JUDGE	761	n/a	n/a	0	0	0
396.594	n/a	REC_WORD	198297	wordpools/wasnorm_wordpool_576.txt	LTP187	ltpFR2	6	1	CRITIC	410	n/a	n/a	0	0	0
397.976	n/a	REC_WORD	198988	wordpools/wasnorm_wordpool_576.txt	LTP187	ltpFR2	6	1	ACTRESS	6	n/a	n/a	0	0	0
399.31	n/a	REC_WORD	199655	wordpools/wasnorm_wordpool_576.txt	LTP187	ltpFR2	6	1	SISTER	1312	n/a	n/a	0	0	0
400.77	n/a	REC_WORD	200385	wordpools/wasnorm_wordpool_576.txt	LTP187	ltpFR2	6	1	CYCLONE	431	n/a	n/a	0	0	0
411.5	n/a	REC_WORD	205750	wordpools/wasnorm_wordpool_576.txt	LTP187	ltpFR2	6	1	RACKET	1155	n/a	n/a	0	0	0
460.704	n/a	DISTRACTOR	230352	n/a	LTP187	ltpFR2	6	2	n/a	n/a	n/a	n/a	0	0	0
460.704	n/a	START	230352	n/a	LTP187	ltpFR2	6	n/a	n/a	n/a	2	n/a	n/a	n/a	n/a
460.722	n/a	PROB	230361	n/a	LTP187	ltpFR2	6	n/a	n/a	n/a	2	18	9	8	1
462.522	n/a	PROB	231261	n/a	LTP187	ltpFR2	6	n/a	n/a	n/a	2	21	8	7	6
464.942	n/a	PROB	232471	n/a	LTP187	ltpFR2	6	n/a	n/a	n/a	2	6	3	2	1
466.16	n/a	PROB	233080	n/a	LTP187	ltpFR2	6	n/a	n/a	n/a	2	15	6	1	8
467.578	n/a	PROB	233789	n/a	LTP187	ltpFR2	6	n/a	n/a	n/a	2	11	2	6	3
469.044	n/a	PROB	234522	n/a	LTP187	ltpFR2	6	n/a	n/a	n/a	2	17	8	8	1
470.312	n/a	PROB	235156	n/a	LTP187	ltpFR2	6	n/a	n/a	n/a	2	8	4	1	3
471.63	n/a	PROB	235815	n/a	LTP187	ltpFR2	6	n/a	n/a	n/a	2	16	8	3	5
472.764	n/a	PROB	236382	n/a	LTP187	ltpFR2	6	n/a	n/a	n/a	2	10	2	7	1
474.348	n/a	PROB	237174	n/a	LTP187	ltpFR2	6	n/a	n/a	n/a	2	13	8	3	2
475.816	n/a	PROB	237908	n/a	LTP187	ltpFR2	6	n/a	n/a	n/a	2	16	8	5	3
477.37	n/a	PROB	238685	n/a	LTP187	ltpFR2	6	n/a	n/a	n/a	2	22	4	9	9
479.004	n/a	PROB	239502	n/a	LTP187	ltpFR2	6	n/a	n/a	n/a	2	16	9	2	5
480.122	n/a	PROB	240061	n/a	LTP187	ltpFR2	6	n/a	n/a	n/a	2	13	9	1	3
481.622	n/a	PROB	240811	n/a	LTP187	ltpFR2	6	n/a	n/a	n/a	2	18	9	4	5
483.396	n/a	STOP	241698	n/a	LTP187	ltpFR2	6	n/a	n/a	n/a	2	n/a	n/a	n/a	n/a
485.774	n/a	WORD	242887	wordpools/wasnorm_wordpool_576.txt	LTP187	ltpFR2	6	2	SPARROW	1347	n/a	n/a	0	0	0
488.296	n/a	WORD	244148	wordpools/wasnorm_wordpool_576.txt	LTP187	ltpFR2	6	2	COUCH	386	n/a	n/a	0	0	0
490.78	n/a	WORD	245390	wordpools/wasnorm_wordpool_576.txt	LTP187	ltpFR2	6	2	SWIMMER	1420	n/a	n/a	0	0	0
493.566	n/a	WORD	246783	wordpools/wasnorm_wordpool_576.txt	LTP187	ltpFR2	6	2	BRICK	172	n/a	n/a	0	0	0
496.202	n/a	WORD	248101	wordpools/wasnorm_wordpool_576.txt	LTP187	ltpFR2	6	2	CABIN	211	n/a	n/a	0	0	0
498.888	n/a	WORD	249444	wordpools/wasnorm_wordpool_576.txt	LTP187	ltpFR2	6	2	SCARF	1246	n/a	n/a	0	0	0
501.59	n/a	WORD	250795	wordpools/wasnorm_wordpool_576.txt	LTP187	ltpFR2	6	2	VAGRANT	1544	n/a	n/a	0	0	0
504.176	n/a	WORD	252088	wordpools/wasnorm_wordpool_576.txt	LTP187	ltpFR2	6	2	RECORD	1176	n/a	n/a	0	0	0
506.66	n/a	WORD	253330	wordpools/wasnorm_wordpool_576.txt	LTP187	ltpFR2	6	2	SCALLOP	1242	n/a	n/a	0	0	0
509.196	n/a	WORD	254598	wordpools/wasnorm_wordpool_576.txt	LTP187	ltpFR2	6	2	CAPTIVE	240	n/a	n/a	0	0	0
511.982	n/a	WORD	255991	wordpools/wasnorm_wordpool_576.txt	LTP187	ltpFR2	6	2	TABLE	1426	n/a	n/a	0	0	0
514.466	n/a	WORD	257233	wordpools/wasnorm_wordpool_576.txt	LTP187	ltpFR2	6	2	BACKBONE	66	n/a	n/a	0	0	0
517.086	n/a	WORD	258543	wordpools/wasnorm_wordpool_576.txt	LTP187	ltpFR2	6	2	VIRUS	1572	n/a	n/a	0	0	0
519.522	n/a	WORD	259761	wordpools/wasnorm_wordpool_576.txt	LTP187	ltpFR2	6	2	CORAL	378	n/a	n/a	0	0	0
522.024	n/a	WORD	261012	wordpools/wasnorm_wordpool_576.txt	LTP187	ltpFR2	6	2	BODY	145	n/a	n/a	0	0	0
524.742	n/a	WORD	262371	wordpools/wasnorm_wordpool_576.txt	LTP187	ltpFR2	6	2	NOMAD	955	n/a	n/a	0	0	0
527.328	n/a	WORD	263664	wordpools/wasnorm_wordpool_576.txt	LTP187	ltpFR2	6	2	GOBLIN	645	n/a	n/a	0	0	0
529.964	n/a	WORD	264982	wordpools/wasnorm_wordpool_576.txt	LTP187	ltpFR2	6	2	ORCHID	982	n/a	n/a	0	0	0
532.598	n/a	WORD	266299	wordpools/wasnorm_wordpool_576.txt	LTP187	ltpFR2	6	2	STATUE	1374	n/a	n/a	0	0	0
535.268	n/a	WORD	267634	wordpools/wasnorm_wordpool_576.txt	LTP187	ltpFR2	6	2	STONE	1385	n/a	n/a	0	0	0
537.852	n/a	WORD	268926	wordpools/wasnorm_wordpool_576.txt	LTP187	ltpFR2	6	2	PASTA	1021	n/a	n/a	0	0	0
540.572	n/a	WORD	270286	wordpools/wasnorm_wordpool_576.txt	LTP187	ltpFR2	6	2	PIANO	1057	n/a	n/a	0	0	0
543.042	n/a	WORD	271521	wordpools/wasnorm_wordpool_576.txt	LTP187	ltpFR2	6	2	GRAVE	658	n/a	n/a	0	0	0
545.858	n/a	WORD	272929	wordpools/wasnorm_wordpool_576.txt	LTP187	ltpFR2	6	2	POISON	1096	n/a	n/a	0	0	0
547.464	n/a	START	273732	n/a	LTP187	ltpFR2	6	n/a	n/a	n/a	3	n/a	n/a	n/a	n/a
548.494	n/a	DISTRACTOR	274247	n/a	LTP187	ltpFR2	6	2	n/a	n/a	n/a	n/a	0	0	0
548.496	n/a	PROB	274248	n/a	LTP187	ltpFR2	6	n/a	n/a	n/a	3	17	3	8	6
550.312	n/a	PROB	275156	n/a	LTP187	ltpFR2	6	n/a	n/a	n/a	3	14	4	5	5
551.728	n/a	PROB	275864	n/a	LTP187	ltpFR2	6	n/a	n/a	n/a	3	17	6	9	2
553.73	n/a	PROB	276865	n/a	LTP187	ltpFR2	6	n/a	n/a	n/a	3	21	8	8	5
555.064	n/a	PROB	277532	n/a	LTP187	ltpFR2	6	n/a	n/a	n/a	3	10	2	6	2
556.434	n/a	PROB	278217	n/a	LTP187	ltpFR2	6	n/a	n/a	n/a	3	15	7	1	7
557.766	n/a	PROB	278883	n/a	LTP187	ltpFR2	6	n/a	n/a	n/a	3	23	9	8	6
561.154	n/a	PROB	280577	n/a	LTP187	ltpFR2	6	n/a	n/a	n/a	3	21	6	6	9
563.19	n/a	PROB	281595	n/a	LTP187	ltpFR2	6	n/a	n/a	n/a	3	11	1	3	7
564.44	n/a	PROB	282220	n/a	LTP187	ltpFR2	6	n/a	n/a	n/a	3	10	2	2	6
565.792	n/a	PROB	282896	n/a	LTP187	ltpFR2	6	n/a	n/a	n/a	3	22	8	6	8
569.95	n/a	STOP	284975	n/a	LTP187	ltpFR2	6	n/a	n/a	n/a	3	n/a	n/a	n/a	n/a
573.38	n/a	REC_START	286690	n/a	LTP187	ltpFR2	6	2	n/a	n/a	n/a	n/a	0	0	0
575.054	n/a	REC_WORD	287527	wordpools/wasnorm_wordpool_576.txt	LTP187	ltpFR2	6	2	SPARROW	1347	n/a	n/a	0	0	0
576.896	n/a	REC_WORD	288448	wordpools/wasnorm_wordpool_576.txt	LTP187	ltpFR2	6	2	BRICK	172	n/a	n/a	0	0	0
578.256	n/a	REC_WORD	289128	wordpools/wasnorm_wordpool_576.txt	LTP187	ltpFR2	6	2	CABIN	211	n/a	n/a	0	0	0
579.718	n/a	REC_WORD	289859	wordpools/wasnorm_wordpool_576.txt	LTP187	ltpFR2	6	2	SCARF	1246	n/a	n/a	0	0	0
581.488	n/a	REC_WORD	290744	wordpools/wasnorm_wordpool_576.txt	LTP187	ltpFR2	6	2	BACKBONE	66	n/a	n/a	0	0	0
582.98	n/a	REC_WORD	291490	wordpools/wasnorm_wordpool_576.txt	LTP187	ltpFR2	6	2	SCALLOP	1242	n/a	n/a	0	0	0
584.516	n/a	REC_WORD	292258	wordpools/wasnorm_wordpool_576.txt	LTP187	ltpFR2	6	2	RECORD	1176	n/a	n/a	0	0	0
585.954	n/a	REC_WORD	292977	wordpools/wasnorm_wordpool_576.txt	LTP187	ltpFR2	6	2	VIRUS	1572	n/a	n/a	0	0	0
588.042	n/a	REC_WORD	294021	wordpools/wasnorm_wordpool_576.txt	LTP187	ltpFR2	6	2	VAGRANT	1544	n/a	n/a	0	0	0
589.574	n/a	REC_WORD	294787	wordpools/wasnorm_wordpool_576.txt	LTP187	ltpFR2	6	2	NOMAD	955	n/a	n/a	0	0	0
592.538	n/a	REC_WORD	296269	wordpools/wasnorm_wordpool_576.txt	LTP187	ltpFR2	6	2	RECORD	1176	n/a	n/a	0	0	0
663.812	n/a	WORD	331906	wordpools/wasnorm_wordpool_576.txt	LTP187	ltpFR2	6	3	OYSTER	995	n/a	n/a	0	0	0
666.454	n/a	WORD	333227	wordpools/wasnorm_wordpool_576.txt	LTP187	ltpFR2	6	3	FLOWER	584	n/a	n/a	0	0	0
669.084	n/a	WORD	334542	wordpools/wasnorm_wordpool_576.txt	LTP187	ltpFR2	6	3	SANDWICH	1232	n/a	n/a	0	0	0
671.574	n/a	WORD	335787	wordpools/wasnorm_wordpool_576.txt	LTP187	ltpFR2	6	3	PICNIC	1060	n/a	n/a	0	0	0
674.288	n/a	WORD	337144	wordpools/wasnorm_wordpool_576.txt	LTP187	ltpFR2	6	3	GARBAGE	622	n/a	n/a	0	0	0
676.758	n/a	WORD	338379	wordpools/wasnorm_wordpool_576.txt	LTP187	ltpFR2	6	3	SHRUB	1299	n/a	n/a	0	0	0
679.194	n/a	WORD	339597	wordpools/wasnorm_wordpool_576.txt	LTP187	ltpFR2	6	3	KNAPSACK	783	n/a	n/a	0	0	0
681.694	n/a	WORD	340847	wordpools/wasnorm_wordpool_576.txt	LTP187	ltpFR2	6	3	SERVER	1272	n/a	n/a	0	0	0
684.17	n/a	WORD	342085	wordpools/wasnorm_wordpool_576.txt	LTP187	ltpFR2	6	3	UMPIRE	1535	n/a	n/a	0	0	0
686.634	n/a	WORD	343317	wordpools/wasnorm_wordpool_576.txt	LTP187	ltpFR2	6	3	TUBA	1515	n/a	n/a	0	0	0
689.256	n/a	WORD	344628	wordpools/wasnorm_wordpool_576.txt	LTP187	ltpFR2	6	3	LODGE	839	n/a	n/a	0	0	0
692.072	n/a	WORD	346036	wordpools/wasnorm_wordpool_576.txt	LTP187	ltpFR2	6	3	COLLEGE	346	n/a	n/a	0	0	0
694.528	n/a	WORD	347264	wordpools/wasnorm_wordpool_576.txt	LTP187	ltpFR2	6	3	MILDEW	893	n/a	n/a	0	0	0
697.23	n/a	WORD	348615	wordpools/wasnorm_wordpool_576.txt	LTP187	ltpFR2	6	3	JURY	766	n/a	n/a	0	0	0
699.948	n/a	WORD	349974	wordpools/wasnorm_wordpool_576.txt	LTP187	ltpFR2	6	3	TROUT	1511	n/a	n/a	0	0	0
702.664	n/a	WORD	351332	wordpools/wasnorm_wordpool_576.txt	LTP187	ltpFR2	6	3	CUPBOARD	425	n/a	n/a	0	0	0
705.082	n/a	WORD	352541	wordpools/wasnorm_wordpool_576.txt	LTP187	ltpFR2	6	3	CAFE	216	n/a	n/a	0	0	0
707.634	n/a	WORD	353817	wordpools/wasnorm_wordpool_576.txt	LTP187	ltpFR2	6	3	LILY	821	n/a	n/a	0	0	0
710.086	n/a	WORD	355043	wordpools/wasnorm_wordpool_576.txt	LTP187	ltpFR2	6	3	FLIPPER	580	n/a	n/a	0	0	0
712.872	n/a	WORD	356436	wordpools/wasnorm_wordpool_576.txt	LTP187	ltpFR2	6	3	POSSUM	1112	n/a	n/a	0	0	0
715.374	n/a	WORD	357687	wordpools/wasnorm_wordpool_576.txt	LTP187	ltpFR2	6	3	DONKEY	484	n/a	n/a	0	0	0
718.144	n/a	WORD	359072	wordpools/wasnorm_wordpool_576.txt	LTP187	ltpFR2	6	3	EUROPE	541	n/a	n/a	0	0	0
720.912	n/a	WORD	360456	wordpools/wasnorm_wordpool_576.txt	LTP187	ltpFR2	6	3	MAILMAN	858	n/a	n/a	0	0	0
723.548	n/a	WORD	361774	wordpools/wasnorm_wordpool_576.txt	LTP187	ltpFR2	6	3	VALVE	1546	n/a	n/a	0	0	0
725.152	n/a	START	362576	n/a	LTP187	ltpFR2	6	n/a	n/a	n/a	4	n/a	n/a	n/a	n/a
726.262	n/a	DISTRACTOR	363131	n/a	LTP187	ltpFR2	6	3	n/a	n/a	n/a	n/a	0	0	0
726.268	n/a	PROB	363134	n/a	LTP187	ltpFR2	6	n/a	n/a	n/a	4	13	6	3	4
728.886	n/a	PROB	364443	n/a	LTP187	ltpFR2	6	n/a	n/a	n/a	4	15	9	1	5
730.488	n/a	PROB	365244	n/a	LTP187	ltpFR2	6	n/a	n/a	n/a	4	18	8	5	5
732.224	n/a	PROB	366112	n/a	LTP187	ltpFR2	6	n/a	n/a	n/a	4	17	9	2	6
734.724	n/a	PROB	367362	n/a	LTP187	ltpFR2	6	n/a	n/a	n/a	4	9	1	7	1
736.042	n/a	PROB	368021	n/a	LTP187	ltpFR2	6	n/a	n/a	n/a	4	14	2	7	5
740.18	n/a	PROB	370090	n/a	LTP187	ltpFR2	6	n/a	n/a	n/a	4	20	6	7	7
742.13	n/a	PROB	371065	n/a	LTP187	ltpFR2	6	n/a	n/a	n/a	4	15	1	6	8
743.366	n/a	PROB	371683	n/a	LTP187	ltpFR2	6	n/a	n/a	n/a	4	9	5	3	1
744.848	n/a	PROB	372424	n/a	LTP187	ltpFR2	6	n/a	n/a	n/a	4	16	6	2	8
746.052	n/a	PROB	373026	n/a	LTP187	ltpFR2	6	n/a	n/a	n/a	4	17	2	8	7
747.186	n/a	PROB	373593	n/a	LTP187	ltpFR2	6	n/a	n/a	n/a	4	8	1	4	3
748.38	n/a	STOP	374190	n/a	LTP187	ltpFR2	6	n/a	n/a	n/a	4	n/a	n/a	n/a	n/a
750.99	n/a	REC_START	375495	n/a	LTP187	ltpFR2	6	3	n/a	n/a	n/a	n/a	0	0	0
751.964	n/a	REC_WORD	375982	wordpools/wasnorm_wordpool_576.txt	LTP187	ltpFR2	6	3	FLIPPER	580	n/a	n/a	0	0	0
753.514	n/a	REC_WORD	376757	wordpools/wasnorm_wordpool_576.txt	LTP187	ltpFR2	6	3	POSSUM	1112	n/a	n/a	0	0	0
754.828	n/a	REC_WORD	377414	wordpools/wasnorm_wordpool_576.txt	LTP187	ltpFR2	6	3	DONKEY	484	n/a	n/a	0	0	0
756.232	n/a	REC_WORD	378116	wordpools/wasnorm_wordpool_576.txt	LTP187	ltpFR2	6	3	MAILMAN	858	n/a	n/a	0	0	0
841.408	n/a	WORD	420704	wordpools/wasnorm_wordpool_576.txt	LTP187	ltpFR2	6	4	TEACHER	1440	n/a	n/a	0	0	0
844.08	n/a	WORD	422040	wordpools/wasnorm_wordpool_576.txt	LTP187	ltpFR2	6	4	ZEBRA	1635	n/a	n/a	0	0	0
846.582	n/a	WORD	423291	wordpools/wasnorm_wordpool_576.txt	LTP187	ltpFR2	6	4	ICEBERG	731	n/a	n/a	0	0	0
849.04	n/a	WORD	424520	wordpools/wasnorm_wordpool_576.txt	LTP187	ltpFR2	6	4	OUTLAW	989	n/a	n/a	0	0	0
851.792	n/a	WORD	425896	wordpools/wasnorm_wordpool_576.txt	LTP187	ltpFR2	6	4	SWITCH	1422	n/a	n/a	0	0	0
854.52	n/a	WORD	427260	wordpools/wasnorm_wordpool_576.txt	LTP187	ltpFR2	6	4	PENGUIN	1044	n/a	n/a	0	0	0
857.012	n/a	WORD	428506	wordpools/wasnorm_wordpool_576.txt	LTP187	ltpFR2	6	4	CHEST	295	n/a	n/a	0	0	0
859.69	n/a	WORD	429845	wordpools/wasnorm_wordpool_576.txt	LTP187	ltpFR2	6	4	MARKET	871	n/a	n/a	0	0	0
862.2	n/a	WORD	431100	wordpools/wasnorm_wordpool_576.txt	LTP187	ltpFR2	6	4	CLAMP	316	n/a	n/a	0	0	0
864.668	n/a	WORD	432334	wordpools/wasnorm_wordpool_576.txt	LTP187	ltpFR2	6	4	FREEZER	604	n/a	n/a	0	0	0
867.322	n/a	WORD	433661	wordpools/wasnorm_wordpool_576.txt	LTP187	ltpFR2	6	4	FRECKLE	602	n/a	n/a	0	0	0
869.992	n/a	WORD	434996	wordpools/wasnorm_wordpool_576.txt	LTP187	ltpFR2	6	4	CRATER	400	n/a	n/a	0	0	0
872.444	n/a	WORD	436222	wordpools/wasnorm_wordpool_576.txt	LTP187	ltpFR2	6	4	DAISY	435	n/a	n/a	0	0	0
874.954	n/a	WORD	437477	wordpools/wasnorm_wordpool_576.txt	LTP187	ltpFR2	6	4	ORANGE	980	n/a	n/a	0	0	0
877.73	n/a	WORD	438865	wordpools/wasnorm_wordpool_576.txt	LTP187	ltpFR2	6	4	GHETTO	633	n/a	n/a	0	0	0
880.416	n/a	WORD	440208	wordpools/wasnorm_wordpool_576.txt	LTP187	ltpFR2	6	4	CRIB	407	n/a	n/a	0	0	0
882.892	n/a	WORD	441446	wordpools/wasnorm_wordpool_576.txt	LTP187	ltpFR2	6	4	POWDER	1117	n/a	n/a	0	0	0
885.686	n/a	WORD	442843	wordpools/wasnorm_wordpool_576.txt	LTP187	ltpFR2	6	4	PLAYGROUND	1087	n/a	n/a	0	0	0
888.424	n/a	WORD	444212	wordpools/wasnorm_wordpool_576.txt	LTP187	ltpFR2	6	4	VICTIM	1562	n/a	n/a	0	0	0
891.06	n/a	WORD	445530	wordpools/wasnorm_wordpool_576.txt	LTP187	ltpFR2	6	4	EXPERT	543	n/a	n/a	0	0	0
893.684	n/a	WORD	446842	wordpools/wasnorm_wordpool_576.txt	LTP187	ltpFR2	6	4	COOK	372	n/a	n/a	0	0	0
896.404	n/a	WORD	448202	wordpools/wasnorm_wordpool_576.txt	LTP187	ltpFR2	6	4	COOKBOOK	373	n/a	n/a	0	0	0
899.082	n/a	WORD	449541	wordpools/wasnorm_wordpool_576.txt	LTP187	ltpFR2	6	4	RAZOR	1171	n/a	n/a	0	0	0
901.652	n/a	WORD	450826	wordpools/wasnorm_wordpool_576.txt	LTP187	ltpFR2	6	4	DORM	488	n/a	n/a	0	0	0
903.26	n/a	START	451630	n/a	LTP187	ltpFR2	6	n/a	n/a	n/a	5	n/a	n/a	n/a	n/a
904.196	n/a	DISTRACTOR	452098	n/a	LTP187	ltpFR2	6	4	n/a	n/a	n/a	n/a	0	0	0
904.204	n/a	PROB	452102	n/a	LTP187	ltpFR2	6	n/a	n/a	n/a	5	14	7	5	2
906.444	n/a	PROB	453222	n/a	LTP187	ltpFR2	6	n/a	n/a	n/a	5	11	6	3	2
908.348	n/a	PROB	454174	n/a	LTP187	ltpFR2	6	n/a	n/a	n/a	5	12	1	3	8
909.714	n/a	PROB	454857	n/a	LTP187	ltpFR2	6	n/a	n/a	n/a	5	18	5	9	4
911.75	n/a	PROB	455875	n/a	LTP187	ltpFR2	6	n/a	n/a	n/a	5	16	4	6	6
914.884	n/a	PROB	457442	n/a	LTP187	ltpFR2	6	n/a	n/a	n/a	5	11	9	1	1
916.736	n/a	PROB	458368	n/a	LTP187	ltpFR2	6	n/a	n/a	n/a	5	24	9	6	9
919.088	n/a	PROB	459544	n/a	LTP187	ltpFR2	6	n/a	n/a	n/a	5	22	9	6	7
921.29	n/a	PROB	460645	n/a	LTP187	ltpFR2	6	n/a	n/a	n/a	5	19	6	5	8
923.158	n/a	PROB	461579	n/a	LTP187	ltpFR2	6	n/a	n/a	n/a	5	17	1	7	9
925.976	n/a	STOP	462988	n/a	LTP187	ltpFR2	6	n/a	n/a	n/a	5	n/a	n/a	n/a	n/a
929.18	n/a	REC_START	464590	n/a	LTP187	ltpFR2	6	4	n/a	n/a	n/a	n/a	0	0	0
930.004	n/a	REC_WORD	465002	wordpools/wasnorm_wordpool_576.txt	LTP187	ltpFR2	6	4	COOKBOOK	373	n/a	n/a	0	0	0
931.144	n/a	REC_WORD	465572	wordpools/wasnorm_wordpool_576.txt	LTP187	ltpFR2	6	4	RAZOR	1171	n/a	n/a	0	0	0
932.362	n/a	REC_WORD	466181	wordpools/wasnorm_wordpool_576.txt	LTP187	ltpFR2	6	4	DORM	488	n/a	n/a	0	0	0
934.078	n/a	REC_WORD	467039	wordpools/wasnorm_wordpool_576.txt	LTP187	ltpFR2	6	4	TEACHER	1440	n/a	n/a	0	0	0
935.618	n/a	REC_WORD	467809	wordpools/wasnorm_wordpool_576.txt	LTP187	ltpFR2	6	4	ZEBRA	1635	n/a	n/a	0	0	0
937.518	n/a	REC_WORD	468759	wordpools/wasnorm_wordpool_576.txt	LTP187	ltpFR2	6	4	ICEBERG	731	n/a	n/a	0	0	0
941.378	n/a	REC_WORD	470689	wordpools/wasnorm_wordpool_576.txt	LTP187	ltpFR2	6	4	OUTLAW	989	n/a	n/a	0	0	0
942.608	n/a	REC_WORD	471304	wordpools/wasnorm_wordpool_576.txt	LTP187	ltpFR2	6	4	SWITCH	1422	n/a	n/a	0	0	0
944.104	n/a	REC_WORD	472052	wordpools/wasnorm_wordpool_576.txt	LTP187	ltpFR2	6	4	PENGUIN	1044	n/a	n/a	0	0	0
945.53	n/a	REC_WORD	472765	wordpools/wasnorm_wordpool_576.txt	LTP187	ltpFR2	6	4	CHEST	295	n/a	n/a	0	0	0
946.858	n/a	REC_WORD	473429	wordpools/wasnorm_wordpool_576.txt	LTP187	ltpFR2	6	4	MARKET	871	n/a	n/a	0	0	0
948.166	n/a	REC_WORD	474083	wordpools/wasnorm_wordpool_576.txt	LTP187	ltpFR2	6	4	CLAMP	316	n/a	n/a	0	0	0
949.372	n/a	REC_WORD	474686	wordpools/wasnorm_wordpool_576.txt	LTP187	ltpFR2	6	4	FREEZER	604	n/a	n/a	0	0	0
950.744	n/a	REC_WORD	475372	wordpools/wasnorm_wordpool_576.txt	LTP187	ltpFR2	6	4	FRECKLE	602	n/a	n/a	0	0	0
952.19	n/a	REC_WORD	476095	wordpools/wasnorm_wordpool_576.txt	LTP187	ltpFR2	6	4	CRATER	400	n/a	n/a	0	0	0
953.698	n/a	REC_WORD	476849	wordpools/wasnorm_wordpool_576.txt	LTP187	ltpFR2	6	4	DAISY	435	n/a	n/a	0	0	0
955.13	n/a	REC_WORD	477565	wordpools/wasnorm_wordpool_576.txt	LTP187	ltpFR2	6	4	ORANGE	980	n/a	n/a	0	0	0
1019.634	n/a	DISTRACTOR	509817	n/a	LTP187	ltpFR2	6	5	n/a	n/a	n/a	n/a	0	0	0
1019.634	n/a	START	509817	n/a	LTP187	ltpFR2	6	n/a	n/a	n/a	6	n/a	n/a	n/a	n/a
1019.65	n/a	PROB	509825	n/a	LTP187	ltpFR2	6	n/a	n/a	n/a	6	20	6	7	7
1021.918	n/a	PROB	510959	n/a	LTP187	ltpFR2	6	n/a	n/a	n/a	6	19	6	5	8
1023.956	n/a	PROB	511978	n/a	LTP187	ltpFR2	6	n/a	n/a	n/a	6	10	2	5	3
1025.54	n/a	PROB	512770	n/a	LTP187	ltpFR2	6	n/a	n/a	n/a	6	6	1	4	1
1026.606	n/a	PROB	513303	n/a	LTP187	ltpFR2	6	n/a	n/a	n/a	6	19	4	8	7
1027.856	n/a	PROB	513928	n/a	LTP187	ltpFR2	6	n/a	n/a	n/a	6	9	2	5	2
1029.292	n/a	PROB	514646	n/a	LTP187	ltpFR2	6	n/a	n/a	n/a	6	14	5	1	8
1031.36	n/a	PROB	515680	n/a	LTP187	ltpFR2	6	n/a	n/a	n/a	6	20	6	8	6
1032.962	n/a	PROB	516481	n/a	LTP187	ltpFR2	6	n/a	n/a	n/a	6	20	6	9	5
1034.862	n/a	PROB	517431	n/a	LTP187	ltpFR2	6	n/a	n/a	n/a	6	18	8	6	4
1036.514	n/a	PROB	518257	n/a	LTP187	ltpFR2	6	n/a	n/a	n/a	6	19	9	9	1
1037.982	n/a	PROB	518991	n/a	LTP187	ltpFR2	6	n/a	n/a	n/a	6	14	3	4	7
1039.584	n/a	PROB	519792	n/a	LTP187	ltpFR2	6	n/a	n/a	n/a	6	19	7	7	5
1040.918	n/a	PROB	520459	n/a	LTP187	ltpFR2	6	n/a	n/a	n/a	6	15	7	5	3
1043.636	n/a	STOP	521818	n/a	LTP187	ltpFR2	6	n/a	n/a	n/a	6	n/a	n/a	n/a	n/a
1044.472	n/a	WORD	522236	wordpools/wasnorm_wordpool_576.txt	LTP187	ltpFR2	6	5	HERO	706	n/a	n/a	0	0	0
1046.974	n/a	WORD	523487	wordpools/wasnorm_wordpool_576.txt	LTP187	ltpFR2	6	5	AWARD	63	n/a	n/a	0	0	0
1049.774	n/a	WORD	524887	wordpools/wasnorm_wordpool_576.txt	LTP187	ltpFR2	6	5	THRONE	1461	n/a	n/a	0	0	0
1052.428	n/a	WORD	526214	wordpools/wasnorm_wordpool_576.txt	LTP187	ltpFR2	6	5	GARLIC	624	n/a	n/a	0	0	0
1054.946	n/a	WORD	527473	wordpools/wasnorm_wordpool_576.txt	LTP187	ltpFR2	6	5	OFFICE	972	n/a	n/a	0	0	0
1057.632	n/a	WORD	528816	wordpools/wasnorm_wordpool_576.txt	LTP187	ltpFR2	6	5	TYPIST	1532	n/a	n/a	0	0	0
1060.322	n/a	WORD	530161	wordpools/wasnorm_wordpool_576.txt	LTP187	ltpFR2	6	5	MATCH	878	n/a	n/a	0	0	0
1062.958	n/a	WORD	531479	wordpools/wasnorm_wordpool_576.txt	LTP187	ltpFR2	6	5	MAILBOX	857	n/a	n/a	0	0	0
1065.754	n/a	WORD	532877	wordpools/wasnorm_wordpool_576.txt	LTP187	ltpFR2	6	5	SNACK	1331	n/a	n/a	0	0	0
1068.44	n/a	WORD	534220	wordpools/wasnorm_wordpool_576.txt	LTP187	ltpFR2	6	5	KEEPER	769	n/a	n/a	0	0	0
1070.908	n/a	WORD	535454	wordpools/wasnorm_wordpool_576.txt	LTP187	ltpFR2	6	5	BLADE	134	n/a	n/a	0	0	0
1073.35	n/a	WORD	536675	wordpools/wasnorm_wordpool_576.txt	LTP187	ltpFR2	6	5	LIVER	833	n/a	n/a	0	0	0
1075.928	n/a	WORD	537964	wordpools/wasnorm_wordpool_576.txt	LTP187	ltpFR2	6	5	HOUND	724	n/a	n/a	0	0	0
1078.498	n/a	WORD	539249	wordpools/wasnorm_wordpool_576.txt	LTP187	ltpFR2	6	5	FIREMAN	569	n/a	n/a	0	0	0
1080.94	n/a	WORD	540470	wordpools/wasnorm_wordpool_576.txt	LTP187	ltpFR2	6	5	ROCKET	1202	n/a	n/a	0	0	0
1083.476	n/a	WORD	541738	wordpools/wasnorm_wordpool_576.txt	LTP187	ltpFR2	6	5	ARM	38	n/a	n/a	0	0	0
1086.172	n/a	WORD	543086	wordpools/wasnorm_wordpool_576.txt	LTP187	ltpFR2	6	5	HORSE	719	n/a	n/a	0	0	0
1088.872	n/a	WORD	544436	wordpools/wasnorm_wordpool_576.txt	LTP187	ltpFR2	6	5	CABBAGE	210	n/a	n/a	0	0	0
1091.658	n/a	WORD	545829	wordpools/wasnorm_wordpool_576.txt	LTP187	ltpFR2	6	5	CLOUD	328	n/a	n/a	0	0	0
1094.278	n/a	WORD	547139	wordpools/wasnorm_wordpool_576.txt	LTP187	ltpFR2	6	5	PRINCESS	1125	n/a	n/a	0	0	0
1096.728	n/a	WORD	548364	wordpools/wasnorm_wordpool_576.txt	LTP187	ltpFR2	6	5	PEBBLE	1035	n/a	n/a	0	0	0
1099.372	n/a	WORD	549686	wordpools/wasnorm_wordpool_576.txt	LTP187	ltpFR2	6	5	SALAD	1224	n/a	n/a	0	0	0
1101.8	n/a	WORD	550900	wordpools/wasnorm_wordpool_576.txt	LTP187	ltpFR2	6	5	BEAST	108	n/a	n/a	0	0	0
1104.554	n/a	WORD	552277	wordpools/wasnorm_wordpool_576.txt	LTP187	ltpFR2	6	5	PANTHER	1009	n/a	n/a	0	0	0
1106.162	n/a	START	553081	n/a	LTP187	ltpFR2	6	n/a	n/a	n/a	7	n/a	n/a	n/a	n/a
1107.174	n/a	DISTRACTOR	553587	n/a	LTP187	ltpFR2	6	5	n/a	n/a	n/a	n/a	0	0	0
1107.18	n/a	PROB	553590	n/a	LTP187	ltpFR2	6	n/a	n/a	n/a	7	19	2	8	9
1109.472	n/a	PROB	554736	n/a	LTP187	ltpFR2	6	n/a	n/a	n/a	7	13	8	4	1
1110.774	n/a	PROB	555387	n/a	LTP187	ltpFR2	6	n/a	n/a	n/a	7	16	9	3	4
1112.29	n/a	PROB	556145	n/a	LTP187	ltpFR2	6	n/a	n/a	n/a	7	16	6	2	8
1114.858	n/a	PROB	557429	n/a	LTP187	ltpFR2	6	n/a	n/a	n/a	7	10	3	2	5
1116.428	n/a	PROB	558214	n/a	LTP187	ltpFR2	6	n/a	n/a	n/a	7	16	8	5	3
1118.046	n/a	PROB	559023	n/a	LTP187	ltpFR2	6	n/a	n/a	n/a	7	9	2	4	3
1119.762	n/a	PROB	559881	n/a	LTP187	ltpFR2	6	n/a	n/a	n/a	7	6	2	2	2
1121.314	n/a	PROB	560657	n/a	LTP187	ltpFR2	6	n/a	n/a	n/a	7	8	4	2	2
1122.848	n/a	PROB	561424	n/a	LTP187	ltpFR2	6	n/a	n/a	n/a	7	19	6	7	6
1125.618	n/a	PROB	562809	n/a	LTP187	ltpFR2	6	n/a	n/a	n/a	7	9	6	1	2
1127.07	n/a	PROB	563535	n/a	LTP187	ltpFR2	6	n/a	n/a	n/a	7	20	8	3	9
1128.646	n/a	STOP	564323	n/a	LTP187	ltpFR2	6	n/a	n/a	n/a	7	n/a	n/a	n/a	n/a
1131.924	n/a	REC_START	565962	n/a	LTP187	ltpFR2	6	5	n/a	n/a	n/a	n/a	0	0	0
1134.074	n/a	REC_WORD	567037	wordpools/wasnorm_wordpool_576.txt	LTP187	ltpFR2	6	5	HERO	706	n/a	n/a	0	0	0
1135.614	n/a	REC_WORD	567807	wordpools/wasnorm_wordpool_576.txt	LTP187	ltpFR2	6	5	AWARD	63	n/a	n/a	0	0	0
1136.95	n/a	REC_WORD	568475	wordpools/wasnorm_wordpool_576.txt	LTP187	ltpFR2	6	5	THRONE	1461	n/a	n/a	0	0	0
1138.22	n/a	REC_WORD	569110	wordpools/wasnorm_wordpool_576.txt	LTP187	ltpFR2	6	5	GARLIC	624	n/a	n/a	0	0	0
1140.064	n/a	REC_WORD	570032	wordpools/wasnorm_wordpool_576.txt	LTP187	ltpFR2	6	5	TYPIST	1532	n/a	n/a	0	0	0
1141.94	n/a	REC_WORD	570970	wordpools/wasnorm_wordpool_576.txt	LTP187	ltpFR2	6	5	BLADE	134	n/a	n/a	0	0	0
1143.174	n/a	REC_WORD	571587	wordpools/wasnorm_wordpool_576.txt	LTP187	ltpFR2	6	5	LIVER	833	n/a	n/a	0	0	0
1144.536	n/a	REC_WORD	572268	wordpools/wasnorm_wordpool_576.txt	LTP187	ltpFR2	6	5	HOUND	724	n/a	n/a	0	0	0
1147.148	n/a	REC_WORD	573574	wordpools/wasnorm_wordpool_576.txt	LTP187	ltpFR2	6	5	CABBAGE	210	n/a	n/a	0	0	0
1222.346	n/a	DISTRACTOR	611173	n/a	LTP187	ltpFR2	6	6	n/a	n/a	n/a	n/a	0	0	0
1222.346	n/a	START	611173	n/a	LTP187	ltpFR2	6	n/a	n/a	n/a	8	n/a	n/a	n/a	n/a
1222.362	n/a	PROB	611181	n/a	LTP187	ltpFR2	6	n/a	n/a	n/a	8	13	2	4	7
1224.548	n/a	PROB	612274	n/a	LTP187	ltpFR2	6	n/a	n/a	n/a	8	7	3	1	3
1226.516	n/a	PROB	613258	n/a	LTP187	ltpFR2	6	n/a	n/a	n/a	8	9	4	2	3
1228.002	n/a	PROB	614001	n/a	LTP187	ltpFR2	6	n/a	n/a	n/a	8	21	9	9	3
1229.384	n/a	PROB	614692	n/a	LTP187	ltpFR2	6	n/a	n/a	n/a	8	7	5	1	1
1230.602	n/a	PROB	615301	n/a	LTP187	ltpFR2	6	n/a	n/a	n/a	8	19	4	7	8
1232.52	n/a	PROB	616260	n/a	LTP187	ltpFR2	6	n/a	n/a	n/a	8	12	7	1	4
1234.138	n/a	PROB	617069	n/a	LTP187	ltpFR2	6	n/a	n/a	n/a	8	15	1	5	9
1236.206	n/a	PROB	618103	n/a	LTP187	ltpFR2	6	n/a	n/a	n/a	8	15	6	2	7
1237.792	n/a	PROB	618896	n/a	LTP187	ltpFR2	6	n/a	n/a	n/a	8	15	7	3	5
1239.858	n/a	PROB	619929	n/a	LTP187	ltpFR2	6	n/a	n/a	n/a	8	11	6	2	3
1242.628	n/a	PROB	621314	n/a	LTP187	ltpFR2	6	n/a	n/a	n/a	8	18	4	9	5
1246.346	n/a	STOP	623173	n/a	LTP187	ltpFR2	6	n/a	n/a	n/a	8	n/a	n/a	n/a	n/a
1247.532	n/a	WORD	623766	wordpools/wasnorm_wordpool_576.txt	LTP187	ltpFR2	6	6	SUITCASE	1403	n/a	n/a	0	0	0
1250.352	n/a	WORD	625176	wordpools/wasnorm_wordpool_576.txt	LTP187	ltpFR2	6	6	BRIEFCASE	175	n/a	n/a	0	0	0
1252.902	n/a	WORD	626451	wordpools/wasnorm_wordpool_576.txt	LTP187	ltpFR2	6	6	LADY	794	n/a	n/a	0	0	0
1255.374	n/a	WORD	627687	wordpools/wasnorm_wordpool_576.txt	LTP187	ltpFR2	6	6	FIDDLE	561	n/a	n/a	0	0	0
1258.024	n/a	WORD	629012	wordpools/wasnorm_wordpool_576.txt	LTP187	ltpFR2	6	6	CRUTCH	417	n/a	n/a	0	0	0
1260.51	n/a	WORD	630255	wordpools/wasnorm_wordpool_576.txt	LTP187	ltpFR2	6	6	WHISTLE	1606	n/a	n/a	0	0	0
1263.012	n/a	WORD	631506	wordpools/wasnorm_wordpool_576.txt	LTP187	ltpFR2	6	6	MEAT	883	n/a	n/a	0	0	0
1265.73	n/a	WORD	632865	wordpools/wasnorm_wordpool_576.txt	LTP187	ltpFR2	6	6	SCISSORS	1250	n/a	n/a	0	0	0
1268.466	n/a	WORD	634233	wordpools/wasnorm_wordpool_576.txt	LTP187	ltpFR2	6	6	MISTER	901	n/a	n/a	0	0	0
1271.184	n/a	WORD	635592	wordpools/wasnorm_wordpool_576.txt	LTP187	ltpFR2	6	6	JAPAN	749	n/a	n/a	0	0	0
1273.918	n/a	WORD	636959	wordpools/wasnorm_wordpool_576.txt	LTP187	ltpFR2	6	6	OINTMENT	974	n/a	n/a	0	0	0
1276.404	n/a	WORD	638202	wordpools/wasnorm_wordpool_576.txt	LTP187	ltpFR2	6	6	WRENCH	1625	n/a	n/a	0	0	0
1279.092	n/a	WORD	639546	wordpools/wasnorm_wordpool_576.txt	LTP187	ltpFR2	6	6	LASER	801	n/a	n/a	0	0	0
1281.892	n/a	WORD	640946	wordpools/wasnorm_wordpool_576.txt	LTP187	ltpFR2	6	6	FLASHLIGHT	575	n/a	n/a	0	0	0
1284.316	n/a	WORD	642158	wordpools/wasnorm_wordpool_576.txt	LTP187	ltpFR2	6	6	STAKE	1368	n/a	n/a	0	0	0
1286.984	n/a	WORD	643492	wordpools/wasnorm_wordpool_576.txt	LTP187	ltpFR2	6	6	CROSS	413	n/a	n/a	0	0	0
1289.516	n/a	WORD	644758	wordpools/wasnorm_wordpool_576.txt	LTP187	ltpFR2	6	6	ASIA	46	n/a	n/a	0	0	0
1292.052	n/a	WORD	646026	wordpools/wasnorm_wordpool_576.txt	LTP187	ltpFR2	6	6	TOURIST	1488	n/a	n/a	0	0	0
1294.77	n/a	WORD	647385	wordpools/wasnorm_wordpool_576.txt	LTP187	ltpFR2	6	6	FOOTBALL	591	n/a	n/a	0	0	0
1297.522	n/a	WORD	648761	wordpools/wasnorm_wordpool_576.txt	LTP187	ltpFR2	6	6	CASKET	255	n/a	n/a	0	0	0
1299.94	n/a	WORD	649970	wordpools/wasnorm_wordpool_576.txt	LTP187	ltpFR2	6	6	DUST	508	n/a	n/a	0	0	0
1302.394	n/a	WORD	651197	wordpools/wasnorm_wordpool_576.txt	LTP187	ltpFR2	6	6	ELBOW	520	n/a	n/a	0	0	0
1304.876	n/a	WORD	652438	wordpools/wasnorm_wordpool_576.txt	LTP187	ltpFR2	6	6	DRILL	497	n/a	n/a	0	0	0
1307.536	n/a	WORD	653768	wordpools/wasnorm_wordpool_576.txt	LTP187	ltpFR2	6	6	BEAKER	104	n/a	n/a	0	0	0
1309.148	n/a	START	654574	n/a	LTP187	ltpFR2	6	n/a	n/a	n/a	9	n/a	n/a	n/a	n/a
1310.116	n/a	DISTRACTOR	655058	n/a	LTP187	ltpFR2	6	6	n/a	n/a	n/a	n/a	0	0	0
1310.12	n/a	PROB	655060	n/a	LTP187	ltpFR2	6	n/a	n/a	n/a	9	21	9	5	7
1313.916	n/a	PROB	656958	n/a	LTP187	ltpFR2	6	n/a	n/a	n/a	9	16	8	1	7
1316.454	n/a	PROB	658227	n/a	LTP187	ltpFR2	6	n/a	n/a	n/a	9	16	8	1	7
1320.608	n/a	PROB	660304	n/a	LTP187	ltpFR2	6	n/a	n/a	n/a	9	15	8	4	3
1322.14	n/a	PROB	661070	n/a	LTP187	ltpFR2	6	n/a	n/a	n/a	9	22	6	7	9
1327.746	n/a	PROB	663873	n/a	LTP187	ltpFR2	6	n/a	n/a	n/a	9	15	7	7	1
1329.146	n/a	PROB	664573	n/a	LTP187	ltpFR2	6	n/a	n/a	n/a	9	12	6	2	4
1330.514	n/a	PROB	665257	n/a	LTP187	ltpFR2	6	n/a	n/a	n/a	9	15	7	2	6
1332.03	n/a	STOP	666015	n/a	LTP187	ltpFR2	6	n/a	n/a	n/a	9	n/a	n/a	n/a	n/a
1334.97	n/a	REC_START	667485	n/a	LTP187	ltpFR2	6	6	n/a	n/a	n/a	n/a	0	0	0
1425.404	n/a	WORD	712702	wordpools/wasnorm_wordpool_576.txt	LTP187	ltpFR2	6	7	ANKLE	24	n/a	n/a	0	0	0
1428.124	n/a	WORD	714062	wordpools/wasnorm_wordpool_576.txt	LTP187	ltpFR2	6	7	FINGER	567	n/a	n/a	0	0	0
1430.592	n/a	WORD	715296	wordpools/wasnorm_wordpool_576.txt	LTP187	ltpFR2	6	7	PUPPY	1144	n/a	n/a	0	0	0
1433.31	n/a	WORD	716655	wordpools/wasnorm_wordpool_576.txt	LTP187	ltpFR2	6	7	YOLK	1633	n/a	n/a	0	0	0
1435.828	n/a	WORD	717914	wordpools/wasnorm_wordpool_576.txt	LTP187	ltpFR2	6	7	SKILLET	1317	n/a	n/a	0	0	0
1438.416	n/a	WORD	719208	wordpools/wasnorm_wordpool_576.txt	LTP187	ltpFR2	6	7	DRIVER	499	n/a	n/a	0	0	0
1441.168	n/a	WORD	720584	wordpools/wasnorm_wordpool_576.txt	LTP187	ltpFR2	6	7	BRAKE	166	n/a	n/a	0	0	0
1443.836	n/a	WORD	721918	wordpools/wasnorm_wordpool_576.txt	LTP187	ltpFR2	6	7	TERMITE	1451	n/a	n/a	0	0	0
1446.338	n/a	WORD	723169	wordpools/wasnorm_wordpool_576.txt	LTP187	ltpFR2	6	7	BOUQUET	157	n/a	n/a	0	0	0
1448.838	n/a	WORD	724419	wordpools/wasnorm_wordpool_576.txt	LTP187	ltpFR2	6	7	COFFEE	341	n/a	n/a	0	0	0
1451.492	n/a	WORD	725746	wordpools/wasnorm_wordpool_576.txt	LTP187	ltpFR2	6	7	SNAIL	1332	n/a	n/a	0	0	0
1453.91	n/a	WORD	726955	wordpools/wasnorm_wordpool_576.txt	LTP187	ltpFR2	6	7	UNCLE	1536	n/a	n/a	0	0	0
1456.666	n/a	WORD	728333	wordpools/wasnorm_wordpool_576.txt	LTP187	ltpFR2	6	7	INFANT	737	n/a	n/a	0	0	0
1459.184	n/a	WORD	729592	wordpools/wasnorm_wordpool_576.txt	LTP187	ltpFR2	6	7	BULLET	194	n/a	n/a	0	0	0
1461.834	n/a	WORD	730917	wordpools/wasnorm_wordpool_576.txt	LTP187	ltpFR2	6	7	NAPKIN	937	n/a	n/a	0	0	0
1464.32	n/a	WORD	732160	wordpools/wasnorm_wordpool_576.txt	LTP187	ltpFR2	6	7	SUPPER	1411	n/a	n/a	0	0	0
1466.756	n/a	WORD	733378	wordpools/wasnorm_wordpool_576.txt	LTP187	ltpFR2	6	7	CLOCK	325	n/a	n/a	0	0	0
1469.376	n/a	WORD	734688	wordpools/wasnorm_wordpool_576.txt	LTP187	ltpFR2	6	7	GLASS	639	n/a	n/a	0	0	0
1472.178	n/a	WORD	736089	wordpools/wasnorm_wordpool_576.txt	LTP187	ltpFR2	6	7	FOX	598	n/a	n/a	0	0	0
1474.646	n/a	WORD	737323	wordpools/wasnorm_wordpool_576.txt	LTP187	ltpFR2	6	7	PLATE	1086	n/a	n/a	0	0	0
1477.464	n/a	WORD	738732	wordpools/wasnorm_wordpool_576.txt	LTP187	ltpFR2	6	7	LAMP	798	n/a	n/a	0	0	0
1480.018	n/a	WORD	740009	wordpools/wasnorm_wordpool_576.txt	LTP187	ltpFR2	6	7	HELMET	702	n/a	n/a	0	0	0
1482.568	n/a	WORD	741284	wordpools/wasnorm_wordpool_576.txt	LTP187	ltpFR2	6	7	FRAME	600	n/a	n/a	0	0	0
1485.222	n/a	WORD	742611	wordpools/wasnorm_wordpool_576.txt	LTP187	ltpFR2	6	7	RIFLE	1192	n/a	n/a	0	0	0
1486.84	n/a	START	743420	n/a	LTP187	ltpFR2	6	n/a	n/a	n/a	10	n/a	n/a	n/a	n/a
1488.016	n/a	DISTRACTOR	744008	n/a	LTP187	ltpFR2	6	7	n/a	n/a	n/a	n/a	0	0	0
1488.024	n/a	PROB	744012	n/a	LTP187	ltpFR2	6	n/a	n/a	n/a	10	12	9	2	1
1490.806	n/a	PROB	745403	n/a	LTP187	ltpFR2	6	n/a	n/a	n/a	10	13	4	5	4
1492.726	n/a	PROB	746363	n/a	LTP187	ltpFR2	6	n/a	n/a	n/a	10	9	7	1	1
1493.794	n/a	PROB	746897	n/a	LTP187	ltpFR2	6	n/a	n/a	n/a	10	17	4	5	8
1496.112	n/a	PROB	748056	n/a	LTP187	ltpFR2	6	n/a	n/a	n/a	10	23	7	8	8
1497.948	n/a	PROB	748974	n/a	LTP187	ltpFR2	6	n/a	n/a	n/a	10	10	6	3	1
1499.498	n/a	PROB	749749	n/a	LTP187	ltpFR2	6	n/a	n/a	n/a	10	21	6	8	7
1502.034	n/a	PROB	751017	n/a	LTP187	ltpFR2	6	n/a	n/a	n/a	10	15	5	6	4
1504.768	n/a	PROB	752384	n/a	LTP187	ltpFR2	6	n/a	n/a	n/a	10	18	6	7	5
1507.72	n/a	PROB	753860	n/a	LTP187	ltpFR2	6	n/a	n/a	n/a	10	11	3	5	3
1509.834	n/a	STOP	754917	n/a	LTP187	ltpFR2	6	n/a	n/a	n/a	10	n/a	n/a	n/a	n/a
1512.592	n/a	REC_START	756296	n/a	LTP187	ltpFR2	6	7	n/a	n/a	n/a	n/a	0	0	0
1514.718	n/a	REC_WORD	757359	wordpools/wasnorm_wordpool_576.txt	LTP187	ltpFR2	6	7	SKILLET	1317	n/a	n/a	0	0	0
1515.892	n/a	REC_WORD	757946	wordpools/wasnorm_wordpool_576.txt	LTP187	ltpFR2	6	7	FINGER	567	n/a	n/a	0	0	0
1517.158	n/a	REC_WORD	758579	wordpools/wasnorm_wordpool_576.txt	LTP187	ltpFR2	6	7	ANKLE	24	n/a	n/a	0	0	0
1518.448	n/a	REC_WORD	759224	wordpools/wasnorm_wordpool_576.txt	LTP187	ltpFR2	6	7	PUPPY	1144	n/a	n/a	0	0	0
1519.722	n/a	REC_WORD	759861	wordpools/wasnorm_wordpool_576.txt	LTP187	ltpFR2	6	7	DRIVER	499	n/a	n/a	0	0	0
1521.144	n/a	REC_WORD	760572	wordpools/wasnorm_wordpool_576.txt	LTP187	ltpFR2	6	7	SNAIL	1332	n/a	n/a	0	0	0
1522.762	n/a	REC_WORD	761381	wordpools/wasnorm_wordpool_576.txt	LTP187	ltpFR2	6	7	BOUQUET	157	n/a	n/a	0	0	0
1524.354	n/a	REC_WORD	762177	wordpools/wasnorm_wordpool_576.txt	LTP187	ltpFR2	6	7	TERMITE	1451	n/a	n/a	0	0	0
1525.858	n/a	REC_WORD	762929	wordpools/wasnorm_wordpool_576.txt	LTP187	ltpFR2	6	7	UNCLE	1536	n/a	n/a	0	0	0
1527.174	n/a	REC_WORD	763587	wordpools/wasnorm_wordpool_576.txt	LTP187	ltpFR2	6	7	BABY	64	n/a	n/a	0	0	0
1528.638	n/a	REC_WORD	764319	wordpools/wasnorm_wordpool_576.txt	LTP187	ltpFR2	6	7	BULLET	194	n/a	n/a	0	0	0
1530.352	n/a	REC_WORD	765176	wordpools/wasnorm_wordpool_576.txt	LTP187	ltpFR2	6	7	GLASS	639	n/a	n/a	0	0	0
1531.726	n/a	REC_WORD	765863	wordpools/wasnorm_wordpool_576.txt	LTP187	ltpFR2	6	7	CLOCK	325	n/a	n/a	0	0	0
1533.14	n/a	REC_WORD	766570	wordpools/wasnorm_wordpool_576.txt	LTP187	ltpFR2	6	7	NAPKIN	937	n/a	n/a	0	0	0
1534.662	n/a	REC_WORD	767331	wordpools/wasnorm_wordpool_576.txt	LTP187	ltpFR2	6	7	FOX	598	n/a	n/a	0	0	0
1536.194	n/a	REC_WORD	768097	wordpools/wasnorm_wordpool_576.txt	LTP187	ltpFR2	6	7	LAMP	798	n/a	n/a	0	0	0
1537.738	n/a	REC_WORD	768869	wordpools/wasnorm_wordpool_576.txt	LTP187	ltpFR2	6	7	PLATE	1086	n/a	n/a	0	0	0
1539.37	n/a	REC_WORD	769685	wordpools/wasnorm_wordpool_576.txt	LTP187	ltpFR2	6	7	FRAME	600	n/a	n/a	0	0	0
1603.014	n/a	DISTRACTOR	801507	n/a	LTP187	ltpFR2	6	8	n/a	n/a	n/a	n/a	0	0	0
1603.014	n/a	START	801507	n/a	LTP187	ltpFR2	6	n/a	n/a	n/a	11	n/a	n/a	n/a	n/a
1603.032	n/a	PROB	801516	n/a	LTP187	ltpFR2	6	n/a	n/a	n/a	11	15	3	6	6
1604.464	n/a	PROB	802232	n/a	LTP187	ltpFR2	6	n/a	n/a	n/a	11	11	5	2	4
1606.232	n/a	PROB	803116	n/a	LTP187	ltpFR2	6	n/a	n/a	n/a	11	21	7	6	8
1608.916	n/a	PROB	804458	n/a	LTP187	ltpFR2	6	n/a	n/a	n/a	11	24	7	9	8
1612.82	n/a	PROB	806410	n/a	LTP187	ltpFR2	6	n/a	n/a	n/a	11	19	4	7	8
1614.256	n/a	PROB	807128	n/a	LTP187	ltpFR2	6	n/a	n/a	n/a	11	7	2	2	3
1615.974	n/a	PROB	807987	n/a	LTP187	ltpFR2	6	n/a	n/a	n/a	11	18	3	9	6
1617.376	n/a	PROB	808688	n/a	LTP187	ltpFR2	6	n/a	n/a	n/a	11	18	9	8	1
1619.012	n/a	PROB	809506	n/a	LTP187	ltpFR2	6	n/a	n/a	n/a	11	12	3	6	3
1620.512	n/a	PROB	810256	n/a	LTP187	ltpFR2	6	n/a	n/a	n/a	11	9	3	3	3
1621.68	n/a	PROB	810840	n/a	LTP187	ltpFR2	6	n/a	n/a	n/a	11	15	1	6	8
1623.164	n/a	PROB	811582	n/a	LTP187	ltpFR2	6	n/a	n/a	n/a	11	19	9	1	9
1627.016	n/a	STOP	813508	n/a	LTP187	ltpFR2	6	n/a	n/a	n/a	11	n/a	n/a	n/a	n/a
1627.944	n/a	WORD	813972	wordpools/wasnorm_wordpool_576.txt	LTP187	ltpFR2	6	8	PIMPLE	1071	n/a	n/a	0	0	0
1630.57	n/a	WORD	815285	wordpools/wasnorm_wordpool_576.txt	LTP187	ltpFR2	6	8	DAUGHTER	442	n/a	n/a	0	0	0
1633.35	n/a	WORD	816675	wordpools/wasnorm_wordpool_576.txt	LTP187	ltpFR2	6	8	ZIPPER	1636	n/a	n/a	0	0	0
1636.108	n/a	WORD	818054	wordpools/wasnorm_wordpool_576.txt	LTP187	ltpFR2	6	8	IGLOO	734	n/a	n/a	0	0	0
1638.77	n/a	WORD	819385	wordpools/wasnorm_wordpool_576.txt	LTP187	ltpFR2	6	8	STALLION	1369	n/a	n/a	0	0	0
1641.506	n/a	WORD	820753	wordpools/wasnorm_wordpool_576.txt	LTP187	ltpFR2	6	8	CARRIAGE	248	n/a	n/a	0	0	0
1643.994	n/a	WORD	821997	wordpools/wasnorm_wordpool_576.txt	LTP187	ltpFR2	6	8	POLICE	1098	n/a	n/a	0	0	0
1646.494	n/a	WORD	823247	wordpools/wasnorm_wordpool_576.txt	LTP187	ltpFR2	6	8	LEADER	807	n/a	n/a	0	0	0
1649.284	n/a	WORD	824642	wordpools/wasnorm_wordpool_576.txt	LTP187	ltpFR2	6	8	STAPLE	1371	n/a	n/a	0	0	0
1652.066	n/a	WORD	826033	wordpools/wasnorm_wordpool_576.txt	LTP187	ltpFR2	6	8	BOX	159	n/a	n/a	0	0	0
1654.702	n/a	WORD	827351	wordpools/wasnorm_wordpool_576.txt	LTP187	ltpFR2	6	8	NEUTRON	947	n/a	n/a	0	0	0
1657.22	n/a	WORD	828610	wordpools/wasnorm_wordpool_576.txt	LTP187	ltpFR2	6	8	SKETCH	1315	n/a	n/a	0	0	0
1659.872	n/a	WORD	829936	wordpools/wasnorm_wordpool_576.txt	LTP187	ltpFR2	6	8	BARLEY	88	n/a	n/a	0	0	0
1662.342	n/a	WORD	831171	wordpools/wasnorm_wordpool_576.txt	LTP187	ltpFR2	6	8	CHILD	299	n/a	n/a	0	0	0
1665.144	n/a	WORD	832572	wordpools/wasnorm_wordpool_576.txt	LTP187	ltpFR2	6	8	PORTRAIT	1111	n/a	n/a	0	0	0
1667.878	n/a	WORD	833939	wordpools/wasnorm_wordpool_576.txt	LTP187	ltpFR2	6	8	DENIM	446	n/a	n/a	0	0	0
1670.548	n/a	WORD	835274	wordpools/wasnorm_wordpool_576.txt	LTP187	ltpFR2	6	8	PISTON	1076	n/a	n/a	0	0	0
1673.316	n/a	WORD	836658	wordpools/wasnorm_wordpool_576.txt	LTP187	ltpFR2	6	8	PAIL	1002	n/a	n/a	0	0	0
1675.786	n/a	WORD	837893	wordpools/wasnorm_wordpool_576.txt	LTP187	ltpFR2	6	8	MOTOR	922	n/a	n/a	0	0	0
1678.306	n/a	WORD	839153	wordpools/wasnorm_wordpool_576.txt	LTP187	ltpFR2	6	8	HOOD	714	n/a	n/a	0	0	0
1681.008	n/a	WORD	840504	wordpools/wasnorm_wordpool_576.txt	LTP187	ltpFR2	6	8	SWORD	1423	n/a	n/a	0	0	0
1683.66	n/a	WORD	841830	wordpools/wasnorm_wordpool_576.txt	LTP187	ltpFR2	6	8	KNIFE	785	n/a	n/a	0	0	0
1686.112	n/a	WORD	843056	wordpools/wasnorm_wordpool_576.txt	LTP187	ltpFR2	6	8	SKIRT	1319	n/a	n/a	0	0	0
1688.648	n/a	WORD	844324	wordpools/wasnorm_wordpool_576.txt	LTP187	ltpFR2	6	8	HAWK	692	n/a	n/a	0	0	0
1690.25	n/a	START	845125	n/a	LTP187	ltpFR2	6	n/a	n/a	n/a	12	n/a	n/a	n/a	n/a
1691.42	n/a	DISTRACTOR	845710	n/a	LTP187	ltpFR2	6	8	n/a	n/a	n/a	n/a	0	0	0
1691.434	n/a	PROB	845717	n/a	LTP187	ltpFR2	6	n/a	n/a	n/a	12	13	5	6	2
1693.204	n/a	PROB	846602	n/a	LTP187	ltpFR2	6	n/a	n/a	n/a	12	22	5	8	9
1699.024	n/a	PROB	849512	n/a	LTP187	ltpFR2	6	n/a	n/a	n/a	12	14	6	7	1
1700.592	n/a	PROB	850296	n/a	LTP187	ltpFR2	6	n/a	n/a	n/a	12	16	4	6	6
1702.008	n/a	PROB	851004	n/a	LTP187	ltpFR2	6	n/a	n/a	n/a	12	13	3	7	3
1704.128	n/a	PROB	852064	n/a	LTP187	ltpFR2	6	n/a	n/a	n/a	12	22	4	9	9
1705.776	n/a	PROB	852888	n/a	LTP187	ltpFR2	6	n/a	n/a	n/a	12	18	5	7	6
1707.496	n/a	PROB	853748	n/a	LTP187	ltpFR2	6	n/a	n/a	n/a	12	19	7	8	4
1708.914	n/a	PROB	854457	n/a	LTP187	ltpFR2	6	n/a	n/a	n/a	12	18	7	4	7
1710.266	n/a	PROB	855133	n/a	LTP187	ltpFR2	6	n/a	n/a	n/a	12	16	3	8	5
1711.566	n/a	PROB	855783	n/a	LTP187	ltpFR2	6	n/a	n/a	n/a	12	7	1	2	4
1713.362	n/a	STOP	856681	n/a	LTP187	ltpFR2	6	n/a	n/a	n/a	12	n/a	n/a	n/a	n/a
1716.122	n/a	REC_START	858061	n/a	LTP187	ltpFR2	6	8	n/a	n/a	n/a	n/a	0	0	0
1718.184	n/a	REC_WORD	859092	wordpools/wasnorm_wordpool_576.txt	LTP187	ltpFR2	6	8	PIMPLE	1071	n/a	n/a	0	0	0
1719.72	n/a	REC_WORD	859860	wordpools/wasnorm_wordpool_576.txt	LTP187	ltpFR2	6	8	DAUGHTER	442	n/a	n/a	0	0	0
1722.628	n/a	REC_WORD	861314	wordpools/wasnorm_wordpool_576.txt	LTP187	ltpFR2	6	8	ZIPPER	1636	n/a	n/a	0	0	0
1724.192	n/a	REC_WORD	862096	wordpools/wasnorm_wordpool_576.txt	LTP187	ltpFR2	6	8	IGLOO	734	n/a	n/a	0	0	0
1725.824	n/a	REC_WORD	862912	wordpools/wasnorm_wordpool_576.txt	LTP187	ltpFR2	6	8	CARRIAGE	248	n/a	n/a	0	0	0
1730.02	n/a	REC_WORD	865010	wordpools/wasnorm_wordpool_576.txt	LTP187	ltpFR2	6	8	PAIL	1002	n/a	n/a	0	0	0
1732.9	n/a	REC_WORD	866450	wordpools/wasnorm_wordpool_576.txt	LTP187	ltpFR2	6	8	DENIM	446	n/a	n/a	0	0	0
1734.462	n/a	REC_WORD	867231	wordpools/wasnorm_wordpool_576.txt	LTP187	ltpFR2	6	8	POLICE	1098	n/a	n/a	0	0	0
1736.024	n/a	REC_WORD	868012	wordpools/wasnorm_wordpool_576.txt	LTP187	ltpFR2	6	8	LEADER	807	n/a	n/a	0	0	0
1737.344	n/a	REC_WORD	868672	wordpools/wasnorm_wordpool_576.txt	LTP187	ltpFR2	6	8	STAPLE	1371	n/a	n/a	0	0	0
1738.932	n/a	REC_WORD	869466	wordpools/wasnorm_wordpool_576.txt	LTP187	ltpFR2	6	8	BOX	159	n/a	n/a	0	0	0
1740.282	n/a	REC_WORD	870141	wordpools/wasnorm_wordpool_576.txt	LTP187	ltpFR2	6	8	NEUTRON	947	n/a	n/a	0	0	0
1742.122	n/a	REC_WORD	871061	wordpools/wasnorm_wordpool_576.txt	LTP187	ltpFR2	6	8	CARRIAGE	248	n/a	n/a	0	0	0
1755.256	n/a	REC_WORD	877628	wordpools/wasnorm_wordpool_576.txt	LTP187	ltpFR2	6	8	BARLEY	88	n/a	n/a	0	0	0
1756.634	n/a	REC_WORD	878317	wordpools/wasnorm_wordpool_576.txt	LTP187	ltpFR2	6	8	PAINTING	1005	n/a	n/a	0	0	0
1792.654	n/a	REST_REWET	896327	n/a	LTP187	ltpFR2	6	8	n/a	n/a	n/a	n/a	0	0	0
1951.172	n/a	WORD	975586	wordpools/wasnorm_wordpool_576.txt	LTP187	ltpFR2	6	9	OX	994	n/a	n/a	0	0	0
1953.726	n/a	WORD	976863	wordpools/wasnorm_wordpool_576.txt	LTP187	ltpFR2	6	9	COIN	343	n/a	n/a	0	0	0
1956.394	n/a	WORD	978197	wordpools/wasnorm_wordpool_576.txt	LTP187	ltpFR2	6	9	FLAG	573	n/a	n/a	0	0	0
1959.164	n/a	WORD	979582	wordpools/wasnorm_wordpool_576.txt	LTP187	ltpFR2	6	9	PEACH	1031	n/a	n/a	0	0	0
1961.732	n/a	WORD	980866	wordpools/wasnorm_wordpool_576.txt	LTP187	ltpFR2	6	9	HEART	697	n/a	n/a	0	0	0
1964.486	n/a	WORD	982243	wordpools/wasnorm_wordpool_576.txt	LTP187	ltpFR2	6	9	PATIENT	1024	n/a	n/a	0	0	0
1967.238	n/a	WORD	983619	wordpools/wasnorm_wordpool_576.txt	LTP187	ltpFR2	6	9	NURSE	963	n/a	n/a	0	0	0
1969.904	n/a	WORD	984952	wordpools/wasnorm_wordpool_576.txt	LTP187	ltpFR2	6	9	PADDING	999	n/a	n/a	0	0	0
1972.642	n/a	WORD	986321	wordpools/wasnorm_wordpool_576.txt	LTP187	ltpFR2	6	9	SILK	1307	n/a	n/a	0	0	0
1975.428	n/a	WORD	987714	wordpools/wasnorm_wordpool_576.txt	LTP187	ltpFR2	6	9	SHOULDER	1294	n/a	n/a	0	0	0
1977.862	n/a	WORD	988931	wordpools/wasnorm_wordpool_576.txt	LTP187	ltpFR2	6	9	BELLY	119	n/a	n/a	0	0	0
1980.282	n/a	WORD	990141	wordpools/wasnorm_wordpool_576.txt	LTP187	ltpFR2	6	9	FARMER	553	n/a	n/a	0	0	0
1982.748	n/a	WORD	991374	wordpools/wasnorm_wordpool_576.txt	LTP187	ltpFR2	6	9	MATTRESS	879	n/a	n/a	0	0	0
1985.334	n/a	WORD	992667	wordpools/wasnorm_wordpool_576.txt	LTP187	ltpFR2	6	9	FEMALE	559	n/a	n/a	0	0	0
1987.92	n/a	WORD	993960	wordpools/wasnorm_wordpool_576.txt	LTP187	ltpFR2	6	9	STOMACH	1384	n/a	n/a	0	0	0
1990.488	n/a	WORD	995244	wordpools/wasnorm_wordpool_576.txt	LTP187	ltpFR2	6	9	PISTOL	1075	n/a	n/a	0	0	0
1993.074	n/a	WORD	996537	wordpools/wasnorm_wordpool_576.txt	LTP187	ltpFR2	6	9	GANGSTER	620	n/a	n/a	0	0	0
1995.876	n/a	WORD	997938	wordpools/wasnorm_wordpool_576.txt	LTP187	ltpFR2	6	9	SERVANT	1271	n/a	n/a	0	0	0
1998.512	n/a	WORD	999256	wordpools/wasnorm_wordpool_576.txt	LTP187	ltpFR2	6	9	WASHER	1592	n/a	n/a	0	0	0
2000.93	n/a	WORD	1000465	wordpools/wasnorm_wordpool_576.txt	LTP187	ltpFR2	6	9	JEANS	752	n/a	n/a	0	0	0
2003.732	n/a	WORD	1001866	wordpools/wasnorm_wordpool_576.txt	LTP187	ltpFR2	6	9	MONSTER	912	n/a	n/a	0	0	0
2006.218	n/a	WORD	1003109	wordpools/wasnorm_wordpool_576.txt	LTP187	ltpFR2	6	9	MUMMY	932	n/a	n/a	0	0	0
2008.67	n/a	WORD	1004335	wordpools/wasnorm_wordpool_576.txt	LTP187	ltpFR2	6	9	HONEY	713	n/a	n/a	0	0	0
2011.204	n/a	WORD	1005602	wordpools/wasnorm_wordpool_576.txt	LTP187	ltpFR2	6	9	DUSTPAN	509	n/a	n/a	0	0	0
2012.81	n/a	START	1006405	n/a	LTP187	ltpFR2	6	n/a	n/a	n/a	13	n/a	n/a	n/a	n/a
2013.768	n/a	DISTRACTOR	1006884	n/a	LTP187	ltpFR2	6	9	n/a	n/a	n/a	n/a	0	0	0
2013.774	n/a	PROB	1006887	n/a	LTP187	ltpFR2	6	n/a	n/a	n/a	13	20	9	8	3
2017.66	n/a	PROB	1008830	n/a	LTP187	ltpFR2	6	n/a	n/a	n/a	13	20	8	4	8
2019.762	n/a	PROB	1009881	n/a	LTP187	ltpFR2	6	n/a	n/a	n/a	13	18	5	6	7
2021.328	n/a	PROB	1010664	n/a	LTP187	ltpFR2	6	n/a	n/a	n/a	13	23	9	8	6
2024.13	n/a	PROB	1012065	n/a	LTP187	ltpFR2	6	n/a	n/a	n/a	13	12	1	8	3
2025.882	n/a	PROB	1012941	n/a	LTP187	ltpFR2	6	n/a	n/a	n/a	13	7	2	1	4
2028.352	n/a	PROB	1014176	n/a	LTP187	ltpFR2	6	n/a	n/a	n/a	13	14	4	1	9
2030.002	n/a	PROB	1015001	n/a	LTP187	ltpFR2	6	n/a	n/a	n/a	13	11	9	1	1
2032.222	n/a	PROB	1016111	n/a	LTP187	ltpFR2	6	n/a	n/a	n/a	13	14	3	7	4
2034.124	n/a	PROB	1017062	n/a	LTP187	ltpFR2	6	n/a	n/a	n/a	13	17	3	9	5
2035.628	n/a	STOP	1017814	n/a	LTP187	ltpFR2	6	n/a	n/a	n/a	13	n/a	n/a	n/a	n/a
2038.578	n/a	REC_START	1019289	n/a	LTP187	ltpFR2	6	9	n/a	n/a	n/a	n/a	0	0	0
2041.654	n/a	REC_WORD	1020827	wordpools/wasnorm_wordpool_576.txt	LTP187	ltpFR2	6	9	OX	994	n/a	n/a	0	0	0
2043.068	n/a	REC_WORD	1021534	wordpools/wasnorm_wordpool_576.txt	LTP187	ltpFR2	6	9	COIN	343	n/a	n/a	0	0	0
2045.18	n/a	REC_WORD	1022590	wordpools/wasnorm_wordpool_576.txt	LTP187	ltpFR2	6	9	PEACH	1031	n/a	n/a	0	0	0
2047.074	n/a	REC_WORD	1023537	wordpools/wasnorm_wordpool_576.txt	LTP187	ltpFR2	6	9	FLAG	573	n/a	n/a	0	0	0
2048.862	n/a	REC_WORD	1024431	wordpools/wasnorm_wordpool_576.txt	LTP187	ltpFR2	6	9	HEART	697	n/a	n/a	0	0	0
2129.012	n/a	WORD	1064506	wordpools/wasnorm_wordpool_576.txt	LTP187	ltpFR2	6	10	SNAKE	1333	n/a	n/a	0	0	0
2131.446	n/a	WORD	1065723	wordpools/wasnorm_wordpool_576.txt	LTP187	ltpFR2	6	10	FIREPLACE	570	n/a	n/a	0	0	0
2134.17	n/a	WORD	1067085	wordpools/wasnorm_wordpool_576.txt	LTP187	ltpFR2	6	10	LOFT	840	n/a	n/a	0	0	0
2136.916	n/a	WORD	1068458	wordpools/wasnorm_wordpool_576.txt	LTP187	ltpFR2	6	10	NIGHTGOWN	953	n/a	n/a	0	0	0
2139.52	n/a	WORD	1069760	wordpools/wasnorm_wordpool_576.txt	LTP187	ltpFR2	6	10	RIVER	1194	n/a	n/a	0	0	0
2142.09	n/a	WORD	1071045	wordpools/wasnorm_wordpool_576.txt	LTP187	ltpFR2	6	10	SPONGE	1355	n/a	n/a	0	0	0
2144.756	n/a	WORD	1072378	wordpools/wasnorm_wordpool_576.txt	LTP187	ltpFR2	6	10	MEDAL	885	n/a	n/a	0	0	0
2147.444	n/a	WORD	1073722	wordpools/wasnorm_wordpool_576.txt	LTP187	ltpFR2	6	10	DIME	466	n/a	n/a	0	0	0
2149.978	n/a	WORD	1074989	wordpools/wasnorm_wordpool_576.txt	LTP187	ltpFR2	6	10	EAGLE	512	n/a	n/a	0	0	0
2152.664	n/a	WORD	1076332	wordpools/wasnorm_wordpool_576.txt	LTP187	ltpFR2	6	10	GRIZZLY	662	n/a	n/a	0	0	0
2155.116	n/a	WORD	1077558	wordpools/wasnorm_wordpool_576.txt	LTP187	ltpFR2	6	10	LETTUCE	814	n/a	n/a	0	0	0
2157.57	n/a	WORD	1078785	wordpools/wasnorm_wordpool_576.txt	LTP187	ltpFR2	6	10	TRACTOR	1493	n/a	n/a	0	0	0
2160.372	n/a	WORD	1080186	wordpools/wasnorm_wordpool_576.txt	LTP187	ltpFR2	6	10	PATROL	1027	n/a	n/a	0	0	0
2163.09	n/a	WORD	1081545	wordpools/wasnorm_wordpool_576.txt	LTP187	ltpFR2	6	10	ATOM	55	n/a	n/a	0	0	0
2165.694	n/a	WORD	1082847	wordpools/wasnorm_wordpool_576.txt	LTP187	ltpFR2	6	10	STREAM	1392	n/a	n/a	0	0	0
2168.478	n/a	WORD	1084239	wordpools/wasnorm_wordpool_576.txt	LTP187	ltpFR2	6	10	FUNGUS	614	n/a	n/a	0	0	0
2171.048	n/a	WORD	1085524	wordpools/wasnorm_wordpool_576.txt	LTP187	ltpFR2	6	10	FLUTE	585	n/a	n/a	0	0	0
2173.632	n/a	WORD	1086816	wordpools/wasnorm_wordpool_576.txt	LTP187	ltpFR2	6	10	BUCKET	184	n/a	n/a	0	0	0
2176.418	n/a	WORD	1088209	wordpools/wasnorm_wordpool_576.txt	LTP187	ltpFR2	6	10	CUSTARD	429	n/a	n/a	0	0	0
2178.836	n/a	WORD	1089418	wordpools/wasnorm_wordpool_576.txt	LTP187	ltpFR2	6	10	GAZELLE	628	n/a	n/a	0	0	0
2181.288	n/a	WORD	1090644	wordpools/wasnorm_wordpool_576.txt	LTP187	ltpFR2	6	10	AGENT	10	n/a	n/a	0	0	0
2183.724	n/a	WORD	1091862	wordpools/wasnorm_wordpool_576.txt	LTP187	ltpFR2	6	10	RADISH	1158	n/a	n/a	0	0	0
2186.26	n/a	WORD	1093130	wordpools/wasnorm_wordpool_576.txt	LTP187	ltpFR2	6	10	TURNIP	1521	n/a	n/a	0	0	0
2188.728	n/a	WORD	1094364	wordpools/wasnorm_wordpool_576.txt	LTP187	ltpFR2	6	10	PADDLE	1000	n/a	n/a	0	0	0
2190.332	n/a	START	1095166	n/a	LTP187	ltpFR2	6	n/a	n/a	n/a	14	n/a	n/a	n/a	n/a
2191.324	n/a	DISTRACTOR	1095662	n/a	LTP187	ltpFR2	6	10	n/a	n/a	n/a	n/a	0	0	0
2191.332	n/a	PROB	1095666	n/a	LTP187	ltpFR2	6	n/a	n/a	n/a	14	20	8	6	6
2193.034	n/a	PROB	1096517	n/a	LTP187	ltpFR2	6	n/a	n/a	n/a	14	14	9	4	1
2194.932	n/a	PROB	1097466	n/a	LTP187	ltpFR2	6	n/a	n/a	n/a	14	22	5	8	9
2200.954	n/a	PROB	1100477	n/a	LTP187	ltpFR2	6	n/a	n/a	n/a	14	6	1	1	4
2202.09	n/a	PROB	1101045	n/a	LTP187	ltpFR2	6	n/a	n/a	n/a	14	19	6	5	8
2203.924	n/a	PROB	1101962	n/a	LTP187	ltpFR2	6	n/a	n/a	n/a	14	18	7	8	3
2205.458	n/a	PROB	1102729	n/a	LTP187	ltpFR2	6	n/a	n/a	n/a	14	13	2	6	5
2207.462	n/a	PROB	1103731	n/a	LTP187	ltpFR2	6	n/a	n/a	n/a	14	12	5	1	6
2208.81	n/a	PROB	1104405	n/a	LTP187	ltpFR2	6	n/a	n/a	n/a	14	15	2	6	7
2210.396	n/a	PROB	1105198	n/a	LTP187	ltpFR2	6	n/a	n/a	n/a	14	16	4	9	3
2214.332	n/a	STOP	1107166	n/a	LTP187	ltpFR2	6	n/a	n/a	n/a	14	n/a	n/a	n/a	n/a
2216.234	n/a	REC_START	1108117	n/a	LTP187	ltpFR2	6	10	n/a	n/a	n/a	n/a	0	0	0
2218.928	n/a	REC_WORD	1109464	wordpools/wasnorm_wordpool_576.txt	LTP187	ltpFR2	6	10	FUNGUS	614	n/a	n/a	0	0	0
2220.644	n/a	REC_WORD	1110322	wordpools/wasnorm_wordpool_576.txt	LTP187	ltpFR2	6	10	ATOM	55	n/a	n/a	0	0	0
2223.006	n/a	REC_WORD	1111503	wordpools/wasnorm_wordpool_576.txt	LTP187	ltpFR2	6	10	STREAM	1392	n/a	n/a	0	0	0
2224.878	n/a	REC_WORD	1112439	wordpools/wasnorm_wordpool_576.txt	LTP187	ltpFR2	6	10	FLUTE	585	n/a	n/a	0	0	0
2226.658	n/a	REC_WORD	1113329	wordpools/wasnorm_wordpool_576.txt	LTP187	ltpFR2	6	10	CABBAGE	210	n/a	n/a	0	0	0
2228.284	n/a	REC_WORD	1114142	wordpools/wasnorm_wordpool_576.txt	LTP187	ltpFR2	6	10	EAGLE	512	n/a	n/a	0	0	0
2231.014	n/a	REC_WORD	1115507	wordpools/wasnorm_wordpool_576.txt	LTP187	ltpFR2	6	10	GRIZZLY	662	n/a	n/a	0	0	0
2306.672	n/a	WORD	1153336	wordpools/wasnorm_wordpool_576.txt	LTP187	ltpFR2	6	11	PLIERS	1089	n/a	n/a	0	0	0
2309.392	n/a	WORD	1154696	wordpools/wasnorm_wordpool_576.txt	LTP187	ltpFR2	6	11	TAXI	1438	n/a	n/a	0	0	0
2311.826	n/a	WORD	1155913	wordpools/wasnorm_wordpool_576.txt	LTP187	ltpFR2	6	11	LAGOON	795	n/a	n/a	0	0	0
2314.546	n/a	WORD	1157273	wordpools/wasnorm_wordpool_576.txt	LTP187	ltpFR2	6	11	MONEY	908	n/a	n/a	0	0	0
2317.24	n/a	WORD	1158620	wordpools/wasnorm_wordpool_576.txt	LTP187	ltpFR2	6	11	HEDGE	699	n/a	n/a	0	0	0
2319.758	n/a	WORD	1159879	wordpools/wasnorm_wordpool_576.txt	LTP187	ltpFR2	6	11	GRAVEL	659	n/a	n/a	0	0	0
2322.318	n/a	WORD	1161159	wordpools/wasnorm_wordpool_576.txt	LTP187	ltpFR2	6	11	COUNTY	389	n/a	n/a	0	0	0
2324.77	n/a	WORD	1162385	wordpools/wasnorm_wordpool_576.txt	LTP187	ltpFR2	6	11	FLEET	578	n/a	n/a	0	0	0
2327.466	n/a	WORD	1163733	wordpools/wasnorm_wordpool_576.txt	LTP187	ltpFR2	6	11	LUMBER	848	n/a	n/a	0	0	0
2329.882	n/a	WORD	1164941	wordpools/wasnorm_wordpool_576.txt	LTP187	ltpFR2	6	11	APPLE	33	n/a	n/a	0	0	0
2332.404	n/a	WORD	1166202	wordpools/wasnorm_wordpool_576.txt	LTP187	ltpFR2	6	11	CRAB	397	n/a	n/a	0	0	0
2335.138	n/a	WORD	1167569	wordpools/wasnorm_wordpool_576.txt	LTP187	ltpFR2	6	11	CITRUS	313	n/a	n/a	0	0	0
2337.914	n/a	WORD	1168957	wordpools/wasnorm_wordpool_576.txt	LTP187	ltpFR2	6	11	GRAPE	654	n/a	n/a	0	0	0
2340.628	n/a	WORD	1170314	wordpools/wasnorm_wordpool_576.txt	LTP187	ltpFR2	6	11	RUG	1215	n/a	n/a	0	0	0
2343.212	n/a	WORD	1171606	wordpools/wasnorm_wordpool_576.txt	LTP187	ltpFR2	6	11	PUDDING	1139	n/a	n/a	0	0	0
2345.946	n/a	WORD	1172973	wordpools/wasnorm_wordpool_576.txt	LTP187	ltpFR2	6	11	SWAMP	1416	n/a	n/a	0	0	0
2348.416	n/a	WORD	1174208	wordpools/wasnorm_wordpool_576.txt	LTP187	ltpFR2	6	11	BADGE	68	n/a	n/a	0	0	0
2350.968	n/a	WORD	1175484	wordpools/wasnorm_wordpool_576.txt	LTP187	ltpFR2	6	11	COLONEL	348	n/a	n/a	0	0	0
2353.506	n/a	WORD	1176753	wordpools/wasnorm_wordpool_576.txt	LTP187	ltpFR2	6	11	FRUIT	610	n/a	n/a	0	0	0
2356.196	n/a	WORD	1178098	wordpools/wasnorm_wordpool_576.txt	LTP187	ltpFR2	6	11	ULCER	1533	n/a	n/a	0	0	0
2358.958	n/a	WORD	1179479	wordpools/wasnorm_wordpool_576.txt	LTP187	ltpFR2	6	11	DASHBOARD	441	n/a	n/a	0	0	0
2361.744	n/a	WORD	1180872	wordpools/wasnorm_wordpool_576.txt	LTP187	ltpFR2	6	11	CHAUFFEUR	283	n/a	n/a	0	0	0
2364.414	n/a	WORD	1182207	wordpools/wasnorm_wordpool_576.txt	LTP187	ltpFR2	6	11	TOASTER	1472	n/a	n/a	0	0	0
2367.0	n/a	WORD	1183500	wordpools/wasnorm_wordpool_576.txt	LTP187	ltpFR2	6	11	APRON	35	n/a	n/a	0	0	0
2368.606	n/a	START	1184303	n/a	LTP187	ltpFR2	6	n/a	n/a	n/a	15	n/a	n/a	n/a	n/a
2369.458	n/a	DISTRACTOR	1184729	n/a	LTP187	ltpFR2	6	11	n/a	n/a	n/a	n/a	0	0	0
2369.468	n/a	PROB	1184734	n/a	LTP187	ltpFR2	6	n/a	n/a	n/a	15	20	2	9	9
2371.074	n/a	PROB	1185537	n/a	LTP187	ltpFR2	6	n/a	n/a	n/a	15	17	6	9	2
2374.044	n/a	PROB	1187022	n/a	LTP187	ltpFR2	6	n/a	n/a	n/a	15	21	4	9	8
2377.212	n/a	PROB	1188606	n/a	LTP187	ltpFR2	6	n/a	n/a	n/a	15	17	5	6	6
2378.948	n/a	PROB	1189474	n/a	LTP187	ltpFR2	6	n/a	n/a	n/a	15	18	7	4	7
2380.28	n/a	PROB	1190140	n/a	LTP187	ltpFR2	6	n/a	n/a	n/a	15	20	7	9	4
2382.534	n/a	PROB	1191267	n/a	LTP187	ltpFR2	6	n/a	n/a	n/a	15	16	6	7	3
2384.168	n/a	PROB	1192084	n/a	LTP187	ltpFR2	6	n/a	n/a	n/a	15	17	9	6	2
2386.368	n/a	PROB	1193184	n/a	LTP187	ltpFR2	6	n/a	n/a	n/a	15	22	8	9	5
2389.602	n/a	PROB	1194801	n/a	LTP187	ltpFR2	6	n/a	n/a	n/a	15	10	1	2	7
2391.004	n/a	PROB	1195502	n/a	LTP187	ltpFR2	6	n/a	n/a	n/a	15	9	3	5	1
2392.454	n/a	STOP	1196227	n/a	LTP187	ltpFR2	6	n/a	n/a	n/a	15	n/a	n/a	n/a	n/a
2394.528	n/a	REC_START	1197264	n/a	LTP187	ltpFR2	6	11	n/a	n/a	n/a	n/a	0	0	0
2398.532	n/a	REC_WORD	1199266	wordpools/wasnorm_wordpool_576.txt	LTP187	ltpFR2	6	11	PLIERS	1089	n/a	n/a	0	0	0
2399.978	n/a	REC_WORD	1199989	wordpools/wasnorm_wordpool_576.txt	LTP187	ltpFR2	6	11	LAGOON	795	n/a	n/a	0	0	0
2401.758	n/a	REC_WORD	1200879	wordpools/wasnorm_wordpool_576.txt	LTP187	ltpFR2	6	11	TAXI	1438	n/a	n/a	0	0	0
2403.522	n/a	REC_WORD	1201761	wordpools/wasnorm_wordpool_576.txt	LTP187	ltpFR2	6	11	GRAVEL	659	n/a	n/a	0	0	0
2484.964	n/a	WORD	1242482	wordpools/wasnorm_wordpool_576.txt	LTP187	ltpFR2	6	12	RECEIPT	1173	n/a	n/a	0	0	0
2487.766	n/a	WORD	1243883	wordpools/wasnorm_wordpool_576.txt	LTP187	ltpFR2	6	12	SHERIFF	1284	n/a	n/a	0	0	0
2490.32	n/a	WORD	1245160	wordpools/wasnorm_wordpool_576.txt	LTP187	ltpFR2	6	12	ONION	977	n/a	n/a	0	0	0
2492.936	n/a	WORD	1246468	wordpools/wasnorm_wordpool_576.txt	LTP187	ltpFR2	6	12	BANJO	82	n/a	n/a	0	0	0
2495.576	n/a	WORD	1247788	wordpools/wasnorm_wordpool_576.txt	LTP187	ltpFR2	6	12	HARP	689	n/a	n/a	0	0	0
2498.374	n/a	WORD	1249187	wordpools/wasnorm_wordpool_576.txt	LTP187	ltpFR2	6	12	ANTLER	29	n/a	n/a	0	0	0
2500.994	n/a	WORD	1250497	wordpools/wasnorm_wordpool_576.txt	LTP187	ltpFR2	6	12	MOTEL	919	n/a	n/a	0	0	0
2503.668	n/a	WORD	1251834	wordpools/wasnorm_wordpool_576.txt	LTP187	ltpFR2	6	12	COMPASS	358	n/a	n/a	0	0	0
2506.098	n/a	WORD	1253049	wordpools/wasnorm_wordpool_576.txt	LTP187	ltpFR2	6	12	PASTRY	1022	n/a	n/a	0	0	0
2508.706	n/a	WORD	1254353	wordpools/wasnorm_wordpool_576.txt	LTP187	ltpFR2	6	12	GRILL	661	n/a	n/a	0	0	0
2511.304	n/a	WORD	1255652	wordpools/wasnorm_wordpool_576.txt	LTP187	ltpFR2	6	12	KIDNEY	776	n/a	n/a	0	0	0
2514.104	n/a	WORD	1257052	wordpools/wasnorm_wordpool_576.txt	LTP187	ltpFR2	6	12	SUNSET	1408	n/a	n/a	0	0	0
2516.822	n/a	WORD	1258411	wordpools/wasnorm_wordpool_576.txt	LTP187	ltpFR2	6	12	TRIBE	1505	n/a	n/a	0	0	0
2519.264	n/a	WORD	1259632	wordpools/wasnorm_wordpool_576.txt	LTP187	ltpFR2	6	12	BANQUET	86	n/a	n/a	0	0	0
2522.016	n/a	WORD	1261008	wordpools/wasnorm_wordpool_576.txt	LTP187	ltpFR2	6	12	PERCH	1048	n/a	n/a	0	0	0
2524.762	n/a	WORD	1262381	wordpools/wasnorm_wordpool_576.txt	LTP187	ltpFR2	6	12	ROOSTER	1209	n/a	n/a	0	0	0
2527.504	n/a	WORD	1263752	wordpools/wasnorm_wordpool_576.txt	LTP187	ltpFR2	6	12	TRANSPLANT	1496	n/a	n/a	0	0	0
2530.19	n/a	WORD	1265095	wordpools/wasnorm_wordpool_576.txt	LTP187	ltpFR2	6	12	COTTAGE	384	n/a	n/a	0	0	0
2532.802	n/a	WORD	1266401	wordpools/wasnorm_wordpool_576.txt	LTP187	ltpFR2	6	12	BLUEPRINT	142	n/a	n/a	0	0	0
2535.388	n/a	WORD	1267694	wordpools/wasnorm_wordpool_576.txt	LTP187	ltpFR2	6	12	BISON	131	n/a	n/a	0	0	0
2537.912	n/a	WORD	1268956	wordpools/wasnorm_wordpool_576.txt	LTP187	ltpFR2	6	12	SAUSAGE	1238	n/a	n/a	0	0	0
2540.544	n/a	WORD	1270272	wordpools/wasnorm_wordpool_576.txt	LTP187	ltpFR2	6	12	DENTIST	447	n/a	n/a	0	0	0
2543.002	n/a	WORD	1271501	wordpools/wasnorm_wordpool_576.txt	LTP187	ltpFR2	6	12	LIZARD	834	n/a	n/a	0	0	0
2545.686	n/a	WORD	1272843	wordpools/wasnorm_wordpool_576.txt	LTP187	ltpFR2	6	12	GLOBE	641	n/a	n/a	0	0	0
2547.298	n/a	START	1273649	n/a	LTP187	ltpFR2	6	n/a	n/a	n/a	16	n/a	n/a	n/a	n/a
2548.354	n/a	DISTRACTOR	1274177	n/a	LTP187	ltpFR2	6	12	n/a	n/a	n/a	n/a	0	0	0
2548.366	n/a	PROB	1274183	n/a	LTP187	ltpFR2	6	n/a	n/a	n/a	16	17	1	8	8
2550.848	n/a	PROB	1275424	n/a	LTP187	ltpFR2	6	n/a	n/a	n/a	16	15	2	9	4
2552.784	n/a	PROB	1276392	n/a	LTP187	ltpFR2	6	n/a	n/a	n/a	16	11	4	6	1
2555.002	n/a	PROB	1277501	n/a	LTP187	ltpFR2	6	n/a	n/a	n/a	16	15	3	3	9
2556.354	n/a	PROB	1278177	n/a	LTP187	ltpFR2	6	n/a	n/a	n/a	16	6	1	3	2
2558.106	n/a	PROB	1279053	n/a	LTP187	ltpFR2	6	n/a	n/a	n/a	16	19	3	9	7
2561.342	n/a	PROB	1280671	n/a	LTP187	ltpFR2	6	n/a	n/a	n/a	16	18	8	9	1
2563.976	n/a	PROB	1281988	n/a	LTP187	ltpFR2	6	n/a	n/a	n/a	16	21	9	3	9
2566.178	n/a	PROB	1283089	n/a	LTP187	ltpFR2	6	n/a	n/a	n/a	16	16	7	3	6
2567.762	n/a	PROB	1283881	n/a	LTP187	ltpFR2	6	n/a	n/a	n/a	16	7	4	1	2
2570.036	n/a	STOP	1285018	n/a	LTP187	ltpFR2	6	n/a	n/a	n/a	16	n/a	n/a	n/a	n/a
2573.218	n/a	REC_START	1286609	n/a	LTP187	ltpFR2	6	12	n/a	n/a	n/a	n/a	0	0	0
2582.106	n/a	REC_WORD	1291053	wordpools/wasnorm_wordpool_576.txt	LTP187	ltpFR2	6	12	SUNSET	1408	n/a	n/a	0	0	0
2584.878	n/a	REC_WORD	1292439	wordpools/wasnorm_wordpool_576.txt	LTP187	ltpFR2	6	12	DENTIST	447	n/a	n/a	0	0	0
2586.022	n/a	REC_WORD	1293011	wordpools/wasnorm_wordpool_576.txt	LTP187	ltpFR2	6	12	SAUSAGE	1238	n/a	n/a	0	0	0
2594.858	n/a	REC_WORD	1297429	wordpools/wasnorm_wordpool_576.txt	LTP187	ltpFR2	6	12	SHERIFF	1284	n/a	n/a	0	0	0
2596.24	n/a	REC_WORD	1298120	wordpools/wasnorm_wordpool_576.txt	LTP187	ltpFR2	6	12	RECEIPT	1173	n/a	n/a	0	0	0
2598.428	n/a	REC_WORD	1299214	wordpools/wasnorm_wordpool_576.txt	LTP187	ltpFR2	6	12	HARP	689	n/a	n/a	0	0	0
2599.708	n/a	REC_WORD	1299854	wordpools/wasnorm_wordpool_576.txt	LTP187	ltpFR2	6	12	BANJO	82	n/a	n/a	0	0	0
2600.916	n/a	REC_WORD	1300458	wordpools/wasnorm_wordpool_576.txt	LTP187	ltpFR2	6	12	MOTEL	919	n/a	n/a	0	0	0
2602.484	n/a	REC_WORD	1301242	wordpools/wasnorm_wordpool_576.txt	LTP187	ltpFR2	6	12	ANTLER	29	n/a	n/a	0	0	0
2604.348	n/a	REC_WORD	1302174	wordpools/wasnorm_wordpool_576.txt	LTP187	ltpFR2	6	12	COMPANY	-1	n/a	n/a	0	0	0
2608.478	n/a	REC_WORD	1304239	wordpools/wasnorm_wordpool_576.txt	LTP187	ltpFR2	6	12	TRANSPLANT	1496	n/a	n/a	0	0	0
2663.672	n/a	DISTRACTOR	1331836	n/a	LTP187	ltpFR2	6	13	n/a	n/a	n/a	n/a	0	0	0
2663.672	n/a	START	1331836	n/a	LTP187	ltpFR2	6	n/a	n/a	n/a	17	n/a	n/a	n/a	n/a
2663.69	n/a	PROB	1331845	n/a	LTP187	ltpFR2	6	n/a	n/a	n/a	17	15	3	4	8
2666.356	n/a	PROB	1333178	n/a	LTP187	ltpFR2	6	n/a	n/a	n/a	17	18	6	6	6
2668.26	n/a	PROB	1334130	n/a	LTP187	ltpFR2	6	n/a	n/a	n/a	17	5	2	2	1
2676.25	n/a	PROB	1338125	n/a	LTP187	ltpFR2	6	n/a	n/a	n/a	17	21	9	8	4
2678.484	n/a	PROB	1339242	n/a	LTP187	ltpFR2	6	n/a	n/a	n/a	17	10	3	4	3
2681.386	n/a	PROB	1340693	n/a	LTP187	ltpFR2	6	n/a	n/a	n/a	17	21	5	9	7
2685.022	n/a	PROB	1342511	n/a	LTP187	ltpFR2	6	n/a	n/a	n/a	17	17	5	4	8
2687.168	n/a	STOP	1343584	n/a	LTP187	ltpFR2	6	n/a	n/a	n/a	17	n/a	n/a	n/a	n/a
2688.61	n/a	WORD	1344305	wordpools/wasnorm_wordpool_576.txt	LTP187	ltpFR2	6	13	SUSPECT	1415	n/a	n/a	0	0	0
2691.228	n/a	WORD	1345614	wordpools/wasnorm_wordpool_576.txt	LTP187	ltpFR2	6	13	PAPER	1011	n/a	n/a	0	0	0
2693.996	n/a	WORD	1346998	wordpools/wasnorm_wordpool_576.txt	LTP187	ltpFR2	6	13	WORKER	1621	n/a	n/a	0	0	0
2696.432	n/a	WORD	1348216	wordpools/wasnorm_wordpool_576.txt	LTP187	ltpFR2	6	13	MUSTARD	935	n/a	n/a	0	0	0
2699.2	n/a	WORD	1349600	wordpools/wasnorm_wordpool_576.txt	LTP187	ltpFR2	6	13	KETCHUP	771	n/a	n/a	0	0	0
2701.736	n/a	WORD	1350868	wordpools/wasnorm_wordpool_576.txt	LTP187	ltpFR2	6	13	CASHIER	254	n/a	n/a	0	0	0
2704.542	n/a	WORD	1352271	wordpools/wasnorm_wordpool_576.txt	LTP187	ltpFR2	6	13	GUITAR	670	n/a	n/a	0	0	0
2707.042	n/a	WORD	1353521	wordpools/wasnorm_wordpool_576.txt	LTP187	ltpFR2	6	13	BALLOON	75	n/a	n/a	0	0	0
2709.51	n/a	WORD	1354755	wordpools/wasnorm_wordpool_576.txt	LTP187	ltpFR2	6	13	COSTUME	383	n/a	n/a	0	0	0
2712.062	n/a	WORD	1356031	wordpools/wasnorm_wordpool_576.txt	LTP187	ltpFR2	6	13	BLOUSE	139	n/a	n/a	0	0	0
2714.648	n/a	WORD	1357324	wordpools/wasnorm_wordpool_576.txt	LTP187	ltpFR2	6	13	HANDBAG	684	n/a	n/a	0	0	0
2717.282	n/a	WORD	1358641	wordpools/wasnorm_wordpool_576.txt	LTP187	ltpFR2	6	13	TWISTER	1530	n/a	n/a	0	0	0
2720.068	n/a	WORD	1360034	wordpools/wasnorm_wordpool_576.txt	LTP187	ltpFR2	6	13	SHORTCAKE	1292	n/a	n/a	0	0	0
2722.836	n/a	WORD	1361418	wordpools/wasnorm_wordpool_576.txt	LTP187	ltpFR2	6	13	SPHINX	1349	n/a	n/a	0	0	0
2725.622	n/a	WORD	1362811	wordpools/wasnorm_wordpool_576.txt	LTP187	ltpFR2	6	13	COUNTRY	388	n/a	n/a	0	0	0
2728.378	n/a	WORD	1364189	wordpools/wasnorm_wordpool_576.txt	LTP187	ltpFR2	6	13	EMPIRE	530	n/a	n/a	0	0	0
2731.026	n/a	WORD	1365513	wordpools/wasnorm_wordpool_576.txt	LTP187	ltpFR2	6	13	SHORTS	1293	n/a	n/a	0	0	0
2733.832	n/a	WORD	1366916	wordpools/wasnorm_wordpool_576.txt	LTP187	ltpFR2	6	13	HOSTESS	723	n/a	n/a	0	0	0
2736.502	n/a	WORD	1368251	wordpools/wasnorm_wordpool_576.txt	LTP187	ltpFR2	6	13	REBEL	1172	n/a	n/a	0	0	0
2739.0	n/a	WORD	1369500	wordpools/wasnorm_wordpool_576.txt	LTP187	ltpFR2	6	13	COUSIN	392	n/a	n/a	0	0	0
2741.434	n/a	WORD	1370717	wordpools/wasnorm_wordpool_576.txt	LTP187	ltpFR2	6	13	PASSAGE	1019	n/a	n/a	0	0	0
2744.136	n/a	WORD	1372068	wordpools/wasnorm_wordpool_576.txt	LTP187	ltpFR2	6	13	AUTHOR	61	n/a	n/a	0	0	0
2746.838	n/a	WORD	1373419	wordpools/wasnorm_wordpool_576.txt	LTP187	ltpFR2	6	13	AIRPORT	13	n/a	n/a	0	0	0
2749.374	n/a	WORD	1374687	wordpools/wasnorm_wordpool_576.txt	LTP187	ltpFR2	6	13	BREAST	171	n/a	n/a	0	0	0
2750.98	n/a	START	1375490	n/a	LTP187	ltpFR2	6	n/a	n/a	n/a	18	n/a	n/a	n/a	n/a
2751.926	n/a	DISTRACTOR	1375963	n/a	LTP187	ltpFR2	6	13	n/a	n/a	n/a	n/a	0	0	0
2751.932	n/a	PROB	1375966	n/a	LTP187	ltpFR2	6	n/a	n/a	n/a	18	15	7	3	5
2753.278	n/a	PROB	1376639	n/a	LTP187	ltpFR2	6	n/a	n/a	n/a	18	8	5	2	1
2754.776	n/a	PROB	1377388	n/a	LTP187	ltpFR2	6	n/a	n/a	n/a	18	15	4	8	3
2757.28	n/a	PROB	1378640	n/a	LTP187	ltpFR2	6	n/a	n/a	n/a	18	13	2	2	9
2758.846	n/a	PROB	1379423	n/a	LTP187	ltpFR2	6	n/a	n/a	n/a	18	20	9	7	4
2761.2	n/a	PROB	1380600	n/a	LTP187	ltpFR2	6	n/a	n/a	n/a	18	13	3	6	4
2762.818	n/a	PROB	1381409	n/a	LTP187	ltpFR2	6	n/a	n/a	n/a	18	15	2	4	8
2765.57	n/a	PROB	1382785	n/a	LTP187	ltpFR2	6	n/a	n/a	n/a	18	14	5	8	1
2768.972	n/a	PROB	1384486	n/a	LTP187	ltpFR2	6	n/a	n/a	n/a	18	18	7	9	2
2770.942	n/a	PROB	1385471	n/a	LTP187	ltpFR2	6	n/a	n/a	n/a	18	12	9	2	1
2772.926	n/a	PROB	1386463	n/a	LTP187	ltpFR2	6	n/a	n/a	n/a	18	12	7	2	3
2774.188	n/a	STOP	1387094	n/a	LTP187	ltpFR2	6	n/a	n/a	n/a	18	n/a	n/a	n/a	n/a
2776.728	n/a	REC_START	1388364	n/a	LTP187	ltpFR2	6	13	n/a	n/a	n/a	n/a	0	0	0
2867.166	n/a	WORD	1433583	wordpools/wasnorm_wordpool_576.txt	LTP187	ltpFR2	6	14	BUGGY	188	n/a	n/a	0	0	0
2869.7	n/a	WORD	1434850	wordpools/wasnorm_wordpool_576.txt	LTP187	ltpFR2	6	14	COWBOY	395	n/a	n/a	0	0	0
2872.486	n/a	WORD	1436243	wordpools/wasnorm_wordpool_576.txt	LTP187	ltpFR2	6	14	THIEF	1456	n/a	n/a	0	0	0
2875.238	n/a	WORD	1437619	wordpools/wasnorm_wordpool_576.txt	LTP187	ltpFR2	6	14	TORTOISE	1486	n/a	n/a	0	0	0
2877.94	n/a	WORD	1438970	wordpools/wasnorm_wordpool_576.txt	LTP187	ltpFR2	6	14	PARENT	1013	n/a	n/a	0	0	0
2880.392	n/a	WORD	1440196	wordpools/wasnorm_wordpool_576.txt	LTP187	ltpFR2	6	14	SADDLE	1221	n/a	n/a	0	0	0
2882.944	n/a	WORD	1441472	wordpools/wasnorm_wordpool_576.txt	LTP187	ltpFR2	6	14	YACHT	1629	n/a	n/a	0	0	0
2885.464	n/a	WORD	1442732	wordpools/wasnorm_wordpool_576.txt	LTP187	ltpFR2	6	14	GLOVE	642	n/a	n/a	0	0	0
2888.25	n/a	WORD	1444125	wordpools/wasnorm_wordpool_576.txt	LTP187	ltpFR2	6	14	SEAFOOD	1260	n/a	n/a	0	0	0
2890.884	n/a	WORD	1445442	wordpools/wasnorm_wordpool_576.txt	LTP187	ltpFR2	6	14	BUNNY	198	n/a	n/a	0	0	0
2893.538	n/a	WORD	1446769	wordpools/wasnorm_wordpool_576.txt	LTP187	ltpFR2	6	14	MUFFIN	929	n/a	n/a	0	0	0
2896.174	n/a	WORD	1448087	wordpools/wasnorm_wordpool_576.txt	LTP187	ltpFR2	6	14	MARKER	870	n/a	n/a	0	0	0
2898.824	n/a	WORD	1449412	wordpools/wasnorm_wordpool_576.txt	LTP187	ltpFR2	6	14	PERMIT	1051	n/a	n/a	0	0	0
2901.594	n/a	WORD	1450797	wordpools/wasnorm_wordpool_576.txt	LTP187	ltpFR2	6	14	STICKER	1382	n/a	n/a	0	0	0
2904.196	n/a	WORD	1452098	wordpools/wasnorm_wordpool_576.txt	LTP187	ltpFR2	6	14	BURGLAR	200	n/a	n/a	0	0	0
2907.016	n/a	WORD	1453508	wordpools/wasnorm_wordpool_576.txt	LTP187	ltpFR2	6	14	JOURNAL	760	n/a	n/a	0	0	0
2909.65	n/a	WORD	1454825	wordpools/wasnorm_wordpool_576.txt	LTP187	ltpFR2	6	14	BINDER	127	n/a	n/a	0	0	0
2912.37	n/a	WORD	1456185	wordpools/wasnorm_wordpool_576.txt	LTP187	ltpFR2	6	14	DANCER	437	n/a	n/a	0	0	0
2914.988	n/a	WORD	1457494	wordpools/wasnorm_wordpool_576.txt	LTP187	ltpFR2	6	14	CARROT	249	n/a	n/a	0	0	0
2917.772	n/a	WORD	1458886	wordpools/wasnorm_wordpool_576.txt	LTP187	ltpFR2	6	14	MACHINE	852	n/a	n/a	0	0	0
2920.192	n/a	WORD	1460096	wordpools/wasnorm_wordpool_576.txt	LTP187	ltpFR2	6	14	RABBIT	1152	n/a	n/a	0	0	0
2922.862	n/a	WORD	1461431	wordpools/wasnorm_wordpool_576.txt	LTP187	ltpFR2	6	14	BROTHER	179	n/a	n/a	0	0	0
2925.664	n/a	WORD	1462832	wordpools/wasnorm_wordpool_576.txt	LTP187	ltpFR2	6	14	LIGHTNING	820	n/a	n/a	0	0	0
2928.184	n/a	WORD	1464092	wordpools/wasnorm_wordpool_576.txt	LTP187	ltpFR2	6	14	SIDEWALK	1303	n/a	n/a	0	0	0
2929.8	n/a	START	1464900	n/a	LTP187	ltpFR2	6	n/a	n/a	n/a	19	n/a	n/a	n/a	n/a
2930.826	n/a	DISTRACTOR	1465413	n/a	LTP187	ltpFR2	6	14	n/a	n/a	n/a	n/a	0	0	0
2930.836	n/a	PROB	1465418	n/a	LTP187	ltpFR2	6	n/a	n/a	n/a	19	14	6	3	5
2934.904	n/a	PROB	1467452	n/a	LTP187	ltpFR2	6	n/a	n/a	n/a	19	21	8	9	4
2939.158	n/a	PROB	1469579	n/a	LTP187	ltpFR2	6	n/a	n/a	n/a	19	24	9	7	8
2945.878	n/a	PROB	1472939	n/a	LTP187	ltpFR2	6	n/a	n/a	n/a	19	21	7	8	6
2947.548	n/a	PROB	1473774	n/a	LTP187	ltpFR2	6	n/a	n/a	n/a	19	19	5	8	6
2951.734	n/a	PROB	1475867	n/a	LTP187	ltpFR2	6	n/a	n/a	n/a	19	17	6	9	2
2953.56	n/a	STOP	1476780	n/a	LTP187	ltpFR2	6	n/a	n/a	n/a	19	n/a	n/a	n/a	n/a
2955.656	n/a	REC_START	1477828	n/a	LTP187	ltpFR2	6	14	n/a	n/a	n/a	n/a	0	0	0
2957.638	n/a	REC_WORD	1478819	wordpools/wasnorm_wordpool_576.txt	LTP187	ltpFR2	6	14	BUGGY	188	n/a	n/a	0	0	0
2961.368	n/a	REC_WORD	1480684	wordpools/wasnorm_wordpool_576.txt	LTP187	ltpFR2	6	14	COWBOY	395	n/a	n/a	0	0	0
2963.854	n/a	REC_WORD	1481927	wordpools/wasnorm_wordpool_576.txt	LTP187	ltpFR2	6	14	SADDLE	1221	n/a	n/a	0	0	0
2965.24	n/a	REC_WORD	1482620	wordpools/wasnorm_wordpool_576.txt	LTP187	ltpFR2	6	14	PARENT	1013	n/a	n/a	0	0	0
2966.294	n/a	REC_WORD	1483147	wordpools/wasnorm_wordpool_576.txt	LTP187	ltpFR2	6	14	THIEF	1456	n/a	n/a	0	0	0
2967.726	n/a	REC_WORD	1483863	wordpools/wasnorm_wordpool_576.txt	LTP187	ltpFR2	6	14	YACHT	1629	n/a	n/a	0	0	0
2969.02	n/a	REC_WORD	1484510	wordpools/wasnorm_wordpool_576.txt	LTP187	ltpFR2	6	14	SEAFOOD	1260	n/a	n/a	0	0	0
2970.434	n/a	REC_WORD	1485217	wordpools/wasnorm_wordpool_576.txt	LTP187	ltpFR2	6	14	GLOVE	642	n/a	n/a	0	0	0
3046.094	n/a	WORD	1523047	wordpools/wasnorm_wordpool_576.txt	LTP187	ltpFR2	6	15	LAKE	796	n/a	n/a	0	0	0
3048.67	n/a	WORD	1524335	wordpools/wasnorm_wordpool_576.txt	LTP187	ltpFR2	6	15	LIPSTICK	829	n/a	n/a	0	0	0
3051.224	n/a	WORD	1525612	wordpools/wasnorm_wordpool_576.txt	LTP187	ltpFR2	6	15	MISSILE	900	n/a	n/a	0	0	0
3053.974	n/a	WORD	1526987	wordpools/wasnorm_wordpool_576.txt	LTP187	ltpFR2	6	15	FOREHEAD	592	n/a	n/a	0	0	0
3056.518	n/a	WORD	1528259	wordpools/wasnorm_wordpool_576.txt	LTP187	ltpFR2	6	15	EYELASH	546	n/a	n/a	0	0	0
3059.072	n/a	WORD	1529536	wordpools/wasnorm_wordpool_576.txt	LTP187	ltpFR2	6	15	ACTOR	5	n/a	n/a	0	0	0
3061.532	n/a	WORD	1530766	wordpools/wasnorm_wordpool_576.txt	LTP187	ltpFR2	6	15	CHEMIST	292	n/a	n/a	0	0	0
3064.152	n/a	WORD	1532076	wordpools/wasnorm_wordpool_576.txt	LTP187	ltpFR2	6	15	PROTON	1132	n/a	n/a	0	0	0
3066.892	n/a	WORD	1533446	wordpools/wasnorm_wordpool_576.txt	LTP187	ltpFR2	6	15	LEOPARD	812	n/a	n/a	0	0	0
3069.54	n/a	WORD	1534770	wordpools/wasnorm_wordpool_576.txt	LTP187	ltpFR2	6	15	LION	827	n/a	n/a	0	0	0
3071.974	n/a	WORD	1535987	wordpools/wasnorm_wordpool_576.txt	LTP187	ltpFR2	6	15	WINDOW	1611	n/a	n/a	0	0	0
3074.716	n/a	WORD	1537358	wordpools/wasnorm_wordpool_576.txt	LTP187	ltpFR2	6	15	OMELET	976	n/a	n/a	0	0	0
3077.228	n/a	WORD	1538614	wordpools/wasnorm_wordpool_576.txt	LTP187	ltpFR2	6	15	VELVET	1555	n/a	n/a	0	0	0
3079.812	n/a	WORD	1539906	wordpools/wasnorm_wordpool_576.txt	LTP187	ltpFR2	6	15	MARROW	872	n/a	n/a	0	0	0
3082.254	n/a	WORD	1541127	wordpools/wasnorm_wordpool_576.txt	LTP187	ltpFR2	6	15	FRAGRANCE	599	n/a	n/a	0	0	0
3084.802	n/a	WORD	1542401	wordpools/wasnorm_wordpool_576.txt	LTP187	ltpFR2	6	15	POSTAGE	1113	n/a	n/a	0	0	0
3087.306	n/a	WORD	1543653	wordpools/wasnorm_wordpool_576.txt	LTP187	ltpFR2	6	15	SMOG	1330	n/a	n/a	0	0	0
3090.062	n/a	WORD	1545031	wordpools/wasnorm_wordpool_576.txt	LTP187	ltpFR2	6	15	HUMAN	726	n/a	n/a	0	0	0
3092.642	n/a	WORD	1546321	wordpools/wasnorm_wordpool_576.txt	LTP187	ltpFR2	6	15	STAMP	1370	n/a	n/a	0	0	0
3095.396	n/a	WORD	1547698	wordpools/wasnorm_wordpool_576.txt	LTP187	ltpFR2	6	15	TURKEY	1520	n/a	n/a	0	0	0
3097.83	n/a	WORD	1548915	wordpools/wasnorm_wordpool_576.txt	LTP187	ltpFR2	6	15	DINER	467	n/a	n/a	0	0	0
3100.47	n/a	WORD	1550235	wordpools/wasnorm_wordpool_576.txt	LTP187	ltpFR2	6	15	KITCHEN	778	n/a	n/a	0	0	0
3103.034	n/a	WORD	1551517	wordpools/wasnorm_wordpool_576.txt	LTP187	ltpFR2	6	15	BOARD	143	n/a	n/a	0	0	0
3105.556	n/a	WORD	1552778	wordpools/wasnorm_wordpool_576.txt	LTP187	ltpFR2	6	15	CIGAR	308	n/a	n/a	0	0	0
3107.172	n/a	START	1553586	n/a	LTP187	ltpFR2	6	n/a	n/a	n/a	20	n/a	n/a	n/a	n/a
3108.21	n/a	DISTRACTOR	1554105	n/a	LTP187	ltpFR2	6	15	n/a	n/a	n/a	n/a	0	0	0
3108.222	n/a	PROB	1554111	n/a	LTP187	ltpFR2	6	n/a	n/a	n/a	20	22	7	8	7
3111.774	n/a	PROB	1555887	n/a	LTP187	ltpFR2	6	n/a	n/a	n/a	20	10	2	1	7
3113.114	n/a	PROB	1556557	n/a	LTP187	ltpFR2	6	n/a	n/a	n/a	20	17	5	4	8
3116.014	n/a	PROB	1558007	n/a	LTP187	ltpFR2	6	n/a	n/a	n/a	20	17	3	9	5
3118.398	n/a	PROB	1559199	n/a	LTP187	ltpFR2	6	n/a	n/a	n/a	20	19	4	8	7
3119.682	n/a	PROB	1559841	n/a	LTP187	ltpFR2	6	n/a	n/a	n/a	20	21	7	8	6
3121.234	n/a	PROB	1560617	n/a	LTP187	ltpFR2	6	n/a	n/a	n/a	20	13	5	5	3
3122.334	n/a	PROB	1561167	n/a	LTP187	ltpFR2	6	n/a	n/a	n/a	20	14	5	4	5
3123.704	n/a	PROB	1561852	n/a	LTP187	ltpFR2	6	n/a	n/a	n/a	20	19	8	7	4
3125.12	n/a	PROB	1562560	n/a	LTP187	ltpFR2	6	n/a	n/a	n/a	20	19	9	1	9
3126.138	n/a	PROB	1563069	n/a	LTP187	ltpFR2	6	n/a	n/a	n/a	20	19	1	9	9
3127.338	n/a	PROB	1563669	n/a	LTP187	ltpFR2	6	n/a	n/a	n/a	20	14	3	6	5
3128.64	n/a	PROB	1564320	n/a	LTP187	ltpFR2	6	n/a	n/a	n/a	20	16	6	3	7
3131.006	n/a	STOP	1565503	n/a	LTP187	ltpFR2	6	n/a	n/a	n/a	20	n/a	n/a	n/a	n/a
3132.926	n/a	REC_START	1566463	n/a	LTP187	ltpFR2	6	15	n/a	n/a	n/a	n/a	0	0	0
3134.136	n/a	REC_WORD	1567068	wordpools/wasnorm_wordpool_576.txt	LTP187	ltpFR2	6	15	TURKEY	1520	n/a	n/a	0	0	0
3135.354	n/a	REC_WORD	1567677	wordpools/wasnorm_wordpool_576.txt	LTP187	ltpFR2	6	15	KITCHEN	778	n/a	n/a	0	0	0
3136.402	n/a	REC_WORD	1568201	wordpools/wasnorm_wordpool_576.txt	LTP187	ltpFR2	6	15	STAMP	1370	n/a	n/a	0	0	0
3137.962	n/a	REC_WORD	1568981	wordpools/wasnorm_wordpool_576.txt	LTP187	ltpFR2	6	15	BOARD	143	n/a	n/a	0	0	0
3142.014	n/a	REC_WORD	1571007	wordpools/wasnorm_wordpool_576.txt	LTP187	ltpFR2	6	15	LIPSTICK	829	n/a	n/a	0	0	0
3143.478	n/a	REC_WORD	1571739	wordpools/wasnorm_wordpool_576.txt	LTP187	ltpFR2	6	15	LAKE	796	n/a	n/a	0	0	0
3144.832	n/a	REC_WORD	1572416	wordpools/wasnorm_wordpool_576.txt	LTP187	ltpFR2	6	15	MISSILE	900	n/a	n/a	0	0	0
3146.51	n/a	REC_WORD	1573255	wordpools/wasnorm_wordpool_576.txt	LTP187	ltpFR2	6	15	EYELASH	546	n/a	n/a	0	0	0
3150.1	n/a	REC_WORD	1575050	wordpools/wasnorm_wordpool_576.txt	LTP187	ltpFR2	6	15	CHEMIST	292	n/a	n/a	0	0	0
3151.506	n/a	REC_WORD	1575753	wordpools/wasnorm_wordpool_576.txt	LTP187	ltpFR2	6	15	PROTON	1132	n/a	n/a	0	0	0
3152.96	n/a	REC_WORD	1576480	wordpools/wasnorm_wordpool_576.txt	LTP187	ltpFR2	6	15	LEOPARD	812	n/a	n/a	0	0	0
3154.22	n/a	REC_WORD	1577110	wordpools/wasnorm_wordpool_576.txt	LTP187	ltpFR2	6	15	LION	827	n/a	n/a	0	0	0
3223.338	n/a	DISTRACTOR	1611669	n/a	LTP187	ltpFR2	6	16	n/a	n/a	n/a	n/a	0	0	0
3223.338	n/a	START	1611669	n/a	LTP187	ltpFR2	6	n/a	n/a	n/a	21	n/a	n/a	n/a	n/a
3223.35	n/a	PROB	1611675	n/a	LTP187	ltpFR2	6	n/a	n/a	n/a	21	11	5	1	5
3224.702	n/a	PROB	1612351	n/a	LTP187	ltpFR2	6	n/a	n/a	n/a	21	6	1	1	4
3225.702	n/a	PROB	1612851	n/a	LTP187	ltpFR2	6	n/a	n/a	n/a	21	11	1	3	7
3227.07	n/a	PROB	1613535	n/a	LTP187	ltpFR2	6	n/a	n/a	n/a	21	13	5	7	1
3228.286	n/a	PROB	1614143	n/a	LTP187	ltpFR2	6	n/a	n/a	n/a	21	12	5	2	5
3229.572	n/a	PROB	1614786	n/a	LTP187	ltpFR2	6	n/a	n/a	n/a	21	12	9	1	2
3230.672	n/a	PROB	1615336	n/a	LTP187	ltpFR2	6	n/a	n/a	n/a	21	17	7	9	1
3232.356	n/a	PROB	1616178	n/a	LTP187	ltpFR2	6	n/a	n/a	n/a	21	12	9	1	2
3233.374	n/a	PROB	1616687	n/a	LTP187	ltpFR2	6	n/a	n/a	n/a	21	21	8	5	8
3234.858	n/a	PROB	1617429	n/a	LTP187	ltpFR2	6	n/a	n/a	n/a	21	22	5	8	9
3237.578	n/a	PROB	1618789	n/a	LTP187	ltpFR2	6	n/a	n/a	n/a	21	14	4	4	6
3239.012	n/a	PROB	1619506	n/a	LTP187	ltpFR2	6	n/a	n/a	n/a	21	18	2	8	8
3240.346	n/a	PROB	1620173	n/a	LTP187	ltpFR2	6	n/a	n/a	n/a	21	16	6	5	5
3241.946	n/a	PROB	1620973	n/a	LTP187	ltpFR2	6	n/a	n/a	n/a	21	19	6	7	6
3245.168	n/a	PROB	1622584	n/a	LTP187	ltpFR2	6	n/a	n/a	n/a	21	14	7	5	2
3246.738	n/a	STOP	1623369	n/a	LTP187	ltpFR2	6	n/a	n/a	n/a	21	n/a	n/a	n/a	n/a
3248.22	n/a	WORD	1624110	wordpools/wasnorm_wordpool_576.txt	LTP187	ltpFR2	6	16	BEAVER	109	n/a	n/a	0	0	0
3250.872	n/a	WORD	1625436	wordpools/wasnorm_wordpool_576.txt	LTP187	ltpFR2	6	16	CLOTHES	327	n/a	n/a	0	0	0
3253.598	n/a	WORD	1626799	wordpools/wasnorm_wordpool_576.txt	LTP187	ltpFR2	6	16	FOOT	590	n/a	n/a	0	0	0
3256.26	n/a	WORD	1628130	wordpools/wasnorm_wordpool_576.txt	LTP187	ltpFR2	6	16	TUTU	1524	n/a	n/a	0	0	0
3258.836	n/a	WORD	1629418	wordpools/wasnorm_wordpool_576.txt	LTP187	ltpFR2	6	16	GIRL	637	n/a	n/a	0	0	0
3261.514	n/a	WORD	1630757	wordpools/wasnorm_wordpool_576.txt	LTP187	ltpFR2	6	16	PICTURE	1061	n/a	n/a	0	0	0
3263.956	n/a	WORD	1631978	wordpools/wasnorm_wordpool_576.txt	LTP187	ltpFR2	6	16	SCRIBBLE	1256	n/a	n/a	0	0	0
3266.542	n/a	WORD	1633271	wordpools/wasnorm_wordpool_576.txt	LTP187	ltpFR2	6	16	BRANDY	169	n/a	n/a	0	0	0
3269.12	n/a	WORD	1634560	wordpools/wasnorm_wordpool_576.txt	LTP187	ltpFR2	6	16	BARREL	91	n/a	n/a	0	0	0
3271.804	n/a	WORD	1635902	wordpools/wasnorm_wordpool_576.txt	LTP187	ltpFR2	6	16	CHAMPAGNE	278	n/a	n/a	0	0	0
3274.548	n/a	WORD	1637274	wordpools/wasnorm_wordpool_576.txt	LTP187	ltpFR2	6	16	CANYON	235	n/a	n/a	0	0	0
3277.26	n/a	WORD	1638630	wordpools/wasnorm_wordpool_576.txt	LTP187	ltpFR2	6	16	TRENCH	1503	n/a	n/a	0	0	0
3279.846	n/a	WORD	1639923	wordpools/wasnorm_wordpool_576.txt	LTP187	ltpFR2	6	16	COMET	353	n/a	n/a	0	0	0
3282.306	n/a	WORD	1641153	wordpools/wasnorm_wordpool_576.txt	LTP187	ltpFR2	6	16	PUPIL	1143	n/a	n/a	0	0	0
3284.964	n/a	WORD	1642482	wordpools/wasnorm_wordpool_576.txt	LTP187	ltpFR2	6	16	RELISH	1183	n/a	n/a	0	0	0
3287.544	n/a	WORD	1643772	wordpools/wasnorm_wordpool_576.txt	LTP187	ltpFR2	6	16	CRAYON	401	n/a	n/a	0	0	0
3290.336	n/a	WORD	1645168	wordpools/wasnorm_wordpool_576.txt	LTP187	ltpFR2	6	16	PECAN	1036	n/a	n/a	0	0	0
3292.904	n/a	WORD	1646452	wordpools/wasnorm_wordpool_576.txt	LTP187	ltpFR2	6	16	PUDDLE	1140	n/a	n/a	0	0	0
3295.384	n/a	WORD	1647692	wordpools/wasnorm_wordpool_576.txt	LTP187	ltpFR2	6	16	STUDENT	1395	n/a	n/a	0	0	0
3298.136	n/a	WORD	1649068	wordpools/wasnorm_wordpool_576.txt	LTP187	ltpFR2	6	16	SPACE	1345	n/a	n/a	0	0	0
3300.888	n/a	WORD	1650444	wordpools/wasnorm_wordpool_576.txt	LTP187	ltpFR2	6	16	ITEM	746	n/a	n/a	0	0	0
3303.656	n/a	WORD	1651828	wordpools/wasnorm_wordpool_576.txt	LTP187	ltpFR2	6	16	WAITRESS	1581	n/a	n/a	0	0	0
3306.466	n/a	WORD	1653233	wordpools/wasnorm_wordpool_576.txt	LTP187	ltpFR2	6	16	WAITER	1580	n/a	n/a	0	0	0
3308.946	n/a	WORD	1654473	wordpools/wasnorm_wordpool_576.txt	LTP187	ltpFR2	6	16	LAPEL	800	n/a	n/a	0	0	0
3310.554	n/a	START	1655277	n/a	LTP187	ltpFR2	6	n/a	n/a	n/a	22	n/a	n/a	n/a	n/a
3311.378	n/a	DISTRACTOR	1655689	n/a	LTP187	ltpFR2	6	16	n/a	n/a	n/a	n/a	0	0	0
3311.382	n/a	PROB	1655691	n/a	LTP187	ltpFR2	6	n/a	n/a	n/a	22	14	6	3	5
3312.954	n/a	PROB	1656477	n/a	LTP187	ltpFR2	6	n/a	n/a	n/a	22	17	9	7	1
3314.772	n/a	PROB	1657386	n/a	LTP187	ltpFR2	6	n/a	n/a	n/a	22	16	3	5	8
3316.606	n/a	PROB	1658303	n/a	LTP187	ltpFR2	6	n/a	n/a	n/a	22	16	5	4	7
3318.142	n/a	PROB	1659071	n/a	LTP187	ltpFR2	6	n/a	n/a	n/a	22	19	6	4	9
3319.76	n/a	PROB	1659880	n/a	LTP187	ltpFR2	6	n/a	n/a	n/a	22	19	4	7	8
3322.278	n/a	PROB	1661139	n/a	LTP187	ltpFR2	6	n/a	n/a	n/a	22	20	5	8	7
3324.314	n/a	PROB	1662157	n/a	LTP187	ltpFR2	6	n/a	n/a	n/a	22	9	4	3	2
3325.782	n/a	PROB	1662891	n/a	LTP187	ltpFR2	6	n/a	n/a	n/a	22	15	3	3	9
3326.914	n/a	PROB	1663457	n/a	LTP187	ltpFR2	6	n/a	n/a	n/a	22	11	1	6	4
3328.316	n/a	PROB	1664158	n/a	LTP187	ltpFR2	6	n/a	n/a	n/a	22	11	1	7	3
3330.0	n/a	PROB	1665000	n/a	LTP187	ltpFR2	6	n/a	n/a	n/a	22	14	3	6	5
3331.636	n/a	PROB	1665818	n/a	LTP187	ltpFR2	6	n/a	n/a	n/a	22	11	1	9	1
3333.188	n/a	STOP	1666594	n/a	LTP187	ltpFR2	6	n/a	n/a	n/a	22	n/a	n/a	n/a	n/a
3336.408	n/a	REC_START	1668204	n/a	LTP187	ltpFR2	6	16	n/a	n/a	n/a	n/a	0	0	0
3340.84	n/a	REC_WORD	1670420	wordpools/wasnorm_wordpool_576.txt	LTP187	ltpFR2	6	16	ALMOND	18	n/a	n/a	0	0	0
3341.986	n/a	REC_WORD	1670993	wordpools/wasnorm_wordpool_576.txt	LTP187	ltpFR2	6	16	WAITRESS	1581	n/a	n/a	0	0	0
3343.106	n/a	REC_WORD	1671553	wordpools/wasnorm_wordpool_576.txt	LTP187	ltpFR2	6	16	WAITER	1580	n/a	n/a	0	0	0
3344.204	n/a	REC_WORD	1672102	wordpools/wasnorm_wordpool_576.txt	LTP187	ltpFR2	6	16	LAPEL	800	n/a	n/a	0	0	0
3412.95	n/a	REST_REWET	1706475	n/a	LTP187	ltpFR2	6	16	n/a	n/a	n/a	n/a	0	0	0
3633.994	n/a	WORD	1816997	wordpools/wasnorm_wordpool_576.txt	LTP187	ltpFR2	6	17	WAGON	1578	n/a	n/a	0	0	0
3636.544	n/a	WORD	1818272	wordpools/wasnorm_wordpool_576.txt	LTP187	ltpFR2	6	17	PIGMENT	1066	n/a	n/a	0	0	0
3639.046	n/a	WORD	1819523	wordpools/wasnorm_wordpool_576.txt	LTP187	ltpFR2	6	17	SALT	1229	n/a	n/a	0	0	0
3641.634	n/a	WORD	1820817	wordpools/wasnorm_wordpool_576.txt	LTP187	ltpFR2	6	17	CURTAIN	427	n/a	n/a	0	0	0
3644.402	n/a	WORD	1822201	wordpools/wasnorm_wordpool_576.txt	LTP187	ltpFR2	6	17	RAFT	1159	n/a	n/a	0	0	0
3647.088	n/a	WORD	1823544	wordpools/wasnorm_wordpool_576.txt	LTP187	ltpFR2	6	17	XEROX	1628	n/a	n/a	0	0	0
3649.888	n/a	WORD	1824944	wordpools/wasnorm_wordpool_576.txt	LTP187	ltpFR2	6	17	CLIMBER	323	n/a	n/a	0	0	0
3652.508	n/a	WORD	1826254	wordpools/wasnorm_wordpool_576.txt	LTP187	ltpFR2	6	17	FLASK	576	n/a	n/a	0	0	0
3655.008	n/a	WORD	1827504	wordpools/wasnorm_wordpool_576.txt	LTP187	ltpFR2	6	17	VALLEY	1545	n/a	n/a	0	0	0
3657.462	n/a	WORD	1828731	wordpools/wasnorm_wordpool_576.txt	LTP187	ltpFR2	6	17	SLOPE	1328	n/a	n/a	0	0	0
3660.198	n/a	WORD	1830099	wordpools/wasnorm_wordpool_576.txt	LTP187	ltpFR2	6	17	ATLAS	53	n/a	n/a	0	0	0
3662.65	n/a	WORD	1831325	wordpools/wasnorm_wordpool_576.txt	LTP187	ltpFR2	6	17	INMATE	738	n/a	n/a	0	0	0
3665.084	n/a	WORD	1832542	wordpools/wasnorm_wordpool_576.txt	LTP187	ltpFR2	6	17	SUMMIT	1405	n/a	n/a	0	0	0
3667.72	n/a	WORD	1833860	wordpools/wasnorm_wordpool_576.txt	LTP187	ltpFR2	6	17	ROD	1203	n/a	n/a	0	0	0
3670.272	n/a	WORD	1835136	wordpools/wasnorm_wordpool_576.txt	LTP187	ltpFR2	6	17	SLUG	1329	n/a	n/a	0	0	0
3673.074	n/a	WORD	1836537	wordpools/wasnorm_wordpool_576.txt	LTP187	ltpFR2	6	17	PALACE	1006	n/a	n/a	0	0	0
3675.744	n/a	WORD	1837872	wordpools/wasnorm_wordpool_576.txt	LTP187	ltpFR2	6	17	ROBBER	1197	n/a	n/a	0	0	0
3678.494	n/a	WORD	1839247	wordpools/wasnorm_wordpool_576.txt	LTP187	ltpFR2	6	17	CONVICT	371	n/a	n/a	0	0	0
3681.066	n/a	WORD	1840533	wordpools/wasnorm_wordpool_576.txt	LTP187	ltpFR2	6	17	MASK	876	n/a	n/a	0	0	0
3683.566	n/a	WORD	1841783	wordpools/wasnorm_wordpool_576.txt	LTP187	ltpFR2	6	17	WORLD	1622	n/a	n/a	0	0	0
3686.1	n/a	WORD	1843050	wordpools/wasnorm_wordpool_576.txt	LTP187	ltpFR2	6	17	BOYFRIEND	162	n/a	n/a	0	0	0
3688.786	n/a	WORD	1844393	wordpools/wasnorm_wordpool_576.txt	LTP187	ltpFR2	6	17	PARTNER	1017	n/a	n/a	0	0	0
3691.356	n/a	WORD	1845678	wordpools/wasnorm_wordpool_576.txt	LTP187	ltpFR2	6	17	PORK	1108	n/a	n/a	0	0	0
3694.108	n/a	WORD	1847054	wordpools/wasnorm_wordpool_576.txt	LTP187	ltpFR2	6	17	DOLPHIN	483	n/a	n/a	0	0	0
3695.714	n/a	START	1847857	n/a	LTP187	ltpFR2	6	n/a	n/a	n/a	23	n/a	n/a	n/a	n/a
3696.632	n/a	DISTRACTOR	1848316	n/a	LTP187	ltpFR2	6	17	n/a	n/a	n/a	n/a	0	0	0
3696.644	n/a	PROB	1848322	n/a	LTP187	ltpFR2	6	n/a	n/a	n/a	23	14	5	4	5
3698.926	n/a	PROB	1849463	n/a	LTP187	ltpFR2	6	n/a	n/a	n/a	23	9	2	3	4
3700.428	n/a	PROB	1850214	n/a	LTP187	ltpFR2	6	n/a	n/a	n/a	23	22	9	4	9
3702.748	n/a	PROB	1851374	n/a	LTP187	ltpFR2	6	n/a	n/a	n/a	23	21	7	7	7
3704.048	n/a	PROB	1852024	n/a	LTP187	ltpFR2	6	n/a	n/a	n/a	23	16	9	2	5
3705.448	n/a	PROB	1852724	n/a	LTP187	ltpFR2	6	n/a	n/a	n/a	23	12	2	8	2
3706.666	n/a	PROB	1853333	n/a	LTP187	ltpFR2	6	n/a	n/a	n/a	23	20	7	7	6
3708.102	n/a	PROB	1854051	n/a	LTP187	ltpFR2	6	n/a	n/a	n/a	23	10	1	7	2
3710.12	n/a	PROB	1855060	n/a	LTP187	ltpFR2	6	n/a	n/a	n/a	23	9	3	4	2
3712.57	n/a	PROB	1856285	n/a	LTP187	ltpFR2	6	n/a	n/a	n/a	23	21	9	8	5
3714.674	n/a	PROB	1857337	n/a	LTP187	ltpFR2	6	n/a	n/a	n/a	23	17	1	9	7
3716.276	n/a	PROB	1858138	n/a	LTP187	ltpFR2	6	n/a	n/a	n/a	23	14	4	5	5
3719.714	n/a	STOP	1859857	n/a	LTP187	ltpFR2	6	n/a	n/a	n/a	23	n/a	n/a	n/a	n/a
3721.462	n/a	REC_START	1860731	n/a	LTP187	ltpFR2	6	17	n/a	n/a	n/a	n/a	0	0	0
3723.186	n/a	REC_WORD	1861593	wordpools/wasnorm_wordpool_576.txt	LTP187	ltpFR2	6	17	WAGON	1578	n/a	n/a	0	0	0
3724.978	n/a	REC_WORD	1862489	wordpools/wasnorm_wordpool_576.txt	LTP187	ltpFR2	6	17	PIGMENT	1066	n/a	n/a	0	0	0
3726.344	n/a	REC_WORD	1863172	wordpools/wasnorm_wordpool_576.txt	LTP187	ltpFR2	6	17	SALT	1229	n/a	n/a	0	0	0
3811.896	n/a	DISTRACTOR	1905948	n/a	LTP187	ltpFR2	6	18	n/a	n/a	n/a	n/a	0	0	0
3811.896	n/a	START	1905948	n/a	LTP187	ltpFR2	6	n/a	n/a	n/a	24	n/a	n/a	n/a	n/a
3811.912	n/a	PROB	1905956	n/a	LTP187	ltpFR2	6	n/a	n/a	n/a	24	18	5	6	7
3813.786	n/a	PROB	1906893	n/a	LTP187	ltpFR2	6	n/a	n/a	n/a	24	18	3	9	6
3815.086	n/a	PROB	1907543	n/a	LTP187	ltpFR2	6	n/a	n/a	n/a	24	16	2	7	7
3816.22	n/a	PROB	1908110	n/a	LTP187	ltpFR2	6	n/a	n/a	n/a	24	11	3	2	6
3817.388	n/a	PROB	1908694	n/a	LTP187	ltpFR2	6	n/a	n/a	n/a	24	17	6	6	5
3818.756	n/a	PROB	1909378	n/a	LTP187	ltpFR2	6	n/a	n/a	n/a	24	26	9	9	8
3820.858	n/a	PROB	1910429	n/a	LTP187	ltpFR2	6	n/a	n/a	n/a	24	17	3	6	8
3822.344	n/a	PROB	1911172	n/a	LTP187	ltpFR2	6	n/a	n/a	n/a	24	22	5	9	8
3824.762	n/a	PROB	1912381	n/a	LTP187	ltpFR2	6	n/a	n/a	n/a	24	12	5	6	1
3826.278	n/a	PROB	1913139	n/a	LTP187	ltpFR2	6	n/a	n/a	n/a	24	19	5	9	5
3828.432	n/a	PROB	1914216	n/a	LTP187	ltpFR2	6	n/a	n/a	n/a	24	18	9	6	3
3830.148	n/a	PROB	1915074	n/a	LTP187	ltpFR2	6	n/a	n/a	n/a	24	20	9	6	5
3832.068	n/a	PROB	1916034	n/a	LTP187	ltpFR2	6	n/a	n/a	n/a	24	20	8	9	3
3833.564	n/a	PROB	1916782	n/a	LTP187	ltpFR2	6	n/a	n/a	n/a	24	12	3	3	6
3835.316	n/a	STOP	1917658	n/a	LTP187	ltpFR2	6	n/a	n/a	n/a	24	n/a	n/a	n/a	n/a
3836.72	n/a	WORD	1918360	wordpools/wasnorm_wordpool_576.txt	LTP187	ltpFR2	6	18	TEMPLE	1448	n/a	n/a	0	0	0
3839.372	n/a	WORD	1919686	wordpools/wasnorm_wordpool_576.txt	LTP187	ltpFR2	6	18	HUSBAND	728	n/a	n/a	0	0	0
3841.904	n/a	WORD	1920952	wordpools/wasnorm_wordpool_576.txt	LTP187	ltpFR2	6	18	FLESH	579	n/a	n/a	0	0	0
3844.408	n/a	WORD	1922204	wordpools/wasnorm_wordpool_576.txt	LTP187	ltpFR2	6	18	JUNGLE	764	n/a	n/a	0	0	0
3847.21	n/a	WORD	1923605	wordpools/wasnorm_wordpool_576.txt	LTP187	ltpFR2	6	18	LUNCH	849	n/a	n/a	0	0	0
3849.714	n/a	WORD	1924857	wordpools/wasnorm_wordpool_576.txt	LTP187	ltpFR2	6	18	DRESSER	496	n/a	n/a	0	0	0
3852.498	n/a	WORD	1926249	wordpools/wasnorm_wordpool_576.txt	LTP187	ltpFR2	6	18	PLAZA	1088	n/a	n/a	0	0	0
3855.1	n/a	WORD	1927550	wordpools/wasnorm_wordpool_576.txt	LTP187	ltpFR2	6	18	ROBOT	1200	n/a	n/a	0	0	0
3857.62	n/a	WORD	1928810	wordpools/wasnorm_wordpool_576.txt	LTP187	ltpFR2	6	18	FRANCE	601	n/a	n/a	0	0	0
3860.356	n/a	WORD	1930178	wordpools/wasnorm_wordpool_576.txt	LTP187	ltpFR2	6	18	PLASTER	1085	n/a	n/a	0	0	0
3863.074	n/a	WORD	1931537	wordpools/wasnorm_wordpool_576.txt	LTP187	ltpFR2	6	18	COD	340	n/a	n/a	0	0	0
3865.776	n/a	WORD	1932888	wordpools/wasnorm_wordpool_576.txt	LTP187	ltpFR2	6	18	DRAGON	492	n/a	n/a	0	0	0
3868.562	n/a	WORD	1934281	wordpools/wasnorm_wordpool_576.txt	LTP187	ltpFR2	6	18	TART	1436	n/a	n/a	0	0	0
3871.13	n/a	WORD	1935565	wordpools/wasnorm_wordpool_576.txt	LTP187	ltpFR2	6	18	LADDER	793	n/a	n/a	0	0	0
3873.866	n/a	WORD	1936933	wordpools/wasnorm_wordpool_576.txt	LTP187	ltpFR2	6	18	AIRPLANE	12	n/a	n/a	0	0	0
3876.652	n/a	WORD	1938326	wordpools/wasnorm_wordpool_576.txt	LTP187	ltpFR2	6	18	SPOUSE	1358	n/a	n/a	0	0	0
3879.188	n/a	WORD	1939594	wordpools/wasnorm_wordpool_576.txt	LTP187	ltpFR2	6	18	GUARD	667	n/a	n/a	0	0	0
3881.772	n/a	WORD	1940886	wordpools/wasnorm_wordpool_576.txt	LTP187	ltpFR2	6	18	SHELTER	1282	n/a	n/a	0	0	0
3884.258	n/a	WORD	1942129	wordpools/wasnorm_wordpool_576.txt	LTP187	ltpFR2	6	18	BRANCH	168	n/a	n/a	0	0	0
3887.01	n/a	WORD	1943505	wordpools/wasnorm_wordpool_576.txt	LTP187	ltpFR2	6	18	FOREST	593	n/a	n/a	0	0	0
3889.496	n/a	WORD	1944748	wordpools/wasnorm_wordpool_576.txt	LTP187	ltpFR2	6	18	PEPPER	1047	n/a	n/a	0	0	0
3891.914	n/a	WORD	1945957	wordpools/wasnorm_wordpool_576.txt	LTP187	ltpFR2	6	18	VENUS	1557	n/a	n/a	0	0	0
3894.684	n/a	WORD	1947342	wordpools/wasnorm_wordpool_576.txt	LTP187	ltpFR2	6	18	EGYPT	519	n/a	n/a	0	0	0
3897.152	n/a	WORD	1948576	wordpools/wasnorm_wordpool_576.txt	LTP187	ltpFR2	6	18	JELLY	755	n/a	n/a	0	0	0
3898.77	n/a	START	1949385	n/a	LTP187	ltpFR2	6	n/a	n/a	n/a	25	n/a	n/a	n/a	n/a
3899.846	n/a	DISTRACTOR	1949923	n/a	LTP187	ltpFR2	6	18	n/a	n/a	n/a	n/a	0	0	0
3899.854	n/a	PROB	1949927	n/a	LTP187	ltpFR2	6	n/a	n/a	n/a	25	13	7	4	2
3901.77	n/a	PROB	1950885	n/a	LTP187	ltpFR2	6	n/a	n/a	n/a	25	9	6	2	1
3903.458	n/a	PROB	1951729	n/a	LTP187	ltpFR2	6	n/a	n/a	n/a	25	19	9	2	8
3904.958	n/a	PROB	1952479	n/a	LTP187	ltpFR2	6	n/a	n/a	n/a	25	12	2	8	2
3906.292	n/a	PROB	1953146	n/a	LTP187	ltpFR2	6	n/a	n/a	n/a	25	21	6	8	7
3908.06	n/a	PROB	1954030	n/a	LTP187	ltpFR2	6	n/a	n/a	n/a	25	21	3	9	9
3910.544	n/a	PROB	1955272	n/a	LTP187	ltpFR2	6	n/a	n/a	n/a	25	12	5	2	5
3911.714	n/a	PROB	1955857	n/a	LTP187	ltpFR2	6	n/a	n/a	n/a	25	15	3	5	7
3913.13	n/a	PROB	1956565	n/a	LTP187	ltpFR2	6	n/a	n/a	n/a	25	18	4	8	6
3914.414	n/a	PROB	1957207	n/a	LTP187	ltpFR2	6	n/a	n/a	n/a	25	13	4	7	2
3915.832	n/a	PROB	1957916	n/a	LTP187	ltpFR2	6	n/a	n/a	n/a	25	18	6	5	7
3917.218	n/a	PROB	1958609	n/a	LTP187	ltpFR2	6	n/a	n/a	n/a	25	13	5	5	3
3918.536	n/a	PROB	1959268	n/a	LTP187	ltpFR2	6	n/a	n/a	n/a	25	20	7	6	7
3920.688	n/a	PROB	1960344	n/a	LTP187	ltpFR2	6	n/a	n/a	n/a	25	16	9	3	4
3922.038	n/a	STOP	1961019	n/a	LTP187	ltpFR2	6	n/a	n/a	n/a	25	n/a	n/a	n/a	n/a
3924.542	n/a	REC_START	1962271	n/a	LTP187	ltpFR2	6	18	n/a	n/a	n/a	n/a	0	0	0
4014.962	n/a	DISTRACTOR	2007481	n/a	LTP187	ltpFR2	6	19	n/a	n/a	n/a	n/a	0	0	0
4014.962	n/a	START	2007481	n/a	LTP187	ltpFR2	6	n/a	n/a	n/a	26	n/a	n/a	n/a	n/a
4014.978	n/a	PROB	2007489	n/a	LTP187	ltpFR2	6	n/a	n/a	n/a	26	14	2	4	8
4016.796	n/a	PROB	2008398	n/a	LTP187	ltpFR2	6	n/a	n/a	n/a	26	6	3	1	2
4019.814	n/a	PROB	2009907	n/a	LTP187	ltpFR2	6	n/a	n/a	n/a	26	16	5	5	6
4021.6	n/a	PROB	2010800	n/a	LTP187	ltpFR2	6	n/a	n/a	n/a	26	5	1	2	2
4023.152	n/a	PROB	2011576	n/a	LTP187	ltpFR2	6	n/a	n/a	n/a	26	17	7	5	5
4027.922	n/a	PROB	2013961	n/a	LTP187	ltpFR2	6	n/a	n/a	n/a	26	18	4	6	8
4029.24	n/a	PROB	2014620	n/a	LTP187	ltpFR2	6	n/a	n/a	n/a	26	12	4	6	2
4030.49	n/a	PROB	2015245	n/a	LTP187	ltpFR2	6	n/a	n/a	n/a	26	17	6	8	3
4032.208	n/a	PROB	2016104	n/a	LTP187	ltpFR2	6	n/a	n/a	n/a	26	17	7	1	9
4033.844	n/a	PROB	2016922	n/a	LTP187	ltpFR2	6	n/a	n/a	n/a	26	15	3	3	9
4035.162	n/a	PROB	2017581	n/a	LTP187	ltpFR2	6	n/a	n/a	n/a	26	10	5	2	3
4036.68	n/a	PROB	2018340	n/a	LTP187	ltpFR2	6	n/a	n/a	n/a	26	15	1	7	7
4037.674	n/a	STOP	2018837	n/a	LTP187	ltpFR2	6	n/a	n/a	n/a	26	n/a	n/a	n/a	n/a
4039.924	n/a	WORD	2019962	wordpools/wasnorm_wordpool_576.txt	LTP187	ltpFR2	6	19	PERFUME	1049	n/a	n/a	0	0	0
4042.684	n/a	WORD	2021342	wordpools/wasnorm_wordpool_576.txt	LTP187	ltpFR2	6	19	NOTEBOOK	959	n/a	n/a	0	0	0
4045.454	n/a	WORD	2022727	wordpools/wasnorm_wordpool_576.txt	LTP187	ltpFR2	6	19	REPORT	1184	n/a	n/a	0	0	0
4047.966	n/a	WORD	2023983	wordpools/wasnorm_wordpool_576.txt	LTP187	ltpFR2	6	19	BLENDER	136	n/a	n/a	0	0	0
4050.486	n/a	WORD	2025243	wordpools/wasnorm_wordpool_576.txt	LTP187	ltpFR2	6	19	GYMNAST	675	n/a	n/a	0	0	0
4053.226	n/a	WORD	2026613	wordpools/wasnorm_wordpool_576.txt	LTP187	ltpFR2	6	19	PACKAGE	997	n/a	n/a	0	0	0
4055.862	n/a	WORD	2027931	wordpools/wasnorm_wordpool_576.txt	LTP187	ltpFR2	6	19	COURSE	390	n/a	n/a	0	0	0
4058.598	n/a	WORD	2029299	wordpools/wasnorm_wordpool_576.txt	LTP187	ltpFR2	6	19	POCKET	1093	n/a	n/a	0	0	0
4061.344	n/a	WORD	2030672	wordpools/wasnorm_wordpool_576.txt	LTP187	ltpFR2	6	19	DRUG	501	n/a	n/a	0	0	0
4063.978	n/a	WORD	2031989	wordpools/wasnorm_wordpool_576.txt	LTP187	ltpFR2	6	19	SPIDER	1351	n/a	n/a	0	0	0
4066.582	n/a	WORD	2033291	wordpools/wasnorm_wordpool_576.txt	LTP187	ltpFR2	6	19	RUST	1219	n/a	n/a	0	0	0
4069.372	n/a	WORD	2034686	wordpools/wasnorm_wordpool_576.txt	LTP187	ltpFR2	6	19	JUGGLER	763	n/a	n/a	0	0	0
4072.088	n/a	WORD	2036044	wordpools/wasnorm_wordpool_576.txt	LTP187	ltpFR2	6	19	ISLAND	745	n/a	n/a	0	0	0
4074.538	n/a	WORD	2037269	wordpools/wasnorm_wordpool_576.txt	LTP187	ltpFR2	6	19	POET	1095	n/a	n/a	0	0	0
4076.978	n/a	WORD	2038489	wordpools/wasnorm_wordpool_576.txt	LTP187	ltpFR2	6	19	SHELF	1280	n/a	n/a	0	0	0
4079.578	n/a	WORD	2039789	wordpools/wasnorm_wordpool_576.txt	LTP187	ltpFR2	6	19	JELLO	754	n/a	n/a	0	0	0
4082.096	n/a	WORD	2041048	wordpools/wasnorm_wordpool_576.txt	LTP187	ltpFR2	6	19	SCALPEL	1243	n/a	n/a	0	0	0
4084.75	n/a	WORD	2042375	wordpools/wasnorm_wordpool_576.txt	LTP187	ltpFR2	6	19	HOOK	715	n/a	n/a	0	0	0
4087.552	n/a	WORD	2043776	wordpools/wasnorm_wordpool_576.txt	LTP187	ltpFR2	6	19	COCKTAIL	338	n/a	n/a	0	0	0
4090.102	n/a	WORD	2045051	wordpools/wasnorm_wordpool_576.txt	LTP187	ltpFR2	6	19	CANAL	226	n/a	n/a	0	0	0
4092.77	n/a	WORD	2046385	wordpools/wasnorm_wordpool_576.txt	LTP187	ltpFR2	6	19	WARDROBE	1587	n/a	n/a	0	0	0
4095.54	n/a	WORD	2047770	wordpools/wasnorm_wordpool_576.txt	LTP187	ltpFR2	6	19	PIZZA	1079	n/a	n/a	0	0	0
4098.276	n/a	WORD	2049138	wordpools/wasnorm_wordpool_576.txt	LTP187	ltpFR2	6	19	TOMBSTONE	1478	n/a	n/a	0	0	0
4100.828	n/a	WORD	2050414	wordpools/wasnorm_wordpool_576.txt	LTP187	ltpFR2	6	19	DRESS	495	n/a	n/a	0	0	0
4102.432	n/a	START	2051216	n/a	LTP187	ltpFR2	6	n/a	n/a	n/a	27	n/a	n/a	n/a	n/a
4103.616	n/a	DISTRACTOR	2051808	n/a	LTP187	ltpFR2	6	19	n/a	n/a	n/a	n/a	0	0	0
4103.632	n/a	PROB	2051816	n/a	LTP187	ltpFR2	6	n/a	n/a	n/a	27	7	4	1	2
4107.018	n/a	PROB	2053509	n/a	LTP187	ltpFR2	6	n/a	n/a	n/a	27	13	8	3	2
4108.37	n/a	PROB	2054185	n/a	LTP187	ltpFR2	6	n/a	n/a	n/a	27	10	1	8	1
4109.604	n/a	PROB	2054802	n/a	LTP187	ltpFR2	6	n/a	n/a	n/a	27	15	3	3	9
4110.82	n/a	PROB	2055410	n/a	LTP187	ltpFR2	6	n/a	n/a	n/a	27	10	4	1	5
4112.606	n/a	PROB	2056303	n/a	LTP187	ltpFR2	6	n/a	n/a	n/a	27	13	6	1	6
4113.956	n/a	PROB	2056978	n/a	LTP187	ltpFR2	6	n/a	n/a	n/a	27	8	4	3	1
4115.242	n/a	PROB	2057621	n/a	LTP187	ltpFR2	6	n/a	n/a	n/a	27	10	2	5	3
4116.708	n/a	PROB	2058354	n/a	LTP187	ltpFR2	6	n/a	n/a	n/a	27	20	9	4	7
4118.96	n/a	PROB	2059480	n/a	LTP187	ltpFR2	6	n/a	n/a	n/a	27	12	8	3	1
4120.63	n/a	PROB	2060315	n/a	LTP187	ltpFR2	6	n/a	n/a	n/a	27	20	9	5	6
4122.564	n/a	PROB	2061282	n/a	LTP187	ltpFR2	6	n/a	n/a	n/a	27	20	4	7	9
4125.596	n/a	STOP	2062798	n/a	LTP187	ltpFR2	6	n/a	n/a	n/a	27	n/a	n/a	n/a	n/a
4128.338	n/a	REC_START	2064169	n/a	LTP187	ltpFR2	6	19	n/a	n/a	n/a	n/a	0	0	0
4132.912	n/a	REC_WORD	2066456	wordpools/wasnorm_wordpool_576.txt	LTP187	ltpFR2	6	19	PERFUME	1049	n/a	n/a	0	0	0
4134.352	n/a	REC_WORD	2067176	wordpools/wasnorm_wordpool_576.txt	LTP187	ltpFR2	6	19	NOTEBOOK	959	n/a	n/a	0	0	0
4135.74	n/a	REC_WORD	2067870	wordpools/wasnorm_wordpool_576.txt	LTP187	ltpFR2	6	19	REPORT	1184	n/a	n/a	0	0	0
4137.36	n/a	REC_WORD	2068680	wordpools/wasnorm_wordpool_576.txt	LTP187	ltpFR2	6	19	JUGGLER	763	n/a	n/a	0	0	0
4139.008	n/a	REC_WORD	2069504	wordpools/wasnorm_wordpool_576.txt	LTP187	ltpFR2	6	19	GYMNAST	675	n/a	n/a	0	0	0
4140.498	n/a	REC_WORD	2070249	wordpools/wasnorm_wordpool_576.txt	LTP187	ltpFR2	6	19	COURSE	390	n/a	n/a	0	0	0
4159.616	n/a	REC_WORD	2079808	wordpools/wasnorm_wordpool_576.txt	LTP187	ltpFR2	6	19	RUST	1219	n/a	n/a	0	0	0
4161.044	n/a	REC_WORD	2080522	wordpools/wasnorm_wordpool_576.txt	LTP187	ltpFR2	6	19	SPIDER	1351	n/a	n/a	0	0	0
4163.202	n/a	REC_WORD	2081601	wordpools/wasnorm_wordpool_576.txt	LTP187	ltpFR2	6	19	DRUG	501	n/a	n/a	0	0	0
4169.498	n/a	REC_WORD	2084749	wordpools/wasnorm_wordpool_576.txt	LTP187	ltpFR2	6	19	ISLAND	745	n/a	n/a	0	0	0
4170.978	n/a	REC_WORD	2085489	wordpools/wasnorm_wordpool_576.txt	LTP187	ltpFR2	6	19	POET	1095	n/a	n/a	0	0	0
4218.772	n/a	WORD	2109386	wordpools/wasnorm_wordpool_576.txt	LTP187	ltpFR2	6	20	SPOON	1357	n/a	n/a	0	0	0
4221.482	n/a	WORD	2110741	wordpools/wasnorm_wordpool_576.txt	LTP187	ltpFR2	6	20	PARROT	1015	n/a	n/a	0	0	0
4224.22	n/a	WORD	2112110	wordpools/wasnorm_wordpool_576.txt	LTP187	ltpFR2	6	20	SHOVEL	1295	n/a	n/a	0	0	0
4227.004	n/a	WORD	2113502	wordpools/wasnorm_wordpool_576.txt	LTP187	ltpFR2	6	20	PRINCE	1124	n/a	n/a	0	0	0
4229.798	n/a	WORD	2114899	wordpools/wasnorm_wordpool_576.txt	LTP187	ltpFR2	6	20	MAMMAL	861	n/a	n/a	0	0	0
4232.518	n/a	WORD	2116259	wordpools/wasnorm_wordpool_576.txt	LTP187	ltpFR2	6	20	LONDON	843	n/a	n/a	0	0	0
4235.188	n/a	WORD	2117594	wordpools/wasnorm_wordpool_576.txt	LTP187	ltpFR2	6	20	CHAPEL	280	n/a	n/a	0	0	0
4237.732	n/a	WORD	2118866	wordpools/wasnorm_wordpool_576.txt	LTP187	ltpFR2	6	20	FRIAR	605	n/a	n/a	0	0	0
4240.458	n/a	WORD	2120229	wordpools/wasnorm_wordpool_576.txt	LTP187	ltpFR2	6	20	HAND	683	n/a	n/a	0	0	0
4243.076	n/a	WORD	2121538	wordpools/wasnorm_wordpool_576.txt	LTP187	ltpFR2	6	20	WRIST	1626	n/a	n/a	0	0	0
4245.854	n/a	WORD	2122927	wordpools/wasnorm_wordpool_576.txt	LTP187	ltpFR2	6	20	TILE	1468	n/a	n/a	0	0	0
4248.556	n/a	WORD	2124278	wordpools/wasnorm_wordpool_576.txt	LTP187	ltpFR2	6	20	PIGEON	1065	n/a	n/a	0	0	0
4251.158	n/a	WORD	2125579	wordpools/wasnorm_wordpool_576.txt	LTP187	ltpFR2	6	20	QUEEN	1149	n/a	n/a	0	0	0
4253.928	n/a	WORD	2126964	wordpools/wasnorm_wordpool_576.txt	LTP187	ltpFR2	6	20	SLIME	1327	n/a	n/a	0	0	0
4256.43	n/a	WORD	2128215	wordpools/wasnorm_wordpool_576.txt	LTP187	ltpFR2	6	20	PARSLEY	1016	n/a	n/a	0	0	0
4259.048	n/a	WORD	2129524	wordpools/wasnorm_wordpool_576.txt	LTP187	ltpFR2	6	20	BRACES	164	n/a	n/a	0	0	0
4261.524	n/a	WORD	2130762	wordpools/wasnorm_wordpool_576.txt	LTP187	ltpFR2	6	20	YARN	1631	n/a	n/a	0	0	0
4263.968	n/a	WORD	2131984	wordpools/wasnorm_wordpool_576.txt	LTP187	ltpFR2	6	20	GROUND	666	n/a	n/a	0	0	0
4266.578	n/a	WORD	2133289	wordpools/wasnorm_wordpool_576.txt	LTP187	ltpFR2	6	20	LUGGAGE	847	n/a	n/a	0	0	0
4269.342	n/a	WORD	2134671	wordpools/wasnorm_wordpool_576.txt	LTP187	ltpFR2	6	20	HAMPER	682	n/a	n/a	0	0	0
4271.81	n/a	WORD	2135905	wordpools/wasnorm_wordpool_576.txt	LTP187	ltpFR2	6	20	GALLON	618	n/a	n/a	0	0	0
4274.284	n/a	WORD	2137142	wordpools/wasnorm_wordpool_576.txt	LTP187	ltpFR2	6	20	HATCHET	691	n/a	n/a	0	0	0
4276.914	n/a	WORD	2138457	wordpools/wasnorm_wordpool_576.txt	LTP187	ltpFR2	6	20	CROWN	415	n/a	n/a	0	0	0
4279.456	n/a	WORD	2139728	wordpools/wasnorm_wordpool_576.txt	LTP187	ltpFR2	6	20	HIKER	708	n/a	n/a	0	0	0
4281.068	n/a	START	2140534	n/a	LTP187	ltpFR2	6	n/a	n/a	n/a	28	n/a	n/a	n/a	n/a
4282.024	n/a	DISTRACTOR	2141012	n/a	LTP187	ltpFR2	6	20	n/a	n/a	n/a	n/a	0	0	0
4282.034	n/a	PROB	2141017	n/a	LTP187	ltpFR2	6	n/a	n/a	n/a	28	22	8	7	7
4285.91	n/a	PROB	2142955	n/a	LTP187	ltpFR2	6	n/a	n/a	n/a	28	16	4	8	4
4288.796	n/a	PROB	2144398	n/a	LTP187	ltpFR2	6	n/a	n/a	n/a	28	13	5	7	1
4290.798	n/a	PROB	2145399	n/a	LTP187	ltpFR2	6	n/a	n/a	n/a	28	21	6	7	8
4292.782	n/a	PROB	2146391	n/a	LTP187	ltpFR2	6	n/a	n/a	n/a	28	15	6	7	2
4294.566	n/a	PROB	2147283	n/a	LTP187	ltpFR2	6	n/a	n/a	n/a	28	11	3	2	6
4296.334	n/a	PROB	2148167	n/a	LTP187	ltpFR2	6	n/a	n/a	n/a	28	23	8	9	6
4298.672	n/a	PROB	2149336	n/a	LTP187	ltpFR2	6	n/a	n/a	n/a	28	15	6	6	3
4300.006	n/a	PROB	2150003	n/a	LTP187	ltpFR2	6	n/a	n/a	n/a	28	5	3	1	1
4301.69	n/a	PROB	2150845	n/a	LTP187	ltpFR2	6	n/a	n/a	n/a	28	13	6	6	1
4305.07	n/a	STOP	2152535	n/a	LTP187	ltpFR2	6	n/a	n/a	n/a	28	n/a	n/a	n/a	n/a
4306.844	n/a	REC_START	2153422	n/a	LTP187	ltpFR2	6	20	n/a	n/a	n/a	n/a	0	0	0
4330.242	n/a	REC_WORD	2165121	wordpools/wasnorm_wordpool_576.txt	LTP187	ltpFR2	6	20	SPOON	1357	n/a	n/a	0	0	0
4332.53	n/a	REC_WORD	2166265	wordpools/wasnorm_wordpool_576.txt	LTP187	ltpFR2	6	20	PARROT	1015	n/a	n/a	0	0	0
4333.658	n/a	REC_WORD	2166829	wordpools/wasnorm_wordpool_576.txt	LTP187	ltpFR2	6	20	SHOVEL	1295	n/a	n/a	0	0	0
4334.824	n/a	REC_WORD	2167412	wordpools/wasnorm_wordpool_576.txt	LTP187	ltpFR2	6	20	MAMMAL	861	n/a	n/a	0	0	0
4336.19	n/a	REC_WORD	2168095	wordpools/wasnorm_wordpool_576.txt	LTP187	ltpFR2	6	20	PRINCE	1124	n/a	n/a	0	0	0
4337.406	n/a	REC_WORD	2168703	wordpools/wasnorm_wordpool_576.txt	LTP187	ltpFR2	6	20	FRIAR	605	n/a	n/a	0	0	0
4338.56	n/a	REC_WORD	2169280	wordpools/wasnorm_wordpool_576.txt	LTP187	ltpFR2	6	20	HAND	683	n/a	n/a	0	0	0
4339.91	n/a	REC_WORD	2169955	wordpools/wasnorm_wordpool_576.txt	LTP187	ltpFR2	6	20	WRIST	1626	n/a	n/a	0	0	0
4341.778	n/a	REC_WORD	2170889	wordpools/wasnorm_wordpool_576.txt	LTP187	ltpFR2	6	20	PIGEON	1065	n/a	n/a	0	0	0
4342.992	n/a	REC_WORD	2171496	wordpools/wasnorm_wordpool_576.txt	LTP187	ltpFR2	6	20	SLIME	1327	n/a	n/a	0	0	0
4344.638	n/a	REC_WORD	2172319	wordpools/wasnorm_wordpool_576.txt	LTP187	ltpFR2	6	20	QUEEN	1149	n/a	n/a	0	0	0
4346.426	n/a	REC_WORD	2173213	wordpools/wasnorm_wordpool_576.txt	LTP187	ltpFR2	6	20	PARSLEY	1016	n/a	n/a	0	0	0
4347.864	n/a	REC_WORD	2173932	wordpools/wasnorm_wordpool_576.txt	LTP187	ltpFR2	6	20	BRACES	164	n/a	n/a	0	0	0
4349.414	n/a	REC_WORD	2174707	wordpools/wasnorm_wordpool_576.txt	LTP187	ltpFR2	6	20	GALLON	618	n/a	n/a	0	0	0
4350.958	n/a	REC_WORD	2175479	wordpools/wasnorm_wordpool_576.txt	LTP187	ltpFR2	6	20	CROWN	415	n/a	n/a	0	0	0
4353.576	n/a	REC_WORD	2176788	wordpools/wasnorm_wordpool_576.txt	LTP187	ltpFR2	6	20	HATCHET	691	n/a	n/a	0	0	0
4354.9	n/a	REC_WORD	2177450	wordpools/wasnorm_wordpool_576.txt	LTP187	ltpFR2	6	20	HAMPER	682	n/a	n/a	0	0	0
4359.736	n/a	REC_WORD	2179868	wordpools/wasnorm_wordpool_576.txt	LTP187	ltpFR2	6	20	GROUND	666	n/a	n/a	0	0	0
4362.982	n/a	REC_WORD	2181491	wordpools/wasnorm_wordpool_576.txt	LTP187	ltpFR2	6	20	LUGGAGE	847	n/a	n/a	0	0	0
4364.458	n/a	REC_WORD	2182229	wordpools/wasnorm_wordpool_576.txt	LTP187	ltpFR2	6	20	YARN	1631	n/a	n/a	0	0	0
4397.284	n/a	DISTRACTOR	2198642	n/a	LTP187	ltpFR2	6	21	n/a	n/a	n/a	n/a	0	0	0
4397.284	n/a	START	2198642	n/a	LTP187	ltpFR2	6	n/a	n/a	n/a	29	n/a	n/a	n/a	n/a
