onset	duration	trial_type	sample	stim_file	subject	experiment	session	trial	task	item_name	item_num	recog_conf	resp	color_b	color_g	color_r	case	font
289.552	n/a	SESS_START	144776	n/a	LTP188	ltpFR	14	n/a	n/a	n/a	n/a	5	n/a	n/a	n/a	n/a	n/a	n/a
354.086	n/a	WORD	177043	wordpools/wasnorm_wordpool_less_exclusions.txt	LTP188	ltpFR	14	1	0	DIAGRAM	456	n/a	1	0	0.5869140625	0.422607421875	upper	../fonts/zerothre.ttf
358.134	n/a	WORD	179067	wordpools/wasnorm_wordpool_less_exclusions.txt	LTP188	ltpFR	14	1	0	VISITOR	1573	n/a	1	0	0.5869140625	0.422607421875	upper	../fonts/zerothre.ttf
362.11	n/a	WORD	181055	wordpools/wasnorm_wordpool_less_exclusions.txt	LTP188	ltpFR	14	1	0	WHEAT	1602	n/a	0	0	0.5869140625	0.422607421875	upper	../fonts/zerothre.ttf
366.216	n/a	WORD	183108	wordpools/wasnorm_wordpool_less_exclusions.txt	LTP188	ltpFR	14	1	1	PISTON	1076	n/a	0	1	0.412841796875	0.57763671875	lower	../fonts/amplitud.ttf
370.292	n/a	WORD	185146	wordpools/wasnorm_wordpool_less_exclusions.txt	LTP188	ltpFR	14	1	1	CONE	363	n/a	0	1	0.412841796875	0.57763671875	lower	../fonts/amplitud.ttf
374.314	n/a	WORD	187157	wordpools/wasnorm_wordpool_less_exclusions.txt	LTP188	ltpFR	14	1	1	CAKE	219	n/a	0	1	0.412841796875	0.57763671875	lower	../fonts/amplitud.ttf
378.378	n/a	WORD	189189	wordpools/wasnorm_wordpool_less_exclusions.txt	LTP188	ltpFR	14	1	1	FREEWAY	603	n/a	0	1	0.412841796875	0.57763671875	lower	../fonts/amplitud.ttf
382.512	n/a	WORD	191256	wordpools/wasnorm_wordpool_less_exclusions.txt	LTP188	ltpFR	14	1	1	GAZELLE	628	n/a	1	1	0.412841796875	0.57763671875	lower	../fonts/amplitud.ttf
386.488	n/a	WORD	193244	wordpools/wasnorm_wordpool_less_exclusions.txt	LTP188	ltpFR	14	1	1	CANOE	233	n/a	0	1	0.412841796875	0.57763671875	lower	../fonts/amplitud.ttf
390.436	n/a	WORD	195218	wordpools/wasnorm_wordpool_less_exclusions.txt	LTP188	ltpFR	14	1	0	SKETCH	1315	n/a	1	0	0.5869140625	0.422607421875	upper	../fonts/zerothre.ttf
394.624	n/a	WORD	197312	wordpools/wasnorm_wordpool_less_exclusions.txt	LTP188	ltpFR	14	1	0	PLASTER	1085	n/a	1	0	0.5869140625	0.422607421875	upper	../fonts/zerothre.ttf
398.566	n/a	WORD	199283	wordpools/wasnorm_wordpool_less_exclusions.txt	LTP188	ltpFR	14	1	0	ASSOCIATE	49	n/a	1	0	0.5869140625	0.422607421875	upper	../fonts/zerothre.ttf
402.414	n/a	WORD	201207	wordpools/wasnorm_wordpool_less_exclusions.txt	LTP188	ltpFR	14	1	0	BUTTERFLY	206	n/a	0	0	0.5869140625	0.422607421875	upper	../fonts/zerothre.ttf
406.548	n/a	WORD	203274	wordpools/wasnorm_wordpool_less_exclusions.txt	LTP188	ltpFR	14	1	0	NUN	962	n/a	1	0	0.5869140625	0.422607421875	upper	../fonts/zerothre.ttf
410.568	n/a	WORD	205284	wordpools/wasnorm_wordpool_less_exclusions.txt	LTP188	ltpFR	14	1	1	PRIEST	1122	n/a	1	1	0.412841796875	0.57763671875	lower	../fonts/amplitud.ttf
414.634	n/a	WORD	207317	wordpools/wasnorm_wordpool_less_exclusions.txt	LTP188	ltpFR	14	1	1	STALLION	1369	n/a	1	1	0.412841796875	0.57763671875	lower	../fonts/amplitud.ttf
420.574	n/a	REC_START	210287	n/a	LTP188	ltpFR	14	1	n/a	n/a	n/a	n/a	n/a	n/a	n/a	n/a	n/a	n/a
421.458	n/a	REC_WORD	210729	wordpools/wasnorm_wordpool_less_exclusions.txt	LTP188	ltpFR	14	1	1	PRIEST	1122	n/a	1	n/a	n/a	n/a	n/a	n/a
422.272	n/a	REC_WORD	211136	wordpools/wasnorm_wordpool_less_exclusions.txt	LTP188	ltpFR	14	1	0	NUN	962	n/a	1	n/a	n/a	n/a	n/a	n/a
422.834	n/a	REC_WORD	211417	wordpools/wasnorm_wordpool_less_exclusions.txt	LTP188	ltpFR	14	1	1	STALLION	1369	n/a	1	n/a	n/a	n/a	n/a	n/a
423.834	n/a	REC_WORD_VV	211917	wordpools/wasnorm_wordpool_less_exclusions.txt	LTP188	ltpFR	14	1	n/a	<>	-1	n/a	n/a	n/a	n/a	n/a	n/a	n/a
424.112	n/a	REC_WORD	212056	wordpools/wasnorm_wordpool_less_exclusions.txt	LTP188	ltpFR	14	1	1	CANOE	233	n/a	0	n/a	n/a	n/a	n/a	n/a
432.558	n/a	REC_WORD	216279	wordpools/wasnorm_wordpool_less_exclusions.txt	LTP188	ltpFR	14	1	0	ASSOCIATE	49	n/a	1	n/a	n/a	n/a	n/a	n/a
436.708	n/a	REC_WORD	218354	wordpools/wasnorm_wordpool_less_exclusions.txt	LTP188	ltpFR	14	1	1	GAZELLE	628	n/a	1	n/a	n/a	n/a	n/a	n/a
439.352	n/a	REC_WORD	219676	wordpools/wasnorm_wordpool_less_exclusions.txt	LTP188	ltpFR	14	1	1	CAKE	219	n/a	0	n/a	n/a	n/a	n/a	n/a
455.722	n/a	REC_WORD	227861	wordpools/wasnorm_wordpool_less_exclusions.txt	LTP188	ltpFR	14	1	0	VISITOR	1573	n/a	1	n/a	n/a	n/a	n/a	n/a
457.114	n/a	REC_WORD	228557	wordpools/wasnorm_wordpool_less_exclusions.txt	LTP188	ltpFR	14	1	0	WHEAT	1602	n/a	0	n/a	n/a	n/a	n/a	n/a
466.782	n/a	REC_WORD	233391	wordpools/wasnorm_wordpool_less_exclusions.txt	LTP188	ltpFR	14	1	1	CANOE	233	n/a	0	n/a	n/a	n/a	n/a	n/a
516.768	n/a	WORD	258384	wordpools/wasnorm_wordpool_less_exclusions.txt	LTP188	ltpFR	14	2	1	APPENDAGE	32	n/a	0	1	0.412841796875	0.57763671875	lower	../fonts/amplitud.ttf
520.774	n/a	WORD	260387	wordpools/wasnorm_wordpool_less_exclusions.txt	LTP188	ltpFR	14	2	1	JUPITER	765	n/a	0	1	0.412841796875	0.57763671875	lower	../fonts/amplitud.ttf
524.872	n/a	WORD	262436	wordpools/wasnorm_wordpool_less_exclusions.txt	LTP188	ltpFR	14	2	1	RULER	1216	n/a	0	1	0.412841796875	0.57763671875	lower	../fonts/amplitud.ttf
528.964	n/a	WORD	264482	wordpools/wasnorm_wordpool_less_exclusions.txt	LTP188	ltpFR	14	2	1	PLANT	1083	n/a	0	1	0.412841796875	0.57763671875	lower	../fonts/amplitud.ttf
532.786	n/a	WORD	266393	wordpools/wasnorm_wordpool_less_exclusions.txt	LTP188	ltpFR	14	2	1	FOREHEAD	592	n/a	0	1	0.412841796875	0.57763671875	lower	../fonts/amplitud.ttf
536.712	n/a	WORD	268356	wordpools/wasnorm_wordpool_less_exclusions.txt	LTP188	ltpFR	14	2	0	HEAD	695	n/a	1	0	0.5869140625	0.422607421875	upper	../fonts/zerothre.ttf
540.566	n/a	WORD	270283	wordpools/wasnorm_wordpool_less_exclusions.txt	LTP188	ltpFR	14	2	0	SCARF	1246	n/a	0	0	0.5869140625	0.422607421875	upper	../fonts/zerothre.ttf
544.542	n/a	WORD	272271	wordpools/wasnorm_wordpool_less_exclusions.txt	LTP188	ltpFR	14	2	0	MASCARA	875	n/a	0	0	0.5869140625	0.422607421875	upper	../fonts/zerothre.ttf
548.478	n/a	WORD	274239	wordpools/wasnorm_wordpool_less_exclusions.txt	LTP188	ltpFR	14	2	1	SPICE	1350	n/a	0	1	0.412841796875	0.57763671875	lower	../fonts/amplitud.ttf
552.528	n/a	WORD	276264	wordpools/wasnorm_wordpool_less_exclusions.txt	LTP188	ltpFR	14	2	1	SAILOR	1223	n/a	1	1	0.412841796875	0.57763671875	lower	../fonts/amplitud.ttf
556.57	n/a	WORD	278285	wordpools/wasnorm_wordpool_less_exclusions.txt	LTP188	ltpFR	14	2	1	CHALK	276	n/a	0	1	0.412841796875	0.57763671875	lower	../fonts/amplitud.ttf
560.442	n/a	WORD	280221	wordpools/wasnorm_wordpool_less_exclusions.txt	LTP188	ltpFR	14	2	0	CHAIRPERSON	275	n/a	1	0	0.5869140625	0.422607421875	upper	../fonts/zerothre.ttf
564.64	n/a	WORD	282320	wordpools/wasnorm_wordpool_less_exclusions.txt	LTP188	ltpFR	14	2	0	MARINE	869	n/a	1	0	0.5869140625	0.422607421875	upper	../fonts/zerothre.ttf
568.572	n/a	WORD	284286	wordpools/wasnorm_wordpool_less_exclusions.txt	LTP188	ltpFR	14	2	0	STEM	1376	n/a	0	0	0.5869140625	0.422607421875	upper	../fonts/zerothre.ttf
572.656	n/a	WORD	286328	wordpools/wasnorm_wordpool_less_exclusions.txt	LTP188	ltpFR	14	2	0	DONOR	485	n/a	1	0	0.5869140625	0.422607421875	upper	../fonts/zerothre.ttf
576.636	n/a	WORD	288318	wordpools/wasnorm_wordpool_less_exclusions.txt	LTP188	ltpFR	14	2	0	VAMPIRE	1547	n/a	1	0	0.5869140625	0.422607421875	upper	../fonts/zerothre.ttf
582.626	n/a	REC_START	291313	n/a	LTP188	ltpFR	14	2	n/a	n/a	n/a	n/a	n/a	n/a	n/a	n/a	n/a	n/a
583.234	n/a	REC_WORD	291617	wordpools/wasnorm_wordpool_less_exclusions.txt	LTP188	ltpFR	14	2	0	VAMPIRE	1547	n/a	1	n/a	n/a	n/a	n/a	n/a
584.418	n/a	REC_WORD	292209	wordpools/wasnorm_wordpool_less_exclusions.txt	LTP188	ltpFR	14	2	0	DONOR	485	n/a	1	n/a	n/a	n/a	n/a	n/a
586.214	n/a	REC_WORD	293107	wordpools/wasnorm_wordpool_less_exclusions.txt	LTP188	ltpFR	14	2	0	CHAIRPERSON	275	n/a	1	n/a	n/a	n/a	n/a	n/a
587.214	n/a	REC_WORD_VV	293607	wordpools/wasnorm_wordpool_less_exclusions.txt	LTP188	ltpFR	14	2	n/a	<>	-1	n/a	n/a	n/a	n/a	n/a	n/a	n/a
590.458	n/a	REC_WORD	295229	wordpools/wasnorm_wordpool_less_exclusions.txt	LTP188	ltpFR	14	2	0	STEM	1376	n/a	0	n/a	n/a	n/a	n/a	n/a
614.146	n/a	REC_WORD	307073	wordpools/wasnorm_wordpool_less_exclusions.txt	LTP188	ltpFR	14	2	1	PLANT	1083	n/a	0	n/a	n/a	n/a	n/a	n/a
676.562	n/a	WORD	338281	wordpools/wasnorm_wordpool_less_exclusions.txt	LTP188	ltpFR	14	3	0	SWAN	1417	n/a	1	0	0.5869140625	0.422607421875	upper	../fonts/zerothre.ttf
680.734	n/a	WORD	340367	wordpools/wasnorm_wordpool_less_exclusions.txt	LTP188	ltpFR	14	3	0	COFFEE	341	n/a	0	0	0.5869140625	0.422607421875	upper	../fonts/zerothre.ttf
684.828	n/a	WORD	342414	wordpools/wasnorm_wordpool_less_exclusions.txt	LTP188	ltpFR	14	3	0	BAKER	71	n/a	1	0	0.5869140625	0.422607421875	upper	../fonts/zerothre.ttf
688.95	n/a	WORD	344475	wordpools/wasnorm_wordpool_less_exclusions.txt	LTP188	ltpFR	14	3	0	ASHTRAY	45	n/a	0	0	0.5869140625	0.422607421875	upper	../fonts/zerothre.ttf
693.092	n/a	WORD	346546	wordpools/wasnorm_wordpool_less_exclusions.txt	LTP188	ltpFR	14	3	0	FIREMAN	569	n/a	1	0	0.5869140625	0.422607421875	upper	../fonts/zerothre.ttf
697.012	n/a	WORD	348506	wordpools/wasnorm_wordpool_less_exclusions.txt	LTP188	ltpFR	14	3	0	VOLLEYBALL	1576	n/a	1	0	0.5869140625	0.422607421875	upper	../fonts/zerothre.ttf
701.028	n/a	WORD	350514	wordpools/wasnorm_wordpool_less_exclusions.txt	LTP188	ltpFR	14	3	0	PAWN	1030	n/a	0	0	0.5869140625	0.422607421875	upper	../fonts/zerothre.ttf
705.078	n/a	WORD	352539	wordpools/wasnorm_wordpool_less_exclusions.txt	LTP188	ltpFR	14	3	0	HERB	704	n/a	0	0	0.5869140625	0.422607421875	upper	../fonts/zerothre.ttf
709.06	n/a	WORD	354530	wordpools/wasnorm_wordpool_less_exclusions.txt	LTP188	ltpFR	14	3	0	MOTOR	922	n/a	1	0	0.5869140625	0.422607421875	upper	../fonts/zerothre.ttf
712.974	n/a	WORD	356487	wordpools/wasnorm_wordpool_less_exclusions.txt	LTP188	ltpFR	14	3	0	PATROL	1027	n/a	1	0	0.5869140625	0.422607421875	upper	../fonts/zerothre.ttf
716.8	n/a	WORD	358400	wordpools/wasnorm_wordpool_less_exclusions.txt	LTP188	ltpFR	14	3	0	MOAT	903	n/a	1	0	0.5869140625	0.422607421875	upper	../fonts/zerothre.ttf
720.714	n/a	WORD	360357	wordpools/wasnorm_wordpool_less_exclusions.txt	LTP188	ltpFR	14	3	0	TREAD	1499	n/a	1	0	0.5869140625	0.422607421875	upper	../fonts/zerothre.ttf
724.62	n/a	WORD	362310	wordpools/wasnorm_wordpool_less_exclusions.txt	LTP188	ltpFR	14	3	0	SHOP	1290	n/a	1	0	0.5869140625	0.422607421875	upper	../fonts/zerothre.ttf
728.55	n/a	WORD	364275	wordpools/wasnorm_wordpool_less_exclusions.txt	LTP188	ltpFR	14	3	0	DRILL	497	n/a	0	0	0.5869140625	0.422607421875	upper	../fonts/zerothre.ttf
732.61	n/a	WORD	366305	wordpools/wasnorm_wordpool_less_exclusions.txt	LTP188	ltpFR	14	3	0	CABBAGE	210	n/a	0	0	0.5869140625	0.422607421875	upper	../fonts/zerothre.ttf
736.448	n/a	WORD	368224	wordpools/wasnorm_wordpool_less_exclusions.txt	LTP188	ltpFR	14	3	0	TOMATO	1476	n/a	0	0	0.5869140625	0.422607421875	upper	../fonts/zerothre.ttf
742.338	n/a	REC_START	371169	n/a	LTP188	ltpFR	14	3	n/a	n/a	n/a	n/a	n/a	n/a	n/a	n/a	n/a	n/a
742.962	n/a	REC_WORD	371481	wordpools/wasnorm_wordpool_less_exclusions.txt	LTP188	ltpFR	14	3	0	TOMATO	1476	n/a	0	n/a	n/a	n/a	n/a	n/a
744.13	n/a	REC_WORD	372065	wordpools/wasnorm_wordpool_less_exclusions.txt	LTP188	ltpFR	14	3	0	DRILL	497	n/a	0	n/a	n/a	n/a	n/a	n/a
745.316	n/a	REC_WORD	372658	wordpools/wasnorm_wordpool_less_exclusions.txt	LTP188	ltpFR	14	3	0	CABBAGE	210	n/a	0	n/a	n/a	n/a	n/a	n/a
947.884	n/a	WORD	473942	wordpools/wasnorm_wordpool_less_exclusions.txt	LTP188	ltpFR	14	4	0	CUCUMBER	421	n/a	0	0	0.5869140625	0.422607421875	upper	../fonts/zerothre.ttf
951.982	n/a	WORD	475991	wordpools/wasnorm_wordpool_less_exclusions.txt	LTP188	ltpFR	14	4	0	DIRT	472	n/a	0	0	0.5869140625	0.422607421875	upper	../fonts/zerothre.ttf
955.964	n/a	WORD	477982	wordpools/wasnorm_wordpool_less_exclusions.txt	LTP188	ltpFR	14	4	0	DUSTPAN	509	n/a	1	0	0.5869140625	0.422607421875	upper	../fonts/zerothre.ttf
959.946	n/a	WORD	479973	wordpools/wasnorm_wordpool_less_exclusions.txt	LTP188	ltpFR	14	4	0	ORCHESTRA	981	n/a	1	0	0.5869140625	0.422607421875	upper	../fonts/zerothre.ttf
964.01	n/a	WORD	482005	wordpools/wasnorm_wordpool_less_exclusions.txt	LTP188	ltpFR	14	4	1	STREAM	1392	n/a	0	1	0.412841796875	0.57763671875	lower	../fonts/amplitud.ttf
968.0	n/a	WORD	484000	wordpools/wasnorm_wordpool_less_exclusions.txt	LTP188	ltpFR	14	4	1	WATERFALL	1595	n/a	0	1	0.412841796875	0.57763671875	lower	../fonts/amplitud.ttf
971.964	n/a	WORD	485982	wordpools/wasnorm_wordpool_less_exclusions.txt	LTP188	ltpFR	14	4	0	ANKLE	24	n/a	0	0	0.5869140625	0.422607421875	upper	../fonts/zerothre.ttf
975.956	n/a	WORD	487978	wordpools/wasnorm_wordpool_less_exclusions.txt	LTP188	ltpFR	14	4	0	WRIST	1626	n/a	0	0	0.5869140625	0.422607421875	upper	../fonts/zerothre.ttf
979.828	n/a	WORD	489914	wordpools/wasnorm_wordpool_less_exclusions.txt	LTP188	ltpFR	14	4	0	SALAD	1224	n/a	0	0	0.5869140625	0.422607421875	upper	../fonts/zerothre.ttf
984.008	n/a	WORD	492004	wordpools/wasnorm_wordpool_less_exclusions.txt	LTP188	ltpFR	14	4	0	VIOLA	1570	n/a	1	0	0.5869140625	0.422607421875	upper	../fonts/zerothre.ttf
988.008	n/a	WORD	494004	wordpools/wasnorm_wordpool_less_exclusions.txt	LTP188	ltpFR	14	4	1	SODA	1341	n/a	0	1	0.412841796875	0.57763671875	lower	../fonts/amplitud.ttf
992.092	n/a	WORD	496046	wordpools/wasnorm_wordpool_less_exclusions.txt	LTP188	ltpFR	14	4	1	CRAB	397	n/a	0	1	0.412841796875	0.57763671875	lower	../fonts/amplitud.ttf
996.1	n/a	WORD	498050	wordpools/wasnorm_wordpool_less_exclusions.txt	LTP188	ltpFR	14	4	1	MARSH	874	n/a	1	1	0.412841796875	0.57763671875	lower	../fonts/amplitud.ttf
1000.172	n/a	WORD	500086	wordpools/wasnorm_wordpool_less_exclusions.txt	LTP188	ltpFR	14	4	1	ELECTRICIAN	521	n/a	1	1	0.412841796875	0.57763671875	lower	../fonts/amplitud.ttf
1004.338	n/a	WORD	502169	wordpools/wasnorm_wordpool_less_exclusions.txt	LTP188	ltpFR	14	4	1	TURKEY	1520	n/a	1	1	0.412841796875	0.57763671875	lower	../fonts/amplitud.ttf
1008.27	n/a	WORD	504135	wordpools/wasnorm_wordpool_less_exclusions.txt	LTP188	ltpFR	14	4	1	LEMON	810	n/a	1	1	0.412841796875	0.57763671875	lower	../fonts/amplitud.ttf
1014.058	n/a	REC_START	507029	n/a	LTP188	ltpFR	14	4	n/a	n/a	n/a	n/a	n/a	n/a	n/a	n/a	n/a	n/a
1015.16	n/a	REC_WORD	507580	wordpools/wasnorm_wordpool_less_exclusions.txt	LTP188	ltpFR	14	4	1	TURKEY	1520	n/a	1	n/a	n/a	n/a	n/a	n/a
1015.886	n/a	REC_WORD	507943	wordpools/wasnorm_wordpool_less_exclusions.txt	LTP188	ltpFR	14	4	1	LEMON	810	n/a	1	n/a	n/a	n/a	n/a	n/a
1020.378	n/a	REC_WORD	510189	wordpools/wasnorm_wordpool_less_exclusions.txt	LTP188	ltpFR	14	4	0	CUCUMBER	421	n/a	0	n/a	n/a	n/a	n/a	n/a
1024.296	n/a	REC_WORD	512148	wordpools/wasnorm_wordpool_less_exclusions.txt	LTP188	ltpFR	14	4	0	ORCHESTRA	981	n/a	1	n/a	n/a	n/a	n/a	n/a
1047.678	n/a	REC_WORD	523839	wordpools/wasnorm_wordpool_less_exclusions.txt	LTP188	ltpFR	14	4	0	TOMATO	1476	n/a	0	n/a	n/a	n/a	n/a	n/a
1058.55	n/a	REC_WORD	529275	wordpools/wasnorm_wordpool_less_exclusions.txt	LTP188	ltpFR	14	4	0	ANKLE	24	n/a	0	n/a	n/a	n/a	n/a	n/a
1059.658	n/a	REC_WORD	529829	wordpools/wasnorm_wordpool_less_exclusions.txt	LTP188	ltpFR	14	4	0	WRIST	1626	n/a	0	n/a	n/a	n/a	n/a	n/a
1070.184	n/a	REC_WORD	535092	wordpools/wasnorm_wordpool_less_exclusions.txt	LTP188	ltpFR	14	4	0	SALAD	1224	n/a	0	n/a	n/a	n/a	n/a	n/a
1137.832	n/a	WORD	568916	wordpools/wasnorm_wordpool_less_exclusions.txt	LTP188	ltpFR	14	5	-1	PEN	1041	n/a	-1	1	1.0	1.0	upper	../fonts/Verdana.ttf
1141.73	n/a	WORD	570865	wordpools/wasnorm_wordpool_less_exclusions.txt	LTP188	ltpFR	14	5	-1	MARKER	870	n/a	-1	1	1.0	1.0	upper	../fonts/Verdana.ttf
1145.896	n/a	WORD	572948	wordpools/wasnorm_wordpool_less_exclusions.txt	LTP188	ltpFR	14	5	-1	SENATOR	1268	n/a	-1	1	1.0	1.0	upper	../fonts/Verdana.ttf
1149.754	n/a	WORD	574877	wordpools/wasnorm_wordpool_less_exclusions.txt	LTP188	ltpFR	14	5	-1	BLACKBOARD	133	n/a	-1	1	1.0	1.0	upper	../fonts/Verdana.ttf
1153.954	n/a	WORD	576977	wordpools/wasnorm_wordpool_less_exclusions.txt	LTP188	ltpFR	14	5	-1	RAFT	1159	n/a	-1	1	1.0	1.0	upper	../fonts/Verdana.ttf
1157.986	n/a	WORD	578993	wordpools/wasnorm_wordpool_less_exclusions.txt	LTP188	ltpFR	14	5	-1	DUST	508	n/a	-1	1	1.0	1.0	upper	../fonts/Verdana.ttf
1162.14	n/a	WORD	581070	wordpools/wasnorm_wordpool_less_exclusions.txt	LTP188	ltpFR	14	5	-1	KEYBOARD	774	n/a	-1	1	1.0	1.0	upper	../fonts/Verdana.ttf
1166.156	n/a	WORD	583078	wordpools/wasnorm_wordpool_less_exclusions.txt	LTP188	ltpFR	14	5	-1	LIVER	833	n/a	-1	1	1.0	1.0	upper	../fonts/Verdana.ttf
1170.372	n/a	WORD	585186	wordpools/wasnorm_wordpool_less_exclusions.txt	LTP188	ltpFR	14	5	-1	OATS	968	n/a	-1	1	1.0	1.0	upper	../fonts/Verdana.ttf
1174.516	n/a	WORD	587258	wordpools/wasnorm_wordpool_less_exclusions.txt	LTP188	ltpFR	14	5	-1	DAD	433	n/a	-1	1	1.0	1.0	upper	../fonts/Verdana.ttf
1178.548	n/a	WORD	589274	wordpools/wasnorm_wordpool_less_exclusions.txt	LTP188	ltpFR	14	5	-1	ERASER	538	n/a	-1	1	1.0	1.0	upper	../fonts/Verdana.ttf
1182.612	n/a	WORD	591306	wordpools/wasnorm_wordpool_less_exclusions.txt	LTP188	ltpFR	14	5	-1	SPY	1360	n/a	-1	1	1.0	1.0	upper	../fonts/Verdana.ttf
1186.578	n/a	WORD	593289	wordpools/wasnorm_wordpool_less_exclusions.txt	LTP188	ltpFR	14	5	-1	VALLEY	1545	n/a	-1	1	1.0	1.0	upper	../fonts/Verdana.ttf
1190.532	n/a	WORD	595266	wordpools/wasnorm_wordpool_less_exclusions.txt	LTP188	ltpFR	14	5	-1	CEREAL	272	n/a	-1	1	1.0	1.0	upper	../fonts/Verdana.ttf
1194.542	n/a	WORD	597271	wordpools/wasnorm_wordpool_less_exclusions.txt	LTP188	ltpFR	14	5	-1	CHOCOLATE	306	n/a	-1	1	1.0	1.0	upper	../fonts/Verdana.ttf
1198.63	n/a	WORD	599315	wordpools/wasnorm_wordpool_less_exclusions.txt	LTP188	ltpFR	14	5	-1	TAPIOCA	1434	n/a	-1	1	1.0	1.0	upper	../fonts/Verdana.ttf
1204.43	n/a	REC_START	602215	n/a	LTP188	ltpFR	14	5	n/a	n/a	n/a	n/a	n/a	n/a	n/a	n/a	n/a	n/a
1204.984	n/a	REC_WORD	602492	wordpools/wasnorm_wordpool_less_exclusions.txt	LTP188	ltpFR	14	5	-1	CHOCOLATE	306	n/a	-1	n/a	n/a	n/a	n/a	n/a
1205.722	n/a	REC_WORD	602861	wordpools/wasnorm_wordpool_less_exclusions.txt	LTP188	ltpFR	14	5	-1	TAPIOCA	1434	n/a	-1	n/a	n/a	n/a	n/a	n/a
1206.82	n/a	REC_WORD	603410	wordpools/wasnorm_wordpool_less_exclusions.txt	LTP188	ltpFR	14	5	-1	CEREAL	272	n/a	-1	n/a	n/a	n/a	n/a	n/a
1208.906	n/a	REC_WORD	604453	wordpools/wasnorm_wordpool_less_exclusions.txt	LTP188	ltpFR	14	5	-1	BLACKBOARD	133	n/a	-1	n/a	n/a	n/a	n/a	n/a
1209.906	n/a	REC_WORD_VV	604953	wordpools/wasnorm_wordpool_less_exclusions.txt	LTP188	ltpFR	14	5	n/a	<>	-1	n/a	n/a	n/a	n/a	n/a	n/a	n/a
1214.284	n/a	REC_WORD	607142	wordpools/wasnorm_wordpool_less_exclusions.txt	LTP188	ltpFR	14	5	-1	PEN	1041	n/a	-1	n/a	n/a	n/a	n/a	n/a
1215.216	n/a	REC_WORD	607608	wordpools/wasnorm_wordpool_less_exclusions.txt	LTP188	ltpFR	14	5	-1	MARKER	870	n/a	-1	n/a	n/a	n/a	n/a	n/a
1222.31	n/a	REC_WORD	611155	wordpools/wasnorm_wordpool_less_exclusions.txt	LTP188	ltpFR	14	5	0	SALAD	1224	n/a	0	n/a	n/a	n/a	n/a	n/a
1253.168	n/a	REC_WORD	626584	wordpools/wasnorm_wordpool_less_exclusions.txt	LTP188	ltpFR	14	5	-1	TAPIOCA	1434	n/a	-1	n/a	n/a	n/a	n/a	n/a
1254.168	n/a	REC_WORD_VV	627084	wordpools/wasnorm_wordpool_less_exclusions.txt	LTP188	ltpFR	14	5	n/a	<>	-1	n/a	n/a	n/a	n/a	n/a	n/a	n/a
1299.95	n/a	WORD	649975	wordpools/wasnorm_wordpool_less_exclusions.txt	LTP188	ltpFR	14	6	-1	KEEPER	769	n/a	-1	1	1.0	1.0	upper	../fonts/Verdana.ttf
1304.118	n/a	WORD	652059	wordpools/wasnorm_wordpool_less_exclusions.txt	LTP188	ltpFR	14	6	-1	INFANT	737	n/a	-1	1	1.0	1.0	upper	../fonts/Verdana.ttf
1308.16	n/a	WORD	654080	wordpools/wasnorm_wordpool_less_exclusions.txt	LTP188	ltpFR	14	6	-1	BOLT	146	n/a	-1	1	1.0	1.0	upper	../fonts/Verdana.ttf
1312.276	n/a	WORD	656138	wordpools/wasnorm_wordpool_less_exclusions.txt	LTP188	ltpFR	14	6	-1	SWIMMER	1420	n/a	-1	1	1.0	1.0	upper	../fonts/Verdana.ttf
1316.364	n/a	WORD	658182	wordpools/wasnorm_wordpool_less_exclusions.txt	LTP188	ltpFR	14	6	-1	REBEL	1172	n/a	-1	1	1.0	1.0	upper	../fonts/Verdana.ttf
1320.428	n/a	WORD	660214	wordpools/wasnorm_wordpool_less_exclusions.txt	LTP188	ltpFR	14	6	-1	COCOON	339	n/a	-1	1	1.0	1.0	upper	../fonts/Verdana.ttf
1324.496	n/a	WORD	662248	wordpools/wasnorm_wordpool_less_exclusions.txt	LTP188	ltpFR	14	6	-1	MOTH	920	n/a	-1	1	1.0	1.0	upper	../fonts/Verdana.ttf
1328.46	n/a	WORD	664230	wordpools/wasnorm_wordpool_less_exclusions.txt	LTP188	ltpFR	14	6	-1	HOSE	720	n/a	-1	1	1.0	1.0	upper	../fonts/Verdana.ttf
1332.642	n/a	WORD	666321	wordpools/wasnorm_wordpool_less_exclusions.txt	LTP188	ltpFR	14	6	-1	MERMAID	887	n/a	-1	1	1.0	1.0	upper	../fonts/Verdana.ttf
1336.634	n/a	WORD	668317	wordpools/wasnorm_wordpool_less_exclusions.txt	LTP188	ltpFR	14	6	-1	TEMPLE	1448	n/a	-1	1	1.0	1.0	upper	../fonts/Verdana.ttf
1340.706	n/a	WORD	670353	wordpools/wasnorm_wordpool_less_exclusions.txt	LTP188	ltpFR	14	6	-1	HUT	729	n/a	-1	1	1.0	1.0	upper	../fonts/Verdana.ttf
1344.532	n/a	WORD	672266	wordpools/wasnorm_wordpool_less_exclusions.txt	LTP188	ltpFR	14	6	-1	CRATER	400	n/a	-1	1	1.0	1.0	upper	../fonts/Verdana.ttf
1348.638	n/a	WORD	674319	wordpools/wasnorm_wordpool_less_exclusions.txt	LTP188	ltpFR	14	6	-1	MISSILE	900	n/a	-1	1	1.0	1.0	upper	../fonts/Verdana.ttf
1352.82	n/a	WORD	676410	wordpools/wasnorm_wordpool_less_exclusions.txt	LTP188	ltpFR	14	6	-1	PEANUT	1032	n/a	-1	1	1.0	1.0	upper	../fonts/Verdana.ttf
1356.768	n/a	WORD	678384	wordpools/wasnorm_wordpool_less_exclusions.txt	LTP188	ltpFR	14	6	-1	RAM	1165	n/a	-1	1	1.0	1.0	upper	../fonts/Verdana.ttf
1360.918	n/a	WORD	680459	wordpools/wasnorm_wordpool_less_exclusions.txt	LTP188	ltpFR	14	6	-1	OTTER	986	n/a	-1	1	1.0	1.0	upper	../fonts/Verdana.ttf
1366.818	n/a	REC_START	683409	n/a	LTP188	ltpFR	14	6	n/a	n/a	n/a	n/a	n/a	n/a	n/a	n/a	n/a	n/a
1368.056	n/a	REC_WORD	684028	wordpools/wasnorm_wordpool_less_exclusions.txt	LTP188	ltpFR	14	6	-1	OTTER	986	n/a	-1	n/a	n/a	n/a	n/a	n/a
1368.828	n/a	REC_WORD	684414	wordpools/wasnorm_wordpool_less_exclusions.txt	LTP188	ltpFR	14	6	-1	MISSILE	900	n/a	-1	n/a	n/a	n/a	n/a	n/a
1369.552	n/a	REC_WORD	684776	wordpools/wasnorm_wordpool_less_exclusions.txt	LTP188	ltpFR	14	6	-1	PEANUT	1032	n/a	-1	n/a	n/a	n/a	n/a	n/a
1407.148	n/a	REC_WORD	703574	wordpools/wasnorm_wordpool_less_exclusions.txt	LTP188	ltpFR	14	6	-1	DAD	433	n/a	-1	n/a	n/a	n/a	n/a	n/a
1424.58	n/a	REC_WORD	712290	wordpools/wasnorm_wordpool_less_exclusions.txt	LTP188	ltpFR	14	6	0	ASSOCIATE	49	n/a	1	n/a	n/a	n/a	n/a	n/a
1452.46	n/a	WORD	726230	wordpools/wasnorm_wordpool_less_exclusions.txt	LTP188	ltpFR	14	7	0	PLUMBER	1091	n/a	1	0	0.5869140625	0.422607421875	upper	../fonts/zerothre.ttf
1456.678	n/a	WORD	728339	wordpools/wasnorm_wordpool_less_exclusions.txt	LTP188	ltpFR	14	7	0	RESORT	1186	n/a	1	0	0.5869140625	0.422607421875	upper	../fonts/zerothre.ttf
1460.498	n/a	WORD	730249	wordpools/wasnorm_wordpool_less_exclusions.txt	LTP188	ltpFR	14	7	0	SICKLE	1302	n/a	0	0	0.5869140625	0.422607421875	upper	../fonts/zerothre.ttf
1464.322	n/a	WORD	732161	wordpools/wasnorm_wordpool_less_exclusions.txt	LTP188	ltpFR	14	7	0	CIRCUS	311	n/a	1	0	0.5869140625	0.422607421875	upper	../fonts/zerothre.ttf
1468.354	n/a	WORD	734177	wordpools/wasnorm_wordpool_less_exclusions.txt	LTP188	ltpFR	14	7	0	CANAL	226	n/a	1	0	0.5869140625	0.422607421875	upper	../fonts/zerothre.ttf
1472.488	n/a	WORD	736244	wordpools/wasnorm_wordpool_less_exclusions.txt	LTP188	ltpFR	14	7	0	PUMP	1141	n/a	1	0	0.5869140625	0.422607421875	upper	../fonts/zerothre.ttf
1476.676	n/a	WORD	738338	wordpools/wasnorm_wordpool_less_exclusions.txt	LTP188	ltpFR	14	7	0	CAPE	237	n/a	0	0	0.5869140625	0.422607421875	upper	../fonts/zerothre.ttf
1480.742	n/a	WORD	740371	wordpools/wasnorm_wordpool_less_exclusions.txt	LTP188	ltpFR	14	7	0	CHART	282	n/a	0	0	0.5869140625	0.422607421875	upper	../fonts/zerothre.ttf
1484.774	n/a	WORD	742387	wordpools/wasnorm_wordpool_less_exclusions.txt	LTP188	ltpFR	14	7	0	MOWER	928	n/a	0	0	0.5869140625	0.422607421875	upper	../fonts/zerothre.ttf
1488.972	n/a	WORD	744486	wordpools/wasnorm_wordpool_less_exclusions.txt	LTP188	ltpFR	14	7	0	LODGE	839	n/a	1	0	0.5869140625	0.422607421875	upper	../fonts/zerothre.ttf
1492.99	n/a	WORD	746495	wordpools/wasnorm_wordpool_less_exclusions.txt	LTP188	ltpFR	14	7	0	LID	817	n/a	0	0	0.5869140625	0.422607421875	upper	../fonts/zerothre.ttf
1496.814	n/a	WORD	748407	wordpools/wasnorm_wordpool_less_exclusions.txt	LTP188	ltpFR	14	7	0	QUILT	1151	n/a	0	0	0.5869140625	0.422607421875	upper	../fonts/zerothre.ttf
1500.802	n/a	WORD	750401	wordpools/wasnorm_wordpool_less_exclusions.txt	LTP188	ltpFR	14	7	0	FAN	551	n/a	1	0	0.5869140625	0.422607421875	upper	../fonts/zerothre.ttf
1504.7	n/a	WORD	752350	wordpools/wasnorm_wordpool_less_exclusions.txt	LTP188	ltpFR	14	7	0	JAR	750	n/a	0	0	0.5869140625	0.422607421875	upper	../fonts/zerothre.ttf
1508.832	n/a	WORD	754416	wordpools/wasnorm_wordpool_less_exclusions.txt	LTP188	ltpFR	14	7	0	BEAST	108	n/a	1	0	0.5869140625	0.422607421875	upper	../fonts/zerothre.ttf
1512.892	n/a	WORD	756446	wordpools/wasnorm_wordpool_less_exclusions.txt	LTP188	ltpFR	14	7	0	ZOO	1637	n/a	1	0	0.5869140625	0.422607421875	upper	../fonts/zerothre.ttf
1518.982	n/a	REC_START	759491	n/a	LTP188	ltpFR	14	7	n/a	n/a	n/a	n/a	n/a	n/a	n/a	n/a	n/a	n/a
1519.636	n/a	REC_WORD	759818	wordpools/wasnorm_wordpool_less_exclusions.txt	LTP188	ltpFR	14	7	0	ZOO	1637	n/a	1	n/a	n/a	n/a	n/a	n/a
1520.738	n/a	REC_WORD	760369	wordpools/wasnorm_wordpool_less_exclusions.txt	LTP188	ltpFR	14	7	0	QUILT	1151	n/a	0	n/a	n/a	n/a	n/a	n/a
1521.966	n/a	REC_WORD	760983	wordpools/wasnorm_wordpool_less_exclusions.txt	LTP188	ltpFR	14	7	0	BEAST	108	n/a	1	n/a	n/a	n/a	n/a	n/a
1525.492	n/a	REC_WORD	762746	wordpools/wasnorm_wordpool_less_exclusions.txt	LTP188	ltpFR	14	7	0	LODGE	839	n/a	1	n/a	n/a	n/a	n/a	n/a
1538.15	n/a	REC_WORD	769075	wordpools/wasnorm_wordpool_less_exclusions.txt	LTP188	ltpFR	14	7	0	RESORT	1186	n/a	1	n/a	n/a	n/a	n/a	n/a
1553.496	n/a	REC_WORD	776748	wordpools/wasnorm_wordpool_less_exclusions.txt	LTP188	ltpFR	14	7	-1	SENATOR	1268	n/a	-1	n/a	n/a	n/a	n/a	n/a
1603.672	n/a	WORD	801836	wordpools/wasnorm_wordpool_less_exclusions.txt	LTP188	ltpFR	14	8	1	DRIVER	499	n/a	1	1	0.412841796875	0.57763671875	lower	../fonts/amplitud.ttf
1607.504	n/a	WORD	803752	wordpools/wasnorm_wordpool_less_exclusions.txt	LTP188	ltpFR	14	8	1	WOLF	1619	n/a	0	1	0.412841796875	0.57763671875	lower	../fonts/amplitud.ttf
1611.576	n/a	WORD	805788	wordpools/wasnorm_wordpool_less_exclusions.txt	LTP188	ltpFR	14	8	1	FLEA	577	n/a	1	1	0.412841796875	0.57763671875	lower	../fonts/amplitud.ttf
1615.59	n/a	WORD	807795	wordpools/wasnorm_wordpool_less_exclusions.txt	LTP188	ltpFR	14	8	1	GRAVEL	659	n/a	0	1	0.412841796875	0.57763671875	lower	../fonts/amplitud.ttf
1619.416	n/a	WORD	809708	wordpools/wasnorm_wordpool_less_exclusions.txt	LTP188	ltpFR	14	8	1	STREET	1393	n/a	0	1	0.412841796875	0.57763671875	lower	../fonts/amplitud.ttf
1623.28	n/a	WORD	811640	wordpools/wasnorm_wordpool_less_exclusions.txt	LTP188	ltpFR	14	8	1	DOCUMENT	479	n/a	0	1	0.412841796875	0.57763671875	lower	../fonts/amplitud.ttf
1627.28	n/a	WORD	813640	wordpools/wasnorm_wordpool_less_exclusions.txt	LTP188	ltpFR	14	8	1	SHORTS	1293	n/a	0	1	0.412841796875	0.57763671875	lower	../fonts/amplitud.ttf
1631.294	n/a	WORD	815647	wordpools/wasnorm_wordpool_less_exclusions.txt	LTP188	ltpFR	14	8	1	FEATHER	557	n/a	0	1	0.412841796875	0.57763671875	lower	../fonts/amplitud.ttf
1635.132	n/a	WORD	817566	wordpools/wasnorm_wordpool_less_exclusions.txt	LTP188	ltpFR	14	8	1	PAD	998	n/a	0	1	0.412841796875	0.57763671875	lower	../fonts/amplitud.ttf
1639.114	n/a	WORD	819557	wordpools/wasnorm_wordpool_less_exclusions.txt	LTP188	ltpFR	14	8	1	MAJOR	859	n/a	0	1	0.412841796875	0.57763671875	lower	../fonts/amplitud.ttf
1643.03	n/a	WORD	821515	wordpools/wasnorm_wordpool_less_exclusions.txt	LTP188	ltpFR	14	8	1	FORT	595	n/a	0	1	0.412841796875	0.57763671875	lower	../fonts/amplitud.ttf
1646.928	n/a	WORD	823464	wordpools/wasnorm_wordpool_less_exclusions.txt	LTP188	ltpFR	14	8	1	KIWI	781	n/a	1	1	0.412841796875	0.57763671875	lower	../fonts/amplitud.ttf
1651.11	n/a	WORD	825555	wordpools/wasnorm_wordpool_less_exclusions.txt	LTP188	ltpFR	14	8	1	COWBOY	395	n/a	1	1	0.412841796875	0.57763671875	lower	../fonts/amplitud.ttf
1654.952	n/a	WORD	827476	wordpools/wasnorm_wordpool_less_exclusions.txt	LTP188	ltpFR	14	8	1	BRAKE	166	n/a	0	1	0.412841796875	0.57763671875	lower	../fonts/amplitud.ttf
1658.99	n/a	WORD	829495	wordpools/wasnorm_wordpool_less_exclusions.txt	LTP188	ltpFR	14	8	1	MINT	898	n/a	0	1	0.412841796875	0.57763671875	lower	../fonts/amplitud.ttf
1662.866	n/a	WORD	831433	wordpools/wasnorm_wordpool_less_exclusions.txt	LTP188	ltpFR	14	8	1	HEEL	700	n/a	0	1	0.412841796875	0.57763671875	lower	../fonts/amplitud.ttf
1668.778	n/a	REC_START	834389	n/a	LTP188	ltpFR	14	8	n/a	n/a	n/a	n/a	n/a	n/a	n/a	n/a	n/a	n/a
1669.556	n/a	REC_WORD	834778	wordpools/wasnorm_wordpool_less_exclusions.txt	LTP188	ltpFR	14	8	1	HEEL	700	n/a	0	n/a	n/a	n/a	n/a	n/a
1670.62	n/a	REC_WORD	835310	wordpools/wasnorm_wordpool_less_exclusions.txt	LTP188	ltpFR	14	8	1	MINT	898	n/a	0	n/a	n/a	n/a	n/a	n/a
1671.392	n/a	REC_WORD	835696	wordpools/wasnorm_wordpool_less_exclusions.txt	LTP188	ltpFR	14	8	1	COWBOY	395	n/a	1	n/a	n/a	n/a	n/a	n/a
1672.45	n/a	REC_WORD	836225	wordpools/wasnorm_wordpool_less_exclusions.txt	LTP188	ltpFR	14	8	1	BRAKE	166	n/a	0	n/a	n/a	n/a	n/a	n/a
1691.344	n/a	REC_WORD	845672	wordpools/wasnorm_wordpool_less_exclusions.txt	LTP188	ltpFR	14	8	1	DRIVER	499	n/a	1	n/a	n/a	n/a	n/a	n/a
1714.94	n/a	REC_WORD	857470	wordpools/wasnorm_wordpool_less_exclusions.txt	LTP188	ltpFR	14	8	-1	SWIMMER	1420	n/a	-1	n/a	n/a	n/a	n/a	n/a
1758.436	n/a	WORD	879218	wordpools/wasnorm_wordpool_less_exclusions.txt	LTP188	ltpFR	14	9	1	GUEST	669	n/a	1	1	0.412841796875	0.57763671875	lower	../fonts/amplitud.ttf
1762.368	n/a	WORD	881184	wordpools/wasnorm_wordpool_less_exclusions.txt	LTP188	ltpFR	14	9	1	PRAIRIE	1118	n/a	0	1	0.412841796875	0.57763671875	lower	../fonts/amplitud.ttf
1766.282	n/a	WORD	883141	wordpools/wasnorm_wordpool_less_exclusions.txt	LTP188	ltpFR	14	9	1	COUGAR	387	n/a	1	1	0.412841796875	0.57763671875	lower	../fonts/amplitud.ttf
1770.416	n/a	WORD	885208	wordpools/wasnorm_wordpool_less_exclusions.txt	LTP188	ltpFR	14	9	1	WALLET	1583	n/a	0	1	0.412841796875	0.57763671875	lower	../fonts/amplitud.ttf
1774.398	n/a	WORD	887199	wordpools/wasnorm_wordpool_less_exclusions.txt	LTP188	ltpFR	14	9	1	TANK	1432	n/a	0	1	0.412841796875	0.57763671875	lower	../fonts/amplitud.ttf
1778.374	n/a	WORD	889187	wordpools/wasnorm_wordpool_less_exclusions.txt	LTP188	ltpFR	14	9	1	FOOTBALL	591	n/a	0	1	0.412841796875	0.57763671875	lower	../fonts/amplitud.ttf
1782.512	n/a	WORD	891256	wordpools/wasnorm_wordpool_less_exclusions.txt	LTP188	ltpFR	14	9	1	TOURIST	1488	n/a	1	1	0.412841796875	0.57763671875	lower	../fonts/amplitud.ttf
1786.394	n/a	WORD	893197	wordpools/wasnorm_wordpool_less_exclusions.txt	LTP188	ltpFR	14	9	1	SUBWAY	1400	n/a	0	1	0.412841796875	0.57763671875	lower	../fonts/amplitud.ttf
1790.308	n/a	WORD	895154	wordpools/wasnorm_wordpool_less_exclusions.txt	LTP188	ltpFR	14	9	1	CITY	314	n/a	0	1	0.412841796875	0.57763671875	lower	../fonts/amplitud.ttf
1794.358	n/a	WORD	897179	wordpools/wasnorm_wordpool_less_exclusions.txt	LTP188	ltpFR	14	9	1	SUBURB	1399	n/a	0	1	0.412841796875	0.57763671875	lower	../fonts/amplitud.ttf
1798.25	n/a	WORD	899125	wordpools/wasnorm_wordpool_less_exclusions.txt	LTP188	ltpFR	14	9	1	ROUGE	1213	n/a	0	1	0.412841796875	0.57763671875	lower	../fonts/amplitud.ttf
1802.398	n/a	WORD	901199	wordpools/wasnorm_wordpool_less_exclusions.txt	LTP188	ltpFR	14	9	1	CHEF	290	n/a	1	1	0.412841796875	0.57763671875	lower	../fonts/amplitud.ttf
1806.53	n/a	WORD	903265	wordpools/wasnorm_wordpool_less_exclusions.txt	LTP188	ltpFR	14	9	1	CAFE	216	n/a	0	1	0.412841796875	0.57763671875	lower	../fonts/amplitud.ttf
1810.73	n/a	WORD	905365	wordpools/wasnorm_wordpool_less_exclusions.txt	LTP188	ltpFR	14	9	1	POCKETBOOK	1094	n/a	0	1	0.412841796875	0.57763671875	lower	../fonts/amplitud.ttf
1814.718	n/a	WORD	907359	wordpools/wasnorm_wordpool_less_exclusions.txt	LTP188	ltpFR	14	9	1	CHECKERS	285	n/a	0	1	0.412841796875	0.57763671875	lower	../fonts/amplitud.ttf
1818.644	n/a	WORD	909322	wordpools/wasnorm_wordpool_less_exclusions.txt	LTP188	ltpFR	14	9	1	ANIMAL	23	n/a	0	1	0.412841796875	0.57763671875	lower	../fonts/amplitud.ttf
1824.516	n/a	REC_START	912258	n/a	LTP188	ltpFR	14	9	n/a	n/a	n/a	n/a	n/a	n/a	n/a	n/a	n/a	n/a
1825.334	n/a	REC_WORD	912667	wordpools/wasnorm_wordpool_less_exclusions.txt	LTP188	ltpFR	14	9	1	ANIMAL	23	n/a	0	n/a	n/a	n/a	n/a	n/a
1826.044	n/a	REC_WORD	913022	wordpools/wasnorm_wordpool_less_exclusions.txt	LTP188	ltpFR	14	9	1	CHEF	290	n/a	1	n/a	n/a	n/a	n/a	n/a
1827.274	n/a	REC_WORD	913637	wordpools/wasnorm_wordpool_less_exclusions.txt	LTP188	ltpFR	14	9	1	POCKETBOOK	1094	n/a	0	n/a	n/a	n/a	n/a	n/a
1828.218	n/a	REC_WORD	914109	wordpools/wasnorm_wordpool_less_exclusions.txt	LTP188	ltpFR	14	9	1	CHECKERS	285	n/a	0	n/a	n/a	n/a	n/a	n/a
1837.552	n/a	REC_WORD	918776	wordpools/wasnorm_wordpool_less_exclusions.txt	LTP188	ltpFR	14	9	1	CAFE	216	n/a	0	n/a	n/a	n/a	n/a	n/a
1846.598	n/a	REC_WORD	923299	wordpools/wasnorm_wordpool_less_exclusions.txt	LTP188	ltpFR	14	9	1	TANK	1432	n/a	0	n/a	n/a	n/a	n/a	n/a
1852.31	n/a	REC_WORD	926155	wordpools/wasnorm_wordpool_less_exclusions.txt	LTP188	ltpFR	14	9	1	COUGAR	387	n/a	1	n/a	n/a	n/a	n/a	n/a
1858.726	n/a	REC_WORD	929363	wordpools/wasnorm_wordpool_less_exclusions.txt	LTP188	ltpFR	14	9	1	ANIMAL	23	n/a	0	n/a	n/a	n/a	n/a	n/a
1881.256	n/a	REC_WORD	940628	wordpools/wasnorm_wordpool_less_exclusions.txt	LTP188	ltpFR	14	9	1	PRAIRIE	1118	n/a	0	n/a	n/a	n/a	n/a	n/a
1890.53	n/a	REC_WORD	945265	wordpools/wasnorm_wordpool_less_exclusions.txt	LTP188	ltpFR	14	9	1	POCKETBOOK	1094	n/a	0	n/a	n/a	n/a	n/a	n/a
1911.532	n/a	WORD	955766	wordpools/wasnorm_wordpool_less_exclusions.txt	LTP188	ltpFR	14	10	0	BONE	148	n/a	0	0	0.5869140625	0.422607421875	upper	../fonts/zerothre.ttf
1915.48	n/a	WORD	957740	wordpools/wasnorm_wordpool_less_exclusions.txt	LTP188	ltpFR	14	10	0	VITAMIN	1574	n/a	0	0	0.5869140625	0.422607421875	upper	../fonts/zerothre.ttf
1919.512	n/a	WORD	959756	wordpools/wasnorm_wordpool_less_exclusions.txt	LTP188	ltpFR	14	10	0	POPCORN	1104	n/a	0	0	0.5869140625	0.422607421875	upper	../fonts/zerothre.ttf
1923.584	n/a	WORD	961792	wordpools/wasnorm_wordpool_less_exclusions.txt	LTP188	ltpFR	14	10	0	TUNA	1518	n/a	1	0	0.5869140625	0.422607421875	upper	../fonts/zerothre.ttf
1927.5	n/a	WORD	963750	wordpools/wasnorm_wordpool_less_exclusions.txt	LTP188	ltpFR	14	10	0	BATTERY	101	n/a	0	0	0.5869140625	0.422607421875	upper	../fonts/zerothre.ttf
1931.414	n/a	WORD	965707	wordpools/wasnorm_wordpool_less_exclusions.txt	LTP188	ltpFR	14	10	0	FIG	563	n/a	0	0	0.5869140625	0.422607421875	upper	../fonts/zerothre.ttf
1935.48	n/a	WORD	967740	wordpools/wasnorm_wordpool_less_exclusions.txt	LTP188	ltpFR	14	10	0	SLEEVE	1324	n/a	0	0	0.5869140625	0.422607421875	upper	../fonts/zerothre.ttf
1939.596	n/a	WORD	969798	wordpools/wasnorm_wordpool_less_exclusions.txt	LTP188	ltpFR	14	10	0	VEST	1559	n/a	0	0	0.5869140625	0.422607421875	upper	../fonts/zerothre.ttf
1943.488	n/a	WORD	971744	wordpools/wasnorm_wordpool_less_exclusions.txt	LTP188	ltpFR	14	10	0	ACTRESS	6	n/a	1	0	0.5869140625	0.422607421875	upper	../fonts/zerothre.ttf
1947.654	n/a	WORD	973827	wordpools/wasnorm_wordpool_less_exclusions.txt	LTP188	ltpFR	14	10	0	HOOK	715	n/a	0	0	0.5869140625	0.422607421875	upper	../fonts/zerothre.ttf
1951.702	n/a	WORD	975851	wordpools/wasnorm_wordpool_less_exclusions.txt	LTP188	ltpFR	14	10	0	SAP	1233	n/a	0	0	0.5869140625	0.422607421875	upper	../fonts/zerothre.ttf
1955.674	n/a	WORD	977837	wordpools/wasnorm_wordpool_less_exclusions.txt	LTP188	ltpFR	14	10	0	TELEVISION	1447	n/a	1	0	0.5869140625	0.422607421875	upper	../fonts/zerothre.ttf
1959.832	n/a	WORD	979916	wordpools/wasnorm_wordpool_less_exclusions.txt	LTP188	ltpFR	14	10	0	VIDEO	1564	n/a	1	0	0.5869140625	0.422607421875	upper	../fonts/zerothre.ttf
1963.772	n/a	WORD	981886	wordpools/wasnorm_wordpool_less_exclusions.txt	LTP188	ltpFR	14	10	0	CAFETERIA	217	n/a	1	0	0.5869140625	0.422607421875	upper	../fonts/zerothre.ttf
1967.754	n/a	WORD	983877	wordpools/wasnorm_wordpool_less_exclusions.txt	LTP188	ltpFR	14	10	0	WELL	1600	n/a	0	0	0.5869140625	0.422607421875	upper	../fonts/zerothre.ttf
1971.818	n/a	WORD	985909	wordpools/wasnorm_wordpool_less_exclusions.txt	LTP188	ltpFR	14	10	0	SNORKEL	1336	n/a	1	0	0.5869140625	0.422607421875	upper	../fonts/zerothre.ttf
1977.518	n/a	REC_START	988759	n/a	LTP188	ltpFR	14	10	n/a	n/a	n/a	n/a	n/a	n/a	n/a	n/a	n/a	n/a
1977.786	n/a	REC_WORD	988893	wordpools/wasnorm_wordpool_less_exclusions.txt	LTP188	ltpFR	14	10	0	SNORKEL	1336	n/a	1	n/a	n/a	n/a	n/a	n/a
1978.964	n/a	REC_WORD	989482	wordpools/wasnorm_wordpool_less_exclusions.txt	LTP188	ltpFR	14	10	0	WELL	1600	n/a	0	n/a	n/a	n/a	n/a	n/a
1979.822	n/a	REC_WORD	989911	wordpools/wasnorm_wordpool_less_exclusions.txt	LTP188	ltpFR	14	10	0	VIDEO	1564	n/a	1	n/a	n/a	n/a	n/a	n/a
1980.712	n/a	REC_WORD	990356	wordpools/wasnorm_wordpool_less_exclusions.txt	LTP188	ltpFR	14	10	0	TELEVISION	1447	n/a	1	n/a	n/a	n/a	n/a	n/a
1983.938	n/a	REC_WORD	991969	wordpools/wasnorm_wordpool_less_exclusions.txt	LTP188	ltpFR	14	10	0	ACTRESS	6	n/a	1	n/a	n/a	n/a	n/a	n/a
2059.966	n/a	WORD	1029983	wordpools/wasnorm_wordpool_less_exclusions.txt	LTP188	ltpFR	14	11	1	PUBLICATION	1136	n/a	0	1	0.412841796875	0.57763671875	lower	../fonts/amplitud.ttf
2063.97	n/a	WORD	1031985	wordpools/wasnorm_wordpool_less_exclusions.txt	LTP188	ltpFR	14	11	1	COLESLAW	344	n/a	0	1	0.412841796875	0.57763671875	lower	../fonts/amplitud.ttf
2068.112	n/a	WORD	1034056	wordpools/wasnorm_wordpool_less_exclusions.txt	LTP188	ltpFR	14	11	1	BIOLOGIST	128	n/a	1	1	0.412841796875	0.57763671875	lower	../fonts/amplitud.ttf
2072.218	n/a	WORD	1036109	wordpools/wasnorm_wordpool_less_exclusions.txt	LTP188	ltpFR	14	11	1	VESSEL	1558	n/a	0	1	0.412841796875	0.57763671875	lower	../fonts/amplitud.ttf
2076.044	n/a	WORD	1038022	wordpools/wasnorm_wordpool_less_exclusions.txt	LTP188	ltpFR	14	11	1	NAVIGATOR	938	n/a	0	1	0.412841796875	0.57763671875	lower	../fonts/amplitud.ttf
2080.076	n/a	WORD	1040038	wordpools/wasnorm_wordpool_less_exclusions.txt	LTP188	ltpFR	14	11	0	INVENTOR	743	n/a	1	0	0.5869140625	0.422607421875	upper	../fonts/zerothre.ttf
2084.198	n/a	WORD	1042099	wordpools/wasnorm_wordpool_less_exclusions.txt	LTP188	ltpFR	14	11	0	WRITER	1627	n/a	1	0	0.5869140625	0.422607421875	upper	../fonts/zerothre.ttf
2088.314	n/a	WORD	1044157	wordpools/wasnorm_wordpool_less_exclusions.txt	LTP188	ltpFR	14	11	0	EAGLE	512	n/a	1	0	0.5869140625	0.422607421875	upper	../fonts/zerothre.ttf
2092.24	n/a	WORD	1046120	wordpools/wasnorm_wordpool_less_exclusions.txt	LTP188	ltpFR	14	11	1	PAINTING	1005	n/a	0	1	0.412841796875	0.57763671875	lower	../fonts/amplitud.ttf
2096.06	n/a	WORD	1048030	wordpools/wasnorm_wordpool_less_exclusions.txt	LTP188	ltpFR	14	11	1	CANVAS	234	n/a	0	1	0.412841796875	0.57763671875	lower	../fonts/amplitud.ttf
2099.992	n/a	WORD	1049996	wordpools/wasnorm_wordpool_less_exclusions.txt	LTP188	ltpFR	14	11	1	RECIPE	1175	n/a	0	1	0.412841796875	0.57763671875	lower	../fonts/amplitud.ttf
2104.05	n/a	WORD	1052025	wordpools/wasnorm_wordpool_less_exclusions.txt	LTP188	ltpFR	14	11	0	COMMITTEE	355	n/a	1	0	0.5869140625	0.422607421875	upper	../fonts/zerothre.ttf
2108.19	n/a	WORD	1054095	wordpools/wasnorm_wordpool_less_exclusions.txt	LTP188	ltpFR	14	11	0	BABY	64	n/a	0	0	0.5869140625	0.422607421875	upper	../fonts/zerothre.ttf
2112.272	n/a	WORD	1056136	wordpools/wasnorm_wordpool_less_exclusions.txt	LTP188	ltpFR	14	11	0	PROTRACTOR	1133	n/a	0	0	0.5869140625	0.422607421875	upper	../fonts/zerothre.ttf
2116.102	n/a	WORD	1058051	wordpools/wasnorm_wordpool_less_exclusions.txt	LTP188	ltpFR	14	11	0	BOWL	158	n/a	0	0	0.5869140625	0.422607421875	upper	../fonts/zerothre.ttf
2120.296	n/a	WORD	1060148	wordpools/wasnorm_wordpool_less_exclusions.txt	LTP188	ltpFR	14	11	0	PUCK	1138	n/a	0	0	0.5869140625	0.422607421875	upper	../fonts/zerothre.ttf
2126.052	n/a	REC_START	1063026	n/a	LTP188	ltpFR	14	11	n/a	n/a	n/a	n/a	n/a	n/a	n/a	n/a	n/a	n/a
2126.87	n/a	REC_WORD	1063435	wordpools/wasnorm_wordpool_less_exclusions.txt	LTP188	ltpFR	14	11	0	PROTRACTOR	1133	n/a	0	n/a	n/a	n/a	n/a	n/a
2127.87	n/a	REC_WORD_VV	1063935	wordpools/wasnorm_wordpool_less_exclusions.txt	LTP188	ltpFR	14	11	n/a	<>	-1	n/a	n/a	n/a	n/a	n/a	n/a	n/a
2128.242	n/a	REC_WORD	1064121	wordpools/wasnorm_wordpool_less_exclusions.txt	LTP188	ltpFR	14	11	0	BOWL	158	n/a	0	n/a	n/a	n/a	n/a	n/a
2129.232	n/a	REC_WORD	1064616	wordpools/wasnorm_wordpool_less_exclusions.txt	LTP188	ltpFR	14	11	0	PUCK	1138	n/a	0	n/a	n/a	n/a	n/a	n/a
2130.608	n/a	REC_WORD	1065304	wordpools/wasnorm_wordpool_less_exclusions.txt	LTP188	ltpFR	14	11	0	BABY	64	n/a	0	n/a	n/a	n/a	n/a	n/a
2160.272	n/a	REC_WORD	1080136	wordpools/wasnorm_wordpool_less_exclusions.txt	LTP188	ltpFR	14	11	1	COLESLAW	344	n/a	0	n/a	n/a	n/a	n/a	n/a
2208.724	n/a	WORD	1104362	wordpools/wasnorm_wordpool_less_exclusions.txt	LTP188	ltpFR	14	12	0	CANARY	227	n/a	0	0	0.5869140625	0.422607421875	upper	../fonts/zerothre.ttf
2212.8	n/a	WORD	1106400	wordpools/wasnorm_wordpool_less_exclusions.txt	LTP188	ltpFR	14	12	0	WINGS	1614	n/a	0	0	0.5869140625	0.422607421875	upper	../fonts/zerothre.ttf
2216.848	n/a	WORD	1108424	wordpools/wasnorm_wordpool_less_exclusions.txt	LTP188	ltpFR	14	12	0	AWARD	63	n/a	1	0	0.5869140625	0.422607421875	upper	../fonts/zerothre.ttf
2220.92	n/a	WORD	1110460	wordpools/wasnorm_wordpool_less_exclusions.txt	LTP188	ltpFR	14	12	1	CHAIN	273	n/a	0	1	0.412841796875	0.57763671875	lower	../fonts/amplitud.ttf
2224.896	n/a	WORD	1112448	wordpools/wasnorm_wordpool_less_exclusions.txt	LTP188	ltpFR	14	12	1	SQUIRREL	1362	n/a	0	1	0.412841796875	0.57763671875	lower	../fonts/amplitud.ttf
2228.968	n/a	WORD	1114484	wordpools/wasnorm_wordpool_less_exclusions.txt	LTP188	ltpFR	14	12	1	BANNER	85	n/a	0	1	0.412841796875	0.57763671875	lower	../fonts/amplitud.ttf
2233.116	n/a	WORD	1116558	wordpools/wasnorm_wordpool_less_exclusions.txt	LTP188	ltpFR	14	12	1	MEADOW	881	n/a	0	1	0.412841796875	0.57763671875	lower	../fonts/amplitud.ttf
2237.26	n/a	WORD	1118630	wordpools/wasnorm_wordpool_less_exclusions.txt	LTP188	ltpFR	14	12	0	LUMBER	848	n/a	1	0	0.5869140625	0.422607421875	upper	../fonts/zerothre.ttf
2241.106	n/a	WORD	1120553	wordpools/wasnorm_wordpool_less_exclusions.txt	LTP188	ltpFR	14	12	0	PAW	1029	n/a	0	0	0.5869140625	0.422607421875	upper	../fonts/zerothre.ttf
2245.13	n/a	WORD	1122565	wordpools/wasnorm_wordpool_less_exclusions.txt	LTP188	ltpFR	14	12	1	BEDROOM	111	n/a	0	1	0.412841796875	0.57763671875	lower	../fonts/amplitud.ttf
2249.11	n/a	WORD	1124555	wordpools/wasnorm_wordpool_less_exclusions.txt	LTP188	ltpFR	14	12	1	KNOT	788	n/a	0	1	0.412841796875	0.57763671875	lower	../fonts/amplitud.ttf
2253.288	n/a	WORD	1126644	wordpools/wasnorm_wordpool_less_exclusions.txt	LTP188	ltpFR	14	12	1	FARMER	553	n/a	1	1	0.412841796875	0.57763671875	lower	../fonts/amplitud.ttf
2257.302	n/a	WORD	1128651	wordpools/wasnorm_wordpool_less_exclusions.txt	LTP188	ltpFR	14	12	1	VET	1560	n/a	1	1	0.412841796875	0.57763671875	lower	../fonts/amplitud.ttf
2261.476	n/a	WORD	1130738	wordpools/wasnorm_wordpool_less_exclusions.txt	LTP188	ltpFR	14	12	0	WATER	1594	n/a	0	0	0.5869140625	0.422607421875	upper	../fonts/zerothre.ttf
2265.602	n/a	WORD	1132801	wordpools/wasnorm_wordpool_less_exclusions.txt	LTP188	ltpFR	14	12	0	SHORE	1291	n/a	1	0	0.5869140625	0.422607421875	upper	../fonts/zerothre.ttf
2269.774	n/a	WORD	1134887	wordpools/wasnorm_wordpool_less_exclusions.txt	LTP188	ltpFR	14	12	0	RAG	1160	n/a	0	0	0.5869140625	0.422607421875	upper	../fonts/zerothre.ttf
2275.574	n/a	REC_START	1137787	n/a	LTP188	ltpFR	14	12	n/a	n/a	n/a	n/a	n/a	n/a	n/a	n/a	n/a	n/a
2276.098	n/a	REC_WORD	1138049	wordpools/wasnorm_wordpool_less_exclusions.txt	LTP188	ltpFR	14	12	0	RAG	1160	n/a	0	n/a	n/a	n/a	n/a	n/a
2276.946	n/a	REC_WORD	1138473	wordpools/wasnorm_wordpool_less_exclusions.txt	LTP188	ltpFR	14	12	0	SHORE	1291	n/a	1	n/a	n/a	n/a	n/a	n/a
2279.336	n/a	REC_WORD	1139668	wordpools/wasnorm_wordpool_less_exclusions.txt	LTP188	ltpFR	14	12	0	CANARY	227	n/a	0	n/a	n/a	n/a	n/a	n/a
2280.562	n/a	REC_WORD	1140281	wordpools/wasnorm_wordpool_less_exclusions.txt	LTP188	ltpFR	14	12	n/a	WING	-1	n/a	n/a	n/a	n/a	n/a	n/a	n/a
2285.162	n/a	REC_WORD	1142581	wordpools/wasnorm_wordpool_less_exclusions.txt	LTP188	ltpFR	14	12	n/a	MEDAL	885	n/a	n/a	n/a	n/a	n/a	n/a	n/a
2293.168	n/a	REC_WORD	1146584	wordpools/wasnorm_wordpool_less_exclusions.txt	LTP188	ltpFR	14	12	1	SQUIRREL	1362	n/a	0	n/a	n/a	n/a	n/a	n/a
2351.202	n/a	REST_REWET	1175601	n/a	LTP188	ltpFR	14	12	n/a	n/a	n/a	n/a	n/a	n/a	n/a	n/a	n/a	n/a
3006.238	n/a	WORD	1503119	wordpools/wasnorm_wordpool_less_exclusions.txt	LTP188	ltpFR	14	13	1	GARLIC	624	n/a	0	1	0.412841796875	0.57763671875	lower	../fonts/amplitud.ttf
3010.136	n/a	WORD	1505068	wordpools/wasnorm_wordpool_less_exclusions.txt	LTP188	ltpFR	14	13	1	GALAXY	617	n/a	0	1	0.412841796875	0.57763671875	lower	../fonts/amplitud.ttf
3014.144	n/a	WORD	1507072	wordpools/wasnorm_wordpool_less_exclusions.txt	LTP188	ltpFR	14	13	1	SHINGLE	1285	n/a	0	1	0.412841796875	0.57763671875	lower	../fonts/amplitud.ttf
3018.234	n/a	WORD	1509117	wordpools/wasnorm_wordpool_less_exclusions.txt	LTP188	ltpFR	14	13	1	PERFUME	1049	n/a	0	1	0.412841796875	0.57763671875	lower	../fonts/amplitud.ttf
3022.376	n/a	WORD	1511188	wordpools/wasnorm_wordpool_less_exclusions.txt	LTP188	ltpFR	14	13	1	METEOR	889	n/a	0	1	0.412841796875	0.57763671875	lower	../fonts/amplitud.ttf
3026.516	n/a	WORD	1513258	wordpools/wasnorm_wordpool_less_exclusions.txt	LTP188	ltpFR	14	13	1	PIKE	1067	n/a	0	1	0.412841796875	0.57763671875	lower	../fonts/amplitud.ttf
3030.648	n/a	WORD	1515324	wordpools/wasnorm_wordpool_less_exclusions.txt	LTP188	ltpFR	14	13	1	CARDINAL	244	n/a	1	1	0.412841796875	0.57763671875	lower	../fonts/amplitud.ttf
3034.848	n/a	WORD	1517424	wordpools/wasnorm_wordpool_less_exclusions.txt	LTP188	ltpFR	14	13	1	DRINK	498	n/a	0	1	0.412841796875	0.57763671875	lower	../fonts/amplitud.ttf
3038.924	n/a	WORD	1519462	wordpools/wasnorm_wordpool_less_exclusions.txt	LTP188	ltpFR	14	13	1	OCEAN	970	n/a	1	1	0.412841796875	0.57763671875	lower	../fonts/amplitud.ttf
3043.028	n/a	WORD	1521514	wordpools/wasnorm_wordpool_less_exclusions.txt	LTP188	ltpFR	14	13	1	DANDRUFF	439	n/a	0	1	0.412841796875	0.57763671875	lower	../fonts/amplitud.ttf
3046.854	n/a	WORD	1523427	wordpools/wasnorm_wordpool_less_exclusions.txt	LTP188	ltpFR	14	13	1	HEADBAND	696	n/a	0	1	0.412841796875	0.57763671875	lower	../fonts/amplitud.ttf
3050.826	n/a	WORD	1525413	wordpools/wasnorm_wordpool_less_exclusions.txt	LTP188	ltpFR	14	13	1	LIMOUSINE	824	n/a	0	1	0.412841796875	0.57763671875	lower	../fonts/amplitud.ttf
3055.002	n/a	WORD	1527501	wordpools/wasnorm_wordpool_less_exclusions.txt	LTP188	ltpFR	14	13	1	GARAGE	621	n/a	0	1	0.412841796875	0.57763671875	lower	../fonts/amplitud.ttf
3059.006	n/a	WORD	1529503	wordpools/wasnorm_wordpool_less_exclusions.txt	LTP188	ltpFR	14	13	1	COMPANION	357	n/a	1	1	0.412841796875	0.57763671875	lower	../fonts/amplitud.ttf
3063.088	n/a	WORD	1531544	wordpools/wasnorm_wordpool_less_exclusions.txt	LTP188	ltpFR	14	13	1	LAMB	797	n/a	1	1	0.412841796875	0.57763671875	lower	../fonts/amplitud.ttf
3067.164	n/a	WORD	1533582	wordpools/wasnorm_wordpool_less_exclusions.txt	LTP188	ltpFR	14	13	1	WASP	1593	n/a	1	1	0.412841796875	0.57763671875	lower	../fonts/amplitud.ttf
3072.922	n/a	REC_START	1536461	n/a	LTP188	ltpFR	14	13	n/a	n/a	n/a	n/a	n/a	n/a	n/a	n/a	n/a	n/a
3073.714	n/a	REC_WORD	1536857	wordpools/wasnorm_wordpool_less_exclusions.txt	LTP188	ltpFR	14	13	1	WASP	1593	n/a	1	n/a	n/a	n/a	n/a	n/a
3074.708	n/a	REC_WORD	1537354	wordpools/wasnorm_wordpool_less_exclusions.txt	LTP188	ltpFR	14	13	1	COMPANION	357	n/a	1	n/a	n/a	n/a	n/a	n/a
3075.708	n/a	REC_WORD_VV	1537854	wordpools/wasnorm_wordpool_less_exclusions.txt	LTP188	ltpFR	14	13	n/a	<>	-1	n/a	n/a	n/a	n/a	n/a	n/a	n/a
3079.432	n/a	REC_WORD	1539716	wordpools/wasnorm_wordpool_less_exclusions.txt	LTP188	ltpFR	14	13	1	DANDRUFF	439	n/a	0	n/a	n/a	n/a	n/a	n/a
3080.432	n/a	REC_WORD_VV	1540216	wordpools/wasnorm_wordpool_less_exclusions.txt	LTP188	ltpFR	14	13	n/a	<>	-1	n/a	n/a	n/a	n/a	n/a	n/a	n/a
3087.554	n/a	REC_WORD	1543777	wordpools/wasnorm_wordpool_less_exclusions.txt	LTP188	ltpFR	14	13	1	OCEAN	970	n/a	1	n/a	n/a	n/a	n/a	n/a
3178.128	n/a	WORD	1589064	wordpools/wasnorm_wordpool_less_exclusions.txt	LTP188	ltpFR	14	14	-1	ATMOSPHERE	54	n/a	-1	1	1.0	1.0	upper	../fonts/Verdana.ttf
3182.028	n/a	WORD	1591014	wordpools/wasnorm_wordpool_less_exclusions.txt	LTP188	ltpFR	14	14	-1	CREW	406	n/a	-1	1	1.0	1.0	upper	../fonts/Verdana.ttf
3186.026	n/a	WORD	1593013	wordpools/wasnorm_wordpool_less_exclusions.txt	LTP188	ltpFR	14	14	-1	LOAF	835	n/a	-1	1	1.0	1.0	upper	../fonts/Verdana.ttf
3190.074	n/a	WORD	1595037	wordpools/wasnorm_wordpool_less_exclusions.txt	LTP188	ltpFR	14	14	-1	LUNG	850	n/a	-1	1	1.0	1.0	upper	../fonts/Verdana.ttf
3194.032	n/a	WORD	1597016	wordpools/wasnorm_wordpool_less_exclusions.txt	LTP188	ltpFR	14	14	-1	DRYER	503	n/a	-1	1	1.0	1.0	upper	../fonts/Verdana.ttf
3197.88	n/a	WORD	1598940	wordpools/wasnorm_wordpool_less_exclusions.txt	LTP188	ltpFR	14	14	-1	CHIEF	298	n/a	-1	1	1.0	1.0	upper	../fonts/Verdana.ttf
3201.72	n/a	WORD	1600860	wordpools/wasnorm_wordpool_less_exclusions.txt	LTP188	ltpFR	14	14	-1	CEILING	265	n/a	-1	1	1.0	1.0	upper	../fonts/Verdana.ttf
3205.712	n/a	WORD	1602856	wordpools/wasnorm_wordpool_less_exclusions.txt	LTP188	ltpFR	14	14	-1	CURB	426	n/a	-1	1	1.0	1.0	upper	../fonts/Verdana.ttf
3209.716	n/a	WORD	1604858	wordpools/wasnorm_wordpool_less_exclusions.txt	LTP188	ltpFR	14	14	-1	TAR	1435	n/a	-1	1	1.0	1.0	upper	../fonts/Verdana.ttf
3213.848	n/a	WORD	1606924	wordpools/wasnorm_wordpool_less_exclusions.txt	LTP188	ltpFR	14	14	-1	LABEL	790	n/a	-1	1	1.0	1.0	upper	../fonts/Verdana.ttf
3217.798	n/a	WORD	1608899	wordpools/wasnorm_wordpool_less_exclusions.txt	LTP188	ltpFR	14	14	-1	MUFFIN	929	n/a	-1	1	1.0	1.0	upper	../fonts/Verdana.ttf
3222.014	n/a	WORD	1611007	wordpools/wasnorm_wordpool_less_exclusions.txt	LTP188	ltpFR	14	14	-1	LIGHTNING	820	n/a	-1	1	1.0	1.0	upper	../fonts/Verdana.ttf
3225.972	n/a	WORD	1612986	wordpools/wasnorm_wordpool_less_exclusions.txt	LTP188	ltpFR	14	14	-1	RIVER	1194	n/a	-1	1	1.0	1.0	upper	../fonts/Verdana.ttf
3230.16	n/a	WORD	1615080	wordpools/wasnorm_wordpool_less_exclusions.txt	LTP188	ltpFR	14	14	-1	WAVE	1596	n/a	-1	1	1.0	1.0	upper	../fonts/Verdana.ttf
3234.226	n/a	WORD	1617113	wordpools/wasnorm_wordpool_less_exclusions.txt	LTP188	ltpFR	14	14	-1	VINEGAR	1569	n/a	-1	1	1.0	1.0	upper	../fonts/Verdana.ttf
3238.352	n/a	WORD	1619176	wordpools/wasnorm_wordpool_less_exclusions.txt	LTP188	ltpFR	14	14	-1	PUB	1135	n/a	-1	1	1.0	1.0	upper	../fonts/Verdana.ttf
3244.048	n/a	REC_START	1622024	n/a	LTP188	ltpFR	14	14	n/a	n/a	n/a	n/a	n/a	n/a	n/a	n/a	n/a	n/a
3244.736	n/a	REC_WORD	1622368	wordpools/wasnorm_wordpool_less_exclusions.txt	LTP188	ltpFR	14	14	-1	PUB	1135	n/a	-1	n/a	n/a	n/a	n/a	n/a
3245.654	n/a	REC_WORD	1622827	wordpools/wasnorm_wordpool_less_exclusions.txt	LTP188	ltpFR	14	14	-1	VINEGAR	1569	n/a	-1	n/a	n/a	n/a	n/a	n/a
3246.618	n/a	REC_WORD	1623309	wordpools/wasnorm_wordpool_less_exclusions.txt	LTP188	ltpFR	14	14	-1	MUFFIN	929	n/a	-1	n/a	n/a	n/a	n/a	n/a
3247.9	n/a	REC_WORD	1623950	wordpools/wasnorm_wordpool_less_exclusions.txt	LTP188	ltpFR	14	14	-1	ATMOSPHERE	54	n/a	-1	n/a	n/a	n/a	n/a	n/a
3248.9	n/a	REC_WORD_VV	1624450	wordpools/wasnorm_wordpool_less_exclusions.txt	LTP188	ltpFR	14	14	n/a	<>	-1	n/a	n/a	n/a	n/a	n/a	n/a	n/a
3296.922	n/a	REC_WORD	1648461	wordpools/wasnorm_wordpool_less_exclusions.txt	LTP188	ltpFR	14	14	-1	VINEGAR	1569	n/a	-1	n/a	n/a	n/a	n/a	n/a
3304.988	n/a	REC_WORD	1652494	wordpools/wasnorm_wordpool_less_exclusions.txt	LTP188	ltpFR	14	14	-1	PUB	1135	n/a	-1	n/a	n/a	n/a	n/a	n/a
3332.998	n/a	WORD	1666499	wordpools/wasnorm_wordpool_less_exclusions.txt	LTP188	ltpFR	14	15	1	FLESH	579	n/a	1	1	0.412841796875	0.57763671875	lower	../fonts/amplitud.ttf
3337.036	n/a	WORD	1668518	wordpools/wasnorm_wordpool_less_exclusions.txt	LTP188	ltpFR	14	15	1	CRAYON	401	n/a	0	1	0.412841796875	0.57763671875	lower	../fonts/amplitud.ttf
3341.252	n/a	WORD	1670626	wordpools/wasnorm_wordpool_less_exclusions.txt	LTP188	ltpFR	14	15	0	DONKEY	484	n/a	1	0	0.5869140625	0.422607421875	upper	../fonts/zerothre.ttf
3345.434	n/a	WORD	1672717	wordpools/wasnorm_wordpool_less_exclusions.txt	LTP188	ltpFR	14	15	0	CARAVAN	242	n/a	1	0	0.5869140625	0.422607421875	upper	../fonts/zerothre.ttf
3349.494	n/a	WORD	1674747	wordpools/wasnorm_wordpool_less_exclusions.txt	LTP188	ltpFR	14	15	0	COP	376	n/a	1	0	0.5869140625	0.422607421875	upper	../fonts/zerothre.ttf
3353.632	n/a	WORD	1676816	wordpools/wasnorm_wordpool_less_exclusions.txt	LTP188	ltpFR	14	15	0	DIAMOND	458	n/a	0	0	0.5869140625	0.422607421875	upper	../fonts/zerothre.ttf
3357.48	n/a	WORD	1678740	wordpools/wasnorm_wordpool_less_exclusions.txt	LTP188	ltpFR	14	15	1	FEMALE	559	n/a	1	1	0.412841796875	0.57763671875	lower	../fonts/amplitud.ttf
3361.562	n/a	WORD	1680781	wordpools/wasnorm_wordpool_less_exclusions.txt	LTP188	ltpFR	14	15	1	DASHBOARD	441	n/a	0	1	0.412841796875	0.57763671875	lower	../fonts/amplitud.ttf
3365.738	n/a	WORD	1682869	wordpools/wasnorm_wordpool_less_exclusions.txt	LTP188	ltpFR	14	15	1	HAM	678	n/a	1	1	0.412841796875	0.57763671875	lower	../fonts/amplitud.ttf
3369.912	n/a	WORD	1684956	wordpools/wasnorm_wordpool_less_exclusions.txt	LTP188	ltpFR	14	15	0	RACCOON	1153	n/a	1	0	0.5869140625	0.422607421875	upper	../fonts/zerothre.ttf
3374.104	n/a	WORD	1687052	wordpools/wasnorm_wordpool_less_exclusions.txt	LTP188	ltpFR	14	15	0	AGENT	10	n/a	1	0	0.5869140625	0.422607421875	upper	../fonts/zerothre.ttf
3378.176	n/a	WORD	1689088	wordpools/wasnorm_wordpool_less_exclusions.txt	LTP188	ltpFR	14	15	0	TRAY	1498	n/a	0	0	0.5869140625	0.422607421875	upper	../fonts/zerothre.ttf
3382.392	n/a	WORD	1691196	wordpools/wasnorm_wordpool_less_exclusions.txt	LTP188	ltpFR	14	15	0	TEAPOT	1442	n/a	0	0	0.5869140625	0.422607421875	upper	../fonts/zerothre.ttf
3386.476	n/a	WORD	1693238	wordpools/wasnorm_wordpool_less_exclusions.txt	LTP188	ltpFR	14	15	1	PENGUIN	1044	n/a	1	1	0.412841796875	0.57763671875	lower	../fonts/amplitud.ttf
3390.552	n/a	WORD	1695276	wordpools/wasnorm_wordpool_less_exclusions.txt	LTP188	ltpFR	14	15	1	MILITARY	894	n/a	0	1	0.412841796875	0.57763671875	lower	../fonts/amplitud.ttf
3394.572	n/a	WORD	1697286	wordpools/wasnorm_wordpool_less_exclusions.txt	LTP188	ltpFR	14	15	1	GENERAL	630	n/a	1	1	0.412841796875	0.57763671875	lower	../fonts/amplitud.ttf
3400.446	n/a	REC_START	1700223	n/a	LTP188	ltpFR	14	15	n/a	n/a	n/a	n/a	n/a	n/a	n/a	n/a	n/a	n/a
3401.034	n/a	REC_WORD	1700517	wordpools/wasnorm_wordpool_less_exclusions.txt	LTP188	ltpFR	14	15	1	GENERAL	630	n/a	1	n/a	n/a	n/a	n/a	n/a
3401.902	n/a	REC_WORD	1700951	wordpools/wasnorm_wordpool_less_exclusions.txt	LTP188	ltpFR	14	15	1	PENGUIN	1044	n/a	1	n/a	n/a	n/a	n/a	n/a
3402.778	n/a	REC_WORD	1701389	wordpools/wasnorm_wordpool_less_exclusions.txt	LTP188	ltpFR	14	15	1	MILITARY	894	n/a	0	n/a	n/a	n/a	n/a	n/a
3403.778	n/a	REC_WORD_VV	1701889	wordpools/wasnorm_wordpool_less_exclusions.txt	LTP188	ltpFR	14	15	n/a	<>	-1	n/a	n/a	n/a	n/a	n/a	n/a	n/a
3404.252	n/a	REC_WORD	1702126	wordpools/wasnorm_wordpool_less_exclusions.txt	LTP188	ltpFR	14	15	1	FLESH	579	n/a	1	n/a	n/a	n/a	n/a	n/a
3405.266	n/a	REC_WORD	1702633	wordpools/wasnorm_wordpool_less_exclusions.txt	LTP188	ltpFR	14	15	0	TEAPOT	1442	n/a	0	n/a	n/a	n/a	n/a	n/a
3406.244	n/a	REC_WORD	1703122	wordpools/wasnorm_wordpool_less_exclusions.txt	LTP188	ltpFR	14	15	0	CARAVAN	242	n/a	1	n/a	n/a	n/a	n/a	n/a
3407.25	n/a	REC_WORD	1703625	wordpools/wasnorm_wordpool_less_exclusions.txt	LTP188	ltpFR	14	15	0	COP	376	n/a	1	n/a	n/a	n/a	n/a	n/a
3424.826	n/a	REC_WORD	1712413	wordpools/wasnorm_wordpool_less_exclusions.txt	LTP188	ltpFR	14	15	0	DIAMOND	458	n/a	0	n/a	n/a	n/a	n/a	n/a
3443.376	n/a	REC_WORD	1721688	wordpools/wasnorm_wordpool_less_exclusions.txt	LTP188	ltpFR	14	15	1	HAM	678	n/a	1	n/a	n/a	n/a	n/a	n/a
3483.362	n/a	WORD	1741681	wordpools/wasnorm_wordpool_less_exclusions.txt	LTP188	ltpFR	14	16	-1	ANCHOR	21	n/a	-1	1	1.0	1.0	upper	../fonts/Verdana.ttf
3487.494	n/a	WORD	1743747	wordpools/wasnorm_wordpool_less_exclusions.txt	LTP188	ltpFR	14	16	-1	SINK	1309	n/a	-1	1	1.0	1.0	upper	../fonts/Verdana.ttf
3491.504	n/a	WORD	1745752	wordpools/wasnorm_wordpool_less_exclusions.txt	LTP188	ltpFR	14	16	-1	CALF	222	n/a	-1	1	1.0	1.0	upper	../fonts/Verdana.ttf
3495.708	n/a	WORD	1747854	wordpools/wasnorm_wordpool_less_exclusions.txt	LTP188	ltpFR	14	16	-1	DRUM	502	n/a	-1	1	1.0	1.0	upper	../fonts/Verdana.ttf
3499.876	n/a	WORD	1749938	wordpools/wasnorm_wordpool_less_exclusions.txt	LTP188	ltpFR	14	16	-1	BANANA	77	n/a	-1	1	1.0	1.0	upper	../fonts/Verdana.ttf
3503.8	n/a	WORD	1751900	wordpools/wasnorm_wordpool_less_exclusions.txt	LTP188	ltpFR	14	16	-1	FRUIT	610	n/a	-1	1	1.0	1.0	upper	../fonts/Verdana.ttf
3507.94	n/a	WORD	1753970	wordpools/wasnorm_wordpool_less_exclusions.txt	LTP188	ltpFR	14	16	-1	CELLO	268	n/a	-1	1	1.0	1.0	upper	../fonts/Verdana.ttf
3511.838	n/a	WORD	1755919	wordpools/wasnorm_wordpool_less_exclusions.txt	LTP188	ltpFR	14	16	-1	PARROT	1015	n/a	-1	1	1.0	1.0	upper	../fonts/Verdana.ttf
3516.03	n/a	WORD	1758015	wordpools/wasnorm_wordpool_less_exclusions.txt	LTP188	ltpFR	14	16	-1	BREAD	170	n/a	-1	1	1.0	1.0	upper	../fonts/Verdana.ttf
3520.22	n/a	WORD	1760110	wordpools/wasnorm_wordpool_less_exclusions.txt	LTP188	ltpFR	14	16	-1	TOTE	1487	n/a	-1	1	1.0	1.0	upper	../fonts/Verdana.ttf
3524.268	n/a	WORD	1762134	wordpools/wasnorm_wordpool_less_exclusions.txt	LTP188	ltpFR	14	16	-1	YACHT	1629	n/a	-1	1	1.0	1.0	upper	../fonts/Verdana.ttf
3528.478	n/a	WORD	1764239	wordpools/wasnorm_wordpool_less_exclusions.txt	LTP188	ltpFR	14	16	-1	TRACTOR	1493	n/a	-1	1	1.0	1.0	upper	../fonts/Verdana.ttf
3532.366	n/a	WORD	1766183	wordpools/wasnorm_wordpool_less_exclusions.txt	LTP188	ltpFR	14	16	-1	SCROLL	1257	n/a	-1	1	1.0	1.0	upper	../fonts/Verdana.ttf
3536.508	n/a	WORD	1768254	wordpools/wasnorm_wordpool_less_exclusions.txt	LTP188	ltpFR	14	16	-1	SCRIBBLE	1256	n/a	-1	1	1.0	1.0	upper	../fonts/Verdana.ttf
3540.54	n/a	WORD	1770270	wordpools/wasnorm_wordpool_less_exclusions.txt	LTP188	ltpFR	14	16	-1	KANGAROO	768	n/a	-1	1	1.0	1.0	upper	../fonts/Verdana.ttf
3544.562	n/a	WORD	1772281	wordpools/wasnorm_wordpool_less_exclusions.txt	LTP188	ltpFR	14	16	-1	SAXOPHONE	1240	n/a	-1	1	1.0	1.0	upper	../fonts/Verdana.ttf
3550.296	n/a	REC_START	1775148	n/a	LTP188	ltpFR	14	16	n/a	n/a	n/a	n/a	n/a	n/a	n/a	n/a	n/a	n/a
3550.778	n/a	REC_WORD	1775389	wordpools/wasnorm_wordpool_less_exclusions.txt	LTP188	ltpFR	14	16	-1	SAXOPHONE	1240	n/a	-1	n/a	n/a	n/a	n/a	n/a
3551.806	n/a	REC_WORD	1775903	wordpools/wasnorm_wordpool_less_exclusions.txt	LTP188	ltpFR	14	16	-1	KANGAROO	768	n/a	-1	n/a	n/a	n/a	n/a	n/a
3552.806	n/a	REC_WORD_VV	1776403	wordpools/wasnorm_wordpool_less_exclusions.txt	LTP188	ltpFR	14	16	n/a	<>	-1	n/a	n/a	n/a	n/a	n/a	n/a	n/a
3554.132	n/a	REC_WORD	1777066	wordpools/wasnorm_wordpool_less_exclusions.txt	LTP188	ltpFR	14	16	0	CARAVAN	242	n/a	1	n/a	n/a	n/a	n/a	n/a
3562.074	n/a	REC_WORD	1781037	wordpools/wasnorm_wordpool_less_exclusions.txt	LTP188	ltpFR	14	16	-1	CELLO	268	n/a	-1	n/a	n/a	n/a	n/a	n/a
3657.83	n/a	REC_START	1828915	n/a	LTP188	ltpFR	14	1	n/a	n/a	n/a	n/a	n/a	n/a	n/a	n/a	n/a	n/a
3657.878	n/a	RECOG_LURE	1828939	n/a	LTP188	ltpFR	14	1	n/a	PEOPLE	1046	3	n/a	n/a	n/a	n/a	n/a	n/a
3659.366	n/a	RECOG_RESP	1829683	n/a	LTP188	ltpFR	14	1	n/a	PEOPLE	1046	n/a	n/a	n/a	n/a	n/a	n/a	n/a
3660.368	n/a	RECOG_CONF	1830184	n/a	LTP188	ltpFR	14	1	n/a	PEOPLE	1046	3	n/a	n/a	n/a	n/a	n/a	n/a
3662.44	n/a	RECOG_LURE	1831220	n/a	LTP188	ltpFR	14	1	n/a	MULE	931	4	n/a	n/a	n/a	n/a	n/a	n/a
3663.552	n/a	RECOG_RESP	1831776	n/a	LTP188	ltpFR	14	1	n/a	MULE	931	n/a	n/a	n/a	n/a	n/a	n/a	n/a
3664.4	n/a	RECOG_CONF	1832200	n/a	LTP188	ltpFR	14	1	n/a	MULE	931	4	n/a	n/a	n/a	n/a	n/a	n/a
3666.31	n/a	RECOG_LURE	1833155	n/a	LTP188	ltpFR	14	1	n/a	POISON	1096	5	n/a	n/a	n/a	n/a	n/a	n/a
3667.198	n/a	RECOG_RESP	1833599	n/a	LTP188	ltpFR	14	1	n/a	POISON	1096	n/a	n/a	n/a	n/a	n/a	n/a	n/a
3667.962	n/a	RECOG_CONF	1833981	n/a	LTP188	ltpFR	14	1	n/a	POISON	1096	5	n/a	n/a	n/a	n/a	n/a	n/a
3669.936	n/a	RECOG_TARGET	1834968	n/a	LTP188	ltpFR	14	1	0	CAPE	237	5	0	n/a	n/a	n/a	n/a	n/a
3670.746	n/a	RECOG_RESP	1835373	n/a	LTP188	ltpFR	14	1	0	CAPE	237	n/a	0	n/a	n/a	n/a	n/a	n/a
3671.444	n/a	RECOG_CONF	1835722	n/a	LTP188	ltpFR	14	1	0	CAPE	237	5	0	n/a	n/a	n/a	n/a	n/a
3673.282	n/a	RECOG_TARGET	1836641	n/a	LTP188	ltpFR	14	1	-1	WAVE	1596	3	-1	n/a	n/a	n/a	n/a	n/a
3674.084	n/a	RECOG_RESP	1837042	n/a	LTP188	ltpFR	14	1	-1	WAVE	1596	n/a	-1	n/a	n/a	n/a	n/a	n/a
3674.916	n/a	RECOG_CONF	1837458	n/a	LTP188	ltpFR	14	1	-1	WAVE	1596	3	-1	n/a	n/a	n/a	n/a	n/a
3676.834	n/a	RECOG_LURE	1838417	n/a	LTP188	ltpFR	14	1	n/a	HAND	683	4	n/a	n/a	n/a	n/a	n/a	n/a
3677.78	n/a	RECOG_RESP	1838890	n/a	LTP188	ltpFR	14	1	n/a	HAND	683	n/a	n/a	n/a	n/a	n/a	n/a	n/a
3678.668	n/a	RECOG_CONF	1839334	n/a	LTP188	ltpFR	14	1	n/a	HAND	683	4	n/a	n/a	n/a	n/a	n/a	n/a
3680.482	n/a	RECOG_TARGET	1840241	n/a	LTP188	ltpFR	14	1	0	RAG	1160	5	0	n/a	n/a	n/a	n/a	n/a
3681.168	n/a	RECOG_RESP	1840584	n/a	LTP188	ltpFR	14	1	0	RAG	1160	n/a	0	n/a	n/a	n/a	n/a	n/a
3681.97	n/a	RECOG_CONF	1840985	n/a	LTP188	ltpFR	14	1	0	RAG	1160	5	0	n/a	n/a	n/a	n/a	n/a
3683.81	n/a	RECOG_TARGET	1841905	n/a	LTP188	ltpFR	14	1	0	LUMBER	848	4	1	n/a	n/a	n/a	n/a	n/a
3684.834	n/a	RECOG_RESP	1842417	n/a	LTP188	ltpFR	14	1	0	LUMBER	848	n/a	1	n/a	n/a	n/a	n/a	n/a
3685.562	n/a	RECOG_CONF	1842781	n/a	LTP188	ltpFR	14	1	0	LUMBER	848	4	1	n/a	n/a	n/a	n/a	n/a
3687.352	n/a	RECOG_LURE	1843676	n/a	LTP188	ltpFR	14	1	n/a	PUBLISHER	1137	5	n/a	n/a	n/a	n/a	n/a	n/a
3688.396	n/a	RECOG_RESP	1844198	n/a	LTP188	ltpFR	14	1	n/a	PUBLISHER	1137	n/a	n/a	n/a	n/a	n/a	n/a	n/a
3689.314	n/a	RECOG_CONF	1844657	n/a	LTP188	ltpFR	14	1	n/a	PUBLISHER	1137	5	n/a	n/a	n/a	n/a	n/a	n/a
3691.188	n/a	RECOG_LURE	1845594	n/a	LTP188	ltpFR	14	1	n/a	WOMAN	1620	4	n/a	n/a	n/a	n/a	n/a	n/a
3692.178	n/a	RECOG_RESP	1846089	n/a	LTP188	ltpFR	14	1	n/a	WOMAN	1620	n/a	n/a	n/a	n/a	n/a	n/a	n/a
3693.006	n/a	RECOG_CONF	1846503	n/a	LTP188	ltpFR	14	1	n/a	WOMAN	1620	4	n/a	n/a	n/a	n/a	n/a	n/a
3694.696	n/a	RECOG_LURE	1847348	n/a	LTP188	ltpFR	14	1	n/a	PIGEON	1065	3	n/a	n/a	n/a	n/a	n/a	n/a
3695.844	n/a	RECOG_RESP	1847922	n/a	LTP188	ltpFR	14	1	n/a	PIGEON	1065	n/a	n/a	n/a	n/a	n/a	n/a	n/a
3696.638	n/a	RECOG_CONF	1848319	n/a	LTP188	ltpFR	14	1	n/a	PIGEON	1065	3	n/a	n/a	n/a	n/a	n/a	n/a
3698.41	n/a	RECOG_LURE	1849205	n/a	LTP188	ltpFR	14	1	n/a	FIST	572	1	n/a	n/a	n/a	n/a	n/a	n/a
3699.386	n/a	RECOG_RESP	1849693	n/a	LTP188	ltpFR	14	1	n/a	FIST	572	n/a	n/a	n/a	n/a	n/a	n/a	n/a
3700.2	n/a	RECOG_CONF	1850100	n/a	LTP188	ltpFR	14	1	n/a	FIST	572	1	n/a	n/a	n/a	n/a	n/a	n/a
3701.914	n/a	RECOG_LURE	1850957	n/a	LTP188	ltpFR	14	1	n/a	STAGE	1366	4	n/a	n/a	n/a	n/a	n/a	n/a
3703.058	n/a	RECOG_RESP	1851529	n/a	LTP188	ltpFR	14	1	n/a	STAGE	1366	n/a	n/a	n/a	n/a	n/a	n/a	n/a
3703.942	n/a	RECOG_CONF	1851971	n/a	LTP188	ltpFR	14	1	n/a	STAGE	1366	4	n/a	n/a	n/a	n/a	n/a	n/a
3705.706	n/a	RECOG_LURE	1852853	n/a	LTP188	ltpFR	14	1	n/a	BUNNY	198	5	n/a	n/a	n/a	n/a	n/a	n/a
3706.486	n/a	RECOG_RESP	1853243	n/a	LTP188	ltpFR	14	1	n/a	BUNNY	198	n/a	n/a	n/a	n/a	n/a	n/a	n/a
3707.236	n/a	RECOG_CONF	1853618	n/a	LTP188	ltpFR	14	1	n/a	BUNNY	198	5	n/a	n/a	n/a	n/a	n/a	n/a
3709.136	n/a	RECOG_LURE	1854568	n/a	LTP188	ltpFR	14	1	n/a	STABLE	1363	1	n/a	n/a	n/a	n/a	n/a	n/a
3710.558	n/a	RECOG_RESP	1855279	n/a	LTP188	ltpFR	14	1	n/a	STABLE	1363	n/a	n/a	n/a	n/a	n/a	n/a	n/a
3711.626	n/a	RECOG_CONF	1855813	n/a	LTP188	ltpFR	14	1	n/a	STABLE	1363	1	n/a	n/a	n/a	n/a	n/a	n/a
3713.586	n/a	RECOG_TARGET	1856793	n/a	LTP188	ltpFR	14	1	-1	COCOON	339	3	-1	n/a	n/a	n/a	n/a	n/a
3714.498	n/a	RECOG_RESP	1857249	n/a	LTP188	ltpFR	14	1	-1	COCOON	339	n/a	-1	n/a	n/a	n/a	n/a	n/a
3715.336	n/a	RECOG_CONF	1857668	n/a	LTP188	ltpFR	14	1	-1	COCOON	339	3	-1	n/a	n/a	n/a	n/a	n/a
3717.122	n/a	RECOG_TARGET	1858561	n/a	LTP188	ltpFR	14	1	0	SKETCH	1315	4	1	n/a	n/a	n/a	n/a	n/a
3717.756	n/a	RECOG_RESP	1858878	n/a	LTP188	ltpFR	14	1	0	SKETCH	1315	n/a	1	n/a	n/a	n/a	n/a	n/a
3718.59	n/a	RECOG_CONF	1859295	n/a	LTP188	ltpFR	14	1	0	SKETCH	1315	4	1	n/a	n/a	n/a	n/a	n/a
3720.434	n/a	RECOG_TARGET	1860217	n/a	LTP188	ltpFR	14	1	0	DUSTPAN	509	5	1	n/a	n/a	n/a	n/a	n/a
3721.178	n/a	RECOG_RESP	1860589	n/a	LTP188	ltpFR	14	1	0	DUSTPAN	509	n/a	1	n/a	n/a	n/a	n/a	n/a
3721.952	n/a	RECOG_CONF	1860976	n/a	LTP188	ltpFR	14	1	0	DUSTPAN	509	5	1	n/a	n/a	n/a	n/a	n/a
3723.824	n/a	RECOG_LURE	1861912	n/a	LTP188	ltpFR	14	1	n/a	MONASTERY	907	5	n/a	n/a	n/a	n/a	n/a	n/a
3724.936	n/a	RECOG_RESP	1862468	n/a	LTP188	ltpFR	14	1	n/a	MONASTERY	907	n/a	n/a	n/a	n/a	n/a	n/a	n/a
3725.834	n/a	RECOG_CONF	1862917	n/a	LTP188	ltpFR	14	1	n/a	MONASTERY	907	5	n/a	n/a	n/a	n/a	n/a	n/a
3727.696	n/a	RECOG_TARGET	1863848	n/a	LTP188	ltpFR	14	1	1	VET	1560	5	1	n/a	n/a	n/a	n/a	n/a
3728.258	n/a	RECOG_RESP	1864129	n/a	LTP188	ltpFR	14	1	1	VET	1560	n/a	1	n/a	n/a	n/a	n/a	n/a
3729.136	n/a	RECOG_CONF	1864568	n/a	LTP188	ltpFR	14	1	1	VET	1560	5	1	n/a	n/a	n/a	n/a	n/a
3734.058	n/a	REC_START	1867029	n/a	LTP188	ltpFR	14	2	n/a	n/a	n/a	n/a	n/a	n/a	n/a	n/a	n/a	n/a
3734.104	n/a	RECOG_TARGET	1867052	n/a	LTP188	ltpFR	14	2	-1	KEEPER	769	5	-1	n/a	n/a	n/a	n/a	n/a
3734.892	n/a	RECOG_RESP	1867446	n/a	LTP188	ltpFR	14	2	-1	KEEPER	769	n/a	-1	n/a	n/a	n/a	n/a	n/a
3735.63	n/a	RECOG_CONF	1867815	n/a	LTP188	ltpFR	14	2	-1	KEEPER	769	5	-1	n/a	n/a	n/a	n/a	n/a
3737.326	n/a	RECOG_LURE	1868663	n/a	LTP188	ltpFR	14	2	n/a	BACON	67	3	n/a	n/a	n/a	n/a	n/a	n/a
3738.678	n/a	RECOG_RESP	1869339	n/a	LTP188	ltpFR	14	2	n/a	BACON	67	n/a	n/a	n/a	n/a	n/a	n/a	n/a
3739.48	n/a	RECOG_CONF	1869740	n/a	LTP188	ltpFR	14	2	n/a	BACON	67	3	n/a	n/a	n/a	n/a	n/a	n/a
3741.28	n/a	RECOG_TARGET	1870640	n/a	LTP188	ltpFR	14	2	0	BAKER	71	1	1	n/a	n/a	n/a	n/a	n/a
3742.454	n/a	RECOG_RESP	1871227	n/a	LTP188	ltpFR	14	2	0	BAKER	71	n/a	1	n/a	n/a	n/a	n/a	n/a
3743.304	n/a	RECOG_CONF	1871652	n/a	LTP188	ltpFR	14	2	0	BAKER	71	1	1	n/a	n/a	n/a	n/a	n/a
3745.196	n/a	RECOG_LURE	1872598	n/a	LTP188	ltpFR	14	2	n/a	KIDNEY	776	5	n/a	n/a	n/a	n/a	n/a	n/a
3746.082	n/a	RECOG_RESP	1873041	n/a	LTP188	ltpFR	14	2	n/a	KIDNEY	776	n/a	n/a	n/a	n/a	n/a	n/a	n/a
3746.866	n/a	RECOG_CONF	1873433	n/a	LTP188	ltpFR	14	2	n/a	KIDNEY	776	5	n/a	n/a	n/a	n/a	n/a	n/a
3748.676	n/a	RECOG_LURE	1874338	n/a	LTP188	ltpFR	14	2	n/a	FRIES	607	4	n/a	n/a	n/a	n/a	n/a	n/a
3749.494	n/a	RECOG_RESP	1874747	n/a	LTP188	ltpFR	14	2	n/a	FRIES	607	n/a	n/a	n/a	n/a	n/a	n/a	n/a
3750.458	n/a	RECOG_CONF	1875229	n/a	LTP188	ltpFR	14	2	n/a	FRIES	607	4	n/a	n/a	n/a	n/a	n/a	n/a
3752.256	n/a	RECOG_LURE	1876128	n/a	LTP188	ltpFR	14	2	n/a	CROOK	412	5	n/a	n/a	n/a	n/a	n/a	n/a
3753.42	n/a	RECOG_RESP	1876710	n/a	LTP188	ltpFR	14	2	n/a	CROOK	412	n/a	n/a	n/a	n/a	n/a	n/a	n/a
3754.228	n/a	RECOG_CONF	1877114	n/a	LTP188	ltpFR	14	2	n/a	CROOK	412	5	n/a	n/a	n/a	n/a	n/a	n/a
3755.954	n/a	RECOG_TARGET	1877977	n/a	LTP188	ltpFR	14	2	1	PRAIRIE	1118	4	0	n/a	n/a	n/a	n/a	n/a
3756.928	n/a	RECOG_RESP	1878464	n/a	LTP188	ltpFR	14	2	1	PRAIRIE	1118	n/a	0	n/a	n/a	n/a	n/a	n/a
3757.78	n/a	RECOG_CONF	1878890	n/a	LTP188	ltpFR	14	2	1	PRAIRIE	1118	4	0	n/a	n/a	n/a	n/a	n/a
3759.534	n/a	RECOG_LURE	1879767	n/a	LTP188	ltpFR	14	2	n/a	VEGETABLE	1552	5	n/a	n/a	n/a	n/a	n/a	n/a
3760.314	n/a	RECOG_RESP	1880157	n/a	LTP188	ltpFR	14	2	n/a	VEGETABLE	1552	n/a	n/a	n/a	n/a	n/a	n/a	n/a
3761.282	n/a	RECOG_CONF	1880641	n/a	LTP188	ltpFR	14	2	n/a	VEGETABLE	1552	5	n/a	n/a	n/a	n/a	n/a	n/a
3763.198	n/a	RECOG_LURE	1881599	n/a	LTP188	ltpFR	14	2	n/a	CAVE	263	3	n/a	n/a	n/a	n/a	n/a	n/a
3763.862	n/a	RECOG_RESP	1881931	n/a	LTP188	ltpFR	14	2	n/a	CAVE	263	n/a	n/a	n/a	n/a	n/a	n/a	n/a
3764.716	n/a	RECOG_CONF	1882358	n/a	LTP188	ltpFR	14	2	n/a	CAVE	263	3	n/a	n/a	n/a	n/a	n/a	n/a
3766.478	n/a	RECOG_TARGET	1883239	n/a	LTP188	ltpFR	14	2	1	TOURIST	1488	1	1	n/a	n/a	n/a	n/a	n/a
3767.644	n/a	RECOG_RESP	1883822	n/a	LTP188	ltpFR	14	2	1	TOURIST	1488	n/a	1	n/a	n/a	n/a	n/a	n/a
3769.396	n/a	RECOG_CONF	1884698	n/a	LTP188	ltpFR	14	2	1	TOURIST	1488	1	1	n/a	n/a	n/a	n/a	n/a
3771.312	n/a	RECOG_TARGET	1885656	n/a	LTP188	ltpFR	14	2	1	JUPITER	765	4	0	n/a	n/a	n/a	n/a	n/a
3772.254	n/a	RECOG_RESP	1886127	n/a	LTP188	ltpFR	14	2	1	JUPITER	765	n/a	0	n/a	n/a	n/a	n/a	n/a
3773.096	n/a	RECOG_CONF	1886548	n/a	LTP188	ltpFR	14	2	1	JUPITER	765	4	0	n/a	n/a	n/a	n/a	n/a
3774.776	n/a	RECOG_TARGET	1887388	n/a	LTP188	ltpFR	14	2	0	WINGS	1614	5	0	n/a	n/a	n/a	n/a	n/a
3776.07	n/a	RECOG_RESP	1888035	n/a	LTP188	ltpFR	14	2	0	WINGS	1614	n/a	0	n/a	n/a	n/a	n/a	n/a
3776.788	n/a	RECOG_CONF	1888394	n/a	LTP188	ltpFR	14	2	0	WINGS	1614	5	0	n/a	n/a	n/a	n/a	n/a
3778.472	n/a	RECOG_TARGET	1889236	n/a	LTP188	ltpFR	14	2	-1	BREAD	170	5	-1	n/a	n/a	n/a	n/a	n/a
3779.098	n/a	RECOG_RESP	1889549	n/a	LTP188	ltpFR	14	2	-1	BREAD	170	n/a	-1	n/a	n/a	n/a	n/a	n/a
3779.812	n/a	RECOG_CONF	1889906	n/a	LTP188	ltpFR	14	2	-1	BREAD	170	5	-1	n/a	n/a	n/a	n/a	n/a
3781.562	n/a	RECOG_LURE	1890781	n/a	LTP188	ltpFR	14	2	n/a	PORK	1108	4	n/a	n/a	n/a	n/a	n/a	n/a
3782.316	n/a	RECOG_RESP	1891158	n/a	LTP188	ltpFR	14	2	n/a	PORK	1108	n/a	n/a	n/a	n/a	n/a	n/a	n/a
3783.154	n/a	RECOG_CONF	1891577	n/a	LTP188	ltpFR	14	2	n/a	PORK	1108	4	n/a	n/a	n/a	n/a	n/a	n/a
3784.964	n/a	RECOG_LURE	1892482	n/a	LTP188	ltpFR	14	2	n/a	ESSAY	540	4	n/a	n/a	n/a	n/a	n/a	n/a
3785.808	n/a	RECOG_RESP	1892904	n/a	LTP188	ltpFR	14	2	n/a	ESSAY	540	n/a	n/a	n/a	n/a	n/a	n/a	n/a
3786.626	n/a	RECOG_CONF	1893313	n/a	LTP188	ltpFR	14	2	n/a	ESSAY	540	4	n/a	n/a	n/a	n/a	n/a	n/a
3788.454	n/a	RECOG_TARGET	1894227	n/a	LTP188	ltpFR	14	2	1	SAILOR	1223	3	1	n/a	n/a	n/a	n/a	n/a
3789.27	n/a	RECOG_RESP	1894635	n/a	LTP188	ltpFR	14	2	1	SAILOR	1223	n/a	1	n/a	n/a	n/a	n/a	n/a
3790.108	n/a	RECOG_CONF	1895054	n/a	LTP188	ltpFR	14	2	1	SAILOR	1223	3	1	n/a	n/a	n/a	n/a	n/a
3792.036	n/a	RECOG_LURE	1896018	n/a	LTP188	ltpFR	14	2	n/a	HIGHWAY	707	5	n/a	n/a	n/a	n/a	n/a	n/a
3792.718	n/a	RECOG_RESP	1896359	n/a	LTP188	ltpFR	14	2	n/a	HIGHWAY	707	n/a	n/a	n/a	n/a	n/a	n/a	n/a
3793.592	n/a	RECOG_CONF	1896796	n/a	LTP188	ltpFR	14	2	n/a	HIGHWAY	707	5	n/a	n/a	n/a	n/a	n/a	n/a
3795.314	n/a	RECOG_TARGET	1897657	n/a	LTP188	ltpFR	14	2	-1	TAR	1435	5	-1	n/a	n/a	n/a	n/a	n/a
3795.976	n/a	RECOG_RESP	1897988	n/a	LTP188	ltpFR	14	2	-1	TAR	1435	n/a	-1	n/a	n/a	n/a	n/a	n/a
3796.804	n/a	RECOG_CONF	1898402	n/a	LTP188	ltpFR	14	2	-1	TAR	1435	5	-1	n/a	n/a	n/a	n/a	n/a
3798.65	n/a	RECOG_LURE	1899325	n/a	LTP188	ltpFR	14	2	n/a	PEDESTRIAN	1038	4	n/a	n/a	n/a	n/a	n/a	n/a
3799.608	n/a	RECOG_RESP	1899804	n/a	LTP188	ltpFR	14	2	n/a	PEDESTRIAN	1038	n/a	n/a	n/a	n/a	n/a	n/a	n/a
3800.446	n/a	RECOG_CONF	1900223	n/a	LTP188	ltpFR	14	2	n/a	PEDESTRIAN	1038	4	n/a	n/a	n/a	n/a	n/a	n/a
3802.314	n/a	RECOG_TARGET	1901157	n/a	LTP188	ltpFR	14	2	-1	ERASER	538	1	-1	n/a	n/a	n/a	n/a	n/a
3803.29	n/a	RECOG_RESP	1901645	n/a	LTP188	ltpFR	14	2	-1	ERASER	538	n/a	-1	n/a	n/a	n/a	n/a	n/a
3804.058	n/a	RECOG_CONF	1902029	n/a	LTP188	ltpFR	14	2	-1	ERASER	538	1	-1	n/a	n/a	n/a	n/a	n/a
3810.276	n/a	REC_START	1905138	n/a	LTP188	ltpFR	14	3	n/a	n/a	n/a	n/a	n/a	n/a	n/a	n/a	n/a	n/a
3810.328	n/a	RECOG_TARGET	1905164	n/a	LTP188	ltpFR	14	3	0	DONOR	485	3	1	n/a	n/a	n/a	n/a	n/a
3813.058	n/a	RECOG_RESP	1906529	n/a	LTP188	ltpFR	14	3	0	DONOR	485	n/a	1	n/a	n/a	n/a	n/a	n/a
3813.832	n/a	RECOG_CONF	1906916	n/a	LTP188	ltpFR	14	3	0	DONOR	485	3	1	n/a	n/a	n/a	n/a	n/a
3815.514	n/a	RECOG_LURE	1907757	n/a	LTP188	ltpFR	14	3	n/a	ANT	25	1	n/a	n/a	n/a	n/a	n/a	n/a
3816.63	n/a	RECOG_RESP	1908315	n/a	LTP188	ltpFR	14	3	n/a	ANT	25	n/a	n/a	n/a	n/a	n/a	n/a	n/a
3817.424	n/a	RECOG_CONF	1908712	n/a	LTP188	ltpFR	14	3	n/a	ANT	25	1	n/a	n/a	n/a	n/a	n/a	n/a
3819.178	n/a	RECOG_TARGET	1909589	n/a	LTP188	ltpFR	14	3	1	PENGUIN	1044	5	1	n/a	n/a	n/a	n/a	n/a
3819.95	n/a	RECOG_RESP	1909975	n/a	LTP188	ltpFR	14	3	1	PENGUIN	1044	n/a	1	n/a	n/a	n/a	n/a	n/a
3820.608	n/a	RECOG_CONF	1910304	n/a	LTP188	ltpFR	14	3	1	PENGUIN	1044	5	1	n/a	n/a	n/a	n/a	n/a
3822.29	n/a	RECOG_TARGET	1911145	n/a	LTP188	ltpFR	14	3	1	PERFUME	1049	4	0	n/a	n/a	n/a	n/a	n/a
3823.098	n/a	RECOG_RESP	1911549	n/a	LTP188	ltpFR	14	3	1	PERFUME	1049	n/a	0	n/a	n/a	n/a	n/a	n/a
3823.79	n/a	RECOG_CONF	1911895	n/a	LTP188	ltpFR	14	3	1	PERFUME	1049	4	0	n/a	n/a	n/a	n/a	n/a
3825.446	n/a	RECOG_TARGET	1912723	n/a	LTP188	ltpFR	14	3	1	SHINGLE	1285	4	0	n/a	n/a	n/a	n/a	n/a
3826.314	n/a	RECOG_RESP	1913157	n/a	LTP188	ltpFR	14	3	1	SHINGLE	1285	n/a	0	n/a	n/a	n/a	n/a	n/a
3826.974	n/a	RECOG_CONF	1913487	n/a	LTP188	ltpFR	14	3	1	SHINGLE	1285	4	0	n/a	n/a	n/a	n/a	n/a
3828.692	n/a	RECOG_LURE	1914346	n/a	LTP188	ltpFR	14	3	n/a	CHICK	296	5	n/a	n/a	n/a	n/a	n/a	n/a
3829.304	n/a	RECOG_RESP	1914652	n/a	LTP188	ltpFR	14	3	n/a	CHICK	296	n/a	n/a	n/a	n/a	n/a	n/a	n/a
3829.986	n/a	RECOG_CONF	1914993	n/a	LTP188	ltpFR	14	3	n/a	CHICK	296	5	n/a	n/a	n/a	n/a	n/a	n/a
3831.726	n/a	RECOG_TARGET	1915863	n/a	LTP188	ltpFR	14	3	1	PUBLICATION	1136	3	0	n/a	n/a	n/a	n/a	n/a
3832.626	n/a	RECOG_RESP	1916313	n/a	LTP188	ltpFR	14	3	1	PUBLICATION	1136	n/a	0	n/a	n/a	n/a	n/a	n/a
3833.338	n/a	RECOG_CONF	1916669	n/a	LTP188	ltpFR	14	3	1	PUBLICATION	1136	3	0	n/a	n/a	n/a	n/a	n/a
3834.972	n/a	RECOG_LURE	1917486	n/a	LTP188	ltpFR	14	3	n/a	CHAPEL	280	5	n/a	n/a	n/a	n/a	n/a	n/a
3835.718	n/a	RECOG_RESP	1917859	n/a	LTP188	ltpFR	14	3	n/a	CHAPEL	280	n/a	n/a	n/a	n/a	n/a	n/a	n/a
3836.332	n/a	RECOG_CONF	1918166	n/a	LTP188	ltpFR	14	3	n/a	CHAPEL	280	5	n/a	n/a	n/a	n/a	n/a	n/a
3838.034	n/a	RECOG_TARGET	1919017	n/a	LTP188	ltpFR	14	3	0	AWARD	63	5	1	n/a	n/a	n/a	n/a	n/a
3838.738	n/a	RECOG_RESP	1919369	n/a	LTP188	ltpFR	14	3	0	AWARD	63	n/a	1	n/a	n/a	n/a	n/a	n/a
3839.436	n/a	RECOG_CONF	1919718	n/a	LTP188	ltpFR	14	3	0	AWARD	63	5	1	n/a	n/a	n/a	n/a	n/a
3841.08	n/a	RECOG_TARGET	1920540	n/a	LTP188	ltpFR	14	3	0	BOWL	158	5	0	n/a	n/a	n/a	n/a	n/a
3841.776	n/a	RECOG_RESP	1920888	n/a	LTP188	ltpFR	14	3	0	BOWL	158	n/a	0	n/a	n/a	n/a	n/a	n/a
3842.45	n/a	RECOG_CONF	1921225	n/a	LTP188	ltpFR	14	3	0	BOWL	158	5	0	n/a	n/a	n/a	n/a	n/a
3844.166	n/a	RECOG_LURE	1922083	n/a	LTP188	ltpFR	14	3	n/a	FLOUR	583	1	n/a	n/a	n/a	n/a	n/a	n/a
3844.824	n/a	RECOG_RESP	1922412	n/a	LTP188	ltpFR	14	3	n/a	FLOUR	583	n/a	n/a	n/a	n/a	n/a	n/a	n/a
3845.542	n/a	RECOG_CONF	1922771	n/a	LTP188	ltpFR	14	3	n/a	FLOUR	583	1	n/a	n/a	n/a	n/a	n/a	n/a
3847.37	n/a	RECOG_TARGET	1923685	n/a	LTP188	ltpFR	14	3	0	VITAMIN	1574	5	0	n/a	n/a	n/a	n/a	n/a
3848.046	n/a	RECOG_RESP	1924023	n/a	LTP188	ltpFR	14	3	0	VITAMIN	1574	n/a	0	n/a	n/a	n/a	n/a	n/a
3848.734	n/a	RECOG_CONF	1924367	n/a	LTP188	ltpFR	14	3	0	VITAMIN	1574	5	0	n/a	n/a	n/a	n/a	n/a
3850.532	n/a	RECOG_TARGET	1925266	n/a	LTP188	ltpFR	14	3	0	ASHTRAY	45	5	0	n/a	n/a	n/a	n/a	n/a
3851.254	n/a	RECOG_RESP	1925627	n/a	LTP188	ltpFR	14	3	0	ASHTRAY	45	n/a	0	n/a	n/a	n/a	n/a	n/a
3851.938	n/a	RECOG_CONF	1925969	n/a	LTP188	ltpFR	14	3	0	ASHTRAY	45	5	0	n/a	n/a	n/a	n/a	n/a
3853.592	n/a	RECOG_TARGET	1926796	n/a	LTP188	ltpFR	14	3	-1	PUB	1135	5	-1	n/a	n/a	n/a	n/a	n/a
3854.272	n/a	RECOG_RESP	1927136	n/a	LTP188	ltpFR	14	3	-1	PUB	1135	n/a	-1	n/a	n/a	n/a	n/a	n/a
3854.98	n/a	RECOG_CONF	1927490	n/a	LTP188	ltpFR	14	3	-1	PUB	1135	5	-1	n/a	n/a	n/a	n/a	n/a
3856.74	n/a	RECOG_TARGET	1928370	n/a	LTP188	ltpFR	14	3	0	PAWN	1030	5	0	n/a	n/a	n/a	n/a	n/a
3857.292	n/a	RECOG_RESP	1928646	n/a	LTP188	ltpFR	14	3	0	PAWN	1030	n/a	0	n/a	n/a	n/a	n/a	n/a
3857.974	n/a	RECOG_CONF	1928987	n/a	LTP188	ltpFR	14	3	0	PAWN	1030	5	0	n/a	n/a	n/a	n/a	n/a
3859.716	n/a	RECOG_TARGET	1929858	n/a	LTP188	ltpFR	14	3	-1	OTTER	986	5	-1	n/a	n/a	n/a	n/a	n/a
3860.264	n/a	RECOG_RESP	1930132	n/a	LTP188	ltpFR	14	3	-1	OTTER	986	n/a	-1	n/a	n/a	n/a	n/a	n/a
3860.988	n/a	RECOG_CONF	1930494	n/a	LTP188	ltpFR	14	3	-1	OTTER	986	5	-1	n/a	n/a	n/a	n/a	n/a
3862.812	n/a	RECOG_TARGET	1931406	n/a	LTP188	ltpFR	14	3	1	GAZELLE	628	1	1	n/a	n/a	n/a	n/a	n/a
3863.338	n/a	RECOG_RESP	1931669	n/a	LTP188	ltpFR	14	3	1	GAZELLE	628	n/a	1	n/a	n/a	n/a	n/a	n/a
3864.072	n/a	RECOG_CONF	1932036	n/a	LTP188	ltpFR	14	3	1	GAZELLE	628	1	1	n/a	n/a	n/a	n/a	n/a
3865.774	n/a	RECOG_TARGET	1932887	n/a	LTP188	ltpFR	14	3	0	SHORE	1291	5	1	n/a	n/a	n/a	n/a	n/a
3866.426	n/a	RECOG_RESP	1933213	n/a	LTP188	ltpFR	14	3	0	SHORE	1291	n/a	1	n/a	n/a	n/a	n/a	n/a
3867.064	n/a	RECOG_CONF	1933532	n/a	LTP188	ltpFR	14	3	0	SHORE	1291	5	1	n/a	n/a	n/a	n/a	n/a
3868.986	n/a	RECOG_TARGET	1934493	n/a	LTP188	ltpFR	14	3	0	SICKLE	1302	5	0	n/a	n/a	n/a	n/a	n/a
3869.548	n/a	RECOG_RESP	1934774	n/a	LTP188	ltpFR	14	3	0	SICKLE	1302	n/a	0	n/a	n/a	n/a	n/a	n/a
3870.238	n/a	RECOG_CONF	1935119	n/a	LTP188	ltpFR	14	3	0	SICKLE	1302	5	0	n/a	n/a	n/a	n/a	n/a
3871.996	n/a	RECOG_LURE	1935998	n/a	LTP188	ltpFR	14	3	n/a	TUTU	1524	5	n/a	n/a	n/a	n/a	n/a	n/a
3872.742	n/a	RECOG_RESP	1936371	n/a	LTP188	ltpFR	14	3	n/a	TUTU	1524	n/a	n/a	n/a	n/a	n/a	n/a	n/a
3873.47	n/a	RECOG_CONF	1936735	n/a	LTP188	ltpFR	14	3	n/a	TUTU	1524	5	n/a	n/a	n/a	n/a	n/a	n/a
3877.566	n/a	REC_START	1938783	n/a	LTP188	ltpFR	14	4	n/a	n/a	n/a	n/a	n/a	n/a	n/a	n/a	n/a	n/a
3877.618	n/a	RECOG_TARGET	1938809	n/a	LTP188	ltpFR	14	4	0	RACCOON	1153	5	1	n/a	n/a	n/a	n/a	n/a
3878.288	n/a	RECOG_RESP	1939144	n/a	LTP188	ltpFR	14	4	0	RACCOON	1153	n/a	1	n/a	n/a	n/a	n/a	n/a
3878.938	n/a	RECOG_CONF	1939469	n/a	LTP188	ltpFR	14	4	0	RACCOON	1153	5	1	n/a	n/a	n/a	n/a	n/a
3880.624	n/a	RECOG_LURE	1940312	n/a	LTP188	ltpFR	14	4	n/a	CURTAIN	427	4	n/a	n/a	n/a	n/a	n/a	n/a
3881.432	n/a	RECOG_RESP	1940716	n/a	LTP188	ltpFR	14	4	n/a	CURTAIN	427	n/a	n/a	n/a	n/a	n/a	n/a	n/a
3882.08	n/a	RECOG_CONF	1941040	n/a	LTP188	ltpFR	14	4	n/a	CURTAIN	427	4	n/a	n/a	n/a	n/a	n/a	n/a
3883.792	n/a	RECOG_TARGET	1941896	n/a	LTP188	ltpFR	14	4	1	DASHBOARD	441	5	0	n/a	n/a	n/a	n/a	n/a
3884.4	n/a	RECOG_RESP	1942200	n/a	LTP188	ltpFR	14	4	1	DASHBOARD	441	n/a	0	n/a	n/a	n/a	n/a	n/a
3885.044	n/a	RECOG_CONF	1942522	n/a	LTP188	ltpFR	14	4	1	DASHBOARD	441	5	0	n/a	n/a	n/a	n/a	n/a
3886.804	n/a	RECOG_LURE	1943402	n/a	LTP188	ltpFR	14	4	n/a	WASHER	1592	4	n/a	n/a	n/a	n/a	n/a	n/a
3887.324	n/a	RECOG_RESP	1943662	n/a	LTP188	ltpFR	14	4	n/a	WASHER	1592	n/a	n/a	n/a	n/a	n/a	n/a	n/a
3888.066	n/a	RECOG_CONF	1944033	n/a	LTP188	ltpFR	14	4	n/a	WASHER	1592	4	n/a	n/a	n/a	n/a	n/a	n/a
3889.698	n/a	RECOG_TARGET	1944849	n/a	LTP188	ltpFR	14	4	0	PLUMBER	1091	5	1	n/a	n/a	n/a	n/a	n/a
3890.302	n/a	RECOG_RESP	1945151	n/a	LTP188	ltpFR	14	4	0	PLUMBER	1091	n/a	1	n/a	n/a	n/a	n/a	n/a
3890.93	n/a	RECOG_CONF	1945465	n/a	LTP188	ltpFR	14	4	0	PLUMBER	1091	5	1	n/a	n/a	n/a	n/a	n/a
3892.736	n/a	RECOG_LURE	1946368	n/a	LTP188	ltpFR	14	4	n/a	RAIL	1161	3	n/a	n/a	n/a	n/a	n/a	n/a
3893.58	n/a	RECOG_RESP	1946790	n/a	LTP188	ltpFR	14	4	n/a	RAIL	1161	n/a	n/a	n/a	n/a	n/a	n/a	n/a
3894.314	n/a	RECOG_CONF	1947157	n/a	LTP188	ltpFR	14	4	n/a	RAIL	1161	3	n/a	n/a	n/a	n/a	n/a	n/a
3896.072	n/a	RECOG_LURE	1948036	n/a	LTP188	ltpFR	14	4	n/a	RODENT	1204	4	n/a	n/a	n/a	n/a	n/a	n/a
3896.812	n/a	RECOG_RESP	1948406	n/a	LTP188	ltpFR	14	4	n/a	RODENT	1204	n/a	n/a	n/a	n/a	n/a	n/a	n/a
3897.546	n/a	RECOG_CONF	1948773	n/a	LTP188	ltpFR	14	4	n/a	RODENT	1204	4	n/a	n/a	n/a	n/a	n/a	n/a
3899.302	n/a	RECOG_TARGET	1949651	n/a	LTP188	ltpFR	14	4	1	SODA	1341	1	0	n/a	n/a	n/a	n/a	n/a
3900.668	n/a	RECOG_RESP	1950334	n/a	LTP188	ltpFR	14	4	1	SODA	1341	n/a	0	n/a	n/a	n/a	n/a	n/a
3901.288	n/a	RECOG_CONF	1950644	n/a	LTP188	ltpFR	14	4	1	SODA	1341	1	0	n/a	n/a	n/a	n/a	n/a
3903.082	n/a	RECOG_TARGET	1951541	n/a	LTP188	ltpFR	14	4	1	PAD	998	5	0	n/a	n/a	n/a	n/a	n/a
3903.802	n/a	RECOG_RESP	1951901	n/a	LTP188	ltpFR	14	4	1	PAD	998	n/a	0	n/a	n/a	n/a	n/a	n/a
3904.45	n/a	RECOG_CONF	1952225	n/a	LTP188	ltpFR	14	4	1	PAD	998	5	0	n/a	n/a	n/a	n/a	n/a
3906.204	n/a	RECOG_LURE	1953102	n/a	LTP188	ltpFR	14	4	n/a	PERSONNEL	1053	1	n/a	n/a	n/a	n/a	n/a	n/a
3906.804	n/a	RECOG_RESP	1953402	n/a	LTP188	ltpFR	14	4	n/a	PERSONNEL	1053	n/a	n/a	n/a	n/a	n/a	n/a	n/a
3907.524	n/a	RECOG_CONF	1953762	n/a	LTP188	ltpFR	14	4	n/a	PERSONNEL	1053	1	n/a	n/a	n/a	n/a	n/a	n/a
3909.34	n/a	RECOG_TARGET	1954670	n/a	LTP188	ltpFR	14	4	0	FIREMAN	569	4	1	n/a	n/a	n/a	n/a	n/a
3910.412	n/a	RECOG_RESP_VV	1955206	n/a	LTP188	ltpFR	14	4	0	FIREMAN	569	n/a	1	n/a	n/a	n/a	n/a	n/a
3911.21	n/a	RECOG_RESP	1955605	n/a	LTP188	ltpFR	14	4	0	FIREMAN	569	n/a	1	n/a	n/a	n/a	n/a	n/a
3911.994	n/a	RECOG_CONF	1955997	n/a	LTP188	ltpFR	14	4	0	FIREMAN	569	4	1	n/a	n/a	n/a	n/a	n/a
3913.7	n/a	RECOG_LURE	1956850	n/a	LTP188	ltpFR	14	4	n/a	RAISIN	1163	5	n/a	n/a	n/a	n/a	n/a	n/a
3915.306	n/a	RECOG_RESP	1957653	n/a	LTP188	ltpFR	14	4	n/a	RAISIN	1163	n/a	n/a	n/a	n/a	n/a	n/a	n/a
3916.094	n/a	RECOG_CONF	1958047	n/a	LTP188	ltpFR	14	4	n/a	RAISIN	1163	5	n/a	n/a	n/a	n/a	n/a	n/a
3917.75	n/a	RECOG_LURE	1958875	n/a	LTP188	ltpFR	14	4	n/a	CIGAR	308	5	n/a	n/a	n/a	n/a	n/a	n/a
3919.448	n/a	RECOG_RESP	1959724	n/a	LTP188	ltpFR	14	4	n/a	CIGAR	308	n/a	n/a	n/a	n/a	n/a	n/a	n/a
3920.106	n/a	RECOG_CONF	1960053	n/a	LTP188	ltpFR	14	4	n/a	CIGAR	308	5	n/a	n/a	n/a	n/a	n/a	n/a
3921.832	n/a	RECOG_LURE	1960916	n/a	LTP188	ltpFR	14	4	n/a	REINDEER	1181	5	n/a	n/a	n/a	n/a	n/a	n/a
3922.694	n/a	RECOG_RESP	1961347	n/a	LTP188	ltpFR	14	4	n/a	REINDEER	1181	n/a	n/a	n/a	n/a	n/a	n/a	n/a
3923.328	n/a	RECOG_CONF	1961664	n/a	LTP188	ltpFR	14	4	n/a	REINDEER	1181	5	n/a	n/a	n/a	n/a	n/a	n/a
3925.11	n/a	RECOG_TARGET	1962555	n/a	LTP188	ltpFR	14	4	-1	CEREAL	272	5	-1	n/a	n/a	n/a	n/a	n/a
3927.02	n/a	RECOG_RESP	1963510	n/a	LTP188	ltpFR	14	4	-1	CEREAL	272	n/a	-1	n/a	n/a	n/a	n/a	n/a
3927.658	n/a	RECOG_CONF	1963829	n/a	LTP188	ltpFR	14	4	-1	CEREAL	272	5	-1	n/a	n/a	n/a	n/a	n/a
3929.342	n/a	RECOG_TARGET	1964671	n/a	LTP188	ltpFR	14	4	0	VIDEO	1564	5	1	n/a	n/a	n/a	n/a	n/a
3930.034	n/a	RECOG_RESP	1965017	n/a	LTP188	ltpFR	14	4	0	VIDEO	1564	n/a	1	n/a	n/a	n/a	n/a	n/a
3930.622	n/a	RECOG_CONF	1965311	n/a	LTP188	ltpFR	14	4	0	VIDEO	1564	5	1	n/a	n/a	n/a	n/a	n/a
3932.272	n/a	RECOG_TARGET	1966136	n/a	LTP188	ltpFR	14	4	0	ORCHESTRA	981	5	1	n/a	n/a	n/a	n/a	n/a
3933.018	n/a	RECOG_RESP	1966509	n/a	LTP188	ltpFR	14	4	0	ORCHESTRA	981	n/a	1	n/a	n/a	n/a	n/a	n/a
3933.766	n/a	RECOG_CONF	1966883	n/a	LTP188	ltpFR	14	4	0	ORCHESTRA	981	5	1	n/a	n/a	n/a	n/a	n/a
3935.372	n/a	RECOG_TARGET	1967686	n/a	LTP188	ltpFR	14	4	-1	BOLT	146	5	-1	n/a	n/a	n/a	n/a	n/a
3936.06	n/a	RECOG_RESP	1968030	n/a	LTP188	ltpFR	14	4	-1	BOLT	146	n/a	-1	n/a	n/a	n/a	n/a	n/a
3936.708	n/a	RECOG_CONF	1968354	n/a	LTP188	ltpFR	14	4	-1	BOLT	146	5	-1	n/a	n/a	n/a	n/a	n/a
3938.334	n/a	RECOG_LURE	1969167	n/a	LTP188	ltpFR	14	4	n/a	FLOWER	584	1	n/a	n/a	n/a	n/a	n/a	n/a
3938.924	n/a	RECOG_RESP	1969462	n/a	LTP188	ltpFR	14	4	n/a	FLOWER	584	n/a	n/a	n/a	n/a	n/a	n/a	n/a
3939.582	n/a	RECOG_CONF	1969791	n/a	LTP188	ltpFR	14	4	n/a	FLOWER	584	1	n/a	n/a	n/a	n/a	n/a	n/a
3941.412	n/a	RECOG_TARGET	1970706	n/a	LTP188	ltpFR	14	4	0	BATTERY	101	3	0	n/a	n/a	n/a	n/a	n/a
3942.052	n/a	RECOG_RESP_VV	1971026	n/a	LTP188	ltpFR	14	4	0	BATTERY	101	n/a	0	n/a	n/a	n/a	n/a	n/a
3942.59	n/a	RECOG_RESP	1971295	n/a	LTP188	ltpFR	14	4	0	BATTERY	101	n/a	0	n/a	n/a	n/a	n/a	n/a
3943.224	n/a	RECOG_CONF	1971612	n/a	LTP188	ltpFR	14	4	0	BATTERY	101	3	0	n/a	n/a	n/a	n/a	n/a
3947.278	n/a	REC_START	1973639	n/a	LTP188	ltpFR	14	5	n/a	n/a	n/a	n/a	n/a	n/a	n/a	n/a	n/a	n/a
3947.328	n/a	RECOG_LURE	1973664	n/a	LTP188	ltpFR	14	5	n/a	SWING	1421	1	n/a	n/a	n/a	n/a	n/a	n/a
3948.33	n/a	RECOG_RESP	1974165	n/a	LTP188	ltpFR	14	5	n/a	SWING	1421	n/a	n/a	n/a	n/a	n/a	n/a	n/a
3948.938	n/a	RECOG_CONF	1974469	n/a	LTP188	ltpFR	14	5	n/a	SWING	1421	1	n/a	n/a	n/a	n/a	n/a	n/a
3950.758	n/a	RECOG_TARGET	1975379	n/a	LTP188	ltpFR	14	5	1	FORT	595	2	0	n/a	n/a	n/a	n/a	n/a
3951.434	n/a	RECOG_RESP	1975717	n/a	LTP188	ltpFR	14	5	1	FORT	595	n/a	0	n/a	n/a	n/a	n/a	n/a
3952.102	n/a	RECOG_CONF	1976051	n/a	LTP188	ltpFR	14	5	1	FORT	595	2	0	n/a	n/a	n/a	n/a	n/a
3953.92	n/a	RECOG_TARGET	1976960	n/a	LTP188	ltpFR	14	5	-1	RAFT	1159	4	-1	n/a	n/a	n/a	n/a	n/a
3954.476	n/a	RECOG_RESP	1977238	n/a	LTP188	ltpFR	14	5	-1	RAFT	1159	n/a	-1	n/a	n/a	n/a	n/a	n/a
3955.206	n/a	RECOG_CONF	1977603	n/a	LTP188	ltpFR	14	5	-1	RAFT	1159	4	-1	n/a	n/a	n/a	n/a	n/a
3956.854	n/a	RECOG_TARGET	1978427	n/a	LTP188	ltpFR	14	5	-1	CEILING	265	1	-1	n/a	n/a	n/a	n/a	n/a
3957.78	n/a	RECOG_RESP	1978890	n/a	LTP188	ltpFR	14	5	-1	CEILING	265	n/a	-1	n/a	n/a	n/a	n/a	n/a
3958.538	n/a	RECOG_CONF	1979269	n/a	LTP188	ltpFR	14	5	-1	CEILING	265	1	-1	n/a	n/a	n/a	n/a	n/a
3960.244	n/a	RECOG_LURE	1980122	n/a	LTP188	ltpFR	14	5	n/a	CALENDAR	221	3	n/a	n/a	n/a	n/a	n/a	n/a
3960.998	n/a	RECOG_RESP	1980499	n/a	LTP188	ltpFR	14	5	n/a	CALENDAR	221	n/a	n/a	n/a	n/a	n/a	n/a	n/a
3961.68	n/a	RECOG_CONF	1980840	n/a	LTP188	ltpFR	14	5	n/a	CALENDAR	221	3	n/a	n/a	n/a	n/a	n/a	n/a
3963.39	n/a	RECOG_TARGET	1981695	n/a	LTP188	ltpFR	14	5	0	FIG	563	4	0	n/a	n/a	n/a	n/a	n/a
3964.056	n/a	RECOG_RESP	1982028	n/a	LTP188	ltpFR	14	5	0	FIG	563	n/a	0	n/a	n/a	n/a	n/a	n/a
3964.724	n/a	RECOG_CONF	1982362	n/a	LTP188	ltpFR	14	5	0	FIG	563	4	0	n/a	n/a	n/a	n/a	n/a
3966.452	n/a	RECOG_LURE	1983226	n/a	LTP188	ltpFR	14	5	n/a	HOE	711	5	n/a	n/a	n/a	n/a	n/a	n/a
3967.238	n/a	RECOG_RESP	1983619	n/a	LTP188	ltpFR	14	5	n/a	HOE	711	n/a	n/a	n/a	n/a	n/a	n/a	n/a
3967.796	n/a	RECOG_CONF	1983898	n/a	LTP188	ltpFR	14	5	n/a	HOE	711	5	n/a	n/a	n/a	n/a	n/a	n/a
3969.536	n/a	RECOG_TARGET	1984768	n/a	LTP188	ltpFR	14	5	-1	ANCHOR	21	3	-1	n/a	n/a	n/a	n/a	n/a
3970.512	n/a	RECOG_RESP	1985256	n/a	LTP188	ltpFR	14	5	-1	ANCHOR	21	n/a	-1	n/a	n/a	n/a	n/a	n/a
3971.16	n/a	RECOG_CONF	1985580	n/a	LTP188	ltpFR	14	5	-1	ANCHOR	21	3	-1	n/a	n/a	n/a	n/a	n/a
3972.932	n/a	RECOG_TARGET	1986466	n/a	LTP188	ltpFR	14	5	1	PRIEST	1122	4	1	n/a	n/a	n/a	n/a	n/a
3973.674	n/a	RECOG_RESP	1986837	n/a	LTP188	ltpFR	14	5	1	PRIEST	1122	n/a	1	n/a	n/a	n/a	n/a	n/a
3974.342	n/a	RECOG_CONF	1987171	n/a	LTP188	ltpFR	14	5	1	PRIEST	1122	4	1	n/a	n/a	n/a	n/a	n/a
3976.088	n/a	RECOG_TARGET	1988044	n/a	LTP188	ltpFR	14	5	0	CARAVAN	242	1	1	n/a	n/a	n/a	n/a	n/a
3976.952	n/a	RECOG_RESP	1988476	n/a	LTP188	ltpFR	14	5	0	CARAVAN	242	n/a	1	n/a	n/a	n/a	n/a	n/a
3977.616	n/a	RECOG_CONF	1988808	n/a	LTP188	ltpFR	14	5	0	CARAVAN	242	1	1	n/a	n/a	n/a	n/a	n/a
3979.334	n/a	RECOG_TARGET	1989667	n/a	LTP188	ltpFR	14	5	1	GENERAL	630	4	1	n/a	n/a	n/a	n/a	n/a
3980.154	n/a	RECOG_RESP	1990077	n/a	LTP188	ltpFR	14	5	1	GENERAL	630	n/a	1	n/a	n/a	n/a	n/a	n/a
3980.798	n/a	RECOG_CONF	1990399	n/a	LTP188	ltpFR	14	5	1	GENERAL	630	4	1	n/a	n/a	n/a	n/a	n/a
3982.52	n/a	RECOG_TARGET	1991260	n/a	LTP188	ltpFR	14	5	0	VOLLEYBALL	1576	5	1	n/a	n/a	n/a	n/a	n/a
3983.122	n/a	RECOG_RESP	1991561	n/a	LTP188	ltpFR	14	5	0	VOLLEYBALL	1576	n/a	1	n/a	n/a	n/a	n/a	n/a
3983.682	n/a	RECOG_CONF	1991841	n/a	LTP188	ltpFR	14	5	0	VOLLEYBALL	1576	5	1	n/a	n/a	n/a	n/a	n/a
3985.346	n/a	RECOG_TARGET	1992673	n/a	LTP188	ltpFR	14	5	1	MAJOR	859	5	0	n/a	n/a	n/a	n/a	n/a
3986.042	n/a	RECOG_RESP	1993021	n/a	LTP188	ltpFR	14	5	1	MAJOR	859	n/a	0	n/a	n/a	n/a	n/a	n/a
3986.634	n/a	RECOG_CONF	1993317	n/a	LTP188	ltpFR	14	5	1	MAJOR	859	5	0	n/a	n/a	n/a	n/a	n/a
3988.218	n/a	RECOG_LURE	1994109	n/a	LTP188	ltpFR	14	5	n/a	BLADE	134	4	n/a	n/a	n/a	n/a	n/a	n/a
3988.796	n/a	RECOG_RESP	1994398	n/a	LTP188	ltpFR	14	5	n/a	BLADE	134	n/a	n/a	n/a	n/a	n/a	n/a	n/a
3989.44	n/a	RECOG_CONF	1994720	n/a	LTP188	ltpFR	14	5	n/a	BLADE	134	4	n/a	n/a	n/a	n/a	n/a	n/a
3991.202	n/a	RECOG_LURE	1995601	n/a	LTP188	ltpFR	14	5	n/a	BLOCKADE	137	1	n/a	n/a	n/a	n/a	n/a	n/a
3991.868	n/a	RECOG_RESP	1995934	n/a	LTP188	ltpFR	14	5	n/a	BLOCKADE	137	n/a	n/a	n/a	n/a	n/a	n/a	n/a
3992.462	n/a	RECOG_CONF	1996231	n/a	LTP188	ltpFR	14	5	n/a	BLOCKADE	137	1	n/a	n/a	n/a	n/a	n/a	n/a
3994.196	n/a	RECOG_TARGET	1997098	n/a	LTP188	ltpFR	14	5	-1	KEYBOARD	774	3	-1	n/a	n/a	n/a	n/a	n/a
3994.798	n/a	RECOG_RESP	1997399	n/a	LTP188	ltpFR	14	5	-1	KEYBOARD	774	n/a	-1	n/a	n/a	n/a	n/a	n/a
3995.466	n/a	RECOG_CONF	1997733	n/a	LTP188	ltpFR	14	5	-1	KEYBOARD	774	3	-1	n/a	n/a	n/a	n/a	n/a
3997.168	n/a	RECOG_TARGET	1998584	n/a	LTP188	ltpFR	14	5	1	ROUGE	1213	5	0	n/a	n/a	n/a	n/a	n/a
3997.806	n/a	RECOG_RESP	1998903	n/a	LTP188	ltpFR	14	5	1	ROUGE	1213	n/a	0	n/a	n/a	n/a	n/a	n/a
3998.4	n/a	RECOG_CONF	1999200	n/a	LTP188	ltpFR	14	5	1	ROUGE	1213	5	0	n/a	n/a	n/a	n/a	n/a
4000.164	n/a	RECOG_LURE	2000082	n/a	LTP188	ltpFR	14	5	n/a	GROOM	665	4	n/a	n/a	n/a	n/a	n/a	n/a
4001.272	n/a	RECOG_RESP	2000636	n/a	LTP188	ltpFR	14	5	n/a	GROOM	665	n/a	n/a	n/a	n/a	n/a	n/a	n/a
4002.05	n/a	RECOG_CONF	2001025	n/a	LTP188	ltpFR	14	5	n/a	GROOM	665	4	n/a	n/a	n/a	n/a	n/a	n/a
4003.676	n/a	RECOG_TARGET	2001838	n/a	LTP188	ltpFR	14	5	-1	SCRIBBLE	1256	3	-1	n/a	n/a	n/a	n/a	n/a
4004.436	n/a	RECOG_RESP	2002218	n/a	LTP188	ltpFR	14	5	-1	SCRIBBLE	1256	n/a	-1	n/a	n/a	n/a	n/a	n/a
4005.054	n/a	RECOG_CONF	2002527	n/a	LTP188	ltpFR	14	5	-1	SCRIBBLE	1256	3	-1	n/a	n/a	n/a	n/a	n/a
4006.862	n/a	RECOG_LURE	2003431	n/a	LTP188	ltpFR	14	5	n/a	KLEENEX	782	5	n/a	n/a	n/a	n/a	n/a	n/a
4007.634	n/a	RECOG_RESP	2003817	n/a	LTP188	ltpFR	14	5	n/a	KLEENEX	782	n/a	n/a	n/a	n/a	n/a	n/a	n/a
4008.258	n/a	RECOG_CONF	2004129	n/a	LTP188	ltpFR	14	5	n/a	KLEENEX	782	5	n/a	n/a	n/a	n/a	n/a	n/a
4013.174	n/a	REC_START	2006587	n/a	LTP188	ltpFR	14	6	n/a	n/a	n/a	n/a	n/a	n/a	n/a	n/a	n/a	n/a
4013.22	n/a	RECOG_TARGET	2006610	n/a	LTP188	ltpFR	14	6	-1	CELLO	268	5	-1	n/a	n/a	n/a	n/a	n/a
4014.012	n/a	RECOG_RESP	2007006	n/a	LTP188	ltpFR	14	6	-1	CELLO	268	n/a	-1	n/a	n/a	n/a	n/a	n/a
4014.694	n/a	RECOG_CONF	2007347	n/a	LTP188	ltpFR	14	6	-1	CELLO	268	5	-1	n/a	n/a	n/a	n/a	n/a
4016.432	n/a	RECOG_LURE	2008216	n/a	LTP188	ltpFR	14	6	n/a	PUDDING	1139	4	n/a	n/a	n/a	n/a	n/a	n/a
4017.02	n/a	RECOG_RESP	2008510	n/a	LTP188	ltpFR	14	6	n/a	PUDDING	1139	n/a	n/a	n/a	n/a	n/a	n/a	n/a
4017.798	n/a	RECOG_CONF	2008899	n/a	LTP188	ltpFR	14	6	n/a	PUDDING	1139	4	n/a	n/a	n/a	n/a	n/a	n/a
4019.478	n/a	RECOG_TARGET	2009739	n/a	LTP188	ltpFR	14	6	-1	HUT	729	5	-1	n/a	n/a	n/a	n/a	n/a
4020.048	n/a	RECOG_RESP	2010024	n/a	LTP188	ltpFR	14	6	-1	HUT	729	n/a	-1	n/a	n/a	n/a	n/a	n/a
4020.602	n/a	RECOG_CONF	2010301	n/a	LTP188	ltpFR	14	6	-1	HUT	729	5	-1	n/a	n/a	n/a	n/a	n/a
4022.404	n/a	RECOG_TARGET	2011202	n/a	LTP188	ltpFR	14	6	1	GRAVEL	659	3	0	n/a	n/a	n/a	n/a	n/a
4023.938	n/a	RECOG_RESP	2011969	n/a	LTP188	ltpFR	14	6	1	GRAVEL	659	n/a	0	n/a	n/a	n/a	n/a	n/a
4024.594	n/a	RECOG_CONF	2012297	n/a	LTP188	ltpFR	14	6	1	GRAVEL	659	3	0	n/a	n/a	n/a	n/a	n/a
4026.398	n/a	RECOG_LURE	2013199	n/a	LTP188	ltpFR	14	6	n/a	BRICK	172	4	n/a	n/a	n/a	n/a	n/a	n/a
4027.228	n/a	RECOG_RESP_VV	2013614	n/a	LTP188	ltpFR	14	6	n/a	BRICK	172	n/a	n/a	n/a	n/a	n/a	n/a	n/a
4027.772	n/a	RECOG_RESP	2013886	n/a	LTP188	ltpFR	14	6	n/a	BRICK	172	n/a	n/a	n/a	n/a	n/a	n/a	n/a
4028.424	n/a	RECOG_CONF	2014212	n/a	LTP188	ltpFR	14	6	n/a	BRICK	172	4	n/a	n/a	n/a	n/a	n/a	n/a
4030.068	n/a	RECOG_LURE	2015034	n/a	LTP188	ltpFR	14	6	n/a	GRAPE	654	5	n/a	n/a	n/a	n/a	n/a	n/a
4030.74	n/a	RECOG_RESP	2015370	n/a	LTP188	ltpFR	14	6	n/a	GRAPE	654	n/a	n/a	n/a	n/a	n/a	n/a	n/a
4031.308	n/a	RECOG_CONF	2015654	n/a	LTP188	ltpFR	14	6	n/a	GRAPE	654	5	n/a	n/a	n/a	n/a	n/a	n/a
4033.09	n/a	RECOG_TARGET	2016545	n/a	LTP188	ltpFR	14	6	-1	REBEL	1172	5	-1	n/a	n/a	n/a	n/a	n/a
4033.802	n/a	RECOG_RESP_VV	2016901	n/a	LTP188	ltpFR	14	6	-1	REBEL	1172	n/a	-1	n/a	n/a	n/a	n/a	n/a
4034.496	n/a	RECOG_RESP	2017248	n/a	LTP188	ltpFR	14	6	-1	REBEL	1172	n/a	-1	n/a	n/a	n/a	n/a	n/a
4035.11	n/a	RECOG_CONF	2017555	n/a	LTP188	ltpFR	14	6	-1	REBEL	1172	5	-1	n/a	n/a	n/a	n/a	n/a
4036.894	n/a	RECOG_LURE	2018447	n/a	LTP188	ltpFR	14	6	n/a	YOKE	1632	5	n/a	n/a	n/a	n/a	n/a	n/a
4037.678	n/a	RECOG_RESP	2018839	n/a	LTP188	ltpFR	14	6	n/a	YOKE	1632	n/a	n/a	n/a	n/a	n/a	n/a	n/a
4038.342	n/a	RECOG_CONF	2019171	n/a	LTP188	ltpFR	14	6	n/a	YOKE	1632	5	n/a	n/a	n/a	n/a	n/a	n/a
4040.234	n/a	RECOG_TARGET	2020117	n/a	LTP188	ltpFR	14	6	0	DONKEY	484	5	1	n/a	n/a	n/a	n/a	n/a
4040.982	n/a	RECOG_RESP	2020491	n/a	LTP188	ltpFR	14	6	0	DONKEY	484	n/a	1	n/a	n/a	n/a	n/a	n/a
4041.614	n/a	RECOG_CONF	2020807	n/a	LTP188	ltpFR	14	6	0	DONKEY	484	5	1	n/a	n/a	n/a	n/a	n/a
4043.42	n/a	RECOG_LURE	2021710	n/a	LTP188	ltpFR	14	6	n/a	BOSS	152	5	n/a	n/a	n/a	n/a	n/a	n/a
4044.164	n/a	RECOG_RESP	2022082	n/a	LTP188	ltpFR	14	6	n/a	BOSS	152	n/a	n/a	n/a	n/a	n/a	n/a	n/a
4044.748	n/a	RECOG_CONF	2022374	n/a	LTP188	ltpFR	14	6	n/a	BOSS	152	5	n/a	n/a	n/a	n/a	n/a	n/a
4046.514	n/a	RECOG_LURE	2023257	n/a	LTP188	ltpFR	14	6	n/a	WAGON	1578	5	n/a	n/a	n/a	n/a	n/a	n/a
4047.488	n/a	RECOG_RESP	2023744	n/a	LTP188	ltpFR	14	6	n/a	WAGON	1578	n/a	n/a	n/a	n/a	n/a	n/a	n/a
4048.17	n/a	RECOG_CONF	2024085	n/a	LTP188	ltpFR	14	6	n/a	WAGON	1578	5	n/a	n/a	n/a	n/a	n/a	n/a
4049.894	n/a	RECOG_TARGET	2024947	n/a	LTP188	ltpFR	14	6	1	GUEST	669	5	1	n/a	n/a	n/a	n/a	n/a
4050.486	n/a	RECOG_RESP	2025243	n/a	LTP188	ltpFR	14	6	1	GUEST	669	n/a	1	n/a	n/a	n/a	n/a	n/a
4051.104	n/a	RECOG_CONF	2025552	n/a	LTP188	ltpFR	14	6	1	GUEST	669	5	1	n/a	n/a	n/a	n/a	n/a
4052.664	n/a	RECOG_TARGET	2026332	n/a	LTP188	ltpFR	14	6	-1	SCROLL	1257	5	-1	n/a	n/a	n/a	n/a	n/a
4053.29	n/a	RECOG_RESP	2026645	n/a	LTP188	ltpFR	14	6	-1	SCROLL	1257	n/a	-1	n/a	n/a	n/a	n/a	n/a
4053.888	n/a	RECOG_CONF	2026944	n/a	LTP188	ltpFR	14	6	-1	SCROLL	1257	5	-1	n/a	n/a	n/a	n/a	n/a
4055.676	n/a	RECOG_LURE	2027838	n/a	LTP188	ltpFR	14	6	n/a	TRENCH	1503	4	n/a	n/a	n/a	n/a	n/a	n/a
4056.262	n/a	RECOG_RESP	2028131	n/a	LTP188	ltpFR	14	6	n/a	TRENCH	1503	n/a	n/a	n/a	n/a	n/a	n/a	n/a
4056.97	n/a	RECOG_CONF	2028485	n/a	LTP188	ltpFR	14	6	n/a	TRENCH	1503	4	n/a	n/a	n/a	n/a	n/a	n/a
4058.57	n/a	RECOG_TARGET	2029285	n/a	LTP188	ltpFR	14	6	-1	MOTH	920	3	-1	n/a	n/a	n/a	n/a	n/a
4059.22	n/a	RECOG_RESP	2029610	n/a	LTP188	ltpFR	14	6	-1	MOTH	920	n/a	-1	n/a	n/a	n/a	n/a	n/a
4059.864	n/a	RECOG_CONF	2029932	n/a	LTP188	ltpFR	14	6	-1	MOTH	920	3	-1	n/a	n/a	n/a	n/a	n/a
4061.588	n/a	RECOG_LURE	2030794	n/a	LTP188	ltpFR	14	6	n/a	MOP	916	2	n/a	n/a	n/a	n/a	n/a	n/a
4062.17	n/a	RECOG_RESP	2031085	n/a	LTP188	ltpFR	14	6	n/a	MOP	916	n/a	n/a	n/a	n/a	n/a	n/a	n/a
4062.868	n/a	RECOG_CONF	2031434	n/a	LTP188	ltpFR	14	6	n/a	MOP	916	2	n/a	n/a	n/a	n/a	n/a	n/a
4064.6	n/a	RECOG_TARGET	2032300	n/a	LTP188	ltpFR	14	6	0	BONE	148	1	0	n/a	n/a	n/a	n/a	n/a
4065.178	n/a	RECOG_RESP	2032589	n/a	LTP188	ltpFR	14	6	0	BONE	148	n/a	0	n/a	n/a	n/a	n/a	n/a
4065.742	n/a	RECOG_CONF	2032871	n/a	LTP188	ltpFR	14	6	0	BONE	148	1	0	n/a	n/a	n/a	n/a	n/a
4067.538	n/a	RECOG_TARGET	2033769	n/a	LTP188	ltpFR	14	6	0	CAFETERIA	217	5	1	n/a	n/a	n/a	n/a	n/a
4068.236	n/a	RECOG_RESP	2034118	n/a	LTP188	ltpFR	14	6	0	CAFETERIA	217	n/a	1	n/a	n/a	n/a	n/a	n/a
4068.864	n/a	RECOG_CONF	2034432	n/a	LTP188	ltpFR	14	6	0	CAFETERIA	217	5	1	n/a	n/a	n/a	n/a	n/a
4070.59	n/a	RECOG_LURE	2035295	n/a	LTP188	ltpFR	14	6	n/a	BROCCOLI	176	5	n/a	n/a	n/a	n/a	n/a	n/a
4071.204	n/a	RECOG_RESP	2035602	n/a	LTP188	ltpFR	14	6	n/a	BROCCOLI	176	n/a	n/a	n/a	n/a	n/a	n/a	n/a
4071.888	n/a	RECOG_CONF	2035944	n/a	LTP188	ltpFR	14	6	n/a	BROCCOLI	176	5	n/a	n/a	n/a	n/a	n/a	n/a
4073.484	n/a	RECOG_TARGET	2036742	n/a	LTP188	ltpFR	14	6	-1	CURB	426	1	-1	n/a	n/a	n/a	n/a	n/a
4074.368	n/a	RECOG_RESP	2037184	n/a	LTP188	ltpFR	14	6	-1	CURB	426	n/a	-1	n/a	n/a	n/a	n/a	n/a
4075.07	n/a	RECOG_CONF	2037535	n/a	LTP188	ltpFR	14	6	-1	CURB	426	1	-1	n/a	n/a	n/a	n/a	n/a
4078.838	n/a	REC_START	2039419	n/a	LTP188	ltpFR	14	7	n/a	n/a	n/a	n/a	n/a	n/a	n/a	n/a	n/a	n/a
4078.888	n/a	RECOG_TARGET	2039444	n/a	LTP188	ltpFR	14	7	1	PLANT	1083	2	0	n/a	n/a	n/a	n/a	n/a
4079.556	n/a	RECOG_RESP	2039778	n/a	LTP188	ltpFR	14	7	1	PLANT	1083	n/a	0	n/a	n/a	n/a	n/a	n/a
4080.24	n/a	RECOG_CONF	2040120	n/a	LTP188	ltpFR	14	7	1	PLANT	1083	2	0	n/a	n/a	n/a	n/a	n/a
4081.9	n/a	RECOG_LURE	2040950	n/a	LTP188	ltpFR	14	7	n/a	BANJO	82	4	n/a	n/a	n/a	n/a	n/a	n/a
4082.534	n/a	RECOG_RESP	2041267	n/a	LTP188	ltpFR	14	7	n/a	BANJO	82	n/a	n/a	n/a	n/a	n/a	n/a	n/a
4083.184	n/a	RECOG_CONF	2041592	n/a	LTP188	ltpFR	14	7	n/a	BANJO	82	4	n/a	n/a	n/a	n/a	n/a	n/a
4084.744	n/a	RECOG_TARGET	2042372	n/a	LTP188	ltpFR	14	7	-1	LIVER	833	5	-1	n/a	n/a	n/a	n/a	n/a
4085.314	n/a	RECOG_RESP_VV	2042657	n/a	LTP188	ltpFR	14	7	-1	LIVER	833	n/a	-1	n/a	n/a	n/a	n/a	n/a
4085.768	n/a	RECOG_RESP	2042884	n/a	LTP188	ltpFR	14	7	-1	LIVER	833	n/a	-1	n/a	n/a	n/a	n/a	n/a
4086.436	n/a	RECOG_CONF	2043218	n/a	LTP188	ltpFR	14	7	-1	LIVER	833	5	-1	n/a	n/a	n/a	n/a	n/a
4088.156	n/a	RECOG_TARGET	2044078	n/a	LTP188	ltpFR	14	7	1	LAMB	797	5	1	n/a	n/a	n/a	n/a	n/a
4088.896	n/a	RECOG_RESP	2044448	n/a	LTP188	ltpFR	14	7	1	LAMB	797	n/a	1	n/a	n/a	n/a	n/a	n/a
4089.48	n/a	RECOG_CONF	2044740	n/a	LTP188	ltpFR	14	7	1	LAMB	797	5	1	n/a	n/a	n/a	n/a	n/a
4091.168	n/a	RECOG_TARGET	2045584	n/a	LTP188	ltpFR	14	7	1	LEMON	810	5	1	n/a	n/a	n/a	n/a	n/a
4091.784	n/a	RECOG_RESP	2045892	n/a	LTP188	ltpFR	14	7	1	LEMON	810	n/a	1	n/a	n/a	n/a	n/a	n/a
4092.402	n/a	RECOG_CONF	2046201	n/a	LTP188	ltpFR	14	7	1	LEMON	810	5	1	n/a	n/a	n/a	n/a	n/a
4094.072	n/a	RECOG_TARGET	2047036	n/a	LTP188	ltpFR	14	7	-1	CRATER	400	4	-1	n/a	n/a	n/a	n/a	n/a
4095.012	n/a	RECOG_RESP	2047506	n/a	LTP188	ltpFR	14	7	-1	CRATER	400	n/a	-1	n/a	n/a	n/a	n/a	n/a
4095.616	n/a	RECOG_CONF	2047808	n/a	LTP188	ltpFR	14	7	-1	CRATER	400	4	-1	n/a	n/a	n/a	n/a	n/a
4097.442	n/a	RECOG_LURE	2048721	n/a	LTP188	ltpFR	14	7	n/a	GIFT	635	5	n/a	n/a	n/a	n/a	n/a	n/a
4098.07	n/a	RECOG_RESP	2049035	n/a	LTP188	ltpFR	14	7	n/a	GIFT	635	n/a	n/a	n/a	n/a	n/a	n/a	n/a
4098.738	n/a	RECOG_CONF	2049369	n/a	LTP188	ltpFR	14	7	n/a	GIFT	635	5	n/a	n/a	n/a	n/a	n/a	n/a
4100.404	n/a	RECOG_LURE	2050202	n/a	LTP188	ltpFR	14	7	n/a	CUBE	420	1	n/a	n/a	n/a	n/a	n/a	n/a
4101.038	n/a	RECOG_RESP	2050519	n/a	LTP188	ltpFR	14	7	n/a	CUBE	420	n/a	n/a	n/a	n/a	n/a	n/a	n/a
4101.692	n/a	RECOG_CONF	2050846	n/a	LTP188	ltpFR	14	7	n/a	CUBE	420	1	n/a	n/a	n/a	n/a	n/a	n/a
4103.448	n/a	RECOG_TARGET	2051724	n/a	LTP188	ltpFR	14	7	-1	PEN	1041	5	-1	n/a	n/a	n/a	n/a	n/a
4104.058	n/a	RECOG_RESP	2052029	n/a	LTP188	ltpFR	14	7	-1	PEN	1041	n/a	-1	n/a	n/a	n/a	n/a	n/a
4104.666	n/a	RECOG_CONF	2052333	n/a	LTP188	ltpFR	14	7	-1	PEN	1041	5	-1	n/a	n/a	n/a	n/a	n/a
4106.426	n/a	RECOG_TARGET	2053213	n/a	LTP188	ltpFR	14	7	1	PAINTING	1005	3	0	n/a	n/a	n/a	n/a	n/a
4107.22	n/a	RECOG_RESP	2053610	n/a	LTP188	ltpFR	14	7	1	PAINTING	1005	n/a	0	n/a	n/a	n/a	n/a	n/a
4107.958	n/a	RECOG_CONF	2053979	n/a	LTP188	ltpFR	14	7	1	PAINTING	1005	3	0	n/a	n/a	n/a	n/a	n/a
4109.632	n/a	RECOG_TARGET	2054816	n/a	LTP188	ltpFR	14	7	1	WASP	1593	5	1	n/a	n/a	n/a	n/a	n/a
4110.332	n/a	RECOG_RESP	2055166	n/a	LTP188	ltpFR	14	7	1	WASP	1593	n/a	1	n/a	n/a	n/a	n/a	n/a
4111.012	n/a	RECOG_CONF	2055506	n/a	LTP188	ltpFR	14	7	1	WASP	1593	5	1	n/a	n/a	n/a	n/a	n/a
4112.626	n/a	RECOG_LURE	2056313	n/a	LTP188	ltpFR	14	7	n/a	BOOTH	151	4	n/a	n/a	n/a	n/a	n/a	n/a
4114.14	n/a	RECOG_RESP	2057070	n/a	LTP188	ltpFR	14	7	n/a	BOOTH	151	n/a	n/a	n/a	n/a	n/a	n/a	n/a
4114.832	n/a	RECOG_CONF	2057416	n/a	LTP188	ltpFR	14	7	n/a	BOOTH	151	4	n/a	n/a	n/a	n/a	n/a	n/a
4116.442	n/a	RECOG_LURE	2058221	n/a	LTP188	ltpFR	14	7	n/a	BUREAU	199	5	n/a	n/a	n/a	n/a	n/a	n/a
4117.218	n/a	RECOG_RESP	2058609	n/a	LTP188	ltpFR	14	7	n/a	BUREAU	199	n/a	n/a	n/a	n/a	n/a	n/a	n/a
4117.836	n/a	RECOG_CONF	2058918	n/a	LTP188	ltpFR	14	7	n/a	BUREAU	199	5	n/a	n/a	n/a	n/a	n/a	n/a
4119.544	n/a	RECOG_LURE	2059772	n/a	LTP188	ltpFR	14	7	n/a	SERGEANT	1269	5	n/a	n/a	n/a	n/a	n/a	n/a
4120.48	n/a	RECOG_RESP	2060240	n/a	LTP188	ltpFR	14	7	n/a	SERGEANT	1269	n/a	n/a	n/a	n/a	n/a	n/a	n/a
4121.06	n/a	RECOG_CONF	2060530	n/a	LTP188	ltpFR	14	7	n/a	SERGEANT	1269	5	n/a	n/a	n/a	n/a	n/a	n/a
4122.738	n/a	RECOG_LURE	2061369	n/a	LTP188	ltpFR	14	7	n/a	PASSAGE	1019	5	n/a	n/a	n/a	n/a	n/a	n/a
4123.534	n/a	RECOG_RESP	2061767	n/a	LTP188	ltpFR	14	7	n/a	PASSAGE	1019	n/a	n/a	n/a	n/a	n/a	n/a	n/a
4124.202	n/a	RECOG_CONF	2062101	n/a	LTP188	ltpFR	14	7	n/a	PASSAGE	1019	5	n/a	n/a	n/a	n/a	n/a	n/a
4125.9	n/a	RECOG_LURE	2062950	n/a	LTP188	ltpFR	14	7	n/a	PARTNER	1017	3	n/a	n/a	n/a	n/a	n/a	n/a
4126.672	n/a	RECOG_RESP	2063336	n/a	LTP188	ltpFR	14	7	n/a	PARTNER	1017	n/a	n/a	n/a	n/a	n/a	n/a	n/a
4127.356	n/a	RECOG_CONF	2063678	n/a	LTP188	ltpFR	14	7	n/a	PARTNER	1017	3	n/a	n/a	n/a	n/a	n/a	n/a
4129.006	n/a	RECOG_TARGET	2064503	n/a	LTP188	ltpFR	14	7	0	PATROL	1027	4	1	n/a	n/a	n/a	n/a	n/a
4130.168	n/a	RECOG_RESP	2065084	n/a	LTP188	ltpFR	14	7	0	PATROL	1027	n/a	1	n/a	n/a	n/a	n/a	n/a
4130.916	n/a	RECOG_CONF	2065458	n/a	LTP188	ltpFR	14	7	0	PATROL	1027	4	1	n/a	n/a	n/a	n/a	n/a
4132.692	n/a	RECOG_LURE	2066346	n/a	LTP188	ltpFR	14	7	n/a	SHELF	1280	3	n/a	n/a	n/a	n/a	n/a	n/a
4133.616	n/a	RECOG_RESP	2066808	n/a	LTP188	ltpFR	14	7	n/a	SHELF	1280	n/a	n/a	n/a	n/a	n/a	n/a	n/a
4134.32	n/a	RECOG_CONF	2067160	n/a	LTP188	ltpFR	14	7	n/a	SHELF	1280	3	n/a	n/a	n/a	n/a	n/a	n/a
4136.05	n/a	RECOG_LURE	2068025	n/a	LTP188	ltpFR	14	7	n/a	BASKETBALL	96	5	n/a	n/a	n/a	n/a	n/a	n/a
4136.784	n/a	RECOG_RESP_VV	2068392	n/a	LTP188	ltpFR	14	7	n/a	BASKETBALL	96	n/a	n/a	n/a	n/a	n/a	n/a	n/a
4137.558	n/a	RECOG_RESP	2068779	n/a	LTP188	ltpFR	14	7	n/a	BASKETBALL	96	n/a	n/a	n/a	n/a	n/a	n/a	n/a
4138.222	n/a	RECOG_CONF	2069111	n/a	LTP188	ltpFR	14	7	n/a	BASKETBALL	96	5	n/a	n/a	n/a	n/a	n/a	n/a
4139.966	n/a	RECOG_LURE	2069983	n/a	LTP188	ltpFR	14	7	n/a	DRESS	495	1	n/a	n/a	n/a	n/a	n/a	n/a
4140.71	n/a	RECOG_RESP	2070355	n/a	LTP188	ltpFR	14	7	n/a	DRESS	495	n/a	n/a	n/a	n/a	n/a	n/a	n/a
4141.494	n/a	RECOG_CONF	2070747	n/a	LTP188	ltpFR	14	7	n/a	DRESS	495	1	n/a	n/a	n/a	n/a	n/a	n/a
4146.396	n/a	REC_START	2073198	n/a	LTP188	ltpFR	14	8	n/a	n/a	n/a	n/a	n/a	n/a	n/a	n/a	n/a	n/a
4146.446	n/a	RECOG_LURE	2073223	n/a	LTP188	ltpFR	14	8	n/a	FOLLOWER	589	4	n/a	n/a	n/a	n/a	n/a	n/a
4147.708	n/a	RECOG_RESP	2073854	n/a	LTP188	ltpFR	14	8	n/a	FOLLOWER	589	n/a	n/a	n/a	n/a	n/a	n/a	n/a
4148.486	n/a	RECOG_CONF	2074243	n/a	LTP188	ltpFR	14	8	n/a	FOLLOWER	589	4	n/a	n/a	n/a	n/a	n/a	n/a
4150.104	n/a	RECOG_TARGET	2075052	n/a	LTP188	ltpFR	14	8	-1	PEANUT	1032	5	-1	n/a	n/a	n/a	n/a	n/a
4150.84	n/a	RECOG_RESP	2075420	n/a	LTP188	ltpFR	14	8	-1	PEANUT	1032	n/a	-1	n/a	n/a	n/a	n/a	n/a
4151.538	n/a	RECOG_CONF	2075769	n/a	LTP188	ltpFR	14	8	-1	PEANUT	1032	5	-1	n/a	n/a	n/a	n/a	n/a
4153.204	n/a	RECOG_LURE	2076602	n/a	LTP188	ltpFR	14	8	n/a	TUBA	1515	4	n/a	n/a	n/a	n/a	n/a	n/a
4153.998	n/a	RECOG_RESP	2076999	n/a	LTP188	ltpFR	14	8	n/a	TUBA	1515	n/a	n/a	n/a	n/a	n/a	n/a	n/a
