onset	duration	trial_type	sample	stim_file	subject	experiment	session	trial	item_name	item_num	list	answer	test_x	test_y	test_z
204.9912109375	n/a	SESS_START	419822	n/a	LTP379	ltpFR2	10	n/a	n/a	n/a	n/a	n/a	0	0	0
216.60986328125	n/a	START	443617	n/a	LTP379	ltpFR2	10	n/a	n/a	n/a	-1	n/a	n/a	n/a	n/a
216.6396484375	n/a	PROB	443678	n/a	LTP379	ltpFR2	10	n/a	n/a	n/a	-1	14	5	5	4
218.08984375	n/a	PROB	446648	n/a	LTP379	ltpFR2	10	n/a	n/a	n/a	-1	20	9	3	8
219.78955078125	n/a	PROB	450129	n/a	LTP379	ltpFR2	10	n/a	n/a	n/a	-1	11	2	3	6
221.1396484375	n/a	PROB	452894	n/a	LTP379	ltpFR2	10	n/a	n/a	n/a	-1	21	8	6	7
222.77392578125	n/a	PROB	456241	n/a	LTP379	ltpFR2	10	n/a	n/a	n/a	-1	20	9	2	9
224.03955078125	n/a	PROB	458833	n/a	LTP379	ltpFR2	10	n/a	n/a	n/a	-1	26	9	9	8
225.556640625	n/a	PROB	461940	n/a	LTP379	ltpFR2	10	n/a	n/a	n/a	-1	7	1	3	3
226.806640625	n/a	PROB	464500	n/a	LTP379	ltpFR2	10	n/a	n/a	n/a	-1	22	9	6	7
228.40234375	n/a	STOP	467768	n/a	LTP379	ltpFR2	10	n/a	n/a	n/a	-1	n/a	n/a	n/a	n/a
259.1884765625	n/a	DISTRACTOR	530818	n/a	LTP379	ltpFR2	10	1	n/a	n/a	n/a	n/a	0	0	0
259.1884765625	n/a	START	530818	n/a	LTP379	ltpFR2	10	n/a	n/a	n/a	1	n/a	n/a	n/a	n/a
259.20458984375	n/a	PROB	530851	n/a	LTP379	ltpFR2	10	n/a	n/a	n/a	1	13	4	5	4
261.62158203125	n/a	PROB	535801	n/a	LTP379	ltpFR2	10	n/a	n/a	n/a	1	14	5	4	5
262.70458984375	n/a	PROB	538019	n/a	LTP379	ltpFR2	10	n/a	n/a	n/a	1	13	5	1	7
264.48828125	n/a	PROB	541672	n/a	LTP379	ltpFR2	10	n/a	n/a	n/a	1	19	9	8	2
265.87158203125	n/a	PROB	544505	n/a	LTP379	ltpFR2	10	n/a	n/a	n/a	1	15	1	8	6
267.521484375	n/a	PROB	547884	n/a	LTP379	ltpFR2	10	n/a	n/a	n/a	1	18	6	5	7
269.08740234375	n/a	PROB	551091	n/a	LTP379	ltpFR2	10	n/a	n/a	n/a	1	12	8	1	3
270.62109375	n/a	PROB	554232	n/a	LTP379	ltpFR2	10	n/a	n/a	n/a	1	14	1	9	4
271.87109375	n/a	PROB	556792	n/a	LTP379	ltpFR2	10	n/a	n/a	n/a	1	16	6	5	5
273.02099609375	n/a	PROB	559147	n/a	LTP379	ltpFR2	10	n/a	n/a	n/a	1	15	7	2	6
274.2373046875	n/a	PROB	561638	n/a	LTP379	ltpFR2	10	n/a	n/a	n/a	1	9	3	1	5
277.2041015625	n/a	PROB	567714	n/a	LTP379	ltpFR2	10	n/a	n/a	n/a	1	13	1	4	8
278.48681640625	n/a	PROB	570341	n/a	LTP379	ltpFR2	10	n/a	n/a	n/a	1	20	6	5	9
279.787109375	n/a	PROB	573004	n/a	LTP379	ltpFR2	10	n/a	n/a	n/a	1	13	1	6	6
280.88671875	n/a	PROB	575256	n/a	LTP379	ltpFR2	10	n/a	n/a	n/a	1	4	2	1	1
281.90576171875	n/a	STOP	577343	n/a	LTP379	ltpFR2	10	n/a	n/a	n/a	1	n/a	n/a	n/a	n/a
284.28662109375	n/a	WORD	582219	wordpools/wasnorm_wordpool_576.txt	LTP379	ltpFR2	10	1	CATCHER	258	n/a	n/a	0	0	0
286.90380859375	n/a	WORD	587579	wordpools/wasnorm_wordpool_576.txt	LTP379	ltpFR2	10	1	RECORD	1176	n/a	n/a	0	0	0
289.37060546875	n/a	WORD	592631	wordpools/wasnorm_wordpool_576.txt	LTP379	ltpFR2	10	1	CONVICT	371	n/a	n/a	0	0	0
292.103515625	n/a	WORD	598228	wordpools/wasnorm_wordpool_576.txt	LTP379	ltpFR2	10	1	TRACTOR	1493	n/a	n/a	0	0	0
294.88671875	n/a	WORD	603928	wordpools/wasnorm_wordpool_576.txt	LTP379	ltpFR2	10	1	LADY	794	n/a	n/a	0	0	0
297.5693359375	n/a	WORD	609422	wordpools/wasnorm_wordpool_576.txt	LTP379	ltpFR2	10	1	SHIRT	1287	n/a	n/a	0	0	0
300.103515625	n/a	WORD	614612	wordpools/wasnorm_wordpool_576.txt	LTP379	ltpFR2	10	1	ORANGE	980	n/a	n/a	0	0	0
302.55322265625	n/a	WORD	619629	wordpools/wasnorm_wordpool_576.txt	LTP379	ltpFR2	10	1	BANQUET	86	n/a	n/a	0	0	0
305.2861328125	n/a	WORD	625226	wordpools/wasnorm_wordpool_576.txt	LTP379	ltpFR2	10	1	SCALLOP	1242	n/a	n/a	0	0	0
307.88623046875	n/a	WORD	630551	wordpools/wasnorm_wordpool_576.txt	LTP379	ltpFR2	10	1	CHEST	295	n/a	n/a	0	0	0
310.35302734375	n/a	WORD	635603	wordpools/wasnorm_wordpool_576.txt	LTP379	ltpFR2	10	1	BODY	145	n/a	n/a	0	0	0
312.9521484375	n/a	WORD	640926	wordpools/wasnorm_wordpool_576.txt	LTP379	ltpFR2	10	1	TWIG	1527	n/a	n/a	0	0	0
315.73583984375	n/a	WORD	646627	wordpools/wasnorm_wordpool_576.txt	LTP379	ltpFR2	10	1	TRENCH	1503	n/a	n/a	0	0	0
318.3359375	n/a	WORD	651952	wordpools/wasnorm_wordpool_576.txt	LTP379	ltpFR2	10	1	OUTLAW	989	n/a	n/a	0	0	0
321.0185546875	n/a	WORD	657446	wordpools/wasnorm_wordpool_576.txt	LTP379	ltpFR2	10	1	CAMEL	223	n/a	n/a	0	0	0
323.73583984375	n/a	WORD	663011	wordpools/wasnorm_wordpool_576.txt	LTP379	ltpFR2	10	1	PUDDLE	1140	n/a	n/a	0	0	0
326.45166015625	n/a	WORD	668573	wordpools/wasnorm_wordpool_576.txt	LTP379	ltpFR2	10	1	FRUIT	610	n/a	n/a	0	0	0
329.185546875	n/a	WORD	674172	wordpools/wasnorm_wordpool_576.txt	LTP379	ltpFR2	10	1	EAGLE	512	n/a	n/a	0	0	0
331.63427734375	n/a	WORD	679187	wordpools/wasnorm_wordpool_576.txt	LTP379	ltpFR2	10	1	GRAPE	654	n/a	n/a	0	0	0
334.16845703125	n/a	WORD	684377	wordpools/wasnorm_wordpool_576.txt	LTP379	ltpFR2	10	1	HATCHET	691	n/a	n/a	0	0	0
336.88427734375	n/a	WORD	689939	wordpools/wasnorm_wordpool_576.txt	LTP379	ltpFR2	10	1	OYSTER	995	n/a	n/a	0	0	0
339.701171875	n/a	WORD	695708	wordpools/wasnorm_wordpool_576.txt	LTP379	ltpFR2	10	1	CLAM	315	n/a	n/a	0	0	0
342.21826171875	n/a	WORD	700863	wordpools/wasnorm_wordpool_576.txt	LTP379	ltpFR2	10	1	OINTMENT	974	n/a	n/a	0	0	0
344.68408203125	n/a	WORD	705913	wordpools/wasnorm_wordpool_576.txt	LTP379	ltpFR2	10	1	POCKET	1093	n/a	n/a	0	0	0
346.30078125	n/a	START	709224	n/a	LTP379	ltpFR2	10	n/a	n/a	n/a	2	n/a	n/a	n/a	n/a
347.23681640625	n/a	DISTRACTOR	711141	n/a	LTP379	ltpFR2	10	1	n/a	n/a	n/a	n/a	0	0	0
347.2509765625	n/a	PROB	711170	n/a	LTP379	ltpFR2	10	n/a	n/a	n/a	2	25	9	7	9
348.73388671875	n/a	PROB	714207	n/a	LTP379	ltpFR2	10	n/a	n/a	n/a	2	13	8	2	3
349.85107421875	n/a	PROB	716495	n/a	LTP379	ltpFR2	10	n/a	n/a	n/a	2	12	7	4	1
352.70068359375	n/a	PROB	722331	n/a	LTP379	ltpFR2	10	n/a	n/a	n/a	2	11	6	1	4
354.06689453125	n/a	PROB	725129	n/a	LTP379	ltpFR2	10	n/a	n/a	n/a	2	22	5	9	8
357.80078125	n/a	PROB	732776	n/a	LTP379	ltpFR2	10	n/a	n/a	n/a	2	14	8	5	1
359.28369140625	n/a	PROB	735813	n/a	LTP379	ltpFR2	10	n/a	n/a	n/a	2	16	2	6	8
360.4833984375	n/a	PROB	738270	n/a	LTP379	ltpFR2	10	n/a	n/a	n/a	2	10	5	1	4
362.0166015625	n/a	PROB	741410	n/a	LTP379	ltpFR2	10	n/a	n/a	n/a	2	19	9	4	6
363.55029296875	n/a	PROB	744551	n/a	LTP379	ltpFR2	10	n/a	n/a	n/a	2	9	4	3	2
365.783203125	n/a	PROB	749124	n/a	LTP379	ltpFR2	10	n/a	n/a	n/a	2	14	6	1	7
367.35009765625	n/a	PROB	752333	n/a	LTP379	ltpFR2	10	n/a	n/a	n/a	2	13	9	3	1
368.66650390625	n/a	PROB	755029	n/a	LTP379	ltpFR2	10	n/a	n/a	n/a	2	14	5	2	7
369.90625	n/a	STOP	757568	n/a	LTP379	ltpFR2	10	n/a	n/a	n/a	2	n/a	n/a	n/a	n/a
372.1669921875	n/a	REC_START	762198	n/a	LTP379	ltpFR2	10	1	n/a	n/a	n/a	n/a	0	0	0
375.1669921875	n/a	REC_WORD	768342	wordpools/wasnorm_wordpool_576.txt	LTP379	ltpFR2	10	1	CATCHER	258	n/a	n/a	0	0	0
376.11083984375	n/a	REC_WORD	770275	wordpools/wasnorm_wordpool_576.txt	LTP379	ltpFR2	10	1	RECORD	1176	n/a	n/a	0	0	0
377.27490234375	n/a	REC_WORD	772659	wordpools/wasnorm_wordpool_576.txt	LTP379	ltpFR2	10	1	CONVICT	371	n/a	n/a	0	0	0
378.4248046875	n/a	REC_WORD	775014	wordpools/wasnorm_wordpool_576.txt	LTP379	ltpFR2	10	1	TRACTOR	1493	n/a	n/a	0	0	0
379.4990234375	n/a	REC_WORD	777214	wordpools/wasnorm_wordpool_576.txt	LTP379	ltpFR2	10	1	LADY	794	n/a	n/a	0	0	0
380.44580078125	n/a	REC_WORD	779153	wordpools/wasnorm_wordpool_576.txt	LTP379	ltpFR2	10	1	SHIRT	1287	n/a	n/a	0	0	0
381.6806640625	n/a	REC_WORD	781682	wordpools/wasnorm_wordpool_576.txt	LTP379	ltpFR2	10	1	ORANGE	980	n/a	n/a	0	0	0
382.7900390625	n/a	REC_WORD	783954	wordpools/wasnorm_wordpool_576.txt	LTP379	ltpFR2	10	1	BANQUET	86	n/a	n/a	0	0	0
383.74072265625	n/a	REC_WORD	785901	wordpools/wasnorm_wordpool_576.txt	LTP379	ltpFR2	10	1	SCALLOP	1242	n/a	n/a	0	0	0
384.9599609375	n/a	REC_WORD	788398	wordpools/wasnorm_wordpool_576.txt	LTP379	ltpFR2	10	1	CHEST	295	n/a	n/a	0	0	0
386.15966796875	n/a	REC_WORD	790855	wordpools/wasnorm_wordpool_576.txt	LTP379	ltpFR2	10	1	BODY	145	n/a	n/a	0	0	0
387.177734375	n/a	REC_WORD	792940	wordpools/wasnorm_wordpool_576.txt	LTP379	ltpFR2	10	1	TWIG	1527	n/a	n/a	0	0	0
388.27685546875	n/a	REC_WORD	795191	wordpools/wasnorm_wordpool_576.txt	LTP379	ltpFR2	10	1	TRENCH	1503	n/a	n/a	0	0	0
389.53857421875	n/a	REC_WORD	797775	wordpools/wasnorm_wordpool_576.txt	LTP379	ltpFR2	10	1	OUTLAW	989	n/a	n/a	0	0	0
390.66650390625	n/a	REC_WORD	800085	wordpools/wasnorm_wordpool_576.txt	LTP379	ltpFR2	10	1	CAMEL	223	n/a	n/a	0	0	0
392.1943359375	n/a	REC_WORD	803214	wordpools/wasnorm_wordpool_576.txt	LTP379	ltpFR2	10	1	PUDDLE	1140	n/a	n/a	0	0	0
393.30029296875	n/a	REC_WORD	805479	wordpools/wasnorm_wordpool_576.txt	LTP379	ltpFR2	10	1	FRUIT	610	n/a	n/a	0	0	0
394.900390625	n/a	REC_WORD	808756	wordpools/wasnorm_wordpool_576.txt	LTP379	ltpFR2	10	1	EAGLE	512	n/a	n/a	0	0	0
395.974609375	n/a	REC_WORD	810956	wordpools/wasnorm_wordpool_576.txt	LTP379	ltpFR2	10	1	GRAPE	654	n/a	n/a	0	0	0
397.13623046875	n/a	REC_WORD	813335	wordpools/wasnorm_wordpool_576.txt	LTP379	ltpFR2	10	1	HATCHET	691	n/a	n/a	0	0	0
398.3935546875	n/a	REC_WORD	815910	wordpools/wasnorm_wordpool_576.txt	LTP379	ltpFR2	10	1	OYSTER	995	n/a	n/a	0	0	0
399.55322265625	n/a	REC_WORD	818285	wordpools/wasnorm_wordpool_576.txt	LTP379	ltpFR2	10	1	CLAM	315	n/a	n/a	0	0	0
400.8173828125	n/a	REC_WORD	820874	wordpools/wasnorm_wordpool_576.txt	LTP379	ltpFR2	10	1	OINTMENT	974	n/a	n/a	0	0	0
401.9560546875	n/a	REC_WORD	823206	wordpools/wasnorm_wordpool_576.txt	LTP379	ltpFR2	10	1	POCKET	1093	n/a	n/a	0	0	0
462.59521484375	n/a	DISTRACTOR	947395	n/a	LTP379	ltpFR2	10	2	n/a	n/a	n/a	n/a	0	0	0
462.59521484375	n/a	START	947395	n/a	LTP379	ltpFR2	10	n/a	n/a	n/a	3	n/a	n/a	n/a	n/a
462.6123046875	n/a	PROB	947430	n/a	LTP379	ltpFR2	10	n/a	n/a	n/a	3	9	3	4	2
464.01220703125	n/a	PROB	950297	n/a	LTP379	ltpFR2	10	n/a	n/a	n/a	3	14	6	7	1
465.21240234375	n/a	PROB	952755	n/a	LTP379	ltpFR2	10	n/a	n/a	n/a	3	16	8	4	4
466.6123046875	n/a	PROB	955622	n/a	LTP379	ltpFR2	10	n/a	n/a	n/a	3	14	3	4	7
468.6123046875	n/a	PROB	959718	n/a	LTP379	ltpFR2	10	n/a	n/a	n/a	3	14	9	3	2
470.67822265625	n/a	PROB	963949	n/a	LTP379	ltpFR2	10	n/a	n/a	n/a	3	17	6	4	7
471.97802734375	n/a	PROB	966611	n/a	LTP379	ltpFR2	10	n/a	n/a	n/a	3	13	3	6	4
473.328125	n/a	PROB	969376	n/a	LTP379	ltpFR2	10	n/a	n/a	n/a	3	7	2	4	1
474.51220703125	n/a	PROB	971801	n/a	LTP379	ltpFR2	10	n/a	n/a	n/a	3	15	8	4	3
475.8779296875	n/a	PROB	974598	n/a	LTP379	ltpFR2	10	n/a	n/a	n/a	3	8	1	6	1
476.92822265625	n/a	PROB	976749	n/a	LTP379	ltpFR2	10	n/a	n/a	n/a	3	11	3	3	5
478.6611328125	n/a	PROB	980298	n/a	LTP379	ltpFR2	10	n/a	n/a	n/a	3	11	2	6	3
480.82763671875	n/a	PROB	984735	n/a	LTP379	ltpFR2	10	n/a	n/a	n/a	3	18	5	6	7
482.66064453125	n/a	PROB	988489	n/a	LTP379	ltpFR2	10	n/a	n/a	n/a	3	17	4	8	5
486.59375	n/a	STOP	996544	n/a	LTP379	ltpFR2	10	n/a	n/a	n/a	3	n/a	n/a	n/a	n/a
487.52783203125	n/a	WORD	998457	wordpools/wasnorm_wordpool_576.txt	LTP379	ltpFR2	10	2	COURSE	390	n/a	n/a	0	0	0
490.07763671875	n/a	WORD	1003679	wordpools/wasnorm_wordpool_576.txt	LTP379	ltpFR2	10	2	YACHT	1629	n/a	n/a	0	0	0
492.6435546875	n/a	WORD	1008934	wordpools/wasnorm_wordpool_576.txt	LTP379	ltpFR2	10	2	POPCORN	1104	n/a	n/a	0	0	0
495.310546875	n/a	WORD	1014396	wordpools/wasnorm_wordpool_576.txt	LTP379	ltpFR2	10	2	MEDAL	885	n/a	n/a	0	0	0
497.91015625	n/a	WORD	1019720	wordpools/wasnorm_wordpool_576.txt	LTP379	ltpFR2	10	2	BADGE	68	n/a	n/a	0	0	0
500.34326171875	n/a	WORD	1024703	wordpools/wasnorm_wordpool_576.txt	LTP379	ltpFR2	10	2	ICEBERG	731	n/a	n/a	0	0	0
502.943359375	n/a	WORD	1030028	wordpools/wasnorm_wordpool_576.txt	LTP379	ltpFR2	10	2	TUBA	1515	n/a	n/a	0	0	0
505.626953125	n/a	WORD	1035524	wordpools/wasnorm_wordpool_576.txt	LTP379	ltpFR2	10	2	UNCLE	1536	n/a	n/a	0	0	0
508.126953125	n/a	WORD	1040644	wordpools/wasnorm_wordpool_576.txt	LTP379	ltpFR2	10	2	LEG	809	n/a	n/a	0	0	0
510.60986328125	n/a	WORD	1045729	wordpools/wasnorm_wordpool_576.txt	LTP379	ltpFR2	10	2	WASHER	1592	n/a	n/a	0	0	0
513.10986328125	n/a	WORD	1050849	wordpools/wasnorm_wordpool_576.txt	LTP379	ltpFR2	10	2	FRECKLE	602	n/a	n/a	0	0	0
515.54296875	n/a	WORD	1055832	wordpools/wasnorm_wordpool_576.txt	LTP379	ltpFR2	10	2	SUSPECT	1415	n/a	n/a	0	0	0
518.29296875	n/a	WORD	1061464	wordpools/wasnorm_wordpool_576.txt	LTP379	ltpFR2	10	2	COUNTY	389	n/a	n/a	0	0	0
520.759765625	n/a	WORD	1066516	wordpools/wasnorm_wordpool_576.txt	LTP379	ltpFR2	10	2	COUNTRY	388	n/a	n/a	0	0	0
523.37548828125	n/a	WORD	1071873	wordpools/wasnorm_wordpool_576.txt	LTP379	ltpFR2	10	2	FOREHEAD	592	n/a	n/a	0	0	0
525.82568359375	n/a	WORD	1076891	wordpools/wasnorm_wordpool_576.txt	LTP379	ltpFR2	10	2	MOP	916	n/a	n/a	0	0	0
528.4423828125	n/a	WORD	1082250	wordpools/wasnorm_wordpool_576.txt	LTP379	ltpFR2	10	2	STOMACH	1384	n/a	n/a	0	0	0
531.00927734375	n/a	WORD	1087507	wordpools/wasnorm_wordpool_576.txt	LTP379	ltpFR2	10	2	BANKER	84	n/a	n/a	0	0	0
533.609375	n/a	WORD	1092832	wordpools/wasnorm_wordpool_576.txt	LTP379	ltpFR2	10	2	QUARTER	1148	n/a	n/a	0	0	0
536.17529296875	n/a	WORD	1098087	wordpools/wasnorm_wordpool_576.txt	LTP379	ltpFR2	10	2	WIDOW	1608	n/a	n/a	0	0	0
538.89208984375	n/a	WORD	1103651	wordpools/wasnorm_wordpool_576.txt	LTP379	ltpFR2	10	2	GARBAGE	622	n/a	n/a	0	0	0
541.591796875	n/a	WORD	1109180	wordpools/wasnorm_wordpool_576.txt	LTP379	ltpFR2	10	2	CAFE	216	n/a	n/a	0	0	0
544.05810546875	n/a	WORD	1114231	wordpools/wasnorm_wordpool_576.txt	LTP379	ltpFR2	10	2	RACKET	1155	n/a	n/a	0	0	0
546.7080078125	n/a	WORD	1119658	wordpools/wasnorm_wordpool_576.txt	LTP379	ltpFR2	10	2	ROBOT	1200	n/a	n/a	0	0	0
548.32470703125	n/a	START	1122969	n/a	LTP379	ltpFR2	10	n/a	n/a	n/a	4	n/a	n/a	n/a	n/a
549.40380859375	n/a	DISTRACTOR	1125179	n/a	LTP379	ltpFR2	10	2	n/a	n/a	n/a	n/a	0	0	0
549.40771484375	n/a	PROB	1125187	n/a	LTP379	ltpFR2	10	n/a	n/a	n/a	4	14	5	3	6
551.12451171875	n/a	PROB	1128703	n/a	LTP379	ltpFR2	10	n/a	n/a	n/a	4	20	5	6	9
553.57470703125	n/a	PROB	1133721	n/a	LTP379	ltpFR2	10	n/a	n/a	n/a	4	22	7	7	8
554.90771484375	n/a	PROB	1136451	n/a	LTP379	ltpFR2	10	n/a	n/a	n/a	4	23	8	6	9
556.79052734375	n/a	PROB	1140307	n/a	LTP379	ltpFR2	10	n/a	n/a	n/a	4	19	6	7	6
558.32470703125	n/a	PROB	1143449	n/a	LTP379	ltpFR2	10	n/a	n/a	n/a	4	17	7	4	6
559.974609375	n/a	PROB	1146828	n/a	LTP379	ltpFR2	10	n/a	n/a	n/a	4	25	8	9	8
561.857421875	n/a	PROB	1150684	n/a	LTP379	ltpFR2	10	n/a	n/a	n/a	4	15	5	6	4
563.42431640625	n/a	PROB	1153893	n/a	LTP379	ltpFR2	10	n/a	n/a	n/a	4	17	5	6	6
565.1904296875	n/a	PROB	1157510	n/a	LTP379	ltpFR2	10	n/a	n/a	n/a	4	13	1	6	6
566.42431640625	n/a	PROB	1160037	n/a	LTP379	ltpFR2	10	n/a	n/a	n/a	4	19	3	7	9
567.6240234375	n/a	PROB	1162494	n/a	LTP379	ltpFR2	10	n/a	n/a	n/a	4	13	4	5	4
569.32421875	n/a	PROB	1165976	n/a	LTP379	ltpFR2	10	n/a	n/a	n/a	4	22	6	8	8
570.81005859375	n/a	STOP	1169019	n/a	LTP379	ltpFR2	10	n/a	n/a	n/a	4	n/a	n/a	n/a	n/a
574.27392578125	n/a	REC_START	1176113	n/a	LTP379	ltpFR2	10	2	n/a	n/a	n/a	n/a	0	0	0
578.4638671875	n/a	REC_WORD	1184694	wordpools/wasnorm_wordpool_576.txt	LTP379	ltpFR2	10	2	COURSE	390	n/a	n/a	0	0	0
579.48193359375	n/a	REC_WORD	1186779	wordpools/wasnorm_wordpool_576.txt	LTP379	ltpFR2	10	2	YACHT	1629	n/a	n/a	0	0	0
580.65673828125	n/a	REC_WORD	1189185	wordpools/wasnorm_wordpool_576.txt	LTP379	ltpFR2	10	2	POPCORN	1104	n/a	n/a	0	0	0
581.73876953125	n/a	REC_WORD	1191401	wordpools/wasnorm_wordpool_576.txt	LTP379	ltpFR2	10	2	MEDAL	885	n/a	n/a	0	0	0
582.93359375	n/a	REC_WORD	1193848	wordpools/wasnorm_wordpool_576.txt	LTP379	ltpFR2	10	2	BADGE	68	n/a	n/a	0	0	0
584.134765625	n/a	REC_WORD	1196308	wordpools/wasnorm_wordpool_576.txt	LTP379	ltpFR2	10	2	ICEBERG	731	n/a	n/a	0	0	0
585.3408203125	n/a	REC_WORD	1198778	wordpools/wasnorm_wordpool_576.txt	LTP379	ltpFR2	10	2	TUBA	1515	n/a	n/a	0	0	0
586.521484375	n/a	REC_WORD	1201196	wordpools/wasnorm_wordpool_576.txt	LTP379	ltpFR2	10	2	UNCLE	1536	n/a	n/a	0	0	0
587.67578125	n/a	REC_WORD	1203560	wordpools/wasnorm_wordpool_576.txt	LTP379	ltpFR2	10	2	LEG	809	n/a	n/a	0	0	0
588.86962890625	n/a	REC_WORD	1206005	wordpools/wasnorm_wordpool_576.txt	LTP379	ltpFR2	10	2	FRECKLE	602	n/a	n/a	0	0	0
590.306640625	n/a	REC_WORD	1208948	wordpools/wasnorm_wordpool_576.txt	LTP379	ltpFR2	10	2	WASHER	1592	n/a	n/a	0	0	0
591.5263671875	n/a	REC_WORD	1211446	wordpools/wasnorm_wordpool_576.txt	LTP379	ltpFR2	10	2	SUSPECT	1415	n/a	n/a	0	0	0
593.6494140625	n/a	REC_WORD	1215794	wordpools/wasnorm_wordpool_576.txt	LTP379	ltpFR2	10	2	FOREHEAD	592	n/a	n/a	0	0	0
596.4365234375	n/a	REC_WORD	1221502	wordpools/wasnorm_wordpool_576.txt	LTP379	ltpFR2	10	2	MOP	916	n/a	n/a	0	0	0
597.6904296875	n/a	REC_WORD	1224070	wordpools/wasnorm_wordpool_576.txt	LTP379	ltpFR2	10	2	COUNTRY	388	n/a	n/a	0	0	0
598.9833984375	n/a	REC_WORD	1226718	wordpools/wasnorm_wordpool_576.txt	LTP379	ltpFR2	10	2	COUNTY	389	n/a	n/a	0	0	0
599.9931640625	n/a	REC_WORD	1228786	wordpools/wasnorm_wordpool_576.txt	LTP379	ltpFR2	10	2	STOMACH	1384	n/a	n/a	0	0	0
601.55419921875	n/a	REC_WORD	1231983	wordpools/wasnorm_wordpool_576.txt	LTP379	ltpFR2	10	2	BANKER	84	n/a	n/a	0	0	0
602.69921875	n/a	REC_WORD	1234328	wordpools/wasnorm_wordpool_576.txt	LTP379	ltpFR2	10	2	QUARTER	1148	n/a	n/a	0	0	0
604.14990234375	n/a	REC_WORD	1237299	wordpools/wasnorm_wordpool_576.txt	LTP379	ltpFR2	10	2	WIDOW	1608	n/a	n/a	0	0	0
605.4501953125	n/a	REC_WORD	1239962	wordpools/wasnorm_wordpool_576.txt	LTP379	ltpFR2	10	2	GARBAGE	622	n/a	n/a	0	0	0
606.64697265625	n/a	REC_WORD	1242413	wordpools/wasnorm_wordpool_576.txt	LTP379	ltpFR2	10	2	CAFE	216	n/a	n/a	0	0	0
608.283203125	n/a	REC_WORD	1245764	wordpools/wasnorm_wordpool_576.txt	LTP379	ltpFR2	10	2	RACKET	1155	n/a	n/a	0	0	0
609.47705078125	n/a	REC_WORD	1248209	wordpools/wasnorm_wordpool_576.txt	LTP379	ltpFR2	10	2	ROBOT	1200	n/a	n/a	0	0	0
664.71923828125	n/a	DISTRACTOR	1361345	n/a	LTP379	ltpFR2	10	3	n/a	n/a	n/a	n/a	0	0	0
664.71923828125	n/a	START	1361345	n/a	LTP379	ltpFR2	10	n/a	n/a	n/a	5	n/a	n/a	n/a	n/a
664.736328125	n/a	PROB	1361380	n/a	LTP379	ltpFR2	10	n/a	n/a	n/a	5	20	7	8	5
666.5361328125	n/a	PROB	1365066	n/a	LTP379	ltpFR2	10	n/a	n/a	n/a	5	18	2	8	8
668.16943359375	n/a	PROB	1368411	n/a	LTP379	ltpFR2	10	n/a	n/a	n/a	5	9	3	5	1
669.3359375	n/a	PROB	1370800	n/a	LTP379	ltpFR2	10	n/a	n/a	n/a	5	21	3	9	9
670.751953125	n/a	PROB	1373700	n/a	LTP379	ltpFR2	10	n/a	n/a	n/a	5	13	1	3	9
673.15185546875	n/a	PROB	1378615	n/a	LTP379	ltpFR2	10	n/a	n/a	n/a	5	24	7	8	9
675.28515625	n/a	PROB	1382984	n/a	LTP379	ltpFR2	10	n/a	n/a	n/a	5	15	3	9	3
677.0517578125	n/a	PROB	1386602	n/a	LTP379	ltpFR2	10	n/a	n/a	n/a	5	12	5	3	4
678.40185546875	n/a	PROB	1389367	n/a	LTP379	ltpFR2	10	n/a	n/a	n/a	5	20	6	7	7
679.8349609375	n/a	PROB	1392302	n/a	LTP379	ltpFR2	10	n/a	n/a	n/a	5	17	2	8	7
681.11865234375	n/a	PROB	1394931	n/a	LTP379	ltpFR2	10	n/a	n/a	n/a	5	16	8	4	4
682.48486328125	n/a	PROB	1397729	n/a	LTP379	ltpFR2	10	n/a	n/a	n/a	5	15	7	6	2
684.58447265625	n/a	PROB	1402029	n/a	LTP379	ltpFR2	10	n/a	n/a	n/a	5	16	6	8	2
686.73486328125	n/a	PROB	1406433	n/a	LTP379	ltpFR2	10	n/a	n/a	n/a	5	20	8	8	4
687.94580078125	n/a	STOP	1408913	n/a	LTP379	ltpFR2	10	n/a	n/a	n/a	5	n/a	n/a	n/a	n/a
689.7685546875	n/a	WORD	1412646	wordpools/wasnorm_wordpool_576.txt	LTP379	ltpFR2	10	3	SURVEY	1414	n/a	n/a	0	0	0
692.484375	n/a	WORD	1418208	wordpools/wasnorm_wordpool_576.txt	LTP379	ltpFR2	10	3	DONKEY	484	n/a	n/a	0	0	0
694.96728515625	n/a	WORD	1423293	wordpools/wasnorm_wordpool_576.txt	LTP379	ltpFR2	10	3	CRAYON	401	n/a	n/a	0	0	0
697.60107421875	n/a	WORD	1428687	wordpools/wasnorm_wordpool_576.txt	LTP379	ltpFR2	10	3	SUNRISE	1407	n/a	n/a	0	0	0
700.3671875	n/a	WORD	1434352	wordpools/wasnorm_wordpool_576.txt	LTP379	ltpFR2	10	3	CURTAIN	427	n/a	n/a	0	0	0
703.13427734375	n/a	WORD	1440019	wordpools/wasnorm_wordpool_576.txt	LTP379	ltpFR2	10	3	BINDER	127	n/a	n/a	0	0	0
705.73388671875	n/a	WORD	1445343	wordpools/wasnorm_wordpool_576.txt	LTP379	ltpFR2	10	3	NOTEBOOK	959	n/a	n/a	0	0	0
708.55078125	n/a	WORD	1451112	wordpools/wasnorm_wordpool_576.txt	LTP379	ltpFR2	10	3	TRUCK	1512	n/a	n/a	0	0	0
710.98388671875	n/a	WORD	1456095	wordpools/wasnorm_wordpool_576.txt	LTP379	ltpFR2	10	3	ULCER	1533	n/a	n/a	0	0	0
713.55078125	n/a	WORD	1461352	wordpools/wasnorm_wordpool_576.txt	LTP379	ltpFR2	10	3	ACTOR	5	n/a	n/a	0	0	0
716.349609375	n/a	WORD	1467084	wordpools/wasnorm_wordpool_576.txt	LTP379	ltpFR2	10	3	RELISH	1183	n/a	n/a	0	0	0
718.7998046875	n/a	WORD	1472102	wordpools/wasnorm_wordpool_576.txt	LTP379	ltpFR2	10	3	WIFE	1609	n/a	n/a	0	0	0
721.466796875	n/a	WORD	1477564	wordpools/wasnorm_wordpool_576.txt	LTP379	ltpFR2	10	3	WINDOW	1611	n/a	n/a	0	0	0
724.0166015625	n/a	WORD	1482786	wordpools/wasnorm_wordpool_576.txt	LTP379	ltpFR2	10	3	FOOT	590	n/a	n/a	0	0	0
726.49951171875	n/a	WORD	1487871	wordpools/wasnorm_wordpool_576.txt	LTP379	ltpFR2	10	3	HANDBAG	684	n/a	n/a	0	0	0
728.96630859375	n/a	WORD	1492923	wordpools/wasnorm_wordpool_576.txt	LTP379	ltpFR2	10	3	CROWN	415	n/a	n/a	0	0	0
731.56640625	n/a	WORD	1498248	wordpools/wasnorm_wordpool_576.txt	LTP379	ltpFR2	10	3	BRAKE	166	n/a	n/a	0	0	0
734.2490234375	n/a	WORD	1503742	wordpools/wasnorm_wordpool_576.txt	LTP379	ltpFR2	10	3	COOK	372	n/a	n/a	0	0	0
736.69921875	n/a	WORD	1508760	wordpools/wasnorm_wordpool_576.txt	LTP379	ltpFR2	10	3	WOMAN	1620	n/a	n/a	0	0	0
739.33203125	n/a	WORD	1514152	wordpools/wasnorm_wordpool_576.txt	LTP379	ltpFR2	10	3	FIREPLACE	570	n/a	n/a	0	0	0
742.048828125	n/a	WORD	1519716	wordpools/wasnorm_wordpool_576.txt	LTP379	ltpFR2	10	3	DUST	508	n/a	n/a	0	0	0
744.78173828125	n/a	WORD	1525313	wordpools/wasnorm_wordpool_576.txt	LTP379	ltpFR2	10	3	PARROT	1015	n/a	n/a	0	0	0
747.548828125	n/a	WORD	1530980	wordpools/wasnorm_wordpool_576.txt	LTP379	ltpFR2	10	3	SODA	1341	n/a	n/a	0	0	0
750.23193359375	n/a	WORD	1536475	wordpools/wasnorm_wordpool_576.txt	LTP379	ltpFR2	10	3	BALLOON	75	n/a	n/a	0	0	0
751.8486328125	n/a	START	1539786	n/a	LTP379	ltpFR2	10	n/a	n/a	n/a	6	n/a	n/a	n/a	n/a
752.810546875	n/a	DISTRACTOR	1541756	n/a	LTP379	ltpFR2	10	3	n/a	n/a	n/a	n/a	0	0	0
752.814453125	n/a	PROB	1541764	n/a	LTP379	ltpFR2	10	n/a	n/a	n/a	6	10	6	1	3
754.74853515625	n/a	PROB	1545725	n/a	LTP379	ltpFR2	10	n/a	n/a	n/a	6	15	2	8	5
755.8486328125	n/a	PROB	1547978	n/a	LTP379	ltpFR2	10	n/a	n/a	n/a	6	13	1	6	6
756.96435546875	n/a	PROB	1550263	n/a	LTP379	ltpFR2	10	n/a	n/a	n/a	6	11	6	1	4
758.3154296875	n/a	PROB	1553030	n/a	LTP379	ltpFR2	10	n/a	n/a	n/a	6	16	9	6	1
759.71435546875	n/a	PROB	1555895	n/a	LTP379	ltpFR2	10	n/a	n/a	n/a	6	13	3	9	1
761.064453125	n/a	PROB	1558660	n/a	LTP379	ltpFR2	10	n/a	n/a	n/a	6	17	1	7	9
762.9814453125	n/a	PROB	1562586	n/a	LTP379	ltpFR2	10	n/a	n/a	n/a	6	13	2	7	4
764.38134765625	n/a	PROB	1565453	n/a	LTP379	ltpFR2	10	n/a	n/a	n/a	6	6	4	1	1
765.3642578125	n/a	PROB	1567466	n/a	LTP379	ltpFR2	10	n/a	n/a	n/a	6	18	6	6	6
766.51416015625	n/a	PROB	1569821	n/a	LTP379	ltpFR2	10	n/a	n/a	n/a	6	13	8	3	2
768.56396484375	n/a	PROB	1574019	n/a	LTP379	ltpFR2	10	n/a	n/a	n/a	6	12	3	7	2
769.8642578125	n/a	PROB	1576682	n/a	LTP379	ltpFR2	10	n/a	n/a	n/a	6	17	6	8	3
771.3310546875	n/a	PROB	1579686	n/a	LTP379	ltpFR2	10	n/a	n/a	n/a	6	18	9	3	6
773.01416015625	n/a	PROB	1583133	n/a	LTP379	ltpFR2	10	n/a	n/a	n/a	6	15	8	5	2
774.7861328125	n/a	STOP	1586762	n/a	LTP379	ltpFR2	10	n/a	n/a	n/a	6	n/a	n/a	n/a	n/a
777.748046875	n/a	REC_START	1592828	n/a	LTP379	ltpFR2	10	3	n/a	n/a	n/a	n/a	0	0	0
781.80859375	n/a	REC_WORD	1601144	wordpools/wasnorm_wordpool_576.txt	LTP379	ltpFR2	10	3	SURVEY	1414	n/a	n/a	0	0	0
782.9736328125	n/a	REC_WORD	1603530	wordpools/wasnorm_wordpool_576.txt	LTP379	ltpFR2	10	3	DONKEY	484	n/a	n/a	0	0	0
783.892578125	n/a	REC_WORD	1605412	wordpools/wasnorm_wordpool_576.txt	LTP379	ltpFR2	10	3	CRAYON	401	n/a	n/a	0	0	0
784.93359375	n/a	REC_WORD	1607544	wordpools/wasnorm_wordpool_576.txt	LTP379	ltpFR2	10	3	SUNRISE	1407	n/a	n/a	0	0	0
786.1923828125	n/a	REC_WORD	1610122	wordpools/wasnorm_wordpool_576.txt	LTP379	ltpFR2	10	3	CURTAIN	427	n/a	n/a	0	0	0
787.50439453125	n/a	REC_WORD	1612809	wordpools/wasnorm_wordpool_576.txt	LTP379	ltpFR2	10	3	BINDER	127	n/a	n/a	0	0	0
788.57470703125	n/a	REC_WORD	1615001	wordpools/wasnorm_wordpool_576.txt	LTP379	ltpFR2	10	3	NOTEBOOK	959	n/a	n/a	0	0	0
789.79638671875	n/a	REC_WORD	1617503	wordpools/wasnorm_wordpool_576.txt	LTP379	ltpFR2	10	3	TRUCK	1512	n/a	n/a	0	0	0
790.81640625	n/a	REC_WORD	1619592	wordpools/wasnorm_wordpool_576.txt	LTP379	ltpFR2	10	3	ULCER	1533	n/a	n/a	0	0	0
791.986328125	n/a	REC_WORD	1621988	wordpools/wasnorm_wordpool_576.txt	LTP379	ltpFR2	10	3	ACTOR	5	n/a	n/a	0	0	0
793.08349609375	n/a	REC_WORD	1624235	wordpools/wasnorm_wordpool_576.txt	LTP379	ltpFR2	10	3	RELISH	1183	n/a	n/a	0	0	0
794.25732421875	n/a	REC_WORD	1626639	wordpools/wasnorm_wordpool_576.txt	LTP379	ltpFR2	10	3	WIFE	1609	n/a	n/a	0	0	0
795.2822265625	n/a	REC_WORD	1628738	wordpools/wasnorm_wordpool_576.txt	LTP379	ltpFR2	10	3	WINDOW	1611	n/a	n/a	0	0	0
796.29150390625	n/a	REC_WORD	1630805	wordpools/wasnorm_wordpool_576.txt	LTP379	ltpFR2	10	3	FOOT	590	n/a	n/a	0	0	0
797.52734375	n/a	REC_WORD	1633336	wordpools/wasnorm_wordpool_576.txt	LTP379	ltpFR2	10	3	HANDBAG	684	n/a	n/a	0	0	0
799.84228515625	n/a	REC_WORD	1638077	wordpools/wasnorm_wordpool_576.txt	LTP379	ltpFR2	10	3	CROWN	415	n/a	n/a	0	0	0
802.49609375	n/a	REC_WORD	1643512	wordpools/wasnorm_wordpool_576.txt	LTP379	ltpFR2	10	3	WINDOW	1611	n/a	n/a	0	0	0
804.1240234375	n/a	REC_WORD	1646846	wordpools/wasnorm_wordpool_576.txt	LTP379	ltpFR2	10	3	BRAKE	166	n/a	n/a	0	0	0
805.37109375	n/a	REC_WORD	1649400	wordpools/wasnorm_wordpool_576.txt	LTP379	ltpFR2	10	3	COOK	372	n/a	n/a	0	0	0
806.533203125	n/a	REC_WORD	1651780	wordpools/wasnorm_wordpool_576.txt	LTP379	ltpFR2	10	3	WOMAN	1620	n/a	n/a	0	0	0
807.55908203125	n/a	REC_WORD	1653881	wordpools/wasnorm_wordpool_576.txt	LTP379	ltpFR2	10	3	FIREPLACE	570	n/a	n/a	0	0	0
808.99609375	n/a	REC_WORD	1656824	wordpools/wasnorm_wordpool_576.txt	LTP379	ltpFR2	10	3	DUST	508	n/a	n/a	0	0	0
810.2041015625	n/a	REC_WORD	1659298	wordpools/wasnorm_wordpool_576.txt	LTP379	ltpFR2	10	3	PARROT	1015	n/a	n/a	0	0	0
811.302734375	n/a	REC_WORD	1661548	wordpools/wasnorm_wordpool_576.txt	LTP379	ltpFR2	10	3	SODA	1341	n/a	n/a	0	0	0
812.4658203125	n/a	REC_WORD	1663930	wordpools/wasnorm_wordpool_576.txt	LTP379	ltpFR2	10	3	BALLOON	75	n/a	n/a	0	0	0
868.2099609375	n/a	WORD	1778094	wordpools/wasnorm_wordpool_576.txt	LTP379	ltpFR2	10	4	SUBWAY	1400	n/a	n/a	0	0	0
870.89306640625	n/a	WORD	1783589	wordpools/wasnorm_wordpool_576.txt	LTP379	ltpFR2	10	4	LAKE	796	n/a	n/a	0	0	0
873.67578125	n/a	WORD	1789288	wordpools/wasnorm_wordpool_576.txt	LTP379	ltpFR2	10	4	SEAL	1262	n/a	n/a	0	0	0
876.32568359375	n/a	WORD	1794715	wordpools/wasnorm_wordpool_576.txt	LTP379	ltpFR2	10	4	MEAT	883	n/a	n/a	0	0	0
878.77587890625	n/a	WORD	1799733	wordpools/wasnorm_wordpool_576.txt	LTP379	ltpFR2	10	4	SLUG	1329	n/a	n/a	0	0	0
881.259765625	n/a	WORD	1804820	wordpools/wasnorm_wordpool_576.txt	LTP379	ltpFR2	10	4	DENIM	446	n/a	n/a	0	0	0
883.94287109375	n/a	WORD	1810315	wordpools/wasnorm_wordpool_576.txt	LTP379	ltpFR2	10	4	VAGRANT	1544	n/a	n/a	0	0	0
886.392578125	n/a	WORD	1815332	wordpools/wasnorm_wordpool_576.txt	LTP379	ltpFR2	10	4	QUEEN	1149	n/a	n/a	0	0	0
889.07568359375	n/a	WORD	1820827	wordpools/wasnorm_wordpool_576.txt	LTP379	ltpFR2	10	4	FLASHLIGHT	575	n/a	n/a	0	0	0
891.7255859375	n/a	WORD	1826254	wordpools/wasnorm_wordpool_576.txt	LTP379	ltpFR2	10	4	LASER	801	n/a	n/a	0	0	0
894.408203125	n/a	WORD	1831748	wordpools/wasnorm_wordpool_576.txt	LTP379	ltpFR2	10	4	FRAGRANCE	599	n/a	n/a	0	0	0
897.20849609375	n/a	WORD	1837483	wordpools/wasnorm_wordpool_576.txt	LTP379	ltpFR2	10	4	GARLIC	624	n/a	n/a	0	0	0
899.775390625	n/a	WORD	1842740	wordpools/wasnorm_wordpool_576.txt	LTP379	ltpFR2	10	4	SHORTS	1293	n/a	n/a	0	0	0
902.25830078125	n/a	WORD	1847825	wordpools/wasnorm_wordpool_576.txt	LTP379	ltpFR2	10	4	ATLAS	53	n/a	n/a	0	0	0
904.97509765625	n/a	WORD	1853389	wordpools/wasnorm_wordpool_576.txt	LTP379	ltpFR2	10	4	LETTUCE	814	n/a	n/a	0	0	0
907.77490234375	n/a	WORD	1859123	wordpools/wasnorm_wordpool_576.txt	LTP379	ltpFR2	10	4	JUGGLER	763	n/a	n/a	0	0	0
910.390625	n/a	WORD	1864480	wordpools/wasnorm_wordpool_576.txt	LTP379	ltpFR2	10	4	HARP	689	n/a	n/a	0	0	0
913.10791015625	n/a	WORD	1870045	wordpools/wasnorm_wordpool_576.txt	LTP379	ltpFR2	10	4	TOMBSTONE	1478	n/a	n/a	0	0	0
915.54052734375	n/a	WORD	1875027	wordpools/wasnorm_wordpool_576.txt	LTP379	ltpFR2	10	4	GRILL	661	n/a	n/a	0	0	0
918.29052734375	n/a	WORD	1880659	wordpools/wasnorm_wordpool_576.txt	LTP379	ltpFR2	10	4	CHEMIST	292	n/a	n/a	0	0	0
921.0234375	n/a	WORD	1886256	wordpools/wasnorm_wordpool_576.txt	LTP379	ltpFR2	10	4	PIZZA	1079	n/a	n/a	0	0	0
923.70751953125	n/a	WORD	1891753	wordpools/wasnorm_wordpool_576.txt	LTP379	ltpFR2	10	4	SIBLING	1301	n/a	n/a	0	0	0
926.357421875	n/a	WORD	1897180	wordpools/wasnorm_wordpool_576.txt	LTP379	ltpFR2	10	4	EGYPT	519	n/a	n/a	0	0	0
929.04052734375	n/a	WORD	1902675	wordpools/wasnorm_wordpool_576.txt	LTP379	ltpFR2	10	4	RIVER	1194	n/a	n/a	0	0	0
930.6572265625	n/a	START	1905986	n/a	LTP379	ltpFR2	10	n/a	n/a	n/a	7	n/a	n/a	n/a	n/a
931.50244140625	n/a	DISTRACTOR	1907717	n/a	LTP379	ltpFR2	10	4	n/a	n/a	n/a	n/a	0	0	0
931.50732421875	n/a	PROB	1907727	n/a	LTP379	ltpFR2	10	n/a	n/a	n/a	7	14	5	4	5
932.85693359375	n/a	PROB	1910491	n/a	LTP379	ltpFR2	10	n/a	n/a	n/a	7	6	3	1	2
934.35693359375	n/a	PROB	1913563	n/a	LTP379	ltpFR2	10	n/a	n/a	n/a	7	14	4	2	8
935.8232421875	n/a	PROB	1916566	n/a	LTP379	ltpFR2	10	n/a	n/a	n/a	7	16	4	3	9
937.83984375	n/a	PROB	1920696	n/a	LTP379	ltpFR2	10	n/a	n/a	n/a	7	7	4	2	1
938.990234375	n/a	PROB	1923052	n/a	LTP379	ltpFR2	10	n/a	n/a	n/a	7	18	8	2	8
940.4228515625	n/a	PROB	1925986	n/a	LTP379	ltpFR2	10	n/a	n/a	n/a	7	15	1	8	6
942.005859375	n/a	PROB	1929228	n/a	LTP379	ltpFR2	10	n/a	n/a	n/a	7	19	9	9	1
943.755859375	n/a	PROB	1932812	n/a	LTP379	ltpFR2	10	n/a	n/a	n/a	7	18	6	6	6
944.98974609375	n/a	PROB	1935339	n/a	LTP379	ltpFR2	10	n/a	n/a	n/a	7	14	4	3	7
947.12255859375	n/a	PROB	1939707	n/a	LTP379	ltpFR2	10	n/a	n/a	n/a	7	15	6	2	7
949.35546875	n/a	PROB	1944280	n/a	LTP379	ltpFR2	10	n/a	n/a	n/a	7	24	9	6	9
951.03955078125	n/a	PROB	1947729	n/a	LTP379	ltpFR2	10	n/a	n/a	n/a	7	10	1	4	5
952.2724609375	n/a	PROB	1950254	n/a	LTP379	ltpFR2	10	n/a	n/a	n/a	7	22	7	8	7
953.8017578125	n/a	STOP	1953386	n/a	LTP379	ltpFR2	10	n/a	n/a	n/a	7	n/a	n/a	n/a	n/a
956.439453125	n/a	REC_START	1958788	n/a	LTP379	ltpFR2	10	4	n/a	n/a	n/a	n/a	0	0	0
960.828125	n/a	REC_WORD	1967776	wordpools/wasnorm_wordpool_576.txt	LTP379	ltpFR2	10	4	SUBWAY	1400	n/a	n/a	0	0	0
962.09619140625	n/a	REC_WORD	1970373	wordpools/wasnorm_wordpool_576.txt	LTP379	ltpFR2	10	4	LAKE	796	n/a	n/a	0	0	0
963.39208984375	n/a	REC_WORD	1973027	wordpools/wasnorm_wordpool_576.txt	LTP379	ltpFR2	10	4	SEAL	1262	n/a	n/a	0	0	0
964.826171875	n/a	REC_WORD	1975964	wordpools/wasnorm_wordpool_576.txt	LTP379	ltpFR2	10	4	MEAT	883	n/a	n/a	0	0	0
966.0400390625	n/a	REC_WORD	1978450	wordpools/wasnorm_wordpool_576.txt	LTP379	ltpFR2	10	4	SLUG	1329	n/a	n/a	0	0	0
967.68408203125	n/a	REC_WORD	1981817	wordpools/wasnorm_wordpool_576.txt	LTP379	ltpFR2	10	4	DENIM	446	n/a	n/a	0	0	0
969.85400390625	n/a	REC_WORD	1986261	wordpools/wasnorm_wordpool_576.txt	LTP379	ltpFR2	10	4	QUEEN	1149	n/a	n/a	0	0	0
971.01025390625	n/a	REC_WORD	1988629	wordpools/wasnorm_wordpool_576.txt	LTP379	ltpFR2	10	4	FLASHLIGHT	575	n/a	n/a	0	0	0
972.40380859375	n/a	REC_WORD	1991483	wordpools/wasnorm_wordpool_576.txt	LTP379	ltpFR2	10	4	LASER	801	n/a	n/a	0	0	0
974.23193359375	n/a	REC_WORD	1995227	wordpools/wasnorm_wordpool_576.txt	LTP379	ltpFR2	10	4	FRAGRANCE	599	n/a	n/a	0	0	0
975.65673828125	n/a	REC_WORD	1998145	wordpools/wasnorm_wordpool_576.txt	LTP379	ltpFR2	10	4	GARLIC	624	n/a	n/a	0	0	0
976.78173828125	n/a	REC_WORD	2000449	wordpools/wasnorm_wordpool_576.txt	LTP379	ltpFR2	10	4	SHORTS	1293	n/a	n/a	0	0	0
979.83056640625	n/a	REC_WORD	2006693	wordpools/wasnorm_wordpool_576.txt	LTP379	ltpFR2	10	4	ATLAS	53	n/a	n/a	0	0	0
981.4755859375	n/a	REC_WORD	2010062	wordpools/wasnorm_wordpool_576.txt	LTP379	ltpFR2	10	4	LETTUCE	814	n/a	n/a	0	0	0
982.880859375	n/a	REC_WORD	2012940	wordpools/wasnorm_wordpool_576.txt	LTP379	ltpFR2	10	4	JUGGLER	763	n/a	n/a	0	0	0
983.98779296875	n/a	REC_WORD	2015207	wordpools/wasnorm_wordpool_576.txt	LTP379	ltpFR2	10	4	HARP	689	n/a	n/a	0	0	0
985.37255859375	n/a	REC_WORD	2018043	wordpools/wasnorm_wordpool_576.txt	LTP379	ltpFR2	10	4	TOMBSTONE	1478	n/a	n/a	0	0	0
986.76171875	n/a	REC_WORD	2020888	wordpools/wasnorm_wordpool_576.txt	LTP379	ltpFR2	10	4	GRILL	661	n/a	n/a	0	0	0
988.03173828125	n/a	REC_WORD	2023489	wordpools/wasnorm_wordpool_576.txt	LTP379	ltpFR2	10	4	CHEMIST	292	n/a	n/a	0	0	0
989.3095703125	n/a	REC_WORD	2026106	wordpools/wasnorm_wordpool_576.txt	LTP379	ltpFR2	10	4	PIZZA	1079	n/a	n/a	0	0	0
990.61865234375	n/a	REC_WORD	2028787	wordpools/wasnorm_wordpool_576.txt	LTP379	ltpFR2	10	4	SIBLING	1301	n/a	n/a	0	0	0
991.9794921875	n/a	REC_WORD	2031574	wordpools/wasnorm_wordpool_576.txt	LTP379	ltpFR2	10	4	EGYPT	519	n/a	n/a	0	0	0
993.09521484375	n/a	REC_WORD	2033859	wordpools/wasnorm_wordpool_576.txt	LTP379	ltpFR2	10	4	RIVER	1194	n/a	n/a	0	0	0
1046.90185546875	n/a	WORD	2144055	wordpools/wasnorm_wordpool_576.txt	LTP379	ltpFR2	10	5	JURY	766	n/a	n/a	0	0	0
1049.48486328125	n/a	WORD	2149345	wordpools/wasnorm_wordpool_576.txt	LTP379	ltpFR2	10	5	SPACE	1345	n/a	n/a	0	0	0
1051.91748046875	n/a	WORD	2154327	wordpools/wasnorm_wordpool_576.txt	LTP379	ltpFR2	10	5	STAR	1373	n/a	n/a	0	0	0
1054.70166015625	n/a	WORD	2160029	wordpools/wasnorm_wordpool_576.txt	LTP379	ltpFR2	10	5	BUCKET	184	n/a	n/a	0	0	0
1057.13427734375	n/a	WORD	2165011	wordpools/wasnorm_wordpool_576.txt	LTP379	ltpFR2	10	5	CRITIC	410	n/a	n/a	0	0	0
1059.5673828125	n/a	WORD	2169994	wordpools/wasnorm_wordpool_576.txt	LTP379	ltpFR2	10	5	BARREL	91	n/a	n/a	0	0	0
1062.2001953125	n/a	WORD	2175386	wordpools/wasnorm_wordpool_576.txt	LTP379	ltpFR2	10	5	PUPIL	1143	n/a	n/a	0	0	0
1064.833984375	n/a	WORD	2180780	wordpools/wasnorm_wordpool_576.txt	LTP379	ltpFR2	10	5	FIDDLE	561	n/a	n/a	0	0	0
1067.2841796875	n/a	WORD	2185798	wordpools/wasnorm_wordpool_576.txt	LTP379	ltpFR2	10	5	REBEL	1172	n/a	n/a	0	0	0
1069.8671875	n/a	WORD	2191088	wordpools/wasnorm_wordpool_576.txt	LTP379	ltpFR2	10	5	LION	827	n/a	n/a	0	0	0
1072.6337890625	n/a	WORD	2196754	wordpools/wasnorm_wordpool_576.txt	LTP379	ltpFR2	10	5	AIRPORT	13	n/a	n/a	0	0	0
1075.36669921875	n/a	WORD	2202351	wordpools/wasnorm_wordpool_576.txt	LTP379	ltpFR2	10	5	BUNNY	198	n/a	n/a	0	0	0
1078.083984375	n/a	WORD	2207916	wordpools/wasnorm_wordpool_576.txt	LTP379	ltpFR2	10	5	OUTDOORS	987	n/a	n/a	0	0	0
1080.78369140625	n/a	WORD	2213445	wordpools/wasnorm_wordpool_576.txt	LTP379	ltpFR2	10	5	SCRIBBLE	1256	n/a	n/a	0	0	0
1083.3994140625	n/a	WORD	2218802	wordpools/wasnorm_wordpool_576.txt	LTP379	ltpFR2	10	5	BRIEFCASE	175	n/a	n/a	0	0	0
1086.06640625	n/a	WORD	2224264	wordpools/wasnorm_wordpool_576.txt	LTP379	ltpFR2	10	5	YOLK	1633	n/a	n/a	0	0	0
1088.58251953125	n/a	WORD	2229417	wordpools/wasnorm_wordpool_576.txt	LTP379	ltpFR2	10	5	LABEL	790	n/a	n/a	0	0	0
1091.06640625	n/a	WORD	2234504	wordpools/wasnorm_wordpool_576.txt	LTP379	ltpFR2	10	5	BLADE	134	n/a	n/a	0	0	0
1093.5322265625	n/a	WORD	2239554	wordpools/wasnorm_wordpool_576.txt	LTP379	ltpFR2	10	5	CELLAR	267	n/a	n/a	0	0	0
1096.166015625	n/a	WORD	2244948	wordpools/wasnorm_wordpool_576.txt	LTP379	ltpFR2	10	5	SERVER	1272	n/a	n/a	0	0	0
1098.84912109375	n/a	WORD	2250443	wordpools/wasnorm_wordpool_576.txt	LTP379	ltpFR2	10	5	HOSTESS	723	n/a	n/a	0	0	0
1101.6318359375	n/a	WORD	2256142	wordpools/wasnorm_wordpool_576.txt	LTP379	ltpFR2	10	5	PIANO	1057	n/a	n/a	0	0	0
1104.1318359375	n/a	WORD	2261262	wordpools/wasnorm_wordpool_576.txt	LTP379	ltpFR2	10	5	SCOTCH	1251	n/a	n/a	0	0	0
1106.7490234375	n/a	WORD	2266622	wordpools/wasnorm_wordpool_576.txt	LTP379	ltpFR2	10	5	CHAMPAGNE	278	n/a	n/a	0	0	0
1108.36572265625	n/a	START	2269933	n/a	LTP379	ltpFR2	10	n/a	n/a	n/a	8	n/a	n/a	n/a	n/a
1109.44482421875	n/a	DISTRACTOR	2272143	n/a	LTP379	ltpFR2	10	5	n/a	n/a	n/a	n/a	0	0	0
1109.44873046875	n/a	PROB	2272151	n/a	LTP379	ltpFR2	10	n/a	n/a	n/a	8	19	9	6	4
1111.53173828125	n/a	PROB	2276417	n/a	LTP379	ltpFR2	10	n/a	n/a	n/a	8	12	9	2	1
1113.69873046875	n/a	PROB	2280855	n/a	LTP379	ltpFR2	10	n/a	n/a	n/a	8	17	8	8	1
1114.931640625	n/a	PROB	2283380	n/a	LTP379	ltpFR2	10	n/a	n/a	n/a	8	16	6	2	8
1116.0986328125	n/a	PROB	2285770	n/a	LTP379	ltpFR2	10	n/a	n/a	n/a	8	17	2	7	8
1118.7646484375	n/a	PROB	2291230	n/a	LTP379	ltpFR2	10	n/a	n/a	n/a	8	16	7	4	5
1120.53125	n/a	PROB	2294848	n/a	LTP379	ltpFR2	10	n/a	n/a	n/a	8	19	5	6	8
1122.16455078125	n/a	PROB	2298193	n/a	LTP379	ltpFR2	10	n/a	n/a	n/a	8	15	1	7	7
1123.314453125	n/a	PROB	2300548	n/a	LTP379	ltpFR2	10	n/a	n/a	n/a	8	17	4	5	8
1124.76416015625	n/a	PROB	2303517	n/a	LTP379	ltpFR2	10	n/a	n/a	n/a	8	17	9	6	2
1126.78125	n/a	PROB	2307648	n/a	LTP379	ltpFR2	10	n/a	n/a	n/a	8	23	9	5	9
1128.6474609375	n/a	PROB	2311470	n/a	LTP379	ltpFR2	10	n/a	n/a	n/a	8	11	2	4	5
1129.88134765625	n/a	PROB	2313997	n/a	LTP379	ltpFR2	10	n/a	n/a	n/a	8	18	4	5	9
1131.1142578125	n/a	STOP	2316522	n/a	LTP379	ltpFR2	10	n/a	n/a	n/a	8	n/a	n/a	n/a	n/a
1134.18115234375	n/a	REC_START	2322803	n/a	LTP379	ltpFR2	10	5	n/a	n/a	n/a	n/a	0	0	0
1140.84765625	n/a	REC_WORD	2336456	wordpools/wasnorm_wordpool_576.txt	LTP379	ltpFR2	10	5	JURY	766	n/a	n/a	0	0	0
1141.794921875	n/a	REC_WORD	2338396	wordpools/wasnorm_wordpool_576.txt	LTP379	ltpFR2	10	5	SPACE	1345	n/a	n/a	0	0	0
1143.017578125	n/a	REC_WORD	2340900	wordpools/wasnorm_wordpool_576.txt	LTP379	ltpFR2	10	5	STAR	1373	n/a	n/a	0	0	0
1144.51171875	n/a	REC_WORD	2343960	wordpools/wasnorm_wordpool_576.txt	LTP379	ltpFR2	10	5	BUCKET	184	n/a	n/a	0	0	0
1145.7568359375	n/a	REC_WORD	2346510	wordpools/wasnorm_wordpool_576.txt	LTP379	ltpFR2	10	5	CRITIC	410	n/a	n/a	0	0	0
1147.189453125	n/a	REC_WORD	2349444	wordpools/wasnorm_wordpool_576.txt	LTP379	ltpFR2	10	5	BARREL	91	n/a	n/a	0	0	0
1148.560546875	n/a	REC_WORD	2352252	wordpools/wasnorm_wordpool_576.txt	LTP379	ltpFR2	10	5	PUPIL	1143	n/a	n/a	0	0	0
1149.87353515625	n/a	REC_WORD	2354941	wordpools/wasnorm_wordpool_576.txt	LTP379	ltpFR2	10	5	FIDDLE	561	n/a	n/a	0	0	0
1151.20751953125	n/a	REC_WORD	2357673	wordpools/wasnorm_wordpool_576.txt	LTP379	ltpFR2	10	5	REBEL	1172	n/a	n/a	0	0	0
1152.50244140625	n/a	REC_WORD	2360325	wordpools/wasnorm_wordpool_576.txt	LTP379	ltpFR2	10	5	LION	827	n/a	n/a	0	0	0
1153.79345703125	n/a	REC_WORD	2362969	wordpools/wasnorm_wordpool_576.txt	LTP379	ltpFR2	10	5	AIRPORT	13	n/a	n/a	0	0	0
1155.17822265625	n/a	REC_WORD	2365805	wordpools/wasnorm_wordpool_576.txt	LTP379	ltpFR2	10	5	BUNNY	198	n/a	n/a	0	0	0
1156.34716796875	n/a	REC_WORD	2368199	wordpools/wasnorm_wordpool_576.txt	LTP379	ltpFR2	10	5	OUTDOORS	987	n/a	n/a	0	0	0
1157.7021484375	n/a	REC_WORD	2370974	wordpools/wasnorm_wordpool_576.txt	LTP379	ltpFR2	10	5	SCRIBBLE	1256	n/a	n/a	0	0	0
1159.30810546875	n/a	REC_WORD	2374263	wordpools/wasnorm_wordpool_576.txt	LTP379	ltpFR2	10	5	BRIEFCASE	175	n/a	n/a	0	0	0
1160.42333984375	n/a	REC_WORD	2376547	wordpools/wasnorm_wordpool_576.txt	LTP379	ltpFR2	10	5	YOLK	1633	n/a	n/a	0	0	0
1161.5634765625	n/a	REC_WORD	2378882	wordpools/wasnorm_wordpool_576.txt	LTP379	ltpFR2	10	5	LABEL	790	n/a	n/a	0	0	0
1162.89404296875	n/a	REC_WORD	2381607	wordpools/wasnorm_wordpool_576.txt	LTP379	ltpFR2	10	5	BLADE	134	n/a	n/a	0	0	0
1163.8701171875	n/a	REC_WORD	2383606	wordpools/wasnorm_wordpool_576.txt	LTP379	ltpFR2	10	5	CELLAR	267	n/a	n/a	0	0	0
1165.109375	n/a	REC_WORD	2386144	wordpools/wasnorm_wordpool_576.txt	LTP379	ltpFR2	10	5	SERVER	1272	n/a	n/a	0	0	0
1166.546875	n/a	REC_WORD	2389088	wordpools/wasnorm_wordpool_576.txt	LTP379	ltpFR2	10	5	HOSTESS	723	n/a	n/a	0	0	0
1167.88720703125	n/a	REC_WORD	2391833	wordpools/wasnorm_wordpool_576.txt	LTP379	ltpFR2	10	5	PIANO	1057	n/a	n/a	0	0	0
1169.06884765625	n/a	REC_WORD	2394253	wordpools/wasnorm_wordpool_576.txt	LTP379	ltpFR2	10	5	SCOTCH	1251	n/a	n/a	0	0	0
1170.10888671875	n/a	REC_WORD	2396383	wordpools/wasnorm_wordpool_576.txt	LTP379	ltpFR2	10	5	CHAMPAGNE	278	n/a	n/a	0	0	0
1224.62646484375	n/a	DISTRACTOR	2508035	n/a	LTP379	ltpFR2	10	6	n/a	n/a	n/a	n/a	0	0	0
1224.62646484375	n/a	START	2508035	n/a	LTP379	ltpFR2	10	n/a	n/a	n/a	9	n/a	n/a	n/a	n/a
1224.6435546875	n/a	PROB	2508070	n/a	LTP379	ltpFR2	10	n/a	n/a	n/a	9	12	8	3	1
1226.26025390625	n/a	PROB	2511381	n/a	LTP379	ltpFR2	10	n/a	n/a	n/a	9	16	9	2	5
1227.54345703125	n/a	PROB	2514009	n/a	LTP379	ltpFR2	10	n/a	n/a	n/a	9	14	2	9	3
1229.5263671875	n/a	PROB	2518070	n/a	LTP379	ltpFR2	10	n/a	n/a	n/a	9	5	1	2	2
1230.576171875	n/a	PROB	2520220	n/a	LTP379	ltpFR2	10	n/a	n/a	n/a	9	22	8	9	5
1232.44287109375	n/a	PROB	2524043	n/a	LTP379	ltpFR2	10	n/a	n/a	n/a	9	11	1	3	7
1233.84326171875	n/a	PROB	2526911	n/a	LTP379	ltpFR2	10	n/a	n/a	n/a	9	8	1	1	6
1234.97607421875	n/a	PROB	2529231	n/a	LTP379	ltpFR2	10	n/a	n/a	n/a	9	8	2	2	4
1236.2587890625	n/a	PROB	2531858	n/a	LTP379	ltpFR2	10	n/a	n/a	n/a	9	18	4	6	8
1237.39306640625	n/a	PROB	2534181	n/a	LTP379	ltpFR2	10	n/a	n/a	n/a	9	15	2	4	9
1239.35888671875	n/a	PROB	2538207	n/a	LTP379	ltpFR2	10	n/a	n/a	n/a	9	17	7	1	9
1241.15869140625	n/a	PROB	2541893	n/a	LTP379	ltpFR2	10	n/a	n/a	n/a	9	17	6	7	4
1242.65869140625	n/a	PROB	2544965	n/a	LTP379	ltpFR2	10	n/a	n/a	n/a	9	19	8	6	5
1245.20849609375	n/a	PROB	2550187	n/a	LTP379	ltpFR2	10	n/a	n/a	n/a	9	6	2	2	2
1246.07568359375	n/a	PROB	2551963	n/a	LTP379	ltpFR2	10	n/a	n/a	n/a	9	5	3	1	1
1247.02587890625	n/a	PROB	2553909	n/a	LTP379	ltpFR2	10	n/a	n/a	n/a	9	10	3	6	1
1248.177734375	n/a	STOP	2556268	n/a	LTP379	ltpFR2	10	n/a	n/a	n/a	9	n/a	n/a	n/a	n/a
1249.79150390625	n/a	WORD	2559573	wordpools/wasnorm_wordpool_576.txt	LTP379	ltpFR2	10	6	DRILL	497	n/a	n/a	0	0	0
1252.6083984375	n/a	WORD	2565342	wordpools/wasnorm_wordpool_576.txt	LTP379	ltpFR2	10	6	SMOG	1330	n/a	n/a	0	0	0
1255.2412109375	n/a	WORD	2570734	wordpools/wasnorm_wordpool_576.txt	LTP379	ltpFR2	10	6	BASEMENT	94	n/a	n/a	0	0	0
1257.7412109375	n/a	WORD	2575854	wordpools/wasnorm_wordpool_576.txt	LTP379	ltpFR2	10	6	BREAST	171	n/a	n/a	0	0	0
1260.291015625	n/a	WORD	2581076	wordpools/wasnorm_wordpool_576.txt	LTP379	ltpFR2	10	6	BISON	131	n/a	n/a	0	0	0
1263.041015625	n/a	WORD	2586708	wordpools/wasnorm_wordpool_576.txt	LTP379	ltpFR2	10	6	TABLET	1427	n/a	n/a	0	0	0
1265.67431640625	n/a	WORD	2592101	wordpools/wasnorm_wordpool_576.txt	LTP379	ltpFR2	10	6	MAPLE	866	n/a	n/a	0	0	0
1268.3251953125	n/a	WORD	2597530	wordpools/wasnorm_wordpool_576.txt	LTP379	ltpFR2	10	6	TUNNEL	1519	n/a	n/a	0	0	0
1270.97412109375	n/a	WORD	2602955	wordpools/wasnorm_wordpool_576.txt	LTP379	ltpFR2	10	6	WARDROBE	1587	n/a	n/a	0	0	0
1273.52392578125	n/a	WORD	2608177	wordpools/wasnorm_wordpool_576.txt	LTP379	ltpFR2	10	6	SHRUB	1299	n/a	n/a	0	0	0
1276.3408203125	n/a	WORD	2613946	wordpools/wasnorm_wordpool_576.txt	LTP379	ltpFR2	10	6	HEADBAND	696	n/a	n/a	0	0	0
1278.99072265625	n/a	WORD	2619373	wordpools/wasnorm_wordpool_576.txt	LTP379	ltpFR2	10	6	BELLY	119	n/a	n/a	0	0	0
1281.7236328125	n/a	WORD	2624970	wordpools/wasnorm_wordpool_576.txt	LTP379	ltpFR2	10	6	CREATURE	403	n/a	n/a	0	0	0
1284.1904296875	n/a	WORD	2630022	wordpools/wasnorm_wordpool_576.txt	LTP379	ltpFR2	10	6	LEOPARD	812	n/a	n/a	0	0	0
1286.9736328125	n/a	WORD	2635722	wordpools/wasnorm_wordpool_576.txt	LTP379	ltpFR2	10	6	NECKLACE	940	n/a	n/a	0	0	0
1289.490234375	n/a	WORD	2640876	wordpools/wasnorm_wordpool_576.txt	LTP379	ltpFR2	10	6	JEANS	752	n/a	n/a	0	0	0
1292.04052734375	n/a	WORD	2646099	wordpools/wasnorm_wordpool_576.txt	LTP379	ltpFR2	10	6	MATCH	878	n/a	n/a	0	0	0
1294.7734375	n/a	WORD	2651696	wordpools/wasnorm_wordpool_576.txt	LTP379	ltpFR2	10	6	SWITCH	1422	n/a	n/a	0	0	0
1297.50634765625	n/a	WORD	2657293	wordpools/wasnorm_wordpool_576.txt	LTP379	ltpFR2	10	6	DRESSER	496	n/a	n/a	0	0	0
1299.9560546875	n/a	WORD	2662310	wordpools/wasnorm_wordpool_576.txt	LTP379	ltpFR2	10	6	OX	994	n/a	n/a	0	0	0
1302.505859375	n/a	WORD	2667532	wordpools/wasnorm_wordpool_576.txt	LTP379	ltpFR2	10	6	TRANSPLANT	1496	n/a	n/a	0	0	0
1305.32275390625	n/a	WORD	2673301	wordpools/wasnorm_wordpool_576.txt	LTP379	ltpFR2	10	6	CASKET	255	n/a	n/a	0	0	0
1307.7900390625	n/a	WORD	2678354	wordpools/wasnorm_wordpool_576.txt	LTP379	ltpFR2	10	6	MARSH	874	n/a	n/a	0	0	0
1310.40576171875	n/a	WORD	2683711	wordpools/wasnorm_wordpool_576.txt	LTP379	ltpFR2	10	6	SWAMP	1416	n/a	n/a	0	0	0
1312.0224609375	n/a	START	2687022	n/a	LTP379	ltpFR2	10	n/a	n/a	n/a	10	n/a	n/a	n/a	n/a
1313.07763671875	n/a	DISTRACTOR	2689183	n/a	LTP379	ltpFR2	10	6	n/a	n/a	n/a	n/a	0	0	0
1313.08984375	n/a	PROB	2689208	n/a	LTP379	ltpFR2	10	n/a	n/a	n/a	10	15	5	1	9
1314.47265625	n/a	PROB	2692040	n/a	LTP379	ltpFR2	10	n/a	n/a	n/a	10	18	8	6	4
1316.0224609375	n/a	PROB	2695214	n/a	LTP379	ltpFR2	10	n/a	n/a	n/a	10	15	5	9	1
1317.20556640625	n/a	PROB	2697637	n/a	LTP379	ltpFR2	10	n/a	n/a	n/a	10	15	5	6	4
1318.70556640625	n/a	PROB	2700709	n/a	LTP379	ltpFR2	10	n/a	n/a	n/a	10	17	2	7	8
1320.17236328125	n/a	PROB	2703713	n/a	LTP379	ltpFR2	10	n/a	n/a	n/a	10	10	3	4	3
1321.73828125	n/a	PROB	2706920	n/a	LTP379	ltpFR2	10	n/a	n/a	n/a	10	12	2	6	4
1323.70556640625	n/a	PROB	2710949	n/a	LTP379	ltpFR2	10	n/a	n/a	n/a	10	20	8	4	8
1325.13818359375	n/a	PROB	2713883	n/a	LTP379	ltpFR2	10	n/a	n/a	n/a	10	15	5	5	5
1326.10546875	n/a	PROB	2715864	n/a	LTP379	ltpFR2	10	n/a	n/a	n/a	10	18	5	7	6
1327.48828125	n/a	PROB	2718696	n/a	LTP379	ltpFR2	10	n/a	n/a	n/a	10	18	9	7	2
1329.05517578125	n/a	PROB	2721905	n/a	LTP379	ltpFR2	10	n/a	n/a	n/a	10	16	6	8	2
1330.705078125	n/a	PROB	2725284	n/a	LTP379	ltpFR2	10	n/a	n/a	n/a	10	14	4	5	5
1331.7880859375	n/a	PROB	2727502	n/a	LTP379	ltpFR2	10	n/a	n/a	n/a	10	16	3	7	6
1332.837890625	n/a	PROB	2729652	n/a	LTP379	ltpFR2	10	n/a	n/a	n/a	10	11	2	3	6
1333.97119140625	n/a	PROB	2731973	n/a	LTP379	ltpFR2	10	n/a	n/a	n/a	10	24	9	8	7
1335.97802734375	n/a	STOP	2736083	n/a	LTP379	ltpFR2	10	n/a	n/a	n/a	10	n/a	n/a	n/a	n/a
1337.8720703125	n/a	REC_START	2739962	n/a	LTP379	ltpFR2	10	6	n/a	n/a	n/a	n/a	0	0	0
1340.60302734375	n/a	REC_WORD	2745555	wordpools/wasnorm_wordpool_576.txt	LTP379	ltpFR2	10	6	DRILL	497	n/a	n/a	0	0	0
1341.70263671875	n/a	REC_WORD	2747807	wordpools/wasnorm_wordpool_576.txt	LTP379	ltpFR2	10	6	SMOG	1330	n/a	n/a	0	0	0
1343.15771484375	n/a	REC_WORD	2750787	wordpools/wasnorm_wordpool_576.txt	LTP379	ltpFR2	10	6	BASEMENT	94	n/a	n/a	0	0	0
1344.513671875	n/a	REC_WORD	2753564	wordpools/wasnorm_wordpool_576.txt	LTP379	ltpFR2	10	6	BREAST	171	n/a	n/a	0	0	0
1345.8486328125	n/a	REC_WORD	2756298	wordpools/wasnorm_wordpool_576.txt	LTP379	ltpFR2	10	6	BISON	131	n/a	n/a	0	0	0
1347.03857421875	n/a	REC_WORD	2758735	wordpools/wasnorm_wordpool_576.txt	LTP379	ltpFR2	10	6	TABLET	1427	n/a	n/a	0	0	0
1348.32275390625	n/a	REC_WORD	2761365	wordpools/wasnorm_wordpool_576.txt	LTP379	ltpFR2	10	6	MAPLE	866	n/a	n/a	0	0	0
1349.6025390625	n/a	REC_WORD	2763986	wordpools/wasnorm_wordpool_576.txt	LTP379	ltpFR2	10	6	TUNNEL	1519	n/a	n/a	0	0	0
1351.08056640625	n/a	REC_WORD	2767013	wordpools/wasnorm_wordpool_576.txt	LTP379	ltpFR2	10	6	WARDROBE	1587	n/a	n/a	0	0	0
1352.16943359375	n/a	REC_WORD	2769243	wordpools/wasnorm_wordpool_576.txt	LTP379	ltpFR2	10	6	SHRUB	1299	n/a	n/a	0	0	0
1353.6162109375	n/a	REC_WORD	2772206	wordpools/wasnorm_wordpool_576.txt	LTP379	ltpFR2	10	6	HEADBAND	696	n/a	n/a	0	0	0
1355.0205078125	n/a	REC_WORD	2775082	wordpools/wasnorm_wordpool_576.txt	LTP379	ltpFR2	10	6	BELLY	119	n/a	n/a	0	0	0
1356.068359375	n/a	REC_WORD	2777228	wordpools/wasnorm_wordpool_576.txt	LTP379	ltpFR2	10	6	LEOPARD	812	n/a	n/a	0	0	0
1357.21142578125	n/a	REC_WORD	2779569	wordpools/wasnorm_wordpool_576.txt	LTP379	ltpFR2	10	6	NECKLACE	940	n/a	n/a	0	0	0
1358.5625	n/a	REC_WORD	2782336	wordpools/wasnorm_wordpool_576.txt	LTP379	ltpFR2	10	6	JEANS	752	n/a	n/a	0	0	0
1361.22119140625	n/a	REC_WORD	2787781	wordpools/wasnorm_wordpool_576.txt	LTP379	ltpFR2	10	6	MATCH	878	n/a	n/a	0	0	0
1362.251953125	n/a	REC_WORD	2789892	wordpools/wasnorm_wordpool_576.txt	LTP379	ltpFR2	10	6	SWITCH	1422	n/a	n/a	0	0	0
1363.6103515625	n/a	REC_WORD	2792674	wordpools/wasnorm_wordpool_576.txt	LTP379	ltpFR2	10	6	DRESSER	496	n/a	n/a	0	0	0
1365.13427734375	n/a	REC_WORD	2795795	wordpools/wasnorm_wordpool_576.txt	LTP379	ltpFR2	10	6	OX	994	n/a	n/a	0	0	0
1381.12060546875	n/a	REC_WORD	2828535	wordpools/wasnorm_wordpool_576.txt	LTP379	ltpFR2	10	6	TRANSPLANT	1496	n/a	n/a	0	0	0
1382.82958984375	n/a	REC_WORD	2832035	wordpools/wasnorm_wordpool_576.txt	LTP379	ltpFR2	10	6	CASKET	255	n/a	n/a	0	0	0
1384.142578125	n/a	REC_WORD	2834724	wordpools/wasnorm_wordpool_576.txt	LTP379	ltpFR2	10	6	MARSH	874	n/a	n/a	0	0	0
1385.08740234375	n/a	REC_WORD	2836659	wordpools/wasnorm_wordpool_576.txt	LTP379	ltpFR2	10	6	SWAMP	1416	n/a	n/a	0	0	0
1428.3173828125	n/a	DISTRACTOR	2925194	n/a	LTP379	ltpFR2	10	7	n/a	n/a	n/a	n/a	0	0	0
1428.3173828125	n/a	START	2925194	n/a	LTP379	ltpFR2	10	n/a	n/a	n/a	11	n/a	n/a	n/a	n/a
1428.333984375	n/a	PROB	2925228	n/a	LTP379	ltpFR2	10	n/a	n/a	n/a	11	12	1	4	7
1431.0	n/a	PROB	2930688	n/a	LTP379	ltpFR2	10	n/a	n/a	n/a	11	14	2	3	9
1432.2998046875	n/a	PROB	2933350	n/a	LTP379	ltpFR2	10	n/a	n/a	n/a	11	19	7	4	8
1433.68310546875	n/a	PROB	2936183	n/a	LTP379	ltpFR2	10	n/a	n/a	n/a	11	13	1	9	3
1434.75	n/a	PROB	2938368	n/a	LTP379	ltpFR2	10	n/a	n/a	n/a	11	17	6	9	2
1437.23291015625	n/a	PROB	2943453	n/a	LTP379	ltpFR2	10	n/a	n/a	n/a	11	12	4	1	7
1438.9169921875	n/a	PROB	2946902	n/a	LTP379	ltpFR2	10	n/a	n/a	n/a	11	14	1	7	6
1440.78271484375	n/a	PROB	2950723	n/a	LTP379	ltpFR2	10	n/a	n/a	n/a	11	14	9	2	3
1442.599609375	n/a	PROB	2954444	n/a	LTP379	ltpFR2	10	n/a	n/a	n/a	11	11	4	2	5
1443.9326171875	n/a	PROB	2957174	n/a	LTP379	ltpFR2	10	n/a	n/a	n/a	11	18	7	4	7
1445.7666015625	n/a	PROB	2960930	n/a	LTP379	ltpFR2	10	n/a	n/a	n/a	11	17	2	6	9
1447.19970703125	n/a	PROB	2963865	n/a	LTP379	ltpFR2	10	n/a	n/a	n/a	11	16	5	5	6
1448.79931640625	n/a	PROB	2967141	n/a	LTP379	ltpFR2	10	n/a	n/a	n/a	11	16	8	1	7
1450.19970703125	n/a	PROB	2970009	n/a	LTP379	ltpFR2	10	n/a	n/a	n/a	11	11	5	1	5
1451.28125	n/a	STOP	2972224	n/a	LTP379	ltpFR2	10	n/a	n/a	n/a	11	n/a	n/a	n/a	n/a
1453.265625	n/a	WORD	2976288	wordpools/wasnorm_wordpool_576.txt	LTP379	ltpFR2	10	7	CORAL	378	n/a	n/a	0	0	0
1456.0322265625	n/a	WORD	2981954	wordpools/wasnorm_wordpool_576.txt	LTP379	ltpFR2	10	7	TREAT	1501	n/a	n/a	0	0	0
1458.8154296875	n/a	WORD	2987654	wordpools/wasnorm_wordpool_576.txt	LTP379	ltpFR2	10	7	FILM	565	n/a	n/a	0	0	0
1461.56494140625	n/a	WORD	2993285	wordpools/wasnorm_wordpool_576.txt	LTP379	ltpFR2	10	7	HOOK	715	n/a	n/a	0	0	0
1464.04931640625	n/a	WORD	2998373	wordpools/wasnorm_wordpool_576.txt	LTP379	ltpFR2	10	7	WASP	1593	n/a	n/a	0	0	0
1466.83203125	n/a	WORD	3004072	wordpools/wasnorm_wordpool_576.txt	LTP379	ltpFR2	10	7	SWIMMER	1420	n/a	n/a	0	0	0
1469.56494140625	n/a	WORD	3009669	wordpools/wasnorm_wordpool_576.txt	LTP379	ltpFR2	10	7	TWISTER	1530	n/a	n/a	0	0	0
1472.3818359375	n/a	WORD	3015438	wordpools/wasnorm_wordpool_576.txt	LTP379	ltpFR2	10	7	HELMET	702	n/a	n/a	0	0	0
1475.14794921875	n/a	WORD	3021103	wordpools/wasnorm_wordpool_576.txt	LTP379	ltpFR2	10	7	BIKE	125	n/a	n/a	0	0	0
1477.91455078125	n/a	WORD	3026769	wordpools/wasnorm_wordpool_576.txt	LTP379	ltpFR2	10	7	BATHTUB	100	n/a	n/a	0	0	0
1480.66455078125	n/a	WORD	3032401	wordpools/wasnorm_wordpool_576.txt	LTP379	ltpFR2	10	7	PEBBLE	1035	n/a	n/a	0	0	0
1483.33154296875	n/a	WORD	3037863	wordpools/wasnorm_wordpool_576.txt	LTP379	ltpFR2	10	7	SPIDER	1351	n/a	n/a	0	0	0
1485.7646484375	n/a	WORD	3042846	wordpools/wasnorm_wordpool_576.txt	LTP379	ltpFR2	10	7	COCOON	339	n/a	n/a	0	0	0
1488.3642578125	n/a	WORD	3048170	wordpools/wasnorm_wordpool_576.txt	LTP379	ltpFR2	10	7	DANCER	437	n/a	n/a	0	0	0
1490.8974609375	n/a	WORD	3053358	wordpools/wasnorm_wordpool_576.txt	LTP379	ltpFR2	10	7	RADISH	1158	n/a	n/a	0	0	0
1493.4140625	n/a	WORD	3058512	wordpools/wasnorm_wordpool_576.txt	LTP379	ltpFR2	10	7	BLENDER	136	n/a	n/a	0	0	0
1496.06396484375	n/a	WORD	3063939	wordpools/wasnorm_wordpool_576.txt	LTP379	ltpFR2	10	7	EUROPE	541	n/a	n/a	0	0	0
1498.64697265625	n/a	WORD	3069229	wordpools/wasnorm_wordpool_576.txt	LTP379	ltpFR2	10	7	FLAG	573	n/a	n/a	0	0	0
1501.1298828125	n/a	WORD	3074314	wordpools/wasnorm_wordpool_576.txt	LTP379	ltpFR2	10	7	SPONGE	1355	n/a	n/a	0	0	0
1503.69677734375	n/a	WORD	3079571	wordpools/wasnorm_wordpool_576.txt	LTP379	ltpFR2	10	7	GIFT	635	n/a	n/a	0	0	0
1506.3798828125	n/a	WORD	3085066	wordpools/wasnorm_wordpool_576.txt	LTP379	ltpFR2	10	7	WITNESS	1618	n/a	n/a	0	0	0
1508.82958984375	n/a	WORD	3090083	wordpools/wasnorm_wordpool_576.txt	LTP379	ltpFR2	10	7	SNAKE	1333	n/a	n/a	0	0	0
1511.36376953125	n/a	WORD	3095273	wordpools/wasnorm_wordpool_576.txt	LTP379	ltpFR2	10	7	TERMITE	1451	n/a	n/a	0	0	0
1514.0634765625	n/a	WORD	3100802	wordpools/wasnorm_wordpool_576.txt	LTP379	ltpFR2	10	7	OMELET	976	n/a	n/a	0	0	0
1515.6796875	n/a	START	3104112	n/a	LTP379	ltpFR2	10	n/a	n/a	n/a	12	n/a	n/a	n/a	n/a
1516.7314453125	n/a	DISTRACTOR	3106266	n/a	LTP379	ltpFR2	10	7	n/a	n/a	n/a	n/a	0	0	0
1516.74658203125	n/a	PROB	3106297	n/a	LTP379	ltpFR2	10	n/a	n/a	n/a	12	11	2	5	4
1519.529296875	n/a	PROB	3111996	n/a	LTP379	ltpFR2	10	n/a	n/a	n/a	12	17	5	9	3
1521.396484375	n/a	PROB	3115820	n/a	LTP379	ltpFR2	10	n/a	n/a	n/a	12	10	1	3	6
1522.8623046875	n/a	PROB	3118822	n/a	LTP379	ltpFR2	10	n/a	n/a	n/a	12	17	1	7	9
1524.59619140625	n/a	PROB	3122373	n/a	LTP379	ltpFR2	10	n/a	n/a	n/a	12	8	3	4	1
1525.8291015625	n/a	PROB	3124898	n/a	LTP379	ltpFR2	10	n/a	n/a	n/a	12	12	1	5	6
1527.4462890625	n/a	PROB	3128210	n/a	LTP379	ltpFR2	10	n/a	n/a	n/a	12	16	3	8	5
1528.72900390625	n/a	PROB	3130837	n/a	LTP379	ltpFR2	10	n/a	n/a	n/a	12	9	4	3	2
1530.42919921875	n/a	PROB	3134319	n/a	LTP379	ltpFR2	10	n/a	n/a	n/a	12	21	6	9	6
1531.8291015625	n/a	PROB	3137186	n/a	LTP379	ltpFR2	10	n/a	n/a	n/a	12	15	2	5	8
1533.662109375	n/a	PROB	3140940	n/a	LTP379	ltpFR2	10	n/a	n/a	n/a	12	8	1	5	2
1535.6787109375	n/a	PROB	3145070	n/a	LTP379	ltpFR2	10	n/a	n/a	n/a	12	9	1	1	7
1536.72900390625	n/a	PROB	3147221	n/a	LTP379	ltpFR2	10	n/a	n/a	n/a	12	15	1	8	6
1538.19384765625	n/a	STOP	3150221	n/a	LTP379	ltpFR2	10	n/a	n/a	n/a	12	n/a	n/a	n/a	n/a
1541.595703125	n/a	REC_START	3157188	n/a	LTP379	ltpFR2	10	7	n/a	n/a	n/a	n/a	0	0	0
1545.8408203125	n/a	REC_WORD	3165882	wordpools/wasnorm_wordpool_576.txt	LTP379	ltpFR2	10	7	CORAL	378	n/a	n/a	0	0	0
1547.12060546875	n/a	REC_WORD	3168503	wordpools/wasnorm_wordpool_576.txt	LTP379	ltpFR2	10	7	TREAT	1501	n/a	n/a	0	0	0
1548.5693359375	n/a	REC_WORD	3171470	wordpools/wasnorm_wordpool_576.txt	LTP379	ltpFR2	10	7	FILM	565	n/a	n/a	0	0	0
1565.533203125	n/a	REC_WORD	3206212	wordpools/wasnorm_wordpool_576.txt	LTP379	ltpFR2	10	7	SWIMMER	1420	n/a	n/a	0	0	0
1566.8291015625	n/a	REC_WORD	3208866	wordpools/wasnorm_wordpool_576.txt	LTP379	ltpFR2	10	7	TWISTER	1530	n/a	n/a	0	0	0
1568.0087890625	n/a	REC_WORD	3211282	wordpools/wasnorm_wordpool_576.txt	LTP379	ltpFR2	10	7	HELMET	702	n/a	n/a	0	0	0
1569.43408203125	n/a	REC_WORD	3214201	wordpools/wasnorm_wordpool_576.txt	LTP379	ltpFR2	10	7	BIKE	125	n/a	n/a	0	0	0
1571.93701171875	n/a	REC_WORD	3219327	wordpools/wasnorm_wordpool_576.txt	LTP379	ltpFR2	10	7	BATHTUB	100	n/a	n/a	0	0	0
1573.2197265625	n/a	REC_WORD	3221954	wordpools/wasnorm_wordpool_576.txt	LTP379	ltpFR2	10	7	PEBBLE	1035	n/a	n/a	0	0	0
1574.29296875	n/a	REC_WORD	3224152	wordpools/wasnorm_wordpool_576.txt	LTP379	ltpFR2	10	7	SPIDER	1351	n/a	n/a	0	0	0
1575.52783203125	n/a	REC_WORD	3226681	wordpools/wasnorm_wordpool_576.txt	LTP379	ltpFR2	10	7	COCOON	339	n/a	n/a	0	0	0
1576.95068359375	n/a	REC_WORD	3229595	wordpools/wasnorm_wordpool_576.txt	LTP379	ltpFR2	10	7	DANCER	437	n/a	n/a	0	0	0
1578.048828125	n/a	REC_WORD	3231844	wordpools/wasnorm_wordpool_576.txt	LTP379	ltpFR2	10	7	RADISH	1158	n/a	n/a	0	0	0
1579.36767578125	n/a	REC_WORD	3234545	wordpools/wasnorm_wordpool_576.txt	LTP379	ltpFR2	10	7	BLENDER	136	n/a	n/a	0	0	0
1580.5107421875	n/a	REC_WORD	3236886	wordpools/wasnorm_wordpool_576.txt	LTP379	ltpFR2	10	7	EUROPE	541	n/a	n/a	0	0	0
1581.6552734375	n/a	REC_WORD	3239230	wordpools/wasnorm_wordpool_576.txt	LTP379	ltpFR2	10	7	FLAG	573	n/a	n/a	0	0	0
1582.99365234375	n/a	REC_WORD	3241971	wordpools/wasnorm_wordpool_576.txt	LTP379	ltpFR2	10	7	SPONGE	1355	n/a	n/a	0	0	0
1584.478515625	n/a	REC_WORD	3245012	wordpools/wasnorm_wordpool_576.txt	LTP379	ltpFR2	10	7	GIFT	635	n/a	n/a	0	0	0
1585.67138671875	n/a	REC_WORD	3247455	wordpools/wasnorm_wordpool_576.txt	LTP379	ltpFR2	10	7	SNAKE	1333	n/a	n/a	0	0	0
1587.201171875	n/a	REC_WORD	3250588	wordpools/wasnorm_wordpool_576.txt	LTP379	ltpFR2	10	7	TERMITE	1451	n/a	n/a	0	0	0
1588.490234375	n/a	REC_WORD	3253228	wordpools/wasnorm_wordpool_576.txt	LTP379	ltpFR2	10	7	OMELET	976	n/a	n/a	0	0	0
1632.02392578125	n/a	DISTRACTOR	3342385	n/a	LTP379	ltpFR2	10	8	n/a	n/a	n/a	n/a	0	0	0
1632.02392578125	n/a	START	3342385	n/a	LTP379	ltpFR2	10	n/a	n/a	n/a	13	n/a	n/a	n/a	n/a
1632.041015625	n/a	PROB	3342420	n/a	LTP379	ltpFR2	10	n/a	n/a	n/a	13	18	9	5	4
1633.6240234375	n/a	PROB	3345662	n/a	LTP379	ltpFR2	10	n/a	n/a	n/a	13	18	9	8	1
1634.791015625	n/a	PROB	3348052	n/a	LTP379	ltpFR2	10	n/a	n/a	n/a	13	20	3	9	8
1636.02392578125	n/a	PROB	3350577	n/a	LTP379	ltpFR2	10	n/a	n/a	n/a	13	9	4	3	2
1637.57373046875	n/a	PROB	3353751	n/a	LTP379	ltpFR2	10	n/a	n/a	n/a	13	18	5	8	5
1638.74072265625	n/a	PROB	3356141	n/a	LTP379	ltpFR2	10	n/a	n/a	n/a	13	9	1	4	4
1639.82373046875	n/a	PROB	3358359	n/a	LTP379	ltpFR2	10	n/a	n/a	n/a	13	15	2	8	5
1640.94091796875	n/a	PROB	3360647	n/a	LTP379	ltpFR2	10	n/a	n/a	n/a	13	18	8	3	7
1642.29052734375	n/a	PROB	3363411	n/a	LTP379	ltpFR2	10	n/a	n/a	n/a	13	13	2	6	5
1644.82373046875	n/a	PROB	3368599	n/a	LTP379	ltpFR2	10	n/a	n/a	n/a	13	12	5	3	4
1646.17333984375	n/a	PROB	3371363	n/a	LTP379	ltpFR2	10	n/a	n/a	n/a	13	9	2	6	1
1647.25634765625	n/a	PROB	3373581	n/a	LTP379	ltpFR2	10	n/a	n/a	n/a	13	12	2	7	3
1648.7236328125	n/a	PROB	3376586	n/a	LTP379	ltpFR2	10	n/a	n/a	n/a	13	18	3	8	7
1650.1904296875	n/a	PROB	3379590	n/a	LTP379	ltpFR2	10	n/a	n/a	n/a	13	20	5	6	9
1651.75634765625	n/a	PROB	3382797	n/a	LTP379	ltpFR2	10	n/a	n/a	n/a	13	15	1	7	7
1652.87353515625	n/a	PROB	3385085	n/a	LTP379	ltpFR2	10	n/a	n/a	n/a	13	23	7	7	9
1654.17333984375	n/a	PROB	3387747	n/a	LTP379	ltpFR2	10	n/a	n/a	n/a	13	6	1	3	2
1655.3134765625	n/a	STOP	3390082	n/a	LTP379	ltpFR2	10	n/a	n/a	n/a	13	n/a	n/a	n/a	n/a
1657.0400390625	n/a	WORD	3393618	wordpools/wasnorm_wordpool_576.txt	LTP379	ltpFR2	10	8	LAGOON	795	n/a	n/a	0	0	0
1659.72314453125	n/a	WORD	3399113	wordpools/wasnorm_wordpool_576.txt	LTP379	ltpFR2	10	8	SWORD	1423	n/a	n/a	0	0	0
1662.3232421875	n/a	WORD	3404438	wordpools/wasnorm_wordpool_576.txt	LTP379	ltpFR2	10	8	VELVET	1555	n/a	n/a	0	0	0
1664.88916015625	n/a	WORD	3409693	wordpools/wasnorm_wordpool_576.txt	LTP379	ltpFR2	10	8	MISTER	901	n/a	n/a	0	0	0
1667.47314453125	n/a	WORD	3414985	wordpools/wasnorm_wordpool_576.txt	LTP379	ltpFR2	10	8	CASHEW	253	n/a	n/a	0	0	0
1670.123046875	n/a	WORD	3420412	wordpools/wasnorm_wordpool_576.txt	LTP379	ltpFR2	10	8	LIGHTNING	820	n/a	n/a	0	0	0
1672.5556640625	n/a	WORD	3425394	wordpools/wasnorm_wordpool_576.txt	LTP379	ltpFR2	10	8	MILK	895	n/a	n/a	0	0	0
1675.3388671875	n/a	WORD	3431094	wordpools/wasnorm_wordpool_576.txt	LTP379	ltpFR2	10	8	CATTLE	261	n/a	n/a	0	0	0
1678.08837890625	n/a	WORD	3436725	wordpools/wasnorm_wordpool_576.txt	LTP379	ltpFR2	10	8	MARKET	871	n/a	n/a	0	0	0
1680.92138671875	n/a	WORD	3442527	wordpools/wasnorm_wordpool_576.txt	LTP379	ltpFR2	10	8	COCKTAIL	338	n/a	n/a	0	0	0
1683.42138671875	n/a	WORD	3447647	wordpools/wasnorm_wordpool_576.txt	LTP379	ltpFR2	10	8	PERCH	1048	n/a	n/a	0	0	0
1686.10546875	n/a	WORD	3453144	wordpools/wasnorm_wordpool_576.txt	LTP379	ltpFR2	10	8	PADDING	999	n/a	n/a	0	0	0
1688.92138671875	n/a	WORD	3458911	wordpools/wasnorm_wordpool_576.txt	LTP379	ltpFR2	10	8	BANK	83	n/a	n/a	0	0	0
1691.60498046875	n/a	WORD	3464407	wordpools/wasnorm_wordpool_576.txt	LTP379	ltpFR2	10	8	KEEPER	769	n/a	n/a	0	0	0
1694.2880859375	n/a	WORD	3469902	wordpools/wasnorm_wordpool_576.txt	LTP379	ltpFR2	10	8	SPOON	1357	n/a	n/a	0	0	0
1696.85400390625	n/a	WORD	3475157	wordpools/wasnorm_wordpool_576.txt	LTP379	ltpFR2	10	8	GIRL	637	n/a	n/a	0	0	0
1699.4541015625	n/a	WORD	3480482	wordpools/wasnorm_wordpool_576.txt	LTP379	ltpFR2	10	8	WORLD	1622	n/a	n/a	0	0	0
1702.087890625	n/a	WORD	3485876	wordpools/wasnorm_wordpool_576.txt	LTP379	ltpFR2	10	8	PASSAGE	1019	n/a	n/a	0	0	0
1704.837890625	n/a	WORD	3491508	wordpools/wasnorm_wordpool_576.txt	LTP379	ltpFR2	10	8	FRANCE	601	n/a	n/a	0	0	0
1707.4208984375	n/a	WORD	3496798	wordpools/wasnorm_wordpool_576.txt	LTP379	ltpFR2	10	8	LONDON	843	n/a	n/a	0	0	0
1709.90380859375	n/a	WORD	3501883	wordpools/wasnorm_wordpool_576.txt	LTP379	ltpFR2	10	8	BLOCKADE	137	n/a	n/a	0	0	0
1712.42041015625	n/a	WORD	3507037	wordpools/wasnorm_wordpool_576.txt	LTP379	ltpFR2	10	8	INFANT	737	n/a	n/a	0	0	0
1714.9033203125	n/a	WORD	3512122	wordpools/wasnorm_wordpool_576.txt	LTP379	ltpFR2	10	8	LODGE	839	n/a	n/a	0	0	0
1717.353515625	n/a	WORD	3517140	wordpools/wasnorm_wordpool_576.txt	LTP379	ltpFR2	10	8	PENGUIN	1044	n/a	n/a	0	0	0
1718.97021484375	n/a	START	3520451	n/a	LTP379	ltpFR2	10	n/a	n/a	n/a	14	n/a	n/a	n/a	n/a
1719.94921875	n/a	DISTRACTOR	3522456	n/a	LTP379	ltpFR2	10	8	n/a	n/a	n/a	n/a	0	0	0
1719.953125	n/a	PROB	3522464	n/a	LTP379	ltpFR2	10	n/a	n/a	n/a	14	8	2	4	2
1721.33642578125	n/a	PROB	3525297	n/a	LTP379	ltpFR2	10	n/a	n/a	n/a	14	24	9	6	9
1722.92041015625	n/a	PROB	3528541	n/a	LTP379	ltpFR2	10	n/a	n/a	n/a	14	11	4	5	2
1724.13623046875	n/a	PROB	3531031	n/a	LTP379	ltpFR2	10	n/a	n/a	n/a	14	20	4	8	8
1725.55322265625	n/a	PROB	3533933	n/a	LTP379	ltpFR2	10	n/a	n/a	n/a	14	15	2	6	7
1727.5029296875	n/a	PROB	3537926	n/a	LTP379	ltpFR2	10	n/a	n/a	n/a	14	17	7	8	2
1729.3701171875	n/a	PROB	3541750	n/a	LTP379	ltpFR2	10	n/a	n/a	n/a	14	13	2	6	5
1730.88623046875	n/a	PROB	3544855	n/a	LTP379	ltpFR2	10	n/a	n/a	n/a	14	13	5	4	4
1732.85302734375	n/a	PROB	3548883	n/a	LTP379	ltpFR2	10	n/a	n/a	n/a	14	14	7	5	2
1734.40283203125	n/a	PROB	3552057	n/a	LTP379	ltpFR2	10	n/a	n/a	n/a	14	19	8	5	6
1736.5029296875	n/a	PROB	3556358	n/a	LTP379	ltpFR2	10	n/a	n/a	n/a	14	16	9	2	5
1738.03564453125	n/a	PROB	3559497	n/a	LTP379	ltpFR2	10	n/a	n/a	n/a	14	10	4	1	5
1739.8359375	n/a	PROB	3563184	n/a	LTP379	ltpFR2	10	n/a	n/a	n/a	14	12	4	6	2
1740.98583984375	n/a	PROB	3565539	n/a	LTP379	ltpFR2	10	n/a	n/a	n/a	14	12	5	2	5
1742.08984375	n/a	STOP	3567800	n/a	LTP379	ltpFR2	10	n/a	n/a	n/a	14	n/a	n/a	n/a	n/a
1744.802734375	n/a	REC_START	3573356	n/a	LTP379	ltpFR2	10	8	n/a	n/a	n/a	n/a	0	0	0
1764.98486328125	n/a	REC_WORD	3614689	wordpools/wasnorm_wordpool_576.txt	LTP379	ltpFR2	10	8	LAGOON	795	n/a	n/a	0	0	0
1766.6669921875	n/a	REC_WORD	3618134	wordpools/wasnorm_wordpool_576.txt	LTP379	ltpFR2	10	8	SWORD	1423	n/a	n/a	0	0	0
1768.0146484375	n/a	REC_WORD	3620894	wordpools/wasnorm_wordpool_576.txt	LTP379	ltpFR2	10	8	VELVET	1555	n/a	n/a	0	0	0
1768.97802734375	n/a	REC_WORD	3622867	wordpools/wasnorm_wordpool_576.txt	LTP379	ltpFR2	10	8	MISTER	901	n/a	n/a	0	0	0
1770.19677734375	n/a	REC_WORD	3625363	wordpools/wasnorm_wordpool_576.txt	LTP379	ltpFR2	10	8	CASHEW	253	n/a	n/a	0	0	0
1771.74853515625	n/a	REC_WORD	3628541	wordpools/wasnorm_wordpool_576.txt	LTP379	ltpFR2	10	8	LIGHTNING	820	n/a	n/a	0	0	0
1772.66064453125	n/a	REC_WORD	3630409	wordpools/wasnorm_wordpool_576.txt	LTP379	ltpFR2	10	8	MILK	895	n/a	n/a	0	0	0
1773.70166015625	n/a	REC_WORD	3632541	wordpools/wasnorm_wordpool_576.txt	LTP379	ltpFR2	10	8	CATTLE	261	n/a	n/a	0	0	0
1776.07177734375	n/a	REC_WORD	3637395	wordpools/wasnorm_wordpool_576.txt	LTP379	ltpFR2	10	8	MARKET	871	n/a	n/a	0	0	0
1777.1748046875	n/a	REC_WORD	3639654	wordpools/wasnorm_wordpool_576.txt	LTP379	ltpFR2	10	8	COCKTAIL	338	n/a	n/a	0	0	0
1778.24560546875	n/a	REC_WORD	3641847	wordpools/wasnorm_wordpool_576.txt	LTP379	ltpFR2	10	8	PERCH	1048	n/a	n/a	0	0	0
1779.24560546875	n/a	REC_WORD	3643895	wordpools/wasnorm_wordpool_576.txt	LTP379	ltpFR2	10	8	PADDING	999	n/a	n/a	0	0	0
1780.6064453125	n/a	REC_WORD	3646682	wordpools/wasnorm_wordpool_576.txt	LTP379	ltpFR2	10	8	BANK	83	n/a	n/a	0	0	0
1781.9462890625	n/a	REC_WORD	3649426	wordpools/wasnorm_wordpool_576.txt	LTP379	ltpFR2	10	8	KEEPER	769	n/a	n/a	0	0	0
1782.892578125	n/a	REC_WORD	3651364	wordpools/wasnorm_wordpool_576.txt	LTP379	ltpFR2	10	8	SPOON	1357	n/a	n/a	0	0	0
1784.26416015625	n/a	REC_WORD	3654173	wordpools/wasnorm_wordpool_576.txt	LTP379	ltpFR2	10	8	GIRL	637	n/a	n/a	0	0	0
1785.47509765625	n/a	REC_WORD	3656653	wordpools/wasnorm_wordpool_576.txt	LTP379	ltpFR2	10	8	WORLD	1622	n/a	n/a	0	0	0
1786.53515625	n/a	REC_WORD	3658824	wordpools/wasnorm_wordpool_576.txt	LTP379	ltpFR2	10	8	PASSAGE	1019	n/a	n/a	0	0	0
1787.4873046875	n/a	REC_WORD	3660774	wordpools/wasnorm_wordpool_576.txt	LTP379	ltpFR2	10	8	FRANCE	601	n/a	n/a	0	0	0
1788.55126953125	n/a	REC_WORD	3662953	wordpools/wasnorm_wordpool_576.txt	LTP379	ltpFR2	10	8	LONDON	843	n/a	n/a	0	0	0
1789.5771484375	n/a	REC_WORD	3665054	wordpools/wasnorm_wordpool_576.txt	LTP379	ltpFR2	10	8	BLOCKADE	137	n/a	n/a	0	0	0
1790.9580078125	n/a	REC_WORD	3667882	wordpools/wasnorm_wordpool_576.txt	LTP379	ltpFR2	10	8	INFANT	737	n/a	n/a	0	0	0
1792.18408203125	n/a	REC_WORD	3670393	wordpools/wasnorm_wordpool_576.txt	LTP379	ltpFR2	10	8	LODGE	839	n/a	n/a	0	0	0
1793.34912109375	n/a	REC_WORD	3672779	wordpools/wasnorm_wordpool_576.txt	LTP379	ltpFR2	10	8	PENGUIN	1044	n/a	n/a	0	0	0
1821.34814453125	n/a	REST_REWET	3730121	n/a	LTP379	ltpFR2	10	8	n/a	n/a	n/a	n/a	0	0	0
1880.16259765625	n/a	WORD	3850573	wordpools/wasnorm_wordpool_576.txt	LTP379	ltpFR2	10	9	INMATE	738	n/a	n/a	0	0	0
1882.87939453125	n/a	WORD	3856137	wordpools/wasnorm_wordpool_576.txt	LTP379	ltpFR2	10	9	SNACK	1331	n/a	n/a	0	0	0
1885.3291015625	n/a	WORD	3861154	wordpools/wasnorm_wordpool_576.txt	LTP379	ltpFR2	10	9	DORM	488	n/a	n/a	0	0	0
1888.1123046875	n/a	WORD	3866854	wordpools/wasnorm_wordpool_576.txt	LTP379	ltpFR2	10	9	PLATE	1086	n/a	n/a	0	0	0
1890.67919921875	n/a	WORD	3872111	wordpools/wasnorm_wordpool_576.txt	LTP379	ltpFR2	10	9	MARKER	870	n/a	n/a	0	0	0
1893.162109375	n/a	WORD	3877196	wordpools/wasnorm_wordpool_576.txt	LTP379	ltpFR2	10	9	AGENT	10	n/a	n/a	0	0	0
1895.92919921875	n/a	WORD	3882863	wordpools/wasnorm_wordpool_576.txt	LTP379	ltpFR2	10	9	IGLOO	734	n/a	n/a	0	0	0
1898.61181640625	n/a	WORD	3888357	wordpools/wasnorm_wordpool_576.txt	LTP379	ltpFR2	10	9	BOYFRIEND	162	n/a	n/a	0	0	0
1901.427734375	n/a	WORD	3894124	wordpools/wasnorm_wordpool_576.txt	LTP379	ltpFR2	10	9	ASIA	46	n/a	n/a	0	0	0
1903.89453125	n/a	WORD	3899176	wordpools/wasnorm_wordpool_576.txt	LTP379	ltpFR2	10	9	CAPTIVE	240	n/a	n/a	0	0	0
1906.39453125	n/a	WORD	3904296	wordpools/wasnorm_wordpool_576.txt	LTP379	ltpFR2	10	9	COFFEE	341	n/a	n/a	0	0	0
1908.82763671875	n/a	WORD	3909279	wordpools/wasnorm_wordpool_576.txt	LTP379	ltpFR2	10	9	CUPBOARD	425	n/a	n/a	0	0	0
1911.611328125	n/a	WORD	3914980	wordpools/wasnorm_wordpool_576.txt	LTP379	ltpFR2	10	9	DENTIST	447	n/a	n/a	0	0	0
1914.41162109375	n/a	WORD	3920715	wordpools/wasnorm_wordpool_576.txt	LTP379	ltpFR2	10	9	BEAVER	109	n/a	n/a	0	0	0
1917.1611328125	n/a	WORD	3926346	wordpools/wasnorm_wordpool_576.txt	LTP379	ltpFR2	10	9	CITRUS	313	n/a	n/a	0	0	0
1919.861328125	n/a	WORD	3931876	wordpools/wasnorm_wordpool_576.txt	LTP379	ltpFR2	10	9	PICNIC	1060	n/a	n/a	0	0	0
1922.31005859375	n/a	WORD	3936891	wordpools/wasnorm_wordpool_576.txt	LTP379	ltpFR2	10	9	SUPPER	1411	n/a	n/a	0	0	0
1924.89404296875	n/a	WORD	3942183	wordpools/wasnorm_wordpool_576.txt	LTP379	ltpFR2	10	9	CLAMP	316	n/a	n/a	0	0	0
1927.66015625	n/a	WORD	3947848	wordpools/wasnorm_wordpool_576.txt	LTP379	ltpFR2	10	9	LOFT	840	n/a	n/a	0	0	0
1930.14404296875	n/a	WORD	3952935	wordpools/wasnorm_wordpool_576.txt	LTP379	ltpFR2	10	9	PANTHER	1009	n/a	n/a	0	0	0
1932.7099609375	n/a	WORD	3958190	wordpools/wasnorm_wordpool_576.txt	LTP379	ltpFR2	10	9	DRUG	501	n/a	n/a	0	0	0
1935.27685546875	n/a	WORD	3963447	wordpools/wasnorm_wordpool_576.txt	LTP379	ltpFR2	10	9	ATOM	55	n/a	n/a	0	0	0
1937.9267578125	n/a	WORD	3968874	wordpools/wasnorm_wordpool_576.txt	LTP379	ltpFR2	10	9	CROSS	413	n/a	n/a	0	0	0
1940.70947265625	n/a	WORD	3974573	wordpools/wasnorm_wordpool_576.txt	LTP379	ltpFR2	10	9	DINER	467	n/a	n/a	0	0	0
1942.32666015625	n/a	START	3977885	n/a	LTP379	ltpFR2	10	n/a	n/a	n/a	15	n/a	n/a	n/a	n/a
1943.4013671875	n/a	DISTRACTOR	3980086	n/a	LTP379	ltpFR2	10	9	n/a	n/a	n/a	n/a	0	0	0
1943.40966796875	n/a	PROB	3980103	n/a	LTP379	ltpFR2	10	n/a	n/a	n/a	15	17	8	4	5
1945.95947265625	n/a	PROB	3985325	n/a	LTP379	ltpFR2	10	n/a	n/a	n/a	15	15	3	9	2
1949.37646484375	n/a	PROB	3992323	n/a	LTP379	ltpFR2	10	n/a	n/a	n/a	15	22	4	9	9
1951.17626953125	n/a	PROB	3996009	n/a	LTP379	ltpFR2	10	n/a	n/a	n/a	15	16	4	4	8
1952.37646484375	n/a	PROB	3998467	n/a	LTP379	ltpFR2	10	n/a	n/a	n/a	15	12	9	1	2
1953.50927734375	n/a	PROB	4000787	n/a	LTP379	ltpFR2	10	n/a	n/a	n/a	15	16	7	3	6
1954.67626953125	n/a	PROB	4003177	n/a	LTP379	ltpFR2	10	n/a	n/a	n/a	15	12	6	1	5
1956.17626953125	n/a	PROB	4006249	n/a	LTP379	ltpFR2	10	n/a	n/a	n/a	15	17	7	7	3
1957.80908203125	n/a	PROB	4009593	n/a	LTP379	ltpFR2	10	n/a	n/a	n/a	15	15	5	6	4
1959.09228515625	n/a	PROB	4012221	n/a	LTP379	ltpFR2	10	n/a	n/a	n/a	15	4	1	1	2
1960.1591796875	n/a	PROB	4014406	n/a	LTP379	ltpFR2	10	n/a	n/a	n/a	15	16	3	9	4
1961.5419921875	n/a	PROB	4017238	n/a	LTP379	ltpFR2	10	n/a	n/a	n/a	15	19	4	9	6
1963.2919921875	n/a	PROB	4020822	n/a	LTP379	ltpFR2	10	n/a	n/a	n/a	15	18	7	2	9
1964.591796875	n/a	PROB	4023484	n/a	LTP379	ltpFR2	10	n/a	n/a	n/a	15	18	9	8	1
1965.81689453125	n/a	STOP	4025993	n/a	LTP379	ltpFR2	10	n/a	n/a	n/a	15	n/a	n/a	n/a	n/a
1968.19287109375	n/a	REC_START	4030859	n/a	LTP379	ltpFR2	10	9	n/a	n/a	n/a	n/a	0	0	0
1980.6455078125	n/a	REC_WORD	4056362	wordpools/wasnorm_wordpool_576.txt	LTP379	ltpFR2	10	9	INMATE	738	n/a	n/a	0	0	0
1981.54736328125	n/a	REC_WORD	4058209	wordpools/wasnorm_wordpool_576.txt	LTP379	ltpFR2	10	9	SNACK	1331	n/a	n/a	0	0	0
1982.7802734375	n/a	REC_WORD	4060734	wordpools/wasnorm_wordpool_576.txt	LTP379	ltpFR2	10	9	DORM	488	n/a	n/a	0	0	0
1983.771484375	n/a	REC_WORD	4062764	wordpools/wasnorm_wordpool_576.txt	LTP379	ltpFR2	10	9	PLATE	1086	n/a	n/a	0	0	0
1985.775390625	n/a	REC_WORD	4066868	wordpools/wasnorm_wordpool_576.txt	LTP379	ltpFR2	10	9	MARKER	870	n/a	n/a	0	0	0
1986.986328125	n/a	REC_WORD	4069348	wordpools/wasnorm_wordpool_576.txt	LTP379	ltpFR2	10	9	AGENT	10	n/a	n/a	0	0	0
1988.15234375	n/a	REC_WORD	4071736	wordpools/wasnorm_wordpool_576.txt	LTP379	ltpFR2	10	9	IGLOO	734	n/a	n/a	0	0	0
1989.30712890625	n/a	REC_WORD	4074101	wordpools/wasnorm_wordpool_576.txt	LTP379	ltpFR2	10	9	BOYFRIEND	162	n/a	n/a	0	0	0
1990.4609375	n/a	REC_WORD	4076464	wordpools/wasnorm_wordpool_576.txt	LTP379	ltpFR2	10	9	ASIA	46	n/a	n/a	0	0	0
1991.6279296875	n/a	REC_WORD	4078854	wordpools/wasnorm_wordpool_576.txt	LTP379	ltpFR2	10	9	CAPTIVE	240	n/a	n/a	0	0	0
1995.82373046875	n/a	REC_WORD	4087447	wordpools/wasnorm_wordpool_576.txt	LTP379	ltpFR2	10	9	COFFEE	341	n/a	n/a	0	0	0
1996.87109375	n/a	REC_WORD	4089592	wordpools/wasnorm_wordpool_576.txt	LTP379	ltpFR2	10	9	CUPBOARD	425	n/a	n/a	0	0	0
1998.10009765625	n/a	REC_WORD	4092109	wordpools/wasnorm_wordpool_576.txt	LTP379	ltpFR2	10	9	DENTIST	447	n/a	n/a	0	0	0
1999.36181640625	n/a	REC_WORD	4094693	wordpools/wasnorm_wordpool_576.txt	LTP379	ltpFR2	10	9	BEAVER	109	n/a	n/a	0	0	0
2000.32373046875	n/a	REC_WORD	4096663	wordpools/wasnorm_wordpool_576.txt	LTP379	ltpFR2	10	9	CITRUS	313	n/a	n/a	0	0	0
2005.8466796875	n/a	REC_WORD	4107974	wordpools/wasnorm_wordpool_576.txt	LTP379	ltpFR2	10	9	PICNIC	1060	n/a	n/a	0	0	0
2006.96044921875	n/a	REC_WORD	4110255	wordpools/wasnorm_wordpool_576.txt	LTP379	ltpFR2	10	9	SUPPER	1411	n/a	n/a	0	0	0
2009.5517578125	n/a	REC_WORD	4115562	wordpools/wasnorm_wordpool_576.txt	LTP379	ltpFR2	10	9	CLAMP	316	n/a	n/a	0	0	0
2010.763671875	n/a	REC_WORD	4118044	wordpools/wasnorm_wordpool_576.txt	LTP379	ltpFR2	10	9	LOFT	840	n/a	n/a	0	0	0
2012.0693359375	n/a	REC_WORD	4120718	wordpools/wasnorm_wordpool_576.txt	LTP379	ltpFR2	10	9	PANTHER	1009	n/a	n/a	0	0	0
2014.00048828125	n/a	REC_WORD	4124673	wordpools/wasnorm_wordpool_576.txt	LTP379	ltpFR2	10	9	DRUG	501	n/a	n/a	0	0	0
2015.26025390625	n/a	REC_WORD	4127253	wordpools/wasnorm_wordpool_576.txt	LTP379	ltpFR2	10	9	ATOM	55	n/a	n/a	0	0	0
2016.40625	n/a	REC_WORD	4129600	wordpools/wasnorm_wordpool_576.txt	LTP379	ltpFR2	10	9	CROSS	413	n/a	n/a	0	0	0
2017.779296875	n/a	REC_WORD	4132412	wordpools/wasnorm_wordpool_576.txt	LTP379	ltpFR2	10	9	DINER	467	n/a	n/a	0	0	0
2058.62109375	n/a	DISTRACTOR	4216056	n/a	LTP379	ltpFR2	10	10	n/a	n/a	n/a	n/a	0	0	0
2058.62109375	n/a	START	4216056	n/a	LTP379	ltpFR2	10	n/a	n/a	n/a	16	n/a	n/a	n/a	n/a
2058.63818359375	n/a	PROB	4216091	n/a	LTP379	ltpFR2	10	n/a	n/a	n/a	16	15	5	1	9
2061.88818359375	n/a	PROB	4222747	n/a	LTP379	ltpFR2	10	n/a	n/a	n/a	16	13	3	7	3
2063.10400390625	n/a	PROB	4225237	n/a	LTP379	ltpFR2	10	n/a	n/a	n/a	16	21	8	9	4
2066.3037109375	n/a	PROB	4231790	n/a	LTP379	ltpFR2	10	n/a	n/a	n/a	16	12	7	3	2
2067.52099609375	n/a	PROB	4234283	n/a	LTP379	ltpFR2	10	n/a	n/a	n/a	16	20	4	9	7
2069.25390625	n/a	PROB	4237832	n/a	LTP379	ltpFR2	10	n/a	n/a	n/a	16	14	1	5	8
2077.6533203125	n/a	PROB	4255034	n/a	LTP379	ltpFR2	10	n/a	n/a	n/a	16	13	1	8	4
2079.13623046875	n/a	PROB	4258071	n/a	LTP379	ltpFR2	10	n/a	n/a	n/a	16	15	3	4	8
2082.6201171875	n/a	STOP	4265206	n/a	LTP379	ltpFR2	10	n/a	n/a	n/a	16	n/a	n/a	n/a	n/a
2083.63623046875	n/a	WORD	4267287	wordpools/wasnorm_wordpool_576.txt	LTP379	ltpFR2	10	10	FRIEND	606	n/a	n/a	0	0	0
2086.1201171875	n/a	WORD	4272374	wordpools/wasnorm_wordpool_576.txt	LTP379	ltpFR2	10	10	PARTNER	1017	n/a	n/a	0	0	0
2088.85302734375	n/a	WORD	4277971	wordpools/wasnorm_wordpool_576.txt	LTP379	ltpFR2	10	10	DRAGON	492	n/a	n/a	0	0	0
2091.35302734375	n/a	WORD	4283091	wordpools/wasnorm_wordpool_576.txt	LTP379	ltpFR2	10	10	GANGSTER	620	n/a	n/a	0	0	0
2093.81884765625	n/a	WORD	4288141	wordpools/wasnorm_wordpool_576.txt	LTP379	ltpFR2	10	10	PLAZA	1088	n/a	n/a	0	0	0
2096.31884765625	n/a	WORD	4293261	wordpools/wasnorm_wordpool_576.txt	LTP379	ltpFR2	10	10	ROD	1203	n/a	n/a	0	0	0
2099.03564453125	n/a	WORD	4298825	wordpools/wasnorm_wordpool_576.txt	LTP379	ltpFR2	10	10	ZEBRA	1635	n/a	n/a	0	0	0
2101.6025390625	n/a	WORD	4304082	wordpools/wasnorm_wordpool_576.txt	LTP379	ltpFR2	10	10	BEAKER	104	n/a	n/a	0	0	0
2104.185546875	n/a	WORD	4309372	wordpools/wasnorm_wordpool_576.txt	LTP379	ltpFR2	10	10	MARINE	869	n/a	n/a	0	0	0
2106.8857421875	n/a	WORD	4314902	wordpools/wasnorm_wordpool_576.txt	LTP379	ltpFR2	10	10	LAMP	798	n/a	n/a	0	0	0
2109.58544921875	n/a	WORD	4320431	wordpools/wasnorm_wordpool_576.txt	LTP379	ltpFR2	10	10	BACON	67	n/a	n/a	0	0	0
2112.318359375	n/a	WORD	4326028	wordpools/wasnorm_wordpool_576.txt	LTP379	ltpFR2	10	10	CRIB	407	n/a	n/a	0	0	0
2114.83544921875	n/a	WORD	4331183	wordpools/wasnorm_wordpool_576.txt	LTP379	ltpFR2	10	10	VALLEY	1545	n/a	n/a	0	0	0
2117.318359375	n/a	WORD	4336268	wordpools/wasnorm_wordpool_576.txt	LTP379	ltpFR2	10	10	PRIMATE	1123	n/a	n/a	0	0	0
2119.96826171875	n/a	WORD	4341695	wordpools/wasnorm_wordpool_576.txt	LTP379	ltpFR2	10	10	CARRIAGE	248	n/a	n/a	0	0	0
2122.40087890625	n/a	WORD	4346677	wordpools/wasnorm_wordpool_576.txt	LTP379	ltpFR2	10	10	REPORT	1184	n/a	n/a	0	0	0
2125.15087890625	n/a	WORD	4352309	wordpools/wasnorm_wordpool_576.txt	LTP379	ltpFR2	10	10	NAPKIN	937	n/a	n/a	0	0	0
2127.76806640625	n/a	WORD	4357669	wordpools/wasnorm_wordpool_576.txt	LTP379	ltpFR2	10	10	ROCKET	1202	n/a	n/a	0	0	0
2130.51806640625	n/a	WORD	4363301	wordpools/wasnorm_wordpool_576.txt	LTP379	ltpFR2	10	10	STALLION	1369	n/a	n/a	0	0	0
2133.267578125	n/a	WORD	4368932	wordpools/wasnorm_wordpool_576.txt	LTP379	ltpFR2	10	10	HERO	706	n/a	n/a	0	0	0
2135.8837890625	n/a	WORD	4374290	wordpools/wasnorm_wordpool_576.txt	LTP379	ltpFR2	10	10	DRAWING	494	n/a	n/a	0	0	0
2138.43359375	n/a	WORD	4379512	wordpools/wasnorm_wordpool_576.txt	LTP379	ltpFR2	10	10	ORCHID	982	n/a	n/a	0	0	0
2140.8837890625	n/a	WORD	4384530	wordpools/wasnorm_wordpool_576.txt	LTP379	ltpFR2	10	10	FLUTE	585	n/a	n/a	0	0	0
2143.41748046875	n/a	WORD	4389719	wordpools/wasnorm_wordpool_576.txt	LTP379	ltpFR2	10	10	SEAGULL	1261	n/a	n/a	0	0	0
2145.033203125	n/a	START	4393028	n/a	LTP379	ltpFR2	10	n/a	n/a	n/a	17	n/a	n/a	n/a	n/a
2146.068359375	n/a	DISTRACTOR	4395148	n/a	LTP379	ltpFR2	10	10	n/a	n/a	n/a	n/a	0	0	0
2146.08349609375	n/a	PROB	4395179	n/a	LTP379	ltpFR2	10	n/a	n/a	n/a	17	18	5	6	7
2148.4501953125	n/a	PROB	4400026	n/a	LTP379	ltpFR2	10	n/a	n/a	n/a	17	18	6	8	4
2150.35009765625	n/a	PROB	4403917	n/a	LTP379	ltpFR2	10	n/a	n/a	n/a	17	19	4	7	8
2151.7333984375	n/a	PROB	4406750	n/a	LTP379	ltpFR2	10	n/a	n/a	n/a	17	8	6	1	1
2152.8330078125	n/a	PROB	4409002	n/a	LTP379	ltpFR2	10	n/a	n/a	n/a	17	18	9	6	3
2154.3330078125	n/a	PROB	4412074	n/a	LTP379	ltpFR2	10	n/a	n/a	n/a	17	21	6	8	7
2156.39990234375	n/a	PROB	4416307	n/a	LTP379	ltpFR2	10	n/a	n/a	n/a	17	11	2	8	1
2157.7001953125	n/a	PROB	4418970	n/a	LTP379	ltpFR2	10	n/a	n/a	n/a	17	10	2	5	3
2159.3828125	n/a	PROB	4422416	n/a	LTP379	ltpFR2	10	n/a	n/a	n/a	17	15	3	9	3
2161.166015625	n/a	PROB	4426068	n/a	LTP379	ltpFR2	10	n/a	n/a	n/a	17	10	1	8	1
2162.39990234375	n/a	PROB	4428595	n/a	LTP379	ltpFR2	10	n/a	n/a	n/a	17	7	1	1	5
2163.64892578125	n/a	PROB	4431153	n/a	LTP379	ltpFR2	10	n/a	n/a	n/a	17	16	8	5	3
2169.02490234375	n/a	STOP	4442163	n/a	LTP379	ltpFR2	10	n/a	n/a	n/a	17	n/a	n/a	n/a	n/a
2170.966796875	n/a	REC_START	4446140	n/a	LTP379	ltpFR2	10	10	n/a	n/a	n/a	n/a	0	0	0
2174.111328125	n/a	REC_WORD	4452580	wordpools/wasnorm_wordpool_576.txt	LTP379	ltpFR2	10	10	FRIEND	606	n/a	n/a	0	0	0
2175.15576171875	n/a	REC_WORD	4454719	wordpools/wasnorm_wordpool_576.txt	LTP379	ltpFR2	10	10	PARTNER	1017	n/a	n/a	0	0	0
2176.29345703125	n/a	REC_WORD	4457049	wordpools/wasnorm_wordpool_576.txt	LTP379	ltpFR2	10	10	DRAGON	492	n/a	n/a	0	0	0
2177.45751953125	n/a	REC_WORD	4459433	wordpools/wasnorm_wordpool_576.txt	LTP379	ltpFR2	10	10	PLAZA	1088	n/a	n/a	0	0	0
2178.66455078125	n/a	REC_WORD	4461905	wordpools/wasnorm_wordpool_576.txt	LTP379	ltpFR2	10	10	GANGSTER	620	n/a	n/a	0	0	0
2179.80859375	n/a	REC_WORD	4464248	wordpools/wasnorm_wordpool_576.txt	LTP379	ltpFR2	10	10	ROD	1203	n/a	n/a	0	0	0
2182.2861328125	n/a	REC_WORD	4469322	wordpools/wasnorm_wordpool_576.txt	LTP379	ltpFR2	10	10	ZEBRA	1635	n/a	n/a	0	0	0
2199.27099609375	n/a	REC_WORD	4504107	wordpools/wasnorm_wordpool_576.txt	LTP379	ltpFR2	10	10	CRIB	407	n/a	n/a	0	0	0
2200.35986328125	n/a	REC_WORD	4506337	wordpools/wasnorm_wordpool_576.txt	LTP379	ltpFR2	10	10	BACON	67	n/a	n/a	0	0	0
2201.23095703125	n/a	REC_WORD	4508121	wordpools/wasnorm_wordpool_576.txt	LTP379	ltpFR2	10	10	VALLEY	1545	n/a	n/a	0	0	0
2202.423828125	n/a	REC_WORD	4510564	wordpools/wasnorm_wordpool_576.txt	LTP379	ltpFR2	10	10	PRIMATE	1123	n/a	n/a	0	0	0
2203.6416015625	n/a	REC_WORD	4513058	wordpools/wasnorm_wordpool_576.txt	LTP379	ltpFR2	10	10	CARRIAGE	248	n/a	n/a	0	0	0
2208.88427734375	n/a	REC_WORD	4523795	wordpools/wasnorm_wordpool_576.txt	LTP379	ltpFR2	10	10	REPORT	1184	n/a	n/a	0	0	0
2209.947265625	n/a	REC_WORD	4525972	wordpools/wasnorm_wordpool_576.txt	LTP379	ltpFR2	10	10	NAPKIN	937	n/a	n/a	0	0	0
2211.1171875	n/a	REC_WORD	4528368	wordpools/wasnorm_wordpool_576.txt	LTP379	ltpFR2	10	10	ROCKET	1202	n/a	n/a	0	0	0
2212.12060546875	n/a	REC_WORD	4530423	wordpools/wasnorm_wordpool_576.txt	LTP379	ltpFR2	10	10	STALLION	1369	n/a	n/a	0	0	0
2215.75634765625	n/a	REC_WORD	4537869	wordpools/wasnorm_wordpool_576.txt	LTP379	ltpFR2	10	10	DRAWING	494	n/a	n/a	0	0	0
2217.0693359375	n/a	REC_WORD	4540558	wordpools/wasnorm_wordpool_576.txt	LTP379	ltpFR2	10	10	ORCHID	982	n/a	n/a	0	0	0
2218.05517578125	n/a	REC_WORD	4542577	wordpools/wasnorm_wordpool_576.txt	LTP379	ltpFR2	10	10	FLUTE	585	n/a	n/a	0	0	0
2218.97998046875	n/a	REC_WORD	4544471	wordpools/wasnorm_wordpool_576.txt	LTP379	ltpFR2	10	10	SEAGULL	1261	n/a	n/a	0	0	0
2293.9267578125	n/a	WORD	4697962	wordpools/wasnorm_wordpool_576.txt	LTP379	ltpFR2	10	11	ICING	732	n/a	n/a	0	0	0
2296.6767578125	n/a	WORD	4703594	wordpools/wasnorm_wordpool_576.txt	LTP379	ltpFR2	10	11	CUSTARD	429	n/a	n/a	0	0	0
2299.1767578125	n/a	WORD	4708714	wordpools/wasnorm_wordpool_576.txt	LTP379	ltpFR2	10	11	SAUSAGE	1238	n/a	n/a	0	0	0
2301.87646484375	n/a	WORD	4714243	wordpools/wasnorm_wordpool_576.txt	LTP379	ltpFR2	10	11	PIGMENT	1066	n/a	n/a	0	0	0
2304.4765625	n/a	WORD	4719568	wordpools/wasnorm_wordpool_576.txt	LTP379	ltpFR2	10	11	BEEF	113	n/a	n/a	0	0	0
2307.0263671875	n/a	WORD	4724790	wordpools/wasnorm_wordpool_576.txt	LTP379	ltpFR2	10	11	LIVER	833	n/a	n/a	0	0	0
2309.74267578125	n/a	WORD	4730353	wordpools/wasnorm_wordpool_576.txt	LTP379	ltpFR2	10	11	EYELASH	546	n/a	n/a	0	0	0
2312.17529296875	n/a	WORD	4735335	wordpools/wasnorm_wordpool_576.txt	LTP379	ltpFR2	10	11	ROBBER	1197	n/a	n/a	0	0	0
2314.9921875	n/a	WORD	4741104	wordpools/wasnorm_wordpool_576.txt	LTP379	ltpFR2	10	11	RUG	1215	n/a	n/a	0	0	0
2317.5419921875	n/a	WORD	4746326	wordpools/wasnorm_wordpool_576.txt	LTP379	ltpFR2	10	11	TROMBONE	1508	n/a	n/a	0	0	0
2320.30908203125	n/a	WORD	4751993	wordpools/wasnorm_wordpool_576.txt	LTP379	ltpFR2	10	11	SALAD	1224	n/a	n/a	0	0	0
2322.84228515625	n/a	WORD	4757181	wordpools/wasnorm_wordpool_576.txt	LTP379	ltpFR2	10	11	FEMALE	559	n/a	n/a	0	0	0
2325.3251953125	n/a	WORD	4762266	wordpools/wasnorm_wordpool_576.txt	LTP379	ltpFR2	10	11	GUITAR	670	n/a	n/a	0	0	0
2328.14208984375	n/a	WORD	4768035	wordpools/wasnorm_wordpool_576.txt	LTP379	ltpFR2	10	11	SKETCH	1315	n/a	n/a	0	0	0
2330.7578125	n/a	WORD	4773392	wordpools/wasnorm_wordpool_576.txt	LTP379	ltpFR2	10	11	ROOSTER	1209	n/a	n/a	0	0	0
2333.49169921875	n/a	WORD	4778991	wordpools/wasnorm_wordpool_576.txt	LTP379	ltpFR2	10	11	TOASTER	1472	n/a	n/a	0	0	0
2335.95751953125	n/a	WORD	4784041	wordpools/wasnorm_wordpool_576.txt	LTP379	ltpFR2	10	11	STOVE	1388	n/a	n/a	0	0	0
2338.44140625	n/a	WORD	4789128	wordpools/wasnorm_wordpool_576.txt	LTP379	ltpFR2	10	11	PICTURE	1061	n/a	n/a	0	0	0
2341.12451171875	n/a	WORD	4794623	wordpools/wasnorm_wordpool_576.txt	LTP379	ltpFR2	10	11	LOVER	846	n/a	n/a	0	0	0
2343.57421875	n/a	WORD	4799640	wordpools/wasnorm_wordpool_576.txt	LTP379	ltpFR2	10	11	LUMBER	848	n/a	n/a	0	0	0
2346.29150390625	n/a	WORD	4805205	wordpools/wasnorm_wordpool_576.txt	LTP379	ltpFR2	10	11	APRON	35	n/a	n/a	0	0	0
2348.97412109375	n/a	WORD	4810699	wordpools/wasnorm_wordpool_576.txt	LTP379	ltpFR2	10	11	SKILLET	1317	n/a	n/a	0	0	0
2351.50732421875	n/a	WORD	4815887	wordpools/wasnorm_wordpool_576.txt	LTP379	ltpFR2	10	11	PUDDING	1139	n/a	n/a	0	0	0
2353.97412109375	n/a	WORD	4820939	wordpools/wasnorm_wordpool_576.txt	LTP379	ltpFR2	10	11	GRAVE	658	n/a	n/a	0	0	0
2355.5908203125	n/a	START	4824250	n/a	LTP379	ltpFR2	10	n/a	n/a	n/a	18	n/a	n/a	n/a	n/a
2356.533203125	n/a	DISTRACTOR	4826180	n/a	LTP379	ltpFR2	10	11	n/a	n/a	n/a	n/a	0	0	0
2356.55712890625	n/a	PROB	4826229	n/a	LTP379	ltpFR2	10	n/a	n/a	n/a	18	12	2	1	9
2358.97412109375	n/a	PROB	4831179	n/a	LTP379	ltpFR2	10	n/a	n/a	n/a	18	21	8	7	6
2360.90673828125	n/a	PROB	4835137	n/a	LTP379	ltpFR2	10	n/a	n/a	n/a	18	22	6	7	9
2363.8896484375	n/a	PROB	4841246	n/a	LTP379	ltpFR2	10	n/a	n/a	n/a	18	15	1	8	6
2365.32373046875	n/a	PROB	4844183	n/a	LTP379	ltpFR2	10	n/a	n/a	n/a	18	18	7	5	3
2366.9736328125	n/a	PROB	4847562	n/a	LTP379	ltpFR2	10	n/a	n/a	n/a	18	17	6	4	7
2369.923828125	n/a	PROB	4853604	n/a	LTP379	ltpFR2	10	n/a	n/a	n/a	18	12	1	5	6
2371.17236328125	n/a	PROB	4856161	n/a	LTP379	ltpFR2	10	n/a	n/a	n/a	18	9	2	4	3
2373.7734375	n/a	PROB	4861488	n/a	LTP379	ltpFR2	10	n/a	n/a	n/a	18	21	7	9	6
2375.806640625	n/a	PROB	4865652	n/a	LTP379	ltpFR2	10	n/a	n/a	n/a	18	14	8	4	2
2377.7392578125	n/a	PROB	4869610	n/a	LTP379	ltpFR2	10	n/a	n/a	n/a	18	10	1	2	7
2379.04150390625	n/a	STOP	4872277	n/a	LTP379	ltpFR2	10	n/a	n/a	n/a	18	n/a	n/a	n/a	n/a
2381.4560546875	n/a	REC_START	4877222	n/a	LTP379	ltpFR2	10	11	n/a	n/a	n/a	n/a	0	0	0
2390.17919921875	n/a	REC_WORD	4895087	wordpools/wasnorm_wordpool_576.txt	LTP379	ltpFR2	10	11	ICING	732	n/a	n/a	0	0	0
2391.255859375	n/a	REC_WORD	4897292	wordpools/wasnorm_wordpool_576.txt	LTP379	ltpFR2	10	11	CUSTARD	429	n/a	n/a	0	0	0
2393.888671875	n/a	REC_WORD	4902684	wordpools/wasnorm_wordpool_576.txt	LTP379	ltpFR2	10	11	SAUSAGE	1238	n/a	n/a	0	0	0
2395.296875	n/a	REC_WORD	4905568	wordpools/wasnorm_wordpool_576.txt	LTP379	ltpFR2	10	11	PIGMENT	1066	n/a	n/a	0	0	0
2396.77685546875	n/a	REC_WORD	4908599	wordpools/wasnorm_wordpool_576.txt	LTP379	ltpFR2	10	11	BEEF	113	n/a	n/a	0	0	0
2397.87158203125	n/a	REC_WORD	4910841	wordpools/wasnorm_wordpool_576.txt	LTP379	ltpFR2	10	11	LIVER	833	n/a	n/a	0	0	0
2399.78369140625	n/a	REC_WORD	4914757	wordpools/wasnorm_wordpool_576.txt	LTP379	ltpFR2	10	11	EYELASH	546	n/a	n/a	0	0	0
2400.77392578125	n/a	REC_WORD	4916785	wordpools/wasnorm_wordpool_576.txt	LTP379	ltpFR2	10	11	ROBBER	1197	n/a	n/a	0	0	0
2401.9755859375	n/a	REC_WORD	4919246	wordpools/wasnorm_wordpool_576.txt	LTP379	ltpFR2	10	11	RUG	1215	n/a	n/a	0	0	0
2402.8515625	n/a	REC_WORD	4921040	wordpools/wasnorm_wordpool_576.txt	LTP379	ltpFR2	10	11	TROMBONE	1508	n/a	n/a	0	0	0
2404.08837890625	n/a	REC_WORD	4923573	wordpools/wasnorm_wordpool_576.txt	LTP379	ltpFR2	10	11	SALAD	1224	n/a	n/a	0	0	0
2405.2705078125	n/a	REC_WORD	4925994	wordpools/wasnorm_wordpool_576.txt	LTP379	ltpFR2	10	11	FEMALE	559	n/a	n/a	0	0	0
2406.3896484375	n/a	REC_WORD	4928286	wordpools/wasnorm_wordpool_576.txt	LTP379	ltpFR2	10	11	GUITAR	670	n/a	n/a	0	0	0
2407.5263671875	n/a	REC_WORD	4930614	wordpools/wasnorm_wordpool_576.txt	LTP379	ltpFR2	10	11	SKETCH	1315	n/a	n/a	0	0	0
2408.90234375	n/a	REC_WORD	4933432	wordpools/wasnorm_wordpool_576.txt	LTP379	ltpFR2	10	11	ROOSTER	1209	n/a	n/a	0	0	0
2412.00830078125	n/a	REC_WORD	4939793	wordpools/wasnorm_wordpool_576.txt	LTP379	ltpFR2	10	11	TOASTER	1472	n/a	n/a	0	0	0
2413.7353515625	n/a	REC_WORD	4943330	wordpools/wasnorm_wordpool_576.txt	LTP379	ltpFR2	10	11	STOVE	1388	n/a	n/a	0	0	0
2415.1923828125	n/a	REC_WORD	4946314	wordpools/wasnorm_wordpool_576.txt	LTP379	ltpFR2	10	11	PICTURE	1061	n/a	n/a	0	0	0
2416.22021484375	n/a	REC_WORD	4948419	wordpools/wasnorm_wordpool_576.txt	LTP379	ltpFR2	10	11	LOVER	846	n/a	n/a	0	0	0
2417.40234375	n/a	REC_WORD	4950840	wordpools/wasnorm_wordpool_576.txt	LTP379	ltpFR2	10	11	LUMBER	848	n/a	n/a	0	0	0
2422.05517578125	n/a	REC_WORD	4960369	wordpools/wasnorm_wordpool_576.txt	LTP379	ltpFR2	10	11	APRON	35	n/a	n/a	0	0	0
2423.05517578125	n/a	REC_WORD	4962417	wordpools/wasnorm_wordpool_576.txt	LTP379	ltpFR2	10	11	SKILLET	1317	n/a	n/a	0	0	0
2424.625	n/a	REC_WORD	4965632	wordpools/wasnorm_wordpool_576.txt	LTP379	ltpFR2	10	11	PUDDING	1139	n/a	n/a	0	0	0
2425.837890625	n/a	REC_WORD	4968116	wordpools/wasnorm_wordpool_576.txt	LTP379	ltpFR2	10	11	GRAVE	658	n/a	n/a	0	0	0
2471.9013671875	n/a	WORD	5062454	wordpools/wasnorm_wordpool_576.txt	LTP379	ltpFR2	10	12	BURGLAR	200	n/a	n/a	0	0	0
2474.6015625	n/a	WORD	5067984	wordpools/wasnorm_wordpool_576.txt	LTP379	ltpFR2	10	12	BACKBONE	66	n/a	n/a	0	0	0
2477.3515625	n/a	WORD	5073616	wordpools/wasnorm_wordpool_576.txt	LTP379	ltpFR2	10	12	FOX	598	n/a	n/a	0	0	0
2479.951171875	n/a	WORD	5078940	wordpools/wasnorm_wordpool_576.txt	LTP379	ltpFR2	10	12	KITCHEN	778	n/a	n/a	0	0	0
2482.5009765625	n/a	WORD	5084162	wordpools/wasnorm_wordpool_576.txt	LTP379	ltpFR2	10	12	COOKBOOK	373	n/a	n/a	0	0	0
2485.2841796875	n/a	WORD	5089862	wordpools/wasnorm_wordpool_576.txt	LTP379	ltpFR2	10	12	THIEF	1456	n/a	n/a	0	0	0
2487.951171875	n/a	WORD	5095324	wordpools/wasnorm_wordpool_576.txt	LTP379	ltpFR2	10	12	SLIME	1327	n/a	n/a	0	0	0
2490.41796875	n/a	WORD	5100376	wordpools/wasnorm_wordpool_576.txt	LTP379	ltpFR2	10	12	POWDER	1117	n/a	n/a	0	0	0
2492.90087890625	n/a	WORD	5105461	wordpools/wasnorm_wordpool_576.txt	LTP379	ltpFR2	10	12	TURNIP	1521	n/a	n/a	0	0	0
2495.55078125	n/a	WORD	5110888	wordpools/wasnorm_wordpool_576.txt	LTP379	ltpFR2	10	12	SCULPTURE	1258	n/a	n/a	0	0	0
2498.2666015625	n/a	WORD	5116450	wordpools/wasnorm_wordpool_576.txt	LTP379	ltpFR2	10	12	GARDEN	623	n/a	n/a	0	0	0
2501.00048828125	n/a	WORD	5122049	wordpools/wasnorm_wordpool_576.txt	LTP379	ltpFR2	10	12	GLOVE	642	n/a	n/a	0	0	0
2503.75048828125	n/a	WORD	5127681	wordpools/wasnorm_wordpool_576.txt	LTP379	ltpFR2	10	12	MARROW	872	n/a	n/a	0	0	0
2506.36669921875	n/a	WORD	5133039	wordpools/wasnorm_wordpool_576.txt	LTP379	ltpFR2	10	12	MASK	876	n/a	n/a	0	0	0
2508.9501953125	n/a	WORD	5138330	wordpools/wasnorm_wordpool_576.txt	LTP379	ltpFR2	10	12	PLIERS	1089	n/a	n/a	0	0	0
2511.68310546875	n/a	WORD	5143927	wordpools/wasnorm_wordpool_576.txt	LTP379	ltpFR2	10	12	FLOWER	584	n/a	n/a	0	0	0
2514.43310546875	n/a	WORD	5149559	wordpools/wasnorm_wordpool_576.txt	LTP379	ltpFR2	10	12	PALACE	1006	n/a	n/a	0	0	0
2516.9990234375	n/a	WORD	5154814	wordpools/wasnorm_wordpool_576.txt	LTP379	ltpFR2	10	12	VIKING	1565	n/a	n/a	0	0	0
2519.79931640625	n/a	WORD	5160549	wordpools/wasnorm_wordpool_576.txt	LTP379	ltpFR2	10	12	COWBOY	395	n/a	n/a	0	0	0
2522.34912109375	n/a	WORD	5165771	wordpools/wasnorm_wordpool_576.txt	LTP379	ltpFR2	10	12	WAGON	1578	n/a	n/a	0	0	0
2524.8330078125	n/a	WORD	5170858	wordpools/wasnorm_wordpool_576.txt	LTP379	ltpFR2	10	12	DRINK	498	n/a	n/a	0	0	0
2527.48291015625	n/a	WORD	5176285	wordpools/wasnorm_wordpool_576.txt	LTP379	ltpFR2	10	12	COBRA	336	n/a	n/a	0	0	0
2530.24853515625	n/a	WORD	5181949	wordpools/wasnorm_wordpool_576.txt	LTP379	ltpFR2	10	12	STAKE	1368	n/a	n/a	0	0	0
2532.69873046875	n/a	WORD	5186967	wordpools/wasnorm_wordpool_576.txt	LTP379	ltpFR2	10	12	PORK	1108	n/a	n/a	0	0	0
2534.3154296875	n/a	START	5190278	n/a	LTP379	ltpFR2	10	n/a	n/a	n/a	19	n/a	n/a	n/a	n/a
2535.134765625	n/a	DISTRACTOR	5191956	n/a	LTP379	ltpFR2	10	12	n/a	n/a	n/a	n/a	0	0	0
2535.1484375	n/a	PROB	5191984	n/a	LTP379	ltpFR2	10	n/a	n/a	n/a	19	16	6	6	4
2538.3154296875	n/a	PROB	5198470	n/a	LTP379	ltpFR2	10	n/a	n/a	n/a	19	15	4	6	5
2540.3486328125	n/a	PROB	5202634	n/a	LTP379	ltpFR2	10	n/a	n/a	n/a	19	13	5	2	6
2542.13134765625	n/a	PROB	5206285	n/a	LTP379	ltpFR2	10	n/a	n/a	n/a	19	14	7	4	3
2543.79833984375	n/a	PROB	5209699	n/a	LTP379	ltpFR2	10	n/a	n/a	n/a	19	10	2	1	7
2545.34814453125	n/a	PROB	5212873	n/a	LTP379	ltpFR2	10	n/a	n/a	n/a	19	22	9	9	6
2547.248046875	n/a	PROB	5216764	n/a	LTP379	ltpFR2	10	n/a	n/a	n/a	19	13	2	4	7
2549.43115234375	n/a	PROB	5221235	n/a	LTP379	ltpFR2	10	n/a	n/a	n/a	19	15	3	5	7
2550.68115234375	n/a	PROB	5223795	n/a	LTP379	ltpFR2	10	n/a	n/a	n/a	19	19	8	9	2
2552.4638671875	n/a	PROB	5227446	n/a	LTP379	ltpFR2	10	n/a	n/a	n/a	19	11	7	2	2
2554.89794921875	n/a	PROB	5232431	n/a	LTP379	ltpFR2	10	n/a	n/a	n/a	19	19	4	9	6
2556.6640625	n/a	PROB	5236048	n/a	LTP379	ltpFR2	10	n/a	n/a	n/a	19	12	3	3	6
2558.2568359375	n/a	STOP	5239310	n/a	LTP379	ltpFR2	10	n/a	n/a	n/a	19	n/a	n/a	n/a	n/a
2560.1318359375	n/a	REC_START	5243150	n/a	LTP379	ltpFR2	10	12	n/a	n/a	n/a	n/a	0	0	0
2562.39794921875	n/a	REC_WORD	5247791	wordpools/wasnorm_wordpool_576.txt	LTP379	ltpFR2	10	12	BURGLAR	200	n/a	n/a	0	0	0
2563.44189453125	n/a	REC_WORD	5249929	wordpools/wasnorm_wordpool_576.txt	LTP379	ltpFR2	10	12	BACKBONE	66	n/a	n/a	0	0	0
2565.98046875	n/a	REC_WORD	5255128	wordpools/wasnorm_wordpool_576.txt	LTP379	ltpFR2	10	12	FOX	598	n/a	n/a	0	0	0
2567.1376953125	n/a	REC_WORD	5257498	wordpools/wasnorm_wordpool_576.txt	LTP379	ltpFR2	10	12	KITCHEN	778	n/a	n/a	0	0	0
2568.37353515625	n/a	REC_WORD	5260029	wordpools/wasnorm_wordpool_576.txt	LTP379	ltpFR2	10	12	COOKBOOK	373	n/a	n/a	0	0	0
2569.57568359375	n/a	REC_WORD	5262491	wordpools/wasnorm_wordpool_576.txt	LTP379	ltpFR2	10	12	THIEF	1456	n/a	n/a	0	0	0
2570.974609375	n/a	REC_WORD	5265356	wordpools/wasnorm_wordpool_576.txt	LTP379	ltpFR2	10	12	SLIME	1327	n/a	n/a	0	0	0
2572.26025390625	n/a	REC_WORD	5267989	wordpools/wasnorm_wordpool_576.txt	LTP379	ltpFR2	10	12	POWDER	1117	n/a	n/a	0	0	0
2573.322265625	n/a	REC_WORD	5270164	wordpools/wasnorm_wordpool_576.txt	LTP379	ltpFR2	10	12	TURNIP	1521	n/a	n/a	0	0	0
2574.41748046875	n/a	REC_WORD	5272407	wordpools/wasnorm_wordpool_576.txt	LTP379	ltpFR2	10	12	SCULPTURE	1258	n/a	n/a	0	0	0
2575.79248046875	n/a	REC_WORD	5275223	wordpools/wasnorm_wordpool_576.txt	LTP379	ltpFR2	10	12	GARDEN	623	n/a	n/a	0	0	0
2577.08447265625	n/a	REC_WORD	5277869	wordpools/wasnorm_wordpool_576.txt	LTP379	ltpFR2	10	12	GLOVE	642	n/a	n/a	0	0	0
2578.25439453125	n/a	REC_WORD	5280265	wordpools/wasnorm_wordpool_576.txt	LTP379	ltpFR2	10	12	MASK	876	n/a	n/a	0	0	0
2579.36328125	n/a	REC_WORD	5282536	wordpools/wasnorm_wordpool_576.txt	LTP379	ltpFR2	10	12	MARROW	872	n/a	n/a	0	0	0
2580.619140625	n/a	REC_WORD	5285108	wordpools/wasnorm_wordpool_576.txt	LTP379	ltpFR2	10	12	PLIERS	1089	n/a	n/a	0	0	0
2581.88916015625	n/a	REC_WORD	5287709	wordpools/wasnorm_wordpool_576.txt	LTP379	ltpFR2	10	12	FLOWER	584	n/a	n/a	0	0	0
2583.279296875	n/a	REC_WORD	5290556	wordpools/wasnorm_wordpool_576.txt	LTP379	ltpFR2	10	12	PALACE	1006	n/a	n/a	0	0	0
2584.81689453125	n/a	REC_WORD	5293705	wordpools/wasnorm_wordpool_576.txt	LTP379	ltpFR2	10	12	VIKING	1565	n/a	n/a	0	0	0
2587.82080078125	n/a	REC_WORD	5299857	wordpools/wasnorm_wordpool_576.txt	LTP379	ltpFR2	10	12	COWBOY	395	n/a	n/a	0	0	0
2589.19384765625	n/a	REC_WORD	5302669	wordpools/wasnorm_wordpool_576.txt	LTP379	ltpFR2	10	12	WAGON	1578	n/a	n/a	0	0	0
2591.31494140625	n/a	REC_WORD	5307013	wordpools/wasnorm_wordpool_576.txt	LTP379	ltpFR2	10	12	DRINK	498	n/a	n/a	0	0	0
2592.513671875	n/a	REC_WORD	5309468	wordpools/wasnorm_wordpool_576.txt	LTP379	ltpFR2	10	12	COBRA	336	n/a	n/a	0	0	0
2593.6259765625	n/a	REC_WORD	5311746	wordpools/wasnorm_wordpool_576.txt	LTP379	ltpFR2	10	12	STAKE	1368	n/a	n/a	0	0	0
2595.19580078125	n/a	REC_WORD	5314961	wordpools/wasnorm_wordpool_576.txt	LTP379	ltpFR2	10	12	PORK	1108	n/a	n/a	0	0	0
2650.5771484375	n/a	DISTRACTOR	5428382	n/a	LTP379	ltpFR2	10	13	n/a	n/a	n/a	n/a	0	0	0
2650.5771484375	n/a	START	5428382	n/a	LTP379	ltpFR2	10	n/a	n/a	n/a	20	n/a	n/a	n/a	n/a
2650.59326171875	n/a	PROB	5428415	n/a	LTP379	ltpFR2	10	n/a	n/a	n/a	20	16	6	7	3
2652.876953125	n/a	PROB	5433092	n/a	LTP379	ltpFR2	10	n/a	n/a	n/a	20	12	5	6	1
2654.9599609375	n/a	PROB	5437358	n/a	LTP379	ltpFR2	10	n/a	n/a	n/a	20	23	7	9	7
2656.8759765625	n/a	PROB	5441282	n/a	LTP379	ltpFR2	10	n/a	n/a	n/a	20	12	3	1	8
2658.5927734375	n/a	PROB	5444798	n/a	LTP379	ltpFR2	10	n/a	n/a	n/a	20	16	6	9	1
2660.5927734375	n/a	PROB	5448894	n/a	LTP379	ltpFR2	10	n/a	n/a	n/a	20	14	8	4	2
2662.5927734375	n/a	PROB	5452990	n/a	LTP379	ltpFR2	10	n/a	n/a	n/a	20	11	3	1	7
2664.259765625	n/a	PROB	5456404	n/a	LTP379	ltpFR2	10	n/a	n/a	n/a	20	10	8	1	1
2665.54248046875	n/a	PROB	5459031	n/a	LTP379	ltpFR2	10	n/a	n/a	n/a	20	19	7	4	8
2667.74267578125	n/a	PROB	5463537	n/a	LTP379	ltpFR2	10	n/a	n/a	n/a	20	9	1	4	4
2668.92578125	n/a	PROB	5465960	n/a	LTP379	ltpFR2	10	n/a	n/a	n/a	20	11	1	8	2
2670.40966796875	n/a	PROB	5468999	n/a	LTP379	ltpFR2	10	n/a	n/a	n/a	20	17	3	9	5
2672.9755859375	n/a	PROB	5474254	n/a	LTP379	ltpFR2	10	n/a	n/a	n/a	20	16	1	7	8
2674.29736328125	n/a	STOP	5476961	n/a	LTP379	ltpFR2	10	n/a	n/a	n/a	20	n/a	n/a	n/a	n/a
2675.4091796875	n/a	WORD	5479238	wordpools/wasnorm_wordpool_576.txt	LTP379	ltpFR2	10	13	PISTON	1076	n/a	n/a	0	0	0
2678.00927734375	n/a	WORD	5484563	wordpools/wasnorm_wordpool_576.txt	LTP379	ltpFR2	10	13	MAMMAL	861	n/a	n/a	0	0	0
2680.80810546875	n/a	WORD	5490295	wordpools/wasnorm_wordpool_576.txt	LTP379	ltpFR2	10	13	PATIENT	1024	n/a	n/a	0	0	0
2683.4580078125	n/a	WORD	5495722	wordpools/wasnorm_wordpool_576.txt	LTP379	ltpFR2	10	13	NURSE	963	n/a	n/a	0	0	0
2686.125	n/a	WORD	5501184	wordpools/wasnorm_wordpool_576.txt	LTP379	ltpFR2	10	13	BROTHER	179	n/a	n/a	0	0	0
2688.72509765625	n/a	WORD	5506509	wordpools/wasnorm_wordpool_576.txt	LTP379	ltpFR2	10	13	HEDGE	699	n/a	n/a	0	0	0
2691.40771484375	n/a	WORD	5512003	wordpools/wasnorm_wordpool_576.txt	LTP379	ltpFR2	10	13	HOUND	724	n/a	n/a	0	0	0
2694.1748046875	n/a	WORD	5517670	wordpools/wasnorm_wordpool_576.txt	LTP379	ltpFR2	10	13	PLUTO	1092	n/a	n/a	0	0	0
2696.8916015625	n/a	WORD	5523234	wordpools/wasnorm_wordpool_576.txt	LTP379	ltpFR2	10	13	ISLAND	745	n/a	n/a	0	0	0
2699.640625	n/a	WORD	5528864	wordpools/wasnorm_wordpool_576.txt	LTP379	ltpFR2	10	13	PUPPY	1144	n/a	n/a	0	0	0
2702.40771484375	n/a	WORD	5534531	wordpools/wasnorm_wordpool_576.txt	LTP379	ltpFR2	10	13	SISTER	1312	n/a	n/a	0	0	0
2705.1572265625	n/a	WORD	5540162	wordpools/wasnorm_wordpool_576.txt	LTP379	ltpFR2	10	13	BUG	187	n/a	n/a	0	0	0
2707.6904296875	n/a	WORD	5545350	wordpools/wasnorm_wordpool_576.txt	LTP379	ltpFR2	10	13	NIGHTGOWN	953	n/a	n/a	0	0	0
2710.4404296875	n/a	WORD	5550982	wordpools/wasnorm_wordpool_576.txt	LTP379	ltpFR2	10	13	DUSTPAN	509	n/a	n/a	0	0	0
2712.9072265625	n/a	WORD	5556034	wordpools/wasnorm_wordpool_576.txt	LTP379	ltpFR2	10	13	SCISSORS	1250	n/a	n/a	0	0	0
2715.39013671875	n/a	WORD	5561119	wordpools/wasnorm_wordpool_576.txt	LTP379	ltpFR2	10	13	STREAM	1392	n/a	n/a	0	0	0
2718.20703125	n/a	WORD	5566888	wordpools/wasnorm_wordpool_576.txt	LTP379	ltpFR2	10	13	CRATER	400	n/a	n/a	0	0	0
2720.82275390625	n/a	WORD	5572245	wordpools/wasnorm_wordpool_576.txt	LTP379	ltpFR2	10	13	DOLPHIN	483	n/a	n/a	0	0	0
2723.33984375	n/a	WORD	5577400	wordpools/wasnorm_wordpool_576.txt	LTP379	ltpFR2	10	13	PREACHER	1119	n/a	n/a	0	0	0
2726.0400390625	n/a	WORD	5582930	wordpools/wasnorm_wordpool_576.txt	LTP379	ltpFR2	10	13	LILY	821	n/a	n/a	0	0	0
2728.77294921875	n/a	WORD	5588527	wordpools/wasnorm_wordpool_576.txt	LTP379	ltpFR2	10	13	CLOUD	328	n/a	n/a	0	0	0
2731.47265625	n/a	WORD	5594056	wordpools/wasnorm_wordpool_576.txt	LTP379	ltpFR2	10	13	SALT	1229	n/a	n/a	0	0	0
2734.1064453125	n/a	WORD	5599450	wordpools/wasnorm_wordpool_576.txt	LTP379	ltpFR2	10	13	BARLEY	88	n/a	n/a	0	0	0
2736.72265625	n/a	WORD	5604808	wordpools/wasnorm_wordpool_576.txt	LTP379	ltpFR2	10	13	PARSLEY	1016	n/a	n/a	0	0	0
2738.33935546875	n/a	START	5608119	n/a	LTP379	ltpFR2	10	n/a	n/a	n/a	21	n/a	n/a	n/a	n/a
2739.3896484375	n/a	DISTRACTOR	5610270	n/a	LTP379	ltpFR2	10	13	n/a	n/a	n/a	n/a	0	0	0
2739.4052734375	n/a	PROB	5610302	n/a	LTP379	ltpFR2	10	n/a	n/a	n/a	21	18	3	8	7
2741.30517578125	n/a	PROB	5614193	n/a	LTP379	ltpFR2	10	n/a	n/a	n/a	21	10	5	2	3
2743.9052734375	n/a	PROB	5619518	n/a	LTP379	ltpFR2	10	n/a	n/a	n/a	21	10	3	4	3
2745.439453125	n/a	PROB	5622660	n/a	LTP379	ltpFR2	10	n/a	n/a	n/a	21	12	3	2	7
2747.47216796875	n/a	PROB	5626823	n/a	LTP379	ltpFR2	10	n/a	n/a	n/a	21	19	7	4	8
2749.35498046875	n/a	PROB	5630679	n/a	LTP379	ltpFR2	10	n/a	n/a	n/a	21	14	2	6	6
2750.77197265625	n/a	PROB	5633581	n/a	LTP379	ltpFR2	10	n/a	n/a	n/a	21	15	2	7	6
2752.455078125	n/a	PROB	5637028	n/a	LTP379	ltpFR2	10	n/a	n/a	n/a	21	20	9	7	4
2754.30517578125	n/a	PROB	5640817	n/a	LTP379	ltpFR2	10	n/a	n/a	n/a	21	19	9	4	6
2755.8046875	n/a	PROB	5643888	n/a	LTP379	ltpFR2	10	n/a	n/a	n/a	21	19	8	6	5
2757.921875	n/a	PROB	5648224	n/a	LTP379	ltpFR2	10	n/a	n/a	n/a	21	23	6	8	9
2761.0888671875	n/a	STOP	5654710	n/a	LTP379	ltpFR2	10	n/a	n/a	n/a	21	n/a	n/a	n/a	n/a
2764.28857421875	n/a	REC_START	5661263	n/a	LTP379	ltpFR2	10	13	n/a	n/a	n/a	n/a	0	0	0
2769.939453125	n/a	REC_WORD	5672836	wordpools/wasnorm_wordpool_576.txt	LTP379	ltpFR2	10	13	PISTON	1076	n/a	n/a	0	0	0
2771.1025390625	n/a	REC_WORD	5675218	wordpools/wasnorm_wordpool_576.txt	LTP379	ltpFR2	10	13	MAMMAL	861	n/a	n/a	0	0	0
2772.30419921875	n/a	REC_WORD	5677679	wordpools/wasnorm_wordpool_576.txt	LTP379	ltpFR2	10	13	PATIENT	1024	n/a	n/a	0	0	0
2773.8271484375	n/a	REC_WORD	5680798	wordpools/wasnorm_wordpool_576.txt	LTP379	ltpFR2	10	13	NURSE	963	n/a	n/a	0	0	0
2775.50927734375	n/a	REC_WORD	5684243	wordpools/wasnorm_wordpool_576.txt	LTP379	ltpFR2	10	13	BROTHER	179	n/a	n/a	0	0	0
2782.083984375	n/a	REC_WORD	5697708	wordpools/wasnorm_wordpool_576.txt	LTP379	ltpFR2	10	13	HEDGE	699	n/a	n/a	0	0	0
2783.3662109375	n/a	REC_WORD	5700334	wordpools/wasnorm_wordpool_576.txt	LTP379	ltpFR2	10	13	HOUND	724	n/a	n/a	0	0	0
2785.4501953125	n/a	REC_WORD	5704602	wordpools/wasnorm_wordpool_576.txt	LTP379	ltpFR2	10	13	PLUTO	1092	n/a	n/a	0	0	0
2787.19580078125	n/a	REC_WORD	5708177	wordpools/wasnorm_wordpool_576.txt	LTP379	ltpFR2	10	13	ISLAND	745	n/a	n/a	0	0	0
2788.5546875	n/a	REC_WORD	5710960	wordpools/wasnorm_wordpool_576.txt	LTP379	ltpFR2	10	13	PUPPY	1144	n/a	n/a	0	0	0
2791.59765625	n/a	REC_WORD	5717192	wordpools/wasnorm_wordpool_576.txt	LTP379	ltpFR2	10	13	SISTER	1312	n/a	n/a	0	0	0
2792.9169921875	n/a	REC_WORD	5719894	wordpools/wasnorm_wordpool_576.txt	LTP379	ltpFR2	10	13	BUG	187	n/a	n/a	0	0	0
2793.9716796875	n/a	REC_WORD	5722054	wordpools/wasnorm_wordpool_576.txt	LTP379	ltpFR2	10	13	NIGHTGOWN	953	n/a	n/a	0	0	0
2795.24658203125	n/a	REC_WORD	5724665	wordpools/wasnorm_wordpool_576.txt	LTP379	ltpFR2	10	13	DUSTPAN	509	n/a	n/a	0	0	0
2796.45166015625	n/a	REC_WORD	5727133	wordpools/wasnorm_wordpool_576.txt	LTP379	ltpFR2	10	13	SCISSORS	1250	n/a	n/a	0	0	0
2797.9345703125	n/a	REC_WORD	5730170	wordpools/wasnorm_wordpool_576.txt	LTP379	ltpFR2	10	13	STREAM	1392	n/a	n/a	0	0	0
2799.20947265625	n/a	REC_WORD	5732781	wordpools/wasnorm_wordpool_576.txt	LTP379	ltpFR2	10	13	CRATER	400	n/a	n/a	0	0	0
2800.57568359375	n/a	REC_WORD	5735579	wordpools/wasnorm_wordpool_576.txt	LTP379	ltpFR2	10	13	DOLPHIN	483	n/a	n/a	0	0	0
2801.74072265625	n/a	REC_WORD	5737965	wordpools/wasnorm_wordpool_576.txt	LTP379	ltpFR2	10	13	PREACHER	1119	n/a	n/a	0	0	0
2803.53271484375	n/a	REC_WORD	5741635	wordpools/wasnorm_wordpool_576.txt	LTP379	ltpFR2	10	13	CLOUD	328	n/a	n/a	0	0	0
2804.75830078125	n/a	REC_WORD	5744145	wordpools/wasnorm_wordpool_576.txt	LTP379	ltpFR2	10	13	SALT	1229	n/a	n/a	0	0	0
2806.1875	n/a	REC_WORD	5747072	wordpools/wasnorm_wordpool_576.txt	LTP379	ltpFR2	10	13	BARLEY	88	n/a	n/a	0	0	0
2807.33251953125	n/a	REC_WORD	5749417	wordpools/wasnorm_wordpool_576.txt	LTP379	ltpFR2	10	13	PARSLEY	1016	n/a	n/a	0	0	0
2854.7509765625	n/a	WORD	5846530	wordpools/wasnorm_wordpool_576.txt	LTP379	ltpFR2	10	14	JAPAN	749	n/a	n/a	0	0	0
2857.28369140625	n/a	WORD	5851717	wordpools/wasnorm_wordpool_576.txt	LTP379	ltpFR2	10	14	KNIFE	785	n/a	n/a	0	0	0
2859.9169921875	n/a	WORD	5857110	wordpools/wasnorm_wordpool_576.txt	LTP379	ltpFR2	10	14	HIKER	708	n/a	n/a	0	0	0
2862.39990234375	n/a	WORD	5862195	wordpools/wasnorm_wordpool_576.txt	LTP379	ltpFR2	10	14	SUITCASE	1403	n/a	n/a	0	0	0
2864.9833984375	n/a	WORD	5867486	wordpools/wasnorm_wordpool_576.txt	LTP379	ltpFR2	10	14	JUDGE	761	n/a	n/a	0	0	0
2867.7666015625	n/a	WORD	5873186	wordpools/wasnorm_wordpool_576.txt	LTP379	ltpFR2	10	14	FINGER	567	n/a	n/a	0	0	0
