mstime	trial_type	stim_file	subject	experiment	session	trial	item_name	item_num	list	answer	test_x	test_y	test_z
0	SESS_START	n/a	LTP389	ltpFR2	18	n/a	n/a	n/a	n/a	n/a	0	0	0
11502	START	n/a	LTP389	ltpFR2	18	n/a	n/a	n/a	-1	n/a	n/a	n/a	n/a
11533	PROB	n/a	LTP389	ltpFR2	18	n/a	n/a	n/a	-1	19	6	4	9
13617	PROB	n/a	LTP389	ltpFR2	18	n/a	n/a	n/a	-1	14	2	4	8
15350	PROB	n/a	LTP389	ltpFR2	18	n/a	n/a	n/a	-1	9	6	2	1
16600	PROB	n/a	LTP389	ltpFR2	18	n/a	n/a	n/a	-1	17	5	4	8
18100	PROB	n/a	LTP389	ltpFR2	18	n/a	n/a	n/a	-1	9	4	4	1
19200	PROB	n/a	LTP389	ltpFR2	18	n/a	n/a	n/a	-1	19	5	8	6
21667	PROB	n/a	LTP389	ltpFR2	18	n/a	n/a	n/a	-1	7	1	3	3
22846	STOP	n/a	LTP389	ltpFR2	18	n/a	n/a	n/a	-1	n/a	n/a	n/a	n/a
53683	WORD	wordpools/wasnorm_wordpool_576.txt	LTP389	ltpFR2	18	1	ZEBRA	1635	n/a	n/a	0	0	0
56333	WORD	wordpools/wasnorm_wordpool_576.txt	LTP389	ltpFR2	18	1	CASKET	255	n/a	n/a	0	0	0
58966	WORD	wordpools/wasnorm_wordpool_576.txt	LTP389	ltpFR2	18	1	RADISH	1158	n/a	n/a	0	0	0
61399	WORD	wordpools/wasnorm_wordpool_576.txt	LTP389	ltpFR2	18	1	SLIME	1327	n/a	n/a	0	0	0
64049	WORD	wordpools/wasnorm_wordpool_576.txt	LTP389	ltpFR2	18	1	STATUE	1374	n/a	n/a	0	0	0
66582	WORD	wordpools/wasnorm_wordpool_576.txt	LTP389	ltpFR2	18	1	POSTAGE	1113	n/a	n/a	0	0	0
69349	WORD	wordpools/wasnorm_wordpool_576.txt	LTP389	ltpFR2	18	1	CHILD	299	n/a	n/a	0	0	0
71932	WORD	wordpools/wasnorm_wordpool_576.txt	LTP389	ltpFR2	18	1	DRAGON	492	n/a	n/a	0	0	0
74449	WORD	wordpools/wasnorm_wordpool_576.txt	LTP389	ltpFR2	18	1	ICEBERG	731	n/a	n/a	0	0	0
77066	WORD	wordpools/wasnorm_wordpool_576.txt	LTP389	ltpFR2	18	1	FREEZER	604	n/a	n/a	0	0	0
79783	WORD	wordpools/wasnorm_wordpool_576.txt	LTP389	ltpFR2	18	1	DASHBOARD	441	n/a	n/a	0	0	0
82315	WORD	wordpools/wasnorm_wordpool_576.txt	LTP389	ltpFR2	18	1	SMOG	1330	n/a	n/a	0	0	0
85049	WORD	wordpools/wasnorm_wordpool_576.txt	LTP389	ltpFR2	18	1	WASP	1593	n/a	n/a	0	0	0
87732	WORD	wordpools/wasnorm_wordpool_576.txt	LTP389	ltpFR2	18	1	TERMITE	1451	n/a	n/a	0	0	0
90515	WORD	wordpools/wasnorm_wordpool_576.txt	LTP389	ltpFR2	18	1	PLATE	1086	n/a	n/a	0	0	0
93115	WORD	wordpools/wasnorm_wordpool_576.txt	LTP389	ltpFR2	18	1	COD	340	n/a	n/a	0	0	0
95699	WORD	wordpools/wasnorm_wordpool_576.txt	LTP389	ltpFR2	18	1	THRONE	1461	n/a	n/a	0	0	0
98332	WORD	wordpools/wasnorm_wordpool_576.txt	LTP389	ltpFR2	18	1	KLEENEX	782	n/a	n/a	0	0	0
100849	WORD	wordpools/wasnorm_wordpool_576.txt	LTP389	ltpFR2	18	1	LAKE	796	n/a	n/a	0	0	0
103465	WORD	wordpools/wasnorm_wordpool_576.txt	LTP389	ltpFR2	18	1	TWISTER	1530	n/a	n/a	0	0	0
106132	WORD	wordpools/wasnorm_wordpool_576.txt	LTP389	ltpFR2	18	1	BUGGY	188	n/a	n/a	0	0	0
108915	WORD	wordpools/wasnorm_wordpool_576.txt	LTP389	ltpFR2	18	1	BANJO	82	n/a	n/a	0	0	0
111398	WORD	wordpools/wasnorm_wordpool_576.txt	LTP389	ltpFR2	18	1	POET	1095	n/a	n/a	0	0	0
113882	WORD	wordpools/wasnorm_wordpool_576.txt	LTP389	ltpFR2	18	1	CYCLONE	431	n/a	n/a	0	0	0
115499	START	n/a	LTP389	ltpFR2	18	n/a	n/a	n/a	1	n/a	n/a	n/a	n/a
116334	DISTRACTOR	n/a	LTP389	ltpFR2	18	1	n/a	n/a	n/a	n/a	0	0	0
116348	PROB	n/a	LTP389	ltpFR2	18	n/a	n/a	n/a	1	14	1	4	9
117848	PROB	n/a	LTP389	ltpFR2	18	n/a	n/a	n/a	1	20	9	4	7
119598	PROB	n/a	LTP389	ltpFR2	18	n/a	n/a	n/a	1	13	2	4	7
121098	PROB	n/a	LTP389	ltpFR2	18	n/a	n/a	n/a	1	13	2	3	8
122548	PROB	n/a	LTP389	ltpFR2	18	n/a	n/a	n/a	1	15	3	9	3
124031	PROB	n/a	LTP389	ltpFR2	18	n/a	n/a	n/a	1	18	6	3	9
125432	PROB	n/a	LTP389	ltpFR2	18	n/a	n/a	n/a	1	19	8	8	3
126832	PROB	n/a	LTP389	ltpFR2	18	n/a	n/a	n/a	1	12	2	2	8
128398	PROB	n/a	LTP389	ltpFR2	18	n/a	n/a	n/a	1	12	1	2	9
130198	PROB	n/a	LTP389	ltpFR2	18	n/a	n/a	n/a	1	12	5	5	2
131248	PROB	n/a	LTP389	ltpFR2	18	n/a	n/a	n/a	1	26	9	8	9
133748	PROB	n/a	LTP389	ltpFR2	18	n/a	n/a	n/a	1	7	2	1	4
135331	PROB	n/a	LTP389	ltpFR2	18	n/a	n/a	n/a	1	15	6	6	3
136598	PROB	n/a	LTP389	ltpFR2	18	n/a	n/a	n/a	1	12	4	5	3
139498	STOP	n/a	LTP389	ltpFR2	18	n/a	n/a	n/a	1	n/a	n/a	n/a	n/a
141332	REC_START	n/a	LTP389	ltpFR2	18	1	n/a	n/a	n/a	n/a	0	0	0
142060	REC_WORD	wordpools/wasnorm_wordpool_576.txt	LTP389	ltpFR2	18	1	ZEBRA	1635	n/a	n/a	0	0	0
142939	REC_WORD	wordpools/wasnorm_wordpool_576.txt	LTP389	ltpFR2	18	1	CASKET	255	n/a	n/a	0	0	0
143774	REC_WORD	wordpools/wasnorm_wordpool_576.txt	LTP389	ltpFR2	18	1	STATUE	1374	n/a	n/a	0	0	0
144727	REC_WORD	wordpools/wasnorm_wordpool_576.txt	LTP389	ltpFR2	18	1	SLIME	1327	n/a	n/a	0	0	0
146734	REC_WORD	wordpools/wasnorm_wordpool_576.txt	LTP389	ltpFR2	18	1	PLATE	1086	n/a	n/a	0	0	0
151406	REC_WORD	wordpools/wasnorm_wordpool_576.txt	LTP389	ltpFR2	18	1	RADISH	1158	n/a	n/a	0	0	0
155436	REC_WORD	wordpools/wasnorm_wordpool_576.txt	LTP389	ltpFR2	18	1	THRONE	1461	n/a	n/a	0	0	0
157285	REC_WORD	wordpools/wasnorm_wordpool_576.txt	LTP389	ltpFR2	18	1	CYCLONE	431	n/a	n/a	0	0	0
158854	REC_WORD	wordpools/wasnorm_wordpool_576.txt	LTP389	ltpFR2	18	1	TWISTER	1530	n/a	n/a	0	0	0
161134	REC_WORD	wordpools/wasnorm_wordpool_576.txt	LTP389	ltpFR2	18	1	BUGGY	188	n/a	n/a	0	0	0
166493	REC_WORD	wordpools/wasnorm_wordpool_576.txt	LTP389	ltpFR2	18	1	BANJO	82	n/a	n/a	0	0	0
170859	REC_WORD	wordpools/wasnorm_wordpool_576.txt	LTP389	ltpFR2	18	1	ICEBERG	731	n/a	n/a	0	0	0
207164	REC_WORD	wordpools/wasnorm_wordpool_576.txt	LTP389	ltpFR2	18	1	THRONE	1461	n/a	n/a	0	0	0
231797	WORD	wordpools/wasnorm_wordpool_576.txt	LTP389	ltpFR2	18	2	PRINCE	1124	n/a	n/a	0	0	0
234313	WORD	wordpools/wasnorm_wordpool_576.txt	LTP389	ltpFR2	18	2	BUCKET	184	n/a	n/a	0	0	0
236913	WORD	wordpools/wasnorm_wordpool_576.txt	LTP389	ltpFR2	18	2	COTTAGE	384	n/a	n/a	0	0	0
239630	WORD	wordpools/wasnorm_wordpool_576.txt	LTP389	ltpFR2	18	2	JURY	766	n/a	n/a	0	0	0
242246	WORD	wordpools/wasnorm_wordpool_576.txt	LTP389	ltpFR2	18	2	CROWN	415	n/a	n/a	0	0	0
244814	WORD	wordpools/wasnorm_wordpool_576.txt	LTP389	ltpFR2	18	2	SKETCH	1315	n/a	n/a	0	0	0
247430	WORD	wordpools/wasnorm_wordpool_576.txt	LTP389	ltpFR2	18	2	PEDAL	1037	n/a	n/a	0	0	0
249996	WORD	wordpools/wasnorm_wordpool_576.txt	LTP389	ltpFR2	18	2	HELMET	702	n/a	n/a	0	0	0
252513	WORD	wordpools/wasnorm_wordpool_576.txt	LTP389	ltpFR2	18	2	ACTOR	5	n/a	n/a	0	0	0
254946	WORD	wordpools/wasnorm_wordpool_576.txt	LTP389	ltpFR2	18	2	SCULPTURE	1258	n/a	n/a	0	0	0
257629	WORD	wordpools/wasnorm_wordpool_576.txt	LTP389	ltpFR2	18	2	JEANS	752	n/a	n/a	0	0	0
260296	WORD	wordpools/wasnorm_wordpool_576.txt	LTP389	ltpFR2	18	2	BANK	83	n/a	n/a	0	0	0
263079	WORD	wordpools/wasnorm_wordpool_576.txt	LTP389	ltpFR2	18	2	HIKER	708	n/a	n/a	0	0	0
265746	WORD	wordpools/wasnorm_wordpool_576.txt	LTP389	ltpFR2	18	2	OUTDOORS	987	n/a	n/a	0	0	0
268396	WORD	wordpools/wasnorm_wordpool_576.txt	LTP389	ltpFR2	18	2	CAMEL	223	n/a	n/a	0	0	0
271129	WORD	wordpools/wasnorm_wordpool_576.txt	LTP389	ltpFR2	18	2	WIFE	1609	n/a	n/a	0	0	0
273780	WORD	wordpools/wasnorm_wordpool_576.txt	LTP389	ltpFR2	18	2	HAMPER	682	n/a	n/a	0	0	0
276429	WORD	wordpools/wasnorm_wordpool_576.txt	LTP389	ltpFR2	18	2	REBEL	1172	n/a	n/a	0	0	0
279212	WORD	wordpools/wasnorm_wordpool_576.txt	LTP389	ltpFR2	18	2	SALAD	1224	n/a	n/a	0	0	0
281912	WORD	wordpools/wasnorm_wordpool_576.txt	LTP389	ltpFR2	18	2	KITCHEN	778	n/a	n/a	0	0	0
284629	WORD	wordpools/wasnorm_wordpool_576.txt	LTP389	ltpFR2	18	2	PISTOL	1075	n/a	n/a	0	0	0
287312	WORD	wordpools/wasnorm_wordpool_576.txt	LTP389	ltpFR2	18	2	STAPLE	1371	n/a	n/a	0	0	0
289995	WORD	wordpools/wasnorm_wordpool_576.txt	LTP389	ltpFR2	18	2	CLIMBER	323	n/a	n/a	0	0	0
292479	WORD	wordpools/wasnorm_wordpool_576.txt	LTP389	ltpFR2	18	2	PICTURE	1061	n/a	n/a	0	0	0
294096	START	n/a	LTP389	ltpFR2	18	n/a	n/a	n/a	2	n/a	n/a	n/a	n/a
295090	DISTRACTOR	n/a	LTP389	ltpFR2	18	2	n/a	n/a	n/a	n/a	0	0	0
295095	PROB	n/a	LTP389	ltpFR2	18	n/a	n/a	n/a	2	9	2	2	5
296395	PROB	n/a	LTP389	ltpFR2	18	n/a	n/a	n/a	2	14	6	4	4
298112	PROB	n/a	LTP389	ltpFR2	18	n/a	n/a	n/a	2	7	3	2	2
299612	PROB	n/a	LTP389	ltpFR2	18	n/a	n/a	n/a	2	12	6	3	3
300912	PROB	n/a	LTP389	ltpFR2	18	n/a	n/a	n/a	2	12	2	9	1
302312	PROB	n/a	LTP389	ltpFR2	18	n/a	n/a	n/a	2	13	8	3	2
303645	PROB	n/a	LTP389	ltpFR2	18	n/a	n/a	n/a	2	11	3	1	7
305712	PROB	n/a	LTP389	ltpFR2	18	n/a	n/a	n/a	2	16	2	7	7
307195	PROB	n/a	LTP389	ltpFR2	18	n/a	n/a	n/a	2	23	8	8	7
309628	PROB	n/a	LTP389	ltpFR2	18	n/a	n/a	n/a	2	6	2	2	2
310662	PROB	n/a	LTP389	ltpFR2	18	n/a	n/a	n/a	2	19	9	1	9
311945	PROB	n/a	LTP389	ltpFR2	18	n/a	n/a	n/a	2	15	6	8	1
313345	PROB	n/a	LTP389	ltpFR2	18	n/a	n/a	n/a	2	15	4	7	4
314862	PROB	n/a	LTP389	ltpFR2	18	n/a	n/a	n/a	2	21	9	7	5
316378	PROB	n/a	LTP389	ltpFR2	18	n/a	n/a	n/a	2	9	2	4	3
317711	STOP	n/a	LTP389	ltpFR2	18	n/a	n/a	n/a	2	n/a	n/a	n/a	n/a
320029	REC_START	n/a	LTP389	ltpFR2	18	2	n/a	n/a	n/a	n/a	0	0	0
324964	REC_WORD	wordpools/wasnorm_wordpool_576.txt	LTP389	ltpFR2	18	2	PRINCE	1124	n/a	n/a	0	0	0
325985	REC_WORD	wordpools/wasnorm_wordpool_576.txt	LTP389	ltpFR2	18	2	CROWN	415	n/a	n/a	0	0	0
326935	REC_WORD	wordpools/wasnorm_wordpool_576.txt	LTP389	ltpFR2	18	2	COTTAGE	384	n/a	n/a	0	0	0
327927	REC_WORD	wordpools/wasnorm_wordpool_576.txt	LTP389	ltpFR2	18	2	BUCKET	184	n/a	n/a	0	0	0
329419	REC_WORD	wordpools/wasnorm_wordpool_576.txt	LTP389	ltpFR2	18	2	KITCHEN	778	n/a	n/a	0	0	0
330231	REC_WORD	wordpools/wasnorm_wordpool_576.txt	LTP389	ltpFR2	18	2	SALAD	1224	n/a	n/a	0	0	0
331231	REC_WORD	wordpools/wasnorm_wordpool_576.txt	LTP389	ltpFR2	18	2	WIFE	1609	n/a	n/a	0	0	0
332668	REC_WORD	wordpools/wasnorm_wordpool_576.txt	LTP389	ltpFR2	18	2	PISTOL	1075	n/a	n/a	0	0	0
333803	REC_WORD	wordpools/wasnorm_wordpool_576.txt	LTP389	ltpFR2	18	2	HIKER	708	n/a	n/a	0	0	0
335272	REC_WORD	wordpools/wasnorm_wordpool_576.txt	LTP389	ltpFR2	18	2	OUTDOORS	987	n/a	n/a	0	0	0
338160	REC_WORD	wordpools/wasnorm_wordpool_576.txt	LTP389	ltpFR2	18	2	COTTAGE	384	n/a	n/a	0	0	0
339313	REC_WORD	wordpools/wasnorm_wordpool_576.txt	LTP389	ltpFR2	18	2	GUARD	667	n/a	n/a	0	0	0
342124	REC_WORD	wordpools/wasnorm_wordpool_576.txt	LTP389	ltpFR2	18	2	BANK	83	n/a	n/a	0	0	0
348516	REC_WORD	wordpools/wasnorm_wordpool_576.txt	LTP389	ltpFR2	18	2	CAMEL	223	n/a	n/a	0	0	0
351210	REC_WORD	wordpools/wasnorm_wordpool_576.txt	LTP389	ltpFR2	18	2	STAPLE	1371	n/a	n/a	0	0	0
356583	REC_WORD	wordpools/wasnorm_wordpool_576.txt	LTP389	ltpFR2	18	2	JURY	766	n/a	n/a	0	0	0
393881	REC_WORD	wordpools/wasnorm_wordpool_576.txt	LTP389	ltpFR2	18	2	SKETCH	1315	n/a	n/a	0	0	0
410460	DISTRACTOR	n/a	LTP389	ltpFR2	18	3	n/a	n/a	n/a	n/a	0	0	0
410460	START	n/a	LTP389	ltpFR2	18	n/a	n/a	n/a	3	n/a	n/a	n/a	n/a
410477	PROB	n/a	LTP389	ltpFR2	18	n/a	n/a	n/a	3	14	1	4	9
411877	PROB	n/a	LTP389	ltpFR2	18	n/a	n/a	n/a	3	13	1	8	4
413327	PROB	n/a	LTP389	ltpFR2	18	n/a	n/a	n/a	3	11	2	6	3
414760	PROB	n/a	LTP389	ltpFR2	18	n/a	n/a	n/a	3	22	9	6	7
416794	PROB	n/a	LTP389	ltpFR2	18	n/a	n/a	n/a	3	16	6	7	3
418377	PROB	n/a	LTP389	ltpFR2	18	n/a	n/a	n/a	3	18	1	8	9
419610	PROB	n/a	LTP389	ltpFR2	18	n/a	n/a	n/a	3	18	8	9	1
420877	PROB	n/a	LTP389	ltpFR2	18	n/a	n/a	n/a	3	14	2	8	4
422177	PROB	n/a	LTP389	ltpFR2	18	n/a	n/a	n/a	3	5	2	2	1
423177	PROB	n/a	LTP389	ltpFR2	18	n/a	n/a	n/a	3	19	2	8	9
424560	PROB	n/a	LTP389	ltpFR2	18	n/a	n/a	n/a	3	17	6	9	2
426227	PROB	n/a	LTP389	ltpFR2	18	n/a	n/a	n/a	3	11	2	7	2
427844	PROB	n/a	LTP389	ltpFR2	18	n/a	n/a	n/a	3	14	5	2	7
429227	PROB	n/a	LTP389	ltpFR2	18	n/a	n/a	n/a	3	10	3	2	5
430794	PROB	n/a	LTP389	ltpFR2	18	n/a	n/a	n/a	3	5	1	2	2
431910	PROB	n/a	LTP389	ltpFR2	18	n/a	n/a	n/a	3	15	4	6	5
433026	STOP	n/a	LTP389	ltpFR2	18	n/a	n/a	n/a	3	n/a	n/a	n/a	n/a
435543	WORD	wordpools/wasnorm_wordpool_576.txt	LTP389	ltpFR2	18	3	LAPEL	800	n/a	n/a	0	0	0
438110	WORD	wordpools/wasnorm_wordpool_576.txt	LTP389	ltpFR2	18	3	BOX	159	n/a	n/a	0	0	0
440710	WORD	wordpools/wasnorm_wordpool_576.txt	LTP389	ltpFR2	18	3	FUNGUS	614	n/a	n/a	0	0	0
443326	WORD	wordpools/wasnorm_wordpool_576.txt	LTP389	ltpFR2	18	3	SHORTCAKE	1292	n/a	n/a	0	0	0
445777	WORD	wordpools/wasnorm_wordpool_576.txt	LTP389	ltpFR2	18	3	ORCHID	982	n/a	n/a	0	0	0
448509	WORD	wordpools/wasnorm_wordpool_576.txt	LTP389	ltpFR2	18	3	GYMNAST	675	n/a	n/a	0	0	0
450960	WORD	wordpools/wasnorm_wordpool_576.txt	LTP389	ltpFR2	18	3	FOOTBALL	591	n/a	n/a	0	0	0
453393	WORD	wordpools/wasnorm_wordpool_576.txt	LTP389	ltpFR2	18	3	COFFEE	341	n/a	n/a	0	0	0
456193	WORD	wordpools/wasnorm_wordpool_576.txt	LTP389	ltpFR2	18	3	SHERIFF	1284	n/a	n/a	0	0	0
458976	WORD	wordpools/wasnorm_wordpool_576.txt	LTP389	ltpFR2	18	3	SUNSET	1408	n/a	n/a	0	0	0
461609	WORD	wordpools/wasnorm_wordpool_576.txt	LTP389	ltpFR2	18	3	CROSS	413	n/a	n/a	0	0	0
464143	WORD	wordpools/wasnorm_wordpool_576.txt	LTP389	ltpFR2	18	3	CHURCH	307	n/a	n/a	0	0	0
466743	WORD	wordpools/wasnorm_wordpool_576.txt	LTP389	ltpFR2	18	3	BACKBONE	66	n/a	n/a	0	0	0
469226	WORD	wordpools/wasnorm_wordpool_576.txt	LTP389	ltpFR2	18	3	PACKAGE	997	n/a	n/a	0	0	0
471810	WORD	wordpools/wasnorm_wordpool_576.txt	LTP389	ltpFR2	18	3	RELISH	1183	n/a	n/a	0	0	0
474626	WORD	wordpools/wasnorm_wordpool_576.txt	LTP389	ltpFR2	18	3	SANDWICH	1232	n/a	n/a	0	0	0
477126	WORD	wordpools/wasnorm_wordpool_576.txt	LTP389	ltpFR2	18	3	STOVE	1388	n/a	n/a	0	0	0
479793	WORD	wordpools/wasnorm_wordpool_576.txt	LTP389	ltpFR2	18	3	ORANGE	980	n/a	n/a	0	0	0
482326	WORD	wordpools/wasnorm_wordpool_576.txt	LTP389	ltpFR2	18	3	CARRIAGE	248	n/a	n/a	0	0	0
485076	WORD	wordpools/wasnorm_wordpool_576.txt	LTP389	ltpFR2	18	3	ZIPPER	1636	n/a	n/a	0	0	0
487692	WORD	wordpools/wasnorm_wordpool_576.txt	LTP389	ltpFR2	18	3	TROUT	1511	n/a	n/a	0	0	0
490509	WORD	wordpools/wasnorm_wordpool_576.txt	LTP389	ltpFR2	18	3	YOLK	1633	n/a	n/a	0	0	0
493142	WORD	wordpools/wasnorm_wordpool_576.txt	LTP389	ltpFR2	18	3	MARROW	872	n/a	n/a	0	0	0
495642	WORD	wordpools/wasnorm_wordpool_576.txt	LTP389	ltpFR2	18	3	GARBAGE	622	n/a	n/a	0	0	0
497259	START	n/a	LTP389	ltpFR2	18	n/a	n/a	n/a	4	n/a	n/a	n/a	n/a
498159	DISTRACTOR	n/a	LTP389	ltpFR2	18	3	n/a	n/a	n/a	n/a	0	0	0
498175	PROB	n/a	LTP389	ltpFR2	18	n/a	n/a	n/a	4	12	7	2	3
499859	PROB	n/a	LTP389	ltpFR2	18	n/a	n/a	n/a	4	21	9	7	5
501492	PROB	n/a	LTP389	ltpFR2	18	n/a	n/a	n/a	4	9	3	3	3
502609	PROB	n/a	LTP389	ltpFR2	18	n/a	n/a	n/a	4	13	9	2	2
504075	PROB	n/a	LTP389	ltpFR2	18	n/a	n/a	n/a	4	10	1	7	2
505509	PROB	n/a	LTP389	ltpFR2	18	n/a	n/a	n/a	4	12	5	5	2
506609	PROB	n/a	LTP389	ltpFR2	18	n/a	n/a	n/a	4	14	7	3	4
507793	PROB	n/a	LTP389	ltpFR2	18	n/a	n/a	n/a	4	11	4	2	5
509275	PROB	n/a	LTP389	ltpFR2	18	n/a	n/a	n/a	4	18	5	6	7
510776	PROB	n/a	LTP389	ltpFR2	18	n/a	n/a	n/a	4	17	7	9	1
512292	PROB	n/a	LTP389	ltpFR2	18	n/a	n/a	n/a	4	19	8	5	6
514292	PROB	n/a	LTP389	ltpFR2	18	n/a	n/a	n/a	4	25	9	9	7
516592	PROB	n/a	LTP389	ltpFR2	18	n/a	n/a	n/a	4	13	1	5	7
518092	PROB	n/a	LTP389	ltpFR2	18	n/a	n/a	n/a	4	8	2	1	5
519893	STOP	n/a	LTP389	ltpFR2	18	n/a	n/a	n/a	4	n/a	n/a	n/a	n/a
523059	REC_START	n/a	LTP389	ltpFR2	18	3	n/a	n/a	n/a	n/a	0	0	0
525136	REC_WORD	wordpools/wasnorm_wordpool_576.txt	LTP389	ltpFR2	18	3	LAPEL	800	n/a	n/a	0	0	0
526539	REC_WORD	wordpools/wasnorm_wordpool_576.txt	LTP389	ltpFR2	18	3	BOX	159	n/a	n/a	0	0	0
528222	REC_WORD	wordpools/wasnorm_wordpool_576.txt	LTP389	ltpFR2	18	3	FUNGUS	614	n/a	n/a	0	0	0
529316	REC_WORD	wordpools/wasnorm_wordpool_576.txt	LTP389	ltpFR2	18	3	SHORTCAKE	1292	n/a	n/a	0	0	0
530397	REC_WORD	wordpools/wasnorm_wordpool_576.txt	LTP389	ltpFR2	18	3	COFFEE	341	n/a	n/a	0	0	0
531184	REC_WORD	wordpools/wasnorm_wordpool_576.txt	LTP389	ltpFR2	18	3	SANDWICH	1232	n/a	n/a	0	0	0
532283	REC_WORD	wordpools/wasnorm_wordpool_576.txt	LTP389	ltpFR2	18	3	COD	340	n/a	n/a	0	0	0
533261	REC_WORD	wordpools/wasnorm_wordpool_576.txt	LTP389	ltpFR2	18	3	YOLK	1633	n/a	n/a	0	0	0
534050	REC_WORD	wordpools/wasnorm_wordpool_576.txt	LTP389	ltpFR2	18	3	MARROW	872	n/a	n/a	0	0	0
536258	REC_WORD	wordpools/wasnorm_wordpool_576.txt	LTP389	ltpFR2	18	3	SHERIFF	1284	n/a	n/a	0	0	0
538543	REC_WORD	wordpools/wasnorm_wordpool_576.txt	LTP389	ltpFR2	18	3	ORCHID	982	n/a	n/a	0	0	0
547633	REC_WORD	wordpools/wasnorm_wordpool_576.txt	LTP389	ltpFR2	18	3	GYMNAST	675	n/a	n/a	0	0	0
548930	REC_WORD	wordpools/wasnorm_wordpool_576.txt	LTP389	ltpFR2	18	3	BOXER	160	n/a	n/a	0	0	0
553369	REC_WORD	wordpools/wasnorm_wordpool_576.txt	LTP389	ltpFR2	18	3	BACKBONE	66	n/a	n/a	0	0	0
561433	REC_WORD	wordpools/wasnorm_wordpool_576.txt	LTP389	ltpFR2	18	3	RELISH	1183	n/a	n/a	0	0	0
565808	REC_WORD	wordpools/wasnorm_wordpool_576.txt	LTP389	ltpFR2	18	3	ORANGE	980	n/a	n/a	0	0	0
573039	REC_WORD	wordpools/wasnorm_wordpool_576.txt	LTP389	ltpFR2	18	3	STOVE	1388	n/a	n/a	0	0	0
613507	WORD	wordpools/wasnorm_wordpool_576.txt	LTP389	ltpFR2	18	4	LACE	792	n/a	n/a	0	0	0
616274	WORD	wordpools/wasnorm_wordpool_576.txt	LTP389	ltpFR2	18	4	RIFLE	1192	n/a	n/a	0	0	0
618707	WORD	wordpools/wasnorm_wordpool_576.txt	LTP389	ltpFR2	18	4	FRIAR	605	n/a	n/a	0	0	0
621140	WORD	wordpools/wasnorm_wordpool_576.txt	LTP389	ltpFR2	18	4	PATIENT	1024	n/a	n/a	0	0	0
623690	WORD	wordpools/wasnorm_wordpool_576.txt	LTP389	ltpFR2	18	4	WINDOW	1611	n/a	n/a	0	0	0
626223	WORD	wordpools/wasnorm_wordpool_576.txt	LTP389	ltpFR2	18	4	GLASS	639	n/a	n/a	0	0	0
628791	WORD	wordpools/wasnorm_wordpool_576.txt	LTP389	ltpFR2	18	4	ROD	1203	n/a	n/a	0	0	0
631507	WORD	wordpools/wasnorm_wordpool_576.txt	LTP389	ltpFR2	18	4	BRACES	164	n/a	n/a	0	0	0
634323	WORD	wordpools/wasnorm_wordpool_576.txt	LTP389	ltpFR2	18	4	HOSTESS	723	n/a	n/a	0	0	0
636807	WORD	wordpools/wasnorm_wordpool_576.txt	LTP389	ltpFR2	18	4	MUSTARD	935	n/a	n/a	0	0	0
639306	WORD	wordpools/wasnorm_wordpool_576.txt	LTP389	ltpFR2	18	4	CHAPEL	280	n/a	n/a	0	0	0
642056	WORD	wordpools/wasnorm_wordpool_576.txt	LTP389	ltpFR2	18	4	EYELASH	546	n/a	n/a	0	0	0
644690	WORD	wordpools/wasnorm_wordpool_576.txt	LTP389	ltpFR2	18	4	CURTAIN	427	n/a	n/a	0	0	0
647223	WORD	wordpools/wasnorm_wordpool_576.txt	LTP389	ltpFR2	18	4	SUNRISE	1407	n/a	n/a	0	0	0
650006	WORD	wordpools/wasnorm_wordpool_576.txt	LTP389	ltpFR2	18	4	EMPIRE	530	n/a	n/a	0	0	0
652706	WORD	wordpools/wasnorm_wordpool_576.txt	LTP389	ltpFR2	18	4	BOUQUET	157	n/a	n/a	0	0	0
655356	WORD	wordpools/wasnorm_wordpool_576.txt	LTP389	ltpFR2	18	4	BABY	64	n/a	n/a	0	0	0
658089	WORD	wordpools/wasnorm_wordpool_576.txt	LTP389	ltpFR2	18	4	FRECKLE	602	n/a	n/a	0	0	0
660706	WORD	wordpools/wasnorm_wordpool_576.txt	LTP389	ltpFR2	18	4	STALLION	1369	n/a	n/a	0	0	0
663389	WORD	wordpools/wasnorm_wordpool_576.txt	LTP389	ltpFR2	18	4	CONVICT	371	n/a	n/a	0	0	0
666056	WORD	wordpools/wasnorm_wordpool_576.txt	LTP389	ltpFR2	18	4	SUSPECT	1415	n/a	n/a	0	0	0
668523	WORD	wordpools/wasnorm_wordpool_576.txt	LTP389	ltpFR2	18	4	TEACHER	1440	n/a	n/a	0	0	0
671273	WORD	wordpools/wasnorm_wordpool_576.txt	LTP389	ltpFR2	18	4	COURSE	390	n/a	n/a	0	0	0
673706	WORD	wordpools/wasnorm_wordpool_576.txt	LTP389	ltpFR2	18	4	WORLD	1622	n/a	n/a	0	0	0
675323	START	n/a	LTP389	ltpFR2	18	n/a	n/a	n/a	5	n/a	n/a	n/a	n/a
676326	DISTRACTOR	n/a	LTP389	ltpFR2	18	4	n/a	n/a	n/a	n/a	0	0	0
676339	PROB	n/a	LTP389	ltpFR2	18	n/a	n/a	n/a	5	16	9	1	6
677639	PROB	n/a	LTP389	ltpFR2	18	n/a	n/a	n/a	5	11	3	6	2
679122	PROB	n/a	LTP389	ltpFR2	18	n/a	n/a	n/a	5	21	5	9	7
681572	PROB	n/a	LTP389	ltpFR2	18	n/a	n/a	n/a	5	16	4	8	4
683606	PROB	n/a	LTP389	ltpFR2	18	n/a	n/a	n/a	5	13	1	4	8
685389	PROB	n/a	LTP389	ltpFR2	18	n/a	n/a	n/a	5	18	5	4	9
686622	PROB	n/a	LTP389	ltpFR2	18	n/a	n/a	n/a	5	16	5	4	7
687972	PROB	n/a	LTP389	ltpFR2	18	n/a	n/a	n/a	5	11	5	4	2
689556	PROB	n/a	LTP389	ltpFR2	18	n/a	n/a	n/a	5	15	9	2	4
690773	PROB	n/a	LTP389	ltpFR2	18	n/a	n/a	n/a	5	19	5	6	8
692089	PROB	n/a	LTP389	ltpFR2	18	n/a	n/a	n/a	5	14	8	1	5
693222	PROB	n/a	LTP389	ltpFR2	18	n/a	n/a	n/a	5	7	2	1	4
694722	PROB	n/a	LTP389	ltpFR2	18	n/a	n/a	n/a	5	18	3	8	7
696072	PROB	n/a	LTP389	ltpFR2	18	n/a	n/a	n/a	5	21	5	8	8
698506	STOP	n/a	LTP389	ltpFR2	18	n/a	n/a	n/a	5	n/a	n/a	n/a	n/a
701222	REC_START	n/a	LTP389	ltpFR2	18	4	n/a	n/a	n/a	n/a	0	0	0
704591	REC_WORD	wordpools/wasnorm_wordpool_576.txt	LTP389	ltpFR2	18	4	LACE	792	n/a	n/a	0	0	0
706875	REC_WORD	wordpools/wasnorm_wordpool_576.txt	LTP389	ltpFR2	18	4	RIFLE	1192	n/a	n/a	0	0	0
708076	REC_WORD	wordpools/wasnorm_wordpool_576.txt	LTP389	ltpFR2	18	4	EYELASH	546	n/a	n/a	0	0	0
709223	REC_WORD	wordpools/wasnorm_wordpool_576.txt	LTP389	ltpFR2	18	4	FRIAR	605	n/a	n/a	0	0	0
710993	REC_WORD	wordpools/wasnorm_wordpool_576.txt	LTP389	ltpFR2	18	4	SUNRISE	1407	n/a	n/a	0	0	0
712348	REC_WORD	wordpools/wasnorm_wordpool_576.txt	LTP389	ltpFR2	18	4	BRACES	164	n/a	n/a	0	0	0
713318	REC_WORD	wordpools/wasnorm_wordpool_576.txt	LTP389	ltpFR2	18	4	STALLION	1369	n/a	n/a	0	0	0
715757	REC_WORD	wordpools/wasnorm_wordpool_576.txt	LTP389	ltpFR2	18	4	ROD	1203	n/a	n/a	0	0	0
717381	REC_WORD	wordpools/wasnorm_wordpool_576.txt	LTP389	ltpFR2	18	4	GLASS	639	n/a	n/a	0	0	0
718722	REC_WORD	wordpools/wasnorm_wordpool_576.txt	LTP389	ltpFR2	18	4	WINDOW	1611	n/a	n/a	0	0	0
723990	REC_WORD	wordpools/wasnorm_wordpool_576.txt	LTP389	ltpFR2	18	4	COURSE	390	n/a	n/a	0	0	0
725693	REC_WORD	wordpools/wasnorm_wordpool_576.txt	LTP389	ltpFR2	18	4	SUSPECT	1415	n/a	n/a	0	0	0
729872	REC_WORD	wordpools/wasnorm_wordpool_576.txt	LTP389	ltpFR2	18	4	TEACHER	1440	n/a	n/a	0	0	0
734260	REC_WORD	wordpools/wasnorm_wordpool_576.txt	LTP389	ltpFR2	18	4	INMATE	738	n/a	n/a	0	0	0
738793	REC_WORD	wordpools/wasnorm_wordpool_576.txt	LTP389	ltpFR2	18	4	WORLD	1622	n/a	n/a	0	0	0
744149	REC_WORD	wordpools/wasnorm_wordpool_576.txt	LTP389	ltpFR2	18	4	CHURCH	307	n/a	n/a	0	0	0
745830	REC_WORD	wordpools/wasnorm_wordpool_576.txt	LTP389	ltpFR2	18	4	CHAPEL	280	n/a	n/a	0	0	0
764192	REC_WORD	wordpools/wasnorm_wordpool_576.txt	LTP389	ltpFR2	18	4	BABY	64	n/a	n/a	0	0	0
765500	REC_WORD	wordpools/wasnorm_wordpool_576.txt	LTP389	ltpFR2	18	4	FRECKLE	602	n/a	n/a	0	0	0
791671	DISTRACTOR	n/a	LTP389	ltpFR2	18	5	n/a	n/a	n/a	n/a	0	0	0
791671	START	n/a	LTP389	ltpFR2	18	n/a	n/a	n/a	6	n/a	n/a	n/a	n/a
791687	PROB	n/a	LTP389	ltpFR2	18	n/a	n/a	n/a	6	19	8	4	7
793471	PROB	n/a	LTP389	ltpFR2	18	n/a	n/a	n/a	6	16	2	9	5
794788	PROB	n/a	LTP389	ltpFR2	18	n/a	n/a	n/a	6	18	8	8	2
796037	PROB	n/a	LTP389	ltpFR2	18	n/a	n/a	n/a	6	13	8	4	1
797404	PROB	n/a	LTP389	ltpFR2	18	n/a	n/a	n/a	6	5	1	3	1
798437	PROB	n/a	LTP389	ltpFR2	18	n/a	n/a	n/a	6	12	6	4	2
799604	PROB	n/a	LTP389	ltpFR2	18	n/a	n/a	n/a	6	12	4	7	1
801370	PROB	n/a	LTP389	ltpFR2	18	n/a	n/a	n/a	6	11	6	3	2
802537	PROB	n/a	LTP389	ltpFR2	18	n/a	n/a	n/a	6	6	2	1	3
804937	PROB	n/a	LTP389	ltpFR2	18	n/a	n/a	n/a	6	14	4	9	1
806254	PROB	n/a	LTP389	ltpFR2	18	n/a	n/a	n/a	6	16	7	4	5
807887	PROB	n/a	LTP389	ltpFR2	18	n/a	n/a	n/a	6	21	7	9	5
809821	PROB	n/a	LTP389	ltpFR2	18	n/a	n/a	n/a	6	15	6	2	7
812154	PROB	n/a	LTP389	ltpFR2	18	n/a	n/a	n/a	6	15	3	9	3
815671	STOP	n/a	LTP389	ltpFR2	18	n/a	n/a	n/a	6	n/a	n/a	n/a	n/a
816737	WORD	wordpools/wasnorm_wordpool_576.txt	LTP389	ltpFR2	18	5	DRILL	497	n/a	n/a	0	0	0
819337	WORD	wordpools/wasnorm_wordpool_576.txt	LTP389	ltpFR2	18	5	SHORTS	1293	n/a	n/a	0	0	0
821970	WORD	wordpools/wasnorm_wordpool_576.txt	LTP389	ltpFR2	18	5	BRICK	172	n/a	n/a	0	0	0
824637	WORD	wordpools/wasnorm_wordpool_576.txt	LTP389	ltpFR2	18	5	LION	827	n/a	n/a	0	0	0
827087	WORD	wordpools/wasnorm_wordpool_576.txt	LTP389	ltpFR2	18	5	DRESSER	496	n/a	n/a	0	0	0
829770	WORD	wordpools/wasnorm_wordpool_576.txt	LTP389	ltpFR2	18	5	SHELTER	1282	n/a	n/a	0	0	0
832320	WORD	wordpools/wasnorm_wordpool_576.txt	LTP389	ltpFR2	18	5	KNIFE	785	n/a	n/a	0	0	0
834986	WORD	wordpools/wasnorm_wordpool_576.txt	LTP389	ltpFR2	18	5	DENTIST	447	n/a	n/a	0	0	0
837553	WORD	wordpools/wasnorm_wordpool_576.txt	LTP389	ltpFR2	18	5	TEMPLE	1448	n/a	n/a	0	0	0
840270	WORD	wordpools/wasnorm_wordpool_576.txt	LTP389	ltpFR2	18	5	EGYPT	519	n/a	n/a	0	0	0
842770	WORD	wordpools/wasnorm_wordpool_576.txt	LTP389	ltpFR2	18	5	PILOT	1070	n/a	n/a	0	0	0
845253	WORD	wordpools/wasnorm_wordpool_576.txt	LTP389	ltpFR2	18	5	LEOPARD	812	n/a	n/a	0	0	0
848053	WORD	wordpools/wasnorm_wordpool_576.txt	LTP389	ltpFR2	18	5	SHRUB	1299	n/a	n/a	0	0	0
850520	WORD	wordpools/wasnorm_wordpool_576.txt	LTP389	ltpFR2	18	5	BARLEY	88	n/a	n/a	0	0	0
853286	WORD	wordpools/wasnorm_wordpool_576.txt	LTP389	ltpFR2	18	5	WITNESS	1618	n/a	n/a	0	0	0
855736	WORD	wordpools/wasnorm_wordpool_576.txt	LTP389	ltpFR2	18	5	WAGON	1578	n/a	n/a	0	0	0
858503	WORD	wordpools/wasnorm_wordpool_576.txt	LTP389	ltpFR2	18	5	QUAIL	1147	n/a	n/a	0	0	0
861219	WORD	wordpools/wasnorm_wordpool_576.txt	LTP389	ltpFR2	18	5	HAWK	692	n/a	n/a	0	0	0
863919	WORD	wordpools/wasnorm_wordpool_576.txt	LTP389	ltpFR2	18	5	COSTUME	383	n/a	n/a	0	0	0
866369	WORD	wordpools/wasnorm_wordpool_576.txt	LTP389	ltpFR2	18	5	ICING	732	n/a	n/a	0	0	0
869003	WORD	wordpools/wasnorm_wordpool_576.txt	LTP389	ltpFR2	18	5	BIKE	125	n/a	n/a	0	0	0
871486	WORD	wordpools/wasnorm_wordpool_576.txt	LTP389	ltpFR2	18	5	TURKEY	1520	n/a	n/a	0	0	0
874053	WORD	wordpools/wasnorm_wordpool_576.txt	LTP389	ltpFR2	18	5	DONOR	485	n/a	n/a	0	0	0
876787	WORD	wordpools/wasnorm_wordpool_576.txt	LTP389	ltpFR2	18	5	SURVEY	1414	n/a	n/a	0	0	0
878403	START	n/a	LTP389	ltpFR2	18	n/a	n/a	n/a	7	n/a	n/a	n/a	n/a
879320	DISTRACTOR	n/a	LTP389	ltpFR2	18	5	n/a	n/a	n/a	n/a	0	0	0
879336	PROB	n/a	LTP389	ltpFR2	18	n/a	n/a	n/a	7	8	1	6	1
880902	PROB	n/a	LTP389	ltpFR2	18	n/a	n/a	n/a	7	19	8	2	9
882119	PROB	n/a	LTP389	ltpFR2	18	n/a	n/a	n/a	7	16	6	9	1
883402	PROB	n/a	LTP389	ltpFR2	18	n/a	n/a	n/a	7	13	8	2	3
884787	PROB	n/a	LTP389	ltpFR2	18	n/a	n/a	n/a	7	11	5	1	5
885869	PROB	n/a	LTP389	ltpFR2	18	n/a	n/a	n/a	7	18	4	6	8
887102	PROB	n/a	LTP389	ltpFR2	18	n/a	n/a	n/a	7	14	4	6	4
888552	PROB	n/a	LTP389	ltpFR2	18	n/a	n/a	n/a	7	18	7	6	5
890419	PROB	n/a	LTP389	ltpFR2	18	n/a	n/a	n/a	7	21	6	7	8
893402	PROB	n/a	LTP389	ltpFR2	18	n/a	n/a	n/a	7	15	7	4	4
894685	PROB	n/a	LTP389	ltpFR2	18	n/a	n/a	n/a	7	15	5	2	8
896119	PROB	n/a	LTP389	ltpFR2	18	n/a	n/a	n/a	7	12	3	2	7
897803	PROB	n/a	LTP389	ltpFR2	18	n/a	n/a	n/a	7	17	7	6	4
899235	PROB	n/a	LTP389	ltpFR2	18	n/a	n/a	n/a	7	13	2	7	4
901360	STOP	n/a	LTP389	ltpFR2	18	n/a	n/a	n/a	7	n/a	n/a	n/a	n/a
904336	REC_START	n/a	LTP389	ltpFR2	18	5	n/a	n/a	n/a	n/a	0	0	0
906099	REC_WORD	wordpools/wasnorm_wordpool_576.txt	LTP389	ltpFR2	18	5	DRILL	497	n/a	n/a	0	0	0
906869	REC_WORD	wordpools/wasnorm_wordpool_576.txt	LTP389	ltpFR2	18	5	SHORTS	1293	n/a	n/a	0	0	0
907872	REC_WORD	wordpools/wasnorm_wordpool_576.txt	LTP389	ltpFR2	18	5	LION	827	n/a	n/a	0	0	0
908790	REC_WORD	wordpools/wasnorm_wordpool_576.txt	LTP389	ltpFR2	18	5	LEOPARD	812	n/a	n/a	0	0	0
909698	REC_WORD	wordpools/wasnorm_wordpool_576.txt	LTP389	ltpFR2	18	5	BRICK	172	n/a	n/a	0	0	0
912314	REC_WORD	wordpools/wasnorm_wordpool_576.txt	LTP389	ltpFR2	18	5	DENTIST	447	n/a	n/a	0	0	0
914660	REC_WORD	wordpools/wasnorm_wordpool_576.txt	LTP389	ltpFR2	18	5	PILOT	1070	n/a	n/a	0	0	0
917236	REC_WORD	wordpools/wasnorm_wordpool_576.txt	LTP389	ltpFR2	18	5	OUTFIT	988	n/a	n/a	0	0	0
918580	REC_WORD	wordpools/wasnorm_wordpool_576.txt	LTP389	ltpFR2	18	5	UNIFORM	1539	n/a	n/a	0	0	0
920476	REC_WORD	wordpools/wasnorm_wordpool_576.txt	LTP389	ltpFR2	18	5	EGYPT	519	n/a	n/a	0	0	0
921596	REC_WORD	wordpools/wasnorm_wordpool_576.txt	LTP389	ltpFR2	18	5	TURKEY	1520	n/a	n/a	0	0	0
932553	REC_WORD	wordpools/wasnorm_wordpool_576.txt	LTP389	ltpFR2	18	5	SHRUB	1299	n/a	n/a	0	0	0
934442	REC_WORD	wordpools/wasnorm_wordpool_576.txt	LTP389	ltpFR2	18	5	BARLEY	88	n/a	n/a	0	0	0
942538	REC_WORD	wordpools/wasnorm_wordpool_576.txt	LTP389	ltpFR2	18	5	HAWK	692	n/a	n/a	0	0	0
976996	REC_WORD	wordpools/wasnorm_wordpool_576.txt	LTP389	ltpFR2	18	5	SHELTER	1282	n/a	n/a	0	0	0
994767	DISTRACTOR	n/a	LTP389	ltpFR2	18	6	n/a	n/a	n/a	n/a	0	0	0
994767	START	n/a	LTP389	ltpFR2	18	n/a	n/a	n/a	8	n/a	n/a	n/a	n/a
994785	PROB	n/a	LTP389	ltpFR2	18	n/a	n/a	n/a	8	20	3	8	9
996417	PROB	n/a	LTP389	ltpFR2	18	n/a	n/a	n/a	8	16	7	2	7
998084	PROB	n/a	LTP389	ltpFR2	18	n/a	n/a	n/a	8	22	8	4	9
1000350	PROB	n/a	LTP389	ltpFR2	18	n/a	n/a	n/a	8	21	9	8	4
1002835	PROB	n/a	LTP389	ltpFR2	18	n/a	n/a	n/a	8	14	8	2	4
1003967	PROB	n/a	LTP389	ltpFR2	18	n/a	n/a	n/a	8	14	3	9	2
1005600	PROB	n/a	LTP389	ltpFR2	18	n/a	n/a	n/a	8	23	8	9	6
1008117	PROB	n/a	LTP389	ltpFR2	18	n/a	n/a	n/a	8	21	8	9	4
1011417	PROB	n/a	LTP389	ltpFR2	18	n/a	n/a	n/a	8	16	6	5	5
1012567	PROB	n/a	LTP389	ltpFR2	18	n/a	n/a	n/a	8	18	8	8	2
1013900	PROB	n/a	LTP389	ltpFR2	18	n/a	n/a	n/a	8	13	6	5	2
1015217	PROB	n/a	LTP389	ltpFR2	18	n/a	n/a	n/a	8	12	4	7	1
1016883	PROB	n/a	LTP389	ltpFR2	18	n/a	n/a	n/a	8	17	7	7	3
1018547	STOP	n/a	LTP389	ltpFR2	18	n/a	n/a	n/a	8	n/a	n/a	n/a	n/a
1019767	WORD	wordpools/wasnorm_wordpool_576.txt	LTP389	ltpFR2	18	6	FOX	598	n/a	n/a	0	0	0
1022267	WORD	wordpools/wasnorm_wordpool_576.txt	LTP389	ltpFR2	18	6	BUG	187	n/a	n/a	0	0	0
1024950	WORD	wordpools/wasnorm_wordpool_576.txt	LTP389	ltpFR2	18	6	CABBAGE	210	n/a	n/a	0	0	0
1027450	WORD	wordpools/wasnorm_wordpool_576.txt	LTP389	ltpFR2	18	6	DIME	466	n/a	n/a	0	0	0
1030200	WORD	wordpools/wasnorm_wordpool_576.txt	LTP389	ltpFR2	18	6	SPARROW	1347	n/a	n/a	0	0	0
1032818	WORD	wordpools/wasnorm_wordpool_576.txt	LTP389	ltpFR2	18	6	TORTOISE	1486	n/a	n/a	0	0	0
1035433	WORD	wordpools/wasnorm_wordpool_576.txt	LTP389	ltpFR2	18	6	BUNNY	198	n/a	n/a	0	0	0
1038233	WORD	wordpools/wasnorm_wordpool_576.txt	LTP389	ltpFR2	18	6	RABBIT	1152	n/a	n/a	0	0	0
1040900	WORD	wordpools/wasnorm_wordpool_576.txt	LTP389	ltpFR2	18	6	FLASHLIGHT	575	n/a	n/a	0	0	0
1043350	WORD	wordpools/wasnorm_wordpool_576.txt	LTP389	ltpFR2	18	6	FRUIT	610	n/a	n/a	0	0	0
1046066	WORD	wordpools/wasnorm_wordpool_576.txt	LTP389	ltpFR2	18	6	PEACH	1031	n/a	n/a	0	0	0
1048616	WORD	wordpools/wasnorm_wordpool_576.txt	LTP389	ltpFR2	18	6	NECKLACE	940	n/a	n/a	0	0	0
1051116	WORD	wordpools/wasnorm_wordpool_576.txt	LTP389	ltpFR2	18	6	HARP	689	n/a	n/a	0	0	0
1053784	WORD	wordpools/wasnorm_wordpool_576.txt	LTP389	ltpFR2	18	6	PUDDING	1139	n/a	n/a	0	0	0
1056333	WORD	wordpools/wasnorm_wordpool_576.txt	LTP389	ltpFR2	18	6	CLAMP	316	n/a	n/a	0	0	0
1059050	WORD	wordpools/wasnorm_wordpool_576.txt	LTP389	ltpFR2	18	6	POSSUM	1112	n/a	n/a	0	0	0
1061716	WORD	wordpools/wasnorm_wordpool_576.txt	LTP389	ltpFR2	18	6	TURTLE	1522	n/a	n/a	0	0	0
1064283	WORD	wordpools/wasnorm_wordpool_576.txt	LTP389	ltpFR2	18	6	LASER	801	n/a	n/a	0	0	0
1066849	WORD	wordpools/wasnorm_wordpool_576.txt	LTP389	ltpFR2	18	6	COUCH	386	n/a	n/a	0	0	0
1069499	WORD	wordpools/wasnorm_wordpool_576.txt	LTP389	ltpFR2	18	6	PECAN	1036	n/a	n/a	0	0	0
1072266	WORD	wordpools/wasnorm_wordpool_576.txt	LTP389	ltpFR2	18	6	FIDDLE	561	n/a	n/a	0	0	0
1075016	WORD	wordpools/wasnorm_wordpool_576.txt	LTP389	ltpFR2	18	6	SAUSAGE	1238	n/a	n/a	0	0	0
1077666	WORD	wordpools/wasnorm_wordpool_576.txt	LTP389	ltpFR2	18	6	CAFE	216	n/a	n/a	0	0	0
1080466	WORD	wordpools/wasnorm_wordpool_576.txt	LTP389	ltpFR2	18	6	PICNIC	1060	n/a	n/a	0	0	0
1082083	START	n/a	LTP389	ltpFR2	18	n/a	n/a	n/a	9	n/a	n/a	n/a	n/a
1082962	DISTRACTOR	n/a	LTP389	ltpFR2	18	6	n/a	n/a	n/a	n/a	0	0	0
1082966	PROB	n/a	LTP389	ltpFR2	18	n/a	n/a	n/a	9	9	5	3	1
1084682	PROB	n/a	LTP389	ltpFR2	18	n/a	n/a	n/a	9	17	9	4	4
1086066	PROB	n/a	LTP389	ltpFR2	18	n/a	n/a	n/a	9	8	3	2	3
1087482	PROB	n/a	LTP389	ltpFR2	18	n/a	n/a	n/a	9	13	4	6	3
1088932	PROB	n/a	LTP389	ltpFR2	18	n/a	n/a	n/a	9	9	3	1	5
1090332	PROB	n/a	LTP389	ltpFR2	18	n/a	n/a	n/a	9	16	4	4	8
1091699	PROB	n/a	LTP389	ltpFR2	18	n/a	n/a	n/a	9	12	4	3	5
1093949	PROB	n/a	LTP389	ltpFR2	18	n/a	n/a	n/a	9	22	9	8	5
1095566	PROB	n/a	LTP389	ltpFR2	18	n/a	n/a	n/a	9	13	2	9	2
1096866	PROB	n/a	LTP389	ltpFR2	18	n/a	n/a	n/a	9	9	3	3	3
1097865	PROB	n/a	LTP389	ltpFR2	18	n/a	n/a	n/a	9	19	9	9	1
1099466	PROB	n/a	LTP389	ltpFR2	18	n/a	n/a	n/a	9	15	7	4	4
1100783	PROB	n/a	LTP389	ltpFR2	18	n/a	n/a	n/a	9	16	3	4	9
1102032	PROB	n/a	LTP389	ltpFR2	18	n/a	n/a	n/a	9	18	9	4	5
1103399	PROB	n/a	LTP389	ltpFR2	18	n/a	n/a	n/a	9	13	1	3	9
1104742	STOP	n/a	LTP389	ltpFR2	18	n/a	n/a	n/a	9	n/a	n/a	n/a	n/a
1107982	REC_START	n/a	LTP389	ltpFR2	18	6	n/a	n/a	n/a	n/a	0	0	0
1110374	REC_WORD	wordpools/wasnorm_wordpool_576.txt	LTP389	ltpFR2	18	6	FOX	598	n/a	n/a	0	0	0
1111362	REC_WORD	wordpools/wasnorm_wordpool_576.txt	LTP389	ltpFR2	18	6	BUNNY	198	n/a	n/a	0	0	0
1112049	REC_WORD	wordpools/wasnorm_wordpool_576.txt	LTP389	ltpFR2	18	6	RABBIT	1152	n/a	n/a	0	0	0
1112740	REC_WORD	wordpools/wasnorm_wordpool_576.txt	LTP389	ltpFR2	18	6	SLUG	1329	n/a	n/a	0	0	0
1113747	REC_WORD	wordpools/wasnorm_wordpool_576.txt	LTP389	ltpFR2	18	6	TORTOISE	1486	n/a	n/a	0	0	0
1114704	REC_WORD	wordpools/wasnorm_wordpool_576.txt	LTP389	ltpFR2	18	6	TURTLE	1522	n/a	n/a	0	0	0
1115807	REC_WORD	wordpools/wasnorm_wordpool_576.txt	LTP389	ltpFR2	18	6	CABBAGE	210	n/a	n/a	0	0	0
1117768	REC_WORD	wordpools/wasnorm_wordpool_576.txt	LTP389	ltpFR2	18	6	DIME	466	n/a	n/a	0	0	0
1118566	REC_WORD	wordpools/wasnorm_wordpool_576.txt	LTP389	ltpFR2	18	6	CLAMP	316	n/a	n/a	0	0	0
1120437	REC_WORD	wordpools/wasnorm_wordpool_576.txt	LTP389	ltpFR2	18	6	NECKLACE	940	n/a	n/a	0	0	0
1125527	REC_WORD	wordpools/wasnorm_wordpool_576.txt	LTP389	ltpFR2	18	6	POSSUM	1112	n/a	n/a	0	0	0
1127815	REC_WORD	wordpools/wasnorm_wordpool_576.txt	LTP389	ltpFR2	18	6	CAFE	216	n/a	n/a	0	0	0
1129025	REC_WORD	wordpools/wasnorm_wordpool_576.txt	LTP389	ltpFR2	18	6	PICNIC	1060	n/a	n/a	0	0	0
1134628	REC_WORD	wordpools/wasnorm_wordpool_576.txt	LTP389	ltpFR2	18	6	FRUIT	610	n/a	n/a	0	0	0
1137951	REC_WORD	wordpools/wasnorm_wordpool_576.txt	LTP389	ltpFR2	18	6	PEACH	1031	n/a	n/a	0	0	0
1147219	REC_WORD	wordpools/wasnorm_wordpool_576.txt	LTP389	ltpFR2	18	6	PECAN	1036	n/a	n/a	0	0	0
1157531	REC_WORD	wordpools/wasnorm_wordpool_576.txt	LTP389	ltpFR2	18	6	HARP	689	n/a	n/a	0	0	0
1198431	DISTRACTOR	n/a	LTP389	ltpFR2	18	7	n/a	n/a	n/a	n/a	0	0	0
1198431	START	n/a	LTP389	ltpFR2	18	n/a	n/a	n/a	10	n/a	n/a	n/a	n/a
1198447	PROB	n/a	LTP389	ltpFR2	18	n/a	n/a	n/a	10	9	2	5	2
1199914	PROB	n/a	LTP389	ltpFR2	18	n/a	n/a	n/a	10	24	7	9	6
1201680	PROB	n/a	LTP389	ltpFR2	18	n/a	n/a	n/a	10	18	7	4	7
1203680	PROB	n/a	LTP389	ltpFR2	18	n/a	n/a	n/a	10	11	5	2	4
1205164	PROB	n/a	LTP389	ltpFR2	18	n/a	n/a	n/a	10	15	2	9	4
1206447	PROB	n/a	LTP389	ltpFR2	18	n/a	n/a	n/a	10	10	4	1	5
1208664	PROB	n/a	LTP389	ltpFR2	18	n/a	n/a	n/a	10	22	9	8	4
1210897	PROB	n/a	LTP389	ltpFR2	18	n/a	n/a	n/a	10	11	2	2	7
1212547	PROB	n/a	LTP389	ltpFR2	18	n/a	n/a	n/a	10	16	6	2	8
1213847	PROB	n/a	LTP389	ltpFR2	18	n/a	n/a	n/a	10	8	1	3	4
1214897	PROB	n/a	LTP389	ltpFR2	18	n/a	n/a	n/a	10	12	7	3	2
1217230	PROB	n/a	LTP389	ltpFR2	18	n/a	n/a	n/a	10	17	8	3	7
1218564	PROB	n/a	LTP389	ltpFR2	18	n/a	n/a	n/a	10	11	4	1	6
1220047	PROB	n/a	LTP389	ltpFR2	18	n/a	n/a	n/a	10	12	3	3	6
1221105	STOP	n/a	LTP389	ltpFR2	18	n/a	n/a	n/a	10	n/a	n/a	n/a	n/a
1223613	WORD	wordpools/wasnorm_wordpool_576.txt	LTP389	ltpFR2	18	7	ELBOW	520	n/a	n/a	0	0	0
1226347	WORD	wordpools/wasnorm_wordpool_576.txt	LTP389	ltpFR2	18	7	BRAKE	166	n/a	n/a	0	0	0
1228963	WORD	wordpools/wasnorm_wordpool_576.txt	LTP389	ltpFR2	18	7	HOOD	714	n/a	n/a	0	0	0
1231547	WORD	wordpools/wasnorm_wordpool_576.txt	LTP389	ltpFR2	18	7	PEANUT	1032	n/a	n/a	0	0	0
1234297	WORD	wordpools/wasnorm_wordpool_576.txt	LTP389	ltpFR2	18	7	MUFFIN	929	n/a	n/a	0	0	0
1236997	WORD	wordpools/wasnorm_wordpool_576.txt	LTP389	ltpFR2	18	7	CIGAR	308	n/a	n/a	0	0	0
1239597	WORD	wordpools/wasnorm_wordpool_576.txt	LTP389	ltpFR2	18	7	STONE	1385	n/a	n/a	0	0	0
1242363	WORD	wordpools/wasnorm_wordpool_576.txt	LTP389	ltpFR2	18	7	BACON	67	n/a	n/a	0	0	0
1244797	WORD	wordpools/wasnorm_wordpool_576.txt	LTP389	ltpFR2	18	7	RACKET	1155	n/a	n/a	0	0	0
1247513	WORD	wordpools/wasnorm_wordpool_576.txt	LTP389	ltpFR2	18	7	FRAME	600	n/a	n/a	0	0	0
1250180	WORD	wordpools/wasnorm_wordpool_576.txt	LTP389	ltpFR2	18	7	POLICE	1098	n/a	n/a	0	0	0
1252797	WORD	wordpools/wasnorm_wordpool_576.txt	LTP389	ltpFR2	18	7	BLOUSE	139	n/a	n/a	0	0	0
1255280	WORD	wordpools/wasnorm_wordpool_576.txt	LTP389	ltpFR2	18	7	PLAID	1080	n/a	n/a	0	0	0
1258013	WORD	wordpools/wasnorm_wordpool_576.txt	LTP389	ltpFR2	18	7	ACTRESS	6	n/a	n/a	0	0	0
1260797	WORD	wordpools/wasnorm_wordpool_576.txt	LTP389	ltpFR2	18	7	MARSH	874	n/a	n/a	0	0	0
1263313	WORD	wordpools/wasnorm_wordpool_576.txt	LTP389	ltpFR2	18	7	HIGHWAY	707	n/a	n/a	0	0	0
1266113	WORD	wordpools/wasnorm_wordpool_576.txt	LTP389	ltpFR2	18	7	VALVE	1546	n/a	n/a	0	0	0
1268814	WORD	wordpools/wasnorm_wordpool_576.txt	LTP389	ltpFR2	18	7	PAIL	1002	n/a	n/a	0	0	0
1271329	WORD	wordpools/wasnorm_wordpool_576.txt	LTP389	ltpFR2	18	7	AUTHOR	61	n/a	n/a	0	0	0
1274113	WORD	wordpools/wasnorm_wordpool_576.txt	LTP389	ltpFR2	18	7	OMELET	976	n/a	n/a	0	0	0
1276896	WORD	wordpools/wasnorm_wordpool_576.txt	LTP389	ltpFR2	18	7	UMPIRE	1535	n/a	n/a	0	0	0
1279479	WORD	wordpools/wasnorm_wordpool_576.txt	LTP389	ltpFR2	18	7	CAPTIVE	240	n/a	n/a	0	0	0
1282112	WORD	wordpools/wasnorm_wordpool_576.txt	LTP389	ltpFR2	18	7	COCKTAIL	338	n/a	n/a	0	0	0
1284762	WORD	wordpools/wasnorm_wordpool_576.txt	LTP389	ltpFR2	18	7	SIBLING	1301	n/a	n/a	0	0	0
1286379	START	n/a	LTP389	ltpFR2	18	n/a	n/a	n/a	11	n/a	n/a	n/a	n/a
1287343	DISTRACTOR	n/a	LTP389	ltpFR2	18	7	n/a	n/a	n/a	n/a	0	0	0
1287346	PROB	n/a	LTP389	ltpFR2	18	n/a	n/a	n/a	11	17	5	3	9
1289212	PROB	n/a	LTP389	ltpFR2	18	n/a	n/a	n/a	11	14	3	2	9
1290446	PROB	n/a	LTP389	ltpFR2	18	n/a	n/a	n/a	11	22	8	9	4
1292446	PROB	n/a	LTP389	ltpFR2	18	n/a	n/a	n/a	11	15	3	7	5
1294112	PROB	n/a	LTP389	ltpFR2	18	n/a	n/a	n/a	11	11	2	8	1
1295196	PROB	n/a	LTP389	ltpFR2	18	n/a	n/a	n/a	11	11	3	3	5
1296312	PROB	n/a	LTP389	ltpFR2	18	n/a	n/a	n/a	11	16	8	6	2
1297912	PROB	n/a	LTP389	ltpFR2	18	n/a	n/a	n/a	11	9	7	1	1
1298929	PROB	n/a	LTP389	ltpFR2	18	n/a	n/a	n/a	11	14	7	3	4
1300312	PROB	n/a	LTP389	ltpFR2	18	n/a	n/a	n/a	11	14	1	6	7
1301412	PROB	n/a	LTP389	ltpFR2	18	n/a	n/a	n/a	11	18	2	8	8
1302797	PROB	n/a	LTP389	ltpFR2	18	n/a	n/a	n/a	11	20	7	8	5
1305012	PROB	n/a	LTP389	ltpFR2	18	n/a	n/a	n/a	11	20	7	4	9
1307312	PROB	n/a	LTP389	ltpFR2	18	n/a	n/a	n/a	11	13	2	3	8
1308479	PROB	n/a	LTP389	ltpFR2	18	n/a	n/a	n/a	11	16	3	8	5
1309900	STOP	n/a	LTP389	ltpFR2	18	n/a	n/a	n/a	11	n/a	n/a	n/a	n/a
1312162	REC_START	n/a	LTP389	ltpFR2	18	7	n/a	n/a	n/a	n/a	0	0	0
1317530	REC_WORD	wordpools/wasnorm_wordpool_576.txt	LTP389	ltpFR2	18	7	ELBOW	520	n/a	n/a	0	0	0
1318342	REC_WORD	wordpools/wasnorm_wordpool_576.txt	LTP389	ltpFR2	18	7	BRAKE	166	n/a	n/a	0	0	0
1319107	REC_WORD	wordpools/wasnorm_wordpool_576.txt	LTP389	ltpFR2	18	7	HOOD	714	n/a	n/a	0	0	0
1320437	REC_WORD	wordpools/wasnorm_wordpool_576.txt	LTP389	ltpFR2	18	7	PEANUT	1032	n/a	n/a	0	0	0
1321389	REC_WORD	wordpools/wasnorm_wordpool_576.txt	LTP389	ltpFR2	18	7	STONE	1385	n/a	n/a	0	0	0
1323123	REC_WORD	wordpools/wasnorm_wordpool_576.txt	LTP389	ltpFR2	18	7	CIGAR	308	n/a	n/a	0	0	0
1325107	REC_WORD	wordpools/wasnorm_wordpool_576.txt	LTP389	ltpFR2	18	7	FRAME	600	n/a	n/a	0	0	0
1327365	REC_WORD	wordpools/wasnorm_wordpool_576.txt	LTP389	ltpFR2	18	7	POLICE	1098	n/a	n/a	0	0	0
1330338	REC_WORD	wordpools/wasnorm_wordpool_576.txt	LTP389	ltpFR2	18	7	HIGHWAY	707	n/a	n/a	0	0	0
1332980	REC_WORD	wordpools/wasnorm_wordpool_576.txt	LTP389	ltpFR2	18	7	PLAID	1080	n/a	n/a	0	0	0
1333919	REC_WORD	wordpools/wasnorm_wordpool_576.txt	LTP389	ltpFR2	18	7	BLOUSE	139	n/a	n/a	0	0	0
1335857	REC_WORD	wordpools/wasnorm_wordpool_576.txt	LTP389	ltpFR2	18	7	ACTRESS	6	n/a	n/a	0	0	0
1344644	REC_WORD	wordpools/wasnorm_wordpool_576.txt	LTP389	ltpFR2	18	7	BACON	67	n/a	n/a	0	0	0
1345783	REC_WORD	wordpools/wasnorm_wordpool_576.txt	LTP389	ltpFR2	18	7	OMELET	976	n/a	n/a	0	0	0
1358100	REC_WORD	wordpools/wasnorm_wordpool_576.txt	LTP389	ltpFR2	18	7	MARSH	874	n/a	n/a	0	0	0
1362948	REC_WORD	wordpools/wasnorm_wordpool_576.txt	LTP389	ltpFR2	18	7	UMPIRE	1535	n/a	n/a	0	0	0
1402610	DISTRACTOR	n/a	LTP389	ltpFR2	18	8	n/a	n/a	n/a	n/a	0	0	0
1402611	START	n/a	LTP389	ltpFR2	18	n/a	n/a	n/a	12	n/a	n/a	n/a	n/a
1402627	PROB	n/a	LTP389	ltpFR2	18	n/a	n/a	n/a	12	13	1	5	7
1404560	PROB	n/a	LTP389	ltpFR2	18	n/a	n/a	n/a	12	6	2	2	2
1405594	PROB	n/a	LTP389	ltpFR2	18	n/a	n/a	n/a	12	23	8	9	6
1408127	PROB	n/a	LTP389	ltpFR2	18	n/a	n/a	n/a	12	17	5	8	4
1410194	PROB	n/a	LTP389	ltpFR2	18	n/a	n/a	n/a	12	18	8	5	5
1411377	PROB	n/a	LTP389	ltpFR2	18	n/a	n/a	n/a	12	20	5	6	9
1412844	PROB	n/a	LTP389	ltpFR2	18	n/a	n/a	n/a	12	17	9	6	2
1414494	PROB	n/a	LTP389	ltpFR2	18	n/a	n/a	n/a	12	12	8	1	3
1415811	PROB	n/a	LTP389	ltpFR2	18	n/a	n/a	n/a	12	5	1	3	1
1416927	PROB	n/a	LTP389	ltpFR2	18	n/a	n/a	n/a	12	22	8	9	4
1419244	PROB	n/a	LTP389	ltpFR2	18	n/a	n/a	n/a	12	13	4	2	7
1421560	PROB	n/a	LTP389	ltpFR2	18	n/a	n/a	n/a	12	18	8	5	5
1422778	PROB	n/a	LTP389	ltpFR2	18	n/a	n/a	n/a	12	17	6	4	7
1423944	PROB	n/a	LTP389	ltpFR2	18	n/a	n/a	n/a	12	15	6	6	3
1425199	STOP	n/a	LTP389	ltpFR2	18	n/a	n/a	n/a	12	n/a	n/a	n/a	n/a
1427710	WORD	wordpools/wasnorm_wordpool_576.txt	LTP389	ltpFR2	18	8	VENUS	1557	n/a	n/a	0	0	0
1430260	WORD	wordpools/wasnorm_wordpool_576.txt	LTP389	ltpFR2	18	8	NIGHTGOWN	953	n/a	n/a	0	0	0
1432760	WORD	wordpools/wasnorm_wordpool_576.txt	LTP389	ltpFR2	18	8	CITRUS	313	n/a	n/a	0	0	0
1435543	WORD	wordpools/wasnorm_wordpool_576.txt	LTP389	ltpFR2	18	8	NURSE	963	n/a	n/a	0	0	0
1438027	WORD	wordpools/wasnorm_wordpool_576.txt	LTP389	ltpFR2	18	8	ONION	977	n/a	n/a	0	0	0
1440493	WORD	wordpools/wasnorm_wordpool_576.txt	LTP389	ltpFR2	18	8	OZONE	996	n/a	n/a	0	0	0
1442993	WORD	wordpools/wasnorm_wordpool_576.txt	LTP389	ltpFR2	18	8	PIGMENT	1066	n/a	n/a	0	0	0
1445576	WORD	wordpools/wasnorm_wordpool_576.txt	LTP389	ltpFR2	18	8	POCKET	1093	n/a	n/a	0	0	0
1448160	WORD	wordpools/wasnorm_wordpool_576.txt	LTP389	ltpFR2	18	8	MARS	873	n/a	n/a	0	0	0
1450926	WORD	wordpools/wasnorm_wordpool_576.txt	LTP389	ltpFR2	18	8	VIRUS	1572	n/a	n/a	0	0	0
1453610	WORD	wordpools/wasnorm_wordpool_576.txt	LTP389	ltpFR2	18	8	MARKER	870	n/a	n/a	0	0	0
1456110	WORD	wordpools/wasnorm_wordpool_576.txt	LTP389	ltpFR2	18	8	SHIRT	1287	n/a	n/a	0	0	0
1458610	WORD	wordpools/wasnorm_wordpool_576.txt	LTP389	ltpFR2	18	8	SERVER	1272	n/a	n/a	0	0	0
1461126	WORD	wordpools/wasnorm_wordpool_576.txt	LTP389	ltpFR2	18	8	ISLAND	745	n/a	n/a	0	0	0
1463777	WORD	wordpools/wasnorm_wordpool_576.txt	LTP389	ltpFR2	18	8	SCRIBBLE	1256	n/a	n/a	0	0	0
1466559	WORD	wordpools/wasnorm_wordpool_576.txt	LTP389	ltpFR2	18	8	PAPER	1011	n/a	n/a	0	0	0
1469226	WORD	wordpools/wasnorm_wordpool_576.txt	LTP389	ltpFR2	18	8	CLOTHES	327	n/a	n/a	0	0	0
1471993	WORD	wordpools/wasnorm_wordpool_576.txt	LTP389	ltpFR2	18	8	LADY	794	n/a	n/a	0	0	0
1474626	WORD	wordpools/wasnorm_wordpool_576.txt	LTP389	ltpFR2	18	8	PALACE	1006	n/a	n/a	0	0	0
1477093	WORD	wordpools/wasnorm_wordpool_576.txt	LTP389	ltpFR2	18	8	POISON	1096	n/a	n/a	0	0	0
1479709	WORD	wordpools/wasnorm_wordpool_576.txt	LTP389	ltpFR2	18	8	WOMAN	1620	n/a	n/a	0	0	0
1482142	WORD	wordpools/wasnorm_wordpool_576.txt	LTP389	ltpFR2	18	8	MISTER	901	n/a	n/a	0	0	0
1484643	WORD	wordpools/wasnorm_wordpool_576.txt	LTP389	ltpFR2	18	8	MESSAGE	888	n/a	n/a	0	0	0
1487159	WORD	wordpools/wasnorm_wordpool_576.txt	LTP389	ltpFR2	18	8	CONTRACT	368	n/a	n/a	0	0	0
1488777	START	n/a	LTP389	ltpFR2	18	n/a	n/a	n/a	13	n/a	n/a	n/a	n/a
1489972	DISTRACTOR	n/a	LTP389	ltpFR2	18	8	n/a	n/a	n/a	n/a	0	0	0
1489976	PROB	n/a	LTP389	ltpFR2	18	n/a	n/a	n/a	13	11	1	5	5
1491492	PROB	n/a	LTP389	ltpFR2	18	n/a	n/a	n/a	13	18	6	3	9
1492827	PROB	n/a	LTP389	ltpFR2	18	n/a	n/a	n/a	13	26	9	9	8
1494959	PROB	n/a	LTP389	ltpFR2	18	n/a	n/a	n/a	13	19	9	8	2
1496793	PROB	n/a	LTP389	ltpFR2	18	n/a	n/a	n/a	13	15	6	4	5
1498609	PROB	n/a	LTP389	ltpFR2	18	n/a	n/a	n/a	13	18	1	8	9
1500259	PROB	n/a	LTP389	ltpFR2	18	n/a	n/a	n/a	13	17	9	3	5
1502175	PROB	n/a	LTP389	ltpFR2	18	n/a	n/a	n/a	13	19	8	7	4
1504159	PROB	n/a	LTP389	ltpFR2	18	n/a	n/a	n/a	13	20	7	4	9
1506175	PROB	n/a	LTP389	ltpFR2	18	n/a	n/a	n/a	13	15	9	5	1
1507459	PROB	n/a	LTP389	ltpFR2	18	n/a	n/a	n/a	13	15	4	7	4
1509392	PROB	n/a	LTP389	ltpFR2	18	n/a	n/a	n/a	13	20	9	6	5
1511474	STOP	n/a	LTP389	ltpFR2	18	n/a	n/a	n/a	13	n/a	n/a	n/a	n/a
1514559	REC_START	n/a	LTP389	ltpFR2	18	8	n/a	n/a	n/a	n/a	0	0	0
1518841	REC_WORD	wordpools/wasnorm_wordpool_576.txt	LTP389	ltpFR2	18	8	VENUS	1557	n/a	n/a	0	0	0
1519816	REC_WORD	wordpools/wasnorm_wordpool_576.txt	LTP389	ltpFR2	18	8	MARS	873	n/a	n/a	0	0	0
1520847	REC_WORD	wordpools/wasnorm_wordpool_576.txt	LTP389	ltpFR2	18	8	NIGHTGOWN	953	n/a	n/a	0	0	0
1521648	REC_WORD	wordpools/wasnorm_wordpool_576.txt	LTP389	ltpFR2	18	8	CITRUS	313	n/a	n/a	0	0	0
1522731	REC_WORD	wordpools/wasnorm_wordpool_576.txt	LTP389	ltpFR2	18	8	ONION	977	n/a	n/a	0	0	0
1523800	REC_WORD	wordpools/wasnorm_wordpool_576.txt	LTP389	ltpFR2	18	8	OZONE	996	n/a	n/a	0	0	0
1525269	REC_WORD	wordpools/wasnorm_wordpool_576.txt	LTP389	ltpFR2	18	8	NURSE	963	n/a	n/a	0	0	0
1526099	REC_WORD	wordpools/wasnorm_wordpool_576.txt	LTP389	ltpFR2	18	8	SCRIBBLE	1256	n/a	n/a	0	0	0
1527163	REC_WORD	wordpools/wasnorm_wordpool_576.txt	LTP389	ltpFR2	18	8	PAPER	1011	n/a	n/a	0	0	0
1528061	REC_WORD	wordpools/wasnorm_wordpool_576.txt	LTP389	ltpFR2	18	8	POCKET	1093	n/a	n/a	0	0	0
1529119	REC_WORD	wordpools/wasnorm_wordpool_576.txt	LTP389	ltpFR2	18	8	MARKER	870	n/a	n/a	0	0	0
1533641	REC_WORD	wordpools/wasnorm_wordpool_576.txt	LTP389	ltpFR2	18	8	POISON	1096	n/a	n/a	0	0	0
1534943	REC_WORD	wordpools/wasnorm_wordpool_576.txt	LTP389	ltpFR2	18	8	PALACE	1006	n/a	n/a	0	0	0
1555279	REC_WORD	wordpools/wasnorm_wordpool_576.txt	LTP389	ltpFR2	18	8	PIGMENT	1066	n/a	n/a	0	0	0
1557916	REC_WORD	wordpools/wasnorm_wordpool_576.txt	LTP389	ltpFR2	18	8	MISTER	901	n/a	n/a	0	0	0
1591107	REST_REWET	n/a	LTP389	ltpFR2	18	8	n/a	n/a	n/a	n/a	0	0	0
1742938	DISTRACTOR	n/a	LTP389	ltpFR2	18	9	n/a	n/a	n/a	n/a	0	0	0
1742938	START	n/a	LTP389	ltpFR2	18	n/a	n/a	n/a	14	n/a	n/a	n/a	n/a
1742955	PROB	n/a	LTP389	ltpFR2	18	n/a	n/a	n/a	14	17	2	6	9
1744839	PROB	n/a	LTP389	ltpFR2	18	n/a	n/a	n/a	14	10	2	6	2
1746338	PROB	n/a	LTP389	ltpFR2	18	n/a	n/a	n/a	14	15	4	6	5
1747522	PROB	n/a	LTP389	ltpFR2	18	n/a	n/a	n/a	14	8	1	2	5
1748905	PROB	n/a	LTP389	ltpFR2	18	n/a	n/a	n/a	14	17	7	8	2
1750905	PROB	n/a	LTP389	ltpFR2	18	n/a	n/a	n/a	14	11	9	1	1
1752121	PROB	n/a	LTP389	ltpFR2	18	n/a	n/a	n/a	14	12	1	5	6
1753288	PROB	n/a	LTP389	ltpFR2	18	n/a	n/a	n/a	14	17	8	6	3
1755121	PROB	n/a	LTP389	ltpFR2	18	n/a	n/a	n/a	14	21	4	7	9
1756888	PROB	n/a	LTP389	ltpFR2	18	n/a	n/a	n/a	14	8	1	6	1
1757938	PROB	n/a	LTP389	ltpFR2	18	n/a	n/a	n/a	14	15	7	2	6
1759288	PROB	n/a	LTP389	ltpFR2	18	n/a	n/a	n/a	14	19	6	8	5
1761305	PROB	n/a	LTP389	ltpFR2	18	n/a	n/a	n/a	14	8	2	5	1
1762388	PROB	n/a	LTP389	ltpFR2	18	n/a	n/a	n/a	14	18	8	9	1
1763538	PROB	n/a	LTP389	ltpFR2	18	n/a	n/a	n/a	14	12	2	2	8
1765354	PROB	n/a	LTP389	ltpFR2	18	n/a	n/a	n/a	14	16	8	2	6
1766590	STOP	n/a	LTP389	ltpFR2	18	n/a	n/a	n/a	14	n/a	n/a	n/a	n/a
1767854	WORD	wordpools/wasnorm_wordpool_576.txt	LTP389	ltpFR2	18	9	VAGRANT	1544	n/a	n/a	0	0	0
1770621	WORD	wordpools/wasnorm_wordpool_576.txt	LTP389	ltpFR2	18	9	NOVEL	960	n/a	n/a	0	0	0
1773171	WORD	wordpools/wasnorm_wordpool_576.txt	LTP389	ltpFR2	18	9	DORM	488	n/a	n/a	0	0	0
1775921	WORD	wordpools/wasnorm_wordpool_576.txt	LTP389	ltpFR2	18	9	LODGE	839	n/a	n/a	0	0	0
1778621	WORD	wordpools/wasnorm_wordpool_576.txt	LTP389	ltpFR2	18	9	TART	1436	n/a	n/a	0	0	0
1781054	WORD	wordpools/wasnorm_wordpool_576.txt	LTP389	ltpFR2	18	9	VALLEY	1545	n/a	n/a	0	0	0
1783822	WORD	wordpools/wasnorm_wordpool_576.txt	LTP389	ltpFR2	18	9	LABEL	790	n/a	n/a	0	0	0
1786421	WORD	wordpools/wasnorm_wordpool_576.txt	LTP389	ltpFR2	18	9	PRINCESS	1125	n/a	n/a	0	0	0
1788937	WORD	wordpools/wasnorm_wordpool_576.txt	LTP389	ltpFR2	18	9	SALT	1229	n/a	n/a	0	0	0
1791654	WORD	wordpools/wasnorm_wordpool_576.txt	LTP389	ltpFR2	18	9	TRUCK	1512	n/a	n/a	0	0	0
1794287	WORD	wordpools/wasnorm_wordpool_576.txt	LTP389	ltpFR2	18	9	PASSAGE	1019	n/a	n/a	0	0	0
1797037	WORD	wordpools/wasnorm_wordpool_576.txt	LTP389	ltpFR2	18	9	WAITRESS	1581	n/a	n/a	0	0	0
1799704	WORD	wordpools/wasnorm_wordpool_576.txt	LTP389	ltpFR2	18	9	HEADBAND	696	n/a	n/a	0	0	0
1802187	WORD	wordpools/wasnorm_wordpool_576.txt	LTP389	ltpFR2	18	9	INMATE	738	n/a	n/a	0	0	0
1804838	WORD	wordpools/wasnorm_wordpool_576.txt	LTP389	ltpFR2	18	9	DUSTPAN	509	n/a	n/a	0	0	0
1807504	WORD	wordpools/wasnorm_wordpool_576.txt	LTP389	ltpFR2	18	9	WASHER	1592	n/a	n/a	0	0	0
1809970	WORD	wordpools/wasnorm_wordpool_576.txt	LTP389	ltpFR2	18	9	WAITER	1580	n/a	n/a	0	0	0
1812470	WORD	wordpools/wasnorm_wordpool_576.txt	LTP389	ltpFR2	18	9	DRAWING	494	n/a	n/a	0	0	0
1815187	WORD	wordpools/wasnorm_wordpool_576.txt	LTP389	ltpFR2	18	9	CANDY	230	n/a	n/a	0	0	0
1817770	WORD	wordpools/wasnorm_wordpool_576.txt	LTP389	ltpFR2	18	9	FIREPLACE	570	n/a	n/a	0	0	0
1820487	WORD	wordpools/wasnorm_wordpool_576.txt	LTP389	ltpFR2	18	9	FIREMAN	569	n/a	n/a	0	0	0
1823054	WORD	wordpools/wasnorm_wordpool_576.txt	LTP389	ltpFR2	18	9	CREATURE	403	n/a	n/a	0	0	0
1825854	WORD	wordpools/wasnorm_wordpool_576.txt	LTP389	ltpFR2	18	9	HOUND	724	n/a	n/a	0	0	0
1828320	WORD	wordpools/wasnorm_wordpool_576.txt	LTP389	ltpFR2	18	9	CREVICE	405	n/a	n/a	0	0	0
1829937	START	n/a	LTP389	ltpFR2	18	n/a	n/a	n/a	15	n/a	n/a	n/a	n/a
1830768	DISTRACTOR	n/a	LTP389	ltpFR2	18	9	n/a	n/a	n/a	n/a	0	0	0
1830770	PROB	n/a	LTP389	ltpFR2	18	n/a	n/a	n/a	15	16	3	8	5
1832620	PROB	n/a	LTP389	ltpFR2	18	n/a	n/a	n/a	15	7	1	3	3
1833838	PROB	n/a	LTP389	ltpFR2	18	n/a	n/a	n/a	15	13	4	6	3
1835003	PROB	n/a	LTP389	ltpFR2	18	n/a	n/a	n/a	15	15	5	7	3
1836520	PROB	n/a	LTP389	ltpFR2	18	n/a	n/a	n/a	15	9	2	5	2
1838370	PROB	n/a	LTP389	ltpFR2	18	n/a	n/a	n/a	15	11	1	9	1
1839403	PROB	n/a	LTP389	ltpFR2	18	n/a	n/a	n/a	15	11	3	4	4
1841103	PROB	n/a	LTP389	ltpFR2	18	n/a	n/a	n/a	15	8	3	1	4
1842853	PROB	n/a	LTP389	ltpFR2	18	n/a	n/a	n/a	15	23	9	8	6
1845220	PROB	n/a	LTP389	ltpFR2	18	n/a	n/a	n/a	15	9	6	2	1
1846270	PROB	n/a	LTP389	ltpFR2	18	n/a	n/a	n/a	15	16	3	5	8
1848053	PROB	n/a	LTP389	ltpFR2	18	n/a	n/a	n/a	15	21	6	9	6
1850120	PROB	n/a	LTP389	ltpFR2	18	n/a	n/a	n/a	15	21	9	5	6
1853932	STOP	n/a	LTP389	ltpFR2	18	n/a	n/a	n/a	15	n/a	n/a	n/a	n/a
1855788	REC_START	n/a	LTP389	ltpFR2	18	9	n/a	n/a	n/a	n/a	0	0	0
1856553	REC_WORD	wordpools/wasnorm_wordpool_576.txt	LTP389	ltpFR2	18	9	VAGRANT	1544	n/a	n/a	0	0	0
1857993	REC_WORD	wordpools/wasnorm_wordpool_576.txt	LTP389	ltpFR2	18	9	LABEL	790	n/a	n/a	0	0	0
1859070	REC_WORD	wordpools/wasnorm_wordpool_576.txt	LTP389	ltpFR2	18	9	DUSTPAN	509	n/a	n/a	0	0	0
1859974	REC_WORD	wordpools/wasnorm_wordpool_576.txt	LTP389	ltpFR2	18	9	HEADBAND	696	n/a	n/a	0	0	0
1861423	REC_WORD	wordpools/wasnorm_wordpool_576.txt	LTP389	ltpFR2	18	9	CREVICE	405	n/a	n/a	0	0	0
1862539	REC_WORD	wordpools/wasnorm_wordpool_576.txt	LTP389	ltpFR2	18	9	CREATURE	403	n/a	n/a	0	0	0
1863558	REC_WORD	wordpools/wasnorm_wordpool_576.txt	LTP389	ltpFR2	18	9	PRINCESS	1125	n/a	n/a	0	0	0
1864462	REC_WORD	wordpools/wasnorm_wordpool_576.txt	LTP389	ltpFR2	18	9	VALLEY	1545	n/a	n/a	0	0	0
1865904	REC_WORD	wordpools/wasnorm_wordpool_576.txt	LTP389	ltpFR2	18	9	SALT	1229	n/a	n/a	0	0	0
1867009	REC_WORD	wordpools/wasnorm_wordpool_576.txt	LTP389	ltpFR2	18	9	TRUCK	1512	n/a	n/a	0	0	0
1868178	REC_WORD	wordpools/wasnorm_wordpool_576.txt	LTP389	ltpFR2	18	9	NOVEL	960	n/a	n/a	0	0	0
1869331	REC_WORD	wordpools/wasnorm_wordpool_576.txt	LTP389	ltpFR2	18	9	PASSAGE	1019	n/a	n/a	0	0	0
1870695	REC_WORD	wordpools/wasnorm_wordpool_576.txt	LTP389	ltpFR2	18	9	DORM	488	n/a	n/a	0	0	0
1871792	REC_WORD	wordpools/wasnorm_wordpool_576.txt	LTP389	ltpFR2	18	9	LODGE	839	n/a	n/a	0	0	0
1872975	REC_WORD	wordpools/wasnorm_wordpool_576.txt	LTP389	ltpFR2	18	9	FIREMAN	569	n/a	n/a	0	0	0
1874041	REC_WORD	wordpools/wasnorm_wordpool_576.txt	LTP389	ltpFR2	18	9	FIREPLACE	570	n/a	n/a	0	0	0
1882226	REC_WORD	wordpools/wasnorm_wordpool_576.txt	LTP389	ltpFR2	18	9	CANDY	230	n/a	n/a	0	0	0
1883358	REC_WORD	wordpools/wasnorm_wordpool_576.txt	LTP389	ltpFR2	18	9	TART	1436	n/a	n/a	0	0	0
1884506	REC_WORD	wordpools/wasnorm_wordpool_576.txt	LTP389	ltpFR2	18	9	DRAWING	494	n/a	n/a	0	0	0
1946252	WORD	wordpools/wasnorm_wordpool_576.txt	LTP389	ltpFR2	18	10	SLIDE	1326	n/a	n/a	0	0	0
1948868	WORD	wordpools/wasnorm_wordpool_576.txt	LTP389	ltpFR2	18	10	ANKLE	24	n/a	n/a	0	0	0
1951335	WORD	wordpools/wasnorm_wordpool_576.txt	LTP389	ltpFR2	18	10	SCARECROW	1245	n/a	n/a	0	0	0
1954001	WORD	wordpools/wasnorm_wordpool_576.txt	LTP389	ltpFR2	18	10	NOTEBOOK	959	n/a	n/a	0	0	0
1956601	WORD	wordpools/wasnorm_wordpool_576.txt	LTP389	ltpFR2	18	10	COIN	343	n/a	n/a	0	0	0
1959218	WORD	wordpools/wasnorm_wordpool_576.txt	LTP389	ltpFR2	18	10	PERFUME	1049	n/a	n/a	0	0	0
1961651	WORD	wordpools/wasnorm_wordpool_576.txt	LTP389	ltpFR2	18	10	BALLOON	75	n/a	n/a	0	0	0
1964218	WORD	wordpools/wasnorm_wordpool_576.txt	LTP389	ltpFR2	18	10	MARKET	871	n/a	n/a	0	0	0
1966819	WORD	wordpools/wasnorm_wordpool_576.txt	LTP389	ltpFR2	18	10	FRAGRANCE	599	n/a	n/a	0	0	0
1969251	WORD	wordpools/wasnorm_wordpool_576.txt	LTP389	ltpFR2	18	10	FOREST	593	n/a	n/a	0	0	0
1972001	WORD	wordpools/wasnorm_wordpool_576.txt	LTP389	ltpFR2	18	10	GAZELLE	628	n/a	n/a	0	0	0
1974701	WORD	wordpools/wasnorm_wordpool_576.txt	LTP389	ltpFR2	18	10	CUPBOARD	425	n/a	n/a	0	0	0
1977151	WORD	wordpools/wasnorm_wordpool_576.txt	LTP389	ltpFR2	18	10	APRON	35	n/a	n/a	0	0	0
1979819	WORD	wordpools/wasnorm_wordpool_576.txt	LTP389	ltpFR2	18	10	PLAYGROUND	1087	n/a	n/a	0	0	0
1982651	WORD	wordpools/wasnorm_wordpool_576.txt	LTP389	ltpFR2	18	10	CLOCK	325	n/a	n/a	0	0	0
1985418	WORD	wordpools/wasnorm_wordpool_576.txt	LTP389	ltpFR2	18	10	MASK	876	n/a	n/a	0	0	0
1988051	WORD	wordpools/wasnorm_wordpool_576.txt	LTP389	ltpFR2	18	10	SLOPE	1328	n/a	n/a	0	0	0
1990718	WORD	wordpools/wasnorm_wordpool_576.txt	LTP389	ltpFR2	18	10	IDOL	733	n/a	n/a	0	0	0
1993234	WORD	wordpools/wasnorm_wordpool_576.txt	LTP389	ltpFR2	18	10	ULCER	1533	n/a	n/a	0	0	0
1996001	WORD	wordpools/wasnorm_wordpool_576.txt	LTP389	ltpFR2	18	10	JUGGLER	763	n/a	n/a	0	0	0
1998785	WORD	wordpools/wasnorm_wordpool_576.txt	LTP389	ltpFR2	18	10	QUEEN	1149	n/a	n/a	0	0	0
2001317	WORD	wordpools/wasnorm_wordpool_576.txt	LTP389	ltpFR2	18	10	BASEMENT	94	n/a	n/a	0	0	0
2003984	WORD	wordpools/wasnorm_wordpool_576.txt	LTP389	ltpFR2	18	10	ROBIN	1199	n/a	n/a	0	0	0
2006751	WORD	wordpools/wasnorm_wordpool_576.txt	LTP389	ltpFR2	18	10	PIGEON	1065	n/a	n/a	0	0	0
2008367	START	n/a	LTP389	ltpFR2	18	n/a	n/a	n/a	16	n/a	n/a	n/a	n/a
2009191	DISTRACTOR	n/a	LTP389	ltpFR2	18	10	n/a	n/a	n/a	n/a	0	0	0
2009201	PROB	n/a	LTP389	ltpFR2	18	n/a	n/a	n/a	16	17	9	2	6
2010700	PROB	n/a	LTP389	ltpFR2	18	n/a	n/a	n/a	16	15	2	9	4
2011917	PROB	n/a	LTP389	ltpFR2	18	n/a	n/a	n/a	16	17	9	7	1
2013884	PROB	n/a	LTP389	ltpFR2	18	n/a	n/a	n/a	16	13	4	2	7
2015917	PROB	n/a	LTP389	ltpFR2	18	n/a	n/a	n/a	16	15	3	6	6
2017317	PROB	n/a	LTP389	ltpFR2	18	n/a	n/a	n/a	16	20	2	9	9
2018801	PROB	n/a	LTP389	ltpFR2	18	n/a	n/a	n/a	16	23	7	7	9
2020467	PROB	n/a	LTP389	ltpFR2	18	n/a	n/a	n/a	16	9	2	3	4
2022284	PROB	n/a	LTP389	ltpFR2	18	n/a	n/a	n/a	16	11	3	5	3
2023950	PROB	n/a	LTP389	ltpFR2	18	n/a	n/a	n/a	16	12	3	6	3
2025334	PROB	n/a	LTP389	ltpFR2	18	n/a	n/a	n/a	16	9	2	5	2
2026667	PROB	n/a	LTP389	ltpFR2	18	n/a	n/a	n/a	16	19	9	9	1
2029200	PROB	n/a	LTP389	ltpFR2	18	n/a	n/a	n/a	16	14	5	5	4
2030283	PROB	n/a	LTP389	ltpFR2	18	n/a	n/a	n/a	16	17	4	7	6
2031945	STOP	n/a	LTP389	ltpFR2	18	n/a	n/a	n/a	16	n/a	n/a	n/a	n/a
2034267	REC_START	n/a	LTP389	ltpFR2	18	10	n/a	n/a	n/a	n/a	0	0	0
2041142	REC_WORD	wordpools/wasnorm_wordpool_576.txt	LTP389	ltpFR2	18	10	SLIDE	1326	n/a	n/a	0	0	0
2042024	REC_WORD	wordpools/wasnorm_wordpool_576.txt	LTP389	ltpFR2	18	10	SLOPE	1328	n/a	n/a	0	0	0
2043067	REC_WORD	wordpools/wasnorm_wordpool_576.txt	LTP389	ltpFR2	18	10	PLAYGROUND	1087	n/a	n/a	0	0	0
2044557	REC_WORD	wordpools/wasnorm_wordpool_576.txt	LTP389	ltpFR2	18	10	ANKLE	24	n/a	n/a	0	0	0
2045917	REC_WORD	wordpools/wasnorm_wordpool_576.txt	LTP389	ltpFR2	18	10	SCARECROW	1245	n/a	n/a	0	0	0
2047304	REC_WORD	wordpools/wasnorm_wordpool_576.txt	LTP389	ltpFR2	18	10	NOTEPAD	-1	n/a	n/a	0	0	0
2048302	REC_WORD	wordpools/wasnorm_wordpool_576.txt	LTP389	ltpFR2	18	10	NOTEBOOK	959	n/a	n/a	0	0	0
2050407	REC_WORD	wordpools/wasnorm_wordpool_576.txt	LTP389	ltpFR2	18	10	COIN	343	n/a	n/a	0	0	0
2051128	REC_WORD	wordpools/wasnorm_wordpool_576.txt	LTP389	ltpFR2	18	10	BALLOON	75	n/a	n/a	0	0	0
2051992	REC_WORD	wordpools/wasnorm_wordpool_576.txt	LTP389	ltpFR2	18	10	MARKET	871	n/a	n/a	0	0	0
2053639	REC_WORD	wordpools/wasnorm_wordpool_576.txt	LTP389	ltpFR2	18	10	PERFUME	1049	n/a	n/a	0	0	0
2054610	REC_WORD	wordpools/wasnorm_wordpool_576.txt	LTP389	ltpFR2	18	10	FRAGRANCE	599	n/a	n/a	0	0	0
2056420	REC_WORD	wordpools/wasnorm_wordpool_576.txt	LTP389	ltpFR2	18	10	CUPBOARD	425	n/a	n/a	0	0	0
2057401	REC_WORD	wordpools/wasnorm_wordpool_576.txt	LTP389	ltpFR2	18	10	APRON	35	n/a	n/a	0	0	0
2058935	REC_WORD	wordpools/wasnorm_wordpool_576.txt	LTP389	ltpFR2	18	10	GAZELLE	628	n/a	n/a	0	0	0
2060432	REC_WORD	wordpools/wasnorm_wordpool_576.txt	LTP389	ltpFR2	18	10	FOREST	593	n/a	n/a	0	0	0
2072334	REC_WORD	wordpools/wasnorm_wordpool_576.txt	LTP389	ltpFR2	18	10	ULCER	1533	n/a	n/a	0	0	0
2074093	REC_WORD	wordpools/wasnorm_wordpool_576.txt	LTP389	ltpFR2	18	10	JUGGLER	763	n/a	n/a	0	0	0
2076976	REC_WORD	wordpools/wasnorm_wordpool_576.txt	LTP389	ltpFR2	18	10	QUEEN	1149	n/a	n/a	0	0	0
2081862	REC_WORD	wordpools/wasnorm_wordpool_576.txt	LTP389	ltpFR2	18	10	BASEMENT	94	n/a	n/a	0	0	0
2098558	REC_WORD	wordpools/wasnorm_wordpool_576.txt	LTP389	ltpFR2	18	10	ROBIN	1199	n/a	n/a	0	0	0
2124699	DISTRACTOR	n/a	LTP389	ltpFR2	18	11	n/a	n/a	n/a	n/a	0	0	0
2124699	START	n/a	LTP389	ltpFR2	18	n/a	n/a	n/a	17	n/a	n/a	n/a	n/a
2124715	PROB	n/a	LTP389	ltpFR2	18	n/a	n/a	n/a	17	11	1	3	7
2126882	PROB	n/a	LTP389	ltpFR2	18	n/a	n/a	n/a	17	10	6	1	3
2128299	PROB	n/a	LTP389	ltpFR2	18	n/a	n/a	n/a	17	12	3	5	4
2129732	PROB	n/a	LTP389	ltpFR2	18	n/a	n/a	n/a	17	16	5	3	8
2130949	PROB	n/a	LTP389	ltpFR2	18	n/a	n/a	n/a	17	21	5	8	8
2132849	PROB	n/a	LTP389	ltpFR2	18	n/a	n/a	n/a	17	13	4	3	6
2134715	PROB	n/a	LTP389	ltpFR2	18	n/a	n/a	n/a	17	20	7	7	6
2136732	PROB	n/a	LTP389	ltpFR2	18	n/a	n/a	n/a	17	19	9	2	8
2138132	PROB	n/a	LTP389	ltpFR2	18	n/a	n/a	n/a	17	15	9	5	1
2139565	PROB	n/a	LTP389	ltpFR2	18	n/a	n/a	n/a	17	9	2	5	2
2140799	PROB	n/a	LTP389	ltpFR2	18	n/a	n/a	n/a	17	21	5	8	8
2142315	PROB	n/a	LTP389	ltpFR2	18	n/a	n/a	n/a	17	19	8	2	9
2143565	PROB	n/a	LTP389	ltpFR2	18	n/a	n/a	n/a	17	10	5	4	1
2144765	PROB	n/a	LTP389	ltpFR2	18	n/a	n/a	n/a	17	12	4	2	6
2146482	PROB	n/a	LTP389	ltpFR2	18	n/a	n/a	n/a	17	11	4	3	4
2147997	STOP	n/a	LTP389	ltpFR2	18	n/a	n/a	n/a	17	n/a	n/a	n/a	n/a
2149865	WORD	wordpools/wasnorm_wordpool_576.txt	LTP389	ltpFR2	18	11	ITEM	746	n/a	n/a	0	0	0
2152482	WORD	wordpools/wasnorm_wordpool_576.txt	LTP389	ltpFR2	18	11	GHETTO	633	n/a	n/a	0	0	0
2155148	WORD	wordpools/wasnorm_wordpool_576.txt	LTP389	ltpFR2	18	11	LUGGAGE	847	n/a	n/a	0	0	0
2157715	WORD	wordpools/wasnorm_wordpool_576.txt	LTP389	ltpFR2	18	11	TILE	1468	n/a	n/a	0	0	0
2160531	WORD	wordpools/wasnorm_wordpool_576.txt	LTP389	ltpFR2	18	11	CHAUFFEUR	283	n/a	n/a	0	0	0
2163015	WORD	wordpools/wasnorm_wordpool_576.txt	LTP389	ltpFR2	18	11	MUMMY	932	n/a	n/a	0	0	0
2165598	WORD	wordpools/wasnorm_wordpool_576.txt	LTP389	ltpFR2	18	11	TOURIST	1488	n/a	n/a	0	0	0
2168281	WORD	wordpools/wasnorm_wordpool_576.txt	LTP389	ltpFR2	18	11	PERCH	1048	n/a	n/a	0	0	0
2170931	WORD	wordpools/wasnorm_wordpool_576.txt	LTP389	ltpFR2	18	11	TROMBONE	1508	n/a	n/a	0	0	0
2173681	WORD	wordpools/wasnorm_wordpool_576.txt	LTP389	ltpFR2	18	11	HEDGE	699	n/a	n/a	0	0	0
2176364	WORD	wordpools/wasnorm_wordpool_576.txt	LTP389	ltpFR2	18	11	BRANCH	168	n/a	n/a	0	0	0
2178914	WORD	wordpools/wasnorm_wordpool_576.txt	LTP389	ltpFR2	18	11	DRUG	501	n/a	n/a	0	0	0
2181481	WORD	wordpools/wasnorm_wordpool_576.txt	LTP389	ltpFR2	18	11	KNAPSACK	783	n/a	n/a	0	0	0
2183948	WORD	wordpools/wasnorm_wordpool_576.txt	LTP389	ltpFR2	18	11	SEAGULL	1261	n/a	n/a	0	0	0
2186398	WORD	wordpools/wasnorm_wordpool_576.txt	LTP389	ltpFR2	18	11	DENIM	446	n/a	n/a	0	0	0
2188981	WORD	wordpools/wasnorm_wordpool_576.txt	LTP389	ltpFR2	18	11	MILDEW	893	n/a	n/a	0	0	0
2191664	WORD	wordpools/wasnorm_wordpool_576.txt	LTP389	ltpFR2	18	11	BATHTUB	100	n/a	n/a	0	0	0
2194331	WORD	wordpools/wasnorm_wordpool_576.txt	LTP389	ltpFR2	18	11	COUNTY	389	n/a	n/a	0	0	0
2197031	WORD	wordpools/wasnorm_wordpool_576.txt	LTP389	ltpFR2	18	11	SIDEWALK	1303	n/a	n/a	0	0	0
2199597	WORD	wordpools/wasnorm_wordpool_576.txt	LTP389	ltpFR2	18	11	GRAVEL	659	n/a	n/a	0	0	0
2202097	WORD	wordpools/wasnorm_wordpool_576.txt	LTP389	ltpFR2	18	11	SUITCASE	1403	n/a	n/a	0	0	0
2204931	WORD	wordpools/wasnorm_wordpool_576.txt	LTP389	ltpFR2	18	11	BARREL	91	n/a	n/a	0	0	0
2207547	WORD	wordpools/wasnorm_wordpool_576.txt	LTP389	ltpFR2	18	11	BEEF	113	n/a	n/a	0	0	0
2210247	WORD	wordpools/wasnorm_wordpool_576.txt	LTP389	ltpFR2	18	11	QUARTER	1148	n/a	n/a	0	0	0
2211864	START	n/a	LTP389	ltpFR2	18	n/a	n/a	n/a	18	n/a	n/a	n/a	n/a
2212912	DISTRACTOR	n/a	LTP389	ltpFR2	18	11	n/a	n/a	n/a	n/a	0	0	0
2212914	PROB	n/a	LTP389	ltpFR2	18	n/a	n/a	n/a	18	24	8	8	8
2214180	PROB	n/a	LTP389	ltpFR2	18	n/a	n/a	n/a	18	15	3	3	9
2215431	PROB	n/a	LTP389	ltpFR2	18	n/a	n/a	n/a	18	14	6	5	3
2216731	PROB	n/a	LTP389	ltpFR2	18	n/a	n/a	n/a	18	6	3	1	2
2218414	PROB	n/a	LTP389	ltpFR2	18	n/a	n/a	n/a	18	8	5	1	2
2219781	PROB	n/a	LTP389	ltpFR2	18	n/a	n/a	n/a	18	25	8	9	8
2221414	PROB	n/a	LTP389	ltpFR2	18	n/a	n/a	n/a	18	7	3	1	3
2222597	PROB	n/a	LTP389	ltpFR2	18	n/a	n/a	n/a	18	7	2	4	1
2223897	PROB	n/a	LTP389	ltpFR2	18	n/a	n/a	n/a	18	16	6	2	8
2225147	PROB	n/a	LTP389	ltpFR2	18	n/a	n/a	n/a	18	12	1	6	5
2226897	PROB	n/a	LTP389	ltpFR2	18	n/a	n/a	n/a	18	15	4	9	2
2228747	PROB	n/a	LTP389	ltpFR2	18	n/a	n/a	n/a	18	12	3	3	6
2229864	PROB	n/a	LTP389	ltpFR2	18	n/a	n/a	n/a	18	12	4	4	4
2230964	PROB	n/a	LTP389	ltpFR2	18	n/a	n/a	n/a	18	16	9	1	6
2232080	PROB	n/a	LTP389	ltpFR2	18	n/a	n/a	n/a	18	15	4	6	5
2233397	PROB	n/a	LTP389	ltpFR2	18	n/a	n/a	n/a	18	18	7	4	7
2234919	STOP	n/a	LTP389	ltpFR2	18	n/a	n/a	n/a	18	n/a	n/a	n/a	n/a
2237798	REC_START	n/a	LTP389	ltpFR2	18	11	n/a	n/a	n/a	n/a	0	0	0
2240856	REC_WORD	wordpools/wasnorm_wordpool_576.txt	LTP389	ltpFR2	18	11	GHETTO	633	n/a	n/a	0	0	0
2241627	REC_WORD	wordpools/wasnorm_wordpool_576.txt	LTP389	ltpFR2	18	11	LUGGAGE	847	n/a	n/a	0	0	0
2242443	REC_WORD	wordpools/wasnorm_wordpool_576.txt	LTP389	ltpFR2	18	11	SUITCASE	1403	n/a	n/a	0	0	0
2245412	REC_WORD	wordpools/wasnorm_wordpool_576.txt	LTP389	ltpFR2	18	11	ITEM	746	n/a	n/a	0	0	0
2246774	REC_WORD	wordpools/wasnorm_wordpool_576.txt	LTP389	ltpFR2	18	11	TILE	1468	n/a	n/a	0	0	0
2247648	REC_WORD	wordpools/wasnorm_wordpool_576.txt	LTP389	ltpFR2	18	11	SIDEWALK	1303	n/a	n/a	0	0	0
2248849	REC_WORD	wordpools/wasnorm_wordpool_576.txt	LTP389	ltpFR2	18	11	CHAUFFEUR	283	n/a	n/a	0	0	0
2250002	REC_WORD	wordpools/wasnorm_wordpool_576.txt	LTP389	ltpFR2	18	11	MUMMY	932	n/a	n/a	0	0	0
2253786	REC_WORD	wordpools/wasnorm_wordpool_576.txt	LTP389	ltpFR2	18	11	KNAPSACK	783	n/a	n/a	0	0	0
2254604	REC_WORD	wordpools/wasnorm_wordpool_576.txt	LTP389	ltpFR2	18	11	SEAGULL	1261	n/a	n/a	0	0	0
2255558	REC_WORD	wordpools/wasnorm_wordpool_576.txt	LTP389	ltpFR2	18	11	MILDEW	893	n/a	n/a	0	0	0
2256486	REC_WORD	wordpools/wasnorm_wordpool_576.txt	LTP389	ltpFR2	18	11	DENIM	446	n/a	n/a	0	0	0
2257329	REC_WORD	wordpools/wasnorm_wordpool_576.txt	LTP389	ltpFR2	18	11	QUARTER	1148	n/a	n/a	0	0	0
2258342	REC_WORD	wordpools/wasnorm_wordpool_576.txt	LTP389	ltpFR2	18	11	BEEF	113	n/a	n/a	0	0	0
2261555	REC_WORD	wordpools/wasnorm_wordpool_576.txt	LTP389	ltpFR2	18	11	COUNTY	389	n/a	n/a	0	0	0
2263602	REC_WORD	wordpools/wasnorm_wordpool_576.txt	LTP389	ltpFR2	18	11	BARREL	91	n/a	n/a	0	0	0
2267530	REC_WORD	wordpools/wasnorm_wordpool_576.txt	LTP389	ltpFR2	18	11	TROMBONE	1508	n/a	n/a	0	0	0
2271863	REC_WORD	wordpools/wasnorm_wordpool_576.txt	LTP389	ltpFR2	18	11	HOOD	714	n/a	n/a	0	0	0
2279416	REC_WORD	wordpools/wasnorm_wordpool_576.txt	LTP389	ltpFR2	18	11	TOURIST	1488	n/a	n/a	0	0	0
2328245	DISTRACTOR	n/a	LTP389	ltpFR2	18	12	n/a	n/a	n/a	n/a	0	0	0
2328246	START	n/a	LTP389	ltpFR2	18	n/a	n/a	n/a	19	n/a	n/a	n/a	n/a
2328262	PROB	n/a	LTP389	ltpFR2	18	n/a	n/a	n/a	19	16	2	9	5
2329595	PROB	n/a	LTP389	ltpFR2	18	n/a	n/a	n/a	19	16	6	5	5
2330712	PROB	n/a	LTP389	ltpFR2	18	n/a	n/a	n/a	19	16	1	6	9
2331912	PROB	n/a	LTP389	ltpFR2	18	n/a	n/a	n/a	19	13	2	8	3
2333145	PROB	n/a	LTP389	ltpFR2	18	n/a	n/a	n/a	19	22	5	8	9
2334845	PROB	n/a	LTP389	ltpFR2	18	n/a	n/a	n/a	19	10	2	3	5
2336445	PROB	n/a	LTP389	ltpFR2	18	n/a	n/a	n/a	19	21	7	7	7
2337512	PROB	n/a	LTP389	ltpFR2	18	n/a	n/a	n/a	19	12	2	1	9
2338762	PROB	n/a	LTP389	ltpFR2	18	n/a	n/a	n/a	19	13	1	5	7
2340395	PROB	n/a	LTP389	ltpFR2	18	n/a	n/a	n/a	19	9	3	5	1
2341578	PROB	n/a	LTP389	ltpFR2	18	n/a	n/a	n/a	19	20	9	8	3
2343178	PROB	n/a	LTP389	ltpFR2	18	n/a	n/a	n/a	19	8	4	2	2
2344345	PROB	n/a	LTP389	ltpFR2	18	n/a	n/a	n/a	19	17	7	1	9
2345712	PROB	n/a	LTP389	ltpFR2	18	n/a	n/a	n/a	19	16	9	5	2
2347628	PROB	n/a	LTP389	ltpFR2	18	n/a	n/a	n/a	19	16	8	6	1
2349278	PROB	n/a	LTP389	ltpFR2	18	n/a	n/a	n/a	19	19	9	2	8
2351491	STOP	n/a	LTP389	ltpFR2	18	n/a	n/a	n/a	19	n/a	n/a	n/a	n/a
2353178	WORD	wordpools/wasnorm_wordpool_576.txt	LTP389	ltpFR2	18	12	GROUND	666	n/a	n/a	0	0	0
2355762	WORD	wordpools/wasnorm_wordpool_576.txt	LTP389	ltpFR2	18	12	PLAZA	1088	n/a	n/a	0	0	0
2358261	WORD	wordpools/wasnorm_wordpool_576.txt	LTP389	ltpFR2	18	12	FINGER	567	n/a	n/a	0	0	0
2360945	WORD	wordpools/wasnorm_wordpool_576.txt	LTP389	ltpFR2	18	12	WRENCH	1625	n/a	n/a	0	0	0
2363711	WORD	wordpools/wasnorm_wordpool_576.txt	LTP389	ltpFR2	18	12	PUPPY	1144	n/a	n/a	0	0	0
2366528	WORD	wordpools/wasnorm_wordpool_576.txt	LTP389	ltpFR2	18	12	CATCHER	258	n/a	n/a	0	0	0
2369161	WORD	wordpools/wasnorm_wordpool_576.txt	LTP389	ltpFR2	18	12	SCISSORS	1250	n/a	n/a	0	0	0
2371861	WORD	wordpools/wasnorm_wordpool_576.txt	LTP389	ltpFR2	18	12	YARN	1631	n/a	n/a	0	0	0
2374411	WORD	wordpools/wasnorm_wordpool_576.txt	LTP389	ltpFR2	18	12	STICKER	1382	n/a	n/a	0	0	0
2377128	WORD	wordpools/wasnorm_wordpool_576.txt	LTP389	ltpFR2	18	12	ATOM	55	n/a	n/a	0	0	0
2379678	WORD	wordpools/wasnorm_wordpool_576.txt	LTP389	ltpFR2	18	12	CHEMIST	292	n/a	n/a	0	0	0
2382461	WORD	wordpools/wasnorm_wordpool_576.txt	LTP389	ltpFR2	18	12	PUDDLE	1140	n/a	n/a	0	0	0
2385178	WORD	wordpools/wasnorm_wordpool_576.txt	LTP389	ltpFR2	18	12	CANAL	226	n/a	n/a	0	0	0
2387661	WORD	wordpools/wasnorm_wordpool_576.txt	LTP389	ltpFR2	18	12	RAZOR	1171	n/a	n/a	0	0	0
2390278	WORD	wordpools/wasnorm_wordpool_576.txt	LTP389	ltpFR2	18	12	FLASK	576	n/a	n/a	0	0	0
2392829	WORD	wordpools/wasnorm_wordpool_576.txt	LTP389	ltpFR2	18	12	THREAD	1460	n/a	n/a	0	0	0
2395411	WORD	wordpools/wasnorm_wordpool_576.txt	LTP389	ltpFR2	18	12	BLUEPRINT	142	n/a	n/a	0	0	0
2398111	WORD	wordpools/wasnorm_wordpool_576.txt	LTP389	ltpFR2	18	12	DINER	467	n/a	n/a	0	0	0
2400561	WORD	wordpools/wasnorm_wordpool_576.txt	LTP389	ltpFR2	18	12	CELLAR	267	n/a	n/a	0	0	0
2403161	WORD	wordpools/wasnorm_wordpool_576.txt	LTP389	ltpFR2	18	12	GARDEN	623	n/a	n/a	0	0	0
2405944	WORD	wordpools/wasnorm_wordpool_576.txt	LTP389	ltpFR2	18	12	CABIN	211	n/a	n/a	0	0	0
2408427	WORD	wordpools/wasnorm_wordpool_576.txt	LTP389	ltpFR2	18	12	NOMAD	955	n/a	n/a	0	0	0
2410961	WORD	wordpools/wasnorm_wordpool_576.txt	LTP389	ltpFR2	18	12	SALMON	1227	n/a	n/a	0	0	0
2413527	WORD	wordpools/wasnorm_wordpool_576.txt	LTP389	ltpFR2	18	12	PLIERS	1089	n/a	n/a	0	0	0
2415144	START	n/a	LTP389	ltpFR2	18	n/a	n/a	n/a	20	n/a	n/a	n/a	n/a
2416246	DISTRACTOR	n/a	LTP389	ltpFR2	18	12	n/a	n/a	n/a	n/a	0	0	0
2416261	PROB	n/a	LTP389	ltpFR2	18	n/a	n/a	n/a	20	13	5	2	6
2418660	PROB	n/a	LTP389	ltpFR2	18	n/a	n/a	n/a	20	11	6	2	3
2420377	PROB	n/a	LTP389	ltpFR2	18	n/a	n/a	n/a	20	14	3	9	2
2422560	PROB	n/a	LTP389	ltpFR2	18	n/a	n/a	n/a	20	18	7	8	3
2424277	PROB	n/a	LTP389	ltpFR2	18	n/a	n/a	n/a	20	15	2	6	7
2425677	PROB	n/a	LTP389	ltpFR2	18	n/a	n/a	n/a	20	16	5	6	5
2427344	PROB	n/a	LTP389	ltpFR2	18	n/a	n/a	n/a	20	13	4	8	1
2428944	PROB	n/a	LTP389	ltpFR2	18	n/a	n/a	n/a	20	20	6	7	7
2430394	PROB	n/a	LTP389	ltpFR2	18	n/a	n/a	n/a	20	17	3	9	5
2433127	PROB	n/a	LTP389	ltpFR2	18	n/a	n/a	n/a	20	15	9	1	5
2434227	PROB	n/a	LTP389	ltpFR2	18	n/a	n/a	n/a	20	12	9	1	2
2435427	PROB	n/a	LTP389	ltpFR2	18	n/a	n/a	n/a	20	19	6	6	7
2436744	PROB	n/a	LTP389	ltpFR2	18	n/a	n/a	n/a	20	18	4	6	8
2437845	STOP	n/a	LTP389	ltpFR2	18	n/a	n/a	n/a	20	n/a	n/a	n/a	n/a
2440911	REC_START	n/a	LTP389	ltpFR2	18	12	n/a	n/a	n/a	n/a	0	0	0
2441573	REC_WORD	wordpools/wasnorm_wordpool_576.txt	LTP389	ltpFR2	18	12	GROUND	666	n/a	n/a	0	0	0
2442338	REC_WORD	wordpools/wasnorm_wordpool_576.txt	LTP389	ltpFR2	18	12	PLAZA	1088	n/a	n/a	0	0	0
2445944	REC_WORD	wordpools/wasnorm_wordpool_576.txt	LTP389	ltpFR2	18	12	CHEMIST	292	n/a	n/a	0	0	0
2447079	REC_WORD	wordpools/wasnorm_wordpool_576.txt	LTP389	ltpFR2	18	12	PUPPY	1144	n/a	n/a	0	0	0
2448295	REC_WORD	wordpools/wasnorm_wordpool_576.txt	LTP389	ltpFR2	18	12	DINER	467	n/a	n/a	0	0	0
2449144	REC_WORD	wordpools/wasnorm_wordpool_576.txt	LTP389	ltpFR2	18	12	GARDEN	623	n/a	n/a	0	0	0
2450063	REC_WORD	wordpools/wasnorm_wordpool_576.txt	LTP389	ltpFR2	18	12	WRENCH	1625	n/a	n/a	0	0	0
2452147	REC_WORD	wordpools/wasnorm_wordpool_576.txt	LTP389	ltpFR2	18	12	SCISSORS	1250	n/a	n/a	0	0	0
2453304	REC_WORD	wordpools/wasnorm_wordpool_576.txt	LTP389	ltpFR2	18	12	YARN	1631	n/a	n/a	0	0	0
2456703	REC_WORD	wordpools/wasnorm_wordpool_576.txt	LTP389	ltpFR2	18	12	THREAD	1460	n/a	n/a	0	0	0
2458687	REC_WORD	wordpools/wasnorm_wordpool_576.txt	LTP389	ltpFR2	18	12	CANAL	226	n/a	n/a	0	0	0
2459607	REC_WORD	wordpools/wasnorm_wordpool_576.txt	LTP389	ltpFR2	18	12	FINGER	567	n/a	n/a	0	0	0
2465206	REC_WORD	wordpools/wasnorm_wordpool_576.txt	LTP389	ltpFR2	18	12	NOMAD	955	n/a	n/a	0	0	0
2466986	REC_WORD	wordpools/wasnorm_wordpool_576.txt	LTP389	ltpFR2	18	12	CABIN	211	n/a	n/a	0	0	0
2469365	REC_WORD	wordpools/wasnorm_wordpool_576.txt	LTP389	ltpFR2	18	12	PUDDLE	1140	n/a	n/a	0	0	0
2472462	REC_WORD	wordpools/wasnorm_wordpool_576.txt	LTP389	ltpFR2	18	12	STICKER	1382	n/a	n/a	0	0	0
2473941	REC_WORD	wordpools/wasnorm_wordpool_576.txt	LTP389	ltpFR2	18	12	FLASK	576	n/a	n/a	0	0	0
2484344	REC_WORD	wordpools/wasnorm_wordpool_576.txt	LTP389	ltpFR2	18	12	CATCHER	258	n/a	n/a	0	0	0
2531375	WORD	wordpools/wasnorm_wordpool_576.txt	LTP389	ltpFR2	18	13	MOP	916	n/a	n/a	0	0	0
2533875	WORD	wordpools/wasnorm_wordpool_576.txt	LTP389	ltpFR2	18	13	GAVEL	627	n/a	n/a	0	0	0
2536442	WORD	wordpools/wasnorm_wordpool_576.txt	LTP389	ltpFR2	18	13	PLASTER	1085	n/a	n/a	0	0	0
2538875	WORD	wordpools/wasnorm_wordpool_576.txt	LTP389	ltpFR2	18	13	CEILING	265	n/a	n/a	0	0	0
2541542	WORD	wordpools/wasnorm_wordpool_576.txt	LTP389	ltpFR2	18	13	SCALLOP	1242	n/a	n/a	0	0	0
2544158	WORD	wordpools/wasnorm_wordpool_576.txt	LTP389	ltpFR2	18	13	COOKBOOK	373	n/a	n/a	0	0	0
2546875	WORD	wordpools/wasnorm_wordpool_576.txt	LTP389	ltpFR2	18	13	COMPASS	358	n/a	n/a	0	0	0
2549508	WORD	wordpools/wasnorm_wordpool_576.txt	LTP389	ltpFR2	18	13	RUG	1215	n/a	n/a	0	0	0
2552242	WORD	wordpools/wasnorm_wordpool_576.txt	LTP389	ltpFR2	18	13	TABLET	1427	n/a	n/a	0	0	0
2554892	WORD	wordpools/wasnorm_wordpool_576.txt	LTP389	ltpFR2	18	13	FLUTE	585	n/a	n/a	0	0	0
2557492	WORD	wordpools/wasnorm_wordpool_576.txt	LTP389	ltpFR2	18	13	BISON	131	n/a	n/a	0	0	0
2560042	WORD	wordpools/wasnorm_wordpool_576.txt	LTP389	ltpFR2	18	13	PENGUIN	1044	n/a	n/a	0	0	0
2562608	WORD	wordpools/wasnorm_wordpool_576.txt	LTP389	ltpFR2	18	13	SEAL	1262	n/a	n/a	0	0	0
2565291	WORD	wordpools/wasnorm_wordpool_576.txt	LTP389	ltpFR2	18	13	CLOUD	328	n/a	n/a	0	0	0
2567776	WORD	wordpools/wasnorm_wordpool_576.txt	LTP389	ltpFR2	18	13	HOOK	715	n/a	n/a	0	0	0
2570275	WORD	wordpools/wasnorm_wordpool_576.txt	LTP389	ltpFR2	18	13	RECEIPT	1173	n/a	n/a	0	0	0
2572725	WORD	wordpools/wasnorm_wordpool_576.txt	LTP389	ltpFR2	18	13	GALLON	618	n/a	n/a	0	0	0
2575308	WORD	wordpools/wasnorm_wordpool_576.txt	LTP389	ltpFR2	18	13	BLADE	134	n/a	n/a	0	0	0
2577925	WORD	wordpools/wasnorm_wordpool_576.txt	LTP389	ltpFR2	18	13	CRAB	397	n/a	n/a	0	0	0
2580391	WORD	wordpools/wasnorm_wordpool_576.txt	LTP389	ltpFR2	18	13	COBRA	336	n/a	n/a	0	0	0
2583041	WORD	wordpools/wasnorm_wordpool_576.txt	LTP389	ltpFR2	18	13	PREACHER	1119	n/a	n/a	0	0	0
2585508	WORD	wordpools/wasnorm_wordpool_576.txt	LTP389	ltpFR2	18	13	HATCHET	691	n/a	n/a	0	0	0
2588158	WORD	wordpools/wasnorm_wordpool_576.txt	LTP389	ltpFR2	18	13	CRIB	407	n/a	n/a	0	0	0
2590658	WORD	wordpools/wasnorm_wordpool_576.txt	LTP389	ltpFR2	18	13	INFANT	737	n/a	n/a	0	0	0
2592275	START	n/a	LTP389	ltpFR2	18	n/a	n/a	n/a	21	n/a	n/a	n/a	n/a
2593116	DISTRACTOR	n/a	LTP389	ltpFR2	18	13	n/a	n/a	n/a	n/a	0	0	0
2593124	PROB	n/a	LTP389	ltpFR2	18	n/a	n/a	n/a	21	22	5	8	9
2594792	PROB	n/a	LTP389	ltpFR2	18	n/a	n/a	n/a	21	12	2	9	1
2596374	PROB	n/a	LTP389	ltpFR2	18	n/a	n/a	n/a	21	20	4	9	7
2598724	PROB	n/a	LTP389	ltpFR2	18	n/a	n/a	n/a	21	11	4	2	5
2600358	PROB	n/a	LTP389	ltpFR2	18	n/a	n/a	n/a	21	11	5	5	1
2601374	PROB	n/a	LTP389	ltpFR2	18	n/a	n/a	n/a	21	5	1	2	2
2602391	PROB	n/a	LTP389	ltpFR2	18	n/a	n/a	n/a	21	12	9	1	2
2603491	PROB	n/a	LTP389	ltpFR2	18	n/a	n/a	n/a	21	16	9	1	6
2604758	PROB	n/a	LTP389	ltpFR2	18	n/a	n/a	n/a	21	18	9	1	8
2605941	PROB	n/a	LTP389	ltpFR2	18	n/a	n/a	n/a	21	16	7	5	4
2607407	PROB	n/a	LTP389	ltpFR2	18	n/a	n/a	n/a	21	18	8	9	1
2609124	PROB	n/a	LTP389	ltpFR2	18	n/a	n/a	n/a	21	18	7	2	9
2610674	PROB	n/a	LTP389	ltpFR2	18	n/a	n/a	n/a	21	9	6	2	1
2612057	PROB	n/a	LTP389	ltpFR2	18	n/a	n/a	n/a	21	12	8	3	1
2613324	PROB	n/a	LTP389	ltpFR2	18	n/a	n/a	n/a	21	11	5	5	1
2614291	PROB	n/a	LTP389	ltpFR2	18	n/a	n/a	n/a	21	16	5	9	2
2616115	STOP	n/a	LTP389	ltpFR2	18	n/a	n/a	n/a	21	n/a	n/a	n/a	n/a
2618174	REC_START	n/a	LTP389	ltpFR2	18	13	n/a	n/a	n/a	n/a	0	0	0
2620932	REC_WORD	wordpools/wasnorm_wordpool_576.txt	LTP389	ltpFR2	18	13	MOP	916	n/a	n/a	0	0	0
2622155	REC_WORD	wordpools/wasnorm_wordpool_576.txt	LTP389	ltpFR2	18	13	GAVEL	627	n/a	n/a	0	0	0
2623033	REC_WORD	wordpools/wasnorm_wordpool_576.txt	LTP389	ltpFR2	18	13	SCALLOP	1242	n/a	n/a	0	0	0
2624070	REC_WORD	wordpools/wasnorm_wordpool_576.txt	LTP389	ltpFR2	18	13	PLASTER	1085	n/a	n/a	0	0	0
2625171	REC_WORD	wordpools/wasnorm_wordpool_576.txt	LTP389	ltpFR2	18	13	CEILING	265	n/a	n/a	0	0	0
2629446	REC_WORD	wordpools/wasnorm_wordpool_576.txt	LTP389	ltpFR2	18	13	TABLET	1427	n/a	n/a	0	0	0
2630271	REC_WORD	wordpools/wasnorm_wordpool_576.txt	LTP389	ltpFR2	18	13	CRIB	407	n/a	n/a	0	0	0
2631121	REC_WORD	wordpools/wasnorm_wordpool_576.txt	LTP389	ltpFR2	18	13	INFANT	737	n/a	n/a	0	0	0
2631893	REC_WORD	wordpools/wasnorm_wordpool_576.txt	LTP389	ltpFR2	18	13	SEAL	1262	n/a	n/a	0	0	0
2632814	REC_WORD	wordpools/wasnorm_wordpool_576.txt	LTP389	ltpFR2	18	13	PENGUIN	1044	n/a	n/a	0	0	0
2633706	REC_WORD	wordpools/wasnorm_wordpool_576.txt	LTP389	ltpFR2	18	13	BISON	131	n/a	n/a	0	0	0
2634819	REC_WORD	wordpools/wasnorm_wordpool_576.txt	LTP389	ltpFR2	18	13	CRAB	397	n/a	n/a	0	0	0
2635920	REC_WORD	wordpools/wasnorm_wordpool_576.txt	LTP389	ltpFR2	18	13	GALLON	618	n/a	n/a	0	0	0
2638247	REC_WORD	wordpools/wasnorm_wordpool_576.txt	LTP389	ltpFR2	18	13	BLADE	134	n/a	n/a	0	0	0
2639258	REC_WORD	wordpools/wasnorm_wordpool_576.txt	LTP389	ltpFR2	18	13	HATCHET	691	n/a	n/a	0	0	0
2642771	REC_WORD	wordpools/wasnorm_wordpool_576.txt	LTP389	ltpFR2	18	13	PREACHER	1119	n/a	n/a	0	0	0
2645613	REC_WORD	wordpools/wasnorm_wordpool_576.txt	LTP389	ltpFR2	18	13	FLUTE	585	n/a	n/a	0	0	0
2647233	REC_WORD	wordpools/wasnorm_wordpool_576.txt	LTP389	ltpFR2	18	13	COOKBOOK	373	n/a	n/a	0	0	0
2649270	REC_WORD	wordpools/wasnorm_wordpool_576.txt	LTP389	ltpFR2	18	13	RUG	1215	n/a	n/a	0	0	0
2653029	REC_WORD	wordpools/wasnorm_wordpool_576.txt	LTP389	ltpFR2	18	13	HOOK	715	n/a	n/a	0	0	0
2654250	REC_WORD	wordpools/wasnorm_wordpool_576.txt	LTP389	ltpFR2	18	13	RECEIPT	1173	n/a	n/a	0	0	0
2708622	DISTRACTOR	n/a	LTP389	ltpFR2	18	14	n/a	n/a	n/a	n/a	0	0	0
2708623	START	n/a	LTP389	ltpFR2	18	n/a	n/a	n/a	22	n/a	n/a	n/a	n/a
2708639	PROB	n/a	LTP389	ltpFR2	18	n/a	n/a	n/a	22	16	5	5	6
2709773	PROB	n/a	LTP389	ltpFR2	18	n/a	n/a	n/a	22	12	1	8	3
2710906	PROB	n/a	LTP389	ltpFR2	18	n/a	n/a	n/a	22	15	7	4	4
2712106	PROB	n/a	LTP389	ltpFR2	18	n/a	n/a	n/a	22	19	8	9	2
2713856	PROB	n/a	LTP389	ltpFR2	18	n/a	n/a	n/a	22	16	1	6	9
2715622	PROB	n/a	LTP389	ltpFR2	18	n/a	n/a	n/a	22	17	6	4	7
2717139	PROB	n/a	LTP389	ltpFR2	18	n/a	n/a	n/a	22	10	2	4	4
2718572	PROB	n/a	LTP389	ltpFR2	18	n/a	n/a	n/a	22	10	2	3	5
2719790	PROB	n/a	LTP389	ltpFR2	18	n/a	n/a	n/a	22	15	6	8	1
2721189	PROB	n/a	LTP389	ltpFR2	18	n/a	n/a	n/a	22	25	7	9	9
2722889	PROB	n/a	LTP389	ltpFR2	18	n/a	n/a	n/a	22	7	1	1	5
2724122	PROB	n/a	LTP389	ltpFR2	18	n/a	n/a	n/a	22	20	7	9	4
2725939	PROB	n/a	LTP389	ltpFR2	18	n/a	n/a	n/a	22	13	1	8	4
2727122	PROB	n/a	LTP389	ltpFR2	18	n/a	n/a	n/a	22	21	3	9	9
2729522	PROB	n/a	LTP389	ltpFR2	18	n/a	n/a	n/a	22	13	2	7	4
2730755	PROB	n/a	LTP389	ltpFR2	18	n/a	n/a	n/a	22	14	9	3	2
2732318	STOP	n/a	LTP389	ltpFR2	18	n/a	n/a	n/a	22	n/a	n/a	n/a	n/a
2733655	WORD	wordpools/wasnorm_wordpool_576.txt	LTP389	ltpFR2	18	14	ASIA	46	n/a	n/a	0	0	0
2736389	WORD	wordpools/wasnorm_wordpool_576.txt	LTP389	ltpFR2	18	14	EUROPE	541	n/a	n/a	0	0	0
2739072	WORD	wordpools/wasnorm_wordpool_576.txt	LTP389	ltpFR2	18	14	BINDER	127	n/a	n/a	0	0	0
2741505	WORD	wordpools/wasnorm_wordpool_576.txt	LTP389	ltpFR2	18	14	BELLY	119	n/a	n/a	0	0	0
2744155	WORD	wordpools/wasnorm_wordpool_576.txt	LTP389	ltpFR2	18	14	BEAST	108	n/a	n/a	0	0	0
2746589	WORD	wordpools/wasnorm_wordpool_576.txt	LTP389	ltpFR2	18	14	SOFTBALL	1343	n/a	n/a	0	0	0
2749172	WORD	wordpools/wasnorm_wordpool_576.txt	LTP389	ltpFR2	18	14	BRANDY	169	n/a	n/a	0	0	0
2751688	WORD	wordpools/wasnorm_wordpool_576.txt	LTP389	ltpFR2	18	14	TOMBSTONE	1478	n/a	n/a	0	0	0
2754322	WORD	wordpools/wasnorm_wordpool_576.txt	LTP389	ltpFR2	18	14	TABLE	1426	n/a	n/a	0	0	0
2756922	WORD	wordpools/wasnorm_wordpool_576.txt	LTP389	ltpFR2	18	14	SHOULDER	1294	n/a	n/a	0	0	0
2759405	WORD	wordpools/wasnorm_wordpool_576.txt	LTP389	ltpFR2	18	14	GRIZZLY	662	n/a	n/a	0	0	0
2761955	WORD	wordpools/wasnorm_wordpool_576.txt	LTP389	ltpFR2	18	14	BEAVER	109	n/a	n/a	0	0	0
2764438	WORD	wordpools/wasnorm_wordpool_576.txt	LTP389	ltpFR2	18	14	REPORT	1184	n/a	n/a	0	0	0
2767221	WORD	wordpools/wasnorm_wordpool_576.txt	LTP389	ltpFR2	18	14	LEG	809	n/a	n/a	0	0	0
2770005	WORD	wordpools/wasnorm_wordpool_576.txt	LTP389	ltpFR2	18	14	SODA	1341	n/a	n/a	0	0	0
2772688	WORD	wordpools/wasnorm_wordpool_576.txt	LTP389	ltpFR2	18	14	CLAM	315	n/a	n/a	0	0	0
2775271	WORD	wordpools/wasnorm_wordpool_576.txt	LTP389	ltpFR2	18	14	ANTLER	29	n/a	n/a	0	0	0
2778071	WORD	wordpools/wasnorm_wordpool_576.txt	LTP389	ltpFR2	18	14	PIZZA	1079	n/a	n/a	0	0	0
2780789	WORD	wordpools/wasnorm_wordpool_576.txt	LTP389	ltpFR2	18	14	SISTER	1312	n/a	n/a	0	0	0
2783521	WORD	wordpools/wasnorm_wordpool_576.txt	LTP389	ltpFR2	18	14	FRIEND	606	n/a	n/a	0	0	0
2785988	WORD	wordpools/wasnorm_wordpool_576.txt	LTP389	ltpFR2	18	14	PORTRAIT	1111	n/a	n/a	0	0	0
2788621	WORD	wordpools/wasnorm_wordpool_576.txt	LTP389	ltpFR2	18	14	POPCORN	1104	n/a	n/a	0	0	0
2791121	WORD	wordpools/wasnorm_wordpool_576.txt	LTP389	ltpFR2	18	14	COCOON	339	n/a	n/a	0	0	0
2793721	WORD	wordpools/wasnorm_wordpool_576.txt	LTP389	ltpFR2	18	14	LADDER	793	n/a	n/a	0	0	0
2795338	START	n/a	LTP389	ltpFR2	18	n/a	n/a	n/a	23	n/a	n/a	n/a	n/a
2796484	DISTRACTOR	n/a	LTP389	ltpFR2	18	14	n/a	n/a	n/a	n/a	0	0	0
2796488	PROB	n/a	LTP389	ltpFR2	18	n/a	n/a	n/a	23	14	1	5	8
2798321	PROB	n/a	LTP389	ltpFR2	18	n/a	n/a	n/a	23	14	8	4	2
2800171	PROB	n/a	LTP389	ltpFR2	18	n/a	n/a	n/a	23	17	5	6	6
2802371	PROB	n/a	LTP389	ltpFR2	18	n/a	n/a	n/a	23	14	8	4	2
2804104	PROB	n/a	LTP389	ltpFR2	18	n/a	n/a	n/a	23	11	1	2	8
2805571	PROB	n/a	LTP389	ltpFR2	18	n/a	n/a	n/a	23	19	8	9	2
2807388	PROB	n/a	LTP389	ltpFR2	18	n/a	n/a	n/a	23	13	1	6	6
2808471	PROB	n/a	LTP389	ltpFR2	18	n/a	n/a	n/a	23	10	5	3	2
2809771	PROB	n/a	LTP389	ltpFR2	18	n/a	n/a	n/a	23	15	1	9	5
2810921	PROB	n/a	LTP389	ltpFR2	18	n/a	n/a	n/a	23	9	1	3	5
2812237	PROB	n/a	LTP389	ltpFR2	18	n/a	n/a	n/a	23	10	2	6	2
2813604	PROB	n/a	LTP389	ltpFR2	18	n/a	n/a	n/a	23	7	1	3	3
2815421	PROB	n/a	LTP389	ltpFR2	18	n/a	n/a	n/a	23	12	4	2	8
2817953	STOP	n/a	LTP389	ltpFR2	18	n/a	n/a	n/a	23	n/a	n/a	n/a	n/a
2821221	REC_START	n/a	LTP389	ltpFR2	18	14	n/a	n/a	n/a	n/a	0	0	0
2822333	REC_WORD	wordpools/wasnorm_wordpool_576.txt	LTP389	ltpFR2	18	14	ASIA	46	n/a	n/a	0	0	0
2823271	REC_WORD	wordpools/wasnorm_wordpool_576.txt	LTP389	ltpFR2	18	14	EUROPE	541	n/a	n/a	0	0	0
2824181	REC_WORD	wordpools/wasnorm_wordpool_576.txt	LTP389	ltpFR2	18	14	BINDER	127	n/a	n/a	0	0	0
2825046	REC_WORD	wordpools/wasnorm_wordpool_576.txt	LTP389	ltpFR2	18	14	SOFTBALL	1343	n/a	n/a	0	0	0
2827753	REC_WORD	wordpools/wasnorm_wordpool_576.txt	LTP389	ltpFR2	18	14	SCOTCH	1251	n/a	n/a	0	0	0
2828783	REC_WORD_VV	wordpools/wasnorm_wordpool_576.txt	LTP389	ltpFR2	18	14	<>	-1	n/a	n/a	0	0	0
2831589	REC_WORD	wordpools/wasnorm_wordpool_576.txt	LTP389	ltpFR2	18	14	BEAST	108	n/a	n/a	0	0	0
2833995	REC_WORD	wordpools/wasnorm_wordpool_576.txt	LTP389	ltpFR2	18	14	POPCORN	1104	n/a	n/a	0	0	0
2835131	REC_WORD	wordpools/wasnorm_wordpool_576.txt	LTP389	ltpFR2	18	14	PICTURE	1061	n/a	n/a	0	0	0
2860345	REC_WORD	wordpools/wasnorm_wordpool_576.txt	LTP389	ltpFR2	18	14	ANTLER	29	n/a	n/a	0	0	0
2870085	REC_WORD	wordpools/wasnorm_wordpool_576.txt	LTP389	ltpFR2	18	14	TOMBSTONE	1478	n/a	n/a	0	0	0
2879688	REC_WORD	wordpools/wasnorm_wordpool_576.txt	LTP389	ltpFR2	18	14	REPORT	1184	n/a	n/a	0	0	0
2911669	DISTRACTOR	n/a	LTP389	ltpFR2	18	15	n/a	n/a	n/a	n/a	0	0	0
2911669	START	n/a	LTP389	ltpFR2	18	n/a	n/a	n/a	24	n/a	n/a	n/a	n/a
2911686	PROB	n/a	LTP389	ltpFR2	18	n/a	n/a	n/a	24	15	7	6	2
2913652	PROB	n/a	LTP389	ltpFR2	18	n/a	n/a	n/a	24	10	2	2	6
2914852	PROB	n/a	LTP389	ltpFR2	18	n/a	n/a	n/a	24	18	4	6	8
2916186	PROB	n/a	LTP389	ltpFR2	18	n/a	n/a	n/a	24	13	4	8	1
2917619	PROB	n/a	LTP389	ltpFR2	18	n/a	n/a	n/a	24	12	3	3	6
2918719	PROB	n/a	LTP389	ltpFR2	18	n/a	n/a	n/a	24	11	3	2	6
2919919	PROB	n/a	LTP389	ltpFR2	18	n/a	n/a	n/a	24	8	2	1	5
2921502	PROB	n/a	LTP389	ltpFR2	18	n/a	n/a	n/a	24	17	5	5	7
2922619	PROB	n/a	LTP389	ltpFR2	18	n/a	n/a	n/a	24	19	2	8	9
2923787	PROB	n/a	LTP389	ltpFR2	18	n/a	n/a	n/a	24	19	1	9	9
2924919	PROB	n/a	LTP389	ltpFR2	18	n/a	n/a	n/a	24	12	9	2	1
2926136	PROB	n/a	LTP389	ltpFR2	18	n/a	n/a	n/a	24	17	9	1	7
2927269	PROB	n/a	LTP389	ltpFR2	18	n/a	n/a	n/a	24	14	5	8	1
2928635	PROB	n/a	LTP389	ltpFR2	18	n/a	n/a	n/a	24	16	9	4	3
2930052	PROB	n/a	LTP389	ltpFR2	18	n/a	n/a	n/a	24	12	1	9	2
2931452	PROB	n/a	LTP389	ltpFR2	18	n/a	n/a	n/a	24	14	4	9	1
2935669	STOP	n/a	LTP389	ltpFR2	18	n/a	n/a	n/a	24	n/a	n/a	n/a	n/a
2936803	WORD	wordpools/wasnorm_wordpool_576.txt	LTP389	ltpFR2	18	15	TAXI	1438	n/a	n/a	0	0	0
2939569	WORD	wordpools/wasnorm_wordpool_576.txt	LTP389	ltpFR2	18	15	HONEY	713	n/a	n/a	0	0	0
2942019	WORD	wordpools/wasnorm_wordpool_576.txt	LTP389	ltpFR2	18	15	APPLE	33	n/a	n/a	0	0	0
2944502	WORD	wordpools/wasnorm_wordpool_576.txt	LTP389	ltpFR2	18	15	PERMIT	1051	n/a	n/a	0	0	0
2947319	WORD	wordpools/wasnorm_wordpool_576.txt	LTP389	ltpFR2	18	15	PEPPER	1047	n/a	n/a	0	0	0
2949768	WORD	wordpools/wasnorm_wordpool_576.txt	LTP389	ltpFR2	18	15	BUBBLE	183	n/a	n/a	0	0	0
2952485	WORD	wordpools/wasnorm_wordpool_576.txt	LTP389	ltpFR2	18	15	LOFT	840	n/a	n/a	0	0	0
2955135	WORD	wordpools/wasnorm_wordpool_576.txt	LTP389	ltpFR2	18	15	WORKER	1621	n/a	n/a	0	0	0
2957568	WORD	wordpools/wasnorm_wordpool_576.txt	LTP389	ltpFR2	18	15	OFFICE	972	n/a	n/a	0	0	0
2960002	WORD	wordpools/wasnorm_wordpool_576.txt	LTP389	ltpFR2	18	15	TYPIST	1532	n/a	n/a	0	0	0
2962502	WORD	wordpools/wasnorm_wordpool_576.txt	LTP389	ltpFR2	18	15	SPONGE	1355	n/a	n/a	0	0	0
2965052	WORD	wordpools/wasnorm_wordpool_576.txt	LTP389	ltpFR2	18	15	GREASE	660	n/a	n/a	0	0	0
2967518	WORD	wordpools/wasnorm_wordpool_576.txt	LTP389	ltpFR2	18	15	RUST	1219	n/a	n/a	0	0	0
2970118	WORD	wordpools/wasnorm_wordpool_576.txt	LTP389	ltpFR2	18	15	DANDRUFF	439	n/a	n/a	0	0	0
2972868	WORD	wordpools/wasnorm_wordpool_576.txt	LTP389	ltpFR2	18	15	SPOUSE	1358	n/a	n/a	0	0	0
2975501	WORD	wordpools/wasnorm_wordpool_576.txt	LTP389	ltpFR2	18	15	GUARD	667	n/a	n/a	0	0	0
2977935	WORD	wordpools/wasnorm_wordpool_576.txt	LTP389	ltpFR2	18	15	GLOVE	642	n/a	n/a	0	0	0
2980685	WORD	wordpools/wasnorm_wordpool_576.txt	LTP389	ltpFR2	18	15	HUSBAND	728	n/a	n/a	0	0	0
2983435	WORD	wordpools/wasnorm_wordpool_576.txt	LTP389	ltpFR2	18	15	SCOTCH	1251	n/a	n/a	0	0	0
2985868	WORD	wordpools/wasnorm_wordpool_576.txt	LTP389	ltpFR2	18	15	RATTLE	1170	n/a	n/a	0	0	0
2988601	WORD	wordpools/wasnorm_wordpool_576.txt	LTP389	ltpFR2	18	15	LIZARD	834	n/a	n/a	0	0	0
2991351	WORD	wordpools/wasnorm_wordpool_576.txt	LTP389	ltpFR2	18	15	NAPKIN	937	n/a	n/a	0	0	0
2993851	WORD	wordpools/wasnorm_wordpool_576.txt	LTP389	ltpFR2	18	15	PADDING	999	n/a	n/a	0	0	0
2996651	WORD	wordpools/wasnorm_wordpool_576.txt	LTP389	ltpFR2	18	15	STUDENT	1395	n/a	n/a	0	0	0
2998268	START	n/a	LTP389	ltpFR2	18	n/a	n/a	n/a	25	n/a	n/a	n/a	n/a
2999372	DISTRACTOR	n/a	LTP389	ltpFR2	18	15	n/a	n/a	n/a	n/a	0	0	0
2999384	PROB	n/a	LTP389	ltpFR2	18	n/a	n/a	n/a	25	14	5	5	4
3000718	PROB	n/a	LTP389	ltpFR2	18	n/a	n/a	n/a	25	13	4	8	1
3002051	PROB	n/a	LTP389	ltpFR2	18	n/a	n/a	n/a	25	11	7	1	3
3003251	PROB	n/a	LTP389	ltpFR2	18	n/a	n/a	n/a	25	10	2	5	3
3004884	PROB	n/a	LTP389	ltpFR2	18	n/a	n/a	n/a	25	15	5	9	1
3006201	PROB	n/a	LTP389	ltpFR2	18	n/a	n/a	n/a	25	17	1	9	7
3007334	PROB	n/a	LTP389	ltpFR2	18	n/a	n/a	n/a	25	8	1	4	3
3008701	PROB	n/a	LTP389	ltpFR2	18	n/a	n/a	n/a	25	7	2	1	4
3010218	PROB	n/a	LTP389	ltpFR2	18	n/a	n/a	n/a	25	19	7	7	5
3011551	PROB	n/a	LTP389	ltpFR2	18	n/a	n/a	n/a	25	15	7	7	1
3012617	PROB	n/a	LTP389	ltpFR2	18	n/a	n/a	n/a	25	15	5	3	7
3013835	PROB	n/a	LTP389	ltpFR2	18	n/a	n/a	n/a	25	17	9	4	4
3015134	PROB	n/a	LTP389	ltpFR2	18	n/a	n/a	n/a	25	26	9	8	9
3017251	PROB	n/a	LTP389	ltpFR2	18	n/a	n/a	n/a	25	8	2	5	1
3018684	PROB	n/a	LTP389	ltpFR2	18	n/a	n/a	n/a	25	10	1	4	5
3020067	PROB	n/a	LTP389	ltpFR2	18	n/a	n/a	n/a	25	16	9	6	1
3021535	STOP	n/a	LTP389	ltpFR2	18	n/a	n/a	n/a	25	n/a	n/a	n/a	n/a
3024134	REC_START	n/a	LTP389	ltpFR2	18	15	n/a	n/a	n/a	n/a	0	0	0
3026490	REC_WORD	wordpools/wasnorm_wordpool_576.txt	LTP389	ltpFR2	18	15	TAXI	1438	n/a	n/a	0	0	0
3028679	REC_WORD	wordpools/wasnorm_wordpool_576.txt	LTP389	ltpFR2	18	15	PERMIT	1051	n/a	n/a	0	0	0
3029675	REC_WORD	wordpools/wasnorm_wordpool_576.txt	LTP389	ltpFR2	18	15	LOFT	840	n/a	n/a	0	0	0
3030376	REC_WORD	wordpools/wasnorm_wordpool_576.txt	LTP389	ltpFR2	18	15	GARAGE	621	n/a	n/a	0	0	0
3031329	REC_WORD	wordpools/wasnorm_wordpool_576.txt	LTP389	ltpFR2	18	15	GLOVE	642	n/a	n/a	0	0	0
3032167	REC_WORD	wordpools/wasnorm_wordpool_576.txt	LTP389	ltpFR2	18	15	GUARD	667	n/a	n/a	0	0	0
3034608	REC_WORD	wordpools/wasnorm_wordpool_576.txt	LTP389	ltpFR2	18	15	STUDENT	1395	n/a	n/a	0	0	0
3036722	REC_WORD	wordpools/wasnorm_wordpool_576.txt	LTP389	ltpFR2	18	15	HONEY	713	n/a	n/a	0	0	0
3037589	REC_WORD	wordpools/wasnorm_wordpool_576.txt	LTP389	ltpFR2	18	15	APPLE	33	n/a	n/a	0	0	0
3038501	REC_WORD	wordpools/wasnorm_wordpool_576.txt	LTP389	ltpFR2	18	15	PEPPER	1047	n/a	n/a	0	0	0
3040398	REC_WORD	wordpools/wasnorm_wordpool_576.txt	LTP389	ltpFR2	18	15	NAPKIN	937	n/a	n/a	0	0	0
3041949	REC_WORD	wordpools/wasnorm_wordpool_576.txt	LTP389	ltpFR2	18	15	RATTLE	1170	n/a	n/a	0	0	0
3043006	REC_WORD	wordpools/wasnorm_wordpool_576.txt	LTP389	ltpFR2	18	15	LIZARD	834	n/a	n/a	0	0	0
3046064	REC_WORD	wordpools/wasnorm_wordpool_576.txt	LTP389	ltpFR2	18	15	RUST	1219	n/a	n/a	0	0	0
3051050	REC_WORD	wordpools/wasnorm_wordpool_576.txt	LTP389	ltpFR2	18	15	PADDING	999	n/a	n/a	0	0	0
3114599	WORD	wordpools/wasnorm_wordpool_576.txt	LTP389	ltpFR2	18	16	CONCERT	360	n/a	n/a	0	0	0
3117149	WORD	wordpools/wasnorm_wordpool_576.txt	LTP389	ltpFR2	18	16	SUMMIT	1405	n/a	n/a	0	0	0
3119916	WORD	wordpools/wasnorm_wordpool_576.txt	LTP389	ltpFR2	18	16	OUTFIT	988	n/a	n/a	0	0	0
3122716	WORD	wordpools/wasnorm_wordpool_576.txt	LTP389	ltpFR2	18	16	SPOON	1357	n/a	n/a	0	0	0
3125249	WORD	wordpools/wasnorm_wordpool_576.txt	LTP389	ltpFR2	18	16	COOK	372	n/a	n/a	0	0	0
3127716	WORD	wordpools/wasnorm_wordpool_576.txt	LTP389	ltpFR2	18	16	FEMALE	559	n/a	n/a	0	0	0
3130516	WORD	wordpools/wasnorm_wordpool_576.txt	LTP389	ltpFR2	18	16	MAPLE	866	n/a	n/a	0	0	0
3133049	WORD	wordpools/wasnorm_wordpool_576.txt	LTP389	ltpFR2	18	16	SWORD	1423	n/a	n/a	0	0	0
3135682	WORD	wordpools/wasnorm_wordpool_576.txt	LTP389	ltpFR2	18	16	LAVA	804	n/a	n/a	0	0	0
3138465	WORD	wordpools/wasnorm_wordpool_576.txt	LTP389	ltpFR2	18	16	CRAYON	401	n/a	n/a	0	0	0
3140915	WORD	wordpools/wasnorm_wordpool_576.txt	LTP389	ltpFR2	18	16	CANYON	235	n/a	n/a	0	0	0
3143649	WORD	wordpools/wasnorm_wordpool_576.txt	LTP389	ltpFR2	18	16	MOTOR	922	n/a	n/a	0	0	0
3146215	WORD	wordpools/wasnorm_wordpool_576.txt	LTP389	ltpFR2	18	16	FLAG	573	n/a	n/a	0	0	0
3148932	WORD	wordpools/wasnorm_wordpool_576.txt	LTP389	ltpFR2	18	16	PLUTO	1092	n/a	n/a	0	0	0
3151449	WORD	wordpools/wasnorm_wordpool_576.txt	LTP389	ltpFR2	18	16	CHEST	295	n/a	n/a	0	0	0
3153898	WORD	wordpools/wasnorm_wordpool_576.txt	LTP389	ltpFR2	18	16	TWEEZERS	1526	n/a	n/a	0	0	0
3156532	WORD	wordpools/wasnorm_wordpool_576.txt	LTP389	ltpFR2	18	16	BODY	145	n/a	n/a	0	0	0
3159048	WORD	wordpools/wasnorm_wordpool_576.txt	LTP389	ltpFR2	18	16	SHELF	1280	n/a	n/a	0	0	0
3161615	WORD	wordpools/wasnorm_wordpool_576.txt	LTP389	ltpFR2	18	16	WARDROBE	1587	n/a	n/a	0	0	0
3164332	WORD	wordpools/wasnorm_wordpool_576.txt	LTP389	ltpFR2	18	16	COLONEL	348	n/a	n/a	0	0	0
3166783	WORD	wordpools/wasnorm_wordpool_576.txt	LTP389	ltpFR2	18	16	SCALPEL	1243	n/a	n/a	0	0	0
3169448	WORD	wordpools/wasnorm_wordpool_576.txt	LTP389	ltpFR2	18	16	WRIST	1626	n/a	n/a	0	0	0
3171882	WORD	wordpools/wasnorm_wordpool_576.txt	LTP389	ltpFR2	18	16	CRITIC	410	n/a	n/a	0	0	0
3174498	WORD	wordpools/wasnorm_wordpool_576.txt	LTP389	ltpFR2	18	16	FILM	565	n/a	n/a	0	0	0
3176115	START	n/a	LTP389	ltpFR2	18	n/a	n/a	n/a	26	n/a	n/a	n/a	n/a
3177151	DISTRACTOR	n/a	LTP389	ltpFR2	18	16	n/a	n/a	n/a	n/a	0	0	0
3177165	PROB	n/a	LTP389	ltpFR2	18	n/a	n/a	n/a	26	14	6	2	6
3178515	PROB	n/a	LTP389	ltpFR2	18	n/a	n/a	n/a	26	10	1	6	3
3180398	PROB	n/a	LTP389	ltpFR2	18	n/a	n/a	n/a	26	18	9	4	5
3182098	PROB	n/a	LTP389	ltpFR2	18	n/a	n/a	n/a	26	4	2	1	1
3183898	PROB	n/a	LTP389	ltpFR2	18	n/a	n/a	n/a	26	12	6	5	1
3185115	PROB	n/a	LTP389	ltpFR2	18	n/a	n/a	n/a	26	21	6	9	6
3186615	PROB	n/a	LTP389	ltpFR2	18	n/a	n/a	n/a	26	18	6	8	4
3188448	PROB	n/a	LTP389	ltpFR2	18	n/a	n/a	n/a	26	12	6	2	4
3190065	PROB	n/a	LTP389	ltpFR2	18	n/a	n/a	n/a	26	22	9	8	4
3191931	PROB	n/a	LTP389	ltpFR2	18	n/a	n/a	n/a	26	17	4	5	8
3193265	PROB	n/a	LTP389	ltpFR2	18	n/a	n/a	n/a	26	13	3	1	9
3196815	PROB	n/a	LTP389	ltpFR2	18	n/a	n/a	n/a	26	27	9	9	9
3198081	PROB	n/a	LTP389	ltpFR2	18	n/a	n/a	n/a	26	11	6	3	2
3199668	STOP	n/a	LTP389	ltpFR2	18	n/a	n/a	n/a	26	n/a	n/a	n/a	n/a
3201931	REC_START	n/a	LTP389	ltpFR2	18	16	n/a	n/a	n/a	n/a	0	0	0
3202910	REC_WORD	wordpools/wasnorm_wordpool_576.txt	LTP389	ltpFR2	18	16	SUMMIT	1405	n/a	n/a	0	0	0
3203973	REC_WORD	wordpools/wasnorm_wordpool_576.txt	LTP389	ltpFR2	18	16	CONCERT	360	n/a	n/a	0	0	0
3205571	REC_WORD	wordpools/wasnorm_wordpool_576.txt	LTP389	ltpFR2	18	16	MOTOR	922	n/a	n/a	0	0	0
3206289	REC_WORD	wordpools/wasnorm_wordpool_576.txt	LTP389	ltpFR2	18	16	FLAG	573	n/a	n/a	0	0	0
3207162	REC_WORD	wordpools/wasnorm_wordpool_576.txt	LTP389	ltpFR2	18	16	SPOON	1357	n/a	n/a	0	0	0
3208897	REC_WORD	wordpools/wasnorm_wordpool_576.txt	LTP389	ltpFR2	18	16	CANYON	235	n/a	n/a	0	0	0
3209747	REC_WORD	wordpools/wasnorm_wordpool_576.txt	LTP389	ltpFR2	18	16	CRAYON	401	n/a	n/a	0	0	0
3211179	REC_WORD	wordpools/wasnorm_wordpool_576.txt	LTP389	ltpFR2	18	16	LAVA	804	n/a	n/a	0	0	0
3213658	REC_WORD	wordpools/wasnorm_wordpool_576.txt	LTP389	ltpFR2	18	16	FEMALE	559	n/a	n/a	0	0	0
3219134	REC_WORD	wordpools/wasnorm_wordpool_576.txt	LTP389	ltpFR2	18	16	COOK	372	n/a	n/a	0	0	0
3220743	REC_WORD	wordpools/wasnorm_wordpool_576.txt	LTP389	ltpFR2	18	16	SWORD	1423	n/a	n/a	0	0	0
3222849	REC_WORD	wordpools/wasnorm_wordpool_576.txt	LTP389	ltpFR2	18	16	PLUTO	1092	n/a	n/a	0	0	0
3224357	REC_WORD	wordpools/wasnorm_wordpool_576.txt	LTP389	ltpFR2	18	16	CHEST	295	n/a	n/a	0	0	0
3230640	REC_WORD	wordpools/wasnorm_wordpool_576.txt	LTP389	ltpFR2	18	16	WARDROBE	1587	n/a	n/a	0	0	0
3231989	REC_WORD	wordpools/wasnorm_wordpool_576.txt	LTP389	ltpFR2	18	16	CLOTHING	-1	n/a	n/a	0	0	0
3239632	REC_WORD	wordpools/wasnorm_wordpool_576.txt	LTP389	ltpFR2	18	16	TWEEZERS	1526	n/a	n/a	0	0	0
3240592	REC_WORD	wordpools/wasnorm_wordpool_576.txt	LTP389	ltpFR2	18	16	SCALPEL	1243	n/a	n/a	0	0	0
3251602	REC_WORD	wordpools/wasnorm_wordpool_576.txt	LTP389	ltpFR2	18	16	LAVA	804	n/a	n/a	0	0	0
3278480	REST_REWET	n/a	LTP389	ltpFR2	18	16	n/a	n/a	n/a	n/a	0	0	0
3413211	DISTRACTOR	n/a	LTP389	ltpFR2	18	17	n/a	n/a	n/a	n/a	0	0	0
3413211	START	n/a	LTP389	ltpFR2	18	n/a	n/a	n/a	27	n/a	n/a	n/a	n/a
3413228	PROB	n/a	LTP389	ltpFR2	18	n/a	n/a	n/a	27	9	6	2	1
3414978	PROB	n/a	LTP389	ltpFR2	18	n/a	n/a	n/a	27	16	4	3	9
3416812	PROB	n/a	LTP389	ltpFR2	18	n/a	n/a	n/a	27	12	5	3	4
3418828	PROB	n/a	LTP389	ltpFR2	18	n/a	n/a	n/a	27	26	9	9	8
3420361	PROB	n/a	LTP389	ltpFR2	18	n/a	n/a	n/a	27	13	3	5	5
3421461	PROB	n/a	LTP389	ltpFR2	18	n/a	n/a	n/a	27	15	2	7	6
3423511	PROB	n/a	LTP389	ltpFR2	18	n/a	n/a	n/a	27	17	1	9	7
3424977	PROB	n/a	LTP389	ltpFR2	18	n/a	n/a	n/a	27	18	9	2	7
3426327	PROB	n/a	LTP389	ltpFR2	18	n/a	n/a	n/a	27	8	2	2	4
3427444	PROB	n/a	LTP389	ltpFR2	18	n/a	n/a	n/a	27	10	8	1	1
3428611	PROB	n/a	LTP389	ltpFR2	18	n/a	n/a	n/a	27	14	5	4	5
3429812	PROB	n/a	LTP389	ltpFR2	18	n/a	n/a	n/a	27	13	4	8	1
3431077	PROB	n/a	LTP389	ltpFR2	18	n/a	n/a	n/a	27	17	9	3	5
3433211	PROB	n/a	LTP389	ltpFR2	18	n/a	n/a	n/a	27	13	2	7	4
3434594	PROB	n/a	LTP389	ltpFR2	18	n/a	n/a	n/a	27	13	4	1	8
3435699	STOP	n/a	LTP389	ltpFR2	18	n/a	n/a	n/a	27	n/a	n/a	n/a	n/a
3438261	WORD	wordpools/wasnorm_wordpool_576.txt	LTP389	ltpFR2	18	17	CRICKET	408	n/a	n/a	0	0	0
3440977	WORD	wordpools/wasnorm_wordpool_576.txt	LTP389	ltpFR2	18	17	GUITAR	670	n/a	n/a	0	0	0
3443594	WORD	wordpools/wasnorm_wordpool_576.txt	LTP389	ltpFR2	18	17	ARM	38	n/a	n/a	0	0	0
3446144	WORD	wordpools/wasnorm_wordpool_576.txt	LTP389	ltpFR2	18	17	BANQUET	86	n/a	n/a	0	0	0
3448710	WORD	wordpools/wasnorm_wordpool_576.txt	LTP389	ltpFR2	18	17	SNAIL	1332	n/a	n/a	0	0	0
3451194	WORD	wordpools/wasnorm_wordpool_576.txt	LTP389	ltpFR2	18	17	SLUG	1329	n/a	n/a	0	0	0
3453727	WORD	wordpools/wasnorm_wordpool_576.txt	LTP389	ltpFR2	18	17	PISTON	1076	n/a	n/a	0	0	0
3456494	WORD	wordpools/wasnorm_wordpool_576.txt	LTP389	ltpFR2	18	17	SPIDER	1351	n/a	n/a	0	0	0
3459310	WORD	wordpools/wasnorm_wordpool_576.txt	LTP389	ltpFR2	18	17	PIMPLE	1071	n/a	n/a	0	0	0
3461828	WORD	wordpools/wasnorm_wordpool_576.txt	LTP389	ltpFR2	18	17	CASHEW	253	n/a	n/a	0	0	0
3464293	WORD	wordpools/wasnorm_wordpool_576.txt	LTP389	ltpFR2	18	17	DONKEY	484	n/a	n/a	0	0	0
3466760	WORD	wordpools/wasnorm_wordpool_576.txt	LTP389	ltpFR2	18	17	CHIPMUNK	304	n/a	n/a	0	0	0
3469260	WORD	wordpools/wasnorm_wordpool_576.txt	LTP389	ltpFR2	18	17	RECORD	1176	n/a	n/a	0	0	0
3471710	WORD	wordpools/wasnorm_wordpool_576.txt	LTP389	ltpFR2	18	17	HORSE	719	n/a	n/a	0	0	0
3474410	WORD	wordpools/wasnorm_wordpool_576.txt	LTP389	ltpFR2	18	17	LIGHTNING	820	n/a	n/a	0	0	0
3477227	WORD	wordpools/wasnorm_wordpool_576.txt	LTP389	ltpFR2	18	17	DAISY	435	n/a	n/a	0	0	0
3479710	WORD	wordpools/wasnorm_wordpool_576.txt	LTP389	ltpFR2	18	17	BUREAU	199	n/a	n/a	0	0	0
3482210	WORD	wordpools/wasnorm_wordpool_576.txt	LTP389	ltpFR2	18	17	MEAT	883	n/a	n/a	0	0	0
3484926	WORD	wordpools/wasnorm_wordpool_576.txt	LTP389	ltpFR2	18	17	BLACKBOARD	133	n/a	n/a	0	0	0
3487443	WORD	wordpools/wasnorm_wordpool_576.txt	LTP389	ltpFR2	18	17	HEART	697	n/a	n/a	0	0	0
3490126	WORD	wordpools/wasnorm_wordpool_576.txt	LTP389	ltpFR2	18	17	KIDNEY	776	n/a	n/a	0	0	0
3492910	WORD	wordpools/wasnorm_wordpool_576.txt	LTP389	ltpFR2	18	17	MAMMAL	861	n/a	n/a	0	0	0
3495710	WORD	wordpools/wasnorm_wordpool_576.txt	LTP389	ltpFR2	18	17	PEBBLE	1035	n/a	n/a	0	0	0
3498360	WORD	wordpools/wasnorm_wordpool_576.txt	LTP389	ltpFR2	18	17	SADDLE	1221	n/a	n/a	0	0	0
3499976	START	n/a	LTP389	ltpFR2	18	n/a	n/a	n/a	28	n/a	n/a	n/a	n/a
3501127	DISTRACTOR	n/a	LTP389	ltpFR2	18	17	n/a	n/a	n/a	n/a	0	0	0
3501143	PROB	n/a	LTP389	ltpFR2	18	n/a	n/a	n/a	28	16	4	4	8
3502676	PROB	n/a	LTP389	ltpFR2	18	n/a	n/a	n/a	28	15	5	1	9
3503893	PROB	n/a	LTP389	ltpFR2	18	n/a	n/a	n/a	28	11	4	1	6
3505226	PROB	n/a	LTP389	ltpFR2	18	n/a	n/a	n/a	28	22	8	7	7
3507259	PROB	n/a	LTP389	ltpFR2	18	n/a	n/a	n/a	28	19	7	7	5
3508777	PROB	n/a	LTP389	ltpFR2	18	n/a	n/a	n/a	28	17	3	7	7
3510409	PROB	n/a	LTP389	ltpFR2	18	n/a	n/a	n/a	28	17	8	8	1
3511593	PROB	n/a	LTP389	ltpFR2	18	n/a	n/a	n/a	28	16	8	1	7
3512844	PROB	n/a	LTP389	ltpFR2	18	n/a	n/a	n/a	28	12	4	3	4
3514209	PROB	n/a	LTP389	ltpFR2	18	n/a	n/a	n/a	28	16	1	7	8
3515309	PROB	n/a	LTP389	ltpFR2	18	n/a	n/a	n/a	28	21	8	4	9
3516693	PROB	n/a	LTP389	ltpFR2	18	n/a	n/a	n/a	28	16	6	5	5
3517709	PROB	n/a	LTP389	ltpFR2	18	n/a	n/a	n/a	28	20	8	7	5
3519676	PROB	n/a	LTP389	ltpFR2	18	n/a	n/a	n/a	28	15	5	3	7
3520909	PROB	n/a	LTP389	ltpFR2	18	n/a	n/a	n/a	28	12	4	1	7
3522326	PROB	n/a	LTP389	ltpFR2	18	n/a	n/a	n/a	28	14	1	5	8
3523598	STOP	n/a	LTP389	ltpFR2	18	n/a	n/a	n/a	28	n/a	n/a	n/a	n/a
3525827	REC_START	n/a	LTP389	ltpFR2	18	17	n/a	n/a	n/a	n/a	0	0	0
3528172	REC_WORD	wordpools/wasnorm_wordpool_576.txt	LTP389	ltpFR2	18	17	GUITAR	670	n/a	n/a	0	0	0
3530054	REC_WORD	wordpools/wasnorm_wordpool_576.txt	LTP389	ltpFR2	18	17	ARM	38	n/a	n/a	0	0	0
3531113	REC_WORD	wordpools/wasnorm_wordpool_576.txt	LTP389	ltpFR2	18	17	BANQUET	86	n/a	n/a	0	0	0
3533413	REC_WORD	wordpools/wasnorm_wordpool_576.txt	LTP389	ltpFR2	18	17	CRICKET	408	n/a	n/a	0	0	0
3534273	REC_WORD	wordpools/wasnorm_wordpool_576.txt	LTP389	ltpFR2	18	17	SNAIL	1332	n/a	n/a	0	0	0
3535218	REC_WORD	wordpools/wasnorm_wordpool_576.txt	LTP389	ltpFR2	18	17	SLUG	1329	n/a	n/a	0	0	0
3537802	REC_WORD	wordpools/wasnorm_wordpool_576.txt	LTP389	ltpFR2	18	17	SPIDER	1351	n/a	n/a	0	0	0
3539059	REC_WORD	wordpools/wasnorm_wordpool_576.txt	LTP389	ltpFR2	18	17	HORSE	719	n/a	n/a	0	0	0
3541366	REC_WORD	wordpools/wasnorm_wordpool_576.txt	LTP389	ltpFR2	18	17	RECORD	1176	n/a	n/a	0	0	0
3543703	REC_WORD	wordpools/wasnorm_wordpool_576.txt	LTP389	ltpFR2	18	17	GRAVEL	659	n/a	n/a	0	0	0
3547015	REC_WORD	wordpools/wasnorm_wordpool_576.txt	LTP389	ltpFR2	18	17	BUREAU	199	n/a	n/a	0	0	0
3548005	REC_WORD	wordpools/wasnorm_wordpool_576.txt	LTP389	ltpFR2	18	17	DAISY	435	n/a	n/a	0	0	0
3550386	REC_WORD	wordpools/wasnorm_wordpool_576.txt	LTP389	ltpFR2	18	17	STAKE	1368	n/a	n/a	0	0	0
3551607	REC_WORD	wordpools/wasnorm_wordpool_576.txt	LTP389	ltpFR2	18	17	MEAT	883	n/a	n/a	0	0	0
3561918	REC_WORD	wordpools/wasnorm_wordpool_576.txt	LTP389	ltpFR2	18	17	CASHEW	253	n/a	n/a	0	0	0
3568883	REC_WORD	wordpools/wasnorm_wordpool_576.txt	LTP389	ltpFR2	18	17	GRILL	661	n/a	n/a	0	0	0
3581099	REC_WORD	wordpools/wasnorm_wordpool_576.txt	LTP389	ltpFR2	18	17	LIGHTNING	820	n/a	n/a	0	0	0
3616308	WORD	wordpools/wasnorm_wordpool_576.txt	LTP389	ltpFR2	18	18	VIKING	1565	n/a	n/a	0	0	0
3618958	WORD	wordpools/wasnorm_wordpool_576.txt	LTP389	ltpFR2	18	18	FOREHEAD	592	n/a	n/a	0	0	0
3621541	WORD	wordpools/wasnorm_wordpool_576.txt	LTP389	ltpFR2	18	18	SHOVEL	1295	n/a	n/a	0	0	0
3623974	WORD	wordpools/wasnorm_wordpool_576.txt	LTP389	ltpFR2	18	18	MISSILE	900	n/a	n/a	0	0	0
3626458	WORD	wordpools/wasnorm_wordpool_576.txt	LTP389	ltpFR2	18	18	CRATER	400	n/a	n/a	0	0	0
3629274	WORD	wordpools/wasnorm_wordpool_576.txt	LTP389	ltpFR2	18	18	ROOSTER	1209	n/a	n/a	0	0	0
3631825	WORD	wordpools/wasnorm_wordpool_576.txt	LTP389	ltpFR2	18	18	LAMP	798	n/a	n/a	0	0	0
3634507	WORD	wordpools/wasnorm_wordpool_576.txt	LTP389	ltpFR2	18	18	PUPIL	1143	n/a	n/a	0	0	0
3637041	WORD	wordpools/wasnorm_wordpool_576.txt	LTP389	ltpFR2	18	18	YACHT	1629	n/a	n/a	0	0	0
3639657	WORD	wordpools/wasnorm_wordpool_576.txt	LTP389	ltpFR2	18	18	BURGLAR	200	n/a	n/a	0	0	0
3642374	WORD	wordpools/wasnorm_wordpool_576.txt	LTP389	ltpFR2	18	18	LUMBER	848	n/a	n/a	0	0	0
3644957	WORD	wordpools/wasnorm_wordpool_576.txt	LTP389	ltpFR2	18	18	SHARK	1275	n/a	n/a	0	0	0
3647507	WORD	wordpools/wasnorm_wordpool_576.txt	LTP389	ltpFR2	18	18	SWITCH	1422	n/a	n/a	0	0	0
3649957	WORD	wordpools/wasnorm_wordpool_576.txt	LTP389	ltpFR2	18	18	STOMACH	1384	n/a	n/a	0	0	0
3652574	WORD	wordpools/wasnorm_wordpool_576.txt	LTP389	ltpFR2	18	18	GLOBE	641	n/a	n/a	0	0	0
3655357	WORD	wordpools/wasnorm_wordpool_576.txt	LTP389	ltpFR2	18	18	COLLEGE	346	n/a	n/a	0	0	0
3657791	WORD	wordpools/wasnorm_wordpool_576.txt	LTP389	ltpFR2	18	18	LAGOON	795	n/a	n/a	0	0	0
3660590	WORD	wordpools/wasnorm_wordpool_576.txt	LTP389	ltpFR2	18	18	SWIMMER	1420	n/a	n/a	0	0	0
3663057	WORD	wordpools/wasnorm_wordpool_576.txt	LTP389	ltpFR2	18	18	WHISKERS	1605	n/a	n/a	0	0	0
3665808	WORD	wordpools/wasnorm_wordpool_576.txt	LTP389	ltpFR2	18	18	TRACTOR	1493	n/a	n/a	0	0	0
3668407	WORD	wordpools/wasnorm_wordpool_576.txt	LTP389	ltpFR2	18	18	FARMER	553	n/a	n/a	0	0	0
3671040	WORD	wordpools/wasnorm_wordpool_576.txt	LTP389	ltpFR2	18	18	LONDON	843	n/a	n/a	0	0	0
3673573	WORD	wordpools/wasnorm_wordpool_576.txt	LTP389	ltpFR2	18	18	SKILLET	1317	n/a	n/a	0	0	0
3676023	WORD	wordpools/wasnorm_wordpool_576.txt	LTP389	ltpFR2	18	18	STAKE	1368	n/a	n/a	0	0	0
3677640	START	n/a	LTP389	ltpFR2	18	n/a	n/a	n/a	29	n/a	n/a	n/a	n/a
3678556	DISTRACTOR	n/a	LTP389	ltpFR2	18	18	n/a	n/a	n/a	n/a	0	0	0
3678573	PROB	n/a	LTP389	ltpFR2	18	n/a	n/a	n/a	29	10	1	7	2
3680457	PROB	n/a	LTP389	ltpFR2	18	n/a	n/a	n/a	29	10	5	3	2
3682140	PROB	n/a	LTP389	ltpFR2	18	n/a	n/a	n/a	29	18	7	3	8
3683607	PROB	n/a	LTP389	ltpFR2	18	n/a	n/a	n/a	29	7	1	1	5
3684774	PROB	n/a	LTP389	ltpFR2	18	n/a	n/a	n/a	29	11	7	2	2
3686123	PROB	n/a	LTP389	ltpFR2	18	n/a	n/a	n/a	29	8	2	5	1
3687240	PROB	n/a	LTP389	ltpFR2	18	n/a	n/a	n/a	29	21	7	9	5
3688791	PROB	n/a	LTP389	ltpFR2	18	n/a	n/a	n/a	29	18	4	9	5
3690173	PROB	n/a	LTP389	ltpFR2	18	n/a	n/a	n/a	29	5	1	3	1
3691140	PROB	n/a	LTP389	ltpFR2	18	n/a	n/a	n/a	29	18	8	5	5
3693456	PROB	n/a	LTP389	ltpFR2	18	n/a	n/a	n/a	29	17	5	9	3
3695856	PROB	n/a	LTP389	ltpFR2	18	n/a	n/a	n/a	29	15	4	2	9
3697006	PROB	n/a	LTP389	ltpFR2	18	n/a	n/a	n/a	29	15	6	5	4
3698256	PROB	n/a	LTP389	ltpFR2	18	n/a	n/a	n/a	29	15	2	5	8
3699473	PROB	n/a	LTP389	ltpFR2	18	n/a	n/a	n/a	29	15	6	8	1
3700812	STOP	n/a	LTP389	ltpFR2	18	n/a	n/a	n/a	29	n/a	n/a	n/a	n/a
3703507	REC_START	n/a	LTP389	ltpFR2	18	18	n/a	n/a	n/a	n/a	0	0	0
3705011	REC_WORD	wordpools/wasnorm_wordpool_576.txt	LTP389	ltpFR2	18	18	VIKING	1565	n/a	n/a	0	0	0
3708177	REC_WORD	wordpools/wasnorm_wordpool_576.txt	LTP389	ltpFR2	18	18	STUDENT	1395	n/a	n/a	0	0	0
3712451	REC_WORD	wordpools/wasnorm_wordpool_576.txt	LTP389	ltpFR2	18	18	YACHT	1629	n/a	n/a	0	0	0
