mstime	trial_type	stim_file	subject	experiment	session	trial	item_name	item_num	list	answer	test_x	test_y	test_z
0	SESS_START	n/a	LTP278	ltpFR2	3	n/a	n/a	n/a	n/a	n/a	0	0	0
22291	START	n/a	LTP278	ltpFR2	3	n/a	n/a	n/a	-1	n/a	n/a	n/a	n/a
22341	PROB	n/a	LTP278	ltpFR2	3	n/a	n/a	n/a	-1	19	3	8	8
24699	PROB	n/a	LTP278	ltpFR2	3	n/a	n/a	n/a	-1	9	5	3	1
27008	PROB	n/a	LTP278	ltpFR2	3	n/a	n/a	n/a	-1	11	5	1	5
28163	PROB	n/a	LTP278	ltpFR2	3	n/a	n/a	n/a	-1	19	9	7	3
29401	PROB	n/a	LTP278	ltpFR2	3	n/a	n/a	n/a	-1	25	8	8	7
31023	PROB	n/a	LTP278	ltpFR2	3	n/a	n/a	n/a	-1	13	2	4	7
32763	PROB	n/a	LTP278	ltpFR2	3	n/a	n/a	n/a	-1	14	8	5	1
34237	STOP	n/a	LTP278	ltpFR2	3	n/a	n/a	n/a	-1	n/a	n/a	n/a	n/a
68180	WORD	wordpools/wasnorm_wordpool_576.txt	LTP278	ltpFR2	3	1	POSSUM	1112	n/a	n/a	0	0	0
70789	WORD	wordpools/wasnorm_wordpool_576.txt	LTP278	ltpFR2	3	1	MACHINE	852	n/a	n/a	0	0	0
73300	WORD	wordpools/wasnorm_wordpool_576.txt	LTP278	ltpFR2	3	1	THRONE	1461	n/a	n/a	0	0	0
76094	WORD	wordpools/wasnorm_wordpool_576.txt	LTP278	ltpFR2	3	1	PUPIL	1143	n/a	n/a	0	0	0
78748	WORD	wordpools/wasnorm_wordpool_576.txt	LTP278	ltpFR2	3	1	BRIEFCASE	175	n/a	n/a	0	0	0
81497	WORD	wordpools/wasnorm_wordpool_576.txt	LTP278	ltpFR2	3	1	HUSBAND	728	n/a	n/a	0	0	0
84186	WORD	wordpools/wasnorm_wordpool_576.txt	LTP278	ltpFR2	3	1	LOVER	846	n/a	n/a	0	0	0
86816	WORD	wordpools/wasnorm_wordpool_576.txt	LTP278	ltpFR2	3	1	EYELASH	546	n/a	n/a	0	0	0
89494	WORD	wordpools/wasnorm_wordpool_576.txt	LTP278	ltpFR2	3	1	MARKER	870	n/a	n/a	0	0	0
92104	WORD	wordpools/wasnorm_wordpool_576.txt	LTP278	ltpFR2	3	1	EGYPT	519	n/a	n/a	0	0	0
94825	WORD	wordpools/wasnorm_wordpool_576.txt	LTP278	ltpFR2	3	1	REBEL	1172	n/a	n/a	0	0	0
97290	WORD	wordpools/wasnorm_wordpool_576.txt	LTP278	ltpFR2	3	1	CONCERT	360	n/a	n/a	0	0	0
99849	WORD	wordpools/wasnorm_wordpool_576.txt	LTP278	ltpFR2	3	1	PIANO	1057	n/a	n/a	0	0	0
102309	WORD	wordpools/wasnorm_wordpool_576.txt	LTP278	ltpFR2	3	1	SPONGE	1355	n/a	n/a	0	0	0
104796	WORD	wordpools/wasnorm_wordpool_576.txt	LTP278	ltpFR2	3	1	MARINE	869	n/a	n/a	0	0	0
107495	WORD	wordpools/wasnorm_wordpool_576.txt	LTP278	ltpFR2	3	1	WRENCH	1625	n/a	n/a	0	0	0
110189	WORD	wordpools/wasnorm_wordpool_576.txt	LTP278	ltpFR2	3	1	PIGMENT	1066	n/a	n/a	0	0	0
113011	WORD	wordpools/wasnorm_wordpool_576.txt	LTP278	ltpFR2	3	1	PASTRY	1022	n/a	n/a	0	0	0
115737	WORD	wordpools/wasnorm_wordpool_576.txt	LTP278	ltpFR2	3	1	MUMMY	932	n/a	n/a	0	0	0
118236	WORD	wordpools/wasnorm_wordpool_576.txt	LTP278	ltpFR2	3	1	ZIPPER	1636	n/a	n/a	0	0	0
120911	WORD	wordpools/wasnorm_wordpool_576.txt	LTP278	ltpFR2	3	1	PRINCESS	1125	n/a	n/a	0	0	0
123439	WORD	wordpools/wasnorm_wordpool_576.txt	LTP278	ltpFR2	3	1	WARDROBE	1587	n/a	n/a	0	0	0
126216	WORD	wordpools/wasnorm_wordpool_576.txt	LTP278	ltpFR2	3	1	BUREAU	199	n/a	n/a	0	0	0
128942	WORD	wordpools/wasnorm_wordpool_576.txt	LTP278	ltpFR2	3	1	CLOTHES	327	n/a	n/a	0	0	0
130549	START	n/a	LTP278	ltpFR2	3	n/a	n/a	n/a	1	n/a	n/a	n/a	n/a
131726	DISTRACTOR	n/a	LTP278	ltpFR2	3	1	n/a	n/a	n/a	n/a	0	0	0
131736	PROB	n/a	LTP278	ltpFR2	3	n/a	n/a	n/a	1	18	2	8	8
139866	PROB	n/a	LTP278	ltpFR2	3	n/a	n/a	n/a	1	12	2	8	2
142310	PROB	n/a	LTP278	ltpFR2	3	n/a	n/a	n/a	1	19	5	7	7
144552	PROB	n/a	LTP278	ltpFR2	3	n/a	n/a	n/a	1	24	9	6	9
146225	PROB	n/a	LTP278	ltpFR2	3	n/a	n/a	n/a	1	12	3	4	5
148182	PROB	n/a	LTP278	ltpFR2	3	n/a	n/a	n/a	1	11	4	2	5
149570	PROB	n/a	LTP278	ltpFR2	3	n/a	n/a	n/a	1	11	1	4	6
150941	PROB	n/a	LTP278	ltpFR2	3	n/a	n/a	n/a	1	16	5	8	3
154549	STOP	n/a	LTP278	ltpFR2	3	n/a	n/a	n/a	1	n/a	n/a	n/a	n/a
156359	REC_START	n/a	LTP278	ltpFR2	3	1	n/a	n/a	n/a	n/a	0	0	0
156872	REC_WORD	wordpools/wasnorm_wordpool_576.txt	LTP278	ltpFR2	3	1	CONCERT	360	n/a	n/a	0	0	0
158331	REC_WORD	wordpools/wasnorm_wordpool_576.txt	LTP278	ltpFR2	3	1	MACHINE	852	n/a	n/a	0	0	0
160698	REC_WORD	wordpools/wasnorm_wordpool_576.txt	LTP278	ltpFR2	3	1	REBEL	1172	n/a	n/a	0	0	0
163999	REC_WORD	wordpools/wasnorm_wordpool_576.txt	LTP278	ltpFR2	3	1	EYELASH	546	n/a	n/a	0	0	0
165674	REC_WORD	wordpools/wasnorm_wordpool_576.txt	LTP278	ltpFR2	3	1	HUSBAND	728	n/a	n/a	0	0	0
181035	REC_WORD	wordpools/wasnorm_wordpool_576.txt	LTP278	ltpFR2	3	1	BEAVER	109	n/a	n/a	0	0	0
247389	DISTRACTOR	n/a	LTP278	ltpFR2	3	2	n/a	n/a	n/a	n/a	0	0	0
247389	START	n/a	LTP278	ltpFR2	3	n/a	n/a	n/a	2	n/a	n/a	n/a	n/a
247439	PROB	n/a	LTP278	ltpFR2	3	n/a	n/a	n/a	2	13	2	6	5
249630	PROB	n/a	LTP278	ltpFR2	3	n/a	n/a	n/a	2	7	3	1	3
250935	PROB	n/a	LTP278	ltpFR2	3	n/a	n/a	n/a	2	19	3	9	7
252854	PROB	n/a	LTP278	ltpFR2	3	n/a	n/a	n/a	2	13	3	7	3
254244	PROB	n/a	LTP278	ltpFR2	3	n/a	n/a	n/a	2	16	4	9	3
256335	PROB	n/a	LTP278	ltpFR2	3	n/a	n/a	n/a	2	19	2	8	9
257878	PROB	n/a	LTP278	ltpFR2	3	n/a	n/a	n/a	2	15	4	3	8
259663	PROB	n/a	LTP278	ltpFR2	3	n/a	n/a	n/a	2	13	9	2	2
261220	PROB	n/a	LTP278	ltpFR2	3	n/a	n/a	n/a	2	11	4	4	3
263094	PROB	n/a	LTP278	ltpFR2	3	n/a	n/a	n/a	2	13	1	6	6
264749	PROB	n/a	LTP278	ltpFR2	3	n/a	n/a	n/a	2	9	4	4	1
266021	PROB	n/a	LTP278	ltpFR2	3	n/a	n/a	n/a	2	14	5	6	3
267798	PROB	n/a	LTP278	ltpFR2	3	n/a	n/a	n/a	2	15	4	6	5
269844	STOP	n/a	LTP278	ltpFR2	3	n/a	n/a	n/a	2	n/a	n/a	n/a	n/a
272567	WORD	wordpools/wasnorm_wordpool_576.txt	LTP278	ltpFR2	3	2	MESSAGE	888	n/a	n/a	0	0	0
275344	WORD	wordpools/wasnorm_wordpool_576.txt	LTP278	ltpFR2	3	2	PRIMATE	1123	n/a	n/a	0	0	0
278134	WORD	wordpools/wasnorm_wordpool_576.txt	LTP278	ltpFR2	3	2	SALAD	1224	n/a	n/a	0	0	0
280914	WORD	wordpools/wasnorm_wordpool_576.txt	LTP278	ltpFR2	3	2	DONKEY	484	n/a	n/a	0	0	0
283509	WORD	wordpools/wasnorm_wordpool_576.txt	LTP278	ltpFR2	3	2	HOOD	714	n/a	n/a	0	0	0
286269	WORD	wordpools/wasnorm_wordpool_576.txt	LTP278	ltpFR2	3	2	PISTON	1076	n/a	n/a	0	0	0
288873	WORD	wordpools/wasnorm_wordpool_576.txt	LTP278	ltpFR2	3	2	GAVEL	627	n/a	n/a	0	0	0
291556	WORD	wordpools/wasnorm_wordpool_576.txt	LTP278	ltpFR2	3	2	JURY	766	n/a	n/a	0	0	0
294283	WORD	wordpools/wasnorm_wordpool_576.txt	LTP278	ltpFR2	3	2	PANTHER	1009	n/a	n/a	0	0	0
296770	WORD	wordpools/wasnorm_wordpool_576.txt	LTP278	ltpFR2	3	2	JUNGLE	764	n/a	n/a	0	0	0
299335	WORD	wordpools/wasnorm_wordpool_576.txt	LTP278	ltpFR2	3	2	DASHBOARD	441	n/a	n/a	0	0	0
302078	WORD	wordpools/wasnorm_wordpool_576.txt	LTP278	ltpFR2	3	2	BISON	131	n/a	n/a	0	0	0
304538	WORD	wordpools/wasnorm_wordpool_576.txt	LTP278	ltpFR2	3	2	BIKE	125	n/a	n/a	0	0	0
307042	WORD	wordpools/wasnorm_wordpool_576.txt	LTP278	ltpFR2	3	2	PALACE	1006	n/a	n/a	0	0	0
309690	WORD	wordpools/wasnorm_wordpool_576.txt	LTP278	ltpFR2	3	2	POET	1095	n/a	n/a	0	0	0
312434	WORD	wordpools/wasnorm_wordpool_576.txt	LTP278	ltpFR2	3	2	OUTFIT	988	n/a	n/a	0	0	0
315107	WORD	wordpools/wasnorm_wordpool_576.txt	LTP278	ltpFR2	3	2	SHORTS	1293	n/a	n/a	0	0	0
317554	WORD	wordpools/wasnorm_wordpool_576.txt	LTP278	ltpFR2	3	2	WINDOW	1611	n/a	n/a	0	0	0
320180	WORD	wordpools/wasnorm_wordpool_576.txt	LTP278	ltpFR2	3	2	GLASS	639	n/a	n/a	0	0	0
322655	WORD	wordpools/wasnorm_wordpool_576.txt	LTP278	ltpFR2	3	2	FOREST	593	n/a	n/a	0	0	0
325082	WORD	wordpools/wasnorm_wordpool_576.txt	LTP278	ltpFR2	3	2	SHARK	1275	n/a	n/a	0	0	0
327636	WORD	wordpools/wasnorm_wordpool_576.txt	LTP278	ltpFR2	3	2	HARP	689	n/a	n/a	0	0	0
330235	WORD	wordpools/wasnorm_wordpool_576.txt	LTP278	ltpFR2	3	2	JUDGE	761	n/a	n/a	0	0	0
332693	WORD	wordpools/wasnorm_wordpool_576.txt	LTP278	ltpFR2	3	2	COWBOY	395	n/a	n/a	0	0	0
334300	START	n/a	LTP278	ltpFR2	3	n/a	n/a	n/a	3	n/a	n/a	n/a	n/a
335112	DISTRACTOR	n/a	LTP278	ltpFR2	3	2	n/a	n/a	n/a	n/a	0	0	0
335120	PROB	n/a	LTP278	ltpFR2	3	n/a	n/a	n/a	3	18	9	5	4
336942	PROB	n/a	LTP278	ltpFR2	3	n/a	n/a	n/a	3	6	2	2	2
338075	PROB	n/a	LTP278	ltpFR2	3	n/a	n/a	n/a	3	18	3	9	6
342045	PROB	n/a	LTP278	ltpFR2	3	n/a	n/a	n/a	3	17	4	5	8
343680	PROB	n/a	LTP278	ltpFR2	3	n/a	n/a	n/a	3	12	2	1	9
345588	PROB	n/a	LTP278	ltpFR2	3	n/a	n/a	n/a	3	20	6	9	5
347567	PROB	n/a	LTP278	ltpFR2	3	n/a	n/a	n/a	3	10	3	2	5
349302	PROB	n/a	LTP278	ltpFR2	3	n/a	n/a	n/a	3	10	6	2	2
351811	PROB	n/a	LTP278	ltpFR2	3	n/a	n/a	n/a	3	19	7	8	4
353969	PROB	n/a	LTP278	ltpFR2	3	n/a	n/a	n/a	3	7	4	1	2
358299	STOP	n/a	LTP278	ltpFR2	3	n/a	n/a	n/a	3	n/a	n/a	n/a	n/a
360148	REC_START	n/a	LTP278	ltpFR2	3	2	n/a	n/a	n/a	n/a	0	0	0
363577	REC_WORD	wordpools/wasnorm_wordpool_576.txt	LTP278	ltpFR2	3	2	MESSAGE	888	n/a	n/a	0	0	0
367763	REC_WORD	wordpools/wasnorm_wordpool_576.txt	LTP278	ltpFR2	3	2	URGENT	-1	n/a	n/a	0	0	0
371590	REC_WORD	wordpools/wasnorm_wordpool_576.txt	LTP278	ltpFR2	3	2	GLASS	639	n/a	n/a	0	0	0
372390	REC_WORD	wordpools/wasnorm_wordpool_576.txt	LTP278	ltpFR2	3	2	SHORTS	1293	n/a	n/a	0	0	0
375473	REC_WORD	wordpools/wasnorm_wordpool_576.txt	LTP278	ltpFR2	3	2	COWBOY	395	n/a	n/a	0	0	0
391333	REC_WORD	wordpools/wasnorm_wordpool_576.txt	LTP278	ltpFR2	3	2	RODEO	-1	n/a	n/a	0	0	0
451174	WORD	wordpools/wasnorm_wordpool_576.txt	LTP278	ltpFR2	3	3	SCISSORS	1250	n/a	n/a	0	0	0
453933	WORD	wordpools/wasnorm_wordpool_576.txt	LTP278	ltpFR2	3	3	STAMP	1370	n/a	n/a	0	0	0
456422	WORD	wordpools/wasnorm_wordpool_576.txt	LTP278	ltpFR2	3	3	MEDAL	885	n/a	n/a	0	0	0
459069	WORD	wordpools/wasnorm_wordpool_576.txt	LTP278	ltpFR2	3	3	DIME	466	n/a	n/a	0	0	0
461808	WORD	wordpools/wasnorm_wordpool_576.txt	LTP278	ltpFR2	3	3	POCKET	1093	n/a	n/a	0	0	0
464240	WORD	wordpools/wasnorm_wordpool_576.txt	LTP278	ltpFR2	3	3	CASHEW	253	n/a	n/a	0	0	0
466849	WORD	wordpools/wasnorm_wordpool_576.txt	LTP278	ltpFR2	3	3	STREAM	1392	n/a	n/a	0	0	0
469539	WORD	wordpools/wasnorm_wordpool_576.txt	LTP278	ltpFR2	3	3	LEADER	807	n/a	n/a	0	0	0
472103	WORD	wordpools/wasnorm_wordpool_576.txt	LTP278	ltpFR2	3	3	PLATE	1086	n/a	n/a	0	0	0
474795	WORD	wordpools/wasnorm_wordpool_576.txt	LTP278	ltpFR2	3	3	WAGON	1578	n/a	n/a	0	0	0
477456	WORD	wordpools/wasnorm_wordpool_576.txt	LTP278	ltpFR2	3	3	LUGGAGE	847	n/a	n/a	0	0	0
480150	WORD	wordpools/wasnorm_wordpool_576.txt	LTP278	ltpFR2	3	3	DAUGHTER	442	n/a	n/a	0	0	0
482943	WORD	wordpools/wasnorm_wordpool_576.txt	LTP278	ltpFR2	3	3	PATIENT	1024	n/a	n/a	0	0	0
485419	WORD	wordpools/wasnorm_wordpool_576.txt	LTP278	ltpFR2	3	3	COFFEE	341	n/a	n/a	0	0	0
488028	WORD	wordpools/wasnorm_wordpool_576.txt	LTP278	ltpFR2	3	3	CAFE	216	n/a	n/a	0	0	0
490489	WORD	wordpools/wasnorm_wordpool_576.txt	LTP278	ltpFR2	3	3	SUITCASE	1403	n/a	n/a	0	0	0
492997	WORD	wordpools/wasnorm_wordpool_576.txt	LTP278	ltpFR2	3	3	SEAGULL	1261	n/a	n/a	0	0	0
495486	WORD	wordpools/wasnorm_wordpool_576.txt	LTP278	ltpFR2	3	3	PIGEON	1065	n/a	n/a	0	0	0
498130	WORD	wordpools/wasnorm_wordpool_576.txt	LTP278	ltpFR2	3	3	CROSS	413	n/a	n/a	0	0	0
500910	WORD	wordpools/wasnorm_wordpool_576.txt	LTP278	ltpFR2	3	3	PORTRAIT	1111	n/a	n/a	0	0	0
503404	WORD	wordpools/wasnorm_wordpool_576.txt	LTP278	ltpFR2	3	3	CLOCK	325	n/a	n/a	0	0	0
506181	WORD	wordpools/wasnorm_wordpool_576.txt	LTP278	ltpFR2	3	3	WHISTLE	1606	n/a	n/a	0	0	0
508773	WORD	wordpools/wasnorm_wordpool_576.txt	LTP278	ltpFR2	3	3	CAMEL	223	n/a	n/a	0	0	0
511551	WORD	wordpools/wasnorm_wordpool_576.txt	LTP278	ltpFR2	3	3	KEEPER	769	n/a	n/a	0	0	0
513158	START	n/a	LTP278	ltpFR2	3	n/a	n/a	n/a	4	n/a	n/a	n/a	n/a
513958	DISTRACTOR	n/a	LTP278	ltpFR2	3	3	n/a	n/a	n/a	n/a	0	0	0
513976	PROB	n/a	LTP278	ltpFR2	3	n/a	n/a	n/a	4	11	4	2	5
516135	PROB	n/a	LTP278	ltpFR2	3	n/a	n/a	n/a	4	18	8	6	4
518494	PROB	n/a	LTP278	ltpFR2	3	n/a	n/a	n/a	4	18	8	1	9
520078	PROB	n/a	LTP278	ltpFR2	3	n/a	n/a	n/a	4	21	4	8	9
522889	PROB	n/a	LTP278	ltpFR2	3	n/a	n/a	n/a	4	15	5	2	8
524596	PROB	n/a	LTP278	ltpFR2	3	n/a	n/a	n/a	4	19	5	5	9
525967	PROB	n/a	LTP278	ltpFR2	3	n/a	n/a	n/a	4	15	5	9	1
527440	PROB	n/a	LTP278	ltpFR2	3	n/a	n/a	n/a	4	14	4	1	9
529331	PROB	n/a	LTP278	ltpFR2	3	n/a	n/a	n/a	4	22	4	9	8
532692	PROB	n/a	LTP278	ltpFR2	3	n/a	n/a	n/a	4	19	7	6	6
537157	STOP	n/a	LTP278	ltpFR2	3	n/a	n/a	n/a	4	n/a	n/a	n/a	n/a
539004	REC_START	n/a	LTP278	ltpFR2	3	3	n/a	n/a	n/a	n/a	0	0	0
549050	REC_WORD	wordpools/wasnorm_wordpool_576.txt	LTP278	ltpFR2	3	3	CAMEL	223	n/a	n/a	0	0	0
551134	REC_WORD	wordpools/wasnorm_wordpool_576.txt	LTP278	ltpFR2	3	3	KEEPER	769	n/a	n/a	0	0	0
630080	WORD	wordpools/wasnorm_wordpool_576.txt	LTP278	ltpFR2	3	4	MAILMAN	858	n/a	n/a	0	0	0
632824	WORD	wordpools/wasnorm_wordpool_576.txt	LTP278	ltpFR2	3	4	SPIDER	1351	n/a	n/a	0	0	0
635618	WORD	wordpools/wasnorm_wordpool_576.txt	LTP278	ltpFR2	3	4	FLOWER	584	n/a	n/a	0	0	0
638346	WORD	wordpools/wasnorm_wordpool_576.txt	LTP278	ltpFR2	3	4	DOUGHNUT	490	n/a	n/a	0	0	0
641051	WORD	wordpools/wasnorm_wordpool_576.txt	LTP278	ltpFR2	3	4	PLASTER	1085	n/a	n/a	0	0	0
643715	WORD	wordpools/wasnorm_wordpool_576.txt	LTP278	ltpFR2	3	4	SWORD	1423	n/a	n/a	0	0	0
646175	WORD	wordpools/wasnorm_wordpool_576.txt	LTP278	ltpFR2	3	4	TORTOISE	1486	n/a	n/a	0	0	0
648801	WORD	wordpools/wasnorm_wordpool_576.txt	LTP278	ltpFR2	3	4	CARROT	249	n/a	n/a	0	0	0
651596	WORD	wordpools/wasnorm_wordpool_576.txt	LTP278	ltpFR2	3	4	CANAL	226	n/a	n/a	0	0	0
654122	WORD	wordpools/wasnorm_wordpool_576.txt	LTP278	ltpFR2	3	4	COUNTY	389	n/a	n/a	0	0	0
656610	WORD	wordpools/wasnorm_wordpool_576.txt	LTP278	ltpFR2	3	4	BACKBONE	66	n/a	n/a	0	0	0
659040	WORD	wordpools/wasnorm_wordpool_576.txt	LTP278	ltpFR2	3	4	FREEZER	604	n/a	n/a	0	0	0
661584	WORD	wordpools/wasnorm_wordpool_576.txt	LTP278	ltpFR2	3	4	BUCKET	184	n/a	n/a	0	0	0
664394	WORD	wordpools/wasnorm_wordpool_576.txt	LTP278	ltpFR2	3	4	POSTAGE	1113	n/a	n/a	0	0	0
666903	WORD	wordpools/wasnorm_wordpool_576.txt	LTP278	ltpFR2	3	4	SANDWICH	1232	n/a	n/a	0	0	0
669614	WORD	wordpools/wasnorm_wordpool_576.txt	LTP278	ltpFR2	3	4	EAGLE	512	n/a	n/a	0	0	0
672391	WORD	wordpools/wasnorm_wordpool_576.txt	LTP278	ltpFR2	3	4	APRON	35	n/a	n/a	0	0	0
675045	WORD	wordpools/wasnorm_wordpool_576.txt	LTP278	ltpFR2	3	4	STOVE	1388	n/a	n/a	0	0	0
677693	WORD	wordpools/wasnorm_wordpool_576.txt	LTP278	ltpFR2	3	4	PEDAL	1037	n/a	n/a	0	0	0
680438	WORD	wordpools/wasnorm_wordpool_576.txt	LTP278	ltpFR2	3	4	COCOON	339	n/a	n/a	0	0	0
683013	WORD	wordpools/wasnorm_wordpool_576.txt	LTP278	ltpFR2	3	4	WORKER	1621	n/a	n/a	0	0	0
685723	WORD	wordpools/wasnorm_wordpool_576.txt	LTP278	ltpFR2	3	4	JELLO	754	n/a	n/a	0	0	0
688535	WORD	wordpools/wasnorm_wordpool_576.txt	LTP278	ltpFR2	3	4	BANJO	82	n/a	n/a	0	0	0
691296	WORD	wordpools/wasnorm_wordpool_576.txt	LTP278	ltpFR2	3	4	CRUTCH	417	n/a	n/a	0	0	0
692913	START	n/a	LTP278	ltpFR2	3	n/a	n/a	n/a	5	n/a	n/a	n/a	n/a
693744	DISTRACTOR	n/a	LTP278	ltpFR2	3	4	n/a	n/a	n/a	n/a	0	0	0
693754	PROB	n/a	LTP278	ltpFR2	3	n/a	n/a	n/a	5	22	6	7	9
695707	PROB	n/a	LTP278	ltpFR2	3	n/a	n/a	n/a	5	12	4	4	4
696949	PROB	n/a	LTP278	ltpFR2	3	n/a	n/a	n/a	5	10	3	1	6
698502	PROB	n/a	LTP278	ltpFR2	3	n/a	n/a	n/a	5	12	3	8	1
700191	PROB	n/a	LTP278	ltpFR2	3	n/a	n/a	n/a	5	12	6	2	4
702064	PROB	n/a	LTP278	ltpFR2	3	n/a	n/a	n/a	5	11	1	3	7
703520	PROB	n/a	LTP278	ltpFR2	3	n/a	n/a	n/a	5	17	6	6	5
705059	PROB	n/a	LTP278	ltpFR2	3	n/a	n/a	n/a	5	13	2	3	8
706465	PROB	n/a	LTP278	ltpFR2	3	n/a	n/a	n/a	5	11	3	7	1
708121	PROB	n/a	LTP278	ltpFR2	3	n/a	n/a	n/a	5	18	2	8	8
709760	PROB	n/a	LTP278	ltpFR2	3	n/a	n/a	n/a	5	15	8	3	4
711572	PROB	n/a	LTP278	ltpFR2	3	n/a	n/a	n/a	5	24	9	9	6
713257	PROB	n/a	LTP278	ltpFR2	3	n/a	n/a	n/a	5	17	4	6	7
714829	PROB	n/a	LTP278	ltpFR2	3	n/a	n/a	n/a	5	15	4	5	6
716876	STOP	n/a	LTP278	ltpFR2	3	n/a	n/a	n/a	5	n/a	n/a	n/a	n/a
718765	REC_START	n/a	LTP278	ltpFR2	3	4	n/a	n/a	n/a	n/a	0	0	0
720974	REC_WORD	wordpools/wasnorm_wordpool_576.txt	LTP278	ltpFR2	3	4	MAILMAN	858	n/a	n/a	0	0	0
723520	REC_WORD	wordpools/wasnorm_wordpool_576.txt	LTP278	ltpFR2	3	4	FLOWER	584	n/a	n/a	0	0	0
724725	REC_WORD	wordpools/wasnorm_wordpool_576.txt	LTP278	ltpFR2	3	4	SPIDER	1351	n/a	n/a	0	0	0
726153	REC_WORD	wordpools/wasnorm_wordpool_576.txt	LTP278	ltpFR2	3	4	DOUGHNUT	490	n/a	n/a	0	0	0
730828	REC_WORD	wordpools/wasnorm_wordpool_576.txt	LTP278	ltpFR2	3	4	SWORD	1423	n/a	n/a	0	0	0
732107	REC_WORD	wordpools/wasnorm_wordpool_576.txt	LTP278	ltpFR2	3	4	TORTOISE	1486	n/a	n/a	0	0	0
736238	REC_WORD	wordpools/wasnorm_wordpool_576.txt	LTP278	ltpFR2	3	4	POSTAGE	1113	n/a	n/a	0	0	0
737528	REC_WORD	wordpools/wasnorm_wordpool_576.txt	LTP278	ltpFR2	3	4	APRON	35	n/a	n/a	0	0	0
738528	REC_WORD	wordpools/wasnorm_wordpool_576.txt	LTP278	ltpFR2	3	4	COCOON	339	n/a	n/a	0	0	0
790078	REC_WORD	wordpools/wasnorm_wordpool_576.txt	LTP278	ltpFR2	3	4	MIRROR	899	n/a	n/a	0	0	0
809808	WORD	wordpools/wasnorm_wordpool_576.txt	LTP278	ltpFR2	3	5	COLONEL	348	n/a	n/a	0	0	0
812368	WORD	wordpools/wasnorm_wordpool_576.txt	LTP278	ltpFR2	3	5	STUDENT	1395	n/a	n/a	0	0	0
814827	WORD	wordpools/wasnorm_wordpool_576.txt	LTP278	ltpFR2	3	5	DINER	467	n/a	n/a	0	0	0
817337	WORD	wordpools/wasnorm_wordpool_576.txt	LTP278	ltpFR2	3	5	SPARROW	1347	n/a	n/a	0	0	0
819829	WORD	wordpools/wasnorm_wordpool_576.txt	LTP278	ltpFR2	3	5	JELLY	755	n/a	n/a	0	0	0
822635	WORD	wordpools/wasnorm_wordpool_576.txt	LTP278	ltpFR2	3	5	TOASTER	1472	n/a	n/a	0	0	0
825296	WORD	wordpools/wasnorm_wordpool_576.txt	LTP278	ltpFR2	3	5	OMELET	976	n/a	n/a	0	0	0
827893	WORD	wordpools/wasnorm_wordpool_576.txt	LTP278	ltpFR2	3	5	CORAL	378	n/a	n/a	0	0	0
830436	WORD	wordpools/wasnorm_wordpool_576.txt	LTP278	ltpFR2	3	5	SLUG	1329	n/a	n/a	0	0	0
833097	WORD	wordpools/wasnorm_wordpool_576.txt	LTP278	ltpFR2	3	5	APPLE	33	n/a	n/a	0	0	0
835839	WORD	wordpools/wasnorm_wordpool_576.txt	LTP278	ltpFR2	3	5	GIFT	635	n/a	n/a	0	0	0
838366	WORD	wordpools/wasnorm_wordpool_576.txt	LTP278	ltpFR2	3	5	PARSLEY	1016	n/a	n/a	0	0	0
840942	WORD	wordpools/wasnorm_wordpool_576.txt	LTP278	ltpFR2	3	5	ARM	38	n/a	n/a	0	0	0
843385	WORD	wordpools/wasnorm_wordpool_576.txt	LTP278	ltpFR2	3	5	WAITER	1580	n/a	n/a	0	0	0
845994	WORD	wordpools/wasnorm_wordpool_576.txt	LTP278	ltpFR2	3	5	SERVANT	1271	n/a	n/a	0	0	0
848800	WORD	wordpools/wasnorm_wordpool_576.txt	LTP278	ltpFR2	3	5	LUNCH	849	n/a	n/a	0	0	0
851299	WORD	wordpools/wasnorm_wordpool_576.txt	LTP278	ltpFR2	3	5	SKILLET	1317	n/a	n/a	0	0	0
853953	WORD	wordpools/wasnorm_wordpool_576.txt	LTP278	ltpFR2	3	5	COSTUME	383	n/a	n/a	0	0	0
856397	WORD	wordpools/wasnorm_wordpool_576.txt	LTP278	ltpFR2	3	5	WAITRESS	1581	n/a	n/a	0	0	0
858943	WORD	wordpools/wasnorm_wordpool_576.txt	LTP278	ltpFR2	3	5	CYCLONE	431	n/a	n/a	0	0	0
861665	WORD	wordpools/wasnorm_wordpool_576.txt	LTP278	ltpFR2	3	5	BADGE	68	n/a	n/a	0	0	0
864176	WORD	wordpools/wasnorm_wordpool_576.txt	LTP278	ltpFR2	3	5	POISON	1096	n/a	n/a	0	0	0
866689	WORD	wordpools/wasnorm_wordpool_576.txt	LTP278	ltpFR2	3	5	COBRA	336	n/a	n/a	0	0	0
869484	WORD	wordpools/wasnorm_wordpool_576.txt	LTP278	ltpFR2	3	5	SALT	1229	n/a	n/a	0	0	0
871090	START	n/a	LTP278	ltpFR2	3	n/a	n/a	n/a	6	n/a	n/a	n/a	n/a
872063	DISTRACTOR	n/a	LTP278	ltpFR2	3	5	n/a	n/a	n/a	n/a	0	0	0
872076	PROB	n/a	LTP278	ltpFR2	3	n/a	n/a	n/a	6	25	7	9	9
874348	PROB	n/a	LTP278	ltpFR2	3	n/a	n/a	n/a	6	9	3	4	2
876660	PROB	n/a	LTP278	ltpFR2	3	n/a	n/a	n/a	6	19	9	6	4
878162	PROB	n/a	LTP278	ltpFR2	3	n/a	n/a	n/a	6	19	4	9	6
880203	PROB	n/a	LTP278	ltpFR2	3	n/a	n/a	n/a	6	11	7	2	2
882762	PROB	n/a	LTP278	ltpFR2	3	n/a	n/a	n/a	6	20	8	4	8
895089	STOP	n/a	LTP278	ltpFR2	3	n/a	n/a	n/a	6	n/a	n/a	n/a	n/a
896887	REC_START	n/a	LTP278	ltpFR2	3	5	n/a	n/a	n/a	n/a	0	0	0
904581	REC_WORD	wordpools/wasnorm_wordpool_576.txt	LTP278	ltpFR2	3	5	SPARROW	1347	n/a	n/a	0	0	0
905589	REC_WORD	wordpools/wasnorm_wordpool_576.txt	LTP278	ltpFR2	3	5	COLONEL	348	n/a	n/a	0	0	0
906368	REC_WORD	wordpools/wasnorm_wordpool_576.txt	LTP278	ltpFR2	3	5	STUDENT	1395	n/a	n/a	0	0	0
908172	REC_WORD	wordpools/wasnorm_wordpool_576.txt	LTP278	ltpFR2	3	5	DINER	467	n/a	n/a	0	0	0
909125	REC_WORD	wordpools/wasnorm_wordpool_576.txt	LTP278	ltpFR2	3	5	JELLY	755	n/a	n/a	0	0	0
909970	REC_WORD	wordpools/wasnorm_wordpool_576.txt	LTP278	ltpFR2	3	5	APPLE	33	n/a	n/a	0	0	0
910784	REC_WORD	wordpools/wasnorm_wordpool_576.txt	LTP278	ltpFR2	3	5	OMELET	976	n/a	n/a	0	0	0
911517	REC_WORD	wordpools/wasnorm_wordpool_576.txt	LTP278	ltpFR2	3	5	CORAL	378	n/a	n/a	0	0	0
912250	REC_WORD	wordpools/wasnorm_wordpool_576.txt	LTP278	ltpFR2	3	5	SLUG	1329	n/a	n/a	0	0	0
914954	REC_WORD	wordpools/wasnorm_wordpool_576.txt	LTP278	ltpFR2	3	5	TOASTER	1472	n/a	n/a	0	0	0
987929	DISTRACTOR	n/a	LTP278	ltpFR2	3	6	n/a	n/a	n/a	n/a	0	0	0
987929	START	n/a	LTP278	ltpFR2	3	n/a	n/a	n/a	7	n/a	n/a	n/a	n/a
987979	PROB	n/a	LTP278	ltpFR2	3	n/a	n/a	n/a	7	16	8	3	5
990535	PROB	n/a	LTP278	ltpFR2	3	n/a	n/a	n/a	7	16	5	6	5
992158	PROB	n/a	LTP278	ltpFR2	3	n/a	n/a	n/a	7	13	7	4	2
994822	PROB	n/a	LTP278	ltpFR2	3	n/a	n/a	n/a	7	6	2	3	1
996190	PROB	n/a	LTP278	ltpFR2	3	n/a	n/a	n/a	7	18	4	6	8
997562	PROB	n/a	LTP278	ltpFR2	3	n/a	n/a	n/a	7	24	9	6	9
999586	PROB	n/a	LTP278	ltpFR2	3	n/a	n/a	n/a	7	21	5	7	9
1001915	PROB	n/a	LTP278	ltpFR2	3	n/a	n/a	n/a	7	17	6	7	4
1005792	PROB	n/a	LTP278	ltpFR2	3	n/a	n/a	n/a	7	15	9	2	4
1007933	PROB	n/a	LTP278	ltpFR2	3	n/a	n/a	n/a	7	17	4	9	4
1011929	STOP	n/a	LTP278	ltpFR2	3	n/a	n/a	n/a	7	n/a	n/a	n/a	n/a
1013024	WORD	wordpools/wasnorm_wordpool_576.txt	LTP278	ltpFR2	3	6	SISTER	1312	n/a	n/a	0	0	0
1015484	WORD	wordpools/wasnorm_wordpool_576.txt	LTP278	ltpFR2	3	6	SIBLING	1301	n/a	n/a	0	0	0
1018244	WORD	wordpools/wasnorm_wordpool_576.txt	LTP278	ltpFR2	3	6	BLOUSE	139	n/a	n/a	0	0	0
1020786	WORD	wordpools/wasnorm_wordpool_576.txt	LTP278	ltpFR2	3	6	MAPLE	866	n/a	n/a	0	0	0
1023247	WORD	wordpools/wasnorm_wordpool_576.txt	LTP278	ltpFR2	3	6	BARLEY	88	n/a	n/a	0	0	0
1026056	WORD	wordpools/wasnorm_wordpool_576.txt	LTP278	ltpFR2	3	6	HELMET	702	n/a	n/a	0	0	0
1028545	WORD	wordpools/wasnorm_wordpool_576.txt	LTP278	ltpFR2	3	6	CIGAR	308	n/a	n/a	0	0	0
1031323	WORD	wordpools/wasnorm_wordpool_576.txt	LTP278	ltpFR2	3	6	POWDER	1117	n/a	n/a	0	0	0
1033752	WORD	wordpools/wasnorm_wordpool_576.txt	LTP278	ltpFR2	3	6	FLASHLIGHT	575	n/a	n/a	0	0	0
1036262	WORD	wordpools/wasnorm_wordpool_576.txt	LTP278	ltpFR2	3	6	HEDGE	699	n/a	n/a	0	0	0
1038938	WORD	wordpools/wasnorm_wordpool_576.txt	LTP278	ltpFR2	3	6	DRILL	497	n/a	n/a	0	0	0
1041427	WORD	wordpools/wasnorm_wordpool_576.txt	LTP278	ltpFR2	3	6	DENTIST	447	n/a	n/a	0	0	0
1043957	WORD	wordpools/wasnorm_wordpool_576.txt	LTP278	ltpFR2	3	6	ROBBER	1197	n/a	n/a	0	0	0
1046734	WORD	wordpools/wasnorm_wordpool_576.txt	LTP278	ltpFR2	3	6	SHORTCAKE	1292	n/a	n/a	0	0	0
1049412	WORD	wordpools/wasnorm_wordpool_576.txt	LTP278	ltpFR2	3	6	PIMPLE	1071	n/a	n/a	0	0	0
1052172	WORD	wordpools/wasnorm_wordpool_576.txt	LTP278	ltpFR2	3	6	STAR	1373	n/a	n/a	0	0	0
1054948	WORD	wordpools/wasnorm_wordpool_576.txt	LTP278	ltpFR2	3	6	FRANCE	601	n/a	n/a	0	0	0
1057692	WORD	wordpools/wasnorm_wordpool_576.txt	LTP278	ltpFR2	3	6	CABBAGE	210	n/a	n/a	0	0	0
1060370	WORD	wordpools/wasnorm_wordpool_576.txt	LTP278	ltpFR2	3	6	SUSPECT	1415	n/a	n/a	0	0	0
1063046	WORD	wordpools/wasnorm_wordpool_576.txt	LTP278	ltpFR2	3	6	MONSTER	912	n/a	n/a	0	0	0
1065689	WORD	wordpools/wasnorm_wordpool_576.txt	LTP278	ltpFR2	3	6	TABLE	1426	n/a	n/a	0	0	0
1068183	WORD	wordpools/wasnorm_wordpool_576.txt	LTP278	ltpFR2	3	6	CREVICE	405	n/a	n/a	0	0	0
1070908	WORD	wordpools/wasnorm_wordpool_576.txt	LTP278	ltpFR2	3	6	SHRUB	1299	n/a	n/a	0	0	0
1073736	WORD	wordpools/wasnorm_wordpool_576.txt	LTP278	ltpFR2	3	6	ATLAS	53	n/a	n/a	0	0	0
1075343	START	n/a	LTP278	ltpFR2	3	n/a	n/a	n/a	8	n/a	n/a	n/a	n/a
1076297	DISTRACTOR	n/a	LTP278	ltpFR2	3	6	n/a	n/a	n/a	n/a	0	0	0
1076313	PROB	n/a	LTP278	ltpFR2	3	n/a	n/a	n/a	8	21	4	9	8
1080005	PROB	n/a	LTP278	ltpFR2	3	n/a	n/a	n/a	8	9	1	2	6
1081795	PROB	n/a	LTP278	ltpFR2	3	n/a	n/a	n/a	8	18	8	6	4
1083335	PROB	n/a	LTP278	ltpFR2	3	n/a	n/a	n/a	8	15	4	5	8
1085410	PROB	n/a	LTP278	ltpFR2	3	n/a	n/a	n/a	8	24	9	7	8
1087868	PROB	n/a	LTP278	ltpFR2	3	n/a	n/a	n/a	8	24	7	9	8
1091013	PROB	n/a	LTP278	ltpFR2	3	n/a	n/a	n/a	8	14	3	3	8
1092791	PROB	n/a	LTP278	ltpFR2	3	n/a	n/a	n/a	8	16	7	7	2
1094544	PROB	n/a	LTP278	ltpFR2	3	n/a	n/a	n/a	8	14	7	3	4
1096083	PROB	n/a	LTP278	ltpFR2	3	n/a	n/a	n/a	8	14	2	5	7
1097539	PROB	n/a	LTP278	ltpFR2	3	n/a	n/a	n/a	8	15	4	8	3
1099012	STOP	n/a	LTP278	ltpFR2	3	n/a	n/a	n/a	8	n/a	n/a	n/a	n/a
1101120	REC_START	n/a	LTP278	ltpFR2	3	6	n/a	n/a	n/a	n/a	0	0	0
1102718	REC_WORD	wordpools/wasnorm_wordpool_576.txt	LTP278	ltpFR2	3	6	CABBAGE	210	n/a	n/a	0	0	0
1107489	REC_WORD	wordpools/wasnorm_wordpool_576.txt	LTP278	ltpFR2	3	6	SISTER	1312	n/a	n/a	0	0	0
1108707	REC_WORD	wordpools/wasnorm_wordpool_576.txt	LTP278	ltpFR2	3	6	SIBLING	1301	n/a	n/a	0	0	0
1109775	REC_WORD	wordpools/wasnorm_wordpool_576.txt	LTP278	ltpFR2	3	6	BLOUSE	139	n/a	n/a	0	0	0
1192217	WORD	wordpools/wasnorm_wordpool_576.txt	LTP278	ltpFR2	3	7	NOVEL	960	n/a	n/a	0	0	0
1194976	WORD	wordpools/wasnorm_wordpool_576.txt	LTP278	ltpFR2	3	7	TILE	1468	n/a	n/a	0	0	0
1197503	WORD	wordpools/wasnorm_wordpool_576.txt	LTP278	ltpFR2	3	7	PORK	1108	n/a	n/a	0	0	0
1200192	WORD	wordpools/wasnorm_wordpool_576.txt	LTP278	ltpFR2	3	7	EXPERT	543	n/a	n/a	0	0	0
1202885	WORD	wordpools/wasnorm_wordpool_576.txt	LTP278	ltpFR2	3	7	TROMBONE	1508	n/a	n/a	0	0	0
1205567	WORD	wordpools/wasnorm_wordpool_576.txt	LTP278	ltpFR2	3	7	HORSE	719	n/a	n/a	0	0	0
1208025	WORD	wordpools/wasnorm_wordpool_576.txt	LTP278	ltpFR2	3	7	TRACTOR	1493	n/a	n/a	0	0	0
1210798	WORD	wordpools/wasnorm_wordpool_576.txt	LTP278	ltpFR2	3	7	FLUTE	585	n/a	n/a	0	0	0
1213497	WORD	wordpools/wasnorm_wordpool_576.txt	LTP278	ltpFR2	3	7	JOURNAL	760	n/a	n/a	0	0	0
1215984	WORD	wordpools/wasnorm_wordpool_576.txt	LTP278	ltpFR2	3	7	SEAFOOD	1260	n/a	n/a	0	0	0
1218583	WORD	wordpools/wasnorm_wordpool_576.txt	LTP278	ltpFR2	3	7	HAWK	692	n/a	n/a	0	0	0
1221360	WORD	wordpools/wasnorm_wordpool_576.txt	LTP278	ltpFR2	3	7	SEAL	1262	n/a	n/a	0	0	0
1224187	WORD	wordpools/wasnorm_wordpool_576.txt	LTP278	ltpFR2	3	7	ICEBERG	731	n/a	n/a	0	0	0
1226613	WORD	wordpools/wasnorm_wordpool_576.txt	LTP278	ltpFR2	3	7	KLEENEX	782	n/a	n/a	0	0	0
1229206	WORD	wordpools/wasnorm_wordpool_576.txt	LTP278	ltpFR2	3	7	RUST	1219	n/a	n/a	0	0	0
1231744	WORD	wordpools/wasnorm_wordpool_576.txt	LTP278	ltpFR2	3	7	ELBOW	520	n/a	n/a	0	0	0
1234421	WORD	wordpools/wasnorm_wordpool_576.txt	LTP278	ltpFR2	3	7	GALLON	618	n/a	n/a	0	0	0
1237119	WORD	wordpools/wasnorm_wordpool_576.txt	LTP278	ltpFR2	3	7	REPORT	1184	n/a	n/a	0	0	0
1239545	WORD	wordpools/wasnorm_wordpool_576.txt	LTP278	ltpFR2	3	7	NOTEBOOK	959	n/a	n/a	0	0	0
1242054	WORD	wordpools/wasnorm_wordpool_576.txt	LTP278	ltpFR2	3	7	BUG	187	n/a	n/a	0	0	0
1244480	WORD	wordpools/wasnorm_wordpool_576.txt	LTP278	ltpFR2	3	7	FOOT	590	n/a	n/a	0	0	0
1247257	WORD	wordpools/wasnorm_wordpool_576.txt	LTP278	ltpFR2	3	7	ROBOT	1200	n/a	n/a	0	0	0
1249711	WORD	wordpools/wasnorm_wordpool_576.txt	LTP278	ltpFR2	3	7	RAZOR	1171	n/a	n/a	0	0	0
1252377	WORD	wordpools/wasnorm_wordpool_576.txt	LTP278	ltpFR2	3	7	BLADE	134	n/a	n/a	0	0	0
1253994	START	n/a	LTP278	ltpFR2	3	n/a	n/a	n/a	9	n/a	n/a	n/a	n/a
1255040	DISTRACTOR	n/a	LTP278	ltpFR2	3	7	n/a	n/a	n/a	n/a	0	0	0
1255052	PROB	n/a	LTP278	ltpFR2	3	n/a	n/a	n/a	9	18	2	8	8
1259566	PROB	n/a	LTP278	ltpFR2	3	n/a	n/a	n/a	9	12	1	6	5
1260970	PROB	n/a	LTP278	ltpFR2	3	n/a	n/a	n/a	9	15	7	7	1
1262310	PROB	n/a	LTP278	ltpFR2	3	n/a	n/a	n/a	9	13	1	2	8
1264184	PROB	n/a	LTP278	ltpFR2	3	n/a	n/a	n/a	9	9	2	1	6
1266981	PROB	n/a	LTP278	ltpFR2	3	n/a	n/a	n/a	9	9	3	4	2
1269157	PROB	n/a	LTP278	ltpFR2	3	n/a	n/a	n/a	9	18	8	8	2
1270507	PROB	n/a	LTP278	ltpFR2	3	n/a	n/a	n/a	9	13	4	2	7
1272565	PROB	n/a	LTP278	ltpFR2	3	n/a	n/a	n/a	9	24	9	8	7
1275007	PROB	n/a	LTP278	ltpFR2	3	n/a	n/a	n/a	9	15	5	4	6
1277309	STOP	n/a	LTP278	ltpFR2	3	n/a	n/a	n/a	9	n/a	n/a	n/a	n/a
1279759	REC_START	n/a	LTP278	ltpFR2	3	7	n/a	n/a	n/a	n/a	0	0	0
1281307	REC_WORD	wordpools/wasnorm_wordpool_576.txt	LTP278	ltpFR2	3	7	NOVEL	960	n/a	n/a	0	0	0
1282307	REC_WORD	wordpools/wasnorm_wordpool_576.txt	LTP278	ltpFR2	3	7	TILE	1468	n/a	n/a	0	0	0
1283272	REC_WORD	wordpools/wasnorm_wordpool_576.txt	LTP278	ltpFR2	3	7	PORK	1108	n/a	n/a	0	0	0
1284247	REC_WORD	wordpools/wasnorm_wordpool_576.txt	LTP278	ltpFR2	3	7	EXPERT	543	n/a	n/a	0	0	0
1285179	REC_WORD	wordpools/wasnorm_wordpool_576.txt	LTP278	ltpFR2	3	7	TROMBONE	1508	n/a	n/a	0	0	0
1338495	REC_WORD	wordpools/wasnorm_wordpool_576.txt	LTP278	ltpFR2	3	7	SUSPECT	1415	n/a	n/a	0	0	0
1370789	WORD	wordpools/wasnorm_wordpool_576.txt	LTP278	ltpFR2	3	8	WASP	1593	n/a	n/a	0	0	0
1373333	WORD	wordpools/wasnorm_wordpool_576.txt	LTP278	ltpFR2	3	8	WITNESS	1618	n/a	n/a	0	0	0
1375925	WORD	wordpools/wasnorm_wordpool_576.txt	LTP278	ltpFR2	3	8	LAGOON	795	n/a	n/a	0	0	0
1378447	WORD	wordpools/wasnorm_wordpool_576.txt	LTP278	ltpFR2	3	8	LACE	792	n/a	n/a	0	0	0
1381095	WORD	wordpools/wasnorm_wordpool_576.txt	LTP278	ltpFR2	3	8	MATCH	878	n/a	n/a	0	0	0
1383704	WORD	wordpools/wasnorm_wordpool_576.txt	LTP278	ltpFR2	3	8	PUPPY	1144	n/a	n/a	0	0	0
1386164	WORD	wordpools/wasnorm_wordpool_576.txt	LTP278	ltpFR2	3	8	CATCHER	258	n/a	n/a	0	0	0
1388874	WORD	wordpools/wasnorm_wordpool_576.txt	LTP278	ltpFR2	3	8	OUTLAW	989	n/a	n/a	0	0	0
1391317	WORD	wordpools/wasnorm_wordpool_576.txt	LTP278	ltpFR2	3	8	PISTOL	1075	n/a	n/a	0	0	0
1393742	WORD	wordpools/wasnorm_wordpool_576.txt	LTP278	ltpFR2	3	8	CLIMBER	323	n/a	n/a	0	0	0
1396487	WORD	wordpools/wasnorm_wordpool_576.txt	LTP278	ltpFR2	3	8	PILOT	1070	n/a	n/a	0	0	0
1399125	WORD	wordpools/wasnorm_wordpool_576.txt	LTP278	ltpFR2	3	8	AIRPORT	13	n/a	n/a	0	0	0
1401585	WORD	wordpools/wasnorm_wordpool_576.txt	LTP278	ltpFR2	3	8	CRATER	400	n/a	n/a	0	0	0
1404099	WORD	wordpools/wasnorm_wordpool_576.txt	LTP278	ltpFR2	3	8	VIRUS	1572	n/a	n/a	0	0	0
1406575	WORD	wordpools/wasnorm_wordpool_576.txt	LTP278	ltpFR2	3	8	SHIRT	1287	n/a	n/a	0	0	0
1409235	WORD	wordpools/wasnorm_wordpool_576.txt	LTP278	ltpFR2	3	8	JEANS	752	n/a	n/a	0	0	0
1411760	WORD	wordpools/wasnorm_wordpool_576.txt	LTP278	ltpFR2	3	8	DRESS	495	n/a	n/a	0	0	0
1414203	WORD	wordpools/wasnorm_wordpool_576.txt	LTP278	ltpFR2	3	8	INMATE	738	n/a	n/a	0	0	0
1416829	WORD	wordpools/wasnorm_wordpool_576.txt	LTP278	ltpFR2	3	8	SIDEWALK	1303	n/a	n/a	0	0	0
1419639	WORD	wordpools/wasnorm_wordpool_576.txt	LTP278	ltpFR2	3	8	PLIERS	1089	n/a	n/a	0	0	0
1422267	WORD	wordpools/wasnorm_wordpool_576.txt	LTP278	ltpFR2	3	8	IGLOO	734	n/a	n/a	0	0	0
1424821	WORD	wordpools/wasnorm_wordpool_576.txt	LTP278	ltpFR2	3	8	SAUSAGE	1238	n/a	n/a	0	0	0
1427487	WORD	wordpools/wasnorm_wordpool_576.txt	LTP278	ltpFR2	3	8	SHELF	1280	n/a	n/a	0	0	0
1430293	WORD	wordpools/wasnorm_wordpool_576.txt	LTP278	ltpFR2	3	8	BLACKBOARD	133	n/a	n/a	0	0	0
1431903	START	n/a	LTP278	ltpFR2	3	n/a	n/a	n/a	10	n/a	n/a	n/a	n/a
1432959	DISTRACTOR	n/a	LTP278	ltpFR2	3	8	n/a	n/a	n/a	n/a	0	0	0
1432973	PROB	n/a	LTP278	ltpFR2	3	n/a	n/a	n/a	10	18	7	3	8
1434576	PROB	n/a	LTP278	ltpFR2	3	n/a	n/a	n/a	10	12	7	1	4
1437353	PROB	n/a	LTP278	ltpFR2	3	n/a	n/a	n/a	10	17	7	6	4
1438874	PROB	n/a	LTP278	ltpFR2	3	n/a	n/a	n/a	10	17	3	5	9
1440765	PROB	n/a	LTP278	ltpFR2	3	n/a	n/a	n/a	10	15	4	7	4
1442405	PROB	n/a	LTP278	ltpFR2	3	n/a	n/a	n/a	10	16	3	4	9
1444133	PROB	n/a	LTP278	ltpFR2	3	n/a	n/a	n/a	10	10	6	2	2
1445989	PROB	n/a	LTP278	ltpFR2	3	n/a	n/a	n/a	10	10	1	3	6
1447140	PROB	n/a	LTP278	ltpFR2	3	n/a	n/a	n/a	10	14	2	6	6
1448711	PROB	n/a	LTP278	ltpFR2	3	n/a	n/a	n/a	10	15	4	8	3
1450586	PROB	n/a	LTP278	ltpFR2	3	n/a	n/a	n/a	10	16	9	6	1
1453061	PROB	n/a	LTP278	ltpFR2	3	n/a	n/a	n/a	10	15	7	3	5
1454373	STOP	n/a	LTP278	ltpFR2	3	n/a	n/a	n/a	10	n/a	n/a	n/a	n/a
1457801	REC_START	n/a	LTP278	ltpFR2	3	8	n/a	n/a	n/a	n/a	0	0	0
1458503	REC_WORD	wordpools/wasnorm_wordpool_576.txt	LTP278	ltpFR2	3	8	SAUSAGE	1238	n/a	n/a	0	0	0
1459631	REC_WORD	wordpools/wasnorm_wordpool_576.txt	LTP278	ltpFR2	3	8	IGLOO	734	n/a	n/a	0	0	0
1460378	REC_WORD	wordpools/wasnorm_wordpool_576.txt	LTP278	ltpFR2	3	8	SHELF	1280	n/a	n/a	0	0	0
1478888	REC_WORD	wordpools/wasnorm_wordpool_576.txt	LTP278	ltpFR2	3	8	TRAIN	1494	n/a	n/a	0	0	0
1479290	REC_WORD	wordpools/wasnorm_wordpool_576.txt	LTP278	ltpFR2	3	8	CAR	241	n/a	n/a	0	0	0
1486628	REC_WORD	wordpools/wasnorm_wordpool_576.txt	LTP278	ltpFR2	3	8	AIRPORT	13	n/a	n/a	0	0	0
1511598	REC_WORD	wordpools/wasnorm_wordpool_576.txt	LTP278	ltpFR2	3	8	OFFER	-1	n/a	n/a	0	0	0
1515364	REC_WORD	wordpools/wasnorm_wordpool_576.txt	LTP278	ltpFR2	3	8	WITNESS	1618	n/a	n/a	0	0	0
1516284	REC_WORD	wordpools/wasnorm_wordpool_576.txt	LTP278	ltpFR2	3	8	WASP	1593	n/a	n/a	0	0	0
1517978	REC_WORD	wordpools/wasnorm_wordpool_576.txt	LTP278	ltpFR2	3	8	OUTLAW	989	n/a	n/a	0	0	0
1518666	REC_WORD	wordpools/wasnorm_wordpool_576.txt	LTP278	ltpFR2	3	8	PISTOL	1075	n/a	n/a	0	0	0
1520628	REC_WORD	wordpools/wasnorm_wordpool_576.txt	LTP278	ltpFR2	3	8	TRAIN	1494	n/a	n/a	0	0	0
1534569	REST_REWET	n/a	LTP278	ltpFR2	3	8	n/a	n/a	n/a	n/a	0	0	0
1956380	DISTRACTOR	n/a	LTP278	ltpFR2	3	9	n/a	n/a	n/a	n/a	0	0	0
1956380	START	n/a	LTP278	ltpFR2	3	n/a	n/a	n/a	11	n/a	n/a	n/a	n/a
1956430	PROB	n/a	LTP278	ltpFR2	3	n/a	n/a	n/a	11	21	9	5	7
1958901	PROB	n/a	LTP278	ltpFR2	3	n/a	n/a	n/a	11	15	5	7	3
1960462	PROB	n/a	LTP278	ltpFR2	3	n/a	n/a	n/a	11	11	5	3	3
1961912	PROB	n/a	LTP278	ltpFR2	3	n/a	n/a	n/a	11	22	9	6	7
1963857	PROB	n/a	LTP278	ltpFR2	3	n/a	n/a	n/a	11	14	8	3	3
1965376	PROB	n/a	LTP278	ltpFR2	3	n/a	n/a	n/a	11	7	4	2	1
1968943	PROB	n/a	LTP278	ltpFR2	3	n/a	n/a	n/a	11	12	5	5	2
1970216	PROB	n/a	LTP278	ltpFR2	3	n/a	n/a	n/a	11	18	7	4	7
1971833	PROB	n/a	LTP278	ltpFR2	3	n/a	n/a	n/a	11	18	1	8	9
1973222	PROB	n/a	LTP278	ltpFR2	3	n/a	n/a	n/a	11	11	5	4	2
1974911	PROB	n/a	LTP278	ltpFR2	3	n/a	n/a	n/a	11	10	1	4	5
1977693	PROB	n/a	LTP278	ltpFR2	3	n/a	n/a	n/a	11	18	5	9	4
1980253	STOP	n/a	LTP278	ltpFR2	3	n/a	n/a	n/a	11	n/a	n/a	n/a	n/a
1981441	WORD	wordpools/wasnorm_wordpool_576.txt	LTP278	ltpFR2	3	9	CABIN	211	n/a	n/a	0	0	0
1984050	WORD	wordpools/wasnorm_wordpool_576.txt	LTP278	ltpFR2	3	9	YOLK	1633	n/a	n/a	0	0	0
1986677	WORD	wordpools/wasnorm_wordpool_576.txt	LTP278	ltpFR2	3	9	ROOSTER	1209	n/a	n/a	0	0	0
1989220	WORD	wordpools/wasnorm_wordpool_576.txt	LTP278	ltpFR2	3	9	SLIDE	1326	n/a	n/a	0	0	0
1992013	WORD	wordpools/wasnorm_wordpool_576.txt	LTP278	ltpFR2	3	9	SHERIFF	1284	n/a	n/a	0	0	0
1994607	WORD	wordpools/wasnorm_wordpool_576.txt	LTP278	ltpFR2	3	9	CLAMP	316	n/a	n/a	0	0	0
1997134	WORD	wordpools/wasnorm_wordpool_576.txt	LTP278	ltpFR2	3	9	VENUS	1557	n/a	n/a	0	0	0
1999905	WORD	wordpools/wasnorm_wordpool_576.txt	LTP278	ltpFR2	3	9	GLOBE	641	n/a	n/a	0	0	0
2002433	WORD	wordpools/wasnorm_wordpool_576.txt	LTP278	ltpFR2	3	9	TABLET	1427	n/a	n/a	0	0	0
2004895	WORD	wordpools/wasnorm_wordpool_576.txt	LTP278	ltpFR2	3	9	ROBIN	1199	n/a	n/a	0	0	0
2007318	WORD	wordpools/wasnorm_wordpool_576.txt	LTP278	ltpFR2	3	9	MAILBOX	857	n/a	n/a	0	0	0
2009847	WORD	wordpools/wasnorm_wordpool_576.txt	LTP278	ltpFR2	3	9	SUNRISE	1407	n/a	n/a	0	0	0
2012307	WORD	wordpools/wasnorm_wordpool_576.txt	LTP278	ltpFR2	3	9	ROCKET	1202	n/a	n/a	0	0	0
2014728	WORD	wordpools/wasnorm_wordpool_576.txt	LTP278	ltpFR2	3	9	PARROT	1015	n/a	n/a	0	0	0
2017209	WORD	wordpools/wasnorm_wordpool_576.txt	LTP278	ltpFR2	3	9	ARMY	39	n/a	n/a	0	0	0
2019751	WORD	wordpools/wasnorm_wordpool_576.txt	LTP278	ltpFR2	3	9	KETCHUP	771	n/a	n/a	0	0	0
2022190	WORD	wordpools/wasnorm_wordpool_576.txt	LTP278	ltpFR2	3	9	RELISH	1183	n/a	n/a	0	0	0
2024871	WORD	wordpools/wasnorm_wordpool_576.txt	LTP278	ltpFR2	3	9	NURSE	963	n/a	n/a	0	0	0
2027565	WORD	wordpools/wasnorm_wordpool_576.txt	LTP278	ltpFR2	3	9	YACHT	1629	n/a	n/a	0	0	0
2030141	WORD	wordpools/wasnorm_wordpool_576.txt	LTP278	ltpFR2	3	9	LAMP	798	n/a	n/a	0	0	0
2032584	WORD	wordpools/wasnorm_wordpool_576.txt	LTP278	ltpFR2	3	9	DUSTPAN	509	n/a	n/a	0	0	0
2035009	WORD	wordpools/wasnorm_wordpool_576.txt	LTP278	ltpFR2	3	9	DIVER	476	n/a	n/a	0	0	0
2037582	WORD	wordpools/wasnorm_wordpool_576.txt	LTP278	ltpFR2	3	9	PATROL	1027	n/a	n/a	0	0	0
2040313	WORD	wordpools/wasnorm_wordpool_576.txt	LTP278	ltpFR2	3	9	BOARD	143	n/a	n/a	0	0	0
2041931	START	n/a	LTP278	ltpFR2	3	n/a	n/a	n/a	12	n/a	n/a	n/a	n/a
2042910	DISTRACTOR	n/a	LTP278	ltpFR2	3	9	n/a	n/a	n/a	n/a	0	0	0
2042922	PROB	n/a	LTP278	ltpFR2	3	n/a	n/a	n/a	12	14	5	6	3
2046853	PROB	n/a	LTP278	ltpFR2	3	n/a	n/a	n/a	12	15	7	5	3
2049414	PROB	n/a	LTP278	ltpFR2	3	n/a	n/a	n/a	12	8	5	2	1
2050630	PROB	n/a	LTP278	ltpFR2	3	n/a	n/a	n/a	12	13	4	6	3
2052170	PROB	n/a	LTP278	ltpFR2	3	n/a	n/a	n/a	12	23	6	8	9
2054628	PROB	n/a	LTP278	ltpFR2	3	n/a	n/a	n/a	12	10	1	4	5
2055816	PROB	n/a	LTP278	ltpFR2	3	n/a	n/a	n/a	12	19	6	9	4
2057294	PROB	n/a	LTP278	ltpFR2	3	n/a	n/a	n/a	12	11	6	3	2
2058710	PROB	n/a	LTP278	ltpFR2	3	n/a	n/a	n/a	12	6	1	4	1
2060167	PROB	n/a	LTP278	ltpFR2	3	n/a	n/a	n/a	12	13	3	2	8
2061610	PROB	n/a	LTP278	ltpFR2	3	n/a	n/a	n/a	12	15	8	4	3
2064461	STOP	n/a	LTP278	ltpFR2	3	n/a	n/a	n/a	12	n/a	n/a	n/a	n/a
2067762	REC_START	n/a	LTP278	ltpFR2	3	9	n/a	n/a	n/a	n/a	0	0	0
2068361	REC_WORD	wordpools/wasnorm_wordpool_576.txt	LTP278	ltpFR2	3	9	CABIN	211	n/a	n/a	0	0	0
2069903	REC_WORD	wordpools/wasnorm_wordpool_576.txt	LTP278	ltpFR2	3	9	ROOSTER	1209	n/a	n/a	0	0	0
2070536	REC_WORD	wordpools/wasnorm_wordpool_576.txt	LTP278	ltpFR2	3	9	SHERIFF	1284	n/a	n/a	0	0	0
2071570	REC_WORD	wordpools/wasnorm_wordpool_576.txt	LTP278	ltpFR2	3	9	ARMY	39	n/a	n/a	0	0	0
2072374	REC_WORD	wordpools/wasnorm_wordpool_576.txt	LTP278	ltpFR2	3	9	VENUS	1557	n/a	n/a	0	0	0
2074564	REC_WORD	wordpools/wasnorm_wordpool_576.txt	LTP278	ltpFR2	3	9	ROCKET	1202	n/a	n/a	0	0	0
2076195	REC_WORD_VV	wordpools/wasnorm_wordpool_576.txt	LTP278	ltpFR2	3	9	<>	-1	n/a	n/a	0	0	0
2085943	REC_WORD	wordpools/wasnorm_wordpool_576.txt	LTP278	ltpFR2	3	9	RELISH	1183	n/a	n/a	0	0	0
2087005	REC_WORD	wordpools/wasnorm_wordpool_576.txt	LTP278	ltpFR2	3	9	KETCHUP	771	n/a	n/a	0	0	0
2095027	REC_WORD	wordpools/wasnorm_wordpool_576.txt	LTP278	ltpFR2	3	9	ARMY	39	n/a	n/a	0	0	0
2112637	REC_WORD	wordpools/wasnorm_wordpool_576.txt	LTP278	ltpFR2	3	9	ROBOT	1200	n/a	n/a	0	0	0
2113863	REC_WORD	wordpools/wasnorm_wordpool_576.txt	LTP278	ltpFR2	3	9	RAZOR	1171	n/a	n/a	0	0	0
2158809	WORD	wordpools/wasnorm_wordpool_576.txt	LTP278	ltpFR2	3	10	QUEEN	1149	n/a	n/a	0	0	0
2161470	WORD	wordpools/wasnorm_wordpool_576.txt	LTP278	ltpFR2	3	10	CROWN	415	n/a	n/a	0	0	0
2164209	WORD	wordpools/wasnorm_wordpool_576.txt	LTP278	ltpFR2	3	10	TRUCK	1512	n/a	n/a	0	0	0
2166772	WORD	wordpools/wasnorm_wordpool_576.txt	LTP278	ltpFR2	3	10	PENGUIN	1044	n/a	n/a	0	0	0
2169383	WORD	wordpools/wasnorm_wordpool_576.txt	LTP278	ltpFR2	3	10	BLUEPRINT	142	n/a	n/a	0	0	0
2172177	WORD	wordpools/wasnorm_wordpool_576.txt	LTP278	ltpFR2	3	10	GRAVEL	659	n/a	n/a	0	0	0
2174886	WORD	wordpools/wasnorm_wordpool_576.txt	LTP278	ltpFR2	3	10	BRAKE	166	n/a	n/a	0	0	0
2177463	WORD	wordpools/wasnorm_wordpool_576.txt	LTP278	ltpFR2	3	10	BRACES	164	n/a	n/a	0	0	0
2180072	WORD	wordpools/wasnorm_wordpool_576.txt	LTP278	ltpFR2	3	10	ITEM	746	n/a	n/a	0	0	0
2182549	WORD	wordpools/wasnorm_wordpool_576.txt	LTP278	ltpFR2	3	10	CRITIC	410	n/a	n/a	0	0	0
2185092	WORD	wordpools/wasnorm_wordpool_576.txt	LTP278	ltpFR2	3	10	LIPSTICK	829	n/a	n/a	0	0	0
2187734	WORD	wordpools/wasnorm_wordpool_576.txt	LTP278	ltpFR2	3	10	RADISH	1158	n/a	n/a	0	0	0
2190161	WORD	wordpools/wasnorm_wordpool_576.txt	LTP278	ltpFR2	3	10	FEMALE	559	n/a	n/a	0	0	0
2192854	WORD	wordpools/wasnorm_wordpool_576.txt	LTP278	ltpFR2	3	10	KNIFE	785	n/a	n/a	0	0	0
2195515	WORD	wordpools/wasnorm_wordpool_576.txt	LTP278	ltpFR2	3	10	HATCHET	691	n/a	n/a	0	0	0
2198187	WORD	wordpools/wasnorm_wordpool_576.txt	LTP278	ltpFR2	3	10	GYMNAST	675	n/a	n/a	0	0	0
2200628	WORD	wordpools/wasnorm_wordpool_576.txt	LTP278	ltpFR2	3	10	TEMPLE	1448	n/a	n/a	0	0	0
2203428	WORD	wordpools/wasnorm_wordpool_576.txt	LTP278	ltpFR2	3	10	SALMON	1227	n/a	n/a	0	0	0
2206020	WORD	wordpools/wasnorm_wordpool_576.txt	LTP278	ltpFR2	3	10	SCARF	1246	n/a	n/a	0	0	0
2208646	WORD	wordpools/wasnorm_wordpool_576.txt	LTP278	ltpFR2	3	10	GAZELLE	628	n/a	n/a	0	0	0
2211107	WORD	wordpools/wasnorm_wordpool_576.txt	LTP278	ltpFR2	3	10	MOTOR	922	n/a	n/a	0	0	0
2213612	WORD	wordpools/wasnorm_wordpool_576.txt	LTP278	ltpFR2	3	10	COMPASS	358	n/a	n/a	0	0	0
2216126	WORD	wordpools/wasnorm_wordpool_576.txt	LTP278	ltpFR2	3	10	SPHINX	1349	n/a	n/a	0	0	0
2218617	WORD	wordpools/wasnorm_wordpool_576.txt	LTP278	ltpFR2	3	10	LAVA	804	n/a	n/a	0	0	0
2220225	START	n/a	LTP278	ltpFR2	3	n/a	n/a	n/a	13	n/a	n/a	n/a	n/a
2221388	DISTRACTOR	n/a	LTP278	ltpFR2	3	10	n/a	n/a	n/a	n/a	0	0	0
2221396	PROB	n/a	LTP278	ltpFR2	3	n/a	n/a	n/a	13	11	2	5	4
2223001	PROB	n/a	LTP278	ltpFR2	3	n/a	n/a	n/a	13	14	2	7	5
2225020	PROB	n/a	LTP278	ltpFR2	3	n/a	n/a	n/a	13	6	1	4	1
2227280	PROB	n/a	LTP278	ltpFR2	3	n/a	n/a	n/a	13	16	9	2	5
2229488	PROB	n/a	LTP278	ltpFR2	3	n/a	n/a	n/a	13	10	6	2	2
2230909	PROB	n/a	LTP278	ltpFR2	3	n/a	n/a	n/a	13	10	5	3	2
2232632	PROB	n/a	LTP278	ltpFR2	3	n/a	n/a	n/a	13	10	1	1	8
2233925	PROB	n/a	LTP278	ltpFR2	3	n/a	n/a	n/a	13	11	2	7	2
2235344	PROB	n/a	LTP278	ltpFR2	3	n/a	n/a	n/a	13	14	7	5	2
2237802	PROB	n/a	LTP278	ltpFR2	3	n/a	n/a	n/a	13	13	2	4	7
2240985	PROB	n/a	LTP278	ltpFR2	3	n/a	n/a	n/a	13	11	2	4	5
2243141	STOP	n/a	LTP278	ltpFR2	3	n/a	n/a	n/a	13	n/a	n/a	n/a	n/a
2246106	REC_START	n/a	LTP278	ltpFR2	3	10	n/a	n/a	n/a	n/a	0	0	0
2246418	REC_WORD	wordpools/wasnorm_wordpool_576.txt	LTP278	ltpFR2	3	10	QUEEN	1149	n/a	n/a	0	0	0
2247402	REC_WORD	wordpools/wasnorm_wordpool_576.txt	LTP278	ltpFR2	3	10	CROWN	415	n/a	n/a	0	0	0
2248476	REC_WORD	wordpools/wasnorm_wordpool_576.txt	LTP278	ltpFR2	3	10	PENGUIN	1044	n/a	n/a	0	0	0
2250459	REC_WORD	wordpools/wasnorm_wordpool_576.txt	LTP278	ltpFR2	3	10	SPHINX	1349	n/a	n/a	0	0	0
2258704	REC_WORD	wordpools/wasnorm_wordpool_576.txt	LTP278	ltpFR2	3	10	BRACES	164	n/a	n/a	0	0	0
2260234	REC_WORD	wordpools/wasnorm_wordpool_576.txt	LTP278	ltpFR2	3	10	FEMALE	559	n/a	n/a	0	0	0
2261614	REC_WORD	wordpools/wasnorm_wordpool_576.txt	LTP278	ltpFR2	3	10	LIPSTICK	829	n/a	n/a	0	0	0
2270049	REC_WORD	wordpools/wasnorm_wordpool_576.txt	LTP278	ltpFR2	3	10	TRUCK	1512	n/a	n/a	0	0	0
2271173	REC_WORD	wordpools/wasnorm_wordpool_576.txt	LTP278	ltpFR2	3	10	GRAVEL	659	n/a	n/a	0	0	0
2274591	REC_WORD	wordpools/wasnorm_wordpool_576.txt	LTP278	ltpFR2	3	10	BRAKE	166	n/a	n/a	0	0	0
2346867	WORD	wordpools/wasnorm_wordpool_576.txt	LTP278	ltpFR2	3	11	VIKING	1565	n/a	n/a	0	0	0
2349294	WORD	wordpools/wasnorm_wordpool_576.txt	LTP278	ltpFR2	3	11	XEROX	1628	n/a	n/a	0	0	0
2351970	WORD	wordpools/wasnorm_wordpool_576.txt	LTP278	ltpFR2	3	11	STONE	1385	n/a	n/a	0	0	0
2354597	WORD	wordpools/wasnorm_wordpool_576.txt	LTP278	ltpFR2	3	11	QUARTER	1148	n/a	n/a	0	0	0
2357124	WORD	wordpools/wasnorm_wordpool_576.txt	LTP278	ltpFR2	3	11	CELLAR	267	n/a	n/a	0	0	0
2359632	WORD	wordpools/wasnorm_wordpool_576.txt	LTP278	ltpFR2	3	11	SNACK	1331	n/a	n/a	0	0	0
2362293	WORD	wordpools/wasnorm_wordpool_576.txt	LTP278	ltpFR2	3	11	TURNIP	1521	n/a	n/a	0	0	0
2364881	WORD	wordpools/wasnorm_wordpool_576.txt	LTP278	ltpFR2	3	11	GHETTO	633	n/a	n/a	0	0	0
2367580	WORD	wordpools/wasnorm_wordpool_576.txt	LTP278	ltpFR2	3	11	LASER	801	n/a	n/a	0	0	0
2370017	WORD	wordpools/wasnorm_wordpool_576.txt	LTP278	ltpFR2	3	11	PEBBLE	1035	n/a	n/a	0	0	0
2372815	WORD	wordpools/wasnorm_wordpool_576.txt	LTP278	ltpFR2	3	11	BASEMENT	94	n/a	n/a	0	0	0
2375338	WORD	wordpools/wasnorm_wordpool_576.txt	LTP278	ltpFR2	3	11	LIZARD	834	n/a	n/a	0	0	0
2377968	WORD	wordpools/wasnorm_wordpool_576.txt	LTP278	ltpFR2	3	11	TOMBSTONE	1478	n/a	n/a	0	0	0
2380645	WORD	wordpools/wasnorm_wordpool_576.txt	LTP278	ltpFR2	3	11	COUSIN	392	n/a	n/a	0	0	0
2383402	WORD	wordpools/wasnorm_wordpool_576.txt	LTP278	ltpFR2	3	11	ROD	1203	n/a	n/a	0	0	0
2385965	WORD	wordpools/wasnorm_wordpool_576.txt	LTP278	ltpFR2	3	11	CARRIAGE	248	n/a	n/a	0	0	0
2388637	WORD	wordpools/wasnorm_wordpool_576.txt	LTP278	ltpFR2	3	11	SUBWAY	1400	n/a	n/a	0	0	0
2391169	WORD	wordpools/wasnorm_wordpool_576.txt	LTP278	ltpFR2	3	11	SPOUSE	1358	n/a	n/a	0	0	0
2393811	WORD	wordpools/wasnorm_wordpool_576.txt	LTP278	ltpFR2	3	11	WIFE	1609	n/a	n/a	0	0	0
2396522	WORD	wordpools/wasnorm_wordpool_576.txt	LTP278	ltpFR2	3	11	CANYON	235	n/a	n/a	0	0	0
2399149	WORD	wordpools/wasnorm_wordpool_576.txt	LTP278	ltpFR2	3	11	TAXI	1438	n/a	n/a	0	0	0
2401758	WORD	wordpools/wasnorm_wordpool_576.txt	LTP278	ltpFR2	3	11	BUGGY	188	n/a	n/a	0	0	0
2404397	WORD	wordpools/wasnorm_wordpool_576.txt	LTP278	ltpFR2	3	11	HAMPER	682	n/a	n/a	0	0	0
2407162	WORD	wordpools/wasnorm_wordpool_576.txt	LTP278	ltpFR2	3	11	TOURIST	1488	n/a	n/a	0	0	0
2408768	START	n/a	LTP278	ltpFR2	3	n/a	n/a	n/a	14	n/a	n/a	n/a	n/a
2409745	DISTRACTOR	n/a	LTP278	ltpFR2	3	11	n/a	n/a	n/a	n/a	0	0	0
2409754	PROB	n/a	LTP278	ltpFR2	3	n/a	n/a	n/a	14	8	5	1	2
2412782	PROB	n/a	LTP278	ltpFR2	3	n/a	n/a	n/a	14	17	3	5	9
2414802	PROB	n/a	LTP278	ltpFR2	3	n/a	n/a	n/a	14	21	3	9	9
2416426	PROB	n/a	LTP278	ltpFR2	3	n/a	n/a	n/a	14	14	9	1	4
2418333	PROB	n/a	LTP278	ltpFR2	3	n/a	n/a	n/a	14	10	6	3	1
2420005	PROB	n/a	LTP278	ltpFR2	3	n/a	n/a	n/a	14	17	9	5	3
2421695	PROB	n/a	LTP278	ltpFR2	3	n/a	n/a	n/a	14	15	9	5	1
2423536	PROB	n/a	LTP278	ltpFR2	3	n/a	n/a	n/a	14	6	2	2	2
2424673	PROB	n/a	LTP278	ltpFR2	3	n/a	n/a	n/a	14	21	7	6	8
2426614	PROB	n/a	LTP278	ltpFR2	3	n/a	n/a	n/a	14	11	5	1	5
2427768	PROB	n/a	LTP278	ltpFR2	3	n/a	n/a	n/a	14	20	9	9	2
2429375	PROB	n/a	LTP278	ltpFR2	3	n/a	n/a	n/a	14	4	1	2	1
2430479	PROB	n/a	LTP278	ltpFR2	3	n/a	n/a	n/a	14	19	7	3	9
2431876	STOP	n/a	LTP278	ltpFR2	3	n/a	n/a	n/a	14	n/a	n/a	n/a	n/a
2434579	REC_START	n/a	LTP278	ltpFR2	3	11	n/a	n/a	n/a	n/a	0	0	0
2445895	REC_WORD	wordpools/wasnorm_wordpool_576.txt	LTP278	ltpFR2	3	11	VIKING	1565	n/a	n/a	0	0	0
2476211	REC_WORD	wordpools/wasnorm_wordpool_576.txt	LTP278	ltpFR2	3	11	XEROX	1628	n/a	n/a	0	0	0
2525609	DISTRACTOR	n/a	LTP278	ltpFR2	3	12	n/a	n/a	n/a	n/a	0	0	0
2525609	START	n/a	LTP278	ltpFR2	3	n/a	n/a	n/a	15	n/a	n/a	n/a	n/a
2525658	PROB	n/a	LTP278	ltpFR2	3	n/a	n/a	n/a	15	25	9	8	8
2527265	PROB	n/a	LTP278	ltpFR2	3	n/a	n/a	n/a	15	16	4	5	7
2529037	PROB	n/a	LTP278	ltpFR2	3	n/a	n/a	n/a	15	24	7	8	9
2531242	PROB	n/a	LTP278	ltpFR2	3	n/a	n/a	n/a	15	16	2	5	9
2533467	PROB	n/a	LTP278	ltpFR2	3	n/a	n/a	n/a	15	14	7	5	2
2535128	PROB	n/a	LTP278	ltpFR2	3	n/a	n/a	n/a	15	13	7	4	2
2536934	PROB	n/a	LTP278	ltpFR2	3	n/a	n/a	n/a	15	17	4	6	7
2539008	PROB	n/a	LTP278	ltpFR2	3	n/a	n/a	n/a	15	24	8	9	7
2541630	PROB	n/a	LTP278	ltpFR2	3	n/a	n/a	n/a	15	20	6	7	7
2543338	PROB	n/a	LTP278	ltpFR2	3	n/a	n/a	n/a	15	10	5	1	4
2544609	PROB	n/a	LTP278	ltpFR2	3	n/a	n/a	n/a	15	1	1	3	6
2545662	PROB	n/a	LTP278	ltpFR2	3	n/a	n/a	n/a	15	21	4	9	8
2548093	STOP	n/a	LTP278	ltpFR2	3	n/a	n/a	n/a	15	n/a	n/a	n/a	n/a
2550603	WORD	wordpools/wasnorm_wordpool_576.txt	LTP278	ltpFR2	3	12	BINDER	127	n/a	n/a	0	0	0
2553208	WORD	wordpools/wasnorm_wordpool_576.txt	LTP278	ltpFR2	3	12	ULCER	1533	n/a	n/a	0	0	0
2555734	WORD	wordpools/wasnorm_wordpool_576.txt	LTP278	ltpFR2	3	12	STOMACH	1384	n/a	n/a	0	0	0
2558378	WORD	wordpools/wasnorm_wordpool_576.txt	LTP278	ltpFR2	3	12	UMPIRE	1535	n/a	n/a	0	0	0
2561126	WORD	wordpools/wasnorm_wordpool_576.txt	LTP278	ltpFR2	3	12	STAKE	1368	n/a	n/a	0	0	0
2563869	WORD	wordpools/wasnorm_wordpool_576.txt	LTP278	ltpFR2	3	12	COOK	372	n/a	n/a	0	0	0
2566391	WORD	wordpools/wasnorm_wordpool_576.txt	LTP278	ltpFR2	3	12	KITCHEN	778	n/a	n/a	0	0	0
2569206	WORD	wordpools/wasnorm_wordpool_576.txt	LTP278	ltpFR2	3	12	HERO	706	n/a	n/a	0	0	0
2571894	WORD	wordpools/wasnorm_wordpool_576.txt	LTP278	ltpFR2	3	12	LILY	821	n/a	n/a	0	0	0
2574326	WORD	wordpools/wasnorm_wordpool_576.txt	LTP278	ltpFR2	3	12	HEART	697	n/a	n/a	0	0	0
2576918	WORD	wordpools/wasnorm_wordpool_576.txt	LTP278	ltpFR2	3	12	THREAD	1460	n/a	n/a	0	0	0
2579591	WORD	wordpools/wasnorm_wordpool_576.txt	LTP278	ltpFR2	3	12	RATTLE	1170	n/a	n/a	0	0	0
2582251	WORD	wordpools/wasnorm_wordpool_576.txt	LTP278	ltpFR2	3	12	SKETCH	1315	n/a	n/a	0	0	0
2584965	WORD	wordpools/wasnorm_wordpool_576.txt	LTP278	ltpFR2	3	12	PAPER	1011	n/a	n/a	0	0	0
2587759	WORD	wordpools/wasnorm_wordpool_576.txt	LTP278	ltpFR2	3	12	COLLEGE	346	n/a	n/a	0	0	0
2590453	WORD	wordpools/wasnorm_wordpool_576.txt	LTP278	ltpFR2	3	12	UNCLE	1536	n/a	n/a	0	0	0
2593247	WORD	wordpools/wasnorm_wordpool_576.txt	LTP278	ltpFR2	3	12	TURKEY	1520	n/a	n/a	0	0	0
2595968	WORD	wordpools/wasnorm_wordpool_576.txt	LTP278	ltpFR2	3	12	ANTLER	29	n/a	n/a	0	0	0
2598746	WORD	wordpools/wasnorm_wordpool_576.txt	LTP278	ltpFR2	3	12	CHAUFFEUR	283	n/a	n/a	0	0	0
2601344	WORD	wordpools/wasnorm_wordpool_576.txt	LTP278	ltpFR2	3	12	OUTDOORS	987	n/a	n/a	0	0	0
2604100	WORD	wordpools/wasnorm_wordpool_576.txt	LTP278	ltpFR2	3	12	DRAWING	494	n/a	n/a	0	0	0
2606843	WORD	wordpools/wasnorm_wordpool_576.txt	LTP278	ltpFR2	3	12	CHILD	299	n/a	n/a	0	0	0
2609274	WORD	wordpools/wasnorm_wordpool_576.txt	LTP278	ltpFR2	3	12	BODY	145	n/a	n/a	0	0	0
2612085	WORD	wordpools/wasnorm_wordpool_576.txt	LTP278	ltpFR2	3	12	PARENT	1013	n/a	n/a	0	0	0
2613702	START	n/a	LTP278	ltpFR2	3	n/a	n/a	n/a	16	n/a	n/a	n/a	n/a
2614819	DISTRACTOR	n/a	LTP278	ltpFR2	3	12	n/a	n/a	n/a	n/a	0	0	0
2614827	PROB	n/a	LTP278	ltpFR2	3	n/a	n/a	n/a	16	15	6	6	3
2619039	PROB	n/a	LTP278	ltpFR2	3	n/a	n/a	n/a	16	15	5	3	7
2620583	PROB	n/a	LTP278	ltpFR2	3	n/a	n/a	n/a	16	13	2	5	6
2622302	PROB	n/a	LTP278	ltpFR2	3	n/a	n/a	n/a	16	18	7	4	7
2623840	PROB	n/a	LTP278	ltpFR2	3	n/a	n/a	n/a	16	10	2	3	5
2625096	PROB	n/a	LTP278	ltpFR2	3	n/a	n/a	n/a	16	19	6	9	4
2626902	PROB	n/a	LTP278	ltpFR2	3	n/a	n/a	n/a	16	17	5	9	3
2629195	PROB	n/a	LTP278	ltpFR2	3	n/a	n/a	n/a	16	9	2	4	3
2632194	PROB	n/a	LTP278	ltpFR2	3	n/a	n/a	n/a	16	12	4	3	5
2635251	PROB	n/a	LTP278	ltpFR2	3	n/a	n/a	n/a	16	12	4	3	5
2636173	STOP	n/a	LTP278	ltpFR2	3	n/a	n/a	n/a	16	n/a	n/a	n/a	n/a
2639489	REC_START	n/a	LTP278	ltpFR2	3	12	n/a	n/a	n/a	n/a	0	0	0
2652650	REC_WORD	wordpools/wasnorm_wordpool_576.txt	LTP278	ltpFR2	3	12	ULCER	1533	n/a	n/a	0	0	0
2654068	REC_WORD	wordpools/wasnorm_wordpool_576.txt	LTP278	ltpFR2	3	12	STOMACH	1384	n/a	n/a	0	0	0
2656028	REC_WORD	wordpools/wasnorm_wordpool_576.txt	LTP278	ltpFR2	3	12	CHAUFFEUR	283	n/a	n/a	0	0	0
2661453	REC_WORD	wordpools/wasnorm_wordpool_576.txt	LTP278	ltpFR2	3	12	UMPIRE	1535	n/a	n/a	0	0	0
2666049	REC_WORD	wordpools/wasnorm_wordpool_576.txt	LTP278	ltpFR2	3	12	STAKE	1368	n/a	n/a	0	0	0
2730498	DISTRACTOR	n/a	LTP278	ltpFR2	3	13	n/a	n/a	n/a	n/a	0	0	0
2730498	START	n/a	LTP278	ltpFR2	3	n/a	n/a	n/a	17	n/a	n/a	n/a	n/a
2730548	PROB	n/a	LTP278	ltpFR2	3	n/a	n/a	n/a	17	11	6	1	4
2731885	PROB	n/a	LTP278	ltpFR2	3	n/a	n/a	n/a	17	23	9	6	8
2735311	PROB	n/a	LTP278	ltpFR2	3	n/a	n/a	n/a	17	13	7	1	5
2737000	PROB	n/a	LTP278	ltpFR2	3	n/a	n/a	n/a	17	20	8	4	8
2739126	PROB	n/a	LTP278	ltpFR2	3	n/a	n/a	n/a	17	13	4	8	1
2742655	PROB	n/a	LTP278	ltpFR2	3	n/a	n/a	n/a	17	10	2	4	4
2744145	PROB	n/a	LTP278	ltpFR2	3	n/a	n/a	n/a	17	16	1	9	6
2745504	PROB	n/a	LTP278	ltpFR2	3	n/a	n/a	n/a	17	19	8	5	6
2747562	PROB	n/a	LTP278	ltpFR2	3	n/a	n/a	n/a	17	18	7	6	5
2750032	PROB	n/a	LTP278	ltpFR2	3	n/a	n/a	n/a	17	13	1	4	9
2754498	STOP	n/a	LTP278	ltpFR2	3	n/a	n/a	n/a	17	n/a	n/a	n/a	n/a
2755641	WORD	wordpools/wasnorm_wordpool_576.txt	LTP278	ltpFR2	3	13	COUNTRY	388	n/a	n/a	0	0	0
2758369	WORD	wordpools/wasnorm_wordpool_576.txt	LTP278	ltpFR2	3	13	DRINK	498	n/a	n/a	0	0	0
2760811	WORD	wordpools/wasnorm_wordpool_576.txt	LTP278	ltpFR2	3	13	NIGHTGOWN	953	n/a	n/a	0	0	0
2763288	WORD	wordpools/wasnorm_wordpool_576.txt	LTP278	ltpFR2	3	13	JAPAN	749	n/a	n/a	0	0	0
2765880	WORD	wordpools/wasnorm_wordpool_576.txt	LTP278	ltpFR2	3	13	BLOCKADE	137	n/a	n/a	0	0	0
2768624	WORD	wordpools/wasnorm_wordpool_576.txt	LTP278	ltpFR2	3	13	SCALLOP	1242	n/a	n/a	0	0	0
2771066	WORD	wordpools/wasnorm_wordpool_576.txt	LTP278	ltpFR2	3	13	PERCH	1048	n/a	n/a	0	0	0
2773877	WORD	wordpools/wasnorm_wordpool_576.txt	LTP278	ltpFR2	3	13	COD	340	n/a	n/a	0	0	0
2776454	WORD	wordpools/wasnorm_wordpool_576.txt	LTP278	ltpFR2	3	13	SWIMMER	1420	n/a	n/a	0	0	0
2778896	WORD	wordpools/wasnorm_wordpool_576.txt	LTP278	ltpFR2	3	13	TUTU	1524	n/a	n/a	0	0	0
2781557	WORD	wordpools/wasnorm_wordpool_576.txt	LTP278	ltpFR2	3	13	WIDOW	1608	n/a	n/a	0	0	0
2784015	WORD	wordpools/wasnorm_wordpool_576.txt	LTP278	ltpFR2	3	13	FINGER	567	n/a	n/a	0	0	0
2786442	WORD	wordpools/wasnorm_wordpool_576.txt	LTP278	ltpFR2	3	13	GLOVE	642	n/a	n/a	0	0	0
2789219	WORD	wordpools/wasnorm_wordpool_576.txt	LTP278	ltpFR2	3	13	SNAKE	1333	n/a	n/a	0	0	0
2791756	WORD	wordpools/wasnorm_wordpool_576.txt	LTP278	ltpFR2	3	13	PUDDLE	1140	n/a	n/a	0	0	0
2794322	WORD	wordpools/wasnorm_wordpool_576.txt	LTP278	ltpFR2	3	13	BATHTUB	100	n/a	n/a	0	0	0
2796947	WORD	wordpools/wasnorm_wordpool_576.txt	LTP278	ltpFR2	3	13	LONDON	843	n/a	n/a	0	0	0
2799758	WORD	wordpools/wasnorm_wordpool_576.txt	LTP278	ltpFR2	3	13	MATTRESS	879	n/a	n/a	0	0	0
2802402	WORD	wordpools/wasnorm_wordpool_576.txt	LTP278	ltpFR2	3	13	COOKBOOK	373	n/a	n/a	0	0	0
2805196	WORD	wordpools/wasnorm_wordpool_576.txt	LTP278	ltpFR2	3	13	ASIA	46	n/a	n/a	0	0	0
2807905	WORD	wordpools/wasnorm_wordpool_576.txt	LTP278	ltpFR2	3	13	ZEBRA	1635	n/a	n/a	0	0	0
2810332	WORD	wordpools/wasnorm_wordpool_576.txt	LTP278	ltpFR2	3	13	BEAVER	109	n/a	n/a	0	0	0
2813121	WORD	wordpools/wasnorm_wordpool_576.txt	LTP278	ltpFR2	3	13	BACON	67	n/a	n/a	0	0	0
2815730	WORD	wordpools/wasnorm_wordpool_576.txt	LTP278	ltpFR2	3	13	CANDY	230	n/a	n/a	0	0	0
2817342	START	n/a	LTP278	ltpFR2	3	n/a	n/a	n/a	18	n/a	n/a	n/a	n/a
2818470	DISTRACTOR	n/a	LTP278	ltpFR2	3	13	n/a	n/a	n/a	n/a	0	0	0
2818479	PROB	n/a	LTP278	ltpFR2	3	n/a	n/a	n/a	18	19	8	7	4
2821285	PROB	n/a	LTP278	ltpFR2	3	n/a	n/a	n/a	18	21	1	8	9
2824263	PROB	n/a	LTP278	ltpFR2	3	n/a	n/a	n/a	18	13	5	1	7
2825918	PROB	n/a	LTP278	ltpFR2	3	n/a	n/a	n/a	18	11	4	1	6
2827625	PROB	n/a	LTP278	ltpFR2	3	n/a	n/a	n/a	18	15	5	1	9
2830307	PROB	n/a	LTP278	ltpFR2	3	n/a	n/a	n/a	18	23	6	8	9
2832260	PROB	n/a	LTP278	ltpFR2	3	n/a	n/a	n/a	18	24	6	9	9
2836175	PROB	n/a	LTP278	ltpFR2	3	n/a	n/a	n/a	18	13	7	3	3
2837797	PROB	n/a	LTP278	ltpFR2	3	n/a	n/a	n/a	18	10	8	1	1
2838968	PROB	n/a	LTP278	ltpFR2	3	n/a	n/a	n/a	18	22	8	9	5
2841004	STOP	n/a	LTP278	ltpFR2	3	n/a	n/a	n/a	18	n/a	n/a	n/a	n/a
2843269	REC_START	n/a	LTP278	ltpFR2	3	13	n/a	n/a	n/a	n/a	0	0	0
2857808	REC_WORD	wordpools/wasnorm_wordpool_576.txt	LTP278	ltpFR2	3	13	JAPAN	749	n/a	n/a	0	0	0
2858618	REC_WORD	wordpools/wasnorm_wordpool_576.txt	LTP278	ltpFR2	3	13	SCALLOP	1242	n/a	n/a	0	0	0
2859429	REC_WORD	wordpools/wasnorm_wordpool_576.txt	LTP278	ltpFR2	3	13	COD	340	n/a	n/a	0	0	0
2860772	REC_WORD	wordpools/wasnorm_wordpool_576.txt	LTP278	ltpFR2	3	13	NIGHTGOWN	953	n/a	n/a	0	0	0
2861675	REC_WORD	wordpools/wasnorm_wordpool_576.txt	LTP278	ltpFR2	3	13	COUNTRY	388	n/a	n/a	0	0	0
2862757	REC_WORD	wordpools/wasnorm_wordpool_576.txt	LTP278	ltpFR2	3	13	DRINK	498	n/a	n/a	0	0	0
2865373	REC_WORD	wordpools/wasnorm_wordpool_576.txt	LTP278	ltpFR2	3	13	SWIMMER	1420	n/a	n/a	0	0	0
2867330	REC_WORD	wordpools/wasnorm_wordpool_576.txt	LTP278	ltpFR2	3	13	BLOCKADE	137	n/a	n/a	0	0	0
2870862	REC_WORD	wordpools/wasnorm_wordpool_576.txt	LTP278	ltpFR2	3	13	TUTU	1524	n/a	n/a	0	0	0
2963023	DISTRACTOR	n/a	LTP278	ltpFR2	3	14	n/a	n/a	n/a	n/a	0	0	0
2963023	START	n/a	LTP278	ltpFR2	3	n/a	n/a	n/a	19	n/a	n/a	n/a	n/a
2963073	PROB	n/a	LTP278	ltpFR2	3	n/a	n/a	n/a	19	14	7	1	6
2964842	PROB	n/a	LTP278	ltpFR2	3	n/a	n/a	n/a	19	18	3	6	9
2966303	PROB	n/a	LTP278	ltpFR2	3	n/a	n/a	n/a	19	9	4	4	1
2968457	PROB	n/a	LTP278	ltpFR2	3	n/a	n/a	n/a	19	15	2	9	4
2971015	PROB	n/a	LTP278	ltpFR2	3	n/a	n/a	n/a	19	13	7	2	4
2972672	PROB	n/a	LTP278	ltpFR2	3	n/a	n/a	n/a	19	13	5	5	3
2973809	PROB	n/a	LTP278	ltpFR2	3	n/a	n/a	n/a	19	10	7	2	1
2975149	PROB	n/a	LTP278	ltpFR2	3	n/a	n/a	n/a	19	13	4	2	7
2977089	PROB	n/a	LTP278	ltpFR2	3	n/a	n/a	n/a	19	15	2	5	8
2978465	PROB	n/a	LTP278	ltpFR2	3	n/a	n/a	n/a	19	16	3	6	7
2981410	PROB	n/a	LTP278	ltpFR2	3	n/a	n/a	n/a	19	9	5	1	2
2983167	PROB	n/a	LTP278	ltpFR2	3	n/a	n/a	n/a	19	16	9	1	6
2986093	STOP	n/a	LTP278	ltpFR2	3	n/a	n/a	n/a	19	n/a	n/a	n/a	n/a
2987929	WORD	wordpools/wasnorm_wordpool_576.txt	LTP278	ltpFR2	3	14	WASHER	1592	n/a	n/a	0	0	0
2990656	WORD	wordpools/wasnorm_wordpool_576.txt	LTP278	ltpFR2	3	14	FIDDLE	561	n/a	n/a	0	0	0
2993338	WORD	wordpools/wasnorm_wordpool_576.txt	LTP278	ltpFR2	3	14	GARDEN	623	n/a	n/a	0	0	0
2996026	WORD	wordpools/wasnorm_wordpool_576.txt	LTP278	ltpFR2	3	14	STALLION	1369	n/a	n/a	0	0	0
2998474	WORD	wordpools/wasnorm_wordpool_576.txt	LTP278	ltpFR2	3	14	PERMIT	1051	n/a	n/a	0	0	0
3001134	WORD	wordpools/wasnorm_wordpool_576.txt	LTP278	ltpFR2	3	14	SURVEY	1414	n/a	n/a	0	0	0
3003810	WORD	wordpools/wasnorm_wordpool_576.txt	LTP278	ltpFR2	3	14	HOOK	715	n/a	n/a	0	0	0
3006521	WORD	wordpools/wasnorm_wordpool_576.txt	LTP278	ltpFR2	3	14	FLIPPER	580	n/a	n/a	0	0	0
3009298	WORD	wordpools/wasnorm_wordpool_576.txt	LTP278	ltpFR2	3	14	SCULPTURE	1258	n/a	n/a	0	0	0
3011924	WORD	wordpools/wasnorm_wordpool_576.txt	LTP278	ltpFR2	3	14	TUBA	1515	n/a	n/a	0	0	0
3014430	WORD	wordpools/wasnorm_wordpool_576.txt	LTP278	ltpFR2	3	14	HIGHWAY	707	n/a	n/a	0	0	0
3016871	WORD	wordpools/wasnorm_wordpool_576.txt	LTP278	ltpFR2	3	14	COURSE	390	n/a	n/a	0	0	0
3019386	WORD	wordpools/wasnorm_wordpool_576.txt	LTP278	ltpFR2	3	14	IDOL	733	n/a	n/a	0	0	0
3021928	WORD	wordpools/wasnorm_wordpool_576.txt	LTP278	ltpFR2	3	14	GUITAR	670	n/a	n/a	0	0	0
3024689	WORD	wordpools/wasnorm_wordpool_576.txt	LTP278	ltpFR2	3	14	EUROPE	541	n/a	n/a	0	0	0
3027249	WORD	wordpools/wasnorm_wordpool_576.txt	LTP278	ltpFR2	3	14	CHEST	295	n/a	n/a	0	0	0
3029837	WORD	wordpools/wasnorm_wordpool_576.txt	LTP278	ltpFR2	3	14	MOP	916	n/a	n/a	0	0	0
3032553	WORD	wordpools/wasnorm_wordpool_576.txt	LTP278	ltpFR2	3	14	KIDNEY	776	n/a	n/a	0	0	0
3035246	WORD	wordpools/wasnorm_wordpool_576.txt	LTP278	ltpFR2	3	14	MAMMAL	861	n/a	n/a	0	0	0
3038001	WORD	wordpools/wasnorm_wordpool_576.txt	LTP278	ltpFR2	3	14	SCOTCH	1251	n/a	n/a	0	0	0
3040432	WORD	wordpools/wasnorm_wordpool_576.txt	LTP278	ltpFR2	3	14	NECKLACE	940	n/a	n/a	0	0	0
3042953	WORD	wordpools/wasnorm_wordpool_576.txt	LTP278	ltpFR2	3	14	BROTHER	179	n/a	n/a	0	0	0
3045468	WORD	wordpools/wasnorm_wordpool_576.txt	LTP278	ltpFR2	3	14	CHAPEL	280	n/a	n/a	0	0	0
3047943	WORD	wordpools/wasnorm_wordpool_576.txt	LTP278	ltpFR2	3	14	FRIAR	605	n/a	n/a	0	0	0
3049550	START	n/a	LTP278	ltpFR2	3	n/a	n/a	n/a	20	n/a	n/a	n/a	n/a
3050385	DISTRACTOR	n/a	LTP278	ltpFR2	3	14	n/a	n/a	n/a	n/a	0	0	0
3050399	PROB	n/a	LTP278	ltpFR2	3	n/a	n/a	n/a	20	9	5	1	3
3051992	PROB	n/a	LTP278	ltpFR2	3	n/a	n/a	n/a	20	14	4	2	8
3053777	PROB	n/a	LTP278	ltpFR2	3	n/a	n/a	n/a	20	22	9	5	8
3057843	PROB	n/a	LTP278	ltpFR2	3	n/a	n/a	n/a	20	14	2	6	6
3059871	PROB	n/a	LTP278	ltpFR2	3	n/a	n/a	n/a	20	6	2	2	2
3061344	PROB	n/a	LTP278	ltpFR2	3	n/a	n/a	n/a	20	15	1	5	9
3062933	PROB	n/a	LTP278	ltpFR2	3	n/a	n/a	n/a	20	9	1	4	4
3064618	PROB	n/a	LTP278	ltpFR2	3	n/a	n/a	n/a	20	16	5	7	4
3066760	PROB	n/a	LTP278	ltpFR2	3	n/a	n/a	n/a	20	13	2	4	7
3068918	PROB	n/a	LTP278	ltpFR2	3	n/a	n/a	n/a	20	10	7	1	2
3070408	PROB	n/a	LTP278	ltpFR2	3	n/a	n/a	n/a	20	18	4	8	6
3072485	STOP	n/a	LTP278	ltpFR2	3	n/a	n/a	n/a	20	n/a	n/a	n/a	n/a
3075410	REC_START	n/a	LTP278	ltpFR2	3	14	n/a	n/a	n/a	n/a	0	0	0
3076366	REC_WORD	wordpools/wasnorm_wordpool_576.txt	LTP278	ltpFR2	3	14	BROTHER	179	n/a	n/a	0	0	0
3077164	REC_WORD	wordpools/wasnorm_wordpool_576.txt	LTP278	ltpFR2	3	14	FIDDLE	561	n/a	n/a	0	0	0
3078064	REC_WORD	wordpools/wasnorm_wordpool_576.txt	LTP278	ltpFR2	3	14	WASHER	1592	n/a	n/a	0	0	0
3079086	REC_WORD	wordpools/wasnorm_wordpool_576.txt	LTP278	ltpFR2	3	14	GARDEN	623	n/a	n/a	0	0	0
3079886	REC_WORD	wordpools/wasnorm_wordpool_576.txt	LTP278	ltpFR2	3	14	STALLION	1369	n/a	n/a	0	0	0
3099401	REC_WORD	wordpools/wasnorm_wordpool_576.txt	LTP278	ltpFR2	3	14	MOP	916	n/a	n/a	0	0	0
3166441	WORD	wordpools/wasnorm_wordpool_576.txt	LTP278	ltpFR2	3	15	LAKE	796	n/a	n/a	0	0	0
3169251	WORD	wordpools/wasnorm_wordpool_576.txt	LTP278	ltpFR2	3	15	CONTRACT	368	n/a	n/a	0	0	0
3171827	WORD	wordpools/wasnorm_wordpool_576.txt	LTP278	ltpFR2	3	15	SHOULDER	1294	n/a	n/a	0	0	0
3174454	WORD	wordpools/wasnorm_wordpool_576.txt	LTP278	ltpFR2	3	15	RIFLE	1192	n/a	n/a	0	0	0
3177177	WORD	wordpools/wasnorm_wordpool_576.txt	LTP278	ltpFR2	3	15	SKIRT	1319	n/a	n/a	0	0	0
3179907	WORD	wordpools/wasnorm_wordpool_576.txt	LTP278	ltpFR2	3	15	MARROW	872	n/a	n/a	0	0	0
3182463	WORD	wordpools/wasnorm_wordpool_576.txt	LTP278	ltpFR2	3	15	SHELTER	1282	n/a	n/a	0	0	0
3185211	WORD	wordpools/wasnorm_wordpool_576.txt	LTP278	ltpFR2	3	15	MISTER	901	n/a	n/a	0	0	0
3187987	WORD	wordpools/wasnorm_wordpool_576.txt	LTP278	ltpFR2	3	15	LION	827	n/a	n/a	0	0	0
3190631	WORD	wordpools/wasnorm_wordpool_576.txt	LTP278	ltpFR2	3	15	OINTMENT	974	n/a	n/a	0	0	0
3193091	WORD	wordpools/wasnorm_wordpool_576.txt	LTP278	ltpFR2	3	15	FLEET	578	n/a	n/a	0	0	0
3195633	WORD	wordpools/wasnorm_wordpool_576.txt	LTP278	ltpFR2	3	15	LAPEL	800	n/a	n/a	0	0	0
3198143	WORD	wordpools/wasnorm_wordpool_576.txt	LTP278	ltpFR2	3	15	TERMITE	1451	n/a	n/a	0	0	0
3200886	WORD	wordpools/wasnorm_wordpool_576.txt	LTP278	ltpFR2	3	15	PAIL	1002	n/a	n/a	0	0	0
3203397	WORD	wordpools/wasnorm_wordpool_576.txt	LTP278	ltpFR2	3	15	RIVER	1194	n/a	n/a	0	0	0
3205972	WORD	wordpools/wasnorm_wordpool_576.txt	LTP278	ltpFR2	3	15	HOSTESS	723	n/a	n/a	0	0	0
3208466	WORD	wordpools/wasnorm_wordpool_576.txt	LTP278	ltpFR2	3	15	TROUT	1511	n/a	n/a	0	0	0
3210941	WORD	wordpools/wasnorm_wordpool_576.txt	LTP278	ltpFR2	3	15	CRAB	397	n/a	n/a	0	0	0
3213367	WORD	wordpools/wasnorm_wordpool_576.txt	LTP278	ltpFR2	3	15	DAISY	435	n/a	n/a	0	0	0
3215909	WORD	wordpools/wasnorm_wordpool_576.txt	LTP278	ltpFR2	3	15	GARBAGE	622	n/a	n/a	0	0	0
3218453	WORD	wordpools/wasnorm_wordpool_576.txt	LTP278	ltpFR2	3	15	GRIZZLY	662	n/a	n/a	0	0	0
3221180	WORD	wordpools/wasnorm_wordpool_576.txt	LTP278	ltpFR2	3	15	SUPPER	1411	n/a	n/a	0	0	0
3223839	WORD	wordpools/wasnorm_wordpool_576.txt	LTP278	ltpFR2	3	15	CUSTARD	429	n/a	n/a	0	0	0
3226633	WORD	wordpools/wasnorm_wordpool_576.txt	LTP278	ltpFR2	3	15	SERVER	1272	n/a	n/a	0	0	0
3228240	START	n/a	LTP278	ltpFR2	3	n/a	n/a	n/a	21	n/a	n/a	n/a	n/a
3229314	DISTRACTOR	n/a	LTP278	ltpFR2	3	15	n/a	n/a	n/a	n/a	0	0	0
3229328	PROB	n/a	LTP278	ltpFR2	3	n/a	n/a	n/a	21	14	6	5	3
3231736	PROB	n/a	LTP278	ltpFR2	3	n/a	n/a	n/a	21	16	4	5	7
3234296	PROB	n/a	LTP278	ltpFR2	3	n/a	n/a	n/a	21	20	8	8	4
3236199	PROB	n/a	LTP278	ltpFR2	3	n/a	n/a	n/a	21	20	9	6	5
3238055	PROB	n/a	LTP278	ltpFR2	3	n/a	n/a	n/a	21	11	3	6	2
3239600	PROB	n/a	LTP278	ltpFR2	3	n/a	n/a	n/a	21	16	4	8	4
3241122	PROB	n/a	LTP278	ltpFR2	3	n/a	n/a	n/a	21	12	1	4	7
3242761	PROB	n/a	LTP278	ltpFR2	3	n/a	n/a	n/a	21	11	5	2	4
3244680	PROB	n/a	LTP278	ltpFR2	3	n/a	n/a	n/a	21	9	1	6	2
3246191	PROB	n/a	LTP278	ltpFR2	3	n/a	n/a	n/a	21	21	9	3	9
3247830	PROB	n/a	LTP278	ltpFR2	3	n/a	n/a	n/a	21	23	6	8	9
3249983	PROB	n/a	LTP278	ltpFR2	3	n/a	n/a	n/a	21	9	1	2	6
3251205	STOP	n/a	LTP278	ltpFR2	3	n/a	n/a	n/a	21	n/a	n/a	n/a	n/a
3254134	REC_START	n/a	LTP278	ltpFR2	3	15	n/a	n/a	n/a	n/a	0	0	0
3264156	REC_WORD	wordpools/wasnorm_wordpool_576.txt	LTP278	ltpFR2	3	15	LAKE	796	n/a	n/a	0	0	0
3265559	REC_WORD	wordpools/wasnorm_wordpool_576.txt	LTP278	ltpFR2	3	15	CONTRACT	368	n/a	n/a	0	0	0
3266869	REC_WORD	wordpools/wasnorm_wordpool_576.txt	LTP278	ltpFR2	3	15	SKIRT	1319	n/a	n/a	0	0	0
3267695	REC_WORD	wordpools/wasnorm_wordpool_576.txt	LTP278	ltpFR2	3	15	RIFLE	1192	n/a	n/a	0	0	0
3268317	REC_WORD	wordpools/wasnorm_wordpool_576.txt	LTP278	ltpFR2	3	15	SHOULDER	1294	n/a	n/a	0	0	0
3291266	REC_WORD	wordpools/wasnorm_wordpool_576.txt	LTP278	ltpFR2	3	15	GRIZZLY	662	n/a	n/a	0	0	0
3293248	REC_WORD	wordpools/wasnorm_wordpool_576.txt	LTP278	ltpFR2	3	15	SUPPER	1411	n/a	n/a	0	0	0
3320938	REC_WORD	wordpools/wasnorm_wordpool_576.txt	LTP278	ltpFR2	3	15	SECOND	-1	n/a	n/a	0	0	0
3345164	DISTRACTOR	n/a	LTP278	ltpFR2	3	16	n/a	n/a	n/a	n/a	0	0	0
3345164	START	n/a	LTP278	ltpFR2	3	n/a	n/a	n/a	22	n/a	n/a	n/a	n/a
3345214	PROB	n/a	LTP278	ltpFR2	3	n/a	n/a	n/a	22	11	3	4	4
3349409	PROB	n/a	LTP278	ltpFR2	3	n/a	n/a	n/a	22	13	7	4	2
3351984	PROB	n/a	LTP278	ltpFR2	3	n/a	n/a	n/a	22	12	9	2	1
3357025	PROB	n/a	LTP278	ltpFR2	3	n/a	n/a	n/a	22	9	1	6	2
3358314	PROB	n/a	LTP278	ltpFR2	3	n/a	n/a	n/a	22	24	7	9	8
3360935	PROB	n/a	LTP278	ltpFR2	3	n/a	n/a	n/a	22	11	1	5	5
3362039	PROB	n/a	LTP278	ltpFR2	3	n/a	n/a	n/a	22	8	1	6	1
3364248	PROB	n/a	LTP278	ltpFR2	3	n/a	n/a	n/a	22	12	5	3	4
3366807	PROB	n/a	LTP278	ltpFR2	3	n/a	n/a	n/a	22	17	2	7	8
3368764	STOP	n/a	LTP278	ltpFR2	3	n/a	n/a	n/a	22	n/a	n/a	n/a	n/a
3370053	WORD	wordpools/wasnorm_wordpool_576.txt	LTP278	ltpFR2	3	16	SADDLE	1221	n/a	n/a	0	0	0
3372813	WORD	wordpools/wasnorm_wordpool_576.txt	LTP278	ltpFR2	3	16	OX	994	n/a	n/a	0	0	0
3375273	WORD	wordpools/wasnorm_wordpool_576.txt	LTP278	ltpFR2	3	16	CONVICT	371	n/a	n/a	0	0	0
3378037	WORD	wordpools/wasnorm_wordpool_576.txt	LTP278	ltpFR2	3	16	QUAIL	1147	n/a	n/a	0	0	0
3380814	WORD	wordpools/wasnorm_wordpool_576.txt	LTP278	ltpFR2	3	16	FIREPLACE	570	n/a	n/a	0	0	0
3383576	WORD	wordpools/wasnorm_wordpool_576.txt	LTP278	ltpFR2	3	16	TYPIST	1532	n/a	n/a	0	0	0
3386169	WORD	wordpools/wasnorm_wordpool_576.txt	LTP278	ltpFR2	3	16	BURGLAR	200	n/a	n/a	0	0	0
3388895	WORD	wordpools/wasnorm_wordpool_576.txt	LTP278	ltpFR2	3	16	DANCER	437	n/a	n/a	0	0	0
3391417	WORD	wordpools/wasnorm_wordpool_576.txt	LTP278	ltpFR2	3	16	FLASK	576	n/a	n/a	0	0	0
3393964	WORD	wordpools/wasnorm_wordpool_576.txt	LTP278	ltpFR2	3	16	ACTRESS	6	n/a	n/a	0	0	0
3396758	WORD	wordpools/wasnorm_wordpool_576.txt	LTP278	ltpFR2	3	16	FOREHEAD	592	n/a	n/a	0	0	0
3399251	WORD	wordpools/wasnorm_wordpool_576.txt	LTP278	ltpFR2	3	16	OYSTER	995	n/a	n/a	0	0	0
3401710	WORD	wordpools/wasnorm_wordpool_576.txt	LTP278	ltpFR2	3	16	CLAM	315	n/a	n/a	0	0	0
3404383	WORD	wordpools/wasnorm_wordpool_576.txt	LTP278	ltpFR2	3	16	CASHIER	254	n/a	n/a	0	0	0
3407013	WORD	wordpools/wasnorm_wordpool_576.txt	LTP278	ltpFR2	3	16	ISLAND	745	n/a	n/a	0	0	0
3409673	WORD	wordpools/wasnorm_wordpool_576.txt	LTP278	ltpFR2	3	16	NEUTRON	947	n/a	n/a	0	0	0
3412117	WORD	wordpools/wasnorm_wordpool_576.txt	LTP278	ltpFR2	3	16	JUGGLER	763	n/a	n/a	0	0	0
3414943	WORD	wordpools/wasnorm_wordpool_576.txt	LTP278	ltpFR2	3	16	HONEY	713	n/a	n/a	0	0	0
3417615	WORD	wordpools/wasnorm_wordpool_576.txt	LTP278	ltpFR2	3	16	ORCHID	982	n/a	n/a	0	0	0
3420214	WORD	wordpools/wasnorm_wordpool_576.txt	LTP278	ltpFR2	3	16	FRECKLE	602	n/a	n/a	0	0	0
3422672	WORD	wordpools/wasnorm_wordpool_576.txt	LTP278	ltpFR2	3	16	OZONE	996	n/a	n/a	0	0	0
3425144	WORD	wordpools/wasnorm_wordpool_576.txt	LTP278	ltpFR2	3	16	BALLOON	75	n/a	n/a	0	0	0
3427741	WORD	wordpools/wasnorm_wordpool_576.txt	LTP278	ltpFR2	3	16	BRANDY	169	n/a	n/a	0	0	0
3430532	WORD	wordpools/wasnorm_wordpool_576.txt	LTP278	ltpFR2	3	16	MISSILE	900	n/a	n/a	0	0	0
3432142	START	n/a	LTP278	ltpFR2	3	n/a	n/a	n/a	23	n/a	n/a	n/a	n/a
3433202	DISTRACTOR	n/a	LTP278	ltpFR2	3	16	n/a	n/a	n/a	n/a	0	0	0
3433213	PROB	n/a	LTP278	ltpFR2	3	n/a	n/a	n/a	23	21	7	5	9
3436758	PROB	n/a	LTP278	ltpFR2	3	n/a	n/a	n/a	23	12	4	3	4
3439432	PROB	n/a	LTP278	ltpFR2	3	n/a	n/a	n/a	23	14	6	7	1
3441856	PROB	n/a	LTP278	ltpFR2	3	n/a	n/a	n/a	23	23	5	9	9
3443514	PROB	n/a	LTP278	ltpFR2	3	n/a	n/a	n/a	23	15	8	5	2
3445170	PROB	n/a	LTP278	ltpFR2	3	n/a	n/a	n/a	23	21	8	7	6
3448554	PROB	n/a	LTP278	ltpFR2	3	n/a	n/a	n/a	23	10	2	5	3
3449887	PROB	n/a	LTP278	ltpFR2	3	n/a	n/a	n/a	23	14	7	2	5
3451844	PROB	n/a	LTP278	ltpFR2	3	n/a	n/a	n/a	23	24	9	6	9
3453706	PROB	n/a	LTP278	ltpFR2	3	n/a	n/a	n/a	23	18	7	9	2
3455644	STOP	n/a	LTP278	ltpFR2	3	n/a	n/a	n/a	23	n/a	n/a	n/a	n/a
3458090	REC_START	n/a	LTP278	ltpFR2	3	16	n/a	n/a	n/a	n/a	0	0	0
3512448	REC_WORD	wordpools/wasnorm_wordpool_576.txt	LTP278	ltpFR2	3	16	OVEN	991	n/a	n/a	0	0	0
3528244	REC_WORD	wordpools/wasnorm_wordpool_576.txt	LTP278	ltpFR2	3	16	PRAISE	-1	n/a	n/a	0	0	0
3534874	REST_REWET	n/a	LTP278	ltpFR2	3	16	n/a	n/a	n/a	n/a	0	0	0
3840347	DISTRACTOR	n/a	LTP278	ltpFR2	3	17	n/a	n/a	n/a	n/a	0	0	0
3840347	START	n/a	LTP278	ltpFR2	3	n/a	n/a	n/a	24	n/a	n/a	n/a	n/a
3840397	PROB	n/a	LTP278	ltpFR2	3	n/a	n/a	n/a	24	16	6	8	2
3842321	PROB	n/a	LTP278	ltpFR2	3	n/a	n/a	n/a	24	21	4	9	8
3844625	PROB	n/a	LTP278	ltpFR2	3	n/a	n/a	n/a	24	16	2	8	6
3846487	PROB	n/a	LTP278	ltpFR2	3	n/a	n/a	n/a	24	10	6	1	3
3847824	PROB	n/a	LTP278	ltpFR2	3	n/a	n/a	n/a	24	20	7	8	5
3849627	PROB	n/a	LTP278	ltpFR2	3	n/a	n/a	n/a	24	16	5	4	7
3851568	PROB	n/a	LTP278	ltpFR2	3	n/a	n/a	n/a	24	10	4	2	4
3853998	PROB	n/a	LTP278	ltpFR2	3	n/a	n/a	n/a	24	9	1	1	7
3855337	PROB	n/a	LTP278	ltpFR2	3	n/a	n/a	n/a	24	23	9	9	5
3857021	PROB	n/a	LTP278	ltpFR2	3	n/a	n/a	n/a	24	5	1	1	3
3858494	PROB	n/a	LTP278	ltpFR2	3	n/a	n/a	n/a	24	11	3	5	3
3860268	PROB	n/a	LTP278	ltpFR2	3	n/a	n/a	n/a	24	16	9	4	3
3861877	PROB	n/a	LTP278	ltpFR2	3	n/a	n/a	n/a	24	9	1	7	1
3863028	STOP	n/a	LTP278	ltpFR2	3	n/a	n/a	n/a	24	n/a	n/a	n/a	n/a
3865241	WORD	wordpools/wasnorm_wordpool_576.txt	LTP278	ltpFR2	3	17	KNAPSACK	783	n/a	n/a	0	0	0
3867695	WORD	wordpools/wasnorm_wordpool_576.txt	LTP278	ltpFR2	3	17	SWAMP	1416	n/a	n/a	0	0	0
3870344	WORD	wordpools/wasnorm_wordpool_576.txt	LTP278	ltpFR2	3	17	PICTURE	1061	n/a	n/a	0	0	0
3873150	WORD	wordpools/wasnorm_wordpool_576.txt	LTP278	ltpFR2	3	17	CREATURE	403	n/a	n/a	0	0	0
3875964	WORD	wordpools/wasnorm_wordpool_576.txt	LTP278	ltpFR2	3	17	PASSAGE	1019	n/a	n/a	0	0	0
3878686	WORD	wordpools/wasnorm_wordpool_576.txt	LTP278	ltpFR2	3	17	PASTA	1021	n/a	n/a	0	0	0
3881184	WORD	wordpools/wasnorm_wordpool_576.txt	LTP278	ltpFR2	3	17	SPOON	1357	n/a	n/a	0	0	0
3883610	WORD	wordpools/wasnorm_wordpool_576.txt	LTP278	ltpFR2	3	17	SCRIBBLE	1256	n/a	n/a	0	0	0
3886120	WORD	wordpools/wasnorm_wordpool_576.txt	LTP278	ltpFR2	3	17	NAPKIN	937	n/a	n/a	0	0	0
3888812	WORD	wordpools/wasnorm_wordpool_576.txt	LTP278	ltpFR2	3	17	SCARECROW	1245	n/a	n/a	0	0	0
3891607	WORD	wordpools/wasnorm_wordpool_576.txt	LTP278	ltpFR2	3	17	ACTOR	5	n/a	n/a	0	0	0
3894430	WORD	wordpools/wasnorm_wordpool_576.txt	LTP278	ltpFR2	3	17	DORM	488	n/a	n/a	0	0	0
3897211	WORD	wordpools/wasnorm_wordpool_576.txt	LTP278	ltpFR2	3	17	PLAZA	1088	n/a	n/a	0	0	0
3900000	WORD	wordpools/wasnorm_wordpool_576.txt	LTP278	ltpFR2	3	17	MUFFIN	929	n/a	n/a	0	0	0
3902664	WORD	wordpools/wasnorm_wordpool_576.txt	LTP278	ltpFR2	3	17	PADDING	999	n/a	n/a	0	0	0
3905459	WORD	wordpools/wasnorm_wordpool_576.txt	LTP278	ltpFR2	3	17	VELVET	1555	n/a	n/a	0	0	0
3907951	WORD	wordpools/wasnorm_wordpool_576.txt	LTP278	ltpFR2	3	17	LODGE	839	n/a	n/a	0	0	0
3910745	WORD	wordpools/wasnorm_wordpool_576.txt	LTP278	ltpFR2	3	17	TWISTER	1530	n/a	n/a	0	0	0
3913205	WORD	wordpools/wasnorm_wordpool_576.txt	LTP278	ltpFR2	3	17	DUST	508	n/a	n/a	0	0	0
3915931	WORD	wordpools/wasnorm_wordpool_576.txt	LTP278	ltpFR2	3	17	MARSH	874	n/a	n/a	0	0	0
3918691	WORD	wordpools/wasnorm_wordpool_576.txt	LTP278	ltpFR2	3	17	ICING	732	n/a	n/a	0	0	0
3921168	WORD	wordpools/wasnorm_wordpool_576.txt	LTP278	ltpFR2	3	17	TRIBE	1505	n/a	n/a	0	0	0
3923611	WORD	wordpools/wasnorm_wordpool_576.txt	LTP278	ltpFR2	3	17	LETTUCE	814	n/a	n/a	0	0	0
3926384	WORD	wordpools/wasnorm_wordpool_576.txt	LTP278	ltpFR2	3	17	SLIME	1327	n/a	n/a	0	0	0
3927993	START	n/a	LTP278	ltpFR2	3	n/a	n/a	n/a	25	n/a	n/a	n/a	n/a
3928936	DISTRACTOR	n/a	LTP278	ltpFR2	3	17	n/a	n/a	n/a	n/a	0	0	0
3928947	PROB	n/a	LTP278	ltpFR2	3	n/a	n/a	n/a	25	16	6	3	7
3930449	PROB	n/a	LTP278	ltpFR2	3	n/a	n/a	n/a	25	20	5	7	8
3932189	PROB	n/a	LTP278	ltpFR2	3	n/a	n/a	n/a	25	17	7	7	3
3933995	PROB	n/a	LTP278	ltpFR2	3	n/a	n/a	n/a	25	128	4	8	6
3940135	PROB	n/a	LTP278	ltpFR2	3	n/a	n/a	n/a	25	11	8	1	2
3941807	PROB	n/a	LTP278	ltpFR2	3	n/a	n/a	n/a	25	17	8	3	6
3944819	PROB	n/a	LTP278	ltpFR2	3	n/a	n/a	n/a	25	10	2	5	3
3947296	PROB	n/a	LTP278	ltpFR2	3	n/a	n/a	n/a	25	20	6	8	6
3949039	PROB	n/a	LTP278	ltpFR2	3	n/a	n/a	n/a	25	15	5	1	9
3950501	STOP	n/a	LTP278	ltpFR2	3	n/a	n/a	n/a	25	n/a	n/a	n/a	n/a
3953853	REC_START	n/a	LTP278	ltpFR2	3	17	n/a	n/a	n/a	n/a	0	0	0
3957509	REC_WORD	wordpools/wasnorm_wordpool_576.txt	LTP278	ltpFR2	3	17	KNAPSACK	783	n/a	n/a	0	0	0
3958607	REC_WORD	wordpools/wasnorm_wordpool_576.txt	LTP278	ltpFR2	3	17	SWAMP	1416	n/a	n/a	0	0	0
3966445	REC_WORD	wordpools/wasnorm_wordpool_576.txt	LTP278	ltpFR2	3	17	MUFFIN	929	n/a	n/a	0	0	0
3967011	REC_WORD	wordpools/wasnorm_wordpool_576.txt	LTP278	ltpFR2	3	17	SCARECROW	1245	n/a	n/a	0	0	0
3967885	REC_WORD	wordpools/wasnorm_wordpool_576.txt	LTP278	ltpFR2	3	17	VELVET	1555	n/a	n/a	0	0	0
3968726	REC_WORD	wordpools/wasnorm_wordpool_576.txt	LTP278	ltpFR2	3	17	DORM	488	n/a	n/a	0	0	0
3970879	REC_WORD	wordpools/wasnorm_wordpool_576.txt	LTP278	ltpFR2	3	17	PADDING	999	n/a	n/a	0	0	0
3977234	REC_WORD	wordpools/wasnorm_wordpool_576.txt	LTP278	ltpFR2	3	17	TORNADO	1485	n/a	n/a	0	0	0
3978485	REC_WORD	wordpools/wasnorm_wordpool_576.txt	LTP278	ltpFR2	3	17	TWISTER	1530	n/a	n/a	0	0	0
3980269	REC_WORD	wordpools/wasnorm_wordpool_576.txt	LTP278	ltpFR2	3	17	DUST	508	n/a	n/a	0	0	0
4008246	REC_WORD	wordpools/wasnorm_wordpool_576.txt	LTP278	ltpFR2	3	17	ICING	732	n/a	n/a	0	0	0
4044867	DISTRACTOR	n/a	LTP278	ltpFR2	3	18	n/a	n/a	n/a	n/a	0	0	0
4044867	START	n/a	LTP278	ltpFR2	3	n/a	n/a	n/a	26	n/a	n/a	n/a	n/a
4044917	PROB	n/a	LTP278	ltpFR2	3	n/a	n/a	n/a	26	15	5	6	4
4047991	PROB	n/a	LTP278	ltpFR2	3	n/a	n/a	n/a	26	12	5	6	2
4049630	PROB	n/a	LTP278	ltpFR2	3	n/a	n/a	n/a	26	17	2	6	9
4053279	PROB	n/a	LTP278	ltpFR2	3	n/a	n/a	n/a	26	21	8	4	9
4054951	PROB	n/a	LTP278	ltpFR2	3	n/a	n/a	n/a	26	18	6	8	4
4057749	PROB	n/a	LTP278	ltpFR2	3	n/a	n/a	n/a	26	15	7	4	4
4059840	PROB	n/a	LTP278	ltpFR2	3	n/a	n/a	n/a	26	15	7	2	6
4061676	PROB	n/a	LTP278	ltpFR2	3	n/a	n/a	n/a	26	18	5	5	8
4063333	PROB	n/a	LTP278	ltpFR2	3	n/a	n/a	n/a	26	17	8	6	3
4065144	PROB	n/a	LTP278	ltpFR2	3	n/a	n/a	n/a	26	20	4	9	7
4067700	STOP	n/a	LTP278	ltpFR2	3	n/a	n/a	n/a	26	n/a	n/a	n/a	n/a
4069744	WORD	wordpools/wasnorm_wordpool_576.txt	LTP278	ltpFR2	3	18	GRILL	661	n/a	n/a	0	0	0
4072556	WORD	wordpools/wasnorm_wordpool_576.txt	LTP278	ltpFR2	3	18	SNAIL	1332	n/a	n/a	0	0	0
4075333	WORD	wordpools/wasnorm_wordpool_576.txt	LTP278	ltpFR2	3	18	AWARD	63	n/a	n/a	0	0	0
4077770	WORD	wordpools/wasnorm_wordpool_576.txt	LTP278	ltpFR2	3	18	CITRUS	313	n/a	n/a	0	0	0
4080230	WORD	wordpools/wasnorm_wordpool_576.txt	LTP278	ltpFR2	3	18	ORANGE	980	n/a	n/a	0	0	0
4082894	WORD	wordpools/wasnorm_wordpool_576.txt	LTP278	ltpFR2	3	18	CEILING	265	n/a	n/a	0	0	0
4085555	WORD	wordpools/wasnorm_wordpool_576.txt	LTP278	ltpFR2	3	18	TWEEZERS	1526	n/a	n/a	0	0	0
4088277	WORD	wordpools/wasnorm_wordpool_576.txt	LTP278	ltpFR2	3	18	BUTCHER	203	n/a	n/a	0	0	0
4091008	WORD	wordpools/wasnorm_wordpool_576.txt	LTP278	ltpFR2	3	18	DRUG	501	n/a	n/a	0	0	0
4093514	WORD	wordpools/wasnorm_wordpool_576.txt	LTP278	ltpFR2	3	18	AUTHOR	61	n/a	n/a	0	0	0
4096295	WORD	wordpools/wasnorm_wordpool_576.txt	LTP278	ltpFR2	3	18	MARS	873	n/a	n/a	0	0	0
4098899	WORD	wordpools/wasnorm_wordpool_576.txt	LTP278	ltpFR2	3	18	BREAST	171	n/a	n/a	0	0	0
4101548	WORD	wordpools/wasnorm_wordpool_576.txt	LTP278	ltpFR2	3	18	FLAG	573	n/a	n/a	0	0	0
4104309	WORD	wordpools/wasnorm_wordpool_576.txt	LTP278	ltpFR2	3	18	BELLY	119	n/a	n/a	0	0	0
4107051	WORD	wordpools/wasnorm_wordpool_576.txt	LTP278	ltpFR2	3	18	COUCH	386	n/a	n/a	0	0	0
4109762	WORD	wordpools/wasnorm_wordpool_576.txt	LTP278	ltpFR2	3	18	GRAVE	658	n/a	n/a	0	0	0
4112523	WORD	wordpools/wasnorm_wordpool_576.txt	LTP278	ltpFR2	3	18	LOFT	840	n/a	n/a	0	0	0
4115262	WORD	wordpools/wasnorm_wordpool_576.txt	LTP278	ltpFR2	3	18	SUNSET	1408	n/a	n/a	0	0	0
4117792	WORD	wordpools/wasnorm_wordpool_576.txt	LTP278	ltpFR2	3	18	DRESSER	496	n/a	n/a	0	0	0
4120419	WORD	wordpools/wasnorm_wordpool_576.txt	LTP278	ltpFR2	3	18	PLUTO	1092	n/a	n/a	0	0	0
4123007	WORD	wordpools/wasnorm_wordpool_576.txt	LTP278	ltpFR2	3	18	CRICKET	408	n/a	n/a	0	0	0
4125755	WORD	wordpools/wasnorm_wordpool_576.txt	LTP278	ltpFR2	3	18	PICNIC	1060	n/a	n/a	0	0	0
4128282	WORD	wordpools/wasnorm_wordpool_576.txt	LTP278	ltpFR2	3	18	TREAT	1501	n/a	n/a	0	0	0
4130937	WORD	wordpools/wasnorm_wordpool_576.txt	LTP278	ltpFR2	3	18	TART	1436	n/a	n/a	0	0	0
4132549	START	n/a	LTP278	ltpFR2	3	n/a	n/a	n/a	27	n/a	n/a	n/a	n/a
4133367	DISTRACTOR	n/a	LTP278	ltpFR2	3	18	n/a	n/a	n/a	n/a	0	0	0
4133385	PROB	n/a	LTP278	ltpFR2	3	n/a	n/a	n/a	27	25	8	9	8
4135304	PROB	n/a	LTP278	ltpFR2	3	n/a	n/a	n/a	27	21	6	7	8
4140038	PROB	n/a	LTP278	ltpFR2	3	n/a	n/a	n/a	27	19	6	5	8
4142481	PROB	n/a	LTP278	ltpFR2	3	n/a	n/a	n/a	27	17	9	5	3
4144389	PROB	n/a	LTP278	ltpFR2	3	n/a	n/a	n/a	27	18	2	9	7
4146233	PROB	n/a	LTP278	ltpFR2	3	n/a	n/a	n/a	27	8	1	1	6
4147383	PROB	n/a	LTP278	ltpFR2	3	n/a	n/a	n/a	27	18	9	5	4
4149022	PROB	n/a	LTP278	ltpFR2	3	n/a	n/a	n/a	27	18	3	7	8
4150545	PROB	n/a	LTP278	ltpFR2	3	n/a	n/a	n/a	27	14	1	7	6
4152452	PROB	n/a	LTP278	ltpFR2	3	n/a	n/a	n/a	27	19	4	9	6
4154159	PROB	n/a	LTP278	ltpFR2	3	n/a	n/a	n/a	27	10	5	1	4
4155429	STOP	n/a	LTP278	ltpFR2	3	n/a	n/a	n/a	27	n/a	n/a	n/a	n/a
4158342	REC_START	n/a	LTP278	ltpFR2	3	18	n/a	n/a	n/a	n/a	0	0	0
4158824	REC_WORD	wordpools/wasnorm_wordpool_576.txt	LTP278	ltpFR2	3	18	CRICKET	408	n/a	n/a	0	0	0
4159762	REC_WORD	wordpools/wasnorm_wordpool_576.txt	LTP278	ltpFR2	3	18	PICNIC	1060	n/a	n/a	0	0	0
4176090	REC_WORD	wordpools/wasnorm_wordpool_576.txt	LTP278	ltpFR2	3	18	TREAT	1501	n/a	n/a	0	0	0
4184854	REC_WORD	wordpools/wasnorm_wordpool_576.txt	LTP278	ltpFR2	3	18	FLAG	573	n/a	n/a	0	0	0
4185641	REC_WORD	wordpools/wasnorm_wordpool_576.txt	LTP278	ltpFR2	3	18	COUCH	386	n/a	n/a	0	0	0
4197020	REC_WORD	wordpools/wasnorm_wordpool_576.txt	LTP278	ltpFR2	3	18	CITRUS	313	n/a	n/a	0	0	0
4199042	REC_WORD	wordpools/wasnorm_wordpool_576.txt	LTP278	ltpFR2	3	18	ORANGE	980	n/a	n/a	0	0	0
4249389	WORD	wordpools/wasnorm_wordpool_576.txt	LTP278	ltpFR2	3	19	GUARD	667	n/a	n/a	0	0	0
4251876	WORD	wordpools/wasnorm_wordpool_576.txt	LTP278	ltpFR2	3	19	LIGHTNING	820	n/a	n/a	0	0	0
4254691	WORD	wordpools/wasnorm_wordpool_576.txt	LTP278	ltpFR2	3	19	GROUND	666	n/a	n/a	0	0	0
4257335	WORD	wordpools/wasnorm_wordpool_576.txt	LTP278	ltpFR2	3	19	MARKET	871	n/a	n/a	0	0	0
4260129	WORD	wordpools/wasnorm_wordpool_576.txt	LTP278	ltpFR2	3	19	FARMER	553	n/a	n/a	0	0	0
4262671	WORD	wordpools/wasnorm_wordpool_576.txt	LTP278	ltpFR2	3	19	TURTLE	1522	n/a	n/a	0	0	0
4265131	WORD	wordpools/wasnorm_wordpool_576.txt	LTP278	ltpFR2	3	19	GREASE	660	n/a	n/a	0	0	0
4267874	WORD	wordpools/wasnorm_wordpool_576.txt	LTP278	ltpFR2	3	19	BEAST	108	n/a	n/a	0	0	0
4270585	WORD	wordpools/wasnorm_wordpool_576.txt	LTP278	ltpFR2	3	19	CHIPMUNK	304	n/a	n/a	0	0	0
4273112	WORD	wordpools/wasnorm_wordpool_576.txt	LTP278	ltpFR2	3	19	WOMAN	1620	n/a	n/a	0	0	0
4275637	WORD	wordpools/wasnorm_wordpool_576.txt	LTP278	ltpFR2	3	19	BEEF	113	n/a	n/a	0	0	0
4278398	WORD	wordpools/wasnorm_wordpool_576.txt	LTP278	ltpFR2	3	19	GRAPE	654	n/a	n/a	0	0	0
4281192	WORD	wordpools/wasnorm_wordpool_576.txt	LTP278	ltpFR2	3	19	CURTAIN	427	n/a	n/a	0	0	0
4283780	WORD	wordpools/wasnorm_wordpool_576.txt	LTP278	ltpFR2	3	19	ONION	977	n/a	n/a	0	0	0
4286412	WORD	wordpools/wasnorm_wordpool_576.txt	LTP278	ltpFR2	3	19	FILM	565	n/a	n/a	0	0	0
4288932	WORD	wordpools/wasnorm_wordpool_576.txt	LTP278	ltpFR2	3	19	ANKLE	24	n/a	n/a	0	0	0
4291460	WORD	wordpools/wasnorm_wordpool_576.txt	LTP278	ltpFR2	3	19	LEG	809	n/a	n/a	0	0	0
4293973	WORD	wordpools/wasnorm_wordpool_576.txt	LTP278	ltpFR2	3	19	MEAT	883	n/a	n/a	0	0	0
4296779	WORD	wordpools/wasnorm_wordpool_576.txt	LTP278	ltpFR2	3	19	CRAYON	401	n/a	n/a	0	0	0
4299456	WORD	wordpools/wasnorm_wordpool_576.txt	LTP278	ltpFR2	3	19	STICKER	1382	n/a	n/a	0	0	0
4302083	WORD	wordpools/wasnorm_wordpool_576.txt	LTP278	ltpFR2	3	19	DOLPHIN	483	n/a	n/a	0	0	0
4304897	WORD	wordpools/wasnorm_wordpool_576.txt	LTP278	ltpFR2	3	19	POLICE	1098	n/a	n/a	0	0	0
4307458	WORD	wordpools/wasnorm_wordpool_576.txt	LTP278	ltpFR2	3	19	SILK	1307	n/a	n/a	0	0	0
4310000	WORD	wordpools/wasnorm_wordpool_576.txt	LTP278	ltpFR2	3	19	BABY	64	n/a	n/a	0	0	0
4311607	START	n/a	LTP278	ltpFR2	3	n/a	n/a	n/a	28	n/a	n/a	n/a	n/a
4312688	DISTRACTOR	n/a	LTP278	ltpFR2	3	19	n/a	n/a	n/a	n/a	0	0	0
4312705	PROB	n/a	LTP278	ltpFR2	3	n/a	n/a	n/a	28	13	4	4	5
4314818	PROB	n/a	LTP278	ltpFR2	3	n/a	n/a	n/a	28	14	6	6	2
4316775	PROB	n/a	LTP278	ltpFR2	3	n/a	n/a	n/a	28	18	9	4	5
4318210	PROB	n/a	LTP278	ltpFR2	3	n/a	n/a	n/a	28	12	3	5	4
4320991	PROB	n/a	LTP278	ltpFR2	3	n/a	n/a	n/a	28	17	9	4	4
4322577	PROB	n/a	LTP278	ltpFR2	3	n/a	n/a	n/a	28	12	3	3	6
4325103	PROB	n/a	LTP278	ltpFR2	3	n/a	n/a	n/a	28	18	3	8	7
4327361	PROB	n/a	LTP278	ltpFR2	3	n/a	n/a	n/a	28	21	8	9	4
4329520	PROB	n/a	LTP278	ltpFR2	3	n/a	n/a	n/a	28	17	7	8	2
4331599	PROB	n/a	LTP278	ltpFR2	3	n/a	n/a	n/a	28	8	5	2	1
4333015	PROB	n/a	LTP278	ltpFR2	3	n/a	n/a	n/a	28	21	8	5	8
4334525	STOP	n/a	LTP278	ltpFR2	3	n/a	n/a	n/a	28	n/a	n/a	n/a	n/a
4337522	REC_START	n/a	LTP278	ltpFR2	3	19	n/a	n/a	n/a	n/a	0	0	0
4428564	DISTRACTOR	n/a	LTP278	ltpFR2	3	20	n/a	n/a	n/a	n/a	0	0	0
4428564	START	n/a	LTP278	ltpFR2	3	n/a	n/a	n/a	29	n/a	n/a	n/a	n/a
4428614	PROB	n/a	LTP278	ltpFR2	3	n/a	n/a	n/a	29	19	9	7	3
4430132	PROB	n/a	LTP278	ltpFR2	3	n/a	n/a	n/a	29	15	6	6	3
4432624	PROB	n/a	LTP278	ltpFR2	3	n/a	n/a	n/a	29	20	5	9	6
4434999	PROB	n/a	LTP278	ltpFR2	3	n/a	n/a	n/a	29	22	7	6	9
4437410	PROB	n/a	LTP278	ltpFR2	3	n/a	n/a	n/a	29	23	7	8	8
4440721	PROB	n/a	LTP278	ltpFR2	3	n/a	n/a	n/a	29	16	5	8	3
4442546	PROB	n/a	LTP278	ltpFR2	3	n/a	n/a	n/a	29	14	2	7	5
4444403	PROB	n/a	LTP278	ltpFR2	3	n/a	n/a	n/a	29	14	1	6	7
4445912	PROB	n/a	LTP278	ltpFR2	3	n/a	n/a	n/a	29	19	5	9	5
4447247	PROB	n/a	LTP278	ltpFR2	3	n/a	n/a	n/a	29	18	8	8	2
4448689	PROB	n/a	LTP278	ltpFR2	3	n/a	n/a	n/a	29	13	5	5	3
4449822	PROB	n/a	LTP278	ltpFR2	3	n/a	n/a	n/a	29	20	5	8	7
4452501	STOP	n/a	LTP278	ltpFR2	3	n/a	n/a	n/a	29	n/a	n/a	n/a	n/a
4453537	WORD	wordpools/wasnorm_wordpool_576.txt	LTP278	ltpFR2	3	20	PRINCE	1124	n/a	n/a	0	0	0
4455983	WORD	wordpools/wasnorm_wordpool_576.txt	LTP278	ltpFR2	3	20	PEPPER	1047	n/a	n/a	0	0	0
4458527	WORD	wordpools/wasnorm_wordpool_576.txt	LTP278	ltpFR2	3	20	GARLIC	624	n/a	n/a	0	0	0
4461321	WORD	wordpools/wasnorm_wordpool_576.txt	LTP278	ltpFR2	3	20	TWIG	1527	n/a	n/a	0	0	0
4463930	WORD	wordpools/wasnorm_wordpool_576.txt	LTP278	ltpFR2	3	20	DRIVER	499	n/a	n/a	0	0	0
4466524	WORD	wordpools/wasnorm_wordpool_576.txt	LTP278	ltpFR2	3	20	TRENCH	1503	n/a	n/a	0	0	0
4469251	WORD	wordpools/wasnorm_wordpool_576.txt	LTP278	ltpFR2	3	20	BRANCH	168	n/a	n/a	0	0	0
4471726	WORD	wordpools/wasnorm_wordpool_576.txt	LTP278	ltpFR2	3	20	OFFICE	972	n/a	n/a	0	0	0
4474303	WORD	wordpools/wasnorm_wordpool_576.txt	LTP278	ltpFR2	3	20	PERFUME	1049	n/a	n/a	0	0	0
4476728	WORD	wordpools/wasnorm_wordpool_576.txt	LTP278	ltpFR2	3	20	PACKAGE	997	n/a	n/a	0	0	0
4479289	WORD	wordpools/wasnorm_wordpool_576.txt	LTP278	ltpFR2	3	20	RUG	1215	n/a	n/a	0	0	0
4482082	WORD	wordpools/wasnorm_wordpool_576.txt	LTP278	ltpFR2	3	20	BUBBLE	183	n/a	n/a	0	0	0
4484758	WORD	wordpools/wasnorm_wordpool_576.txt	LTP278	ltpFR2	3	20	SHOVEL	1295	n/a	n/a	0	0	0
4487469	WORD	wordpools/wasnorm_wordpool_576.txt	LTP278	ltpFR2	3	20	AIRPLANE	12	n/a	n/a	0	0	0
4490078	WORD	wordpools/wasnorm_wordpool_576.txt	LTP278	ltpFR2	3	20	COTTAGE	384	n/a	n/a	0	0	0
4492539	WORD	wordpools/wasnorm_wordpool_576.txt	LTP278	ltpFR2	3	20	BRICK	172	n/a	n/a	0	0	0
4494976	WORD	wordpools/wasnorm_wordpool_576.txt	LTP278	ltpFR2	3	20	MUSTARD	935	n/a	n/a	0	0	0
4497557	WORD	wordpools/wasnorm_wordpool_576.txt	LTP278	ltpFR2	3	20	LUMBER	848	n/a	n/a	0	0	0
4500113	WORD	wordpools/wasnorm_wordpool_576.txt	LTP278	ltpFR2	3	20	DRAGON	492	n/a	n/a	0	0	0
4502759	WORD	wordpools/wasnorm_wordpool_576.txt	LTP278	ltpFR2	3	20	PUDDING	1139	n/a	n/a	0	0	0
4505387	WORD	wordpools/wasnorm_wordpool_576.txt	LTP278	ltpFR2	3	20	BOUQUET	157	n/a	n/a	0	0	0
4508097	WORD	wordpools/wasnorm_wordpool_576.txt	LTP278	ltpFR2	3	20	BANQUET	86	n/a	n/a	0	0	0
4510856	WORD	wordpools/wasnorm_wordpool_576.txt	LTP278	ltpFR2	3	20	TEACHER	1440	n/a	n/a	0	0	0
4513501	WORD	wordpools/wasnorm_wordpool_576.txt	LTP278	ltpFR2	3	20	THIEF	1456	n/a	n/a	0	0	0
4515107	START	n/a	LTP278	ltpFR2	3	n/a	n/a	n/a	30	n/a	n/a	n/a	n/a
4515918	DISTRACTOR	n/a	LTP278	ltpFR2	3	20	n/a	n/a	n/a	n/a	0	0	0
4515926	PROB	n/a	LTP278	ltpFR2	3	n/a	n/a	n/a	30	13	5	4	4
4517545	PROB	n/a	LTP278	ltpFR2	3	n/a	n/a	n/a	30	24	9	8	7
4520205	PROB	n/a	LTP278	ltpFR2	3	n/a	n/a	n/a	30	20	5	8	7
4522797	PROB	n/a	LTP278	ltpFR2	3	n/a	n/a	n/a	30	23	6	8	9
4525408	PROB	n/a	LTP278	ltpFR2	3	n/a	n/a	n/a	30	17	5	7	5
4526963	PROB	n/a	LTP278	ltpFR2	3	n/a	n/a	n/a	30	13	6	4	3
4528791	PROB	n/a	LTP278	ltpFR2	3	n/a	n/a	n/a	30	16	8	7	1
4530281	PROB	n/a	LTP278	ltpFR2	3	n/a	n/a	n/a	30	17	7	8	2
4531869	PROB	n/a	LTP278	ltpFR2	3	n/a	n/a	n/a	30	9	1	2	6
4533087	PROB	n/a	LTP278	ltpFR2	3	n/a	n/a	n/a	30	15	7	1	7
4534492	PROB	n/a	LTP278	ltpFR2	3	n/a	n/a	n/a	30	12	9	1	2
4536567	PROB	n/a	LTP278	ltpFR2	3	n/a	n/a	n/a	30	12	1	7	4
4537940	STOP	n/a	LTP278	ltpFR2	3	n/a	n/a	n/a	30	n/a	n/a	n/a	n/a
4540920	REC_START	n/a	LTP278	ltpFR2	3	20	n/a	n/a	n/a	n/a	0	0	0
4541418	REC_WORD	wordpools/wasnorm_wordpool_576.txt	LTP278	ltpFR2	3	20	PRINCE	1124	n/a	n/a	0	0	0
4542350	REC_WORD	wordpools/wasnorm_wordpool_576.txt	LTP278	ltpFR2	3	20	PEPPER	1047	n/a	n/a	0	0	0
4543208	REC_WORD	wordpools/wasnorm_wordpool_576.txt	LTP278	ltpFR2	3	20	GARLIC	624	n/a	n/a	0	0	0
4543938	REC_WORD	wordpools/wasnorm_wordpool_576.txt	LTP278	ltpFR2	3	20	PERFUME	1049	n/a	n/a	0	0	0
4544888	REC_WORD	wordpools/wasnorm_wordpool_576.txt	LTP278	ltpFR2	3	20	TWIG	1527	n/a	n/a	0	0	0
4552077	REC_WORD	wordpools/wasnorm_wordpool_576.txt	LTP278	ltpFR2	3	20	CABIN	211	n/a	n/a	0	0	0
4631980	DISTRACTOR	n/a	LTP278	ltpFR2	3	21	n/a	n/a	n/a	n/a	0	0	0
4631980	START	n/a	LTP278	ltpFR2	3	n/a	n/a	n/a	31	n/a	n/a	n/a	n/a
4632030	PROB	n/a	LTP278	ltpFR2	3	n/a	n/a	n/a	31	12	8	1	3
4633570	PROB	n/a	LTP278	ltpFR2	3	n/a	n/a	n/a	31	9	5	1	3
4635272	PROB	n/a	LTP278	ltpFR2	3	n/a	n/a	n/a	31	15	6	8	1
4637162	PROB	n/a	LTP278	ltpFR2	3	n/a	n/a	n/a	31	13	6	6	1
4638568	PROB	n/a	LTP278	ltpFR2	3	n/a	n/a	n/a	31	15	4	5	6
4640792	PROB	n/a	LTP278	ltpFR2	3	n/a	n/a	n/a	31	17	2	7	8
4642749	PROB	n/a	LTP278	ltpFR2	3	n/a	n/a	n/a	31	16	6	7	3
4645827	PROB	n/a	LTP278	ltpFR2	3	n/a	n/a	n/a	31	8	2	4	2
4647184	PROB	n/a	LTP278	ltpFR2	3	n/a	n/a	n/a	31	21	6	5	9
4649191	PROB	n/a	LTP278	ltpFR2	3	n/a	n/a	n/a	31	22	8	8	6
4651030	PROB	n/a	LTP278	ltpFR2	3	n/a	n/a	n/a	31	19	9	3	7
4652720	PROB	n/a	LTP278	ltpFR2	3	n/a	n/a	n/a	31	12	5	6	1
4655293	STOP	n/a	LTP278	ltpFR2	3	n/a	n/a	n/a	31	n/a	n/a	n/a	n/a
4657007	WORD	wordpools/wasnorm_wordpool_576.txt	LTP278	ltpFR2	3	21	LABEL	790	n/a	n/a	0	0	0
4659535	WORD	wordpools/wasnorm_wordpool_576.txt	LTP278	ltpFR2	3	21	PEACH	1031	n/a	n/a	0	0	0
4661972	WORD	wordpools/wasnorm_wordpool_576.txt	LTP278	ltpFR2	3	21	FRIEND	606	n/a	n/a	0	0	0
4664653	WORD	wordpools/wasnorm_wordpool_576.txt	LTP278	ltpFR2	3	21	HANDBAG	684	n/a	n/a	0	0	0
4667264	WORD	wordpools/wasnorm_wordpool_576.txt	LTP278	ltpFR2	3	21	RABBIT	1152	n/a	n/a	0	0	0
4669739	WORD	wordpools/wasnorm_wordpool_576.txt	LTP278	ltpFR2	3	21	FOOTBALL	591	n/a	n/a	0	0	0
4672517	WORD	wordpools/wasnorm_wordpool_576.txt	LTP278	ltpFR2	3	21	RACKET	1155	n/a	n/a	0	0	0
4675260	WORD	wordpools/wasnorm_wordpool_576.txt	LTP278	ltpFR2	3	21	PADDLE	1000	n/a	n/a	0	0	0
4677999	WORD	wordpools/wasnorm_wordpool_576.txt	LTP278	ltpFR2	3	21	PLAYGROUND	1087	n/a	n/a	0	0	0
4680597	WORD	wordpools/wasnorm_wordpool_576.txt	LTP278	ltpFR2	3	21	SCALPEL	1243	n/a	n/a	0	0	0
4683341	WORD	wordpools/wasnorm_wordpool_576.txt	LTP278	ltpFR2	3	21	TRANSPLANT	1496	n/a	n/a	0	0	0
4686085	WORD	wordpools/wasnorm_wordpool_576.txt	LTP278	ltpFR2	3	21	CUPBOARD	425	n/a	n/a	0	0	0
4688861	WORD	wordpools/wasnorm_wordpool_576.txt	LTP278	ltpFR2	3	21	SODA	1341	n/a	n/a	0	0	0
4691638	WORD	wordpools/wasnorm_wordpool_576.txt	LTP278	ltpFR2	3	21	BUNNY	198	n/a	n/a	0	0	0
4694395	WORD	wordpools/wasnorm_wordpool_576.txt	LTP278	ltpFR2	3	21	PARTNER	1017	n/a	n/a	0	0	0
4697172	WORD	wordpools/wasnorm_wordpool_576.txt	LTP278	ltpFR2	3	21	PLAID	1080	n/a	n/a	0	0	0
4699769	WORD	wordpools/wasnorm_wordpool_576.txt	LTP278	ltpFR2	3	21	DENIM	446	n/a	n/a	0	0	0
4702325	WORD	wordpools/wasnorm_wordpool_576.txt	LTP278	ltpFR2	3	21	BROOK	177	n/a	n/a	0	0	0
4704955	WORD	wordpools/wasnorm_wordpool_576.txt	LTP278	ltpFR2	3	21	SOFTBALL	1343	n/a	n/a	0	0	0
4707749	WORD	wordpools/wasnorm_wordpool_576.txt	LTP278	ltpFR2	3	21	MILDEW	893	n/a	n/a	0	0	0
4710376	WORD	wordpools/wasnorm_wordpool_576.txt	LTP278	ltpFR2	3	21	FUNGUS	614	n/a	n/a	0	0	0
4713120	WORD	wordpools/wasnorm_wordpool_576.txt	LTP278	ltpFR2	3	21	POPCORN	1104	n/a	n/a	0	0	0
4715645	WORD	wordpools/wasnorm_wordpool_576.txt	LTP278	ltpFR2	3	21	HIKER	708	n/a	n/a	0	0	0
4718356	WORD	wordpools/wasnorm_wordpool_576.txt	LTP278	ltpFR2	3	21	FIREMAN	569	n/a	n/a	0	0	0
4719962	START	n/a	LTP278	ltpFR2	3	n/a	n/a	n/a	32	n/a	n/a	n/a	n/a
4720838	DISTRACTOR	n/a	LTP278	ltpFR2	3	21	n/a	n/a	n/a	n/a	0	0	0
4720848	PROB	n/a	LTP278	ltpFR2	3	n/a	n/a	n/a	32	17	5	4	8
4723270	PROB	n/a	LTP278	ltpFR2	3	n/a	n/a	n/a	32	15	4	7	1
4725261	PROB	n/a	LTP278	ltpFR2	3	n/a	n/a	n/a	32	22	8	9	5
4729193	PROB	n/a	LTP278	ltpFR2	3	n/a	n/a	n/a	32	19	4	8	7
4731065	PROB	n/a	LTP278	ltpFR2	3	n/a	n/a	n/a	32	21	8	7	6
4733241	PROB	n/a	LTP278	ltpFR2	3	n/a	n/a	n/a	32	14	2	6	6
4734613	PROB	n/a	LTP278	ltpFR2	3	n/a	n/a	n/a	32	10	2	2	6
4736554	PROB	n/a	LTP278	ltpFR2	3	n/a	n/a	n/a	32	15	4	4	7
4738265	PROB	n/a	LTP278	ltpFR2	3	n/a	n/a	n/a	32	17	4	9	4
4740569	PROB	n/a	LTP278	ltpFR2	3	n/a	n/a	n/a	32	14	3	7	4
4742557	STOP	n/a	LTP278	ltpFR2	3	n/a	n/a	n/a	32	n/a	n/a	n/a	n/a
4745755	REC_START	n/a	LTP278	ltpFR2	3	21	n/a	n/a	n/a	n/a	0	0	0
4748326	REC_WORD	wordpools/wasnorm_wordpool_576.txt	LTP278	ltpFR2	3	21	GAMBLE	-1	n/a	n/a	0	0	0
4755521	REC_WORD	wordpools/wasnorm_wordpool_576.txt	LTP278	ltpFR2	3	21	HANDBAG	684	n/a	n/a	0	0	0
4756425	REC_WORD	wordpools/wasnorm_wordpool_576.txt	LTP278	ltpFR2	3	21	RABBIT	1152	n/a	n/a	0	0	0
4836780	WORD	wordpools/wasnorm_wordpool_576.txt	LTP278	ltpFR2	3	22	FRAGRANCE	599	n/a	n/a	0	0	0
4839530	WORD	wordpools/wasnorm_wordpool_576.txt	LTP278	ltpFR2	3	22	CLOUD	328	n/a	n/a	0	0	0
4842273	WORD	wordpools/wasnorm_wordpool_576.txt	LTP278	ltpFR2	3	22	WRIST	1626	n/a	n/a	0	0	0
4844765	WORD	wordpools/wasnorm_wordpool_576.txt	LTP278	ltpFR2	3	22	CHEMIST	292	n/a	n/a	0	0	0
4847409	WORD	wordpools/wasnorm_wordpool_576.txt	LTP278	ltpFR2	3	22	VALVE	1546	n/a	n/a	0	0	0
4849901	WORD	wordpools/wasnorm_wordpool_576.txt	LTP278	ltpFR2	3	22	HOUND	724	n/a	n/a	0	0	0
4852474	WORD	wordpools/wasnorm_wordpool_576.txt	LTP278	ltpFR2	3	22	FOX	598	n/a	n/a	0	0	0
4855071	WORD	wordpools/wasnorm_wordpool_576.txt	LTP278	ltpFR2	3	22	LADY	794	n/a	n/a	0	0	0
4857697	WORD	wordpools/wasnorm_wordpool_576.txt	LTP278	ltpFR2	3	22	BANK	83	n/a	n/a	0	0	0
4860375	WORD	wordpools/wasnorm_wordpool_576.txt	LTP278	ltpFR2	3	22	HUMAN	726	n/a	n/a	0	0	0
4862900	WORD	wordpools/wasnorm_wordpool_576.txt	LTP278	ltpFR2	3	22	GIRL	637	n/a	n/a	0	0	0
4865677	WORD	wordpools/wasnorm_wordpool_576.txt	LTP278	ltpFR2	3	22	MOTEL	919	n/a	n/a	0	0	0
4868472	WORD	wordpools/wasnorm_wordpool_576.txt	LTP278	ltpFR2	3	22	LIVER	833	n/a	n/a	0	0	0
4871132	WORD	wordpools/wasnorm_wordpool_576.txt	LTP278	ltpFR2	3	22	BOX	159	n/a	n/a	0	0	0
4873854	WORD	wordpools/wasnorm_wordpool_576.txt	LTP278	ltpFR2	3	22	RAFT	1159	n/a	n/a	0	0	0
4876569	WORD	wordpools/wasnorm_wordpool_576.txt	LTP278	ltpFR2	3	22	BULLET	194	n/a	n/a	0	0	0
4879040	WORD	wordpools/wasnorm_wordpool_576.txt	LTP278	ltpFR2	3	22	PROTON	1132	n/a	n/a	0	0	0
4881605	WORD	wordpools/wasnorm_wordpool_576.txt	LTP278	ltpFR2	3	22	SMOG	1330	n/a	n/a	0	0	0
4884131	WORD	wordpools/wasnorm_wordpool_576.txt	LTP278	ltpFR2	3	22	COIN	343	n/a	n/a	0	0	0
4886890	WORD	wordpools/wasnorm_wordpool_576.txt	LTP278	ltpFR2	3	22	SWITCH	1422	n/a	n/a	0	0	0
4889602	WORD	wordpools/wasnorm_wordpool_576.txt	LTP278	ltpFR2	3	22	HORNET	718	n/a	n/a	0	0	0
4892026	WORD	wordpools/wasnorm_wordpool_576.txt	LTP278	ltpFR2	3	22	PEANUT	1032	n/a	n/a	0	0	0
4894737	WORD	wordpools/wasnorm_wordpool_576.txt	LTP278	ltpFR2	3	22	PECAN	1036	n/a	n/a	0	0	0
4897163	WORD	wordpools/wasnorm_wordpool_576.txt	LTP278	ltpFR2	3	22	BEAKER	104	n/a	n/a	0	0	0
4898769	START	n/a	LTP278	ltpFR2	3	n/a	n/a	n/a	33	n/a	n/a	n/a	n/a
4899831	DISTRACTOR	n/a	LTP278	ltpFR2	3	22	n/a	n/a	n/a	n/a	0	0	0
4899839	PROB	n/a	LTP278	ltpFR2	3	n/a	n/a	n/a	33	22	8	7	7
4902645	PROB	n/a	LTP278	ltpFR2	3	n/a	n/a	n/a	33	18	1	9	8
4906544	PROB	n/a	LTP278	ltpFR2	3	n/a	n/a	n/a	33	9	1	3	5
4908054	PROB	n/a	LTP278	ltpFR2	3	n/a	n/a	n/a	33	21	9	3	9
4910057	PROB	n/a	LTP278	ltpFR2	3	n/a	n/a	n/a	33	12	7	2	3
4911717	PROB	n/a	LTP278	ltpFR2	3	n/a	n/a	n/a	33	19	2	8	9
4913454	PROB	n/a	LTP278	ltpFR2	3	n/a	n/a	n/a	33	16	4	8	4
4915030	PROB	n/a	LTP278	ltpFR2	3	n/a	n/a	n/a	33	6	2	3	1
4917084	PROB	n/a	LTP278	ltpFR2	3	n/a	n/a	n/a	33	18	8	3	7
4918761	PROB	n/a	LTP278	ltpFR2	3	n/a	n/a	n/a	33	12	5	5	2
4922768	STOP	n/a	LTP278	ltpFR2	3	n/a	n/a	n/a	33	n/a	n/a	n/a	n/a
4924751	REC_START	n/a	LTP278	ltpFR2	3	22	n/a	n/a	n/a	n/a	0	0	0
4927584	REC_WORD	wordpools/wasnorm_wordpool_576.txt	LTP278	ltpFR2	3	22	FRAGRANCE	599	n/a	n/a	0	0	0
4928625	REC_WORD	wordpools/wasnorm_wordpool_576.txt	LTP278	ltpFR2	3	22	CLOUD	328	n/a	n/a	0	0	0
4929609	REC_WORD	wordpools/wasnorm_wordpool_576.txt	LTP278	ltpFR2	3	22	WRIST	1626	n/a	n/a	0	0	0
4934377	REC_WORD	wordpools/wasnorm_wordpool_576.txt	LTP278	ltpFR2	3	22	HOUND	724	n/a	n/a	0	0	0
4936737	REC_WORD	wordpools/wasnorm_wordpool_576.txt	LTP278	ltpFR2	3	22	FOX	598	n/a	n/a	0	0	0
4939437	REC_WORD	wordpools/wasnorm_wordpool_576.txt	LTP278	ltpFR2	3	22	VALVE	1546	n/a	n/a	0	0	0
5015776	DISTRACTOR	n/a	LTP278	ltpFR2	3	23	n/a	n/a	n/a	n/a	0	0	0
5015776	START	n/a	LTP278	ltpFR2	3	n/a	n/a	n/a	34	n/a	n/a	n/a	n/a
5015826	PROB	n/a	LTP278	ltpFR2	3	n/a	n/a	n/a	34	19	8	8	3
5017513	PROB	n/a	LTP278	ltpFR2	3	n/a	n/a	n/a	34	16	2	7	7
5020239	PROB	n/a	LTP278	ltpFR2	3	n/a	n/a	n/a	34	22	8	9	5
5022648	PROB	n/a	LTP278	ltpFR2	3	n/a	n/a	n/a	34	18	3	9	6
5024990	PROB	n/a	LTP278	ltpFR2	3	n/a	n/a	n/a	34	12	5	4	3
5027951	PROB	n/a	LTP278	ltpFR2	3	n/a	n/a	n/a	34	24	8	7	9
5030678	PROB	n/a	LTP278	ltpFR2	3	n/a	n/a	n/a	34	6	1	2	3
5031853	PROB	n/a	LTP278	ltpFR2	3	n/a	n/a	n/a	34	15	2	4	9
5033806	PROB	n/a	LTP278	ltpFR2	3	n/a	n/a	n/a	34	18	3	8	7
5036216	PROB	n/a	LTP278	ltpFR2	3	n/a	n/a	n/a	34	13	4	5	4
5038107	PROB	n/a	LTP278	ltpFR2	3	n/a	n/a	n/a	34	15	3	9	3
5039660	STOP	n/a	LTP278	ltpFR2	3	n/a	n/a	n/a	34	n/a	n/a	n/a	n/a
5040921	WORD	wordpools/wasnorm_wordpool_576.txt	LTP278	ltpFR2	3	23	RECORD	1176	n/a	n/a	0	0	0
5043599	WORD	wordpools/wasnorm_wordpool_576.txt	LTP278	ltpFR2	3	23	HAND	683	n/a	n/a	0	0	0
5046422	WORD	wordpools/wasnorm_wordpool_576.txt	LTP278	ltpFR2	3	23	COCKTAIL	338	n/a	n/a	0	0	0
5048851	WORD	wordpools/wasnorm_wordpool_576.txt	LTP278	ltpFR2	3	23	BLENDER	136	n/a	n/a	0	0	0
5051390	WORD	wordpools/wasnorm_wordpool_576.txt	LTP278	ltpFR2	3	23	MILK	895	n/a	n/a	0	0	0
5053937	WORD	wordpools/wasnorm_wordpool_576.txt	LTP278	ltpFR2	3	23	CATTLE	261	n/a	n/a	0	0	0
5056464	WORD	wordpools/wasnorm_wordpool_576.txt	LTP278	ltpFR2	3	23	SPOOL	1356	n/a	n/a	0	0	0
5059107	WORD	wordpools/wasnorm_wordpool_576.txt	LTP278	ltpFR2	3	23	PIZZA	1079	n/a	n/a	0	0	0
5061829	WORD	wordpools/wasnorm_wordpool_576.txt	LTP278	ltpFR2	3	23	NOMAD	955	n/a	n/a	0	0	0
5064594	WORD	wordpools/wasnorm_wordpool_576.txt	LTP278	ltpFR2	3	23	GOBLIN	645	n/a	n/a	0	0	0
5067355	WORD	wordpools/wasnorm_wordpool_576.txt	LTP278	ltpFR2	3	23	INFANT	737	n/a	n/a	0	0	0
5069959	WORD	wordpools/wasnorm_wordpool_576.txt	LTP278	ltpFR2	3	23	CRIB	407	n/a	n/a	0	0	0
5072558	WORD	wordpools/wasnorm_wordpool_576.txt	LTP278	ltpFR2	3	23	LADDER	793	n/a	n/a	0	0	0
5075079	WORD	wordpools/wasnorm_wordpool_576.txt	LTP278	ltpFR2	3	23	MASK	876	n/a	n/a	0	0	0
5077743	WORD	wordpools/wasnorm_wordpool_576.txt	LTP278	ltpFR2	3	23	STATUE	1374	n/a	n/a	0	0	0
5080299	WORD	wordpools/wasnorm_wordpool_576.txt	LTP278	ltpFR2	3	23	CHAMPAGNE	278	n/a	n/a	0	0	0
5082841	WORD	wordpools/wasnorm_wordpool_576.txt	LTP278	ltpFR2	3	23	GANGSTER	620	n/a	n/a	0	0	0
5085285	WORD	wordpools/wasnorm_wordpool_576.txt	LTP278	ltpFR2	3	23	SLOPE	1328	n/a	n/a	0	0	0
5087714	WORD	wordpools/wasnorm_wordpool_576.txt	LTP278	ltpFR2	3	23	BARREL	91	n/a	n/a	0	0	0
5090258	WORD	wordpools/wasnorm_wordpool_576.txt	LTP278	ltpFR2	3	23	VICTIM	1562	n/a	n/a	0	0	0
5092733	WORD	wordpools/wasnorm_wordpool_576.txt	LTP278	ltpFR2	3	23	DONOR	485	n/a	n/a	0	0	0
5095339	WORD	wordpools/wasnorm_wordpool_576.txt	LTP278	ltpFR2	3	23	FRAME	600	n/a	n/a	0	0	0
5097998	WORD	wordpools/wasnorm_wordpool_576.txt	LTP278	ltpFR2	3	23	YARN	1631	n/a	n/a	0	0	0
5100442	WORD	wordpools/wasnorm_wordpool_576.txt	LTP278	ltpFR2	3	23	WORLD	1622	n/a	n/a	0	0	0
5102052	START	n/a	LTP278	ltpFR2	3	n/a	n/a	n/a	35	n/a	n/a	n/a	n/a
5103092	DISTRACTOR	n/a	LTP278	ltpFR2	3	23	n/a	n/a	n/a	n/a	0	0	0
5103106	PROB	n/a	LTP278	ltpFR2	3	n/a	n/a	n/a	35	14	8	1	5
5104929	PROB	n/a	LTP278	ltpFR2	3	n/a	n/a	n/a	35	15	7	7	1
5106281	PROB	n/a	LTP278	ltpFR2	3	n/a	n/a	n/a	35	23	9	9	5
5108322	PROB	n/a	LTP278	ltpFR2	3	n/a	n/a	n/a	35	19	7	3	9
5109847	PROB	n/a	LTP278	ltpFR2	3	n/a	n/a	n/a	35	11	1	4	6
5111337	PROB	n/a	LTP278	ltpFR2	3	n/a	n/a	n/a	35	8	3	3	2
5113144	PROB	n/a	LTP278	ltpFR2	3	n/a	n/a	n/a	35	19	7	3	9
5114495	PROB	n/a	LTP278	ltpFR2	3	n/a	n/a	n/a	35	12	3	4	5
5117255	PROB	n/a	LTP278	ltpFR2	3	n/a	n/a	n/a	35	14	6	3	5
5119213	PROB	n/a	LTP278	ltpFR2	3	n/a	n/a	n/a	35	14	2	6	6
5120818	PROB	n/a	LTP278	ltpFR2	3	n/a	n/a	n/a	35	6	1	3	2
5122010	PROB	n/a	LTP278	ltpFR2	3	n/a	n/a	n/a	35	22	7	6	9
5126052	STOP	n/a	LTP278	ltpFR2	3	n/a	n/a	n/a	35	n/a	n/a	n/a	n/a
5127979	REC_START	n/a	LTP278	ltpFR2	3	23	n/a	n/a	n/a	n/a	0	0	0
5219093	WORD	wordpools/wasnorm_wordpool_576.txt	LTP278	ltpFR2	3	24	EMPIRE	530	n/a	n/a	0	0	0
5221615	WORD	wordpools/wasnorm_wordpool_576.txt	LTP278	ltpFR2	3	24	HEADBAND	696	n/a	n/a	0	0	0
5224073	WORD	wordpools/wasnorm_wordpool_576.txt	LTP278	ltpFR2	3	24	AGENT	10	n/a	n/a	0	0	0
5226704	WORD	wordpools/wasnorm_wordpool_576.txt	LTP278	ltpFR2	3	24	COMET	353	n/a	n/a	0	0	0
5229332	WORD	wordpools/wasnorm_wordpool_576.txt	LTP278	ltpFR2	3	24	BOYFRIEND	162	n/a	n/a	0	0	0
5231891	WORD	wordpools/wasnorm_wordpool_576.txt	LTP278	ltpFR2	3	24	PREACHER	1119	n/a	n/a	0	0	0
5234630	WORD	wordpools/wasnorm_wordpool_576.txt	LTP278	ltpFR2	3	24	CHURCH	307	n/a	n/a	0	0	0
5237145	WORD	wordpools/wasnorm_wordpool_576.txt	LTP278	ltpFR2	3	24	TUNNEL	1519	n/a	n/a	0	0	0
5239921	WORD	wordpools/wasnorm_wordpool_576.txt	LTP278	ltpFR2	3	24	FRUIT	610	n/a	n/a	0	0	0
5242681	WORD	wordpools/wasnorm_wordpool_576.txt	LTP278	ltpFR2	3	24	BANKER	84	n/a	n/a	0	0	0
5245254	WORD	wordpools/wasnorm_wordpool_576.txt	LTP278	ltpFR2	3	24	FLESH	579	n/a	n/a	0	0	0
5247700	WORD	wordpools/wasnorm_wordpool_576.txt	LTP278	ltpFR2	3	24	SPACE	1345	n/a	n/a	0	0	0
5250361	WORD	wordpools/wasnorm_wordpool_576.txt	LTP278	ltpFR2	3	24	MONEY	908	n/a	n/a	0	0	0
5253155	WORD	wordpools/wasnorm_wordpool_576.txt	LTP278	ltpFR2	3	24	CAPTIVE	240	n/a	n/a	0	0	0
5255760	WORD	wordpools/wasnorm_wordpool_576.txt	LTP278	ltpFR2	3	24	VALLEY	1545	n/a	n/a	0	0	0
5258258	WORD	wordpools/wasnorm_wordpool_576.txt	LTP278	ltpFR2	3	24	SUMMIT	1405	n/a	n/a	0	0	0
5261029	WORD	wordpools/wasnorm_wordpool_576.txt	LTP278	ltpFR2	3	24	VAGRANT	1544	n/a	n/a	0	0	0
5263461	WORD	wordpools/wasnorm_wordpool_576.txt	LTP278	ltpFR2	3	24	STAPLE	1371	n/a	n/a	0	0	0
5265948	WORD	wordpools/wasnorm_wordpool_576.txt	LTP278	ltpFR2	3	24	DANDRUFF	439	n/a	n/a	0	0	0
5268663	WORD	wordpools/wasnorm_wordpool_576.txt	LTP278	ltpFR2	3	24	LEOPARD	812	n/a	n/a	0	0	0
5271102	WORD	wordpools/wasnorm_wordpool_576.txt	LTP278	ltpFR2	3	24	WHISKERS	1605	n/a	n/a	0	0	0
5273916	WORD	wordpools/wasnorm_wordpool_576.txt	LTP278	ltpFR2	3	24	RECEIPT	1173	n/a	n/a	0	0	0
5276343	WORD	wordpools/wasnorm_wordpool_576.txt	LTP278	ltpFR2	3	24	ATOM	55	n/a	n/a	0	0	0
5279103	WORD	wordpools/wasnorm_wordpool_576.txt	LTP278	ltpFR2	3	24	CASKET	255	n/a	n/a	0	0	0
5280721	START	n/a	LTP278	ltpFR2	3	n/a	n/a	n/a	36	n/a	n/a	n/a	n/a
5281776	DISTRACTOR	n/a	LTP278	ltpFR2	3	24	n/a	n/a	n/a	n/a	0	0	0
5281791	PROB	n/a	LTP278	ltpFR2	3	n/a	n/a	n/a	36	13	5	6	2
5284352	PROB	n/a	LTP278	ltpFR2	3	n/a	n/a	n/a	36	20	9	8	3
5287212	PROB	n/a	LTP278	ltpFR2	3	n/a	n/a	n/a	36	15	4	5	6
5289838	PROB	n/a	LTP278	ltpFR2	3	n/a	n/a	n/a	36	9	6	1	2
5291009	PROB	n/a	LTP278	ltpFR2	3	n/a	n/a	n/a	36	11	5	4	2
5292883	PROB	n/a	LTP278	ltpFR2	3	n/a	n/a	n/a	36	16	8	3	5
5294740	PROB	n/a	LTP278	ltpFR2	3	n/a	n/a	n/a	36	21	3	9	9
5296201	PROB	n/a	LTP278	ltpFR2	3	n/a	n/a	n/a	36	13	4	5	4
5297718	PROB	n/a	LTP278	ltpFR2	3	n/a	n/a	n/a	36	14	5	2	7
5299442	PROB	n/a	LTP278	ltpFR2	3	n/a	n/a	n/a	36	13	1	8	4
5301265	PROB	n/a	LTP278	ltpFR2	3	n/a	n/a	n/a	36	9	4	2	3
5303269	STOP	n/a	LTP278	ltpFR2	3	n/a	n/a	n/a	36	n/a	n/a	n/a	n/a
5306519	REC_START	n/a	LTP278	ltpFR2	3	24	n/a	n/a	n/a	n/a	0	0	0
5311521	REC_WORD	wordpools/wasnorm_wordpool_576.txt	LTP278	ltpFR2	3	24	HEADBAND	696	n/a	n/a	0	0	0
5313041	REC_WORD	wordpools/wasnorm_wordpool_576.txt	LTP278	ltpFR2	3	24	BOYFRIEND	162	n/a	n/a	0	0	0
5328587	REC_WORD	wordpools/wasnorm_wordpool_576.txt	LTP278	ltpFR2	3	24	AGENT	10	n/a	n/a	0	0	0
5388030	SESS_END	n/a	LTP278	ltpFR2	3	24	n/a	n/a	n/a	n/a	0	0	0
