mstime	trial_type	stim_file	subject	experiment	session	trial	task	item_name	item_num	recog_conf	resp	color_b	color_g	color_r	case	font
0	SESS_START	n/a	LTP100	ltpFR	4	n/a	n/a	n/a	n/a	3	n/a	n/a	n/a	n/a	n/a	n/a
96794	WORD	wordpools/wasnorm_wordpool.txt	LTP100	ltpFR	4	1	1	STEREO	1378	n/a	0	0	0.5869140625	0.422607421875	lower	../fonts/amplitud.ttf
100747	WORD	wordpools/wasnorm_wordpool.txt	LTP100	ltpFR	4	1	1	TIGER	1467	n/a	1	0	0.5869140625	0.422607421875	lower	../fonts/amplitud.ttf
104668	WORD	wordpools/wasnorm_wordpool.txt	LTP100	ltpFR	4	1	0	WARRIOR	1589	n/a	0	1	0.412841796875	0.57763671875	upper	../fonts/zerothre.ttf
108846	WORD	wordpools/wasnorm_wordpool.txt	LTP100	ltpFR	4	1	0	ENEMY	534	n/a	1	1	0.412841796875	0.57763671875	upper	../fonts/zerothre.ttf
113041	WORD	wordpools/wasnorm_wordpool.txt	LTP100	ltpFR	4	1	0	REFRIGERATOR	1179	n/a	1	1	0.412841796875	0.57763671875	upper	../fonts/zerothre.ttf
117112	WORD	wordpools/wasnorm_wordpool.txt	LTP100	ltpFR	4	1	0	SNACK	1331	n/a	0	1	0.412841796875	0.57763671875	upper	../fonts/zerothre.ttf
121090	WORD	wordpools/wasnorm_wordpool.txt	LTP100	ltpFR	4	1	0	FUDGE	611	n/a	0	1	0.412841796875	0.57763671875	upper	../fonts/zerothre.ttf
125086	WORD	wordpools/wasnorm_wordpool.txt	LTP100	ltpFR	4	1	0	FLUTE	585	n/a	0	1	0.412841796875	0.57763671875	upper	../fonts/zerothre.ttf
129164	WORD	wordpools/wasnorm_wordpool.txt	LTP100	ltpFR	4	1	1	ICEBERG	731	n/a	0	0	0.5869140625	0.422607421875	lower	../fonts/amplitud.ttf
133284	WORD	wordpools/wasnorm_wordpool.txt	LTP100	ltpFR	4	1	1	BLANKET	135	n/a	0	0	0.5869140625	0.422607421875	lower	../fonts/amplitud.ttf
137105	WORD	wordpools/wasnorm_wordpool.txt	LTP100	ltpFR	4	1	1	OCTOPUS	971	n/a	1	0	0.5869140625	0.422607421875	lower	../fonts/amplitud.ttf
141109	WORD	wordpools/wasnorm_wordpool.txt	LTP100	ltpFR	4	1	1	ADULT	8	n/a	1	0	0.5869140625	0.422607421875	lower	../fonts/amplitud.ttf
145071	WORD	wordpools/wasnorm_wordpool.txt	LTP100	ltpFR	4	1	1	TRENCH	1503	n/a	0	0	0.5869140625	0.422607421875	lower	../fonts/amplitud.ttf
149149	WORD	wordpools/wasnorm_wordpool.txt	LTP100	ltpFR	4	1	1	MERMAID	887	n/a	1	0	0.5869140625	0.422607421875	lower	../fonts/amplitud.ttf
153012	WORD	wordpools/wasnorm_wordpool.txt	LTP100	ltpFR	4	1	0	UMBRELLA	1534	n/a	0	1	0.412841796875	0.57763671875	upper	../fonts/zerothre.ttf
156974	WORD	wordpools/wasnorm_wordpool.txt	LTP100	ltpFR	4	1	0	HAIL	676	n/a	0	1	0.412841796875	0.57763671875	upper	../fonts/zerothre.ttf
162934	REC_START	n/a	LTP100	ltpFR	4	1	n/a	n/a	n/a	n/a	n/a	n/a	n/a	n/a	n/a	n/a
164695	REC_WORD	wordpools/wasnorm_wordpool.txt	LTP100	ltpFR	4	1	0	HAIL	676	n/a	0	n/a	n/a	n/a	n/a	n/a
165318	REC_WORD	wordpools/wasnorm_wordpool.txt	LTP100	ltpFR	4	1	0	UMBRELLA	1534	n/a	0	n/a	n/a	n/a	n/a	n/a
166770	REC_WORD	wordpools/wasnorm_wordpool.txt	LTP100	ltpFR	4	1	1	STEREO	1378	n/a	0	n/a	n/a	n/a	n/a	n/a
168207	REC_WORD	wordpools/wasnorm_wordpool.txt	LTP100	ltpFR	4	1	0	REFRIGERATOR	1179	n/a	1	n/a	n/a	n/a	n/a	n/a
171285	REC_WORD	wordpools/wasnorm_wordpool.txt	LTP100	ltpFR	4	1	1	MERMAID	887	n/a	1	n/a	n/a	n/a	n/a	n/a
173225	REC_WORD	wordpools/wasnorm_wordpool.txt	LTP100	ltpFR	4	1	0	ENEMY	534	n/a	1	n/a	n/a	n/a	n/a	n/a
174373	REC_WORD	wordpools/wasnorm_wordpool.txt	LTP100	ltpFR	4	1	1	ADULT	8	n/a	1	n/a	n/a	n/a	n/a	n/a
178434	REC_WORD	wordpools/wasnorm_wordpool.txt	LTP100	ltpFR	4	1	1	TIGER	1467	n/a	1	n/a	n/a	n/a	n/a	n/a
184220	REC_WORD	wordpools/wasnorm_wordpool.txt	LTP100	ltpFR	4	1	0	FLUTE	585	n/a	0	n/a	n/a	n/a	n/a	n/a
196103	REC_WORD	wordpools/wasnorm_wordpool.txt	LTP100	ltpFR	4	1	0	FUDGE	611	n/a	0	n/a	n/a	n/a	n/a	n/a
201820	REC_WORD	wordpools/wasnorm_wordpool.txt	LTP100	ltpFR	4	1	0	SNACK	1331	n/a	0	n/a	n/a	n/a	n/a	n/a
215400	REC_WORD	wordpools/wasnorm_wordpool.txt	LTP100	ltpFR	4	1	1	OCTOPUS	971	n/a	1	n/a	n/a	n/a	n/a	n/a
229862	REC_WORD	wordpools/wasnorm_wordpool.txt	LTP100	ltpFR	4	1	0	WARRIOR	1589	n/a	0	n/a	n/a	n/a	n/a	n/a
248759	WORD	wordpools/wasnorm_wordpool.txt	LTP100	ltpFR	4	2	0	SCROLL	1257	n/a	0	1	0.412841796875	0.57763671875	upper	../fonts/zerothre.ttf
252746	WORD	wordpools/wasnorm_wordpool.txt	LTP100	ltpFR	4	2	0	PENCIL	1042	n/a	0	1	0.412841796875	0.57763671875	upper	../fonts/zerothre.ttf
256683	WORD	wordpools/wasnorm_wordpool.txt	LTP100	ltpFR	4	2	0	MATTRESS	879	n/a	1	1	0.412841796875	0.57763671875	upper	../fonts/zerothre.ttf
260637	WORD	wordpools/wasnorm_wordpool.txt	LTP100	ltpFR	4	2	0	PERISCOPE	1050	n/a	0	1	0.412841796875	0.57763671875	upper	../fonts/zerothre.ttf
264682	WORD	wordpools/wasnorm_wordpool.txt	LTP100	ltpFR	4	2	1	NOTEBOOK	959	n/a	0	0	0.5869140625	0.422607421875	lower	../fonts/amplitud.ttf
268844	WORD	wordpools/wasnorm_wordpool.txt	LTP100	ltpFR	4	2	1	TWEEZERS	1526	n/a	0	0	0.5869140625	0.422607421875	lower	../fonts/amplitud.ttf
273030	WORD	wordpools/wasnorm_wordpool.txt	LTP100	ltpFR	4	2	0	ACTRESS	6	n/a	1	1	0.412841796875	0.57763671875	upper	../fonts/zerothre.ttf
277084	WORD	wordpools/wasnorm_wordpool.txt	LTP100	ltpFR	4	2	0	POSTAGE	1113	n/a	0	1	0.412841796875	0.57763671875	upper	../fonts/zerothre.ttf
281213	WORD	wordpools/wasnorm_wordpool.txt	LTP100	ltpFR	4	2	0	BOSS	152	n/a	1	1	0.412841796875	0.57763671875	upper	../fonts/zerothre.ttf
285316	WORD	wordpools/wasnorm_wordpool.txt	LTP100	ltpFR	4	2	0	ERASER	538	n/a	0	1	0.412841796875	0.57763671875	upper	../fonts/zerothre.ttf
289178	WORD	wordpools/wasnorm_wordpool.txt	LTP100	ltpFR	4	2	1	GANG	619	n/a	0	0	0.5869140625	0.422607421875	lower	../fonts/amplitud.ttf
293257	WORD	wordpools/wasnorm_wordpool.txt	LTP100	ltpFR	4	2	1	STAFF	1365	n/a	1	0	0.5869140625	0.422607421875	lower	../fonts/amplitud.ttf
297319	WORD	wordpools/wasnorm_wordpool.txt	LTP100	ltpFR	4	2	1	SCREEN	1253	n/a	0	0	0.5869140625	0.422607421875	lower	../fonts/amplitud.ttf
301339	WORD	wordpools/wasnorm_wordpool.txt	LTP100	ltpFR	4	2	1	ANTENNA	28	n/a	0	0	0.5869140625	0.422607421875	lower	../fonts/amplitud.ttf
305168	WORD	wordpools/wasnorm_wordpool.txt	LTP100	ltpFR	4	2	1	DETECTIVE	454	n/a	1	0	0.5869140625	0.422607421875	lower	../fonts/amplitud.ttf
309222	WORD	wordpools/wasnorm_wordpool.txt	LTP100	ltpFR	4	2	1	SPY	1360	n/a	1	0	0.5869140625	0.422607421875	lower	../fonts/amplitud.ttf
315199	REC_START	n/a	LTP100	ltpFR	4	2	n/a	n/a	n/a	n/a	n/a	n/a	n/a	n/a	n/a	n/a
316565	REC_WORD	wordpools/wasnorm_wordpool.txt	LTP100	ltpFR	4	2	1	SCREEN	1253	n/a	0	n/a	n/a	n/a	n/a	n/a
317410	REC_WORD	wordpools/wasnorm_wordpool.txt	LTP100	ltpFR	4	2	1	ANTENNA	28	n/a	0	n/a	n/a	n/a	n/a	n/a
318277	REC_WORD	wordpools/wasnorm_wordpool.txt	LTP100	ltpFR	4	2	1	DETECTIVE	454	n/a	1	n/a	n/a	n/a	n/a	n/a
319320	REC_WORD	wordpools/wasnorm_wordpool.txt	LTP100	ltpFR	4	2	1	SPY	1360	n/a	1	n/a	n/a	n/a	n/a	n/a
325400	REC_WORD	wordpools/wasnorm_wordpool.txt	LTP100	ltpFR	4	2	1	STAFF	1365	n/a	1	n/a	n/a	n/a	n/a	n/a
348119	REC_WORD	wordpools/wasnorm_wordpool.txt	LTP100	ltpFR	4	2	0	UMBRELLA	1534	n/a	0	n/a	n/a	n/a	n/a	n/a
369211	REC_WORD	wordpools/wasnorm_wordpool.txt	LTP100	ltpFR	4	2	0	SCROLL	1257	n/a	0	n/a	n/a	n/a	n/a	n/a
370383	REC_WORD	wordpools/wasnorm_wordpool.txt	LTP100	ltpFR	4	2	0	PENCIL	1042	n/a	0	n/a	n/a	n/a	n/a	n/a
375327	REC_WORD	wordpools/wasnorm_wordpool.txt	LTP100	ltpFR	4	2	1	GANG	619	n/a	0	n/a	n/a	n/a	n/a	n/a
402905	WORD	wordpools/wasnorm_wordpool.txt	LTP100	ltpFR	4	3	-1	BRACELET	163	n/a	-1	1	1.0	1.0	upper	../fonts/Verdana.ttf
407041	WORD	wordpools/wasnorm_wordpool.txt	LTP100	ltpFR	4	3	-1	OATMEAL	967	n/a	-1	1	1.0	1.0	upper	../fonts/Verdana.ttf
410929	WORD	wordpools/wasnorm_wordpool.txt	LTP100	ltpFR	4	3	-1	CHEST	295	n/a	-1	1	1.0	1.0	upper	../fonts/Verdana.ttf
414991	WORD	wordpools/wasnorm_wordpool.txt	LTP100	ltpFR	4	3	-1	INTESTINE	742	n/a	-1	1	1.0	1.0	upper	../fonts/Verdana.ttf
419186	WORD	wordpools/wasnorm_wordpool.txt	LTP100	ltpFR	4	3	-1	COMMANDER	354	n/a	-1	1	1.0	1.0	upper	../fonts/Verdana.ttf
423339	WORD	wordpools/wasnorm_wordpool.txt	LTP100	ltpFR	4	3	-1	FLEET	578	n/a	-1	1	1.0	1.0	upper	../fonts/Verdana.ttf
427518	WORD	wordpools/wasnorm_wordpool.txt	LTP100	ltpFR	4	3	-1	CRYSTAL	418	n/a	-1	1	1.0	1.0	upper	../fonts/Verdana.ttf
431521	WORD	wordpools/wasnorm_wordpool.txt	LTP100	ltpFR	4	3	-1	POLICE	1098	n/a	-1	1	1.0	1.0	upper	../fonts/Verdana.ttf
435558	WORD	wordpools/wasnorm_wordpool.txt	LTP100	ltpFR	4	3	-1	CHAPEL	280	n/a	-1	1	1.0	1.0	upper	../fonts/Verdana.ttf
439554	WORD	wordpools/wasnorm_wordpool.txt	LTP100	ltpFR	4	3	-1	VELVET	1555	n/a	-1	1	1.0	1.0	upper	../fonts/Verdana.ttf
443482	WORD	wordpools/wasnorm_wordpool.txt	LTP100	ltpFR	4	3	-1	FLASHLIGHT	575	n/a	-1	1	1.0	1.0	upper	../fonts/Verdana.ttf
447320	WORD	wordpools/wasnorm_wordpool.txt	LTP100	ltpFR	4	3	-1	JOKER	759	n/a	-1	1	1.0	1.0	upper	../fonts/Verdana.ttf
451198	WORD	wordpools/wasnorm_wordpool.txt	LTP100	ltpFR	4	3	-1	AUTOMOBILE	62	n/a	-1	1	1.0	1.0	upper	../fonts/Verdana.ttf
455052	WORD	wordpools/wasnorm_wordpool.txt	LTP100	ltpFR	4	3	-1	MECHANIC	884	n/a	-1	1	1.0	1.0	upper	../fonts/Verdana.ttf
458973	WORD	wordpools/wasnorm_wordpool.txt	LTP100	ltpFR	4	3	-1	CAFETERIA	217	n/a	-1	1	1.0	1.0	upper	../fonts/Verdana.ttf
462885	WORD	wordpools/wasnorm_wordpool.txt	LTP100	ltpFR	4	3	-1	CATHEDRAL	260	n/a	-1	1	1.0	1.0	upper	../fonts/Verdana.ttf
468928	REC_START	n/a	LTP100	ltpFR	4	3	n/a	n/a	n/a	n/a	n/a	n/a	n/a	n/a	n/a	n/a
470449	REC_WORD	wordpools/wasnorm_wordpool.txt	LTP100	ltpFR	4	3	-1	CATHEDRAL	260	n/a	-1	n/a	n/a	n/a	n/a	n/a
471676	REC_WORD	wordpools/wasnorm_wordpool.txt	LTP100	ltpFR	4	3	-1	MECHANIC	884	n/a	-1	n/a	n/a	n/a	n/a	n/a
473458	REC_WORD	wordpools/wasnorm_wordpool.txt	LTP100	ltpFR	4	3	-1	AUTOMOBILE	62	n/a	-1	n/a	n/a	n/a	n/a	n/a
474595	REC_WORD	wordpools/wasnorm_wordpool.txt	LTP100	ltpFR	4	3	-1	JOKER	759	n/a	-1	n/a	n/a	n/a	n/a	n/a
477583	REC_WORD	wordpools/wasnorm_wordpool.txt	LTP100	ltpFR	4	3	-1	CAFETERIA	217	n/a	-1	n/a	n/a	n/a	n/a	n/a
479623	REC_WORD	wordpools/wasnorm_wordpool.txt	LTP100	ltpFR	4	3	-1	CHEST	295	n/a	-1	n/a	n/a	n/a	n/a	n/a
481858	REC_WORD	wordpools/wasnorm_wordpool.txt	LTP100	ltpFR	4	3	-1	CHAPEL	280	n/a	-1	n/a	n/a	n/a	n/a	n/a
484512	REC_WORD	wordpools/wasnorm_wordpool.txt	LTP100	ltpFR	4	3	-1	OATMEAL	967	n/a	-1	n/a	n/a	n/a	n/a	n/a
490798	REC_WORD	wordpools/wasnorm_wordpool.txt	LTP100	ltpFR	4	3	-1	POLICE	1098	n/a	-1	n/a	n/a	n/a	n/a	n/a
495482	REC_WORD	wordpools/wasnorm_wordpool.txt	LTP100	ltpFR	4	3	-1	CRYSTAL	418	n/a	-1	n/a	n/a	n/a	n/a	n/a
512853	REC_WORD	wordpools/wasnorm_wordpool.txt	LTP100	ltpFR	4	3	-1	BRACELET	163	n/a	-1	n/a	n/a	n/a	n/a	n/a
561029	WORD	wordpools/wasnorm_wordpool.txt	LTP100	ltpFR	4	4	0	BEARD	107	n/a	0	1	0.412841796875	0.57763671875	upper	../fonts/zerothre.ttf
564883	WORD	wordpools/wasnorm_wordpool.txt	LTP100	ltpFR	4	4	0	KITTEN	780	n/a	0	1	0.412841796875	0.57763671875	upper	../fonts/zerothre.ttf
568987	WORD	wordpools/wasnorm_wordpool.txt	LTP100	ltpFR	4	4	0	TACK	1428	n/a	0	1	0.412841796875	0.57763671875	upper	../fonts/zerothre.ttf
572932	WORD	wordpools/wasnorm_wordpool.txt	LTP100	ltpFR	4	4	0	HAY	693	n/a	0	1	0.412841796875	0.57763671875	upper	../fonts/zerothre.ttf
576894	WORD	wordpools/wasnorm_wordpool.txt	LTP100	ltpFR	4	4	0	HORSE	719	n/a	1	1	0.412841796875	0.57763671875	upper	../fonts/zerothre.ttf
581006	WORD	wordpools/wasnorm_wordpool.txt	LTP100	ltpFR	4	4	0	BILL	126	n/a	0	1	0.412841796875	0.57763671875	upper	../fonts/zerothre.ttf
585209	WORD	wordpools/wasnorm_wordpool.txt	LTP100	ltpFR	4	4	0	CHIEF	298	n/a	1	1	0.412841796875	0.57763671875	upper	../fonts/zerothre.ttf
589172	WORD	wordpools/wasnorm_wordpool.txt	LTP100	ltpFR	4	4	0	SAUCER	1237	n/a	1	1	0.412841796875	0.57763671875	upper	../fonts/zerothre.ttf
593150	WORD	wordpools/wasnorm_wordpool.txt	LTP100	ltpFR	4	4	0	CORD	379	n/a	1	1	0.412841796875	0.57763671875	upper	../fonts/zerothre.ttf
597179	WORD	wordpools/wasnorm_wordpool.txt	LTP100	ltpFR	4	4	0	CITY	314	n/a	1	1	0.412841796875	0.57763671875	upper	../fonts/zerothre.ttf
601041	WORD	wordpools/wasnorm_wordpool.txt	LTP100	ltpFR	4	4	0	PHILOSOPHER	1054	n/a	1	1	0.412841796875	0.57763671875	upper	../fonts/zerothre.ttf
605078	WORD	wordpools/wasnorm_wordpool.txt	LTP100	ltpFR	4	4	0	TREE	1502	n/a	1	1	0.412841796875	0.57763671875	upper	../fonts/zerothre.ttf
608957	WORD	wordpools/wasnorm_wordpool.txt	LTP100	ltpFR	4	4	0	CONTAINER	366	n/a	0	1	0.412841796875	0.57763671875	upper	../fonts/zerothre.ttf
613085	WORD	wordpools/wasnorm_wordpool.txt	LTP100	ltpFR	4	4	0	RIDER	1191	n/a	1	1	0.412841796875	0.57763671875	upper	../fonts/zerothre.ttf
616939	WORD	wordpools/wasnorm_wordpool.txt	LTP100	ltpFR	4	4	0	BUGGY	188	n/a	1	1	0.412841796875	0.57763671875	upper	../fonts/zerothre.ttf
620893	WORD	wordpools/wasnorm_wordpool.txt	LTP100	ltpFR	4	4	0	BAY	102	n/a	1	1	0.412841796875	0.57763671875	upper	../fonts/zerothre.ttf
626878	REC_START	n/a	LTP100	ltpFR	4	4	n/a	n/a	n/a	n/a	n/a	n/a	n/a	n/a	n/a	n/a
628369	REC_WORD	wordpools/wasnorm_wordpool.txt	LTP100	ltpFR	4	4	0	BAY	102	n/a	1	n/a	n/a	n/a	n/a	n/a
629452	REC_WORD	wordpools/wasnorm_wordpool.txt	LTP100	ltpFR	4	4	0	BUGGY	188	n/a	1	n/a	n/a	n/a	n/a	n/a
631826	REC_WORD	wordpools/wasnorm_wordpool.txt	LTP100	ltpFR	4	4	0	SAUCER	1237	n/a	1	n/a	n/a	n/a	n/a	n/a
632869	REC_WORD	wordpools/wasnorm_wordpool.txt	LTP100	ltpFR	4	4	0	CORD	379	n/a	1	n/a	n/a	n/a	n/a	n/a
635733	REC_WORD	wordpools/wasnorm_wordpool.txt	LTP100	ltpFR	4	4	0	PHILOSOPHER	1054	n/a	1	n/a	n/a	n/a	n/a	n/a
639260	REC_WORD	wordpools/wasnorm_wordpool.txt	LTP100	ltpFR	4	4	0	CHIEF	298	n/a	1	n/a	n/a	n/a	n/a	n/a
646324	REC_WORD	wordpools/wasnorm_wordpool.txt	LTP100	ltpFR	4	4	n/a	TICK	1463	n/a	n/a	n/a	n/a	n/a	n/a	n/a
647067	REC_WORD	wordpools/wasnorm_wordpool.txt	LTP100	ltpFR	4	4	0	HAY	693	n/a	0	n/a	n/a	n/a	n/a	n/a
648823	REC_WORD	wordpools/wasnorm_wordpool.txt	LTP100	ltpFR	4	4	0	BEARD	107	n/a	0	n/a	n/a	n/a	n/a	n/a
649641	REC_WORD	wordpools/wasnorm_wordpool.txt	LTP100	ltpFR	4	4	0	KITTEN	780	n/a	0	n/a	n/a	n/a	n/a	n/a
656930	REC_WORD	wordpools/wasnorm_wordpool.txt	LTP100	ltpFR	4	4	-1	COMMANDER	354	n/a	-1	n/a	n/a	n/a	n/a	n/a
682645	REC_WORD	wordpools/wasnorm_wordpool.txt	LTP100	ltpFR	4	4	0	CITY	314	n/a	1	n/a	n/a	n/a	n/a	n/a
691666	REC_WORD	wordpools/wasnorm_wordpool.txt	LTP100	ltpFR	4	4	0	BILL	126	n/a	0	n/a	n/a	n/a	n/a	n/a
718829	WORD	wordpools/wasnorm_wordpool.txt	LTP100	ltpFR	4	5	0	HARE	688	n/a	0	1	0.412841796875	0.57763671875	upper	../fonts/zerothre.ttf
722916	WORD	wordpools/wasnorm_wordpool.txt	LTP100	ltpFR	4	5	0	SHELL	1281	n/a	0	1	0.412841796875	0.57763671875	upper	../fonts/zerothre.ttf
726978	WORD	wordpools/wasnorm_wordpool.txt	LTP100	ltpFR	4	5	0	MULE	931	n/a	1	1	0.412841796875	0.57763671875	upper	../fonts/zerothre.ttf
730948	WORD	wordpools/wasnorm_wordpool.txt	LTP100	ltpFR	4	5	0	PATIENT	1024	n/a	1	1	0.412841796875	0.57763671875	upper	../fonts/zerothre.ttf
735035	WORD	wordpools/wasnorm_wordpool.txt	LTP100	ltpFR	4	5	0	SUNRISE	1407	n/a	1	1	0.412841796875	0.57763671875	upper	../fonts/zerothre.ttf
738914	WORD	wordpools/wasnorm_wordpool.txt	LTP100	ltpFR	4	5	0	DENIM	446	n/a	1	1	0.412841796875	0.57763671875	upper	../fonts/zerothre.ttf
742743	WORD	wordpools/wasnorm_wordpool.txt	LTP100	ltpFR	4	5	1	DRESS	495	n/a	0	0	0.5869140625	0.422607421875	lower	../fonts/amplitud.ttf
746738	WORD	wordpools/wasnorm_wordpool.txt	LTP100	ltpFR	4	5	1	DOLPHIN	483	n/a	1	0	0.5869140625	0.422607421875	lower	../fonts/amplitud.ttf
750626	WORD	wordpools/wasnorm_wordpool.txt	LTP100	ltpFR	4	5	1	SPHINX	1349	n/a	1	0	0.5869140625	0.422607421875	lower	../fonts/amplitud.ttf
754471	WORD	wordpools/wasnorm_wordpool.txt	LTP100	ltpFR	4	5	1	MOVIE	927	n/a	0	0	0.5869140625	0.422607421875	lower	../fonts/amplitud.ttf
758500	WORD	wordpools/wasnorm_wordpool.txt	LTP100	ltpFR	4	5	0	FOUNTAIN	597	n/a	1	1	0.412841796875	0.57763671875	upper	../fonts/zerothre.ttf
762487	WORD	wordpools/wasnorm_wordpool.txt	LTP100	ltpFR	4	5	0	SUBMARINE	1398	n/a	1	1	0.412841796875	0.57763671875	upper	../fonts/zerothre.ttf
766441	WORD	wordpools/wasnorm_wordpool.txt	LTP100	ltpFR	4	5	1	COCOON	339	n/a	0	0	0.5869140625	0.422607421875	lower	../fonts/amplitud.ttf
770394	WORD	wordpools/wasnorm_wordpool.txt	LTP100	ltpFR	4	5	1	MUMMY	932	n/a	0	0	0.5869140625	0.422607421875	lower	../fonts/amplitud.ttf
774223	WORD	wordpools/wasnorm_wordpool.txt	LTP100	ltpFR	4	5	1	VEST	1559	n/a	0	0	0.5869140625	0.422607421875	lower	../fonts/amplitud.ttf
778335	WORD	wordpools/wasnorm_wordpool.txt	LTP100	ltpFR	4	5	1	SEAL	1262	n/a	1	0	0.5869140625	0.422607421875	lower	../fonts/amplitud.ttf
784337	REC_START	n/a	LTP100	ltpFR	4	5	n/a	n/a	n/a	n/a	n/a	n/a	n/a	n/a	n/a	n/a
786681	REC_WORD	wordpools/wasnorm_wordpool.txt	LTP100	ltpFR	4	5	1	COCOON	339	n/a	0	n/a	n/a	n/a	n/a	n/a
787644	REC_WORD	wordpools/wasnorm_wordpool.txt	LTP100	ltpFR	4	5	1	MUMMY	932	n/a	0	n/a	n/a	n/a	n/a	n/a
788417	REC_WORD	wordpools/wasnorm_wordpool.txt	LTP100	ltpFR	4	5	1	VEST	1559	n/a	0	n/a	n/a	n/a	n/a	n/a
789550	REC_WORD	wordpools/wasnorm_wordpool.txt	LTP100	ltpFR	4	5	1	SEAL	1262	n/a	1	n/a	n/a	n/a	n/a	n/a
792418	REC_WORD	wordpools/wasnorm_wordpool.txt	LTP100	ltpFR	4	5	1	MOVIE	927	n/a	0	n/a	n/a	n/a	n/a	n/a
799038	REC_WORD	wordpools/wasnorm_wordpool.txt	LTP100	ltpFR	4	5	0	HARE	688	n/a	0	n/a	n/a	n/a	n/a	n/a
800844	REC_WORD	wordpools/wasnorm_wordpool.txt	LTP100	ltpFR	4	5	1	DOLPHIN	483	n/a	1	n/a	n/a	n/a	n/a	n/a
803318	REC_WORD	wordpools/wasnorm_wordpool.txt	LTP100	ltpFR	4	5	0	SUNRISE	1407	n/a	1	n/a	n/a	n/a	n/a	n/a
810398	REC_WORD	wordpools/wasnorm_wordpool.txt	LTP100	ltpFR	4	5	0	DENIM	446	n/a	1	n/a	n/a	n/a	n/a	n/a
846904	REC_WORD	wordpools/wasnorm_wordpool.txt	LTP100	ltpFR	4	5	1	SPHINX	1349	n/a	1	n/a	n/a	n/a	n/a	n/a
850271	REC_WORD	wordpools/wasnorm_wordpool.txt	LTP100	ltpFR	4	5	1	COCOON	339	n/a	0	n/a	n/a	n/a	n/a	n/a
866116	WORD	wordpools/wasnorm_wordpool.txt	LTP100	ltpFR	4	6	0	RAG	1160	n/a	0	1	0.412841796875	0.57763671875	upper	../fonts/zerothre.ttf
870153	WORD	wordpools/wasnorm_wordpool.txt	LTP100	ltpFR	4	6	0	SILK	1307	n/a	0	1	0.412841796875	0.57763671875	upper	../fonts/zerothre.ttf
874041	WORD	wordpools/wasnorm_wordpool.txt	LTP100	ltpFR	4	6	1	ARTIST	43	n/a	1	0	0.5869140625	0.422607421875	lower	../fonts/amplitud.ttf
878161	WORD	wordpools/wasnorm_wordpool.txt	LTP100	ltpFR	4	6	1	POT	1114	n/a	0	0	0.5869140625	0.422607421875	lower	../fonts/amplitud.ttf
882306	WORD	wordpools/wasnorm_wordpool.txt	LTP100	ltpFR	4	6	1	BURGLAR	200	n/a	1	0	0.5869140625	0.422607421875	lower	../fonts/amplitud.ttf
886276	WORD	wordpools/wasnorm_wordpool.txt	LTP100	ltpFR	4	6	1	CABIN	211	n/a	0	0	0.5869140625	0.422607421875	lower	../fonts/amplitud.ttf
890130	WORD	wordpools/wasnorm_wordpool.txt	LTP100	ltpFR	4	6	0	FUR	615	n/a	0	1	0.412841796875	0.57763671875	upper	../fonts/zerothre.ttf
893984	WORD	wordpools/wasnorm_wordpool.txt	LTP100	ltpFR	4	6	0	DOG	480	n/a	1	1	0.412841796875	0.57763671875	upper	../fonts/zerothre.ttf
897796	WORD	wordpools/wasnorm_wordpool.txt	LTP100	ltpFR	4	6	0	XEROX	1628	n/a	1	1	0.412841796875	0.57763671875	upper	../fonts/zerothre.ttf
901966	WORD	wordpools/wasnorm_wordpool.txt	LTP100	ltpFR	4	6	0	TRANSPLANT	1496	n/a	1	1	0.412841796875	0.57763671875	upper	../fonts/zerothre.ttf
905787	WORD	wordpools/wasnorm_wordpool.txt	LTP100	ltpFR	4	6	1	LUMBER	848	n/a	0	0	0.5869140625	0.422607421875	lower	../fonts/amplitud.ttf
909791	WORD	wordpools/wasnorm_wordpool.txt	LTP100	ltpFR	4	6	1	PAINTER	1004	n/a	1	0	0.5869140625	0.422607421875	lower	../fonts/amplitud.ttf
913803	WORD	wordpools/wasnorm_wordpool.txt	LTP100	ltpFR	4	6	1	CHAMPION	279	n/a	1	0	0.5869140625	0.422607421875	lower	../fonts/amplitud.ttf
917690	WORD	wordpools/wasnorm_wordpool.txt	LTP100	ltpFR	4	6	1	YOLK	1633	n/a	0	0	0.5869140625	0.422607421875	lower	../fonts/amplitud.ttf
921810	WORD	wordpools/wasnorm_wordpool.txt	LTP100	ltpFR	4	6	0	PIGEON	1065	n/a	0	1	0.412841796875	0.57763671875	upper	../fonts/zerothre.ttf
925714	WORD	wordpools/wasnorm_wordpool.txt	LTP100	ltpFR	4	6	0	QUAIL	1147	n/a	0	1	0.412841796875	0.57763671875	upper	../fonts/zerothre.ttf
931433	REC_START	n/a	LTP100	ltpFR	4	6	n/a	n/a	n/a	n/a	n/a	n/a	n/a	n/a	n/a	n/a
933358	REC_WORD	wordpools/wasnorm_wordpool.txt	LTP100	ltpFR	4	6	0	PIGEON	1065	n/a	0	n/a	n/a	n/a	n/a	n/a
934196	REC_WORD	wordpools/wasnorm_wordpool.txt	LTP100	ltpFR	4	6	0	QUAIL	1147	n/a	0	n/a	n/a	n/a	n/a	n/a
935389	REC_WORD	wordpools/wasnorm_wordpool.txt	LTP100	ltpFR	4	6	1	CHAMPION	279	n/a	1	n/a	n/a	n/a	n/a	n/a
944917	REC_WORD	wordpools/wasnorm_wordpool.txt	LTP100	ltpFR	4	6	1	ARTIST	43	n/a	1	n/a	n/a	n/a	n/a	n/a
946000	REC_WORD	wordpools/wasnorm_wordpool.txt	LTP100	ltpFR	4	6	1	PAINTER	1004	n/a	1	n/a	n/a	n/a	n/a	n/a
951013	REC_WORD	wordpools/wasnorm_wordpool.txt	LTP100	ltpFR	4	6	1	CABIN	211	n/a	0	n/a	n/a	n/a	n/a	n/a
954450	REC_WORD	wordpools/wasnorm_wordpool.txt	LTP100	ltpFR	4	6	0	TRANSPLANT	1496	n/a	1	n/a	n/a	n/a	n/a	n/a
958561	REC_WORD	wordpools/wasnorm_wordpool.txt	LTP100	ltpFR	4	6	0	XEROX	1628	n/a	1	n/a	n/a	n/a	n/a	n/a
984592	REC_WORD	wordpools/wasnorm_wordpool.txt	LTP100	ltpFR	4	6	0	DOG	480	n/a	1	n/a	n/a	n/a	n/a	n/a
985475	REC_WORD	wordpools/wasnorm_wordpool.txt	LTP100	ltpFR	4	6	0	FUR	615	n/a	0	n/a	n/a	n/a	n/a	n/a
1013096	WORD	wordpools/wasnorm_wordpool.txt	LTP100	ltpFR	4	7	1	GROCERIES	663	n/a	0	0	0.5869140625	0.422607421875	lower	../fonts/amplitud.ttf
1017174	WORD	wordpools/wasnorm_wordpool.txt	LTP100	ltpFR	4	7	1	REEF	1177	n/a	0	0	0.5869140625	0.422607421875	lower	../fonts/amplitud.ttf
1021111	WORD	wordpools/wasnorm_wordpool.txt	LTP100	ltpFR	4	7	1	GRAVEL	659	n/a	0	0	0.5869140625	0.422607421875	lower	../fonts/amplitud.ttf
1025315	WORD	wordpools/wasnorm_wordpool.txt	LTP100	ltpFR	4	7	1	PASSENGER	1020	n/a	0	0	0.5869140625	0.422607421875	lower	../fonts/amplitud.ttf
1029244	WORD	wordpools/wasnorm_wordpool.txt	LTP100	ltpFR	4	7	1	CONE	363	n/a	0	0	0.5869140625	0.422607421875	lower	../fonts/amplitud.ttf
1033072	WORD	wordpools/wasnorm_wordpool.txt	LTP100	ltpFR	4	7	1	ARTERY	41	n/a	0	0	0.5869140625	0.422607421875	lower	../fonts/amplitud.ttf
1037143	WORD	wordpools/wasnorm_wordpool.txt	LTP100	ltpFR	4	7	0	BRIDGE	174	n/a	1	1	0.412841796875	0.57763671875	upper	../fonts/zerothre.ttf
1041246	WORD	wordpools/wasnorm_wordpool.txt	LTP100	ltpFR	4	7	0	CARTON	251	n/a	1	1	0.412841796875	0.57763671875	upper	../fonts/zerothre.ttf
1045142	WORD	wordpools/wasnorm_wordpool.txt	LTP100	ltpFR	4	7	0	CAMEL	223	n/a	1	1	0.412841796875	0.57763671875	upper	../fonts/zerothre.ttf
1049062	WORD	wordpools/wasnorm_wordpool.txt	LTP100	ltpFR	4	7	0	ORGAN	984	n/a	0	1	0.412841796875	0.57763671875	upper	../fonts/zerothre.ttf
1053182	WORD	wordpools/wasnorm_wordpool.txt	LTP100	ltpFR	4	7	1	ICE	730	n/a	0	0	0.5869140625	0.422607421875	lower	../fonts/amplitud.ttf
1057003	WORD	wordpools/wasnorm_wordpool.txt	LTP100	ltpFR	4	7	1	DRYER	503	n/a	0	0	0.5869140625	0.422607421875	lower	../fonts/amplitud.ttf
1061156	WORD	wordpools/wasnorm_wordpool.txt	LTP100	ltpFR	4	7	0	WARDROBE	1587	n/a	1	1	0.412841796875	0.57763671875	upper	../fonts/zerothre.ttf
1065060	WORD	wordpools/wasnorm_wordpool.txt	LTP100	ltpFR	4	7	0	SHORE	1291	n/a	1	1	0.412841796875	0.57763671875	upper	../fonts/zerothre.ttf
1069047	WORD	wordpools/wasnorm_wordpool.txt	LTP100	ltpFR	4	7	0	FOE	587	n/a	1	1	0.412841796875	0.57763671875	upper	../fonts/zerothre.ttf
1073101	WORD	wordpools/wasnorm_wordpool.txt	LTP100	ltpFR	4	7	0	FRIEND	606	n/a	1	1	0.412841796875	0.57763671875	upper	../fonts/zerothre.ttf
1078820	REC_START	n/a	LTP100	ltpFR	4	7	n/a	n/a	n/a	n/a	n/a	n/a	n/a	n/a	n/a	n/a
1080616	REC_WORD	wordpools/wasnorm_wordpool.txt	LTP100	ltpFR	4	7	0	FRIEND	606	n/a	1	n/a	n/a	n/a	n/a	n/a
1081564	REC_WORD	wordpools/wasnorm_wordpool.txt	LTP100	ltpFR	4	7	0	FOE	587	n/a	1	n/a	n/a	n/a	n/a	n/a
1082447	REC_WORD	wordpools/wasnorm_wordpool.txt	LTP100	ltpFR	4	7	0	WARDROBE	1587	n/a	1	n/a	n/a	n/a	n/a	n/a
1084312	REC_WORD	wordpools/wasnorm_wordpool.txt	LTP100	ltpFR	4	7	1	ICE	730	n/a	0	n/a	n/a	n/a	n/a	n/a
1086742	REC_WORD	wordpools/wasnorm_wordpool.txt	LTP100	ltpFR	4	7	1	ARTERY	41	n/a	0	n/a	n/a	n/a	n/a	n/a
1088762	REC_WORD	wordpools/wasnorm_wordpool.txt	LTP100	ltpFR	4	7	0	ORGAN	984	n/a	0	n/a	n/a	n/a	n/a	n/a
1091790	REC_WORD	wordpools/wasnorm_wordpool.txt	LTP100	ltpFR	4	7	0	CAMEL	223	n/a	1	n/a	n/a	n/a	n/a	n/a
1093392	REC_WORD	wordpools/wasnorm_wordpool.txt	LTP100	ltpFR	4	7	0	SHORE	1291	n/a	1	n/a	n/a	n/a	n/a	n/a
1165826	WORD	wordpools/wasnorm_wordpool.txt	LTP100	ltpFR	4	8	0	GUARDIAN	668	n/a	1	1	0.412841796875	0.57763671875	upper	../fonts/zerothre.ttf
1169739	WORD	wordpools/wasnorm_wordpool.txt	LTP100	ltpFR	4	8	0	LIEUTENANT	818	n/a	1	1	0.412841796875	0.57763671875	upper	../fonts/zerothre.ttf
1173825	WORD	wordpools/wasnorm_wordpool.txt	LTP100	ltpFR	4	8	0	PRIEST	1122	n/a	1	1	0.412841796875	0.57763671875	upper	../fonts/zerothre.ttf
1177754	WORD	wordpools/wasnorm_wordpool.txt	LTP100	ltpFR	4	8	0	SALIVA	1226	n/a	0	1	0.412841796875	0.57763671875	upper	../fonts/zerothre.ttf
1181808	WORD	wordpools/wasnorm_wordpool.txt	LTP100	ltpFR	4	8	0	ASPIRIN	47	n/a	0	1	0.412841796875	0.57763671875	upper	../fonts/zerothre.ttf
1185795	WORD	wordpools/wasnorm_wordpool.txt	LTP100	ltpFR	4	8	0	KETTLE	772	n/a	0	1	0.412841796875	0.57763671875	upper	../fonts/zerothre.ttf
1189873	WORD	wordpools/wasnorm_wordpool.txt	LTP100	ltpFR	4	8	0	MUG	930	n/a	0	1	0.412841796875	0.57763671875	upper	../fonts/zerothre.ttf
1193777	WORD	wordpools/wasnorm_wordpool.txt	LTP100	ltpFR	4	8	0	SADDLE	1221	n/a	1	1	0.412841796875	0.57763671875	upper	../fonts/zerothre.ttf
1197923	WORD	wordpools/wasnorm_wordpool.txt	LTP100	ltpFR	4	8	0	SKUNK	1321	n/a	0	1	0.412841796875	0.57763671875	upper	../fonts/zerothre.ttf
1201835	WORD	wordpools/wasnorm_wordpool.txt	LTP100	ltpFR	4	8	0	CLOVE	329	n/a	0	1	0.412841796875	0.57763671875	upper	../fonts/zerothre.ttf
1205780	WORD	wordpools/wasnorm_wordpool.txt	LTP100	ltpFR	4	8	0	ROACH	1195	n/a	0	1	0.412841796875	0.57763671875	upper	../fonts/zerothre.ttf
1209900	WORD	wordpools/wasnorm_wordpool.txt	LTP100	ltpFR	4	8	0	SPIDER	1351	n/a	0	1	0.412841796875	0.57763671875	upper	../fonts/zerothre.ttf
1214029	WORD	wordpools/wasnorm_wordpool.txt	LTP100	ltpFR	4	8	0	TABLET	1427	n/a	0	1	0.412841796875	0.57763671875	upper	../fonts/zerothre.ttf
1217966	WORD	wordpools/wasnorm_wordpool.txt	LTP100	ltpFR	4	8	0	BARN	89	n/a	1	1	0.412841796875	0.57763671875	upper	../fonts/zerothre.ttf
1221903	WORD	wordpools/wasnorm_wordpool.txt	LTP100	ltpFR	4	8	0	PUCK	1138	n/a	1	1	0.412841796875	0.57763671875	upper	../fonts/zerothre.ttf
1225923	WORD	wordpools/wasnorm_wordpool.txt	LTP100	ltpFR	4	8	0	CHEERLEADER	288	n/a	1	1	0.412841796875	0.57763671875	upper	../fonts/zerothre.ttf
1231925	REC_START	n/a	LTP100	ltpFR	4	8	n/a	n/a	n/a	n/a	n/a	n/a	n/a	n/a	n/a	n/a
1233007	REC_WORD	wordpools/wasnorm_wordpool.txt	LTP100	ltpFR	4	8	0	CHEERLEADER	288	n/a	1	n/a	n/a	n/a	n/a	n/a
1233865	REC_WORD	wordpools/wasnorm_wordpool.txt	LTP100	ltpFR	4	8	0	PUCK	1138	n/a	1	n/a	n/a	n/a	n/a	n/a
1236704	REC_WORD	wordpools/wasnorm_wordpool.txt	LTP100	ltpFR	4	8	0	KETTLE	772	n/a	0	n/a	n/a	n/a	n/a	n/a
1237472	REC_WORD	wordpools/wasnorm_wordpool.txt	LTP100	ltpFR	4	8	0	MUG	930	n/a	0	n/a	n/a	n/a	n/a	n/a
1240969	REC_WORD	wordpools/wasnorm_wordpool.txt	LTP100	ltpFR	4	8	0	GUARDIAN	668	n/a	1	n/a	n/a	n/a	n/a	n/a
1241540	REC_WORD	wordpools/wasnorm_wordpool.txt	LTP100	ltpFR	4	8	0	PRIEST	1122	n/a	1	n/a	n/a	n/a	n/a	n/a
1246002	REC_WORD	wordpools/wasnorm_wordpool.txt	LTP100	ltpFR	4	8	0	LIEUTENANT	818	n/a	1	n/a	n/a	n/a	n/a	n/a
1246760	REC_WORD	wordpools/wasnorm_wordpool.txt	LTP100	ltpFR	4	8	0	SALIVA	1226	n/a	0	n/a	n/a	n/a	n/a	n/a
1265728	REC_WORD	wordpools/wasnorm_wordpool.txt	LTP100	ltpFR	4	8	0	BARN	89	n/a	1	n/a	n/a	n/a	n/a	n/a
1274992	REC_WORD	wordpools/wasnorm_wordpool.txt	LTP100	ltpFR	4	8	0	PUCK	1138	n/a	1	n/a	n/a	n/a	n/a	n/a
1322877	WORD	wordpools/wasnorm_wordpool.txt	LTP100	ltpFR	4	9	-1	TRUMPET	1513	n/a	-1	1	1.0	1.0	upper	../fonts/Verdana.ttf
1326839	WORD	wordpools/wasnorm_wordpool.txt	LTP100	ltpFR	4	9	-1	CITIZEN	312	n/a	-1	1	1.0	1.0	upper	../fonts/Verdana.ttf
1330685	WORD	wordpools/wasnorm_wordpool.txt	LTP100	ltpFR	4	9	-1	CAP	236	n/a	-1	1	1.0	1.0	upper	../fonts/Verdana.ttf
1334722	WORD	wordpools/wasnorm_wordpool.txt	LTP100	ltpFR	4	9	-1	TUXEDO	1525	n/a	-1	1	1.0	1.0	upper	../fonts/Verdana.ttf
1338676	WORD	wordpools/wasnorm_wordpool.txt	LTP100	ltpFR	4	9	-1	CAR	241	n/a	-1	1	1.0	1.0	upper	../fonts/Verdana.ttf
1342496	WORD	wordpools/wasnorm_wordpool.txt	LTP100	ltpFR	4	9	-1	WAGON	1578	n/a	-1	1	1.0	1.0	upper	../fonts/Verdana.ttf
1346591	WORD	wordpools/wasnorm_wordpool.txt	LTP100	ltpFR	4	9	-1	CARRIAGE	248	n/a	-1	1	1.0	1.0	upper	../fonts/Verdana.ttf
1350703	WORD	wordpools/wasnorm_wordpool.txt	LTP100	ltpFR	4	9	-1	GUARD	667	n/a	-1	1	1.0	1.0	upper	../fonts/Verdana.ttf
1354524	WORD	wordpools/wasnorm_wordpool.txt	LTP100	ltpFR	4	9	-1	OBOE	969	n/a	-1	1	1.0	1.0	upper	../fonts/Verdana.ttf
1358552	WORD	wordpools/wasnorm_wordpool.txt	LTP100	ltpFR	4	9	-1	WIRE	1616	n/a	-1	1	1.0	1.0	upper	../fonts/Verdana.ttf
1362739	WORD	wordpools/wasnorm_wordpool.txt	LTP100	ltpFR	4	9	-1	HIGHWAY	707	n/a	-1	1	1.0	1.0	upper	../fonts/Verdana.ttf
1366776	WORD	wordpools/wasnorm_wordpool.txt	LTP100	ltpFR	4	9	-1	LADY	794	n/a	-1	1	1.0	1.0	upper	../fonts/Verdana.ttf
1370896	WORD	wordpools/wasnorm_wordpool.txt	LTP100	ltpFR	4	9	-1	TELEPHONE	1445	n/a	-1	1	1.0	1.0	upper	../fonts/Verdana.ttf
1374767	WORD	wordpools/wasnorm_wordpool.txt	LTP100	ltpFR	4	9	-1	WORLD	1622	n/a	-1	1	1.0	1.0	upper	../fonts/Verdana.ttf
1378754	WORD	wordpools/wasnorm_wordpool.txt	LTP100	ltpFR	4	9	-1	POPCORN	1104	n/a	-1	1	1.0	1.0	upper	../fonts/Verdana.ttf
1382808	WORD	wordpools/wasnorm_wordpool.txt	LTP100	ltpFR	4	9	-1	VIDEO	1564	n/a	-1	1	1.0	1.0	upper	../fonts/Verdana.ttf
1388502	REC_START	n/a	LTP100	ltpFR	4	9	n/a	n/a	n/a	n/a	n/a	n/a	n/a	n/a	n/a	n/a
1390432	REC_WORD	wordpools/wasnorm_wordpool.txt	LTP100	ltpFR	4	9	-1	VIDEO	1564	n/a	-1	n/a	n/a	n/a	n/a	n/a
1391470	REC_WORD	wordpools/wasnorm_wordpool.txt	LTP100	ltpFR	4	9	-1	POPCORN	1104	n/a	-1	n/a	n/a	n/a	n/a	n/a
1392488	REC_WORD	wordpools/wasnorm_wordpool.txt	LTP100	ltpFR	4	9	-1	WIRE	1616	n/a	-1	n/a	n/a	n/a	n/a	n/a
1393505	REC_WORD	wordpools/wasnorm_wordpool.txt	LTP100	ltpFR	4	9	-1	TELEPHONE	1445	n/a	-1	n/a	n/a	n/a	n/a	n/a
1394623	REC_WORD	wordpools/wasnorm_wordpool.txt	LTP100	ltpFR	4	9	-1	OBOE	969	n/a	-1	n/a	n/a	n/a	n/a	n/a
1395541	REC_WORD	wordpools/wasnorm_wordpool.txt	LTP100	ltpFR	4	9	-1	TRUMPET	1513	n/a	-1	n/a	n/a	n/a	n/a	n/a
1400270	REC_WORD	wordpools/wasnorm_wordpool.txt	LTP100	ltpFR	4	9	-1	TUXEDO	1525	n/a	-1	n/a	n/a	n/a	n/a	n/a
1402355	REC_WORD	wordpools/wasnorm_wordpool.txt	LTP100	ltpFR	4	9	-1	CAR	241	n/a	-1	n/a	n/a	n/a	n/a	n/a
1428072	REC_WORD	wordpools/wasnorm_wordpool.txt	LTP100	ltpFR	4	9	-1	GUARD	667	n/a	-1	n/a	n/a	n/a	n/a	n/a
1428875	REC_WORD	wordpools/wasnorm_wordpool.txt	LTP100	ltpFR	4	9	-1	CITIZEN	312	n/a	-1	n/a	n/a	n/a	n/a	n/a
1440618	REC_WORD	wordpools/wasnorm_wordpool.txt	LTP100	ltpFR	4	9	-1	HIGHWAY	707	n/a	-1	n/a	n/a	n/a	n/a	n/a
1486479	WORD	wordpools/wasnorm_wordpool.txt	LTP100	ltpFR	4	10	0	TURNIP	1521	n/a	0	1	0.412841796875	0.57763671875	upper	../fonts/zerothre.ttf
1490649	WORD	wordpools/wasnorm_wordpool.txt	LTP100	ltpFR	4	10	0	MARKET	871	n/a	1	1	0.412841796875	0.57763671875	upper	../fonts/zerothre.ttf
1494486	WORD	wordpools/wasnorm_wordpool.txt	LTP100	ltpFR	4	10	0	TORTOISE	1486	n/a	1	1	0.412841796875	0.57763671875	upper	../fonts/zerothre.ttf
1498565	WORD	wordpools/wasnorm_wordpool.txt	LTP100	ltpFR	4	10	0	BEET	115	n/a	0	1	0.412841796875	0.57763671875	upper	../fonts/zerothre.ttf
1502552	WORD	wordpools/wasnorm_wordpool.txt	LTP100	ltpFR	4	10	0	PAPER	1011	n/a	0	1	0.412841796875	0.57763671875	upper	../fonts/zerothre.ttf
1506689	WORD	wordpools/wasnorm_wordpool.txt	LTP100	ltpFR	4	10	0	EDITOR	516	n/a	1	1	0.412841796875	0.57763671875	upper	../fonts/zerothre.ttf
1510859	WORD	wordpools/wasnorm_wordpool.txt	LTP100	ltpFR	4	10	0	CAULIFLOWER	262	n/a	0	1	0.412841796875	0.57763671875	upper	../fonts/zerothre.ttf
1514779	WORD	wordpools/wasnorm_wordpool.txt	LTP100	ltpFR	4	10	0	TEAPOT	1442	n/a	1	1	0.412841796875	0.57763671875	upper	../fonts/zerothre.ttf
1518766	WORD	wordpools/wasnorm_wordpool.txt	LTP100	ltpFR	4	10	0	WORM	1623	n/a	0	1	0.412841796875	0.57763671875	upper	../fonts/zerothre.ttf
1522728	WORD	wordpools/wasnorm_wordpool.txt	LTP100	ltpFR	4	10	0	ARENA	37	n/a	1	1	0.412841796875	0.57763671875	upper	../fonts/zerothre.ttf
1526757	WORD	wordpools/wasnorm_wordpool.txt	LTP100	ltpFR	4	10	0	CEILING	265	n/a	1	1	0.412841796875	0.57763671875	upper	../fonts/zerothre.ttf
1530761	WORD	wordpools/wasnorm_wordpool.txt	LTP100	ltpFR	4	10	0	FLY	586	n/a	0	1	0.412841796875	0.57763671875	upper	../fonts/zerothre.ttf
1534631	WORD	wordpools/wasnorm_wordpool.txt	LTP100	ltpFR	4	10	0	AIRPLANE	12	n/a	1	1	0.412841796875	0.57763671875	upper	../fonts/zerothre.ttf
1538776	WORD	wordpools/wasnorm_wordpool.txt	LTP100	ltpFR	4	10	0	COFFEE	341	n/a	0	1	0.412841796875	0.57763671875	upper	../fonts/zerothre.ttf
1542813	WORD	wordpools/wasnorm_wordpool.txt	LTP100	ltpFR	4	10	0	COOKIE	374	n/a	0	1	0.412841796875	0.57763671875	upper	../fonts/zerothre.ttf
1546701	WORD	wordpools/wasnorm_wordpool.txt	LTP100	ltpFR	4	10	0	UNIVERSE	1540	n/a	1	1	0.412841796875	0.57763671875	upper	../fonts/zerothre.ttf
1552419	REC_START	n/a	LTP100	ltpFR	4	10	n/a	n/a	n/a	n/a	n/a	n/a	n/a	n/a	n/a	n/a
1553736	REC_WORD	wordpools/wasnorm_wordpool.txt	LTP100	ltpFR	4	10	0	UNIVERSE	1540	n/a	1	n/a	n/a	n/a	n/a	n/a
1554664	REC_WORD	wordpools/wasnorm_wordpool.txt	LTP100	ltpFR	4	10	0	COOKIE	374	n/a	0	n/a	n/a	n/a	n/a	n/a
1555676	REC_WORD	wordpools/wasnorm_wordpool.txt	LTP100	ltpFR	4	10	0	COFFEE	341	n/a	0	n/a	n/a	n/a	n/a	n/a
1557477	REC_WORD	wordpools/wasnorm_wordpool.txt	LTP100	ltpFR	4	10	0	TEAPOT	1442	n/a	1	n/a	n/a	n/a	n/a	n/a
1565873	REC_WORD	wordpools/wasnorm_wordpool.txt	LTP100	ltpFR	4	10	0	WORM	1623	n/a	0	n/a	n/a	n/a	n/a	n/a
1567724	REC_WORD	wordpools/wasnorm_wordpool.txt	LTP100	ltpFR	4	10	0	ARENA	37	n/a	1	n/a	n/a	n/a	n/a	n/a
1570947	REC_WORD	wordpools/wasnorm_wordpool.txt	LTP100	ltpFR	4	10	0	TURNIP	1521	n/a	0	n/a	n/a	n/a	n/a	n/a
1572229	REC_WORD	wordpools/wasnorm_wordpool.txt	LTP100	ltpFR	4	10	0	BEET	115	n/a	0	n/a	n/a	n/a	n/a	n/a
1582101	REC_WORD	wordpools/wasnorm_wordpool.txt	LTP100	ltpFR	4	10	0	CAULIFLOWER	262	n/a	0	n/a	n/a	n/a	n/a	n/a
1584830	REC_WORD	wordpools/wasnorm_wordpool.txt	LTP100	ltpFR	4	10	0	PAPER	1011	n/a	0	n/a	n/a	n/a	n/a	n/a
1617945	REC_WORD	wordpools/wasnorm_wordpool.txt	LTP100	ltpFR	4	10	0	AIRPLANE	12	n/a	1	n/a	n/a	n/a	n/a	n/a
1646559	WORD	wordpools/wasnorm_wordpool.txt	LTP100	ltpFR	4	11	1	MUSTARD	935	n/a	0	0	0.5869140625	0.422607421875	lower	../fonts/amplitud.ttf
1650730	WORD	wordpools/wasnorm_wordpool.txt	LTP100	ltpFR	4	11	1	PICTURE	1061	n/a	0	0	0.5869140625	0.422607421875	lower	../fonts/amplitud.ttf
1654917	WORD	wordpools/wasnorm_wordpool.txt	LTP100	ltpFR	4	11	1	CHEF	290	n/a	1	0	0.5869140625	0.422607421875	lower	../fonts/amplitud.ttf
1658762	WORD	wordpools/wasnorm_wordpool.txt	LTP100	ltpFR	4	11	1	BELLY	119	n/a	0	0	0.5869140625	0.422607421875	lower	../fonts/amplitud.ttf
1662932	WORD	wordpools/wasnorm_wordpool.txt	LTP100	ltpFR	4	11	1	TYPIST	1532	n/a	1	0	0.5869140625	0.422607421875	lower	../fonts/amplitud.ttf
1667002	WORD	wordpools/wasnorm_wordpool.txt	LTP100	ltpFR	4	11	1	SECRETARY	1265	n/a	1	0	0.5869140625	0.422607421875	lower	../fonts/amplitud.ttf
1670956	WORD	wordpools/wasnorm_wordpool.txt	LTP100	ltpFR	4	11	1	WEED	1599	n/a	0	0	0.5869140625	0.422607421875	lower	../fonts/amplitud.ttf
1675093	WORD	wordpools/wasnorm_wordpool.txt	LTP100	ltpFR	4	11	1	HEDGE	699	n/a	0	0	0.5869140625	0.422607421875	lower	../fonts/amplitud.ttf
1679172	WORD	wordpools/wasnorm_wordpool.txt	LTP100	ltpFR	4	11	1	PARSLEY	1016	n/a	0	0	0.5869140625	0.422607421875	lower	../fonts/amplitud.ttf
1683342	WORD	wordpools/wasnorm_wordpool.txt	LTP100	ltpFR	4	11	1	BULLETIN	195	n/a	0	0	0.5869140625	0.422607421875	lower	../fonts/amplitud.ttf
1687512	WORD	wordpools/wasnorm_wordpool.txt	LTP100	ltpFR	4	11	1	FUNGUS	614	n/a	1	0	0.5869140625	0.422607421875	lower	../fonts/amplitud.ttf
1691358	WORD	wordpools/wasnorm_wordpool.txt	LTP100	ltpFR	4	11	1	BROOM	178	n/a	0	0	0.5869140625	0.422607421875	lower	../fonts/amplitud.ttf
1695561	WORD	wordpools/wasnorm_wordpool.txt	LTP100	ltpFR	4	11	1	SHRIMP	1297	n/a	1	0	0.5869140625	0.422607421875	lower	../fonts/amplitud.ttf
1699706	WORD	wordpools/wasnorm_wordpool.txt	LTP100	ltpFR	4	11	1	PURSE	1145	n/a	0	0	0.5869140625	0.422607421875	lower	../fonts/amplitud.ttf
1703577	WORD	wordpools/wasnorm_wordpool.txt	LTP100	ltpFR	4	11	1	DUST	508	n/a	0	0	0.5869140625	0.422607421875	lower	../fonts/amplitud.ttf
1707788	WORD	wordpools/wasnorm_wordpool.txt	LTP100	ltpFR	4	11	1	SKATE	1313	n/a	0	0	0.5869140625	0.422607421875	lower	../fonts/amplitud.ttf
1713416	REC_START	n/a	LTP100	ltpFR	4	11	n/a	n/a	n/a	n/a	n/a	n/a	n/a	n/a	n/a	n/a
1715396	REC_WORD	wordpools/wasnorm_wordpool.txt	LTP100	ltpFR	4	11	1	SHRIMP	1297	n/a	1	n/a	n/a	n/a	n/a	n/a
1716464	REC_WORD	wordpools/wasnorm_wordpool.txt	LTP100	ltpFR	4	11	1	PURSE	1145	n/a	0	n/a	n/a	n/a	n/a	n/a
1717452	REC_WORD	wordpools/wasnorm_wordpool.txt	LTP100	ltpFR	4	11	1	DUST	508	n/a	0	n/a	n/a	n/a	n/a	n/a
1718332	REC_WORD	wordpools/wasnorm_wordpool.txt	LTP100	ltpFR	4	11	1	SKATE	1313	n/a	0	n/a	n/a	n/a	n/a	n/a
1721078	REC_WORD	wordpools/wasnorm_wordpool.txt	LTP100	ltpFR	4	11	1	TYPIST	1532	n/a	1	n/a	n/a	n/a	n/a	n/a
1721969	REC_WORD	wordpools/wasnorm_wordpool.txt	LTP100	ltpFR	4	11	1	SECRETARY	1265	n/a	1	n/a	n/a	n/a	n/a	n/a
1724615	REC_WORD	wordpools/wasnorm_wordpool.txt	LTP100	ltpFR	4	11	1	CHEF	290	n/a	1	n/a	n/a	n/a	n/a	n/a
1727918	REC_WORD	wordpools/wasnorm_wordpool.txt	LTP100	ltpFR	4	11	1	PICTURE	1061	n/a	0	n/a	n/a	n/a	n/a	n/a
1731370	REC_WORD	wordpools/wasnorm_wordpool.txt	LTP100	ltpFR	4	11	1	MUSTARD	935	n/a	0	n/a	n/a	n/a	n/a	n/a
1736972	REC_WORD	wordpools/wasnorm_wordpool.txt	LTP100	ltpFR	4	11	1	HEDGE	699	n/a	0	n/a	n/a	n/a	n/a	n/a
1738977	REC_WORD	wordpools/wasnorm_wordpool.txt	LTP100	ltpFR	4	11	1	PARSLEY	1016	n/a	0	n/a	n/a	n/a	n/a	n/a
1742126	REC_WORD	wordpools/wasnorm_wordpool.txt	LTP100	ltpFR	4	11	1	WEED	1599	n/a	0	n/a	n/a	n/a	n/a	n/a
1773734	REC_WORD	wordpools/wasnorm_wordpool.txt	LTP100	ltpFR	4	11	1	FUNGUS	614	n/a	1	n/a	n/a	n/a	n/a	n/a
1798009	WORD	wordpools/wasnorm_wordpool.txt	LTP100	ltpFR	4	12	1	RAM	1165	n/a	1	0	0.5869140625	0.422607421875	lower	../fonts/amplitud.ttf
1801837	WORD	wordpools/wasnorm_wordpool.txt	LTP100	ltpFR	4	12	1	CATTLE	261	n/a	1	0	0.5869140625	0.422607421875	lower	../fonts/amplitud.ttf
1806016	WORD	wordpools/wasnorm_wordpool.txt	LTP100	ltpFR	4	12	1	ROOMMATE	1207	n/a	1	0	0.5869140625	0.422607421875	lower	../fonts/amplitud.ttf
1809853	WORD	wordpools/wasnorm_wordpool.txt	LTP100	ltpFR	4	12	0	POTATO	1115	n/a	0	1	0.412841796875	0.57763671875	upper	../fonts/zerothre.ttf
1813948	WORD	wordpools/wasnorm_wordpool.txt	LTP100	ltpFR	4	12	0	PARCEL	1012	n/a	0	1	0.412841796875	0.57763671875	upper	../fonts/zerothre.ttf
1818052	WORD	wordpools/wasnorm_wordpool.txt	LTP100	ltpFR	4	12	0	CLIMBER	323	n/a	1	1	0.412841796875	0.57763671875	upper	../fonts/zerothre.ttf
1821981	WORD	wordpools/wasnorm_wordpool.txt	LTP100	ltpFR	4	12	0	SWITCH	1422	n/a	0	1	0.412841796875	0.57763671875	upper	../fonts/zerothre.ttf
1825909	WORD	wordpools/wasnorm_wordpool.txt	LTP100	ltpFR	4	12	1	FARM	552	n/a	0	0	0.5869140625	0.422607421875	lower	../fonts/amplitud.ttf
1830063	WORD	wordpools/wasnorm_wordpool.txt	LTP100	ltpFR	4	12	1	PITCHFORK	1078	n/a	0	0	0.5869140625	0.422607421875	lower	../fonts/amplitud.ttf
1833942	WORD	wordpools/wasnorm_wordpool.txt	LTP100	ltpFR	4	12	1	SHAMPOO	1274	n/a	0	0	0.5869140625	0.422607421875	lower	../fonts/amplitud.ttf
1837887	WORD	wordpools/wasnorm_wordpool.txt	LTP100	ltpFR	4	12	0	GLASSES	640	n/a	0	1	0.412841796875	0.57763671875	upper	../fonts/zerothre.ttf
1841699	WORD	wordpools/wasnorm_wordpool.txt	LTP100	ltpFR	4	12	0	LOVER	846	n/a	1	1	0.412841796875	0.57763671875	upper	../fonts/zerothre.ttf
1845903	WORD	wordpools/wasnorm_wordpool.txt	LTP100	ltpFR	4	12	0	KNEE	784	n/a	0	1	0.412841796875	0.57763671875	upper	../fonts/zerothre.ttf
1849773	WORD	wordpools/wasnorm_wordpool.txt	LTP100	ltpFR	4	12	0	ELBOW	520	n/a	0	1	0.412841796875	0.57763671875	upper	../fonts/zerothre.ttf
1853852	WORD	wordpools/wasnorm_wordpool.txt	LTP100	ltpFR	4	12	1	MUFFIN	929	n/a	0	0	0.5869140625	0.422607421875	lower	../fonts/amplitud.ttf
1857822	WORD	wordpools/wasnorm_wordpool.txt	LTP100	ltpFR	4	12	1	STY	1397	n/a	0	0	0.5869140625	0.422607421875	lower	../fonts/amplitud.ttf
1863433	REC_START	n/a	LTP100	ltpFR	4	12	n/a	n/a	n/a	n/a	n/a	n/a	n/a	n/a	n/a	n/a
1865912	REC_WORD	wordpools/wasnorm_wordpool.txt	LTP100	ltpFR	4	12	0	KNEE	784	n/a	0	n/a	n/a	n/a	n/a	n/a
1866561	REC_WORD	wordpools/wasnorm_wordpool.txt	LTP100	ltpFR	4	12	0	ELBOW	520	n/a	0	n/a	n/a	n/a	n/a	n/a
1867598	REC_WORD	wordpools/wasnorm_wordpool.txt	LTP100	ltpFR	4	12	1	MUFFIN	929	n/a	0	n/a	n/a	n/a	n/a	n/a
1868491	REC_WORD	wordpools/wasnorm_wordpool.txt	LTP100	ltpFR	4	12	1	STY	1397	n/a	0	n/a	n/a	n/a	n/a	n/a
1869903	REC_WORD	wordpools/wasnorm_wordpool.txt	LTP100	ltpFR	4	12	0	LOVER	846	n/a	1	n/a	n/a	n/a	n/a	n/a
1870711	REC_WORD	wordpools/wasnorm_wordpool.txt	LTP100	ltpFR	4	12	1	SHAMPOO	1274	n/a	0	n/a	n/a	n/a	n/a	n/a
1872797	REC_WORD	wordpools/wasnorm_wordpool.txt	LTP100	ltpFR	4	12	0	PARCEL	1012	n/a	0	n/a	n/a	n/a	n/a	n/a
1878833	REC_WORD	wordpools/wasnorm_wordpool.txt	LTP100	ltpFR	4	12	1	RAM	1165	n/a	1	n/a	n/a	n/a	n/a	n/a
1880065	REC_WORD	wordpools/wasnorm_wordpool.txt	LTP100	ltpFR	4	12	1	CATTLE	261	n/a	1	n/a	n/a	n/a	n/a	n/a
1880888	REC_WORD	wordpools/wasnorm_wordpool.txt	LTP100	ltpFR	4	12	1	FARM	552	n/a	0	n/a	n/a	n/a	n/a	n/a
1915245	REC_WORD	wordpools/wasnorm_wordpool.txt	LTP100	ltpFR	4	12	0	GLASSES	640	n/a	0	n/a	n/a	n/a	n/a	n/a
1939020	REST_REWET	n/a	LTP100	ltpFR	4	12	n/a	n/a	n/a	n/a	n/a	n/a	n/a	n/a	n/a	n/a
2643643	WORD	wordpools/wasnorm_wordpool.txt	LTP100	ltpFR	4	13	1	TULIP	1517	n/a	0	0	0.5869140625	0.422607421875	lower	../fonts/amplitud.ttf
2647754	WORD	wordpools/wasnorm_wordpool.txt	LTP100	ltpFR	4	13	1	BUFFALO	186	n/a	1	0	0.5869140625	0.422607421875	lower	../fonts/amplitud.ttf
2651883	WORD	wordpools/wasnorm_wordpool.txt	LTP100	ltpFR	4	13	1	DONKEY	484	n/a	1	0	0.5869140625	0.422607421875	lower	../fonts/amplitud.ttf
2655970	WORD	wordpools/wasnorm_wordpool.txt	LTP100	ltpFR	4	13	1	GENTLEMAN	631	n/a	1	0	0.5869140625	0.422607421875	lower	../fonts/amplitud.ttf
2659824	WORD	wordpools/wasnorm_wordpool.txt	LTP100	ltpFR	4	13	1	PERSONNEL	1053	n/a	1	0	0.5869140625	0.422607421875	lower	../fonts/amplitud.ttf
2663661	WORD	wordpools/wasnorm_wordpool.txt	LTP100	ltpFR	4	13	1	TRUCK	1512	n/a	0	0	0.5869140625	0.422607421875	lower	../fonts/amplitud.ttf
2667515	WORD	wordpools/wasnorm_wordpool.txt	LTP100	ltpFR	4	13	1	PAINTING	1005	n/a	0	0	0.5869140625	0.422607421875	lower	../fonts/amplitud.ttf
2671369	WORD	wordpools/wasnorm_wordpool.txt	LTP100	ltpFR	4	13	1	PORTRAIT	1111	n/a	0	0	0.5869140625	0.422607421875	lower	../fonts/amplitud.ttf
2675372	WORD	wordpools/wasnorm_wordpool.txt	LTP100	ltpFR	4	13	1	JUGGLER	763	n/a	1	0	0.5869140625	0.422607421875	lower	../fonts/amplitud.ttf
2679334	WORD	wordpools/wasnorm_wordpool.txt	LTP100	ltpFR	4	13	1	CANAL	226	n/a	0	0	0.5869140625	0.422607421875	lower	../fonts/amplitud.ttf
2683163	WORD	wordpools/wasnorm_wordpool.txt	LTP100	ltpFR	4	13	1	PLANT	1083	n/a	0	0	0.5869140625	0.422607421875	lower	../fonts/amplitud.ttf
2687075	WORD	wordpools/wasnorm_wordpool.txt	LTP100	ltpFR	4	13	1	STAKE	1368	n/a	0	0	0.5869140625	0.422607421875	lower	../fonts/amplitud.ttf
2691270	WORD	wordpools/wasnorm_wordpool.txt	LTP100	ltpFR	4	13	1	KIDNEY	776	n/a	0	0	0.5869140625	0.422607421875	lower	../fonts/amplitud.ttf
2695091	WORD	wordpools/wasnorm_wordpool.txt	LTP100	ltpFR	4	13	1	PEBBLE	1035	n/a	0	0	0.5869140625	0.422607421875	lower	../fonts/amplitud.ttf
2699103	WORD	wordpools/wasnorm_wordpool.txt	LTP100	ltpFR	4	13	1	DIVER	476	n/a	0	0	0.5869140625	0.422607421875	lower	../fonts/amplitud.ttf
2702924	WORD	wordpools/wasnorm_wordpool.txt	LTP100	ltpFR	4	13	1	HEART	697	n/a	0	0	0.5869140625	0.422607421875	lower	../fonts/amplitud.ttf
2708859	REC_START	n/a	LTP100	ltpFR	4	13	n/a	n/a	n/a	n/a	n/a	n/a	n/a	n/a	n/a	n/a
2711328	REC_WORD	wordpools/wasnorm_wordpool.txt	LTP100	ltpFR	4	13	1	PEBBLE	1035	n/a	0	n/a	n/a	n/a	n/a	n/a
2712241	REC_WORD	wordpools/wasnorm_wordpool.txt	LTP100	ltpFR	4	13	1	DIVER	476	n/a	0	n/a	n/a	n/a	n/a	n/a
2713179	REC_WORD	wordpools/wasnorm_wordpool.txt	LTP100	ltpFR	4	13	1	HEART	697	n/a	0	n/a	n/a	n/a	n/a	n/a
2714182	REC_WORD	wordpools/wasnorm_wordpool.txt	LTP100	ltpFR	4	13	1	KIDNEY	776	n/a	0	n/a	n/a	n/a	n/a	n/a
2715618	REC_WORD	wordpools/wasnorm_wordpool.txt	LTP100	ltpFR	4	13	1	BUFFALO	186	n/a	1	n/a	n/a	n/a	n/a	n/a
2716870	REC_WORD	wordpools/wasnorm_wordpool.txt	LTP100	ltpFR	4	13	1	TULIP	1517	n/a	0	n/a	n/a	n/a	n/a	n/a
2725551	REC_WORD	wordpools/wasnorm_wordpool.txt	LTP100	ltpFR	4	13	1	GENTLEMAN	631	n/a	1	n/a	n/a	n/a	n/a	n/a
2734885	REC_WORD	wordpools/wasnorm_wordpool.txt	LTP100	ltpFR	4	13	1	DONKEY	484	n/a	1	n/a	n/a	n/a	n/a	n/a
2749097	REC_WORD	wordpools/wasnorm_wordpool.txt	LTP100	ltpFR	4	13	1	PLANT	1083	n/a	0	n/a	n/a	n/a	n/a	n/a
2756949	REC_WORD	wordpools/wasnorm_wordpool.txt	LTP100	ltpFR	4	13	1	PERSONNEL	1053	n/a	1	n/a	n/a	n/a	n/a	n/a
2798055	WORD	wordpools/wasnorm_wordpool.txt	LTP100	ltpFR	4	14	-1	JAW	751	n/a	-1	1	1.0	1.0	upper	../fonts/Verdana.ttf
2802133	WORD	wordpools/wasnorm_wordpool.txt	LTP100	ltpFR	4	14	-1	FRANCE	601	n/a	-1	1	1.0	1.0	upper	../fonts/Verdana.ttf
2806054	WORD	wordpools/wasnorm_wordpool.txt	LTP100	ltpFR	4	14	-1	SCALPEL	1243	n/a	-1	1	1.0	1.0	upper	../fonts/Verdana.ttf
2810266	WORD	wordpools/wasnorm_wordpool.txt	LTP100	ltpFR	4	14	-1	PAW	1029	n/a	-1	1	1.0	1.0	upper	../fonts/Verdana.ttf
2814153	WORD	wordpools/wasnorm_wordpool.txt	LTP100	ltpFR	4	14	-1	SHED	1277	n/a	-1	1	1.0	1.0	upper	../fonts/Verdana.ttf
2818231	WORD	wordpools/wasnorm_wordpool.txt	LTP100	ltpFR	4	14	-1	BABY	64	n/a	-1	1	1.0	1.0	upper	../fonts/Verdana.ttf
2822227	WORD	wordpools/wasnorm_wordpool.txt	LTP100	ltpFR	4	14	-1	CRIB	407	n/a	-1	1	1.0	1.0	upper	../fonts/Verdana.ttf
2826114	WORD	wordpools/wasnorm_wordpool.txt	LTP100	ltpFR	4	14	-1	RACCOON	1153	n/a	-1	1	1.0	1.0	upper	../fonts/Verdana.ttf
2830018	WORD	wordpools/wasnorm_wordpool.txt	LTP100	ltpFR	4	14	-1	GROUND	666	n/a	-1	1	1.0	1.0	upper	../fonts/Verdana.ttf
2833996	WORD	wordpools/wasnorm_wordpool.txt	LTP100	ltpFR	4	14	-1	PADDING	999	n/a	-1	1	1.0	1.0	upper	../fonts/Verdana.ttf
2837883	WORD	wordpools/wasnorm_wordpool.txt	LTP100	ltpFR	4	14	-1	NECKLACE	940	n/a	-1	1	1.0	1.0	upper	../fonts/Verdana.ttf
2842054	WORD	wordpools/wasnorm_wordpool.txt	LTP100	ltpFR	4	14	-1	PARIS	1014	n/a	-1	1	1.0	1.0	upper	../fonts/Verdana.ttf
2846124	WORD	wordpools/wasnorm_wordpool.txt	LTP100	ltpFR	4	14	-1	DORM	488	n/a	-1	1	1.0	1.0	upper	../fonts/Verdana.ttf
2850269	WORD	wordpools/wasnorm_wordpool.txt	LTP100	ltpFR	4	14	-1	BEAR	106	n/a	-1	1	1.0	1.0	upper	../fonts/Verdana.ttf
2854414	WORD	wordpools/wasnorm_wordpool.txt	LTP100	ltpFR	4	14	-1	CLAW	319	n/a	-1	1	1.0	1.0	upper	../fonts/Verdana.ttf
2858235	WORD	wordpools/wasnorm_wordpool.txt	LTP100	ltpFR	4	14	-1	MEDAL	885	n/a	-1	1	1.0	1.0	upper	../fonts/Verdana.ttf
2863854	REC_START	n/a	LTP100	ltpFR	4	14	n/a	n/a	n/a	n/a	n/a	n/a	n/a	n/a	n/a	n/a
2865999	REC_WORD	wordpools/wasnorm_wordpool.txt	LTP100	ltpFR	4	14	-1	BEAR	106	n/a	-1	n/a	n/a	n/a	n/a	n/a
2866842	REC_WORD	wordpools/wasnorm_wordpool.txt	LTP100	ltpFR	4	14	-1	CLAW	319	n/a	-1	n/a	n/a	n/a	n/a	n/a
2867770	REC_WORD	wordpools/wasnorm_wordpool.txt	LTP100	ltpFR	4	14	-1	MEDAL	885	n/a	-1	n/a	n/a	n/a	n/a	n/a
2868733	REC_WORD	wordpools/wasnorm_wordpool.txt	LTP100	ltpFR	4	14	-1	PARIS	1014	n/a	-1	n/a	n/a	n/a	n/a	n/a
2869870	REC_WORD	wordpools/wasnorm_wordpool.txt	LTP100	ltpFR	4	14	-1	FRANCE	601	n/a	-1	n/a	n/a	n/a	n/a	n/a
2873257	REC_WORD	wordpools/wasnorm_wordpool.txt	LTP100	ltpFR	4	14	-1	DORM	488	n/a	-1	n/a	n/a	n/a	n/a	n/a
2876695	REC_WORD	wordpools/wasnorm_wordpool.txt	LTP100	ltpFR	4	14	-1	JAW	751	n/a	-1	n/a	n/a	n/a	n/a	n/a
2879588	REC_WORD	wordpools/wasnorm_wordpool.txt	LTP100	ltpFR	4	14	-1	PAW	1029	n/a	-1	n/a	n/a	n/a	n/a	n/a
2881015	REC_WORD	wordpools/wasnorm_wordpool.txt	LTP100	ltpFR	4	14	-1	NECKLACE	940	n/a	-1	n/a	n/a	n/a	n/a	n/a
2896520	REC_WORD	wordpools/wasnorm_wordpool.txt	LTP100	ltpFR	4	14	-1	BEAR	106	n/a	-1	n/a	n/a	n/a	n/a	n/a
2900550	REC_WORD	wordpools/wasnorm_wordpool.txt	LTP100	ltpFR	4	14	-1	CLAW	319	n/a	-1	n/a	n/a	n/a	n/a	n/a
2948180	WORD	wordpools/wasnorm_wordpool.txt	LTP100	ltpFR	4	15	-1	OATS	968	n/a	-1	1	1.0	1.0	upper	../fonts/Verdana.ttf
2952217	WORD	wordpools/wasnorm_wordpool.txt	LTP100	ltpFR	4	15	-1	STABLE	1363	n/a	-1	1	1.0	1.0	upper	../fonts/Verdana.ttf
2956371	WORD	wordpools/wasnorm_wordpool.txt	LTP100	ltpFR	4	15	-1	MINT	898	n/a	-1	1	1.0	1.0	upper	../fonts/Verdana.ttf
2960241	WORD	wordpools/wasnorm_wordpool.txt	LTP100	ltpFR	4	15	-1	ACORN	3	n/a	-1	1	1.0	1.0	upper	../fonts/Verdana.ttf
2964212	WORD	wordpools/wasnorm_wordpool.txt	LTP100	ltpFR	4	15	-1	THICKET	1455	n/a	-1	1	1.0	1.0	upper	../fonts/Verdana.ttf
2968407	WORD	wordpools/wasnorm_wordpool.txt	LTP100	ltpFR	4	15	-1	SEA	1259	n/a	-1	1	1.0	1.0	upper	../fonts/Verdana.ttf
2972427	WORD	wordpools/wasnorm_wordpool.txt	LTP100	ltpFR	4	15	-1	SQUID	1361	n/a	-1	1	1.0	1.0	upper	../fonts/Verdana.ttf
2976398	WORD	wordpools/wasnorm_wordpool.txt	LTP100	ltpFR	4	15	-1	HOUSE	725	n/a	-1	1	1.0	1.0	upper	../fonts/Verdana.ttf
2980368	WORD	wordpools/wasnorm_wordpool.txt	LTP100	ltpFR	4	15	-1	BOXER	160	n/a	-1	1	1.0	1.0	upper	../fonts/Verdana.ttf
2984513	WORD	wordpools/wasnorm_wordpool.txt	LTP100	ltpFR	4	15	-1	GOAT	644	n/a	-1	1	1.0	1.0	upper	../fonts/Verdana.ttf
2988367	WORD	wordpools/wasnorm_wordpool.txt	LTP100	ltpFR	4	15	-1	CIGAR	308	n/a	-1	1	1.0	1.0	upper	../fonts/Verdana.ttf
2992479	WORD	wordpools/wasnorm_wordpool.txt	LTP100	ltpFR	4	15	-1	LEAF	808	n/a	-1	1	1.0	1.0	upper	../fonts/Verdana.ttf
2996591	WORD	wordpools/wasnorm_wordpool.txt	LTP100	ltpFR	4	15	-1	WALRUS	1585	n/a	-1	1	1.0	1.0	upper	../fonts/Verdana.ttf
3000694	WORD	wordpools/wasnorm_wordpool.txt	LTP100	ltpFR	4	15	-1	OFFICER	973	n/a	-1	1	1.0	1.0	upper	../fonts/Verdana.ttf
3004781	WORD	wordpools/wasnorm_wordpool.txt	LTP100	ltpFR	4	15	-1	CUFF	423	n/a	-1	1	1.0	1.0	upper	../fonts/Verdana.ttf
3008752	WORD	wordpools/wasnorm_wordpool.txt	LTP100	ltpFR	4	15	-1	CHOCOLATE	306	n/a	-1	1	1.0	1.0	upper	../fonts/Verdana.ttf
3014679	REC_START	n/a	LTP100	ltpFR	4	15	n/a	n/a	n/a	n/a	n/a	n/a	n/a	n/a	n/a	n/a
3016864	REC_WORD	wordpools/wasnorm_wordpool.txt	LTP100	ltpFR	4	15	-1	CUFF	423	n/a	-1	n/a	n/a	n/a	n/a	n/a
3017617	REC_WORD	wordpools/wasnorm_wordpool.txt	LTP100	ltpFR	4	15	-1	CHOCOLATE	306	n/a	-1	n/a	n/a	n/a	n/a	n/a
3018510	REC_WORD	wordpools/wasnorm_wordpool.txt	LTP100	ltpFR	4	15	-1	OFFICER	973	n/a	-1	n/a	n/a	n/a	n/a	n/a
3023813	REC_WORD	wordpools/wasnorm_wordpool.txt	LTP100	ltpFR	4	15	-1	GOAT	644	n/a	-1	n/a	n/a	n/a	n/a	n/a
3029934	REC_WORD	wordpools/wasnorm_wordpool.txt	LTP100	ltpFR	4	15	-1	BOXER	160	n/a	-1	n/a	n/a	n/a	n/a	n/a
3037991	REC_WORD	wordpools/wasnorm_wordpool.txt	LTP100	ltpFR	4	15	-1	THICKET	1455	n/a	-1	n/a	n/a	n/a	n/a	n/a
3101352	WORD	wordpools/wasnorm_wordpool.txt	LTP100	ltpFR	4	16	1	ICING	732	n/a	0	0	0.5869140625	0.422607421875	lower	../fonts/amplitud.ttf
3105240	WORD	wordpools/wasnorm_wordpool.txt	LTP100	ltpFR	4	16	1	CLARINET	317	n/a	0	0	0.5869140625	0.422607421875	lower	../fonts/amplitud.ttf
3109268	WORD	wordpools/wasnorm_wordpool.txt	LTP100	ltpFR	4	16	1	DRAGON	492	n/a	1	0	0.5869140625	0.422607421875	lower	../fonts/amplitud.ttf
3113247	WORD	wordpools/wasnorm_wordpool.txt	LTP100	ltpFR	4	16	1	THREAD	1460	n/a	0	0	0.5869140625	0.422607421875	lower	../fonts/amplitud.ttf
3117350	WORD	wordpools/wasnorm_wordpool.txt	LTP100	ltpFR	4	16	1	LOG	841	n/a	0	0	0.5869140625	0.422607421875	lower	../fonts/amplitud.ttf
3121213	WORD	wordpools/wasnorm_wordpool.txt	LTP100	ltpFR	4	16	1	WICK	1607	n/a	0	0	0.5869140625	0.422607421875	lower	../fonts/amplitud.ttf
3125108	WORD	wordpools/wasnorm_wordpool.txt	LTP100	ltpFR	4	16	1	CRAB	397	n/a	1	0	0.5869140625	0.422607421875	lower	../fonts/amplitud.ttf
3129170	WORD	wordpools/wasnorm_wordpool.txt	LTP100	ltpFR	4	16	1	VALLEY	1545	n/a	0	0	0.5869140625	0.422607421875	lower	../fonts/amplitud.ttf
3133090	WORD	wordpools/wasnorm_wordpool.txt	LTP100	ltpFR	4	16	1	CANYON	235	n/a	0	0	0.5869140625	0.422607421875	lower	../fonts/amplitud.ttf
3136978	WORD	wordpools/wasnorm_wordpool.txt	LTP100	ltpFR	4	16	1	FISH	571	n/a	1	0	0.5869140625	0.422607421875	lower	../fonts/amplitud.ttf
3140915	WORD	wordpools/wasnorm_wordpool.txt	LTP100	ltpFR	4	16	1	LACE	792	n/a	0	0	0.5869140625	0.422607421875	lower	../fonts/amplitud.ttf
3145110	WORD	wordpools/wasnorm_wordpool.txt	LTP100	ltpFR	4	16	1	SHOELACE	1289	n/a	0	0	0.5869140625	0.422607421875	lower	../fonts/amplitud.ttf
3149172	WORD	wordpools/wasnorm_wordpool.txt	LTP100	ltpFR	4	16	1	CAPTIVE	240	n/a	0	0	0.5869140625	0.422607421875	lower	../fonts/amplitud.ttf
3152984	WORD	wordpools/wasnorm_wordpool.txt	LTP100	ltpFR	4	16	1	DRUM	502	n/a	0	0	0.5869140625	0.422607421875	lower	../fonts/amplitud.ttf
3157104	WORD	wordpools/wasnorm_wordpool.txt	LTP100	ltpFR	4	16	1	ENGINEER	536	n/a	1	0	0.5869140625	0.422607421875	lower	../fonts/amplitud.ttf
3160925	WORD	wordpools/wasnorm_wordpool.txt	LTP100	ltpFR	4	16	1	HAMPER	682	n/a	0	0	0.5869140625	0.422607421875	lower	../fonts/amplitud.ttf
3166785	REC_START	n/a	LTP100	ltpFR	4	16	n/a	n/a	n/a	n/a	n/a	n/a	n/a	n/a	n/a	n/a
3169065	REC_WORD	wordpools/wasnorm_wordpool.txt	LTP100	ltpFR	4	16	1	VALLEY	1545	n/a	0	n/a	n/a	n/a	n/a	n/a
3169908	REC_WORD	wordpools/wasnorm_wordpool.txt	LTP100	ltpFR	4	16	1	ENGINEER	536	n/a	1	n/a	n/a	n/a	n/a	n/a
3170920	REC_WORD	wordpools/wasnorm_wordpool.txt	LTP100	ltpFR	4	16	1	HAMPER	682	n/a	0	n/a	n/a	n/a	n/a	n/a
3171948	REC_WORD	wordpools/wasnorm_wordpool.txt	LTP100	ltpFR	4	16	1	CRAB	397	n/a	1	n/a	n/a	n/a	n/a	n/a
3180229	REC_WORD	wordpools/wasnorm_wordpool.txt	LTP100	ltpFR	4	16	1	LOG	841	n/a	0	n/a	n/a	n/a	n/a	n/a
3217170	REC_WORD	wordpools/wasnorm_wordpool.txt	LTP100	ltpFR	4	16	1	ICING	732	n/a	0	n/a	n/a	n/a	n/a	n/a
3262142	REC_START	n/a	LTP100	ltpFR	4	1	n/a	n/a	n/a	n/a	n/a	n/a	n/a	n/a	n/a	n/a
3262174	RECOG_TARGET	n/a	LTP100	ltpFR	4	1	-1	SHED	1277	3	-1	n/a	n/a	n/a	n/a	n/a
3263923	RECOG_RESP	n/a	LTP100	ltpFR	4	1	-1	SHED	1277	n/a	-1	n/a	n/a	n/a	n/a	n/a
3265409	RECOG_CONF	n/a	LTP100	ltpFR	4	1	-1	SHED	1277	3	-1	n/a	n/a	n/a	n/a	n/a
3266985	RECOG_TARGET	n/a	LTP100	ltpFR	4	1	1	REEF	1177	4	0	n/a	n/a	n/a	n/a	n/a
3267969	RECOG_RESP	n/a	LTP100	ltpFR	4	1	1	REEF	1177	n/a	0	n/a	n/a	n/a	n/a	n/a
3269141	RECOG_CONF	n/a	LTP100	ltpFR	4	1	1	REEF	1177	4	0	n/a	n/a	n/a	n/a	n/a
3270681	RECOG_TARGET	n/a	LTP100	ltpFR	4	1	0	ELBOW	520	5	0	n/a	n/a	n/a	n/a	n/a
3271625	RECOG_RESP	n/a	LTP100	ltpFR	4	1	0	ELBOW	520	n/a	0	n/a	n/a	n/a	n/a	n/a
3272833	RECOG_CONF	n/a	LTP100	ltpFR	4	1	0	ELBOW	520	5	0	n/a	n/a	n/a	n/a	n/a
3274534	RECOG_LURE	n/a	LTP100	ltpFR	4	1	n/a	MINER	896	3	n/a	n/a	n/a	n/a	n/a	n/a
3275501	RECOG_RESP	n/a	LTP100	ltpFR	4	1	n/a	MINER	896	n/a	n/a	n/a	n/a	n/a	n/a	n/a
3277741	RECOG_CONF	n/a	LTP100	ltpFR	4	1	n/a	MINER	896	3	n/a	n/a	n/a	n/a	n/a	n/a
3279287	RECOG_TARGET	n/a	LTP100	ltpFR	4	1	0	SPIDER	1351	4	0	n/a	n/a	n/a	n/a	n/a
3280276	RECOG_RESP	n/a	LTP100	ltpFR	4	1	0	SPIDER	1351	n/a	0	n/a	n/a	n/a	n/a	n/a
3281453	RECOG_CONF	n/a	LTP100	ltpFR	4	1	0	SPIDER	1351	4	0	n/a	n/a	n/a	n/a	n/a
3282966	RECOG_TARGET	n/a	LTP100	ltpFR	4	1	-1	OFFICER	973	3	-1	n/a	n/a	n/a	n/a	n/a
3283832	RECOG_RESP	n/a	LTP100	ltpFR	4	1	-1	OFFICER	973	n/a	-1	n/a	n/a	n/a	n/a	n/a
3285304	RECOG_CONF	n/a	LTP100	ltpFR	4	1	-1	OFFICER	973	3	-1	n/a	n/a	n/a	n/a	n/a
3286795	RECOG_TARGET	n/a	LTP100	ltpFR	4	1	-1	WORLD	1622	2	-1	n/a	n/a	n/a	n/a	n/a
3289435	RECOG_RESP	n/a	LTP100	ltpFR	4	1	-1	WORLD	1622	n/a	-1	n/a	n/a	n/a	n/a	n/a
3291031	RECOG_CONF	n/a	LTP100	ltpFR	4	1	-1	WORLD	1622	2	-1	n/a	n/a	n/a	n/a	n/a
3292638	RECOG_LURE	n/a	LTP100	ltpFR	4	1	n/a	DIPLOMA	470	4	n/a	n/a	n/a	n/a	n/a	n/a
3293590	RECOG_RESP	n/a	LTP100	ltpFR	4	1	n/a	DIPLOMA	470	n/a	n/a	n/a	n/a	n/a	n/a	n/a
3294862	RECOG_CONF	n/a	LTP100	ltpFR	4	1	n/a	DIPLOMA	470	4	n/a	n/a	n/a	n/a	n/a	n/a
3296434	RECOG_TARGET	n/a	LTP100	ltpFR	4	1	-1	PADDING	999	3	-1	n/a	n/a	n/a	n/a	n/a
3297546	RECOG_RESP	n/a	LTP100	ltpFR	4	1	-1	PADDING	999	n/a	-1	n/a	n/a	n/a	n/a	n/a
3298843	RECOG_CONF	n/a	LTP100	ltpFR	4	1	-1	PADDING	999	3	-1	n/a	n/a	n/a	n/a	n/a
3300496	RECOG_TARGET	n/a	LTP100	ltpFR	4	1	0	DOG	480	5	1	n/a	n/a	n/a	n/a	n/a
3301223	RECOG_RESP	n/a	LTP100	ltpFR	4	1	0	DOG	480	n/a	1	n/a	n/a	n/a	n/a	n/a
3302395	RECOG_CONF	n/a	LTP100	ltpFR	4	1	0	DOG	480	5	1	n/a	n/a	n/a	n/a	n/a
3304017	RECOG_TARGET	n/a	LTP100	ltpFR	4	1	1	SPY	1360	5	1	n/a	n/a	n/a	n/a	n/a
3304835	RECOG_RESP	n/a	LTP100	ltpFR	4	1	1	SPY	1360	n/a	1	n/a	n/a	n/a	n/a	n/a
3305987	RECOG_CONF	n/a	LTP100	ltpFR	4	1	1	SPY	1360	5	1	n/a	n/a	n/a	n/a	n/a
3307604	RECOG_TARGET	n/a	LTP100	ltpFR	4	1	1	ICING	732	5	0	n/a	n/a	n/a	n/a	n/a
3308277	RECOG_RESP	n/a	LTP100	ltpFR	4	1	1	ICING	732	n/a	0	n/a	n/a	n/a	n/a	n/a
3309369	RECOG_CONF	n/a	LTP100	ltpFR	4	1	1	ICING	732	5	0	n/a	n/a	n/a	n/a	n/a
3311134	RECOG_LURE	n/a	LTP100	ltpFR	4	1	n/a	CRICKET	408	3	n/a	n/a	n/a	n/a	n/a	n/a
3312577	RECOG_RESP	n/a	LTP100	ltpFR	4	1	n/a	CRICKET	408	n/a	n/a	n/a	n/a	n/a	n/a	n/a
3313929	RECOG_CONF	n/a	LTP100	ltpFR	4	1	n/a	CRICKET	408	3	n/a	n/a	n/a	n/a	n/a	n/a
3315445	RECOG_TARGET	n/a	LTP100	ltpFR	4	1	-1	CRYSTAL	418	5	-1	n/a	n/a	n/a	n/a	n/a
3316224	RECOG_RESP	n/a	LTP100	ltpFR	4	1	-1	CRYSTAL	418	n/a	-1	n/a	n/a	n/a	n/a	n/a
3317301	RECOG_CONF	n/a	LTP100	ltpFR	4	1	-1	CRYSTAL	418	5	-1	n/a	n/a	n/a	n/a	n/a
3318825	RECOG_LURE	n/a	LTP100	ltpFR	4	1	n/a	ONION	977	3	n/a	n/a	n/a	n/a	n/a	n/a
3320240	RECOG_RESP	n/a	LTP100	ltpFR	4	1	n/a	ONION	977	n/a	n/a	n/a	n/a	n/a	n/a	n/a
3322011	RECOG_CONF	n/a	LTP100	ltpFR	4	1	n/a	ONION	977	3	n/a	n/a	n/a	n/a	n/a	n/a
3323561	RECOG_TARGET	n/a	LTP100	ltpFR	4	1	-1	FLASHLIGHT	575	3	-1	n/a	n/a	n/a	n/a	n/a
3324794	RECOG_RESP	n/a	LTP100	ltpFR	4	1	-1	FLASHLIGHT	575	n/a	-1	n/a	n/a	n/a	n/a	n/a
3326630	RECOG_CONF	n/a	LTP100	ltpFR	4	1	-1	FLASHLIGHT	575	3	-1	n/a	n/a	n/a	n/a	n/a
3328205	RECOG_TARGET	n/a	LTP100	ltpFR	4	1	-1	GROUND	666	5	-1	n/a	n/a	n/a	n/a	n/a
3329214	RECOG_RESP	n/a	LTP100	ltpFR	4	1	-1	GROUND	666	n/a	-1	n/a	n/a	n/a	n/a	n/a
3330781	RECOG_CONF	n/a	LTP100	ltpFR	4	1	-1	GROUND	666	5	-1	n/a	n/a	n/a	n/a	n/a
3332350	RECOG_TARGET	n/a	LTP100	ltpFR	4	1	1	GRAVEL	659	4	0	n/a	n/a	n/a	n/a	n/a
3333744	RECOG_RESP	n/a	LTP100	ltpFR	4	1	1	GRAVEL	659	n/a	0	n/a	n/a	n/a	n/a	n/a
3334991	RECOG_CONF	n/a	LTP100	ltpFR	4	1	1	GRAVEL	659	4	0	n/a	n/a	n/a	n/a	n/a
3336446	RECOG_TARGET	n/a	LTP100	ltpFR	4	1	0	BILL	126	5	0	n/a	n/a	n/a	n/a	n/a
3337176	RECOG_RESP	n/a	LTP100	ltpFR	4	1	0	BILL	126	n/a	0	n/a	n/a	n/a	n/a	n/a
3338294	RECOG_CONF	n/a	LTP100	ltpFR	4	1	0	BILL	126	5	0	n/a	n/a	n/a	n/a	n/a
3339750	RECOG_TARGET	n/a	LTP100	ltpFR	4	1	-1	BABY	64	5	-1	n/a	n/a	n/a	n/a	n/a
3340544	RECOG_RESP	n/a	LTP100	ltpFR	4	1	-1	BABY	64	n/a	-1	n/a	n/a	n/a	n/a	n/a
3341606	RECOG_CONF	n/a	LTP100	ltpFR	4	1	-1	BABY	64	5	-1	n/a	n/a	n/a	n/a	n/a
3353106	REC_START	n/a	LTP100	ltpFR	4	2	n/a	n/a	n/a	n/a	n/a	n/a	n/a	n/a	n/a	n/a
3353135	RECOG_TARGET	n/a	LTP100	ltpFR	4	2	1	TIGER	1467	3	1	n/a	n/a	n/a	n/a	n/a
3354198	RECOG_RESP	n/a	LTP100	ltpFR	4	2	1	TIGER	1467	n/a	1	n/a	n/a	n/a	n/a	n/a
3356194	RECOG_CONF	n/a	LTP100	ltpFR	4	2	1	TIGER	1467	3	1	n/a	n/a	n/a	n/a	n/a
3357813	RECOG_LURE	n/a	LTP100	ltpFR	4	2	n/a	PIRATE	1074	3	n/a	n/a	n/a	n/a	n/a	n/a
3359272	RECOG_RESP	n/a	LTP100	ltpFR	4	2	n/a	PIRATE	1074	n/a	n/a	n/a	n/a	n/a	n/a	n/a
3360903	RECOG_CONF	n/a	LTP100	ltpFR	4	2	n/a	PIRATE	1074	3	n/a	n/a	n/a	n/a	n/a	n/a
3362524	RECOG_TARGET	n/a	LTP100	ltpFR	4	2	1	SPHINX	1349	5	1	n/a	n/a	n/a	n/a	n/a
3363347	RECOG_RESP	n/a	LTP100	ltpFR	4	2	1	SPHINX	1349	n/a	1	n/a	n/a	n/a	n/a	n/a
3364495	RECOG_CONF	n/a	LTP100	ltpFR	4	2	1	SPHINX	1349	5	1	n/a	n/a	n/a	n/a	n/a
3366095	RECOG_TARGET	n/a	LTP100	ltpFR	4	2	0	EDITOR	516	5	1	n/a	n/a	n/a	n/a	n/a
3366939	RECOG_RESP	n/a	LTP100	ltpFR	4	2	0	EDITOR	516	n/a	1	n/a	n/a	n/a	n/a	n/a
3368007	RECOG_CONF	n/a	LTP100	ltpFR	4	2	0	EDITOR	516	5	1	n/a	n/a	n/a	n/a	n/a
3369574	RECOG_TARGET	n/a	LTP100	ltpFR	4	2	0	CHEERLEADER	288	4	1	n/a	n/a	n/a	n/a	n/a
3370656	RECOG_RESP	n/a	LTP100	ltpFR	4	2	0	CHEERLEADER	288	n/a	1	n/a	n/a	n/a	n/a	n/a
3371988	RECOG_CONF	n/a	LTP100	ltpFR	4	2	0	CHEERLEADER	288	4	1	n/a	n/a	n/a	n/a	n/a
3373486	RECOG_TARGET	n/a	LTP100	ltpFR	4	2	1	ARTIST	43	5	1	n/a	n/a	n/a	n/a	n/a
3374143	RECOG_RESP	n/a	LTP100	ltpFR	4	2	1	ARTIST	43	n/a	1	n/a	n/a	n/a	n/a	n/a
3375201	RECOG_CONF	n/a	LTP100	ltpFR	4	2	1	ARTIST	43	5	1	n/a	n/a	n/a	n/a	n/a
3376774	RECOG_TARGET	n/a	LTP100	ltpFR	4	2	0	FUDGE	611	5	0	n/a	n/a	n/a	n/a	n/a
3377770	RECOG_RESP	n/a	LTP100	ltpFR	4	2	0	FUDGE	611	n/a	0	n/a	n/a	n/a	n/a	n/a
3378802	RECOG_CONF	n/a	LTP100	ltpFR	4	2	0	FUDGE	611	5	0	n/a	n/a	n/a	n/a	n/a
3380386	RECOG_TARGET	n/a	LTP100	ltpFR	4	2	1	SHOELACE	1289	5	0	n/a	n/a	n/a	n/a	n/a
3381282	RECOG_RESP	n/a	LTP100	ltpFR	4	2	1	SHOELACE	1289	n/a	0	n/a	n/a	n/a	n/a	n/a
3382294	RECOG_CONF	n/a	LTP100	ltpFR	4	2	1	SHOELACE	1289	5	0	n/a	n/a	n/a	n/a	n/a
3383974	RECOG_TARGET	n/a	LTP100	ltpFR	4	2	0	SHORE	1291	5	1	n/a	n/a	n/a	n/a	n/a
3384724	RECOG_RESP	n/a	LTP100	ltpFR	4	2	0	SHORE	1291	n/a	1	n/a	n/a	n/a	n/a	n/a
3385856	RECOG_CONF	n/a	LTP100	ltpFR	4	2	0	SHORE	1291	5	1	n/a	n/a	n/a	n/a	n/a
3387461	RECOG_LURE	n/a	LTP100	ltpFR	4	2	n/a	SALMON	1227	4	n/a	n/a	n/a	n/a	n/a	n/a
3388500	RECOG_RESP	n/a	LTP100	ltpFR	4	2	n/a	SALMON	1227	n/a	n/a	n/a	n/a	n/a	n/a	n/a
3389867	RECOG_CONF	n/a	LTP100	ltpFR	4	2	n/a	SALMON	1227	4	n/a	n/a	n/a	n/a	n/a	n/a
3391357	RECOG_TARGET	n/a	LTP100	ltpFR	4	2	-1	INTESTINE	742	5	-1	n/a	n/a	n/a	n/a	n/a
3392461	RECOG_RESP	n/a	LTP100	ltpFR	4	2	-1	INTESTINE	742	n/a	-1	n/a	n/a	n/a	n/a	n/a
3393509	RECOG_CONF	n/a	LTP100	ltpFR	4	2	-1	INTESTINE	742	5	-1	n/a	n/a	n/a	n/a	n/a
3395161	RECOG_TARGET	n/a	LTP100	ltpFR	4	2	1	GROCERIES	663	4	0	n/a	n/a	n/a	n/a	n/a
3396038	RECOG_RESP	n/a	LTP100	ltpFR	4	2	1	GROCERIES	663	n/a	0	n/a	n/a	n/a	n/a	n/a
3397181	RECOG_CONF	n/a	LTP100	ltpFR	4	2	1	GROCERIES	663	4	0	n/a	n/a	n/a	n/a	n/a
3398698	RECOG_TARGET	n/a	LTP100	ltpFR	4	2	0	FOUNTAIN	597	3	1	n/a	n/a	n/a	n/a	n/a
3399884	RECOG_RESP	n/a	LTP100	ltpFR	4	2	0	FOUNTAIN	597	n/a	1	n/a	n/a	n/a	n/a	n/a
3402309	RECOG_CONF	n/a	LTP100	ltpFR	4	2	0	FOUNTAIN	597	3	1	n/a	n/a	n/a	n/a	n/a
3403984	RECOG_TARGET	n/a	LTP100	ltpFR	4	2	-1	CAFETERIA	217	3	-1	n/a	n/a	n/a	n/a	n/a
3405083	RECOG_RESP	n/a	LTP100	ltpFR	4	2	-1	CAFETERIA	217	n/a	-1	n/a	n/a	n/a	n/a	n/a
3406619	RECOG_CONF	n/a	LTP100	ltpFR	4	2	-1	CAFETERIA	217	3	-1	n/a	n/a	n/a	n/a	n/a
3408304	RECOG_TARGET	n/a	LTP100	ltpFR	4	2	0	PAPER	1011	5	0	n/a	n/a	n/a	n/a	n/a
3409113	RECOG_RESP	n/a	LTP100	ltpFR	4	2	0	PAPER	1011	n/a	0	n/a	n/a	n/a	n/a	n/a
3410281	RECOG_CONF	n/a	LTP100	ltpFR	4	2	0	PAPER	1011	5	0	n/a	n/a	n/a	n/a	n/a
3411858	RECOG_TARGET	n/a	LTP100	ltpFR	4	2	-1	BOXER	160	5	-1	n/a	n/a	n/a	n/a	n/a
3412556	RECOG_RESP	n/a	LTP100	ltpFR	4	2	-1	BOXER	160	n/a	-1	n/a	n/a	n/a	n/a	n/a
3413613	RECOG_CONF	n/a	LTP100	ltpFR	4	2	-1	BOXER	160	5	-1	n/a	n/a	n/a	n/a	n/a
3415221	RECOG_LURE	n/a	LTP100	ltpFR	4	2	n/a	CHILD	299	2	n/a	n/a	n/a	n/a	n/a	n/a
3416297	RECOG_RESP	n/a	LTP100	ltpFR	4	2	n/a	CHILD	299	n/a	n/a	n/a	n/a	n/a	n/a	n/a
3417674	RECOG_CONF	n/a	LTP100	ltpFR	4	2	n/a	CHILD	299	2	n/a	n/a	n/a	n/a	n/a	n/a
3419183	RECOG_TARGET	n/a	LTP100	ltpFR	4	2	1	SECRETARY	1265	5	1	n/a	n/a	n/a	n/a	n/a
3420054	RECOG_RESP	n/a	LTP100	ltpFR	4	2	1	SECRETARY	1265	n/a	1	n/a	n/a	n/a	n/a	n/a
3421166	RECOG_CONF	n/a	LTP100	ltpFR	4	2	1	SECRETARY	1265	5	1	n/a	n/a	n/a	n/a	n/a
3422671	RECOG_LURE	n/a	LTP100	ltpFR	4	2	n/a	TOOL	1480	4	n/a	n/a	n/a	n/a	n/a	n/a
3424159	RECOG_RESP	n/a	LTP100	ltpFR	4	2	n/a	TOOL	1480	n/a	n/a	n/a	n/a	n/a	n/a	n/a
3425466	RECOG_CONF	n/a	LTP100	ltpFR	4	2	n/a	TOOL	1480	4	n/a	n/a	n/a	n/a	n/a	n/a
3426832	RECOG_TARGET	n/a	LTP100	ltpFR	4	2	0	PENCIL	1042	5	0	n/a	n/a	n/a	n/a	n/a
3427557	RECOG_RESP	n/a	LTP100	ltpFR	4	2	0	PENCIL	1042	n/a	0	n/a	n/a	n/a	n/a	n/a
3428689	RECOG_CONF	n/a	LTP100	ltpFR	4	2	0	PENCIL	1042	5	0	n/a	n/a	n/a	n/a	n/a
3445587	REC_START	n/a	LTP100	ltpFR	4	3	n/a	n/a	n/a	n/a	n/a	n/a	n/a	n/a	n/a	n/a
3445611	RECOG_TARGET	n/a	LTP100	ltpFR	4	3	1	WICK	1607	5	0	n/a	n/a	n/a	n/a	n/a
3446979	RECOG_RESP	n/a	LTP100	ltpFR	4	3	1	WICK	1607	n/a	0	n/a	n/a	n/a	n/a	n/a
3448126	RECOG_CONF	n/a	LTP100	ltpFR	4	3	1	WICK	1607	5	0	n/a	n/a	n/a	n/a	n/a
3449731	RECOG_TARGET	n/a	LTP100	ltpFR	4	3	1	CHEF	290	5	1	n/a	n/a	n/a	n/a	n/a
3450431	RECOG_RESP	n/a	LTP100	ltpFR	4	3	1	CHEF	290	n/a	1	n/a	n/a	n/a	n/a	n/a
3451478	RECOG_CONF	n/a	LTP100	ltpFR	4	3	1	CHEF	290	5	1	n/a	n/a	n/a	n/a	n/a
3453060	RECOG_TARGET	n/a	LTP100	ltpFR	4	3	-1	TUXEDO	1525	5	-1	n/a	n/a	n/a	n/a	n/a
3453703	RECOG_RESP	n/a	LTP100	ltpFR	4	3	-1	TUXEDO	1525	n/a	-1	n/a	n/a	n/a	n/a	n/a
3454671	RECOG_CONF	n/a	LTP100	ltpFR	4	3	-1	TUXEDO	1525	5	-1	n/a	n/a	n/a	n/a	n/a
3456315	RECOG_LURE	n/a	LTP100	ltpFR	4	3	n/a	SUNSET	1408	3	n/a	n/a	n/a	n/a	n/a	n/a
3457505	RECOG_RESP	n/a	LTP100	ltpFR	4	3	n/a	SUNSET	1408	n/a	n/a	n/a	n/a	n/a	n/a	n/a
3458802	RECOG_CONF	n/a	LTP100	ltpFR	4	3	n/a	SUNSET	1408	3	n/a	n/a	n/a	n/a	n/a	n/a
3460252	RECOG_TARGET	n/a	LTP100	ltpFR	4	3	1	LUMBER	848	4	0	n/a	n/a	n/a	n/a	n/a
3461700	RECOG_RESP	n/a	LTP100	ltpFR	4	3	1	LUMBER	848	n/a	0	n/a	n/a	n/a	n/a	n/a
3462723	RECOG_CONF	n/a	LTP100	ltpFR	4	3	1	LUMBER	848	4	0	n/a	n/a	n/a	n/a	n/a
3464214	RECOG_TARGET	n/a	LTP100	ltpFR	4	3	0	TURNIP	1521	5	0	n/a	n/a	n/a	n/a	n/a
3465237	RECOG_RESP	n/a	LTP100	ltpFR	4	3	0	TURNIP	1521	n/a	0	n/a	n/a	n/a	n/a	n/a
3467033	RECOG_CONF	n/a	LTP100	ltpFR	4	3	0	TURNIP	1521	5	0	n/a	n/a	n/a	n/a	n/a
3468542	RECOG_TARGET	n/a	LTP100	ltpFR	4	3	0	PIGEON	1065	3	0	n/a	n/a	n/a	n/a	n/a
3470435	RECOG_RESP	n/a	LTP100	ltpFR	4	3	0	PIGEON	1065	n/a	0	n/a	n/a	n/a	n/a	n/a
3471543	RECOG_CONF	n/a	LTP100	ltpFR	4	3	0	PIGEON	1065	3	0	n/a	n/a	n/a	n/a	n/a
3473129	RECOG_LURE	n/a	LTP100	ltpFR	4	3	n/a	WAVE	1596	3	n/a	n/a	n/a	n/a	n/a	n/a
3474077	RECOG_RESP	n/a	LTP100	ltpFR	4	3	n/a	WAVE	1596	n/a	n/a	n/a	n/a	n/a	n/a	n/a
3475055	RECOG_CONF	n/a	LTP100	ltpFR	4	3	n/a	WAVE	1596	3	n/a	n/a	n/a	n/a	n/a	n/a
3476558	RECOG_TARGET	n/a	LTP100	ltpFR	4	3	1	DUST	508	4	0	n/a	n/a	n/a	n/a	n/a
3477419	RECOG_RESP	n/a	LTP100	ltpFR	4	3	1	DUST	508	n/a	0	n/a	n/a	n/a	n/a	n/a
3478417	RECOG_CONF	n/a	LTP100	ltpFR	4	3	1	DUST	508	4	0	n/a	n/a	n/a	n/a	n/a
3479937	RECOG_TARGET	n/a	LTP100	ltpFR	4	3	0	LIEUTENANT	818	5	1	n/a	n/a	n/a	n/a	n/a
3480857	RECOG_RESP	n/a	LTP100	ltpFR	4	3	0	LIEUTENANT	818	n/a	1	n/a	n/a	n/a	n/a	n/a
3481929	RECOG_CONF	n/a	LTP100	ltpFR	4	3	0	LIEUTENANT	818	5	1	n/a	n/a	n/a	n/a	n/a
3483425	RECOG_TARGET	n/a	LTP100	ltpFR	4	3	1	SHRIMP	1297	5	1	n/a	n/a	n/a	n/a	n/a
3484104	RECOG_RESP	n/a	LTP100	ltpFR	4	3	1	SHRIMP	1297	n/a	1	n/a	n/a	n/a	n/a	n/a
3485102	RECOG_CONF	n/a	LTP100	ltpFR	4	3	1	SHRIMP	1297	5	1	n/a	n/a	n/a	n/a	n/a
3486779	RECOG_TARGET	n/a	LTP100	ltpFR	4	3	0	COOKIE	374	5	0	n/a	n/a	n/a	n/a	n/a
3487526	RECOG_RESP	n/a	LTP100	ltpFR	4	3	0	COOKIE	374	n/a	0	n/a	n/a	n/a	n/a	n/a
3488574	RECOG_CONF	n/a	LTP100	ltpFR	4	3	0	COOKIE	374	5	0	n/a	n/a	n/a	n/a	n/a
3490225	RECOG_TARGET	n/a	LTP100	ltpFR	4	3	1	VALLEY	1545	5	0	n/a	n/a	n/a	n/a	n/a
3490949	RECOG_RESP	n/a	LTP100	ltpFR	4	3	1	VALLEY	1545	n/a	0	n/a	n/a	n/a	n/a	n/a
3492096	RECOG_CONF	n/a	LTP100	ltpFR	4	3	1	VALLEY	1545	5	0	n/a	n/a	n/a	n/a	n/a
3493696	RECOG_TARGET	n/a	LTP100	ltpFR	4	3	-1	FLEET	578	2	-1	n/a	n/a	n/a	n/a	n/a
3496062	RECOG_RESP	n/a	LTP100	ltpFR	4	3	-1	FLEET	578	n/a	-1	n/a	n/a	n/a	n/a	n/a
3497224	RECOG_CONF	n/a	LTP100	ltpFR	4	3	-1	FLEET	578	2	-1	n/a	n/a	n/a	n/a	n/a
3498899	RECOG_TARGET	n/a	LTP100	ltpFR	4	3	0	ACTRESS	6	4	1	n/a	n/a	n/a	n/a	n/a
3499868	RECOG_RESP	n/a	LTP100	ltpFR	4	3	0	ACTRESS	6	n/a	1	n/a	n/a	n/a	n/a	n/a
3500916	RECOG_CONF	n/a	LTP100	ltpFR	4	3	0	ACTRESS	6	4	1	n/a	n/a	n/a	n/a	n/a
3502411	RECOG_LURE	n/a	LTP100	ltpFR	4	3	n/a	SCARECROW	1245	4	n/a	n/a	n/a	n/a	n/a	n/a
3503485	RECOG_RESP	n/a	LTP100	ltpFR	4	3	n/a	SCARECROW	1245	n/a	n/a	n/a	n/a	n/a	n/a	n/a
3504707	RECOG_CONF	n/a	LTP100	ltpFR	4	3	n/a	SCARECROW	1245	4	n/a	n/a	n/a	n/a	n/a	n/a
3506140	RECOG_TARGET	n/a	LTP100	ltpFR	4	3	-1	STABLE	1363	3	-1	n/a	n/a	n/a	n/a	n/a
3507147	RECOG_RESP	n/a	LTP100	ltpFR	4	3	-1	STABLE	1363	n/a	-1	n/a	n/a	n/a	n/a	n/a
3508200	RECOG_CONF	n/a	LTP100	ltpFR	4	3	-1	STABLE	1363	3	-1	n/a	n/a	n/a	n/a	n/a
3509744	RECOG_LURE	n/a	LTP100	ltpFR	4	3	n/a	COP	376	3	n/a	n/a	n/a	n/a	n/a	n/a
3511412	RECOG_RESP_VV	n/a	LTP100	ltpFR	4	3	n/a	COP	376	n/a	n/a	n/a	n/a	n/a	n/a	n/a
3512774	RECOG_RESP	n/a	LTP100	ltpFR	4	3	n/a	COP	376	n/a	n/a	n/a	n/a	n/a	n/a	n/a
3514525	RECOG_CONF	n/a	LTP100	ltpFR	4	3	n/a	COP	376	3	n/a	n/a	n/a	n/a	n/a	n/a
3516262	RECOG_LURE	n/a	LTP100	ltpFR	4	3	n/a	CELLAR	267	3	n/a	n/a	n/a	n/a	n/a	n/a
3517818	RECOG_RESP	n/a	LTP100	ltpFR	4	3	n/a	CELLAR	267	n/a	n/a	n/a	n/a	n/a	n/a	n/a
3519125	RECOG_CONF	n/a	LTP100	ltpFR	4	3	n/a	CELLAR	267	3	n/a	n/a	n/a	n/a	n/a	n/a
3520715	RECOG_LURE	n/a	LTP100	ltpFR	4	3	n/a	TRIGGER	1507	3	n/a	n/a	n/a	n/a	n/a	n/a
3522756	RECOG_RESP	n/a	LTP100	ltpFR	4	3	n/a	TRIGGER	1507	n/a	n/a	n/a	n/a	n/a	n/a	n/a
3524073	RECOG_CONF	n/a	LTP100	ltpFR	4	3	n/a	TRIGGER	1507	3	n/a	n/a	n/a	n/a	n/a	n/a
3530791	REC_START	n/a	LTP100	ltpFR	4	4	n/a	n/a	n/a	n/a	n/a	n/a	n/a	n/a	n/a	n/a
3530820	RECOG_TARGET	n/a	LTP100	ltpFR	4	4	1	DRYER	503	2	0	n/a	n/a	n/a	n/a	n/a
3531883	RECOG_RESP	n/a	LTP100	ltpFR	4	4	1	DRYER	503	n/a	0	n/a	n/a	n/a	n/a	n/a
3533510	RECOG_CONF	n/a	LTP100	ltpFR	4	4	1	DRYER	503	2	0	n/a	n/a	n/a	n/a	n/a
3535132	RECOG_TARGET	n/a	LTP100	ltpFR	4	4	0	FRIEND	606	5	1	n/a	n/a	n/a	n/a	n/a
3536493	RECOG_RESP	n/a	LTP100	ltpFR	4	4	0	FRIEND	606	n/a	1	n/a	n/a	n/a	n/a	n/a
3537620	RECOG_CONF	n/a	LTP100	ltpFR	4	4	0	FRIEND	606	5	1	n/a	n/a	n/a	n/a	n/a
3539285	RECOG_TARGET	n/a	LTP100	ltpFR	4	4	0	TREE	1502	5	1	n/a	n/a	n/a	n/a	n/a
3540015	RECOG_RESP	n/a	LTP100	ltpFR	4	4	0	TREE	1502	n/a	1	n/a	n/a	n/a	n/a	n/a
3540943	RECOG_CONF	n/a	LTP100	ltpFR	4	4	0	TREE	1502	5	1	n/a	n/a	n/a	n/a	n/a
3542481	RECOG_TARGET	n/a	LTP100	ltpFR	4	4	0	TABLET	1427	3	0	n/a	n/a	n/a	n/a	n/a
3543667	RECOG_RESP	n/a	LTP100	ltpFR	4	4	0	TABLET	1427	n/a	0	n/a	n/a	n/a	n/a	n/a
3544904	RECOG_CONF	n/a	LTP100	ltpFR	4	4	0	TABLET	1427	3	0	n/a	n/a	n/a	n/a	n/a
3546418	RECOG_TARGET	n/a	LTP100	ltpFR	4	4	1	BLANKET	135	4	0	n/a	n/a	n/a	n/a	n/a
3547313	RECOG_RESP	n/a	LTP100	ltpFR	4	4	1	BLANKET	135	n/a	0	n/a	n/a	n/a	n/a	n/a
3548366	RECOG_CONF	n/a	LTP100	ltpFR	4	4	1	BLANKET	135	4	0	n/a	n/a	n/a	n/a	n/a
3549939	RECOG_TARGET	n/a	LTP100	ltpFR	4	4	0	CLOVE	329	5	0	n/a	n/a	n/a	n/a	n/a
3550880	RECOG_RESP	n/a	LTP100	ltpFR	4	4	0	CLOVE	329	n/a	0	n/a	n/a	n/a	n/a	n/a
3551918	RECOG_CONF	n/a	LTP100	ltpFR	4	4	0	CLOVE	329	5	0	n/a	n/a	n/a	n/a	n/a
3553369	RECOG_LURE	n/a	LTP100	ltpFR	4	4	n/a	CRUTCH	417	4	n/a	n/a	n/a	n/a	n/a	n/a
3554312	RECOG_RESP	n/a	LTP100	ltpFR	4	4	n/a	CRUTCH	417	n/a	n/a	n/a	n/a	n/a	n/a	n/a
3555639	RECOG_CONF	n/a	LTP100	ltpFR	4	4	n/a	CRUTCH	417	4	n/a	n/a	n/a	n/a	n/a	n/a
3557056	RECOG_TARGET	n/a	LTP100	ltpFR	4	4	1	JUGGLER	763	3	1	n/a	n/a	n/a	n/a	n/a
3558478	RECOG_RESP	n/a	LTP100	ltpFR	4	4	1	JUGGLER	763	n/a	1	n/a	n/a	n/a	n/a	n/a
3559481	RECOG_CONF	n/a	LTP100	ltpFR	4	4	1	JUGGLER	763	3	1	n/a	n/a	n/a	n/a	n/a
3561068	RECOG_TARGET	n/a	LTP100	ltpFR	4	4	0	SILK	1307	5	0	n/a	n/a	n/a	n/a	n/a
3561855	RECOG_RESP	n/a	LTP100	ltpFR	4	4	0	SILK	1307	n/a	0	n/a	n/a	n/a	n/a	n/a
3562803	RECOG_CONF	n/a	LTP100	ltpFR	4	4	0	SILK	1307	5	0	n/a	n/a	n/a	n/a	n/a
3564356	RECOG_TARGET	n/a	LTP100	ltpFR	4	4	1	PITCHFORK	1078	5	0	n/a	n/a	n/a	n/a	n/a
3565163	RECOG_RESP	n/a	LTP100	ltpFR	4	4	1	PITCHFORK	1078	n/a	0	n/a	n/a	n/a	n/a	n/a
3566235	RECOG_CONF	n/a	LTP100	ltpFR	4	4	1	PITCHFORK	1078	5	0	n/a	n/a	n/a	n/a	n/a
3567818	RECOG_TARGET	n/a	LTP100	ltpFR	4	4	0	BARN	89	5	1	n/a	n/a	n/a	n/a	n/a
3568565	RECOG_RESP	n/a	LTP100	ltpFR	4	4	0	BARN	89	n/a	1	n/a	n/a	n/a	n/a	n/a
3569578	RECOG_CONF	n/a	LTP100	ltpFR	4	4	0	BARN	89	5	1	n/a	n/a	n/a	n/a	n/a
3571215	RECOG_TARGET	n/a	LTP100	ltpFR	4	4	0	UMBRELLA	1534	5	0	n/a	n/a	n/a	n/a	n/a
3571912	RECOG_RESP	n/a	LTP100	ltpFR	4	4	0	UMBRELLA	1534	n/a	0	n/a	n/a	n/a	n/a	n/a
3572920	RECOG_CONF	n/a	LTP100	ltpFR	4	4	0	UMBRELLA	1534	5	0	n/a	n/a	n/a	n/a	n/a
3574428	RECOG_TARGET	n/a	LTP100	ltpFR	4	4	-1	HOUSE	725	5	-1	n/a	n/a	n/a	n/a	n/a
3575160	RECOG_RESP	n/a	LTP100	ltpFR	4	4	-1	HOUSE	725	n/a	-1	n/a	n/a	n/a	n/a	n/a
3576163	RECOG_CONF	n/a	LTP100	ltpFR	4	4	-1	HOUSE	725	5	-1	n/a	n/a	n/a	n/a	n/a
3577757	RECOG_TARGET	n/a	LTP100	ltpFR	4	4	1	LACE	792	4	0	n/a	n/a	n/a	n/a	n/a
3578373	RECOG_RESP	n/a	LTP100	ltpFR	4	4	1	LACE	792	n/a	0	n/a	n/a	n/a	n/a	n/a
3579465	RECOG_CONF	n/a	LTP100	ltpFR	4	4	1	LACE	792	4	0	n/a	n/a	n/a	n/a	n/a
3580978	RECOG_TARGET	n/a	LTP100	ltpFR	4	4	0	ASPIRIN	47	5	0	n/a	n/a	n/a	n/a	n/a
3581755	RECOG_RESP	n/a	LTP100	ltpFR	4	4	0	ASPIRIN	47	n/a	0	n/a	n/a	n/a	n/a	n/a
3582778	RECOG_CONF	n/a	LTP100	ltpFR	4	4	0	ASPIRIN	47	5	0	n/a	n/a	n/a	n/a	n/a
3584399	RECOG_TARGET	n/a	LTP100	ltpFR	4	4	1	KIDNEY	776	3	0	n/a	n/a	n/a	n/a	n/a
3585172	RECOG_RESP	n/a	LTP100	ltpFR	4	4	1	KIDNEY	776	n/a	0	n/a	n/a	n/a	n/a	n/a
3586310	RECOG_CONF	n/a	LTP100	ltpFR	4	4	1	KIDNEY	776	3	0	n/a	n/a	n/a	n/a	n/a
3587945	RECOG_TARGET	n/a	LTP100	ltpFR	4	4	-1	JAW	751	5	-1	n/a	n/a	n/a	n/a	n/a
3588619	RECOG_RESP	n/a	LTP100	ltpFR	4	4	-1	JAW	751	n/a	-1	n/a	n/a	n/a	n/a	n/a
3589622	RECOG_CONF	n/a	LTP100	ltpFR	4	4	-1	JAW	751	5	-1	n/a	n/a	n/a	n/a	n/a
3591158	RECOG_LURE	n/a	LTP100	ltpFR	4	4	n/a	BEE	112	4	n/a	n/a	n/a	n/a	n/a	n/a
3592226	RECOG_RESP	n/a	LTP100	ltpFR	4	4	n/a	BEE	112	n/a	n/a	n/a	n/a	n/a	n/a	n/a
3593843	RECOG_CONF	n/a	LTP100	ltpFR	4	4	n/a	BEE	112	4	n/a	n/a	n/a	n/a	n/a	n/a
3595361	RECOG_LURE	n/a	LTP100	ltpFR	4	4	n/a	CUSHION	428	3	n/a	n/a	n/a	n/a	n/a	n/a
3596462	RECOG_RESP	n/a	LTP100	ltpFR	4	4	n/a	CUSHION	428	n/a	n/a	n/a	n/a	n/a	n/a	n/a
3597604	RECOG_CONF	n/a	LTP100	ltpFR	4	4	n/a	CUSHION	428	3	n/a	n/a	n/a	n/a	n/a	n/a
3599099	RECOG_TARGET	n/a	LTP100	ltpFR	4	4	0	ORGAN	984	5	0	n/a	n/a	n/a	n/a	n/a
3599819	RECOG_RESP	n/a	LTP100	ltpFR	4	4	0	ORGAN	984	n/a	0	n/a	n/a	n/a	n/a	n/a
3600787	RECOG_CONF	n/a	LTP100	ltpFR	4	4	0	ORGAN	984	5	0	n/a	n/a	n/a	n/a	n/a
3613142	REC_START	n/a	LTP100	ltpFR	4	5	n/a	n/a	n/a	n/a	n/a	n/a	n/a	n/a	n/a	n/a
3613166	RECOG_TARGET	n/a	LTP100	ltpFR	4	5	0	WORM	1623	5	0	n/a	n/a	n/a	n/a	n/a
3613860	RECOG_RESP	n/a	LTP100	ltpFR	4	5	0	WORM	1623	n/a	0	n/a	n/a	n/a	n/a	n/a
3614853	RECOG_CONF	n/a	LTP100	ltpFR	4	5	0	WORM	1623	5	0	n/a	n/a	n/a	n/a	n/a
3616420	RECOG_TARGET	n/a	LTP100	ltpFR	4	5	0	RIDER	1191	3	1	n/a	n/a	n/a	n/a	n/a
3617257	RECOG_RESP	n/a	LTP100	ltpFR	4	5	0	RIDER	1191	n/a	1	n/a	n/a	n/a	n/a	n/a
3618445	RECOG_CONF	n/a	LTP100	ltpFR	4	5	0	RIDER	1191	3	1	n/a	n/a	n/a	n/a	n/a
3619933	RECOG_LURE	n/a	LTP100	ltpFR	4	5	n/a	MARGARINE	868	4	n/a	n/a	n/a	n/a	n/a	n/a
3620819	RECOG_RESP	n/a	LTP100	ltpFR	4	5	n/a	MARGARINE	868	n/a	n/a	n/a	n/a	n/a	n/a	n/a
3622057	RECOG_CONF	n/a	LTP100	ltpFR	4	5	n/a	MARGARINE	868	4	n/a	n/a	n/a	n/a	n/a	n/a
3623529	RECOG_LURE	n/a	LTP100	ltpFR	4	5	n/a	STEWARDESS	1381	3	n/a	n/a	n/a	n/a	n/a	n/a
3624481	RECOG_RESP	n/a	LTP100	ltpFR	4	5	n/a	STEWARDESS	1381	n/a	n/a	n/a	n/a	n/a	n/a	n/a
3625958	RECOG_CONF	n/a	LTP100	ltpFR	4	5	n/a	STEWARDESS	1381	3	n/a	n/a	n/a	n/a	n/a	n/a
3627516	RECOG_TARGET	n/a	LTP100	ltpFR	4	5	1	BROOM	178	4	0	n/a	n/a	n/a	n/a	n/a
3628337	RECOG_RESP	n/a	LTP100	ltpFR	4	5	1	BROOM	178	n/a	0	n/a	n/a	n/a	n/a	n/a
3629550	RECOG_CONF	n/a	LTP100	ltpFR	4	5	1	BROOM	178	4	0	n/a	n/a	n/a	n/a	n/a
3631103	RECOG_TARGET	n/a	LTP100	ltpFR	4	5	0	MUG	930	4	0	n/a	n/a	n/a	n/a	n/a
3631964	RECOG_RESP	n/a	LTP100	ltpFR	4	5	0	MUG	930	n/a	0	n/a	n/a	n/a	n/a	n/a
3633271	RECOG_CONF	n/a	LTP100	ltpFR	4	5	0	MUG	930	4	0	n/a	n/a	n/a	n/a	n/a
3634941	RECOG_LURE	n/a	LTP100	ltpFR	4	5	n/a	PONY	1102	4	n/a	n/a	n/a	n/a	n/a	n/a
3635865	RECOG_RESP	n/a	LTP100	ltpFR	4	5	n/a	PONY	1102	n/a	n/a	n/a	n/a	n/a	n/a	n/a
3637980	RECOG_CONF	n/a	LTP100	ltpFR	4	5	n/a	PONY	1102	4	n/a	n/a	n/a	n/a	n/a	n/a
3639552	RECOG_TARGET	n/a	LTP100	ltpFR	4	5	-1	CHEST	295	5	-1	n/a	n/a	n/a	n/a	n/a
3640220	RECOG_RESP	n/a	LTP100	ltpFR	4	5	-1	CHEST	295	n/a	-1	n/a	n/a	n/a	n/a	n/a
3641143	RECOG_CONF	n/a	LTP100	ltpFR	4	5	-1	CHEST	295	5	-1	n/a	n/a	n/a	n/a	n/a
3642723	RECOG_TARGET	n/a	LTP100	ltpFR	4	5	1	FARM	552	5	0	n/a	n/a	n/a	n/a	n/a
3643358	RECOG_RESP	n/a	LTP100	ltpFR	4	5	1	FARM	552	n/a	0	n/a	n/a	n/a	n/a	n/a
3644366	RECOG_CONF	n/a	LTP100	ltpFR	4	5	1	FARM	552	5	0	n/a	n/a	n/a	n/a	n/a
3645836	RECOG_TARGET	n/a	LTP100	ltpFR	4	5	0	PARCEL	1012	5	0	n/a	n/a	n/a	n/a	n/a
3646770	RECOG_RESP	n/a	LTP100	ltpFR	4	5	0	PARCEL	1012	n/a	0	n/a	n/a	n/a	n/a	n/a
3647898	RECOG_CONF	n/a	LTP100	ltpFR	4	5	0	PARCEL	1012	5	0	n/a	n/a	n/a	n/a	n/a
3649532	RECOG_TARGET	n/a	LTP100	ltpFR	4	5	1	HAMPER	682	3	0	n/a	n/a	n/a	n/a	n/a
3650656	RECOG_RESP	n/a	LTP100	ltpFR	4	5	1	HAMPER	682	n/a	0	n/a	n/a	n/a	n/a	n/a
3651649	RECOG_CONF	n/a	LTP100	ltpFR	4	5	1	HAMPER	682	3	0	n/a	n/a	n/a	n/a	n/a
3653178	RECOG_TARGET	n/a	LTP100	ltpFR	4	5	1	SEAL	1262	4	1	n/a	n/a	n/a	n/a	n/a
3654024	RECOG_RESP	n/a	LTP100	ltpFR	4	5	1	SEAL	1262	n/a	1	n/a	n/a	n/a	n/a	n/a
3655391	RECOG_CONF	n/a	LTP100	ltpFR	4	5	1	SEAL	1262	4	1	n/a	n/a	n/a	n/a	n/a
3656798	RECOG_TARGET	n/a	LTP100	ltpFR	4	5	1	DIVER	476	4	0	n/a	n/a	n/a	n/a	n/a
3657456	RECOG_RESP	n/a	LTP100	ltpFR	4	5	1	DIVER	476	n/a	0	n/a	n/a	n/a	n/a	n/a
3658524	RECOG_CONF	n/a	LTP100	ltpFR	4	5	1	DIVER	476	4	0	n/a	n/a	n/a	n/a	n/a
3660036	RECOG_LURE	n/a	LTP100	ltpFR	4	5	n/a	MARS	873	5	n/a	n/a	n/a	n/a	n/a	n/a
3660818	RECOG_RESP	n/a	LTP100	ltpFR	4	5	n/a	MARS	873	n/a	n/a	n/a	n/a	n/a	n/a	n/a
3661956	RECOG_CONF	n/a	LTP100	ltpFR	4	5	n/a	MARS	873	5	n/a	n/a	n/a	n/a	n/a	n/a
3663449	RECOG_TARGET	n/a	LTP100	ltpFR	4	5	-1	OBOE	969	4	-1	n/a	n/a	n/a	n/a	n/a
3664490	RECOG_RESP	n/a	LTP100	ltpFR	4	5	-1	OBOE	969	n/a	-1	n/a	n/a	n/a	n/a	n/a
3665598	RECOG_CONF	n/a	LTP100	ltpFR	4	5	-1	OBOE	969	4	-1	n/a	n/a	n/a	n/a	n/a
3667053	RECOG_TARGET	n/a	LTP100	ltpFR	4	5	0	KITTEN	780	5	0	n/a	n/a	n/a	n/a	n/a
3668361	RECOG_RESP	n/a	LTP100	ltpFR	4	5	0	KITTEN	780	n/a	0	n/a	n/a	n/a	n/a	n/a
3669499	RECOG_CONF	n/a	LTP100	ltpFR	4	5	0	KITTEN	780	5	0	n/a	n/a	n/a	n/a	n/a
3671024	RECOG_TARGET	n/a	LTP100	ltpFR	4	5	-1	VELVET	1555	5	-1	n/a	n/a	n/a	n/a	n/a
3671943	RECOG_RESP	n/a	LTP100	ltpFR	4	5	-1	VELVET	1555	n/a	-1	n/a	n/a	n/a	n/a	n/a
3672921	RECOG_CONF	n/a	LTP100	ltpFR	4	5	-1	VELVET	1555	5	-1	n/a	n/a	n/a	n/a	n/a
3674594	RECOG_TARGET	n/a	LTP100	ltpFR	4	5	-1	PARIS	1014	5	-1	n/a	n/a	n/a	n/a	n/a
3675325	RECOG_RESP	n/a	LTP100	ltpFR	4	5	-1	PARIS	1014	n/a	-1	n/a	n/a	n/a	n/a	n/a
3676333	RECOG_CONF	n/a	LTP100	ltpFR	4	5	-1	PARIS	1014	5	-1	n/a	n/a	n/a	n/a	n/a
3677857	RECOG_TARGET	n/a	LTP100	ltpFR	4	5	1	PAINTER	1004	5	1	n/a	n/a	n/a	n/a	n/a
3678628	RECOG_RESP	n/a	LTP100	ltpFR	4	5	1	PAINTER	1004	n/a	1	n/a	n/a	n/a	n/a	n/a
3679735	RECOG_CONF	n/a	LTP100	ltpFR	4	5	1	PAINTER	1004	5	1	n/a	n/a	n/a	n/a	n/a
3681212	RECOG_LURE	n/a	LTP100	ltpFR	4	5	n/a	TWISTER	1530	5	n/a	n/a	n/a	n/a	n/a	n/a
3682060	RECOG_RESP	n/a	LTP100	ltpFR	4	5	n/a	TWISTER	1530	n/a	n/a	n/a	n/a	n/a	n/a	n/a
3683178	RECOG_CONF	n/a	LTP100	ltpFR	4	5	n/a	TWISTER	1530	5	n/a	n/a	n/a	n/a	n/a	n/a
3695892	REC_START	n/a	LTP100	ltpFR	4	6	n/a	n/a	n/a	n/a	n/a	n/a	n/a	n/a	n/a	n/a
3695920	RECOG_TARGET	n/a	LTP100	ltpFR	4	6	-1	LEAF	808	4	-1	n/a	n/a	n/a	n/a	n/a
3696745	RECOG_RESP	n/a	LTP100	ltpFR	4	6	-1	LEAF	808	n/a	-1	n/a	n/a	n/a	n/a	n/a
3698202	RECOG_CONF	n/a	LTP100	ltpFR	4	6	-1	LEAF	808	4	-1	n/a	n/a	n/a	n/a	n/a
3699690	RECOG_TARGET	n/a	LTP100	ltpFR	4	6	1	HEART	697	5	0	n/a	n/a	n/a	n/a	n/a
3700347	RECOG_RESP	n/a	LTP100	ltpFR	4	6	1	HEART	697	n/a	0	n/a	n/a	n/a	n/a	n/a
3701295	RECOG_CONF	n/a	LTP100	ltpFR	4	6	1	HEART	697	5	0	n/a	n/a	n/a	n/a	n/a
3702828	RECOG_TARGET	n/a	LTP100	ltpFR	4	6	-1	PAW	1029	5	-1	n/a	n/a	n/a	n/a	n/a
3703500	RECOG_RESP	n/a	LTP100	ltpFR	4	6	-1	PAW	1029	n/a	-1	n/a	n/a	n/a	n/a	n/a
3704427	RECOG_CONF	n/a	LTP100	ltpFR	4	6	-1	PAW	1029	5	-1	n/a	n/a	n/a	n/a	n/a
3705925	RECOG_TARGET	n/a	LTP100	ltpFR	4	6	0	PERISCOPE	1050	5	0	n/a	n/a	n/a	n/a	n/a
3706832	RECOG_RESP	n/a	LTP100	ltpFR	4	6	0	PERISCOPE	1050	n/a	0	n/a	n/a	n/a	n/a	n/a
3707929	RECOG_CONF	n/a	LTP100	ltpFR	4	6	0	PERISCOPE	1050	5	0	n/a	n/a	n/a	n/a	n/a
3709504	RECOG_TARGET	n/a	LTP100	ltpFR	4	6	0	XEROX	1628	5	1	n/a	n/a	n/a	n/a	n/a
3710234	RECOG_RESP	n/a	LTP100	ltpFR	4	6	0	XEROX	1628	n/a	1	n/a	n/a	n/a	n/a	n/a
3711252	RECOG_CONF	n/a	LTP100	ltpFR	4	6	0	XEROX	1628	5	1	n/a	n/a	n/a	n/a	n/a
3712850	RECOG_TARGET	n/a	LTP100	ltpFR	4	6	0	BEARD	107	5	0	n/a	n/a	n/a	n/a	n/a
3713617	RECOG_RESP	n/a	LTP100	ltpFR	4	6	0	BEARD	107	n/a	0	n/a	n/a	n/a	n/a	n/a
3714664	RECOG_CONF	n/a	LTP100	ltpFR	4	6	0	BEARD	107	5	0	n/a	n/a	n/a	n/a	n/a
3716146	RECOG_TARGET	n/a	LTP100	ltpFR	4	6	0	FUR	615	5	0	n/a	n/a	n/a	n/a	n/a
3716899	RECOG_RESP	n/a	LTP100	ltpFR	4	6	0	FUR	615	n/a	0	n/a	n/a	n/a	n/a	n/a
3717977	RECOG_CONF	n/a	LTP100	ltpFR	4	6	0	FUR	615	5	0	n/a	n/a	n/a	n/a	n/a
3719551	RECOG_TARGET	n/a	LTP100	ltpFR	4	6	1	PAINTING	1005	2	0	n/a	n/a	n/a	n/a	n/a
3720481	RECOG_RESP	n/a	LTP100	ltpFR	4	6	1	PAINTING	1005	n/a	0	n/a	n/a	n/a	n/a	n/a
3721588	RECOG_CONF	n/a	LTP100	ltpFR	4	6	1	PAINTING	1005	2	0	n/a	n/a	n/a	n/a	n/a
3723213	RECOG_LURE	n/a	LTP100	ltpFR	4	6	n/a	TOAD	1470	3	n/a	n/a	n/a	n/a	n/a	n/a
3724202	RECOG_RESP	n/a	LTP100	ltpFR	4	6	n/a	TOAD	1470	n/a	n/a	n/a	n/a	n/a	n/a	n/a
3725390	RECOG_CONF	n/a	LTP100	ltpFR	4	6	n/a	TOAD	1470	3	n/a	n/a	n/a	n/a	n/a	n/a
3726734	RECOG_TARGET	n/a	LTP100	ltpFR	4	6	-1	RACCOON	1153	5	-1	n/a	n/a	n/a	n/a	n/a
3727475	RECOG_RESP	n/a	LTP100	ltpFR	4	6	-1	RACCOON	1153	n/a	-1	n/a	n/a	n/a	n/a	n/a
3728463	RECOG_CONF	n/a	LTP100	ltpFR	4	6	-1	RACCOON	1153	5	-1	n/a	n/a	n/a	n/a	n/a
3729922	RECOG_TARGET	n/a	LTP100	ltpFR	4	6	-1	LADY	794	2	-1	n/a	n/a	n/a	n/a	n/a
3731331	RECOG_RESP	n/a	LTP100	ltpFR	4	6	-1	LADY	794	n/a	-1	n/a	n/a	n/a	n/a	n/a
3732983	RECOG_CONF	n/a	LTP100	ltpFR	4	6	-1	LADY	794	2	-1	n/a	n/a	n/a	n/a	n/a
3734483	RECOG_TARGET	n/a	LTP100	ltpFR	4	6	-1	CHOCOLATE	306	5	-1	n/a	n/a	n/a	n/a	n/a
3735178	RECOG_RESP	n/a	LTP100	ltpFR	4	6	-1	CHOCOLATE	306	n/a	-1	n/a	n/a	n/a	n/a	n/a
3736295	RECOG_CONF	n/a	LTP100	ltpFR	4	6	-1	CHOCOLATE	306	5	-1	n/a	n/a	n/a	n/a	n/a
3737987	RECOG_TARGET	n/a	LTP100	ltpFR	4	6	1	DRESS	495	5	0	n/a	n/a	n/a	n/a	n/a
3738744	RECOG_RESP	n/a	LTP100	ltpFR	4	6	1	DRESS	495	n/a	0	n/a	n/a	n/a	n/a	n/a
3739707	RECOG_CONF	n/a	LTP100	ltpFR	4	6	1	DRESS	495	5	0	n/a	n/a	n/a	n/a	n/a
3741225	RECOG_TARGET	n/a	LTP100	ltpFR	4	6	1	BUFFALO	186	5	1	n/a	n/a	n/a	n/a	n/a
3741937	RECOG_RESP	n/a	LTP100	ltpFR	4	6	1	BUFFALO	186	n/a	1	n/a	n/a	n/a	n/a	n/a
3742920	RECOG_CONF	n/a	LTP100	ltpFR	4	6	1	BUFFALO	186	5	1	n/a	n/a	n/a	n/a	n/a
3744430	RECOG_LURE	n/a	LTP100	ltpFR	4	6	n/a	PILLOW	1069	3	n/a	n/a	n/a	n/a	n/a	n/a
3745464	RECOG_RESP	n/a	LTP100	ltpFR	4	6	n/a	PILLOW	1069	n/a	n/a	n/a	n/a	n/a	n/a	n/a
3746651	RECOG_CONF	n/a	LTP100	ltpFR	4	6	n/a	PILLOW	1069	3	n/a	n/a	n/a	n/a	n/a	n/a
3748167	RECOG_TARGET	n/a	LTP100	ltpFR	4	6	0	PATIENT	1024	3	1	n/a	n/a	n/a	n/a	n/a
3749186	RECOG_RESP	n/a	LTP100	ltpFR	4	6	0	PATIENT	1024	n/a	1	n/a	n/a	n/a	n/a	n/a
3750592	RECOG_CONF	n/a	LTP100	ltpFR	4	6	0	PATIENT	1024	3	1	n/a	n/a	n/a	n/a	n/a
3752121	RECOG_LURE	n/a	LTP100	ltpFR	4	6	n/a	COUSIN	392	4	n/a	n/a	n/a	n/a	n/a	n/a
3753072	RECOG_RESP	n/a	LTP100	ltpFR	4	6	n/a	COUSIN	392	n/a	n/a	n/a	n/a	n/a	n/a	n/a
3754045	RECOG_CONF	n/a	LTP100	ltpFR	4	6	n/a	COUSIN	392	4	n/a	n/a	n/a	n/a	n/a	n/a
3755667	RECOG_TARGET	n/a	LTP100	ltpFR	4	6	1	ROOMMATE	1207	5	1	n/a	n/a	n/a	n/a	n/a
3756514	RECOG_RESP	n/a	LTP100	ltpFR	4	6	1	ROOMMATE	1207	n/a	1	n/a	n/a	n/a	n/a	n/a
3757587	RECOG_CONF	n/a	LTP100	ltpFR	4	6	1	ROOMMATE	1207	5	1	n/a	n/a	n/a	n/a	n/a
3759221	RECOG_TARGET	n/a	LTP100	ltpFR	4	6	0	HORSE	719	5	1	n/a	n/a	n/a	n/a	n/a
3760071	RECOG_RESP	n/a	LTP100	ltpFR	4	6	0	HORSE	719	n/a	1	n/a	n/a	n/a	n/a	n/a
3761158	RECOG_CONF	n/a	LTP100	ltpFR	4	6	0	HORSE	719	5	1	n/a	n/a	n/a	n/a	n/a
3762667	RECOG_TARGET	n/a	LTP100	ltpFR	4	6	1	CHAMPION	279	4	1	n/a	n/a	n/a	n/a	n/a
3763832	RECOG_RESP	n/a	LTP100	ltpFR	4	6	1	CHAMPION	279	n/a	1	n/a	n/a	n/a	n/a	n/a
3764980	RECOG_CONF	n/a	LTP100	ltpFR	4	6	1	CHAMPION	279	4	1	n/a	n/a	n/a	n/a	n/a
3768628	REC_START	n/a	LTP100	ltpFR	4	7	n/a	n/a	n/a	n/a	n/a	n/a	n/a	n/a	n/a	n/a
3768652	RECOG_TARGET	n/a	LTP100	ltpFR	4	7	0	HARE	688	4	0	n/a	n/a	n/a	n/a	n/a
3769451	RECOG_RESP	n/a	LTP100	ltpFR	4	7	0	HARE	688	n/a	0	n/a	n/a	n/a	n/a	n/a
3770928	RECOG_CONF	n/a	LTP100	ltpFR	4	7	0	HARE	688	4	0	n/a	n/a	n/a	n/a	n/a
3772664	RECOG_TARGET	n/a	LTP100	ltpFR	4	7	0	PUCK	1138	5	1	n/a	n/a	n/a	n/a	n/a
3773447	RECOG_RESP	n/a	LTP100	ltpFR	4	7	0	PUCK	1138	n/a	1	n/a	n/a	n/a	n/a	n/a
3774839	RECOG_CONF	n/a	LTP100	ltpFR	4	7	0	PUCK	1138	5	1	n/a	n/a	n/a	n/a	n/a
3776384	RECOG_TARGET	n/a	LTP100	ltpFR	4	7	1	PURSE	1145	5	0	n/a	n/a	n/a	n/a	n/a
3777183	RECOG_RESP	n/a	LTP100	ltpFR	4	7	1	PURSE	1145	n/a	0	n/a	n/a	n/a	n/a	n/a
3778191	RECOG_CONF	n/a	LTP100	ltpFR	4	7	1	PURSE	1145	5	0	n/a	n/a	n/a	n/a	n/a
3779656	RECOG_TARGET	n/a	LTP100	ltpFR	4	7	1	TRUCK	1512	5	0	n/a	n/a	n/a	n/a	n/a
3780446	RECOG_RESP	n/a	LTP100	ltpFR	4	7	1	TRUCK	1512	n/a	0	n/a	n/a	n/a	n/a	n/a
3781394	RECOG_CONF	n/a	LTP100	ltpFR	4	7	1	TRUCK	1512	5	0	n/a	n/a	n/a	n/a	n/a
3782910	RECOG_TARGET	n/a	LTP100	ltpFR	4	7	1	BURGLAR	200	2	1	n/a	n/a	n/a	n/a	n/a
3783858	RECOG_RESP	n/a	LTP100	ltpFR	4	7	1	BURGLAR	200	n/a	1	n/a	n/a	n/a	n/a	n/a
3785016	RECOG_CONF	n/a	LTP100	ltpFR	4	7	1	BURGLAR	200	2	1	n/a	n/a	n/a	n/a	n/a
3786456	RECOG_TARGET	n/a	LTP100	ltpFR	4	7	0	SNACK	1331	5	0	n/a	n/a	n/a	n/a	n/a
3787854	RECOG_RESP	n/a	LTP100	ltpFR	4	7	0	SNACK	1331	n/a	0	n/a	n/a	n/a	n/a	n/a
3788837	RECOG_CONF	n/a	LTP100	ltpFR	4	7	0	SNACK	1331	5	0	n/a	n/a	n/a	n/a	n/a
3790352	RECOG_TARGET	n/a	LTP100	ltpFR	4	7	0	CEILING	265	5	1	n/a	n/a	n/a	n/a	n/a
3791062	RECOG_RESP	n/a	LTP100	ltpFR	4	7	0	CEILING	265	n/a	1	n/a	n/a	n/a	n/a	n/a
3792010	RECOG_CONF	n/a	LTP100	ltpFR	4	7	0	CEILING	265	5	1	n/a	n/a	n/a	n/a	n/a
3793548	RECOG_TARGET	n/a	LTP100	ltpFR	4	7	1	ENGINEER	536	5	1	n/a	n/a	n/a	n/a	n/a
3794255	RECOG_RESP	n/a	LTP100	ltpFR	4	7	1	ENGINEER	536	n/a	1	n/a	n/a	n/a	n/a	n/a
3795282	RECOG_CONF	n/a	LTP100	ltpFR	4	7	1	ENGINEER	536	5	1	n/a	n/a	n/a	n/a	n/a
3796852	RECOG_TARGET	n/a	LTP100	ltpFR	4	7	-1	POLICE	1098	4	-1	n/a	n/a	n/a	n/a	n/a
3797492	RECOG_RESP	n/a	LTP100	ltpFR	4	7	-1	POLICE	1098	n/a	-1	n/a	n/a	n/a	n/a	n/a
3798495	RECOG_CONF	n/a	LTP100	ltpFR	4	7	-1	POLICE	1098	4	-1	n/a	n/a	n/a	n/a	n/a
3799974	RECOG_TARGET	n/a	LTP100	ltpFR	4	7	1	CONE	363	5	0	n/a	n/a	n/a	n/a	n/a
3800720	RECOG_RESP	n/a	LTP100	ltpFR	4	7	1	CONE	363	n/a	0	n/a	n/a	n/a	n/a	n/a
3801668	RECOG_CONF	n/a	LTP100	ltpFR	4	7	1	CONE	363	5	0	n/a	n/a	n/a	n/a	n/a
3803361	RECOG_TARGET	n/a	LTP100	ltpFR	4	7	0	BUGGY	188	5	1	n/a	n/a	n/a	n/a	n/a
3804197	RECOG_RESP	n/a	LTP100	ltpFR	4	7	0	BUGGY	188	n/a	1	n/a	n/a	n/a	n/a	n/a
3805160	RECOG_CONF	n/a	LTP100	ltpFR	4	7	0	BUGGY	188	5	1	n/a	n/a	n/a	n/a	n/a
3806799	RECOG_TARGET	n/a	LTP100	ltpFR	4	7	0	SHELL	1281	4	0	n/a	n/a	n/a	n/a	n/a
3807654	RECOG_RESP	n/a	LTP100	ltpFR	4	7	0	SHELL	1281	n/a	0	n/a	n/a	n/a	n/a	n/a
3808742	RECOG_CONF	n/a	LTP100	ltpFR	4	7	0	SHELL	1281	4	0	n/a	n/a	n/a	n/a	n/a
3810237	RECOG_TARGET	n/a	LTP100	ltpFR	4	7	0	CLIMBER	323	5	1	n/a	n/a	n/a	n/a	n/a
3811046	RECOG_RESP	n/a	LTP100	ltpFR	4	7	0	CLIMBER	323	n/a	1	n/a	n/a	n/a	n/a	n/a
3812024	RECOG_CONF	n/a	LTP100	ltpFR	4	7	0	CLIMBER	323	5	1	n/a	n/a	n/a	n/a	n/a
3813566	RECOG_TARGET	n/a	LTP100	ltpFR	4	7	0	TEAPOT	1442	5	1	n/a	n/a	n/a	n/a	n/a
3814279	RECOG_RESP	n/a	LTP100	ltpFR	4	7	0	TEAPOT	1442	n/a	1	n/a	n/a	n/a	n/a	n/a
3815237	RECOG_CONF	n/a	LTP100	ltpFR	4	7	0	TEAPOT	1442	5	1	n/a	n/a	n/a	n/a	n/a
3816879	RECOG_LURE	n/a	LTP100	ltpFR	4	7	n/a	LAWN	805	2	n/a	n/a	n/a	n/a	n/a	n/a
3819437	RECOG_RESP	n/a	LTP100	ltpFR	4	7	n/a	LAWN	805	n/a	n/a	n/a	n/a	n/a	n/a	n/a
3822470	RECOG_CONF	n/a	LTP100	ltpFR	4	7	n/a	LAWN	805	2	n/a	n/a	n/a	n/a	n/a	n/a
3823996	RECOG_TARGET	n/a	LTP100	ltpFR	4	7	1	MERMAID	887	5	1	n/a	n/a	n/a	n/a	n/a
3824835	RECOG_RESP	n/a	LTP100	ltpFR	4	7	1	MERMAID	887	n/a	1	n/a	n/a	n/a	n/a	n/a
3825783	RECOG_CONF	n/a	LTP100	ltpFR	4	7	1	MERMAID	887	5	1	n/a	n/a	n/a	n/a	n/a
3827334	RECOG_TARGET	n/a	LTP100	ltpFR	4	7	1	BULLETIN	195	2	0	n/a	n/a	n/a	n/a	n/a
3828856	RECOG_RESP	n/a	LTP100	ltpFR	4	7	1	BULLETIN	195	n/a	0	n/a	n/a	n/a	n/a	n/a
3830752	RECOG_CONF	n/a	LTP100	ltpFR	4	7	1	BULLETIN	195	2	0	n/a	n/a	n/a	n/a	n/a
3832278	RECOG_LURE	n/a	LTP100	ltpFR	4	7	n/a	MAGNET	855	3	n/a	n/a	n/a	n/a	n/a	n/a
3834284	RECOG_RESP	n/a	LTP100	ltpFR	4	7	n/a	MAGNET	855	n/a	n/a	n/a	n/a	n/a	n/a	n/a
3835551	RECOG_CONF	n/a	LTP100	ltpFR	4	7	n/a	MAGNET	855	3	n/a	n/a	n/a	n/a	n/a	n/a
3837131	RECOG_TARGET	n/a	LTP100	ltpFR	4	7	-1	WALRUS	1585	2	-1	n/a	n/a	n/a	n/a	n/a
3839018	RECOG_RESP	n/a	LTP100	ltpFR	4	7	-1	WALRUS	1585	n/a	-1	n/a	n/a	n/a	n/a	n/a
3840849	RECOG_CONF	n/a	LTP100	ltpFR	4	7	-1	WALRUS	1585	2	-1	n/a	n/a	n/a	n/a	n/a
3842308	RECOG_LURE	n/a	LTP100	ltpFR	4	7	n/a	GEM	629	3	n/a	n/a	n/a	n/a	n/a	n/a
3843393	RECOG_RESP	n/a	LTP100	ltpFR	4	7	n/a	GEM	629	n/a	n/a	n/a	n/a	n/a	n/a	n/a
3845009	RECOG_CONF	n/a	LTP100	ltpFR	4	7	n/a	GEM	629	3	n/a	n/a	n/a	n/a	n/a	n/a
3850384	REC_START	n/a	LTP100	ltpFR	4	8	n/a	n/a	n/a	n/a	n/a	n/a	n/a	n/a	n/a	n/a
3850415	RECOG_TARGET	n/a	LTP100	ltpFR	4	8	1	OCTOPUS	971	5	1	n/a	n/a	n/a	n/a	n/a
3851332	RECOG_RESP	n/a	LTP100	ltpFR	4	8	1	OCTOPUS	971	n/a	1	n/a	n/a	n/a	n/a	n/a
3852384	RECOG_CONF	n/a	LTP100	ltpFR	4	8	1	OCTOPUS	971	5	1	n/a	n/a	n/a	n/a	n/a
3853894	RECOG_TARGET	n/a	LTP100	ltpFR	4	8	1	TYPIST	1532	5	1	n/a	n/a	n/a	n/a	n/a
3854679	RECOG_RESP	n/a	LTP100	ltpFR	4	8	1	TYPIST	1532	n/a	1	n/a	n/a	n/a	n/a	n/a
3855816	RECOG_CONF	n/a	LTP100	ltpFR	4	8	1	TYPIST	1532	5	1	n/a	n/a	n/a	n/a	n/a
3857340	RECOG_LURE	n/a	LTP100	ltpFR	4	8	n/a	BENCH	121	3	n/a	n/a	n/a	n/a	n/a	n/a
3858181	RECOG_RESP	n/a	LTP100	ltpFR	4	8	n/a	BENCH	121	n/a	n/a	n/a	n/a	n/a	n/a	n/a
3859488	RECOG_CONF	n/a	LTP100	ltpFR	4	8	n/a	BENCH	121	3	n/a	n/a	n/a	n/a	n/a	n/a
3861053	RECOG_TARGET	n/a	LTP100	ltpFR	4	8	1	DONKEY	484	5	1	n/a	n/a	n/a	n/a	n/a
3861868	RECOG_RESP	n/a	LTP100	ltpFR	4	8	1	DONKEY	484	n/a	1	n/a	n/a	n/a	n/a	n/a
3862890	RECOG_CONF	n/a	LTP100	ltpFR	4	8	1	DONKEY	484	5	1	n/a	n/a	n/a	n/a	n/a
3864524	RECOG_LURE	n/a	LTP100	ltpFR	4	8	n/a	POPE	1105	4	n/a	n/a	n/a	n/a	n/a	n/a
3865350	RECOG_RESP	n/a	LTP100	ltpFR	4	8	n/a	POPE	1105	n/a	n/a	n/a	n/a	n/a	n/a	n/a
3866821	RECOG_CONF	n/a	LTP100	ltpFR	4	8	n/a	POPE	1105	4	n/a	n/a	n/a	n/a	n/a	n/a
3868328	RECOG_LURE	n/a	LTP100	ltpFR	4	8	n/a	LIMOUSINE	824	5	n/a	n/a	n/a	n/a	n/a	n/a
3869445	RECOG_RESP	n/a	LTP100	ltpFR	4	8	n/a	LIMOUSINE	824	n/a	n/a	n/a	n/a	n/a	n/a	n/a
3870553	RECOG_CONF	n/a	LTP100	ltpFR	4	8	n/a	LIMOUSINE	824	5	n/a	n/a	n/a	n/a	n/a	n/a
3872123	RECOG_TARGET	n/a	LTP100	ltpFR	4	8	0	CARTON	251	4	1	n/a	n/a	n/a	n/a	n/a
3874190	RECOG_RESP	n/a	LTP100	ltpFR	4	8	0	CARTON	251	n/a	1	n/a	n/a	n/a	n/a	n/a
3875582	RECOG_CONF	n/a	LTP100	ltpFR	4	8	0	CARTON	251	4	1	n/a	n/a	n/a	n/a	n/a
3877051	RECOG_TARGET	n/a	LTP100	ltpFR	4	8	0	SUBMARINE	1398	5	1	n/a	n/a	n/a	n/a	n/a
3877752	RECOG_RESP	n/a	LTP100	ltpFR	4	8	0	SUBMARINE	1398	n/a	1	n/a	n/a	n/a	n/a	n/a
3878675	RECOG_CONF	n/a	LTP100	ltpFR	4	8	0	SUBMARINE	1398	5	1	n/a	n/a	n/a	n/a	n/a
3880122	RECOG_LURE	n/a	LTP100	ltpFR	4	8	n/a	INFANT	737	2	n/a	n/a	n/a	n/a	n/a	n/a
3881718	RECOG_RESP	n/a	LTP100	ltpFR	4	8	n/a	INFANT	737	n/a	n/a	n/a	n/a	n/a	n/a	n/a
3882695	RECOG_CONF	n/a	LTP100	ltpFR	4	8	n/a	INFANT	737	2	n/a	n/a	n/a	n/a	n/a	n/a
3884259	RECOG_LURE	n/a	LTP100	ltpFR	4	8	n/a	CUB	419	3	n/a	n/a	n/a	n/a	n/a	n/a
3886392	RECOG_RESP	n/a	LTP100	ltpFR	4	8	n/a	CUB	419	n/a	n/a	n/a	n/a	n/a	n/a	n/a
3887445	RECOG_CONF	n/a	LTP100	ltpFR	4	8	n/a	CUB	419	3	n/a	n/a	n/a	n/a	n/a	n/a
3888912	RECOG_TARGET	n/a	LTP100	ltpFR	4	8	-1	NECKLACE	940	5	-1	n/a	n/a	n/a	n/a	n/a
3889729	RECOG_RESP	n/a	LTP100	ltpFR	4	8	-1	NECKLACE	940	n/a	-1	n/a	n/a	n/a	n/a	n/a
3890607	RECOG_CONF	n/a	LTP100	ltpFR	4	8	-1	NECKLACE	940	5	-1	n/a	n/a	n/a	n/a	n/a
3891983	RECOG_TARGET	n/a	LTP100	ltpFR	4	8	1	BELLY	119	5	0	n/a	n/a	n/a	n/a	n/a
3892693	RECOG_RESP	n/a	LTP100	ltpFR	4	8	1	BELLY	119	n/a	0	n/a	n/a	n/a	n/a	n/a
3893631	RECOG_CONF	n/a	LTP100	ltpFR	4	8	1	BELLY	119	5	0	n/a	n/a	n/a	n/a	n/a
3895113	RECOG_TARGET	n/a	LTP100	ltpFR	4	8	-1	MEDAL	885	4	-1	n/a	n/a	n/a	n/a	n/a
3895895	RECOG_RESP	n/a	LTP100	ltpFR	4	8	-1	MEDAL	885	n/a	-1	n/a	n/a	n/a	n/a	n/a
3897172	RECOG_CONF	n/a	LTP100	ltpFR	4	8	-1	MEDAL	885	4	-1	n/a	n/a	n/a	n/a	n/a
3898626	RECOG_LURE	n/a	LTP100	ltpFR	4	8	n/a	CHIMPANZEE	302	3	n/a	n/a	n/a	n/a	n/a	n/a
3899617	RECOG_RESP	n/a	LTP100	ltpFR	4	8	n/a	CHIMPANZEE	302	n/a	n/a	n/a	n/a	n/a	n/a	n/a
3902171	RECOG_CONF	n/a	LTP100	ltpFR	4	8	n/a	CHIMPANZEE	302	3	n/a	n/a	n/a	n/a	n/a	n/a
3903662	RECOG_TARGET	n/a	LTP100	ltpFR	4	8	-1	DORM	488	5	-1	n/a	n/a	n/a	n/a	n/a
3904466	RECOG_RESP	n/a	LTP100	ltpFR	4	8	-1	DORM	488	n/a	-1	n/a	n/a	n/a	n/a	n/a
3905424	RECOG_CONF	n/a	LTP100	ltpFR	4	8	-1	DORM	488	5	-1	n/a	n/a	n/a	n/a	n/a
3906966	RECOG_TARGET	n/a	LTP100	ltpFR	4	8	0	SUNRISE	1407	5	1	n/a	n/a	n/a	n/a	n/a
3907858	RECOG_RESP	n/a	LTP100	ltpFR	4	8	0	SUNRISE	1407	n/a	1	n/a	n/a	n/a	n/a	n/a
3909554	RECOG_CONF	n/a	LTP100	ltpFR	4	8	0	SUNRISE	1407	5	1	n/a	n/a	n/a	n/a	n/a
3911036	RECOG_TARGET	n/a	LTP100	ltpFR	4	8	-1	HIGHWAY	707	5	-1	n/a	n/a	n/a	n/a	n/a
3911829	RECOG_RESP	n/a	LTP100	ltpFR	4	8	-1	HIGHWAY	707	n/a	-1	n/a	n/a	n/a	n/a	n/a
3912987	RECOG_CONF	n/a	LTP100	ltpFR	4	8	-1	HIGHWAY	707	5	-1	n/a	n/a	n/a	n/a	n/a
3914499	RECOG_TARGET	n/a	LTP100	ltpFR	4	8	-1	BEAR	106	5	-1	n/a	n/a	n/a	n/a	n/a
3915216	RECOG_RESP	n/a	LTP100	ltpFR	4	8	-1	BEAR	106	n/a	-1	n/a	n/a	n/a	n/a	n/a
3916469	RECOG_CONF	n/a	LTP100	ltpFR	4	8	-1	BEAR	106	5	-1	n/a	n/a	n/a	n/a	n/a
3918045	RECOG_TARGET	n/a	LTP100	ltpFR	4	8	0	HAIL	676	5	0	n/a	n/a	n/a	n/a	n/a
3918843	RECOG_RESP	n/a	LTP100	ltpFR	4	8	0	HAIL	676	n/a	0	n/a	n/a	n/a	n/a	n/a
3919791	RECOG_CONF	n/a	LTP100	ltpFR	4	8	0	HAIL	676	5	0	n/a	n/a	n/a	n/a	n/a
3921333	RECOG_LURE	n/a	LTP100	ltpFR	4	8	n/a	ARCHITECT	36	3	n/a	n/a	n/a	n/a	n/a	n/a
3923153	RECOG_RESP	n/a	LTP100	ltpFR	4	8	n/a	ARCHITECT	36	n/a	n/a	n/a	n/a	n/a	n/a	n/a
3924211	RECOG_CONF	n/a	LTP100	ltpFR	4	8	n/a	ARCHITECT	36	3	n/a	n/a	n/a	n/a	n/a	n/a
3934249	REC_START	n/a	LTP100	ltpFR	4	9	n/a	n/a	n/a	n/a	n/a	n/a	n/a	n/a	n/a	n/a
3934276	RECOG_LURE	n/a	LTP100	ltpFR	4	9	n/a	BIBLE	124	4	n/a	n/a	n/a	n/a	n/a	n/a
3935421	RECOG_RESP	n/a	LTP100	ltpFR	4	9	n/a	BIBLE	124	n/a	n/a	n/a	n/a	n/a	n/a	n/a
3936598	RECOG_CONF	n/a	LTP100	ltpFR	4	9	n/a	BIBLE	124	4	n/a	n/a	n/a	n/a	n/a	n/a
3938138	RECOG_TARGET	n/a	LTP100	ltpFR	4	9	0	SKUNK	1321	5	0	n/a	n/a	n/a	n/a	n/a
3938983	RECOG_RESP	n/a	LTP100	ltpFR	4	9	0	SKUNK	1321	n/a	0	n/a	n/a	n/a	n/a	n/a
3940120	RECOG_CONF	n/a	LTP100	ltpFR	4	9	0	SKUNK	1321	5	0	n/a	n/a	n/a	n/a	n/a
3941709	RECOG_LURE	n/a	LTP100	ltpFR	4	9	n/a	RIB	1188	3	n/a	n/a	n/a	n/a	n/a	n/a
3944091	RECOG_RESP	n/a	LTP100	ltpFR	4	9	n/a	RIB	1188	n/a	n/a	n/a	n/a	n/a	n/a	n/a
3944999	RECOG_CONF	n/a	LTP100	ltpFR	4	9	n/a	RIB	1188	3	n/a	n/a	n/a	n/a	n/a	n/a
3946395	RECOG_TARGET	n/a	LTP100	ltpFR	4	9	-1	CLAW	319	4	-1	n/a	n/a	n/a	n/a	n/a
3947244	RECOG_RESP	n/a	LTP100	ltpFR	4	9	-1	CLAW	319	n/a	-1	n/a	n/a	n/a	n/a	n/a
3948182	RECOG_CONF	n/a	LTP100	ltpFR	4	9	-1	CLAW	319	4	-1	n/a	n/a	n/a	n/a	n/a
3949675	RECOG_TARGET	n/a	LTP100	ltpFR	4	9	0	BOSS	152	3	1	n/a	n/a	n/a	n/a	n/a
3950617	RECOG_RESP	n/a	LTP100	ltpFR	4	9	0	BOSS	152	n/a	1	n/a	n/a	n/a	n/a	n/a
3951944	RECOG_CONF	n/a	LTP100	ltpFR	4	9	0	BOSS	152	3	1	n/a	n/a	n/a	n/a	n/a
3953370	RECOG_TARGET	n/a	LTP100	ltpFR	4	9	1	LOG	841	5	0	n/a	n/a	n/a	n/a	n/a
3954084	RECOG_RESP	n/a	LTP100	ltpFR	4	9	1	LOG	841	n/a	0	n/a	n/a	n/a	n/a	n/a
3954967	RECOG_CONF	n/a	LTP100	ltpFR	4	9	1	LOG	841	5	0	n/a	n/a	n/a	n/a	n/a
3956425	RECOG_TARGET	n/a	LTP100	ltpFR	4	9	1	YOLK	1633	5	0	n/a	n/a	n/a	n/a	n/a
3957062	RECOG_RESP	n/a	LTP100	ltpFR	4	9	1	YOLK	1633	n/a	0	n/a	n/a	n/a	n/a	n/a
3957900	RECOG_CONF	n/a	LTP100	ltpFR	4	9	1	YOLK	1633	5	0	n/a	n/a	n/a	n/a	n/a
3959413	RECOG_TARGET	n/a	LTP100	ltpFR	4	9	0	KNEE	784	4	0	n/a	n/a	n/a	n/a	n/a
3960235	RECOG_RESP	n/a	LTP100	ltpFR	4	9	0	KNEE	784	n/a	0	n/a	n/a	n/a	n/a	n/a
3961272	RECOG_CONF	n/a	LTP100	ltpFR	4	9	0	KNEE	784	4	0	n/a	n/a	n/a	n/a	n/a
3962743	RECOG_TARGET	n/a	LTP100	ltpFR	4	9	0	CAULIFLOWER	262	5	0	n/a	n/a	n/a	n/a	n/a
3963368	RECOG_RESP	n/a	LTP100	ltpFR	4	9	0	CAULIFLOWER	262	n/a	0	n/a	n/a	n/a	n/a	n/a
3964345	RECOG_CONF	n/a	LTP100	ltpFR	4	9	0	CAULIFLOWER	262	5	0	n/a	n/a	n/a	n/a	n/a
3965989	RECOG_TARGET	n/a	LTP100	ltpFR	4	9	1	CATTLE	261	3	1	n/a	n/a	n/a	n/a	n/a
3966984	RECOG_RESP	n/a	LTP100	ltpFR	4	9	1	CATTLE	261	n/a	1	n/a	n/a	n/a	n/a	n/a
3969075	RECOG_CONF	n/a	LTP100	ltpFR	4	9	1	CATTLE	261	3	1	n/a	n/a	n/a	n/a	n/a
3970600	RECOG_TARGET	n/a	LTP100	ltpFR	4	9	1	PEBBLE	1035	2	0	n/a	n/a	n/a	n/a	n/a
3971908	RECOG_RESP	n/a	LTP100	ltpFR	4	9	1	PEBBLE	1035	n/a	0	n/a	n/a	n/a	n/a	n/a
3973115	RECOG_CONF	n/a	LTP100	ltpFR	4	9	1	PEBBLE	1035	2	0	n/a	n/a	n/a	n/a	n/a
3974662	RECOG_LURE	n/a	LTP100	ltpFR	4	9	n/a	ANIMAL	23	4	n/a	n/a	n/a	n/a	n/a	n/a
3977156	RECOG_RESP	n/a	LTP100	ltpFR	4	9	n/a	ANIMAL	23	n/a	n/a	n/a	n/a	n/a	n/a	n/a
3978314	RECOG_CONF	n/a	LTP100	ltpFR	4	9	n/a	ANIMAL	23	4	n/a	n/a	n/a	n/a	n/a	n/a
3979831	RECOG_TARGET	n/a	LTP100	ltpFR	4	9	0	WARDROBE	1587	4	1	n/a	n/a	n/a	n/a	n/a
3981776	RECOG_RESP	n/a	LTP100	ltpFR	4	9	0	WARDROBE	1587	n/a	1	n/a	n/a	n/a	n/a	n/a
3982774	RECOG_CONF	n/a	LTP100	ltpFR	4	9	0	WARDROBE	1587	4	1	n/a	n/a	n/a	n/a	n/a
3984176	RECOG_TARGET	n/a	LTP100	ltpFR	4	9	0	BEET	115	4	0	n/a	n/a	n/a	n/a	n/a
3985163	RECOG_RESP	n/a	LTP100	ltpFR	4	9	0	BEET	115	n/a	0	n/a	n/a	n/a	n/a	n/a
3986266	RECOG_CONF	n/a	LTP100	ltpFR	4	9	0	BEET	115	4	0	n/a	n/a	n/a	n/a	n/a
3987830	RECOG_TARGET	n/a	LTP100	ltpFR	4	9	0	KETTLE	772	4	0	n/a	n/a	n/a	n/a	n/a
3988910	RECOG_RESP	n/a	LTP100	ltpFR	4	9	0	KETTLE	772	n/a	0	n/a	n/a	n/a	n/a	n/a
3990296	RECOG_CONF	n/a	LTP100	ltpFR	4	9	0	KETTLE	772	4	0	n/a	n/a	n/a	n/a	n/a
3991817	RECOG_TARGET	n/a	LTP100	ltpFR	4	9	0	SAUCER	1237	5	1	n/a	n/a	n/a	n/a	n/a
3992611	RECOG_RESP	n/a	LTP100	ltpFR	4	9	0	SAUCER	1237	n/a	1	n/a	n/a	n/a	n/a	n/a
3993579	RECOG_CONF	n/a	LTP100	ltpFR	4	9	0	SAUCER	1237	5	1	n/a	n/a	n/a	n/a	n/a
3995014	RECOG_TARGET	n/a	LTP100	ltpFR	4	9	0	ENEMY	534	1	1	n/a	n/a	n/a	n/a	n/a
3995894	RECOG_RESP	n/a	LTP100	ltpFR	4	9	0	ENEMY	534	n/a	1	n/a	n/a	n/a	n/a	n/a
3998089	RECOG_CONF	n/a	LTP100	ltpFR	4	9	0	ENEMY	534	1	1	n/a	n/a	n/a	n/a	n/a
3999642	RECOG_TARGET	n/a	LTP100	ltpFR	4	9	1	COCOON	339	5	0	n/a	n/a	n/a	n/a	n/a
4000473	RECOG_RESP	n/a	LTP100	ltpFR	4	9	1	COCOON	339	n/a	0	n/a	n/a	n/a	n/a	n/a
4001371	RECOG_CONF	n/a	LTP100	ltpFR	4	9	1	COCOON	339	5	0	n/a	n/a	n/a	n/a	n/a
4002846	RECOG_LURE	n/a	LTP100	ltpFR	4	9	n/a	CONTRACT	368	3	n/a	n/a	n/a	n/a	n/a	n/a
4003980	RECOG_RESP	n/a	LTP100	ltpFR	4	9	n/a	CONTRACT	368	n/a	n/a	n/a	n/a	n/a	n/a	n/a
4005163	RECOG_CONF	n/a	LTP100	ltpFR	4	9	n/a	CONTRACT	368	3	n/a	n/a	n/a	n/a	n/a	n/a
4006600	RECOG_TARGET	n/a	LTP100	ltpFR	4	9	-1	COMMANDER	354	5	-1	n/a	n/a	n/a	n/a	n/a
4007672	RECOG_RESP	n/a	LTP100	ltpFR	4	9	-1	COMMANDER	354	n/a	-1	n/a	n/a	n/a	n/a	n/a
4009144	RECOG_CONF	n/a	LTP100	ltpFR	4	9	-1	COMMANDER	354	5	-1	n/a	n/a	n/a	n/a	n/a
4013567	REC_START	n/a	LTP100	ltpFR	4	10	n/a	n/a	n/a	n/a	n/a	n/a	n/a	n/a	n/a	n/a
4013592	RECOG_LURE	n/a	LTP100	ltpFR	4	10	n/a	BED	110	2	n/a	n/a	n/a	n/a	n/a	n/a
4015128	RECOG_RESP	n/a	LTP100	ltpFR	4	10	n/a	BED	110	n/a	n/a	n/a	n/a	n/a	n/a	n/a
4016385	RECOG_CONF	n/a	LTP100	ltpFR	4	10	n/a	BED	110	2	n/a	n/a	n/a	n/a	n/a	n/a
4017771	RECOG_TARGET	n/a	LTP100	ltpFR	4	10	-1	TRUMPET	1513	4	-1	n/a	n/a	n/a	n/a	n/a
4018640	RECOG_RESP	n/a	LTP100	ltpFR	4	10	-1	TRUMPET	1513	n/a	-1	n/a	n/a	n/a	n/a	n/a
4019478	RECOG_CONF	n/a	LTP100	ltpFR	4	10	-1	TRUMPET	1513	4	-1	n/a	n/a	n/a	n/a	n/a
4020809	RECOG_TARGET	n/a	LTP100	ltpFR	4	10	-1	GUARD	667	5	-1	n/a	n/a	n/a	n/a	n/a
4021623	RECOG_RESP	n/a	LTP100	ltpFR	4	10	-1	GUARD	667	n/a	-1	n/a	n/a	n/a	n/a	n/a
4022492	RECOG_CONF	n/a	LTP100	ltpFR	4	10	-1	GUARD	667	5	-1	n/a	n/a	n/a	n/a	n/a
4023963	RECOG_TARGET	n/a	LTP100	ltpFR	4	10	0	HAY	693	5	0	n/a	n/a	n/a	n/a	n/a
4024731	RECOG_RESP	n/a	LTP100	ltpFR	4	10	0	HAY	693	n/a	0	n/a	n/a	n/a	n/a	n/a
4025565	RECOG_CONF	n/a	LTP100	ltpFR	4	10	0	HAY	693	5	0	n/a	n/a	n/a	n/a	n/a
4027126	RECOG_TARGET	n/a	LTP100	ltpFR	4	10	0	BAY	102	1	1	n/a	n/a	n/a	n/a	n/a
4029935	RECOG_RESP	n/a	LTP100	ltpFR	4	10	0	BAY	102	n/a	1	n/a	n/a	n/a	n/a	n/a
4031790	RECOG_CONF	n/a	LTP100	ltpFR	4	10	0	BAY	102	1	1	n/a	n/a	n/a	n/a	n/a
4033436	RECOG_LURE	n/a	LTP100	ltpFR	4	10	n/a	SHORTCAKE	1292	4	n/a	n/a	n/a	n/a	n/a	n/a
4034330	RECOG_RESP	n/a	LTP100	ltpFR	4	10	n/a	SHORTCAKE	1292	n/a	n/a	n/a	n/a	n/a	n/a	n/a
4035282	RECOG_CONF	n/a	LTP100	ltpFR	4	10	n/a	SHORTCAKE	1292	4	n/a	n/a	n/a	n/a	n/a	n/a
4036699	RECOG_TARGET	n/a	LTP100	ltpFR	4	10	0	ERASER	538	5	0	n/a	n/a	n/a	n/a	n/a
4037497	RECOG_RESP	n/a	LTP100	ltpFR	4	10	0	ERASER	538	n/a	0	n/a	n/a	n/a	n/a	n/a
4038695	RECOG_CONF	n/a	LTP100	ltpFR	4	10	0	ERASER	538	5	0	n/a	n/a	n/a	n/a	n/a
4040095	RECOG_TARGET	n/a	LTP100	ltpFR	4	10	1	RAM	1165	5	1	n/a	n/a	n/a	n/a	n/a
4040855	RECOG_RESP	n/a	LTP100	ltpFR	4	10	1	RAM	1165	n/a	1	n/a	n/a	n/a	n/a	n/a
4041718	RECOG_CONF	n/a	LTP100	ltpFR	4	10	1	RAM	1165	5	1	n/a	n/a	n/a	n/a	n/a
4043108	RECOG_TARGET	n/a	LTP100	ltpFR	4	10	1	TULIP	1517	5	0	n/a	n/a	n/a	n/a	n/a
4043798	RECOG_RESP	n/a	LTP100	ltpFR	4	10	1	TULIP	1517	n/a	0	n/a	n/a	n/a	n/a	n/a
4044571	RECOG_CONF	n/a	LTP100	ltpFR	4	10	1	TULIP	1517	5	0	n/a	n/a	n/a	n/a	n/a
4046129	RECOG_TARGET	n/a	LTP100	ltpFR	4	10	1	NOTEBOOK	959	5	0	n/a	n/a	n/a	n/a	n/a
4046846	RECOG_RESP	n/a	LTP100	ltpFR	4	10	1	NOTEBOOK	959	n/a	0	n/a	n/a	n/a	n/a	n/a
4047714	RECOG_CONF	n/a	LTP100	ltpFR	4	10	1	NOTEBOOK	959	5	0	n/a	n/a	n/a	n/a	n/a
4049284	RECOG_TARGET	n/a	LTP100	ltpFR	4	10	0	TORTOISE	1486	4	1	n/a	n/a	n/a	n/a	n/a
4050128	RECOG_RESP	n/a	LTP100	ltpFR	4	10	0	TORTOISE	1486	n/a	1	n/a	n/a	n/a	n/a	n/a
4051067	RECOG_CONF	n/a	LTP100	ltpFR	4	10	0	TORTOISE	1486	4	1	n/a	n/a	n/a	n/a	n/a
4052539	RECOG_TARGET	n/a	LTP100	ltpFR	4	10	1	PICTURE	1061	5	0	n/a	n/a	n/a	n/a	n/a
4053511	RECOG_RESP	n/a	LTP100	ltpFR	4	10	1	PICTURE	1061	n/a	0	n/a	n/a	n/a	n/a	n/a
4054459	RECOG_CONF	n/a	LTP100	ltpFR	4	10	1	PICTURE	1061	5	0	n/a	n/a	n/a	n/a	n/a
4056068	RECOG_TARGET	n/a	LTP100	ltpFR	4	10	0	SALIVA	1226	5	0	n/a	n/a	n/a	n/a	n/a
4057043	RECOG_RESP	n/a	LTP100	ltpFR	4	10	0	SALIVA	1226	n/a	0	n/a	n/a	n/a	n/a	n/a
4057951	RECOG_CONF	n/a	LTP100	ltpFR	4	10	0	SALIVA	1226	5	0	n/a	n/a	n/a	n/a	n/a
