mstime	trial_type	stim_file	subject	experiment	session	trial	task	item_name	item_num	recog_conf	resp	color_b	color_g	color_r	case	font
0	SESS_START	n/a	LTP211	ltpFR	18	n/a	n/a	n/a	n/a	5	n/a	n/a	n/a	n/a	n/a	n/a
32657	WORD	wordpools/wasnorm_wordpool_less_exclusions.txt	LTP211	ltpFR	18	1	1	COMPASS	358	n/a	0	0	0.5869140625	0.422607421875	upper	../fonts/zerothre.ttf
36502	WORD	wordpools/wasnorm_wordpool_less_exclusions.txt	LTP211	ltpFR	18	1	1	SPIDER	1351	n/a	1	0	0.5869140625	0.422607421875	upper	../fonts/zerothre.ttf
40480	WORD	wordpools/wasnorm_wordpool_less_exclusions.txt	LTP211	ltpFR	18	1	0	PANTS	1010	n/a	0	1	0.412841796875	0.57763671875	lower	../fonts/amplitud.ttf
44573	WORD	wordpools/wasnorm_wordpool_less_exclusions.txt	LTP211	ltpFR	18	1	0	MANAGER	863	n/a	1	1	0.412841796875	0.57763671875	lower	../fonts/amplitud.ttf
48451	WORD	wordpools/wasnorm_wordpool_less_exclusions.txt	LTP211	ltpFR	18	1	0	HEAD	695	n/a	1	1	0.412841796875	0.57763671875	lower	../fonts/amplitud.ttf
52611	WORD	wordpools/wasnorm_wordpool_less_exclusions.txt	LTP211	ltpFR	18	1	1	MEAL	882	n/a	0	0	0.5869140625	0.422607421875	upper	../fonts/zerothre.ttf
56655	WORD	wordpools/wasnorm_wordpool_less_exclusions.txt	LTP211	ltpFR	18	1	1	VINE	1568	n/a	1	0	0.5869140625	0.422607421875	upper	../fonts/zerothre.ttf
60632	WORD	wordpools/wasnorm_wordpool_less_exclusions.txt	LTP211	ltpFR	18	1	1	SCREWDRIVER	1255	n/a	0	0	0.5869140625	0.422607421875	upper	../fonts/zerothre.ttf
64626	WORD	wordpools/wasnorm_wordpool_less_exclusions.txt	LTP211	ltpFR	18	1	1	PUBLISHER	1137	n/a	1	0	0.5869140625	0.422607421875	upper	../fonts/zerothre.ttf
68471	WORD	wordpools/wasnorm_wordpool_less_exclusions.txt	LTP211	ltpFR	18	1	1	BUTTERFLY	206	n/a	1	0	0.5869140625	0.422607421875	upper	../fonts/zerothre.ttf
72315	WORD	wordpools/wasnorm_wordpool_less_exclusions.txt	LTP211	ltpFR	18	1	1	POLYESTER	1100	n/a	0	0	0.5869140625	0.422607421875	upper	../fonts/zerothre.ttf
76259	WORD	wordpools/wasnorm_wordpool_less_exclusions.txt	LTP211	ltpFR	18	1	0	COW	393	n/a	1	1	0.412841796875	0.57763671875	lower	../fonts/amplitud.ttf
80319	WORD	wordpools/wasnorm_wordpool_less_exclusions.txt	LTP211	ltpFR	18	1	0	CALF	222	n/a	1	1	0.412841796875	0.57763671875	lower	../fonts/amplitud.ttf
84481	WORD	wordpools/wasnorm_wordpool_less_exclusions.txt	LTP211	ltpFR	18	1	0	BEAR	106	n/a	1	1	0.412841796875	0.57763671875	lower	../fonts/amplitud.ttf
88674	WORD	wordpools/wasnorm_wordpool_less_exclusions.txt	LTP211	ltpFR	18	1	0	CLAW	319	n/a	0	1	0.412841796875	0.57763671875	lower	../fonts/amplitud.ttf
92884	WORD	wordpools/wasnorm_wordpool_less_exclusions.txt	LTP211	ltpFR	18	1	0	DICTIONARY	463	n/a	1	1	0.412841796875	0.57763671875	lower	../fonts/amplitud.ttf
98809	REC_START	n/a	LTP211	ltpFR	18	1	n/a	n/a	n/a	n/a	n/a	n/a	n/a	n/a	n/a	n/a
101702	REC_WORD	wordpools/wasnorm_wordpool_less_exclusions.txt	LTP211	ltpFR	18	1	1	COMPASS	358	n/a	0	n/a	n/a	n/a	n/a	n/a
102351	REC_WORD	wordpools/wasnorm_wordpool_less_exclusions.txt	LTP211	ltpFR	18	1	1	SPIDER	1351	n/a	1	n/a	n/a	n/a	n/a	n/a
103428	REC_WORD	wordpools/wasnorm_wordpool_less_exclusions.txt	LTP211	ltpFR	18	1	0	PANTS	1010	n/a	0	n/a	n/a	n/a	n/a	n/a
104416	REC_WORD	wordpools/wasnorm_wordpool_less_exclusions.txt	LTP211	ltpFR	18	1	0	MANAGER	863	n/a	1	n/a	n/a	n/a	n/a	n/a
105903	REC_WORD	wordpools/wasnorm_wordpool_less_exclusions.txt	LTP211	ltpFR	18	1	0	HEAD	695	n/a	1	n/a	n/a	n/a	n/a	n/a
107105	REC_WORD	wordpools/wasnorm_wordpool_less_exclusions.txt	LTP211	ltpFR	18	1	1	MEAL	882	n/a	0	n/a	n/a	n/a	n/a	n/a
108088	REC_WORD	wordpools/wasnorm_wordpool_less_exclusions.txt	LTP211	ltpFR	18	1	1	VINE	1568	n/a	1	n/a	n/a	n/a	n/a	n/a
109364	REC_WORD	wordpools/wasnorm_wordpool_less_exclusions.txt	LTP211	ltpFR	18	1	1	SCREWDRIVER	1255	n/a	0	n/a	n/a	n/a	n/a	n/a
112573	REC_WORD	wordpools/wasnorm_wordpool_less_exclusions.txt	LTP211	ltpFR	18	1	1	PUBLISHER	1137	n/a	1	n/a	n/a	n/a	n/a	n/a
121026	REC_WORD	wordpools/wasnorm_wordpool_less_exclusions.txt	LTP211	ltpFR	18	1	1	POLYESTER	1100	n/a	0	n/a	n/a	n/a	n/a	n/a
125189	REC_WORD	wordpools/wasnorm_wordpool_less_exclusions.txt	LTP211	ltpFR	18	1	0	COW	393	n/a	1	n/a	n/a	n/a	n/a	n/a
126057	REC_WORD	wordpools/wasnorm_wordpool_less_exclusions.txt	LTP211	ltpFR	18	1	0	CALF	222	n/a	1	n/a	n/a	n/a	n/a	n/a
129609	REC_WORD	wordpools/wasnorm_wordpool_less_exclusions.txt	LTP211	ltpFR	18	1	0	BEAR	106	n/a	1	n/a	n/a	n/a	n/a	n/a
131420	REC_WORD	wordpools/wasnorm_wordpool_less_exclusions.txt	LTP211	ltpFR	18	1	0	DICTIONARY	463	n/a	1	n/a	n/a	n/a	n/a	n/a
155241	REC_WORD	wordpools/wasnorm_wordpool_less_exclusions.txt	LTP211	ltpFR	18	1	n/a	PAW	1029	n/a	n/a	n/a	n/a	n/a	n/a	n/a
156702	REC_WORD	wordpools/wasnorm_wordpool_less_exclusions.txt	LTP211	ltpFR	18	1	0	CLAW	319	n/a	0	n/a	n/a	n/a	n/a	n/a
187243	WORD	wordpools/wasnorm_wordpool_less_exclusions.txt	LTP211	ltpFR	18	2	0	NUCLEUS	961	n/a	0	1	0.412841796875	0.57763671875	lower	../fonts/amplitud.ttf
191371	WORD	wordpools/wasnorm_wordpool_less_exclusions.txt	LTP211	ltpFR	18	2	0	MOLECULE	905	n/a	0	1	0.412841796875	0.57763671875	lower	../fonts/amplitud.ttf
195348	WORD	wordpools/wasnorm_wordpool_less_exclusions.txt	LTP211	ltpFR	18	2	0	COLUMN	350	n/a	0	1	0.412841796875	0.57763671875	lower	../fonts/amplitud.ttf
199275	WORD	wordpools/wasnorm_wordpool_less_exclusions.txt	LTP211	ltpFR	18	2	1	JOURNAL	760	n/a	0	0	0.5869140625	0.422607421875	upper	../fonts/zerothre.ttf
203403	WORD	wordpools/wasnorm_wordpool_less_exclusions.txt	LTP211	ltpFR	18	2	1	BRAKE	166	n/a	0	0	0.5869140625	0.422607421875	upper	../fonts/zerothre.ttf
207447	WORD	wordpools/wasnorm_wordpool_less_exclusions.txt	LTP211	ltpFR	18	2	1	MONKEY	911	n/a	1	0	0.5869140625	0.422607421875	upper	../fonts/zerothre.ttf
211458	WORD	wordpools/wasnorm_wordpool_less_exclusions.txt	LTP211	ltpFR	18	2	1	BROOK	177	n/a	0	0	0.5869140625	0.422607421875	upper	../fonts/zerothre.ttf
215468	WORD	wordpools/wasnorm_wordpool_less_exclusions.txt	LTP211	ltpFR	18	2	1	BRANCH	168	n/a	0	0	0.5869140625	0.422607421875	upper	../fonts/zerothre.ttf
219312	WORD	wordpools/wasnorm_wordpool_less_exclusions.txt	LTP211	ltpFR	18	2	0	CHERRY	293	n/a	0	1	0.412841796875	0.57763671875	lower	../fonts/amplitud.ttf
223540	WORD	wordpools/wasnorm_wordpool_less_exclusions.txt	LTP211	ltpFR	18	2	0	TRAY	1498	n/a	1	1	0.412841796875	0.57763671875	lower	../fonts/amplitud.ttf
227566	WORD	wordpools/wasnorm_wordpool_less_exclusions.txt	LTP211	ltpFR	18	2	0	SHELF	1280	n/a	1	1	0.412841796875	0.57763671875	lower	../fonts/amplitud.ttf
231577	WORD	wordpools/wasnorm_wordpool_less_exclusions.txt	LTP211	ltpFR	18	2	0	SNOB	1335	n/a	1	1	0.412841796875	0.57763671875	lower	../fonts/amplitud.ttf
235621	WORD	wordpools/wasnorm_wordpool_less_exclusions.txt	LTP211	ltpFR	18	2	0	FACE	547	n/a	1	1	0.412841796875	0.57763671875	lower	../fonts/amplitud.ttf
239532	WORD	wordpools/wasnorm_wordpool_less_exclusions.txt	LTP211	ltpFR	18	2	1	CHIPMUNK	304	n/a	1	0	0.5869140625	0.422607421875	upper	../fonts/zerothre.ttf
243543	WORD	wordpools/wasnorm_wordpool_less_exclusions.txt	LTP211	ltpFR	18	2	1	OTTER	986	n/a	1	0	0.5869140625	0.422607421875	upper	../fonts/zerothre.ttf
247686	WORD	wordpools/wasnorm_wordpool_less_exclusions.txt	LTP211	ltpFR	18	2	1	FRECKLE	602	n/a	0	0	0.5869140625	0.422607421875	upper	../fonts/zerothre.ttf
253429	REC_START	n/a	LTP211	ltpFR	18	2	n/a	n/a	n/a	n/a	n/a	n/a	n/a	n/a	n/a	n/a
256113	REC_WORD	wordpools/wasnorm_wordpool_less_exclusions.txt	LTP211	ltpFR	18	2	0	NUCLEUS	961	n/a	0	n/a	n/a	n/a	n/a	n/a
256791	REC_WORD	wordpools/wasnorm_wordpool_less_exclusions.txt	LTP211	ltpFR	18	2	0	MOLECULE	905	n/a	0	n/a	n/a	n/a	n/a	n/a
257809	REC_WORD	wordpools/wasnorm_wordpool_less_exclusions.txt	LTP211	ltpFR	18	2	0	COLUMN	350	n/a	0	n/a	n/a	n/a	n/a	n/a
260732	REC_WORD	wordpools/wasnorm_wordpool_less_exclusions.txt	LTP211	ltpFR	18	2	1	JOURNAL	760	n/a	0	n/a	n/a	n/a	n/a	n/a
264514	REC_WORD	wordpools/wasnorm_wordpool_less_exclusions.txt	LTP211	ltpFR	18	2	1	BRAKE	166	n/a	0	n/a	n/a	n/a	n/a	n/a
265334	REC_WORD	wordpools/wasnorm_wordpool_less_exclusions.txt	LTP211	ltpFR	18	2	1	MONKEY	911	n/a	1	n/a	n/a	n/a	n/a	n/a
269597	REC_WORD	wordpools/wasnorm_wordpool_less_exclusions.txt	LTP211	ltpFR	18	2	1	BROOK	177	n/a	0	n/a	n/a	n/a	n/a	n/a
270485	REC_WORD	wordpools/wasnorm_wordpool_less_exclusions.txt	LTP211	ltpFR	18	2	1	BRANCH	168	n/a	0	n/a	n/a	n/a	n/a	n/a
273558	REC_WORD	wordpools/wasnorm_wordpool_less_exclusions.txt	LTP211	ltpFR	18	2	0	CHERRY	293	n/a	0	n/a	n/a	n/a	n/a	n/a
276581	REC_WORD	wordpools/wasnorm_wordpool_less_exclusions.txt	LTP211	ltpFR	18	2	0	TRAY	1498	n/a	1	n/a	n/a	n/a	n/a	n/a
277474	REC_WORD	wordpools/wasnorm_wordpool_less_exclusions.txt	LTP211	ltpFR	18	2	0	SHELF	1280	n/a	1	n/a	n/a	n/a	n/a	n/a
278295	REC_WORD	wordpools/wasnorm_wordpool_less_exclusions.txt	LTP211	ltpFR	18	2	0	SNOB	1335	n/a	1	n/a	n/a	n/a	n/a	n/a
280452	REC_WORD	wordpools/wasnorm_wordpool_less_exclusions.txt	LTP211	ltpFR	18	2	0	FACE	547	n/a	1	n/a	n/a	n/a	n/a	n/a
281315	REC_WORD	wordpools/wasnorm_wordpool_less_exclusions.txt	LTP211	ltpFR	18	2	1	CHIPMUNK	304	n/a	1	n/a	n/a	n/a	n/a	n/a
282029	REC_WORD	wordpools/wasnorm_wordpool_less_exclusions.txt	LTP211	ltpFR	18	2	1	OTTER	986	n/a	1	n/a	n/a	n/a	n/a	n/a
282724	REC_WORD	wordpools/wasnorm_wordpool_less_exclusions.txt	LTP211	ltpFR	18	2	1	FRECKLE	602	n/a	0	n/a	n/a	n/a	n/a	n/a
333108	WORD	wordpools/wasnorm_wordpool_less_exclusions.txt	LTP211	ltpFR	18	3	0	JUG	762	n/a	1	1	0.412841796875	0.57763671875	lower	../fonts/amplitud.ttf
337336	WORD	wordpools/wasnorm_wordpool_less_exclusions.txt	LTP211	ltpFR	18	3	0	FARMER	553	n/a	1	1	0.412841796875	0.57763671875	lower	../fonts/amplitud.ttf
341480	WORD	wordpools/wasnorm_wordpool_less_exclusions.txt	LTP211	ltpFR	18	3	0	SCARECROW	1245	n/a	1	1	0.412841796875	0.57763671875	lower	../fonts/amplitud.ttf
345391	WORD	wordpools/wasnorm_wordpool_less_exclusions.txt	LTP211	ltpFR	18	3	1	ARTERY	41	n/a	0	0	0.5869140625	0.422607421875	upper	../fonts/zerothre.ttf
349234	WORD	wordpools/wasnorm_wordpool_less_exclusions.txt	LTP211	ltpFR	18	3	1	CAR	241	n/a	0	0	0.5869140625	0.422607421875	upper	../fonts/zerothre.ttf
353178	WORD	wordpools/wasnorm_wordpool_less_exclusions.txt	LTP211	ltpFR	18	3	1	CRAYON	401	n/a	0	0	0.5869140625	0.422607421875	upper	../fonts/zerothre.ttf
357306	WORD	wordpools/wasnorm_wordpool_less_exclusions.txt	LTP211	ltpFR	18	3	1	PARROT	1015	n/a	1	0	0.5869140625	0.422607421875	upper	../fonts/zerothre.ttf
361133	WORD	wordpools/wasnorm_wordpool_less_exclusions.txt	LTP211	ltpFR	18	3	0	LIGHTER	819	n/a	0	1	0.412841796875	0.57763671875	lower	../fonts/amplitud.ttf
365194	WORD	wordpools/wasnorm_wordpool_less_exclusions.txt	LTP211	ltpFR	18	3	0	CLOTHES	327	n/a	0	1	0.412841796875	0.57763671875	lower	../fonts/amplitud.ttf
369238	WORD	wordpools/wasnorm_wordpool_less_exclusions.txt	LTP211	ltpFR	18	3	0	HANGER	687	n/a	0	1	0.412841796875	0.57763671875	lower	../fonts/amplitud.ttf
373165	WORD	wordpools/wasnorm_wordpool_less_exclusions.txt	LTP211	ltpFR	18	3	1	JUGGLER	763	n/a	1	0	0.5869140625	0.422607421875	upper	../fonts/zerothre.ttf
377126	WORD	wordpools/wasnorm_wordpool_less_exclusions.txt	LTP211	ltpFR	18	3	1	BALL	73	n/a	0	0	0.5869140625	0.422607421875	upper	../fonts/zerothre.ttf
381020	WORD	wordpools/wasnorm_wordpool_less_exclusions.txt	LTP211	ltpFR	18	3	1	POOL	1103	n/a	0	0	0.5869140625	0.422607421875	upper	../fonts/zerothre.ttf
385031	WORD	wordpools/wasnorm_wordpool_less_exclusions.txt	LTP211	ltpFR	18	3	1	PENCIL	1042	n/a	0	0	0.5869140625	0.422607421875	upper	../fonts/zerothre.ttf
389108	WORD	wordpools/wasnorm_wordpool_less_exclusions.txt	LTP211	ltpFR	18	3	0	EAGLE	512	n/a	1	1	0.412841796875	0.57763671875	lower	../fonts/amplitud.ttf
393119	WORD	wordpools/wasnorm_wordpool_less_exclusions.txt	LTP211	ltpFR	18	3	0	NUN	962	n/a	1	1	0.412841796875	0.57763671875	lower	../fonts/amplitud.ttf
399010	REC_START	n/a	LTP211	ltpFR	18	3	n/a	n/a	n/a	n/a	n/a	n/a	n/a	n/a	n/a	n/a
400402	REC_WORD	wordpools/wasnorm_wordpool_less_exclusions.txt	LTP211	ltpFR	18	3	0	JUG	762	n/a	1	n/a	n/a	n/a	n/a	n/a
400956	REC_WORD	wordpools/wasnorm_wordpool_less_exclusions.txt	LTP211	ltpFR	18	3	0	FARMER	553	n/a	1	n/a	n/a	n/a	n/a	n/a
402232	REC_WORD	wordpools/wasnorm_wordpool_less_exclusions.txt	LTP211	ltpFR	18	3	0	SCARECROW	1245	n/a	1	n/a	n/a	n/a	n/a	n/a
403300	REC_WORD	wordpools/wasnorm_wordpool_less_exclusions.txt	LTP211	ltpFR	18	3	1	ARTERY	41	n/a	0	n/a	n/a	n/a	n/a	n/a
404203	REC_WORD	wordpools/wasnorm_wordpool_less_exclusions.txt	LTP211	ltpFR	18	3	1	CAR	241	n/a	0	n/a	n/a	n/a	n/a	n/a
405195	REC_WORD	wordpools/wasnorm_wordpool_less_exclusions.txt	LTP211	ltpFR	18	3	1	CRAYON	401	n/a	0	n/a	n/a	n/a	n/a	n/a
410953	REC_WORD	wordpools/wasnorm_wordpool_less_exclusions.txt	LTP211	ltpFR	18	3	1	PARROT	1015	n/a	1	n/a	n/a	n/a	n/a	n/a
415053	REC_WORD	wordpools/wasnorm_wordpool_less_exclusions.txt	LTP211	ltpFR	18	3	0	LIGHTER	819	n/a	0	n/a	n/a	n/a	n/a	n/a
416575	REC_WORD	wordpools/wasnorm_wordpool_less_exclusions.txt	LTP211	ltpFR	18	3	0	CLOTHES	327	n/a	0	n/a	n/a	n/a	n/a	n/a
418675	REC_WORD	wordpools/wasnorm_wordpool_less_exclusions.txt	LTP211	ltpFR	18	3	0	HANGER	687	n/a	0	n/a	n/a	n/a	n/a	n/a
423459	REC_WORD	wordpools/wasnorm_wordpool_less_exclusions.txt	LTP211	ltpFR	18	3	1	JUGGLER	763	n/a	1	n/a	n/a	n/a	n/a	n/a
424627	REC_WORD	wordpools/wasnorm_wordpool_less_exclusions.txt	LTP211	ltpFR	18	3	1	BALL	73	n/a	0	n/a	n/a	n/a	n/a	n/a
425373	REC_WORD	wordpools/wasnorm_wordpool_less_exclusions.txt	LTP211	ltpFR	18	3	1	POOL	1103	n/a	0	n/a	n/a	n/a	n/a	n/a
427505	REC_WORD	wordpools/wasnorm_wordpool_less_exclusions.txt	LTP211	ltpFR	18	3	1	PENCIL	1042	n/a	0	n/a	n/a	n/a	n/a	n/a
429800	REC_WORD	wordpools/wasnorm_wordpool_less_exclusions.txt	LTP211	ltpFR	18	3	0	EAGLE	512	n/a	1	n/a	n/a	n/a	n/a	n/a
430608	REC_WORD	wordpools/wasnorm_wordpool_less_exclusions.txt	LTP211	ltpFR	18	3	0	NUN	962	n/a	1	n/a	n/a	n/a	n/a	n/a
477193	WORD	wordpools/wasnorm_wordpool_less_exclusions.txt	LTP211	ltpFR	18	4	1	STAKE	1368	n/a	0	0	0.5869140625	0.422607421875	upper	../fonts/zerothre.ttf
481405	WORD	wordpools/wasnorm_wordpool_less_exclusions.txt	LTP211	ltpFR	18	4	1	BEEF	113	n/a	0	0	0.5869140625	0.422607421875	upper	../fonts/zerothre.ttf
485264	WORD	wordpools/wasnorm_wordpool_less_exclusions.txt	LTP211	ltpFR	18	4	1	PILLOW	1069	n/a	0	0	0.5869140625	0.422607421875	upper	../fonts/zerothre.ttf
489225	WORD	wordpools/wasnorm_wordpool_less_exclusions.txt	LTP211	ltpFR	18	4	1	SCALLOP	1242	n/a	0	0	0.5869140625	0.422607421875	upper	../fonts/zerothre.ttf
493086	WORD	wordpools/wasnorm_wordpool_less_exclusions.txt	LTP211	ltpFR	18	4	0	BRUNETTE	181	n/a	1	1	0.412841796875	0.57763671875	lower	../fonts/amplitud.ttf
497296	WORD	wordpools/wasnorm_wordpool_less_exclusions.txt	LTP211	ltpFR	18	4	0	FOREHEAD	592	n/a	0	1	0.412841796875	0.57763671875	lower	../fonts/amplitud.ttf
501441	WORD	wordpools/wasnorm_wordpool_less_exclusions.txt	LTP211	ltpFR	18	4	0	COLLAR	345	n/a	0	1	0.412841796875	0.57763671875	lower	../fonts/amplitud.ttf
505584	WORD	wordpools/wasnorm_wordpool_less_exclusions.txt	LTP211	ltpFR	18	4	0	TORTOISE	1486	n/a	1	1	0.412841796875	0.57763671875	lower	../fonts/amplitud.ttf
509695	WORD	wordpools/wasnorm_wordpool_less_exclusions.txt	LTP211	ltpFR	18	4	0	FEAST	556	n/a	1	1	0.412841796875	0.57763671875	lower	../fonts/amplitud.ttf
513888	WORD	wordpools/wasnorm_wordpool_less_exclusions.txt	LTP211	ltpFR	18	4	0	HAMMOCK	681	n/a	1	1	0.412841796875	0.57763671875	lower	../fonts/amplitud.ttf
518082	WORD	wordpools/wasnorm_wordpool_less_exclusions.txt	LTP211	ltpFR	18	4	1	CARPENTER	246	n/a	1	0	0.5869140625	0.422607421875	upper	../fonts/zerothre.ttf
521926	WORD	wordpools/wasnorm_wordpool_less_exclusions.txt	LTP211	ltpFR	18	4	1	PATH	1023	n/a	0	0	0.5869140625	0.422607421875	upper	../fonts/zerothre.ttf
525904	WORD	wordpools/wasnorm_wordpool_less_exclusions.txt	LTP211	ltpFR	18	4	0	HORSE	719	n/a	1	1	0.412841796875	0.57763671875	lower	../fonts/amplitud.ttf
530064	WORD	wordpools/wasnorm_wordpool_less_exclusions.txt	LTP211	ltpFR	18	4	0	ZEBRA	1635	n/a	1	1	0.412841796875	0.57763671875	lower	../fonts/amplitud.ttf
534042	WORD	wordpools/wasnorm_wordpool_less_exclusions.txt	LTP211	ltpFR	18	4	1	COYOTE	396	n/a	1	0	0.5869140625	0.422607421875	upper	../fonts/zerothre.ttf
537886	WORD	wordpools/wasnorm_wordpool_less_exclusions.txt	LTP211	ltpFR	18	4	1	GUARD	667	n/a	1	0	0.5869140625	0.422607421875	upper	../fonts/zerothre.ttf
543844	REC_START	n/a	LTP211	ltpFR	18	4	n/a	n/a	n/a	n/a	n/a	n/a	n/a	n/a	n/a	n/a
545135	REC_WORD	wordpools/wasnorm_wordpool_less_exclusions.txt	LTP211	ltpFR	18	4	1	STAKE	1368	n/a	0	n/a	n/a	n/a	n/a	n/a
546388	REC_WORD	wordpools/wasnorm_wordpool_less_exclusions.txt	LTP211	ltpFR	18	4	1	BEEF	113	n/a	0	n/a	n/a	n/a	n/a	n/a
547296	REC_WORD	wordpools/wasnorm_wordpool_less_exclusions.txt	LTP211	ltpFR	18	4	1	PILLOW	1069	n/a	0	n/a	n/a	n/a	n/a	n/a
548161	REC_WORD	wordpools/wasnorm_wordpool_less_exclusions.txt	LTP211	ltpFR	18	4	1	SCALLOP	1242	n/a	0	n/a	n/a	n/a	n/a	n/a
549261	REC_WORD	wordpools/wasnorm_wordpool_less_exclusions.txt	LTP211	ltpFR	18	4	0	BRUNETTE	181	n/a	1	n/a	n/a	n/a	n/a	n/a
550414	REC_WORD	wordpools/wasnorm_wordpool_less_exclusions.txt	LTP211	ltpFR	18	4	0	FOREHEAD	592	n/a	0	n/a	n/a	n/a	n/a	n/a
554215	REC_WORD	wordpools/wasnorm_wordpool_less_exclusions.txt	LTP211	ltpFR	18	4	0	TORTOISE	1486	n/a	1	n/a	n/a	n/a	n/a	n/a
558585	REC_WORD	wordpools/wasnorm_wordpool_less_exclusions.txt	LTP211	ltpFR	18	4	0	FEAST	556	n/a	1	n/a	n/a	n/a	n/a	n/a
559708	REC_WORD	wordpools/wasnorm_wordpool_less_exclusions.txt	LTP211	ltpFR	18	4	0	HAMMOCK	681	n/a	1	n/a	n/a	n/a	n/a	n/a
562387	REC_WORD	wordpools/wasnorm_wordpool_less_exclusions.txt	LTP211	ltpFR	18	4	1	CARPENTER	246	n/a	1	n/a	n/a	n/a	n/a	n/a
563744	REC_WORD	wordpools/wasnorm_wordpool_less_exclusions.txt	LTP211	ltpFR	18	4	1	PATH	1023	n/a	0	n/a	n/a	n/a	n/a	n/a
566242	REC_WORD	wordpools/wasnorm_wordpool_less_exclusions.txt	LTP211	ltpFR	18	4	0	HORSE	719	n/a	1	n/a	n/a	n/a	n/a	n/a
567724	REC_WORD	wordpools/wasnorm_wordpool_less_exclusions.txt	LTP211	ltpFR	18	4	0	ZEBRA	1635	n/a	1	n/a	n/a	n/a	n/a	n/a
568873	REC_WORD	wordpools/wasnorm_wordpool_less_exclusions.txt	LTP211	ltpFR	18	4	1	COYOTE	396	n/a	1	n/a	n/a	n/a	n/a	n/a
570114	REC_WORD	wordpools/wasnorm_wordpool_less_exclusions.txt	LTP211	ltpFR	18	4	1	GUARD	667	n/a	1	n/a	n/a	n/a	n/a	n/a
627968	WORD	wordpools/wasnorm_wordpool_less_exclusions.txt	LTP211	ltpFR	18	5	0	RADISH	1158	n/a	0	1	0.412841796875	0.57763671875	lower	../fonts/amplitud.ttf
632178	WORD	wordpools/wasnorm_wordpool_less_exclusions.txt	LTP211	ltpFR	18	5	0	TOMATO	1476	n/a	0	1	0.412841796875	0.57763671875	lower	../fonts/amplitud.ttf
636340	WORD	wordpools/wasnorm_wordpool_less_exclusions.txt	LTP211	ltpFR	18	5	0	RANCH	1166	n/a	1	1	0.412841796875	0.57763671875	lower	../fonts/amplitud.ttf
640216	WORD	wordpools/wasnorm_wordpool_less_exclusions.txt	LTP211	ltpFR	18	5	0	CALENDAR	221	n/a	0	1	0.412841796875	0.57763671875	lower	../fonts/amplitud.ttf
644094	WORD	wordpools/wasnorm_wordpool_less_exclusions.txt	LTP211	ltpFR	18	5	0	CROOK	412	n/a	1	1	0.412841796875	0.57763671875	lower	../fonts/amplitud.ttf
648171	WORD	wordpools/wasnorm_wordpool_less_exclusions.txt	LTP211	ltpFR	18	5	0	BLACKBERRY	132	n/a	0	1	0.412841796875	0.57763671875	lower	../fonts/amplitud.ttf
652182	WORD	wordpools/wasnorm_wordpool_less_exclusions.txt	LTP211	ltpFR	18	5	0	CATTLE	261	n/a	1	1	0.412841796875	0.57763671875	lower	../fonts/amplitud.ttf
656309	WORD	wordpools/wasnorm_wordpool_less_exclusions.txt	LTP211	ltpFR	18	5	0	CLOCK	325	n/a	0	1	0.412841796875	0.57763671875	lower	../fonts/amplitud.ttf
660337	WORD	wordpools/wasnorm_wordpool_less_exclusions.txt	LTP211	ltpFR	18	5	0	PARIS	1014	n/a	1	1	0.412841796875	0.57763671875	lower	../fonts/amplitud.ttf
664348	WORD	wordpools/wasnorm_wordpool_less_exclusions.txt	LTP211	ltpFR	18	5	0	DRESSER	496	n/a	1	1	0.412841796875	0.57763671875	lower	../fonts/amplitud.ttf
668425	WORD	wordpools/wasnorm_wordpool_less_exclusions.txt	LTP211	ltpFR	18	5	0	STOOL	1386	n/a	1	1	0.412841796875	0.57763671875	lower	../fonts/amplitud.ttf
672469	WORD	wordpools/wasnorm_wordpool_less_exclusions.txt	LTP211	ltpFR	18	5	0	STRAWBERRY	1391	n/a	0	1	0.412841796875	0.57763671875	lower	../fonts/amplitud.ttf
676496	WORD	wordpools/wasnorm_wordpool_less_exclusions.txt	LTP211	ltpFR	18	5	0	NOTE	958	n/a	0	1	0.412841796875	0.57763671875	lower	../fonts/amplitud.ttf
680524	WORD	wordpools/wasnorm_wordpool_less_exclusions.txt	LTP211	ltpFR	18	5	0	CLARINET	317	n/a	1	1	0.412841796875	0.57763671875	lower	../fonts/amplitud.ttf
684501	WORD	wordpools/wasnorm_wordpool_less_exclusions.txt	LTP211	ltpFR	18	5	0	MALL	860	n/a	1	1	0.412841796875	0.57763671875	lower	../fonts/amplitud.ttf
688462	WORD	wordpools/wasnorm_wordpool_less_exclusions.txt	LTP211	ltpFR	18	5	0	MARKER	870	n/a	0	1	0.412841796875	0.57763671875	lower	../fonts/amplitud.ttf
694120	REC_START	n/a	LTP211	ltpFR	18	5	n/a	n/a	n/a	n/a	n/a	n/a	n/a	n/a	n/a	n/a
695302	REC_WORD	wordpools/wasnorm_wordpool_less_exclusions.txt	LTP211	ltpFR	18	5	0	RADISH	1158	n/a	0	n/a	n/a	n/a	n/a	n/a
696210	REC_WORD	wordpools/wasnorm_wordpool_less_exclusions.txt	LTP211	ltpFR	18	5	0	TOMATO	1476	n/a	0	n/a	n/a	n/a	n/a	n/a
697193	REC_WORD	wordpools/wasnorm_wordpool_less_exclusions.txt	LTP211	ltpFR	18	5	0	RANCH	1166	n/a	1	n/a	n/a	n/a	n/a	n/a
701533	REC_WORD	wordpools/wasnorm_wordpool_less_exclusions.txt	LTP211	ltpFR	18	5	0	CALENDAR	221	n/a	0	n/a	n/a	n/a	n/a	n/a
702556	REC_WORD	wordpools/wasnorm_wordpool_less_exclusions.txt	LTP211	ltpFR	18	5	0	CROOK	412	n/a	1	n/a	n/a	n/a	n/a	n/a
706661	REC_WORD	wordpools/wasnorm_wordpool_less_exclusions.txt	LTP211	ltpFR	18	5	0	BLACKBERRY	132	n/a	0	n/a	n/a	n/a	n/a	n/a
710947	REC_WORD	wordpools/wasnorm_wordpool_less_exclusions.txt	LTP211	ltpFR	18	5	0	CATTLE	261	n/a	1	n/a	n/a	n/a	n/a	n/a
712183	REC_WORD	wordpools/wasnorm_wordpool_less_exclusions.txt	LTP211	ltpFR	18	5	0	CLOCK	325	n/a	0	n/a	n/a	n/a	n/a	n/a
713810	REC_WORD	wordpools/wasnorm_wordpool_less_exclusions.txt	LTP211	ltpFR	18	5	0	PARIS	1014	n/a	1	n/a	n/a	n/a	n/a	n/a
716235	REC_WORD	wordpools/wasnorm_wordpool_less_exclusions.txt	LTP211	ltpFR	18	5	0	DRESSER	496	n/a	1	n/a	n/a	n/a	n/a	n/a
717052	REC_WORD	wordpools/wasnorm_wordpool_less_exclusions.txt	LTP211	ltpFR	18	5	0	STOOL	1386	n/a	1	n/a	n/a	n/a	n/a	n/a
718055	REC_WORD	wordpools/wasnorm_wordpool_less_exclusions.txt	LTP211	ltpFR	18	5	0	STRAWBERRY	1391	n/a	0	n/a	n/a	n/a	n/a	n/a
719138	REC_WORD	wordpools/wasnorm_wordpool_less_exclusions.txt	LTP211	ltpFR	18	5	0	NOTE	958	n/a	0	n/a	n/a	n/a	n/a	n/a
723298	REC_WORD	wordpools/wasnorm_wordpool_less_exclusions.txt	LTP211	ltpFR	18	5	0	CLARINET	317	n/a	1	n/a	n/a	n/a	n/a	n/a
724130	REC_WORD	wordpools/wasnorm_wordpool_less_exclusions.txt	LTP211	ltpFR	18	5	0	MALL	860	n/a	1	n/a	n/a	n/a	n/a	n/a
724985	REC_WORD	wordpools/wasnorm_wordpool_less_exclusions.txt	LTP211	ltpFR	18	5	0	MARKER	870	n/a	0	n/a	n/a	n/a	n/a	n/a
773101	WORD	wordpools/wasnorm_wordpool_less_exclusions.txt	LTP211	ltpFR	18	6	1	HIKER	708	n/a	1	0	0.5869140625	0.422607421875	upper	../fonts/zerothre.ttf
777212	WORD	wordpools/wasnorm_wordpool_less_exclusions.txt	LTP211	ltpFR	18	6	1	SCRIBBLE	1256	n/a	0	0	0.5869140625	0.422607421875	upper	../fonts/zerothre.ttf
781189	WORD	wordpools/wasnorm_wordpool_less_exclusions.txt	LTP211	ltpFR	18	6	1	WOLF	1619	n/a	1	0	0.5869140625	0.422607421875	upper	../fonts/zerothre.ttf
785384	WORD	wordpools/wasnorm_wordpool_less_exclusions.txt	LTP211	ltpFR	18	6	1	TERRITORY	1452	n/a	1	0	0.5869140625	0.422607421875	upper	../fonts/zerothre.ttf
789411	WORD	wordpools/wasnorm_wordpool_less_exclusions.txt	LTP211	ltpFR	18	6	1	MOAT	903	n/a	0	0	0.5869140625	0.422607421875	upper	../fonts/zerothre.ttf
793488	WORD	wordpools/wasnorm_wordpool_less_exclusions.txt	LTP211	ltpFR	18	6	0	SCROLL	1257	n/a	0	1	0.412841796875	0.57763671875	lower	../fonts/amplitud.ttf
797581	WORD	wordpools/wasnorm_wordpool_less_exclusions.txt	LTP211	ltpFR	18	6	0	MOUNTAIN	924	n/a	1	1	0.412841796875	0.57763671875	lower	../fonts/amplitud.ttf
801460	WORD	wordpools/wasnorm_wordpool_less_exclusions.txt	LTP211	ltpFR	18	6	0	LINT	826	n/a	0	1	0.412841796875	0.57763671875	lower	../fonts/amplitud.ttf
805404	WORD	wordpools/wasnorm_wordpool_less_exclusions.txt	LTP211	ltpFR	18	6	0	MARBLE	867	n/a	0	1	0.412841796875	0.57763671875	lower	../fonts/amplitud.ttf
809264	WORD	wordpools/wasnorm_wordpool_less_exclusions.txt	LTP211	ltpFR	18	6	1	MOWER	928	n/a	0	0	0.5869140625	0.422607421875	upper	../fonts/zerothre.ttf
813308	WORD	wordpools/wasnorm_wordpool_less_exclusions.txt	LTP211	ltpFR	18	6	1	MACHINE	852	n/a	0	0	0.5869140625	0.422607421875	upper	../fonts/zerothre.ttf
817469	WORD	wordpools/wasnorm_wordpool_less_exclusions.txt	LTP211	ltpFR	18	6	1	COWBOY	395	n/a	1	0	0.5869140625	0.422607421875	upper	../fonts/zerothre.ttf
821413	WORD	wordpools/wasnorm_wordpool_less_exclusions.txt	LTP211	ltpFR	18	6	0	UNICORN	1538	n/a	0	1	0.412841796875	0.57763671875	lower	../fonts/amplitud.ttf
825424	WORD	wordpools/wasnorm_wordpool_less_exclusions.txt	LTP211	ltpFR	18	6	0	OVAL	990	n/a	0	1	0.412841796875	0.57763671875	lower	../fonts/amplitud.ttf
829518	WORD	wordpools/wasnorm_wordpool_less_exclusions.txt	LTP211	ltpFR	18	6	0	SPARROW	1347	n/a	0	1	0.412841796875	0.57763671875	lower	../fonts/amplitud.ttf
833529	WORD	wordpools/wasnorm_wordpool_less_exclusions.txt	LTP211	ltpFR	18	6	0	SEAGULL	1261	n/a	1	1	0.412841796875	0.57763671875	lower	../fonts/amplitud.ttf
839236	REC_START	n/a	LTP211	ltpFR	18	6	n/a	n/a	n/a	n/a	n/a	n/a	n/a	n/a	n/a	n/a
841376	REC_WORD	wordpools/wasnorm_wordpool_less_exclusions.txt	LTP211	ltpFR	18	6	1	HIKER	708	n/a	1	n/a	n/a	n/a	n/a	n/a
842114	REC_WORD	wordpools/wasnorm_wordpool_less_exclusions.txt	LTP211	ltpFR	18	6	1	SCRIBBLE	1256	n/a	0	n/a	n/a	n/a	n/a	n/a
843137	REC_WORD	wordpools/wasnorm_wordpool_less_exclusions.txt	LTP211	ltpFR	18	6	1	WOLF	1619	n/a	1	n/a	n/a	n/a	n/a	n/a
844075	REC_WORD	wordpools/wasnorm_wordpool_less_exclusions.txt	LTP211	ltpFR	18	6	1	TERRITORY	1452	n/a	1	n/a	n/a	n/a	n/a	n/a
845107	REC_WORD	wordpools/wasnorm_wordpool_less_exclusions.txt	LTP211	ltpFR	18	6	1	MOAT	903	n/a	0	n/a	n/a	n/a	n/a	n/a
848844	REC_WORD	wordpools/wasnorm_wordpool_less_exclusions.txt	LTP211	ltpFR	18	6	0	SCROLL	1257	n/a	0	n/a	n/a	n/a	n/a	n/a
850256	REC_WORD	wordpools/wasnorm_wordpool_less_exclusions.txt	LTP211	ltpFR	18	6	0	MOUNTAIN	924	n/a	1	n/a	n/a	n/a	n/a	n/a
851902	REC_WORD	wordpools/wasnorm_wordpool_less_exclusions.txt	LTP211	ltpFR	18	6	0	LINT	826	n/a	0	n/a	n/a	n/a	n/a	n/a
852790	REC_WORD	wordpools/wasnorm_wordpool_less_exclusions.txt	LTP211	ltpFR	18	6	0	MARBLE	867	n/a	0	n/a	n/a	n/a	n/a	n/a
861725	REC_WORD	wordpools/wasnorm_wordpool_less_exclusions.txt	LTP211	ltpFR	18	6	1	COWBOY	395	n/a	1	n/a	n/a	n/a	n/a	n/a
862642	REC_WORD	wordpools/wasnorm_wordpool_less_exclusions.txt	LTP211	ltpFR	18	6	0	UNICORN	1538	n/a	0	n/a	n/a	n/a	n/a	n/a
865702	REC_WORD	wordpools/wasnorm_wordpool_less_exclusions.txt	LTP211	ltpFR	18	6	0	SPARROW	1347	n/a	0	n/a	n/a	n/a	n/a	n/a
866997	REC_WORD	wordpools/wasnorm_wordpool_less_exclusions.txt	LTP211	ltpFR	18	6	0	SEAGULL	1261	n/a	1	n/a	n/a	n/a	n/a	n/a
891103	REC_WORD	wordpools/wasnorm_wordpool_less_exclusions.txt	LTP211	ltpFR	18	6	0	OVAL	990	n/a	0	n/a	n/a	n/a	n/a	n/a
923576	WORD	wordpools/wasnorm_wordpool_less_exclusions.txt	LTP211	ltpFR	18	7	0	NIGHTGOWN	953	n/a	1	1	0.412841796875	0.57763671875	lower	../fonts/amplitud.ttf
927687	WORD	wordpools/wasnorm_wordpool_less_exclusions.txt	LTP211	ltpFR	18	7	0	CHICKEN	297	n/a	1	1	0.412841796875	0.57763671875	lower	../fonts/amplitud.ttf
931731	WORD	wordpools/wasnorm_wordpool_less_exclusions.txt	LTP211	ltpFR	18	7	0	SUBWAY	1400	n/a	1	1	0.412841796875	0.57763671875	lower	../fonts/amplitud.ttf
935608	WORD	wordpools/wasnorm_wordpool_less_exclusions.txt	LTP211	ltpFR	18	7	0	SANDWICH	1232	n/a	0	1	0.412841796875	0.57763671875	lower	../fonts/amplitud.ttf
939619	WORD	wordpools/wasnorm_wordpool_less_exclusions.txt	LTP211	ltpFR	18	7	0	PERCH	1048	n/a	0	1	0.412841796875	0.57763671875	lower	../fonts/amplitud.ttf
943613	WORD	wordpools/wasnorm_wordpool_less_exclusions.txt	LTP211	ltpFR	18	7	1	DUCK	504	n/a	1	0	0.5869140625	0.422607421875	upper	../fonts/zerothre.ttf
947590	WORD	wordpools/wasnorm_wordpool_less_exclusions.txt	LTP211	ltpFR	18	7	1	BANDANNA	80	n/a	0	0	0.5869140625	0.422607421875	upper	../fonts/zerothre.ttf
951701	WORD	wordpools/wasnorm_wordpool_less_exclusions.txt	LTP211	ltpFR	18	7	1	CATCHER	258	n/a	1	0	0.5869140625	0.422607421875	upper	../fonts/zerothre.ttf
955728	WORD	wordpools/wasnorm_wordpool_less_exclusions.txt	LTP211	ltpFR	18	7	1	COBRA	336	n/a	1	0	0.5869140625	0.422607421875	upper	../fonts/zerothre.ttf
959573	WORD	wordpools/wasnorm_wordpool_less_exclusions.txt	LTP211	ltpFR	18	7	0	CANDIDATE	228	n/a	3	1	0.412841796875	0.57763671875	lower	../fonts/amplitud.ttf
961936	KEY_MSG	n/a	LTP211	ltpFR	18	7	n/a	n/a	n/a	n/a	n/a	n/a	n/a	n/a	n/a	n/a
964350	WORD	wordpools/wasnorm_wordpool_less_exclusions.txt	LTP211	ltpFR	18	7	0	FILM	565	n/a	0	1	0.412841796875	0.57763671875	lower	../fonts/amplitud.ttf
968243	WORD	wordpools/wasnorm_wordpool_less_exclusions.txt	LTP211	ltpFR	18	7	0	DASHBOARD	441	n/a	1	1	0.412841796875	0.57763671875	lower	../fonts/amplitud.ttf
972338	WORD	wordpools/wasnorm_wordpool_less_exclusions.txt	LTP211	ltpFR	18	7	1	TAXI	1438	n/a	0	0	0.5869140625	0.422607421875	upper	../fonts/zerothre.ttf
976332	WORD	wordpools/wasnorm_wordpool_less_exclusions.txt	LTP211	ltpFR	18	7	1	SNAKE	1333	n/a	1	0	0.5869140625	0.422607421875	upper	../fonts/zerothre.ttf
980376	WORD	wordpools/wasnorm_wordpool_less_exclusions.txt	LTP211	ltpFR	18	7	1	GOVERNOR	651	n/a	1	0	0.5869140625	0.422607421875	upper	../fonts/zerothre.ttf
984536	WORD	wordpools/wasnorm_wordpool_less_exclusions.txt	LTP211	ltpFR	18	7	1	SHORTCAKE	1292	n/a	0	0	0.5869140625	0.422607421875	upper	../fonts/zerothre.ttf
990445	REC_START	n/a	LTP211	ltpFR	18	7	n/a	n/a	n/a	n/a	n/a	n/a	n/a	n/a	n/a	n/a
991487	REC_WORD	wordpools/wasnorm_wordpool_less_exclusions.txt	LTP211	ltpFR	18	7	0	NIGHTGOWN	953	n/a	1	n/a	n/a	n/a	n/a	n/a
992645	REC_WORD	wordpools/wasnorm_wordpool_less_exclusions.txt	LTP211	ltpFR	18	7	0	CHICKEN	297	n/a	1	n/a	n/a	n/a	n/a	n/a
994595	REC_WORD	wordpools/wasnorm_wordpool_less_exclusions.txt	LTP211	ltpFR	18	7	0	SUBWAY	1400	n/a	1	n/a	n/a	n/a	n/a	n/a
996217	REC_WORD	wordpools/wasnorm_wordpool_less_exclusions.txt	LTP211	ltpFR	18	7	0	PERCH	1048	n/a	0	n/a	n/a	n/a	n/a	n/a
997598	REC_WORD	wordpools/wasnorm_wordpool_less_exclusions.txt	LTP211	ltpFR	18	7	0	SANDWICH	1232	n/a	0	n/a	n/a	n/a	n/a	n/a
1002812	REC_WORD	wordpools/wasnorm_wordpool_less_exclusions.txt	LTP211	ltpFR	18	7	1	DUCK	504	n/a	1	n/a	n/a	n/a	n/a	n/a
1003760	REC_WORD	wordpools/wasnorm_wordpool_less_exclusions.txt	LTP211	ltpFR	18	7	1	BANDANNA	80	n/a	0	n/a	n/a	n/a	n/a	n/a
1004932	REC_WORD	wordpools/wasnorm_wordpool_less_exclusions.txt	LTP211	ltpFR	18	7	1	CATCHER	258	n/a	1	n/a	n/a	n/a	n/a	n/a
1007107	REC_WORD	wordpools/wasnorm_wordpool_less_exclusions.txt	LTP211	ltpFR	18	7	1	COBRA	336	n/a	1	n/a	n/a	n/a	n/a	n/a
1009417	REC_WORD	wordpools/wasnorm_wordpool_less_exclusions.txt	LTP211	ltpFR	18	7	0	CANDIDATE	228	n/a	3	n/a	n/a	n/a	n/a	n/a
1010556	REC_WORD	wordpools/wasnorm_wordpool_less_exclusions.txt	LTP211	ltpFR	18	7	0	FILM	565	n/a	0	n/a	n/a	n/a	n/a	n/a
1011746	REC_WORD	wordpools/wasnorm_wordpool_less_exclusions.txt	LTP211	ltpFR	18	7	0	DASHBOARD	441	n/a	1	n/a	n/a	n/a	n/a	n/a
1013213	REC_WORD	wordpools/wasnorm_wordpool_less_exclusions.txt	LTP211	ltpFR	18	7	1	TAXI	1438	n/a	0	n/a	n/a	n/a	n/a	n/a
1019219	REC_WORD	wordpools/wasnorm_wordpool_less_exclusions.txt	LTP211	ltpFR	18	7	1	GOVERNOR	651	n/a	1	n/a	n/a	n/a	n/a	n/a
1020332	REC_WORD	wordpools/wasnorm_wordpool_less_exclusions.txt	LTP211	ltpFR	18	7	1	SHORTCAKE	1292	n/a	0	n/a	n/a	n/a	n/a	n/a
1040471	REC_WORD	wordpools/wasnorm_wordpool_less_exclusions.txt	LTP211	ltpFR	18	7	1	SNAKE	1333	n/a	1	n/a	n/a	n/a	n/a	n/a
1078861	WORD	wordpools/wasnorm_wordpool_less_exclusions.txt	LTP211	ltpFR	18	8	0	COOK	372	n/a	1	1	0.412841796875	0.57763671875	lower	../fonts/amplitud.ttf
1083038	WORD	wordpools/wasnorm_wordpool_less_exclusions.txt	LTP211	ltpFR	18	8	0	OX	994	n/a	1	1	0.412841796875	0.57763671875	lower	../fonts/amplitud.ttf
1086916	WORD	wordpools/wasnorm_wordpool_less_exclusions.txt	LTP211	ltpFR	18	8	0	TOASTER	1472	n/a	0	1	0.412841796875	0.57763671875	lower	../fonts/amplitud.ttf
1090976	WORD	wordpools/wasnorm_wordpool_less_exclusions.txt	LTP211	ltpFR	18	8	0	WATERFALL	1595	n/a	0	1	0.412841796875	0.57763671875	lower	../fonts/amplitud.ttf
1094837	WORD	wordpools/wasnorm_wordpool_less_exclusions.txt	LTP211	ltpFR	18	8	0	WORM	1623	n/a	0	1	0.412841796875	0.57763671875	lower	../fonts/amplitud.ttf
1098781	WORD	wordpools/wasnorm_wordpool_less_exclusions.txt	LTP211	ltpFR	18	8	0	COD	340	n/a	1	1	0.412841796875	0.57763671875	lower	../fonts/amplitud.ttf
1102958	WORD	wordpools/wasnorm_wordpool_less_exclusions.txt	LTP211	ltpFR	18	8	0	VOLLEYBALL	1576	n/a	1	1	0.412841796875	0.57763671875	lower	../fonts/amplitud.ttf
1106836	WORD	wordpools/wasnorm_wordpool_less_exclusions.txt	LTP211	ltpFR	18	8	0	WHEEL	1603	n/a	1	1	0.412841796875	0.57763671875	lower	../fonts/amplitud.ttf
1110863	WORD	wordpools/wasnorm_wordpool_less_exclusions.txt	LTP211	ltpFR	18	8	0	FLIPPER	580	n/a	n/a	1	0.412841796875	0.57763671875	lower	../fonts/amplitud.ttf
1113892	SLOW_MSG	n/a	LTP211	ltpFR	18	8	n/a	n/a	n/a	n/a	n/a	n/a	n/a	n/a	n/a	n/a
1116356	WORD	wordpools/wasnorm_wordpool_less_exclusions.txt	LTP211	ltpFR	18	8	0	TAIL	1430	n/a	0	1	0.412841796875	0.57763671875	lower	../fonts/amplitud.ttf
1120199	WORD	wordpools/wasnorm_wordpool_less_exclusions.txt	LTP211	ltpFR	18	8	0	LONDON	843	n/a	1	1	0.412841796875	0.57763671875	lower	../fonts/amplitud.ttf
1124227	WORD	wordpools/wasnorm_wordpool_less_exclusions.txt	LTP211	ltpFR	18	8	0	EUROPE	541	n/a	1	1	0.412841796875	0.57763671875	lower	../fonts/amplitud.ttf
1128304	WORD	wordpools/wasnorm_wordpool_less_exclusions.txt	LTP211	ltpFR	18	8	0	POT	1114	n/a	0	1	0.412841796875	0.57763671875	lower	../fonts/amplitud.ttf
1132499	WORD	wordpools/wasnorm_wordpool_less_exclusions.txt	LTP211	ltpFR	18	8	0	WINDSHIELD	1612	n/a	1	1	0.412841796875	0.57763671875	lower	../fonts/amplitud.ttf
1136443	WORD	wordpools/wasnorm_wordpool_less_exclusions.txt	LTP211	ltpFR	18	8	0	TAPE	1433	n/a	0	1	0.412841796875	0.57763671875	lower	../fonts/amplitud.ttf
1140303	WORD	wordpools/wasnorm_wordpool_less_exclusions.txt	LTP211	ltpFR	18	8	0	PORTRAIT	1111	n/a	0	1	0.412841796875	0.57763671875	lower	../fonts/amplitud.ttf
1146211	REC_START	n/a	LTP211	ltpFR	18	8	n/a	n/a	n/a	n/a	n/a	n/a	n/a	n/a	n/a	n/a
1147917	REC_WORD	wordpools/wasnorm_wordpool_less_exclusions.txt	LTP211	ltpFR	18	8	0	COOK	372	n/a	1	n/a	n/a	n/a	n/a	n/a
1148810	REC_WORD	wordpools/wasnorm_wordpool_less_exclusions.txt	LTP211	ltpFR	18	8	0	OX	994	n/a	1	n/a	n/a	n/a	n/a	n/a
1149658	REC_WORD	wordpools/wasnorm_wordpool_less_exclusions.txt	LTP211	ltpFR	18	8	0	TOASTER	1472	n/a	0	n/a	n/a	n/a	n/a	n/a
1151209	REC_WORD	wordpools/wasnorm_wordpool_less_exclusions.txt	LTP211	ltpFR	18	8	0	WATERFALL	1595	n/a	0	n/a	n/a	n/a	n/a	n/a
1155086	REC_WORD	wordpools/wasnorm_wordpool_less_exclusions.txt	LTP211	ltpFR	18	8	0	WORM	1623	n/a	0	n/a	n/a	n/a	n/a	n/a
1155974	REC_WORD	wordpools/wasnorm_wordpool_less_exclusions.txt	LTP211	ltpFR	18	8	0	COD	340	n/a	1	n/a	n/a	n/a	n/a	n/a
1158498	REC_WORD	wordpools/wasnorm_wordpool_less_exclusions.txt	LTP211	ltpFR	18	8	0	VOLLEYBALL	1576	n/a	1	n/a	n/a	n/a	n/a	n/a
1159466	REC_WORD	wordpools/wasnorm_wordpool_less_exclusions.txt	LTP211	ltpFR	18	8	0	WHEEL	1603	n/a	1	n/a	n/a	n/a	n/a	n/a
1160261	REC_WORD	wordpools/wasnorm_wordpool_less_exclusions.txt	LTP211	ltpFR	18	8	0	FLIPPER	580	n/a	n/a	n/a	n/a	n/a	n/a	n/a
1161316	REC_WORD	wordpools/wasnorm_wordpool_less_exclusions.txt	LTP211	ltpFR	18	8	0	TAIL	1430	n/a	0	n/a	n/a	n/a	n/a	n/a
1163486	REC_WORD	wordpools/wasnorm_wordpool_less_exclusions.txt	LTP211	ltpFR	18	8	0	LONDON	843	n/a	1	n/a	n/a	n/a	n/a	n/a
1164374	REC_WORD	wordpools/wasnorm_wordpool_less_exclusions.txt	LTP211	ltpFR	18	8	0	EUROPE	541	n/a	1	n/a	n/a	n/a	n/a	n/a
1167562	REC_WORD	wordpools/wasnorm_wordpool_less_exclusions.txt	LTP211	ltpFR	18	8	0	WINDSHIELD	1612	n/a	1	n/a	n/a	n/a	n/a	n/a
1168480	REC_WORD	wordpools/wasnorm_wordpool_less_exclusions.txt	LTP211	ltpFR	18	8	0	TAPE	1433	n/a	0	n/a	n/a	n/a	n/a	n/a
1169283	REC_WORD	wordpools/wasnorm_wordpool_less_exclusions.txt	LTP211	ltpFR	18	8	0	PORTRAIT	1111	n/a	0	n/a	n/a	n/a	n/a	n/a
1233730	WORD	wordpools/wasnorm_wordpool_less_exclusions.txt	LTP211	ltpFR	18	9	-1	CLOSET	326	n/a	-1	1	1.0	1.0	upper	../fonts/Verdana.ttf
1237624	WORD	wordpools/wasnorm_wordpool_less_exclusions.txt	LTP211	ltpFR	18	9	-1	CHESS	294	n/a	-1	1	1.0	1.0	upper	../fonts/Verdana.ttf
1241668	WORD	wordpools/wasnorm_wordpool_less_exclusions.txt	LTP211	ltpFR	18	9	-1	PRODUCER	1129	n/a	-1	1	1.0	1.0	upper	../fonts/Verdana.ttf
1245496	WORD	wordpools/wasnorm_wordpool_less_exclusions.txt	LTP211	ltpFR	18	9	-1	TICKET	1464	n/a	-1	1	1.0	1.0	upper	../fonts/Verdana.ttf
1249606	WORD	wordpools/wasnorm_wordpool_less_exclusions.txt	LTP211	ltpFR	18	9	-1	SOCK	1339	n/a	-1	1	1.0	1.0	upper	../fonts/Verdana.ttf
1253518	WORD	wordpools/wasnorm_wordpool_less_exclusions.txt	LTP211	ltpFR	18	9	-1	FOX	598	n/a	-1	1	1.0	1.0	upper	../fonts/Verdana.ttf
1257661	WORD	wordpools/wasnorm_wordpool_less_exclusions.txt	LTP211	ltpFR	18	9	-1	TENT	1449	n/a	-1	1	1.0	1.0	upper	../fonts/Verdana.ttf
1261771	WORD	wordpools/wasnorm_wordpool_less_exclusions.txt	LTP211	ltpFR	18	9	-1	MANSION	864	n/a	-1	1	1.0	1.0	upper	../fonts/Verdana.ttf
1265815	WORD	wordpools/wasnorm_wordpool_less_exclusions.txt	LTP211	ltpFR	18	9	-1	HIGHWAY	707	n/a	-1	1	1.0	1.0	upper	../fonts/Verdana.ttf
1269793	WORD	wordpools/wasnorm_wordpool_less_exclusions.txt	LTP211	ltpFR	18	9	-1	LACE	792	n/a	-1	1	1.0	1.0	upper	../fonts/Verdana.ttf
1273836	WORD	wordpools/wasnorm_wordpool_less_exclusions.txt	LTP211	ltpFR	18	9	-1	BIBLE	124	n/a	-1	1	1.0	1.0	upper	../fonts/Verdana.ttf
1277764	WORD	wordpools/wasnorm_wordpool_less_exclusions.txt	LTP211	ltpFR	18	9	-1	GAVEL	627	n/a	-1	1	1.0	1.0	upper	../fonts/Verdana.ttf
1281641	WORD	wordpools/wasnorm_wordpool_less_exclusions.txt	LTP211	ltpFR	18	9	-1	LAWYER	806	n/a	-1	1	1.0	1.0	upper	../fonts/Verdana.ttf
1285669	WORD	wordpools/wasnorm_wordpool_less_exclusions.txt	LTP211	ltpFR	18	9	-1	EWE	542	n/a	-1	1	1.0	1.0	upper	../fonts/Verdana.ttf
1289763	WORD	wordpools/wasnorm_wordpool_less_exclusions.txt	LTP211	ltpFR	18	9	-1	STREET	1393	n/a	-1	1	1.0	1.0	upper	../fonts/Verdana.ttf
1293906	WORD	wordpools/wasnorm_wordpool_less_exclusions.txt	LTP211	ltpFR	18	9	-1	MISSILE	900	n/a	-1	1	1.0	1.0	upper	../fonts/Verdana.ttf
1299615	REC_START	n/a	LTP211	ltpFR	18	9	n/a	n/a	n/a	n/a	n/a	n/a	n/a	n/a	n/a	n/a
1302018	REC_WORD	wordpools/wasnorm_wordpool_less_exclusions.txt	LTP211	ltpFR	18	9	-1	CLOSET	326	n/a	-1	n/a	n/a	n/a	n/a	n/a
1305018	REC_WORD	wordpools/wasnorm_wordpool_less_exclusions.txt	LTP211	ltpFR	18	9	-1	CHESS	294	n/a	-1	n/a	n/a	n/a	n/a	n/a
1307988	REC_WORD	wordpools/wasnorm_wordpool_less_exclusions.txt	LTP211	ltpFR	18	9	-1	PRODUCER	1129	n/a	-1	n/a	n/a	n/a	n/a	n/a
1310705	REC_WORD	wordpools/wasnorm_wordpool_less_exclusions.txt	LTP211	ltpFR	18	9	-1	TICKET	1464	n/a	-1	n/a	n/a	n/a	n/a	n/a
1312627	REC_WORD	wordpools/wasnorm_wordpool_less_exclusions.txt	LTP211	ltpFR	18	9	-1	SOCK	1339	n/a	-1	n/a	n/a	n/a	n/a	n/a
1314380	REC_WORD	wordpools/wasnorm_wordpool_less_exclusions.txt	LTP211	ltpFR	18	9	-1	FOX	598	n/a	-1	n/a	n/a	n/a	n/a	n/a
1315893	REC_WORD	wordpools/wasnorm_wordpool_less_exclusions.txt	LTP211	ltpFR	18	9	-1	TENT	1449	n/a	-1	n/a	n/a	n/a	n/a	n/a
1317524	REC_WORD	wordpools/wasnorm_wordpool_less_exclusions.txt	LTP211	ltpFR	18	9	-1	MANSION	864	n/a	-1	n/a	n/a	n/a	n/a	n/a
1318591	REC_WORD	wordpools/wasnorm_wordpool_less_exclusions.txt	LTP211	ltpFR	18	9	-1	HIGHWAY	707	n/a	-1	n/a	n/a	n/a	n/a	n/a
1319819	REC_WORD	wordpools/wasnorm_wordpool_less_exclusions.txt	LTP211	ltpFR	18	9	-1	LACE	792	n/a	-1	n/a	n/a	n/a	n/a	n/a
1321420	REC_WORD	wordpools/wasnorm_wordpool_less_exclusions.txt	LTP211	ltpFR	18	9	-1	BIBLE	124	n/a	-1	n/a	n/a	n/a	n/a	n/a
1330295	REC_WORD	wordpools/wasnorm_wordpool_less_exclusions.txt	LTP211	ltpFR	18	9	-1	GAVEL	627	n/a	-1	n/a	n/a	n/a	n/a	n/a
1332886	REC_WORD_VV	wordpools/wasnorm_wordpool_less_exclusions.txt	LTP211	ltpFR	18	9	n/a	<>	-1	n/a	n/a	n/a	n/a	n/a	n/a	n/a
1333208	REC_WORD	wordpools/wasnorm_wordpool_less_exclusions.txt	LTP211	ltpFR	18	9	-1	LAWYER	806	n/a	-1	n/a	n/a	n/a	n/a	n/a
1336117	REC_WORD	wordpools/wasnorm_wordpool_less_exclusions.txt	LTP211	ltpFR	18	9	-1	STREET	1393	n/a	-1	n/a	n/a	n/a	n/a	n/a
1339709	REC_WORD	wordpools/wasnorm_wordpool_less_exclusions.txt	LTP211	ltpFR	18	9	-1	MISSILE	900	n/a	-1	n/a	n/a	n/a	n/a	n/a
1385421	WORD	wordpools/wasnorm_wordpool_less_exclusions.txt	LTP211	ltpFR	18	10	-1	CHEST	295	n/a	-1	1	1.0	1.0	upper	../fonts/Verdana.ttf
1389314	WORD	wordpools/wasnorm_wordpool_less_exclusions.txt	LTP211	ltpFR	18	10	-1	CREATURE	403	n/a	-1	1	1.0	1.0	upper	../fonts/Verdana.ttf
1393425	WORD	wordpools/wasnorm_wordpool_less_exclusions.txt	LTP211	ltpFR	18	10	-1	FUR	615	n/a	-1	1	1.0	1.0	upper	../fonts/Verdana.ttf
1397552	WORD	wordpools/wasnorm_wordpool_less_exclusions.txt	LTP211	ltpFR	18	10	-1	CAFETERIA	217	n/a	-1	1	1.0	1.0	upper	../fonts/Verdana.ttf
1401745	WORD	wordpools/wasnorm_wordpool_less_exclusions.txt	LTP211	ltpFR	18	10	-1	ATLAS	53	n/a	-1	1	1.0	1.0	upper	../fonts/Verdana.ttf
1405606	WORD	wordpools/wasnorm_wordpool_less_exclusions.txt	LTP211	ltpFR	18	10	-1	VIOLA	1570	n/a	-1	1	1.0	1.0	upper	../fonts/Verdana.ttf
1409617	WORD	wordpools/wasnorm_wordpool_less_exclusions.txt	LTP211	ltpFR	18	10	-1	DETECTIVE	454	n/a	-1	1	1.0	1.0	upper	../fonts/Verdana.ttf
1413594	WORD	wordpools/wasnorm_wordpool_less_exclusions.txt	LTP211	ltpFR	18	10	-1	COP	376	n/a	-1	1	1.0	1.0	upper	../fonts/Verdana.ttf
1417721	WORD	wordpools/wasnorm_wordpool_less_exclusions.txt	LTP211	ltpFR	18	10	-1	STATUE	1374	n/a	-1	1	1.0	1.0	upper	../fonts/Verdana.ttf
1421549	WORD	wordpools/wasnorm_wordpool_less_exclusions.txt	LTP211	ltpFR	18	10	-1	SKETCH	1315	n/a	-1	1	1.0	1.0	upper	../fonts/Verdana.ttf
1425693	WORD	wordpools/wasnorm_wordpool_less_exclusions.txt	LTP211	ltpFR	18	10	-1	BREAST	171	n/a	-1	1	1.0	1.0	upper	../fonts/Verdana.ttf
1429620	WORD	wordpools/wasnorm_wordpool_less_exclusions.txt	LTP211	ltpFR	18	10	-1	RIB	1188	n/a	-1	1	1.0	1.0	upper	../fonts/Verdana.ttf
1433631	WORD	wordpools/wasnorm_wordpool_less_exclusions.txt	LTP211	ltpFR	18	10	-1	SWAMP	1416	n/a	-1	1	1.0	1.0	upper	../fonts/Verdana.ttf
1437808	WORD	wordpools/wasnorm_wordpool_less_exclusions.txt	LTP211	ltpFR	18	10	-1	HEEL	700	n/a	-1	1	1.0	1.0	upper	../fonts/Verdana.ttf
1441802	WORD	wordpools/wasnorm_wordpool_less_exclusions.txt	LTP211	ltpFR	18	10	-1	ROOST	1208	n/a	-1	1	1.0	1.0	upper	../fonts/Verdana.ttf
1446013	WORD	wordpools/wasnorm_wordpool_less_exclusions.txt	LTP211	ltpFR	18	10	-1	GLOBE	641	n/a	-1	1	1.0	1.0	upper	../fonts/Verdana.ttf
1451705	REC_START	n/a	LTP211	ltpFR	18	10	n/a	n/a	n/a	n/a	n/a	n/a	n/a	n/a	n/a	n/a
1454578	REC_WORD	wordpools/wasnorm_wordpool_less_exclusions.txt	LTP211	ltpFR	18	10	-1	CHEST	295	n/a	-1	n/a	n/a	n/a	n/a	n/a
1455561	REC_WORD	wordpools/wasnorm_wordpool_less_exclusions.txt	LTP211	ltpFR	18	10	-1	CREATURE	403	n/a	-1	n/a	n/a	n/a	n/a	n/a
1456372	REC_WORD	wordpools/wasnorm_wordpool_less_exclusions.txt	LTP211	ltpFR	18	10	-1	FUR	615	n/a	-1	n/a	n/a	n/a	n/a	n/a
1457427	REC_WORD	wordpools/wasnorm_wordpool_less_exclusions.txt	LTP211	ltpFR	18	10	-1	CAFETERIA	217	n/a	-1	n/a	n/a	n/a	n/a	n/a
1459711	REC_WORD	wordpools/wasnorm_wordpool_less_exclusions.txt	LTP211	ltpFR	18	10	-1	ATLAS	53	n/a	-1	n/a	n/a	n/a	n/a	n/a
1460545	REC_WORD	wordpools/wasnorm_wordpool_less_exclusions.txt	LTP211	ltpFR	18	10	-1	VIOLA	1570	n/a	-1	n/a	n/a	n/a	n/a	n/a
1461434	REC_WORD	wordpools/wasnorm_wordpool_less_exclusions.txt	LTP211	ltpFR	18	10	-1	DETECTIVE	454	n/a	-1	n/a	n/a	n/a	n/a	n/a
1462485	REC_WORD	wordpools/wasnorm_wordpool_less_exclusions.txt	LTP211	ltpFR	18	10	-1	COP	376	n/a	-1	n/a	n/a	n/a	n/a	n/a
1463712	REC_WORD	wordpools/wasnorm_wordpool_less_exclusions.txt	LTP211	ltpFR	18	10	-1	STATUE	1374	n/a	-1	n/a	n/a	n/a	n/a	n/a
1464649	REC_WORD	wordpools/wasnorm_wordpool_less_exclusions.txt	LTP211	ltpFR	18	10	-1	SKETCH	1315	n/a	-1	n/a	n/a	n/a	n/a	n/a
1465818	REC_WORD	wordpools/wasnorm_wordpool_less_exclusions.txt	LTP211	ltpFR	18	10	-1	BREAST	171	n/a	-1	n/a	n/a	n/a	n/a	n/a
1467264	REC_WORD	wordpools/wasnorm_wordpool_less_exclusions.txt	LTP211	ltpFR	18	10	-1	RIB	1188	n/a	-1	n/a	n/a	n/a	n/a	n/a
1468196	REC_WORD	wordpools/wasnorm_wordpool_less_exclusions.txt	LTP211	ltpFR	18	10	-1	SWAMP	1416	n/a	-1	n/a	n/a	n/a	n/a	n/a
1469324	REC_WORD	wordpools/wasnorm_wordpool_less_exclusions.txt	LTP211	ltpFR	18	10	-1	HEEL	700	n/a	-1	n/a	n/a	n/a	n/a	n/a
1470247	REC_WORD	wordpools/wasnorm_wordpool_less_exclusions.txt	LTP211	ltpFR	18	10	-1	ROOST	1208	n/a	-1	n/a	n/a	n/a	n/a	n/a
1471355	REC_WORD	wordpools/wasnorm_wordpool_less_exclusions.txt	LTP211	ltpFR	18	10	-1	GLOBE	641	n/a	-1	n/a	n/a	n/a	n/a	n/a
1536894	WORD	wordpools/wasnorm_wordpool_less_exclusions.txt	LTP211	ltpFR	18	11	1	STRAW	1390	n/a	2	0	0.5869140625	0.422607421875	upper	../fonts/zerothre.ttf
1538142	KEY_MSG	n/a	LTP211	ltpFR	18	11	n/a	n/a	n/a	n/a	n/a	n/a	n/a	n/a	n/a	n/a
1540721	WORD	wordpools/wasnorm_wordpool_less_exclusions.txt	LTP211	ltpFR	18	11	1	SAXOPHONE	1240	n/a	0	0	0.5869140625	0.422607421875	upper	../fonts/zerothre.ttf
1544665	WORD	wordpools/wasnorm_wordpool_less_exclusions.txt	LTP211	ltpFR	18	11	1	DRUM	502	n/a	0	0	0.5869140625	0.422607421875	upper	../fonts/zerothre.ttf
1548809	WORD	wordpools/wasnorm_wordpool_less_exclusions.txt	LTP211	ltpFR	18	11	1	TOAST	1471	n/a	0	0	0.5869140625	0.422607421875	upper	../fonts/zerothre.ttf
1552720	WORD	wordpools/wasnorm_wordpool_less_exclusions.txt	LTP211	ltpFR	18	11	1	HAY	693	n/a	0	0	0.5869140625	0.422607421875	upper	../fonts/zerothre.ttf
1556897	WORD	wordpools/wasnorm_wordpool_less_exclusions.txt	LTP211	ltpFR	18	11	1	TURKEY	1520	n/a	1	0	0.5869140625	0.422607421875	upper	../fonts/zerothre.ttf
1560958	WORD	wordpools/wasnorm_wordpool_less_exclusions.txt	LTP211	ltpFR	18	11	1	HUMAN	726	n/a	1	0	0.5869140625	0.422607421875	upper	../fonts/zerothre.ttf
1565151	WORD	wordpools/wasnorm_wordpool_less_exclusions.txt	LTP211	ltpFR	18	11	1	MIRROR	899	n/a	0	0	0.5869140625	0.422607421875	upper	../fonts/zerothre.ttf
1569029	WORD	wordpools/wasnorm_wordpool_less_exclusions.txt	LTP211	ltpFR	18	11	1	BALLERINA	74	n/a	1	0	0.5869140625	0.422607421875	upper	../fonts/zerothre.ttf
1573056	WORD	wordpools/wasnorm_wordpool_less_exclusions.txt	LTP211	ltpFR	18	11	1	VEAL	1551	n/a	0	0	0.5869140625	0.422607421875	upper	../fonts/zerothre.ttf
1577183	WORD	wordpools/wasnorm_wordpool_less_exclusions.txt	LTP211	ltpFR	18	11	1	POTATO	1115	n/a	0	0	0.5869140625	0.422607421875	upper	../fonts/zerothre.ttf
1581111	WORD	wordpools/wasnorm_wordpool_less_exclusions.txt	LTP211	ltpFR	18	11	1	CABBAGE	210	n/a	0	0	0.5869140625	0.422607421875	upper	../fonts/zerothre.ttf
1585205	WORD	wordpools/wasnorm_wordpool_less_exclusions.txt	LTP211	ltpFR	18	11	1	CRUMB	416	n/a	0	0	0.5869140625	0.422607421875	upper	../fonts/zerothre.ttf
1589299	WORD	wordpools/wasnorm_wordpool_less_exclusions.txt	LTP211	ltpFR	18	11	1	ARTIST	43	n/a	1	0	0.5869140625	0.422607421875	upper	../fonts/zerothre.ttf
1593393	WORD	wordpools/wasnorm_wordpool_less_exclusions.txt	LTP211	ltpFR	18	11	1	ARCHITECT	36	n/a	1	0	0.5869140625	0.422607421875	upper	../fonts/zerothre.ttf
1597504	WORD	wordpools/wasnorm_wordpool_less_exclusions.txt	LTP211	ltpFR	18	11	1	IGLOO	734	n/a	0	0	0.5869140625	0.422607421875	upper	../fonts/zerothre.ttf
1603396	REC_START	n/a	LTP211	ltpFR	18	11	n/a	n/a	n/a	n/a	n/a	n/a	n/a	n/a	n/a	n/a
1607394	REC_WORD	wordpools/wasnorm_wordpool_less_exclusions.txt	LTP211	ltpFR	18	11	1	STRAW	1390	n/a	2	n/a	n/a	n/a	n/a	n/a
1608239	REC_WORD	wordpools/wasnorm_wordpool_less_exclusions.txt	LTP211	ltpFR	18	11	1	SAXOPHONE	1240	n/a	0	n/a	n/a	n/a	n/a	n/a
1609307	REC_WORD	wordpools/wasnorm_wordpool_less_exclusions.txt	LTP211	ltpFR	18	11	1	DRUM	502	n/a	0	n/a	n/a	n/a	n/a	n/a
1610036	REC_WORD	wordpools/wasnorm_wordpool_less_exclusions.txt	LTP211	ltpFR	18	11	1	TOAST	1471	n/a	0	n/a	n/a	n/a	n/a	n/a
1610782	REC_WORD	wordpools/wasnorm_wordpool_less_exclusions.txt	LTP211	ltpFR	18	11	1	HAY	693	n/a	0	n/a	n/a	n/a	n/a	n/a
1611751	REC_WORD	wordpools/wasnorm_wordpool_less_exclusions.txt	LTP211	ltpFR	18	11	1	TURKEY	1520	n/a	1	n/a	n/a	n/a	n/a	n/a
1612441	REC_WORD	wordpools/wasnorm_wordpool_less_exclusions.txt	LTP211	ltpFR	18	11	1	HUMAN	726	n/a	1	n/a	n/a	n/a	n/a	n/a
1614196	REC_WORD	wordpools/wasnorm_wordpool_less_exclusions.txt	LTP211	ltpFR	18	11	1	MIRROR	899	n/a	0	n/a	n/a	n/a	n/a	n/a
1615019	REC_WORD	wordpools/wasnorm_wordpool_less_exclusions.txt	LTP211	ltpFR	18	11	1	BALLERINA	74	n/a	1	n/a	n/a	n/a	n/a	n/a
1616917	REC_WORD	wordpools/wasnorm_wordpool_less_exclusions.txt	LTP211	ltpFR	18	11	1	VEAL	1551	n/a	0	n/a	n/a	n/a	n/a	n/a
1618227	REC_WORD	wordpools/wasnorm_wordpool_less_exclusions.txt	LTP211	ltpFR	18	11	1	POTATO	1115	n/a	0	n/a	n/a	n/a	n/a	n/a
1619714	REC_WORD	wordpools/wasnorm_wordpool_less_exclusions.txt	LTP211	ltpFR	18	11	1	CABBAGE	210	n/a	0	n/a	n/a	n/a	n/a	n/a
1620771	REC_WORD	wordpools/wasnorm_wordpool_less_exclusions.txt	LTP211	ltpFR	18	11	1	CRUMB	416	n/a	0	n/a	n/a	n/a	n/a	n/a
1624144	REC_WORD	wordpools/wasnorm_wordpool_less_exclusions.txt	LTP211	ltpFR	18	11	1	ARCHITECT	36	n/a	1	n/a	n/a	n/a	n/a	n/a
1624972	REC_WORD	wordpools/wasnorm_wordpool_less_exclusions.txt	LTP211	ltpFR	18	11	1	IGLOO	734	n/a	0	n/a	n/a	n/a	n/a	n/a
1689500	WORD	wordpools/wasnorm_wordpool_less_exclusions.txt	LTP211	ltpFR	18	12	-1	GIRL	637	n/a	-1	1	1.0	1.0	upper	../fonts/Verdana.ttf
1693527	WORD	wordpools/wasnorm_wordpool_less_exclusions.txt	LTP211	ltpFR	18	12	-1	CLERK	321	n/a	-1	1	1.0	1.0	upper	../fonts/Verdana.ttf
1697603	WORD	wordpools/wasnorm_wordpool_less_exclusions.txt	LTP211	ltpFR	18	12	-1	CAULIFLOWER	262	n/a	-1	1	1.0	1.0	upper	../fonts/Verdana.ttf
1701499	WORD	wordpools/wasnorm_wordpool_less_exclusions.txt	LTP211	ltpFR	18	12	-1	PAINT	1003	n/a	-1	1	1.0	1.0	upper	../fonts/Verdana.ttf
1705459	WORD	wordpools/wasnorm_wordpool_less_exclusions.txt	LTP211	ltpFR	18	12	-1	WARRIOR	1589	n/a	-1	1	1.0	1.0	upper	../fonts/Verdana.ttf
1709403	WORD	wordpools/wasnorm_wordpool_less_exclusions.txt	LTP211	ltpFR	18	12	-1	TRENCH	1503	n/a	-1	1	1.0	1.0	upper	../fonts/Verdana.ttf
1713514	WORD	wordpools/wasnorm_wordpool_less_exclusions.txt	LTP211	ltpFR	18	12	-1	FURNITURE	616	n/a	-1	1	1.0	1.0	upper	../fonts/Verdana.ttf
1717375	WORD	wordpools/wasnorm_wordpool_less_exclusions.txt	LTP211	ltpFR	18	12	-1	EARTH	515	n/a	-1	1	1.0	1.0	upper	../fonts/Verdana.ttf
1721352	WORD	wordpools/wasnorm_wordpool_less_exclusions.txt	LTP211	ltpFR	18	12	-1	SCOTCH	1251	n/a	-1	1	1.0	1.0	upper	../fonts/Verdana.ttf
1725529	WORD	wordpools/wasnorm_wordpool_less_exclusions.txt	LTP211	ltpFR	18	12	-1	SCISSORS	1250	n/a	-1	1	1.0	1.0	upper	../fonts/Verdana.ttf
1729523	WORD	wordpools/wasnorm_wordpool_less_exclusions.txt	LTP211	ltpFR	18	12	-1	CLIPPERS	324	n/a	-1	1	1.0	1.0	upper	../fonts/Verdana.ttf
1733534	WORD	wordpools/wasnorm_wordpool_less_exclusions.txt	LTP211	ltpFR	18	12	-1	COTTAGE	384	n/a	-1	1	1.0	1.0	upper	../fonts/Verdana.ttf
1737627	WORD	wordpools/wasnorm_wordpool_less_exclusions.txt	LTP211	ltpFR	18	12	-1	WALL	1582	n/a	-1	1	1.0	1.0	upper	../fonts/Verdana.ttf
1741821	WORD	wordpools/wasnorm_wordpool_less_exclusions.txt	LTP211	ltpFR	18	12	-1	DIAGRAM	456	n/a	-1	1	1.0	1.0	upper	../fonts/Verdana.ttf
1745648	WORD	wordpools/wasnorm_wordpool_less_exclusions.txt	LTP211	ltpFR	18	12	-1	MARS	873	n/a	-1	1	1.0	1.0	upper	../fonts/Verdana.ttf
1749825	WORD	wordpools/wasnorm_wordpool_less_exclusions.txt	LTP211	ltpFR	18	12	-1	FAUCET	555	n/a	-1	1	1.0	1.0	upper	../fonts/Verdana.ttf
1755784	REC_START	n/a	LTP211	ltpFR	18	12	n/a	n/a	n/a	n/a	n/a	n/a	n/a	n/a	n/a	n/a
1756946	REC_WORD	wordpools/wasnorm_wordpool_less_exclusions.txt	LTP211	ltpFR	18	12	-1	GIRL	637	n/a	-1	n/a	n/a	n/a	n/a	n/a
1757611	REC_WORD	wordpools/wasnorm_wordpool_less_exclusions.txt	LTP211	ltpFR	18	12	-1	CLERK	321	n/a	-1	n/a	n/a	n/a	n/a	n/a
1758408	REC_WORD	wordpools/wasnorm_wordpool_less_exclusions.txt	LTP211	ltpFR	18	12	-1	CAULIFLOWER	262	n/a	-1	n/a	n/a	n/a	n/a	n/a
1759445	REC_WORD_VV	wordpools/wasnorm_wordpool_less_exclusions.txt	LTP211	ltpFR	18	12	n/a	<>	-1	n/a	n/a	n/a	n/a	n/a	n/a	n/a
1760367	REC_WORD	wordpools/wasnorm_wordpool_less_exclusions.txt	LTP211	ltpFR	18	12	-1	PAINT	1003	n/a	-1	n/a	n/a	n/a	n/a	n/a
1762793	REC_WORD	wordpools/wasnorm_wordpool_less_exclusions.txt	LTP211	ltpFR	18	12	-1	WARRIOR	1589	n/a	-1	n/a	n/a	n/a	n/a	n/a
1770242	REC_WORD	wordpools/wasnorm_wordpool_less_exclusions.txt	LTP211	ltpFR	18	12	-1	FURNITURE	616	n/a	-1	n/a	n/a	n/a	n/a	n/a
1773623	REC_WORD	wordpools/wasnorm_wordpool_less_exclusions.txt	LTP211	ltpFR	18	12	-1	EARTH	515	n/a	-1	n/a	n/a	n/a	n/a	n/a
1774366	REC_WORD	wordpools/wasnorm_wordpool_less_exclusions.txt	LTP211	ltpFR	18	12	-1	SCOTCH	1251	n/a	-1	n/a	n/a	n/a	n/a	n/a
1775344	REC_WORD	wordpools/wasnorm_wordpool_less_exclusions.txt	LTP211	ltpFR	18	12	-1	SCISSORS	1250	n/a	-1	n/a	n/a	n/a	n/a	n/a
1776467	REC_WORD	wordpools/wasnorm_wordpool_less_exclusions.txt	LTP211	ltpFR	18	12	-1	CLIPPERS	324	n/a	-1	n/a	n/a	n/a	n/a	n/a
1777524	REC_WORD	wordpools/wasnorm_wordpool_less_exclusions.txt	LTP211	ltpFR	18	12	-1	WALL	1582	n/a	-1	n/a	n/a	n/a	n/a	n/a
1779814	REC_WORD	wordpools/wasnorm_wordpool_less_exclusions.txt	LTP211	ltpFR	18	12	-1	DIAGRAM	456	n/a	-1	n/a	n/a	n/a	n/a	n/a
1781535	REC_WORD	wordpools/wasnorm_wordpool_less_exclusions.txt	LTP211	ltpFR	18	12	-1	MARS	873	n/a	-1	n/a	n/a	n/a	n/a	n/a
1783261	REC_WORD	wordpools/wasnorm_wordpool_less_exclusions.txt	LTP211	ltpFR	18	12	-1	FAUCET	555	n/a	-1	n/a	n/a	n/a	n/a	n/a
1831388	REST_REWET	n/a	LTP211	ltpFR	18	12	n/a	n/a	n/a	n/a	n/a	n/a	n/a	n/a	n/a	n/a
2138561	WORD	wordpools/wasnorm_wordpool_less_exclusions.txt	LTP211	ltpFR	18	13	0	ACORN	3	n/a	0	1	0.412841796875	0.57763671875	lower	../fonts/amplitud.ttf
2142722	WORD	wordpools/wasnorm_wordpool_less_exclusions.txt	LTP211	ltpFR	18	13	0	NUT	965	n/a	0	1	0.412841796875	0.57763671875	lower	../fonts/amplitud.ttf
2146683	WORD	wordpools/wasnorm_wordpool_less_exclusions.txt	LTP211	ltpFR	18	13	0	DINER	467	n/a	1	1	0.412841796875	0.57763671875	lower	../fonts/amplitud.ttf
2150826	WORD	wordpools/wasnorm_wordpool_less_exclusions.txt	LTP211	ltpFR	18	13	0	DIAMOND	458	n/a	0	1	0.412841796875	0.57763671875	lower	../fonts/amplitud.ttf
2154987	WORD	wordpools/wasnorm_wordpool_less_exclusions.txt	LTP211	ltpFR	18	13	0	BOXER	160	n/a	1	1	0.412841796875	0.57763671875	lower	../fonts/amplitud.ttf
2159014	WORD	wordpools/wasnorm_wordpool_less_exclusions.txt	LTP211	ltpFR	18	13	0	OVEN	991	n/a	1	1	0.412841796875	0.57763671875	lower	../fonts/amplitud.ttf
2163141	WORD	wordpools/wasnorm_wordpool_less_exclusions.txt	LTP211	ltpFR	18	13	0	BABY	64	n/a	1	1	0.412841796875	0.57763671875	lower	../fonts/amplitud.ttf
2167302	WORD	wordpools/wasnorm_wordpool_less_exclusions.txt	LTP211	ltpFR	18	13	0	CROCODILE	411	n/a	1	1	0.412841796875	0.57763671875	lower	../fonts/amplitud.ttf
2171447	WORD	wordpools/wasnorm_wordpool_less_exclusions.txt	LTP211	ltpFR	18	13	0	MICROSCOPE	891	n/a	0	1	0.412841796875	0.57763671875	lower	../fonts/amplitud.ttf
2175341	WORD	wordpools/wasnorm_wordpool_less_exclusions.txt	LTP211	ltpFR	18	13	0	VIOLIN	1571	n/a	1	1	0.412841796875	0.57763671875	lower	../fonts/amplitud.ttf
2179501	WORD	wordpools/wasnorm_wordpool_less_exclusions.txt	LTP211	ltpFR	18	13	0	CONCERT	360	n/a	0	1	0.412841796875	0.57763671875	lower	../fonts/amplitud.ttf
2183362	WORD	wordpools/wasnorm_wordpool_less_exclusions.txt	LTP211	ltpFR	18	13	0	JEWEL	757	n/a	0	1	0.412841796875	0.57763671875	lower	../fonts/amplitud.ttf
2187340	WORD	wordpools/wasnorm_wordpool_less_exclusions.txt	LTP211	ltpFR	18	13	0	MOB	904	n/a	1	1	0.412841796875	0.57763671875	lower	../fonts/amplitud.ttf
2191316	WORD	wordpools/wasnorm_wordpool_less_exclusions.txt	LTP211	ltpFR	18	13	0	PAIL	1002	n/a	0	1	0.412841796875	0.57763671875	lower	../fonts/amplitud.ttf
2195511	WORD	wordpools/wasnorm_wordpool_less_exclusions.txt	LTP211	ltpFR	18	13	0	DIGGER	464	n/a	1	1	0.412841796875	0.57763671875	lower	../fonts/amplitud.ttf
2199455	WORD	wordpools/wasnorm_wordpool_less_exclusions.txt	LTP211	ltpFR	18	13	0	HOUND	724	n/a	1	1	0.412841796875	0.57763671875	lower	../fonts/amplitud.ttf
2205312	REC_START	n/a	LTP211	ltpFR	18	13	n/a	n/a	n/a	n/a	n/a	n/a	n/a	n/a	n/a	n/a
2206175	REC_WORD	wordpools/wasnorm_wordpool_less_exclusions.txt	LTP211	ltpFR	18	13	0	ACORN	3	n/a	0	n/a	n/a	n/a	n/a	n/a
2207023	REC_WORD	wordpools/wasnorm_wordpool_less_exclusions.txt	LTP211	ltpFR	18	13	0	NUT	965	n/a	0	n/a	n/a	n/a	n/a	n/a
2208066	REC_WORD	wordpools/wasnorm_wordpool_less_exclusions.txt	LTP211	ltpFR	18	13	0	DINER	467	n/a	1	n/a	n/a	n/a	n/a	n/a
2209173	REC_WORD	wordpools/wasnorm_wordpool_less_exclusions.txt	LTP211	ltpFR	18	13	0	DIAMOND	458	n/a	0	n/a	n/a	n/a	n/a	n/a
2211178	REC_WORD	wordpools/wasnorm_wordpool_less_exclusions.txt	LTP211	ltpFR	18	13	0	BOXER	160	n/a	1	n/a	n/a	n/a	n/a	n/a
2212830	REC_WORD	wordpools/wasnorm_wordpool_less_exclusions.txt	LTP211	ltpFR	18	13	0	OVEN	991	n/a	1	n/a	n/a	n/a	n/a	n/a
2214671	REC_WORD	wordpools/wasnorm_wordpool_less_exclusions.txt	LTP211	ltpFR	18	13	0	BABY	64	n/a	1	n/a	n/a	n/a	n/a	n/a
2215903	REC_WORD	wordpools/wasnorm_wordpool_less_exclusions.txt	LTP211	ltpFR	18	13	0	CROCODILE	411	n/a	1	n/a	n/a	n/a	n/a	n/a
2218267	REC_WORD	wordpools/wasnorm_wordpool_less_exclusions.txt	LTP211	ltpFR	18	13	0	MICROSCOPE	891	n/a	0	n/a	n/a	n/a	n/a	n/a
2221839	REC_WORD	wordpools/wasnorm_wordpool_less_exclusions.txt	LTP211	ltpFR	18	13	0	VIOLIN	1571	n/a	1	n/a	n/a	n/a	n/a	n/a
2223161	REC_WORD	wordpools/wasnorm_wordpool_less_exclusions.txt	LTP211	ltpFR	18	13	0	CONCERT	360	n/a	0	n/a	n/a	n/a	n/a	n/a
2225502	REC_WORD	wordpools/wasnorm_wordpool_less_exclusions.txt	LTP211	ltpFR	18	13	0	JEWEL	757	n/a	0	n/a	n/a	n/a	n/a	n/a
2226833	REC_WORD	wordpools/wasnorm_wordpool_less_exclusions.txt	LTP211	ltpFR	18	13	0	MOB	904	n/a	1	n/a	n/a	n/a	n/a	n/a
2232665	REC_WORD	wordpools/wasnorm_wordpool_less_exclusions.txt	LTP211	ltpFR	18	13	0	PAIL	1002	n/a	0	n/a	n/a	n/a	n/a	n/a
2234042	REC_WORD	wordpools/wasnorm_wordpool_less_exclusions.txt	LTP211	ltpFR	18	13	0	DIGGER	464	n/a	1	n/a	n/a	n/a	n/a	n/a
2234859	REC_WORD	wordpools/wasnorm_wordpool_less_exclusions.txt	LTP211	ltpFR	18	13	0	HOUND	724	n/a	1	n/a	n/a	n/a	n/a	n/a
2285059	WORD	wordpools/wasnorm_wordpool_less_exclusions.txt	LTP211	ltpFR	18	14	1	MARINE	869	n/a	1	0	0.5869140625	0.422607421875	upper	../fonts/zerothre.ttf
2288937	WORD	wordpools/wasnorm_wordpool_less_exclusions.txt	LTP211	ltpFR	18	14	1	RIVER	1194	n/a	0	0	0.5869140625	0.422607421875	upper	../fonts/zerothre.ttf
2292881	WORD	wordpools/wasnorm_wordpool_less_exclusions.txt	LTP211	ltpFR	18	14	1	CLASS	318	n/a	0	0	0.5869140625	0.422607421875	upper	../fonts/zerothre.ttf
2296958	WORD	wordpools/wasnorm_wordpool_less_exclusions.txt	LTP211	ltpFR	18	14	1	FOLDER	588	n/a	0	0	0.5869140625	0.422607421875	upper	../fonts/zerothre.ttf
2300936	WORD	wordpools/wasnorm_wordpool_less_exclusions.txt	LTP211	ltpFR	18	14	1	TUXEDO	1525	n/a	0	0	0.5869140625	0.422607421875	upper	../fonts/zerothre.ttf
2305046	WORD	wordpools/wasnorm_wordpool_less_exclusions.txt	LTP211	ltpFR	18	14	1	ARENA	37	n/a	0	0	0.5869140625	0.422607421875	upper	../fonts/zerothre.ttf
2308974	WORD	wordpools/wasnorm_wordpool_less_exclusions.txt	LTP211	ltpFR	18	14	1	VACUUM	1543	n/a	0	0	0.5869140625	0.422607421875	upper	../fonts/zerothre.ttf
2313134	WORD	wordpools/wasnorm_wordpool_less_exclusions.txt	LTP211	ltpFR	18	14	1	MAT	877	n/a	0	0	0.5869140625	0.422607421875	upper	../fonts/zerothre.ttf
2316995	WORD	wordpools/wasnorm_wordpool_less_exclusions.txt	LTP211	ltpFR	18	14	1	TOOTH	1481	n/a	0	0	0.5869140625	0.422607421875	upper	../fonts/zerothre.ttf
2320989	WORD	wordpools/wasnorm_wordpool_less_exclusions.txt	LTP211	ltpFR	18	14	1	HORNET	718	n/a	1	0	0.5869140625	0.422607421875	upper	../fonts/zerothre.ttf
2325133	WORD	wordpools/wasnorm_wordpool_less_exclusions.txt	LTP211	ltpFR	18	14	1	NOTEBOOK	959	n/a	0	0	0.5869140625	0.422607421875	upper	../fonts/zerothre.ttf
2329344	WORD	wordpools/wasnorm_wordpool_less_exclusions.txt	LTP211	ltpFR	18	14	1	RUNNER	1218	n/a	1	0	0.5869140625	0.422607421875	upper	../fonts/zerothre.ttf
2333521	WORD	wordpools/wasnorm_wordpool_less_exclusions.txt	LTP211	ltpFR	18	14	1	SHEEP	1278	n/a	1	0	0.5869140625	0.422607421875	upper	../fonts/zerothre.ttf
2337564	WORD	wordpools/wasnorm_wordpool_less_exclusions.txt	LTP211	ltpFR	18	14	1	BEE	112	n/a	1	0	0.5869140625	0.422607421875	upper	../fonts/zerothre.ttf
2341526	WORD	wordpools/wasnorm_wordpool_less_exclusions.txt	LTP211	ltpFR	18	14	1	JACKET	747	n/a	0	0	0.5869140625	0.422607421875	upper	../fonts/zerothre.ttf
2345370	WORD	wordpools/wasnorm_wordpool_less_exclusions.txt	LTP211	ltpFR	18	14	1	BUTTON	207	n/a	0	0	0.5869140625	0.422607421875	upper	../fonts/zerothre.ttf
2351362	REC_START	n/a	LTP211	ltpFR	18	14	n/a	n/a	n/a	n/a	n/a	n/a	n/a	n/a	n/a	n/a
2352474	REC_WORD	wordpools/wasnorm_wordpool_less_exclusions.txt	LTP211	ltpFR	18	14	1	MARINE	869	n/a	1	n/a	n/a	n/a	n/a	n/a
2353681	REC_WORD	wordpools/wasnorm_wordpool_less_exclusions.txt	LTP211	ltpFR	18	14	1	RIVER	1194	n/a	0	n/a	n/a	n/a	n/a	n/a
2355423	REC_WORD	wordpools/wasnorm_wordpool_less_exclusions.txt	LTP211	ltpFR	18	14	1	CLASS	318	n/a	0	n/a	n/a	n/a	n/a	n/a
2357383	REC_WORD	wordpools/wasnorm_wordpool_less_exclusions.txt	LTP211	ltpFR	18	14	1	FOLDER	588	n/a	0	n/a	n/a	n/a	n/a	n/a
2360556	REC_WORD	wordpools/wasnorm_wordpool_less_exclusions.txt	LTP211	ltpFR	18	14	1	ARENA	37	n/a	0	n/a	n/a	n/a	n/a	n/a
2361638	REC_WORD	wordpools/wasnorm_wordpool_less_exclusions.txt	LTP211	ltpFR	18	14	1	TUXEDO	1525	n/a	0	n/a	n/a	n/a	n/a	n/a
2363110	REC_WORD	wordpools/wasnorm_wordpool_less_exclusions.txt	LTP211	ltpFR	18	14	1	VACUUM	1543	n/a	0	n/a	n/a	n/a	n/a	n/a
2364123	REC_WORD	wordpools/wasnorm_wordpool_less_exclusions.txt	LTP211	ltpFR	18	14	1	MAT	877	n/a	0	n/a	n/a	n/a	n/a	n/a
2366158	REC_WORD	wordpools/wasnorm_wordpool_less_exclusions.txt	LTP211	ltpFR	18	14	1	TOOTH	1481	n/a	0	n/a	n/a	n/a	n/a	n/a
2367066	REC_WORD	wordpools/wasnorm_wordpool_less_exclusions.txt	LTP211	ltpFR	18	14	1	HORNET	718	n/a	1	n/a	n/a	n/a	n/a	n/a
2372544	REC_WORD	wordpools/wasnorm_wordpool_less_exclusions.txt	LTP211	ltpFR	18	14	1	RUNNER	1218	n/a	1	n/a	n/a	n/a	n/a	n/a
2375612	REC_WORD	wordpools/wasnorm_wordpool_less_exclusions.txt	LTP211	ltpFR	18	14	1	SHEEP	1278	n/a	1	n/a	n/a	n/a	n/a	n/a
2377951	REC_WORD	wordpools/wasnorm_wordpool_less_exclusions.txt	LTP211	ltpFR	18	14	1	BEE	112	n/a	1	n/a	n/a	n/a	n/a	n/a
2379433	REC_WORD	wordpools/wasnorm_wordpool_less_exclusions.txt	LTP211	ltpFR	18	14	1	JACKET	747	n/a	0	n/a	n/a	n/a	n/a	n/a
2397851	REC_WORD	wordpools/wasnorm_wordpool_less_exclusions.txt	LTP211	ltpFR	18	14	1	NOTEBOOK	959	n/a	0	n/a	n/a	n/a	n/a	n/a
2438746	WORD	wordpools/wasnorm_wordpool_less_exclusions.txt	LTP211	ltpFR	18	15	-1	DOG	480	n/a	-1	1	1.0	1.0	upper	../fonts/Verdana.ttf
2442840	WORD	wordpools/wasnorm_wordpool_less_exclusions.txt	LTP211	ltpFR	18	15	-1	FLEA	577	n/a	-1	1	1.0	1.0	upper	../fonts/Verdana.ttf
2446834	WORD	wordpools/wasnorm_wordpool_less_exclusions.txt	LTP211	ltpFR	18	15	-1	FLESH	579	n/a	-1	1	1.0	1.0	upper	../fonts/Verdana.ttf
2450678	WORD	wordpools/wasnorm_wordpool_less_exclusions.txt	LTP211	ltpFR	18	15	-1	SKIRT	1319	n/a	-1	1	1.0	1.0	upper	../fonts/Verdana.ttf
2454806	WORD	wordpools/wasnorm_wordpool_less_exclusions.txt	LTP211	ltpFR	18	15	-1	THIGH	1457	n/a	-1	1	1.0	1.0	upper	../fonts/Verdana.ttf
2458783	WORD	wordpools/wasnorm_wordpool_less_exclusions.txt	LTP211	ltpFR	18	15	-1	WALNUT	1584	n/a	-1	1	1.0	1.0	upper	../fonts/Verdana.ttf
2462944	WORD	wordpools/wasnorm_wordpool_less_exclusions.txt	LTP211	ltpFR	18	15	-1	DWARF	510	n/a	-1	1	1.0	1.0	upper	../fonts/Verdana.ttf
2466788	WORD	wordpools/wasnorm_wordpool_less_exclusions.txt	LTP211	ltpFR	18	15	-1	PUDDLE	1140	n/a	-1	1	1.0	1.0	upper	../fonts/Verdana.ttf
2470865	WORD	wordpools/wasnorm_wordpool_less_exclusions.txt	LTP211	ltpFR	18	15	-1	FRIEND	606	n/a	-1	1	1.0	1.0	upper	../fonts/Verdana.ttf
2474959	WORD	wordpools/wasnorm_wordpool_less_exclusions.txt	LTP211	ltpFR	18	15	-1	FAMILY	550	n/a	-1	1	1.0	1.0	upper	../fonts/Verdana.ttf
2479169	WORD	wordpools/wasnorm_wordpool_less_exclusions.txt	LTP211	ltpFR	18	15	-1	ABDOMEN	1	n/a	-1	1	1.0	1.0	upper	../fonts/Verdana.ttf
2483130	WORD	wordpools/wasnorm_wordpool_less_exclusions.txt	LTP211	ltpFR	18	15	-1	ISLAND	745	n/a	-1	1	1.0	1.0	upper	../fonts/Verdana.ttf
2487124	WORD	wordpools/wasnorm_wordpool_less_exclusions.txt	LTP211	ltpFR	18	15	-1	CART	250	n/a	-1	1	1.0	1.0	upper	../fonts/Verdana.ttf
2491201	WORD	wordpools/wasnorm_wordpool_less_exclusions.txt	LTP211	ltpFR	18	15	-1	CAFE	216	n/a	-1	1	1.0	1.0	upper	../fonts/Verdana.ttf
2495162	WORD	wordpools/wasnorm_wordpool_less_exclusions.txt	LTP211	ltpFR	18	15	-1	GRILL	661	n/a	-1	1	1.0	1.0	upper	../fonts/Verdana.ttf
2499273	WORD	wordpools/wasnorm_wordpool_less_exclusions.txt	LTP211	ltpFR	18	15	-1	LIMB	822	n/a	-1	1	1.0	1.0	upper	../fonts/Verdana.ttf
2505015	REC_START	n/a	LTP211	ltpFR	18	15	n/a	n/a	n/a	n/a	n/a	n/a	n/a	n/a	n/a	n/a
2507933	REC_WORD	wordpools/wasnorm_wordpool_less_exclusions.txt	LTP211	ltpFR	18	15	-1	DOG	480	n/a	-1	n/a	n/a	n/a	n/a	n/a
2508571	REC_WORD	wordpools/wasnorm_wordpool_less_exclusions.txt	LTP211	ltpFR	18	15	-1	FLEA	577	n/a	-1	n/a	n/a	n/a	n/a	n/a
2509489	REC_WORD	wordpools/wasnorm_wordpool_less_exclusions.txt	LTP211	ltpFR	18	15	-1	FLESH	579	n/a	-1	n/a	n/a	n/a	n/a	n/a
2510415	REC_WORD	wordpools/wasnorm_wordpool_less_exclusions.txt	LTP211	ltpFR	18	15	-1	SKIRT	1319	n/a	-1	n/a	n/a	n/a	n/a	n/a
2511354	REC_WORD	wordpools/wasnorm_wordpool_less_exclusions.txt	LTP211	ltpFR	18	15	-1	THIGH	1457	n/a	-1	n/a	n/a	n/a	n/a	n/a
2512802	REC_WORD	wordpools/wasnorm_wordpool_less_exclusions.txt	LTP211	ltpFR	18	15	-1	WALNUT	1584	n/a	-1	n/a	n/a	n/a	n/a	n/a
2513964	REC_WORD	wordpools/wasnorm_wordpool_less_exclusions.txt	LTP211	ltpFR	18	15	-1	DWARF	510	n/a	-1	n/a	n/a	n/a	n/a	n/a
2516932	REC_WORD	wordpools/wasnorm_wordpool_less_exclusions.txt	LTP211	ltpFR	18	15	-1	FRIEND	606	n/a	-1	n/a	n/a	n/a	n/a	n/a
2519746	REC_WORD	wordpools/wasnorm_wordpool_less_exclusions.txt	LTP211	ltpFR	18	15	-1	ABDOMEN	1	n/a	-1	n/a	n/a	n/a	n/a	n/a
2523513	REC_WORD	wordpools/wasnorm_wordpool_less_exclusions.txt	LTP211	ltpFR	18	15	-1	ISLAND	745	n/a	-1	n/a	n/a	n/a	n/a	n/a
2528686	REC_WORD	wordpools/wasnorm_wordpool_less_exclusions.txt	LTP211	ltpFR	18	15	-1	CART	250	n/a	-1	n/a	n/a	n/a	n/a	n/a
2530397	REC_WORD	wordpools/wasnorm_wordpool_less_exclusions.txt	LTP211	ltpFR	18	15	-1	CAFE	216	n/a	-1	n/a	n/a	n/a	n/a	n/a
2531769	REC_WORD	wordpools/wasnorm_wordpool_less_exclusions.txt	LTP211	ltpFR	18	15	-1	GRILL	661	n/a	-1	n/a	n/a	n/a	n/a	n/a
2533640	REC_WORD	wordpools/wasnorm_wordpool_less_exclusions.txt	LTP211	ltpFR	18	15	-1	LIMB	822	n/a	-1	n/a	n/a	n/a	n/a	n/a
2542684	REC_WORD	wordpools/wasnorm_wordpool_less_exclusions.txt	LTP211	ltpFR	18	15	-1	FAMILY	550	n/a	-1	n/a	n/a	n/a	n/a	n/a
2589604	WORD	wordpools/wasnorm_wordpool_less_exclusions.txt	LTP211	ltpFR	18	16	1	OPERA	978	n/a	1	0	0.5869140625	0.422607421875	upper	../fonts/zerothre.ttf
2593715	WORD	wordpools/wasnorm_wordpool_less_exclusions.txt	LTP211	ltpFR	18	16	1	MICROPHONE	890	n/a	0	0	0.5869140625	0.422607421875	upper	../fonts/zerothre.ttf
2597592	WORD	wordpools/wasnorm_wordpool_less_exclusions.txt	LTP211	ltpFR	18	16	1	TUB	1514	n/a	0	0	0.5869140625	0.422607421875	upper	../fonts/zerothre.ttf
2601769	WORD	wordpools/wasnorm_wordpool_less_exclusions.txt	LTP211	ltpFR	18	16	1	PLUMBER	1091	n/a	1	0	0.5869140625	0.422607421875	upper	../fonts/zerothre.ttf
2605730	WORD	wordpools/wasnorm_wordpool_less_exclusions.txt	LTP211	ltpFR	18	16	1	SCOUT	1252	n/a	1	0	0.5869140625	0.422607421875	upper	../fonts/zerothre.ttf
2609558	WORD	wordpools/wasnorm_wordpool_less_exclusions.txt	LTP211	ltpFR	18	16	1	GRAVEL	659	n/a	0	0	0.5869140625	0.422607421875	upper	../fonts/zerothre.ttf
2613652	WORD	wordpools/wasnorm_wordpool_less_exclusions.txt	LTP211	ltpFR	18	16	1	BIRD	129	n/a	1	0	0.5869140625	0.422607421875	upper	../fonts/zerothre.ttf
2617662	WORD	wordpools/wasnorm_wordpool_less_exclusions.txt	LTP211	ltpFR	18	16	1	BUGLE	189	n/a	0	0	0.5869140625	0.422607421875	upper	../fonts/zerothre.ttf
2621573	WORD	wordpools/wasnorm_wordpool_less_exclusions.txt	LTP211	ltpFR	18	16	1	CARRIAGE	248	n/a	0	0	0.5869140625	0.422607421875	upper	../fonts/zerothre.ttf
2625584	WORD	wordpools/wasnorm_wordpool_less_exclusions.txt	LTP211	ltpFR	18	16	1	IDOL	733	n/a	0	0	0.5869140625	0.422607421875	upper	../fonts/zerothre.ttf
2629711	WORD	wordpools/wasnorm_wordpool_less_exclusions.txt	LTP211	ltpFR	18	16	1	CATHEDRAL	260	n/a	0	0	0.5869140625	0.422607421875	upper	../fonts/zerothre.ttf
2633722	WORD	wordpools/wasnorm_wordpool_less_exclusions.txt	LTP211	ltpFR	18	16	1	FREEZER	604	n/a	0	0	0.5869140625	0.422607421875	upper	../fonts/zerothre.ttf
2637716	WORD	wordpools/wasnorm_wordpool_less_exclusions.txt	LTP211	ltpFR	18	16	1	SERGEANT	1269	n/a	1	0	0.5869140625	0.422607421875	upper	../fonts/zerothre.ttf
2641926	WORD	wordpools/wasnorm_wordpool_less_exclusions.txt	LTP211	ltpFR	18	16	1	LEOPARD	812	n/a	1	0	0.5869140625	0.422607421875	upper	../fonts/zerothre.ttf
2645787	WORD	wordpools/wasnorm_wordpool_less_exclusions.txt	LTP211	ltpFR	18	16	1	HEATER	698	n/a	0	0	0.5869140625	0.422607421875	upper	../fonts/zerothre.ttf
2649764	WORD	wordpools/wasnorm_wordpool_less_exclusions.txt	LTP211	ltpFR	18	16	1	PIGEON	1065	n/a	1	0	0.5869140625	0.422607421875	upper	../fonts/zerothre.ttf
2655623	REC_START	n/a	LTP211	ltpFR	18	16	n/a	n/a	n/a	n/a	n/a	n/a	n/a	n/a	n/a	n/a
2658012	REC_WORD	wordpools/wasnorm_wordpool_less_exclusions.txt	LTP211	ltpFR	18	16	1	OPERA	978	n/a	1	n/a	n/a	n/a	n/a	n/a
2659404	REC_WORD	wordpools/wasnorm_wordpool_less_exclusions.txt	LTP211	ltpFR	18	16	1	MICROPHONE	890	n/a	0	n/a	n/a	n/a	n/a	n/a
2660477	REC_WORD	wordpools/wasnorm_wordpool_less_exclusions.txt	LTP211	ltpFR	18	16	n/a	BATHTUB	100	n/a	n/a	n/a	n/a	n/a	n/a	n/a
2661801	REC_WORD	wordpools/wasnorm_wordpool_less_exclusions.txt	LTP211	ltpFR	18	16	1	PLUMBER	1091	n/a	1	n/a	n/a	n/a	n/a	n/a
2662733	REC_WORD	wordpools/wasnorm_wordpool_less_exclusions.txt	LTP211	ltpFR	18	16	1	SCOUT	1252	n/a	1	n/a	n/a	n/a	n/a	n/a
2663894	REC_WORD	wordpools/wasnorm_wordpool_less_exclusions.txt	LTP211	ltpFR	18	16	1	GRAVEL	659	n/a	0	n/a	n/a	n/a	n/a	n/a
2665281	REC_WORD	wordpools/wasnorm_wordpool_less_exclusions.txt	LTP211	ltpFR	18	16	1	BIRD	129	n/a	1	n/a	n/a	n/a	n/a	n/a
2666224	REC_WORD	wordpools/wasnorm_wordpool_less_exclusions.txt	LTP211	ltpFR	18	16	1	BUGLE	189	n/a	0	n/a	n/a	n/a	n/a	n/a
2669406	REC_WORD	wordpools/wasnorm_wordpool_less_exclusions.txt	LTP211	ltpFR	18	16	1	CARRIAGE	248	n/a	0	n/a	n/a	n/a	n/a	n/a
2673372	REC_WORD	wordpools/wasnorm_wordpool_less_exclusions.txt	LTP211	ltpFR	18	16	1	IDOL	733	n/a	0	n/a	n/a	n/a	n/a	n/a
2676933	REC_WORD	wordpools/wasnorm_wordpool_less_exclusions.txt	LTP211	ltpFR	18	16	1	FREEZER	604	n/a	0	n/a	n/a	n/a	n/a	n/a
2679184	REC_WORD	wordpools/wasnorm_wordpool_less_exclusions.txt	LTP211	ltpFR	18	16	1	CATHEDRAL	260	n/a	0	n/a	n/a	n/a	n/a	n/a
2681399	REC_WORD	wordpools/wasnorm_wordpool_less_exclusions.txt	LTP211	ltpFR	18	16	1	LEOPARD	812	n/a	1	n/a	n/a	n/a	n/a	n/a
2682346	REC_WORD	wordpools/wasnorm_wordpool_less_exclusions.txt	LTP211	ltpFR	18	16	1	HEATER	698	n/a	0	n/a	n/a	n/a	n/a	n/a
2683534	REC_WORD	wordpools/wasnorm_wordpool_less_exclusions.txt	LTP211	ltpFR	18	16	1	PIGEON	1065	n/a	1	n/a	n/a	n/a	n/a	n/a
2686397	REC_WORD	wordpools/wasnorm_wordpool_less_exclusions.txt	LTP211	ltpFR	18	16	1	SERGEANT	1269	n/a	1	n/a	n/a	n/a	n/a	n/a
2756057	REC_START	n/a	LTP211	ltpFR	18	1	n/a	n/a	n/a	n/a	n/a	n/a	n/a	n/a	n/a	n/a
2756089	RECOG_TARGET	n/a	LTP211	ltpFR	18	1	0	COLLAR	345	5	0	n/a	n/a	n/a	n/a	n/a
2757199	RECOG_RESP	n/a	LTP211	ltpFR	18	1	0	COLLAR	345	n/a	0	n/a	n/a	n/a	n/a	n/a
2758466	RECOG_CONF	n/a	LTP211	ltpFR	18	1	0	COLLAR	345	5	0	n/a	n/a	n/a	n/a	n/a
2760199	RECOG_LURE	n/a	LTP211	ltpFR	18	1	n/a	PACKAGE	997	4	n/a	n/a	n/a	n/a	n/a	n/a
2760967	RECOG_RESP	n/a	LTP211	ltpFR	18	1	n/a	PACKAGE	997	n/a	n/a	n/a	n/a	n/a	n/a	n/a
2761863	RECOG_CONF	n/a	LTP211	ltpFR	18	1	n/a	PACKAGE	997	4	n/a	n/a	n/a	n/a	n/a	n/a
2763678	RECOG_TARGET	n/a	LTP211	ltpFR	18	1	-1	THIGH	1457	5	-1	n/a	n/a	n/a	n/a	n/a
2764284	RECOG_RESP	n/a	LTP211	ltpFR	18	1	-1	THIGH	1457	n/a	-1	n/a	n/a	n/a	n/a	n/a
2765191	RECOG_CONF	n/a	LTP211	ltpFR	18	1	-1	THIGH	1457	5	-1	n/a	n/a	n/a	n/a	n/a
2766906	RECOG_TARGET	n/a	LTP211	ltpFR	18	1	1	MARINE	869	5	1	n/a	n/a	n/a	n/a	n/a
2767547	RECOG_RESP	n/a	LTP211	ltpFR	18	1	1	MARINE	869	n/a	1	n/a	n/a	n/a	n/a	n/a
2768475	RECOG_CONF	n/a	LTP211	ltpFR	18	1	1	MARINE	869	5	1	n/a	n/a	n/a	n/a	n/a
2770251	RECOG_TARGET	n/a	LTP211	ltpFR	18	1	1	BUTTERFLY	206	5	1	n/a	n/a	n/a	n/a	n/a
2770859	RECOG_RESP	n/a	LTP211	ltpFR	18	1	1	BUTTERFLY	206	n/a	1	n/a	n/a	n/a	n/a	n/a
2771846	RECOG_CONF	n/a	LTP211	ltpFR	18	1	1	BUTTERFLY	206	5	1	n/a	n/a	n/a	n/a	n/a
2773596	RECOG_TARGET	n/a	LTP211	ltpFR	18	1	1	BEEF	113	5	0	n/a	n/a	n/a	n/a	n/a
2774208	RECOG_RESP	n/a	LTP211	ltpFR	18	1	1	BEEF	113	n/a	0	n/a	n/a	n/a	n/a	n/a
2775056	RECOG_CONF	n/a	LTP211	ltpFR	18	1	1	BEEF	113	5	0	n/a	n/a	n/a	n/a	n/a
2776958	RECOG_TARGET	n/a	LTP211	ltpFR	18	1	0	POT	1114	4	0	n/a	n/a	n/a	n/a	n/a
2777618	RECOG_RESP	n/a	LTP211	ltpFR	18	1	0	POT	1114	n/a	0	n/a	n/a	n/a	n/a	n/a
2778750	RECOG_CONF	n/a	LTP211	ltpFR	18	1	0	POT	1114	4	0	n/a	n/a	n/a	n/a	n/a
2780470	RECOG_LURE	n/a	LTP211	ltpFR	18	1	n/a	SEAT	1264	5	n/a	n/a	n/a	n/a	n/a	n/a
2781247	RECOG_RESP	n/a	LTP211	ltpFR	18	1	n/a	SEAT	1264	n/a	n/a	n/a	n/a	n/a	n/a	n/a
2782502	RECOG_CONF	n/a	LTP211	ltpFR	18	1	n/a	SEAT	1264	5	n/a	n/a	n/a	n/a	n/a	n/a
2784297	RECOG_TARGET	n/a	LTP211	ltpFR	18	1	0	PARIS	1014	5	1	n/a	n/a	n/a	n/a	n/a
2784927	RECOG_RESP	n/a	LTP211	ltpFR	18	1	0	PARIS	1014	n/a	1	n/a	n/a	n/a	n/a	n/a
2785784	RECOG_CONF	n/a	LTP211	ltpFR	18	1	0	PARIS	1014	5	1	n/a	n/a	n/a	n/a	n/a
2787393	RECOG_TARGET	n/a	LTP211	ltpFR	18	1	0	SHELF	1280	5	1	n/a	n/a	n/a	n/a	n/a
2788043	RECOG_RESP	n/a	LTP211	ltpFR	18	1	0	SHELF	1280	n/a	1	n/a	n/a	n/a	n/a	n/a
2788868	RECOG_CONF	n/a	LTP211	ltpFR	18	1	0	SHELF	1280	5	1	n/a	n/a	n/a	n/a	n/a
2790721	RECOG_TARGET	n/a	LTP211	ltpFR	18	1	1	BROOK	177	1	0	n/a	n/a	n/a	n/a	n/a
2792347	RECOG_RESP	n/a	LTP211	ltpFR	18	1	1	BROOK	177	n/a	0	n/a	n/a	n/a	n/a	n/a
2793522	RECOG_CONF	n/a	LTP211	ltpFR	18	1	1	BROOK	177	1	0	n/a	n/a	n/a	n/a	n/a
2795465	RECOG_LURE	n/a	LTP211	ltpFR	18	1	n/a	CHEDDAR	286	5	n/a	n/a	n/a	n/a	n/a	n/a
2796161	RECOG_RESP	n/a	LTP211	ltpFR	18	1	n/a	CHEDDAR	286	n/a	n/a	n/a	n/a	n/a	n/a	n/a
2797178	RECOG_CONF	n/a	LTP211	ltpFR	18	1	n/a	CHEDDAR	286	5	n/a	n/a	n/a	n/a	n/a	n/a
2798992	RECOG_TARGET	n/a	LTP211	ltpFR	18	1	-1	LACE	792	5	-1	n/a	n/a	n/a	n/a	n/a
2799668	RECOG_RESP	n/a	LTP211	ltpFR	18	1	-1	LACE	792	n/a	-1	n/a	n/a	n/a	n/a	n/a
2800591	RECOG_CONF	n/a	LTP211	ltpFR	18	1	-1	LACE	792	5	-1	n/a	n/a	n/a	n/a	n/a
2802437	RECOG_TARGET	n/a	LTP211	ltpFR	18	1	0	MOB	904	5	1	n/a	n/a	n/a	n/a	n/a
2803105	RECOG_RESP	n/a	LTP211	ltpFR	18	1	0	MOB	904	n/a	1	n/a	n/a	n/a	n/a	n/a
2804013	RECOG_CONF	n/a	LTP211	ltpFR	18	1	0	MOB	904	5	1	n/a	n/a	n/a	n/a	n/a
2805648	RECOG_TARGET	n/a	LTP211	ltpFR	18	1	1	BRAKE	166	5	0	n/a	n/a	n/a	n/a	n/a
2806417	RECOG_RESP	n/a	LTP211	ltpFR	18	1	1	BRAKE	166	n/a	0	n/a	n/a	n/a	n/a	n/a
2807345	RECOG_CONF	n/a	LTP211	ltpFR	18	1	1	BRAKE	166	5	0	n/a	n/a	n/a	n/a	n/a
2809176	RECOG_TARGET	n/a	LTP211	ltpFR	18	1	1	CARPENTER	246	5	1	n/a	n/a	n/a	n/a	n/a
2809859	RECOG_RESP	n/a	LTP211	ltpFR	18	1	1	CARPENTER	246	n/a	1	n/a	n/a	n/a	n/a	n/a
2810705	RECOG_CONF	n/a	LTP211	ltpFR	18	1	1	CARPENTER	246	5	1	n/a	n/a	n/a	n/a	n/a
2812456	RECOG_TARGET	n/a	LTP211	ltpFR	18	1	-1	SCOTCH	1251	5	-1	n/a	n/a	n/a	n/a	n/a
2813044	RECOG_RESP	n/a	LTP211	ltpFR	18	1	-1	SCOTCH	1251	n/a	-1	n/a	n/a	n/a	n/a	n/a
2813890	RECOG_CONF	n/a	LTP211	ltpFR	18	1	-1	SCOTCH	1251	5	-1	n/a	n/a	n/a	n/a	n/a
2815583	RECOG_TARGET	n/a	LTP211	ltpFR	18	1	-1	GRILL	661	5	-1	n/a	n/a	n/a	n/a	n/a
2816193	RECOG_RESP	n/a	LTP211	ltpFR	18	1	-1	GRILL	661	n/a	-1	n/a	n/a	n/a	n/a	n/a
2817073	RECOG_CONF	n/a	LTP211	ltpFR	18	1	-1	GRILL	661	5	-1	n/a	n/a	n/a	n/a	n/a
2818745	RECOG_LURE	n/a	LTP211	ltpFR	18	1	n/a	HANDBAG	684	5	n/a	n/a	n/a	n/a	n/a	n/a
2819227	RECOG_RESP_VV	n/a	LTP211	ltpFR	18	1	n/a	HANDBAG	684	n/a	n/a	n/a	n/a	n/a	n/a	n/a
2819730	RECOG_RESP	n/a	LTP211	ltpFR	18	1	n/a	HANDBAG	684	n/a	n/a	n/a	n/a	n/a	n/a	n/a
2820665	RECOG_CONF	n/a	LTP211	ltpFR	18	1	n/a	HANDBAG	684	5	n/a	n/a	n/a	n/a	n/a	n/a
2822224	RECOG_TARGET	n/a	LTP211	ltpFR	18	1	1	RUNNER	1218	5	1	n/a	n/a	n/a	n/a	n/a
2822884	RECOG_RESP	n/a	LTP211	ltpFR	18	1	1	RUNNER	1218	n/a	1	n/a	n/a	n/a	n/a	n/a
2823776	RECOG_CONF	n/a	LTP211	ltpFR	18	1	1	RUNNER	1218	5	1	n/a	n/a	n/a	n/a	n/a
2826975	REC_START	n/a	LTP211	ltpFR	18	2	n/a	n/a	n/a	n/a	n/a	n/a	n/a	n/a	n/a	n/a
2827000	RECOG_TARGET	n/a	LTP211	ltpFR	18	2	0	MALL	860	5	1	n/a	n/a	n/a	n/a	n/a
2827549	RECOG_RESP	n/a	LTP211	ltpFR	18	2	0	MALL	860	n/a	1	n/a	n/a	n/a	n/a	n/a
2828455	RECOG_CONF	n/a	LTP211	ltpFR	18	2	0	MALL	860	5	1	n/a	n/a	n/a	n/a	n/a
2830178	RECOG_TARGET	n/a	LTP211	ltpFR	18	2	1	MAT	877	5	0	n/a	n/a	n/a	n/a	n/a
2830702	RECOG_RESP	n/a	LTP211	ltpFR	18	2	1	MAT	877	n/a	0	n/a	n/a	n/a	n/a	n/a
2831507	RECOG_CONF	n/a	LTP211	ltpFR	18	2	1	MAT	877	5	0	n/a	n/a	n/a	n/a	n/a
2833057	RECOG_TARGET	n/a	LTP211	ltpFR	18	2	0	FARMER	553	5	1	n/a	n/a	n/a	n/a	n/a
2833600	RECOG_RESP	n/a	LTP211	ltpFR	18	2	0	FARMER	553	n/a	1	n/a	n/a	n/a	n/a	n/a
2834393	RECOG_CONF	n/a	LTP211	ltpFR	18	2	0	FARMER	553	5	1	n/a	n/a	n/a	n/a	n/a
2835903	RECOG_LURE	n/a	LTP211	ltpFR	18	2	n/a	PRISON	1127	5	n/a	n/a	n/a	n/a	n/a	n/a
2836499	RECOG_RESP	n/a	LTP211	ltpFR	18	2	n/a	PRISON	1127	n/a	n/a	n/a	n/a	n/a	n/a	n/a
2837256	RECOG_CONF	n/a	LTP211	ltpFR	18	2	n/a	PRISON	1127	5	n/a	n/a	n/a	n/a	n/a	n/a
2838865	RECOG_TARGET	n/a	LTP211	ltpFR	18	2	0	MANAGER	863	5	1	n/a	n/a	n/a	n/a	n/a
2839459	RECOG_RESP	n/a	LTP211	ltpFR	18	2	0	MANAGER	863	n/a	1	n/a	n/a	n/a	n/a	n/a
2840227	RECOG_CONF	n/a	LTP211	ltpFR	18	2	0	MANAGER	863	5	1	n/a	n/a	n/a	n/a	n/a
2841861	RECOG_TARGET	n/a	LTP211	ltpFR	18	2	1	MOWER	928	5	0	n/a	n/a	n/a	n/a	n/a
2842501	RECOG_RESP	n/a	LTP211	ltpFR	18	2	1	MOWER	928	n/a	0	n/a	n/a	n/a	n/a	n/a
2843253	RECOG_CONF	n/a	LTP211	ltpFR	18	2	1	MOWER	928	5	0	n/a	n/a	n/a	n/a	n/a
2844989	RECOG_TARGET	n/a	LTP211	ltpFR	18	2	-1	PRODUCER	1129	5	-1	n/a	n/a	n/a	n/a	n/a
2845565	RECOG_RESP	n/a	LTP211	ltpFR	18	2	-1	PRODUCER	1129	n/a	-1	n/a	n/a	n/a	n/a	n/a
2846390	RECOG_CONF	n/a	LTP211	ltpFR	18	2	-1	PRODUCER	1129	5	-1	n/a	n/a	n/a	n/a	n/a
2848018	RECOG_LURE	n/a	LTP211	ltpFR	18	2	n/a	MONSTER	912	5	n/a	n/a	n/a	n/a	n/a	n/a
2848808	RECOG_RESP	n/a	LTP211	ltpFR	18	2	n/a	MONSTER	912	n/a	n/a	n/a	n/a	n/a	n/a	n/a
2849588	RECOG_CONF	n/a	LTP211	ltpFR	18	2	n/a	MONSTER	912	5	n/a	n/a	n/a	n/a	n/a	n/a
2851147	RECOG_TARGET	n/a	LTP211	ltpFR	18	2	0	BRUNETTE	181	5	1	n/a	n/a	n/a	n/a	n/a
2851798	RECOG_RESP	n/a	LTP211	ltpFR	18	2	0	BRUNETTE	181	n/a	1	n/a	n/a	n/a	n/a	n/a
2852552	RECOG_CONF	n/a	LTP211	ltpFR	18	2	0	BRUNETTE	181	5	1	n/a	n/a	n/a	n/a	n/a
2854176	RECOG_TARGET	n/a	LTP211	ltpFR	18	2	1	GUARD	667	3	1	n/a	n/a	n/a	n/a	n/a
2854806	RECOG_RESP	n/a	LTP211	ltpFR	18	2	1	GUARD	667	n/a	1	n/a	n/a	n/a	n/a	n/a
2856023	RECOG_CONF	n/a	LTP211	ltpFR	18	2	1	GUARD	667	3	1	n/a	n/a	n/a	n/a	n/a
2857621	RECOG_TARGET	n/a	LTP211	ltpFR	18	2	1	POOL	1103	5	0	n/a	n/a	n/a	n/a	n/a
2858351	RECOG_RESP	n/a	LTP211	ltpFR	18	2	1	POOL	1103	n/a	0	n/a	n/a	n/a	n/a	n/a
2859246	RECOG_CONF	n/a	LTP211	ltpFR	18	2	1	POOL	1103	5	0	n/a	n/a	n/a	n/a	n/a
2860882	RECOG_TARGET	n/a	LTP211	ltpFR	18	2	1	DRUM	502	5	0	n/a	n/a	n/a	n/a	n/a
2861461	RECOG_RESP	n/a	LTP211	ltpFR	18	2	1	DRUM	502	n/a	0	n/a	n/a	n/a	n/a	n/a
2862300	RECOG_CONF	n/a	LTP211	ltpFR	18	2	1	DRUM	502	5	0	n/a	n/a	n/a	n/a	n/a
2863961	RECOG_LURE	n/a	LTP211	ltpFR	18	2	n/a	STICKER	1382	4	n/a	n/a	n/a	n/a	n/a	n/a
2864833	RECOG_RESP	n/a	LTP211	ltpFR	18	2	n/a	STICKER	1382	n/a	n/a	n/a	n/a	n/a	n/a	n/a
2865931	RECOG_CONF	n/a	LTP211	ltpFR	18	2	n/a	STICKER	1382	4	n/a	n/a	n/a	n/a	n/a	n/a
2867672	RECOG_TARGET	n/a	LTP211	ltpFR	18	2	0	BOXER	160	5	1	n/a	n/a	n/a	n/a	n/a
2868167	RECOG_RESP	n/a	LTP211	ltpFR	18	2	0	BOXER	160	n/a	1	n/a	n/a	n/a	n/a	n/a
2869072	RECOG_CONF	n/a	LTP211	ltpFR	18	2	0	BOXER	160	5	1	n/a	n/a	n/a	n/a	n/a
2870618	RECOG_TARGET	n/a	LTP211	ltpFR	18	2	1	CRAYON	401	5	0	n/a	n/a	n/a	n/a	n/a
2871325	RECOG_RESP	n/a	LTP211	ltpFR	18	2	1	CRAYON	401	n/a	0	n/a	n/a	n/a	n/a	n/a
2872103	RECOG_CONF	n/a	LTP211	ltpFR	18	2	1	CRAYON	401	5	0	n/a	n/a	n/a	n/a	n/a
2873613	RECOG_TARGET	n/a	LTP211	ltpFR	18	2	-1	FOX	598	5	-1	n/a	n/a	n/a	n/a	n/a
2874314	RECOG_RESP	n/a	LTP211	ltpFR	18	2	-1	FOX	598	n/a	-1	n/a	n/a	n/a	n/a	n/a
2875121	RECOG_CONF	n/a	LTP211	ltpFR	18	2	-1	FOX	598	5	-1	n/a	n/a	n/a	n/a	n/a
2876792	RECOG_TARGET	n/a	LTP211	ltpFR	18	2	1	WOLF	1619	5	1	n/a	n/a	n/a	n/a	n/a
2877281	RECOG_RESP	n/a	LTP211	ltpFR	18	2	1	WOLF	1619	n/a	1	n/a	n/a	n/a	n/a	n/a
2878052	RECOG_CONF	n/a	LTP211	ltpFR	18	2	1	WOLF	1619	5	1	n/a	n/a	n/a	n/a	n/a
2879654	RECOG_LURE	n/a	LTP211	ltpFR	18	2	n/a	ASPIRIN	47	5	n/a	n/a	n/a	n/a	n/a	n/a
2880320	RECOG_RESP	n/a	LTP211	ltpFR	18	2	n/a	ASPIRIN	47	n/a	n/a	n/a	n/a	n/a	n/a	n/a
2881087	RECOG_CONF	n/a	LTP211	ltpFR	18	2	n/a	ASPIRIN	47	5	n/a	n/a	n/a	n/a	n/a	n/a
2882700	RECOG_TARGET	n/a	LTP211	ltpFR	18	2	1	GOVERNOR	651	5	1	n/a	n/a	n/a	n/a	n/a
2883486	RECOG_RESP	n/a	LTP211	ltpFR	18	2	1	GOVERNOR	651	n/a	1	n/a	n/a	n/a	n/a	n/a
2884294	RECOG_CONF	n/a	LTP211	ltpFR	18	2	1	GOVERNOR	651	5	1	n/a	n/a	n/a	n/a	n/a
2886095	RECOG_TARGET	n/a	LTP211	ltpFR	18	2	1	MACHINE	852	5	0	n/a	n/a	n/a	n/a	n/a
2886635	RECOG_RESP	n/a	LTP211	ltpFR	18	2	1	MACHINE	852	n/a	0	n/a	n/a	n/a	n/a	n/a
2887393	RECOG_CONF	n/a	LTP211	ltpFR	18	2	1	MACHINE	852	5	0	n/a	n/a	n/a	n/a	n/a
2901593	REC_START	n/a	LTP211	ltpFR	18	3	n/a	n/a	n/a	n/a	n/a	n/a	n/a	n/a	n/a	n/a
2901622	RECOG_TARGET	n/a	LTP211	ltpFR	18	3	0	CROOK	412	5	1	n/a	n/a	n/a	n/a	n/a
2902436	RECOG_RESP	n/a	LTP211	ltpFR	18	3	0	CROOK	412	n/a	1	n/a	n/a	n/a	n/a	n/a
2903563	RECOG_CONF	n/a	LTP211	ltpFR	18	3	0	CROOK	412	5	1	n/a	n/a	n/a	n/a	n/a
2905450	RECOG_TARGET	n/a	LTP211	ltpFR	18	3	-1	GIRL	637	5	-1	n/a	n/a	n/a	n/a	n/a
2905905	RECOG_RESP	n/a	LTP211	ltpFR	18	3	-1	GIRL	637	n/a	-1	n/a	n/a	n/a	n/a	n/a
2906716	RECOG_CONF	n/a	LTP211	ltpFR	18	3	-1	GIRL	637	5	-1	n/a	n/a	n/a	n/a	n/a
2908396	RECOG_TARGET	n/a	LTP211	ltpFR	18	3	1	FREEZER	604	5	0	n/a	n/a	n/a	n/a	n/a
2908984	RECOG_RESP	n/a	LTP211	ltpFR	18	3	1	FREEZER	604	n/a	0	n/a	n/a	n/a	n/a	n/a
2909859	RECOG_CONF	n/a	LTP211	ltpFR	18	3	1	FREEZER	604	5	0	n/a	n/a	n/a	n/a	n/a
2911673	RECOG_LURE	n/a	LTP211	ltpFR	18	3	n/a	MARSH	874	3	n/a	n/a	n/a	n/a	n/a	n/a
2912184	RECOG_RESP	n/a	LTP211	ltpFR	18	3	n/a	MARSH	874	n/a	n/a	n/a	n/a	n/a	n/a	n/a
2913225	RECOG_CONF	n/a	LTP211	ltpFR	18	3	n/a	MARSH	874	3	n/a	n/a	n/a	n/a	n/a	n/a
2914952	RECOG_TARGET	n/a	LTP211	ltpFR	18	3	-1	FAUCET	555	5	-1	n/a	n/a	n/a	n/a	n/a
2915573	RECOG_RESP	n/a	LTP211	ltpFR	18	3	-1	FAUCET	555	n/a	-1	n/a	n/a	n/a	n/a	n/a
2916333	RECOG_CONF	n/a	LTP211	ltpFR	18	3	-1	FAUCET	555	5	-1	n/a	n/a	n/a	n/a	n/a
2918097	RECOG_LURE	n/a	LTP211	ltpFR	18	3	n/a	TONGUE	1479	5	n/a	n/a	n/a	n/a	n/a	n/a
2918743	RECOG_RESP	n/a	LTP211	ltpFR	18	3	n/a	TONGUE	1479	n/a	n/a	n/a	n/a	n/a	n/a	n/a
2919495	RECOG_CONF	n/a	LTP211	ltpFR	18	3	n/a	TONGUE	1479	5	n/a	n/a	n/a	n/a	n/a	n/a
2921209	RECOG_TARGET	n/a	LTP211	ltpFR	18	3	0	CALF	222	5	1	n/a	n/a	n/a	n/a	n/a
2921794	RECOG_RESP	n/a	LTP211	ltpFR	18	3	0	CALF	222	n/a	1	n/a	n/a	n/a	n/a	n/a
2922561	RECOG_CONF	n/a	LTP211	ltpFR	18	3	0	CALF	222	5	1	n/a	n/a	n/a	n/a	n/a
2924405	RECOG_TARGET	n/a	LTP211	ltpFR	18	3	1	BALLERINA	74	5	1	n/a	n/a	n/a	n/a	n/a
2924967	RECOG_RESP	n/a	LTP211	ltpFR	18	3	1	BALLERINA	74	n/a	1	n/a	n/a	n/a	n/a	n/a
2925740	RECOG_CONF	n/a	LTP211	ltpFR	18	3	1	BALLERINA	74	5	1	n/a	n/a	n/a	n/a	n/a
2927633	RECOG_TARGET	n/a	LTP211	ltpFR	18	3	-1	PUDDLE	1140	4	-1	n/a	n/a	n/a	n/a	n/a
2928275	RECOG_RESP	n/a	LTP211	ltpFR	18	3	-1	PUDDLE	1140	n/a	-1	n/a	n/a	n/a	n/a	n/a
2929386	RECOG_CONF	n/a	LTP211	ltpFR	18	3	-1	PUDDLE	1140	4	-1	n/a	n/a	n/a	n/a	n/a
2931144	RECOG_TARGET	n/a	LTP211	ltpFR	18	3	0	UNICORN	1538	5	0	n/a	n/a	n/a	n/a	n/a
2931682	RECOG_RESP	n/a	LTP211	ltpFR	18	3	0	UNICORN	1538	n/a	0	n/a	n/a	n/a	n/a	n/a
2932457	RECOG_CONF	n/a	LTP211	ltpFR	18	3	0	UNICORN	1538	5	0	n/a	n/a	n/a	n/a	n/a
2934206	RECOG_TARGET	n/a	LTP211	ltpFR	18	3	-1	FLESH	579	5	-1	n/a	n/a	n/a	n/a	n/a
2934752	RECOG_RESP	n/a	LTP211	ltpFR	18	3	-1	FLESH	579	n/a	-1	n/a	n/a	n/a	n/a	n/a
2935601	RECOG_CONF	n/a	LTP211	ltpFR	18	3	-1	FLESH	579	5	-1	n/a	n/a	n/a	n/a	n/a
2937402	RECOG_TARGET	n/a	LTP211	ltpFR	18	3	0	HAMMOCK	681	5	1	n/a	n/a	n/a	n/a	n/a
2937932	RECOG_RESP	n/a	LTP211	ltpFR	18	3	0	HAMMOCK	681	n/a	1	n/a	n/a	n/a	n/a	n/a
2938710	RECOG_CONF	n/a	LTP211	ltpFR	18	3	0	HAMMOCK	681	5	1	n/a	n/a	n/a	n/a	n/a
2940448	RECOG_LURE	n/a	LTP211	ltpFR	18	3	n/a	WORKER	1621	5	n/a	n/a	n/a	n/a	n/a	n/a
2941117	RECOG_RESP	n/a	LTP211	ltpFR	18	3	n/a	WORKER	1621	n/a	n/a	n/a	n/a	n/a	n/a	n/a
2942408	RECOG_CONF	n/a	LTP211	ltpFR	18	3	n/a	WORKER	1621	5	n/a	n/a	n/a	n/a	n/a	n/a
2944008	RECOG_TARGET	n/a	LTP211	ltpFR	18	3	-1	WALNUT	1584	5	-1	n/a	n/a	n/a	n/a	n/a
2944635	RECOG_RESP	n/a	LTP211	ltpFR	18	3	-1	WALNUT	1584	n/a	-1	n/a	n/a	n/a	n/a	n/a
2945474	RECOG_CONF	n/a	LTP211	ltpFR	18	3	-1	WALNUT	1584	5	-1	n/a	n/a	n/a	n/a	n/a
2947120	RECOG_TARGET	n/a	LTP211	ltpFR	18	3	-1	FRIEND	606	5	-1	n/a	n/a	n/a	n/a	n/a
2947672	RECOG_RESP	n/a	LTP211	ltpFR	18	3	-1	FRIEND	606	n/a	-1	n/a	n/a	n/a	n/a	n/a
2948356	RECOG_CONF	n/a	LTP211	ltpFR	18	3	-1	FRIEND	606	5	-1	n/a	n/a	n/a	n/a	n/a
2950149	RECOG_TARGET	n/a	LTP211	ltpFR	18	3	0	TAIL	1430	5	0	n/a	n/a	n/a	n/a	n/a
2950652	RECOG_RESP	n/a	LTP211	ltpFR	18	3	0	TAIL	1430	n/a	0	n/a	n/a	n/a	n/a	n/a
2951514	RECOG_CONF	n/a	LTP211	ltpFR	18	3	0	TAIL	1430	5	0	n/a	n/a	n/a	n/a	n/a
2953028	RECOG_TARGET	n/a	LTP211	ltpFR	18	3	-1	CREATURE	403	5	-1	n/a	n/a	n/a	n/a	n/a
2953678	RECOG_RESP	n/a	LTP211	ltpFR	18	3	-1	CREATURE	403	n/a	-1	n/a	n/a	n/a	n/a	n/a
2954577	RECOG_CONF	n/a	LTP211	ltpFR	18	3	-1	CREATURE	403	5	-1	n/a	n/a	n/a	n/a	n/a
2956223	RECOG_TARGET	n/a	LTP211	ltpFR	18	3	1	CRUMB	416	5	0	n/a	n/a	n/a	n/a	n/a
2956751	RECOG_RESP	n/a	LTP211	ltpFR	18	3	1	CRUMB	416	n/a	0	n/a	n/a	n/a	n/a	n/a
2957560	RECOG_CONF	n/a	LTP211	ltpFR	18	3	1	CRUMB	416	5	0	n/a	n/a	n/a	n/a	n/a
2959169	RECOG_LURE	n/a	LTP211	ltpFR	18	3	n/a	CLIMBER	323	5	n/a	n/a	n/a	n/a	n/a	n/a
2959815	RECOG_RESP	n/a	LTP211	ltpFR	18	3	n/a	CLIMBER	323	n/a	n/a	n/a	n/a	n/a	n/a	n/a
2960627	RECOG_CONF	n/a	LTP211	ltpFR	18	3	n/a	CLIMBER	323	5	n/a	n/a	n/a	n/a	n/a	n/a
2962465	RECOG_TARGET	n/a	LTP211	ltpFR	18	3	0	CROCODILE	411	4	1	n/a	n/a	n/a	n/a	n/a
2963100	RECOG_RESP	n/a	LTP211	ltpFR	18	3	0	CROCODILE	411	n/a	1	n/a	n/a	n/a	n/a	n/a
2964780	RECOG_CONF	n/a	LTP211	ltpFR	18	3	0	CROCODILE	411	4	1	n/a	n/a	n/a	n/a	n/a
2973747	REC_START	n/a	LTP211	ltpFR	18	4	n/a	n/a	n/a	n/a	n/a	n/a	n/a	n/a	n/a	n/a
2973780	RECOG_TARGET	n/a	LTP211	ltpFR	18	4	1	STRAW	1390	5	2	n/a	n/a	n/a	n/a	n/a
2974443	RECOG_RESP	n/a	LTP211	ltpFR	18	4	1	STRAW	1390	n/a	2	n/a	n/a	n/a	n/a	n/a
2975227	RECOG_CONF	n/a	LTP211	ltpFR	18	4	1	STRAW	1390	5	2	n/a	n/a	n/a	n/a	n/a
2977009	RECOG_TARGET	n/a	LTP211	ltpFR	18	4	-1	CLERK	321	5	-1	n/a	n/a	n/a	n/a	n/a
2977588	RECOG_RESP	n/a	LTP211	ltpFR	18	4	-1	CLERK	321	n/a	-1	n/a	n/a	n/a	n/a	n/a
2978472	RECOG_CONF	n/a	LTP211	ltpFR	18	4	-1	CLERK	321	5	-1	n/a	n/a	n/a	n/a	n/a
2980221	RECOG_TARGET	n/a	LTP211	ltpFR	18	4	1	TERRITORY	1452	5	1	n/a	n/a	n/a	n/a	n/a
2980816	RECOG_RESP	n/a	LTP211	ltpFR	18	4	1	TERRITORY	1452	n/a	1	n/a	n/a	n/a	n/a	n/a
2981565	RECOG_CONF	n/a	LTP211	ltpFR	18	4	1	TERRITORY	1452	5	1	n/a	n/a	n/a	n/a	n/a
2983233	RECOG_LURE	n/a	LTP211	ltpFR	18	4	n/a	GAUZE	626	5	n/a	n/a	n/a	n/a	n/a	n/a
2983977	RECOG_RESP	n/a	LTP211	ltpFR	18	4	n/a	GAUZE	626	n/a	n/a	n/a	n/a	n/a	n/a	n/a
2984741	RECOG_CONF	n/a	LTP211	ltpFR	18	4	n/a	GAUZE	626	5	n/a	n/a	n/a	n/a	n/a	n/a
2986413	RECOG_TARGET	n/a	LTP211	ltpFR	18	4	1	MICROPHONE	890	5	0	n/a	n/a	n/a	n/a	n/a
2987001	RECOG_RESP	n/a	LTP211	ltpFR	18	4	1	MICROPHONE	890	n/a	0	n/a	n/a	n/a	n/a	n/a
2987740	RECOG_CONF	n/a	LTP211	ltpFR	18	4	1	MICROPHONE	890	5	0	n/a	n/a	n/a	n/a	n/a
2989342	RECOG_TARGET	n/a	LTP211	ltpFR	18	4	0	RADISH	1158	5	0	n/a	n/a	n/a	n/a	n/a
2989873	RECOG_RESP	n/a	LTP211	ltpFR	18	4	0	RADISH	1158	n/a	0	n/a	n/a	n/a	n/a	n/a
2990643	RECOG_CONF	n/a	LTP211	ltpFR	18	4	0	RADISH	1158	5	0	n/a	n/a	n/a	n/a	n/a
2992253	RECOG_LURE	n/a	LTP211	ltpFR	18	4	n/a	PORCUPINE	1107	5	n/a	n/a	n/a	n/a	n/a	n/a
2992868	RECOG_RESP	n/a	LTP211	ltpFR	18	4	n/a	PORCUPINE	1107	n/a	n/a	n/a	n/a	n/a	n/a	n/a
2993547	RECOG_CONF	n/a	LTP211	ltpFR	18	4	n/a	PORCUPINE	1107	5	n/a	n/a	n/a	n/a	n/a	n/a
2995333	RECOG_LURE	n/a	LTP211	ltpFR	18	4	n/a	ROBBER	1197	5	n/a	n/a	n/a	n/a	n/a	n/a
2995999	RECOG_RESP	n/a	LTP211	ltpFR	18	4	n/a	ROBBER	1197	n/a	n/a	n/a	n/a	n/a	n/a	n/a
2996633	RECOG_CONF	n/a	LTP211	ltpFR	18	4	n/a	ROBBER	1197	5	n/a	n/a	n/a	n/a	n/a	n/a
2998445	RECOG_LURE	n/a	LTP211	ltpFR	18	4	n/a	RICE	1190	5	n/a	n/a	n/a	n/a	n/a	n/a
2999229	RECOG_RESP	n/a	LTP211	ltpFR	18	4	n/a	RICE	1190	n/a	n/a	n/a	n/a	n/a	n/a	n/a
2999898	RECOG_CONF	n/a	LTP211	ltpFR	18	4	n/a	RICE	1190	5	n/a	n/a	n/a	n/a	n/a	n/a
3001739	RECOG_TARGET	n/a	LTP211	ltpFR	18	4	1	COWBOY	395	5	1	n/a	n/a	n/a	n/a	n/a
3002284	RECOG_RESP	n/a	LTP211	ltpFR	18	4	1	COWBOY	395	n/a	1	n/a	n/a	n/a	n/a	n/a
3002931	RECOG_CONF	n/a	LTP211	ltpFR	18	4	1	COWBOY	395	5	1	n/a	n/a	n/a	n/a	n/a
3004718	RECOG_TARGET	n/a	LTP211	ltpFR	18	4	1	CABBAGE	210	5	0	n/a	n/a	n/a	n/a	n/a
3005452	RECOG_RESP	n/a	LTP211	ltpFR	18	4	1	CABBAGE	210	n/a	0	n/a	n/a	n/a	n/a	n/a
3006028	RECOG_CONF	n/a	LTP211	ltpFR	18	4	1	CABBAGE	210	5	0	n/a	n/a	n/a	n/a	n/a
3007730	RECOG_LURE	n/a	LTP211	ltpFR	18	4	n/a	ARMY	39	5	n/a	n/a	n/a	n/a	n/a	n/a
3008443	RECOG_RESP	n/a	LTP211	ltpFR	18	4	n/a	ARMY	39	n/a	n/a	n/a	n/a	n/a	n/a	n/a
3008996	RECOG_CONF	n/a	LTP211	ltpFR	18	4	n/a	ARMY	39	5	n/a	n/a	n/a	n/a	n/a	n/a
3010759	RECOG_LURE	n/a	LTP211	ltpFR	18	4	n/a	QUILL	1150	5	n/a	n/a	n/a	n/a	n/a	n/a
3011374	RECOG_RESP	n/a	LTP211	ltpFR	18	4	n/a	QUILL	1150	n/a	n/a	n/a	n/a	n/a	n/a	n/a
3011958	RECOG_CONF	n/a	LTP211	ltpFR	18	4	n/a	QUILL	1150	5	n/a	n/a	n/a	n/a	n/a	n/a
3013854	RECOG_TARGET	n/a	LTP211	ltpFR	18	4	-1	LIMB	822	5	-1	n/a	n/a	n/a	n/a	n/a
3014437	RECOG_RESP	n/a	LTP211	ltpFR	18	4	-1	LIMB	822	n/a	-1	n/a	n/a	n/a	n/a	n/a
3015094	RECOG_CONF	n/a	LTP211	ltpFR	18	4	-1	LIMB	822	5	-1	n/a	n/a	n/a	n/a	n/a
3016866	RECOG_TARGET	n/a	LTP211	ltpFR	18	4	1	COMPASS	358	5	0	n/a	n/a	n/a	n/a	n/a
3017555	RECOG_RESP	n/a	LTP211	ltpFR	18	4	1	COMPASS	358	n/a	0	n/a	n/a	n/a	n/a	n/a
3018279	RECOG_CONF	n/a	LTP211	ltpFR	18	4	1	COMPASS	358	5	0	n/a	n/a	n/a	n/a	n/a
3020095	RECOG_LURE	n/a	LTP211	ltpFR	18	4	n/a	BEAD	103	5	n/a	n/a	n/a	n/a	n/a	n/a
3020811	RECOG_RESP	n/a	LTP211	ltpFR	18	4	n/a	BEAD	103	n/a	n/a	n/a	n/a	n/a	n/a	n/a
3021429	RECOG_CONF	n/a	LTP211	ltpFR	18	4	n/a	BEAD	103	5	n/a	n/a	n/a	n/a	n/a	n/a
3023190	RECOG_TARGET	n/a	LTP211	ltpFR	18	4	1	OTTER	986	5	1	n/a	n/a	n/a	n/a	n/a
3023834	RECOG_RESP	n/a	LTP211	ltpFR	18	4	1	OTTER	986	n/a	1	n/a	n/a	n/a	n/a	n/a
3024528	RECOG_CONF	n/a	LTP211	ltpFR	18	4	1	OTTER	986	5	1	n/a	n/a	n/a	n/a	n/a
3026319	RECOG_TARGET	n/a	LTP211	ltpFR	18	4	1	PUBLISHER	1137	5	1	n/a	n/a	n/a	n/a	n/a
3026961	RECOG_RESP	n/a	LTP211	ltpFR	18	4	1	PUBLISHER	1137	n/a	1	n/a	n/a	n/a	n/a	n/a
3027709	RECOG_CONF	n/a	LTP211	ltpFR	18	4	1	PUBLISHER	1137	5	1	n/a	n/a	n/a	n/a	n/a
3029515	RECOG_TARGET	n/a	LTP211	ltpFR	18	4	1	BUGLE	189	5	0	n/a	n/a	n/a	n/a	n/a
3030038	RECOG_RESP	n/a	LTP211	ltpFR	18	4	1	BUGLE	189	n/a	0	n/a	n/a	n/a	n/a	n/a
3030792	RECOG_CONF	n/a	LTP211	ltpFR	18	4	1	BUGLE	189	5	0	n/a	n/a	n/a	n/a	n/a
3032377	RECOG_TARGET	n/a	LTP211	ltpFR	18	4	0	ZEBRA	1635	5	1	n/a	n/a	n/a	n/a	n/a
3033019	RECOG_RESP	n/a	LTP211	ltpFR	18	4	0	ZEBRA	1635	n/a	1	n/a	n/a	n/a	n/a	n/a
3033745	RECOG_CONF	n/a	LTP211	ltpFR	18	4	0	ZEBRA	1635	5	1	n/a	n/a	n/a	n/a	n/a
3044421	REC_START	n/a	LTP211	ltpFR	18	5	n/a	n/a	n/a	n/a	n/a	n/a	n/a	n/a	n/a	n/a
3044459	RECOG_TARGET	n/a	LTP211	ltpFR	18	5	-1	CHESS	294	5	-1	n/a	n/a	n/a	n/a	n/a
3045017	RECOG_RESP	n/a	LTP211	ltpFR	18	5	-1	CHESS	294	n/a	-1	n/a	n/a	n/a	n/a	n/a
3045843	RECOG_CONF	n/a	LTP211	ltpFR	18	5	-1	CHESS	294	5	-1	n/a	n/a	n/a	n/a	n/a
3047471	RECOG_LURE	n/a	LTP211	ltpFR	18	5	n/a	ORNAMENT	985	5	n/a	n/a	n/a	n/a	n/a	n/a
3048007	RECOG_RESP_VV	n/a	LTP211	ltpFR	18	5	n/a	ORNAMENT	985	n/a	n/a	n/a	n/a	n/a	n/a	n/a
3048873	RECOG_RESP	n/a	LTP211	ltpFR	18	5	n/a	ORNAMENT	985	n/a	n/a	n/a	n/a	n/a	n/a	n/a
3049643	RECOG_CONF	n/a	LTP211	ltpFR	18	5	n/a	ORNAMENT	985	5	n/a	n/a	n/a	n/a	n/a	n/a
3051349	RECOG_LURE	n/a	LTP211	ltpFR	18	5	n/a	COFFIN	342	5	n/a	n/a	n/a	n/a	n/a	n/a
3052971	RECOG_RESP	n/a	LTP211	ltpFR	18	5	n/a	COFFIN	342	n/a	n/a	n/a	n/a	n/a	n/a	n/a
3053629	RECOG_CONF	n/a	LTP211	ltpFR	18	5	n/a	COFFIN	342	5	n/a	n/a	n/a	n/a	n/a	n/a
3055393	RECOG_LURE	n/a	LTP211	ltpFR	18	5	n/a	CERAMICS	271	5	n/a	n/a	n/a	n/a	n/a	n/a
3056017	RECOG_RESP	n/a	LTP211	ltpFR	18	5	n/a	CERAMICS	271	n/a	n/a	n/a	n/a	n/a	n/a	n/a
3056682	RECOG_CONF	n/a	LTP211	ltpFR	18	5	n/a	CERAMICS	271	5	n/a	n/a	n/a	n/a	n/a	n/a
3058372	RECOG_TARGET	n/a	LTP211	ltpFR	18	5	1	OPERA	978	5	1	n/a	n/a	n/a	n/a	n/a
3058960	RECOG_RESP	n/a	LTP211	ltpFR	18	5	1	OPERA	978	n/a	1	n/a	n/a	n/a	n/a	n/a
3059520	RECOG_CONF	n/a	LTP211	ltpFR	18	5	1	OPERA	978	5	1	n/a	n/a	n/a	n/a	n/a
3061250	RECOG_LURE	n/a	LTP211	ltpFR	18	5	n/a	LAPEL	800	5	n/a	n/a	n/a	n/a	n/a	n/a
3061860	RECOG_RESP	n/a	LTP211	ltpFR	18	5	n/a	LAPEL	800	n/a	n/a	n/a	n/a	n/a	n/a	n/a
3062488	RECOG_CONF	n/a	LTP211	ltpFR	18	5	n/a	LAPEL	800	5	n/a	n/a	n/a	n/a	n/a	n/a
3064195	RECOG_TARGET	n/a	LTP211	ltpFR	18	5	0	PANTS	1010	5	0	n/a	n/a	n/a	n/a	n/a
3064769	RECOG_RESP	n/a	LTP211	ltpFR	18	5	0	PANTS	1010	n/a	0	n/a	n/a	n/a	n/a	n/a
3065502	RECOG_CONF	n/a	LTP211	ltpFR	18	5	0	PANTS	1010	5	0	n/a	n/a	n/a	n/a	n/a
3067124	RECOG_TARGET	n/a	LTP211	ltpFR	18	5	1	COBRA	336	5	1	n/a	n/a	n/a	n/a	n/a
3067695	RECOG_RESP	n/a	LTP211	ltpFR	18	5	1	COBRA	336	n/a	1	n/a	n/a	n/a	n/a	n/a
3068350	RECOG_CONF	n/a	LTP211	ltpFR	18	5	1	COBRA	336	5	1	n/a	n/a	n/a	n/a	n/a
3070020	RECOG_LURE	n/a	LTP211	ltpFR	18	5	n/a	ANKLE	24	5	n/a	n/a	n/a	n/a	n/a	n/a
3070637	RECOG_RESP	n/a	LTP211	ltpFR	18	5	n/a	ANKLE	24	n/a	n/a	n/a	n/a	n/a	n/a	n/a
3071305	RECOG_CONF	n/a	LTP211	ltpFR	18	5	n/a	ANKLE	24	5	n/a	n/a	n/a	n/a	n/a	n/a
3072833	RECOG_TARGET	n/a	LTP211	ltpFR	18	5	1	TUXEDO	1525	5	0	n/a	n/a	n/a	n/a	n/a
3073462	RECOG_RESP	n/a	LTP211	ltpFR	18	5	1	TUXEDO	1525	n/a	0	n/a	n/a	n/a	n/a	n/a
3074059	RECOG_CONF	n/a	LTP211	ltpFR	18	5	1	TUXEDO	1525	5	0	n/a	n/a	n/a	n/a	n/a
3075645	RECOG_TARGET	n/a	LTP211	ltpFR	18	5	0	WINDSHIELD	1612	5	1	n/a	n/a	n/a	n/a	n/a
3076302	RECOG_RESP	n/a	LTP211	ltpFR	18	5	0	WINDSHIELD	1612	n/a	1	n/a	n/a	n/a	n/a	n/a
3077052	RECOG_CONF	n/a	LTP211	ltpFR	18	5	0	WINDSHIELD	1612	5	1	n/a	n/a	n/a	n/a	n/a
3078542	RECOG_TARGET	n/a	LTP211	ltpFR	18	5	1	MOAT	903	5	0	n/a	n/a	n/a	n/a	n/a
3079197	RECOG_RESP	n/a	LTP211	ltpFR	18	5	1	MOAT	903	n/a	0	n/a	n/a	n/a	n/a	n/a
3079866	RECOG_CONF	n/a	LTP211	ltpFR	18	5	1	MOAT	903	5	0	n/a	n/a	n/a	n/a	n/a
3081521	RECOG_TARGET	n/a	LTP211	ltpFR	18	5	0	PORTRAIT	1111	5	0	n/a	n/a	n/a	n/a	n/a
3082955	RECOG_RESP	n/a	LTP211	ltpFR	18	5	0	PORTRAIT	1111	n/a	0	n/a	n/a	n/a	n/a	n/a
3083537	RECOG_CONF	n/a	LTP211	ltpFR	18	5	0	PORTRAIT	1111	5	0	n/a	n/a	n/a	n/a	n/a
3085431	RECOG_TARGET	n/a	LTP211	ltpFR	18	5	0	EAGLE	512	5	1	n/a	n/a	n/a	n/a	n/a
3086018	RECOG_RESP	n/a	LTP211	ltpFR	18	5	0	EAGLE	512	n/a	1	n/a	n/a	n/a	n/a	n/a
3086715	RECOG_CONF	n/a	LTP211	ltpFR	18	5	0	EAGLE	512	5	1	n/a	n/a	n/a	n/a	n/a
3088427	RECOG_TARGET	n/a	LTP211	ltpFR	18	5	0	TOMATO	1476	5	0	n/a	n/a	n/a	n/a	n/a
3089168	RECOG_RESP	n/a	LTP211	ltpFR	18	5	0	TOMATO	1476	n/a	0	n/a	n/a	n/a	n/a	n/a
3090008	RECOG_CONF	n/a	LTP211	ltpFR	18	5	0	TOMATO	1476	5	0	n/a	n/a	n/a	n/a	n/a
3091804	RECOG_TARGET	n/a	LTP211	ltpFR	18	5	-1	COP	376	5	-1	n/a	n/a	n/a	n/a	n/a
3092290	RECOG_RESP	n/a	LTP211	ltpFR	18	5	-1	COP	376	n/a	-1	n/a	n/a	n/a	n/a	n/a
3092883	RECOG_CONF	n/a	LTP211	ltpFR	18	5	-1	COP	376	5	-1	n/a	n/a	n/a	n/a	n/a
3094716	RECOG_TARGET	n/a	LTP211	ltpFR	18	5	1	SHEEP	1278	5	1	n/a	n/a	n/a	n/a	n/a
3095280	RECOG_RESP	n/a	LTP211	ltpFR	18	5	1	SHEEP	1278	n/a	1	n/a	n/a	n/a	n/a	n/a
3095835	RECOG_CONF	n/a	LTP211	ltpFR	18	5	1	SHEEP	1278	5	1	n/a	n/a	n/a	n/a	n/a
3097562	RECOG_TARGET	n/a	LTP211	ltpFR	18	5	-1	DOG	480	5	-1	n/a	n/a	n/a	n/a	n/a
3098211	RECOG_RESP	n/a	LTP211	ltpFR	18	5	-1	DOG	480	n/a	-1	n/a	n/a	n/a	n/a	n/a
3098804	RECOG_CONF	n/a	LTP211	ltpFR	18	5	-1	DOG	480	5	-1	n/a	n/a	n/a	n/a	n/a
3100509	RECOG_TARGET	n/a	LTP211	ltpFR	18	5	-1	BREAST	171	5	-1	n/a	n/a	n/a	n/a	n/a
3101219	RECOG_RESP	n/a	LTP211	ltpFR	18	5	-1	BREAST	171	n/a	-1	n/a	n/a	n/a	n/a	n/a
3101785	RECOG_CONF	n/a	LTP211	ltpFR	18	5	-1	BREAST	171	5	-1	n/a	n/a	n/a	n/a	n/a
3103553	RECOG_TARGET	n/a	LTP211	ltpFR	18	5	0	OX	994	5	1	n/a	n/a	n/a	n/a	n/a
3104186	RECOG_RESP	n/a	LTP211	ltpFR	18	5	0	OX	994	n/a	1	n/a	n/a	n/a	n/a	n/a
3104809	RECOG_CONF	n/a	LTP211	ltpFR	18	5	0	OX	994	5	1	n/a	n/a	n/a	n/a	n/a
3109574	REC_START	n/a	LTP211	ltpFR	18	6	n/a	n/a	n/a	n/a	n/a	n/a	n/a	n/a	n/a	n/a
3109611	RECOG_TARGET	n/a	LTP211	ltpFR	18	6	-1	EWE	542	5	-1	n/a	n/a	n/a	n/a	n/a
3110927	RECOG_RESP	n/a	LTP211	ltpFR	18	6	-1	EWE	542	n/a	-1	n/a	n/a	n/a	n/a	n/a
3112053	RECOG_CONF	n/a	LTP211	ltpFR	18	6	-1	EWE	542	5	-1	n/a	n/a	n/a	n/a	n/a
3113705	RECOG_TARGET	n/a	LTP211	ltpFR	18	6	0	TORTOISE	1486	5	1	n/a	n/a	n/a	n/a	n/a
3114344	RECOG_RESP	n/a	LTP211	ltpFR	18	6	0	TORTOISE	1486	n/a	1	n/a	n/a	n/a	n/a	n/a
3114939	RECOG_CONF	n/a	LTP211	ltpFR	18	6	0	TORTOISE	1486	5	1	n/a	n/a	n/a	n/a	n/a
3116717	RECOG_TARGET	n/a	LTP211	ltpFR	18	6	-1	SWAMP	1416	5	-1	n/a	n/a	n/a	n/a	n/a
3117306	RECOG_RESP	n/a	LTP211	ltpFR	18	6	-1	SWAMP	1416	n/a	-1	n/a	n/a	n/a	n/a	n/a
3117940	RECOG_CONF	n/a	LTP211	ltpFR	18	6	-1	SWAMP	1416	5	-1	n/a	n/a	n/a	n/a	n/a
3119729	RECOG_TARGET	n/a	LTP211	ltpFR	18	6	0	CANDIDATE	228	5	3	n/a	n/a	n/a	n/a	n/a
3120348	RECOG_RESP	n/a	LTP211	ltpFR	18	6	0	CANDIDATE	228	n/a	3	n/a	n/a	n/a	n/a	n/a
3120904	RECOG_CONF	n/a	LTP211	ltpFR	18	6	0	CANDIDATE	228	5	3	n/a	n/a	n/a	n/a	n/a
3122841	RECOG_TARGET	n/a	LTP211	ltpFR	18	6	0	JUG	762	5	1	n/a	n/a	n/a	n/a	n/a
3123351	RECOG_RESP	n/a	LTP211	ltpFR	18	6	0	JUG	762	n/a	1	n/a	n/a	n/a	n/a	n/a
3123877	RECOG_CONF	n/a	LTP211	ltpFR	18	6	0	JUG	762	5	1	n/a	n/a	n/a	n/a	n/a
3125787	RECOG_TARGET	n/a	LTP211	ltpFR	18	6	1	LEOPARD	812	5	1	n/a	n/a	n/a	n/a	n/a
3126348	RECOG_RESP	n/a	LTP211	ltpFR	18	6	1	LEOPARD	812	n/a	1	n/a	n/a	n/a	n/a	n/a
3126999	RECOG_CONF	n/a	LTP211	ltpFR	18	6	1	LEOPARD	812	5	1	n/a	n/a	n/a	n/a	n/a
3128816	RECOG_TARGET	n/a	LTP211	ltpFR	18	6	0	STOOL	1386	5	1	n/a	n/a	n/a	n/a	n/a
3129353	RECOG_RESP	n/a	LTP211	ltpFR	18	6	0	STOOL	1386	n/a	1	n/a	n/a	n/a	n/a	n/a
3129992	RECOG_CONF	n/a	LTP211	ltpFR	18	6	0	STOOL	1386	5	1	n/a	n/a	n/a	n/a	n/a
3131695	RECOG_TARGET	n/a	LTP211	ltpFR	18	6	1	TOAST	1471	5	0	n/a	n/a	n/a	n/a	n/a
3132308	RECOG_RESP	n/a	LTP211	ltpFR	18	6	1	TOAST	1471	n/a	0	n/a	n/a	n/a	n/a	n/a
3132976	RECOG_CONF	n/a	LTP211	ltpFR	18	6	1	TOAST	1471	5	0	n/a	n/a	n/a	n/a	n/a
3134707	RECOG_LURE	n/a	LTP211	ltpFR	18	6	n/a	ENGINE	535	5	n/a	n/a	n/a	n/a	n/a	n/a
3135372	RECOG_RESP	n/a	LTP211	ltpFR	18	6	n/a	ENGINE	535	n/a	n/a	n/a	n/a	n/a	n/a	n/a
3136048	RECOG_CONF	n/a	LTP211	ltpFR	18	6	n/a	ENGINE	535	5	n/a	n/a	n/a	n/a	n/a	n/a
3137786	RECOG_TARGET	n/a	LTP211	ltpFR	18	6	-1	ISLAND	745	5	-1	n/a	n/a	n/a	n/a	n/a
3138344	RECOG_RESP	n/a	LTP211	ltpFR	18	6	-1	ISLAND	745	n/a	-1	n/a	n/a	n/a	n/a	n/a
3138887	RECOG_CONF	n/a	LTP211	ltpFR	18	6	-1	ISLAND	745	5	-1	n/a	n/a	n/a	n/a	n/a
3140665	RECOG_LURE	n/a	LTP211	ltpFR	18	6	n/a	DOLPHIN	483	5	n/a	n/a	n/a	n/a	n/a	n/a
3141637	RECOG_RESP	n/a	LTP211	ltpFR	18	6	n/a	DOLPHIN	483	n/a	n/a	n/a	n/a	n/a	n/a	n/a
3142361	RECOG_CONF	n/a	LTP211	ltpFR	18	6	n/a	DOLPHIN	483	5	n/a	n/a	n/a	n/a	n/a	n/a
3143876	RECOG_TARGET	n/a	LTP211	ltpFR	18	6	0	CLARINET	317	5	1	n/a	n/a	n/a	n/a	n/a
3144442	RECOG_RESP	n/a	LTP211	ltpFR	18	6	0	CLARINET	317	n/a	1	n/a	n/a	n/a	n/a	n/a
3145083	RECOG_CONF	n/a	LTP211	ltpFR	18	6	0	CLARINET	317	5	1	n/a	n/a	n/a	n/a	n/a
3146805	RECOG_TARGET	n/a	LTP211	ltpFR	18	6	0	TOASTER	1472	5	0	n/a	n/a	n/a	n/a	n/a
3147451	RECOG_RESP	n/a	LTP211	ltpFR	18	6	0	TOASTER	1472	n/a	0	n/a	n/a	n/a	n/a	n/a
3148356	RECOG_CONF	n/a	LTP211	ltpFR	18	6	0	TOASTER	1472	5	0	n/a	n/a	n/a	n/a	n/a
3150134	RECOG_LURE	n/a	LTP211	ltpFR	18	6	n/a	LOCK	838	5	n/a	n/a	n/a	n/a	n/a	n/a
3150838	RECOG_RESP	n/a	LTP211	ltpFR	18	6	n/a	LOCK	838	n/a	n/a	n/a	n/a	n/a	n/a	n/a
3151481	RECOG_CONF	n/a	LTP211	ltpFR	18	6	n/a	LOCK	838	5	n/a	n/a	n/a	n/a	n/a	n/a
3153129	RECOG_TARGET	n/a	LTP211	ltpFR	18	6	0	FACE	547	5	1	n/a	n/a	n/a	n/a	n/a
3153872	RECOG_RESP	n/a	LTP211	ltpFR	18	6	0	FACE	547	n/a	1	n/a	n/a	n/a	n/a	n/a
3154548	RECOG_CONF	n/a	LTP211	ltpFR	18	6	0	FACE	547	5	1	n/a	n/a	n/a	n/a	n/a
3156258	RECOG_TARGET	n/a	LTP211	ltpFR	18	6	-1	CAFE	216	5	-1	n/a	n/a	n/a	n/a	n/a
3157098	RECOG_RESP	n/a	LTP211	ltpFR	18	6	-1	CAFE	216	n/a	-1	n/a	n/a	n/a	n/a	n/a
3157932	RECOG_CONF	n/a	LTP211	ltpFR	18	6	-1	CAFE	216	5	-1	n/a	n/a	n/a	n/a	n/a
3159603	RECOG_TARGET	n/a	LTP211	ltpFR	18	6	-1	PAINT	1003	5	-1	n/a	n/a	n/a	n/a	n/a
3160395	RECOG_RESP	n/a	LTP211	ltpFR	18	6	-1	PAINT	1003	n/a	-1	n/a	n/a	n/a	n/a	n/a
3161092	RECOG_CONF	n/a	LTP211	ltpFR	18	6	-1	PAINT	1003	5	-1	n/a	n/a	n/a	n/a	n/a
3162898	RECOG_LURE	n/a	LTP211	ltpFR	18	6	n/a	FISH	571	4	n/a	n/a	n/a	n/a	n/a	n/a
3163883	RECOG_RESP	n/a	LTP211	ltpFR	18	6	n/a	FISH	571	n/a	n/a	n/a	n/a	n/a	n/a	n/a
3164647	RECOG_CONF	n/a	LTP211	ltpFR	18	6	n/a	FISH	571	4	n/a	n/a	n/a	n/a	n/a	n/a
3166260	RECOG_TARGET	n/a	LTP211	ltpFR	18	6	0	BABY	64	5	1	n/a	n/a	n/a	n/a	n/a
3166898	RECOG_RESP	n/a	LTP211	ltpFR	18	6	0	BABY	64	n/a	1	n/a	n/a	n/a	n/a	n/a
3167523	RECOG_CONF	n/a	LTP211	ltpFR	18	6	0	BABY	64	5	1	n/a	n/a	n/a	n/a	n/a
