mstime	trial_type	stim_file	subject	experiment	session	trial	task	item_name	item_num	recog_resp	recog_conf	resp	color_r	color_g	color_b	case	font
0	SESS_START	n/a	LTP208	ltpFR	1	n/a	n/a	n/a	n/a	1	4	n/a	n/a	n/a	n/a	n/a	n/a
164022	WORD	wordpools/wasnorm_wordpool_less_exclusions.txt	LTP208	ltpFR	1	1	1	MICROSCOPE	891	0	n/a	n/a	0.57763671875	0.412841796875	1	lower	amplitud.ttf
167067	SLOW_MSG	n/a	LTP208	ltpFR	1	1	n/a	n/a	n/a	n/a	n/a	n/a	n/a	n/a	n/a	n/a	n/a
169676	WORD	wordpools/wasnorm_wordpool_less_exclusions.txt	LTP208	ltpFR	1	1	1	GOO	648	n/a	n/a	2	0.57763671875	0.412841796875	1	lower	amplitud.ttf
170948	KEY_MSG	n/a	LTP208	ltpFR	1	1	n/a	n/a	n/a	n/a	n/a	n/a	n/a	n/a	n/a	n/a	n/a
173590	WORD	wordpools/wasnorm_wordpool_less_exclusions.txt	LTP208	ltpFR	1	1	0	CUE	422	n/a	n/a	2	0.422607421875	0.5869140625	0	upper	zerothre.ttf
174728	KEY_MSG	n/a	LTP208	ltpFR	1	1	n/a	n/a	n/a	n/a	n/a	n/a	n/a	n/a	n/a	n/a	n/a
177472	WORD	wordpools/wasnorm_wordpool_less_exclusions.txt	LTP208	ltpFR	1	1	0	SERPENT	1270	n/a	n/a	3	0.422607421875	0.5869140625	0	upper	zerothre.ttf
180066	KEY_MSG	n/a	LTP208	ltpFR	1	1	n/a	n/a	n/a	n/a	n/a	n/a	n/a	n/a	n/a	n/a	n/a
182792	WORD	wordpools/wasnorm_wordpool_less_exclusions.txt	LTP208	ltpFR	1	1	0	CLERK	321	n/a	n/a	3	0.422607421875	0.5869140625	0	upper	zerothre.ttf
185068	KEY_MSG	n/a	LTP208	ltpFR	1	1	n/a	n/a	n/a	n/a	n/a	n/a	n/a	n/a	n/a	n/a	n/a
187476	WORD	wordpools/wasnorm_wordpool_less_exclusions.txt	LTP208	ltpFR	1	1	0	APARTMENT	30	n/a	n/a	1	0.422607421875	0.5869140625	0	upper	zerothre.ttf
191485	WORD	wordpools/wasnorm_wordpool_less_exclusions.txt	LTP208	ltpFR	1	1	1	CABBAGE	210	n/a	n/a	0	0.57763671875	0.412841796875	1	lower	amplitud.ttf
195517	WORD	wordpools/wasnorm_wordpool_less_exclusions.txt	LTP208	ltpFR	1	1	1	WEB	1598	n/a	n/a	0	0.57763671875	0.412841796875	1	lower	amplitud.ttf
199532	WORD	wordpools/wasnorm_wordpool_less_exclusions.txt	LTP208	ltpFR	1	1	1	LODGE	839	n/a	n/a	0	0.57763671875	0.412841796875	1	lower	amplitud.ttf
203436	WORD	wordpools/wasnorm_wordpool_less_exclusions.txt	LTP208	ltpFR	1	1	1	MONARCH	906	n/a	n/a	1	0.57763671875	0.412841796875	1	lower	amplitud.ttf
207619	WORD	wordpools/wasnorm_wordpool_less_exclusions.txt	LTP208	ltpFR	1	1	0	EMPEROR	529	n/a	n/a	1	0.422607421875	0.5869140625	0	upper	zerothre.ttf
211645	WORD	wordpools/wasnorm_wordpool_less_exclusions.txt	LTP208	ltpFR	1	1	0	LIZARD	834	n/a	n/a	0	0.422607421875	0.5869140625	0	upper	zerothre.ttf
215676	WORD	wordpools/wasnorm_wordpool_less_exclusions.txt	LTP208	ltpFR	1	1	0	OPERATOR	979	n/a	n/a	1	0.422607421875	0.5869140625	0	upper	zerothre.ttf
219831	WORD	wordpools/wasnorm_wordpool_less_exclusions.txt	LTP208	ltpFR	1	1	0	TUBA	1515	n/a	n/a	2	0.422607421875	0.5869140625	0	upper	zerothre.ttf
222753	KEY_MSG	n/a	LTP208	ltpFR	1	1	n/a	n/a	n/a	n/a	n/a	n/a	n/a	n/a	n/a	n/a	n/a
225469	WORD	wordpools/wasnorm_wordpool_less_exclusions.txt	LTP208	ltpFR	1	1	1	NOTE	958	n/a	n/a	2	0.57763671875	0.412841796875	1	lower	amplitud.ttf
226909	KEY_MSG	n/a	LTP208	ltpFR	1	1	n/a	n/a	n/a	n/a	n/a	n/a	n/a	n/a	n/a	n/a	n/a
229295	WORD	wordpools/wasnorm_wordpool_less_exclusions.txt	LTP208	ltpFR	1	1	1	COMMANDER	354	n/a	n/a	3	0.57763671875	0.412841796875	1	lower	amplitud.ttf
230205	KEY_MSG	n/a	LTP208	ltpFR	1	1	n/a	n/a	n/a	n/a	n/a	n/a	n/a	n/a	n/a	n/a	n/a
235325	REC_START	n/a	LTP208	ltpFR	1	1	n/a	n/a	n/a	n/a	n/a	n/a	n/a	n/a	n/a	n/a	n/a
236846	REC_WORD	wordpools/wasnorm_wordpool_less_exclusions.txt	LTP208	ltpFR	1	1	0	EMPEROR	529	n/a	n/a	1	n/a	n/a	n/a	n/a	n/a
238132	REC_WORD	wordpools/wasnorm_wordpool_less_exclusions.txt	LTP208	ltpFR	1	1	0	LIZARD	834	n/a	n/a	0	n/a	n/a	n/a	n/a	n/a
239441	REC_WORD	wordpools/wasnorm_wordpool_less_exclusions.txt	LTP208	ltpFR	1	1	n/a	LIVING	-1	n/a	n/a	n/a	n/a	n/a	n/a	n/a	n/a
240628	REC_WORD	wordpools/wasnorm_wordpool_less_exclusions.txt	LTP208	ltpFR	1	1	n/a	CONDUCTOR	362	n/a	n/a	n/a	n/a	n/a	n/a	n/a	n/a
243162	REC_WORD_VV	wordpools/wasnorm_wordpool_less_exclusions.txt	LTP208	ltpFR	1	1	n/a	<>	-1	n/a	n/a	n/a	n/a	n/a	n/a	n/a	n/a
244206	REC_WORD_VV	wordpools/wasnorm_wordpool_less_exclusions.txt	LTP208	ltpFR	1	1	n/a	<>	-1	n/a	n/a	n/a	n/a	n/a	n/a	n/a	n/a
247188	REC_WORD	wordpools/wasnorm_wordpool_less_exclusions.txt	LTP208	ltpFR	1	1	n/a	TASK	-1	n/a	n/a	n/a	n/a	n/a	n/a	n/a	n/a
342795	WORD	wordpools/wasnorm_wordpool_less_exclusions.txt	LTP208	ltpFR	1	2	0	RUST	1219	n/a	n/a	0	0.422607421875	0.5869140625	0	upper	zerothre.ttf
346972	WORD	wordpools/wasnorm_wordpool_less_exclusions.txt	LTP208	ltpFR	1	2	0	BELT	120	n/a	n/a	1	0.422607421875	0.5869140625	0	upper	zerothre.ttf
351161	WORD	wordpools/wasnorm_wordpool_less_exclusions.txt	LTP208	ltpFR	1	2	0	FISH	571	n/a	n/a	0	0.422607421875	0.5869140625	0	upper	zerothre.ttf
355042	WORD	wordpools/wasnorm_wordpool_less_exclusions.txt	LTP208	ltpFR	1	2	0	CLAY	320	n/a	n/a	0	0.422607421875	0.5869140625	0	upper	zerothre.ttf
359057	WORD	wordpools/wasnorm_wordpool_less_exclusions.txt	LTP208	ltpFR	1	2	1	BELLY	119	n/a	n/a	1	0.57763671875	0.412841796875	1	lower	amplitud.ttf
363250	WORD	wordpools/wasnorm_wordpool_less_exclusions.txt	LTP208	ltpFR	1	2	1	SEA	1259	n/a	n/a	1	0.57763671875	0.412841796875	1	lower	amplitud.ttf
367338	WORD	wordpools/wasnorm_wordpool_less_exclusions.txt	LTP208	ltpFR	1	2	1	FLIPPER	580	n/a	n/a	1	0.57763671875	0.412841796875	1	lower	amplitud.ttf
371553	WORD	wordpools/wasnorm_wordpool_less_exclusions.txt	LTP208	ltpFR	1	2	1	SEAL	1262	n/a	n/a	1	0.57763671875	0.412841796875	1	lower	amplitud.ttf
375568	WORD	wordpools/wasnorm_wordpool_less_exclusions.txt	LTP208	ltpFR	1	2	1	PAINTER	1004	n/a	n/a	1	0.57763671875	0.412841796875	1	lower	amplitud.ttf
379728	WORD	wordpools/wasnorm_wordpool_less_exclusions.txt	LTP208	ltpFR	1	2	1	PAINT	1003	n/a	n/a	0	0.57763671875	0.412841796875	1	lower	amplitud.ttf
383850	WORD	wordpools/wasnorm_wordpool_less_exclusions.txt	LTP208	ltpFR	1	2	0	COCOON	339	n/a	n/a	1	0.422607421875	0.5869140625	0	upper	zerothre.ttf
387859	WORD	wordpools/wasnorm_wordpool_less_exclusions.txt	LTP208	ltpFR	1	2	0	SHELTER	1282	n/a	n/a	1	0.422607421875	0.5869140625	0	upper	zerothre.ttf
391914	WORD	wordpools/wasnorm_wordpool_less_exclusions.txt	LTP208	ltpFR	1	2	0	TREASURE	1500	n/a	n/a	1	0.422607421875	0.5869140625	0	upper	zerothre.ttf
395896	WORD	wordpools/wasnorm_wordpool_less_exclusions.txt	LTP208	ltpFR	1	2	0	BUTTERFLY	206	n/a	n/a	0	0.422607421875	0.5869140625	0	upper	zerothre.ttf
399726	WORD	wordpools/wasnorm_wordpool_less_exclusions.txt	LTP208	ltpFR	1	2	1	SAILOR	1223	n/a	n/a	1	0.57763671875	0.412841796875	1	lower	amplitud.ttf
403641	WORD	wordpools/wasnorm_wordpool_less_exclusions.txt	LTP208	ltpFR	1	2	1	RIVER	1194	n/a	n/a	1	0.57763671875	0.412841796875	1	lower	amplitud.ttf
409424	REC_START	n/a	LTP208	ltpFR	1	2	n/a	n/a	n/a	n/a	n/a	n/a	n/a	n/a	n/a	n/a	n/a
410212	REC_WORD	wordpools/wasnorm_wordpool_less_exclusions.txt	LTP208	ltpFR	1	2	1	SEA	1259	n/a	n/a	1	n/a	n/a	n/a	n/a	n/a
411125	REC_WORD	wordpools/wasnorm_wordpool_less_exclusions.txt	LTP208	ltpFR	1	2	1	RIVER	1194	n/a	n/a	1	n/a	n/a	n/a	n/a	n/a
412472	REC_WORD_VV	wordpools/wasnorm_wordpool_less_exclusions.txt	LTP208	ltpFR	1	2	n/a	<>	-1	n/a	n/a	n/a	n/a	n/a	n/a	n/a	n/a
412992	REC_WORD	wordpools/wasnorm_wordpool_less_exclusions.txt	LTP208	ltpFR	1	2	n/a	SHELLFISH	-1	n/a	n/a	n/a	n/a	n/a	n/a	n/a	n/a
414647	REC_WORD_VV	wordpools/wasnorm_wordpool_less_exclusions.txt	LTP208	ltpFR	1	2	n/a	<>	-1	n/a	n/a	n/a	n/a	n/a	n/a	n/a	n/a
417860	REC_WORD	wordpools/wasnorm_wordpool_less_exclusions.txt	LTP208	ltpFR	1	2	n/a	CARP	-1	n/a	n/a	n/a	n/a	n/a	n/a	n/a	n/a
420394	REC_WORD	wordpools/wasnorm_wordpool_less_exclusions.txt	LTP208	ltpFR	1	2	0	LIZARD	834	n/a	n/a	0	n/a	n/a	n/a	n/a	n/a
423542	REC_WORD_VV	wordpools/wasnorm_wordpool_less_exclusions.txt	LTP208	ltpFR	1	2	n/a	<>	-1	n/a	n/a	n/a	n/a	n/a	n/a	n/a	n/a
428850	REC_WORD	wordpools/wasnorm_wordpool_less_exclusions.txt	LTP208	ltpFR	1	2	1	SAILOR	1223	n/a	n/a	1	n/a	n/a	n/a	n/a	n/a
430021	REC_WORD	wordpools/wasnorm_wordpool_less_exclusions.txt	LTP208	ltpFR	1	2	1	SEA	1259	n/a	n/a	1	n/a	n/a	n/a	n/a	n/a
434168	REC_WORD	wordpools/wasnorm_wordpool_less_exclusions.txt	LTP208	ltpFR	1	2	n/a	SHIP	1286	n/a	n/a	n/a	n/a	n/a	n/a	n/a	n/a
436507	REC_WORD	wordpools/wasnorm_wordpool_less_exclusions.txt	LTP208	ltpFR	1	2	n/a	TAILOR	-1	n/a	n/a	n/a	n/a	n/a	n/a	n/a	n/a
444791	REC_WORD	wordpools/wasnorm_wordpool_less_exclusions.txt	LTP208	ltpFR	1	2	n/a	SEASHELL	-1	n/a	n/a	n/a	n/a	n/a	n/a	n/a	n/a
451513	REC_WORD	wordpools/wasnorm_wordpool_less_exclusions.txt	LTP208	ltpFR	1	2	n/a	BUILDER	190	n/a	n/a	n/a	n/a	n/a	n/a	n/a	n/a
470041	REC_WORD	wordpools/wasnorm_wordpool_less_exclusions.txt	LTP208	ltpFR	1	2	1	RIVER	1194	n/a	n/a	1	n/a	n/a	n/a	n/a	n/a
476388	REC_WORD	wordpools/wasnorm_wordpool_less_exclusions.txt	LTP208	ltpFR	1	2	n/a	SALT	1229	n/a	n/a	n/a	n/a	n/a	n/a	n/a	n/a
489525	WORD	wordpools/wasnorm_wordpool_less_exclusions.txt	LTP208	ltpFR	1	3	1	HORSE	719	n/a	n/a	1	0.57763671875	0.412841796875	1	lower	amplitud.ttf
493391	WORD	wordpools/wasnorm_wordpool_less_exclusions.txt	LTP208	ltpFR	1	3	1	UNICORN	1538	n/a	n/a	1	0.57763671875	0.412841796875	1	lower	amplitud.ttf
497239	WORD	wordpools/wasnorm_wordpool_less_exclusions.txt	LTP208	ltpFR	1	3	1	BASKET	95	n/a	n/a	0	0.57763671875	0.412841796875	1	lower	amplitud.ttf
501170	WORD	wordpools/wasnorm_wordpool_less_exclusions.txt	LTP208	ltpFR	1	3	1	ZIPPER	1636	n/a	n/a	0	0.57763671875	0.412841796875	1	lower	amplitud.ttf
505085	WORD	wordpools/wasnorm_wordpool_less_exclusions.txt	LTP208	ltpFR	1	3	1	SLUG	1329	n/a	n/a	1	0.57763671875	0.412841796875	1	lower	amplitud.ttf
509123	WORD	wordpools/wasnorm_wordpool_less_exclusions.txt	LTP208	ltpFR	1	3	1	LASH	802	n/a	n/a	0	0.57763671875	0.412841796875	1	lower	amplitud.ttf
512948	WORD	wordpools/wasnorm_wordpool_less_exclusions.txt	LTP208	ltpFR	1	3	1	LENS	811	n/a	n/a	0	0.57763671875	0.412841796875	1	lower	amplitud.ttf
517086	WORD	wordpools/wasnorm_wordpool_less_exclusions.txt	LTP208	ltpFR	1	3	1	WHALE	1601	n/a	n/a	1	0.57763671875	0.412841796875	1	lower	amplitud.ttf
521095	WORD	wordpools/wasnorm_wordpool_less_exclusions.txt	LTP208	ltpFR	1	3	1	BAY	102	n/a	n/a	0	0.57763671875	0.412841796875	1	lower	amplitud.ttf
525033	WORD	wordpools/wasnorm_wordpool_less_exclusions.txt	LTP208	ltpFR	1	3	1	LAMP	798	n/a	n/a	0	0.57763671875	0.412841796875	1	lower	amplitud.ttf
529232	WORD	wordpools/wasnorm_wordpool_less_exclusions.txt	LTP208	ltpFR	1	3	1	MARSH	874	n/a	n/a	1	0.57763671875	0.412841796875	1	lower	amplitud.ttf
533141	WORD	wordpools/wasnorm_wordpool_less_exclusions.txt	LTP208	ltpFR	1	3	1	VEGETABLE	1552	n/a	n/a	1	0.57763671875	0.412841796875	1	lower	amplitud.ttf
537362	WORD	wordpools/wasnorm_wordpool_less_exclusions.txt	LTP208	ltpFR	1	3	1	SERVER	1272	n/a	n/a	1	0.57763671875	0.412841796875	1	lower	amplitud.ttf
541504	WORD	wordpools/wasnorm_wordpool_less_exclusions.txt	LTP208	ltpFR	1	3	1	CRAB	397	n/a	n/a	1	0.57763671875	0.412841796875	1	lower	amplitud.ttf
545492	WORD	wordpools/wasnorm_wordpool_less_exclusions.txt	LTP208	ltpFR	1	3	1	WORM	1623	n/a	n/a	1	0.57763671875	0.412841796875	1	lower	amplitud.ttf
549574	WORD	wordpools/wasnorm_wordpool_less_exclusions.txt	LTP208	ltpFR	1	3	1	FAUCET	555	n/a	n/a	0	0.57763671875	0.412841796875	1	lower	amplitud.ttf
555558	REC_START	n/a	LTP208	ltpFR	1	3	n/a	n/a	n/a	n/a	n/a	n/a	n/a	n/a	n/a	n/a	n/a
556372	REC_WORD	wordpools/wasnorm_wordpool_less_exclusions.txt	LTP208	ltpFR	1	3	1	FAUCET	555	n/a	n/a	0	n/a	n/a	n/a	n/a	n/a
557374	REC_WORD	wordpools/wasnorm_wordpool_less_exclusions.txt	LTP208	ltpFR	1	3	1	WORM	1623	n/a	n/a	1	n/a	n/a	n/a	n/a	n/a
558924	REC_WORD	wordpools/wasnorm_wordpool_less_exclusions.txt	LTP208	ltpFR	1	3	1	UNICORN	1538	n/a	n/a	1	n/a	n/a	n/a	n/a	n/a
563864	REC_WORD_VV	wordpools/wasnorm_wordpool_less_exclusions.txt	LTP208	ltpFR	1	3	n/a	<>	-1	n/a	n/a	n/a	n/a	n/a	n/a	n/a	n/a
568497	REC_WORD_VV	wordpools/wasnorm_wordpool_less_exclusions.txt	LTP208	ltpFR	1	3	n/a	<>	-1	n/a	n/a	n/a	n/a	n/a	n/a	n/a	n/a
574794	REC_WORD	wordpools/wasnorm_wordpool_less_exclusions.txt	LTP208	ltpFR	1	3	n/a	WATER	1594	n/a	n/a	n/a	n/a	n/a	n/a	n/a	n/a
576106	REC_WORD	wordpools/wasnorm_wordpool_less_exclusions.txt	LTP208	ltpFR	1	3	1	BAY	102	n/a	n/a	0	n/a	n/a	n/a	n/a	n/a
584457	REC_WORD	wordpools/wasnorm_wordpool_less_exclusions.txt	LTP208	ltpFR	1	3	n/a	URCHIN	-1	n/a	n/a	n/a	n/a	n/a	n/a	n/a	n/a
585355	REC_WORD	wordpools/wasnorm_wordpool_less_exclusions.txt	LTP208	ltpFR	1	3	1	WORM	1623	n/a	n/a	1	n/a	n/a	n/a	n/a	n/a
601054	REC_WORD	wordpools/wasnorm_wordpool_less_exclusions.txt	LTP208	ltpFR	1	3	1	VEGETABLE	1552	n/a	n/a	1	n/a	n/a	n/a	n/a	n/a
609565	REC_WORD	wordpools/wasnorm_wordpool_less_exclusions.txt	LTP208	ltpFR	1	3	n/a	CLAM	315	n/a	n/a	n/a	n/a	n/a	n/a	n/a	n/a
621538	REC_WORD	wordpools/wasnorm_wordpool_less_exclusions.txt	LTP208	ltpFR	1	3	1	BAY	102	n/a	n/a	0	n/a	n/a	n/a	n/a	n/a
659349	WORD	wordpools/wasnorm_wordpool_less_exclusions.txt	LTP208	ltpFR	1	4	0	PAIL	1002	n/a	n/a	3	0.422607421875	0.5869140625	0	upper	zerothre.ttf
662099	KEY_MSG	n/a	LTP208	ltpFR	1	4	n/a	n/a	n/a	n/a	n/a	n/a	n/a	n/a	n/a	n/a	n/a
664819	WORD	wordpools/wasnorm_wordpool_less_exclusions.txt	LTP208	ltpFR	1	4	0	WATERFALL	1595	n/a	n/a	3	0.422607421875	0.5869140625	0	upper	zerothre.ttf
666749	KEY_MSG	n/a	LTP208	ltpFR	1	4	n/a	n/a	n/a	n/a	n/a	n/a	n/a	n/a	n/a	n/a	n/a
669270	WORD	wordpools/wasnorm_wordpool_less_exclusions.txt	LTP208	ltpFR	1	4	0	CLIMBER	323	n/a	n/a	2	0.422607421875	0.5869140625	0	upper	zerothre.ttf
670280	KEY_MSG	n/a	LTP208	ltpFR	1	4	n/a	n/a	n/a	n/a	n/a	n/a	n/a	n/a	n/a	n/a	n/a
673168	WORD	wordpools/wasnorm_wordpool_less_exclusions.txt	LTP208	ltpFR	1	4	0	GIRL	637	n/a	n/a	3	0.422607421875	0.5869140625	0	upper	zerothre.ttf
674228	KEY_MSG	n/a	LTP208	ltpFR	1	4	n/a	n/a	n/a	n/a	n/a	n/a	n/a	n/a	n/a	n/a	n/a
677340	WORD	wordpools/wasnorm_wordpool_less_exclusions.txt	LTP208	ltpFR	1	4	1	TAPE	1433	n/a	n/a	2	0.57763671875	0.412841796875	1	lower	amplitud.ttf
678912	KEY_MSG	n/a	LTP208	ltpFR	1	4	n/a	n/a	n/a	n/a	n/a	n/a	n/a	n/a	n/a	n/a	n/a
681316	WORD	wordpools/wasnorm_wordpool_less_exclusions.txt	LTP208	ltpFR	1	4	1	TUBE	1516	n/a	n/a	3	0.57763671875	0.412841796875	1	lower	amplitud.ttf
683128	KEY_MSG	n/a	LTP208	ltpFR	1	4	n/a	n/a	n/a	n/a	n/a	n/a	n/a	n/a	n/a	n/a	n/a
685866	WORD	wordpools/wasnorm_wordpool_less_exclusions.txt	LTP208	ltpFR	1	4	0	FENCE	560	n/a	n/a	2	0.422607421875	0.5869140625	0	upper	zerothre.ttf
687127	KEY_MSG	n/a	LTP208	ltpFR	1	4	n/a	n/a	n/a	n/a	n/a	n/a	n/a	n/a	n/a	n/a	n/a
690088	WORD	wordpools/wasnorm_wordpool_less_exclusions.txt	LTP208	ltpFR	1	4	0	FLASHLIGHT	575	n/a	n/a	0	0.422607421875	0.5869140625	0	upper	zerothre.ttf
694264	WORD	wordpools/wasnorm_wordpool_less_exclusions.txt	LTP208	ltpFR	1	4	0	SWITCH	1422	n/a	n/a	0	0.422607421875	0.5869140625	0	upper	zerothre.ttf
698252	WORD	wordpools/wasnorm_wordpool_less_exclusions.txt	LTP208	ltpFR	1	4	0	ELK	526	n/a	n/a	1	0.422607421875	0.5869140625	0	upper	zerothre.ttf
702368	WORD	wordpools/wasnorm_wordpool_less_exclusions.txt	LTP208	ltpFR	1	4	1	FOUNTAIN	597	n/a	n/a	0	0.57763671875	0.412841796875	1	lower	amplitud.ttf
706516	WORD	wordpools/wasnorm_wordpool_less_exclusions.txt	LTP208	ltpFR	1	4	1	PUPPY	1144	n/a	n/a	1	0.57763671875	0.412841796875	1	lower	amplitud.ttf
710430	WORD	wordpools/wasnorm_wordpool_less_exclusions.txt	LTP208	ltpFR	1	4	1	FRIEND	606	n/a	n/a	3	0.57763671875	0.412841796875	1	lower	amplitud.ttf
711971	KEY_MSG	n/a	LTP208	ltpFR	1	4	n/a	n/a	n/a	n/a	n/a	n/a	n/a	n/a	n/a	n/a	n/a
714579	WORD	wordpools/wasnorm_wordpool_less_exclusions.txt	LTP208	ltpFR	1	4	1	STRANGER	1389	n/a	n/a	1	0.57763671875	0.412841796875	1	lower	amplitud.ttf
718728	WORD	wordpools/wasnorm_wordpool_less_exclusions.txt	LTP208	ltpFR	1	4	1	HARP	689	n/a	n/a	0	0.57763671875	0.412841796875	1	lower	amplitud.ttf
722878	WORD	wordpools/wasnorm_wordpool_less_exclusions.txt	LTP208	ltpFR	1	4	1	RUG	1215	n/a	n/a	0	0.57763671875	0.412841796875	1	lower	amplitud.ttf
728850	REC_START	n/a	LTP208	ltpFR	1	4	n/a	n/a	n/a	n/a	n/a	n/a	n/a	n/a	n/a	n/a	n/a
729578	REC_WORD	wordpools/wasnorm_wordpool_less_exclusions.txt	LTP208	ltpFR	1	4	1	RUG	1215	n/a	n/a	0	n/a	n/a	n/a	n/a	n/a
730258	REC_WORD	wordpools/wasnorm_wordpool_less_exclusions.txt	LTP208	ltpFR	1	4	1	FRIEND	606	n/a	n/a	3	n/a	n/a	n/a	n/a	n/a
731030	REC_WORD	wordpools/wasnorm_wordpool_less_exclusions.txt	LTP208	ltpFR	1	4	1	STRANGER	1389	n/a	n/a	1	n/a	n/a	n/a	n/a	n/a
732500	REC_WORD	wordpools/wasnorm_wordpool_less_exclusions.txt	LTP208	ltpFR	1	4	0	ELK	526	n/a	n/a	1	n/a	n/a	n/a	n/a	n/a
733709	REC_WORD	wordpools/wasnorm_wordpool_less_exclusions.txt	LTP208	ltpFR	1	4	n/a	BEAR	106	n/a	n/a	n/a	n/a	n/a	n/a	n/a	n/a
737445	REC_WORD	wordpools/wasnorm_wordpool_less_exclusions.txt	LTP208	ltpFR	1	4	1	FRIEND	606	n/a	n/a	3	n/a	n/a	n/a	n/a	n/a
742785	REC_WORD	wordpools/wasnorm_wordpool_less_exclusions.txt	LTP208	ltpFR	1	4	n/a	BIRD	129	n/a	n/a	n/a	n/a	n/a	n/a	n/a	n/a
746180	REC_WORD	wordpools/wasnorm_wordpool_less_exclusions.txt	LTP208	ltpFR	1	4	n/a	FRIENDSHIP	-1	n/a	n/a	n/a	n/a	n/a	n/a	n/a	n/a
809665	WORD	wordpools/wasnorm_wordpool_less_exclusions.txt	LTP208	ltpFR	1	5	1	FARMER	553	n/a	n/a	1	0.57763671875	0.412841796875	1	lower	amplitud.ttf
813714	WORD	wordpools/wasnorm_wordpool_less_exclusions.txt	LTP208	ltpFR	1	5	1	CORN	381	n/a	n/a	1	0.57763671875	0.412841796875	1	lower	amplitud.ttf
817595	WORD	wordpools/wasnorm_wordpool_less_exclusions.txt	LTP208	ltpFR	1	5	1	PRIEST	1122	n/a	n/a	1	0.57763671875	0.412841796875	1	lower	amplitud.ttf
821543	WORD	wordpools/wasnorm_wordpool_less_exclusions.txt	LTP208	ltpFR	1	5	1	ONION	977	n/a	n/a	0	0.57763671875	0.412841796875	1	lower	amplitud.ttf
825525	WORD	wordpools/wasnorm_wordpool_less_exclusions.txt	LTP208	ltpFR	1	5	1	BARK	87	n/a	n/a	0	0.57763671875	0.412841796875	1	lower	amplitud.ttf
829579	WORD	wordpools/wasnorm_wordpool_less_exclusions.txt	LTP208	ltpFR	1	5	1	COUSIN	392	n/a	n/a	1	0.57763671875	0.412841796875	1	lower	amplitud.ttf
833421	WORD	wordpools/wasnorm_wordpool_less_exclusions.txt	LTP208	ltpFR	1	5	1	UNCLE	1536	n/a	n/a	1	0.57763671875	0.412841796875	1	lower	amplitud.ttf
837376	WORD	wordpools/wasnorm_wordpool_less_exclusions.txt	LTP208	ltpFR	1	5	1	SARDINE	1235	n/a	n/a	0	0.57763671875	0.412841796875	1	lower	amplitud.ttf
841502	WORD	wordpools/wasnorm_wordpool_less_exclusions.txt	LTP208	ltpFR	1	5	1	CYLINDER	432	n/a	n/a	0	0.57763671875	0.412841796875	1	lower	amplitud.ttf
845556	WORD	wordpools/wasnorm_wordpool_less_exclusions.txt	LTP208	ltpFR	1	5	1	SOCK	1339	n/a	n/a	0	0.57763671875	0.412841796875	1	lower	amplitud.ttf
849772	WORD	wordpools/wasnorm_wordpool_less_exclusions.txt	LTP208	ltpFR	1	5	1	EAGLE	512	n/a	n/a	1	0.57763671875	0.412841796875	1	lower	amplitud.ttf
853670	WORD	wordpools/wasnorm_wordpool_less_exclusions.txt	LTP208	ltpFR	1	5	1	GARLIC	624	n/a	n/a	0	0.57763671875	0.412841796875	1	lower	amplitud.ttf
857763	WORD	wordpools/wasnorm_wordpool_less_exclusions.txt	LTP208	ltpFR	1	5	1	HEEL	700	n/a	n/a	0	0.57763671875	0.412841796875	1	lower	amplitud.ttf
861761	WORD	wordpools/wasnorm_wordpool_less_exclusions.txt	LTP208	ltpFR	1	5	1	RACCOON	1153	n/a	n/a	1	0.57763671875	0.412841796875	1	lower	amplitud.ttf
865827	WORD	wordpools/wasnorm_wordpool_less_exclusions.txt	LTP208	ltpFR	1	5	1	DISHWASHER	475	n/a	n/a	1	0.57763671875	0.412841796875	1	lower	amplitud.ttf
869848	WORD	wordpools/wasnorm_wordpool_less_exclusions.txt	LTP208	ltpFR	1	5	1	TELESCOPE	1446	n/a	n/a	0	0.57763671875	0.412841796875	1	lower	amplitud.ttf
875620	REC_START	n/a	LTP208	ltpFR	1	5	n/a	n/a	n/a	n/a	n/a	n/a	n/a	n/a	n/a	n/a	n/a
876228	REC_WORD	wordpools/wasnorm_wordpool_less_exclusions.txt	LTP208	ltpFR	1	5	1	TELESCOPE	1446	n/a	n/a	0	n/a	n/a	n/a	n/a	n/a
877151	REC_WORD	wordpools/wasnorm_wordpool_less_exclusions.txt	LTP208	ltpFR	1	5	1	FARMER	553	n/a	n/a	1	n/a	n/a	n/a	n/a	n/a
877841	REC_WORD	wordpools/wasnorm_wordpool_less_exclusions.txt	LTP208	ltpFR	1	5	1	PRIEST	1122	n/a	n/a	1	n/a	n/a	n/a	n/a	n/a
878872	REC_WORD	wordpools/wasnorm_wordpool_less_exclusions.txt	LTP208	ltpFR	1	5	1	GARLIC	624	n/a	n/a	0	n/a	n/a	n/a	n/a	n/a
883103	REC_WORD_VV	wordpools/wasnorm_wordpool_less_exclusions.txt	LTP208	ltpFR	1	5	n/a	<>	-1	n/a	n/a	n/a	n/a	n/a	n/a	n/a	n/a
883272	REC_WORD	wordpools/wasnorm_wordpool_less_exclusions.txt	LTP208	ltpFR	1	5	1	CABBAGE	210	n/a	n/a	0	n/a	n/a	n/a	n/a	n/a
887415	REC_WORD_VV	wordpools/wasnorm_wordpool_less_exclusions.txt	LTP208	ltpFR	1	5	n/a	<>	-1	n/a	n/a	n/a	n/a	n/a	n/a	n/a	n/a
887682	REC_WORD	wordpools/wasnorm_wordpool_less_exclusions.txt	LTP208	ltpFR	1	5	n/a	WAGON	1578	n/a	n/a	n/a	n/a	n/a	n/a	n/a	n/a
895000	REC_WORD	wordpools/wasnorm_wordpool_less_exclusions.txt	LTP208	ltpFR	1	5	1	FRIEND	606	n/a	n/a	3	n/a	n/a	n/a	n/a	n/a
895924	REC_WORD	wordpools/wasnorm_wordpool_less_exclusions.txt	LTP208	ltpFR	1	5	1	COUSIN	392	n/a	n/a	1	n/a	n/a	n/a	n/a	n/a
896891	REC_WORD	wordpools/wasnorm_wordpool_less_exclusions.txt	LTP208	ltpFR	1	5	1	UNCLE	1536	n/a	n/a	1	n/a	n/a	n/a	n/a	n/a
906929	REC_WORD	wordpools/wasnorm_wordpool_less_exclusions.txt	LTP208	ltpFR	1	5	1	DISHWASHER	475	n/a	n/a	1	n/a	n/a	n/a	n/a	n/a
907780	REC_WORD	wordpools/wasnorm_wordpool_less_exclusions.txt	LTP208	ltpFR	1	5	n/a	CONDUCTOR	362	n/a	n/a	n/a	n/a	n/a	n/a	n/a	n/a
954284	WORD	wordpools/wasnorm_wordpool_less_exclusions.txt	LTP208	ltpFR	1	6	-1	CLOTHES	327	n/a	n/a	-1	1.0	1.0	1	upper	Verdana.ttf
958198	WORD	wordpools/wasnorm_wordpool_less_exclusions.txt	LTP208	ltpFR	1	6	-1	DRESSER	496	n/a	n/a	-1	1.0	1.0	1	upper	Verdana.ttf
962398	WORD	wordpools/wasnorm_wordpool_less_exclusions.txt	LTP208	ltpFR	1	6	-1	COOKBOOK	373	n/a	n/a	-1	1.0	1.0	1	upper	Verdana.ttf
966273	WORD	wordpools/wasnorm_wordpool_less_exclusions.txt	LTP208	ltpFR	1	6	-1	FUDGE	611	n/a	n/a	-1	1.0	1.0	1	upper	Verdana.ttf
970110	WORD	wordpools/wasnorm_wordpool_less_exclusions.txt	LTP208	ltpFR	1	6	-1	TREAT	1501	n/a	n/a	-1	1.0	1.0	1	upper	Verdana.ttf
974159	WORD	wordpools/wasnorm_wordpool_less_exclusions.txt	LTP208	ltpFR	1	6	-1	PHOTO	1055	n/a	n/a	-1	1.0	1.0	1	upper	Verdana.ttf
978174	WORD	wordpools/wasnorm_wordpool_less_exclusions.txt	LTP208	ltpFR	1	6	-1	SCREW	1254	n/a	n/a	-1	1.0	1.0	1	upper	Verdana.ttf
982216	WORD	wordpools/wasnorm_wordpool_less_exclusions.txt	LTP208	ltpFR	1	6	-1	SCALPEL	1243	n/a	n/a	-1	1.0	1.0	1	upper	Verdana.ttf
986237	WORD	wordpools/wasnorm_wordpool_less_exclusions.txt	LTP208	ltpFR	1	6	-1	TENT	1449	n/a	n/a	-1	1.0	1.0	1	upper	Verdana.ttf
990068	WORD	wordpools/wasnorm_wordpool_less_exclusions.txt	LTP208	ltpFR	1	6	-1	CHIPMUNK	304	n/a	n/a	-1	1.0	1.0	1	upper	Verdana.ttf
994100	WORD	wordpools/wasnorm_wordpool_less_exclusions.txt	LTP208	ltpFR	1	6	-1	FIG	563	n/a	n/a	-1	1.0	1.0	1	upper	Verdana.ttf
997959	WORD	wordpools/wasnorm_wordpool_less_exclusions.txt	LTP208	ltpFR	1	6	-1	FRAME	600	n/a	n/a	-1	1.0	1.0	1	upper	Verdana.ttf
1002080	WORD	wordpools/wasnorm_wordpool_less_exclusions.txt	LTP208	ltpFR	1	6	-1	ARMY	39	n/a	n/a	-1	1.0	1.0	1	upper	Verdana.ttf
1006056	WORD	wordpools/wasnorm_wordpool_less_exclusions.txt	LTP208	ltpFR	1	6	-1	CUPBOARD	425	n/a	n/a	-1	1.0	1.0	1	upper	Verdana.ttf
1009893	WORD	wordpools/wasnorm_wordpool_less_exclusions.txt	LTP208	ltpFR	1	6	-1	WHEEL	1603	n/a	n/a	-1	1.0	1.0	1	upper	Verdana.ttf
1013768	WORD	wordpools/wasnorm_wordpool_less_exclusions.txt	LTP208	ltpFR	1	6	-1	CARAVAN	242	n/a	n/a	-1	1.0	1.0	1	upper	Verdana.ttf
1019524	REC_START	n/a	LTP208	ltpFR	1	6	n/a	n/a	n/a	n/a	n/a	n/a	n/a	n/a	n/a	n/a	n/a
1020093	REC_WORD	wordpools/wasnorm_wordpool_less_exclusions.txt	LTP208	ltpFR	1	6	-1	CHIPMUNK	304	n/a	n/a	-1	n/a	n/a	n/a	n/a	n/a
1020737	REC_WORD	wordpools/wasnorm_wordpool_less_exclusions.txt	LTP208	ltpFR	1	6	-1	FIG	563	n/a	n/a	-1	n/a	n/a	n/a	n/a	n/a
1021814	REC_WORD	wordpools/wasnorm_wordpool_less_exclusions.txt	LTP208	ltpFR	1	6	-1	CARAVAN	242	n/a	n/a	-1	n/a	n/a	n/a	n/a	n/a
1024239	REC_WORD_VV	wordpools/wasnorm_wordpool_less_exclusions.txt	LTP208	ltpFR	1	6	n/a	<>	-1	n/a	n/a	n/a	n/a	n/a	n/a	n/a	n/a
1025246	REC_WORD	wordpools/wasnorm_wordpool_less_exclusions.txt	LTP208	ltpFR	1	6	-1	CUPBOARD	425	n/a	n/a	-1	n/a	n/a	n/a	n/a	n/a
1026787	REC_WORD	wordpools/wasnorm_wordpool_less_exclusions.txt	LTP208	ltpFR	1	6	n/a	CLOSET	326	n/a	n/a	n/a	n/a	n/a	n/a	n/a	n/a
1031207	REC_WORD	wordpools/wasnorm_wordpool_less_exclusions.txt	LTP208	ltpFR	1	6	n/a	TIME	-1	n/a	n/a	n/a	n/a	n/a	n/a	n/a	n/a
1035041	REC_WORD	wordpools/wasnorm_wordpool_less_exclusions.txt	LTP208	ltpFR	1	6	n/a	FURNITURE	616	n/a	n/a	n/a	n/a	n/a	n/a	n/a	n/a
1037867	REC_WORD	wordpools/wasnorm_wordpool_less_exclusions.txt	LTP208	ltpFR	1	6	-1	CARAVAN	242	n/a	n/a	-1	n/a	n/a	n/a	n/a	n/a
1042367	REC_WORD	wordpools/wasnorm_wordpool_less_exclusions.txt	LTP208	ltpFR	1	6	-1	ARMY	39	n/a	n/a	-1	n/a	n/a	n/a	n/a	n/a
1099675	WORD	wordpools/wasnorm_wordpool_less_exclusions.txt	LTP208	ltpFR	1	7	-1	JAW	751	n/a	n/a	-1	1.0	1.0	1	upper	Verdana.ttf
1103556	WORD	wordpools/wasnorm_wordpool_less_exclusions.txt	LTP208	ltpFR	1	7	-1	CHEEK	287	n/a	n/a	-1	1.0	1.0	1	upper	Verdana.ttf
1107560	WORD	wordpools/wasnorm_wordpool_less_exclusions.txt	LTP208	ltpFR	1	7	-1	SEAT	1264	n/a	n/a	-1	1.0	1.0	1	upper	Verdana.ttf
1111553	WORD	wordpools/wasnorm_wordpool_less_exclusions.txt	LTP208	ltpFR	1	7	-1	FIELD	562	n/a	n/a	-1	1.0	1.0	1	upper	Verdana.ttf
1115391	WORD	wordpools/wasnorm_wordpool_less_exclusions.txt	LTP208	ltpFR	1	7	-1	TOASTER	1472	n/a	n/a	-1	1.0	1.0	1	upper	Verdana.ttf
1119405	WORD	wordpools/wasnorm_wordpool_less_exclusions.txt	LTP208	ltpFR	1	7	-1	PRODUCER	1129	n/a	n/a	-1	1.0	1.0	1	upper	Verdana.ttf
1123621	WORD	wordpools/wasnorm_wordpool_less_exclusions.txt	LTP208	ltpFR	1	7	-1	HAWK	692	n/a	n/a	-1	1.0	1.0	1	upper	Verdana.ttf
1127770	WORD	wordpools/wasnorm_wordpool_less_exclusions.txt	LTP208	ltpFR	1	7	-1	GRASS	655	n/a	n/a	-1	1.0	1.0	1	upper	Verdana.ttf
1131802	WORD	wordpools/wasnorm_wordpool_less_exclusions.txt	LTP208	ltpFR	1	7	-1	ANCHOR	21	n/a	n/a	-1	1.0	1.0	1	upper	Verdana.ttf
1135968	WORD	wordpools/wasnorm_wordpool_less_exclusions.txt	LTP208	ltpFR	1	7	-1	BATHTUB	100	n/a	n/a	-1	1.0	1.0	1	upper	Verdana.ttf
1140017	WORD	wordpools/wasnorm_wordpool_less_exclusions.txt	LTP208	ltpFR	1	7	-1	PLUMBER	1091	n/a	n/a	-1	1.0	1.0	1	upper	Verdana.ttf
1143881	WORD	wordpools/wasnorm_wordpool_less_exclusions.txt	LTP208	ltpFR	1	7	-1	TILE	1468	n/a	n/a	-1	1.0	1.0	1	upper	Verdana.ttf
1148047	WORD	wordpools/wasnorm_wordpool_less_exclusions.txt	LTP208	ltpFR	1	7	-1	CEILING	265	n/a	n/a	-1	1.0	1.0	1	upper	Verdana.ttf
1151973	WORD	wordpools/wasnorm_wordpool_less_exclusions.txt	LTP208	ltpFR	1	7	-1	CANARY	227	n/a	n/a	-1	1.0	1.0	1	upper	Verdana.ttf
1156194	WORD	wordpools/wasnorm_wordpool_less_exclusions.txt	LTP208	ltpFR	1	7	-1	PLANT	1083	n/a	n/a	-1	1.0	1.0	1	upper	Verdana.ttf
1160243	WORD	wordpools/wasnorm_wordpool_less_exclusions.txt	LTP208	ltpFR	1	7	-1	PICKLE	1059	n/a	n/a	-1	1.0	1.0	1	upper	Verdana.ttf
1166016	REC_START	n/a	LTP208	ltpFR	1	7	n/a	n/a	n/a	n/a	n/a	n/a	n/a	n/a	n/a	n/a	n/a
1166639	REC_WORD	wordpools/wasnorm_wordpool_less_exclusions.txt	LTP208	ltpFR	1	7	-1	PLANT	1083	n/a	n/a	-1	n/a	n/a	n/a	n/a	n/a
1167453	REC_WORD	wordpools/wasnorm_wordpool_less_exclusions.txt	LTP208	ltpFR	1	7	-1	PICKLE	1059	n/a	n/a	-1	n/a	n/a	n/a	n/a	n/a
1168450	REC_WORD	wordpools/wasnorm_wordpool_less_exclusions.txt	LTP208	ltpFR	1	7	n/a	BATHROOM	99	n/a	n/a	n/a	n/a	n/a	n/a	n/a	n/a
1169473	REC_WORD	wordpools/wasnorm_wordpool_less_exclusions.txt	LTP208	ltpFR	1	7	-1	PLUMBER	1091	n/a	n/a	-1	n/a	n/a	n/a	n/a	n/a
1170550	REC_WORD	wordpools/wasnorm_wordpool_less_exclusions.txt	LTP208	ltpFR	1	7	-1	CEILING	265	n/a	n/a	-1	n/a	n/a	n/a	n/a	n/a
1171892	REC_WORD	wordpools/wasnorm_wordpool_less_exclusions.txt	LTP208	ltpFR	1	7	-1	TILE	1468	n/a	n/a	-1	n/a	n/a	n/a	n/a	n/a
1176507	REC_WORD	wordpools/wasnorm_wordpool_less_exclusions.txt	LTP208	ltpFR	1	7	-1	GRASS	655	n/a	n/a	-1	n/a	n/a	n/a	n/a	n/a
1181865	REC_WORD	wordpools/wasnorm_wordpool_less_exclusions.txt	LTP208	ltpFR	1	7	-1	PLANT	1083	n/a	n/a	-1	n/a	n/a	n/a	n/a	n/a
1182679	REC_WORD	wordpools/wasnorm_wordpool_less_exclusions.txt	LTP208	ltpFR	1	7	-1	CHEEK	287	n/a	n/a	-1	n/a	n/a	n/a	n/a	n/a
1184838	REC_WORD	wordpools/wasnorm_wordpool_less_exclusions.txt	LTP208	ltpFR	1	7	-1	JAW	751	n/a	n/a	-1	n/a	n/a	n/a	n/a	n/a
1189158	REC_WORD	wordpools/wasnorm_wordpool_less_exclusions.txt	LTP208	ltpFR	1	7	-1	ANCHOR	21	n/a	n/a	-1	n/a	n/a	n/a	n/a	n/a
1245441	WORD	wordpools/wasnorm_wordpool_less_exclusions.txt	LTP208	ltpFR	1	8	1	NOVEL	960	n/a	n/a	2	0.57763671875	0.412841796875	1	lower	amplitud.ttf
1247321	KEY_MSG	n/a	LTP208	ltpFR	1	8	n/a	n/a	n/a	n/a	n/a	n/a	n/a	n/a	n/a	n/a	n/a
1249662	WORD	wordpools/wasnorm_wordpool_less_exclusions.txt	LTP208	ltpFR	1	8	1	BLOUSE	139	n/a	n/a	3	0.57763671875	0.412841796875	1	lower	amplitud.ttf
1251035	KEY_MSG	n/a	LTP208	ltpFR	1	8	n/a	n/a	n/a	n/a	n/a	n/a	n/a	n/a	n/a	n/a	n/a
1253856	WORD	wordpools/wasnorm_wordpool_less_exclusions.txt	LTP208	ltpFR	1	8	0	RUNNER	1218	n/a	n/a	1	0.422607421875	0.5869140625	0	upper	zerothre.ttf
1257939	WORD	wordpools/wasnorm_wordpool_less_exclusions.txt	LTP208	ltpFR	1	8	0	QUILT	1151	n/a	n/a	1	0.422607421875	0.5869140625	0	upper	zerothre.ttf
1261825	WORD	wordpools/wasnorm_wordpool_less_exclusions.txt	LTP208	ltpFR	1	8	0	BOOK	149	n/a	n/a	1	0.422607421875	0.5869140625	0	upper	zerothre.ttf
1265817	WORD	wordpools/wasnorm_wordpool_less_exclusions.txt	LTP208	ltpFR	1	8	0	PEAR	1033	n/a	n/a	0	0.422607421875	0.5869140625	0	upper	zerothre.ttf
1269973	WORD	wordpools/wasnorm_wordpool_less_exclusions.txt	LTP208	ltpFR	1	8	0	COOLER	375	n/a	n/a	1	0.422607421875	0.5869140625	0	upper	zerothre.ttf
1273820	WORD	wordpools/wasnorm_wordpool_less_exclusions.txt	LTP208	ltpFR	1	8	1	PUB	1135	n/a	n/a	0	0.57763671875	0.412841796875	1	lower	amplitud.ttf
1277668	WORD	wordpools/wasnorm_wordpool_less_exclusions.txt	LTP208	ltpFR	1	8	1	TURTLE	1522	n/a	n/a	1	0.57763671875	0.412841796875	1	lower	amplitud.ttf
1281800	WORD	wordpools/wasnorm_wordpool_less_exclusions.txt	LTP208	ltpFR	1	8	1	PALACE	1006	n/a	n/a	1	0.57763671875	0.412841796875	1	lower	amplitud.ttf
1285967	WORD	wordpools/wasnorm_wordpool_less_exclusions.txt	LTP208	ltpFR	1	8	1	PRINCESS	1125	n/a	n/a	1	0.57763671875	0.412841796875	1	lower	amplitud.ttf
1289965	WORD	wordpools/wasnorm_wordpool_less_exclusions.txt	LTP208	ltpFR	1	8	1	HEN	703	n/a	n/a	1	0.57763671875	0.412841796875	1	lower	amplitud.ttf
1293991	WORD	wordpools/wasnorm_wordpool_less_exclusions.txt	LTP208	ltpFR	1	8	1	TRICYCLE	1506	n/a	n/a	0	0.57763671875	0.412841796875	1	lower	amplitud.ttf
1297827	WORD	wordpools/wasnorm_wordpool_less_exclusions.txt	LTP208	ltpFR	1	8	0	NIGHTGOWN	953	n/a	n/a	1	0.422607421875	0.5869140625	0	upper	zerothre.ttf
1302021	WORD	wordpools/wasnorm_wordpool_less_exclusions.txt	LTP208	ltpFR	1	8	0	FLEET	578	n/a	n/a	1	0.422607421875	0.5869140625	0	upper	zerothre.ttf
1305942	WORD	wordpools/wasnorm_wordpool_less_exclusions.txt	LTP208	ltpFR	1	8	0	CAPTAIN	239	n/a	n/a	1	0.422607421875	0.5869140625	0	upper	zerothre.ttf
1311949	REC_START	n/a	LTP208	ltpFR	1	8	n/a	n/a	n/a	n/a	n/a	n/a	n/a	n/a	n/a	n/a	n/a
1313065	REC_WORD	wordpools/wasnorm_wordpool_less_exclusions.txt	LTP208	ltpFR	1	8	0	FLEET	578	n/a	n/a	1	n/a	n/a	n/a	n/a	n/a
1314004	REC_WORD	wordpools/wasnorm_wordpool_less_exclusions.txt	LTP208	ltpFR	1	8	1	PRINCESS	1125	n/a	n/a	1	n/a	n/a	n/a	n/a	n/a
1314882	REC_WORD	wordpools/wasnorm_wordpool_less_exclusions.txt	LTP208	ltpFR	1	8	1	PALACE	1006	n/a	n/a	1	n/a	n/a	n/a	n/a	n/a
1319266	REC_WORD_VV	wordpools/wasnorm_wordpool_less_exclusions.txt	LTP208	ltpFR	1	8	n/a	<>	-1	n/a	n/a	n/a	n/a	n/a	n/a	n/a	n/a
1319457	REC_WORD	wordpools/wasnorm_wordpool_less_exclusions.txt	LTP208	ltpFR	1	8	n/a	TRUCK	1512	n/a	n/a	n/a	n/a	n/a	n/a	n/a	n/a
1336588	REC_WORD	wordpools/wasnorm_wordpool_less_exclusions.txt	LTP208	ltpFR	1	8	1	PRINCESS	1125	n/a	n/a	1	n/a	n/a	n/a	n/a	n/a
1361601	REC_WORD	wordpools/wasnorm_wordpool_less_exclusions.txt	LTP208	ltpFR	1	8	1	PALACE	1006	n/a	n/a	1	n/a	n/a	n/a	n/a	n/a
1378503	REC_WORD	wordpools/wasnorm_wordpool_less_exclusions.txt	LTP208	ltpFR	1	8	0	BOOK	149	n/a	n/a	1	n/a	n/a	n/a	n/a	n/a
1390778	WORD	wordpools/wasnorm_wordpool_less_exclusions.txt	LTP208	ltpFR	1	9	0	TROUT	1511	n/a	n/a	1	0.422607421875	0.5869140625	0	upper	zerothre.ttf
1394625	WORD	wordpools/wasnorm_wordpool_less_exclusions.txt	LTP208	ltpFR	1	9	0	PIKE	1067	n/a	n/a	1	0.422607421875	0.5869140625	0	upper	zerothre.ttf
1398702	WORD	wordpools/wasnorm_wordpool_less_exclusions.txt	LTP208	ltpFR	1	9	0	SHED	1277	n/a	n/a	1	0.422607421875	0.5869140625	0	upper	zerothre.ttf
1402700	WORD	wordpools/wasnorm_wordpool_less_exclusions.txt	LTP208	ltpFR	1	9	0	BANJO	82	n/a	n/a	0	0.422607421875	0.5869140625	0	upper	zerothre.ttf
1406554	WORD	wordpools/wasnorm_wordpool_less_exclusions.txt	LTP208	ltpFR	1	9	0	HANDBAG	684	n/a	n/a	0	0.422607421875	0.5869140625	0	upper	zerothre.ttf
1410552	WORD	wordpools/wasnorm_wordpool_less_exclusions.txt	LTP208	ltpFR	1	9	0	BUCKLE	185	n/a	n/a	0	0.422607421875	0.5869140625	0	upper	zerothre.ttf
1414751	WORD	wordpools/wasnorm_wordpool_less_exclusions.txt	LTP208	ltpFR	1	9	0	DIARY	460	n/a	n/a	0	0.422607421875	0.5869140625	0	upper	zerothre.ttf
1418766	WORD	wordpools/wasnorm_wordpool_less_exclusions.txt	LTP208	ltpFR	1	9	0	PAGE	1001	n/a	n/a	0	0.422607421875	0.5869140625	0	upper	zerothre.ttf
1422933	WORD	wordpools/wasnorm_wordpool_less_exclusions.txt	LTP208	ltpFR	1	9	0	EGG	518	n/a	n/a	0	0.422607421875	0.5869140625	0	upper	zerothre.ttf
1427043	WORD	wordpools/wasnorm_wordpool_less_exclusions.txt	LTP208	ltpFR	1	9	0	BROOM	178	n/a	n/a	1	0.422607421875	0.5869140625	0	upper	zerothre.ttf
1430941	WORD	wordpools/wasnorm_wordpool_less_exclusions.txt	LTP208	ltpFR	1	9	0	STAIRS	1367	n/a	n/a	0	0.422607421875	0.5869140625	0	upper	zerothre.ttf
1435090	WORD	wordpools/wasnorm_wordpool_less_exclusions.txt	LTP208	ltpFR	1	9	0	PORCUPINE	1107	n/a	n/a	1	0.422607421875	0.5869140625	0	upper	zerothre.ttf
1439061	WORD	wordpools/wasnorm_wordpool_less_exclusions.txt	LTP208	ltpFR	1	9	0	HEDGE	699	n/a	n/a	0	0.422607421875	0.5869140625	0	upper	zerothre.ttf
1443109	WORD	wordpools/wasnorm_wordpool_less_exclusions.txt	LTP208	ltpFR	1	9	0	CHAUFFEUR	283	n/a	n/a	1	0.422607421875	0.5869140625	0	upper	zerothre.ttf
1447208	WORD	wordpools/wasnorm_wordpool_less_exclusions.txt	LTP208	ltpFR	1	9	0	SPOOL	1356	n/a	n/a	0	0.422607421875	0.5869140625	0	upper	zerothre.ttf
1451089	WORD	wordpools/wasnorm_wordpool_less_exclusions.txt	LTP208	ltpFR	1	9	0	ESCALATOR	539	n/a	n/a	1	0.422607421875	0.5869140625	0	upper	zerothre.ttf
1456889	REC_START	n/a	LTP208	ltpFR	1	9	n/a	n/a	n/a	n/a	n/a	n/a	n/a	n/a	n/a	n/a	n/a
1457926	REC_WORD	wordpools/wasnorm_wordpool_less_exclusions.txt	LTP208	ltpFR	1	9	0	ESCALATOR	539	n/a	n/a	1	n/a	n/a	n/a	n/a	n/a
1459189	REC_WORD	wordpools/wasnorm_wordpool_less_exclusions.txt	LTP208	ltpFR	1	9	0	TROUT	1511	n/a	n/a	1	n/a	n/a	n/a	n/a	n/a
1460228	REC_WORD	wordpools/wasnorm_wordpool_less_exclusions.txt	LTP208	ltpFR	1	9	n/a	SALMON	1227	n/a	n/a	n/a	n/a	n/a	n/a	n/a	n/a
1461520	REC_WORD	wordpools/wasnorm_wordpool_less_exclusions.txt	LTP208	ltpFR	1	9	n/a	THREAD	1460	n/a	n/a	n/a	n/a	n/a	n/a	n/a	n/a
1463264	REC_WORD	wordpools/wasnorm_wordpool_less_exclusions.txt	LTP208	ltpFR	1	9	0	SPOOL	1356	n/a	n/a	0	n/a	n/a	n/a	n/a	n/a
1466936	REC_WORD	wordpools/wasnorm_wordpool_less_exclusions.txt	LTP208	ltpFR	1	9	0	EGG	518	n/a	n/a	0	n/a	n/a	n/a	n/a	n/a
1470662	REC_WORD	wordpools/wasnorm_wordpool_less_exclusions.txt	LTP208	ltpFR	1	9	0	PAGE	1001	n/a	n/a	0	n/a	n/a	n/a	n/a	n/a
1471750	REC_WORD	wordpools/wasnorm_wordpool_less_exclusions.txt	LTP208	ltpFR	1	9	0	BOOK	149	n/a	n/a	1	n/a	n/a	n/a	n/a	n/a
1475975	REC_WORD	wordpools/wasnorm_wordpool_less_exclusions.txt	LTP208	ltpFR	1	9	0	ESCALATOR	539	n/a	n/a	1	n/a	n/a	n/a	n/a	n/a
1483279	REC_WORD	wordpools/wasnorm_wordpool_less_exclusions.txt	LTP208	ltpFR	1	9	0	STAIRS	1367	n/a	n/a	0	n/a	n/a	n/a	n/a	n/a
1494190	REC_WORD	wordpools/wasnorm_wordpool_less_exclusions.txt	LTP208	ltpFR	1	9	0	TROUT	1511	n/a	n/a	1	n/a	n/a	n/a	n/a	n/a
1502021	REC_WORD	wordpools/wasnorm_wordpool_less_exclusions.txt	LTP208	ltpFR	1	9	1	SERVER	1272	n/a	n/a	1	n/a	n/a	n/a	n/a	n/a
1539104	WORD	wordpools/wasnorm_wordpool_less_exclusions.txt	LTP208	ltpFR	1	10	0	PRUNE	1134	n/a	n/a	3	0.422607421875	0.5869140625	0	upper	zerothre.ttf
1541262	KEY_MSG	n/a	LTP208	ltpFR	1	10	n/a	n/a	n/a	n/a	n/a	n/a	n/a	n/a	n/a	n/a	n/a
1543883	WORD	wordpools/wasnorm_wordpool_less_exclusions.txt	LTP208	ltpFR	1	10	0	PARSLEY	1016	n/a	n/a	0	0.422607421875	0.5869140625	0	upper	zerothre.ttf
1547881	WORD	wordpools/wasnorm_wordpool_less_exclusions.txt	LTP208	ltpFR	1	10	0	THESAURUS	1454	n/a	n/a	1	0.422607421875	0.5869140625	0	upper	zerothre.ttf
1551947	WORD	wordpools/wasnorm_wordpool_less_exclusions.txt	LTP208	ltpFR	1	10	0	DUNE	506	n/a	n/a	1	0.422607421875	0.5869140625	0	upper	zerothre.ttf
1556169	WORD	wordpools/wasnorm_wordpool_less_exclusions.txt	LTP208	ltpFR	1	10	0	ASHTRAY	45	n/a	n/a	0	0.422607421875	0.5869140625	0	upper	zerothre.ttf
1560261	WORD	wordpools/wasnorm_wordpool_less_exclusions.txt	LTP208	ltpFR	1	10	0	TWIN	1528	n/a	n/a	1	0.422607421875	0.5869140625	0	upper	zerothre.ttf
1564243	WORD	wordpools/wasnorm_wordpool_less_exclusions.txt	LTP208	ltpFR	1	10	0	TURKEY	1520	n/a	n/a	1	0.422607421875	0.5869140625	0	upper	zerothre.ttf
1568358	WORD	wordpools/wasnorm_wordpool_less_exclusions.txt	LTP208	ltpFR	1	10	0	NUT	965	n/a	n/a	0	0.422607421875	0.5869140625	0	upper	zerothre.ttf
1572512	WORD	wordpools/wasnorm_wordpool_less_exclusions.txt	LTP208	ltpFR	1	10	0	CONTINENT	367	n/a	n/a	1	0.422607421875	0.5869140625	0	upper	zerothre.ttf
1576461	WORD	wordpools/wasnorm_wordpool_less_exclusions.txt	LTP208	ltpFR	1	10	0	BANDANNA	80	n/a	n/a	0	0.422607421875	0.5869140625	0	upper	zerothre.ttf
1580470	WORD	wordpools/wasnorm_wordpool_less_exclusions.txt	LTP208	ltpFR	1	10	0	CHEST	295	n/a	n/a	0	0.422607421875	0.5869140625	0	upper	zerothre.ttf
1584641	WORD	wordpools/wasnorm_wordpool_less_exclusions.txt	LTP208	ltpFR	1	10	0	CAMEL	223	n/a	n/a	1	0.422607421875	0.5869140625	0	upper	zerothre.ttf
1588500	WORD	wordpools/wasnorm_wordpool_less_exclusions.txt	LTP208	ltpFR	1	10	0	HORIZON	717	n/a	n/a	1	0.422607421875	0.5869140625	0	upper	zerothre.ttf
1592622	WORD	wordpools/wasnorm_wordpool_less_exclusions.txt	LTP208	ltpFR	1	10	0	SUPPER	1411	n/a	n/a	0	0.422607421875	0.5869140625	0	upper	zerothre.ttf
1596486	WORD	wordpools/wasnorm_wordpool_less_exclusions.txt	LTP208	ltpFR	1	10	0	FLANNEL	574	n/a	n/a	1	0.422607421875	0.5869140625	0	upper	zerothre.ttf
1600652	WORD	wordpools/wasnorm_wordpool_less_exclusions.txt	LTP208	ltpFR	1	10	0	VEST	1559	n/a	n/a	0	0.422607421875	0.5869140625	0	upper	zerothre.ttf
1606352	REC_START	n/a	LTP208	ltpFR	1	10	n/a	n/a	n/a	n/a	n/a	n/a	n/a	n/a	n/a	n/a	n/a
1606915	REC_WORD	wordpools/wasnorm_wordpool_less_exclusions.txt	LTP208	ltpFR	1	10	0	VEST	1559	n/a	n/a	0	n/a	n/a	n/a	n/a	n/a
1607550	REC_WORD	wordpools/wasnorm_wordpool_less_exclusions.txt	LTP208	ltpFR	1	10	0	FLANNEL	574	n/a	n/a	1	n/a	n/a	n/a	n/a	n/a
1608761	REC_WORD	wordpools/wasnorm_wordpool_less_exclusions.txt	LTP208	ltpFR	1	10	0	PARSLEY	1016	n/a	n/a	0	n/a	n/a	n/a	n/a	n/a
1615177	REC_WORD	wordpools/wasnorm_wordpool_less_exclusions.txt	LTP208	ltpFR	1	10	n/a	PEA	-1	n/a	n/a	n/a	n/a	n/a	n/a	n/a	n/a
1616943	REC_WORD	wordpools/wasnorm_wordpool_less_exclusions.txt	LTP208	ltpFR	1	10	0	NUT	965	n/a	n/a	0	n/a	n/a	n/a	n/a	n/a
1623992	REC_WORD	wordpools/wasnorm_wordpool_less_exclusions.txt	LTP208	ltpFR	1	10	0	HORIZON	717	n/a	n/a	1	n/a	n/a	n/a	n/a	n/a
1627459	REC_WORD	wordpools/wasnorm_wordpool_less_exclusions.txt	LTP208	ltpFR	1	10	n/a	UNIVERSE	1540	n/a	n/a	n/a	n/a	n/a	n/a	n/a	n/a
1633969	REC_WORD	wordpools/wasnorm_wordpool_less_exclusions.txt	LTP208	ltpFR	1	10	0	VEST	1559	n/a	n/a	0	n/a	n/a	n/a	n/a	n/a
1635595	REC_WORD	wordpools/wasnorm_wordpool_less_exclusions.txt	LTP208	ltpFR	1	10	0	FLANNEL	574	n/a	n/a	1	n/a	n/a	n/a	n/a	n/a
1642520	REC_WORD	wordpools/wasnorm_wordpool_less_exclusions.txt	LTP208	ltpFR	1	10	0	NUT	965	n/a	n/a	0	n/a	n/a	n/a	n/a	n/a
1686793	WORD	wordpools/wasnorm_wordpool_less_exclusions.txt	LTP208	ltpFR	1	11	-1	DEPUTY	450	n/a	n/a	-1	1.0	1.0	1	upper	Verdana.ttf
1690943	WORD	wordpools/wasnorm_wordpool_less_exclusions.txt	LTP208	ltpFR	1	11	-1	OFFICER	973	n/a	n/a	-1	1.0	1.0	1	upper	Verdana.ttf
1695086	WORD	wordpools/wasnorm_wordpool_less_exclusions.txt	LTP208	ltpFR	1	11	-1	FIST	572	n/a	n/a	-1	1.0	1.0	1	upper	Verdana.ttf
1698984	WORD	wordpools/wasnorm_wordpool_less_exclusions.txt	LTP208	ltpFR	1	11	-1	DANDRUFF	439	n/a	n/a	-1	1.0	1.0	1	upper	Verdana.ttf
1703122	WORD	wordpools/wasnorm_wordpool_less_exclusions.txt	LTP208	ltpFR	1	11	-1	LIVER	833	n/a	n/a	-1	1.0	1.0	1	upper	Verdana.ttf
1707048	WORD	wordpools/wasnorm_wordpool_less_exclusions.txt	LTP208	ltpFR	1	11	-1	RAIL	1161	n/a	n/a	-1	1.0	1.0	1	upper	Verdana.ttf
1711102	WORD	wordpools/wasnorm_wordpool_less_exclusions.txt	LTP208	ltpFR	1	11	-1	HIGHWAY	707	n/a	n/a	-1	1.0	1.0	1	upper	Verdana.ttf
1715112	WORD	wordpools/wasnorm_wordpool_less_exclusions.txt	LTP208	ltpFR	1	11	-1	BONE	148	n/a	n/a	-1	1.0	1.0	1	upper	Verdana.ttf
1719277	WORD	wordpools/wasnorm_wordpool_less_exclusions.txt	LTP208	ltpFR	1	11	-1	SPIT	1354	n/a	n/a	-1	1.0	1.0	1	upper	Verdana.ttf
1723108	WORD	wordpools/wasnorm_wordpool_less_exclusions.txt	LTP208	ltpFR	1	11	-1	CORK	380	n/a	n/a	-1	1.0	1.0	1	upper	Verdana.ttf
1727113	WORD	wordpools/wasnorm_wordpool_less_exclusions.txt	LTP208	ltpFR	1	11	-1	RAISIN	1163	n/a	n/a	-1	1.0	1.0	1	upper	Verdana.ttf
1730955	WORD	wordpools/wasnorm_wordpool_less_exclusions.txt	LTP208	ltpFR	1	11	-1	KNUCKLE	789	n/a	n/a	-1	1.0	1.0	1	upper	Verdana.ttf
1734976	WORD	wordpools/wasnorm_wordpool_less_exclusions.txt	LTP208	ltpFR	1	11	-1	INTESTINE	742	n/a	n/a	-1	1.0	1.0	1	upper	Verdana.ttf
1738918	WORD	wordpools/wasnorm_wordpool_less_exclusions.txt	LTP208	ltpFR	1	11	-1	KLEENEX	782	n/a	n/a	-1	1.0	1.0	1	upper	Verdana.ttf
1742950	WORD	wordpools/wasnorm_wordpool_less_exclusions.txt	LTP208	ltpFR	1	11	-1	CREATURE	403	n/a	n/a	-1	1.0	1.0	1	upper	Verdana.ttf
1747099	WORD	wordpools/wasnorm_wordpool_less_exclusions.txt	LTP208	ltpFR	1	11	-1	TIDE	1465	n/a	n/a	-1	1.0	1.0	1	upper	Verdana.ttf
1752938	REC_START	n/a	LTP208	ltpFR	1	11	n/a	n/a	n/a	n/a	n/a	n/a	n/a	n/a	n/a	n/a	n/a
1754005	REC_WORD	wordpools/wasnorm_wordpool_less_exclusions.txt	LTP208	ltpFR	1	11	-1	TIDE	1465	n/a	n/a	-1	n/a	n/a	n/a	n/a	n/a
1754734	REC_WORD	wordpools/wasnorm_wordpool_less_exclusions.txt	LTP208	ltpFR	1	11	-1	DEPUTY	450	n/a	n/a	-1	n/a	n/a	n/a	n/a	n/a
1755612	REC_WORD	wordpools/wasnorm_wordpool_less_exclusions.txt	LTP208	ltpFR	1	11	-1	OFFICER	973	n/a	n/a	-1	n/a	n/a	n/a	n/a	n/a
1756760	REC_WORD_VV	wordpools/wasnorm_wordpool_less_exclusions.txt	LTP208	ltpFR	1	11	n/a	<>	-1	n/a	n/a	n/a	n/a	n/a	n/a	n/a	n/a
1757312	REC_WORD	wordpools/wasnorm_wordpool_less_exclusions.txt	LTP208	ltpFR	1	11	-1	FIST	572	n/a	n/a	-1	n/a	n/a	n/a	n/a	n/a
1758307	REC_WORD	wordpools/wasnorm_wordpool_less_exclusions.txt	LTP208	ltpFR	1	11	-1	BONE	148	n/a	n/a	-1	n/a	n/a	n/a	n/a	n/a
1759174	REC_WORD	wordpools/wasnorm_wordpool_less_exclusions.txt	LTP208	ltpFR	1	11	-1	INTESTINE	742	n/a	n/a	-1	n/a	n/a	n/a	n/a	n/a
1760675	REC_WORD	wordpools/wasnorm_wordpool_less_exclusions.txt	LTP208	ltpFR	1	11	-1	CREATURE	403	n/a	n/a	-1	n/a	n/a	n/a	n/a	n/a
1762769	REC_WORD	wordpools/wasnorm_wordpool_less_exclusions.txt	LTP208	ltpFR	1	11	-1	SPIT	1354	n/a	n/a	-1	n/a	n/a	n/a	n/a	n/a
1774484	REC_WORD	wordpools/wasnorm_wordpool_less_exclusions.txt	LTP208	ltpFR	1	11	-1	BONE	148	n/a	n/a	-1	n/a	n/a	n/a	n/a	n/a
1780450	REC_WORD	wordpools/wasnorm_wordpool_less_exclusions.txt	LTP208	ltpFR	1	11	-1	KLEENEX	782	n/a	n/a	-1	n/a	n/a	n/a	n/a	n/a
1822985	REC_WORD	wordpools/wasnorm_wordpool_less_exclusions.txt	LTP208	ltpFR	1	11	-1	FIST	572	n/a	n/a	-1	n/a	n/a	n/a	n/a	n/a
1833391	WORD	wordpools/wasnorm_wordpool_less_exclusions.txt	LTP208	ltpFR	1	12	1	RAG	1160	n/a	n/a	0	0.57763671875	0.412841796875	1	lower	amplitud.ttf
1837461	WORD	wordpools/wasnorm_wordpool_less_exclusions.txt	LTP208	ltpFR	1	12	1	VAGRANT	1544	n/a	n/a	0	0.57763671875	0.412841796875	1	lower	amplitud.ttf
1841409	WORD	wordpools/wasnorm_wordpool_less_exclusions.txt	LTP208	ltpFR	1	12	1	MAN	862	n/a	n/a	1	0.57763671875	0.412841796875	1	lower	amplitud.ttf
1845424	WORD	wordpools/wasnorm_wordpool_less_exclusions.txt	LTP208	ltpFR	1	12	1	TOY	1492	n/a	n/a	0	0.57763671875	0.412841796875	1	lower	amplitud.ttf
1849607	WORD	wordpools/wasnorm_wordpool_less_exclusions.txt	LTP208	ltpFR	1	12	0	PENNY	1045	n/a	n/a	0	0.422607421875	0.5869140625	0	upper	zerothre.ttf
1853722	WORD	wordpools/wasnorm_wordpool_less_exclusions.txt	LTP208	ltpFR	1	12	0	DESIGNER	451	n/a	n/a	1	0.422607421875	0.5869140625	0	upper	zerothre.ttf
1857771	WORD	wordpools/wasnorm_wordpool_less_exclusions.txt	LTP208	ltpFR	1	12	0	BARREL	91	n/a	n/a	1	0.422607421875	0.5869140625	0	upper	zerothre.ttf
1861686	WORD	wordpools/wasnorm_wordpool_less_exclusions.txt	LTP208	ltpFR	1	12	0	SAUSAGE	1238	n/a	n/a	0	0.422607421875	0.5869140625	0	upper	zerothre.ttf
1865869	WORD	wordpools/wasnorm_wordpool_less_exclusions.txt	LTP208	ltpFR	1	12	1	CHALK	276	n/a	n/a	0	0.57763671875	0.412841796875	1	lower	amplitud.ttf
1869783	WORD	wordpools/wasnorm_wordpool_less_exclusions.txt	LTP208	ltpFR	1	12	1	PARENT	1013	n/a	n/a	1	0.57763671875	0.412841796875	1	lower	amplitud.ttf
1873748	WORD	wordpools/wasnorm_wordpool_less_exclusions.txt	LTP208	ltpFR	1	12	0	WAREHOUSE	1588	n/a	n/a	1	0.422607421875	0.5869140625	0	upper	zerothre.ttf
1877662	WORD	wordpools/wasnorm_wordpool_less_exclusions.txt	LTP208	ltpFR	1	12	0	BOX	159	n/a	n/a	0	0.422607421875	0.5869140625	0	upper	zerothre.ttf
1881772	WORD	wordpools/wasnorm_wordpool_less_exclusions.txt	LTP208	ltpFR	1	12	0	RAZOR	1171	n/a	n/a	0	0.422607421875	0.5869140625	0	upper	zerothre.ttf
1885709	WORD	wordpools/wasnorm_wordpool_less_exclusions.txt	LTP208	ltpFR	1	12	0	BANK	83	n/a	n/a	1	0.422607421875	0.5869140625	0	upper	zerothre.ttf
1889607	WORD	wordpools/wasnorm_wordpool_less_exclusions.txt	LTP208	ltpFR	1	12	1	CROW	414	n/a	n/a	1	0.57763671875	0.412841796875	1	lower	amplitud.ttf
1893656	WORD	wordpools/wasnorm_wordpool_less_exclusions.txt	LTP208	ltpFR	1	12	1	SEAGULL	1261	n/a	n/a	1	0.57763671875	0.412841796875	1	lower	amplitud.ttf
1899373	REC_START	n/a	LTP208	ltpFR	1	12	n/a	n/a	n/a	n/a	n/a	n/a	n/a	n/a	n/a	n/a	n/a
1899991	REC_WORD	wordpools/wasnorm_wordpool_less_exclusions.txt	LTP208	ltpFR	1	12	1	CROW	414	n/a	n/a	1	n/a	n/a	n/a	n/a	n/a
1900910	REC_WORD	wordpools/wasnorm_wordpool_less_exclusions.txt	LTP208	ltpFR	1	12	1	SEAGULL	1261	n/a	n/a	1	n/a	n/a	n/a	n/a	n/a
1902546	REC_WORD	wordpools/wasnorm_wordpool_less_exclusions.txt	LTP208	ltpFR	1	12	1	PARENT	1013	n/a	n/a	1	n/a	n/a	n/a	n/a	n/a
1905072	REC_WORD_VV	wordpools/wasnorm_wordpool_less_exclusions.txt	LTP208	ltpFR	1	12	n/a	<>	-1	n/a	n/a	n/a	n/a	n/a	n/a	n/a	n/a
1908213	REC_WORD	wordpools/wasnorm_wordpool_less_exclusions.txt	LTP208	ltpFR	1	12	1	CROW	414	n/a	n/a	1	n/a	n/a	n/a	n/a	n/a
1924009	REC_WORD	wordpools/wasnorm_wordpool_less_exclusions.txt	LTP208	ltpFR	1	12	0	PENNY	1045	n/a	n/a	0	n/a	n/a	n/a	n/a	n/a
1927429	REC_WORD	wordpools/wasnorm_wordpool_less_exclusions.txt	LTP208	ltpFR	1	12	1	CHALK	276	n/a	n/a	0	n/a	n/a	n/a	n/a	n/a
1931627	REC_WORD	wordpools/wasnorm_wordpool_less_exclusions.txt	LTP208	ltpFR	1	12	1	VAGRANT	1544	n/a	n/a	0	n/a	n/a	n/a	n/a	n/a
1932857	REC_WORD	wordpools/wasnorm_wordpool_less_exclusions.txt	LTP208	ltpFR	1	12	1	PARENT	1013	n/a	n/a	1	n/a	n/a	n/a	n/a	n/a
1975014	REST_REWET	n/a	LTP208	ltpFR	1	12	n/a	n/a	n/a	n/a	n/a	n/a	n/a	n/a	n/a	n/a	n/a
2202821	WORD	wordpools/wasnorm_wordpool_less_exclusions.txt	LTP208	ltpFR	1	13	-1	BLOSSOM	138	n/a	n/a	-1	1.0	1.0	1	upper	Verdana.ttf
2207015	WORD	wordpools/wasnorm_wordpool_less_exclusions.txt	LTP208	ltpFR	1	13	-1	COCKTAIL	338	n/a	n/a	-1	1.0	1.0	1	upper	Verdana.ttf
2211153	WORD	wordpools/wasnorm_wordpool_less_exclusions.txt	LTP208	ltpFR	1	13	-1	LITERATURE	831	n/a	n/a	-1	1.0	1.0	1	upper	Verdana.ttf
2215302	WORD	wordpools/wasnorm_wordpool_less_exclusions.txt	LTP208	ltpFR	1	13	-1	TOWN	1491	n/a	n/a	-1	1.0	1.0	1	upper	Verdana.ttf
2219484	WORD	wordpools/wasnorm_wordpool_less_exclusions.txt	LTP208	ltpFR	1	13	-1	FIDDLE	561	n/a	n/a	-1	1.0	1.0	1	upper	Verdana.ttf
2223549	WORD	wordpools/wasnorm_wordpool_less_exclusions.txt	LTP208	ltpFR	1	13	-1	TUB	1514	n/a	n/a	-1	1.0	1.0	1	upper	Verdana.ttf
2227398	WORD	wordpools/wasnorm_wordpool_less_exclusions.txt	LTP208	ltpFR	1	13	-1	SNORKEL	1336	n/a	n/a	-1	1.0	1.0	1	upper	Verdana.ttf
2231263	WORD	wordpools/wasnorm_wordpool_less_exclusions.txt	LTP208	ltpFR	1	13	-1	LEAF	808	n/a	n/a	-1	1.0	1.0	1	upper	Verdana.ttf
2235205	WORD	wordpools/wasnorm_wordpool_less_exclusions.txt	LTP208	ltpFR	1	13	-1	LOG	841	n/a	n/a	-1	1.0	1.0	1	upper	Verdana.ttf
2239042	WORD	wordpools/wasnorm_wordpool_less_exclusions.txt	LTP208	ltpFR	1	13	-1	ASSOCIATE	49	n/a	n/a	-1	1.0	1.0	1	upper	Verdana.ttf
2242890	WORD	wordpools/wasnorm_wordpool_less_exclusions.txt	LTP208	ltpFR	1	13	-1	JUG	762	n/a	n/a	-1	1.0	1.0	1	upper	Verdana.ttf
2246871	WORD	wordpools/wasnorm_wordpool_less_exclusions.txt	LTP208	ltpFR	1	13	-1	WEED	1599	n/a	n/a	-1	1.0	1.0	1	upper	Verdana.ttf
2250802	WORD	wordpools/wasnorm_wordpool_less_exclusions.txt	LTP208	ltpFR	1	13	-1	HOUSE	725	n/a	n/a	-1	1.0	1.0	1	upper	Verdana.ttf
2254902	WORD	wordpools/wasnorm_wordpool_less_exclusions.txt	LTP208	ltpFR	1	13	-1	PORCH	1106	n/a	n/a	-1	1.0	1.0	1	upper	Verdana.ttf
2258832	WORD	wordpools/wasnorm_wordpool_less_exclusions.txt	LTP208	ltpFR	1	13	-1	VEAL	1551	n/a	n/a	-1	1.0	1.0	1	upper	Verdana.ttf
2263032	WORD	wordpools/wasnorm_wordpool_less_exclusions.txt	LTP208	ltpFR	1	13	-1	CONCERT	360	n/a	n/a	-1	1.0	1.0	1	upper	Verdana.ttf
2268872	REC_START	n/a	LTP208	ltpFR	1	13	n/a	n/a	n/a	n/a	n/a	n/a	n/a	n/a	n/a	n/a	n/a
2269410	REC_WORD	wordpools/wasnorm_wordpool_less_exclusions.txt	LTP208	ltpFR	1	13	-1	CONCERT	360	n/a	n/a	-1	n/a	n/a	n/a	n/a	n/a
2270217	REC_WORD	wordpools/wasnorm_wordpool_less_exclusions.txt	LTP208	ltpFR	1	13	-1	VEAL	1551	n/a	n/a	-1	n/a	n/a	n/a	n/a	n/a
2270882	REC_WORD	wordpools/wasnorm_wordpool_less_exclusions.txt	LTP208	ltpFR	1	13	-1	LEAF	808	n/a	n/a	-1	n/a	n/a	n/a	n/a	n/a
2271590	REC_WORD	wordpools/wasnorm_wordpool_less_exclusions.txt	LTP208	ltpFR	1	13	-1	HOUSE	725	n/a	n/a	-1	n/a	n/a	n/a	n/a	n/a
2272788	REC_WORD	wordpools/wasnorm_wordpool_less_exclusions.txt	LTP208	ltpFR	1	13	-1	WEED	1599	n/a	n/a	-1	n/a	n/a	n/a	n/a	n/a
2273960	REC_WORD	wordpools/wasnorm_wordpool_less_exclusions.txt	LTP208	ltpFR	1	13	n/a	GARDEN	623	n/a	n/a	n/a	n/a	n/a	n/a	n/a	n/a
2276410	REC_WORD	wordpools/wasnorm_wordpool_less_exclusions.txt	LTP208	ltpFR	1	13	-1	COCKTAIL	338	n/a	n/a	-1	n/a	n/a	n/a	n/a	n/a
2278864	REC_WORD	wordpools/wasnorm_wordpool_less_exclusions.txt	LTP208	ltpFR	1	13	n/a	BATH	98	n/a	n/a	n/a	n/a	n/a	n/a	n/a	n/a
2280226	REC_WORD	wordpools/wasnorm_wordpool_less_exclusions.txt	LTP208	ltpFR	1	13	-1	JUG	762	n/a	n/a	-1	n/a	n/a	n/a	n/a	n/a
2284706	REC_WORD	wordpools/wasnorm_wordpool_less_exclusions.txt	LTP208	ltpFR	1	13	n/a	CONTRACTOR	369	n/a	n/a	n/a	n/a	n/a	n/a	n/a	n/a
2287290	REC_WORD	wordpools/wasnorm_wordpool_less_exclusions.txt	LTP208	ltpFR	1	13	n/a	CONDUCTOR	362	n/a	n/a	n/a	n/a	n/a	n/a	n/a	n/a
2292573	REC_WORD	wordpools/wasnorm_wordpool_less_exclusions.txt	LTP208	ltpFR	1	13	-1	PORCH	1106	n/a	n/a	-1	n/a	n/a	n/a	n/a	n/a
2296071	REC_WORD	wordpools/wasnorm_wordpool_less_exclusions.txt	LTP208	ltpFR	1	13	n/a	GARDEN	623	n/a	n/a	n/a	n/a	n/a	n/a	n/a	n/a
2348815	WORD	wordpools/wasnorm_wordpool_less_exclusions.txt	LTP208	ltpFR	1	14	1	CROCODILE	411	n/a	n/a	2	0.57763671875	0.412841796875	1	lower	amplitud.ttf
2350913	KEY_MSG	n/a	LTP208	ltpFR	1	14	n/a	n/a	n/a	n/a	n/a	n/a	n/a	n/a	n/a	n/a	n/a
2353589	WORD	wordpools/wasnorm_wordpool_less_exclusions.txt	LTP208	ltpFR	1	14	1	REPORT	1184	n/a	n/a	0	0.57763671875	0.412841796875	1	lower	amplitud.ttf
2357504	WORD	wordpools/wasnorm_wordpool_less_exclusions.txt	LTP208	ltpFR	1	14	1	WRENCH	1625	n/a	n/a	0	0.57763671875	0.412841796875	1	lower	amplitud.ttf
2361502	WORD	wordpools/wasnorm_wordpool_less_exclusions.txt	LTP208	ltpFR	1	14	1	COLLEGE	346	n/a	n/a	0	0.57763671875	0.412841796875	1	lower	amplitud.ttf
2365401	WORD	wordpools/wasnorm_wordpool_less_exclusions.txt	LTP208	ltpFR	1	14	1	PEARL	1034	n/a	n/a	0	0.57763671875	0.412841796875	1	lower	amplitud.ttf
2369432	WORD	wordpools/wasnorm_wordpool_less_exclusions.txt	LTP208	ltpFR	1	14	1	EMERALD	528	n/a	n/a	0	0.57763671875	0.412841796875	1	lower	amplitud.ttf
2373414	WORD	wordpools/wasnorm_wordpool_less_exclusions.txt	LTP208	ltpFR	1	14	1	BUILDING	191	n/a	n/a	0	0.57763671875	0.412841796875	1	lower	amplitud.ttf
2377490	WORD	wordpools/wasnorm_wordpool_less_exclusions.txt	LTP208	ltpFR	1	14	1	SUBURB	1399	n/a	n/a	0	0.57763671875	0.412841796875	1	lower	amplitud.ttf
2381595	WORD	wordpools/wasnorm_wordpool_less_exclusions.txt	LTP208	ltpFR	1	14	1	CLIPPERS	324	n/a	n/a	0	0.57763671875	0.412841796875	1	lower	amplitud.ttf
2385593	WORD	wordpools/wasnorm_wordpool_less_exclusions.txt	LTP208	ltpFR	1	14	1	SQUID	1361	n/a	n/a	1	0.57763671875	0.412841796875	1	lower	amplitud.ttf
2389709	WORD	wordpools/wasnorm_wordpool_less_exclusions.txt	LTP208	ltpFR	1	14	1	SCAPEGOAT	1244	n/a	n/a	1	0.57763671875	0.412841796875	1	lower	amplitud.ttf
2393584	WORD	wordpools/wasnorm_wordpool_less_exclusions.txt	LTP208	ltpFR	1	14	1	PAPER	1011	n/a	n/a	0	0.57763671875	0.412841796875	1	lower	amplitud.ttf
2397599	WORD	wordpools/wasnorm_wordpool_less_exclusions.txt	LTP208	ltpFR	1	14	1	TEACHER	1440	n/a	n/a	1	0.57763671875	0.412841796875	1	lower	amplitud.ttf
2401704	WORD	wordpools/wasnorm_wordpool_less_exclusions.txt	LTP208	ltpFR	1	14	1	CARPENTER	246	n/a	n/a	1	0.57763671875	0.412841796875	1	lower	amplitud.ttf
2405904	WORD	wordpools/wasnorm_wordpool_less_exclusions.txt	LTP208	ltpFR	1	14	1	TOOL	1480	n/a	n/a	0	0.57763671875	0.412841796875	1	lower	amplitud.ttf
2409886	WORD	wordpools/wasnorm_wordpool_less_exclusions.txt	LTP208	ltpFR	1	14	1	MOAT	903	n/a	n/a	0	0.57763671875	0.412841796875	1	lower	amplitud.ttf
2415574	REC_START	n/a	LTP208	ltpFR	1	14	n/a	n/a	n/a	n/a	n/a	n/a	n/a	n/a	n/a	n/a	n/a
2416242	REC_WORD	wordpools/wasnorm_wordpool_less_exclusions.txt	LTP208	ltpFR	1	14	1	TEACHER	1440	n/a	n/a	1	n/a	n/a	n/a	n/a	n/a
2417130	REC_WORD	wordpools/wasnorm_wordpool_less_exclusions.txt	LTP208	ltpFR	1	14	1	CARPENTER	246	n/a	n/a	1	n/a	n/a	n/a	n/a	n/a
2418108	REC_WORD	wordpools/wasnorm_wordpool_less_exclusions.txt	LTP208	ltpFR	1	14	1	MOAT	903	n/a	n/a	0	n/a	n/a	n/a	n/a	n/a
2419250	REC_WORD	wordpools/wasnorm_wordpool_less_exclusions.txt	LTP208	ltpFR	1	14	1	TOOL	1480	n/a	n/a	0	n/a	n/a	n/a	n/a	n/a
2421984	REC_WORD	wordpools/wasnorm_wordpool_less_exclusions.txt	LTP208	ltpFR	1	14	n/a	PENCIL	1042	n/a	n/a	n/a	n/a	n/a	n/a	n/a	n/a
2426739	REC_WORD_VV	wordpools/wasnorm_wordpool_less_exclusions.txt	LTP208	ltpFR	1	14	n/a	<>	-1	n/a	n/a	n/a	n/a	n/a	n/a	n/a	n/a
2437669	REC_WORD	wordpools/wasnorm_wordpool_less_exclusions.txt	LTP208	ltpFR	1	14	1	TOOL	1480	n/a	n/a	0	n/a	n/a	n/a	n/a	n/a
2440662	REC_WORD	wordpools/wasnorm_wordpool_less_exclusions.txt	LTP208	ltpFR	1	14	1	WRENCH	1625	n/a	n/a	0	n/a	n/a	n/a	n/a	n/a
2444972	REC_WORD	wordpools/wasnorm_wordpool_less_exclusions.txt	LTP208	ltpFR	1	14	1	MOAT	903	n/a	n/a	0	n/a	n/a	n/a	n/a	n/a
2480702	REC_WORD	wordpools/wasnorm_wordpool_less_exclusions.txt	LTP208	ltpFR	1	14	-1	VEAL	1551	n/a	n/a	-1	n/a	n/a	n/a	n/a	n/a
2498502	WORD	wordpools/wasnorm_wordpool_less_exclusions.txt	LTP208	ltpFR	1	15	0	BROOK	177	n/a	n/a	1	0.422607421875	0.5869140625	0	upper	zerothre.ttf
2502484	WORD	wordpools/wasnorm_wordpool_less_exclusions.txt	LTP208	ltpFR	1	15	0	DAM	436	n/a	n/a	1	0.422607421875	0.5869140625	0	upper	zerothre.ttf
2506360	WORD	wordpools/wasnorm_wordpool_less_exclusions.txt	LTP208	ltpFR	1	15	0	MAILMAN	858	n/a	n/a	1	0.422607421875	0.5869140625	0	upper	zerothre.ttf
2510331	WORD	wordpools/wasnorm_wordpool_less_exclusions.txt	LTP208	ltpFR	1	15	0	CLAW	319	n/a	n/a	0	0.422607421875	0.5869140625	0	upper	zerothre.ttf
2514506	WORD	wordpools/wasnorm_wordpool_less_exclusions.txt	LTP208	ltpFR	1	15	0	LOBSTER	837	n/a	n/a	0	0.422607421875	0.5869140625	0	upper	zerothre.ttf
2518477	WORD	wordpools/wasnorm_wordpool_less_exclusions.txt	LTP208	ltpFR	1	15	0	FIN	566	n/a	n/a	0	0.422607421875	0.5869140625	0	upper	zerothre.ttf
2522393	WORD	wordpools/wasnorm_wordpool_less_exclusions.txt	LTP208	ltpFR	1	15	0	BUFFALO	186	n/a	n/a	1	0.422607421875	0.5869140625	0	upper	zerothre.ttf
2526385	WORD	wordpools/wasnorm_wordpool_less_exclusions.txt	LTP208	ltpFR	1	15	0	PARCEL	1012	n/a	n/a	0	0.422607421875	0.5869140625	0	upper	zerothre.ttf
2530489	WORD	wordpools/wasnorm_wordpool_less_exclusions.txt	LTP208	ltpFR	1	15	0	IRON	744	n/a	n/a	0	0.422607421875	0.5869140625	0	upper	zerothre.ttf
2534388	WORD	wordpools/wasnorm_wordpool_less_exclusions.txt	LTP208	ltpFR	1	15	0	HOUND	724	n/a	n/a	0	0.422607421875	0.5869140625	0	upper	zerothre.ttf
2538320	WORD	wordpools/wasnorm_wordpool_less_exclusions.txt	LTP208	ltpFR	1	15	0	BOXER	160	n/a	n/a	1	0.422607421875	0.5869140625	0	upper	zerothre.ttf
2542279	WORD	wordpools/wasnorm_wordpool_less_exclusions.txt	LTP208	ltpFR	1	15	0	FIREPLACE	570	n/a	n/a	1	0.422607421875	0.5869140625	0	upper	zerothre.ttf
2546294	WORD	wordpools/wasnorm_wordpool_less_exclusions.txt	LTP208	ltpFR	1	15	0	LIGHTER	819	n/a	n/a	0	0.422607421875	0.5869140625	0	upper	zerothre.ttf
2550248	WORD	wordpools/wasnorm_wordpool_less_exclusions.txt	LTP208	ltpFR	1	15	0	KIDNEY	776	n/a	n/a	0	0.422607421875	0.5869140625	0	upper	zerothre.ttf
2554446	WORD	wordpools/wasnorm_wordpool_less_exclusions.txt	LTP208	ltpFR	1	15	0	ARTICLE	42	n/a	n/a	0	0.422607421875	0.5869140625	0	upper	zerothre.ttf
2558395	WORD	wordpools/wasnorm_wordpool_less_exclusions.txt	LTP208	ltpFR	1	15	0	TUNA	1518	n/a	n/a	0	0.422607421875	0.5869140625	0	upper	zerothre.ttf
2564512	REC_START	n/a	LTP208	ltpFR	1	15	n/a	n/a	n/a	n/a	n/a	n/a	n/a	n/a	n/a	n/a	n/a
2565549	REC_WORD	wordpools/wasnorm_wordpool_less_exclusions.txt	LTP208	ltpFR	1	15	0	TUNA	1518	n/a	n/a	0	n/a	n/a	n/a	n/a	n/a
2566472	REC_WORD	wordpools/wasnorm_wordpool_less_exclusions.txt	LTP208	ltpFR	1	15	n/a	POSTMAN	-1	n/a	n/a	n/a	n/a	n/a	n/a	n/a	n/a
2567380	REC_WORD	wordpools/wasnorm_wordpool_less_exclusions.txt	LTP208	ltpFR	1	15	0	PARCEL	1012	n/a	n/a	0	n/a	n/a	n/a	n/a	n/a
2568702	REC_WORD	wordpools/wasnorm_wordpool_less_exclusions.txt	LTP208	ltpFR	1	15	0	ARTICLE	42	n/a	n/a	0	n/a	n/a	n/a	n/a	n/a
2572607	REC_WORD_VV	wordpools/wasnorm_wordpool_less_exclusions.txt	LTP208	ltpFR	1	15	n/a	<>	-1	n/a	n/a	n/a	n/a	n/a	n/a	n/a	n/a
2578794	REC_WORD	wordpools/wasnorm_wordpool_less_exclusions.txt	LTP208	ltpFR	1	15	0	TUNA	1518	n/a	n/a	0	n/a	n/a	n/a	n/a	n/a
2593358	REC_WORD_VV	wordpools/wasnorm_wordpool_less_exclusions.txt	LTP208	ltpFR	1	15	n/a	<>	-1	n/a	n/a	n/a	n/a	n/a	n/a	n/a	n/a
2596220	REC_WORD	wordpools/wasnorm_wordpool_less_exclusions.txt	LTP208	ltpFR	1	15	0	ELK	526	n/a	n/a	1	n/a	n/a	n/a	n/a	n/a
2597064	REC_WORD	wordpools/wasnorm_wordpool_less_exclusions.txt	LTP208	ltpFR	1	15	0	BUFFALO	186	n/a	n/a	1	n/a	n/a	n/a	n/a	n/a
2609165	REC_WORD	wordpools/wasnorm_wordpool_less_exclusions.txt	LTP208	ltpFR	1	15	n/a	THIN	-1	n/a	n/a	n/a	n/a	n/a	n/a	n/a	n/a
2617151	REC_WORD	wordpools/wasnorm_wordpool_less_exclusions.txt	LTP208	ltpFR	1	15	1	FLIPPER	580	n/a	n/a	1	n/a	n/a	n/a	n/a	n/a
2645684	WORD	wordpools/wasnorm_wordpool_less_exclusions.txt	LTP208	ltpFR	1	16	0	WORKER	1621	n/a	n/a	1	0.422607421875	0.5869140625	0	upper	zerothre.ttf
2649571	WORD	wordpools/wasnorm_wordpool_less_exclusions.txt	LTP208	ltpFR	1	16	0	MANAGER	863	n/a	n/a	1	0.422607421875	0.5869140625	0	upper	zerothre.ttf
2653681	WORD	wordpools/wasnorm_wordpool_less_exclusions.txt	LTP208	ltpFR	1	16	1	HEAD	695	n/a	n/a	1	0.57763671875	0.412841796875	1	lower	amplitud.ttf
2657685	WORD	wordpools/wasnorm_wordpool_less_exclusions.txt	LTP208	ltpFR	1	16	1	SHEPHERD	1283	n/a	n/a	1	0.57763671875	0.412841796875	1	lower	amplitud.ttf
2661778	WORD	wordpools/wasnorm_wordpool_less_exclusions.txt	LTP208	ltpFR	1	16	1	BISCUIT	130	n/a	n/a	0	0.57763671875	0.412841796875	1	lower	amplitud.ttf
2665732	WORD	wordpools/wasnorm_wordpool_less_exclusions.txt	LTP208	ltpFR	1	16	1	CRYSTAL	418	n/a	n/a	0	0.57763671875	0.412841796875	1	lower	amplitud.ttf
2669647	WORD	wordpools/wasnorm_wordpool_less_exclusions.txt	LTP208	ltpFR	1	16	0	BOWL	158	n/a	n/a	0	0.422607421875	0.5869140625	0	upper	zerothre.ttf
2673813	WORD	wordpools/wasnorm_wordpool_less_exclusions.txt	LTP208	ltpFR	1	16	0	PERSONNEL	1053	n/a	n/a	1	0.422607421875	0.5869140625	0	upper	zerothre.ttf
2677963	WORD	wordpools/wasnorm_wordpool_less_exclusions.txt	LTP208	ltpFR	1	16	0	NAPKIN	937	n/a	n/a	1	0.422607421875	0.5869140625	0	upper	zerothre.ttf
2681972	WORD	wordpools/wasnorm_wordpool_less_exclusions.txt	LTP208	ltpFR	1	16	0	NOTEBOOK	959	n/a	n/a	0	0.422607421875	0.5869140625	0	upper	zerothre.ttf
2685893	WORD	wordpools/wasnorm_wordpool_less_exclusions.txt	LTP208	ltpFR	1	16	1	RAM	1165	n/a	n/a	1	0.57763671875	0.412841796875	1	lower	amplitud.ttf
2690119	WORD	wordpools/wasnorm_wordpool_less_exclusions.txt	LTP208	ltpFR	1	16	1	COMMUNITY	356	n/a	n/a	3	0.57763671875	0.412841796875	1	lower	amplitud.ttf
2691580	KEY_MSG	n/a	LTP208	ltpFR	1	16	n/a	n/a	n/a	n/a	n/a	n/a	n/a	n/a	n/a	n/a	n/a
2693973	WORD	wordpools/wasnorm_wordpool_less_exclusions.txt	LTP208	ltpFR	1	16	1	PEANUT	1032	n/a	n/a	0	0.57763671875	0.412841796875	1	lower	amplitud.ttf
2698083	WORD	wordpools/wasnorm_wordpool_less_exclusions.txt	LTP208	ltpFR	1	16	1	EAR	513	n/a	n/a	1	0.57763671875	0.412841796875	1	lower	amplitud.ttf
2701987	WORD	wordpools/wasnorm_wordpool_less_exclusions.txt	LTP208	ltpFR	1	16	0	CROWN	415	n/a	n/a	1	0.422607421875	0.5869140625	0	upper	zerothre.ttf
2705850	WORD	wordpools/wasnorm_wordpool_less_exclusions.txt	LTP208	ltpFR	1	16	0	HUT	729	n/a	n/a	1	0.422607421875	0.5869140625	0	upper	zerothre.ttf
2711757	REC_START	n/a	LTP208	ltpFR	1	16	n/a	n/a	n/a	n/a	n/a	n/a	n/a	n/a	n/a	n/a	n/a
2712660	REC_WORD	wordpools/wasnorm_wordpool_less_exclusions.txt	LTP208	ltpFR	1	16	0	HUT	729	n/a	n/a	1	n/a	n/a	n/a	n/a	n/a
2718143	REC_WORD_VV	wordpools/wasnorm_wordpool_less_exclusions.txt	LTP208	ltpFR	1	16	n/a	<>	-1	n/a	n/a	n/a	n/a	n/a	n/a	n/a	n/a
2725306	REC_WORD	wordpools/wasnorm_wordpool_less_exclusions.txt	LTP208	ltpFR	1	16	0	CROWN	415	n/a	n/a	1	n/a	n/a	n/a	n/a	n/a
2733170	REC_WORD_VV	wordpools/wasnorm_wordpool_less_exclusions.txt	LTP208	ltpFR	1	16	n/a	<>	-1	n/a	n/a	n/a	n/a	n/a	n/a	n/a	n/a
2734924	REC_WORD	wordpools/wasnorm_wordpool_less_exclusions.txt	LTP208	ltpFR	1	16	n/a	COTTAGE	384	n/a	n/a	n/a	n/a	n/a	n/a	n/a	n/a
2742043	REC_WORD	wordpools/wasnorm_wordpool_less_exclusions.txt	LTP208	ltpFR	1	16	n/a	CREAM	402	n/a	n/a	n/a	n/a	n/a	n/a	n/a	n/a
2750868	REC_WORD	wordpools/wasnorm_wordpool_less_exclusions.txt	LTP208	ltpFR	1	16	1	COMMUNITY	356	n/a	n/a	3	n/a	n/a	n/a	n/a	n/a
2757089	REC_WORD	wordpools/wasnorm_wordpool_less_exclusions.txt	LTP208	ltpFR	1	16	1	PEARL	1034	n/a	n/a	0	n/a	n/a	n/a	n/a	n/a
2758501	REC_WORD	wordpools/wasnorm_wordpool_less_exclusions.txt	LTP208	ltpFR	1	16	1	EMERALD	528	n/a	n/a	0	n/a	n/a	n/a	n/a	n/a
2862592	REC_START	n/a	LTP208	ltpFR	1	1	n/a	n/a	n/a	n/a	n/a	n/a	n/a	n/a	n/a	n/a	n/a
2862641	RECOG_TARGET	n/a	LTP208	ltpFR	1	1	1	COUSIN	392	1	5	1	n/a	n/a	n/a	n/a	n/a
2864602	RECOG_RESP	n/a	LTP208	ltpFR	1	1	1	COUSIN	392	1	n/a	1	n/a	n/a	n/a	n/a	n/a
2865979	RECOG_CONF	n/a	LTP208	ltpFR	1	1	1	COUSIN	392	n/a	5	1	n/a	n/a	n/a	n/a	n/a
2867912	RECOG_LURE	n/a	LTP208	ltpFR	1	1	n/a	BOUILLON	154	0	4	n/a	n/a	n/a	n/a	n/a	n/a
2869581	RECOG_RESP	n/a	LTP208	ltpFR	1	1	n/a	BOUILLON	154	0	n/a	n/a	n/a	n/a	n/a	n/a	n/a
2870998	RECOG_CONF	n/a	LTP208	ltpFR	1	1	n/a	BOUILLON	154	n/a	4	n/a	n/a	n/a	n/a	n/a	n/a
2872572	RECOG_LURE	n/a	LTP208	ltpFR	1	1	n/a	JELLY	755	0	4	n/a	n/a	n/a	n/a	n/a	n/a
2874151	RECOG_RESP	n/a	LTP208	ltpFR	1	1	n/a	JELLY	755	0	n/a	n/a	n/a	n/a	n/a	n/a	n/a
2875248	RECOG_CONF	n/a	LTP208	ltpFR	1	1	n/a	JELLY	755	n/a	4	n/a	n/a	n/a	n/a	n/a	n/a
2876577	RECOG_TARGET	n/a	LTP208	ltpFR	1	1	-1	PLANT	1083	1	5	-1	n/a	n/a	n/a	n/a	n/a
2878426	RECOG_RESP	n/a	LTP208	ltpFR	1	1	-1	PLANT	1083	1	n/a	-1	n/a	n/a	n/a	n/a	n/a
2879349	RECOG_CONF	n/a	LTP208	ltpFR	1	1	-1	PLANT	1083	n/a	5	-1	n/a	n/a	n/a	n/a	n/a
2880961	RECOG_TARGET	n/a	LTP208	ltpFR	1	1	1	VEGETABLE	1552	0	4	1	n/a	n/a	n/a	n/a	n/a
2882596	RECOG_RESP	n/a	LTP208	ltpFR	1	1	1	VEGETABLE	1552	0	n/a	1	n/a	n/a	n/a	n/a	n/a
2883709	RECOG_CONF	n/a	LTP208	ltpFR	1	1	1	VEGETABLE	1552	n/a	4	1	n/a	n/a	n/a	n/a	n/a
2885244	RECOG_LURE	n/a	LTP208	ltpFR	1	1	n/a	OATS	968	0	4	n/a	n/a	n/a	n/a	n/a	n/a
2886797	RECOG_RESP	n/a	LTP208	ltpFR	1	1	n/a	OATS	968	0	n/a	n/a	n/a	n/a	n/a	n/a	n/a
2887630	RECOG_CONF	n/a	LTP208	ltpFR	1	1	n/a	OATS	968	n/a	4	n/a	n/a	n/a	n/a	n/a	n/a
2889025	RECOG_LURE	n/a	LTP208	ltpFR	1	1	n/a	PICK	1058	0	4	n/a	n/a	n/a	n/a	n/a	n/a
2890902	RECOG_RESP	n/a	LTP208	ltpFR	1	1	n/a	PICK	1058	0	n/a	n/a	n/a	n/a	n/a	n/a	n/a
2891571	RECOG_CONF	n/a	LTP208	ltpFR	1	1	n/a	PICK	1058	n/a	4	n/a	n/a	n/a	n/a	n/a	n/a
2893324	RECOG_TARGET	n/a	LTP208	ltpFR	1	1	0	BOX	159	1	4	0	n/a	n/a	n/a	n/a	n/a
2895118	RECOG_RESP	n/a	LTP208	ltpFR	1	1	0	BOX	159	1	n/a	0	n/a	n/a	n/a	n/a	n/a
2896081	RECOG_CONF	n/a	LTP208	ltpFR	1	1	0	BOX	159	n/a	4	0	n/a	n/a	n/a	n/a	n/a
2897824	RECOG_TARGET	n/a	LTP208	ltpFR	1	1	0	FLEET	578	1	5	1	n/a	n/a	n/a	n/a	n/a
2899702	RECOG_RESP	n/a	LTP208	ltpFR	1	1	0	FLEET	578	1	n/a	1	n/a	n/a	n/a	n/a	n/a
2900451	RECOG_CONF	n/a	LTP208	ltpFR	1	1	0	FLEET	578	n/a	5	1	n/a	n/a	n/a	n/a	n/a
2902018	RECOG_TARGET	n/a	LTP208	ltpFR	1	1	1	NOTE	958	1	5	2	n/a	n/a	n/a	n/a	n/a
2903432	RECOG_RESP	n/a	LTP208	ltpFR	1	1	1	NOTE	958	1	n/a	2	n/a	n/a	n/a	n/a	n/a
2904282	RECOG_CONF	n/a	LTP208	ltpFR	1	1	1	NOTE	958	n/a	5	2	n/a	n/a	n/a	n/a	n/a
2905854	RECOG_TARGET	n/a	LTP208	ltpFR	1	1	1	COLLEGE	346	1	5	0	n/a	n/a	n/a	n/a	n/a
2906886	RECOG_RESP	n/a	LTP208	ltpFR	1	1	1	COLLEGE	346	1	n/a	0	n/a	n/a	n/a	n/a	n/a
2907614	RECOG_CONF	n/a	LTP208	ltpFR	1	1	1	COLLEGE	346	n/a	5	0	n/a	n/a	n/a	n/a	n/a
2909335	RECOG_LURE	n/a	LTP208	ltpFR	1	1	n/a	CHICK	296	0	4	n/a	n/a	n/a	n/a	n/a	n/a
2910747	RECOG_RESP	n/a	LTP208	ltpFR	1	1	n/a	CHICK	296	0	n/a	n/a	n/a	n/a	n/a	n/a	n/a
2911705	RECOG_CONF	n/a	LTP208	ltpFR	1	1	n/a	CHICK	296	n/a	4	n/a	n/a	n/a	n/a	n/a	n/a
2913015	RECOG_TARGET	n/a	LTP208	ltpFR	1	1	-1	SNORKEL	1336	1	5	-1	n/a	n/a	n/a	n/a	n/a
2914155	RECOG_RESP	n/a	LTP208	ltpFR	1	1	-1	SNORKEL	1336	1	n/a	-1	n/a	n/a	n/a	n/a	n/a
2915068	RECOG_CONF	n/a	LTP208	ltpFR	1	1	-1	SNORKEL	1336	n/a	5	-1	n/a	n/a	n/a	n/a	n/a
2916863	RECOG_TARGET	n/a	LTP208	ltpFR	1	1	0	FISH	571	1	5	0	n/a	n/a	n/a	n/a	n/a
2917791	RECOG_RESP	n/a	LTP208	ltpFR	1	1	0	FISH	571	1	n/a	0	n/a	n/a	n/a	n/a	n/a
2918719	RECOG_CONF	n/a	LTP208	ltpFR	1	1	0	FISH	571	n/a	5	0	n/a	n/a	n/a	n/a	n/a
2920503	RECOG_LURE	n/a	LTP208	ltpFR	1	1	n/a	CHAPEL	280	1	5	n/a	n/a	n/a	n/a	n/a	n/a
2921333	RECOG_RESP	n/a	LTP208	ltpFR	1	1	n/a	CHAPEL	280	1	n/a	n/a	n/a	n/a	n/a	n/a	n/a
2922361	RECOG_CONF	n/a	LTP208	ltpFR	1	1	n/a	CHAPEL	280	n/a	5	n/a	n/a	n/a	n/a	n/a	n/a
2924140	RECOG_TARGET	n/a	LTP208	ltpFR	1	1	0	CLAW	319	1	4	0	n/a	n/a	n/a	n/a	n/a
2924940	RECOG_RESP	n/a	LTP208	ltpFR	1	1	0	CLAW	319	1	n/a	0	n/a	n/a	n/a	n/a	n/a
2926023	RECOG_CONF	n/a	LTP208	ltpFR	1	1	0	CLAW	319	n/a	4	0	n/a	n/a	n/a	n/a	n/a
2927921	RECOG_TARGET	n/a	LTP208	ltpFR	1	1	0	TURKEY	1520	1	5	1	n/a	n/a	n/a	n/a	n/a
2928567	RECOG_RESP	n/a	LTP208	ltpFR	1	1	0	TURKEY	1520	1	n/a	1	n/a	n/a	n/a	n/a	n/a
2929315	RECOG_CONF	n/a	LTP208	ltpFR	1	1	0	TURKEY	1520	n/a	5	1	n/a	n/a	n/a	n/a	n/a
2931044	RECOG_LURE	n/a	LTP208	ltpFR	1	1	n/a	DRESS	495	1	5	n/a	n/a	n/a	n/a	n/a	n/a
2931834	RECOG_RESP	n/a	LTP208	ltpFR	1	1	n/a	DRESS	495	1	n/a	n/a	n/a	n/a	n/a	n/a	n/a
2932737	RECOG_CONF	n/a	LTP208	ltpFR	1	1	n/a	DRESS	495	n/a	5	n/a	n/a	n/a	n/a	n/a	n/a
2934562	RECOG_TARGET	n/a	LTP208	ltpFR	1	1	0	TUNA	1518	1	5	0	n/a	n/a	n/a	n/a	n/a
2935332	RECOG_RESP	n/a	LTP208	ltpFR	1	1	0	TUNA	1518	1	n/a	0	n/a	n/a	n/a	n/a	n/a
2936120	RECOG_CONF	n/a	LTP208	ltpFR	1	1	0	TUNA	1518	n/a	5	0	n/a	n/a	n/a	n/a	n/a
2937434	RECOG_LURE	n/a	LTP208	ltpFR	1	1	n/a	SCARF	1246	1	5	n/a	n/a	n/a	n/a	n/a	n/a
2938539	RECOG_RESP	n/a	LTP208	ltpFR	1	1	n/a	SCARF	1246	1	n/a	n/a	n/a	n/a	n/a	n/a	n/a
2939402	RECOG_CONF	n/a	LTP208	ltpFR	1	1	n/a	SCARF	1246	n/a	5	n/a	n/a	n/a	n/a	n/a	n/a
2945252	REC_START	n/a	LTP208	ltpFR	1	2	n/a	n/a	n/a	n/a	n/a	n/a	n/a	n/a	n/a	n/a	n/a
2945304	RECOG_TARGET	n/a	LTP208	ltpFR	1	2	-1	CONCERT	360	1	5	-1	n/a	n/a	n/a	n/a	n/a
2946584	RECOG_RESP	n/a	LTP208	ltpFR	1	2	-1	CONCERT	360	1	n/a	-1	n/a	n/a	n/a	n/a	n/a
2947392	RECOG_CONF	n/a	LTP208	ltpFR	1	2	-1	CONCERT	360	n/a	5	-1	n/a	n/a	n/a	n/a	n/a
2948693	RECOG_TARGET	n/a	LTP208	ltpFR	1	2	1	CLIPPERS	324	1	5	0	n/a	n/a	n/a	n/a	n/a
2949757	RECOG_RESP	n/a	LTP208	ltpFR	1	2	1	CLIPPERS	324	1	n/a	0	n/a	n/a	n/a	n/a	n/a
2950734	RECOG_CONF	n/a	LTP208	ltpFR	1	2	1	CLIPPERS	324	n/a	5	0	n/a	n/a	n/a	n/a	n/a
2952391	RECOG_LURE	n/a	LTP208	ltpFR	1	2	n/a	SHOULDER	1294	0	4	n/a	n/a	n/a	n/a	n/a	n/a
2954137	RECOG_RESP	n/a	LTP208	ltpFR	1	2	n/a	SHOULDER	1294	0	n/a	n/a	n/a	n/a	n/a	n/a	n/a
2954955	RECOG_CONF	n/a	LTP208	ltpFR	1	2	n/a	SHOULDER	1294	n/a	4	n/a	n/a	n/a	n/a	n/a	n/a
2956773	RECOG_TARGET	n/a	LTP208	ltpFR	1	2	1	RAM	1165	1	5	1	n/a	n/a	n/a	n/a	n/a
2957674	RECOG_RESP	n/a	LTP208	ltpFR	1	2	1	RAM	1165	1	n/a	1	n/a	n/a	n/a	n/a	n/a
2958906	RECOG_CONF	n/a	LTP208	ltpFR	1	2	1	RAM	1165	n/a	5	1	n/a	n/a	n/a	n/a	n/a
2960828	RECOG_LURE	n/a	LTP208	ltpFR	1	2	n/a	GLACIER	638	0	4	n/a	n/a	n/a	n/a	n/a	n/a
2962333	RECOG_RESP	n/a	LTP208	ltpFR	1	2	n/a	GLACIER	638	0	n/a	n/a	n/a	n/a	n/a	n/a	n/a
2963366	RECOG_CONF	n/a	LTP208	ltpFR	1	2	n/a	GLACIER	638	n/a	4	n/a	n/a	n/a	n/a	n/a	n/a
2965295	RECOG_TARGET	n/a	LTP208	ltpFR	1	2	1	EAGLE	512	1	4	1	n/a	n/a	n/a	n/a	n/a
2966144	RECOG_RESP	n/a	LTP208	ltpFR	1	2	1	EAGLE	512	1	n/a	1	n/a	n/a	n/a	n/a	n/a
2967297	RECOG_CONF	n/a	LTP208	ltpFR	1	2	1	EAGLE	512	n/a	4	1	n/a	n/a	n/a	n/a	n/a
2969271	RECOG_TARGET	n/a	LTP208	ltpFR	1	2	1	EMERALD	528	1	5	0	n/a	n/a	n/a	n/a	n/a
2970215	RECOG_RESP	n/a	LTP208	ltpFR	1	2	1	EMERALD	528	1	n/a	0	n/a	n/a	n/a	n/a	n/a
2971547	RECOG_CONF	n/a	LTP208	ltpFR	1	2	1	EMERALD	528	n/a	5	0	n/a	n/a	n/a	n/a	n/a
2973536	RECOG_TARGET	n/a	LTP208	ltpFR	1	2	1	PALACE	1006	1	5	1	n/a	n/a	n/a	n/a	n/a
2974271	RECOG_RESP	n/a	LTP208	ltpFR	1	2	1	PALACE	1006	1	n/a	1	n/a	n/a	n/a	n/a	n/a
2975299	RECOG_CONF	n/a	LTP208	ltpFR	1	2	1	PALACE	1006	n/a	5	1	n/a	n/a	n/a	n/a	n/a
2977341	RECOG_LURE	n/a	LTP208	ltpFR	1	2	n/a	AUNT	60	1	5	n/a	n/a	n/a	n/a	n/a	n/a
2978077	RECOG_RESP	n/a	LTP208	ltpFR	1	2	n/a	AUNT	60	1	n/a	n/a	n/a	n/a	n/a	n/a	n/a
2978980	RECOG_CONF	n/a	LTP208	ltpFR	1	2	n/a	AUNT	60	n/a	5	n/a	n/a	n/a	n/a	n/a	n/a
2980904	RECOG_TARGET	n/a	LTP208	ltpFR	1	2	1	PEANUT	1032	1	5	0	n/a	n/a	n/a	n/a	n/a
2981993	RECOG_RESP	n/a	LTP208	ltpFR	1	2	1	PEANUT	1032	1	n/a	0	n/a	n/a	n/a	n/a	n/a
2983071	RECOG_CONF	n/a	LTP208	ltpFR	1	2	1	PEANUT	1032	n/a	5	0	n/a	n/a	n/a	n/a	n/a
2984936	RECOG_LURE	n/a	LTP208	ltpFR	1	2	n/a	OUTFIT	988	1	4	n/a	n/a	n/a	n/a	n/a	n/a
2986049	RECOG_RESP	n/a	LTP208	ltpFR	1	2	n/a	OUTFIT	988	1	n/a	n/a	n/a	n/a	n/a	n/a	n/a
2987211	RECOG_CONF	n/a	LTP208	ltpFR	1	2	n/a	OUTFIT	988	n/a	4	n/a	n/a	n/a	n/a	n/a	n/a
2989286	RECOG_TARGET	n/a	LTP208	ltpFR	1	2	0	HORIZON	717	1	5	1	n/a	n/a	n/a	n/a	n/a
2990718	RECOG_RESP	n/a	LTP208	ltpFR	1	2	0	HORIZON	717	1	n/a	1	n/a	n/a	n/a	n/a	n/a
2991761	RECOG_CONF	n/a	LTP208	ltpFR	1	2	0	HORIZON	717	n/a	5	1	n/a	n/a	n/a	n/a	n/a
2993702	RECOG_LURE	n/a	LTP208	ltpFR	1	2	n/a	PEDAL	1037	0	4	n/a	n/a	n/a	n/a	n/a	n/a
2994824	RECOG_RESP	n/a	LTP208	ltpFR	1	2	n/a	PEDAL	1037	0	n/a	n/a	n/a	n/a	n/a	n/a	n/a
2996031	RECOG_CONF	n/a	LTP208	ltpFR	1	2	n/a	PEDAL	1037	n/a	4	n/a	n/a	n/a	n/a	n/a	n/a
2997952	RECOG_TARGET	n/a	LTP208	ltpFR	1	2	0	SWITCH	1422	1	4	0	n/a	n/a	n/a	n/a	n/a
2998670	RECOG_RESP	n/a	LTP208	ltpFR	1	2	0	SWITCH	1422	1	n/a	0	n/a	n/a	n/a	n/a	n/a
2999952	RECOG_CONF	n/a	LTP208	ltpFR	1	2	0	SWITCH	1422	n/a	4	0	n/a	n/a	n/a	n/a	n/a
3001815	RECOG_TARGET	n/a	LTP208	ltpFR	1	2	-1	PICKLE	1059	1	5	-1	n/a	n/a	n/a	n/a	n/a
3002711	RECOG_RESP	n/a	LTP208	ltpFR	1	2	-1	PICKLE	1059	1	n/a	-1	n/a	n/a	n/a	n/a	n/a
3003654	RECOG_CONF	n/a	LTP208	ltpFR	1	2	-1	PICKLE	1059	n/a	5	-1	n/a	n/a	n/a	n/a	n/a
3004939	RECOG_TARGET	n/a	LTP208	ltpFR	1	2	1	SARDINE	1235	1	5	0	n/a	n/a	n/a	n/a	n/a
3005809	RECOG_RESP	n/a	LTP208	ltpFR	1	2	1	SARDINE	1235	1	n/a	0	n/a	n/a	n/a	n/a	n/a
3006947	RECOG_CONF	n/a	LTP208	ltpFR	1	2	1	SARDINE	1235	n/a	5	0	n/a	n/a	n/a	n/a	n/a
3008808	RECOG_TARGET	n/a	LTP208	ltpFR	1	2	0	NIGHTGOWN	953	0	5	1	n/a	n/a	n/a	n/a	n/a
3009830	RECOG_RESP	n/a	LTP208	ltpFR	1	2	0	NIGHTGOWN	953	0	n/a	1	n/a	n/a	n/a	n/a	n/a
3010997	RECOG_CONF	n/a	LTP208	ltpFR	1	2	0	NIGHTGOWN	953	n/a	5	1	n/a	n/a	n/a	n/a	n/a
3012875	RECOG_TARGET	n/a	LTP208	ltpFR	1	2	1	TUBE	1516	1	5	3	n/a	n/a	n/a	n/a	n/a
3013871	RECOG_RESP	n/a	LTP208	ltpFR	1	2	1	TUBE	1516	1	n/a	3	n/a	n/a	n/a	n/a	n/a
3014899	RECOG_CONF	n/a	LTP208	ltpFR	1	2	1	TUBE	1516	n/a	5	3	n/a	n/a	n/a	n/a	n/a
3016849	RECOG_TARGET	n/a	LTP208	ltpFR	1	2	1	PAINT	1003	1	5	0	n/a	n/a	n/a	n/a	n/a
3017637	RECOG_RESP	n/a	LTP208	ltpFR	1	2	1	PAINT	1003	1	n/a	0	n/a	n/a	n/a	n/a	n/a
3018620	RECOG_CONF	n/a	LTP208	ltpFR	1	2	1	PAINT	1003	n/a	5	0	n/a	n/a	n/a	n/a	n/a
3020513	RECOG_LURE	n/a	LTP208	ltpFR	1	2	n/a	XEROX	1628	0	4	n/a	n/a	n/a	n/a	n/a	n/a
3021469	RECOG_RESP	n/a	LTP208	ltpFR	1	2	n/a	XEROX	1628	0	n/a	n/a	n/a	n/a	n/a	n/a	n/a
3022541	RECOG_CONF	n/a	LTP208	ltpFR	1	2	n/a	XEROX	1628	n/a	4	n/a	n/a	n/a	n/a	n/a	n/a
3028491	REC_START	n/a	LTP208	ltpFR	1	3	n/a	n/a	n/a	n/a	n/a	n/a	n/a	n/a	n/a	n/a	n/a
3028544	RECOG_TARGET	n/a	LTP208	ltpFR	1	3	1	TOOL	1480	1	5	0	n/a	n/a	n/a	n/a	n/a
3029952	RECOG_RESP	n/a	LTP208	ltpFR	1	3	1	TOOL	1480	1	n/a	0	n/a	n/a	n/a	n/a	n/a
3030791	RECOG_CONF	n/a	LTP208	ltpFR	1	3	1	TOOL	1480	n/a	5	0	n/a	n/a	n/a	n/a	n/a
3032531	RECOG_TARGET	n/a	LTP208	ltpFR	1	3	0	PEAR	1033	1	5	0	n/a	n/a	n/a	n/a	n/a
3033559	RECOG_RESP	n/a	LTP208	ltpFR	1	3	0	PEAR	1033	1	n/a	0	n/a	n/a	n/a	n/a	n/a
3034652	RECOG_CONF	n/a	LTP208	ltpFR	1	3	0	PEAR	1033	n/a	5	0	n/a	n/a	n/a	n/a	n/a
3036496	RECOG_TARGET	n/a	LTP208	ltpFR	1	3	0	TUBA	1515	1	5	2	n/a	n/a	n/a	n/a	n/a
3037186	RECOG_RESP	n/a	LTP208	ltpFR	1	3	0	TUBA	1515	1	n/a	2	n/a	n/a	n/a	n/a	n/a
3038214	RECOG_CONF	n/a	LTP208	ltpFR	1	3	0	TUBA	1515	n/a	5	2	n/a	n/a	n/a	n/a	n/a
3040055	RECOG_LURE	n/a	LTP208	ltpFR	1	3	n/a	HONEY	713	1	5	n/a	n/a	n/a	n/a	n/a	n/a
3040997	RECOG_RESP	n/a	LTP208	ltpFR	1	3	n/a	HONEY	713	1	n/a	n/a	n/a	n/a	n/a	n/a	n/a
3042105	RECOG_CONF	n/a	LTP208	ltpFR	1	3	n/a	HONEY	713	n/a	5	n/a	n/a	n/a	n/a	n/a	n/a
3044042	RECOG_TARGET	n/a	LTP208	ltpFR	1	3	0	CLIMBER	323	1	4	2	n/a	n/a	n/a	n/a	n/a
3045352	RECOG_RESP	n/a	LTP208	ltpFR	1	3	0	CLIMBER	323	1	n/a	2	n/a	n/a	n/a	n/a	n/a
3046405	RECOG_CONF	n/a	LTP208	ltpFR	1	3	0	CLIMBER	323	n/a	4	2	n/a	n/a	n/a	n/a	n/a
3048308	RECOG_LURE	n/a	LTP208	ltpFR	1	3	n/a	BIBLE	124	0	4	n/a	n/a	n/a	n/a	n/a	n/a
3049453	RECOG_RESP	n/a	LTP208	ltpFR	1	3	n/a	BIBLE	124	0	n/a	n/a	n/a	n/a	n/a	n/a	n/a
3050795	RECOG_CONF	n/a	LTP208	ltpFR	1	3	n/a	BIBLE	124	n/a	4	n/a	n/a	n/a	n/a	n/a	n/a
3052551	RECOG_TARGET	n/a	LTP208	ltpFR	1	3	1	ONION	977	1	4	0	n/a	n/a	n/a	n/a	n/a
3053404	RECOG_RESP	n/a	LTP208	ltpFR	1	3	1	ONION	977	1	n/a	0	n/a	n/a	n/a	n/a	n/a
3054307	RECOG_CONF	n/a	LTP208	ltpFR	1	3	1	ONION	977	n/a	4	0	n/a	n/a	n/a	n/a	n/a
3056098	RECOG_TARGET	n/a	LTP208	ltpFR	1	3	0	BANJO	82	1	4	0	n/a	n/a	n/a	n/a	n/a
3057066	RECOG_RESP	n/a	LTP208	ltpFR	1	3	0	BANJO	82	1	n/a	0	n/a	n/a	n/a	n/a	n/a
3057989	RECOG_CONF	n/a	LTP208	ltpFR	1	3	0	BANJO	82	n/a	4	0	n/a	n/a	n/a	n/a	n/a
3059801	RECOG_LURE	n/a	LTP208	ltpFR	1	3	n/a	LEG	809	1	4	n/a	n/a	n/a	n/a	n/a	n/a
3060733	RECOG_RESP	n/a	LTP208	ltpFR	1	3	n/a	LEG	809	1	n/a	n/a	n/a	n/a	n/a	n/a	n/a
3062079	RECOG_CONF	n/a	LTP208	ltpFR	1	3	n/a	LEG	809	n/a	4	n/a	n/a	n/a	n/a	n/a	n/a
3063961	RECOG_TARGET	n/a	LTP208	ltpFR	1	3	0	SPOOL	1356	1	4	0	n/a	n/a	n/a	n/a	n/a
3065013	RECOG_RESP	n/a	LTP208	ltpFR	1	3	0	SPOOL	1356	1	n/a	0	n/a	n/a	n/a	n/a	n/a
3065901	RECOG_CONF	n/a	LTP208	ltpFR	1	3	0	SPOOL	1356	n/a	4	0	n/a	n/a	n/a	n/a	n/a
3067741	RECOG_TARGET	n/a	LTP208	ltpFR	1	3	0	WORKER	1621	1	5	1	n/a	n/a	n/a	n/a	n/a
3068580	RECOG_RESP	n/a	LTP208	ltpFR	1	3	0	WORKER	1621	1	n/a	1	n/a	n/a	n/a	n/a	n/a
3069293	RECOG_CONF	n/a	LTP208	ltpFR	1	3	0	WORKER	1621	n/a	5	1	n/a	n/a	n/a	n/a	n/a
3071205	RECOG_TARGET	n/a	LTP208	ltpFR	1	3	0	ASHTRAY	45	1	5	0	n/a	n/a	n/a	n/a	n/a
3072356	RECOG_RESP	n/a	LTP208	ltpFR	1	3	0	ASHTRAY	45	1	n/a	0	n/a	n/a	n/a	n/a	n/a
3073104	RECOG_CONF	n/a	LTP208	ltpFR	1	3	0	ASHTRAY	45	n/a	5	0	n/a	n/a	n/a	n/a	n/a
3074909	RECOG_LURE	n/a	LTP208	ltpFR	1	3	n/a	CAVE	263	1	5	n/a	n/a	n/a	n/a	n/a	n/a
3075903	RECOG_RESP	n/a	LTP208	ltpFR	1	3	n/a	CAVE	263	1	n/a	n/a	n/a	n/a	n/a	n/a	n/a
3077315	RECOG_CONF	n/a	LTP208	ltpFR	1	3	n/a	CAVE	263	n/a	5	n/a	n/a	n/a	n/a	n/a	n/a
3079158	RECOG_LURE	n/a	LTP208	ltpFR	1	3	n/a	BEE	112	1	4	n/a	n/a	n/a	n/a	n/a	n/a
3080657	RECOG_RESP	n/a	LTP208	ltpFR	1	3	n/a	BEE	112	1	n/a	n/a	n/a	n/a	n/a	n/a	n/a
3081635	RECOG_CONF	n/a	LTP208	ltpFR	1	3	n/a	BEE	112	n/a	4	n/a	n/a	n/a	n/a	n/a	n/a
3083590	RECOG_TARGET	n/a	LTP208	ltpFR	1	3	0	PARCEL	1012	1	5	0	n/a	n/a	n/a	n/a	n/a
3084634	RECOG_RESP	n/a	LTP208	ltpFR	1	3	0	PARCEL	1012	1	n/a	0	n/a	n/a	n/a	n/a	n/a
3085357	RECOG_CONF	n/a	LTP208	ltpFR	1	3	0	PARCEL	1012	n/a	5	0	n/a	n/a	n/a	n/a	n/a
3087222	RECOG_TARGET	n/a	LTP208	ltpFR	1	3	-1	TREAT	1501	1	4	-1	n/a	n/a	n/a	n/a	n/a
3088474	RECOG_RESP	n/a	LTP208	ltpFR	1	3	-1	TREAT	1501	1	n/a	-1	n/a	n/a	n/a	n/a	n/a
3090086	RECOG_CONF	n/a	LTP208	ltpFR	1	3	-1	TREAT	1501	n/a	4	-1	n/a	n/a	n/a	n/a	n/a
3092157	RECOG_TARGET	n/a	LTP208	ltpFR	1	3	-1	TIDE	1465	1	4	-1	n/a	n/a	n/a	n/a	n/a
3093174	RECOG_RESP	n/a	LTP208	ltpFR	1	3	-1	TIDE	1465	1	n/a	-1	n/a	n/a	n/a	n/a	n/a
3094047	RECOG_CONF	n/a	LTP208	ltpFR	1	3	-1	TIDE	1465	n/a	4	-1	n/a	n/a	n/a	n/a	n/a
3096021	RECOG_LURE	n/a	LTP208	ltpFR	1	3	n/a	COMPASS	358	1	4	n/a	n/a	n/a	n/a	n/a	n/a
3097080	RECOG_RESP	n/a	LTP208	ltpFR	1	3	n/a	COMPASS	358	1	n/a	n/a	n/a	n/a	n/a	n/a	n/a
3097948	RECOG_CONF	n/a	LTP208	ltpFR	1	3	n/a	COMPASS	358	n/a	4	n/a	n/a	n/a	n/a	n/a	n/a
3099785	RECOG_TARGET	n/a	LTP208	ltpFR	1	3	1	CARPENTER	246	1	5	1	n/a	n/a	n/a	n/a	n/a
3100717	RECOG_RESP	n/a	LTP208	ltpFR	1	3	1	CARPENTER	246	1	n/a	1	n/a	n/a	n/a	n/a	n/a
3101540	RECOG_CONF	n/a	LTP208	ltpFR	1	3	1	CARPENTER	246	n/a	5	1	n/a	n/a	n/a	n/a	n/a
3103532	RECOG_TARGET	n/a	LTP208	ltpFR	1	3	1	CRAB	397	1	5	1	n/a	n/a	n/a	n/a	n/a
3104643	RECOG_RESP	n/a	LTP208	ltpFR	1	3	1	CRAB	397	1	n/a	1	n/a	n/a	n/a	n/a	n/a
3105441	RECOG_CONF	n/a	LTP208	ltpFR	1	3	1	CRAB	397	n/a	5	1	n/a	n/a	n/a	n/a	n/a
3110430	REC_START	n/a	LTP208	ltpFR	1	4	n/a	n/a	n/a	n/a	n/a	n/a	n/a	n/a	n/a	n/a	n/a
3110486	RECOG_LURE	n/a	LTP208	ltpFR	1	4	n/a	NURSERY	964	0	4	n/a	n/a	n/a	n/a	n/a	n/a
3111802	RECOG_RESP	n/a	LTP208	ltpFR	1	4	n/a	NURSERY	964	0	n/a	n/a	n/a	n/a	n/a	n/a	n/a
3112650	RECOG_CONF	n/a	LTP208	ltpFR	1	4	n/a	NURSERY	964	n/a	4	n/a	n/a	n/a	n/a	n/a	n/a
3114651	RECOG_TARGET	n/a	LTP208	ltpFR	1	4	1	PUB	1135	1	5	0	n/a	n/a	n/a	n/a	n/a
3115638	RECOG_RESP	n/a	LTP208	ltpFR	1	4	1	PUB	1135	1	n/a	0	n/a	n/a	n/a	n/a	n/a
3116581	RECOG_CONF	n/a	LTP208	ltpFR	1	4	1	PUB	1135	n/a	5	0	n/a	n/a	n/a	n/a	n/a
3118316	RECOG_LURE	n/a	LTP208	ltpFR	1	4	n/a	LINT	826	1	4	n/a	n/a	n/a	n/a	n/a	n/a
3119325	RECOG_RESP	n/a	LTP208	ltpFR	1	4	n/a	LINT	826	1	n/a	n/a	n/a	n/a	n/a	n/a	n/a
3120213	RECOG_CONF	n/a	LTP208	ltpFR	1	4	n/a	LINT	826	n/a	4	n/a	n/a	n/a	n/a	n/a	n/a
3122270	RECOG_TARGET	n/a	LTP208	ltpFR	1	4	1	SEAGULL	1261	0	4	1	n/a	n/a	n/a	n/a	n/a
3123595	RECOG_RESP	n/a	LTP208	ltpFR	1	4	1	SEAGULL	1261	0	n/a	1	n/a	n/a	n/a	n/a	n/a
3125002	RECOG_CONF	n/a	LTP208	ltpFR	1	4	1	SEAGULL	1261	n/a	4	1	n/a	n/a	n/a	n/a	n/a
3126905	RECOG_LURE	n/a	LTP208	ltpFR	1	4	n/a	MILDEW	893	0	3	n/a	n/a	n/a	n/a	n/a	n/a
3128738	RECOG_RESP	n/a	LTP208	ltpFR	1	4	n/a	MILDEW	893	0	n/a	n/a	n/a	n/a	n/a	n/a	n/a
3130290	RECOG_CONF	n/a	LTP208	ltpFR	1	4	n/a	MILDEW	893	n/a	3	n/a	n/a	n/a	n/a	n/a	n/a
3132202	RECOG_TARGET	n/a	LTP208	ltpFR	1	4	1	HARP	689	0	3	0	n/a	n/a	n/a	n/a	n/a
3133612	RECOG_RESP	n/a	LTP208	ltpFR	1	4	1	HARP	689	0	n/a	0	n/a	n/a	n/a	n/a	n/a
3134720	RECOG_CONF	n/a	LTP208	ltpFR	1	4	1	HARP	689	n/a	3	0	n/a	n/a	n/a	n/a	n/a
3136456	RECOG_LURE	n/a	LTP208	ltpFR	1	4	n/a	NICOTINE	951	0	3	n/a	n/a	n/a	n/a	n/a	n/a
3138162	RECOG_RESP	n/a	LTP208	ltpFR	1	4	n/a	NICOTINE	951	0	n/a	n/a	n/a	n/a	n/a	n/a	n/a
3139698	RECOG_CONF	n/a	LTP208	ltpFR	1	4	n/a	NICOTINE	951	n/a	3	n/a	n/a	n/a	n/a	n/a	n/a
3141726	RECOG_LURE	n/a	LTP208	ltpFR	1	4	n/a	SLACKS	1323	0	2	n/a	n/a	n/a	n/a	n/a	n/a
3142956	RECOG_RESP	n/a	LTP208	ltpFR	1	4	n/a	SLACKS	1323	0	n/a	n/a	n/a	n/a	n/a	n/a	n/a
3144457	RECOG_CONF	n/a	LTP208	ltpFR	1	4	n/a	SLACKS	1323	n/a	2	n/a	n/a	n/a	n/a	n/a	n/a
3146505	RECOG_TARGET	n/a	LTP208	ltpFR	1	4	1	BISCUIT	130	0	3	0	n/a	n/a	n/a	n/a	n/a
3147356	RECOG_RESP	n/a	LTP208	ltpFR	1	4	1	BISCUIT	130	0	n/a	0	n/a	n/a	n/a	n/a	n/a
3148818	RECOG_CONF	n/a	LTP208	ltpFR	1	4	1	BISCUIT	130	n/a	3	0	n/a	n/a	n/a	n/a	n/a
3150777	RECOG_TARGET	n/a	LTP208	ltpFR	1	4	0	SHED	1277	1	4	1	n/a	n/a	n/a	n/a	n/a
3151990	RECOG_RESP	n/a	LTP208	ltpFR	1	4	0	SHED	1277	1	n/a	1	n/a	n/a	n/a	n/a	n/a
3153347	RECOG_CONF	n/a	LTP208	ltpFR	1	4	0	SHED	1277	n/a	4	1	n/a	n/a	n/a	n/a	n/a
3155239	RECOG_LURE	n/a	LTP208	ltpFR	1	4	n/a	MONGOOSE	909	0	3	n/a	n/a	n/a	n/a	n/a	n/a
3156360	RECOG_RESP	n/a	LTP208	ltpFR	1	4	n/a	MONGOOSE	909	0	n/a	n/a	n/a	n/a	n/a	n/a	n/a
3157757	RECOG_CONF	n/a	LTP208	ltpFR	1	4	n/a	MONGOOSE	909	n/a	3	n/a	n/a	n/a	n/a	n/a	n/a
3159526	RECOG_TARGET	n/a	LTP208	ltpFR	1	4	0	FIREPLACE	570	0	3	1	n/a	n/a	n/a	n/a	n/a
3160546	RECOG_RESP	n/a	LTP208	ltpFR	1	4	0	FIREPLACE	570	0	n/a	1	n/a	n/a	n/a	n/a	n/a
3161968	RECOG_CONF	n/a	LTP208	ltpFR	1	4	0	FIREPLACE	570	n/a	3	1	n/a	n/a	n/a	n/a	n/a
3163826	RECOG_LURE	n/a	LTP208	ltpFR	1	4	n/a	ROBOT	1200	0	4	n/a	n/a	n/a	n/a	n/a	n/a
3164721	RECOG_RESP	n/a	LTP208	ltpFR	1	4	n/a	ROBOT	1200	0	n/a	n/a	n/a	n/a	n/a	n/a	n/a
3166098	RECOG_CONF	n/a	LTP208	ltpFR	1	4	n/a	ROBOT	1200	n/a	4	n/a	n/a	n/a	n/a	n/a	n/a
3167785	RECOG_LURE	n/a	LTP208	ltpFR	1	4	n/a	LOAF	835	0	3	n/a	n/a	n/a	n/a	n/a	n/a
3168882	RECOG_RESP	n/a	LTP208	ltpFR	1	4	n/a	LOAF	835	0	n/a	n/a	n/a	n/a	n/a	n/a	n/a
3170379	RECOG_CONF	n/a	LTP208	ltpFR	1	4	n/a	LOAF	835	n/a	3	n/a	n/a	n/a	n/a	n/a	n/a
3172259	RECOG_TARGET	n/a	LTP208	ltpFR	1	4	0	FIN	566	1	4	0	n/a	n/a	n/a	n/a	n/a
3173172	RECOG_RESP	n/a	LTP208	ltpFR	1	4	0	FIN	566	1	n/a	0	n/a	n/a	n/a	n/a	n/a
3174399	RECOG_CONF	n/a	LTP208	ltpFR	1	4	0	FIN	566	n/a	4	0	n/a	n/a	n/a	n/a	n/a
3176201	RECOG_TARGET	n/a	LTP208	ltpFR	1	4	0	BUCKLE	185	1	4	0	n/a	n/a	n/a	n/a	n/a
3177058	RECOG_RESP	n/a	LTP208	ltpFR	1	4	0	BUCKLE	185	1	n/a	0	n/a	n/a	n/a	n/a	n/a
3178111	RECOG_CONF	n/a	LTP208	ltpFR	1	4	0	BUCKLE	185	n/a	4	0	n/a	n/a	n/a	n/a	n/a
3180222	RECOG_LURE	n/a	LTP208	ltpFR	1	4	n/a	BATHROOM	99	1	4	n/a	n/a	n/a	n/a	n/a	n/a
3181069	RECOG_RESP	n/a	LTP208	ltpFR	1	4	n/a	BATHROOM	99	1	n/a	n/a	n/a	n/a	n/a	n/a	n/a
3182411	RECOG_CONF	n/a	LTP208	ltpFR	1	4	n/a	BATHROOM	99	n/a	4	n/a	n/a	n/a	n/a	n/a	n/a
3184254	RECOG_LURE	n/a	LTP208	ltpFR	1	4	n/a	BARTENDER	92	1	3	n/a	n/a	n/a	n/a	n/a	n/a
3185095	RECOG_RESP	n/a	LTP208	ltpFR	1	4	n/a	BARTENDER	92	1	n/a	n/a	n/a	n/a	n/a	n/a	n/a
3186243	RECOG_CONF	n/a	LTP208	ltpFR	1	4	n/a	BARTENDER	92	n/a	3	n/a	n/a	n/a	n/a	n/a	n/a
3188113	RECOG_LURE	n/a	LTP208	ltpFR	1	4	n/a	POTATO	1115	0	4	n/a	n/a	n/a	n/a	n/a	n/a
3189096	RECOG_RESP	n/a	LTP208	ltpFR	1	4	n/a	POTATO	1115	0	n/a	n/a	n/a	n/a	n/a	n/a	n/a
3190253	RECOG_CONF	n/a	LTP208	ltpFR	1	4	n/a	POTATO	1115	n/a	4	n/a	n/a	n/a	n/a	n/a	n/a
3192262	RECOG_TARGET	n/a	LTP208	ltpFR	1	4	0	STAIRS	1367	1	4	0	n/a	n/a	n/a	n/a	n/a
3193291	RECOG_RESP	n/a	LTP208	ltpFR	1	4	0	STAIRS	1367	1	n/a	0	n/a	n/a	n/a	n/a	n/a
3194803	RECOG_CONF	n/a	LTP208	ltpFR	1	4	0	STAIRS	1367	n/a	4	0	n/a	n/a	n/a	n/a	n/a
3201086	REC_START	n/a	LTP208	ltpFR	1	5	n/a	n/a	n/a	n/a	n/a	n/a	n/a	n/a	n/a	n/a	n/a
3201145	RECOG_LURE	n/a	LTP208	ltpFR	1	5	n/a	MATTRESS	879	0	4	n/a	n/a	n/a	n/a	n/a	n/a
3202408	RECOG_RESP	n/a	LTP208	ltpFR	1	5	n/a	MATTRESS	879	0	n/a	n/a	n/a	n/a	n/a	n/a	n/a
3203246	RECOG_CONF	n/a	LTP208	ltpFR	1	5	n/a	MATTRESS	879	n/a	4	n/a	n/a	n/a	n/a	n/a	n/a
3205311	RECOG_LURE	n/a	LTP208	ltpFR	1	5	n/a	LOLLIPOP	842	0	2	n/a	n/a	n/a	n/a	n/a	n/a
3206424	RECOG_RESP_VV	n/a	LTP208	ltpFR	1	5	n/a	LOLLIPOP	842	1	n/a	n/a	n/a	n/a	n/a	n/a	n/a
3207347	RECOG_RESP	n/a	LTP208	ltpFR	1	5	n/a	LOLLIPOP	842	0	n/a	n/a	n/a	n/a	n/a	n/a	n/a
3208504	RECOG_CONF	n/a	LTP208	ltpFR	1	5	n/a	LOLLIPOP	842	n/a	2	n/a	n/a	n/a	n/a	n/a	n/a
3210932	RECOG_LURE	n/a	LTP208	ltpFR	1	5	n/a	UTENSIL	1542	0	4	n/a	n/a	n/a	n/a	n/a	n/a
3212280	RECOG_RESP	n/a	LTP208	ltpFR	1	5	n/a	UTENSIL	1542	0	n/a	n/a	n/a	n/a	n/a	n/a	n/a
3213333	RECOG_CONF	n/a	LTP208	ltpFR	1	5	n/a	UTENSIL	1542	n/a	4	n/a	n/a	n/a	n/a	n/a	n/a
3215288	RECOG_TARGET	n/a	LTP208	ltpFR	1	5	1	FARMER	553	0	4	1	n/a	n/a	n/a	n/a	n/a
3216526	RECOG_RESP	n/a	LTP208	ltpFR	1	5	1	FARMER	553	0	n/a	1	n/a	n/a	n/a	n/a	n/a
3217533	RECOG_CONF	n/a	LTP208	ltpFR	1	5	1	FARMER	553	n/a	4	1	n/a	n/a	n/a	n/a	n/a
3219370	RECOG_LURE	n/a	LTP208	ltpFR	1	5	n/a	UNIVERSITY	1541	1	4	n/a	n/a	n/a	n/a	n/a	n/a
3220557	RECOG_RESP	n/a	LTP208	ltpFR	1	5	n/a	UNIVERSITY	1541	1	n/a	n/a	n/a	n/a	n/a	n/a	n/a
3221594	RECOG_CONF	n/a	LTP208	ltpFR	1	5	n/a	UNIVERSITY	1541	n/a	4	n/a	n/a	n/a	n/a	n/a	n/a
3223601	RECOG_LURE	n/a	LTP208	ltpFR	1	5	n/a	KEG	770	1	4	n/a	n/a	n/a	n/a	n/a	n/a
3225421	RECOG_RESP	n/a	LTP208	ltpFR	1	5	n/a	KEG	770	1	n/a	n/a	n/a	n/a	n/a	n/a	n/a
3226254	RECOG_CONF	n/a	LTP208	ltpFR	1	5	n/a	KEG	770	n/a	4	n/a	n/a	n/a	n/a	n/a	n/a
3228036	RECOG_TARGET	n/a	LTP208	ltpFR	1	5	1	LASH	802	1	4	0	n/a	n/a	n/a	n/a	n/a
3229781	RECOG_RESP	n/a	LTP208	ltpFR	1	5	1	LASH	802	1	n/a	0	n/a	n/a	n/a	n/a	n/a
3230674	RECOG_CONF	n/a	LTP208	ltpFR	1	5	1	LASH	802	n/a	4	0	n/a	n/a	n/a	n/a	n/a
3232579	RECOG_LURE	n/a	LTP208	ltpFR	1	5	n/a	FUNGUS	614	1	4	n/a	n/a	n/a	n/a	n/a	n/a
3233996	RECOG_RESP	n/a	LTP208	ltpFR	1	5	n/a	FUNGUS	614	1	n/a	n/a	n/a	n/a	n/a	n/a	n/a
3235044	RECOG_CONF	n/a	LTP208	ltpFR	1	5	n/a	FUNGUS	614	n/a	4	n/a	n/a	n/a	n/a	n/a	n/a
3236913	RECOG_TARGET	n/a	LTP208	ltpFR	1	5	1	SLUG	1329	1	3	1	n/a	n/a	n/a	n/a	n/a
3238236	RECOG_RESP	n/a	LTP208	ltpFR	1	5	1	SLUG	1329	1	n/a	1	n/a	n/a	n/a	n/a	n/a
3239354	RECOG_CONF	n/a	LTP208	ltpFR	1	5	1	SLUG	1329	n/a	3	1	n/a	n/a	n/a	n/a	n/a
3241269	RECOG_TARGET	n/a	LTP208	ltpFR	1	5	-1	WEED	1599	1	5	-1	n/a	n/a	n/a	n/a	n/a
3242292	RECOG_RESP	n/a	LTP208	ltpFR	1	5	-1	WEED	1599	1	n/a	-1	n/a	n/a	n/a	n/a	n/a
3243275	RECOG_CONF	n/a	LTP208	ltpFR	1	5	-1	WEED	1599	n/a	5	-1	n/a	n/a	n/a	n/a	n/a
3245033	RECOG_TARGET	n/a	LTP208	ltpFR	1	5	1	TELESCOPE	1446	0	3	0	n/a	n/a	n/a	n/a	n/a
3246258	RECOG_RESP	n/a	LTP208	ltpFR	1	5	1	TELESCOPE	1446	0	n/a	0	n/a	n/a	n/a	n/a	n/a
3247515	RECOG_CONF	n/a	LTP208	ltpFR	1	5	1	TELESCOPE	1446	n/a	3	0	n/a	n/a	n/a	n/a	n/a
3249276	RECOG_LURE	n/a	LTP208	ltpFR	1	5	n/a	ERASER	538	0	3	n/a	n/a	n/a	n/a	n/a	n/a
3250788	RECOG_RESP	n/a	LTP208	ltpFR	1	5	n/a	ERASER	538	0	n/a	n/a	n/a	n/a	n/a	n/a	n/a
3251925	RECOG_CONF	n/a	LTP208	ltpFR	1	5	n/a	ERASER	538	n/a	3	n/a	n/a	n/a	n/a	n/a	n/a
3253475	RECOG_TARGET	n/a	LTP208	ltpFR	1	5	-1	OFFICER	973	1	5	-1	n/a	n/a	n/a	n/a	n/a
3254923	RECOG_RESP	n/a	LTP208	ltpFR	1	5	-1	OFFICER	973	1	n/a	-1	n/a	n/a	n/a	n/a	n/a
3256136	RECOG_CONF	n/a	LTP208	ltpFR	1	5	-1	OFFICER	973	n/a	5	-1	n/a	n/a	n/a	n/a	n/a
3257965	RECOG_LURE	n/a	LTP208	ltpFR	1	5	n/a	NECKLACE	940	1	4	n/a	n/a	n/a	n/a	n/a	n/a
3259274	RECOG_RESP	n/a	LTP208	ltpFR	1	5	n/a	NECKLACE	940	1	n/a	n/a	n/a	n/a	n/a	n/a	n/a
3260546	RECOG_CONF	n/a	LTP208	ltpFR	1	5	n/a	NECKLACE	940	n/a	4	n/a	n/a	n/a	n/a	n/a	n/a
3262542	RECOG_LURE	n/a	LTP208	ltpFR	1	5	n/a	ALLEY	15	0	4	n/a	n/a	n/a	n/a	n/a	n/a
3263594	RECOG_RESP	n/a	LTP208	ltpFR	1	5	n/a	ALLEY	15	0	n/a	n/a	n/a	n/a	n/a	n/a	n/a
3264876	RECOG_CONF	n/a	LTP208	ltpFR	1	5	n/a	ALLEY	15	n/a	4	n/a	n/a	n/a	n/a	n/a	n/a
3266708	RECOG_LURE	n/a	LTP208	ltpFR	1	5	n/a	GUN	673	0	3	n/a	n/a	n/a	n/a	n/a	n/a
3267934	RECOG_RESP	n/a	LTP208	ltpFR	1	5	n/a	GUN	673	0	n/a	n/a	n/a	n/a	n/a	n/a	n/a
3269226	RECOG_CONF	n/a	LTP208	ltpFR	1	5	n/a	GUN	673	n/a	3	n/a	n/a	n/a	n/a	n/a	n/a
3271282	RECOG_TARGET	n/a	LTP208	ltpFR	1	5	0	CAPTAIN	239	1	4	1	n/a	n/a	n/a	n/a	n/a
3272548	RECOG_RESP	n/a	LTP208	ltpFR	1	5	0	CAPTAIN	239	1	n/a	1	n/a	n/a	n/a	n/a	n/a
3273945	RECOG_CONF	n/a	LTP208	ltpFR	1	5	0	CAPTAIN	239	n/a	4	1	n/a	n/a	n/a	n/a	n/a
3276495	RECOG_TARGET	n/a	LTP208	ltpFR	1	5	0	SHELTER	1282	1	5	1	n/a	n/a	n/a	n/a	n/a
3277333	RECOG_RESP	n/a	LTP208	ltpFR	1	5	0	SHELTER	1282	1	n/a	1	n/a	n/a	n/a	n/a	n/a
3278365	RECOG_CONF	n/a	LTP208	ltpFR	1	5	0	SHELTER	1282	n/a	5	1	n/a	n/a	n/a	n/a	n/a
3280316	RECOG_LURE	n/a	LTP208	ltpFR	1	5	n/a	ACORN	3	0	3	n/a	n/a	n/a	n/a	n/a	n/a
3281209	RECOG_RESP	n/a	LTP208	ltpFR	1	5	n/a	ACORN	3	0	n/a	n/a	n/a	n/a	n/a	n/a	n/a
3282715	RECOG_CONF	n/a	LTP208	ltpFR	1	5	n/a	ACORN	3	n/a	3	n/a	n/a	n/a	n/a	n/a	n/a
3284475	RECOG_TARGET	n/a	LTP208	ltpFR	1	5	1	DISHWASHER	475	1	4	1	n/a	n/a	n/a	n/a	n/a
3285619	RECOG_RESP	n/a	LTP208	ltpFR	1	5	1	DISHWASHER	475	1	n/a	1	n/a	n/a	n/a	n/a	n/a
3286786	RECOG_CONF	n/a	LTP208	ltpFR	1	5	1	DISHWASHER	475	n/a	4	1	n/a	n/a	n/a	n/a	n/a
3291670	REC_START	n/a	LTP208	ltpFR	1	6	n/a	n/a	n/a	n/a	n/a	n/a	n/a	n/a	n/a	n/a	n/a
3291725	RECOG_TARGET	n/a	LTP208	ltpFR	1	6	1	NOVEL	960	1	5	2	n/a	n/a	n/a	n/a	n/a
3293366	RECOG_RESP	n/a	LTP208	ltpFR	1	6	1	NOVEL	960	1	n/a	2	n/a	n/a	n/a	n/a	n/a
3294169	RECOG_CONF	n/a	LTP208	ltpFR	1	6	1	NOVEL	960	n/a	5	2	n/a	n/a	n/a	n/a	n/a
3296103	RECOG_LURE	n/a	LTP208	ltpFR	1	6	n/a	BOYFRIEND	162	0	4	n/a	n/a	n/a	n/a	n/a	n/a
3297302	RECOG_RESP	n/a	LTP208	ltpFR	1	6	n/a	BOYFRIEND	162	0	n/a	n/a	n/a	n/a	n/a	n/a	n/a
3298469	RECOG_CONF	n/a	LTP208	ltpFR	1	6	n/a	BOYFRIEND	162	n/a	4	n/a	n/a	n/a	n/a	n/a	n/a
3300458	RECOG_TARGET	n/a	LTP208	ltpFR	1	6	1	BAY	102	1	5	0	n/a	n/a	n/a	n/a	n/a
3301877	RECOG_RESP	n/a	LTP208	ltpFR	1	6	1	BAY	102	1	n/a	0	n/a	n/a	n/a	n/a	n/a
3303368	RECOG_CONF	n/a	LTP208	ltpFR	1	6	1	BAY	102	n/a	5	0	n/a	n/a	n/a	n/a	n/a
3305388	RECOG_TARGET	n/a	LTP208	ltpFR	1	6	1	SQUID	1361	1	5	1	n/a	n/a	n/a	n/a	n/a
3306426	RECOG_RESP	n/a	LTP208	ltpFR	1	6	1	SQUID	1361	1	n/a	1	n/a	n/a	n/a	n/a	n/a
3307459	RECOG_CONF	n/a	LTP208	ltpFR	1	6	1	SQUID	1361	n/a	5	1	n/a	n/a	n/a	n/a	n/a
3309542	RECOG_TARGET	n/a	LTP208	ltpFR	1	6	-1	KLEENEX	782	1	5	-1	n/a	n/a	n/a	n/a	n/a
3310347	RECOG_RESP	n/a	LTP208	ltpFR	1	6	-1	KLEENEX	782	1	n/a	-1	n/a	n/a	n/a	n/a	n/a
3311560	RECOG_CONF	n/a	LTP208	ltpFR	1	6	-1	KLEENEX	782	n/a	5	-1	n/a	n/a	n/a	n/a	n/a
3313518	RECOG_LURE	n/a	LTP208	ltpFR	1	6	n/a	SCROLL	1257	1	5	n/a	n/a	n/a	n/a	n/a	n/a
3314463	RECOG_RESP	n/a	LTP208	ltpFR	1	6	n/a	SCROLL	1257	1	n/a	n/a	n/a	n/a	n/a	n/a	n/a
3315461	RECOG_CONF	n/a	LTP208	ltpFR	1	6	n/a	SCROLL	1257	n/a	5	n/a	n/a	n/a	n/a	n/a	n/a
3317566	RECOG_LURE	n/a	LTP208	ltpFR	1	6	n/a	CITY	314	1	4	n/a	n/a	n/a	n/a	n/a	n/a
3318584	RECOG_RESP	n/a	LTP208	ltpFR	1	6	n/a	CITY	314	1	n/a	n/a	n/a	n/a	n/a	n/a	n/a
3319721	RECOG_CONF	n/a	LTP208	ltpFR	1	6	n/a	CITY	314	n/a	4	n/a	n/a	n/a	n/a	n/a	n/a
3321604	RECOG_TARGET	n/a	LTP208	ltpFR	1	6	1	WHALE	1601	1	4	1	n/a	n/a	n/a	n/a	n/a
3322355	RECOG_RESP	n/a	LTP208	ltpFR	1	6	1	WHALE	1601	1	n/a	1	n/a	n/a	n/a	n/a	n/a
3323463	RECOG_CONF	n/a	LTP208	ltpFR	1	6	1	WHALE	1601	n/a	4	1	n/a	n/a	n/a	n/a	n/a
3325529	RECOG_TARGET	n/a	LTP208	ltpFR	1	6	1	RUG	1215	1	5	0	n/a	n/a	n/a	n/a	n/a
3326171	RECOG_RESP	n/a	LTP208	ltpFR	1	6	1	RUG	1215	1	n/a	0	n/a	n/a	n/a	n/a	n/a
3327134	RECOG_CONF	n/a	LTP208	ltpFR	1	6	1	RUG	1215	n/a	5	0	n/a	n/a	n/a	n/a	n/a
3329033	RECOG_TARGET	n/a	LTP208	ltpFR	1	6	-1	BLOSSOM	138	1	5	-1	n/a	n/a	n/a	n/a	n/a
3329808	RECOG_RESP	n/a	LTP208	ltpFR	1	6	-1	BLOSSOM	138	1	n/a	-1	n/a	n/a	n/a	n/a	n/a
3330856	RECOG_CONF	n/a	LTP208	ltpFR	1	6	-1	BLOSSOM	138	n/a	5	-1	n/a	n/a	n/a	n/a	n/a
3332830	RECOG_TARGET	n/a	LTP208	ltpFR	1	6	-1	BONE	148	1	5	-1	n/a	n/a	n/a	n/a	n/a
3333485	RECOG_RESP	n/a	LTP208	ltpFR	1	6	-1	BONE	148	1	n/a	-1	n/a	n/a	n/a	n/a	n/a
3334428	RECOG_CONF	n/a	LTP208	ltpFR	1	6	-1	BONE	148	n/a	5	-1	n/a	n/a	n/a	n/a	n/a
3336571	RECOG_TARGET	n/a	LTP208	ltpFR	1	6	0	COCOON	339	1	5	1	n/a	n/a	n/a	n/a	n/a
3337386	RECOG_RESP	n/a	LTP208	ltpFR	1	6	0	COCOON	339	1	n/a	1	n/a	n/a	n/a	n/a	n/a
3338498	RECOG_CONF	n/a	LTP208	ltpFR	1	6	0	COCOON	339	n/a	5	1	n/a	n/a	n/a	n/a	n/a
3340837	RECOG_TARGET	n/a	LTP208	ltpFR	1	6	1	SOCK	1339	1	5	0	n/a	n/a	n/a	n/a	n/a
3341626	RECOG_RESP	n/a	LTP208	ltpFR	1	6	1	SOCK	1339	1	n/a	0	n/a	n/a	n/a	n/a	n/a
3342858	RECOG_CONF	n/a	LTP208	ltpFR	1	6	1	SOCK	1339	n/a	5	0	n/a	n/a	n/a	n/a	n/a
3345154	RECOG_LURE	n/a	LTP208	ltpFR	1	6	n/a	PERMIT	1051	0	4	n/a	n/a	n/a	n/a	n/a	n/a
3346535	RECOG_RESP	n/a	LTP208	ltpFR	1	6	n/a	PERMIT	1051	0	n/a	n/a	n/a	n/a	n/a	n/a	n/a
3347807	RECOG_CONF	n/a	LTP208	ltpFR	1	6	n/a	PERMIT	1051	n/a	4	n/a	n/a	n/a	n/a	n/a	n/a
3349872	RECOG_LURE	n/a	LTP208	ltpFR	1	6	n/a	HUMAN	726	1	5	n/a	n/a	n/a	n/a	n/a	n/a
3350646	RECOG_RESP	n/a	LTP208	ltpFR	1	6	n/a	HUMAN	726	1	n/a	n/a	n/a	n/a	n/a	n/a	n/a
3351658	RECOG_CONF	n/a	LTP208	ltpFR	1	6	n/a	HUMAN	726	n/a	5	n/a	n/a	n/a	n/a	n/a	n/a
3353625	RECOG_TARGET	n/a	LTP208	ltpFR	1	6	1	FRIEND	606	1	5	3	n/a	n/a	n/a	n/a	n/a
3354542	RECOG_RESP	n/a	LTP208	ltpFR	1	6	1	FRIEND	606	1	n/a	3	n/a	n/a	n/a	n/a	n/a
3356198	RECOG_CONF	n/a	LTP208	ltpFR	1	6	1	FRIEND	606	n/a	5	3	n/a	n/a	n/a	n/a	n/a
3358270	RECOG_TARGET	n/a	LTP208	ltpFR	1	6	1	UNICORN	1538	1	4	1	n/a	n/a	n/a	n/a	n/a
3359466	RECOG_RESP	n/a	LTP208	ltpFR	1	6	1	UNICORN	1538	1	n/a	1	n/a	n/a	n/a	n/a	n/a
3360478	RECOG_CONF	n/a	LTP208	ltpFR	1	6	1	UNICORN	1538	n/a	4	1	n/a	n/a	n/a	n/a	n/a
3362759	RECOG_TARGET	n/a	LTP208	ltpFR	1	6	-1	GRASS	655	1	5	-1	n/a	n/a	n/a	n/a	n/a
3363646	RECOG_RESP	n/a	LTP208	ltpFR	1	6	-1	GRASS	655	1	n/a	-1	n/a	n/a	n/a	n/a	n/a
3364849	RECOG_CONF	n/a	LTP208	ltpFR	1	6	-1	GRASS	655	n/a	5	-1	n/a	n/a	n/a	n/a	n/a
3366903	RECOG_TARGET	n/a	LTP208	ltpFR	1	6	1	CHALK	276	1	5	0	n/a	n/a	n/a	n/a	n/a
3367872	RECOG_RESP	n/a	LTP208	ltpFR	1	6	1	CHALK	276	1	n/a	0	n/a	n/a	n/a	n/a	n/a
3368929	RECOG_CONF	n/a	LTP208	ltpFR	1	6	1	CHALK	276	n/a	5	0	n/a	n/a	n/a	n/a	n/a
3371091	RECOG_LURE	n/a	LTP208	ltpFR	1	6	n/a	CAULIFLOWER	262	1	4	n/a	n/a	n/a	n/a	n/a	n/a
3372302	RECOG_RESP	n/a	LTP208	ltpFR	1	6	n/a	CAULIFLOWER	262	1	n/a	n/a	n/a	n/a	n/a	n/a	n/a
3373619	RECOG_CONF	n/a	LTP208	ltpFR	1	6	n/a	CAULIFLOWER	262	n/a	4	n/a	n/a	n/a	n/a	n/a	n/a
3379429	REC_START	n/a	LTP208	ltpFR	1	7	n/a	n/a	n/a	n/a	n/a	n/a	n/a	n/a	n/a	n/a	n/a
3379483	RECOG_TARGET	n/a	LTP208	ltpFR	1	7	-1	CEILING	265	1	5	-1	n/a	n/a	n/a	n/a	n/a
3380816	RECOG_RESP	n/a	LTP208	ltpFR	1	7	-1	CEILING	265	1	n/a	-1	n/a	n/a	n/a	n/a	n/a
3381968	RECOG_CONF	n/a	LTP208	ltpFR	1	7	-1	CEILING	265	n/a	5	-1	n/a	n/a	n/a	n/a	n/a
3383832	RECOG_TARGET	n/a	LTP208	ltpFR	1	7	1	PARENT	1013	1	5	1	n/a	n/a	n/a	n/a	n/a
3384737	RECOG_RESP	n/a	LTP208	ltpFR	1	7	1	PARENT	1013	1	n/a	1	n/a	n/a	n/a	n/a	n/a
3385819	RECOG_CONF	n/a	LTP208	ltpFR	1	7	1	PARENT	1013	n/a	5	1	n/a	n/a	n/a	n/a	n/a
3387797	RECOG_LURE	n/a	LTP208	ltpFR	1	7	n/a	VISITOR	1573	0	4	n/a	n/a	n/a	n/a	n/a	n/a
3389167	RECOG_RESP	n/a	LTP208	ltpFR	1	7	n/a	VISITOR	1573	0	n/a	n/a	n/a	n/a	n/a	n/a	n/a
3390269	RECOG_CONF	n/a	LTP208	ltpFR	1	7	n/a	VISITOR	1573	n/a	4	n/a	n/a	n/a	n/a	n/a	n/a
3392188	RECOG_LURE	n/a	LTP208	ltpFR	1	7	n/a	CONSOLE	364	0	3	n/a	n/a	n/a	n/a	n/a	n/a
3393532	RECOG_RESP	n/a	LTP208	ltpFR	1	7	n/a	CONSOLE	364	0	n/a	n/a	n/a	n/a	n/a	n/a	n/a
3394699	RECOG_CONF	n/a	LTP208	ltpFR	1	7	n/a	CONSOLE	364	n/a	3	n/a	n/a	n/a	n/a	n/a	n/a
3396603	RECOG_LURE	n/a	LTP208	ltpFR	1	7	n/a	MAGNET	855	1	5	n/a	n/a	n/a	n/a	n/a	n/a
3397348	RECOG_RESP	n/a	LTP208	ltpFR	1	7	n/a	MAGNET	855	1	n/a	n/a	n/a	n/a	n/a	n/a	n/a
3398660	RECOG_CONF	n/a	LTP208	ltpFR	1	7	n/a	MAGNET	855	n/a	5	n/a	n/a	n/a	n/a	n/a	n/a
3400485	RECOG_LURE	n/a	LTP208	ltpFR	1	7	n/a	PANTS	1010	1	4	n/a	n/a	n/a	n/a	n/a	n/a
3401578	RECOG_RESP	n/a	LTP208	ltpFR	1	7	n/a	PANTS	1010	1	n/a	n/a	n/a	n/a	n/a	n/a	n/a
3402631	RECOG_CONF	n/a	LTP208	ltpFR	1	7	n/a	PANTS	1010	n/a	4	n/a	n/a	n/a	n/a	n/a	n/a
3404678	RECOG_TARGET	n/a	LTP208	ltpFR	1	7	1	SERVER	1272	1	5	1	n/a	n/a	n/a	n/a	n/a
3405874	RECOG_RESP	n/a	LTP208	ltpFR	1	7	1	SERVER	1272	1	n/a	1	n/a	n/a	n/a	n/a	n/a
3406911	RECOG_CONF	n/a	LTP208	ltpFR	1	7	1	SERVER	1272	n/a	5	1	n/a	n/a	n/a	n/a	n/a
3408827	RECOG_LURE	n/a	LTP208	ltpFR	1	7	n/a	MAILBOX	857	1	4	n/a	n/a	n/a	n/a	n/a	n/a
3410104	RECOG_RESP	n/a	LTP208	ltpFR	1	7	n/a	MAILBOX	857	1	n/a	n/a	n/a	n/a	n/a	n/a	n/a
3411521	RECOG_CONF	n/a	LTP208	ltpFR	1	7	n/a	MAILBOX	857	n/a	4	n/a	n/a	n/a	n/a	n/a	n/a
3413534	RECOG_LURE	n/a	LTP208	ltpFR	1	7	n/a	BULLET	194	1	3	n/a	n/a	n/a	n/a	n/a	n/a
3415527	RECOG_RESP	n/a	LTP208	ltpFR	1	7	n/a	BULLET	194	1	n/a	n/a	n/a	n/a	n/a	n/a	n/a
3416599	RECOG_CONF	n/a	LTP208	ltpFR	1	7	n/a	BULLET	194	n/a	3	n/a	n/a	n/a	n/a	n/a	n/a
3418502	RECOG_TARGET	n/a	LTP208	ltpFR	1	7	0	CAMEL	223	1	4	1	n/a	n/a	n/a	n/a	n/a
3419418	RECOG_RESP	n/a	LTP208	ltpFR	1	7	0	CAMEL	223	1	n/a	1	n/a	n/a	n/a	n/a	n/a
3420451	RECOG_CONF	n/a	LTP208	ltpFR	1	7	0	CAMEL	223	n/a	4	1	n/a	n/a	n/a	n/a	n/a
3422385	RECOG_TARGET	n/a	LTP208	ltpFR	1	7	-1	ASSOCIATE	49	1	5	-1	n/a	n/a	n/a	n/a	n/a
3423454	RECOG_RESP	n/a	LTP208	ltpFR	1	7	-1	ASSOCIATE	49	1	n/a	-1	n/a	n/a	n/a	n/a	n/a
3424392	RECOG_CONF	n/a	LTP208	ltpFR	1	7	-1	ASSOCIATE	49	n/a	5	-1	n/a	n/a	n/a	n/a	n/a
3426499	RECOG_TARGET	n/a	LTP208	ltpFR	1	7	1	HEEL	700	1	4	0	n/a	n/a	n/a	n/a	n/a
3427480	RECOG_RESP	n/a	LTP208	ltpFR	1	7	1	HEEL	700	1	n/a	0	n/a	n/a	n/a	n/a	n/a
3428432	RECOG_CONF	n/a	LTP208	ltpFR	1	7	1	HEEL	700	n/a	4	0	n/a	n/a	n/a	n/a	n/a
3430508	RECOG_TARGET	n/a	LTP208	ltpFR	1	7	0	THESAURUS	1454	1	5	1	n/a	n/a	n/a	n/a	n/a
3431505	RECOG_RESP	n/a	LTP208	ltpFR	1	7	0	THESAURUS	1454	1	n/a	1	n/a	n/a	n/a	n/a	n/a
3432364	RECOG_CONF	n/a	LTP208	ltpFR	1	7	0	THESAURUS	1454	n/a	5	1	n/a	n/a	n/a	n/a	n/a
3434280	RECOG_TARGET	n/a	LTP208	ltpFR	1	7	0	NUT	965	1	5	0	n/a	n/a	n/a	n/a	n/a
3435102	RECOG_RESP	n/a	LTP208	ltpFR	1	7	0	NUT	965	1	n/a	0	n/a	n/a	n/a	n/a	n/a
3436155	RECOG_CONF	n/a	LTP208	ltpFR	1	7	0	NUT	965	n/a	5	0	n/a	n/a	n/a	n/a	n/a
3437960	RECOG_LURE	n/a	LTP208	ltpFR	1	7	n/a	WHISTLE	1606	1	5	n/a	n/a	n/a	n/a	n/a	n/a
3438759	RECOG_RESP	n/a	LTP208	ltpFR	1	7	n/a	WHISTLE	1606	1	n/a	n/a	n/a	n/a	n/a	n/a	n/a
3439847	RECOG_CONF	n/a	LTP208	ltpFR	1	7	n/a	WHISTLE	1606	n/a	5	n/a	n/a	n/a	n/a	n/a	n/a
3441707	RECOG_TARGET	n/a	LTP208	ltpFR	1	7	0	BUTTERFLY	206	1	5	0	n/a	n/a	n/a	n/a	n/a
3442845	RECOG_RESP	n/a	LTP208	ltpFR	1	7	0	BUTTERFLY	206	1	n/a	0	n/a	n/a	n/a	n/a	n/a
3443997	RECOG_CONF	n/a	LTP208	ltpFR	1	7	0	BUTTERFLY	206	n/a	5	0	n/a	n/a	n/a	n/a	n/a
3445968	RECOG_TARGET	n/a	LTP208	ltpFR	1	7	1	MONARCH	906	1	5	1	n/a	n/a	n/a	n/a	n/a
3446821	RECOG_RESP	n/a	LTP208	ltpFR	1	7	1	MONARCH	906	1	n/a	1	n/a	n/a	n/a	n/a	n/a
3447689	RECOG_CONF	n/a	LTP208	ltpFR	1	7	1	MONARCH	906	n/a	5	1	n/a	n/a	n/a	n/a	n/a
3449714	RECOG_TARGET	n/a	LTP208	ltpFR	1	7	1	RACCOON	1153	1	5	1	n/a	n/a	n/a	n/a	n/a
3450772	RECOG_RESP	n/a	LTP208	ltpFR	1	7	1	RACCOON	1153	1	n/a	1	n/a	n/a	n/a	n/a	n/a
3451610	RECOG_CONF	n/a	LTP208	ltpFR	1	7	1	RACCOON	1153	n/a	5	1	n/a	n/a	n/a	n/a	n/a
3453368	RECOG_TARGET	n/a	LTP208	ltpFR	1	7	1	WEB	1598	1	4	0	n/a	n/a	n/a	n/a	n/a
3455541	RECOG_RESP	n/a	LTP208	ltpFR	1	7	1	WEB	1598	1	n/a	0	n/a	n/a	n/a	n/a	n/a
3456758	RECOG_CONF	n/a	LTP208	ltpFR	1	7	1	WEB	1598	n/a	4	0	n/a	n/a	n/a	n/a	n/a
3458553	RECOG_TARGET	n/a	LTP208	ltpFR	1	7	0	WATERFALL	1595	1	5	3	n/a	n/a	n/a	n/a	n/a
3459552	RECOG_RESP	n/a	LTP208	ltpFR	1	7	0	WATERFALL	1595	1	n/a	3	n/a	n/a	n/a	n/a	n/a
3460689	RECOG_CONF	n/a	LTP208	ltpFR	1	7	0	WATERFALL	1595	n/a	5	3	n/a	n/a	n/a	n/a	n/a
3466844	REC_START	n/a	LTP208	ltpFR	1	8	n/a	n/a	n/a	n/a	n/a	n/a	n/a	n/a	n/a	n/a	n/a
3466897	RECOG_TARGET	n/a	LTP208	ltpFR	1	8	-1	SCREW	1254	1	5	-1	n/a	n/a	n/a	n/a	n/a
3468096	RECOG_RESP	n/a	LTP208	ltpFR	1	8	-1	SCREW	1254	1	n/a	-1	n/a	n/a	n/a	n/a	n/a
3469164	RECOG_CONF	n/a	LTP208	ltpFR	1	8	-1	SCREW	1254	n/a	5	-1	n/a	n/a	n/a	n/a	n/a
3471185	RECOG_LURE	n/a	LTP208	ltpFR	1	8	n/a	PERISCOPE	1050	0	4	n/a	n/a	n/a	n/a	n/a	n/a
3472456	RECOG_RESP	n/a	LTP208	ltpFR	1	8	n/a	PERISCOPE	1050	0	n/a	n/a	n/a	n/a	n/a	n/a	n/a
3473444	RECOG_CONF	n/a	LTP208	ltpFR	1	8	n/a	PERISCOPE	1050	n/a	4	n/a	n/a	n/a	n/a	n/a	n/a
3475345	RECOG_TARGET	n/a	LTP208	ltpFR	1	8	0	CLERK	321	1	5	3	n/a	n/a	n/a	n/a	n/a
3476083	RECOG_RESP	n/a	LTP208	ltpFR	1	8	0	CLERK	321	1	n/a	3	n/a	n/a	n/a	n/a	n/a
3477285	RECOG_CONF	n/a	LTP208	ltpFR	1	8	0	CLERK	321	n/a	5	3	n/a	n/a	n/a	n/a	n/a
3479176	RECOG_LURE	n/a	LTP208	ltpFR	1	8	n/a	INCENSE	735	0	3	n/a	n/a	n/a	n/a	n/a	n/a
3480139	RECOG_RESP	n/a	LTP208	ltpFR	1	8	n/a	INCENSE	735	0	n/a	n/a	n/a	n/a	n/a	n/a	n/a
3481296	RECOG_CONF	n/a	LTP208	ltpFR	1	8	n/a	INCENSE	735	n/a	3	n/a	n/a	n/a	n/a	n/a	n/a
3483308	RECOG_TARGET	n/a	LTP208	ltpFR	1	8	0	TREASURE	1500	1	5	1	n/a	n/a	n/a	n/a	n/a
3484389	RECOG_RESP	n/a	LTP208	ltpFR	1	8	0	TREASURE	1500	1	n/a	1	n/a	n/a	n/a	n/a	n/a
3485327	RECOG_CONF	n/a	LTP208	ltpFR	1	8	0	TREASURE	1500	n/a	5	1	n/a	n/a	n/a	n/a	n/a
3487145	RECOG_TARGET	n/a	LTP208	ltpFR	1	8	0	GIRL	637	0	3	3	n/a	n/a	n/a	n/a	n/a
3488849	RECOG_RESP	n/a	LTP208	ltpFR	1	8	0	GIRL	637	0	n/a	3	n/a	n/a	n/a	n/a	n/a
3489986	RECOG_CONF	n/a	LTP208	ltpFR	1	8	0	GIRL	637	n/a	3	3	n/a	n/a	n/a	n/a	n/a
3491722	RECOG_TARGET	n/a	LTP208	ltpFR	1	8	0	BELT	120	1	5	1	n/a	n/a	n/a	n/a	n/a
3492930	RECOG_RESP	n/a	LTP208	ltpFR	1	8	0	BELT	120	1	n/a	1	n/a	n/a	n/a	n/a	n/a
3493947	RECOG_CONF	n/a	LTP208	ltpFR	1	8	0	BELT	120	n/a	5	1	n/a	n/a	n/a	n/a	n/a
3495693	RECOG_LURE	n/a	LTP208	ltpFR	1	8	n/a	MICROPHONE	890	1	4	n/a	n/a	n/a	n/a	n/a	n/a
3496541	RECOG_RESP	n/a	LTP208	ltpFR	1	8	n/a	MICROPHONE	890	1	n/a	n/a	n/a	n/a	n/a	n/a	n/a
3497559	RECOG_CONF	n/a	LTP208	ltpFR	1	8	n/a	MICROPHONE	890	n/a	4	n/a	n/a	n/a	n/a	n/a	n/a
3499441	RECOG_TARGET	n/a	LTP208	ltpFR	1	8	-1	CUPBOARD	425	1	5	-1	n/a	n/a	n/a	n/a	n/a
3500158	RECOG_RESP	n/a	LTP208	ltpFR	1	8	-1	CUPBOARD	425	1	n/a	-1	n/a	n/a	n/a	n/a	n/a
3501051	RECOG_CONF	n/a	LTP208	ltpFR	1	8	-1	CUPBOARD	425	n/a	5	-1	n/a	n/a	n/a	n/a	n/a
3502988	RECOG_LURE	n/a	LTP208	ltpFR	1	8	n/a	SODA	1341	0	3	n/a	n/a	n/a	n/a	n/a	n/a
3504094	RECOG_RESP	n/a	LTP208	ltpFR	1	8	n/a	SODA	1341	0	n/a	n/a	n/a	n/a	n/a	n/a	n/a
3505531	RECOG_CONF	n/a	LTP208	ltpFR	1	8	n/a	SODA	1341	n/a	3	n/a	n/a	n/a	n/a	n/a	n/a
3507321	RECOG_TARGET	n/a	LTP208	ltpFR	1	8	0	OPERATOR	979	1	5	1	n/a	n/a	n/a	n/a	n/a
