mstime	trial_type	stim_file	subject	experiment	session	trial	task	item_name	item_num	recog_resp	recog_conf	resp	answer	test_x	test_y	test_z	color_r	color_g	color_b	case	font
0	SESS_START	n/a	LTP284	ltpFR	14	n/a	n/a	n/a	n/a	0	5	n/a	n/a	0	0	0	n/a	n/a	n/a	n/a	n/a
26810	START	n/a	LTP284	ltpFR	14	n/a	n/a	n/a	n/a	n/a	n/a	n/a	n/a	n/a	n/a	n/a	n/a	n/a	n/a	n/a	n/a
26843	PROB	n/a	LTP284	ltpFR	14	n/a	n/a	n/a	n/a	n/a	n/a	n/a	12	5	3	4	n/a	n/a	n/a	n/a	n/a
29639	PROB	n/a	LTP284	ltpFR	14	n/a	n/a	n/a	n/a	n/a	n/a	n/a	9	5	1	3	n/a	n/a	n/a	n/a	n/a
31169	PROB	n/a	LTP284	ltpFR	14	n/a	n/a	n/a	n/a	n/a	n/a	n/a	24	6	9	9	n/a	n/a	n/a	n/a	n/a
33066	PROB	n/a	LTP284	ltpFR	14	n/a	n/a	n/a	n/a	n/a	n/a	n/a	14	3	6	5	n/a	n/a	n/a	n/a	n/a
34848	PROB	n/a	LTP284	ltpFR	14	n/a	n/a	n/a	n/a	n/a	n/a	n/a	23	9	8	5	n/a	n/a	n/a	n/a	n/a
37476	PROB	n/a	LTP284	ltpFR	14	n/a	n/a	n/a	n/a	n/a	n/a	n/a	17	4	8	5	n/a	n/a	n/a	n/a	n/a
39973	PROB	n/a	LTP284	ltpFR	14	n/a	n/a	n/a	n/a	n/a	n/a	n/a	11	2	5	4	n/a	n/a	n/a	n/a	n/a
41520	PROB	n/a	LTP284	ltpFR	14	n/a	n/a	n/a	n/a	n/a	n/a	n/a	21	9	9	3	n/a	n/a	n/a	n/a	n/a
43151	PROB	n/a	LTP284	ltpFR	14	n/a	n/a	n/a	n/a	n/a	n/a	n/a	7	3	3	1	n/a	n/a	n/a	n/a	n/a
46809	STOP	n/a	LTP284	ltpFR	14	n/a	n/a	n/a	n/a	n/a	n/a	n/a	n/a	n/a	n/a	n/a	n/a	n/a	n/a	n/a	n/a
70960	WORD	wordpools/wasnorm_wordpool_less_exclusions.txt	LTP284	ltpFR	14	1	0	CAR	241	1	n/a	1	n/a	0	0	0	0.57763671875	0.412841796875	1	upper	amplitud.ttf
75086	WORD	wordpools/wasnorm_wordpool_less_exclusions.txt	LTP284	ltpFR	14	1	0	SCARF	1246	0	n/a	0	n/a	0	0	0	0.57763671875	0.412841796875	1	upper	amplitud.ttf
79263	WORD	wordpools/wasnorm_wordpool_less_exclusions.txt	LTP284	ltpFR	14	1	0	ICEBERG	731	n/a	n/a	1	n/a	0	0	0	0.57763671875	0.412841796875	1	upper	amplitud.ttf
83241	WORD	wordpools/wasnorm_wordpool_less_exclusions.txt	LTP284	ltpFR	14	1	0	COYOTE	396	n/a	n/a	1	n/a	0	0	0	0.57763671875	0.412841796875	1	upper	amplitud.ttf
87235	WORD	wordpools/wasnorm_wordpool_less_exclusions.txt	LTP284	ltpFR	14	1	0	BARN	89	n/a	n/a	1	n/a	0	0	0	0.57763671875	0.412841796875	1	upper	amplitud.ttf
91262	WORD	wordpools/wasnorm_wordpool_less_exclusions.txt	LTP284	ltpFR	14	1	0	OUTFIT	988	n/a	n/a	1	n/a	0	0	0	0.57763671875	0.412841796875	1	upper	amplitud.ttf
95090	WORD	wordpools/wasnorm_wordpool_less_exclusions.txt	LTP284	ltpFR	14	1	0	HAYSTACK	694	n/a	n/a	1	n/a	0	0	0	0.57763671875	0.412841796875	1	upper	amplitud.ttf
99084	WORD	wordpools/wasnorm_wordpool_less_exclusions.txt	LTP284	ltpFR	14	1	0	MOSS	918	n/a	n/a	0	n/a	0	0	0	0.57763671875	0.412841796875	1	upper	amplitud.ttf
103244	WORD	wordpools/wasnorm_wordpool_less_exclusions.txt	LTP284	ltpFR	14	1	0	CACTUS	215	n/a	n/a	1	n/a	0	0	0	0.57763671875	0.412841796875	1	upper	amplitud.ttf
107122	WORD	wordpools/wasnorm_wordpool_less_exclusions.txt	LTP284	ltpFR	14	1	0	CHAUFFEUR	283	n/a	n/a	1	n/a	0	0	0	0.57763671875	0.412841796875	1	upper	amplitud.ttf
111299	WORD	wordpools/wasnorm_wordpool_less_exclusions.txt	LTP284	ltpFR	14	1	0	CHERRY	293	n/a	n/a	0	n/a	0	0	0	0.57763671875	0.412841796875	1	upper	amplitud.ttf
115326	WORD	wordpools/wasnorm_wordpool_less_exclusions.txt	LTP284	ltpFR	14	1	0	FINGER	567	n/a	n/a	0	n/a	0	0	0	0.57763671875	0.412841796875	1	upper	amplitud.ttf
119320	WORD	wordpools/wasnorm_wordpool_less_exclusions.txt	LTP284	ltpFR	14	1	0	GLOVE	642	n/a	n/a	0	n/a	0	0	0	0.57763671875	0.412841796875	1	upper	amplitud.ttf
123248	WORD	wordpools/wasnorm_wordpool_less_exclusions.txt	LTP284	ltpFR	14	1	0	PIGMENT	1066	n/a	n/a	0	n/a	0	0	0	0.57763671875	0.412841796875	1	upper	amplitud.ttf
127075	WORD	wordpools/wasnorm_wordpool_less_exclusions.txt	LTP284	ltpFR	14	1	0	COLLAR	345	n/a	n/a	0	n/a	0	0	0	0.57763671875	0.412841796875	1	upper	amplitud.ttf
131186	WORD	wordpools/wasnorm_wordpool_less_exclusions.txt	LTP284	ltpFR	14	1	0	SCAPEGOAT	1244	n/a	n/a	1	n/a	0	0	0	0.57763671875	0.412841796875	1	upper	amplitud.ttf
134198	START	n/a	LTP284	ltpFR	14	n/a	n/a	n/a	n/a	n/a	n/a	n/a	n/a	n/a	n/a	n/a	n/a	n/a	n/a	n/a	n/a
135163	PROB	n/a	LTP284	ltpFR	14	n/a	n/a	n/a	n/a	n/a	n/a	n/a	17	5	6	6	n/a	n/a	n/a	n/a	n/a
137160	PROB	n/a	LTP284	ltpFR	14	n/a	n/a	n/a	n/a	n/a	n/a	n/a	6	2	3	1	n/a	n/a	n/a	n/a	n/a
138292	PROB	n/a	LTP284	ltpFR	14	n/a	n/a	n/a	n/a	n/a	n/a	n/a	6	3	1	2	n/a	n/a	n/a	n/a	n/a
142198	STOP	n/a	LTP284	ltpFR	14	n/a	n/a	n/a	n/a	n/a	n/a	n/a	n/a	n/a	n/a	n/a	n/a	n/a	n/a	n/a	n/a
144002	REC_START	n/a	LTP284	ltpFR	14	1	n/a	n/a	n/a	n/a	n/a	n/a	n/a	0	0	0	n/a	n/a	n/a	n/a	n/a
146795	REC_WORD	wordpools/wasnorm_wordpool_less_exclusions.txt	LTP284	ltpFR	14	1	0	CAR	241	n/a	n/a	1	n/a	0	0	0	n/a	n/a	n/a	n/a	n/a
148053	REC_WORD	wordpools/wasnorm_wordpool_less_exclusions.txt	LTP284	ltpFR	14	1	0	SCARF	1246	n/a	n/a	0	n/a	0	0	0	n/a	n/a	n/a	n/a	n/a
149541	REC_WORD	wordpools/wasnorm_wordpool_less_exclusions.txt	LTP284	ltpFR	14	1	0	ICEBERG	731	n/a	n/a	1	n/a	0	0	0	n/a	n/a	n/a	n/a	n/a
150962	REC_WORD	wordpools/wasnorm_wordpool_less_exclusions.txt	LTP284	ltpFR	14	1	0	COYOTE	396	n/a	n/a	1	n/a	0	0	0	n/a	n/a	n/a	n/a	n/a
152645	REC_WORD	wordpools/wasnorm_wordpool_less_exclusions.txt	LTP284	ltpFR	14	1	0	OUTFIT	988	n/a	n/a	1	n/a	0	0	0	n/a	n/a	n/a	n/a	n/a
154116	REC_WORD	wordpools/wasnorm_wordpool_less_exclusions.txt	LTP284	ltpFR	14	1	0	BARN	89	n/a	n/a	1	n/a	0	0	0	n/a	n/a	n/a	n/a	n/a
155662	REC_WORD	wordpools/wasnorm_wordpool_less_exclusions.txt	LTP284	ltpFR	14	1	0	HAYSTACK	694	n/a	n/a	1	n/a	0	0	0	n/a	n/a	n/a	n/a	n/a
157151	REC_WORD	wordpools/wasnorm_wordpool_less_exclusions.txt	LTP284	ltpFR	14	1	0	MOSS	918	n/a	n/a	0	n/a	0	0	0	n/a	n/a	n/a	n/a	n/a
158553	REC_WORD	wordpools/wasnorm_wordpool_less_exclusions.txt	LTP284	ltpFR	14	1	0	CACTUS	215	n/a	n/a	1	n/a	0	0	0	n/a	n/a	n/a	n/a	n/a
160615	REC_WORD	wordpools/wasnorm_wordpool_less_exclusions.txt	LTP284	ltpFR	14	1	0	CHAUFFEUR	283	n/a	n/a	1	n/a	0	0	0	n/a	n/a	n/a	n/a	n/a
163044	REC_WORD	wordpools/wasnorm_wordpool_less_exclusions.txt	LTP284	ltpFR	14	1	0	CHERRY	293	n/a	n/a	0	n/a	0	0	0	n/a	n/a	n/a	n/a	n/a
165727	REC_WORD	wordpools/wasnorm_wordpool_less_exclusions.txt	LTP284	ltpFR	14	1	0	FINGER	567	n/a	n/a	0	n/a	0	0	0	n/a	n/a	n/a	n/a	n/a
167355	REC_WORD	wordpools/wasnorm_wordpool_less_exclusions.txt	LTP284	ltpFR	14	1	0	COYOTE	396	n/a	n/a	1	n/a	0	0	0	n/a	n/a	n/a	n/a	n/a
168707	REC_WORD	wordpools/wasnorm_wordpool_less_exclusions.txt	LTP284	ltpFR	14	1	0	GLOVE	642	n/a	n/a	0	n/a	0	0	0	n/a	n/a	n/a	n/a	n/a
170139	REC_WORD	wordpools/wasnorm_wordpool_less_exclusions.txt	LTP284	ltpFR	14	1	0	SCAPEGOAT	1244	n/a	n/a	1	n/a	0	0	0	n/a	n/a	n/a	n/a	n/a
187192	REC_WORD	wordpools/wasnorm_wordpool_less_exclusions.txt	LTP284	ltpFR	14	1	0	PIGMENT	1066	n/a	n/a	0	n/a	0	0	0	n/a	n/a	n/a	n/a	n/a
233034	START	n/a	LTP284	ltpFR	14	n/a	n/a	n/a	n/a	n/a	n/a	n/a	n/a	n/a	n/a	n/a	n/a	n/a	n/a	n/a	n/a
234548	PROB	n/a	LTP284	ltpFR	14	n/a	n/a	n/a	n/a	n/a	n/a	n/a	18	9	3	6	n/a	n/a	n/a	n/a	n/a
236796	PROB	n/a	LTP284	ltpFR	14	n/a	n/a	n/a	n/a	n/a	n/a	n/a	19	6	6	7	n/a	n/a	n/a	n/a	n/a
239957	STOP	n/a	LTP284	ltpFR	14	n/a	n/a	n/a	n/a	n/a	n/a	n/a	n/a	n/a	n/a	n/a	n/a	n/a	n/a	n/a	n/a
242154	WORD	wordpools/wasnorm_wordpool_less_exclusions.txt	LTP284	ltpFR	14	2	0	STEAM	1375	n/a	n/a	0	n/a	0	0	0	0.57763671875	0.412841796875	1	upper	amplitud.ttf
245166	START	n/a	LTP284	ltpFR	14	n/a	n/a	n/a	n/a	n/a	n/a	n/a	n/a	n/a	n/a	n/a	n/a	n/a	n/a	n/a	n/a
246281	PROB	n/a	LTP284	ltpFR	14	n/a	n/a	n/a	n/a	n/a	n/a	n/a	18	9	8	1	n/a	n/a	n/a	n/a	n/a
247412	PROB	n/a	LTP284	ltpFR	14	n/a	n/a	n/a	n/a	n/a	n/a	n/a	23	8	8	7	n/a	n/a	n/a	n/a	n/a
249910	PROB	n/a	LTP284	ltpFR	14	n/a	n/a	n/a	n/a	n/a	n/a	n/a	16	7	3	6	n/a	n/a	n/a	n/a	n/a
251523	PROB	n/a	LTP284	ltpFR	14	n/a	n/a	n/a	n/a	n/a	n/a	n/a	15	9	1	5	n/a	n/a	n/a	n/a	n/a
252820	STOP	n/a	LTP284	ltpFR	14	n/a	n/a	n/a	n/a	n/a	n/a	n/a	n/a	n/a	n/a	n/a	n/a	n/a	n/a	n/a	n/a
254136	WORD	wordpools/wasnorm_wordpool_less_exclusions.txt	LTP284	ltpFR	14	2	0	SCOUT	1252	n/a	n/a	1	n/a	0	0	0	0.57763671875	0.412841796875	1	upper	amplitud.ttf
257148	START	n/a	LTP284	ltpFR	14	n/a	n/a	n/a	n/a	n/a	n/a	n/a	n/a	n/a	n/a	n/a	n/a	n/a	n/a	n/a	n/a
258213	PROB	n/a	LTP284	ltpFR	14	n/a	n/a	n/a	n/a	n/a	n/a	n/a	20	5	6	9	n/a	n/a	n/a	n/a	n/a
260193	PROB	n/a	LTP284	ltpFR	14	n/a	n/a	n/a	n/a	n/a	n/a	n/a	23	8	6	9	n/a	n/a	n/a	n/a	n/a
262390	PROB	n/a	LTP284	ltpFR	14	n/a	n/a	n/a	n/a	n/a	n/a	n/a	11	5	3	3	n/a	n/a	n/a	n/a	n/a
263757	STOP	n/a	LTP284	ltpFR	14	n/a	n/a	n/a	n/a	n/a	n/a	n/a	n/a	n/a	n/a	n/a	n/a	n/a	n/a	n/a	n/a
266268	WORD	wordpools/wasnorm_wordpool_less_exclusions.txt	LTP284	ltpFR	14	2	0	TULIP	1517	n/a	n/a	0	n/a	0	0	0	0.57763671875	0.412841796875	1	upper	amplitud.ttf
269280	START	n/a	LTP284	ltpFR	14	n/a	n/a	n/a	n/a	n/a	n/a	n/a	n/a	n/a	n/a	n/a	n/a	n/a	n/a	n/a	n/a
270228	PROB	n/a	LTP284	ltpFR	14	n/a	n/a	n/a	n/a	n/a	n/a	n/a	21	6	7	8	n/a	n/a	n/a	n/a	n/a
272659	PROB	n/a	LTP284	ltpFR	14	n/a	n/a	n/a	n/a	n/a	n/a	n/a	19	2	9	8	n/a	n/a	n/a	n/a	n/a
275773	STOP	n/a	LTP284	ltpFR	14	n/a	n/a	n/a	n/a	n/a	n/a	n/a	n/a	n/a	n/a	n/a	n/a	n/a	n/a	n/a	n/a
278333	WORD	wordpools/wasnorm_wordpool_less_exclusions.txt	LTP284	ltpFR	14	2	0	LABYRINTH	791	n/a	n/a	0	n/a	0	0	0	0.57763671875	0.412841796875	1	upper	amplitud.ttf
281345	START	n/a	LTP284	ltpFR	14	n/a	n/a	n/a	n/a	n/a	n/a	n/a	n/a	n/a	n/a	n/a	n/a	n/a	n/a	n/a	n/a
282310	PROB	n/a	LTP284	ltpFR	14	n/a	n/a	n/a	n/a	n/a	n/a	n/a	19	6	9	4	n/a	n/a	n/a	n/a	n/a
284174	PROB	n/a	LTP284	ltpFR	14	n/a	n/a	n/a	n/a	n/a	n/a	n/a	17	1	8	8	n/a	n/a	n/a	n/a	n/a
285889	PROB	n/a	LTP284	ltpFR	14	n/a	n/a	n/a	n/a	n/a	n/a	n/a	11	2	4	5	n/a	n/a	n/a	n/a	n/a
289345	STOP	n/a	LTP284	ltpFR	14	n/a	n/a	n/a	n/a	n/a	n/a	n/a	n/a	n/a	n/a	n/a	n/a	n/a	n/a	n/a	n/a
290548	WORD	wordpools/wasnorm_wordpool_less_exclusions.txt	LTP284	ltpFR	14	2	0	VIDEO	1564	n/a	n/a	0	n/a	0	0	0	0.57763671875	0.412841796875	1	upper	amplitud.ttf
293562	START	n/a	LTP284	ltpFR	14	n/a	n/a	n/a	n/a	n/a	n/a	n/a	n/a	n/a	n/a	n/a	n/a	n/a	n/a	n/a	n/a
294560	PROB	n/a	LTP284	ltpFR	14	n/a	n/a	n/a	n/a	n/a	n/a	n/a	20	9	7	4	n/a	n/a	n/a	n/a	n/a
297371	PROB	n/a	LTP284	ltpFR	14	n/a	n/a	n/a	n/a	n/a	n/a	n/a	19	7	7	5	n/a	n/a	n/a	n/a	n/a
299335	PROB	n/a	LTP284	ltpFR	14	n/a	n/a	n/a	n/a	n/a	n/a	n/a	17	6	2	9	n/a	n/a	n/a	n/a	n/a
301508	STOP	n/a	LTP284	ltpFR	14	n/a	n/a	n/a	n/a	n/a	n/a	n/a	n/a	n/a	n/a	n/a	n/a	n/a	n/a	n/a	n/a
302463	WORD	wordpools/wasnorm_wordpool_less_exclusions.txt	LTP284	ltpFR	14	2	0	MEAT	883	n/a	n/a	0	n/a	0	0	0	0.57763671875	0.412841796875	1	upper	amplitud.ttf
305476	START	n/a	LTP284	ltpFR	14	n/a	n/a	n/a	n/a	n/a	n/a	n/a	n/a	n/a	n/a	n/a	n/a	n/a	n/a	n/a	n/a
306557	PROB	n/a	LTP284	ltpFR	14	n/a	n/a	n/a	n/a	n/a	n/a	n/a	15	9	2	4	n/a	n/a	n/a	n/a	n/a
308405	PROB	n/a	LTP284	ltpFR	14	n/a	n/a	n/a	n/a	n/a	n/a	n/a	25	8	9	8	n/a	n/a	n/a	n/a	n/a
313475	STOP	n/a	LTP284	ltpFR	14	n/a	n/a	n/a	n/a	n/a	n/a	n/a	n/a	n/a	n/a	n/a	n/a	n/a	n/a	n/a	n/a
314296	WORD	wordpools/wasnorm_wordpool_less_exclusions.txt	LTP284	ltpFR	14	2	0	BEEF	113	n/a	n/a	0	n/a	0	0	0	0.57763671875	0.412841796875	1	upper	amplitud.ttf
317308	START	n/a	LTP284	ltpFR	14	n/a	n/a	n/a	n/a	n/a	n/a	n/a	n/a	n/a	n/a	n/a	n/a	n/a	n/a	n/a	n/a
318506	PROB	n/a	LTP284	ltpFR	14	n/a	n/a	n/a	n/a	n/a	n/a	n/a	18	5	5	8	n/a	n/a	n/a	n/a	n/a
319656	PROB	n/a	LTP284	ltpFR	14	n/a	n/a	n/a	n/a	n/a	n/a	n/a	5	3	1	1	n/a	n/a	n/a	n/a	n/a
320920	PROB	n/a	LTP284	ltpFR	14	n/a	n/a	n/a	n/a	n/a	n/a	n/a	15	4	8	3	n/a	n/a	n/a	n/a	n/a
322517	PROB	n/a	LTP284	ltpFR	14	n/a	n/a	n/a	n/a	n/a	n/a	n/a	19	4	9	6	n/a	n/a	n/a	n/a	n/a
324364	STOP	n/a	LTP284	ltpFR	14	n/a	n/a	n/a	n/a	n/a	n/a	n/a	n/a	n/a	n/a	n/a	n/a	n/a	n/a	n/a	n/a
326478	WORD	wordpools/wasnorm_wordpool_less_exclusions.txt	LTP284	ltpFR	14	2	0	TORTOISE	1486	n/a	n/a	1	n/a	0	0	0	0.57763671875	0.412841796875	1	upper	amplitud.ttf
329490	START	n/a	LTP284	ltpFR	14	n/a	n/a	n/a	n/a	n/a	n/a	n/a	n/a	n/a	n/a	n/a	n/a	n/a	n/a	n/a	n/a
330639	PROB	n/a	LTP284	ltpFR	14	n/a	n/a	n/a	n/a	n/a	n/a	n/a	9	1	1	7	n/a	n/a	n/a	n/a	n/a
332236	PROB	n/a	LTP284	ltpFR	14	n/a	n/a	n/a	n/a	n/a	n/a	n/a	17	7	9	1	n/a	n/a	n/a	n/a	n/a
333784	PROB	n/a	LTP284	ltpFR	14	n/a	n/a	n/a	n/a	n/a	n/a	n/a	16	4	7	5	n/a	n/a	n/a	n/a	n/a
337489	STOP	n/a	LTP284	ltpFR	14	n/a	n/a	n/a	n/a	n/a	n/a	n/a	n/a	n/a	n/a	n/a	n/a	n/a	n/a	n/a	n/a
338611	WORD	wordpools/wasnorm_wordpool_less_exclusions.txt	LTP284	ltpFR	14	2	0	PUDDING	1139	n/a	n/a	0	n/a	0	0	0	0.57763671875	0.412841796875	1	upper	amplitud.ttf
341623	START	n/a	LTP284	ltpFR	14	n/a	n/a	n/a	n/a	n/a	n/a	n/a	n/a	n/a	n/a	n/a	n/a	n/a	n/a	n/a	n/a
342654	PROB	n/a	LTP284	ltpFR	14	n/a	n/a	n/a	n/a	n/a	n/a	n/a	17	5	6	6	n/a	n/a	n/a	n/a	n/a
344517	PROB	n/a	LTP284	ltpFR	14	n/a	n/a	n/a	n/a	n/a	n/a	n/a	24	6	7	9	n/a	n/a	n/a	n/a	n/a
347330	PROB	n/a	LTP284	ltpFR	14	n/a	n/a	n/a	n/a	n/a	n/a	n/a	12	3	7	2	n/a	n/a	n/a	n/a	n/a
348685	STOP	n/a	LTP284	ltpFR	14	n/a	n/a	n/a	n/a	n/a	n/a	n/a	n/a	n/a	n/a	n/a	n/a	n/a	n/a	n/a	n/a
350676	WORD	wordpools/wasnorm_wordpool_less_exclusions.txt	LTP284	ltpFR	14	2	0	ALBUM	14	n/a	n/a	0	n/a	0	0	0	0.57763671875	0.412841796875	1	upper	amplitud.ttf
353688	START	n/a	LTP284	ltpFR	14	n/a	n/a	n/a	n/a	n/a	n/a	n/a	n/a	n/a	n/a	n/a	n/a	n/a	n/a	n/a	n/a
354770	PROB	n/a	LTP284	ltpFR	14	n/a	n/a	n/a	n/a	n/a	n/a	n/a	16	5	3	8	n/a	n/a	n/a	n/a	n/a
356034	PROB	n/a	LTP284	ltpFR	14	n/a	n/a	n/a	n/a	n/a	n/a	n/a	11	6	4	1	n/a	n/a	n/a	n/a	n/a
357865	PROB	n/a	LTP284	ltpFR	14	n/a	n/a	n/a	n/a	n/a	n/a	n/a	12	3	3	6	n/a	n/a	n/a	n/a	n/a
359929	PROB	n/a	LTP284	ltpFR	14	n/a	n/a	n/a	n/a	n/a	n/a	n/a	16	6	5	5	n/a	n/a	n/a	n/a	n/a
361244	STOP	n/a	LTP284	ltpFR	14	n/a	n/a	n/a	n/a	n/a	n/a	n/a	n/a	n/a	n/a	n/a	n/a	n/a	n/a	n/a	n/a
362725	WORD	wordpools/wasnorm_wordpool_less_exclusions.txt	LTP284	ltpFR	14	2	0	HOSE	720	n/a	n/a	0	n/a	0	0	0	0.57763671875	0.412841796875	1	upper	amplitud.ttf
365737	START	n/a	LTP284	ltpFR	14	n/a	n/a	n/a	n/a	n/a	n/a	n/a	n/a	n/a	n/a	n/a	n/a	n/a	n/a	n/a	n/a
366652	PROB	n/a	LTP284	ltpFR	14	n/a	n/a	n/a	n/a	n/a	n/a	n/a	18	6	5	7	n/a	n/a	n/a	n/a	n/a
369280	PROB	n/a	LTP284	ltpFR	14	n/a	n/a	n/a	n/a	n/a	n/a	n/a	20	6	7	7	n/a	n/a	n/a	n/a	n/a
371294	PROB	n/a	LTP284	ltpFR	14	n/a	n/a	n/a	n/a	n/a	n/a	n/a	17	3	6	8	n/a	n/a	n/a	n/a	n/a
372805	STOP	n/a	LTP284	ltpFR	14	n/a	n/a	n/a	n/a	n/a	n/a	n/a	n/a	n/a	n/a	n/a	n/a	n/a	n/a	n/a	n/a
374740	WORD	wordpools/wasnorm_wordpool_less_exclusions.txt	LTP284	ltpFR	14	2	0	BLOSSOM	138	n/a	n/a	0	n/a	0	0	0	0.57763671875	0.412841796875	1	upper	amplitud.ttf
377753	START	n/a	LTP284	ltpFR	14	n/a	n/a	n/a	n/a	n/a	n/a	n/a	n/a	n/a	n/a	n/a	n/a	n/a	n/a	n/a	n/a
378751	PROB	n/a	LTP284	ltpFR	14	n/a	n/a	n/a	n/a	n/a	n/a	n/a	23	9	9	5	n/a	n/a	n/a	n/a	n/a
380781	PROB	n/a	LTP284	ltpFR	14	n/a	n/a	n/a	n/a	n/a	n/a	n/a	12	5	4	3	n/a	n/a	n/a	n/a	n/a
382728	PROB	n/a	LTP284	ltpFR	14	n/a	n/a	n/a	n/a	n/a	n/a	n/a	19	4	6	9	n/a	n/a	n/a	n/a	n/a
384404	STOP	n/a	LTP284	ltpFR	14	n/a	n/a	n/a	n/a	n/a	n/a	n/a	n/a	n/a	n/a	n/a	n/a	n/a	n/a	n/a	n/a
386572	WORD	wordpools/wasnorm_wordpool_less_exclusions.txt	LTP284	ltpFR	14	2	0	BEAVER	109	n/a	n/a	1	n/a	0	0	0	0.57763671875	0.412841796875	1	upper	amplitud.ttf
389585	START	n/a	LTP284	ltpFR	14	n/a	n/a	n/a	n/a	n/a	n/a	n/a	n/a	n/a	n/a	n/a	n/a	n/a	n/a	n/a	n/a
390649	PROB	n/a	LTP284	ltpFR	14	n/a	n/a	n/a	n/a	n/a	n/a	n/a	14	5	8	1	n/a	n/a	n/a	n/a	n/a
392529	PROB	n/a	LTP284	ltpFR	14	n/a	n/a	n/a	n/a	n/a	n/a	n/a	24	9	9	6	n/a	n/a	n/a	n/a	n/a
394560	PROB	n/a	LTP284	ltpFR	14	n/a	n/a	n/a	n/a	n/a	n/a	n/a	11	3	1	7	n/a	n/a	n/a	n/a	n/a
395825	PROB	n/a	LTP284	ltpFR	14	n/a	n/a	n/a	n/a	n/a	n/a	n/a	9	7	1	1	n/a	n/a	n/a	n/a	n/a
397084	STOP	n/a	LTP284	ltpFR	14	n/a	n/a	n/a	n/a	n/a	n/a	n/a	n/a	n/a	n/a	n/a	n/a	n/a	n/a	n/a	n/a
398503	WORD	wordpools/wasnorm_wordpool_less_exclusions.txt	LTP284	ltpFR	14	2	0	SCREW	1254	n/a	n/a	0	n/a	0	0	0	0.57763671875	0.412841796875	1	upper	amplitud.ttf
401516	START	n/a	LTP284	ltpFR	14	n/a	n/a	n/a	n/a	n/a	n/a	n/a	n/a	n/a	n/a	n/a	n/a	n/a	n/a	n/a	n/a
402715	PROB	n/a	LTP284	ltpFR	14	n/a	n/a	n/a	n/a	n/a	n/a	n/a	13	1	4	8	n/a	n/a	n/a	n/a	n/a
404629	PROB	n/a	LTP284	ltpFR	14	n/a	n/a	n/a	n/a	n/a	n/a	n/a	13	2	4	7	n/a	n/a	n/a	n/a	n/a
406258	PROB	n/a	LTP284	ltpFR	14	n/a	n/a	n/a	n/a	n/a	n/a	n/a	20	4	9	7	n/a	n/a	n/a	n/a	n/a
408244	STOP	n/a	LTP284	ltpFR	14	n/a	n/a	n/a	n/a	n/a	n/a	n/a	n/a	n/a	n/a	n/a	n/a	n/a	n/a	n/a	n/a
410653	WORD	wordpools/wasnorm_wordpool_less_exclusions.txt	LTP284	ltpFR	14	2	0	RACKET	1155	n/a	n/a	1	n/a	0	0	0	0.57763671875	0.412841796875	1	upper	amplitud.ttf
413665	START	n/a	LTP284	ltpFR	14	n/a	n/a	n/a	n/a	n/a	n/a	n/a	n/a	n/a	n/a	n/a	n/a	n/a	n/a	n/a	n/a
414546	PROB	n/a	LTP284	ltpFR	14	n/a	n/a	n/a	n/a	n/a	n/a	n/a	17	7	2	8	n/a	n/a	n/a	n/a	n/a
416827	PROB	n/a	LTP284	ltpFR	14	n/a	n/a	n/a	n/a	n/a	n/a	n/a	20	9	5	6	n/a	n/a	n/a	n/a	n/a
418440	PROB	n/a	LTP284	ltpFR	14	n/a	n/a	n/a	n/a	n/a	n/a	n/a	23	9	8	6	n/a	n/a	n/a	n/a	n/a
421212	STOP	n/a	LTP284	ltpFR	14	n/a	n/a	n/a	n/a	n/a	n/a	n/a	n/a	n/a	n/a	n/a	n/a	n/a	n/a	n/a	n/a
422818	WORD	wordpools/wasnorm_wordpool_less_exclusions.txt	LTP284	ltpFR	14	2	0	GORILLA	650	n/a	n/a	1	n/a	0	0	0	0.57763671875	0.412841796875	1	upper	amplitud.ttf
425831	START	n/a	LTP284	ltpFR	14	n/a	n/a	n/a	n/a	n/a	n/a	n/a	n/a	n/a	n/a	n/a	n/a	n/a	n/a	n/a	n/a
426779	PROB	n/a	LTP284	ltpFR	14	n/a	n/a	n/a	n/a	n/a	n/a	n/a	15	1	9	5	n/a	n/a	n/a	n/a	n/a
428226	PROB	n/a	LTP284	ltpFR	14	n/a	n/a	n/a	n/a	n/a	n/a	n/a	13	2	6	5	n/a	n/a	n/a	n/a	n/a
430489	PROB	n/a	LTP284	ltpFR	14	n/a	n/a	n/a	n/a	n/a	n/a	n/a	22	4	9	9	n/a	n/a	n/a	n/a	n/a
432332	STOP	n/a	LTP284	ltpFR	14	n/a	n/a	n/a	n/a	n/a	n/a	n/a	n/a	n/a	n/a	n/a	n/a	n/a	n/a	n/a	n/a
435733	REC_START	n/a	LTP284	ltpFR	14	2	n/a	n/a	n/a	n/a	n/a	n/a	n/a	0	0	0	n/a	n/a	n/a	n/a	n/a
438936	REC_WORD_VV	wordpools/wasnorm_wordpool_less_exclusions.txt	LTP284	ltpFR	14	2	n/a	<>	-1	n/a	n/a	n/a	n/a	0	0	0	n/a	n/a	n/a	n/a	n/a
443857	REC_WORD	wordpools/wasnorm_wordpool_less_exclusions.txt	LTP284	ltpFR	14	2	0	SCOUT	1252	n/a	n/a	1	n/a	0	0	0	n/a	n/a	n/a	n/a	n/a
445599	REC_WORD	wordpools/wasnorm_wordpool_less_exclusions.txt	LTP284	ltpFR	14	2	0	STEAM	1375	n/a	n/a	0	n/a	0	0	0	n/a	n/a	n/a	n/a	n/a
447174	REC_WORD	wordpools/wasnorm_wordpool_less_exclusions.txt	LTP284	ltpFR	14	2	0	VIDEO	1564	n/a	n/a	0	n/a	0	0	0	n/a	n/a	n/a	n/a	n/a
448629	REC_WORD	wordpools/wasnorm_wordpool_less_exclusions.txt	LTP284	ltpFR	14	2	0	TULIP	1517	n/a	n/a	0	n/a	0	0	0	n/a	n/a	n/a	n/a	n/a
450304	REC_WORD_VV	wordpools/wasnorm_wordpool_less_exclusions.txt	LTP284	ltpFR	14	2	n/a	<>	-1	n/a	n/a	n/a	n/a	0	0	0	n/a	n/a	n/a	n/a	n/a
450798	REC_WORD	wordpools/wasnorm_wordpool_less_exclusions.txt	LTP284	ltpFR	14	2	0	TORTOISE	1486	n/a	n/a	1	n/a	0	0	0	n/a	n/a	n/a	n/a	n/a
452518	REC_WORD	wordpools/wasnorm_wordpool_less_exclusions.txt	LTP284	ltpFR	14	2	0	PUDDING	1139	n/a	n/a	0	n/a	0	0	0	n/a	n/a	n/a	n/a	n/a
454775	REC_WORD	wordpools/wasnorm_wordpool_less_exclusions.txt	LTP284	ltpFR	14	2	0	MEAT	883	n/a	n/a	0	n/a	0	0	0	n/a	n/a	n/a	n/a	n/a
456073	REC_WORD	wordpools/wasnorm_wordpool_less_exclusions.txt	LTP284	ltpFR	14	2	0	BEEF	113	n/a	n/a	0	n/a	0	0	0	n/a	n/a	n/a	n/a	n/a
458294	REC_WORD	wordpools/wasnorm_wordpool_less_exclusions.txt	LTP284	ltpFR	14	2	0	HOSE	720	n/a	n/a	0	n/a	0	0	0	n/a	n/a	n/a	n/a	n/a
460092	REC_WORD	wordpools/wasnorm_wordpool_less_exclusions.txt	LTP284	ltpFR	14	2	0	ALBUM	14	n/a	n/a	0	n/a	0	0	0	n/a	n/a	n/a	n/a	n/a
461583	REC_WORD	wordpools/wasnorm_wordpool_less_exclusions.txt	LTP284	ltpFR	14	2	0	BLOSSOM	138	n/a	n/a	0	n/a	0	0	0	n/a	n/a	n/a	n/a	n/a
463254	REC_WORD	wordpools/wasnorm_wordpool_less_exclusions.txt	LTP284	ltpFR	14	2	0	BEAVER	109	n/a	n/a	1	n/a	0	0	0	n/a	n/a	n/a	n/a	n/a
464543	REC_WORD	wordpools/wasnorm_wordpool_less_exclusions.txt	LTP284	ltpFR	14	2	0	SCREW	1254	n/a	n/a	0	n/a	0	0	0	n/a	n/a	n/a	n/a	n/a
466224	REC_WORD	wordpools/wasnorm_wordpool_less_exclusions.txt	LTP284	ltpFR	14	2	0	RACKET	1155	n/a	n/a	1	n/a	0	0	0	n/a	n/a	n/a	n/a	n/a
468325	REC_WORD	wordpools/wasnorm_wordpool_less_exclusions.txt	LTP284	ltpFR	14	2	0	GORILLA	650	n/a	n/a	1	n/a	0	0	0	n/a	n/a	n/a	n/a	n/a
526963	WORD	wordpools/wasnorm_wordpool_less_exclusions.txt	LTP284	ltpFR	14	3	1	EARTH	515	n/a	n/a	1	n/a	0	0	0	0.422607421875	0.5869140625	0	lower	zerothre.ttf
530990	WORD	wordpools/wasnorm_wordpool_less_exclusions.txt	LTP284	ltpFR	14	3	1	SUPERMARKET	1409	n/a	n/a	0	n/a	0	0	0	0.422607421875	0.5869140625	0	lower	zerothre.ttf
534834	WORD	wordpools/wasnorm_wordpool_less_exclusions.txt	LTP284	ltpFR	14	3	1	BUCKLE	185	n/a	n/a	0	n/a	0	0	0	0.422607421875	0.5869140625	0	lower	zerothre.ttf
538895	WORD	wordpools/wasnorm_wordpool_less_exclusions.txt	LTP284	ltpFR	14	3	1	RECEPTIONIST	1174	n/a	n/a	1	n/a	0	0	0	0.422607421875	0.5869140625	0	lower	zerothre.ttf
542772	WORD	wordpools/wasnorm_wordpool_less_exclusions.txt	LTP284	ltpFR	14	3	1	LIVER	833	n/a	n/a	1	n/a	0	0	0	0.422607421875	0.5869140625	0	lower	zerothre.ttf
546750	WORD	wordpools/wasnorm_wordpool_less_exclusions.txt	LTP284	ltpFR	14	3	1	BROCCOLI	176	n/a	n/a	1	n/a	0	0	0	0.422607421875	0.5869140625	0	lower	zerothre.ttf
550827	WORD	wordpools/wasnorm_wordpool_less_exclusions.txt	LTP284	ltpFR	14	3	1	FLASK	576	n/a	n/a	0	n/a	0	0	0	0.422607421875	0.5869140625	0	lower	zerothre.ttf
554738	WORD	wordpools/wasnorm_wordpool_less_exclusions.txt	LTP284	ltpFR	14	3	1	POSSUM	1112	n/a	n/a	1	n/a	0	0	0	0.422607421875	0.5869140625	0	lower	zerothre.ttf
558715	WORD	wordpools/wasnorm_wordpool_less_exclusions.txt	LTP284	ltpFR	14	3	1	LAPEL	800	n/a	n/a	0	n/a	0	0	0	0.422607421875	0.5869140625	0	lower	zerothre.ttf
562859	WORD	wordpools/wasnorm_wordpool_less_exclusions.txt	LTP284	ltpFR	14	3	1	JUPITER	765	n/a	n/a	0	n/a	0	0	0	0.422607421875	0.5869140625	0	lower	zerothre.ttf
567035	WORD	wordpools/wasnorm_wordpool_less_exclusions.txt	LTP284	ltpFR	14	3	1	FISH	571	n/a	n/a	1	n/a	0	0	0	0.422607421875	0.5869140625	0	lower	zerothre.ttf
571162	WORD	wordpools/wasnorm_wordpool_less_exclusions.txt	LTP284	ltpFR	14	3	1	BAIT	70	n/a	n/a	1	n/a	0	0	0	0.422607421875	0.5869140625	0	lower	zerothre.ttf
574991	WORD	wordpools/wasnorm_wordpool_less_exclusions.txt	LTP284	ltpFR	14	3	1	TOMATO	1476	n/a	n/a	1	n/a	0	0	0	0.422607421875	0.5869140625	0	lower	zerothre.ttf
578952	WORD	wordpools/wasnorm_wordpool_less_exclusions.txt	LTP284	ltpFR	14	3	1	WORKER	1621	n/a	n/a	1	n/a	0	0	0	0.422607421875	0.5869140625	0	lower	zerothre.ttf
582896	WORD	wordpools/wasnorm_wordpool_less_exclusions.txt	LTP284	ltpFR	14	3	1	CAPTAIN	239	n/a	n/a	1	n/a	0	0	0	0.422607421875	0.5869140625	0	lower	zerothre.ttf
587105	WORD	wordpools/wasnorm_wordpool_less_exclusions.txt	LTP284	ltpFR	14	3	1	PIER	1063	n/a	n/a	0	n/a	0	0	0	0.422607421875	0.5869140625	0	lower	zerothre.ttf
590117	START	n/a	LTP284	ltpFR	14	n/a	n/a	n/a	n/a	n/a	n/a	n/a	n/a	n/a	n/a	n/a	n/a	n/a	n/a	n/a	n/a
591132	PROB	n/a	LTP284	ltpFR	14	n/a	n/a	n/a	n/a	n/a	n/a	n/a	6	2	3	1	n/a	n/a	n/a	n/a	n/a
592981	PROB	n/a	LTP284	ltpFR	14	n/a	n/a	n/a	n/a	n/a	n/a	n/a	15	3	5	7	n/a	n/a	n/a	n/a	n/a
598116	STOP	n/a	LTP284	ltpFR	14	n/a	n/a	n/a	n/a	n/a	n/a	n/a	n/a	n/a	n/a	n/a	n/a	n/a	n/a	n/a	n/a
600021	REC_START	n/a	LTP284	ltpFR	14	3	n/a	n/a	n/a	n/a	n/a	n/a	n/a	0	0	0	n/a	n/a	n/a	n/a	n/a
601751	REC_WORD	wordpools/wasnorm_wordpool_less_exclusions.txt	LTP284	ltpFR	14	3	1	EARTH	515	n/a	n/a	1	n/a	0	0	0	n/a	n/a	n/a	n/a	n/a
606253	REC_WORD	wordpools/wasnorm_wordpool_less_exclusions.txt	LTP284	ltpFR	14	3	1	SUPERMARKET	1409	n/a	n/a	0	n/a	0	0	0	n/a	n/a	n/a	n/a	n/a
608058	REC_WORD	wordpools/wasnorm_wordpool_less_exclusions.txt	LTP284	ltpFR	14	3	1	BUCKLE	185	n/a	n/a	0	n/a	0	0	0	n/a	n/a	n/a	n/a	n/a
609339	REC_WORD	wordpools/wasnorm_wordpool_less_exclusions.txt	LTP284	ltpFR	14	3	1	RECEPTIONIST	1174	n/a	n/a	1	n/a	0	0	0	n/a	n/a	n/a	n/a	n/a
610957	REC_WORD	wordpools/wasnorm_wordpool_less_exclusions.txt	LTP284	ltpFR	14	3	1	LIVER	833	n/a	n/a	1	n/a	0	0	0	n/a	n/a	n/a	n/a	n/a
612297	REC_WORD	wordpools/wasnorm_wordpool_less_exclusions.txt	LTP284	ltpFR	14	3	1	BROCCOLI	176	n/a	n/a	1	n/a	0	0	0	n/a	n/a	n/a	n/a	n/a
613764	REC_WORD	wordpools/wasnorm_wordpool_less_exclusions.txt	LTP284	ltpFR	14	3	1	POSSUM	1112	n/a	n/a	1	n/a	0	0	0	n/a	n/a	n/a	n/a	n/a
615461	REC_WORD	wordpools/wasnorm_wordpool_less_exclusions.txt	LTP284	ltpFR	14	3	1	LAPEL	800	n/a	n/a	0	n/a	0	0	0	n/a	n/a	n/a	n/a	n/a
621032	REC_WORD_VV	wordpools/wasnorm_wordpool_less_exclusions.txt	LTP284	ltpFR	14	3	n/a	<>	-1	n/a	n/a	n/a	n/a	0	0	0	n/a	n/a	n/a	n/a	n/a
624157	REC_WORD	wordpools/wasnorm_wordpool_less_exclusions.txt	LTP284	ltpFR	14	3	1	TOMATO	1476	n/a	n/a	1	n/a	0	0	0	n/a	n/a	n/a	n/a	n/a
625272	REC_WORD	wordpools/wasnorm_wordpool_less_exclusions.txt	LTP284	ltpFR	14	3	1	FISH	571	n/a	n/a	1	n/a	0	0	0	n/a	n/a	n/a	n/a	n/a
626732	REC_WORD	wordpools/wasnorm_wordpool_less_exclusions.txt	LTP284	ltpFR	14	3	1	BAIT	70	n/a	n/a	1	n/a	0	0	0	n/a	n/a	n/a	n/a	n/a
627936	REC_WORD	wordpools/wasnorm_wordpool_less_exclusions.txt	LTP284	ltpFR	14	3	1	PIER	1063	n/a	n/a	0	n/a	0	0	0	n/a	n/a	n/a	n/a	n/a
630378	REC_WORD	wordpools/wasnorm_wordpool_less_exclusions.txt	LTP284	ltpFR	14	3	1	JUPITER	765	n/a	n/a	0	n/a	0	0	0	n/a	n/a	n/a	n/a	n/a
633627	REC_WORD	wordpools/wasnorm_wordpool_less_exclusions.txt	LTP284	ltpFR	14	3	1	WORKER	1621	n/a	n/a	1	n/a	0	0	0	n/a	n/a	n/a	n/a	n/a
684343	WORD	wordpools/wasnorm_wordpool_less_exclusions.txt	LTP284	ltpFR	14	4	1	STEWARDESS	1381	n/a	n/a	1	n/a	0	0	0	0.422607421875	0.5869140625	0	lower	zerothre.ttf
688454	WORD	wordpools/wasnorm_wordpool_less_exclusions.txt	LTP284	ltpFR	14	4	1	EAGLE	512	n/a	n/a	1	n/a	0	0	0	0.422607421875	0.5869140625	0	lower	zerothre.ttf
692431	WORD	wordpools/wasnorm_wordpool_less_exclusions.txt	LTP284	ltpFR	14	4	1	VALVE	1546	n/a	n/a	0	n/a	0	0	0	0.422607421875	0.5869140625	0	lower	zerothre.ttf
696593	WORD	wordpools/wasnorm_wordpool_less_exclusions.txt	LTP284	ltpFR	14	4	1	BATTERY	101	n/a	n/a	0	n/a	0	0	0	0.422607421875	0.5869140625	0	lower	zerothre.ttf
700803	WORD	wordpools/wasnorm_wordpool_less_exclusions.txt	LTP284	ltpFR	14	4	1	BUGGY	188	n/a	n/a	0	n/a	0	0	0	0.422607421875	0.5869140625	0	lower	zerothre.ttf
704963	WORD	wordpools/wasnorm_wordpool_less_exclusions.txt	LTP284	ltpFR	14	4	1	SCALE	1241	n/a	n/a	0	n/a	0	0	0	0.422607421875	0.5869140625	0	lower	zerothre.ttf
709156	WORD	wordpools/wasnorm_wordpool_less_exclusions.txt	LTP284	ltpFR	14	4	0	TECHNICIAN	1443	n/a	n/a	1	n/a	0	0	0	0.57763671875	0.412841796875	1	upper	amplitud.ttf
713300	WORD	wordpools/wasnorm_wordpool_less_exclusions.txt	LTP284	ltpFR	14	4	0	BLANKET	135	n/a	n/a	0	n/a	0	0	0	0.57763671875	0.412841796875	1	upper	amplitud.ttf
717294	WORD	wordpools/wasnorm_wordpool_less_exclusions.txt	LTP284	ltpFR	14	4	0	TRUCK	1512	n/a	n/a	1	n/a	0	0	0	0.57763671875	0.412841796875	1	upper	amplitud.ttf
721122	WORD	wordpools/wasnorm_wordpool_less_exclusions.txt	LTP284	ltpFR	14	4	0	KITTEN	780	n/a	n/a	0	n/a	0	0	0	0.57763671875	0.412841796875	1	upper	amplitud.ttf
725182	WORD	wordpools/wasnorm_wordpool_less_exclusions.txt	LTP284	ltpFR	14	4	0	SPINACH	1352	n/a	n/a	0	n/a	0	0	0	0.57763671875	0.412841796875	1	upper	amplitud.ttf
729259	WORD	wordpools/wasnorm_wordpool_less_exclusions.txt	LTP284	ltpFR	14	4	1	BEAN	105	n/a	n/a	1	n/a	0	0	0	0.422607421875	0.5869140625	0	lower	zerothre.ttf
733287	WORD	wordpools/wasnorm_wordpool_less_exclusions.txt	LTP284	ltpFR	14	4	1	DINNER	468	n/a	n/a	0	n/a	0	0	0	0.422607421875	0.5869140625	0	lower	zerothre.ttf
737214	WORD	wordpools/wasnorm_wordpool_less_exclusions.txt	LTP284	ltpFR	14	4	0	QUILT	1151	n/a	n/a	1	n/a	0	0	0	0.57763671875	0.412841796875	1	upper	amplitud.ttf
741358	WORD	wordpools/wasnorm_wordpool_less_exclusions.txt	LTP284	ltpFR	14	4	0	ACROBAT	4	n/a	n/a	1	n/a	0	0	0	0.57763671875	0.412841796875	1	upper	amplitud.ttf
745319	WORD	wordpools/wasnorm_wordpool_less_exclusions.txt	LTP284	ltpFR	14	4	0	TURNIP	1521	n/a	n/a	0	n/a	0	0	0	0.57763671875	0.412841796875	1	upper	amplitud.ttf
750929	REC_START	n/a	LTP284	ltpFR	14	4	n/a	n/a	n/a	n/a	n/a	n/a	n/a	0	0	0	n/a	n/a	n/a	n/a	n/a
753488	REC_WORD	wordpools/wasnorm_wordpool_less_exclusions.txt	LTP284	ltpFR	14	4	1	STEWARDESS	1381	n/a	n/a	1	n/a	0	0	0	n/a	n/a	n/a	n/a	n/a
755021	REC_WORD	wordpools/wasnorm_wordpool_less_exclusions.txt	LTP284	ltpFR	14	4	1	EAGLE	512	n/a	n/a	1	n/a	0	0	0	n/a	n/a	n/a	n/a	n/a
756263	REC_WORD	wordpools/wasnorm_wordpool_less_exclusions.txt	LTP284	ltpFR	14	4	1	VALVE	1546	n/a	n/a	0	n/a	0	0	0	n/a	n/a	n/a	n/a	n/a
757680	REC_WORD	wordpools/wasnorm_wordpool_less_exclusions.txt	LTP284	ltpFR	14	4	1	BATTERY	101	n/a	n/a	0	n/a	0	0	0	n/a	n/a	n/a	n/a	n/a
759136	REC_WORD	wordpools/wasnorm_wordpool_less_exclusions.txt	LTP284	ltpFR	14	4	1	BUGGY	188	n/a	n/a	0	n/a	0	0	0	n/a	n/a	n/a	n/a	n/a
760422	REC_WORD	wordpools/wasnorm_wordpool_less_exclusions.txt	LTP284	ltpFR	14	4	0	TECHNICIAN	1443	n/a	n/a	1	n/a	0	0	0	n/a	n/a	n/a	n/a	n/a
762314	REC_WORD	wordpools/wasnorm_wordpool_less_exclusions.txt	LTP284	ltpFR	14	4	0	BLANKET	135	n/a	n/a	0	n/a	0	0	0	n/a	n/a	n/a	n/a	n/a
763636	REC_WORD	wordpools/wasnorm_wordpool_less_exclusions.txt	LTP284	ltpFR	14	4	0	TRUCK	1512	n/a	n/a	1	n/a	0	0	0	n/a	n/a	n/a	n/a	n/a
765118	REC_WORD	wordpools/wasnorm_wordpool_less_exclusions.txt	LTP284	ltpFR	14	4	0	KITTEN	780	n/a	n/a	0	n/a	0	0	0	n/a	n/a	n/a	n/a	n/a
766443	REC_WORD	wordpools/wasnorm_wordpool_less_exclusions.txt	LTP284	ltpFR	14	4	0	SPINACH	1352	n/a	n/a	0	n/a	0	0	0	n/a	n/a	n/a	n/a	n/a
769039	REC_WORD	wordpools/wasnorm_wordpool_less_exclusions.txt	LTP284	ltpFR	14	4	1	BEAN	105	n/a	n/a	1	n/a	0	0	0	n/a	n/a	n/a	n/a	n/a
770354	REC_WORD	wordpools/wasnorm_wordpool_less_exclusions.txt	LTP284	ltpFR	14	4	1	DINNER	468	n/a	n/a	0	n/a	0	0	0	n/a	n/a	n/a	n/a	n/a
771893	REC_WORD	wordpools/wasnorm_wordpool_less_exclusions.txt	LTP284	ltpFR	14	4	0	ACROBAT	4	n/a	n/a	1	n/a	0	0	0	n/a	n/a	n/a	n/a	n/a
773252	REC_WORD	wordpools/wasnorm_wordpool_less_exclusions.txt	LTP284	ltpFR	14	4	0	TURNIP	1521	n/a	n/a	0	n/a	0	0	0	n/a	n/a	n/a	n/a	n/a
802498	REC_WORD	wordpools/wasnorm_wordpool_less_exclusions.txt	LTP284	ltpFR	14	4	1	SCALE	1241	n/a	n/a	0	n/a	0	0	0	n/a	n/a	n/a	n/a	n/a
832690	START	n/a	LTP284	ltpFR	14	n/a	n/a	n/a	n/a	n/a	n/a	n/a	n/a	n/a	n/a	n/a	n/a	n/a	n/a	n/a	n/a
834203	PROB	n/a	LTP284	ltpFR	14	n/a	n/a	n/a	n/a	n/a	n/a	n/a	14	1	6	7	n/a	n/a	n/a	n/a	n/a
835751	PROB	n/a	LTP284	ltpFR	14	n/a	n/a	n/a	n/a	n/a	n/a	n/a	19	6	4	9	n/a	n/a	n/a	n/a	n/a
837198	PROB	n/a	LTP284	ltpFR	14	n/a	n/a	n/a	n/a	n/a	n/a	n/a	16	4	9	3	n/a	n/a	n/a	n/a	n/a
838947	PROB	n/a	LTP284	ltpFR	14	n/a	n/a	n/a	n/a	n/a	n/a	n/a	13	5	5	3	n/a	n/a	n/a	n/a	n/a
840244	PROB	n/a	LTP284	ltpFR	14	n/a	n/a	n/a	n/a	n/a	n/a	n/a	15	3	9	3	n/a	n/a	n/a	n/a	n/a
841726	PROB	n/a	LTP284	ltpFR	14	n/a	n/a	n/a	n/a	n/a	n/a	n/a	17	6	9	2	n/a	n/a	n/a	n/a	n/a
843773	PROB	n/a	LTP284	ltpFR	14	n/a	n/a	n/a	n/a	n/a	n/a	n/a	1	3	3	7	n/a	n/a	n/a	n/a	n/a
848689	STOP	n/a	LTP284	ltpFR	14	n/a	n/a	n/a	n/a	n/a	n/a	n/a	n/a	n/a	n/a	n/a	n/a	n/a	n/a	n/a	n/a
849864	WORD	wordpools/wasnorm_wordpool_less_exclusions.txt	LTP284	ltpFR	14	5	0	ANCHOR	21	n/a	n/a	1	n/a	0	0	0	0.57763671875	0.412841796875	1	upper	amplitud.ttf
852876	START	n/a	LTP284	ltpFR	14	n/a	n/a	n/a	n/a	n/a	n/a	n/a	n/a	n/a	n/a	n/a	n/a	n/a	n/a	n/a	n/a
853858	PROB	n/a	LTP284	ltpFR	14	n/a	n/a	n/a	n/a	n/a	n/a	n/a	14	2	4	8	n/a	n/a	n/a	n/a	n/a
855771	PROB	n/a	LTP284	ltpFR	14	n/a	n/a	n/a	n/a	n/a	n/a	n/a	12	2	3	7	n/a	n/a	n/a	n/a	n/a
857135	PROB	n/a	LTP284	ltpFR	14	n/a	n/a	n/a	n/a	n/a	n/a	n/a	17	8	5	4	n/a	n/a	n/a	n/a	n/a
858784	PROB	n/a	LTP284	ltpFR	14	n/a	n/a	n/a	n/a	n/a	n/a	n/a	16	4	5	7	n/a	n/a	n/a	n/a	n/a
860547	PROB	n/a	LTP284	ltpFR	14	n/a	n/a	n/a	n/a	n/a	n/a	n/a	15	9	1	5	n/a	n/a	n/a	n/a	n/a
861829	PROB	n/a	LTP284	ltpFR	14	n/a	n/a	n/a	n/a	n/a	n/a	n/a	5	1	1	3	n/a	n/a	n/a	n/a	n/a
864291	PROB	n/a	LTP284	ltpFR	14	n/a	n/a	n/a	n/a	n/a	n/a	n/a	16	6	4	6	n/a	n/a	n/a	n/a	n/a
865623	PROB	n/a	LTP284	ltpFR	14	n/a	n/a	n/a	n/a	n/a	n/a	n/a	17	9	3	5	n/a	n/a	n/a	n/a	n/a
867104	PROB	n/a	LTP284	ltpFR	14	n/a	n/a	n/a	n/a	n/a	n/a	n/a	10	4	4	2	n/a	n/a	n/a	n/a	n/a
868749	STOP	n/a	LTP284	ltpFR	14	n/a	n/a	n/a	n/a	n/a	n/a	n/a	n/a	n/a	n/a	n/a	n/a	n/a	n/a	n/a	n/a
869734	WORD	wordpools/wasnorm_wordpool_less_exclusions.txt	LTP284	ltpFR	14	5	0	STAPLE	1371	n/a	n/a	0	n/a	0	0	0	0.57763671875	0.412841796875	1	upper	amplitud.ttf
872747	START	n/a	LTP284	ltpFR	14	n/a	n/a	n/a	n/a	n/a	n/a	n/a	n/a	n/a	n/a	n/a	n/a	n/a	n/a	n/a	n/a
873695	PROB	n/a	LTP284	ltpFR	14	n/a	n/a	n/a	n/a	n/a	n/a	n/a	17	4	5	8	n/a	n/a	n/a	n/a	n/a
875191	PROB	n/a	LTP284	ltpFR	14	n/a	n/a	n/a	n/a	n/a	n/a	n/a	14	6	6	2	n/a	n/a	n/a	n/a	n/a
876757	PROB	n/a	LTP284	ltpFR	14	n/a	n/a	n/a	n/a	n/a	n/a	n/a	11	1	6	4	n/a	n/a	n/a	n/a	n/a
878187	PROB	n/a	LTP284	ltpFR	14	n/a	n/a	n/a	n/a	n/a	n/a	n/a	13	4	4	5	n/a	n/a	n/a	n/a	n/a
880234	PROB	n/a	LTP284	ltpFR	14	n/a	n/a	n/a	n/a	n/a	n/a	n/a	18	9	5	4	n/a	n/a	n/a	n/a	n/a
881499	PROB	n/a	LTP284	ltpFR	14	n/a	n/a	n/a	n/a	n/a	n/a	n/a	1	2	2	9	n/a	n/a	n/a	n/a	n/a
882764	PROB	n/a	LTP284	ltpFR	14	n/a	n/a	n/a	n/a	n/a	n/a	n/a	15	5	5	5	n/a	n/a	n/a	n/a	n/a
884062	PROB	n/a	LTP284	ltpFR	14	n/a	n/a	n/a	n/a	n/a	n/a	n/a	16	4	5	7	n/a	n/a	n/a	n/a	n/a
885660	PROB	n/a	LTP284	ltpFR	14	n/a	n/a	n/a	n/a	n/a	n/a	n/a	19	6	7	6	n/a	n/a	n/a	n/a	n/a
888429	STOP	n/a	LTP284	ltpFR	14	n/a	n/a	n/a	n/a	n/a	n/a	n/a	n/a	n/a	n/a	n/a	n/a	n/a	n/a	n/a	n/a
889870	WORD	wordpools/wasnorm_wordpool_less_exclusions.txt	LTP284	ltpFR	14	5	0	GLASS	639	n/a	n/a	0	n/a	0	0	0	0.57763671875	0.412841796875	1	upper	amplitud.ttf
892883	START	n/a	LTP284	ltpFR	14	n/a	n/a	n/a	n/a	n/a	n/a	n/a	n/a	n/a	n/a	n/a	n/a	n/a	n/a	n/a	n/a
894080	PROB	n/a	LTP284	ltpFR	14	n/a	n/a	n/a	n/a	n/a	n/a	n/a	15	3	7	5	n/a	n/a	n/a	n/a	n/a
895444	PROB	n/a	LTP284	ltpFR	14	n/a	n/a	n/a	n/a	n/a	n/a	n/a	17	5	3	9	n/a	n/a	n/a	n/a	n/a
896927	PROB	n/a	LTP284	ltpFR	14	n/a	n/a	n/a	n/a	n/a	n/a	n/a	18	9	4	5	n/a	n/a	n/a	n/a	n/a
898257	PROB	n/a	LTP284	ltpFR	14	n/a	n/a	n/a	n/a	n/a	n/a	n/a	15	2	6	7	n/a	n/a	n/a	n/a	n/a
900537	PROB	n/a	LTP284	ltpFR	14	n/a	n/a	n/a	n/a	n/a	n/a	n/a	15	4	5	6	n/a	n/a	n/a	n/a	n/a
902085	PROB	n/a	LTP284	ltpFR	14	n/a	n/a	n/a	n/a	n/a	n/a	n/a	11	2	1	8	n/a	n/a	n/a	n/a	n/a
903449	PROB	n/a	LTP284	ltpFR	14	n/a	n/a	n/a	n/a	n/a	n/a	n/a	12	3	6	3	n/a	n/a	n/a	n/a	n/a
905446	PROB	n/a	LTP284	ltpFR	14	n/a	n/a	n/a	n/a	n/a	n/a	n/a	16	4	8	4	n/a	n/a	n/a	n/a	n/a
908883	STOP	n/a	LTP284	ltpFR	14	n/a	n/a	n/a	n/a	n/a	n/a	n/a	n/a	n/a	n/a	n/a	n/a	n/a	n/a	n/a	n/a
909974	WORD	wordpools/wasnorm_wordpool_less_exclusions.txt	LTP284	ltpFR	14	5	0	BRACELET	163	n/a	n/a	0	n/a	0	0	0	0.57763671875	0.412841796875	1	upper	amplitud.ttf
912987	START	n/a	LTP284	ltpFR	14	n/a	n/a	n/a	n/a	n/a	n/a	n/a	n/a	n/a	n/a	n/a	n/a	n/a	n/a	n/a	n/a
914034	PROB	n/a	LTP284	ltpFR	14	n/a	n/a	n/a	n/a	n/a	n/a	n/a	20	4	9	7	n/a	n/a	n/a	n/a	n/a
916380	PROB	n/a	LTP284	ltpFR	14	n/a	n/a	n/a	n/a	n/a	n/a	n/a	21	7	9	5	n/a	n/a	n/a	n/a	n/a
918861	PROB	n/a	LTP284	ltpFR	14	n/a	n/a	n/a	n/a	n/a	n/a	n/a	15	5	6	4	n/a	n/a	n/a	n/a	n/a
920124	PROB	n/a	LTP284	ltpFR	14	n/a	n/a	n/a	n/a	n/a	n/a	n/a	15	8	5	2	n/a	n/a	n/a	n/a	n/a
921422	PROB	n/a	LTP284	ltpFR	14	n/a	n/a	n/a	n/a	n/a	n/a	n/a	17	7	5	5	n/a	n/a	n/a	n/a	n/a
922805	PROB	n/a	LTP284	ltpFR	14	n/a	n/a	n/a	n/a	n/a	n/a	n/a	18	4	8	6	n/a	n/a	n/a	n/a	n/a
924718	PROB	n/a	LTP284	ltpFR	14	n/a	n/a	n/a	n/a	n/a	n/a	n/a	12	4	2	6	n/a	n/a	n/a	n/a	n/a
926282	PROB	n/a	LTP284	ltpFR	14	n/a	n/a	n/a	n/a	n/a	n/a	n/a	8	2	2	4	n/a	n/a	n/a	n/a	n/a
927463	PROB	n/a	LTP284	ltpFR	14	n/a	n/a	n/a	n/a	n/a	n/a	n/a	14	1	9	4	n/a	n/a	n/a	n/a	n/a
928814	STOP	n/a	LTP284	ltpFR	14	n/a	n/a	n/a	n/a	n/a	n/a	n/a	n/a	n/a	n/a	n/a	n/a	n/a	n/a	n/a	n/a
930193	WORD	wordpools/wasnorm_wordpool_less_exclusions.txt	LTP284	ltpFR	14	5	0	CANOE	233	n/a	n/a	1	n/a	0	0	0	0.57763671875	0.412841796875	1	upper	amplitud.ttf
933205	START	n/a	LTP284	ltpFR	14	n/a	n/a	n/a	n/a	n/a	n/a	n/a	n/a	n/a	n/a	n/a	n/a	n/a	n/a	n/a	n/a
934170	PROB	n/a	LTP284	ltpFR	14	n/a	n/a	n/a	n/a	n/a	n/a	n/a	15	8	4	6	n/a	n/a	n/a	n/a	n/a
935551	PROB	n/a	LTP284	ltpFR	14	n/a	n/a	n/a	n/a	n/a	n/a	n/a	8	2	4	2	n/a	n/a	n/a	n/a	n/a
937699	PROB	n/a	LTP284	ltpFR	14	n/a	n/a	n/a	n/a	n/a	n/a	n/a	17	4	9	4	n/a	n/a	n/a	n/a	n/a
939512	PROB	n/a	LTP284	ltpFR	14	n/a	n/a	n/a	n/a	n/a	n/a	n/a	12	1	6	5	n/a	n/a	n/a	n/a	n/a
941726	PROB	n/a	LTP284	ltpFR	14	n/a	n/a	n/a	n/a	n/a	n/a	n/a	8	5	1	2	n/a	n/a	n/a	n/a	n/a
943223	PROB	n/a	LTP284	ltpFR	14	n/a	n/a	n/a	n/a	n/a	n/a	n/a	20	9	3	8	n/a	n/a	n/a	n/a	n/a
945503	PROB	n/a	LTP284	ltpFR	14	n/a	n/a	n/a	n/a	n/a	n/a	n/a	11	1	1	9	n/a	n/a	n/a	n/a	n/a
949205	STOP	n/a	LTP284	ltpFR	14	n/a	n/a	n/a	n/a	n/a	n/a	n/a	n/a	n/a	n/a	n/a	n/a	n/a	n/a	n/a	n/a
950279	WORD	wordpools/wasnorm_wordpool_less_exclusions.txt	LTP284	ltpFR	14	5	0	DIRT	472	n/a	n/a	0	n/a	0	0	0	0.57763671875	0.412841796875	1	upper	amplitud.ttf
953292	START	n/a	LTP284	ltpFR	14	n/a	n/a	n/a	n/a	n/a	n/a	n/a	n/a	n/a	n/a	n/a	n/a	n/a	n/a	n/a	n/a
954107	PROB	n/a	LTP284	ltpFR	14	n/a	n/a	n/a	n/a	n/a	n/a	n/a	12	4	6	2	n/a	n/a	n/a	n/a	n/a
955772	PROB	n/a	LTP284	ltpFR	14	n/a	n/a	n/a	n/a	n/a	n/a	n/a	6	4	1	1	n/a	n/a	n/a	n/a	n/a
957020	PROB	n/a	LTP284	ltpFR	14	n/a	n/a	n/a	n/a	n/a	n/a	n/a	14	2	8	4	n/a	n/a	n/a	n/a	n/a
958334	PROB	n/a	LTP284	ltpFR	14	n/a	n/a	n/a	n/a	n/a	n/a	n/a	16	5	4	7	n/a	n/a	n/a	n/a	n/a
960131	PROB	n/a	LTP284	ltpFR	14	n/a	n/a	n/a	n/a	n/a	n/a	n/a	15	2	7	6	n/a	n/a	n/a	n/a	n/a
961746	PROB	n/a	LTP284	ltpFR	14	n/a	n/a	n/a	n/a	n/a	n/a	n/a	11	4	1	6	n/a	n/a	n/a	n/a	n/a
963143	PROB	n/a	LTP284	ltpFR	14	n/a	n/a	n/a	n/a	n/a	n/a	n/a	14	4	7	3	n/a	n/a	n/a	n/a	n/a
964925	PROB	n/a	LTP284	ltpFR	14	n/a	n/a	n/a	n/a	n/a	n/a	n/a	25	8	9	7	n/a	n/a	n/a	n/a	n/a
967370	PROB	n/a	LTP284	ltpFR	14	n/a	n/a	n/a	n/a	n/a	n/a	n/a	11	7	2	2	n/a	n/a	n/a	n/a	n/a
968766	STOP	n/a	LTP284	ltpFR	14	n/a	n/a	n/a	n/a	n/a	n/a	n/a	n/a	n/a	n/a	n/a	n/a	n/a	n/a	n/a	n/a
970266	WORD	wordpools/wasnorm_wordpool_less_exclusions.txt	LTP284	ltpFR	14	5	0	CHAPEL	280	n/a	n/a	1	n/a	0	0	0	0.57763671875	0.412841796875	1	upper	amplitud.ttf
973279	START	n/a	LTP284	ltpFR	14	n/a	n/a	n/a	n/a	n/a	n/a	n/a	n/a	n/a	n/a	n/a	n/a	n/a	n/a	n/a	n/a
974343	PROB	n/a	LTP284	ltpFR	14	n/a	n/a	n/a	n/a	n/a	n/a	n/a	12	1	7	4	n/a	n/a	n/a	n/a	n/a
975759	PROB	n/a	LTP284	ltpFR	14	n/a	n/a	n/a	n/a	n/a	n/a	n/a	15	8	2	5	n/a	n/a	n/a	n/a	n/a
976990	PROB	n/a	LTP284	ltpFR	14	n/a	n/a	n/a	n/a	n/a	n/a	n/a	11	4	4	3	n/a	n/a	n/a	n/a	n/a
979986	PROB	n/a	LTP284	ltpFR	14	n/a	n/a	n/a	n/a	n/a	n/a	n/a	11	1	2	8	n/a	n/a	n/a	n/a	n/a
982348	PROB	n/a	LTP284	ltpFR	14	n/a	n/a	n/a	n/a	n/a	n/a	n/a	14	9	1	4	n/a	n/a	n/a	n/a	n/a
984129	PROB	n/a	LTP284	ltpFR	14	n/a	n/a	n/a	n/a	n/a	n/a	n/a	12	7	2	3	n/a	n/a	n/a	n/a	n/a
986042	PROB	n/a	LTP284	ltpFR	14	n/a	n/a	n/a	n/a	n/a	n/a	n/a	12	4	4	4	n/a	n/a	n/a	n/a	n/a
989279	STOP	n/a	LTP284	ltpFR	14	n/a	n/a	n/a	n/a	n/a	n/a	n/a	n/a	n/a	n/a	n/a	n/a	n/a	n/a	n/a	n/a
990469	WORD	wordpools/wasnorm_wordpool_less_exclusions.txt	LTP284	ltpFR	14	5	0	MONK	910	n/a	n/a	1	n/a	0	0	0	0.57763671875	0.412841796875	1	upper	amplitud.ttf
993482	START	n/a	LTP284	ltpFR	14	n/a	n/a	n/a	n/a	n/a	n/a	n/a	n/a	n/a	n/a	n/a	n/a	n/a	n/a	n/a	n/a
994513	PROB	n/a	LTP284	ltpFR	14	n/a	n/a	n/a	n/a	n/a	n/a	n/a	14	4	5	5	n/a	n/a	n/a	n/a	n/a
995995	PROB	n/a	LTP284	ltpFR	14	n/a	n/a	n/a	n/a	n/a	n/a	n/a	13	3	7	3	n/a	n/a	n/a	n/a	n/a
997492	PROB	n/a	LTP284	ltpFR	14	n/a	n/a	n/a	n/a	n/a	n/a	n/a	13	9	3	1	n/a	n/a	n/a	n/a	n/a
999306	PROB	n/a	LTP284	ltpFR	14	n/a	n/a	n/a	n/a	n/a	n/a	n/a	5	1	3	1	n/a	n/a	n/a	n/a	n/a
1000772	PROB	n/a	LTP284	ltpFR	14	n/a	n/a	n/a	n/a	n/a	n/a	n/a	21	9	7	5	n/a	n/a	n/a	n/a	n/a
1002602	PROB	n/a	LTP284	ltpFR	14	n/a	n/a	n/a	n/a	n/a	n/a	n/a	19	7	6	5	n/a	n/a	n/a	n/a	n/a
1004982	PROB	n/a	LTP284	ltpFR	14	n/a	n/a	n/a	n/a	n/a	n/a	n/a	25	7	9	9	n/a	n/a	n/a	n/a	n/a
1007327	PROB	n/a	LTP284	ltpFR	14	n/a	n/a	n/a	n/a	n/a	n/a	n/a	17	3	8	6	n/a	n/a	n/a	n/a	n/a
1009268	STOP	n/a	LTP284	ltpFR	14	n/a	n/a	n/a	n/a	n/a	n/a	n/a	n/a	n/a	n/a	n/a	n/a	n/a	n/a	n/a	n/a
1010439	WORD	wordpools/wasnorm_wordpool_less_exclusions.txt	LTP284	ltpFR	14	5	0	XEROX	1628	n/a	n/a	1	n/a	0	0	0	0.57763671875	0.412841796875	1	upper	amplitud.ttf
1013452	START	n/a	LTP284	ltpFR	14	n/a	n/a	n/a	n/a	n/a	n/a	n/a	n/a	n/a	n/a	n/a	n/a	n/a	n/a	n/a	n/a
1014550	PROB	n/a	LTP284	ltpFR	14	n/a	n/a	n/a	n/a	n/a	n/a	n/a	11	3	2	6	n/a	n/a	n/a	n/a	n/a
1015882	PROB	n/a	LTP284	ltpFR	14	n/a	n/a	n/a	n/a	n/a	n/a	n/a	7	5	1	1	n/a	n/a	n/a	n/a	n/a
1017063	PROB	n/a	LTP284	ltpFR	14	n/a	n/a	n/a	n/a	n/a	n/a	n/a	8	4	2	2	n/a	n/a	n/a	n/a	n/a
1018578	PROB	n/a	LTP284	ltpFR	14	n/a	n/a	n/a	n/a	n/a	n/a	n/a	15	2	4	9	n/a	n/a	n/a	n/a	n/a
1020092	PROB	n/a	LTP284	ltpFR	14	n/a	n/a	n/a	n/a	n/a	n/a	n/a	15	3	4	8	n/a	n/a	n/a	n/a	n/a
1021490	PROB	n/a	LTP284	ltpFR	14	n/a	n/a	n/a	n/a	n/a	n/a	n/a	12	5	2	5	n/a	n/a	n/a	n/a	n/a
1022888	PROB	n/a	LTP284	ltpFR	14	n/a	n/a	n/a	n/a	n/a	n/a	n/a	20	8	9	3	n/a	n/a	n/a	n/a	n/a
1025351	PROB	n/a	LTP284	ltpFR	14	n/a	n/a	n/a	n/a	n/a	n/a	n/a	13	6	3	4	n/a	n/a	n/a	n/a	n/a
1026783	PROB	n/a	LTP284	ltpFR	14	n/a	n/a	n/a	n/a	n/a	n/a	n/a	13	5	3	5	n/a	n/a	n/a	n/a	n/a
1028149	STOP	n/a	LTP284	ltpFR	14	n/a	n/a	n/a	n/a	n/a	n/a	n/a	n/a	n/a	n/a	n/a	n/a	n/a	n/a	n/a	n/a
1030393	WORD	wordpools/wasnorm_wordpool_less_exclusions.txt	LTP284	ltpFR	14	5	0	CANNON	232	n/a	n/a	1	n/a	0	0	0	0.57763671875	0.412841796875	1	upper	amplitud.ttf
1033406	START	n/a	LTP284	ltpFR	14	n/a	n/a	n/a	n/a	n/a	n/a	n/a	n/a	n/a	n/a	n/a	n/a	n/a	n/a	n/a	n/a
1034254	PROB	n/a	LTP284	ltpFR	14	n/a	n/a	n/a	n/a	n/a	n/a	n/a	18	4	8	6	n/a	n/a	n/a	n/a	n/a
1035969	PROB	n/a	LTP284	ltpFR	14	n/a	n/a	n/a	n/a	n/a	n/a	n/a	25	9	7	9	n/a	n/a	n/a	n/a	n/a
1038431	PROB	n/a	LTP284	ltpFR	14	n/a	n/a	n/a	n/a	n/a	n/a	n/a	18	2	7	9	n/a	n/a	n/a	n/a	n/a
1039946	PROB	n/a	LTP284	ltpFR	14	n/a	n/a	n/a	n/a	n/a	n/a	n/a	8	1	6	1	n/a	n/a	n/a	n/a	n/a
1041493	PROB	n/a	LTP284	ltpFR	14	n/a	n/a	n/a	n/a	n/a	n/a	n/a	21	6	6	9	n/a	n/a	n/a	n/a	n/a
1043257	PROB	n/a	LTP284	ltpFR	14	n/a	n/a	n/a	n/a	n/a	n/a	n/a	9	2	6	1	n/a	n/a	n/a	n/a	n/a
1045104	PROB	n/a	LTP284	ltpFR	14	n/a	n/a	n/a	n/a	n/a	n/a	n/a	9	2	5	2	n/a	n/a	n/a	n/a	n/a
1046919	PROB	n/a	LTP284	ltpFR	14	n/a	n/a	n/a	n/a	n/a	n/a	n/a	15	1	6	8	n/a	n/a	n/a	n/a	n/a
1048469	STOP	n/a	LTP284	ltpFR	14	n/a	n/a	n/a	n/a	n/a	n/a	n/a	n/a	n/a	n/a	n/a	n/a	n/a	n/a	n/a	n/a
1050430	WORD	wordpools/wasnorm_wordpool_less_exclusions.txt	LTP284	ltpFR	14	5	0	KEEPER	769	n/a	n/a	1	n/a	0	0	0	0.57763671875	0.412841796875	1	upper	amplitud.ttf
1053442	START	n/a	LTP284	ltpFR	14	n/a	n/a	n/a	n/a	n/a	n/a	n/a	n/a	n/a	n/a	n/a	n/a	n/a	n/a	n/a	n/a
1054457	PROB	n/a	LTP284	ltpFR	14	n/a	n/a	n/a	n/a	n/a	n/a	n/a	18	9	2	7	n/a	n/a	n/a	n/a	n/a
1057103	PROB	n/a	LTP284	ltpFR	14	n/a	n/a	n/a	n/a	n/a	n/a	n/a	15	2	4	9	n/a	n/a	n/a	n/a	n/a
1058368	PROB	n/a	LTP284	ltpFR	14	n/a	n/a	n/a	n/a	n/a	n/a	n/a	21	7	6	8	n/a	n/a	n/a	n/a	n/a
1060749	PROB	n/a	LTP284	ltpFR	14	n/a	n/a	n/a	n/a	n/a	n/a	n/a	13	4	7	2	n/a	n/a	n/a	n/a	n/a
1063327	PROB	n/a	LTP284	ltpFR	14	n/a	n/a	n/a	n/a	n/a	n/a	n/a	20	4	8	8	n/a	n/a	n/a	n/a	n/a
1065591	PROB	n/a	LTP284	ltpFR	14	n/a	n/a	n/a	n/a	n/a	n/a	n/a	13	5	7	1	n/a	n/a	n/a	n/a	n/a
1067188	PROB	n/a	LTP284	ltpFR	14	n/a	n/a	n/a	n/a	n/a	n/a	n/a	15	5	5	5	n/a	n/a	n/a	n/a	n/a
1068157	STOP	n/a	LTP284	ltpFR	14	n/a	n/a	n/a	n/a	n/a	n/a	n/a	n/a	n/a	n/a	n/a	n/a	n/a	n/a	n/a	n/a
1070383	WORD	wordpools/wasnorm_wordpool_less_exclusions.txt	LTP284	ltpFR	14	5	0	LOBSTER	837	n/a	n/a	0	n/a	0	0	0	0.57763671875	0.412841796875	1	upper	amplitud.ttf
1073396	START	n/a	LTP284	ltpFR	14	n/a	n/a	n/a	n/a	n/a	n/a	n/a	n/a	n/a	n/a	n/a	n/a	n/a	n/a	n/a	n/a
1074394	PROB	n/a	LTP284	ltpFR	14	n/a	n/a	n/a	n/a	n/a	n/a	n/a	18	7	8	3	n/a	n/a	n/a	n/a	n/a
1076075	PROB	n/a	LTP284	ltpFR	14	n/a	n/a	n/a	n/a	n/a	n/a	n/a	21	9	8	4	n/a	n/a	n/a	n/a	n/a
1077873	PROB	n/a	LTP284	ltpFR	14	n/a	n/a	n/a	n/a	n/a	n/a	n/a	12	4	4	4	n/a	n/a	n/a	n/a	n/a
1079920	PROB	n/a	LTP284	ltpFR	14	n/a	n/a	n/a	n/a	n/a	n/a	n/a	12	8	3	1	n/a	n/a	n/a	n/a	n/a
1081517	PROB	n/a	LTP284	ltpFR	14	n/a	n/a	n/a	n/a	n/a	n/a	n/a	14	4	1	9	n/a	n/a	n/a	n/a	n/a
1083081	PROB	n/a	LTP284	ltpFR	14	n/a	n/a	n/a	n/a	n/a	n/a	n/a	8	1	5	2	n/a	n/a	n/a	n/a	n/a
1084596	PROB	n/a	LTP284	ltpFR	14	n/a	n/a	n/a	n/a	n/a	n/a	n/a	10	3	4	3	n/a	n/a	n/a	n/a	n/a
1086693	PROB	n/a	LTP284	ltpFR	14	n/a	n/a	n/a	n/a	n/a	n/a	n/a	25	7	9	9	n/a	n/a	n/a	n/a	n/a
1088566	STOP	n/a	LTP284	ltpFR	14	n/a	n/a	n/a	n/a	n/a	n/a	n/a	n/a	n/a	n/a	n/a	n/a	n/a	n/a	n/a	n/a
1090220	WORD	wordpools/wasnorm_wordpool_less_exclusions.txt	LTP284	ltpFR	14	5	0	HOE	711	n/a	n/a	0	n/a	0	0	0	0.57763671875	0.412841796875	1	upper	amplitud.ttf
1093233	START	n/a	LTP284	ltpFR	14	n/a	n/a	n/a	n/a	n/a	n/a	n/a	n/a	n/a	n/a	n/a	n/a	n/a	n/a	n/a	n/a
1094164	PROB	n/a	LTP284	ltpFR	14	n/a	n/a	n/a	n/a	n/a	n/a	n/a	20	7	4	9	n/a	n/a	n/a	n/a	n/a
1097476	PROB	n/a	LTP284	ltpFR	14	n/a	n/a	n/a	n/a	n/a	n/a	n/a	9	2	5	2	n/a	n/a	n/a	n/a	n/a
1099591	PROB	n/a	LTP284	ltpFR	14	n/a	n/a	n/a	n/a	n/a	n/a	n/a	17	7	3	7	n/a	n/a	n/a	n/a	n/a
1101104	PROB	n/a	LTP284	ltpFR	14	n/a	n/a	n/a	n/a	n/a	n/a	n/a	14	1	7	6	n/a	n/a	n/a	n/a	n/a
1103151	PROB	n/a	LTP284	ltpFR	14	n/a	n/a	n/a	n/a	n/a	n/a	n/a	16	4	5	7	n/a	n/a	n/a	n/a	n/a
1104683	PROB	n/a	LTP284	ltpFR	14	n/a	n/a	n/a	n/a	n/a	n/a	n/a	17	8	5	4	n/a	n/a	n/a	n/a	n/a
1106564	PROB	n/a	LTP284	ltpFR	14	n/a	n/a	n/a	n/a	n/a	n/a	n/a	14	3	4	7	n/a	n/a	n/a	n/a	n/a
1107774	STOP	n/a	LTP284	ltpFR	14	n/a	n/a	n/a	n/a	n/a	n/a	n/a	n/a	n/a	n/a	n/a	n/a	n/a	n/a	n/a	n/a
1110091	WORD	wordpools/wasnorm_wordpool_less_exclusions.txt	LTP284	ltpFR	14	5	0	VINEGAR	1569	n/a	n/a	0	n/a	0	0	0	0.57763671875	0.412841796875	1	upper	amplitud.ttf
1113103	START	n/a	LTP284	ltpFR	14	n/a	n/a	n/a	n/a	n/a	n/a	n/a	n/a	n/a	n/a	n/a	n/a	n/a	n/a	n/a	n/a
1114284	PROB	n/a	LTP284	ltpFR	14	n/a	n/a	n/a	n/a	n/a	n/a	n/a	7	3	3	1	n/a	n/a	n/a	n/a	n/a
1115449	PROB	n/a	LTP284	ltpFR	14	n/a	n/a	n/a	n/a	n/a	n/a	n/a	24	9	7	8	n/a	n/a	n/a	n/a	n/a
1118212	PROB	n/a	LTP284	ltpFR	14	n/a	n/a	n/a	n/a	n/a	n/a	n/a	8	1	6	1	n/a	n/a	n/a	n/a	n/a
1119744	PROB	n/a	LTP284	ltpFR	14	n/a	n/a	n/a	n/a	n/a	n/a	n/a	21	9	7	5	n/a	n/a	n/a	n/a	n/a
1122590	PROB	n/a	LTP284	ltpFR	14	n/a	n/a	n/a	n/a	n/a	n/a	n/a	14	1	4	8	n/a	n/a	n/a	n/a	n/a
1124603	PROB	n/a	LTP284	ltpFR	14	n/a	n/a	n/a	n/a	n/a	n/a	n/a	17	7	8	2	n/a	n/a	n/a	n/a	n/a
1129103	STOP	n/a	LTP284	ltpFR	14	n/a	n/a	n/a	n/a	n/a	n/a	n/a	n/a	n/a	n/a	n/a	n/a	n/a	n/a	n/a	n/a
1130227	WORD	wordpools/wasnorm_wordpool_less_exclusions.txt	LTP284	ltpFR	14	5	0	INCENSE	735	n/a	n/a	0	n/a	0	0	0	0.57763671875	0.412841796875	1	upper	amplitud.ttf
1133240	START	n/a	LTP284	ltpFR	14	n/a	n/a	n/a	n/a	n/a	n/a	n/a	n/a	n/a	n/a	n/a	n/a	n/a	n/a	n/a	n/a
1134271	PROB	n/a	LTP284	ltpFR	14	n/a	n/a	n/a	n/a	n/a	n/a	n/a	17	4	8	5	n/a	n/a	n/a	n/a	n/a
1136135	PROB	n/a	LTP284	ltpFR	14	n/a	n/a	n/a	n/a	n/a	n/a	n/a	13	4	7	2	n/a	n/a	n/a	n/a	n/a
1138282	PROB	n/a	LTP284	ltpFR	14	n/a	n/a	n/a	n/a	n/a	n/a	n/a	11	3	4	4	n/a	n/a	n/a	n/a	n/a
1140062	PROB	n/a	LTP284	ltpFR	14	n/a	n/a	n/a	n/a	n/a	n/a	n/a	21	6	6	9	n/a	n/a	n/a	n/a	n/a
1141861	PROB	n/a	LTP284	ltpFR	14	n/a	n/a	n/a	n/a	n/a	n/a	n/a	21	6	8	7	n/a	n/a	n/a	n/a	n/a
1143908	PROB	n/a	LTP284	ltpFR	14	n/a	n/a	n/a	n/a	n/a	n/a	n/a	5	2	1	2	n/a	n/a	n/a	n/a	n/a
1145122	PROB	n/a	LTP284	ltpFR	14	n/a	n/a	n/a	n/a	n/a	n/a	n/a	9	2	5	2	n/a	n/a	n/a	n/a	n/a
1147368	PROB	n/a	LTP284	ltpFR	14	n/a	n/a	n/a	n/a	n/a	n/a	n/a	11	4	1	6	n/a	n/a	n/a	n/a	n/a
1149014	STOP	n/a	LTP284	ltpFR	14	n/a	n/a	n/a	n/a	n/a	n/a	n/a	n/a	n/a	n/a	n/a	n/a	n/a	n/a	n/a	n/a
1150081	WORD	wordpools/wasnorm_wordpool_less_exclusions.txt	LTP284	ltpFR	14	5	0	COMMUNITY	356	n/a	n/a	1	n/a	0	0	0	0.57763671875	0.412841796875	1	upper	amplitud.ttf
1153093	START	n/a	LTP284	ltpFR	14	n/a	n/a	n/a	n/a	n/a	n/a	n/a	n/a	n/a	n/a	n/a	n/a	n/a	n/a	n/a	n/a
1153976	PROB	n/a	LTP284	ltpFR	14	n/a	n/a	n/a	n/a	n/a	n/a	n/a	17	5	5	7	n/a	n/a	n/a	n/a	n/a
1155290	PROB	n/a	LTP284	ltpFR	14	n/a	n/a	n/a	n/a	n/a	n/a	n/a	12	5	6	1	n/a	n/a	n/a	n/a	n/a
1157220	PROB	n/a	LTP284	ltpFR	14	n/a	n/a	n/a	n/a	n/a	n/a	n/a	9	1	1	7	n/a	n/a	n/a	n/a	n/a
1158402	PROB	n/a	LTP284	ltpFR	14	n/a	n/a	n/a	n/a	n/a	n/a	n/a	16	7	5	4	n/a	n/a	n/a	n/a	n/a
1160199	PROB	n/a	LTP284	ltpFR	14	n/a	n/a	n/a	n/a	n/a	n/a	n/a	15	8	1	6	n/a	n/a	n/a	n/a	n/a
1162713	PROB	n/a	LTP284	ltpFR	14	n/a	n/a	n/a	n/a	n/a	n/a	n/a	24	9	8	7	n/a	n/a	n/a	n/a	n/a
1164727	PROB	n/a	LTP284	ltpFR	14	n/a	n/a	n/a	n/a	n/a	n/a	n/a	14	7	4	3	n/a	n/a	n/a	n/a	n/a
1166040	PROB	n/a	LTP284	ltpFR	14	n/a	n/a	n/a	n/a	n/a	n/a	n/a	22	9	9	4	n/a	n/a	n/a	n/a	n/a
1167750	STOP	n/a	LTP284	ltpFR	14	n/a	n/a	n/a	n/a	n/a	n/a	n/a	n/a	n/a	n/a	n/a	n/a	n/a	n/a	n/a	n/a
1170851	REC_START	n/a	LTP284	ltpFR	14	5	n/a	n/a	n/a	n/a	n/a	n/a	n/a	0	0	0	n/a	n/a	n/a	n/a	n/a
1173492	REC_WORD	wordpools/wasnorm_wordpool_less_exclusions.txt	LTP284	ltpFR	14	5	0	ANCHOR	21	n/a	n/a	1	n/a	0	0	0	n/a	n/a	n/a	n/a	n/a
1174597	REC_WORD	wordpools/wasnorm_wordpool_less_exclusions.txt	LTP284	ltpFR	14	5	0	STAPLE	1371	n/a	n/a	0	n/a	0	0	0	n/a	n/a	n/a	n/a	n/a
1176357	REC_WORD	wordpools/wasnorm_wordpool_less_exclusions.txt	LTP284	ltpFR	14	5	0	GLASS	639	n/a	n/a	0	n/a	0	0	0	n/a	n/a	n/a	n/a	n/a
1177177	REC_WORD_VV	wordpools/wasnorm_wordpool_less_exclusions.txt	LTP284	ltpFR	14	5	n/a	<>	-1	n/a	n/a	n/a	n/a	0	0	0	n/a	n/a	n/a	n/a	n/a
1178012	REC_WORD	wordpools/wasnorm_wordpool_less_exclusions.txt	LTP284	ltpFR	14	5	0	BRACELET	163	n/a	n/a	0	n/a	0	0	0	n/a	n/a	n/a	n/a	n/a
1179360	REC_WORD	wordpools/wasnorm_wordpool_less_exclusions.txt	LTP284	ltpFR	14	5	0	CANOE	233	n/a	n/a	1	n/a	0	0	0	n/a	n/a	n/a	n/a	n/a
1180761	REC_WORD	wordpools/wasnorm_wordpool_less_exclusions.txt	LTP284	ltpFR	14	5	0	DIRT	472	n/a	n/a	0	n/a	0	0	0	n/a	n/a	n/a	n/a	n/a
1182437	REC_WORD	wordpools/wasnorm_wordpool_less_exclusions.txt	LTP284	ltpFR	14	5	0	CHAPEL	280	n/a	n/a	1	n/a	0	0	0	n/a	n/a	n/a	n/a	n/a
1183970	REC_WORD	wordpools/wasnorm_wordpool_less_exclusions.txt	LTP284	ltpFR	14	5	0	MONK	910	n/a	n/a	1	n/a	0	0	0	n/a	n/a	n/a	n/a	n/a
1185510	REC_WORD	wordpools/wasnorm_wordpool_less_exclusions.txt	LTP284	ltpFR	14	5	0	XEROX	1628	n/a	n/a	1	n/a	0	0	0	n/a	n/a	n/a	n/a	n/a
1187120	REC_WORD	wordpools/wasnorm_wordpool_less_exclusions.txt	LTP284	ltpFR	14	5	0	CANNON	232	n/a	n/a	1	n/a	0	0	0	n/a	n/a	n/a	n/a	n/a
1188770	REC_WORD	wordpools/wasnorm_wordpool_less_exclusions.txt	LTP284	ltpFR	14	5	0	LOBSTER	837	n/a	n/a	0	n/a	0	0	0	n/a	n/a	n/a	n/a	n/a
1191254	REC_WORD	wordpools/wasnorm_wordpool_less_exclusions.txt	LTP284	ltpFR	14	5	0	COMMUNITY	356	n/a	n/a	1	n/a	0	0	0	n/a	n/a	n/a	n/a	n/a
1192724	REC_WORD	wordpools/wasnorm_wordpool_less_exclusions.txt	LTP284	ltpFR	14	5	0	HOE	711	n/a	n/a	0	n/a	0	0	0	n/a	n/a	n/a	n/a	n/a
1194242	REC_WORD	wordpools/wasnorm_wordpool_less_exclusions.txt	LTP284	ltpFR	14	5	0	VINEGAR	1569	n/a	n/a	0	n/a	0	0	0	n/a	n/a	n/a	n/a	n/a
1195786	REC_WORD	wordpools/wasnorm_wordpool_less_exclusions.txt	LTP284	ltpFR	14	5	0	INCENSE	735	n/a	n/a	0	n/a	0	0	0	n/a	n/a	n/a	n/a	n/a
1208711	REC_WORD_VV	wordpools/wasnorm_wordpool_less_exclusions.txt	LTP284	ltpFR	14	5	n/a	<>	-1	n/a	n/a	n/a	n/a	0	0	0	n/a	n/a	n/a	n/a	n/a
1252362	START	n/a	LTP284	ltpFR	14	n/a	n/a	n/a	n/a	n/a	n/a	n/a	n/a	n/a	n/a	n/a	n/a	n/a	n/a	n/a	n/a
1253877	PROB	n/a	LTP284	ltpFR	14	n/a	n/a	n/a	n/a	n/a	n/a	n/a	10	3	3	4	n/a	n/a	n/a	n/a	n/a
1256106	PROB	n/a	LTP284	ltpFR	14	n/a	n/a	n/a	n/a	n/a	n/a	n/a	21	7	5	9	n/a	n/a	n/a	n/a	n/a
1257954	PROB	n/a	LTP284	ltpFR	14	n/a	n/a	n/a	n/a	n/a	n/a	n/a	13	2	4	7	n/a	n/a	n/a	n/a	n/a
1259357	STOP	n/a	LTP284	ltpFR	14	n/a	n/a	n/a	n/a	n/a	n/a	n/a	n/a	n/a	n/a	n/a	n/a	n/a	n/a	n/a	n/a
1261431	WORD	wordpools/wasnorm_wordpool_less_exclusions.txt	LTP284	ltpFR	14	6	1	BATHTUB	100	n/a	n/a	0	n/a	0	0	0	0.422607421875	0.5869140625	0	lower	zerothre.ttf
1264444	START	n/a	LTP284	ltpFR	14	n/a	n/a	n/a	n/a	n/a	n/a	n/a	n/a	n/a	n/a	n/a	n/a	n/a	n/a	n/a	n/a
1265643	PROB	n/a	LTP284	ltpFR	14	n/a	n/a	n/a	n/a	n/a	n/a	n/a	13	9	2	2	n/a	n/a	n/a	n/a	n/a
1267039	PROB	n/a	LTP284	ltpFR	14	n/a	n/a	n/a	n/a	n/a	n/a	n/a	14	5	5	4	n/a	n/a	n/a	n/a	n/a
1268521	PROB	n/a	LTP284	ltpFR	14	n/a	n/a	n/a	n/a	n/a	n/a	n/a	16	6	4	6	n/a	n/a	n/a	n/a	n/a
1269703	PROB	n/a	LTP284	ltpFR	14	n/a	n/a	n/a	n/a	n/a	n/a	n/a	21	8	7	6	n/a	n/a	n/a	n/a	n/a
1271477	STOP	n/a	LTP284	ltpFR	14	n/a	n/a	n/a	n/a	n/a	n/a	n/a	n/a	n/a	n/a	n/a	n/a	n/a	n/a	n/a	n/a
1273380	WORD	wordpools/wasnorm_wordpool_less_exclusions.txt	LTP284	ltpFR	14	6	1	MOUSE	925	n/a	n/a	1	n/a	0	0	0	0.422607421875	0.5869140625	0	lower	zerothre.ttf
1276393	START	n/a	LTP284	ltpFR	14	n/a	n/a	n/a	n/a	n/a	n/a	n/a	n/a	n/a	n/a	n/a	n/a	n/a	n/a	n/a	n/a
1277491	PROB	n/a	LTP284	ltpFR	14	n/a	n/a	n/a	n/a	n/a	n/a	n/a	11	2	6	3	n/a	n/a	n/a	n/a	n/a
1279404	PROB	n/a	LTP284	ltpFR	14	n/a	n/a	n/a	n/a	n/a	n/a	n/a	17	6	5	6	n/a	n/a	n/a	n/a	n/a
1281518	PROB	n/a	LTP284	ltpFR	14	n/a	n/a	n/a	n/a	n/a	n/a	n/a	9	2	3	4	n/a	n/a	n/a	n/a	n/a
1283053	STOP	n/a	LTP284	ltpFR	14	n/a	n/a	n/a	n/a	n/a	n/a	n/a	n/a	n/a	n/a	n/a	n/a	n/a	n/a	n/a	n/a
1285429	WORD	wordpools/wasnorm_wordpool_less_exclusions.txt	LTP284	ltpFR	14	6	1	HAMMER	680	n/a	n/a	0	n/a	0	0	0	0.422607421875	0.5869140625	0	lower	zerothre.ttf
1288441	START	n/a	LTP284	ltpFR	14	n/a	n/a	n/a	n/a	n/a	n/a	n/a	n/a	n/a	n/a	n/a	n/a	n/a	n/a	n/a	n/a
1289607	PROB	n/a	LTP284	ltpFR	14	n/a	n/a	n/a	n/a	n/a	n/a	n/a	22	8	9	5	n/a	n/a	n/a	n/a	n/a
1293051	PROB	n/a	LTP284	ltpFR	14	n/a	n/a	n/a	n/a	n/a	n/a	n/a	14	9	3	2	n/a	n/a	n/a	n/a	n/a
1294532	PROB	n/a	LTP284	ltpFR	14	n/a	n/a	n/a	n/a	n/a	n/a	n/a	15	2	9	4	n/a	n/a	n/a	n/a	n/a
1295902	STOP	n/a	LTP284	ltpFR	14	n/a	n/a	n/a	n/a	n/a	n/a	n/a	n/a	n/a	n/a	n/a	n/a	n/a	n/a	n/a	n/a
1297378	WORD	wordpools/wasnorm_wordpool_less_exclusions.txt	LTP284	ltpFR	14	6	1	DOLLAR	482	n/a	n/a	0	n/a	0	0	0	0.422607421875	0.5869140625	0	lower	zerothre.ttf
1300390	START	n/a	LTP284	ltpFR	14	n/a	n/a	n/a	n/a	n/a	n/a	n/a	n/a	n/a	n/a	n/a	n/a	n/a	n/a	n/a	n/a
1301422	PROB	n/a	LTP284	ltpFR	14	n/a	n/a	n/a	n/a	n/a	n/a	n/a	16	4	9	3	n/a	n/a	n/a	n/a	n/a
1303502	PROB	n/a	LTP284	ltpFR	14	n/a	n/a	n/a	n/a	n/a	n/a	n/a	15	5	5	5	n/a	n/a	n/a	n/a	n/a
1304550	PROB	n/a	LTP284	ltpFR	14	n/a	n/a	n/a	n/a	n/a	n/a	n/a	13	7	1	5	n/a	n/a	n/a	n/a	n/a
1308390	STOP	n/a	LTP284	ltpFR	14	n/a	n/a	n/a	n/a	n/a	n/a	n/a	n/a	n/a	n/a	n/a	n/a	n/a	n/a	n/a	n/a
1309526	WORD	wordpools/wasnorm_wordpool_less_exclusions.txt	LTP284	ltpFR	14	6	1	BANK	83	n/a	n/a	0	n/a	0	0	0	0.422607421875	0.5869140625	0	lower	zerothre.ttf
1312539	START	n/a	LTP284	ltpFR	14	n/a	n/a	n/a	n/a	n/a	n/a	n/a	n/a	n/a	n/a	n/a	n/a	n/a	n/a	n/a	n/a
1313454	PROB	n/a	LTP284	ltpFR	14	n/a	n/a	n/a	n/a	n/a	n/a	n/a	14	5	2	7	n/a	n/a	n/a	n/a	n/a
1314836	PROB	n/a	LTP284	ltpFR	14	n/a	n/a	n/a	n/a	n/a	n/a	n/a	21	8	8	5	n/a	n/a	n/a	n/a	n/a
1316650	PROB	n/a	LTP284	ltpFR	14	n/a	n/a	n/a	n/a	n/a	n/a	n/a	18	7	9	2	n/a	n/a	n/a	n/a	n/a
1320539	STOP	n/a	LTP284	ltpFR	14	n/a	n/a	n/a	n/a	n/a	n/a	n/a	n/a	n/a	n/a	n/a	n/a	n/a	n/a	n/a	n/a
1321642	WORD	wordpools/wasnorm_wordpool_less_exclusions.txt	LTP284	ltpFR	14	6	1	CARRIAGE	248	n/a	n/a	1	n/a	0	0	0	0.422607421875	0.5869140625	0	lower	zerothre.ttf
1324655	START	n/a	LTP284	ltpFR	14	n/a	n/a	n/a	n/a	n/a	n/a	n/a	n/a	n/a	n/a	n/a	n/a	n/a	n/a	n/a	n/a
1325586	PROB	n/a	LTP284	ltpFR	14	n/a	n/a	n/a	n/a	n/a	n/a	n/a	12	4	4	4	n/a	n/a	n/a	n/a	n/a
1327100	PROB	n/a	LTP284	ltpFR	14	n/a	n/a	n/a	n/a	n/a	n/a	n/a	9	4	4	1	n/a	n/a	n/a	n/a	n/a
1329230	PROB	n/a	LTP284	ltpFR	14	n/a	n/a	n/a	n/a	n/a	n/a	n/a	17	3	5	9	n/a	n/a	n/a	n/a	n/a
1332655	STOP	n/a	LTP284	ltpFR	14	n/a	n/a	n/a	n/a	n/a	n/a	n/a	n/a	n/a	n/a	n/a	n/a	n/a	n/a	n/a	n/a
1333591	WORD	wordpools/wasnorm_wordpool_less_exclusions.txt	LTP284	ltpFR	14	6	1	TUSK	1523	n/a	n/a	0	n/a	0	0	0	0.422607421875	0.5869140625	0	lower	zerothre.ttf
1336604	START	n/a	LTP284	ltpFR	14	n/a	n/a	n/a	n/a	n/a	n/a	n/a	n/a	n/a	n/a	n/a	n/a	n/a	n/a	n/a	n/a
1337585	PROB	n/a	LTP284	ltpFR	14	n/a	n/a	n/a	n/a	n/a	n/a	n/a	14	3	2	9	n/a	n/a	n/a	n/a	n/a
1338983	PROB	n/a	LTP284	ltpFR	14	n/a	n/a	n/a	n/a	n/a	n/a	n/a	15	2	6	7	n/a	n/a	n/a	n/a	n/a
1341129	PROB	n/a	LTP284	ltpFR	14	n/a	n/a	n/a	n/a	n/a	n/a	n/a	12	8	1	3	n/a	n/a	n/a	n/a	n/a
1342777	PROB	n/a	LTP284	ltpFR	14	n/a	n/a	n/a	n/a	n/a	n/a	n/a	11	7	2	2	n/a	n/a	n/a	n/a	n/a
1344541	STOP	n/a	LTP284	ltpFR	14	n/a	n/a	n/a	n/a	n/a	n/a	n/a	n/a	n/a	n/a	n/a	n/a	n/a	n/a	n/a	n/a
1345706	WORD	wordpools/wasnorm_wordpool_less_exclusions.txt	LTP284	ltpFR	14	6	1	CLAW	319	n/a	n/a	0	n/a	0	0	0	0.422607421875	0.5869140625	0	lower	zerothre.ttf
1348719	START	n/a	LTP284	ltpFR	14	n/a	n/a	n/a	n/a	n/a	n/a	n/a	n/a	n/a	n/a	n/a	n/a	n/a	n/a	n/a	n/a
1349700	PROB	n/a	LTP284	ltpFR	14	n/a	n/a	n/a	n/a	n/a	n/a	n/a	7	2	1	4	n/a	n/a	n/a	n/a	n/a
1351897	PROB	n/a	LTP284	ltpFR	14	n/a	n/a	n/a	n/a	n/a	n/a	n/a	14	1	5	8	n/a	n/a	n/a	n/a	n/a
1353527	PROB	n/a	LTP284	ltpFR	14	n/a	n/a	n/a	n/a	n/a	n/a	n/a	23	6	8	9	n/a	n/a	n/a	n/a	n/a
1356149	STOP	n/a	LTP284	ltpFR	14	n/a	n/a	n/a	n/a	n/a	n/a	n/a	n/a	n/a	n/a	n/a	n/a	n/a	n/a	n/a	n/a
1357688	WORD	wordpools/wasnorm_wordpool_less_exclusions.txt	LTP284	ltpFR	14	6	1	UNCLE	1536	n/a	n/a	1	n/a	0	0	0	0.422607421875	0.5869140625	0	lower	zerothre.ttf
1360701	START	n/a	LTP284	ltpFR	14	n/a	n/a	n/a	n/a	n/a	n/a	n/a	n/a	n/a	n/a	n/a	n/a	n/a	n/a	n/a	n/a
1361766	PROB	n/a	LTP284	ltpFR	14	n/a	n/a	n/a	n/a	n/a	n/a	n/a	21	8	7	6	n/a	n/a	n/a	n/a	n/a
1363529	PROB	n/a	LTP284	ltpFR	14	n/a	n/a	n/a	n/a	n/a	n/a	n/a	14	2	3	9	n/a	n/a	n/a	n/a	n/a
1364944	PROB	n/a	LTP284	ltpFR	14	n/a	n/a	n/a	n/a	n/a	n/a	n/a	17	5	9	3	n/a	n/a	n/a	n/a	n/a
1366958	PROB	n/a	LTP284	ltpFR	14	n/a	n/a	n/a	n/a	n/a	n/a	n/a	12	4	4	4	n/a	n/a	n/a	n/a	n/a
1368109	STOP	n/a	LTP284	ltpFR	14	n/a	n/a	n/a	n/a	n/a	n/a	n/a	n/a	n/a	n/a	n/a	n/a	n/a	n/a	n/a	n/a
1369770	WORD	wordpools/wasnorm_wordpool_less_exclusions.txt	LTP284	ltpFR	14	6	1	NIECE	952	n/a	n/a	1	n/a	0	0	0	0.422607421875	0.5869140625	0	lower	zerothre.ttf
1372783	START	n/a	LTP284	ltpFR	14	n/a	n/a	n/a	n/a	n/a	n/a	n/a	n/a	n/a	n/a	n/a	n/a	n/a	n/a	n/a	n/a
1373681	PROB	n/a	LTP284	ltpFR	14	n/a	n/a	n/a	n/a	n/a	n/a	n/a	16	6	9	1	n/a	n/a	n/a	n/a	n/a
1375994	PROB	n/a	LTP284	ltpFR	14	n/a	n/a	n/a	n/a	n/a	n/a	n/a	12	9	2	1	n/a	n/a	n/a	n/a	n/a
1377892	PROB	n/a	LTP284	ltpFR	14	n/a	n/a	n/a	n/a	n/a	n/a	n/a	16	3	6	7	n/a	n/a	n/a	n/a	n/a
1379501	STOP	n/a	LTP284	ltpFR	14	n/a	n/a	n/a	n/a	n/a	n/a	n/a	n/a	n/a	n/a	n/a	n/a	n/a	n/a	n/a	n/a
1381619	WORD	wordpools/wasnorm_wordpool_less_exclusions.txt	LTP284	ltpFR	14	6	1	CARPENTER	246	n/a	n/a	1	n/a	0	0	0	0.422607421875	0.5869140625	0	lower	zerothre.ttf
1384632	START	n/a	LTP284	ltpFR	14	n/a	n/a	n/a	n/a	n/a	n/a	n/a	n/a	n/a	n/a	n/a	n/a	n/a	n/a	n/a	n/a
1385647	PROB	n/a	LTP284	ltpFR	14	n/a	n/a	n/a	n/a	n/a	n/a	n/a	21	8	8	5	n/a	n/a	n/a	n/a	n/a
1387310	PROB	n/a	LTP284	ltpFR	14	n/a	n/a	n/a	n/a	n/a	n/a	n/a	20	7	8	5	n/a	n/a	n/a	n/a	n/a
1389307	PROB	n/a	LTP284	ltpFR	14	n/a	n/a	n/a	n/a	n/a	n/a	n/a	13	5	5	3	n/a	n/a	n/a	n/a	n/a
1390989	PROB	n/a	LTP284	ltpFR	14	n/a	n/a	n/a	n/a	n/a	n/a	n/a	16	3	9	4	n/a	n/a	n/a	n/a	n/a
1392445	STOP	n/a	LTP284	ltpFR	14	n/a	n/a	n/a	n/a	n/a	n/a	n/a	n/a	n/a	n/a	n/a	n/a	n/a	n/a	n/a	n/a
1393601	WORD	wordpools/wasnorm_wordpool_less_exclusions.txt	LTP284	ltpFR	14	6	1	PRINCE	1124	n/a	n/a	1	n/a	0	0	0	0.422607421875	0.5869140625	0	lower	zerothre.ttf
1396614	START	n/a	LTP284	ltpFR	14	n/a	n/a	n/a	n/a	n/a	n/a	n/a	n/a	n/a	n/a	n/a	n/a	n/a	n/a	n/a	n/a
1397545	PROB	n/a	LTP284	ltpFR	14	n/a	n/a	n/a	n/a	n/a	n/a	n/a	12	3	5	4	n/a	n/a	n/a	n/a	n/a
1399576	PROB	n/a	LTP284	ltpFR	14	n/a	n/a	n/a	n/a	n/a	n/a	n/a	10	3	6	1	n/a	n/a	n/a	n/a	n/a
1401939	PROB	n/a	LTP284	ltpFR	14	n/a	n/a	n/a	n/a	n/a	n/a	n/a	19	4	7	8	n/a	n/a	n/a	n/a	n/a
1403894	STOP	n/a	LTP284	ltpFR	14	n/a	n/a	n/a	n/a	n/a	n/a	n/a	n/a	n/a	n/a	n/a	n/a	n/a	n/a	n/a	n/a
1405483	WORD	wordpools/wasnorm_wordpool_less_exclusions.txt	LTP284	ltpFR	14	6	1	TOY	1492	n/a	n/a	0	n/a	0	0	0	0.422607421875	0.5869140625	0	lower	zerothre.ttf
1408495	START	n/a	LTP284	ltpFR	14	n/a	n/a	n/a	n/a	n/a	n/a	n/a	n/a	n/a	n/a	n/a	n/a	n/a	n/a	n/a	n/a
1409611	PROB	n/a	LTP284	ltpFR	14	n/a	n/a	n/a	n/a	n/a	n/a	n/a	19	9	3	7	n/a	n/a	n/a	n/a	n/a
1411241	PROB	n/a	LTP284	ltpFR	14	n/a	n/a	n/a	n/a	n/a	n/a	n/a	14	3	6	5	n/a	n/a	n/a	n/a	n/a
1413221	PROB	n/a	LTP284	ltpFR	14	n/a	n/a	n/a	n/a	n/a	n/a	n/a	25	9	9	7	n/a	n/a	n/a	n/a	n/a
1415077	STOP	n/a	LTP284	ltpFR	14	n/a	n/a	n/a	n/a	n/a	n/a	n/a	n/a	n/a	n/a	n/a	n/a	n/a	n/a	n/a	n/a
1417566	WORD	wordpools/wasnorm_wordpool_less_exclusions.txt	LTP284	ltpFR	14	6	1	PIKE	1067	n/a	n/a	0	n/a	0	0	0	0.422607421875	0.5869140625	0	lower	zerothre.ttf
1420578	START	n/a	LTP284	ltpFR	14	n/a	n/a	n/a	n/a	n/a	n/a	n/a	n/a	n/a	n/a	n/a	n/a	n/a	n/a	n/a	n/a
1421409	PROB	n/a	LTP284	ltpFR	14	n/a	n/a	n/a	n/a	n/a	n/a	n/a	12	5	3	4	n/a	n/a	n/a	n/a	n/a
1423056	PROB	n/a	LTP284	ltpFR	14	n/a	n/a	n/a	n/a	n/a	n/a	n/a	8	4	2	2	n/a	n/a	n/a	n/a	n/a
1424838	PROB	n/a	LTP284	ltpFR	14	n/a	n/a	n/a	n/a	n/a	n/a	n/a	18	2	8	8	n/a	n/a	n/a	n/a	n/a
1426918	PROB	n/a	LTP284	ltpFR	14	n/a	n/a	n/a	n/a	n/a	n/a	n/a	19	9	8	2	n/a	n/a	n/a	n/a	n/a
1428277	STOP	n/a	LTP284	ltpFR	14	n/a	n/a	n/a	n/a	n/a	n/a	n/a	n/a	n/a	n/a	n/a	n/a	n/a	n/a	n/a	n/a
1429714	WORD	wordpools/wasnorm_wordpool_less_exclusions.txt	LTP284	ltpFR	14	6	1	GANG	619	n/a	n/a	0	n/a	0	0	0	0.422607421875	0.5869140625	0	lower	zerothre.ttf
1432727	START	n/a	LTP284	ltpFR	14	n/a	n/a	n/a	n/a	n/a	n/a	n/a	n/a	n/a	n/a	n/a	n/a	n/a	n/a	n/a	n/a
1433791	PROB	n/a	LTP284	ltpFR	14	n/a	n/a	n/a	n/a	n/a	n/a	n/a	10	8	1	1	n/a	n/a	n/a	n/a	n/a
1436953	PROB	n/a	LTP284	ltpFR	14	n/a	n/a	n/a	n/a	n/a	n/a	n/a	19	9	6	4	n/a	n/a	n/a	n/a	n/a
1438767	PROB	n/a	LTP284	ltpFR	14	n/a	n/a	n/a	n/a	n/a	n/a	n/a	15	8	2	5	n/a	n/a	n/a	n/a	n/a
1439910	STOP	n/a	LTP284	ltpFR	14	n/a	n/a	n/a	n/a	n/a	n/a	n/a	n/a	n/a	n/a	n/a	n/a	n/a	n/a	n/a	n/a
1441730	WORD	wordpools/wasnorm_wordpool_less_exclusions.txt	LTP284	ltpFR	14	6	1	CARAVAN	242	n/a	n/a	0	n/a	0	0	0	0.422607421875	0.5869140625	0	lower	zerothre.ttf
1444742	START	n/a	LTP284	ltpFR	14	n/a	n/a	n/a	n/a	n/a	n/a	n/a	n/a	n/a	n/a	n/a	n/a	n/a	n/a	n/a	n/a
1445640	PROB	n/a	LTP284	ltpFR	14	n/a	n/a	n/a	n/a	n/a	n/a	n/a	11	5	5	1	n/a	n/a	n/a	n/a	n/a
1446722	PROB	n/a	LTP284	ltpFR	14	n/a	n/a	n/a	n/a	n/a	n/a	n/a	14	3	9	2	n/a	n/a	n/a	n/a	n/a
1452741	STOP	n/a	LTP284	ltpFR	14	n/a	n/a	n/a	n/a	n/a	n/a	n/a	n/a	n/a	n/a	n/a	n/a	n/a	n/a	n/a	n/a
1454628	REC_START	n/a	LTP284	ltpFR	14	6	n/a	n/a	n/a	n/a	n/a	n/a	n/a	0	0	0	n/a	n/a	n/a	n/a	n/a
1456880	REC_WORD	wordpools/wasnorm_wordpool_less_exclusions.txt	LTP284	ltpFR	14	6	1	BATHTUB	100	n/a	n/a	0	n/a	0	0	0	n/a	n/a	n/a	n/a	n/a
1458226	REC_WORD	wordpools/wasnorm_wordpool_less_exclusions.txt	LTP284	ltpFR	14	6	1	MOUSE	925	n/a	n/a	1	n/a	0	0	0	n/a	n/a	n/a	n/a	n/a
1459559	REC_WORD	wordpools/wasnorm_wordpool_less_exclusions.txt	LTP284	ltpFR	14	6	1	HAMMER	680	n/a	n/a	0	n/a	0	0	0	n/a	n/a	n/a	n/a	n/a
1461116	REC_WORD	wordpools/wasnorm_wordpool_less_exclusions.txt	LTP284	ltpFR	14	6	1	DOLLAR	482	n/a	n/a	0	n/a	0	0	0	n/a	n/a	n/a	n/a	n/a
1462613	REC_WORD	wordpools/wasnorm_wordpool_less_exclusions.txt	LTP284	ltpFR	14	6	1	BANK	83	n/a	n/a	0	n/a	0	0	0	n/a	n/a	n/a	n/a	n/a
1464005	REC_WORD	wordpools/wasnorm_wordpool_less_exclusions.txt	LTP284	ltpFR	14	6	1	CARRIAGE	248	n/a	n/a	1	n/a	0	0	0	n/a	n/a	n/a	n/a	n/a
1465729	REC_WORD	wordpools/wasnorm_wordpool_less_exclusions.txt	LTP284	ltpFR	14	6	1	TUSK	1523	n/a	n/a	0	n/a	0	0	0	n/a	n/a	n/a	n/a	n/a
1466740	REC_WORD_VV	wordpools/wasnorm_wordpool_less_exclusions.txt	LTP284	ltpFR	14	6	n/a	<>	-1	n/a	n/a	n/a	n/a	0	0	0	n/a	n/a	n/a	n/a	n/a
1467496	REC_WORD	wordpools/wasnorm_wordpool_less_exclusions.txt	LTP284	ltpFR	14	6	1	CLAW	319	n/a	n/a	0	n/a	0	0	0	n/a	n/a	n/a	n/a	n/a
1470658	REC_WORD	wordpools/wasnorm_wordpool_less_exclusions.txt	LTP284	ltpFR	14	6	1	UNCLE	1536	n/a	n/a	1	n/a	0	0	0	n/a	n/a	n/a	n/a	n/a
1473460	REC_WORD	wordpools/wasnorm_wordpool_less_exclusions.txt	LTP284	ltpFR	14	6	1	CARPENTER	246	n/a	n/a	1	n/a	0	0	0	n/a	n/a	n/a	n/a	n/a
1475302	REC_WORD	wordpools/wasnorm_wordpool_less_exclusions.txt	LTP284	ltpFR	14	6	1	NIECE	952	n/a	n/a	1	n/a	0	0	0	n/a	n/a	n/a	n/a	n/a
1484859	REC_WORD	wordpools/wasnorm_wordpool_less_exclusions.txt	LTP284	ltpFR	14	6	1	GANG	619	n/a	n/a	0	n/a	0	0	0	n/a	n/a	n/a	n/a	n/a
1486784	REC_WORD	wordpools/wasnorm_wordpool_less_exclusions.txt	LTP284	ltpFR	14	6	1	CARAVAN	242	n/a	n/a	0	n/a	0	0	0	n/a	n/a	n/a	n/a	n/a
1492267	REC_WORD	wordpools/wasnorm_wordpool_less_exclusions.txt	LTP284	ltpFR	14	6	1	PRINCE	1124	n/a	n/a	1	n/a	0	0	0	n/a	n/a	n/a	n/a	n/a
1530230	REST_REWET	n/a	LTP284	ltpFR	14	6	n/a	n/a	n/a	n/a	n/a	n/a	n/a	0	0	0	n/a	n/a	n/a	n/a	n/a
1957159	WORD	wordpools/wasnorm_wordpool_less_exclusions.txt	LTP284	ltpFR	14	7	1	FURNITURE	616	n/a	n/a	0	n/a	0	0	0	0.422607421875	0.5869140625	0	lower	zerothre.ttf
1961369	WORD	wordpools/wasnorm_wordpool_less_exclusions.txt	LTP284	ltpFR	14	7	1	NECK	939	n/a	n/a	0	n/a	0	0	0	0.422607421875	0.5869140625	0	lower	zerothre.ttf
1965463	WORD	wordpools/wasnorm_wordpool_less_exclusions.txt	LTP284	ltpFR	14	7	1	CAGE	218	n/a	n/a	0	n/a	0	0	0	0.422607421875	0.5869140625	0	lower	zerothre.ttf
1969591	WORD	wordpools/wasnorm_wordpool_less_exclusions.txt	LTP284	ltpFR	14	7	1	BOYFRIEND	162	n/a	n/a	1	n/a	0	0	0	0.422607421875	0.5869140625	0	lower	zerothre.ttf
1973585	WORD	wordpools/wasnorm_wordpool_less_exclusions.txt	LTP284	ltpFR	14	7	1	JAM	748	n/a	n/a	0	n/a	0	0	0	0.422607421875	0.5869140625	0	lower	zerothre.ttf
1977563	WORD	wordpools/wasnorm_wordpool_less_exclusions.txt	LTP284	ltpFR	14	7	1	BAKER	71	n/a	n/a	1	n/a	0	0	0	0.422607421875	0.5869140625	0	lower	zerothre.ttf
1981439	WORD	wordpools/wasnorm_wordpool_less_exclusions.txt	LTP284	ltpFR	14	7	1	DOORBELL	487	n/a	n/a	0	n/a	0	0	0	0.422607421875	0.5869140625	0	lower	zerothre.ttf
1985433	WORD	wordpools/wasnorm_wordpool_less_exclusions.txt	LTP284	ltpFR	14	7	1	SCRIBBLE	1256	n/a	n/a	0	n/a	0	0	0	0.422607421875	0.5869140625	0	lower	zerothre.ttf
1989477	WORD	wordpools/wasnorm_wordpool_less_exclusions.txt	LTP284	ltpFR	14	7	1	COMB	351	n/a	n/a	0	n/a	0	0	0	0.422607421875	0.5869140625	0	lower	zerothre.ttf
1993605	WORD	wordpools/wasnorm_wordpool_less_exclusions.txt	LTP284	ltpFR	14	7	1	SEAGULL	1261	n/a	n/a	1	n/a	0	0	0	0.422607421875	0.5869140625	0	lower	zerothre.ttf
1997532	WORD	wordpools/wasnorm_wordpool_less_exclusions.txt	LTP284	ltpFR	14	7	1	TABLE	1426	n/a	n/a	0	n/a	0	0	0	0.422607421875	0.5869140625	0	lower	zerothre.ttf
2001743	WORD	wordpools/wasnorm_wordpool_less_exclusions.txt	LTP284	ltpFR	14	7	1	COUNTY	389	n/a	n/a	0	n/a	0	0	0	0.422607421875	0.5869140625	0	lower	zerothre.ttf
2005621	WORD	wordpools/wasnorm_wordpool_less_exclusions.txt	LTP284	ltpFR	14	7	1	SWIMMER	1420	n/a	n/a	1	n/a	0	0	0	0.422607421875	0.5869140625	0	lower	zerothre.ttf
2009447	WORD	wordpools/wasnorm_wordpool_less_exclusions.txt	LTP284	ltpFR	14	7	1	BAY	102	n/a	n/a	0	n/a	0	0	0	0.422607421875	0.5869140625	0	lower	zerothre.ttf
2013342	WORD	wordpools/wasnorm_wordpool_less_exclusions.txt	LTP284	ltpFR	14	7	1	CORD	379	n/a	n/a	0	n/a	0	0	0	0.422607421875	0.5869140625	0	lower	zerothre.ttf
2017519	WORD	wordpools/wasnorm_wordpool_less_exclusions.txt	LTP284	ltpFR	14	7	1	MESSAGE	888	n/a	n/a	0	n/a	0	0	0	0.422607421875	0.5869140625	0	lower	zerothre.ttf
2020531	START	n/a	LTP284	ltpFR	14	n/a	n/a	n/a	n/a	n/a	n/a	n/a	n/a	n/a	n/a	n/a	n/a	n/a	n/a	n/a	n/a
2021380	PROB	n/a	LTP284	ltpFR	14	n/a	n/a	n/a	n/a	n/a	n/a	n/a	18	6	8	4	n/a	n/a	n/a	n/a	n/a
2024642	PROB	n/a	LTP284	ltpFR	14	n/a	n/a	n/a	n/a	n/a	n/a	n/a	18	9	6	3	n/a	n/a	n/a	n/a	n/a
2025924	PROB	n/a	LTP284	ltpFR	14	n/a	n/a	n/a	n/a	n/a	n/a	n/a	18	6	8	6	n/a	n/a	n/a	n/a	n/a
2027788	PROB	n/a	LTP284	ltpFR	14	n/a	n/a	n/a	n/a	n/a	n/a	n/a	15	3	6	6	n/a	n/a	n/a	n/a	n/a
2030399	PROB	n/a	LTP284	ltpFR	14	n/a	n/a	n/a	n/a	n/a	n/a	n/a	14	5	5	4	n/a	n/a	n/a	n/a	n/a
2031665	PROB	n/a	LTP284	ltpFR	14	n/a	n/a	n/a	n/a	n/a	n/a	n/a	12	5	1	6	n/a	n/a	n/a	n/a	n/a
2032847	PROB	n/a	LTP284	ltpFR	14	n/a	n/a	n/a	n/a	n/a	n/a	n/a	17	3	7	7	n/a	n/a	n/a	n/a	n/a
2034611	PROB	n/a	LTP284	ltpFR	14	n/a	n/a	n/a	n/a	n/a	n/a	n/a	9	1	5	3	n/a	n/a	n/a	n/a	n/a
2036325	STOP	n/a	LTP284	ltpFR	14	n/a	n/a	n/a	n/a	n/a	n/a	n/a	n/a	n/a	n/a	n/a	n/a	n/a	n/a	n/a	n/a
2038471	REC_START	n/a	LTP284	ltpFR	14	7	n/a	n/a	n/a	n/a	n/a	n/a	n/a	0	0	0	n/a	n/a	n/a	n/a	n/a
2041955	REC_WORD	wordpools/wasnorm_wordpool_less_exclusions.txt	LTP284	ltpFR	14	7	1	FURNITURE	616	n/a	n/a	0	n/a	0	0	0	n/a	n/a	n/a	n/a	n/a
2043542	REC_WORD	wordpools/wasnorm_wordpool_less_exclusions.txt	LTP284	ltpFR	14	7	1	NECK	939	n/a	n/a	0	n/a	0	0	0	n/a	n/a	n/a	n/a	n/a
2044977	REC_WORD	wordpools/wasnorm_wordpool_less_exclusions.txt	LTP284	ltpFR	14	7	1	CAGE	218	n/a	n/a	0	n/a	0	0	0	n/a	n/a	n/a	n/a	n/a
2046601	REC_WORD	wordpools/wasnorm_wordpool_less_exclusions.txt	LTP284	ltpFR	14	7	1	BOYFRIEND	162	n/a	n/a	1	n/a	0	0	0	n/a	n/a	n/a	n/a	n/a
2048523	REC_WORD	wordpools/wasnorm_wordpool_less_exclusions.txt	LTP284	ltpFR	14	7	1	BAKER	71	n/a	n/a	1	n/a	0	0	0	n/a	n/a	n/a	n/a	n/a
2051426	REC_WORD	wordpools/wasnorm_wordpool_less_exclusions.txt	LTP284	ltpFR	14	7	1	SCRIBBLE	1256	n/a	n/a	0	n/a	0	0	0	n/a	n/a	n/a	n/a	n/a
2052871	REC_WORD	wordpools/wasnorm_wordpool_less_exclusions.txt	LTP284	ltpFR	14	7	1	COMB	351	n/a	n/a	0	n/a	0	0	0	n/a	n/a	n/a	n/a	n/a
2054172	REC_WORD	wordpools/wasnorm_wordpool_less_exclusions.txt	LTP284	ltpFR	14	7	1	DOORBELL	487	n/a	n/a	0	n/a	0	0	0	n/a	n/a	n/a	n/a	n/a
2055379	REC_WORD	wordpools/wasnorm_wordpool_less_exclusions.txt	LTP284	ltpFR	14	7	1	SEAGULL	1261	n/a	n/a	1	n/a	0	0	0	n/a	n/a	n/a	n/a	n/a
2056838	REC_WORD	wordpools/wasnorm_wordpool_less_exclusions.txt	LTP284	ltpFR	14	7	1	TABLE	1426	n/a	n/a	0	n/a	0	0	0	n/a	n/a	n/a	n/a	n/a
2059568	REC_WORD	wordpools/wasnorm_wordpool_less_exclusions.txt	LTP284	ltpFR	14	7	1	COUNTY	389	n/a	n/a	0	n/a	0	0	0	n/a	n/a	n/a	n/a	n/a
2064210	REC_WORD	wordpools/wasnorm_wordpool_less_exclusions.txt	LTP284	ltpFR	14	7	1	SWIMMER	1420	n/a	n/a	1	n/a	0	0	0	n/a	n/a	n/a	n/a	n/a
2065678	REC_WORD	wordpools/wasnorm_wordpool_less_exclusions.txt	LTP284	ltpFR	14	7	1	BAY	102	n/a	n/a	0	n/a	0	0	0	n/a	n/a	n/a	n/a	n/a
2075318	REC_WORD	wordpools/wasnorm_wordpool_less_exclusions.txt	LTP284	ltpFR	14	7	1	MESSAGE	888	n/a	n/a	0	n/a	0	0	0	n/a	n/a	n/a	n/a	n/a
2078296	REC_WORD	wordpools/wasnorm_wordpool_less_exclusions.txt	LTP284	ltpFR	14	7	1	CORD	379	n/a	n/a	0	n/a	0	0	0	n/a	n/a	n/a	n/a	n/a
2115906	START	n/a	LTP284	ltpFR	14	n/a	n/a	n/a	n/a	n/a	n/a	n/a	n/a	n/a	n/a	n/a	n/a	n/a	n/a	n/a	n/a
2117419	PROB	n/a	LTP284	ltpFR	14	n/a	n/a	n/a	n/a	n/a	n/a	n/a	15	2	7	6	n/a	n/a	n/a	n/a	n/a
2119466	PROB	n/a	LTP284	ltpFR	14	n/a	n/a	n/a	n/a	n/a	n/a	n/a	18	5	6	7	n/a	n/a	n/a	n/a	n/a
2123906	STOP	n/a	LTP284	ltpFR	14	n/a	n/a	n/a	n/a	n/a	n/a	n/a	n/a	n/a	n/a	n/a	n/a	n/a	n/a	n/a	n/a
2124726	WORD	wordpools/wasnorm_wordpool_less_exclusions.txt	LTP284	ltpFR	14	8	0	MONKEY	911	n/a	n/a	1	n/a	0	0	0	0.57763671875	0.412841796875	1	upper	amplitud.ttf
2127739	START	n/a	LTP284	ltpFR	14	n/a	n/a	n/a	n/a	n/a	n/a	n/a	n/a	n/a	n/a	n/a	n/a	n/a	n/a	n/a	n/a
2128654	PROB	n/a	LTP284	ltpFR	14	n/a	n/a	n/a	n/a	n/a	n/a	n/a	15	7	1	7	n/a	n/a	n/a	n/a	n/a
2129935	PROB	n/a	LTP284	ltpFR	14	n/a	n/a	n/a	n/a	n/a	n/a	n/a	14	2	9	3	n/a	n/a	n/a	n/a	n/a
2131666	PROB	n/a	LTP284	ltpFR	14	n/a	n/a	n/a	n/a	n/a	n/a	n/a	17	7	6	4	n/a	n/a	n/a	n/a	n/a
2133079	PROB	n/a	LTP284	ltpFR	14	n/a	n/a	n/a	n/a	n/a	n/a	n/a	15	5	5	5	n/a	n/a	n/a	n/a	n/a
2133996	PROB	n/a	LTP284	ltpFR	14	n/a	n/a	n/a	n/a	n/a	n/a	n/a	18	7	2	9	n/a	n/a	n/a	n/a	n/a
2135205	STOP	n/a	LTP284	ltpFR	14	n/a	n/a	n/a	n/a	n/a	n/a	n/a	n/a	n/a	n/a	n/a	n/a	n/a	n/a	n/a	n/a
2136642	WORD	wordpools/wasnorm_wordpool_less_exclusions.txt	LTP284	ltpFR	14	8	0	BIKE	125	n/a	n/a	0	n/a	0	0	0	0.57763671875	0.412841796875	1	upper	amplitud.ttf
2139654	START	n/a	LTP284	ltpFR	14	n/a	n/a	n/a	n/a	n/a	n/a	n/a	n/a	n/a	n/a	n/a	n/a	n/a	n/a	n/a	n/a
2140636	PROB	n/a	LTP284	ltpFR	14	n/a	n/a	n/a	n/a	n/a	n/a	n/a	10	2	6	2	n/a	n/a	n/a	n/a	n/a
2143098	PROB	n/a	LTP284	ltpFR	14	n/a	n/a	n/a	n/a	n/a	n/a	n/a	110	4	3	3	n/a	n/a	n/a	n/a	n/a
2147654	STOP	n/a	LTP284	ltpFR	14	n/a	n/a	n/a	n/a	n/a	n/a	n/a	n/a	n/a	n/a	n/a	n/a	n/a	n/a	n/a	n/a
2148490	WORD	wordpools/wasnorm_wordpool_less_exclusions.txt	LTP284	ltpFR	14	8	1	HELMET	702	n/a	n/a	0	n/a	0	0	0	0.422607421875	0.5869140625	0	lower	zerothre.ttf
2151502	START	n/a	LTP284	ltpFR	14	n/a	n/a	n/a	n/a	n/a	n/a	n/a	n/a	n/a	n/a	n/a	n/a	n/a	n/a	n/a	n/a
2152684	PROB	n/a	LTP284	ltpFR	14	n/a	n/a	n/a	n/a	n/a	n/a	n/a	16	5	9	2	n/a	n/a	n/a	n/a	n/a
2154931	PROB	n/a	LTP284	ltpFR	14	n/a	n/a	n/a	n/a	n/a	n/a	n/a	21	7	7	7	n/a	n/a	n/a	n/a	n/a
2156345	PROB	n/a	LTP284	ltpFR	14	n/a	n/a	n/a	n/a	n/a	n/a	n/a	16	7	5	4	n/a	n/a	n/a	n/a	n/a
2158461	STOP	n/a	LTP284	ltpFR	14	n/a	n/a	n/a	n/a	n/a	n/a	n/a	n/a	n/a	n/a	n/a	n/a	n/a	n/a	n/a	n/a
2160522	WORD	wordpools/wasnorm_wordpool_less_exclusions.txt	LTP284	ltpFR	14	8	1	BUILDING	191	n/a	n/a	0	n/a	0	0	0	0.422607421875	0.5869140625	0	lower	zerothre.ttf
2163534	START	n/a	LTP284	ltpFR	14	n/a	n/a	n/a	n/a	n/a	n/a	n/a	n/a	n/a	n/a	n/a	n/a	n/a	n/a	n/a	n/a
2164667	PROB	n/a	LTP284	ltpFR	14	n/a	n/a	n/a	n/a	n/a	n/a	n/a	15	5	6	4	n/a	n/a	n/a	n/a	n/a
2165848	PROB	n/a	LTP284	ltpFR	14	n/a	n/a	n/a	n/a	n/a	n/a	n/a	11	2	8	1	n/a	n/a	n/a	n/a	n/a
2167262	PROB	n/a	LTP284	ltpFR	14	n/a	n/a	n/a	n/a	n/a	n/a	n/a	7	2	1	4	n/a	n/a	n/a	n/a	n/a
2171517	STOP	n/a	LTP284	ltpFR	14	n/a	n/a	n/a	n/a	n/a	n/a	n/a	n/a	n/a	n/a	n/a	n/a	n/a	n/a	n/a	n/a
2172721	WORD	wordpools/wasnorm_wordpool_less_exclusions.txt	LTP284	ltpFR	14	8	1	DEPARTMENT	449	n/a	n/a	0	n/a	0	0	0	0.422607421875	0.5869140625	0	lower	zerothre.ttf
2175734	START	n/a	LTP284	ltpFR	14	n/a	n/a	n/a	n/a	n/a	n/a	n/a	n/a	n/a	n/a	n/a	n/a	n/a	n/a	n/a	n/a
2176615	PROB	n/a	LTP284	ltpFR	14	n/a	n/a	n/a	n/a	n/a	n/a	n/a	12	4	4	4	n/a	n/a	n/a	n/a	n/a
2177830	PROB	n/a	LTP284	ltpFR	14	n/a	n/a	n/a	n/a	n/a	n/a	n/a	14	4	4	6	n/a	n/a	n/a	n/a	n/a
2179327	PROB	n/a	LTP284	ltpFR	14	n/a	n/a	n/a	n/a	n/a	n/a	n/a	15	6	8	1	n/a	n/a	n/a	n/a	n/a
2180876	PROB	n/a	LTP284	ltpFR	14	n/a	n/a	n/a	n/a	n/a	n/a	n/a	12	6	3	3	n/a	n/a	n/a	n/a	n/a
2182574	STOP	n/a	LTP284	ltpFR	14	n/a	n/a	n/a	n/a	n/a	n/a	n/a	n/a	n/a	n/a	n/a	n/a	n/a	n/a	n/a	n/a
2184870	WORD	wordpools/wasnorm_wordpool_less_exclusions.txt	LTP284	ltpFR	14	8	1	CHEMIST	292	n/a	n/a	1	n/a	0	0	0	0.422607421875	0.5869140625	0	lower	zerothre.ttf
2187882	START	n/a	LTP284	ltpFR	14	n/a	n/a	n/a	n/a	n/a	n/a	n/a	n/a	n/a	n/a	n/a	n/a	n/a	n/a	n/a	n/a
2188747	PROB	n/a	LTP284	ltpFR	14	n/a	n/a	n/a	n/a	n/a	n/a	n/a	15	6	7	2	n/a	n/a	n/a	n/a	n/a
2190561	PROB	n/a	LTP284	ltpFR	14	n/a	n/a	n/a	n/a	n/a	n/a	n/a	14	5	4	5	n/a	n/a	n/a	n/a	n/a
2191926	PROB	n/a	LTP284	ltpFR	14	n/a	n/a	n/a	n/a	n/a	n/a	n/a	10	3	4	3	n/a	n/a	n/a	n/a	n/a
2195882	STOP	n/a	LTP284	ltpFR	14	n/a	n/a	n/a	n/a	n/a	n/a	n/a	n/a	n/a	n/a	n/a	n/a	n/a	n/a	n/a	n/a
2196902	WORD	wordpools/wasnorm_wordpool_less_exclusions.txt	LTP284	ltpFR	14	8	1	JUG	762	n/a	n/a	0	n/a	0	0	0	0.422607421875	0.5869140625	0	lower	zerothre.ttf
2199914	START	n/a	LTP284	ltpFR	14	n/a	n/a	n/a	n/a	n/a	n/a	n/a	n/a	n/a	n/a	n/a	n/a	n/a	n/a	n/a	n/a
2200829	PROB	n/a	LTP284	ltpFR	14	n/a	n/a	n/a	n/a	n/a	n/a	n/a	10	3	5	2	n/a	n/a	n/a	n/a	n/a
2203042	PROB	n/a	LTP284	ltpFR	14	n/a	n/a	n/a	n/a	n/a	n/a	n/a	16	1	9	6	n/a	n/a	n/a	n/a	n/a
2204356	PROB	n/a	LTP284	ltpFR	14	n/a	n/a	n/a	n/a	n/a	n/a	n/a	5	1	1	3	n/a	n/a	n/a	n/a	n/a
2205739	PROB	n/a	LTP284	ltpFR	14	n/a	n/a	n/a	n/a	n/a	n/a	n/a	15	4	2	9	n/a	n/a	n/a	n/a	n/a
2207053	STOP	n/a	LTP284	ltpFR	14	n/a	n/a	n/a	n/a	n/a	n/a	n/a	n/a	n/a	n/a	n/a	n/a	n/a	n/a	n/a	n/a
2208967	WORD	wordpools/wasnorm_wordpool_less_exclusions.txt	LTP284	ltpFR	14	8	1	CASTLE	256	n/a	n/a	0	n/a	0	0	0	0.422607421875	0.5869140625	0	lower	zerothre.ttf
2211980	START	n/a	LTP284	ltpFR	14	n/a	n/a	n/a	n/a	n/a	n/a	n/a	n/a	n/a	n/a	n/a	n/a	n/a	n/a	n/a	n/a
2213110	PROB	n/a	LTP284	ltpFR	14	n/a	n/a	n/a	n/a	n/a	n/a	n/a	17	6	9	2	n/a	n/a	n/a	n/a	n/a
2215406	PROB	n/a	LTP284	ltpFR	14	n/a	n/a	n/a	n/a	n/a	n/a	n/a	7	2	3	2	n/a	n/a	n/a	n/a	n/a
2217904	PROB	n/a	LTP284	ltpFR	14	n/a	n/a	n/a	n/a	n/a	n/a	n/a	9	1	5	3	n/a	n/a	n/a	n/a	n/a
2219622	STOP	n/a	LTP284	ltpFR	14	n/a	n/a	n/a	n/a	n/a	n/a	n/a	n/a	n/a	n/a	n/a	n/a	n/a	n/a	n/a	n/a
2220849	WORD	wordpools/wasnorm_wordpool_less_exclusions.txt	LTP284	ltpFR	14	8	0	RUBY	1214	n/a	n/a	0	n/a	0	0	0	0.57763671875	0.412841796875	1	upper	amplitud.ttf
2223862	START	n/a	LTP284	ltpFR	14	n/a	n/a	n/a	n/a	n/a	n/a	n/a	n/a	n/a	n/a	n/a	n/a	n/a	n/a	n/a	n/a
2224743	PROB	n/a	LTP284	ltpFR	14	n/a	n/a	n/a	n/a	n/a	n/a	n/a	6	2	1	3	n/a	n/a	n/a	n/a	n/a
2227056	PROB	n/a	LTP284	ltpFR	14	n/a	n/a	n/a	n/a	n/a	n/a	n/a	14	2	3	9	n/a	n/a	n/a	n/a	n/a
2228588	PROB	n/a	LTP284	ltpFR	14	n/a	n/a	n/a	n/a	n/a	n/a	n/a	23	8	9	6	n/a	n/a	n/a	n/a	n/a
2231509	STOP	n/a	LTP284	ltpFR	14	n/a	n/a	n/a	n/a	n/a	n/a	n/a	n/a	n/a	n/a	n/a	n/a	n/a	n/a	n/a	n/a
2232931	WORD	wordpools/wasnorm_wordpool_less_exclusions.txt	LTP284	ltpFR	14	8	0	INVENTOR	743	n/a	n/a	1	n/a	0	0	0	0.57763671875	0.412841796875	1	upper	amplitud.ttf
2235944	START	n/a	LTP284	ltpFR	14	n/a	n/a	n/a	n/a	n/a	n/a	n/a	n/a	n/a	n/a	n/a	n/a	n/a	n/a	n/a	n/a
2237009	PROB	n/a	LTP284	ltpFR	14	n/a	n/a	n/a	n/a	n/a	n/a	n/a	14	3	7	4	n/a	n/a	n/a	n/a	n/a
2238405	PROB	n/a	LTP284	ltpFR	14	n/a	n/a	n/a	n/a	n/a	n/a	n/a	15	2	4	9	n/a	n/a	n/a	n/a	n/a
2239738	PROB	n/a	LTP284	ltpFR	14	n/a	n/a	n/a	n/a	n/a	n/a	n/a	16	9	5	2	n/a	n/a	n/a	n/a	n/a
2241235	PROB	n/a	LTP284	ltpFR	14	n/a	n/a	n/a	n/a	n/a	n/a	n/a	17	6	3	8	n/a	n/a	n/a	n/a	n/a
2243309	STOP	n/a	LTP284	ltpFR	14	n/a	n/a	n/a	n/a	n/a	n/a	n/a	n/a	n/a	n/a	n/a	n/a	n/a	n/a	n/a	n/a
2245112	WORD	wordpools/wasnorm_wordpool_less_exclusions.txt	LTP284	ltpFR	14	8	0	THRONE	1461	n/a	n/a	0	n/a	0	0	0	0.57763671875	0.412841796875	1	upper	amplitud.ttf
2248125	START	n/a	LTP284	ltpFR	14	n/a	n/a	n/a	n/a	n/a	n/a	n/a	n/a	n/a	n/a	n/a	n/a	n/a	n/a	n/a	n/a
2249173	PROB	n/a	LTP284	ltpFR	14	n/a	n/a	n/a	n/a	n/a	n/a	n/a	13	3	8	2	n/a	n/a	n/a	n/a	n/a
2250671	PROB	n/a	LTP284	ltpFR	14	n/a	n/a	n/a	n/a	n/a	n/a	n/a	16	4	4	8	n/a	n/a	n/a	n/a	n/a
2253200	PROB	n/a	LTP284	ltpFR	14	n/a	n/a	n/a	n/a	n/a	n/a	n/a	16	7	4	5	n/a	n/a	n/a	n/a	n/a
2255429	STOP	n/a	LTP284	ltpFR	14	n/a	n/a	n/a	n/a	n/a	n/a	n/a	n/a	n/a	n/a	n/a	n/a	n/a	n/a	n/a	n/a
2257127	WORD	wordpools/wasnorm_wordpool_less_exclusions.txt	LTP284	ltpFR	14	8	0	DANDELION	438	n/a	n/a	0	n/a	0	0	0	0.57763671875	0.412841796875	1	upper	amplitud.ttf
2260140	START	n/a	LTP284	ltpFR	14	n/a	n/a	n/a	n/a	n/a	n/a	n/a	n/a	n/a	n/a	n/a	n/a	n/a	n/a	n/a	n/a
2261205	PROB	n/a	LTP284	ltpFR	14	n/a	n/a	n/a	n/a	n/a	n/a	n/a	17	9	5	3	n/a	n/a	n/a	n/a	n/a
2262803	PROB	n/a	LTP284	ltpFR	14	n/a	n/a	n/a	n/a	n/a	n/a	n/a	20	7	6	7	n/a	n/a	n/a	n/a	n/a
2264767	PROB	n/a	LTP284	ltpFR	14	n/a	n/a	n/a	n/a	n/a	n/a	n/a	15	2	3	5	n/a	n/a	n/a	n/a	n/a
2266114	PROB	n/a	LTP284	ltpFR	14	n/a	n/a	n/a	n/a	n/a	n/a	n/a	10	1	3	6	n/a	n/a	n/a	n/a	n/a
2267806	STOP	n/a	LTP284	ltpFR	14	n/a	n/a	n/a	n/a	n/a	n/a	n/a	n/a	n/a	n/a	n/a	n/a	n/a	n/a	n/a	n/a
2269011	WORD	wordpools/wasnorm_wordpool_less_exclusions.txt	LTP284	ltpFR	14	8	0	PLANT	1083	n/a	n/a	0	n/a	0	0	0	0.57763671875	0.412841796875	1	upper	amplitud.ttf
2272023	START	n/a	LTP284	ltpFR	14	n/a	n/a	n/a	n/a	n/a	n/a	n/a	n/a	n/a	n/a	n/a	n/a	n/a	n/a	n/a	n/a
2272855	PROB	n/a	LTP284	ltpFR	14	n/a	n/a	n/a	n/a	n/a	n/a	n/a	12	3	7	2	n/a	n/a	n/a	n/a	n/a
2274268	PROB	n/a	LTP284	ltpFR	14	n/a	n/a	n/a	n/a	n/a	n/a	n/a	17	4	7	6	n/a	n/a	n/a	n/a	n/a
2276332	PROB	n/a	LTP284	ltpFR	14	n/a	n/a	n/a	n/a	n/a	n/a	n/a	15	4	6	5	n/a	n/a	n/a	n/a	n/a
2280023	STOP	n/a	LTP284	ltpFR	14	n/a	n/a	n/a	n/a	n/a	n/a	n/a	n/a	n/a	n/a	n/a	n/a	n/a	n/a	n/a	n/a
2280893	WORD	wordpools/wasnorm_wordpool_less_exclusions.txt	LTP284	ltpFR	14	8	0	LAVA	804	n/a	n/a	0	n/a	0	0	0	0.57763671875	0.412841796875	1	upper	amplitud.ttf
2283906	START	n/a	LTP284	ltpFR	14	n/a	n/a	n/a	n/a	n/a	n/a	n/a	n/a	n/a	n/a	n/a	n/a	n/a	n/a	n/a	n/a
2284787	PROB	n/a	LTP284	ltpFR	14	n/a	n/a	n/a	n/a	n/a	n/a	n/a	12	7	2	3	n/a	n/a	n/a	n/a	n/a
2286267	PROB	n/a	LTP284	ltpFR	14	n/a	n/a	n/a	n/a	n/a	n/a	n/a	9	3	3	3	n/a	n/a	n/a	n/a	n/a
2287650	PROB	n/a	LTP284	ltpFR	14	n/a	n/a	n/a	n/a	n/a	n/a	n/a	20	5	9	6	n/a	n/a	n/a	n/a	n/a
2291906	STOP	n/a	LTP284	ltpFR	14	n/a	n/a	n/a	n/a	n/a	n/a	n/a	n/a	n/a	n/a	n/a	n/a	n/a	n/a	n/a	n/a
2292825	WORD	wordpools/wasnorm_wordpool_less_exclusions.txt	LTP284	ltpFR	14	8	1	BILL	126	n/a	n/a	0	n/a	0	0	0	0.422607421875	0.5869140625	0	lower	zerothre.ttf
2295838	START	n/a	LTP284	ltpFR	14	n/a	n/a	n/a	n/a	n/a	n/a	n/a	n/a	n/a	n/a	n/a	n/a	n/a	n/a	n/a	n/a
2297002	PROB	n/a	LTP284	ltpFR	14	n/a	n/a	n/a	n/a	n/a	n/a	n/a	11	3	2	6	n/a	n/a	n/a	n/a	n/a
2298299	PROB	n/a	LTP284	ltpFR	14	n/a	n/a	n/a	n/a	n/a	n/a	n/a	21	9	7	5	n/a	n/a	n/a	n/a	n/a
2300097	PROB	n/a	LTP284	ltpFR	14	n/a	n/a	n/a	n/a	n/a	n/a	n/a	17	7	7	3	n/a	n/a	n/a	n/a	n/a
2301762	PROB	n/a	LTP284	ltpFR	14	n/a	n/a	n/a	n/a	n/a	n/a	n/a	8	1	2	5	n/a	n/a	n/a	n/a	n/a
2303006	STOP	n/a	LTP284	ltpFR	14	n/a	n/a	n/a	n/a	n/a	n/a	n/a	n/a	n/a	n/a	n/a	n/a	n/a	n/a	n/a	n/a
2305024	WORD	wordpools/wasnorm_wordpool_less_exclusions.txt	LTP284	ltpFR	14	8	1	MARSH	874	n/a	n/a	0	n/a	0	0	0	0.422607421875	0.5869140625	0	lower	zerothre.ttf
2308035	START	n/a	LTP284	ltpFR	14	n/a	n/a	n/a	n/a	n/a	n/a	n/a	n/a	n/a	n/a	n/a	n/a	n/a	n/a	n/a	n/a
2309034	PROB	n/a	LTP284	ltpFR	14	n/a	n/a	n/a	n/a	n/a	n/a	n/a	10	4	3	3	n/a	n/a	n/a	n/a	n/a
2311163	PROB	n/a	LTP284	ltpFR	14	n/a	n/a	n/a	n/a	n/a	n/a	n/a	10	3	6	1	n/a	n/a	n/a	n/a	n/a
2312662	PROB	n/a	LTP284	ltpFR	14	n/a	n/a	n/a	n/a	n/a	n/a	n/a	11	1	7	3	n/a	n/a	n/a	n/a	n/a
2314630	STOP	n/a	LTP284	ltpFR	14	n/a	n/a	n/a	n/a	n/a	n/a	n/a	n/a	n/a	n/a	n/a	n/a	n/a	n/a	n/a	n/a
2317838	REC_START	n/a	LTP284	ltpFR	14	8	n/a	n/a	n/a	n/a	n/a	n/a	n/a	0	0	0	n/a	n/a	n/a	n/a	n/a
2319788	REC_WORD	wordpools/wasnorm_wordpool_less_exclusions.txt	LTP284	ltpFR	14	8	0	MONKEY	911	n/a	n/a	1	n/a	0	0	0	n/a	n/a	n/a	n/a	n/a
2321595	REC_WORD	wordpools/wasnorm_wordpool_less_exclusions.txt	LTP284	ltpFR	14	8	n/a	BICYCLE	-1	n/a	n/a	n/a	n/a	0	0	0	n/a	n/a	n/a	n/a	n/a
2323055	REC_WORD	wordpools/wasnorm_wordpool_less_exclusions.txt	LTP284	ltpFR	14	8	1	HELMET	702	n/a	n/a	0	n/a	0	0	0	n/a	n/a	n/a	n/a	n/a
2324893	REC_WORD	wordpools/wasnorm_wordpool_less_exclusions.txt	LTP284	ltpFR	14	8	1	BUILDING	191	n/a	n/a	0	n/a	0	0	0	n/a	n/a	n/a	n/a	n/a
2327405	REC_WORD	wordpools/wasnorm_wordpool_less_exclusions.txt	LTP284	ltpFR	14	8	1	JUG	762	n/a	n/a	0	n/a	0	0	0	n/a	n/a	n/a	n/a	n/a
2329000	REC_WORD	wordpools/wasnorm_wordpool_less_exclusions.txt	LTP284	ltpFR	14	8	0	DANDELION	438	n/a	n/a	0	n/a	0	0	0	n/a	n/a	n/a	n/a	n/a
2331645	REC_WORD	wordpools/wasnorm_wordpool_less_exclusions.txt	LTP284	ltpFR	14	8	0	RUBY	1214	n/a	n/a	0	n/a	0	0	0	n/a	n/a	n/a	n/a	n/a
2334324	REC_WORD	wordpools/wasnorm_wordpool_less_exclusions.txt	LTP284	ltpFR	14	8	1	CHEMIST	292	n/a	n/a	1	n/a	0	0	0	n/a	n/a	n/a	n/a	n/a
2337273	REC_WORD	wordpools/wasnorm_wordpool_less_exclusions.txt	LTP284	ltpFR	14	8	0	INVENTOR	743	n/a	n/a	1	n/a	0	0	0	n/a	n/a	n/a	n/a	n/a
2433831	WORD	wordpools/wasnorm_wordpool_less_exclusions.txt	LTP284	ltpFR	14	9	0	MINT	898	n/a	n/a	0	n/a	0	0	0	0.57763671875	0.412841796875	1	upper	amplitud.ttf
2437659	WORD	wordpools/wasnorm_wordpool_less_exclusions.txt	LTP284	ltpFR	14	9	0	POET	1095	n/a	n/a	1	n/a	0	0	0	0.57763671875	0.412841796875	1	upper	amplitud.ttf
2441836	WORD	wordpools/wasnorm_wordpool_less_exclusions.txt	LTP284	ltpFR	14	9	1	OVAL	990	n/a	n/a	0	n/a	0	0	0	0.422607421875	0.5869140625	0	lower	zerothre.ttf
2445697	WORD	wordpools/wasnorm_wordpool_less_exclusions.txt	LTP284	ltpFR	14	9	1	NEST	945	n/a	n/a	0	n/a	0	0	0	0.422607421875	0.5869140625	0	lower	zerothre.ttf
2449824	WORD	wordpools/wasnorm_wordpool_less_exclusions.txt	LTP284	ltpFR	14	9	1	WINDSHIELD	1612	n/a	n/a	0	n/a	0	0	0	0.422607421875	0.5869140625	0	lower	zerothre.ttf
2453652	WORD	wordpools/wasnorm_wordpool_less_exclusions.txt	LTP284	ltpFR	14	9	1	SWEATER	1419	n/a	n/a	0	n/a	0	0	0	0.422607421875	0.5869140625	0	lower	zerothre.ttf
2457478	WORD	wordpools/wasnorm_wordpool_less_exclusions.txt	LTP284	ltpFR	14	9	1	FREEWAY	603	n/a	n/a	0	n/a	0	0	0	0.422607421875	0.5869140625	0	lower	zerothre.ttf
2461573	WORD	wordpools/wasnorm_wordpool_less_exclusions.txt	LTP284	ltpFR	14	9	0	CONTRACT	368	n/a	n/a	0	n/a	0	0	0	0.57763671875	0.412841796875	1	upper	amplitud.ttf
2465567	WORD	wordpools/wasnorm_wordpool_less_exclusions.txt	LTP284	ltpFR	14	9	0	PUBLISHER	1137	n/a	n/a	1	n/a	0	0	0	0.57763671875	0.412841796875	1	upper	amplitud.ttf
2469477	WORD	wordpools/wasnorm_wordpool_less_exclusions.txt	LTP284	ltpFR	14	9	0	CAMEL	223	n/a	n/a	1	n/a	0	0	0	0.57763671875	0.412841796875	1	upper	amplitud.ttf
2473488	WORD	wordpools/wasnorm_wordpool_less_exclusions.txt	LTP284	ltpFR	14	9	0	WAITRESS	1581	n/a	n/a	1	n/a	0	0	0	0.57763671875	0.412841796875	1	upper	amplitud.ttf
2477515	WORD	wordpools/wasnorm_wordpool_less_exclusions.txt	LTP284	ltpFR	14	9	0	DINER	467	n/a	n/a	0	n/a	0	0	0	0.57763671875	0.412841796875	1	upper	amplitud.ttf
2481726	WORD	wordpools/wasnorm_wordpool_less_exclusions.txt	LTP284	ltpFR	14	9	0	TOTE	1487	n/a	n/a	0	n/a	0	0	0	0.57763671875	0.412841796875	1	upper	amplitud.ttf
2485604	WORD	wordpools/wasnorm_wordpool_less_exclusions.txt	LTP284	ltpFR	14	9	1	HAWK	692	n/a	n/a	1	n/a	0	0	0	0.422607421875	0.5869140625	0	lower	zerothre.ttf
2489547	WORD	wordpools/wasnorm_wordpool_less_exclusions.txt	LTP284	ltpFR	14	9	1	FEATHER	557	n/a	n/a	0	n/a	0	0	0	0.422607421875	0.5869140625	0	lower	zerothre.ttf
2493609	WORD	wordpools/wasnorm_wordpool_less_exclusions.txt	LTP284	ltpFR	14	9	1	JEEP	753	n/a	n/a	0	n/a	0	0	0	0.422607421875	0.5869140625	0	lower	zerothre.ttf
2496621	START	n/a	LTP284	ltpFR	14	n/a	n/a	n/a	n/a	n/a	n/a	n/a	n/a	n/a	n/a	n/a	n/a	n/a	n/a	n/a	n/a
2497468	PROB	n/a	LTP284	ltpFR	14	n/a	n/a	n/a	n/a	n/a	n/a	n/a	18	6	6	6	n/a	n/a	n/a	n/a	n/a
2498917	PROB	n/a	LTP284	ltpFR	14	n/a	n/a	n/a	n/a	n/a	n/a	n/a	23	6	9	8	n/a	n/a	n/a	n/a	n/a
2501529	PROB	n/a	LTP284	ltpFR	14	n/a	n/a	n/a	n/a	n/a	n/a	n/a	13	2	7	4	n/a	n/a	n/a	n/a	n/a
2503509	PROB	n/a	LTP284	ltpFR	14	n/a	n/a	n/a	n/a	n/a	n/a	n/a	10	7	1	2	n/a	n/a	n/a	n/a	n/a
2505273	PROB	n/a	LTP284	ltpFR	14	n/a	n/a	n/a	n/a	n/a	n/a	n/a	13	8	3	2	n/a	n/a	n/a	n/a	n/a
2506672	PROB	n/a	LTP284	ltpFR	14	n/a	n/a	n/a	n/a	n/a	n/a	n/a	13	2	2	9	n/a	n/a	n/a	n/a	n/a
2508119	PROB	n/a	LTP284	ltpFR	14	n/a	n/a	n/a	n/a	n/a	n/a	n/a	9	3	1	5	n/a	n/a	n/a	n/a	n/a
2509918	PROB	n/a	LTP284	ltpFR	14	n/a	n/a	n/a	n/a	n/a	n/a	n/a	14	7	4	3	n/a	n/a	n/a	n/a	n/a
2511453	STOP	n/a	LTP284	ltpFR	14	n/a	n/a	n/a	n/a	n/a	n/a	n/a	n/a	n/a	n/a	n/a	n/a	n/a	n/a	n/a	n/a
2514444	REC_START	n/a	LTP284	ltpFR	14	9	n/a	n/a	n/a	n/a	n/a	n/a	n/a	0	0	0	n/a	n/a	n/a	n/a	n/a
2517603	REC_WORD	wordpools/wasnorm_wordpool_less_exclusions.txt	LTP284	ltpFR	14	9	0	MINT	898	n/a	n/a	0	n/a	0	0	0	n/a	n/a	n/a	n/a	n/a
2520580	REC_WORD	wordpools/wasnorm_wordpool_less_exclusions.txt	LTP284	ltpFR	14	9	0	POET	1095	n/a	n/a	1	n/a	0	0	0	n/a	n/a	n/a	n/a	n/a
2521937	REC_WORD	wordpools/wasnorm_wordpool_less_exclusions.txt	LTP284	ltpFR	14	9	1	NEST	945	n/a	n/a	0	n/a	0	0	0	n/a	n/a	n/a	n/a	n/a
2523296	REC_WORD	wordpools/wasnorm_wordpool_less_exclusions.txt	LTP284	ltpFR	14	9	1	OVAL	990	n/a	n/a	0	n/a	0	0	0	n/a	n/a	n/a	n/a	n/a
2524974	REC_WORD	wordpools/wasnorm_wordpool_less_exclusions.txt	LTP284	ltpFR	14	9	n/a	HIGHWAY	707	n/a	n/a	n/a	n/a	0	0	0	n/a	n/a	n/a	n/a	n/a
2528211	REC_WORD	wordpools/wasnorm_wordpool_less_exclusions.txt	LTP284	ltpFR	14	9	1	JEEP	753	n/a	n/a	0	n/a	0	0	0	n/a	n/a	n/a	n/a	n/a
2532512	REC_WORD	wordpools/wasnorm_wordpool_less_exclusions.txt	LTP284	ltpFR	14	9	1	SWEATER	1419	n/a	n/a	0	n/a	0	0	0	n/a	n/a	n/a	n/a	n/a
2534791	REC_WORD	wordpools/wasnorm_wordpool_less_exclusions.txt	LTP284	ltpFR	14	9	0	PUBLISHER	1137	n/a	n/a	1	n/a	0	0	0	n/a	n/a	n/a	n/a	n/a
2536564	REC_WORD	wordpools/wasnorm_wordpool_less_exclusions.txt	LTP284	ltpFR	14	9	0	CONTRACT	368	n/a	n/a	0	n/a	0	0	0	n/a	n/a	n/a	n/a	n/a
2539946	REC_WORD	wordpools/wasnorm_wordpool_less_exclusions.txt	LTP284	ltpFR	14	9	0	WAITRESS	1581	n/a	n/a	1	n/a	0	0	0	n/a	n/a	n/a	n/a	n/a
2541706	REC_WORD	wordpools/wasnorm_wordpool_less_exclusions.txt	LTP284	ltpFR	14	9	0	DINER	467	n/a	n/a	0	n/a	0	0	0	n/a	n/a	n/a	n/a	n/a
2548700	REC_WORD	wordpools/wasnorm_wordpool_less_exclusions.txt	LTP284	ltpFR	14	9	1	HAWK	692	n/a	n/a	1	n/a	0	0	0	n/a	n/a	n/a	n/a	n/a
2550126	REC_WORD	wordpools/wasnorm_wordpool_less_exclusions.txt	LTP284	ltpFR	14	9	0	TOTE	1487	n/a	n/a	0	n/a	0	0	0	n/a	n/a	n/a	n/a	n/a
2552473	REC_WORD	wordpools/wasnorm_wordpool_less_exclusions.txt	LTP284	ltpFR	14	9	1	FEATHER	557	n/a	n/a	0	n/a	0	0	0	n/a	n/a	n/a	n/a	n/a
2556599	REC_WORD	wordpools/wasnorm_wordpool_less_exclusions.txt	LTP284	ltpFR	14	9	0	CAMEL	223	n/a	n/a	1	n/a	0	0	0	n/a	n/a	n/a	n/a	n/a
2575683	REC_WORD	wordpools/wasnorm_wordpool_less_exclusions.txt	LTP284	ltpFR	14	9	1	WINDSHIELD	1612	n/a	n/a	0	n/a	0	0	0	n/a	n/a	n/a	n/a	n/a
2583257	REC_WORD	wordpools/wasnorm_wordpool_less_exclusions.txt	LTP284	ltpFR	14	9	1	FREEWAY	603	n/a	n/a	0	n/a	0	0	0	n/a	n/a	n/a	n/a	n/a
2598185	WORD	wordpools/wasnorm_wordpool_less_exclusions.txt	LTP284	ltpFR	14	10	1	PAWN	1030	n/a	n/a	0	n/a	0	0	0	0.422607421875	0.5869140625	0	lower	zerothre.ttf
2602312	WORD	wordpools/wasnorm_wordpool_less_exclusions.txt	LTP284	ltpFR	14	10	1	CYLINDER	432	n/a	n/a	0	n/a	0	0	0	0.422607421875	0.5869140625	0	lower	zerothre.ttf
2606189	WORD	wordpools/wasnorm_wordpool_less_exclusions.txt	LTP284	ltpFR	14	10	1	GATE	625	n/a	n/a	0	n/a	0	0	0	0.422607421875	0.5869140625	0	lower	zerothre.ttf
2610267	WORD	wordpools/wasnorm_wordpool_less_exclusions.txt	LTP284	ltpFR	14	10	1	BALLERINA	74	n/a	n/a	1	n/a	0	0	0	0.422607421875	0.5869140625	0	lower	zerothre.ttf
2614460	WORD	wordpools/wasnorm_wordpool_less_exclusions.txt	LTP284	ltpFR	14	10	0	FOX	598	n/a	n/a	1	n/a	0	0	0	0.57763671875	0.412841796875	1	upper	amplitud.ttf
2618521	WORD	wordpools/wasnorm_wordpool_less_exclusions.txt	LTP284	ltpFR	14	10	0	ELECTRICIAN	521	n/a	n/a	1	n/a	0	0	0	0.57763671875	0.412841796875	1	upper	amplitud.ttf
2622716	WORD	wordpools/wasnorm_wordpool_less_exclusions.txt	LTP284	ltpFR	14	10	0	LASER	801	n/a	n/a	0	n/a	0	0	0	0.57763671875	0.412841796875	1	upper	amplitud.ttf
2626660	WORD	wordpools/wasnorm_wordpool_less_exclusions.txt	LTP284	ltpFR	14	10	0	ROOSTER	1209	n/a	n/a	1	n/a	0	0	0	0.57763671875	0.412841796875	1	upper	amplitud.ttf
2630820	WORD	wordpools/wasnorm_wordpool_less_exclusions.txt	LTP284	ltpFR	14	10	1	MALL	860	n/a	n/a	1	n/a	0	0	0	0.422607421875	0.5869140625	0	lower	zerothre.ttf
2634898	WORD	wordpools/wasnorm_wordpool_less_exclusions.txt	LTP284	ltpFR	14	10	1	BEGGAR	117	n/a	n/a	1	n/a	0	0	0	0.422607421875	0.5869140625	0	lower	zerothre.ttf
2638908	WORD	wordpools/wasnorm_wordpool_less_exclusions.txt	LTP284	ltpFR	14	10	1	EGG	518	n/a	n/a	0	n/a	0	0	0	0.422607421875	0.5869140625	0	lower	zerothre.ttf
2642936	WORD	wordpools/wasnorm_wordpool_less_exclusions.txt	LTP284	ltpFR	14	10	1	PANTHER	1009	n/a	n/a	1	n/a	0	0	0	0.422607421875	0.5869140625	0	lower	zerothre.ttf
2647078	WORD	wordpools/wasnorm_wordpool_less_exclusions.txt	LTP284	ltpFR	14	10	0	FLASHLIGHT	575	n/a	n/a	0	n/a	0	0	0	0.57763671875	0.412841796875	1	upper	amplitud.ttf
2650990	WORD	wordpools/wasnorm_wordpool_less_exclusions.txt	LTP284	ltpFR	14	10	0	WAX	1597	n/a	n/a	0	n/a	0	0	0	0.57763671875	0.412841796875	1	upper	amplitud.ttf
2654984	WORD	wordpools/wasnorm_wordpool_less_exclusions.txt	LTP284	ltpFR	14	10	0	VEHICLE	1553	n/a	n/a	1	n/a	0	0	0	0.57763671875	0.412841796875	1	upper	amplitud.ttf
2659060	WORD	wordpools/wasnorm_wordpool_less_exclusions.txt	LTP284	ltpFR	14	10	0	GARAGE	621	n/a	n/a	1	n/a	0	0	0	0.57763671875	0.412841796875	1	upper	amplitud.ttf
2662073	START	n/a	LTP284	ltpFR	14	n/a	n/a	n/a	n/a	n/a	n/a	n/a	n/a	n/a	n/a	n/a	n/a	n/a	n/a	n/a	n/a
2662939	PROB	n/a	LTP284	ltpFR	14	n/a	n/a	n/a	n/a	n/a	n/a	n/a	10	6	2	2	n/a	n/a	n/a	n/a	n/a
2665318	PROB	n/a	LTP284	ltpFR	14	n/a	n/a	n/a	n/a	n/a	n/a	n/a	13	7	2	4	n/a	n/a	n/a	n/a	n/a
2670073	STOP	n/a	LTP284	ltpFR	14	n/a	n/a	n/a	n/a	n/a	n/a	n/a	n/a	n/a	n/a	n/a	n/a	n/a	n/a	n/a	n/a
2671993	REC_START	n/a	LTP284	ltpFR	14	10	n/a	n/a	n/a	n/a	n/a	n/a	n/a	0	0	0	n/a	n/a	n/a	n/a	n/a
2675633	REC_WORD	wordpools/wasnorm_wordpool_less_exclusions.txt	LTP284	ltpFR	14	10	1	PAWN	1030	n/a	n/a	0	n/a	0	0	0	n/a	n/a	n/a	n/a	n/a
2676667	REC_WORD	wordpools/wasnorm_wordpool_less_exclusions.txt	LTP284	ltpFR	14	10	1	CYLINDER	432	n/a	n/a	0	n/a	0	0	0	n/a	n/a	n/a	n/a	n/a
2678093	REC_WORD	wordpools/wasnorm_wordpool_less_exclusions.txt	LTP284	ltpFR	14	10	n/a	KEY	773	n/a	n/a	n/a	n/a	0	0	0	n/a	n/a	n/a	n/a	n/a
2679936	REC_WORD	wordpools/wasnorm_wordpool_less_exclusions.txt	LTP284	ltpFR	14	10	1	BALLERINA	74	n/a	n/a	1	n/a	0	0	0	n/a	n/a	n/a	n/a	n/a
2681618	REC_WORD	wordpools/wasnorm_wordpool_less_exclusions.txt	LTP284	ltpFR	14	10	0	FOX	598	n/a	n/a	1	n/a	0	0	0	n/a	n/a	n/a	n/a	n/a
2683123	REC_WORD	wordpools/wasnorm_wordpool_less_exclusions.txt	LTP284	ltpFR	14	10	0	ELECTRICIAN	521	n/a	n/a	1	n/a	0	0	0	n/a	n/a	n/a	n/a	n/a
2684643	REC_WORD	wordpools/wasnorm_wordpool_less_exclusions.txt	LTP284	ltpFR	14	10	0	LASER	801	n/a	n/a	0	n/a	0	0	0	n/a	n/a	n/a	n/a	n/a
2685922	REC_WORD	wordpools/wasnorm_wordpool_less_exclusions.txt	LTP284	ltpFR	14	10	0	ROOSTER	1209	n/a	n/a	1	n/a	0	0	0	n/a	n/a	n/a	n/a	n/a
2687274	REC_WORD	wordpools/wasnorm_wordpool_less_exclusions.txt	LTP284	ltpFR	14	10	1	MALL	860	n/a	n/a	1	n/a	0	0	0	n/a	n/a	n/a	n/a	n/a
2688617	REC_WORD	wordpools/wasnorm_wordpool_less_exclusions.txt	LTP284	ltpFR	14	10	1	EGG	518	n/a	n/a	0	n/a	0	0	0	n/a	n/a	n/a	n/a	n/a
2689922	REC_WORD	wordpools/wasnorm_wordpool_less_exclusions.txt	LTP284	ltpFR	14	10	1	PANTHER	1009	n/a	n/a	1	n/a	0	0	0	n/a	n/a	n/a	n/a	n/a
2691212	REC_WORD	wordpools/wasnorm_wordpool_less_exclusions.txt	LTP284	ltpFR	14	10	0	FLASHLIGHT	575	n/a	n/a	0	n/a	0	0	0	n/a	n/a	n/a	n/a	n/a
2693020	REC_WORD	wordpools/wasnorm_wordpool_less_exclusions.txt	LTP284	ltpFR	14	10	n/a	FAN	551	n/a	n/a	n/a	n/a	0	0	0	n/a	n/a	n/a	n/a	n/a
2694183	REC_WORD	wordpools/wasnorm_wordpool_less_exclusions.txt	LTP284	ltpFR	14	10	0	GARAGE	621	n/a	n/a	1	n/a	0	0	0	n/a	n/a	n/a	n/a	n/a
2695543	REC_WORD	wordpools/wasnorm_wordpool_less_exclusions.txt	LTP284	ltpFR	14	10	0	WAX	1597	n/a	n/a	0	n/a	0	0	0	n/a	n/a	n/a	n/a	n/a
2723334	REC_WORD	wordpools/wasnorm_wordpool_less_exclusions.txt	LTP284	ltpFR	14	10	1	GATE	625	n/a	n/a	0	n/a	0	0	0	n/a	n/a	n/a	n/a	n/a
2772225	START	n/a	LTP284	ltpFR	14	n/a	n/a	n/a	n/a	n/a	n/a	n/a	n/a	n/a	n/a	n/a	n/a	n/a	n/a	n/a	n/a
2773740	PROB	n/a	LTP284	ltpFR	14	n/a	n/a	n/a	n/a	n/a	n/a	n/a	16	4	5	7	n/a	n/a	n/a	n/a	n/a
2775587	PROB	n/a	LTP284	ltpFR	14	n/a	n/a	n/a	n/a	n/a	n/a	n/a	18	8	7	3	n/a	n/a	n/a	n/a	n/a
2777101	PROB	n/a	LTP284	ltpFR	14	n/a	n/a	n/a	n/a	n/a	n/a	n/a	18	4	7	7	n/a	n/a	n/a	n/a	n/a
2779748	PROB	n/a	LTP284	ltpFR	14	n/a	n/a	n/a	n/a	n/a	n/a	n/a	13	6	1	6	n/a	n/a	n/a	n/a	n/a
2781178	PROB	n/a	LTP284	ltpFR	14	n/a	n/a	n/a	n/a	n/a	n/a	n/a	16	9	4	3	n/a	n/a	n/a	n/a	n/a
2782727	PROB	n/a	LTP284	ltpFR	14	n/a	n/a	n/a	n/a	n/a	n/a	n/a	9	3	3	3	n/a	n/a	n/a	n/a	n/a
2785023	PROB	n/a	LTP284	ltpFR	14	n/a	n/a	n/a	n/a	n/a	n/a	n/a	15	6	5	4	n/a	n/a	n/a	n/a	n/a
2786982	STOP	n/a	LTP284	ltpFR	14	n/a	n/a	n/a	n/a	n/a	n/a	n/a	n/a	n/a	n/a	n/a	n/a	n/a	n/a	n/a	n/a
2789100	WORD	wordpools/wasnorm_wordpool_less_exclusions.txt	LTP284	ltpFR	14	11	1	PICNIC	1060	n/a	n/a	0	n/a	0	0	0	0.422607421875	0.5869140625	0	lower	zerothre.ttf
2792112	START	n/a	LTP284	ltpFR	14	n/a	n/a	n/a	n/a	n/a	n/a	n/a	n/a	n/a	n/a	n/a	n/a	n/a	n/a	n/a	n/a
2793011	PROB	n/a	LTP284	ltpFR	14	n/a	n/a	n/a	n/a	n/a	n/a	n/a	16	8	7	1	n/a	n/a	n/a	n/a	n/a
2794358	PROB	n/a	LTP284	ltpFR	14	n/a	n/a	n/a	n/a	n/a	n/a	n/a	14	1	4	9	n/a	n/a	n/a	n/a	n/a
2795807	PROB	n/a	LTP284	ltpFR	14	n/a	n/a	n/a	n/a	n/a	n/a	n/a	20	3	8	9	n/a	n/a	n/a	n/a	n/a
2798603	PROB	n/a	LTP284	ltpFR	14	n/a	n/a	n/a	n/a	n/a	n/a	n/a	11	7	3	1	n/a	n/a	n/a	n/a	n/a
2799718	PROB	n/a	LTP284	ltpFR	14	n/a	n/a	n/a	n/a	n/a	n/a	n/a	17	5	3	9	n/a	n/a	n/a	n/a	n/a
2801431	PROB	n/a	LTP284	ltpFR	14	n/a	n/a	n/a	n/a	n/a	n/a	n/a	13	7	4	2	n/a	n/a	n/a	n/a	n/a
2802797	PROB	n/a	LTP284	ltpFR	14	n/a	n/a	n/a	n/a	n/a	n/a	n/a	19	8	5	6	n/a	n/a	n/a	n/a	n/a
2804827	PROB	n/a	LTP284	ltpFR	14	n/a	n/a	n/a	n/a	n/a	n/a	n/a	14	3	6	5	n/a	n/a	n/a	n/a	n/a
2806806	STOP	n/a	LTP284	ltpFR	14	n/a	n/a	n/a	n/a	n/a	n/a	n/a	n/a	n/a	n/a	n/a	n/a	n/a	n/a	n/a	n/a
2809103	WORD	wordpools/wasnorm_wordpool_less_exclusions.txt	LTP284	ltpFR	14	11	1	BARLEY	88	n/a	n/a	1	n/a	0	0	0	0.422607421875	0.5869140625	0	lower	zerothre.ttf
2812116	START	n/a	LTP284	ltpFR	14	n/a	n/a	n/a	n/a	n/a	n/a	n/a	n/a	n/a	n/a	n/a	n/a	n/a	n/a	n/a	n/a
2813032	PROB	n/a	LTP284	ltpFR	14	n/a	n/a	n/a	n/a	n/a	n/a	n/a	13	8	3	2	n/a	n/a	n/a	n/a	n/a
2814362	PROB	n/a	LTP284	ltpFR	14	n/a	n/a	n/a	n/a	n/a	n/a	n/a	15	2	9	4	n/a	n/a	n/a	n/a	n/a
2816093	PROB	n/a	LTP284	ltpFR	14	n/a	n/a	n/a	n/a	n/a	n/a	n/a	8	3	1	4	n/a	n/a	n/a	n/a	n/a
2818906	PROB	n/a	LTP284	ltpFR	14	n/a	n/a	n/a	n/a	n/a	n/a	n/a	6	1	1	4	n/a	n/a	n/a	n/a	n/a
2820453	PROB	n/a	LTP284	ltpFR	14	n/a	n/a	n/a	n/a	n/a	n/a	n/a	16	5	8	3	n/a	n/a	n/a	n/a	n/a
2822450	PROB	n/a	LTP284	ltpFR	14	n/a	n/a	n/a	n/a	n/a	n/a	n/a	12	5	5	2	n/a	n/a	n/a	n/a	n/a
2823865	PROB	n/a	LTP284	ltpFR	14	n/a	n/a	n/a	n/a	n/a	n/a	n/a	18	5	7	6	n/a	n/a	n/a	n/a	n/a
2826194	PROB	n/a	LTP284	ltpFR	14	n/a	n/a	n/a	n/a	n/a	n/a	n/a	18	7	7	4	n/a	n/a	n/a	n/a	n/a
2827662	STOP	n/a	LTP284	ltpFR	14	n/a	n/a	n/a	n/a	n/a	n/a	n/a	n/a	n/a	n/a	n/a	n/a	n/a	n/a	n/a	n/a
2829107	WORD	wordpools/wasnorm_wordpool_less_exclusions.txt	LTP284	ltpFR	14	11	0	STONE	1385	n/a	n/a	0	n/a	0	0	0	0.57763671875	0.412841796875	1	upper	amplitud.ttf
2832119	START	n/a	LTP284	ltpFR	14	n/a	n/a	n/a	n/a	n/a	n/a	n/a	n/a	n/a	n/a	n/a	n/a	n/a	n/a	n/a	n/a
2833150	PROB	n/a	LTP284	ltpFR	14	n/a	n/a	n/a	n/a	n/a	n/a	n/a	15	6	6	3	n/a	n/a	n/a	n/a	n/a
2834616	PROB	n/a	LTP284	ltpFR	14	n/a	n/a	n/a	n/a	n/a	n/a	n/a	12	3	3	6	n/a	n/a	n/a	n/a	n/a
2835881	PROB	n/a	LTP284	ltpFR	14	n/a	n/a	n/a	n/a	n/a	n/a	n/a	18	3	7	8	n/a	n/a	n/a	n/a	n/a
2837095	PROB	n/a	LTP284	ltpFR	14	n/a	n/a	n/a	n/a	n/a	n/a	n/a	6	1	2	3	n/a	n/a	n/a	n/a	n/a
2838226	PROB	n/a	LTP284	ltpFR	14	n/a	n/a	n/a	n/a	n/a	n/a	n/a	6	2	3	1	n/a	n/a	n/a	n/a	n/a
2839325	PROB	n/a	LTP284	ltpFR	14	n/a	n/a	n/a	n/a	n/a	n/a	n/a	19	9	5	5	n/a	n/a	n/a	n/a	n/a
2841039	PROB	n/a	LTP284	ltpFR	14	n/a	n/a	n/a	n/a	n/a	n/a	n/a	8	5	2	2	n/a	n/a	n/a	n/a	n/a
2842637	PROB	n/a	LTP284	ltpFR	14	n/a	n/a	n/a	n/a	n/a	n/a	n/a	10	4	3	3	n/a	n/a	n/a	n/a	n/a
2845349	PROB	n/a	LTP284	ltpFR	14	n/a	n/a	n/a	n/a	n/a	n/a	n/a	13	8	2	3	n/a	n/a	n/a	n/a	n/a
2847014	STOP	n/a	LTP284	ltpFR	14	n/a	n/a	n/a	n/a	n/a	n/a	n/a	n/a	n/a	n/a	n/a	n/a	n/a	n/a	n/a	n/a
2849193	WORD	wordpools/wasnorm_wordpool_less_exclusions.txt	LTP284	ltpFR	14	11	0	WINGS	1614	n/a	n/a	0	n/a	0	0	0	0.57763671875	0.412841796875	1	upper	amplitud.ttf
2852206	START	n/a	LTP284	ltpFR	14	n/a	n/a	n/a	n/a	n/a	n/a	n/a	n/a	n/a	n/a	n/a	n/a	n/a	n/a	n/a	n/a
2853104	PROB	n/a	LTP284	ltpFR	14	n/a	n/a	n/a	n/a	n/a	n/a	n/a	16	9	6	1	n/a	n/a	n/a	n/a	n/a
2855668	PROB	n/a	LTP284	ltpFR	14	n/a	n/a	n/a	n/a	n/a	n/a	n/a	14	2	6	6	n/a	n/a	n/a	n/a	n/a
2857481	PROB	n/a	LTP284	ltpFR	14	n/a	n/a	n/a	n/a	n/a	n/a	n/a	9	3	1	5	n/a	n/a	n/a	n/a	n/a
2859128	PROB	n/a	LTP284	ltpFR	14	n/a	n/a	n/a	n/a	n/a	n/a	n/a	9	2	5	2	n/a	n/a	n/a	n/a	n/a
2861042	PROB	n/a	LTP284	ltpFR	14	n/a	n/a	n/a	n/a	n/a	n/a	n/a	13	8	4	1	n/a	n/a	n/a	n/a	n/a
2862774	PROB	n/a	LTP284	ltpFR	14	n/a	n/a	n/a	n/a	n/a	n/a	n/a	19	8	4	7	n/a	n/a	n/a	n/a	n/a
2865069	PROB	n/a	LTP284	ltpFR	14	n/a	n/a	n/a	n/a	n/a	n/a	n/a	18	4	6	8	n/a	n/a	n/a	n/a	n/a
2866351	PROB	n/a	LTP284	ltpFR	14	n/a	n/a	n/a	n/a	n/a	n/a	n/a	18	3	8	7	n/a	n/a	n/a	n/a	n/a
2868157	STOP	n/a	LTP284	ltpFR	14	n/a	n/a	n/a	n/a	n/a	n/a	n/a	n/a	n/a	n/a	n/a	n/a	n/a	n/a	n/a	n/a
2869180	WORD	wordpools/wasnorm_wordpool_less_exclusions.txt	LTP284	ltpFR	14	11	0	SISTER	1312	n/a	n/a	1	n/a	0	0	0	0.57763671875	0.412841796875	1	upper	amplitud.ttf
2872193	START	n/a	LTP284	ltpFR	14	n/a	n/a	n/a	n/a	n/a	n/a	n/a	n/a	n/a	n/a	n/a	n/a	n/a	n/a	n/a	n/a
2873307	PROB	n/a	LTP284	ltpFR	14	n/a	n/a	n/a	n/a	n/a	n/a	n/a	17	5	4	8	n/a	n/a	n/a	n/a	n/a
2875088	PROB	n/a	LTP284	ltpFR	14	n/a	n/a	n/a	n/a	n/a	n/a	n/a	12	4	7	1	n/a	n/a	n/a	n/a	n/a
2876770	PROB	n/a	LTP284	ltpFR	14	n/a	n/a	n/a	n/a	n/a	n/a	n/a	18	7	3	8	n/a	n/a	n/a	n/a	n/a
2877985	PROB	n/a	LTP284	ltpFR	14	n/a	n/a	n/a	n/a	n/a	n/a	n/a	18	9	4	5	n/a	n/a	n/a	n/a	n/a
2879398	PROB	n/a	LTP284	ltpFR	14	n/a	n/a	n/a	n/a	n/a	n/a	n/a	12	8	2	2	n/a	n/a	n/a	n/a	n/a
2880730	PROB	n/a	LTP284	ltpFR	14	n/a	n/a	n/a	n/a	n/a	n/a	n/a	16	6	3	7	n/a	n/a	n/a	n/a	n/a
2882578	PROB	n/a	LTP284	ltpFR	14	n/a	n/a	n/a	n/a	n/a	n/a	n/a	15	5	2	8	n/a	n/a	n/a	n/a	n/a
2883842	PROB	n/a	LTP284	ltpFR	14	n/a	n/a	n/a	n/a	n/a	n/a	n/a	13	1	8	4	n/a	n/a	n/a	n/a	n/a
2888192	STOP	n/a	LTP284	ltpFR	14	n/a	n/a	n/a	n/a	n/a	n/a	n/a	n/a	n/a	n/a	n/a	n/a	n/a	n/a	n/a	n/a
2889217	WORD	wordpools/wasnorm_wordpool_less_exclusions.txt	LTP284	ltpFR	14	11	1	FOLLOWER	589	n/a	n/a	1	n/a	0	0	0	0.422607421875	0.5869140625	0	lower	zerothre.ttf
2892229	START	n/a	LTP284	ltpFR	14	n/a	n/a	n/a	n/a	n/a	n/a	n/a	n/a	n/a	n/a	n/a	n/a	n/a	n/a	n/a	n/a
2893244	PROB	n/a	LTP284	ltpFR	14	n/a	n/a	n/a	n/a	n/a	n/a	n/a	24	8	7	8	n/a	n/a	n/a	n/a	n/a
2896056	PROB	n/a	LTP284	ltpFR	14	n/a	n/a	n/a	n/a	n/a	n/a	n/a	14	8	2	4	n/a	n/a	n/a	n/a	n/a
2898286	PROB	n/a	LTP284	ltpFR	14	n/a	n/a	n/a	n/a	n/a	n/a	n/a	12	6	5	1	n/a	n/a	n/a	n/a	n/a
2899518	PROB	n/a	LTP284	ltpFR	14	n/a	n/a	n/a	n/a	n/a	n/a	n/a	12	3	3	6	n/a	n/a	n/a	n/a	n/a
2901249	PROB	n/a	LTP284	ltpFR	14	n/a	n/a	n/a	n/a	n/a	n/a	n/a	8	6	1	1	n/a	n/a	n/a	n/a	n/a
2902497	PROB	n/a	LTP284	ltpFR	14	n/a	n/a	n/a	n/a	n/a	n/a	n/a	21	7	5	9	n/a	n/a	n/a	n/a	n/a
2904294	PROB	n/a	LTP284	ltpFR	14	n/a	n/a	n/a	n/a	n/a	n/a	n/a	8	1	1	6	n/a	n/a	n/a	n/a	n/a
2905560	PROB	n/a	LTP284	ltpFR	14	n/a	n/a	n/a	n/a	n/a	n/a	n/a	15	3	7	5	n/a	n/a	n/a	n/a	n/a
2908229	STOP	n/a	LTP284	ltpFR	14	n/a	n/a	n/a	n/a	n/a	n/a	n/a	n/a	n/a	n/a	n/a	n/a	n/a	n/a	n/a	n/a
2909287	WORD	wordpools/wasnorm_wordpool_less_exclusions.txt	LTP284	ltpFR	14	11	1	BEETLE	116	n/a	n/a	1	n/a	0	0	0	0.422607421875	0.5869140625	0	lower	zerothre.ttf
2912299	START	n/a	LTP284	ltpFR	14	n/a	n/a	n/a	n/a	n/a	n/a	n/a	n/a	n/a	n/a	n/a	n/a	n/a	n/a	n/a	n/a
2913497	PROB	n/a	LTP284	ltpFR	14	n/a	n/a	n/a	n/a	n/a	n/a	n/a	17	3	6	8	n/a	n/a	n/a	n/a	n/a
2915311	PROB	n/a	LTP284	ltpFR	14	n/a	n/a	n/a	n/a	n/a	n/a	n/a	21	7	5	9	n/a	n/a	n/a	n/a	n/a
2916910	PROB	n/a	LTP284	ltpFR	14	n/a	n/a	n/a	n/a	n/a	n/a	n/a	7	1	3	3	n/a	n/a	n/a	n/a	n/a
2918257	PROB	n/a	LTP284	ltpFR	14	n/a	n/a	n/a	n/a	n/a	n/a	n/a	16	7	7	2	n/a	n/a	n/a	n/a	n/a
2920071	PROB	n/a	LTP284	ltpFR	14	n/a	n/a	n/a	n/a	n/a	n/a	n/a	11	4	6	1	n/a	n/a	n/a	n/a	n/a
2921352	PROB	n/a	LTP284	ltpFR	14	n/a	n/a	n/a	n/a	n/a	n/a	n/a	13	3	4	6	n/a	n/a	n/a	n/a	n/a
2923050	PROB	n/a	LTP284	ltpFR	14	n/a	n/a	n/a	n/a	n/a	n/a	n/a	15	6	3	6	n/a	n/a	n/a	n/a	n/a
2924698	PROB	n/a	LTP284	ltpFR	14	n/a	n/a	n/a	n/a	n/a	n/a	n/a	21	9	8	5	n/a	n/a	n/a	n/a	n/a
2927918	STOP	n/a	LTP284	ltpFR	14	n/a	n/a	n/a	n/a	n/a	n/a	n/a	n/a	n/a	n/a	n/a	n/a	n/a	n/a	n/a	n/a
2929124	WORD	wordpools/wasnorm_wordpool_less_exclusions.txt	LTP284	ltpFR	14	11	1	KITE	779	n/a	n/a	0	n/a	0	0	0	0.422607421875	0.5869140625	0	lower	zerothre.ttf
2932136	START	n/a	LTP284	ltpFR	14	n/a	n/a	n/a	n/a	n/a	n/a	n/a	n/a	n/a	n/a	n/a	n/a	n/a	n/a	n/a	n/a
