onset	duration	trial_type	sample	stim_file	subject	experiment	session	trial	item_name	item_num	list	answer	test_x	test_y	test_z
232.615234375	n/a	SESS_START	476396	n/a	LTP385	ltpFR2	19	n/a	n/a	n/a	n/a	n/a	0	0	0
248.451171875	n/a	START	508828	n/a	LTP385	ltpFR2	19	n/a	n/a	n/a	-1	n/a	n/a	n/a	n/a
248.48193359375	n/a	PROB	508891	n/a	LTP385	ltpFR2	19	n/a	n/a	n/a	-1	23	6	8	9
251.44775390625	n/a	PROB	514965	n/a	LTP385	ltpFR2	19	n/a	n/a	n/a	-1	10	1	7	2
253.61474609375	n/a	PROB	519403	n/a	LTP385	ltpFR2	19	n/a	n/a	n/a	-1	12	2	2	8
255.23193359375	n/a	PROB	522715	n/a	LTP385	ltpFR2	19	n/a	n/a	n/a	-1	17	3	7	7
257.46484375	n/a	PROB	527288	n/a	LTP385	ltpFR2	19	n/a	n/a	n/a	-1	20	9	2	9
259.70263671875	n/a	STOP	531871	n/a	LTP385	ltpFR2	19	n/a	n/a	n/a	-1	n/a	n/a	n/a	n/a
309.67919921875	n/a	DISTRACTOR	634223	n/a	LTP385	ltpFR2	19	1	n/a	n/a	n/a	n/a	0	0	0
309.67919921875	n/a	START	634223	n/a	LTP385	ltpFR2	19	n/a	n/a	n/a	1	n/a	n/a	n/a	n/a
309.6953125	n/a	PROB	634256	n/a	LTP385	ltpFR2	19	n/a	n/a	n/a	1	11	4	4	3
312.01220703125	n/a	PROB	639001	n/a	LTP385	ltpFR2	19	n/a	n/a	n/a	1	21	5	9	7
315.27880859375	n/a	PROB	645691	n/a	LTP385	ltpFR2	19	n/a	n/a	n/a	1	16	5	5	6
317.01171875	n/a	PROB	649240	n/a	LTP385	ltpFR2	19	n/a	n/a	n/a	1	13	7	1	5
318.82763671875	n/a	PROB	652959	n/a	LTP385	ltpFR2	19	n/a	n/a	n/a	1	8	2	3	3
320.427734375	n/a	PROB	656236	n/a	LTP385	ltpFR2	19	n/a	n/a	n/a	1	26	9	9	8
322.3115234375	n/a	PROB	660094	n/a	LTP385	ltpFR2	19	n/a	n/a	n/a	1	20	5	8	7
324.19482421875	n/a	PROB	663951	n/a	LTP385	ltpFR2	19	n/a	n/a	n/a	1	18	8	6	4
326.11181640625	n/a	PROB	667877	n/a	LTP385	ltpFR2	19	n/a	n/a	n/a	1	24	9	6	9
329.9443359375	n/a	PROB	675726	n/a	LTP385	ltpFR2	19	n/a	n/a	n/a	1	19	8	7	4
333.1513671875	n/a	STOP	682294	n/a	LTP385	ltpFR2	19	n/a	n/a	n/a	1	n/a	n/a	n/a	n/a
334.89453125	n/a	WORD	685864	wordpools/wasnorm_wordpool_576.txt	LTP385	ltpFR2	19	1	LAVA	804	n/a	n/a	0	0	0
337.3271484375	n/a	WORD	690846	wordpools/wasnorm_wordpool_576.txt	LTP385	ltpFR2	19	1	TYPIST	1532	n/a	n/a	0	0	0
339.84423828125	n/a	WORD	696001	wordpools/wasnorm_wordpool_576.txt	LTP385	ltpFR2	19	1	WORKER	1621	n/a	n/a	0	0	0
342.31005859375	n/a	WORD	701051	wordpools/wasnorm_wordpool_576.txt	LTP385	ltpFR2	19	1	BUCKET	184	n/a	n/a	0	0	0
345.0439453125	n/a	WORD	706650	wordpools/wasnorm_wordpool_576.txt	LTP385	ltpFR2	19	1	CHAMPAGNE	278	n/a	n/a	0	0	0
347.59375	n/a	WORD	711872	wordpools/wasnorm_wordpool_576.txt	LTP385	ltpFR2	19	1	DASHBOARD	441	n/a	n/a	0	0	0
350.19384765625	n/a	WORD	717197	wordpools/wasnorm_wordpool_576.txt	LTP385	ltpFR2	19	1	FUNGUS	614	n/a	n/a	0	0	0
352.9765625	n/a	WORD	722896	wordpools/wasnorm_wordpool_576.txt	LTP385	ltpFR2	19	1	CHEMIST	292	n/a	n/a	0	0	0
355.65966796875	n/a	WORD	728391	wordpools/wasnorm_wordpool_576.txt	LTP385	ltpFR2	19	1	FRECKLE	602	n/a	n/a	0	0	0
358.3095703125	n/a	WORD	733818	wordpools/wasnorm_wordpool_576.txt	LTP385	ltpFR2	19	1	CARROT	249	n/a	n/a	0	0	0
361.0595703125	n/a	WORD	739450	wordpools/wasnorm_wordpool_576.txt	LTP385	ltpFR2	19	1	VAGRANT	1544	n/a	n/a	0	0	0
363.8095703125	n/a	WORD	745082	wordpools/wasnorm_wordpool_576.txt	LTP385	ltpFR2	19	1	TURTLE	1522	n/a	n/a	0	0	0
366.29248046875	n/a	WORD	750167	wordpools/wasnorm_wordpool_576.txt	LTP385	ltpFR2	19	1	SNAIL	1332	n/a	n/a	0	0	0
368.97607421875	n/a	WORD	755663	wordpools/wasnorm_wordpool_576.txt	LTP385	ltpFR2	19	1	PANTHER	1009	n/a	n/a	0	0	0
371.42626953125	n/a	WORD	760681	wordpools/wasnorm_wordpool_576.txt	LTP385	ltpFR2	19	1	HUSBAND	728	n/a	n/a	0	0	0
374.2431640625	n/a	WORD	766450	wordpools/wasnorm_wordpool_576.txt	LTP385	ltpFR2	19	1	SURVEY	1414	n/a	n/a	0	0	0
376.9921875	n/a	WORD	772080	wordpools/wasnorm_wordpool_576.txt	LTP385	ltpFR2	19	1	PIMPLE	1071	n/a	n/a	0	0	0
379.5087890625	n/a	WORD	777234	wordpools/wasnorm_wordpool_576.txt	LTP385	ltpFR2	19	1	SALAD	1224	n/a	n/a	0	0	0
382.32470703125	n/a	WORD	783001	wordpools/wasnorm_wordpool_576.txt	LTP385	ltpFR2	19	1	BARREL	91	n/a	n/a	0	0	0
385.091796875	n/a	WORD	788668	wordpools/wasnorm_wordpool_576.txt	LTP385	ltpFR2	19	1	LION	827	n/a	n/a	0	0	0
387.90869140625	n/a	WORD	794437	wordpools/wasnorm_wordpool_576.txt	LTP385	ltpFR2	19	1	DRINK	498	n/a	n/a	0	0	0
390.57470703125	n/a	WORD	799897	wordpools/wasnorm_wordpool_576.txt	LTP385	ltpFR2	19	1	SCISSORS	1250	n/a	n/a	0	0	0
393.3916015625	n/a	WORD	805666	wordpools/wasnorm_wordpool_576.txt	LTP385	ltpFR2	19	1	SPHINX	1349	n/a	n/a	0	0	0
396.05859375	n/a	WORD	811128	wordpools/wasnorm_wordpool_576.txt	LTP385	ltpFR2	19	1	DONKEY	484	n/a	n/a	0	0	0
397.67431640625	n/a	START	814437	n/a	LTP385	ltpFR2	19	n/a	n/a	n/a	2	n/a	n/a	n/a	n/a
398.61328125	n/a	DISTRACTOR	816360	n/a	LTP385	ltpFR2	19	1	n/a	n/a	n/a	n/a	0	0	0
398.62451171875	n/a	PROB	816383	n/a	LTP385	ltpFR2	19	n/a	n/a	n/a	2	19	8	3	8
401.45751953125	n/a	PROB	822185	n/a	LTP385	ltpFR2	19	n/a	n/a	n/a	2	19	8	2	9
403.07421875	n/a	PROB	825496	n/a	LTP385	ltpFR2	19	n/a	n/a	n/a	2	9	1	3	5
404.857421875	n/a	PROB	829148	n/a	LTP385	ltpFR2	19	n/a	n/a	n/a	2	19	9	2	8
407.35693359375	n/a	PROB	834267	n/a	LTP385	ltpFR2	19	n/a	n/a	n/a	2	18	4	7	5
411.02392578125	n/a	PROB	841777	n/a	LTP385	ltpFR2	19	n/a	n/a	n/a	2	11	1	3	7
412.52392578125	n/a	PROB	844849	n/a	LTP385	ltpFR2	19	n/a	n/a	n/a	2	17	2	6	9
415.140625	n/a	PROB	850208	n/a	LTP385	ltpFR2	19	n/a	n/a	n/a	2	16	4	4	8
421.673828125	n/a	STOP	863588	n/a	LTP385	ltpFR2	19	n/a	n/a	n/a	2	n/a	n/a	n/a	n/a
423.54052734375	n/a	REC_START	867411	n/a	LTP385	ltpFR2	19	1	n/a	n/a	n/a	n/a	0	0	0
426.0556640625	n/a	REC_WORD	872562	wordpools/wasnorm_wordpool_576.txt	LTP385	ltpFR2	19	1	TYPIST	1532	n/a	n/a	0	0	0
427.8935546875	n/a	REC_WORD	876326	wordpools/wasnorm_wordpool_576.txt	LTP385	ltpFR2	19	1	BARREL	91	n/a	n/a	0	0	0
429.7646484375	n/a	REC_WORD	880158	wordpools/wasnorm_wordpool_576.txt	LTP385	ltpFR2	19	1	SPHINX	1349	n/a	n/a	0	0	0
432.00537109375	n/a	REC_WORD	884747	wordpools/wasnorm_wordpool_576.txt	LTP385	ltpFR2	19	1	LAVA	804	n/a	n/a	0	0	0
433.1591796875	n/a	REC_WORD	887110	wordpools/wasnorm_wordpool_576.txt	LTP385	ltpFR2	19	1	DASHBOARD	441	n/a	n/a	0	0	0
435.26806640625	n/a	REC_WORD	891429	wordpools/wasnorm_wordpool_576.txt	LTP385	ltpFR2	19	1	CHEMIST	292	n/a	n/a	0	0	0
436.39404296875	n/a	REC_WORD	893735	wordpools/wasnorm_wordpool_576.txt	LTP385	ltpFR2	19	1	FUNGUS	614	n/a	n/a	0	0	0
437.97705078125	n/a	REC_WORD	896977	wordpools/wasnorm_wordpool_576.txt	LTP385	ltpFR2	19	1	CARROT	249	n/a	n/a	0	0	0
439.408203125	n/a	REC_WORD	899908	wordpools/wasnorm_wordpool_576.txt	LTP385	ltpFR2	19	1	SALAD	1224	n/a	n/a	0	0	0
441.35302734375	n/a	REC_WORD	903891	wordpools/wasnorm_wordpool_576.txt	LTP385	ltpFR2	19	1	FRECKLE	602	n/a	n/a	0	0	0
443.14208984375	n/a	REC_WORD	907555	wordpools/wasnorm_wordpool_576.txt	LTP385	ltpFR2	19	1	HUSBAND	728	n/a	n/a	0	0	0
444.60595703125	n/a	REC_WORD	910553	wordpools/wasnorm_wordpool_576.txt	LTP385	ltpFR2	19	1	PIMPLE	1071	n/a	n/a	0	0	0
445.81005859375	n/a	REC_WORD	913019	wordpools/wasnorm_wordpool_576.txt	LTP385	ltpFR2	19	1	SURVEY	1414	n/a	n/a	0	0	0
450.8798828125	n/a	REC_WORD	923402	wordpools/wasnorm_wordpool_576.txt	LTP385	ltpFR2	19	1	BEAR	106	n/a	n/a	0	0	0
561.8662109375	n/a	DISTRACTOR	1150702	n/a	LTP385	ltpFR2	19	2	n/a	n/a	n/a	n/a	0	0	0
561.8671875	n/a	START	1150704	n/a	LTP385	ltpFR2	19	n/a	n/a	n/a	3	n/a	n/a	n/a	n/a
561.88330078125	n/a	PROB	1150737	n/a	LTP385	ltpFR2	19	n/a	n/a	n/a	3	13	6	5	2
564.4501953125	n/a	PROB	1155994	n/a	LTP385	ltpFR2	19	n/a	n/a	n/a	3	14	4	8	2
566.35009765625	n/a	PROB	1159885	n/a	LTP385	ltpFR2	19	n/a	n/a	n/a	3	10	2	6	2
567.8330078125	n/a	PROB	1162922	n/a	LTP385	ltpFR2	19	n/a	n/a	n/a	3	20	6	5	9
570.234375	n/a	PROB	1167840	n/a	LTP385	ltpFR2	19	n/a	n/a	n/a	3	16	8	3	5
574.48291015625	n/a	PROB	1176541	n/a	LTP385	ltpFR2	19	n/a	n/a	n/a	3	15	6	8	3
576.35009765625	n/a	PROB	1180365	n/a	LTP385	ltpFR2	19	n/a	n/a	n/a	3	10	5	2	3
578.2998046875	n/a	PROB	1184358	n/a	LTP385	ltpFR2	19	n/a	n/a	n/a	3	11	9	4	1
582.41552734375	n/a	PROB	1192787	n/a	LTP385	ltpFR2	19	n/a	n/a	n/a	3	18	8	9	1
584.7666015625	n/a	STOP	1197602	n/a	LTP385	ltpFR2	19	n/a	n/a	n/a	3	n/a	n/a	n/a	n/a
586.982421875	n/a	WORD	1202140	wordpools/wasnorm_wordpool_576.txt	LTP385	ltpFR2	19	2	MUMMY	932	n/a	n/a	0	0	0
589.44873046875	n/a	WORD	1207191	wordpools/wasnorm_wordpool_576.txt	LTP385	ltpFR2	19	2	DUSTPAN	509	n/a	n/a	0	0	0
592.04833984375	n/a	WORD	1212515	wordpools/wasnorm_wordpool_576.txt	LTP385	ltpFR2	19	2	PLAID	1080	n/a	n/a	0	0	0
594.66552734375	n/a	WORD	1217875	wordpools/wasnorm_wordpool_576.txt	LTP385	ltpFR2	19	2	BABY	64	n/a	n/a	0	0	0
597.2822265625	n/a	WORD	1223234	wordpools/wasnorm_wordpool_576.txt	LTP385	ltpFR2	19	2	SIDEWALK	1303	n/a	n/a	0	0	0
599.76513671875	n/a	WORD	1228319	wordpools/wasnorm_wordpool_576.txt	LTP385	ltpFR2	19	2	HIGHWAY	707	n/a	n/a	0	0	0
602.31494140625	n/a	WORD	1233541	wordpools/wasnorm_wordpool_576.txt	LTP385	ltpFR2	19	2	EGYPT	519	n/a	n/a	0	0	0
604.748046875	n/a	WORD	1238524	wordpools/wasnorm_wordpool_576.txt	LTP385	ltpFR2	19	2	MARINE	869	n/a	n/a	0	0	0
607.39794921875	n/a	WORD	1243951	wordpools/wasnorm_wordpool_576.txt	LTP385	ltpFR2	19	2	PUDDLE	1140	n/a	n/a	0	0	0
609.94775390625	n/a	WORD	1249173	wordpools/wasnorm_wordpool_576.txt	LTP385	ltpFR2	19	2	MOTEL	919	n/a	n/a	0	0	0
612.4150390625	n/a	WORD	1254226	wordpools/wasnorm_wordpool_576.txt	LTP385	ltpFR2	19	2	PICNIC	1060	n/a	n/a	0	0	0
614.880859375	n/a	WORD	1259276	wordpools/wasnorm_wordpool_576.txt	LTP385	ltpFR2	19	2	RIFLE	1192	n/a	n/a	0	0	0
617.6806640625	n/a	WORD	1265010	wordpools/wasnorm_wordpool_576.txt	LTP385	ltpFR2	19	2	LASER	801	n/a	n/a	0	0	0
620.41455078125	n/a	WORD	1270609	wordpools/wasnorm_wordpool_576.txt	LTP385	ltpFR2	19	2	CRATER	400	n/a	n/a	0	0	0
623.21337890625	n/a	WORD	1276341	wordpools/wasnorm_wordpool_576.txt	LTP385	ltpFR2	19	2	COTTAGE	384	n/a	n/a	0	0	0
625.86328125	n/a	WORD	1281768	wordpools/wasnorm_wordpool_576.txt	LTP385	ltpFR2	19	2	CASHIER	254	n/a	n/a	0	0	0
628.41357421875	n/a	WORD	1286991	wordpools/wasnorm_wordpool_576.txt	LTP385	ltpFR2	19	2	PLAYGROUND	1087	n/a	n/a	0	0	0
631.0634765625	n/a	WORD	1292418	wordpools/wasnorm_wordpool_576.txt	LTP385	ltpFR2	19	2	BATHTUB	100	n/a	n/a	0	0	0
633.81298828125	n/a	WORD	1298049	wordpools/wasnorm_wordpool_576.txt	LTP385	ltpFR2	19	2	DINER	467	n/a	n/a	0	0	0
636.36328125	n/a	WORD	1303272	wordpools/wasnorm_wordpool_576.txt	LTP385	ltpFR2	19	2	BEAKER	104	n/a	n/a	0	0	0
639.1630859375	n/a	WORD	1309006	wordpools/wasnorm_wordpool_576.txt	LTP385	ltpFR2	19	2	COLONEL	348	n/a	n/a	0	0	0
641.74609375	n/a	WORD	1314296	wordpools/wasnorm_wordpool_576.txt	LTP385	ltpFR2	19	2	BISON	131	n/a	n/a	0	0	0
644.49609375	n/a	WORD	1319928	wordpools/wasnorm_wordpool_576.txt	LTP385	ltpFR2	19	2	BEAVER	109	n/a	n/a	0	0	0
646.97998046875	n/a	WORD	1325015	wordpools/wasnorm_wordpool_576.txt	LTP385	ltpFR2	19	2	LIZARD	834	n/a	n/a	0	0	0
648.5966796875	n/a	START	1328326	n/a	LTP385	ltpFR2	19	n/a	n/a	n/a	4	n/a	n/a	n/a	n/a
649.50048828125	n/a	DISTRACTOR	1330177	n/a	LTP385	ltpFR2	19	2	n/a	n/a	n/a	n/a	0	0	0
649.5126953125	n/a	PROB	1330202	n/a	LTP385	ltpFR2	19	n/a	n/a	n/a	4	7	1	2	4
651.8798828125	n/a	PROB	1335050	n/a	LTP385	ltpFR2	19	n/a	n/a	n/a	4	16	5	7	4
655.02978515625	n/a	PROB	1341501	n/a	LTP385	ltpFR2	19	n/a	n/a	n/a	4	9	4	3	2
658.16259765625	n/a	PROB	1347917	n/a	LTP385	ltpFR2	19	n/a	n/a	n/a	4	19	4	8	7
661.04541015625	n/a	PROB	1353821	n/a	LTP385	ltpFR2	19	n/a	n/a	n/a	4	6	1	2	3
662.71240234375	n/a	PROB	1357235	n/a	LTP385	ltpFR2	19	n/a	n/a	n/a	4	12	3	4	5
665.96240234375	n/a	PROB	1363891	n/a	LTP385	ltpFR2	19	n/a	n/a	n/a	4	17	5	6	6
668.89501953125	n/a	PROB	1369897	n/a	LTP385	ltpFR2	19	n/a	n/a	n/a	4	20	6	6	8
671.13525390625	n/a	STOP	1374485	n/a	LTP385	ltpFR2	19	n/a	n/a	n/a	4	n/a	n/a	n/a	n/a
674.52880859375	n/a	REC_START	1381435	n/a	LTP385	ltpFR2	19	2	n/a	n/a	n/a	n/a	0	0	0
676.8349609375	n/a	REC_WORD	1386158	wordpools/wasnorm_wordpool_576.txt	LTP385	ltpFR2	19	2	BISON	131	n/a	n/a	0	0	0
677.73291015625	n/a	REC_WORD	1387997	wordpools/wasnorm_wordpool_576.txt	LTP385	ltpFR2	19	2	BEAVER	109	n/a	n/a	0	0	0
678.49072265625	n/a	REC_WORD	1389549	wordpools/wasnorm_wordpool_576.txt	LTP385	ltpFR2	19	2	PICNIC	1060	n/a	n/a	0	0	0
680.3857421875	n/a	REC_WORD	1393430	wordpools/wasnorm_wordpool_576.txt	LTP385	ltpFR2	19	2	RIFLE	1192	n/a	n/a	0	0	0
681.49853515625	n/a	REC_WORD	1395709	wordpools/wasnorm_wordpool_576.txt	LTP385	ltpFR2	19	2	MUMMY	932	n/a	n/a	0	0	0
683.09375	n/a	REC_WORD	1398976	wordpools/wasnorm_wordpool_576.txt	LTP385	ltpFR2	19	2	DUSTPAN	509	n/a	n/a	0	0	0
686.75244140625	n/a	REC_WORD	1406469	wordpools/wasnorm_wordpool_576.txt	LTP385	ltpFR2	19	2	POLICE	1098	n/a	n/a	0	0	0
687.3515625	n/a	REC_WORD	1407696	wordpools/wasnorm_wordpool_576.txt	LTP385	ltpFR2	19	2	HIGHWAY	707	n/a	n/a	0	0	0
689.59130859375	n/a	REC_WORD	1412283	wordpools/wasnorm_wordpool_576.txt	LTP385	ltpFR2	19	2	SIDEWALK	1303	n/a	n/a	0	0	0
691.8603515625	n/a	REC_WORD	1416930	wordpools/wasnorm_wordpool_576.txt	LTP385	ltpFR2	19	2	MARINE	869	n/a	n/a	0	0	0
764.97412109375	n/a	WORD	1566667	wordpools/wasnorm_wordpool_576.txt	LTP385	ltpFR2	19	3	TROMBONE	1508	n/a	n/a	0	0	0
767.64013671875	n/a	WORD	1572127	wordpools/wasnorm_wordpool_576.txt	LTP385	ltpFR2	19	3	JAPAN	749	n/a	n/a	0	0	0
770.423828125	n/a	WORD	1577828	wordpools/wasnorm_wordpool_576.txt	LTP385	ltpFR2	19	3	EUROPE	541	n/a	n/a	0	0	0
773.08984375	n/a	WORD	1583288	wordpools/wasnorm_wordpool_576.txt	LTP385	ltpFR2	19	3	SUBWAY	1400	n/a	n/a	0	0	0
775.60693359375	n/a	WORD	1588443	wordpools/wasnorm_wordpool_576.txt	LTP385	ltpFR2	19	3	GRILL	661	n/a	n/a	0	0	0
778.056640625	n/a	WORD	1593460	wordpools/wasnorm_wordpool_576.txt	LTP385	ltpFR2	19	3	TRIBE	1505	n/a	n/a	0	0	0
780.52392578125	n/a	WORD	1598513	wordpools/wasnorm_wordpool_576.txt	LTP385	ltpFR2	19	3	PARTNER	1017	n/a	n/a	0	0	0
783.0068359375	n/a	WORD	1603598	wordpools/wasnorm_wordpool_576.txt	LTP385	ltpFR2	19	3	COIN	343	n/a	n/a	0	0	0
785.47265625	n/a	WORD	1608648	wordpools/wasnorm_wordpool_576.txt	LTP385	ltpFR2	19	3	ROBOT	1200	n/a	n/a	0	0	0
787.939453125	n/a	WORD	1613700	wordpools/wasnorm_wordpool_576.txt	LTP385	ltpFR2	19	3	DIVER	476	n/a	n/a	0	0	0
790.65625	n/a	WORD	1619264	wordpools/wasnorm_wordpool_576.txt	LTP385	ltpFR2	19	3	KNIFE	785	n/a	n/a	0	0	0
793.17236328125	n/a	WORD	1624417	wordpools/wasnorm_wordpool_576.txt	LTP385	ltpFR2	19	3	FLAG	573	n/a	n/a	0	0	0
795.7060546875	n/a	WORD	1629606	wordpools/wasnorm_wordpool_576.txt	LTP385	ltpFR2	19	3	CUPBOARD	425	n/a	n/a	0	0	0
798.240234375	n/a	WORD	1634796	wordpools/wasnorm_wordpool_576.txt	LTP385	ltpFR2	19	3	STUDENT	1395	n/a	n/a	0	0	0
801.05517578125	n/a	WORD	1640561	wordpools/wasnorm_wordpool_576.txt	LTP385	ltpFR2	19	3	MOTOR	922	n/a	n/a	0	0	0
803.52197265625	n/a	WORD	1645613	wordpools/wasnorm_wordpool_576.txt	LTP385	ltpFR2	19	3	VALLEY	1545	n/a	n/a	0	0	0
806.15478515625	n/a	WORD	1651005	wordpools/wasnorm_wordpool_576.txt	LTP385	ltpFR2	19	3	TEACHER	1440	n/a	n/a	0	0	0
808.82177734375	n/a	WORD	1656467	wordpools/wasnorm_wordpool_576.txt	LTP385	ltpFR2	19	3	MISTER	901	n/a	n/a	0	0	0
811.28857421875	n/a	WORD	1661519	wordpools/wasnorm_wordpool_576.txt	LTP385	ltpFR2	19	3	LADY	794	n/a	n/a	0	0	0
813.771484375	n/a	WORD	1666604	wordpools/wasnorm_wordpool_576.txt	LTP385	ltpFR2	19	3	OFFICE	972	n/a	n/a	0	0	0
816.521484375	n/a	WORD	1672236	wordpools/wasnorm_wordpool_576.txt	LTP385	ltpFR2	19	3	BRACES	164	n/a	n/a	0	0	0
819.25439453125	n/a	WORD	1677833	wordpools/wasnorm_wordpool_576.txt	LTP385	ltpFR2	19	3	GREASE	660	n/a	n/a	0	0	0
821.8046875	n/a	WORD	1683056	wordpools/wasnorm_wordpool_576.txt	LTP385	ltpFR2	19	3	EYELASH	546	n/a	n/a	0	0	0
824.50439453125	n/a	WORD	1688585	wordpools/wasnorm_wordpool_576.txt	LTP385	ltpFR2	19	3	BANKER	84	n/a	n/a	0	0	0
826.12109375	n/a	START	1691896	n/a	LTP385	ltpFR2	19	n/a	n/a	n/a	5	n/a	n/a	n/a	n/a
827.1181640625	n/a	DISTRACTOR	1693938	n/a	LTP385	ltpFR2	19	3	n/a	n/a	n/a	n/a	0	0	0
827.12109375	n/a	PROB	1693944	n/a	LTP385	ltpFR2	19	n/a	n/a	n/a	5	19	4	9	6
829.68701171875	n/a	PROB	1699199	n/a	LTP385	ltpFR2	19	n/a	n/a	n/a	5	21	8	6	7
833.287109375	n/a	PROB	1706572	n/a	LTP385	ltpFR2	19	n/a	n/a	n/a	5	11	1	1	9
834.8369140625	n/a	PROB	1709746	n/a	LTP385	ltpFR2	19	n/a	n/a	n/a	5	16	7	3	6
838.52099609375	n/a	PROB	1717291	n/a	LTP385	ltpFR2	19	n/a	n/a	n/a	5	17	7	7	3
840.5537109375	n/a	PROB	1721454	n/a	LTP385	ltpFR2	19	n/a	n/a	n/a	5	20	5	6	9
843.3037109375	n/a	PROB	1727086	n/a	LTP385	ltpFR2	19	n/a	n/a	n/a	5	24	6	8	8
847.103515625	n/a	PROB	1734868	n/a	LTP385	ltpFR2	19	n/a	n/a	n/a	5	9	5	2	2
848.66259765625	n/a	STOP	1738061	n/a	LTP385	ltpFR2	19	n/a	n/a	n/a	5	n/a	n/a	n/a	n/a
851.9033203125	n/a	REC_START	1744698	n/a	LTP385	ltpFR2	19	3	n/a	n/a	n/a	n/a	0	0	0
855.75927734375	n/a	REC_WORD	1752595	wordpools/wasnorm_wordpool_576.txt	LTP385	ltpFR2	19	3	TEACHER	1440	n/a	n/a	0	0	0
856.87744140625	n/a	REC_WORD	1754885	wordpools/wasnorm_wordpool_576.txt	LTP385	ltpFR2	19	3	MISTER	901	n/a	n/a	0	0	0
858.775390625	n/a	REC_WORD	1758772	wordpools/wasnorm_wordpool_576.txt	LTP385	ltpFR2	19	3	LADY	794	n/a	n/a	0	0	0
861.22802734375	n/a	REC_WORD	1763795	wordpools/wasnorm_wordpool_576.txt	LTP385	ltpFR2	19	3	BRACES	164	n/a	n/a	0	0	0
862.0341796875	n/a	REC_WORD	1765446	wordpools/wasnorm_wordpool_576.txt	LTP385	ltpFR2	19	3	GREASE	660	n/a	n/a	0	0	0
862.67333984375	n/a	REC_WORD	1766755	wordpools/wasnorm_wordpool_576.txt	LTP385	ltpFR2	19	3	EYELASH	546	n/a	n/a	0	0	0
864.6953125	n/a	REC_WORD	1770896	wordpools/wasnorm_wordpool_576.txt	LTP385	ltpFR2	19	3	BANKER	84	n/a	n/a	0	0	0
868.38525390625	n/a	REC_WORD	1778453	wordpools/wasnorm_wordpool_576.txt	LTP385	ltpFR2	19	3	JAPAN	749	n/a	n/a	0	0	0
869.40283203125	n/a	REC_WORD	1780537	wordpools/wasnorm_wordpool_576.txt	LTP385	ltpFR2	19	3	TROMBONE	1508	n/a	n/a	0	0	0
870.94873046875	n/a	REC_WORD	1783703	wordpools/wasnorm_wordpool_576.txt	LTP385	ltpFR2	19	3	EUROPE	541	n/a	n/a	0	0	0
871.4169921875	n/a	REC_WORD	1784662	wordpools/wasnorm_wordpool_576.txt	LTP385	ltpFR2	19	3	SUBWAY	1400	n/a	n/a	0	0	0
872.63671875	n/a	REC_WORD	1787160	wordpools/wasnorm_wordpool_576.txt	LTP385	ltpFR2	19	3	GRILL	661	n/a	n/a	0	0	0
1023.79541015625	n/a	WORD	2096733	wordpools/wasnorm_wordpool_576.txt	LTP385	ltpFR2	19	4	ANKLE	24	n/a	n/a	0	0	0
1026.29541015625	n/a	WORD	2101853	wordpools/wasnorm_wordpool_576.txt	LTP385	ltpFR2	19	4	PIGEON	1065	n/a	n/a	0	0	0
1029.01123046875	n/a	WORD	2107415	wordpools/wasnorm_wordpool_576.txt	LTP385	ltpFR2	19	4	PASTA	1021	n/a	n/a	0	0	0
1031.7109375	n/a	WORD	2112944	wordpools/wasnorm_wordpool_576.txt	LTP385	ltpFR2	19	4	FLESH	579	n/a	n/a	0	0	0
1034.2607421875	n/a	WORD	2118166	wordpools/wasnorm_wordpool_576.txt	LTP385	ltpFR2	19	4	TOASTER	1472	n/a	n/a	0	0	0
1036.81103515625	n/a	WORD	2123389	wordpools/wasnorm_wordpool_576.txt	LTP385	ltpFR2	19	4	BUG	187	n/a	n/a	0	0	0
1039.6279296875	n/a	WORD	2129158	wordpools/wasnorm_wordpool_576.txt	LTP385	ltpFR2	19	4	BURGLAR	200	n/a	n/a	0	0	0
1042.24560546875	n/a	WORD	2134519	wordpools/wasnorm_wordpool_576.txt	LTP385	ltpFR2	19	4	OUTLAW	989	n/a	n/a	0	0	0
1044.927734375	n/a	WORD	2140012	wordpools/wasnorm_wordpool_576.txt	LTP385	ltpFR2	19	4	LUNCH	849	n/a	n/a	0	0	0
1047.49365234375	n/a	WORD	2145267	wordpools/wasnorm_wordpool_576.txt	LTP385	ltpFR2	19	4	SANDWICH	1232	n/a	n/a	0	0	0
1050.1103515625	n/a	WORD	2150626	wordpools/wasnorm_wordpool_576.txt	LTP385	ltpFR2	19	4	MEAT	883	n/a	n/a	0	0	0
1052.77734375	n/a	WORD	2156088	wordpools/wasnorm_wordpool_576.txt	LTP385	ltpFR2	19	4	CATTLE	261	n/a	n/a	0	0	0
1055.54345703125	n/a	WORD	2161753	wordpools/wasnorm_wordpool_576.txt	LTP385	ltpFR2	19	4	DRIVER	499	n/a	n/a	0	0	0
1058.04345703125	n/a	WORD	2166873	wordpools/wasnorm_wordpool_576.txt	LTP385	ltpFR2	19	4	JELLY	755	n/a	n/a	0	0	0
1060.6103515625	n/a	WORD	2172130	wordpools/wasnorm_wordpool_576.txt	LTP385	ltpFR2	19	4	COUSIN	392	n/a	n/a	0	0	0
1063.31005859375	n/a	WORD	2177659	wordpools/wasnorm_wordpool_576.txt	LTP385	ltpFR2	19	4	THIEF	1456	n/a	n/a	0	0	0
1065.79296875	n/a	WORD	2182744	wordpools/wasnorm_wordpool_576.txt	LTP385	ltpFR2	19	4	ORANGE	980	n/a	n/a	0	0	0
1068.29296875	n/a	WORD	2187864	wordpools/wasnorm_wordpool_576.txt	LTP385	ltpFR2	19	4	WAITRESS	1581	n/a	n/a	0	0	0
1070.85986328125	n/a	WORD	2193121	wordpools/wasnorm_wordpool_576.txt	LTP385	ltpFR2	19	4	SWAMP	1416	n/a	n/a	0	0	0
1073.60986328125	n/a	WORD	2198753	wordpools/wasnorm_wordpool_576.txt	LTP385	ltpFR2	19	4	PUPPY	1144	n/a	n/a	0	0	0
1076.12548828125	n/a	WORD	2203905	wordpools/wasnorm_wordpool_576.txt	LTP385	ltpFR2	19	4	SERVER	1272	n/a	n/a	0	0	0
1078.62548828125	n/a	WORD	2209025	wordpools/wasnorm_wordpool_576.txt	LTP385	ltpFR2	19	4	AUTHOR	61	n/a	n/a	0	0	0
1081.109375	n/a	WORD	2214112	wordpools/wasnorm_wordpool_576.txt	LTP385	ltpFR2	19	4	GRAPE	654	n/a	n/a	0	0	0
1083.609375	n/a	WORD	2219232	wordpools/wasnorm_wordpool_576.txt	LTP385	ltpFR2	19	4	BANK	83	n/a	n/a	0	0	0
1085.2265625	n/a	START	2222544	n/a	LTP385	ltpFR2	19	n/a	n/a	n/a	6	n/a	n/a	n/a	n/a
1086.04638671875	n/a	DISTRACTOR	2224223	n/a	LTP385	ltpFR2	19	4	n/a	n/a	n/a	n/a	0	0	0
1086.0595703125	n/a	PROB	2224250	n/a	LTP385	ltpFR2	19	n/a	n/a	n/a	6	12	5	5	2
1088.55810546875	n/a	PROB	2229367	n/a	LTP385	ltpFR2	19	n/a	n/a	n/a	6	12	8	3	1
1090.3583984375	n/a	PROB	2233054	n/a	LTP385	ltpFR2	19	n/a	n/a	n/a	6	9	3	2	4
1092.7421875	n/a	PROB	2237936	n/a	LTP385	ltpFR2	19	n/a	n/a	n/a	6	11	3	4	4
1095.59228515625	n/a	PROB	2243773	n/a	LTP385	ltpFR2	19	n/a	n/a	n/a	6	19	9	4	6
1097.60791015625	n/a	PROB	2247901	n/a	LTP385	ltpFR2	19	n/a	n/a	n/a	6	18	8	3	7
1099.5751953125	n/a	PROB	2251930	n/a	LTP385	ltpFR2	19	n/a	n/a	n/a	6	9	3	3	3
1100.97509765625	n/a	PROB	2254797	n/a	LTP385	ltpFR2	19	n/a	n/a	n/a	6	16	8	2	6
1103.125	n/a	PROB	2259200	n/a	LTP385	ltpFR2	19	n/a	n/a	n/a	6	12	1	3	8
1105.0419921875	n/a	PROB	2263126	n/a	LTP385	ltpFR2	19	n/a	n/a	n/a	6	20	7	8	5
1107.685546875	n/a	STOP	2268540	n/a	LTP385	ltpFR2	19	n/a	n/a	n/a	6	n/a	n/a	n/a	n/a
1111.04150390625	n/a	REC_START	2275413	n/a	LTP385	ltpFR2	19	4	n/a	n/a	n/a	n/a	0	0	0
1118.146484375	n/a	REC_WORD	2289964	wordpools/wasnorm_wordpool_576.txt	LTP385	ltpFR2	19	4	PIGEON	1065	n/a	n/a	0	0	0
1118.7724609375	n/a	REC_WORD	2291246	wordpools/wasnorm_wordpool_576.txt	LTP385	ltpFR2	19	4	ANKLE	24	n/a	n/a	0	0	0
1119.4775390625	n/a	REC_WORD	2292690	wordpools/wasnorm_wordpool_576.txt	LTP385	ltpFR2	19	4	FLESH	579	n/a	n/a	0	0	0
1123.71533203125	n/a	REC_WORD	2301369	wordpools/wasnorm_wordpool_576.txt	LTP385	ltpFR2	19	4	SPAGHETTI	1346	n/a	n/a	0	0	0
1124.60009765625	n/a	REC_WORD	2303181	wordpools/wasnorm_wordpool_576.txt	LTP385	ltpFR2	19	4	LUNCH	849	n/a	n/a	0	0	0
1128.10791015625	n/a	REC_WORD	2310365	wordpools/wasnorm_wordpool_576.txt	LTP385	ltpFR2	19	4	INSECT	740	n/a	n/a	0	0	0
1130.52294921875	n/a	REC_WORD	2315311	wordpools/wasnorm_wordpool_576.txt	LTP385	ltpFR2	19	4	OUTLAW	989	n/a	n/a	0	0	0
1134.61376953125	n/a	REC_WORD	2323689	wordpools/wasnorm_wordpool_576.txt	LTP385	ltpFR2	19	4	ROBBER	1197	n/a	n/a	0	0	0
1138.7685546875	n/a	REC_WORD	2332198	wordpools/wasnorm_wordpool_576.txt	LTP385	ltpFR2	19	4	MEAT	883	n/a	n/a	0	0	0
1141.267578125	n/a	REC_WORD	2337316	wordpools/wasnorm_wordpool_576.txt	LTP385	ltpFR2	19	4	CATTLE	261	n/a	n/a	0	0	0
1142.7705078125	n/a	REC_WORD	2340394	wordpools/wasnorm_wordpool_576.txt	LTP385	ltpFR2	19	4	SANDWICH	1232	n/a	n/a	0	0	0
1201.50390625	n/a	WORD	2460680	wordpools/wasnorm_wordpool_576.txt	LTP385	ltpFR2	19	5	TREAT	1501	n/a	n/a	0	0	0
1204.20361328125	n/a	WORD	2466209	wordpools/wasnorm_wordpool_576.txt	LTP385	ltpFR2	19	5	HUMAN	726	n/a	n/a	0	0	0
1206.76953125	n/a	WORD	2471464	wordpools/wasnorm_wordpool_576.txt	LTP385	ltpFR2	19	5	SHRUB	1299	n/a	n/a	0	0	0
1209.25244140625	n/a	WORD	2476549	wordpools/wasnorm_wordpool_576.txt	LTP385	ltpFR2	19	5	BRANCH	168	n/a	n/a	0	0	0
1211.9365234375	n/a	WORD	2482046	wordpools/wasnorm_wordpool_576.txt	LTP385	ltpFR2	19	5	NOMAD	955	n/a	n/a	0	0	0
1214.40234375	n/a	WORD	2487096	wordpools/wasnorm_wordpool_576.txt	LTP385	ltpFR2	19	5	BACON	67	n/a	n/a	0	0	0
1217.13623046875	n/a	WORD	2492695	wordpools/wasnorm_wordpool_576.txt	LTP385	ltpFR2	19	5	SAUSAGE	1238	n/a	n/a	0	0	0
1219.76953125	n/a	WORD	2498088	wordpools/wasnorm_wordpool_576.txt	LTP385	ltpFR2	19	5	COCOON	339	n/a	n/a	0	0	0
1222.5361328125	n/a	WORD	2503754	wordpools/wasnorm_wordpool_576.txt	LTP385	ltpFR2	19	5	COMPASS	358	n/a	n/a	0	0	0
1225.13623046875	n/a	WORD	2509079	wordpools/wasnorm_wordpool_576.txt	LTP385	ltpFR2	19	5	NEUTRON	947	n/a	n/a	0	0	0
1227.9189453125	n/a	WORD	2514778	wordpools/wasnorm_wordpool_576.txt	LTP385	ltpFR2	19	5	SKIRT	1319	n/a	n/a	0	0	0
1230.51904296875	n/a	WORD	2520103	wordpools/wasnorm_wordpool_576.txt	LTP385	ltpFR2	19	5	CLAMP	316	n/a	n/a	0	0	0
1233.0517578125	n/a	WORD	2525290	wordpools/wasnorm_wordpool_576.txt	LTP385	ltpFR2	19	5	DRAGON	492	n/a	n/a	0	0	0
1235.8017578125	n/a	WORD	2530922	wordpools/wasnorm_wordpool_576.txt	LTP385	ltpFR2	19	5	BRICK	172	n/a	n/a	0	0	0
1238.23583984375	n/a	WORD	2535907	wordpools/wasnorm_wordpool_576.txt	LTP385	ltpFR2	19	5	POPCORN	1104	n/a	n/a	0	0	0
1240.98486328125	n/a	WORD	2541537	wordpools/wasnorm_wordpool_576.txt	LTP385	ltpFR2	19	5	WHISKERS	1605	n/a	n/a	0	0	0
1243.568359375	n/a	WORD	2546828	wordpools/wasnorm_wordpool_576.txt	LTP385	ltpFR2	19	5	FIREPLACE	570	n/a	n/a	0	0	0
1246.3515625	n/a	WORD	2552528	wordpools/wasnorm_wordpool_576.txt	LTP385	ltpFR2	19	5	HOOD	714	n/a	n/a	0	0	0
1249.13427734375	n/a	WORD	2558227	wordpools/wasnorm_wordpool_576.txt	LTP385	ltpFR2	19	5	HELMET	702	n/a	n/a	0	0	0
1251.91748046875	n/a	WORD	2563927	wordpools/wasnorm_wordpool_576.txt	LTP385	ltpFR2	19	5	ICEBERG	731	n/a	n/a	0	0	0
1254.55126953125	n/a	WORD	2569321	wordpools/wasnorm_wordpool_576.txt	LTP385	ltpFR2	19	5	SEAL	1262	n/a	n/a	0	0	0
1257.01708984375	n/a	WORD	2574371	wordpools/wasnorm_wordpool_576.txt	LTP385	ltpFR2	19	5	TROUT	1511	n/a	n/a	0	0	0
1259.6669921875	n/a	WORD	2579798	wordpools/wasnorm_wordpool_576.txt	LTP385	ltpFR2	19	5	COOKBOOK	373	n/a	n/a	0	0	0
1262.1337890625	n/a	WORD	2584850	wordpools/wasnorm_wordpool_576.txt	LTP385	ltpFR2	19	5	VENUS	1557	n/a	n/a	0	0	0
1263.7509765625	n/a	START	2588162	n/a	LTP385	ltpFR2	19	n/a	n/a	n/a	7	n/a	n/a	n/a	n/a
1264.76171875	n/a	DISTRACTOR	2590232	n/a	LTP385	ltpFR2	19	5	n/a	n/a	n/a	n/a	0	0	0
1264.76708984375	n/a	PROB	2590243	n/a	LTP385	ltpFR2	19	n/a	n/a	n/a	7	20	9	3	8
1267.6337890625	n/a	PROB	2596114	n/a	LTP385	ltpFR2	19	n/a	n/a	n/a	7	13	3	1	9
1269.966796875	n/a	PROB	2600892	n/a	LTP385	ltpFR2	19	n/a	n/a	n/a	7	18	4	7	7
1272.0166015625	n/a	PROB	2605090	n/a	LTP385	ltpFR2	19	n/a	n/a	n/a	7	10	4	2	4
1273.93359375	n/a	PROB	2609016	n/a	LTP385	ltpFR2	19	n/a	n/a	n/a	7	19	3	8	8
1275.849609375	n/a	PROB	2612940	n/a	LTP385	ltpFR2	19	n/a	n/a	n/a	7	13	1	8	4
1279.56640625	n/a	PROB	2620552	n/a	LTP385	ltpFR2	19	n/a	n/a	n/a	7	7	3	2	2
1281.66650390625	n/a	PROB	2624853	n/a	LTP385	ltpFR2	19	n/a	n/a	n/a	7	8	4	2	2
1283.74951171875	n/a	PROB	2629119	n/a	LTP385	ltpFR2	19	n/a	n/a	n/a	7	10	5	2	3
1287.654296875	n/a	STOP	2637116	n/a	LTP385	ltpFR2	19	n/a	n/a	n/a	7	n/a	n/a	n/a	n/a
1289.7001953125	n/a	REC_START	2641306	n/a	LTP385	ltpFR2	19	5	n/a	n/a	n/a	n/a	0	0	0
1295.0087890625	n/a	REC_WORD	2652178	wordpools/wasnorm_wordpool_576.txt	LTP385	ltpFR2	19	5	ICEBERG	731	n/a	n/a	0	0	0
1295.83203125	n/a	REC_WORD	2653864	wordpools/wasnorm_wordpool_576.txt	LTP385	ltpFR2	19	5	TROUT	1511	n/a	n/a	0	0	0
1300.32666015625	n/a	REC_WORD	2663069	wordpools/wasnorm_wordpool_576.txt	LTP385	ltpFR2	19	5	COOKBOOK	373	n/a	n/a	0	0	0
1301.77001953125	n/a	REC_WORD	2666025	wordpools/wasnorm_wordpool_576.txt	LTP385	ltpFR2	19	5	VENUS	1557	n/a	n/a	0	0	0
1487.50732421875	n/a	DISTRACTOR	3046415	n/a	LTP385	ltpFR2	19	6	n/a	n/a	n/a	n/a	0	0	0
1487.50732421875	n/a	START	3046415	n/a	LTP385	ltpFR2	19	n/a	n/a	n/a	8	n/a	n/a	n/a	n/a
1487.52294921875	n/a	PROB	3046447	n/a	LTP385	ltpFR2	19	n/a	n/a	n/a	8	8	2	3	3
1491.14013671875	n/a	PROB	3053855	n/a	LTP385	ltpFR2	19	n/a	n/a	n/a	8	6	3	2	1
1493.77294921875	n/a	PROB	3059247	n/a	LTP385	ltpFR2	19	n/a	n/a	n/a	8	10	4	3	3
1495.7568359375	n/a	PROB	3063310	n/a	LTP385	ltpFR2	19	n/a	n/a	n/a	8	14	4	7	3
1497.6728515625	n/a	PROB	3067234	n/a	LTP385	ltpFR2	19	n/a	n/a	n/a	8	14	5	2	7
1500.1728515625	n/a	PROB	3072354	n/a	LTP385	ltpFR2	19	n/a	n/a	n/a	8	12	2	9	1
1501.8056640625	n/a	PROB	3075698	n/a	LTP385	ltpFR2	19	n/a	n/a	n/a	8	18	7	4	7
1503.85546875	n/a	PROB	3079896	n/a	LTP385	ltpFR2	19	n/a	n/a	n/a	8	15	3	9	3
1506.87255859375	n/a	PROB	3086075	n/a	LTP385	ltpFR2	19	n/a	n/a	n/a	8	18	4	9	5
1511.50634765625	n/a	STOP	3095565	n/a	LTP385	ltpFR2	19	n/a	n/a	n/a	8	n/a	n/a	n/a	n/a
1512.5224609375	n/a	WORD	3097646	wordpools/wasnorm_wordpool_576.txt	LTP385	ltpFR2	19	6	DANDRUFF	439	n/a	n/a	0	0	0
1515.10546875	n/a	WORD	3102936	wordpools/wasnorm_wordpool_576.txt	LTP385	ltpFR2	19	6	BODY	145	n/a	n/a	0	0	0
1517.80517578125	n/a	WORD	3108465	wordpools/wasnorm_wordpool_576.txt	LTP385	ltpFR2	19	6	HEDGE	699	n/a	n/a	0	0	0
1520.43798828125	n/a	WORD	3113857	wordpools/wasnorm_wordpool_576.txt	LTP385	ltpFR2	19	6	BADGE	68	n/a	n/a	0	0	0
1522.98828125	n/a	WORD	3119080	wordpools/wasnorm_wordpool_576.txt	LTP385	ltpFR2	19	6	SHERIFF	1284	n/a	n/a	0	0	0
1525.43798828125	n/a	WORD	3124097	wordpools/wasnorm_wordpool_576.txt	LTP385	ltpFR2	19	6	CEILING	265	n/a	n/a	0	0	0
1528.2548828125	n/a	WORD	3129866	wordpools/wasnorm_wordpool_576.txt	LTP385	ltpFR2	19	6	RELISH	1183	n/a	n/a	0	0	0
1530.9716796875	n/a	WORD	3135430	wordpools/wasnorm_wordpool_576.txt	LTP385	ltpFR2	19	6	SNACK	1331	n/a	n/a	0	0	0
1533.7548828125	n/a	WORD	3141130	wordpools/wasnorm_wordpool_576.txt	LTP385	ltpFR2	19	6	SCARF	1246	n/a	n/a	0	0	0
1536.3876953125	n/a	WORD	3146522	wordpools/wasnorm_wordpool_576.txt	LTP385	ltpFR2	19	6	FOREST	593	n/a	n/a	0	0	0
1538.8876953125	n/a	WORD	3151642	wordpools/wasnorm_wordpool_576.txt	LTP385	ltpFR2	19	6	PEACH	1031	n/a	n/a	0	0	0
1541.6044921875	n/a	WORD	3157206	wordpools/wasnorm_wordpool_576.txt	LTP385	ltpFR2	19	6	TWEEZERS	1526	n/a	n/a	0	0	0
1544.3544921875	n/a	WORD	3162838	wordpools/wasnorm_wordpool_576.txt	LTP385	ltpFR2	19	6	COOK	372	n/a	n/a	0	0	0
1547.08740234375	n/a	WORD	3168435	wordpools/wasnorm_wordpool_576.txt	LTP385	ltpFR2	19	6	TWISTER	1530	n/a	n/a	0	0	0
1549.8203125	n/a	WORD	3174032	wordpools/wasnorm_wordpool_576.txt	LTP385	ltpFR2	19	6	ICING	732	n/a	n/a	0	0	0
1552.63720703125	n/a	WORD	3179801	wordpools/wasnorm_wordpool_576.txt	LTP385	ltpFR2	19	6	STREAM	1392	n/a	n/a	0	0	0
1555.3369140625	n/a	WORD	3185330	wordpools/wasnorm_wordpool_576.txt	LTP385	ltpFR2	19	6	MARSH	874	n/a	n/a	0	0	0
1558.02001953125	n/a	WORD	3190825	wordpools/wasnorm_wordpool_576.txt	LTP385	ltpFR2	19	6	STALLION	1369	n/a	n/a	0	0	0
1560.77001953125	n/a	WORD	3196457	wordpools/wasnorm_wordpool_576.txt	LTP385	ltpFR2	19	6	INFANT	737	n/a	n/a	0	0	0
1563.45263671875	n/a	WORD	3201951	wordpools/wasnorm_wordpool_576.txt	LTP385	ltpFR2	19	6	RADISH	1158	n/a	n/a	0	0	0
1566.0029296875	n/a	WORD	3207174	wordpools/wasnorm_wordpool_576.txt	LTP385	ltpFR2	19	6	ISLAND	745	n/a	n/a	0	0	0
1568.7197265625	n/a	WORD	3212738	wordpools/wasnorm_wordpool_576.txt	LTP385	ltpFR2	19	6	LIVER	833	n/a	n/a	0	0	0
1571.28662109375	n/a	WORD	3217995	wordpools/wasnorm_wordpool_576.txt	LTP385	ltpFR2	19	6	FIREMAN	569	n/a	n/a	0	0	0
1573.8525390625	n/a	WORD	3223250	wordpools/wasnorm_wordpool_576.txt	LTP385	ltpFR2	19	6	WIDOW	1608	n/a	n/a	0	0	0
1575.46923828125	n/a	START	3226561	n/a	LTP385	ltpFR2	19	n/a	n/a	n/a	9	n/a	n/a	n/a	n/a
1576.33642578125	n/a	DISTRACTOR	3228337	n/a	LTP385	ltpFR2	19	6	n/a	n/a	n/a	n/a	0	0	0
1576.3525390625	n/a	PROB	3228370	n/a	LTP385	ltpFR2	19	n/a	n/a	n/a	9	21	8	6	5
1580.9853515625	n/a	PROB	3237858	n/a	LTP385	ltpFR2	19	n/a	n/a	n/a	9	10	6	2	2
1582.78515625	n/a	PROB	3241544	n/a	LTP385	ltpFR2	19	n/a	n/a	n/a	9	17	7	4	6
1585.1689453125	n/a	PROB	3246426	n/a	LTP385	ltpFR2	19	n/a	n/a	n/a	9	13	2	5	6
1589.90185546875	n/a	PROB	3256119	n/a	LTP385	ltpFR2	19	n/a	n/a	n/a	9	14	4	6	4
1592.134765625	n/a	PROB	3260692	n/a	LTP385	ltpFR2	19	n/a	n/a	n/a	9	17	1	6	9
1594.501953125	n/a	PROB	3265540	n/a	LTP385	ltpFR2	19	n/a	n/a	n/a	9	9	3	4	2
1598.5498046875	n/a	STOP	3273830	n/a	LTP385	ltpFR2	19	n/a	n/a	n/a	9	n/a	n/a	n/a	n/a
1601.2685546875	n/a	REC_START	3279398	n/a	LTP385	ltpFR2	19	6	n/a	n/a	n/a	n/a	0	0	0
1614.59130859375	n/a	REC_WORD	3306683	wordpools/wasnorm_wordpool_576.txt	LTP385	ltpFR2	19	6	SHERIFF	1284	n/a	n/a	0	0	0
1615.87939453125	n/a	REC_WORD	3309321	wordpools/wasnorm_wordpool_576.txt	LTP385	ltpFR2	19	6	BADGE	68	n/a	n/a	0	0	0
1629.0556640625	n/a	REC_WORD	3336306	wordpools/wasnorm_wordpool_576.txt	LTP385	ltpFR2	19	6	CEILING	265	n/a	n/a	0	0	0
1631.8046875	n/a	REC_WORD	3341936	wordpools/wasnorm_wordpool_576.txt	LTP385	ltpFR2	19	6	HEDGE	699	n/a	n/a	0	0	0
1633.2578125	n/a	REC_WORD	3344912	wordpools/wasnorm_wordpool_576.txt	LTP385	ltpFR2	19	6	DANDRUFF	439	n/a	n/a	0	0	0
1634.65185546875	n/a	REC_WORD	3347767	wordpools/wasnorm_wordpool_576.txt	LTP385	ltpFR2	19	6	BODY	145	n/a	n/a	0	0	0
1648.3974609375	n/a	REC_WORD	3375918	wordpools/wasnorm_wordpool_576.txt	LTP385	ltpFR2	19	6	LOVER	846	n/a	n/a	0	0	0
1649.50244140625	n/a	REC_WORD	3378181	wordpools/wasnorm_wordpool_576.txt	LTP385	ltpFR2	19	6	DUSTPAN	509	n/a	n/a	0	0	0
1691.7138671875	n/a	DISTRACTOR	3464630	n/a	LTP385	ltpFR2	19	7	n/a	n/a	n/a	n/a	0	0	0
1691.7138671875	n/a	START	3464630	n/a	LTP385	ltpFR2	19	n/a	n/a	n/a	10	n/a	n/a	n/a	n/a
1691.73095703125	n/a	PROB	3464665	n/a	LTP385	ltpFR2	19	n/a	n/a	n/a	10	13	2	7	4
1694.3466796875	n/a	PROB	3470022	n/a	LTP385	ltpFR2	19	n/a	n/a	n/a	10	20	5	7	8
1697.513671875	n/a	PROB	3476508	n/a	LTP385	ltpFR2	19	n/a	n/a	n/a	10	19	9	4	6
1699.33056640625	n/a	PROB	3480229	n/a	LTP385	ltpFR2	19	n/a	n/a	n/a	10	10	4	2	4
1702.396484375	n/a	PROB	3486508	n/a	LTP385	ltpFR2	19	n/a	n/a	n/a	10	19	8	3	8
1704.54638671875	n/a	PROB	3490911	n/a	LTP385	ltpFR2	19	n/a	n/a	n/a	10	16	5	5	6
1706.0966796875	n/a	PROB	3494086	n/a	LTP385	ltpFR2	19	n/a	n/a	n/a	10	14	1	9	3
1708.76318359375	n/a	PROB	3499547	n/a	LTP385	ltpFR2	19	n/a	n/a	n/a	10	19	6	5	7
1715.71337890625	n/a	STOP	3513781	n/a	LTP385	ltpFR2	19	n/a	n/a	n/a	10	n/a	n/a	n/a	n/a
1716.72900390625	n/a	WORD	3515861	wordpools/wasnorm_wordpool_576.txt	LTP385	ltpFR2	19	7	VELVET	1555	n/a	n/a	0	0	0
1719.3291015625	n/a	WORD	3521186	wordpools/wasnorm_wordpool_576.txt	LTP385	ltpFR2	19	7	SUMMIT	1405	n/a	n/a	0	0	0
1722.01318359375	n/a	WORD	3526683	wordpools/wasnorm_wordpool_576.txt	LTP385	ltpFR2	19	7	BANJO	82	n/a	n/a	0	0	0
1724.662109375	n/a	WORD	3532108	wordpools/wasnorm_wordpool_576.txt	LTP385	ltpFR2	19	7	LAKE	796	n/a	n/a	0	0	0
1727.345703125	n/a	WORD	3537604	wordpools/wasnorm_wordpool_576.txt	LTP385	ltpFR2	19	7	APPLE	33	n/a	n/a	0	0	0
1730.0615234375	n/a	WORD	3543166	wordpools/wasnorm_wordpool_576.txt	LTP385	ltpFR2	19	7	KNAPSACK	783	n/a	n/a	0	0	0
1732.7958984375	n/a	WORD	3548766	wordpools/wasnorm_wordpool_576.txt	LTP385	ltpFR2	19	7	DRESS	495	n/a	n/a	0	0	0
1735.595703125	n/a	WORD	3554500	wordpools/wasnorm_wordpool_576.txt	LTP385	ltpFR2	19	7	LUMBER	848	n/a	n/a	0	0	0
1738.361328125	n/a	WORD	3560164	wordpools/wasnorm_wordpool_576.txt	LTP385	ltpFR2	19	7	BROTHER	179	n/a	n/a	0	0	0
1740.96142578125	n/a	WORD	3565489	wordpools/wasnorm_wordpool_576.txt	LTP385	ltpFR2	19	7	PADDING	999	n/a	n/a	0	0	0
1743.578125	n/a	WORD	3570848	wordpools/wasnorm_wordpool_576.txt	LTP385	ltpFR2	19	7	FRANCE	601	n/a	n/a	0	0	0
1746.1953125	n/a	WORD	3576208	wordpools/wasnorm_wordpool_576.txt	LTP385	ltpFR2	19	7	LONDON	843	n/a	n/a	0	0	0
1748.8779296875	n/a	WORD	3581702	wordpools/wasnorm_wordpool_576.txt	LTP385	ltpFR2	19	7	PILOT	1070	n/a	n/a	0	0	0
1751.56103515625	n/a	WORD	3587197	wordpools/wasnorm_wordpool_576.txt	LTP385	ltpFR2	19	7	LUGGAGE	847	n/a	n/a	0	0	0
1754.06103515625	n/a	WORD	3592317	wordpools/wasnorm_wordpool_576.txt	LTP385	ltpFR2	19	7	MAPLE	866	n/a	n/a	0	0	0
1756.7939453125	n/a	WORD	3597914	wordpools/wasnorm_wordpool_576.txt	LTP385	ltpFR2	19	7	DRAWING	494	n/a	n/a	0	0	0
1759.49365234375	n/a	WORD	3603443	wordpools/wasnorm_wordpool_576.txt	LTP385	ltpFR2	19	7	PAPER	1011	n/a	n/a	0	0	0
1761.94384765625	n/a	WORD	3608461	wordpools/wasnorm_wordpool_576.txt	LTP385	ltpFR2	19	7	TABLET	1427	n/a	n/a	0	0	0
1764.54345703125	n/a	WORD	3613785	wordpools/wasnorm_wordpool_576.txt	LTP385	ltpFR2	19	7	ACTOR	5	n/a	n/a	0	0	0
1767.09375	n/a	WORD	3619008	wordpools/wasnorm_wordpool_576.txt	LTP385	ltpFR2	19	7	OINTMENT	974	n/a	n/a	0	0	0
1769.62646484375	n/a	WORD	3624195	wordpools/wasnorm_wordpool_576.txt	LTP385	ltpFR2	19	7	JUDGE	761	n/a	n/a	0	0	0
1772.37646484375	n/a	WORD	3629827	wordpools/wasnorm_wordpool_576.txt	LTP385	ltpFR2	19	7	BRIEFCASE	175	n/a	n/a	0	0	0
1775.1943359375	n/a	WORD	3635598	wordpools/wasnorm_wordpool_576.txt	LTP385	ltpFR2	19	7	SILK	1307	n/a	n/a	0	0	0
1777.8603515625	n/a	WORD	3641058	wordpools/wasnorm_wordpool_576.txt	LTP385	ltpFR2	19	7	MARKET	871	n/a	n/a	0	0	0
1779.47607421875	n/a	START	3644367	n/a	LTP385	ltpFR2	19	n/a	n/a	n/a	11	n/a	n/a	n/a	n/a
1780.30419921875	n/a	DISTRACTOR	3646063	n/a	LTP385	ltpFR2	19	7	n/a	n/a	n/a	n/a	0	0	0
1780.31005859375	n/a	PROB	3646075	n/a	LTP385	ltpFR2	19	n/a	n/a	n/a	11	18	8	2	8
1783.1943359375	n/a	PROB	3651982	n/a	LTP385	ltpFR2	19	n/a	n/a	n/a	11	20	6	6	8
1785.326171875	n/a	PROB	3656348	n/a	LTP385	ltpFR2	19	n/a	n/a	n/a	11	23	6	8	9
1790.14306640625	n/a	PROB	3666213	n/a	LTP385	ltpFR2	19	n/a	n/a	n/a	11	13	6	6	1
1792.07568359375	n/a	PROB	3670171	n/a	LTP385	ltpFR2	19	n/a	n/a	n/a	11	7	3	3	1
1794.02587890625	n/a	PROB	3674165	n/a	LTP385	ltpFR2	19	n/a	n/a	n/a	11	20	7	6	7
1797.3427734375	n/a	PROB	3680958	n/a	LTP385	ltpFR2	19	n/a	n/a	n/a	11	11	1	2	8
1799.142578125	n/a	PROB	3684644	n/a	LTP385	ltpFR2	19	n/a	n/a	n/a	11	8	2	2	4
1803.4755859375	n/a	STOP	3693518	n/a	LTP385	ltpFR2	19	n/a	n/a	n/a	11	n/a	n/a	n/a	n/a
1805.32568359375	n/a	REC_START	3697307	n/a	LTP385	ltpFR2	19	7	n/a	n/a	n/a	n/a	0	0	0
1812.18603515625	n/a	REC_WORD	3711357	wordpools/wasnorm_wordpool_576.txt	LTP385	ltpFR2	19	7	ACTOR	5	n/a	n/a	0	0	0
1813.64501953125	n/a	REC_WORD	3714345	wordpools/wasnorm_wordpool_576.txt	LTP385	ltpFR2	19	7	ARGUMENT	-1	n/a	n/a	0	0	0
1814.5703125	n/a	REC_WORD	3716240	wordpools/wasnorm_wordpool_576.txt	LTP385	ltpFR2	19	7	JUDGE	761	n/a	n/a	0	0	0
1895.8046875	n/a	WORD	3882608	wordpools/wasnorm_wordpool_576.txt	LTP385	ltpFR2	19	8	WARDROBE	1587	n/a	n/a	0	0	0
1898.58740234375	n/a	WORD	3888307	wordpools/wasnorm_wordpool_576.txt	LTP385	ltpFR2	19	8	DENTIST	447	n/a	n/a	0	0	0
1901.17041015625	n/a	WORD	3893597	wordpools/wasnorm_wordpool_576.txt	LTP385	ltpFR2	19	8	TURNIP	1521	n/a	n/a	0	0	0
1903.83740234375	n/a	WORD	3899059	wordpools/wasnorm_wordpool_576.txt	LTP385	ltpFR2	19	8	CABBAGE	210	n/a	n/a	0	0	0
1906.3203125	n/a	WORD	3904144	wordpools/wasnorm_wordpool_576.txt	LTP385	ltpFR2	19	8	FREEZER	604	n/a	n/a	0	0	0
1909.103515625	n/a	WORD	3909844	wordpools/wasnorm_wordpool_576.txt	LTP385	ltpFR2	19	8	IGLOO	734	n/a	n/a	0	0	0
1911.83740234375	n/a	WORD	3915443	wordpools/wasnorm_wordpool_576.txt	LTP385	ltpFR2	19	8	BLOUSE	139	n/a	n/a	0	0	0
1914.6201171875	n/a	WORD	3921142	wordpools/wasnorm_wordpool_576.txt	LTP385	ltpFR2	19	8	CAFE	216	n/a	n/a	0	0	0
1917.169921875	n/a	WORD	3926364	wordpools/wasnorm_wordpool_576.txt	LTP385	ltpFR2	19	8	OX	994	n/a	n/a	0	0	0
1919.7529296875	n/a	WORD	3931654	wordpools/wasnorm_wordpool_576.txt	LTP385	ltpFR2	19	8	TRENCH	1503	n/a	n/a	0	0	0
1922.220703125	n/a	WORD	3936708	wordpools/wasnorm_wordpool_576.txt	LTP385	ltpFR2	19	8	CHAUFFEUR	283	n/a	n/a	0	0	0
1924.669921875	n/a	WORD	3941724	wordpools/wasnorm_wordpool_576.txt	LTP385	ltpFR2	19	8	KIDNEY	776	n/a	n/a	0	0	0
1927.169921875	n/a	WORD	3946844	wordpools/wasnorm_wordpool_576.txt	LTP385	ltpFR2	19	8	CANYON	235	n/a	n/a	0	0	0
1929.91943359375	n/a	WORD	3952475	wordpools/wasnorm_wordpool_576.txt	LTP385	ltpFR2	19	8	HOOK	715	n/a	n/a	0	0	0
1932.4853515625	n/a	WORD	3957730	wordpools/wasnorm_wordpool_576.txt	LTP385	ltpFR2	19	8	CLOCK	325	n/a	n/a	0	0	0
1935.03564453125	n/a	WORD	3962953	wordpools/wasnorm_wordpool_576.txt	LTP385	ltpFR2	19	8	BLOCKADE	137	n/a	n/a	0	0	0
1937.685546875	n/a	WORD	3968380	wordpools/wasnorm_wordpool_576.txt	LTP385	ltpFR2	19	8	CURTAIN	427	n/a	n/a	0	0	0
1940.40234375	n/a	WORD	3973944	wordpools/wasnorm_wordpool_576.txt	LTP385	ltpFR2	19	8	DENIM	446	n/a	n/a	0	0	0
1942.9521484375	n/a	WORD	3979166	wordpools/wasnorm_wordpool_576.txt	LTP385	ltpFR2	19	8	XEROX	1628	n/a	n/a	0	0	0
1945.4853515625	n/a	WORD	3984354	wordpools/wasnorm_wordpool_576.txt	LTP385	ltpFR2	19	8	DUST	508	n/a	n/a	0	0	0
1948.203125	n/a	WORD	3989920	wordpools/wasnorm_wordpool_576.txt	LTP385	ltpFR2	19	8	PEANUT	1032	n/a	n/a	0	0	0
1950.9521484375	n/a	WORD	3995550	wordpools/wasnorm_wordpool_576.txt	LTP385	ltpFR2	19	8	SHIRT	1287	n/a	n/a	0	0	0
1953.68505859375	n/a	WORD	4001147	wordpools/wasnorm_wordpool_576.txt	LTP385	ltpFR2	19	8	TRUCK	1512	n/a	n/a	0	0	0
1956.20263671875	n/a	WORD	4006303	wordpools/wasnorm_wordpool_576.txt	LTP385	ltpFR2	19	8	GANGSTER	620	n/a	n/a	0	0	0
1957.81787109375	n/a	START	4009611	n/a	LTP385	ltpFR2	19	n/a	n/a	n/a	12	n/a	n/a	n/a	n/a
1958.673828125	n/a	DISTRACTOR	4011364	n/a	LTP385	ltpFR2	19	8	n/a	n/a	n/a	n/a	0	0	0
1958.6845703125	n/a	PROB	4011386	n/a	LTP385	ltpFR2	19	n/a	n/a	n/a	12	18	7	9	2
1961.9677734375	n/a	PROB	4018110	n/a	LTP385	ltpFR2	19	n/a	n/a	n/a	12	15	5	2	8
1964.08447265625	n/a	PROB	4022445	n/a	LTP385	ltpFR2	19	n/a	n/a	n/a	12	11	1	5	5
1965.61767578125	n/a	PROB	4025585	n/a	LTP385	ltpFR2	19	n/a	n/a	n/a	12	18	1	8	9
1969.03466796875	n/a	PROB	4032583	n/a	LTP385	ltpFR2	19	n/a	n/a	n/a	12	19	3	8	8
1971.63427734375	n/a	PROB	4037907	n/a	LTP385	ltpFR2	19	n/a	n/a	n/a	12	13	7	2	4
1974.33447265625	n/a	PROB	4043437	n/a	LTP385	ltpFR2	19	n/a	n/a	n/a	12	18	9	1	7
1977.7001953125	n/a	PROB	4050330	n/a	LTP385	ltpFR2	19	n/a	n/a	n/a	12	20	9	2	9
1980.6611328125	n/a	STOP	4056394	n/a	LTP385	ltpFR2	19	n/a	n/a	n/a	12	n/a	n/a	n/a	n/a
1983.68408203125	n/a	REC_START	4062585	n/a	LTP385	ltpFR2	19	8	n/a	n/a	n/a	n/a	0	0	0
1985.0791015625	n/a	REC_WORD	4065442	wordpools/wasnorm_wordpool_576.txt	LTP385	ltpFR2	19	8	SHIRT	1287	n/a	n/a	0	0	0
1985.99169921875	n/a	REC_WORD_VV	4067311	wordpools/wasnorm_wordpool_576.txt	LTP385	ltpFR2	19	8	<>	-1	n/a	n/a	0	0	0
1986.76904296875	n/a	REC_WORD	4068903	wordpools/wasnorm_wordpool_576.txt	LTP385	ltpFR2	19	8	TRUCK	1512	n/a	n/a	0	0	0
1988.39892578125	n/a	REC_WORD	4072241	wordpools/wasnorm_wordpool_576.txt	LTP385	ltpFR2	19	8	GANGSTER	620	n/a	n/a	0	0	0
1991.91455078125	n/a	REC_WORD	4079441	wordpools/wasnorm_wordpool_576.txt	LTP385	ltpFR2	19	8	OX	994	n/a	n/a	0	0	0
1992.72265625	n/a	REC_WORD	4081096	wordpools/wasnorm_wordpool_576.txt	LTP385	ltpFR2	19	8	HOOK	715	n/a	n/a	0	0	0
1994.15576171875	n/a	REC_WORD	4084031	wordpools/wasnorm_wordpool_576.txt	LTP385	ltpFR2	19	8	CHAUFFEUR	283	n/a	n/a	0	0	0
1995.5498046875	n/a	REC_WORD	4086886	wordpools/wasnorm_wordpool_576.txt	LTP385	ltpFR2	19	8	KIDNEY	776	n/a	n/a	0	0	0
1996.7255859375	n/a	REC_WORD	4089294	wordpools/wasnorm_wordpool_576.txt	LTP385	ltpFR2	19	8	CANYON	235	n/a	n/a	0	0	0
2015.74609375	n/a	REC_WORD	4128248	wordpools/wasnorm_wordpool_576.txt	LTP385	ltpFR2	19	8	DENTIST	447	n/a	n/a	0	0	0
2017.16796875	n/a	REC_WORD	4131160	wordpools/wasnorm_wordpool_576.txt	LTP385	ltpFR2	19	8	TURNIP	1521	n/a	n/a	0	0	0
2018.48779296875	n/a	REC_WORD	4133863	wordpools/wasnorm_wordpool_576.txt	LTP385	ltpFR2	19	8	FREEZER	604	n/a	n/a	0	0	0
2020.89697265625	n/a	REC_WORD	4138797	wordpools/wasnorm_wordpool_576.txt	LTP385	ltpFR2	19	8	SALAD	1224	n/a	n/a	0	0	0
2021.89697265625	n/a	REC_WORD_VV	4140845	wordpools/wasnorm_wordpool_576.txt	LTP385	ltpFR2	19	8	<>	-1	n/a	n/a	0	0	0
2023.3056640625	n/a	REC_WORD	4143730	wordpools/wasnorm_wordpool_576.txt	LTP385	ltpFR2	19	8	CARROT	249	n/a	n/a	0	0	0
2028.73046875	n/a	REC_WORD	4154840	wordpools/wasnorm_wordpool_576.txt	LTP385	ltpFR2	19	8	IGLOO	734	n/a	n/a	0	0	0
2033.01953125	n/a	REC_WORD	4163624	wordpools/wasnorm_wordpool_576.txt	LTP385	ltpFR2	19	8	ARTIC	-1	n/a	n/a	0	0	0
2060.2294921875	n/a	REST_REWET	4219350	n/a	LTP385	ltpFR2	19	8	n/a	n/a	n/a	n/a	0	0	0
2259.6875	n/a	DISTRACTOR	4627840	n/a	LTP385	ltpFR2	19	9	n/a	n/a	n/a	n/a	0	0	0
2259.6875	n/a	START	4627840	n/a	LTP385	ltpFR2	19	n/a	n/a	n/a	13	n/a	n/a	n/a	n/a
2259.70361328125	n/a	PROB	4627873	n/a	LTP385	ltpFR2	19	n/a	n/a	n/a	13	15	4	3	8
2261.87060546875	n/a	PROB	4632311	n/a	LTP385	ltpFR2	19	n/a	n/a	n/a	13	14	2	7	5
2263.8876953125	n/a	PROB	4636442	n/a	LTP385	ltpFR2	19	n/a	n/a	n/a	13	17	8	9	9
2266.2373046875	n/a	PROB	4641254	n/a	LTP385	ltpFR2	19	n/a	n/a	n/a	13	11	8	1	2
2268.1533203125	n/a	PROB	4645178	n/a	LTP385	ltpFR2	19	n/a	n/a	n/a	13	10	8	1	1
2269.5703125	n/a	PROB	4648080	n/a	LTP385	ltpFR2	19	n/a	n/a	n/a	13	23	5	9	9
2273.1201171875	n/a	PROB	4655350	n/a	LTP385	ltpFR2	19	n/a	n/a	n/a	13	8	2	1	5
2274.736328125	n/a	PROB	4658660	n/a	LTP385	ltpFR2	19	n/a	n/a	n/a	13	8	4	3	1
2276.93603515625	n/a	PROB	4663165	n/a	LTP385	ltpFR2	19	n/a	n/a	n/a	13	13	4	1	9
2279.169921875	n/a	PROB	4667740	n/a	LTP385	ltpFR2	19	n/a	n/a	n/a	13	14	4	3	7
2281.0361328125	n/a	PROB	4671562	n/a	LTP385	ltpFR2	19	n/a	n/a	n/a	13	18	7	1	9
2283.63671875	n/a	STOP	4676888	n/a	LTP385	ltpFR2	19	n/a	n/a	n/a	13	n/a	n/a	n/a	n/a
2284.70263671875	n/a	WORD	4679071	wordpools/wasnorm_wordpool_576.txt	LTP385	ltpFR2	19	9	POISON	1096	n/a	n/a	0	0	0
2287.3359375	n/a	WORD	4684464	wordpools/wasnorm_wordpool_576.txt	LTP385	ltpFR2	19	9	SOFTBALL	1343	n/a	n/a	0	0	0
2290.15283203125	n/a	WORD	4690233	wordpools/wasnorm_wordpool_576.txt	LTP385	ltpFR2	19	9	FOOTBALL	591	n/a	n/a	0	0	0
2292.90234375	n/a	WORD	4695864	wordpools/wasnorm_wordpool_576.txt	LTP385	ltpFR2	19	9	PADDLE	1000	n/a	n/a	0	0	0
2295.61865234375	n/a	WORD	4701427	wordpools/wasnorm_wordpool_576.txt	LTP385	ltpFR2	19	9	CRUTCH	417	n/a	n/a	0	0	0
2298.3681640625	n/a	WORD	4707058	wordpools/wasnorm_wordpool_576.txt	LTP385	ltpFR2	19	9	LEG	809	n/a	n/a	0	0	0
2300.96826171875	n/a	WORD	4712383	wordpools/wasnorm_wordpool_576.txt	LTP385	ltpFR2	19	9	TUTU	1524	n/a	n/a	0	0	0
2303.66845703125	n/a	WORD	4717913	wordpools/wasnorm_wordpool_576.txt	LTP385	ltpFR2	19	9	VICTIM	1562	n/a	n/a	0	0	0
2306.4013671875	n/a	WORD	4723510	wordpools/wasnorm_wordpool_576.txt	LTP385	ltpFR2	19	9	MUFFIN	929	n/a	n/a	0	0	0
2309.16796875	n/a	WORD	4729176	wordpools/wasnorm_wordpool_576.txt	LTP385	ltpFR2	19	9	WITNESS	1618	n/a	n/a	0	0	0
2311.73486328125	n/a	WORD	4734433	wordpools/wasnorm_wordpool_576.txt	LTP385	ltpFR2	19	9	GAZELLE	628	n/a	n/a	0	0	0
2314.3349609375	n/a	WORD	4739758	wordpools/wasnorm_wordpool_576.txt	LTP385	ltpFR2	19	9	MISSILE	900	n/a	n/a	0	0	0
2316.76806640625	n/a	WORD	4744741	wordpools/wasnorm_wordpool_576.txt	LTP385	ltpFR2	19	9	ROBIN	1199	n/a	n/a	0	0	0
2319.30078125	n/a	WORD	4749928	wordpools/wasnorm_wordpool_576.txt	LTP385	ltpFR2	19	9	COFFEE	341	n/a	n/a	0	0	0
2322.05078125	n/a	WORD	4755560	wordpools/wasnorm_wordpool_576.txt	LTP385	ltpFR2	19	9	CONVICT	371	n/a	n/a	0	0	0
2324.61767578125	n/a	WORD	4760817	wordpools/wasnorm_wordpool_576.txt	LTP385	ltpFR2	19	9	FLUTE	585	n/a	n/a	0	0	0
2327.20166015625	n/a	WORD	4766109	wordpools/wasnorm_wordpool_576.txt	LTP385	ltpFR2	19	9	WHISTLE	1606	n/a	n/a	0	0	0
2329.71728515625	n/a	WORD	4771261	wordpools/wasnorm_wordpool_576.txt	LTP385	ltpFR2	19	9	TABLE	1426	n/a	n/a	0	0	0
2332.25048828125	n/a	WORD	4776449	wordpools/wasnorm_wordpool_576.txt	LTP385	ltpFR2	19	9	BUBBLE	183	n/a	n/a	0	0	0
2335.01708984375	n/a	WORD	4782115	wordpools/wasnorm_wordpool_576.txt	LTP385	ltpFR2	19	9	TOMBSTONE	1478	n/a	n/a	0	0	0
2337.6171875	n/a	WORD	4787440	wordpools/wasnorm_wordpool_576.txt	LTP385	ltpFR2	19	9	SHOVEL	1295	n/a	n/a	0	0	0
2340.13330078125	n/a	WORD	4792593	wordpools/wasnorm_wordpool_576.txt	LTP385	ltpFR2	19	9	DOUGHNUT	490	n/a	n/a	0	0	0
2342.64990234375	n/a	WORD	4797747	wordpools/wasnorm_wordpool_576.txt	LTP385	ltpFR2	19	9	ONION	977	n/a	n/a	0	0	0
2345.14990234375	n/a	WORD	4802867	wordpools/wasnorm_wordpool_576.txt	LTP385	ltpFR2	19	9	HAWK	692	n/a	n/a	0	0	0
2346.76708984375	n/a	START	4806179	n/a	LTP385	ltpFR2	19	n/a	n/a	n/a	14	n/a	n/a	n/a	n/a
2347.92578125	n/a	DISTRACTOR	4808552	n/a	LTP385	ltpFR2	19	9	n/a	n/a	n/a	n/a	0	0	0
2347.93310546875	n/a	PROB	4808567	n/a	LTP385	ltpFR2	19	n/a	n/a	n/a	14	19	8	1	8
2352.89990234375	n/a	PROB	4818739	n/a	LTP385	ltpFR2	19	n/a	n/a	n/a	14	13	8	2	3
2357.3828125	n/a	PROB	4827920	n/a	LTP385	ltpFR2	19	n/a	n/a	n/a	14	21	6	6	9
2360.18359375	n/a	PROB	4833656	n/a	LTP385	ltpFR2	19	n/a	n/a	n/a	14	14	6	6	2
2366.29931640625	n/a	PROB	4846181	n/a	LTP385	ltpFR2	19	n/a	n/a	n/a	14	15	3	6	6
2368.748046875	n/a	PROB	4851196	n/a	LTP385	ltpFR2	19	n/a	n/a	n/a	14	11	1	7	3
2370.34912109375	n/a	STOP	4854475	n/a	LTP385	ltpFR2	19	n/a	n/a	n/a	14	n/a	n/a	n/a	n/a
2372.71630859375	n/a	REC_START	4859323	n/a	LTP385	ltpFR2	19	9	n/a	n/a	n/a	n/a	0	0	0
2375.15087890625	n/a	REC_WORD	4864309	wordpools/wasnorm_wordpool_576.txt	LTP385	ltpFR2	19	9	TOMBSTONE	1478	n/a	n/a	0	0	0
2376.05810546875	n/a	REC_WORD	4866167	wordpools/wasnorm_wordpool_576.txt	LTP385	ltpFR2	19	9	ROCK	1201	n/a	n/a	0	0	0
2378.97802734375	n/a	REC_WORD	4872147	wordpools/wasnorm_wordpool_576.txt	LTP385	ltpFR2	19	9	SOFTBALL	1343	n/a	n/a	0	0	0
2379.9609375	n/a	REC_WORD	4874160	wordpools/wasnorm_wordpool_576.txt	LTP385	ltpFR2	19	9	FOOTBALL	591	n/a	n/a	0	0	0
2380.87890625	n/a	REC_WORD	4876040	wordpools/wasnorm_wordpool_576.txt	LTP385	ltpFR2	19	9	PADDLE	1000	n/a	n/a	0	0	0
2382.1259765625	n/a	REC_WORD	4878594	wordpools/wasnorm_wordpool_576.txt	LTP385	ltpFR2	19	9	TUTU	1524	n/a	n/a	0	0	0
2383.53759765625	n/a	REC_WORD	4881485	wordpools/wasnorm_wordpool_576.txt	LTP385	ltpFR2	19	9	VICTIM	1562	n/a	n/a	0	0	0
2384.39990234375	n/a	REC_WORD	4883251	wordpools/wasnorm_wordpool_576.txt	LTP385	ltpFR2	19	9	POISON	1096	n/a	n/a	0	0	0
2385.31396484375	n/a	REC_WORD	4885123	wordpools/wasnorm_wordpool_576.txt	LTP385	ltpFR2	19	9	MUFFIN	929	n/a	n/a	0	0	0
2386.66552734375	n/a	REC_WORD	4887891	wordpools/wasnorm_wordpool_576.txt	LTP385	ltpFR2	19	9	WITNESS	1618	n/a	n/a	0	0	0
2390.185546875	n/a	REC_WORD	4895100	wordpools/wasnorm_wordpool_576.txt	LTP385	ltpFR2	19	9	CAST	-1	n/a	n/a	0	0	0
2394.232421875	n/a	REC_WORD	4903388	wordpools/wasnorm_wordpool_576.txt	LTP385	ltpFR2	19	9	CASKET	255	n/a	n/a	0	0	0
2463.14453125	n/a	DISTRACTOR	5044520	n/a	LTP385	ltpFR2	19	10	n/a	n/a	n/a	n/a	0	0	0
2463.14453125	n/a	START	5044520	n/a	LTP385	ltpFR2	19	n/a	n/a	n/a	15	n/a	n/a	n/a	n/a
2463.16162109375	n/a	PROB	5044555	n/a	LTP385	ltpFR2	19	n/a	n/a	n/a	15	13	2	3	8
2465.29443359375	n/a	PROB	5048923	n/a	LTP385	ltpFR2	19	n/a	n/a	n/a	15	14	7	1	6
2467.21142578125	n/a	PROB	5052849	n/a	LTP385	ltpFR2	19	n/a	n/a	n/a	15	14	8	4	2
2469.72705078125	n/a	PROB	5058001	n/a	LTP385	ltpFR2	19	n/a	n/a	n/a	15	15	9	4	1
2471.27734375	n/a	PROB	5061176	n/a	LTP385	ltpFR2	19	n/a	n/a	n/a	15	13	1	7	5
2474.47705078125	n/a	PROB	5067729	n/a	LTP385	ltpFR2	19	n/a	n/a	n/a	15	17	4	4	9
2477.5771484375	n/a	PROB	5074078	n/a	LTP385	ltpFR2	19	n/a	n/a	n/a	15	19	9	4	6
2479.85986328125	n/a	PROB	5078753	n/a	LTP385	ltpFR2	19	n/a	n/a	n/a	15	14	4	4	6
2482.07666015625	n/a	PROB	5083293	n/a	LTP385	ltpFR2	19	n/a	n/a	n/a	15	8	2	5	1
2484.2265625	n/a	PROB	5087696	n/a	LTP385	ltpFR2	19	n/a	n/a	n/a	15	5	2	2	1
2487.1435546875	n/a	STOP	5093670	n/a	LTP385	ltpFR2	19	n/a	n/a	n/a	15	n/a	n/a	n/a	n/a
2488.09375	n/a	WORD	5095616	wordpools/wasnorm_wordpool_576.txt	LTP385	ltpFR2	19	10	WIFE	1609	n/a	n/a	0	0	0
2490.54345703125	n/a	WORD	5100633	wordpools/wasnorm_wordpool_576.txt	LTP385	ltpFR2	19	10	BOARD	143	n/a	n/a	0	0	0
2493.32666015625	n/a	WORD	5106333	wordpools/wasnorm_wordpool_576.txt	LTP385	ltpFR2	19	10	BELLY	119	n/a	n/a	0	0	0
2496.076171875	n/a	WORD	5111964	wordpools/wasnorm_wordpool_576.txt	LTP385	ltpFR2	19	10	PASTRY	1022	n/a	n/a	0	0	0
2498.87646484375	n/a	WORD	5117699	wordpools/wasnorm_wordpool_576.txt	LTP385	ltpFR2	19	10	MASK	876	n/a	n/a	0	0	0
2501.4091796875	n/a	WORD	5122886	wordpools/wasnorm_wordpool_576.txt	LTP385	ltpFR2	19	10	LETTUCE	814	n/a	n/a	0	0	0
2503.92626953125	n/a	WORD	5128041	wordpools/wasnorm_wordpool_576.txt	LTP385	ltpFR2	19	10	SLIME	1327	n/a	n/a	0	0	0
2506.3759765625	n/a	WORD	5133058	wordpools/wasnorm_wordpool_576.txt	LTP385	ltpFR2	19	10	FIDDLE	561	n/a	n/a	0	0	0
2508.85888671875	n/a	WORD	5138143	wordpools/wasnorm_wordpool_576.txt	LTP385	ltpFR2	19	10	ROCKET	1202	n/a	n/a	0	0	0
2511.5087890625	n/a	WORD	5143570	wordpools/wasnorm_wordpool_576.txt	LTP385	ltpFR2	19	10	LADDER	793	n/a	n/a	0	0	0
2514.27490234375	n/a	WORD	5149235	wordpools/wasnorm_wordpool_576.txt	LTP385	ltpFR2	19	10	KEEPER	769	n/a	n/a	0	0	0
2516.94189453125	n/a	WORD	5154697	wordpools/wasnorm_wordpool_576.txt	LTP385	ltpFR2	19	10	RACKET	1155	n/a	n/a	0	0	0
2519.45849609375	n/a	WORD	5159851	wordpools/wasnorm_wordpool_576.txt	LTP385	ltpFR2	19	10	LODGE	839	n/a	n/a	0	0	0
2521.94140625	n/a	WORD	5164936	wordpools/wasnorm_wordpool_576.txt	LTP385	ltpFR2	19	10	CANAL	226	n/a	n/a	0	0	0
2524.474609375	n/a	WORD	5170124	wordpools/wasnorm_wordpool_576.txt	LTP385	ltpFR2	19	10	LAGOON	795	n/a	n/a	0	0	0
2527.12451171875	n/a	WORD	5175551	wordpools/wasnorm_wordpool_576.txt	LTP385	ltpFR2	19	10	RIVER	1194	n/a	n/a	0	0	0
2529.72412109375	n/a	WORD	5180875	wordpools/wasnorm_wordpool_576.txt	LTP385	ltpFR2	19	10	ATLAS	53	n/a	n/a	0	0	0
2532.42431640625	n/a	WORD	5186405	wordpools/wasnorm_wordpool_576.txt	LTP385	ltpFR2	19	10	HARP	689	n/a	n/a	0	0	0
2535.1923828125	n/a	WORD	5192074	wordpools/wasnorm_wordpool_576.txt	LTP385	ltpFR2	19	10	COBRA	336	n/a	n/a	0	0	0
2538.00732421875	n/a	WORD	5197839	wordpools/wasnorm_wordpool_576.txt	LTP385	ltpFR2	19	10	SIBLING	1301	n/a	n/a	0	0	0
2540.4912109375	n/a	WORD	5202926	wordpools/wasnorm_wordpool_576.txt	LTP385	ltpFR2	19	10	COMET	353	n/a	n/a	0	0	0
2543.20703125	n/a	WORD	5208488	wordpools/wasnorm_wordpool_576.txt	LTP385	ltpFR2	19	10	YARN	1631	n/a	n/a	0	0	0
2545.94091796875	n/a	WORD	5214087	wordpools/wasnorm_wordpool_576.txt	LTP385	ltpFR2	19	10	AGENT	10	n/a	n/a	0	0	0
2548.53955078125	n/a	WORD	5219409	wordpools/wasnorm_wordpool_576.txt	LTP385	ltpFR2	19	10	SLOPE	1328	n/a	n/a	0	0	0
2550.15673828125	n/a	START	5222721	n/a	LTP385	ltpFR2	19	n/a	n/a	n/a	16	n/a	n/a	n/a	n/a
2551.11376953125	n/a	DISTRACTOR	5224681	n/a	LTP385	ltpFR2	19	10	n/a	n/a	n/a	n/a	0	0	0
2551.12353515625	n/a	PROB	5224701	n/a	LTP385	ltpFR2	19	n/a	n/a	n/a	16	13	6	4	3
2553.48974609375	n/a	PROB	5229547	n/a	LTP385	ltpFR2	19	n/a	n/a	n/a	16	7	2	2	3
2555.7236328125	n/a	PROB	5234122	n/a	LTP385	ltpFR2	19	n/a	n/a	n/a	16	12	4	5	3
2557.7392578125	n/a	PROB	5238250	n/a	LTP385	ltpFR2	19	n/a	n/a	n/a	16	25	8	7	8
2561.2392578125	n/a	PROB	5245418	n/a	LTP385	ltpFR2	19	n/a	n/a	n/a	16	10	1	2	7
2563.72314453125	n/a	PROB	5250505	n/a	LTP385	ltpFR2	19	n/a	n/a	n/a	16	19	4	8	7
2574.15576171875	n/a	STOP	5271871	n/a	LTP385	ltpFR2	19	n/a	n/a	n/a	16	n/a	n/a	n/a	n/a
2576.05615234375	n/a	REC_START	5275763	n/a	LTP385	ltpFR2	19	10	n/a	n/a	n/a	n/a	0	0	0
2577.80810546875	n/a	REC_WORD	5279351	wordpools/wasnorm_wordpool_576.txt	LTP385	ltpFR2	19	10	YARN	1631	n/a	n/a	0	0	0
2578.8037109375	n/a	REC_WORD	5281390	wordpools/wasnorm_wordpool_576.txt	LTP385	ltpFR2	19	10	FIDDLE	561	n/a	n/a	0	0	0
2581.77685546875	n/a	REC_WORD	5287479	wordpools/wasnorm_wordpool_576.txt	LTP385	ltpFR2	19	10	WHISTLE	1606	n/a	n/a	0	0	0
2584.3486328125	n/a	REC_WORD	5292746	wordpools/wasnorm_wordpool_576.txt	LTP385	ltpFR2	19	10	LAWN	805	n/a	n/a	0	0	0
2666.51806640625	n/a	DISTRACTOR	5461029	n/a	LTP385	ltpFR2	19	11	n/a	n/a	n/a	n/a	0	0	0
2666.51806640625	n/a	START	5461029	n/a	LTP385	ltpFR2	19	n/a	n/a	n/a	17	n/a	n/a	n/a	n/a
2666.53515625	n/a	PROB	5461064	n/a	LTP385	ltpFR2	19	n/a	n/a	n/a	17	19	7	4	8
2669.5009765625	n/a	PROB	5467138	n/a	LTP385	ltpFR2	19	n/a	n/a	n/a	17	18	7	5	6
2673.26806640625	n/a	PROB	5474853	n/a	LTP385	ltpFR2	19	n/a	n/a	n/a	17	16	4	9	3
2675.7509765625	n/a	PROB	5479938	n/a	LTP385	ltpFR2	19	n/a	n/a	n/a	17	24	9	6	9
2679.3837890625	n/a	PROB	5487378	n/a	LTP385	ltpFR2	19	n/a	n/a	n/a	17	15	5	1	9
2681.33349609375	n/a	PROB	5491371	n/a	LTP385	ltpFR2	19	n/a	n/a	n/a	17	18	8	3	7
2683.1005859375	n/a	PROB	5494990	n/a	LTP385	ltpFR2	19	n/a	n/a	n/a	17	20	7	9	4
2685.30078125	n/a	PROB	5499496	n/a	LTP385	ltpFR2	19	n/a	n/a	n/a	17	16	8	6	2
2687.03369140625	n/a	PROB	5503045	n/a	LTP385	ltpFR2	19	n/a	n/a	n/a	17	20	4	8	8
2690.4443359375	n/a	STOP	5510030	n/a	LTP385	ltpFR2	19	n/a	n/a	n/a	17	n/a	n/a	n/a	n/a
2691.71630859375	n/a	WORD	5512635	wordpools/wasnorm_wordpool_576.txt	LTP385	ltpFR2	19	11	RAFT	1159	n/a	n/a	0	0	0
2694.35009765625	n/a	WORD	5518029	wordpools/wasnorm_wordpool_576.txt	LTP385	ltpFR2	19	11	CROSS	413	n/a	n/a	0	0	0
2696.900390625	n/a	WORD	5523252	wordpools/wasnorm_wordpool_576.txt	LTP385	ltpFR2	19	11	STICKER	1382	n/a	n/a	0	0	0
2699.46630859375	n/a	WORD	5528507	wordpools/wasnorm_wordpool_576.txt	LTP385	ltpFR2	19	11	DIME	466	n/a	n/a	0	0	0
2702.26611328125	n/a	WORD	5534241	wordpools/wasnorm_wordpool_576.txt	LTP385	ltpFR2	19	11	HANDBAG	684	n/a	n/a	0	0	0
2704.916015625	n/a	WORD	5539668	wordpools/wasnorm_wordpool_576.txt	LTP385	ltpFR2	19	11	PIZZA	1079	n/a	n/a	0	0	0
2707.73291015625	n/a	WORD	5545437	wordpools/wasnorm_wordpool_576.txt	LTP385	ltpFR2	19	11	RECORD	1176	n/a	n/a	0	0	0
2710.4658203125	n/a	WORD	5551034	wordpools/wasnorm_wordpool_576.txt	LTP385	ltpFR2	19	11	HEART	697	n/a	n/a	0	0	0
2713.06591796875	n/a	WORD	5556359	wordpools/wasnorm_wordpool_576.txt	LTP385	ltpFR2	19	11	JUNGLE	764	n/a	n/a	0	0	0
2715.58251953125	n/a	WORD	5561513	wordpools/wasnorm_wordpool_576.txt	LTP385	ltpFR2	19	11	VALVE	1546	n/a	n/a	0	0	0
2718.33251953125	n/a	WORD	5567145	wordpools/wasnorm_wordpool_576.txt	LTP385	ltpFR2	19	11	SPOOL	1356	n/a	n/a	0	0	0
2721.015625	n/a	WORD	5572640	wordpools/wasnorm_wordpool_576.txt	LTP385	ltpFR2	19	11	THREAD	1460	n/a	n/a	0	0	0
2723.7822265625	n/a	WORD	5578306	wordpools/wasnorm_wordpool_576.txt	LTP385	ltpFR2	19	11	MILK	895	n/a	n/a	0	0	0
2726.34814453125	n/a	WORD	5583561	wordpools/wasnorm_wordpool_576.txt	LTP385	ltpFR2	19	11	PAIL	1002	n/a	n/a	0	0	0
2728.998046875	n/a	WORD	5588988	wordpools/wasnorm_wordpool_576.txt	LTP385	ltpFR2	19	11	PLIERS	1089	n/a	n/a	0	0	0
2731.76513671875	n/a	WORD	5594655	wordpools/wasnorm_wordpool_576.txt	LTP385	ltpFR2	19	11	FLASHLIGHT	575	n/a	n/a	0	0	0
2734.380859375	n/a	WORD	5600012	wordpools/wasnorm_wordpool_576.txt	LTP385	ltpFR2	19	11	SUITCASE	1403	n/a	n/a	0	0	0
2737.18212890625	n/a	WORD	5605749	wordpools/wasnorm_wordpool_576.txt	LTP385	ltpFR2	19	11	TOURIST	1488	n/a	n/a	0	0	0
2739.81494140625	n/a	WORD	5611141	wordpools/wasnorm_wordpool_576.txt	LTP385	ltpFR2	19	11	BIKE	125	n/a	n/a	0	0	0
2742.498046875	n/a	WORD	5616636	wordpools/wasnorm_wordpool_576.txt	LTP385	ltpFR2	19	11	GRAVE	658	n/a	n/a	0	0	0
2745.11474609375	n/a	WORD	5621995	wordpools/wasnorm_wordpool_576.txt	LTP385	ltpFR2	19	11	SPIDER	1351	n/a	n/a	0	0	0
2747.83056640625	n/a	WORD	5627557	wordpools/wasnorm_wordpool_576.txt	LTP385	ltpFR2	19	11	STAKE	1368	n/a	n/a	0	0	0
2750.46337890625	n/a	WORD	5632949	wordpools/wasnorm_wordpool_576.txt	LTP385	ltpFR2	19	11	FRIAR	605	n/a	n/a	0	0	0
2753.08056640625	n/a	WORD	5638309	wordpools/wasnorm_wordpool_576.txt	LTP385	ltpFR2	19	11	IDOL	733	n/a	n/a	0	0	0
2754.697265625	n/a	START	5641620	n/a	LTP385	ltpFR2	19	n/a	n/a	n/a	18	n/a	n/a	n/a	n/a
2755.5986328125	n/a	DISTRACTOR	5643466	n/a	LTP385	ltpFR2	19	11	n/a	n/a	n/a	n/a	0	0	0
2755.61328125	n/a	PROB	5643496	n/a	LTP385	ltpFR2	19	n/a	n/a	n/a	18	17	1	9	7
2759.68017578125	n/a	PROB	5651825	n/a	LTP385	ltpFR2	19	n/a	n/a	n/a	18	19	7	8	4
2765.9970703125	n/a	PROB	5664762	n/a	LTP385	ltpFR2	19	n/a	n/a	n/a	18	18	4	9	5
2768.4130859375	n/a	PROB	5669710	n/a	LTP385	ltpFR2	19	n/a	n/a	n/a	18	17	1	7	9
2770.59619140625	n/a	PROB	5674181	n/a	LTP385	ltpFR2	19	n/a	n/a	n/a	18	15	7	2	6
2774.1298828125	n/a	PROB	5681418	n/a	LTP385	ltpFR2	19	n/a	n/a	n/a	18	21	9	5	7
2777.3486328125	n/a	STOP	5688010	n/a	LTP385	ltpFR2	19	n/a	n/a	n/a	18	n/a	n/a	n/a	n/a
2780.57958984375	n/a	REC_START	5694627	n/a	LTP385	ltpFR2	19	11	n/a	n/a	n/a	n/a	0	0	0
2782.21484375	n/a	REC_WORD	5697976	wordpools/wasnorm_wordpool_576.txt	LTP385	ltpFR2	19	11	IDOL	733	n/a	n/a	0	0	0
2783.0166015625	n/a	REC_WORD	5699618	wordpools/wasnorm_wordpool_576.txt	LTP385	ltpFR2	19	11	HEART	697	n/a	n/a	0	0	0
2784.12939453125	n/a	REC_WORD	5701897	wordpools/wasnorm_wordpool_576.txt	LTP385	ltpFR2	19	11	JUNGLE	764	n/a	n/a	0	0	0
2786.0166015625	n/a	REC_WORD	5705762	wordpools/wasnorm_wordpool_576.txt	LTP385	ltpFR2	19	11	FRIAR	605	n/a	n/a	0	0	0
2976.28662109375	n/a	DISTRACTOR	6095435	n/a	LTP385	ltpFR2	19	12	n/a	n/a	n/a	n/a	0	0	0
2976.28662109375	n/a	START	6095435	n/a	LTP385	ltpFR2	19	n/a	n/a	n/a	19	n/a	n/a	n/a	n/a
2976.3037109375	n/a	PROB	6095470	n/a	LTP385	ltpFR2	19	n/a	n/a	n/a	19	14	1	4	9
2979.6865234375	n/a	PROB	6102398	n/a	LTP385	ltpFR2	19	n/a	n/a	n/a	19	15	7	3	5
2982.08642578125	n/a	PROB	6107313	n/a	LTP385	ltpFR2	19	n/a	n/a	n/a	19	13	4	6	3
2984.103515625	n/a	PROB	6111444	n/a	LTP385	ltpFR2	19	n/a	n/a	n/a	19	10	4	5	1
2986.3193359375	n/a	PROB	6115982	n/a	LTP385	ltpFR2	19	n/a	n/a	n/a	19	21	6	9	6
2995.8193359375	n/a	PROB	6135438	n/a	LTP385	ltpFR2	19	n/a	n/a	n/a	19	13	9	1	3
3000.28515625	n/a	STOP	6144584	n/a	LTP385	ltpFR2	19	n/a	n/a	n/a	19	n/a	n/a	n/a	n/a
3001.21875	n/a	WORD	6146496	wordpools/wasnorm_wordpool_576.txt	LTP385	ltpFR2	19	12	RECEIPT	1173	n/a	n/a	0	0	0
3003.95166015625	n/a	WORD	6152093	wordpools/wasnorm_wordpool_576.txt	LTP385	ltpFR2	19	12	ARM	38	n/a	n/a	0	0	0
3006.6689453125	n/a	WORD	6157658	wordpools/wasnorm_wordpool_576.txt	LTP385	ltpFR2	19	12	GYMNAST	675	n/a	n/a	0	0	0
3009.2685546875	n/a	WORD	6162982	wordpools/wasnorm_wordpool_576.txt	LTP385	ltpFR2	19	12	MARROW	872	n/a	n/a	0	0	0
3011.90185546875	n/a	WORD	6168375	wordpools/wasnorm_wordpool_576.txt	LTP385	ltpFR2	19	12	LOVER	846	n/a	n/a	0	0	0
3014.384765625	n/a	WORD	6173460	wordpools/wasnorm_wordpool_576.txt	LTP385	ltpFR2	19	12	COSTUME	383	n/a	n/a	0	0	0
3017.03466796875	n/a	WORD	6178887	wordpools/wasnorm_wordpool_576.txt	LTP385	ltpFR2	19	12	MONEY	908	n/a	n/a	0	0	0
3019.6845703125	n/a	WORD	6184314	wordpools/wasnorm_wordpool_576.txt	LTP385	ltpFR2	19	12	WASHER	1592	n/a	n/a	0	0	0
3022.2685546875	n/a	WORD	6189606	wordpools/wasnorm_wordpool_576.txt	LTP385	ltpFR2	19	12	NOVEL	960	n/a	n/a	0	0	0
3024.8681640625	n/a	WORD	6194930	wordpools/wasnorm_wordpool_576.txt	LTP385	ltpFR2	19	12	SHELF	1280	n/a	n/a	0	0	0
3027.568359375	n/a	WORD	6200460	wordpools/wasnorm_wordpool_576.txt	LTP385	ltpFR2	19	12	HORNET	718	n/a	n/a	0	0	0
3030.3681640625	n/a	WORD	6206194	wordpools/wasnorm_wordpool_576.txt	LTP385	ltpFR2	19	12	JOURNAL	760	n/a	n/a	0	0	0
3033.0341796875	n/a	WORD	6211654	wordpools/wasnorm_wordpool_576.txt	LTP385	ltpFR2	19	12	REPORT	1184	n/a	n/a	0	0	0
3035.81689453125	n/a	WORD	6217353	wordpools/wasnorm_wordpool_576.txt	LTP385	ltpFR2	19	12	CLOTHES	327	n/a	n/a	0	0	0
3038.5166015625	n/a	WORD	6222882	wordpools/wasnorm_wordpool_576.txt	LTP385	ltpFR2	19	12	BACKBONE	66	n/a	n/a	0	0	0
3041.20068359375	n/a	WORD	6228379	wordpools/wasnorm_wordpool_576.txt	LTP385	ltpFR2	19	12	GALLON	618	n/a	n/a	0	0	0
3043.81689453125	n/a	WORD	6233737	wordpools/wasnorm_wordpool_576.txt	LTP385	ltpFR2	19	12	KITCHEN	778	n/a	n/a	0	0	0
3046.56640625	n/a	WORD	6239368	wordpools/wasnorm_wordpool_576.txt	LTP385	ltpFR2	19	12	UMPIRE	1535	n/a	n/a	0	0	0
3049.2333984375	n/a	WORD	6244830	wordpools/wasnorm_wordpool_576.txt	LTP385	ltpFR2	19	12	MEDAL	885	n/a	n/a	0	0	0
3052.00048828125	n/a	WORD	6250497	wordpools/wasnorm_wordpool_576.txt	LTP385	ltpFR2	19	12	ROBBER	1197	n/a	n/a	0	0	0
3054.63330078125	n/a	WORD	6255889	wordpools/wasnorm_wordpool_576.txt	LTP385	ltpFR2	19	12	CRITIC	410	n/a	n/a	0	0	0
3057.38330078125	n/a	WORD	6261521	wordpools/wasnorm_wordpool_576.txt	LTP385	ltpFR2	19	12	CREATURE	403	n/a	n/a	0	0	0
3060.13330078125	n/a	WORD	6267153	wordpools/wasnorm_wordpool_576.txt	LTP385	ltpFR2	19	12	BUNNY	198	n/a	n/a	0	0	0
3062.93310546875	n/a	WORD	6272887	wordpools/wasnorm_wordpool_576.txt	LTP385	ltpFR2	19	12	LEOPARD	812	n/a	n/a	0	0	0
3064.5498046875	n/a	START	6276198	n/a	LTP385	ltpFR2	19	n/a	n/a	n/a	20	n/a	n/a	n/a	n/a
3065.67822265625	n/a	DISTRACTOR	6278509	n/a	LTP385	ltpFR2	19	12	n/a	n/a	n/a	n/a	0	0	0
3065.68310546875	n/a	PROB	6278519	n/a	LTP385	ltpFR2	19	n/a	n/a	n/a	20	23	5	9	8
3069.44873046875	n/a	PROB	6286231	n/a	LTP385	ltpFR2	19	n/a	n/a	n/a	20	19	5	9	5
3071.4658203125	n/a	PROB	6290362	n/a	LTP385	ltpFR2	19	n/a	n/a	n/a	20	14	7	4	3
3073.81591796875	n/a	PROB	6295175	n/a	LTP385	ltpFR2	19	n/a	n/a	n/a	20	23	7	9	8
3077.74853515625	n/a	PROB	6303229	n/a	LTP385	ltpFR2	19	n/a	n/a	n/a	20	6	4	1	1
3079.8154296875	n/a	PROB	6307462	n/a	LTP385	ltpFR2	19	n/a	n/a	n/a	20	15	9	1	5
3081.79833984375	n/a	PROB	6311523	n/a	LTP385	ltpFR2	19	n/a	n/a	n/a	20	19	9	8	2
3083.9482421875	n/a	PROB	6315926	n/a	LTP385	ltpFR2	19	n/a	n/a	n/a	20	19	9	7	3
3085.54833984375	n/a	PROB	6319203	n/a	LTP385	ltpFR2	19	n/a	n/a	n/a	20	21	9	4	8
3088.25244140625	n/a	STOP	6324741	n/a	LTP385	ltpFR2	19	n/a	n/a	n/a	20	n/a	n/a	n/a	n/a
3090.38232421875	n/a	REC_START	6329103	n/a	LTP385	ltpFR2	19	12	n/a	n/a	n/a	n/a	0	0	0
3092.13134765625	n/a	REC_WORD	6332685	wordpools/wasnorm_wordpool_576.txt	LTP385	ltpFR2	19	12	CRITIC	410	n/a	n/a	0	0	0
3093.18701171875	n/a	REC_WORD	6334847	wordpools/wasnorm_wordpool_576.txt	LTP385	ltpFR2	19	12	CREATURE	403	n/a	n/a	0	0	0
3094.1513671875	n/a	REC_WORD	6336822	wordpools/wasnorm_wordpool_576.txt	LTP385	ltpFR2	19	12	BUNNY	198	n/a	n/a	0	0	0
3095.77392578125	n/a	REC_WORD	6340145	wordpools/wasnorm_wordpool_576.txt	LTP385	ltpFR2	19	12	BACKBONE	66	n/a	n/a	0	0	0
3096.5849609375	n/a	REC_WORD	6341806	wordpools/wasnorm_wordpool_576.txt	LTP385	ltpFR2	19	12	GYMNAST	675	n/a	n/a	0	0	0
3098.716796875	n/a	REC_WORD	6346172	wordpools/wasnorm_wordpool_576.txt	LTP385	ltpFR2	19	12	LOVER	846	n/a	n/a	0	0	0
3111.90966796875	n/a	REC_WORD	6373191	wordpools/wasnorm_wordpool_576.txt	LTP385	ltpFR2	19	12	UMPIRE	1535	n/a	n/a	0	0	0
3180.84326171875	n/a	DISTRACTOR	6514367	n/a	LTP385	ltpFR2	19	13	n/a	n/a	n/a	n/a	0	0	0
3180.84423828125	n/a	START	6514369	n/a	LTP385	ltpFR2	19	n/a	n/a	n/a	21	n/a	n/a	n/a	n/a
3180.8603515625	n/a	PROB	6514402	n/a	LTP385	ltpFR2	19	n/a	n/a	n/a	21	10	1	3	6
3182.67724609375	n/a	PROB	6518123	n/a	LTP385	ltpFR2	19	n/a	n/a	n/a	21	10	1	3	9
3184.2431640625	n/a	PROB	6521330	n/a	LTP385	ltpFR2	19	n/a	n/a	n/a	21	18	4	6	8
3187.06005859375	n/a	PROB	6527099	n/a	LTP385	ltpFR2	19	n/a	n/a	n/a	21	16	7	2	7
3189.26025390625	n/a	PROB	6531605	n/a	LTP385	ltpFR2	19	n/a	n/a	n/a	21	19	4	8	7
3191.29296875	n/a	PROB	6535768	n/a	LTP385	ltpFR2	19	n/a	n/a	n/a	21	8	1	2	5
3194.9931640625	n/a	PROB	6543346	n/a	LTP385	ltpFR2	19	n/a	n/a	n/a	21	12	2	3	7
3196.81005859375	n/a	PROB	6547067	n/a	LTP385	ltpFR2	19	n/a	n/a	n/a	21	14	8	1	5
3200.10986328125	n/a	PROB	6553825	n/a	LTP385	ltpFR2	19	n/a	n/a	n/a	21	15	2	6	7
3204.8427734375	n/a	STOP	6563518	n/a	LTP385	ltpFR2	19	n/a	n/a	n/a	21	n/a	n/a	n/a	n/a
3206.07568359375	n/a	WORD	6566043	wordpools/wasnorm_wordpool_576.txt	LTP385	ltpFR2	19	13	RABBIT	1152	n/a	n/a	0	0	0
3208.85986328125	n/a	WORD	6571745	wordpools/wasnorm_wordpool_576.txt	LTP385	ltpFR2	19	13	QUARTER	1148	n/a	n/a	0	0	0
3211.42578125	n/a	WORD	6577000	wordpools/wasnorm_wordpool_576.txt	LTP385	ltpFR2	19	13	PIGMENT	1066	n/a	n/a	0	0	0
3214.1923828125	n/a	WORD	6582666	wordpools/wasnorm_wordpool_576.txt	LTP385	ltpFR2	19	13	WORLD	1622	n/a	n/a	0	0	0
3216.642578125	n/a	WORD	6587684	wordpools/wasnorm_wordpool_576.txt	LTP385	ltpFR2	19	13	TORTOISE	1486	n/a	n/a	0	0	0
3219.14208984375	n/a	WORD	6592803	wordpools/wasnorm_wordpool_576.txt	LTP385	ltpFR2	19	13	TUNNEL	1519	n/a	n/a	0	0	0
3221.7421875	n/a	WORD	6598128	wordpools/wasnorm_wordpool_576.txt	LTP385	ltpFR2	19	13	PISTOL	1075	n/a	n/a	0	0	0
3224.5419921875	n/a	WORD	6603862	wordpools/wasnorm_wordpool_576.txt	LTP385	ltpFR2	19	13	BEEF	113	n/a	n/a	0	0	0
3227.2080078125	n/a	WORD	6609322	wordpools/wasnorm_wordpool_576.txt	LTP385	ltpFR2	19	13	PATIENT	1024	n/a	n/a	0	0	0
3229.6748046875	n/a	WORD	6614374	wordpools/wasnorm_wordpool_576.txt	LTP385	ltpFR2	19	13	ZIPPER	1636	n/a	n/a	0	0	0
3232.341796875	n/a	WORD	6619836	wordpools/wasnorm_wordpool_576.txt	LTP385	ltpFR2	19	13	AIRPLANE	12	n/a	n/a	0	0	0
3234.82470703125	n/a	WORD	6624921	wordpools/wasnorm_wordpool_576.txt	LTP385	ltpFR2	19	13	PARENT	1013	n/a	n/a	0	0	0
3237.60791015625	n/a	WORD	6630621	wordpools/wasnorm_wordpool_576.txt	LTP385	ltpFR2	19	13	COWBOY	395	n/a	n/a	0	0	0
3240.390625	n/a	WORD	6636320	wordpools/wasnorm_wordpool_576.txt	LTP385	ltpFR2	19	13	SADDLE	1221	n/a	n/a	0	0	0
3243.0576171875	n/a	WORD	6641782	wordpools/wasnorm_wordpool_576.txt	LTP385	ltpFR2	19	13	ELBOW	520	n/a	n/a	0	0	0
3245.84033203125	n/a	WORD	6647481	wordpools/wasnorm_wordpool_576.txt	LTP385	ltpFR2	19	13	CHIPMUNK	304	n/a	n/a	0	0	0
3248.42431640625	n/a	WORD	6652773	wordpools/wasnorm_wordpool_576.txt	LTP385	ltpFR2	19	13	VIRUS	1572	n/a	n/a	0	0	0
3250.990234375	n/a	WORD	6658028	wordpools/wasnorm_wordpool_576.txt	LTP385	ltpFR2	19	13	FOOT	590	n/a	n/a	0	0	0
3253.70703125	n/a	WORD	6663592	wordpools/wasnorm_wordpool_576.txt	LTP385	ltpFR2	19	13	RUG	1215	n/a	n/a	0	0	0
3256.43994140625	n/a	WORD	6669189	wordpools/wasnorm_wordpool_576.txt	LTP385	ltpFR2	19	13	GLOBE	641	n/a	n/a	0	0	0
3258.873046875	n/a	WORD	6674172	wordpools/wasnorm_wordpool_576.txt	LTP385	ltpFR2	19	13	MESSAGE	888	n/a	n/a	0	0	0
3261.30712890625	n/a	WORD	6679157	wordpools/wasnorm_wordpool_576.txt	LTP385	ltpFR2	19	13	BLADE	134	n/a	n/a	0	0	0
3263.85693359375	n/a	WORD	6684379	wordpools/wasnorm_wordpool_576.txt	LTP385	ltpFR2	19	13	RAZOR	1171	n/a	n/a	0	0	0
3266.556640625	n/a	WORD	6689908	wordpools/wasnorm_wordpool_576.txt	LTP385	ltpFR2	19	13	ARMY	39	n/a	n/a	0	0	0
3268.173828125	n/a	START	6693220	n/a	LTP385	ltpFR2	19	n/a	n/a	n/a	22	n/a	n/a	n/a	n/a
3269.33056640625	n/a	DISTRACTOR	6695589	n/a	LTP385	ltpFR2	19	13	n/a	n/a	n/a	n/a	0	0	0
3269.33984375	n/a	PROB	6695608	n/a	LTP385	ltpFR2	19	n/a	n/a	n/a	22	18	9	8	1
3272.189453125	n/a	PROB	6701444	n/a	LTP385	ltpFR2	19	n/a	n/a	n/a	22	16	2	6	8
3274.82275390625	n/a	PROB	6706837	n/a	LTP385	ltpFR2	19	n/a	n/a	n/a	22	18	7	9	2
3276.7724609375	n/a	PROB	6710830	n/a	LTP385	ltpFR2	19	n/a	n/a	n/a	22	13	2	4	7
3279.10546875	n/a	PROB	6715608	n/a	LTP385	ltpFR2	19	n/a	n/a	n/a	22	14	4	9	1
3281.55517578125	n/a	PROB	6720625	n/a	LTP385	ltpFR2	19	n/a	n/a	n/a	22	12	2	4	6
3283.55517578125	n/a	PROB	6724721	n/a	LTP385	ltpFR2	19	n/a	n/a	n/a	22	18	7	7	4
3285.47216796875	n/a	PROB	6728647	n/a	LTP385	ltpFR2	19	n/a	n/a	n/a	22	18	2	9	7
3292.1728515625	n/a	STOP	6742370	n/a	LTP385	ltpFR2	19	n/a	n/a	n/a	22	n/a	n/a	n/a	n/a
3293.93896484375	n/a	REC_START	6745987	n/a	LTP385	ltpFR2	19	13	n/a	n/a	n/a	n/a	0	0	0
3295.73876953125	n/a	REC_WORD	6749673	wordpools/wasnorm_wordpool_576.txt	LTP385	ltpFR2	19	13	BLADE	134	n/a	n/a	0	0	0
3296.375	n/a	REC_WORD	6750976	wordpools/wasnorm_wordpool_576.txt	LTP385	ltpFR2	19	13	RAZOR	1171	n/a	n/a	0	0	0
3297.1708984375	n/a	REC_WORD	6752606	wordpools/wasnorm_wordpool_576.txt	LTP385	ltpFR2	19	13	ARMY	39	n/a	n/a	0	0	0
3298.013671875	n/a	REC_WORD	6754332	wordpools/wasnorm_wordpool_576.txt	LTP385	ltpFR2	19	13	MESSAGE	888	n/a	n/a	0	0	0
3300.1259765625	n/a	REC_WORD	6758658	wordpools/wasnorm_wordpool_576.txt	LTP385	ltpFR2	19	13	CHIPMUNK	304	n/a	n/a	0	0	0
3300.837890625	n/a	REC_WORD	6760116	wordpools/wasnorm_wordpool_576.txt	LTP385	ltpFR2	19	13	ELBOW	520	n/a	n/a	0	0	0
3302.52587890625	n/a	REC_WORD	6763573	wordpools/wasnorm_wordpool_576.txt	LTP385	ltpFR2	19	13	VIRUS	1572	n/a	n/a	0	0	0
3303.83154296875	n/a	REC_WORD	6766247	wordpools/wasnorm_wordpool_576.txt	LTP385	ltpFR2	19	13	SADDLE	1221	n/a	n/a	0	0	0
3306.33349609375	n/a	REC_WORD	6771371	wordpools/wasnorm_wordpool_576.txt	LTP385	ltpFR2	19	13	COWBOY	395	n/a	n/a	0	0	0
3312.8955078125	n/a	REC_WORD	6784810	wordpools/wasnorm_wordpool_576.txt	LTP385	ltpFR2	19	13	AIRPLANE	12	n/a	n/a	0	0	0
3315.6416015625	n/a	REC_WORD	6790434	wordpools/wasnorm_wordpool_576.txt	LTP385	ltpFR2	19	13	PARENT	1013	n/a	n/a	0	0	0
3348.42626953125	n/a	REC_WORD	6857577	wordpools/wasnorm_wordpool_576.txt	LTP385	ltpFR2	19	13	GUN	673	n/a	n/a	0	0	0
3348.96337890625	n/a	REC_WORD	6858677	wordpools/wasnorm_wordpool_576.txt	LTP385	ltpFR2	19	13	RABBIT	1152	n/a	n/a	0	0	0
3349.947265625	n/a	REC_WORD	6860692	wordpools/wasnorm_wordpool_576.txt	LTP385	ltpFR2	19	13	BEEF	113	n/a	n/a	0	0	0
3351.13818359375	n/a	REC_WORD	6863131	wordpools/wasnorm_wordpool_576.txt	LTP385	ltpFR2	19	13	RIFLE	1192	n/a	n/a	0	0	0
3360.05810546875	n/a	REC_WORD	6881399	wordpools/wasnorm_wordpool_576.txt	LTP385	ltpFR2	19	13	LOBE	-1	n/a	n/a	0	0	0
3361.05908203125	n/a	REC_WORD	6883449	wordpools/wasnorm_wordpool_576.txt	LTP385	ltpFR2	19	13	COOKBOOK	373	n/a	n/a	0	0	0
3421.0322265625	n/a	WORD	7006274	wordpools/wasnorm_wordpool_576.txt	LTP385	ltpFR2	19	14	CASKET	255	n/a	n/a	0	0	0
3423.69921875	n/a	WORD	7011736	wordpools/wasnorm_wordpool_576.txt	LTP385	ltpFR2	19	14	POSSUM	1112	n/a	n/a	0	0	0
3426.51611328125	n/a	WORD	7017505	wordpools/wasnorm_wordpool_576.txt	LTP385	ltpFR2	19	14	GROUND	666	n/a	n/a	0	0	0
3429.14990234375	n/a	WORD	7022899	wordpools/wasnorm_wordpool_576.txt	LTP385	ltpFR2	19	14	BLENDER	136	n/a	n/a	0	0	0
3431.94873046875	n/a	WORD	7028631	wordpools/wasnorm_wordpool_576.txt	LTP385	ltpFR2	19	14	CELLAR	267	n/a	n/a	0	0	0
3434.61572265625	n/a	WORD	7034093	wordpools/wasnorm_wordpool_576.txt	LTP385	ltpFR2	19	14	BUREAU	199	n/a	n/a	0	0	0
3437.11572265625	n/a	WORD	7039213	wordpools/wasnorm_wordpool_576.txt	LTP385	ltpFR2	19	14	COCKTAIL	338	n/a	n/a	0	0	0
3439.5986328125	n/a	WORD	7044298	wordpools/wasnorm_wordpool_576.txt	LTP385	ltpFR2	19	14	FLEET	578	n/a	n/a	0	0	0
3442.0986328125	n/a	WORD	7049418	wordpools/wasnorm_wordpool_576.txt	LTP385	ltpFR2	19	14	SCRIBBLE	1256	n/a	n/a	0	0	0
3444.8486328125	n/a	WORD	7055050	wordpools/wasnorm_wordpool_576.txt	LTP385	ltpFR2	19	14	THRONE	1461	n/a	n/a	0	0	0
3447.41455078125	n/a	WORD	7060305	wordpools/wasnorm_wordpool_576.txt	LTP385	ltpFR2	19	14	PRINCESS	1125	n/a	n/a	0	0	0
3450.1650390625	n/a	WORD	7065938	wordpools/wasnorm_wordpool_576.txt	LTP385	ltpFR2	19	14	BASEMENT	94	n/a	n/a	0	0	0
3452.64794921875	n/a	WORD	7071023	wordpools/wasnorm_wordpool_576.txt	LTP385	ltpFR2	19	14	QUEEN	1149	n/a	n/a	0	0	0
3455.28125	n/a	WORD	7076416	wordpools/wasnorm_wordpool_576.txt	LTP385	ltpFR2	19	14	SUNSET	1408	n/a	n/a	0	0	0
3458.0810546875	n/a	WORD	7082150	wordpools/wasnorm_wordpool_576.txt	LTP385	ltpFR2	19	14	MATTRESS	879	n/a	n/a	0	0	0
3460.76416015625	n/a	WORD	7087645	wordpools/wasnorm_wordpool_576.txt	LTP385	ltpFR2	19	14	DOLPHIN	483	n/a	n/a	0	0	0
3463.53076171875	n/a	WORD	7093311	wordpools/wasnorm_wordpool_576.txt	LTP385	ltpFR2	19	14	GHETTO	633	n/a	n/a	0	0	0
3466.263671875	n/a	WORD	7098908	wordpools/wasnorm_wordpool_576.txt	LTP385	ltpFR2	19	14	BLACKBOARD	133	n/a	n/a	0	0	0
3468.763671875	n/a	WORD	7104028	wordpools/wasnorm_wordpool_576.txt	LTP385	ltpFR2	19	14	NURSE	963	n/a	n/a	0	0	0
3471.58056640625	n/a	WORD	7109797	wordpools/wasnorm_wordpool_576.txt	LTP385	ltpFR2	19	14	SCALPEL	1243	n/a	n/a	0	0	0
3474.33056640625	n/a	WORD	7115429	wordpools/wasnorm_wordpool_576.txt	LTP385	ltpFR2	19	14	CHILD	299	n/a	n/a	0	0	0
3477.0966796875	n/a	WORD	7121094	wordpools/wasnorm_wordpool_576.txt	LTP385	ltpFR2	19	14	HEADBAND	696	n/a	n/a	0	0	0
3479.76318359375	n/a	WORD	7126555	wordpools/wasnorm_wordpool_576.txt	LTP385	ltpFR2	19	14	SHORTS	1293	n/a	n/a	0	0	0
3482.34619140625	n/a	WORD	7131845	wordpools/wasnorm_wordpool_576.txt	LTP385	ltpFR2	19	14	DRESSER	496	n/a	n/a	0	0	0
3483.96337890625	n/a	START	7135157	n/a	LTP385	ltpFR2	19	n/a	n/a	n/a	23	n/a	n/a	n/a	n/a
3484.81201171875	n/a	DISTRACTOR	7136895	n/a	LTP385	ltpFR2	19	14	n/a	n/a	n/a	n/a	0	0	0
3484.8291015625	n/a	PROB	7136930	n/a	LTP385	ltpFR2	19	n/a	n/a	n/a	23	18	5	6	7
3488.462890625	n/a	PROB	7144372	n/a	LTP385	ltpFR2	19	n/a	n/a	n/a	23	25	8	7	8
3490.712890625	n/a	PROB	7148980	n/a	LTP385	ltpFR2	19	n/a	n/a	n/a	23	18	6	4	8
3492.47900390625	n/a	PROB	7152597	n/a	LTP385	ltpFR2	19	n/a	n/a	n/a	23	10	2	3	5
3494.36181640625	n/a	PROB	7156453	n/a	LTP385	ltpFR2	19	n/a	n/a	n/a	23	17	5	8	4
3498.97900390625	n/a	PROB	7165909	n/a	LTP385	ltpFR2	19	n/a	n/a	n/a	23	17	6	3	8
3502.8115234375	n/a	PROB	7173758	n/a	LTP385	ltpFR2	19	n/a	n/a	n/a	23	22	4	9	9
3506.70068359375	n/a	STOP	7181723	n/a	LTP385	ltpFR2	19	n/a	n/a	n/a	23	n/a	n/a	n/a	n/a
3509.87939453125	n/a	REC_START	7188233	n/a	LTP385	ltpFR2	19	14	n/a	n/a	n/a	n/a	0	0	0
3511.2822265625	n/a	REC_WORD	7191106	wordpools/wasnorm_wordpool_576.txt	LTP385	ltpFR2	19	14	HEADBAND	696	n/a	n/a	0	0	0
3512.05419921875	n/a	REC_WORD	7192687	wordpools/wasnorm_wordpool_576.txt	LTP385	ltpFR2	19	14	SHORTS	1293	n/a	n/a	0	0	0
3513.13134765625	n/a	REC_WORD	7194893	wordpools/wasnorm_wordpool_576.txt	LTP385	ltpFR2	19	14	FRIAR	605	n/a	n/a	0	0	0
3684.05322265625	n/a	WORD	7544941	wordpools/wasnorm_wordpool_576.txt	LTP385	ltpFR2	19	15	CATCHER	258	n/a	n/a	0	0	0
3686.48681640625	n/a	WORD	7549925	wordpools/wasnorm_wordpool_576.txt	LTP385	ltpFR2	19	15	GLOVE	642	n/a	n/a	0	0	0
3689.052734375	n/a	WORD	7555180	wordpools/wasnorm_wordpool_576.txt	LTP385	ltpFR2	19	15	SCULPTURE	1258	n/a	n/a	0	0	0
3691.65283203125	n/a	WORD	7560505	wordpools/wasnorm_wordpool_576.txt	LTP385	ltpFR2	19	15	FEMALE	559	n/a	n/a	0	0	0
3694.28662109375	n/a	WORD	7565899	wordpools/wasnorm_wordpool_576.txt	LTP385	ltpFR2	19	15	FARMER	553	n/a	n/a	0	0	0
3697.11962890625	n/a	WORD	7571701	wordpools/wasnorm_wordpool_576.txt	LTP385	ltpFR2	19	15	COUNTRY	388	n/a	n/a	0	0	0
3699.76953125	n/a	WORD	7577128	wordpools/wasnorm_wordpool_576.txt	LTP385	ltpFR2	19	15	WRIST	1626	n/a	n/a	0	0	0
3702.28662109375	n/a	WORD	7582283	wordpools/wasnorm_wordpool_576.txt	LTP385	ltpFR2	19	15	PORTRAIT	1111	n/a	n/a	0	0	0
3704.9697265625	n/a	WORD	7587778	wordpools/wasnorm_wordpool_576.txt	LTP385	ltpFR2	19	15	CABIN	211	n/a	n/a	0	0	0
3707.65234375	n/a	WORD	7593272	wordpools/wasnorm_wordpool_576.txt	LTP385	ltpFR2	19	15	BLUEPRINT	142	n/a	n/a	0	0	0
3710.435546875	n/a	WORD	7598972	wordpools/wasnorm_wordpool_576.txt	LTP385	ltpFR2	19	15	JUGGLER	763	n/a	n/a	0	0	0
3713.21923828125	n/a	WORD	7604673	wordpools/wasnorm_wordpool_576.txt	LTP385	ltpFR2	19	15	CASHEW	253	n/a	n/a	0	0	0
3715.869140625	n/a	WORD	7610100	wordpools/wasnorm_wordpool_576.txt	LTP385	ltpFR2	19	15	STATUE	1374	n/a	n/a	0	0	0
3718.43505859375	n/a	WORD	7615355	wordpools/wasnorm_wordpool_576.txt	LTP385	ltpFR2	19	15	TERMITE	1451	n/a	n/a	0	0	0
3721.06787109375	n/a	WORD	7620747	wordpools/wasnorm_wordpool_576.txt	LTP385	ltpFR2	19	15	CRICKET	408	n/a	n/a	0	0	0
3723.7021484375	n/a	WORD	7626142	wordpools/wasnorm_wordpool_576.txt	LTP385	ltpFR2	19	15	MAMMAL	861	n/a	n/a	0	0	0
3726.35205078125	n/a	WORD	7631569	wordpools/wasnorm_wordpool_576.txt	LTP385	ltpFR2	19	15	PERFUME	1049	n/a	n/a	0	0	0
3728.90185546875	n/a	WORD	7636791	wordpools/wasnorm_wordpool_576.txt	LTP385	ltpFR2	19	15	CARRIAGE	248	n/a	n/a	0	0	0
3731.33447265625	n/a	WORD	7641773	wordpools/wasnorm_wordpool_576.txt	LTP385	ltpFR2	19	15	GUITAR	670	n/a	n/a	0	0	0
3733.884765625	n/a	WORD	7646996	wordpools/wasnorm_wordpool_576.txt	LTP385	ltpFR2	19	15	PECAN	1036	n/a	n/a	0	0	0
3736.5517578125	n/a	WORD	7652458	wordpools/wasnorm_wordpool_576.txt	LTP385	ltpFR2	19	15	NIGHTGOWN	953	n/a	n/a	0	0	0
3739.33447265625	n/a	WORD	7658157	wordpools/wasnorm_wordpool_576.txt	LTP385	ltpFR2	19	15	ULCER	1533	n/a	n/a	0	0	0
3741.91748046875	n/a	WORD	7663447	wordpools/wasnorm_wordpool_576.txt	LTP385	ltpFR2	19	15	SPOUSE	1358	n/a	n/a	0	0	0
3744.6171875	n/a	WORD	7668976	wordpools/wasnorm_wordpool_576.txt	LTP385	ltpFR2	19	15	PRIMATE	1123	n/a	n/a	0	0	0
3746.234375	n/a	START	7672288	n/a	LTP385	ltpFR2	19	n/a	n/a	n/a	24	n/a	n/a	n/a	n/a
3747.15625	n/a	DISTRACTOR	7674176	n/a	LTP385	ltpFR2	19	15	n/a	n/a	n/a	n/a	0	0	0
3747.1669921875	n/a	PROB	7674198	n/a	LTP385	ltpFR2	19	n/a	n/a	n/a	24	11	2	3	6
3749.5	n/a	PROB	7678976	n/a	LTP385	ltpFR2	19	n/a	n/a	n/a	24	16	6	1	9
3751.46728515625	n/a	PROB	7683005	n/a	LTP385	ltpFR2	19	n/a	n/a	n/a	24	12	3	1	8
3753.583984375	n/a	PROB	7687340	n/a	LTP385	ltpFR2	19	n/a	n/a	n/a	24	8	6	1	1
3755.26708984375	n/a	PROB	7690787	n/a	LTP385	ltpFR2	19	n/a	n/a	n/a	24	10	3	5	2
3757.86669921875	n/a	PROB	7696111	n/a	LTP385	ltpFR2	19	n/a	n/a	n/a	24	7	2	1	4
3761.06689453125	n/a	PROB	7702665	n/a	LTP385	ltpFR2	19	n/a	n/a	n/a	24	12	5	5	2
3763.08349609375	n/a	PROB	7706795	n/a	LTP385	ltpFR2	19	n/a	n/a	n/a	24	20	7	8	5
3766.11669921875	n/a	PROB	7713007	n/a	LTP385	ltpFR2	19	n/a	n/a	n/a	24	7	2	1	4
3770.232421875	n/a	STOP	7721436	n/a	LTP385	ltpFR2	19	n/a	n/a	n/a	24	n/a	n/a	n/a	n/a
3772.150390625	n/a	REC_START	7725364	n/a	LTP385	ltpFR2	19	15	n/a	n/a	n/a	n/a	0	0	0
3779.42919921875	n/a	REC_WORD	7740271	wordpools/wasnorm_wordpool_576.txt	LTP385	ltpFR2	19	15	FRIAR	605	n/a	n/a	0	0	0
3780.3623046875	n/a	REC_WORD	7742182	wordpools/wasnorm_wordpool_576.txt	LTP385	ltpFR2	19	15	PECAN	1036	n/a	n/a	0	0	0
3781.1181640625	n/a	REC_WORD	7743730	wordpools/wasnorm_wordpool_576.txt	LTP385	ltpFR2	19	15	ULCER	1533	n/a	n/a	0	0	0
3783.97607421875	n/a	REC_WORD	7749583	wordpools/wasnorm_wordpool_576.txt	LTP385	ltpFR2	19	15	CASHEW	253	n/a	n/a	0	0	0
3784.91796875	n/a	REC_WORD	7751512	wordpools/wasnorm_wordpool_576.txt	LTP385	ltpFR2	19	15	JUGGLER	763	n/a	n/a	0	0	0
3785.77392578125	n/a	REC_WORD	7753265	wordpools/wasnorm_wordpool_576.txt	LTP385	ltpFR2	19	15	MAMMAL	861	n/a	n/a	0	0	0
3786.8251953125	n/a	REC_WORD	7755418	wordpools/wasnorm_wordpool_576.txt	LTP385	ltpFR2	19	15	CRICKET	408	n/a	n/a	0	0	0
3787.794921875	n/a	REC_WORD	7757404	wordpools/wasnorm_wordpool_576.txt	LTP385	ltpFR2	19	15	TERMITE	1451	n/a	n/a	0	0	0
3788.7998046875	n/a	REC_WORD	7759462	wordpools/wasnorm_wordpool_576.txt	LTP385	ltpFR2	19	15	STATUE	1374	n/a	n/a	0	0	0
3797.1787109375	n/a	REC_WORD	7776622	wordpools/wasnorm_wordpool_576.txt	LTP385	ltpFR2	19	15	FARMER	553	n/a	n/a	0	0	0
3798.16455078125	n/a	REC_WORD	7778641	wordpools/wasnorm_wordpool_576.txt	LTP385	ltpFR2	19	15	CABIN	211	n/a	n/a	0	0	0
3805.6923828125	n/a	REC_WORD	7794058	wordpools/wasnorm_wordpool_576.txt	LTP385	ltpFR2	19	15	LADY	794	n/a	n/a	0	0	0
3806.50732421875	n/a	REC_WORD	7795727	wordpools/wasnorm_wordpool_576.txt	LTP385	ltpFR2	19	15	FEMALE	559	n/a	n/a	0	0	0
3813.69140625	n/a	REC_WORD	7810440	wordpools/wasnorm_wordpool_576.txt	LTP385	ltpFR2	19	15	CATCHER	258	n/a	n/a	0	0	0
3862.61181640625	n/a	WORD	7910629	wordpools/wasnorm_wordpool_576.txt	LTP385	ltpFR2	19	16	TILE	1468	n/a	n/a	0	0	0
3865.29541015625	n/a	WORD	7916125	wordpools/wasnorm_wordpool_576.txt	LTP385	ltpFR2	19	16	POCKET	1093	n/a	n/a	0	0	0
3867.96142578125	n/a	WORD	7921585	wordpools/wasnorm_wordpool_576.txt	LTP385	ltpFR2	19	16	JEANS	752	n/a	n/a	0	0	0
3870.41162109375	n/a	WORD	7926603	wordpools/wasnorm_wordpool_576.txt	LTP385	ltpFR2	19	16	GUARD	667	n/a	n/a	0	0	0
3873.0615234375	n/a	WORD	7932030	wordpools/wasnorm_wordpool_576.txt	LTP385	ltpFR2	19	16	REBEL	1172	n/a	n/a	0	0	0
3875.6611328125	n/a	WORD	7937354	wordpools/wasnorm_wordpool_576.txt	LTP385	ltpFR2	19	16	HOUND	724	n/a	n/a	0	0	0
3878.34423828125	n/a	WORD	7942849	wordpools/wasnorm_wordpool_576.txt	LTP385	ltpFR2	19	16	GARBAGE	622	n/a	n/a	0	0	0
3881.1611328125	n/a	WORD	7948618	wordpools/wasnorm_wordpool_576.txt	LTP385	ltpFR2	19	16	CIGAR	308	n/a	n/a	0	0	0
3883.76123046875	n/a	WORD	7953943	wordpools/wasnorm_wordpool_576.txt	LTP385	ltpFR2	19	16	SPARROW	1347	n/a	n/a	0	0	0
3886.2607421875	n/a	WORD	7959062	wordpools/wasnorm_wordpool_576.txt	LTP385	ltpFR2	19	16	CONTRACT	368	n/a	n/a	0	0	0
3888.94384765625	n/a	WORD	7964557	wordpools/wasnorm_wordpool_576.txt	LTP385	ltpFR2	19	16	SLUG	1329	n/a	n/a	0	0	0
3891.41064453125	n/a	WORD	7969609	wordpools/wasnorm_wordpool_576.txt	LTP385	ltpFR2	19	16	COUNTY	389	n/a	n/a	0	0	0
3894.2265625	n/a	WORD	7975376	wordpools/wasnorm_wordpool_576.txt	LTP385	ltpFR2	19	16	STONE	1385	n/a	n/a	0	0	0
3896.8935546875	n/a	WORD	7980838	wordpools/wasnorm_wordpool_576.txt	LTP385	ltpFR2	19	16	PATROL	1027	n/a	n/a	0	0	0
3899.4267578125	n/a	WORD	7986026	wordpools/wasnorm_wordpool_576.txt	LTP385	ltpFR2	19	16	BOX	159	n/a	n/a	0	0	0
3902.01025390625	n/a	WORD	7991317	wordpools/wasnorm_wordpool_576.txt	LTP385	ltpFR2	19	16	EXPERT	543	n/a	n/a	0	0	0
3904.4765625	n/a	WORD	7996368	wordpools/wasnorm_wordpool_576.txt	LTP385	ltpFR2	19	16	COUCH	386	n/a	n/a	0	0	0
3907.09326171875	n/a	WORD	8001727	wordpools/wasnorm_wordpool_576.txt	LTP385	ltpFR2	19	16	SERVANT	1271	n/a	n/a	0	0	0
3909.693359375	n/a	WORD	8007052	wordpools/wasnorm_wordpool_576.txt	LTP385	ltpFR2	19	16	HOSTESS	723	n/a	n/a	0	0	0
3912.22607421875	n/a	WORD	8012239	wordpools/wasnorm_wordpool_576.txt	LTP385	ltpFR2	19	16	STOVE	1388	n/a	n/a	0	0	0
3914.79296875	n/a	WORD	8017496	wordpools/wasnorm_wordpool_576.txt	LTP385	ltpFR2	19	16	APRON	35	n/a	n/a	0	0	0
3917.326171875	n/a	WORD	8022684	wordpools/wasnorm_wordpool_576.txt	LTP385	ltpFR2	19	16	WAITER	1580	n/a	n/a	0	0	0
3919.85888671875	n/a	WORD	8027871	wordpools/wasnorm_wordpool_576.txt	LTP385	ltpFR2	19	16	MOP	916	n/a	n/a	0	0	0
3922.52587890625	n/a	WORD	8033333	wordpools/wasnorm_wordpool_576.txt	LTP385	ltpFR2	19	16	POLICE	1098	n/a	n/a	0	0	0
3924.14404296875	n/a	START	8036647	n/a	LTP385	ltpFR2	19	n/a	n/a	n/a	25	n/a	n/a	n/a	n/a
3924.9658203125	n/a	DISTRACTOR	8038330	n/a	LTP385	ltpFR2	19	16	n/a	n/a	n/a	n/a	0	0	0
3924.9755859375	n/a	PROB	8038350	n/a	LTP385	ltpFR2	19	n/a	n/a	n/a	25	13	6	6	1
3927.20849609375	n/a	PROB	8042923	n/a	LTP385	ltpFR2	19	n/a	n/a	n/a	25	10	3	2	5
3928.82568359375	n/a	PROB	8046235	n/a	LTP385	ltpFR2	19	n/a	n/a	n/a	25	13	5	3	5
3931.87548828125	n/a	PROB	8052481	n/a	LTP385	ltpFR2	19	n/a	n/a	n/a	25	16	7	8	1
3934.17529296875	n/a	PROB	8057191	n/a	LTP385	ltpFR2	19	n/a	n/a	n/a	25	12	8	1	3
3936.20849609375	n/a	PROB	8061355	n/a	LTP385	ltpFR2	19	n/a	n/a	n/a	25	18	9	7	2
3938.34130859375	n/a	PROB	8065723	n/a	LTP385	ltpFR2	19	n/a	n/a	n/a	25	15	2	7	6
3941.79150390625	n/a	PROB	8072789	n/a	LTP385	ltpFR2	19	n/a	n/a	n/a	25	23	8	7	8
3946.7958984375	n/a	STOP	8083038	n/a	LTP385	ltpFR2	19	n/a	n/a	n/a	25	n/a	n/a	n/a	n/a
3950.0751953125	n/a	REC_START	8089754	n/a	LTP385	ltpFR2	19	16	n/a	n/a	n/a	n/a	0	0	0
3954.013671875	n/a	REC_WORD	8097820	wordpools/wasnorm_wordpool_576.txt	LTP385	ltpFR2	19	16	JEANS	752	n/a	n/a	0	0	0
3954.85693359375	n/a	REC_WORD	8099547	wordpools/wasnorm_wordpool_576.txt	LTP385	ltpFR2	19	16	POCKET	1093	n/a	n/a	0	0	0
3956.82470703125	n/a	REC_WORD	8103577	wordpools/wasnorm_wordpool_576.txt	LTP385	ltpFR2	19	16	TILE	1468	n/a	n/a	0	0	0
3962.357421875	n/a	REC_WORD	8114908	wordpools/wasnorm_wordpool_576.txt	LTP385	ltpFR2	19	16	REBEL	1172	n/a	n/a	0	0	0
3970.03125	n/a	REC_WORD	8130624	wordpools/wasnorm_wordpool_576.txt	LTP385	ltpFR2	19	16	TRASH	1497	n/a	n/a	0	0	0
3971.7021484375	n/a	REC_WORD	8134046	wordpools/wasnorm_wordpool_576.txt	LTP385	ltpFR2	19	16	HOUND	724	n/a	n/a	0	0	0
3972.8232421875	n/a	REC_WORD	8136342	wordpools/wasnorm_wordpool_576.txt	LTP385	ltpFR2	19	16	CIGAR	308	n/a	n/a	0	0	0
3975.490234375	n/a	REC_WORD	8141804	wordpools/wasnorm_wordpool_576.txt	LTP385	ltpFR2	19	16	POLICE	1098	n/a	n/a	0	0	0
3979.9052734375	n/a	REC_WORD	8150846	wordpools/wasnorm_wordpool_576.txt	LTP385	ltpFR2	19	16	MOP	916	n/a	n/a	0	0	0
3980.76123046875	n/a	REC_WORD	8152599	wordpools/wasnorm_wordpool_576.txt	LTP385	ltpFR2	19	16	SERVANT	1271	n/a	n/a	0	0	0
3982.71923828125	n/a	REC_WORD	8156609	wordpools/wasnorm_wordpool_576.txt	LTP385	ltpFR2	19	16	WAITRESS	1581	n/a	n/a	0	0	0
3983.7978515625	n/a	REC_WORD	8158818	wordpools/wasnorm_wordpool_576.txt	LTP385	ltpFR2	19	16	HOSTESS	723	n/a	n/a	0	0	0
3985.93603515625	n/a	REC_WORD	8163197	wordpools/wasnorm_wordpool_576.txt	LTP385	ltpFR2	19	16	COOK	372	n/a	n/a	0	0	0
4026.62060546875	n/a	REST_REWET	8246519	n/a	LTP385	ltpFR2	19	16	n/a	n/a	n/a	n/a	0	0	0
4215.47900390625	n/a	WORD	8633301	wordpools/wasnorm_wordpool_576.txt	LTP385	ltpFR2	19	17	WOMAN	1620	n/a	n/a	0	0	0
4218.2119140625	n/a	WORD	8638898	wordpools/wasnorm_wordpool_576.txt	LTP385	ltpFR2	19	17	FILM	565	n/a	n/a	0	0	0
4220.7119140625	n/a	WORD	8644018	wordpools/wasnorm_wordpool_576.txt	LTP385	ltpFR2	19	17	BRANDY	169	n/a	n/a	0	0	0
4223.19482421875	n/a	WORD	8649103	wordpools/wasnorm_wordpool_576.txt	LTP385	ltpFR2	19	17	YACHT	1629	n/a	n/a	0	0	0
4225.8115234375	n/a	WORD	8654462	wordpools/wasnorm_wordpool_576.txt	LTP385	ltpFR2	19	17	CITRUS	313	n/a	n/a	0	0	0
4228.27734375	n/a	WORD	8659512	wordpools/wasnorm_wordpool_576.txt	LTP385	ltpFR2	19	17	SHORTCAKE	1292	n/a	n/a	0	0	0
4230.76123046875	n/a	WORD	8664599	wordpools/wasnorm_wordpool_576.txt	LTP385	ltpFR2	19	17	CYCLONE	431	n/a	n/a	0	0	0
4233.27734375	n/a	WORD	8669752	wordpools/wasnorm_wordpool_576.txt	LTP385	ltpFR2	19	17	BULLET	194	n/a	n/a	0	0	0
4235.79443359375	n/a	WORD	8674907	wordpools/wasnorm_wordpool_576.txt	LTP385	ltpFR2	19	17	LACE	792	n/a	n/a	0	0	0
4238.611328125	n/a	WORD	8680676	wordpools/wasnorm_wordpool_576.txt	LTP385	ltpFR2	19	17	TWIG	1527	n/a	n/a	0	0	0
4241.39404296875	n/a	WORD	8686375	wordpools/wasnorm_wordpool_576.txt	LTP385	ltpFR2	19	17	OYSTER	995	n/a	n/a	0	0	0
4243.876953125	n/a	WORD	8691460	wordpools/wasnorm_wordpool_576.txt	LTP385	ltpFR2	19	17	CHEST	295	n/a	n/a	0	0	0
4246.61083984375	n/a	WORD	8697059	wordpools/wasnorm_wordpool_576.txt	LTP385	ltpFR2	19	17	OUTDOORS	987	n/a	n/a	0	0	0
4249.259765625	n/a	WORD	8702484	wordpools/wasnorm_wordpool_576.txt	LTP385	ltpFR2	19	17	BANQUET	86	n/a	n/a	0	0	0
4252.009765625	n/a	WORD	8708116	wordpools/wasnorm_wordpool_576.txt	LTP385	ltpFR2	19	17	ACTRESS	6	n/a	n/a	0	0	0
4254.8095703125	n/a	WORD	8713850	wordpools/wasnorm_wordpool_576.txt	LTP385	ltpFR2	19	17	MATCH	878	n/a	n/a	0	0	0
4257.37646484375	n/a	WORD	8719107	wordpools/wasnorm_wordpool_576.txt	LTP385	ltpFR2	19	17	COLLEGE	346	n/a	n/a	0	0	0
4259.8095703125	n/a	WORD	8724090	wordpools/wasnorm_wordpool_576.txt	LTP385	ltpFR2	19	17	DORM	488	n/a	n/a	0	0	0
4262.32666015625	n/a	WORD	8729245	wordpools/wasnorm_wordpool_576.txt	LTP385	ltpFR2	19	17	PREACHER	1119	n/a	n/a	0	0	0
4265.076171875	n/a	WORD	8734876	wordpools/wasnorm_wordpool_576.txt	LTP385	ltpFR2	19	17	CHURCH	307	n/a	n/a	0	0	0
4267.54345703125	n/a	WORD	8739929	wordpools/wasnorm_wordpool_576.txt	LTP385	ltpFR2	19	17	BUTCHER	203	n/a	n/a	0	0	0
4270.2421875	n/a	WORD	8745456	wordpools/wasnorm_wordpool_576.txt	LTP385	ltpFR2	19	17	SCOTCH	1251	n/a	n/a	0	0	0
4273.05908203125	n/a	WORD	8751225	wordpools/wasnorm_wordpool_576.txt	LTP385	ltpFR2	19	17	CRAB	397	n/a	n/a	0	0	0
4275.7421875	n/a	WORD	8756720	wordpools/wasnorm_wordpool_576.txt	LTP385	ltpFR2	19	17	PORK	1108	n/a	n/a	0	0	0
4277.35888671875	n/a	START	8760031	n/a	LTP385	ltpFR2	19	n/a	n/a	n/a	26	n/a	n/a	n/a	n/a
4278.34423828125	n/a	DISTRACTOR	8762049	n/a	LTP385	ltpFR2	19	17	n/a	n/a	n/a	n/a	0	0	0
4278.35888671875	n/a	PROB	8762079	n/a	LTP385	ltpFR2	19	n/a	n/a	n/a	26	16	9	4	4
4281.97607421875	n/a	PROB	8769487	n/a	LTP385	ltpFR2	19	n/a	n/a	n/a	26	12	1	8	3
4285.4248046875	n/a	PROB	8776550	n/a	LTP385	ltpFR2	19	n/a	n/a	n/a	26	8	2	1	5
4288.77587890625	n/a	PROB	8783413	n/a	LTP385	ltpFR2	19	n/a	n/a	n/a	26	14	7	1	6
4291.24169921875	n/a	PROB	8788463	n/a	LTP385	ltpFR2	19	n/a	n/a	n/a	26	14	3	4	7
4294.5244140625	n/a	PROB	8795186	n/a	LTP385	ltpFR2	19	n/a	n/a	n/a	26	20	9	9	2
4296.62451171875	n/a	PROB	8799487	n/a	LTP385	ltpFR2	19	n/a	n/a	n/a	26	19	1	9	9
4299.947265625	n/a	STOP	8806292	n/a	LTP385	ltpFR2	19	n/a	n/a	n/a	26	n/a	n/a	n/a	n/a
4303.1923828125	n/a	REC_START	8812938	n/a	LTP385	ltpFR2	19	17	n/a	n/a	n/a	n/a	0	0	0
4304.2451171875	n/a	REC_WORD	8815094	wordpools/wasnorm_wordpool_576.txt	LTP385	ltpFR2	19	17	SCOTCH	1251	n/a	n/a	0	0	0
4305.50537109375	n/a	REC_WORD	8817675	wordpools/wasnorm_wordpool_576.txt	LTP385	ltpFR2	19	17	CRAB	397	n/a	n/a	0	0	0
4306.3759765625	n/a	REC_WORD	8819458	wordpools/wasnorm_wordpool_576.txt	LTP385	ltpFR2	19	17	PORK	1108	n/a	n/a	0	0	0
4308.919921875	n/a	REC_WORD	8824668	wordpools/wasnorm_wordpool_576.txt	LTP385	ltpFR2	19	17	BANQUET	86	n/a	n/a	0	0	0
4309.77490234375	n/a	REC_WORD	8826419	wordpools/wasnorm_wordpool_576.txt	LTP385	ltpFR2	19	17	OUTSIDE	-1	n/a	n/a	0	0	0
4311.7177734375	n/a	REC_WORD	8830398	wordpools/wasnorm_wordpool_576.txt	LTP385	ltpFR2	19	17	TWIG	1527	n/a	n/a	0	0	0
4312.69189453125	n/a	REC_WORD	8832393	wordpools/wasnorm_wordpool_576.txt	LTP385	ltpFR2	19	17	LACE	792	n/a	n/a	0	0	0
4347.65771484375	n/a	REC_WORD	8904003	wordpools/wasnorm_wordpool_576.txt	LTP385	ltpFR2	19	17	MATCH	878	n/a	n/a	0	0	0
4348.8076171875	n/a	REC_WORD	8906358	wordpools/wasnorm_wordpool_576.txt	LTP385	ltpFR2	19	17	DORM	488	n/a	n/a	0	0	0
4349.8828125	n/a	REC_WORD	8908560	wordpools/wasnorm_wordpool_576.txt	LTP385	ltpFR2	19	17	COLLEGE	346	n/a	n/a	0	0	0
4393.62060546875	n/a	DISTRACTOR	8998135	n/a	LTP385	ltpFR2	19	18	n/a	n/a	n/a	n/a	0	0	0
4393.62060546875	n/a	START	8998135	n/a	LTP385	ltpFR2	19	n/a	n/a	n/a	27	n/a	n/a	n/a	n/a
4393.63671875	n/a	PROB	8998168	n/a	LTP385	ltpFR2	19	n/a	n/a	n/a	27	14	6	7	1
4396.28662109375	n/a	PROB	9003595	n/a	LTP385	ltpFR2	19	n/a	n/a	n/a	27	11	3	6	2
4399.88623046875	n/a	PROB	9010967	n/a	LTP385	ltpFR2	19	n/a	n/a	n/a	27	19	8	5	6
4402.05322265625	n/a	PROB	9015405	n/a	LTP385	ltpFR2	19	n/a	n/a	n/a	27	19	9	8	2
4404.12109375	n/a	PROB	9019640	n/a	LTP385	ltpFR2	19	n/a	n/a	n/a	27	17	9	6	1
4406.953125	n/a	PROB	9025440	n/a	LTP385	ltpFR2	19	n/a	n/a	n/a	27	12	3	5	3
4409.47021484375	n/a	PROB	9030595	n/a	LTP385	ltpFR2	19	n/a	n/a	n/a	27	17	1	8	8
4411.73583984375	n/a	PROB	9035235	n/a	LTP385	ltpFR2	19	n/a	n/a	n/a	27	16	7	3	6
4413.65283203125	n/a	PROB	9039161	n/a	LTP385	ltpFR2	19	n/a	n/a	n/a	27	9	1	1	7
4415.20263671875	n/a	PROB	9042335	n/a	LTP385	ltpFR2	19	n/a	n/a	n/a	27	16	6	9	1
4417.2666015625	n/a	STOP	9046562	n/a	LTP385	ltpFR2	19	n/a	n/a	n/a	27	n/a	n/a	n/a	n/a
4418.81884765625	n/a	WORD	9049741	wordpools/wasnorm_wordpool_576.txt	LTP385	ltpFR2	19	18	PEBBLE	1035	n/a	n/a	0	0	0
4421.2685546875	n/a	WORD	9054758	wordpools/wasnorm_wordpool_576.txt	LTP385	ltpFR2	19	18	TURKEY	1520	n/a	n/a	0	0	0
4424.068359375	n/a	WORD	9060492	wordpools/wasnorm_wordpool_576.txt	LTP385	ltpFR2	19	18	PLATE	1086	n/a	n/a	0	0	0
4426.7685546875	n/a	WORD	9066022	wordpools/wasnorm_wordpool_576.txt	LTP385	ltpFR2	19	18	ATOM	55	n/a	n/a	0	0	0
4429.2021484375	n/a	WORD	9071006	wordpools/wasnorm_wordpool_576.txt	LTP385	ltpFR2	19	18	TRACTOR	1493	n/a	n/a	0	0	0
4431.75146484375	n/a	WORD	9076227	wordpools/wasnorm_wordpool_576.txt	LTP385	ltpFR2	19	18	FRIEND	606	n/a	n/a	0	0	0
4434.4853515625	n/a	WORD	9081826	wordpools/wasnorm_wordpool_576.txt	LTP385	ltpFR2	19	18	HIKER	708	n/a	n/a	0	0	0
4437.16796875	n/a	WORD	9087320	wordpools/wasnorm_wordpool_576.txt	LTP385	ltpFR2	19	18	LEADER	807	n/a	n/a	0	0	0
4439.63525390625	n/a	WORD	9092373	wordpools/wasnorm_wordpool_576.txt	LTP385	ltpFR2	19	18	SUNRISE	1407	n/a	n/a	0	0	0
4442.18505859375	n/a	WORD	9097595	wordpools/wasnorm_wordpool_576.txt	LTP385	ltpFR2	19	18	PASSAGE	1019	n/a	n/a	0	0	0
4444.884765625	n/a	WORD	9103124	wordpools/wasnorm_wordpool_576.txt	LTP385	ltpFR2	19	18	SWITCH	1422	n/a	n/a	0	0	0
4447.3349609375	n/a	WORD	9108142	wordpools/wasnorm_wordpool_576.txt	LTP385	ltpFR2	19	18	CHAPEL	280	n/a	n/a	0	0	0
4450.11865234375	n/a	WORD	9113843	wordpools/wasnorm_wordpool_576.txt	LTP385	ltpFR2	19	18	TEMPLE	1448	n/a	n/a	0	0	0
4452.6337890625	n/a	WORD	9118994	wordpools/wasnorm_wordpool_576.txt	LTP385	ltpFR2	19	18	CUSTARD	429	n/a	n/a	0	0	0
4455.45068359375	n/a	WORD	9124763	wordpools/wasnorm_wordpool_576.txt	LTP385	ltpFR2	19	18	FLASK	576	n/a	n/a	0	0	0
4458.00048828125	n/a	WORD	9129985	wordpools/wasnorm_wordpool_576.txt	LTP385	ltpFR2	19	18	FRUIT	610	n/a	n/a	0	0	0
4460.55029296875	n/a	WORD	9135207	wordpools/wasnorm_wordpool_576.txt	LTP385	ltpFR2	19	18	CREVICE	405	n/a	n/a	0	0	0
4463.38330078125	n/a	WORD	9141009	wordpools/wasnorm_wordpool_576.txt	LTP385	ltpFR2	19	18	OUTFIT	988	n/a	n/a	0	0	0
4466.13427734375	n/a	WORD	9146643	wordpools/wasnorm_wordpool_576.txt	LTP385	ltpFR2	19	18	LAPEL	800	n/a	n/a	0	0	0
4468.71728515625	n/a	WORD	9151933	wordpools/wasnorm_wordpool_576.txt	LTP385	ltpFR2	19	18	CLIMBER	323	n/a	n/a	0	0	0
4471.1669921875	n/a	WORD	9156950	wordpools/wasnorm_wordpool_576.txt	LTP385	ltpFR2	19	18	OMELET	976	n/a	n/a	0	0	0
4473.8828125	n/a	WORD	9162512	wordpools/wasnorm_wordpool_576.txt	LTP385	ltpFR2	19	18	DRUG	501	n/a	n/a	0	0	0
4476.5	n/a	WORD	9167872	wordpools/wasnorm_wordpool_576.txt	LTP385	ltpFR2	19	18	GLASS	639	n/a	n/a	0	0	0
4479.10009765625	n/a	WORD	9173197	wordpools/wasnorm_wordpool_576.txt	LTP385	ltpFR2	19	18	BOYFRIEND	162	n/a	n/a	0	0	0
4480.716796875	n/a	START	9176508	n/a	LTP385	ltpFR2	19	n/a	n/a	n/a	28	n/a	n/a	n/a	n/a
4481.55078125	n/a	DISTRACTOR	9178216	n/a	LTP385	ltpFR2	19	18	n/a	n/a	n/a	n/a	0	0	0
4481.56591796875	n/a	PROB	9178247	n/a	LTP385	ltpFR2	19	n/a	n/a	n/a	28	17	8	8	1
4484.849609375	n/a	PROB	9184972	n/a	LTP385	ltpFR2	19	n/a	n/a	n/a	28	15	8	4	3
4486.94970703125	n/a	PROB	9189273	n/a	LTP385	ltpFR2	19	n/a	n/a	n/a	28	10	8	1	1
4488.53271484375	n/a	PROB	9192515	n/a	LTP385	ltpFR2	19	n/a	n/a	n/a	28	6	3	2	1
4491.66552734375	n/a	PROB	9198931	n/a	LTP385	ltpFR2	19	n/a	n/a	n/a	28	13	5	6	1
4496.732421875	n/a	PROB	9209308	n/a	LTP385	ltpFR2	19	n/a	n/a	n/a	28	12	7	3	2
4498.71533203125	n/a	PROB	9213369	n/a	LTP385	ltpFR2	19	n/a	n/a	n/a	28	14	8	2	4
4500.51513671875	n/a	PROB	9217055	n/a	LTP385	ltpFR2	19	n/a	n/a	n/a	28	12	3	7	2
4503.97119140625	n/a	STOP	9224133	n/a	LTP385	ltpFR2	19	n/a	n/a	n/a	28	n/a	n/a	n/a	n/a
4506.4990234375	n/a	REC_START	9229310	n/a	LTP385	ltpFR2	19	18	n/a	n/a	n/a	n/a	0	0	0
4508.85107421875	n/a	REC_WORD	9234127	wordpools/wasnorm_wordpool_576.txt	LTP385	ltpFR2	19	18	DRUG	501	n/a	n/a	0	0	0
4511.00390625	n/a	REC_WORD	9238536	wordpools/wasnorm_wordpool_576.txt	LTP385	ltpFR2	19	18	BOYFRIEND	162	n/a	n/a	0	0	0
4512.68994140625	n/a	REC_WORD	9241989	wordpools/wasnorm_wordpool_576.txt	LTP385	ltpFR2	19	18	LACE	792	n/a	n/a	0	0	0
4515.24658203125	n/a	REC_WORD	9247225	wordpools/wasnorm_wordpool_576.txt	LTP385	ltpFR2	19	18	SUNRISE	1407	n/a	n/a	0	0	0
4516.61669921875	n/a	REC_WORD	9250031	wordpools/wasnorm_wordpool_576.txt	LTP385	ltpFR2	19	18	HIKER	708	n/a	n/a	0	0	0
4518.2197265625	n/a	REC_WORD	9253314	wordpools/wasnorm_wordpool_576.txt	LTP385	ltpFR2	19	18	LEADER	807	n/a	n/a	0	0	0
4519.86474609375	n/a	REC_WORD	9256683	wordpools/wasnorm_wordpool_576.txt	LTP385	ltpFR2	19	18	MOUNTAIN	924	n/a	n/a	0	0	0
4527.84228515625	n/a	REC_WORD	9273021	wordpools/wasnorm_wordpool_576.txt	LTP385	ltpFR2	19	18	FRIEND	606	n/a	n/a	0	0	0
4596.92724609375	n/a	DISTRACTOR	9414507	n/a	LTP385	ltpFR2	19	19	n/a	n/a	n/a	n/a	0	0	0
4596.92724609375	n/a	START	9414507	n/a	LTP385	ltpFR2	19	n/a	n/a	n/a	29	n/a	n/a	n/a	n/a
4596.9443359375	n/a	PROB	9414542	n/a	LTP385	ltpFR2	19	n/a	n/a	n/a	29	15	8	1	6
4600.2939453125	n/a	PROB	9421402	n/a	LTP385	ltpFR2	19	n/a	n/a	n/a	29	14	6	4	4
4601.92724609375	n/a	PROB	9424747	n/a	LTP385	ltpFR2	19	n/a	n/a	n/a	29	14	5	8	1
4603.89404296875	n/a	PROB	9428775	n/a	LTP385	ltpFR2	19	n/a	n/a	n/a	29	18	9	1	8
4606.34375	n/a	PROB	9433792	n/a	LTP385	ltpFR2	19	n/a	n/a	n/a	29	21	9	7	5
4610.29296875	n/a	PROB	9441880	n/a	LTP385	ltpFR2	19	n/a	n/a	n/a	29	11	1	6	4
4611.77685546875	n/a	PROB	9444919	n/a	LTP385	ltpFR2	19	n/a	n/a	n/a	29	15	5	5	5
4613.27685546875	n/a	PROB	9447991	n/a	LTP385	ltpFR2	19	n/a	n/a	n/a	29	1	6	4	3
4617.85986328125	n/a	PROB	9457377	n/a	LTP385	ltpFR2	19	n/a	n/a	n/a	29	11	5	4	2
4619.96240234375	n/a	STOP	9461683	n/a	LTP385	ltpFR2	19	n/a	n/a	n/a	29	n/a	n/a	n/a	n/a
4621.95947265625	n/a	WORD	9465773	wordpools/wasnorm_wordpool_576.txt	LTP385	ltpFR2	19	19	STAMP	1370	n/a	n/a	0	0	0
4624.50927734375	n/a	WORD	9470995	wordpools/wasnorm_wordpool_576.txt	LTP385	ltpFR2	19	19	SHOULDER	1294	n/a	n/a	0	0	0
4627.12744140625	n/a	WORD	9476357	wordpools/wasnorm_wordpool_576.txt	LTP385	ltpFR2	19	19	MAILBOX	857	n/a	n/a	0	0	0
4629.95947265625	n/a	WORD	9482157	wordpools/wasnorm_wordpool_576.txt	LTP385	ltpFR2	19	19	HAND	683	n/a	n/a	0	0	0
4632.4921875	n/a	WORD	9487344	wordpools/wasnorm_wordpool_576.txt	LTP385	ltpFR2	19	19	SPONGE	1355	n/a	n/a	0	0	0
4635.208984375	n/a	WORD	9492908	wordpools/wasnorm_wordpool_576.txt	LTP385	ltpFR2	19	19	STOMACH	1384	n/a	n/a	0	0	0
4637.94189453125	n/a	WORD	9498505	wordpools/wasnorm_wordpool_576.txt	LTP385	ltpFR2	19	19	SWIMMER	1420	n/a	n/a	0	0	0
4640.55908203125	n/a	WORD	9503865	wordpools/wasnorm_wordpool_576.txt	LTP385	ltpFR2	19	19	CORAL	378	n/a	n/a	0	0	0
4643.10986328125	n/a	WORD	9509089	wordpools/wasnorm_wordpool_576.txt	LTP385	ltpFR2	19	19	CAMEL	223	n/a	n/a	0	0	0
4645.875	n/a	WORD	9514752	wordpools/wasnorm_wordpool_576.txt	LTP385	ltpFR2	19	19	JURY	766	n/a	n/a	0	0	0
4648.3916015625	n/a	WORD	9519906	wordpools/wasnorm_wordpool_576.txt	LTP385	ltpFR2	19	19	SUSPECT	1415	n/a	n/a	0	0	0
4651.0087890625	n/a	WORD	9525266	wordpools/wasnorm_wordpool_576.txt	LTP385	ltpFR2	19	19	GIFT	635	n/a	n/a	0	0	0
4653.6083984375	n/a	WORD	9530590	wordpools/wasnorm_wordpool_576.txt	LTP385	ltpFR2	19	19	CANDY	230	n/a	n/a	0	0	0
4656.29150390625	n/a	WORD	9536085	wordpools/wasnorm_wordpool_576.txt	LTP385	ltpFR2	19	19	LIGHTNING	820	n/a	n/a	0	0	0
4658.94140625	n/a	WORD	9541512	wordpools/wasnorm_wordpool_576.txt	LTP385	ltpFR2	19	19	HATCHET	691	n/a	n/a	0	0	0
4661.7412109375	n/a	WORD	9547246	wordpools/wasnorm_wordpool_576.txt	LTP385	ltpFR2	19	19	LABEL	790	n/a	n/a	0	0	0
4664.57421875	n/a	WORD	9553048	wordpools/wasnorm_wordpool_576.txt	LTP385	ltpFR2	19	19	BEAST	108	n/a	n/a	0	0	0
4667.02392578125	n/a	WORD	9558065	wordpools/wasnorm_wordpool_576.txt	LTP385	ltpFR2	19	19	FINGER	567	n/a	n/a	0	0	0
4669.5908203125	n/a	WORD	9563322	wordpools/wasnorm_wordpool_576.txt	LTP385	ltpFR2	19	19	INMATE	738	n/a	n/a	0	0	0
4672.3408203125	n/a	WORD	9568954	wordpools/wasnorm_wordpool_576.txt	LTP385	ltpFR2	19	19	CAPTIVE	240	n/a	n/a	0	0	0
4674.93994140625	n/a	WORD	9574277	wordpools/wasnorm_wordpool_576.txt	LTP385	ltpFR2	19	19	PERMIT	1051	n/a	n/a	0	0	0
4677.7236328125	n/a	WORD	9579978	wordpools/wasnorm_wordpool_576.txt	LTP385	ltpFR2	19	19	PACKAGE	997	n/a	n/a	0	0	0
4680.37353515625	n/a	WORD	9585405	wordpools/wasnorm_wordpool_576.txt	LTP385	ltpFR2	19	19	PEPPER	1047	n/a	n/a	0	0	0
4683.189453125	n/a	WORD	9591172	wordpools/wasnorm_wordpool_576.txt	LTP385	ltpFR2	19	19	SLIDE	1326	n/a	n/a	0	0	0
4684.806640625	n/a	START	9594484	n/a	LTP385	ltpFR2	19	n/a	n/a	n/a	30	n/a	n/a	n/a	n/a
4685.62646484375	n/a	DISTRACTOR	9596163	n/a	LTP385	ltpFR2	19	19	n/a	n/a	n/a	n/a	0	0	0
4685.6396484375	n/a	PROB	9596190	n/a	LTP385	ltpFR2	19	n/a	n/a	n/a	30	19	8	9	2
4688.439453125	n/a	PROB	9601924	n/a	LTP385	ltpFR2	19	n/a	n/a	n/a	30	15	6	6	3
4693.12451171875	n/a	PROB	9611519	n/a	LTP385	ltpFR2	19	n/a	n/a	n/a	30	26	9	8	9
