onset	duration	trial_type	sample	stim_file	subject	experiment	session	trial	task	item_name	item_num	recog_conf	resp	color_b	color_g	color_r	case	font
256.36	n/a	SESS_START	128180	n/a	LTP122	ltpFR	1	n/a	n/a	n/a	n/a	3	n/a	n/a	n/a	n/a	n/a	n/a
343.574	n/a	WORD	171787	wordpools/wasnorm_wordpool.txt	LTP122	ltpFR	1	1	0	WEB	1598	n/a	0	1	0.412841796875	0.57763671875	lower	../fonts/zerothre.ttf
347.716	n/a	WORD	173858	wordpools/wasnorm_wordpool.txt	LTP122	ltpFR	1	1	0	CUFF	423	n/a	0	1	0.412841796875	0.57763671875	lower	../fonts/zerothre.ttf
351.588	n/a	WORD	175794	wordpools/wasnorm_wordpool.txt	LTP122	ltpFR	1	1	0	PAD	998	n/a	0	1	0.412841796875	0.57763671875	lower	../fonts/zerothre.ttf
355.438	n/a	WORD	177719	wordpools/wasnorm_wordpool.txt	LTP122	ltpFR	1	1	0	CONTRACT	368	n/a	0	1	0.412841796875	0.57763671875	lower	../fonts/zerothre.ttf
359.278	n/a	WORD	179639	wordpools/wasnorm_wordpool.txt	LTP122	ltpFR	1	1	0	PEBBLE	1035	n/a	0	1	0.412841796875	0.57763671875	lower	../fonts/zerothre.ttf
363.452	n/a	WORD	181726	wordpools/wasnorm_wordpool.txt	LTP122	ltpFR	1	1	1	COUSIN	392	n/a	1	0	0.5869140625	0.422607421875	upper	../fonts/amplitud.ttf
367.526	n/a	WORD	183763	wordpools/wasnorm_wordpool.txt	LTP122	ltpFR	1	1	1	NIECE	952	n/a	1	0	0.5869140625	0.422607421875	upper	../fonts/amplitud.ttf
371.658	n/a	WORD	185829	wordpools/wasnorm_wordpool.txt	LTP122	ltpFR	1	1	1	SQUIRREL	1362	n/a	1	0	0.5869140625	0.422607421875	upper	../fonts/amplitud.ttf
375.64	n/a	WORD	187820	wordpools/wasnorm_wordpool.txt	LTP122	ltpFR	1	1	1	ACORN	3	n/a	0	0	0.5869140625	0.422607421875	upper	../fonts/amplitud.ttf
379.656	n/a	WORD	189828	wordpools/wasnorm_wordpool.txt	LTP122	ltpFR	1	1	0	COOKIE	374	n/a	0	1	0.412841796875	0.57763671875	lower	../fonts/zerothre.ttf
383.612	n/a	WORD	191806	wordpools/wasnorm_wordpool.txt	LTP122	ltpFR	1	1	0	PLUMBER	1091	n/a	1	1	0.412841796875	0.57763671875	lower	../fonts/zerothre.ttf
387.478	n/a	WORD	193739	wordpools/wasnorm_wordpool.txt	LTP122	ltpFR	1	1	0	MILK	895	n/a	0	1	0.412841796875	0.57763671875	lower	../fonts/zerothre.ttf
391.686	n/a	WORD	195843	wordpools/wasnorm_wordpool.txt	LTP122	ltpFR	1	1	1	PICKLE	1059	n/a	0	0	0.5869140625	0.422607421875	upper	../fonts/amplitud.ttf
395.726	n/a	WORD	197863	wordpools/wasnorm_wordpool.txt	LTP122	ltpFR	1	1	1	MANAGER	863	n/a	1	0	0.5869140625	0.422607421875	upper	../fonts/amplitud.ttf
399.616	n/a	WORD	199808	wordpools/wasnorm_wordpool.txt	LTP122	ltpFR	1	1	1	BATHROOM	99	n/a	0	0	0.5869140625	0.422607421875	upper	../fonts/amplitud.ttf
403.456	n/a	WORD	201728	wordpools/wasnorm_wordpool.txt	LTP122	ltpFR	1	1	1	BULL	193	n/a	1	0	0.5869140625	0.422607421875	upper	../fonts/amplitud.ttf
409.188	n/a	REC_START	204594	n/a	LTP122	ltpFR	1	1	n/a	n/a	n/a	n/a	n/a	n/a	n/a	n/a	n/a	n/a
410.616	n/a	REC_WORD	205308	wordpools/wasnorm_wordpool.txt	LTP122	ltpFR	1	1	1	COUSIN	392	n/a	1	n/a	n/a	n/a	n/a	n/a
411.308	n/a	REC_WORD	205654	wordpools/wasnorm_wordpool.txt	LTP122	ltpFR	1	1	1	NIECE	952	n/a	1	n/a	n/a	n/a	n/a	n/a
412.194	n/a	REC_WORD	206097	wordpools/wasnorm_wordpool.txt	LTP122	ltpFR	1	1	0	PLUMBER	1091	n/a	1	n/a	n/a	n/a	n/a	n/a
413.234	n/a	REC_WORD	206617	wordpools/wasnorm_wordpool.txt	LTP122	ltpFR	1	1	0	WEB	1598	n/a	0	n/a	n/a	n/a	n/a	n/a
414.142	n/a	REC_WORD	207071	wordpools/wasnorm_wordpool.txt	LTP122	ltpFR	1	1	0	CUFF	423	n/a	0	n/a	n/a	n/a	n/a	n/a
415.114	n/a	REC_WORD	207557	wordpools/wasnorm_wordpool.txt	LTP122	ltpFR	1	1	1	SQUIRREL	1362	n/a	1	n/a	n/a	n/a	n/a	n/a
420.958	n/a	REC_WORD	210479	wordpools/wasnorm_wordpool.txt	LTP122	ltpFR	1	1	0	MILK	895	n/a	0	n/a	n/a	n/a	n/a	n/a
423.662	n/a	REC_WORD	211831	wordpools/wasnorm_wordpool.txt	LTP122	ltpFR	1	1	0	PEBBLE	1035	n/a	0	n/a	n/a	n/a	n/a	n/a
425.558	n/a	REC_WORD	212779	wordpools/wasnorm_wordpool.txt	LTP122	ltpFR	1	1	0	COOKIE	374	n/a	0	n/a	n/a	n/a	n/a	n/a
431.414	n/a	REC_WORD	215707	wordpools/wasnorm_wordpool.txt	LTP122	ltpFR	1	1	1	BULL	193	n/a	1	n/a	n/a	n/a	n/a	n/a
433.16	n/a	REC_WORD	216580	wordpools/wasnorm_wordpool.txt	LTP122	ltpFR	1	1	1	ACORN	3	n/a	0	n/a	n/a	n/a	n/a	n/a
434.686	n/a	REC_WORD	217343	wordpools/wasnorm_wordpool.txt	LTP122	ltpFR	1	1	1	PICKLE	1059	n/a	0	n/a	n/a	n/a	n/a	n/a
448.5	n/a	REC_WORD	224250	wordpools/wasnorm_wordpool.txt	LTP122	ltpFR	1	1	0	CONTRACT	368	n/a	0	n/a	n/a	n/a	n/a	n/a
498.494	n/a	WORD	249247	wordpools/wasnorm_wordpool.txt	LTP122	ltpFR	1	2	1	BLUEPRINT	142	n/a	0	0	0.5869140625	0.422607421875	upper	../fonts/amplitud.ttf
502.66	n/a	WORD	251330	wordpools/wasnorm_wordpool.txt	LTP122	ltpFR	1	2	1	LUNG	850	n/a	0	0	0.5869140625	0.422607421875	upper	../fonts/amplitud.ttf
506.834	n/a	WORD	253417	wordpools/wasnorm_wordpool.txt	LTP122	ltpFR	1	2	1	FRECKLE	602	n/a	0	0	0.5869140625	0.422607421875	upper	../fonts/amplitud.ttf
511.024	n/a	WORD	255512	wordpools/wasnorm_wordpool.txt	LTP122	ltpFR	1	2	0	BEET	115	n/a	0	1	0.412841796875	0.57763671875	lower	../fonts/zerothre.ttf
515.006	n/a	WORD	257503	wordpools/wasnorm_wordpool.txt	LTP122	ltpFR	1	2	0	DONOR	485	n/a	1	1	0.412841796875	0.57763671875	lower	../fonts/zerothre.ttf
519.064	n/a	WORD	259532	wordpools/wasnorm_wordpool.txt	LTP122	ltpFR	1	2	0	BOSS	152	n/a	1	1	0.412841796875	0.57763671875	lower	../fonts/zerothre.ttf
522.972	n/a	WORD	261486	wordpools/wasnorm_wordpool.txt	LTP122	ltpFR	1	2	1	SUPERVISOR	1410	n/a	1	0	0.5869140625	0.422607421875	upper	../fonts/amplitud.ttf
527.152	n/a	WORD	263576	wordpools/wasnorm_wordpool.txt	LTP122	ltpFR	1	2	1	BOYFRIEND	162	n/a	1	0	0.5869140625	0.422607421875	upper	../fonts/amplitud.ttf
531.176	n/a	WORD	265588	wordpools/wasnorm_wordpool.txt	LTP122	ltpFR	1	2	0	JUPITER	765	n/a	1	1	0.412841796875	0.57763671875	lower	../fonts/zerothre.ttf
535.226	n/a	WORD	267613	wordpools/wasnorm_wordpool.txt	LTP122	ltpFR	1	2	0	DETECTIVE	454	n/a	1	1	0.412841796875	0.57763671875	lower	../fonts/zerothre.ttf
539.258	n/a	WORD	269629	wordpools/wasnorm_wordpool.txt	LTP122	ltpFR	1	2	0	ROOMMATE	1207	n/a	1	1	0.412841796875	0.57763671875	lower	../fonts/zerothre.ttf
543.072	n/a	WORD	271536	wordpools/wasnorm_wordpool.txt	LTP122	ltpFR	1	2	0	NEST	945	n/a	0	1	0.412841796875	0.57763671875	lower	../fonts/zerothre.ttf
546.998	n/a	WORD	273499	wordpools/wasnorm_wordpool.txt	LTP122	ltpFR	1	2	0	SWAN	1417	n/a	1	1	0.412841796875	0.57763671875	lower	../fonts/zerothre.ttf
550.996	n/a	WORD	275498	wordpools/wasnorm_wordpool.txt	LTP122	ltpFR	1	2	1	LAMB	797	n/a	1	0	0.5869140625	0.422607421875	upper	../fonts/amplitud.ttf
554.938	n/a	WORD	277469	wordpools/wasnorm_wordpool.txt	LTP122	ltpFR	1	2	1	UTENSIL	1542	n/a	0	0	0.5869140625	0.422607421875	upper	../fonts/amplitud.ttf
558.786	n/a	WORD	279393	wordpools/wasnorm_wordpool.txt	LTP122	ltpFR	1	2	1	MARS	873	n/a	1	0	0.5869140625	0.422607421875	upper	../fonts/amplitud.ttf
564.434	n/a	REC_START	282217	n/a	LTP122	ltpFR	1	2	n/a	n/a	n/a	n/a	n/a	n/a	n/a	n/a	n/a	n/a
565.816	n/a	REC_WORD	282908	wordpools/wasnorm_wordpool.txt	LTP122	ltpFR	1	2	0	JUPITER	765	n/a	1	n/a	n/a	n/a	n/a	n/a
566.534	n/a	REC_WORD	283267	wordpools/wasnorm_wordpool.txt	LTP122	ltpFR	1	2	1	MARS	873	n/a	1	n/a	n/a	n/a	n/a	n/a
567.366	n/a	REC_WORD	283683	wordpools/wasnorm_wordpool.txt	LTP122	ltpFR	1	2	1	LAMB	797	n/a	1	n/a	n/a	n/a	n/a	n/a
567.95	n/a	REC_WORD	283975	wordpools/wasnorm_wordpool.txt	LTP122	ltpFR	1	2	1	UTENSIL	1542	n/a	0	n/a	n/a	n/a	n/a	n/a
569.288	n/a	REC_WORD	284644	wordpools/wasnorm_wordpool.txt	LTP122	ltpFR	1	2	1	BOYFRIEND	162	n/a	1	n/a	n/a	n/a	n/a	n/a
570.156	n/a	REC_WORD	285078	wordpools/wasnorm_wordpool.txt	LTP122	ltpFR	1	2	1	BLUEPRINT	142	n/a	0	n/a	n/a	n/a	n/a	n/a
571.222	n/a	REC_WORD	285611	wordpools/wasnorm_wordpool.txt	LTP122	ltpFR	1	2	0	DONOR	485	n/a	1	n/a	n/a	n/a	n/a	n/a
573.278	n/a	REC_WORD	286639	wordpools/wasnorm_wordpool.txt	LTP122	ltpFR	1	2	1	SUPERVISOR	1410	n/a	1	n/a	n/a	n/a	n/a	n/a
574.486	n/a	REC_WORD	287243	wordpools/wasnorm_wordpool.txt	LTP122	ltpFR	1	2	0	BOSS	152	n/a	1	n/a	n/a	n/a	n/a	n/a
668.786	n/a	WORD	334393	wordpools/wasnorm_wordpool.txt	LTP122	ltpFR	1	3	1	ANIMAL	23	n/a	1	0	0.5869140625	0.422607421875	upper	../fonts/amplitud.ttf
672.676	n/a	WORD	336338	wordpools/wasnorm_wordpool.txt	LTP122	ltpFR	1	3	1	CRAB	397	n/a	1	0	0.5869140625	0.422607421875	upper	../fonts/amplitud.ttf
676.608	n/a	WORD	338304	wordpools/wasnorm_wordpool.txt	LTP122	ltpFR	1	3	1	TOILET	1475	n/a	0	0	0.5869140625	0.422607421875	upper	../fonts/amplitud.ttf
680.69	n/a	WORD	340345	wordpools/wasnorm_wordpool.txt	LTP122	ltpFR	1	3	1	AUNT	60	n/a	1	0	0.5869140625	0.422607421875	upper	../fonts/amplitud.ttf
684.822	n/a	WORD	342411	wordpools/wasnorm_wordpool.txt	LTP122	ltpFR	1	3	1	WAVE	1596	n/a	0	0	0.5869140625	0.422607421875	upper	../fonts/amplitud.ttf
688.78	n/a	WORD	344390	wordpools/wasnorm_wordpool.txt	LTP122	ltpFR	1	3	1	FAUCET	555	n/a	0	0	0.5869140625	0.422607421875	upper	../fonts/amplitud.ttf
692.62	n/a	WORD	346310	wordpools/wasnorm_wordpool.txt	LTP122	ltpFR	1	3	1	GARAGE	621	n/a	0	0	0.5869140625	0.422607421875	upper	../fonts/amplitud.ttf
696.794	n/a	WORD	348397	wordpools/wasnorm_wordpool.txt	LTP122	ltpFR	1	3	1	DRAGON	492	n/a	1	0	0.5869140625	0.422607421875	upper	../fonts/amplitud.ttf
700.692	n/a	WORD	350346	wordpools/wasnorm_wordpool.txt	LTP122	ltpFR	1	3	1	TEAM	1441	n/a	0	0	0.5869140625	0.422607421875	upper	../fonts/amplitud.ttf
704.824	n/a	WORD	352412	wordpools/wasnorm_wordpool.txt	LTP122	ltpFR	1	3	1	VIOLIN	1571	n/a	0	0	0.5869140625	0.422607421875	upper	../fonts/amplitud.ttf
708.64	n/a	WORD	354320	wordpools/wasnorm_wordpool.txt	LTP122	ltpFR	1	3	1	HARP	689	n/a	0	0	0.5869140625	0.422607421875	upper	../fonts/amplitud.ttf
712.554	n/a	WORD	356277	wordpools/wasnorm_wordpool.txt	LTP122	ltpFR	1	3	1	POLICE	1098	n/a	1	0	0.5869140625	0.422607421875	upper	../fonts/amplitud.ttf
716.412	n/a	WORD	358206	wordpools/wasnorm_wordpool.txt	LTP122	ltpFR	1	3	1	CHECKERS	285	n/a	0	0	0.5869140625	0.422607421875	upper	../fonts/amplitud.ttf
720.552	n/a	WORD	360276	wordpools/wasnorm_wordpool.txt	LTP122	ltpFR	1	3	1	VAN	1548	n/a	0	0	0.5869140625	0.422607421875	upper	../fonts/amplitud.ttf
724.4	n/a	WORD	362200	wordpools/wasnorm_wordpool.txt	LTP122	ltpFR	1	3	1	PROTON	1132	n/a	0	0	0.5869140625	0.422607421875	upper	../fonts/amplitud.ttf
728.45	n/a	WORD	364225	wordpools/wasnorm_wordpool.txt	LTP122	ltpFR	1	3	1	ASH	44	n/a	0	0	0.5869140625	0.422607421875	upper	../fonts/amplitud.ttf
734.258	n/a	REC_START	367129	n/a	LTP122	ltpFR	1	3	n/a	n/a	n/a	n/a	n/a	n/a	n/a	n/a	n/a	n/a
735.2	n/a	REC_WORD	367600	wordpools/wasnorm_wordpool.txt	LTP122	ltpFR	1	3	1	ASH	44	n/a	0	n/a	n/a	n/a	n/a	n/a
735.968	n/a	REC_WORD	367984	wordpools/wasnorm_wordpool.txt	LTP122	ltpFR	1	3	1	PROTON	1132	n/a	0	n/a	n/a	n/a	n/a	n/a
739.136	n/a	REC_WORD	369568	wordpools/wasnorm_wordpool.txt	LTP122	ltpFR	1	3	1	WAVE	1596	n/a	0	n/a	n/a	n/a	n/a	n/a
740.054	n/a	REC_WORD	370027	wordpools/wasnorm_wordpool.txt	LTP122	ltpFR	1	3	1	ANIMAL	23	n/a	1	n/a	n/a	n/a	n/a	n/a
773.57	n/a	REC_WORD	386785	wordpools/wasnorm_wordpool.txt	LTP122	ltpFR	1	3	1	VIOLIN	1571	n/a	0	n/a	n/a	n/a	n/a	n/a
775.51	n/a	REC_WORD	387755	wordpools/wasnorm_wordpool.txt	LTP122	ltpFR	1	3	1	HARP	689	n/a	0	n/a	n/a	n/a	n/a	n/a
795.516	n/a	REC_WORD	397758	wordpools/wasnorm_wordpool.txt	LTP122	ltpFR	1	3	1	DRAGON	492	n/a	1	n/a	n/a	n/a	n/a	n/a
836.142	n/a	WORD	418071	wordpools/wasnorm_wordpool.txt	LTP122	ltpFR	1	4	-1	CARDINAL	244	n/a	-1	1	1.0	1.0	upper	../fonts/Verdana.ttf
840.008	n/a	WORD	420004	wordpools/wasnorm_wordpool.txt	LTP122	ltpFR	1	4	-1	FILM	565	n/a	-1	1	1.0	1.0	upper	../fonts/Verdana.ttf
843.984	n/a	WORD	421992	wordpools/wasnorm_wordpool.txt	LTP122	ltpFR	1	4	-1	BOWL	158	n/a	-1	1	1.0	1.0	upper	../fonts/Verdana.ttf
847.848	n/a	WORD	423924	wordpools/wasnorm_wordpool.txt	LTP122	ltpFR	1	4	-1	CROW	414	n/a	-1	1	1.0	1.0	upper	../fonts/Verdana.ttf
851.68	n/a	WORD	425840	wordpools/wasnorm_wordpool.txt	LTP122	ltpFR	1	4	-1	DIAGRAM	456	n/a	-1	1	1.0	1.0	upper	../fonts/Verdana.ttf
855.704	n/a	WORD	427852	wordpools/wasnorm_wordpool.txt	LTP122	ltpFR	1	4	-1	ROD	1203	n/a	-1	1	1.0	1.0	upper	../fonts/Verdana.ttf
859.71	n/a	WORD	429855	wordpools/wasnorm_wordpool.txt	LTP122	ltpFR	1	4	-1	SAND	1230	n/a	-1	1	1.0	1.0	upper	../fonts/Verdana.ttf
863.66	n/a	WORD	431830	wordpools/wasnorm_wordpool.txt	LTP122	ltpFR	1	4	-1	LOVER	846	n/a	-1	1	1.0	1.0	upper	../fonts/Verdana.ttf
867.742	n/a	WORD	433871	wordpools/wasnorm_wordpool.txt	LTP122	ltpFR	1	4	-1	WALRUS	1585	n/a	-1	1	1.0	1.0	upper	../fonts/Verdana.ttf
871.9	n/a	WORD	435950	wordpools/wasnorm_wordpool.txt	LTP122	ltpFR	1	4	-1	SHEARS	1276	n/a	-1	1	1.0	1.0	upper	../fonts/Verdana.ttf
875.764	n/a	WORD	437882	wordpools/wasnorm_wordpool.txt	LTP122	ltpFR	1	4	-1	GAUZE	626	n/a	-1	1	1.0	1.0	upper	../fonts/Verdana.ttf
879.588	n/a	WORD	439794	wordpools/wasnorm_wordpool.txt	LTP122	ltpFR	1	4	-1	CARRIAGE	248	n/a	-1	1	1.0	1.0	upper	../fonts/Verdana.ttf
883.404	n/a	WORD	441702	wordpools/wasnorm_wordpool.txt	LTP122	ltpFR	1	4	-1	CRADLE	399	n/a	-1	1	1.0	1.0	upper	../fonts/Verdana.ttf
887.536	n/a	WORD	443768	wordpools/wasnorm_wordpool.txt	LTP122	ltpFR	1	4	-1	GRAVEL	659	n/a	-1	1	1.0	1.0	upper	../fonts/Verdana.ttf
891.426	n/a	WORD	445713	wordpools/wasnorm_wordpool.txt	LTP122	ltpFR	1	4	-1	CABOOSE	214	n/a	-1	1	1.0	1.0	upper	../fonts/Verdana.ttf
895.44	n/a	WORD	447720	wordpools/wasnorm_wordpool.txt	LTP122	ltpFR	1	4	-1	TERMINAL	1450	n/a	-1	1	1.0	1.0	upper	../fonts/Verdana.ttf
901.182	n/a	REC_START	450591	n/a	LTP122	ltpFR	1	4	n/a	n/a	n/a	n/a	n/a	n/a	n/a	n/a	n/a	n/a
902.074	n/a	REC_WORD	451037	wordpools/wasnorm_wordpool.txt	LTP122	ltpFR	1	4	-1	TERMINAL	1450	n/a	-1	n/a	n/a	n/a	n/a	n/a
903.028	n/a	REC_WORD	451514	wordpools/wasnorm_wordpool.txt	LTP122	ltpFR	1	4	-1	CARRIAGE	248	n/a	-1	n/a	n/a	n/a	n/a	n/a
904.604	n/a	REC_WORD	452302	wordpools/wasnorm_wordpool.txt	LTP122	ltpFR	1	4	-1	LOVER	846	n/a	-1	n/a	n/a	n/a	n/a	n/a
906.334	n/a	REC_WORD	453167	wordpools/wasnorm_wordpool.txt	LTP122	ltpFR	1	4	-1	CROW	414	n/a	-1	n/a	n/a	n/a	n/a	n/a
916.546	n/a	REC_WORD	458273	wordpools/wasnorm_wordpool.txt	LTP122	ltpFR	1	4	-1	CARDINAL	244	n/a	-1	n/a	n/a	n/a	n/a	n/a
922.888	n/a	REC_WORD	461444	wordpools/wasnorm_wordpool.txt	LTP122	ltpFR	1	4	-1	WALRUS	1585	n/a	-1	n/a	n/a	n/a	n/a	n/a
945.462	n/a	REC_WORD	472731	wordpools/wasnorm_wordpool.txt	LTP122	ltpFR	1	4	-1	GRAVEL	659	n/a	-1	n/a	n/a	n/a	n/a	n/a
953.56	n/a	REC_WORD	476780	wordpools/wasnorm_wordpool.txt	LTP122	ltpFR	1	4	-1	SHEARS	1276	n/a	-1	n/a	n/a	n/a	n/a	n/a
967.828	n/a	REC_WORD	483914	wordpools/wasnorm_wordpool.txt	LTP122	ltpFR	1	4	-1	BOWL	158	n/a	-1	n/a	n/a	n/a	n/a	n/a
996.428	n/a	WORD	498214	wordpools/wasnorm_wordpool.txt	LTP122	ltpFR	1	5	1	WATER	1594	n/a	0	0	0.5869140625	0.422607421875	upper	../fonts/amplitud.ttf
1000.518	n/a	WORD	500259	wordpools/wasnorm_wordpool.txt	LTP122	ltpFR	1	5	1	STRAW	1390	n/a	0	0	0.5869140625	0.422607421875	upper	../fonts/amplitud.ttf
1004.358	n/a	WORD	502179	wordpools/wasnorm_wordpool.txt	LTP122	ltpFR	1	5	1	HUSBAND	728	n/a	1	0	0.5869140625	0.422607421875	upper	../fonts/amplitud.ttf
1008.466	n/a	WORD	504233	wordpools/wasnorm_wordpool.txt	LTP122	ltpFR	1	5	1	WHEEL	1603	n/a	0	0	0.5869140625	0.422607421875	upper	../fonts/amplitud.ttf
1012.38	n/a	WORD	506190	wordpools/wasnorm_wordpool.txt	LTP122	ltpFR	1	5	1	OYSTER	995	n/a	1	0	0.5869140625	0.422607421875	upper	../fonts/amplitud.ttf
1016.346	n/a	WORD	508173	wordpools/wasnorm_wordpool.txt	LTP122	ltpFR	1	5	1	SCALLOP	1242	n/a	1	0	0.5869140625	0.422607421875	upper	../fonts/amplitud.ttf
1020.27	n/a	WORD	510135	wordpools/wasnorm_wordpool.txt	LTP122	ltpFR	1	5	1	THUMB	1462	n/a	0	0	0.5869140625	0.422607421875	upper	../fonts/amplitud.ttf
1024.368	n/a	WORD	512184	wordpools/wasnorm_wordpool.txt	LTP122	ltpFR	1	5	1	WEED	1599	n/a	0	0	0.5869140625	0.422607421875	upper	../fonts/amplitud.ttf
1028.218	n/a	WORD	514109	wordpools/wasnorm_wordpool.txt	LTP122	ltpFR	1	5	1	PAN	1008	n/a	0	0	0.5869140625	0.422607421875	upper	../fonts/amplitud.ttf
1032.424	n/a	WORD	516212	wordpools/wasnorm_wordpool.txt	LTP122	ltpFR	1	5	1	OZONE	996	n/a	0	0	0.5869140625	0.422607421875	upper	../fonts/amplitud.ttf
1036.298	n/a	WORD	518149	wordpools/wasnorm_wordpool.txt	LTP122	ltpFR	1	5	1	UNICORN	1538	n/a	1	0	0.5869140625	0.422607421875	upper	../fonts/amplitud.ttf
1040.49	n/a	WORD	520245	wordpools/wasnorm_wordpool.txt	LTP122	ltpFR	1	5	1	DONKEY	484	n/a	1	0	0.5869140625	0.422607421875	upper	../fonts/amplitud.ttf
1044.596	n/a	WORD	522298	wordpools/wasnorm_wordpool.txt	LTP122	ltpFR	1	5	1	VENT	1556	n/a	0	0	0.5869140625	0.422607421875	upper	../fonts/amplitud.ttf
1048.494	n/a	WORD	524247	wordpools/wasnorm_wordpool.txt	LTP122	ltpFR	1	5	1	TRAIN	1494	n/a	0	0	0.5869140625	0.422607421875	upper	../fonts/amplitud.ttf
1052.702	n/a	WORD	526351	wordpools/wasnorm_wordpool.txt	LTP122	ltpFR	1	5	1	POT	1114	n/a	0	0	0.5869140625	0.422607421875	upper	../fonts/amplitud.ttf
1056.542	n/a	WORD	528271	wordpools/wasnorm_wordpool.txt	LTP122	ltpFR	1	5	1	PLANET	1082	n/a	0	0	0.5869140625	0.422607421875	upper	../fonts/amplitud.ttf
1062.25	n/a	REC_START	531125	n/a	LTP122	ltpFR	1	5	n/a	n/a	n/a	n/a	n/a	n/a	n/a	n/a	n/a	n/a
1063.162	n/a	REC_WORD	531581	wordpools/wasnorm_wordpool.txt	LTP122	ltpFR	1	5	1	UNICORN	1538	n/a	1	n/a	n/a	n/a	n/a	n/a
1063.96	n/a	REC_WORD	531980	wordpools/wasnorm_wordpool.txt	LTP122	ltpFR	1	5	1	PLANET	1082	n/a	0	n/a	n/a	n/a	n/a	n/a
1064.838	n/a	REC_WORD	532419	wordpools/wasnorm_wordpool.txt	LTP122	ltpFR	1	5	1	POT	1114	n/a	0	n/a	n/a	n/a	n/a	n/a
1068.1	n/a	REC_WORD	534050	wordpools/wasnorm_wordpool.txt	LTP122	ltpFR	1	5	1	VENT	1556	n/a	0	n/a	n/a	n/a	n/a	n/a
1073.868	n/a	REC_WORD	536934	wordpools/wasnorm_wordpool.txt	LTP122	ltpFR	1	5	1	OYSTER	995	n/a	1	n/a	n/a	n/a	n/a	n/a
1074.554	n/a	REC_WORD	537277	wordpools/wasnorm_wordpool.txt	LTP122	ltpFR	1	5	1	SCALLOP	1242	n/a	1	n/a	n/a	n/a	n/a	n/a
1107.194	n/a	REC_WORD	553597	wordpools/wasnorm_wordpool.txt	LTP122	ltpFR	1	5	1	WATER	1594	n/a	0	n/a	n/a	n/a	n/a	n/a
1107.764	n/a	REC_WORD	553882	wordpools/wasnorm_wordpool.txt	LTP122	ltpFR	1	5	1	THUMB	1462	n/a	0	n/a	n/a	n/a	n/a	n/a
1166.068	n/a	WORD	583034	wordpools/wasnorm_wordpool.txt	LTP122	ltpFR	1	6	0	FOX	598	n/a	1	1	0.412841796875	0.57763671875	lower	../fonts/zerothre.ttf
1170.01	n/a	WORD	585005	wordpools/wasnorm_wordpool.txt	LTP122	ltpFR	1	6	0	GERM	632	n/a	0	1	0.412841796875	0.57763671875	lower	../fonts/zerothre.ttf
1174.066	n/a	WORD	587033	wordpools/wasnorm_wordpool.txt	LTP122	ltpFR	1	6	0	SKELETON	1314	n/a	1	1	0.412841796875	0.57763671875	lower	../fonts/zerothre.ttf
1178.198	n/a	WORD	589099	wordpools/wasnorm_wordpool.txt	LTP122	ltpFR	1	6	0	BUGLE	189	n/a	0	1	0.412841796875	0.57763671875	lower	../fonts/zerothre.ttf
1182.096	n/a	WORD	591048	wordpools/wasnorm_wordpool.txt	LTP122	ltpFR	1	6	0	PENNY	1045	n/a	0	1	0.412841796875	0.57763671875	lower	../fonts/zerothre.ttf
1186.27	n/a	WORD	593135	wordpools/wasnorm_wordpool.txt	LTP122	ltpFR	1	6	0	WASP	1593	n/a	0	1	0.412841796875	0.57763671875	lower	../fonts/zerothre.ttf
1190.278	n/a	WORD	595139	wordpools/wasnorm_wordpool.txt	LTP122	ltpFR	1	6	0	HORNET	718	n/a	0	1	0.412841796875	0.57763671875	lower	../fonts/zerothre.ttf
1194.118	n/a	WORD	597059	wordpools/wasnorm_wordpool.txt	LTP122	ltpFR	1	6	0	TRANSPLANT	1496	n/a	1	1	0.412841796875	0.57763671875	lower	../fonts/zerothre.ttf
1198.084	n/a	WORD	599042	wordpools/wasnorm_wordpool.txt	LTP122	ltpFR	1	6	0	CONSUMER	365	n/a	1	1	0.412841796875	0.57763671875	lower	../fonts/zerothre.ttf
1202.174	n/a	WORD	601087	wordpools/wasnorm_wordpool.txt	LTP122	ltpFR	1	6	0	BONE	148	n/a	0	1	0.412841796875	0.57763671875	lower	../fonts/zerothre.ttf
1206.104	n/a	WORD	603052	wordpools/wasnorm_wordpool.txt	LTP122	ltpFR	1	6	0	STAKE	1368	n/a	1	1	0.412841796875	0.57763671875	lower	../fonts/zerothre.ttf
1210.104	n/a	WORD	605052	wordpools/wasnorm_wordpool.txt	LTP122	ltpFR	1	6	0	BATH	98	n/a	1	1	0.412841796875	0.57763671875	lower	../fonts/zerothre.ttf
1214.096	n/a	WORD	607048	wordpools/wasnorm_wordpool.txt	LTP122	ltpFR	1	6	0	TIDE	1465	n/a	1	1	0.412841796875	0.57763671875	lower	../fonts/zerothre.ttf
1218.252	n/a	WORD	609126	wordpools/wasnorm_wordpool.txt	LTP122	ltpFR	1	6	0	ZOO	1637	n/a	1	1	0.412841796875	0.57763671875	lower	../fonts/zerothre.ttf
1222.276	n/a	WORD	611138	wordpools/wasnorm_wordpool.txt	LTP122	ltpFR	1	6	0	STREAM	1392	n/a	1	1	0.412841796875	0.57763671875	lower	../fonts/zerothre.ttf
1226.158	n/a	WORD	613079	wordpools/wasnorm_wordpool.txt	LTP122	ltpFR	1	6	0	BOAT	144	n/a	1	1	0.412841796875	0.57763671875	lower	../fonts/zerothre.ttf
1231.85	n/a	REC_START	615925	n/a	LTP122	ltpFR	1	6	n/a	n/a	n/a	n/a	n/a	n/a	n/a	n/a	n/a	n/a
1232.762	n/a	REC_WORD	616381	wordpools/wasnorm_wordpool.txt	LTP122	ltpFR	1	6	0	STREAM	1392	n/a	1	n/a	n/a	n/a	n/a	n/a
1234.268	n/a	REC_WORD	617134	wordpools/wasnorm_wordpool.txt	LTP122	ltpFR	1	6	0	BOAT	144	n/a	1	n/a	n/a	n/a	n/a	n/a
1236.408	n/a	REC_WORD	618204	wordpools/wasnorm_wordpool.txt	LTP122	ltpFR	1	6	0	PENNY	1045	n/a	0	n/a	n/a	n/a	n/a	n/a
1237.422	n/a	REC_WORD	618711	wordpools/wasnorm_wordpool.txt	LTP122	ltpFR	1	6	0	WASP	1593	n/a	0	n/a	n/a	n/a	n/a	n/a
1238.38	n/a	REC_WORD	619190	wordpools/wasnorm_wordpool.txt	LTP122	ltpFR	1	6	0	HORNET	718	n/a	0	n/a	n/a	n/a	n/a	n/a
1242.75	n/a	REC_WORD	621375	wordpools/wasnorm_wordpool.txt	LTP122	ltpFR	1	6	0	BATH	98	n/a	1	n/a	n/a	n/a	n/a	n/a
1291.636	n/a	REC_WORD	645818	wordpools/wasnorm_wordpool.txt	LTP122	ltpFR	1	6	0	BONE	148	n/a	0	n/a	n/a	n/a	n/a	n/a
1292.3	n/a	REC_WORD	646150	wordpools/wasnorm_wordpool.txt	LTP122	ltpFR	1	6	0	TRANSPLANT	1496	n/a	1	n/a	n/a	n/a	n/a	n/a
1351.536	n/a	WORD	675768	wordpools/wasnorm_wordpool.txt	LTP122	ltpFR	1	7	0	THIGH	1457	n/a	1	1	0.412841796875	0.57763671875	lower	../fonts/zerothre.ttf
1355.436	n/a	WORD	677718	wordpools/wasnorm_wordpool.txt	LTP122	ltpFR	1	7	0	WAIST	1579	n/a	1	1	0.412841796875	0.57763671875	lower	../fonts/zerothre.ttf
1359.35	n/a	WORD	679675	wordpools/wasnorm_wordpool.txt	LTP122	ltpFR	1	7	0	CARROT	249	n/a	0	1	0.412841796875	0.57763671875	lower	../fonts/zerothre.ttf
1363.492	n/a	WORD	681746	wordpools/wasnorm_wordpool.txt	LTP122	ltpFR	1	7	0	BUNNY	198	n/a	0	1	0.412841796875	0.57763671875	lower	../fonts/zerothre.ttf
1367.656	n/a	WORD	683828	wordpools/wasnorm_wordpool.txt	LTP122	ltpFR	1	7	1	MINER	896	n/a	1	0	0.5869140625	0.422607421875	upper	../fonts/amplitud.ttf
1371.488	n/a	WORD	685744	wordpools/wasnorm_wordpool.txt	LTP122	ltpFR	1	7	1	BEETLE	116	n/a	1	0	0.5869140625	0.422607421875	upper	../fonts/amplitud.ttf
1375.538	n/a	WORD	687769	wordpools/wasnorm_wordpool.txt	LTP122	ltpFR	1	7	1	BOUILLON	154	n/a	0	0	0.5869140625	0.422607421875	upper	../fonts/amplitud.ttf
1379.73	n/a	WORD	689865	wordpools/wasnorm_wordpool.txt	LTP122	ltpFR	1	7	0	PUBLICATION	1136	n/a	0	1	0.412841796875	0.57763671875	lower	../fonts/zerothre.ttf
1383.928	n/a	WORD	691964	wordpools/wasnorm_wordpool.txt	LTP122	ltpFR	1	7	0	DRILL	497	n/a	0	1	0.412841796875	0.57763671875	lower	../fonts/zerothre.ttf
1387.968	n/a	WORD	693984	wordpools/wasnorm_wordpool.txt	LTP122	ltpFR	1	7	0	CHICKEN	297	n/a	1	1	0.412841796875	0.57763671875	lower	../fonts/zerothre.ttf
1391.866	n/a	WORD	695933	wordpools/wasnorm_wordpool.txt	LTP122	ltpFR	1	7	0	BLACKBOARD	133	n/a	1	1	0.412841796875	0.57763671875	lower	../fonts/zerothre.ttf
1396.056	n/a	WORD	698028	wordpools/wasnorm_wordpool.txt	LTP122	ltpFR	1	7	1	STAGE	1366	n/a	0	0	0.5869140625	0.422607421875	upper	../fonts/amplitud.ttf
1400.164	n/a	WORD	700082	wordpools/wasnorm_wordpool.txt	LTP122	ltpFR	1	7	1	PLASTER	1085	n/a	0	0	0.5869140625	0.422607421875	upper	../fonts/amplitud.ttf
1404.22	n/a	WORD	702110	wordpools/wasnorm_wordpool.txt	LTP122	ltpFR	1	7	1	WASHER	1592	n/a	0	0	0.5869140625	0.422607421875	upper	../fonts/amplitud.ttf
1408.37	n/a	WORD	704185	wordpools/wasnorm_wordpool.txt	LTP122	ltpFR	1	7	1	TOWEL	1489	n/a	0	0	0.5869140625	0.422607421875	upper	../fonts/amplitud.ttf
1412.492	n/a	WORD	706246	wordpools/wasnorm_wordpool.txt	LTP122	ltpFR	1	7	1	MOTH	920	n/a	1	0	0.5869140625	0.422607421875	upper	../fonts/amplitud.ttf
1418.342	n/a	REC_START	709171	n/a	LTP122	ltpFR	1	7	n/a	n/a	n/a	n/a	n/a	n/a	n/a	n/a	n/a	n/a
1419.49	n/a	REC_WORD	709745	wordpools/wasnorm_wordpool.txt	LTP122	ltpFR	1	7	1	MOTH	920	n/a	1	n/a	n/a	n/a	n/a	n/a
1420.198	n/a	REC_WORD	710099	wordpools/wasnorm_wordpool.txt	LTP122	ltpFR	1	7	1	BEETLE	116	n/a	1	n/a	n/a	n/a	n/a	n/a
1420.882	n/a	REC_WORD	710441	wordpools/wasnorm_wordpool.txt	LTP122	ltpFR	1	7	1	PLASTER	1085	n/a	0	n/a	n/a	n/a	n/a	n/a
1421.89	n/a	REC_WORD	710945	wordpools/wasnorm_wordpool.txt	LTP122	ltpFR	1	7	1	WASHER	1592	n/a	0	n/a	n/a	n/a	n/a	n/a
1422.896	n/a	REC_WORD	711448	wordpools/wasnorm_wordpool.txt	LTP122	ltpFR	1	7	0	BLACKBOARD	133	n/a	1	n/a	n/a	n/a	n/a	n/a
1447.004	n/a	REC_WORD	723502	wordpools/wasnorm_wordpool.txt	LTP122	ltpFR	1	7	0	THIGH	1457	n/a	1	n/a	n/a	n/a	n/a	n/a
1447.782	n/a	REC_WORD	723891	wordpools/wasnorm_wordpool.txt	LTP122	ltpFR	1	7	0	WAIST	1579	n/a	1	n/a	n/a	n/a	n/a	n/a
1471.18	n/a	REC_WORD	735590	wordpools/wasnorm_wordpool.txt	LTP122	ltpFR	1	7	1	BOUILLON	154	n/a	0	n/a	n/a	n/a	n/a	n/a
1477.806	n/a	REC_WORD	738903	wordpools/wasnorm_wordpool.txt	LTP122	ltpFR	1	7	n/a	RABBIT	1152	n/a	n/a	n/a	n/a	n/a	n/a	n/a
1556.684	n/a	WORD	778342	wordpools/wasnorm_wordpool.txt	LTP122	ltpFR	1	8	0	BANNER	85	n/a	1	1	0.412841796875	0.57763671875	lower	../fonts/zerothre.ttf
1560.774	n/a	WORD	780387	wordpools/wasnorm_wordpool.txt	LTP122	ltpFR	1	8	0	HERB	704	n/a	0	1	0.412841796875	0.57763671875	lower	../fonts/zerothre.ttf
1564.732	n/a	WORD	782366	wordpools/wasnorm_wordpool.txt	LTP122	ltpFR	1	8	0	BUILDER	190	n/a	1	1	0.412841796875	0.57763671875	lower	../fonts/zerothre.ttf
1568.588	n/a	WORD	784294	wordpools/wasnorm_wordpool.txt	LTP122	ltpFR	1	8	0	TOENAIL	1474	n/a	0	1	0.412841796875	0.57763671875	lower	../fonts/zerothre.ttf
1572.754	n/a	WORD	786377	wordpools/wasnorm_wordpool.txt	LTP122	ltpFR	1	8	0	KNUCKLE	789	n/a	0	1	0.412841796875	0.57763671875	lower	../fonts/zerothre.ttf
1576.594	n/a	WORD	788297	wordpools/wasnorm_wordpool.txt	LTP122	ltpFR	1	8	0	OREGANO	983	n/a	0	1	0.412841796875	0.57763671875	lower	../fonts/zerothre.ttf
1580.442	n/a	WORD	790221	wordpools/wasnorm_wordpool.txt	LTP122	ltpFR	1	8	0	GAZELLE	628	n/a	1	1	0.412841796875	0.57763671875	lower	../fonts/zerothre.ttf
1584.632	n/a	WORD	792316	wordpools/wasnorm_wordpool.txt	LTP122	ltpFR	1	8	0	ELK	526	n/a	1	1	0.412841796875	0.57763671875	lower	../fonts/zerothre.ttf
1588.832	n/a	WORD	794416	wordpools/wasnorm_wordpool.txt	LTP122	ltpFR	1	8	0	CONE	363	n/a	0	1	0.412841796875	0.57763671875	lower	../fonts/zerothre.ttf
1592.698	n/a	WORD	796349	wordpools/wasnorm_wordpool.txt	LTP122	ltpFR	1	8	0	WAND	1586	n/a	0	1	0.412841796875	0.57763671875	lower	../fonts/zerothre.ttf
1596.554	n/a	WORD	798277	wordpools/wasnorm_wordpool.txt	LTP122	ltpFR	1	8	0	CONCRETE	361	n/a	1	1	0.412841796875	0.57763671875	lower	../fonts/zerothre.ttf
1600.378	n/a	WORD	800189	wordpools/wasnorm_wordpool.txt	LTP122	ltpFR	1	8	0	PUDDING	1139	n/a	0	1	0.412841796875	0.57763671875	lower	../fonts/zerothre.ttf
1604.268	n/a	WORD	802134	wordpools/wasnorm_wordpool.txt	LTP122	ltpFR	1	8	0	FORT	595	n/a	0	1	0.412841796875	0.57763671875	lower	../fonts/zerothre.ttf
1608.234	n/a	WORD	804117	wordpools/wasnorm_wordpool.txt	LTP122	ltpFR	1	8	0	EDITOR	516	n/a	1	1	0.412841796875	0.57763671875	lower	../fonts/zerothre.ttf
1612.166	n/a	WORD	806083	wordpools/wasnorm_wordpool.txt	LTP122	ltpFR	1	8	0	LIBRARY	816	n/a	1	1	0.412841796875	0.57763671875	lower	../fonts/zerothre.ttf
1616.324	n/a	WORD	808162	wordpools/wasnorm_wordpool.txt	LTP122	ltpFR	1	8	0	CHIEF	298	n/a	1	1	0.412841796875	0.57763671875	lower	../fonts/zerothre.ttf
1622.114	n/a	REC_START	811057	n/a	LTP122	ltpFR	1	8	n/a	n/a	n/a	n/a	n/a	n/a	n/a	n/a	n/a	n/a
1623.496	n/a	REC_WORD	811748	wordpools/wasnorm_wordpool.txt	LTP122	ltpFR	1	8	0	LIBRARY	816	n/a	1	n/a	n/a	n/a	n/a	n/a
1624.304	n/a	REC_WORD	812152	wordpools/wasnorm_wordpool.txt	LTP122	ltpFR	1	8	0	CHIEF	298	n/a	1	n/a	n/a	n/a	n/a	n/a
1625.192	n/a	REC_WORD	812596	wordpools/wasnorm_wordpool.txt	LTP122	ltpFR	1	8	0	BUILDER	190	n/a	1	n/a	n/a	n/a	n/a	n/a
1625.83	n/a	REC_WORD	812915	wordpools/wasnorm_wordpool.txt	LTP122	ltpFR	1	8	0	GAZELLE	628	n/a	1	n/a	n/a	n/a	n/a	n/a
1626.734	n/a	REC_WORD	813367	wordpools/wasnorm_wordpool.txt	LTP122	ltpFR	1	8	0	ELK	526	n/a	1	n/a	n/a	n/a	n/a	n/a
1630.77	n/a	REC_WORD	815385	wordpools/wasnorm_wordpool.txt	LTP122	ltpFR	1	8	0	CONCRETE	361	n/a	1	n/a	n/a	n/a	n/a	n/a
1656.598	n/a	REC_WORD	828299	wordpools/wasnorm_wordpool.txt	LTP122	ltpFR	1	8	0	WAND	1586	n/a	0	n/a	n/a	n/a	n/a	n/a
1661.842	n/a	REC_WORD	830921	wordpools/wasnorm_wordpool.txt	LTP122	ltpFR	1	8	0	LIBRARY	816	n/a	1	n/a	n/a	n/a	n/a	n/a
1736.228	n/a	WORD	868114	wordpools/wasnorm_wordpool.txt	LTP122	ltpFR	1	9	-1	BUBBLE	183	n/a	-1	1	1.0	1.0	upper	../fonts/Verdana.ttf
1740.436	n/a	WORD	870218	wordpools/wasnorm_wordpool.txt	LTP122	ltpFR	1	9	-1	SEA	1259	n/a	-1	1	1.0	1.0	upper	../fonts/Verdana.ttf
1744.302	n/a	WORD	872151	wordpools/wasnorm_wordpool.txt	LTP122	ltpFR	1	9	-1	WOLF	1619	n/a	-1	1	1.0	1.0	upper	../fonts/Verdana.ttf
1748.234	n/a	WORD	874117	wordpools/wasnorm_wordpool.txt	LTP122	ltpFR	1	9	-1	FLEA	577	n/a	-1	1	1.0	1.0	upper	../fonts/Verdana.ttf
1752.416	n/a	WORD	876208	wordpools/wasnorm_wordpool.txt	LTP122	ltpFR	1	9	-1	DOCTOR	478	n/a	-1	1	1.0	1.0	upper	../fonts/Verdana.ttf
1756.264	n/a	WORD	878132	wordpools/wasnorm_wordpool.txt	LTP122	ltpFR	1	9	-1	CELERY	266	n/a	-1	1	1.0	1.0	upper	../fonts/Verdana.ttf
1760.22	n/a	WORD	880110	wordpools/wasnorm_wordpool.txt	LTP122	ltpFR	1	9	-1	TOMATO	1476	n/a	-1	1	1.0	1.0	upper	../fonts/Verdana.ttf
1764.304	n/a	WORD	882152	wordpools/wasnorm_wordpool.txt	LTP122	ltpFR	1	9	-1	CARPENTER	246	n/a	-1	1	1.0	1.0	upper	../fonts/Verdana.ttf
1768.218	n/a	WORD	884109	wordpools/wasnorm_wordpool.txt	LTP122	ltpFR	1	9	-1	BATHTUB	100	n/a	-1	1	1.0	1.0	upper	../fonts/Verdana.ttf
1772.06	n/a	WORD	886030	wordpools/wasnorm_wordpool.txt	LTP122	ltpFR	1	9	-1	TROMBONE	1508	n/a	-1	1	1.0	1.0	upper	../fonts/Verdana.ttf
1776.15	n/a	WORD	888075	wordpools/wasnorm_wordpool.txt	LTP122	ltpFR	1	9	-1	SNOB	1335	n/a	-1	1	1.0	1.0	upper	../fonts/Verdana.ttf
1780.066	n/a	WORD	890033	wordpools/wasnorm_wordpool.txt	LTP122	ltpFR	1	9	-1	CHISEL	305	n/a	-1	1	1.0	1.0	upper	../fonts/Verdana.ttf
1784.19	n/a	WORD	892095	wordpools/wasnorm_wordpool.txt	LTP122	ltpFR	1	9	-1	FLOWER	584	n/a	-1	1	1.0	1.0	upper	../fonts/Verdana.ttf
1788.338	n/a	WORD	894169	wordpools/wasnorm_wordpool.txt	LTP122	ltpFR	1	9	-1	TERRITORY	1452	n/a	-1	1	1.0	1.0	upper	../fonts/Verdana.ttf
1792.344	n/a	WORD	896172	wordpools/wasnorm_wordpool.txt	LTP122	ltpFR	1	9	-1	SCREW	1254	n/a	-1	1	1.0	1.0	upper	../fonts/Verdana.ttf
1796.386	n/a	WORD	898193	wordpools/wasnorm_wordpool.txt	LTP122	ltpFR	1	9	-1	ENGINE	535	n/a	-1	1	1.0	1.0	upper	../fonts/Verdana.ttf
1802.052	n/a	REC_START	901026	n/a	LTP122	ltpFR	1	9	n/a	n/a	n/a	n/a	n/a	n/a	n/a	n/a	n/a	n/a
1802.946	n/a	REC_WORD	901473	wordpools/wasnorm_wordpool.txt	LTP122	ltpFR	1	9	-1	SEA	1259	n/a	-1	n/a	n/a	n/a	n/a	n/a
1804.072	n/a	REC_WORD	902036	wordpools/wasnorm_wordpool.txt	LTP122	ltpFR	1	9	-1	WOLF	1619	n/a	-1	n/a	n/a	n/a	n/a	n/a
1805.43	n/a	REC_WORD	902715	wordpools/wasnorm_wordpool.txt	LTP122	ltpFR	1	9	-1	CARPENTER	246	n/a	-1	n/a	n/a	n/a	n/a	n/a
1806.568	n/a	REC_WORD	903284	wordpools/wasnorm_wordpool.txt	LTP122	ltpFR	1	9	-1	TROMBONE	1508	n/a	-1	n/a	n/a	n/a	n/a	n/a
1814.464	n/a	REC_WORD	907232	wordpools/wasnorm_wordpool.txt	LTP122	ltpFR	1	9	-1	ENGINE	535	n/a	-1	n/a	n/a	n/a	n/a	n/a
1816.908	n/a	REC_WORD	908454	wordpools/wasnorm_wordpool.txt	LTP122	ltpFR	1	9	-1	FLOWER	584	n/a	-1	n/a	n/a	n/a	n/a	n/a
1818.066	n/a	REC_WORD	909033	wordpools/wasnorm_wordpool.txt	LTP122	ltpFR	1	9	-1	TERRITORY	1452	n/a	-1	n/a	n/a	n/a	n/a	n/a
1820.986	n/a	REC_WORD	910493	wordpools/wasnorm_wordpool.txt	LTP122	ltpFR	1	9	-1	CHISEL	305	n/a	-1	n/a	n/a	n/a	n/a	n/a
1829.804	n/a	REC_WORD	914902	wordpools/wasnorm_wordpool.txt	LTP122	ltpFR	1	9	-1	BUBBLE	183	n/a	-1	n/a	n/a	n/a	n/a	n/a
1837.792	n/a	REC_WORD	918896	wordpools/wasnorm_wordpool.txt	LTP122	ltpFR	1	9	-1	FLEA	577	n/a	-1	n/a	n/a	n/a	n/a	n/a
1847.686	n/a	REC_WORD	923843	wordpools/wasnorm_wordpool.txt	LTP122	ltpFR	1	9	-1	SNOB	1335	n/a	-1	n/a	n/a	n/a	n/a	n/a
1894.832	n/a	WORD	947416	wordpools/wasnorm_wordpool.txt	LTP122	ltpFR	1	10	1	SKULL	1320	n/a	0	0	0.5869140625	0.422607421875	upper	../fonts/amplitud.ttf
1898.706	n/a	WORD	949353	wordpools/wasnorm_wordpool.txt	LTP122	ltpFR	1	10	1	MARROW	872	n/a	0	0	0.5869140625	0.422607421875	upper	../fonts/amplitud.ttf
1902.678	n/a	WORD	951339	wordpools/wasnorm_wordpool.txt	LTP122	ltpFR	1	10	1	DESIGNER	451	n/a	1	0	0.5869140625	0.422607421875	upper	../fonts/amplitud.ttf
1906.828	n/a	WORD	953414	wordpools/wasnorm_wordpool.txt	LTP122	ltpFR	1	10	1	SILK	1307	n/a	0	0	0.5869140625	0.422607421875	upper	../fonts/amplitud.ttf
1910.744	n/a	WORD	955372	wordpools/wasnorm_wordpool.txt	LTP122	ltpFR	1	10	0	CHEF	290	n/a	1	1	0.412841796875	0.57763671875	lower	../fonts/zerothre.ttf
1914.558	n/a	WORD	957279	wordpools/wasnorm_wordpool.txt	LTP122	ltpFR	1	10	0	BARLEY	88	n/a	0	1	0.412841796875	0.57763671875	lower	../fonts/zerothre.ttf
1918.682	n/a	WORD	959341	wordpools/wasnorm_wordpool.txt	LTP122	ltpFR	1	10	0	BOTTLE	153	n/a	0	1	0.412841796875	0.57763671875	lower	../fonts/zerothre.ttf
1922.864	n/a	WORD	961432	wordpools/wasnorm_wordpool.txt	LTP122	ltpFR	1	10	0	CONDUCTOR	362	n/a	1	1	0.412841796875	0.57763671875	lower	../fonts/zerothre.ttf
1927.014	n/a	WORD	963507	wordpools/wasnorm_wordpool.txt	LTP122	ltpFR	1	10	1	ARTIST	43	n/a	1	0	0.5869140625	0.422607421875	upper	../fonts/amplitud.ttf
1930.886	n/a	WORD	965443	wordpools/wasnorm_wordpool.txt	LTP122	ltpFR	1	10	1	DRESSER	496	n/a	1	0	0.5869140625	0.422607421875	upper	../fonts/amplitud.ttf
1934.978	n/a	WORD	967489	wordpools/wasnorm_wordpool.txt	LTP122	ltpFR	1	10	1	TRAY	1498	n/a	0	0	0.5869140625	0.422607421875	upper	../fonts/amplitud.ttf
1939.044	n/a	WORD	969522	wordpools/wasnorm_wordpool.txt	LTP122	ltpFR	1	10	1	BOUQUET	157	n/a	0	0	0.5869140625	0.422607421875	upper	../fonts/amplitud.ttf
1942.918	n/a	WORD	971459	wordpools/wasnorm_wordpool.txt	LTP122	ltpFR	1	10	0	PARCEL	1012	n/a	1	1	0.412841796875	0.57763671875	lower	../fonts/zerothre.ttf
1946.808	n/a	WORD	973404	wordpools/wasnorm_wordpool.txt	LTP122	ltpFR	1	10	0	MONEY	908	n/a	0	1	0.412841796875	0.57763671875	lower	../fonts/zerothre.ttf
1950.798	n/a	WORD	975399	wordpools/wasnorm_wordpool.txt	LTP122	ltpFR	1	10	0	CHECK	284	n/a	0	1	0.412841796875	0.57763671875	lower	../fonts/zerothre.ttf
1954.922	n/a	WORD	977461	wordpools/wasnorm_wordpool.txt	LTP122	ltpFR	1	10	0	CAR	241	n/a	1	1	0.412841796875	0.57763671875	lower	../fonts/zerothre.ttf
1960.82	n/a	REC_START	980410	n/a	LTP122	ltpFR	1	10	n/a	n/a	n/a	n/a	n/a	n/a	n/a	n/a	n/a	n/a
1962.222	n/a	REC_WORD	981111	wordpools/wasnorm_wordpool.txt	LTP122	ltpFR	1	10	0	CAR	241	n/a	1	n/a	n/a	n/a	n/a	n/a
1963.04	n/a	REC_WORD	981520	wordpools/wasnorm_wordpool.txt	LTP122	ltpFR	1	10	0	MONEY	908	n/a	0	n/a	n/a	n/a	n/a	n/a
1963.838	n/a	REC_WORD	981919	wordpools/wasnorm_wordpool.txt	LTP122	ltpFR	1	10	0	CHECK	284	n/a	0	n/a	n/a	n/a	n/a	n/a
1965.036	n/a	REC_WORD	982518	wordpools/wasnorm_wordpool.txt	LTP122	ltpFR	1	10	1	DRESSER	496	n/a	1	n/a	n/a	n/a	n/a	n/a
1967.908	n/a	REC_WORD	983954	wordpools/wasnorm_wordpool.txt	LTP122	ltpFR	1	10	1	DESIGNER	451	n/a	1	n/a	n/a	n/a	n/a	n/a
2006.134	n/a	REC_WORD	1003067	wordpools/wasnorm_wordpool.txt	LTP122	ltpFR	1	10	1	SKULL	1320	n/a	0	n/a	n/a	n/a	n/a	n/a
2009.696	n/a	REC_WORD	1004848	wordpools/wasnorm_wordpool.txt	LTP122	ltpFR	1	10	1	MARROW	872	n/a	0	n/a	n/a	n/a	n/a	n/a
2076.184	n/a	WORD	1038092	wordpools/wasnorm_wordpool.txt	LTP122	ltpFR	1	11	1	CANARY	227	n/a	1	0	0.5869140625	0.422607421875	upper	../fonts/amplitud.ttf
2080.24	n/a	WORD	1040120	wordpools/wasnorm_wordpool.txt	LTP122	ltpFR	1	11	1	TOMBSTONE	1478	n/a	0	0	0.5869140625	0.422607421875	upper	../fonts/amplitud.ttf
2084.414	n/a	WORD	1042207	wordpools/wasnorm_wordpool.txt	LTP122	ltpFR	1	11	1	PIZZA	1079	n/a	0	0	0.5869140625	0.422607421875	upper	../fonts/amplitud.ttf
2088.348	n/a	WORD	1044174	wordpools/wasnorm_wordpool.txt	LTP122	ltpFR	1	11	1	GULL	671	n/a	1	0	0.5869140625	0.422607421875	upper	../fonts/amplitud.ttf
2092.454	n/a	WORD	1046227	wordpools/wasnorm_wordpool.txt	LTP122	ltpFR	1	11	1	TUTU	1524	n/a	0	0	0.5869140625	0.422607421875	upper	../fonts/amplitud.ttf
2096.412	n/a	WORD	1048206	wordpools/wasnorm_wordpool.txt	LTP122	ltpFR	1	11	1	DOCK	477	n/a	0	0	0.5869140625	0.422607421875	upper	../fonts/amplitud.ttf
2100.51	n/a	WORD	1050255	wordpools/wasnorm_wordpool.txt	LTP122	ltpFR	1	11	1	BUTLER	204	n/a	1	0	0.5869140625	0.422607421875	upper	../fonts/amplitud.ttf
2104.674	n/a	WORD	1052337	wordpools/wasnorm_wordpool.txt	LTP122	ltpFR	1	11	1	VACUUM	1543	n/a	0	0	0.5869140625	0.422607421875	upper	../fonts/amplitud.ttf
2108.592	n/a	WORD	1054296	wordpools/wasnorm_wordpool.txt	LTP122	ltpFR	1	11	1	CANDIDATE	228	n/a	1	0	0.5869140625	0.422607421875	upper	../fonts/amplitud.ttf
2112.8	n/a	WORD	1056400	wordpools/wasnorm_wordpool.txt	LTP122	ltpFR	1	11	1	DOVE	491	n/a	1	0	0.5869140625	0.422607421875	upper	../fonts/amplitud.ttf
2116.856	n/a	WORD	1058428	wordpools/wasnorm_wordpool.txt	LTP122	ltpFR	1	11	1	CHICK	296	n/a	1	0	0.5869140625	0.422607421875	upper	../fonts/amplitud.ttf
2120.922	n/a	WORD	1060461	wordpools/wasnorm_wordpool.txt	LTP122	ltpFR	1	11	1	PUBLISHER	1137	n/a	1	0	0.5869140625	0.422607421875	upper	../fonts/amplitud.ttf
2125.044	n/a	WORD	1062522	wordpools/wasnorm_wordpool.txt	LTP122	ltpFR	1	11	1	AUTHOR	61	n/a	1	0	0.5869140625	0.422607421875	upper	../fonts/amplitud.ttf
2129.226	n/a	WORD	1064613	wordpools/wasnorm_wordpool.txt	LTP122	ltpFR	1	11	1	HOOP	716	n/a	0	0	0.5869140625	0.422607421875	upper	../fonts/amplitud.ttf
2133.316	n/a	WORD	1066658	wordpools/wasnorm_wordpool.txt	LTP122	ltpFR	1	11	1	WHALE	1601	n/a	1	0	0.5869140625	0.422607421875	upper	../fonts/amplitud.ttf
2137.466	n/a	WORD	1068733	wordpools/wasnorm_wordpool.txt	LTP122	ltpFR	1	11	1	DRINK	498	n/a	0	0	0.5869140625	0.422607421875	upper	../fonts/amplitud.ttf
2143.206	n/a	REC_START	1071603	n/a	LTP122	ltpFR	1	11	n/a	n/a	n/a	n/a	n/a	n/a	n/a	n/a	n/a	n/a
2144.518	n/a	REC_WORD	1072259	wordpools/wasnorm_wordpool.txt	LTP122	ltpFR	1	11	1	WHALE	1601	n/a	1	n/a	n/a	n/a	n/a	n/a
2145.156	n/a	REC_WORD	1072578	wordpools/wasnorm_wordpool.txt	LTP122	ltpFR	1	11	1	DRINK	498	n/a	0	n/a	n/a	n/a	n/a	n/a
2145.94	n/a	REC_WORD	1072970	wordpools/wasnorm_wordpool.txt	LTP122	ltpFR	1	11	1	CANARY	227	n/a	1	n/a	n/a	n/a	n/a	n/a
2146.82	n/a	REC_WORD	1073410	wordpools/wasnorm_wordpool.txt	LTP122	ltpFR	1	11	1	PUBLISHER	1137	n/a	1	n/a	n/a	n/a	n/a	n/a
2147.612	n/a	REC_WORD	1073806	wordpools/wasnorm_wordpool.txt	LTP122	ltpFR	1	11	1	AUTHOR	61	n/a	1	n/a	n/a	n/a	n/a	n/a
2156.57	n/a	REC_WORD	1078285	wordpools/wasnorm_wordpool.txt	LTP122	ltpFR	1	11	1	TOMBSTONE	1478	n/a	0	n/a	n/a	n/a	n/a	n/a
2157.608	n/a	REC_WORD	1078804	wordpools/wasnorm_wordpool.txt	LTP122	ltpFR	1	11	1	PIZZA	1079	n/a	0	n/a	n/a	n/a	n/a	n/a
2171.02	n/a	REC_WORD	1085510	wordpools/wasnorm_wordpool.txt	LTP122	ltpFR	1	11	1	CHICK	296	n/a	1	n/a	n/a	n/a	n/a	n/a
2235.16	n/a	WORD	1117580	wordpools/wasnorm_wordpool.txt	LTP122	ltpFR	1	12	1	COACH	331	n/a	1	0	0.5869140625	0.422607421875	upper	../fonts/amplitud.ttf
2239.368	n/a	WORD	1119684	wordpools/wasnorm_wordpool.txt	LTP122	ltpFR	1	12	1	CHURCH	307	n/a	0	0	0.5869140625	0.422607421875	upper	../fonts/amplitud.ttf
2243.318	n/a	WORD	1121659	wordpools/wasnorm_wordpool.txt	LTP122	ltpFR	1	12	1	ANKLE	24	n/a	1	0	0.5869140625	0.422607421875	upper	../fonts/amplitud.ttf
2247.332	n/a	WORD	1123666	wordpools/wasnorm_wordpool.txt	LTP122	ltpFR	1	12	0	SHOELACE	1289	n/a	0	1	0.412841796875	0.57763671875	lower	../fonts/zerothre.ttf
2251.264	n/a	WORD	1125632	wordpools/wasnorm_wordpool.txt	LTP122	ltpFR	1	12	0	CLIMBER	323	n/a	1	1	0.412841796875	0.57763671875	lower	../fonts/zerothre.ttf
2255.396	n/a	WORD	1127698	wordpools/wasnorm_wordpool.txt	LTP122	ltpFR	1	12	0	OBOE	969	n/a	1	1	0.412841796875	0.57763671875	lower	../fonts/zerothre.ttf
2259.462	n/a	WORD	1129731	wordpools/wasnorm_wordpool.txt	LTP122	ltpFR	1	12	0	PANTHER	1009	n/a	1	1	0.412841796875	0.57763671875	lower	../fonts/zerothre.ttf
2263.36	n/a	WORD	1131680	wordpools/wasnorm_wordpool.txt	LTP122	ltpFR	1	12	1	RIFLE	1192	n/a	0	0	0.5869140625	0.422607421875	upper	../fonts/amplitud.ttf
2267.552	n/a	WORD	1133776	wordpools/wasnorm_wordpool.txt	LTP122	ltpFR	1	12	1	PILOT	1070	n/a	1	0	0.5869140625	0.422607421875	upper	../fonts/amplitud.ttf
2271.458	n/a	WORD	1135729	wordpools/wasnorm_wordpool.txt	LTP122	ltpFR	1	12	1	AIRPORT	13	n/a	0	0	0.5869140625	0.422607421875	upper	../fonts/amplitud.ttf
2275.556	n/a	WORD	1137778	wordpools/wasnorm_wordpool.txt	LTP122	ltpFR	1	12	0	FIDDLE	561	n/a	1	1	0.412841796875	0.57763671875	lower	../fonts/zerothre.ttf
2279.546	n/a	WORD	1139773	wordpools/wasnorm_wordpool.txt	LTP122	ltpFR	1	12	0	SERPENT	1270	n/a	1	1	0.412841796875	0.57763671875	lower	../fonts/zerothre.ttf
2283.638	n/a	WORD	1141819	wordpools/wasnorm_wordpool.txt	LTP122	ltpFR	1	12	0	STAPLE	1371	n/a	0	1	0.412841796875	0.57763671875	lower	../fonts/zerothre.ttf
2287.788	n/a	WORD	1143894	wordpools/wasnorm_wordpool.txt	LTP122	ltpFR	1	12	0	LID	817	n/a	0	1	0.412841796875	0.57763671875	lower	../fonts/zerothre.ttf
2291.92	n/a	WORD	1145960	wordpools/wasnorm_wordpool.txt	LTP122	ltpFR	1	12	1	LETTUCE	814	n/a	1	0	0.5869140625	0.422607421875	upper	../fonts/amplitud.ttf
2296.06	n/a	WORD	1148030	wordpools/wasnorm_wordpool.txt	LTP122	ltpFR	1	12	1	LUNCH	849	n/a	0	0	0.5869140625	0.422607421875	upper	../fonts/amplitud.ttf
2301.926	n/a	REC_START	1150963	n/a	LTP122	ltpFR	1	12	n/a	n/a	n/a	n/a	n/a	n/a	n/a	n/a	n/a	n/a
2303.132	n/a	REC_WORD	1151566	wordpools/wasnorm_wordpool.txt	LTP122	ltpFR	1	12	1	LETTUCE	814	n/a	1	n/a	n/a	n/a	n/a	n/a
2303.986	n/a	REC_WORD	1151993	wordpools/wasnorm_wordpool.txt	LTP122	ltpFR	1	12	1	LUNCH	849	n/a	0	n/a	n/a	n/a	n/a	n/a
2304.564	n/a	REC_WORD	1152282	wordpools/wasnorm_wordpool.txt	LTP122	ltpFR	1	12	0	STAPLE	1371	n/a	0	n/a	n/a	n/a	n/a	n/a
2305.772	n/a	REC_WORD	1152886	wordpools/wasnorm_wordpool.txt	LTP122	ltpFR	1	12	0	OBOE	969	n/a	1	n/a	n/a	n/a	n/a	n/a
2306.68	n/a	REC_WORD	1153340	wordpools/wasnorm_wordpool.txt	LTP122	ltpFR	1	12	1	RIFLE	1192	n/a	0	n/a	n/a	n/a	n/a	n/a
2307.538	n/a	REC_WORD	1153769	wordpools/wasnorm_wordpool.txt	LTP122	ltpFR	1	12	0	FIDDLE	561	n/a	1	n/a	n/a	n/a	n/a	n/a
2328.79	n/a	REC_WORD	1164395	wordpools/wasnorm_wordpool.txt	LTP122	ltpFR	1	12	1	CHURCH	307	n/a	0	n/a	n/a	n/a	n/a	n/a
2377.526	n/a	REST_REWET	1188763	n/a	LTP122	ltpFR	1	12	n/a	n/a	n/a	n/a	n/a	n/a	n/a	n/a	n/a	n/a
2808.814	n/a	WORD	1404407	wordpools/wasnorm_wordpool.txt	LTP122	ltpFR	1	13	-1	SUPPER	1411	n/a	-1	1	1.0	1.0	upper	../fonts/Verdana.ttf
2812.762	n/a	WORD	1406381	wordpools/wasnorm_wordpool.txt	LTP122	ltpFR	1	13	-1	SHEEP	1278	n/a	-1	1	1.0	1.0	upper	../fonts/Verdana.ttf
2816.928	n/a	WORD	1408464	wordpools/wasnorm_wordpool.txt	LTP122	ltpFR	1	13	-1	BRIDGE	174	n/a	-1	1	1.0	1.0	upper	../fonts/Verdana.ttf
2820.794	n/a	WORD	1410397	wordpools/wasnorm_wordpool.txt	LTP122	ltpFR	1	13	-1	SUPERMARKET	1409	n/a	-1	1	1.0	1.0	upper	../fonts/Verdana.ttf
2824.766	n/a	WORD	1412383	wordpools/wasnorm_wordpool.txt	LTP122	ltpFR	1	13	-1	BABY	64	n/a	-1	1	1.0	1.0	upper	../fonts/Verdana.ttf
2828.916	n/a	WORD	1414458	wordpools/wasnorm_wordpool.txt	LTP122	ltpFR	1	13	-1	CHILD	299	n/a	-1	1	1.0	1.0	upper	../fonts/Verdana.ttf
2832.88	n/a	WORD	1416440	wordpools/wasnorm_wordpool.txt	LTP122	ltpFR	1	13	-1	SHARK	1275	n/a	-1	1	1.0	1.0	upper	../fonts/Verdana.ttf
2836.764	n/a	WORD	1418382	wordpools/wasnorm_wordpool.txt	LTP122	ltpFR	1	13	-1	POND	1101	n/a	-1	1	1.0	1.0	upper	../fonts/Verdana.ttf
2840.62	n/a	WORD	1420310	wordpools/wasnorm_wordpool.txt	LTP122	ltpFR	1	13	-1	ASIA	46	n/a	-1	1	1.0	1.0	upper	../fonts/Verdana.ttf
2844.768	n/a	WORD	1422384	wordpools/wasnorm_wordpool.txt	LTP122	ltpFR	1	13	-1	SHELF	1280	n/a	-1	1	1.0	1.0	upper	../fonts/Verdana.ttf
2848.818	n/a	WORD	1424409	wordpools/wasnorm_wordpool.txt	LTP122	ltpFR	1	13	-1	CAFE	216	n/a	-1	1	1.0	1.0	upper	../fonts/Verdana.ttf
2852.656	n/a	WORD	1426328	wordpools/wasnorm_wordpool.txt	LTP122	ltpFR	1	13	-1	CAFETERIA	217	n/a	-1	1	1.0	1.0	upper	../fonts/Verdana.ttf
2856.656	n/a	WORD	1428328	wordpools/wasnorm_wordpool.txt	LTP122	ltpFR	1	13	-1	CONTAINER	366	n/a	-1	1	1.0	1.0	upper	../fonts/Verdana.ttf
2860.806	n/a	WORD	1430403	wordpools/wasnorm_wordpool.txt	LTP122	ltpFR	1	13	-1	JUG	762	n/a	-1	1	1.0	1.0	upper	../fonts/Verdana.ttf
2864.754	n/a	WORD	1432377	wordpools/wasnorm_wordpool.txt	LTP122	ltpFR	1	13	-1	BROCCOLI	176	n/a	-1	1	1.0	1.0	upper	../fonts/Verdana.ttf
2868.578	n/a	WORD	1434289	wordpools/wasnorm_wordpool.txt	LTP122	ltpFR	1	13	-1	LONDON	843	n/a	-1	1	1.0	1.0	upper	../fonts/Verdana.ttf
2874.31	n/a	REC_START	1437155	n/a	LTP122	ltpFR	1	13	n/a	n/a	n/a	n/a	n/a	n/a	n/a	n/a	n/a	n/a
2875.218	n/a	REC_WORD	1437609	wordpools/wasnorm_wordpool.txt	LTP122	ltpFR	1	13	-1	LONDON	843	n/a	-1	n/a	n/a	n/a	n/a	n/a
2875.852	n/a	REC_WORD	1437926	wordpools/wasnorm_wordpool.txt	LTP122	ltpFR	1	13	-1	BROCCOLI	176	n/a	-1	n/a	n/a	n/a	n/a	n/a
2876.55	n/a	REC_WORD	1438275	wordpools/wasnorm_wordpool.txt	LTP122	ltpFR	1	13	-1	CAFE	216	n/a	-1	n/a	n/a	n/a	n/a	n/a
2877.298	n/a	REC_WORD	1438649	wordpools/wasnorm_wordpool.txt	LTP122	ltpFR	1	13	-1	CAFETERIA	217	n/a	-1	n/a	n/a	n/a	n/a	n/a
2878.826	n/a	REC_WORD	1439413	wordpools/wasnorm_wordpool.txt	LTP122	ltpFR	1	13	-1	POND	1101	n/a	-1	n/a	n/a	n/a	n/a	n/a
2880.65	n/a	REC_WORD	1440325	wordpools/wasnorm_wordpool.txt	LTP122	ltpFR	1	13	-1	BRIDGE	174	n/a	-1	n/a	n/a	n/a	n/a	n/a
2883.814	n/a	REC_WORD	1441907	wordpools/wasnorm_wordpool.txt	LTP122	ltpFR	1	13	-1	SUPERMARKET	1409	n/a	-1	n/a	n/a	n/a	n/a	n/a
2885.968	n/a	REC_WORD	1442984	wordpools/wasnorm_wordpool.txt	LTP122	ltpFR	1	13	-1	SUPPER	1411	n/a	-1	n/a	n/a	n/a	n/a	n/a
2888.692	n/a	REC_WORD	1444346	wordpools/wasnorm_wordpool.txt	LTP122	ltpFR	1	13	1	LAMB	797	n/a	1	n/a	n/a	n/a	n/a	n/a
2897.184	n/a	REC_WORD	1448592	wordpools/wasnorm_wordpool.txt	LTP122	ltpFR	1	13	-1	LONDON	843	n/a	-1	n/a	n/a	n/a	n/a	n/a
2915.624	n/a	REC_WORD	1457812	wordpools/wasnorm_wordpool.txt	LTP122	ltpFR	1	13	-1	SHELF	1280	n/a	-1	n/a	n/a	n/a	n/a	n/a
2961.59	n/a	WORD	1480795	wordpools/wasnorm_wordpool.txt	LTP122	ltpFR	1	14	-1	STOVE	1388	n/a	-1	1	1.0	1.0	upper	../fonts/Verdana.ttf
2965.572	n/a	WORD	1482786	wordpools/wasnorm_wordpool.txt	LTP122	ltpFR	1	14	-1	PLAQUE	1084	n/a	-1	1	1.0	1.0	upper	../fonts/Verdana.ttf
2969.572	n/a	WORD	1484786	wordpools/wasnorm_wordpool.txt	LTP122	ltpFR	1	14	-1	RADISH	1158	n/a	-1	1	1.0	1.0	upper	../fonts/Verdana.ttf
2973.446	n/a	WORD	1486723	wordpools/wasnorm_wordpool.txt	LTP122	ltpFR	1	14	-1	BUGGY	188	n/a	-1	1	1.0	1.0	upper	../fonts/Verdana.ttf
2977.454	n/a	WORD	1488727	wordpools/wasnorm_wordpool.txt	LTP122	ltpFR	1	14	-1	SAILOR	1223	n/a	-1	1	1.0	1.0	upper	../fonts/Verdana.ttf
2981.302	n/a	WORD	1490651	wordpools/wasnorm_wordpool.txt	LTP122	ltpFR	1	14	-1	ROOST	1208	n/a	-1	1	1.0	1.0	upper	../fonts/Verdana.ttf
2985.376	n/a	WORD	1492688	wordpools/wasnorm_wordpool.txt	LTP122	ltpFR	1	14	-1	VAMPIRE	1547	n/a	-1	1	1.0	1.0	upper	../fonts/Verdana.ttf
2989.316	n/a	WORD	1494658	wordpools/wasnorm_wordpool.txt	LTP122	ltpFR	1	14	-1	SWORD	1423	n/a	-1	1	1.0	1.0	upper	../fonts/Verdana.ttf
2993.198	n/a	WORD	1496599	wordpools/wasnorm_wordpool.txt	LTP122	ltpFR	1	14	-1	MICROPHONE	890	n/a	-1	1	1.0	1.0	upper	../fonts/Verdana.ttf
2997.156	n/a	WORD	1498578	wordpools/wasnorm_wordpool.txt	LTP122	ltpFR	1	14	-1	ABDOMEN	1	n/a	-1	1	1.0	1.0	upper	../fonts/Verdana.ttf
3001.228	n/a	WORD	1500614	wordpools/wasnorm_wordpool.txt	LTP122	ltpFR	1	14	-1	INTESTINE	742	n/a	-1	1	1.0	1.0	upper	../fonts/Verdana.ttf
3005.136	n/a	WORD	1502568	wordpools/wasnorm_wordpool.txt	LTP122	ltpFR	1	14	-1	OAR	966	n/a	-1	1	1.0	1.0	upper	../fonts/Verdana.ttf
3009.128	n/a	WORD	1504564	wordpools/wasnorm_wordpool.txt	LTP122	ltpFR	1	14	-1	BUTTER	205	n/a	-1	1	1.0	1.0	upper	../fonts/Verdana.ttf
3013.11	n/a	WORD	1506555	wordpools/wasnorm_wordpool.txt	LTP122	ltpFR	1	14	-1	MAN	862	n/a	-1	1	1.0	1.0	upper	../fonts/Verdana.ttf
3017.176	n/a	WORD	1508588	wordpools/wasnorm_wordpool.txt	LTP122	ltpFR	1	14	-1	FELLOW	558	n/a	-1	1	1.0	1.0	upper	../fonts/Verdana.ttf
3021.016	n/a	WORD	1510508	wordpools/wasnorm_wordpool.txt	LTP122	ltpFR	1	14	-1	FACTORY	548	n/a	-1	1	1.0	1.0	upper	../fonts/Verdana.ttf
3026.956	n/a	REC_START	1513478	n/a	LTP122	ltpFR	1	14	n/a	n/a	n/a	n/a	n/a	n/a	n/a	n/a	n/a	n/a
3027.834	n/a	REC_WORD	1513917	wordpools/wasnorm_wordpool.txt	LTP122	ltpFR	1	14	-1	FACTORY	548	n/a	-1	n/a	n/a	n/a	n/a	n/a
3028.49	n/a	REC_WORD	1514245	wordpools/wasnorm_wordpool.txt	LTP122	ltpFR	1	14	-1	FELLOW	558	n/a	-1	n/a	n/a	n/a	n/a	n/a
3029.516	n/a	REC_WORD	1514758	wordpools/wasnorm_wordpool.txt	LTP122	ltpFR	1	14	-1	MAN	862	n/a	-1	n/a	n/a	n/a	n/a	n/a
3030.872	n/a	REC_WORD	1515436	wordpools/wasnorm_wordpool.txt	LTP122	ltpFR	1	14	-1	SAILOR	1223	n/a	-1	n/a	n/a	n/a	n/a	n/a
3031.76	n/a	REC_WORD	1515880	wordpools/wasnorm_wordpool.txt	LTP122	ltpFR	1	14	-1	MICROPHONE	890	n/a	-1	n/a	n/a	n/a	n/a	n/a
3035.462	n/a	REC_WORD	1517731	wordpools/wasnorm_wordpool.txt	LTP122	ltpFR	1	14	-1	ROOST	1208	n/a	-1	n/a	n/a	n/a	n/a	n/a
3036.46	n/a	REC_WORD_VV	1518230	wordpools/wasnorm_wordpool.txt	LTP122	ltpFR	1	14	n/a	<>	-1	n/a	n/a	n/a	n/a	n/a	n/a	n/a
3042.096	n/a	REC_WORD	1521048	wordpools/wasnorm_wordpool.txt	LTP122	ltpFR	1	14	-1	OAR	966	n/a	-1	n/a	n/a	n/a	n/a	n/a
3067.636	n/a	REC_WORD	1533818	wordpools/wasnorm_wordpool.txt	LTP122	ltpFR	1	14	-1	PLAQUE	1084	n/a	-1	n/a	n/a	n/a	n/a	n/a
3135.546	n/a	WORD	1567773	wordpools/wasnorm_wordpool.txt	LTP122	ltpFR	1	15	0	HATCHET	691	n/a	0	1	0.412841796875	0.57763671875	lower	../fonts/zerothre.ttf
3139.636	n/a	WORD	1569818	wordpools/wasnorm_wordpool.txt	LTP122	ltpFR	1	15	0	TOOL	1480	n/a	0	1	0.412841796875	0.57763671875	lower	../fonts/zerothre.ttf
3143.712	n/a	WORD	1571856	wordpools/wasnorm_wordpool.txt	LTP122	ltpFR	1	15	1	PREACHER	1119	n/a	1	0	0.5869140625	0.422607421875	upper	../fonts/amplitud.ttf
3147.752	n/a	WORD	1573876	wordpools/wasnorm_wordpool.txt	LTP122	ltpFR	1	15	1	SOFA	1342	n/a	0	0	0.5869140625	0.422607421875	upper	../fonts/amplitud.ttf
3151.876	n/a	WORD	1575938	wordpools/wasnorm_wordpool.txt	LTP122	ltpFR	1	15	1	NOTEBOOK	959	n/a	0	0	0.5869140625	0.422607421875	upper	../fonts/amplitud.ttf
3155.792	n/a	WORD	1577896	wordpools/wasnorm_wordpool.txt	LTP122	ltpFR	1	15	1	MONKEY	911	n/a	1	0	0.5869140625	0.422607421875	upper	../fonts/amplitud.ttf
3159.714	n/a	WORD	1579857	wordpools/wasnorm_wordpool.txt	LTP122	ltpFR	1	15	1	MERMAID	887	n/a	1	0	0.5869140625	0.422607421875	upper	../fonts/amplitud.ttf
3163.772	n/a	WORD	1581886	wordpools/wasnorm_wordpool.txt	LTP122	ltpFR	1	15	1	BINDER	127	n/a	0	0	0.5869140625	0.422607421875	upper	../fonts/amplitud.ttf
3167.988	n/a	WORD	1583994	wordpools/wasnorm_wordpool.txt	LTP122	ltpFR	1	15	0	CONVICT	371	n/a	1	1	0.412841796875	0.57763671875	lower	../fonts/zerothre.ttf
3171.946	n/a	WORD	1585973	wordpools/wasnorm_wordpool.txt	LTP122	ltpFR	1	15	0	CAPTIVE	240	n/a	1	1	0.412841796875	0.57763671875	lower	../fonts/zerothre.ttf
3175.81	n/a	WORD	1587905	wordpools/wasnorm_wordpool.txt	LTP122	ltpFR	1	15	1	SHACK	1273	n/a	0	0	0.5869140625	0.422607421875	upper	../fonts/amplitud.ttf
3179.942	n/a	WORD	1589971	wordpools/wasnorm_wordpool.txt	LTP122	ltpFR	1	15	1	OATS	968	n/a	0	0	0.5869140625	0.422607421875	upper	../fonts/amplitud.ttf
3184.084	n/a	WORD	1592042	wordpools/wasnorm_wordpool.txt	LTP122	ltpFR	1	15	0	WHIP	1604	n/a	1	1	0.412841796875	0.57763671875	lower	../fonts/zerothre.ttf
3188.174	n/a	WORD	1594087	wordpools/wasnorm_wordpool.txt	LTP122	ltpFR	1	15	0	SHINGLE	1285	n/a	0	1	0.412841796875	0.57763671875	lower	../fonts/zerothre.ttf
3192.064	n/a	WORD	1596032	wordpools/wasnorm_wordpool.txt	LTP122	ltpFR	1	15	0	MOTORCYCLE	923	n/a	1	1	0.412841796875	0.57763671875	lower	../fonts/zerothre.ttf
3196.18	n/a	WORD	1598090	wordpools/wasnorm_wordpool.txt	LTP122	ltpFR	1	15	0	DORM	488	n/a	1	1	0.412841796875	0.57763671875	lower	../fonts/zerothre.ttf
3201.912	n/a	REC_START	1600956	n/a	LTP122	ltpFR	1	15	n/a	n/a	n/a	n/a	n/a	n/a	n/a	n/a	n/a	n/a
3203.002	n/a	REC_WORD	1601501	wordpools/wasnorm_wordpool.txt	LTP122	ltpFR	1	15	0	WHIP	1604	n/a	1	n/a	n/a	n/a	n/a	n/a
3203.502	n/a	REC_WORD	1601751	wordpools/wasnorm_wordpool.txt	LTP122	ltpFR	1	15	0	SHINGLE	1285	n/a	0	n/a	n/a	n/a	n/a	n/a
3204.39	n/a	REC_WORD	1602195	wordpools/wasnorm_wordpool.txt	LTP122	ltpFR	1	15	0	MOTORCYCLE	923	n/a	1	n/a	n/a	n/a	n/a	n/a
3205.628	n/a	REC_WORD	1602814	wordpools/wasnorm_wordpool.txt	LTP122	ltpFR	1	15	0	DORM	488	n/a	1	n/a	n/a	n/a	n/a	n/a
3206.436	n/a	REC_WORD	1603218	wordpools/wasnorm_wordpool.txt	LTP122	ltpFR	1	15	0	CONVICT	371	n/a	1	n/a	n/a	n/a	n/a	n/a
3207.304	n/a	REC_WORD	1603652	wordpools/wasnorm_wordpool.txt	LTP122	ltpFR	1	15	1	PREACHER	1119	n/a	1	n/a	n/a	n/a	n/a	n/a
3211.464	n/a	REC_WORD	1605732	wordpools/wasnorm_wordpool.txt	LTP122	ltpFR	1	15	1	SHACK	1273	n/a	0	n/a	n/a	n/a	n/a	n/a
3246.178	n/a	REC_WORD	1623089	wordpools/wasnorm_wordpool.txt	LTP122	ltpFR	1	15	1	MONKEY	911	n/a	1	n/a	n/a	n/a	n/a	n/a
3250.124	n/a	REC_WORD	1625062	wordpools/wasnorm_wordpool.txt	LTP122	ltpFR	1	15	1	MERMAID	887	n/a	1	n/a	n/a	n/a	n/a	n/a
3314.776	n/a	WORD	1657388	wordpools/wasnorm_wordpool.txt	LTP122	ltpFR	1	16	0	ATHLETE	52	n/a	1	1	0.412841796875	0.57763671875	lower	../fonts/zerothre.ttf
3318.65	n/a	WORD	1659325	wordpools/wasnorm_wordpool.txt	LTP122	ltpFR	1	16	0	SHOWER	1296	n/a	1	1	0.412841796875	0.57763671875	lower	../fonts/zerothre.ttf
3322.716	n/a	WORD	1661358	wordpools/wasnorm_wordpool.txt	LTP122	ltpFR	1	16	0	SWAMP	1416	n/a	1	1	0.412841796875	0.57763671875	lower	../fonts/zerothre.ttf
3326.872	n/a	WORD	1663436	wordpools/wasnorm_wordpool.txt	LTP122	ltpFR	1	16	0	PATROL	1027	n/a	1	1	0.412841796875	0.57763671875	lower	../fonts/zerothre.ttf
3330.988	n/a	WORD	1665494	wordpools/wasnorm_wordpool.txt	LTP122	ltpFR	1	16	0	GLACIER	638	n/a	1	1	0.412841796875	0.57763671875	lower	../fonts/zerothre.ttf
3335.188	n/a	WORD	1667594	wordpools/wasnorm_wordpool.txt	LTP122	ltpFR	1	16	0	SANDPAPER	1231	n/a	0	1	0.412841796875	0.57763671875	lower	../fonts/zerothre.ttf
3339.394	n/a	WORD	1669697	wordpools/wasnorm_wordpool.txt	LTP122	ltpFR	1	16	0	LODGE	839	n/a	1	1	0.412841796875	0.57763671875	lower	../fonts/zerothre.ttf
3343.526	n/a	WORD	1671763	wordpools/wasnorm_wordpool.txt	LTP122	ltpFR	1	16	0	SNAKE	1333	n/a	0	1	0.412841796875	0.57763671875	lower	../fonts/zerothre.ttf
3347.566	n/a	WORD	1673783	wordpools/wasnorm_wordpool.txt	LTP122	ltpFR	1	16	0	REPTILE	1185	n/a	0	1	0.412841796875	0.57763671875	lower	../fonts/zerothre.ttf
3351.456	n/a	WORD	1675728	wordpools/wasnorm_wordpool.txt	LTP122	ltpFR	1	16	0	MAILBOX	857	n/a	1	1	0.412841796875	0.57763671875	lower	../fonts/zerothre.ttf
3355.648	n/a	WORD	1677824	wordpools/wasnorm_wordpool.txt	LTP122	ltpFR	1	16	0	MESSAGE	888	n/a	0	1	0.412841796875	0.57763671875	lower	../fonts/zerothre.ttf
3359.504	n/a	WORD	1679752	wordpools/wasnorm_wordpool.txt	LTP122	ltpFR	1	16	0	RECEIPT	1173	n/a	0	1	0.412841796875	0.57763671875	lower	../fonts/zerothre.ttf
3363.528	n/a	WORD	1681764	wordpools/wasnorm_wordpool.txt	LTP122	ltpFR	1	16	0	SPY	1360	n/a	1	1	0.412841796875	0.57763671875	lower	../fonts/zerothre.ttf
3367.484	n/a	WORD	1683742	wordpools/wasnorm_wordpool.txt	LTP122	ltpFR	1	16	0	BACK	65	n/a	1	1	0.412841796875	0.57763671875	lower	../fonts/zerothre.ttf
3371.674	n/a	WORD	1685837	wordpools/wasnorm_wordpool.txt	LTP122	ltpFR	1	16	0	FURNITURE	616	n/a	1	1	0.412841796875	0.57763671875	lower	../fonts/zerothre.ttf
3375.758	n/a	WORD	1687879	wordpools/wasnorm_wordpool.txt	LTP122	ltpFR	1	16	0	BANK	83	n/a	1	1	0.412841796875	0.57763671875	lower	../fonts/zerothre.ttf
3381.49	n/a	REC_START	1690745	n/a	LTP122	ltpFR	1	16	n/a	n/a	n/a	n/a	n/a	n/a	n/a	n/a	n/a	n/a
3382.282	n/a	REC_WORD	1691141	wordpools/wasnorm_wordpool.txt	LTP122	ltpFR	1	16	0	FURNITURE	616	n/a	1	n/a	n/a	n/a	n/a	n/a
3383.2	n/a	REC_WORD	1691600	wordpools/wasnorm_wordpool.txt	LTP122	ltpFR	1	16	0	BANK	83	n/a	1	n/a	n/a	n/a	n/a	n/a
3383.966	n/a	REC_WORD	1691983	wordpools/wasnorm_wordpool.txt	LTP122	ltpFR	1	16	0	REPTILE	1185	n/a	0	n/a	n/a	n/a	n/a	n/a
3384.868	n/a	REC_WORD	1692434	wordpools/wasnorm_wordpool.txt	LTP122	ltpFR	1	16	0	SWAMP	1416	n/a	1	n/a	n/a	n/a	n/a	n/a
3388.448	n/a	REC_WORD	1694224	wordpools/wasnorm_wordpool.txt	LTP122	ltpFR	1	16	0	SNAKE	1333	n/a	0	n/a	n/a	n/a	n/a	n/a
3409.406	n/a	REC_WORD	1704703	wordpools/wasnorm_wordpool.txt	LTP122	ltpFR	1	16	0	RECEIPT	1173	n/a	0	n/a	n/a	n/a	n/a	n/a
3484.45	n/a	REC_START	1742225	n/a	LTP122	ltpFR	1	n/a	n/a	n/a	n/a	n/a	n/a	n/a	n/a	n/a	n/a	n/a
3484.864	n/a	FFR_REC_WORD	1742432	wordpools/wasnorm_wordpool.txt	LTP122	ltpFR	1	n/a	1	UNICORN	1538	n/a	1	n/a	n/a	n/a	n/a	n/a
3485.642	n/a	FFR_REC_WORD	1742821	wordpools/wasnorm_wordpool.txt	LTP122	ltpFR	1	n/a	1	MERMAID	887	n/a	1	n/a	n/a	n/a	n/a	n/a
3486.56	n/a	FFR_REC_WORD	1743280	wordpools/wasnorm_wordpool.txt	LTP122	ltpFR	1	n/a	-1	WALRUS	1585	n/a	-1	n/a	n/a	n/a	n/a	n/a
3488.626	n/a	FFR_REC_WORD	1744313	wordpools/wasnorm_wordpool.txt	LTP122	ltpFR	1	n/a	1	PREACHER	1119	n/a	1	n/a	n/a	n/a	n/a	n/a
3490.262	n/a	FFR_REC_WORD	1745131	wordpools/wasnorm_wordpool.txt	LTP122	ltpFR	1	n/a	0	CAPTIVE	240	n/a	1	n/a	n/a	n/a	n/a	n/a
3493.554	n/a	FFR_REC_WORD	1746777	wordpools/wasnorm_wordpool.txt	LTP122	ltpFR	1	n/a	1	CHURCH	307	n/a	0	n/a	n/a	n/a	n/a	n/a
3494.452	n/a	FFR_REC_WORD	1747226	wordpools/wasnorm_wordpool.txt	LTP122	ltpFR	1	n/a	0	REPTILE	1185	n/a	0	n/a	n/a	n/a	n/a	n/a
3495.23	n/a	FFR_REC_WORD	1747615	wordpools/wasnorm_wordpool.txt	LTP122	ltpFR	1	n/a	0	SNAKE	1333	n/a	0	n/a	n/a	n/a	n/a	n/a
3499.876	n/a	FFR_REC_WORD	1749938	wordpools/wasnorm_wordpool.txt	LTP122	ltpFR	1	n/a	n/a	CREATURE	403	n/a	n/a	n/a	n/a	n/a	n/a	n/a
3501.098	n/a	FFR_REC_WORD	1750549	wordpools/wasnorm_wordpool.txt	LTP122	ltpFR	1	n/a	1	ANIMAL	23	n/a	1	n/a	n/a	n/a	n/a	n/a
3505.146	n/a	FFR_REC_WORD	1752573	wordpools/wasnorm_wordpool.txt	LTP122	ltpFR	1	n/a	0	SWAMP	1416	n/a	1	n/a	n/a	n/a	n/a	n/a
3508.792	n/a	FFR_REC_WORD	1754396	wordpools/wasnorm_wordpool.txt	LTP122	ltpFR	1	n/a	-1	OAR	966	n/a	-1	n/a	n/a	n/a	n/a	n/a
3512.088	n/a	FFR_REC_WORD	1756044	wordpools/wasnorm_wordpool.txt	LTP122	ltpFR	1	n/a	-1	CARPENTER	246	n/a	-1	n/a	n/a	n/a	n/a	n/a
3514.996	n/a	FFR_REC_WORD	1757498	wordpools/wasnorm_wordpool.txt	LTP122	ltpFR	1	n/a	-1	ENGINE	535	n/a	-1	n/a	n/a	n/a	n/a	n/a
3519.726	n/a	FFR_REC_WORD	1759863	wordpools/wasnorm_wordpool.txt	LTP122	ltpFR	1	n/a	1	BUTLER	204	n/a	1	n/a	n/a	n/a	n/a	n/a
3522.34	n/a	FFR_REC_WORD	1761170	wordpools/wasnorm_wordpool.txt	LTP122	ltpFR	1	n/a	1	VIOLIN	1571	n/a	0	n/a	n/a	n/a	n/a	n/a
3523.826	n/a	FFR_REC_WORD	1761913	wordpools/wasnorm_wordpool.txt	LTP122	ltpFR	1	n/a	0	FIDDLE	561	n/a	1	n/a	n/a	n/a	n/a	n/a
3526.9	n/a	FFR_REC_WORD	1763450	wordpools/wasnorm_wordpool.txt	LTP122	ltpFR	1	n/a	1	HARP	689	n/a	0	n/a	n/a	n/a	n/a	n/a
3529.3	n/a	FFR_REC_WORD	1764650	wordpools/wasnorm_wordpool.txt	LTP122	ltpFR	1	n/a	0	TOOL	1480	n/a	0	n/a	n/a	n/a	n/a	n/a
3530.372	n/a	FFR_REC_WORD	1765186	wordpools/wasnorm_wordpool.txt	LTP122	ltpFR	1	n/a	n/a	SCREWDRIVER	1255	n/a	n/a	n/a	n/a	n/a	n/a	n/a
3531.89	n/a	FFR_REC_WORD	1765945	wordpools/wasnorm_wordpool.txt	LTP122	ltpFR	1	n/a	0	PEBBLE	1035	n/a	0	n/a	n/a	n/a	n/a	n/a
3534.104	n/a	FFR_REC_WORD	1767052	wordpools/wasnorm_wordpool.txt	LTP122	ltpFR	1	n/a	-1	RADISH	1158	n/a	-1	n/a	n/a	n/a	n/a	n/a
3539.322	n/a	FFR_REC_WORD	1769661	wordpools/wasnorm_wordpool.txt	LTP122	ltpFR	1	n/a	0	COOKIE	374	n/a	0	n/a	n/a	n/a	n/a	n/a
3541.064	n/a	FFR_REC_WORD	1770532	wordpools/wasnorm_wordpool.txt	LTP122	ltpFR	1	n/a	1	CANARY	227	n/a	1	n/a	n/a	n/a	n/a	n/a
3542.136	n/a	FFR_REC_WORD	1771068	wordpools/wasnorm_wordpool.txt	LTP122	ltpFR	1	n/a	-1	CARDINAL	244	n/a	-1	n/a	n/a	n/a	n/a	n/a
3543.632	n/a	FFR_REC_WORD	1771816	wordpools/wasnorm_wordpool.txt	LTP122	ltpFR	1	n/a	-1	CROW	414	n/a	-1	n/a	n/a	n/a	n/a	n/a
3547.864	n/a	FFR_REC_WORD	1773932	wordpools/wasnorm_wordpool.txt	LTP122	ltpFR	1	n/a	0	SNAKE	1333	n/a	0	n/a	n/a	n/a	n/a	n/a
3552.832	n/a	FFR_REC_WORD	1776416	wordpools/wasnorm_wordpool.txt	LTP122	ltpFR	1	n/a	1	AUTHOR	61	n/a	1	n/a	n/a	n/a	n/a	n/a
3553.78	n/a	FFR_REC_WORD	1776890	wordpools/wasnorm_wordpool.txt	LTP122	ltpFR	1	n/a	0	EDITOR	516	n/a	1	n/a	n/a	n/a	n/a	n/a
3554.43	n/a	FFR_REC_WORD	1777215	wordpools/wasnorm_wordpool.txt	LTP122	ltpFR	1	n/a	1	PUBLISHER	1137	n/a	1	n/a	n/a	n/a	n/a	n/a
3559.128	n/a	FFR_REC_WORD	1779564	wordpools/wasnorm_wordpool.txt	LTP122	ltpFR	1	n/a	0	THIGH	1457	n/a	1	n/a	n/a	n/a	n/a	n/a
3560.172	n/a	FFR_REC_WORD	1780086	wordpools/wasnorm_wordpool.txt	LTP122	ltpFR	1	n/a	0	WAIST	1579	n/a	1	n/a	n/a	n/a	n/a	n/a
3563.08	n/a	FFR_REC_WORD	1781540	wordpools/wasnorm_wordpool.txt	LTP122	ltpFR	1	n/a	1	TOMBSTONE	1478	n/a	0	n/a	n/a	n/a	n/a	n/a
3564.032	n/a	FFR_REC_WORD	1782016	wordpools/wasnorm_wordpool.txt	LTP122	ltpFR	1	n/a	1	PIZZA	1079	n/a	0	n/a	n/a	n/a	n/a	n/a
3574.16	n/a	FFR_REC_WORD	1787080	wordpools/wasnorm_wordpool.txt	LTP122	ltpFR	1	n/a	0	CONTRACT	368	n/a	0	n/a	n/a	n/a	n/a	n/a
3574.954	n/a	FFR_REC_WORD	1787477	wordpools/wasnorm_wordpool.txt	LTP122	ltpFR	1	n/a	0	RECEIPT	1173	n/a	0	n/a	n/a	n/a	n/a	n/a
3576.012	n/a	FFR_REC_WORD	1788006	wordpools/wasnorm_wordpool.txt	LTP122	ltpFR	1	n/a	0	MONEY	908	n/a	0	n/a	n/a	n/a	n/a	n/a
3577.078	n/a	FFR_REC_WORD	1788539	wordpools/wasnorm_wordpool.txt	LTP122	ltpFR	1	n/a	0	CHECK	284	n/a	0	n/a	n/a	n/a	n/a	n/a
3579.214	n/a	FFR_REC_WORD	1789607	wordpools/wasnorm_wordpool.txt	LTP122	ltpFR	1	n/a	1	MONKEY	911	n/a	1	n/a	n/a	n/a	n/a	n/a
3582.108	n/a	FFR_REC_WORD	1791054	wordpools/wasnorm_wordpool.txt	LTP122	ltpFR	1	n/a	1	GULL	671	n/a	1	n/a	n/a	n/a	n/a	n/a
3597.334	n/a	FFR_REC_WORD	1798667	wordpools/wasnorm_wordpool.txt	LTP122	ltpFR	1	n/a	-1	SNOB	1335	n/a	-1	n/a	n/a	n/a	n/a	n/a
3599.834	n/a	FFR_REC_WORD	1799917	wordpools/wasnorm_wordpool.txt	LTP122	ltpFR	1	n/a	-1	TROMBONE	1508	n/a	-1	n/a	n/a	n/a	n/a	n/a
3604.094	n/a	FFR_REC_WORD	1802047	wordpools/wasnorm_wordpool.txt	LTP122	ltpFR	1	n/a	-1	BRIDGE	174	n/a	-1	n/a	n/a	n/a	n/a	n/a
3605.516	n/a	FFR_REC_WORD	1802758	wordpools/wasnorm_wordpool.txt	LTP122	ltpFR	1	n/a	-1	ROOST	1208	n/a	-1	n/a	n/a	n/a	n/a	n/a
3614.246	n/a	FFR_REC_WORD	1807123	wordpools/wasnorm_wordpool.txt	LTP122	ltpFR	1	n/a	0	MOTORCYCLE	923	n/a	1	n/a	n/a	n/a	n/a	n/a
3616.202	n/a	FFR_REC_WORD	1808101	wordpools/wasnorm_wordpool.txt	LTP122	ltpFR	1	n/a	1	SHACK	1273	n/a	0	n/a	n/a	n/a	n/a	n/a
3634.97	n/a	FFR_REC_WORD	1817485	wordpools/wasnorm_wordpool.txt	LTP122	ltpFR	1	n/a	-1	SWORD	1423	n/a	-1	n/a	n/a	n/a	n/a	n/a
3641.506	n/a	FFR_REC_WORD	1820753	wordpools/wasnorm_wordpool.txt	LTP122	ltpFR	1	n/a	0	WAND	1586	n/a	0	n/a	n/a	n/a	n/a	n/a
3645.164	n/a	FFR_REC_WORD	1822582	wordpools/wasnorm_wordpool.txt	LTP122	ltpFR	1	n/a	0	TRANSPLANT	1496	n/a	1	n/a	n/a	n/a	n/a	n/a
3648.75	n/a	FFR_REC_WORD	1824375	wordpools/wasnorm_wordpool.txt	LTP122	ltpFR	1	n/a	1	MARROW	872	n/a	0	n/a	n/a	n/a	n/a	n/a
3649.744	n/a	FFR_REC_WORD	1824872	wordpools/wasnorm_wordpool.txt	LTP122	ltpFR	1	n/a	1	SKULL	1320	n/a	0	n/a	n/a	n/a	n/a	n/a
3668.466	n/a	FFR_REC_WORD	1834233	wordpools/wasnorm_wordpool.txt	LTP122	ltpFR	1	n/a	1	WHALE	1601	n/a	1	n/a	n/a	n/a	n/a	n/a
3671.02	n/a	FFR_REC_WORD	1835510	wordpools/wasnorm_wordpool.txt	LTP122	ltpFR	1	n/a	-1	FLOWER	584	n/a	-1	n/a	n/a	n/a	n/a	n/a
3712.074	n/a	FFR_REC_WORD	1856037	wordpools/wasnorm_wordpool.txt	LTP122	ltpFR	1	n/a	1	ASH	44	n/a	0	n/a	n/a	n/a	n/a	n/a
3722.222	n/a	FFR_REC_WORD	1861111	wordpools/wasnorm_wordpool.txt	LTP122	ltpFR	1	n/a	-1	SUPPER	1411	n/a	-1	n/a	n/a	n/a	n/a	n/a
3723.464	n/a	FFR_REC_WORD	1861732	wordpools/wasnorm_wordpool.txt	LTP122	ltpFR	1	n/a	1	LAMB	797	n/a	1	n/a	n/a	n/a	n/a	n/a
3744.986	n/a	FFR_REC_WORD	1872493	wordpools/wasnorm_wordpool.txt	LTP122	ltpFR	1	n/a	-1	GRAVEL	659	n/a	-1	n/a	n/a	n/a	n/a	n/a
3762.996	n/a	FFR_REC_WORD	1881498	wordpools/wasnorm_wordpool.txt	LTP122	ltpFR	1	n/a	1	THUMB	1462	n/a	0	n/a	n/a	n/a	n/a	n/a
3820.39	n/a	REC_START	1910195	n/a	LTP122	ltpFR	1	1	n/a	n/a	n/a	n/a	n/a	n/a	n/a	n/a	n/a	n/a
3820.422	n/a	RECOG_TARGET	1910211	n/a	LTP122	ltpFR	1	1	1	FRECKLE	602	5	0	n/a	n/a	n/a	n/a	n/a
3821.822	n/a	RECOG_RESP	1910911	n/a	LTP122	ltpFR	1	1	1	FRECKLE	602	n/a	0	n/a	n/a	n/a	n/a	n/a
3823.408	n/a	RECOG_CONF	1911704	n/a	LTP122	ltpFR	1	1	1	FRECKLE	602	5	0	n/a	n/a	n/a	n/a	n/a
3825.156	n/a	RECOG_LURE	1912578	n/a	LTP122	ltpFR	1	1	n/a	WINDOW	1611	3	n/a	n/a	n/a	n/a	n/a	n/a
3826.332	n/a	RECOG_RESP	1913166	n/a	LTP122	ltpFR	1	1	n/a	WINDOW	1611	n/a	n/a	n/a	n/a	n/a	n/a	n/a
3827.628	n/a	RECOG_CONF	1913814	n/a	LTP122	ltpFR	1	1	n/a	WINDOW	1611	3	n/a	n/a	n/a	n/a	n/a	n/a
3829.362	n/a	RECOG_TARGET	1914681	n/a	LTP122	ltpFR	1	1	-1	BUGGY	188	5	-1	n/a	n/a	n/a	n/a	n/a
3830.124	n/a	RECOG_RESP	1915062	n/a	LTP122	ltpFR	1	1	-1	BUGGY	188	n/a	-1	n/a	n/a	n/a	n/a	n/a
3831.32	n/a	RECOG_CONF	1915660	n/a	LTP122	ltpFR	1	1	-1	BUGGY	188	5	-1	n/a	n/a	n/a	n/a	n/a
3832.886	n/a	RECOG_LURE	1916443	n/a	LTP122	ltpFR	1	1	n/a	FEATHER	557	2	n/a	n/a	n/a	n/a	n/a	n/a
3834.584	n/a	RECOG_RESP	1917292	n/a	LTP122	ltpFR	1	1	n/a	FEATHER	557	n/a	n/a	n/a	n/a	n/a	n/a	n/a
3835.812	n/a	RECOG_CONF	1917906	n/a	LTP122	ltpFR	1	1	n/a	FEATHER	557	2	n/a	n/a	n/a	n/a	n/a	n/a
3837.426	n/a	RECOG_TARGET	1918713	n/a	LTP122	ltpFR	1	1	0	SHINGLE	1285	5	0	n/a	n/a	n/a	n/a	n/a
3838.336	n/a	RECOG_RESP	1919168	n/a	LTP122	ltpFR	1	1	0	SHINGLE	1285	n/a	0	n/a	n/a	n/a	n/a	n/a
3839.622	n/a	RECOG_CONF	1919811	n/a	LTP122	ltpFR	1	1	0	SHINGLE	1285	5	0	n/a	n/a	n/a	n/a	n/a
3841.218	n/a	RECOG_TARGET	1920609	n/a	LTP122	ltpFR	1	1	0	BACK	65	5	1	n/a	n/a	n/a	n/a	n/a
3842.102	n/a	RECOG_RESP	1921051	n/a	LTP122	ltpFR	1	1	0	BACK	65	n/a	1	n/a	n/a	n/a	n/a	n/a
3843.414	n/a	RECOG_CONF	1921707	n/a	LTP122	ltpFR	1	1	0	BACK	65	5	1	n/a	n/a	n/a	n/a	n/a
3845.016	n/a	RECOG_LURE	1922508	n/a	LTP122	ltpFR	1	1	n/a	CARAVAN	242	2	n/a	n/a	n/a	n/a	n/a	n/a
3846.516	n/a	RECOG_RESP	1923258	n/a	LTP122	ltpFR	1	1	n/a	CARAVAN	242	n/a	n/a	n/a	n/a	n/a	n/a	n/a
3847.744	n/a	RECOG_CONF	1923872	n/a	LTP122	ltpFR	1	1	n/a	CARAVAN	242	2	n/a	n/a	n/a	n/a	n/a	n/a
3849.388	n/a	RECOG_TARGET	1924694	n/a	LTP122	ltpFR	1	1	1	PILOT	1070	5	1	n/a	n/a	n/a	n/a	n/a
3850.164	n/a	RECOG_RESP	1925082	n/a	LTP122	ltpFR	1	1	1	PILOT	1070	n/a	1	n/a	n/a	n/a	n/a	n/a
3851.366	n/a	RECOG_CONF	1925683	n/a	LTP122	ltpFR	1	1	1	PILOT	1070	5	1	n/a	n/a	n/a	n/a	n/a
3852.93	n/a	RECOG_TARGET	1926465	n/a	LTP122	ltpFR	1	1	0	THIGH	1457	5	1	n/a	n/a	n/a	n/a	n/a
3853.656	n/a	RECOG_RESP	1926828	n/a	LTP122	ltpFR	1	1	0	THIGH	1457	n/a	1	n/a	n/a	n/a	n/a	n/a
3854.998	n/a	RECOG_CONF	1927499	n/a	LTP122	ltpFR	1	1	0	THIGH	1457	5	1	n/a	n/a	n/a	n/a	n/a
3856.686	n/a	RECOG_TARGET	1928343	n/a	LTP122	ltpFR	1	1	1	POT	1114	3	0	n/a	n/a	n/a	n/a	n/a
3858.47	n/a	RECOG_RESP_VV	1929235	n/a	LTP122	ltpFR	1	1	1	POT	1114	n/a	0	n/a	n/a	n/a	n/a	n/a
3859.478	n/a	RECOG_RESP	1929739	n/a	LTP122	ltpFR	1	1	1	POT	1114	n/a	0	n/a	n/a	n/a	n/a	n/a
3861.084	n/a	RECOG_CONF	1930542	n/a	LTP122	ltpFR	1	1	1	POT	1114	3	0	n/a	n/a	n/a	n/a	n/a
3862.652	n/a	RECOG_TARGET	1931326	n/a	LTP122	ltpFR	1	1	1	BUTLER	204	5	1	n/a	n/a	n/a	n/a	n/a
3863.334	n/a	RECOG_RESP	1931667	n/a	LTP122	ltpFR	1	1	1	BUTLER	204	n/a	1	n/a	n/a	n/a	n/a	n/a
3864.636	n/a	RECOG_CONF	1932318	n/a	LTP122	ltpFR	1	1	1	BUTLER	204	5	1	n/a	n/a	n/a	n/a	n/a
3866.326	n/a	RECOG_TARGET	1933163	n/a	LTP122	ltpFR	1	1	1	COACH	331	5	1	n/a	n/a	n/a	n/a	n/a
3867.45	n/a	RECOG_RESP	1933725	n/a	LTP122	ltpFR	1	1	1	COACH	331	n/a	1	n/a	n/a	n/a	n/a	n/a
3868.838	n/a	RECOG_CONF	1934419	n/a	LTP122	ltpFR	1	1	1	COACH	331	5	1	n/a	n/a	n/a	n/a	n/a
3870.606	n/a	RECOG_LURE	1935303	n/a	LTP122	ltpFR	1	1	n/a	SPICE	1350	3	n/a	n/a	n/a	n/a	n/a	n/a
3871.468	n/a	RECOG_RESP	1935734	n/a	LTP122	ltpFR	1	1	n/a	SPICE	1350	n/a	n/a	n/a	n/a	n/a	n/a	n/a
3872.79	n/a	RECOG_CONF	1936395	n/a	LTP122	ltpFR	1	1	n/a	SPICE	1350	3	n/a	n/a	n/a	n/a	n/a	n/a
3874.54	n/a	RECOG_TARGET	1937270	n/a	LTP122	ltpFR	1	1	0	BUNNY	198	4	0	n/a	n/a	n/a	n/a	n/a
3875.194	n/a	RECOG_RESP	1937597	n/a	LTP122	ltpFR	1	1	0	BUNNY	198	n/a	0	n/a	n/a	n/a	n/a	n/a
3876.69	n/a	RECOG_CONF	1938345	n/a	LTP122	ltpFR	1	1	0	BUNNY	198	4	0	n/a	n/a	n/a	n/a	n/a
3878.198	n/a	RECOG_TARGET	1939099	n/a	LTP122	ltpFR	1	1	1	WHALE	1601	5	1	n/a	n/a	n/a	n/a	n/a
3878.846	n/a	RECOG_RESP	1939423	n/a	LTP122	ltpFR	1	1	1	WHALE	1601	n/a	1	n/a	n/a	n/a	n/a	n/a
3880.222	n/a	RECOG_CONF	1940111	n/a	LTP122	ltpFR	1	1	1	WHALE	1601	5	1	n/a	n/a	n/a	n/a	n/a
3882.022	n/a	RECOG_LURE	1941011	n/a	LTP122	ltpFR	1	1	n/a	LABEL	790	2	n/a	n/a	n/a	n/a	n/a	n/a
3883.624	n/a	RECOG_RESP	1941812	n/a	LTP122	ltpFR	1	1	n/a	LABEL	790	n/a	n/a	n/a	n/a	n/a	n/a	n/a
3885.002	n/a	RECOG_CONF	1942501	n/a	LTP122	ltpFR	1	1	n/a	LABEL	790	2	n/a	n/a	n/a	n/a	n/a	n/a
3886.694	n/a	RECOG_LURE	1943347	n/a	LTP122	ltpFR	1	1	n/a	DRIVEWAY	500	3	n/a	n/a	n/a	n/a	n/a	n/a
3887.944	n/a	RECOG_RESP	1943972	n/a	LTP122	ltpFR	1	1	n/a	DRIVEWAY	500	n/a	n/a	n/a	n/a	n/a	n/a	n/a
3889.252	n/a	RECOG_CONF	1944626	n/a	LTP122	ltpFR	1	1	n/a	DRIVEWAY	500	3	n/a	n/a	n/a	n/a	n/a	n/a
3890.986	n/a	RECOG_LURE	1945493	n/a	LTP122	ltpFR	1	1	n/a	TEENAGER	1444	2	n/a	n/a	n/a	n/a	n/a	n/a
3892.57	n/a	RECOG_RESP	1946285	n/a	LTP122	ltpFR	1	1	n/a	TEENAGER	1444	n/a	n/a	n/a	n/a	n/a	n/a	n/a
3894.002	n/a	RECOG_CONF	1947001	n/a	LTP122	ltpFR	1	1	n/a	TEENAGER	1444	2	n/a	n/a	n/a	n/a	n/a	n/a
3895.692	n/a	RECOG_TARGET	1947846	n/a	LTP122	ltpFR	1	1	0	BARLEY	88	5	0	n/a	n/a	n/a	n/a	n/a
3896.596	n/a	RECOG_RESP	1948298	n/a	LTP122	ltpFR	1	1	0	BARLEY	88	n/a	0	n/a	n/a	n/a	n/a	n/a
3897.904	n/a	RECOG_CONF	1948952	n/a	LTP122	ltpFR	1	1	0	BARLEY	88	5	0	n/a	n/a	n/a	n/a	n/a
3899.532	n/a	RECOG_TARGET	1949766	n/a	LTP122	ltpFR	1	1	0	MOTORCYCLE	923	5	1	n/a	n/a	n/a	n/a	n/a
3900.258	n/a	RECOG_RESP	1950129	n/a	LTP122	ltpFR	1	1	0	MOTORCYCLE	923	n/a	1	n/a	n/a	n/a	n/a	n/a
3901.634	n/a	RECOG_CONF	1950817	n/a	LTP122	ltpFR	1	1	0	MOTORCYCLE	923	5	1	n/a	n/a	n/a	n/a	n/a
3914.048	n/a	REC_START	1957024	n/a	LTP122	ltpFR	1	2	n/a	n/a	n/a	n/a	n/a	n/a	n/a	n/a	n/a	n/a
3914.078	n/a	RECOG_TARGET	1957039	n/a	LTP122	ltpFR	1	2	-1	CHILD	299	5	-1	n/a	n/a	n/a	n/a	n/a
3914.796	n/a	RECOG_RESP	1957398	n/a	LTP122	ltpFR	1	2	-1	CHILD	299	n/a	-1	n/a	n/a	n/a	n/a	n/a
3915.998	n/a	RECOG_CONF	1957999	n/a	LTP122	ltpFR	1	2	-1	CHILD	299	5	-1	n/a	n/a	n/a	n/a	n/a
3917.752	n/a	RECOG_LURE	1958876	n/a	LTP122	ltpFR	1	2	n/a	BROOK	177	5	n/a	n/a	n/a	n/a	n/a	n/a
3918.528	n/a	RECOG_RESP	1959264	n/a	LTP122	ltpFR	1	2	n/a	BROOK	177	n/a	n/a	n/a	n/a	n/a	n/a	n/a
3920.458	n/a	RECOG_CONF	1960229	n/a	LTP122	ltpFR	1	2	n/a	BROOK	177	5	n/a	n/a	n/a	n/a	n/a	n/a
3922.16	n/a	RECOG_LURE	1961080	n/a	LTP122	ltpFR	1	2	n/a	LASER	801	2	n/a	n/a	n/a	n/a	n/a	n/a
3924.998	n/a	RECOG_RESP	1962499	n/a	LTP122	ltpFR	1	2	n/a	LASER	801	n/a	n/a	n/a	n/a	n/a	n/a	n/a
3926.284	n/a	RECOG_CONF	1963142	n/a	LTP122	ltpFR	1	2	n/a	LASER	801	2	n/a	n/a	n/a	n/a	n/a	n/a
3927.998	n/a	RECOG_TARGET	1963999	n/a	LTP122	ltpFR	1	2	1	TOWEL	1489	4	0	n/a	n/a	n/a	n/a	n/a
3929.338	n/a	RECOG_RESP	1964669	n/a	LTP122	ltpFR	1	2	1	TOWEL	1489	n/a	0	n/a	n/a	n/a	n/a	n/a
3930.676	n/a	RECOG_CONF	1965338	n/a	LTP122	ltpFR	1	2	1	TOWEL	1489	4	0	n/a	n/a	n/a	n/a	n/a
3932.106	n/a	RECOG_TARGET	1966053	n/a	LTP122	ltpFR	1	2	0	ATHLETE	52	3	1	n/a	n/a	n/a	n/a	n/a
3933.046	n/a	RECOG_RESP	1966523	n/a	LTP122	ltpFR	1	2	0	ATHLETE	52	n/a	1	n/a	n/a	n/a	n/a	n/a
3934.428	n/a	RECOG_CONF	1967214	n/a	LTP122	ltpFR	1	2	0	ATHLETE	52	3	1	n/a	n/a	n/a	n/a	n/a
3935.956	n/a	RECOG_LURE	1967978	n/a	LTP122	ltpFR	1	2	n/a	PENCIL	1042	3	n/a	n/a	n/a	n/a	n/a	n/a
3936.942	n/a	RECOG_RESP	1968471	n/a	LTP122	ltpFR	1	2	n/a	PENCIL	1042	n/a	n/a	n/a	n/a	n/a	n/a	n/a
3938.248	n/a	RECOG_CONF	1969124	n/a	LTP122	ltpFR	1	2	n/a	PENCIL	1042	3	n/a	n/a	n/a	n/a	n/a	n/a
3939.846	n/a	RECOG_TARGET	1969923	n/a	LTP122	ltpFR	1	2	0	BOSS	152	5	1	n/a	n/a	n/a	n/a	n/a
3940.608	n/a	RECOG_RESP	1970304	n/a	LTP122	ltpFR	1	2	0	BOSS	152	n/a	1	n/a	n/a	n/a	n/a	n/a
3942.05	n/a	RECOG_CONF	1971025	n/a	LTP122	ltpFR	1	2	0	BOSS	152	5	1	n/a	n/a	n/a	n/a	n/a
3943.702	n/a	RECOG_TARGET	1971851	n/a	LTP122	ltpFR	1	2	1	STRAW	1390	5	0	n/a	n/a	n/a	n/a	n/a
3944.394	n/a	RECOG_RESP	1972197	n/a	LTP122	ltpFR	1	2	1	STRAW	1390	n/a	0	n/a	n/a	n/a	n/a	n/a
3945.822	n/a	RECOG_CONF	1972911	n/a	LTP122	ltpFR	1	2	1	STRAW	1390	5	0	n/a	n/a	n/a	n/a	n/a
3947.458	n/a	RECOG_TARGET	1973729	n/a	LTP122	ltpFR	1	2	0	NEST	945	5	0	n/a	n/a	n/a	n/a	n/a
3948.216	n/a	RECOG_RESP	1974108	n/a	LTP122	ltpFR	1	2	0	NEST	945	n/a	0	n/a	n/a	n/a	n/a	n/a
3949.644	n/a	RECOG_CONF	1974822	n/a	LTP122	ltpFR	1	2	0	NEST	945	5	0	n/a	n/a	n/a	n/a	n/a
3951.234	n/a	RECOG_TARGET	1975617	n/a	LTP122	ltpFR	1	2	0	WASP	1593	5	0	n/a	n/a	n/a	n/a	n/a
3951.848	n/a	RECOG_RESP	1975924	n/a	LTP122	ltpFR	1	2	0	WASP	1593	n/a	0	n/a	n/a	n/a	n/a	n/a
3953.226	n/a	RECOG_CONF	1976613	n/a	LTP122	ltpFR	1	2	0	WASP	1593	5	0	n/a	n/a	n/a	n/a	n/a
3954.85	n/a	RECOG_TARGET	1977425	n/a	LTP122	ltpFR	1	2	1	OYSTER	995	5	1	n/a	n/a	n/a	n/a	n/a
3955.49	n/a	RECOG_RESP	1977745	n/a	LTP122	ltpFR	1	2	1	OYSTER	995	n/a	1	n/a	n/a	n/a	n/a	n/a
3956.886	n/a	RECOG_CONF	1978443	n/a	LTP122	ltpFR	1	2	1	OYSTER	995	5	1	n/a	n/a	n/a	n/a	n/a
3958.614	n/a	RECOG_TARGET	1979307	n/a	LTP122	ltpFR	1	2	0	LIBRARY	816	5	1	n/a	n/a	n/a	n/a	n/a
3959.412	n/a	RECOG_RESP	1979706	n/a	LTP122	ltpFR	1	2	0	LIBRARY	816	n/a	1	n/a	n/a	n/a	n/a	n/a
3960.878	n/a	RECOG_CONF	1980439	n/a	LTP122	ltpFR	1	2	0	LIBRARY	816	5	1	n/a	n/a	n/a	n/a	n/a
3962.472	n/a	RECOG_TARGET	1981236	n/a	LTP122	ltpFR	1	2	-1	LOVER	846	5	-1	n/a	n/a	n/a	n/a	n/a
3963.062	n/a	RECOG_RESP	1981531	n/a	LTP122	ltpFR	1	2	-1	LOVER	846	n/a	-1	n/a	n/a	n/a	n/a	n/a
3964.74	n/a	RECOG_CONF	1982370	n/a	LTP122	ltpFR	1	2	-1	LOVER	846	5	-1	n/a	n/a	n/a	n/a	n/a
3966.436	n/a	RECOG_TARGET	1983218	n/a	LTP122	ltpFR	1	2	1	LUNCH	849	3	0	n/a	n/a	n/a	n/a	n/a
3967.824	n/a	RECOG_RESP	1983912	n/a	LTP122	ltpFR	1	2	1	LUNCH	849	n/a	0	n/a	n/a	n/a	n/a	n/a
3969.12	n/a	RECOG_CONF	1984560	n/a	LTP122	ltpFR	1	2	1	LUNCH	849	3	0	n/a	n/a	n/a	n/a	n/a
3970.954	n/a	RECOG_TARGET	1985477	n/a	LTP122	ltpFR	1	2	-1	FILM	565	5	-1	n/a	n/a	n/a	n/a	n/a
3971.684	n/a	RECOG_RESP	1985842	n/a	LTP122	ltpFR	1	2	-1	FILM	565	n/a	-1	n/a	n/a	n/a	n/a	n/a
3972.912	n/a	RECOG_CONF	1986456	n/a	LTP122	ltpFR	1	2	-1	FILM	565	5	-1	n/a	n/a	n/a	n/a	n/a
3974.542	n/a	RECOG_LURE	1987271	n/a	LTP122	ltpFR	1	2	n/a	TANK	1432	3	n/a	n/a	n/a	n/a	n/a	n/a
3975.656	n/a	RECOG_RESP	1987828	n/a	LTP122	ltpFR	1	2	n/a	TANK	1432	n/a	n/a	n/a	n/a	n/a	n/a	n/a
3977.062	n/a	RECOG_CONF	1988531	n/a	LTP122	ltpFR	1	2	n/a	TANK	1432	3	n/a	n/a	n/a	n/a	n/a	n/a
3978.558	n/a	RECOG_LURE	1989279	n/a	LTP122	ltpFR	1	2	n/a	WAITRESS	1581	4	n/a	n/a	n/a	n/a	n/a	n/a
3979.402	n/a	RECOG_RESP	1989701	n/a	LTP122	ltpFR	1	2	n/a	WAITRESS	1581	n/a	n/a	n/a	n/a	n/a	n/a	n/a
3980.664	n/a	RECOG_CONF	1990332	n/a	LTP122	ltpFR	1	2	n/a	WAITRESS	1581	4	n/a	n/a	n/a	n/a	n/a	n/a
3982.298	n/a	RECOG_TARGET	1991149	n/a	LTP122	ltpFR	1	2	1	NIECE	952	5	1	n/a	n/a	n/a	n/a	n/a
3983.054	n/a	RECOG_RESP	1991527	n/a	LTP122	ltpFR	1	2	1	NIECE	952	n/a	1	n/a	n/a	n/a	n/a	n/a
3984.336	n/a	RECOG_CONF	1992168	n/a	LTP122	ltpFR	1	2	1	NIECE	952	5	1	n/a	n/a	n/a	n/a	n/a
3986.082	n/a	RECOG_TARGET	1993041	n/a	LTP122	ltpFR	1	2	0	KNUCKLE	789	4	0	n/a	n/a	n/a	n/a	n/a
3987.39	n/a	RECOG_RESP	1993695	n/a	LTP122	ltpFR	1	2	0	KNUCKLE	789	n/a	0	n/a	n/a	n/a	n/a	n/a
3988.716	n/a	RECOG_CONF	1994358	n/a	LTP122	ltpFR	1	2	0	KNUCKLE	789	4	0	n/a	n/a	n/a	n/a	n/a
3990.14	n/a	RECOG_TARGET	1995070	n/a	LTP122	ltpFR	1	2	0	BONE	148	5	0	n/a	n/a	n/a	n/a	n/a
3990.862	n/a	RECOG_RESP	1995431	n/a	LTP122	ltpFR	1	2	0	BONE	148	n/a	0	n/a	n/a	n/a	n/a	n/a
3992.268	n/a	RECOG_CONF	1996134	n/a	LTP122	ltpFR	1	2	0	BONE	148	5	0	n/a	n/a	n/a	n/a	n/a
4001.982	n/a	REC_START	2000991	n/a	LTP122	ltpFR	1	3	n/a	n/a	n/a	n/a	n/a	n/a	n/a	n/a	n/a	n/a
4002.018	n/a	RECOG_TARGET	2001009	n/a	LTP122	ltpFR	1	3	-1	VAMPIRE	1547	5	-1	n/a	n/a	n/a	n/a	n/a
4002.66	n/a	RECOG_RESP	2001330	n/a	LTP122	ltpFR	1	3	-1	VAMPIRE	1547	n/a	-1	n/a	n/a	n/a	n/a	n/a
4003.922	n/a	RECOG_CONF	2001961	n/a	LTP122	ltpFR	1	3	-1	VAMPIRE	1547	5	-1	n/a	n/a	n/a	n/a	n/a
4005.482	n/a	RECOG_TARGET	2002741	n/a	LTP122	ltpFR	1	3	1	PREACHER	1119	4	1	n/a	n/a	n/a	n/a	n/a
4006.702	n/a	RECOG_RESP	2003351	n/a	LTP122	ltpFR	1	3	1	PREACHER	1119	n/a	1	n/a	n/a	n/a	n/a	n/a
4007.954	n/a	RECOG_CONF	2003977	n/a	LTP122	ltpFR	1	3	1	PREACHER	1119	4	1	n/a	n/a	n/a	n/a	n/a
4009.598	n/a	RECOG_TARGET	2004799	n/a	LTP122	ltpFR	1	3	-1	BUTTER	205	5	-1	n/a	n/a	n/a	n/a	n/a
4010.34	n/a	RECOG_RESP	2005170	n/a	LTP122	ltpFR	1	3	-1	BUTTER	205	n/a	-1	n/a	n/a	n/a	n/a	n/a
4011.686	n/a	RECOG_CONF	2005843	n/a	LTP122	ltpFR	1	3	-1	BUTTER	205	5	-1	n/a	n/a	n/a	n/a	n/a
4013.456	n/a	RECOG_TARGET	2006728	n/a	LTP122	ltpFR	1	3	0	CONDUCTOR	362	4	1	n/a	n/a	n/a	n/a	n/a
4014.53	n/a	RECOG_RESP	2007265	n/a	LTP122	ltpFR	1	3	0	CONDUCTOR	362	n/a	1	n/a	n/a	n/a	n/a	n/a
4015.986	n/a	RECOG_CONF	2007993	n/a	LTP122	ltpFR	1	3	0	CONDUCTOR	362	4	1	n/a	n/a	n/a	n/a	n/a
4017.68	n/a	RECOG_TARGET	2008840	n/a	LTP122	ltpFR	1	3	0	JUPITER	765	5	1	n/a	n/a	n/a	n/a	n/a
4018.302	n/a	RECOG_RESP	2009151	n/a	LTP122	ltpFR	1	3	0	JUPITER	765	n/a	1	n/a	n/a	n/a	n/a	n/a
4019.958	n/a	RECOG_CONF	2009979	n/a	LTP122	ltpFR	1	3	0	JUPITER	765	5	1	n/a	n/a	n/a	n/a	n/a
4021.378	n/a	RECOG_TARGET	2010689	n/a	LTP122	ltpFR	1	3	0	TOENAIL	1474	3	0	n/a	n/a	n/a	n/a	n/a
4022.98	n/a	RECOG_RESP	2011490	n/a	LTP122	ltpFR	1	3	0	TOENAIL	1474	n/a	0	n/a	n/a	n/a	n/a	n/a
4024.428	n/a	RECOG_CONF	2012214	n/a	LTP122	ltpFR	1	3	0	TOENAIL	1474	3	0	n/a	n/a	n/a	n/a	n/a
4026.086	n/a	RECOG_TARGET	2013043	n/a	LTP122	ltpFR	1	3	1	DOCK	477	5	0	n/a	n/a	n/a	n/a	n/a
4026.862	n/a	RECOG_RESP	2013431	n/a	LTP122	ltpFR	1	3	1	DOCK	477	n/a	0	n/a	n/a	n/a	n/a	n/a
4028.3	n/a	RECOG_CONF	2014150	n/a	LTP122	ltpFR	1	3	1	DOCK	477	5	0	n/a	n/a	n/a	n/a	n/a
4029.944	n/a	RECOG_TARGET	2014972	n/a	LTP122	ltpFR	1	3	-1	GAUZE	626	5	-1	n/a	n/a	n/a	n/a	n/a
4030.68	n/a	RECOG_RESP	2015340	n/a	LTP122	ltpFR	1	3	-1	GAUZE	626	n/a	-1	n/a	n/a	n/a	n/a	n/a
4032.1	n/a	RECOG_CONF	2016050	n/a	LTP122	ltpFR	1	3	-1	GAUZE	626	5	-1	n/a	n/a	n/a	n/a	n/a
4033.742	n/a	RECOG_TARGET	2016871	n/a	LTP122	ltpFR	1	3	-1	JUG	762	5	-1	n/a	n/a	n/a	n/a	n/a
4034.356	n/a	RECOG_RESP	2017178	n/a	LTP122	ltpFR	1	3	-1	JUG	762	n/a	-1	n/a	n/a	n/a	n/a	n/a
4035.842	n/a	RECOG_CONF	2017921	n/a	LTP122	ltpFR	1	3	-1	JUG	762	5	-1	n/a	n/a	n/a	n/a	n/a
4037.382	n/a	RECOG_TARGET	2018691	n/a	LTP122	ltpFR	1	3	-1	CAFETERIA	217	5	-1	n/a	n/a	n/a	n/a	n/a
4038.028	n/a	RECOG_RESP	2019014	n/a	LTP122	ltpFR	1	3	-1	CAFETERIA	217	n/a	-1	n/a	n/a	n/a	n/a	n/a
4039.414	n/a	RECOG_CONF	2019707	n/a	LTP122	ltpFR	1	3	-1	CAFETERIA	217	5	-1	n/a	n/a	n/a	n/a	n/a
4041.156	n/a	RECOG_TARGET	2020578	n/a	LTP122	ltpFR	1	3	1	POLICE	1098	5	1	n/a	n/a	n/a	n/a	n/a
4041.738	n/a	RECOG_RESP	2020869	n/a	LTP122	ltpFR	1	3	1	POLICE	1098	n/a	1	n/a	n/a	n/a	n/a	n/a
4043.326	n/a	RECOG_CONF	2021663	n/a	LTP122	ltpFR	1	3	1	POLICE	1098	5	1	n/a	n/a	n/a	n/a	n/a
4045.006	n/a	RECOG_TARGET	2022503	n/a	LTP122	ltpFR	1	3	-1	SUPERMARKET	1409	5	-1	n/a	n/a	n/a	n/a	n/a
4045.602	n/a	RECOG_RESP	2022801	n/a	LTP122	ltpFR	1	3	-1	SUPERMARKET	1409	n/a	-1	n/a	n/a	n/a	n/a	n/a
4046.988	n/a	RECOG_CONF	2023494	n/a	LTP122	ltpFR	1	3	-1	SUPERMARKET	1409	5	-1	n/a	n/a	n/a	n/a	n/a
4048.588	n/a	RECOG_TARGET	2024294	n/a	LTP122	ltpFR	1	3	1	DONKEY	484	4	1	n/a	n/a	n/a	n/a	n/a
4049.522	n/a	RECOG_RESP	2024761	n/a	LTP122	ltpFR	1	3	1	DONKEY	484	n/a	1	n/a	n/a	n/a	n/a	n/a
4050.84	n/a	RECOG_CONF	2025420	n/a	LTP122	ltpFR	1	3	1	DONKEY	484	4	1	n/a	n/a	n/a	n/a	n/a
4052.46	n/a	RECOG_TARGET	2026230	n/a	LTP122	ltpFR	1	3	0	TRANSPLANT	1496	5	1	n/a	n/a	n/a	n/a	n/a
4053.064	n/a	RECOG_RESP	2026532	n/a	LTP122	ltpFR	1	3	0	TRANSPLANT	1496	n/a	1	n/a	n/a	n/a	n/a	n/a
4054.67	n/a	RECOG_CONF	2027335	n/a	LTP122	ltpFR	1	3	0	TRANSPLANT	1496	5	1	n/a	n/a	n/a	n/a	n/a
4056.35	n/a	RECOG_TARGET	2028175	n/a	LTP122	ltpFR	1	3	0	SKELETON	1314	5	1	n/a	n/a	n/a	n/a	n/a
4057.036	n/a	RECOG_RESP	2028518	n/a	LTP122	ltpFR	1	3	0	SKELETON	1314	n/a	1	n/a	n/a	n/a	n/a	n/a
4058.282	n/a	RECOG_CONF	2029141	n/a	LTP122	ltpFR	1	3	0	SKELETON	1314	5	1	n/a	n/a	n/a	n/a	n/a
4060.0	n/a	RECOG_TARGET	2030000	n/a	LTP122	ltpFR	1	3	0	PLUMBER	1091	4	1	n/a	n/a	n/a	n/a	n/a
4060.826	n/a	RECOG_RESP	2030413	n/a	LTP122	ltpFR	1	3	0	PLUMBER	1091	n/a	1	n/a	n/a	n/a	n/a	n/a
4062.144	n/a	RECOG_CONF	2031072	n/a	LTP122	ltpFR	1	3	0	PLUMBER	1091	4	1	n/a	n/a	n/a	n/a	n/a
4063.724	n/a	RECOG_TARGET	2031862	n/a	LTP122	ltpFR	1	3	-1	TROMBONE	1508	5	-1	n/a	n/a	n/a	n/a	n/a
4064.31	n/a	RECOG_RESP	2032155	n/a	LTP122	ltpFR	1	3	-1	TROMBONE	1508	n/a	-1	n/a	n/a	n/a	n/a	n/a
4065.626	n/a	RECOG_CONF	2032813	n/a	LTP122	ltpFR	1	3	-1	TROMBONE	1508	5	-1	n/a	n/a	n/a	n/a	n/a
4067.256	n/a	RECOG_TARGET	2033628	n/a	LTP122	ltpFR	1	3	-1	INTESTINE	742	5	-1	n/a	n/a	n/a	n/a	n/a
4067.982	n/a	RECOG_RESP	2033991	n/a	LTP122	ltpFR	1	3	-1	INTESTINE	742	n/a	-1	n/a	n/a	n/a	n/a	n/a
4069.428	n/a	RECOG_CONF	2034714	n/a	LTP122	ltpFR	1	3	-1	INTESTINE	742	5	-1	n/a	n/a	n/a	n/a	n/a
4071.19	n/a	RECOG_LURE	2035595	n/a	LTP122	ltpFR	1	3	n/a	STABLE	1363	2	n/a	n/a	n/a	n/a	n/a	n/a
4073.06	n/a	RECOG_RESP	2036530	n/a	LTP122	ltpFR	1	3	n/a	STABLE	1363	n/a	n/a	n/a	n/a	n/a	n/a	n/a
4074.476	n/a	RECOG_CONF	2037238	n/a	LTP122	ltpFR	1	3	n/a	STABLE	1363	2	n/a	n/a	n/a	n/a	n/a	n/a
4076.072	n/a	RECOG_TARGET	2038036	n/a	LTP122	ltpFR	1	3	1	ASH	44	5	0	n/a	n/a	n/a	n/a	n/a
4076.722	n/a	RECOG_RESP	2038361	n/a	LTP122	ltpFR	1	3	1	ASH	44	n/a	0	n/a	n/a	n/a	n/a	n/a
4078.348	n/a	RECOG_CONF	2039174	n/a	LTP122	ltpFR	1	3	1	ASH	44	5	0	n/a	n/a	n/a	n/a	n/a
4089.518	n/a	REC_START	2044759	n/a	LTP122	ltpFR	1	4	n/a	n/a	n/a	n/a	n/a	n/a	n/a	n/a	n/a	n/a
4089.55	n/a	RECOG_LURE	2044775	n/a	LTP122	ltpFR	1	4	n/a	SODA	1341	2	n/a	n/a	n/a	n/a	n/a	n/a
4090.36	n/a	RECOG_RESP	2045180	n/a	LTP122	ltpFR	1	4	n/a	SODA	1341	n/a	n/a	n/a	n/a	n/a	n/a	n/a
4091.528	n/a	RECOG_CONF	2045764	n/a	LTP122	ltpFR	1	4	n/a	SODA	1341	2	n/a	n/a	n/a	n/a	n/a	n/a
4093.058	n/a	RECOG_TARGET	2046529	n/a	LTP122	ltpFR	1	4	1	BOUQUET	157	5	0	n/a	n/a	n/a	n/a	n/a
4093.668	n/a	RECOG_RESP	2046834	n/a	LTP122	ltpFR	1	4	1	BOUQUET	157	n/a	0	n/a	n/a	n/a	n/a	n/a
4094.81	n/a	RECOG_CONF	2047405	n/a	LTP122	ltpFR	1	4	1	BOUQUET	157	5	0	n/a	n/a	n/a	n/a	n/a
4096.422	n/a	RECOG_TARGET	2048211	n/a	LTP122	ltpFR	1	4	0	SHOWER	1296	3	1	n/a	n/a	n/a	n/a	n/a
4096.956	n/a	RECOG_RESP	2048478	n/a	LTP122	ltpFR	1	4	0	SHOWER	1296	n/a	1	n/a	n/a	n/a	n/a	n/a
4098.172	n/a	RECOG_CONF	2049086	n/a	LTP122	ltpFR	1	4	0	SHOWER	1296	3	1	n/a	n/a	n/a	n/a	n/a
4099.67	n/a	RECOG_LURE	2049835	n/a	LTP122	ltpFR	1	4	n/a	RULER	1216	2	n/a	n/a	n/a	n/a	n/a	n/a
4100.358	n/a	RECOG_RESP	2050179	n/a	LTP122	ltpFR	1	4	n/a	RULER	1216	n/a	n/a	n/a	n/a	n/a	n/a	n/a
4101.516	n/a	RECOG_CONF	2050758	n/a	LTP122	ltpFR	1	4	n/a	RULER	1216	2	n/a	n/a	n/a	n/a	n/a	n/a
4102.93	n/a	RECOG_TARGET	2051465	n/a	LTP122	ltpFR	1	4	1	PICKLE	1059	4	0	n/a	n/a	n/a	n/a	n/a
4103.442	n/a	RECOG_RESP	2051721	n/a	LTP122	ltpFR	1	4	1	PICKLE	1059	n/a	0	n/a	n/a	n/a	n/a	n/a
4104.6	n/a	RECOG_CONF	2052300	n/a	LTP122	ltpFR	1	4	1	PICKLE	1059	4	0	n/a	n/a	n/a	n/a	n/a
4106.054	n/a	RECOG_TARGET	2053027	n/a	LTP122	ltpFR	1	4	-1	SAND	1230	5	-1	n/a	n/a	n/a	n/a	n/a
4106.644	n/a	RECOG_RESP	2053322	n/a	LTP122	ltpFR	1	4	-1	SAND	1230	n/a	-1	n/a	n/a	n/a	n/a	n/a
4107.722	n/a	RECOG_CONF	2053861	n/a	LTP122	ltpFR	1	4	-1	SAND	1230	5	-1	n/a	n/a	n/a	n/a	n/a
4109.268	n/a	RECOG_TARGET	2054634	n/a	LTP122	ltpFR	1	4	0	HERB	704	5	0	n/a	n/a	n/a	n/a	n/a
4109.896	n/a	RECOG_RESP	2054948	n/a	LTP122	ltpFR	1	4	0	HERB	704	n/a	0	n/a	n/a	n/a	n/a	n/a
4111.004	n/a	RECOG_CONF	2055502	n/a	LTP122	ltpFR	1	4	0	HERB	704	5	0	n/a	n/a	n/a	n/a	n/a
4112.6	n/a	RECOG_TARGET	2056300	n/a	LTP122	ltpFR	1	4	1	SKULL	1320	5	0	n/a	n/a	n/a	n/a	n/a
4113.214	n/a	RECOG_RESP	2056607	n/a	LTP122	ltpFR	1	4	1	SKULL	1320	n/a	0	n/a	n/a	n/a	n/a	n/a
4114.416	n/a	RECOG_CONF	2057208	n/a	LTP122	ltpFR	1	4	1	SKULL	1320	5	0	n/a	n/a	n/a	n/a	n/a
4115.9	n/a	RECOG_TARGET	2057950	n/a	LTP122	ltpFR	1	4	-1	TERMINAL	1450	5	-1	n/a	n/a	n/a	n/a	n/a
4116.512	n/a	RECOG_RESP	2058256	n/a	LTP122	ltpFR	1	4	-1	TERMINAL	1450	n/a	-1	n/a	n/a	n/a	n/a	n/a
4117.72	n/a	RECOG_CONF	2058860	n/a	LTP122	ltpFR	1	4	-1	TERMINAL	1450	5	-1	n/a	n/a	n/a	n/a	n/a
4119.166	n/a	RECOG_TARGET	2059583	n/a	LTP122	ltpFR	1	4	-1	CAFE	216	5	-1	n/a	n/a	n/a	n/a	n/a
4119.754	n/a	RECOG_RESP	2059877	n/a	LTP122	ltpFR	1	4	-1	CAFE	216	n/a	-1	n/a	n/a	n/a	n/a	n/a
4121.002	n/a	RECOG_CONF	2060501	n/a	LTP122	ltpFR	1	4	-1	CAFE	216	5	-1	n/a	n/a	n/a	n/a	n/a
4122.606	n/a	RECOG_TARGET	2061303	n/a	LTP122	ltpFR	1	4	1	MANAGER	863	1	1	n/a	n/a	n/a	n/a	n/a
4123.676	n/a	RECOG_RESP	2061838	n/a	LTP122	ltpFR	1	4	1	MANAGER	863	n/a	1	n/a	n/a	n/a	n/a	n/a
4124.754	n/a	RECOG_CONF	2062377	n/a	LTP122	ltpFR	1	4	1	MANAGER	863	1	1	n/a	n/a	n/a	n/a	n/a
4126.33	n/a	RECOG_TARGET	2063165	n/a	LTP122	ltpFR	1	4	1	PUBLISHER	1137	5	1	n/a	n/a	n/a	n/a	n/a
4126.95	n/a	RECOG_RESP	2063475	n/a	LTP122	ltpFR	1	4	1	PUBLISHER	1137	n/a	1	n/a	n/a	n/a	n/a	n/a
4128.206	n/a	RECOG_CONF	2064103	n/a	LTP122	ltpFR	1	4	1	PUBLISHER	1137	5	1	n/a	n/a	n/a	n/a	n/a
4129.938	n/a	RECOG_TARGET	2064969	n/a	LTP122	ltpFR	1	4	1	SUPERVISOR	1410	2	1	n/a	n/a	n/a	n/a	n/a
4130.82	n/a	RECOG_RESP	2065410	n/a	LTP122	ltpFR	1	4	1	SUPERVISOR	1410	n/a	1	n/a	n/a	n/a	n/a	n/a
4131.998	n/a	RECOG_CONF	2065999	n/a	LTP122	ltpFR	1	4	1	SUPERVISOR	1410	2	1	n/a	n/a	n/a	n/a	n/a
4133.594	n/a	RECOG_TARGET	2066797	n/a	LTP122	ltpFR	1	4	-1	ROD	1203	5	-1	n/a	n/a	n/a	n/a	n/a
4134.282	n/a	RECOG_RESP	2067141	n/a	LTP122	ltpFR	1	4	-1	ROD	1203	n/a	-1	n/a	n/a	n/a	n/a	n/a
4135.514	n/a	RECOG_CONF	2067757	n/a	LTP122	ltpFR	1	4	-1	ROD	1203	5	-1	n/a	n/a	n/a	n/a	n/a
4137.16	n/a	RECOG_TARGET	2068580	n/a	LTP122	ltpFR	1	4	-1	OAR	966	5	-1	n/a	n/a	n/a	n/a	n/a
4137.902	n/a	RECOG_RESP	2068951	n/a	LTP122	ltpFR	1	4	-1	OAR	966	n/a	-1	n/a	n/a	n/a	n/a	n/a
4139.192	n/a	RECOG_CONF	2069596	n/a	LTP122	ltpFR	1	4	-1	OAR	966	5	-1	n/a	n/a	n/a	n/a	n/a
4140.784	n/a	RECOG_TARGET	2070392	n/a	LTP122	ltpFR	1	4	-1	BOWL	158	5	-1	n/a	n/a	n/a	n/a	n/a
4141.518	n/a	RECOG_RESP	2070759	n/a	LTP122	ltpFR	1	4	-1	BOWL	158	n/a	-1	n/a	n/a	n/a	n/a	n/a
4142.814	n/a	RECOG_CONF	2071407	n/a	LTP122	ltpFR	1	4	-1	BOWL	158	5	-1	n/a	n/a	n/a	n/a	n/a
4144.534	n/a	RECOG_TARGET	2072267	n/a	LTP122	ltpFR	1	4	0	BEET	115	4	0	n/a	n/a	n/a	n/a	n/a
4145.464	n/a	RECOG_RESP	2072732	n/a	LTP122	ltpFR	1	4	0	BEET	115	n/a	0	n/a	n/a	n/a	n/a	n/a
4146.796	n/a	RECOG_CONF	2073398	n/a	LTP122	ltpFR	1	4	0	BEET	115	4	0	n/a	n/a	n/a	n/a	n/a
4148.398	n/a	RECOG_TARGET	2074199	n/a	LTP122	ltpFR	1	4	1	CHECKERS	285	4	0	n/a	n/a	n/a	n/a	n/a
4149.17	n/a	RECOG_RESP	2074585	n/a	LTP122	ltpFR	1	4	1	CHECKERS	285	n/a	0	n/a	n/a	n/a	n/a	n/a
4150.586	n/a	RECOG_CONF	2075293	n/a	LTP122	ltpFR	1	4	1	CHECKERS	285	4	0	n/a	n/a	n/a	n/a	n/a
4152.232	n/a	RECOG_TARGET	2076116	n/a	LTP122	ltpFR	1	4	-1	LONDON	843	5	-1	n/a	n/a	n/a	n/a	n/a
4152.786	n/a	RECOG_RESP	2076393	n/a	LTP122	ltpFR	1	4	-1	LONDON	843	n/a	-1	n/a	n/a	n/a	n/a	n/a
4153.988	n/a	RECOG_CONF	2076994	n/a	LTP122	ltpFR	1	4	-1	LONDON	843	5	-1	n/a	n/a	n/a	n/a	n/a
4155.696	n/a	RECOG_TARGET	2077848	n/a	LTP122	ltpFR	1	4	0	TIDE	1465	5	1	n/a	n/a	n/a	n/a	n/a
4156.394	n/a	RECOG_RESP	2078197	n/a	LTP122	ltpFR	1	4	0	TIDE	1465	n/a	1	n/a	n/a	n/a	n/a	n/a
4157.63	n/a	RECOG_CONF	2078815	n/a	LTP122	ltpFR	1	4	0	TIDE	1465	5	1	n/a	n/a	n/a	n/a	n/a
4172.716	n/a	REC_START	2086358	n/a	LTP122	ltpFR	1	5	n/a	n/a	n/a	n/a	n/a	n/a	n/a	n/a	n/a	n/a
4172.748	n/a	RECOG_TARGET	2086374	n/a	LTP122	ltpFR	1	5	1	GARAGE	621	2	0	n/a	n/a	n/a	n/a	n/a
4173.558	n/a	RECOG_RESP	2086779	n/a	LTP122	ltpFR	1	5	1	GARAGE	621	n/a	0	n/a	n/a	n/a	n/a	n/a
4174.696	n/a	RECOG_CONF	2087348	n/a	LTP122	ltpFR	1	5	1	GARAGE	621	2	0	n/a	n/a	n/a	n/a	n/a
4176.182	n/a	RECOG_TARGET	2088091	n/a	LTP122	ltpFR	1	5	1	DRINK	498	5	0	n/a	n/a	n/a	n/a	n/a
4176.88	n/a	RECOG_RESP	2088440	n/a	LTP122	ltpFR	1	5	1	DRINK	498	n/a	0	n/a	n/a	n/a	n/a	n/a
4177.968	n/a	RECOG_CONF	2088984	n/a	LTP122	ltpFR	1	5	1	DRINK	498	5	0	n/a	n/a	n/a	n/a	n/a
4179.672	n/a	RECOG_TARGET	2089836	n/a	LTP122	ltpFR	1	5	-1	SHEEP	1278	2	-1	n/a	n/a	n/a	n/a	n/a
4180.244	n/a	RECOG_RESP	2090122	n/a	LTP122	ltpFR	1	5	-1	SHEEP	1278	n/a	-1	n/a	n/a	n/a	n/a	n/a
4181.67	n/a	RECOG_CONF	2090835	n/a	LTP122	ltpFR	1	5	-1	SHEEP	1278	2	-1	n/a	n/a	n/a	n/a	n/a
4183.148	n/a	RECOG_LURE	2091574	n/a	LTP122	ltpFR	1	5	n/a	ROCKET	1202	2	n/a	n/a	n/a	n/a	n/a	n/a
4183.632	n/a	RECOG_RESP	2091816	n/a	LTP122	ltpFR	1	5	n/a	ROCKET	1202	n/a	n/a	n/a	n/a	n/a	n/a	n/a
4185.292	n/a	RECOG_CONF	2092646	n/a	LTP122	ltpFR	1	5	n/a	ROCKET	1202	2	n/a	n/a	n/a	n/a	n/a	n/a
4186.812	n/a	RECOG_TARGET	2093406	n/a	LTP122	ltpFR	1	5	-1	SEA	1259	2	-1	n/a	n/a	n/a	n/a	n/a
4188.556	n/a	RECOG_RESP	2094278	n/a	LTP122	ltpFR	1	5	-1	SEA	1259	n/a	-1	n/a	n/a	n/a	n/a	n/a
4189.722	n/a	RECOG_CONF	2094861	n/a	LTP122	ltpFR	1	5	-1	SEA	1259	2	-1	n/a	n/a	n/a	n/a	n/a
4191.268	n/a	RECOG_TARGET	2095634	n/a	LTP122	ltpFR	1	5	0	BUGLE	189	1	0	n/a	n/a	n/a	n/a	n/a
4191.968	n/a	RECOG_RESP	2095984	n/a	LTP122	ltpFR	1	5	0	BUGLE	189	n/a	0	n/a	n/a	n/a	n/a	n/a
4193.404	n/a	RECOG_CONF	2096702	n/a	LTP122	ltpFR	1	5	0	BUGLE	189	1	0	n/a	n/a	n/a	n/a	n/a
4194.86	n/a	RECOG_TARGET	2097430	n/a	LTP122	ltpFR	1	5	0	TOOL	1480	5	0	n/a	n/a	n/a	n/a	n/a
4195.56	n/a	RECOG_RESP	2097780	n/a	LTP122	ltpFR	1	5	0	TOOL	1480	n/a	0	n/a	n/a	n/a	n/a	n/a
4196.756	n/a	RECOG_CONF	2098378	n/a	LTP122	ltpFR	1	5	0	TOOL	1480	5	0	n/a	n/a	n/a	n/a	n/a
4198.35	n/a	RECOG_TARGET	2099175	n/a	LTP122	ltpFR	1	5	-1	ENGINE	535	5	-1	n/a	n/a	n/a	n/a	n/a
4198.908	n/a	RECOG_RESP	2099454	n/a	LTP122	ltpFR	1	5	-1	ENGINE	535	n/a	-1	n/a	n/a	n/a	n/a	n/a
4200.25	n/a	RECOG_CONF	2100125	n/a	LTP122	ltpFR	1	5	-1	ENGINE	535	5	-1	n/a	n/a	n/a	n/a	n/a
4201.698	n/a	RECOG_TARGET	2100849	n/a	LTP122	ltpFR	1	5	0	SWAN	1417	2	1	n/a	n/a	n/a	n/a	n/a
4202.794	n/a	RECOG_RESP	2101397	n/a	LTP122	ltpFR	1	5	0	SWAN	1417	n/a	1	n/a	n/a	n/a	n/a	n/a
4203.982	n/a	RECOG_CONF	2101991	n/a	LTP122	ltpFR	1	5	0	SWAN	1417	2	1	n/a	n/a	n/a	n/a	n/a
4205.772	n/a	RECOG_LURE	2102886	n/a	LTP122	ltpFR	1	5	n/a	STADIUM	1364	1	n/a	n/a	n/a	n/a	n/a	n/a
4206.696	n/a	RECOG_RESP	2103348	n/a	LTP122	ltpFR	1	5	n/a	STADIUM	1364	n/a	n/a	n/a	n/a	n/a	n/a	n/a
4207.832	n/a	RECOG_CONF	2103916	n/a	LTP122	ltpFR	1	5	n/a	STADIUM	1364	1	n/a	n/a	n/a	n/a	n/a	n/a
4209.354	n/a	RECOG_TARGET	2104677	n/a	LTP122	ltpFR	1	5	1	ANIMAL	23	3	1	n/a	n/a	n/a	n/a	n/a
4210.536	n/a	RECOG_RESP	2105268	n/a	LTP122	ltpFR	1	5	1	ANIMAL	23	n/a	1	n/a	n/a	n/a	n/a	n/a
4212.572	n/a	RECOG_CONF	2106286	n/a	LTP122	ltpFR	1	5	1	ANIMAL	23	3	1	n/a	n/a	n/a	n/a	n/a
4214.054	n/a	RECOG_TARGET	2107027	n/a	LTP122	ltpFR	1	5	0	HORNET	718	4	0	n/a	n/a	n/a	n/a	n/a
4214.816	n/a	RECOG_RESP	2107408	n/a	LTP122	ltpFR	1	5	0	HORNET	718	n/a	0	n/a	n/a	n/a	n/a	n/a
4216.104	n/a	RECOG_CONF	2108052	n/a	LTP122	ltpFR	1	5	0	HORNET	718	4	0	n/a	n/a	n/a	n/a	n/a
4217.828	n/a	RECOG_TARGET	2108914	n/a	LTP122	ltpFR	1	5	-1	BROCCOLI	176	5	-1	n/a	n/a	n/a	n/a	n/a
4218.44	n/a	RECOG_RESP	2109220	n/a	LTP122	ltpFR	1	5	-1	BROCCOLI	176	n/a	-1	n/a	n/a	n/a	n/a	n/a
4219.766	n/a	RECOG_CONF	2109883	n/a	LTP122	ltpFR	1	5	-1	BROCCOLI	176	5	-1	n/a	n/a	n/a	n/a	n/a
4221.518	n/a	RECOG_TARGET	2110759	n/a	LTP122	ltpFR	1	5	0	ROOMMATE	1207	3	1	n/a	n/a	n/a	n/a	n/a
4222.98	n/a	RECOG_RESP	2111490	n/a	LTP122	ltpFR	1	5	0	ROOMMATE	1207	n/a	1	n/a	n/a	n/a	n/a	n/a
4224.186	n/a	RECOG_CONF	2112093	n/a	LTP122	ltpFR	1	5	0	ROOMMATE	1207	3	1	n/a	n/a	n/a	n/a	n/a
4225.834	n/a	RECOG_TARGET	2112917	n/a	LTP122	ltpFR	1	5	0	ZOO	1637	5	1	n/a	n/a	n/a	n/a	n/a
4226.422	n/a	RECOG_RESP	2113211	n/a	LTP122	ltpFR	1	5	0	ZOO	1637	n/a	1	n/a	n/a	n/a	n/a	n/a
4227.538	n/a	RECOG_CONF	2113769	n/a	LTP122	ltpFR	1	5	0	ZOO	1637	5	1	n/a	n/a	n/a	n/a	n/a
4229.216	n/a	RECOG_TARGET	2114608	n/a	LTP122	ltpFR	1	5	1	DOVE	491	3	1	n/a	n/a	n/a	n/a	n/a
4229.838	n/a	RECOG_RESP	2114919	n/a	LTP122	ltpFR	1	5	1	DOVE	491	n/a	1	n/a	n/a	n/a	n/a	n/a
4231.13	n/a	RECOG_CONF	2115565	n/a	LTP122	ltpFR	1	5	1	DOVE	491	3	1	n/a	n/a	n/a	n/a	n/a
4232.788	n/a	RECOG_TARGET	2116394	n/a	LTP122	ltpFR	1	5	0	CAPTIVE	240	3	1	n/a	n/a	n/a	n/a	n/a
4233.574	n/a	RECOG_RESP	2116787	n/a	LTP122	ltpFR	1	5	0	CAPTIVE	240	n/a	1	n/a	n/a	n/a	n/a	n/a
4235.212	n/a	RECOG_CONF	2117606	n/a	LTP122	ltpFR	1	5	0	CAPTIVE	240	3	1	n/a	n/a	n/a	n/a	n/a
4236.932	n/a	RECOG_TARGET	2118466	n/a	LTP122	ltpFR	1	5	1	DESIGNER	451	5	1	n/a	n/a	n/a	n/a	n/a
4237.518	n/a	RECOG_RESP	2118759	n/a	LTP122	ltpFR	1	5	1	DESIGNER	451	n/a	1	n/a	n/a	n/a	n/a	n/a
4238.854	n/a	RECOG_CONF	2119427	n/a	LTP122	ltpFR	1	5	1	DESIGNER	451	5	1	n/a	n/a	n/a	n/a	n/a
4240.454	n/a	RECOG_LURE	2120227	n/a	LTP122	ltpFR	1	5	n/a	CLIPPERS	324	2	n/a	n/a	n/a	n/a	n/a	n/a
4241.898	n/a	RECOG_RESP	2120949	n/a	LTP122	ltpFR	1	5	n/a	CLIPPERS	324	n/a	n/a	n/a	n/a	n/a	n/a	n/a
4243.274	n/a	RECOG_CONF	2121637	n/a	LTP122	ltpFR	1	5	n/a	CLIPPERS	324	2	n/a	n/a	n/a	n/a	n/a	n/a
4244.92	n/a	RECOG_LURE	2122460	n/a	LTP122	ltpFR	1	5	n/a	TELESCOPE	1446	3	n/a	n/a	n/a	n/a	n/a	n/a
4245.838	n/a	RECOG_RESP	2122919	n/a	LTP122	ltpFR	1	5	n/a	TELESCOPE	1446	n/a	n/a	n/a	n/a	n/a	n/a	n/a
4247.224	n/a	RECOG_CONF	2123612	n/a	LTP122	ltpFR	1	5	n/a	TELESCOPE	1446	3	n/a	n/a	n/a	n/a	n/a	n/a
4255.34	n/a	REC_START	2127670	n/a	LTP122	ltpFR	1	6	n/a	n/a	n/a	n/a	n/a	n/a	n/a	n/a	n/a	n/a
4255.374	n/a	RECOG_TARGET	2127687	n/a	LTP122	ltpFR	1	6	1	TEAM	1441	1	0	n/a	n/a	n/a	n/a	n/a
4256.182	n/a	RECOG_RESP	2128091	n/a	LTP122	ltpFR	1	6	1	TEAM	1441	n/a	0	n/a	n/a	n/a	n/a	n/a
4257.3	n/a	RECOG_CONF	2128650	n/a	LTP122	ltpFR	1	6	1	TEAM	1441	1	0	n/a	n/a	n/a	n/a	n/a
4258.924	n/a	RECOG_TARGET	2129462	n/a	LTP122	ltpFR	1	6	1	NOTEBOOK	959	5	0	n/a	n/a	n/a	n/a	n/a
4259.584	n/a	RECOG_RESP	2129792	n/a	LTP122	ltpFR	1	6	1	NOTEBOOK	959	n/a	0	n/a	n/a	n/a	n/a	n/a
4260.682	n/a	RECOG_CONF	2130341	n/a	LTP122	ltpFR	1	6	1	NOTEBOOK	959	5	0	n/a	n/a	n/a	n/a	n/a
4262.322	n/a	RECOG_TARGET	2131161	n/a	LTP122	ltpFR	1	6	1	BOUILLON	154	5	0	n/a	n/a	n/a	n/a	n/a
4262.956	n/a	RECOG_RESP	2131478	n/a	LTP122	ltpFR	1	6	1	BOUILLON	154	n/a	0	n/a	n/a	n/a	n/a	n/a
4264.134	n/a	RECOG_CONF	2132067	n/a	LTP122	ltpFR	1	6	1	BOUILLON	154	5	0	n/a	n/a	n/a	n/a	n/a
4265.67	n/a	RECOG_TARGET	2132835	n/a	LTP122	ltpFR	1	6	1	WEED	1599	5	0	n/a	n/a	n/a	n/a	n/a
4266.24	n/a	RECOG_RESP	2133120	n/a	LTP122	ltpFR	1	6	1	WEED	1599	n/a	0	n/a	n/a	n/a	n/a	n/a
4267.486	n/a	RECOG_CONF	2133743	n/a	LTP122	ltpFR	1	6	1	WEED	1599	5	0	n/a	n/a	n/a	n/a	n/a
4269.154	n/a	RECOG_TARGET	2134577	n/a	LTP122	ltpFR	1	6	1	PLASTER	1085	2	0	n/a	n/a	n/a	n/a	n/a
4269.972	n/a	RECOG_RESP	2134986	n/a	LTP122	ltpFR	1	6	1	PLASTER	1085	n/a	0	n/a	n/a	n/a	n/a	n/a
4271.208	n/a	RECOG_CONF	2135604	n/a	LTP122	ltpFR	1	6	1	PLASTER	1085	2	0	n/a	n/a	n/a	n/a	n/a
4272.752	n/a	RECOG_TARGET	2136376	n/a	LTP122	ltpFR	1	6	-1	WOLF	1619	2	-1	n/a	n/a	n/a	n/a	n/a
4273.454	n/a	RECOG_RESP	2136727	n/a	LTP122	ltpFR	1	6	-1	WOLF	1619	n/a	-1	n/a	n/a	n/a	n/a	n/a
4274.592	n/a	RECOG_CONF	2137296	n/a	LTP122	ltpFR	1	6	-1	WOLF	1619	2	-1	n/a	n/a	n/a	n/a	n/a
4276.284	n/a	RECOG_TARGET	2138142	n/a	LTP122	ltpFR	1	6	-1	TOMATO	1476	5	-1	n/a	n/a	n/a	n/a	n/a
4276.816	n/a	RECOG_RESP	2138408	n/a	LTP122	ltpFR	1	6	-1	TOMATO	1476	n/a	-1	n/a	n/a	n/a	n/a	n/a
4277.944	n/a	RECOG_CONF	2138972	n/a	LTP122	ltpFR	1	6	-1	TOMATO	1476	5	-1	n/a	n/a	n/a	n/a	n/a
4279.6	n/a	RECOG_TARGET	2139800	n/a	LTP122	ltpFR	1	6	1	SHACK	1273	5	0	n/a	n/a	n/a	n/a	n/a
4280.196	n/a	RECOG_RESP	2140098	n/a	LTP122	ltpFR	1	6	1	SHACK	1273	n/a	0	n/a	n/a	n/a	n/a	n/a
4281.316	n/a	RECOG_CONF	2140658	n/a	LTP122	ltpFR	1	6	1	SHACK	1273	5	0	n/a	n/a	n/a	n/a	n/a
4282.976	n/a	RECOG_TARGET	2141488	n/a	LTP122	ltpFR	1	6	1	TRAY	1498	4	0	n/a	n/a	n/a	n/a	n/a
4284.06	n/a	RECOG_RESP_VV	2142030	n/a	LTP122	ltpFR	1	6	1	TRAY	1498	n/a	0	n/a	n/a	n/a	n/a	n/a
4284.778	n/a	RECOG_RESP	2142389	n/a	LTP122	ltpFR	1	6	1	TRAY	1498	n/a	0	n/a	n/a	n/a	n/a	n/a
4286.424	n/a	RECOG_CONF	2143212	n/a	LTP122	ltpFR	1	6	1	TRAY	1498	4	0	n/a	n/a	n/a	n/a	n/a
4288.024	n/a	RECOG_LURE	2144012	n/a	LTP122	ltpFR	1	6	n/a	BOOTH	151	2	n/a	n/a	n/a	n/a	n/a	n/a
4289.368	n/a	RECOG_RESP	2144684	n/a	LTP122	ltpFR	1	6	n/a	BOOTH	151	n/a	n/a	n/a	n/a	n/a	n/a	n/a
4290.486	n/a	RECOG_CONF	2145243	n/a	LTP122	ltpFR	1	6	n/a	BOOTH	151	2	n/a	n/a	n/a	n/a	n/a	n/a
4292.056	n/a	RECOG_TARGET	2146028	n/a	LTP122	ltpFR	1	6	-1	FELLOW	558	5	-1	n/a	n/a	n/a	n/a	n/a
4292.68	n/a	RECOG_RESP	2146340	n/a	LTP122	ltpFR	1	6	-1	FELLOW	558	n/a	-1	n/a	n/a	n/a	n/a	n/a
4293.778	n/a	RECOG_CONF	2146889	n/a	LTP122	ltpFR	1	6	-1	FELLOW	558	5	-1	n/a	n/a	n/a	n/a	n/a
4295.48	n/a	RECOG_TARGET	2147740	n/a	LTP122	ltpFR	1	6	0	GAZELLE	628	5	1	n/a	n/a	n/a	n/a	n/a
4296.054	n/a	RECOG_RESP	2148027	n/a	LTP122	ltpFR	1	6	0	GAZELLE	628	n/a	1	n/a	n/a	n/a	n/a	n/a
4297.132	n/a	RECOG_CONF	2148566	n/a	LTP122	ltpFR	1	6	0	GAZELLE	628	5	1	n/a	n/a	n/a	n/a	n/a
4298.528	n/a	RECOG_TARGET	2149264	n/a	LTP122	ltpFR	1	6	1	ACORN	3	3	0	n/a	n/a	n/a	n/a	n/a
4299.426	n/a	RECOG_RESP	2149713	n/a	LTP122	ltpFR	1	6	1	ACORN	3	n/a	0	n/a	n/a	n/a	n/a	n/a
4300.554	n/a	RECOG_CONF	2150277	n/a	LTP122	ltpFR	1	6	1	ACORN	3	3	0	n/a	n/a	n/a	n/a	n/a
4302.07	n/a	RECOG_LURE	2151035	n/a	LTP122	ltpFR	1	6	n/a	FRUIT	610	4	n/a	n/a	n/a	n/a	n/a	n/a
4302.718	n/a	RECOG_RESP	2151359	n/a	LTP122	ltpFR	1	6	n/a	FRUIT	610	n/a	n/a	n/a	n/a	n/a	n/a	n/a
4304.016	n/a	RECOG_CONF	2152008	n/a	LTP122	ltpFR	1	6	n/a	FRUIT	610	4	n/a	n/a	n/a	n/a	n/a	n/a
4305.558	n/a	RECOG_TARGET	2152779	n/a	LTP122	ltpFR	1	6	1	CRAB	397	3	1	n/a	n/a	n/a	n/a	n/a
4306.23	n/a	RECOG_RESP	2153115	n/a	LTP122	ltpFR	1	6	1	CRAB	397	n/a	1	n/a	n/a	n/a	n/a	n/a
4307.478	n/a	RECOG_CONF	2153739	n/a	LTP122	ltpFR	1	6	1	CRAB	397	3	1	n/a	n/a	n/a	n/a	n/a
4309.0	n/a	RECOG_TARGET	2154500	n/a	LTP122	ltpFR	1	6	1	CHURCH	307	5	0	n/a	n/a	n/a	n/a	n/a
4309.574	n/a	RECOG_RESP	2154787	n/a	LTP122	ltpFR	1	6	1	CHURCH	307	n/a	0	n/a	n/a	n/a	n/a	n/a
4310.67	n/a	RECOG_CONF	2155335	n/a	LTP122	ltpFR	1	6	1	CHURCH	307	5	0	n/a	n/a	n/a	n/a	n/a
4312.49	n/a	RECOG_TARGET	2156245	n/a	LTP122	ltpFR	1	6	0	SHOELACE	1289	5	0	n/a	n/a	n/a	n/a	n/a
4313.096	n/a	RECOG_RESP	2156548	n/a	LTP122	ltpFR	1	6	0	SHOELACE	1289	n/a	0	n/a	n/a	n/a	n/a	n/a
4314.512	n/a	RECOG_CONF	2157256	n/a	LTP122	ltpFR	1	6	0	SHOELACE	1289	5	0	n/a	n/a	n/a	n/a	n/a
4316.048	n/a	RECOG_TARGET	2158024	n/a	LTP122	ltpFR	1	6	-1	WALRUS	1585	5	-1	n/a	n/a	n/a	n/a	n/a
4316.672	n/a	RECOG_RESP	2158336	n/a	LTP122	ltpFR	1	6	-1	WALRUS	1585	n/a	-1	n/a	n/a	n/a	n/a	n/a
4317.836	n/a	RECOG_CONF	2158918	n/a	LTP122	ltpFR	1	6	-1	WALRUS	1585	5	-1	n/a	n/a	n/a	n/a	n/a
4319.554	n/a	RECOG_LURE	2159777	n/a	LTP122	ltpFR	1	6	n/a	LOBSTER	837	3	n/a	n/a	n/a	n/a	n/a	n/a
4320.37	n/a	RECOG_RESP	2160185	n/a	LTP122	ltpFR	1	6	n/a	LOBSTER	837	n/a	n/a	n/a	n/a	n/a	n/a	n/a
4321.428	n/a	RECOG_CONF	2160714	n/a	LTP122	ltpFR	1	6	n/a	LOBSTER	837	3	n/a	n/a	n/a	n/a	n/a	n/a
4322.98	n/a	RECOG_TARGET	2161490	n/a	LTP122	ltpFR	1	6	1	HARP	689	5	0	n/a	n/a	n/a	n/a	n/a
4323.542	n/a	RECOG_RESP	2161771	n/a	LTP122	ltpFR	1	6	1	HARP	689	n/a	0	n/a	n/a	n/a	n/a	n/a
4324.58	n/a	RECOG_CONF	2162290	n/a	LTP122	ltpFR	1	6	1	HARP	689	5	0	n/a	n/a	n/a	n/a	n/a
4347.156	n/a	REC_START	2173578	n/a	LTP122	ltpFR	1	7	n/a	n/a	n/a	n/a	n/a	n/a	n/a	n/a	n/a	n/a
4347.188	n/a	RECOG_TARGET	2173594	n/a	LTP122	ltpFR	1	7	1	STAGE	1366	3	0	n/a	n/a	n/a	n/a	n/a
4347.928	n/a	RECOG_RESP	2173964	n/a	LTP122	ltpFR	1	7	1	STAGE	1366	n/a	0	n/a	n/a	n/a	n/a	n/a
4349.094	n/a	RECOG_CONF	2174547	n/a	LTP122	ltpFR	1	7	1	STAGE	1366	3	0	n/a	n/a	n/a	n/a	n/a
4350.578	n/a	RECOG_TARGET	2175289	n/a	LTP122	ltpFR	1	7	-1	BUBBLE	183	5	-1	n/a	n/a	n/a	n/a	n/a
4351.182	n/a	RECOG_RESP	2175591	n/a	LTP122	ltpFR	1	7	-1	BUBBLE	183	n/a	-1	n/a	n/a	n/a	n/a	n/a
4352.2	n/a	RECOG_CONF	2176100	n/a	LTP122	ltpFR	1	7	-1	BUBBLE	183	5	-1	n/a	n/a	n/a	n/a	n/a
4353.888	n/a	RECOG_TARGET	2176944	n/a	LTP122	ltpFR	1	7	1	VENT	1556	5	0	n/a	n/a	n/a	n/a	n/a
4354.384	n/a	RECOG_RESP	2177192	n/a	LTP122	ltpFR	1	7	1	VENT	1556	n/a	0	n/a	n/a	n/a	n/a	n/a
4355.362	n/a	RECOG_CONF	2177681	n/a	LTP122	ltpFR	1	7	1	VENT	1556	5	0	n/a	n/a	n/a	n/a	n/a
4356.87	n/a	RECOG_TARGET	2178435	n/a	LTP122	ltpFR	1	7	1	LETTUCE	814	5	1	n/a	n/a	n/a	n/a	n/a
4357.378	n/a	RECOG_RESP	2178689	n/a	LTP122	ltpFR	1	7	1	LETTUCE	814	n/a	1	n/a	n/a	n/a	n/a	n/a
4358.406	n/a	RECOG_CONF	2179203	n/a	LTP122	ltpFR	1	7	1	LETTUCE	814	5	1	n/a	n/a	n/a	n/a	n/a
4360.01	n/a	RECOG_TARGET	2180005	n/a	LTP122	ltpFR	1	7	1	FAUCET	555	4	0	n/a	n/a	n/a	n/a	n/a
4360.76	n/a	RECOG_RESP	2180380	n/a	LTP122	ltpFR	1	7	1	FAUCET	555	n/a	0	n/a	n/a	n/a	n/a	n/a
4361.818	n/a	RECOG_CONF	2180909	n/a	LTP122	ltpFR	1	7	1	FAUCET	555	4	0	n/a	n/a	n/a	n/a	n/a
4363.234	n/a	RECOG_TARGET	2181617	n/a	LTP122	ltpFR	1	7	0	OBOE	969	5	1	n/a	n/a	n/a	n/a	n/a
4363.894	n/a	RECOG_RESP	2181947	n/a	LTP122	ltpFR	1	7	0	OBOE	969	n/a	1	n/a	n/a	n/a	n/a	n/a
4364.96	n/a	RECOG_CONF	2182480	n/a	LTP122	ltpFR	1	7	0	OBOE	969	5	1	n/a	n/a	n/a	n/a	n/a
4366.566	n/a	RECOG_TARGET	2183283	n/a	LTP122	ltpFR	1	7	1	WASHER	1592	5	0	n/a	n/a	n/a	n/a	n/a
4367.24	n/a	RECOG_RESP	2183620	n/a	LTP122	ltpFR	1	7	1	WASHER	1592	n/a	0	n/a	n/a	n/a	n/a	n/a
4368.344	n/a	RECOG_CONF	2184172	n/a	LTP122	ltpFR	1	7	1	WASHER	1592	5	0	n/a	n/a	n/a	n/a	n/a
4369.79	n/a	RECOG_TARGET	2184895	n/a	LTP122	ltpFR	1	7	0	CONSUMER	365	4	1	n/a	n/a	n/a	n/a	n/a
4370.55	n/a	RECOG_RESP	2185275	n/a	LTP122	ltpFR	1	7	0	CONSUMER	365	n/a	1	n/a	n/a	n/a	n/a	n/a
4371.836	n/a	RECOG_CONF	2185918	n/a	LTP122	ltpFR	1	7	0	CONSUMER	365	4	1	n/a	n/a	n/a	n/a	n/a
4373.306	n/a	RECOG_TARGET	2186653	n/a	LTP122	ltpFR	1	7	-1	SHEARS	1276	5	-1	n/a	n/a	n/a	n/a	n/a
4373.922	n/a	RECOG_RESP	2186961	n/a	LTP122	ltpFR	1	7	-1	SHEARS	1276	n/a	-1	n/a	n/a	n/a	n/a	n/a
4375.028	n/a	RECOG_CONF	2187514	n/a	LTP122	ltpFR	1	7	-1	SHEARS	1276	5	-1	n/a	n/a	n/a	n/a	n/a
4376.604	n/a	RECOG_TARGET	2188302	n/a	LTP122	ltpFR	1	7	1	CHICK	296	5	1	n/a	n/a	n/a	n/a	n/a
4377.478	n/a	RECOG_RESP	2188739	n/a	LTP122	ltpFR	1	7	1	CHICK	296	n/a	1	n/a	n/a	n/a	n/a	n/a
4378.61	n/a	RECOG_CONF	2189305	n/a	LTP122	ltpFR	1	7	1	CHICK	296	5	1	n/a	n/a	n/a	n/a	n/a
4380.304	n/a	RECOG_TARGET	2190152	n/a	LTP122	ltpFR	1	7	0	WEB	1598	5	0	n/a	n/a	n/a	n/a	n/a
4380.876	n/a	RECOG_RESP	2190438	n/a	LTP122	ltpFR	1	7	0	WEB	1598	n/a	0	n/a	n/a	n/a	n/a	n/a
4381.974	n/a	RECOG_CONF	2190987	n/a	LTP122	ltpFR	1	7	0	WEB	1598	5	0	n/a	n/a	n/a	n/a	n/a
4383.576	n/a	RECOG_TARGET	2191788	n/a	LTP122	ltpFR	1	7	-1	BATHTUB	100	3	-1	n/a	n/a	n/a	n/a	n/a
