onset	duration	trial_type	sample	stim_file	subject	experiment	session	trial	item_name	item_num	list	answer	test_x	test_y	test_z
260.816	n/a	SESS_START	130408	n/a	LTP122	ltpFR2	1	n/a	n/a	n/a	n/a	n/a	0	0	0
284.488	n/a	START	142244	n/a	LTP122	ltpFR2	1	n/a	n/a	n/a	-1	n/a	n/a	n/a	n/a
284.52	n/a	PROB	142260	n/a	LTP122	ltpFR2	1	n/a	n/a	n/a	-1	15	7	5	3
286.838	n/a	PROB	143419	n/a	LTP122	ltpFR2	1	n/a	n/a	n/a	-1	8	1	4	3
288.774	n/a	PROB	144387	n/a	LTP122	ltpFR2	1	n/a	n/a	n/a	-1	24	9	9	8
291.81	n/a	PROB	145905	n/a	LTP122	ltpFR2	1	n/a	n/a	n/a	-1	17	8	5	4
294.062	n/a	PROB	147031	n/a	LTP122	ltpFR2	1	n/a	n/a	n/a	-1	13	2	6	5
296.326	n/a	STOP	148163	n/a	LTP122	ltpFR2	1	n/a	n/a	n/a	-1	n/a	n/a	n/a	n/a
342.42	n/a	WORD	171210	wordpools/wasnorm_wordpool_576.txt	LTP122	ltpFR2	1	1	RADISH	1158	n/a	n/a	0	0	0
344.904	n/a	WORD	172452	wordpools/wasnorm_wordpool_576.txt	LTP122	ltpFR2	1	1	LIGHTNING	820	n/a	n/a	0	0	0
347.54	n/a	WORD	173770	wordpools/wasnorm_wordpool_576.txt	LTP122	ltpFR2	1	1	AIRPLANE	12	n/a	n/a	0	0	0
350.11	n/a	WORD	175055	wordpools/wasnorm_wordpool_576.txt	LTP122	ltpFR2	1	1	ISLAND	745	n/a	n/a	0	0	0
352.678	n/a	WORD	176339	wordpools/wasnorm_wordpool_576.txt	LTP122	ltpFR2	1	1	CRATER	400	n/a	n/a	0	0	0
355.13	n/a	WORD	177565	wordpools/wasnorm_wordpool_576.txt	LTP122	ltpFR2	1	1	WASHER	1592	n/a	n/a	0	0	0
357.848	n/a	WORD	178924	wordpools/wasnorm_wordpool_576.txt	LTP122	ltpFR2	1	1	FUNGUS	614	n/a	n/a	0	0	0
360.384	n/a	WORD	180192	wordpools/wasnorm_wordpool_576.txt	LTP122	ltpFR2	1	1	OZONE	996	n/a	n/a	0	0	0
363.086	n/a	WORD	181543	wordpools/wasnorm_wordpool_576.txt	LTP122	ltpFR2	1	1	BALLOON	75	n/a	n/a	0	0	0
365.672	n/a	WORD	182836	wordpools/wasnorm_wordpool_576.txt	LTP122	ltpFR2	1	1	EXPERT	543	n/a	n/a	0	0	0
368.376	n/a	WORD	184188	wordpools/wasnorm_wordpool_576.txt	LTP122	ltpFR2	1	1	SUNSET	1408	n/a	n/a	0	0	0
370.976	n/a	WORD	185488	wordpools/wasnorm_wordpool_576.txt	LTP122	ltpFR2	1	1	PACKAGE	997	n/a	n/a	0	0	0
373.462	n/a	WORD	186731	wordpools/wasnorm_wordpool_576.txt	LTP122	ltpFR2	1	1	FIREMAN	569	n/a	n/a	0	0	0
376.232	n/a	WORD	188116	wordpools/wasnorm_wordpool_576.txt	LTP122	ltpFR2	1	1	JELLO	754	n/a	n/a	0	0	0
378.85	n/a	WORD	189425	wordpools/wasnorm_wordpool_576.txt	LTP122	ltpFR2	1	1	SPONGE	1355	n/a	n/a	0	0	0
381.386	n/a	WORD	190693	wordpools/wasnorm_wordpool_576.txt	LTP122	ltpFR2	1	1	MONEY	908	n/a	n/a	0	0	0
384.154	n/a	WORD	192077	wordpools/wasnorm_wordpool_576.txt	LTP122	ltpFR2	1	1	CITRUS	313	n/a	n/a	0	0	0
386.924	n/a	WORD	193462	wordpools/wasnorm_wordpool_576.txt	LTP122	ltpFR2	1	1	CURTAIN	427	n/a	n/a	0	0	0
389.426	n/a	WORD	194713	wordpools/wasnorm_wordpool_576.txt	LTP122	ltpFR2	1	1	WINDOW	1611	n/a	n/a	0	0	0
392.112	n/a	WORD	196056	wordpools/wasnorm_wordpool_576.txt	LTP122	ltpFR2	1	1	CANYON	235	n/a	n/a	0	0	0
394.53	n/a	WORD	197265	wordpools/wasnorm_wordpool_576.txt	LTP122	ltpFR2	1	1	BLOCKADE	137	n/a	n/a	0	0	0
397.05	n/a	WORD	198525	wordpools/wasnorm_wordpool_576.txt	LTP122	ltpFR2	1	1	BARLEY	88	n/a	n/a	0	0	0
399.618	n/a	WORD	199809	wordpools/wasnorm_wordpool_576.txt	LTP122	ltpFR2	1	1	OUTDOORS	987	n/a	n/a	0	0	0
402.338	n/a	WORD	201169	wordpools/wasnorm_wordpool_576.txt	LTP122	ltpFR2	1	1	FIREPLACE	570	n/a	n/a	0	0	0
403.956	n/a	START	201978	n/a	LTP122	ltpFR2	1	n/a	n/a	n/a	1	n/a	n/a	n/a	n/a
404.914	n/a	DISTRACTOR	202457	n/a	LTP122	ltpFR2	1	1	n/a	n/a	n/a	n/a	0	0	0
404.922	n/a	PROB	202461	n/a	LTP122	ltpFR2	1	n/a	n/a	n/a	1	17	3	9	5
407.508	n/a	PROB	203754	n/a	LTP122	ltpFR2	1	n/a	n/a	n/a	1	24	7	9	8
409.426	n/a	PROB	204713	n/a	LTP122	ltpFR2	1	n/a	n/a	n/a	1	18	6	2	6
412.112	n/a	PROB	206056	n/a	LTP122	ltpFR2	1	n/a	n/a	n/a	1	15	5	1	9
413.78	n/a	PROB	206890	n/a	LTP122	ltpFR2	1	n/a	n/a	n/a	1	18	6	8	4
415.764	n/a	PROB	207882	n/a	LTP122	ltpFR2	1	n/a	n/a	n/a	1	10	2	6	2
417.4	n/a	PROB	208700	n/a	LTP122	ltpFR2	1	n/a	n/a	n/a	1	20	7	4	9
419.702	n/a	PROB	209851	n/a	LTP122	ltpFR2	1	n/a	n/a	n/a	1	12	6	3	3
421.304	n/a	PROB	210652	n/a	LTP122	ltpFR2	1	n/a	n/a	n/a	1	15	5	5	5
422.52	n/a	PROB	211260	n/a	LTP122	ltpFR2	1	n/a	n/a	n/a	1	11	7	1	3
424.588	n/a	PROB	212294	n/a	LTP122	ltpFR2	1	n/a	n/a	n/a	1	16	5	4	7
427.954	n/a	STOP	213977	n/a	LTP122	ltpFR2	1	n/a	n/a	n/a	1	n/a	n/a	n/a	n/a
429.744	n/a	REC_START	214872	n/a	LTP122	ltpFR2	1	1	n/a	n/a	n/a	n/a	0	0	0
433.358	n/a	REC_WORD	216679	wordpools/wasnorm_wordpool_576.txt	LTP122	ltpFR2	1	1	AIRPLANE	12	n/a	n/a	0	0	0
434.044	n/a	REC_WORD	217022	wordpools/wasnorm_wordpool_576.txt	LTP122	ltpFR2	1	1	LIGHTNING	820	n/a	n/a	0	0	0
434.892	n/a	REC_WORD	217446	wordpools/wasnorm_wordpool_576.txt	LTP122	ltpFR2	1	1	BALLOON	75	n/a	n/a	0	0	0
435.72	n/a	REC_WORD	217860	wordpools/wasnorm_wordpool_576.txt	LTP122	ltpFR2	1	1	OZONE	996	n/a	n/a	0	0	0
438.754	n/a	REC_WORD	219377	wordpools/wasnorm_wordpool_576.txt	LTP122	ltpFR2	1	1	CRATER	400	n/a	n/a	0	0	0
439.348	n/a	REC_WORD	219674	wordpools/wasnorm_wordpool_576.txt	LTP122	ltpFR2	1	1	CANYON	235	n/a	n/a	0	0	0
440.246	n/a	REC_WORD	220123	wordpools/wasnorm_wordpool_576.txt	LTP122	ltpFR2	1	1	BLOCKADE	137	n/a	n/a	0	0	0
445.222	n/a	REC_WORD	222611	wordpools/wasnorm_wordpool_576.txt	LTP122	ltpFR2	1	1	RADISH	1158	n/a	n/a	0	0	0
447.726	n/a	REC_WORD	223863	wordpools/wasnorm_wordpool_576.txt	LTP122	ltpFR2	1	1	EXPERT	543	n/a	n/a	0	0	0
449.474	n/a	REC_WORD	224737	wordpools/wasnorm_wordpool_576.txt	LTP122	ltpFR2	1	1	FIREPLACE	570	n/a	n/a	0	0	0
453.018	n/a	REC_WORD	226509	wordpools/wasnorm_wordpool_576.txt	LTP122	ltpFR2	1	1	PACKAGE	997	n/a	n/a	0	0	0
454.234	n/a	REC_WORD	227117	wordpools/wasnorm_wordpool_576.txt	LTP122	ltpFR2	1	1	FIREMAN	569	n/a	n/a	0	0	0
459.294	n/a	REC_WORD	229647	wordpools/wasnorm_wordpool_576.txt	LTP122	ltpFR2	1	1	CITRUS	313	n/a	n/a	0	0	0
460.5	n/a	REC_WORD	230250	wordpools/wasnorm_wordpool_576.txt	LTP122	ltpFR2	1	1	CURTAIN	427	n/a	n/a	0	0	0
461.344	n/a	REC_WORD	230672	wordpools/wasnorm_wordpool_576.txt	LTP122	ltpFR2	1	1	WINDOW	1611	n/a	n/a	0	0	0
463.046	n/a	REC_WORD	231523	wordpools/wasnorm_wordpool_576.txt	LTP122	ltpFR2	1	1	BARLEY	88	n/a	n/a	0	0	0
496.344	n/a	REC_WORD	248172	wordpools/wasnorm_wordpool_576.txt	LTP122	ltpFR2	1	1	SPONGE	1355	n/a	n/a	0	0	0
499.68	n/a	REC_WORD	249840	wordpools/wasnorm_wordpool_576.txt	LTP122	ltpFR2	1	1	MONEY	908	n/a	n/a	0	0	0
502.158	n/a	REC_WORD	251079	wordpools/wasnorm_wordpool_576.txt	LTP122	ltpFR2	1	1	JELLO	754	n/a	n/a	0	0	0
532.43	n/a	DISTRACTOR	266215	n/a	LTP122	ltpFR2	1	2	n/a	n/a	n/a	n/a	0	0	0
532.43	n/a	START	266215	n/a	LTP122	ltpFR2	1	n/a	n/a	n/a	2	n/a	n/a	n/a	n/a
532.464	n/a	PROB	266232	n/a	LTP122	ltpFR2	1	n/a	n/a	n/a	2	12	5	5	2
534.166	n/a	PROB	267083	n/a	LTP122	ltpFR2	1	n/a	n/a	n/a	2	20	3	8	9
536.634	n/a	PROB	268317	n/a	LTP122	ltpFR2	1	n/a	n/a	n/a	2	17	9	7	1
538.436	n/a	PROB	269218	n/a	LTP122	ltpFR2	1	n/a	n/a	n/a	2	14	2	7	5
540.588	n/a	PROB	270294	n/a	LTP122	ltpFR2	1	n/a	n/a	n/a	2	12	2	9	1
542.44	n/a	PROB	271220	n/a	LTP122	ltpFR2	1	n/a	n/a	n/a	2	14	4	2	8
544.49	n/a	PROB	272245	n/a	LTP122	ltpFR2	1	n/a	n/a	n/a	2	11	4	6	1
545.892	n/a	PROB	272946	n/a	LTP122	ltpFR2	1	n/a	n/a	n/a	2	15	3	8	4
547.744	n/a	PROB	273872	n/a	LTP122	ltpFR2	1	n/a	n/a	n/a	2	14	6	1	7
549.062	n/a	PROB	274531	n/a	LTP122	ltpFR2	1	n/a	n/a	n/a	2	15	8	2	5
550.28	n/a	PROB	275140	n/a	LTP122	ltpFR2	1	n/a	n/a	n/a	2	12	1	6	5
552.648	n/a	PROB	276324	n/a	LTP122	ltpFR2	1	n/a	n/a	n/a	2	14	5	4	5
556.418	n/a	STOP	278209	n/a	LTP122	ltpFR2	1	n/a	n/a	n/a	2	n/a	n/a	n/a	n/a
557.586	n/a	WORD	278793	wordpools/wasnorm_wordpool_576.txt	LTP122	ltpFR2	1	2	FRECKLE	602	n/a	n/a	0	0	0
560.222	n/a	WORD	280111	wordpools/wasnorm_wordpool_576.txt	LTP122	ltpFR2	1	2	PILOT	1070	n/a	n/a	0	0	0
562.806	n/a	WORD	281403	wordpools/wasnorm_wordpool_576.txt	LTP122	ltpFR2	1	2	IDOL	733	n/a	n/a	0	0	0
565.61	n/a	WORD	282805	wordpools/wasnorm_wordpool_576.txt	LTP122	ltpFR2	1	2	PREACHER	1119	n/a	n/a	0	0	0
568.094	n/a	WORD	284047	wordpools/wasnorm_wordpool_576.txt	LTP122	ltpFR2	1	2	SPIDER	1351	n/a	n/a	0	0	0
570.696	n/a	WORD	285348	wordpools/wasnorm_wordpool_576.txt	LTP122	ltpFR2	1	2	BEAKER	104	n/a	n/a	0	0	0
573.366	n/a	WORD	286683	wordpools/wasnorm_wordpool_576.txt	LTP122	ltpFR2	1	2	STAMP	1370	n/a	n/a	0	0	0
576.084	n/a	WORD	288042	wordpools/wasnorm_wordpool_576.txt	LTP122	ltpFR2	1	2	PLIERS	1089	n/a	n/a	0	0	0
578.686	n/a	WORD	289343	wordpools/wasnorm_wordpool_576.txt	LTP122	ltpFR2	1	2	PIMPLE	1071	n/a	n/a	0	0	0
581.322	n/a	WORD	290661	wordpools/wasnorm_wordpool_576.txt	LTP122	ltpFR2	1	2	DRINK	498	n/a	n/a	0	0	0
584.108	n/a	WORD	292054	wordpools/wasnorm_wordpool_576.txt	LTP122	ltpFR2	1	2	BOYFRIEND	162	n/a	n/a	0	0	0
586.844	n/a	WORD	293422	wordpools/wasnorm_wordpool_576.txt	LTP122	ltpFR2	1	2	RATTLE	1170	n/a	n/a	0	0	0
589.678	n/a	WORD	294839	wordpools/wasnorm_wordpool_576.txt	LTP122	ltpFR2	1	2	BATHTUB	100	n/a	n/a	0	0	0
592.448	n/a	WORD	296224	wordpools/wasnorm_wordpool_576.txt	LTP122	ltpFR2	1	2	CLOTHES	327	n/a	n/a	0	0	0
594.916	n/a	WORD	297458	wordpools/wasnorm_wordpool_576.txt	LTP122	ltpFR2	1	2	PLATE	1086	n/a	n/a	0	0	0
597.486	n/a	WORD	298743	wordpools/wasnorm_wordpool_576.txt	LTP122	ltpFR2	1	2	SPOON	1357	n/a	n/a	0	0	0
600.222	n/a	WORD	300111	wordpools/wasnorm_wordpool_576.txt	LTP122	ltpFR2	1	2	BOUQUET	157	n/a	n/a	0	0	0
602.974	n/a	WORD	301487	wordpools/wasnorm_wordpool_576.txt	LTP122	ltpFR2	1	2	PEPPER	1047	n/a	n/a	0	0	0
605.592	n/a	WORD	302796	wordpools/wasnorm_wordpool_576.txt	LTP122	ltpFR2	1	2	LIVER	833	n/a	n/a	0	0	0
608.128	n/a	WORD	304064	wordpools/wasnorm_wordpool_576.txt	LTP122	ltpFR2	1	2	KIDNEY	776	n/a	n/a	0	0	0
610.664	n/a	WORD	305332	wordpools/wasnorm_wordpool_576.txt	LTP122	ltpFR2	1	2	MAILBOX	857	n/a	n/a	0	0	0
613.234	n/a	WORD	306617	wordpools/wasnorm_wordpool_576.txt	LTP122	ltpFR2	1	2	TART	1436	n/a	n/a	0	0	0
615.852	n/a	WORD	307926	wordpools/wasnorm_wordpool_576.txt	LTP122	ltpFR2	1	2	GALLON	618	n/a	n/a	0	0	0
618.354	n/a	WORD	309177	wordpools/wasnorm_wordpool_576.txt	LTP122	ltpFR2	1	2	CYCLONE	431	n/a	n/a	0	0	0
619.972	n/a	START	309986	n/a	LTP122	ltpFR2	1	n/a	n/a	n/a	3	n/a	n/a	n/a	n/a
620.978	n/a	DISTRACTOR	310489	n/a	LTP122	ltpFR2	1	2	n/a	n/a	n/a	n/a	0	0	0
621.006	n/a	PROB	310503	n/a	LTP122	ltpFR2	1	n/a	n/a	n/a	3	16	8	4	4
622.956	n/a	PROB	311478	n/a	LTP122	ltpFR2	1	n/a	n/a	n/a	3	20	6	6	8
624.708	n/a	PROB	312354	n/a	LTP122	ltpFR2	1	n/a	n/a	n/a	3	11	4	3	4
626.594	n/a	PROB	313297	n/a	LTP122	ltpFR2	1	n/a	n/a	n/a	3	15	9	5	1
628.078	n/a	PROB	314039	n/a	LTP122	ltpFR2	1	n/a	n/a	n/a	3	13	3	4	5
629.93	n/a	PROB	314965	n/a	LTP122	ltpFR2	1	n/a	n/a	n/a	3	15	6	5	4
631.782	n/a	PROB	315891	n/a	LTP122	ltpFR2	1	n/a	n/a	n/a	3	22	8	9	4
633.866	n/a	PROB	316933	n/a	LTP122	ltpFR2	1	n/a	n/a	n/a	3	12	2	9	1
635.634	n/a	PROB	317817	n/a	LTP122	ltpFR2	1	n/a	n/a	n/a	3	21	6	6	9
637.636	n/a	PROB	318818	n/a	LTP122	ltpFR2	1	n/a	n/a	n/a	3	19	7	5	7
639.338	n/a	PROB	319669	n/a	LTP122	ltpFR2	1	n/a	n/a	n/a	3	11	1	5	5
640.606	n/a	PROB	320303	n/a	LTP122	ltpFR2	1	n/a	n/a	n/a	3	19	9	5	5
642.106	n/a	PROB	321053	n/a	LTP122	ltpFR2	1	n/a	n/a	n/a	3	10	4	2	4
643.538	n/a	STOP	321769	n/a	LTP122	ltpFR2	1	n/a	n/a	n/a	3	n/a	n/a	n/a	n/a
645.794	n/a	REC_START	322897	n/a	LTP122	ltpFR2	1	2	n/a	n/a	n/a	n/a	0	0	0
649.616	n/a	REC_WORD	324808	wordpools/wasnorm_wordpool_576.txt	LTP122	ltpFR2	1	2	FRECKLE	602	n/a	n/a	0	0	0
650.434	n/a	REC_WORD	325217	wordpools/wasnorm_wordpool_576.txt	LTP122	ltpFR2	1	2	PILOT	1070	n/a	n/a	0	0	0
651.236	n/a	REC_WORD	325618	wordpools/wasnorm_wordpool_576.txt	LTP122	ltpFR2	1	2	IDOL	733	n/a	n/a	0	0	0
651.964	n/a	REC_WORD	325982	wordpools/wasnorm_wordpool_576.txt	LTP122	ltpFR2	1	2	PIMPLE	1071	n/a	n/a	0	0	0
653.238	n/a	REC_WORD	326619	wordpools/wasnorm_wordpool_576.txt	LTP122	ltpFR2	1	2	PREACHER	1119	n/a	n/a	0	0	0
654.624	n/a	REC_WORD	327312	wordpools/wasnorm_wordpool_576.txt	LTP122	ltpFR2	1	2	SPIDER	1351	n/a	n/a	0	0	0
655.876	n/a	REC_WORD	327938	wordpools/wasnorm_wordpool_576.txt	LTP122	ltpFR2	1	2	BEAKER	104	n/a	n/a	0	0	0
656.882	n/a	REC_WORD	328441	wordpools/wasnorm_wordpool_576.txt	LTP122	ltpFR2	1	2	DRINK	498	n/a	n/a	0	0	0
658.568	n/a	REC_WORD	329284	wordpools/wasnorm_wordpool_576.txt	LTP122	ltpFR2	1	2	BOYFRIEND	162	n/a	n/a	0	0	0
661.564	n/a	REC_WORD	330782	wordpools/wasnorm_wordpool_576.txt	LTP122	ltpFR2	1	2	BOUQUET	157	n/a	n/a	0	0	0
664.454	n/a	REC_WORD	332227	wordpools/wasnorm_wordpool_576.txt	LTP122	ltpFR2	1	2	MAILBOX	857	n/a	n/a	0	0	0
665.244	n/a	REC_WORD	332622	wordpools/wasnorm_wordpool_576.txt	LTP122	ltpFR2	1	2	STAMP	1370	n/a	n/a	0	0	0
666.784	n/a	REC_WORD	333392	wordpools/wasnorm_wordpool_576.txt	LTP122	ltpFR2	1	2	PLIERS	1089	n/a	n/a	0	0	0
667.718	n/a	REC_WORD	333859	wordpools/wasnorm_wordpool_576.txt	LTP122	ltpFR2	1	2	RATTLE	1170	n/a	n/a	0	0	0
670.51	n/a	REC_WORD	335255	wordpools/wasnorm_wordpool_576.txt	LTP122	ltpFR2	1	2	PLATE	1086	n/a	n/a	0	0	0
670.904	n/a	REC_WORD	335452	wordpools/wasnorm_wordpool_576.txt	LTP122	ltpFR2	1	2	SPOON	1357	n/a	n/a	0	0	0
671.864	n/a	REC_WORD	335932	wordpools/wasnorm_wordpool_576.txt	LTP122	ltpFR2	1	2	LIVER	833	n/a	n/a	0	0	0
672.592	n/a	REC_WORD	336296	wordpools/wasnorm_wordpool_576.txt	LTP122	ltpFR2	1	2	KIDNEY	776	n/a	n/a	0	0	0
673.292	n/a	REC_WORD	336646	wordpools/wasnorm_wordpool_576.txt	LTP122	ltpFR2	1	2	PEPPER	1047	n/a	n/a	0	0	0
674.372	n/a	REC_WORD	337186	wordpools/wasnorm_wordpool_576.txt	LTP122	ltpFR2	1	2	TART	1436	n/a	n/a	0	0	0
676.424	n/a	REC_WORD	338212	wordpools/wasnorm_wordpool_576.txt	LTP122	ltpFR2	1	2	BATHTUB	100	n/a	n/a	0	0	0
677.688	n/a	REC_WORD	338844	wordpools/wasnorm_wordpool_576.txt	LTP122	ltpFR2	1	2	CLOTHES	327	n/a	n/a	0	0	0
679.378	n/a	REC_WORD	339689	wordpools/wasnorm_wordpool_576.txt	LTP122	ltpFR2	1	2	CYCLONE	431	n/a	n/a	0	0	0
685.128	n/a	REC_WORD	342564	wordpools/wasnorm_wordpool_576.txt	LTP122	ltpFR2	1	2	CLOTHING	-1	n/a	n/a	0	0	0
736.272	n/a	DISTRACTOR	368136	n/a	LTP122	ltpFR2	1	3	n/a	n/a	n/a	n/a	0	0	0
736.272	n/a	START	368136	n/a	LTP122	ltpFR2	1	n/a	n/a	n/a	4	n/a	n/a	n/a	n/a
736.288	n/a	PROB	368144	n/a	LTP122	ltpFR2	1	n/a	n/a	n/a	4	13	2	7	4
738.472	n/a	PROB	369236	n/a	LTP122	ltpFR2	1	n/a	n/a	n/a	4	10	1	4	5
739.806	n/a	PROB	369903	n/a	LTP122	ltpFR2	1	n/a	n/a	n/a	4	15	5	3	7
741.642	n/a	PROB	370821	n/a	LTP122	ltpFR2	1	n/a	n/a	n/a	4	13	8	3	2
743.96	n/a	PROB	371980	n/a	LTP122	ltpFR2	1	n/a	n/a	n/a	4	17	6	8	3
746.012	n/a	PROB	373006	n/a	LTP122	ltpFR2	1	n/a	n/a	n/a	4	18	2	9	7
749.582	n/a	PROB	374791	n/a	LTP122	ltpFR2	1	n/a	n/a	n/a	4	11	2	1	8
751.2	n/a	PROB	375600	n/a	LTP122	ltpFR2	1	n/a	n/a	n/a	4	12	9	2	1
752.852	n/a	PROB	376426	n/a	LTP122	ltpFR2	1	n/a	n/a	n/a	4	14	9	4	1
755.07	n/a	PROB	377535	n/a	LTP122	ltpFR2	1	n/a	n/a	n/a	4	22	6	7	7
756.988	n/a	PROB	378494	n/a	LTP122	ltpFR2	1	n/a	n/a	n/a	4	10	3	6	1
758.54	n/a	PROB	379270	n/a	LTP122	ltpFR2	1	n/a	n/a	n/a	4	9	1	1	7
760.214	n/a	STOP	380107	n/a	LTP122	ltpFR2	1	n/a	n/a	n/a	4	n/a	n/a	n/a	n/a
761.342	n/a	WORD	380671	wordpools/wasnorm_wordpool_576.txt	LTP122	ltpFR2	1	3	BUGGY	188	n/a	n/a	0	0	0
764.06	n/a	WORD	382030	wordpools/wasnorm_wordpool_576.txt	LTP122	ltpFR2	1	3	SERVANT	1271	n/a	n/a	0	0	0
766.646	n/a	WORD	383323	wordpools/wasnorm_wordpool_576.txt	LTP122	ltpFR2	1	3	GLASS	639	n/a	n/a	0	0	0
769.482	n/a	WORD	384741	wordpools/wasnorm_wordpool_576.txt	LTP122	ltpFR2	1	3	CLAMP	316	n/a	n/a	0	0	0
772.268	n/a	WORD	386134	wordpools/wasnorm_wordpool_576.txt	LTP122	ltpFR2	1	3	MOTOR	922	n/a	n/a	0	0	0
775.038	n/a	WORD	387519	wordpools/wasnorm_wordpool_576.txt	LTP122	ltpFR2	1	3	LUNCH	849	n/a	n/a	0	0	0
777.54	n/a	WORD	388770	wordpools/wasnorm_wordpool_576.txt	LTP122	ltpFR2	1	3	RIFLE	1192	n/a	n/a	0	0	0
780.058	n/a	WORD	390029	wordpools/wasnorm_wordpool_576.txt	LTP122	ltpFR2	1	3	VALLEY	1545	n/a	n/a	0	0	0
782.726	n/a	WORD	391363	wordpools/wasnorm_wordpool_576.txt	LTP122	ltpFR2	1	3	BACKBONE	66	n/a	n/a	0	0	0
785.38	n/a	WORD	392690	wordpools/wasnorm_wordpool_576.txt	LTP122	ltpFR2	1	3	BADGE	68	n/a	n/a	0	0	0
788.08	n/a	WORD	394040	wordpools/wasnorm_wordpool_576.txt	LTP122	ltpFR2	1	3	PATROL	1027	n/a	n/a	0	0	0
790.816	n/a	WORD	395408	wordpools/wasnorm_wordpool_576.txt	LTP122	ltpFR2	1	3	DINER	467	n/a	n/a	0	0	0
793.336	n/a	WORD	396668	wordpools/wasnorm_wordpool_576.txt	LTP122	ltpFR2	1	3	CHAUFFEUR	283	n/a	n/a	0	0	0
795.838	n/a	WORD	397919	wordpools/wasnorm_wordpool_576.txt	LTP122	ltpFR2	1	3	EAGLE	512	n/a	n/a	0	0	0
798.29	n/a	WORD	399145	wordpools/wasnorm_wordpool_576.txt	LTP122	ltpFR2	1	3	LIPSTICK	829	n/a	n/a	0	0	0
800.742	n/a	WORD	400371	wordpools/wasnorm_wordpool_576.txt	LTP122	ltpFR2	1	3	POWDER	1117	n/a	n/a	0	0	0
803.41	n/a	WORD	401705	wordpools/wasnorm_wordpool_576.txt	LTP122	ltpFR2	1	3	VALVE	1546	n/a	n/a	0	0	0
806.248	n/a	WORD	403124	wordpools/wasnorm_wordpool_576.txt	LTP122	ltpFR2	1	3	STICKER	1382	n/a	n/a	0	0	0
808.698	n/a	WORD	404349	wordpools/wasnorm_wordpool_576.txt	LTP122	ltpFR2	1	3	COWBOY	395	n/a	n/a	0	0	0
811.252	n/a	WORD	405626	wordpools/wasnorm_wordpool_576.txt	LTP122	ltpFR2	1	3	SWAMP	1416	n/a	n/a	0	0	0
814.036	n/a	WORD	407018	wordpools/wasnorm_wordpool_576.txt	LTP122	ltpFR2	1	3	DAISY	435	n/a	n/a	0	0	0
816.522	n/a	WORD	408261	wordpools/wasnorm_wordpool_576.txt	LTP122	ltpFR2	1	3	BIKE	125	n/a	n/a	0	0	0
819.358	n/a	WORD	409679	wordpools/wasnorm_wordpool_576.txt	LTP122	ltpFR2	1	3	ACTOR	5	n/a	n/a	0	0	0
821.876	n/a	WORD	410938	wordpools/wasnorm_wordpool_576.txt	LTP122	ltpFR2	1	3	STREAM	1392	n/a	n/a	0	0	0
823.494	n/a	START	411747	n/a	LTP122	ltpFR2	1	n/a	n/a	n/a	5	n/a	n/a	n/a	n/a
824.628	n/a	DISTRACTOR	412314	n/a	LTP122	ltpFR2	1	3	n/a	n/a	n/a	n/a	0	0	0
824.646	n/a	PROB	412323	n/a	LTP122	ltpFR2	1	n/a	n/a	n/a	5	17	7	1	9
826.948	n/a	PROB	413474	n/a	LTP122	ltpFR2	1	n/a	n/a	n/a	5	13	1	5	7
828.85	n/a	PROB	414425	n/a	LTP122	ltpFR2	1	n/a	n/a	n/a	5	18	4	8	6
830.834	n/a	PROB	415417	n/a	LTP122	ltpFR2	1	n/a	n/a	n/a	5	10	1	5	4
832.786	n/a	PROB	416393	n/a	LTP122	ltpFR2	1	n/a	n/a	n/a	5	15	3	8	4
834.638	n/a	PROB	417319	n/a	LTP122	ltpFR2	1	n/a	n/a	n/a	5	13	1	5	7
836.306	n/a	PROB	418153	n/a	LTP122	ltpFR2	1	n/a	n/a	n/a	5	17	9	4	4
838.09	n/a	PROB	419045	n/a	LTP122	ltpFR2	1	n/a	n/a	n/a	5	11	8	2	1
839.44	n/a	PROB	419720	n/a	LTP122	ltpFR2	1	n/a	n/a	n/a	5	11	9	1	1
841.026	n/a	PROB	420513	n/a	LTP122	ltpFR2	1	n/a	n/a	n/a	5	23	5	9	9
843.228	n/a	PROB	421614	n/a	LTP122	ltpFR2	1	n/a	n/a	n/a	5	15	3	5	7
845.03	n/a	PROB	422515	n/a	LTP122	ltpFR2	1	n/a	n/a	n/a	5	11	1	3	7
846.67	n/a	STOP	423335	n/a	LTP122	ltpFR2	1	n/a	n/a	n/a	5	n/a	n/a	n/a	n/a
849.284	n/a	REC_START	424642	n/a	LTP122	ltpFR2	1	3	n/a	n/a	n/a	n/a	0	0	0
854.166	n/a	REC_WORD	427083	wordpools/wasnorm_wordpool_576.txt	LTP122	ltpFR2	1	3	SERVANT	1271	n/a	n/a	0	0	0
855.32	n/a	REC_WORD	427660	wordpools/wasnorm_wordpool_576.txt	LTP122	ltpFR2	1	3	POWDER	1117	n/a	n/a	0	0	0
856.188	n/a	REC_WORD	428094	wordpools/wasnorm_wordpool_576.txt	LTP122	ltpFR2	1	3	LIPSTICK	829	n/a	n/a	0	0	0
858.35	n/a	REC_WORD	429175	wordpools/wasnorm_wordpool_576.txt	LTP122	ltpFR2	1	3	BUGGY	188	n/a	n/a	0	0	0
860.374	n/a	REC_WORD	430187	wordpools/wasnorm_wordpool_576.txt	LTP122	ltpFR2	1	3	GLASS	639	n/a	n/a	0	0	0
861.134	n/a	REC_WORD	430567	wordpools/wasnorm_wordpool_576.txt	LTP122	ltpFR2	1	3	CLAMP	316	n/a	n/a	0	0	0
861.746	n/a	REC_WORD	430873	wordpools/wasnorm_wordpool_576.txt	LTP122	ltpFR2	1	3	VALVE	1546	n/a	n/a	0	0	0
862.468	n/a	REC_WORD	431234	wordpools/wasnorm_wordpool_576.txt	LTP122	ltpFR2	1	3	MOTOR	922	n/a	n/a	0	0	0
866.862	n/a	REC_WORD	433431	wordpools/wasnorm_wordpool_576.txt	LTP122	ltpFR2	1	3	CHAUFFEUR	283	n/a	n/a	0	0	0
868.482	n/a	REC_WORD	434241	wordpools/wasnorm_wordpool_576.txt	LTP122	ltpFR2	1	3	DINER	467	n/a	n/a	0	0	0
869.678	n/a	REC_WORD	434839	wordpools/wasnorm_wordpool_576.txt	LTP122	ltpFR2	1	3	COWBOY	395	n/a	n/a	0	0	0
872.52	n/a	REC_WORD	436260	wordpools/wasnorm_wordpool_576.txt	LTP122	ltpFR2	1	3	BIKE	125	n/a	n/a	0	0	0
873.098	n/a	REC_WORD	436549	wordpools/wasnorm_wordpool_576.txt	LTP122	ltpFR2	1	3	DAISY	435	n/a	n/a	0	0	0
875.07	n/a	REC_WORD	437535	wordpools/wasnorm_wordpool_576.txt	LTP122	ltpFR2	1	3	RIFLE	1192	n/a	n/a	0	0	0
875.888	n/a	REC_WORD	437944	wordpools/wasnorm_wordpool_576.txt	LTP122	ltpFR2	1	3	VALLEY	1545	n/a	n/a	0	0	0
876.888	n/a	REC_WORD	438444	wordpools/wasnorm_wordpool_576.txt	LTP122	ltpFR2	1	3	BACKBONE	66	n/a	n/a	0	0	0
878.414	n/a	REC_WORD	439207	wordpools/wasnorm_wordpool_576.txt	LTP122	ltpFR2	1	3	PATROL	1027	n/a	n/a	0	0	0
879.422	n/a	REC_WORD	439711	wordpools/wasnorm_wordpool_576.txt	LTP122	ltpFR2	1	3	BADGE	68	n/a	n/a	0	0	0
881.048	n/a	REC_WORD	440524	wordpools/wasnorm_wordpool_576.txt	LTP122	ltpFR2	1	3	SWAMP	1416	n/a	n/a	0	0	0
883.144	n/a	REC_WORD	441572	wordpools/wasnorm_wordpool_576.txt	LTP122	ltpFR2	1	3	EAGLE	512	n/a	n/a	0	0	0
890.532	n/a	REC_WORD	445266	wordpools/wasnorm_wordpool_576.txt	LTP122	ltpFR2	1	3	ACTOR	5	n/a	n/a	0	0	0
917.974	n/a	REC_WORD	458987	wordpools/wasnorm_wordpool_576.txt	LTP122	ltpFR2	1	3	STICKER	1382	n/a	n/a	0	0	0
939.744	n/a	WORD	469872	wordpools/wasnorm_wordpool_576.txt	LTP122	ltpFR2	1	4	CRIB	407	n/a	n/a	0	0	0
942.314	n/a	WORD	471157	wordpools/wasnorm_wordpool_576.txt	LTP122	ltpFR2	1	4	WOMAN	1620	n/a	n/a	0	0	0
944.814	n/a	WORD	472407	wordpools/wasnorm_wordpool_576.txt	LTP122	ltpFR2	1	4	BISON	131	n/a	n/a	0	0	0
947.352	n/a	WORD	473676	wordpools/wasnorm_wordpool_576.txt	LTP122	ltpFR2	1	4	BEAST	108	n/a	n/a	0	0	0
950.018	n/a	WORD	475009	wordpools/wasnorm_wordpool_576.txt	LTP122	ltpFR2	1	4	CHILD	299	n/a	n/a	0	0	0
952.788	n/a	WORD	476394	wordpools/wasnorm_wordpool_576.txt	LTP122	ltpFR2	1	4	NOMAD	955	n/a	n/a	0	0	0
955.556	n/a	WORD	477778	wordpools/wasnorm_wordpool_576.txt	LTP122	ltpFR2	1	4	CLAM	315	n/a	n/a	0	0	0
958.208	n/a	WORD	479104	wordpools/wasnorm_wordpool_576.txt	LTP122	ltpFR2	1	4	TORTOISE	1486	n/a	n/a	0	0	0
960.728	n/a	WORD	480364	wordpools/wasnorm_wordpool_576.txt	LTP122	ltpFR2	1	4	LEADER	807	n/a	n/a	0	0	0
963.214	n/a	WORD	481607	wordpools/wasnorm_wordpool_576.txt	LTP122	ltpFR2	1	4	PISTON	1076	n/a	n/a	0	0	0
966.032	n/a	WORD	483016	wordpools/wasnorm_wordpool_576.txt	LTP122	ltpFR2	1	4	GREASE	660	n/a	n/a	0	0	0
968.618	n/a	WORD	484309	wordpools/wasnorm_wordpool_576.txt	LTP122	ltpFR2	1	4	BLADE	134	n/a	n/a	0	0	0
971.404	n/a	WORD	485702	wordpools/wasnorm_wordpool_576.txt	LTP122	ltpFR2	1	4	MARROW	872	n/a	n/a	0	0	0
973.856	n/a	WORD	486928	wordpools/wasnorm_wordpool_576.txt	LTP122	ltpFR2	1	4	GYMNAST	675	n/a	n/a	0	0	0
976.342	n/a	WORD	488171	wordpools/wasnorm_wordpool_576.txt	LTP122	ltpFR2	1	4	YARN	1631	n/a	n/a	0	0	0
978.926	n/a	WORD	489463	wordpools/wasnorm_wordpool_576.txt	LTP122	ltpFR2	1	4	HIKER	708	n/a	n/a	0	0	0
981.68	n/a	WORD	490840	wordpools/wasnorm_wordpool_576.txt	LTP122	ltpFR2	1	4	SWORD	1423	n/a	n/a	0	0	0
984.316	n/a	WORD	492158	wordpools/wasnorm_wordpool_576.txt	LTP122	ltpFR2	1	4	RUG	1215	n/a	n/a	0	0	0
986.8	n/a	WORD	493400	wordpools/wasnorm_wordpool_576.txt	LTP122	ltpFR2	1	4	ROBBER	1197	n/a	n/a	0	0	0
989.636	n/a	WORD	494818	wordpools/wasnorm_wordpool_576.txt	LTP122	ltpFR2	1	4	DOUGHNUT	490	n/a	n/a	0	0	0
992.422	n/a	WORD	496211	wordpools/wasnorm_wordpool_576.txt	LTP122	ltpFR2	1	4	BUBBLE	183	n/a	n/a	0	0	0
995.242	n/a	WORD	497621	wordpools/wasnorm_wordpool_576.txt	LTP122	ltpFR2	1	4	BEEF	113	n/a	n/a	0	0	0
997.994	n/a	WORD	498997	wordpools/wasnorm_wordpool_576.txt	LTP122	ltpFR2	1	4	COTTAGE	384	n/a	n/a	0	0	0
1000.678	n/a	WORD	500339	wordpools/wasnorm_wordpool_576.txt	LTP122	ltpFR2	1	4	GRIZZLY	662	n/a	n/a	0	0	0
1002.298	n/a	START	501149	n/a	LTP122	ltpFR2	1	n/a	n/a	n/a	6	n/a	n/a	n/a	n/a
1003.298	n/a	DISTRACTOR	501649	n/a	LTP122	ltpFR2	1	4	n/a	n/a	n/a	n/a	0	0	0
1003.314	n/a	PROB	501657	n/a	LTP122	ltpFR2	1	n/a	n/a	n/a	6	14	6	5	3
1005.882	n/a	PROB	502941	n/a	LTP122	ltpFR2	1	n/a	n/a	n/a	6	20	4	8	8
1007.984	n/a	PROB	503992	n/a	LTP122	ltpFR2	1	n/a	n/a	n/a	6	21	7	5	9
1011.338	n/a	PROB	505669	n/a	LTP122	ltpFR2	1	n/a	n/a	n/a	6	13	2	4	7
1013.306	n/a	PROB	506653	n/a	LTP122	ltpFR2	1	n/a	n/a	n/a	6	16	5	3	8
1014.756	n/a	PROB	507378	n/a	LTP122	ltpFR2	1	n/a	n/a	n/a	6	14	3	7	4
1016.124	n/a	PROB	508062	n/a	LTP122	ltpFR2	1	n/a	n/a	n/a	6	14	5	6	3
1017.66	n/a	PROB	508830	n/a	LTP122	ltpFR2	1	n/a	n/a	n/a	6	12	8	3	1
1019.862	n/a	PROB	509931	n/a	LTP122	ltpFR2	1	n/a	n/a	n/a	6	15	4	4	7
1021.546	n/a	PROB	510773	n/a	LTP122	ltpFR2	1	n/a	n/a	n/a	6	17	7	7	3
1023.298	n/a	PROB	511649	n/a	LTP122	ltpFR2	1	n/a	n/a	n/a	6	23	9	5	9
1025.554	n/a	STOP	512777	n/a	LTP122	ltpFR2	1	n/a	n/a	n/a	6	n/a	n/a	n/a	n/a
1028.27	n/a	REC_START	514135	n/a	LTP122	ltpFR2	1	4	n/a	n/a	n/a	n/a	0	0	0
1033.074	n/a	REC_WORD	516537	wordpools/wasnorm_wordpool_576.txt	LTP122	ltpFR2	1	4	WOMAN	1620	n/a	n/a	0	0	0
1033.942	n/a	REC_WORD	516971	wordpools/wasnorm_wordpool_576.txt	LTP122	ltpFR2	1	4	CRIB	407	n/a	n/a	0	0	0
1034.726	n/a	REC_WORD	517363	wordpools/wasnorm_wordpool_576.txt	LTP122	ltpFR2	1	4	CHILD	299	n/a	n/a	0	0	0
1035.53	n/a	REC_WORD	517765	wordpools/wasnorm_wordpool_576.txt	LTP122	ltpFR2	1	4	KNIFE	785	n/a	n/a	0	0	0
1036.346	n/a	REC_WORD	518173	wordpools/wasnorm_wordpool_576.txt	LTP122	ltpFR2	1	4	RUG	1215	n/a	n/a	0	0	0
1037.274	n/a	REC_WORD	518637	wordpools/wasnorm_wordpool_576.txt	LTP122	ltpFR2	1	4	BUBBLE	183	n/a	n/a	0	0	0
1038.042	n/a	REC_WORD	519021	wordpools/wasnorm_wordpool_576.txt	LTP122	ltpFR2	1	4	BEEF	113	n/a	n/a	0	0	0
1038.736	n/a	REC_WORD	519368	wordpools/wasnorm_wordpool_576.txt	LTP122	ltpFR2	1	4	COTTAGE	384	n/a	n/a	0	0	0
1039.598	n/a	REC_WORD	519799	wordpools/wasnorm_wordpool_576.txt	LTP122	ltpFR2	1	4	GRIZZLY	662	n/a	n/a	0	0	0
1042.616	n/a	REC_WORD	521308	wordpools/wasnorm_wordpool_576.txt	LTP122	ltpFR2	1	4	GYMNAST	675	n/a	n/a	0	0	0
1043.626	n/a	REC_WORD	521813	wordpools/wasnorm_wordpool_576.txt	LTP122	ltpFR2	1	4	YARN	1631	n/a	n/a	0	0	0
1044.96	n/a	REC_WORD	522480	wordpools/wasnorm_wordpool_576.txt	LTP122	ltpFR2	1	4	ROBBER	1197	n/a	n/a	0	0	0
1045.896	n/a	REC_WORD	522948	wordpools/wasnorm_wordpool_576.txt	LTP122	ltpFR2	1	4	DOUGHNUT	490	n/a	n/a	0	0	0
1046.714	n/a	REC_WORD	523357	wordpools/wasnorm_wordpool_576.txt	LTP122	ltpFR2	1	4	HIKER	708	n/a	n/a	0	0	0
1047.39	n/a	REC_WORD	523695	wordpools/wasnorm_wordpool_576.txt	LTP122	ltpFR2	1	4	SWORD	1423	n/a	n/a	0	0	0
1050.448	n/a	REC_WORD	525224	wordpools/wasnorm_wordpool_576.txt	LTP122	ltpFR2	1	4	BISON	131	n/a	n/a	0	0	0
1055.176	n/a	REC_WORD	527588	wordpools/wasnorm_wordpool_576.txt	LTP122	ltpFR2	1	4	BEAST	108	n/a	n/a	0	0	0
1056.38	n/a	REC_WORD	528190	wordpools/wasnorm_wordpool_576.txt	LTP122	ltpFR2	1	4	NOMAD	955	n/a	n/a	0	0	0
1057.29	n/a	REC_WORD	528645	wordpools/wasnorm_wordpool_576.txt	LTP122	ltpFR2	1	4	PISTON	1076	n/a	n/a	0	0	0
1058.136	n/a	REC_WORD	529068	wordpools/wasnorm_wordpool_576.txt	LTP122	ltpFR2	1	4	GREASE	660	n/a	n/a	0	0	0
1064.284	n/a	REC_WORD	532142	wordpools/wasnorm_wordpool_576.txt	LTP122	ltpFR2	1	4	CLAM	315	n/a	n/a	0	0	0
1066.876	n/a	REC_WORD	533438	wordpools/wasnorm_wordpool_576.txt	LTP122	ltpFR2	1	4	TORTOISE	1486	n/a	n/a	0	0	0
1067.956	n/a	REC_WORD	533978	wordpools/wasnorm_wordpool_576.txt	LTP122	ltpFR2	1	4	LEADER	807	n/a	n/a	0	0	0
1118.896	n/a	WORD	559448	wordpools/wasnorm_wordpool_576.txt	LTP122	ltpFR2	1	5	SEAFOOD	1260	n/a	n/a	0	0	0
1121.448	n/a	WORD	560724	wordpools/wasnorm_wordpool_576.txt	LTP122	ltpFR2	1	5	FARMER	553	n/a	n/a	0	0	0
1124.2	n/a	WORD	562100	wordpools/wasnorm_wordpool_576.txt	LTP122	ltpFR2	1	5	WHISKERS	1605	n/a	n/a	0	0	0
1126.752	n/a	WORD	563376	wordpools/wasnorm_wordpool_576.txt	LTP122	ltpFR2	1	5	NOTEBOOK	959	n/a	n/a	0	0	0
1129.238	n/a	WORD	564619	wordpools/wasnorm_wordpool_576.txt	LTP122	ltpFR2	1	5	BRANCH	168	n/a	n/a	0	0	0
1132.006	n/a	WORD	566003	wordpools/wasnorm_wordpool_576.txt	LTP122	ltpFR2	1	5	ONION	977	n/a	n/a	0	0	0
1134.776	n/a	WORD	567388	wordpools/wasnorm_wordpool_576.txt	LTP122	ltpFR2	1	5	ULCER	1533	n/a	n/a	0	0	0
1137.478	n/a	WORD	568739	wordpools/wasnorm_wordpool_576.txt	LTP122	ltpFR2	1	5	SALAD	1224	n/a	n/a	0	0	0
1139.914	n/a	WORD	569957	wordpools/wasnorm_wordpool_576.txt	LTP122	ltpFR2	1	5	LADY	794	n/a	n/a	0	0	0
1142.666	n/a	WORD	571333	wordpools/wasnorm_wordpool_576.txt	LTP122	ltpFR2	1	5	DRESS	495	n/a	n/a	0	0	0
1145.252	n/a	WORD	572626	wordpools/wasnorm_wordpool_576.txt	LTP122	ltpFR2	1	5	PENGUIN	1044	n/a	n/a	0	0	0
1147.904	n/a	WORD	573952	wordpools/wasnorm_wordpool_576.txt	LTP122	ltpFR2	1	5	SLOPE	1328	n/a	n/a	0	0	0
1150.356	n/a	WORD	575178	wordpools/wasnorm_wordpool_576.txt	LTP122	ltpFR2	1	5	COD	340	n/a	n/a	0	0	0
1152.992	n/a	WORD	576496	wordpools/wasnorm_wordpool_576.txt	LTP122	ltpFR2	1	5	RAZOR	1171	n/a	n/a	0	0	0
1155.76	n/a	WORD	577880	wordpools/wasnorm_wordpool_576.txt	LTP122	ltpFR2	1	5	TWIG	1527	n/a	n/a	0	0	0
1158.38	n/a	WORD	579190	wordpools/wasnorm_wordpool_576.txt	LTP122	ltpFR2	1	5	POPCORN	1104	n/a	n/a	0	0	0
1160.916	n/a	WORD	580458	wordpools/wasnorm_wordpool_576.txt	LTP122	ltpFR2	1	5	SIBLING	1301	n/a	n/a	0	0	0
1163.734	n/a	WORD	581867	wordpools/wasnorm_wordpool_576.txt	LTP122	ltpFR2	1	5	HEADBAND	696	n/a	n/a	0	0	0
1166.418	n/a	WORD	583209	wordpools/wasnorm_wordpool_576.txt	LTP122	ltpFR2	1	5	BANJO	82	n/a	n/a	0	0	0
1169.238	n/a	WORD	584619	wordpools/wasnorm_wordpool_576.txt	LTP122	ltpFR2	1	5	RECORD	1176	n/a	n/a	0	0	0
1171.674	n/a	WORD	585837	wordpools/wasnorm_wordpool_576.txt	LTP122	ltpFR2	1	5	POSSUM	1112	n/a	n/a	0	0	0
1174.426	n/a	WORD	587213	wordpools/wasnorm_wordpool_576.txt	LTP122	ltpFR2	1	5	CHIPMUNK	304	n/a	n/a	0	0	0
1177.112	n/a	WORD	588556	wordpools/wasnorm_wordpool_576.txt	LTP122	ltpFR2	1	5	SHARK	1275	n/a	n/a	0	0	0
1179.764	n/a	WORD	589882	wordpools/wasnorm_wordpool_576.txt	LTP122	ltpFR2	1	5	BANQUET	86	n/a	n/a	0	0	0
1181.384	n/a	START	590692	n/a	LTP122	ltpFR2	1	n/a	n/a	n/a	7	n/a	n/a	n/a	n/a
1182.446	n/a	DISTRACTOR	591223	n/a	LTP122	ltpFR2	1	5	n/a	n/a	n/a	n/a	0	0	0
1182.466	n/a	PROB	591233	n/a	LTP122	ltpFR2	1	n/a	n/a	n/a	7	7	5	1	1
1184.268	n/a	PROB	592134	n/a	LTP122	ltpFR2	1	n/a	n/a	n/a	7	15	8	3	4
1186.152	n/a	PROB	593076	n/a	LTP122	ltpFR2	1	n/a	n/a	n/a	7	13	1	6	4
1187.87	n/a	PROB	593935	n/a	LTP122	ltpFR2	1	n/a	n/a	n/a	7	13	5	4	4
1189.456	n/a	PROB	594728	n/a	LTP122	ltpFR2	1	n/a	n/a	n/a	7	17	4	5	8
1191.208	n/a	PROB	595604	n/a	LTP122	ltpFR2	1	n/a	n/a	n/a	7	15	3	8	4
1193.058	n/a	PROB	596529	n/a	LTP122	ltpFR2	1	n/a	n/a	n/a	7	19	8	3	8
1195.61	n/a	PROB	597805	n/a	LTP122	ltpFR2	1	n/a	n/a	n/a	7	21	4	8	9
1197.596	n/a	PROB	598798	n/a	LTP122	ltpFR2	1	n/a	n/a	n/a	7	9	3	5	1
1199.632	n/a	PROB	599816	n/a	LTP122	ltpFR2	1	n/a	n/a	n/a	7	17	2	9	6
1201.532	n/a	PROB	600766	n/a	LTP122	ltpFR2	1	n/a	n/a	n/a	7	24	9	6	9
1205.384	n/a	STOP	602692	n/a	LTP122	ltpFR2	1	n/a	n/a	n/a	7	n/a	n/a	n/a	n/a
1207.272	n/a	REC_START	603636	n/a	LTP122	ltpFR2	1	5	n/a	n/a	n/a	n/a	0	0	0
1209.444	n/a	REC_WORD	604722	wordpools/wasnorm_wordpool_576.txt	LTP122	ltpFR2	1	5	BANQUET	86	n/a	n/a	0	0	0
1211.164	n/a	REC_WORD	605582	wordpools/wasnorm_wordpool_576.txt	LTP122	ltpFR2	1	5	SEAFOOD	1260	n/a	n/a	0	0	0
1212.07	n/a	REC_WORD	606035	wordpools/wasnorm_wordpool_576.txt	LTP122	ltpFR2	1	5	ONION	977	n/a	n/a	0	0	0
1212.702	n/a	REC_WORD	606351	wordpools/wasnorm_wordpool_576.txt	LTP122	ltpFR2	1	5	SALAD	1224	n/a	n/a	0	0	0
1214.022	n/a	REC_WORD	607011	wordpools/wasnorm_wordpool_576.txt	LTP122	ltpFR2	1	5	ULCER	1533	n/a	n/a	0	0	0
1215.588	n/a	REC_WORD	607794	wordpools/wasnorm_wordpool_576.txt	LTP122	ltpFR2	1	5	FARMER	553	n/a	n/a	0	0	0
1216.76	n/a	REC_WORD	608380	wordpools/wasnorm_wordpool_576.txt	LTP122	ltpFR2	1	5	WHISKERS	1605	n/a	n/a	0	0	0
1218.612	n/a	REC_WORD	609306	wordpools/wasnorm_wordpool_576.txt	LTP122	ltpFR2	1	5	BRANCH	168	n/a	n/a	0	0	0
1219.366	n/a	REC_WORD	609683	wordpools/wasnorm_wordpool_576.txt	LTP122	ltpFR2	1	5	TWIG	1527	n/a	n/a	0	0	0
1220.61	n/a	REC_WORD	610305	wordpools/wasnorm_wordpool_576.txt	LTP122	ltpFR2	1	5	NOTEBOOK	959	n/a	n/a	0	0	0
1223.068	n/a	REC_WORD	611534	wordpools/wasnorm_wordpool_576.txt	LTP122	ltpFR2	1	5	LADY	794	n/a	n/a	0	0	0
1224.04	n/a	REC_WORD	612020	wordpools/wasnorm_wordpool_576.txt	LTP122	ltpFR2	1	5	DRESS	495	n/a	n/a	0	0	0
1226.31	n/a	REC_WORD	613155	wordpools/wasnorm_wordpool_576.txt	LTP122	ltpFR2	1	5	SLOPE	1328	n/a	n/a	0	0	0
1227.008	n/a	REC_WORD	613504	wordpools/wasnorm_wordpool_576.txt	LTP122	ltpFR2	1	5	PENGUIN	1044	n/a	n/a	0	0	0
1227.806	n/a	REC_WORD	613903	wordpools/wasnorm_wordpool_576.txt	LTP122	ltpFR2	1	5	COD	340	n/a	n/a	0	0	0
1229.426	n/a	REC_WORD	614713	wordpools/wasnorm_wordpool_576.txt	LTP122	ltpFR2	1	5	POSSUM	1112	n/a	n/a	0	0	0
1230.392	n/a	REC_WORD	615196	wordpools/wasnorm_wordpool_576.txt	LTP122	ltpFR2	1	5	CHIPMUNK	304	n/a	n/a	0	0	0
1231.792	n/a	REC_WORD	615896	wordpools/wasnorm_wordpool_576.txt	LTP122	ltpFR2	1	5	SHARK	1275	n/a	n/a	0	0	0
1236.266	n/a	REC_WORD	618133	wordpools/wasnorm_wordpool_576.txt	LTP122	ltpFR2	1	5	POPCORN	1104	n/a	n/a	0	0	0
1237.032	n/a	REC_WORD	618516	wordpools/wasnorm_wordpool_576.txt	LTP122	ltpFR2	1	5	SIBLING	1301	n/a	n/a	0	0	0
1237.728	n/a	REC_WORD	618864	wordpools/wasnorm_wordpool_576.txt	LTP122	ltpFR2	1	5	HEADBAND	696	n/a	n/a	0	0	0
1238.828	n/a	REC_WORD	619414	wordpools/wasnorm_wordpool_576.txt	LTP122	ltpFR2	1	5	RAZOR	1171	n/a	n/a	0	0	0
1297.914	n/a	WORD	648957	wordpools/wasnorm_wordpool_576.txt	LTP122	ltpFR2	1	6	DIVER	476	n/a	n/a	0	0	0
1300.384	n/a	WORD	650192	wordpools/wasnorm_wordpool_576.txt	LTP122	ltpFR2	1	6	CREATURE	403	n/a	n/a	0	0	0
1303.136	n/a	WORD	651568	wordpools/wasnorm_wordpool_576.txt	LTP122	ltpFR2	1	6	CHAMPAGNE	278	n/a	n/a	0	0	0
1305.688	n/a	WORD	652844	wordpools/wasnorm_wordpool_576.txt	LTP122	ltpFR2	1	6	SERVER	1272	n/a	n/a	0	0	0
1308.424	n/a	WORD	654212	wordpools/wasnorm_wordpool_576.txt	LTP122	ltpFR2	1	6	CAFE	216	n/a	n/a	0	0	0
1310.942	n/a	WORD	655471	wordpools/wasnorm_wordpool_576.txt	LTP122	ltpFR2	1	6	COUCH	386	n/a	n/a	0	0	0
1313.444	n/a	WORD	656722	wordpools/wasnorm_wordpool_576.txt	LTP122	ltpFR2	1	6	QUARTER	1148	n/a	n/a	0	0	0
1315.896	n/a	WORD	657948	wordpools/wasnorm_wordpool_576.txt	LTP122	ltpFR2	1	6	BANK	83	n/a	n/a	0	0	0
1318.566	n/a	WORD	659283	wordpools/wasnorm_wordpool_576.txt	LTP122	ltpFR2	1	6	HOSTESS	723	n/a	n/a	0	0	0
1321.068	n/a	WORD	660534	wordpools/wasnorm_wordpool_576.txt	LTP122	ltpFR2	1	6	COFFEE	341	n/a	n/a	0	0	0
1323.62	n/a	WORD	661810	wordpools/wasnorm_wordpool_576.txt	LTP122	ltpFR2	1	6	PIGEON	1065	n/a	n/a	0	0	0
1326.406	n/a	WORD	663203	wordpools/wasnorm_wordpool_576.txt	LTP122	ltpFR2	1	6	SLIDE	1326	n/a	n/a	0	0	0
1329.242	n/a	WORD	664621	wordpools/wasnorm_wordpool_576.txt	LTP122	ltpFR2	1	6	SWIMMER	1420	n/a	n/a	0	0	0
1331.926	n/a	WORD	665963	wordpools/wasnorm_wordpool_576.txt	LTP122	ltpFR2	1	6	PADDING	999	n/a	n/a	0	0	0
1334.412	n/a	WORD	667206	wordpools/wasnorm_wordpool_576.txt	LTP122	ltpFR2	1	6	COURSE	390	n/a	n/a	0	0	0
1337.064	n/a	WORD	668532	wordpools/wasnorm_wordpool_576.txt	LTP122	ltpFR2	1	6	STOMACH	1384	n/a	n/a	0	0	0
1339.682	n/a	WORD	669841	wordpools/wasnorm_wordpool_576.txt	LTP122	ltpFR2	1	6	BELLY	119	n/a	n/a	0	0	0
1342.286	n/a	WORD	671143	wordpools/wasnorm_wordpool_576.txt	LTP122	ltpFR2	1	6	PATIENT	1024	n/a	n/a	0	0	0
1344.77	n/a	WORD	672385	wordpools/wasnorm_wordpool_576.txt	LTP122	ltpFR2	1	6	ACTRESS	6	n/a	n/a	0	0	0
1347.49	n/a	WORD	673745	wordpools/wasnorm_wordpool_576.txt	LTP122	ltpFR2	1	6	COCOON	339	n/a	n/a	0	0	0
1350.192	n/a	WORD	675096	wordpools/wasnorm_wordpool_576.txt	LTP122	ltpFR2	1	6	DUST	508	n/a	n/a	0	0	0
1352.762	n/a	WORD	676381	wordpools/wasnorm_wordpool_576.txt	LTP122	ltpFR2	1	6	TURKEY	1520	n/a	n/a	0	0	0
1355.53	n/a	WORD	677765	wordpools/wasnorm_wordpool_576.txt	LTP122	ltpFR2	1	6	EYELASH	546	n/a	n/a	0	0	0
1357.982	n/a	WORD	678991	wordpools/wasnorm_wordpool_576.txt	LTP122	ltpFR2	1	6	COCKTAIL	338	n/a	n/a	0	0	0
1359.584	n/a	START	679792	n/a	LTP122	ltpFR2	1	n/a	n/a	n/a	8	n/a	n/a	n/a	n/a
1360.448	n/a	DISTRACTOR	680224	n/a	LTP122	ltpFR2	1	6	n/a	n/a	n/a	n/a	0	0	0
1360.452	n/a	PROB	680226	n/a	LTP122	ltpFR2	1	n/a	n/a	n/a	8	2	5	1	6
1364.488	n/a	PROB	682244	n/a	LTP122	ltpFR2	1	n/a	n/a	n/a	8	16	6	2	8
1366.358	n/a	PROB	683179	n/a	LTP122	ltpFR2	1	n/a	n/a	n/a	8	17	7	4	6
1369.36	n/a	PROB	684680	n/a	LTP122	ltpFR2	1	n/a	n/a	n/a	8	6	1	2	3
1370.744	n/a	PROB	685372	n/a	LTP122	ltpFR2	1	n/a	n/a	n/a	8	12	2	6	4
1372.596	n/a	PROB	686298	n/a	LTP122	ltpFR2	1	n/a	n/a	n/a	8	13	2	3	8
1374.33	n/a	PROB	687165	n/a	LTP122	ltpFR2	1	n/a	n/a	n/a	8	19	5	7	7
1376.4	n/a	PROB	688200	n/a	LTP122	ltpFR2	1	n/a	n/a	n/a	8	9	2	1	6
1377.8	n/a	PROB	688900	n/a	LTP122	ltpFR2	1	n/a	n/a	n/a	8	14	2	8	4
1379.184	n/a	PROB	689592	n/a	LTP122	ltpFR2	1	n/a	n/a	n/a	8	20	6	5	9
1383.582	n/a	STOP	691791	n/a	LTP122	ltpFR2	1	n/a	n/a	n/a	8	n/a	n/a	n/a	n/a
1385.488	n/a	REC_START	692744	n/a	LTP122	ltpFR2	1	6	n/a	n/a	n/a	n/a	0	0	0
1392.136	n/a	REC_WORD	696068	wordpools/wasnorm_wordpool_576.txt	LTP122	ltpFR2	1	6	DIVER	476	n/a	n/a	0	0	0
1392.878	n/a	REC_WORD	696439	wordpools/wasnorm_wordpool_576.txt	LTP122	ltpFR2	1	6	CREATURE	403	n/a	n/a	0	0	0
1395.102	n/a	REC_WORD	697551	wordpools/wasnorm_wordpool_576.txt	LTP122	ltpFR2	1	6	CAFE	216	n/a	n/a	0	0	0
1396.57	n/a	REC_WORD	698285	wordpools/wasnorm_wordpool_576.txt	LTP122	ltpFR2	1	6	SERVER	1272	n/a	n/a	0	0	0
1397.554	n/a	REC_WORD	698777	wordpools/wasnorm_wordpool_576.txt	LTP122	ltpFR2	1	6	CHAMPAGNE	278	n/a	n/a	0	0	0
1398.766	n/a	REC_WORD	699383	wordpools/wasnorm_wordpool_576.txt	LTP122	ltpFR2	1	6	QUARTER	1148	n/a	n/a	0	0	0
1399.728	n/a	REC_WORD	699864	wordpools/wasnorm_wordpool_576.txt	LTP122	ltpFR2	1	6	BANK	83	n/a	n/a	0	0	0
1401.1	n/a	REC_WORD	700550	wordpools/wasnorm_wordpool_576.txt	LTP122	ltpFR2	1	6	HOSTESS	723	n/a	n/a	0	0	0
1402.638	n/a	REC_WORD	701319	wordpools/wasnorm_wordpool_576.txt	LTP122	ltpFR2	1	6	COFFEE	341	n/a	n/a	0	0	0
1404.574	n/a	REC_WORD	702287	wordpools/wasnorm_wordpool_576.txt	LTP122	ltpFR2	1	6	PIGEON	1065	n/a	n/a	0	0	0
1406.282	n/a	REC_WORD	703141	wordpools/wasnorm_wordpool_576.txt	LTP122	ltpFR2	1	6	SWIMMER	1420	n/a	n/a	0	0	0
1406.848	n/a	REC_WORD	703424	wordpools/wasnorm_wordpool_576.txt	LTP122	ltpFR2	1	6	SLIDE	1326	n/a	n/a	0	0	0
1407.764	n/a	REC_WORD	703882	wordpools/wasnorm_wordpool_576.txt	LTP122	ltpFR2	1	6	COURSE	390	n/a	n/a	0	0	0
1410.936	n/a	REC_WORD	705468	wordpools/wasnorm_wordpool_576.txt	LTP122	ltpFR2	1	6	PATIENT	1024	n/a	n/a	0	0	0
1411.566	n/a	REC_WORD	705783	wordpools/wasnorm_wordpool_576.txt	LTP122	ltpFR2	1	6	ACTRESS	6	n/a	n/a	0	0	0
1412.708	n/a	REC_WORD	706354	wordpools/wasnorm_wordpool_576.txt	LTP122	ltpFR2	1	6	TURKEY	1520	n/a	n/a	0	0	0
1413.656	n/a	REC_WORD	706828	wordpools/wasnorm_wordpool_576.txt	LTP122	ltpFR2	1	6	DUST	508	n/a	n/a	0	0	0
1414.366	n/a	REC_WORD	707183	wordpools/wasnorm_wordpool_576.txt	LTP122	ltpFR2	1	6	EYELASH	546	n/a	n/a	0	0	0
1419.688	n/a	REC_WORD	709844	wordpools/wasnorm_wordpool_576.txt	LTP122	ltpFR2	1	6	STOMACH	1384	n/a	n/a	0	0	0
1420.44	n/a	REC_WORD	710220	wordpools/wasnorm_wordpool_576.txt	LTP122	ltpFR2	1	6	BELLY	119	n/a	n/a	0	0	0
1421.134	n/a	REC_WORD	710567	wordpools/wasnorm_wordpool_576.txt	LTP122	ltpFR2	1	6	PADDING	999	n/a	n/a	0	0	0
1432.184	n/a	REC_WORD	716092	wordpools/wasnorm_wordpool_576.txt	LTP122	ltpFR2	1	6	COUCH	386	n/a	n/a	0	0	0
1475.982	n/a	DISTRACTOR	737991	n/a	LTP122	ltpFR2	1	7	n/a	n/a	n/a	n/a	0	0	0
1475.982	n/a	START	737991	n/a	LTP122	ltpFR2	1	n/a	n/a	n/a	9	n/a	n/a	n/a	n/a
1476.016	n/a	PROB	738008	n/a	LTP122	ltpFR2	1	n/a	n/a	n/a	9	12	5	5	2
1477.818	n/a	PROB	738909	n/a	LTP122	ltpFR2	1	n/a	n/a	n/a	9	16	7	1	7
1480.338	n/a	PROB	740169	n/a	LTP122	ltpFR2	1	n/a	n/a	n/a	9	23	8	8	7
1484.89	n/a	PROB	742445	n/a	LTP122	ltpFR2	1	n/a	n/a	n/a	9	24	9	7	8
1486.858	n/a	PROB	743429	n/a	LTP122	ltpFR2	1	n/a	n/a	n/a	9	16	4	8	4
1488.644	n/a	PROB	744322	n/a	LTP122	ltpFR2	1	n/a	n/a	n/a	9	16	4	6	6
1490.262	n/a	PROB	745131	n/a	LTP122	ltpFR2	1	n/a	n/a	n/a	9	24	8	8	8
1491.978	n/a	PROB	745989	n/a	LTP122	ltpFR2	1	n/a	n/a	n/a	9	22	8	6	7
1497.318	n/a	PROB	748659	n/a	LTP122	ltpFR2	1	n/a	n/a	n/a	9	17	2	9	6
1499.634	n/a	STOP	749817	n/a	LTP122	ltpFR2	1	n/a	n/a	n/a	9	n/a	n/a	n/a	n/a
1500.904	n/a	WORD	750452	wordpools/wasnorm_wordpool_576.txt	LTP122	ltpFR2	1	7	NECKLACE	940	n/a	n/a	0	0	0
1503.406	n/a	WORD	751703	wordpools/wasnorm_wordpool_576.txt	LTP122	ltpFR2	1	7	SPHINX	1349	n/a	n/a	0	0	0
1505.942	n/a	WORD	752971	wordpools/wasnorm_wordpool_576.txt	LTP122	ltpFR2	1	7	PALACE	1006	n/a	n/a	0	0	0
1508.66	n/a	WORD	754330	wordpools/wasnorm_wordpool_576.txt	LTP122	ltpFR2	1	7	SUSPECT	1415	n/a	n/a	0	0	0
1511.212	n/a	WORD	755606	wordpools/wasnorm_wordpool_576.txt	LTP122	ltpFR2	1	7	VICTIM	1562	n/a	n/a	0	0	0
1513.982	n/a	WORD	756991	wordpools/wasnorm_wordpool_576.txt	LTP122	ltpFR2	1	7	SUPPER	1411	n/a	n/a	0	0	0
1516.75	n/a	WORD	758375	wordpools/wasnorm_wordpool_576.txt	LTP122	ltpFR2	1	7	SNACK	1331	n/a	n/a	0	0	0
1519.536	n/a	WORD	759768	wordpools/wasnorm_wordpool_576.txt	LTP122	ltpFR2	1	7	FLAG	573	n/a	n/a	0	0	0
1522.172	n/a	WORD	761086	wordpools/wasnorm_wordpool_576.txt	LTP122	ltpFR2	1	7	PECAN	1036	n/a	n/a	0	0	0
1524.94	n/a	WORD	762470	wordpools/wasnorm_wordpool_576.txt	LTP122	ltpFR2	1	7	FRUIT	610	n/a	n/a	0	0	0
1527.726	n/a	WORD	763863	wordpools/wasnorm_wordpool_576.txt	LTP122	ltpFR2	1	7	HOUND	724	n/a	n/a	0	0	0
1530.264	n/a	WORD	765132	wordpools/wasnorm_wordpool_576.txt	LTP122	ltpFR2	1	7	HELMET	702	n/a	n/a	0	0	0
1532.782	n/a	WORD	766391	wordpools/wasnorm_wordpool_576.txt	LTP122	ltpFR2	1	7	PUDDING	1139	n/a	n/a	0	0	0
1535.4	n/a	WORD	767700	wordpools/wasnorm_wordpool_576.txt	LTP122	ltpFR2	1	7	CUPBOARD	425	n/a	n/a	0	0	0
1537.936	n/a	WORD	768968	wordpools/wasnorm_wordpool_576.txt	LTP122	ltpFR2	1	7	KITCHEN	778	n/a	n/a	0	0	0
1540.422	n/a	WORD	770211	wordpools/wasnorm_wordpool_576.txt	LTP122	ltpFR2	1	7	KEEPER	769	n/a	n/a	0	0	0
1542.874	n/a	WORD	771437	wordpools/wasnorm_wordpool_576.txt	LTP122	ltpFR2	1	7	BUREAU	199	n/a	n/a	0	0	0
1545.708	n/a	WORD	772854	wordpools/wasnorm_wordpool_576.txt	LTP122	ltpFR2	1	7	CHEMIST	292	n/a	n/a	0	0	0
1548.328	n/a	WORD	774164	wordpools/wasnorm_wordpool_576.txt	LTP122	ltpFR2	1	7	SAUSAGE	1238	n/a	n/a	0	0	0
1550.796	n/a	WORD	775398	wordpools/wasnorm_wordpool_576.txt	LTP122	ltpFR2	1	7	SHELTER	1282	n/a	n/a	0	0	0
1553.548	n/a	WORD	776774	wordpools/wasnorm_wordpool_576.txt	LTP122	ltpFR2	1	7	TUTU	1524	n/a	n/a	0	0	0
1556.302	n/a	WORD	778151	wordpools/wasnorm_wordpool_576.txt	LTP122	ltpFR2	1	7	SADDLE	1221	n/a	n/a	0	0	0
1558.736	n/a	WORD	779368	wordpools/wasnorm_wordpool_576.txt	LTP122	ltpFR2	1	7	DRAGON	492	n/a	n/a	0	0	0
1561.522	n/a	WORD	780761	wordpools/wasnorm_wordpool_576.txt	LTP122	ltpFR2	1	7	CUSTARD	429	n/a	n/a	0	0	0
1563.14	n/a	START	781570	n/a	LTP122	ltpFR2	1	n/a	n/a	n/a	10	n/a	n/a	n/a	n/a
1564.176	n/a	DISTRACTOR	782088	n/a	LTP122	ltpFR2	1	7	n/a	n/a	n/a	n/a	0	0	0
1564.19	n/a	PROB	782095	n/a	LTP122	ltpFR2	1	n/a	n/a	n/a	10	23	6	9	8
1566.76	n/a	PROB	783380	n/a	LTP122	ltpFR2	1	n/a	n/a	n/a	10	18	4	8	6
1568.478	n/a	PROB	784239	n/a	LTP122	ltpFR2	1	n/a	n/a	n/a	10	19	7	3	9
1570.512	n/a	PROB	785256	n/a	LTP122	ltpFR2	1	n/a	n/a	n/a	10	11	1	4	6
1572.08	n/a	PROB	786040	n/a	LTP122	ltpFR2	1	n/a	n/a	n/a	10	14	1	9	4
1573.648	n/a	PROB	786824	n/a	LTP122	ltpFR2	1	n/a	n/a	n/a	10	4	2	1	1
1575.468	n/a	PROB	787734	n/a	LTP122	ltpFR2	1	n/a	n/a	n/a	10	17	1	8	8
1577.452	n/a	PROB	788726	n/a	LTP122	ltpFR2	1	n/a	n/a	n/a	10	18	7	8	3
1579.338	n/a	PROB	789669	n/a	LTP122	ltpFR2	1	n/a	n/a	n/a	10	6	2	3	1
1580.738	n/a	PROB	790369	n/a	LTP122	ltpFR2	1	n/a	n/a	n/a	10	10	5	4	1
1582.258	n/a	PROB	791129	n/a	LTP122	ltpFR2	1	n/a	n/a	n/a	10	20	7	6	7
1584.458	n/a	PROB	792229	n/a	LTP122	ltpFR2	1	n/a	n/a	n/a	10	24	7	7	6
1586.7	n/a	STOP	793350	n/a	LTP122	ltpFR2	1	n/a	n/a	n/a	10	n/a	n/a	n/a	n/a
1589.13	n/a	REC_START	794565	n/a	LTP122	ltpFR2	1	7	n/a	n/a	n/a	n/a	0	0	0
1593.366	n/a	REC_WORD	796683	wordpools/wasnorm_wordpool_576.txt	LTP122	ltpFR2	1	7	NECKLACE	940	n/a	n/a	0	0	0
1594.134	n/a	REC_WORD	797067	wordpools/wasnorm_wordpool_576.txt	LTP122	ltpFR2	1	7	SPHINX	1349	n/a	n/a	0	0	0
1595.264	n/a	REC_WORD	797632	wordpools/wasnorm_wordpool_576.txt	LTP122	ltpFR2	1	7	PALACE	1006	n/a	n/a	0	0	0
1596.0	n/a	REC_WORD	798000	wordpools/wasnorm_wordpool_576.txt	LTP122	ltpFR2	1	7	FLAG	573	n/a	n/a	0	0	0
1596.908	n/a	REC_WORD	798454	wordpools/wasnorm_wordpool_576.txt	LTP122	ltpFR2	1	7	SUSPECT	1415	n/a	n/a	0	0	0
1597.748	n/a	REC_WORD	798874	wordpools/wasnorm_wordpool_576.txt	LTP122	ltpFR2	1	7	VICTIM	1562	n/a	n/a	0	0	0
1599.67	n/a	REC_WORD	799835	wordpools/wasnorm_wordpool_576.txt	LTP122	ltpFR2	1	7	SUPPER	1411	n/a	n/a	0	0	0
1600.386	n/a	REC_WORD	800193	wordpools/wasnorm_wordpool_576.txt	LTP122	ltpFR2	1	7	SNACK	1331	n/a	n/a	0	0	0
1603.438	n/a	REC_WORD	801719	wordpools/wasnorm_wordpool_576.txt	LTP122	ltpFR2	1	7	PECAN	1036	n/a	n/a	0	0	0
1604.32	n/a	REC_WORD	802160	wordpools/wasnorm_wordpool_576.txt	LTP122	ltpFR2	1	7	FRUIT	610	n/a	n/a	0	0	0
1605.712	n/a	REC_WORD	802856	wordpools/wasnorm_wordpool_576.txt	LTP122	ltpFR2	1	7	CUSTARD	429	n/a	n/a	0	0	0
1606.872	n/a	REC_WORD	803436	wordpools/wasnorm_wordpool_576.txt	LTP122	ltpFR2	1	7	PUDDING	1139	n/a	n/a	0	0	0
1607.79	n/a	REC_WORD	803895	wordpools/wasnorm_wordpool_576.txt	LTP122	ltpFR2	1	7	HOUND	724	n/a	n/a	0	0	0
1608.506	n/a	REC_WORD	804253	wordpools/wasnorm_wordpool_576.txt	LTP122	ltpFR2	1	7	HELMET	702	n/a	n/a	0	0	0
1609.25	n/a	REC_WORD	804625	wordpools/wasnorm_wordpool_576.txt	LTP122	ltpFR2	1	7	SADDLE	1221	n/a	n/a	0	0	0
1610.438	n/a	REC_WORD	805219	wordpools/wasnorm_wordpool_576.txt	LTP122	ltpFR2	1	7	DRAGON	492	n/a	n/a	0	0	0
1614.488	n/a	REC_WORD	807244	wordpools/wasnorm_wordpool_576.txt	LTP122	ltpFR2	1	7	SHELTER	1282	n/a	n/a	0	0	0
1615.3	n/a	REC_WORD	807650	wordpools/wasnorm_wordpool_576.txt	LTP122	ltpFR2	1	7	KITCHEN	778	n/a	n/a	0	0	0
1616.22	n/a	REC_WORD	808110	wordpools/wasnorm_wordpool_576.txt	LTP122	ltpFR2	1	7	CUPBOARD	425	n/a	n/a	0	0	0
1617.152	n/a	REC_WORD	808576	wordpools/wasnorm_wordpool_576.txt	LTP122	ltpFR2	1	7	BUREAU	199	n/a	n/a	0	0	0
1618.198	n/a	REC_WORD	809099	wordpools/wasnorm_wordpool_576.txt	LTP122	ltpFR2	1	7	CHEMIST	292	n/a	n/a	0	0	0
1618.974	n/a	REC_WORD	809487	wordpools/wasnorm_wordpool_576.txt	LTP122	ltpFR2	1	7	SAUSAGE	1238	n/a	n/a	0	0	0
1620.0	n/a	REC_WORD	810000	wordpools/wasnorm_wordpool_576.txt	LTP122	ltpFR2	1	7	TUTU	1524	n/a	n/a	0	0	0
1679.588	n/a	WORD	839794	wordpools/wasnorm_wordpool_576.txt	LTP122	ltpFR2	1	8	KETCHUP	771	n/a	n/a	0	0	0
1682.358	n/a	WORD	841179	wordpools/wasnorm_wordpool_576.txt	LTP122	ltpFR2	1	8	ORCHID	982	n/a	n/a	0	0	0
1684.86	n/a	WORD	842430	wordpools/wasnorm_wordpool_576.txt	LTP122	ltpFR2	1	8	LILY	821	n/a	n/a	0	0	0
1687.53	n/a	WORD	843765	wordpools/wasnorm_wordpool_576.txt	LTP122	ltpFR2	1	8	UNCLE	1536	n/a	n/a	0	0	0
1690.182	n/a	WORD	845091	wordpools/wasnorm_wordpool_576.txt	LTP122	ltpFR2	1	8	PUDDLE	1140	n/a	n/a	0	0	0
1692.918	n/a	WORD	846459	wordpools/wasnorm_wordpool_576.txt	LTP122	ltpFR2	1	8	CANAL	226	n/a	n/a	0	0	0
1695.652	n/a	WORD	847826	wordpools/wasnorm_wordpool_576.txt	LTP122	ltpFR2	1	8	FLIPPER	580	n/a	n/a	0	0	0
1698.34	n/a	WORD	849170	wordpools/wasnorm_wordpool_576.txt	LTP122	ltpFR2	1	8	MAILMAN	858	n/a	n/a	0	0	0
1700.824	n/a	WORD	850412	wordpools/wasnorm_wordpool_576.txt	LTP122	ltpFR2	1	8	TABLE	1426	n/a	n/a	0	0	0
1703.26	n/a	WORD	851630	wordpools/wasnorm_wordpool_576.txt	LTP122	ltpFR2	1	8	ARM	38	n/a	n/a	0	0	0
1705.762	n/a	WORD	852881	wordpools/wasnorm_wordpool_576.txt	LTP122	ltpFR2	1	8	COOK	372	n/a	n/a	0	0	0
1708.48	n/a	WORD	854240	wordpools/wasnorm_wordpool_576.txt	LTP122	ltpFR2	1	8	SHRUB	1299	n/a	n/a	0	0	0
1711.3	n/a	WORD	855650	wordpools/wasnorm_wordpool_576.txt	LTP122	ltpFR2	1	8	ORANGE	980	n/a	n/a	0	0	0
1714.068	n/a	WORD	857034	wordpools/wasnorm_wordpool_576.txt	LTP122	ltpFR2	1	8	PORK	1108	n/a	n/a	0	0	0
1716.72	n/a	WORD	858360	wordpools/wasnorm_wordpool_576.txt	LTP122	ltpFR2	1	8	ATOM	55	n/a	n/a	0	0	0
1719.374	n/a	WORD	859687	wordpools/wasnorm_wordpool_576.txt	LTP122	ltpFR2	1	8	HIGHWAY	707	n/a	n/a	0	0	0
1721.992	n/a	WORD	860996	wordpools/wasnorm_wordpool_576.txt	LTP122	ltpFR2	1	8	MILDEW	893	n/a	n/a	0	0	0
1724.828	n/a	WORD	862414	wordpools/wasnorm_wordpool_576.txt	LTP122	ltpFR2	1	8	PARSLEY	1016	n/a	n/a	0	0	0
1727.348	n/a	WORD	863674	wordpools/wasnorm_wordpool_576.txt	LTP122	ltpFR2	1	8	MARKER	870	n/a	n/a	0	0	0
1730.066	n/a	WORD	865033	wordpools/wasnorm_wordpool_576.txt	LTP122	ltpFR2	1	8	PROTON	1132	n/a	n/a	0	0	0
1732.668	n/a	WORD	866334	wordpools/wasnorm_wordpool_576.txt	LTP122	ltpFR2	1	8	PARENT	1013	n/a	n/a	0	0	0
1735.37	n/a	WORD	867685	wordpools/wasnorm_wordpool_576.txt	LTP122	ltpFR2	1	8	BROOK	177	n/a	n/a	0	0	0
1737.822	n/a	WORD	868911	wordpools/wasnorm_wordpool_576.txt	LTP122	ltpFR2	1	8	TURNIP	1521	n/a	n/a	0	0	0
1740.524	n/a	WORD	870262	wordpools/wasnorm_wordpool_576.txt	LTP122	ltpFR2	1	8	GRILL	661	n/a	n/a	0	0	0
1742.142	n/a	START	871071	n/a	LTP122	ltpFR2	1	n/a	n/a	n/a	11	n/a	n/a	n/a	n/a
1743.052	n/a	DISTRACTOR	871526	n/a	LTP122	ltpFR2	1	8	n/a	n/a	n/a	n/a	0	0	0
1743.076	n/a	PROB	871538	n/a	LTP122	ltpFR2	1	n/a	n/a	n/a	11	4	1	1	2
1744.928	n/a	PROB	872464	n/a	LTP122	ltpFR2	1	n/a	n/a	n/a	11	13	3	9	1
1746.896	n/a	PROB	873448	n/a	LTP122	ltpFR2	1	n/a	n/a	n/a	11	23	9	5	9
1749.25	n/a	PROB	874625	n/a	LTP122	ltpFR2	1	n/a	n/a	n/a	11	20	5	8	7
1751.45	n/a	PROB	875725	n/a	LTP122	ltpFR2	1	n/a	n/a	n/a	11	18	8	2	8
1752.886	n/a	PROB	876443	n/a	LTP122	ltpFR2	1	n/a	n/a	n/a	11	18	7	5	6
1754.954	n/a	PROB	877477	n/a	LTP122	ltpFR2	1	n/a	n/a	n/a	11	11	8	1	2
1756.438	n/a	PROB	878219	n/a	LTP122	ltpFR2	1	n/a	n/a	n/a	11	9	4	4	1
1757.99	n/a	PROB	878995	n/a	LTP122	ltpFR2	1	n/a	n/a	n/a	11	12	4	5	3
1759.674	n/a	PROB	879837	n/a	LTP122	ltpFR2	1	n/a	n/a	n/a	11	9	1	1	7
1761.192	n/a	PROB	880596	n/a	LTP122	ltpFR2	1	n/a	n/a	n/a	11	12	4	5	3
1762.71	n/a	PROB	881355	n/a	LTP122	ltpFR2	1	n/a	n/a	n/a	11	12	4	2	6
1765.784	n/a	STOP	882892	n/a	LTP122	ltpFR2	1	n/a	n/a	n/a	11	n/a	n/a	n/a	n/a
1768.03	n/a	REC_START	884015	n/a	LTP122	ltpFR2	1	8	n/a	n/a	n/a	n/a	0	0	0
1773.11	n/a	REC_WORD	886555	wordpools/wasnorm_wordpool_576.txt	LTP122	ltpFR2	1	8	ORCHID	982	n/a	n/a	0	0	0
1774.438	n/a	REC_WORD	887219	wordpools/wasnorm_wordpool_576.txt	LTP122	ltpFR2	1	8	LILY	821	n/a	n/a	0	0	0
1777.564	n/a	REC_WORD	888782	wordpools/wasnorm_wordpool_576.txt	LTP122	ltpFR2	1	8	UNCLE	1536	n/a	n/a	0	0	0
1778.502	n/a	REC_WORD	889251	wordpools/wasnorm_wordpool_576.txt	LTP122	ltpFR2	1	8	MAILMAN	858	n/a	n/a	0	0	0
1779.88	n/a	REC_WORD	889940	wordpools/wasnorm_wordpool_576.txt	LTP122	ltpFR2	1	8	COOK	372	n/a	n/a	0	0	0
1780.878	n/a	REC_WORD	890439	wordpools/wasnorm_wordpool_576.txt	LTP122	ltpFR2	1	8	TABLE	1426	n/a	n/a	0	0	0
1781.872	n/a	REC_WORD	890936	wordpools/wasnorm_wordpool_576.txt	LTP122	ltpFR2	1	8	PORK	1108	n/a	n/a	0	0	0
1782.54	n/a	REC_WORD	891270	wordpools/wasnorm_wordpool_576.txt	LTP122	ltpFR2	1	8	KETCHUP	771	n/a	n/a	0	0	0
1783.186	n/a	REC_WORD	891593	wordpools/wasnorm_wordpool_576.txt	LTP122	ltpFR2	1	8	PARSLEY	1016	n/a	n/a	0	0	0
1785.396	n/a	REC_WORD	892698	wordpools/wasnorm_wordpool_576.txt	LTP122	ltpFR2	1	8	TURNIP	1521	n/a	n/a	0	0	0
1786.05	n/a	REC_WORD	893025	wordpools/wasnorm_wordpool_576.txt	LTP122	ltpFR2	1	8	GRILL	661	n/a	n/a	0	0	0
1788.528	n/a	REC_WORD	894264	wordpools/wasnorm_wordpool_576.txt	LTP122	ltpFR2	1	8	PARENT	1013	n/a	n/a	0	0	0
1789.022	n/a	REC_WORD	894511	wordpools/wasnorm_wordpool_576.txt	LTP122	ltpFR2	1	8	MARKER	870	n/a	n/a	0	0	0
1792.012	n/a	REC_WORD	896006	wordpools/wasnorm_wordpool_576.txt	LTP122	ltpFR2	1	8	BROOK	177	n/a	n/a	0	0	0
1792.666	n/a	REC_WORD	896333	wordpools/wasnorm_wordpool_576.txt	LTP122	ltpFR2	1	8	CANAL	226	n/a	n/a	0	0	0
1793.72	n/a	REC_WORD	896860	wordpools/wasnorm_wordpool_576.txt	LTP122	ltpFR2	1	8	PUDDLE	1140	n/a	n/a	0	0	0
1794.42	n/a	REC_WORD	897210	wordpools/wasnorm_wordpool_576.txt	LTP122	ltpFR2	1	8	FLIPPER	580	n/a	n/a	0	0	0
1795.504	n/a	REC_WORD	897752	wordpools/wasnorm_wordpool_576.txt	LTP122	ltpFR2	1	8	MILDEW	893	n/a	n/a	0	0	0
1797.686	n/a	REC_WORD	898843	wordpools/wasnorm_wordpool_576.txt	LTP122	ltpFR2	1	8	SHRUB	1299	n/a	n/a	0	0	0
1798.67	n/a	REC_WORD	899335	wordpools/wasnorm_wordpool_576.txt	LTP122	ltpFR2	1	8	ORANGE	980	n/a	n/a	0	0	0
1804.95	n/a	REC_WORD	902475	wordpools/wasnorm_wordpool_576.txt	LTP122	ltpFR2	1	8	ATOM	55	n/a	n/a	0	0	0
1805.808	n/a	REC_WORD	902904	wordpools/wasnorm_wordpool_576.txt	LTP122	ltpFR2	1	8	PROTON	1132	n/a	n/a	0	0	0
1813.304	n/a	REC_WORD	906652	wordpools/wasnorm_wordpool_576.txt	LTP122	ltpFR2	1	8	HIGHWAY	707	n/a	n/a	0	0	0
1844.58	n/a	REST_REWET	922290	n/a	LTP122	ltpFR2	1	8	n/a	n/a	n/a	n/a	0	0	0
2073.174	n/a	DISTRACTOR	1036587	n/a	LTP122	ltpFR2	1	9	n/a	n/a	n/a	n/a	0	0	0
2073.174	n/a	START	1036587	n/a	LTP122	ltpFR2	1	n/a	n/a	n/a	12	n/a	n/a	n/a	n/a
2073.208	n/a	PROB	1036604	n/a	LTP122	ltpFR2	1	n/a	n/a	n/a	12	19	2	8	9
2075.56	n/a	PROB	1037780	n/a	LTP122	ltpFR2	1	n/a	n/a	n/a	12	13	2	5	6
2077.678	n/a	PROB	1038839	n/a	LTP122	ltpFR2	1	n/a	n/a	n/a	12	14	5	7	2
2080.146	n/a	PROB	1040073	n/a	LTP122	ltpFR2	1	n/a	n/a	n/a	12	18	6	8	4
2082.148	n/a	PROB	1041074	n/a	LTP122	ltpFR2	1	n/a	n/a	n/a	12	22	6	7	9
2085.584	n/a	PROB	1042792	n/a	LTP122	ltpFR2	1	n/a	n/a	n/a	12	13	2	9	2
2087.286	n/a	PROB	1043643	n/a	LTP122	ltpFR2	1	n/a	n/a	n/a	12	5	1	3	1
2088.552	n/a	PROB	1044276	n/a	LTP122	ltpFR2	1	n/a	n/a	n/a	12	18	7	7	4
2093.106	n/a	PROB	1046553	n/a	LTP122	ltpFR2	1	n/a	n/a	n/a	12	11	5	3	3
2094.692	n/a	PROB	1047346	n/a	LTP122	ltpFR2	1	n/a	n/a	n/a	12	19	3	7	9
2096.054	n/a	STOP	1048027	n/a	LTP122	ltpFR2	1	n/a	n/a	n/a	12	n/a	n/a	n/a	n/a
2098.312	n/a	WORD	1049156	wordpools/wasnorm_wordpool_576.txt	LTP122	ltpFR2	1	9	CRAYON	401	n/a	n/a	0	0	0
2101.098	n/a	WORD	1050549	wordpools/wasnorm_wordpool_576.txt	LTP122	ltpFR2	1	9	JAPAN	749	n/a	n/a	0	0	0
2103.832	n/a	WORD	1051916	wordpools/wasnorm_wordpool_576.txt	LTP122	ltpFR2	1	9	TROUT	1511	n/a	n/a	0	0	0
2106.502	n/a	WORD	1053251	wordpools/wasnorm_wordpool_576.txt	LTP122	ltpFR2	1	9	SLUG	1329	n/a	n/a	0	0	0
2109.322	n/a	WORD	1054661	wordpools/wasnorm_wordpool_576.txt	LTP122	ltpFR2	1	9	SCISSORS	1250	n/a	n/a	0	0	0
2111.906	n/a	WORD	1055953	wordpools/wasnorm_wordpool_576.txt	LTP122	ltpFR2	1	9	CHEST	295	n/a	n/a	0	0	0
2114.36	n/a	WORD	1057180	wordpools/wasnorm_wordpool_576.txt	LTP122	ltpFR2	1	9	BODY	145	n/a	n/a	0	0	0
2117.06	n/a	WORD	1058530	wordpools/wasnorm_wordpool_576.txt	LTP122	ltpFR2	1	9	PLAYGROUND	1087	n/a	n/a	0	0	0
2119.864	n/a	WORD	1059932	wordpools/wasnorm_wordpool_576.txt	LTP122	ltpFR2	1	9	DRAWING	494	n/a	n/a	0	0	0
2122.532	n/a	WORD	1061266	wordpools/wasnorm_wordpool_576.txt	LTP122	ltpFR2	1	9	GLOBE	641	n/a	n/a	0	0	0
2125.336	n/a	WORD	1062668	wordpools/wasnorm_wordpool_576.txt	LTP122	ltpFR2	1	9	TEACHER	1440	n/a	n/a	0	0	0
2127.804	n/a	WORD	1063902	wordpools/wasnorm_wordpool_576.txt	LTP122	ltpFR2	1	9	PERMIT	1051	n/a	n/a	0	0	0
2130.356	n/a	WORD	1065178	wordpools/wasnorm_wordpool_576.txt	LTP122	ltpFR2	1	9	ASIA	46	n/a	n/a	0	0	0
2132.792	n/a	WORD	1066396	wordpools/wasnorm_wordpool_576.txt	LTP122	ltpFR2	1	9	GARBAGE	622	n/a	n/a	0	0	0
2135.46	n/a	WORD	1067730	wordpools/wasnorm_wordpool_576.txt	LTP122	ltpFR2	1	9	OUTLAW	989	n/a	n/a	0	0	0
2138.03	n/a	WORD	1069015	wordpools/wasnorm_wordpool_576.txt	LTP122	ltpFR2	1	9	COLLEGE	346	n/a	n/a	0	0	0
2140.596	n/a	WORD	1070298	wordpools/wasnorm_wordpool_576.txt	LTP122	ltpFR2	1	9	BUCKET	184	n/a	n/a	0	0	0
2143.284	n/a	WORD	1071642	wordpools/wasnorm_wordpool_576.txt	LTP122	ltpFR2	1	9	SPOOL	1356	n/a	n/a	0	0	0
2145.968	n/a	WORD	1072984	wordpools/wasnorm_wordpool_576.txt	LTP122	ltpFR2	1	9	OUTFIT	988	n/a	n/a	0	0	0
2148.488	n/a	WORD	1074244	wordpools/wasnorm_wordpool_576.txt	LTP122	ltpFR2	1	9	XEROX	1628	n/a	n/a	0	0	0
2151.29	n/a	WORD	1075645	wordpools/wasnorm_wordpool_576.txt	LTP122	ltpFR2	1	9	ROBOT	1200	n/a	n/a	0	0	0
2153.826	n/a	WORD	1076913	wordpools/wasnorm_wordpool_576.txt	LTP122	ltpFR2	1	9	STUDENT	1395	n/a	n/a	0	0	0
2156.594	n/a	WORD	1078297	wordpools/wasnorm_wordpool_576.txt	LTP122	ltpFR2	1	9	PUPIL	1143	n/a	n/a	0	0	0
2159.414	n/a	WORD	1079707	wordpools/wasnorm_wordpool_576.txt	LTP122	ltpFR2	1	9	LAVA	804	n/a	n/a	0	0	0
2161.032	n/a	START	1080516	n/a	LTP122	ltpFR2	1	n/a	n/a	n/a	13	n/a	n/a	n/a	n/a
2162.07	n/a	DISTRACTOR	1081035	n/a	LTP122	ltpFR2	1	9	n/a	n/a	n/a	n/a	0	0	0
2162.082	n/a	PROB	1081041	n/a	LTP122	ltpFR2	1	n/a	n/a	n/a	13	18	5	8	5
2164.352	n/a	PROB	1082176	n/a	LTP122	ltpFR2	1	n/a	n/a	n/a	13	21	6	9	6
2166.602	n/a	PROB	1083301	n/a	LTP122	ltpFR2	1	n/a	n/a	n/a	13	15	2	9	4
2168.454	n/a	PROB	1084227	n/a	LTP122	ltpFR2	1	n/a	n/a	n/a	13	15	7	4	4
2170.824	n/a	PROB	1085412	n/a	LTP122	ltpFR2	1	n/a	n/a	n/a	13	7	1	1	5
2172.792	n/a	PROB	1086396	n/a	LTP122	ltpFR2	1	n/a	n/a	n/a	13	12	6	3	3
2174.294	n/a	PROB	1087147	n/a	LTP122	ltpFR2	1	n/a	n/a	n/a	13	18	4	6	8
2176.194	n/a	PROB	1088097	n/a	LTP122	ltpFR2	1	n/a	n/a	n/a	13	13	2	9	2
2178.18	n/a	PROB	1089090	n/a	LTP122	ltpFR2	1	n/a	n/a	n/a	13	23	9	5	9
2180.632	n/a	PROB	1090316	n/a	LTP122	ltpFR2	1	n/a	n/a	n/a	13	14	8	1	5
2182.268	n/a	PROB	1091134	n/a	LTP122	ltpFR2	1	n/a	n/a	n/a	13	19	7	4	8
2184.28	n/a	STOP	1092140	n/a	LTP122	ltpFR2	1	n/a	n/a	n/a	13	n/a	n/a	n/a	n/a
2186.954	n/a	REC_START	1093477	n/a	LTP122	ltpFR2	1	9	n/a	n/a	n/a	n/a	0	0	0
2191.772	n/a	REC_WORD	1095886	wordpools/wasnorm_wordpool_576.txt	LTP122	ltpFR2	1	9	CRAYON	401	n/a	n/a	0	0	0
2192.454	n/a	REC_WORD	1096227	wordpools/wasnorm_wordpool_576.txt	LTP122	ltpFR2	1	9	DRAWING	494	n/a	n/a	0	0	0
2193.154	n/a	REC_WORD	1096577	wordpools/wasnorm_wordpool_576.txt	LTP122	ltpFR2	1	9	JAPAN	749	n/a	n/a	0	0	0
2194.07	n/a	REC_WORD	1097035	wordpools/wasnorm_wordpool_576.txt	LTP122	ltpFR2	1	9	ASIA	46	n/a	n/a	0	0	0
2194.708	n/a	REC_WORD	1097354	wordpools/wasnorm_wordpool_576.txt	LTP122	ltpFR2	1	9	SCISSORS	1250	n/a	n/a	0	0	0
2196.758	n/a	REC_WORD	1098379	wordpools/wasnorm_wordpool_576.txt	LTP122	ltpFR2	1	9	GARBAGE	622	n/a	n/a	0	0	0
2197.824	n/a	REC_WORD	1098912	wordpools/wasnorm_wordpool_576.txt	LTP122	ltpFR2	1	9	XEROX	1628	n/a	n/a	0	0	0
2198.822	n/a	REC_WORD	1099411	wordpools/wasnorm_wordpool_576.txt	LTP122	ltpFR2	1	9	ROBOT	1200	n/a	n/a	0	0	0
2201.276	n/a	REC_WORD	1100638	wordpools/wasnorm_wordpool_576.txt	LTP122	ltpFR2	1	9	SLUG	1329	n/a	n/a	0	0	0
2202.178	n/a	REC_WORD	1101089	wordpools/wasnorm_wordpool_576.txt	LTP122	ltpFR2	1	9	TROUT	1511	n/a	n/a	0	0	0
2203.534	n/a	REC_WORD	1101767	wordpools/wasnorm_wordpool_576.txt	LTP122	ltpFR2	1	9	GLOBE	641	n/a	n/a	0	0	0
2204.208	n/a	REC_WORD	1102104	wordpools/wasnorm_wordpool_576.txt	LTP122	ltpFR2	1	9	TEACHER	1440	n/a	n/a	0	0	0
2205.166	n/a	REC_WORD	1102583	wordpools/wasnorm_wordpool_576.txt	LTP122	ltpFR2	1	9	LICENSE	-1	n/a	n/a	0	0	0
2206.678	n/a	REC_WORD	1103339	wordpools/wasnorm_wordpool_576.txt	LTP122	ltpFR2	1	9	STUDENT	1395	n/a	n/a	0	0	0
2207.362	n/a	REC_WORD	1103681	wordpools/wasnorm_wordpool_576.txt	LTP122	ltpFR2	1	9	PUPIL	1143	n/a	n/a	0	0	0
2208.3	n/a	REC_WORD	1104150	wordpools/wasnorm_wordpool_576.txt	LTP122	ltpFR2	1	9	COLLEGE	346	n/a	n/a	0	0	0
2209.106	n/a	REC_WORD	1104553	wordpools/wasnorm_wordpool_576.txt	LTP122	ltpFR2	1	9	OUTLAW	989	n/a	n/a	0	0	0
2209.762	n/a	REC_WORD	1104881	wordpools/wasnorm_wordpool_576.txt	LTP122	ltpFR2	1	9	PLAYGROUND	1087	n/a	n/a	0	0	0
2210.412	n/a	REC_WORD	1105206	wordpools/wasnorm_wordpool_576.txt	LTP122	ltpFR2	1	9	SPOOL	1356	n/a	n/a	0	0	0
2211.044	n/a	REC_WORD	1105522	wordpools/wasnorm_wordpool_576.txt	LTP122	ltpFR2	1	9	BUCKET	184	n/a	n/a	0	0	0
2211.524	n/a	REC_WORD	1105762	wordpools/wasnorm_wordpool_576.txt	LTP122	ltpFR2	1	9	OUTFIT	988	n/a	n/a	0	0	0
2213.728	n/a	REC_WORD	1106864	wordpools/wasnorm_wordpool_576.txt	LTP122	ltpFR2	1	9	CHEST	295	n/a	n/a	0	0	0
2215.642	n/a	REC_WORD	1107821	wordpools/wasnorm_wordpool_576.txt	LTP122	ltpFR2	1	9	BODY	145	n/a	n/a	0	0	0
2226.062	n/a	REC_WORD	1113031	wordpools/wasnorm_wordpool_576.txt	LTP122	ltpFR2	1	9	LAVA	804	n/a	n/a	0	0	0
2277.614	n/a	WORD	1138807	wordpools/wasnorm_wordpool_576.txt	LTP122	ltpFR2	1	10	SANDWICH	1232	n/a	n/a	0	0	0
2280.416	n/a	WORD	1140208	wordpools/wasnorm_wordpool_576.txt	LTP122	ltpFR2	1	10	CONTRACT	368	n/a	n/a	0	0	0
2282.918	n/a	WORD	1141459	wordpools/wasnorm_wordpool_576.txt	LTP122	ltpFR2	1	10	JOURNAL	760	n/a	n/a	0	0	0
2285.672	n/a	WORD	1142836	wordpools/wasnorm_wordpool_576.txt	LTP122	ltpFR2	1	10	COUSIN	392	n/a	n/a	0	0	0
2288.24	n/a	WORD	1144120	wordpools/wasnorm_wordpool_576.txt	LTP122	ltpFR2	1	10	VIKING	1565	n/a	n/a	0	0	0
2290.976	n/a	WORD	1145488	wordpools/wasnorm_wordpool_576.txt	LTP122	ltpFR2	1	10	MACHINE	852	n/a	n/a	0	0	0
2293.562	n/a	WORD	1146781	wordpools/wasnorm_wordpool_576.txt	LTP122	ltpFR2	1	10	SKIRT	1319	n/a	n/a	0	0	0
2296.364	n/a	WORD	1148182	wordpools/wasnorm_wordpool_576.txt	LTP122	ltpFR2	1	10	SHOVEL	1295	n/a	n/a	0	0	0
2298.832	n/a	WORD	1149416	wordpools/wasnorm_wordpool_576.txt	LTP122	ltpFR2	1	10	LETTUCE	814	n/a	n/a	0	0	0
2301.484	n/a	WORD	1150742	wordpools/wasnorm_wordpool_576.txt	LTP122	ltpFR2	1	10	MUSTARD	935	n/a	n/a	0	0	0
2304.22	n/a	WORD	1152110	wordpools/wasnorm_wordpool_576.txt	LTP122	ltpFR2	1	10	BOARD	143	n/a	n/a	0	0	0
2306.788	n/a	WORD	1153394	wordpools/wasnorm_wordpool_576.txt	LTP122	ltpFR2	1	10	MARKET	871	n/a	n/a	0	0	0
2309.374	n/a	WORD	1154687	wordpools/wasnorm_wordpool_576.txt	LTP122	ltpFR2	1	10	PERFUME	1049	n/a	n/a	0	0	0
2312.21	n/a	WORD	1156105	wordpools/wasnorm_wordpool_576.txt	LTP122	ltpFR2	1	10	WAITER	1580	n/a	n/a	0	0	0
2314.696	n/a	WORD	1157348	wordpools/wasnorm_wordpool_576.txt	LTP122	ltpFR2	1	10	REPORT	1184	n/a	n/a	0	0	0
2317.448	n/a	WORD	1158724	wordpools/wasnorm_wordpool_576.txt	LTP122	ltpFR2	1	10	TWISTER	1530	n/a	n/a	0	0	0
2320.166	n/a	WORD	1160083	wordpools/wasnorm_wordpool_576.txt	LTP122	ltpFR2	1	10	GRAPE	654	n/a	n/a	0	0	0
2322.952	n/a	WORD	1161476	wordpools/wasnorm_wordpool_576.txt	LTP122	ltpFR2	1	10	COOKBOOK	373	n/a	n/a	0	0	0
2325.454	n/a	WORD	1162727	wordpools/wasnorm_wordpool_576.txt	LTP122	ltpFR2	1	10	DRESSER	496	n/a	n/a	0	0	0
2327.956	n/a	WORD	1163978	wordpools/wasnorm_wordpool_576.txt	LTP122	ltpFR2	1	10	HAMPER	682	n/a	n/a	0	0	0
2330.576	n/a	WORD	1165288	wordpools/wasnorm_wordpool_576.txt	LTP122	ltpFR2	1	10	FRAGRANCE	599	n/a	n/a	0	0	0
2333.062	n/a	WORD	1166531	wordpools/wasnorm_wordpool_576.txt	LTP122	ltpFR2	1	10	PUPPY	1144	n/a	n/a	0	0	0
2335.696	n/a	WORD	1167848	wordpools/wasnorm_wordpool_576.txt	LTP122	ltpFR2	1	10	CATCHER	258	n/a	n/a	0	0	0
2338.316	n/a	WORD	1169158	wordpools/wasnorm_wordpool_576.txt	LTP122	ltpFR2	1	10	SALT	1229	n/a	n/a	0	0	0
2339.934	n/a	START	1169967	n/a	LTP122	ltpFR2	1	n/a	n/a	n/a	14	n/a	n/a	n/a	n/a
2341.066	n/a	DISTRACTOR	1170533	n/a	LTP122	ltpFR2	1	10	n/a	n/a	n/a	n/a	0	0	0
2341.084	n/a	PROB	1170542	n/a	LTP122	ltpFR2	1	n/a	n/a	n/a	14	12	3	1	8
2344.454	n/a	PROB	1172227	n/a	LTP122	ltpFR2	1	n/a	n/a	n/a	14	13	9	3	1
2346.224	n/a	PROB	1173112	n/a	LTP122	ltpFR2	1	n/a	n/a	n/a	14	23	9	8	6
2352.794	n/a	PROB	1176397	n/a	LTP122	ltpFR2	1	n/a	n/a	n/a	14	16	7	2	7
2354.446	n/a	PROB	1177223	n/a	LTP122	ltpFR2	1	n/a	n/a	n/a	14	17	6	2	9
2356.382	n/a	PROB	1178191	n/a	LTP122	ltpFR2	1	n/a	n/a	n/a	14	18	6	3	9
2357.916	n/a	PROB	1178958	n/a	LTP122	ltpFR2	1	n/a	n/a	n/a	14	17	6	5	6
2359.634	n/a	PROB	1179817	n/a	LTP122	ltpFR2	1	n/a	n/a	n/a	14	17	7	9	1
2361.434	n/a	PROB	1180717	n/a	LTP122	ltpFR2	1	n/a	n/a	n/a	14	13	5	1	7
2362.93	n/a	STOP	1181465	n/a	LTP122	ltpFR2	1	n/a	n/a	n/a	14	n/a	n/a	n/a	n/a
2365.74	n/a	REC_START	1182870	n/a	LTP122	ltpFR2	1	10	n/a	n/a	n/a	n/a	0	0	0
2369.776	n/a	REC_WORD	1184888	wordpools/wasnorm_wordpool_576.txt	LTP122	ltpFR2	1	10	SANDWICH	1232	n/a	n/a	0	0	0
2370.552	n/a	REC_WORD	1185276	wordpools/wasnorm_wordpool_576.txt	LTP122	ltpFR2	1	10	LETTUCE	814	n/a	n/a	0	0	0
2371.17	n/a	REC_WORD	1185585	wordpools/wasnorm_wordpool_576.txt	LTP122	ltpFR2	1	10	MUSTARD	935	n/a	n/a	0	0	0
2372.052	n/a	REC_WORD	1186026	wordpools/wasnorm_wordpool_576.txt	LTP122	ltpFR2	1	10	CONTRACT	368	n/a	n/a	0	0	0
2372.652	n/a	REC_WORD	1186326	wordpools/wasnorm_wordpool_576.txt	LTP122	ltpFR2	1	10	REPORT	1184	n/a	n/a	0	0	0
2373.6	n/a	REC_WORD	1186800	wordpools/wasnorm_wordpool_576.txt	LTP122	ltpFR2	1	10	JOURNAL	760	n/a	n/a	0	0	0
2374.232	n/a	REC_WORD	1187116	wordpools/wasnorm_wordpool_576.txt	LTP122	ltpFR2	1	10	VIKING	1565	n/a	n/a	0	0	0
2375.144	n/a	REC_WORD	1187572	wordpools/wasnorm_wordpool_576.txt	LTP122	ltpFR2	1	10	COUSIN	392	n/a	n/a	0	0	0
2376.922	n/a	REC_WORD	1188461	wordpools/wasnorm_wordpool_576.txt	LTP122	ltpFR2	1	10	MACHINE	852	n/a	n/a	0	0	0
2377.924	n/a	REC_WORD	1188962	wordpools/wasnorm_wordpool_576.txt	LTP122	ltpFR2	1	10	SKIRT	1319	n/a	n/a	0	0	0
2378.804	n/a	REC_WORD	1189402	wordpools/wasnorm_wordpool_576.txt	LTP122	ltpFR2	1	10	SHOVEL	1295	n/a	n/a	0	0	0
2384.428	n/a	REC_WORD	1192214	wordpools/wasnorm_wordpool_576.txt	LTP122	ltpFR2	1	10	BOARD	143	n/a	n/a	0	0	0
2385.022	n/a	REC_WORD	1192511	wordpools/wasnorm_wordpool_576.txt	LTP122	ltpFR2	1	10	MARKET	871	n/a	n/a	0	0	0
2387.5	n/a	REC_WORD	1193750	wordpools/wasnorm_wordpool_576.txt	LTP122	ltpFR2	1	10	PERFUME	1049	n/a	n/a	0	0	0
2388.564	n/a	REC_WORD	1194282	wordpools/wasnorm_wordpool_576.txt	LTP122	ltpFR2	1	10	FRAGRANCE	599	n/a	n/a	0	0	0
2389.918	n/a	REC_WORD	1194959	wordpools/wasnorm_wordpool_576.txt	LTP122	ltpFR2	1	10	WAITER	1580	n/a	n/a	0	0	0
2391.118	n/a	REC_WORD	1195559	wordpools/wasnorm_wordpool_576.txt	LTP122	ltpFR2	1	10	GRAPE	654	n/a	n/a	0	0	0
2392.374	n/a	REC_WORD	1196187	wordpools/wasnorm_wordpool_576.txt	LTP122	ltpFR2	1	10	COOKBOOK	373	n/a	n/a	0	0	0
2393.726	n/a	REC_WORD	1196863	wordpools/wasnorm_wordpool_576.txt	LTP122	ltpFR2	1	10	SALT	1229	n/a	n/a	0	0	0
2395.686	n/a	REC_WORD	1197843	wordpools/wasnorm_wordpool_576.txt	LTP122	ltpFR2	1	10	PUPPY	1144	n/a	n/a	0	0	0
2396.356	n/a	REC_WORD	1198178	wordpools/wasnorm_wordpool_576.txt	LTP122	ltpFR2	1	10	CATCHER	258	n/a	n/a	0	0	0
2401.756	n/a	REC_WORD	1200878	wordpools/wasnorm_wordpool_576.txt	LTP122	ltpFR2	1	10	TWISTER	1530	n/a	n/a	0	0	0
2409.782	n/a	REC_WORD	1204891	wordpools/wasnorm_wordpool_576.txt	LTP122	ltpFR2	1	10	DRESSER	496	n/a	n/a	0	0	0
2410.662	n/a	REC_WORD	1205331	wordpools/wasnorm_wordpool_576.txt	LTP122	ltpFR2	1	10	HAMPER	682	n/a	n/a	0	0	0
2456.35	n/a	DISTRACTOR	1228175	n/a	LTP122	ltpFR2	1	11	n/a	n/a	n/a	n/a	0	0	0
2456.35	n/a	START	1228175	n/a	LTP122	ltpFR2	1	n/a	n/a	n/a	15	n/a	n/a	n/a	n/a
2456.384	n/a	PROB	1228192	n/a	LTP122	ltpFR2	1	n/a	n/a	n/a	15	12	6	4	2
2458.118	n/a	PROB	1229059	n/a	LTP122	ltpFR2	1	n/a	n/a	n/a	15	25	9	8	8
2462.104	n/a	PROB	1231052	n/a	LTP122	ltpFR2	1	n/a	n/a	n/a	15	5	1	3	1
2463.456	n/a	PROB	1231728	n/a	LTP122	ltpFR2	1	n/a	n/a	n/a	15	10	4	3	4
2465.39	n/a	PROB	1232695	n/a	LTP122	ltpFR2	1	n/a	n/a	n/a	15	7	5	1	1
2467.058	n/a	PROB	1233529	n/a	LTP122	ltpFR2	1	n/a	n/a	n/a	15	23	5	8	8
2470.594	n/a	PROB	1235297	n/a	LTP122	ltpFR2	1	n/a	n/a	n/a	15	25	8	6	7
2474.164	n/a	PROB	1237082	n/a	LTP122	ltpFR2	1	n/a	n/a	n/a	15	18	1	8	9
2476.4	n/a	PROB	1238200	n/a	LTP122	ltpFR2	1	n/a	n/a	n/a	15	17	4	5	8
2478.068	n/a	PROB	1239034	n/a	LTP122	ltpFR2	1	n/a	n/a	n/a	15	11	7	3	1
2479.342	n/a	STOP	1239671	n/a	LTP122	ltpFR2	1	n/a	n/a	n/a	15	n/a	n/a	n/a	n/a
2481.57	n/a	WORD	1240785	wordpools/wasnorm_wordpool_576.txt	LTP122	ltpFR2	1	11	MOP	916	n/a	n/a	0	0	0
2484.24	n/a	WORD	1242120	wordpools/wasnorm_wordpool_576.txt	LTP122	ltpFR2	1	11	BABY	64	n/a	n/a	0	0	0
2486.742	n/a	WORD	1243371	wordpools/wasnorm_wordpool_576.txt	LTP122	ltpFR2	1	11	WARDROBE	1587	n/a	n/a	0	0	0
2489.294	n/a	WORD	1244647	wordpools/wasnorm_wordpool_576.txt	LTP122	ltpFR2	1	11	BACON	67	n/a	n/a	0	0	0
2491.896	n/a	WORD	1245948	wordpools/wasnorm_wordpool_576.txt	LTP122	ltpFR2	1	11	ELBOW	520	n/a	n/a	0	0	0
2494.416	n/a	WORD	1247208	wordpools/wasnorm_wordpool_576.txt	LTP122	ltpFR2	1	11	BULLET	194	n/a	n/a	0	0	0
2497.168	n/a	WORD	1248584	wordpools/wasnorm_wordpool_576.txt	LTP122	ltpFR2	1	11	LOVER	846	n/a	n/a	0	0	0
2499.686	n/a	WORD	1249843	wordpools/wasnorm_wordpool_576.txt	LTP122	ltpFR2	1	11	DIME	466	n/a	n/a	0	0	0
2502.506	n/a	WORD	1251253	wordpools/wasnorm_wordpool_576.txt	LTP122	ltpFR2	1	11	KNAPSACK	783	n/a	n/a	0	0	0
2505.292	n/a	WORD	1252646	wordpools/wasnorm_wordpool_576.txt	LTP122	ltpFR2	1	11	CAPTIVE	240	n/a	n/a	0	0	0
2507.81	n/a	WORD	1253905	wordpools/wasnorm_wordpool_576.txt	LTP122	ltpFR2	1	11	PISTOL	1075	n/a	n/a	0	0	0
2510.462	n/a	WORD	1255231	wordpools/wasnorm_wordpool_576.txt	LTP122	ltpFR2	1	11	HANDBAG	684	n/a	n/a	0	0	0
2512.998	n/a	WORD	1256499	wordpools/wasnorm_wordpool_576.txt	LTP122	ltpFR2	1	11	OMELET	976	n/a	n/a	0	0	0
2515.616	n/a	WORD	1257808	wordpools/wasnorm_wordpool_576.txt	LTP122	ltpFR2	1	11	BASEMENT	94	n/a	n/a	0	0	0
2518.236	n/a	WORD	1259118	wordpools/wasnorm_wordpool_576.txt	LTP122	ltpFR2	1	11	CELLAR	267	n/a	n/a	0	0	0
2521.02	n/a	WORD	1260510	wordpools/wasnorm_wordpool_576.txt	LTP122	ltpFR2	1	11	JELLY	755	n/a	n/a	0	0	0
2523.572	n/a	WORD	1261786	wordpools/wasnorm_wordpool_576.txt	LTP122	ltpFR2	1	11	RACKET	1155	n/a	n/a	0	0	0
2526.092	n/a	WORD	1263046	wordpools/wasnorm_wordpool_576.txt	LTP122	ltpFR2	1	11	MEDAL	885	n/a	n/a	0	0	0
2528.728	n/a	WORD	1264364	wordpools/wasnorm_wordpool_576.txt	LTP122	ltpFR2	1	11	CRUTCH	417	n/a	n/a	0	0	0
2531.348	n/a	WORD	1265674	wordpools/wasnorm_wordpool_576.txt	LTP122	ltpFR2	1	11	CHAPEL	280	n/a	n/a	0	0	0
2534.016	n/a	WORD	1267008	wordpools/wasnorm_wordpool_576.txt	LTP122	ltpFR2	1	11	CHURCH	307	n/a	n/a	0	0	0
2536.468	n/a	WORD	1268234	wordpools/wasnorm_wordpool_576.txt	LTP122	ltpFR2	1	11	TROMBONE	1508	n/a	n/a	0	0	0
2539.304	n/a	WORD	1269652	wordpools/wasnorm_wordpool_576.txt	LTP122	ltpFR2	1	11	GUARD	667	n/a	n/a	0	0	0
2542.088	n/a	WORD	1271044	wordpools/wasnorm_wordpool_576.txt	LTP122	ltpFR2	1	11	FLEET	578	n/a	n/a	0	0	0
2543.708	n/a	START	1271854	n/a	LTP122	ltpFR2	1	n/a	n/a	n/a	16	n/a	n/a	n/a	n/a
2544.816	n/a	DISTRACTOR	1272408	n/a	LTP122	ltpFR2	1	11	n/a	n/a	n/a	n/a	0	0	0
2544.842	n/a	PROB	1272421	n/a	LTP122	ltpFR2	1	n/a	n/a	n/a	16	18	6	4	8
2546.776	n/a	PROB	1273388	n/a	LTP122	ltpFR2	1	n/a	n/a	n/a	16	12	5	6	1
2548.16	n/a	PROB	1274080	n/a	LTP122	ltpFR2	1	n/a	n/a	n/a	16	12	8	3	1
2550.046	n/a	PROB	1275023	n/a	LTP122	ltpFR2	1	n/a	n/a	n/a	16	16	4	3	9
2551.948	n/a	PROB	1275974	n/a	LTP122	ltpFR2	1	n/a	n/a	n/a	16	12	2	3	7
2553.882	n/a	PROB	1276941	n/a	LTP122	ltpFR2	1	n/a	n/a	n/a	16	6	2	2	2
2555.6	n/a	PROB	1277800	n/a	LTP122	ltpFR2	1	n/a	n/a	n/a	16	6	1	1	4
2557.102	n/a	PROB	1278551	n/a	LTP122	ltpFR2	1	n/a	n/a	n/a	16	15	1	6	8
2559.086	n/a	PROB	1279543	n/a	LTP122	ltpFR2	1	n/a	n/a	n/a	16	19	7	7	5
2560.806	n/a	PROB	1280403	n/a	LTP122	ltpFR2	1	n/a	n/a	n/a	16	13	4	5	4
2562.308	n/a	PROB	1281154	n/a	LTP122	ltpFR2	1	n/a	n/a	n/a	16	18	2	8	8
2563.992	n/a	PROB	1281996	n/a	LTP122	ltpFR2	1	n/a	n/a	n/a	16	18	3	7	8
2567.708	n/a	STOP	1283854	n/a	LTP122	ltpFR2	1	n/a	n/a	n/a	16	n/a	n/a	n/a	n/a
2569.498	n/a	REC_START	1284749	n/a	LTP122	ltpFR2	1	11	n/a	n/a	n/a	n/a	0	0	0
2574.434	n/a	REC_WORD	1287217	wordpools/wasnorm_wordpool_576.txt	LTP122	ltpFR2	1	11	CHAPEL	280	n/a	n/a	0	0	0
2574.898	n/a	REC_WORD	1287449	wordpools/wasnorm_wordpool_576.txt	LTP122	ltpFR2	1	11	CHURCH	307	n/a	n/a	0	0	0
2575.556	n/a	REC_WORD	1287778	wordpools/wasnorm_wordpool_576.txt	LTP122	ltpFR2	1	11	BASEMENT	94	n/a	n/a	0	0	0
2576.094	n/a	REC_WORD	1288047	wordpools/wasnorm_wordpool_576.txt	LTP122	ltpFR2	1	11	CELLAR	267	n/a	n/a	0	0	0
2577.434	n/a	REC_WORD	1288717	wordpools/wasnorm_wordpool_576.txt	LTP122	ltpFR2	1	11	GUARD	667	n/a	n/a	0	0	0
2577.92	n/a	REC_WORD	1288960	wordpools/wasnorm_wordpool_576.txt	LTP122	ltpFR2	1	11	FLEET	578	n/a	n/a	0	0	0
2578.678	n/a	REC_WORD	1289339	wordpools/wasnorm_wordpool_576.txt	LTP122	ltpFR2	1	11	RACKET	1155	n/a	n/a	0	0	0
2579.692	n/a	REC_WORD	1289846	wordpools/wasnorm_wordpool_576.txt	LTP122	ltpFR2	1	11	MEDAL	885	n/a	n/a	0	0	0
2580.666	n/a	REC_WORD	1290333	wordpools/wasnorm_wordpool_576.txt	LTP122	ltpFR2	1	11	TROMBONE	1508	n/a	n/a	0	0	0
2582.95	n/a	REC_WORD	1291475	wordpools/wasnorm_wordpool_576.txt	LTP122	ltpFR2	1	11	WARDROBE	1587	n/a	n/a	0	0	0
2583.874	n/a	REC_WORD	1291937	wordpools/wasnorm_wordpool_576.txt	LTP122	ltpFR2	1	11	BACON	67	n/a	n/a	0	0	0
2584.552	n/a	REC_WORD	1292276	wordpools/wasnorm_wordpool_576.txt	LTP122	ltpFR2	1	11	OMELET	976	n/a	n/a	0	0	0
2585.346	n/a	REC_WORD	1292673	wordpools/wasnorm_wordpool_576.txt	LTP122	ltpFR2	1	11	JELLY	755	n/a	n/a	0	0	0
2587.552	n/a	REC_WORD	1293776	wordpools/wasnorm_wordpool_576.txt	LTP122	ltpFR2	1	11	DIME	466	n/a	n/a	0	0	0
2588.222	n/a	REC_WORD	1294111	wordpools/wasnorm_wordpool_576.txt	LTP122	ltpFR2	1	11	LOVER	846	n/a	n/a	0	0	0
2589.69	n/a	REC_WORD	1294845	wordpools/wasnorm_wordpool_576.txt	LTP122	ltpFR2	1	11	HANDBAG	684	n/a	n/a	0	0	0
2590.534	n/a	REC_WORD	1295267	wordpools/wasnorm_wordpool_576.txt	LTP122	ltpFR2	1	11	KNAPSACK	783	n/a	n/a	0	0	0
2592.284	n/a	REC_WORD	1296142	wordpools/wasnorm_wordpool_576.txt	LTP122	ltpFR2	1	11	CRUTCH	417	n/a	n/a	0	0	0
2595.316	n/a	REC_WORD	1297658	wordpools/wasnorm_wordpool_576.txt	LTP122	ltpFR2	1	11	BABY	64	n/a	n/a	0	0	0
2595.952	n/a	REC_WORD	1297976	wordpools/wasnorm_wordpool_576.txt	LTP122	ltpFR2	1	11	MOP	916	n/a	n/a	0	0	0
2596.95	n/a	REC_WORD	1298475	wordpools/wasnorm_wordpool_576.txt	LTP122	ltpFR2	1	11	ELBOW	520	n/a	n/a	0	0	0
2598.486	n/a	REC_WORD	1299243	wordpools/wasnorm_wordpool_576.txt	LTP122	ltpFR2	1	11	BULLET	194	n/a	n/a	0	0	0
2599.27	n/a	REC_WORD	1299635	wordpools/wasnorm_wordpool_576.txt	LTP122	ltpFR2	1	11	PISTOL	1075	n/a	n/a	0	0	0
2600.718	n/a	REC_WORD	1300359	wordpools/wasnorm_wordpool_576.txt	LTP122	ltpFR2	1	11	CAPTIVE	240	n/a	n/a	0	0	0
2675.204	n/a	DISTRACTOR	1337602	n/a	LTP122	ltpFR2	1	12	n/a	n/a	n/a	n/a	0	0	0
2675.204	n/a	START	1337602	n/a	LTP122	ltpFR2	1	n/a	n/a	n/a	17	n/a	n/a	n/a	n/a
2675.236	n/a	PROB	1337618	n/a	LTP122	ltpFR2	1	n/a	n/a	n/a	17	14	8	5	1
2677.788	n/a	PROB	1338894	n/a	LTP122	ltpFR2	1	n/a	n/a	n/a	17	20	6	6	8
2679.672	n/a	PROB	1339836	n/a	LTP122	ltpFR2	1	n/a	n/a	n/a	17	13	5	2	6
2681.706	n/a	PROB	1340853	n/a	LTP122	ltpFR2	1	n/a	n/a	n/a	17	15	2	8	5
2683.21	n/a	PROB	1341605	n/a	LTP122	ltpFR2	1	n/a	n/a	n/a	17	14	1	6	7
2684.61	n/a	PROB	1342305	n/a	LTP122	ltpFR2	1	n/a	n/a	n/a	17	13	7	5	1
2687.012	n/a	PROB	1343506	n/a	LTP122	ltpFR2	1	n/a	n/a	n/a	17	16	2	5	9
2689.214	n/a	PROB	1344607	n/a	LTP122	ltpFR2	1	n/a	n/a	n/a	17	12	2	2	8
2690.832	n/a	PROB	1345416	n/a	LTP122	ltpFR2	1	n/a	n/a	n/a	17	20	8	4	8
2692.584	n/a	PROB	1346292	n/a	LTP122	ltpFR2	1	n/a	n/a	n/a	17	16	6	9	1
2694.584	n/a	PROB	1347292	n/a	LTP122	ltpFR2	1	n/a	n/a	n/a	17	9	1	2	6
2696.254	n/a	PROB	1348127	n/a	LTP122	ltpFR2	1	n/a	n/a	n/a	17	15	3	6	6
2697.912	n/a	STOP	1348956	n/a	LTP122	ltpFR2	1	n/a	n/a	n/a	17	n/a	n/a	n/a	n/a
2700.29	n/a	WORD	1350145	wordpools/wasnorm_wordpool_576.txt	LTP122	ltpFR2	1	12	SPOUSE	1358	n/a	n/a	0	0	0
2702.826	n/a	WORD	1351413	wordpools/wasnorm_wordpool_576.txt	LTP122	ltpFR2	1	12	WRIST	1626	n/a	n/a	0	0	0
2705.56	n/a	WORD	1352780	wordpools/wasnorm_wordpool_576.txt	LTP122	ltpFR2	1	12	BINDER	127	n/a	n/a	0	0	0
2708.232	n/a	WORD	1354116	wordpools/wasnorm_wordpool_576.txt	LTP122	ltpFR2	1	12	PARTNER	1017	n/a	n/a	0	0	0
2710.85	n/a	WORD	1355425	wordpools/wasnorm_wordpool_576.txt	LTP122	ltpFR2	1	12	LEOPARD	812	n/a	n/a	0	0	0
2713.434	n/a	WORD	1356717	wordpools/wasnorm_wordpool_576.txt	LTP122	ltpFR2	1	12	DONKEY	484	n/a	n/a	0	0	0
2716.07	n/a	WORD	1358035	wordpools/wasnorm_wordpool_576.txt	LTP122	ltpFR2	1	12	MUFFIN	929	n/a	n/a	0	0	0
2718.672	n/a	WORD	1359336	wordpools/wasnorm_wordpool_576.txt	LTP122	ltpFR2	1	12	TOASTER	1472	n/a	n/a	0	0	0
2721.142	n/a	WORD	1360571	wordpools/wasnorm_wordpool_576.txt	LTP122	ltpFR2	1	12	CLOCK	325	n/a	n/a	0	0	0
2723.876	n/a	WORD	1361938	wordpools/wasnorm_wordpool_576.txt	LTP122	ltpFR2	1	12	TEMPLE	1448	n/a	n/a	0	0	0
2726.546	n/a	WORD	1363273	wordpools/wasnorm_wordpool_576.txt	LTP122	ltpFR2	1	12	CROSS	413	n/a	n/a	0	0	0
2729.35	n/a	WORD	1364675	wordpools/wasnorm_wordpool_576.txt	LTP122	ltpFR2	1	12	TREAT	1501	n/a	n/a	0	0	0
2731.934	n/a	WORD	1365967	wordpools/wasnorm_wordpool_576.txt	LTP122	ltpFR2	1	12	DUSTPAN	509	n/a	n/a	0	0	0
2734.636	n/a	WORD	1367318	wordpools/wasnorm_wordpool_576.txt	LTP122	ltpFR2	1	12	SCARF	1246	n/a	n/a	0	0	0
2737.222	n/a	WORD	1368611	wordpools/wasnorm_wordpool_576.txt	LTP122	ltpFR2	1	12	GHETTO	633	n/a	n/a	0	0	0
2739.84	n/a	WORD	1369920	wordpools/wasnorm_wordpool_576.txt	LTP122	ltpFR2	1	12	TWEEZERS	1526	n/a	n/a	0	0	0
2742.31	n/a	WORD	1371155	wordpools/wasnorm_wordpool_576.txt	LTP122	ltpFR2	1	12	PIZZA	1079	n/a	n/a	0	0	0
2744.96	n/a	WORD	1372480	wordpools/wasnorm_wordpool_576.txt	LTP122	ltpFR2	1	12	RIVER	1194	n/a	n/a	0	0	0
2747.714	n/a	WORD	1373857	wordpools/wasnorm_wordpool_576.txt	LTP122	ltpFR2	1	12	SHOULDER	1294	n/a	n/a	0	0	0
2750.266	n/a	WORD	1375133	wordpools/wasnorm_wordpool_576.txt	LTP122	ltpFR2	1	12	PADDLE	1000	n/a	n/a	0	0	0
2752.902	n/a	WORD	1376451	wordpools/wasnorm_wordpool_576.txt	LTP122	ltpFR2	1	12	QUAIL	1147	n/a	n/a	0	0	0
2755.486	n/a	WORD	1377743	wordpools/wasnorm_wordpool_576.txt	LTP122	ltpFR2	1	12	SCARECROW	1245	n/a	n/a	0	0	0
2758.256	n/a	WORD	1379128	wordpools/wasnorm_wordpool_576.txt	LTP122	ltpFR2	1	12	MARINE	869	n/a	n/a	0	0	0
2760.924	n/a	WORD	1380462	wordpools/wasnorm_wordpool_576.txt	LTP122	ltpFR2	1	12	HOOK	715	n/a	n/a	0	0	0
2762.544	n/a	START	1381272	n/a	LTP122	ltpFR2	1	n/a	n/a	n/a	18	n/a	n/a	n/a	n/a
2763.588	n/a	DISTRACTOR	1381794	n/a	LTP122	ltpFR2	1	12	n/a	n/a	n/a	n/a	0	0	0
2763.61	n/a	PROB	1381805	n/a	LTP122	ltpFR2	1	n/a	n/a	n/a	18	15	5	8	2
2765.462	n/a	PROB	1382731	n/a	LTP122	ltpFR2	1	n/a	n/a	n/a	18	14	8	3	3
2768.916	n/a	PROB	1384458	n/a	LTP122	ltpFR2	1	n/a	n/a	n/a	18	6	1	4	1
2770.268	n/a	PROB	1385134	n/a	LTP122	ltpFR2	1	n/a	n/a	n/a	18	19	8	2	9
2771.75	n/a	PROB	1385875	n/a	LTP122	ltpFR2	1	n/a	n/a	n/a	18	17	9	2	6
2774.386	n/a	PROB	1387193	n/a	LTP122	ltpFR2	1	n/a	n/a	n/a	18	10	2	3	5
2775.888	n/a	PROB	1387944	n/a	LTP122	ltpFR2	1	n/a	n/a	n/a	18	17	9	4	4
2777.656	n/a	PROB	1388828	n/a	LTP122	ltpFR2	1	n/a	n/a	n/a	18	19	7	9	3
2779.44	n/a	PROB	1389720	n/a	LTP122	ltpFR2	1	n/a	n/a	n/a	18	21	6	6	9
2781.526	n/a	PROB	1390763	n/a	LTP122	ltpFR2	1	n/a	n/a	n/a	18	10	5	1	4
2783.094	n/a	PROB	1391547	n/a	LTP122	ltpFR2	1	n/a	n/a	n/a	18	17	9	5	3
2785.308	n/a	STOP	1392654	n/a	LTP122	ltpFR2	1	n/a	n/a	n/a	18	n/a	n/a	n/a	n/a
2788.466	n/a	REC_START	1394233	n/a	LTP122	ltpFR2	1	12	n/a	n/a	n/a	n/a	0	0	0
2794.148	n/a	REC_WORD	1397074	wordpools/wasnorm_wordpool_576.txt	LTP122	ltpFR2	1	12	SPOUSE	1358	n/a	n/a	0	0	0
2795.41	n/a	REC_WORD	1397705	wordpools/wasnorm_wordpool_576.txt	LTP122	ltpFR2	1	12	PARTNER	1017	n/a	n/a	0	0	0
2796.926	n/a	REC_WORD	1398463	wordpools/wasnorm_wordpool_576.txt	LTP122	ltpFR2	1	12	WRIST	1626	n/a	n/a	0	0	0
2798.05	n/a	REC_WORD	1399025	wordpools/wasnorm_wordpool_576.txt	LTP122	ltpFR2	1	12	BINDER	127	n/a	n/a	0	0	0
2798.798	n/a	REC_WORD	1399399	wordpools/wasnorm_wordpool_576.txt	LTP122	ltpFR2	1	12	SHOULDER	1294	n/a	n/a	0	0	0
2800.002	n/a	REC_WORD	1400001	wordpools/wasnorm_wordpool_576.txt	LTP122	ltpFR2	1	12	QUAIL	1147	n/a	n/a	0	0	0
2801.508	n/a	REC_WORD	1400754	wordpools/wasnorm_wordpool_576.txt	LTP122	ltpFR2	1	12	PADDLE	1000	n/a	n/a	0	0	0
2802.876	n/a	REC_WORD	1401438	wordpools/wasnorm_wordpool_576.txt	LTP122	ltpFR2	1	12	LEOPARD	812	n/a	n/a	0	0	0
2803.952	n/a	REC_WORD	1401976	wordpools/wasnorm_wordpool_576.txt	LTP122	ltpFR2	1	12	DONKEY	484	n/a	n/a	0	0	0
2805.112	n/a	REC_WORD	1402556	wordpools/wasnorm_wordpool_576.txt	LTP122	ltpFR2	1	12	RIVER	1194	n/a	n/a	0	0	0
2805.812	n/a	REC_WORD	1402906	wordpools/wasnorm_wordpool_576.txt	LTP122	ltpFR2	1	12	MARINE	869	n/a	n/a	0	0	0
2806.546	n/a	REC_WORD	1403273	wordpools/wasnorm_wordpool_576.txt	LTP122	ltpFR2	1	12	HOOK	715	n/a	n/a	0	0	0
2807.902	n/a	REC_WORD	1403951	wordpools/wasnorm_wordpool_576.txt	LTP122	ltpFR2	1	12	PIZZA	1079	n/a	n/a	0	0	0
2809.808	n/a	REC_WORD	1404904	wordpools/wasnorm_wordpool_576.txt	LTP122	ltpFR2	1	12	MUFFIN	929	n/a	n/a	0	0	0
2810.52	n/a	REC_WORD	1405260	wordpools/wasnorm_wordpool_576.txt	LTP122	ltpFR2	1	12	TOASTER	1472	n/a	n/a	0	0	0
2811.27	n/a	REC_WORD	1405635	wordpools/wasnorm_wordpool_576.txt	LTP122	ltpFR2	1	12	CLOCK	325	n/a	n/a	0	0	0
2812.846	n/a	REC_WORD	1406423	wordpools/wasnorm_wordpool_576.txt	LTP122	ltpFR2	1	12	DUSTPAN	509	n/a	n/a	0	0	0
2813.636	n/a	REC_WORD	1406818	wordpools/wasnorm_wordpool_576.txt	LTP122	ltpFR2	1	12	SCARF	1246	n/a	n/a	0	0	0
2814.592	n/a	REC_WORD	1407296	wordpools/wasnorm_wordpool_576.txt	LTP122	ltpFR2	1	12	TWEEZERS	1526	n/a	n/a	0	0	0
2818.218	n/a	REC_WORD	1409109	wordpools/wasnorm_wordpool_576.txt	LTP122	ltpFR2	1	12	TEMPLE	1448	n/a	n/a	0	0	0
2819.128	n/a	REC_WORD	1409564	wordpools/wasnorm_wordpool_576.txt	LTP122	ltpFR2	1	12	CROSS	413	n/a	n/a	0	0	0
2820.37	n/a	REC_WORD	1410185	wordpools/wasnorm_wordpool_576.txt	LTP122	ltpFR2	1	12	GHETTO	633	n/a	n/a	0	0	0
2829.754	n/a	REC_WORD	1414877	wordpools/wasnorm_wordpool_576.txt	LTP122	ltpFR2	1	12	SCARECROW	1245	n/a	n/a	0	0	0
2878.926	n/a	WORD	1439463	wordpools/wasnorm_wordpool_576.txt	LTP122	ltpFR2	1	13	PICNIC	1060	n/a	n/a	0	0	0
2881.612	n/a	WORD	1440806	wordpools/wasnorm_wordpool_576.txt	LTP122	ltpFR2	1	13	MATTRESS	879	n/a	n/a	0	0	0
2884.364	n/a	WORD	1442182	wordpools/wasnorm_wordpool_576.txt	LTP122	ltpFR2	1	13	PEACH	1031	n/a	n/a	0	0	0
2887.182	n/a	WORD	1443591	wordpools/wasnorm_wordpool_576.txt	LTP122	ltpFR2	1	13	MAMMAL	861	n/a	n/a	0	0	0
2889.734	n/a	WORD	1444867	wordpools/wasnorm_wordpool_576.txt	LTP122	ltpFR2	1	13	MARSH	874	n/a	n/a	0	0	0
2892.538	n/a	WORD	1446269	wordpools/wasnorm_wordpool_576.txt	LTP122	ltpFR2	1	13	GRAVEL	659	n/a	n/a	0	0	0
2895.09	n/a	WORD	1447545	wordpools/wasnorm_wordpool_576.txt	LTP122	ltpFR2	1	13	DENTIST	447	n/a	n/a	0	0	0
2897.524	n/a	WORD	1448762	wordpools/wasnorm_wordpool_576.txt	LTP122	ltpFR2	1	13	CASHEW	253	n/a	n/a	0	0	0
2900.294	n/a	WORD	1450147	wordpools/wasnorm_wordpool_576.txt	LTP122	ltpFR2	1	13	SCALLOP	1242	n/a	n/a	0	0	0
2902.912	n/a	WORD	1451456	wordpools/wasnorm_wordpool_576.txt	LTP122	ltpFR2	1	13	THREAD	1460	n/a	n/a	0	0	0
2905.38	n/a	WORD	1452690	wordpools/wasnorm_wordpool_576.txt	LTP122	ltpFR2	1	13	SEAGULL	1261	n/a	n/a	0	0	0
2907.932	n/a	WORD	1453966	wordpools/wasnorm_wordpool_576.txt	LTP122	ltpFR2	1	13	BREAST	171	n/a	n/a	0	0	0
2910.668	n/a	WORD	1455334	wordpools/wasnorm_wordpool_576.txt	LTP122	ltpFR2	1	13	CLOUD	328	n/a	n/a	0	0	0
2913.188	n/a	WORD	1456594	wordpools/wasnorm_wordpool_576.txt	LTP122	ltpFR2	1	13	SMOG	1330	n/a	n/a	0	0	0
2915.906	n/a	WORD	1457953	wordpools/wasnorm_wordpool_576.txt	LTP122	ltpFR2	1	13	CEILING	265	n/a	n/a	0	0	0
2918.458	n/a	WORD	1459229	wordpools/wasnorm_wordpool_576.txt	LTP122	ltpFR2	1	13	TILE	1468	n/a	n/a	0	0	0
2920.978	n/a	WORD	1460489	wordpools/wasnorm_wordpool_576.txt	LTP122	ltpFR2	1	13	CORAL	378	n/a	n/a	0	0	0
2923.646	n/a	WORD	1461823	wordpools/wasnorm_wordpool_576.txt	LTP122	ltpFR2	1	13	AWARD	63	n/a	n/a	0	0	0
2926.098	n/a	WORD	1463049	wordpools/wasnorm_wordpool_576.txt	LTP122	ltpFR2	1	13	PEANUT	1032	n/a	n/a	0	0	0
2928.618	n/a	WORD	1464309	wordpools/wasnorm_wordpool_576.txt	LTP122	ltpFR2	1	13	FRANCE	601	n/a	n/a	0	0	0
2931.104	n/a	WORD	1465552	wordpools/wasnorm_wordpool_576.txt	LTP122	ltpFR2	1	13	TRIBE	1505	n/a	n/a	0	0	0
2933.638	n/a	WORD	1466819	wordpools/wasnorm_wordpool_576.txt	LTP122	ltpFR2	1	13	HATCHET	691	n/a	n/a	0	0	0
2936.424	n/a	WORD	1468212	wordpools/wasnorm_wordpool_576.txt	LTP122	ltpFR2	1	13	FOOTBALL	591	n/a	n/a	0	0	0
2939.044	n/a	WORD	1469522	wordpools/wasnorm_wordpool_576.txt	LTP122	ltpFR2	1	13	SEAL	1262	n/a	n/a	0	0	0
2940.662	n/a	START	1470331	n/a	LTP122	ltpFR2	1	n/a	n/a	n/a	19	n/a	n/a	n/a	n/a
2941.56	n/a	DISTRACTOR	1470780	n/a	LTP122	ltpFR2	1	13	n/a	n/a	n/a	n/a	0	0	0
2941.578	n/a	PROB	1470789	n/a	LTP122	ltpFR2	1	n/a	n/a	n/a	19	20	7	5	8
2945.2	n/a	PROB	1472600	n/a	LTP122	ltpFR2	1	n/a	n/a	n/a	19	13	1	8	4
2946.766	n/a	PROB	1473383	n/a	LTP122	ltpFR2	1	n/a	n/a	n/a	19	20	8	9	3
2948.852	n/a	PROB	1474426	n/a	LTP122	ltpFR2	1	n/a	n/a	n/a	19	13	6	1	6
2950.454	n/a	PROB	1475227	n/a	LTP122	ltpFR2	1	n/a	n/a	n/a	19	20	7	9	4
2953.222	n/a	PROB	1476611	n/a	LTP122	ltpFR2	1	n/a	n/a	n/a	19	18	7	9	2
2955.54	n/a	PROB	1477770	n/a	LTP122	ltpFR2	1	n/a	n/a	n/a	19	14	2	9	5
2957.642	n/a	PROB	1478821	n/a	LTP122	ltpFR2	1	n/a	n/a	n/a	19	14	3	4	7
2960.46	n/a	PROB	1480230	n/a	LTP122	ltpFR2	1	n/a	n/a	n/a	19	16	5	2	7
2964.66	n/a	STOP	1482330	n/a	LTP122	ltpFR2	1	n/a	n/a	n/a	19	n/a	n/a	n/a	n/a
2966.55	n/a	REC_START	1483275	n/a	LTP122	ltpFR2	1	13	n/a	n/a	n/a	n/a	0	0	0
2971.258	n/a	REC_WORD	1485629	wordpools/wasnorm_wordpool_576.txt	LTP122	ltpFR2	1	13	PICNIC	1060	n/a	n/a	0	0	0
2972.58	n/a	REC_WORD	1486290	wordpools/wasnorm_wordpool_576.txt	LTP122	ltpFR2	1	13	MATTRESS	879	n/a	n/a	0	0	0
2974.612	n/a	REC_WORD	1487306	wordpools/wasnorm_wordpool_576.txt	LTP122	ltpFR2	1	13	SCALLOP	1242	n/a	n/a	0	0	0
2975.868	n/a	REC_WORD	1487934	wordpools/wasnorm_wordpool_576.txt	LTP122	ltpFR2	1	13	PEANUT	1032	n/a	n/a	0	0	0
2976.792	n/a	REC_WORD	1488396	wordpools/wasnorm_wordpool_576.txt	LTP122	ltpFR2	1	13	CASHEW	253	n/a	n/a	0	0	0
2978.988	n/a	REC_WORD	1489494	wordpools/wasnorm_wordpool_576.txt	LTP122	ltpFR2	1	13	PEACH	1031	n/a	n/a	0	0	0
2981.77	n/a	REC_WORD	1490885	wordpools/wasnorm_wordpool_576.txt	LTP122	ltpFR2	1	13	BREAST	171	n/a	n/a	0	0	0
2984.114	n/a	REC_WORD	1492057	wordpools/wasnorm_wordpool_576.txt	LTP122	ltpFR2	1	13	MAMMAL	861	n/a	n/a	0	0	0
2984.936	n/a	REC_WORD	1492468	wordpools/wasnorm_wordpool_576.txt	LTP122	ltpFR2	1	13	SEAL	1262	n/a	n/a	0	0	0
2986.394	n/a	REC_WORD	1493197	wordpools/wasnorm_wordpool_576.txt	LTP122	ltpFR2	1	13	SEAGULL	1261	n/a	n/a	0	0	0
2987.0	n/a	REC_WORD	1493500	wordpools/wasnorm_wordpool_576.txt	LTP122	ltpFR2	1	13	THREAD	1460	n/a	n/a	0	0	0
2989.206	n/a	REC_WORD	1494603	wordpools/wasnorm_wordpool_576.txt	LTP122	ltpFR2	1	13	DENTIST	447	n/a	n/a	0	0	0
2990.204	n/a	REC_WORD	1495102	wordpools/wasnorm_wordpool_576.txt	LTP122	ltpFR2	1	13	AWARD	63	n/a	n/a	0	0	0
2998.008	n/a	REC_WORD	1499004	wordpools/wasnorm_wordpool_576.txt	LTP122	ltpFR2	1	13	CLOUD	328	n/a	n/a	0	0	0
2998.728	n/a	REC_WORD	1499364	wordpools/wasnorm_wordpool_576.txt	LTP122	ltpFR2	1	13	SMOG	1330	n/a	n/a	0	0	0
2999.612	n/a	REC_WORD	1499806	wordpools/wasnorm_wordpool_576.txt	LTP122	ltpFR2	1	13	CEILING	265	n/a	n/a	0	0	0
3000.58	n/a	REC_WORD	1500290	wordpools/wasnorm_wordpool_576.txt	LTP122	ltpFR2	1	13	TILE	1468	n/a	n/a	0	0	0
3001.308	n/a	REC_WORD	1500654	wordpools/wasnorm_wordpool_576.txt	LTP122	ltpFR2	1	13	MARSH	874	n/a	n/a	0	0	0
3002.248	n/a	REC_WORD	1501124	wordpools/wasnorm_wordpool_576.txt	LTP122	ltpFR2	1	13	GRAVEL	659	n/a	n/a	0	0	0
3005.768	n/a	REC_WORD	1502884	wordpools/wasnorm_wordpool_576.txt	LTP122	ltpFR2	1	13	TRIBE	1505	n/a	n/a	0	0	0
3006.344	n/a	REC_WORD	1503172	wordpools/wasnorm_wordpool_576.txt	LTP122	ltpFR2	1	13	HATCHET	691	n/a	n/a	0	0	0
3007.014	n/a	REC_WORD	1503507	wordpools/wasnorm_wordpool_576.txt	LTP122	ltpFR2	1	13	FOOTBALL	591	n/a	n/a	0	0	0
3057.044	n/a	WORD	1528522	wordpools/wasnorm_wordpool_576.txt	LTP122	ltpFR2	1	14	APPLE	33	n/a	n/a	0	0	0
3059.646	n/a	WORD	1529823	wordpools/wasnorm_wordpool_576.txt	LTP122	ltpFR2	1	14	SWITCH	1422	n/a	n/a	0	0	0
3062.248	n/a	WORD	1531124	wordpools/wasnorm_wordpool_576.txt	LTP122	ltpFR2	1	14	HEDGE	699	n/a	n/a	0	0	0
3064.966	n/a	WORD	1532483	wordpools/wasnorm_wordpool_576.txt	LTP122	ltpFR2	1	14	FOREST	593	n/a	n/a	0	0	0
3067.486	n/a	WORD	1533743	wordpools/wasnorm_wordpool_576.txt	LTP122	ltpFR2	1	14	FLASHLIGHT	575	n/a	n/a	0	0	0
3070.222	n/a	WORD	1535111	wordpools/wasnorm_wordpool_576.txt	LTP122	ltpFR2	1	14	GLOVE	642	n/a	n/a	0	0	0
3072.974	n/a	WORD	1536487	wordpools/wasnorm_wordpool_576.txt	LTP122	ltpFR2	1	14	ROBIN	1199	n/a	n/a	0	0	0
3075.792	n/a	WORD	1537896	wordpools/wasnorm_wordpool_576.txt	LTP122	ltpFR2	1	14	SCULPTURE	1258	n/a	n/a	0	0	0
3078.444	n/a	WORD	1539222	wordpools/wasnorm_wordpool_576.txt	LTP122	ltpFR2	1	14	RELISH	1183	n/a	n/a	0	0	0
3081.146	n/a	WORD	1540573	wordpools/wasnorm_wordpool_576.txt	LTP122	ltpFR2	1	14	ICEBERG	731	n/a	n/a	0	0	0
3083.582	n/a	WORD	1541791	wordpools/wasnorm_wordpool_576.txt	LTP122	ltpFR2	1	14	SUMMIT	1405	n/a	n/a	0	0	0
3086.384	n/a	WORD	1543192	wordpools/wasnorm_wordpool_576.txt	LTP122	ltpFR2	1	14	SHELF	1280	n/a	n/a	0	0	0
3089.17	n/a	WORD	1544585	wordpools/wasnorm_wordpool_576.txt	LTP122	ltpFR2	1	14	APRON	35	n/a	n/a	0	0	0
3091.756	n/a	WORD	1545878	wordpools/wasnorm_wordpool_576.txt	LTP122	ltpFR2	1	14	EUROPE	541	n/a	n/a	0	0	0
3094.526	n/a	WORD	1547263	wordpools/wasnorm_wordpool_576.txt	LTP122	ltpFR2	1	14	COUNTRY	388	n/a	n/a	0	0	0
3097.044	n/a	WORD	1548522	wordpools/wasnorm_wordpool_576.txt	LTP122	ltpFR2	1	14	TUBA	1515	n/a	n/a	0	0	0
3099.646	n/a	WORD	1549823	wordpools/wasnorm_wordpool_576.txt	LTP122	ltpFR2	1	14	FRIAR	605	n/a	n/a	0	0	0
3102.166	n/a	WORD	1551083	wordpools/wasnorm_wordpool_576.txt	LTP122	ltpFR2	1	14	MISTER	901	n/a	n/a	0	0	0
3104.984	n/a	WORD	1552492	wordpools/wasnorm_wordpool_576.txt	LTP122	ltpFR2	1	14	RUST	1219	n/a	n/a	0	0	0
3107.536	n/a	WORD	1553768	wordpools/wasnorm_wordpool_576.txt	LTP122	ltpFR2	1	14	CABBAGE	210	n/a	n/a	0	0	0
3110.24	n/a	WORD	1555120	wordpools/wasnorm_wordpool_576.txt	LTP122	ltpFR2	1	14	SURVEY	1414	n/a	n/a	0	0	0
3112.874	n/a	WORD	1556437	wordpools/wasnorm_wordpool_576.txt	LTP122	ltpFR2	1	14	CABIN	211	n/a	n/a	0	0	0
3115.392	n/a	WORD	1557696	wordpools/wasnorm_wordpool_576.txt	LTP122	ltpFR2	1	14	STOVE	1388	n/a	n/a	0	0	0
3118.144	n/a	WORD	1559072	wordpools/wasnorm_wordpool_576.txt	LTP122	ltpFR2	1	14	ROOSTER	1209	n/a	n/a	0	0	0
3119.762	n/a	START	1559881	n/a	LTP122	ltpFR2	1	n/a	n/a	n/a	20	n/a	n/a	n/a	n/a
3120.904	n/a	DISTRACTOR	1560452	n/a	LTP122	ltpFR2	1	14	n/a	n/a	n/a	n/a	0	0	0
3120.914	n/a	PROB	1560457	n/a	LTP122	ltpFR2	1	n/a	n/a	n/a	20	8	2	3	3
3123.15	n/a	PROB	1561575	n/a	LTP122	ltpFR2	1	n/a	n/a	n/a	20	8	3	1	4
3124.984	n/a	PROB	1562492	n/a	LTP122	ltpFR2	1	n/a	n/a	n/a	20	20	8	8	4
3126.686	n/a	PROB	1563343	n/a	LTP122	ltpFR2	1	n/a	n/a	n/a	20	17	2	8	7
3128.738	n/a	PROB	1564369	n/a	LTP122	ltpFR2	1	n/a	n/a	n/a	20	10	4	5	1
3130.19	n/a	PROB	1565095	n/a	LTP122	ltpFR2	1	n/a	n/a	n/a	20	20	7	5	8
3133.908	n/a	PROB	1566954	n/a	LTP122	ltpFR2	1	n/a	n/a	n/a	20	7	1	2	4
3135.444	n/a	PROB	1567722	n/a	LTP122	ltpFR2	1	n/a	n/a	n/a	20	8	3	1	4
3136.944	n/a	PROB	1568472	n/a	LTP122	ltpFR2	1	n/a	n/a	n/a	20	9	4	1	4
3138.496	n/a	PROB	1569248	n/a	LTP122	ltpFR2	1	n/a	n/a	n/a	20	14	3	6	5
3140.282	n/a	PROB	1570141	n/a	LTP122	ltpFR2	1	n/a	n/a	n/a	20	17	7	5	5
3143.218	n/a	STOP	1571609	n/a	LTP122	ltpFR2	1	n/a	n/a	n/a	20	n/a	n/a	n/a	n/a
3145.652	n/a	REC_START	1572826	n/a	LTP122	ltpFR2	1	14	n/a	n/a	n/a	n/a	0	0	0
3150.35	n/a	REC_WORD	1575175	wordpools/wasnorm_wordpool_576.txt	LTP122	ltpFR2	1	14	SHELF	1280	n/a	n/a	0	0	0
3151.162	n/a	REC_WORD	1575581	wordpools/wasnorm_wordpool_576.txt	LTP122	ltpFR2	1	14	APPLE	33	n/a	n/a	0	0	0
3151.806	n/a	REC_WORD	1575903	wordpools/wasnorm_wordpool_576.txt	LTP122	ltpFR2	1	14	RELISH	1183	n/a	n/a	0	0	0
3152.68	n/a	REC_WORD	1576340	wordpools/wasnorm_wordpool_576.txt	LTP122	ltpFR2	1	14	SWITCH	1422	n/a	n/a	0	0	0
3153.386	n/a	REC_WORD	1576693	wordpools/wasnorm_wordpool_576.txt	LTP122	ltpFR2	1	14	APRON	35	n/a	n/a	0	0	0
3153.902	n/a	REC_WORD	1576951	wordpools/wasnorm_wordpool_576.txt	LTP122	ltpFR2	1	14	HEDGE	699	n/a	n/a	0	0	0
3155.38	n/a	REC_WORD	1577690	wordpools/wasnorm_wordpool_576.txt	LTP122	ltpFR2	1	14	SUMMIT	1405	n/a	n/a	0	0	0
3156.026	n/a	REC_WORD	1578013	wordpools/wasnorm_wordpool_576.txt	LTP122	ltpFR2	1	14	ICEBERG	731	n/a	n/a	0	0	0
3156.744	n/a	REC_WORD	1578372	wordpools/wasnorm_wordpool_576.txt	LTP122	ltpFR2	1	14	FOREST	593	n/a	n/a	0	0	0
3158.192	n/a	REC_WORD	1579096	wordpools/wasnorm_wordpool_576.txt	LTP122	ltpFR2	1	14	ROBIN	1199	n/a	n/a	0	0	0
3158.888	n/a	REC_WORD	1579444	wordpools/wasnorm_wordpool_576.txt	LTP122	ltpFR2	1	14	GLOVE	642	n/a	n/a	0	0	0
3159.218	n/a	REC_WORD	1579609	wordpools/wasnorm_wordpool_576.txt	LTP122	ltpFR2	1	14	FLASHLIGHT	575	n/a	n/a	0	0	0
3163.568	n/a	REC_WORD	1581784	wordpools/wasnorm_wordpool_576.txt	LTP122	ltpFR2	1	14	SCULPTURE	1258	n/a	n/a	0	0	0
3164.258	n/a	REC_WORD	1582129	wordpools/wasnorm_wordpool_576.txt	LTP122	ltpFR2	1	14	FRIAR	605	n/a	n/a	0	0	0
3165.088	n/a	REC_WORD	1582544	wordpools/wasnorm_wordpool_576.txt	LTP122	ltpFR2	1	14	TUBA	1515	n/a	n/a	0	0	0
3166.782	n/a	REC_WORD	1583391	wordpools/wasnorm_wordpool_576.txt	LTP122	ltpFR2	1	14	RUST	1219	n/a	n/a	0	0	0
3167.732	n/a	REC_WORD	1583866	wordpools/wasnorm_wordpool_576.txt	LTP122	ltpFR2	1	14	SURVEY	1414	n/a	n/a	0	0	0
3168.588	n/a	REC_WORD	1584294	wordpools/wasnorm_wordpool_576.txt	LTP122	ltpFR2	1	14	CABBAGE	210	n/a	n/a	0	0	0
3174.662	n/a	REC_WORD	1587331	wordpools/wasnorm_wordpool_576.txt	LTP122	ltpFR2	1	14	EUROPE	541	n/a	n/a	0	0	0
3175.628	n/a	REC_WORD	1587814	wordpools/wasnorm_wordpool_576.txt	LTP122	ltpFR2	1	14	COUNTRY	388	n/a	n/a	0	0	0
3182.304	n/a	REC_WORD	1591152	wordpools/wasnorm_wordpool_576.txt	LTP122	ltpFR2	1	14	CABIN	211	n/a	n/a	0	0	0
3185.834	n/a	REC_WORD	1592917	wordpools/wasnorm_wordpool_576.txt	LTP122	ltpFR2	1	14	STOVE	1388	n/a	n/a	0	0	0
3236.296	n/a	WORD	1618148	wordpools/wasnorm_wordpool_576.txt	LTP122	ltpFR2	1	15	YOLK	1633	n/a	n/a	0	0	0
3238.964	n/a	WORD	1619482	wordpools/wasnorm_wordpool_576.txt	LTP122	ltpFR2	1	15	DANDRUFF	439	n/a	n/a	0	0	0
3241.55	n/a	WORD	1620775	wordpools/wasnorm_wordpool_576.txt	LTP122	ltpFR2	1	15	FREEZER	604	n/a	n/a	0	0	0
3244.304	n/a	WORD	1622152	wordpools/wasnorm_wordpool_576.txt	LTP122	ltpFR2	1	15	BRACES	164	n/a	n/a	0	0	0
3246.838	n/a	WORD	1623419	wordpools/wasnorm_wordpool_576.txt	LTP122	ltpFR2	1	15	LAMP	798	n/a	n/a	0	0	0
3249.64	n/a	WORD	1624820	wordpools/wasnorm_wordpool_576.txt	LTP122	ltpFR2	1	15	CROWN	415	n/a	n/a	0	0	0
3252.092	n/a	WORD	1626046	wordpools/wasnorm_wordpool_576.txt	LTP122	ltpFR2	1	15	EMPIRE	530	n/a	n/a	0	0	0
3254.728	n/a	WORD	1627364	wordpools/wasnorm_wordpool_576.txt	LTP122	ltpFR2	1	15	THRONE	1461	n/a	n/a	0	0	0
3257.232	n/a	WORD	1628616	wordpools/wasnorm_wordpool_576.txt	LTP122	ltpFR2	1	15	TRACTOR	1493	n/a	n/a	0	0	0
3260.032	n/a	WORD	1630016	wordpools/wasnorm_wordpool_576.txt	LTP122	ltpFR2	1	15	STAR	1373	n/a	n/a	0	0	0
3262.836	n/a	WORD	1631418	wordpools/wasnorm_wordpool_576.txt	LTP122	ltpFR2	1	15	COMET	353	n/a	n/a	0	0	0
3265.554	n/a	WORD	1632777	wordpools/wasnorm_wordpool_576.txt	LTP122	ltpFR2	1	15	POET	1095	n/a	n/a	0	0	0
3268.374	n/a	WORD	1634187	wordpools/wasnorm_wordpool_576.txt	LTP122	ltpFR2	1	15	HAWK	692	n/a	n/a	0	0	0
3270.842	n/a	WORD	1635421	wordpools/wasnorm_wordpool_576.txt	LTP122	ltpFR2	1	15	HORNET	718	n/a	n/a	0	0	0
3273.578	n/a	WORD	1636789	wordpools/wasnorm_wordpool_576.txt	LTP122	ltpFR2	1	15	WIDOW	1608	n/a	n/a	0	0	0
3276.38	n/a	WORD	1638190	wordpools/wasnorm_wordpool_576.txt	LTP122	ltpFR2	1	15	MATCH	878	n/a	n/a	0	0	0
3279.2	n/a	WORD	1639600	wordpools/wasnorm_wordpool_576.txt	LTP122	ltpFR2	1	15	UMPIRE	1535	n/a	n/a	0	0	0
3281.984	n/a	WORD	1640992	wordpools/wasnorm_wordpool_576.txt	LTP122	ltpFR2	1	15	LADDER	793	n/a	n/a	0	0	0
3284.636	n/a	WORD	1642318	wordpools/wasnorm_wordpool_576.txt	LTP122	ltpFR2	1	15	CRITIC	410	n/a	n/a	0	0	0
3287.138	n/a	WORD	1643569	wordpools/wasnorm_wordpool_576.txt	LTP122	ltpFR2	1	15	SALMON	1227	n/a	n/a	0	0	0
3289.558	n/a	WORD	1644779	wordpools/wasnorm_wordpool_576.txt	LTP122	ltpFR2	1	15	CRAB	397	n/a	n/a	0	0	0
3292.278	n/a	WORD	1646139	wordpools/wasnorm_wordpool_576.txt	LTP122	ltpFR2	1	15	HONEY	713	n/a	n/a	0	0	0
3294.762	n/a	WORD	1647381	wordpools/wasnorm_wordpool_576.txt	LTP122	ltpFR2	1	15	CARRIAGE	248	n/a	n/a	0	0	0
3297.198	n/a	WORD	1648599	wordpools/wasnorm_wordpool_576.txt	LTP122	ltpFR2	1	15	TRUCK	1512	n/a	n/a	0	0	0
3298.816	n/a	START	1649408	n/a	LTP122	ltpFR2	1	n/a	n/a	n/a	21	n/a	n/a	n/a	n/a
3299.854	n/a	DISTRACTOR	1649927	n/a	LTP122	ltpFR2	1	15	n/a	n/a	n/a	n/a	0	0	0
3299.866	n/a	PROB	1649933	n/a	LTP122	ltpFR2	1	n/a	n/a	n/a	21	17	7	6	4
3302.336	n/a	PROB	1651168	n/a	LTP122	ltpFR2	1	n/a	n/a	n/a	21	17	4	8	5
3304.37	n/a	PROB	1652185	n/a	LTP122	ltpFR2	1	n/a	n/a	n/a	21	19	8	3	8
3307.372	n/a	PROB	1653686	n/a	LTP122	ltpFR2	1	n/a	n/a	n/a	21	19	4	9	6
3309.276	n/a	PROB	1654638	n/a	LTP122	ltpFR2	1	n/a	n/a	n/a	21	16	9	2	5
3312.494	n/a	PROB	1656247	n/a	LTP122	ltpFR2	1	n/a	n/a	n/a	21	18	7	3	8
3313.862	n/a	PROB	1656931	n/a	LTP122	ltpFR2	1	n/a	n/a	n/a	21	11	4	6	1
3315.446	n/a	PROB	1657723	n/a	LTP122	ltpFR2	1	n/a	n/a	n/a	21	12	5	2	4
3317.482	n/a	PROB	1658741	n/a	LTP122	ltpFR2	1	n/a	n/a	n/a	21	18	3	6	9
3319.318	n/a	PROB	1659659	n/a	LTP122	ltpFR2	1	n/a	n/a	n/a	21	17	3	5	9
3322.816	n/a	STOP	1661408	n/a	LTP122	ltpFR2	1	n/a	n/a	n/a	21	n/a	n/a	n/a	n/a
3324.622	n/a	REC_START	1662311	n/a	LTP122	ltpFR2	1	15	n/a	n/a	n/a	n/a	0	0	0
3328.314	n/a	REC_WORD	1664157	wordpools/wasnorm_wordpool_576.txt	LTP122	ltpFR2	1	15	YOLK	1633	n/a	n/a	0	0	0
3329.398	n/a	REC_WORD	1664699	wordpools/wasnorm_wordpool_576.txt	LTP122	ltpFR2	1	15	DANDRUFF	439	n/a	n/a	0	0	0
3332.252	n/a	REC_WORD	1666126	wordpools/wasnorm_wordpool_576.txt	LTP122	ltpFR2	1	15	CROWN	415	n/a	n/a	0	0	0
3333.602	n/a	REC_WORD	1666801	wordpools/wasnorm_wordpool_576.txt	LTP122	ltpFR2	1	15	EMPIRE	530	n/a	n/a	0	0	0
3334.63	n/a	REC_WORD	1667315	wordpools/wasnorm_wordpool_576.txt	LTP122	ltpFR2	1	15	FREEZER	604	n/a	n/a	0	0	0
3335.502	n/a	REC_WORD	1667751	wordpools/wasnorm_wordpool_576.txt	LTP122	ltpFR2	1	15	LADDER	793	n/a	n/a	0	0	0
3336.07	n/a	REC_WORD	1668035	wordpools/wasnorm_wordpool_576.txt	LTP122	ltpFR2	1	15	STAR	1373	n/a	n/a	0	0	0
3336.868	n/a	REC_WORD	1668434	wordpools/wasnorm_wordpool_576.txt	LTP122	ltpFR2	1	15	COMET	353	n/a	n/a	0	0	0
3339.998	n/a	REC_WORD	1669999	wordpools/wasnorm_wordpool_576.txt	LTP122	ltpFR2	1	15	SALMON	1227	n/a	n/a	0	0	0
3340.78	n/a	REC_WORD	1670390	wordpools/wasnorm_wordpool_576.txt	LTP122	ltpFR2	1	15	CRITIC	410	n/a	n/a	0	0	0
3342.436	n/a	REC_WORD	1671218	wordpools/wasnorm_wordpool_576.txt	LTP122	ltpFR2	1	15	CRAB	397	n/a	n/a	0	0	0
3342.844	n/a	REC_WORD	1671422	wordpools/wasnorm_wordpool_576.txt	LTP122	ltpFR2	1	15	HONEY	713	n/a	n/a	0	0	0
3344.402	n/a	REC_WORD	1672201	wordpools/wasnorm_wordpool_576.txt	LTP122	ltpFR2	1	15	HAWK	692	n/a	n/a	0	0	0
3345.424	n/a	REC_WORD	1672712	wordpools/wasnorm_wordpool_576.txt	LTP122	ltpFR2	1	15	POET	1095	n/a	n/a	0	0	0
3350.078	n/a	REC_WORD	1675039	wordpools/wasnorm_wordpool_576.txt	LTP122	ltpFR2	1	15	HORNET	718	n/a	n/a	0	0	0
3351.114	n/a	REC_WORD	1675557	wordpools/wasnorm_wordpool_576.txt	LTP122	ltpFR2	1	15	WIDOW	1608	n/a	n/a	0	0	0
3352.538	n/a	REC_WORD	1676269	wordpools/wasnorm_wordpool_576.txt	LTP122	ltpFR2	1	15	UMPIRE	1535	n/a	n/a	0	0	0
3353.444	n/a	REC_WORD	1676722	wordpools/wasnorm_wordpool_576.txt	LTP122	ltpFR2	1	15	MATCH	878	n/a	n/a	0	0	0
3355.166	n/a	REC_WORD	1677583	wordpools/wasnorm_wordpool_576.txt	LTP122	ltpFR2	1	15	TRACTOR	1493	n/a	n/a	0	0	0
3357.822	n/a	REC_WORD	1678911	wordpools/wasnorm_wordpool_576.txt	LTP122	ltpFR2	1	15	CARRIAGE	248	n/a	n/a	0	0	0
3358.522	n/a	REC_WORD	1679261	wordpools/wasnorm_wordpool_576.txt	LTP122	ltpFR2	1	15	TRUCK	1512	n/a	n/a	0	0	0
3415.232	n/a	DISTRACTOR	1707616	n/a	LTP122	ltpFR2	1	16	n/a	n/a	n/a	n/a	0	0	0
3415.232	n/a	START	1707616	n/a	LTP122	ltpFR2	1	n/a	n/a	n/a	22	n/a	n/a	n/a	n/a
3415.266	n/a	PROB	1707633	n/a	LTP122	ltpFR2	1	n/a	n/a	n/a	22	16	7	8	1
3417.85	n/a	PROB	1708925	n/a	LTP122	ltpFR2	1	n/a	n/a	n/a	22	8	4	2	2
3419.502	n/a	PROB	1709751	n/a	LTP122	ltpFR2	1	n/a	n/a	n/a	22	9	2	2	5
3420.952	n/a	PROB	1710476	n/a	LTP122	ltpFR2	1	n/a	n/a	n/a	22	10	2	6	2
3422.704	n/a	PROB	1711352	n/a	LTP122	ltpFR2	1	n/a	n/a	n/a	22	24	8	8	6
3424.59	n/a	PROB	1712295	n/a	LTP122	ltpFR2	1	n/a	n/a	n/a	22	22	8	7	7
3428.442	n/a	PROB	1714221	n/a	LTP122	ltpFR2	1	n/a	n/a	n/a	22	16	3	9	4
3431.612	n/a	PROB	1715806	n/a	LTP122	ltpFR2	1	n/a	n/a	n/a	22	15	6	2	7
3433.264	n/a	PROB	1716632	n/a	LTP122	ltpFR2	1	n/a	n/a	n/a	22	13	6	3	4
3434.864	n/a	PROB	1717432	n/a	LTP122	ltpFR2	1	n/a	n/a	n/a	22	15	6	5	4
3436.268	n/a	PROB	1718134	n/a	LTP122	ltpFR2	1	n/a	n/a	n/a	22	18	9	6	3
3437.896	n/a	STOP	1718948	n/a	LTP122	ltpFR2	1	n/a	n/a	n/a	22	n/a	n/a	n/a	n/a
3440.204	n/a	WORD	1720102	wordpools/wasnorm_wordpool_576.txt	LTP122	ltpFR2	1	16	PICTURE	1061	n/a	n/a	0	0	0
3442.954	n/a	WORD	1721477	wordpools/wasnorm_wordpool_576.txt	LTP122	ltpFR2	1	16	SKETCH	1315	n/a	n/a	0	0	0
3445.774	n/a	WORD	1722887	wordpools/wasnorm_wordpool_576.txt	LTP122	ltpFR2	1	16	NAPKIN	937	n/a	n/a	0	0	0
3448.36	n/a	WORD	1724180	wordpools/wasnorm_wordpool_576.txt	LTP122	ltpFR2	1	16	PIGMENT	1066	n/a	n/a	0	0	0
3451.078	n/a	WORD	1725539	wordpools/wasnorm_wordpool_576.txt	LTP122	ltpFR2	1	16	FLOWER	584	n/a	n/a	0	0	0
3453.546	n/a	WORD	1726773	wordpools/wasnorm_wordpool_576.txt	LTP122	ltpFR2	1	16	FOOT	590	n/a	n/a	0	0	0
3456.3	n/a	WORD	1728150	wordpools/wasnorm_wordpool_576.txt	LTP122	ltpFR2	1	16	HOOD	714	n/a	n/a	0	0	0
3458.868	n/a	WORD	1729434	wordpools/wasnorm_wordpool_576.txt	LTP122	ltpFR2	1	16	SUITCASE	1403	n/a	n/a	0	0	0
3461.67	n/a	WORD	1730835	wordpools/wasnorm_wordpool_576.txt	LTP122	ltpFR2	1	16	AGENT	10	n/a	n/a	0	0	0
3464.506	n/a	WORD	1732253	wordpools/wasnorm_wordpool_576.txt	LTP122	ltpFR2	1	16	STAKE	1368	n/a	n/a	0	0	0
3466.958	n/a	WORD	1733479	wordpools/wasnorm_wordpool_576.txt	LTP122	ltpFR2	1	16	LUMBER	848	n/a	n/a	0	0	0
3469.544	n/a	WORD	1734772	wordpools/wasnorm_wordpool_576.txt	LTP122	ltpFR2	1	16	MILK	895	n/a	n/a	0	0	0
3472.38	n/a	WORD	1736190	wordpools/wasnorm_wordpool_576.txt	LTP122	ltpFR2	1	16	FLUTE	585	n/a	n/a	0	0	0
3475.066	n/a	WORD	1737533	wordpools/wasnorm_wordpool_576.txt	LTP122	ltpFR2	1	16	WHISTLE	1606	n/a	n/a	0	0	0
3477.852	n/a	WORD	1738926	wordpools/wasnorm_wordpool_576.txt	LTP122	ltpFR2	1	16	SHERIFF	1284	n/a	n/a	0	0	0
3480.67	n/a	WORD	1740335	wordpools/wasnorm_wordpool_576.txt	LTP122	ltpFR2	1	16	PEDAL	1037	n/a	n/a	0	0	0
3483.14	n/a	WORD	1741570	wordpools/wasnorm_wordpool_576.txt	LTP122	ltpFR2	1	16	BROTHER	179	n/a	n/a	0	0	0
3485.708	n/a	WORD	1742854	wordpools/wasnorm_wordpool_576.txt	LTP122	ltpFR2	1	16	TAXI	1438	n/a	n/a	0	0	0
3488.378	n/a	WORD	1744189	wordpools/wasnorm_wordpool_576.txt	LTP122	ltpFR2	1	16	LABEL	790	n/a	n/a	0	0	0
3491.18	n/a	WORD	1745590	wordpools/wasnorm_wordpool_576.txt	LTP122	ltpFR2	1	16	POLICE	1098	n/a	n/a	0	0	0
3493.816	n/a	WORD	1746908	wordpools/wasnorm_wordpool_576.txt	LTP122	ltpFR2	1	16	HUMAN	726	n/a	n/a	0	0	0
3496.334	n/a	WORD	1748167	wordpools/wasnorm_wordpool_576.txt	LTP122	ltpFR2	1	16	AIRPORT	13	n/a	n/a	0	0	0
3498.952	n/a	WORD	1749476	wordpools/wasnorm_wordpool_576.txt	LTP122	ltpFR2	1	16	GARLIC	624	n/a	n/a	0	0	0
3501.388	n/a	WORD	1750694	wordpools/wasnorm_wordpool_576.txt	LTP122	ltpFR2	1	16	GARDEN	623	n/a	n/a	0	0	0
3503.006	n/a	START	1751503	n/a	LTP122	ltpFR2	1	n/a	n/a	n/a	23	n/a	n/a	n/a	n/a
3503.892	n/a	DISTRACTOR	1751946	n/a	LTP122	ltpFR2	1	16	n/a	n/a	n/a	n/a	0	0	0
3503.924	n/a	PROB	1751962	n/a	LTP122	ltpFR2	1	n/a	n/a	n/a	23	20	8	4	8
3506.26	n/a	PROB	1753130	n/a	LTP122	ltpFR2	1	n/a	n/a	n/a	23	9	5	3	1
