mstime	trial_type	stim_file	subject	experiment	session	trial	task	item_name	item_num	recog_resp	recog_conf	resp	color_r	color_g	color_b	case	font
0	SESS_START	n/a	LTP138	ltpFR	3	n/a	n/a	n/a	n/a	0	3	n/a	n/a	n/a	n/a	n/a	n/a
86769	WORD	wordpools/wasnorm_wordpool.txt	LTP138	ltpFR	3	1	1	CREATURE	403	0	n/a	0	0.422607421875	0.5869140625	0	lower	zerothre.ttf
90714	WORD	wordpools/wasnorm_wordpool.txt	LTP138	ltpFR	3	1	1	VIOLA	1570	n/a	n/a	0	0.422607421875	0.5869140625	0	lower	zerothre.ttf
94585	WORD	wordpools/wasnorm_wordpool.txt	LTP138	ltpFR	3	1	1	RIVER	1194	n/a	n/a	1	0.422607421875	0.5869140625	0	lower	zerothre.ttf
98605	WORD	wordpools/wasnorm_wordpool.txt	LTP138	ltpFR	3	1	1	STRAWBERRY	1391	n/a	n/a	1	0.422607421875	0.5869140625	0	lower	zerothre.ttf
102609	WORD	wordpools/wasnorm_wordpool.txt	LTP138	ltpFR	3	1	1	MINT	898	n/a	n/a	1	0.422607421875	0.5869140625	0	lower	zerothre.ttf
106479	WORD	wordpools/wasnorm_wordpool.txt	LTP138	ltpFR	3	1	1	THRONE	1461	n/a	n/a	0	0.422607421875	0.5869140625	0	lower	zerothre.ttf
110433	WORD	wordpools/wasnorm_wordpool.txt	LTP138	ltpFR	3	1	0	KING	777	n/a	n/a	1	0.57763671875	0.412841796875	1	upper	amplitud.ttf
114453	WORD	wordpools/wasnorm_wordpool.txt	LTP138	ltpFR	3	1	0	BROOK	177	n/a	n/a	1	0.57763671875	0.412841796875	1	upper	amplitud.ttf
118424	WORD	wordpools/wasnorm_wordpool.txt	LTP138	ltpFR	3	1	1	CONVENT	370	n/a	n/a	0	0.422607421875	0.5869140625	0	lower	zerothre.ttf
122352	WORD	wordpools/wasnorm_wordpool.txt	LTP138	ltpFR	3	1	1	COACH	331	n/a	n/a	1	0.422607421875	0.5869140625	0	lower	zerothre.ttf
126523	WORD	wordpools/wasnorm_wordpool.txt	LTP138	ltpFR	3	1	0	TRANSPLANT	1496	n/a	n/a	1	0.57763671875	0.412841796875	1	upper	amplitud.ttf
130651	WORD	wordpools/wasnorm_wordpool.txt	LTP138	ltpFR	3	1	0	VAMPIRE	1547	n/a	n/a	1	0.57763671875	0.412841796875	1	upper	amplitud.ttf
134672	WORD	wordpools/wasnorm_wordpool.txt	LTP138	ltpFR	3	1	0	PRINCE	1124	n/a	n/a	1	0.57763671875	0.412841796875	1	upper	amplitud.ttf
138659	WORD	wordpools/wasnorm_wordpool.txt	LTP138	ltpFR	3	1	0	SMOG	1330	n/a	n/a	0	0.57763671875	0.412841796875	1	upper	amplitud.ttf
142513	WORD	wordpools/wasnorm_wordpool.txt	LTP138	ltpFR	3	1	0	CHECKERS	285	n/a	n/a	0	0.57763671875	0.412841796875	1	upper	amplitud.ttf
146633	WORD	wordpools/wasnorm_wordpool.txt	LTP138	ltpFR	3	1	0	PUPPY	1144	n/a	n/a	1	0.57763671875	0.412841796875	1	upper	amplitud.ttf
152402	REC_START	n/a	LTP138	ltpFR	3	1	n/a	n/a	n/a	n/a	n/a	n/a	n/a	n/a	n/a	n/a	n/a
153115	REC_WORD	wordpools/wasnorm_wordpool.txt	LTP138	ltpFR	3	1	0	PUPPY	1144	n/a	n/a	1	n/a	n/a	n/a	n/a	n/a
154018	REC_WORD	wordpools/wasnorm_wordpool.txt	LTP138	ltpFR	3	1	0	CHECKERS	285	n/a	n/a	0	n/a	n/a	n/a	n/a	n/a
155200	REC_WORD	wordpools/wasnorm_wordpool.txt	LTP138	ltpFR	3	1	0	KING	777	n/a	n/a	1	n/a	n/a	n/a	n/a	n/a
156448	REC_WORD	wordpools/wasnorm_wordpool.txt	LTP138	ltpFR	3	1	0	PRINCE	1124	n/a	n/a	1	n/a	n/a	n/a	n/a	n/a
157490	REC_WORD	wordpools/wasnorm_wordpool.txt	LTP138	ltpFR	3	1	1	THRONE	1461	n/a	n/a	0	n/a	n/a	n/a	n/a	n/a
159221	REC_WORD	wordpools/wasnorm_wordpool.txt	LTP138	ltpFR	3	1	1	VIOLA	1570	n/a	n/a	0	n/a	n/a	n/a	n/a	n/a
160682	REC_WORD	wordpools/wasnorm_wordpool.txt	LTP138	ltpFR	3	1	1	STRAWBERRY	1391	n/a	n/a	1	n/a	n/a	n/a	n/a	n/a
162469	REC_WORD	wordpools/wasnorm_wordpool.txt	LTP138	ltpFR	3	1	1	MINT	898	n/a	n/a	1	n/a	n/a	n/a	n/a	n/a
164359	REC_WORD	wordpools/wasnorm_wordpool.txt	LTP138	ltpFR	3	1	n/a	STREAM	1392	n/a	n/a	n/a	n/a	n/a	n/a	n/a	n/a
168510	REC_WORD	wordpools/wasnorm_wordpool.txt	LTP138	ltpFR	3	1	0	BROOK	177	n/a	n/a	1	n/a	n/a	n/a	n/a	n/a
181037	REC_WORD	wordpools/wasnorm_wordpool.txt	LTP138	ltpFR	3	1	1	COACH	331	n/a	n/a	1	n/a	n/a	n/a	n/a	n/a
186190	REC_WORD	wordpools/wasnorm_wordpool.txt	LTP138	ltpFR	3	1	0	PUPPY	1144	n/a	n/a	1	n/a	n/a	n/a	n/a	n/a
191208	REC_WORD	wordpools/wasnorm_wordpool.txt	LTP138	ltpFR	3	1	0	SMOG	1330	n/a	n/a	0	n/a	n/a	n/a	n/a	n/a
196816	REC_WORD	wordpools/wasnorm_wordpool.txt	LTP138	ltpFR	3	1	1	CREATURE	403	n/a	n/a	0	n/a	n/a	n/a	n/a	n/a
209038	REC_WORD	wordpools/wasnorm_wordpool.txt	LTP138	ltpFR	3	1	1	RIVER	1194	n/a	n/a	1	n/a	n/a	n/a	n/a	n/a
249272	WORD	wordpools/wasnorm_wordpool.txt	LTP138	ltpFR	3	2	0	OFFICER	973	n/a	n/a	1	0.57763671875	0.412841796875	1	upper	amplitud.ttf
253143	WORD	wordpools/wasnorm_wordpool.txt	LTP138	ltpFR	3	2	0	SHERIFF	1284	n/a	n/a	1	0.57763671875	0.412841796875	1	upper	amplitud.ttf
257013	WORD	wordpools/wasnorm_wordpool.txt	LTP138	ltpFR	3	2	0	GLOVE	642	n/a	n/a	0	0.57763671875	0.412841796875	1	upper	amplitud.ttf
260909	WORD	wordpools/wasnorm_wordpool.txt	LTP138	ltpFR	3	2	0	TUNNEL	1519	n/a	n/a	1	0.57763671875	0.412841796875	1	upper	amplitud.ttf
265071	WORD	wordpools/wasnorm_wordpool.txt	LTP138	ltpFR	3	2	1	DISH	474	n/a	n/a	0	0.422607421875	0.5869140625	0	lower	zerothre.ttf
269024	WORD	wordpools/wasnorm_wordpool.txt	LTP138	ltpFR	3	2	1	MARINE	869	n/a	n/a	1	0.422607421875	0.5869140625	0	lower	zerothre.ttf
273186	WORD	wordpools/wasnorm_wordpool.txt	LTP138	ltpFR	3	2	1	GREASE	660	n/a	n/a	0	0.422607421875	0.5869140625	0	lower	zerothre.ttf
277372	WORD	wordpools/wasnorm_wordpool.txt	LTP138	ltpFR	3	2	1	CAULIFLOWER	262	n/a	n/a	1	0.422607421875	0.5869140625	0	lower	zerothre.ttf
281218	WORD	wordpools/wasnorm_wordpool.txt	LTP138	ltpFR	3	2	1	GROCERY	664	n/a	n/a	0	0.422607421875	0.5869140625	0	lower	zerothre.ttf
285197	WORD	wordpools/wasnorm_wordpool.txt	LTP138	ltpFR	3	2	0	TUNA	1518	n/a	n/a	0	0.57763671875	0.412841796875	1	upper	amplitud.ttf
289333	WORD	wordpools/wasnorm_wordpool.txt	LTP138	ltpFR	3	2	0	SECRETARY	1265	n/a	n/a	1	0.57763671875	0.412841796875	1	upper	amplitud.ttf
293163	WORD	wordpools/wasnorm_wordpool.txt	LTP138	ltpFR	3	2	0	WORKER	1621	n/a	n/a	1	0.57763671875	0.412841796875	1	upper	amplitud.ttf
297083	WORD	wordpools/wasnorm_wordpool.txt	LTP138	ltpFR	3	2	0	FISH	571	n/a	n/a	0	0.57763671875	0.412841796875	1	upper	amplitud.ttf
301054	WORD	wordpools/wasnorm_wordpool.txt	LTP138	ltpFR	3	2	1	TAR	1435	n/a	n/a	0	0.422607421875	0.5869140625	0	lower	zerothre.ttf
304999	WORD	wordpools/wasnorm_wordpool.txt	LTP138	ltpFR	3	2	1	PADDLE	1000	n/a	n/a	0	0.422607421875	0.5869140625	0	lower	zerothre.ttf
308953	WORD	wordpools/wasnorm_wordpool.txt	LTP138	ltpFR	3	2	1	BATTERY	101	n/a	n/a	0	0.422607421875	0.5869140625	0	lower	zerothre.ttf
314672	REC_START	n/a	LTP138	ltpFR	3	2	n/a	n/a	n/a	n/a	n/a	n/a	n/a	n/a	n/a	n/a	n/a
315260	REC_WORD	wordpools/wasnorm_wordpool.txt	LTP138	ltpFR	3	2	0	FISH	571	n/a	n/a	0	n/a	n/a	n/a	n/a	n/a
316388	REC_WORD	wordpools/wasnorm_wordpool.txt	LTP138	ltpFR	3	2	0	TUNA	1518	n/a	n/a	0	n/a	n/a	n/a	n/a	n/a
317470	REC_WORD	wordpools/wasnorm_wordpool.txt	LTP138	ltpFR	3	2	1	TAR	1435	n/a	n/a	0	n/a	n/a	n/a	n/a	n/a
318777	REC_WORD	wordpools/wasnorm_wordpool.txt	LTP138	ltpFR	3	2	1	BATTERY	101	n/a	n/a	0	n/a	n/a	n/a	n/a	n/a
320035	REC_WORD	wordpools/wasnorm_wordpool.txt	LTP138	ltpFR	3	2	0	OFFICER	973	n/a	n/a	1	n/a	n/a	n/a	n/a	n/a
321666	REC_WORD	wordpools/wasnorm_wordpool.txt	LTP138	ltpFR	3	2	0	WORKER	1621	n/a	n/a	1	n/a	n/a	n/a	n/a	n/a
325088	REC_WORD	wordpools/wasnorm_wordpool.txt	LTP138	ltpFR	3	2	1	CAULIFLOWER	262	n/a	n/a	1	n/a	n/a	n/a	n/a	n/a
329393	REC_WORD	wordpools/wasnorm_wordpool.txt	LTP138	ltpFR	3	2	0	TUNNEL	1519	n/a	n/a	1	n/a	n/a	n/a	n/a	n/a
336956	REC_WORD	wordpools/wasnorm_wordpool.txt	LTP138	ltpFR	3	2	1	GROCERY	664	n/a	n/a	0	n/a	n/a	n/a	n/a	n/a
346450	REC_WORD	wordpools/wasnorm_wordpool.txt	LTP138	ltpFR	3	2	1	MARINE	869	n/a	n/a	1	n/a	n/a	n/a	n/a	n/a
404034	WORD	wordpools/wasnorm_wordpool.txt	LTP138	ltpFR	3	3	0	HARP	689	n/a	n/a	1	0.57763671875	0.412841796875	1	upper	amplitud.ttf
408121	WORD	wordpools/wasnorm_wordpool.txt	LTP138	ltpFR	3	3	0	RACCOON	1153	n/a	n/a	1	0.57763671875	0.412841796875	1	upper	amplitud.ttf
412083	WORD	wordpools/wasnorm_wordpool.txt	LTP138	ltpFR	3	3	0	SANDWICH	1232	n/a	n/a	0	0.57763671875	0.412841796875	1	upper	amplitud.ttf
415937	WORD	wordpools/wasnorm_wordpool.txt	LTP138	ltpFR	3	3	0	FOLDER	588	n/a	n/a	0	0.57763671875	0.412841796875	1	upper	amplitud.ttf
420066	WORD	wordpools/wasnorm_wordpool.txt	LTP138	ltpFR	3	3	1	STEREO	1378	n/a	n/a	0	0.422607421875	0.5869140625	0	lower	zerothre.ttf
423970	WORD	wordpools/wasnorm_wordpool.txt	LTP138	ltpFR	3	3	1	PLATE	1086	n/a	n/a	0	0.422607421875	0.5869140625	0	lower	zerothre.ttf
427782	WORD	wordpools/wasnorm_wordpool.txt	LTP138	ltpFR	3	3	1	CUB	419	n/a	n/a	1	0.422607421875	0.5869140625	0	lower	zerothre.ttf
431611	WORD	wordpools/wasnorm_wordpool.txt	LTP138	ltpFR	3	3	0	MILITARY	894	n/a	n/a	1	0.57763671875	0.412841796875	1	upper	amplitud.ttf
435689	WORD	wordpools/wasnorm_wordpool.txt	LTP138	ltpFR	3	3	0	ASSISTANT	48	n/a	n/a	1	0.57763671875	0.412841796875	1	upper	amplitud.ttf
439785	WORD	wordpools/wasnorm_wordpool.txt	LTP138	ltpFR	3	3	0	PROFESSOR	1131	n/a	n/a	1	0.57763671875	0.412841796875	1	upper	amplitud.ttf
443955	WORD	wordpools/wasnorm_wordpool.txt	LTP138	ltpFR	3	3	0	POOL	1103	n/a	n/a	1	0.57763671875	0.412841796875	1	upper	amplitud.ttf
447900	WORD	wordpools/wasnorm_wordpool.txt	LTP138	ltpFR	3	3	1	WATER	1594	n/a	n/a	1	0.422607421875	0.5869140625	0	lower	zerothre.ttf
452087	WORD	wordpools/wasnorm_wordpool.txt	LTP138	ltpFR	3	3	1	RIB	1188	n/a	n/a	0	0.422607421875	0.5869140625	0	lower	zerothre.ttf
455916	WORD	wordpools/wasnorm_wordpool.txt	LTP138	ltpFR	3	3	1	COOKBOOK	373	n/a	n/a	0	0.422607421875	0.5869140625	0	lower	zerothre.ttf
459945	WORD	wordpools/wasnorm_wordpool.txt	LTP138	ltpFR	3	3	1	CLOTHES	327	n/a	n/a	0	0.422607421875	0.5869140625	0	lower	zerothre.ttf
463823	WORD	wordpools/wasnorm_wordpool.txt	LTP138	ltpFR	3	3	1	FARMER	553	n/a	n/a	1	0.422607421875	0.5869140625	0	lower	zerothre.ttf
469692	REC_START	n/a	LTP138	ltpFR	3	3	n/a	n/a	n/a	n/a	n/a	n/a	n/a	n/a	n/a	n/a	n/a
470270	REC_WORD	wordpools/wasnorm_wordpool.txt	LTP138	ltpFR	3	3	1	FARMER	553	n/a	n/a	1	n/a	n/a	n/a	n/a	n/a
471578	REC_WORD	wordpools/wasnorm_wordpool.txt	LTP138	ltpFR	3	3	1	COOKBOOK	373	n/a	n/a	0	n/a	n/a	n/a	n/a	n/a
472814	REC_WORD	wordpools/wasnorm_wordpool.txt	LTP138	ltpFR	3	3	1	CLOTHES	327	n/a	n/a	0	n/a	n/a	n/a	n/a	n/a
474541	REC_WORD	wordpools/wasnorm_wordpool.txt	LTP138	ltpFR	3	3	0	MILITARY	894	n/a	n/a	1	n/a	n/a	n/a	n/a	n/a
476262	REC_WORD	wordpools/wasnorm_wordpool.txt	LTP138	ltpFR	3	3	0	HARP	689	n/a	n/a	1	n/a	n/a	n/a	n/a	n/a
479904	REC_WORD	wordpools/wasnorm_wordpool.txt	LTP138	ltpFR	3	3	0	ASSISTANT	48	n/a	n/a	1	n/a	n/a	n/a	n/a	n/a
486319	REC_WORD	wordpools/wasnorm_wordpool.txt	LTP138	ltpFR	3	3	1	WATER	1594	n/a	n/a	1	n/a	n/a	n/a	n/a	n/a
487860	REC_WORD	wordpools/wasnorm_wordpool.txt	LTP138	ltpFR	3	3	1	RIB	1188	n/a	n/a	0	n/a	n/a	n/a	n/a	n/a
489651	REC_WORD	wordpools/wasnorm_wordpool.txt	LTP138	ltpFR	3	3	1	CUB	419	n/a	n/a	1	n/a	n/a	n/a	n/a	n/a
493572	REC_WORD	wordpools/wasnorm_wordpool.txt	LTP138	ltpFR	3	3	1	PLATE	1086	n/a	n/a	0	n/a	n/a	n/a	n/a	n/a
495019	REC_WORD	wordpools/wasnorm_wordpool.txt	LTP138	ltpFR	3	3	0	FOLDER	588	n/a	n/a	0	n/a	n/a	n/a	n/a	n/a
499220	REC_WORD	wordpools/wasnorm_wordpool.txt	LTP138	ltpFR	3	3	0	RACCOON	1153	n/a	n/a	1	n/a	n/a	n/a	n/a	n/a
511242	REC_WORD	wordpools/wasnorm_wordpool.txt	LTP138	ltpFR	3	3	n/a	COMMANDER	354	n/a	n/a	n/a	n/a	n/a	n/a	n/a	n/a
563332	WORD	wordpools/wasnorm_wordpool.txt	LTP138	ltpFR	3	4	1	AIRCRAFT	11	n/a	n/a	0	0.422607421875	0.5869140625	0	lower	zerothre.ttf
567262	WORD	wordpools/wasnorm_wordpool.txt	LTP138	ltpFR	3	4	1	JET	756	n/a	n/a	0	0.422607421875	0.5869140625	0	lower	zerothre.ttf
571381	WORD	wordpools/wasnorm_wordpool.txt	LTP138	ltpFR	3	4	1	COB	334	n/a	n/a	0	0.422607421875	0.5869140625	0	lower	zerothre.ttf
575319	WORD	wordpools/wasnorm_wordpool.txt	LTP138	ltpFR	3	4	1	CABINET	212	n/a	n/a	0	0.422607421875	0.5869140625	0	lower	zerothre.ttf
579515	WORD	wordpools/wasnorm_wordpool.txt	LTP138	ltpFR	3	4	1	HERD	705	n/a	n/a	1	0.422607421875	0.5869140625	0	lower	zerothre.ttf
583651	WORD	wordpools/wasnorm_wordpool.txt	LTP138	ltpFR	3	4	1	NIGHTGOWN	953	n/a	n/a	0	0.422607421875	0.5869140625	0	lower	zerothre.ttf
587572	WORD	wordpools/wasnorm_wordpool.txt	LTP138	ltpFR	3	4	0	COLLAR	345	n/a	n/a	0	0.57763671875	0.412841796875	1	upper	amplitud.ttf
591767	WORD	wordpools/wasnorm_wordpool.txt	LTP138	ltpFR	3	4	0	PECAN	1036	n/a	n/a	0	0.57763671875	0.412841796875	1	upper	amplitud.ttf
595604	WORD	wordpools/wasnorm_wordpool.txt	LTP138	ltpFR	3	4	0	CHAIR	274	n/a	n/a	1	0.57763671875	0.412841796875	1	upper	amplitud.ttf
599466	WORD	wordpools/wasnorm_wordpool.txt	LTP138	ltpFR	3	4	1	REFEREE	1178	n/a	n/a	1	0.422607421875	0.5869140625	0	lower	zerothre.ttf
603495	WORD	wordpools/wasnorm_wordpool.txt	LTP138	ltpFR	3	4	1	COWARD	394	n/a	n/a	1	0.422607421875	0.5869140625	0	lower	zerothre.ttf
607348	WORD	wordpools/wasnorm_wordpool.txt	LTP138	ltpFR	3	4	0	SALESMAN	1225	n/a	n/a	1	0.57763671875	0.412841796875	1	upper	amplitud.ttf
611178	WORD	wordpools/wasnorm_wordpool.txt	LTP138	ltpFR	3	4	0	CEREAL	272	n/a	n/a	0	0.57763671875	0.412841796875	1	upper	amplitud.ttf
615364	WORD	wordpools/wasnorm_wordpool.txt	LTP138	ltpFR	3	4	0	FUGITIVE	612	n/a	n/a	1	0.57763671875	0.412841796875	1	upper	amplitud.ttf
619551	WORD	wordpools/wasnorm_wordpool.txt	LTP138	ltpFR	3	4	0	HANDCUFFS	685	n/a	n/a	0	0.57763671875	0.412841796875	1	upper	amplitud.ttf
623755	WORD	wordpools/wasnorm_wordpool.txt	LTP138	ltpFR	3	4	0	BUYER	208	n/a	n/a	1	0.57763671875	0.412841796875	1	upper	amplitud.ttf
629340	REC_START	n/a	LTP138	ltpFR	3	4	n/a	n/a	n/a	n/a	n/a	n/a	n/a	n/a	n/a	n/a	n/a
630193	REC_WORD	wordpools/wasnorm_wordpool.txt	LTP138	ltpFR	3	4	0	BUYER	208	n/a	n/a	1	n/a	n/a	n/a	n/a	n/a
631395	REC_WORD	wordpools/wasnorm_wordpool.txt	LTP138	ltpFR	3	4	0	HANDCUFFS	685	n/a	n/a	0	n/a	n/a	n/a	n/a	n/a
633201	REC_WORD	wordpools/wasnorm_wordpool.txt	LTP138	ltpFR	3	4	0	CHAIR	274	n/a	n/a	1	n/a	n/a	n/a	n/a	n/a
634692	REC_WORD	wordpools/wasnorm_wordpool.txt	LTP138	ltpFR	3	4	0	PECAN	1036	n/a	n/a	0	n/a	n/a	n/a	n/a	n/a
638478	REC_WORD	wordpools/wasnorm_wordpool.txt	LTP138	ltpFR	3	4	0	SALESMAN	1225	n/a	n/a	1	n/a	n/a	n/a	n/a	n/a
640788	REC_WORD	wordpools/wasnorm_wordpool.txt	LTP138	ltpFR	3	4	0	FUGITIVE	612	n/a	n/a	1	n/a	n/a	n/a	n/a	n/a
645548	REC_WORD	wordpools/wasnorm_wordpool.txt	LTP138	ltpFR	3	4	0	OFFICER	973	n/a	n/a	1	n/a	n/a	n/a	n/a	n/a
657640	REC_WORD	wordpools/wasnorm_wordpool.txt	LTP138	ltpFR	3	4	1	COB	334	n/a	n/a	0	n/a	n/a	n/a	n/a	n/a
700557	REC_WORD	wordpools/wasnorm_wordpool.txt	LTP138	ltpFR	3	4	0	CEREAL	272	n/a	n/a	0	n/a	n/a	n/a	n/a	n/a
731362	WORD	wordpools/wasnorm_wordpool.txt	LTP138	ltpFR	3	5	0	LAGOON	795	n/a	n/a	1	0.57763671875	0.412841796875	1	upper	amplitud.ttf
735184	WORD	wordpools/wasnorm_wordpool.txt	LTP138	ltpFR	3	5	0	LIBRARY	816	n/a	n/a	1	0.57763671875	0.412841796875	1	upper	amplitud.ttf
739163	WORD	wordpools/wasnorm_wordpool.txt	LTP138	ltpFR	3	5	0	REPORT	1184	n/a	n/a	0	0.57763671875	0.412841796875	1	upper	amplitud.ttf
743000	WORD	wordpools/wasnorm_wordpool.txt	LTP138	ltpFR	3	5	0	BLUEBERRY	140	n/a	n/a	0	0.57763671875	0.412841796875	1	upper	amplitud.ttf
746962	WORD	wordpools/wasnorm_wordpool.txt	LTP138	ltpFR	3	5	0	SKI	1316	n/a	n/a	1	0.57763671875	0.412841796875	1	upper	amplitud.ttf
750808	WORD	wordpools/wasnorm_wordpool.txt	LTP138	ltpFR	3	5	0	AIRPLANE	12	n/a	n/a	1	0.57763671875	0.412841796875	1	upper	amplitud.ttf
754911	WORD	wordpools/wasnorm_wordpool.txt	LTP138	ltpFR	3	5	0	FUR	615	n/a	n/a	0	0.57763671875	0.412841796875	1	upper	amplitud.ttf
758873	WORD	wordpools/wasnorm_wordpool.txt	LTP138	ltpFR	3	5	0	BOLT	146	n/a	n/a	0	0.57763671875	0.412841796875	1	upper	amplitud.ttf
762910	WORD	wordpools/wasnorm_wordpool.txt	LTP138	ltpFR	3	5	0	ARENA	37	n/a	n/a	1	0.57763671875	0.412841796875	1	upper	amplitud.ttf
766822	WORD	wordpools/wasnorm_wordpool.txt	LTP138	ltpFR	3	5	0	TEAM	1441	n/a	n/a	1	0.57763671875	0.412841796875	1	upper	amplitud.ttf
770968	WORD	wordpools/wasnorm_wordpool.txt	LTP138	ltpFR	3	5	0	ALMANAC	17	n/a	n/a	0	0.57763671875	0.412841796875	1	upper	amplitud.ttf
774905	WORD	wordpools/wasnorm_wordpool.txt	LTP138	ltpFR	3	5	0	TUBE	1516	n/a	n/a	0	0.57763671875	0.412841796875	1	upper	amplitud.ttf
778759	WORD	wordpools/wasnorm_wordpool.txt	LTP138	ltpFR	3	5	0	GIRAFFE	636	n/a	n/a	1	0.57763671875	0.412841796875	1	upper	amplitud.ttf
782712	WORD	wordpools/wasnorm_wordpool.txt	LTP138	ltpFR	3	5	0	PEN	1041	n/a	n/a	0	0.57763671875	0.412841796875	1	upper	amplitud.ttf
786874	WORD	wordpools/wasnorm_wordpool.txt	LTP138	ltpFR	3	5	0	CAGE	218	n/a	n/a	1	0.57763671875	0.412841796875	1	upper	amplitud.ttf
791061	WORD	wordpools/wasnorm_wordpool.txt	LTP138	ltpFR	3	5	0	MAMMAL	861	n/a	n/a	1	0.57763671875	0.412841796875	1	upper	amplitud.ttf
796996	REC_START	n/a	LTP138	ltpFR	3	5	n/a	n/a	n/a	n/a	n/a	n/a	n/a	n/a	n/a	n/a	n/a
798213	REC_WORD	wordpools/wasnorm_wordpool.txt	LTP138	ltpFR	3	5	0	GIRAFFE	636	n/a	n/a	1	n/a	n/a	n/a	n/a	n/a
799455	REC_WORD	wordpools/wasnorm_wordpool.txt	LTP138	ltpFR	3	5	0	TEAM	1441	n/a	n/a	1	n/a	n/a	n/a	n/a	n/a
800762	REC_WORD	wordpools/wasnorm_wordpool.txt	LTP138	ltpFR	3	5	0	BLUEBERRY	140	n/a	n/a	0	n/a	n/a	n/a	n/a	n/a
802279	REC_WORD	wordpools/wasnorm_wordpool.txt	LTP138	ltpFR	3	5	0	CAGE	218	n/a	n/a	1	n/a	n/a	n/a	n/a	n/a
803661	REC_WORD	wordpools/wasnorm_wordpool.txt	LTP138	ltpFR	3	5	0	MAMMAL	861	n/a	n/a	1	n/a	n/a	n/a	n/a	n/a
805576	REC_WORD	wordpools/wasnorm_wordpool.txt	LTP138	ltpFR	3	5	0	BOLT	146	n/a	n/a	0	n/a	n/a	n/a	n/a	n/a
806968	REC_WORD	wordpools/wasnorm_wordpool.txt	LTP138	ltpFR	3	5	0	AIRPLANE	12	n/a	n/a	1	n/a	n/a	n/a	n/a	n/a
813229	REC_WORD	wordpools/wasnorm_wordpool.txt	LTP138	ltpFR	3	5	0	ALMANAC	17	n/a	n/a	0	n/a	n/a	n/a	n/a	n/a
825311	REC_WORD	wordpools/wasnorm_wordpool.txt	LTP138	ltpFR	3	5	n/a	OCEAN	970	n/a	n/a	n/a	n/a	n/a	n/a	n/a	n/a
884661	WORD	wordpools/wasnorm_wordpool.txt	LTP138	ltpFR	3	6	0	MAJOR	859	n/a	n/a	1	0.57763671875	0.412841796875	1	upper	amplitud.ttf
888590	WORD	wordpools/wasnorm_wordpool.txt	LTP138	ltpFR	3	6	0	COLONEL	348	n/a	n/a	1	0.57763671875	0.412841796875	1	upper	amplitud.ttf
892677	WORD	wordpools/wasnorm_wordpool.txt	LTP138	ltpFR	3	6	0	SHELL	1281	n/a	n/a	0	0.57763671875	0.412841796875	1	upper	amplitud.ttf
896597	WORD	wordpools/wasnorm_wordpool.txt	LTP138	ltpFR	3	6	0	TORTOISE	1486	n/a	n/a	1	0.57763671875	0.412841796875	1	upper	amplitud.ttf
900667	WORD	wordpools/wasnorm_wordpool.txt	LTP138	ltpFR	3	6	0	HAY	693	n/a	n/a	0	0.57763671875	0.412841796875	1	upper	amplitud.ttf
904521	WORD	wordpools/wasnorm_wordpool.txt	LTP138	ltpFR	3	6	0	BASKET	95	n/a	n/a	0	0.57763671875	0.412841796875	1	upper	amplitud.ttf
908417	WORD	wordpools/wasnorm_wordpool.txt	LTP138	ltpFR	3	6	0	GRAPE	654	n/a	n/a	0	0.57763671875	0.412841796875	1	upper	amplitud.ttf
912587	WORD	wordpools/wasnorm_wordpool.txt	LTP138	ltpFR	3	6	0	DRYER	503	n/a	n/a	1	0.57763671875	0.412841796875	1	upper	amplitud.ttf
916715	WORD	wordpools/wasnorm_wordpool.txt	LTP138	ltpFR	3	6	0	BOXER	160	n/a	n/a	1	0.57763671875	0.412841796875	1	upper	amplitud.ttf
920561	WORD	wordpools/wasnorm_wordpool.txt	LTP138	ltpFR	3	6	0	OATS	968	n/a	n/a	0	0.57763671875	0.412841796875	1	upper	amplitud.ttf
924372	WORD	wordpools/wasnorm_wordpool.txt	LTP138	ltpFR	3	6	0	ARTICLE	42	n/a	n/a	0	0.57763671875	0.412841796875	1	upper	amplitud.ttf
928460	WORD	wordpools/wasnorm_wordpool.txt	LTP138	ltpFR	3	6	0	PIANO	1057	n/a	n/a	1	0.57763671875	0.412841796875	1	upper	amplitud.ttf
932514	WORD	wordpools/wasnorm_wordpool.txt	LTP138	ltpFR	3	6	0	DUMP	505	n/a	n/a	1	0.57763671875	0.412841796875	1	upper	amplitud.ttf
936601	WORD	wordpools/wasnorm_wordpool.txt	LTP138	ltpFR	3	6	0	FRAGRANCE	599	n/a	n/a	0	0.57763671875	0.412841796875	1	upper	amplitud.ttf
940646	WORD	wordpools/wasnorm_wordpool.txt	LTP138	ltpFR	3	6	0	TRAITOR	1495	n/a	n/a	1	0.57763671875	0.412841796875	1	upper	amplitud.ttf
944691	WORD	wordpools/wasnorm_wordpool.txt	LTP138	ltpFR	3	6	0	SAXOPHONE	1240	n/a	n/a	1	0.57763671875	0.412841796875	1	upper	amplitud.ttf
950535	REC_START	n/a	LTP138	ltpFR	3	6	n/a	n/a	n/a	n/a	n/a	n/a	n/a	n/a	n/a	n/a	n/a
951073	REC_WORD	wordpools/wasnorm_wordpool.txt	LTP138	ltpFR	3	6	0	SAXOPHONE	1240	n/a	n/a	1	n/a	n/a	n/a	n/a	n/a
952560	REC_WORD	wordpools/wasnorm_wordpool.txt	LTP138	ltpFR	3	6	0	PIANO	1057	n/a	n/a	1	n/a	n/a	n/a	n/a	n/a
954117	REC_WORD	wordpools/wasnorm_wordpool.txt	LTP138	ltpFR	3	6	0	MAJOR	859	n/a	n/a	1	n/a	n/a	n/a	n/a	n/a
955748	REC_WORD	wordpools/wasnorm_wordpool.txt	LTP138	ltpFR	3	6	0	COLONEL	348	n/a	n/a	1	n/a	n/a	n/a	n/a	n/a
957823	REC_WORD	wordpools/wasnorm_wordpool.txt	LTP138	ltpFR	3	6	0	OATS	968	n/a	n/a	0	n/a	n/a	n/a	n/a	n/a
960063	REC_WORD	wordpools/wasnorm_wordpool.txt	LTP138	ltpFR	3	6	0	ARTICLE	42	n/a	n/a	0	n/a	n/a	n/a	n/a	n/a
964583	REC_WORD	wordpools/wasnorm_wordpool.txt	LTP138	ltpFR	3	6	0	DUMP	505	n/a	n/a	1	n/a	n/a	n/a	n/a	n/a
973597	REC_WORD	wordpools/wasnorm_wordpool.txt	LTP138	ltpFR	3	6	0	BASKET	95	n/a	n/a	0	n/a	n/a	n/a	n/a	n/a
975313	REC_WORD	wordpools/wasnorm_wordpool.txt	LTP138	ltpFR	3	6	0	HAY	693	n/a	n/a	0	n/a	n/a	n/a	n/a	n/a
981150	REC_WORD	wordpools/wasnorm_wordpool.txt	LTP138	ltpFR	3	6	0	TORTOISE	1486	n/a	n/a	1	n/a	n/a	n/a	n/a	n/a
982811	REC_WORD	wordpools/wasnorm_wordpool.txt	LTP138	ltpFR	3	6	0	SHELL	1281	n/a	n/a	0	n/a	n/a	n/a	n/a	n/a
1048030	WORD	wordpools/wasnorm_wordpool.txt	LTP138	ltpFR	3	7	-1	WINE	1613	n/a	n/a	-1	1.0	1.0	1	upper	Verdana.ttf
1051959	WORD	wordpools/wasnorm_wordpool.txt	LTP138	ltpFR	3	7	-1	CLOCK	325	n/a	n/a	-1	1.0	1.0	1	upper	Verdana.ttf
1056012	WORD	wordpools/wasnorm_wordpool.txt	LTP138	ltpFR	3	7	-1	GRAVEL	659	n/a	n/a	-1	1.0	1.0	1	upper	Verdana.ttf
1059858	WORD	wordpools/wasnorm_wordpool.txt	LTP138	ltpFR	3	7	-1	PAVEMENT	1028	n/a	n/a	-1	1.0	1.0	1	upper	Verdana.ttf
1064036	WORD	wordpools/wasnorm_wordpool.txt	LTP138	ltpFR	3	7	-1	BOOT	150	n/a	n/a	-1	1.0	1.0	1	upper	Verdana.ttf
1068206	WORD	wordpools/wasnorm_wordpool.txt	LTP138	ltpFR	3	7	-1	TENT	1449	n/a	n/a	-1	1.0	1.0	1	upper	Verdana.ttf
1072152	WORD	wordpools/wasnorm_wordpool.txt	LTP138	ltpFR	3	7	-1	VEAL	1551	n/a	n/a	-1	1.0	1.0	1	upper	Verdana.ttf
1076181	WORD	wordpools/wasnorm_wordpool.txt	LTP138	ltpFR	3	7	-1	BEEF	113	n/a	n/a	-1	1.0	1.0	1	upper	Verdana.ttf
1080043	WORD	wordpools/wasnorm_wordpool.txt	LTP138	ltpFR	3	7	-1	GODDESS	646	n/a	n/a	-1	1.0	1.0	1	upper	Verdana.ttf
1083880	WORD	wordpools/wasnorm_wordpool.txt	LTP138	ltpFR	3	7	-1	PROTON	1132	n/a	n/a	-1	1.0	1.0	1	upper	Verdana.ttf
1087775	WORD	wordpools/wasnorm_wordpool.txt	LTP138	ltpFR	3	7	-1	COOLER	375	n/a	n/a	-1	1.0	1.0	1	upper	Verdana.ttf
1091946	WORD	wordpools/wasnorm_wordpool.txt	LTP138	ltpFR	3	7	-1	PANTS	1010	n/a	n/a	-1	1.0	1.0	1	upper	Verdana.ttf
1095941	WORD	wordpools/wasnorm_wordpool.txt	LTP138	ltpFR	3	7	-1	GUARD	667	n/a	n/a	-1	1.0	1.0	1	upper	Verdana.ttf
1099903	WORD	wordpools/wasnorm_wordpool.txt	LTP138	ltpFR	3	7	-1	TICK	1463	n/a	n/a	-1	1.0	1.0	1	upper	Verdana.ttf
1103890	WORD	wordpools/wasnorm_wordpool.txt	LTP138	ltpFR	3	7	-1	EXPERT	543	n/a	n/a	-1	1.0	1.0	1	upper	Verdana.ttf
1107944	WORD	wordpools/wasnorm_wordpool.txt	LTP138	ltpFR	3	7	-1	LOCK	838	n/a	n/a	-1	1.0	1.0	1	upper	Verdana.ttf
1113679	REC_START	n/a	LTP138	ltpFR	3	7	n/a	n/a	n/a	n/a	n/a	n/a	n/a	n/a	n/a	n/a	n/a
1114357	REC_WORD	wordpools/wasnorm_wordpool.txt	LTP138	ltpFR	3	7	-1	LOCK	838	n/a	n/a	-1	n/a	n/a	n/a	n/a	n/a
1115420	REC_WORD	wordpools/wasnorm_wordpool.txt	LTP138	ltpFR	3	7	-1	CLOCK	325	n/a	n/a	-1	n/a	n/a	n/a	n/a	n/a
1117161	REC_WORD	wordpools/wasnorm_wordpool.txt	LTP138	ltpFR	3	7	-1	WINE	1613	n/a	n/a	-1	n/a	n/a	n/a	n/a	n/a
1118623	REC_WORD	wordpools/wasnorm_wordpool.txt	LTP138	ltpFR	3	7	-1	GODDESS	646	n/a	n/a	-1	n/a	n/a	n/a	n/a	n/a
1120543	REC_WORD	wordpools/wasnorm_wordpool.txt	LTP138	ltpFR	3	7	-1	TENT	1449	n/a	n/a	-1	n/a	n/a	n/a	n/a	n/a
1121785	REC_WORD	wordpools/wasnorm_wordpool.txt	LTP138	ltpFR	3	7	-1	TICK	1463	n/a	n/a	-1	n/a	n/a	n/a	n/a	n/a
1123145	REC_WORD	wordpools/wasnorm_wordpool.txt	LTP138	ltpFR	3	7	-1	BOOT	150	n/a	n/a	-1	n/a	n/a	n/a	n/a	n/a
1124973	REC_WORD	wordpools/wasnorm_wordpool.txt	LTP138	ltpFR	3	7	-1	PANTS	1010	n/a	n/a	-1	n/a	n/a	n/a	n/a	n/a
1127418	REC_WORD	wordpools/wasnorm_wordpool.txt	LTP138	ltpFR	3	7	-1	PAVEMENT	1028	n/a	n/a	-1	n/a	n/a	n/a	n/a	n/a
1128929	REC_WORD	wordpools/wasnorm_wordpool.txt	LTP138	ltpFR	3	7	-1	GRAVEL	659	n/a	n/a	-1	n/a	n/a	n/a	n/a	n/a
1137385	REC_WORD	wordpools/wasnorm_wordpool.txt	LTP138	ltpFR	3	7	-1	PROTON	1132	n/a	n/a	-1	n/a	n/a	n/a	n/a	n/a
1149477	REC_WORD	wordpools/wasnorm_wordpool.txt	LTP138	ltpFR	3	7	-1	COOLER	375	n/a	n/a	-1	n/a	n/a	n/a	n/a	n/a
1156711	REC_WORD	wordpools/wasnorm_wordpool.txt	LTP138	ltpFR	3	7	-1	GUARD	667	n/a	n/a	-1	n/a	n/a	n/a	n/a	n/a
1200919	WORD	wordpools/wasnorm_wordpool.txt	LTP138	ltpFR	3	8	0	STABLE	1363	n/a	n/a	1	0.57763671875	0.412841796875	1	upper	amplitud.ttf
1205031	WORD	wordpools/wasnorm_wordpool.txt	LTP138	ltpFR	3	8	0	CART	250	n/a	n/a	1	0.57763671875	0.412841796875	1	upper	amplitud.ttf
1209235	WORD	wordpools/wasnorm_wordpool.txt	LTP138	ltpFR	3	8	0	FIN	566	n/a	n/a	1	0.57763671875	0.412841796875	1	upper	amplitud.ttf
1213072	WORD	wordpools/wasnorm_wordpool.txt	LTP138	ltpFR	3	8	0	BRACELET	163	n/a	n/a	0	0.57763671875	0.412841796875	1	upper	amplitud.ttf
1217051	WORD	wordpools/wasnorm_wordpool.txt	LTP138	ltpFR	3	8	0	TREASURE	1500	n/a	n/a	1	0.57763671875	0.412841796875	1	upper	amplitud.ttf
1221113	WORD	wordpools/wasnorm_wordpool.txt	LTP138	ltpFR	3	8	0	SHRIMP	1297	n/a	n/a	0	0.57763671875	0.412841796875	1	upper	amplitud.ttf
1225208	WORD	wordpools/wasnorm_wordpool.txt	LTP138	ltpFR	3	8	0	ACROBAT	4	n/a	n/a	1	0.57763671875	0.412841796875	1	upper	amplitud.ttf
1229286	WORD	wordpools/wasnorm_wordpool.txt	LTP138	ltpFR	3	8	0	OX	994	n/a	n/a	1	0.57763671875	0.412841796875	1	upper	amplitud.ttf
1233157	WORD	wordpools/wasnorm_wordpool.txt	LTP138	ltpFR	3	8	0	HANDBAG	684	n/a	n/a	1	0.57763671875	0.412841796875	1	upper	amplitud.ttf
1237343	WORD	wordpools/wasnorm_wordpool.txt	LTP138	ltpFR	3	8	0	PENGUIN	1044	n/a	n/a	1	0.57763671875	0.412841796875	1	upper	amplitud.ttf
1241522	WORD	wordpools/wasnorm_wordpool.txt	LTP138	ltpFR	3	8	0	BEAN	105	n/a	n/a	0	0.57763671875	0.412841796875	1	upper	amplitud.ttf
1245459	WORD	wordpools/wasnorm_wordpool.txt	LTP138	ltpFR	3	8	0	EARRING	514	n/a	n/a	0	0.57763671875	0.412841796875	1	upper	amplitud.ttf
1249370	WORD	wordpools/wasnorm_wordpool.txt	LTP138	ltpFR	3	8	0	SWAN	1417	n/a	n/a	1	0.57763671875	0.412841796875	1	upper	amplitud.ttf
1253300	WORD	wordpools/wasnorm_wordpool.txt	LTP138	ltpFR	3	8	0	HAM	678	n/a	n/a	1	0.57763671875	0.412841796875	1	upper	amplitud.ttf
1257445	WORD	wordpools/wasnorm_wordpool.txt	LTP138	ltpFR	3	8	0	DOORBELL	487	n/a	n/a	0	0.57763671875	0.412841796875	1	upper	amplitud.ttf
1261382	WORD	wordpools/wasnorm_wordpool.txt	LTP138	ltpFR	3	8	0	DOOR	486	n/a	n/a	1	0.57763671875	0.412841796875	1	upper	amplitud.ttf
1267201	REC_START	n/a	LTP138	ltpFR	3	8	n/a	n/a	n/a	n/a	n/a	n/a	n/a	n/a	n/a	n/a	n/a
1268044	REC_WORD	wordpools/wasnorm_wordpool.txt	LTP138	ltpFR	3	8	0	DOORBELL	487	n/a	n/a	0	n/a	n/a	n/a	n/a	n/a
1269261	REC_WORD	wordpools/wasnorm_wordpool.txt	LTP138	ltpFR	3	8	0	DOOR	486	n/a	n/a	1	n/a	n/a	n/a	n/a	n/a
1270159	REC_WORD	wordpools/wasnorm_wordpool.txt	LTP138	ltpFR	3	8	0	HAM	678	n/a	n/a	1	n/a	n/a	n/a	n/a	n/a
1271581	REC_WORD	wordpools/wasnorm_wordpool.txt	LTP138	ltpFR	3	8	0	OX	994	n/a	n/a	1	n/a	n/a	n/a	n/a	n/a
1272713	REC_WORD	wordpools/wasnorm_wordpool.txt	LTP138	ltpFR	3	8	0	SHRIMP	1297	n/a	n/a	0	n/a	n/a	n/a	n/a	n/a
1274320	REC_WORD	wordpools/wasnorm_wordpool.txt	LTP138	ltpFR	3	8	0	BEAN	105	n/a	n/a	0	n/a	n/a	n/a	n/a	n/a
1278789	REC_WORD	wordpools/wasnorm_wordpool.txt	LTP138	ltpFR	3	8	0	PENGUIN	1044	n/a	n/a	1	n/a	n/a	n/a	n/a	n/a
1282192	REC_WORD	wordpools/wasnorm_wordpool.txt	LTP138	ltpFR	3	8	0	TREASURE	1500	n/a	n/a	1	n/a	n/a	n/a	n/a	n/a
1284931	REC_WORD	wordpools/wasnorm_wordpool.txt	LTP138	ltpFR	3	8	0	BRACELET	163	n/a	n/a	0	n/a	n/a	n/a	n/a	n/a
1287924	REC_WORD	wordpools/wasnorm_wordpool.txt	LTP138	ltpFR	3	8	0	EARRING	514	n/a	n/a	0	n/a	n/a	n/a	n/a	n/a
1294408	REC_WORD	wordpools/wasnorm_wordpool.txt	LTP138	ltpFR	3	8	0	FIN	566	n/a	n/a	1	n/a	n/a	n/a	n/a	n/a
1373536	WORD	wordpools/wasnorm_wordpool.txt	LTP138	ltpFR	3	9	1	BARRACUDA	90	n/a	n/a	1	0.422607421875	0.5869140625	0	lower	zerothre.ttf
1377673	WORD	wordpools/wasnorm_wordpool.txt	LTP138	ltpFR	3	9	1	BAY	102	n/a	n/a	0	0.422607421875	0.5869140625	0	lower	zerothre.ttf
1381785	WORD	wordpools/wasnorm_wordpool.txt	LTP138	ltpFR	3	9	1	SUPPER	1411	n/a	n/a	0	0.422607421875	0.5869140625	0	lower	zerothre.ttf
1385722	WORD	wordpools/wasnorm_wordpool.txt	LTP138	ltpFR	3	9	0	BOY	161	n/a	n/a	1	0.57763671875	0.412841796875	1	upper	amplitud.ttf
1389592	WORD	wordpools/wasnorm_wordpool.txt	LTP138	ltpFR	3	9	0	GIRL	637	n/a	n/a	1	0.57763671875	0.412841796875	1	upper	amplitud.ttf
1393671	WORD	wordpools/wasnorm_wordpool.txt	LTP138	ltpFR	3	9	0	GUARDIAN	668	n/a	n/a	1	0.57763671875	0.412841796875	1	upper	amplitud.ttf
1397583	WORD	wordpools/wasnorm_wordpool.txt	LTP138	ltpFR	3	9	0	TUB	1514	n/a	n/a	1	0.57763671875	0.412841796875	1	upper	amplitud.ttf
1401720	WORD	wordpools/wasnorm_wordpool.txt	LTP138	ltpFR	3	9	0	SALOON	1228	n/a	n/a	1	0.57763671875	0.412841796875	1	upper	amplitud.ttf
1405824	WORD	wordpools/wasnorm_wordpool.txt	LTP138	ltpFR	3	9	0	CHEST	295	n/a	n/a	1	0.57763671875	0.412841796875	1	upper	amplitud.ttf
1410010	WORD	wordpools/wasnorm_wordpool.txt	LTP138	ltpFR	3	9	1	BOWL	158	n/a	n/a	0	0.422607421875	0.5869140625	0	lower	zerothre.ttf
1414181	WORD	wordpools/wasnorm_wordpool.txt	LTP138	ltpFR	3	9	1	FILM	565	n/a	n/a	0	0.422607421875	0.5869140625	0	lower	zerothre.ttf
1418109	WORD	wordpools/wasnorm_wordpool.txt	LTP138	ltpFR	3	9	1	SEAFOOD	1260	n/a	n/a	1	0.422607421875	0.5869140625	0	lower	zerothre.ttf
1421947	WORD	wordpools/wasnorm_wordpool.txt	LTP138	ltpFR	3	9	0	CORAL	378	n/a	n/a	0	0.57763671875	0.412841796875	1	upper	amplitud.ttf
1425825	WORD	wordpools/wasnorm_wordpool.txt	LTP138	ltpFR	3	9	0	DIGGER	464	n/a	n/a	1	0.57763671875	0.412841796875	1	upper	amplitud.ttf
1429904	WORD	wordpools/wasnorm_wordpool.txt	LTP138	ltpFR	3	9	1	DIRT	472	n/a	n/a	0	0.422607421875	0.5869140625	0	lower	zerothre.ttf
1433783	WORD	wordpools/wasnorm_wordpool.txt	LTP138	ltpFR	3	9	1	BACKBONE	66	n/a	n/a	1	0.422607421875	0.5869140625	0	lower	zerothre.ttf
1439685	REC_START	n/a	LTP138	ltpFR	3	9	n/a	n/a	n/a	n/a	n/a	n/a	n/a	n/a	n/a	n/a	n/a
1440413	REC_WORD	wordpools/wasnorm_wordpool.txt	LTP138	ltpFR	3	9	0	DIGGER	464	n/a	n/a	1	n/a	n/a	n/a	n/a	n/a
1441555	REC_WORD	wordpools/wasnorm_wordpool.txt	LTP138	ltpFR	3	9	1	DIRT	472	n/a	n/a	0	n/a	n/a	n/a	n/a	n/a
1442513	REC_WORD	wordpools/wasnorm_wordpool.txt	LTP138	ltpFR	3	9	1	BACKBONE	66	n/a	n/a	1	n/a	n/a	n/a	n/a	n/a
1444100	REC_WORD	wordpools/wasnorm_wordpool.txt	LTP138	ltpFR	3	9	1	BARRACUDA	90	n/a	n/a	1	n/a	n/a	n/a	n/a	n/a
1445691	REC_WORD	wordpools/wasnorm_wordpool.txt	LTP138	ltpFR	3	9	1	BAY	102	n/a	n/a	0	n/a	n/a	n/a	n/a	n/a
1448590	REC_WORD	wordpools/wasnorm_wordpool.txt	LTP138	ltpFR	3	9	0	TUB	1514	n/a	n/a	1	n/a	n/a	n/a	n/a	n/a
1449777	REC_WORD	wordpools/wasnorm_wordpool.txt	LTP138	ltpFR	3	9	0	BOY	161	n/a	n/a	1	n/a	n/a	n/a	n/a	n/a
1450695	REC_WORD	wordpools/wasnorm_wordpool.txt	LTP138	ltpFR	3	9	0	GIRL	637	n/a	n/a	1	n/a	n/a	n/a	n/a	n/a
1452097	REC_WORD	wordpools/wasnorm_wordpool.txt	LTP138	ltpFR	3	9	0	GUARDIAN	668	n/a	n/a	1	n/a	n/a	n/a	n/a	n/a
1457084	REC_WORD	wordpools/wasnorm_wordpool.txt	LTP138	ltpFR	3	9	1	SEAFOOD	1260	n/a	n/a	1	n/a	n/a	n/a	n/a	n/a
1471966	REC_WORD	wordpools/wasnorm_wordpool.txt	LTP138	ltpFR	3	9	1	FILM	565	n/a	n/a	0	n/a	n/a	n/a	n/a	n/a
1484098	REC_WORD	wordpools/wasnorm_wordpool.txt	LTP138	ltpFR	3	9	1	SUPPER	1411	n/a	n/a	0	n/a	n/a	n/a	n/a	n/a
1530945	WORD	wordpools/wasnorm_wordpool.txt	LTP138	ltpFR	3	10	1	ACTOR	5	n/a	n/a	1	0.422607421875	0.5869140625	0	lower	zerothre.ttf
1534991	WORD	wordpools/wasnorm_wordpool.txt	LTP138	ltpFR	3	10	1	ACTRESS	6	n/a	n/a	1	0.422607421875	0.5869140625	0	lower	zerothre.ttf
1539061	WORD	wordpools/wasnorm_wordpool.txt	LTP138	ltpFR	3	10	1	BUTTER	205	n/a	n/a	0	0.422607421875	0.5869140625	0	lower	zerothre.ttf
1542998	WORD	wordpools/wasnorm_wordpool.txt	LTP138	ltpFR	3	10	1	BEAST	108	n/a	n/a	1	0.422607421875	0.5869140625	0	lower	zerothre.ttf
1547160	WORD	wordpools/wasnorm_wordpool.txt	LTP138	ltpFR	3	10	1	DOLL	481	n/a	n/a	0	0.422607421875	0.5869140625	0	lower	zerothre.ttf
1551172	WORD	wordpools/wasnorm_wordpool.txt	LTP138	ltpFR	3	10	1	COTTAGE	384	n/a	n/a	0	0.422607421875	0.5869140625	0	lower	zerothre.ttf
1555300	WORD	wordpools/wasnorm_wordpool.txt	LTP138	ltpFR	3	10	1	QUILL	1150	n/a	n/a	0	0.422607421875	0.5869140625	0	lower	zerothre.ttf
1559271	WORD	wordpools/wasnorm_wordpool.txt	LTP138	ltpFR	3	10	1	JOURNAL	760	n/a	n/a	0	0.422607421875	0.5869140625	0	lower	zerothre.ttf
1563408	WORD	wordpools/wasnorm_wordpool.txt	LTP138	ltpFR	3	10	1	MIRROR	899	n/a	n/a	0	0.422607421875	0.5869140625	0	lower	zerothre.ttf
1567461	WORD	wordpools/wasnorm_wordpool.txt	LTP138	ltpFR	3	10	1	PIT	1077	n/a	n/a	0	0.422607421875	0.5869140625	0	lower	zerothre.ttf
1571507	WORD	wordpools/wasnorm_wordpool.txt	LTP138	ltpFR	3	10	1	DOG	480	n/a	n/a	1	0.422607421875	0.5869140625	0	lower	zerothre.ttf
1575334	WORD	wordpools/wasnorm_wordpool.txt	LTP138	ltpFR	3	10	1	FROG	608	n/a	n/a	1	0.422607421875	0.5869140625	0	lower	zerothre.ttf
1579322	WORD	wordpools/wasnorm_wordpool.txt	LTP138	ltpFR	3	10	1	BEAD	103	n/a	n/a	0	0.422607421875	0.5869140625	0	lower	zerothre.ttf
1583235	WORD	wordpools/wasnorm_wordpool.txt	LTP138	ltpFR	3	10	1	PEANUT	1032	n/a	n/a	0	0.422607421875	0.5869140625	0	lower	zerothre.ttf
1587313	WORD	wordpools/wasnorm_wordpool.txt	LTP138	ltpFR	3	10	1	HOSPITAL	721	n/a	n/a	0	0.422607421875	0.5869140625	0	lower	zerothre.ttf
1591300	WORD	wordpools/wasnorm_wordpool.txt	LTP138	ltpFR	3	10	1	MINER	896	n/a	n/a	1	0.422607421875	0.5869140625	0	lower	zerothre.ttf
1597086	REC_START	n/a	LTP138	ltpFR	3	10	n/a	n/a	n/a	n/a	n/a	n/a	n/a	n/a	n/a	n/a	n/a
1597779	REC_WORD	wordpools/wasnorm_wordpool.txt	LTP138	ltpFR	3	10	1	MINER	896	n/a	n/a	1	n/a	n/a	n/a	n/a	n/a
1599430	REC_WORD	wordpools/wasnorm_wordpool.txt	LTP138	ltpFR	3	10	1	ACTOR	5	n/a	n/a	1	n/a	n/a	n/a	n/a	n/a
1600608	REC_WORD	wordpools/wasnorm_wordpool.txt	LTP138	ltpFR	3	10	1	ACTRESS	6	n/a	n/a	1	n/a	n/a	n/a	n/a	n/a
1601930	REC_WORD	wordpools/wasnorm_wordpool.txt	LTP138	ltpFR	3	10	1	MIRROR	899	n/a	n/a	0	n/a	n/a	n/a	n/a	n/a
1603281	REC_WORD	wordpools/wasnorm_wordpool.txt	LTP138	ltpFR	3	10	1	QUILL	1150	n/a	n/a	0	n/a	n/a	n/a	n/a	n/a
1604998	REC_WORD	wordpools/wasnorm_wordpool.txt	LTP138	ltpFR	3	10	1	JOURNAL	760	n/a	n/a	0	n/a	n/a	n/a	n/a	n/a
1613284	REC_WORD	wordpools/wasnorm_wordpool.txt	LTP138	ltpFR	3	10	1	PEANUT	1032	n/a	n/a	0	n/a	n/a	n/a	n/a	n/a
1619630	REC_WORD	wordpools/wasnorm_wordpool.txt	LTP138	ltpFR	3	10	1	DOG	480	n/a	n/a	1	n/a	n/a	n/a	n/a	n/a
1620537	REC_WORD	wordpools/wasnorm_wordpool.txt	LTP138	ltpFR	3	10	1	FROG	608	n/a	n/a	1	n/a	n/a	n/a	n/a	n/a
1642473	REC_WORD	wordpools/wasnorm_wordpool.txt	LTP138	ltpFR	3	10	1	MINER	896	n/a	n/a	1	n/a	n/a	n/a	n/a	n/a
1688571	WORD	wordpools/wasnorm_wordpool.txt	LTP138	ltpFR	3	11	-1	NAIL	936	n/a	n/a	-1	1.0	1.0	1	upper	Verdana.ttf
1692391	WORD	wordpools/wasnorm_wordpool.txt	LTP138	ltpFR	3	11	-1	PRODUCER	1129	n/a	n/a	-1	1.0	1.0	1	upper	Verdana.ttf
1696587	WORD	wordpools/wasnorm_wordpool.txt	LTP138	ltpFR	3	11	-1	SUNRISE	1407	n/a	n/a	-1	1.0	1.0	1	upper	Verdana.ttf
1700640	WORD	wordpools/wasnorm_wordpool.txt	LTP138	ltpFR	3	11	-1	DIAPER	459	n/a	n/a	-1	1.0	1.0	1	upper	Verdana.ttf
1704536	WORD	wordpools/wasnorm_wordpool.txt	LTP138	ltpFR	3	11	-1	NECK	939	n/a	n/a	-1	1.0	1.0	1	upper	Verdana.ttf
1708706	WORD	wordpools/wasnorm_wordpool.txt	LTP138	ltpFR	3	11	-1	TIE	1466	n/a	n/a	-1	1.0	1.0	1	upper	Verdana.ttf
1712576	WORD	wordpools/wasnorm_wordpool.txt	LTP138	ltpFR	3	11	-1	DINOSAUR	469	n/a	n/a	-1	1.0	1.0	1	upper	Verdana.ttf
1716738	WORD	wordpools/wasnorm_wordpool.txt	LTP138	ltpFR	3	11	-1	INFANT	737	n/a	n/a	-1	1.0	1.0	1	upper	Verdana.ttf
1720942	WORD	wordpools/wasnorm_wordpool.txt	LTP138	ltpFR	3	11	-1	BABY	64	n/a	n/a	-1	1.0	1.0	1	upper	Verdana.ttf
1724895	WORD	wordpools/wasnorm_wordpool.txt	LTP138	ltpFR	3	11	-1	SPOON	1357	n/a	n/a	-1	1.0	1.0	1	upper	Verdana.ttf
1728957	WORD	wordpools/wasnorm_wordpool.txt	LTP138	ltpFR	3	11	-1	FEAST	556	n/a	n/a	-1	1.0	1.0	1	upper	Verdana.ttf
1733094	WORD	wordpools/wasnorm_wordpool.txt	LTP138	ltpFR	3	11	-1	BASSINET	97	n/a	n/a	-1	1.0	1.0	1	upper	Verdana.ttf
1737006	WORD	wordpools/wasnorm_wordpool.txt	LTP138	ltpFR	3	11	-1	ZIPPER	1636	n/a	n/a	-1	1.0	1.0	1	upper	Verdana.ttf
1741185	WORD	wordpools/wasnorm_wordpool.txt	LTP138	ltpFR	3	11	-1	ZOO	1637	n/a	n/a	-1	1.0	1.0	1	upper	Verdana.ttf
1745362	WORD	wordpools/wasnorm_wordpool.txt	LTP138	ltpFR	3	11	-1	RULER	1216	n/a	n/a	-1	1.0	1.0	1	upper	Verdana.ttf
1749317	WORD	wordpools/wasnorm_wordpool.txt	LTP138	ltpFR	3	11	-1	POCKET	1093	n/a	n/a	-1	1.0	1.0	1	upper	Verdana.ttf
1755227	REC_START	n/a	LTP138	ltpFR	3	11	n/a	n/a	n/a	n/a	n/a	n/a	n/a	n/a	n/a	n/a	n/a
1756029	REC_WORD	wordpools/wasnorm_wordpool.txt	LTP138	ltpFR	3	11	-1	ZIPPER	1636	n/a	n/a	-1	n/a	n/a	n/a	n/a	n/a
1757112	REC_WORD	wordpools/wasnorm_wordpool.txt	LTP138	ltpFR	3	11	-1	ZOO	1637	n/a	n/a	-1	n/a	n/a	n/a	n/a	n/a
1758220	REC_WORD	wordpools/wasnorm_wordpool.txt	LTP138	ltpFR	3	11	-1	POCKET	1093	n/a	n/a	-1	n/a	n/a	n/a	n/a	n/a
1759831	REC_WORD	wordpools/wasnorm_wordpool.txt	LTP138	ltpFR	3	11	-1	PRODUCER	1129	n/a	n/a	-1	n/a	n/a	n/a	n/a	n/a
1760978	REC_WORD	wordpools/wasnorm_wordpool.txt	LTP138	ltpFR	3	11	n/a	SUNSET	1408	n/a	n/a	n/a	n/a	n/a	n/a	n/a	n/a
1762485	REC_WORD	wordpools/wasnorm_wordpool.txt	LTP138	ltpFR	3	11	-1	DINOSAUR	469	n/a	n/a	-1	n/a	n/a	n/a	n/a	n/a
1764027	REC_WORD	wordpools/wasnorm_wordpool.txt	LTP138	ltpFR	3	11	-1	NECK	939	n/a	n/a	-1	n/a	n/a	n/a	n/a	n/a
1765039	REC_WORD	wordpools/wasnorm_wordpool.txt	LTP138	ltpFR	3	11	-1	TIE	1466	n/a	n/a	-1	n/a	n/a	n/a	n/a	n/a
1766870	REC_WORD	wordpools/wasnorm_wordpool.txt	LTP138	ltpFR	3	11	-1	INFANT	737	n/a	n/a	-1	n/a	n/a	n/a	n/a	n/a
1768103	REC_WORD	wordpools/wasnorm_wordpool.txt	LTP138	ltpFR	3	11	-1	BABY	64	n/a	n/a	-1	n/a	n/a	n/a	n/a	n/a
1769210	REC_WORD	wordpools/wasnorm_wordpool.txt	LTP138	ltpFR	3	11	-1	BASSINET	97	n/a	n/a	-1	n/a	n/a	n/a	n/a	n/a
1771220	REC_WORD	wordpools/wasnorm_wordpool.txt	LTP138	ltpFR	3	11	-1	DIAPER	459	n/a	n/a	-1	n/a	n/a	n/a	n/a	n/a
1773710	REC_WORD	wordpools/wasnorm_wordpool.txt	LTP138	ltpFR	3	11	-1	NAIL	936	n/a	n/a	-1	n/a	n/a	n/a	n/a	n/a
1782030	REC_WORD	wordpools/wasnorm_wordpool.txt	LTP138	ltpFR	3	11	-1	ZIPPER	1636	n/a	n/a	-1	n/a	n/a	n/a	n/a	n/a
1793410	REC_WORD	wordpools/wasnorm_wordpool.txt	LTP138	ltpFR	3	11	-1	ZOO	1637	n/a	n/a	-1	n/a	n/a	n/a	n/a	n/a
1846163	WORD	wordpools/wasnorm_wordpool.txt	LTP138	ltpFR	3	12	1	TYPEWRITER	1531	n/a	n/a	0	0.422607421875	0.5869140625	0	lower	zerothre.ttf
1850059	WORD	wordpools/wasnorm_wordpool.txt	LTP138	ltpFR	3	12	1	STICKER	1382	n/a	n/a	0	0.422607421875	0.5869140625	0	lower	zerothre.ttf
1854187	WORD	wordpools/wasnorm_wordpool.txt	LTP138	ltpFR	3	12	1	VICTIM	1562	n/a	n/a	1	0.422607421875	0.5869140625	0	lower	zerothre.ttf
1858241	WORD	wordpools/wasnorm_wordpool.txt	LTP138	ltpFR	3	12	1	EGYPT	519	n/a	n/a	0	0.422607421875	0.5869140625	0	lower	zerothre.ttf
1862095	WORD	wordpools/wasnorm_wordpool.txt	LTP138	ltpFR	3	12	1	DIPLOMA	470	n/a	n/a	0	0.422607421875	0.5869140625	0	lower	zerothre.ttf
1865907	WORD	wordpools/wasnorm_wordpool.txt	LTP138	ltpFR	3	12	1	CUCUMBER	421	n/a	n/a	1	0.422607421875	0.5869140625	0	lower	zerothre.ttf
1869969	WORD	wordpools/wasnorm_wordpool.txt	LTP138	ltpFR	3	12	1	TOMB	1477	n/a	n/a	0	0.422607421875	0.5869140625	0	lower	zerothre.ttf
1874164	WORD	wordpools/wasnorm_wordpool.txt	LTP138	ltpFR	3	12	1	SIBLING	1301	n/a	n/a	1	0.422607421875	0.5869140625	0	lower	zerothre.ttf
1878168	WORD	wordpools/wasnorm_wordpool.txt	LTP138	ltpFR	3	12	1	PARENT	1013	n/a	n/a	1	0.422607421875	0.5869140625	0	lower	zerothre.ttf
1881997	WORD	wordpools/wasnorm_wordpool.txt	LTP138	ltpFR	3	12	1	FAUCET	555	n/a	n/a	0	0.422607421875	0.5869140625	0	lower	zerothre.ttf
1885901	WORD	wordpools/wasnorm_wordpool.txt	LTP138	ltpFR	3	12	1	RELISH	1183	n/a	n/a	0	0.422607421875	0.5869140625	0	lower	zerothre.ttf
1889754	WORD	wordpools/wasnorm_wordpool.txt	LTP138	ltpFR	3	12	1	JAW	751	n/a	n/a	1	0.422607421875	0.5869140625	0	lower	zerothre.ttf
1893650	WORD	wordpools/wasnorm_wordpool.txt	LTP138	ltpFR	3	12	1	WALRUS	1585	n/a	n/a	1	0.422607421875	0.5869140625	0	lower	zerothre.ttf
1897703	WORD	wordpools/wasnorm_wordpool.txt	LTP138	ltpFR	3	12	1	KITCHEN	778	n/a	n/a	0	0.422607421875	0.5869140625	0	lower	zerothre.ttf
1901749	WORD	wordpools/wasnorm_wordpool.txt	LTP138	ltpFR	3	12	1	COOK	372	n/a	n/a	1	0.422607421875	0.5869140625	0	lower	zerothre.ttf
1905786	WORD	wordpools/wasnorm_wordpool.txt	LTP138	ltpFR	3	12	1	CREAM	402	n/a	n/a	0	0.422607421875	0.5869140625	0	lower	zerothre.ttf
1911463	REC_START	n/a	LTP138	ltpFR	3	12	n/a	n/a	n/a	n/a	n/a	n/a	n/a	n/a	n/a	n/a	n/a
1912336	REC_WORD	wordpools/wasnorm_wordpool.txt	LTP138	ltpFR	3	12	1	CREAM	402	n/a	n/a	0	n/a	n/a	n/a	n/a	n/a
1913662	REC_WORD	wordpools/wasnorm_wordpool.txt	LTP138	ltpFR	3	12	1	EGYPT	519	n/a	n/a	0	n/a	n/a	n/a	n/a	n/a
1915124	REC_WORD	wordpools/wasnorm_wordpool.txt	LTP138	ltpFR	3	12	1	TOMB	1477	n/a	n/a	0	n/a	n/a	n/a	n/a	n/a
1916605	REC_WORD	wordpools/wasnorm_wordpool.txt	LTP138	ltpFR	3	12	1	SIBLING	1301	n/a	n/a	1	n/a	n/a	n/a	n/a	n/a
1918502	REC_WORD	wordpools/wasnorm_wordpool.txt	LTP138	ltpFR	3	12	1	PARENT	1013	n/a	n/a	1	n/a	n/a	n/a	n/a	n/a
1920313	REC_WORD	wordpools/wasnorm_wordpool.txt	LTP138	ltpFR	3	12	1	VICTIM	1562	n/a	n/a	1	n/a	n/a	n/a	n/a	n/a
1938441	REC_WORD	wordpools/wasnorm_wordpool.txt	LTP138	ltpFR	3	12	1	WALRUS	1585	n/a	n/a	1	n/a	n/a	n/a	n/a	n/a
1940945	REC_WORD	wordpools/wasnorm_wordpool.txt	LTP138	ltpFR	3	12	1	KITCHEN	778	n/a	n/a	0	n/a	n/a	n/a	n/a	n/a
1945914	REC_WORD	wordpools/wasnorm_wordpool.txt	LTP138	ltpFR	3	12	1	COOK	372	n/a	n/a	1	n/a	n/a	n/a	n/a	n/a
1957817	REC_WORD	wordpools/wasnorm_wordpool.txt	LTP138	ltpFR	3	12	1	FAUCET	555	n/a	n/a	0	n/a	n/a	n/a	n/a	n/a
1971975	REC_WORD	wordpools/wasnorm_wordpool.txt	LTP138	ltpFR	3	12	1	JAW	751	n/a	n/a	1	n/a	n/a	n/a	n/a	n/a
1987042	REST_REWET	n/a	LTP138	ltpFR	3	12	n/a	n/a	n/a	n/a	n/a	n/a	n/a	n/a	n/a	n/a	n/a
2322411	WORD	wordpools/wasnorm_wordpool.txt	LTP138	ltpFR	3	13	0	LETTUCE	814	n/a	n/a	1	0.57763671875	0.412841796875	1	upper	amplitud.ttf
2326432	WORD	wordpools/wasnorm_wordpool.txt	LTP138	ltpFR	3	13	0	PISTOL	1075	n/a	n/a	0	0.57763671875	0.412841796875	1	upper	amplitud.ttf
2330485	WORD	wordpools/wasnorm_wordpool.txt	LTP138	ltpFR	3	13	1	COMPANION	357	n/a	n/a	1	0.422607421875	0.5869140625	0	lower	zerothre.ttf
2334338	WORD	wordpools/wasnorm_wordpool.txt	LTP138	ltpFR	3	13	1	SLIME	1327	n/a	n/a	0	0.422607421875	0.5869140625	0	lower	zerothre.ttf
2338501	WORD	wordpools/wasnorm_wordpool.txt	LTP138	ltpFR	3	13	0	SQUID	1361	n/a	n/a	1	0.57763671875	0.412841796875	1	upper	amplitud.ttf
2342396	WORD	wordpools/wasnorm_wordpool.txt	LTP138	ltpFR	3	13	0	ELBOW	520	n/a	n/a	1	0.57763671875	0.412841796875	1	upper	amplitud.ttf
2346417	WORD	wordpools/wasnorm_wordpool.txt	LTP138	ltpFR	3	13	0	ARM	38	n/a	n/a	1	0.57763671875	0.412841796875	1	upper	amplitud.ttf
2350587	WORD	wordpools/wasnorm_wordpool.txt	LTP138	ltpFR	3	13	0	ENEMY	534	n/a	n/a	1	0.57763671875	0.412841796875	1	upper	amplitud.ttf
2354474	WORD	wordpools/wasnorm_wordpool.txt	LTP138	ltpFR	3	13	1	SHORTCAKE	1292	n/a	n/a	0	0.422607421875	0.5869140625	0	lower	zerothre.ttf
2358628	WORD	wordpools/wasnorm_wordpool.txt	LTP138	ltpFR	3	13	1	FLESH	579	n/a	n/a	1	0.422607421875	0.5869140625	0	lower	zerothre.ttf
2362465	WORD	wordpools/wasnorm_wordpool.txt	LTP138	ltpFR	3	13	1	SIGN	1305	n/a	n/a	0	0.422607421875	0.5869140625	0	lower	zerothre.ttf
2366610	WORD	wordpools/wasnorm_wordpool.txt	LTP138	ltpFR	3	13	1	FORT	595	n/a	n/a	1	0.422607421875	0.5869140625	0	lower	zerothre.ttf
2370739	WORD	wordpools/wasnorm_wordpool.txt	LTP138	ltpFR	3	13	1	PRISON	1127	n/a	n/a	1	0.422607421875	0.5869140625	0	lower	zerothre.ttf
2374726	WORD	wordpools/wasnorm_wordpool.txt	LTP138	ltpFR	3	13	1	OUTLAW	989	n/a	n/a	1	0.422607421875	0.5869140625	0	lower	zerothre.ttf
2378854	WORD	wordpools/wasnorm_wordpool.txt	LTP138	ltpFR	3	13	0	PICNIC	1060	n/a	n/a	1	0.57763671875	0.412841796875	1	upper	amplitud.ttf
2382766	WORD	wordpools/wasnorm_wordpool.txt	LTP138	ltpFR	3	13	0	INSECT	740	n/a	n/a	0	0.57763671875	0.412841796875	1	upper	amplitud.ttf
2388452	REC_START	n/a	LTP138	ltpFR	3	13	n/a	n/a	n/a	n/a	n/a	n/a	n/a	n/a	n/a	n/a	n/a
2389090	REC_WORD	wordpools/wasnorm_wordpool.txt	LTP138	ltpFR	3	13	0	INSECT	740	n/a	n/a	0	n/a	n/a	n/a	n/a	n/a
2390153	REC_WORD	wordpools/wasnorm_wordpool.txt	LTP138	ltpFR	3	13	0	PICNIC	1060	n/a	n/a	1	n/a	n/a	n/a	n/a	n/a
2391115	REC_WORD	wordpools/wasnorm_wordpool.txt	LTP138	ltpFR	3	13	n/a	SKIN	1318	n/a	n/a	n/a	n/a	n/a	n/a	n/a	n/a
2392373	REC_WORD	wordpools/wasnorm_wordpool.txt	LTP138	ltpFR	3	13	0	ELBOW	520	n/a	n/a	1	n/a	n/a	n/a	n/a	n/a
2393740	REC_WORD	wordpools/wasnorm_wordpool.txt	LTP138	ltpFR	3	13	0	ARM	38	n/a	n/a	1	n/a	n/a	n/a	n/a	n/a
2395206	REC_WORD	wordpools/wasnorm_wordpool.txt	LTP138	ltpFR	3	13	1	SLIME	1327	n/a	n/a	0	n/a	n/a	n/a	n/a	n/a
2397601	REC_WORD	wordpools/wasnorm_wordpool.txt	LTP138	ltpFR	3	13	0	PISTOL	1075	n/a	n/a	0	n/a	n/a	n/a	n/a	n/a
2399138	REC_WORD	wordpools/wasnorm_wordpool.txt	LTP138	ltpFR	3	13	0	ENEMY	534	n/a	n/a	1	n/a	n/a	n/a	n/a	n/a
2400539	REC_WORD	wordpools/wasnorm_wordpool.txt	LTP138	ltpFR	3	13	1	FORT	595	n/a	n/a	1	n/a	n/a	n/a	n/a	n/a
2411210	REC_WORD	wordpools/wasnorm_wordpool.txt	LTP138	ltpFR	3	13	1	PRISON	1127	n/a	n/a	1	n/a	n/a	n/a	n/a	n/a
2416887	REC_WORD	wordpools/wasnorm_wordpool.txt	LTP138	ltpFR	3	13	1	OUTLAW	989	n/a	n/a	1	n/a	n/a	n/a	n/a	n/a
2418658	REC_WORD	wordpools/wasnorm_wordpool.txt	LTP138	ltpFR	3	13	1	SHORTCAKE	1292	n/a	n/a	0	n/a	n/a	n/a	n/a	n/a
2429942	REC_WORD	wordpools/wasnorm_wordpool.txt	LTP138	ltpFR	3	13	0	LETTUCE	814	n/a	n/a	1	n/a	n/a	n/a	n/a	n/a
2449318	REC_WORD	wordpools/wasnorm_wordpool.txt	LTP138	ltpFR	3	13	0	FUGITIVE	612	n/a	n/a	1	n/a	n/a	n/a	n/a	n/a
2475975	WORD	wordpools/wasnorm_wordpool.txt	LTP138	ltpFR	3	14	-1	PRISONER	1128	n/a	n/a	-1	1.0	1.0	1	upper	Verdana.ttf
2479870	WORD	wordpools/wasnorm_wordpool.txt	LTP138	ltpFR	3	14	-1	BLOUSE	139	n/a	n/a	-1	1.0	1.0	1	upper	Verdana.ttf
2483966	WORD	wordpools/wasnorm_wordpool.txt	LTP138	ltpFR	3	14	-1	CHESS	294	n/a	n/a	-1	1.0	1.0	1	upper	Verdana.ttf
2487886	WORD	wordpools/wasnorm_wordpool.txt	LTP138	ltpFR	3	14	-1	DART	440	n/a	n/a	-1	1.0	1.0	1	upper	Verdana.ttf
2491698	WORD	wordpools/wasnorm_wordpool.txt	LTP138	ltpFR	3	14	-1	TART	1436	n/a	n/a	-1	1.0	1.0	1	upper	Verdana.ttf
2495810	WORD	wordpools/wasnorm_wordpool.txt	LTP138	ltpFR	3	14	-1	CASTLE	256	n/a	n/a	-1	1.0	1.0	1	upper	Verdana.ttf
2499756	WORD	wordpools/wasnorm_wordpool.txt	LTP138	ltpFR	3	14	-1	DRAWER	493	n/a	n/a	-1	1.0	1.0	1	upper	Verdana.ttf
2503768	WORD	wordpools/wasnorm_wordpool.txt	LTP138	ltpFR	3	14	-1	ENCYCLOPEDIA	533	n/a	n/a	-1	1.0	1.0	1	upper	Verdana.ttf
2507846	WORD	wordpools/wasnorm_wordpool.txt	LTP138	ltpFR	3	14	-1	SUPERMARKET	1409	n/a	n/a	-1	1.0	1.0	1	upper	Verdana.ttf
2511717	WORD	wordpools/wasnorm_wordpool.txt	LTP138	ltpFR	3	14	-1	HAMBURGER	679	n/a	n/a	-1	1.0	1.0	1	upper	Verdana.ttf
2515829	WORD	wordpools/wasnorm_wordpool.txt	LTP138	ltpFR	3	14	-1	VEHICLE	1553	n/a	n/a	-1	1.0	1.0	1	upper	Verdana.ttf
2519957	WORD	wordpools/wasnorm_wordpool.txt	LTP138	ltpFR	3	14	-1	CAR	241	n/a	n/a	-1	1.0	1.0	1	upper	Verdana.ttf
2523886	WORD	wordpools/wasnorm_wordpool.txt	LTP138	ltpFR	3	14	-1	GROCERIES	663	n/a	n/a	-1	1.0	1.0	1	upper	Verdana.ttf
2527782	WORD	wordpools/wasnorm_wordpool.txt	LTP138	ltpFR	3	14	-1	SKIRT	1319	n/a	n/a	-1	1.0	1.0	1	upper	Verdana.ttf
2531602	WORD	wordpools/wasnorm_wordpool.txt	LTP138	ltpFR	3	14	-1	PUBLICATION	1136	n/a	n/a	-1	1.0	1.0	1	upper	Verdana.ttf
2535464	WORD	wordpools/wasnorm_wordpool.txt	LTP138	ltpFR	3	14	-1	SUITCASE	1403	n/a	n/a	-1	1.0	1.0	1	upper	Verdana.ttf
2541050	REC_START	n/a	LTP138	ltpFR	3	14	n/a	n/a	n/a	n/a	n/a	n/a	n/a	n/a	n/a	n/a	n/a
2541858	REC_WORD	wordpools/wasnorm_wordpool.txt	LTP138	ltpFR	3	14	-1	PUBLICATION	1136	n/a	n/a	-1	n/a	n/a	n/a	n/a	n/a
2543353	REC_WORD	wordpools/wasnorm_wordpool.txt	LTP138	ltpFR	3	14	-1	SUITCASE	1403	n/a	n/a	-1	n/a	n/a	n/a	n/a	n/a
2545350	REC_WORD	wordpools/wasnorm_wordpool.txt	LTP138	ltpFR	3	14	-1	BLOUSE	139	n/a	n/a	-1	n/a	n/a	n/a	n/a	n/a
2546856	REC_WORD	wordpools/wasnorm_wordpool.txt	LTP138	ltpFR	3	14	-1	SKIRT	1319	n/a	n/a	-1	n/a	n/a	n/a	n/a	n/a
2548422	REC_WORD	wordpools/wasnorm_wordpool.txt	LTP138	ltpFR	3	14	-1	SUPERMARKET	1409	n/a	n/a	-1	n/a	n/a	n/a	n/a	n/a
2551391	REC_WORD	wordpools/wasnorm_wordpool.txt	LTP138	ltpFR	3	14	-1	GROCERIES	663	n/a	n/a	-1	n/a	n/a	n/a	n/a	n/a
2552738	REC_WORD	wordpools/wasnorm_wordpool.txt	LTP138	ltpFR	3	14	-1	HAMBURGER	679	n/a	n/a	-1	n/a	n/a	n/a	n/a	n/a
2554313	REC_WORD	wordpools/wasnorm_wordpool.txt	LTP138	ltpFR	3	14	-1	ENCYCLOPEDIA	533	n/a	n/a	-1	n/a	n/a	n/a	n/a	n/a
2556525	REC_WORD	wordpools/wasnorm_wordpool.txt	LTP138	ltpFR	3	14	-1	CAR	241	n/a	n/a	-1	n/a	n/a	n/a	n/a	n/a
2558475	REC_WORD	wordpools/wasnorm_wordpool.txt	LTP138	ltpFR	3	14	-1	PRISONER	1128	n/a	n/a	-1	n/a	n/a	n/a	n/a	n/a
2560121	REC_WORD	wordpools/wasnorm_wordpool.txt	LTP138	ltpFR	3	14	-1	DART	440	n/a	n/a	-1	n/a	n/a	n/a	n/a	n/a
2568438	REC_WORD	wordpools/wasnorm_wordpool.txt	LTP138	ltpFR	3	14	0	CART	250	n/a	n/a	1	n/a	n/a	n/a	n/a	n/a
2580615	REC_WORD	wordpools/wasnorm_wordpool.txt	LTP138	ltpFR	3	14	-1	CASTLE	256	n/a	n/a	-1	n/a	n/a	n/a	n/a	n/a
2634400	WORD	wordpools/wasnorm_wordpool.txt	LTP138	ltpFR	3	15	1	WATERFALL	1595	n/a	n/a	0	0.422607421875	0.5869140625	0	lower	zerothre.ttf
2638495	WORD	wordpools/wasnorm_wordpool.txt	LTP138	ltpFR	3	15	1	CLOUD	328	n/a	n/a	0	0.422607421875	0.5869140625	0	lower	zerothre.ttf
2642457	WORD	wordpools/wasnorm_wordpool.txt	LTP138	ltpFR	3	15	1	DRINK	498	n/a	n/a	0	0.422607421875	0.5869140625	0	lower	zerothre.ttf
2646411	WORD	wordpools/wasnorm_wordpool.txt	LTP138	ltpFR	3	15	1	SWING	1421	n/a	n/a	0	0.422607421875	0.5869140625	0	lower	zerothre.ttf
2650464	WORD	wordpools/wasnorm_wordpool.txt	LTP138	ltpFR	3	15	1	RIDER	1191	n/a	n/a	1	0.422607421875	0.5869140625	0	lower	zerothre.ttf
2654334	WORD	wordpools/wasnorm_wordpool.txt	LTP138	ltpFR	3	15	1	HINGE	709	n/a	n/a	0	0.422607421875	0.5869140625	0	lower	zerothre.ttf
2658239	WORD	wordpools/wasnorm_wordpool.txt	LTP138	ltpFR	3	15	1	BRUISE	180	n/a	n/a	0	0.422607421875	0.5869140625	0	lower	zerothre.ttf
2662301	WORD	wordpools/wasnorm_wordpool.txt	LTP138	ltpFR	3	15	1	WOUND	1624	n/a	n/a	0	0.422607421875	0.5869140625	0	lower	zerothre.ttf
2666113	WORD	wordpools/wasnorm_wordpool.txt	LTP138	ltpFR	3	15	1	HEADBAND	696	n/a	n/a	0	0.422607421875	0.5869140625	0	lower	zerothre.ttf
2670275	WORD	wordpools/wasnorm_wordpool.txt	LTP138	ltpFR	3	15	1	GYM	674	n/a	n/a	0	0.422607421875	0.5869140625	0	lower	zerothre.ttf
2674270	WORD	wordpools/wasnorm_wordpool.txt	LTP138	ltpFR	3	15	1	CONCERT	360	n/a	n/a	0	0.422607421875	0.5869140625	0	lower	zerothre.ttf
2678424	WORD	wordpools/wasnorm_wordpool.txt	LTP138	ltpFR	3	15	1	LOUNGE	845	n/a	n/a	0	0.422607421875	0.5869140625	0	lower	zerothre.ttf
2682351	WORD	wordpools/wasnorm_wordpool.txt	LTP138	ltpFR	3	15	1	WARRIOR	1589	n/a	n/a	1	0.422607421875	0.5869140625	0	lower	zerothre.ttf
2686489	WORD	wordpools/wasnorm_wordpool.txt	LTP138	ltpFR	3	15	1	COLT	349	n/a	n/a	1	0.422607421875	0.5869140625	0	lower	zerothre.ttf
2690410	WORD	wordpools/wasnorm_wordpool.txt	LTP138	ltpFR	3	15	1	BISON	131	n/a	n/a	1	0.422607421875	0.5869140625	0	lower	zerothre.ttf
2694405	WORD	wordpools/wasnorm_wordpool.txt	LTP138	ltpFR	3	15	1	JUDGE	761	n/a	n/a	1	0.422607421875	0.5869140625	0	lower	zerothre.ttf
2700125	REC_START	n/a	LTP138	ltpFR	3	15	n/a	n/a	n/a	n/a	n/a	n/a	n/a	n/a	n/a	n/a	n/a
2700858	REC_WORD	wordpools/wasnorm_wordpool.txt	LTP138	ltpFR	3	15	1	JUDGE	761	n/a	n/a	1	n/a	n/a	n/a	n/a	n/a
2701976	REC_WORD	wordpools/wasnorm_wordpool.txt	LTP138	ltpFR	3	15	1	RIDER	1191	n/a	n/a	1	n/a	n/a	n/a	n/a	n/a
2703158	REC_WORD	wordpools/wasnorm_wordpool.txt	LTP138	ltpFR	3	15	1	COLT	349	n/a	n/a	1	n/a	n/a	n/a	n/a	n/a
2704789	REC_WORD	wordpools/wasnorm_wordpool.txt	LTP138	ltpFR	3	15	1	GYM	674	n/a	n/a	0	n/a	n/a	n/a	n/a	n/a
2706460	REC_WORD	wordpools/wasnorm_wordpool.txt	LTP138	ltpFR	3	15	1	HINGE	709	n/a	n/a	0	n/a	n/a	n/a	n/a	n/a
2708805	REC_WORD	wordpools/wasnorm_wordpool.txt	LTP138	ltpFR	3	15	1	BRUISE	180	n/a	n/a	0	n/a	n/a	n/a	n/a	n/a
2712457	REC_WORD	wordpools/wasnorm_wordpool.txt	LTP138	ltpFR	3	15	1	WOUND	1624	n/a	n/a	0	n/a	n/a	n/a	n/a	n/a
2714821	REC_WORD	wordpools/wasnorm_wordpool.txt	LTP138	ltpFR	3	15	1	WATERFALL	1595	n/a	n/a	0	n/a	n/a	n/a	n/a	n/a
2716278	REC_WORD	wordpools/wasnorm_wordpool.txt	LTP138	ltpFR	3	15	1	CLOUD	328	n/a	n/a	0	n/a	n/a	n/a	n/a	n/a
2718139	REC_WORD	wordpools/wasnorm_wordpool.txt	LTP138	ltpFR	3	15	1	DRINK	498	n/a	n/a	0	n/a	n/a	n/a	n/a	n/a
2720708	REC_WORD	wordpools/wasnorm_wordpool.txt	LTP138	ltpFR	3	15	1	LOUNGE	845	n/a	n/a	0	n/a	n/a	n/a	n/a	n/a
2724918	REC_WORD	wordpools/wasnorm_wordpool.txt	LTP138	ltpFR	3	15	1	SWING	1421	n/a	n/a	0	n/a	n/a	n/a	n/a	n/a
2733404	REC_WORD	wordpools/wasnorm_wordpool.txt	LTP138	ltpFR	3	15	1	WARRIOR	1589	n/a	n/a	1	n/a	n/a	n/a	n/a	n/a
2754825	REC_WORD	wordpools/wasnorm_wordpool.txt	LTP138	ltpFR	3	15	1	BISON	131	n/a	n/a	1	n/a	n/a	n/a	n/a	n/a
2804294	WORD	wordpools/wasnorm_wordpool.txt	LTP138	ltpFR	3	16	-1	DRUM	502	n/a	n/a	-1	1.0	1.0	1	upper	Verdana.ttf
2808448	WORD	wordpools/wasnorm_wordpool.txt	LTP138	ltpFR	3	16	-1	GUITAR	670	n/a	n/a	-1	1.0	1.0	1	upper	Verdana.ttf
2812502	WORD	wordpools/wasnorm_wordpool.txt	LTP138	ltpFR	3	16	-1	EMPLOYEE	531	n/a	n/a	-1	1.0	1.0	1	upper	Verdana.ttf
2816354	WORD	wordpools/wasnorm_wordpool.txt	LTP138	ltpFR	3	16	-1	STORE	1387	n/a	n/a	-1	1.0	1.0	1	upper	Verdana.ttf
2820476	WORD	wordpools/wasnorm_wordpool.txt	LTP138	ltpFR	3	16	-1	SALMON	1227	n/a	n/a	-1	1.0	1.0	1	upper	Verdana.ttf
2824571	WORD	wordpools/wasnorm_wordpool.txt	LTP138	ltpFR	3	16	-1	MECHANIC	884	n/a	n/a	-1	1.0	1.0	1	upper	Verdana.ttf
2828583	WORD	wordpools/wasnorm_wordpool.txt	LTP138	ltpFR	3	16	-1	ANTENNA	28	n/a	n/a	-1	1.0	1.0	1	upper	Verdana.ttf
2832628	WORD	wordpools/wasnorm_wordpool.txt	LTP138	ltpFR	3	16	-1	THORN	1459	n/a	n/a	-1	1.0	1.0	1	upper	Verdana.ttf
2836466	WORD	wordpools/wasnorm_wordpool.txt	LTP138	ltpFR	3	16	-1	PORCUPINE	1107	n/a	n/a	-1	1.0	1.0	1	upper	Verdana.ttf
2840403	WORD	wordpools/wasnorm_wordpool.txt	LTP138	ltpFR	3	16	-1	UNIFORM	1539	n/a	n/a	-1	1.0	1.0	1	upper	Verdana.ttf
2844531	WORD	wordpools/wasnorm_wordpool.txt	LTP138	ltpFR	3	16	-1	WHEEL	1603	n/a	n/a	-1	1.0	1.0	1	upper	Verdana.ttf
2848535	WORD	wordpools/wasnorm_wordpool.txt	LTP138	ltpFR	3	16	-1	CARAVAN	242	n/a	n/a	-1	1.0	1.0	1	upper	Verdana.ttf
2852522	WORD	wordpools/wasnorm_wordpool.txt	LTP138	ltpFR	3	16	-1	CRAB	397	n/a	n/a	-1	1.0	1.0	1	upper	Verdana.ttf
2856501	WORD	wordpools/wasnorm_wordpool.txt	LTP138	ltpFR	3	16	-1	STAPLER	1372	n/a	n/a	-1	1.0	1.0	1	upper	Verdana.ttf
2860538	WORD	wordpools/wasnorm_wordpool.txt	LTP138	ltpFR	3	16	-1	WICK	1607	n/a	n/a	-1	1.0	1.0	1	upper	Verdana.ttf
2864400	WORD	wordpools/wasnorm_wordpool.txt	LTP138	ltpFR	3	16	-1	GLASSES	640	n/a	n/a	-1	1.0	1.0	1	upper	Verdana.ttf
2870334	REC_START	n/a	LTP138	ltpFR	3	16	n/a	n/a	n/a	n/a	n/a	n/a	n/a	n/a	n/a	n/a	n/a
2870832	REC_WORD	wordpools/wasnorm_wordpool.txt	LTP138	ltpFR	3	16	-1	STAPLER	1372	n/a	n/a	-1	n/a	n/a	n/a	n/a	n/a
2872294	REC_WORD	wordpools/wasnorm_wordpool.txt	LTP138	ltpFR	3	16	-1	WICK	1607	n/a	n/a	-1	n/a	n/a	n/a	n/a	n/a
2873317	REC_WORD	wordpools/wasnorm_wordpool.txt	LTP138	ltpFR	3	16	-1	GLASSES	640	n/a	n/a	-1	n/a	n/a	n/a	n/a	n/a
2874799	REC_WORD	wordpools/wasnorm_wordpool.txt	LTP138	ltpFR	3	16	-1	EMPLOYEE	531	n/a	n/a	-1	n/a	n/a	n/a	n/a	n/a
2877682	REC_WORD	wordpools/wasnorm_wordpool.txt	LTP138	ltpFR	3	16	-1	MECHANIC	884	n/a	n/a	-1	n/a	n/a	n/a	n/a	n/a
2880600	REC_WORD	wordpools/wasnorm_wordpool.txt	LTP138	ltpFR	3	16	-1	WHEEL	1603	n/a	n/a	-1	n/a	n/a	n/a	n/a	n/a
2881673	REC_WORD	wordpools/wasnorm_wordpool.txt	LTP138	ltpFR	3	16	-1	CARAVAN	242	n/a	n/a	-1	n/a	n/a	n/a	n/a	n/a
2883828	REC_WORD	wordpools/wasnorm_wordpool.txt	LTP138	ltpFR	3	16	-1	UNIFORM	1539	n/a	n/a	-1	n/a	n/a	n/a	n/a	n/a
2885165	REC_WORD	wordpools/wasnorm_wordpool.txt	LTP138	ltpFR	3	16	-1	ANTENNA	28	n/a	n/a	-1	n/a	n/a	n/a	n/a	n/a
2888677	REC_WORD	wordpools/wasnorm_wordpool.txt	LTP138	ltpFR	3	16	-1	DRUM	502	n/a	n/a	-1	n/a	n/a	n/a	n/a	n/a
2892029	REC_WORD	wordpools/wasnorm_wordpool.txt	LTP138	ltpFR	3	16	-1	GUITAR	670	n/a	n/a	-1	n/a	n/a	n/a	n/a	n/a
2906740	REC_WORD	wordpools/wasnorm_wordpool.txt	LTP138	ltpFR	3	16	-1	STORE	1387	n/a	n/a	-1	n/a	n/a	n/a	n/a	n/a
2909000	REC_WORD	wordpools/wasnorm_wordpool.txt	LTP138	ltpFR	3	16	-1	SALMON	1227	n/a	n/a	-1	n/a	n/a	n/a	n/a	n/a
2971077	REC_START	n/a	LTP138	ltpFR	3	n/a	n/a	n/a	n/a	n/a	n/a	n/a	n/a	n/a	n/a	n/a	n/a
2972323	FFR_REC_WORD	wordpools/wasnorm_wordpool.txt	LTP138	ltpFR	3	n/a	-1	SALMON	1227	n/a	n/a	-1	n/a	n/a	n/a	n/a	n/a
2974887	FFR_REC_WORD	wordpools/wasnorm_wordpool.txt	LTP138	ltpFR	3	n/a	n/a	STREAM	1392	n/a	n/a	n/a	n/a	n/a	n/a	n/a	n/a
2977233	FFR_REC_WORD	wordpools/wasnorm_wordpool.txt	LTP138	ltpFR	3	n/a	0	BROOK	177	n/a	n/a	1	n/a	n/a	n/a	n/a	n/a
2978939	FFR_REC_WORD	wordpools/wasnorm_wordpool.txt	LTP138	ltpFR	3	n/a	0	BLUEBERRY	140	n/a	n/a	0	n/a	n/a	n/a	n/a	n/a
2980286	FFR_REC_WORD	wordpools/wasnorm_wordpool.txt	LTP138	ltpFR	3	n/a	1	PEANUT	1032	n/a	n/a	0	n/a	n/a	n/a	n/a	n/a
2982421	FFR_REC_WORD	wordpools/wasnorm_wordpool.txt	LTP138	ltpFR	3	n/a	0	ARM	38	n/a	n/a	1	n/a	n/a	n/a	n/a	n/a
2983668	FFR_REC_WORD	wordpools/wasnorm_wordpool.txt	LTP138	ltpFR	3	n/a	0	ELBOW	520	n/a	n/a	1	n/a	n/a	n/a	n/a	n/a
2984895	FFR_REC_WORD	wordpools/wasnorm_wordpool.txt	LTP138	ltpFR	3	n/a	n/a	SKIN	1318	n/a	n/a	n/a	n/a	n/a	n/a	n/a	n/a
2986437	FFR_REC_WORD	wordpools/wasnorm_wordpool.txt	LTP138	ltpFR	3	n/a	1	BRUISE	180	n/a	n/a	0	n/a	n/a	n/a	n/a	n/a
2987968	FFR_REC_WORD	wordpools/wasnorm_wordpool.txt	LTP138	ltpFR	3	n/a	1	WOUND	1624	n/a	n/a	0	n/a	n/a	n/a	n/a	n/a
2990248	FFR_REC_WORD	wordpools/wasnorm_wordpool.txt	LTP138	ltpFR	3	n/a	0	FUGITIVE	612	n/a	n/a	1	n/a	n/a	n/a	n/a	n/a
2991720	FFR_REC_WORD	wordpools/wasnorm_wordpool.txt	LTP138	ltpFR	3	n/a	1	PRISON	1127	n/a	n/a	1	n/a	n/a	n/a	n/a	n/a
2993172	FFR_REC_WORD	wordpools/wasnorm_wordpool.txt	LTP138	ltpFR	3	n/a	-1	DART	440	n/a	n/a	-1	n/a	n/a	n/a	n/a	n/a
2995426	FFR_REC_WORD	wordpools/wasnorm_wordpool.txt	LTP138	ltpFR	3	n/a	-1	CASTLE	256	n/a	n/a	-1	n/a	n/a	n/a	n/a	n/a
2997741	FFR_REC_WORD	wordpools/wasnorm_wordpool.txt	LTP138	ltpFR	3	n/a	n/a	BRIEFCASE	175	n/a	n/a	n/a	n/a	n/a	n/a	n/a	n/a
2998825	FFR_REC_WORD_VV	wordpools/wasnorm_wordpool.txt	LTP138	ltpFR	3	n/a	n/a	<>	-1	n/a	n/a	n/a	n/a	n/a	n/a	n/a	n/a
2999910	FFR_REC_WORD_VV	wordpools/wasnorm_wordpool.txt	LTP138	ltpFR	3	n/a	n/a	<>	-1	n/a	n/a	n/a	n/a	n/a	n/a	n/a	n/a
3000490	FFR_REC_WORD	wordpools/wasnorm_wordpool.txt	LTP138	ltpFR	3	n/a	-1	HAMBURGER	679	n/a	n/a	-1	n/a	n/a	n/a	n/a	n/a
3002934	FFR_REC_WORD	wordpools/wasnorm_wordpool.txt	LTP138	ltpFR	3	n/a	-1	SUPERMARKET	1409	n/a	n/a	-1	n/a	n/a	n/a	n/a	n/a
3004730	FFR_REC_WORD	wordpools/wasnorm_wordpool.txt	LTP138	ltpFR	3	n/a	0	ALMANAC	17	n/a	n/a	0	n/a	n/a	n/a	n/a	n/a
3009085	FFR_REC_WORD	wordpools/wasnorm_wordpool.txt	LTP138	ltpFR	3	n/a	n/a	DOCUMENT	479	n/a	n/a	n/a	n/a	n/a	n/a	n/a	n/a
3013151	FFR_REC_WORD	wordpools/wasnorm_wordpool.txt	LTP138	ltpFR	3	n/a	-1	ENCYCLOPEDIA	533	n/a	n/a	-1	n/a	n/a	n/a	n/a	n/a
3014151	FFR_REC_WORD_VV	wordpools/wasnorm_wordpool.txt	LTP138	ltpFR	3	n/a	n/a	<>	-1	n/a	n/a	n/a	n/a	n/a	n/a	n/a	n/a
3015850	FFR_REC_WORD	wordpools/wasnorm_wordpool.txt	LTP138	ltpFR	3	n/a	-1	CARAVAN	242	n/a	n/a	-1	n/a	n/a	n/a	n/a	n/a
3020788	FFR_REC_WORD	wordpools/wasnorm_wordpool.txt	LTP138	ltpFR	3	n/a	-1	EMPLOYEE	531	n/a	n/a	-1	n/a	n/a	n/a	n/a	n/a
3023692	FFR_REC_WORD	wordpools/wasnorm_wordpool.txt	LTP138	ltpFR	3	n/a	-1	MECHANIC	884	n/a	n/a	-1	n/a	n/a	n/a	n/a	n/a
3024664	FFR_REC_WORD	wordpools/wasnorm_wordpool.txt	LTP138	ltpFR	3	n/a	-1	ANTENNA	28	n/a	n/a	-1	n/a	n/a	n/a	n/a	n/a
3030821	FFR_REC_WORD	wordpools/wasnorm_wordpool.txt	LTP138	ltpFR	3	n/a	0	PIANO	1057	n/a	n/a	1	n/a	n/a	n/a	n/a	n/a
3032038	FFR_REC_WORD	wordpools/wasnorm_wordpool.txt	LTP138	ltpFR	3	n/a	-1	GUITAR	670	n/a	n/a	-1	n/a	n/a	n/a	n/a	n/a
3039426	FFR_REC_WORD	wordpools/wasnorm_wordpool.txt	LTP138	ltpFR	3	n/a	-1	BLOUSE	139	n/a	n/a	-1	n/a	n/a	n/a	n/a	n/a
3040673	FFR_REC_WORD	wordpools/wasnorm_wordpool.txt	LTP138	ltpFR	3	n/a	-1	SKIRT	1319	n/a	n/a	-1	n/a	n/a	n/a	n/a	n/a
3044974	FFR_REC_WORD	wordpools/wasnorm_wordpool.txt	LTP138	ltpFR	3	n/a	-1	BOOT	150	n/a	n/a	-1	n/a	n/a	n/a	n/a	n/a
3046261	FFR_REC_WORD	wordpools/wasnorm_wordpool.txt	LTP138	ltpFR	3	n/a	-1	TENT	1449	n/a	n/a	-1	n/a	n/a	n/a	n/a	n/a
3048406	FFR_REC_WORD	wordpools/wasnorm_wordpool.txt	LTP138	ltpFR	3	n/a	-1	TICK	1463	n/a	n/a	-1	n/a	n/a	n/a	n/a	n/a
3051005	FFR_REC_WORD	wordpools/wasnorm_wordpool.txt	LTP138	ltpFR	3	n/a	-1	PAVEMENT	1028	n/a	n/a	-1	n/a	n/a	n/a	n/a	n/a
3052596	FFR_REC_WORD	wordpools/wasnorm_wordpool.txt	LTP138	ltpFR	3	n/a	-1	GRAVEL	659	n/a	n/a	-1	n/a	n/a	n/a	n/a	n/a
3058638	FFR_REC_WORD	wordpools/wasnorm_wordpool.txt	LTP138	ltpFR	3	n/a	-1	WINE	1613	n/a	n/a	-1	n/a	n/a	n/a	n/a	n/a
3061551	FFR_REC_WORD	wordpools/wasnorm_wordpool.txt	LTP138	ltpFR	3	n/a	1	WATERFALL	1595	n/a	n/a	0	n/a	n/a	n/a	n/a	n/a
3062748	FFR_REC_WORD	wordpools/wasnorm_wordpool.txt	LTP138	ltpFR	3	n/a	1	CLOUD	328	n/a	n/a	0	n/a	n/a	n/a	n/a	n/a
3064475	FFR_REC_WORD	wordpools/wasnorm_wordpool.txt	LTP138	ltpFR	3	n/a	1	LOUNGE	845	n/a	n/a	0	n/a	n/a	n/a	n/a	n/a
3066031	FFR_REC_WORD	wordpools/wasnorm_wordpool.txt	LTP138	ltpFR	3	n/a	1	RIDER	1191	n/a	n/a	1	n/a	n/a	n/a	n/a	n/a
3067607	FFR_REC_WORD	wordpools/wasnorm_wordpool.txt	LTP138	ltpFR	3	n/a	1	COLT	349	n/a	n/a	1	n/a	n/a	n/a	n/a	n/a
3070995	FFR_REC_WORD	wordpools/wasnorm_wordpool.txt	LTP138	ltpFR	3	n/a	1	HINGE	709	n/a	n/a	0	n/a	n/a	n/a	n/a	n/a
3076252	FFR_REC_WORD	wordpools/wasnorm_wordpool.txt	LTP138	ltpFR	3	n/a	-1	VEAL	1551	n/a	n/a	-1	n/a	n/a	n/a	n/a	n/a
3080438	FFR_REC_WORD	wordpools/wasnorm_wordpool.txt	LTP138	ltpFR	3	n/a	-1	BEEF	113	n/a	n/a	-1	n/a	n/a	n/a	n/a	n/a
3086938	FFR_REC_WORD	wordpools/wasnorm_wordpool.txt	LTP138	ltpFR	3	n/a	0	SQUID	1361	n/a	n/a	1	n/a	n/a	n/a	n/a	n/a
3088844	FFR_REC_WORD	wordpools/wasnorm_wordpool.txt	LTP138	ltpFR	3	n/a	0	SHRIMP	1297	n/a	n/a	0	n/a	n/a	n/a	n/a	n/a
3110410	FFR_REC_WORD	wordpools/wasnorm_wordpool.txt	LTP138	ltpFR	3	n/a	1	DIRT	472	n/a	n/a	0	n/a	n/a	n/a	n/a	n/a
3111622	FFR_REC_WORD	wordpools/wasnorm_wordpool.txt	LTP138	ltpFR	3	n/a	0	DIGGER	464	n/a	n/a	1	n/a	n/a	n/a	n/a	n/a
3114246	FFR_REC_WORD	wordpools/wasnorm_wordpool.txt	LTP138	ltpFR	3	n/a	-1	GODDESS	646	n/a	n/a	-1	n/a	n/a	n/a	n/a	n/a
3115912	FFR_REC_WORD	wordpools/wasnorm_wordpool.txt	LTP138	ltpFR	3	n/a	1	QUILL	1150	n/a	n/a	0	n/a	n/a	n/a	n/a	n/a
3117090	FFR_REC_WORD	wordpools/wasnorm_wordpool.txt	LTP138	ltpFR	3	n/a	1	MIRROR	899	n/a	n/a	0	n/a	n/a	n/a	n/a	n/a
3118472	FFR_REC_WORD	wordpools/wasnorm_wordpool.txt	LTP138	ltpFR	3	n/a	1	ACTOR	5	n/a	n/a	1	n/a	n/a	n/a	n/a	n/a
3120452	FFR_REC_WORD	wordpools/wasnorm_wordpool.txt	LTP138	ltpFR	3	n/a	-1	PRODUCER	1129	n/a	n/a	-1	n/a	n/a	n/a	n/a	n/a
3124123	FFR_REC_WORD	wordpools/wasnorm_wordpool.txt	LTP138	ltpFR	3	n/a	n/a	SUNSET	1408	n/a	n/a	n/a	n/a	n/a	n/a	n/a	n/a
3128838	FFR_REC_WORD	wordpools/wasnorm_wordpool.txt	LTP138	ltpFR	3	n/a	0	FIN	566	n/a	n/a	1	n/a	n/a	n/a	n/a	n/a
3131123	FFR_REC_WORD	wordpools/wasnorm_wordpool.txt	LTP138	ltpFR	3	n/a	0	LETTUCE	814	n/a	n/a	1	n/a	n/a	n/a	n/a	n/a
3158002	FFR_REC_WORD	wordpools/wasnorm_wordpool.txt	LTP138	ltpFR	3	n/a	n/a	DAUGHTER	442	n/a	n/a	n/a	n/a	n/a	n/a	n/a	n/a
3160171	FFR_REC_WORD	wordpools/wasnorm_wordpool.txt	LTP138	ltpFR	3	n/a	1	SIBLING	1301	n/a	n/a	1	n/a	n/a	n/a	n/a	n/a
3163390	FFR_REC_WORD	wordpools/wasnorm_wordpool.txt	LTP138	ltpFR	3	n/a	-1	INFANT	737	n/a	n/a	-1	n/a	n/a	n/a	n/a	n/a
3164627	FFR_REC_WORD	wordpools/wasnorm_wordpool.txt	LTP138	ltpFR	3	n/a	-1	BASSINET	97	n/a	n/a	-1	n/a	n/a	n/a	n/a	n/a
3166507	FFR_REC_WORD	wordpools/wasnorm_wordpool.txt	LTP138	ltpFR	3	n/a	-1	NAIL	936	n/a	n/a	-1	n/a	n/a	n/a	n/a	n/a
3173631	FFR_REC_WORD	wordpools/wasnorm_wordpool.txt	LTP138	ltpFR	3	n/a	-1	NECK	939	n/a	n/a	-1	n/a	n/a	n/a	n/a	n/a
3174704	FFR_REC_WORD	wordpools/wasnorm_wordpool.txt	LTP138	ltpFR	3	n/a	-1	TIE	1466	n/a	n/a	-1	n/a	n/a	n/a	n/a	n/a
3196095	FFR_REC_WORD	wordpools/wasnorm_wordpool.txt	LTP138	ltpFR	3	n/a	1	SHORTCAKE	1292	n/a	n/a	0	n/a	n/a	n/a	n/a	n/a
3202529	FFR_REC_WORD	wordpools/wasnorm_wordpool.txt	LTP138	ltpFR	3	n/a	0	FUGITIVE	612	n/a	n/a	1	n/a	n/a	n/a	n/a	n/a
3231350	FFR_REC_WORD	wordpools/wasnorm_wordpool.txt	LTP138	ltpFR	3	n/a	n/a	CHAPERONE	-1	n/a	n/a	n/a	n/a	n/a	n/a	n/a	n/a
3235541	FFR_REC_WORD	wordpools/wasnorm_wordpool.txt	LTP138	ltpFR	3	n/a	0	BOY	161	n/a	n/a	1	n/a	n/a	n/a	n/a	n/a
3236114	FFR_REC_WORD	wordpools/wasnorm_wordpool.txt	LTP138	ltpFR	3	n/a	0	GIRL	637	n/a	n/a	1	n/a	n/a	n/a	n/a	n/a
3238948	FFR_REC_WORD	wordpools/wasnorm_wordpool.txt	LTP138	ltpFR	3	n/a	0	TUB	1514	n/a	n/a	1	n/a	n/a	n/a	n/a	n/a
3262938	FFR_REC_WORD	wordpools/wasnorm_wordpool.txt	LTP138	ltpFR	3	n/a	0	PENGUIN	1044	n/a	n/a	1	n/a	n/a	n/a	n/a	n/a
3299005	REC_START	n/a	LTP138	ltpFR	3	1	n/a	n/a	n/a	n/a	n/a	n/a	n/a	n/a	n/a	n/a	n/a
3299038	RECOG_TARGET	n/a	LTP138	ltpFR	3	1	1	SEAFOOD	1260	1	4	1	n/a	n/a	n/a	n/a	n/a
3300917	RECOG_RESP	n/a	LTP138	ltpFR	3	1	1	SEAFOOD	1260	1	n/a	1	n/a	n/a	n/a	n/a	n/a
3302312	RECOG_CONF	n/a	LTP138	ltpFR	3	1	1	SEAFOOD	1260	n/a	4	1	n/a	n/a	n/a	n/a	n/a
3303957	RECOG_TARGET	n/a	LTP138	ltpFR	3	1	-1	TART	1436	1	4	-1	n/a	n/a	n/a	n/a	n/a
3304846	RECOG_RESP	n/a	LTP138	ltpFR	3	1	-1	TART	1436	1	n/a	-1	n/a	n/a	n/a	n/a	n/a
3305903	RECOG_CONF	n/a	LTP138	ltpFR	3	1	-1	TART	1436	n/a	4	-1	n/a	n/a	n/a	n/a	n/a
3307611	RECOG_TARGET	n/a	LTP138	ltpFR	3	1	0	SALESMAN	1225	0	2	1	n/a	n/a	n/a	n/a	n/a
3308677	RECOG_RESP	n/a	LTP138	ltpFR	3	1	0	SALESMAN	1225	0	n/a	1	n/a	n/a	n/a	n/a	n/a
3310104	RECOG_CONF	n/a	LTP138	ltpFR	3	1	0	SALESMAN	1225	n/a	2	1	n/a	n/a	n/a	n/a	n/a
3311848	RECOG_LURE	n/a	LTP138	ltpFR	3	1	n/a	TORCH	1484	1	2	n/a	n/a	n/a	n/a	n/a	n/a
3313347	RECOG_RESP	n/a	LTP138	ltpFR	3	1	n/a	TORCH	1484	1	n/a	n/a	n/a	n/a	n/a	n/a	n/a
3315036	RECOG_CONF	n/a	LTP138	ltpFR	3	1	n/a	TORCH	1484	n/a	2	n/a	n/a	n/a	n/a	n/a	n/a
3316642	RECOG_LURE	n/a	LTP138	ltpFR	3	1	n/a	TAXI	1438	0	3	n/a	n/a	n/a	n/a	n/a	n/a
3318357	RECOG_RESP	n/a	LTP138	ltpFR	3	1	n/a	TAXI	1438	0	n/a	n/a	n/a	n/a	n/a	n/a	n/a
3319555	RECOG_CONF	n/a	LTP138	ltpFR	3	1	n/a	TAXI	1438	n/a	3	n/a	n/a	n/a	n/a	n/a	n/a
3321336	RECOG_LURE	n/a	LTP138	ltpFR	3	1	n/a	BURGLAR	200	1	2	n/a	n/a	n/a	n/a	n/a	n/a
3322841	RECOG_RESP	n/a	LTP138	ltpFR	3	1	n/a	BURGLAR	200	1	n/a	n/a	n/a	n/a	n/a	n/a	n/a
3324082	RECOG_CONF	n/a	LTP138	ltpFR	3	1	n/a	BURGLAR	200	n/a	2	n/a	n/a	n/a	n/a	n/a	n/a
3325698	RECOG_TARGET	n/a	LTP138	ltpFR	3	1	-1	CLOCK	325	1	5	-1	n/a	n/a	n/a	n/a	n/a
3326671	RECOG_RESP	n/a	LTP138	ltpFR	3	1	-1	CLOCK	325	1	n/a	-1	n/a	n/a	n/a	n/a	n/a
3327695	RECOG_CONF	n/a	LTP138	ltpFR	3	1	-1	CLOCK	325	n/a	5	-1	n/a	n/a	n/a	n/a	n/a
3329368	RECOG_TARGET	n/a	LTP138	ltpFR	3	1	0	OX	994	1	5	1	n/a	n/a	n/a	n/a	n/a
3330154	RECOG_RESP	n/a	LTP138	ltpFR	3	1	0	OX	994	1	n/a	1	n/a	n/a	n/a	n/a	n/a
3331168	RECOG_CONF	n/a	LTP138	ltpFR	3	1	0	OX	994	n/a	5	1	n/a	n/a	n/a	n/a	n/a
3332898	RECOG_LURE	n/a	LTP138	ltpFR	3	1	n/a	SHIP	1286	1	2	n/a	n/a	n/a	n/a	n/a	n/a
3334711	RECOG_RESP	n/a	LTP138	ltpFR	3	1	n/a	SHIP	1286	1	n/a	n/a	n/a	n/a	n/a	n/a	n/a
3336497	RECOG_CONF	n/a	LTP138	ltpFR	3	1	n/a	SHIP	1286	n/a	2	n/a	n/a	n/a	n/a	n/a	n/a
3338151	RECOG_LURE	n/a	LTP138	ltpFR	3	1	n/a	BINDER	127	0	3	n/a	n/a	n/a	n/a	n/a	n/a
3339800	RECOG_RESP	n/a	LTP138	ltpFR	3	1	n/a	BINDER	127	0	n/a	n/a	n/a	n/a	n/a	n/a	n/a
3341733	RECOG_CONF	n/a	LTP138	ltpFR	3	1	n/a	BINDER	127	n/a	3	n/a	n/a	n/a	n/a	n/a	n/a
3343270	RECOG_LURE	n/a	LTP138	ltpFR	3	1	n/a	RODENT	1204	0	2	n/a	n/a	n/a	n/a	n/a	n/a
3344905	RECOG_RESP	n/a	LTP138	ltpFR	3	1	n/a	RODENT	1204	0	n/a	n/a	n/a	n/a	n/a	n/a	n/a
3346000	RECOG_CONF	n/a	LTP138	ltpFR	3	1	n/a	RODENT	1204	n/a	2	n/a	n/a	n/a	n/a	n/a	n/a
3347656	RECOG_TARGET	n/a	LTP138	ltpFR	3	1	-1	THORN	1459	1	5	-1	n/a	n/a	n/a	n/a	n/a
3348461	RECOG_RESP	n/a	LTP138	ltpFR	3	1	-1	THORN	1459	1	n/a	-1	n/a	n/a	n/a	n/a	n/a
3349494	RECOG_CONF	n/a	LTP138	ltpFR	3	1	-1	THORN	1459	n/a	5	-1	n/a	n/a	n/a	n/a	n/a
3351194	RECOG_TARGET	n/a	LTP138	ltpFR	3	1	1	BATTERY	101	1	3	0	n/a	n/a	n/a	n/a	n/a
3352538	RECOG_RESP	n/a	LTP138	ltpFR	3	1	1	BATTERY	101	1	n/a	0	n/a	n/a	n/a	n/a	n/a
3354125	RECOG_CONF	n/a	LTP138	ltpFR	3	1	1	BATTERY	101	n/a	3	0	n/a	n/a	n/a	n/a	n/a
3355714	RECOG_LURE	n/a	LTP138	ltpFR	3	1	n/a	PACKAGE	997	1	2	n/a	n/a	n/a	n/a	n/a	n/a
3357925	RECOG_RESP	n/a	LTP138	ltpFR	3	1	n/a	PACKAGE	997	1	n/a	n/a	n/a	n/a	n/a	n/a	n/a
3359215	RECOG_CONF	n/a	LTP138	ltpFR	3	1	n/a	PACKAGE	997	n/a	2	n/a	n/a	n/a	n/a	n/a	n/a
3360974	RECOG_TARGET	n/a	LTP138	ltpFR	3	1	0	SALOON	1228	0	2	1	n/a	n/a	n/a	n/a	n/a
3362041	RECOG_RESP	n/a	LTP138	ltpFR	3	1	0	SALOON	1228	0	n/a	1	n/a	n/a	n/a	n/a	n/a
3363706	RECOG_CONF	n/a	LTP138	ltpFR	3	1	0	SALOON	1228	n/a	2	1	n/a	n/a	n/a	n/a	n/a
3365419	RECOG_TARGET	n/a	LTP138	ltpFR	3	1	-1	PORCUPINE	1107	1	5	-1	n/a	n/a	n/a	n/a	n/a
3366381	RECOG_RESP	n/a	LTP138	ltpFR	3	1	-1	PORCUPINE	1107	1	n/a	-1	n/a	n/a	n/a	n/a	n/a
3367696	RECOG_CONF	n/a	LTP138	ltpFR	3	1	-1	PORCUPINE	1107	n/a	5	-1	n/a	n/a	n/a	n/a	n/a
3369389	RECOG_TARGET	n/a	LTP138	ltpFR	3	1	1	RIB	1188	1	4	0	n/a	n/a	n/a	n/a	n/a
3370266	RECOG_RESP	n/a	LTP138	ltpFR	3	1	1	RIB	1188	1	n/a	0	n/a	n/a	n/a	n/a	n/a
3371525	RECOG_CONF	n/a	LTP138	ltpFR	3	1	1	RIB	1188	n/a	4	0	n/a	n/a	n/a	n/a	n/a
3372935	RECOG_TARGET	n/a	LTP138	ltpFR	3	1	-1	ENCYCLOPEDIA	533	1	5	-1	n/a	n/a	n/a	n/a	n/a
3373746	RECOG_RESP	n/a	LTP138	ltpFR	3	1	-1	ENCYCLOPEDIA	533	1	n/a	-1	n/a	n/a	n/a	n/a	n/a
3374802	RECOG_CONF	n/a	LTP138	ltpFR	3	1	-1	ENCYCLOPEDIA	533	n/a	5	-1	n/a	n/a	n/a	n/a	n/a
3376673	RECOG_LURE	n/a	LTP138	ltpFR	3	1	n/a	PEPPER	1047	0	4	n/a	n/a	n/a	n/a	n/a	n/a
3377955	RECOG_RESP	n/a	LTP138	ltpFR	3	1	n/a	PEPPER	1047	0	n/a	n/a	n/a	n/a	n/a	n/a	n/a
3379218	RECOG_CONF	n/a	LTP138	ltpFR	3	1	n/a	PEPPER	1047	n/a	4	n/a	n/a	n/a	n/a	n/a	n/a
3380984	RECOG_TARGET	n/a	LTP138	ltpFR	3	1	-1	EXPERT	543	0	3	-1	n/a	n/a	n/a	n/a	n/a
3382292	RECOG_RESP	n/a	LTP138	ltpFR	3	1	-1	EXPERT	543	0	n/a	-1	n/a	n/a	n/a	n/a	n/a
3383647	RECOG_CONF	n/a	LTP138	ltpFR	3	1	-1	EXPERT	543	n/a	3	-1	n/a	n/a	n/a	n/a	n/a
3398266	REC_START	n/a	LTP138	ltpFR	3	2	n/a	n/a	n/a	n/a	n/a	n/a	n/a	n/a	n/a	n/a	n/a
3398289	RECOG_TARGET	n/a	LTP138	ltpFR	3	2	1	TAR	1435	0	3	0	n/a	n/a	n/a	n/a	n/a
3399652	RECOG_RESP	n/a	LTP138	ltpFR	3	2	1	TAR	1435	0	n/a	0	n/a	n/a	n/a	n/a	n/a
3400845	RECOG_CONF	n/a	LTP138	ltpFR	3	2	1	TAR	1435	n/a	3	0	n/a	n/a	n/a	n/a	n/a
3402451	RECOG_TARGET	n/a	LTP138	ltpFR	3	2	-1	CAR	241	1	3	-1	n/a	n/a	n/a	n/a	n/a
3403938	RECOG_RESP	n/a	LTP138	ltpFR	3	2	-1	CAR	241	1	n/a	-1	n/a	n/a	n/a	n/a	n/a
3405055	RECOG_CONF	n/a	LTP138	ltpFR	3	2	-1	CAR	241	n/a	3	-1	n/a	n/a	n/a	n/a	n/a
3406588	RECOG_TARGET	n/a	LTP138	ltpFR	3	2	0	HANDCUFFS	685	1	5	0	n/a	n/a	n/a	n/a	n/a
3407427	RECOG_RESP	n/a	LTP138	ltpFR	3	2	0	HANDCUFFS	685	1	n/a	0	n/a	n/a	n/a	n/a	n/a
3408348	RECOG_CONF	n/a	LTP138	ltpFR	3	2	0	HANDCUFFS	685	n/a	5	0	n/a	n/a	n/a	n/a	n/a
3410009	RECOG_LURE	n/a	LTP138	ltpFR	3	2	n/a	CHEEK	287	0	4	n/a	n/a	n/a	n/a	n/a	n/a
3411226	RECOG_RESP	n/a	LTP138	ltpFR	3	2	n/a	CHEEK	287	0	n/a	n/a	n/a	n/a	n/a	n/a	n/a
3412698	RECOG_CONF	n/a	LTP138	ltpFR	3	2	n/a	CHEEK	287	n/a	4	n/a	n/a	n/a	n/a	n/a	n/a
3414304	RECOG_TARGET	n/a	LTP138	ltpFR	3	2	0	HARP	689	1	4	1	n/a	n/a	n/a	n/a	n/a
3415348	RECOG_RESP	n/a	LTP138	ltpFR	3	2	0	HARP	689	1	n/a	1	n/a	n/a	n/a	n/a	n/a
3416628	RECOG_CONF	n/a	LTP138	ltpFR	3	2	0	HARP	689	n/a	4	1	n/a	n/a	n/a	n/a	n/a
3418291	RECOG_LURE	n/a	LTP138	ltpFR	3	2	n/a	PATROL	1027	0	3	n/a	n/a	n/a	n/a	n/a	n/a
3419781	RECOG_RESP	n/a	LTP138	ltpFR	3	2	n/a	PATROL	1027	0	n/a	n/a	n/a	n/a	n/a	n/a	n/a
3420911	RECOG_CONF	n/a	LTP138	ltpFR	3	2	n/a	PATROL	1027	n/a	3	n/a	n/a	n/a	n/a	n/a	n/a
3422694	RECOG_LURE	n/a	LTP138	ltpFR	3	2	n/a	KNOB	787	1	3	n/a	n/a	n/a	n/a	n/a	n/a
3424568	RECOG_RESP	n/a	LTP138	ltpFR	3	2	n/a	KNOB	787	1	n/a	n/a	n/a	n/a	n/a	n/a	n/a
3425905	RECOG_CONF	n/a	LTP138	ltpFR	3	2	n/a	KNOB	787	n/a	3	n/a	n/a	n/a	n/a	n/a	n/a
3427597	RECOG_TARGET	n/a	LTP138	ltpFR	3	2	1	WATER	1594	0	2	1	n/a	n/a	n/a	n/a	n/a
3428955	RECOG_RESP	n/a	LTP138	ltpFR	3	2	1	WATER	1594	0	n/a	1	n/a	n/a	n/a	n/a	n/a
3430425	RECOG_CONF	n/a	LTP138	ltpFR	3	2	1	WATER	1594	n/a	2	1	n/a	n/a	n/a	n/a	n/a
3432042	RECOG_LURE	n/a	LTP138	ltpFR	3	2	n/a	GOWN	652	0	2	n/a	n/a	n/a	n/a	n/a	n/a
3433862	RECOG_RESP	n/a	LTP138	ltpFR	3	2	n/a	GOWN	652	0	n/a	n/a	n/a	n/a	n/a	n/a	n/a
3435303	RECOG_CONF	n/a	LTP138	ltpFR	3	2	n/a	GOWN	652	n/a	2	n/a	n/a	n/a	n/a	n/a	n/a
3436836	RECOG_TARGET	n/a	LTP138	ltpFR	3	2	-1	DRUM	502	1	5	-1	n/a	n/a	n/a	n/a	n/a
3437723	RECOG_RESP	n/a	LTP138	ltpFR	3	2	-1	DRUM	502	1	n/a	-1	n/a	n/a	n/a	n/a	n/a
3438908	RECOG_CONF	n/a	LTP138	ltpFR	3	2	-1	DRUM	502	n/a	5	-1	n/a	n/a	n/a	n/a	n/a
3440399	RECOG_TARGET	n/a	LTP138	ltpFR	3	2	0	VAMPIRE	1547	1	4	1	n/a	n/a	n/a	n/a	n/a
3441713	RECOG_RESP	n/a	LTP138	ltpFR	3	2	0	VAMPIRE	1547	1	n/a	1	n/a	n/a	n/a	n/a	n/a
3442802	RECOG_CONF	n/a	LTP138	ltpFR	3	2	0	VAMPIRE	1547	n/a	4	1	n/a	n/a	n/a	n/a	n/a
3444385	RECOG_TARGET	n/a	LTP138	ltpFR	3	2	1	RIDER	1191	1	5	1	n/a	n/a	n/a	n/a	n/a
3445199	RECOG_RESP	n/a	LTP138	ltpFR	3	2	1	RIDER	1191	1	n/a	1	n/a	n/a	n/a	n/a	n/a
3446232	RECOG_CONF	n/a	LTP138	ltpFR	3	2	1	RIDER	1191	n/a	5	1	n/a	n/a	n/a	n/a	n/a
3447749	RECOG_TARGET	n/a	LTP138	ltpFR	3	2	-1	GLASSES	640	0	3	-1	n/a	n/a	n/a	n/a	n/a
3448948	RECOG_RESP	n/a	LTP138	ltpFR	3	2	-1	GLASSES	640	0	n/a	-1	n/a	n/a	n/a	n/a	n/a
3450293	RECOG_CONF	n/a	LTP138	ltpFR	3	2	-1	GLASSES	640	n/a	3	-1	n/a	n/a	n/a	n/a	n/a
3451894	RECOG_LURE	n/a	LTP138	ltpFR	3	2	n/a	HORNET	718	0	4	n/a	n/a	n/a	n/a	n/a	n/a
3453048	RECOG_RESP	n/a	LTP138	ltpFR	3	2	n/a	HORNET	718	0	n/a	n/a	n/a	n/a	n/a	n/a	n/a
3454170	RECOG_CONF	n/a	LTP138	ltpFR	3	2	n/a	HORNET	718	n/a	4	n/a	n/a	n/a	n/a	n/a	n/a
3455914	RECOG_TARGET	n/a	LTP138	ltpFR	3	2	-1	PUBLICATION	1136	1	3	-1	n/a	n/a	n/a	n/a	n/a
3457222	RECOG_RESP	n/a	LTP138	ltpFR	3	2	-1	PUBLICATION	1136	1	n/a	-1	n/a	n/a	n/a	n/a	n/a
3458277	RECOG_CONF	n/a	LTP138	ltpFR	3	2	-1	PUBLICATION	1136	n/a	3	-1	n/a	n/a	n/a	n/a	n/a
3459926	RECOG_LURE	n/a	LTP138	ltpFR	3	2	n/a	POSTAGE	1113	0	3	n/a	n/a	n/a	n/a	n/a	n/a
3460922	RECOG_RESP	n/a	LTP138	ltpFR	3	2	n/a	POSTAGE	1113	0	n/a	n/a	n/a	n/a	n/a	n/a	n/a
3462017	RECOG_CONF	n/a	LTP138	ltpFR	3	2	n/a	POSTAGE	1113	n/a	3	n/a	n/a	n/a	n/a	n/a	n/a
3463697	RECOG_TARGET	n/a	LTP138	ltpFR	3	2	1	JET	756	1	3	0	n/a	n/a	n/a	n/a	n/a
3464866	RECOG_RESP	n/a	LTP138	ltpFR	3	2	1	JET	756	1	n/a	0	n/a	n/a	n/a	n/a	n/a
3466033	RECOG_CONF	n/a	LTP138	ltpFR	3	2	1	JET	756	n/a	3	0	n/a	n/a	n/a	n/a	n/a
3467626	RECOG_TARGET	n/a	LTP138	ltpFR	3	2	1	DIPLOMA	470	0	4	0	n/a	n/a	n/a	n/a	n/a
3469231	RECOG_RESP	n/a	LTP138	ltpFR	3	2	1	DIPLOMA	470	0	n/a	0	n/a	n/a	n/a	n/a	n/a
3470259	RECOG_CONF	n/a	LTP138	ltpFR	3	2	1	DIPLOMA	470	n/a	4	0	n/a	n/a	n/a	n/a	n/a
3472012	RECOG_TARGET	n/a	LTP138	ltpFR	3	2	0	ARM	38	1	5	1	n/a	n/a	n/a	n/a	n/a
3472969	RECOG_RESP	n/a	LTP138	ltpFR	3	2	0	ARM	38	1	n/a	1	n/a	n/a	n/a	n/a	n/a
3474101	RECOG_CONF	n/a	LTP138	ltpFR	3	2	0	ARM	38	n/a	5	1	n/a	n/a	n/a	n/a	n/a
3475858	RECOG_LURE	n/a	LTP138	ltpFR	3	2	n/a	TOTE	1487	0	4	n/a	n/a	n/a	n/a	n/a	n/a
3476735	RECOG_RESP	n/a	LTP138	ltpFR	3	2	n/a	TOTE	1487	0	n/a	n/a	n/a	n/a	n/a	n/a	n/a
3477830	RECOG_CONF	n/a	LTP138	ltpFR	3	2	n/a	TOTE	1487	n/a	4	n/a	n/a	n/a	n/a	n/a	n/a
3487988	REC_START	n/a	LTP138	ltpFR	3	3	n/a	n/a	n/a	n/a	n/a	n/a	n/a	n/a	n/a	n/a	n/a
3488019	RECOG_TARGET	n/a	LTP138	ltpFR	3	3	1	THRONE	1461	1	5	0	n/a	n/a	n/a	n/a	n/a
3488822	RECOG_RESP	n/a	LTP138	ltpFR	3	3	1	THRONE	1461	1	n/a	0	n/a	n/a	n/a	n/a	n/a
3489918	RECOG_CONF	n/a	LTP138	ltpFR	3	3	1	THRONE	1461	n/a	5	0	n/a	n/a	n/a	n/a	n/a
3491615	RECOG_TARGET	n/a	LTP138	ltpFR	3	3	-1	PANTS	1010	1	5	-1	n/a	n/a	n/a	n/a	n/a
3492526	RECOG_RESP	n/a	LTP138	ltpFR	3	3	-1	PANTS	1010	1	n/a	-1	n/a	n/a	n/a	n/a	n/a
3493577	RECOG_CONF	n/a	LTP138	ltpFR	3	3	-1	PANTS	1010	n/a	5	-1	n/a	n/a	n/a	n/a	n/a
3495310	RECOG_TARGET	n/a	LTP138	ltpFR	3	3	0	BUYER	208	1	2	1	n/a	n/a	n/a	n/a	n/a
3496513	RECOG_RESP	n/a	LTP138	ltpFR	3	3	0	BUYER	208	1	n/a	1	n/a	n/a	n/a	n/a	n/a
3497836	RECOG_CONF	n/a	LTP138	ltpFR	3	3	0	BUYER	208	n/a	2	1	n/a	n/a	n/a	n/a	n/a
3499406	RECOG_TARGET	n/a	LTP138	ltpFR	3	3	1	SIBLING	1301	1	5	1	n/a	n/a	n/a	n/a	n/a
3500330	RECOG_RESP	n/a	LTP138	ltpFR	3	3	1	SIBLING	1301	1	n/a	1	n/a	n/a	n/a	n/a	n/a
3501272	RECOG_CONF	n/a	LTP138	ltpFR	3	3	1	SIBLING	1301	n/a	5	1	n/a	n/a	n/a	n/a	n/a
3502968	RECOG_LURE	n/a	LTP138	ltpFR	3	3	n/a	SEAL	1262	0	2	n/a	n/a	n/a	n/a	n/a	n/a
3504207	RECOG_RESP	n/a	LTP138	ltpFR	3	3	n/a	SEAL	1262	0	n/a	n/a	n/a	n/a	n/a	n/a	n/a
3505380	RECOG_CONF	n/a	LTP138	ltpFR	3	3	n/a	SEAL	1262	n/a	2	n/a	n/a	n/a	n/a	n/a	n/a
3507038	RECOG_LURE	n/a	LTP138	ltpFR	3	3	n/a	UNIVERSE	1540	0	4	n/a	n/a	n/a	n/a	n/a	n/a
3508108	RECOG_RESP	n/a	LTP138	ltpFR	3	3	n/a	UNIVERSE	1540	0	n/a	n/a	n/a	n/a	n/a	n/a	n/a
3509524	RECOG_CONF	n/a	LTP138	ltpFR	3	3	n/a	UNIVERSE	1540	n/a	4	n/a	n/a	n/a	n/a	n/a	n/a
3511100	RECOG_LURE	n/a	LTP138	ltpFR	3	3	n/a	POTTERY	1116	0	4	n/a	n/a	n/a	n/a	n/a	n/a
3512001	RECOG_RESP	n/a	LTP138	ltpFR	3	3	n/a	POTTERY	1116	0	n/a	n/a	n/a	n/a	n/a	n/a	n/a
3513091	RECOG_CONF	n/a	LTP138	ltpFR	3	3	n/a	POTTERY	1116	n/a	4	n/a	n/a	n/a	n/a	n/a	n/a
3514854	RECOG_LURE	n/a	LTP138	ltpFR	3	3	n/a	CHOCOLATE	306	0	5	n/a	n/a	n/a	n/a	n/a	n/a
3515824	RECOG_RESP	n/a	LTP138	ltpFR	3	3	n/a	CHOCOLATE	306	0	n/a	n/a	n/a	n/a	n/a	n/a	n/a
3516925	RECOG_CONF	n/a	LTP138	ltpFR	3	3	n/a	CHOCOLATE	306	n/a	5	n/a	n/a	n/a	n/a	n/a	n/a
3518750	RECOG_LURE	n/a	LTP138	ltpFR	3	3	n/a	HIGHWAY	707	0	4	n/a	n/a	n/a	n/a	n/a	n/a
3520106	RECOG_RESP	n/a	LTP138	ltpFR	3	3	n/a	HIGHWAY	707	0	n/a	n/a	n/a	n/a	n/a	n/a	n/a
3521235	RECOG_CONF	n/a	LTP138	ltpFR	3	3	n/a	HIGHWAY	707	n/a	4	n/a	n/a	n/a	n/a	n/a	n/a
3522978	RECOG_LURE	n/a	LTP138	ltpFR	3	3	n/a	JELLO	754	0	5	n/a	n/a	n/a	n/a	n/a	n/a
3523823	RECOG_RESP	n/a	LTP138	ltpFR	3	3	n/a	JELLO	754	0	n/a	n/a	n/a	n/a	n/a	n/a	n/a
3524766	RECOG_CONF	n/a	LTP138	ltpFR	3	3	n/a	JELLO	754	n/a	5	n/a	n/a	n/a	n/a	n/a	n/a
3526541	RECOG_LURE	n/a	LTP138	ltpFR	3	3	n/a	PICKLE	1059	0	5	n/a	n/a	n/a	n/a	n/a	n/a
3527439	RECOG_RESP	n/a	LTP138	ltpFR	3	3	n/a	PICKLE	1059	0	n/a	n/a	n/a	n/a	n/a	n/a	n/a
3528770	RECOG_CONF	n/a	LTP138	ltpFR	3	3	n/a	PICKLE	1059	n/a	5	n/a	n/a	n/a	n/a	n/a	n/a
3530385	RECOG_TARGET	n/a	LTP138	ltpFR	3	3	1	WATERFALL	1595	1	5	0	n/a	n/a	n/a	n/a	n/a
3531209	RECOG_RESP	n/a	LTP138	ltpFR	3	3	1	WATERFALL	1595	1	n/a	0	n/a	n/a	n/a	n/a	n/a
3532251	RECOG_CONF	n/a	LTP138	ltpFR	3	3	1	WATERFALL	1595	n/a	5	0	n/a	n/a	n/a	n/a	n/a
3533982	RECOG_LURE	n/a	LTP138	ltpFR	3	3	n/a	HOOP	716	0	3	n/a	n/a	n/a	n/a	n/a	n/a
3535393	RECOG_RESP	n/a	LTP138	ltpFR	3	3	n/a	HOOP	716	0	n/a	n/a	n/a	n/a	n/a	n/a	n/a
3536613	RECOG_CONF	n/a	LTP138	ltpFR	3	3	n/a	HOOP	716	n/a	3	n/a	n/a	n/a	n/a	n/a	n/a
3538269	RECOG_TARGET	n/a	LTP138	ltpFR	3	3	1	BEAD	103	0	3	0	n/a	n/a	n/a	n/a	n/a
3539319	RECOG_RESP	n/a	LTP138	ltpFR	3	3	1	BEAD	103	0	n/a	0	n/a	n/a	n/a	n/a	n/a
3540388	RECOG_CONF	n/a	LTP138	ltpFR	3	3	1	BEAD	103	n/a	3	0	n/a	n/a	n/a	n/a	n/a
3541981	RECOG_LURE	n/a	LTP138	ltpFR	3	3	n/a	AUTHOR	61	1	3	n/a	n/a	n/a	n/a	n/a	n/a
3543268	RECOG_RESP	n/a	LTP138	ltpFR	3	3	n/a	AUTHOR	61	1	n/a	n/a	n/a	n/a	n/a	n/a	n/a
3544407	RECOG_CONF	n/a	LTP138	ltpFR	3	3	n/a	AUTHOR	61	n/a	3	n/a	n/a	n/a	n/a	n/a	n/a
3546126	RECOG_LURE	n/a	LTP138	ltpFR	3	3	n/a	RESTAURANT	1187	0	4	n/a	n/a	n/a	n/a	n/a	n/a
3547141	RECOG_RESP	n/a	LTP138	ltpFR	3	3	n/a	RESTAURANT	1187	0	n/a	n/a	n/a	n/a	n/a	n/a	n/a
3548415	RECOG_CONF	n/a	LTP138	ltpFR	3	3	n/a	RESTAURANT	1187	n/a	4	n/a	n/a	n/a	n/a	n/a	n/a
3549947	RECOG_TARGET	n/a	LTP138	ltpFR	3	3	0	FUR	615	1	5	0	n/a	n/a	n/a	n/a	n/a
3550680	RECOG_RESP	n/a	LTP138	ltpFR	3	3	0	FUR	615	1	n/a	0	n/a	n/a	n/a	n/a	n/a
3551686	RECOG_CONF	n/a	LTP138	ltpFR	3	3	0	FUR	615	n/a	5	0	n/a	n/a	n/a	n/a	n/a
3553310	RECOG_TARGET	n/a	LTP138	ltpFR	3	3	1	BISON	131	1	4	1	n/a	n/a	n/a	n/a	n/a
3554120	RECOG_RESP	n/a	LTP138	ltpFR	3	3	1	BISON	131	1	n/a	1	n/a	n/a	n/a	n/a	n/a
3555283	RECOG_CONF	n/a	LTP138	ltpFR	3	3	1	BISON	131	n/a	4	1	n/a	n/a	n/a	n/a	n/a
3556822	RECOG_LURE	n/a	LTP138	ltpFR	3	3	n/a	HUMAN	726	0	3	n/a	n/a	n/a	n/a	n/a	n/a
3557846	RECOG_RESP	n/a	LTP138	ltpFR	3	3	n/a	HUMAN	726	0	n/a	n/a	n/a	n/a	n/a	n/a	n/a
3558883	RECOG_CONF	n/a	LTP138	ltpFR	3	3	n/a	HUMAN	726	n/a	3	n/a	n/a	n/a	n/a	n/a	n/a
3560610	RECOG_TARGET	n/a	LTP138	ltpFR	3	3	1	BOWL	158	0	3	0	n/a	n/a	n/a	n/a	n/a
3561468	RECOG_RESP	n/a	LTP138	ltpFR	3	3	1	BOWL	158	0	n/a	0	n/a	n/a	n/a	n/a	n/a
3562552	RECOG_CONF	n/a	LTP138	ltpFR	3	3	1	BOWL	158	n/a	3	0	n/a	n/a	n/a	n/a	n/a
3571849	REC_START	n/a	LTP138	ltpFR	3	4	n/a	n/a	n/a	n/a	n/a	n/a	n/a	n/a	n/a	n/a	n/a
3571880	RECOG_TARGET	n/a	LTP138	ltpFR	3	4	0	INSECT	740	1	5	0	n/a	n/a	n/a	n/a	n/a
3572809	RECOG_RESP	n/a	LTP138	ltpFR	3	4	0	INSECT	740	1	n/a	0	n/a	n/a	n/a	n/a	n/a
3573853	RECOG_CONF	n/a	LTP138	ltpFR	3	4	0	INSECT	740	n/a	5	0	n/a	n/a	n/a	n/a	n/a
3575534	RECOG_LURE	n/a	LTP138	ltpFR	3	4	n/a	WIDOW	1608	0	4	n/a	n/a	n/a	n/a	n/a	n/a
3577394	RECOG_RESP	n/a	LTP138	ltpFR	3	4	n/a	WIDOW	1608	0	n/a	n/a	n/a	n/a	n/a	n/a	n/a
3578464	RECOG_CONF	n/a	LTP138	ltpFR	3	4	n/a	WIDOW	1608	n/a	4	n/a	n/a	n/a	n/a	n/a	n/a
3580095	RECOG_LURE	n/a	LTP138	ltpFR	3	4	n/a	CANNON	232	0	3	n/a	n/a	n/a	n/a	n/a	n/a
3581282	RECOG_RESP	n/a	LTP138	ltpFR	3	4	n/a	CANNON	232	0	n/a	n/a	n/a	n/a	n/a	n/a	n/a
3582313	RECOG_CONF	n/a	LTP138	ltpFR	3	4	n/a	CANNON	232	n/a	3	n/a	n/a	n/a	n/a	n/a	n/a
3583899	RECOG_TARGET	n/a	LTP138	ltpFR	3	4	0	DIGGER	464	1	5	1	n/a	n/a	n/a	n/a	n/a
3584635	RECOG_RESP	n/a	LTP138	ltpFR	3	4	0	DIGGER	464	1	n/a	1	n/a	n/a	n/a	n/a	n/a
3585603	RECOG_CONF	n/a	LTP138	ltpFR	3	4	0	DIGGER	464	n/a	5	1	n/a	n/a	n/a	n/a	n/a
3587204	RECOG_LURE	n/a	LTP138	ltpFR	3	4	n/a	ROBOT	1200	0	5	n/a	n/a	n/a	n/a	n/a	n/a
3587924	RECOG_RESP	n/a	LTP138	ltpFR	3	4	n/a	ROBOT	1200	0	n/a	n/a	n/a	n/a	n/a	n/a	n/a
3588785	RECOG_CONF	n/a	LTP138	ltpFR	3	4	n/a	ROBOT	1200	n/a	5	n/a	n/a	n/a	n/a	n/a	n/a
3590374	RECOG_LURE	n/a	LTP138	ltpFR	3	4	n/a	ELF	525	0	5	n/a	n/a	n/a	n/a	n/a	n/a
3591155	RECOG_RESP	n/a	LTP138	ltpFR	3	4	n/a	ELF	525	0	n/a	n/a	n/a	n/a	n/a	n/a	n/a
3592024	RECOG_CONF	n/a	LTP138	ltpFR	3	4	n/a	ELF	525	n/a	5	n/a	n/a	n/a	n/a	n/a	n/a
3593688	RECOG_LURE	n/a	LTP138	ltpFR	3	4	n/a	PUMPKIN	1142	0	5	n/a	n/a	n/a	n/a	n/a	n/a
3594362	RECOG_RESP	n/a	LTP138	ltpFR	3	4	n/a	PUMPKIN	1142	0	n/a	n/a	n/a	n/a	n/a	n/a	n/a
3595255	RECOG_CONF	n/a	LTP138	ltpFR	3	4	n/a	PUMPKIN	1142	n/a	5	n/a	n/a	n/a	n/a	n/a	n/a
3596917	RECOG_LURE	n/a	LTP138	ltpFR	3	4	n/a	BUG	187	0	2	n/a	n/a	n/a	n/a	n/a	n/a
3597850	RECOG_RESP	n/a	LTP138	ltpFR	3	4	n/a	BUG	187	0	n/a	n/a	n/a	n/a	n/a	n/a	n/a
3598799	RECOG_CONF	n/a	LTP138	ltpFR	3	4	n/a	BUG	187	n/a	2	n/a	n/a	n/a	n/a	n/a	n/a
3600305	RECOG_TARGET	n/a	LTP138	ltpFR	3	4	0	ARTICLE	42	1	5	0	n/a	n/a	n/a	n/a	n/a
3601149	RECOG_RESP	n/a	LTP138	ltpFR	3	4	0	ARTICLE	42	1	n/a	0	n/a	n/a	n/a	n/a	n/a
3601991	RECOG_CONF	n/a	LTP138	ltpFR	3	4	0	ARTICLE	42	n/a	5	0	n/a	n/a	n/a	n/a	n/a
3603593	RECOG_LURE	n/a	LTP138	ltpFR	3	4	n/a	HAIL	676	0	4	n/a	n/a	n/a	n/a	n/a	n/a
3604378	RECOG_RESP	n/a	LTP138	ltpFR	3	4	n/a	HAIL	676	0	n/a	n/a	n/a	n/a	n/a	n/a	n/a
3605320	RECOG_CONF	n/a	LTP138	ltpFR	3	4	n/a	HAIL	676	n/a	4	n/a	n/a	n/a	n/a	n/a	n/a
3606739	RECOG_TARGET	n/a	LTP138	ltpFR	3	4	1	ACTOR	5	1	5	1	n/a	n/a	n/a	n/a	n/a
3607577	RECOG_RESP	n/a	LTP138	ltpFR	3	4	1	ACTOR	5	1	n/a	1	n/a	n/a	n/a	n/a	n/a
3608368	RECOG_CONF	n/a	LTP138	ltpFR	3	4	1	ACTOR	5	n/a	5	1	n/a	n/a	n/a	n/a	n/a
3610069	RECOG_LURE	n/a	LTP138	ltpFR	3	4	n/a	PASSENGER	1020	0	4	n/a	n/a	n/a	n/a	n/a	n/a
3610883	RECOG_RESP	n/a	LTP138	ltpFR	3	4	n/a	PASSENGER	1020	0	n/a	n/a	n/a	n/a	n/a	n/a	n/a
3611688	RECOG_CONF	n/a	LTP138	ltpFR	3	4	n/a	PASSENGER	1020	n/a	4	n/a	n/a	n/a	n/a	n/a	n/a
3613290	RECOG_TARGET	n/a	LTP138	ltpFR	3	4	1	HEADBAND	696	0	3	0	n/a	n/a	n/a	n/a	n/a
3614714	RECOG_RESP	n/a	LTP138	ltpFR	3	4	1	HEADBAND	696	0	n/a	0	n/a	n/a	n/a	n/a	n/a
3615782	RECOG_CONF	n/a	LTP138	ltpFR	3	4	1	HEADBAND	696	n/a	3	0	n/a	n/a	n/a	n/a	n/a
3617286	RECOG_TARGET	n/a	LTP138	ltpFR	3	4	-1	STAPLER	1372	1	5	-1	n/a	n/a	n/a	n/a	n/a
3618278	RECOG_RESP	n/a	LTP138	ltpFR	3	4	-1	STAPLER	1372	1	n/a	-1	n/a	n/a	n/a	n/a	n/a
3619099	RECOG_CONF	n/a	LTP138	ltpFR	3	4	-1	STAPLER	1372	n/a	5	-1	n/a	n/a	n/a	n/a	n/a
3620657	RECOG_LURE	n/a	LTP138	ltpFR	3	4	n/a	BEER	114	0	5	n/a	n/a	n/a	n/a	n/a	n/a
3621820	RECOG_RESP	n/a	LTP138	ltpFR	3	4	n/a	BEER	114	0	n/a	n/a	n/a	n/a	n/a	n/a	n/a
3622724	RECOG_CONF	n/a	LTP138	ltpFR	3	4	n/a	BEER	114	n/a	5	n/a	n/a	n/a	n/a	n/a	n/a
3624427	RECOG_TARGET	n/a	LTP138	ltpFR	3	4	1	SIGN	1305	0	2	0	n/a	n/a	n/a	n/a	n/a
3625410	RECOG_RESP	n/a	LTP138	ltpFR	3	4	1	SIGN	1305	0	n/a	0	n/a	n/a	n/a	n/a	n/a
3626686	RECOG_CONF	n/a	LTP138	ltpFR	3	4	1	SIGN	1305	n/a	2	0	n/a	n/a	n/a	n/a	n/a
3628347	RECOG_LURE	n/a	LTP138	ltpFR	3	4	n/a	DIAL	457	0	2	n/a	n/a	n/a	n/a	n/a	n/a
3629731	RECOG_RESP	n/a	LTP138	ltpFR	3	4	n/a	DIAL	457	0	n/a	n/a	n/a	n/a	n/a	n/a	n/a
3630892	RECOG_CONF	n/a	LTP138	ltpFR	3	4	n/a	DIAL	457	n/a	2	n/a	n/a	n/a	n/a	n/a	n/a
3632485	RECOG_LURE	n/a	LTP138	ltpFR	3	4	n/a	CELLAR	267	0	3	n/a	n/a	n/a	n/a	n/a	n/a
3633956	RECOG_RESP	n/a	LTP138	ltpFR	3	4	n/a	CELLAR	267	0	n/a	n/a	n/a	n/a	n/a	n/a	n/a
3635010	RECOG_CONF	n/a	LTP138	ltpFR	3	4	n/a	CELLAR	267	n/a	3	n/a	n/a	n/a	n/a	n/a	n/a
3636671	RECOG_TARGET	n/a	LTP138	ltpFR	3	4	1	CREAM	402	1	5	0	n/a	n/a	n/a	n/a	n/a
3637496	RECOG_RESP	n/a	LTP138	ltpFR	3	4	1	CREAM	402	1	n/a	0	n/a	n/a	n/a	n/a	n/a
3638358	RECOG_CONF	n/a	LTP138	ltpFR	3	4	1	CREAM	402	n/a	5	0	n/a	n/a	n/a	n/a	n/a
3639884	RECOG_LURE	n/a	LTP138	ltpFR	3	4	n/a	PLAID	1080	0	5	n/a	n/a	n/a	n/a	n/a	n/a
3640650	RECOG_RESP	n/a	LTP138	ltpFR	3	4	n/a	PLAID	1080	0	n/a	n/a	n/a	n/a	n/a	n/a	n/a
3641440	RECOG_CONF	n/a	LTP138	ltpFR	3	4	n/a	PLAID	1080	n/a	5	n/a	n/a	n/a	n/a	n/a	n/a
3655518	REC_START	n/a	LTP138	ltpFR	3	5	n/a	n/a	n/a	n/a	n/a	n/a	n/a	n/a	n/a	n/a	n/a
3655550	RECOG_LURE	n/a	LTP138	ltpFR	3	5	n/a	DICTIONARY	463	1	5	n/a	n/a	n/a	n/a	n/a	n/a
3656426	RECOG_RESP	n/a	LTP138	ltpFR	3	5	n/a	DICTIONARY	463	1	n/a	n/a	n/a	n/a	n/a	n/a	n/a
3657705	RECOG_CONF	n/a	LTP138	ltpFR	3	5	n/a	DICTIONARY	463	n/a	5	n/a	n/a	n/a	n/a	n/a	n/a
3659386	RECOG_LURE	n/a	LTP138	ltpFR	3	5	n/a	SKATE	1313	0	3	n/a	n/a	n/a	n/a	n/a	n/a
3660594	RECOG_RESP	n/a	LTP138	ltpFR	3	5	n/a	SKATE	1313	0	n/a	n/a	n/a	n/a	n/a	n/a	n/a
3661781	RECOG_CONF	n/a	LTP138	ltpFR	3	5	n/a	SKATE	1313	n/a	3	n/a	n/a	n/a	n/a	n/a	n/a
3663348	RECOG_LURE	n/a	LTP138	ltpFR	3	5	n/a	TRAIN	1494	0	3	n/a	n/a	n/a	n/a	n/a	n/a
3664502	RECOG_RESP	n/a	LTP138	ltpFR	3	5	n/a	TRAIN	1494	0	n/a	n/a	n/a	n/a	n/a	n/a	n/a
3665290	RECOG_CONF	n/a	LTP138	ltpFR	3	5	n/a	TRAIN	1494	n/a	3	n/a	n/a	n/a	n/a	n/a	n/a
3667036	RECOG_LURE	n/a	LTP138	ltpFR	3	5	n/a	GUM	672	0	4	n/a	n/a	n/a	n/a	n/a	n/a
3667928	RECOG_RESP	n/a	LTP138	ltpFR	3	5	n/a	GUM	672	0	n/a	n/a	n/a	n/a	n/a	n/a	n/a
3668925	RECOG_CONF	n/a	LTP138	ltpFR	3	5	n/a	GUM	672	n/a	4	n/a	n/a	n/a	n/a	n/a	n/a
3670574	RECOG_TARGET	n/a	LTP138	ltpFR	3	5	0	AIRPLANE	12	1	5	1	n/a	n/a	n/a	n/a	n/a
3671391	RECOG_RESP	n/a	LTP138	ltpFR	3	5	0	AIRPLANE	12	1	n/a	1	n/a	n/a	n/a	n/a	n/a
3672275	RECOG_CONF	n/a	LTP138	ltpFR	3	5	0	AIRPLANE	12	n/a	5	1	n/a	n/a	n/a	n/a	n/a
3673837	RECOG_TARGET	n/a	LTP138	ltpFR	3	5	0	HAY	693	1	5	0	n/a	n/a	n/a	n/a	n/a
3674626	RECOG_RESP	n/a	LTP138	ltpFR	3	5	0	HAY	693	1	n/a	0	n/a	n/a	n/a	n/a	n/a
3675489	RECOG_CONF	n/a	LTP138	ltpFR	3	5	0	HAY	693	n/a	5	0	n/a	n/a	n/a	n/a	n/a
3677183	RECOG_LURE	n/a	LTP138	ltpFR	3	5	n/a	CANDLE	229	0	4	n/a	n/a	n/a	n/a	n/a	n/a
3678133	RECOG_RESP	n/a	LTP138	ltpFR	3	5	n/a	CANDLE	229	0	n/a	n/a	n/a	n/a	n/a	n/a	n/a
3679269	RECOG_CONF	n/a	LTP138	ltpFR	3	5	n/a	CANDLE	229	n/a	4	n/a	n/a	n/a	n/a	n/a	n/a
3680795	RECOG_TARGET	n/a	LTP138	ltpFR	3	5	0	BOY	161	1	5	1	n/a	n/a	n/a	n/a	n/a
3681828	RECOG_RESP	n/a	LTP138	ltpFR	3	5	0	BOY	161	1	n/a	1	n/a	n/a	n/a	n/a	n/a
3682738	RECOG_CONF	n/a	LTP138	ltpFR	3	5	0	BOY	161	n/a	5	1	n/a	n/a	n/a	n/a	n/a
3684399	RECOG_TARGET	n/a	LTP138	ltpFR	3	5	0	DRYER	503	1	4	1	n/a	n/a	n/a	n/a	n/a
3685709	RECOG_RESP	n/a	LTP138	ltpFR	3	5	0	DRYER	503	1	n/a	1	n/a	n/a	n/a	n/a	n/a
3686755	RECOG_CONF	n/a	LTP138	ltpFR	3	5	0	DRYER	503	n/a	4	1	n/a	n/a	n/a	n/a	n/a
3688611	RECOG_TARGET	n/a	LTP138	ltpFR	3	5	1	MARINE	869	1	4	1	n/a	n/a	n/a	n/a	n/a
3689566	RECOG_RESP	n/a	LTP138	ltpFR	3	5	1	MARINE	869	1	n/a	1	n/a	n/a	n/a	n/a	n/a
3690613	RECOG_CONF	n/a	LTP138	ltpFR	3	5	1	MARINE	869	n/a	4	1	n/a	n/a	n/a	n/a	n/a
3692140	RECOG_LURE	n/a	LTP138	ltpFR	3	5	n/a	SKUNK	1321	0	4	n/a	n/a	n/a	n/a	n/a	n/a
3692955	RECOG_RESP	n/a	LTP138	ltpFR	3	5	n/a	SKUNK	1321	0	n/a	n/a	n/a	n/a	n/a	n/a	n/a
3694245	RECOG_CONF	n/a	LTP138	ltpFR	3	5	n/a	SKUNK	1321	n/a	4	n/a	n/a	n/a	n/a	n/a	n/a
3695670	RECOG_TARGET	n/a	LTP138	ltpFR	3	5	0	TUBE	1516	1	5	0	n/a	n/a	n/a	n/a	n/a
3697186	RECOG_RESP	n/a	LTP138	ltpFR	3	5	0	TUBE	1516	1	n/a	0	n/a	n/a	n/a	n/a	n/a
3698143	RECOG_CONF	n/a	LTP138	ltpFR	3	5	0	TUBE	1516	n/a	5	0	n/a	n/a	n/a	n/a	n/a
3699723	RECOG_TARGET	n/a	LTP138	ltpFR	3	5	0	COLONEL	348	1	4	1	n/a	n/a	n/a	n/a	n/a
3700649	RECOG_RESP	n/a	LTP138	ltpFR	3	5	0	COLONEL	348	1	n/a	1	n/a	n/a	n/a	n/a	n/a
3701907	RECOG_CONF	n/a	LTP138	ltpFR	3	5	0	COLONEL	348	n/a	4	1	n/a	n/a	n/a	n/a	n/a
3703444	RECOG_TARGET	n/a	LTP138	ltpFR	3	5	1	BAY	102	1	4	0	n/a	n/a	n/a	n/a	n/a
3704295	RECOG_RESP	n/a	LTP138	ltpFR	3	5	1	BAY	102	1	n/a	0	n/a	n/a	n/a	n/a	n/a
3705399	RECOG_CONF	n/a	LTP138	ltpFR	3	5	1	BAY	102	n/a	4	0	n/a	n/a	n/a	n/a	n/a
3706774	RECOG_TARGET	n/a	LTP138	ltpFR	3	5	1	WOUND	1624	1	5	0	n/a	n/a	n/a	n/a	n/a
3707527	RECOG_RESP	n/a	LTP138	ltpFR	3	5	1	WOUND	1624	1	n/a	0	n/a	n/a	n/a	n/a	n/a
3708592	RECOG_CONF	n/a	LTP138	ltpFR	3	5	1	WOUND	1624	n/a	5	0	n/a	n/a	n/a	n/a	n/a
3710236	RECOG_LURE	n/a	LTP138	ltpFR	3	5	n/a	MEDAL	885	0	4	n/a	n/a	n/a	n/a	n/a	n/a
3711158	RECOG_RESP	n/a	LTP138	ltpFR	3	5	n/a	MEDAL	885	0	n/a	n/a	n/a	n/a	n/a	n/a	n/a
3712314	RECOG_CONF	n/a	LTP138	ltpFR	3	5	n/a	MEDAL	885	n/a	4	n/a	n/a	n/a	n/a	n/a	n/a
3713774	RECOG_TARGET	n/a	LTP138	ltpFR	3	5	1	GROCERY	664	1	3	0	n/a	n/a	n/a	n/a	n/a
3714513	RECOG_RESP	n/a	LTP138	ltpFR	3	5	1	GROCERY	664	1	n/a	0	n/a	n/a	n/a	n/a	n/a
3716025	RECOG_CONF	n/a	LTP138	ltpFR	3	5	1	GROCERY	664	n/a	3	0	n/a	n/a	n/a	n/a	n/a
3717461	RECOG_LURE	n/a	LTP138	ltpFR	3	5	n/a	HEART	697	0	5	n/a	n/a	n/a	n/a	n/a	n/a
3718500	RECOG_RESP	n/a	LTP138	ltpFR	3	5	n/a	HEART	697	0	n/a	n/a	n/a	n/a	n/a	n/a	n/a
3719534	RECOG_CONF	n/a	LTP138	ltpFR	3	5	n/a	HEART	697	n/a	5	n/a	n/a	n/a	n/a	n/a	n/a
3721149	RECOG_TARGET	n/a	LTP138	ltpFR	3	5	1	DRINK	498	0	3	0	n/a	n/a	n/a	n/a	n/a
3722747	RECOG_RESP	n/a	LTP138	ltpFR	3	5	1	DRINK	498	0	n/a	0	n/a	n/a	n/a	n/a	n/a
3724400	RECOG_CONF	n/a	LTP138	ltpFR	3	5	1	DRINK	498	n/a	3	0	n/a	n/a	n/a	n/a	n/a
3725868	RECOG_LURE	n/a	LTP138	ltpFR	3	5	n/a	SHORTS	1293	1	5	n/a	n/a	n/a	n/a	n/a	n/a
3726849	RECOG_RESP	n/a	LTP138	ltpFR	3	5	n/a	SHORTS	1293	1	n/a	n/a	n/a	n/a	n/a	n/a	n/a
3727720	RECOG_CONF	n/a	LTP138	ltpFR	3	5	n/a	SHORTS	1293	n/a	5	n/a	n/a	n/a	n/a	n/a	n/a
3755743	REC_START	n/a	LTP138	ltpFR	3	6	n/a	n/a	n/a	n/a	n/a	n/a	n/a	n/a	n/a	n/a	n/a
3755767	RECOG_TARGET	n/a	LTP138	ltpFR	3	6	1	DIRT	472	1	5	0	n/a	n/a	n/a	n/a	n/a
3756525	RECOG_RESP	n/a	LTP138	ltpFR	3	6	1	DIRT	472	1	n/a	0	n/a	n/a	n/a	n/a	n/a
3757439	RECOG_CONF	n/a	LTP138	ltpFR	3	6	1	DIRT	472	n/a	5	0	n/a	n/a	n/a	n/a	n/a
3759071	RECOG_TARGET	n/a	LTP138	ltpFR	3	6	1	JOURNAL	760	0	3	0	n/a	n/a	n/a	n/a	n/a
3760236	RECOG_RESP	n/a	LTP138	ltpFR	3	6	1	JOURNAL	760	0	n/a	0	n/a	n/a	n/a	n/a	n/a
3761445	RECOG_CONF	n/a	LTP138	ltpFR	3	6	1	JOURNAL	760	n/a	3	0	n/a	n/a	n/a	n/a	n/a
3763042	RECOG_TARGET	n/a	LTP138	ltpFR	3	6	-1	ZIPPER	1636	1	5	-1	n/a	n/a	n/a	n/a	n/a
3763835	RECOG_RESP	n/a	LTP138	ltpFR	3	6	-1	ZIPPER	1636	1	n/a	-1	n/a	n/a	n/a	n/a	n/a
3764711	RECOG_CONF	n/a	LTP138	ltpFR	3	6	-1	ZIPPER	1636	n/a	5	-1	n/a	n/a	n/a	n/a	n/a
3766429	RECOG_LURE	n/a	LTP138	ltpFR	3	6	n/a	DUST	508	0	4	n/a	n/a	n/a	n/a	n/a	n/a
3767701	RECOG_RESP	n/a	LTP138	ltpFR	3	6	n/a	DUST	508	0	n/a	n/a	n/a	n/a	n/a	n/a	n/a
3769127	RECOG_CONF	n/a	LTP138	ltpFR	3	6	n/a	DUST	508	n/a	4	n/a	n/a	n/a	n/a	n/a	n/a
3770641	RECOG_LURE	n/a	LTP138	ltpFR	3	6	n/a	TOWER	1490	0	4	n/a	n/a	n/a	n/a	n/a	n/a
3771452	RECOG_RESP	n/a	LTP138	ltpFR	3	6	n/a	TOWER	1490	0	n/a	n/a	n/a	n/a	n/a	n/a	n/a
3772659	RECOG_CONF	n/a	LTP138	ltpFR	3	6	n/a	TOWER	1490	n/a	4	n/a	n/a	n/a	n/a	n/a	n/a
3774104	RECOG_TARGET	n/a	LTP138	ltpFR	3	6	1	FAUCET	555	1	5	0	n/a	n/a	n/a	n/a	n/a
3775033	RECOG_RESP	n/a	LTP138	ltpFR	3	6	1	FAUCET	555	1	n/a	0	n/a	n/a	n/a	n/a	n/a
3775998	RECOG_CONF	n/a	LTP138	ltpFR	3	6	1	FAUCET	555	n/a	5	0	n/a	n/a	n/a	n/a	n/a
3777666	RECOG_TARGET	n/a	LTP138	ltpFR	3	6	1	COMPANION	357	0	4	1	n/a	n/a	n/a	n/a	n/a
3778644	RECOG_RESP	n/a	LTP138	ltpFR	3	6	1	COMPANION	357	0	n/a	1	n/a	n/a	n/a	n/a	n/a
3779773	RECOG_CONF	n/a	LTP138	ltpFR	3	6	1	COMPANION	357	n/a	4	1	n/a	n/a	n/a	n/a	n/a
3781336	RECOG_TARGET	n/a	LTP138	ltpFR	3	6	0	TEAM	1441	1	3	1	n/a	n/a	n/a	n/a	n/a
3782354	RECOG_RESP	n/a	LTP138	ltpFR	3	6	0	TEAM	1441	1	n/a	1	n/a	n/a	n/a	n/a	n/a
3783422	RECOG_CONF	n/a	LTP138	ltpFR	3	6	0	TEAM	1441	n/a	3	1	n/a	n/a	n/a	n/a	n/a
3785041	RECOG_TARGET	n/a	LTP138	ltpFR	3	6	-1	UNIFORM	1539	0	3	-1	n/a	n/a	n/a	n/a	n/a
3786480	RECOG_RESP	n/a	LTP138	ltpFR	3	6	-1	UNIFORM	1539	0	n/a	-1	n/a	n/a	n/a	n/a	n/a
3787642	RECOG_CONF	n/a	LTP138	ltpFR	3	6	-1	UNIFORM	1539	n/a	3	-1	n/a	n/a	n/a	n/a	n/a
3789344	RECOG_TARGET	n/a	LTP138	ltpFR	3	6	0	LAGOON	795	0	3	1	n/a	n/a	n/a	n/a	n/a
3790316	RECOG_RESP	n/a	LTP138	ltpFR	3	6	0	LAGOON	795	0	n/a	1	n/a	n/a	n/a	n/a	n/a
3791324	RECOG_CONF	n/a	LTP138	ltpFR	3	6	0	LAGOON	795	n/a	3	1	n/a	n/a	n/a	n/a	n/a
3793024	RECOG_LURE	n/a	LTP138	ltpFR	3	6	n/a	TURKEY	1520	0	4	n/a	n/a	n/a	n/a	n/a	n/a
3793951	RECOG_RESP	n/a	LTP138	ltpFR	3	6	n/a	TURKEY	1520	0	n/a	n/a	n/a	n/a	n/a	n/a	n/a
3795058	RECOG_CONF	n/a	LTP138	ltpFR	3	6	n/a	TURKEY	1520	n/a	4	n/a	n/a	n/a	n/a	n/a	n/a
3796569	RECOG_LURE	n/a	LTP138	ltpFR	3	6	n/a	COBRA	336	0	5	n/a	n/a	n/a	n/a	n/a	n/a
3797501	RECOG_RESP	n/a	LTP138	ltpFR	3	6	n/a	COBRA	336	0	n/a	n/a	n/a	n/a	n/a	n/a	n/a
3798455	RECOG_CONF	n/a	LTP138	ltpFR	3	6	n/a	COBRA	336	n/a	5	n/a	n/a	n/a	n/a	n/a	n/a
3800149	RECOG_LURE	n/a	LTP138	ltpFR	3	6	n/a	TEA	1439	0	3	n/a	n/a	n/a	n/a	n/a	n/a
3801880	RECOG_RESP	n/a	LTP138	ltpFR	3	6	n/a	TEA	1439	0	n/a	n/a	n/a	n/a	n/a	n/a	n/a
3802964	RECOG_CONF	n/a	LTP138	ltpFR	3	6	n/a	TEA	1439	n/a	3	n/a	n/a	n/a	n/a	n/a	n/a
3804552	RECOG_LURE	n/a	LTP138	ltpFR	3	6	n/a	CLAMP	316	0	4	n/a	n/a	n/a	n/a	n/a	n/a
3805357	RECOG_RESP	n/a	LTP138	ltpFR	3	6	n/a	CLAMP	316	0	n/a	n/a	n/a	n/a	n/a	n/a	n/a
3806340	RECOG_CONF	n/a	LTP138	ltpFR	3	6	n/a	CLAMP	316	n/a	4	n/a	n/a	n/a	n/a	n/a	n/a
3807956	RECOG_TARGET	n/a	LTP138	ltpFR	3	6	0	REPORT	1184	0	4	0	n/a	n/a	n/a	n/a	n/a
3808767	RECOG_RESP	n/a	LTP138	ltpFR	3	6	0	REPORT	1184	0	n/a	0	n/a	n/a	n/a	n/a	n/a
3809975	RECOG_CONF	n/a	LTP138	ltpFR	3	6	0	REPORT	1184	n/a	4	0	n/a	n/a	n/a	n/a	n/a
3811486	RECOG_TARGET	n/a	LTP138	ltpFR	3	6	0	BOLT	146	1	5	0	n/a	n/a	n/a	n/a	n/a
3812348	RECOG_RESP	n/a	LTP138	ltpFR	3	6	0	BOLT	146	1	n/a	0	n/a	n/a	n/a	n/a	n/a
3813272	RECOG_CONF	n/a	LTP138	ltpFR	3	6	0	BOLT	146	n/a	5	0	n/a	n/a	n/a	n/a	n/a
3814890	RECOG_TARGET	n/a	LTP138	ltpFR	3	6	1	STRAWBERRY	1391	1	3	1	n/a	n/a	n/a	n/a	n/a
3816083	RECOG_RESP	n/a	LTP138	ltpFR	3	6	1	STRAWBERRY	1391	1	n/a	1	n/a	n/a	n/a	n/a	n/a
3817439	RECOG_CONF	n/a	LTP138	ltpFR	3	6	1	STRAWBERRY	1391	n/a	3	1	n/a	n/a	n/a	n/a	n/a
3819177	RECOG_TARGET	n/a	LTP138	ltpFR	3	6	1	HINGE	709	1	5	0	n/a	n/a	n/a	n/a	n/a
3819853	RECOG_RESP	n/a	LTP138	ltpFR	3	6	1	HINGE	709	1	n/a	0	n/a	n/a	n/a	n/a	n/a
3820823	RECOG_CONF	n/a	LTP138	ltpFR	3	6	1	HINGE	709	n/a	5	0	n/a	n/a	n/a	n/a	n/a
3822581	RECOG_LURE	n/a	LTP138	ltpFR	3	6	n/a	MILK	895	0	3	n/a	n/a	n/a	n/a	n/a	n/a
3823631	RECOG_RESP	n/a	LTP138	ltpFR	3	6	n/a	MILK	895	0	n/a	n/a	n/a	n/a	n/a	n/a	n/a
3824880	RECOG_CONF	n/a	LTP138	ltpFR	3	6	n/a	MILK	895	n/a	3	n/a	n/a	n/a	n/a	n/a	n/a
3826526	RECOG_TARGET	n/a	LTP138	ltpFR	3	6	1	BRUISE	180	1	5	0	n/a	n/a	n/a	n/a	n/a
3827268	RECOG_RESP	n/a	LTP138	ltpFR	3	6	1	BRUISE	180	1	n/a	0	n/a	n/a	n/a	n/a	n/a
3828413	RECOG_CONF	n/a	LTP138	ltpFR	3	6	1	BRUISE	180	n/a	5	0	n/a	n/a	n/a	n/a	n/a
3846809	REC_START	n/a	LTP138	ltpFR	3	7	n/a	n/a	n/a	n/a	n/a	n/a	n/a	n/a	n/a	n/a	n/a
3846836	RECOG_LURE	n/a	LTP138	ltpFR	3	7	n/a	SQUIRREL	1362	0	3	n/a	n/a	n/a	n/a	n/a	n/a
3848042	RECOG_RESP	n/a	LTP138	ltpFR	3	7	n/a	SQUIRREL	1362	0	n/a	n/a	n/a	n/a	n/a	n/a	n/a
3849257	RECOG_CONF	n/a	LTP138	ltpFR	3	7	n/a	SQUIRREL	1362	n/a	3	n/a	n/a	n/a	n/a	n/a	n/a
3850740	RECOG_LURE	n/a	LTP138	ltpFR	3	7	n/a	LOOP	844	0	4	n/a	n/a	n/a	n/a	n/a	n/a
3851359	RECOG_RESP	n/a	LTP138	ltpFR	3	7	n/a	LOOP	844	0	n/a	n/a	n/a	n/a	n/a	n/a	n/a
3852481	RECOG_CONF	n/a	LTP138	ltpFR	3	7	n/a	LOOP	844	n/a	4	n/a	n/a	n/a	n/a	n/a	n/a
3853770	RECOG_LURE	n/a	LTP138	ltpFR	3	7	n/a	PIGMENT	1066	0	4	n/a	n/a	n/a	n/a	n/a	n/a
3854464	RECOG_RESP	n/a	LTP138	ltpFR	3	7	n/a	PIGMENT	1066	0	n/a	n/a	n/a	n/a	n/a	n/a	n/a
3855544	RECOG_CONF	n/a	LTP138	ltpFR	3	7	n/a	PIGMENT	1066	n/a	4	n/a	n/a	n/a	n/a	n/a	n/a
3857008	RECOG_LURE	n/a	LTP138	ltpFR	3	7	n/a	SACK	1220	0	4	n/a	n/a	n/a	n/a	n/a	n/a
3857663	RECOG_RESP	n/a	LTP138	ltpFR	3	7	n/a	SACK	1220	0	n/a	n/a	n/a	n/a	n/a	n/a	n/a
3858777	RECOG_CONF	n/a	LTP138	ltpFR	3	7	n/a	SACK	1220	n/a	4	n/a	n/a	n/a	n/a	n/a	n/a
3860312	RECOG_LURE	n/a	LTP138	ltpFR	3	7	n/a	OFFICE	972	0	4	n/a	n/a	n/a	n/a	n/a	n/a
3861047	RECOG_RESP	n/a	LTP138	ltpFR	3	7	n/a	OFFICE	972	0	n/a	n/a	n/a	n/a	n/a	n/a	n/a
3862239	RECOG_CONF	n/a	LTP138	ltpFR	3	7	n/a	OFFICE	972	n/a	4	n/a	n/a	n/a	n/a	n/a	n/a
3863733	RECOG_TARGET	n/a	LTP138	ltpFR	3	7	1	KITCHEN	778	1	5	0	n/a	n/a	n/a	n/a	n/a
3864453	RECOG_RESP	n/a	LTP138	ltpFR	3	7	1	KITCHEN	778	1	n/a	0	n/a	n/a	n/a	n/a	n/a
3865428	RECOG_CONF	n/a	LTP138	ltpFR	3	7	1	KITCHEN	778	n/a	5	0	n/a	n/a	n/a	n/a	n/a
3866988	RECOG_TARGET	n/a	LTP138	ltpFR	3	7	1	CABINET	212	1	4	0	n/a	n/a	n/a	n/a	n/a
3867863	RECOG_RESP	n/a	LTP138	ltpFR	3	7	1	CABINET	212	1	n/a	0	n/a	n/a	n/a	n/a	n/a
3869033	RECOG_CONF	n/a	LTP138	ltpFR	3	7	1	CABINET	212	n/a	4	0	n/a	n/a	n/a	n/a	n/a
3870492	RECOG_TARGET	n/a	LTP138	ltpFR	3	7	-1	WINE	1613	1	5	-1	n/a	n/a	n/a	n/a	n/a
3871153	RECOG_RESP	n/a	LTP138	ltpFR	3	7	-1	WINE	1613	1	n/a	-1	n/a	n/a	n/a	n/a	n/a
3872216	RECOG_CONF	n/a	LTP138	ltpFR	3	7	-1	WINE	1613	n/a	5	-1	n/a	n/a	n/a	n/a	n/a
3873805	RECOG_TARGET	n/a	LTP138	ltpFR	3	7	1	TYPEWRITER	1531	0	3	0	n/a	n/a	n/a	n/a	n/a
3874993	RECOG_RESP	n/a	LTP138	ltpFR	3	7	1	TYPEWRITER	1531	0	n/a	0	n/a	n/a	n/a	n/a	n/a
3875970	RECOG_CONF	n/a	LTP138	ltpFR	3	7	1	TYPEWRITER	1531	n/a	3	0	n/a	n/a	n/a	n/a	n/a
3877501	RECOG_LURE	n/a	LTP138	ltpFR	3	7	n/a	INVENTOR	743	0	4	n/a	n/a	n/a	n/a	n/a	n/a
3878433	RECOG_RESP	n/a	LTP138	ltpFR	3	7	n/a	INVENTOR	743	0	n/a	n/a	n/a	n/a	n/a	n/a	n/a
3879430	RECOG_CONF	n/a	LTP138	ltpFR	3	7	n/a	INVENTOR	743	n/a	4	n/a	n/a	n/a	n/a	n/a	n/a
3881013	RECOG_LURE	n/a	LTP138	ltpFR	3	7	n/a	TANK	1432	0	2	n/a	n/a	n/a	n/a	n/a	n/a
3881784	RECOG_RESP	n/a	LTP138	ltpFR	3	7	n/a	TANK	1432	0	n/a	n/a	n/a	n/a	n/a	n/a	n/a
3883102	RECOG_CONF	n/a	LTP138	ltpFR	3	7	n/a	TANK	1432	n/a	2	n/a	n/a	n/a	n/a	n/a	n/a
3884784	RECOG_TARGET	n/a	LTP138	ltpFR	3	7	1	CONVENT	370	0	4	0	n/a	n/a	n/a	n/a	n/a
3885559	RECOG_RESP	n/a	LTP138	ltpFR	3	7	1	CONVENT	370	0	n/a	0	n/a	n/a	n/a	n/a	n/a
3886893	RECOG_CONF	n/a	LTP138	ltpFR	3	7	1	CONVENT	370	n/a	4	0	n/a	n/a	n/a	n/a	n/a
3888488	RECOG_LURE	n/a	LTP138	ltpFR	3	7	n/a	WORM	1623	0	3	n/a	n/a	n/a	n/a	n/a	n/a
3889570	RECOG_RESP	n/a	LTP138	ltpFR	3	7	n/a	WORM	1623	0	n/a	n/a	n/a	n/a	n/a	n/a	n/a
3890854	RECOG_CONF	n/a	LTP138	ltpFR	3	7	n/a	WORM	1623	n/a	3	n/a	n/a	n/a	n/a	n/a	n/a
3892392	RECOG_LURE	n/a	LTP138	ltpFR	3	7	n/a	CHEF	290	0	4	n/a	n/a	n/a	n/a	n/a	n/a
3893240	RECOG_RESP	n/a	LTP138	ltpFR	3	7	n/a	CHEF	290	0	n/a	n/a	n/a	n/a	n/a	n/a	n/a
3894326	RECOG_CONF	n/a	LTP138	ltpFR	3	7	n/a	CHEF	290	n/a	4	n/a	n/a	n/a	n/a	n/a	n/a
3895946	RECOG_TARGET	n/a	LTP138	ltpFR	3	7	1	COOKBOOK	373	1	2	0	n/a	n/a	n/a	n/a	n/a
3898550	RECOG_RESP	n/a	LTP138	ltpFR	3	7	1	COOKBOOK	373	1	n/a	0	n/a	n/a	n/a	n/a	n/a
3900143	RECOG_CONF	n/a	LTP138	ltpFR	3	7	1	COOKBOOK	373	n/a	2	0	n/a	n/a	n/a	n/a	n/a
3901673	RECOG_TARGET	n/a	LTP138	ltpFR	3	7	0	PEN	1041	0	3	0	n/a	n/a	n/a	n/a	n/a
3902623	RECOG_RESP	n/a	LTP138	ltpFR	3	7	0	PEN	1041	0	n/a	0	n/a	n/a	n/a	n/a	n/a
3903695	RECOG_CONF	n/a	LTP138	ltpFR	3	7	0	PEN	1041	n/a	3	0	n/a	n/a	n/a	n/a	n/a
3905202	RECOG_LURE	n/a	LTP138	ltpFR	3	7	n/a	PRIEST	1122	0	4	n/a	n/a	n/a	n/a	n/a	n/a
3906295	RECOG_RESP	n/a	LTP138	ltpFR	3	7	n/a	PRIEST	1122	0	n/a	n/a	n/a	n/a	n/a	n/a	n/a
3907366	RECOG_CONF	n/a	LTP138	ltpFR	3	7	n/a	PRIEST	1122	n/a	4	n/a	n/a	n/a	n/a	n/a	n/a
3908889	RECOG_LURE	n/a	LTP138	ltpFR	3	7	n/a	SOCK	1339	0	2	n/a	n/a	n/a	n/a	n/a	n/a
3909838	RECOG_RESP	n/a	LTP138	ltpFR	3	7	n/a	SOCK	1339	0	n/a	n/a	n/a	n/a	n/a	n/a	n/a
3910992	RECOG_CONF	n/a	LTP138	ltpFR	3	7	n/a	SOCK	1339	n/a	2	n/a	n/a	n/a	n/a	n/a	n/a
3912677	RECOG_LURE	n/a	LTP138	ltpFR	3	7	n/a	FORK	594	0	3	n/a	n/a	n/a	n/a	n/a	n/a
3913720	RECOG_RESP	n/a	LTP138	ltpFR	3	7	n/a	FORK	594	0	n/a	n/a	n/a	n/a	n/a	n/a	n/a
3915218	RECOG_CONF	n/a	LTP138	ltpFR	3	7	n/a	FORK	594	n/a	3	n/a	n/a	n/a	n/a	n/a	n/a
3916955	RECOG_TARGET	n/a	LTP138	ltpFR	3	7	1	SHORTCAKE	1292	1	5	0	n/a	n/a	n/a	n/a	n/a
3917718	RECOG_RESP	n/a	LTP138	ltpFR	3	7	1	SHORTCAKE	1292	1	n/a	0	n/a	n/a	n/a	n/a	n/a
3918651	RECOG_CONF	n/a	LTP138	ltpFR	3	7	1	SHORTCAKE	1292	n/a	5	0	n/a	n/a	n/a	n/a	n/a
3926166	REC_START	n/a	LTP138	ltpFR	3	8	n/a	n/a	n/a	n/a	n/a	n/a	n/a	n/a	n/a	n/a	n/a
3926194	RECOG_LURE	n/a	LTP138	ltpFR	3	8	n/a	MAID	856	1	2	n/a	n/a	n/a	n/a	n/a	n/a
3927171	RECOG_RESP	n/a	LTP138	ltpFR	3	8	n/a	MAID	856	1	n/a	n/a	n/a	n/a	n/a	n/a	n/a
3928287	RECOG_CONF	n/a	LTP138	ltpFR	3	8	n/a	MAID	856	n/a	2	n/a	n/a	n/a	n/a	n/a	n/a
3929790	RECOG_TARGET	n/a	LTP138	ltpFR	3	8	-1	INFANT	737	1	5	-1	n/a	n/a	n/a	n/a	n/a
3930571	RECOG_RESP	n/a	LTP138	ltpFR	3	8	-1	INFANT	737	1	n/a	-1	n/a	n/a	n/a	n/a	n/a
3931534	RECOG_CONF	n/a	LTP138	ltpFR	3	8	-1	INFANT	737	n/a	5	-1	n/a	n/a	n/a	n/a	n/a
3933028	RECOG_TARGET	n/a	LTP138	ltpFR	3	8	-1	POCKET	1093	1	3	-1	n/a	n/a	n/a	n/a	n/a
