onset	duration	trial_type	sample	stim_file	subject	experiment	session	trial	task	item_name	item_num	recog_resp	recog_conf	resp	color_r	color_g	color_b	case	font
278.616	n/a	SESS_START	139308	n/a	LTP180	ltpFR	3	n/a	n/a	n/a	n/a	1	5	n/a	n/a	n/a	n/a	n/a	n/a
389.766	n/a	WORD	194883	wordpools/wasnorm_wordpool_less_exclusions.txt	LTP180	ltpFR	3	1	0	FOLLOWER	589	0	n/a	1	0.422607421875	0.5869140625	0	upper	zerothre.ttf
393.88	n/a	WORD	196940	wordpools/wasnorm_wordpool_less_exclusions.txt	LTP180	ltpFR	3	1	0	SNAIL	1332	n/a	n/a	0	0.422607421875	0.5869140625	0	upper	zerothre.ttf
398.03	n/a	WORD	199015	wordpools/wasnorm_wordpool_less_exclusions.txt	LTP180	ltpFR	3	1	1	BENCH	121	n/a	n/a	0	0.57763671875	0.412841796875	1	lower	amplitud.ttf
401.894	n/a	WORD	200947	wordpools/wasnorm_wordpool_less_exclusions.txt	LTP180	ltpFR	3	1	1	EMPLOYEE	531	n/a	n/a	1	0.57763671875	0.412841796875	1	lower	amplitud.ttf
405.826	n/a	WORD	202913	wordpools/wasnorm_wordpool_less_exclusions.txt	LTP180	ltpFR	3	1	0	RESTAURANT	1187	n/a	n/a	0	0.422607421875	0.5869140625	0	upper	zerothre.ttf
409.876	n/a	WORD	204938	wordpools/wasnorm_wordpool_less_exclusions.txt	LTP180	ltpFR	3	1	0	GROCERIES	663	n/a	n/a	0	0.422607421875	0.5869140625	0	upper	zerothre.ttf
413.89	n/a	WORD	206945	wordpools/wasnorm_wordpool_less_exclusions.txt	LTP180	ltpFR	3	1	0	TYPEWRITER	1531	n/a	n/a	0	0.422607421875	0.5869140625	0	upper	zerothre.ttf
417.74	n/a	WORD	208870	wordpools/wasnorm_wordpool_less_exclusions.txt	LTP180	ltpFR	3	1	0	MACHINE	852	n/a	n/a	0	0.422607421875	0.5869140625	0	upper	zerothre.ttf
421.704	n/a	WORD	210852	wordpools/wasnorm_wordpool_less_exclusions.txt	LTP180	ltpFR	3	1	0	WHEAT	1602	n/a	n/a	1	0.422607421875	0.5869140625	0	upper	zerothre.ttf
425.652	n/a	WORD	212826	wordpools/wasnorm_wordpool_less_exclusions.txt	LTP180	ltpFR	3	1	0	COLONEL	348	n/a	n/a	1	0.422607421875	0.5869140625	0	upper	zerothre.ttf
429.504	n/a	WORD	214752	wordpools/wasnorm_wordpool_less_exclusions.txt	LTP180	ltpFR	3	1	1	PASTRY	1022	n/a	n/a	0	0.57763671875	0.412841796875	1	lower	amplitud.ttf
433.45	n/a	WORD	216725	wordpools/wasnorm_wordpool_less_exclusions.txt	LTP180	ltpFR	3	1	1	TOAST	1471	n/a	n/a	0	0.57763671875	0.412841796875	1	lower	amplitud.ttf
437.346	n/a	WORD	218673	wordpools/wasnorm_wordpool_less_exclusions.txt	LTP180	ltpFR	3	1	1	SLUG	1329	n/a	n/a	0	0.57763671875	0.412841796875	1	lower	amplitud.ttf
441.262	n/a	WORD	220631	wordpools/wasnorm_wordpool_less_exclusions.txt	LTP180	ltpFR	3	1	1	FORT	595	n/a	n/a	0	0.57763671875	0.412841796875	1	lower	amplitud.ttf
445.276	n/a	WORD	222638	wordpools/wasnorm_wordpool_less_exclusions.txt	LTP180	ltpFR	3	1	1	GROOM	665	n/a	n/a	1	0.57763671875	0.412841796875	1	lower	amplitud.ttf
449.312	n/a	WORD	224656	wordpools/wasnorm_wordpool_less_exclusions.txt	LTP180	ltpFR	3	1	1	CYCLONE	431	n/a	n/a	0	0.57763671875	0.412841796875	1	lower	amplitud.ttf
455.082	n/a	REC_START	227541	n/a	LTP180	ltpFR	3	1	n/a	n/a	n/a	n/a	n/a	n/a	n/a	n/a	n/a	n/a	n/a
455.686	n/a	REC_WORD_VV	227843	wordpools/wasnorm_wordpool_less_exclusions.txt	LTP180	ltpFR	3	1	n/a	<>	-1	n/a	n/a	n/a	n/a	n/a	n/a	n/a	n/a
456.858	n/a	REC_WORD	228429	wordpools/wasnorm_wordpool_less_exclusions.txt	LTP180	ltpFR	3	1	1	CYCLONE	431	n/a	n/a	0	n/a	n/a	n/a	n/a	n/a
457.696	n/a	REC_WORD	228848	wordpools/wasnorm_wordpool_less_exclusions.txt	LTP180	ltpFR	3	1	1	TOAST	1471	n/a	n/a	0	n/a	n/a	n/a	n/a	n/a
458.35	n/a	REC_WORD	229175	wordpools/wasnorm_wordpool_less_exclusions.txt	LTP180	ltpFR	3	1	0	GROCERIES	663	n/a	n/a	0	n/a	n/a	n/a	n/a	n/a
459.802	n/a	REC_WORD	229901	wordpools/wasnorm_wordpool_less_exclusions.txt	LTP180	ltpFR	3	1	0	WHEAT	1602	n/a	n/a	1	n/a	n/a	n/a	n/a	n/a
461.358	n/a	REC_WORD	230679	wordpools/wasnorm_wordpool_less_exclusions.txt	LTP180	ltpFR	3	1	1	GROOM	665	n/a	n/a	1	n/a	n/a	n/a	n/a	n/a
468.394	n/a	REC_WORD	234197	wordpools/wasnorm_wordpool_less_exclusions.txt	LTP180	ltpFR	3	1	0	TYPEWRITER	1531	n/a	n/a	0	n/a	n/a	n/a	n/a	n/a
476.176	n/a	REC_WORD	238088	wordpools/wasnorm_wordpool_less_exclusions.txt	LTP180	ltpFR	3	1	1	CYCLONE	431	n/a	n/a	0	n/a	n/a	n/a	n/a	n/a
486.582	n/a	REC_WORD	243291	wordpools/wasnorm_wordpool_less_exclusions.txt	LTP180	ltpFR	3	1	n/a	BROOM	178	n/a	n/a	n/a	n/a	n/a	n/a	n/a	n/a
525.352	n/a	REC_WORD	262676	wordpools/wasnorm_wordpool_less_exclusions.txt	LTP180	ltpFR	3	1	0	GROCERIES	663	n/a	n/a	0	n/a	n/a	n/a	n/a	n/a
527.026	n/a	REC_WORD_VV	263513	wordpools/wasnorm_wordpool_less_exclusions.txt	LTP180	ltpFR	3	1	n/a	<>	-1	n/a	n/a	n/a	n/a	n/a	n/a	n/a	n/a
535.49	n/a	WORD	267745	wordpools/wasnorm_wordpool_less_exclusions.txt	LTP180	ltpFR	3	2	1	TREAD	1499	n/a	n/a	0	0.57763671875	0.412841796875	1	lower	amplitud.ttf
539.352	n/a	WORD	269676	wordpools/wasnorm_wordpool_less_exclusions.txt	LTP180	ltpFR	3	2	1	FOREHEAD	592	n/a	n/a	1	0.57763671875	0.412841796875	1	lower	amplitud.ttf
543.202	n/a	WORD	271601	wordpools/wasnorm_wordpool_less_exclusions.txt	LTP180	ltpFR	3	2	1	MATCH	878	n/a	n/a	0	0.57763671875	0.412841796875	1	lower	amplitud.ttf
547.216	n/a	WORD	273608	wordpools/wasnorm_wordpool_less_exclusions.txt	LTP180	ltpFR	3	2	1	JEWEL	757	n/a	n/a	0	0.57763671875	0.412841796875	1	lower	amplitud.ttf
551.354	n/a	WORD	275677	wordpools/wasnorm_wordpool_less_exclusions.txt	LTP180	ltpFR	3	2	1	WATERFALL	1595	n/a	n/a	0	0.57763671875	0.412841796875	1	lower	amplitud.ttf
555.348	n/a	WORD	277674	wordpools/wasnorm_wordpool_less_exclusions.txt	LTP180	ltpFR	3	2	1	SHELL	1281	n/a	n/a	0	0.57763671875	0.412841796875	1	lower	amplitud.ttf
559.38	n/a	WORD	279690	wordpools/wasnorm_wordpool_less_exclusions.txt	LTP180	ltpFR	3	2	0	DUNE	506	n/a	n/a	1	0.422607421875	0.5869140625	0	upper	zerothre.ttf
563.428	n/a	WORD	281714	wordpools/wasnorm_wordpool_less_exclusions.txt	LTP180	ltpFR	3	2	0	MINER	896	n/a	n/a	1	0.422607421875	0.5869140625	0	upper	zerothre.ttf
567.512	n/a	WORD	283756	wordpools/wasnorm_wordpool_less_exclusions.txt	LTP180	ltpFR	3	2	0	CUB	419	n/a	n/a	0	0.422607421875	0.5869140625	0	upper	zerothre.ttf
571.528	n/a	WORD	285764	wordpools/wasnorm_wordpool_less_exclusions.txt	LTP180	ltpFR	3	2	1	GRIZZLY	662	n/a	n/a	1	0.57763671875	0.412841796875	1	lower	amplitud.ttf
575.476	n/a	WORD	287738	wordpools/wasnorm_wordpool_less_exclusions.txt	LTP180	ltpFR	3	2	1	DRIVEWAY	500	n/a	n/a	0	0.57763671875	0.412841796875	1	lower	amplitud.ttf
579.708	n/a	WORD	289854	wordpools/wasnorm_wordpool_less_exclusions.txt	LTP180	ltpFR	3	2	0	COLESLAW	344	n/a	n/a	0	0.422607421875	0.5869140625	0	upper	zerothre.ttf
583.59	n/a	WORD	291795	wordpools/wasnorm_wordpool_less_exclusions.txt	LTP180	ltpFR	3	2	0	PARSLEY	1016	n/a	n/a	0	0.422607421875	0.5869140625	0	upper	zerothre.ttf
587.744	n/a	WORD	293872	wordpools/wasnorm_wordpool_less_exclusions.txt	LTP180	ltpFR	3	2	0	CUSTOMER	430	n/a	n/a	1	0.422607421875	0.5869140625	0	upper	zerothre.ttf
591.94	n/a	WORD	295970	wordpools/wasnorm_wordpool_less_exclusions.txt	LTP180	ltpFR	3	2	0	NEWSSTAND	949	n/a	n/a	1	0.422607421875	0.5869140625	0	upper	zerothre.ttf
595.786	n/a	WORD	297893	wordpools/wasnorm_wordpool_less_exclusions.txt	LTP180	ltpFR	3	2	0	NECK	939	n/a	n/a	0	0.422607421875	0.5869140625	0	upper	zerothre.ttf
601.792	n/a	REC_START	300896	n/a	LTP180	ltpFR	3	2	n/a	n/a	n/a	n/a	n/a	n/a	n/a	n/a	n/a	n/a	n/a
602.416	n/a	REC_WORD	301208	wordpools/wasnorm_wordpool_less_exclusions.txt	LTP180	ltpFR	3	2	0	NEWSSTAND	949	n/a	n/a	1	n/a	n/a	n/a	n/a	n/a
603.378	n/a	REC_WORD	301689	wordpools/wasnorm_wordpool_less_exclusions.txt	LTP180	ltpFR	3	2	0	CUSTOMER	430	n/a	n/a	1	n/a	n/a	n/a	n/a	n/a
604.196	n/a	REC_WORD	302098	wordpools/wasnorm_wordpool_less_exclusions.txt	LTP180	ltpFR	3	2	0	PARSLEY	1016	n/a	n/a	0	n/a	n/a	n/a	n/a	n/a
606.572	n/a	REC_WORD	303286	wordpools/wasnorm_wordpool_less_exclusions.txt	LTP180	ltpFR	3	2	0	CUB	419	n/a	n/a	0	n/a	n/a	n/a	n/a	n/a
624.078	n/a	REC_WORD	312039	wordpools/wasnorm_wordpool_less_exclusions.txt	LTP180	ltpFR	3	2	n/a	NECKLACE	940	n/a	n/a	n/a	n/a	n/a	n/a	n/a	n/a
625.4	n/a	REC_WORD	312700	wordpools/wasnorm_wordpool_less_exclusions.txt	LTP180	ltpFR	3	2	1	JEWEL	757	n/a	n/a	0	n/a	n/a	n/a	n/a	n/a
639.722	n/a	REC_WORD	319861	wordpools/wasnorm_wordpool_less_exclusions.txt	LTP180	ltpFR	3	2	0	NEWSSTAND	949	n/a	n/a	1	n/a	n/a	n/a	n/a	n/a
640.722	n/a	REC_WORD_VV	320361	wordpools/wasnorm_wordpool_less_exclusions.txt	LTP180	ltpFR	3	2	n/a	<>	-1	n/a	n/a	n/a	n/a	n/a	n/a	n/a	n/a
641.994	n/a	REC_WORD_VV	320997	wordpools/wasnorm_wordpool_less_exclusions.txt	LTP180	ltpFR	3	2	n/a	<>	-1	n/a	n/a	n/a	n/a	n/a	n/a	n/a	n/a
642.994	n/a	REC_WORD_VV	321497	wordpools/wasnorm_wordpool_less_exclusions.txt	LTP180	ltpFR	3	2	n/a	<>	-1	n/a	n/a	n/a	n/a	n/a	n/a	n/a	n/a
643.994	n/a	REC_WORD_VV	321997	wordpools/wasnorm_wordpool_less_exclusions.txt	LTP180	ltpFR	3	2	n/a	<>	-1	n/a	n/a	n/a	n/a	n/a	n/a	n/a	n/a
646.902	n/a	REC_WORD	323451	wordpools/wasnorm_wordpool_less_exclusions.txt	LTP180	ltpFR	3	2	0	CUB	419	n/a	n/a	0	n/a	n/a	n/a	n/a	n/a
653.97	n/a	REC_WORD_VV	326985	wordpools/wasnorm_wordpool_less_exclusions.txt	LTP180	ltpFR	3	2	n/a	<>	-1	n/a	n/a	n/a	n/a	n/a	n/a	n/a	n/a
664.008	n/a	REC_WORD	332004	wordpools/wasnorm_wordpool_less_exclusions.txt	LTP180	ltpFR	3	2	1	TREAD	1499	n/a	n/a	0	n/a	n/a	n/a	n/a	n/a
681.548	n/a	WORD	340774	wordpools/wasnorm_wordpool_less_exclusions.txt	LTP180	ltpFR	3	3	1	FOLDER	588	n/a	n/a	0	0.57763671875	0.412841796875	1	lower	amplitud.ttf
685.678	n/a	WORD	342839	wordpools/wasnorm_wordpool_less_exclusions.txt	LTP180	ltpFR	3	3	1	CUSTARD	429	n/a	n/a	0	0.57763671875	0.412841796875	1	lower	amplitud.ttf
689.812	n/a	WORD	344906	wordpools/wasnorm_wordpool_less_exclusions.txt	LTP180	ltpFR	3	3	1	WIRE	1616	n/a	n/a	0	0.57763671875	0.412841796875	1	lower	amplitud.ttf
693.744	n/a	WORD	346872	wordpools/wasnorm_wordpool_less_exclusions.txt	LTP180	ltpFR	3	3	1	SLOPE	1328	n/a	n/a	0	0.57763671875	0.412841796875	1	lower	amplitud.ttf
697.642	n/a	WORD	348821	wordpools/wasnorm_wordpool_less_exclusions.txt	LTP180	ltpFR	3	3	1	SEAGULL	1261	n/a	n/a	1	0.57763671875	0.412841796875	1	lower	amplitud.ttf
701.84	n/a	WORD	350920	wordpools/wasnorm_wordpool_less_exclusions.txt	LTP180	ltpFR	3	3	1	PIGEON	1065	n/a	n/a	1	0.57763671875	0.412841796875	1	lower	amplitud.ttf
705.872	n/a	WORD	352936	wordpools/wasnorm_wordpool_less_exclusions.txt	LTP180	ltpFR	3	3	1	ABDOMEN	1	n/a	n/a	1	0.57763671875	0.412841796875	1	lower	amplitud.ttf
709.704	n/a	WORD	354852	wordpools/wasnorm_wordpool_less_exclusions.txt	LTP180	ltpFR	3	3	1	BANQUET	86	n/a	n/a	0	0.57763671875	0.412841796875	1	lower	amplitud.ttf
713.604	n/a	WORD	356802	wordpools/wasnorm_wordpool_less_exclusions.txt	LTP180	ltpFR	3	3	1	CHURCH	307	n/a	n/a	0	0.57763671875	0.412841796875	1	lower	amplitud.ttf
717.634	n/a	WORD	358817	wordpools/wasnorm_wordpool_less_exclusions.txt	LTP180	ltpFR	3	3	1	SLACKS	1323	n/a	n/a	0	0.57763671875	0.412841796875	1	lower	amplitud.ttf
721.518	n/a	WORD	360759	wordpools/wasnorm_wordpool_less_exclusions.txt	LTP180	ltpFR	3	3	1	TAIL	1430	n/a	n/a	1	0.57763671875	0.412841796875	1	lower	amplitud.ttf
725.732	n/a	WORD	362866	wordpools/wasnorm_wordpool_less_exclusions.txt	LTP180	ltpFR	3	3	1	TICK	1463	n/a	n/a	1	0.57763671875	0.412841796875	1	lower	amplitud.ttf
729.748	n/a	WORD	364874	wordpools/wasnorm_wordpool_less_exclusions.txt	LTP180	ltpFR	3	3	1	DESSERT	453	n/a	n/a	1	0.57763671875	0.412841796875	1	lower	amplitud.ttf
733.914	n/a	WORD	366957	wordpools/wasnorm_wordpool_less_exclusions.txt	LTP180	ltpFR	3	3	1	BELT	120	n/a	n/a	0	0.57763671875	0.412841796875	1	lower	amplitud.ttf
738.062	n/a	WORD	369031	wordpools/wasnorm_wordpool_less_exclusions.txt	LTP180	ltpFR	3	3	1	PORCUPINE	1107	n/a	n/a	1	0.57763671875	0.412841796875	1	lower	amplitud.ttf
742.25	n/a	WORD	371125	wordpools/wasnorm_wordpool_less_exclusions.txt	LTP180	ltpFR	3	3	1	IDOL	733	n/a	n/a	0	0.57763671875	0.412841796875	1	lower	amplitud.ttf
748.32	n/a	REC_START	374160	n/a	LTP180	ltpFR	3	3	n/a	n/a	n/a	n/a	n/a	n/a	n/a	n/a	n/a	n/a	n/a
748.734	n/a	REC_WORD_VV	374367	wordpools/wasnorm_wordpool_less_exclusions.txt	LTP180	ltpFR	3	3	n/a	<>	-1	n/a	n/a	n/a	n/a	n/a	n/a	n/a	n/a
749.928	n/a	REC_WORD_VV	374964	wordpools/wasnorm_wordpool_less_exclusions.txt	LTP180	ltpFR	3	3	n/a	<>	-1	n/a	n/a	n/a	n/a	n/a	n/a	n/a	n/a
750.49	n/a	REC_WORD	375245	wordpools/wasnorm_wordpool_less_exclusions.txt	LTP180	ltpFR	3	3	n/a	BOULDER	155	n/a	n/a	n/a	n/a	n/a	n/a	n/a	n/a
750.798	n/a	REC_WORD	375399	wordpools/wasnorm_wordpool_less_exclusions.txt	LTP180	ltpFR	3	3	1	SEAGULL	1261	n/a	n/a	1	n/a	n/a	n/a	n/a	n/a
751.322	n/a	REC_WORD_VV	375661	wordpools/wasnorm_wordpool_less_exclusions.txt	LTP180	ltpFR	3	3	n/a	<>	-1	n/a	n/a	n/a	n/a	n/a	n/a	n/a	n/a
752.724	n/a	REC_WORD	376362	wordpools/wasnorm_wordpool_less_exclusions.txt	LTP180	ltpFR	3	3	1	IDOL	733	n/a	n/a	0	n/a	n/a	n/a	n/a	n/a
753.438	n/a	REC_WORD	376719	wordpools/wasnorm_wordpool_less_exclusions.txt	LTP180	ltpFR	3	3	1	BELT	120	n/a	n/a	0	n/a	n/a	n/a	n/a	n/a
757.304	n/a	REC_WORD	378652	wordpools/wasnorm_wordpool_less_exclusions.txt	LTP180	ltpFR	3	3	1	CUSTARD	429	n/a	n/a	0	n/a	n/a	n/a	n/a	n/a
761.824	n/a	REC_WORD	380912	wordpools/wasnorm_wordpool_less_exclusions.txt	LTP180	ltpFR	3	3	1	PORCUPINE	1107	n/a	n/a	1	n/a	n/a	n/a	n/a	n/a
768.908	n/a	REC_WORD	384454	wordpools/wasnorm_wordpool_less_exclusions.txt	LTP180	ltpFR	3	3	1	IDOL	733	n/a	n/a	0	n/a	n/a	n/a	n/a	n/a
827.438	n/a	WORD	413719	wordpools/wasnorm_wordpool_less_exclusions.txt	LTP180	ltpFR	3	4	-1	DAM	436	n/a	n/a	-1	1.0	1.0	1	upper	Verdana.ttf
831.47	n/a	WORD	415735	wordpools/wasnorm_wordpool_less_exclusions.txt	LTP180	ltpFR	3	4	-1	STREAM	1392	n/a	n/a	-1	1.0	1.0	1	upper	Verdana.ttf
835.502	n/a	WORD	417751	wordpools/wasnorm_wordpool_less_exclusions.txt	LTP180	ltpFR	3	4	-1	RACKET	1155	n/a	n/a	-1	1.0	1.0	1	upper	Verdana.ttf
839.484	n/a	WORD	419742	wordpools/wasnorm_wordpool_less_exclusions.txt	LTP180	ltpFR	3	4	-1	RADIATOR	1156	n/a	n/a	-1	1.0	1.0	1	upper	Verdana.ttf
843.316	n/a	WORD	421658	wordpools/wasnorm_wordpool_less_exclusions.txt	LTP180	ltpFR	3	4	-1	PAPER	1011	n/a	n/a	-1	1.0	1.0	1	upper	Verdana.ttf
847.448	n/a	WORD	423724	wordpools/wasnorm_wordpool_less_exclusions.txt	LTP180	ltpFR	3	4	-1	PENCIL	1042	n/a	n/a	-1	1.0	1.0	1	upper	Verdana.ttf
851.6	n/a	WORD	425800	wordpools/wasnorm_wordpool_less_exclusions.txt	LTP180	ltpFR	3	4	-1	SCRIBBLE	1256	n/a	n/a	-1	1.0	1.0	1	upper	Verdana.ttf
855.562	n/a	WORD	427781	wordpools/wasnorm_wordpool_less_exclusions.txt	LTP180	ltpFR	3	4	-1	SPATULA	1348	n/a	n/a	-1	1.0	1.0	1	upper	Verdana.ttf
859.628	n/a	WORD	429814	wordpools/wasnorm_wordpool_less_exclusions.txt	LTP180	ltpFR	3	4	-1	TWEEZERS	1526	n/a	n/a	-1	1.0	1.0	1	upper	Verdana.ttf
863.544	n/a	WORD	431772	wordpools/wasnorm_wordpool_less_exclusions.txt	LTP180	ltpFR	3	4	-1	TUNA	1518	n/a	n/a	-1	1.0	1.0	1	upper	Verdana.ttf
867.642	n/a	WORD	433821	wordpools/wasnorm_wordpool_less_exclusions.txt	LTP180	ltpFR	3	4	-1	HEATER	698	n/a	n/a	-1	1.0	1.0	1	upper	Verdana.ttf
871.544	n/a	WORD	435772	wordpools/wasnorm_wordpool_less_exclusions.txt	LTP180	ltpFR	3	4	-1	PEAR	1033	n/a	n/a	-1	1.0	1.0	1	upper	Verdana.ttf
875.756	n/a	WORD	437878	wordpools/wasnorm_wordpool_less_exclusions.txt	LTP180	ltpFR	3	4	-1	BEAN	105	n/a	n/a	-1	1.0	1.0	1	upper	Verdana.ttf
879.972	n/a	WORD	439986	wordpools/wasnorm_wordpool_less_exclusions.txt	LTP180	ltpFR	3	4	-1	TROUT	1511	n/a	n/a	-1	1.0	1.0	1	upper	Verdana.ttf
883.904	n/a	WORD	441952	wordpools/wasnorm_wordpool_less_exclusions.txt	LTP180	ltpFR	3	4	-1	POWDER	1117	n/a	n/a	-1	1.0	1.0	1	upper	Verdana.ttf
887.868	n/a	WORD	443934	wordpools/wasnorm_wordpool_less_exclusions.txt	LTP180	ltpFR	3	4	-1	PLIERS	1089	n/a	n/a	-1	1.0	1.0	1	upper	Verdana.ttf
893.776	n/a	REC_START	446888	n/a	LTP180	ltpFR	3	4	n/a	n/a	n/a	n/a	n/a	n/a	n/a	n/a	n/a	n/a	n/a
894.14	n/a	REC_WORD	447070	wordpools/wasnorm_wordpool_less_exclusions.txt	LTP180	ltpFR	3	4	-1	DAM	436	n/a	n/a	-1	n/a	n/a	n/a	n/a	n/a
894.732	n/a	REC_WORD	447366	wordpools/wasnorm_wordpool_less_exclusions.txt	LTP180	ltpFR	3	4	-1	RADIATOR	1156	n/a	n/a	-1	n/a	n/a	n/a	n/a	n/a
895.496	n/a	REC_WORD	447748	wordpools/wasnorm_wordpool_less_exclusions.txt	LTP180	ltpFR	3	4	-1	TWEEZERS	1526	n/a	n/a	-1	n/a	n/a	n/a	n/a	n/a
896.27	n/a	REC_WORD	448135	wordpools/wasnorm_wordpool_less_exclusions.txt	LTP180	ltpFR	3	4	-1	POWDER	1117	n/a	n/a	-1	n/a	n/a	n/a	n/a	n/a
896.998	n/a	REC_WORD	448499	wordpools/wasnorm_wordpool_less_exclusions.txt	LTP180	ltpFR	3	4	-1	TUNA	1518	n/a	n/a	-1	n/a	n/a	n/a	n/a	n/a
900.6	n/a	REC_WORD	450300	wordpools/wasnorm_wordpool_less_exclusions.txt	LTP180	ltpFR	3	4	-1	DAM	436	n/a	n/a	-1	n/a	n/a	n/a	n/a	n/a
905.316	n/a	REC_WORD	452658	wordpools/wasnorm_wordpool_less_exclusions.txt	LTP180	ltpFR	3	4	-1	TROUT	1511	n/a	n/a	-1	n/a	n/a	n/a	n/a	n/a
912.418	n/a	REC_WORD	456209	wordpools/wasnorm_wordpool_less_exclusions.txt	LTP180	ltpFR	3	4	-1	PLIERS	1089	n/a	n/a	-1	n/a	n/a	n/a	n/a	n/a
924.472	n/a	REC_WORD_VV	462236	wordpools/wasnorm_wordpool_less_exclusions.txt	LTP180	ltpFR	3	4	n/a	<>	-1	n/a	n/a	n/a	n/a	n/a	n/a	n/a	n/a
925.484	n/a	REC_WORD	462742	wordpools/wasnorm_wordpool_less_exclusions.txt	LTP180	ltpFR	3	4	-1	RADIATOR	1156	n/a	n/a	-1	n/a	n/a	n/a	n/a	n/a
944.334	n/a	REC_WORD	472167	wordpools/wasnorm_wordpool_less_exclusions.txt	LTP180	ltpFR	3	4	-1	TROUT	1511	n/a	n/a	-1	n/a	n/a	n/a	n/a	n/a
944.848	n/a	REC_WORD	472424	wordpools/wasnorm_wordpool_less_exclusions.txt	LTP180	ltpFR	3	4	-1	TUNA	1518	n/a	n/a	-1	n/a	n/a	n/a	n/a	n/a
945.362	n/a	REC_WORD_VV	472681	wordpools/wasnorm_wordpool_less_exclusions.txt	LTP180	ltpFR	3	4	n/a	<>	-1	n/a	n/a	n/a	n/a	n/a	n/a	n/a	n/a
951.566	n/a	REC_WORD	475783	wordpools/wasnorm_wordpool_less_exclusions.txt	LTP180	ltpFR	3	4	-1	PLIERS	1089	n/a	n/a	-1	n/a	n/a	n/a	n/a	n/a
973.21	n/a	WORD	486605	wordpools/wasnorm_wordpool_less_exclusions.txt	LTP180	ltpFR	3	5	1	AIRCRAFT	11	n/a	n/a	n/a	0.57763671875	0.412841796875	1	lower	amplitud.ttf
976.246	n/a	SLOW_MSG	488123	n/a	LTP180	ltpFR	3	5	n/a	n/a	n/a	n/a	n/a	n/a	n/a	n/a	n/a	n/a	n/a
978.718	n/a	WORD	489359	wordpools/wasnorm_wordpool_less_exclusions.txt	LTP180	ltpFR	3	5	1	PILOT	1070	n/a	n/a	n/a	0.57763671875	0.412841796875	1	lower	amplitud.ttf
981.748	n/a	SLOW_MSG	490874	n/a	LTP180	ltpFR	3	5	n/a	n/a	n/a	n/a	n/a	n/a	n/a	n/a	n/a	n/a	n/a
984.338	n/a	WORD	492169	wordpools/wasnorm_wordpool_less_exclusions.txt	LTP180	ltpFR	3	5	1	STEREO	1378	n/a	n/a	2	0.57763671875	0.412841796875	1	lower	amplitud.ttf
985.644	n/a	KEY_MSG	492822	n/a	LTP180	ltpFR	3	5	n/a	n/a	n/a	n/a	n/a	n/a	n/a	n/a	n/a	n/a	n/a
988.268	n/a	WORD	494134	wordpools/wasnorm_wordpool_less_exclusions.txt	LTP180	ltpFR	3	5	1	MOTEL	919	n/a	n/a	2	0.57763671875	0.412841796875	1	lower	amplitud.ttf
989.188	n/a	KEY_MSG	494594	n/a	LTP180	ltpFR	3	5	n/a	n/a	n/a	n/a	n/a	n/a	n/a	n/a	n/a	n/a	n/a
992.334	n/a	WORD	496167	wordpools/wasnorm_wordpool_less_exclusions.txt	LTP180	ltpFR	3	5	1	HOUND	724	n/a	n/a	2	0.57763671875	0.412841796875	1	lower	amplitud.ttf
993.288	n/a	KEY_MSG	496644	n/a	LTP180	ltpFR	3	5	n/a	n/a	n/a	n/a	n/a	n/a	n/a	n/a	n/a	n/a	n/a
996.182	n/a	WORD	498091	wordpools/wasnorm_wordpool_less_exclusions.txt	LTP180	ltpFR	3	5	1	DIARY	460	n/a	n/a	3	0.57763671875	0.412841796875	1	lower	amplitud.ttf
997.086	n/a	KEY_MSG	498543	n/a	LTP180	ltpFR	3	5	n/a	n/a	n/a	n/a	n/a	n/a	n/a	n/a	n/a	n/a	n/a
1000.17	n/a	WORD	500085	wordpools/wasnorm_wordpool_less_exclusions.txt	LTP180	ltpFR	3	5	1	HEN	703	n/a	n/a	2	0.57763671875	0.412841796875	1	lower	amplitud.ttf
1001.42	n/a	KEY_MSG	500710	n/a	LTP180	ltpFR	3	5	n/a	n/a	n/a	n/a	n/a	n/a	n/a	n/a	n/a	n/a	n/a
1003.996	n/a	WORD	501998	wordpools/wasnorm_wordpool_less_exclusions.txt	LTP180	ltpFR	3	5	1	RICE	1190	n/a	n/a	2	0.57763671875	0.412841796875	1	lower	amplitud.ttf
1004.848	n/a	KEY_MSG	502424	n/a	LTP180	ltpFR	3	5	n/a	n/a	n/a	n/a	n/a	n/a	n/a	n/a	n/a	n/a	n/a
1008.01	n/a	WORD	504005	wordpools/wasnorm_wordpool_less_exclusions.txt	LTP180	ltpFR	3	5	1	MAILBOX	857	n/a	n/a	0	0.57763671875	0.412841796875	1	lower	amplitud.ttf
1012.06	n/a	WORD	506030	wordpools/wasnorm_wordpool_less_exclusions.txt	LTP180	ltpFR	3	5	1	LANDSCAPE	799	n/a	n/a	0	0.57763671875	0.412841796875	1	lower	amplitud.ttf
1016.126	n/a	WORD	508063	wordpools/wasnorm_wordpool_less_exclusions.txt	LTP180	ltpFR	3	5	1	NAVIGATOR	938	n/a	n/a	1	0.57763671875	0.412841796875	1	lower	amplitud.ttf
1020.14	n/a	WORD	510070	wordpools/wasnorm_wordpool_less_exclusions.txt	LTP180	ltpFR	3	5	1	MEADOW	881	n/a	n/a	1	0.57763671875	0.412841796875	1	lower	amplitud.ttf
1024.024	n/a	WORD	512012	wordpools/wasnorm_wordpool_less_exclusions.txt	LTP180	ltpFR	3	5	1	VASE	1549	n/a	n/a	0	0.57763671875	0.412841796875	1	lower	amplitud.ttf
1027.904	n/a	WORD	513952	wordpools/wasnorm_wordpool_less_exclusions.txt	LTP180	ltpFR	3	5	1	STAMP	1370	n/a	n/a	0	0.57763671875	0.412841796875	1	lower	amplitud.ttf
1031.802	n/a	WORD	515901	wordpools/wasnorm_wordpool_less_exclusions.txt	LTP180	ltpFR	3	5	1	ROOT	1210	n/a	n/a	1	0.57763671875	0.412841796875	1	lower	amplitud.ttf
1035.65	n/a	WORD	517825	wordpools/wasnorm_wordpool_less_exclusions.txt	LTP180	ltpFR	3	5	1	CATCHER	258	n/a	n/a	1	0.57763671875	0.412841796875	1	lower	amplitud.ttf
1041.456	n/a	REC_START	520728	n/a	LTP180	ltpFR	3	5	n/a	n/a	n/a	n/a	n/a	n/a	n/a	n/a	n/a	n/a	n/a
1042.28	n/a	REC_WORD	521140	wordpools/wasnorm_wordpool_less_exclusions.txt	LTP180	ltpFR	3	5	n/a	CATCH	-1	n/a	n/a	n/a	n/a	n/a	n/a	n/a	n/a
1042.952	n/a	REC_WORD	521476	wordpools/wasnorm_wordpool_less_exclusions.txt	LTP180	ltpFR	3	5	1	CATCHER	258	n/a	n/a	1	n/a	n/a	n/a	n/a	n/a
1043.752	n/a	REC_WORD	521876	wordpools/wasnorm_wordpool_less_exclusions.txt	LTP180	ltpFR	3	5	1	VASE	1549	n/a	n/a	0	n/a	n/a	n/a	n/a	n/a
1045.008	n/a	REC_WORD_VV	522504	wordpools/wasnorm_wordpool_less_exclusions.txt	LTP180	ltpFR	3	5	n/a	<>	-1	n/a	n/a	n/a	n/a	n/a	n/a	n/a	n/a
1045.338	n/a	REC_WORD	522669	wordpools/wasnorm_wordpool_less_exclusions.txt	LTP180	ltpFR	3	5	n/a	ROOSTER	1209	n/a	n/a	n/a	n/a	n/a	n/a	n/a	n/a
1048.276	n/a	REC_WORD	524138	wordpools/wasnorm_wordpool_less_exclusions.txt	LTP180	ltpFR	3	5	1	PILOT	1070	n/a	n/a	n/a	n/a	n/a	n/a	n/a	n/a
1049.088	n/a	REC_WORD	524544	wordpools/wasnorm_wordpool_less_exclusions.txt	LTP180	ltpFR	3	5	1	AIRCRAFT	11	n/a	n/a	n/a	n/a	n/a	n/a	n/a	n/a
1055.884	n/a	REC_WORD	527942	wordpools/wasnorm_wordpool_less_exclusions.txt	LTP180	ltpFR	3	5	1	MEADOW	881	n/a	n/a	1	n/a	n/a	n/a	n/a	n/a
1059.972	n/a	REC_WORD_VV	529986	wordpools/wasnorm_wordpool_less_exclusions.txt	LTP180	ltpFR	3	5	n/a	<>	-1	n/a	n/a	n/a	n/a	n/a	n/a	n/a	n/a
1060.972	n/a	REC_WORD_VV	530486	wordpools/wasnorm_wordpool_less_exclusions.txt	LTP180	ltpFR	3	5	n/a	<>	-1	n/a	n/a	n/a	n/a	n/a	n/a	n/a	n/a
1061.972	n/a	REC_WORD_VV	530986	wordpools/wasnorm_wordpool_less_exclusions.txt	LTP180	ltpFR	3	5	n/a	<>	-1	n/a	n/a	n/a	n/a	n/a	n/a	n/a	n/a
1062.838	n/a	REC_WORD	531419	wordpools/wasnorm_wordpool_less_exclusions.txt	LTP180	ltpFR	3	5	1	LANDSCAPE	799	n/a	n/a	0	n/a	n/a	n/a	n/a	n/a
1067.168	n/a	REC_WORD	533584	wordpools/wasnorm_wordpool_less_exclusions.txt	LTP180	ltpFR	3	5	1	HEN	703	n/a	n/a	2	n/a	n/a	n/a	n/a	n/a
1115.862	n/a	REC_WORD	557931	wordpools/wasnorm_wordpool_less_exclusions.txt	LTP180	ltpFR	3	5	n/a	WRENCH	1625	n/a	n/a	n/a	n/a	n/a	n/a	n/a	n/a
1120.78	n/a	WORD	560390	wordpools/wasnorm_wordpool_less_exclusions.txt	LTP180	ltpFR	3	6	-1	BUCKET	184	n/a	n/a	-1	1.0	1.0	1	upper	Verdana.ttf
1124.992	n/a	WORD	562496	wordpools/wasnorm_wordpool_less_exclusions.txt	LTP180	ltpFR	3	6	-1	GARDEN	623	n/a	n/a	-1	1.0	1.0	1	upper	Verdana.ttf
1129.174	n/a	WORD	564587	wordpools/wasnorm_wordpool_less_exclusions.txt	LTP180	ltpFR	3	6	-1	LIGHTER	819	n/a	n/a	-1	1.0	1.0	1	upper	Verdana.ttf
1133.008	n/a	WORD	566504	wordpools/wasnorm_wordpool_less_exclusions.txt	LTP180	ltpFR	3	6	-1	MITTEN	902	n/a	n/a	-1	1.0	1.0	1	upper	Verdana.ttf
1137.038	n/a	WORD	568519	wordpools/wasnorm_wordpool_less_exclusions.txt	LTP180	ltpFR	3	6	-1	SINK	1309	n/a	n/a	-1	1.0	1.0	1	upper	Verdana.ttf
1141.07	n/a	WORD	570535	wordpools/wasnorm_wordpool_less_exclusions.txt	LTP180	ltpFR	3	6	-1	VINE	1568	n/a	n/a	-1	1.0	1.0	1	upper	Verdana.ttf
1145.27	n/a	WORD	572635	wordpools/wasnorm_wordpool_less_exclusions.txt	LTP180	ltpFR	3	6	-1	POND	1101	n/a	n/a	-1	1.0	1.0	1	upper	Verdana.ttf
1149.252	n/a	WORD	574626	wordpools/wasnorm_wordpool_less_exclusions.txt	LTP180	ltpFR	3	6	-1	POOL	1103	n/a	n/a	-1	1.0	1.0	1	upper	Verdana.ttf
1153.334	n/a	WORD	576667	wordpools/wasnorm_wordpool_less_exclusions.txt	LTP180	ltpFR	3	6	-1	TULIP	1517	n/a	n/a	-1	1.0	1.0	1	upper	Verdana.ttf
1157.264	n/a	WORD	578632	wordpools/wasnorm_wordpool_less_exclusions.txt	LTP180	ltpFR	3	6	-1	MEAL	882	n/a	n/a	-1	1.0	1.0	1	upper	Verdana.ttf
1161.466	n/a	WORD	580733	wordpools/wasnorm_wordpool_less_exclusions.txt	LTP180	ltpFR	3	6	-1	MICROWAVE	892	n/a	n/a	-1	1.0	1.0	1	upper	Verdana.ttf
1165.514	n/a	WORD	582757	wordpools/wasnorm_wordpool_less_exclusions.txt	LTP180	ltpFR	3	6	-1	RAFT	1159	n/a	n/a	-1	1.0	1.0	1	upper	Verdana.ttf
1169.646	n/a	WORD	584823	wordpools/wasnorm_wordpool_less_exclusions.txt	LTP180	ltpFR	3	6	-1	RIVER	1194	n/a	n/a	-1	1.0	1.0	1	upper	Verdana.ttf
1173.862	n/a	WORD	586931	wordpools/wasnorm_wordpool_less_exclusions.txt	LTP180	ltpFR	3	6	-1	PIT	1077	n/a	n/a	-1	1.0	1.0	1	upper	Verdana.ttf
1177.894	n/a	WORD	588947	wordpools/wasnorm_wordpool_less_exclusions.txt	LTP180	ltpFR	3	6	-1	MASCARA	875	n/a	n/a	-1	1.0	1.0	1	upper	Verdana.ttf
1182.11	n/a	WORD	591055	wordpools/wasnorm_wordpool_less_exclusions.txt	LTP180	ltpFR	3	6	-1	IGLOO	734	n/a	n/a	-1	1.0	1.0	1	upper	Verdana.ttf
1187.9	n/a	REC_START	593950	n/a	LTP180	ltpFR	3	6	n/a	n/a	n/a	n/a	n/a	n/a	n/a	n/a	n/a	n/a	n/a
1188.076	n/a	REC_WORD_VV	594038	wordpools/wasnorm_wordpool_less_exclusions.txt	LTP180	ltpFR	3	6	n/a	<>	-1	n/a	n/a	n/a	n/a	n/a	n/a	n/a	n/a
1189.984	n/a	REC_WORD	594992	wordpools/wasnorm_wordpool_less_exclusions.txt	LTP180	ltpFR	3	6	-1	BUCKET	184	n/a	n/a	-1	n/a	n/a	n/a	n/a	n/a
1190.326	n/a	REC_WORD	595163	wordpools/wasnorm_wordpool_less_exclusions.txt	LTP180	ltpFR	3	6	-1	GARDEN	623	n/a	n/a	-1	n/a	n/a	n/a	n/a	n/a
1190.872	n/a	REC_WORD	595436	wordpools/wasnorm_wordpool_less_exclusions.txt	LTP180	ltpFR	3	6	n/a	LINK	-1	n/a	n/a	n/a	n/a	n/a	n/a	n/a	n/a
1191.352	n/a	REC_WORD	595676	wordpools/wasnorm_wordpool_less_exclusions.txt	LTP180	ltpFR	3	6	n/a	TOOL	1480	n/a	n/a	n/a	n/a	n/a	n/a	n/a	n/a
1192.24	n/a	REC_WORD	596120	wordpools/wasnorm_wordpool_less_exclusions.txt	LTP180	ltpFR	3	6	-1	POOL	1103	n/a	n/a	-1	n/a	n/a	n/a	n/a	n/a
1192.772	n/a	REC_WORD	596386	wordpools/wasnorm_wordpool_less_exclusions.txt	LTP180	ltpFR	3	6	-1	RIVER	1194	n/a	n/a	-1	n/a	n/a	n/a	n/a	n/a
1193.836	n/a	REC_WORD	596918	wordpools/wasnorm_wordpool_less_exclusions.txt	LTP180	ltpFR	3	6	-1	IGLOO	734	n/a	n/a	-1	n/a	n/a	n/a	n/a	n/a
1194.738	n/a	REC_WORD_VV	597369	wordpools/wasnorm_wordpool_less_exclusions.txt	LTP180	ltpFR	3	6	n/a	<>	-1	n/a	n/a	n/a	n/a	n/a	n/a	n/a	n/a
1195.268	n/a	REC_WORD	597634	wordpools/wasnorm_wordpool_less_exclusions.txt	LTP180	ltpFR	3	6	-1	MASCARA	875	n/a	n/a	-1	n/a	n/a	n/a	n/a	n/a
1211.81	n/a	REC_WORD	605905	wordpools/wasnorm_wordpool_less_exclusions.txt	LTP180	ltpFR	3	6	-1	IGLOO	734	n/a	n/a	-1	n/a	n/a	n/a	n/a	n/a
1216.496	n/a	REC_WORD	608248	wordpools/wasnorm_wordpool_less_exclusions.txt	LTP180	ltpFR	3	6	n/a	LAKE	796	n/a	n/a	n/a	n/a	n/a	n/a	n/a	n/a
1267.554	n/a	WORD	633777	wordpools/wasnorm_wordpool_less_exclusions.txt	LTP180	ltpFR	3	7	0	SUGAR	1401	n/a	n/a	1	0.422607421875	0.5869140625	0	upper	zerothre.ttf
1271.738	n/a	WORD	635869	wordpools/wasnorm_wordpool_less_exclusions.txt	LTP180	ltpFR	3	7	0	ELECTRICIAN	521	n/a	n/a	1	0.422607421875	0.5869140625	0	upper	zerothre.ttf
1275.902	n/a	WORD	637951	wordpools/wasnorm_wordpool_less_exclusions.txt	LTP180	ltpFR	3	7	0	EARTH	515	n/a	n/a	1	0.422607421875	0.5869140625	0	upper	zerothre.ttf
1279.822	n/a	WORD	639911	wordpools/wasnorm_wordpool_less_exclusions.txt	LTP180	ltpFR	3	7	0	CROCODILE	411	n/a	n/a	0	0.422607421875	0.5869140625	0	upper	zerothre.ttf
1283.8	n/a	WORD	641900	wordpools/wasnorm_wordpool_less_exclusions.txt	LTP180	ltpFR	3	7	0	GROUND	666	n/a	n/a	1	0.422607421875	0.5869140625	0	upper	zerothre.ttf
1287.88	n/a	WORD	643940	wordpools/wasnorm_wordpool_less_exclusions.txt	LTP180	ltpFR	3	7	1	SCENERY	1247	n/a	n/a	0	0.57763671875	0.412841796875	1	lower	amplitud.ttf
1291.828	n/a	WORD	645914	wordpools/wasnorm_wordpool_less_exclusions.txt	LTP180	ltpFR	3	7	1	ROBE	1198	n/a	n/a	0	0.57763671875	0.412841796875	1	lower	amplitud.ttf
1296.012	n/a	WORD	648006	wordpools/wasnorm_wordpool_less_exclusions.txt	LTP180	ltpFR	3	7	1	STAKE	1368	n/a	n/a	0	0.57763671875	0.412841796875	1	lower	amplitud.ttf
1299.96	n/a	WORD	649980	wordpools/wasnorm_wordpool_less_exclusions.txt	LTP180	ltpFR	3	7	1	LAMP	798	n/a	n/a	0	0.57763671875	0.412841796875	1	lower	amplitud.ttf
1304.126	n/a	WORD	652063	wordpools/wasnorm_wordpool_less_exclusions.txt	LTP180	ltpFR	3	7	1	ZIPPER	1636	n/a	n/a	0	0.57763671875	0.412841796875	1	lower	amplitud.ttf
1308.074	n/a	WORD	654037	wordpools/wasnorm_wordpool_less_exclusions.txt	LTP180	ltpFR	3	7	1	SKIRT	1319	n/a	n/a	0	0.57763671875	0.412841796875	1	lower	amplitud.ttf
1312.206	n/a	WORD	656103	wordpools/wasnorm_wordpool_less_exclusions.txt	LTP180	ltpFR	3	7	0	FEATHER	557	n/a	n/a	1	0.422607421875	0.5869140625	0	upper	zerothre.ttf
1316.106	n/a	WORD	658053	wordpools/wasnorm_wordpool_less_exclusions.txt	LTP180	ltpFR	3	7	0	SATURN	1236	n/a	n/a	1	0.422607421875	0.5869140625	0	upper	zerothre.ttf
1320.054	n/a	WORD	660027	wordpools/wasnorm_wordpool_less_exclusions.txt	LTP180	ltpFR	3	7	0	HERB	704	n/a	n/a	0	0.422607421875	0.5869140625	0	upper	zerothre.ttf
1323.952	n/a	WORD	661976	wordpools/wasnorm_wordpool_less_exclusions.txt	LTP180	ltpFR	3	7	1	OYSTER	995	n/a	n/a	1	0.57763671875	0.412841796875	1	lower	amplitud.ttf
1327.8	n/a	WORD	663900	wordpools/wasnorm_wordpool_less_exclusions.txt	LTP180	ltpFR	3	7	1	SCALLOP	1242	n/a	n/a	1	0.57763671875	0.412841796875	1	lower	amplitud.ttf
1333.558	n/a	REC_START	666779	n/a	LTP180	ltpFR	3	7	n/a	n/a	n/a	n/a	n/a	n/a	n/a	n/a	n/a	n/a	n/a
1334.092	n/a	REC_WORD	667046	wordpools/wasnorm_wordpool_less_exclusions.txt	LTP180	ltpFR	3	7	1	SCALLOP	1242	n/a	n/a	1	n/a	n/a	n/a	n/a	n/a
1334.78	n/a	REC_WORD	667390	wordpools/wasnorm_wordpool_less_exclusions.txt	LTP180	ltpFR	3	7	1	OYSTER	995	n/a	n/a	1	n/a	n/a	n/a	n/a	n/a
1335.418	n/a	REC_WORD	667709	wordpools/wasnorm_wordpool_less_exclusions.txt	LTP180	ltpFR	3	7	0	SATURN	1236	n/a	n/a	1	n/a	n/a	n/a	n/a	n/a
1336.312	n/a	REC_WORD	668156	wordpools/wasnorm_wordpool_less_exclusions.txt	LTP180	ltpFR	3	7	0	EARTH	515	n/a	n/a	1	n/a	n/a	n/a	n/a	n/a
1337.598	n/a	REC_WORD	668799	wordpools/wasnorm_wordpool_less_exclusions.txt	LTP180	ltpFR	3	7	0	CROCODILE	411	n/a	n/a	0	n/a	n/a	n/a	n/a	n/a
1343.41	n/a	REC_WORD	671705	wordpools/wasnorm_wordpool_less_exclusions.txt	LTP180	ltpFR	3	7	-1	TULIP	1517	n/a	n/a	-1	n/a	n/a	n/a	n/a	n/a
1353.024	n/a	REC_WORD	676512	wordpools/wasnorm_wordpool_less_exclusions.txt	LTP180	ltpFR	3	7	0	EARTH	515	n/a	n/a	1	n/a	n/a	n/a	n/a	n/a
1412.81	n/a	WORD	706405	wordpools/wasnorm_wordpool_less_exclusions.txt	LTP180	ltpFR	3	8	1	TUNNEL	1519	n/a	n/a	3	0.57763671875	0.412841796875	1	lower	amplitud.ttf
1415.736	n/a	KEY_MSG	707868	n/a	LTP180	ltpFR	3	8	n/a	n/a	n/a	n/a	n/a	n/a	n/a	n/a	n/a	n/a	n/a
1418.128	n/a	WORD	709064	wordpools/wasnorm_wordpool_less_exclusions.txt	LTP180	ltpFR	3	8	1	KEEPER	769	n/a	n/a	1	0.57763671875	0.412841796875	1	lower	amplitud.ttf
1422.144	n/a	WORD	711072	wordpools/wasnorm_wordpool_less_exclusions.txt	LTP180	ltpFR	3	8	1	BUREAU	199	n/a	n/a	0	0.57763671875	0.412841796875	1	lower	amplitud.ttf
1425.978	n/a	WORD	712989	wordpools/wasnorm_wordpool_less_exclusions.txt	LTP180	ltpFR	3	8	0	BEETLE	116	n/a	n/a	0	0.422607421875	0.5869140625	0	upper	zerothre.ttf
1429.84	n/a	WORD	714920	wordpools/wasnorm_wordpool_less_exclusions.txt	LTP180	ltpFR	3	8	0	GOVERNOR	651	n/a	n/a	1	0.422607421875	0.5869140625	0	upper	zerothre.ttf
1434.022	n/a	WORD	717011	wordpools/wasnorm_wordpool_less_exclusions.txt	LTP180	ltpFR	3	8	0	CANDIDATE	228	n/a	n/a	1	0.422607421875	0.5869140625	0	upper	zerothre.ttf
1438.072	n/a	WORD	719036	wordpools/wasnorm_wordpool_less_exclusions.txt	LTP180	ltpFR	3	8	0	SPACE	1345	n/a	n/a	1	0.422607421875	0.5869140625	0	upper	zerothre.ttf
1442.186	n/a	WORD	721093	wordpools/wasnorm_wordpool_less_exclusions.txt	LTP180	ltpFR	3	8	1	GALAXY	617	n/a	n/a	0	0.57763671875	0.412841796875	1	lower	amplitud.ttf
1446.254	n/a	WORD	723127	wordpools/wasnorm_wordpool_less_exclusions.txt	LTP180	ltpFR	3	8	1	PICTURE	1061	n/a	n/a	0	0.57763671875	0.412841796875	1	lower	amplitud.ttf
1450.468	n/a	WORD	725234	wordpools/wasnorm_wordpool_less_exclusions.txt	LTP180	ltpFR	3	8	0	BILL	126	n/a	n/a	1	0.422607421875	0.5869140625	0	upper	zerothre.ttf
1454.35	n/a	WORD	727175	wordpools/wasnorm_wordpool_less_exclusions.txt	LTP180	ltpFR	3	8	0	TERMITE	1451	n/a	n/a	0	0.422607421875	0.5869140625	0	upper	zerothre.ttf
1458.316	n/a	WORD	729158	wordpools/wasnorm_wordpool_less_exclusions.txt	LTP180	ltpFR	3	8	0	STOCKING	1383	n/a	n/a	0	0.422607421875	0.5869140625	0	upper	zerothre.ttf
1462.364	n/a	WORD	731182	wordpools/wasnorm_wordpool_less_exclusions.txt	LTP180	ltpFR	3	8	0	CAPITAL	238	n/a	n/a	1	0.422607421875	0.5869140625	0	upper	zerothre.ttf
1466.548	n/a	WORD	733274	wordpools/wasnorm_wordpool_less_exclusions.txt	LTP180	ltpFR	3	8	1	WASHER	1592	n/a	n/a	0	0.57763671875	0.412841796875	1	lower	amplitud.ttf
1470.378	n/a	WORD	735189	wordpools/wasnorm_wordpool_less_exclusions.txt	LTP180	ltpFR	3	8	1	TOMATO	1476	n/a	n/a	1	0.57763671875	0.412841796875	1	lower	amplitud.ttf
1474.38	n/a	WORD	737190	wordpools/wasnorm_wordpool_less_exclusions.txt	LTP180	ltpFR	3	8	1	PICNIC	1060	n/a	n/a	0	0.57763671875	0.412841796875	1	lower	amplitud.ttf
1480.25	n/a	REC_START	740125	n/a	LTP180	ltpFR	3	8	n/a	n/a	n/a	n/a	n/a	n/a	n/a	n/a	n/a	n/a	n/a
1480.634	n/a	REC_WORD	740317	wordpools/wasnorm_wordpool_less_exclusions.txt	LTP180	ltpFR	3	8	1	TUNNEL	1519	n/a	n/a	3	n/a	n/a	n/a	n/a	n/a
1481.106	n/a	REC_WORD	740553	wordpools/wasnorm_wordpool_less_exclusions.txt	LTP180	ltpFR	3	8	1	PICNIC	1060	n/a	n/a	0	n/a	n/a	n/a	n/a	n/a
1482.02	n/a	REC_WORD	741010	wordpools/wasnorm_wordpool_less_exclusions.txt	LTP180	ltpFR	3	8	1	TOMATO	1476	n/a	n/a	1	n/a	n/a	n/a	n/a	n/a
1487.998	n/a	REC_WORD	743999	wordpools/wasnorm_wordpool_less_exclusions.txt	LTP180	ltpFR	3	8	1	PICTURE	1061	n/a	n/a	0	n/a	n/a	n/a	n/a	n/a
1494.264	n/a	REC_WORD	747132	wordpools/wasnorm_wordpool_less_exclusions.txt	LTP180	ltpFR	3	8	0	GOVERNOR	651	n/a	n/a	1	n/a	n/a	n/a	n/a	n/a
1495.386	n/a	REC_WORD	747693	wordpools/wasnorm_wordpool_less_exclusions.txt	LTP180	ltpFR	3	8	0	CANDIDATE	228	n/a	n/a	1	n/a	n/a	n/a	n/a	n/a
1508.724	n/a	REC_WORD_VV	754362	wordpools/wasnorm_wordpool_less_exclusions.txt	LTP180	ltpFR	3	8	n/a	<>	-1	n/a	n/a	n/a	n/a	n/a	n/a	n/a	n/a
1509.724	n/a	REC_WORD_VV	754862	wordpools/wasnorm_wordpool_less_exclusions.txt	LTP180	ltpFR	3	8	n/a	<>	-1	n/a	n/a	n/a	n/a	n/a	n/a	n/a	n/a
1545.724	n/a	REC_WORD	772862	wordpools/wasnorm_wordpool_less_exclusions.txt	LTP180	ltpFR	3	8	0	GOVERNOR	651	n/a	n/a	1	n/a	n/a	n/a	n/a	n/a
1546.724	n/a	REC_WORD_VV	773362	wordpools/wasnorm_wordpool_less_exclusions.txt	LTP180	ltpFR	3	8	n/a	<>	-1	n/a	n/a	n/a	n/a	n/a	n/a	n/a	n/a
1560.59	n/a	WORD	780295	wordpools/wasnorm_wordpool_less_exclusions.txt	LTP180	ltpFR	3	9	1	NUT	965	n/a	n/a	n/a	0.57763671875	0.412841796875	1	lower	amplitud.ttf
1563.62	n/a	SLOW_MSG	781810	n/a	LTP180	ltpFR	3	9	n/a	n/a	n/a	n/a	n/a	n/a	n/a	n/a	n/a	n/a	n/a
1565.976	n/a	WORD	782988	wordpools/wasnorm_wordpool_less_exclusions.txt	LTP180	ltpFR	3	9	1	SQUIRREL	1362	n/a	n/a	1	0.57763671875	0.412841796875	1	lower	amplitud.ttf
1569.892	n/a	WORD	784946	wordpools/wasnorm_wordpool_less_exclusions.txt	LTP180	ltpFR	3	9	1	CHIMNEY	301	n/a	n/a	0	0.57763671875	0.412841796875	1	lower	amplitud.ttf
1574.04	n/a	WORD	787020	wordpools/wasnorm_wordpool_less_exclusions.txt	LTP180	ltpFR	3	9	1	DONKEY	484	n/a	n/a	1	0.57763671875	0.412841796875	1	lower	amplitud.ttf
1577.894	n/a	WORD	788947	wordpools/wasnorm_wordpool_less_exclusions.txt	LTP180	ltpFR	3	9	1	THORN	1459	n/a	n/a	1	0.57763671875	0.412841796875	1	lower	amplitud.ttf
1581.72	n/a	WORD	790860	wordpools/wasnorm_wordpool_less_exclusions.txt	LTP180	ltpFR	3	9	1	MECHANIC	884	n/a	n/a	1	0.57763671875	0.412841796875	1	lower	amplitud.ttf
1585.736	n/a	WORD	792868	wordpools/wasnorm_wordpool_less_exclusions.txt	LTP180	ltpFR	3	9	1	MOOSE	915	n/a	n/a	1	0.57763671875	0.412841796875	1	lower	amplitud.ttf
1589.652	n/a	WORD	794826	wordpools/wasnorm_wordpool_less_exclusions.txt	LTP180	ltpFR	3	9	1	BANDIT	81	n/a	n/a	1	0.57763671875	0.412841796875	1	lower	amplitud.ttf
1593.668	n/a	WORD	796834	wordpools/wasnorm_wordpool_less_exclusions.txt	LTP180	ltpFR	3	9	1	DOUGH	489	n/a	n/a	0	0.57763671875	0.412841796875	1	lower	amplitud.ttf
1597.588	n/a	WORD	798794	wordpools/wasnorm_wordpool_less_exclusions.txt	LTP180	ltpFR	3	9	1	DOUGHNUT	490	n/a	n/a	0	0.57763671875	0.412841796875	1	lower	amplitud.ttf
1601.764	n/a	WORD	800882	wordpools/wasnorm_wordpool_less_exclusions.txt	LTP180	ltpFR	3	9	1	GLACIER	638	n/a	n/a	0	0.57763671875	0.412841796875	1	lower	amplitud.ttf
1605.664	n/a	WORD	802832	wordpools/wasnorm_wordpool_less_exclusions.txt	LTP180	ltpFR	3	9	1	SWEATER	1419	n/a	n/a	0	0.57763671875	0.412841796875	1	lower	amplitud.ttf
1609.878	n/a	WORD	804939	wordpools/wasnorm_wordpool_less_exclusions.txt	LTP180	ltpFR	3	9	1	CROOK	412	n/a	n/a	1	0.57763671875	0.412841796875	1	lower	amplitud.ttf
1613.826	n/a	WORD	806913	wordpools/wasnorm_wordpool_less_exclusions.txt	LTP180	ltpFR	3	9	1	WOLF	1619	n/a	n/a	1	0.57763671875	0.412841796875	1	lower	amplitud.ttf
1617.708	n/a	WORD	808854	wordpools/wasnorm_wordpool_less_exclusions.txt	LTP180	ltpFR	3	9	1	SHOE	1288	n/a	n/a	0	0.57763671875	0.412841796875	1	lower	amplitud.ttf
1621.824	n/a	WORD	810912	wordpools/wasnorm_wordpool_less_exclusions.txt	LTP180	ltpFR	3	9	1	COBBLER	335	n/a	n/a	1	0.57763671875	0.412841796875	1	lower	amplitud.ttf
1627.664	n/a	REC_START	813832	n/a	LTP180	ltpFR	3	9	n/a	n/a	n/a	n/a	n/a	n/a	n/a	n/a	n/a	n/a	n/a
1628.258	n/a	REC_WORD	814129	wordpools/wasnorm_wordpool_less_exclusions.txt	LTP180	ltpFR	3	9	1	NUT	965	n/a	n/a	n/a	n/a	n/a	n/a	n/a	n/a
1628.802	n/a	REC_WORD	814401	wordpools/wasnorm_wordpool_less_exclusions.txt	LTP180	ltpFR	3	9	1	SQUIRREL	1362	n/a	n/a	1	n/a	n/a	n/a	n/a	n/a
1629.802	n/a	REC_WORD_VV	814901	wordpools/wasnorm_wordpool_less_exclusions.txt	LTP180	ltpFR	3	9	n/a	<>	-1	n/a	n/a	n/a	n/a	n/a	n/a	n/a	n/a
1630.008	n/a	REC_WORD	815004	wordpools/wasnorm_wordpool_less_exclusions.txt	LTP180	ltpFR	3	9	1	BANDIT	81	n/a	n/a	1	n/a	n/a	n/a	n/a	n/a
1631.346	n/a	REC_WORD	815673	wordpools/wasnorm_wordpool_less_exclusions.txt	LTP180	ltpFR	3	9	1	BANDIT	81	n/a	n/a	1	n/a	n/a	n/a	n/a	n/a
1632.564	n/a	REC_WORD_VV	816282	wordpools/wasnorm_wordpool_less_exclusions.txt	LTP180	ltpFR	3	9	n/a	<>	-1	n/a	n/a	n/a	n/a	n/a	n/a	n/a	n/a
1633.646	n/a	REC_WORD	816823	wordpools/wasnorm_wordpool_less_exclusions.txt	LTP180	ltpFR	3	9	1	ZIPPER	1636	n/a	n/a	0	n/a	n/a	n/a	n/a	n/a
1636.27	n/a	REC_WORD	818135	wordpools/wasnorm_wordpool_less_exclusions.txt	LTP180	ltpFR	3	9	n/a	PANTS	1010	n/a	n/a	n/a	n/a	n/a	n/a	n/a	n/a
1638.554	n/a	REC_WORD	819277	wordpools/wasnorm_wordpool_less_exclusions.txt	LTP180	ltpFR	3	9	n/a	THIEF	1456	n/a	n/a	n/a	n/a	n/a	n/a	n/a	n/a
1641.458	n/a	REC_WORD	820729	wordpools/wasnorm_wordpool_less_exclusions.txt	LTP180	ltpFR	3	9	1	COBBLER	335	n/a	n/a	1	n/a	n/a	n/a	n/a	n/a
1647.082	n/a	REC_WORD	823541	wordpools/wasnorm_wordpool_less_exclusions.txt	LTP180	ltpFR	3	9	1	ZIPPER	1636	n/a	n/a	0	n/a	n/a	n/a	n/a	n/a
1656.322	n/a	REC_WORD	828161	wordpools/wasnorm_wordpool_less_exclusions.txt	LTP180	ltpFR	3	9	1	BANDIT	81	n/a	n/a	1	n/a	n/a	n/a	n/a	n/a
1682.428	n/a	REC_WORD_VV	841214	wordpools/wasnorm_wordpool_less_exclusions.txt	LTP180	ltpFR	3	9	n/a	<>	-1	n/a	n/a	n/a	n/a	n/a	n/a	n/a	n/a
1707.786	n/a	WORD	853893	wordpools/wasnorm_wordpool_less_exclusions.txt	LTP180	ltpFR	3	10	0	HERD	705	n/a	n/a	0	0.422607421875	0.5869140625	0	upper	zerothre.ttf
1711.902	n/a	WORD	855951	wordpools/wasnorm_wordpool_less_exclusions.txt	LTP180	ltpFR	3	10	0	CATTLE	261	n/a	n/a	1	0.422607421875	0.5869140625	0	upper	zerothre.ttf
1715.72	n/a	WORD	857860	wordpools/wasnorm_wordpool_less_exclusions.txt	LTP180	ltpFR	3	10	0	BOOT	150	n/a	n/a	0	0.422607421875	0.5869140625	0	upper	zerothre.ttf
1719.666	n/a	WORD	859833	wordpools/wasnorm_wordpool_less_exclusions.txt	LTP180	ltpFR	3	10	0	SOFA	1342	n/a	n/a	0	0.422607421875	0.5869140625	0	upper	zerothre.ttf
1723.768	n/a	WORD	861884	wordpools/wasnorm_wordpool_less_exclusions.txt	LTP180	ltpFR	3	10	0	CHAIRPERSON	275	n/a	n/a	0	0.422607421875	0.5869140625	0	upper	zerothre.ttf
1727.694	n/a	WORD	863847	wordpools/wasnorm_wordpool_less_exclusions.txt	LTP180	ltpFR	3	10	0	DIME	466	n/a	n/a	0	0.422607421875	0.5869140625	0	upper	zerothre.ttf
1731.694	n/a	WORD	865847	wordpools/wasnorm_wordpool_less_exclusions.txt	LTP180	ltpFR	3	10	0	CANVAS	234	n/a	n/a	0	0.422607421875	0.5869140625	0	upper	zerothre.ttf
1735.792	n/a	WORD	867896	wordpools/wasnorm_wordpool_less_exclusions.txt	LTP180	ltpFR	3	10	0	CONE	363	n/a	n/a	0	0.422607421875	0.5869140625	0	upper	zerothre.ttf
1739.874	n/a	WORD	869937	wordpools/wasnorm_wordpool_less_exclusions.txt	LTP180	ltpFR	3	10	0	CUSHION	428	n/a	n/a	0	0.422607421875	0.5869140625	0	upper	zerothre.ttf
1743.772	n/a	WORD	871886	wordpools/wasnorm_wordpool_less_exclusions.txt	LTP180	ltpFR	3	10	0	PIE	1062	n/a	n/a	0	0.422607421875	0.5869140625	0	upper	zerothre.ttf
1747.988	n/a	WORD	873994	wordpools/wasnorm_wordpool_less_exclusions.txt	LTP180	ltpFR	3	10	0	TABLE	1426	n/a	n/a	0	0.422607421875	0.5869140625	0	upper	zerothre.ttf
1751.854	n/a	WORD	875927	wordpools/wasnorm_wordpool_less_exclusions.txt	LTP180	ltpFR	3	10	0	SAPPHIRE	1234	n/a	n/a	0	0.422607421875	0.5869140625	0	upper	zerothre.ttf
1755.922	n/a	WORD	877961	wordpools/wasnorm_wordpool_less_exclusions.txt	LTP180	ltpFR	3	10	0	PEARL	1034	n/a	n/a	0	0.422607421875	0.5869140625	0	upper	zerothre.ttf
1759.934	n/a	WORD	879967	wordpools/wasnorm_wordpool_less_exclusions.txt	LTP180	ltpFR	3	10	0	TRACTOR	1493	n/a	n/a	1	0.422607421875	0.5869140625	0	upper	zerothre.ttf
1763.8	n/a	WORD	881900	wordpools/wasnorm_wordpool_less_exclusions.txt	LTP180	ltpFR	3	10	0	GARAGE	621	n/a	n/a	1	0.422607421875	0.5869140625	0	upper	zerothre.ttf
1767.95	n/a	WORD	883975	wordpools/wasnorm_wordpool_less_exclusions.txt	LTP180	ltpFR	3	10	0	PIKE	1067	n/a	n/a	0	0.422607421875	0.5869140625	0	upper	zerothre.ttf
1773.588	n/a	REC_START	886794	n/a	LTP180	ltpFR	3	10	n/a	n/a	n/a	n/a	n/a	n/a	n/a	n/a	n/a	n/a	n/a
1774.098	n/a	REC_WORD_VV	887049	wordpools/wasnorm_wordpool_less_exclusions.txt	LTP180	ltpFR	3	10	n/a	<>	-1	n/a	n/a	n/a	n/a	n/a	n/a	n/a	n/a
1774.856	n/a	REC_WORD	887428	wordpools/wasnorm_wordpool_less_exclusions.txt	LTP180	ltpFR	3	10	n/a	HERO	706	n/a	n/a	n/a	n/a	n/a	n/a	n/a	n/a
1775.344	n/a	REC_WORD	887672	wordpools/wasnorm_wordpool_less_exclusions.txt	LTP180	ltpFR	3	10	0	PIKE	1067	n/a	n/a	0	n/a	n/a	n/a	n/a	n/a
1777.134	n/a	REC_WORD_VV	888567	wordpools/wasnorm_wordpool_less_exclusions.txt	LTP180	ltpFR	3	10	n/a	<>	-1	n/a	n/a	n/a	n/a	n/a	n/a	n/a	n/a
1778.134	n/a	REC_WORD_VV	889067	wordpools/wasnorm_wordpool_less_exclusions.txt	LTP180	ltpFR	3	10	n/a	<>	-1	n/a	n/a	n/a	n/a	n/a	n/a	n/a	n/a
1780.352	n/a	REC_WORD	890176	wordpools/wasnorm_wordpool_less_exclusions.txt	LTP180	ltpFR	3	10	0	PIKE	1067	n/a	n/a	0	n/a	n/a	n/a	n/a	n/a
1788.3	n/a	REC_WORD_VV	894150	wordpools/wasnorm_wordpool_less_exclusions.txt	LTP180	ltpFR	3	10	n/a	<>	-1	n/a	n/a	n/a	n/a	n/a	n/a	n/a	n/a
1789.3	n/a	REC_WORD_VV	894650	wordpools/wasnorm_wordpool_less_exclusions.txt	LTP180	ltpFR	3	10	n/a	<>	-1	n/a	n/a	n/a	n/a	n/a	n/a	n/a	n/a
1792.148	n/a	REC_WORD_VV	896074	wordpools/wasnorm_wordpool_less_exclusions.txt	LTP180	ltpFR	3	10	n/a	<>	-1	n/a	n/a	n/a	n/a	n/a	n/a	n/a	n/a
1792.72	n/a	REC_WORD	896360	wordpools/wasnorm_wordpool_less_exclusions.txt	LTP180	ltpFR	3	10	n/a	EMERALD	528	n/a	n/a	n/a	n/a	n/a	n/a	n/a	n/a
1793.764	n/a	REC_WORD	896882	wordpools/wasnorm_wordpool_less_exclusions.txt	LTP180	ltpFR	3	10	1	JEWEL	757	n/a	n/a	0	n/a	n/a	n/a	n/a	n/a
1806.032	n/a	REC_WORD_VV	903016	wordpools/wasnorm_wordpool_less_exclusions.txt	LTP180	ltpFR	3	10	n/a	<>	-1	n/a	n/a	n/a	n/a	n/a	n/a	n/a	n/a
1808.726	n/a	REC_WORD	904363	wordpools/wasnorm_wordpool_less_exclusions.txt	LTP180	ltpFR	3	10	0	GARAGE	621	n/a	n/a	1	n/a	n/a	n/a	n/a	n/a
1835.85	n/a	REC_WORD_VV	917925	wordpools/wasnorm_wordpool_less_exclusions.txt	LTP180	ltpFR	3	10	n/a	<>	-1	n/a	n/a	n/a	n/a	n/a	n/a	n/a	n/a
1853.194	n/a	WORD	926597	wordpools/wasnorm_wordpool_less_exclusions.txt	LTP180	ltpFR	3	11	-1	VEGETABLE	1552	n/a	n/a	-1	1.0	1.0	1	upper	Verdana.ttf
1857.172	n/a	WORD	928586	wordpools/wasnorm_wordpool_less_exclusions.txt	LTP180	ltpFR	3	11	-1	BLACKBOARD	133	n/a	n/a	-1	1.0	1.0	1	upper	Verdana.ttf
1861.172	n/a	WORD	930586	wordpools/wasnorm_wordpool_less_exclusions.txt	LTP180	ltpFR	3	11	-1	BOULEVARD	156	n/a	n/a	-1	1.0	1.0	1	upper	Verdana.ttf
1865.388	n/a	WORD	932694	wordpools/wasnorm_wordpool_less_exclusions.txt	LTP180	ltpFR	3	11	-1	BARTENDER	92	n/a	n/a	-1	1.0	1.0	1	upper	Verdana.ttf
1869.286	n/a	WORD	934643	wordpools/wasnorm_wordpool_less_exclusions.txt	LTP180	ltpFR	3	11	-1	KEG	770	n/a	n/a	-1	1.0	1.0	1	upper	Verdana.ttf
1873.138	n/a	WORD	936569	wordpools/wasnorm_wordpool_less_exclusions.txt	LTP180	ltpFR	3	11	-1	CARRIAGE	248	n/a	n/a	-1	1.0	1.0	1	upper	Verdana.ttf
1877.066	n/a	WORD	938533	wordpools/wasnorm_wordpool_less_exclusions.txt	LTP180	ltpFR	3	11	-1	CANAL	226	n/a	n/a	-1	1.0	1.0	1	upper	Verdana.ttf
1881.03	n/a	WORD	940515	wordpools/wasnorm_wordpool_less_exclusions.txt	LTP180	ltpFR	3	11	-1	COTTON	385	n/a	n/a	-1	1.0	1.0	1	upper	Verdana.ttf
1885.214	n/a	WORD	942607	wordpools/wasnorm_wordpool_less_exclusions.txt	LTP180	ltpFR	3	11	-1	CHIEF	298	n/a	n/a	-1	1.0	1.0	1	upper	Verdana.ttf
1889.162	n/a	WORD	944581	wordpools/wasnorm_wordpool_less_exclusions.txt	LTP180	ltpFR	3	11	-1	RAISIN	1163	n/a	n/a	-1	1.0	1.0	1	upper	Verdana.ttf
1893.228	n/a	WORD	946614	wordpools/wasnorm_wordpool_less_exclusions.txt	LTP180	ltpFR	3	11	-1	BEER	114	n/a	n/a	-1	1.0	1.0	1	upper	Verdana.ttf
1897.158	n/a	WORD	948579	wordpools/wasnorm_wordpool_less_exclusions.txt	LTP180	ltpFR	3	11	-1	WARRIOR	1589	n/a	n/a	-1	1.0	1.0	1	upper	Verdana.ttf
1901.292	n/a	WORD	950646	wordpools/wasnorm_wordpool_less_exclusions.txt	LTP180	ltpFR	3	11	-1	PUB	1135	n/a	n/a	-1	1.0	1.0	1	upper	Verdana.ttf
1905.39	n/a	WORD	952695	wordpools/wasnorm_wordpool_less_exclusions.txt	LTP180	ltpFR	3	11	-1	COOLER	375	n/a	n/a	-1	1.0	1.0	1	upper	Verdana.ttf
1909.472	n/a	WORD	954736	wordpools/wasnorm_wordpool_less_exclusions.txt	LTP180	ltpFR	3	11	-1	OUTFIT	988	n/a	n/a	-1	1.0	1.0	1	upper	Verdana.ttf
1913.64	n/a	WORD	956820	wordpools/wasnorm_wordpool_less_exclusions.txt	LTP180	ltpFR	3	11	-1	HORSE	719	n/a	n/a	-1	1.0	1.0	1	upper	Verdana.ttf
1919.412	n/a	REC_START	959706	n/a	LTP180	ltpFR	3	11	n/a	n/a	n/a	n/a	n/a	n/a	n/a	n/a	n/a	n/a	n/a
1919.686	n/a	REC_WORD	959843	wordpools/wasnorm_wordpool_less_exclusions.txt	LTP180	ltpFR	3	11	n/a	HERO	706	n/a	n/a	n/a	n/a	n/a	n/a	n/a	n/a
1920.05	n/a	REC_WORD	960025	wordpools/wasnorm_wordpool_less_exclusions.txt	LTP180	ltpFR	3	11	-1	BARTENDER	92	n/a	n/a	-1	n/a	n/a	n/a	n/a	n/a
1920.706	n/a	REC_WORD	960353	wordpools/wasnorm_wordpool_less_exclusions.txt	LTP180	ltpFR	3	11	-1	PUB	1135	n/a	n/a	-1	n/a	n/a	n/a	n/a	n/a
1921.358	n/a	REC_WORD	960679	wordpools/wasnorm_wordpool_less_exclusions.txt	LTP180	ltpFR	3	11	-1	HORSE	719	n/a	n/a	-1	n/a	n/a	n/a	n/a	n/a
1922.49	n/a	REC_WORD_VV	961245	wordpools/wasnorm_wordpool_less_exclusions.txt	LTP180	ltpFR	3	11	n/a	<>	-1	n/a	n/a	n/a	n/a	n/a	n/a	n/a	n/a
1935.94	n/a	REC_WORD_VV	967970	wordpools/wasnorm_wordpool_less_exclusions.txt	LTP180	ltpFR	3	11	n/a	<>	-1	n/a	n/a	n/a	n/a	n/a	n/a	n/a	n/a
1937.396	n/a	REC_WORD	968698	wordpools/wasnorm_wordpool_less_exclusions.txt	LTP180	ltpFR	3	11	0	CUB	419	n/a	n/a	0	n/a	n/a	n/a	n/a	n/a
1939.632	n/a	REC_WORD_VV	969816	wordpools/wasnorm_wordpool_less_exclusions.txt	LTP180	ltpFR	3	11	n/a	<>	-1	n/a	n/a	n/a	n/a	n/a	n/a	n/a	n/a
1948.694	n/a	REC_WORD_VV	974347	wordpools/wasnorm_wordpool_less_exclusions.txt	LTP180	ltpFR	3	11	n/a	<>	-1	n/a	n/a	n/a	n/a	n/a	n/a	n/a	n/a
1959.332	n/a	REC_WORD_VV	979666	wordpools/wasnorm_wordpool_less_exclusions.txt	LTP180	ltpFR	3	11	n/a	<>	-1	n/a	n/a	n/a	n/a	n/a	n/a	n/a	n/a
1960.332	n/a	REC_WORD_VV	980166	wordpools/wasnorm_wordpool_less_exclusions.txt	LTP180	ltpFR	3	11	n/a	<>	-1	n/a	n/a	n/a	n/a	n/a	n/a	n/a	n/a
1970.868	n/a	REC_WORD	985434	wordpools/wasnorm_wordpool_less_exclusions.txt	LTP180	ltpFR	3	11	-1	BOULEVARD	156	n/a	n/a	-1	n/a	n/a	n/a	n/a	n/a
1999.534	n/a	WORD	999767	wordpools/wasnorm_wordpool_less_exclusions.txt	LTP180	ltpFR	3	12	-1	SHACK	1273	n/a	n/a	-1	1.0	1.0	1	upper	Verdana.ttf
2003.7	n/a	WORD	1001850	wordpools/wasnorm_wordpool_less_exclusions.txt	LTP180	ltpFR	3	12	-1	KANGAROO	768	n/a	n/a	-1	1.0	1.0	1	upper	Verdana.ttf
2007.648	n/a	WORD	1003824	wordpools/wasnorm_wordpool_less_exclusions.txt	LTP180	ltpFR	3	12	-1	LIST	830	n/a	n/a	-1	1.0	1.0	1	upper	Verdana.ttf
2011.614	n/a	WORD	1005807	wordpools/wasnorm_wordpool_less_exclusions.txt	LTP180	ltpFR	3	12	-1	COMMITTEE	355	n/a	n/a	-1	1.0	1.0	1	upper	Verdana.ttf
2015.58	n/a	WORD	1007790	wordpools/wasnorm_wordpool_less_exclusions.txt	LTP180	ltpFR	3	12	-1	SCREEN	1253	n/a	n/a	-1	1.0	1.0	1	upper	Verdana.ttf
2019.71	n/a	WORD	1009855	wordpools/wasnorm_wordpool_less_exclusions.txt	LTP180	ltpFR	3	12	-1	SAXOPHONE	1240	n/a	n/a	-1	1.0	1.0	1	upper	Verdana.ttf
2023.844	n/a	WORD	1011922	wordpools/wasnorm_wordpool_less_exclusions.txt	LTP180	ltpFR	3	12	-1	TRUMPET	1513	n/a	n/a	-1	1.0	1.0	1	upper	Verdana.ttf
2027.742	n/a	WORD	1013871	wordpools/wasnorm_wordpool_less_exclusions.txt	LTP180	ltpFR	3	12	-1	CAVE	263	n/a	n/a	-1	1.0	1.0	1	upper	Verdana.ttf
2031.574	n/a	WORD	1015787	wordpools/wasnorm_wordpool_less_exclusions.txt	LTP180	ltpFR	3	12	-1	BOULDER	155	n/a	n/a	-1	1.0	1.0	1	upper	Verdana.ttf
2035.438	n/a	WORD	1017719	wordpools/wasnorm_wordpool_less_exclusions.txt	LTP180	ltpFR	3	12	-1	COLUMN	350	n/a	n/a	-1	1.0	1.0	1	upper	Verdana.ttf
2039.588	n/a	WORD	1019794	wordpools/wasnorm_wordpool_less_exclusions.txt	LTP180	ltpFR	3	12	-1	TROMBONE	1508	n/a	n/a	-1	1.0	1.0	1	upper	Verdana.ttf
2043.62	n/a	WORD	1021810	wordpools/wasnorm_wordpool_less_exclusions.txt	LTP180	ltpFR	3	12	-1	BOY	161	n/a	n/a	-1	1.0	1.0	1	upper	Verdana.ttf
2047.5	n/a	WORD	1023750	wordpools/wasnorm_wordpool_less_exclusions.txt	LTP180	ltpFR	3	12	-1	FURNITURE	616	n/a	n/a	-1	1.0	1.0	1	upper	Verdana.ttf
2051.534	n/a	WORD	1025767	wordpools/wasnorm_wordpool_less_exclusions.txt	LTP180	ltpFR	3	12	-1	ORCHESTRA	981	n/a	n/a	-1	1.0	1.0	1	upper	Verdana.ttf
2055.718	n/a	WORD	1027859	wordpools/wasnorm_wordpool_less_exclusions.txt	LTP180	ltpFR	3	12	-1	TUBA	1515	n/a	n/a	-1	1.0	1.0	1	upper	Verdana.ttf
2059.764	n/a	WORD	1029882	wordpools/wasnorm_wordpool_less_exclusions.txt	LTP180	ltpFR	3	12	-1	DISC	473	n/a	n/a	-1	1.0	1.0	1	upper	Verdana.ttf
2065.486	n/a	REC_START	1032743	n/a	LTP180	ltpFR	3	12	n/a	n/a	n/a	n/a	n/a	n/a	n/a	n/a	n/a	n/a	n/a
2065.94	n/a	REC_WORD	1032970	wordpools/wasnorm_wordpool_less_exclusions.txt	LTP180	ltpFR	3	12	-1	DISC	473	n/a	n/a	-1	n/a	n/a	n/a	n/a	n/a
2066.344	n/a	REC_WORD	1033172	wordpools/wasnorm_wordpool_less_exclusions.txt	LTP180	ltpFR	3	12	n/a	HERO	706	n/a	n/a	n/a	n/a	n/a	n/a	n/a	n/a
2066.724	n/a	REC_WORD	1033362	wordpools/wasnorm_wordpool_less_exclusions.txt	LTP180	ltpFR	3	12	-1	TRUMPET	1513	n/a	n/a	-1	n/a	n/a	n/a	n/a	n/a
2067.208	n/a	REC_WORD	1033604	wordpools/wasnorm_wordpool_less_exclusions.txt	LTP180	ltpFR	3	12	-1	SAXOPHONE	1240	n/a	n/a	-1	n/a	n/a	n/a	n/a	n/a
2069.158	n/a	REC_WORD_VV	1034579	wordpools/wasnorm_wordpool_less_exclusions.txt	LTP180	ltpFR	3	12	n/a	<>	-1	n/a	n/a	n/a	n/a	n/a	n/a	n/a	n/a
2071.378	n/a	REC_WORD	1035689	wordpools/wasnorm_wordpool_less_exclusions.txt	LTP180	ltpFR	3	12	-1	BOY	161	n/a	n/a	-1	n/a	n/a	n/a	n/a	n/a
2077.016	n/a	REC_WORD	1038508	wordpools/wasnorm_wordpool_less_exclusions.txt	LTP180	ltpFR	3	12	-1	ORCHESTRA	981	n/a	n/a	-1	n/a	n/a	n/a	n/a	n/a
2081.52	n/a	REC_WORD	1040760	wordpools/wasnorm_wordpool_less_exclusions.txt	LTP180	ltpFR	3	12	-1	TUBA	1515	n/a	n/a	-1	n/a	n/a	n/a	n/a	n/a
2090.326	n/a	REC_WORD	1045163	wordpools/wasnorm_wordpool_less_exclusions.txt	LTP180	ltpFR	3	12	-1	COMMITTEE	355	n/a	n/a	-1	n/a	n/a	n/a	n/a	n/a
2141.108	n/a	REST_REWET	1070554	n/a	LTP180	ltpFR	3	12	n/a	n/a	n/a	n/a	n/a	n/a	n/a	n/a	n/a	n/a	n/a
2633.522	n/a	WORD	1316761	wordpools/wasnorm_wordpool_less_exclusions.txt	LTP180	ltpFR	3	13	0	WAGON	1578	n/a	n/a	1	0.422607421875	0.5869140625	0	upper	zerothre.ttf
2637.558	n/a	WORD	1318779	wordpools/wasnorm_wordpool_less_exclusions.txt	LTP180	ltpFR	3	13	0	BALLERINA	74	n/a	n/a	0	0.422607421875	0.5869140625	0	upper	zerothre.ttf
2641.572	n/a	WORD	1320786	wordpools/wasnorm_wordpool_less_exclusions.txt	LTP180	ltpFR	3	13	1	PAN	1008	n/a	n/a	1	0.57763671875	0.412841796875	1	lower	amplitud.ttf
2645.572	n/a	WORD	1322786	wordpools/wasnorm_wordpool_less_exclusions.txt	LTP180	ltpFR	3	13	1	WHEEL	1603	n/a	n/a	0	0.57763671875	0.412841796875	1	lower	amplitud.ttf
2649.668	n/a	WORD	1324834	wordpools/wasnorm_wordpool_less_exclusions.txt	LTP180	ltpFR	3	13	1	DASHBOARD	441	n/a	n/a	0	0.57763671875	0.412841796875	1	lower	amplitud.ttf
2653.816	n/a	WORD	1326908	wordpools/wasnorm_wordpool_less_exclusions.txt	LTP180	ltpFR	3	13	1	STEW	1380	n/a	n/a	0	0.57763671875	0.412841796875	1	lower	amplitud.ttf
2657.866	n/a	WORD	1328933	wordpools/wasnorm_wordpool_less_exclusions.txt	LTP180	ltpFR	3	13	1	KITCHEN	778	n/a	n/a	0	0.57763671875	0.412841796875	1	lower	amplitud.ttf
2662.048	n/a	WORD	1331024	wordpools/wasnorm_wordpool_less_exclusions.txt	LTP180	ltpFR	3	13	0	MONARCH	906	n/a	n/a	1	0.422607421875	0.5869140625	0	upper	zerothre.ttf
2666.248	n/a	WORD	1333124	wordpools/wasnorm_wordpool_less_exclusions.txt	LTP180	ltpFR	3	13	0	BUNNY	198	n/a	n/a	0	0.422607421875	0.5869140625	0	upper	zerothre.ttf
2670.146	n/a	WORD	1335073	wordpools/wasnorm_wordpool_less_exclusions.txt	LTP180	ltpFR	3	13	0	SALAD	1224	n/a	n/a	0	0.422607421875	0.5869140625	0	upper	zerothre.ttf
2674.162	n/a	WORD	1337081	wordpools/wasnorm_wordpool_less_exclusions.txt	LTP180	ltpFR	3	13	1	QUEEN	1149	n/a	n/a	1	0.57763671875	0.412841796875	1	lower	amplitud.ttf
2678.328	n/a	WORD	1339164	wordpools/wasnorm_wordpool_less_exclusions.txt	LTP180	ltpFR	3	13	1	YARD	1630	n/a	n/a	0	0.57763671875	0.412841796875	1	lower	amplitud.ttf
2682.196	n/a	WORD	1341098	wordpools/wasnorm_wordpool_less_exclusions.txt	LTP180	ltpFR	3	13	1	ANKLE	24	n/a	n/a	1	0.57763671875	0.412841796875	1	lower	amplitud.ttf
2686.158	n/a	WORD	1343079	wordpools/wasnorm_wordpool_less_exclusions.txt	LTP180	ltpFR	3	13	0	TICKET	1464	n/a	n/a	0	0.422607421875	0.5869140625	0	upper	zerothre.ttf
2690.19	n/a	WORD	1345095	wordpools/wasnorm_wordpool_less_exclusions.txt	LTP180	ltpFR	3	13	0	JET	756	n/a	n/a	0	0.422607421875	0.5869140625	0	upper	zerothre.ttf
2694.038	n/a	WORD	1347019	wordpools/wasnorm_wordpool_less_exclusions.txt	LTP180	ltpFR	3	13	0	CACTUS	215	n/a	n/a	0	0.422607421875	0.5869140625	0	upper	zerothre.ttf
2699.994	n/a	REC_START	1349997	n/a	LTP180	ltpFR	3	13	n/a	n/a	n/a	n/a	n/a	n/a	n/a	n/a	n/a	n/a	n/a
2700.484	n/a	REC_WORD	1350242	wordpools/wasnorm_wordpool_less_exclusions.txt	LTP180	ltpFR	3	13	0	CACTUS	215	n/a	n/a	0	n/a	n/a	n/a	n/a	n/a
2701.176	n/a	REC_WORD	1350588	wordpools/wasnorm_wordpool_less_exclusions.txt	LTP180	ltpFR	3	13	1	KITCHEN	778	n/a	n/a	0	n/a	n/a	n/a	n/a	n/a
2701.93	n/a	REC_WORD	1350965	wordpools/wasnorm_wordpool_less_exclusions.txt	LTP180	ltpFR	3	13	0	BALLERINA	74	n/a	n/a	0	n/a	n/a	n/a	n/a	n/a
2702.93	n/a	REC_WORD_VV	1351465	wordpools/wasnorm_wordpool_less_exclusions.txt	LTP180	ltpFR	3	13	n/a	<>	-1	n/a	n/a	n/a	n/a	n/a	n/a	n/a	n/a
2704.454	n/a	REC_WORD	1352227	wordpools/wasnorm_wordpool_less_exclusions.txt	LTP180	ltpFR	3	13	0	JET	756	n/a	n/a	0	n/a	n/a	n/a	n/a	n/a
2711.358	n/a	REC_WORD_VV	1355679	wordpools/wasnorm_wordpool_less_exclusions.txt	LTP180	ltpFR	3	13	n/a	<>	-1	n/a	n/a	n/a	n/a	n/a	n/a	n/a	n/a
2712.358	n/a	REC_WORD_VV	1356179	wordpools/wasnorm_wordpool_less_exclusions.txt	LTP180	ltpFR	3	13	n/a	<>	-1	n/a	n/a	n/a	n/a	n/a	n/a	n/a	n/a
2713.036	n/a	REC_WORD	1356518	wordpools/wasnorm_wordpool_less_exclusions.txt	LTP180	ltpFR	3	13	1	YARD	1630	n/a	n/a	0	n/a	n/a	n/a	n/a	n/a
2717.212	n/a	REC_WORD	1358606	wordpools/wasnorm_wordpool_less_exclusions.txt	LTP180	ltpFR	3	13	0	TICKET	1464	n/a	n/a	0	n/a	n/a	n/a	n/a	n/a
2749.022	n/a	REC_WORD_VV	1374511	wordpools/wasnorm_wordpool_less_exclusions.txt	LTP180	ltpFR	3	13	n/a	<>	-1	n/a	n/a	n/a	n/a	n/a	n/a	n/a	n/a
2779.112	n/a	WORD	1389556	wordpools/wasnorm_wordpool_less_exclusions.txt	LTP180	ltpFR	3	14	0	FLEA	577	n/a	n/a	n/a	0.422607421875	0.5869140625	0	upper	zerothre.ttf
2782.148	n/a	SLOW_MSG	1391074	n/a	LTP180	ltpFR	3	14	n/a	n/a	n/a	n/a	n/a	n/a	n/a	n/a	n/a	n/a	n/a
2784.5	n/a	WORD	1392250	wordpools/wasnorm_wordpool_less_exclusions.txt	LTP180	ltpFR	3	14	0	THUMB	1462	n/a	n/a	n/a	0.422607421875	0.5869140625	0	upper	zerothre.ttf
2787.532	n/a	SLOW_MSG	1393766	n/a	LTP180	ltpFR	3	14	n/a	n/a	n/a	n/a	n/a	n/a	n/a	n/a	n/a	n/a	n/a
2790.122	n/a	WORD	1395061	wordpools/wasnorm_wordpool_less_exclusions.txt	LTP180	ltpFR	3	14	0	ALLIGATOR	16	n/a	n/a	0	0.422607421875	0.5869140625	0	upper	zerothre.ttf
2794.158	n/a	WORD	1397079	wordpools/wasnorm_wordpool_less_exclusions.txt	LTP180	ltpFR	3	14	0	CHECK	284	n/a	n/a	0	0.422607421875	0.5869140625	0	upper	zerothre.ttf
2798.22	n/a	WORD	1399110	wordpools/wasnorm_wordpool_less_exclusions.txt	LTP180	ltpFR	3	14	0	CROW	414	n/a	n/a	n/a	0.422607421875	0.5869140625	0	upper	zerothre.ttf
2801.25	n/a	SLOW_MSG	1400625	n/a	LTP180	ltpFR	3	14	n/a	n/a	n/a	n/a	n/a	n/a	n/a	n/a	n/a	n/a	n/a
2803.756	n/a	WORD	1401878	wordpools/wasnorm_wordpool_less_exclusions.txt	LTP180	ltpFR	3	14	0	SURF	1412	n/a	n/a	0	0.422607421875	0.5869140625	0	upper	zerothre.ttf
2807.662	n/a	WORD	1403831	wordpools/wasnorm_wordpool_less_exclusions.txt	LTP180	ltpFR	3	14	0	SWIMMER	1420	n/a	n/a	0	0.422607421875	0.5869140625	0	upper	zerothre.ttf
2811.838	n/a	WORD	1405919	wordpools/wasnorm_wordpool_less_exclusions.txt	LTP180	ltpFR	3	14	0	LIGHTNING	820	n/a	n/a	0	0.422607421875	0.5869140625	0	upper	zerothre.ttf
2815.786	n/a	WORD	1407893	wordpools/wasnorm_wordpool_less_exclusions.txt	LTP180	ltpFR	3	14	0	TREASURE	1500	n/a	n/a	0	0.422607421875	0.5869140625	0	upper	zerothre.ttf
2819.938	n/a	WORD	1409969	wordpools/wasnorm_wordpool_less_exclusions.txt	LTP180	ltpFR	3	14	0	AUTOMOBILE	62	n/a	n/a	0	0.422607421875	0.5869140625	0	upper	zerothre.ttf
2823.916	n/a	WORD	1411958	wordpools/wasnorm_wordpool_less_exclusions.txt	LTP180	ltpFR	3	14	0	TECHNICIAN	1443	n/a	n/a	n/a	0.422607421875	0.5869140625	0	upper	zerothre.ttf
2826.946	n/a	SLOW_MSG	1413473	n/a	LTP180	ltpFR	3	14	n/a	n/a	n/a	n/a	n/a	n/a	n/a	n/a	n/a	n/a	n/a
2829.64	n/a	WORD	1414820	wordpools/wasnorm_wordpool_less_exclusions.txt	LTP180	ltpFR	3	14	0	BLUEJAY	141	n/a	n/a	n/a	0.422607421875	0.5869140625	0	upper	zerothre.ttf
2832.674	n/a	SLOW_MSG	1416337	n/a	LTP180	ltpFR	3	14	n/a	n/a	n/a	n/a	n/a	n/a	n/a	n/a	n/a	n/a	n/a
2835.244	n/a	WORD	1417622	wordpools/wasnorm_wordpool_less_exclusions.txt	LTP180	ltpFR	3	14	0	CASHIER	254	n/a	n/a	n/a	0.422607421875	0.5869140625	0	upper	zerothre.ttf
2838.274	n/a	SLOW_MSG	1419137	n/a	LTP180	ltpFR	3	14	n/a	n/a	n/a	n/a	n/a	n/a	n/a	n/a	n/a	n/a	n/a
2840.698	n/a	WORD	1420349	wordpools/wasnorm_wordpool_less_exclusions.txt	LTP180	ltpFR	3	14	0	BOSS	152	n/a	n/a	0	0.422607421875	0.5869140625	0	upper	zerothre.ttf
2844.682	n/a	WORD	1422341	wordpools/wasnorm_wordpool_less_exclusions.txt	LTP180	ltpFR	3	14	0	FIELD	562	n/a	n/a	1	0.422607421875	0.5869140625	0	upper	zerothre.ttf
2848.512	n/a	WORD	1424256	wordpools/wasnorm_wordpool_less_exclusions.txt	LTP180	ltpFR	3	14	0	BRAN	167	n/a	n/a	0	0.422607421875	0.5869140625	0	upper	zerothre.ttf
2854.418	n/a	REC_START	1427209	n/a	LTP180	ltpFR	3	14	n/a	n/a	n/a	n/a	n/a	n/a	n/a	n/a	n/a	n/a	n/a
2855.046	n/a	REC_WORD	1427523	wordpools/wasnorm_wordpool_less_exclusions.txt	LTP180	ltpFR	3	14	0	BRAN	167	n/a	n/a	0	n/a	n/a	n/a	n/a	n/a
2855.392	n/a	REC_WORD	1427696	wordpools/wasnorm_wordpool_less_exclusions.txt	LTP180	ltpFR	3	14	0	BALLERINA	74	n/a	n/a	0	n/a	n/a	n/a	n/a	n/a
2856.2	n/a	REC_WORD	1428100	wordpools/wasnorm_wordpool_less_exclusions.txt	LTP180	ltpFR	3	14	0	ALLIGATOR	16	n/a	n/a	0	n/a	n/a	n/a	n/a	n/a
2858.0	n/a	REC_WORD_VV	1429000	wordpools/wasnorm_wordpool_less_exclusions.txt	LTP180	ltpFR	3	14	n/a	<>	-1	n/a	n/a	n/a	n/a	n/a	n/a	n/a	n/a
2859.0	n/a	REC_WORD_VV	1429500	wordpools/wasnorm_wordpool_less_exclusions.txt	LTP180	ltpFR	3	14	n/a	<>	-1	n/a	n/a	n/a	n/a	n/a	n/a	n/a	n/a
2870.796	n/a	REC_WORD	1435398	wordpools/wasnorm_wordpool_less_exclusions.txt	LTP180	ltpFR	3	14	0	FIELD	562	n/a	n/a	1	n/a	n/a	n/a	n/a	n/a
2871.956	n/a	REC_WORD_VV	1435978	wordpools/wasnorm_wordpool_less_exclusions.txt	LTP180	ltpFR	3	14	n/a	<>	-1	n/a	n/a	n/a	n/a	n/a	n/a	n/a	n/a
2872.956	n/a	REC_WORD_VV	1436478	wordpools/wasnorm_wordpool_less_exclusions.txt	LTP180	ltpFR	3	14	n/a	<>	-1	n/a	n/a	n/a	n/a	n/a	n/a	n/a	n/a
2877.702	n/a	REC_WORD	1438851	wordpools/wasnorm_wordpool_less_exclusions.txt	LTP180	ltpFR	3	14	0	CACTUS	215	n/a	n/a	0	n/a	n/a	n/a	n/a	n/a
2884.862	n/a	REC_WORD	1442431	wordpools/wasnorm_wordpool_less_exclusions.txt	LTP180	ltpFR	3	14	0	SURF	1412	n/a	n/a	0	n/a	n/a	n/a	n/a	n/a
2897.13	n/a	REC_WORD_VV	1448565	wordpools/wasnorm_wordpool_less_exclusions.txt	LTP180	ltpFR	3	14	n/a	<>	-1	n/a	n/a	n/a	n/a	n/a	n/a	n/a	n/a
2898.13	n/a	REC_WORD_VV	1449065	wordpools/wasnorm_wordpool_less_exclusions.txt	LTP180	ltpFR	3	14	n/a	<>	-1	n/a	n/a	n/a	n/a	n/a	n/a	n/a	n/a
2910.528	n/a	REC_WORD	1455264	wordpools/wasnorm_wordpool_less_exclusions.txt	LTP180	ltpFR	3	14	1	MEADOW	881	n/a	n/a	1	n/a	n/a	n/a	n/a	n/a
2912.584	n/a	REC_WORD	1456292	wordpools/wasnorm_wordpool_less_exclusions.txt	LTP180	ltpFR	3	14	0	CACTUS	215	n/a	n/a	0	n/a	n/a	n/a	n/a	n/a
2933.556	n/a	WORD	1466778	wordpools/wasnorm_wordpool_less_exclusions.txt	LTP180	ltpFR	3	15	0	SEA	1259	n/a	n/a	0	0.422607421875	0.5869140625	0	upper	zerothre.ttf
2937.768	n/a	WORD	1468884	wordpools/wasnorm_wordpool_less_exclusions.txt	LTP180	ltpFR	3	15	0	MARKER	870	n/a	n/a	0	0.422607421875	0.5869140625	0	upper	zerothre.ttf
2941.756	n/a	WORD	1470878	wordpools/wasnorm_wordpool_less_exclusions.txt	LTP180	ltpFR	3	15	0	PACKAGE	997	n/a	n/a	0	0.422607421875	0.5869140625	0	upper	zerothre.ttf
2945.816	n/a	WORD	1472908	wordpools/wasnorm_wordpool_less_exclusions.txt	LTP180	ltpFR	3	15	0	CAN	225	n/a	n/a	0	0.422607421875	0.5869140625	0	upper	zerothre.ttf
2949.798	n/a	WORD	1474899	wordpools/wasnorm_wordpool_less_exclusions.txt	LTP180	ltpFR	3	15	0	INSECT	740	n/a	n/a	0	0.422607421875	0.5869140625	0	upper	zerothre.ttf
2953.748	n/a	WORD	1476874	wordpools/wasnorm_wordpool_less_exclusions.txt	LTP180	ltpFR	3	15	0	ANT	25	n/a	n/a	0	0.422607421875	0.5869140625	0	upper	zerothre.ttf
2957.812	n/a	WORD	1478906	wordpools/wasnorm_wordpool_less_exclusions.txt	LTP180	ltpFR	3	15	0	PLUMBER	1091	n/a	n/a	0	0.422607421875	0.5869140625	0	upper	zerothre.ttf
2961.948	n/a	WORD	1480974	wordpools/wasnorm_wordpool_less_exclusions.txt	LTP180	ltpFR	3	15	0	BATHTUB	100	n/a	n/a	0	0.422607421875	0.5869140625	0	upper	zerothre.ttf
2965.91	n/a	WORD	1482955	wordpools/wasnorm_wordpool_less_exclusions.txt	LTP180	ltpFR	3	15	0	VET	1560	n/a	n/a	0	0.422607421875	0.5869140625	0	upper	zerothre.ttf
2969.958	n/a	WORD	1484979	wordpools/wasnorm_wordpool_less_exclusions.txt	LTP180	ltpFR	3	15	0	RAKE	1164	n/a	n/a	0	0.422607421875	0.5869140625	0	upper	zerothre.ttf
2974.158	n/a	WORD	1487079	wordpools/wasnorm_wordpool_less_exclusions.txt	LTP180	ltpFR	3	15	0	ORNAMENT	985	n/a	n/a	0	0.422607421875	0.5869140625	0	upper	zerothre.ttf
2977.974	n/a	WORD	1488987	wordpools/wasnorm_wordpool_less_exclusions.txt	LTP180	ltpFR	3	15	0	CHEEK	287	n/a	n/a	0	0.422607421875	0.5869140625	0	upper	zerothre.ttf
2981.976	n/a	WORD	1490988	wordpools/wasnorm_wordpool_less_exclusions.txt	LTP180	ltpFR	3	15	0	GARBAGE	622	n/a	n/a	0	0.422607421875	0.5869140625	0	upper	zerothre.ttf
2986.154	n/a	WORD	1493077	wordpools/wasnorm_wordpool_less_exclusions.txt	LTP180	ltpFR	3	15	0	RAM	1165	n/a	n/a	1	0.422607421875	0.5869140625	0	upper	zerothre.ttf
2990.186	n/a	WORD	1495093	wordpools/wasnorm_wordpool_less_exclusions.txt	LTP180	ltpFR	3	15	0	PARCEL	1012	n/a	n/a	0	0.422607421875	0.5869140625	0	upper	zerothre.ttf
2994.32	n/a	WORD	1497160	wordpools/wasnorm_wordpool_less_exclusions.txt	LTP180	ltpFR	3	15	0	ROSE	1212	n/a	n/a	0	0.422607421875	0.5869140625	0	upper	zerothre.ttf
3000.176	n/a	REC_START	1500088	n/a	LTP180	ltpFR	3	15	n/a	n/a	n/a	n/a	n/a	n/a	n/a	n/a	n/a	n/a	n/a
3000.564	n/a	REC_WORD_VV	1500282	wordpools/wasnorm_wordpool_less_exclusions.txt	LTP180	ltpFR	3	15	n/a	<>	-1	n/a	n/a	n/a	n/a	n/a	n/a	n/a	n/a
3001.298	n/a	REC_WORD	1500649	wordpools/wasnorm_wordpool_less_exclusions.txt	LTP180	ltpFR	3	15	0	ROSE	1212	n/a	n/a	0	n/a	n/a	n/a	n/a	n/a
3002.126	n/a	REC_WORD	1501063	wordpools/wasnorm_wordpool_less_exclusions.txt	LTP180	ltpFR	3	15	0	SEA	1259	n/a	n/a	0	n/a	n/a	n/a	n/a	n/a
3002.852	n/a	REC_WORD	1501426	wordpools/wasnorm_wordpool_less_exclusions.txt	LTP180	ltpFR	3	15	0	MARKER	870	n/a	n/a	0	n/a	n/a	n/a	n/a	n/a
3003.798	n/a	REC_WORD	1501899	wordpools/wasnorm_wordpool_less_exclusions.txt	LTP180	ltpFR	3	15	0	CACTUS	215	n/a	n/a	0	n/a	n/a	n/a	n/a	n/a
3004.798	n/a	REC_WORD_VV	1502399	wordpools/wasnorm_wordpool_less_exclusions.txt	LTP180	ltpFR	3	15	n/a	<>	-1	n/a	n/a	n/a	n/a	n/a	n/a	n/a	n/a
3005.832	n/a	REC_WORD	1502916	wordpools/wasnorm_wordpool_less_exclusions.txt	LTP180	ltpFR	3	15	0	GARBAGE	622	n/a	n/a	0	n/a	n/a	n/a	n/a	n/a
3006.86	n/a	REC_WORD	1503430	wordpools/wasnorm_wordpool_less_exclusions.txt	LTP180	ltpFR	3	15	0	CHEEK	287	n/a	n/a	0	n/a	n/a	n/a	n/a	n/a
3018.07	n/a	REC_WORD	1509035	wordpools/wasnorm_wordpool_less_exclusions.txt	LTP180	ltpFR	3	15	0	ROSE	1212	n/a	n/a	0	n/a	n/a	n/a	n/a	n/a
3019.07	n/a	REC_WORD_VV	1509535	wordpools/wasnorm_wordpool_less_exclusions.txt	LTP180	ltpFR	3	15	n/a	<>	-1	n/a	n/a	n/a	n/a	n/a	n/a	n/a	n/a
3078.49	n/a	WORD	1539245	wordpools/wasnorm_wordpool_less_exclusions.txt	LTP180	ltpFR	3	16	1	BLUEPRINT	142	n/a	n/a	0	0.57763671875	0.412841796875	1	lower	amplitud.ttf
3082.338	n/a	WORD	1541169	wordpools/wasnorm_wordpool_less_exclusions.txt	LTP180	ltpFR	3	16	1	GRILL	661	n/a	n/a	0	0.57763671875	0.412841796875	1	lower	amplitud.ttf
3086.272	n/a	WORD	1543136	wordpools/wasnorm_wordpool_less_exclusions.txt	LTP180	ltpFR	3	16	1	COBRA	336	n/a	n/a	1	0.57763671875	0.412841796875	1	lower	amplitud.ttf
3090.168	n/a	WORD	1545084	wordpools/wasnorm_wordpool_less_exclusions.txt	LTP180	ltpFR	3	16	1	RECORD	1176	n/a	n/a	0	0.57763671875	0.412841796875	1	lower	amplitud.ttf
3094.084	n/a	WORD	1547042	wordpools/wasnorm_wordpool_less_exclusions.txt	LTP180	ltpFR	3	16	1	BOUILLON	154	n/a	n/a	0	0.57763671875	0.412841796875	1	lower	amplitud.ttf
3097.984	n/a	WORD	1548992	wordpools/wasnorm_wordpool_less_exclusions.txt	LTP180	ltpFR	3	16	0	WORM	1623	n/a	n/a	0	0.422607421875	0.5869140625	0	upper	zerothre.ttf
3102.08	n/a	WORD	1551040	wordpools/wasnorm_wordpool_less_exclusions.txt	LTP180	ltpFR	3	16	0	SEAL	1262	n/a	n/a	n/a	0.422607421875	0.5869140625	0	upper	zerothre.ttf
3105.108	n/a	SLOW_MSG	1552554	n/a	LTP180	ltpFR	3	16	n/a	n/a	n/a	n/a	n/a	n/a	n/a	n/a	n/a	n/a	n/a
3107.786	n/a	WORD	1553893	wordpools/wasnorm_wordpool_less_exclusions.txt	LTP180	ltpFR	3	16	0	HOOP	716	n/a	n/a	0	0.422607421875	0.5869140625	0	upper	zerothre.ttf
3111.634	n/a	WORD	1555817	wordpools/wasnorm_wordpool_less_exclusions.txt	LTP180	ltpFR	3	16	1	MARKET	871	n/a	n/a	1	0.57763671875	0.412841796875	1	lower	amplitud.ttf
3115.6	n/a	WORD	1557800	wordpools/wasnorm_wordpool_less_exclusions.txt	LTP180	ltpFR	3	16	1	FRIES	607	n/a	n/a	1	0.57763671875	0.412841796875	1	lower	amplitud.ttf
3119.5	n/a	WORD	1559750	wordpools/wasnorm_wordpool_less_exclusions.txt	LTP180	ltpFR	3	16	1	DOLPHIN	483	n/a	n/a	1	0.57763671875	0.412841796875	1	lower	amplitud.ttf
3123.714	n/a	WORD	1561857	wordpools/wasnorm_wordpool_less_exclusions.txt	LTP180	ltpFR	3	16	0	MAMMAL	861	n/a	n/a	n/a	0.422607421875	0.5869140625	0	upper	zerothre.ttf
3126.758	n/a	SLOW_MSG	1563379	n/a	LTP180	ltpFR	3	16	n/a	n/a	n/a	n/a	n/a	n/a	n/a	n/a	n/a	n/a	n/a
3129.468	n/a	WORD	1564734	wordpools/wasnorm_wordpool_less_exclusions.txt	LTP180	ltpFR	3	16	0	HARP	689	n/a	n/a	1	0.422607421875	0.5869140625	0	upper	zerothre.ttf
3133.45	n/a	WORD	1566725	wordpools/wasnorm_wordpool_less_exclusions.txt	LTP180	ltpFR	3	16	0	TUB	1514	n/a	n/a	1	0.422607421875	0.5869140625	0	upper	zerothre.ttf
3137.316	n/a	WORD	1568658	wordpools/wasnorm_wordpool_less_exclusions.txt	LTP180	ltpFR	3	16	0	DIGGER	464	n/a	n/a	1	0.422607421875	0.5869140625	0	upper	zerothre.ttf
3141.162	n/a	WORD	1570581	wordpools/wasnorm_wordpool_less_exclusions.txt	LTP180	ltpFR	3	16	0	DIRT	472	n/a	n/a	1	0.422607421875	0.5869140625	0	upper	zerothre.ttf
3147.036	n/a	REC_START	1573518	n/a	LTP180	ltpFR	3	16	n/a	n/a	n/a	n/a	n/a	n/a	n/a	n/a	n/a	n/a	n/a
3147.89	n/a	REC_WORD_VV	1573945	wordpools/wasnorm_wordpool_less_exclusions.txt	LTP180	ltpFR	3	16	n/a	<>	-1	n/a	n/a	n/a	n/a	n/a	n/a	n/a	n/a
3148.522	n/a	REC_WORD	1574261	wordpools/wasnorm_wordpool_less_exclusions.txt	LTP180	ltpFR	3	16	n/a	DIG	-1	n/a	n/a	n/a	n/a	n/a	n/a	n/a	n/a
3148.986	n/a	REC_WORD	1574493	wordpools/wasnorm_wordpool_less_exclusions.txt	LTP180	ltpFR	3	16	0	DIGGER	464	n/a	n/a	1	n/a	n/a	n/a	n/a	n/a
3150.574	n/a	REC_WORD_VV	1575287	wordpools/wasnorm_wordpool_less_exclusions.txt	LTP180	ltpFR	3	16	n/a	<>	-1	n/a	n/a	n/a	n/a	n/a	n/a	n/a	n/a
3157.048	n/a	REC_WORD	1578524	wordpools/wasnorm_wordpool_less_exclusions.txt	LTP180	ltpFR	3	16	n/a	HARPOON	-1	n/a	n/a	n/a	n/a	n/a	n/a	n/a	n/a
3158.048	n/a	REC_WORD_VV	1579024	wordpools/wasnorm_wordpool_less_exclusions.txt	LTP180	ltpFR	3	16	n/a	<>	-1	n/a	n/a	n/a	n/a	n/a	n/a	n/a	n/a
3159.742	n/a	REC_WORD	1579871	wordpools/wasnorm_wordpool_less_exclusions.txt	LTP180	ltpFR	3	16	0	HARP	689	n/a	n/a	1	n/a	n/a	n/a	n/a	n/a
3166.736	n/a	REC_WORD_VV	1583368	wordpools/wasnorm_wordpool_less_exclusions.txt	LTP180	ltpFR	3	16	n/a	<>	-1	n/a	n/a	n/a	n/a	n/a	n/a	n/a	n/a
3167.736	n/a	REC_WORD_VV	1583868	wordpools/wasnorm_wordpool_less_exclusions.txt	LTP180	ltpFR	3	16	n/a	<>	-1	n/a	n/a	n/a	n/a	n/a	n/a	n/a	n/a
3182.406	n/a	REC_WORD_VV	1591203	wordpools/wasnorm_wordpool_less_exclusions.txt	LTP180	ltpFR	3	16	n/a	<>	-1	n/a	n/a	n/a	n/a	n/a	n/a	n/a	n/a
3183.406	n/a	REC_WORD_VV	1591703	wordpools/wasnorm_wordpool_less_exclusions.txt	LTP180	ltpFR	3	16	n/a	<>	-1	n/a	n/a	n/a	n/a	n/a	n/a	n/a	n/a
3184.408	n/a	REC_WORD_VV	1592204	wordpools/wasnorm_wordpool_less_exclusions.txt	LTP180	ltpFR	3	16	n/a	<>	-1	n/a	n/a	n/a	n/a	n/a	n/a	n/a	n/a
3185.408	n/a	REC_WORD_VV	1592704	wordpools/wasnorm_wordpool_less_exclusions.txt	LTP180	ltpFR	3	16	n/a	<>	-1	n/a	n/a	n/a	n/a	n/a	n/a	n/a	n/a
3186.408	n/a	REC_WORD_VV	1593204	wordpools/wasnorm_wordpool_less_exclusions.txt	LTP180	ltpFR	3	16	n/a	<>	-1	n/a	n/a	n/a	n/a	n/a	n/a	n/a	n/a
3192.05	n/a	REC_WORD_VV	1596025	wordpools/wasnorm_wordpool_less_exclusions.txt	LTP180	ltpFR	3	16	n/a	<>	-1	n/a	n/a	n/a	n/a	n/a	n/a	n/a	n/a
3193.05	n/a	REC_WORD_VV	1596525	wordpools/wasnorm_wordpool_less_exclusions.txt	LTP180	ltpFR	3	16	n/a	<>	-1	n/a	n/a	n/a	n/a	n/a	n/a	n/a	n/a
3209.836	n/a	REC_WORD	1604918	wordpools/wasnorm_wordpool_less_exclusions.txt	LTP180	ltpFR	3	16	0	MAMMAL	861	n/a	n/a	n/a	n/a	n/a	n/a	n/a	n/a
3221.85	n/a	REC_WORD_VV	1610925	wordpools/wasnorm_wordpool_less_exclusions.txt	LTP180	ltpFR	3	16	n/a	<>	-1	n/a	n/a	n/a	n/a	n/a	n/a	n/a	n/a
3294.15	n/a	REC_START	1647075	n/a	LTP180	ltpFR	3	1	n/a	n/a	n/a	n/a	n/a	n/a	n/a	n/a	n/a	n/a	n/a
3294.198	n/a	RECOG_TARGET	1647099	n/a	LTP180	ltpFR	3	1	1	ABDOMEN	1	1	5	1	n/a	n/a	n/a	n/a	n/a
3297.296	n/a	RECOG_RESP_VV	1648648	n/a	LTP180	ltpFR	3	1	1	ABDOMEN	1	0	n/a	1	n/a	n/a	n/a	n/a	n/a
3298.86	n/a	RECOG_RESP	1649430	n/a	LTP180	ltpFR	3	1	1	ABDOMEN	1	1	n/a	1	n/a	n/a	n/a	n/a	n/a
3301.148	n/a	RECOG_CONF	1650574	n/a	LTP180	ltpFR	3	1	1	ABDOMEN	1	n/a	5	1	n/a	n/a	n/a	n/a	n/a
3303.048	n/a	RECOG_TARGET	1651524	n/a	LTP180	ltpFR	3	1	0	SOFA	1342	1	3	0	n/a	n/a	n/a	n/a	n/a
3305.568	n/a	RECOG_RESP	1652784	n/a	LTP180	ltpFR	3	1	0	SOFA	1342	1	n/a	0	n/a	n/a	n/a	n/a	n/a
3306.794	n/a	RECOG_CONF	1653397	n/a	LTP180	ltpFR	3	1	0	SOFA	1342	n/a	3	0	n/a	n/a	n/a	n/a	n/a
3308.62	n/a	RECOG_TARGET	1654310	n/a	LTP180	ltpFR	3	1	1	TOMATO	1476	0	1	1	n/a	n/a	n/a	n/a	n/a
3311.086	n/a	RECOG_RESP	1655543	n/a	LTP180	ltpFR	3	1	1	TOMATO	1476	0	n/a	1	n/a	n/a	n/a	n/a	n/a
3312.484	n/a	RECOG_CONF	1656242	n/a	LTP180	ltpFR	3	1	1	TOMATO	1476	n/a	1	1	n/a	n/a	n/a	n/a	n/a
3314.224	n/a	RECOG_LURE	1657112	n/a	LTP180	ltpFR	3	1	n/a	QUILT	1151	0	5	n/a	n/a	n/a	n/a	n/a	n/a
3316.032	n/a	RECOG_RESP	1658016	n/a	LTP180	ltpFR	3	1	n/a	QUILT	1151	0	n/a	n/a	n/a	n/a	n/a	n/a	n/a
3317.02	n/a	RECOG_CONF	1658510	n/a	LTP180	ltpFR	3	1	n/a	QUILT	1151	n/a	5	n/a	n/a	n/a	n/a	n/a	n/a
3318.81	n/a	RECOG_TARGET	1659405	n/a	LTP180	ltpFR	3	1	0	BRAN	167	0	3	0	n/a	n/a	n/a	n/a	n/a
3321.404	n/a	RECOG_RESP	1660702	n/a	LTP180	ltpFR	3	1	0	BRAN	167	0	n/a	0	n/a	n/a	n/a	n/a	n/a
3322.382	n/a	RECOG_CONF	1661191	n/a	LTP180	ltpFR	3	1	0	BRAN	167	n/a	3	0	n/a	n/a	n/a	n/a	n/a
3323.712	n/a	RECOG_TARGET	1661856	n/a	LTP180	ltpFR	3	1	1	HOUND	724	0	5	2	n/a	n/a	n/a	n/a	n/a
3324.852	n/a	RECOG_RESP	1662426	n/a	LTP180	ltpFR	3	1	1	HOUND	724	0	n/a	2	n/a	n/a	n/a	n/a	n/a
3326.166	n/a	RECOG_CONF	1663083	n/a	LTP180	ltpFR	3	1	1	HOUND	724	n/a	5	2	n/a	n/a	n/a	n/a	n/a
3327.626	n/a	RECOG_TARGET	1663813	n/a	LTP180	ltpFR	3	1	0	LIGHTNING	820	1	5	0	n/a	n/a	n/a	n/a	n/a
3329.89	n/a	RECOG_RESP	1664945	n/a	LTP180	ltpFR	3	1	0	LIGHTNING	820	1	n/a	0	n/a	n/a	n/a	n/a	n/a
3330.962	n/a	RECOG_CONF	1665481	n/a	LTP180	ltpFR	3	1	0	LIGHTNING	820	n/a	5	0	n/a	n/a	n/a	n/a	n/a
3332.662	n/a	RECOG_TARGET	1666331	n/a	LTP180	ltpFR	3	1	-1	PUB	1135	1	5	-1	n/a	n/a	n/a	n/a	n/a
3334.112	n/a	RECOG_RESP	1667056	n/a	LTP180	ltpFR	3	1	-1	PUB	1135	1	n/a	-1	n/a	n/a	n/a	n/a	n/a
3335.18	n/a	RECOG_CONF	1667590	n/a	LTP180	ltpFR	3	1	-1	PUB	1135	n/a	5	-1	n/a	n/a	n/a	n/a	n/a
3336.916	n/a	RECOG_TARGET	1668458	n/a	LTP180	ltpFR	3	1	1	DIARY	460	1	2	3	n/a	n/a	n/a	n/a	n/a
3340.842	n/a	RECOG_RESP	1670421	n/a	LTP180	ltpFR	3	1	1	DIARY	460	1	n/a	3	n/a	n/a	n/a	n/a	n/a
3341.668	n/a	RECOG_CONF	1670834	n/a	LTP180	ltpFR	3	1	1	DIARY	460	n/a	2	3	n/a	n/a	n/a	n/a	n/a
3343.436	n/a	RECOG_TARGET	1671718	n/a	LTP180	ltpFR	3	1	-1	CAVE	263	0	1	-1	n/a	n/a	n/a	n/a	n/a
3345.572	n/a	RECOG_RESP	1672786	n/a	LTP180	ltpFR	3	1	-1	CAVE	263	0	n/a	-1	n/a	n/a	n/a	n/a	n/a
3346.462	n/a	RECOG_CONF	1673231	n/a	LTP180	ltpFR	3	1	-1	CAVE	263	n/a	1	-1	n/a	n/a	n/a	n/a	n/a
3348.322	n/a	RECOG_LURE	1674161	n/a	LTP180	ltpFR	3	1	n/a	GRADUATE	653	0	5	n/a	n/a	n/a	n/a	n/a	n/a
3349.592	n/a	RECOG_RESP	1674796	n/a	LTP180	ltpFR	3	1	n/a	GRADUATE	653	0	n/a	n/a	n/a	n/a	n/a	n/a	n/a
3350.646	n/a	RECOG_CONF	1675323	n/a	LTP180	ltpFR	3	1	n/a	GRADUATE	653	n/a	5	n/a	n/a	n/a	n/a	n/a	n/a
3352.324	n/a	RECOG_TARGET	1676162	n/a	LTP180	ltpFR	3	1	0	RAM	1165	1	5	1	n/a	n/a	n/a	n/a	n/a
3353.422	n/a	RECOG_RESP	1676711	n/a	LTP180	ltpFR	3	1	0	RAM	1165	1	n/a	1	n/a	n/a	n/a	n/a	n/a
3354.686	n/a	RECOG_CONF	1677343	n/a	LTP180	ltpFR	3	1	0	RAM	1165	n/a	5	1	n/a	n/a	n/a	n/a	n/a
3356.386	n/a	RECOG_TARGET	1678193	n/a	LTP180	ltpFR	3	1	0	TERMITE	1451	1	5	0	n/a	n/a	n/a	n/a	n/a
3357.472	n/a	RECOG_RESP	1678736	n/a	LTP180	ltpFR	3	1	0	TERMITE	1451	1	n/a	0	n/a	n/a	n/a	n/a	n/a
3358.664	n/a	RECOG_CONF	1679332	n/a	LTP180	ltpFR	3	1	0	TERMITE	1451	n/a	5	0	n/a	n/a	n/a	n/a	n/a
3360.318	n/a	RECOG_LURE	1680159	n/a	LTP180	ltpFR	3	1	n/a	EAR	513	0	3	n/a	n/a	n/a	n/a	n/a	n/a
3361.43	n/a	RECOG_RESP	1680715	n/a	LTP180	ltpFR	3	1	n/a	EAR	513	0	n/a	n/a	n/a	n/a	n/a	n/a	n/a
3362.702	n/a	RECOG_CONF	1681351	n/a	LTP180	ltpFR	3	1	n/a	EAR	513	n/a	3	n/a	n/a	n/a	n/a	n/a	n/a
3364.416	n/a	RECOG_TARGET	1682208	n/a	LTP180	ltpFR	3	1	1	BELT	120	0	5	0	n/a	n/a	n/a	n/a	n/a
3365.41	n/a	RECOG_RESP	1682705	n/a	LTP180	ltpFR	3	1	1	BELT	120	0	n/a	0	n/a	n/a	n/a	n/a	n/a
3366.726	n/a	RECOG_CONF	1683363	n/a	LTP180	ltpFR	3	1	1	BELT	120	n/a	5	0	n/a	n/a	n/a	n/a	n/a
3368.364	n/a	RECOG_TARGET	1684182	n/a	LTP180	ltpFR	3	1	0	BALLERINA	74	1	5	0	n/a	n/a	n/a	n/a	n/a
3369.634	n/a	RECOG_RESP	1684817	n/a	LTP180	ltpFR	3	1	0	BALLERINA	74	1	n/a	0	n/a	n/a	n/a	n/a	n/a
3370.716	n/a	RECOG_CONF	1685358	n/a	LTP180	ltpFR	3	1	0	BALLERINA	74	n/a	5	0	n/a	n/a	n/a	n/a	n/a
3372.316	n/a	RECOG_TARGET	1686158	n/a	LTP180	ltpFR	3	1	0	GROCERIES	663	1	5	0	n/a	n/a	n/a	n/a	n/a
3373.382	n/a	RECOG_RESP	1686691	n/a	LTP180	ltpFR	3	1	0	GROCERIES	663	1	n/a	0	n/a	n/a	n/a	n/a	n/a
3374.632	n/a	RECOG_CONF	1687316	n/a	LTP180	ltpFR	3	1	0	GROCERIES	663	n/a	5	0	n/a	n/a	n/a	n/a	n/a
3376.296	n/a	RECOG_LURE	1688148	n/a	LTP180	ltpFR	3	1	n/a	HAY	693	0	5	n/a	n/a	n/a	n/a	n/a	n/a
3377.326	n/a	RECOG_RESP	1688663	n/a	LTP180	ltpFR	3	1	n/a	HAY	693	0	n/a	n/a	n/a	n/a	n/a	n/a	n/a
3378.348	n/a	RECOG_CONF	1689174	n/a	LTP180	ltpFR	3	1	n/a	HAY	693	n/a	5	n/a	n/a	n/a	n/a	n/a	n/a
3379.976	n/a	RECOG_LURE	1689988	n/a	LTP180	ltpFR	3	1	n/a	THIMBLE	1458	0	5	n/a	n/a	n/a	n/a	n/a	n/a
3381.028	n/a	RECOG_RESP	1690514	n/a	LTP180	ltpFR	3	1	n/a	THIMBLE	1458	0	n/a	n/a	n/a	n/a	n/a	n/a	n/a
3382.116	n/a	RECOG_CONF	1691058	n/a	LTP180	ltpFR	3	1	n/a	THIMBLE	1458	n/a	5	n/a	n/a	n/a	n/a	n/a	n/a
3384.012	n/a	RECOG_TARGET	1692006	n/a	LTP180	ltpFR	3	1	0	BILL	126	1	5	1	n/a	n/a	n/a	n/a	n/a
3386.21	n/a	RECOG_RESP	1693105	n/a	LTP180	ltpFR	3	1	0	BILL	126	1	n/a	1	n/a	n/a	n/a	n/a	n/a
3387.276	n/a	RECOG_CONF	1693638	n/a	LTP180	ltpFR	3	1	0	BILL	126	n/a	5	1	n/a	n/a	n/a	n/a	n/a
3394.992	n/a	REC_START	1697496	n/a	LTP180	ltpFR	3	2	n/a	n/a	n/a	n/a	n/a	n/a	n/a	n/a	n/a	n/a	n/a
3395.034	n/a	RECOG_TARGET	1697517	n/a	LTP180	ltpFR	3	2	-1	TULIP	1517	1	5	-1	n/a	n/a	n/a	n/a	n/a
3396.29	n/a	RECOG_RESP	1698145	n/a	LTP180	ltpFR	3	2	-1	TULIP	1517	1	n/a	-1	n/a	n/a	n/a	n/a	n/a
3397.27	n/a	RECOG_CONF	1698635	n/a	LTP180	ltpFR	3	2	-1	TULIP	1517	n/a	5	-1	n/a	n/a	n/a	n/a	n/a
3398.716	n/a	RECOG_TARGET	1699358	n/a	LTP180	ltpFR	3	2	-1	OUTFIT	988	0	4	-1	n/a	n/a	n/a	n/a	n/a
3400.114	n/a	RECOG_RESP	1700057	n/a	LTP180	ltpFR	3	2	-1	OUTFIT	988	0	n/a	-1	n/a	n/a	n/a	n/a	n/a
3401.458	n/a	RECOG_CONF	1700729	n/a	LTP180	ltpFR	3	2	-1	OUTFIT	988	n/a	4	-1	n/a	n/a	n/a	n/a	n/a
3403.298	n/a	RECOG_TARGET	1701649	n/a	LTP180	ltpFR	3	2	-1	BOY	161	1	5	-1	n/a	n/a	n/a	n/a	n/a
3404.324	n/a	RECOG_RESP	1702162	n/a	LTP180	ltpFR	3	2	-1	BOY	161	1	n/a	-1	n/a	n/a	n/a	n/a	n/a
3405.746	n/a	RECOG_CONF	1702873	n/a	LTP180	ltpFR	3	2	-1	BOY	161	n/a	5	-1	n/a	n/a	n/a	n/a	n/a
3407.414	n/a	RECOG_TARGET	1703707	n/a	LTP180	ltpFR	3	2	-1	PAPER	1011	0	4	-1	n/a	n/a	n/a	n/a	n/a
3409.142	n/a	RECOG_RESP	1704571	n/a	LTP180	ltpFR	3	2	-1	PAPER	1011	0	n/a	-1	n/a	n/a	n/a	n/a	n/a
3410.418	n/a	RECOG_CONF	1705209	n/a	LTP180	ltpFR	3	2	-1	PAPER	1011	n/a	4	-1	n/a	n/a	n/a	n/a	n/a
3412.098	n/a	RECOG_TARGET	1706049	n/a	LTP180	ltpFR	3	2	1	PICTURE	1061	0	4	0	n/a	n/a	n/a	n/a	n/a
3413.31	n/a	RECOG_RESP	1706655	n/a	LTP180	ltpFR	3	2	1	PICTURE	1061	0	n/a	0	n/a	n/a	n/a	n/a	n/a
3414.502	n/a	RECOG_CONF	1707251	n/a	LTP180	ltpFR	3	2	1	PICTURE	1061	n/a	4	0	n/a	n/a	n/a	n/a	n/a
3416.148	n/a	RECOG_TARGET	1708074	n/a	LTP180	ltpFR	3	2	1	MATCH	878	0	4	0	n/a	n/a	n/a	n/a	n/a
3417.36	n/a	RECOG_RESP	1708680	n/a	LTP180	ltpFR	3	2	1	MATCH	878	0	n/a	0	n/a	n/a	n/a	n/a	n/a
3418.558	n/a	RECOG_CONF	1709279	n/a	LTP180	ltpFR	3	2	1	MATCH	878	n/a	4	0	n/a	n/a	n/a	n/a	n/a
3420.264	n/a	RECOG_TARGET	1710132	n/a	LTP180	ltpFR	3	2	-1	BEER	114	1	5	-1	n/a	n/a	n/a	n/a	n/a
3421.244	n/a	RECOG_RESP	1710622	n/a	LTP180	ltpFR	3	2	-1	BEER	114	1	n/a	-1	n/a	n/a	n/a	n/a	n/a
3422.488	n/a	RECOG_CONF	1711244	n/a	LTP180	ltpFR	3	2	-1	BEER	114	n/a	5	-1	n/a	n/a	n/a	n/a	n/a
3424.294	n/a	RECOG_TARGET	1712147	n/a	LTP180	ltpFR	3	2	-1	SCREEN	1253	0	5	-1	n/a	n/a	n/a	n/a	n/a
3425.566	n/a	RECOG_RESP	1712783	n/a	LTP180	ltpFR	3	2	-1	SCREEN	1253	0	n/a	-1	n/a	n/a	n/a	n/a	n/a
3426.772	n/a	RECOG_CONF	1713386	n/a	LTP180	ltpFR	3	2	-1	SCREEN	1253	n/a	5	-1	n/a	n/a	n/a	n/a	n/a
3428.344	n/a	RECOG_TARGET	1714172	n/a	LTP180	ltpFR	3	2	0	CAPITAL	238	1	5	1	n/a	n/a	n/a	n/a	n/a
3429.262	n/a	RECOG_RESP	1714631	n/a	LTP180	ltpFR	3	2	0	CAPITAL	238	1	n/a	1	n/a	n/a	n/a	n/a	n/a
3430.338	n/a	RECOG_CONF	1715169	n/a	LTP180	ltpFR	3	2	0	CAPITAL	238	n/a	5	1	n/a	n/a	n/a	n/a	n/a
3431.708	n/a	RECOG_TARGET	1715854	n/a	LTP180	ltpFR	3	2	-1	SPATULA	1348	0	1	-1	n/a	n/a	n/a	n/a	n/a
3435.32	n/a	RECOG_RESP	1717660	n/a	LTP180	ltpFR	3	2	-1	SPATULA	1348	0	n/a	-1	n/a	n/a	n/a	n/a	n/a
3436.54	n/a	RECOG_CONF	1718270	n/a	LTP180	ltpFR	3	2	-1	SPATULA	1348	n/a	1	-1	n/a	n/a	n/a	n/a	n/a
3437.796	n/a	RECOG_TARGET	1718898	n/a	LTP180	ltpFR	3	2	0	SATURN	1236	1	5	1	n/a	n/a	n/a	n/a	n/a
3439.188	n/a	RECOG_RESP	1719594	n/a	LTP180	ltpFR	3	2	0	SATURN	1236	1	n/a	1	n/a	n/a	n/a	n/a	n/a
3440.21	n/a	RECOG_CONF	1720105	n/a	LTP180	ltpFR	3	2	0	SATURN	1236	n/a	5	1	n/a	n/a	n/a	n/a	n/a
3441.528	n/a	RECOG_TARGET	1720764	n/a	LTP180	ltpFR	3	2	0	GOVERNOR	651	1	5	1	n/a	n/a	n/a	n/a	n/a
3442.592	n/a	RECOG_RESP	1721296	n/a	LTP180	ltpFR	3	2	0	GOVERNOR	651	1	n/a	1	n/a	n/a	n/a	n/a	n/a
3443.714	n/a	RECOG_CONF	1721857	n/a	LTP180	ltpFR	3	2	0	GOVERNOR	651	n/a	5	1	n/a	n/a	n/a	n/a	n/a
3445.476	n/a	RECOG_TARGET	1722738	n/a	LTP180	ltpFR	3	2	0	FOLLOWER	589	0	4	1	n/a	n/a	n/a	n/a	n/a
3448.244	n/a	RECOG_RESP	1724122	n/a	LTP180	ltpFR	3	2	0	FOLLOWER	589	0	n/a	1	n/a	n/a	n/a	n/a	n/a
3449.246	n/a	RECOG_CONF	1724623	n/a	LTP180	ltpFR	3	2	0	FOLLOWER	589	n/a	4	1	n/a	n/a	n/a	n/a	n/a
3450.98	n/a	RECOG_TARGET	1725490	n/a	LTP180	ltpFR	3	2	1	SLUG	1329	0	4	0	n/a	n/a	n/a	n/a	n/a
3452.196	n/a	RECOG_RESP	1726098	n/a	LTP180	ltpFR	3	2	1	SLUG	1329	0	n/a	0	n/a	n/a	n/a	n/a	n/a
3453.25	n/a	RECOG_CONF	1726625	n/a	LTP180	ltpFR	3	2	1	SLUG	1329	n/a	4	0	n/a	n/a	n/a	n/a	n/a
3454.778	n/a	RECOG_TARGET	1727389	n/a	LTP180	ltpFR	3	2	0	TUB	1514	1	5	1	n/a	n/a	n/a	n/a	n/a
3455.73	n/a	RECOG_RESP	1727865	n/a	LTP180	ltpFR	3	2	0	TUB	1514	1	n/a	1	n/a	n/a	n/a	n/a	n/a
3456.75	n/a	RECOG_CONF	1728375	n/a	LTP180	ltpFR	3	2	0	TUB	1514	n/a	5	1	n/a	n/a	n/a	n/a	n/a
3458.358	n/a	RECOG_TARGET	1729179	n/a	LTP180	ltpFR	3	2	0	RAKE	1164	1	5	0	n/a	n/a	n/a	n/a	n/a
3459.42	n/a	RECOG_RESP	1729710	n/a	LTP180	ltpFR	3	2	0	RAKE	1164	1	n/a	0	n/a	n/a	n/a	n/a	n/a
3460.51	n/a	RECOG_CONF	1730255	n/a	LTP180	ltpFR	3	2	0	RAKE	1164	n/a	5	0	n/a	n/a	n/a	n/a	n/a
3462.374	n/a	RECOG_TARGET	1731187	n/a	LTP180	ltpFR	3	2	-1	BEAN	105	1	2	-1	n/a	n/a	n/a	n/a	n/a
3467.432	n/a	RECOG_RESP	1733716	n/a	LTP180	ltpFR	3	2	-1	BEAN	105	1	n/a	-1	n/a	n/a	n/a	n/a	n/a
3468.85	n/a	RECOG_CONF	1734425	n/a	LTP180	ltpFR	3	2	-1	BEAN	105	n/a	2	-1	n/a	n/a	n/a	n/a	n/a
3470.522	n/a	RECOG_TARGET	1735261	n/a	LTP180	ltpFR	3	2	0	ALLIGATOR	16	1	5	0	n/a	n/a	n/a	n/a	n/a
3471.62	n/a	RECOG_RESP	1735810	n/a	LTP180	ltpFR	3	2	0	ALLIGATOR	16	1	n/a	0	n/a	n/a	n/a	n/a	n/a
3472.632	n/a	RECOG_CONF	1736316	n/a	LTP180	ltpFR	3	2	0	ALLIGATOR	16	n/a	5	0	n/a	n/a	n/a	n/a	n/a
3474.308	n/a	RECOG_TARGET	1737154	n/a	LTP180	ltpFR	3	2	0	SEAL	1262	1	5	n/a	n/a	n/a	n/a	n/a	n/a
3475.434	n/a	RECOG_RESP	1737717	n/a	LTP180	ltpFR	3	2	0	SEAL	1262	1	n/a	n/a	n/a	n/a	n/a	n/a	n/a
3476.612	n/a	RECOG_CONF	1738306	n/a	LTP180	ltpFR	3	2	0	SEAL	1262	n/a	5	n/a	n/a	n/a	n/a	n/a	n/a
3478.468	n/a	RECOG_LURE	1739234	n/a	LTP180	ltpFR	3	2	n/a	CABINET	212	1	3	n/a	n/a	n/a	n/a	n/a	n/a
3479.892	n/a	RECOG_RESP	1739946	n/a	LTP180	ltpFR	3	2	n/a	CABINET	212	1	n/a	n/a	n/a	n/a	n/a	n/a	n/a
3480.778	n/a	RECOG_CONF	1740389	n/a	LTP180	ltpFR	3	2	n/a	CABINET	212	n/a	3	n/a	n/a	n/a	n/a	n/a	n/a
3485.724	n/a	REC_START	1742862	n/a	LTP180	ltpFR	3	3	n/a	n/a	n/a	n/a	n/a	n/a	n/a	n/a	n/a	n/a	n/a
3485.764	n/a	RECOG_TARGET	1742882	n/a	LTP180	ltpFR	3	3	-1	PEAR	1033	0	5	-1	n/a	n/a	n/a	n/a	n/a
3487.128	n/a	RECOG_RESP	1743564	n/a	LTP180	ltpFR	3	3	-1	PEAR	1033	0	n/a	-1	n/a	n/a	n/a	n/a	n/a
3487.994	n/a	RECOG_CONF	1743997	n/a	LTP180	ltpFR	3	3	-1	PEAR	1033	n/a	5	-1	n/a	n/a	n/a	n/a	n/a
3489.63	n/a	RECOG_LURE	1744815	n/a	LTP180	ltpFR	3	3	n/a	TORCH	1484	0	3	n/a	n/a	n/a	n/a	n/a	n/a
3491.64	n/a	RECOG_RESP	1745820	n/a	LTP180	ltpFR	3	3	n/a	TORCH	1484	0	n/a	n/a	n/a	n/a	n/a	n/a	n/a
3492.594	n/a	RECOG_CONF	1746297	n/a	LTP180	ltpFR	3	3	n/a	TORCH	1484	n/a	3	n/a	n/a	n/a	n/a	n/a	n/a
3494.212	n/a	RECOG_LURE	1747106	n/a	LTP180	ltpFR	3	3	n/a	CHARCOAL	281	0	5	n/a	n/a	n/a	n/a	n/a	n/a
3495.248	n/a	RECOG_RESP	1747624	n/a	LTP180	ltpFR	3	3	n/a	CHARCOAL	281	0	n/a	n/a	n/a	n/a	n/a	n/a	n/a
3496.332	n/a	RECOG_CONF	1748166	n/a	LTP180	ltpFR	3	3	n/a	CHARCOAL	281	n/a	5	n/a	n/a	n/a	n/a	n/a	n/a
3497.96	n/a	RECOG_LURE	1748980	n/a	LTP180	ltpFR	3	3	n/a	MARGARINE	868	0	5	n/a	n/a	n/a	n/a	n/a	n/a
3498.98	n/a	RECOG_RESP	1749490	n/a	LTP180	ltpFR	3	3	n/a	MARGARINE	868	0	n/a	n/a	n/a	n/a	n/a	n/a	n/a
3499.994	n/a	RECOG_CONF	1749997	n/a	LTP180	ltpFR	3	3	n/a	MARGARINE	868	n/a	5	n/a	n/a	n/a	n/a	n/a	n/a
3501.726	n/a	RECOG_TARGET	1750863	n/a	LTP180	ltpFR	3	3	1	DOUGHNUT	490	0	4	0	n/a	n/a	n/a	n/a	n/a
3503.344	n/a	RECOG_RESP	1751672	n/a	LTP180	ltpFR	3	3	1	DOUGHNUT	490	0	n/a	0	n/a	n/a	n/a	n/a	n/a
3504.406	n/a	RECOG_CONF	1752203	n/a	LTP180	ltpFR	3	3	1	DOUGHNUT	490	n/a	4	0	n/a	n/a	n/a	n/a	n/a
3506.108	n/a	RECOG_LURE	1753054	n/a	LTP180	ltpFR	3	3	n/a	TUXEDO	1525	0	5	n/a	n/a	n/a	n/a	n/a	n/a
3509.026	n/a	RECOG_RESP	1754513	n/a	LTP180	ltpFR	3	3	n/a	TUXEDO	1525	0	n/a	n/a	n/a	n/a	n/a	n/a	n/a
3509.782	n/a	RECOG_CONF	1754891	n/a	LTP180	ltpFR	3	3	n/a	TUXEDO	1525	n/a	5	n/a	n/a	n/a	n/a	n/a	n/a
3511.328	n/a	RECOG_TARGET	1755664	n/a	LTP180	ltpFR	3	3	1	TREAD	1499	0	1	0	n/a	n/a	n/a	n/a	n/a
3516.822	n/a	RECOG_RESP	1758411	n/a	LTP180	ltpFR	3	3	1	TREAD	1499	0	n/a	0	n/a	n/a	n/a	n/a	n/a
3517.984	n/a	RECOG_CONF	1758992	n/a	LTP180	ltpFR	3	3	1	TREAD	1499	n/a	1	0	n/a	n/a	n/a	n/a	n/a
3519.61	n/a	RECOG_TARGET	1759805	n/a	LTP180	ltpFR	3	3	0	PARCEL	1012	1	3	0	n/a	n/a	n/a	n/a	n/a
3520.856	n/a	RECOG_RESP	1760428	n/a	LTP180	ltpFR	3	3	0	PARCEL	1012	1	n/a	0	n/a	n/a	n/a	n/a	n/a
3521.866	n/a	RECOG_CONF	1760933	n/a	LTP180	ltpFR	3	3	0	PARCEL	1012	n/a	3	0	n/a	n/a	n/a	n/a	n/a
3523.524	n/a	RECOG_TARGET	1761762	n/a	LTP180	ltpFR	3	3	1	JEWEL	757	1	5	0	n/a	n/a	n/a	n/a	n/a
3524.576	n/a	RECOG_RESP	1762288	n/a	LTP180	ltpFR	3	3	1	JEWEL	757	1	n/a	0	n/a	n/a	n/a	n/a	n/a
3525.542	n/a	RECOG_CONF	1762771	n/a	LTP180	ltpFR	3	3	1	JEWEL	757	n/a	5	0	n/a	n/a	n/a	n/a	n/a
3528.062	n/a	RECOG_TARGET	1764031	n/a	LTP180	ltpFR	3	3	1	BLUEPRINT	142	1	5	0	n/a	n/a	n/a	n/a	n/a
3529.234	n/a	RECOG_RESP	1764617	n/a	LTP180	ltpFR	3	3	1	BLUEPRINT	142	1	n/a	0	n/a	n/a	n/a	n/a	n/a
3530.338	n/a	RECOG_CONF	1765169	n/a	LTP180	ltpFR	3	3	1	BLUEPRINT	142	n/a	5	0	n/a	n/a	n/a	n/a	n/a
3531.924	n/a	RECOG_TARGET	1765962	n/a	LTP180	ltpFR	3	3	1	BENCH	121	0	5	0	n/a	n/a	n/a	n/a	n/a
3532.982	n/a	RECOG_RESP	1766491	n/a	LTP180	ltpFR	3	3	1	BENCH	121	0	n/a	0	n/a	n/a	n/a	n/a	n/a
3533.796	n/a	RECOG_CONF	1766898	n/a	LTP180	ltpFR	3	3	1	BENCH	121	n/a	5	0	n/a	n/a	n/a	n/a	n/a
3536.056	n/a	RECOG_LURE	1768028	n/a	LTP180	ltpFR	3	3	n/a	BANANA	77	0	5	n/a	n/a	n/a	n/a	n/a	n/a
3537.244	n/a	RECOG_RESP_VV	1768622	n/a	LTP180	ltpFR	3	3	n/a	BANANA	77	1	n/a	n/a	n/a	n/a	n/a	n/a	n/a
3537.964	n/a	RECOG_RESP	1768982	n/a	LTP180	ltpFR	3	3	n/a	BANANA	77	0	n/a	n/a	n/a	n/a	n/a	n/a	n/a
3539.19	n/a	RECOG_CONF	1769595	n/a	LTP180	ltpFR	3	3	n/a	BANANA	77	n/a	5	n/a	n/a	n/a	n/a	n/a	n/a
3540.758	n/a	RECOG_TARGET	1770379	n/a	LTP180	ltpFR	3	3	0	CONE	363	1	5	0	n/a	n/a	n/a	n/a	n/a
3541.934	n/a	RECOG_RESP	1770967	n/a	LTP180	ltpFR	3	3	0	CONE	363	1	n/a	0	n/a	n/a	n/a	n/a	n/a
3543.056	n/a	RECOG_CONF	1771528	n/a	LTP180	ltpFR	3	3	0	CONE	363	n/a	5	0	n/a	n/a	n/a	n/a	n/a
3544.556	n/a	RECOG_TARGET	1772278	n/a	LTP180	ltpFR	3	3	0	CHECK	284	0	1	0	n/a	n/a	n/a	n/a	n/a
3547.562	n/a	RECOG_RESP	1773781	n/a	LTP180	ltpFR	3	3	0	CHECK	284	0	n/a	0	n/a	n/a	n/a	n/a	n/a
3548.418	n/a	RECOG_CONF	1774209	n/a	LTP180	ltpFR	3	3	0	CHECK	284	n/a	1	0	n/a	n/a	n/a	n/a	n/a
3550.562	n/a	RECOG_LURE	1775281	n/a	LTP180	ltpFR	3	3	n/a	MONASTERY	907	0	5	n/a	n/a	n/a	n/a	n/a	n/a
3551.91	n/a	RECOG_RESP	1775955	n/a	LTP180	ltpFR	3	3	n/a	MONASTERY	907	0	n/a	n/a	n/a	n/a	n/a	n/a	n/a
3553.108	n/a	RECOG_CONF	1776554	n/a	LTP180	ltpFR	3	3	n/a	MONASTERY	907	n/a	5	n/a	n/a	n/a	n/a	n/a	n/a
3554.694	n/a	RECOG_TARGET	1777347	n/a	LTP180	ltpFR	3	3	-1	SAXOPHONE	1240	1	5	-1	n/a	n/a	n/a	n/a	n/a
3555.956	n/a	RECOG_RESP	1777978	n/a	LTP180	ltpFR	3	3	-1	SAXOPHONE	1240	1	n/a	-1	n/a	n/a	n/a	n/a	n/a
3557.392	n/a	RECOG_CONF	1778696	n/a	LTP180	ltpFR	3	3	-1	SAXOPHONE	1240	n/a	5	-1	n/a	n/a	n/a	n/a	n/a
3559.06	n/a	RECOG_TARGET	1779530	n/a	LTP180	ltpFR	3	3	1	SLACKS	1323	1	5	0	n/a	n/a	n/a	n/a	n/a
3560.232	n/a	RECOG_RESP	1780116	n/a	LTP180	ltpFR	3	3	1	SLACKS	1323	1	n/a	0	n/a	n/a	n/a	n/a	n/a
3561.406	n/a	RECOG_CONF	1780703	n/a	LTP180	ltpFR	3	3	1	SLACKS	1323	n/a	5	0	n/a	n/a	n/a	n/a	n/a
3563.194	n/a	RECOG_TARGET	1781597	n/a	LTP180	ltpFR	3	3	0	ROSE	1212	1	5	0	n/a	n/a	n/a	n/a	n/a
3564.372	n/a	RECOG_RESP	1782186	n/a	LTP180	ltpFR	3	3	0	ROSE	1212	1	n/a	0	n/a	n/a	n/a	n/a	n/a
3565.652	n/a	RECOG_CONF	1782826	n/a	LTP180	ltpFR	3	3	0	ROSE	1212	n/a	5	0	n/a	n/a	n/a	n/a	n/a
3567.61	n/a	RECOG_TARGET	1783805	n/a	LTP180	ltpFR	3	3	-1	DISC	473	1	3	-1	n/a	n/a	n/a	n/a	n/a
3569.548	n/a	RECOG_RESP	1784774	n/a	LTP180	ltpFR	3	3	-1	DISC	473	1	n/a	-1	n/a	n/a	n/a	n/a	n/a
3570.672	n/a	RECOG_CONF	1785336	n/a	LTP180	ltpFR	3	3	-1	DISC	473	n/a	3	-1	n/a	n/a	n/a	n/a	n/a
3572.378	n/a	RECOG_TARGET	1786189	n/a	LTP180	ltpFR	3	3	-1	RIVER	1194	0	4	-1	n/a	n/a	n/a	n/a	n/a
3573.614	n/a	RECOG_RESP	1786807	n/a	LTP180	ltpFR	3	3	-1	RIVER	1194	0	n/a	-1	n/a	n/a	n/a	n/a	n/a
3575.696	n/a	RECOG_CONF	1787848	n/a	LTP180	ltpFR	3	3	-1	RIVER	1194	n/a	4	-1	n/a	n/a	n/a	n/a	n/a
3581.082	n/a	REC_START	1790541	n/a	LTP180	ltpFR	3	4	n/a	n/a	n/a	n/a	n/a	n/a	n/a	n/a	n/a	n/a	n/a
3581.128	n/a	RECOG_TARGET	1790564	n/a	LTP180	ltpFR	3	4	0	HERD	705	0	5	0	n/a	n/a	n/a	n/a	n/a
3583.056	n/a	RECOG_RESP	1791528	n/a	LTP180	ltpFR	3	4	0	HERD	705	0	n/a	0	n/a	n/a	n/a	n/a	n/a
3584.1	n/a	RECOG_CONF	1792050	n/a	LTP180	ltpFR	3	4	0	HERD	705	n/a	5	0	n/a	n/a	n/a	n/a	n/a
3585.896	n/a	RECOG_TARGET	1792948	n/a	LTP180	ltpFR	3	4	-1	VINE	1568	0	5	-1	n/a	n/a	n/a	n/a	n/a
3587.062	n/a	RECOG_RESP	1793531	n/a	LTP180	ltpFR	3	4	-1	VINE	1568	0	n/a	-1	n/a	n/a	n/a	n/a	n/a
3588.05	n/a	RECOG_CONF	1794025	n/a	LTP180	ltpFR	3	4	-1	VINE	1568	n/a	5	-1	n/a	n/a	n/a	n/a	n/a
3589.628	n/a	RECOG_TARGET	1794814	n/a	LTP180	ltpFR	3	4	-1	COLUMN	350	0	4	-1	n/a	n/a	n/a	n/a	n/a
3591.354	n/a	RECOG_RESP	1795677	n/a	LTP180	ltpFR	3	4	-1	COLUMN	350	0	n/a	-1	n/a	n/a	n/a	n/a	n/a
3592.388	n/a	RECOG_CONF	1796194	n/a	LTP180	ltpFR	3	4	-1	COLUMN	350	n/a	4	-1	n/a	n/a	n/a	n/a	n/a
3593.744	n/a	RECOG_TARGET	1796872	n/a	LTP180	ltpFR	3	4	1	MOOSE	915	0	5	1	n/a	n/a	n/a	n/a	n/a
3595.678	n/a	RECOG_RESP	1797839	n/a	LTP180	ltpFR	3	4	1	MOOSE	915	0	n/a	1	n/a	n/a	n/a	n/a	n/a
3596.686	n/a	RECOG_CONF	1798343	n/a	LTP180	ltpFR	3	4	1	MOOSE	915	n/a	5	1	n/a	n/a	n/a	n/a	n/a
3598.464	n/a	RECOG_TARGET	1799232	n/a	LTP180	ltpFR	3	4	-1	PIT	1077	1	3	-1	n/a	n/a	n/a	n/a	n/a
3599.848	n/a	RECOG_RESP	1799924	n/a	LTP180	ltpFR	3	4	-1	PIT	1077	1	n/a	-1	n/a	n/a	n/a	n/a	n/a
3601.058	n/a	RECOG_CONF	1800529	n/a	LTP180	ltpFR	3	4	-1	PIT	1077	n/a	3	-1	n/a	n/a	n/a	n/a	n/a
3602.56	n/a	RECOG_LURE	1801280	n/a	LTP180	ltpFR	3	4	n/a	MAN	862	0	5	n/a	n/a	n/a	n/a	n/a	n/a
3603.994	n/a	RECOG_RESP	1801997	n/a	LTP180	ltpFR	3	4	n/a	MAN	862	0	n/a	n/a	n/a	n/a	n/a	n/a	n/a
3604.872	n/a	RECOG_CONF	1802436	n/a	LTP180	ltpFR	3	4	n/a	MAN	862	n/a	5	n/a	n/a	n/a	n/a	n/a	n/a
3606.508	n/a	RECOG_TARGET	1803254	n/a	LTP180	ltpFR	3	4	1	CUSTARD	429	1	1	0	n/a	n/a	n/a	n/a	n/a
3607.616	n/a	RECOG_RESP	1803808	n/a	LTP180	ltpFR	3	4	1	CUSTARD	429	1	n/a	0	n/a	n/a	n/a	n/a	n/a
3609.132	n/a	RECOG_CONF	1804566	n/a	LTP180	ltpFR	3	4	1	CUSTARD	429	n/a	1	0	n/a	n/a	n/a	n/a	n/a
3610.758	n/a	RECOG_LURE	1805379	n/a	LTP180	ltpFR	3	4	n/a	WINNER	1615	0	4	n/a	n/a	n/a	n/a	n/a	n/a
3611.866	n/a	RECOG_RESP	1805933	n/a	LTP180	ltpFR	3	4	n/a	WINNER	1615	0	n/a	n/a	n/a	n/a	n/a	n/a	n/a
3612.994	n/a	RECOG_CONF	1806497	n/a	LTP180	ltpFR	3	4	n/a	WINNER	1615	n/a	4	n/a	n/a	n/a	n/a	n/a	n/a
3614.624	n/a	RECOG_TARGET	1807312	n/a	LTP180	ltpFR	3	4	1	WIRE	1616	0	4	0	n/a	n/a	n/a	n/a	n/a
3615.674	n/a	RECOG_RESP	1807837	n/a	LTP180	ltpFR	3	4	1	WIRE	1616	0	n/a	0	n/a	n/a	n/a	n/a	n/a
3617.006	n/a	RECOG_CONF	1808503	n/a	LTP180	ltpFR	3	4	1	WIRE	1616	n/a	4	0	n/a	n/a	n/a	n/a	n/a
3618.822	n/a	RECOG_TARGET	1809411	n/a	LTP180	ltpFR	3	4	0	COLONEL	348	0	4	1	n/a	n/a	n/a	n/a	n/a
3621.716	n/a	RECOG_RESP	1810858	n/a	LTP180	ltpFR	3	4	0	COLONEL	348	0	n/a	1	n/a	n/a	n/a	n/a	n/a
3622.52	n/a	RECOG_CONF	1811260	n/a	LTP180	ltpFR	3	4	0	COLONEL	348	n/a	4	1	n/a	n/a	n/a	n/a	n/a
3624.21	n/a	RECOG_TARGET	1812105	n/a	LTP180	ltpFR	3	4	1	RICE	1190	0	4	2	n/a	n/a	n/a	n/a	n/a
3625.174	n/a	RECOG_RESP	1812587	n/a	LTP180	ltpFR	3	4	1	RICE	1190	0	n/a	2	n/a	n/a	n/a	n/a	n/a
3626.006	n/a	RECOG_CONF	1813003	n/a	LTP180	ltpFR	3	4	1	RICE	1190	n/a	4	2	n/a	n/a	n/a	n/a	n/a
3627.372	n/a	RECOG_LURE	1813686	n/a	LTP180	ltpFR	3	4	n/a	CARTON	251	0	4	n/a	n/a	n/a	n/a	n/a	n/a
3629.378	n/a	RECOG_RESP	1814689	n/a	LTP180	ltpFR	3	4	n/a	CARTON	251	0	n/a	n/a	n/a	n/a	n/a	n/a	n/a
3630.222	n/a	RECOG_CONF	1815111	n/a	LTP180	ltpFR	3	4	n/a	CARTON	251	n/a	4	n/a	n/a	n/a	n/a	n/a	n/a
3631.66	n/a	RECOG_TARGET	1815830	n/a	LTP180	ltpFR	3	4	1	SHOE	1288	1	3	0	n/a	n/a	n/a	n/a	n/a
3634.472	n/a	RECOG_RESP	1817236	n/a	LTP180	ltpFR	3	4	1	SHOE	1288	1	n/a	0	n/a	n/a	n/a	n/a	n/a
3635.34	n/a	RECOG_CONF	1817670	n/a	LTP180	ltpFR	3	4	1	SHOE	1288	n/a	3	0	n/a	n/a	n/a	n/a	n/a
3636.958	n/a	RECOG_TARGET	1818479	n/a	LTP180	ltpFR	3	4	-1	LIST	830	1	3	-1	n/a	n/a	n/a	n/a	n/a
3638.478	n/a	RECOG_RESP	1819239	n/a	LTP180	ltpFR	3	4	-1	LIST	830	1	n/a	-1	n/a	n/a	n/a	n/a	n/a
3639.486	n/a	RECOG_CONF	1819743	n/a	LTP180	ltpFR	3	4	-1	LIST	830	n/a	3	-1	n/a	n/a	n/a	n/a	n/a
3641.058	n/a	RECOG_TARGET	1820529	n/a	LTP180	ltpFR	3	4	0	HARP	689	1	5	1	n/a	n/a	n/a	n/a	n/a
3642.226	n/a	RECOG_RESP_VV	1821113	n/a	LTP180	ltpFR	3	4	0	HARP	689	0	n/a	1	n/a	n/a	n/a	n/a	n/a
3644.708	n/a	RECOG_RESP	1822354	n/a	LTP180	ltpFR	3	4	0	HARP	689	1	n/a	1	n/a	n/a	n/a	n/a	n/a
3647.284	n/a	RECOG_CONF	1823642	n/a	LTP180	ltpFR	3	4	0	HARP	689	n/a	5	1	n/a	n/a	n/a	n/a	n/a
3649.02	n/a	RECOG_LURE	1824510	n/a	LTP180	ltpFR	3	4	n/a	ANTENNA	28	0	3	n/a	n/a	n/a	n/a	n/a	n/a
3654.13	n/a	RECOG_RESP	1827065	n/a	LTP180	ltpFR	3	4	n/a	ANTENNA	28	0	n/a	n/a	n/a	n/a	n/a	n/a	n/a
3655.31	n/a	RECOG_CONF	1827655	n/a	LTP180	ltpFR	3	4	n/a	ANTENNA	28	n/a	3	n/a	n/a	n/a	n/a	n/a	n/a
3657.086	n/a	RECOG_LURE	1828543	n/a	LTP180	ltpFR	3	4	n/a	DEER	444	0	4	n/a	n/a	n/a	n/a	n/a	n/a
3658.784	n/a	RECOG_RESP	1829392	n/a	LTP180	ltpFR	3	4	n/a	DEER	444	0	n/a	n/a	n/a	n/a	n/a	n/a	n/a
3660.5	n/a	RECOG_CONF	1830250	n/a	LTP180	ltpFR	3	4	n/a	DEER	444	n/a	4	n/a	n/a	n/a	n/a	n/a	n/a
3662.424	n/a	RECOG_TARGET	1831212	n/a	LTP180	ltpFR	3	4	1	HEN	703	1	5	2	n/a	n/a	n/a	n/a	n/a
3663.476	n/a	RECOG_RESP	1831738	n/a	LTP180	ltpFR	3	4	1	HEN	703	1	n/a	2	n/a	n/a	n/a	n/a	n/a
3664.616	n/a	RECOG_CONF	1832308	n/a	LTP180	ltpFR	3	4	1	HEN	703	n/a	5	2	n/a	n/a	n/a	n/a	n/a
3666.438	n/a	RECOG_TARGET	1833219	n/a	LTP180	ltpFR	3	4	1	THORN	1459	1	5	1	n/a	n/a	n/a	n/a	n/a
3667.588	n/a	RECOG_RESP	1833794	n/a	LTP180	ltpFR	3	4	1	THORN	1459	1	n/a	1	n/a	n/a	n/a	n/a	n/a
3668.83	n/a	RECOG_CONF	1834415	n/a	LTP180	ltpFR	3	4	1	THORN	1459	n/a	5	1	n/a	n/a	n/a	n/a	n/a
3670.624	n/a	RECOG_LURE	1835312	n/a	LTP180	ltpFR	3	4	n/a	SNOB	1335	0	4	n/a	n/a	n/a	n/a	n/a	n/a
3672.504	n/a	RECOG_RESP	1836252	n/a	LTP180	ltpFR	3	4	n/a	SNOB	1335	0	n/a	n/a	n/a	n/a	n/a	n/a	n/a
3673.626	n/a	RECOG_CONF	1836813	n/a	LTP180	ltpFR	3	4	n/a	SNOB	1335	n/a	4	n/a	n/a	n/a	n/a	n/a	n/a
3679.312	n/a	REC_START	1839656	n/a	LTP180	ltpFR	3	5	n/a	n/a	n/a	n/a	n/a	n/a	n/a	n/a	n/a	n/a	n/a
3679.354	n/a	RECOG_TARGET	1839677	n/a	LTP180	ltpFR	3	5	1	SQUIRREL	1362	1	5	1	n/a	n/a	n/a	n/a	n/a
3680.714	n/a	RECOG_RESP	1840357	n/a	LTP180	ltpFR	3	5	1	SQUIRREL	1362	1	n/a	1	n/a	n/a	n/a	n/a	n/a
3681.68	n/a	RECOG_CONF	1840840	n/a	LTP180	ltpFR	3	5	1	SQUIRREL	1362	n/a	5	1	n/a	n/a	n/a	n/a	n/a
3683.436	n/a	RECOG_TARGET	1841718	n/a	LTP180	ltpFR	3	5	0	NEWSSTAND	949	1	5	1	n/a	n/a	n/a	n/a	n/a
3685.092	n/a	RECOG_RESP	1842546	n/a	LTP180	ltpFR	3	5	0	NEWSSTAND	949	1	n/a	1	n/a	n/a	n/a	n/a	n/a
3686.266	n/a	RECOG_CONF	1843133	n/a	LTP180	ltpFR	3	5	0	NEWSSTAND	949	n/a	5	1	n/a	n/a	n/a	n/a	n/a
3687.886	n/a	RECOG_LURE	1843943	n/a	LTP180	ltpFR	3	5	n/a	BUFFALO	186	0	5	n/a	n/a	n/a	n/a	n/a	n/a
3689.068	n/a	RECOG_RESP	1844534	n/a	LTP180	ltpFR	3	5	n/a	BUFFALO	186	0	n/a	n/a	n/a	n/a	n/a	n/a	n/a
3690.692	n/a	RECOG_CONF	1845346	n/a	LTP180	ltpFR	3	5	n/a	BUFFALO	186	n/a	5	n/a	n/a	n/a	n/a	n/a	n/a
3692.372	n/a	RECOG_TARGET	1846186	n/a	LTP180	ltpFR	3	5	-1	POWDER	1117	1	5	-1	n/a	n/a	n/a	n/a	n/a
3693.546	n/a	RECOG_RESP	1846773	n/a	LTP180	ltpFR	3	5	-1	POWDER	1117	1	n/a	-1	n/a	n/a	n/a	n/a	n/a
3694.922	n/a	RECOG_CONF	1847461	n/a	LTP180	ltpFR	3	5	-1	POWDER	1117	n/a	5	-1	n/a	n/a	n/a	n/a	n/a
3696.754	n/a	RECOG_TARGET	1848377	n/a	LTP180	ltpFR	3	5	-1	CANAL	226	1	5	-1	n/a	n/a	n/a	n/a	n/a
3697.984	n/a	RECOG_RESP	1848992	n/a	LTP180	ltpFR	3	5	-1	CANAL	226	1	n/a	-1	n/a	n/a	n/a	n/a	n/a
3699.052	n/a	RECOG_CONF	1849526	n/a	LTP180	ltpFR	3	5	-1	CANAL	226	n/a	5	-1	n/a	n/a	n/a	n/a	n/a
3700.836	n/a	RECOG_TARGET	1850418	n/a	LTP180	ltpFR	3	5	1	CYCLONE	431	0	3	0	n/a	n/a	n/a	n/a	n/a
3702.414	n/a	RECOG_RESP	1851207	n/a	LTP180	ltpFR	3	5	1	CYCLONE	431	0	n/a	0	n/a	n/a	n/a	n/a	n/a
3703.576	n/a	RECOG_CONF	1851788	n/a	LTP180	ltpFR	3	5	1	CYCLONE	431	n/a	3	0	n/a	n/a	n/a	n/a	n/a
3705.218	n/a	RECOG_TARGET	1852609	n/a	LTP180	ltpFR	3	5	1	NUT	965	1	5	n/a	n/a	n/a	n/a	n/a	n/a
3706.21	n/a	RECOG_RESP	1853105	n/a	LTP180	ltpFR	3	5	1	NUT	965	1	n/a	n/a	n/a	n/a	n/a	n/a	n/a
3707.304	n/a	RECOG_CONF	1853652	n/a	LTP180	ltpFR	3	5	1	NUT	965	n/a	5	n/a	n/a	n/a	n/a	n/a	n/a
3708.95	n/a	RECOG_LURE	1854475	n/a	LTP180	ltpFR	3	5	n/a	UNIVERSE	1540	1	5	n/a	n/a	n/a	n/a	n/a	n/a
3710.204	n/a	RECOG_RESP	1855102	n/a	LTP180	ltpFR	3	5	n/a	UNIVERSE	1540	1	n/a	n/a	n/a	n/a	n/a	n/a	n/a
3711.23	n/a	RECOG_CONF	1855615	n/a	LTP180	ltpFR	3	5	n/a	UNIVERSE	1540	n/a	5	n/a	n/a	n/a	n/a	n/a	n/a
3713.182	n/a	RECOG_TARGET	1856591	n/a	LTP180	ltpFR	3	5	0	BEETLE	116	1	5	0	n/a	n/a	n/a	n/a	n/a
3714.252	n/a	RECOG_RESP	1857126	n/a	LTP180	ltpFR	3	5	0	BEETLE	116	1	n/a	0	n/a	n/a	n/a	n/a	n/a
3715.312	n/a	RECOG_CONF	1857656	n/a	LTP180	ltpFR	3	5	0	BEETLE	116	n/a	5	0	n/a	n/a	n/a	n/a	n/a
3716.98	n/a	RECOG_TARGET	1858490	n/a	LTP180	ltpFR	3	5	-1	CHIEF	298	0	1	-1	n/a	n/a	n/a	n/a	n/a
3720.068	n/a	RECOG_RESP	1860034	n/a	LTP180	ltpFR	3	5	-1	CHIEF	298	0	n/a	-1	n/a	n/a	n/a	n/a	n/a
3720.966	n/a	RECOG_CONF	1860483	n/a	LTP180	ltpFR	3	5	-1	CHIEF	298	n/a	1	-1	n/a	n/a	n/a	n/a	n/a
3722.904	n/a	RECOG_LURE	1861452	n/a	LTP180	ltpFR	3	5	n/a	THREAD	1460	0	4	n/a	n/a	n/a	n/a	n/a	n/a
3724.088	n/a	RECOG_RESP	1862044	n/a	LTP180	ltpFR	3	5	n/a	THREAD	1460	0	n/a	n/a	n/a	n/a	n/a	n/a	n/a
3725.094	n/a	RECOG_CONF	1862547	n/a	LTP180	ltpFR	3	5	n/a	THREAD	1460	n/a	4	n/a	n/a	n/a	n/a	n/a	n/a
3726.818	n/a	RECOG_TARGET	1863409	n/a	LTP180	ltpFR	3	5	1	DOLPHIN	483	0	5	1	n/a	n/a	n/a	n/a	n/a
3729.112	n/a	RECOG_RESP	1864556	n/a	LTP180	ltpFR	3	5	1	DOLPHIN	483	0	n/a	1	n/a	n/a	n/a	n/a	n/a
3730.554	n/a	RECOG_CONF	1865277	n/a	LTP180	ltpFR	3	5	1	DOLPHIN	483	n/a	5	1	n/a	n/a	n/a	n/a	n/a
3732.24	n/a	RECOG_TARGET	1866120	n/a	LTP180	ltpFR	3	5	0	FEATHER	557	1	3	1	n/a	n/a	n/a	n/a	n/a
3734.446	n/a	RECOG_RESP	1867223	n/a	LTP180	ltpFR	3	5	0	FEATHER	557	1	n/a	1	n/a	n/a	n/a	n/a	n/a
3735.536	n/a	RECOG_CONF	1867768	n/a	LTP180	ltpFR	3	5	0	FEATHER	557	n/a	3	1	n/a	n/a	n/a	n/a	n/a
3737.124	n/a	RECOG_TARGET	1868562	n/a	LTP180	ltpFR	3	5	-1	MEAL	882	1	3	-1	n/a	n/a	n/a	n/a	n/a
3739.65	n/a	RECOG_RESP	1869825	n/a	LTP180	ltpFR	3	5	-1	MEAL	882	1	n/a	-1	n/a	n/a	n/a	n/a	n/a
3740.62	n/a	RECOG_CONF	1870310	n/a	LTP180	ltpFR	3	5	-1	MEAL	882	n/a	3	-1	n/a	n/a	n/a	n/a	n/a
3742.544	n/a	RECOG_TARGET	1871272	n/a	LTP180	ltpFR	3	5	-1	RACKET	1155	0	1	-1	n/a	n/a	n/a	n/a	n/a
3744.506	n/a	RECOG_RESP	1872253	n/a	LTP180	ltpFR	3	5	-1	RACKET	1155	0	n/a	-1	n/a	n/a	n/a	n/a	n/a
3745.522	n/a	RECOG_CONF	1872761	n/a	LTP180	ltpFR	3	5	-1	RACKET	1155	n/a	1	-1	n/a	n/a	n/a	n/a	n/a
3747.346	n/a	RECOG_TARGET	1873673	n/a	LTP180	ltpFR	3	5	1	DONKEY	484	0	5	1	n/a	n/a	n/a	n/a	n/a
3750.368	n/a	RECOG_RESP	1875184	n/a	LTP180	ltpFR	3	5	1	DONKEY	484	0	n/a	1	n/a	n/a	n/a	n/a	n/a
3751.256	n/a	RECOG_CONF	1875628	n/a	LTP180	ltpFR	3	5	1	DONKEY	484	n/a	5	1	n/a	n/a	n/a	n/a	n/a
3753.054	n/a	RECOG_TARGET	1876527	n/a	LTP180	ltpFR	3	5	-1	KANGAROO	768	1	5	-1	n/a	n/a	n/a	n/a	n/a
3754.116	n/a	RECOG_RESP	1877058	n/a	LTP180	ltpFR	3	5	-1	KANGAROO	768	1	n/a	-1	n/a	n/a	n/a	n/a	n/a
3755.272	n/a	RECOG_CONF	1877636	n/a	LTP180	ltpFR	3	5	-1	KANGAROO	768	n/a	5	-1	n/a	n/a	n/a	n/a	n/a
3756.85	n/a	RECOG_TARGET	1878425	n/a	LTP180	ltpFR	3	5	-1	SHACK	1273	1	3	-1	n/a	n/a	n/a	n/a	n/a
3758.014	n/a	RECOG_RESP	1879007	n/a	LTP180	ltpFR	3	5	-1	SHACK	1273	1	n/a	-1	n/a	n/a	n/a	n/a	n/a
3758.828	n/a	RECOG_CONF	1879414	n/a	LTP180	ltpFR	3	5	-1	SHACK	1273	n/a	3	-1	n/a	n/a	n/a	n/a	n/a
3760.832	n/a	RECOG_TARGET	1880416	n/a	LTP180	ltpFR	3	5	1	LANDSCAPE	799	1	5	0	n/a	n/a	n/a	n/a	n/a
3761.908	n/a	RECOG_RESP	1880954	n/a	LTP180	ltpFR	3	5	1	LANDSCAPE	799	1	n/a	0	n/a	n/a	n/a	n/a	n/a
3763.712	n/a	RECOG_CONF	1881856	n/a	LTP180	ltpFR	3	5	1	LANDSCAPE	799	n/a	5	0	n/a	n/a	n/a	n/a	n/a
3765.416	n/a	RECOG_TARGET	1882708	n/a	LTP180	ltpFR	3	5	1	DRIVEWAY	500	1	5	0	n/a	n/a	n/a	n/a	n/a
3766.554	n/a	RECOG_RESP	1883277	n/a	LTP180	ltpFR	3	5	1	DRIVEWAY	500	1	n/a	0	n/a	n/a	n/a	n/a	n/a
3768.076	n/a	RECOG_CONF	1884038	n/a	LTP180	ltpFR	3	5	1	DRIVEWAY	500	n/a	5	0	n/a	n/a	n/a	n/a	n/a
3773.282	n/a	REC_START	1886641	n/a	LTP180	ltpFR	3	6	n/a	n/a	n/a	n/a	n/a	n/a	n/a	n/a	n/a	n/a	n/a
3773.33	n/a	RECOG_TARGET	1886665	n/a	LTP180	ltpFR	3	6	0	FLEA	577	1	5	n/a	n/a	n/a	n/a	n/a	n/a
3774.96	n/a	RECOG_RESP	1887480	n/a	LTP180	ltpFR	3	6	0	FLEA	577	1	n/a	n/a	n/a	n/a	n/a	n/a	n/a
3776.056	n/a	RECOG_CONF	1888028	n/a	LTP180	ltpFR	3	6	0	FLEA	577	n/a	5	n/a	n/a	n/a	n/a	n/a	n/a
