mstime	trial_type	stim_file	subject	experiment	session	trial	task	item_name	item_num	recog_conf	resp	color_b	color_g	color_r	case	font
0	SESS_START	n/a	LTP335	ltpFR	0	n/a	n/a	n/a	n/a	2	n/a	n/a	n/a	n/a	n/a	n/a
191088	WORD	wordpools/wasnorm_wordpool_less_exclusions.txt	LTP335	ltpFR	0	1	-1	BARN	89	n/a	-1	1	1.0	1.0	upper	../fonts/Verdana.ttf
195283	WORD	wordpools/wasnorm_wordpool_less_exclusions.txt	LTP335	ltpFR	0	1	-1	CART	250	n/a	-1	1	1.0	1.0	upper	../fonts/Verdana.ttf
199227	WORD	wordpools/wasnorm_wordpool_less_exclusions.txt	LTP335	ltpFR	0	1	-1	MOSS	918	n/a	-1	1	1.0	1.0	upper	../fonts/Verdana.ttf
203406	WORD	wordpools/wasnorm_wordpool_less_exclusions.txt	LTP335	ltpFR	0	1	-1	BANQUET	86	n/a	-1	1	1.0	1.0	upper	../fonts/Verdana.ttf
207267	WORD	wordpools/wasnorm_wordpool_less_exclusions.txt	LTP335	ltpFR	0	1	-1	SHINGLE	1285	n/a	-1	1	1.0	1.0	upper	../fonts/Verdana.ttf
211411	WORD	wordpools/wasnorm_wordpool_less_exclusions.txt	LTP335	ltpFR	0	1	-1	TIMBER	1469	n/a	-1	1	1.0	1.0	upper	../fonts/Verdana.ttf
215255	WORD	wordpools/wasnorm_wordpool_less_exclusions.txt	LTP335	ltpFR	0	1	-1	ROOT	1210	n/a	-1	1	1.0	1.0	upper	../fonts/Verdana.ttf
219249	WORD	wordpools/wasnorm_wordpool_less_exclusions.txt	LTP335	ltpFR	0	1	-1	GRAPE	654	n/a	-1	1	1.0	1.0	upper	../fonts/Verdana.ttf
223393	WORD	wordpools/wasnorm_wordpool_less_exclusions.txt	LTP335	ltpFR	0	1	-1	BERRY	122	n/a	-1	1	1.0	1.0	upper	../fonts/Verdana.ttf
227421	WORD	wordpools/wasnorm_wordpool_less_exclusions.txt	LTP335	ltpFR	0	1	-1	PECAN	1036	n/a	-1	1	1.0	1.0	upper	../fonts/Verdana.ttf
231448	WORD	wordpools/wasnorm_wordpool_less_exclusions.txt	LTP335	ltpFR	0	1	-1	MAT	877	n/a	-1	1	1.0	1.0	upper	../fonts/Verdana.ttf
235293	WORD	wordpools/wasnorm_wordpool_less_exclusions.txt	LTP335	ltpFR	0	1	-1	DOG	480	n/a	-1	1	1.0	1.0	upper	../fonts/Verdana.ttf
239253	WORD	wordpools/wasnorm_wordpool_less_exclusions.txt	LTP335	ltpFR	0	1	-1	RING	1193	n/a	-1	1	1.0	1.0	upper	../fonts/Verdana.ttf
243197	WORD	wordpools/wasnorm_wordpool_less_exclusions.txt	LTP335	ltpFR	0	1	-1	PARTY	1018	n/a	-1	1	1.0	1.0	upper	../fonts/Verdana.ttf
247392	WORD	wordpools/wasnorm_wordpool_less_exclusions.txt	LTP335	ltpFR	0	1	-1	WALNUT	1584	n/a	-1	1	1.0	1.0	upper	../fonts/Verdana.ttf
251403	WORD	wordpools/wasnorm_wordpool_less_exclusions.txt	LTP335	ltpFR	0	1	-1	SALMON	1227	n/a	-1	1	1.0	1.0	upper	../fonts/Verdana.ttf
257494	REC_START	n/a	LTP335	ltpFR	0	1	n/a	n/a	n/a	n/a	n/a	n/a	n/a	n/a	n/a	n/a
259760	REC_WORD	wordpools/wasnorm_wordpool_less_exclusions.txt	LTP335	ltpFR	0	1	-1	BARN	89	n/a	-1	n/a	n/a	n/a	n/a	n/a
261222	REC_WORD	wordpools/wasnorm_wordpool_less_exclusions.txt	LTP335	ltpFR	0	1	-1	DOG	480	n/a	-1	n/a	n/a	n/a	n/a	n/a
262424	REC_WORD	wordpools/wasnorm_wordpool_less_exclusions.txt	LTP335	ltpFR	0	1	-1	MAT	877	n/a	-1	n/a	n/a	n/a	n/a	n/a
264291	REC_WORD	wordpools/wasnorm_wordpool_less_exclusions.txt	LTP335	ltpFR	0	1	-1	CART	250	n/a	-1	n/a	n/a	n/a	n/a	n/a
265698	REC_WORD	wordpools/wasnorm_wordpool_less_exclusions.txt	LTP335	ltpFR	0	1	-1	MOSS	918	n/a	-1	n/a	n/a	n/a	n/a	n/a
267341	REC_WORD	wordpools/wasnorm_wordpool_less_exclusions.txt	LTP335	ltpFR	0	1	-1	BANQUET	86	n/a	-1	n/a	n/a	n/a	n/a	n/a
269634	REC_WORD	wordpools/wasnorm_wordpool_less_exclusions.txt	LTP335	ltpFR	0	1	-1	GRAPE	654	n/a	-1	n/a	n/a	n/a	n/a	n/a
272078	REC_WORD	wordpools/wasnorm_wordpool_less_exclusions.txt	LTP335	ltpFR	0	1	-1	WALNUT	1584	n/a	-1	n/a	n/a	n/a	n/a	n/a
275014	REC_WORD	wordpools/wasnorm_wordpool_less_exclusions.txt	LTP335	ltpFR	0	1	-1	SALMON	1227	n/a	-1	n/a	n/a	n/a	n/a	n/a
277303	REC_WORD	wordpools/wasnorm_wordpool_less_exclusions.txt	LTP335	ltpFR	0	1	-1	PECAN	1036	n/a	-1	n/a	n/a	n/a	n/a	n/a
280214	REC_WORD	wordpools/wasnorm_wordpool_less_exclusions.txt	LTP335	ltpFR	0	1	-1	RING	1193	n/a	-1	n/a	n/a	n/a	n/a	n/a
284758	REC_WORD	wordpools/wasnorm_wordpool_less_exclusions.txt	LTP335	ltpFR	0	1	-1	PARTY	1018	n/a	-1	n/a	n/a	n/a	n/a	n/a
315740	REC_WORD	wordpools/wasnorm_wordpool_less_exclusions.txt	LTP335	ltpFR	0	1	-1	BERRY	122	n/a	-1	n/a	n/a	n/a	n/a	n/a
338758	WORD	wordpools/wasnorm_wordpool_less_exclusions.txt	LTP335	ltpFR	0	2	-1	COMMITTEE	355	n/a	-1	1	1.0	1.0	upper	../fonts/Verdana.ttf
342935	WORD	wordpools/wasnorm_wordpool_less_exclusions.txt	LTP335	ltpFR	0	2	-1	MAN	862	n/a	-1	1	1.0	1.0	upper	../fonts/Verdana.ttf
347096	WORD	wordpools/wasnorm_wordpool_less_exclusions.txt	LTP335	ltpFR	0	2	-1	SADDLE	1221	n/a	-1	1	1.0	1.0	upper	../fonts/Verdana.ttf
351223	WORD	wordpools/wasnorm_wordpool_less_exclusions.txt	LTP335	ltpFR	0	2	-1	SHERIFF	1284	n/a	-1	1	1.0	1.0	upper	../fonts/Verdana.ttf
355335	WORD	wordpools/wasnorm_wordpool_less_exclusions.txt	LTP335	ltpFR	0	2	-1	AGENT	10	n/a	-1	1	1.0	1.0	upper	../fonts/Verdana.ttf
359312	WORD	wordpools/wasnorm_wordpool_less_exclusions.txt	LTP335	ltpFR	0	2	-1	CHICK	296	n/a	-1	1	1.0	1.0	upper	../fonts/Verdana.ttf
363173	WORD	wordpools/wasnorm_wordpool_less_exclusions.txt	LTP335	ltpFR	0	2	-1	KNAPSACK	783	n/a	-1	1	1.0	1.0	upper	../fonts/Verdana.ttf
367268	WORD	wordpools/wasnorm_wordpool_less_exclusions.txt	LTP335	ltpFR	0	2	-1	STABLE	1363	n/a	-1	1	1.0	1.0	upper	../fonts/Verdana.ttf
371478	WORD	wordpools/wasnorm_wordpool_less_exclusions.txt	LTP335	ltpFR	0	2	-1	SEAT	1264	n/a	-1	1	1.0	1.0	upper	../fonts/Verdana.ttf
375439	WORD	wordpools/wasnorm_wordpool_less_exclusions.txt	LTP335	ltpFR	0	2	-1	STOOL	1386	n/a	-1	1	1.0	1.0	upper	../fonts/Verdana.ttf
379616	WORD	wordpools/wasnorm_wordpool_less_exclusions.txt	LTP335	ltpFR	0	2	-1	HAY	693	n/a	-1	1	1.0	1.0	upper	../fonts/Verdana.ttf
383477	WORD	wordpools/wasnorm_wordpool_less_exclusions.txt	LTP335	ltpFR	0	2	-1	FREEZER	604	n/a	-1	1	1.0	1.0	upper	../fonts/Verdana.ttf
387405	WORD	wordpools/wasnorm_wordpool_less_exclusions.txt	LTP335	ltpFR	0	2	-1	OZONE	996	n/a	-1	1	1.0	1.0	upper	../fonts/Verdana.ttf
391366	WORD	wordpools/wasnorm_wordpool_less_exclusions.txt	LTP335	ltpFR	0	2	-1	BRIEFCASE	175	n/a	-1	1	1.0	1.0	upper	../fonts/Verdana.ttf
395560	WORD	wordpools/wasnorm_wordpool_less_exclusions.txt	LTP335	ltpFR	0	2	-1	MAPLE	866	n/a	-1	1	1.0	1.0	upper	../fonts/Verdana.ttf
399554	WORD	wordpools/wasnorm_wordpool_less_exclusions.txt	LTP335	ltpFR	0	2	-1	ORNAMENT	985	n/a	-1	1	1.0	1.0	upper	../fonts/Verdana.ttf
405346	REC_START	n/a	LTP335	ltpFR	0	2	n/a	n/a	n/a	n/a	n/a	n/a	n/a	n/a	n/a	n/a
407787	REC_WORD	wordpools/wasnorm_wordpool_less_exclusions.txt	LTP335	ltpFR	0	2	-1	ORNAMENT	985	n/a	-1	n/a	n/a	n/a	n/a	n/a
409756	REC_WORD	wordpools/wasnorm_wordpool_less_exclusions.txt	LTP335	ltpFR	0	2	-1	BRIEFCASE	175	n/a	-1	n/a	n/a	n/a	n/a	n/a
412960	REC_WORD	wordpools/wasnorm_wordpool_less_exclusions.txt	LTP335	ltpFR	0	2	-1	MAN	862	n/a	-1	n/a	n/a	n/a	n/a	n/a
414743	REC_WORD	wordpools/wasnorm_wordpool_less_exclusions.txt	LTP335	ltpFR	0	2	-1	SADDLE	1221	n/a	-1	n/a	n/a	n/a	n/a	n/a
416935	REC_WORD	wordpools/wasnorm_wordpool_less_exclusions.txt	LTP335	ltpFR	0	2	-1	SHERIFF	1284	n/a	-1	n/a	n/a	n/a	n/a	n/a
420763	REC_WORD	wordpools/wasnorm_wordpool_less_exclusions.txt	LTP335	ltpFR	0	2	-1	COMMITTEE	355	n/a	-1	n/a	n/a	n/a	n/a	n/a
424182	REC_WORD	wordpools/wasnorm_wordpool_less_exclusions.txt	LTP335	ltpFR	0	2	-1	CHICK	296	n/a	-1	n/a	n/a	n/a	n/a	n/a
429974	REC_WORD	wordpools/wasnorm_wordpool_less_exclusions.txt	LTP335	ltpFR	0	2	-1	HAY	693	n/a	-1	n/a	n/a	n/a	n/a	n/a
432706	REC_WORD	wordpools/wasnorm_wordpool_less_exclusions.txt	LTP335	ltpFR	0	2	-1	SEAT	1264	n/a	-1	n/a	n/a	n/a	n/a	n/a
437236	REC_WORD	wordpools/wasnorm_wordpool_less_exclusions.txt	LTP335	ltpFR	0	2	-1	STOOL	1386	n/a	-1	n/a	n/a	n/a	n/a	n/a
447340	REC_WORD	wordpools/wasnorm_wordpool_less_exclusions.txt	LTP335	ltpFR	0	2	-1	FREEZER	604	n/a	-1	n/a	n/a	n/a	n/a	n/a
450159	REC_WORD	wordpools/wasnorm_wordpool_less_exclusions.txt	LTP335	ltpFR	0	2	-1	OZONE	996	n/a	-1	n/a	n/a	n/a	n/a	n/a
485046	WORD	wordpools/wasnorm_wordpool_less_exclusions.txt	LTP335	ltpFR	0	3	-1	BLOCKADE	137	n/a	-1	1	1.0	1.0	upper	../fonts/Verdana.ttf
488907	WORD	wordpools/wasnorm_wordpool_less_exclusions.txt	LTP335	ltpFR	0	3	-1	HANDBAG	684	n/a	-1	1	1.0	1.0	upper	../fonts/Verdana.ttf
492784	WORD	wordpools/wasnorm_wordpool_less_exclusions.txt	LTP335	ltpFR	0	3	-1	MONGOOSE	909	n/a	-1	1	1.0	1.0	upper	../fonts/Verdana.ttf
496812	WORD	wordpools/wasnorm_wordpool_less_exclusions.txt	LTP335	ltpFR	0	3	-1	BREAD	170	n/a	-1	1	1.0	1.0	upper	../fonts/Verdana.ttf
501039	WORD	wordpools/wasnorm_wordpool_less_exclusions.txt	LTP335	ltpFR	0	3	-1	BISCUIT	130	n/a	-1	1	1.0	1.0	upper	../fonts/Verdana.ttf
504933	WORD	wordpools/wasnorm_wordpool_less_exclusions.txt	LTP335	ltpFR	0	3	-1	JAW	751	n/a	-1	1	1.0	1.0	upper	../fonts/Verdana.ttf
508994	WORD	wordpools/wasnorm_wordpool_less_exclusions.txt	LTP335	ltpFR	0	3	-1	HOUND	724	n/a	-1	1	1.0	1.0	upper	../fonts/Verdana.ttf
513172	WORD	wordpools/wasnorm_wordpool_less_exclusions.txt	LTP335	ltpFR	0	3	-1	CAFETERIA	217	n/a	-1	1	1.0	1.0	upper	../fonts/Verdana.ttf
517232	WORD	wordpools/wasnorm_wordpool_less_exclusions.txt	LTP335	ltpFR	0	3	-1	COOK	372	n/a	-1	1	1.0	1.0	upper	../fonts/Verdana.ttf
521377	WORD	wordpools/wasnorm_wordpool_less_exclusions.txt	LTP335	ltpFR	0	3	-1	SHARK	1275	n/a	-1	1	1.0	1.0	upper	../fonts/Verdana.ttf
525204	WORD	wordpools/wasnorm_wordpool_less_exclusions.txt	LTP335	ltpFR	0	3	-1	POCKETBOOK	1094	n/a	-1	1	1.0	1.0	upper	../fonts/Verdana.ttf
529332	WORD	wordpools/wasnorm_wordpool_less_exclusions.txt	LTP335	ltpFR	0	3	-1	ROCK	1201	n/a	-1	1	1.0	1.0	upper	../fonts/Verdana.ttf
533226	WORD	wordpools/wasnorm_wordpool_less_exclusions.txt	LTP335	ltpFR	0	3	-1	CONCERT	360	n/a	-1	1	1.0	1.0	upper	../fonts/Verdana.ttf
537187	WORD	wordpools/wasnorm_wordpool_less_exclusions.txt	LTP335	ltpFR	0	3	-1	TOAD	1470	n/a	-1	1	1.0	1.0	upper	../fonts/Verdana.ttf
541248	WORD	wordpools/wasnorm_wordpool_less_exclusions.txt	LTP335	ltpFR	0	3	-1	FELLOW	558	n/a	-1	1	1.0	1.0	upper	../fonts/Verdana.ttf
545476	WORD	wordpools/wasnorm_wordpool_less_exclusions.txt	LTP335	ltpFR	0	3	-1	BUFFALO	186	n/a	-1	1	1.0	1.0	upper	../fonts/Verdana.ttf
551233	REC_START	n/a	LTP335	ltpFR	0	3	n/a	n/a	n/a	n/a	n/a	n/a	n/a	n/a	n/a	n/a
554013	REC_WORD	wordpools/wasnorm_wordpool_less_exclusions.txt	LTP335	ltpFR	0	3	-1	BUFFALO	186	n/a	-1	n/a	n/a	n/a	n/a	n/a
555746	REC_WORD	wordpools/wasnorm_wordpool_less_exclusions.txt	LTP335	ltpFR	0	3	-1	FELLOW	558	n/a	-1	n/a	n/a	n/a	n/a	n/a
557893	REC_WORD	wordpools/wasnorm_wordpool_less_exclusions.txt	LTP335	ltpFR	0	3	-1	TOAD	1470	n/a	-1	n/a	n/a	n/a	n/a	n/a
561746	REC_WORD	wordpools/wasnorm_wordpool_less_exclusions.txt	LTP335	ltpFR	0	3	-1	CAFETERIA	217	n/a	-1	n/a	n/a	n/a	n/a	n/a
563892	REC_WORD	wordpools/wasnorm_wordpool_less_exclusions.txt	LTP335	ltpFR	0	3	-1	ROCK	1201	n/a	-1	n/a	n/a	n/a	n/a	n/a
565407	REC_WORD	wordpools/wasnorm_wordpool_less_exclusions.txt	LTP335	ltpFR	0	3	-1	CONCERT	360	n/a	-1	n/a	n/a	n/a	n/a	n/a
570771	REC_WORD	wordpools/wasnorm_wordpool_less_exclusions.txt	LTP335	ltpFR	0	3	-1	MONGOOSE	909	n/a	-1	n/a	n/a	n/a	n/a	n/a
579951	REC_WORD	wordpools/wasnorm_wordpool_less_exclusions.txt	LTP335	ltpFR	0	3	-1	POCKETBOOK	1094	n/a	-1	n/a	n/a	n/a	n/a	n/a
583946	REC_WORD	wordpools/wasnorm_wordpool_less_exclusions.txt	LTP335	ltpFR	0	3	-1	ROCK	1201	n/a	-1	n/a	n/a	n/a	n/a	n/a
591035	REC_WORD	wordpools/wasnorm_wordpool_less_exclusions.txt	LTP335	ltpFR	0	3	-1	SHARK	1275	n/a	-1	n/a	n/a	n/a	n/a	n/a
601573	REC_WORD	wordpools/wasnorm_wordpool_less_exclusions.txt	LTP335	ltpFR	0	3	-1	BLOCKADE	137	n/a	-1	n/a	n/a	n/a	n/a	n/a
631899	WORD	wordpools/wasnorm_wordpool_less_exclusions.txt	LTP335	ltpFR	0	4	-1	QUEEN	1149	n/a	-1	1	1.0	1.0	upper	../fonts/Verdana.ttf
635793	WORD	wordpools/wasnorm_wordpool_less_exclusions.txt	LTP335	ltpFR	0	4	-1	WHEAT	1602	n/a	-1	1	1.0	1.0	upper	../fonts/Verdana.ttf
639672	WORD	wordpools/wasnorm_wordpool_less_exclusions.txt	LTP335	ltpFR	0	4	-1	GORILLA	650	n/a	-1	1	1.0	1.0	upper	../fonts/Verdana.ttf
643882	WORD	wordpools/wasnorm_wordpool_less_exclusions.txt	LTP335	ltpFR	0	4	-1	CELERY	266	n/a	-1	1	1.0	1.0	upper	../fonts/Verdana.ttf
647992	WORD	wordpools/wasnorm_wordpool_less_exclusions.txt	LTP335	ltpFR	0	4	-1	CHAIRPERSON	275	n/a	-1	1	1.0	1.0	upper	../fonts/Verdana.ttf
651820	WORD	wordpools/wasnorm_wordpool_less_exclusions.txt	LTP335	ltpFR	0	4	-1	HAT	690	n/a	-1	1	1.0	1.0	upper	../fonts/Verdana.ttf
655881	WORD	wordpools/wasnorm_wordpool_less_exclusions.txt	LTP335	ltpFR	0	4	-1	OBOE	969	n/a	-1	1	1.0	1.0	upper	../fonts/Verdana.ttf
660091	WORD	wordpools/wasnorm_wordpool_less_exclusions.txt	LTP335	ltpFR	0	4	-1	BANJO	82	n/a	-1	1	1.0	1.0	upper	../fonts/Verdana.ttf
664052	WORD	wordpools/wasnorm_wordpool_less_exclusions.txt	LTP335	ltpFR	0	4	-1	MATCH	878	n/a	-1	1	1.0	1.0	upper	../fonts/Verdana.ttf
667930	WORD	wordpools/wasnorm_wordpool_less_exclusions.txt	LTP335	ltpFR	0	4	-1	CROWN	415	n/a	-1	1	1.0	1.0	upper	../fonts/Verdana.ttf
671891	WORD	wordpools/wasnorm_wordpool_less_exclusions.txt	LTP335	ltpFR	0	4	-1	RICE	1190	n/a	-1	1	1.0	1.0	upper	../fonts/Verdana.ttf
675852	WORD	wordpools/wasnorm_wordpool_less_exclusions.txt	LTP335	ltpFR	0	4	-1	ACTOR	5	n/a	-1	1	1.0	1.0	upper	../fonts/Verdana.ttf
679681	WORD	wordpools/wasnorm_wordpool_less_exclusions.txt	LTP335	ltpFR	0	4	-1	FAMILY	550	n/a	-1	1	1.0	1.0	upper	../fonts/Verdana.ttf
683508	WORD	wordpools/wasnorm_wordpool_less_exclusions.txt	LTP335	ltpFR	0	4	-1	WAVE	1596	n/a	-1	1	1.0	1.0	upper	../fonts/Verdana.ttf
687586	WORD	wordpools/wasnorm_wordpool_less_exclusions.txt	LTP335	ltpFR	0	4	-1	LAGOON	795	n/a	-1	1	1.0	1.0	upper	../fonts/Verdana.ttf
691663	WORD	wordpools/wasnorm_wordpool_less_exclusions.txt	LTP335	ltpFR	0	4	-1	AUDIENCE	59	n/a	-1	1	1.0	1.0	upper	../fonts/Verdana.ttf
697672	REC_START	n/a	LTP335	ltpFR	0	4	n/a	n/a	n/a	n/a	n/a	n/a	n/a	n/a	n/a	n/a
700494	REC_WORD	wordpools/wasnorm_wordpool_less_exclusions.txt	LTP335	ltpFR	0	4	-1	QUEEN	1149	n/a	-1	n/a	n/a	n/a	n/a	n/a
702182	REC_WORD	wordpools/wasnorm_wordpool_less_exclusions.txt	LTP335	ltpFR	0	4	-1	CROWN	415	n/a	-1	n/a	n/a	n/a	n/a	n/a
704008	REC_WORD	wordpools/wasnorm_wordpool_less_exclusions.txt	LTP335	ltpFR	0	4	-1	CHAIRPERSON	275	n/a	-1	n/a	n/a	n/a	n/a	n/a
706192	REC_WORD	wordpools/wasnorm_wordpool_less_exclusions.txt	LTP335	ltpFR	0	4	-1	WHEAT	1602	n/a	-1	n/a	n/a	n/a	n/a	n/a
708567	REC_WORD	wordpools/wasnorm_wordpool_less_exclusions.txt	LTP335	ltpFR	0	4	-1	RICE	1190	n/a	-1	n/a	n/a	n/a	n/a	n/a
730251	REC_WORD	wordpools/wasnorm_wordpool_less_exclusions.txt	LTP335	ltpFR	0	4	-1	HAT	690	n/a	-1	n/a	n/a	n/a	n/a	n/a
732382	REC_WORD	wordpools/wasnorm_wordpool_less_exclusions.txt	LTP335	ltpFR	0	4	-1	BANJO	82	n/a	-1	n/a	n/a	n/a	n/a	n/a
734331	REC_WORD	wordpools/wasnorm_wordpool_less_exclusions.txt	LTP335	ltpFR	0	4	-1	OBOE	969	n/a	-1	n/a	n/a	n/a	n/a	n/a
1086489	WORD	wordpools/wasnorm_wordpool_less_exclusions.txt	LTP335	ltpFR	0	5	1	SHRIMP	1297	n/a	1	0	0.5869140625	0.422607421875	lower	../fonts/zerothre.ttf
1090683	WORD	wordpools/wasnorm_wordpool_less_exclusions.txt	LTP335	ltpFR	0	5	1	VILLAGE	1566	n/a	0	0	0.5869140625	0.422607421875	lower	../fonts/zerothre.ttf
1094662	WORD	wordpools/wasnorm_wordpool_less_exclusions.txt	LTP335	ltpFR	0	5	1	BUREAU	199	n/a	0	0	0.5869140625	0.422607421875	lower	../fonts/zerothre.ttf
1098805	WORD	wordpools/wasnorm_wordpool_less_exclusions.txt	LTP335	ltpFR	0	5	1	FISH	571	n/a	1	0	0.5869140625	0.422607421875	lower	../fonts/zerothre.ttf
1102849	WORD	wordpools/wasnorm_wordpool_less_exclusions.txt	LTP335	ltpFR	0	5	1	ROOM	1206	n/a	0	0	0.5869140625	0.422607421875	lower	../fonts/zerothre.ttf
1107043	WORD	wordpools/wasnorm_wordpool_less_exclusions.txt	LTP335	ltpFR	0	5	1	PELICAN	1039	n/a	1	0	0.5869140625	0.422607421875	lower	../fonts/zerothre.ttf
1110904	WORD	wordpools/wasnorm_wordpool_less_exclusions.txt	LTP335	ltpFR	0	5	1	HAMPER	682	n/a	0	0	0.5869140625	0.422607421875	lower	../fonts/zerothre.ttf
1115031	WORD	wordpools/wasnorm_wordpool_less_exclusions.txt	LTP335	ltpFR	0	5	1	SKUNK	1321	n/a	1	0	0.5869140625	0.422607421875	lower	../fonts/zerothre.ttf
1119092	WORD	wordpools/wasnorm_wordpool_less_exclusions.txt	LTP335	ltpFR	0	5	1	PARIS	1014	n/a	0	0	0.5869140625	0.422607421875	lower	../fonts/zerothre.ttf
1123119	WORD	wordpools/wasnorm_wordpool_less_exclusions.txt	LTP335	ltpFR	0	5	1	CREEK	404	n/a	0	0	0.5869140625	0.422607421875	lower	../fonts/zerothre.ttf
1127130	WORD	wordpools/wasnorm_wordpool_less_exclusions.txt	LTP335	ltpFR	0	5	1	CARNIVAL	245	n/a	0	0	0.5869140625	0.422607421875	lower	../fonts/zerothre.ttf
1131174	WORD	wordpools/wasnorm_wordpool_less_exclusions.txt	LTP335	ltpFR	0	5	1	GYMNAST	675	n/a	1	0	0.5869140625	0.422607421875	lower	../fonts/zerothre.ttf
1135319	WORD	wordpools/wasnorm_wordpool_less_exclusions.txt	LTP335	ltpFR	0	5	1	ANIMAL	23	n/a	1	0	0.5869140625	0.422607421875	lower	../fonts/zerothre.ttf
1139363	WORD	wordpools/wasnorm_wordpool_less_exclusions.txt	LTP335	ltpFR	0	5	1	CAMEL	223	n/a	1	0	0.5869140625	0.422607421875	lower	../fonts/zerothre.ttf
1143474	WORD	wordpools/wasnorm_wordpool_less_exclusions.txt	LTP335	ltpFR	0	5	1	JUPITER	765	n/a	0	0	0.5869140625	0.422607421875	lower	../fonts/zerothre.ttf
1147568	WORD	wordpools/wasnorm_wordpool_less_exclusions.txt	LTP335	ltpFR	0	5	1	SATURN	1236	n/a	0	0	0.5869140625	0.422607421875	lower	../fonts/zerothre.ttf
1153194	REC_START	n/a	LTP335	ltpFR	0	5	n/a	n/a	n/a	n/a	n/a	n/a	n/a	n/a	n/a	n/a
1155168	REC_WORD	wordpools/wasnorm_wordpool_less_exclusions.txt	LTP335	ltpFR	0	5	1	JUPITER	765	n/a	0	n/a	n/a	n/a	n/a	n/a
1156243	REC_WORD	wordpools/wasnorm_wordpool_less_exclusions.txt	LTP335	ltpFR	0	5	1	SATURN	1236	n/a	0	n/a	n/a	n/a	n/a	n/a
1157920	REC_WORD	wordpools/wasnorm_wordpool_less_exclusions.txt	LTP335	ltpFR	0	5	1	CAMEL	223	n/a	1	n/a	n/a	n/a	n/a	n/a
1159436	REC_WORD	wordpools/wasnorm_wordpool_less_exclusions.txt	LTP335	ltpFR	0	5	1	GYMNAST	675	n/a	1	n/a	n/a	n/a	n/a	n/a
1161495	REC_WORD	wordpools/wasnorm_wordpool_less_exclusions.txt	LTP335	ltpFR	0	5	1	SHRIMP	1297	n/a	1	n/a	n/a	n/a	n/a	n/a
1163291	REC_WORD	wordpools/wasnorm_wordpool_less_exclusions.txt	LTP335	ltpFR	0	5	1	PELICAN	1039	n/a	1	n/a	n/a	n/a	n/a	n/a
1165933	REC_WORD	wordpools/wasnorm_wordpool_less_exclusions.txt	LTP335	ltpFR	0	5	1	BUREAU	199	n/a	0	n/a	n/a	n/a	n/a	n/a
1168545	REC_WORD	wordpools/wasnorm_wordpool_less_exclusions.txt	LTP335	ltpFR	0	5	1	ROOM	1206	n/a	0	n/a	n/a	n/a	n/a	n/a
1170778	REC_WORD	wordpools/wasnorm_wordpool_less_exclusions.txt	LTP335	ltpFR	0	5	1	PARIS	1014	n/a	0	n/a	n/a	n/a	n/a	n/a
1176901	REC_WORD	wordpools/wasnorm_wordpool_less_exclusions.txt	LTP335	ltpFR	0	5	1	SKUNK	1321	n/a	1	n/a	n/a	n/a	n/a	n/a
1178783	REC_WORD	wordpools/wasnorm_wordpool_less_exclusions.txt	LTP335	ltpFR	0	5	1	CAMEL	223	n/a	1	n/a	n/a	n/a	n/a	n/a
1194771	REC_WORD	wordpools/wasnorm_wordpool_less_exclusions.txt	LTP335	ltpFR	0	5	1	CREEK	404	n/a	0	n/a	n/a	n/a	n/a	n/a
1234890	WORD	wordpools/wasnorm_wordpool_less_exclusions.txt	LTP335	ltpFR	0	6	1	GLACIER	638	n/a	0	0	0.5869140625	0.422607421875	lower	../fonts/zerothre.ttf
1238801	WORD	wordpools/wasnorm_wordpool_less_exclusions.txt	LTP335	ltpFR	0	6	1	PUMPKIN	1142	n/a	n/a	0	0.5869140625	0.422607421875	lower	../fonts/zerothre.ttf
1241830	SLOW_MSG	n/a	LTP335	ltpFR	0	6	n/a	n/a	n/a	n/a	n/a	n/a	n/a	n/a	n/a	n/a
1244210	WORD	wordpools/wasnorm_wordpool_less_exclusions.txt	LTP335	ltpFR	0	6	1	CROSS	413	n/a	0	0	0.5869140625	0.422607421875	lower	../fonts/zerothre.ttf
1248055	WORD	wordpools/wasnorm_wordpool_less_exclusions.txt	LTP335	ltpFR	0	6	1	FRIAR	605	n/a	0	0	0.5869140625	0.422607421875	lower	../fonts/zerothre.ttf
1251982	WORD	wordpools/wasnorm_wordpool_less_exclusions.txt	LTP335	ltpFR	0	6	1	WEB	1598	n/a	0	0	0.5869140625	0.422607421875	lower	../fonts/zerothre.ttf
1256110	WORD	wordpools/wasnorm_wordpool_less_exclusions.txt	LTP335	ltpFR	0	6	1	CUSTARD	429	n/a	0	0	0.5869140625	0.422607421875	lower	../fonts/zerothre.ttf
1260087	WORD	wordpools/wasnorm_wordpool_less_exclusions.txt	LTP335	ltpFR	0	6	1	MARSH	874	n/a	0	0	0.5869140625	0.422607421875	lower	../fonts/zerothre.ttf
1264282	WORD	wordpools/wasnorm_wordpool_less_exclusions.txt	LTP335	ltpFR	0	6	1	PHILOSOPHER	1054	n/a	1	0	0.5869140625	0.422607421875	lower	../fonts/zerothre.ttf
1268225	WORD	wordpools/wasnorm_wordpool_less_exclusions.txt	LTP335	ltpFR	0	6	1	MARROW	872	n/a	0	0	0.5869140625	0.422607421875	lower	../fonts/zerothre.ttf
1272437	WORD	wordpools/wasnorm_wordpool_less_exclusions.txt	LTP335	ltpFR	0	6	1	ICEBERG	731	n/a	0	0	0.5869140625	0.422607421875	lower	../fonts/zerothre.ttf
1276514	WORD	wordpools/wasnorm_wordpool_less_exclusions.txt	LTP335	ltpFR	0	6	1	WILDERNESS	1610	n/a	0	0	0.5869140625	0.422607421875	lower	../fonts/zerothre.ttf
1280675	WORD	wordpools/wasnorm_wordpool_less_exclusions.txt	LTP335	ltpFR	0	6	1	PELT	1040	n/a	0	0	0.5869140625	0.422607421875	lower	../fonts/zerothre.ttf
1284884	WORD	wordpools/wasnorm_wordpool_less_exclusions.txt	LTP335	ltpFR	0	6	1	CATCHER	258	n/a	1	0	0.5869140625	0.422607421875	lower	../fonts/zerothre.ttf
1288812	WORD	wordpools/wasnorm_wordpool_less_exclusions.txt	LTP335	ltpFR	0	6	1	COYOTE	396	n/a	1	0	0.5869140625	0.422607421875	lower	../fonts/zerothre.ttf
1292674	WORD	wordpools/wasnorm_wordpool_less_exclusions.txt	LTP335	ltpFR	0	6	1	DINNER	468	n/a	0	0	0.5869140625	0.422607421875	lower	../fonts/zerothre.ttf
1296734	WORD	wordpools/wasnorm_wordpool_less_exclusions.txt	LTP335	ltpFR	0	6	1	PICNIC	1060	n/a	0	0	0.5869140625	0.422607421875	lower	../fonts/zerothre.ttf
1302561	REC_START	n/a	LTP335	ltpFR	0	6	n/a	n/a	n/a	n/a	n/a	n/a	n/a	n/a	n/a	n/a
1304537	REC_WORD	wordpools/wasnorm_wordpool_less_exclusions.txt	LTP335	ltpFR	0	6	1	DINNER	468	n/a	0	n/a	n/a	n/a	n/a	n/a
1306669	REC_WORD	wordpools/wasnorm_wordpool_less_exclusions.txt	LTP335	ltpFR	0	6	1	PICNIC	1060	n/a	0	n/a	n/a	n/a	n/a	n/a
1308530	REC_WORD	wordpools/wasnorm_wordpool_less_exclusions.txt	LTP335	ltpFR	0	6	1	CATCHER	258	n/a	1	n/a	n/a	n/a	n/a	n/a
1310308	REC_WORD	wordpools/wasnorm_wordpool_less_exclusions.txt	LTP335	ltpFR	0	6	1	WILDERNESS	1610	n/a	0	n/a	n/a	n/a	n/a	n/a
1312525	REC_WORD	wordpools/wasnorm_wordpool_less_exclusions.txt	LTP335	ltpFR	0	6	1	COYOTE	396	n/a	1	n/a	n/a	n/a	n/a	n/a
1316144	REC_WORD	wordpools/wasnorm_wordpool_less_exclusions.txt	LTP335	ltpFR	0	6	1	GLACIER	638	n/a	0	n/a	n/a	n/a	n/a	n/a
1320088	REC_WORD	wordpools/wasnorm_wordpool_less_exclusions.txt	LTP335	ltpFR	0	6	1	CROSS	413	n/a	0	n/a	n/a	n/a	n/a	n/a
1384057	WORD	wordpools/wasnorm_wordpool_less_exclusions.txt	LTP335	ltpFR	0	7	1	CARAVAN	242	n/a	0	0	0.5869140625	0.422607421875	lower	../fonts/zerothre.ttf
1388035	WORD	wordpools/wasnorm_wordpool_less_exclusions.txt	LTP335	ltpFR	0	7	1	MECHANIC	884	n/a	1	0	0.5869140625	0.422607421875	lower	../fonts/zerothre.ttf
1391962	WORD	wordpools/wasnorm_wordpool_less_exclusions.txt	LTP335	ltpFR	0	7	1	PANTHER	1009	n/a	1	0	0.5869140625	0.422607421875	lower	../fonts/zerothre.ttf
1396007	WORD	wordpools/wasnorm_wordpool_less_exclusions.txt	LTP335	ltpFR	0	7	1	CHART	282	n/a	0	0	0.5869140625	0.422607421875	lower	../fonts/zerothre.ttf
1400134	WORD	wordpools/wasnorm_wordpool_less_exclusions.txt	LTP335	ltpFR	0	7	1	DAD	433	n/a	1	0	0.5869140625	0.422607421875	lower	../fonts/zerothre.ttf
1404128	WORD	wordpools/wasnorm_wordpool_less_exclusions.txt	LTP335	ltpFR	0	7	1	CONCRETE	361	n/a	0	0	0.5869140625	0.422607421875	lower	../fonts/zerothre.ttf
1408222	WORD	wordpools/wasnorm_wordpool_less_exclusions.txt	LTP335	ltpFR	0	7	1	BULLY	196	n/a	1	0	0.5869140625	0.422607421875	lower	../fonts/zerothre.ttf
1412317	WORD	wordpools/wasnorm_wordpool_less_exclusions.txt	LTP335	ltpFR	0	7	1	HERO	706	n/a	1	0	0.5869140625	0.422607421875	lower	../fonts/zerothre.ttf
1416261	WORD	wordpools/wasnorm_wordpool_less_exclusions.txt	LTP335	ltpFR	0	7	1	COUGAR	387	n/a	1	0	0.5869140625	0.422607421875	lower	../fonts/zerothre.ttf
1420122	WORD	wordpools/wasnorm_wordpool_less_exclusions.txt	LTP335	ltpFR	0	7	1	SKETCH	1315	n/a	0	0	0.5869140625	0.422607421875	lower	../fonts/zerothre.ttf
1424250	WORD	wordpools/wasnorm_wordpool_less_exclusions.txt	LTP335	ltpFR	0	7	1	HORNET	718	n/a	0	0	0.5869140625	0.422607421875	lower	../fonts/zerothre.ttf
1428160	WORD	wordpools/wasnorm_wordpool_less_exclusions.txt	LTP335	ltpFR	0	7	1	PITCHFORK	1078	n/a	0	0	0.5869140625	0.422607421875	lower	../fonts/zerothre.ttf
1432071	WORD	wordpools/wasnorm_wordpool_less_exclusions.txt	LTP335	ltpFR	0	7	1	SHRINE	1298	n/a	0	0	0.5869140625	0.422607421875	lower	../fonts/zerothre.ttf
1436266	WORD	wordpools/wasnorm_wordpool_less_exclusions.txt	LTP335	ltpFR	0	7	1	BRICK	172	n/a	0	0	0.5869140625	0.422607421875	lower	../fonts/zerothre.ttf
1440109	WORD	wordpools/wasnorm_wordpool_less_exclusions.txt	LTP335	ltpFR	0	7	1	LOCK	838	n/a	0	0	0.5869140625	0.422607421875	lower	../fonts/zerothre.ttf
1443987	WORD	wordpools/wasnorm_wordpool_less_exclusions.txt	LTP335	ltpFR	0	7	1	CABINET	212	n/a	0	0	0.5869140625	0.422607421875	lower	../fonts/zerothre.ttf
1449912	REC_START	n/a	LTP335	ltpFR	0	7	n/a	n/a	n/a	n/a	n/a	n/a	n/a	n/a	n/a	n/a
1451770	REC_WORD	wordpools/wasnorm_wordpool_less_exclusions.txt	LTP335	ltpFR	0	7	1	LOCK	838	n/a	0	n/a	n/a	n/a	n/a	n/a
1453092	REC_WORD	wordpools/wasnorm_wordpool_less_exclusions.txt	LTP335	ltpFR	0	7	1	CABINET	212	n/a	0	n/a	n/a	n/a	n/a	n/a
1456074	REC_WORD	wordpools/wasnorm_wordpool_less_exclusions.txt	LTP335	ltpFR	0	7	1	DAD	433	n/a	1	n/a	n/a	n/a	n/a	n/a
1458045	REC_WORD	wordpools/wasnorm_wordpool_less_exclusions.txt	LTP335	ltpFR	0	7	1	CONCRETE	361	n/a	0	n/a	n/a	n/a	n/a	n/a
1460385	REC_WORD	wordpools/wasnorm_wordpool_less_exclusions.txt	LTP335	ltpFR	0	7	1	BULLY	196	n/a	1	n/a	n/a	n/a	n/a	n/a
1465501	REC_WORD	wordpools/wasnorm_wordpool_less_exclusions.txt	LTP335	ltpFR	0	7	1	PITCHFORK	1078	n/a	0	n/a	n/a	n/a	n/a	n/a
1467939	REC_WORD	wordpools/wasnorm_wordpool_less_exclusions.txt	LTP335	ltpFR	0	7	1	BRICK	172	n/a	0	n/a	n/a	n/a	n/a	n/a
1474162	REC_WORD	wordpools/wasnorm_wordpool_less_exclusions.txt	LTP335	ltpFR	0	7	1	PANTHER	1009	n/a	1	n/a	n/a	n/a	n/a	n/a
1475651	REC_WORD	wordpools/wasnorm_wordpool_less_exclusions.txt	LTP335	ltpFR	0	7	1	COUGAR	387	n/a	1	n/a	n/a	n/a	n/a	n/a
1477966	REC_WORD	wordpools/wasnorm_wordpool_less_exclusions.txt	LTP335	ltpFR	0	7	1	MECHANIC	884	n/a	1	n/a	n/a	n/a	n/a	n/a
1513291	REC_WORD	wordpools/wasnorm_wordpool_less_exclusions.txt	LTP335	ltpFR	0	7	1	CABINET	212	n/a	0	n/a	n/a	n/a	n/a	n/a
1531511	WORD	wordpools/wasnorm_wordpool_less_exclusions.txt	LTP335	ltpFR	0	8	1	MONEY	908	n/a	0	0	0.5869140625	0.422607421875	lower	../fonts/zerothre.ttf
1535588	WORD	wordpools/wasnorm_wordpool_less_exclusions.txt	LTP335	ltpFR	0	8	1	FLESH	579	n/a	0	0	0.5869140625	0.422607421875	lower	../fonts/zerothre.ttf
1539516	WORD	wordpools/wasnorm_wordpool_less_exclusions.txt	LTP335	ltpFR	0	8	1	WASHCLOTH	1591	n/a	0	0	0.5869140625	0.422607421875	lower	../fonts/zerothre.ttf
1543494	WORD	wordpools/wasnorm_wordpool_less_exclusions.txt	LTP335	ltpFR	0	8	1	WATERFALL	1595	n/a	0	0	0.5869140625	0.422607421875	lower	../fonts/zerothre.ttf
1547538	WORD	wordpools/wasnorm_wordpool_less_exclusions.txt	LTP335	ltpFR	0	8	1	WAITRESS	1581	n/a	1	0	0.5869140625	0.422607421875	lower	../fonts/zerothre.ttf
1551415	WORD	wordpools/wasnorm_wordpool_less_exclusions.txt	LTP335	ltpFR	0	8	1	CAFE	216	n/a	0	0	0.5869140625	0.422607421875	lower	../fonts/zerothre.ttf
1555543	WORD	wordpools/wasnorm_wordpool_less_exclusions.txt	LTP335	ltpFR	0	8	1	CASHIER	254	n/a	1	0	0.5869140625	0.422607421875	lower	../fonts/zerothre.ttf
1559387	WORD	wordpools/wasnorm_wordpool_less_exclusions.txt	LTP335	ltpFR	0	8	1	NOMAD	955	n/a	1	0	0.5869140625	0.422607421875	lower	../fonts/zerothre.ttf
1563348	WORD	wordpools/wasnorm_wordpool_less_exclusions.txt	LTP335	ltpFR	0	8	1	HEART	697	n/a	0	0	0.5869140625	0.422607421875	lower	../fonts/zerothre.ttf
1567376	WORD	wordpools/wasnorm_wordpool_less_exclusions.txt	LTP335	ltpFR	0	8	1	KNOT	788	n/a	0	0	0.5869140625	0.422607421875	lower	../fonts/zerothre.ttf
1571553	WORD	wordpools/wasnorm_wordpool_less_exclusions.txt	LTP335	ltpFR	0	8	1	COLT	349	n/a	0	0	0.5869140625	0.422607421875	lower	../fonts/zerothre.ttf
1575530	WORD	wordpools/wasnorm_wordpool_less_exclusions.txt	LTP335	ltpFR	0	8	1	MUFFIN	929	n/a	0	0	0.5869140625	0.422607421875	lower	../fonts/zerothre.ttf
1579707	WORD	wordpools/wasnorm_wordpool_less_exclusions.txt	LTP335	ltpFR	0	8	1	RACK	1154	n/a	0	0	0.5869140625	0.422607421875	lower	../fonts/zerothre.ttf
1583569	WORD	wordpools/wasnorm_wordpool_less_exclusions.txt	LTP335	ltpFR	0	8	1	SNAIL	1332	n/a	1	0	0.5869140625	0.422607421875	lower	../fonts/zerothre.ttf
1587563	WORD	wordpools/wasnorm_wordpool_less_exclusions.txt	LTP335	ltpFR	0	8	1	PARCEL	1012	n/a	0	0	0.5869140625	0.422607421875	lower	../fonts/zerothre.ttf
1591706	WORD	wordpools/wasnorm_wordpool_less_exclusions.txt	LTP335	ltpFR	0	8	1	GIFT	635	n/a	0	0	0.5869140625	0.422607421875	lower	../fonts/zerothre.ttf
1597482	REC_START	n/a	LTP335	ltpFR	0	8	n/a	n/a	n/a	n/a	n/a	n/a	n/a	n/a	n/a	n/a
1600062	REC_WORD	wordpools/wasnorm_wordpool_less_exclusions.txt	LTP335	ltpFR	0	8	1	PARCEL	1012	n/a	0	n/a	n/a	n/a	n/a	n/a
1602291	REC_WORD	wordpools/wasnorm_wordpool_less_exclusions.txt	LTP335	ltpFR	0	8	1	GIFT	635	n/a	0	n/a	n/a	n/a	n/a	n/a
1605275	REC_WORD	wordpools/wasnorm_wordpool_less_exclusions.txt	LTP335	ltpFR	0	8	1	WAITRESS	1581	n/a	1	n/a	n/a	n/a	n/a	n/a
1607054	REC_WORD	wordpools/wasnorm_wordpool_less_exclusions.txt	LTP335	ltpFR	0	8	1	CASHIER	254	n/a	1	n/a	n/a	n/a	n/a	n/a
1608947	REC_WORD	wordpools/wasnorm_wordpool_less_exclusions.txt	LTP335	ltpFR	0	8	1	CAFE	216	n/a	0	n/a	n/a	n/a	n/a	n/a
1611953	REC_WORD	wordpools/wasnorm_wordpool_less_exclusions.txt	LTP335	ltpFR	0	8	1	MUFFIN	929	n/a	0	n/a	n/a	n/a	n/a	n/a
1614473	REC_WORD	wordpools/wasnorm_wordpool_less_exclusions.txt	LTP335	ltpFR	0	8	1	RACK	1154	n/a	0	n/a	n/a	n/a	n/a	n/a
1617895	REC_WORD	wordpools/wasnorm_wordpool_less_exclusions.txt	LTP335	ltpFR	0	8	1	NOMAD	955	n/a	1	n/a	n/a	n/a	n/a	n/a
1622666	REC_WORD	wordpools/wasnorm_wordpool_less_exclusions.txt	LTP335	ltpFR	0	8	1	MONEY	908	n/a	0	n/a	n/a	n/a	n/a	n/a
1629590	REC_WORD	wordpools/wasnorm_wordpool_less_exclusions.txt	LTP335	ltpFR	0	8	1	HEART	697	n/a	0	n/a	n/a	n/a	n/a	n/a
1632033	REC_WORD	wordpools/wasnorm_wordpool_less_exclusions.txt	LTP335	ltpFR	0	8	1	COLT	349	n/a	0	n/a	n/a	n/a	n/a	n/a
1673054	REST_REWET	n/a	LTP335	ltpFR	0	8	n/a	n/a	n/a	n/a	n/a	n/a	n/a	n/a	n/a	n/a
1807444	WORD	wordpools/wasnorm_wordpool_less_exclusions.txt	LTP335	ltpFR	0	9	0	FLANNEL	574	n/a	1	1	0.412841796875	0.57763671875	upper	../fonts/amplitud.ttf
1811521	WORD	wordpools/wasnorm_wordpool_less_exclusions.txt	LTP335	ltpFR	0	9	0	WALL	1582	n/a	1	1	0.412841796875	0.57763671875	upper	../fonts/amplitud.ttf
1815482	WORD	wordpools/wasnorm_wordpool_less_exclusions.txt	LTP335	ltpFR	0	9	0	SPY	1360	n/a	1	1	0.412841796875	0.57763671875	upper	../fonts/amplitud.ttf
1819426	WORD	wordpools/wasnorm_wordpool_less_exclusions.txt	LTP335	ltpFR	0	9	0	BELL	118	n/a	0	1	0.412841796875	0.57763671875	upper	../fonts/amplitud.ttf
1823354	WORD	wordpools/wasnorm_wordpool_less_exclusions.txt	LTP335	ltpFR	0	9	0	DIAMOND	458	n/a	0	1	0.412841796875	0.57763671875	upper	../fonts/amplitud.ttf
1827481	WORD	wordpools/wasnorm_wordpool_less_exclusions.txt	LTP335	ltpFR	0	9	0	SANDWICH	1232	n/a	0	1	0.412841796875	0.57763671875	upper	../fonts/amplitud.ttf
1831525	WORD	wordpools/wasnorm_wordpool_less_exclusions.txt	LTP335	ltpFR	0	9	0	MEAT	883	n/a	0	1	0.412841796875	0.57763671875	upper	../fonts/amplitud.ttf
1835586	WORD	wordpools/wasnorm_wordpool_less_exclusions.txt	LTP335	ltpFR	0	9	0	WAGON	1578	n/a	1	1	0.412841796875	0.57763671875	upper	../fonts/amplitud.ttf
1839564	WORD	wordpools/wasnorm_wordpool_less_exclusions.txt	LTP335	ltpFR	0	9	0	QUARTER	1148	n/a	0	1	0.412841796875	0.57763671875	upper	../fonts/amplitud.ttf
1843508	WORD	wordpools/wasnorm_wordpool_less_exclusions.txt	LTP335	ltpFR	0	9	0	LEADER	807	n/a	1	1	0.412841796875	0.57763671875	upper	../fonts/amplitud.ttf
1847336	WORD	wordpools/wasnorm_wordpool_less_exclusions.txt	LTP335	ltpFR	0	9	0	COLLAR	345	n/a	0	1	0.412841796875	0.57763671875	upper	../fonts/amplitud.ttf
1851546	WORD	wordpools/wasnorm_wordpool_less_exclusions.txt	LTP335	ltpFR	0	9	0	CAB	209	n/a	1	1	0.412841796875	0.57763671875	upper	../fonts/amplitud.ttf
1855490	WORD	wordpools/wasnorm_wordpool_less_exclusions.txt	LTP335	ltpFR	0	9	0	VIOLA	1570	n/a	1	1	0.412841796875	0.57763671875	upper	../fonts/amplitud.ttf
1859368	WORD	wordpools/wasnorm_wordpool_less_exclusions.txt	LTP335	ltpFR	0	9	0	NOTE	958	n/a	0	1	0.412841796875	0.57763671875	upper	../fonts/amplitud.ttf
1863296	WORD	wordpools/wasnorm_wordpool_less_exclusions.txt	LTP335	ltpFR	0	9	0	NAPKIN	937	n/a	0	1	0.412841796875	0.57763671875	upper	../fonts/amplitud.ttf
1867257	WORD	wordpools/wasnorm_wordpool_less_exclusions.txt	LTP335	ltpFR	0	9	0	VEST	1559	n/a	0	1	0.412841796875	0.57763671875	upper	../fonts/amplitud.ttf
1873214	REC_START	n/a	LTP335	ltpFR	0	9	n/a	n/a	n/a	n/a	n/a	n/a	n/a	n/a	n/a	n/a
1874570	REC_WORD	wordpools/wasnorm_wordpool_less_exclusions.txt	LTP335	ltpFR	0	9	0	VEST	1559	n/a	0	n/a	n/a	n/a	n/a	n/a
1875965	REC_WORD	wordpools/wasnorm_wordpool_less_exclusions.txt	LTP335	ltpFR	0	9	0	FLANNEL	574	n/a	1	n/a	n/a	n/a	n/a	n/a
1877799	REC_WORD	wordpools/wasnorm_wordpool_less_exclusions.txt	LTP335	ltpFR	0	9	0	NAPKIN	937	n/a	0	n/a	n/a	n/a	n/a	n/a
1879348	REC_WORD	wordpools/wasnorm_wordpool_less_exclusions.txt	LTP335	ltpFR	0	9	0	QUARTER	1148	n/a	0	n/a	n/a	n/a	n/a	n/a
1880817	REC_WORD	wordpools/wasnorm_wordpool_less_exclusions.txt	LTP335	ltpFR	0	9	0	SANDWICH	1232	n/a	0	n/a	n/a	n/a	n/a	n/a
1882487	REC_WORD	wordpools/wasnorm_wordpool_less_exclusions.txt	LTP335	ltpFR	0	9	0	MEAT	883	n/a	0	n/a	n/a	n/a	n/a	n/a
1884112	REC_WORD	wordpools/wasnorm_wordpool_less_exclusions.txt	LTP335	ltpFR	0	9	0	DIAMOND	458	n/a	0	n/a	n/a	n/a	n/a	n/a
1887486	REC_WORD	wordpools/wasnorm_wordpool_less_exclusions.txt	LTP335	ltpFR	0	9	0	NOTE	958	n/a	0	n/a	n/a	n/a	n/a	n/a
1891000	REC_WORD	wordpools/wasnorm_wordpool_less_exclusions.txt	LTP335	ltpFR	0	9	0	WAGON	1578	n/a	1	n/a	n/a	n/a	n/a	n/a
1895612	REC_WORD	wordpools/wasnorm_wordpool_less_exclusions.txt	LTP335	ltpFR	0	9	0	CAB	209	n/a	1	n/a	n/a	n/a	n/a	n/a
1897344	REC_WORD	wordpools/wasnorm_wordpool_less_exclusions.txt	LTP335	ltpFR	0	9	0	SPY	1360	n/a	1	n/a	n/a	n/a	n/a	n/a
1910624	REC_WORD	wordpools/wasnorm_wordpool_less_exclusions.txt	LTP335	ltpFR	0	9	0	VIOLA	1570	n/a	1	n/a	n/a	n/a	n/a	n/a
1922544	REC_WORD	wordpools/wasnorm_wordpool_less_exclusions.txt	LTP335	ltpFR	0	9	0	WALL	1582	n/a	1	n/a	n/a	n/a	n/a	n/a
1955844	WORD	wordpools/wasnorm_wordpool_less_exclusions.txt	LTP335	ltpFR	0	10	0	TOE	1473	n/a	0	1	0.412841796875	0.57763671875	upper	../fonts/amplitud.ttf
1959738	WORD	wordpools/wasnorm_wordpool_less_exclusions.txt	LTP335	ltpFR	0	10	0	INSTRUCTOR	741	n/a	1	1	0.412841796875	0.57763671875	upper	../fonts/amplitud.ttf
1963899	WORD	wordpools/wasnorm_wordpool_less_exclusions.txt	LTP335	ltpFR	0	10	0	STREAM	1392	n/a	0	1	0.412841796875	0.57763671875	upper	../fonts/amplitud.ttf
1967943	WORD	wordpools/wasnorm_wordpool_less_exclusions.txt	LTP335	ltpFR	0	10	0	RECIPE	1175	n/a	0	1	0.412841796875	0.57763671875	upper	../fonts/amplitud.ttf
1971821	WORD	wordpools/wasnorm_wordpool_less_exclusions.txt	LTP335	ltpFR	0	10	0	SWAMP	1416	n/a	1	1	0.412841796875	0.57763671875	upper	../fonts/amplitud.ttf
1975915	WORD	wordpools/wasnorm_wordpool_less_exclusions.txt	LTP335	ltpFR	0	10	0	WATER	1594	n/a	0	1	0.412841796875	0.57763671875	upper	../fonts/amplitud.ttf
1979926	WORD	wordpools/wasnorm_wordpool_less_exclusions.txt	LTP335	ltpFR	0	10	0	GRADUATE	653	n/a	1	1	0.412841796875	0.57763671875	upper	../fonts/amplitud.ttf
1983770	WORD	wordpools/wasnorm_wordpool_less_exclusions.txt	LTP335	ltpFR	0	10	0	APPENDAGE	32	n/a	0	1	0.412841796875	0.57763671875	upper	../fonts/amplitud.ttf
1987814	WORD	wordpools/wasnorm_wordpool_less_exclusions.txt	LTP335	ltpFR	0	10	0	TURKEY	1520	n/a	1	1	0.412841796875	0.57763671875	upper	../fonts/amplitud.ttf
1991975	WORD	wordpools/wasnorm_wordpool_less_exclusions.txt	LTP335	ltpFR	0	10	0	ENVELOPE	537	n/a	0	1	0.412841796875	0.57763671875	upper	../fonts/amplitud.ttf
1995986	WORD	wordpools/wasnorm_wordpool_less_exclusions.txt	LTP335	ltpFR	0	10	0	SCRIBBLE	1256	n/a	0	1	0.412841796875	0.57763671875	upper	../fonts/amplitud.ttf
2000046	WORD	wordpools/wasnorm_wordpool_less_exclusions.txt	LTP335	ltpFR	0	10	0	FINGER	567	n/a	0	1	0.412841796875	0.57763671875	upper	../fonts/amplitud.ttf
2004207	WORD	wordpools/wasnorm_wordpool_less_exclusions.txt	LTP335	ltpFR	0	10	0	TREAD	1499	n/a	1	1	0.412841796875	0.57763671875	upper	../fonts/amplitud.ttf
2008135	WORD	wordpools/wasnorm_wordpool_less_exclusions.txt	LTP335	ltpFR	0	10	0	BROOK	177	n/a	1	1	0.412841796875	0.57763671875	upper	../fonts/amplitud.ttf
2012129	WORD	wordpools/wasnorm_wordpool_less_exclusions.txt	LTP335	ltpFR	0	10	0	ICING	732	n/a	0	1	0.412841796875	0.57763671875	upper	../fonts/amplitud.ttf
2016073	WORD	wordpools/wasnorm_wordpool_less_exclusions.txt	LTP335	ltpFR	0	10	0	POSSUM	1112	n/a	1	1	0.412841796875	0.57763671875	upper	../fonts/amplitud.ttf
2021799	REC_START	n/a	LTP335	ltpFR	0	10	n/a	n/a	n/a	n/a	n/a	n/a	n/a	n/a	n/a	n/a
2023716	REC_WORD	wordpools/wasnorm_wordpool_less_exclusions.txt	LTP335	ltpFR	0	10	0	POSSUM	1112	n/a	1	n/a	n/a	n/a	n/a	n/a
2026215	REC_WORD	wordpools/wasnorm_wordpool_less_exclusions.txt	LTP335	ltpFR	0	10	0	ICING	732	n/a	0	n/a	n/a	n/a	n/a	n/a
2029321	REC_WORD	wordpools/wasnorm_wordpool_less_exclusions.txt	LTP335	ltpFR	0	10	0	SCRIBBLE	1256	n/a	0	n/a	n/a	n/a	n/a	n/a
2031963	REC_WORD	wordpools/wasnorm_wordpool_less_exclusions.txt	LTP335	ltpFR	0	10	0	NOTE	958	n/a	0	n/a	n/a	n/a	n/a	n/a
2038545	REC_WORD	wordpools/wasnorm_wordpool_less_exclusions.txt	LTP335	ltpFR	0	10	0	SWAMP	1416	n/a	1	n/a	n/a	n/a	n/a	n/a
2040890	REC_WORD	wordpools/wasnorm_wordpool_less_exclusions.txt	LTP335	ltpFR	0	10	0	STREAM	1392	n/a	0	n/a	n/a	n/a	n/a	n/a
2046704	REC_WORD	wordpools/wasnorm_wordpool_less_exclusions.txt	LTP335	ltpFR	0	10	0	APPENDAGE	32	n/a	0	n/a	n/a	n/a	n/a	n/a
2048988	REC_WORD	wordpools/wasnorm_wordpool_less_exclusions.txt	LTP335	ltpFR	0	10	0	FINGER	567	n/a	0	n/a	n/a	n/a	n/a	n/a
2050740	REC_WORD	wordpools/wasnorm_wordpool_less_exclusions.txt	LTP335	ltpFR	0	10	0	TOE	1473	n/a	0	n/a	n/a	n/a	n/a	n/a
2059720	REC_WORD	wordpools/wasnorm_wordpool_less_exclusions.txt	LTP335	ltpFR	0	10	0	WATER	1594	n/a	0	n/a	n/a	n/a	n/a	n/a
2071732	REC_WORD	wordpools/wasnorm_wordpool_less_exclusions.txt	LTP335	ltpFR	0	10	0	POSSUM	1112	n/a	1	n/a	n/a	n/a	n/a	n/a
2103080	WORD	wordpools/wasnorm_wordpool_less_exclusions.txt	LTP335	ltpFR	0	11	0	FOREHEAD	592	n/a	0	1	0.412841796875	0.57763671875	upper	../fonts/amplitud.ttf
2107041	WORD	wordpools/wasnorm_wordpool_less_exclusions.txt	LTP335	ltpFR	0	11	0	CORAL	378	n/a	1	1	0.412841796875	0.57763671875	upper	../fonts/amplitud.ttf
2111102	WORD	wordpools/wasnorm_wordpool_less_exclusions.txt	LTP335	ltpFR	0	11	0	BOMB	147	n/a	0	1	0.412841796875	0.57763671875	upper	../fonts/amplitud.ttf
2114996	WORD	wordpools/wasnorm_wordpool_less_exclusions.txt	LTP335	ltpFR	0	11	0	WINE	1613	n/a	0	1	0.412841796875	0.57763671875	upper	../fonts/amplitud.ttf
2119107	WORD	wordpools/wasnorm_wordpool_less_exclusions.txt	LTP335	ltpFR	0	11	0	COOKBOOK	373	n/a	0	1	0.412841796875	0.57763671875	upper	../fonts/amplitud.ttf
2123151	WORD	wordpools/wasnorm_wordpool_less_exclusions.txt	LTP335	ltpFR	0	11	0	FEAST	556	n/a	1	1	0.412841796875	0.57763671875	upper	../fonts/amplitud.ttf
2127145	WORD	wordpools/wasnorm_wordpool_less_exclusions.txt	LTP335	ltpFR	0	11	0	RIVER	1194	n/a	1	1	0.412841796875	0.57763671875	upper	../fonts/amplitud.ttf
2131189	WORD	wordpools/wasnorm_wordpool_less_exclusions.txt	LTP335	ltpFR	0	11	0	PEBBLE	1035	n/a	0	1	0.412841796875	0.57763671875	upper	../fonts/amplitud.ttf
2135233	WORD	wordpools/wasnorm_wordpool_less_exclusions.txt	LTP335	ltpFR	0	11	0	JEWEL	757	n/a	0	1	0.412841796875	0.57763671875	upper	../fonts/amplitud.ttf
2139329	WORD	wordpools/wasnorm_wordpool_less_exclusions.txt	LTP335	ltpFR	0	11	0	OTTER	986	n/a	1	1	0.412841796875	0.57763671875	upper	../fonts/amplitud.ttf
2143406	WORD	wordpools/wasnorm_wordpool_less_exclusions.txt	LTP335	ltpFR	0	11	0	PAIL	1002	n/a	1	1	0.412841796875	0.57763671875	upper	../fonts/amplitud.ttf
2147450	WORD	wordpools/wasnorm_wordpool_less_exclusions.txt	LTP335	ltpFR	0	11	0	ATOM	55	n/a	0	1	0.412841796875	0.57763671875	upper	../fonts/amplitud.ttf
2151361	WORD	wordpools/wasnorm_wordpool_less_exclusions.txt	LTP335	ltpFR	0	11	0	MASK	876	n/a	0	1	0.412841796875	0.57763671875	upper	../fonts/amplitud.ttf
2155204	WORD	wordpools/wasnorm_wordpool_less_exclusions.txt	LTP335	ltpFR	0	11	0	CRYSTAL	418	n/a	0	1	0.412841796875	0.57763671875	upper	../fonts/amplitud.ttf
2159316	WORD	wordpools/wasnorm_wordpool_less_exclusions.txt	LTP335	ltpFR	0	11	0	MONASTERY	907	n/a	1	1	0.412841796875	0.57763671875	upper	../fonts/amplitud.ttf
2163260	WORD	wordpools/wasnorm_wordpool_less_exclusions.txt	LTP335	ltpFR	0	11	0	TENT	1449	n/a	1	1	0.412841796875	0.57763671875	upper	../fonts/amplitud.ttf
2169235	REC_START	n/a	LTP335	ltpFR	0	11	n/a	n/a	n/a	n/a	n/a	n/a	n/a	n/a	n/a	n/a
2171156	REC_WORD	wordpools/wasnorm_wordpool_less_exclusions.txt	LTP335	ltpFR	0	11	0	TENT	1449	n/a	1	n/a	n/a	n/a	n/a	n/a
2172554	REC_WORD	wordpools/wasnorm_wordpool_less_exclusions.txt	LTP335	ltpFR	0	11	0	MONASTERY	907	n/a	1	n/a	n/a	n/a	n/a	n/a
2175426	REC_WORD	wordpools/wasnorm_wordpool_less_exclusions.txt	LTP335	ltpFR	0	11	0	ATOM	55	n/a	0	n/a	n/a	n/a	n/a	n/a
2178232	REC_WORD	wordpools/wasnorm_wordpool_less_exclusions.txt	LTP335	ltpFR	0	11	0	PEBBLE	1035	n/a	0	n/a	n/a	n/a	n/a	n/a
2180237	REC_WORD	wordpools/wasnorm_wordpool_less_exclusions.txt	LTP335	ltpFR	0	11	0	JEWEL	757	n/a	0	n/a	n/a	n/a	n/a	n/a
2183845	REC_WORD	wordpools/wasnorm_wordpool_less_exclusions.txt	LTP335	ltpFR	0	11	0	WINE	1613	n/a	0	n/a	n/a	n/a	n/a	n/a
2185530	REC_WORD	wordpools/wasnorm_wordpool_less_exclusions.txt	LTP335	ltpFR	0	11	0	COOKBOOK	373	n/a	0	n/a	n/a	n/a	n/a	n/a
2187130	REC_WORD	wordpools/wasnorm_wordpool_less_exclusions.txt	LTP335	ltpFR	0	11	0	FEAST	556	n/a	1	n/a	n/a	n/a	n/a	n/a
2188999	REC_WORD	wordpools/wasnorm_wordpool_less_exclusions.txt	LTP335	ltpFR	0	11	0	RIVER	1194	n/a	1	n/a	n/a	n/a	n/a	n/a
2193588	REC_WORD	wordpools/wasnorm_wordpool_less_exclusions.txt	LTP335	ltpFR	0	11	0	BOMB	147	n/a	0	n/a	n/a	n/a	n/a	n/a
2195106	REC_WORD	wordpools/wasnorm_wordpool_less_exclusions.txt	LTP335	ltpFR	0	11	0	ATOM	55	n/a	0	n/a	n/a	n/a	n/a	n/a
2248520	WORD	wordpools/wasnorm_wordpool_less_exclusions.txt	LTP335	ltpFR	0	12	0	EGG	518	n/a	0	1	0.412841796875	0.57763671875	upper	../fonts/amplitud.ttf
2252464	WORD	wordpools/wasnorm_wordpool_less_exclusions.txt	LTP335	ltpFR	0	12	0	DIRECTOR	471	n/a	1	1	0.412841796875	0.57763671875	upper	../fonts/amplitud.ttf
2256442	WORD	wordpools/wasnorm_wordpool_less_exclusions.txt	LTP335	ltpFR	0	12	0	SAILOR	1223	n/a	1	1	0.412841796875	0.57763671875	upper	../fonts/amplitud.ttf
2260569	WORD	wordpools/wasnorm_wordpool_less_exclusions.txt	LTP335	ltpFR	0	12	0	RASPBERRY	1168	n/a	0	1	0.412841796875	0.57763671875	upper	../fonts/amplitud.ttf
2264497	WORD	wordpools/wasnorm_wordpool_less_exclusions.txt	LTP335	ltpFR	0	12	0	GROCERIES	663	n/a	1	1	0.412841796875	0.57763671875	upper	../fonts/amplitud.ttf
2268541	WORD	wordpools/wasnorm_wordpool_less_exclusions.txt	LTP335	ltpFR	0	12	0	DINER	467	n/a	1	1	0.412841796875	0.57763671875	upper	../fonts/amplitud.ttf
2272502	WORD	wordpools/wasnorm_wordpool_less_exclusions.txt	LTP335	ltpFR	0	12	0	NEST	945	n/a	0	1	0.412841796875	0.57763671875	upper	../fonts/amplitud.ttf
2276679	WORD	wordpools/wasnorm_wordpool_less_exclusions.txt	LTP335	ltpFR	0	12	0	CREW	406	n/a	1	1	0.412841796875	0.57763671875	upper	../fonts/amplitud.ttf
2280673	WORD	wordpools/wasnorm_wordpool_less_exclusions.txt	LTP335	ltpFR	0	12	0	GOWN	652	n/a	1	1	0.412841796875	0.57763671875	upper	../fonts/amplitud.ttf
2284683	WORD	wordpools/wasnorm_wordpool_less_exclusions.txt	LTP335	ltpFR	0	12	0	DRINK	498	n/a	0	1	0.412841796875	0.57763671875	upper	../fonts/amplitud.ttf
2288645	WORD	wordpools/wasnorm_wordpool_less_exclusions.txt	LTP335	ltpFR	0	12	0	BATHTUB	100	n/a	1	1	0.412841796875	0.57763671875	upper	../fonts/amplitud.ttf
2292721	WORD	wordpools/wasnorm_wordpool_less_exclusions.txt	LTP335	ltpFR	0	12	0	BOWL	158	n/a	0	1	0.412841796875	0.57763671875	upper	../fonts/amplitud.ttf
2296550	WORD	wordpools/wasnorm_wordpool_less_exclusions.txt	LTP335	ltpFR	0	12	0	TEA	1439	n/a	1	1	0.412841796875	0.57763671875	upper	../fonts/amplitud.ttf
2300494	WORD	wordpools/wasnorm_wordpool_less_exclusions.txt	LTP335	ltpFR	0	12	0	FIG	563	n/a	0	1	0.412841796875	0.57763671875	upper	../fonts/amplitud.ttf
2304489	WORD	wordpools/wasnorm_wordpool_less_exclusions.txt	LTP335	ltpFR	0	12	0	STAIRS	1367	n/a	1	1	0.412841796875	0.57763671875	upper	../fonts/amplitud.ttf
2308666	WORD	wordpools/wasnorm_wordpool_less_exclusions.txt	LTP335	ltpFR	0	12	0	TYPEWRITER	1531	n/a	1	1	0.412841796875	0.57763671875	upper	../fonts/amplitud.ttf
2314658	REC_START	n/a	LTP335	ltpFR	0	12	n/a	n/a	n/a	n/a	n/a	n/a	n/a	n/a	n/a	n/a
2316967	REC_WORD	wordpools/wasnorm_wordpool_less_exclusions.txt	LTP335	ltpFR	0	12	0	BOWL	158	n/a	0	n/a	n/a	n/a	n/a	n/a
2318392	REC_WORD	wordpools/wasnorm_wordpool_less_exclusions.txt	LTP335	ltpFR	0	12	0	TEA	1439	n/a	1	n/a	n/a	n/a	n/a	n/a
2320211	REC_WORD	wordpools/wasnorm_wordpool_less_exclusions.txt	LTP335	ltpFR	0	12	0	FIG	563	n/a	0	n/a	n/a	n/a	n/a	n/a
2322220	REC_WORD	wordpools/wasnorm_wordpool_less_exclusions.txt	LTP335	ltpFR	0	12	0	STAIRS	1367	n/a	1	n/a	n/a	n/a	n/a	n/a
2324772	REC_WORD	wordpools/wasnorm_wordpool_less_exclusions.txt	LTP335	ltpFR	0	12	0	TYPEWRITER	1531	n/a	1	n/a	n/a	n/a	n/a	n/a
2327521	REC_WORD	wordpools/wasnorm_wordpool_less_exclusions.txt	LTP335	ltpFR	0	12	0	DIRECTOR	471	n/a	1	n/a	n/a	n/a	n/a	n/a
2329631	REC_WORD	wordpools/wasnorm_wordpool_less_exclusions.txt	LTP335	ltpFR	0	12	0	SAILOR	1223	n/a	1	n/a	n/a	n/a	n/a	n/a
2341194	REC_WORD	wordpools/wasnorm_wordpool_less_exclusions.txt	LTP335	ltpFR	0	12	0	GOWN	652	n/a	1	n/a	n/a	n/a	n/a	n/a
2343339	REC_WORD	wordpools/wasnorm_wordpool_less_exclusions.txt	LTP335	ltpFR	0	12	0	BATHTUB	100	n/a	1	n/a	n/a	n/a	n/a	n/a
2345145	REC_WORD	wordpools/wasnorm_wordpool_less_exclusions.txt	LTP335	ltpFR	0	12	0	DRINK	498	n/a	0	n/a	n/a	n/a	n/a	n/a
2347164	REC_WORD	wordpools/wasnorm_wordpool_less_exclusions.txt	LTP335	ltpFR	0	12	0	NEST	945	n/a	0	n/a	n/a	n/a	n/a	n/a
2348825	REC_WORD	wordpools/wasnorm_wordpool_less_exclusions.txt	LTP335	ltpFR	0	12	0	EGG	518	n/a	0	n/a	n/a	n/a	n/a	n/a
2354019	REC_WORD	wordpools/wasnorm_wordpool_less_exclusions.txt	LTP335	ltpFR	0	12	0	RASPBERRY	1168	n/a	0	n/a	n/a	n/a	n/a	n/a
2356305	REC_WORD	wordpools/wasnorm_wordpool_less_exclusions.txt	LTP335	ltpFR	0	12	0	GROCERIES	663	n/a	1	n/a	n/a	n/a	n/a	n/a
2358553	REC_WORD	wordpools/wasnorm_wordpool_less_exclusions.txt	LTP335	ltpFR	0	12	0	DINER	467	n/a	1	n/a	n/a	n/a	n/a	n/a
2376635	REC_WORD	wordpools/wasnorm_wordpool_less_exclusions.txt	LTP335	ltpFR	0	12	0	TEA	1439	n/a	1	n/a	n/a	n/a	n/a	n/a
2431354	WORD	wordpools/wasnorm_wordpool_less_exclusions.txt	LTP335	ltpFR	0	13	0	BARK	87	n/a	1	1	0.412841796875	0.57763671875	upper	../fonts/amplitud.ttf
2435215	WORD	wordpools/wasnorm_wordpool_less_exclusions.txt	LTP335	ltpFR	0	13	0	BIOLOGIST	128	n/a	1	1	0.412841796875	0.57763671875	upper	../fonts/amplitud.ttf
2439326	WORD	wordpools/wasnorm_wordpool_less_exclusions.txt	LTP335	ltpFR	0	13	0	KETTLE	772	n/a	1	1	0.412841796875	0.57763671875	upper	../fonts/amplitud.ttf
2443354	WORD	wordpools/wasnorm_wordpool_less_exclusions.txt	LTP335	ltpFR	0	13	0	CLIPPERS	324	n/a	0	1	0.412841796875	0.57763671875	upper	../fonts/amplitud.ttf
2447448	WORD	wordpools/wasnorm_wordpool_less_exclusions.txt	LTP335	ltpFR	0	13	0	SOFA	1342	n/a	1	1	0.412841796875	0.57763671875	upper	../fonts/amplitud.ttf
2451475	WORD	wordpools/wasnorm_wordpool_less_exclusions.txt	LTP335	ltpFR	0	13	0	EWE	542	n/a	1	1	0.412841796875	0.57763671875	upper	../fonts/amplitud.ttf
2455470	WORD	wordpools/wasnorm_wordpool_less_exclusions.txt	LTP335	ltpFR	0	13	1	OCEAN	970	n/a	0	0	0.5869140625	0.422607421875	lower	../fonts/zerothre.ttf
2459613	WORD	wordpools/wasnorm_wordpool_less_exclusions.txt	LTP335	ltpFR	0	13	1	JUG	762	n/a	0	0	0.5869140625	0.422607421875	lower	../fonts/zerothre.ttf
2463707	WORD	wordpools/wasnorm_wordpool_less_exclusions.txt	LTP335	ltpFR	0	13	1	UNICORN	1538	n/a	1	0	0.5869140625	0.422607421875	lower	../fonts/zerothre.ttf
2467901	WORD	wordpools/wasnorm_wordpool_less_exclusions.txt	LTP335	ltpFR	0	13	1	DUSTPAN	509	n/a	0	0	0.5869140625	0.422607421875	lower	../fonts/zerothre.ttf
2472011	WORD	wordpools/wasnorm_wordpool_less_exclusions.txt	LTP335	ltpFR	0	13	1	RAG	1160	n/a	0	0	0.5869140625	0.422607421875	lower	../fonts/zerothre.ttf
2476155	WORD	wordpools/wasnorm_wordpool_less_exclusions.txt	LTP335	ltpFR	0	13	1	DONKEY	484	n/a	1	0	0.5869140625	0.422607421875	lower	../fonts/zerothre.ttf
2480133	WORD	wordpools/wasnorm_wordpool_less_exclusions.txt	LTP335	ltpFR	0	13	0	FROG	608	n/a	0	1	0.412841796875	0.57763671875	upper	../fonts/amplitud.ttf
2483960	WORD	wordpools/wasnorm_wordpool_less_exclusions.txt	LTP335	ltpFR	0	13	0	TEAPOT	1442	n/a	1	1	0.412841796875	0.57763671875	upper	../fonts/amplitud.ttf
2488188	WORD	wordpools/wasnorm_wordpool_less_exclusions.txt	LTP335	ltpFR	0	13	1	COAT	333	n/a	0	0	0.5869140625	0.422607421875	lower	../fonts/zerothre.ttf
2492115	WORD	wordpools/wasnorm_wordpool_less_exclusions.txt	LTP335	ltpFR	0	13	1	JACKET	747	n/a	0	0	0.5869140625	0.422607421875	lower	../fonts/zerothre.ttf
2498007	REC_START	n/a	LTP335	ltpFR	0	13	n/a	n/a	n/a	n/a	n/a	n/a	n/a	n/a	n/a	n/a
2500520	REC_WORD	wordpools/wasnorm_wordpool_less_exclusions.txt	LTP335	ltpFR	0	13	1	COAT	333	n/a	0	n/a	n/a	n/a	n/a	n/a
2501789	REC_WORD	wordpools/wasnorm_wordpool_less_exclusions.txt	LTP335	ltpFR	0	13	1	JACKET	747	n/a	0	n/a	n/a	n/a	n/a	n/a
2504357	REC_WORD	wordpools/wasnorm_wordpool_less_exclusions.txt	LTP335	ltpFR	0	13	1	DONKEY	484	n/a	1	n/a	n/a	n/a	n/a	n/a
2505580	REC_WORD	wordpools/wasnorm_wordpool_less_exclusions.txt	LTP335	ltpFR	0	13	1	UNICORN	1538	n/a	1	n/a	n/a	n/a	n/a	n/a
2508119	REC_WORD	wordpools/wasnorm_wordpool_less_exclusions.txt	LTP335	ltpFR	0	13	0	TEAPOT	1442	n/a	1	n/a	n/a	n/a	n/a	n/a
2509606	REC_WORD	wordpools/wasnorm_wordpool_less_exclusions.txt	LTP335	ltpFR	0	13	0	KETTLE	772	n/a	1	n/a	n/a	n/a	n/a	n/a
2515566	REC_WORD	wordpools/wasnorm_wordpool_less_exclusions.txt	LTP335	ltpFR	0	13	1	OCEAN	970	n/a	0	n/a	n/a	n/a	n/a	n/a
2519014	REC_WORD	wordpools/wasnorm_wordpool_less_exclusions.txt	LTP335	ltpFR	0	13	1	DUSTPAN	509	n/a	0	n/a	n/a	n/a	n/a	n/a
2582101	WORD	wordpools/wasnorm_wordpool_less_exclusions.txt	LTP335	ltpFR	0	14	1	CANARY	227	n/a	0	0	0.5869140625	0.422607421875	lower	../fonts/zerothre.ttf
2586280	WORD	wordpools/wasnorm_wordpool_less_exclusions.txt	LTP335	ltpFR	0	14	1	CAGE	218	n/a	0	0	0.5869140625	0.422607421875	lower	../fonts/zerothre.ttf
2590440	WORD	wordpools/wasnorm_wordpool_less_exclusions.txt	LTP335	ltpFR	0	14	1	BEE	112	n/a	0	0	0.5869140625	0.422607421875	lower	../fonts/zerothre.ttf
2594501	WORD	wordpools/wasnorm_wordpool_less_exclusions.txt	LTP335	ltpFR	0	14	0	ABDOMEN	1	n/a	0	1	0.412841796875	0.57763671875	upper	../fonts/amplitud.ttf
2598645	WORD	wordpools/wasnorm_wordpool_less_exclusions.txt	LTP335	ltpFR	0	14	0	BELLY	119	n/a	1	1	0.412841796875	0.57763671875	upper	../fonts/amplitud.ttf
2602688	WORD	wordpools/wasnorm_wordpool_less_exclusions.txt	LTP335	ltpFR	0	14	0	RECORD	1176	n/a	0	1	0.412841796875	0.57763671875	upper	../fonts/amplitud.ttf
2606517	WORD	wordpools/wasnorm_wordpool_less_exclusions.txt	LTP335	ltpFR	0	14	0	BUCKET	184	n/a	1	1	0.412841796875	0.57763671875	upper	../fonts/amplitud.ttf
2610461	WORD	wordpools/wasnorm_wordpool_less_exclusions.txt	LTP335	ltpFR	0	14	1	TWIG	1527	n/a	0	0	0.5869140625	0.422607421875	lower	../fonts/zerothre.ttf
2614289	WORD	wordpools/wasnorm_wordpool_less_exclusions.txt	LTP335	ltpFR	0	14	1	CACTUS	215	n/a	1	0	0.5869140625	0.422607421875	lower	../fonts/zerothre.ttf
2618216	WORD	wordpools/wasnorm_wordpool_less_exclusions.txt	LTP335	ltpFR	0	14	1	RAFT	1159	n/a	0	0	0.5869140625	0.422607421875	lower	../fonts/zerothre.ttf
2622226	WORD	wordpools/wasnorm_wordpool_less_exclusions.txt	LTP335	ltpFR	0	14	0	WASP	1593	n/a	0	1	0.412841796875	0.57763671875	upper	../fonts/amplitud.ttf
2626137	WORD	wordpools/wasnorm_wordpool_less_exclusions.txt	LTP335	ltpFR	0	14	0	PICTURE	1061	n/a	0	1	0.412841796875	0.57763671875	upper	../fonts/amplitud.ttf
2630148	WORD	wordpools/wasnorm_wordpool_less_exclusions.txt	LTP335	ltpFR	0	14	0	CANOE	233	n/a	1	1	0.412841796875	0.57763671875	upper	../fonts/amplitud.ttf
2634126	WORD	wordpools/wasnorm_wordpool_less_exclusions.txt	LTP335	ltpFR	0	14	0	DUMP	505	n/a	1	1	0.412841796875	0.57763671875	upper	../fonts/amplitud.ttf
2638304	WORD	wordpools/wasnorm_wordpool_less_exclusions.txt	LTP335	ltpFR	0	14	1	SCALLOP	1242	n/a	1	0	0.5869140625	0.422607421875	lower	../fonts/zerothre.ttf
2642248	WORD	wordpools/wasnorm_wordpool_less_exclusions.txt	LTP335	ltpFR	0	14	1	DESK	452	n/a	1	0	0.5869140625	0.422607421875	lower	../fonts/zerothre.ttf
2648123	REC_START	n/a	LTP335	ltpFR	0	14	n/a	n/a	n/a	n/a	n/a	n/a	n/a	n/a	n/a	n/a
2650245	REC_WORD	wordpools/wasnorm_wordpool_less_exclusions.txt	LTP335	ltpFR	0	14	1	DESK	452	n/a	1	n/a	n/a	n/a	n/a	n/a
2651932	REC_WORD	wordpools/wasnorm_wordpool_less_exclusions.txt	LTP335	ltpFR	0	14	1	SCALLOP	1242	n/a	1	n/a	n/a	n/a	n/a	n/a
2656254	REC_WORD	wordpools/wasnorm_wordpool_less_exclusions.txt	LTP335	ltpFR	0	14	0	CANOE	233	n/a	1	n/a	n/a	n/a	n/a	n/a
2664725	REC_WORD	wordpools/wasnorm_wordpool_less_exclusions.txt	LTP335	ltpFR	0	14	1	CANARY	227	n/a	0	n/a	n/a	n/a	n/a	n/a
2666901	REC_WORD	wordpools/wasnorm_wordpool_less_exclusions.txt	LTP335	ltpFR	0	14	1	CAGE	218	n/a	0	n/a	n/a	n/a	n/a	n/a
2694878	REC_WORD	wordpools/wasnorm_wordpool_less_exclusions.txt	LTP335	ltpFR	0	14	0	BELLY	119	n/a	1	n/a	n/a	n/a	n/a	n/a
2719289	REC_WORD	wordpools/wasnorm_wordpool_less_exclusions.txt	LTP335	ltpFR	0	14	1	CACTUS	215	n/a	1	n/a	n/a	n/a	n/a	n/a
2733266	WORD	wordpools/wasnorm_wordpool_less_exclusions.txt	LTP335	ltpFR	0	15	1	RACCOON	1153	n/a	1	0	0.5869140625	0.422607421875	lower	../fonts/zerothre.ttf
2737327	WORD	wordpools/wasnorm_wordpool_less_exclusions.txt	LTP335	ltpFR	0	15	1	DEER	444	n/a	1	0	0.5869140625	0.422607421875	lower	../fonts/zerothre.ttf
2741338	WORD	wordpools/wasnorm_wordpool_less_exclusions.txt	LTP335	ltpFR	0	15	1	FLASK	576	n/a	0	0	0.5869140625	0.422607421875	lower	../fonts/zerothre.ttf
2745315	WORD	wordpools/wasnorm_wordpool_less_exclusions.txt	LTP335	ltpFR	0	15	1	SCOTCH	1251	n/a	0	0	0.5869140625	0.422607421875	lower	../fonts/zerothre.ttf
2749543	WORD	wordpools/wasnorm_wordpool_less_exclusions.txt	LTP335	ltpFR	0	15	0	BADGE	68	n/a	0	1	0.412841796875	0.57763671875	upper	../fonts/amplitud.ttf
2753553	WORD	wordpools/wasnorm_wordpool_less_exclusions.txt	LTP335	ltpFR	0	15	0	PATH	1023	n/a	1	1	0.412841796875	0.57763671875	upper	../fonts/amplitud.ttf
2757597	WORD	wordpools/wasnorm_wordpool_less_exclusions.txt	LTP335	ltpFR	0	15	0	WARRIOR	1589	n/a	1	1	0.412841796875	0.57763671875	upper	../fonts/amplitud.ttf
2761757	WORD	wordpools/wasnorm_wordpool_less_exclusions.txt	LTP335	ltpFR	0	15	0	ORCHESTRA	981	n/a	1	1	0.412841796875	0.57763671875	upper	../fonts/amplitud.ttf
2765951	WORD	wordpools/wasnorm_wordpool_less_exclusions.txt	LTP335	ltpFR	0	15	0	DRUM	502	n/a	1	1	0.412841796875	0.57763671875	upper	../fonts/amplitud.ttf
2769779	WORD	wordpools/wasnorm_wordpool_less_exclusions.txt	LTP335	ltpFR	0	15	1	CAP	236	n/a	0	0	0.5869140625	0.422607421875	lower	../fonts/zerothre.ttf
2773790	WORD	wordpools/wasnorm_wordpool_less_exclusions.txt	LTP335	ltpFR	0	15	1	CURB	426	n/a	0	0	0.5869140625	0.422607421875	lower	../fonts/zerothre.ttf
2777668	WORD	wordpools/wasnorm_wordpool_less_exclusions.txt	LTP335	ltpFR	0	15	1	BOXER	160	n/a	1	0	0.5869140625	0.422607421875	lower	../fonts/zerothre.ttf
2781596	WORD	wordpools/wasnorm_wordpool_less_exclusions.txt	LTP335	ltpFR	0	15	1	FOLLOWER	589	n/a	1	0	0.5869140625	0.422607421875	lower	../fonts/zerothre.ttf
2785490	WORD	wordpools/wasnorm_wordpool_less_exclusions.txt	LTP335	ltpFR	0	15	0	CERAMICS	271	n/a	1	1	0.412841796875	0.57763671875	upper	../fonts/amplitud.ttf
2789468	WORD	wordpools/wasnorm_wordpool_less_exclusions.txt	LTP335	ltpFR	0	15	0	ORANGE	980	n/a	0	1	0.412841796875	0.57763671875	upper	../fonts/amplitud.ttf
2793312	WORD	wordpools/wasnorm_wordpool_less_exclusions.txt	LTP335	ltpFR	0	15	0	ARCHITECT	36	n/a	1	1	0.412841796875	0.57763671875	upper	../fonts/amplitud.ttf
2799221	REC_START	n/a	LTP335	ltpFR	0	15	n/a	n/a	n/a	n/a	n/a	n/a	n/a	n/a	n/a	n/a
2800473	REC_WORD	wordpools/wasnorm_wordpool_less_exclusions.txt	LTP335	ltpFR	0	15	0	ARCHITECT	36	n/a	1	n/a	n/a	n/a	n/a	n/a
2802310	REC_WORD	wordpools/wasnorm_wordpool_less_exclusions.txt	LTP335	ltpFR	0	15	0	ORANGE	980	n/a	0	n/a	n/a	n/a	n/a	n/a
2803870	REC_WORD	wordpools/wasnorm_wordpool_less_exclusions.txt	LTP335	ltpFR	0	15	0	CERAMICS	271	n/a	1	n/a	n/a	n/a	n/a	n/a
2805957	REC_WORD	wordpools/wasnorm_wordpool_less_exclusions.txt	LTP335	ltpFR	0	15	1	FOLLOWER	589	n/a	1	n/a	n/a	n/a	n/a	n/a
2808431	REC_WORD	wordpools/wasnorm_wordpool_less_exclusions.txt	LTP335	ltpFR	0	15	0	BADGE	68	n/a	0	n/a	n/a	n/a	n/a	n/a
2815449	REC_WORD	wordpools/wasnorm_wordpool_less_exclusions.txt	LTP335	ltpFR	0	15	0	PATH	1023	n/a	1	n/a	n/a	n/a	n/a	n/a
2834203	REC_WORD	wordpools/wasnorm_wordpool_less_exclusions.txt	LTP335	ltpFR	0	15	0	ORCHESTRA	981	n/a	1	n/a	n/a	n/a	n/a	n/a
2837227	REC_WORD	wordpools/wasnorm_wordpool_less_exclusions.txt	LTP335	ltpFR	0	15	0	DRUM	502	n/a	1	n/a	n/a	n/a	n/a	n/a
2881484	WORD	wordpools/wasnorm_wordpool_less_exclusions.txt	LTP335	ltpFR	0	16	0	FOOTBALL	591	n/a	0	1	0.412841796875	0.57763671875	upper	../fonts/amplitud.ttf
2885512	WORD	wordpools/wasnorm_wordpool_less_exclusions.txt	LTP335	ltpFR	0	16	0	STADIUM	1364	n/a	1	1	0.412841796875	0.57763671875	upper	../fonts/amplitud.ttf
2889356	WORD	wordpools/wasnorm_wordpool_less_exclusions.txt	LTP335	ltpFR	0	16	1	POND	1101	n/a	0	0	0.5869140625	0.422607421875	lower	../fonts/zerothre.ttf
2893567	WORD	wordpools/wasnorm_wordpool_less_exclusions.txt	LTP335	ltpFR	0	16	1	DOLPHIN	483	n/a	1	0	0.5869140625	0.422607421875	lower	../fonts/zerothre.ttf
2897411	WORD	wordpools/wasnorm_wordpool_less_exclusions.txt	LTP335	ltpFR	0	16	1	STEREO	1378	n/a	0	0	0.5869140625	0.422607421875	lower	../fonts/zerothre.ttf
2901322	WORD	wordpools/wasnorm_wordpool_less_exclusions.txt	LTP335	ltpFR	0	16	0	NET	946	n/a	1	1	0.412841796875	0.57763671875	upper	../fonts/amplitud.ttf
2905466	WORD	wordpools/wasnorm_wordpool_less_exclusions.txt	LTP335	ltpFR	0	16	0	ARENA	37	n/a	1	1	0.412841796875	0.57763671875	upper	../fonts/amplitud.ttf
2909660	WORD	wordpools/wasnorm_wordpool_less_exclusions.txt	LTP335	ltpFR	0	16	0	CASTLE	256	n/a	1	1	0.412841796875	0.57763671875	upper	../fonts/amplitud.ttf
2913870	WORD	wordpools/wasnorm_wordpool_less_exclusions.txt	LTP335	ltpFR	0	16	1	HARP	689	n/a	0	0	0.5869140625	0.422607421875	lower	../fonts/zerothre.ttf
2917731	WORD	wordpools/wasnorm_wordpool_less_exclusions.txt	LTP335	ltpFR	0	16	1	UMPIRE	1535	n/a	1	0	0.5869140625	0.422607421875	lower	../fonts/zerothre.ttf
2921593	WORD	wordpools/wasnorm_wordpool_less_exclusions.txt	LTP335	ltpFR	0	16	1	WAITER	1580	n/a	1	0	0.5869140625	0.422607421875	lower	../fonts/zerothre.ttf
2925819	WORD	wordpools/wasnorm_wordpool_less_exclusions.txt	LTP335	ltpFR	0	16	1	SERVANT	1271	n/a	1	0	0.5869140625	0.422607421875	lower	../fonts/zerothre.ttf
2929946	WORD	wordpools/wasnorm_wordpool_less_exclusions.txt	LTP335	ltpFR	0	16	1	GRASSHOPPER	656	n/a	1	0	0.5869140625	0.422607421875	lower	../fonts/zerothre.ttf
2934107	WORD	wordpools/wasnorm_wordpool_less_exclusions.txt	LTP335	ltpFR	0	16	0	SWATTER	1418	n/a	1	1	0.412841796875	0.57763671875	upper	../fonts/amplitud.ttf
2938184	WORD	wordpools/wasnorm_wordpool_less_exclusions.txt	LTP335	ltpFR	0	16	0	NIGHTGOWN	953	n/a	1	1	0.412841796875	0.57763671875	upper	../fonts/amplitud.ttf
2942396	WORD	wordpools/wasnorm_wordpool_less_exclusions.txt	LTP335	ltpFR	0	16	0	RAISIN	1163	n/a	0	1	0.412841796875	0.57763671875	upper	../fonts/amplitud.ttf
2948071	REC_START	n/a	LTP335	ltpFR	0	16	n/a	n/a	n/a	n/a	n/a	n/a	n/a	n/a	n/a	n/a
2949170	REC_WORD	wordpools/wasnorm_wordpool_less_exclusions.txt	LTP335	ltpFR	0	16	0	NIGHTGOWN	953	n/a	1	n/a	n/a	n/a	n/a	n/a
2950562	REC_WORD	wordpools/wasnorm_wordpool_less_exclusions.txt	LTP335	ltpFR	0	16	0	RAISIN	1163	n/a	0	n/a	n/a	n/a	n/a	n/a
2952214	REC_WORD	wordpools/wasnorm_wordpool_less_exclusions.txt	LTP335	ltpFR	0	16	0	FOOTBALL	591	n/a	0	n/a	n/a	n/a	n/a	n/a
2953517	REC_WORD	wordpools/wasnorm_wordpool_less_exclusions.txt	LTP335	ltpFR	0	16	0	STADIUM	1364	n/a	1	n/a	n/a	n/a	n/a	n/a
2955477	REC_WORD	wordpools/wasnorm_wordpool_less_exclusions.txt	LTP335	ltpFR	0	16	0	ARENA	37	n/a	1	n/a	n/a	n/a	n/a	n/a
2958815	REC_WORD	wordpools/wasnorm_wordpool_less_exclusions.txt	LTP335	ltpFR	0	16	0	NET	946	n/a	1	n/a	n/a	n/a	n/a	n/a
2960300	REC_WORD	wordpools/wasnorm_wordpool_less_exclusions.txt	LTP335	ltpFR	0	16	0	CASTLE	256	n/a	1	n/a	n/a	n/a	n/a	n/a
2968131	REC_WORD	wordpools/wasnorm_wordpool_less_exclusions.txt	LTP335	ltpFR	0	16	1	DOLPHIN	483	n/a	1	n/a	n/a	n/a	n/a	n/a
2969473	REC_WORD	wordpools/wasnorm_wordpool_less_exclusions.txt	LTP335	ltpFR	0	16	1	POND	1101	n/a	0	n/a	n/a	n/a	n/a	n/a
2977817	REC_WORD	wordpools/wasnorm_wordpool_less_exclusions.txt	LTP335	ltpFR	0	16	1	WAITER	1580	n/a	1	n/a	n/a	n/a	n/a	n/a
2979656	REC_WORD	wordpools/wasnorm_wordpool_less_exclusions.txt	LTP335	ltpFR	0	16	1	SERVANT	1271	n/a	1	n/a	n/a	n/a	n/a	n/a
2982549	REC_WORD	wordpools/wasnorm_wordpool_less_exclusions.txt	LTP335	ltpFR	0	16	1	UMPIRE	1535	n/a	1	n/a	n/a	n/a	n/a	n/a
3078879	REC_START	n/a	LTP335	ltpFR	0	n/a	n/a	n/a	n/a	n/a	n/a	n/a	n/a	n/a	n/a	n/a
3084853	FFR_REC_WORD	wordpools/wasnorm_wordpool_less_exclusions.txt	LTP335	ltpFR	0	n/a	0	FOOTBALL	591	n/a	0	n/a	n/a	n/a	n/a	n/a
3086399	FFR_REC_WORD	wordpools/wasnorm_wordpool_less_exclusions.txt	LTP335	ltpFR	0	n/a	0	STADIUM	1364	n/a	1	n/a	n/a	n/a	n/a	n/a
3088958	FFR_REC_WORD	wordpools/wasnorm_wordpool_less_exclusions.txt	LTP335	ltpFR	0	n/a	0	ARENA	37	n/a	1	n/a	n/a	n/a	n/a	n/a
3090998	FFR_REC_WORD	wordpools/wasnorm_wordpool_less_exclusions.txt	LTP335	ltpFR	0	n/a	0	NET	946	n/a	1	n/a	n/a	n/a	n/a	n/a
3093338	FFR_REC_WORD	wordpools/wasnorm_wordpool_less_exclusions.txt	LTP335	ltpFR	0	n/a	0	CASTLE	256	n/a	1	n/a	n/a	n/a	n/a	n/a
3095100	FFR_REC_WORD	wordpools/wasnorm_wordpool_less_exclusions.txt	LTP335	ltpFR	0	n/a	1	UMPIRE	1535	n/a	1	n/a	n/a	n/a	n/a	n/a
3096741	FFR_REC_WORD	wordpools/wasnorm_wordpool_less_exclusions.txt	LTP335	ltpFR	0	n/a	1	SERVANT	1271	n/a	1	n/a	n/a	n/a	n/a	n/a
3098711	FFR_REC_WORD	wordpools/wasnorm_wordpool_less_exclusions.txt	LTP335	ltpFR	0	n/a	1	WAITRESS	1581	n/a	1	n/a	n/a	n/a	n/a	n/a
3107967	FFR_REC_WORD	wordpools/wasnorm_wordpool_less_exclusions.txt	LTP335	ltpFR	0	n/a	0	NIGHTGOWN	953	n/a	1	n/a	n/a	n/a	n/a	n/a
3109481	FFR_REC_WORD	wordpools/wasnorm_wordpool_less_exclusions.txt	LTP335	ltpFR	0	n/a	0	BATHTUB	100	n/a	1	n/a	n/a	n/a	n/a	n/a
3111131	FFR_REC_WORD	wordpools/wasnorm_wordpool_less_exclusions.txt	LTP335	ltpFR	0	n/a	0	DRINK	498	n/a	0	n/a	n/a	n/a	n/a	n/a
3112782	FFR_REC_WORD	wordpools/wasnorm_wordpool_less_exclusions.txt	LTP335	ltpFR	0	n/a	n/a	CUP	424	n/a	n/a	n/a	n/a	n/a	n/a	n/a
3114346	FFR_REC_WORD	wordpools/wasnorm_wordpool_less_exclusions.txt	LTP335	ltpFR	0	n/a	0	BOWL	158	n/a	0	n/a	n/a	n/a	n/a	n/a
3116107	FFR_REC_WORD	wordpools/wasnorm_wordpool_less_exclusions.txt	LTP335	ltpFR	0	n/a	0	NAPKIN	937	n/a	0	n/a	n/a	n/a	n/a	n/a
3118593	FFR_REC_WORD	wordpools/wasnorm_wordpool_less_exclusions.txt	LTP335	ltpFR	0	n/a	0	FEAST	556	n/a	1	n/a	n/a	n/a	n/a	n/a
3120402	FFR_REC_WORD	wordpools/wasnorm_wordpool_less_exclusions.txt	LTP335	ltpFR	0	n/a	1	DINNER	468	n/a	0	n/a	n/a	n/a	n/a	n/a
3122477	FFR_REC_WORD	wordpools/wasnorm_wordpool_less_exclusions.txt	LTP335	ltpFR	0	n/a	0	WINE	1613	n/a	0	n/a	n/a	n/a	n/a	n/a
3124564	FFR_REC_WORD	wordpools/wasnorm_wordpool_less_exclusions.txt	LTP335	ltpFR	0	n/a	0	RAISIN	1163	n/a	0	n/a	n/a	n/a	n/a	n/a
3128862	FFR_REC_WORD	wordpools/wasnorm_wordpool_less_exclusions.txt	LTP335	ltpFR	0	n/a	-1	GRAPE	654	n/a	-1	n/a	n/a	n/a	n/a	n/a
3133076	FFR_REC_WORD	wordpools/wasnorm_wordpool_less_exclusions.txt	LTP335	ltpFR	0	n/a	0	FROG	608	n/a	0	n/a	n/a	n/a	n/a	n/a
3135934	FFR_REC_WORD	wordpools/wasnorm_wordpool_less_exclusions.txt	LTP335	ltpFR	0	n/a	-1	MONGOOSE	909	n/a	-1	n/a	n/a	n/a	n/a	n/a
3138128	FFR_REC_WORD	wordpools/wasnorm_wordpool_less_exclusions.txt	LTP335	ltpFR	0	n/a	-1	CHAIRPERSON	275	n/a	-1	n/a	n/a	n/a	n/a	n/a
3140039	FFR_REC_WORD	wordpools/wasnorm_wordpool_less_exclusions.txt	LTP335	ltpFR	0	n/a	-1	QUEEN	1149	n/a	-1	n/a	n/a	n/a	n/a	n/a
3142363	FFR_REC_WORD	wordpools/wasnorm_wordpool_less_exclusions.txt	LTP335	ltpFR	0	n/a	-1	CROWN	415	n/a	-1	n/a	n/a	n/a	n/a	n/a
3145726	FFR_REC_WORD	wordpools/wasnorm_wordpool_less_exclusions.txt	LTP335	ltpFR	0	n/a	1	WAITRESS	1581	n/a	1	n/a	n/a	n/a	n/a	n/a
3158654	FFR_REC_WORD	wordpools/wasnorm_wordpool_less_exclusions.txt	LTP335	ltpFR	0	n/a	0	TOE	1473	n/a	0	n/a	n/a	n/a	n/a	n/a
3159887	FFR_REC_WORD	wordpools/wasnorm_wordpool_less_exclusions.txt	LTP335	ltpFR	0	n/a	0	FINGER	567	n/a	0	n/a	n/a	n/a	n/a	n/a
3161977	FFR_REC_WORD	wordpools/wasnorm_wordpool_less_exclusions.txt	LTP335	ltpFR	0	n/a	0	BELL	118	n/a	0	n/a	n/a	n/a	n/a	n/a
3170562	FFR_REC_WORD	wordpools/wasnorm_wordpool_less_exclusions.txt	LTP335	ltpFR	0	n/a	1	HARP	689	n/a	0	n/a	n/a	n/a	n/a	n/a
3177174	FFR_REC_WORD	wordpools/wasnorm_wordpool_less_exclusions.txt	LTP335	ltpFR	0	n/a	1	WATERFALL	1595	n/a	0	n/a	n/a	n/a	n/a	n/a
3180424	FFR_REC_WORD	wordpools/wasnorm_wordpool_less_exclusions.txt	LTP335	ltpFR	0	n/a	1	POND	1101	n/a	0	n/a	n/a	n/a	n/a	n/a
3182602	FFR_REC_WORD	wordpools/wasnorm_wordpool_less_exclusions.txt	LTP335	ltpFR	0	n/a	0	STREAM	1392	n/a	0	n/a	n/a	n/a	n/a	n/a
3186044	FFR_REC_WORD	wordpools/wasnorm_wordpool_less_exclusions.txt	LTP335	ltpFR	0	n/a	0	SWAMP	1416	n/a	1	n/a	n/a	n/a	n/a	n/a
3192775	FFR_REC_WORD	wordpools/wasnorm_wordpool_less_exclusions.txt	LTP335	ltpFR	0	n/a	1	ICEBERG	731	n/a	0	n/a	n/a	n/a	n/a	n/a
3201154	FFR_REC_WORD	wordpools/wasnorm_wordpool_less_exclusions.txt	LTP335	ltpFR	0	n/a	0	WAGON	1578	n/a	1	n/a	n/a	n/a	n/a	n/a
3202773	FFR_REC_WORD	wordpools/wasnorm_wordpool_less_exclusions.txt	LTP335	ltpFR	0	n/a	0	CAB	209	n/a	1	n/a	n/a	n/a	n/a	n/a
3208086	FFR_REC_WORD	wordpools/wasnorm_wordpool_less_exclusions.txt	LTP335	ltpFR	0	n/a	0	PEBBLE	1035	n/a	0	n/a	n/a	n/a	n/a	n/a
3215672	FFR_REC_WORD	wordpools/wasnorm_wordpool_less_exclusions.txt	LTP335	ltpFR	0	n/a	1	GYMNAST	675	n/a	1	n/a	n/a	n/a	n/a	n/a
3225945	FFR_REC_WORD	wordpools/wasnorm_wordpool_less_exclusions.txt	LTP335	ltpFR	0	n/a	0	SPY	1360	n/a	1	n/a	n/a	n/a	n/a	n/a
3246692	FFR_REC_WORD	wordpools/wasnorm_wordpool_less_exclusions.txt	LTP335	ltpFR	0	n/a	0	ORANGE	980	n/a	0	n/a	n/a	n/a	n/a	n/a
3248564	FFR_REC_WORD	wordpools/wasnorm_wordpool_less_exclusions.txt	LTP335	ltpFR	0	n/a	0	DIAMOND	458	n/a	0	n/a	n/a	n/a	n/a	n/a
3250282	FFR_REC_WORD	wordpools/wasnorm_wordpool_less_exclusions.txt	LTP335	ltpFR	0	n/a	0	JEWEL	757	n/a	0	n/a	n/a	n/a	n/a	n/a
3261859	FFR_REC_WORD	wordpools/wasnorm_wordpool_less_exclusions.txt	LTP335	ltpFR	0	n/a	0	DIRECTOR	471	n/a	1	n/a	n/a	n/a	n/a	n/a
3265341	FFR_REC_WORD	wordpools/wasnorm_wordpool_less_exclusions.txt	LTP335	ltpFR	0	n/a	0	SAILOR	1223	n/a	1	n/a	n/a	n/a	n/a	n/a
3271843	FFR_REC_WORD	wordpools/wasnorm_wordpool_less_exclusions.txt	LTP335	ltpFR	0	n/a	0	WATER	1594	n/a	0	n/a	n/a	n/a	n/a	n/a
3278789	FFR_REC_WORD	wordpools/wasnorm_wordpool_less_exclusions.txt	LTP335	ltpFR	0	n/a	0	WALL	1582	n/a	1	n/a	n/a	n/a	n/a	n/a
3302663	FFR_REC_WORD	wordpools/wasnorm_wordpool_less_exclusions.txt	LTP335	ltpFR	0	n/a	0	POSSUM	1112	n/a	1	n/a	n/a	n/a	n/a	n/a
3309475	FFR_REC_WORD	wordpools/wasnorm_wordpool_less_exclusions.txt	LTP335	ltpFR	0	n/a	0	TEA	1439	n/a	1	n/a	n/a	n/a	n/a	n/a
3318697	FFR_REC_WORD	wordpools/wasnorm_wordpool_less_exclusions.txt	LTP335	ltpFR	0	n/a	-1	OBOE	969	n/a	-1	n/a	n/a	n/a	n/a	n/a
3319896	FFR_REC_WORD	wordpools/wasnorm_wordpool_less_exclusions.txt	LTP335	ltpFR	0	n/a	0	DRUM	502	n/a	1	n/a	n/a	n/a	n/a	n/a
3321488	FFR_REC_WORD	wordpools/wasnorm_wordpool_less_exclusions.txt	LTP335	ltpFR	0	n/a	0	ORCHESTRA	981	n/a	1	n/a	n/a	n/a	n/a	n/a
3324263	FFR_REC_WORD	wordpools/wasnorm_wordpool_less_exclusions.txt	LTP335	ltpFR	0	n/a	0	VIOLA	1570	n/a	1	n/a	n/a	n/a	n/a	n/a
3329960	FFR_REC_WORD	wordpools/wasnorm_wordpool_less_exclusions.txt	LTP335	ltpFR	0	n/a	1	CAP	236	n/a	0	n/a	n/a	n/a	n/a	n/a
3360955	FFR_REC_WORD	wordpools/wasnorm_wordpool_less_exclusions.txt	LTP335	ltpFR	0	n/a	1	CACTUS	215	n/a	1	n/a	n/a	n/a	n/a	n/a
3367290	FFR_REC_WORD	wordpools/wasnorm_wordpool_less_exclusions.txt	LTP335	ltpFR	0	n/a	n/a	BRANCH	168	n/a	n/a	n/a	n/a	n/a	n/a	n/a
3379461	REST_REWET	n/a	LTP335	ltpFR	0	16	n/a	n/a	n/a	n/a	n/a	n/a	n/a	n/a	n/a	n/a
3714260	REC_START	n/a	LTP335	ltpFR	0	1	n/a	n/a	n/a	n/a	n/a	n/a	n/a	n/a	n/a	n/a
3714274	RECOG_LURE	n/a	LTP335	ltpFR	0	1	n/a	BEAR	106	2	n/a	n/a	n/a	n/a	n/a	n/a
3716973	RECOG_RESP	n/a	LTP335	ltpFR	0	1	n/a	BEAR	106	n/a	n/a	n/a	n/a	n/a	n/a	n/a
3719652	RECOG_CONF	n/a	LTP335	ltpFR	0	1	n/a	BEAR	106	2	n/a	n/a	n/a	n/a	n/a	n/a
3721913	RECOG_LURE	n/a	LTP335	ltpFR	0	1	n/a	CORN	381	3	n/a	n/a	n/a	n/a	n/a	n/a
3724568	RECOG_RESP	n/a	LTP335	ltpFR	0	1	n/a	CORN	381	n/a	n/a	n/a	n/a	n/a	n/a	n/a
3729155	RECOG_CONF	n/a	LTP335	ltpFR	0	1	n/a	CORN	381	3	n/a	n/a	n/a	n/a	n/a	n/a
3731000	RECOG_TARGET	n/a	LTP335	ltpFR	0	1	-1	COMMITTEE	355	5	-1	n/a	n/a	n/a	n/a	n/a
3732424	RECOG_RESP	n/a	LTP335	ltpFR	0	1	-1	COMMITTEE	355	n/a	-1	n/a	n/a	n/a	n/a	n/a
3733597	RECOG_CONF	n/a	LTP335	ltpFR	0	1	-1	COMMITTEE	355	5	-1	n/a	n/a	n/a	n/a	n/a
3735312	RECOG_LURE	n/a	LTP335	ltpFR	0	1	n/a	DIVER	476	3	n/a	n/a	n/a	n/a	n/a	n/a
3737733	RECOG_RESP	n/a	LTP335	ltpFR	0	1	n/a	DIVER	476	n/a	n/a	n/a	n/a	n/a	n/a	n/a
3739845	RECOG_CONF	n/a	LTP335	ltpFR	0	1	n/a	DIVER	476	3	n/a	n/a	n/a	n/a	n/a	n/a
3742034	RECOG_TARGET	n/a	LTP335	ltpFR	0	1	1	CONCRETE	361	5	0	n/a	n/a	n/a	n/a	n/a
3743304	RECOG_RESP	n/a	LTP335	ltpFR	0	1	1	CONCRETE	361	n/a	0	n/a	n/a	n/a	n/a	n/a
3744417	RECOG_CONF	n/a	LTP335	ltpFR	0	1	1	CONCRETE	361	5	0	n/a	n/a	n/a	n/a	n/a
3745729	RECOG_LURE	n/a	LTP335	ltpFR	0	1	n/a	STALLION	1369	2	n/a	n/a	n/a	n/a	n/a	n/a
3750998	RECOG_RESP	n/a	LTP335	ltpFR	0	1	n/a	STALLION	1369	n/a	n/a	n/a	n/a	n/a	n/a	n/a
3753162	RECOG_CONF	n/a	LTP335	ltpFR	0	1	n/a	STALLION	1369	2	n/a	n/a	n/a	n/a	n/a	n/a
3755082	RECOG_LURE	n/a	LTP335	ltpFR	0	1	n/a	RIBBON	1189	4	n/a	n/a	n/a	n/a	n/a	n/a
3758003	RECOG_RESP	n/a	LTP335	ltpFR	0	1	n/a	RIBBON	1189	n/a	n/a	n/a	n/a	n/a	n/a	n/a
3760217	RECOG_CONF	n/a	LTP335	ltpFR	0	1	n/a	RIBBON	1189	4	n/a	n/a	n/a	n/a	n/a	n/a
3762339	RECOG_LURE	n/a	LTP335	ltpFR	0	1	n/a	HARE	688	4	n/a	n/a	n/a	n/a	n/a	n/a
3763863	RECOG_RESP	n/a	LTP335	ltpFR	0	1	n/a	HARE	688	n/a	n/a	n/a	n/a	n/a	n/a	n/a
3765907	RECOG_CONF	n/a	LTP335	ltpFR	0	1	n/a	HARE	688	4	n/a	n/a	n/a	n/a	n/a	n/a
3767847	RECOG_TARGET	n/a	LTP335	ltpFR	0	1	0	BROOK	177	5	1	n/a	n/a	n/a	n/a	n/a
3768934	RECOG_RESP	n/a	LTP335	ltpFR	0	1	0	BROOK	177	n/a	1	n/a	n/a	n/a	n/a	n/a
3770147	RECOG_CONF	n/a	LTP335	ltpFR	0	1	0	BROOK	177	5	1	n/a	n/a	n/a	n/a	n/a
3772124	RECOG_LURE	n/a	LTP335	ltpFR	0	1	n/a	TAR	1435	5	n/a	n/a	n/a	n/a	n/a	n/a
3773273	RECOG_RESP	n/a	LTP335	ltpFR	0	1	n/a	TAR	1435	n/a	n/a	n/a	n/a	n/a	n/a	n/a
3774547	RECOG_CONF	n/a	LTP335	ltpFR	0	1	n/a	TAR	1435	5	n/a	n/a	n/a	n/a	n/a	n/a
3776419	RECOG_LURE	n/a	LTP335	ltpFR	0	1	n/a	OATMEAL	967	4	n/a	n/a	n/a	n/a	n/a	n/a
3779208	RECOG_RESP	n/a	LTP335	ltpFR	0	1	n/a	OATMEAL	967	n/a	n/a	n/a	n/a	n/a	n/a	n/a
3781847	RECOG_CONF	n/a	LTP335	ltpFR	0	1	n/a	OATMEAL	967	4	n/a	n/a	n/a	n/a	n/a	n/a
3783774	RECOG_LURE	n/a	LTP335	ltpFR	0	1	n/a	GLOBE	641	3	n/a	n/a	n/a	n/a	n/a	n/a
3785438	RECOG_RESP	n/a	LTP335	ltpFR	0	1	n/a	GLOBE	641	n/a	n/a	n/a	n/a	n/a	n/a	n/a
3787565	RECOG_CONF	n/a	LTP335	ltpFR	0	1	n/a	GLOBE	641	3	n/a	n/a	n/a	n/a	n/a	n/a
3789416	RECOG_TARGET	n/a	LTP335	ltpFR	0	1	1	STEREO	1378	3	0	n/a	n/a	n/a	n/a	n/a
3791789	RECOG_RESP	n/a	LTP335	ltpFR	0	1	1	STEREO	1378	n/a	0	n/a	n/a	n/a	n/a	n/a
3793485	RECOG_CONF	n/a	LTP335	ltpFR	0	1	1	STEREO	1378	3	0	n/a	n/a	n/a	n/a	n/a
3795458	RECOG_LURE	n/a	LTP335	ltpFR	0	1	n/a	GIRL	637	1	n/a	n/a	n/a	n/a	n/a	n/a
3802034	RECOG_RESP	n/a	LTP335	ltpFR	0	1	n/a	GIRL	637	n/a	n/a	n/a	n/a	n/a	n/a	n/a
3802712	RECOG_CONF	n/a	LTP335	ltpFR	0	1	n/a	GIRL	637	1	n/a	n/a	n/a	n/a	n/a	n/a
3805758	RECOG_LURE	n/a	LTP335	ltpFR	0	1	n/a	HEADBAND	696	2	n/a	n/a	n/a	n/a	n/a	n/a
3807928	RECOG_RESP	n/a	LTP335	ltpFR	0	1	n/a	HEADBAND	696	n/a	n/a	n/a	n/a	n/a	n/a	n/a
3812202	RECOG_CONF	n/a	LTP335	ltpFR	0	1	n/a	HEADBAND	696	2	n/a	n/a	n/a	n/a	n/a	n/a
3814229	RECOG_LURE	n/a	LTP335	ltpFR	0	1	n/a	PENNY	1045	2	n/a	n/a	n/a	n/a	n/a	n/a
3819649	RECOG_RESP	n/a	LTP335	ltpFR	0	1	n/a	PENNY	1045	n/a	n/a	n/a	n/a	n/a	n/a	n/a
3823232	RECOG_CONF	n/a	LTP335	ltpFR	0	1	n/a	PENNY	1045	2	n/a	n/a	n/a	n/a	n/a	n/a
3825197	RECOG_TARGET	n/a	LTP335	ltpFR	0	1	0	NAPKIN	937	5	0	n/a	n/a	n/a	n/a	n/a
3826349	RECOG_RESP	n/a	LTP335	ltpFR	0	1	0	NAPKIN	937	n/a	0	n/a	n/a	n/a	n/a	n/a
3827797	RECOG_CONF	n/a	LTP335	ltpFR	0	1	0	NAPKIN	937	5	0	n/a	n/a	n/a	n/a	n/a
3829625	RECOG_TARGET	n/a	LTP335	ltpFR	0	1	1	MARSH	874	4	0	n/a	n/a	n/a	n/a	n/a
3831099	RECOG_RESP	n/a	LTP335	ltpFR	0	1	1	MARSH	874	n/a	0	n/a	n/a	n/a	n/a	n/a
3832817	RECOG_CONF	n/a	LTP335	ltpFR	0	1	1	MARSH	874	4	0	n/a	n/a	n/a	n/a	n/a
3834966	RECOG_TARGET	n/a	LTP335	ltpFR	0	1	-1	OBOE	969	5	-1	n/a	n/a	n/a	n/a	n/a
3836009	RECOG_RESP	n/a	LTP335	ltpFR	0	1	-1	OBOE	969	n/a	-1	n/a	n/a	n/a	n/a	n/a
3837177	RECOG_CONF	n/a	LTP335	ltpFR	0	1	-1	OBOE	969	5	-1	n/a	n/a	n/a	n/a	n/a
3839143	RECOG_LURE	n/a	LTP335	ltpFR	0	1	n/a	PERFUME	1049	4	n/a	n/a	n/a	n/a	n/a	n/a
3840568	RECOG_RESP	n/a	LTP335	ltpFR	0	1	n/a	PERFUME	1049	n/a	n/a	n/a	n/a	n/a	n/a	n/a
3841527	RECOG_CONF	n/a	LTP335	ltpFR	0	1	n/a	PERFUME	1049	4	n/a	n/a	n/a	n/a	n/a	n/a
3936011	REC_START	n/a	LTP335	ltpFR	0	2	n/a	n/a	n/a	n/a	n/a	n/a	n/a	n/a	n/a	n/a
3936036	RECOG_LURE	n/a	LTP335	ltpFR	0	2	n/a	BEET	115	3	n/a	n/a	n/a	n/a	n/a	n/a
3937379	RECOG_RESP	n/a	LTP335	ltpFR	0	2	n/a	BEET	115	n/a	n/a	n/a	n/a	n/a	n/a	n/a
3938396	RECOG_CONF	n/a	LTP335	ltpFR	0	2	n/a	BEET	115	3	n/a	n/a	n/a	n/a	n/a	n/a
3940597	RECOG_TARGET	n/a	LTP335	ltpFR	0	2	0	FOOTBALL	591	5	0	n/a	n/a	n/a	n/a	n/a
3941705	RECOG_RESP	n/a	LTP335	ltpFR	0	2	0	FOOTBALL	591	n/a	0	n/a	n/a	n/a	n/a	n/a
3942798	RECOG_CONF	n/a	LTP335	ltpFR	0	2	0	FOOTBALL	591	5	0	n/a	n/a	n/a	n/a	n/a
3944674	RECOG_TARGET	n/a	LTP335	ltpFR	0	2	0	SOFA	1342	4	1	n/a	n/a	n/a	n/a	n/a
3945765	RECOG_RESP	n/a	LTP335	ltpFR	0	2	0	SOFA	1342	n/a	1	n/a	n/a	n/a	n/a	n/a
3946938	RECOG_CONF	n/a	LTP335	ltpFR	0	2	0	SOFA	1342	4	1	n/a	n/a	n/a	n/a	n/a
3948619	RECOG_TARGET	n/a	LTP335	ltpFR	0	2	0	NET	946	5	1	n/a	n/a	n/a	n/a	n/a
3950395	RECOG_RESP	n/a	LTP335	ltpFR	0	2	0	NET	946	n/a	1	n/a	n/a	n/a	n/a	n/a
3951418	RECOG_CONF	n/a	LTP335	ltpFR	0	2	0	NET	946	5	1	n/a	n/a	n/a	n/a	n/a
3953211	RECOG_TARGET	n/a	LTP335	ltpFR	0	2	0	GRADUATE	653	3	1	n/a	n/a	n/a	n/a	n/a
3955159	RECOG_RESP	n/a	LTP335	ltpFR	0	2	0	GRADUATE	653	n/a	1	n/a	n/a	n/a	n/a	n/a
3957646	RECOG_CONF	n/a	LTP335	ltpFR	0	2	0	GRADUATE	653	3	1	n/a	n/a	n/a	n/a	n/a
3959469	RECOG_TARGET	n/a	LTP335	ltpFR	0	2	-1	FREEZER	604	5	-1	n/a	n/a	n/a	n/a	n/a
3961750	RECOG_RESP	n/a	LTP335	ltpFR	0	2	-1	FREEZER	604	n/a	-1	n/a	n/a	n/a	n/a	n/a
3962828	RECOG_CONF	n/a	LTP335	ltpFR	0	2	-1	FREEZER	604	5	-1	n/a	n/a	n/a	n/a	n/a
3964777	RECOG_TARGET	n/a	LTP335	ltpFR	0	2	-1	WAVE	1596	4	-1	n/a	n/a	n/a	n/a	n/a
3967200	RECOG_RESP	n/a	LTP335	ltpFR	0	2	-1	WAVE	1596	n/a	-1	n/a	n/a	n/a	n/a	n/a
3968308	RECOG_CONF	n/a	LTP335	ltpFR	0	2	-1	WAVE	1596	4	-1	n/a	n/a	n/a	n/a	n/a
3970254	RECOG_TARGET	n/a	LTP335	ltpFR	0	2	-1	CHAIRPERSON	275	5	-1	n/a	n/a	n/a	n/a	n/a
3971290	RECOG_RESP	n/a	LTP335	ltpFR	0	2	-1	CHAIRPERSON	275	n/a	-1	n/a	n/a	n/a	n/a	n/a
3972408	RECOG_CONF	n/a	LTP335	ltpFR	0	2	-1	CHAIRPERSON	275	5	-1	n/a	n/a	n/a	n/a	n/a
3974164	RECOG_LURE	n/a	LTP335	ltpFR	0	2	n/a	MINK	897	4	n/a	n/a	n/a	n/a	n/a	n/a
3975554	RECOG_RESP	n/a	LTP335	ltpFR	0	2	n/a	MINK	897	n/a	n/a	n/a	n/a	n/a	n/a	n/a
3977358	RECOG_CONF	n/a	LTP335	ltpFR	0	2	n/a	MINK	897	4	n/a	n/a	n/a	n/a	n/a	n/a
3979107	RECOG_LURE	n/a	LTP335	ltpFR	0	2	n/a	THESAURUS	1454	4	n/a	n/a	n/a	n/a	n/a	n/a
3981989	RECOG_RESP	n/a	LTP335	ltpFR	0	2	n/a	THESAURUS	1454	n/a	n/a	n/a	n/a	n/a	n/a	n/a
3983038	RECOG_CONF	n/a	LTP335	ltpFR	0	2	n/a	THESAURUS	1454	4	n/a	n/a	n/a	n/a	n/a	n/a
3984865	RECOG_LURE	n/a	LTP335	ltpFR	0	2	n/a	GOVERNOR	651	4	n/a	n/a	n/a	n/a	n/a	n/a
3986584	RECOG_RESP	n/a	LTP335	ltpFR	0	2	n/a	GOVERNOR	651	n/a	n/a	n/a	n/a	n/a	n/a	n/a
3987748	RECOG_CONF	n/a	LTP335	ltpFR	0	2	n/a	GOVERNOR	651	4	n/a	n/a	n/a	n/a	n/a	n/a
3989443	RECOG_LURE	n/a	LTP335	ltpFR	0	2	n/a	PADDLE	1000	2	n/a	n/a	n/a	n/a	n/a	n/a
3991620	RECOG_RESP	n/a	LTP335	ltpFR	0	2	n/a	PADDLE	1000	n/a	n/a	n/a	n/a	n/a	n/a	n/a
3993423	RECOG_CONF	n/a	LTP335	ltpFR	0	2	n/a	PADDLE	1000	2	n/a	n/a	n/a	n/a	n/a	n/a
3995384	RECOG_TARGET	n/a	LTP335	ltpFR	0	2	0	WINE	1613	5	0	n/a	n/a	n/a	n/a	n/a
3997760	RECOG_RESP	n/a	LTP335	ltpFR	0	2	0	WINE	1613	n/a	0	n/a	n/a	n/a	n/a	n/a
3998808	RECOG_CONF	n/a	LTP335	ltpFR	0	2	0	WINE	1613	5	0	n/a	n/a	n/a	n/a	n/a
4000643	RECOG_LURE	n/a	LTP335	ltpFR	0	2	n/a	SAUCER	1237	4	n/a	n/a	n/a	n/a	n/a	n/a
4001989	RECOG_RESP	n/a	LTP335	ltpFR	0	2	n/a	SAUCER	1237	n/a	n/a	n/a	n/a	n/a	n/a	n/a
4003518	RECOG_CONF	n/a	LTP335	ltpFR	0	2	n/a	SAUCER	1237	4	n/a	n/a	n/a	n/a	n/a	n/a
4005286	RECOG_LURE	n/a	LTP335	ltpFR	0	2	n/a	GOO	648	4	n/a	n/a	n/a	n/a	n/a	n/a
4006444	RECOG_RESP	n/a	LTP335	ltpFR	0	2	n/a	GOO	648	n/a	n/a	n/a	n/a	n/a	n/a	n/a
4007568	RECOG_CONF	n/a	LTP335	ltpFR	0	2	n/a	GOO	648	4	n/a	n/a	n/a	n/a	n/a	n/a
4009580	RECOG_LURE	n/a	LTP335	ltpFR	0	2	n/a	PEACH	1031	3	n/a	n/a	n/a	n/a	n/a	n/a
4011694	RECOG_RESP	n/a	LTP335	ltpFR	0	2	n/a	PEACH	1031	n/a	n/a	n/a	n/a	n/a	n/a	n/a
4013646	RECOG_CONF	n/a	LTP335	ltpFR	0	2	n/a	PEACH	1031	3	n/a	n/a	n/a	n/a	n/a	n/a
4015305	RECOG_LURE	n/a	LTP335	ltpFR	0	2	n/a	SALT	1229	2	n/a	n/a	n/a	n/a	n/a	n/a
4020369	RECOG_RESP	n/a	LTP335	ltpFR	0	2	n/a	SALT	1229	n/a	n/a	n/a	n/a	n/a	n/a	n/a
4022503	RECOG_CONF	n/a	LTP335	ltpFR	0	2	n/a	SALT	1229	2	n/a	n/a	n/a	n/a	n/a	n/a
4024442	RECOG_LURE	n/a	LTP335	ltpFR	0	2	n/a	MAILMAN	858	3	n/a	n/a	n/a	n/a	n/a	n/a
4029004	RECOG_RESP	n/a	LTP335	ltpFR	0	2	n/a	MAILMAN	858	n/a	n/a	n/a	n/a	n/a	n/a	n/a
4031766	RECOG_CONF	n/a	LTP335	ltpFR	0	2	n/a	MAILMAN	858	3	n/a	n/a	n/a	n/a	n/a	n/a
4033479	RECOG_LURE	n/a	LTP335	ltpFR	0	2	n/a	MOTH	920	1	n/a	n/a	n/a	n/a	n/a	n/a
4037909	RECOG_RESP	n/a	LTP335	ltpFR	0	2	n/a	MOTH	920	n/a	n/a	n/a	n/a	n/a	n/a	n/a
4043303	RECOG_CONF	n/a	LTP335	ltpFR	0	2	n/a	MOTH	920	1	n/a	n/a	n/a	n/a	n/a	n/a
4045111	RECOG_TARGET	n/a	LTP335	ltpFR	0	2	1	CASHIER	254	4	1	n/a	n/a	n/a	n/a	n/a
4047645	RECOG_RESP	n/a	LTP335	ltpFR	0	2	1	CASHIER	254	n/a	1	n/a	n/a	n/a	n/a	n/a
4048818	RECOG_CONF	n/a	LTP335	ltpFR	0	2	1	CASHIER	254	4	1	n/a	n/a	n/a	n/a	n/a
4052386	REC_START	n/a	LTP335	ltpFR	0	3	n/a	n/a	n/a	n/a	n/a	n/a	n/a	n/a	n/a	n/a
4052418	RECOG_LURE	n/a	LTP335	ltpFR	0	3	n/a	CRIMINAL	409	3	n/a	n/a	n/a	n/a	n/a	n/a
4054819	RECOG_RESP_VV	n/a	LTP335	ltpFR	0	3	n/a	CRIMINAL	409	n/a	n/a	n/a	n/a	n/a	n/a	n/a
4056799	RECOG_RESP	n/a	LTP335	ltpFR	0	3	n/a	CRIMINAL	409	n/a	n/a	n/a	n/a	n/a	n/a	n/a
4061861	RECOG_CONF	n/a	LTP335	ltpFR	0	3	n/a	CRIMINAL	409	3	n/a	n/a	n/a	n/a	n/a	n/a
4063469	RECOG_TARGET	n/a	LTP335	ltpFR	0	3	-1	GORILLA	650	4	-1	n/a	n/a	n/a	n/a	n/a
4064880	RECOG_RESP	n/a	LTP335	ltpFR	0	3	-1	GORILLA	650	n/a	-1	n/a	n/a	n/a	n/a	n/a
4066083	RECOG_CONF	n/a	LTP335	ltpFR	0	3	-1	GORILLA	650	4	-1	n/a	n/a	n/a	n/a	n/a
4067778	RECOG_TARGET	n/a	LTP335	ltpFR	0	3	0	ARENA	37	5	1	n/a	n/a	n/a	n/a	n/a
4069625	RECOG_RESP	n/a	LTP335	ltpFR	0	3	0	ARENA	37	n/a	1	n/a	n/a	n/a	n/a	n/a
4070703	RECOG_CONF	n/a	LTP335	ltpFR	0	3	0	ARENA	37	5	1	n/a	n/a	n/a	n/a	n/a
4072205	RECOG_LURE	n/a	LTP335	ltpFR	0	3	n/a	CUPBOARD	425	3	n/a	n/a	n/a	n/a	n/a	n/a
4074625	RECOG_RESP	n/a	LTP335	ltpFR	0	3	n/a	CUPBOARD	425	n/a	n/a	n/a	n/a	n/a	n/a	n/a
4076651	RECOG_CONF	n/a	LTP335	ltpFR	0	3	n/a	CUPBOARD	425	3	n/a	n/a	n/a	n/a	n/a	n/a
4078364	RECOG_TARGET	n/a	LTP335	ltpFR	0	3	1	GLACIER	638	3	0	n/a	n/a	n/a	n/a	n/a
4082955	RECOG_RESP	n/a	LTP335	ltpFR	0	3	1	GLACIER	638	n/a	0	n/a	n/a	n/a	n/a	n/a
4084961	RECOG_CONF	n/a	LTP335	ltpFR	0	3	1	GLACIER	638	3	0	n/a	n/a	n/a	n/a	n/a
4087033	RECOG_TARGET	n/a	LTP335	ltpFR	0	3	-1	TIMBER	1469	5	-1	n/a	n/a	n/a	n/a	n/a
4089880	RECOG_RESP	n/a	LTP335	ltpFR	0	3	-1	TIMBER	1469	n/a	-1	n/a	n/a	n/a	n/a	n/a
4090793	RECOG_CONF	n/a	LTP335	ltpFR	0	3	-1	TIMBER	1469	5	-1	n/a	n/a	n/a	n/a	n/a
4092560	RECOG_TARGET	n/a	LTP335	ltpFR	0	3	-1	STABLE	1363	5	-1	n/a	n/a	n/a	n/a	n/a
4094150	RECOG_RESP	n/a	LTP335	ltpFR	0	3	-1	STABLE	1363	n/a	-1	n/a	n/a	n/a	n/a	n/a
4095203	RECOG_CONF	n/a	LTP335	ltpFR	0	3	-1	STABLE	1363	5	-1	n/a	n/a	n/a	n/a	n/a
4096986	RECOG_LURE	n/a	LTP335	ltpFR	0	3	n/a	PADDING	999	2	n/a	n/a	n/a	n/a	n/a	n/a
4098624	RECOG_RESP	n/a	LTP335	ltpFR	0	3	n/a	PADDING	999	n/a	n/a	n/a	n/a	n/a	n/a	n/a
4099618	RECOG_CONF	n/a	LTP335	ltpFR	0	3	n/a	PADDING	999	2	n/a	n/a	n/a	n/a	n/a	n/a
4101563	RECOG_TARGET	n/a	LTP335	ltpFR	0	3	1	JACKET	747	5	0	n/a	n/a	n/a	n/a	n/a
4102810	RECOG_RESP	n/a	LTP335	ltpFR	0	3	1	JACKET	747	n/a	0	n/a	n/a	n/a	n/a	n/a
4104253	RECOG_CONF	n/a	LTP335	ltpFR	0	3	1	JACKET	747	5	0	n/a	n/a	n/a	n/a	n/a
4105756	RECOG_LURE	n/a	LTP335	ltpFR	0	3	n/a	LIVER	833	4	n/a	n/a	n/a	n/a	n/a	n/a
4107979	RECOG_RESP	n/a	LTP335	ltpFR	0	3	n/a	LIVER	833	n/a	n/a	n/a	n/a	n/a	n/a	n/a
4109023	RECOG_CONF	n/a	LTP335	ltpFR	0	3	n/a	LIVER	833	4	n/a	n/a	n/a	n/a	n/a	n/a
4110832	RECOG_LURE	n/a	LTP335	ltpFR	0	3	n/a	HELMET	702	3	n/a	n/a	n/a	n/a	n/a	n/a
4114839	RECOG_RESP	n/a	LTP335	ltpFR	0	3	n/a	HELMET	702	n/a	n/a	n/a	n/a	n/a	n/a	n/a
4116331	RECOG_CONF	n/a	LTP335	ltpFR	0	3	n/a	HELMET	702	3	n/a	n/a	n/a	n/a	n/a	n/a
4118721	RECOG_LURE	n/a	LTP335	ltpFR	0	3	n/a	PLAQUE	1084	2	n/a	n/a	n/a	n/a	n/a	n/a
4122149	RECOG_RESP	n/a	LTP335	ltpFR	0	3	n/a	PLAQUE	1084	n/a	n/a	n/a	n/a	n/a	n/a	n/a
4124158	RECOG_CONF	n/a	LTP335	ltpFR	0	3	n/a	PLAQUE	1084	2	n/a	n/a	n/a	n/a	n/a	n/a
4126294	RECOG_LURE	n/a	LTP335	ltpFR	0	3	n/a	SWAN	1417	3	n/a	n/a	n/a	n/a	n/a	n/a
4128794	RECOG_RESP	n/a	LTP335	ltpFR	0	3	n/a	SWAN	1417	n/a	n/a	n/a	n/a	n/a	n/a	n/a
4129981	RECOG_CONF	n/a	LTP335	ltpFR	0	3	n/a	SWAN	1417	3	n/a	n/a	n/a	n/a	n/a	n/a
4131835	RECOG_TARGET	n/a	LTP335	ltpFR	0	3	1	CARAVAN	242	2	0	n/a	n/a	n/a	n/a	n/a
4137380	RECOG_RESP_VV	n/a	LTP335	ltpFR	0	3	1	CARAVAN	242	n/a	0	n/a	n/a	n/a	n/a	n/a
4143245	RECOG_RESP	n/a	LTP335	ltpFR	0	3	1	CARAVAN	242	n/a	0	n/a	n/a	n/a	n/a	n/a
4147978	RECOG_CONF	n/a	LTP335	ltpFR	0	3	1	CARAVAN	242	2	0	n/a	n/a	n/a	n/a	n/a
4150092	RECOG_TARGET	n/a	LTP335	ltpFR	0	3	1	BRICK	172	5	0	n/a	n/a	n/a	n/a	n/a
4151760	RECOG_RESP	n/a	LTP335	ltpFR	0	3	1	BRICK	172	n/a	0	n/a	n/a	n/a	n/a	n/a
4152723	RECOG_CONF	n/a	LTP335	ltpFR	0	3	1	BRICK	172	5	0	n/a	n/a	n/a	n/a	n/a
4154670	RECOG_LURE	n/a	LTP335	ltpFR	0	3	n/a	MACARONI	851	4	n/a	n/a	n/a	n/a	n/a	n/a
4155919	RECOG_RESP	n/a	LTP335	ltpFR	0	3	n/a	MACARONI	851	n/a	n/a	n/a	n/a	n/a	n/a	n/a
4156813	RECOG_CONF	n/a	LTP335	ltpFR	0	3	n/a	MACARONI	851	4	n/a	n/a	n/a	n/a	n/a	n/a
4158862	RECOG_LURE	n/a	LTP335	ltpFR	0	3	n/a	CONTINENT	367	4	n/a	n/a	n/a	n/a	n/a	n/a
4161034	RECOG_RESP	n/a	LTP335	ltpFR	0	3	n/a	CONTINENT	367	n/a	n/a	n/a	n/a	n/a	n/a	n/a
4161883	RECOG_CONF	n/a	LTP335	ltpFR	0	3	n/a	CONTINENT	367	4	n/a	n/a	n/a	n/a	n/a	n/a
4163705	RECOG_LURE	n/a	LTP335	ltpFR	0	3	n/a	SQUID	1361	3	n/a	n/a	n/a	n/a	n/a	n/a
4164989	RECOG_RESP	n/a	LTP335	ltpFR	0	3	n/a	SQUID	1361	n/a	n/a	n/a	n/a	n/a	n/a	n/a
4166551	RECOG_CONF	n/a	LTP335	ltpFR	0	3	n/a	SQUID	1361	3	n/a	n/a	n/a	n/a	n/a	n/a
4168099	RECOG_LURE	n/a	LTP335	ltpFR	0	3	n/a	JUVENILE	767	5	n/a	n/a	n/a	n/a	n/a	n/a
4169194	RECOG_RESP	n/a	LTP335	ltpFR	0	3	n/a	JUVENILE	767	n/a	n/a	n/a	n/a	n/a	n/a	n/a
4170173	RECOG_CONF	n/a	LTP335	ltpFR	0	3	n/a	JUVENILE	767	5	n/a	n/a	n/a	n/a	n/a	n/a
4172193	RECOG_LURE	n/a	LTP335	ltpFR	0	3	n/a	DUCK	504	2	n/a	n/a	n/a	n/a	n/a	n/a
4177185	RECOG_RESP	n/a	LTP335	ltpFR	0	3	n/a	DUCK	504	n/a	n/a	n/a	n/a	n/a	n/a	n/a
4178438	RECOG_CONF	n/a	LTP335	ltpFR	0	3	n/a	DUCK	504	2	n/a	n/a	n/a	n/a	n/a	n/a
4184845	REC_START	n/a	LTP335	ltpFR	0	4	n/a	n/a	n/a	n/a	n/a	n/a	n/a	n/a	n/a	n/a
4184875	RECOG_TARGET	n/a	LTP335	ltpFR	0	4	0	NIGHTGOWN	953	5	1	n/a	n/a	n/a	n/a	n/a
4186479	RECOG_RESP	n/a	LTP335	ltpFR	0	4	0	NIGHTGOWN	953	n/a	1	n/a	n/a	n/a	n/a	n/a
4187572	RECOG_CONF	n/a	LTP335	ltpFR	0	4	0	NIGHTGOWN	953	5	1	n/a	n/a	n/a	n/a	n/a
4189452	RECOG_LURE	n/a	LTP335	ltpFR	0	4	n/a	DISHWASHER	475	2	n/a	n/a	n/a	n/a	n/a	n/a
4192463	RECOG_RESP	n/a	LTP335	ltpFR	0	4	n/a	DISHWASHER	475	n/a	n/a	n/a	n/a	n/a	n/a	n/a
4193597	RECOG_CONF	n/a	LTP335	ltpFR	0	4	n/a	DISHWASHER	475	2	n/a	n/a	n/a	n/a	n/a	n/a
4195460	RECOG_LURE	n/a	LTP335	ltpFR	0	4	n/a	TECHNICIAN	1443	4	n/a	n/a	n/a	n/a	n/a	n/a
4200769	RECOG_RESP	n/a	LTP335	ltpFR	0	4	n/a	TECHNICIAN	1443	n/a	n/a	n/a	n/a	n/a	n/a	n/a
4201782	RECOG_CONF	n/a	LTP335	ltpFR	0	4	n/a	TECHNICIAN	1443	4	n/a	n/a	n/a	n/a	n/a	n/a
4203731	RECOG_TARGET	n/a	LTP335	ltpFR	0	4	1	GIFT	635	5	0	n/a	n/a	n/a	n/a	n/a
4205464	RECOG_RESP	n/a	LTP335	ltpFR	0	4	1	GIFT	635	n/a	0	n/a	n/a	n/a	n/a	n/a
4206382	RECOG_CONF	n/a	LTP335	ltpFR	0	4	1	GIFT	635	5	0	n/a	n/a	n/a	n/a	n/a
4208308	RECOG_LURE	n/a	LTP335	ltpFR	0	4	n/a	RASH	1167	4	n/a	n/a	n/a	n/a	n/a	n/a
4209333	RECOG_RESP	n/a	LTP335	ltpFR	0	4	n/a	RASH	1167	n/a	n/a	n/a	n/a	n/a	n/a	n/a
4210162	RECOG_CONF	n/a	LTP335	ltpFR	0	4	n/a	RASH	1167	4	n/a	n/a	n/a	n/a	n/a	n/a
4212068	RECOG_LURE	n/a	LTP335	ltpFR	0	4	n/a	COMET	353	4	n/a	n/a	n/a	n/a	n/a	n/a
4213233	RECOG_RESP	n/a	LTP335	ltpFR	0	4	n/a	COMET	353	n/a	n/a	n/a	n/a	n/a	n/a	n/a
4215262	RECOG_CONF	n/a	LTP335	ltpFR	0	4	n/a	COMET	353	4	n/a	n/a	n/a	n/a	n/a	n/a
4217144	RECOG_LURE	n/a	LTP335	ltpFR	0	4	n/a	POCKET	1093	2	n/a	n/a	n/a	n/a	n/a	n/a
4223083	RECOG_RESP	n/a	LTP335	ltpFR	0	4	n/a	POCKET	1093	n/a	n/a	n/a	n/a	n/a	n/a	n/a
4224307	RECOG_CONF	n/a	LTP335	ltpFR	0	4	n/a	POCKET	1093	2	n/a	n/a	n/a	n/a	n/a	n/a
4226215	RECOG_LURE	n/a	LTP335	ltpFR	0	4	n/a	ASSISTANT	48	2	n/a	n/a	n/a	n/a	n/a	n/a
4230793	RECOG_RESP	n/a	LTP335	ltpFR	0	4	n/a	ASSISTANT	48	n/a	n/a	n/a	n/a	n/a	n/a	n/a
4233577	RECOG_CONF	n/a	LTP335	ltpFR	0	4	n/a	ASSISTANT	48	2	n/a	n/a	n/a	n/a	n/a	n/a
4235352	RECOG_TARGET	n/a	LTP335	ltpFR	0	4	1	JUPITER	765	5	0	n/a	n/a	n/a	n/a	n/a
4236699	RECOG_RESP	n/a	LTP335	ltpFR	0	4	1	JUPITER	765	n/a	0	n/a	n/a	n/a	n/a	n/a
4238282	RECOG_CONF	n/a	LTP335	ltpFR	0	4	1	JUPITER	765	5	0	n/a	n/a	n/a	n/a	n/a
4239978	RECOG_TARGET	n/a	LTP335	ltpFR	0	4	0	FROG	608	5	0	n/a	n/a	n/a	n/a	n/a
4240874	RECOG_RESP	n/a	LTP335	ltpFR	0	4	0	FROG	608	n/a	0	n/a	n/a	n/a	n/a	n/a
4242042	RECOG_CONF	n/a	LTP335	ltpFR	0	4	0	FROG	608	5	0	n/a	n/a	n/a	n/a	n/a
4243689	RECOG_TARGET	n/a	LTP335	ltpFR	0	4	0	MASK	876	5	0	n/a	n/a	n/a	n/a	n/a
4244689	RECOG_RESP	n/a	LTP335	ltpFR	0	4	0	MASK	876	n/a	0	n/a	n/a	n/a	n/a	n/a
4245812	RECOG_CONF	n/a	LTP335	ltpFR	0	4	0	MASK	876	5	0	n/a	n/a	n/a	n/a	n/a
4247385	RECOG_TARGET	n/a	LTP335	ltpFR	0	4	1	PANTHER	1009	5	1	n/a	n/a	n/a	n/a	n/a
4249079	RECOG_RESP	n/a	LTP335	ltpFR	0	4	1	PANTHER	1009	n/a	1	n/a	n/a	n/a	n/a	n/a
4250072	RECOG_CONF	n/a	LTP335	ltpFR	0	4	1	PANTHER	1009	5	1	n/a	n/a	n/a	n/a	n/a
4251811	RECOG_LURE	n/a	LTP335	ltpFR	0	4	n/a	SNEAKER	1334	3	n/a	n/a	n/a	n/a	n/a	n/a
4254293	RECOG_RESP	n/a	LTP335	ltpFR	0	4	n/a	SNEAKER	1334	n/a	n/a	n/a	n/a	n/a	n/a	n/a
4255440	RECOG_CONF	n/a	LTP335	ltpFR	0	4	n/a	SNEAKER	1334	3	n/a	n/a	n/a	n/a	n/a	n/a
4257170	RECOG_TARGET	n/a	LTP335	ltpFR	0	4	0	SCRIBBLE	1256	5	0	n/a	n/a	n/a	n/a	n/a
4258329	RECOG_RESP	n/a	LTP335	ltpFR	0	4	0	SCRIBBLE	1256	n/a	0	n/a	n/a	n/a	n/a	n/a
4259152	RECOG_CONF	n/a	LTP335	ltpFR	0	4	0	SCRIBBLE	1256	5	0	n/a	n/a	n/a	n/a	n/a
4260981	RECOG_LURE	n/a	LTP335	ltpFR	0	4	n/a	WINNER	1615	2	n/a	n/a	n/a	n/a	n/a	n/a
4266673	RECOG_RESP	n/a	LTP335	ltpFR	0	4	n/a	WINNER	1615	n/a	n/a	n/a	n/a	n/a	n/a	n/a
4269607	RECOG_CONF	n/a	LTP335	ltpFR	0	4	n/a	WINNER	1615	2	n/a	n/a	n/a	n/a	n/a	n/a
4271300	RECOG_TARGET	n/a	LTP335	ltpFR	0	4	-1	MOSS	918	5	-1	n/a	n/a	n/a	n/a	n/a
4272259	RECOG_RESP	n/a	LTP335	ltpFR	0	4	-1	MOSS	918	n/a	-1	n/a	n/a	n/a	n/a	n/a
4273162	RECOG_CONF	n/a	LTP335	ltpFR	0	4	-1	MOSS	918	5	-1	n/a	n/a	n/a	n/a	n/a
4274811	RECOG_LURE	n/a	LTP335	ltpFR	0	4	n/a	FIN	566	4	n/a	n/a	n/a	n/a	n/a	n/a
4277528	RECOG_RESP	n/a	LTP335	ltpFR	0	4	n/a	FIN	566	n/a	n/a	n/a	n/a	n/a	n/a	n/a
4279062	RECOG_CONF	n/a	LTP335	ltpFR	0	4	n/a	FIN	566	4	n/a	n/a	n/a	n/a	n/a	n/a
4280885	RECOG_LURE	n/a	LTP335	ltpFR	0	4	n/a	CANDLE	229	3	n/a	n/a	n/a	n/a	n/a	n/a
4286078	RECOG_RESP	n/a	LTP335	ltpFR	0	4	n/a	CANDLE	229	n/a	n/a	n/a	n/a	n/a	n/a	n/a
4288350	RECOG_CONF	n/a	LTP335	ltpFR	0	4	n/a	CANDLE	229	3	n/a	n/a	n/a	n/a	n/a	n/a
4290205	RECOG_LURE	n/a	LTP335	ltpFR	0	4	n/a	BACKBONE	66	4	n/a	n/a	n/a	n/a	n/a	n/a
4291258	RECOG_RESP	n/a	LTP335	ltpFR	0	4	n/a	BACKBONE	66	n/a	n/a	n/a	n/a	n/a	n/a	n/a
4292172	RECOG_CONF	n/a	LTP335	ltpFR	0	4	n/a	BACKBONE	66	4	n/a	n/a	n/a	n/a	n/a	n/a
4293883	RECOG_LURE	n/a	LTP335	ltpFR	0	4	n/a	APRON	35	4	n/a	n/a	n/a	n/a	n/a	n/a
4296728	RECOG_RESP	n/a	LTP335	ltpFR	0	4	n/a	APRON	35	n/a	n/a	n/a	n/a	n/a	n/a	n/a
4297762	RECOG_CONF	n/a	LTP335	ltpFR	0	4	n/a	APRON	35	4	n/a	n/a	n/a	n/a	n/a	n/a
4303436	REC_START	n/a	LTP335	ltpFR	0	5	n/a	n/a	n/a	n/a	n/a	n/a	n/a	n/a	n/a	n/a
4303453	RECOG_TARGET	n/a	LTP335	ltpFR	0	5	-1	OZONE	996	5	-1	n/a	n/a	n/a	n/a	n/a
4304755	RECOG_RESP	n/a	LTP335	ltpFR	0	5	-1	OZONE	996	n/a	-1	n/a	n/a	n/a	n/a	n/a
4305833	RECOG_CONF	n/a	LTP335	ltpFR	0	5	-1	OZONE	996	5	-1	n/a	n/a	n/a	n/a	n/a
4307464	RECOG_TARGET	n/a	LTP335	ltpFR	0	5	-1	SADDLE	1221	5	-1	n/a	n/a	n/a	n/a	n/a
4309100	RECOG_RESP	n/a	LTP335	ltpFR	0	5	-1	SADDLE	1221	n/a	-1	n/a	n/a	n/a	n/a	n/a
4310133	RECOG_CONF	n/a	LTP335	ltpFR	0	5	-1	SADDLE	1221	5	-1	n/a	n/a	n/a	n/a	n/a
4311973	RECOG_LURE	n/a	LTP335	ltpFR	0	5	n/a	SAW	1239	3	n/a	n/a	n/a	n/a	n/a	n/a
4314189	RECOG_RESP	n/a	LTP335	ltpFR	0	5	n/a	SAW	1239	n/a	n/a	n/a	n/a	n/a	n/a	n/a
4316551	RECOG_CONF	n/a	LTP335	ltpFR	0	5	n/a	SAW	1239	3	n/a	n/a	n/a	n/a	n/a	n/a
4318131	RECOG_LURE	n/a	LTP335	ltpFR	0	5	n/a	RADIO	1157	3	n/a	n/a	n/a	n/a	n/a	n/a
4320684	RECOG_RESP	n/a	LTP335	ltpFR	0	5	n/a	RADIO	1157	n/a	n/a	n/a	n/a	n/a	n/a	n/a
4321931	RECOG_CONF	n/a	LTP335	ltpFR	0	5	n/a	RADIO	1157	3	n/a	n/a	n/a	n/a	n/a	n/a
4323690	RECOG_LURE	n/a	LTP335	ltpFR	0	5	n/a	BANDANNA	80	5	n/a	n/a	n/a	n/a	n/a	n/a
4325474	RECOG_RESP	n/a	LTP335	ltpFR	0	5	n/a	BANDANNA	80	n/a	n/a	n/a	n/a	n/a	n/a	n/a
4326533	RECOG_CONF	n/a	LTP335	ltpFR	0	5	n/a	BANDANNA	80	5	n/a	n/a	n/a	n/a	n/a	n/a
4328183	RECOG_TARGET	n/a	LTP335	ltpFR	0	5	1	COUGAR	387	4	1	n/a	n/a	n/a	n/a	n/a
4334245	RECOG_RESP	n/a	LTP335	ltpFR	0	5	1	COUGAR	387	n/a	1	n/a	n/a	n/a	n/a	n/a
4335553	RECOG_CONF	n/a	LTP335	ltpFR	0	5	1	COUGAR	387	4	1	n/a	n/a	n/a	n/a	n/a
4337271	RECOG_LURE	n/a	LTP335	ltpFR	0	5	n/a	PRESIDENT	1121	4	n/a	n/a	n/a	n/a	n/a	n/a
4340574	RECOG_RESP	n/a	LTP335	ltpFR	0	5	n/a	PRESIDENT	1121	n/a	n/a	n/a	n/a	n/a	n/a	n/a
4341493	RECOG_CONF	n/a	LTP335	ltpFR	0	5	n/a	PRESIDENT	1121	4	n/a	n/a	n/a	n/a	n/a	n/a
4343362	RECOG_LURE	n/a	LTP335	ltpFR	0	5	n/a	BUTTER	205	4	n/a	n/a	n/a	n/a	n/a	n/a
4347574	RECOG_RESP	n/a	LTP335	ltpFR	0	5	n/a	BUTTER	205	n/a	n/a	n/a	n/a	n/a	n/a	n/a
4348523	RECOG_CONF	n/a	LTP335	ltpFR	0	5	n/a	BUTTER	205	4	n/a	n/a	n/a	n/a	n/a	n/a
4350269	RECOG_TARGET	n/a	LTP335	ltpFR	0	5	1	TWIG	1527	2	0	n/a	n/a	n/a	n/a	n/a
4356814	RECOG_RESP	n/a	LTP335	ltpFR	0	5	1	TWIG	1527	n/a	0	n/a	n/a	n/a	n/a	n/a
4359038	RECOG_CONF	n/a	LTP335	ltpFR	0	5	1	TWIG	1527	2	0	n/a	n/a	n/a	n/a	n/a
4360819	RECOG_LURE	n/a	LTP335	ltpFR	0	5	n/a	OINTMENT	974	4	n/a	n/a	n/a	n/a	n/a	n/a
4362399	RECOG_RESP	n/a	LTP335	ltpFR	0	5	n/a	OINTMENT	974	n/a	n/a	n/a	n/a	n/a	n/a	n/a
4363373	RECOG_CONF	n/a	LTP335	ltpFR	0	5	n/a	OINTMENT	974	4	n/a	n/a	n/a	n/a	n/a	n/a
4365163	RECOG_TARGET	n/a	LTP335	ltpFR	0	5	0	TREAD	1499	4	1	n/a	n/a	n/a	n/a	n/a
4367475	RECOG_RESP	n/a	LTP335	ltpFR	0	5	0	TREAD	1499	n/a	1	n/a	n/a	n/a	n/a	n/a
4368403	RECOG_CONF	n/a	LTP335	ltpFR	0	5	0	TREAD	1499	4	1	n/a	n/a	n/a	n/a	n/a
4370406	RECOG_TARGET	n/a	LTP335	ltpFR	0	5	1	WATERFALL	1595	5	0	n/a	n/a	n/a	n/a	n/a
4371455	RECOG_RESP	n/a	LTP335	ltpFR	0	5	1	WATERFALL	1595	n/a	0	n/a	n/a	n/a	n/a	n/a
4372373	RECOG_CONF	n/a	LTP335	ltpFR	0	5	1	WATERFALL	1595	5	0	n/a	n/a	n/a	n/a	n/a
4374117	RECOG_TARGET	n/a	LTP335	ltpFR	0	5	1	DESK	452	3	1	n/a	n/a	n/a	n/a	n/a
4375035	RECOG_RESP	n/a	LTP335	ltpFR	0	5	1	DESK	452	n/a	1	n/a	n/a	n/a	n/a	n/a
4376071	RECOG_CONF	n/a	LTP335	ltpFR	0	5	1	DESK	452	3	1	n/a	n/a	n/a	n/a	n/a
4377695	RECOG_LURE	n/a	LTP335	ltpFR	0	5	n/a	ZIPPER	1636	2	n/a	n/a	n/a	n/a	n/a	n/a
4384979	RECOG_RESP	n/a	LTP335	ltpFR	0	5	n/a	ZIPPER	1636	n/a	n/a	n/a	n/a	n/a	n/a	n/a
4387178	RECOG_CONF	n/a	LTP335	ltpFR	0	5	n/a	ZIPPER	1636	2	n/a	n/a	n/a	n/a	n/a	n/a
4388995	RECOG_LURE	n/a	LTP335	ltpFR	0	5	n/a	FORT	595	1	n/a	n/a	n/a	n/a	n/a	n/a
4395144	RECOG_RESP	n/a	LTP335	ltpFR	0	5	n/a	FORT	595	n/a	n/a	n/a	n/a	n/a	n/a	n/a
4398928	RECOG_CONF	n/a	LTP335	ltpFR	0	5	n/a	FORT	595	1	n/a	n/a	n/a	n/a	n/a	n/a
4400778	RECOG_TARGET	n/a	LTP335	ltpFR	0	5	1	SCOTCH	1251	3	0	n/a	n/a	n/a	n/a	n/a
4405020	RECOG_RESP	n/a	LTP335	ltpFR	0	5	1	SCOTCH	1251	n/a	0	n/a	n/a	n/a	n/a	n/a
4408870	RECOG_CONF	n/a	LTP335	ltpFR	0	5	1	SCOTCH	1251	3	0	n/a	n/a	n/a	n/a	n/a
4411513	RECOG_TARGET	n/a	LTP335	ltpFR	0	5	1	WAITER	1580	5	1	n/a	n/a	n/a	n/a	n/a
4412545	RECOG_RESP	n/a	LTP335	ltpFR	0	5	1	WAITER	1580	n/a	1	n/a	n/a	n/a	n/a	n/a
4413483	RECOG_CONF	n/a	LTP335	ltpFR	0	5	1	WAITER	1580	5	1	n/a	n/a	n/a	n/a	n/a
4415107	RECOG_TARGET	n/a	LTP335	ltpFR	0	5	-1	WALNUT	1584	5	-1	n/a	n/a	n/a	n/a	n/a
4415980	RECOG_RESP	n/a	LTP335	ltpFR	0	5	-1	WALNUT	1584	n/a	-1	n/a	n/a	n/a	n/a	n/a
4417053	RECOG_CONF	n/a	LTP335	ltpFR	0	5	-1	WALNUT	1584	5	-1	n/a	n/a	n/a	n/a	n/a
4418586	RECOG_TARGET	n/a	LTP335	ltpFR	0	5	0	RECORD	1176	3	0	n/a	n/a	n/a	n/a	n/a
4420360	RECOG_RESP	n/a	LTP335	ltpFR	0	5	0	RECORD	1176	n/a	0	n/a	n/a	n/a	n/a	n/a
4421351	RECOG_CONF	n/a	LTP335	ltpFR	0	5	0	RECORD	1176	3	0	n/a	n/a	n/a	n/a	n/a
4423012	RECOG_TARGET	n/a	LTP335	ltpFR	0	5	0	VIOLA	1570	5	1	n/a	n/a	n/a	n/a	n/a
4423895	RECOG_RESP	n/a	LTP335	ltpFR	0	5	0	VIOLA	1570	n/a	1	n/a	n/a	n/a	n/a	n/a
4424703	RECOG_CONF	n/a	LTP335	ltpFR	0	5	0	VIOLA	1570	5	1	n/a	n/a	n/a	n/a	n/a
4431167	REC_START	n/a	LTP335	ltpFR	0	6	n/a	n/a	n/a	n/a	n/a	n/a	n/a	n/a	n/a	n/a
4431184	RECOG_TARGET	n/a	LTP335	ltpFR	0	6	1	MARROW	872	4	0	n/a	n/a	n/a	n/a	n/a
4432530	RECOG_RESP	n/a	LTP335	ltpFR	0	6	1	MARROW	872	n/a	0	n/a	n/a	n/a	n/a	n/a
4434134	RECOG_CONF	n/a	LTP335	ltpFR	0	6	1	MARROW	872	4	0	n/a	n/a	n/a	n/a	n/a
4435727	RECOG_TARGET	n/a	LTP335	ltpFR	0	6	-1	FAMILY	550	3	-1	n/a	n/a	n/a	n/a	n/a
4438726	RECOG_RESP	n/a	LTP335	ltpFR	0	6	-1	FAMILY	550	n/a	-1	n/a	n/a	n/a	n/a	n/a
4439722	RECOG_CONF	n/a	LTP335	ltpFR	0	6	-1	FAMILY	550	3	-1	n/a	n/a	n/a	n/a	n/a
4441620	RECOG_LURE	n/a	LTP335	ltpFR	0	6	n/a	HOOK	715	3	n/a	n/a	n/a	n/a	n/a	n/a
4447870	RECOG_RESP	n/a	LTP335	ltpFR	0	6	n/a	HOOK	715	n/a	n/a	n/a	n/a	n/a	n/a	n/a
4449272	RECOG_CONF	n/a	LTP335	ltpFR	0	6	n/a	HOOK	715	3	n/a	n/a	n/a	n/a	n/a	n/a
4451071	RECOG_LURE	n/a	LTP335	ltpFR	0	6	n/a	SALESMAN	1225	4	n/a	n/a	n/a	n/a	n/a	n/a
4452390	RECOG_RESP	n/a	LTP335	ltpFR	0	6	n/a	SALESMAN	1225	n/a	n/a	n/a	n/a	n/a	n/a	n/a
4454524	RECOG_CONF	n/a	LTP335	ltpFR	0	6	n/a	SALESMAN	1225	4	n/a	n/a	n/a	n/a	n/a	n/a
4456381	RECOG_TARGET	n/a	LTP335	ltpFR	0	6	1	ICEBERG	731	3	0	n/a	n/a	n/a	n/a	n/a
4459011	RECOG_RESP	n/a	LTP335	ltpFR	0	6	1	ICEBERG	731	n/a	0	n/a	n/a	n/a	n/a	n/a
4460072	RECOG_CONF	n/a	LTP335	ltpFR	0	6	1	ICEBERG	731	3	0	n/a	n/a	n/a	n/a	n/a
4461889	RECOG_TARGET	n/a	LTP335	ltpFR	0	6	0	FEAST	556	5	1	n/a	n/a	n/a	n/a	n/a
4462771	RECOG_RESP	n/a	LTP335	ltpFR	0	6	0	FEAST	556	n/a	1	n/a	n/a	n/a	n/a	n/a
4463644	RECOG_CONF	n/a	LTP335	ltpFR	0	6	0	FEAST	556	5	1	n/a	n/a	n/a	n/a	n/a
4465285	RECOG_LURE	n/a	LTP335	ltpFR	0	6	n/a	OX	994	4	n/a	n/a	n/a	n/a	n/a	n/a
4466330	RECOG_RESP	n/a	LTP335	ltpFR	0	6	n/a	OX	994	n/a	n/a	n/a	n/a	n/a	n/a	n/a
4467264	RECOG_CONF	n/a	LTP335	ltpFR	0	6	n/a	OX	994	4	n/a	n/a	n/a	n/a	n/a	n/a
4468996	RECOG_LURE	n/a	LTP335	ltpFR	0	6	n/a	YOLK	1633	4	n/a	n/a	n/a	n/a	n/a	n/a
4470020	RECOG_RESP	n/a	LTP335	ltpFR	0	6	n/a	YOLK	1633	n/a	n/a	n/a	n/a	n/a	n/a	n/a
4471424	RECOG_CONF	n/a	LTP335	ltpFR	0	6	n/a	YOLK	1633	4	n/a	n/a	n/a	n/a	n/a	n/a
4472940	RECOG_LURE	n/a	LTP335	ltpFR	0	6	n/a	OUTDOORS	987	5	n/a	n/a	n/a	n/a	n/a	n/a
4474105	RECOG_RESP	n/a	LTP335	ltpFR	0	6	n/a	OUTDOORS	987	n/a	n/a	n/a	n/a	n/a	n/a	n/a
4474974	RECOG_CONF	n/a	LTP335	ltpFR	0	6	n/a	OUTDOORS	987	5	n/a	n/a	n/a	n/a	n/a	n/a
4476652	RECOG_TARGET	n/a	LTP335	ltpFR	0	6	-1	PARTY	1018	5	-1	n/a	n/a	n/a	n/a	n/a
4477766	RECOG_RESP	n/a	LTP335	ltpFR	0	6	-1	PARTY	1018	n/a	-1	n/a	n/a	n/a	n/a	n/a
4478744	RECOG_CONF	n/a	LTP335	ltpFR	0	6	-1	PARTY	1018	5	-1	n/a	n/a	n/a	n/a	n/a
4480580	RECOG_TARGET	n/a	LTP335	ltpFR	0	6	0	NEST	945	5	0	n/a	n/a	n/a	n/a	n/a
4481476	RECOG_RESP	n/a	LTP335	ltpFR	0	6	0	NEST	945	n/a	0	n/a	n/a	n/a	n/a	n/a
4482374	RECOG_CONF	n/a	LTP335	ltpFR	0	6	0	NEST	945	5	0	n/a	n/a	n/a	n/a	n/a
4483940	RECOG_TARGET	n/a	LTP335	ltpFR	0	6	0	CERAMICS	271	5	1	n/a	n/a	n/a	n/a	n/a
4484781	RECOG_RESP	n/a	LTP335	ltpFR	0	6	0	CERAMICS	271	n/a	1	n/a	n/a	n/a	n/a	n/a
4485684	RECOG_CONF	n/a	LTP335	ltpFR	0	6	0	CERAMICS	271	5	1	n/a	n/a	n/a	n/a	n/a
4487287	RECOG_TARGET	n/a	LTP335	ltpFR	0	6	-1	MONGOOSE	909	3	-1	n/a	n/a	n/a	n/a	n/a
4488646	RECOG_RESP	n/a	LTP335	ltpFR	0	6	-1	MONGOOSE	909	n/a	-1	n/a	n/a	n/a	n/a	n/a
4492202	RECOG_CONF	n/a	LTP335	ltpFR	0	6	-1	MONGOOSE	909	3	-1	n/a	n/a	n/a	n/a	n/a
4493959	RECOG_TARGET	n/a	LTP335	ltpFR	0	6	1	SHRIMP	1297	5	1	n/a	n/a	n/a	n/a	n/a
4495271	RECOG_RESP	n/a	LTP335	ltpFR	0	6	1	SHRIMP	1297	n/a	1	n/a	n/a	n/a	n/a	n/a
4496084	RECOG_CONF	n/a	LTP335	ltpFR	0	6	1	SHRIMP	1297	5	1	n/a	n/a	n/a	n/a	n/a
4497655	RECOG_LURE	n/a	LTP335	ltpFR	0	6	n/a	LACE	792	4	n/a	n/a	n/a	n/a	n/a	n/a
4499565	RECOG_RESP	n/a	LTP335	ltpFR	0	6	n/a	LACE	792	n/a	n/a	n/a	n/a	n/a	n/a	n/a
4501574	RECOG_CONF	n/a	LTP335	ltpFR	0	6	n/a	LACE	792	4	n/a	n/a	n/a	n/a	n/a	n/a
4503129	RECOG_TARGET	n/a	LTP335	ltpFR	0	6	1	ANIMAL	23	5	1	n/a	n/a	n/a	n/a	n/a
4504226	RECOG_RESP	n/a	LTP335	ltpFR	0	6	1	ANIMAL	23	n/a	1	n/a	n/a	n/a	n/a	n/a
4505044	RECOG_CONF	n/a	LTP335	ltpFR	0	6	1	ANIMAL	23	5	1	n/a	n/a	n/a	n/a	n/a
4506609	RECOG_LURE	n/a	LTP335	ltpFR	0	6	n/a	GIRAFFE	636	4	n/a	n/a	n/a	n/a	n/a	n/a
4508360	RECOG_RESP	n/a	LTP335	ltpFR	0	6	n/a	GIRAFFE	636	n/a	n/a	n/a	n/a	n/a	n/a	n/a
4509254	RECOG_CONF	n/a	LTP335	ltpFR	0	6	n/a	GIRAFFE	636	4	n/a	n/a	n/a	n/a	n/a	n/a
4510868	RECOG_LURE	n/a	LTP335	ltpFR	0	6	n/a	SPRINKLE	1359	5	n/a	n/a	n/a	n/a	n/a	n/a
4512260	RECOG_RESP	n/a	LTP335	ltpFR	0	6	n/a	SPRINKLE	1359	n/a	n/a	n/a	n/a	n/a	n/a	n/a
4513094	RECOG_CONF	n/a	LTP335	ltpFR	0	6	n/a	SPRINKLE	1359	5	n/a	n/a	n/a	n/a	n/a	n/a
4514447	RECOG_TARGET	n/a	LTP335	ltpFR	0	6	1	CABINET	212	3	0	n/a	n/a	n/a	n/a	n/a
4517166	RECOG_RESP	n/a	LTP335	ltpFR	0	6	1	CABINET	212	n/a	0	n/a	n/a	n/a	n/a	n/a
4518412	RECOG_CONF	n/a	LTP335	ltpFR	0	6	1	CABINET	212	3	0	n/a	n/a	n/a	n/a	n/a
4519905	RECOG_LURE	n/a	LTP335	ltpFR	0	6	n/a	SMOG	1330	3	n/a	n/a	n/a	n/a	n/a	n/a
4521365	RECOG_RESP	n/a	LTP335	ltpFR	0	6	n/a	SMOG	1330	n/a	n/a	n/a	n/a	n/a	n/a	n/a
4525292	RECOG_CONF	n/a	LTP335	ltpFR	0	6	n/a	SMOG	1330	3	n/a	n/a	n/a	n/a	n/a	n/a
4537283	REC_START	n/a	LTP335	ltpFR	0	7	n/a	n/a	n/a	n/a	n/a	n/a	n/a	n/a	n/a	n/a
4537314	RECOG_TARGET	n/a	LTP335	ltpFR	0	7	1	CANARY	227	5	0	n/a	n/a	n/a	n/a	n/a
4538932	RECOG_RESP	n/a	LTP335	ltpFR	0	7	1	CANARY	227	n/a	0	n/a	n/a	n/a	n/a	n/a
4539930	RECOG_CONF	n/a	LTP335	ltpFR	0	7	1	CANARY	227	5	0	n/a	n/a	n/a	n/a	n/a
4541508	RECOG_LURE	n/a	LTP335	ltpFR	0	7	n/a	PIRATE	1074	5	n/a	n/a	n/a	n/a	n/a	n/a
4542546	RECOG_RESP	n/a	LTP335	ltpFR	0	7	n/a	PIRATE	1074	n/a	n/a	n/a	n/a	n/a	n/a	n/a
4543350	RECOG_CONF	n/a	LTP335	ltpFR	0	7	n/a	PIRATE	1074	5	n/a	n/a	n/a	n/a	n/a	n/a
4545035	RECOG_LURE	n/a	LTP335	ltpFR	0	7	n/a	SLEEVE	1324	5	n/a	n/a	n/a	n/a	n/a	n/a
4546181	RECOG_RESP	n/a	LTP335	ltpFR	0	7	n/a	SLEEVE	1324	n/a	n/a	n/a	n/a	n/a	n/a	n/a
4546960	RECOG_CONF	n/a	LTP335	ltpFR	0	7	n/a	SLEEVE	1324	5	n/a	n/a	n/a	n/a	n/a	n/a
4548846	RECOG_LURE	n/a	LTP335	ltpFR	0	7	n/a	TUBA	1515	5	n/a	n/a	n/a	n/a	n/a	n/a
4549721	RECOG_RESP	n/a	LTP335	ltpFR	0	7	n/a	TUBA	1515	n/a	n/a	n/a	n/a	n/a	n/a	n/a
4550730	RECOG_CONF	n/a	LTP335	ltpFR	0	7	n/a	TUBA	1515	5	n/a	n/a	n/a	n/a	n/a	n/a
4552442	RECOG_TARGET	n/a	LTP335	ltpFR	0	7	0	JEWEL	757	5	0	n/a	n/a	n/a	n/a	n/a
4553367	RECOG_RESP	n/a	LTP335	ltpFR	0	7	0	JEWEL	757	n/a	0	n/a	n/a	n/a	n/a	n/a
4554400	RECOG_CONF	n/a	LTP335	ltpFR	0	7	0	JEWEL	757	5	0	n/a	n/a	n/a	n/a	n/a
4556052	RECOG_LURE	n/a	LTP335	ltpFR	0	7	n/a	BRANCH	168	3	n/a	n/a	n/a	n/a	n/a	n/a
4557282	RECOG_RESP	n/a	LTP335	ltpFR	0	7	n/a	BRANCH	168	n/a	n/a	n/a	n/a	n/a	n/a	n/a
4558788	RECOG_CONF	n/a	LTP335	ltpFR	0	7	n/a	BRANCH	168	3	n/a	n/a	n/a	n/a	n/a	n/a
4560331	RECOG_LURE	n/a	LTP335	ltpFR	0	7	n/a	DOORBELL	487	2	n/a	n/a	n/a	n/a	n/a	n/a
4565881	RECOG_RESP	n/a	LTP335	ltpFR	0	7	n/a	DOORBELL	487	n/a	n/a	n/a	n/a	n/a	n/a	n/a
4568565	RECOG_CONF	n/a	LTP335	ltpFR	0	7	n/a	DOORBELL	487	2	n/a	n/a	n/a	n/a	n/a	n/a
4570316	RECOG_LURE	n/a	LTP335	ltpFR	0	7	n/a	DAUGHTER	442	2	n/a	n/a	n/a	n/a	n/a	n/a
4571631	RECOG_RESP	n/a	LTP335	ltpFR	0	7	n/a	DAUGHTER	442	n/a	n/a	n/a	n/a	n/a	n/a	n/a
4572525	RECOG_CONF	n/a	LTP335	ltpFR	0	7	n/a	DAUGHTER	442	2	n/a	n/a	n/a	n/a	n/a	n/a
4574692	RECOG_LURE	n/a	LTP335	ltpFR	0	7	n/a	ARTIST	43	3	n/a	n/a	n/a	n/a	n/a	n/a
4577037	RECOG_RESP	n/a	LTP335	ltpFR	0	7	n/a	ARTIST	43	n/a	n/a	n/a	n/a	n/a	n/a	n/a
4579548	RECOG_CONF	n/a	LTP335	ltpFR	0	7	n/a	ARTIST	43	3	n/a	n/a	n/a	n/a	n/a	n/a
4581166	RECOG_LURE	n/a	LTP335	ltpFR	0	7	n/a	VISITOR	1573	2	n/a	n/a	n/a	n/a	n/a	n/a
4584156	RECOG_RESP	n/a	LTP335	ltpFR	0	7	n/a	VISITOR	1573	n/a	n/a	n/a	n/a	n/a	n/a	n/a
4586565	RECOG_CONF	n/a	LTP335	ltpFR	0	7	n/a	VISITOR	1573	2	n/a	n/a	n/a	n/a	n/a	n/a
