onset	duration	trial_type	sample	stim_file	subject	experiment	session	trial	task	item_name	item_num	recog_resp	recog_conf	resp	color_r	color_g	color_b	case	font
244.872	n/a	SESS_START	122436	n/a	LTP267	ltpFR	19	n/a	n/a	n/a	n/a	1	5	n/a	n/a	n/a	n/a	n/a	n/a
280.264	n/a	WORD	140132	wordpools/wasnorm_wordpool_less_exclusions.txt	LTP267	ltpFR	19	1	1	ELK	526	1	n/a	1	0.422607421875	0.5869140625	0	upper	amplitud.ttf
284.362	n/a	WORD	142181	wordpools/wasnorm_wordpool_less_exclusions.txt	LTP267	ltpFR	19	1	1	DEPUTY	450	n/a	n/a	1	0.422607421875	0.5869140625	0	upper	amplitud.ttf
288.31	n/a	WORD	144155	wordpools/wasnorm_wordpool_less_exclusions.txt	LTP267	ltpFR	19	1	1	UNCLE	1536	n/a	n/a	1	0.422607421875	0.5869140625	0	upper	amplitud.ttf
292.174	n/a	WORD	146087	wordpools/wasnorm_wordpool_less_exclusions.txt	LTP267	ltpFR	19	1	0	STEWARDESS	1381	n/a	n/a	0	0.57763671875	0.412841796875	1	lower	zerothre.ttf
296.074	n/a	WORD	148037	wordpools/wasnorm_wordpool_less_exclusions.txt	LTP267	ltpFR	19	1	0	POOL	1103	n/a	n/a	1	0.57763671875	0.412841796875	1	lower	zerothre.ttf
300.29	n/a	WORD	150145	wordpools/wasnorm_wordpool_less_exclusions.txt	LTP267	ltpFR	19	1	1	LACE	792	n/a	n/a	2	0.422607421875	0.5869140625	0	upper	amplitud.ttf
301.126	n/a	KEY_MSG	150563	n/a	LTP267	ltpFR	19	1	n/a	n/a	n/a	n/a	n/a	n/a	n/a	n/a	n/a	n/a	n/a
304.188	n/a	WORD	152094	wordpools/wasnorm_wordpool_less_exclusions.txt	LTP267	ltpFR	19	1	1	PROTRACTOR	1133	n/a	n/a	0	0.422607421875	0.5869140625	0	upper	amplitud.ttf
308.386	n/a	WORD	154193	wordpools/wasnorm_wordpool_less_exclusions.txt	LTP267	ltpFR	19	1	0	HELICOPTER	701	n/a	n/a	1	0.57763671875	0.412841796875	1	lower	zerothre.ttf
312.486	n/a	WORD	156243	wordpools/wasnorm_wordpool_less_exclusions.txt	LTP267	ltpFR	19	1	0	LIVER	833	n/a	n/a	0	0.57763671875	0.412841796875	1	lower	zerothre.ttf
316.686	n/a	WORD	158343	wordpools/wasnorm_wordpool_less_exclusions.txt	LTP267	ltpFR	19	1	0	LUNCH	849	n/a	n/a	0	0.57763671875	0.412841796875	1	lower	zerothre.ttf
320.768	n/a	WORD	160384	wordpools/wasnorm_wordpool_less_exclusions.txt	LTP267	ltpFR	19	1	0	EDITOR	516	n/a	n/a	1	0.57763671875	0.412841796875	1	lower	zerothre.ttf
324.614	n/a	WORD	162307	wordpools/wasnorm_wordpool_less_exclusions.txt	LTP267	ltpFR	19	1	0	BOOK	149	n/a	n/a	0	0.57763671875	0.412841796875	1	lower	zerothre.ttf
328.764	n/a	WORD	164382	wordpools/wasnorm_wordpool_less_exclusions.txt	LTP267	ltpFR	19	1	0	COUSIN	392	n/a	n/a	1	0.57763671875	0.412841796875	1	lower	zerothre.ttf
332.914	n/a	WORD	166457	wordpools/wasnorm_wordpool_less_exclusions.txt	LTP267	ltpFR	19	1	1	AFRICA	9	n/a	n/a	1	0.422607421875	0.5869140625	0	upper	amplitud.ttf
336.93	n/a	WORD	168465	wordpools/wasnorm_wordpool_less_exclusions.txt	LTP267	ltpFR	19	1	1	COUNTRY	388	n/a	n/a	1	0.422607421875	0.5869140625	0	upper	amplitud.ttf
340.844	n/a	WORD	170422	wordpools/wasnorm_wordpool_less_exclusions.txt	LTP267	ltpFR	19	1	1	CREATURE	403	n/a	n/a	1	0.422607421875	0.5869140625	0	upper	amplitud.ttf
346.5	n/a	REC_START	173250	n/a	LTP267	ltpFR	19	1	n/a	n/a	n/a	n/a	n/a	n/a	n/a	n/a	n/a	n/a	n/a
347.026	n/a	REC_WORD	173513	wordpools/wasnorm_wordpool_less_exclusions.txt	LTP267	ltpFR	19	1	1	CREATURE	403	n/a	n/a	1	n/a	n/a	n/a	n/a	n/a
347.878	n/a	REC_WORD	173939	wordpools/wasnorm_wordpool_less_exclusions.txt	LTP267	ltpFR	19	1	1	AFRICA	9	n/a	n/a	1	n/a	n/a	n/a	n/a	n/a
348.954	n/a	REC_WORD	174477	wordpools/wasnorm_wordpool_less_exclusions.txt	LTP267	ltpFR	19	1	1	COUNTRY	388	n/a	n/a	1	n/a	n/a	n/a	n/a	n/a
349.964	n/a	REC_WORD	174982	wordpools/wasnorm_wordpool_less_exclusions.txt	LTP267	ltpFR	19	1	1	LACE	792	n/a	n/a	2	n/a	n/a	n/a	n/a	n/a
351.016	n/a	REC_WORD	175508	wordpools/wasnorm_wordpool_less_exclusions.txt	LTP267	ltpFR	19	1	0	STEWARDESS	1381	n/a	n/a	0	n/a	n/a	n/a	n/a	n/a
352.314	n/a	REC_WORD	176157	wordpools/wasnorm_wordpool_less_exclusions.txt	LTP267	ltpFR	19	1	0	BOOK	149	n/a	n/a	0	n/a	n/a	n/a	n/a	n/a
353.206	n/a	REC_WORD	176603	wordpools/wasnorm_wordpool_less_exclusions.txt	LTP267	ltpFR	19	1	0	LIVER	833	n/a	n/a	0	n/a	n/a	n/a	n/a	n/a
355.728	n/a	REC_WORD	177864	wordpools/wasnorm_wordpool_less_exclusions.txt	LTP267	ltpFR	19	1	0	POOL	1103	n/a	n/a	1	n/a	n/a	n/a	n/a	n/a
358.776	n/a	REC_WORD	179388	wordpools/wasnorm_wordpool_less_exclusions.txt	LTP267	ltpFR	19	1	1	ELK	526	n/a	n/a	1	n/a	n/a	n/a	n/a	n/a
361.396	n/a	REC_WORD	180698	wordpools/wasnorm_wordpool_less_exclusions.txt	LTP267	ltpFR	19	1	1	DEPUTY	450	n/a	n/a	1	n/a	n/a	n/a	n/a	n/a
426.052	n/a	WORD	213026	wordpools/wasnorm_wordpool_less_exclusions.txt	LTP267	ltpFR	19	2	0	SPATULA	1348	n/a	n/a	0	0.57763671875	0.412841796875	1	lower	zerothre.ttf
430.136	n/a	WORD	215068	wordpools/wasnorm_wordpool_less_exclusions.txt	LTP267	ltpFR	19	2	0	MICROWAVE	892	n/a	n/a	1	0.57763671875	0.412841796875	1	lower	zerothre.ttf
434.302	n/a	WORD	217151	wordpools/wasnorm_wordpool_less_exclusions.txt	LTP267	ltpFR	19	2	0	FLOWER	584	n/a	n/a	1	0.57763671875	0.412841796875	1	lower	zerothre.ttf
438.5	n/a	WORD	219250	wordpools/wasnorm_wordpool_less_exclusions.txt	LTP267	ltpFR	19	2	0	CUSTARD	429	n/a	n/a	0	0.57763671875	0.412841796875	1	lower	zerothre.ttf
442.382	n/a	WORD	221191	wordpools/wasnorm_wordpool_less_exclusions.txt	LTP267	ltpFR	19	2	1	NIGHTGOWN	953	n/a	n/a	1	0.422607421875	0.5869140625	0	upper	amplitud.ttf
446.582	n/a	WORD	223291	wordpools/wasnorm_wordpool_less_exclusions.txt	LTP267	ltpFR	19	2	1	AUTHOR	61	n/a	n/a	1	0.422607421875	0.5869140625	0	upper	amplitud.ttf
450.414	n/a	WORD	225207	wordpools/wasnorm_wordpool_less_exclusions.txt	LTP267	ltpFR	19	2	1	PUDDING	1139	n/a	n/a	1	0.422607421875	0.5869140625	0	upper	amplitud.ttf
454.512	n/a	WORD	227256	wordpools/wasnorm_wordpool_less_exclusions.txt	LTP267	ltpFR	19	2	1	DOG	480	n/a	n/a	1	0.422607421875	0.5869140625	0	upper	amplitud.ttf
458.644	n/a	WORD	229322	wordpools/wasnorm_wordpool_less_exclusions.txt	LTP267	ltpFR	19	2	0	SALMON	1227	n/a	n/a	0	0.57763671875	0.412841796875	1	lower	zerothre.ttf
462.592	n/a	WORD	231296	wordpools/wasnorm_wordpool_less_exclusions.txt	LTP267	ltpFR	19	2	0	LIPSTICK	829	n/a	n/a	0	0.57763671875	0.412841796875	1	lower	zerothre.ttf
466.556	n/a	WORD	233278	wordpools/wasnorm_wordpool_less_exclusions.txt	LTP267	ltpFR	19	2	0	TUNA	1518	n/a	n/a	0	0.57763671875	0.412841796875	1	lower	zerothre.ttf
470.44	n/a	WORD	235220	wordpools/wasnorm_wordpool_less_exclusions.txt	LTP267	ltpFR	19	2	0	COD	340	n/a	n/a	0	0.57763671875	0.412841796875	1	lower	zerothre.ttf
474.354	n/a	WORD	237177	wordpools/wasnorm_wordpool_less_exclusions.txt	LTP267	ltpFR	19	2	1	CACTUS	215	n/a	n/a	1	0.422607421875	0.5869140625	0	upper	amplitud.ttf
478.37	n/a	WORD	239185	wordpools/wasnorm_wordpool_less_exclusions.txt	LTP267	ltpFR	19	2	1	NEWSPAPER	948	n/a	n/a	0	0.422607421875	0.5869140625	0	upper	amplitud.ttf
482.268	n/a	WORD	241134	wordpools/wasnorm_wordpool_less_exclusions.txt	LTP267	ltpFR	19	2	1	RUNNER	1218	n/a	n/a	1	0.422607421875	0.5869140625	0	upper	amplitud.ttf
486.468	n/a	WORD	243234	wordpools/wasnorm_wordpool_less_exclusions.txt	LTP267	ltpFR	19	2	1	PUCK	1138	n/a	n/a	0	0.422607421875	0.5869140625	0	upper	amplitud.ttf
492.358	n/a	REC_START	246179	n/a	LTP267	ltpFR	19	2	n/a	n/a	n/a	n/a	n/a	n/a	n/a	n/a	n/a	n/a	n/a
492.94	n/a	REC_WORD	246470	wordpools/wasnorm_wordpool_less_exclusions.txt	LTP267	ltpFR	19	2	1	PUCK	1138	n/a	n/a	0	n/a	n/a	n/a	n/a	n/a
493.654	n/a	REC_WORD	246827	wordpools/wasnorm_wordpool_less_exclusions.txt	LTP267	ltpFR	19	2	1	RUNNER	1218	n/a	n/a	1	n/a	n/a	n/a	n/a	n/a
494.5	n/a	REC_WORD	247250	wordpools/wasnorm_wordpool_less_exclusions.txt	LTP267	ltpFR	19	2	1	NEWSPAPER	948	n/a	n/a	0	n/a	n/a	n/a	n/a	n/a
495.742	n/a	REC_WORD	247871	wordpools/wasnorm_wordpool_less_exclusions.txt	LTP267	ltpFR	19	2	0	SPATULA	1348	n/a	n/a	0	n/a	n/a	n/a	n/a	n/a
497.292	n/a	REC_WORD	248646	wordpools/wasnorm_wordpool_less_exclusions.txt	LTP267	ltpFR	19	2	0	STEWARDESS	1381	n/a	n/a	0	n/a	n/a	n/a	n/a	n/a
498.928	n/a	REC_WORD	249464	wordpools/wasnorm_wordpool_less_exclusions.txt	LTP267	ltpFR	19	2	1	CACTUS	215	n/a	n/a	1	n/a	n/a	n/a	n/a	n/a
501.85	n/a	REC_WORD	250925	wordpools/wasnorm_wordpool_less_exclusions.txt	LTP267	ltpFR	19	2	1	PUDDING	1139	n/a	n/a	1	n/a	n/a	n/a	n/a	n/a
579.506	n/a	WORD	289753	wordpools/wasnorm_wordpool_less_exclusions.txt	LTP267	ltpFR	19	3	1	MOTOR	922	n/a	n/a	2	0.422607421875	0.5869140625	0	upper	amplitud.ttf
580.344	n/a	KEY_MSG	290172	n/a	LTP267	ltpFR	19	3	n/a	n/a	n/a	n/a	n/a	n/a	n/a	n/a	n/a	n/a	n/a
583.438	n/a	WORD	291719	wordpools/wasnorm_wordpool_less_exclusions.txt	LTP267	ltpFR	19	3	1	TICKET	1464	n/a	n/a	0	0.422607421875	0.5869140625	0	upper	amplitud.ttf
587.42	n/a	WORD	293710	wordpools/wasnorm_wordpool_less_exclusions.txt	LTP267	ltpFR	19	3	1	TICK	1463	n/a	n/a	0	0.422607421875	0.5869140625	0	upper	amplitud.ttf
591.602	n/a	WORD	295801	wordpools/wasnorm_wordpool_less_exclusions.txt	LTP267	ltpFR	19	3	1	PLASTER	1085	n/a	n/a	0	0.422607421875	0.5869140625	0	upper	amplitud.ttf
595.584	n/a	WORD	297792	wordpools/wasnorm_wordpool_less_exclusions.txt	LTP267	ltpFR	19	3	1	MICROSCOPE	891	n/a	n/a	0	0.422607421875	0.5869140625	0	upper	amplitud.ttf
599.734	n/a	WORD	299867	wordpools/wasnorm_wordpool_less_exclusions.txt	LTP267	ltpFR	19	3	1	ELECTRICIAN	521	n/a	n/a	1	0.422607421875	0.5869140625	0	upper	amplitud.ttf
603.766	n/a	WORD	301883	wordpools/wasnorm_wordpool_less_exclusions.txt	LTP267	ltpFR	19	3	1	DIAGRAM	456	n/a	n/a	0	0.422607421875	0.5869140625	0	upper	amplitud.ttf
607.73	n/a	WORD	303865	wordpools/wasnorm_wordpool_less_exclusions.txt	LTP267	ltpFR	19	3	1	SKETCH	1315	n/a	n/a	0	0.422607421875	0.5869140625	0	upper	amplitud.ttf
611.896	n/a	WORD	305948	wordpools/wasnorm_wordpool_less_exclusions.txt	LTP267	ltpFR	19	3	1	CUE	422	n/a	n/a	0	0.422607421875	0.5869140625	0	upper	amplitud.ttf
615.762	n/a	WORD	307881	wordpools/wasnorm_wordpool_less_exclusions.txt	LTP267	ltpFR	19	3	1	SCREEN	1253	n/a	n/a	0	0.422607421875	0.5869140625	0	upper	amplitud.ttf
619.944	n/a	WORD	309972	wordpools/wasnorm_wordpool_less_exclusions.txt	LTP267	ltpFR	19	3	1	TRUCK	1512	n/a	n/a	0	0.422607421875	0.5869140625	0	upper	amplitud.ttf
624.144	n/a	WORD	312072	wordpools/wasnorm_wordpool_less_exclusions.txt	LTP267	ltpFR	19	3	1	PIKE	1067	n/a	n/a	0	0.422607421875	0.5869140625	0	upper	amplitud.ttf
628.04	n/a	WORD	314020	wordpools/wasnorm_wordpool_less_exclusions.txt	LTP267	ltpFR	19	3	1	BEGGAR	117	n/a	n/a	1	0.422607421875	0.5869140625	0	upper	amplitud.ttf
632.224	n/a	WORD	316112	wordpools/wasnorm_wordpool_less_exclusions.txt	LTP267	ltpFR	19	3	1	NOMAD	955	n/a	n/a	1	0.422607421875	0.5869140625	0	upper	amplitud.ttf
636.074	n/a	WORD	318037	wordpools/wasnorm_wordpool_less_exclusions.txt	LTP267	ltpFR	19	3	1	BISON	131	n/a	n/a	1	0.422607421875	0.5869140625	0	upper	amplitud.ttf
640.104	n/a	WORD	320052	wordpools/wasnorm_wordpool_less_exclusions.txt	LTP267	ltpFR	19	3	1	CHIPMUNK	304	n/a	n/a	1	0.422607421875	0.5869140625	0	upper	amplitud.ttf
645.894	n/a	REC_START	322947	n/a	LTP267	ltpFR	19	3	n/a	n/a	n/a	n/a	n/a	n/a	n/a	n/a	n/a	n/a	n/a
646.532	n/a	REC_WORD	323266	wordpools/wasnorm_wordpool_less_exclusions.txt	LTP267	ltpFR	19	3	1	PIKE	1067	n/a	n/a	0	n/a	n/a	n/a	n/a	n/a
647.296	n/a	REC_WORD	323648	wordpools/wasnorm_wordpool_less_exclusions.txt	LTP267	ltpFR	19	3	1	BEGGAR	117	n/a	n/a	1	n/a	n/a	n/a	n/a	n/a
648.064	n/a	REC_WORD	324032	wordpools/wasnorm_wordpool_less_exclusions.txt	LTP267	ltpFR	19	3	1	NOMAD	955	n/a	n/a	1	n/a	n/a	n/a	n/a	n/a
649.098	n/a	REC_WORD	324549	wordpools/wasnorm_wordpool_less_exclusions.txt	LTP267	ltpFR	19	3	1	BISON	131	n/a	n/a	1	n/a	n/a	n/a	n/a	n/a
653.5	n/a	REC_WORD	326750	wordpools/wasnorm_wordpool_less_exclusions.txt	LTP267	ltpFR	19	3	1	SCREEN	1253	n/a	n/a	0	n/a	n/a	n/a	n/a	n/a
655.782	n/a	REC_WORD	327891	wordpools/wasnorm_wordpool_less_exclusions.txt	LTP267	ltpFR	19	3	1	TICKET	1464	n/a	n/a	0	n/a	n/a	n/a	n/a	n/a
656.83	n/a	REC_WORD	328415	wordpools/wasnorm_wordpool_less_exclusions.txt	LTP267	ltpFR	19	3	1	TICK	1463	n/a	n/a	0	n/a	n/a	n/a	n/a	n/a
658.974	n/a	REC_WORD	329487	wordpools/wasnorm_wordpool_less_exclusions.txt	LTP267	ltpFR	19	3	1	TRUCK	1512	n/a	n/a	0	n/a	n/a	n/a	n/a	n/a
724.978	n/a	WORD	362489	wordpools/wasnorm_wordpool_less_exclusions.txt	LTP267	ltpFR	19	4	0	FATHER	554	n/a	n/a	0	0.57763671875	0.412841796875	1	lower	zerothre.ttf
729.128	n/a	WORD	364564	wordpools/wasnorm_wordpool_less_exclusions.txt	LTP267	ltpFR	19	4	0	CORD	379	n/a	n/a	0	0.57763671875	0.412841796875	1	lower	zerothre.ttf
732.96	n/a	WORD	366480	wordpools/wasnorm_wordpool_less_exclusions.txt	LTP267	ltpFR	19	4	1	SIDING	1304	n/a	n/a	0	0.422607421875	0.5869140625	0	upper	amplitud.ttf
736.992	n/a	WORD	368496	wordpools/wasnorm_wordpool_less_exclusions.txt	LTP267	ltpFR	19	4	1	FAMILY	550	n/a	n/a	1	0.422607421875	0.5869140625	0	upper	amplitud.ttf
741.158	n/a	WORD	370579	wordpools/wasnorm_wordpool_less_exclusions.txt	LTP267	ltpFR	19	4	1	BURGLAR	200	n/a	n/a	1	0.422607421875	0.5869140625	0	upper	amplitud.ttf
745.306	n/a	WORD	372653	wordpools/wasnorm_wordpool_less_exclusions.txt	LTP267	ltpFR	19	4	1	TWINE	1529	n/a	n/a	0	0.422607421875	0.5869140625	0	upper	amplitud.ttf
749.286	n/a	WORD	374643	wordpools/wasnorm_wordpool_less_exclusions.txt	LTP267	ltpFR	19	4	0	CAKE	219	n/a	n/a	0	0.57763671875	0.412841796875	1	lower	zerothre.ttf
753.438	n/a	WORD	376719	wordpools/wasnorm_wordpool_less_exclusions.txt	LTP267	ltpFR	19	4	0	BUTTER	205	n/a	n/a	0	0.57763671875	0.412841796875	1	lower	zerothre.ttf
757.336	n/a	WORD	378668	wordpools/wasnorm_wordpool_less_exclusions.txt	LTP267	ltpFR	19	4	1	BEAST	108	n/a	n/a	1	0.422607421875	0.5869140625	0	upper	amplitud.ttf
761.552	n/a	WORD	380776	wordpools/wasnorm_wordpool_less_exclusions.txt	LTP267	ltpFR	19	4	1	FARM	552	n/a	n/a	0	0.422607421875	0.5869140625	0	upper	amplitud.ttf
765.55	n/a	WORD	382775	wordpools/wasnorm_wordpool_less_exclusions.txt	LTP267	ltpFR	19	4	1	OUTLAW	989	n/a	n/a	1	0.422607421875	0.5869140625	0	upper	amplitud.ttf
769.45	n/a	WORD	384725	wordpools/wasnorm_wordpool_less_exclusions.txt	LTP267	ltpFR	19	4	1	TIE	1466	n/a	n/a	1	0.422607421875	0.5869140625	0	upper	amplitud.ttf
773.532	n/a	WORD	386766	wordpools/wasnorm_wordpool_less_exclusions.txt	LTP267	ltpFR	19	4	0	JACKET	747	n/a	n/a	0	0.57763671875	0.412841796875	1	lower	zerothre.ttf
777.68	n/a	WORD	388840	wordpools/wasnorm_wordpool_less_exclusions.txt	LTP267	ltpFR	19	4	0	EXPLOSION	544	n/a	n/a	1	0.57763671875	0.412841796875	1	lower	zerothre.ttf
781.862	n/a	WORD	390931	wordpools/wasnorm_wordpool_less_exclusions.txt	LTP267	ltpFR	19	4	0	SNACK	1331	n/a	n/a	0	0.57763671875	0.412841796875	1	lower	zerothre.ttf
785.744	n/a	WORD	392872	wordpools/wasnorm_wordpool_less_exclusions.txt	LTP267	ltpFR	19	4	0	RECIPE	1175	n/a	n/a	0	0.57763671875	0.412841796875	1	lower	zerothre.ttf
791.584	n/a	REC_START	395792	n/a	LTP267	ltpFR	19	4	n/a	n/a	n/a	n/a	n/a	n/a	n/a	n/a	n/a	n/a	n/a
792.05	n/a	REC_WORD	396025	wordpools/wasnorm_wordpool_less_exclusions.txt	LTP267	ltpFR	19	4	0	EXPLOSION	544	n/a	n/a	1	n/a	n/a	n/a	n/a	n/a
793.242	n/a	REC_WORD	396621	wordpools/wasnorm_wordpool_less_exclusions.txt	LTP267	ltpFR	19	4	0	RECIPE	1175	n/a	n/a	0	n/a	n/a	n/a	n/a	n/a
794.232	n/a	REC_WORD	397116	wordpools/wasnorm_wordpool_less_exclusions.txt	LTP267	ltpFR	19	4	1	OUTLAW	989	n/a	n/a	1	n/a	n/a	n/a	n/a	n/a
795.338	n/a	REC_WORD	397669	wordpools/wasnorm_wordpool_less_exclusions.txt	LTP267	ltpFR	19	4	1	FARM	552	n/a	n/a	0	n/a	n/a	n/a	n/a	n/a
796.818	n/a	REC_WORD	398409	wordpools/wasnorm_wordpool_less_exclusions.txt	LTP267	ltpFR	19	4	1	BEGGAR	117	n/a	n/a	1	n/a	n/a	n/a	n/a	n/a
799.47	n/a	REC_WORD	399735	wordpools/wasnorm_wordpool_less_exclusions.txt	LTP267	ltpFR	19	4	0	CAKE	219	n/a	n/a	0	n/a	n/a	n/a	n/a	n/a
800.392	n/a	REC_WORD	400196	wordpools/wasnorm_wordpool_less_exclusions.txt	LTP267	ltpFR	19	4	0	BUTTER	205	n/a	n/a	0	n/a	n/a	n/a	n/a	n/a
805.888	n/a	REC_WORD	402944	wordpools/wasnorm_wordpool_less_exclusions.txt	LTP267	ltpFR	19	4	0	EXPLOSION	544	n/a	n/a	1	n/a	n/a	n/a	n/a	n/a
814.514	n/a	REC_WORD	407257	wordpools/wasnorm_wordpool_less_exclusions.txt	LTP267	ltpFR	19	4	0	RECIPE	1175	n/a	n/a	0	n/a	n/a	n/a	n/a	n/a
869.532	n/a	WORD	434766	wordpools/wasnorm_wordpool_less_exclusions.txt	LTP267	ltpFR	19	5	1	PORTRAIT	1111	n/a	n/a	1	0.422607421875	0.5869140625	0	upper	amplitud.ttf
873.53	n/a	WORD	436765	wordpools/wasnorm_wordpool_less_exclusions.txt	LTP267	ltpFR	19	5	1	ALBUM	14	n/a	n/a	1	0.422607421875	0.5869140625	0	upper	amplitud.ttf
877.512	n/a	WORD	438756	wordpools/wasnorm_wordpool_less_exclusions.txt	LTP267	ltpFR	19	5	1	CUFF	423	n/a	n/a	0	0.422607421875	0.5869140625	0	upper	amplitud.ttf
881.594	n/a	WORD	440797	wordpools/wasnorm_wordpool_less_exclusions.txt	LTP267	ltpFR	19	5	1	TACK	1428	n/a	n/a	0	0.422607421875	0.5869140625	0	upper	amplitud.ttf
885.46	n/a	WORD	442730	wordpools/wasnorm_wordpool_less_exclusions.txt	LTP267	ltpFR	19	5	1	SCULPTURE	1258	n/a	n/a	0	0.422607421875	0.5869140625	0	upper	amplitud.ttf
889.408	n/a	WORD	444704	wordpools/wasnorm_wordpool_less_exclusions.txt	LTP267	ltpFR	19	5	1	HORSE	719	n/a	n/a	1	0.422607421875	0.5869140625	0	upper	amplitud.ttf
893.306	n/a	WORD	446653	wordpools/wasnorm_wordpool_less_exclusions.txt	LTP267	ltpFR	19	5	1	HEEL	700	n/a	n/a	0	0.422607421875	0.5869140625	0	upper	amplitud.ttf
897.304	n/a	WORD	448652	wordpools/wasnorm_wordpool_less_exclusions.txt	LTP267	ltpFR	19	5	1	TWIG	1527	n/a	n/a	0	0.422607421875	0.5869140625	0	upper	amplitud.ttf
901.186	n/a	WORD	450593	wordpools/wasnorm_wordpool_less_exclusions.txt	LTP267	ltpFR	19	5	1	NOSE	957	n/a	n/a	0	0.422607421875	0.5869140625	0	upper	amplitud.ttf
905.252	n/a	WORD	452626	wordpools/wasnorm_wordpool_less_exclusions.txt	LTP267	ltpFR	19	5	1	FOREHEAD	592	n/a	n/a	1	0.422607421875	0.5869140625	0	upper	amplitud.ttf
909.4	n/a	WORD	454700	wordpools/wasnorm_wordpool_less_exclusions.txt	LTP267	ltpFR	19	5	1	COLT	349	n/a	n/a	0	0.422607421875	0.5869140625	0	upper	amplitud.ttf
913.616	n/a	WORD	456808	wordpools/wasnorm_wordpool_less_exclusions.txt	LTP267	ltpFR	19	5	1	ORNAMENT	985	n/a	n/a	0	0.422607421875	0.5869140625	0	upper	amplitud.ttf
917.582	n/a	WORD	458791	wordpools/wasnorm_wordpool_less_exclusions.txt	LTP267	ltpFR	19	5	1	GROOM	665	n/a	n/a	1	0.422607421875	0.5869140625	0	upper	amplitud.ttf
921.714	n/a	WORD	460857	wordpools/wasnorm_wordpool_less_exclusions.txt	LTP267	ltpFR	19	5	1	ARCHITECT	36	n/a	n/a	0	0.422607421875	0.5869140625	0	upper	amplitud.ttf
925.696	n/a	WORD	462848	wordpools/wasnorm_wordpool_less_exclusions.txt	LTP267	ltpFR	19	5	1	PUMPKIN	1142	n/a	n/a	0	0.422607421875	0.5869140625	0	upper	amplitud.ttf
929.61	n/a	WORD	464805	wordpools/wasnorm_wordpool_less_exclusions.txt	LTP267	ltpFR	19	5	1	AGENT	10	n/a	n/a	0	0.422607421875	0.5869140625	0	upper	amplitud.ttf
935.6	n/a	REC_START	467800	n/a	LTP267	ltpFR	19	5	n/a	n/a	n/a	n/a	n/a	n/a	n/a	n/a	n/a	n/a	n/a
936.244	n/a	REC_WORD	468122	wordpools/wasnorm_wordpool_less_exclusions.txt	LTP267	ltpFR	19	5	1	AGENT	10	n/a	n/a	0	n/a	n/a	n/a	n/a	n/a
937.182	n/a	REC_WORD	468591	wordpools/wasnorm_wordpool_less_exclusions.txt	LTP267	ltpFR	19	5	1	COLT	349	n/a	n/a	0	n/a	n/a	n/a	n/a	n/a
938.106	n/a	REC_WORD	469053	wordpools/wasnorm_wordpool_less_exclusions.txt	LTP267	ltpFR	19	5	1	PUMPKIN	1142	n/a	n/a	0	n/a	n/a	n/a	n/a	n/a
941.318	n/a	REC_WORD	470659	wordpools/wasnorm_wordpool_less_exclusions.txt	LTP267	ltpFR	19	5	1	ARCHITECT	36	n/a	n/a	0	n/a	n/a	n/a	n/a	n/a
944.256	n/a	REC_WORD	472128	wordpools/wasnorm_wordpool_less_exclusions.txt	LTP267	ltpFR	19	5	1	HORSE	719	n/a	n/a	1	n/a	n/a	n/a	n/a	n/a
1015.054	n/a	WORD	507527	wordpools/wasnorm_wordpool_less_exclusions.txt	LTP267	ltpFR	19	6	-1	BOUQUET	157	n/a	n/a	-1	1.0	1.0	1	upper	Verdana.ttf
1019.036	n/a	WORD	509518	wordpools/wasnorm_wordpool_less_exclusions.txt	LTP267	ltpFR	19	6	-1	ABDOMEN	1	n/a	n/a	-1	1.0	1.0	1	upper	Verdana.ttf
1023.184	n/a	WORD	511592	wordpools/wasnorm_wordpool_less_exclusions.txt	LTP267	ltpFR	19	6	-1	TUNNEL	1519	n/a	n/a	-1	1.0	1.0	1	upper	Verdana.ttf
1027.118	n/a	WORD	513559	wordpools/wasnorm_wordpool_less_exclusions.txt	LTP267	ltpFR	19	6	-1	HARP	689	n/a	n/a	-1	1.0	1.0	1	upper	Verdana.ttf
1031.15	n/a	WORD	515575	wordpools/wasnorm_wordpool_less_exclusions.txt	LTP267	ltpFR	19	6	-1	CHARCOAL	281	n/a	n/a	-1	1.0	1.0	1	upper	Verdana.ttf
1035.014	n/a	WORD	517507	wordpools/wasnorm_wordpool_less_exclusions.txt	LTP267	ltpFR	19	6	-1	OVEN	991	n/a	n/a	-1	1.0	1.0	1	upper	Verdana.ttf
1038.846	n/a	WORD	519423	wordpools/wasnorm_wordpool_less_exclusions.txt	LTP267	ltpFR	19	6	-1	QUARTER	1148	n/a	n/a	-1	1.0	1.0	1	upper	Verdana.ttf
1042.928	n/a	WORD	521464	wordpools/wasnorm_wordpool_less_exclusions.txt	LTP267	ltpFR	19	6	-1	BANKER	84	n/a	n/a	-1	1.0	1.0	1	upper	Verdana.ttf
1047.128	n/a	WORD	523564	wordpools/wasnorm_wordpool_less_exclusions.txt	LTP267	ltpFR	19	6	-1	GREASE	660	n/a	n/a	-1	1.0	1.0	1	upper	Verdana.ttf
1051.276	n/a	WORD	525638	wordpools/wasnorm_wordpool_less_exclusions.txt	LTP267	ltpFR	19	6	-1	BATTERY	101	n/a	n/a	-1	1.0	1.0	1	upper	Verdana.ttf
1055.258	n/a	WORD	527629	wordpools/wasnorm_wordpool_less_exclusions.txt	LTP267	ltpFR	19	6	-1	TURTLE	1522	n/a	n/a	-1	1.0	1.0	1	upper	Verdana.ttf
1059.09	n/a	WORD	529545	wordpools/wasnorm_wordpool_less_exclusions.txt	LTP267	ltpFR	19	6	-1	SLEEVE	1324	n/a	n/a	-1	1.0	1.0	1	upper	Verdana.ttf
1063.122	n/a	WORD	531561	wordpools/wasnorm_wordpool_less_exclusions.txt	LTP267	ltpFR	19	6	-1	CAVE	263	n/a	n/a	-1	1.0	1.0	1	upper	Verdana.ttf
1067.052	n/a	WORD	533526	wordpools/wasnorm_wordpool_less_exclusions.txt	LTP267	ltpFR	19	6	-1	ORCHID	982	n/a	n/a	-1	1.0	1.0	1	upper	Verdana.ttf
1071.102	n/a	WORD	535551	wordpools/wasnorm_wordpool_less_exclusions.txt	LTP267	ltpFR	19	6	-1	PEPPER	1047	n/a	n/a	-1	1.0	1.0	1	upper	Verdana.ttf
1075.016	n/a	WORD	537508	wordpools/wasnorm_wordpool_less_exclusions.txt	LTP267	ltpFR	19	6	-1	RECORD	1176	n/a	n/a	-1	1.0	1.0	1	upper	Verdana.ttf
1080.856	n/a	REC_START	540428	n/a	LTP267	ltpFR	19	6	n/a	n/a	n/a	n/a	n/a	n/a	n/a	n/a	n/a	n/a	n/a
1081.346	n/a	REC_WORD	540673	wordpools/wasnorm_wordpool_less_exclusions.txt	LTP267	ltpFR	19	6	-1	TURTLE	1522	n/a	n/a	-1	n/a	n/a	n/a	n/a	n/a
1082.178	n/a	REC_WORD	541089	wordpools/wasnorm_wordpool_less_exclusions.txt	LTP267	ltpFR	19	6	-1	SLEEVE	1324	n/a	n/a	-1	n/a	n/a	n/a	n/a	n/a
1083.396	n/a	REC_WORD	541698	wordpools/wasnorm_wordpool_less_exclusions.txt	LTP267	ltpFR	19	6	-1	CAVE	263	n/a	n/a	-1	n/a	n/a	n/a	n/a	n/a
1084.316	n/a	REC_WORD	542158	wordpools/wasnorm_wordpool_less_exclusions.txt	LTP267	ltpFR	19	6	-1	ORCHID	982	n/a	n/a	-1	n/a	n/a	n/a	n/a	n/a
1087.938	n/a	REC_WORD	543969	wordpools/wasnorm_wordpool_less_exclusions.txt	LTP267	ltpFR	19	6	-1	BOUQUET	157	n/a	n/a	-1	n/a	n/a	n/a	n/a	n/a
1089.084	n/a	REC_WORD	544542	wordpools/wasnorm_wordpool_less_exclusions.txt	LTP267	ltpFR	19	6	-1	TUNNEL	1519	n/a	n/a	-1	n/a	n/a	n/a	n/a	n/a
1090.616	n/a	REC_WORD	545308	wordpools/wasnorm_wordpool_less_exclusions.txt	LTP267	ltpFR	19	6	-1	ABDOMEN	1	n/a	n/a	-1	n/a	n/a	n/a	n/a	n/a
1159.406	n/a	WORD	579703	wordpools/wasnorm_wordpool_less_exclusions.txt	LTP267	ltpFR	19	7	0	CONTAINER	366	n/a	n/a	0	0.57763671875	0.412841796875	1	lower	zerothre.ttf
1163.454	n/a	WORD	581727	wordpools/wasnorm_wordpool_less_exclusions.txt	LTP267	ltpFR	19	7	0	CERAMICS	271	n/a	n/a	0	0.57763671875	0.412841796875	1	lower	zerothre.ttf
1167.62	n/a	WORD	583810	wordpools/wasnorm_wordpool_less_exclusions.txt	LTP267	ltpFR	19	7	0	TELEPHONE	1445	n/a	n/a	0	0.57763671875	0.412841796875	1	lower	zerothre.ttf
1171.686	n/a	WORD	585843	wordpools/wasnorm_wordpool_less_exclusions.txt	LTP267	ltpFR	19	7	0	RECEPTIONIST	1174	n/a	n/a	1	0.57763671875	0.412841796875	1	lower	zerothre.ttf
1175.518	n/a	WORD	587759	wordpools/wasnorm_wordpool_less_exclusions.txt	LTP267	ltpFR	19	7	0	RACCOON	1153	n/a	n/a	1	0.57763671875	0.412841796875	1	lower	zerothre.ttf
1179.614	n/a	WORD	589807	wordpools/wasnorm_wordpool_less_exclusions.txt	LTP267	ltpFR	19	7	1	TERRITORY	1452	n/a	n/a	0	0.422607421875	0.5869140625	0	upper	amplitud.ttf
1183.564	n/a	WORD	591782	wordpools/wasnorm_wordpool_less_exclusions.txt	LTP267	ltpFR	19	7	1	UNICORN	1538	n/a	n/a	1	0.422607421875	0.5869140625	0	upper	amplitud.ttf
1187.664	n/a	WORD	593832	wordpools/wasnorm_wordpool_less_exclusions.txt	LTP267	ltpFR	19	7	1	POT	1114	n/a	n/a	1	0.422607421875	0.5869140625	0	upper	amplitud.ttf
1191.746	n/a	WORD	595873	wordpools/wasnorm_wordpool_less_exclusions.txt	LTP267	ltpFR	19	7	1	COP	376	n/a	n/a	1	0.422607421875	0.5869140625	0	upper	amplitud.ttf
1195.61	n/a	WORD	597805	wordpools/wasnorm_wordpool_less_exclusions.txt	LTP267	ltpFR	19	7	0	KIDNEY	776	n/a	n/a	0	0.57763671875	0.412841796875	1	lower	zerothre.ttf
1199.794	n/a	WORD	599897	wordpools/wasnorm_wordpool_less_exclusions.txt	LTP267	ltpFR	19	7	0	SAUCER	1237	n/a	n/a	0	0.57763671875	0.412841796875	1	lower	zerothre.ttf
1203.992	n/a	WORD	601996	wordpools/wasnorm_wordpool_less_exclusions.txt	LTP267	ltpFR	19	7	0	PANTHER	1009	n/a	n/a	1	0.57763671875	0.412841796875	1	lower	zerothre.ttf
1208.194	n/a	WORD	604097	wordpools/wasnorm_wordpool_less_exclusions.txt	LTP267	ltpFR	19	7	1	CAT	257	n/a	n/a	1	0.422607421875	0.5869140625	0	upper	amplitud.ttf
1212.176	n/a	WORD	606088	wordpools/wasnorm_wordpool_less_exclusions.txt	LTP267	ltpFR	19	7	1	BUTTON	207	n/a	n/a	0	0.422607421875	0.5869140625	0	upper	amplitud.ttf
1216.39	n/a	WORD	608195	wordpools/wasnorm_wordpool_less_exclusions.txt	LTP267	ltpFR	19	7	1	SLACKS	1323	n/a	n/a	0	0.422607421875	0.5869140625	0	upper	amplitud.ttf
1220.556	n/a	WORD	610278	wordpools/wasnorm_wordpool_less_exclusions.txt	LTP267	ltpFR	19	7	1	ARTERY	41	n/a	n/a	1	0.422607421875	0.5869140625	0	upper	amplitud.ttf
1226.464	n/a	REC_START	613232	n/a	LTP267	ltpFR	19	7	n/a	n/a	n/a	n/a	n/a	n/a	n/a	n/a	n/a	n/a	n/a
1227.042	n/a	REC_WORD	613521	wordpools/wasnorm_wordpool_less_exclusions.txt	LTP267	ltpFR	19	7	1	BUTTON	207	n/a	n/a	0	n/a	n/a	n/a	n/a	n/a
1227.782	n/a	REC_WORD	613891	wordpools/wasnorm_wordpool_less_exclusions.txt	LTP267	ltpFR	19	7	1	SLACKS	1323	n/a	n/a	0	n/a	n/a	n/a	n/a	n/a
1229.058	n/a	REC_WORD	614529	wordpools/wasnorm_wordpool_less_exclusions.txt	LTP267	ltpFR	19	7	1	ARTERY	41	n/a	n/a	1	n/a	n/a	n/a	n/a	n/a
1231.29	n/a	REC_WORD	615645	wordpools/wasnorm_wordpool_less_exclusions.txt	LTP267	ltpFR	19	7	0	CONTAINER	366	n/a	n/a	0	n/a	n/a	n/a	n/a	n/a
1235.99	n/a	REC_WORD	617995	wordpools/wasnorm_wordpool_less_exclusions.txt	LTP267	ltpFR	19	7	0	KIDNEY	776	n/a	n/a	0	n/a	n/a	n/a	n/a	n/a
1237.16	n/a	REC_WORD	618580	wordpools/wasnorm_wordpool_less_exclusions.txt	LTP267	ltpFR	19	7	1	TERRITORY	1452	n/a	n/a	0	n/a	n/a	n/a	n/a	n/a
1245.804	n/a	REC_WORD	622902	wordpools/wasnorm_wordpool_less_exclusions.txt	LTP267	ltpFR	19	7	1	UNICORN	1538	n/a	n/a	1	n/a	n/a	n/a	n/a	n/a
1248.036	n/a	REC_WORD	624018	wordpools/wasnorm_wordpool_less_exclusions.txt	LTP267	ltpFR	19	7	1	COP	376	n/a	n/a	1	n/a	n/a	n/a	n/a	n/a
1249.09	n/a	REC_WORD	624545	wordpools/wasnorm_wordpool_less_exclusions.txt	LTP267	ltpFR	19	7	0	RACCOON	1153	n/a	n/a	1	n/a	n/a	n/a	n/a	n/a
1250.21	n/a	REC_WORD	625105	wordpools/wasnorm_wordpool_less_exclusions.txt	LTP267	ltpFR	19	7	1	POT	1114	n/a	n/a	1	n/a	n/a	n/a	n/a	n/a
1305.514	n/a	WORD	652757	wordpools/wasnorm_wordpool_less_exclusions.txt	LTP267	ltpFR	19	8	1	SERVANT	1271	n/a	n/a	1	0.422607421875	0.5869140625	0	upper	amplitud.ttf
1309.614	n/a	WORD	654807	wordpools/wasnorm_wordpool_less_exclusions.txt	LTP267	ltpFR	19	8	1	LOG	841	n/a	n/a	0	0.422607421875	0.5869140625	0	upper	amplitud.ttf
1313.746	n/a	WORD	656873	wordpools/wasnorm_wordpool_less_exclusions.txt	LTP267	ltpFR	19	8	1	SUGAR	1401	n/a	n/a	0	0.422607421875	0.5869140625	0	upper	amplitud.ttf
1317.644	n/a	WORD	658822	wordpools/wasnorm_wordpool_less_exclusions.txt	LTP267	ltpFR	19	8	1	STUMP	1396	n/a	n/a	0	0.422607421875	0.5869140625	0	upper	amplitud.ttf
1321.676	n/a	WORD	660838	wordpools/wasnorm_wordpool_less_exclusions.txt	LTP267	ltpFR	19	8	1	TENT	1449	n/a	n/a	0	0.422607421875	0.5869140625	0	upper	amplitud.ttf
1325.742	n/a	WORD	662871	wordpools/wasnorm_wordpool_less_exclusions.txt	LTP267	ltpFR	19	8	1	POLE	1097	n/a	n/a	0	0.422607421875	0.5869140625	0	upper	amplitud.ttf
1329.806	n/a	WORD	664903	wordpools/wasnorm_wordpool_less_exclusions.txt	LTP267	ltpFR	19	8	1	SLIDE	1326	n/a	n/a	0	0.422607421875	0.5869140625	0	upper	amplitud.ttf
1333.772	n/a	WORD	666886	wordpools/wasnorm_wordpool_less_exclusions.txt	LTP267	ltpFR	19	8	1	QUAIL	1147	n/a	n/a	1	0.422607421875	0.5869140625	0	upper	amplitud.ttf
1337.638	n/a	WORD	668819	wordpools/wasnorm_wordpool_less_exclusions.txt	LTP267	ltpFR	19	8	1	HAWK	692	n/a	n/a	1	0.422607421875	0.5869140625	0	upper	amplitud.ttf
1341.67	n/a	WORD	670835	wordpools/wasnorm_wordpool_less_exclusions.txt	LTP267	ltpFR	19	8	1	BUSH	202	n/a	n/a	0	0.422607421875	0.5869140625	0	upper	amplitud.ttf
1345.55	n/a	WORD	672775	wordpools/wasnorm_wordpool_less_exclusions.txt	LTP267	ltpFR	19	8	1	GUEST	669	n/a	n/a	1	0.422607421875	0.5869140625	0	upper	amplitud.ttf
1349.548	n/a	WORD	674774	wordpools/wasnorm_wordpool_less_exclusions.txt	LTP267	ltpFR	19	8	1	LIMB	822	n/a	n/a	0	0.422607421875	0.5869140625	0	upper	amplitud.ttf
1353.682	n/a	WORD	676841	wordpools/wasnorm_wordpool_less_exclusions.txt	LTP267	ltpFR	19	8	1	JOINT	758	n/a	n/a	0	0.422607421875	0.5869140625	0	upper	amplitud.ttf
1357.832	n/a	WORD	678916	wordpools/wasnorm_wordpool_less_exclusions.txt	LTP267	ltpFR	19	8	1	SIREN	1310	n/a	n/a	0	0.422607421875	0.5869140625	0	upper	amplitud.ttf
1361.98	n/a	WORD	680990	wordpools/wasnorm_wordpool_less_exclusions.txt	LTP267	ltpFR	19	8	1	PIE	1062	n/a	n/a	1	0.422607421875	0.5869140625	0	upper	amplitud.ttf
1366.114	n/a	WORD	683057	wordpools/wasnorm_wordpool_less_exclusions.txt	LTP267	ltpFR	19	8	1	CONE	363	n/a	n/a	0	0.422607421875	0.5869140625	0	upper	amplitud.ttf
1371.986	n/a	REC_START	685993	n/a	LTP267	ltpFR	19	8	n/a	n/a	n/a	n/a	n/a	n/a	n/a	n/a	n/a	n/a	n/a
1372.534	n/a	REC_WORD	686267	wordpools/wasnorm_wordpool_less_exclusions.txt	LTP267	ltpFR	19	8	1	GUEST	669	n/a	n/a	1	n/a	n/a	n/a	n/a	n/a
1373.464	n/a	REC_WORD	686732	wordpools/wasnorm_wordpool_less_exclusions.txt	LTP267	ltpFR	19	8	1	LIMB	822	n/a	n/a	0	n/a	n/a	n/a	n/a	n/a
1374.658	n/a	REC_WORD	687329	wordpools/wasnorm_wordpool_less_exclusions.txt	LTP267	ltpFR	19	8	1	BUSH	202	n/a	n/a	0	n/a	n/a	n/a	n/a	n/a
1375.804	n/a	REC_WORD	687902	wordpools/wasnorm_wordpool_less_exclusions.txt	LTP267	ltpFR	19	8	1	JOINT	758	n/a	n/a	0	n/a	n/a	n/a	n/a	n/a
1376.952	n/a	REC_WORD	688476	wordpools/wasnorm_wordpool_less_exclusions.txt	LTP267	ltpFR	19	8	1	PIE	1062	n/a	n/a	1	n/a	n/a	n/a	n/a	n/a
1378.314	n/a	REC_WORD	689157	wordpools/wasnorm_wordpool_less_exclusions.txt	LTP267	ltpFR	19	8	1	CONE	363	n/a	n/a	0	n/a	n/a	n/a	n/a	n/a
1419.182	n/a	REC_WORD	709591	wordpools/wasnorm_wordpool_less_exclusions.txt	LTP267	ltpFR	19	8	n/a	SEAWEED	-1	n/a	n/a	n/a	n/a	n/a	n/a	n/a	n/a
1447.638	n/a	REST_REWET	723819	n/a	LTP267	ltpFR	19	8	n/a	n/a	n/a	n/a	n/a	n/a	n/a	n/a	n/a	n/a	n/a
1895.186	n/a	WORD	947593	wordpools/wasnorm_wordpool_less_exclusions.txt	LTP267	ltpFR	19	9	0	SPIT	1354	n/a	n/a	0	0.57763671875	0.412841796875	1	lower	zerothre.ttf
1899.216	n/a	WORD	949608	wordpools/wasnorm_wordpool_less_exclusions.txt	LTP267	ltpFR	19	9	0	ATTIC	56	n/a	n/a	1	0.57763671875	0.412841796875	1	lower	zerothre.ttf
1903.348	n/a	WORD	951674	wordpools/wasnorm_wordpool_less_exclusions.txt	LTP267	ltpFR	19	9	0	CONSUMER	365	n/a	n/a	1	0.57763671875	0.412841796875	1	lower	zerothre.ttf
1907.414	n/a	WORD	953707	wordpools/wasnorm_wordpool_less_exclusions.txt	LTP267	ltpFR	19	9	0	FACE	547	n/a	n/a	1	0.57763671875	0.412841796875	1	lower	zerothre.ttf
1911.598	n/a	WORD	955799	wordpools/wasnorm_wordpool_less_exclusions.txt	LTP267	ltpFR	19	9	0	GARBAGE	622	n/a	n/a	1	0.57763671875	0.412841796875	1	lower	zerothre.ttf
1915.462	n/a	WORD	957731	wordpools/wasnorm_wordpool_less_exclusions.txt	LTP267	ltpFR	19	9	0	PEOPLE	1046	n/a	n/a	1	0.57763671875	0.412841796875	1	lower	zerothre.ttf
1919.342	n/a	WORD	959671	wordpools/wasnorm_wordpool_less_exclusions.txt	LTP267	ltpFR	19	9	0	PLUM	1090	n/a	n/a	0	0.57763671875	0.412841796875	1	lower	zerothre.ttf
1923.358	n/a	WORD	961679	wordpools/wasnorm_wordpool_less_exclusions.txt	LTP267	ltpFR	19	9	0	WALNUT	1584	n/a	n/a	0	0.57763671875	0.412841796875	1	lower	zerothre.ttf
1927.324	n/a	WORD	963662	wordpools/wasnorm_wordpool_less_exclusions.txt	LTP267	ltpFR	19	9	0	SKI	1316	n/a	n/a	0	0.57763671875	0.412841796875	1	lower	zerothre.ttf
1931.504	n/a	WORD	965752	wordpools/wasnorm_wordpool_less_exclusions.txt	LTP267	ltpFR	19	9	0	BONE	148	n/a	n/a	0	0.57763671875	0.412841796875	1	lower	zerothre.ttf
1935.656	n/a	WORD	967828	wordpools/wasnorm_wordpool_less_exclusions.txt	LTP267	ltpFR	19	9	0	WOLF	1619	n/a	n/a	1	0.57763671875	0.412841796875	1	lower	zerothre.ttf
1939.738	n/a	WORD	969869	wordpools/wasnorm_wordpool_less_exclusions.txt	LTP267	ltpFR	19	9	0	HIKER	708	n/a	n/a	1	0.57763671875	0.412841796875	1	lower	zerothre.ttf
1943.888	n/a	WORD	971944	wordpools/wasnorm_wordpool_less_exclusions.txt	LTP267	ltpFR	19	9	0	TORCH	1484	n/a	n/a	0	0.57763671875	0.412841796875	1	lower	zerothre.ttf
1948.036	n/a	WORD	974018	wordpools/wasnorm_wordpool_less_exclusions.txt	LTP267	ltpFR	19	9	0	SALESMAN	1225	n/a	n/a	1	0.57763671875	0.412841796875	1	lower	zerothre.ttf
1952.018	n/a	WORD	976009	wordpools/wasnorm_wordpool_less_exclusions.txt	LTP267	ltpFR	19	9	0	FROST	609	n/a	n/a	0	0.57763671875	0.412841796875	1	lower	zerothre.ttf
1956.05	n/a	WORD	978025	wordpools/wasnorm_wordpool_less_exclusions.txt	LTP267	ltpFR	19	9	0	IGLOO	734	n/a	n/a	1	0.57763671875	0.412841796875	1	lower	zerothre.ttf
1962.006	n/a	REC_START	981003	n/a	LTP267	ltpFR	19	9	n/a	n/a	n/a	n/a	n/a	n/a	n/a	n/a	n/a	n/a	n/a
1962.584	n/a	REC_WORD	981292	wordpools/wasnorm_wordpool_less_exclusions.txt	LTP267	ltpFR	19	9	0	FROST	609	n/a	n/a	0	n/a	n/a	n/a	n/a	n/a
1963.764	n/a	REC_WORD	981882	wordpools/wasnorm_wordpool_less_exclusions.txt	LTP267	ltpFR	19	9	0	IGLOO	734	n/a	n/a	1	n/a	n/a	n/a	n/a	n/a
1965.062	n/a	REC_WORD	982531	wordpools/wasnorm_wordpool_less_exclusions.txt	LTP267	ltpFR	19	9	n/a	SNOWMAN	-1	n/a	n/a	n/a	n/a	n/a	n/a	n/a	n/a
1966.85	n/a	REC_WORD	983425	wordpools/wasnorm_wordpool_less_exclusions.txt	LTP267	ltpFR	19	9	0	GARBAGE	622	n/a	n/a	1	n/a	n/a	n/a	n/a	n/a
1972.444	n/a	REC_WORD	986222	wordpools/wasnorm_wordpool_less_exclusions.txt	LTP267	ltpFR	19	9	0	SKI	1316	n/a	n/a	0	n/a	n/a	n/a	n/a	n/a
1988.122	n/a	REC_WORD	994061	wordpools/wasnorm_wordpool_less_exclusions.txt	LTP267	ltpFR	19	9	0	WALNUT	1584	n/a	n/a	0	n/a	n/a	n/a	n/a	n/a
2039.972	n/a	WORD	1019986	wordpools/wasnorm_wordpool_less_exclusions.txt	LTP267	ltpFR	19	10	-1	DRAWER	493	n/a	n/a	-1	1.0	1.0	1	upper	Verdana.ttf
2044.02	n/a	WORD	1022010	wordpools/wasnorm_wordpool_less_exclusions.txt	LTP267	ltpFR	19	10	-1	APRON	35	n/a	n/a	-1	1.0	1.0	1	upper	Verdana.ttf
2048.22	n/a	WORD	1024110	wordpools/wasnorm_wordpool_less_exclusions.txt	LTP267	ltpFR	19	10	-1	COMB	351	n/a	n/a	-1	1.0	1.0	1	upper	Verdana.ttf
2052.218	n/a	WORD	1026109	wordpools/wasnorm_wordpool_less_exclusions.txt	LTP267	ltpFR	19	10	-1	WHISKERS	1605	n/a	n/a	-1	1.0	1.0	1	upper	Verdana.ttf
2056.25	n/a	WORD	1028125	wordpools/wasnorm_wordpool_less_exclusions.txt	LTP267	ltpFR	19	10	-1	CONSOLE	364	n/a	n/a	-1	1.0	1.0	1	upper	Verdana.ttf
2060.314	n/a	WORD	1030157	wordpools/wasnorm_wordpool_less_exclusions.txt	LTP267	ltpFR	19	10	-1	ROOST	1208	n/a	n/a	-1	1.0	1.0	1	upper	Verdana.ttf
2064.43	n/a	WORD	1032215	wordpools/wasnorm_wordpool_less_exclusions.txt	LTP267	ltpFR	19	10	-1	ROOSTER	1209	n/a	n/a	-1	1.0	1.0	1	upper	Verdana.ttf
2068.48	n/a	WORD	1034240	wordpools/wasnorm_wordpool_less_exclusions.txt	LTP267	ltpFR	19	10	-1	JEEP	753	n/a	n/a	-1	1.0	1.0	1	upper	Verdana.ttf
2072.61	n/a	WORD	1036305	wordpools/wasnorm_wordpool_less_exclusions.txt	LTP267	ltpFR	19	10	-1	TWEEZERS	1526	n/a	n/a	-1	1.0	1.0	1	upper	Verdana.ttf
2076.51	n/a	WORD	1038255	wordpools/wasnorm_wordpool_less_exclusions.txt	LTP267	ltpFR	19	10	-1	RADIATOR	1156	n/a	n/a	-1	1.0	1.0	1	upper	Verdana.ttf
2080.726	n/a	WORD	1040363	wordpools/wasnorm_wordpool_less_exclusions.txt	LTP267	ltpFR	19	10	-1	TURKEY	1520	n/a	n/a	-1	1.0	1.0	1	upper	Verdana.ttf
2084.59	n/a	WORD	1042295	wordpools/wasnorm_wordpool_less_exclusions.txt	LTP267	ltpFR	19	10	-1	DASHBOARD	441	n/a	n/a	-1	1.0	1.0	1	upper	Verdana.ttf
2088.706	n/a	WORD	1044353	wordpools/wasnorm_wordpool_less_exclusions.txt	LTP267	ltpFR	19	10	-1	SURVEY	1414	n/a	n/a	-1	1.0	1.0	1	upper	Verdana.ttf
2092.756	n/a	WORD	1046378	wordpools/wasnorm_wordpool_less_exclusions.txt	LTP267	ltpFR	19	10	-1	PENGUIN	1044	n/a	n/a	-1	1.0	1.0	1	upper	Verdana.ttf
2096.638	n/a	WORD	1048319	wordpools/wasnorm_wordpool_less_exclusions.txt	LTP267	ltpFR	19	10	-1	BRANDY	169	n/a	n/a	-1	1.0	1.0	1	upper	Verdana.ttf
2100.518	n/a	WORD	1050259	wordpools/wasnorm_wordpool_less_exclusions.txt	LTP267	ltpFR	19	10	-1	ATHLETE	52	n/a	n/a	-1	1.0	1.0	1	upper	Verdana.ttf
2106.308	n/a	REC_START	1053154	n/a	LTP267	ltpFR	19	10	n/a	n/a	n/a	n/a	n/a	n/a	n/a	n/a	n/a	n/a	n/a
2107.064	n/a	REC_WORD	1053532	wordpools/wasnorm_wordpool_less_exclusions.txt	LTP267	ltpFR	19	10	-1	DASHBOARD	441	n/a	n/a	-1	n/a	n/a	n/a	n/a	n/a
2108.014	n/a	REC_WORD	1054007	wordpools/wasnorm_wordpool_less_exclusions.txt	LTP267	ltpFR	19	10	-1	SURVEY	1414	n/a	n/a	-1	n/a	n/a	n/a	n/a	n/a
2109.222	n/a	REC_WORD	1054611	wordpools/wasnorm_wordpool_less_exclusions.txt	LTP267	ltpFR	19	10	-1	PENGUIN	1044	n/a	n/a	-1	n/a	n/a	n/a	n/a	n/a
2110.512	n/a	REC_WORD	1055256	wordpools/wasnorm_wordpool_less_exclusions.txt	LTP267	ltpFR	19	10	-1	ATHLETE	52	n/a	n/a	-1	n/a	n/a	n/a	n/a	n/a
2113.966	n/a	REC_WORD	1056983	wordpools/wasnorm_wordpool_less_exclusions.txt	LTP267	ltpFR	19	10	-1	APRON	35	n/a	n/a	-1	n/a	n/a	n/a	n/a	n/a
2211.812	n/a	WORD	1105906	wordpools/wasnorm_wordpool_less_exclusions.txt	LTP267	ltpFR	19	11	-1	LINEN	825	n/a	n/a	-1	1.0	1.0	1	upper	Verdana.ttf
2215.81	n/a	WORD	1107905	wordpools/wasnorm_wordpool_less_exclusions.txt	LTP267	ltpFR	19	11	-1	STRAWBERRY	1391	n/a	n/a	-1	1.0	1.0	1	upper	Verdana.ttf
2219.808	n/a	WORD	1109904	wordpools/wasnorm_wordpool_less_exclusions.txt	LTP267	ltpFR	19	11	-1	MARGARINE	868	n/a	n/a	-1	1.0	1.0	1	upper	Verdana.ttf
2223.79	n/a	WORD	1111895	wordpools/wasnorm_wordpool_less_exclusions.txt	LTP267	ltpFR	19	11	-1	LEG	809	n/a	n/a	-1	1.0	1.0	1	upper	Verdana.ttf
2227.772	n/a	WORD	1113886	wordpools/wasnorm_wordpool_less_exclusions.txt	LTP267	ltpFR	19	11	-1	GUITAR	670	n/a	n/a	-1	1.0	1.0	1	upper	Verdana.ttf
2231.972	n/a	WORD	1115986	wordpools/wasnorm_wordpool_less_exclusions.txt	LTP267	ltpFR	19	11	-1	SAUSAGE	1238	n/a	n/a	-1	1.0	1.0	1	upper	Verdana.ttf
2236.104	n/a	WORD	1118052	wordpools/wasnorm_wordpool_less_exclusions.txt	LTP267	ltpFR	19	11	-1	CLOSET	326	n/a	n/a	-1	1.0	1.0	1	upper	Verdana.ttf
2240.288	n/a	WORD	1120144	wordpools/wasnorm_wordpool_less_exclusions.txt	LTP267	ltpFR	19	11	-1	PANTS	1010	n/a	n/a	-1	1.0	1.0	1	upper	Verdana.ttf
2244.352	n/a	WORD	1122176	wordpools/wasnorm_wordpool_less_exclusions.txt	LTP267	ltpFR	19	11	-1	SHORTS	1293	n/a	n/a	-1	1.0	1.0	1	upper	Verdana.ttf
2248.252	n/a	WORD	1124126	wordpools/wasnorm_wordpool_less_exclusions.txt	LTP267	ltpFR	19	11	-1	RAZOR	1171	n/a	n/a	-1	1.0	1.0	1	upper	Verdana.ttf
2252.234	n/a	WORD	1126117	wordpools/wasnorm_wordpool_less_exclusions.txt	LTP267	ltpFR	19	11	-1	CLIPPERS	324	n/a	n/a	-1	1.0	1.0	1	upper	Verdana.ttf
2256.362	n/a	WORD	1128181	wordpools/wasnorm_wordpool_less_exclusions.txt	LTP267	ltpFR	19	11	-1	JEANS	752	n/a	n/a	-1	1.0	1.0	1	upper	Verdana.ttf
2260.23	n/a	WORD	1130115	wordpools/wasnorm_wordpool_less_exclusions.txt	LTP267	ltpFR	19	11	-1	BISCUIT	130	n/a	n/a	-1	1.0	1.0	1	upper	Verdana.ttf
2264.278	n/a	WORD	1132139	wordpools/wasnorm_wordpool_less_exclusions.txt	LTP267	ltpFR	19	11	-1	ANKLE	24	n/a	n/a	-1	1.0	1.0	1	upper	Verdana.ttf
2268.244	n/a	WORD	1134122	wordpools/wasnorm_wordpool_less_exclusions.txt	LTP267	ltpFR	19	11	-1	OREGANO	983	n/a	n/a	-1	1.0	1.0	1	upper	Verdana.ttf
2272.092	n/a	WORD	1136046	wordpools/wasnorm_wordpool_less_exclusions.txt	LTP267	ltpFR	19	11	-1	LETTUCE	814	n/a	n/a	-1	1.0	1.0	1	upper	Verdana.ttf
2278.082	n/a	REC_START	1139041	n/a	LTP267	ltpFR	19	11	n/a	n/a	n/a	n/a	n/a	n/a	n/a	n/a	n/a	n/a	n/a
2278.712	n/a	REC_WORD	1139356	wordpools/wasnorm_wordpool_less_exclusions.txt	LTP267	ltpFR	19	11	-1	OREGANO	983	n/a	n/a	-1	n/a	n/a	n/a	n/a	n/a
2279.586	n/a	REC_WORD	1139793	wordpools/wasnorm_wordpool_less_exclusions.txt	LTP267	ltpFR	19	11	-1	LETTUCE	814	n/a	n/a	-1	n/a	n/a	n/a	n/a	n/a
2280.472	n/a	REC_WORD	1140236	wordpools/wasnorm_wordpool_less_exclusions.txt	LTP267	ltpFR	19	11	-1	LINEN	825	n/a	n/a	-1	n/a	n/a	n/a	n/a	n/a
2281.156	n/a	REC_WORD	1140578	wordpools/wasnorm_wordpool_less_exclusions.txt	LTP267	ltpFR	19	11	-1	STRAWBERRY	1391	n/a	n/a	-1	n/a	n/a	n/a	n/a	n/a
2282.532	n/a	REC_WORD	1141266	wordpools/wasnorm_wordpool_less_exclusions.txt	LTP267	ltpFR	19	11	-1	MARGARINE	868	n/a	n/a	-1	n/a	n/a	n/a	n/a	n/a
2283.956	n/a	REC_WORD	1141978	wordpools/wasnorm_wordpool_less_exclusions.txt	LTP267	ltpFR	19	11	n/a	EGG	518	n/a	n/a	n/a	n/a	n/a	n/a	n/a	n/a
2285.06	n/a	REC_WORD	1142530	wordpools/wasnorm_wordpool_less_exclusions.txt	LTP267	ltpFR	19	11	-1	LEG	809	n/a	n/a	-1	n/a	n/a	n/a	n/a	n/a
2286.816	n/a	REC_WORD	1143408	wordpools/wasnorm_wordpool_less_exclusions.txt	LTP267	ltpFR	19	11	-1	JEANS	752	n/a	n/a	-1	n/a	n/a	n/a	n/a	n/a
2288.968	n/a	REC_WORD	1144484	wordpools/wasnorm_wordpool_less_exclusions.txt	LTP267	ltpFR	19	11	-1	ANKLE	24	n/a	n/a	-1	n/a	n/a	n/a	n/a	n/a
2290.394	n/a	REC_WORD	1145197	wordpools/wasnorm_wordpool_less_exclusions.txt	LTP267	ltpFR	19	11	-1	SAUSAGE	1238	n/a	n/a	-1	n/a	n/a	n/a	n/a	n/a
2360.964	n/a	WORD	1180482	wordpools/wasnorm_wordpool_less_exclusions.txt	LTP267	ltpFR	19	12	0	GRATE	657	n/a	n/a	0	0.57763671875	0.412841796875	1	lower	zerothre.ttf
2365.114	n/a	WORD	1182557	wordpools/wasnorm_wordpool_less_exclusions.txt	LTP267	ltpFR	19	12	0	COUCH	386	n/a	n/a	1	0.57763671875	0.412841796875	1	lower	zerothre.ttf
2369.23	n/a	WORD	1184615	wordpools/wasnorm_wordpool_less_exclusions.txt	LTP267	ltpFR	19	12	0	LOUNGE	845	n/a	n/a	1	0.57763671875	0.412841796875	1	lower	zerothre.ttf
2373.312	n/a	WORD	1186656	wordpools/wasnorm_wordpool_less_exclusions.txt	LTP267	ltpFR	19	12	0	SEAT	1264	n/a	n/a	1	0.57763671875	0.412841796875	1	lower	zerothre.ttf
2377.142	n/a	WORD	1188571	wordpools/wasnorm_wordpool_less_exclusions.txt	LTP267	ltpFR	19	12	0	MACARONI	851	n/a	n/a	0	0.57763671875	0.412841796875	1	lower	zerothre.ttf
2381.058	n/a	WORD	1190529	wordpools/wasnorm_wordpool_less_exclusions.txt	LTP267	ltpFR	19	12	0	CHAIR	274	n/a	n/a	1	0.57763671875	0.412841796875	1	lower	zerothre.ttf
2385.056	n/a	WORD	1192528	wordpools/wasnorm_wordpool_less_exclusions.txt	LTP267	ltpFR	19	12	0	RAKE	1164	n/a	n/a	0	0.57763671875	0.412841796875	1	lower	zerothre.ttf
2388.92	n/a	WORD	1194460	wordpools/wasnorm_wordpool_less_exclusions.txt	LTP267	ltpFR	19	12	0	LUMBER	848	n/a	n/a	0	0.57763671875	0.412841796875	1	lower	zerothre.ttf
2392.768	n/a	WORD	1196384	wordpools/wasnorm_wordpool_less_exclusions.txt	LTP267	ltpFR	19	12	0	GRILL	661	n/a	n/a	1	0.57763671875	0.412841796875	1	lower	zerothre.ttf
2396.65	n/a	WORD	1198325	wordpools/wasnorm_wordpool_less_exclusions.txt	LTP267	ltpFR	19	12	0	FUR	615	n/a	n/a	1	0.57763671875	0.412841796875	1	lower	zerothre.ttf
2400.714	n/a	WORD	1200357	wordpools/wasnorm_wordpool_less_exclusions.txt	LTP267	ltpFR	19	12	0	BRACES	164	n/a	n/a	0	0.57763671875	0.412841796875	1	lower	zerothre.ttf
2404.58	n/a	WORD	1202290	wordpools/wasnorm_wordpool_less_exclusions.txt	LTP267	ltpFR	19	12	0	TROUSERS	1510	n/a	n/a	1	0.57763671875	0.412841796875	1	lower	zerothre.ttf
2408.796	n/a	WORD	1204398	wordpools/wasnorm_wordpool_less_exclusions.txt	LTP267	ltpFR	19	12	0	CABLE	213	n/a	n/a	1	0.57763671875	0.412841796875	1	lower	zerothre.ttf
2412.878	n/a	WORD	1206439	wordpools/wasnorm_wordpool_less_exclusions.txt	LTP267	ltpFR	19	12	0	LAPEL	800	n/a	n/a	0	0.57763671875	0.412841796875	1	lower	zerothre.ttf
2416.894	n/a	WORD	1208447	wordpools/wasnorm_wordpool_less_exclusions.txt	LTP267	ltpFR	19	12	0	TROMBONE	1508	n/a	n/a	1	0.57763671875	0.412841796875	1	lower	zerothre.ttf
2420.96	n/a	WORD	1210480	wordpools/wasnorm_wordpool_less_exclusions.txt	LTP267	ltpFR	19	12	0	VIOLIN	1571	n/a	n/a	1	0.57763671875	0.412841796875	1	lower	zerothre.ttf
2426.85	n/a	REC_START	1213425	n/a	LTP267	ltpFR	19	12	n/a	n/a	n/a	n/a	n/a	n/a	n/a	n/a	n/a	n/a	n/a
2427.118	n/a	REC_WORD	1213559	wordpools/wasnorm_wordpool_less_exclusions.txt	LTP267	ltpFR	19	12	0	LAPEL	800	n/a	n/a	0	n/a	n/a	n/a	n/a	n/a
2427.992	n/a	REC_WORD	1213996	wordpools/wasnorm_wordpool_less_exclusions.txt	LTP267	ltpFR	19	12	0	TROMBONE	1508	n/a	n/a	1	n/a	n/a	n/a	n/a	n/a
2429.246	n/a	REC_WORD	1214623	wordpools/wasnorm_wordpool_less_exclusions.txt	LTP267	ltpFR	19	12	0	VIOLIN	1571	n/a	n/a	1	n/a	n/a	n/a	n/a	n/a
2440.63	n/a	REC_WORD	1220315	wordpools/wasnorm_wordpool_less_exclusions.txt	LTP267	ltpFR	19	12	0	BRACES	164	n/a	n/a	0	n/a	n/a	n/a	n/a	n/a
2509.882	n/a	WORD	1254941	wordpools/wasnorm_wordpool_less_exclusions.txt	LTP267	ltpFR	19	13	1	HEAD	695	n/a	n/a	3	0.422607421875	0.5869140625	0	upper	amplitud.ttf
2511.222	n/a	KEY_MSG	1255611	n/a	LTP267	ltpFR	19	13	n/a	n/a	n/a	n/a	n/a	n/a	n/a	n/a	n/a	n/a	n/a
2513.732	n/a	WORD	1256866	wordpools/wasnorm_wordpool_less_exclusions.txt	LTP267	ltpFR	19	13	1	FRUIT	610	n/a	n/a	0	0.422607421875	0.5869140625	0	upper	amplitud.ttf
2517.898	n/a	WORD	1258949	wordpools/wasnorm_wordpool_less_exclusions.txt	LTP267	ltpFR	19	13	0	DIGGER	464	n/a	n/a	0	0.57763671875	0.412841796875	1	lower	zerothre.ttf
2522.096	n/a	WORD	1261048	wordpools/wasnorm_wordpool_less_exclusions.txt	LTP267	ltpFR	19	13	0	MUSTARD	935	n/a	n/a	0	0.57763671875	0.412841796875	1	lower	zerothre.ttf
2525.978	n/a	WORD	1262989	wordpools/wasnorm_wordpool_less_exclusions.txt	LTP267	ltpFR	19	13	1	HAMBURGER	679	n/a	n/a	0	0.422607421875	0.5869140625	0	upper	amplitud.ttf
2530.144	n/a	WORD	1265072	wordpools/wasnorm_wordpool_less_exclusions.txt	LTP267	ltpFR	19	13	1	BUTLER	204	n/a	n/a	1	0.422607421875	0.5869140625	0	upper	amplitud.ttf
2534.06	n/a	WORD	1267030	wordpools/wasnorm_wordpool_less_exclusions.txt	LTP267	ltpFR	19	13	1	UNIFORM	1539	n/a	n/a	0	0.422607421875	0.5869140625	0	upper	amplitud.ttf
2538.242	n/a	WORD	1269121	wordpools/wasnorm_wordpool_less_exclusions.txt	LTP267	ltpFR	19	13	0	RADIO	1157	n/a	n/a	0	0.57763671875	0.412841796875	1	lower	zerothre.ttf
2542.324	n/a	WORD	1271162	wordpools/wasnorm_wordpool_less_exclusions.txt	LTP267	ltpFR	19	13	0	ORANGE	980	n/a	n/a	0	0.57763671875	0.412841796875	1	lower	zerothre.ttf
2546.19	n/a	WORD	1273095	wordpools/wasnorm_wordpool_less_exclusions.txt	LTP267	ltpFR	19	13	0	TUSK	1523	n/a	n/a	0	0.57763671875	0.412841796875	1	lower	zerothre.ttf
2550.288	n/a	WORD	1275144	wordpools/wasnorm_wordpool_less_exclusions.txt	LTP267	ltpFR	19	13	0	GANG	619	n/a	n/a	0	0.57763671875	0.412841796875	1	lower	zerothre.ttf
2554.436	n/a	WORD	1277218	wordpools/wasnorm_wordpool_less_exclusions.txt	LTP267	ltpFR	19	13	0	LEADER	807	n/a	n/a	1	0.57763671875	0.412841796875	1	lower	zerothre.ttf
2558.52	n/a	WORD	1279260	wordpools/wasnorm_wordpool_less_exclusions.txt	LTP267	ltpFR	19	13	0	HAY	693	n/a	n/a	1	0.57763671875	0.412841796875	1	lower	zerothre.ttf
2562.734	n/a	WORD	1281367	wordpools/wasnorm_wordpool_less_exclusions.txt	LTP267	ltpFR	19	13	1	OATS	968	n/a	n/a	0	0.422607421875	0.5869140625	0	upper	amplitud.ttf
2566.916	n/a	WORD	1283458	wordpools/wasnorm_wordpool_less_exclusions.txt	LTP267	ltpFR	19	13	1	CONDUCTOR	362	n/a	n/a	1	0.422607421875	0.5869140625	0	upper	amplitud.ttf
2570.982	n/a	WORD	1285491	wordpools/wasnorm_wordpool_less_exclusions.txt	LTP267	ltpFR	19	13	1	TOOTHBRUSH	1482	n/a	n/a	0	0.422607421875	0.5869140625	0	upper	amplitud.ttf
2576.74	n/a	REC_START	1288370	n/a	LTP267	ltpFR	19	13	n/a	n/a	n/a	n/a	n/a	n/a	n/a	n/a	n/a	n/a	n/a
2577.322	n/a	REC_WORD	1288661	wordpools/wasnorm_wordpool_less_exclusions.txt	LTP267	ltpFR	19	13	1	OATS	968	n/a	n/a	0	n/a	n/a	n/a	n/a	n/a
2578.134	n/a	REC_WORD	1289067	wordpools/wasnorm_wordpool_less_exclusions.txt	LTP267	ltpFR	19	13	1	CONDUCTOR	362	n/a	n/a	1	n/a	n/a	n/a	n/a	n/a
2579.484	n/a	REC_WORD	1289742	wordpools/wasnorm_wordpool_less_exclusions.txt	LTP267	ltpFR	19	13	1	TOOTHBRUSH	1482	n/a	n/a	0	n/a	n/a	n/a	n/a	n/a
2580.556	n/a	REC_WORD	1290278	wordpools/wasnorm_wordpool_less_exclusions.txt	LTP267	ltpFR	19	13	0	ORANGE	980	n/a	n/a	0	n/a	n/a	n/a	n/a	n/a
2581.754	n/a	REC_WORD	1290877	wordpools/wasnorm_wordpool_less_exclusions.txt	LTP267	ltpFR	19	13	0	RADIO	1157	n/a	n/a	0	n/a	n/a	n/a	n/a	n/a
2583.372	n/a	REC_WORD	1291686	wordpools/wasnorm_wordpool_less_exclusions.txt	LTP267	ltpFR	19	13	0	DIGGER	464	n/a	n/a	0	n/a	n/a	n/a	n/a	n/a
2588.066	n/a	REC_WORD_VV	1294033	wordpools/wasnorm_wordpool_less_exclusions.txt	LTP267	ltpFR	19	13	n/a	<>	-1	n/a	n/a	n/a	n/a	n/a	n/a	n/a	n/a
2660.276	n/a	WORD	1330138	wordpools/wasnorm_wordpool_less_exclusions.txt	LTP267	ltpFR	19	14	0	TAVERN	1437	n/a	n/a	0	0.57763671875	0.412841796875	1	lower	zerothre.ttf
2664.44	n/a	WORD	1332220	wordpools/wasnorm_wordpool_less_exclusions.txt	LTP267	ltpFR	19	14	0	DRINK	498	n/a	n/a	0	0.57763671875	0.412841796875	1	lower	zerothre.ttf
2668.456	n/a	WORD	1334228	wordpools/wasnorm_wordpool_less_exclusions.txt	LTP267	ltpFR	19	14	0	COURT	391	n/a	n/a	1	0.57763671875	0.412841796875	1	lower	zerothre.ttf
2672.52	n/a	WORD	1336260	wordpools/wasnorm_wordpool_less_exclusions.txt	LTP267	ltpFR	19	14	0	MAGAZINE	853	n/a	n/a	0	0.57763671875	0.412841796875	1	lower	zerothre.ttf
2676.636	n/a	WORD	1338318	wordpools/wasnorm_wordpool_less_exclusions.txt	LTP267	ltpFR	19	14	0	DOCK	477	n/a	n/a	0	0.57763671875	0.412841796875	1	lower	zerothre.ttf
2680.6	n/a	WORD	1340300	wordpools/wasnorm_wordpool_less_exclusions.txt	LTP267	ltpFR	19	14	0	YACHT	1629	n/a	n/a	0	0.57763671875	0.412841796875	1	lower	zerothre.ttf
2684.584	n/a	WORD	1342292	wordpools/wasnorm_wordpool_less_exclusions.txt	LTP267	ltpFR	19	14	0	EMPLOYEE	531	n/a	n/a	1	0.57763671875	0.412841796875	1	lower	zerothre.ttf
2688.55	n/a	WORD	1344275	wordpools/wasnorm_wordpool_less_exclusions.txt	LTP267	ltpFR	19	14	0	TECHNICIAN	1443	n/a	n/a	1	0.57763671875	0.412841796875	1	lower	zerothre.ttf
2692.612	n/a	WORD	1346306	wordpools/wasnorm_wordpool_less_exclusions.txt	LTP267	ltpFR	19	14	0	DRIVEWAY	500	n/a	n/a	1	0.57763671875	0.412841796875	1	lower	zerothre.ttf
2696.68	n/a	WORD	1348340	wordpools/wasnorm_wordpool_less_exclusions.txt	LTP267	ltpFR	19	14	0	VIKING	1565	n/a	n/a	1	0.57763671875	0.412841796875	1	lower	zerothre.ttf
2700.896	n/a	WORD	1350448	wordpools/wasnorm_wordpool_less_exclusions.txt	LTP267	ltpFR	19	14	0	DAD	433	n/a	n/a	1	0.57763671875	0.412841796875	1	lower	zerothre.ttf
2704.828	n/a	WORD	1352414	wordpools/wasnorm_wordpool_less_exclusions.txt	LTP267	ltpFR	19	14	0	TUBE	1516	n/a	n/a	1	0.57763671875	0.412841796875	1	lower	zerothre.ttf
2708.994	n/a	WORD	1354497	wordpools/wasnorm_wordpool_less_exclusions.txt	LTP267	ltpFR	19	14	0	BINDER	127	n/a	n/a	1	0.57763671875	0.412841796875	1	lower	zerothre.ttf
2712.874	n/a	WORD	1356437	wordpools/wasnorm_wordpool_less_exclusions.txt	LTP267	ltpFR	19	14	0	CREW	406	n/a	n/a	1	0.57763671875	0.412841796875	1	lower	zerothre.ttf
2716.99	n/a	WORD	1358495	wordpools/wasnorm_wordpool_less_exclusions.txt	LTP267	ltpFR	19	14	0	TONGUE	1479	n/a	n/a	0	0.57763671875	0.412841796875	1	lower	zerothre.ttf
2721.04	n/a	WORD	1360520	wordpools/wasnorm_wordpool_less_exclusions.txt	LTP267	ltpFR	19	14	0	RING	1193	n/a	n/a	1	0.57763671875	0.412841796875	1	lower	zerothre.ttf
2726.712	n/a	REC_START	1363356	n/a	LTP267	ltpFR	19	14	n/a	n/a	n/a	n/a	n/a	n/a	n/a	n/a	n/a	n/a	n/a
2727.314	n/a	REC_WORD	1363657	wordpools/wasnorm_wordpool_less_exclusions.txt	LTP267	ltpFR	19	14	0	CREW	406	n/a	n/a	1	n/a	n/a	n/a	n/a	n/a
2728.242	n/a	REC_WORD	1364121	wordpools/wasnorm_wordpool_less_exclusions.txt	LTP267	ltpFR	19	14	0	TONGUE	1479	n/a	n/a	0	n/a	n/a	n/a	n/a	n/a
2729.222	n/a	REC_WORD	1364611	wordpools/wasnorm_wordpool_less_exclusions.txt	LTP267	ltpFR	19	14	0	RING	1193	n/a	n/a	1	n/a	n/a	n/a	n/a	n/a
2730.136	n/a	REC_WORD	1365068	wordpools/wasnorm_wordpool_less_exclusions.txt	LTP267	ltpFR	19	14	0	BINDER	127	n/a	n/a	1	n/a	n/a	n/a	n/a	n/a
2731.472	n/a	REC_WORD	1365736	wordpools/wasnorm_wordpool_less_exclusions.txt	LTP267	ltpFR	19	14	0	MAGAZINE	853	n/a	n/a	0	n/a	n/a	n/a	n/a	n/a
2765.32	n/a	REC_WORD	1382660	wordpools/wasnorm_wordpool_less_exclusions.txt	LTP267	ltpFR	19	14	0	TROUSERS	1510	n/a	n/a	1	n/a	n/a	n/a	n/a	n/a
2839.894	n/a	WORD	1419947	wordpools/wasnorm_wordpool_less_exclusions.txt	LTP267	ltpFR	19	15	-1	WAVE	1596	n/a	n/a	-1	1.0	1.0	1	upper	Verdana.ttf
2843.842	n/a	WORD	1421921	wordpools/wasnorm_wordpool_less_exclusions.txt	LTP267	ltpFR	19	15	-1	FISH	571	n/a	n/a	-1	1.0	1.0	1	upper	Verdana.ttf
2847.942	n/a	WORD	1423971	wordpools/wasnorm_wordpool_less_exclusions.txt	LTP267	ltpFR	19	15	-1	WORM	1623	n/a	n/a	-1	1.0	1.0	1	upper	Verdana.ttf
2851.856	n/a	WORD	1425928	wordpools/wasnorm_wordpool_less_exclusions.txt	LTP267	ltpFR	19	15	-1	PUMP	1141	n/a	n/a	-1	1.0	1.0	1	upper	Verdana.ttf
2856.074	n/a	WORD	1428037	wordpools/wasnorm_wordpool_less_exclusions.txt	LTP267	ltpFR	19	15	-1	FAN	551	n/a	n/a	-1	1.0	1.0	1	upper	Verdana.ttf
2860.238	n/a	WORD	1430119	wordpools/wasnorm_wordpool_less_exclusions.txt	LTP267	ltpFR	19	15	-1	PILOT	1070	n/a	n/a	-1	1.0	1.0	1	upper	Verdana.ttf
2864.372	n/a	WORD	1432186	wordpools/wasnorm_wordpool_less_exclusions.txt	LTP267	ltpFR	19	15	-1	PEACH	1031	n/a	n/a	-1	1.0	1.0	1	upper	Verdana.ttf
2868.568	n/a	WORD	1434284	wordpools/wasnorm_wordpool_less_exclusions.txt	LTP267	ltpFR	19	15	-1	PEAR	1033	n/a	n/a	-1	1.0	1.0	1	upper	Verdana.ttf
2872.754	n/a	WORD	1436377	wordpools/wasnorm_wordpool_less_exclusions.txt	LTP267	ltpFR	19	15	-1	ISLAND	745	n/a	n/a	-1	1.0	1.0	1	upper	Verdana.ttf
2876.718	n/a	WORD	1438359	wordpools/wasnorm_wordpool_less_exclusions.txt	LTP267	ltpFR	19	15	-1	TEMPLE	1448	n/a	n/a	-1	1.0	1.0	1	upper	Verdana.ttf
2880.784	n/a	WORD	1440392	wordpools/wasnorm_wordpool_less_exclusions.txt	LTP267	ltpFR	19	15	-1	CART	250	n/a	n/a	-1	1.0	1.0	1	upper	Verdana.ttf
2884.966	n/a	WORD	1442483	wordpools/wasnorm_wordpool_less_exclusions.txt	LTP267	ltpFR	19	15	-1	MARINE	869	n/a	n/a	-1	1.0	1.0	1	upper	Verdana.ttf
2889.116	n/a	WORD	1444558	wordpools/wasnorm_wordpool_less_exclusions.txt	LTP267	ltpFR	19	15	-1	PLUMBER	1091	n/a	n/a	-1	1.0	1.0	1	upper	Verdana.ttf
2892.98	n/a	WORD	1446490	wordpools/wasnorm_wordpool_less_exclusions.txt	LTP267	ltpFR	19	15	-1	PASSENGER	1020	n/a	n/a	-1	1.0	1.0	1	upper	Verdana.ttf
2897.096	n/a	WORD	1448548	wordpools/wasnorm_wordpool_less_exclusions.txt	LTP267	ltpFR	19	15	-1	BATHROOM	99	n/a	n/a	-1	1.0	1.0	1	upper	Verdana.ttf
2901.296	n/a	WORD	1450648	wordpools/wasnorm_wordpool_less_exclusions.txt	LTP267	ltpFR	19	15	-1	LIEUTENANT	818	n/a	n/a	-1	1.0	1.0	1	upper	Verdana.ttf
2907.084	n/a	REC_START	1453542	n/a	LTP267	ltpFR	19	15	n/a	n/a	n/a	n/a	n/a	n/a	n/a	n/a	n/a	n/a	n/a
2908.016	n/a	REC_WORD	1454008	wordpools/wasnorm_wordpool_less_exclusions.txt	LTP267	ltpFR	19	15	-1	PLUMBER	1091	n/a	n/a	-1	n/a	n/a	n/a	n/a	n/a
2908.86	n/a	REC_WORD	1454430	wordpools/wasnorm_wordpool_less_exclusions.txt	LTP267	ltpFR	19	15	-1	PASSENGER	1020	n/a	n/a	-1	n/a	n/a	n/a	n/a	n/a
2910.28	n/a	REC_WORD	1455140	wordpools/wasnorm_wordpool_less_exclusions.txt	LTP267	ltpFR	19	15	-1	LIEUTENANT	818	n/a	n/a	-1	n/a	n/a	n/a	n/a	n/a
2911.352	n/a	REC_WORD	1455676	wordpools/wasnorm_wordpool_less_exclusions.txt	LTP267	ltpFR	19	15	-1	MARINE	869	n/a	n/a	-1	n/a	n/a	n/a	n/a	n/a
2912.636	n/a	REC_WORD	1456318	wordpools/wasnorm_wordpool_less_exclusions.txt	LTP267	ltpFR	19	15	-1	WAVE	1596	n/a	n/a	-1	n/a	n/a	n/a	n/a	n/a
2913.582	n/a	REC_WORD	1456791	wordpools/wasnorm_wordpool_less_exclusions.txt	LTP267	ltpFR	19	15	-1	FISH	571	n/a	n/a	-1	n/a	n/a	n/a	n/a	n/a
2918.674	n/a	REC_WORD	1459337	wordpools/wasnorm_wordpool_less_exclusions.txt	LTP267	ltpFR	19	15	-1	TEMPLE	1448	n/a	n/a	-1	n/a	n/a	n/a	n/a	n/a
2923.384	n/a	REC_WORD	1461692	wordpools/wasnorm_wordpool_less_exclusions.txt	LTP267	ltpFR	19	15	-1	PILOT	1070	n/a	n/a	-1	n/a	n/a	n/a	n/a	n/a
2993.632	n/a	WORD	1496816	wordpools/wasnorm_wordpool_less_exclusions.txt	LTP267	ltpFR	19	16	1	SLEIGH	1325	n/a	n/a	0	0.422607421875	0.5869140625	0	upper	amplitud.ttf
2997.814	n/a	WORD	1498907	wordpools/wasnorm_wordpool_less_exclusions.txt	LTP267	ltpFR	19	16	1	MOAT	903	n/a	n/a	1	0.422607421875	0.5869140625	0	upper	amplitud.ttf
3001.678	n/a	WORD	1500839	wordpools/wasnorm_wordpool_less_exclusions.txt	LTP267	ltpFR	19	16	1	SPONGE	1355	n/a	n/a	0	0.422607421875	0.5869140625	0	upper	amplitud.ttf
3005.612	n/a	WORD	1502806	wordpools/wasnorm_wordpool_less_exclusions.txt	LTP267	ltpFR	19	16	1	SISTER	1312	n/a	n/a	1	0.422607421875	0.5869140625	0	upper	amplitud.ttf
3009.694	n/a	WORD	1504847	wordpools/wasnorm_wordpool_less_exclusions.txt	LTP267	ltpFR	19	16	0	BOTTLE	153	n/a	n/a	0	0.57763671875	0.412841796875	1	lower	zerothre.ttf
3013.776	n/a	WORD	1506888	wordpools/wasnorm_wordpool_less_exclusions.txt	LTP267	ltpFR	19	16	0	NICOTINE	951	n/a	n/a	1	0.57763671875	0.412841796875	1	lower	zerothre.ttf
3017.924	n/a	WORD	1508962	wordpools/wasnorm_wordpool_less_exclusions.txt	LTP267	ltpFR	19	16	0	SWEATER	1419	n/a	n/a	1	0.57763671875	0.412841796875	1	lower	zerothre.ttf
3021.922	n/a	WORD	1510961	wordpools/wasnorm_wordpool_less_exclusions.txt	LTP267	ltpFR	19	16	1	CLOTHES	327	n/a	n/a	1	0.422607421875	0.5869140625	0	upper	amplitud.ttf
3025.872	n/a	WORD	1512936	wordpools/wasnorm_wordpool_less_exclusions.txt	LTP267	ltpFR	19	16	1	BRAN	167	n/a	n/a	0	0.422607421875	0.5869140625	0	upper	amplitud.ttf
3029.82	n/a	WORD	1514910	wordpools/wasnorm_wordpool_less_exclusions.txt	LTP267	ltpFR	19	16	1	ROCK	1201	n/a	n/a	0	0.422607421875	0.5869140625	0	upper	amplitud.ttf
3033.8	n/a	WORD	1516900	wordpools/wasnorm_wordpool_less_exclusions.txt	LTP267	ltpFR	19	16	1	SENATE	1267	n/a	n/a	1	0.422607421875	0.5869140625	0	upper	amplitud.ttf
3037.916	n/a	WORD	1518958	wordpools/wasnorm_wordpool_less_exclusions.txt	LTP267	ltpFR	19	16	0	REEF	1177	n/a	n/a	0	0.57763671875	0.412841796875	1	lower	zerothre.ttf
3041.782	n/a	WORD	1520891	wordpools/wasnorm_wordpool_less_exclusions.txt	LTP267	ltpFR	19	16	0	CORAL	378	n/a	n/a	1	0.57763671875	0.412841796875	1	lower	zerothre.ttf
3045.698	n/a	WORD	1522849	wordpools/wasnorm_wordpool_less_exclusions.txt	LTP267	ltpFR	19	16	0	BLOSSOM	138	n/a	n/a	1	0.57763671875	0.412841796875	1	lower	zerothre.ttf
3049.56	n/a	WORD	1524780	wordpools/wasnorm_wordpool_less_exclusions.txt	LTP267	ltpFR	19	16	0	BEVERAGE	123	n/a	n/a	1	0.57763671875	0.412841796875	1	lower	zerothre.ttf
3053.76	n/a	WORD	1526880	wordpools/wasnorm_wordpool_less_exclusions.txt	LTP267	ltpFR	19	16	0	CAMEL	223	n/a	n/a	0	0.57763671875	0.412841796875	1	lower	zerothre.ttf
3059.584	n/a	REC_START	1529792	n/a	LTP267	ltpFR	19	16	n/a	n/a	n/a	n/a	n/a	n/a	n/a	n/a	n/a	n/a	n/a
3060.066	n/a	REC_WORD	1530033	wordpools/wasnorm_wordpool_less_exclusions.txt	LTP267	ltpFR	19	16	0	BLOSSOM	138	n/a	n/a	1	n/a	n/a	n/a	n/a	n/a
3061.012	n/a	REC_WORD	1530506	wordpools/wasnorm_wordpool_less_exclusions.txt	LTP267	ltpFR	19	16	0	BEVERAGE	123	n/a	n/a	1	n/a	n/a	n/a	n/a	n/a
3061.902	n/a	REC_WORD	1530951	wordpools/wasnorm_wordpool_less_exclusions.txt	LTP267	ltpFR	19	16	0	CAMEL	223	n/a	n/a	0	n/a	n/a	n/a	n/a	n/a
3063.054	n/a	REC_WORD	1531527	wordpools/wasnorm_wordpool_less_exclusions.txt	LTP267	ltpFR	19	16	1	SISTER	1312	n/a	n/a	1	n/a	n/a	n/a	n/a	n/a
3064.0	n/a	REC_WORD	1532000	wordpools/wasnorm_wordpool_less_exclusions.txt	LTP267	ltpFR	19	16	0	SWEATER	1419	n/a	n/a	1	n/a	n/a	n/a	n/a	n/a
3067.356	n/a	REC_WORD	1533678	wordpools/wasnorm_wordpool_less_exclusions.txt	LTP267	ltpFR	19	16	1	MOAT	903	n/a	n/a	1	n/a	n/a	n/a	n/a	n/a
3071.426	n/a	REC_WORD	1535713	wordpools/wasnorm_wordpool_less_exclusions.txt	LTP267	ltpFR	19	16	0	NICOTINE	951	n/a	n/a	1	n/a	n/a	n/a	n/a	n/a
3077.802	n/a	REC_WORD	1538901	wordpools/wasnorm_wordpool_less_exclusions.txt	LTP267	ltpFR	19	16	0	BLOSSOM	138	n/a	n/a	1	n/a	n/a	n/a	n/a	n/a
3087.142	n/a	REC_WORD	1543571	wordpools/wasnorm_wordpool_less_exclusions.txt	LTP267	ltpFR	19	16	0	CORAL	378	n/a	n/a	1	n/a	n/a	n/a	n/a	n/a
3088.292	n/a	REC_WORD	1544146	wordpools/wasnorm_wordpool_less_exclusions.txt	LTP267	ltpFR	19	16	0	REEF	1177	n/a	n/a	0	n/a	n/a	n/a	n/a	n/a
3490.38	n/a	REC_START	1745190	n/a	LTP267	ltpFR	19	1	n/a	n/a	n/a	n/a	n/a	n/a	n/a	n/a	n/a	n/a	n/a
3490.43	n/a	RECOG_TARGET	1745215	n/a	LTP267	ltpFR	19	1	0	GARBAGE	622	1	3	1	n/a	n/a	n/a	n/a	n/a
3492.33	n/a	RECOG_RESP	1746165	n/a	LTP267	ltpFR	19	1	0	GARBAGE	622	1	n/a	1	n/a	n/a	n/a	n/a	n/a
3494.62	n/a	RECOG_CONF	1747310	n/a	LTP267	ltpFR	19	1	0	GARBAGE	622	n/a	3	1	n/a	n/a	n/a	n/a	n/a
3496.47	n/a	RECOG_LURE	1748235	n/a	LTP267	ltpFR	19	1	n/a	ROUGE	1213	0	4	n/a	n/a	n/a	n/a	n/a	n/a
3497.36	n/a	RECOG_RESP	1748680	n/a	LTP267	ltpFR	19	1	n/a	ROUGE	1213	0	n/a	n/a	n/a	n/a	n/a	n/a	n/a
3497.67	n/a	RECOG_CONF	1748835	n/a	LTP267	ltpFR	19	1	n/a	ROUGE	1213	n/a	4	n/a	n/a	n/a	n/a	n/a	n/a
3499.516	n/a	RECOG_LURE	1749758	n/a	LTP267	ltpFR	19	1	n/a	CRADLE	399	0	3	n/a	n/a	n/a	n/a	n/a	n/a
3500.166	n/a	RECOG_RESP	1750083	n/a	LTP267	ltpFR	19	1	n/a	CRADLE	399	0	n/a	n/a	n/a	n/a	n/a	n/a	n/a
3500.472	n/a	RECOG_CONF	1750236	n/a	LTP267	ltpFR	19	1	n/a	CRADLE	399	n/a	3	n/a	n/a	n/a	n/a	n/a	n/a
3502.208	n/a	RECOG_TARGET	1751104	n/a	LTP267	ltpFR	19	1	-1	PILOT	1070	1	3	-1	n/a	n/a	n/a	n/a	n/a
3502.762	n/a	RECOG_RESP	1751381	n/a	LTP267	ltpFR	19	1	-1	PILOT	1070	1	n/a	-1	n/a	n/a	n/a	n/a	n/a
3503.092	n/a	RECOG_CONF	1751546	n/a	LTP267	ltpFR	19	1	-1	PILOT	1070	n/a	3	-1	n/a	n/a	n/a	n/a	n/a
3504.836	n/a	RECOG_TARGET	1752418	n/a	LTP267	ltpFR	19	1	1	TICK	1463	1	5	0	n/a	n/a	n/a	n/a	n/a
3505.382	n/a	RECOG_RESP	1752691	n/a	LTP267	ltpFR	19	1	1	TICK	1463	1	n/a	0	n/a	n/a	n/a	n/a	n/a
3505.722	n/a	RECOG_CONF	1752861	n/a	LTP267	ltpFR	19	1	1	TICK	1463	n/a	5	0	n/a	n/a	n/a	n/a	n/a
3507.312	n/a	RECOG_TARGET	1753656	n/a	LTP267	ltpFR	19	1	1	SKETCH	1315	1	1	0	n/a	n/a	n/a	n/a	n/a
3507.802	n/a	RECOG_RESP	1753901	n/a	LTP267	ltpFR	19	1	1	SKETCH	1315	1	n/a	0	n/a	n/a	n/a	n/a	n/a
3508.472	n/a	RECOG_CONF	1754236	n/a	LTP267	ltpFR	19	1	1	SKETCH	1315	n/a	1	0	n/a	n/a	n/a	n/a	n/a
3510.306	n/a	RECOG_LURE	1755153	n/a	LTP267	ltpFR	19	1	n/a	CLERK	321	1	4	n/a	n/a	n/a	n/a	n/a	n/a
3510.782	n/a	RECOG_RESP	1755391	n/a	LTP267	ltpFR	19	1	n/a	CLERK	321	1	n/a	n/a	n/a	n/a	n/a	n/a	n/a
3511.092	n/a	RECOG_CONF	1755546	n/a	LTP267	ltpFR	19	1	n/a	CLERK	321	n/a	4	n/a	n/a	n/a	n/a	n/a	n/a
3512.816	n/a	RECOG_LURE	1756408	n/a	LTP267	ltpFR	19	1	n/a	KNOB	787	1	3	n/a	n/a	n/a	n/a	n/a	n/a
3513.472	n/a	RECOG_RESP	1756736	n/a	LTP267	ltpFR	19	1	n/a	KNOB	787	1	n/a	n/a	n/a	n/a	n/a	n/a	n/a
3513.872	n/a	RECOG_CONF	1756936	n/a	LTP267	ltpFR	19	1	n/a	KNOB	787	n/a	3	n/a	n/a	n/a	n/a	n/a	n/a
3515.558	n/a	RECOG_TARGET	1757779	n/a	LTP267	ltpFR	19	1	0	TAVERN	1437	0	3	0	n/a	n/a	n/a	n/a	n/a
3516.166	n/a	RECOG_RESP	1758083	n/a	LTP267	ltpFR	19	1	0	TAVERN	1437	0	n/a	0	n/a	n/a	n/a	n/a	n/a
3516.552	n/a	RECOG_CONF	1758276	n/a	LTP267	ltpFR	19	1	0	TAVERN	1437	n/a	3	0	n/a	n/a	n/a	n/a	n/a
3518.438	n/a	RECOG_TARGET	1759219	n/a	LTP267	ltpFR	19	1	1	SIDING	1304	0	5	0	n/a	n/a	n/a	n/a	n/a
3519.242	n/a	RECOG_RESP	1759621	n/a	LTP267	ltpFR	19	1	1	SIDING	1304	0	n/a	0	n/a	n/a	n/a	n/a	n/a
3519.502	n/a	RECOG_CONF	1759751	n/a	LTP267	ltpFR	19	1	1	SIDING	1304	n/a	5	0	n/a	n/a	n/a	n/a	n/a
3521.35	n/a	RECOG_TARGET	1760675	n/a	LTP267	ltpFR	19	1	0	PLUM	1090	0	5	0	n/a	n/a	n/a	n/a	n/a
3522.112	n/a	RECOG_RESP	1761056	n/a	LTP267	ltpFR	19	1	0	PLUM	1090	0	n/a	0	n/a	n/a	n/a	n/a	n/a
3522.362	n/a	RECOG_CONF	1761181	n/a	LTP267	ltpFR	19	1	0	PLUM	1090	n/a	5	0	n/a	n/a	n/a	n/a	n/a
3524.058	n/a	RECOG_TARGET	1762029	n/a	LTP267	ltpFR	19	1	0	CORAL	378	1	5	1	n/a	n/a	n/a	n/a	n/a
3524.832	n/a	RECOG_RESP	1762416	n/a	LTP267	ltpFR	19	1	0	CORAL	378	1	n/a	1	n/a	n/a	n/a	n/a	n/a
3525.142	n/a	RECOG_CONF	1762571	n/a	LTP267	ltpFR	19	1	0	CORAL	378	n/a	5	1	n/a	n/a	n/a	n/a	n/a
3526.802	n/a	RECOG_TARGET	1763401	n/a	LTP267	ltpFR	19	1	1	ELECTRICIAN	521	1	5	1	n/a	n/a	n/a	n/a	n/a
3527.532	n/a	RECOG_RESP	1763766	n/a	LTP267	ltpFR	19	1	1	ELECTRICIAN	521	1	n/a	1	n/a	n/a	n/a	n/a	n/a
3527.852	n/a	RECOG_CONF	1763926	n/a	LTP267	ltpFR	19	1	1	ELECTRICIAN	521	n/a	5	1	n/a	n/a	n/a	n/a	n/a
3529.496	n/a	RECOG_TARGET	1764748	n/a	LTP267	ltpFR	19	1	0	WOLF	1619	1	4	1	n/a	n/a	n/a	n/a	n/a
3530.108	n/a	RECOG_RESP	1765054	n/a	LTP267	ltpFR	19	1	0	WOLF	1619	1	n/a	1	n/a	n/a	n/a	n/a	n/a
3530.382	n/a	RECOG_CONF	1765191	n/a	LTP267	ltpFR	19	1	0	WOLF	1619	n/a	4	1	n/a	n/a	n/a	n/a	n/a
3532.038	n/a	RECOG_LURE	1766019	n/a	LTP267	ltpFR	19	1	n/a	CROSS	413	1	4	n/a	n/a	n/a	n/a	n/a	n/a
3532.488	n/a	RECOG_RESP	1766244	n/a	LTP267	ltpFR	19	1	n/a	CROSS	413	1	n/a	n/a	n/a	n/a	n/a	n/a	n/a
3532.762	n/a	RECOG_CONF	1766381	n/a	LTP267	ltpFR	19	1	n/a	CROSS	413	n/a	4	n/a	n/a	n/a	n/a	n/a	n/a
3534.38	n/a	RECOG_LURE	1767190	n/a	LTP267	ltpFR	19	1	n/a	GARDEN	623	1	4	n/a	n/a	n/a	n/a	n/a	n/a
3534.822	n/a	RECOG_RESP	1767411	n/a	LTP267	ltpFR	19	1	n/a	GARDEN	623	1	n/a	n/a	n/a	n/a	n/a	n/a	n/a
3535.062	n/a	RECOG_CONF	1767531	n/a	LTP267	ltpFR	19	1	n/a	GARDEN	623	n/a	4	n/a	n/a	n/a	n/a	n/a	n/a
3536.74	n/a	RECOG_TARGET	1768370	n/a	LTP267	ltpFR	19	1	0	SPATULA	1348	0	3	0	n/a	n/a	n/a	n/a	n/a
3537.544	n/a	RECOG_RESP	1768772	n/a	LTP267	ltpFR	19	1	0	SPATULA	1348	0	n/a	0	n/a	n/a	n/a	n/a	n/a
3537.804	n/a	RECOG_CONF	1768902	n/a	LTP267	ltpFR	19	1	0	SPATULA	1348	n/a	3	0	n/a	n/a	n/a	n/a	n/a
3539.502	n/a	RECOG_LURE	1769751	n/a	LTP267	ltpFR	19	1	n/a	FINGER	567	1	3	n/a	n/a	n/a	n/a	n/a	n/a
3540.044	n/a	RECOG_RESP	1770022	n/a	LTP267	ltpFR	19	1	n/a	FINGER	567	1	n/a	n/a	n/a	n/a	n/a	n/a	n/a
3540.374	n/a	RECOG_CONF	1770187	n/a	LTP267	ltpFR	19	1	n/a	FINGER	567	n/a	3	n/a	n/a	n/a	n/a	n/a	n/a
3542.01	n/a	RECOG_LURE	1771005	n/a	LTP267	ltpFR	19	1	n/a	CRIB	407	1	4	n/a	n/a	n/a	n/a	n/a	n/a
3542.364	n/a	RECOG_RESP	1771182	n/a	LTP267	ltpFR	19	1	n/a	CRIB	407	1	n/a	n/a	n/a	n/a	n/a	n/a	n/a
3542.644	n/a	RECOG_CONF	1771322	n/a	LTP267	ltpFR	19	1	n/a	CRIB	407	n/a	4	n/a	n/a	n/a	n/a	n/a	n/a
3544.338	n/a	RECOG_LURE	1772169	n/a	LTP267	ltpFR	19	1	n/a	SHOP	1290	1	4	n/a	n/a	n/a	n/a	n/a	n/a
3544.794	n/a	RECOG_RESP	1772397	n/a	LTP267	ltpFR	19	1	n/a	SHOP	1290	1	n/a	n/a	n/a	n/a	n/a	n/a	n/a
3545.074	n/a	RECOG_CONF	1772537	n/a	LTP267	ltpFR	19	1	n/a	SHOP	1290	n/a	4	n/a	n/a	n/a	n/a	n/a	n/a
3570.696	n/a	REC_START	1785348	n/a	LTP267	ltpFR	19	2	n/a	n/a	n/a	n/a	n/a	n/a	n/a	n/a	n/a	n/a	n/a
3570.754	n/a	RECOG_TARGET	1785377	n/a	LTP267	ltpFR	19	2	0	TECHNICIAN	1443	1	4	1	n/a	n/a	n/a	n/a	n/a
3571.58	n/a	RECOG_RESP	1785790	n/a	LTP267	ltpFR	19	2	0	TECHNICIAN	1443	1	n/a	1	n/a	n/a	n/a	n/a	n/a
3571.926	n/a	RECOG_CONF	1785963	n/a	LTP267	ltpFR	19	2	0	TECHNICIAN	1443	n/a	4	1	n/a	n/a	n/a	n/a	n/a
3573.58	n/a	RECOG_LURE	1786790	n/a	LTP267	ltpFR	19	2	n/a	VIOLA	1570	1	5	n/a	n/a	n/a	n/a	n/a	n/a
3574.106	n/a	RECOG_RESP	1787053	n/a	LTP267	ltpFR	19	2	n/a	VIOLA	1570	1	n/a	n/a	n/a	n/a	n/a	n/a	n/a
3574.396	n/a	RECOG_CONF	1787198	n/a	LTP267	ltpFR	19	2	n/a	VIOLA	1570	n/a	5	n/a	n/a	n/a	n/a	n/a	n/a
3576.376	n/a	RECOG_LURE	1788188	n/a	LTP267	ltpFR	19	2	n/a	FOLDER	588	1	2	n/a	n/a	n/a	n/a	n/a	n/a
3576.886	n/a	RECOG_RESP	1788443	n/a	LTP267	ltpFR	19	2	n/a	FOLDER	588	1	n/a	n/a	n/a	n/a	n/a	n/a	n/a
3577.186	n/a	RECOG_CONF	1788593	n/a	LTP267	ltpFR	19	2	n/a	FOLDER	588	n/a	2	n/a	n/a	n/a	n/a	n/a	n/a
3578.818	n/a	RECOG_TARGET	1789409	n/a	LTP267	ltpFR	19	2	1	TERRITORY	1452	1	5	0	n/a	n/a	n/a	n/a	n/a
3579.462	n/a	RECOG_RESP	1789731	n/a	LTP267	ltpFR	19	2	1	TERRITORY	1452	1	n/a	0	n/a	n/a	n/a	n/a	n/a
3579.726	n/a	RECOG_CONF	1789863	n/a	LTP267	ltpFR	19	2	1	TERRITORY	1452	n/a	5	0	n/a	n/a	n/a	n/a	n/a
3581.444	n/a	RECOG_TARGET	1790722	n/a	LTP267	ltpFR	19	2	0	MACARONI	851	1	5	0	n/a	n/a	n/a	n/a	n/a
3581.942	n/a	RECOG_RESP	1790971	n/a	LTP267	ltpFR	19	2	0	MACARONI	851	1	n/a	0	n/a	n/a	n/a	n/a	n/a
3582.186	n/a	RECOG_CONF	1791093	n/a	LTP267	ltpFR	19	2	0	MACARONI	851	n/a	5	0	n/a	n/a	n/a	n/a	n/a
3583.938	n/a	RECOG_LURE	1791969	n/a	LTP267	ltpFR	19	2	n/a	GRADUATE	653	1	5	n/a	n/a	n/a	n/a	n/a	n/a
3584.406	n/a	RECOG_RESP	1792203	n/a	LTP267	ltpFR	19	2	n/a	GRADUATE	653	1	n/a	n/a	n/a	n/a	n/a	n/a	n/a
3584.696	n/a	RECOG_CONF	1792348	n/a	LTP267	ltpFR	19	2	n/a	GRADUATE	653	n/a	5	n/a	n/a	n/a	n/a	n/a	n/a
3586.38	n/a	RECOG_TARGET	1793190	n/a	LTP267	ltpFR	19	2	1	CAT	257	0	1	1	n/a	n/a	n/a	n/a	n/a
3586.976	n/a	RECOG_RESP	1793488	n/a	LTP267	ltpFR	19	2	1	CAT	257	0	n/a	1	n/a	n/a	n/a	n/a	n/a
3587.506	n/a	RECOG_CONF	1793753	n/a	LTP267	ltpFR	19	2	1	CAT	257	n/a	1	1	n/a	n/a	n/a	n/a	n/a
3589.174	n/a	RECOG_LURE	1794587	n/a	LTP267	ltpFR	19	2	n/a	THESAURUS	1454	0	4	n/a	n/a	n/a	n/a	n/a	n/a
3589.736	n/a	RECOG_RESP	1794868	n/a	LTP267	ltpFR	19	2	n/a	THESAURUS	1454	0	n/a	n/a	n/a	n/a	n/a	n/a	n/a
3589.966	n/a	RECOG_CONF	1794983	n/a	LTP267	ltpFR	19	2	n/a	THESAURUS	1454	n/a	4	n/a	n/a	n/a	n/a	n/a	n/a
3591.734	n/a	RECOG_TARGET	1795867	n/a	LTP267	ltpFR	19	2	0	SALESMAN	1225	1	1	1	n/a	n/a	n/a	n/a	n/a
3592.306	n/a	RECOG_RESP	1796153	n/a	LTP267	ltpFR	19	2	0	SALESMAN	1225	1	n/a	1	n/a	n/a	n/a	n/a	n/a
3592.646	n/a	RECOG_CONF	1796323	n/a	LTP267	ltpFR	19	2	0	SALESMAN	1225	n/a	1	1	n/a	n/a	n/a	n/a	n/a
3594.026	n/a	RECOG_TARGET	1797013	n/a	LTP267	ltpFR	19	2	0	FATHER	554	1	4	0	n/a	n/a	n/a	n/a	n/a
3594.482	n/a	RECOG_RESP	1797241	n/a	LTP267	ltpFR	19	2	0	FATHER	554	1	n/a	0	n/a	n/a	n/a	n/a	n/a
3594.748	n/a	RECOG_CONF	1797374	n/a	LTP267	ltpFR	19	2	0	FATHER	554	n/a	4	0	n/a	n/a	n/a	n/a	n/a
3596.286	n/a	RECOG_TARGET	1798143	n/a	LTP267	ltpFR	19	2	1	FRUIT	610	1	1	0	n/a	n/a	n/a	n/a	n/a
3596.698	n/a	RECOG_RESP	1798349	n/a	LTP267	ltpFR	19	2	1	FRUIT	610	1	n/a	0	n/a	n/a	n/a	n/a	n/a
3596.998	n/a	RECOG_CONF	1798499	n/a	LTP267	ltpFR	19	2	1	FRUIT	610	n/a	1	0	n/a	n/a	n/a	n/a	n/a
3598.594	n/a	RECOG_LURE	1799297	n/a	LTP267	ltpFR	19	2	n/a	HONEY	713	1	1	n/a	n/a	n/a	n/a	n/a	n/a
3599.052	n/a	RECOG_RESP	1799526	n/a	LTP267	ltpFR	19	2	n/a	HONEY	713	1	n/a	n/a	n/a	n/a	n/a	n/a	n/a
3599.348	n/a	RECOG_CONF	1799674	n/a	LTP267	ltpFR	19	2	n/a	HONEY	713	n/a	1	n/a	n/a	n/a	n/a	n/a	n/a
3601.002	n/a	RECOG_TARGET	1800501	n/a	LTP267	ltpFR	19	2	1	SCREEN	1253	0	1	0	n/a	n/a	n/a	n/a	n/a
3601.552	n/a	RECOG_RESP	1800776	n/a	LTP267	ltpFR	19	2	1	SCREEN	1253	0	n/a	0	n/a	n/a	n/a	n/a	n/a
3602.048	n/a	RECOG_CONF	1801024	n/a	LTP267	ltpFR	19	2	1	SCREEN	1253	n/a	1	0	n/a	n/a	n/a	n/a	n/a
3603.562	n/a	RECOG_LURE	1801781	n/a	LTP267	ltpFR	19	2	n/a	SUPERMARKET	1409	0	3	n/a	n/a	n/a	n/a	n/a	n/a
3604.278	n/a	RECOG_RESP	1802139	n/a	LTP267	ltpFR	19	2	n/a	SUPERMARKET	1409	0	n/a	n/a	n/a	n/a	n/a	n/a	n/a
3604.588	n/a	RECOG_CONF	1802294	n/a	LTP267	ltpFR	19	2	n/a	SUPERMARKET	1409	n/a	3	n/a	n/a	n/a	n/a	n/a	n/a
3606.138	n/a	RECOG_TARGET	1803069	n/a	LTP267	ltpFR	19	2	-1	CART	250	1	3	-1	n/a	n/a	n/a	n/a	n/a
3606.672	n/a	RECOG_RESP	1803336	n/a	LTP267	ltpFR	19	2	-1	CART	250	1	n/a	-1	n/a	n/a	n/a	n/a	n/a
3606.978	n/a	RECOG_CONF	1803489	n/a	LTP267	ltpFR	19	2	-1	CART	250	n/a	3	-1	n/a	n/a	n/a	n/a	n/a
3608.548	n/a	RECOG_LURE	1804274	n/a	LTP267	ltpFR	19	2	n/a	LEVER	815	1	4	n/a	n/a	n/a	n/a	n/a	n/a
3608.868	n/a	RECOG_RESP	1804434	n/a	LTP267	ltpFR	19	2	n/a	LEVER	815	1	n/a	n/a	n/a	n/a	n/a	n/a	n/a
3609.128	n/a	RECOG_CONF	1804564	n/a	LTP267	ltpFR	19	2	n/a	LEVER	815	n/a	4	n/a	n/a	n/a	n/a	n/a	n/a
3610.79	n/a	RECOG_TARGET	1805395	n/a	LTP267	ltpFR	19	2	0	CONTAINER	366	1	4	0	n/a	n/a	n/a	n/a	n/a
3611.288	n/a	RECOG_RESP	1805644	n/a	LTP267	ltpFR	19	2	0	CONTAINER	366	1	n/a	0	n/a	n/a	n/a	n/a	n/a
3611.538	n/a	RECOG_CONF	1805769	n/a	LTP267	ltpFR	19	2	0	CONTAINER	366	n/a	4	0	n/a	n/a	n/a	n/a	n/a
3613.132	n/a	RECOG_TARGET	1806566	n/a	LTP267	ltpFR	19	2	0	POOL	1103	1	4	1	n/a	n/a	n/a	n/a	n/a
3613.474	n/a	RECOG_RESP	1806737	n/a	LTP267	ltpFR	19	2	0	POOL	1103	1	n/a	1	n/a	n/a	n/a	n/a	n/a
3613.728	n/a	RECOG_CONF	1806864	n/a	LTP267	ltpFR	19	2	0	POOL	1103	n/a	4	1	n/a	n/a	n/a	n/a	n/a
3615.342	n/a	RECOG_LURE	1807671	n/a	LTP267	ltpFR	19	2	n/a	PUPPY	1144	1	3	n/a	n/a	n/a	n/a	n/a	n/a
3615.548	n/a	RECOG_RESP	1807774	n/a	LTP267	ltpFR	19	2	n/a	PUPPY	1144	1	n/a	n/a	n/a	n/a	n/a	n/a	n/a
3615.778	n/a	RECOG_CONF	1807889	n/a	LTP267	ltpFR	19	2	n/a	PUPPY	1144	n/a	3	n/a	n/a	n/a	n/a	n/a	n/a
3617.382	n/a	RECOG_LURE	1808691	n/a	LTP267	ltpFR	19	2	n/a	GYM	674	0	1	n/a	n/a	n/a	n/a	n/a	n/a
3618.494	n/a	RECOG_RESP	1809247	n/a	LTP267	ltpFR	19	2	n/a	GYM	674	0	n/a	n/a	n/a	n/a	n/a	n/a	n/a
3618.768	n/a	RECOG_CONF	1809384	n/a	LTP267	ltpFR	19	2	n/a	GYM	674	n/a	1	n/a	n/a	n/a	n/a	n/a	n/a
3622.32	n/a	REC_START	1811160	n/a	LTP267	ltpFR	19	3	n/a	n/a	n/a	n/a	n/a	n/a	n/a	n/a	n/a	n/a	n/a
3622.368	n/a	RECOG_TARGET	1811184	n/a	LTP267	ltpFR	19	3	1	ORNAMENT	985	0	1	0	n/a	n/a	n/a	n/a	n/a
3623.406	n/a	RECOG_RESP	1811703	n/a	LTP267	ltpFR	19	3	1	ORNAMENT	985	0	n/a	0	n/a	n/a	n/a	n/a	n/a
3623.8	n/a	RECOG_CONF	1811900	n/a	LTP267	ltpFR	19	3	1	ORNAMENT	985	n/a	1	0	n/a	n/a	n/a	n/a	n/a
3625.546	n/a	RECOG_TARGET	1812773	n/a	LTP267	ltpFR	19	3	1	TWINE	1529	0	3	0	n/a	n/a	n/a	n/a	n/a
3626.0	n/a	RECOG_RESP	1813000	n/a	LTP267	ltpFR	19	3	1	TWINE	1529	0	n/a	0	n/a	n/a	n/a	n/a	n/a
3626.26	n/a	RECOG_CONF	1813130	n/a	LTP267	ltpFR	19	3	1	TWINE	1529	n/a	3	0	n/a	n/a	n/a	n/a	n/a
3628.006	n/a	RECOG_TARGET	1814003	n/a	LTP267	ltpFR	19	3	0	BUTTER	205	1	5	0	n/a	n/a	n/a	n/a	n/a
3628.506	n/a	RECOG_RESP	1814253	n/a	LTP267	ltpFR	19	3	0	BUTTER	205	1	n/a	0	n/a	n/a	n/a	n/a	n/a
3628.78	n/a	RECOG_CONF	1814390	n/a	LTP267	ltpFR	19	3	0	BUTTER	205	n/a	5	0	n/a	n/a	n/a	n/a	n/a
3630.448	n/a	RECOG_TARGET	1815224	n/a	LTP267	ltpFR	19	3	0	DOCK	477	1	5	0	n/a	n/a	n/a	n/a	n/a
3630.866	n/a	RECOG_RESP	1815433	n/a	LTP267	ltpFR	19	3	0	DOCK	477	1	n/a	0	n/a	n/a	n/a	n/a	n/a
3631.162	n/a	RECOG_CONF	1815581	n/a	LTP267	ltpFR	19	3	0	DOCK	477	n/a	5	0	n/a	n/a	n/a	n/a	n/a
3632.84	n/a	RECOG_LURE	1816420	n/a	LTP267	ltpFR	19	3	n/a	JELLY	755	1	4	n/a	n/a	n/a	n/a	n/a	n/a
3633.382	n/a	RECOG_RESP	1816691	n/a	LTP267	ltpFR	19	3	n/a	JELLY	755	1	n/a	n/a	n/a	n/a	n/a	n/a	n/a
3633.612	n/a	RECOG_CONF	1816806	n/a	LTP267	ltpFR	19	3	n/a	JELLY	755	n/a	4	n/a	n/a	n/a	n/a	n/a	n/a
3635.3	n/a	RECOG_TARGET	1817650	n/a	LTP267	ltpFR	19	3	-1	CONSOLE	364	1	5	-1	n/a	n/a	n/a	n/a	n/a
3635.752	n/a	RECOG_RESP	1817876	n/a	LTP267	ltpFR	19	3	-1	CONSOLE	364	1	n/a	-1	n/a	n/a	n/a	n/a	n/a
3636.042	n/a	RECOG_CONF	1818021	n/a	LTP267	ltpFR	19	3	-1	CONSOLE	364	n/a	5	-1	n/a	n/a	n/a	n/a	n/a
3638.028	n/a	RECOG_LURE	1819014	n/a	LTP267	ltpFR	19	3	n/a	WINNER	1615	1	1	n/a	n/a	n/a	n/a	n/a	n/a
3638.502	n/a	RECOG_RESP	1819251	n/a	LTP267	ltpFR	19	3	n/a	WINNER	1615	1	n/a	n/a	n/a	n/a	n/a	n/a	n/a
3638.822	n/a	RECOG_CONF	1819411	n/a	LTP267	ltpFR	19	3	n/a	WINNER	1615	n/a	1	n/a	n/a	n/a	n/a	n/a	n/a
3640.47	n/a	RECOG_TARGET	1820235	n/a	LTP267	ltpFR	19	3	1	ARTERY	41	0	5	1	n/a	n/a	n/a	n/a	n/a
3641.242	n/a	RECOG_RESP	1820621	n/a	LTP267	ltpFR	19	3	1	ARTERY	41	0	n/a	1	n/a	n/a	n/a	n/a	n/a
3641.532	n/a	RECOG_CONF	1820766	n/a	LTP267	ltpFR	19	3	1	ARTERY	41	n/a	5	1	n/a	n/a	n/a	n/a	n/a
3643.248	n/a	RECOG_LURE	1821624	n/a	LTP267	ltpFR	19	3	n/a	FAIRY	549	0	5	n/a	n/a	n/a	n/a	n/a	n/a
3644.132	n/a	RECOG_RESP	1822066	n/a	LTP267	ltpFR	19	3	n/a	FAIRY	549	0	n/a	n/a	n/a	n/a	n/a	n/a	n/a
3644.392	n/a	RECOG_CONF	1822196	n/a	LTP267	ltpFR	19	3	n/a	FAIRY	549	n/a	5	n/a	n/a	n/a	n/a	n/a	n/a
3646.124	n/a	RECOG_TARGET	1823062	n/a	LTP267	ltpFR	19	3	-1	TURKEY	1520	0	3	-1	n/a	n/a	n/a	n/a	n/a
3646.796	n/a	RECOG_RESP	1823398	n/a	LTP267	ltpFR	19	3	-1	TURKEY	1520	0	n/a	-1	n/a	n/a	n/a	n/a	n/a
3647.022	n/a	RECOG_CONF	1823511	n/a	LTP267	ltpFR	19	3	-1	TURKEY	1520	n/a	3	-1	n/a	n/a	n/a	n/a	n/a
3648.718	n/a	RECOG_TARGET	1824359	n/a	LTP267	ltpFR	19	3	0	BOOK	149	1	3	0	n/a	n/a	n/a	n/a	n/a
3649.286	n/a	RECOG_RESP	1824643	n/a	LTP267	ltpFR	19	3	0	BOOK	149	1	n/a	0	n/a	n/a	n/a	n/a	n/a
3649.612	n/a	RECOG_CONF	1824806	n/a	LTP267	ltpFR	19	3	0	BOOK	149	n/a	3	0	n/a	n/a	n/a	n/a	n/a
3651.228	n/a	RECOG_TARGET	1825614	n/a	LTP267	ltpFR	19	3	1	OATS	968	1	4	0	n/a	n/a	n/a	n/a	n/a
3651.668	n/a	RECOG_RESP	1825834	n/a	LTP267	ltpFR	19	3	1	OATS	968	1	n/a	0	n/a	n/a	n/a	n/a	n/a
3651.962	n/a	RECOG_CONF	1825981	n/a	LTP267	ltpFR	19	3	1	OATS	968	n/a	4	0	n/a	n/a	n/a	n/a	n/a
3653.538	n/a	RECOG_TARGET	1826769	n/a	LTP267	ltpFR	19	3	1	PUCK	1138	1	5	0	n/a	n/a	n/a	n/a	n/a
3653.888	n/a	RECOG_RESP	1826944	n/a	LTP267	ltpFR	19	3	1	PUCK	1138	1	n/a	0	n/a	n/a	n/a	n/a	n/a
3654.212	n/a	RECOG_CONF	1827106	n/a	LTP267	ltpFR	19	3	1	PUCK	1138	n/a	5	0	n/a	n/a	n/a	n/a	n/a
3655.812	n/a	RECOG_TARGET	1827906	n/a	LTP267	ltpFR	19	3	-1	ANKLE	24	1	5	-1	n/a	n/a	n/a	n/a	n/a
3656.242	n/a	RECOG_RESP	1828121	n/a	LTP267	ltpFR	19	3	-1	ANKLE	24	1	n/a	-1	n/a	n/a	n/a	n/a	n/a
3656.512	n/a	RECOG_CONF	1828256	n/a	LTP267	ltpFR	19	3	-1	ANKLE	24	n/a	5	-1	n/a	n/a	n/a	n/a	n/a
3658.138	n/a	RECOG_TARGET	1829069	n/a	LTP267	ltpFR	19	3	1	CONE	363	1	5	0	n/a	n/a	n/a	n/a	n/a
3658.628	n/a	RECOG_RESP	1829314	n/a	LTP267	ltpFR	19	3	1	CONE	363	1	n/a	0	n/a	n/a	n/a	n/a	n/a
3658.902	n/a	RECOG_CONF	1829451	n/a	LTP267	ltpFR	19	3	1	CONE	363	n/a	5	0	n/a	n/a	n/a	n/a	n/a
3660.58	n/a	RECOG_TARGET	1830290	n/a	LTP267	ltpFR	19	3	-1	RAZOR	1171	1	1	-1	n/a	n/a	n/a	n/a	n/a
3661.022	n/a	RECOG_RESP	1830511	n/a	LTP267	ltpFR	19	3	-1	RAZOR	1171	1	n/a	-1	n/a	n/a	n/a	n/a	n/a
3661.272	n/a	RECOG_CONF	1830636	n/a	LTP267	ltpFR	19	3	-1	RAZOR	1171	n/a	1	-1	n/a	n/a	n/a	n/a	n/a
3662.94	n/a	RECOG_LURE	1831470	n/a	LTP267	ltpFR	19	3	n/a	PEN	1041	1	2	n/a	n/a	n/a	n/a	n/a	n/a
3663.372	n/a	RECOG_RESP	1831686	n/a	LTP267	ltpFR	19	3	n/a	PEN	1041	1	n/a	n/a	n/a	n/a	n/a	n/a	n/a
3663.602	n/a	RECOG_CONF	1831801	n/a	LTP267	ltpFR	19	3	n/a	PEN	1041	n/a	2	n/a	n/a	n/a	n/a	n/a	n/a
3665.212	n/a	RECOG_TARGET	1832606	n/a	LTP267	ltpFR	19	3	-1	SAUSAGE	1238	1	4	-1	n/a	n/a	n/a	n/a	n/a
3665.742	n/a	RECOG_RESP	1832871	n/a	LTP267	ltpFR	19	3	-1	SAUSAGE	1238	1	n/a	-1	n/a	n/a	n/a	n/a	n/a
3666.002	n/a	RECOG_CONF	1833001	n/a	LTP267	ltpFR	19	3	-1	SAUSAGE	1238	n/a	4	-1	n/a	n/a	n/a	n/a	n/a
3667.624	n/a	RECOG_LURE	1833812	n/a	LTP267	ltpFR	19	3	n/a	CHISEL	305	1	5	n/a	n/a	n/a	n/a	n/a	n/a
3667.918	n/a	RECOG_RESP	1833959	n/a	LTP267	ltpFR	19	3	n/a	CHISEL	305	1	n/a	n/a	n/a	n/a	n/a	n/a	n/a
3668.222	n/a	RECOG_CONF	1834111	n/a	LTP267	ltpFR	19	3	n/a	CHISEL	305	n/a	5	n/a	n/a	n/a	n/a	n/a	n/a
3669.798	n/a	RECOG_TARGET	1834899	n/a	LTP267	ltpFR	19	3	-1	WORM	1623	1	5	-1	n/a	n/a	n/a	n/a	n/a
3670.264	n/a	RECOG_RESP	1835132	n/a	LTP267	ltpFR	19	3	-1	WORM	1623	1	n/a	-1	n/a	n/a	n/a	n/a	n/a
3670.534	n/a	RECOG_CONF	1835267	n/a	LTP267	ltpFR	19	3	-1	WORM	1623	n/a	5	-1	n/a	n/a	n/a	n/a	n/a
3675.052	n/a	REC_START	1837526	n/a	LTP267	ltpFR	19	4	n/a	n/a	n/a	n/a	n/a	n/a	n/a	n/a	n/a	n/a	n/a
3675.102	n/a	RECOG_TARGET	1837551	n/a	LTP267	ltpFR	19	4	-1	ISLAND	745	1	5	-1	n/a	n/a	n/a	n/a	n/a
3675.682	n/a	RECOG_RESP	1837841	n/a	LTP267	ltpFR	19	4	-1	ISLAND	745	1	n/a	-1	n/a	n/a	n/a	n/a	n/a
3675.962	n/a	RECOG_CONF	1837981	n/a	LTP267	ltpFR	19	4	-1	ISLAND	745	n/a	5	-1	n/a	n/a	n/a	n/a	n/a
3677.444	n/a	RECOG_TARGET	1838722	n/a	LTP267	ltpFR	19	4	0	MUSTARD	935	1	2	0	n/a	n/a	n/a	n/a	n/a
3678.088	n/a	RECOG_RESP	1839044	n/a	LTP267	ltpFR	19	4	0	MUSTARD	935	1	n/a	0	n/a	n/a	n/a	n/a	n/a
3678.372	n/a	RECOG_CONF	1839186	n/a	LTP267	ltpFR	19	4	0	MUSTARD	935	n/a	2	0	n/a	n/a	n/a	n/a	n/a
3679.938	n/a	RECOG_TARGET	1839969	n/a	LTP267	ltpFR	19	4	1	AGENT	10	1	4	0	n/a	n/a	n/a	n/a	n/a
3680.468	n/a	RECOG_RESP	1840234	n/a	LTP267	ltpFR	19	4	1	AGENT	10	1	n/a	0	n/a	n/a	n/a	n/a	n/a
3680.732	n/a	RECOG_CONF	1840366	n/a	LTP267	ltpFR	19	4	1	AGENT	10	n/a	4	0	n/a	n/a	n/a	n/a	n/a
3682.414	n/a	RECOG_LURE	1841207	n/a	LTP267	ltpFR	19	4	n/a	COBRA	336	1	1	n/a	n/a	n/a	n/a	n/a	n/a
3682.832	n/a	RECOG_RESP	1841416	n/a	LTP267	ltpFR	19	4	n/a	COBRA	336	1	n/a	n/a	n/a	n/a	n/a	n/a	n/a
3683.072	n/a	RECOG_CONF	1841536	n/a	LTP267	ltpFR	19	4	n/a	COBRA	336	n/a	1	n/a	n/a	n/a	n/a	n/a	n/a
3684.856	n/a	RECOG_LURE	1842428	n/a	LTP267	ltpFR	19	4	n/a	ANTEATER	26	1	4	n/a	n/a	n/a	n/a	n/a	n/a
3685.212	n/a	RECOG_RESP	1842606	n/a	LTP267	ltpFR	19	4	n/a	ANTEATER	26	1	n/a	n/a	n/a	n/a	n/a	n/a	n/a
3685.522	n/a	RECOG_CONF	1842761	n/a	LTP267	ltpFR	19	4	n/a	ANTEATER	26	n/a	4	n/a	n/a	n/a	n/a	n/a	n/a
3687.198	n/a	RECOG_LURE	1843599	n/a	LTP267	ltpFR	19	4	n/a	BOMB	147	0	5	n/a	n/a	n/a	n/a	n/a	n/a
3687.894	n/a	RECOG_RESP	1843947	n/a	LTP267	ltpFR	19	4	n/a	BOMB	147	0	n/a	n/a	n/a	n/a	n/a	n/a	n/a
3688.114	n/a	RECOG_CONF	1844057	n/a	LTP267	ltpFR	19	4	n/a	BOMB	147	n/a	5	n/a	n/a	n/a	n/a	n/a	n/a
3689.692	n/a	RECOG_LURE	1844846	n/a	LTP267	ltpFR	19	4	n/a	CHAMBER	277	0	3	n/a	n/a	n/a	n/a	n/a	n/a
3690.284	n/a	RECOG_RESP	1845142	n/a	LTP267	ltpFR	19	4	n/a	CHAMBER	277	0	n/a	n/a	n/a	n/a	n/a	n/a	n/a
3690.454	n/a	RECOG_CONF	1845227	n/a	LTP267	ltpFR	19	4	n/a	CHAMBER	277	n/a	3	n/a	n/a	n/a	n/a	n/a	n/a
3692.118	n/a	RECOG_LURE	1846059	n/a	LTP267	ltpFR	19	4	n/a	HOUND	724	0	4	n/a	n/a	n/a	n/a	n/a	n/a
3692.894	n/a	RECOG_RESP	1846447	n/a	LTP267	ltpFR	19	4	n/a	HOUND	724	0	n/a	n/a	n/a	n/a	n/a	n/a	n/a
3693.074	n/a	RECOG_CONF	1846537	n/a	LTP267	ltpFR	19	4	n/a	HOUND	724	n/a	4	n/a	n/a	n/a	n/a	n/a	n/a
3694.826	n/a	RECOG_LURE	1847413	n/a	LTP267	ltpFR	19	4	n/a	CURB	426	0	3	n/a	n/a	n/a	n/a	n/a	n/a
3695.524	n/a	RECOG_RESP	1847762	n/a	LTP267	ltpFR	19	4	n/a	CURB	426	0	n/a	n/a	n/a	n/a	n/a	n/a	n/a
3695.754	n/a	RECOG_CONF	1847877	n/a	LTP267	ltpFR	19	4	n/a	CURB	426	n/a	3	n/a	n/a	n/a	n/a	n/a	n/a
3697.372	n/a	RECOG_TARGET	1848686	n/a	LTP267	ltpFR	19	4	0	TROUSERS	1510	1	5	1	n/a	n/a	n/a	n/a	n/a
3698.274	n/a	RECOG_RESP	1849137	n/a	LTP267	ltpFR	19	4	0	TROUSERS	1510	1	n/a	1	n/a	n/a	n/a	n/a	n/a
3698.534	n/a	RECOG_CONF	1849267	n/a	LTP267	ltpFR	19	4	0	TROUSERS	1510	n/a	5	1	n/a	n/a	n/a	n/a	n/a
3700.232	n/a	RECOG_LURE	1850116	n/a	LTP267	ltpFR	19	4	n/a	VET	1560	1	3	n/a	n/a	n/a	n/a	n/a	n/a
3700.714	n/a	RECOG_RESP	1850357	n/a	LTP267	ltpFR	19	4	n/a	VET	1560	1	n/a	n/a	n/a	n/a	n/a	n/a	n/a
3700.974	n/a	RECOG_CONF	1850487	n/a	LTP267	ltpFR	19	4	n/a	VET	1560	n/a	3	n/a	n/a	n/a	n/a	n/a	n/a
3702.608	n/a	RECOG_LURE	1851304	n/a	LTP267	ltpFR	19	4	n/a	ORGAN	984	1	5	n/a	n/a	n/a	n/a	n/a	n/a
3703.068	n/a	RECOG_RESP	1851534	n/a	LTP267	ltpFR	19	4	n/a	ORGAN	984	1	n/a	n/a	n/a	n/a	n/a	n/a	n/a
3703.354	n/a	RECOG_CONF	1851677	n/a	LTP267	ltpFR	19	4	n/a	ORGAN	984	n/a	5	n/a	n/a	n/a	n/a	n/a	n/a
3704.964	n/a	RECOG_LURE	1852482	n/a	LTP267	ltpFR	19	4	n/a	CROW	414	0	1	n/a	n/a	n/a	n/a	n/a	n/a
3705.604	n/a	RECOG_RESP	1852802	n/a	LTP267	ltpFR	19	4	n/a	CROW	414	0	n/a	n/a	n/a	n/a	n/a	n/a	n/a
3705.844	n/a	RECOG_CONF	1852922	n/a	LTP267	ltpFR	19	4	n/a	CROW	414	n/a	1	n/a	n/a	n/a	n/a	n/a	n/a
3707.476	n/a	RECOG_LURE	1853738	n/a	LTP267	ltpFR	19	4	n/a	CROOK	412	0	4	n/a	n/a	n/a	n/a	n/a	n/a
3708.104	n/a	RECOG_RESP	1854052	n/a	LTP267	ltpFR	19	4	n/a	CROOK	412	0	n/a	n/a	n/a	n/a	n/a	n/a	n/a
3708.274	n/a	RECOG_CONF	1854137	n/a	LTP267	ltpFR	19	4	n/a	CROOK	412	n/a	4	n/a	n/a	n/a	n/a	n/a	n/a
3709.936	n/a	RECOG_TARGET	1854968	n/a	LTP267	ltpFR	19	4	1	HAWK	692	0	2	1	n/a	n/a	n/a	n/a	n/a
3710.494	n/a	RECOG_RESP	1855247	n/a	LTP267	ltpFR	19	4	1	HAWK	692	0	n/a	1	n/a	n/a	n/a	n/a	n/a
3710.704	n/a	RECOG_CONF	1855352	n/a	LTP267	ltpFR	19	4	1	HAWK	692	n/a	2	1	n/a	n/a	n/a	n/a	n/a
3712.328	n/a	RECOG_LURE	1856164	n/a	LTP267	ltpFR	19	4	n/a	ALLIGATOR	16	0	5	n/a	n/a	n/a	n/a	n/a	n/a
3713.124	n/a	RECOG_RESP	1856562	n/a	LTP267	ltpFR	19	4	n/a	ALLIGATOR	16	0	n/a	n/a	n/a	n/a	n/a	n/a	n/a
3713.284	n/a	RECOG_CONF	1856642	n/a	LTP267	ltpFR	19	4	n/a	ALLIGATOR	16	n/a	5	n/a	n/a	n/a	n/a	n/a	n/a
3715.038	n/a	RECOG_LURE	1857519	n/a	LTP267	ltpFR	19	4	n/a	SKIRT	1319	0	3	n/a	n/a	n/a	n/a	n/a	n/a
3715.794	n/a	RECOG_RESP	1857897	n/a	LTP267	ltpFR	19	4	n/a	SKIRT	1319	0	n/a	n/a	n/a	n/a	n/a	n/a	n/a
3715.954	n/a	RECOG_CONF	1857977	n/a	LTP267	ltpFR	19	4	n/a	SKIRT	1319	n/a	3	n/a	n/a	n/a	n/a	n/a	n/a
3717.648	n/a	RECOG_LURE	1858824	n/a	LTP267	ltpFR	19	4	n/a	PERFUME	1049	0	4	n/a	n/a	n/a	n/a	n/a	n/a
3718.22	n/a	RECOG_RESP	1859110	n/a	LTP267	ltpFR	19	4	n/a	PERFUME	1049	0	n/a	n/a	n/a	n/a	n/a	n/a	n/a
3718.374	n/a	RECOG_CONF	1859187	n/a	LTP267	ltpFR	19	4	n/a	PERFUME	1049	n/a	4	n/a	n/a	n/a	n/a	n/a	n/a
3720.09	n/a	RECOG_LURE	1860045	n/a	LTP267	ltpFR	19	4	n/a	GARLIC	624	0	5	n/a	n/a	n/a	n/a	n/a	n/a
3720.564	n/a	RECOG_RESP	1860282	n/a	LTP267	ltpFR	19	4	n/a	GARLIC	624	0	n/a	n/a	n/a	n/a	n/a	n/a	n/a
3720.744	n/a	RECOG_CONF	1860372	n/a	LTP267	ltpFR	19	4	n/a	GARLIC	624	n/a	5	n/a	n/a	n/a	n/a	n/a	n/a
3722.718	n/a	RECOG_TARGET	1861359	n/a	LTP267	ltpFR	19	4	1	AUTHOR	61	1	1	1	n/a	n/a	n/a	n/a	n/a
3723.454	n/a	RECOG_RESP	1861727	n/a	LTP267	ltpFR	19	4	1	AUTHOR	61	1	n/a	1	n/a	n/a	n/a	n/a	n/a
3723.784	n/a	RECOG_CONF	1861892	n/a	LTP267	ltpFR	19	4	1	AUTHOR	61	n/a	1	1	n/a	n/a	n/a	n/a	n/a
3745.126	n/a	REC_START	1872563	n/a	LTP267	ltpFR	19	5	n/a	n/a	n/a	n/a	n/a	n/a	n/a	n/a	n/a	n/a	n/a
3745.188	n/a	RECOG_TARGET	1872594	n/a	LTP267	ltpFR	19	5	0	TONGUE	1479	1	5	0	n/a	n/a	n/a	n/a	n/a
3745.912	n/a	RECOG_RESP	1872956	n/a	LTP267	ltpFR	19	5	0	TONGUE	1479	1	n/a	0	n/a	n/a	n/a	n/a	n/a
3746.186	n/a	RECOG_CONF	1873093	n/a	LTP267	ltpFR	19	5	0	TONGUE	1479	n/a	5	0	n/a	n/a	n/a	n/a	n/a
3747.998	n/a	RECOG_LURE	1873999	n/a	LTP267	ltpFR	19	5	n/a	MAMMAL	861	1	3	n/a	n/a	n/a	n/a	n/a	n/a
3748.446	n/a	RECOG_RESP	1874223	n/a	LTP267	ltpFR	19	5	n/a	MAMMAL	861	1	n/a	n/a	n/a	n/a	n/a	n/a	n/a
3748.736	n/a	RECOG_CONF	1874368	n/a	LTP267	ltpFR	19	5	n/a	MAMMAL	861	n/a	3	n/a	n/a	n/a	n/a	n/a	n/a
3750.408	n/a	RECOG_LURE	1875204	n/a	LTP267	ltpFR	19	5	n/a	NERVE	944	0	3	n/a	n/a	n/a	n/a	n/a	n/a
3751.042	n/a	RECOG_RESP	1875521	n/a	LTP267	ltpFR	19	5	n/a	NERVE	944	0	n/a	n/a	n/a	n/a	n/a	n/a	n/a
3751.436	n/a	RECOG_CONF	1875718	n/a	LTP267	ltpFR	19	5	n/a	NERVE	944	n/a	3	n/a	n/a	n/a	n/a	n/a	n/a
3753.084	n/a	RECOG_LURE	1876542	n/a	LTP267	ltpFR	19	5	n/a	FRAGRANCE	599	0	4	n/a	n/a	n/a	n/a	n/a	n/a
3753.702	n/a	RECOG_RESP	1876851	n/a	LTP267	ltpFR	19	5	n/a	FRAGRANCE	599	0	n/a	n/a	n/a	n/a	n/a	n/a	n/a
3753.956	n/a	RECOG_CONF	1876978	n/a	LTP267	ltpFR	19	5	n/a	FRAGRANCE	599	n/a	4	n/a	n/a	n/a	n/a	n/a	n/a
3755.86	n/a	RECOG_TARGET	1877930	n/a	LTP267	ltpFR	19	5	0	VIOLIN	1571	1	5	1	n/a	n/a	n/a	n/a	n/a
3756.69	n/a	RECOG_RESP	1878345	n/a	LTP267	ltpFR	19	5	0	VIOLIN	1571	1	n/a	1	n/a	n/a	n/a	n/a	n/a
3757.006	n/a	RECOG_CONF	1878503	n/a	LTP267	ltpFR	19	5	0	VIOLIN	1571	n/a	5	1	n/a	n/a	n/a	n/a	n/a
3758.638	n/a	RECOG_LURE	1879319	n/a	LTP267	ltpFR	19	5	n/a	JOKER	759	0	5	n/a	n/a	n/a	n/a	n/a	n/a
3759.396	n/a	RECOG_RESP	1879698	n/a	LTP267	ltpFR	19	5	n/a	JOKER	759	0	n/a	n/a	n/a	n/a	n/a	n/a	n/a
3759.626	n/a	RECOG_CONF	1879813	n/a	LTP267	ltpFR	19	5	n/a	JOKER	759	n/a	5	n/a	n/a	n/a	n/a	n/a	n/a
3761.35	n/a	RECOG_LURE	1880675	n/a	LTP267	ltpFR	19	5	n/a	HOSTESS	723	0	1	n/a	n/a	n/a	n/a	n/a	n/a
3762.036	n/a	RECOG_RESP	1881018	n/a	LTP267	ltpFR	19	5	n/a	HOSTESS	723	0	n/a	n/a	n/a	n/a	n/a	n/a	n/a
3762.616	n/a	RECOG_CONF	1881308	n/a	LTP267	ltpFR	19	5	n/a	HOSTESS	723	n/a	1	n/a	n/a	n/a	n/a	n/a	n/a
3764.278	n/a	RECOG_TARGET	1882139	n/a	LTP267	ltpFR	19	5	-1	CLOSET	326	0	3	-1	n/a	n/a	n/a	n/a	n/a
3765.048	n/a	RECOG_RESP	1882524	n/a	LTP267	ltpFR	19	5	-1	CLOSET	326	0	n/a	-1	n/a	n/a	n/a	n/a	n/a
3765.308	n/a	RECOG_CONF	1882654	n/a	LTP267	ltpFR	19	5	-1	CLOSET	326	n/a	3	-1	n/a	n/a	n/a	n/a	n/a
3767.086	n/a	RECOG_LURE	1883543	n/a	LTP267	ltpFR	19	5	n/a	TOURIST	1488	1	4	n/a	n/a	n/a	n/a	n/a	n/a
3767.548	n/a	RECOG_RESP	1883774	n/a	LTP267	ltpFR	19	5	n/a	TOURIST	1488	1	n/a	n/a	n/a	n/a	n/a	n/a	n/a
3767.898	n/a	RECOG_CONF	1883949	n/a	LTP267	ltpFR	19	5	n/a	TOURIST	1488	n/a	4	n/a	n/a	n/a	n/a	n/a	n/a
3769.514	n/a	RECOG_TARGET	1884757	n/a	LTP267	ltpFR	19	5	1	TACK	1428	1	3	0	n/a	n/a	n/a	n/a	n/a
3770.018	n/a	RECOG_RESP	1885009	n/a	LTP267	ltpFR	19	5	1	TACK	1428	1	n/a	0	n/a	n/a	n/a	n/a	n/a
3770.338	n/a	RECOG_CONF	1885169	n/a	LTP267	ltpFR	19	5	1	TACK	1428	n/a	3	0	n/a	n/a	n/a	n/a	n/a
3771.838	n/a	RECOG_TARGET	1885919	n/a	LTP267	ltpFR	19	5	0	RADIO	1157	1	4	0	n/a	n/a	n/a	n/a	n/a
3772.428	n/a	RECOG_RESP	1886214	n/a	LTP267	ltpFR	19	5	0	RADIO	1157	1	n/a	0	n/a	n/a	n/a	n/a	n/a
3772.708	n/a	RECOG_CONF	1886354	n/a	LTP267	ltpFR	19	5	0	RADIO	1157	n/a	4	0	n/a	n/a	n/a	n/a	n/a
3774.416	n/a	RECOG_TARGET	1887208	n/a	LTP267	ltpFR	19	5	0	COUSIN	392	1	5	1	n/a	n/a	n/a	n/a	n/a
3774.888	n/a	RECOG_RESP	1887444	n/a	LTP267	ltpFR	19	5	0	COUSIN	392	1	n/a	1	n/a	n/a	n/a	n/a	n/a
3775.128	n/a	RECOG_CONF	1887564	n/a	LTP267	ltpFR	19	5	0	COUSIN	392	n/a	5	1	n/a	n/a	n/a	n/a	n/a
3776.674	n/a	RECOG_TARGET	1888337	n/a	LTP267	ltpFR	19	5	0	ATTIC	56	1	3	1	n/a	n/a	n/a	n/a	n/a
3777.198	n/a	RECOG_RESP	1888599	n/a	LTP267	ltpFR	19	5	0	ATTIC	56	1	n/a	1	n/a	n/a	n/a	n/a	n/a
3777.438	n/a	RECOG_CONF	1888719	n/a	LTP267	ltpFR	19	5	0	ATTIC	56	n/a	3	1	n/a	n/a	n/a	n/a	n/a
3779.066	n/a	RECOG_TARGET	1889533	n/a	LTP267	ltpFR	19	5	0	GRATE	657	1	3	0	n/a	n/a	n/a	n/a	n/a
3779.428	n/a	RECOG_RESP	1889714	n/a	LTP267	ltpFR	19	5	0	GRATE	657	1	n/a	0	n/a	n/a	n/a	n/a	n/a
3779.688	n/a	RECOG_CONF	1889844	n/a	LTP267	ltpFR	19	5	0	GRATE	657	n/a	3	0	n/a	n/a	n/a	n/a	n/a
3781.292	n/a	RECOG_TARGET	1890646	n/a	LTP267	ltpFR	19	5	1	BUSH	202	1	5	0	n/a	n/a	n/a	n/a	n/a
3781.652	n/a	RECOG_RESP	1890826	n/a	LTP267	ltpFR	19	5	1	BUSH	202	1	n/a	0	n/a	n/a	n/a	n/a	n/a
3781.928	n/a	RECOG_CONF	1890964	n/a	LTP267	ltpFR	19	5	1	BUSH	202	n/a	5	0	n/a	n/a	n/a	n/a	n/a
3783.732	n/a	RECOG_LURE	1891866	n/a	LTP267	ltpFR	19	5	n/a	ELF	525	1	3	n/a	n/a	n/a	n/a	n/a	n/a
3784.098	n/a	RECOG_RESP	1892049	n/a	LTP267	ltpFR	19	5	n/a	ELF	525	1	n/a	n/a	n/a	n/a	n/a	n/a	n/a
3784.448	n/a	RECOG_CONF	1892224	n/a	LTP267	ltpFR	19	5	n/a	ELF	525	n/a	3	n/a	n/a	n/a	n/a	n/a	n/a
3786.042	n/a	RECOG_TARGET	1893021	n/a	LTP267	ltpFR	19	5	1	CUFF	423	1	4	0	n/a	n/a	n/a	n/a	n/a
3786.414	n/a	RECOG_RESP	1893207	n/a	LTP267	ltpFR	19	5	1	CUFF	423	1	n/a	0	n/a	n/a	n/a	n/a	n/a
3786.678	n/a	RECOG_CONF	1893339	n/a	LTP267	ltpFR	19	5	1	CUFF	423	n/a	4	0	n/a	n/a	n/a	n/a	n/a
3788.302	n/a	RECOG_TARGET	1894151	n/a	LTP267	ltpFR	19	5	1	STUMP	1396	1	5	0	n/a	n/a	n/a	n/a	n/a
3788.568	n/a	RECOG_RESP	1894284	n/a	LTP267	ltpFR	19	5	1	STUMP	1396	1	n/a	0	n/a	n/a	n/a	n/a	n/a
3788.898	n/a	RECOG_CONF	1894449	n/a	LTP267	ltpFR	19	5	1	STUMP	1396	n/a	5	0	n/a	n/a	n/a	n/a	n/a
3790.608	n/a	RECOG_TARGET	1895304	n/a	LTP267	ltpFR	19	5	0	PEOPLE	1046	1	5	1	n/a	n/a	n/a	n/a	n/a
3790.894	n/a	RECOG_RESP	1895447	n/a	LTP267	ltpFR	19	5	0	PEOPLE	1046	1	n/a	1	n/a	n/a	n/a	n/a	n/a
3791.198	n/a	RECOG_CONF	1895599	n/a	LTP267	ltpFR	19	5	0	PEOPLE	1046	n/a	5	1	n/a	n/a	n/a	n/a	n/a
3792.668	n/a	RECOG_TARGET	1896334	n/a	LTP267	ltpFR	19	5	1	CHIPMUNK	304	1	1	1	n/a	n/a	n/a	n/a	n/a
3793.058	n/a	RECOG_RESP	1896529	n/a	LTP267	ltpFR	19	5	1	CHIPMUNK	304	1	n/a	1	n/a	n/a	n/a	n/a	n/a
3793.308	n/a	RECOG_CONF	1896654	n/a	LTP267	ltpFR	19	5	1	CHIPMUNK	304	n/a	1	1	n/a	n/a	n/a	n/a	n/a
3796.924	n/a	REC_START	1898462	n/a	LTP267	ltpFR	19	6	n/a	n/a	n/a	n/a	n/a	n/a	n/a	n/a	n/a	n/a	n/a
3796.968	n/a	RECOG_TARGET	1898484	n/a	LTP267	ltpFR	19	6	0	TUSK	1523	1	2	0	n/a	n/a	n/a	n/a	n/a
3797.458	n/a	RECOG_RESP	1898729	n/a	LTP267	ltpFR	19	6	0	TUSK	1523	1	n/a	0	n/a	n/a	n/a	n/a	n/a
3797.714	n/a	RECOG_CONF	1898857	n/a	LTP267	ltpFR	19	6	0	TUSK	1523	n/a	2	0	n/a	n/a	n/a	n/a	n/a
3799.428	n/a	RECOG_TARGET	1899714	n/a	LTP267	ltpFR	19	6	1	BISON	131	1	5	1	n/a	n/a	n/a	n/a	n/a
3799.654	n/a	RECOG_RESP	1899827	n/a	LTP267	ltpFR	19	6	1	BISON	131	1	n/a	1	n/a	n/a	n/a	n/a	n/a
3800.004	n/a	RECOG_CONF	1900002	n/a	LTP267	ltpFR	19	6	1	BISON	131	n/a	5	1	n/a	n/a	n/a	n/a	n/a
3801.536	n/a	RECOG_LURE	1900768	n/a	LTP267	ltpFR	19	6	n/a	DICE	461	1	1	n/a	n/a	n/a	n/a	n/a	n/a
3801.944	n/a	RECOG_RESP	1900972	n/a	LTP267	ltpFR	19	6	n/a	DICE	461	1	n/a	n/a	n/a	n/a	n/a	n/a	n/a
3802.284	n/a	RECOG_CONF	1901142	n/a	LTP267	ltpFR	19	6	n/a	DICE	461	n/a	1	n/a	n/a	n/a	n/a	n/a	n/a
3803.844	n/a	RECOG_LURE	1901922	n/a	LTP267	ltpFR	19	6	n/a	PIGEON	1065	1	1	n/a	n/a	n/a	n/a	n/a	n/a
3804.14	n/a	RECOG_RESP	1902070	n/a	LTP267	ltpFR	19	6	n/a	PIGEON	1065	1	n/a	n/a	n/a	n/a	n/a	n/a	n/a
3804.434	n/a	RECOG_CONF	1902217	n/a	LTP267	ltpFR	19	6	n/a	PIGEON	1065	n/a	1	n/a	n/a	n/a	n/a	n/a	n/a
3806.07	n/a	RECOG_TARGET	1903035	n/a	LTP267	ltpFR	19	6	1	MOAT	903	1	5	1	n/a	n/a	n/a	n/a	n/a
3806.63	n/a	RECOG_RESP_VV	1903315	n/a	LTP267	ltpFR	19	6	1	MOAT	903	0	n/a	1	n/a	n/a	n/a	n/a	n/a
3807.07	n/a	RECOG_RESP	1903535	n/a	LTP267	ltpFR	19	6	1	MOAT	903	1	n/a	1	n/a	n/a	n/a	n/a	n/a
3807.424	n/a	RECOG_CONF	1903712	n/a	LTP267	ltpFR	19	6	1	MOAT	903	n/a	5	1	n/a	n/a	n/a	n/a	n/a
3809.062	n/a	RECOG_LURE	1904531	n/a	LTP267	ltpFR	19	6	n/a	DESK	452	0	4	n/a	n/a	n/a	n/a	n/a	n/a
3809.564	n/a	RECOG_RESP	1904782	n/a	LTP267	ltpFR	19	6	n/a	DESK	452	0	n/a	n/a	n/a	n/a	n/a	n/a	n/a
3810.024	n/a	RECOG_CONF	1905012	n/a	LTP267	ltpFR	19	6	n/a	DESK	452	n/a	4	n/a	n/a	n/a	n/a	n/a	n/a
3811.74	n/a	RECOG_TARGET	1905870	n/a	LTP267	ltpFR	19	6	1	PORTRAIT	1111	0	1	1	n/a	n/a	n/a	n/a	n/a
3812.184	n/a	RECOG_RESP	1906092	n/a	LTP267	ltpFR	19	6	1	PORTRAIT	1111	0	n/a	1	n/a	n/a	n/a	n/a	n/a
3812.514	n/a	RECOG_CONF	1906257	n/a	LTP267	ltpFR	19	6	1	PORTRAIT	1111	n/a	1	1	n/a	n/a	n/a	n/a	n/a
3814.1	n/a	RECOG_LURE	1907050	n/a	LTP267	ltpFR	19	6	n/a	CYCLONE	431	1	5	n/a	n/a	n/a	n/a	n/a	n/a
3814.564	n/a	RECOG_RESP	1907282	n/a	LTP267	ltpFR	19	6	n/a	CYCLONE	431	1	n/a	n/a	n/a	n/a	n/a	n/a	n/a
3814.884	n/a	RECOG_CONF	1907442	n/a	LTP267	ltpFR	19	6	n/a	CYCLONE	431	n/a	5	n/a	n/a	n/a	n/a	n/a	n/a
3816.492	n/a	RECOG_LURE	1908246	n/a	LTP267	ltpFR	19	6	n/a	DENTIST	447	1	2	n/a	n/a	n/a	n/a	n/a	n/a
3816.764	n/a	RECOG_RESP	1908382	n/a	LTP267	ltpFR	19	6	n/a	DENTIST	447	1	n/a	n/a	n/a	n/a	n/a	n/a	n/a
3817.124	n/a	RECOG_CONF	1908562	n/a	LTP267	ltpFR	19	6	n/a	DENTIST	447	n/a	2	n/a	n/a	n/a	n/a	n/a	n/a
3818.718	n/a	RECOG_LURE	1909359	n/a	LTP267	ltpFR	19	6	n/a	OINTMENT	974	0	4	n/a	n/a	n/a	n/a	n/a	n/a
3819.56	n/a	RECOG_RESP	1909780	n/a	LTP267	ltpFR	19	6	n/a	OINTMENT	974	0	n/a	n/a	n/a	n/a	n/a	n/a	n/a
3820.014	n/a	RECOG_CONF	1910007	n/a	LTP267	ltpFR	19	6	n/a	OINTMENT	974	n/a	4	n/a	n/a	n/a	n/a	n/a	n/a
3822.112	n/a	RECOG_LURE	1911056	n/a	LTP267	ltpFR	19	6	n/a	ROOT	1210	0	3	n/a	n/a	n/a	n/a	n/a	n/a
3822.676	n/a	RECOG_RESP	1911338	n/a	LTP267	ltpFR	19	6	n/a	ROOT	1210	0	n/a	n/a	n/a	n/a	n/a	n/a	n/a
3822.996	n/a	RECOG_CONF	1911498	n/a	LTP267	ltpFR	19	6	n/a	ROOT	1210	n/a	3	n/a	n/a	n/a	n/a	n/a	n/a
3824.674	n/a	RECOG_TARGET	1912337	n/a	LTP267	ltpFR	19	6	1	UNICORN	1538	1	5	1	n/a	n/a	n/a	n/a	n/a
3825.236	n/a	RECOG_RESP	1912618	n/a	LTP267	ltpFR	19	6	1	UNICORN	1538	1	n/a	1	n/a	n/a	n/a	n/a	n/a
3825.606	n/a	RECOG_CONF	1912803	n/a	LTP267	ltpFR	19	6	1	UNICORN	1538	n/a	5	1	n/a	n/a	n/a	n/a	n/a
3827.184	n/a	RECOG_TARGET	1913592	n/a	LTP267	ltpFR	19	6	-1	JEANS	752	1	5	-1	n/a	n/a	n/a	n/a	n/a
3827.666	n/a	RECOG_RESP	1913833	n/a	LTP267	ltpFR	19	6	-1	JEANS	752	1	n/a	-1	n/a	n/a	n/a	n/a	n/a
3827.966	n/a	RECOG_CONF	1913983	n/a	LTP267	ltpFR	19	6	-1	JEANS	752	n/a	5	-1	n/a	n/a	n/a	n/a	n/a
3829.608	n/a	RECOG_TARGET	1914804	n/a	LTP267	ltpFR	19	6	1	NOSE	957	1	2	0	n/a	n/a	n/a	n/a	n/a
3830.046	n/a	RECOG_RESP	1915023	n/a	LTP267	ltpFR	19	6	1	NOSE	957	1	n/a	0	n/a	n/a	n/a	n/a	n/a
3830.306	n/a	RECOG_CONF	1915153	n/a	LTP267	ltpFR	19	6	1	NOSE	957	n/a	2	0	n/a	n/a	n/a	n/a	n/a
3831.952	n/a	RECOG_LURE	1915976	n/a	LTP267	ltpFR	19	6	n/a	CHAPEL	280	1	1	n/a	n/a	n/a	n/a	n/a	n/a
3832.426	n/a	RECOG_RESP	1916213	n/a	LTP267	ltpFR	19	6	n/a	CHAPEL	280	1	n/a	n/a	n/a	n/a	n/a	n/a	n/a
3832.706	n/a	RECOG_CONF	1916353	n/a	LTP267	ltpFR	19	6	n/a	CHAPEL	280	n/a	1	n/a	n/a	n/a	n/a	n/a	n/a
3834.312	n/a	RECOG_TARGET	1917156	n/a	LTP267	ltpFR	19	6	1	DOG	480	1	3	1	n/a	n/a	n/a	n/a	n/a
3834.946	n/a	RECOG_RESP	1917473	n/a	LTP267	ltpFR	19	6	1	DOG	480	1	n/a	1	n/a	n/a	n/a	n/a	n/a
3835.256	n/a	RECOG_CONF	1917628	n/a	LTP267	ltpFR	19	6	1	DOG	480	n/a	3	1	n/a	n/a	n/a	n/a	n/a
3836.77	n/a	RECOG_TARGET	1918385	n/a	LTP267	ltpFR	19	6	0	IGLOO	734	1	4	1	n/a	n/a	n/a	n/a	n/a
3837.246	n/a	RECOG_RESP	1918623	n/a	LTP267	ltpFR	19	6	0	IGLOO	734	1	n/a	1	n/a	n/a	n/a	n/a	n/a
3837.536	n/a	RECOG_CONF	1918768	n/a	LTP267	ltpFR	19	6	0	IGLOO	734	n/a	4	1	n/a	n/a	n/a	n/a	n/a
3839.112	n/a	RECOG_TARGET	1919556	n/a	LTP267	ltpFR	19	6	1	SISTER	1312	1	5	1	n/a	n/a	n/a	n/a	n/a
3839.532	n/a	RECOG_RESP	1919766	n/a	LTP267	ltpFR	19	6	1	SISTER	1312	1	n/a	1	n/a	n/a	n/a	n/a	n/a
3839.776	n/a	RECOG_CONF	1919888	n/a	LTP267	ltpFR	19	6	1	SISTER	1312	n/a	5	1	n/a	n/a	n/a	n/a	n/a
3841.556	n/a	RECOG_TARGET	1920778	n/a	LTP267	ltpFR	19	6	0	DIGGER	464	1	5	0	n/a	n/a	n/a	n/a	n/a
3841.936	n/a	RECOG_RESP	1920968	n/a	LTP267	ltpFR	19	6	0	DIGGER	464	1	n/a	0	n/a	n/a	n/a	n/a	n/a
3842.226	n/a	RECOG_CONF	1921113	n/a	LTP267	ltpFR	19	6	0	DIGGER	464	n/a	5	0	n/a	n/a	n/a	n/a	n/a
3843.964	n/a	RECOG_TARGET	1921982	n/a	LTP267	ltpFR	19	6	-1	PEAR	1033	1	3	-1	n/a	n/a	n/a	n/a	n/a
3844.356	n/a	RECOG_RESP	1922178	n/a	LTP267	ltpFR	19	6	-1	PEAR	1033	1	n/a	-1	n/a	n/a	n/a	n/a	n/a
3844.626	n/a	RECOG_CONF	1922313	n/a	LTP267	ltpFR	19	6	-1	PEAR	1033	n/a	3	-1	n/a	n/a	n/a	n/a	n/a
3852.806	n/a	REC_START	1926403	n/a	LTP267	ltpFR	19	7	n/a	n/a	n/a	n/a	n/a	n/a	n/a	n/a	n/a	n/a	n/a
3852.848	n/a	RECOG_TARGET	1926424	n/a	LTP267	ltpFR	19	7	1	MOTOR	922	1	3	2	n/a	n/a	n/a	n/a	n/a
3853.36	n/a	RECOG_RESP	1926680	n/a	LTP267	ltpFR	19	7	1	MOTOR	922	1	n/a	2	n/a	n/a	n/a	n/a	n/a
3853.656	n/a	RECOG_CONF	1926828	n/a	LTP267	ltpFR	19	7	1	MOTOR	922	n/a	3	2	n/a	n/a	n/a	n/a	n/a
3855.542	n/a	RECOG_LURE	1927771	n/a	LTP267	ltpFR	19	7	n/a	MAGICIAN	854	1	4	n/a	n/a	n/a	n/a	n/a	n/a
3855.856	n/a	RECOG_RESP	1927928	n/a	LTP267	ltpFR	19	7	n/a	MAGICIAN	854	1	n/a	n/a	n/a	n/a	n/a	n/a	n/a
3856.136	n/a	RECOG_CONF	1928068	n/a	LTP267	ltpFR	19	7	n/a	MAGICIAN	854	n/a	4	n/a	n/a	n/a	n/a	n/a	n/a
3857.868	n/a	RECOG_TARGET	1928934	n/a	LTP267	ltpFR	19	7	0	LIPSTICK	829	1	5	0	n/a	n/a	n/a	n/a	n/a
3858.462	n/a	RECOG_RESP	1929231	n/a	LTP267	ltpFR	19	7	0	LIPSTICK	829	1	n/a	0	n/a	n/a	n/a	n/a	n/a
3858.766	n/a	RECOG_CONF	1929383	n/a	LTP267	ltpFR	19	7	0	LIPSTICK	829	n/a	5	0	n/a	n/a	n/a	n/a	n/a
3860.41	n/a	RECOG_LURE	1930205	n/a	LTP267	ltpFR	19	7	n/a	SKUNK	1321	1	1	n/a	n/a	n/a	n/a	n/a	n/a
3860.876	n/a	RECOG_RESP	1930438	n/a	LTP267	ltpFR	19	7	n/a	SKUNK	1321	1	n/a	n/a	n/a	n/a	n/a	n/a	n/a
3861.136	n/a	RECOG_CONF	1930568	n/a	LTP267	ltpFR	19	7	n/a	SKUNK	1321	n/a	1	n/a	n/a	n/a	n/a	n/a	n/a
3862.77	n/a	RECOG_LURE	1931385	n/a	LTP267	ltpFR	19	7	n/a	THIGH	1457	1	1	n/a	n/a	n/a	n/a	n/a	n/a
3863.806	n/a	RECOG_RESP	1931903	n/a	LTP267	ltpFR	19	7	n/a	THIGH	1457	1	n/a	n/a	n/a	n/a	n/a	n/a	n/a
3864.096	n/a	RECOG_CONF	1932048	n/a	LTP267	ltpFR	19	7	n/a	THIGH	1457	n/a	1	n/a	n/a	n/a	n/a	n/a	n/a
3866.014	n/a	RECOG_TARGET	1933007	n/a	LTP267	ltpFR	19	7	-1	BISCUIT	130	0	3	-1	n/a	n/a	n/a	n/a	n/a
3866.686	n/a	RECOG_RESP	1933343	n/a	LTP267	ltpFR	19	7	-1	BISCUIT	130	0	n/a	-1	n/a	n/a	n/a	n/a	n/a
3866.916	n/a	RECOG_CONF	1933458	n/a	LTP267	ltpFR	19	7	-1	BISCUIT	130	n/a	3	-1	n/a	n/a	n/a	n/a	n/a
3868.842	n/a	RECOG_TARGET	1934421	n/a	LTP267	ltpFR	19	7	1	SCULPTURE	1258	0	4	0	n/a	n/a	n/a	n/a	n/a
3869.556	n/a	RECOG_RESP	1934778	n/a	LTP267	ltpFR	19	7	1	SCULPTURE	1258	0	n/a	0	n/a	n/a	n/a	n/a	n/a
3869.806	n/a	RECOG_CONF	1934903	n/a	LTP267	ltpFR	19	7	1	SCULPTURE	1258	n/a	4	0	n/a	n/a	n/a	n/a	n/a
3871.57	n/a	RECOG_TARGET	1935785	n/a	LTP267	ltpFR	19	7	1	PIKE	1067	1	5	0	n/a	n/a	n/a	n/a	n/a
3872.156	n/a	RECOG_RESP	1936078	n/a	LTP267	ltpFR	19	7	1	PIKE	1067	1	n/a	0	n/a	n/a	n/a	n/a	n/a
3872.456	n/a	RECOG_CONF	1936228	n/a	LTP267	ltpFR	19	7	1	PIKE	1067	n/a	5	0	n/a	n/a	n/a	n/a	n/a
3874.162	n/a	RECOG_LURE	1937081	n/a	LTP267	ltpFR	19	7	n/a	CAR	241	1	4	n/a	n/a	n/a	n/a	n/a	n/a
3874.622	n/a	RECOG_RESP	1937311	n/a	LTP267	ltpFR	19	7	n/a	CAR	241	1	n/a	n/a	n/a	n/a	n/a	n/a	n/a
3874.916	n/a	RECOG_CONF	1937458	n/a	LTP267	ltpFR	19	7	n/a	CAR	241	n/a	4	n/a	n/a	n/a	n/a	n/a	n/a
3876.454	n/a	RECOG_TARGET	1938227	n/a	LTP267	ltpFR	19	7	0	CAKE	219	1	3	0	n/a	n/a	n/a	n/a	n/a
3876.942	n/a	RECOG_RESP	1938471	n/a	LTP267	ltpFR	19	7	0	CAKE	219	1	n/a	0	n/a	n/a	n/a	n/a	n/a
3877.268	n/a	RECOG_CONF	1938634	n/a	LTP267	ltpFR	19	7	0	CAKE	219	n/a	3	0	n/a	n/a	n/a	n/a	n/a
3878.814	n/a	RECOG_TARGET	1939407	n/a	LTP267	ltpFR	19	7	1	BEAST	108	1	5	1	n/a	n/a	n/a	n/a	n/a
3879.132	n/a	RECOG_RESP	1939566	n/a	LTP267	ltpFR	19	7	1	BEAST	108	1	n/a	1	n/a	n/a	n/a	n/a	n/a
3879.448	n/a	RECOG_CONF	1939724	n/a	LTP267	ltpFR	19	7	1	BEAST	108	n/a	5	1	n/a	n/a	n/a	n/a	n/a
3881.056	n/a	RECOG_LURE	1940528	n/a	LTP267	ltpFR	19	7	n/a	BADGE	68	1	3	n/a	n/a	n/a	n/a	n/a	n/a
3881.348	n/a	RECOG_RESP	1940674	n/a	LTP267	ltpFR	19	7	n/a	BADGE	68	1	n/a	n/a	n/a	n/a	n/a	n/a	n/a
3881.638	n/a	RECOG_CONF	1940819	n/a	LTP267	ltpFR	19	7	n/a	BADGE	68	n/a	3	n/a	n/a	n/a	n/a	n/a	n/a
3883.366	n/a	RECOG_LURE	1941683	n/a	LTP267	ltpFR	19	7	n/a	DESSERT	453	1	4	n/a	n/a	n/a	n/a	n/a	n/a
3883.662	n/a	RECOG_RESP	1941831	n/a	LTP267	ltpFR	19	7	n/a	DESSERT	453	1	n/a	n/a	n/a	n/a	n/a	n/a	n/a
3883.928	n/a	RECOG_CONF	1941964	n/a	LTP267	ltpFR	19	7	n/a	DESSERT	453	n/a	4	n/a	n/a	n/a	n/a	n/a	n/a
3885.808	n/a	RECOG_TARGET	1942904	n/a	LTP267	ltpFR	19	7	-1	PEACH	1031	1	5	-1	n/a	n/a	n/a	n/a	n/a
3886.458	n/a	RECOG_RESP	1943229	n/a	LTP267	ltpFR	19	7	-1	PEACH	1031	1	n/a	-1	n/a	n/a	n/a	n/a	n/a
3886.748	n/a	RECOG_CONF	1943374	n/a	LTP267	ltpFR	19	7	-1	PEACH	1031	n/a	5	-1	n/a	n/a	n/a	n/a	n/a
3888.468	n/a	RECOG_TARGET	1944234	n/a	LTP267	ltpFR	19	7	-1	ROOSTER	1209	1	5	-1	n/a	n/a	n/a	n/a	n/a
3888.768	n/a	RECOG_RESP	1944384	n/a	LTP267	ltpFR	19	7	-1	ROOSTER	1209	1	n/a	-1	n/a	n/a	n/a	n/a	n/a
3889.038	n/a	RECOG_CONF	1944519	n/a	LTP267	ltpFR	19	7	-1	ROOSTER	1209	n/a	5	-1	n/a	n/a	n/a	n/a	n/a
3890.458	n/a	RECOG_LURE	1945229	n/a	LTP267	ltpFR	19	7	n/a	COYOTE	396	1	1	n/a	n/a	n/a	n/a	n/a	n/a
3890.808	n/a	RECOG_RESP	1945404	n/a	LTP267	ltpFR	19	7	n/a	COYOTE	396	1	n/a	n/a	n/a	n/a	n/a	n/a	n/a
3891.118	n/a	RECOG_CONF	1945559	n/a	LTP267	ltpFR	19	7	n/a	COYOTE	396	n/a	1	n/a	n/a	n/a	n/a	n/a	n/a
3892.616	n/a	RECOG_TARGET	1946308	n/a	LTP267	ltpFR	19	7	0	WALNUT	1584	1	5	0	n/a	n/a	n/a	n/a	n/a
3893.218	n/a	RECOG_RESP	1946609	n/a	LTP267	ltpFR	19	7	0	WALNUT	1584	1	n/a	0	n/a	n/a	n/a	n/a	n/a
3893.488	n/a	RECOG_CONF	1946744	n/a	LTP267	ltpFR	19	7	0	WALNUT	1584	n/a	5	0	n/a	n/a	n/a	n/a	n/a
3895.16	n/a	RECOG_LURE	1947580	n/a	LTP267	ltpFR	19	7	n/a	GUARDIAN	668	1	3	n/a	n/a	n/a	n/a	n/a	n/a
3895.408	n/a	RECOG_RESP	1947704	n/a	LTP267	ltpFR	19	7	n/a	GUARDIAN	668	1	n/a	n/a	n/a	n/a	n/a	n/a	n/a
3895.718	n/a	RECOG_CONF	1947859	n/a	LTP267	ltpFR	19	7	n/a	GUARDIAN	668	n/a	3	n/a	n/a	n/a	n/a	n/a	n/a
3897.402	n/a	RECOG_TARGET	1948701	n/a	LTP267	ltpFR	19	7	0	DAD	433	1	2	1	n/a	n/a	n/a	n/a	n/a
