mstime	trial_type	stim_file	subject	experiment	session	trial	item_name	item_num	list	answer	test_x	test_y	test_z
0	SESS_START	n/a	LTP313	ltpFR2	2	n/a	n/a	n/a	n/a	n/a	0	0	0
14848	START	n/a	LTP313	ltpFR2	2	n/a	n/a	n/a	-1	n/a	n/a	n/a	n/a
14865	PROB	n/a	LTP313	ltpFR2	2	n/a	n/a	n/a	-1	16	1	7	8
16980	PROB	n/a	LTP313	ltpFR2	2	n/a	n/a	n/a	-1	16	8	3	5
18278	PROB	n/a	LTP313	ltpFR2	2	n/a	n/a	n/a	-1	12	5	1	6
20130	PROB	n/a	LTP313	ltpFR2	2	n/a	n/a	n/a	-1	21	9	3	9
21365	PROB	n/a	LTP313	ltpFR2	2	n/a	n/a	n/a	-1	25	8	9	8
23299	PROB	n/a	LTP313	ltpFR2	2	n/a	n/a	n/a	-1	8	1	1	6
24283	PROB	n/a	LTP313	ltpFR2	2	n/a	n/a	n/a	-1	20	3	9	8
25442	STOP	n/a	LTP313	ltpFR2	2	n/a	n/a	n/a	-1	n/a	n/a	n/a	n/a
59562	WORD	wordpools/wasnorm_wordpool_576.txt	LTP313	ltpFR2	2	1	MUFFIN	929	n/a	n/a	0	0	0
62231	WORD	wordpools/wasnorm_wordpool_576.txt	LTP313	ltpFR2	2	1	CRICKET	408	n/a	n/a	0	0	0
65051	WORD	wordpools/wasnorm_wordpool_576.txt	LTP313	ltpFR2	2	1	LODGE	839	n/a	n/a	0	0	0
67804	WORD	wordpools/wasnorm_wordpool_576.txt	LTP313	ltpFR2	2	1	KETCHUP	771	n/a	n/a	0	0	0
70364	WORD	wordpools/wasnorm_wordpool_576.txt	LTP313	ltpFR2	2	1	OINTMENT	974	n/a	n/a	0	0	0
72875	WORD	wordpools/wasnorm_wordpool_576.txt	LTP313	ltpFR2	2	1	ICEBERG	731	n/a	n/a	0	0	0
75318	WORD	wordpools/wasnorm_wordpool_576.txt	LTP313	ltpFR2	2	1	APRON	35	n/a	n/a	0	0	0
77978	WORD	wordpools/wasnorm_wordpool_576.txt	LTP313	ltpFR2	2	1	TOASTER	1472	n/a	n/a	0	0	0
80429	WORD	wordpools/wasnorm_wordpool_576.txt	LTP313	ltpFR2	2	1	MOP	916	n/a	n/a	0	0	0
83031	WORD	wordpools/wasnorm_wordpool_576.txt	LTP313	ltpFR2	2	1	TILE	1468	n/a	n/a	0	0	0
85711	WORD	wordpools/wasnorm_wordpool_576.txt	LTP313	ltpFR2	2	1	LACE	792	n/a	n/a	0	0	0
88213	WORD	wordpools/wasnorm_wordpool_576.txt	LTP313	ltpFR2	2	1	PATIENT	1024	n/a	n/a	0	0	0
90748	WORD	wordpools/wasnorm_wordpool_576.txt	LTP313	ltpFR2	2	1	NURSE	963	n/a	n/a	0	0	0
93468	WORD	wordpools/wasnorm_wordpool_576.txt	LTP313	ltpFR2	2	1	SPHINX	1349	n/a	n/a	0	0	0
96093	WORD	wordpools/wasnorm_wordpool_576.txt	LTP313	ltpFR2	2	1	FRECKLE	602	n/a	n/a	0	0	0
98578	WORD	wordpools/wasnorm_wordpool_576.txt	LTP313	ltpFR2	2	1	PADDING	999	n/a	n/a	0	0	0
101257	WORD	wordpools/wasnorm_wordpool_576.txt	LTP313	ltpFR2	2	1	BRIEFCASE	175	n/a	n/a	0	0	0
103760	WORD	wordpools/wasnorm_wordpool_576.txt	LTP313	ltpFR2	2	1	GARLIC	624	n/a	n/a	0	0	0
106345	WORD	wordpools/wasnorm_wordpool_576.txt	LTP313	ltpFR2	2	1	LIVER	833	n/a	n/a	0	0	0
109015	WORD	wordpools/wasnorm_wordpool_576.txt	LTP313	ltpFR2	2	1	SPOOL	1356	n/a	n/a	0	0	0
111818	WORD	wordpools/wasnorm_wordpool_576.txt	LTP313	ltpFR2	2	1	BANK	83	n/a	n/a	0	0	0
114253	WORD	wordpools/wasnorm_wordpool_576.txt	LTP313	ltpFR2	2	1	LIPSTICK	829	n/a	n/a	0	0	0
116926	WORD	wordpools/wasnorm_wordpool_576.txt	LTP313	ltpFR2	2	1	SERVANT	1271	n/a	n/a	0	0	0
119740	WORD	wordpools/wasnorm_wordpool_576.txt	LTP313	ltpFR2	2	1	LAKE	796	n/a	n/a	0	0	0
121346	START	n/a	LTP313	ltpFR2	2	n/a	n/a	n/a	1	n/a	n/a	n/a	n/a
122457	DISTRACTOR	n/a	LTP313	ltpFR2	2	1	n/a	n/a	n/a	n/a	0	0	0
122464	PROB	n/a	LTP313	ltpFR2	2	n/a	n/a	n/a	1	17	6	6	5
124448	PROB	n/a	LTP313	ltpFR2	2	n/a	n/a	n/a	1	25	7	9	9
126217	PROB	n/a	LTP313	ltpFR2	2	n/a	n/a	n/a	1	16	8	3	5
127718	PROB	n/a	LTP313	ltpFR2	2	n/a	n/a	n/a	1	14	8	2	4
128887	PROB	n/a	LTP313	ltpFR2	2	n/a	n/a	n/a	1	9	3	4	2
130449	PROB	n/a	LTP313	ltpFR2	2	n/a	n/a	n/a	1	17	2	6	9
131716	PROB	n/a	LTP313	ltpFR2	2	n/a	n/a	n/a	1	11	6	2	3
134186	PROB	n/a	LTP313	ltpFR2	2	n/a	n/a	n/a	1	21	8	9	4
135357	PROB	n/a	LTP313	ltpFR2	2	n/a	n/a	n/a	1	19	4	7	8
136607	PROB	n/a	LTP313	ltpFR2	2	n/a	n/a	n/a	1	11	4	3	4
138390	PROB	n/a	LTP313	ltpFR2	2	n/a	n/a	n/a	1	15	4	3	8
139706	PROB	n/a	LTP313	ltpFR2	2	n/a	n/a	n/a	1	14	6	4	4
141877	PROB	n/a	LTP313	ltpFR2	2	n/a	n/a	n/a	1	13	7	4	2
143326	PROB	n/a	LTP313	ltpFR2	2	n/a	n/a	n/a	1	15	5	6	4
144271	STOP	n/a	LTP313	ltpFR2	2	n/a	n/a	n/a	1	n/a	n/a	n/a	n/a
147165	REC_START	n/a	LTP313	ltpFR2	2	1	n/a	n/a	n/a	n/a	0	0	0
148297	REC_WORD	wordpools/wasnorm_wordpool_576.txt	LTP313	ltpFR2	2	1	GARLIC	624	n/a	n/a	0	0	0
149335	REC_WORD	wordpools/wasnorm_wordpool_576.txt	LTP313	ltpFR2	2	1	LIVER	833	n/a	n/a	0	0	0
150465	REC_WORD	wordpools/wasnorm_wordpool_576.txt	LTP313	ltpFR2	2	1	SPOOL	1356	n/a	n/a	0	0	0
152267	REC_WORD	wordpools/wasnorm_wordpool_576.txt	LTP313	ltpFR2	2	1	BANK	83	n/a	n/a	0	0	0
153496	REC_WORD	wordpools/wasnorm_wordpool_576.txt	LTP313	ltpFR2	2	1	LAKE	796	n/a	n/a	0	0	0
157264	REC_WORD	wordpools/wasnorm_wordpool_576.txt	LTP313	ltpFR2	2	1	ICEBERG	731	n/a	n/a	0	0	0
158449	REC_WORD	wordpools/wasnorm_wordpool_576.txt	LTP313	ltpFR2	2	1	OINTMENT	974	n/a	n/a	0	0	0
161866	REC_WORD	wordpools/wasnorm_wordpool_576.txt	LTP313	ltpFR2	2	1	TILE	1468	n/a	n/a	0	0	0
163044	REC_WORD	wordpools/wasnorm_wordpool_576.txt	LTP313	ltpFR2	2	1	LACE	792	n/a	n/a	0	0	0
164415	REC_WORD	wordpools/wasnorm_wordpool_576.txt	LTP313	ltpFR2	2	1	CRICKET	408	n/a	n/a	0	0	0
165832	REC_WORD	wordpools/wasnorm_wordpool_576.txt	LTP313	ltpFR2	2	1	NURSE	963	n/a	n/a	0	0	0
167419	REC_WORD	wordpools/wasnorm_wordpool_576.txt	LTP313	ltpFR2	2	1	PATIENT	1024	n/a	n/a	0	0	0
168590	REC_WORD	wordpools/wasnorm_wordpool_576.txt	LTP313	ltpFR2	2	1	SPHINX	1349	n/a	n/a	0	0	0
237622	WORD	wordpools/wasnorm_wordpool_576.txt	LTP313	ltpFR2	2	2	RADISH	1158	n/a	n/a	0	0	0
240075	WORD	wordpools/wasnorm_wordpool_576.txt	LTP313	ltpFR2	2	2	RECEIPT	1173	n/a	n/a	0	0	0
242527	WORD	wordpools/wasnorm_wordpool_576.txt	LTP313	ltpFR2	2	2	BEEF	113	n/a	n/a	0	0	0
244980	WORD	wordpools/wasnorm_wordpool_576.txt	LTP313	ltpFR2	2	2	PERFUME	1049	n/a	n/a	0	0	0
247448	WORD	wordpools/wasnorm_wordpool_576.txt	LTP313	ltpFR2	2	2	DUSTPAN	509	n/a	n/a	0	0	0
250205	WORD	wordpools/wasnorm_wordpool_576.txt	LTP313	ltpFR2	2	2	ISLAND	745	n/a	n/a	0	0	0
252990	WORD	wordpools/wasnorm_wordpool_576.txt	LTP313	ltpFR2	2	2	DENIM	446	n/a	n/a	0	0	0
255810	WORD	wordpools/wasnorm_wordpool_576.txt	LTP313	ltpFR2	2	2	JEANS	752	n/a	n/a	0	0	0
258240	WORD	wordpools/wasnorm_wordpool_576.txt	LTP313	ltpFR2	2	2	HEADBAND	696	n/a	n/a	0	0	0
260680	WORD	wordpools/wasnorm_wordpool_576.txt	LTP313	ltpFR2	2	2	BACON	67	n/a	n/a	0	0	0
263416	WORD	wordpools/wasnorm_wordpool_576.txt	LTP313	ltpFR2	2	2	DOLPHIN	483	n/a	n/a	0	0	0
265863	WORD	wordpools/wasnorm_wordpool_576.txt	LTP313	ltpFR2	2	2	TERMITE	1451	n/a	n/a	0	0	0
268586	WORD	wordpools/wasnorm_wordpool_576.txt	LTP313	ltpFR2	2	2	PEANUT	1032	n/a	n/a	0	0	0
271123	WORD	wordpools/wasnorm_wordpool_576.txt	LTP313	ltpFR2	2	2	GUARD	667	n/a	n/a	0	0	0
273910	WORD	wordpools/wasnorm_wordpool_576.txt	LTP313	ltpFR2	2	2	SWORD	1423	n/a	n/a	0	0	0
276371	WORD	wordpools/wasnorm_wordpool_576.txt	LTP313	ltpFR2	2	2	BANKER	84	n/a	n/a	0	0	0
278906	WORD	wordpools/wasnorm_wordpool_576.txt	LTP313	ltpFR2	2	2	HAWK	692	n/a	n/a	0	0	0
281492	WORD	wordpools/wasnorm_wordpool_576.txt	LTP313	ltpFR2	2	2	CONTRACT	368	n/a	n/a	0	0	0
283951	WORD	wordpools/wasnorm_wordpool_576.txt	LTP313	ltpFR2	2	2	BROOK	177	n/a	n/a	0	0	0
286462	WORD	wordpools/wasnorm_wordpool_576.txt	LTP313	ltpFR2	2	2	PARSLEY	1016	n/a	n/a	0	0	0
289081	WORD	wordpools/wasnorm_wordpool_576.txt	LTP313	ltpFR2	2	2	BLOUSE	139	n/a	n/a	0	0	0
291733	WORD	wordpools/wasnorm_wordpool_576.txt	LTP313	ltpFR2	2	2	DRESS	495	n/a	n/a	0	0	0
294502	WORD	wordpools/wasnorm_wordpool_576.txt	LTP313	ltpFR2	2	2	PADDLE	1000	n/a	n/a	0	0	0
297237	WORD	wordpools/wasnorm_wordpool_576.txt	LTP313	ltpFR2	2	2	CASHIER	254	n/a	n/a	0	0	0
298849	START	n/a	LTP313	ltpFR2	2	n/a	n/a	n/a	2	n/a	n/a	n/a	n/a
299666	DISTRACTOR	n/a	LTP313	ltpFR2	2	2	n/a	n/a	n/a	n/a	0	0	0
299673	PROB	n/a	LTP313	ltpFR2	2	n/a	n/a	n/a	2	17	7	7	3
301607	PROB	n/a	LTP313	ltpFR2	2	n/a	n/a	n/a	2	17	7	6	4
303207	PROB	n/a	LTP313	ltpFR2	2	n/a	n/a	n/a	2	11	1	7	3
304559	PROB	n/a	LTP313	ltpFR2	2	n/a	n/a	n/a	2	13	5	1	7
305759	PROB	n/a	LTP313	ltpFR2	2	n/a	n/a	n/a	2	14	2	9	3
307595	PROB	n/a	LTP313	ltpFR2	2	n/a	n/a	n/a	2	21	4	8	9
309012	PROB	n/a	LTP313	ltpFR2	2	n/a	n/a	n/a	2	9	1	2	6
310114	PROB	n/a	LTP313	ltpFR2	2	n/a	n/a	n/a	2	16	6	8	2
311347	PROB	n/a	LTP313	ltpFR2	2	n/a	n/a	n/a	2	10	2	6	2
312732	PROB	n/a	LTP313	ltpFR2	2	n/a	n/a	n/a	2	18	4	9	5
314867	PROB	n/a	LTP313	ltpFR2	2	n/a	n/a	n/a	2	20	6	8	6
316352	PROB	n/a	LTP313	ltpFR2	2	n/a	n/a	n/a	2	24	9	8	7
317653	PROB	n/a	LTP313	ltpFR2	2	n/a	n/a	n/a	2	19	6	7	6
320873	PROB	n/a	LTP313	ltpFR2	2	n/a	n/a	n/a	2	15	1	8	6
322190	STOP	n/a	LTP313	ltpFR2	2	n/a	n/a	n/a	2	n/a	n/a	n/a	n/a
324727	REC_START	n/a	LTP313	ltpFR2	2	2	n/a	n/a	n/a	n/a	0	0	0
325626	REC_WORD	wordpools/wasnorm_wordpool_576.txt	LTP313	ltpFR2	2	2	CASHIER	254	n/a	n/a	0	0	0
328482	REC_WORD	wordpools/wasnorm_wordpool_576.txt	LTP313	ltpFR2	2	2	BANKER	84	n/a	n/a	0	0	0
334098	REC_WORD	wordpools/wasnorm_wordpool_576.txt	LTP313	ltpFR2	2	2	DUSTPAN	509	n/a	n/a	0	0	0
336041	REC_WORD	wordpools/wasnorm_wordpool_576.txt	LTP313	ltpFR2	2	2	RADISH	1158	n/a	n/a	0	0	0
336934	REC_WORD	wordpools/wasnorm_wordpool_576.txt	LTP313	ltpFR2	2	2	RECEIPT	1173	n/a	n/a	0	0	0
341542	REC_WORD	wordpools/wasnorm_wordpool_576.txt	LTP313	ltpFR2	2	2	ISLAND	745	n/a	n/a	0	0	0
343116	REC_WORD	wordpools/wasnorm_wordpool_576.txt	LTP313	ltpFR2	2	2	DENIM	446	n/a	n/a	0	0	0
343990	REC_WORD	wordpools/wasnorm_wordpool_576.txt	LTP313	ltpFR2	2	2	JEANS	752	n/a	n/a	0	0	0
345352	REC_WORD	wordpools/wasnorm_wordpool_576.txt	LTP313	ltpFR2	2	2	DOLPHIN	483	n/a	n/a	0	0	0
351032	REC_WORD	wordpools/wasnorm_wordpool_576.txt	LTP313	ltpFR2	2	2	TERMITE	1451	n/a	n/a	0	0	0
353298	REC_WORD	wordpools/wasnorm_wordpool_576.txt	LTP313	ltpFR2	2	2	PEANUT	1032	n/a	n/a	0	0	0
362230	REC_WORD	wordpools/wasnorm_wordpool_576.txt	LTP313	ltpFR2	2	2	SWORD	1423	n/a	n/a	0	0	0
363195	REC_WORD	wordpools/wasnorm_wordpool_576.txt	LTP313	ltpFR2	2	2	GUARD	667	n/a	n/a	0	0	0
365992	REC_WORD	wordpools/wasnorm_wordpool_576.txt	LTP313	ltpFR2	2	2	BLOUSE	139	n/a	n/a	0	0	0
415199	WORD	wordpools/wasnorm_wordpool_576.txt	LTP313	ltpFR2	2	3	PLAYGROUND	1087	n/a	n/a	0	0	0
417818	WORD	wordpools/wasnorm_wordpool_576.txt	LTP313	ltpFR2	2	3	DOUGHNUT	490	n/a	n/a	0	0	0
420452	WORD	wordpools/wasnorm_wordpool_576.txt	LTP313	ltpFR2	2	3	CITRUS	313	n/a	n/a	0	0	0
422939	WORD	wordpools/wasnorm_wordpool_576.txt	LTP313	ltpFR2	2	3	PICTURE	1061	n/a	n/a	0	0	0
425724	WORD	wordpools/wasnorm_wordpool_576.txt	LTP313	ltpFR2	2	3	FRAME	600	n/a	n/a	0	0	0
428543	WORD	wordpools/wasnorm_wordpool_576.txt	LTP313	ltpFR2	2	3	SCULPTURE	1258	n/a	n/a	0	0	0
431112	WORD	wordpools/wasnorm_wordpool_576.txt	LTP313	ltpFR2	2	3	FEMALE	559	n/a	n/a	0	0	0
433764	WORD	wordpools/wasnorm_wordpool_576.txt	LTP313	ltpFR2	2	3	PIANO	1057	n/a	n/a	0	0	0
436499	WORD	wordpools/wasnorm_wordpool_576.txt	LTP313	ltpFR2	2	3	CASKET	255	n/a	n/a	0	0	0
439251	WORD	wordpools/wasnorm_wordpool_576.txt	LTP313	ltpFR2	2	3	STATUE	1374	n/a	n/a	0	0	0
441686	WORD	wordpools/wasnorm_wordpool_576.txt	LTP313	ltpFR2	2	3	TUBA	1515	n/a	n/a	0	0	0
444122	WORD	wordpools/wasnorm_wordpool_576.txt	LTP313	ltpFR2	2	3	LAVA	804	n/a	n/a	0	0	0
446607	WORD	wordpools/wasnorm_wordpool_576.txt	LTP313	ltpFR2	2	3	FIREMAN	569	n/a	n/a	0	0	0
449376	WORD	wordpools/wasnorm_wordpool_576.txt	LTP313	ltpFR2	2	3	DRILL	497	n/a	n/a	0	0	0
452079	WORD	wordpools/wasnorm_wordpool_576.txt	LTP313	ltpFR2	2	3	STUDENT	1395	n/a	n/a	0	0	0
454747	WORD	wordpools/wasnorm_wordpool_576.txt	LTP313	ltpFR2	2	3	BLACKBOARD	133	n/a	n/a	0	0	0
457533	WORD	wordpools/wasnorm_wordpool_576.txt	LTP313	ltpFR2	2	3	SHOVEL	1295	n/a	n/a	0	0	0
460201	WORD	wordpools/wasnorm_wordpool_576.txt	LTP313	ltpFR2	2	3	HORNET	718	n/a	n/a	0	0	0
462623	WORD	wordpools/wasnorm_wordpool_576.txt	LTP313	ltpFR2	2	3	SODA	1341	n/a	n/a	0	0	0
465075	WORD	wordpools/wasnorm_wordpool_576.txt	LTP313	ltpFR2	2	3	EMPIRE	530	n/a	n/a	0	0	0
467895	WORD	wordpools/wasnorm_wordpool_576.txt	LTP313	ltpFR2	2	3	TURNIP	1521	n/a	n/a	0	0	0
470593	WORD	wordpools/wasnorm_wordpool_576.txt	LTP313	ltpFR2	2	3	HONEY	713	n/a	n/a	0	0	0
473115	WORD	wordpools/wasnorm_wordpool_576.txt	LTP313	ltpFR2	2	3	SUNRISE	1407	n/a	n/a	0	0	0
475664	WORD	wordpools/wasnorm_wordpool_576.txt	LTP313	ltpFR2	2	3	BRANCH	168	n/a	n/a	0	0	0
477270	START	n/a	LTP313	ltpFR2	2	n/a	n/a	n/a	3	n/a	n/a	n/a	n/a
478450	DISTRACTOR	n/a	LTP313	ltpFR2	2	3	n/a	n/a	n/a	n/a	0	0	0
478466	PROB	n/a	LTP313	ltpFR2	2	n/a	n/a	n/a	3	14	5	8	1
480450	PROB	n/a	LTP313	ltpFR2	2	n/a	n/a	n/a	3	12	1	7	4
481601	PROB	n/a	LTP313	ltpFR2	2	n/a	n/a	n/a	3	21	6	7	8
482902	PROB	n/a	LTP313	ltpFR2	2	n/a	n/a	n/a	3	16	4	7	5
484002	PROB	n/a	LTP313	ltpFR2	2	n/a	n/a	n/a	3	9	3	4	2
485088	PROB	n/a	LTP313	ltpFR2	2	n/a	n/a	n/a	3	13	3	6	4
486439	PROB	n/a	LTP313	ltpFR2	2	n/a	n/a	n/a	3	12	3	5	4
487638	PROB	n/a	LTP313	ltpFR2	2	n/a	n/a	n/a	3	11	2	2	7
489206	PROB	n/a	LTP313	ltpFR2	2	n/a	n/a	n/a	3	7	1	3	3
490391	PROB	n/a	LTP313	ltpFR2	2	n/a	n/a	n/a	3	11	3	7	1
491359	PROB	n/a	LTP313	ltpFR2	2	n/a	n/a	n/a	3	21	6	7	8
492577	PROB	n/a	LTP313	ltpFR2	2	n/a	n/a	n/a	3	10	2	2	6
493626	PROB	n/a	LTP313	ltpFR2	2	n/a	n/a	n/a	3	15	3	8	4
494696	PROB	n/a	LTP313	ltpFR2	2	n/a	n/a	n/a	3	20	5	8	7
496262	PROB	n/a	LTP313	ltpFR2	2	n/a	n/a	n/a	3	18	4	6	8
497280	PROB	n/a	LTP313	ltpFR2	2	n/a	n/a	n/a	3	15	9	2	3
498214	PROB	n/a	LTP313	ltpFR2	2	n/a	n/a	n/a	3	13	9	3	1
500013	STOP	n/a	LTP313	ltpFR2	2	n/a	n/a	n/a	3	n/a	n/a	n/a	n/a
503086	REC_START	n/a	LTP313	ltpFR2	2	3	n/a	n/a	n/a	n/a	0	0	0
505398	REC_WORD	wordpools/wasnorm_wordpool_576.txt	LTP313	ltpFR2	2	3	PLAYGROUND	1087	n/a	n/a	0	0	0
509214	REC_WORD	wordpools/wasnorm_wordpool_576.txt	LTP313	ltpFR2	2	3	DOUGHNUT	490	n/a	n/a	0	0	0
510782	REC_WORD	wordpools/wasnorm_wordpool_576.txt	LTP313	ltpFR2	2	3	PICTURE	1061	n/a	n/a	0	0	0
512092	REC_WORD	wordpools/wasnorm_wordpool_576.txt	LTP313	ltpFR2	2	3	SCULPTURE	1258	n/a	n/a	0	0	0
515076	REC_WORD	wordpools/wasnorm_wordpool_576.txt	LTP313	ltpFR2	2	3	STATUE	1374	n/a	n/a	0	0	0
517907	REC_WORD	wordpools/wasnorm_wordpool_576.txt	LTP313	ltpFR2	2	3	FEMALE	559	n/a	n/a	0	0	0
519288	REC_WORD	wordpools/wasnorm_wordpool_576.txt	LTP313	ltpFR2	2	3	PIANO	1057	n/a	n/a	0	0	0
524649	REC_WORD	wordpools/wasnorm_wordpool_576.txt	LTP313	ltpFR2	2	3	EMPIRE	530	n/a	n/a	0	0	0
637192	DISTRACTOR	n/a	LTP313	ltpFR2	2	4	n/a	n/a	n/a	n/a	0	0	0
637192	START	n/a	LTP313	ltpFR2	2	n/a	n/a	n/a	4	n/a	n/a	n/a	n/a
637210	PROB	n/a	LTP313	ltpFR2	2	n/a	n/a	n/a	4	18	8	9	1
639211	PROB	n/a	LTP313	ltpFR2	2	n/a	n/a	n/a	4	16	1	9	6
640226	PROB	n/a	LTP313	ltpFR2	2	n/a	n/a	n/a	4	19	3	9	7
641882	PROB	n/a	LTP313	ltpFR2	2	n/a	n/a	n/a	4	17	6	4	7
642947	PROB	n/a	LTP313	ltpFR2	2	n/a	n/a	n/a	4	9	1	5	3
644148	PROB	n/a	LTP313	ltpFR2	2	n/a	n/a	n/a	4	7	3	3	1
645250	PROB	n/a	LTP313	ltpFR2	2	n/a	n/a	n/a	4	12	1	7	4
646417	PROB	n/a	LTP313	ltpFR2	2	n/a	n/a	n/a	4	18	6	6	6
647585	PROB	n/a	LTP313	ltpFR2	2	n/a	n/a	n/a	4	7	4	2	1
648602	PROB	n/a	LTP313	ltpFR2	2	n/a	n/a	n/a	4	16	4	4	8
649839	PROB	n/a	LTP313	ltpFR2	2	n/a	n/a	n/a	4	12	8	3	1
650856	PROB	n/a	LTP313	ltpFR2	2	n/a	n/a	n/a	4	13	5	4	4
652437	PROB	n/a	LTP313	ltpFR2	2	n/a	n/a	n/a	4	9	1	1	7
653455	PROB	n/a	LTP313	ltpFR2	2	n/a	n/a	n/a	4	19	6	9	4
654990	PROB	n/a	LTP313	ltpFR2	2	n/a	n/a	n/a	4	19	6	8	5
656108	PROB	n/a	LTP313	ltpFR2	2	n/a	n/a	n/a	4	22	6	9	7
657358	PROB	n/a	LTP313	ltpFR2	2	n/a	n/a	n/a	4	18	7	5	6
658559	PROB	n/a	LTP313	ltpFR2	2	n/a	n/a	n/a	4	12	1	6	5
661191	STOP	n/a	LTP313	ltpFR2	2	n/a	n/a	n/a	4	n/a	n/a	n/a	n/a
662112	WORD	wordpools/wasnorm_wordpool_576.txt	LTP313	ltpFR2	2	4	ROBOT	1200	n/a	n/a	0	0	0
664800	WORD	wordpools/wasnorm_wordpool_576.txt	LTP313	ltpFR2	2	4	SHIRT	1287	n/a	n/a	0	0	0
667301	WORD	wordpools/wasnorm_wordpool_576.txt	LTP313	ltpFR2	2	4	FLEET	578	n/a	n/a	0	0	0
669854	WORD	wordpools/wasnorm_wordpool_576.txt	LTP313	ltpFR2	2	4	GANGSTER	620	n/a	n/a	0	0	0
672588	WORD	wordpools/wasnorm_wordpool_576.txt	LTP313	ltpFR2	2	4	SUITCASE	1403	n/a	n/a	0	0	0
675274	WORD	wordpools/wasnorm_wordpool_576.txt	LTP313	ltpFR2	2	4	MAPLE	866	n/a	n/a	0	0	0
677960	WORD	wordpools/wasnorm_wordpool_576.txt	LTP313	ltpFR2	2	4	MACHINE	852	n/a	n/a	0	0	0
680661	WORD	wordpools/wasnorm_wordpool_576.txt	LTP313	ltpFR2	2	4	LIZARD	834	n/a	n/a	0	0	0
683180	WORD	wordpools/wasnorm_wordpool_576.txt	LTP313	ltpFR2	2	4	TWIG	1527	n/a	n/a	0	0	0
685632	WORD	wordpools/wasnorm_wordpool_576.txt	LTP313	ltpFR2	2	4	TUNNEL	1519	n/a	n/a	0	0	0
688284	WORD	wordpools/wasnorm_wordpool_576.txt	LTP313	ltpFR2	2	4	WAITER	1580	n/a	n/a	0	0	0
690872	WORD	wordpools/wasnorm_wordpool_576.txt	LTP313	ltpFR2	2	4	PUDDLE	1140	n/a	n/a	0	0	0
693305	WORD	wordpools/wasnorm_wordpool_576.txt	LTP313	ltpFR2	2	4	RIVER	1194	n/a	n/a	0	0	0
696040	WORD	wordpools/wasnorm_wordpool_576.txt	LTP313	ltpFR2	2	4	SMOG	1330	n/a	n/a	0	0	0
698810	WORD	wordpools/wasnorm_wordpool_576.txt	LTP313	ltpFR2	2	4	FREEZER	604	n/a	n/a	0	0	0
701446	WORD	wordpools/wasnorm_wordpool_576.txt	LTP313	ltpFR2	2	4	IGLOO	734	n/a	n/a	0	0	0
704246	WORD	wordpools/wasnorm_wordpool_576.txt	LTP313	ltpFR2	2	4	BRAKE	166	n/a	n/a	0	0	0
706866	WORD	wordpools/wasnorm_wordpool_576.txt	LTP313	ltpFR2	2	4	FOOT	590	n/a	n/a	0	0	0
709418	WORD	wordpools/wasnorm_wordpool_576.txt	LTP313	ltpFR2	2	4	FLAG	573	n/a	n/a	0	0	0
712120	WORD	wordpools/wasnorm_wordpool_576.txt	LTP313	ltpFR2	2	4	ASIA	46	n/a	n/a	0	0	0
714622	WORD	wordpools/wasnorm_wordpool_576.txt	LTP313	ltpFR2	2	4	CELLAR	267	n/a	n/a	0	0	0
717277	WORD	wordpools/wasnorm_wordpool_576.txt	LTP313	ltpFR2	2	4	MAMMAL	861	n/a	n/a	0	0	0
719898	WORD	wordpools/wasnorm_wordpool_576.txt	LTP313	ltpFR2	2	4	SADDLE	1221	n/a	n/a	0	0	0
722583	WORD	wordpools/wasnorm_wordpool_576.txt	LTP313	ltpFR2	2	4	GARBAGE	622	n/a	n/a	0	0	0
724197	START	n/a	LTP313	ltpFR2	2	n/a	n/a	n/a	5	n/a	n/a	n/a	n/a
725092	DISTRACTOR	n/a	LTP313	ltpFR2	2	4	n/a	n/a	n/a	n/a	0	0	0
725097	PROB	n/a	LTP313	ltpFR2	2	n/a	n/a	n/a	5	22	9	8	5
728081	PROB	n/a	LTP313	ltpFR2	2	n/a	n/a	n/a	5	9	1	7	1
729099	PROB	n/a	LTP313	ltpFR2	2	n/a	n/a	n/a	5	17	3	6	8
730452	PROB	n/a	LTP313	ltpFR2	2	n/a	n/a	n/a	5	14	8	3	3
731585	PROB	n/a	LTP313	ltpFR2	2	n/a	n/a	n/a	5	18	4	6	8
732569	PROB	n/a	LTP313	ltpFR2	2	n/a	n/a	n/a	5	16	9	2	5
733754	PROB	n/a	LTP313	ltpFR2	2	n/a	n/a	n/a	5	12	4	3	5
735137	PROB	n/a	LTP313	ltpFR2	2	n/a	n/a	n/a	5	18	6	4	8
736090	PROB	n/a	LTP313	ltpFR2	2	n/a	n/a	n/a	5	20	9	4	8
737407	PROB	n/a	LTP313	ltpFR2	2	n/a	n/a	n/a	5	11	3	1	7
738607	PROB	n/a	LTP313	ltpFR2	2	n/a	n/a	n/a	5	21	4	8	9
740092	PROB	n/a	LTP313	ltpFR2	2	n/a	n/a	n/a	5	18	1	9	8
741894	PROB	n/a	LTP313	ltpFR2	2	n/a	n/a	n/a	5	15	2	9	4
742896	PROB	n/a	LTP313	ltpFR2	2	n/a	n/a	n/a	5	24	9	8	7
744228	PROB	n/a	LTP313	ltpFR2	2	n/a	n/a	n/a	5	11	4	2	5
746180	PROB	n/a	LTP313	ltpFR2	2	n/a	n/a	n/a	5	16	6	1	9
747631	STOP	n/a	LTP313	ltpFR2	2	n/a	n/a	n/a	5	n/a	n/a	n/a	n/a
750117	REC_START	n/a	LTP313	ltpFR2	2	4	n/a	n/a	n/a	n/a	0	0	0
751302	REC_WORD	wordpools/wasnorm_wordpool_576.txt	LTP313	ltpFR2	2	4	GARBAGE	622	n/a	n/a	0	0	0
759827	REC_WORD	wordpools/wasnorm_wordpool_576.txt	LTP313	ltpFR2	2	4	FOOT	590	n/a	n/a	0	0	0
775827	REC_WORD	wordpools/wasnorm_wordpool_576.txt	LTP313	ltpFR2	2	4	ROBOT	1200	n/a	n/a	0	0	0
777131	REC_WORD	wordpools/wasnorm_wordpool_576.txt	LTP313	ltpFR2	2	4	MAPLE	866	n/a	n/a	0	0	0
778337	REC_WORD	wordpools/wasnorm_wordpool_576.txt	LTP313	ltpFR2	2	4	SUITCASE	1403	n/a	n/a	0	0	0
779683	REC_WORD	wordpools/wasnorm_wordpool_576.txt	LTP313	ltpFR2	2	4	MACHINE	852	n/a	n/a	0	0	0
781090	REC_WORD	wordpools/wasnorm_wordpool_576.txt	LTP313	ltpFR2	2	4	FLEET	578	n/a	n/a	0	0	0
786128	REC_WORD	wordpools/wasnorm_wordpool_576.txt	LTP313	ltpFR2	2	4	SHIRT	1287	n/a	n/a	0	0	0
787128	REC_WORD_VV	wordpools/wasnorm_wordpool_576.txt	LTP313	ltpFR2	2	4	<>	-1	n/a	n/a	0	0	0
792095	REC_WORD	wordpools/wasnorm_wordpool_576.txt	LTP313	ltpFR2	2	4	RIVER	1194	n/a	n/a	0	0	0
792996	REC_WORD	wordpools/wasnorm_wordpool_576.txt	LTP313	ltpFR2	2	4	SMOG	1330	n/a	n/a	0	0	0
795575	REC_WORD	wordpools/wasnorm_wordpool_576.txt	LTP313	ltpFR2	2	4	TUNNEL	1519	n/a	n/a	0	0	0
796550	REC_WORD	wordpools/wasnorm_wordpool_576.txt	LTP313	ltpFR2	2	4	TWIG	1527	n/a	n/a	0	0	0
797476	REC_WORD	wordpools/wasnorm_wordpool_576.txt	LTP313	ltpFR2	2	4	LIZARD	834	n/a	n/a	0	0	0
801517	REC_WORD	wordpools/wasnorm_wordpool_576.txt	LTP313	ltpFR2	2	4	WAITER	1580	n/a	n/a	0	0	0
840536	DISTRACTOR	n/a	LTP313	ltpFR2	2	5	n/a	n/a	n/a	n/a	0	0	0
840536	START	n/a	LTP313	ltpFR2	2	n/a	n/a	n/a	6	n/a	n/a	n/a	n/a
840551	PROB	n/a	LTP313	ltpFR2	2	n/a	n/a	n/a	6	20	9	8	3
842637	PROB	n/a	LTP313	ltpFR2	2	n/a	n/a	n/a	6	24	8	8	8
843876	PROB	n/a	LTP313	ltpFR2	2	n/a	n/a	n/a	6	10	5	2	3
845076	PROB	n/a	LTP313	ltpFR2	2	n/a	n/a	n/a	6	12	1	5	6
846044	PROB	n/a	LTP313	ltpFR2	2	n/a	n/a	n/a	6	20	8	8	4
847662	PROB	n/a	LTP313	ltpFR2	2	n/a	n/a	n/a	6	8	1	3	4
848796	PROB	n/a	LTP313	ltpFR2	2	n/a	n/a	n/a	6	15	9	4	2
849779	PROB	n/a	LTP313	ltpFR2	2	n/a	n/a	n/a	6	5	1	3	1
850714	PROB	n/a	LTP313	ltpFR2	2	n/a	n/a	n/a	6	10	5	3	2
851867	PROB	n/a	LTP313	ltpFR2	2	n/a	n/a	n/a	6	20	8	3	9
853128	PROB	n/a	LTP313	ltpFR2	2	n/a	n/a	n/a	6	14	2	3	9
854451	PROB	n/a	LTP313	ltpFR2	2	n/a	n/a	n/a	6	13	4	6	3
855348	PROB	n/a	LTP313	ltpFR2	2	n/a	n/a	n/a	6	10	4	2	4
856753	PROB	n/a	LTP313	ltpFR2	2	n/a	n/a	n/a	6	14	1	5	8
857870	PROB	n/a	LTP313	ltpFR2	2	n/a	n/a	n/a	6	16	7	2	7
859787	PROB	n/a	LTP313	ltpFR2	2	n/a	n/a	n/a	6	21	6	9	6
861103	PROB	n/a	LTP313	ltpFR2	2	n/a	n/a	n/a	6	21	4	8	9
862186	PROB	n/a	LTP313	ltpFR2	2	n/a	n/a	n/a	6	19	5	5	9
863027	STOP	n/a	LTP313	ltpFR2	2	n/a	n/a	n/a	6	n/a	n/a	n/a	n/a
865607	WORD	wordpools/wasnorm_wordpool_576.txt	LTP313	ltpFR2	2	5	CABBAGE	210	n/a	n/a	0	0	0
868109	WORD	wordpools/wasnorm_wordpool_576.txt	LTP313	ltpFR2	2	5	APPLE	33	n/a	n/a	0	0	0
870695	WORD	wordpools/wasnorm_wordpool_576.txt	LTP313	ltpFR2	2	5	MOTEL	919	n/a	n/a	0	0	0
873363	WORD	wordpools/wasnorm_wordpool_576.txt	LTP313	ltpFR2	2	5	PACKAGE	997	n/a	n/a	0	0	0
875984	WORD	wordpools/wasnorm_wordpool_576.txt	LTP313	ltpFR2	2	5	WAITRESS	1581	n/a	n/a	0	0	0
878436	WORD	wordpools/wasnorm_wordpool_576.txt	LTP313	ltpFR2	2	5	HOSTESS	723	n/a	n/a	0	0	0
880971	WORD	wordpools/wasnorm_wordpool_576.txt	LTP313	ltpFR2	2	5	BLUEPRINT	142	n/a	n/a	0	0	0
883722	WORD	wordpools/wasnorm_wordpool_576.txt	LTP313	ltpFR2	2	5	CUSTARD	429	n/a	n/a	0	0	0
886342	WORD	wordpools/wasnorm_wordpool_576.txt	LTP313	ltpFR2	2	5	SNAKE	1333	n/a	n/a	0	0	0
888962	WORD	wordpools/wasnorm_wordpool_576.txt	LTP313	ltpFR2	2	5	MUSTARD	935	n/a	n/a	0	0	0
891596	WORD	wordpools/wasnorm_wordpool_576.txt	LTP313	ltpFR2	2	5	FRANCE	601	n/a	n/a	0	0	0
894282	WORD	wordpools/wasnorm_wordpool_576.txt	LTP313	ltpFR2	2	5	LUMBER	848	n/a	n/a	0	0	0
896836	WORD	wordpools/wasnorm_wordpool_576.txt	LTP313	ltpFR2	2	5	PRINCESS	1125	n/a	n/a	0	0	0
899620	WORD	wordpools/wasnorm_wordpool_576.txt	LTP313	ltpFR2	2	5	CROWN	415	n/a	n/a	0	0	0
902156	WORD	wordpools/wasnorm_wordpool_576.txt	LTP313	ltpFR2	2	5	SPOUSE	1358	n/a	n/a	0	0	0
904926	WORD	wordpools/wasnorm_wordpool_576.txt	LTP313	ltpFR2	2	5	CABIN	211	n/a	n/a	0	0	0
907594	WORD	wordpools/wasnorm_wordpool_576.txt	LTP313	ltpFR2	2	5	PIGMENT	1066	n/a	n/a	0	0	0
910412	WORD	wordpools/wasnorm_wordpool_576.txt	LTP313	ltpFR2	2	5	DINER	467	n/a	n/a	0	0	0
913015	WORD	wordpools/wasnorm_wordpool_576.txt	LTP313	ltpFR2	2	5	COBRA	336	n/a	n/a	0	0	0
915784	WORD	wordpools/wasnorm_wordpool_576.txt	LTP313	ltpFR2	2	5	WHISKERS	1605	n/a	n/a	0	0	0
918301	WORD	wordpools/wasnorm_wordpool_576.txt	LTP313	ltpFR2	2	5	LETTUCE	814	n/a	n/a	0	0	0
921054	WORD	wordpools/wasnorm_wordpool_576.txt	LTP313	ltpFR2	2	5	WINDOW	1611	n/a	n/a	0	0	0
923874	WORD	wordpools/wasnorm_wordpool_576.txt	LTP313	ltpFR2	2	5	MARSH	874	n/a	n/a	0	0	0
926375	WORD	wordpools/wasnorm_wordpool_576.txt	LTP313	ltpFR2	2	5	PECAN	1036	n/a	n/a	0	0	0
927980	START	n/a	LTP313	ltpFR2	2	n/a	n/a	n/a	7	n/a	n/a	n/a	n/a
928963	DISTRACTOR	n/a	LTP313	ltpFR2	2	5	n/a	n/a	n/a	n/a	0	0	0
928978	PROB	n/a	LTP313	ltpFR2	2	n/a	n/a	n/a	7	18	5	6	7
931178	PROB	n/a	LTP313	ltpFR2	2	n/a	n/a	n/a	7	18	4	9	7
934497	PROB	n/a	LTP313	ltpFR2	2	n/a	n/a	n/a	7	19	5	9	5
935899	PROB	n/a	LTP313	ltpFR2	2	n/a	n/a	n/a	7	18	7	8	3
937099	PROB	n/a	LTP313	ltpFR2	2	n/a	n/a	n/a	7	13	5	7	1
938551	PROB	n/a	LTP313	ltpFR2	2	n/a	n/a	n/a	7	12	5	6	1
939518	PROB	n/a	LTP313	ltpFR2	2	n/a	n/a	n/a	7	17	5	8	4
941821	PROB	n/a	LTP313	ltpFR2	2	n/a	n/a	n/a	7	19	6	7	6
943221	PROB	n/a	LTP313	ltpFR2	2	n/a	n/a	n/a	7	8	3	2	3
944823	PROB	n/a	LTP313	ltpFR2	2	n/a	n/a	n/a	7	19	2	8	9
945941	PROB	n/a	LTP313	ltpFR2	2	n/a	n/a	n/a	7	13	4	1	8
947357	PROB	n/a	LTP313	ltpFR2	2	n/a	n/a	n/a	7	14	5	7	2
948893	PROB	n/a	LTP313	ltpFR2	2	n/a	n/a	n/a	7	18	8	3	7
950009	PROB	n/a	LTP313	ltpFR2	2	n/a	n/a	n/a	7	14	3	8	3
951119	STOP	n/a	LTP313	ltpFR2	2	n/a	n/a	n/a	7	n/a	n/a	n/a	n/a
953866	REC_START	n/a	LTP313	ltpFR2	2	5	n/a	n/a	n/a	n/a	0	0	0
954493	REC_WORD	wordpools/wasnorm_wordpool_576.txt	LTP313	ltpFR2	2	5	MARSH	874	n/a	n/a	0	0	0
955844	REC_WORD	wordpools/wasnorm_wordpool_576.txt	LTP313	ltpFR2	2	5	CABBAGE	210	n/a	n/a	0	0	0
957063	REC_WORD	wordpools/wasnorm_wordpool_576.txt	LTP313	ltpFR2	2	5	LETTUCE	814	n/a	n/a	0	0	0
962867	REC_WORD	wordpools/wasnorm_wordpool_576.txt	LTP313	ltpFR2	2	5	MOTEL	919	n/a	n/a	0	0	0
965223	REC_WORD	wordpools/wasnorm_wordpool_576.txt	LTP313	ltpFR2	2	5	PACKAGE	997	n/a	n/a	0	0	0
967495	REC_WORD	wordpools/wasnorm_wordpool_576.txt	LTP313	ltpFR2	2	5	WAITRESS	1581	n/a	n/a	0	0	0
968457	REC_WORD	wordpools/wasnorm_wordpool_576.txt	LTP313	ltpFR2	2	5	HOSTESS	723	n/a	n/a	0	0	0
969982	REC_WORD	wordpools/wasnorm_wordpool_576.txt	LTP313	ltpFR2	2	5	FRANCE	601	n/a	n/a	0	0	0
971165	REC_WORD	wordpools/wasnorm_wordpool_576.txt	LTP313	ltpFR2	2	5	BLUEPRINT	142	n/a	n/a	0	0	0
981035	REC_WORD	wordpools/wasnorm_wordpool_576.txt	LTP313	ltpFR2	2	5	CUSTARD	429	n/a	n/a	0	0	0
981767	REC_WORD	wordpools/wasnorm_wordpool_576.txt	LTP313	ltpFR2	2	5	MUSTARD	935	n/a	n/a	0	0	0
991581	REC_WORD	wordpools/wasnorm_wordpool_576.txt	LTP313	ltpFR2	2	5	COBRA	336	n/a	n/a	0	0	0
992522	REC_WORD	wordpools/wasnorm_wordpool_576.txt	LTP313	ltpFR2	2	5	WHISKERS	1605	n/a	n/a	0	0	0
1044286	DISTRACTOR	n/a	LTP313	ltpFR2	2	6	n/a	n/a	n/a	n/a	0	0	0
1044287	START	n/a	LTP313	ltpFR2	2	n/a	n/a	n/a	8	n/a	n/a	n/a	n/a
1044304	PROB	n/a	LTP313	ltpFR2	2	n/a	n/a	n/a	8	12	3	4	5
1045955	PROB	n/a	LTP313	ltpFR2	2	n/a	n/a	n/a	8	23	9	6	8
1047423	PROB	n/a	LTP313	ltpFR2	2	n/a	n/a	n/a	8	21	7	9	5
1048706	PROB	n/a	LTP313	ltpFR2	2	n/a	n/a	n/a	8	8	2	5	1
1049808	PROB	n/a	LTP313	ltpFR2	2	n/a	n/a	n/a	8	12	6	5	1
1050742	PROB	n/a	LTP313	ltpFR2	2	n/a	n/a	n/a	8	13	6	1	6
1051826	PROB	n/a	LTP313	ltpFR2	2	n/a	n/a	n/a	8	14	3	2	9
1052810	PROB	n/a	LTP313	ltpFR2	2	n/a	n/a	n/a	8	17	7	5	5
1054494	PROB	n/a	LTP313	ltpFR2	2	n/a	n/a	n/a	8	5	2	2	1
1055362	PROB	n/a	LTP313	ltpFR2	2	n/a	n/a	n/a	8	20	6	6	8
1056562	PROB	n/a	LTP313	ltpFR2	2	n/a	n/a	n/a	8	10	2	6	2
1057596	PROB	n/a	LTP313	ltpFR2	2	n/a	n/a	n/a	8	23	9	7	7
1059331	PROB	n/a	LTP313	ltpFR2	2	n/a	n/a	n/a	8	19	4	9	6
1061750	PROB	n/a	LTP313	ltpFR2	2	n/a	n/a	n/a	8	18	6	8	4
1063251	PROB	n/a	LTP313	ltpFR2	2	n/a	n/a	n/a	8	17	8	3	6
1064335	PROB	n/a	LTP313	ltpFR2	2	n/a	n/a	n/a	8	14	5	7	2
1065403	PROB	n/a	LTP313	ltpFR2	2	n/a	n/a	n/a	8	13	8	3	2
1066470	PROB	n/a	LTP313	ltpFR2	2	n/a	n/a	n/a	8	21	5	7	9
1067731	STOP	n/a	LTP313	ltpFR2	2	n/a	n/a	n/a	8	n/a	n/a	n/a	n/a
1069474	WORD	wordpools/wasnorm_wordpool_576.txt	LTP313	ltpFR2	2	6	LOFT	840	n/a	n/a	0	0	0
1072088	WORD	wordpools/wasnorm_wordpool_576.txt	LTP313	ltpFR2	2	6	CARROT	249	n/a	n/a	0	0	0
1074756	WORD	wordpools/wasnorm_wordpool_576.txt	LTP313	ltpFR2	2	6	PEPPER	1047	n/a	n/a	0	0	0
1077558	WORD	wordpools/wasnorm_wordpool_576.txt	LTP313	ltpFR2	2	6	TRIBE	1505	n/a	n/a	0	0	0
1080028	WORD	wordpools/wasnorm_wordpool_576.txt	LTP313	ltpFR2	2	6	SUSPECT	1415	n/a	n/a	0	0	0
1082834	WORD	wordpools/wasnorm_wordpool_576.txt	LTP313	ltpFR2	2	6	HOOK	715	n/a	n/a	0	0	0
1085332	WORD	wordpools/wasnorm_wordpool_576.txt	LTP313	ltpFR2	2	6	RUST	1219	n/a	n/a	0	0	0
1088106	WORD	wordpools/wasnorm_wordpool_576.txt	LTP313	ltpFR2	2	6	VELVET	1555	n/a	n/a	0	0	0
1090570	WORD	wordpools/wasnorm_wordpool_576.txt	LTP313	ltpFR2	2	6	MAILMAN	858	n/a	n/a	0	0	0
1093059	WORD	wordpools/wasnorm_wordpool_576.txt	LTP313	ltpFR2	2	6	CHAMPAGNE	278	n/a	n/a	0	0	0
1095826	WORD	wordpools/wasnorm_wordpool_576.txt	LTP313	ltpFR2	2	6	TRENCH	1503	n/a	n/a	0	0	0
1098396	WORD	wordpools/wasnorm_wordpool_576.txt	LTP313	ltpFR2	2	6	HOOD	714	n/a	n/a	0	0	0
1100980	WORD	wordpools/wasnorm_wordpool_576.txt	LTP313	ltpFR2	2	6	PUPIL	1143	n/a	n/a	0	0	0
1103551	WORD	wordpools/wasnorm_wordpool_576.txt	LTP313	ltpFR2	2	6	GAVEL	627	n/a	n/a	0	0	0
1106217	WORD	wordpools/wasnorm_wordpool_576.txt	LTP313	ltpFR2	2	6	WITNESS	1618	n/a	n/a	0	0	0
1108820	WORD	wordpools/wasnorm_wordpool_576.txt	LTP313	ltpFR2	2	6	POSTAGE	1113	n/a	n/a	0	0	0
1111272	WORD	wordpools/wasnorm_wordpool_576.txt	LTP313	ltpFR2	2	6	MATTRESS	879	n/a	n/a	0	0	0
1114042	WORD	wordpools/wasnorm_wordpool_576.txt	LTP313	ltpFR2	2	6	EYELASH	546	n/a	n/a	0	0	0
1116662	WORD	wordpools/wasnorm_wordpool_576.txt	LTP313	ltpFR2	2	6	DASHBOARD	441	n/a	n/a	0	0	0
1119362	WORD	wordpools/wasnorm_wordpool_576.txt	LTP313	ltpFR2	2	6	MEDAL	885	n/a	n/a	0	0	0
1122114	WORD	wordpools/wasnorm_wordpool_576.txt	LTP313	ltpFR2	2	6	BOARD	143	n/a	n/a	0	0	0
1124733	WORD	wordpools/wasnorm_wordpool_576.txt	LTP313	ltpFR2	2	6	STOVE	1388	n/a	n/a	0	0	0
1127436	WORD	wordpools/wasnorm_wordpool_576.txt	LTP313	ltpFR2	2	6	GRILL	661	n/a	n/a	0	0	0
1130038	WORD	wordpools/wasnorm_wordpool_576.txt	LTP313	ltpFR2	2	6	MESSAGE	888	n/a	n/a	0	0	0
1131656	START	n/a	LTP313	ltpFR2	2	n/a	n/a	n/a	9	n/a	n/a	n/a	n/a
1132683	DISTRACTOR	n/a	LTP313	ltpFR2	2	6	n/a	n/a	n/a	n/a	0	0	0
1132690	PROB	n/a	LTP313	ltpFR2	2	n/a	n/a	n/a	9	14	1	9	4
1134526	PROB	n/a	LTP313	ltpFR2	2	n/a	n/a	n/a	9	17	6	8	3
1137511	PROB	n/a	LTP313	ltpFR2	2	n/a	n/a	n/a	9	17	2	6	9
1139898	PROB	n/a	LTP313	ltpFR2	2	n/a	n/a	n/a	9	15	4	8	3
1141098	PROB	n/a	LTP313	ltpFR2	2	n/a	n/a	n/a	9	21	9	9	2
1142214	PROB	n/a	LTP313	ltpFR2	2	n/a	n/a	n/a	9	13	9	1	3
1143416	PROB	n/a	LTP313	ltpFR2	2	n/a	n/a	n/a	9	21	8	4	9
1144585	PROB	n/a	LTP313	ltpFR2	2	n/a	n/a	n/a	9	19	2	9	8
1147301	PROB	n/a	LTP313	ltpFR2	2	n/a	n/a	n/a	9	23	8	8	7
1150805	PROB	n/a	LTP313	ltpFR2	2	n/a	n/a	n/a	9	21	9	3	9
1153456	PROB	n/a	LTP313	ltpFR2	2	n/a	n/a	n/a	9	11	4	6	1
1154303	STOP	n/a	LTP313	ltpFR2	2	n/a	n/a	n/a	9	n/a	n/a	n/a	n/a
1157510	REC_START	n/a	LTP313	ltpFR2	2	6	n/a	n/a	n/a	n/a	0	0	0
1158044	REC_WORD	wordpools/wasnorm_wordpool_576.txt	LTP313	ltpFR2	2	6	MATTRESS	879	n/a	n/a	0	0	0
1159633	REC_WORD	wordpools/wasnorm_wordpool_576.txt	LTP313	ltpFR2	2	6	EYELASH	546	n/a	n/a	0	0	0
1161590	REC_WORD	wordpools/wasnorm_wordpool_576.txt	LTP313	ltpFR2	2	6	BLACKBOARD	133	n/a	n/a	0	0	0
1163536	REC_WORD	wordpools/wasnorm_wordpool_576.txt	LTP313	ltpFR2	2	6	BOARD	143	n/a	n/a	0	0	0
1165121	REC_WORD	wordpools/wasnorm_wordpool_576.txt	LTP313	ltpFR2	2	6	LOFT	840	n/a	n/a	0	0	0
1167439	REC_WORD	wordpools/wasnorm_wordpool_576.txt	LTP313	ltpFR2	2	6	GAVEL	627	n/a	n/a	0	0	0
1170087	REC_WORD	wordpools/wasnorm_wordpool_576.txt	LTP313	ltpFR2	2	6	PUPIL	1143	n/a	n/a	0	0	0
1173331	REC_WORD	wordpools/wasnorm_wordpool_576.txt	LTP313	ltpFR2	2	6	CARROT	249	n/a	n/a	0	0	0
1175412	REC_WORD	wordpools/wasnorm_wordpool_576.txt	LTP313	ltpFR2	2	6	HOOK	715	n/a	n/a	0	0	0
1182023	REC_WORD	wordpools/wasnorm_wordpool_576.txt	LTP313	ltpFR2	2	6	CHAMPAGNE	278	n/a	n/a	0	0	0
1192571	REC_WORD	wordpools/wasnorm_wordpool_576.txt	LTP313	ltpFR2	2	6	VELVET	1555	n/a	n/a	0	0	0
1267050	DISTRACTOR	n/a	LTP313	ltpFR2	2	7	n/a	n/a	n/a	n/a	0	0	0
1267050	START	n/a	LTP313	ltpFR2	2	n/a	n/a	n/a	10	n/a	n/a	n/a	n/a
1267064	PROB	n/a	LTP313	ltpFR2	2	n/a	n/a	n/a	10	11	2	8	1
1268483	PROB	n/a	LTP313	ltpFR2	2	n/a	n/a	n/a	10	4	1	1	2
1269666	PROB	n/a	LTP313	ltpFR2	2	n/a	n/a	n/a	10	10	5	3	2
1270700	PROB	n/a	LTP313	ltpFR2	2	n/a	n/a	n/a	10	16	3	6	7
1272718	PROB	n/a	LTP313	ltpFR2	2	n/a	n/a	n/a	10	17	1	7	9
1275087	PROB	n/a	LTP313	ltpFR2	2	n/a	n/a	n/a	10	18	9	8	1
1276422	PROB	n/a	LTP313	ltpFR2	2	n/a	n/a	n/a	10	15	6	4	5
1277272	PROB	n/a	LTP313	ltpFR2	2	n/a	n/a	n/a	10	16	8	5	3
1279126	PROB	n/a	LTP313	ltpFR2	2	n/a	n/a	n/a	10	18	7	8	3
1280626	PROB	n/a	LTP313	ltpFR2	2	n/a	n/a	n/a	10	17	9	3	5
1281661	PROB	n/a	LTP313	ltpFR2	2	n/a	n/a	n/a	10	21	9	9	3
1282676	PROB	n/a	LTP313	ltpFR2	2	n/a	n/a	n/a	10	13	2	6	5
1284378	PROB	n/a	LTP313	ltpFR2	2	n/a	n/a	n/a	10	11	4	3	4
1285564	PROB	n/a	LTP313	ltpFR2	2	n/a	n/a	n/a	10	9	4	2	3
1288283	PROB	n/a	LTP313	ltpFR2	2	n/a	n/a	n/a	10	10	2	1	7
1289199	PROB	n/a	LTP313	ltpFR2	2	n/a	n/a	n/a	10	16	6	4	6
1290308	STOP	n/a	LTP313	ltpFR2	2	n/a	n/a	n/a	10	n/a	n/a	n/a	n/a
1292086	WORD	wordpools/wasnorm_wordpool_576.txt	LTP313	ltpFR2	2	7	OFFICE	972	n/a	n/a	0	0	0
1294783	WORD	wordpools/wasnorm_wordpool_576.txt	LTP313	ltpFR2	2	7	BASEMENT	94	n/a	n/a	0	0	0
1297400	WORD	wordpools/wasnorm_wordpool_576.txt	LTP313	ltpFR2	2	7	ACTOR	5	n/a	n/a	0	0	0
1300052	WORD	wordpools/wasnorm_wordpool_576.txt	LTP313	ltpFR2	2	7	POPCORN	1104	n/a	n/a	0	0	0
1302777	WORD	wordpools/wasnorm_wordpool_576.txt	LTP313	ltpFR2	2	7	ACTRESS	6	n/a	n/a	0	0	0
1305195	WORD	wordpools/wasnorm_wordpool_576.txt	LTP313	ltpFR2	2	7	MILK	895	n/a	n/a	0	0	0
1307748	WORD	wordpools/wasnorm_wordpool_576.txt	LTP313	ltpFR2	2	7	BUREAU	199	n/a	n/a	0	0	0
1310466	WORD	wordpools/wasnorm_wordpool_576.txt	LTP313	ltpFR2	2	7	PEDAL	1037	n/a	n/a	0	0	0
1313114	WORD	wordpools/wasnorm_wordpool_576.txt	LTP313	ltpFR2	2	7	HELMET	702	n/a	n/a	0	0	0
1315604	WORD	wordpools/wasnorm_wordpool_576.txt	LTP313	ltpFR2	2	7	PARENT	1013	n/a	n/a	0	0	0
1318107	WORD	wordpools/wasnorm_wordpool_576.txt	LTP313	ltpFR2	2	7	COD	340	n/a	n/a	0	0	0
1320704	WORD	wordpools/wasnorm_wordpool_576.txt	LTP313	ltpFR2	2	7	BEAVER	109	n/a	n/a	0	0	0
1323223	WORD	wordpools/wasnorm_wordpool_576.txt	LTP313	ltpFR2	2	7	BUCKET	184	n/a	n/a	0	0	0
1325742	WORD	wordpools/wasnorm_wordpool_576.txt	LTP313	ltpFR2	2	7	MATCH	878	n/a	n/a	0	0	0
1328415	WORD	wordpools/wasnorm_wordpool_576.txt	LTP313	ltpFR2	2	7	GALLON	618	n/a	n/a	0	0	0
1331234	WORD	wordpools/wasnorm_wordpool_576.txt	LTP313	ltpFR2	2	7	POWDER	1117	n/a	n/a	0	0	0
1333799	WORD	wordpools/wasnorm_wordpool_576.txt	LTP313	ltpFR2	2	7	SLOPE	1328	n/a	n/a	0	0	0
1336353	WORD	wordpools/wasnorm_wordpool_576.txt	LTP313	ltpFR2	2	7	SHORTS	1293	n/a	n/a	0	0	0
1339020	WORD	wordpools/wasnorm_wordpool_576.txt	LTP313	ltpFR2	2	7	DENTIST	447	n/a	n/a	0	0	0
1341492	WORD	wordpools/wasnorm_wordpool_576.txt	LTP313	ltpFR2	2	7	CHILD	299	n/a	n/a	0	0	0
1344274	WORD	wordpools/wasnorm_wordpool_576.txt	LTP313	ltpFR2	2	7	VAGRANT	1544	n/a	n/a	0	0	0
1347080	WORD	wordpools/wasnorm_wordpool_576.txt	LTP313	ltpFR2	2	7	CRAB	397	n/a	n/a	0	0	0
1349629	WORD	wordpools/wasnorm_wordpool_576.txt	LTP313	ltpFR2	2	7	POLICE	1098	n/a	n/a	0	0	0
1352249	WORD	wordpools/wasnorm_wordpool_576.txt	LTP313	ltpFR2	2	7	LILY	821	n/a	n/a	0	0	0
1353867	START	n/a	LTP313	ltpFR2	2	n/a	n/a	n/a	11	n/a	n/a	n/a	n/a
1355025	DISTRACTOR	n/a	LTP313	ltpFR2	2	7	n/a	n/a	n/a	n/a	0	0	0
1355034	PROB	n/a	LTP313	ltpFR2	2	n/a	n/a	n/a	11	20	8	6	6
1356685	PROB	n/a	LTP313	ltpFR2	2	n/a	n/a	n/a	11	10	2	2	6
1357803	PROB	n/a	LTP313	ltpFR2	2	n/a	n/a	n/a	11	10	1	1	8
1360288	PROB	n/a	LTP313	ltpFR2	2	n/a	n/a	n/a	11	14	5	5	4
1361471	PROB	n/a	LTP313	ltpFR2	2	n/a	n/a	n/a	11	10	3	5	2
1362722	PROB	n/a	LTP313	ltpFR2	2	n/a	n/a	n/a	11	10	2	4	4
1364290	PROB	n/a	LTP313	ltpFR2	2	n/a	n/a	n/a	11	14	4	6	4
1365159	PROB	n/a	LTP313	ltpFR2	2	n/a	n/a	n/a	11	15	4	6	5
1366008	PROB	n/a	LTP313	ltpFR2	2	n/a	n/a	n/a	11	1	5	2	6
1367196	PROB	n/a	LTP313	ltpFR2	2	n/a	n/a	n/a	11	7	1	1	5
1368547	PROB	n/a	LTP313	ltpFR2	2	n/a	n/a	n/a	11	7	2	2	3
1369982	PROB	n/a	LTP313	ltpFR2	2	n/a	n/a	n/a	11	9	1	1	7
1371016	PROB	n/a	LTP313	ltpFR2	2	n/a	n/a	n/a	11	16	7	1	8
1372116	PROB	n/a	LTP313	ltpFR2	2	n/a	n/a	n/a	11	10	1	5	4
1373250	PROB	n/a	LTP313	ltpFR2	2	n/a	n/a	n/a	11	17	9	7	1
1374450	PROB	n/a	LTP313	ltpFR2	2	n/a	n/a	n/a	11	12	2	4	6
1375603	PROB	n/a	LTP313	ltpFR2	2	n/a	n/a	n/a	11	6	1	3	2
1377000	STOP	n/a	LTP313	ltpFR2	2	n/a	n/a	n/a	11	n/a	n/a	n/a	n/a
1379673	REC_START	n/a	LTP313	ltpFR2	2	7	n/a	n/a	n/a	n/a	0	0	0
1380504	REC_WORD	wordpools/wasnorm_wordpool_576.txt	LTP313	ltpFR2	2	7	LILY	821	n/a	n/a	0	0	0
1381731	REC_WORD	wordpools/wasnorm_wordpool_576.txt	LTP313	ltpFR2	2	7	CRAB	397	n/a	n/a	0	0	0
1386065	REC_WORD	wordpools/wasnorm_wordpool_576.txt	LTP313	ltpFR2	2	7	POLICE	1098	n/a	n/a	0	0	0
1389572	REC_WORD	wordpools/wasnorm_wordpool_576.txt	LTP313	ltpFR2	2	7	OFFICE	972	n/a	n/a	0	0	0
1390682	REC_WORD	wordpools/wasnorm_wordpool_576.txt	LTP313	ltpFR2	2	7	BASEMENT	94	n/a	n/a	0	0	0
1391666	REC_WORD	wordpools/wasnorm_wordpool_576.txt	LTP313	ltpFR2	2	7	ACTOR	5	n/a	n/a	0	0	0
1392740	REC_WORD	wordpools/wasnorm_wordpool_576.txt	LTP313	ltpFR2	2	7	POPCORN	1104	n/a	n/a	0	0	0
1394142	REC_WORD	wordpools/wasnorm_wordpool_576.txt	LTP313	ltpFR2	2	7	ACTRESS	6	n/a	n/a	0	0	0
1397777	REC_WORD	wordpools/wasnorm_wordpool_576.txt	LTP313	ltpFR2	2	7	MILK	895	n/a	n/a	0	0	0
1408765	REC_WORD	wordpools/wasnorm_wordpool_576.txt	LTP313	ltpFR2	2	7	BUREAU	199	n/a	n/a	0	0	0
1410976	REC_WORD	wordpools/wasnorm_wordpool_576.txt	LTP313	ltpFR2	2	7	VAGRANT	1544	n/a	n/a	0	0	0
1470110	WORD	wordpools/wasnorm_wordpool_576.txt	LTP313	ltpFR2	2	8	MILDEW	893	n/a	n/a	0	0	0
1472697	WORD	wordpools/wasnorm_wordpool_576.txt	LTP313	ltpFR2	2	8	CAMEL	223	n/a	n/a	0	0	0
1475249	WORD	wordpools/wasnorm_wordpool_576.txt	LTP313	ltpFR2	2	8	DRIVER	499	n/a	n/a	0	0	0
1477825	WORD	wordpools/wasnorm_wordpool_576.txt	LTP313	ltpFR2	2	8	HORSE	719	n/a	n/a	0	0	0
1480375	WORD	wordpools/wasnorm_wordpool_576.txt	LTP313	ltpFR2	2	8	STONE	1385	n/a	n/a	0	0	0
1482855	WORD	wordpools/wasnorm_wordpool_576.txt	LTP313	ltpFR2	2	8	PIZZA	1079	n/a	n/a	0	0	0
1485330	WORD	wordpools/wasnorm_wordpool_576.txt	LTP313	ltpFR2	2	8	TRACTOR	1493	n/a	n/a	0	0	0
1487877	WORD	wordpools/wasnorm_wordpool_576.txt	LTP313	ltpFR2	2	8	HANDBAG	684	n/a	n/a	0	0	0
1490411	WORD	wordpools/wasnorm_wordpool_576.txt	LTP313	ltpFR2	2	8	KNAPSACK	783	n/a	n/a	0	0	0
1492831	WORD	wordpools/wasnorm_wordpool_576.txt	LTP313	ltpFR2	2	8	RACKET	1155	n/a	n/a	0	0	0
1495515	WORD	wordpools/wasnorm_wordpool_576.txt	LTP313	ltpFR2	2	8	CIGAR	308	n/a	n/a	0	0	0
1497960	WORD	wordpools/wasnorm_wordpool_576.txt	LTP313	ltpFR2	2	8	ELBOW	520	n/a	n/a	0	0	0
1500644	WORD	wordpools/wasnorm_wordpool_576.txt	LTP313	ltpFR2	2	8	FUNGUS	614	n/a	n/a	0	0	0
1503171	WORD	wordpools/wasnorm_wordpool_576.txt	LTP313	ltpFR2	2	8	PORK	1108	n/a	n/a	0	0	0
1505723	WORD	wordpools/wasnorm_wordpool_576.txt	LTP313	ltpFR2	2	8	CARRIAGE	248	n/a	n/a	0	0	0
1508292	WORD	wordpools/wasnorm_wordpool_576.txt	LTP313	ltpFR2	2	8	RAFT	1159	n/a	n/a	0	0	0
1510911	WORD	wordpools/wasnorm_wordpool_576.txt	LTP313	ltpFR2	2	8	AIRPLANE	12	n/a	n/a	0	0	0
1513638	WORD	wordpools/wasnorm_wordpool_576.txt	LTP313	ltpFR2	2	8	CURTAIN	427	n/a	n/a	0	0	0
1516182	WORD	wordpools/wasnorm_wordpool_576.txt	LTP313	ltpFR2	2	8	ROD	1203	n/a	n/a	0	0	0
1518894	WORD	wordpools/wasnorm_wordpool_576.txt	LTP313	ltpFR2	2	8	LAPEL	800	n/a	n/a	0	0	0
1521603	WORD	wordpools/wasnorm_wordpool_576.txt	LTP313	ltpFR2	2	8	MISTER	901	n/a	n/a	0	0	0
1524155	WORD	wordpools/wasnorm_wordpool_576.txt	LTP313	ltpFR2	2	8	WOMAN	1620	n/a	n/a	0	0	0
1526607	WORD	wordpools/wasnorm_wordpool_576.txt	LTP313	ltpFR2	2	8	PLAID	1080	n/a	n/a	0	0	0
1529303	WORD	wordpools/wasnorm_wordpool_576.txt	LTP313	ltpFR2	2	8	YARN	1631	n/a	n/a	0	0	0
1530912	START	n/a	LTP313	ltpFR2	2	n/a	n/a	n/a	12	n/a	n/a	n/a	n/a
1531941	DISTRACTOR	n/a	LTP313	ltpFR2	2	8	n/a	n/a	n/a	n/a	0	0	0
1531946	PROB	n/a	LTP313	ltpFR2	2	n/a	n/a	n/a	12	14	1	5	8
1535112	PROB	n/a	LTP313	ltpFR2	2	n/a	n/a	n/a	12	14	4	4	6
1536147	PROB	n/a	LTP313	ltpFR2	2	n/a	n/a	n/a	12	18	7	9	2
1537581	PROB	n/a	LTP313	ltpFR2	2	n/a	n/a	n/a	12	3	1	1	1
1538432	PROB	n/a	LTP313	ltpFR2	2	n/a	n/a	n/a	12	18	6	8	4
1539601	PROB	n/a	LTP313	ltpFR2	2	n/a	n/a	n/a	12	11	4	3	4
1541451	PROB	n/a	LTP313	ltpFR2	2	n/a	n/a	n/a	12	21	8	8	5
1542570	PROB	n/a	LTP313	ltpFR2	2	n/a	n/a	n/a	12	12	2	1	9
1543838	PROB	n/a	LTP313	ltpFR2	2	n/a	n/a	n/a	12	16	1	9	6
1545054	PROB	n/a	LTP313	ltpFR2	2	n/a	n/a	n/a	12	14	2	4	8
1547389	PROB	n/a	LTP313	ltpFR2	2	n/a	n/a	n/a	12	19	5	6	8
1548875	PROB	n/a	LTP313	ltpFR2	2	n/a	n/a	n/a	12	17	9	5	3
1549959	PROB	n/a	LTP313	ltpFR2	2	n/a	n/a	n/a	12	12	6	4	2
1551059	PROB	n/a	LTP313	ltpFR2	2	n/a	n/a	n/a	12	8	2	4	2
1552261	PROB	n/a	LTP313	ltpFR2	2	n/a	n/a	n/a	12	15	3	6	6
1554912	STOP	n/a	LTP313	ltpFR2	2	n/a	n/a	n/a	12	n/a	n/a	n/a	n/a
1556663	REC_START	n/a	LTP313	ltpFR2	2	8	n/a	n/a	n/a	n/a	0	0	0
1557609	REC_WORD	wordpools/wasnorm_wordpool_576.txt	LTP313	ltpFR2	2	8	RAFT	1159	n/a	n/a	0	0	0
1558980	REC_WORD	wordpools/wasnorm_wordpool_576.txt	LTP313	ltpFR2	2	8	AIRPLANE	12	n/a	n/a	0	0	0
1560280	REC_WORD	wordpools/wasnorm_wordpool_576.txt	LTP313	ltpFR2	2	8	CURTAIN	427	n/a	n/a	0	0	0
1563438	REC_WORD	wordpools/wasnorm_wordpool_576.txt	LTP313	ltpFR2	2	8	MILDEW	893	n/a	n/a	0	0	0
1564734	REC_WORD	wordpools/wasnorm_wordpool_576.txt	LTP313	ltpFR2	2	8	CAMEL	223	n/a	n/a	0	0	0
1565898	REC_WORD	wordpools/wasnorm_wordpool_576.txt	LTP313	ltpFR2	2	8	DRIVER	499	n/a	n/a	0	0	0
1567678	REC_WORD	wordpools/wasnorm_wordpool_576.txt	LTP313	ltpFR2	2	8	HORSE	719	n/a	n/a	0	0	0
1568847	REC_WORD	wordpools/wasnorm_wordpool_576.txt	LTP313	ltpFR2	2	8	STONE	1385	n/a	n/a	0	0	0
1570321	REC_WORD	wordpools/wasnorm_wordpool_576.txt	LTP313	ltpFR2	2	8	PIZZA	1079	n/a	n/a	0	0	0
1571475	REC_WORD	wordpools/wasnorm_wordpool_576.txt	LTP313	ltpFR2	2	8	TRACTOR	1493	n/a	n/a	0	0	0
1590741	REC_WORD	wordpools/wasnorm_wordpool_576.txt	LTP313	ltpFR2	2	8	KNAPSACK	783	n/a	n/a	0	0	0
1633208	REST_REWET	n/a	LTP313	ltpFR2	2	8	n/a	n/a	n/a	n/a	0	0	0
2282576	DISTRACTOR	n/a	LTP313	ltpFR2	2	9	n/a	n/a	n/a	n/a	0	0	0
2282576	START	n/a	LTP313	ltpFR2	2	n/a	n/a	n/a	13	n/a	n/a	n/a	n/a
2282591	PROB	n/a	LTP313	ltpFR2	2	n/a	n/a	n/a	13	7	1	3	3
2284214	PROB	n/a	LTP313	ltpFR2	2	n/a	n/a	n/a	13	18	7	4	7
2285598	PROB	n/a	LTP313	ltpFR2	2	n/a	n/a	n/a	13	19	6	8	5
2288953	PROB	n/a	LTP313	ltpFR2	2	n/a	n/a	n/a	13	10	6	3	1
2289953	PROB	n/a	LTP313	ltpFR2	2	n/a	n/a	n/a	13	18	3	8	7
2291121	PROB	n/a	LTP313	ltpFR2	2	n/a	n/a	n/a	13	17	1	7	9
2293405	PROB	n/a	LTP313	ltpFR2	2	n/a	n/a	n/a	13	17	7	9	1
2295707	PROB	n/a	LTP313	ltpFR2	2	n/a	n/a	n/a	13	20	5	7	8
2296920	PROB	n/a	LTP313	ltpFR2	2	n/a	n/a	n/a	13	20	5	8	7
2298321	PROB	n/a	LTP313	ltpFR2	2	n/a	n/a	n/a	13	16	7	6	3
2299477	PROB	n/a	LTP313	ltpFR2	2	n/a	n/a	n/a	13	10	1	1	8
2300343	PROB	n/a	LTP313	ltpFR2	2	n/a	n/a	n/a	13	12	3	6	3
2303426	PROB	n/a	LTP313	ltpFR2	2	n/a	n/a	n/a	13	12	3	1	8
2304476	PROB	n/a	LTP313	ltpFR2	2	n/a	n/a	n/a	13	14	5	8	1
2306101	STOP	n/a	LTP313	ltpFR2	2	n/a	n/a	n/a	13	n/a	n/a	n/a	n/a
2307751	WORD	wordpools/wasnorm_wordpool_576.txt	LTP313	ltpFR2	2	9	RAZOR	1171	n/a	n/a	0	0	0
2310516	WORD	wordpools/wasnorm_wordpool_576.txt	LTP313	ltpFR2	2	9	BLADE	134	n/a	n/a	0	0	0
2312988	WORD	wordpools/wasnorm_wordpool_576.txt	LTP313	ltpFR2	2	9	WIFE	1609	n/a	n/a	0	0	0
2315471	WORD	wordpools/wasnorm_wordpool_576.txt	LTP313	ltpFR2	2	9	TABLE	1426	n/a	n/a	0	0	0
2317974	WORD	wordpools/wasnorm_wordpool_576.txt	LTP313	ltpFR2	2	9	COFFEE	341	n/a	n/a	0	0	0
2320624	WORD	wordpools/wasnorm_wordpool_576.txt	LTP313	ltpFR2	2	9	SILK	1307	n/a	n/a	0	0	0
2323394	WORD	wordpools/wasnorm_wordpool_576.txt	LTP313	ltpFR2	2	9	BADGE	68	n/a	n/a	0	0	0
2325947	WORD	wordpools/wasnorm_wordpool_576.txt	LTP313	ltpFR2	2	9	AIRPORT	13	n/a	n/a	0	0	0
2328682	WORD	wordpools/wasnorm_wordpool_576.txt	LTP313	ltpFR2	2	9	DRINK	498	n/a	n/a	0	0	0
2331435	WORD	wordpools/wasnorm_wordpool_576.txt	LTP313	ltpFR2	2	9	MISSILE	900	n/a	n/a	0	0	0
2334120	WORD	wordpools/wasnorm_wordpool_576.txt	LTP313	ltpFR2	2	9	SLUG	1329	n/a	n/a	0	0	0
2336873	WORD	wordpools/wasnorm_wordpool_576.txt	LTP313	ltpFR2	2	9	DAUGHTER	442	n/a	n/a	0	0	0
2339375	WORD	wordpools/wasnorm_wordpool_576.txt	LTP313	ltpFR2	2	9	VIKING	1565	n/a	n/a	0	0	0
2341995	WORD	wordpools/wasnorm_wordpool_576.txt	LTP313	ltpFR2	2	9	QUEEN	1149	n/a	n/a	0	0	0
2344463	WORD	wordpools/wasnorm_wordpool_576.txt	LTP313	ltpFR2	2	9	SCISSORS	1250	n/a	n/a	0	0	0
2347148	WORD	wordpools/wasnorm_wordpool_576.txt	LTP313	ltpFR2	2	9	KNIFE	785	n/a	n/a	0	0	0
2349683	WORD	wordpools/wasnorm_wordpool_576.txt	LTP313	ltpFR2	2	9	TORTOISE	1486	n/a	n/a	0	0	0
2352369	WORD	wordpools/wasnorm_wordpool_576.txt	LTP313	ltpFR2	2	9	BANQUET	86	n/a	n/a	0	0	0
2354873	WORD	wordpools/wasnorm_wordpool_576.txt	LTP313	ltpFR2	2	9	CUPBOARD	425	n/a	n/a	0	0	0
2357307	WORD	wordpools/wasnorm_wordpool_576.txt	LTP313	ltpFR2	2	9	HUSBAND	728	n/a	n/a	0	0	0
2360092	WORD	wordpools/wasnorm_wordpool_576.txt	LTP313	ltpFR2	2	9	COUCH	386	n/a	n/a	0	0	0
2362728	WORD	wordpools/wasnorm_wordpool_576.txt	LTP313	ltpFR2	2	9	PAIL	1002	n/a	n/a	0	0	0
2365396	WORD	wordpools/wasnorm_wordpool_576.txt	LTP313	ltpFR2	2	9	DONKEY	484	n/a	n/a	0	0	0
2367882	WORD	wordpools/wasnorm_wordpool_576.txt	LTP313	ltpFR2	2	9	LEOPARD	812	n/a	n/a	0	0	0
2369501	START	n/a	LTP313	ltpFR2	2	n/a	n/a	n/a	14	n/a	n/a	n/a	n/a
2370424	DISTRACTOR	n/a	LTP313	ltpFR2	2	9	n/a	n/a	n/a	n/a	0	0	0
2370434	PROB	n/a	LTP313	ltpFR2	2	n/a	n/a	n/a	14	15	3	5	7
2373036	PROB	n/a	LTP313	ltpFR2	2	n/a	n/a	n/a	14	21	6	6	9
2374186	PROB	n/a	LTP313	ltpFR2	2	n/a	n/a	n/a	14	16	9	4	6
2375770	PROB	n/a	LTP313	ltpFR2	2	n/a	n/a	n/a	14	9	2	3	4
2378055	PROB	n/a	LTP313	ltpFR2	2	n/a	n/a	n/a	14	17	8	6	3
2380024	PROB	n/a	LTP313	ltpFR2	2	n/a	n/a	n/a	14	9	1	1	7
2381008	PROB	n/a	LTP313	ltpFR2	2	n/a	n/a	n/a	14	21	8	9	4
2382444	PROB	n/a	LTP313	ltpFR2	2	n/a	n/a	n/a	14	20	8	5	7
2383593	PROB	n/a	LTP313	ltpFR2	2	n/a	n/a	n/a	14	22	7	9	6
2384845	PROB	n/a	LTP313	ltpFR2	2	n/a	n/a	n/a	14	8	1	1	6
2385846	PROB	n/a	LTP313	ltpFR2	2	n/a	n/a	n/a	14	18	7	2	9
2387148	PROB	n/a	LTP313	ltpFR2	2	n/a	n/a	n/a	14	6	1	6	2
2388214	PROB	n/a	LTP313	ltpFR2	2	n/a	n/a	n/a	14	14	5	3	6
2389918	PROB	n/a	LTP313	ltpFR2	2	n/a	n/a	n/a	14	21	6	8	7
2391115	PROB	n/a	LTP313	ltpFR2	2	n/a	n/a	n/a	14	10	2	1	7
2392104	STOP	n/a	LTP313	ltpFR2	2	n/a	n/a	n/a	14	n/a	n/a	n/a	n/a
2395422	REC_START	n/a	LTP313	ltpFR2	2	9	n/a	n/a	n/a	n/a	0	0	0
2396842	REC_WORD	wordpools/wasnorm_wordpool_576.txt	LTP313	ltpFR2	2	9	DONKEY	484	n/a	n/a	0	0	0
2398234	REC_WORD	wordpools/wasnorm_wordpool_576.txt	LTP313	ltpFR2	2	9	LEOPARD	812	n/a	n/a	0	0	0
2401282	REC_WORD	wordpools/wasnorm_wordpool_576.txt	LTP313	ltpFR2	2	9	WIFE	1609	n/a	n/a	0	0	0
2404420	REC_WORD	wordpools/wasnorm_wordpool_576.txt	LTP313	ltpFR2	2	9	RAZOR	1171	n/a	n/a	0	0	0
2405967	REC_WORD	wordpools/wasnorm_wordpool_576.txt	LTP313	ltpFR2	2	9	BLADE	134	n/a	n/a	0	0	0
2407374	REC_WORD	wordpools/wasnorm_wordpool_576.txt	LTP313	ltpFR2	2	9	COFFEE	341	n/a	n/a	0	0	0
2409037	REC_WORD	wordpools/wasnorm_wordpool_576.txt	LTP313	ltpFR2	2	9	TABLE	1426	n/a	n/a	0	0	0
2410500	REC_WORD	wordpools/wasnorm_wordpool_576.txt	LTP313	ltpFR2	2	9	SILK	1307	n/a	n/a	0	0	0
2412374	REC_WORD	wordpools/wasnorm_wordpool_576.txt	LTP313	ltpFR2	2	9	BADGE	68	n/a	n/a	0	0	0
2414368	REC_WORD	wordpools/wasnorm_wordpool_576.txt	LTP313	ltpFR2	2	9	AIRPORT	13	n/a	n/a	0	0	0
2415795	REC_WORD	wordpools/wasnorm_wordpool_576.txt	LTP313	ltpFR2	2	9	DRINK	498	n/a	n/a	0	0	0
2418180	REC_WORD	wordpools/wasnorm_wordpool_576.txt	LTP313	ltpFR2	2	9	DAUGHTER	442	n/a	n/a	0	0	0
2419220	REC_WORD	wordpools/wasnorm_wordpool_576.txt	LTP313	ltpFR2	2	9	QUEEN	1149	n/a	n/a	0	0	0
2420854	REC_WORD	wordpools/wasnorm_wordpool_576.txt	LTP313	ltpFR2	2	9	TORTOISE	1486	n/a	n/a	0	0	0
2422456	REC_WORD	wordpools/wasnorm_wordpool_576.txt	LTP313	ltpFR2	2	9	SCISSORS	1250	n/a	n/a	0	0	0
2423688	REC_WORD	wordpools/wasnorm_wordpool_576.txt	LTP313	ltpFR2	2	9	KNIFE	785	n/a	n/a	0	0	0
2427551	REC_WORD	wordpools/wasnorm_wordpool_576.txt	LTP313	ltpFR2	2	9	HUSBAND	728	n/a	n/a	0	0	0
2428607	REC_WORD	wordpools/wasnorm_wordpool_576.txt	LTP313	ltpFR2	2	9	COUCH	386	n/a	n/a	0	0	0
2429853	REC_WORD	wordpools/wasnorm_wordpool_576.txt	LTP313	ltpFR2	2	9	BANQUET	86	n/a	n/a	0	0	0
2433744	REC_WORD	wordpools/wasnorm_wordpool_576.txt	LTP313	ltpFR2	2	9	PAIL	1002	n/a	n/a	0	0	0
2436970	REC_WORD	wordpools/wasnorm_wordpool_576.txt	LTP313	ltpFR2	2	9	DONKEY	484	n/a	n/a	0	0	0
2460356	REC_WORD	wordpools/wasnorm_wordpool_576.txt	LTP313	ltpFR2	2	9	QUEEN	1149	n/a	n/a	0	0	0
2485845	DISTRACTOR	n/a	LTP313	ltpFR2	2	10	n/a	n/a	n/a	n/a	0	0	0
2485845	START	n/a	LTP313	ltpFR2	2	n/a	n/a	n/a	15	n/a	n/a	n/a	n/a
2485859	PROB	n/a	LTP313	ltpFR2	2	n/a	n/a	n/a	15	17	3	5	9
2487443	PROB	n/a	LTP313	ltpFR2	2	n/a	n/a	n/a	15	18	7	9	2
2489045	PROB	n/a	LTP313	ltpFR2	2	n/a	n/a	n/a	15	18	4	7	7
2490062	PROB	n/a	LTP313	ltpFR2	2	n/a	n/a	n/a	15	17	5	3	9
2491180	PROB	n/a	LTP313	ltpFR2	2	n/a	n/a	n/a	15	19	8	5	6
2493615	PROB	n/a	LTP313	ltpFR2	2	n/a	n/a	n/a	15	18	7	2	9
2494733	PROB	n/a	LTP313	ltpFR2	2	n/a	n/a	n/a	15	15	4	7	2
2495836	PROB	n/a	LTP313	ltpFR2	2	n/a	n/a	n/a	15	14	4	5	5
2497067	PROB	n/a	LTP313	ltpFR2	2	n/a	n/a	n/a	15	21	7	6	9
2498385	PROB	n/a	LTP313	ltpFR2	2	n/a	n/a	n/a	15	20	8	4	8
2500620	PROB	n/a	LTP313	ltpFR2	2	n/a	n/a	n/a	15	20	8	9	3
2501856	PROB	n/a	LTP313	ltpFR2	2	n/a	n/a	n/a	15	18	3	6	9
2503472	PROB	n/a	LTP313	ltpFR2	2	n/a	n/a	n/a	15	14	1	9	4
2504475	PROB	n/a	LTP313	ltpFR2	2	n/a	n/a	n/a	15	13	1	8	4
2506259	PROB	n/a	LTP313	ltpFR2	2	n/a	n/a	n/a	15	17	3	7	7
2507360	PROB	n/a	LTP313	ltpFR2	2	n/a	n/a	n/a	15	22	9	7	6
2508573	STOP	n/a	LTP313	ltpFR2	2	n/a	n/a	n/a	15	n/a	n/a	n/a	n/a
2510948	WORD	wordpools/wasnorm_wordpool_576.txt	LTP313	ltpFR2	2	10	SWIMMER	1420	n/a	n/a	0	0	0
2513459	WORD	wordpools/wasnorm_wordpool_576.txt	LTP313	ltpFR2	2	10	SNAIL	1332	n/a	n/a	0	0	0
2516146	WORD	wordpools/wasnorm_wordpool_576.txt	LTP313	ltpFR2	2	10	XEROX	1628	n/a	n/a	0	0	0
2518832	WORD	wordpools/wasnorm_wordpool_576.txt	LTP313	ltpFR2	2	10	SIBLING	1301	n/a	n/a	0	0	0
2521433	WORD	wordpools/wasnorm_wordpool_576.txt	LTP313	ltpFR2	2	10	BROTHER	179	n/a	n/a	0	0	0
2524085	WORD	wordpools/wasnorm_wordpool_576.txt	LTP313	ltpFR2	2	10	WRENCH	1625	n/a	n/a	0	0	0
2526693	WORD	wordpools/wasnorm_wordpool_576.txt	LTP313	ltpFR2	2	10	ROBIN	1199	n/a	n/a	0	0	0
2529395	WORD	wordpools/wasnorm_wordpool_576.txt	LTP313	ltpFR2	2	10	WIDOW	1608	n/a	n/a	0	0	0
2531844	WORD	wordpools/wasnorm_wordpool_576.txt	LTP313	ltpFR2	2	10	SLIME	1327	n/a	n/a	0	0	0
2534478	WORD	wordpools/wasnorm_wordpool_576.txt	LTP313	ltpFR2	2	10	FLASHLIGHT	575	n/a	n/a	0	0	0
2537196	WORD	wordpools/wasnorm_wordpool_576.txt	LTP313	ltpFR2	2	10	SWITCH	1422	n/a	n/a	0	0	0
2539933	WORD	wordpools/wasnorm_wordpool_576.txt	LTP313	ltpFR2	2	10	NIGHTGOWN	953	n/a	n/a	0	0	0
2542468	WORD	wordpools/wasnorm_wordpool_576.txt	LTP313	ltpFR2	2	10	ONION	977	n/a	n/a	0	0	0
2545271	WORD	wordpools/wasnorm_wordpool_576.txt	LTP313	ltpFR2	2	10	GRAVE	658	n/a	n/a	0	0	0
2548073	WORD	wordpools/wasnorm_wordpool_576.txt	LTP313	ltpFR2	2	10	PARROT	1015	n/a	n/a	0	0	0
2550676	WORD	wordpools/wasnorm_wordpool_576.txt	LTP313	ltpFR2	2	10	TURTLE	1522	n/a	n/a	0	0	0
2553461	WORD	wordpools/wasnorm_wordpool_576.txt	LTP313	ltpFR2	2	10	SCOTCH	1251	n/a	n/a	0	0	0
2556264	WORD	wordpools/wasnorm_wordpool_576.txt	LTP313	ltpFR2	2	10	SCARECROW	1245	n/a	n/a	0	0	0
2558953	WORD	wordpools/wasnorm_wordpool_576.txt	LTP313	ltpFR2	2	10	FIREPLACE	570	n/a	n/a	0	0	0
2561384	WORD	wordpools/wasnorm_wordpool_576.txt	LTP313	ltpFR2	2	10	WASHER	1592	n/a	n/a	0	0	0
2564023	WORD	wordpools/wasnorm_wordpool_576.txt	LTP313	ltpFR2	2	10	YACHT	1629	n/a	n/a	0	0	0
2566706	WORD	wordpools/wasnorm_wordpool_576.txt	LTP313	ltpFR2	2	10	ROCKET	1202	n/a	n/a	0	0	0
2569392	WORD	wordpools/wasnorm_wordpool_576.txt	LTP313	ltpFR2	2	10	QUARTER	1148	n/a	n/a	0	0	0
2572094	WORD	wordpools/wasnorm_wordpool_576.txt	LTP313	ltpFR2	2	10	OX	994	n/a	n/a	0	0	0
2573713	START	n/a	LTP313	ltpFR2	2	n/a	n/a	n/a	16	n/a	n/a	n/a	n/a
2574563	DISTRACTOR	n/a	LTP313	ltpFR2	2	10	n/a	n/a	n/a	n/a	0	0	0
2574580	PROB	n/a	LTP313	ltpFR2	2	n/a	n/a	n/a	16	8	5	1	2
2577033	PROB	n/a	LTP313	ltpFR2	2	n/a	n/a	n/a	16	18	5	4	9
2578301	PROB	n/a	LTP313	ltpFR2	2	n/a	n/a	n/a	16	15	7	5	3
2579367	PROB	n/a	LTP313	ltpFR2	2	n/a	n/a	n/a	16	18	6	7	5
2581218	PROB	n/a	LTP313	ltpFR2	2	n/a	n/a	n/a	16	18	5	8	5
2583021	PROB	n/a	LTP313	ltpFR2	2	n/a	n/a	n/a	16	13	2	3	8
2584272	PROB	n/a	LTP313	ltpFR2	2	n/a	n/a	n/a	16	17	7	8	2
2585705	PROB	n/a	LTP313	ltpFR2	2	n/a	n/a	n/a	16	16	6	7	1
2587224	PROB	n/a	LTP313	ltpFR2	2	n/a	n/a	n/a	16	15	3	7	5
2588758	PROB	n/a	LTP313	ltpFR2	2	n/a	n/a	n/a	16	15	7	1	7
2589877	PROB	n/a	LTP313	ltpFR2	2	n/a	n/a	n/a	16	18	5	8	5
2591209	PROB	n/a	LTP313	ltpFR2	2	n/a	n/a	n/a	16	1	5	5	2
2592177	PROB	n/a	LTP313	ltpFR2	2	n/a	n/a	n/a	16	18	6	7	5
2594313	PROB	n/a	LTP313	ltpFR2	2	n/a	n/a	n/a	16	14	5	4	5
2595881	PROB	n/a	LTP313	ltpFR2	2	n/a	n/a	n/a	16	6	3	2	1
2597104	STOP	n/a	LTP313	ltpFR2	2	n/a	n/a	n/a	16	n/a	n/a	n/a	n/a
2599667	REC_START	n/a	LTP313	ltpFR2	2	10	n/a	n/a	n/a	n/a	0	0	0
2600654	REC_WORD	wordpools/wasnorm_wordpool_576.txt	LTP313	ltpFR2	2	10	OX	994	n/a	n/a	0	0	0
2601925	REC_WORD	wordpools/wasnorm_wordpool_576.txt	LTP313	ltpFR2	2	10	YACHT	1629	n/a	n/a	0	0	0
2606625	REC_WORD	wordpools/wasnorm_wordpool_576.txt	LTP313	ltpFR2	2	10	SWIMMER	1420	n/a	n/a	0	0	0
2607822	REC_WORD	wordpools/wasnorm_wordpool_576.txt	LTP313	ltpFR2	2	10	SWIMMER	1420	n/a	n/a	0	0	0
2609198	REC_WORD	wordpools/wasnorm_wordpool_576.txt	LTP313	ltpFR2	2	10	XEROX	1628	n/a	n/a	0	0	0
2610433	REC_WORD	wordpools/wasnorm_wordpool_576.txt	LTP313	ltpFR2	2	10	SIBLING	1301	n/a	n/a	0	0	0
2611542	REC_WORD	wordpools/wasnorm_wordpool_576.txt	LTP313	ltpFR2	2	10	BROTHER	179	n/a	n/a	0	0	0
2616682	REC_WORD	wordpools/wasnorm_wordpool_576.txt	LTP313	ltpFR2	2	10	ROBIN	1199	n/a	n/a	0	0	0
2619432	REC_WORD	wordpools/wasnorm_wordpool_576.txt	LTP313	ltpFR2	2	10	NIGHTGOWN	953	n/a	n/a	0	0	0
2622749	REC_WORD	wordpools/wasnorm_wordpool_576.txt	LTP313	ltpFR2	2	10	SLIME	1327	n/a	n/a	0	0	0
2631112	REC_WORD	wordpools/wasnorm_wordpool_576.txt	LTP313	ltpFR2	2	10	FLASHLIGHT	575	n/a	n/a	0	0	0
2632112	REC_WORD_VV	wordpools/wasnorm_wordpool_576.txt	LTP313	ltpFR2	2	10	<>	-1	n/a	n/a	0	0	0
2633386	REC_WORD	wordpools/wasnorm_wordpool_576.txt	LTP313	ltpFR2	2	10	SWITCH	1422	n/a	n/a	0	0	0
2647988	REC_WORD	wordpools/wasnorm_wordpool_576.txt	LTP313	ltpFR2	2	10	FIREPLACE	570	n/a	n/a	0	0	0
2648988	REC_WORD_VV	wordpools/wasnorm_wordpool_576.txt	LTP313	ltpFR2	2	10	<>	-1	n/a	n/a	0	0	0
2651463	REC_WORD	wordpools/wasnorm_wordpool_576.txt	LTP313	ltpFR2	2	10	PARROT	1015	n/a	n/a	0	0	0
2690106	WORD	wordpools/wasnorm_wordpool_576.txt	LTP313	ltpFR2	2	11	GLOBE	641	n/a	n/a	0	0	0
2692794	WORD	wordpools/wasnorm_wordpool_576.txt	LTP313	ltpFR2	2	11	PRIMATE	1123	n/a	n/a	0	0	0
2695445	WORD	wordpools/wasnorm_wordpool_576.txt	LTP313	ltpFR2	2	11	JUNGLE	764	n/a	n/a	0	0	0
2697864	WORD	wordpools/wasnorm_wordpool_576.txt	LTP313	ltpFR2	2	11	MONSTER	912	n/a	n/a	0	0	0
2700582	WORD	wordpools/wasnorm_wordpool_576.txt	LTP313	ltpFR2	2	11	CHEST	295	n/a	n/a	0	0	0
2703292	WORD	wordpools/wasnorm_wordpool_576.txt	LTP313	ltpFR2	2	11	NOVEL	960	n/a	n/a	0	0	0
2705744	WORD	wordpools/wasnorm_wordpool_576.txt	LTP313	ltpFR2	2	11	DANDRUFF	439	n/a	n/a	0	0	0
2708539	WORD	wordpools/wasnorm_wordpool_576.txt	LTP313	ltpFR2	2	11	LEADER	807	n/a	n/a	0	0	0
2711291	WORD	wordpools/wasnorm_wordpool_576.txt	LTP313	ltpFR2	2	11	SCALLOP	1242	n/a	n/a	0	0	0
2713910	WORD	wordpools/wasnorm_wordpool_576.txt	LTP313	ltpFR2	2	11	PERMIT	1051	n/a	n/a	0	0	0
2716554	WORD	wordpools/wasnorm_wordpool_576.txt	LTP313	ltpFR2	2	11	PRINCE	1124	n/a	n/a	0	0	0
2719181	WORD	wordpools/wasnorm_wordpool_576.txt	LTP313	ltpFR2	2	11	HOUND	724	n/a	n/a	0	0	0
2721783	WORD	wordpools/wasnorm_wordpool_576.txt	LTP313	ltpFR2	2	11	CATCHER	258	n/a	n/a	0	0	0
2724568	WORD	wordpools/wasnorm_wordpool_576.txt	LTP313	ltpFR2	2	11	WORLD	1622	n/a	n/a	0	0	0
2727129	WORD	wordpools/wasnorm_wordpool_576.txt	LTP313	ltpFR2	2	11	PEBBLE	1035	n/a	n/a	0	0	0
2729799	WORD	wordpools/wasnorm_wordpool_576.txt	LTP313	ltpFR2	2	11	SKILLET	1317	n/a	n/a	0	0	0
2732301	WORD	wordpools/wasnorm_wordpool_576.txt	LTP313	ltpFR2	2	11	GOBLIN	645	n/a	n/a	0	0	0
2734760	WORD	wordpools/wasnorm_wordpool_576.txt	LTP313	ltpFR2	2	11	CAPTIVE	240	n/a	n/a	0	0	0
2737389	WORD	wordpools/wasnorm_wordpool_576.txt	LTP313	ltpFR2	2	11	WAGON	1578	n/a	n/a	0	0	0
2739942	WORD	wordpools/wasnorm_wordpool_576.txt	LTP313	ltpFR2	2	11	SCARF	1246	n/a	n/a	0	0	0
2742516	WORD	wordpools/wasnorm_wordpool_576.txt	LTP313	ltpFR2	2	11	SHELF	1280	n/a	n/a	0	0	0
2745312	WORD	wordpools/wasnorm_wordpool_576.txt	LTP313	ltpFR2	2	11	TURKEY	1520	n/a	n/a	0	0	0
2747798	WORD	wordpools/wasnorm_wordpool_576.txt	LTP313	ltpFR2	2	11	COMPASS	358	n/a	n/a	0	0	0
2750371	WORD	wordpools/wasnorm_wordpool_576.txt	LTP313	ltpFR2	2	11	JELLY	755	n/a	n/a	0	0	0
2751986	START	n/a	LTP313	ltpFR2	2	n/a	n/a	n/a	17	n/a	n/a	n/a	n/a
2752959	DISTRACTOR	n/a	LTP313	ltpFR2	2	11	n/a	n/a	n/a	n/a	0	0	0
2752969	PROB	n/a	LTP313	ltpFR2	2	n/a	n/a	n/a	17	15	2	9	4
2755676	PROB	n/a	LTP313	ltpFR2	2	n/a	n/a	n/a	17	13	3	2	8
2757076	PROB	n/a	LTP313	ltpFR2	2	n/a	n/a	n/a	17	16	3	9	4
2759848	PROB	n/a	LTP313	ltpFR2	2	n/a	n/a	n/a	17	12	4	3	5
2761264	PROB	n/a	LTP313	ltpFR2	2	n/a	n/a	n/a	17	20	5	7	8
2762330	PROB	n/a	LTP313	ltpFR2	2	n/a	n/a	n/a	17	19	8	5	6
2764081	PROB	n/a	LTP313	ltpFR2	2	n/a	n/a	n/a	17	26	9	8	9
2768470	PROB	n/a	LTP313	ltpFR2	2	n/a	n/a	n/a	17	16	6	6	4
2769703	PROB	n/a	LTP313	ltpFR2	2	n/a	n/a	n/a	17	23	6	9	8
2770989	PROB	n/a	LTP313	ltpFR2	2	n/a	n/a	n/a	17	16	6	7	3
2772323	PROB	n/a	LTP313	ltpFR2	2	n/a	n/a	n/a	17	24	7	8	9
2775986	STOP	n/a	LTP313	ltpFR2	2	n/a	n/a	n/a	17	n/a	n/a	n/a	n/a
2777846	REC_START	n/a	LTP313	ltpFR2	2	11	n/a	n/a	n/a	n/a	0	0	0
2790297	REC_WORD	wordpools/wasnorm_wordpool_576.txt	LTP313	ltpFR2	2	11	GLOBE	641	n/a	n/a	0	0	0
2793573	REC_WORD	wordpools/wasnorm_wordpool_576.txt	LTP313	ltpFR2	2	11	JUNGLE	764	n/a	n/a	0	0	0
2796992	REC_WORD	wordpools/wasnorm_wordpool_576.txt	LTP313	ltpFR2	2	11	MONSTER	912	n/a	n/a	0	0	0
2799352	REC_WORD	wordpools/wasnorm_wordpool_576.txt	LTP313	ltpFR2	2	11	CHESS	294	n/a	n/a	0	0	0
2801584	REC_WORD	wordpools/wasnorm_wordpool_576.txt	LTP313	ltpFR2	2	11	NOVEL	960	n/a	n/a	0	0	0
2806218	REC_WORD	wordpools/wasnorm_wordpool_576.txt	LTP313	ltpFR2	2	11	CATCHER	258	n/a	n/a	0	0	0
2807216	REC_WORD	wordpools/wasnorm_wordpool_576.txt	LTP313	ltpFR2	2	11	PRINCE	1124	n/a	n/a	0	0	0
2809900	REC_WORD	wordpools/wasnorm_wordpool_576.txt	LTP313	ltpFR2	2	11	WORLD	1622	n/a	n/a	0	0	0
2819132	REC_WORD	wordpools/wasnorm_wordpool_576.txt	LTP313	ltpFR2	2	11	PEBBLE	1035	n/a	n/a	0	0	0
2891133	WORD	wordpools/wasnorm_wordpool_576.txt	LTP313	ltpFR2	2	12	FLASK	576	n/a	n/a	0	0	0
2893893	WORD	wordpools/wasnorm_wordpool_576.txt	LTP313	ltpFR2	2	12	ANTLER	29	n/a	n/a	0	0	0
2896527	WORD	wordpools/wasnorm_wordpool_576.txt	LTP313	ltpFR2	2	12	SPOON	1357	n/a	n/a	0	0	0
2899179	WORD	wordpools/wasnorm_wordpool_576.txt	LTP313	ltpFR2	2	12	ZIPPER	1636	n/a	n/a	0	0	0
2901614	WORD	wordpools/wasnorm_wordpool_576.txt	LTP313	ltpFR2	2	12	CLAMP	316	n/a	n/a	0	0	0
2904296	WORD	wordpools/wasnorm_wordpool_576.txt	LTP313	ltpFR2	2	12	DIME	466	n/a	n/a	0	0	0
2907053	WORD	wordpools/wasnorm_wordpool_576.txt	LTP313	ltpFR2	2	12	TOURIST	1488	n/a	n/a	0	0	0
2909683	WORD	wordpools/wasnorm_wordpool_576.txt	LTP313	ltpFR2	2	12	NEUTRON	947	n/a	n/a	0	0	0
2912219	WORD	wordpools/wasnorm_wordpool_576.txt	LTP313	ltpFR2	2	12	ATOM	55	n/a	n/a	0	0	0
2914905	WORD	wordpools/wasnorm_wordpool_576.txt	LTP313	ltpFR2	2	12	BUG	187	n/a	n/a	0	0	0
2917589	WORD	wordpools/wasnorm_wordpool_576.txt	LTP313	ltpFR2	2	12	CLOUD	328	n/a	n/a	0	0	0
2920258	WORD	wordpools/wasnorm_wordpool_576.txt	LTP313	ltpFR2	2	12	TROUT	1511	n/a	n/a	0	0	0
2922732	WORD	wordpools/wasnorm_wordpool_576.txt	LTP313	ltpFR2	2	12	BEAKER	104	n/a	n/a	0	0	0
2925379	WORD	wordpools/wasnorm_wordpool_576.txt	LTP313	ltpFR2	2	12	COTTAGE	384	n/a	n/a	0	0	0
2927866	WORD	wordpools/wasnorm_wordpool_576.txt	LTP313	ltpFR2	2	12	SCALPEL	1243	n/a	n/a	0	0	0
2930400	WORD	wordpools/wasnorm_wordpool_576.txt	LTP313	ltpFR2	2	12	DUST	508	n/a	n/a	0	0	0
2933001	WORD	wordpools/wasnorm_wordpool_576.txt	LTP313	ltpFR2	2	12	GRAVEL	659	n/a	n/a	0	0	0
2935744	WORD	wordpools/wasnorm_wordpool_576.txt	LTP313	ltpFR2	2	12	LADY	794	n/a	n/a	0	0	0
2938446	WORD	wordpools/wasnorm_wordpool_576.txt	LTP313	ltpFR2	2	12	GIRL	637	n/a	n/a	0	0	0
2941092	WORD	wordpools/wasnorm_wordpool_576.txt	LTP313	ltpFR2	2	12	RABBIT	1152	n/a	n/a	0	0	0
2943862	WORD	wordpools/wasnorm_wordpool_576.txt	LTP313	ltpFR2	2	12	PICNIC	1060	n/a	n/a	0	0	0
2946330	WORD	wordpools/wasnorm_wordpool_576.txt	LTP313	ltpFR2	2	12	SHOULDER	1294	n/a	n/a	0	0	0
2949065	WORD	wordpools/wasnorm_wordpool_576.txt	LTP313	ltpFR2	2	12	JELLO	754	n/a	n/a	0	0	0
2951683	WORD	wordpools/wasnorm_wordpool_576.txt	LTP313	ltpFR2	2	12	SUNSET	1408	n/a	n/a	0	0	0
2953294	START	n/a	LTP313	ltpFR2	2	n/a	n/a	n/a	18	n/a	n/a	n/a	n/a
2954272	DISTRACTOR	n/a	LTP313	ltpFR2	2	12	n/a	n/a	n/a	n/a	0	0	0
2954277	PROB	n/a	LTP313	ltpFR2	2	n/a	n/a	n/a	18	21	9	9	3
2956569	PROB	n/a	LTP313	ltpFR2	2	n/a	n/a	n/a	18	12	5	6	1
2957504	PROB	n/a	LTP313	ltpFR2	2	n/a	n/a	n/a	18	13	3	3	5
2958939	PROB	n/a	LTP313	ltpFR2	2	n/a	n/a	n/a	18	23	7	8	8
2961773	PROB	n/a	LTP313	ltpFR2	2	n/a	n/a	n/a	18	11	9	1	1
2962693	PROB	n/a	LTP313	ltpFR2	2	n/a	n/a	n/a	18	18	9	6	3
2965727	PROB	n/a	LTP313	ltpFR2	2	n/a	n/a	n/a	18	8	1	2	5
2967965	PROB	n/a	LTP313	ltpFR2	2	n/a	n/a	n/a	18	13	4	7	2
2969330	PROB	n/a	LTP313	ltpFR2	2	n/a	n/a	n/a	18	20	6	7	7
2970932	PROB	n/a	LTP313	ltpFR2	2	n/a	n/a	n/a	18	16	5	2	9
2974519	PROB	n/a	LTP313	ltpFR2	2	n/a	n/a	n/a	18	18	8	5	5
2976055	STOP	n/a	LTP313	ltpFR2	2	n/a	n/a	n/a	18	n/a	n/a	n/a	n/a
2979154	REC_START	n/a	LTP313	ltpFR2	2	12	n/a	n/a	n/a	n/a	0	0	0
2980281	REC_WORD	wordpools/wasnorm_wordpool_576.txt	LTP313	ltpFR2	2	12	PICNIC	1060	n/a	n/a	0	0	0
2981545	REC_WORD	wordpools/wasnorm_wordpool_576.txt	LTP313	ltpFR2	2	12	SHOULDER	1294	n/a	n/a	0	0	0
2982946	REC_WORD	wordpools/wasnorm_wordpool_576.txt	LTP313	ltpFR2	2	12	GRAVEL	659	n/a	n/a	0	0	0
2985825	REC_WORD	wordpools/wasnorm_wordpool_576.txt	LTP313	ltpFR2	2	12	CLOUD	328	n/a	n/a	0	0	0
2988044	REC_WORD	wordpools/wasnorm_wordpool_576.txt	LTP313	ltpFR2	2	12	TROT	-1	n/a	n/a	0	0	0
2989525	REC_WORD	wordpools/wasnorm_wordpool_576.txt	LTP313	ltpFR2	2	12	TROUT	1511	n/a	n/a	0	0	0
2995564	REC_WORD	wordpools/wasnorm_wordpool_576.txt	LTP313	ltpFR2	2	12	FOG	-1	n/a	n/a	0	0	0
3000029	REC_WORD	wordpools/wasnorm_wordpool_576.txt	LTP313	ltpFR2	2	12	FLASK	576	n/a	n/a	0	0	0
3001220	REC_WORD	wordpools/wasnorm_wordpool_576.txt	LTP313	ltpFR2	2	12	ZIPPER	1636	n/a	n/a	0	0	0
3002390	REC_WORD	wordpools/wasnorm_wordpool_576.txt	LTP313	ltpFR2	2	12	ANTLER	29	n/a	n/a	0	0	0
3003596	REC_WORD	wordpools/wasnorm_wordpool_576.txt	LTP313	ltpFR2	2	12	SPOON	1357	n/a	n/a	0	0	0
3004522	REC_WORD	wordpools/wasnorm_wordpool_576.txt	LTP313	ltpFR2	2	12	CLAMP	316	n/a	n/a	0	0	0
3006681	REC_WORD	wordpools/wasnorm_wordpool_576.txt	LTP313	ltpFR2	2	12	BEAKER	104	n/a	n/a	0	0	0
3008370	REC_WORD	wordpools/wasnorm_wordpool_576.txt	LTP313	ltpFR2	2	12	TOURIST	1488	n/a	n/a	0	0	0
3009174	REC_WORD	wordpools/wasnorm_wordpool_576.txt	LTP313	ltpFR2	2	12	BUG	187	n/a	n/a	0	0	0
3010473	REC_WORD	wordpools/wasnorm_wordpool_576.txt	LTP313	ltpFR2	2	12	NEUTRON	947	n/a	n/a	0	0	0
3011473	REC_WORD_VV	wordpools/wasnorm_wordpool_576.txt	LTP313	ltpFR2	2	12	<>	-1	n/a	n/a	0	0	0
3011778	REC_WORD	wordpools/wasnorm_wordpool_576.txt	LTP313	ltpFR2	2	12	ATOM	55	n/a	n/a	0	0	0
3069628	DISTRACTOR	n/a	LTP313	ltpFR2	2	13	n/a	n/a	n/a	n/a	0	0	0
3069629	START	n/a	LTP313	ltpFR2	2	n/a	n/a	n/a	19	n/a	n/a	n/a	n/a
3069643	PROB	n/a	LTP313	ltpFR2	2	n/a	n/a	n/a	19	16	2	6	8
3071778	PROB	n/a	LTP313	ltpFR2	2	n/a	n/a	n/a	19	23	8	8	7
3073747	PROB	n/a	LTP313	ltpFR2	2	n/a	n/a	n/a	19	14	9	4	1
3075049	PROB	n/a	LTP313	ltpFR2	2	n/a	n/a	n/a	19	8	3	3	2
3076082	PROB	n/a	LTP313	ltpFR2	2	n/a	n/a	n/a	19	15	9	3	3
3077517	PROB	n/a	LTP313	ltpFR2	2	n/a	n/a	n/a	19	11	1	9	1
3078434	PROB	n/a	LTP313	ltpFR2	2	n/a	n/a	n/a	19	11	4	1	6
3079318	PROB	n/a	LTP313	ltpFR2	2	n/a	n/a	n/a	19	14	2	9	3
3081621	PROB	n/a	LTP313	ltpFR2	2	n/a	n/a	n/a	19	12	9	2	1
3083090	PROB	n/a	LTP313	ltpFR2	2	n/a	n/a	n/a	19	20	6	6	8
3084239	PROB	n/a	LTP313	ltpFR2	2	n/a	n/a	n/a	19	24	9	7	8
3086074	PROB	n/a	LTP313	ltpFR2	2	n/a	n/a	n/a	19	11	2	6	3
3087224	PROB	n/a	LTP313	ltpFR2	2	n/a	n/a	n/a	19	19	7	8	4
3088543	PROB	n/a	LTP313	ltpFR2	2	n/a	n/a	n/a	19	14	8	1	5
3091161	PROB	n/a	LTP313	ltpFR2	2	n/a	n/a	n/a	19	16	4	6	6
3092172	STOP	n/a	LTP313	ltpFR2	2	n/a	n/a	n/a	19	n/a	n/a	n/a	n/a
3094498	WORD	wordpools/wasnorm_wordpool_576.txt	LTP313	ltpFR2	2	13	DORM	488	n/a	n/a	0	0	0
3097133	WORD	wordpools/wasnorm_wordpool_576.txt	LTP313	ltpFR2	2	13	FOOTBALL	591	n/a	n/a	0	0	0
3099621	WORD	wordpools/wasnorm_wordpool_576.txt	LTP313	ltpFR2	2	13	FLOWER	584	n/a	n/a	0	0	0
3102054	WORD	wordpools/wasnorm_wordpool_576.txt	LTP313	ltpFR2	2	13	YOLK	1633	n/a	n/a	0	0	0
3104723	WORD	wordpools/wasnorm_wordpool_576.txt	LTP313	ltpFR2	2	13	WHISTLE	1606	n/a	n/a	0	0	0
3107542	WORD	wordpools/wasnorm_wordpool_576.txt	LTP313	ltpFR2	2	13	GUITAR	670	n/a	n/a	0	0	0
3110011	WORD	wordpools/wasnorm_wordpool_576.txt	LTP313	ltpFR2	2	13	BULLET	194	n/a	n/a	0	0	0
3112445	WORD	wordpools/wasnorm_wordpool_576.txt	LTP313	ltpFR2	2	13	BUGGY	188	n/a	n/a	0	0	0
3114865	WORD	wordpools/wasnorm_wordpool_576.txt	LTP313	ltpFR2	2	13	WARDROBE	1587	n/a	n/a	0	0	0
3117500	WORD	wordpools/wasnorm_wordpool_576.txt	LTP313	ltpFR2	2	13	CAFE	216	n/a	n/a	0	0	0
3120101	WORD	wordpools/wasnorm_wordpool_576.txt	LTP313	ltpFR2	2	13	SANDWICH	1232	n/a	n/a	0	0	0
3122842	WORD	wordpools/wasnorm_wordpool_576.txt	LTP313	ltpFR2	2	13	BUTCHER	203	n/a	n/a	0	0	0
3125590	WORD	wordpools/wasnorm_wordpool_576.txt	LTP313	ltpFR2	2	13	FRAGRANCE	599	n/a	n/a	0	0	0
3128192	WORD	wordpools/wasnorm_wordpool_576.txt	LTP313	ltpFR2	2	13	STAR	1373	n/a	n/a	0	0	0
3130945	WORD	wordpools/wasnorm_wordpool_576.txt	LTP313	ltpFR2	2	13	COMET	353	n/a	n/a	0	0	0
3133696	WORD	wordpools/wasnorm_wordpool_576.txt	LTP313	ltpFR2	2	13	SPACE	1345	n/a	n/a	0	0	0
3136265	WORD	wordpools/wasnorm_wordpool_576.txt	LTP313	ltpFR2	2	13	PROTON	1132	n/a	n/a	0	0	0
3138851	WORD	wordpools/wasnorm_wordpool_576.txt	LTP313	ltpFR2	2	13	CHEMIST	292	n/a	n/a	0	0	0
3141268	WORD	wordpools/wasnorm_wordpool_576.txt	LTP313	ltpFR2	2	13	CLOTHES	327	n/a	n/a	0	0	0
3144043	WORD	wordpools/wasnorm_wordpool_576.txt	LTP313	ltpFR2	2	13	BANJO	82	n/a	n/a	0	0	0
3146863	WORD	wordpools/wasnorm_wordpool_576.txt	LTP313	ltpFR2	2	13	LUGGAGE	847	n/a	n/a	0	0	0
3149592	WORD	wordpools/wasnorm_wordpool_576.txt	LTP313	ltpFR2	2	13	COURSE	390	n/a	n/a	0	0	0
3152167	WORD	wordpools/wasnorm_wordpool_576.txt	LTP313	ltpFR2	2	13	EAGLE	512	n/a	n/a	0	0	0
3154898	WORD	wordpools/wasnorm_wordpool_576.txt	LTP313	ltpFR2	2	13	ROOSTER	1209	n/a	n/a	0	0	0
3156504	START	n/a	LTP313	ltpFR2	2	n/a	n/a	n/a	20	n/a	n/a	n/a	n/a
3157361	DISTRACTOR	n/a	LTP313	ltpFR2	2	13	n/a	n/a	n/a	n/a	0	0	0
3157366	PROB	n/a	LTP313	ltpFR2	2	n/a	n/a	n/a	20	15	8	2	5
3158982	PROB	n/a	LTP313	ltpFR2	2	n/a	n/a	n/a	20	7	2	3	2
3160067	PROB	n/a	LTP313	ltpFR2	2	n/a	n/a	n/a	20	16	3	8	5
3161685	PROB	n/a	LTP313	ltpFR2	2	n/a	n/a	n/a	20	13	7	2	4
3163453	PROB	n/a	LTP313	ltpFR2	2	n/a	n/a	n/a	20	12	2	5	2
3164371	PROB	n/a	LTP313	ltpFR2	2	n/a	n/a	n/a	20	13	4	6	3
3165320	PROB	n/a	LTP313	ltpFR2	2	n/a	n/a	n/a	20	16	8	3	5
3166539	PROB	n/a	LTP313	ltpFR2	2	n/a	n/a	n/a	20	9	2	2	5
3167622	PROB	n/a	LTP313	ltpFR2	2	n/a	n/a	n/a	20	13	7	2	4
3169442	PROB	n/a	LTP313	ltpFR2	2	n/a	n/a	n/a	20	20	7	6	7
3170741	PROB	n/a	LTP313	ltpFR2	2	n/a	n/a	n/a	20	16	5	9	2
3171860	PROB	n/a	LTP313	ltpFR2	2	n/a	n/a	n/a	20	24	8	8	8
3172994	PROB	n/a	LTP313	ltpFR2	2	n/a	n/a	n/a	20	11	1	8	2
3174444	PROB	n/a	LTP313	ltpFR2	2	n/a	n/a	n/a	20	22	9	8	5
3175762	PROB	n/a	LTP313	ltpFR2	2	n/a	n/a	n/a	20	19	8	5	4
3177214	PROB	n/a	LTP313	ltpFR2	2	n/a	n/a	n/a	20	11	5	3	3
3180504	STOP	n/a	LTP313	ltpFR2	2	n/a	n/a	n/a	20	n/a	n/a	n/a	n/a
3182353	REC_START	n/a	LTP313	ltpFR2	2	13	n/a	n/a	n/a	n/a	0	0	0
3183641	REC_WORD	wordpools/wasnorm_wordpool_576.txt	LTP313	ltpFR2	2	13	EAGLE	512	n/a	n/a	0	0	0
3184724	REC_WORD	wordpools/wasnorm_wordpool_576.txt	LTP313	ltpFR2	2	13	ROOSTER	1209	n/a	n/a	0	0	0
3190977	REC_WORD	wordpools/wasnorm_wordpool_576.txt	LTP313	ltpFR2	2	13	DORM	488	n/a	n/a	0	0	0
3191832	REC_WORD	wordpools/wasnorm_wordpool_576.txt	LTP313	ltpFR2	2	13	WARDROBE	1587	n/a	n/a	0	0	0
3193602	REC_WORD	wordpools/wasnorm_wordpool_576.txt	LTP313	ltpFR2	2	13	CLOTHES	327	n/a	n/a	0	0	0
3198717	REC_WORD	wordpools/wasnorm_wordpool_576.txt	LTP313	ltpFR2	2	13	FOOTBALL	591	n/a	n/a	0	0	0
3199523	REC_WORD	wordpools/wasnorm_wordpool_576.txt	LTP313	ltpFR2	2	13	FLOWER	584	n/a	n/a	0	0	0
3202749	REC_WORD	wordpools/wasnorm_wordpool_576.txt	LTP313	ltpFR2	2	13	GUITAR	670	n/a	n/a	0	0	0
3204289	REC_WORD	wordpools/wasnorm_wordpool_576.txt	LTP313	ltpFR2	2	13	BANJO	82	n/a	n/a	0	0	0
3206737	REC_WORD	wordpools/wasnorm_wordpool_576.txt	LTP313	ltpFR2	2	13	FRAGRANCE	599	n/a	n/a	0	0	0
3207737	REC_WORD_VV	wordpools/wasnorm_wordpool_576.txt	LTP313	ltpFR2	2	13	<>	-1	n/a	n/a	0	0	0
3208771	REC_WORD	wordpools/wasnorm_wordpool_576.txt	LTP313	ltpFR2	2	13	BUTCHER	203	n/a	n/a	0	0	0
3209778	REC_WORD	wordpools/wasnorm_wordpool_576.txt	LTP313	ltpFR2	2	13	SANDWICH	1232	n/a	n/a	0	0	0
3210778	REC_WORD_VV	wordpools/wasnorm_wordpool_576.txt	LTP313	ltpFR2	2	13	<>	-1	n/a	n/a	0	0	0
3217549	REC_WORD	wordpools/wasnorm_wordpool_576.txt	LTP313	ltpFR2	2	13	COMET	353	n/a	n/a	0	0	0
3219846	REC_WORD	wordpools/wasnorm_wordpool_576.txt	LTP313	ltpFR2	2	13	PROTON	1132	n/a	n/a	0	0	0
3222166	REC_WORD	wordpools/wasnorm_wordpool_576.txt	LTP313	ltpFR2	2	13	SPACE	1345	n/a	n/a	0	0	0
3223166	REC_WORD_VV	wordpools/wasnorm_wordpool_576.txt	LTP313	ltpFR2	2	13	<>	-1	n/a	n/a	0	0	0
3224554	REC_WORD	wordpools/wasnorm_wordpool_576.txt	LTP313	ltpFR2	2	13	CHEMIST	292	n/a	n/a	0	0	0
3272792	DISTRACTOR	n/a	LTP313	ltpFR2	2	14	n/a	n/a	n/a	n/a	0	0	0
3272793	START	n/a	LTP313	ltpFR2	2	n/a	n/a	n/a	21	n/a	n/a	n/a	n/a
3272808	PROB	n/a	LTP313	ltpFR2	2	n/a	n/a	n/a	21	6	1	3	2
3274521	PROB	n/a	LTP313	ltpFR2	2	n/a	n/a	n/a	21	15	4	4	7
3275958	PROB	n/a	LTP313	ltpFR2	2	n/a	n/a	n/a	21	14	2	5	7
3277226	PROB	n/a	LTP313	ltpFR2	2	n/a	n/a	n/a	21	15	1	7	7
3278294	PROB	n/a	LTP313	ltpFR2	2	n/a	n/a	n/a	21	21	5	8	8
3279392	PROB	n/a	LTP313	ltpFR2	2	n/a	n/a	n/a	21	16	7	4	5
3280428	PROB	n/a	LTP313	ltpFR2	2	n/a	n/a	n/a	21	13	5	1	7
3281661	PROB	n/a	LTP313	ltpFR2	2	n/a	n/a	n/a	21	15	2	5	9
3283263	PROB	n/a	LTP313	ltpFR2	2	n/a	n/a	n/a	21	19	9	1	9
3284530	PROB	n/a	LTP313	ltpFR2	2	n/a	n/a	n/a	21	10	3	5	2
3285817	PROB	n/a	LTP313	ltpFR2	2	n/a	n/a	n/a	21	13	1	6	6
3287084	PROB	n/a	LTP313	ltpFR2	2	n/a	n/a	n/a	21	16	7	4	5
3288918	PROB	n/a	LTP313	ltpFR2	2	n/a	n/a	n/a	21	16	8	7	1
3289956	PROB	n/a	LTP313	ltpFR2	2	n/a	n/a	n/a	21	18	8	9	1
3291506	PROB	n/a	LTP313	ltpFR2	2	n/a	n/a	n/a	21	14	4	8	2
3292504	PROB	n/a	LTP313	ltpFR2	2	n/a	n/a	n/a	21	11	3	6	2
3293673	PROB	n/a	LTP313	ltpFR2	2	n/a	n/a	n/a	21	13	1	4	8
3294993	PROB	n/a	LTP313	ltpFR2	2	n/a	n/a	n/a	21	15	1	6	8
3296052	STOP	n/a	LTP313	ltpFR2	2	n/a	n/a	n/a	21	n/a	n/a	n/a	n/a
3297928	WORD	wordpools/wasnorm_wordpool_576.txt	LTP313	ltpFR2	2	14	PALACE	1006	n/a	n/a	0	0	0
3300662	WORD	wordpools/wasnorm_wordpool_576.txt	LTP313	ltpFR2	2	14	AWARD	63	n/a	n/a	0	0	0
3303231	WORD	wordpools/wasnorm_wordpool_576.txt	LTP313	ltpFR2	2	14	ARMY	39	n/a	n/a	0	0	0
3306051	WORD	wordpools/wasnorm_wordpool_576.txt	LTP313	ltpFR2	2	14	COLONEL	348	n/a	n/a	0	0	0
3308788	WORD	wordpools/wasnorm_wordpool_576.txt	LTP313	ltpFR2	2	14	MAILBOX	857	n/a	n/a	0	0	0
3311222	WORD	wordpools/wasnorm_wordpool_576.txt	LTP313	ltpFR2	2	14	GARDEN	623	n/a	n/a	0	0	0
3314040	WORD	wordpools/wasnorm_wordpool_576.txt	LTP313	ltpFR2	2	14	MUMMY	932	n/a	n/a	0	0	0
3316827	WORD	wordpools/wasnorm_wordpool_576.txt	LTP313	ltpFR2	2	14	KIDNEY	776	n/a	n/a	0	0	0
3319395	WORD	wordpools/wasnorm_wordpool_576.txt	LTP313	ltpFR2	2	14	BISON	131	n/a	n/a	0	0	0
3322097	WORD	wordpools/wasnorm_wordpool_576.txt	LTP313	ltpFR2	2	14	CATTLE	261	n/a	n/a	0	0	0
3324917	WORD	wordpools/wasnorm_wordpool_576.txt	LTP313	ltpFR2	2	14	EGYPT	519	n/a	n/a	0	0	0
3327501	WORD	wordpools/wasnorm_wordpool_576.txt	LTP313	ltpFR2	2	14	THRONE	1461	n/a	n/a	0	0	0
3330321	WORD	wordpools/wasnorm_wordpool_576.txt	LTP313	ltpFR2	2	14	BOYFRIEND	162	n/a	n/a	0	0	0
3332791	WORD	wordpools/wasnorm_wordpool_576.txt	LTP313	ltpFR2	2	14	SISTER	1312	n/a	n/a	0	0	0
3335558	WORD	wordpools/wasnorm_wordpool_576.txt	LTP313	ltpFR2	2	14	JOURNAL	760	n/a	n/a	0	0	0
3338077	WORD	wordpools/wasnorm_wordpool_576.txt	LTP313	ltpFR2	2	14	BRACES	164	n/a	n/a	0	0	0
3340730	WORD	wordpools/wasnorm_wordpool_576.txt	LTP313	ltpFR2	2	14	SPONGE	1355	n/a	n/a	0	0	0
3343314	WORD	wordpools/wasnorm_wordpool_576.txt	LTP313	ltpFR2	2	14	SALMON	1227	n/a	n/a	0	0	0
3345766	WORD	wordpools/wasnorm_wordpool_576.txt	LTP313	ltpFR2	2	14	TUTU	1524	n/a	n/a	0	0	0
3348452	WORD	wordpools/wasnorm_wordpool_576.txt	LTP313	ltpFR2	2	14	SKIRT	1319	n/a	n/a	0	0	0
3351071	WORD	wordpools/wasnorm_wordpool_576.txt	LTP313	ltpFR2	2	14	SEAFOOD	1260	n/a	n/a	0	0	0
3353539	WORD	wordpools/wasnorm_wordpool_576.txt	LTP313	ltpFR2	2	14	TEMPLE	1448	n/a	n/a	0	0	0
3356124	WORD	wordpools/wasnorm_wordpool_576.txt	LTP313	ltpFR2	2	14	BINDER	127	n/a	n/a	0	0	0
3358726	WORD	wordpools/wasnorm_wordpool_576.txt	LTP313	ltpFR2	2	14	EXPERT	543	n/a	n/a	0	0	0
3360331	START	n/a	LTP313	ltpFR2	2	n/a	n/a	n/a	22	n/a	n/a	n/a	n/a
3361345	DISTRACTOR	n/a	LTP313	ltpFR2	2	14	n/a	n/a	n/a	n/a	0	0	0
3361362	PROB	n/a	LTP313	ltpFR2	2	n/a	n/a	n/a	22	16	2	7	7
3363247	PROB	n/a	LTP313	ltpFR2	2	n/a	n/a	n/a	22	20	4	8	8
3365415	PROB	n/a	LTP313	ltpFR2	2	n/a	n/a	n/a	22	16	6	3	7
3366465	PROB	n/a	LTP313	ltpFR2	2	n/a	n/a	n/a	22	20	8	5	7
3367801	PROB	n/a	LTP313	ltpFR2	2	n/a	n/a	n/a	22	14	1	9	4
3369400	PROB	n/a	LTP313	ltpFR2	2	n/a	n/a	n/a	22	12	2	6	4
3370585	PROB	n/a	LTP313	ltpFR2	2	n/a	n/a	n/a	22	20	7	4	9
3372604	PROB	n/a	LTP313	ltpFR2	2	n/a	n/a	n/a	22	13	4	8	1
3373570	PROB	n/a	LTP313	ltpFR2	2	n/a	n/a	n/a	22	22	7	9	6
3374772	PROB	n/a	LTP313	ltpFR2	2	n/a	n/a	n/a	22	18	1	9	8
3376040	PROB	n/a	LTP313	ltpFR2	2	n/a	n/a	n/a	22	13	3	5	5
3377557	PROB	n/a	LTP313	ltpFR2	2	n/a	n/a	n/a	22	16	5	6	5
3378876	PROB	n/a	LTP313	ltpFR2	2	n/a	n/a	n/a	22	12	7	1	4
3380126	PROB	n/a	LTP313	ltpFR2	2	n/a	n/a	n/a	22	18	5	4	9
3381294	PROB	n/a	LTP313	ltpFR2	2	n/a	n/a	n/a	22	8	1	4	3
3382463	PROB	n/a	LTP313	ltpFR2	2	n/a	n/a	n/a	22	8	3	3	2
3383424	STOP	n/a	LTP313	ltpFR2	2	n/a	n/a	n/a	22	n/a	n/a	n/a	n/a
3386098	REC_START	n/a	LTP313	ltpFR2	2	14	n/a	n/a	n/a	n/a	0	0	0
3386549	REC_WORD	wordpools/wasnorm_wordpool_576.txt	LTP313	ltpFR2	2	14	EXPERT	543	n/a	n/a	0	0	0
3387715	REC_WORD	wordpools/wasnorm_wordpool_576.txt	LTP313	ltpFR2	2	14	HISTORY	-1	n/a	n/a	0	0	0
3390262	REC_WORD	wordpools/wasnorm_wordpool_576.txt	LTP313	ltpFR2	2	14	PALACE	1006	n/a	n/a	0	0	0
3391270	REC_WORD	wordpools/wasnorm_wordpool_576.txt	LTP313	ltpFR2	2	14	AWARD	63	n/a	n/a	0	0	0
3394423	REC_WORD	wordpools/wasnorm_wordpool_576.txt	LTP313	ltpFR2	2	14	ARMY	39	n/a	n/a	0	0	0
3399886	REC_WORD	wordpools/wasnorm_wordpool_576.txt	LTP313	ltpFR2	2	14	COLONEL	348	n/a	n/a	0	0	0
3412229	REC_WORD	wordpools/wasnorm_wordpool_576.txt	LTP313	ltpFR2	2	14	MAILBOX	857	n/a	n/a	0	0	0
3413242	REC_WORD	wordpools/wasnorm_wordpool_576.txt	LTP313	ltpFR2	2	14	GARDEN	623	n/a	n/a	0	0	0
3414066	REC_WORD	wordpools/wasnorm_wordpool_576.txt	LTP313	ltpFR2	2	14	MUMMY	932	n/a	n/a	0	0	0
3416564	REC_WORD	wordpools/wasnorm_wordpool_576.txt	LTP313	ltpFR2	2	14	LIVER	833	n/a	n/a	0	0	0
3418038	REC_WORD	wordpools/wasnorm_wordpool_576.txt	LTP313	ltpFR2	2	14	KIDNEY	776	n/a	n/a	0	0	0
3421713	REC_WORD	wordpools/wasnorm_wordpool_576.txt	LTP313	ltpFR2	2	14	BISON	131	n/a	n/a	0	0	0
3422720	REC_WORD	wordpools/wasnorm_wordpool_576.txt	LTP313	ltpFR2	2	14	CATTLE	261	n/a	n/a	0	0	0
3424579	REC_WORD	wordpools/wasnorm_wordpool_576.txt	LTP313	ltpFR2	2	14	EGYPT	519	n/a	n/a	0	0	0
3425727	REC_WORD	wordpools/wasnorm_wordpool_576.txt	LTP313	ltpFR2	2	14	THRONE	1461	n/a	n/a	0	0	0
3432109	REC_WORD	wordpools/wasnorm_wordpool_576.txt	LTP313	ltpFR2	2	14	SISTER	1312	n/a	n/a	0	0	0
3433988	REC_WORD	wordpools/wasnorm_wordpool_576.txt	LTP313	ltpFR2	2	14	JOURNAL	760	n/a	n/a	0	0	0
3435693	REC_WORD	wordpools/wasnorm_wordpool_576.txt	LTP313	ltpFR2	2	14	BRACES	164	n/a	n/a	0	0	0
3436992	REC_WORD	wordpools/wasnorm_wordpool_576.txt	LTP313	ltpFR2	2	14	BOYFRIEND	162	n/a	n/a	0	0	0
3476537	WORD	wordpools/wasnorm_wordpool_576.txt	LTP313	ltpFR2	2	15	ROBBER	1197	n/a	n/a	0	0	0
3479000	WORD	wordpools/wasnorm_wordpool_576.txt	LTP313	ltpFR2	2	15	PAPER	1011	n/a	n/a	0	0	0
3481742	WORD	wordpools/wasnorm_wordpool_576.txt	LTP313	ltpFR2	2	15	BIKE	125	n/a	n/a	0	0	0
3484528	WORD	wordpools/wasnorm_wordpool_576.txt	LTP313	ltpFR2	2	15	STICKER	1382	n/a	n/a	0	0	0
3487114	WORD	wordpools/wasnorm_wordpool_576.txt	LTP313	ltpFR2	2	15	FILM	565	n/a	n/a	0	0	0
3489711	WORD	wordpools/wasnorm_wordpool_576.txt	LTP313	ltpFR2	2	15	BURGLAR	200	n/a	n/a	0	0	0
3492368	WORD	wordpools/wasnorm_wordpool_576.txt	LTP313	ltpFR2	2	15	LIGHTNING	820	n/a	n/a	0	0	0
3494965	WORD	wordpools/wasnorm_wordpool_576.txt	LTP313	ltpFR2	2	15	SALT	1229	n/a	n/a	0	0	0
3497468	WORD	wordpools/wasnorm_wordpool_576.txt	LTP313	ltpFR2	2	15	BARLEY	88	n/a	n/a	0	0	0
3500053	WORD	wordpools/wasnorm_wordpool_576.txt	LTP313	ltpFR2	2	15	JAPAN	749	n/a	n/a	0	0	0
3502689	WORD	wordpools/wasnorm_wordpool_576.txt	LTP313	ltpFR2	2	15	TRUCK	1512	n/a	n/a	0	0	0
3505424	WORD	wordpools/wasnorm_wordpool_576.txt	LTP313	ltpFR2	2	15	PUDDING	1139	n/a	n/a	0	0	0
3507878	WORD	wordpools/wasnorm_wordpool_576.txt	LTP313	ltpFR2	2	15	RIFLE	1192	n/a	n/a	0	0	0
3510681	WORD	wordpools/wasnorm_wordpool_576.txt	LTP313	ltpFR2	2	15	PLUTO	1092	n/a	n/a	0	0	0
3513365	WORD	wordpools/wasnorm_wordpool_576.txt	LTP313	ltpFR2	2	15	BOX	159	n/a	n/a	0	0	0
3516167	WORD	wordpools/wasnorm_wordpool_576.txt	LTP313	ltpFR2	2	15	NAPKIN	937	n/a	n/a	0	0	0
3518804	WORD	wordpools/wasnorm_wordpool_576.txt	LTP313	ltpFR2	2	15	JUGGLER	763	n/a	n/a	0	0	0
3521522	WORD	wordpools/wasnorm_wordpool_576.txt	LTP313	ltpFR2	2	15	GYMNAST	675	n/a	n/a	0	0	0
3523958	WORD	wordpools/wasnorm_wordpool_576.txt	LTP313	ltpFR2	2	15	KLEENEX	782	n/a	n/a	0	0	0
3526742	WORD	wordpools/wasnorm_wordpool_576.txt	LTP313	ltpFR2	2	15	UNCLE	1536	n/a	n/a	0	0	0
3529428	WORD	wordpools/wasnorm_wordpool_576.txt	LTP313	ltpFR2	2	15	OUTDOORS	987	n/a	n/a	0	0	0
3532013	WORD	wordpools/wasnorm_wordpool_576.txt	LTP313	ltpFR2	2	15	VENUS	1557	n/a	n/a	0	0	0
3534685	WORD	wordpools/wasnorm_wordpool_576.txt	LTP313	ltpFR2	2	15	CROSS	413	n/a	n/a	0	0	0
3537486	WORD	wordpools/wasnorm_wordpool_576.txt	LTP313	ltpFR2	2	15	CLAM	315	n/a	n/a	0	0	0
3539104	START	n/a	LTP313	ltpFR2	2	n/a	n/a	n/a	23	n/a	n/a	n/a	n/a
3539957	DISTRACTOR	n/a	LTP313	ltpFR2	2	15	n/a	n/a	n/a	n/a	0	0	0
3539972	PROB	n/a	LTP313	ltpFR2	2	n/a	n/a	n/a	23	25	9	8	8
3543692	PROB	n/a	LTP313	ltpFR2	2	n/a	n/a	n/a	23	16	2	5	9
3545559	PROB	n/a	LTP313	ltpFR2	2	n/a	n/a	n/a	23	23	7	8	8
3547729	PROB	n/a	LTP313	ltpFR2	2	n/a	n/a	n/a	23	10	3	6	1
3548678	PROB	n/a	LTP313	ltpFR2	2	n/a	n/a	n/a	23	18	1	9	8
3549764	PROB	n/a	LTP313	ltpFR2	2	n/a	n/a	n/a	23	23	6	9	8
3551164	PROB	n/a	LTP313	ltpFR2	2	n/a	n/a	n/a	23	11	7	3	1
3552166	PROB	n/a	LTP313	ltpFR2	2	n/a	n/a	n/a	23	21	7	7	7
3553248	PROB	n/a	LTP313	ltpFR2	2	n/a	n/a	n/a	23	21	9	8	4
3554351	PROB	n/a	LTP313	ltpFR2	2	n/a	n/a	n/a	23	12	7	4	1
3555584	PROB	n/a	LTP313	ltpFR2	2	n/a	n/a	n/a	23	14	7	3	4
3556635	PROB	n/a	LTP313	ltpFR2	2	n/a	n/a	n/a	23	22	9	9	3
3557735	PROB	n/a	LTP313	ltpFR2	2	n/a	n/a	n/a	23	23	7	7	9
3559604	PROB	n/a	LTP313	ltpFR2	2	n/a	n/a	n/a	23	14	4	6	4
3560621	PROB	n/a	LTP313	ltpFR2	2	n/a	n/a	n/a	23	16	5	7	4
3561647	STOP	n/a	LTP313	ltpFR2	2	n/a	n/a	n/a	23	n/a	n/a	n/a	n/a
3564959	REC_START	n/a	LTP313	ltpFR2	2	15	n/a	n/a	n/a	n/a	0	0	0
3566108	REC_WORD	wordpools/wasnorm_wordpool_576.txt	LTP313	ltpFR2	2	15	VENUS	1557	n/a	n/a	0	0	0
3567688	REC_WORD	wordpools/wasnorm_wordpool_576.txt	LTP313	ltpFR2	2	15	CLOCK	325	n/a	n/a	0	0	0
3568598	REC_WORD	wordpools/wasnorm_wordpool_576.txt	LTP313	ltpFR2	2	15	CLAM	315	n/a	n/a	0	0	0
3570380	REC_WORD	wordpools/wasnorm_wordpool_576.txt	LTP313	ltpFR2	2	15	GYMNAST	675	n/a	n/a	0	0	0
3571234	REC_WORD	wordpools/wasnorm_wordpool_576.txt	LTP313	ltpFR2	2	15	KLEENEX	782	n/a	n/a	0	0	0
3576396	REC_WORD	wordpools/wasnorm_wordpool_576.txt	LTP313	ltpFR2	2	15	ROBBER	1197	n/a	n/a	0	0	0
3578626	REC_WORD	wordpools/wasnorm_wordpool_576.txt	LTP313	ltpFR2	2	15	BURGLAR	200	n/a	n/a	0	0	0
3579816	REC_WORD	wordpools/wasnorm_wordpool_576.txt	LTP313	ltpFR2	2	15	PAPER	1011	n/a	n/a	0	0	0
3583685	REC_WORD	wordpools/wasnorm_wordpool_576.txt	LTP313	ltpFR2	2	15	BIKE	125	n/a	n/a	0	0	0
3584292	REC_WORD	wordpools/wasnorm_wordpool_576.txt	LTP313	ltpFR2	2	15	STICKER	1382	n/a	n/a	0	0	0
3586942	REC_WORD	wordpools/wasnorm_wordpool_576.txt	LTP313	ltpFR2	2	15	JAPAN	749	n/a	n/a	0	0	0
3589592	REC_WORD	wordpools/wasnorm_wordpool_576.txt	LTP313	ltpFR2	2	15	PUDDING	1139	n/a	n/a	0	0	0
3591398	REC_WORD	wordpools/wasnorm_wordpool_576.txt	LTP313	ltpFR2	2	15	RIFLE	1192	n/a	n/a	0	0	0
3685557	DISTRACTOR	n/a	LTP313	ltpFR2	2	16	n/a	n/a	n/a	n/a	0	0	0
3685557	START	n/a	LTP313	ltpFR2	2	n/a	n/a	n/a	24	n/a	n/a	n/a	n/a
3685572	PROB	n/a	LTP313	ltpFR2	2	n/a	n/a	n/a	24	24	8	8	8
3686873	PROB	n/a	LTP313	ltpFR2	2	n/a	n/a	n/a	24	10	4	4	2
3688707	PROB	n/a	LTP313	ltpFR2	2	n/a	n/a	n/a	24	4	1	1	2
3689658	PROB	n/a	LTP313	ltpFR2	2	n/a	n/a	n/a	24	12	2	3	7
3690675	PROB	n/a	LTP313	ltpFR2	2	n/a	n/a	n/a	24	19	2	8	9
3692127	PROB	n/a	LTP313	ltpFR2	2	n/a	n/a	n/a	24	20	8	3	9
3693812	PROB	n/a	LTP313	ltpFR2	2	n/a	n/a	n/a	24	16	3	7	6
3694747	PROB	n/a	LTP313	ltpFR2	2	n/a	n/a	n/a	24	12	3	7	2
3695696	PROB	n/a	LTP313	ltpFR2	2	n/a	n/a	n/a	24	16	5	8	3
3696763	PROB	n/a	LTP313	ltpFR2	2	n/a	n/a	n/a	24	17	7	6	4
3698365	PROB	n/a	LTP313	ltpFR2	2	n/a	n/a	n/a	24	18	6	7	5
3699866	PROB	n/a	LTP313	ltpFR2	2	n/a	n/a	n/a	24	19	5	8	6
3701050	PROB	n/a	LTP313	ltpFR2	2	n/a	n/a	n/a	24	10	6	3	1
3701952	PROB	n/a	LTP313	ltpFR2	2	n/a	n/a	n/a	24	13	6	4	3
3702904	PROB	n/a	LTP313	ltpFR2	2	n/a	n/a	n/a	24	4	1	1	2
3703787	PROB	n/a	LTP313	ltpFR2	2	n/a	n/a	n/a	24	1	4	5	4
3705689	PROB	n/a	LTP313	ltpFR2	2	n/a	n/a	n/a	24	11	3	4	4
3708157	STOP	n/a	LTP313	ltpFR2	2	n/a	n/a	n/a	24	n/a	n/a	n/a	n/a
3710609	WORD	wordpools/wasnorm_wordpool_576.txt	LTP313	ltpFR2	2	16	DONOR	485	n/a	n/a	0	0	0
3713244	WORD	wordpools/wasnorm_wordpool_576.txt	LTP313	ltpFR2	2	16	HATCHET	691	n/a	n/a	0	0	0
3715679	WORD	wordpools/wasnorm_wordpool_576.txt	LTP313	ltpFR2	2	16	PISTOL	1075	n/a	n/a	0	0	0
3718131	WORD	wordpools/wasnorm_wordpool_576.txt	LTP313	ltpFR2	2	16	LASER	801	n/a	n/a	0	0	0
3720863	WORD	wordpools/wasnorm_wordpool_576.txt	LTP313	ltpFR2	2	16	MOTOR	922	n/a	n/a	0	0	0
3723331	WORD	wordpools/wasnorm_wordpool_576.txt	LTP313	ltpFR2	2	16	SPIDER	1351	n/a	n/a	0	0	0
3725822	WORD	wordpools/wasnorm_wordpool_576.txt	LTP313	ltpFR2	2	16	BODY	145	n/a	n/a	0	0	0
3728439	WORD	wordpools/wasnorm_wordpool_576.txt	LTP313	ltpFR2	2	16	STAMP	1370	n/a	n/a	0	0	0
3731121	WORD	wordpools/wasnorm_wordpool_576.txt	LTP313	ltpFR2	2	16	ZEBRA	1635	n/a	n/a	0	0	0
3733560	WORD	wordpools/wasnorm_wordpool_576.txt	LTP313	ltpFR2	2	16	STALLION	1369	n/a	n/a	0	0	0
3736308	WORD	wordpools/wasnorm_wordpool_576.txt	LTP313	ltpFR2	2	16	CHIPMUNK	304	n/a	n/a	0	0	0
3739082	WORD	wordpools/wasnorm_wordpool_576.txt	LTP313	ltpFR2	2	16	INFANT	737	n/a	n/a	0	0	0
3741579	WORD	wordpools/wasnorm_wordpool_576.txt	LTP313	ltpFR2	2	16	NOMAD	955	n/a	n/a	0	0	0
3744131	WORD	wordpools/wasnorm_wordpool_576.txt	LTP313	ltpFR2	2	16	CRATER	400	n/a	n/a	0	0	0
3746805	WORD	wordpools/wasnorm_wordpool_576.txt	LTP313	ltpFR2	2	16	COLLEGE	346	n/a	n/a	0	0	0
3749287	WORD	wordpools/wasnorm_wordpool_576.txt	LTP313	ltpFR2	2	16	FOREST	593	n/a	n/a	0	0	0
3752026	WORD	wordpools/wasnorm_wordpool_576.txt	LTP313	ltpFR2	2	16	LAGOON	795	n/a	n/a	0	0	0
3754809	WORD	wordpools/wasnorm_wordpool_576.txt	LTP313	ltpFR2	2	16	BATHTUB	100	n/a	n/a	0	0	0
3757327	WORD	wordpools/wasnorm_wordpool_576.txt	LTP313	ltpFR2	2	16	VICTIM	1562	n/a	n/a	0	0	0
3759931	WORD	wordpools/wasnorm_wordpool_576.txt	LTP313	ltpFR2	2	16	CASHEW	253	n/a	n/a	0	0	0
3762399	WORD	wordpools/wasnorm_wordpool_576.txt	LTP313	ltpFR2	2	16	POSSUM	1112	n/a	n/a	0	0	0
3764951	WORD	wordpools/wasnorm_wordpool_576.txt	LTP313	ltpFR2	2	16	FOREHEAD	592	n/a	n/a	0	0	0
3767635	WORD	wordpools/wasnorm_wordpool_576.txt	LTP313	ltpFR2	2	16	TEACHER	1440	n/a	n/a	0	0	0
3770304	WORD	wordpools/wasnorm_wordpool_576.txt	LTP313	ltpFR2	2	16	LONDON	843	n/a	n/a	0	0	0
3771911	START	n/a	LTP313	ltpFR2	2	n/a	n/a	n/a	25	n/a	n/a	n/a	n/a
3773077	DISTRACTOR	n/a	LTP313	ltpFR2	2	16	n/a	n/a	n/a	n/a	0	0	0
3773091	PROB	n/a	LTP313	ltpFR2	2	n/a	n/a	n/a	25	13	2	4	7
3777161	PROB	n/a	LTP313	ltpFR2	2	n/a	n/a	n/a	25	12	4	1	7
3778397	PROB	n/a	LTP313	ltpFR2	2	n/a	n/a	n/a	25	16	7	3	6
3779481	PROB	n/a	LTP313	ltpFR2	2	n/a	n/a	n/a	25	14	1	7	6
3780733	PROB	n/a	LTP313	ltpFR2	2	n/a	n/a	n/a	25	11	2	2	7
3781817	PROB	n/a	LTP313	ltpFR2	2	n/a	n/a	n/a	25	10	1	3	6
3782868	PROB	n/a	LTP313	ltpFR2	2	n/a	n/a	n/a	25	19	1	9	9
3784534	PROB	n/a	LTP313	ltpFR2	2	n/a	n/a	n/a	25	25	9	7	9
3787352	PROB	n/a	LTP313	ltpFR2	2	n/a	n/a	n/a	25	21	6	9	6
3789137	PROB	n/a	LTP313	ltpFR2	2	n/a	n/a	n/a	25	14	2	9	3
3790607	PROB	n/a	LTP313	ltpFR2	2	n/a	n/a	n/a	25	16	8	2	6
3791706	PROB	n/a	LTP313	ltpFR2	2	n/a	n/a	n/a	25	5	2	1	2
3792740	PROB	n/a	LTP313	ltpFR2	2	n/a	n/a	n/a	25	13	4	7	2
3794141	PROB	n/a	LTP313	ltpFR2	2	n/a	n/a	n/a	25	5	1	1	3
3795176	STOP	n/a	LTP313	ltpFR2	2	n/a	n/a	n/a	25	n/a	n/a	n/a	n/a
3797780	REC_START	n/a	LTP313	ltpFR2	2	16	n/a	n/a	n/a	n/a	0	0	0
3798224	REC_WORD	wordpools/wasnorm_wordpool_576.txt	LTP313	ltpFR2	2	16	POSSUM	1112	n/a	n/a	0	0	0
3800061	REC_WORD	wordpools/wasnorm_wordpool_576.txt	LTP313	ltpFR2	2	16	FOREHEAD	592	n/a	n/a	0	0	0
3803122	REC_WORD	wordpools/wasnorm_wordpool_576.txt	LTP313	ltpFR2	2	16	TEACHER	1440	n/a	n/a	0	0	0
3805122	REC_WORD	wordpools/wasnorm_wordpool_576.txt	LTP313	ltpFR2	2	16	LONDON	843	n/a	n/a	0	0	0
3813175	REC_WORD	wordpools/wasnorm_wordpool_576.txt	LTP313	ltpFR2	2	16	DONOR	485	n/a	n/a	0	0	0
3814694	REC_WORD	wordpools/wasnorm_wordpool_576.txt	LTP313	ltpFR2	2	16	HATCHET	691	n/a	n/a	0	0	0
3817323	REC_WORD	wordpools/wasnorm_wordpool_576.txt	LTP313	ltpFR2	2	16	LASER	801	n/a	n/a	0	0	0
3821072	REC_WORD	wordpools/wasnorm_wordpool_576.txt	LTP313	ltpFR2	2	16	MOTOR	922	n/a	n/a	0	0	0
3824900	REC_WORD	wordpools/wasnorm_wordpool_576.txt	LTP313	ltpFR2	2	16	SPIDER	1351	n/a	n/a	0	0	0
3825900	REC_WORD_VV	wordpools/wasnorm_wordpool_576.txt	LTP313	ltpFR2	2	16	<>	-1	n/a	n/a	0	0	0
3828867	REC_WORD	wordpools/wasnorm_wordpool_576.txt	LTP313	ltpFR2	2	16	BODY	145	n/a	n/a	0	0	0
3832246	REC_WORD	wordpools/wasnorm_wordpool_576.txt	LTP313	ltpFR2	2	16	CHIPMUNK	304	n/a	n/a	0	0	0
3842369	REC_WORD	wordpools/wasnorm_wordpool_576.txt	LTP313	ltpFR2	2	16	STAMP	1370	n/a	n/a	0	0	0
3874312	REST_REWET	n/a	LTP313	ltpFR2	2	16	n/a	n/a	n/a	n/a	0	0	0
4246790	WORD	wordpools/wasnorm_wordpool_576.txt	LTP313	ltpFR2	2	17	MONEY	908	n/a	n/a	0	0	0
4249472	WORD	wordpools/wasnorm_wordpool_576.txt	LTP313	ltpFR2	2	17	PLIERS	1089	n/a	n/a	0	0	0
4252261	WORD	wordpools/wasnorm_wordpool_576.txt	LTP313	ltpFR2	2	17	BRANDY	169	n/a	n/a	0	0	0
4254928	WORD	wordpools/wasnorm_wordpool_576.txt	LTP313	ltpFR2	2	17	SOFTBALL	1343	n/a	n/a	0	0	0
4257646	WORD	wordpools/wasnorm_wordpool_576.txt	LTP313	ltpFR2	2	17	CREVICE	405	n/a	n/a	0	0	0
4260198	WORD	wordpools/wasnorm_wordpool_576.txt	LTP313	ltpFR2	2	17	SHERIFF	1284	n/a	n/a	0	0	0
4262785	WORD	wordpools/wasnorm_wordpool_576.txt	LTP313	ltpFR2	2	17	SWAMP	1416	n/a	n/a	0	0	0
4265569	WORD	wordpools/wasnorm_wordpool_576.txt	LTP313	ltpFR2	2	17	GREASE	660	n/a	n/a	0	0	0
4268005	WORD	wordpools/wasnorm_wordpool_576.txt	LTP313	ltpFR2	2	17	BRICK	172	n/a	n/a	0	0	0
4270707	WORD	wordpools/wasnorm_wordpool_576.txt	LTP313	ltpFR2	2	17	SUPPER	1411	n/a	n/a	0	0	0
4273193	WORD	wordpools/wasnorm_wordpool_576.txt	LTP313	ltpFR2	2	17	QUAIL	1147	n/a	n/a	0	0	0
4276028	WORD	wordpools/wasnorm_wordpool_576.txt	LTP313	ltpFR2	2	17	OMELET	976	n/a	n/a	0	0	0
4278681	WORD	wordpools/wasnorm_wordpool_576.txt	LTP313	ltpFR2	2	17	COCOON	339	n/a	n/a	0	0	0
4281183	WORD	wordpools/wasnorm_wordpool_576.txt	LTP313	ltpFR2	2	17	HAMPER	682	n/a	n/a	0	0	0
4283651	WORD	wordpools/wasnorm_wordpool_576.txt	LTP313	ltpFR2	2	17	OUTFIT	988	n/a	n/a	0	0	0
4286438	WORD	wordpools/wasnorm_wordpool_576.txt	LTP313	ltpFR2	2	17	TWEEZERS	1526	n/a	n/a	0	0	0
4289057	WORD	wordpools/wasnorm_wordpool_576.txt	LTP313	ltpFR2	2	17	BUBBLE	183	n/a	n/a	0	0	0
4291625	WORD	wordpools/wasnorm_wordpool_576.txt	LTP313	ltpFR2	2	17	COUNTRY	388	n/a	n/a	0	0	0
4294178	WORD	wordpools/wasnorm_wordpool_576.txt	LTP313	ltpFR2	2	17	COUNTY	389	n/a	n/a	0	0	0
4296996	WORD	wordpools/wasnorm_wordpool_576.txt	LTP313	ltpFR2	2	17	COSTUME	383	n/a	n/a	0	0	0
4299582	WORD	wordpools/wasnorm_wordpool_576.txt	LTP313	ltpFR2	2	17	PIGEON	1065	n/a	n/a	0	0	0
4302017	WORD	wordpools/wasnorm_wordpool_576.txt	LTP313	ltpFR2	2	17	SNACK	1331	n/a	n/a	0	0	0
4304470	WORD	wordpools/wasnorm_wordpool_576.txt	LTP313	ltpFR2	2	17	RELISH	1183	n/a	n/a	0	0	0
4307288	WORD	wordpools/wasnorm_wordpool_576.txt	LTP313	ltpFR2	2	17	SIDEWALK	1303	n/a	n/a	0	0	0
4308908	START	n/a	LTP313	ltpFR2	2	n/a	n/a	n/a	26	n/a	n/a	n/a	n/a
4310087	DISTRACTOR	n/a	LTP313	ltpFR2	2	17	n/a	n/a	n/a	n/a	0	0	0
4310092	PROB	n/a	LTP313	ltpFR2	2	n/a	n/a	n/a	26	19	4	6	9
4311909	PROB	n/a	LTP313	ltpFR2	2	n/a	n/a	n/a	26	11	1	1	9
4312842	PROB	n/a	LTP313	ltpFR2	2	n/a	n/a	n/a	26	18	8	3	7
4314177	PROB	n/a	LTP313	ltpFR2	2	n/a	n/a	n/a	26	11	1	4	6
4315242	PROB	n/a	LTP313	ltpFR2	2	n/a	n/a	n/a	26	15	6	5	4
4317177	PROB	n/a	LTP313	ltpFR2	2	n/a	n/a	n/a	26	8	4	2	2
4318631	PROB	n/a	LTP313	ltpFR2	2	n/a	n/a	n/a	26	13	4	6	3
4319547	PROB	n/a	LTP313	ltpFR2	2	n/a	n/a	n/a	26	15	4	7	4
4321565	PROB	n/a	LTP313	ltpFR2	2	n/a	n/a	n/a	26	21	9	8	4
4322802	PROB	n/a	LTP313	ltpFR2	2	n/a	n/a	n/a	26	18	1	8	9
4323917	PROB	n/a	LTP313	ltpFR2	2	n/a	n/a	n/a	26	15	6	3	6
4325871	PROB	n/a	LTP313	ltpFR2	2	n/a	n/a	n/a	26	16	7	2	7
4327854	PROB	n/a	LTP313	ltpFR2	2	n/a	n/a	n/a	26	21	5	8	8
4329087	PROB	n/a	LTP313	ltpFR2	2	n/a	n/a	n/a	26	22	9	4	9
4332908	STOP	n/a	LTP313	ltpFR2	2	n/a	n/a	n/a	26	n/a	n/a	n/a	n/a
4334826	REC_START	n/a	LTP313	ltpFR2	2	17	n/a	n/a	n/a	n/a	0	0	0
4337259	REC_WORD	wordpools/wasnorm_wordpool_576.txt	LTP313	ltpFR2	2	17	RELISH	1183	n/a	n/a	0	0	0
4338259	REC_WORD_VV	wordpools/wasnorm_wordpool_576.txt	LTP313	ltpFR2	2	17	<>	-1	n/a	n/a	0	0	0
4343807	REC_WORD	wordpools/wasnorm_wordpool_576.txt	LTP313	ltpFR2	2	17	BRANDY	169	n/a	n/a	0	0	0
4345489	REC_WORD	wordpools/wasnorm_wordpool_576.txt	LTP313	ltpFR2	2	17	SWAMP	1416	n/a	n/a	0	0	0
4347547	REC_WORD	wordpools/wasnorm_wordpool_576.txt	LTP313	ltpFR2	2	17	PLIERS	1089	n/a	n/a	0	0	0
4348620	REC_WORD	wordpools/wasnorm_wordpool_576.txt	LTP313	ltpFR2	2	17	MONEY	908	n/a	n/a	0	0	0
4349928	REC_WORD	wordpools/wasnorm_wordpool_576.txt	LTP313	ltpFR2	2	17	TWEEZERS	1526	n/a	n/a	0	0	0
4352344	REC_WORD	wordpools/wasnorm_wordpool_576.txt	LTP313	ltpFR2	2	17	SOFTBALL	1343	n/a	n/a	0	0	0
4353593	REC_WORD	wordpools/wasnorm_wordpool_576.txt	LTP313	ltpFR2	2	17	SHERIFF	1284	n/a	n/a	0	0	0
4354593	REC_WORD_VV	wordpools/wasnorm_wordpool_576.txt	LTP313	ltpFR2	2	17	<>	-1	n/a	n/a	0	0	0
4360800	REC_WORD	wordpools/wasnorm_wordpool_576.txt	LTP313	ltpFR2	2	17	BRICK	172	n/a	n/a	0	0	0
4361785	REC_WORD	wordpools/wasnorm_wordpool_576.txt	LTP313	ltpFR2	2	17	SUPPER	1411	n/a	n/a	0	0	0
4362715	REC_WORD	wordpools/wasnorm_wordpool_576.txt	LTP313	ltpFR2	2	17	QUAIL	1147	n/a	n/a	0	0	0
4366064	REC_WORD	wordpools/wasnorm_wordpool_576.txt	LTP313	ltpFR2	2	17	COCOON	339	n/a	n/a	0	0	0
4366969	REC_WORD	wordpools/wasnorm_wordpool_576.txt	LTP313	ltpFR2	2	17	HAMPER	682	n/a	n/a	0	0	0
4373069	REC_WORD	wordpools/wasnorm_wordpool_576.txt	LTP313	ltpFR2	2	17	COUNTRY	388	n/a	n/a	0	0	0
4373923	REC_WORD	wordpools/wasnorm_wordpool_576.txt	LTP313	ltpFR2	2	17	COUNTY	389	n/a	n/a	0	0	0
4377027	REC_WORD	wordpools/wasnorm_wordpool_576.txt	LTP313	ltpFR2	2	17	COSTUME	383	n/a	n/a	0	0	0
4425275	WORD	wordpools/wasnorm_wordpool_576.txt	LTP313	ltpFR2	2	18	TWISTER	1530	n/a	n/a	0	0	0
4427969	WORD	wordpools/wasnorm_wordpool_576.txt	LTP313	ltpFR2	2	18	COWBOY	395	n/a	n/a	0	0	0
4430614	WORD	wordpools/wasnorm_wordpool_576.txt	LTP313	ltpFR2	2	18	SLIDE	1326	n/a	n/a	0	0	0
4433315	WORD	wordpools/wasnorm_wordpool_576.txt	LTP313	ltpFR2	2	18	EUROPE	541	n/a	n/a	0	0	0
4436002	WORD	wordpools/wasnorm_wordpool_576.txt	LTP313	ltpFR2	2	18	PUPPY	1144	n/a	n/a	0	0	0
4438704	WORD	wordpools/wasnorm_wordpool_576.txt	LTP313	ltpFR2	2	18	CONCERT	360	n/a	n/a	0	0	0
4441373	WORD	wordpools/wasnorm_wordpool_576.txt	LTP313	ltpFR2	2	18	BARREL	91	n/a	n/a	0	0	0
4443810	WORD	wordpools/wasnorm_wordpool_576.txt	LTP313	ltpFR2	2	18	PANTHER	1009	n/a	n/a	0	0	0
4446516	WORD	wordpools/wasnorm_wordpool_576.txt	LTP313	ltpFR2	2	18	SPARROW	1347	n/a	n/a	0	0	0
4449164	WORD	wordpools/wasnorm_wordpool_576.txt	LTP313	ltpFR2	2	18	BEAST	108	n/a	n/a	0	0	0
4451632	WORD	wordpools/wasnorm_wordpool_576.txt	LTP313	ltpFR2	2	18	HUMAN	726	n/a	n/a	0	0	0
4454106	WORD	wordpools/wasnorm_wordpool_576.txt	LTP313	ltpFR2	2	18	HIKER	708	n/a	n/a	0	0	0
4456652	WORD	wordpools/wasnorm_wordpool_576.txt	LTP313	ltpFR2	2	18	CANYON	235	n/a	n/a	0	0	0
4459227	WORD	wordpools/wasnorm_wordpool_576.txt	LTP313	ltpFR2	2	18	SUBWAY	1400	n/a	n/a	0	0	0
4461892	WORD	wordpools/wasnorm_wordpool_576.txt	LTP313	ltpFR2	2	18	PLASTER	1085	n/a	n/a	0	0	0
4464697	WORD	wordpools/wasnorm_wordpool_576.txt	LTP313	ltpFR2	2	18	WASP	1593	n/a	n/a	0	0	0
4467429	WORD	wordpools/wasnorm_wordpool_576.txt	LTP313	ltpFR2	2	18	MARKER	870	n/a	n/a	0	0	0
4469986	WORD	wordpools/wasnorm_wordpool_576.txt	LTP313	ltpFR2	2	18	OZONE	996	n/a	n/a	0	0	0
4472437	WORD	wordpools/wasnorm_wordpool_576.txt	LTP313	ltpFR2	2	18	DANCER	437	n/a	n/a	0	0	0
4475068	WORD	wordpools/wasnorm_wordpool_576.txt	LTP313	ltpFR2	2	18	GRIZZLY	662	n/a	n/a	0	0	0
4477605	WORD	wordpools/wasnorm_wordpool_576.txt	LTP313	ltpFR2	2	18	TAXI	1438	n/a	n/a	0	0	0
4480060	WORD	wordpools/wasnorm_wordpool_576.txt	LTP313	ltpFR2	2	18	CYCLONE	431	n/a	n/a	0	0	0
4482659	WORD	wordpools/wasnorm_wordpool_576.txt	LTP313	ltpFR2	2	18	DRUG	501	n/a	n/a	0	0	0
4485328	WORD	wordpools/wasnorm_wordpool_576.txt	LTP313	ltpFR2	2	18	TABLET	1427	n/a	n/a	0	0	0
4486933	START	n/a	LTP313	ltpFR2	2	n/a	n/a	n/a	27	n/a	n/a	n/a	n/a
4487755	DISTRACTOR	n/a	LTP313	ltpFR2	2	18	n/a	n/a	n/a	n/a	0	0	0
4487764	PROB	n/a	LTP313	ltpFR2	2	n/a	n/a	n/a	27	15	6	1	8
4489714	PROB	n/a	LTP313	ltpFR2	2	n/a	n/a	n/a	27	15	7	1	7
4490800	PROB	n/a	LTP313	ltpFR2	2	n/a	n/a	n/a	27	20	5	8	7
4491869	PROB	n/a	LTP313	ltpFR2	2	n/a	n/a	n/a	27	12	8	3	1
4493086	PROB	n/a	LTP313	ltpFR2	2	n/a	n/a	n/a	27	16	8	2	6
4494084	PROB	n/a	LTP313	ltpFR2	2	n/a	n/a	n/a	27	12	2	6	4
4495168	PROB	n/a	LTP313	ltpFR2	2	n/a	n/a	n/a	27	19	6	7	6
4496605	PROB	n/a	LTP313	ltpFR2	2	n/a	n/a	n/a	27	25	9	9	7
4498439	PROB	n/a	LTP313	ltpFR2	2	n/a	n/a	n/a	27	15	5	7	3
4500425	PROB	n/a	LTP313	ltpFR2	2	n/a	n/a	n/a	27	14	1	4	9
4501826	PROB	n/a	LTP313	ltpFR2	2	n/a	n/a	n/a	27	22	8	6	8
4504062	PROB	n/a	LTP313	ltpFR2	2	n/a	n/a	n/a	27	22	6	7	9
4506763	PROB	n/a	LTP313	ltpFR2	2	n/a	n/a	n/a	27	17	5	3	9
4508200	PROB	n/a	LTP313	ltpFR2	2	n/a	n/a	n/a	27	19	9	4	6
4509830	STOP	n/a	LTP313	ltpFR2	2	n/a	n/a	n/a	27	n/a	n/a	n/a	n/a
4512888	REC_START	n/a	LTP313	ltpFR2	2	18	n/a	n/a	n/a	n/a	0	0	0
4513498	REC_WORD	wordpools/wasnorm_wordpool_576.txt	LTP313	ltpFR2	2	18	GRIZZLY	662	n/a	n/a	0	0	0
4514642	REC_WORD	wordpools/wasnorm_wordpool_576.txt	LTP313	ltpFR2	2	18	TAXI	1438	n/a	n/a	0	0	0
4516353	REC_WORD	wordpools/wasnorm_wordpool_576.txt	LTP313	ltpFR2	2	18	CYCLONE	431	n/a	n/a	0	0	0
4518135	REC_WORD	wordpools/wasnorm_wordpool_576.txt	LTP313	ltpFR2	2	18	DRUG	501	n/a	n/a	0	0	0
4525949	REC_WORD	wordpools/wasnorm_wordpool_576.txt	LTP313	ltpFR2	2	18	COWBOY	395	n/a	n/a	0	0	0
4527315	REC_WORD	wordpools/wasnorm_wordpool_576.txt	LTP313	ltpFR2	2	18	TWISTER	1530	n/a	n/a	0	0	0
4528611	REC_WORD	wordpools/wasnorm_wordpool_576.txt	LTP313	ltpFR2	2	18	SLIDE	1326	n/a	n/a	0	0	0
4530604	REC_WORD	wordpools/wasnorm_wordpool_576.txt	LTP313	ltpFR2	2	18	EUROPE	541	n/a	n/a	0	0	0
4532454	REC_WORD	wordpools/wasnorm_wordpool_576.txt	LTP313	ltpFR2	2	18	PUPPY	1144	n/a	n/a	0	0	0
4534269	REC_WORD	wordpools/wasnorm_wordpool_576.txt	LTP313	ltpFR2	2	18	CONCERT	360	n/a	n/a	0	0	0
4536010	REC_WORD	wordpools/wasnorm_wordpool_576.txt	LTP313	ltpFR2	2	18	SPARROW	1347	n/a	n/a	0	0	0
4538472	REC_WORD	wordpools/wasnorm_wordpool_576.txt	LTP313	ltpFR2	2	18	BEAST	108	n/a	n/a	0	0	0
4540353	REC_WORD	wordpools/wasnorm_wordpool_576.txt	LTP313	ltpFR2	2	18	HUMAN	726	n/a	n/a	0	0	0
4543346	REC_WORD	wordpools/wasnorm_wordpool_576.txt	LTP313	ltpFR2	2	18	CANYON	235	n/a	n/a	0	0	0
4545843	REC_WORD	wordpools/wasnorm_wordpool_576.txt	LTP313	ltpFR2	2	18	SUBWAY	1400	n/a	n/a	0	0	0
4603323	WORD	wordpools/wasnorm_wordpool_576.txt	LTP313	ltpFR2	2	19	BLOCKADE	137	n/a	n/a	0	0	0
4605901	WORD	wordpools/wasnorm_wordpool_576.txt	LTP313	ltpFR2	2	19	PASSAGE	1019	n/a	n/a	0	0	0
4608329	WORD	wordpools/wasnorm_wordpool_576.txt	LTP313	ltpFR2	2	19	DRESSER	496	n/a	n/a	0	0	0
4611098	WORD	wordpools/wasnorm_wordpool_576.txt	LTP313	ltpFR2	2	19	SEAL	1262	n/a	n/a	0	0	0
4613683	WORD	wordpools/wasnorm_wordpool_576.txt	LTP313	ltpFR2	2	19	CREATURE	403	n/a	n/a	0	0	0
4616225	WORD	wordpools/wasnorm_wordpool_576.txt	LTP313	ltpFR2	2	19	STOMACH	1384	n/a	n/a	0	0	0
4618878	WORD	wordpools/wasnorm_wordpool_576.txt	LTP313	ltpFR2	2	19	FRIAR	605	n/a	n/a	0	0	0
4621630	WORD	wordpools/wasnorm_wordpool_576.txt	LTP313	ltpFR2	2	19	BREAST	171	n/a	n/a	0	0	0
4624175	WORD	wordpools/wasnorm_wordpool_576.txt	LTP313	ltpFR2	2	19	GLASS	639	n/a	n/a	0	0	0
4626727	WORD	wordpools/wasnorm_wordpool_576.txt	LTP313	ltpFR2	2	19	IDOL	733	n/a	n/a	0	0	0
4629246	WORD	wordpools/wasnorm_wordpool_576.txt	LTP313	ltpFR2	2	19	FLESH	579	n/a	n/a	0	0	0
4631781	WORD	wordpools/wasnorm_wordpool_576.txt	LTP313	ltpFR2	2	19	PASTRY	1022	n/a	n/a	0	0	0
4634408	WORD	wordpools/wasnorm_wordpool_576.txt	LTP313	ltpFR2	2	19	ICING	732	n/a	n/a	0	0	0
4637144	WORD	wordpools/wasnorm_wordpool_576.txt	LTP313	ltpFR2	2	19	INMATE	738	n/a	n/a	0	0	0
4639678	WORD	wordpools/wasnorm_wordpool_576.txt	LTP313	ltpFR2	2	19	DRAGON	492	n/a	n/a	0	0	0
4642481	WORD	wordpools/wasnorm_wordpool_576.txt	LTP313	ltpFR2	2	19	PORTRAIT	1111	n/a	n/a	0	0	0
4644985	WORD	wordpools/wasnorm_wordpool_576.txt	LTP313	ltpFR2	2	19	THREAD	1460	n/a	n/a	0	0	0
4647753	WORD	wordpools/wasnorm_wordpool_576.txt	LTP313	ltpFR2	2	19	CLIMBER	323	n/a	n/a	0	0	0
4650446	WORD	wordpools/wasnorm_wordpool_576.txt	LTP313	ltpFR2	2	19	UMPIRE	1535	n/a	n/a	0	0	0
4652932	WORD	wordpools/wasnorm_wordpool_576.txt	LTP313	ltpFR2	2	19	LOVER	846	n/a	n/a	0	0	0
4655451	WORD	wordpools/wasnorm_wordpool_576.txt	LTP313	ltpFR2	2	19	HERO	706	n/a	n/a	0	0	0
4657962	WORD	wordpools/wasnorm_wordpool_576.txt	LTP313	ltpFR2	2	19	ARM	38	n/a	n/a	0	0	0
4660481	WORD	wordpools/wasnorm_wordpool_576.txt	LTP313	ltpFR2	2	19	FRIEND	606	n/a	n/a	0	0	0
4663273	WORD	wordpools/wasnorm_wordpool_576.txt	LTP313	ltpFR2	2	19	SURVEY	1414	n/a	n/a	0	0	0
4664886	START	n/a	LTP313	ltpFR2	2	n/a	n/a	n/a	28	n/a	n/a	n/a	n/a
4666007	DISTRACTOR	n/a	LTP313	ltpFR2	2	19	n/a	n/a	n/a	n/a	0	0	0
4666019	PROB	n/a	LTP313	ltpFR2	2	n/a	n/a	n/a	28	15	5	9	1
4667758	PROB	n/a	LTP313	ltpFR2	2	n/a	n/a	n/a	28	17	9	6	2
4669476	PROB	n/a	LTP313	ltpFR2	2	n/a	n/a	n/a	28	17	8	2	7
4670427	PROB	n/a	LTP313	ltpFR2	2	n/a	n/a	n/a	28	20	7	5	8
4671478	PROB	n/a	LTP313	ltpFR2	2	n/a	n/a	n/a	28	20	6	6	8
4672815	PROB	n/a	LTP313	ltpFR2	2	n/a	n/a	n/a	28	17	6	5	6
4674380	PROB	n/a	LTP313	ltpFR2	2	n/a	n/a	n/a	28	17	4	7	6
4675666	PROB	n/a	LTP313	ltpFR2	2	n/a	n/a	n/a	28	12	7	1	4
4676666	PROB	n/a	LTP313	ltpFR2	2	n/a	n/a	n/a	28	14	8	3	3
4678401	PROB	n/a	LTP313	ltpFR2	2	n/a	n/a	n/a	28	19	7	8	4
4679585	PROB	n/a	LTP313	ltpFR2	2	n/a	n/a	n/a	28	15	4	8	3
4682222	PROB	n/a	LTP313	ltpFR2	2	n/a	n/a	n/a	28	20	7	7	6
4683655	PROB	n/a	LTP313	ltpFR2	2	n/a	n/a	n/a	28	12	2	5	5
4684857	PROB	n/a	LTP313	ltpFR2	2	n/a	n/a	n/a	28	8	2	3	3
4688885	STOP	n/a	LTP313	ltpFR2	2	n/a	n/a	n/a	28	n/a	n/a	n/a	n/a
4690696	REC_START	n/a	LTP313	ltpFR2	2	19	n/a	n/a	n/a	n/a	0	0	0
4694999	REC_WORD	wordpools/wasnorm_wordpool_576.txt	LTP313	ltpFR2	2	19	PASSAGE	1019	n/a	n/a	0	0	0
4696161	REC_WORD	wordpools/wasnorm_wordpool_576.txt	LTP313	ltpFR2	2	19	BLOCKADE	137	n/a	n/a	0	0	0
4697294	REC_WORD	wordpools/wasnorm_wordpool_576.txt	LTP313	ltpFR2	2	19	CREATURE	403	n/a	n/a	0	0	0
4698668	REC_WORD	wordpools/wasnorm_wordpool_576.txt	LTP313	ltpFR2	2	19	SEAL	1262	n/a	n/a	0	0	0
4701788	REC_WORD	wordpools/wasnorm_wordpool_576.txt	LTP313	ltpFR2	2	19	STOMACH	1384	n/a	n/a	0	0	0
4704003	REC_WORD	wordpools/wasnorm_wordpool_576.txt	LTP313	ltpFR2	2	19	FRIAR	605	n/a	n/a	0	0	0
4704958	REC_WORD	wordpools/wasnorm_wordpool_576.txt	LTP313	ltpFR2	2	19	GLASS	639	n/a	n/a	0	0	0
4706187	REC_WORD	wordpools/wasnorm_wordpool_576.txt	LTP313	ltpFR2	2	19	IDOL	733	n/a	n/a	0	0	0
4712550	REC_WORD	wordpools/wasnorm_wordpool_576.txt	LTP313	ltpFR2	2	19	ICING	732	n/a	n/a	0	0	0
4713750	REC_WORD	wordpools/wasnorm_wordpool_576.txt	LTP313	ltpFR2	2	19	PASTRY	1022	n/a	n/a	0	0	0
4717611	REC_WORD	wordpools/wasnorm_wordpool_576.txt	LTP313	ltpFR2	2	19	FLESH	579	n/a	n/a	0	0	0
4732171	REC_WORD	wordpools/wasnorm_wordpool_576.txt	LTP313	ltpFR2	2	19	INMATE	738	n/a	n/a	0	0	0
4735542	REC_WORD	wordpools/wasnorm_wordpool_576.txt	LTP313	ltpFR2	2	19	LOVER	846	n/a	n/a	0	0	0
4737106	REC_WORD	wordpools/wasnorm_wordpool_576.txt	LTP313	ltpFR2	2	19	FRIEND	606	n/a	n/a	0	0	0
4754711	REC_WORD	wordpools/wasnorm_wordpool_576.txt	LTP313	ltpFR2	2	19	HERO	706	n/a	n/a	0	0	0
4781152	DISTRACTOR	n/a	LTP313	ltpFR2	2	20	n/a	n/a	n/a	n/a	0	0	0
4781152	START	n/a	LTP313	ltpFR2	2	n/a	n/a	n/a	29	n/a	n/a	n/a	n/a
4781166	PROB	n/a	LTP313	ltpFR2	2	n/a	n/a	n/a	29	16	3	6	7
4783003	PROB	n/a	LTP313	ltpFR2	2	n/a	n/a	n/a	29	9	2	1	6
4784253	PROB	n/a	LTP313	ltpFR2	2	n/a	n/a	n/a	29	23	8	7	8
4785688	PROB	n/a	LTP313	ltpFR2	2	n/a	n/a	n/a	29	16	9	6	1
4787222	PROB	n/a	LTP313	ltpFR2	2	n/a	n/a	n/a	29	13	3	2	8
4788639	PROB	n/a	LTP313	ltpFR2	2	n/a	n/a	n/a	29	15	2	5	8
4789757	PROB	n/a	LTP313	ltpFR2	2	n/a	n/a	n/a	29	17	5	5	7
4790942	PROB	n/a	LTP313	ltpFR2	2	n/a	n/a	n/a	29	15	3	8	4
4792360	PROB	n/a	LTP313	ltpFR2	2	n/a	n/a	n/a	29	19	5	8	6
4793829	PROB	n/a	LTP313	ltpFR2	2	n/a	n/a	n/a	29	15	3	6	6
4795278	PROB	n/a	LTP313	ltpFR2	2	n/a	n/a	n/a	29	10	5	1	4
4796430	PROB	n/a	LTP313	ltpFR2	2	n/a	n/a	n/a	29	21	5	7	9
4797663	PROB	n/a	LTP313	ltpFR2	2	n/a	n/a	n/a	29	17	6	8	3
4799350	PROB	n/a	LTP313	ltpFR2	2	n/a	n/a	n/a	29	13	2	3	8
4800415	PROB	n/a	LTP313	ltpFR2	2	n/a	n/a	n/a	29	13	3	9	1
4801868	PROB	n/a	LTP313	ltpFR2	2	n/a	n/a	n/a	29	13	9	2	2
