onset	duration	trial_type	sample	stim_file	subject	experiment	session	trial	task	item_name	item_num	recog_resp	recog_conf	resp	color_r	color_g	color_b	case	font
337.424	n/a	SESS_START	168712	n/a	LTP247	ltpFR	4	n/a	n/a	n/a	n/a	1	3	n/a	n/a	n/a	n/a	n/a	n/a
398.026	n/a	WORD	199013	wordpools/wasnorm_wordpool_less_exclusions.txt	LTP247	ltpFR	4	1	1	BRAKE	166	1	n/a	0	0.422607421875	0.5869140625	0	lower	amplitud.ttf
401.988	n/a	WORD	200994	wordpools/wasnorm_wordpool_less_exclusions.txt	LTP247	ltpFR	4	1	1	DISC	473	n/a	n/a	0	0.422607421875	0.5869140625	0	lower	amplitud.ttf
405.932	n/a	WORD	202966	wordpools/wasnorm_wordpool_less_exclusions.txt	LTP247	ltpFR	4	1	1	SHEPHERD	1283	n/a	n/a	1	0.422607421875	0.5869140625	0	lower	amplitud.ttf
409.958	n/a	WORD	204979	wordpools/wasnorm_wordpool_less_exclusions.txt	LTP247	ltpFR	4	1	1	WOLF	1619	n/a	n/a	1	0.422607421875	0.5869140625	0	lower	amplitud.ttf
413.952	n/a	WORD	206976	wordpools/wasnorm_wordpool_less_exclusions.txt	LTP247	ltpFR	4	1	0	LADY	794	n/a	n/a	1	0.57763671875	0.412841796875	1	upper	zerothre.ttf
417.832	n/a	WORD	208916	wordpools/wasnorm_wordpool_less_exclusions.txt	LTP247	ltpFR	4	1	0	PENGUIN	1044	n/a	n/a	1	0.57763671875	0.412841796875	1	upper	zerothre.ttf
421.99	n/a	WORD	210995	wordpools/wasnorm_wordpool_less_exclusions.txt	LTP247	ltpFR	4	1	1	BALL	73	n/a	n/a	0	0.422607421875	0.5869140625	0	lower	amplitud.ttf
425.902	n/a	WORD	212951	wordpools/wasnorm_wordpool_less_exclusions.txt	LTP247	ltpFR	4	1	1	SHIRT	1287	n/a	n/a	0	0.422607421875	0.5869140625	0	lower	amplitud.ttf
429.78	n/a	WORD	214890	wordpools/wasnorm_wordpool_less_exclusions.txt	LTP247	ltpFR	4	1	1	SHORTS	1293	n/a	n/a	0	0.422607421875	0.5869140625	0	lower	amplitud.ttf
433.792	n/a	WORD	216896	wordpools/wasnorm_wordpool_less_exclusions.txt	LTP247	ltpFR	4	1	1	VIOLA	1570	n/a	n/a	0	0.422607421875	0.5869140625	0	lower	amplitud.ttf
437.736	n/a	WORD	218868	wordpools/wasnorm_wordpool_less_exclusions.txt	LTP247	ltpFR	4	1	0	SEAL	1262	n/a	n/a	1	0.57763671875	0.412841796875	1	upper	zerothre.ttf
441.912	n/a	WORD	220956	wordpools/wasnorm_wordpool_less_exclusions.txt	LTP247	ltpFR	4	1	0	CHESS	294	n/a	n/a	0	0.57763671875	0.412841796875	1	upper	zerothre.ttf
445.906	n/a	WORD	222953	wordpools/wasnorm_wordpool_less_exclusions.txt	LTP247	ltpFR	4	1	0	NOVEL	960	n/a	n/a	0	0.57763671875	0.412841796875	1	upper	zerothre.ttf
450.116	n/a	WORD	225058	wordpools/wasnorm_wordpool_less_exclusions.txt	LTP247	ltpFR	4	1	0	MAGAZINE	853	n/a	n/a	0	0.57763671875	0.412841796875	1	upper	zerothre.ttf
454.126	n/a	WORD	227063	wordpools/wasnorm_wordpool_less_exclusions.txt	LTP247	ltpFR	4	1	0	DRIVEWAY	500	n/a	n/a	1	0.57763671875	0.412841796875	1	upper	zerothre.ttf
458.288	n/a	WORD	229144	wordpools/wasnorm_wordpool_less_exclusions.txt	LTP247	ltpFR	4	1	0	TROMBONE	1508	n/a	n/a	1	0.57763671875	0.412841796875	1	upper	zerothre.ttf
464.08	n/a	REC_START	232040	n/a	LTP247	ltpFR	4	1	n/a	n/a	n/a	n/a	n/a	n/a	n/a	n/a	n/a	n/a	n/a
464.788	n/a	REC_WORD	232394	wordpools/wasnorm_wordpool_less_exclusions.txt	LTP247	ltpFR	4	1	0	TROMBONE	1508	n/a	n/a	1	n/a	n/a	n/a	n/a	n/a
465.716	n/a	REC_WORD	232858	wordpools/wasnorm_wordpool_less_exclusions.txt	LTP247	ltpFR	4	1	0	DRIVEWAY	500	n/a	n/a	1	n/a	n/a	n/a	n/a	n/a
466.788	n/a	REC_WORD	233394	wordpools/wasnorm_wordpool_less_exclusions.txt	LTP247	ltpFR	4	1	0	MAGAZINE	853	n/a	n/a	0	n/a	n/a	n/a	n/a	n/a
468.07	n/a	REC_WORD	234035	wordpools/wasnorm_wordpool_less_exclusions.txt	LTP247	ltpFR	4	1	0	NOVEL	960	n/a	n/a	0	n/a	n/a	n/a	n/a	n/a
469.198	n/a	REC_WORD	234599	wordpools/wasnorm_wordpool_less_exclusions.txt	LTP247	ltpFR	4	1	0	SEAL	1262	n/a	n/a	1	n/a	n/a	n/a	n/a	n/a
470.326	n/a	REC_WORD	235163	wordpools/wasnorm_wordpool_less_exclusions.txt	LTP247	ltpFR	4	1	1	SHIRT	1287	n/a	n/a	0	n/a	n/a	n/a	n/a	n/a
471.348	n/a	REC_WORD	235674	wordpools/wasnorm_wordpool_less_exclusions.txt	LTP247	ltpFR	4	1	1	SHORTS	1293	n/a	n/a	0	n/a	n/a	n/a	n/a	n/a
472.546	n/a	REC_WORD	236273	wordpools/wasnorm_wordpool_less_exclusions.txt	LTP247	ltpFR	4	1	1	BALL	73	n/a	n/a	0	n/a	n/a	n/a	n/a	n/a
473.702	n/a	REC_WORD	236851	wordpools/wasnorm_wordpool_less_exclusions.txt	LTP247	ltpFR	4	1	0	LADY	794	n/a	n/a	1	n/a	n/a	n/a	n/a	n/a
474.94	n/a	REC_WORD	237470	wordpools/wasnorm_wordpool_less_exclusions.txt	LTP247	ltpFR	4	1	0	PENGUIN	1044	n/a	n/a	1	n/a	n/a	n/a	n/a	n/a
476.236	n/a	REC_WORD	238118	wordpools/wasnorm_wordpool_less_exclusions.txt	LTP247	ltpFR	4	1	1	BRAKE	166	n/a	n/a	0	n/a	n/a	n/a	n/a	n/a
477.478	n/a	REC_WORD	238739	wordpools/wasnorm_wordpool_less_exclusions.txt	LTP247	ltpFR	4	1	1	DISC	473	n/a	n/a	0	n/a	n/a	n/a	n/a	n/a
511.698	n/a	REC_WORD	255849	wordpools/wasnorm_wordpool_less_exclusions.txt	LTP247	ltpFR	4	1	1	SHEPHERD	1283	n/a	n/a	1	n/a	n/a	n/a	n/a	n/a
512.784	n/a	REC_WORD	256392	wordpools/wasnorm_wordpool_less_exclusions.txt	LTP247	ltpFR	4	1	1	WOLF	1619	n/a	n/a	1	n/a	n/a	n/a	n/a	n/a
555.678	n/a	WORD	277839	wordpools/wasnorm_wordpool_less_exclusions.txt	LTP247	ltpFR	4	2	0	PELICAN	1039	n/a	n/a	1	0.57763671875	0.412841796875	1	upper	zerothre.ttf
559.804	n/a	WORD	279902	wordpools/wasnorm_wordpool_less_exclusions.txt	LTP247	ltpFR	4	2	0	SPHINX	1349	n/a	n/a	1	0.57763671875	0.412841796875	1	upper	zerothre.ttf
563.882	n/a	WORD	281941	wordpools/wasnorm_wordpool_less_exclusions.txt	LTP247	ltpFR	4	2	1	NERVE	944	n/a	n/a	0	0.422607421875	0.5869140625	0	lower	amplitud.ttf
567.942	n/a	WORD	283971	wordpools/wasnorm_wordpool_less_exclusions.txt	LTP247	ltpFR	4	2	1	POLYESTER	1100	n/a	n/a	0	0.422607421875	0.5869140625	0	lower	amplitud.ttf
571.786	n/a	WORD	285893	wordpools/wasnorm_wordpool_less_exclusions.txt	LTP247	ltpFR	4	2	1	WASHER	1592	n/a	n/a	0	0.422607421875	0.5869140625	0	lower	amplitud.ttf
575.648	n/a	WORD	287824	wordpools/wasnorm_wordpool_less_exclusions.txt	LTP247	ltpFR	4	2	1	FRAME	600	n/a	n/a	0	0.422607421875	0.5869140625	0	lower	amplitud.ttf
579.592	n/a	WORD	289796	wordpools/wasnorm_wordpool_less_exclusions.txt	LTP247	ltpFR	4	2	1	CAMERA	224	n/a	n/a	0	0.422607421875	0.5869140625	0	lower	amplitud.ttf
583.804	n/a	WORD	291902	wordpools/wasnorm_wordpool_less_exclusions.txt	LTP247	ltpFR	4	2	1	NUCLEUS	961	n/a	n/a	0	0.422607421875	0.5869140625	0	lower	amplitud.ttf
587.864	n/a	WORD	293932	wordpools/wasnorm_wordpool_less_exclusions.txt	LTP247	ltpFR	4	2	0	WORKER	1621	n/a	n/a	1	0.57763671875	0.412841796875	1	upper	zerothre.ttf
591.94	n/a	WORD	295970	wordpools/wasnorm_wordpool_less_exclusions.txt	LTP247	ltpFR	4	2	0	BUYER	208	n/a	n/a	1	0.57763671875	0.412841796875	1	upper	zerothre.ttf
595.818	n/a	WORD	297909	wordpools/wasnorm_wordpool_less_exclusions.txt	LTP247	ltpFR	4	2	1	MAID	856	n/a	n/a	1	0.422607421875	0.5869140625	0	lower	amplitud.ttf
599.962	n/a	WORD	299981	wordpools/wasnorm_wordpool_less_exclusions.txt	LTP247	ltpFR	4	2	1	SANDWICH	1232	n/a	n/a	0	0.422607421875	0.5869140625	0	lower	amplitud.ttf
604.122	n/a	WORD	302061	wordpools/wasnorm_wordpool_less_exclusions.txt	LTP247	ltpFR	4	2	0	HERO	706	n/a	n/a	1	0.57763671875	0.412841796875	1	upper	zerothre.ttf
608.0	n/a	WORD	304000	wordpools/wasnorm_wordpool_less_exclusions.txt	LTP247	ltpFR	4	2	0	BUTLER	204	n/a	n/a	1	0.57763671875	0.412841796875	1	upper	zerothre.ttf
612.044	n/a	WORD	306022	wordpools/wasnorm_wordpool_less_exclusions.txt	LTP247	ltpFR	4	2	0	DICTATOR	462	n/a	n/a	1	0.57763671875	0.412841796875	1	upper	zerothre.ttf
615.922	n/a	WORD	307961	wordpools/wasnorm_wordpool_less_exclusions.txt	LTP247	ltpFR	4	2	0	PUDDING	1139	n/a	n/a	0	0.57763671875	0.412841796875	1	upper	zerothre.ttf
621.83	n/a	REC_START	310915	n/a	LTP247	ltpFR	4	2	n/a	n/a	n/a	n/a	n/a	n/a	n/a	n/a	n/a	n/a	n/a
622.444	n/a	REC_WORD	311222	wordpools/wasnorm_wordpool_less_exclusions.txt	LTP247	ltpFR	4	2	0	PUDDING	1139	n/a	n/a	0	n/a	n/a	n/a	n/a	n/a
624.19	n/a	REC_WORD	312095	wordpools/wasnorm_wordpool_less_exclusions.txt	LTP247	ltpFR	4	2	0	BUTLER	204	n/a	n/a	1	n/a	n/a	n/a	n/a	n/a
625.564	n/a	REC_WORD	312782	wordpools/wasnorm_wordpool_less_exclusions.txt	LTP247	ltpFR	4	2	0	DICTATOR	462	n/a	n/a	1	n/a	n/a	n/a	n/a	n/a
626.968	n/a	REC_WORD	313484	wordpools/wasnorm_wordpool_less_exclusions.txt	LTP247	ltpFR	4	2	0	WORKER	1621	n/a	n/a	1	n/a	n/a	n/a	n/a	n/a
628.15	n/a	REC_WORD	314075	wordpools/wasnorm_wordpool_less_exclusions.txt	LTP247	ltpFR	4	2	1	MAID	856	n/a	n/a	1	n/a	n/a	n/a	n/a	n/a
629.314	n/a	REC_WORD	314657	wordpools/wasnorm_wordpool_less_exclusions.txt	LTP247	ltpFR	4	2	0	SPHINX	1349	n/a	n/a	1	n/a	n/a	n/a	n/a	n/a
631.594	n/a	REC_WORD	315797	wordpools/wasnorm_wordpool_less_exclusions.txt	LTP247	ltpFR	4	2	0	PELICAN	1039	n/a	n/a	1	n/a	n/a	n/a	n/a	n/a
633.07	n/a	REC_WORD	316535	wordpools/wasnorm_wordpool_less_exclusions.txt	LTP247	ltpFR	4	2	1	POLYESTER	1100	n/a	n/a	0	n/a	n/a	n/a	n/a	n/a
634.62	n/a	REC_WORD	317310	wordpools/wasnorm_wordpool_less_exclusions.txt	LTP247	ltpFR	4	2	1	FRAME	600	n/a	n/a	0	n/a	n/a	n/a	n/a	n/a
636.228	n/a	REC_WORD	318114	wordpools/wasnorm_wordpool_less_exclusions.txt	LTP247	ltpFR	4	2	1	CAMERA	224	n/a	n/a	0	n/a	n/a	n/a	n/a	n/a
703.692	n/a	WORD	351846	wordpools/wasnorm_wordpool_less_exclusions.txt	LTP247	ltpFR	4	3	1	UMPIRE	1535	n/a	n/a	1	0.422607421875	0.5869140625	0	lower	amplitud.ttf
707.618	n/a	WORD	353809	wordpools/wasnorm_wordpool_less_exclusions.txt	LTP247	ltpFR	4	3	1	REFEREE	1178	n/a	n/a	1	0.422607421875	0.5869140625	0	lower	amplitud.ttf
711.762	n/a	WORD	355881	wordpools/wasnorm_wordpool_less_exclusions.txt	LTP247	ltpFR	4	3	1	BOULDER	155	n/a	n/a	0	0.422607421875	0.5869140625	0	lower	amplitud.ttf
715.972	n/a	WORD	357986	wordpools/wasnorm_wordpool_less_exclusions.txt	LTP247	ltpFR	4	3	1	KIDNEY	776	n/a	n/a	0	0.422607421875	0.5869140625	0	lower	amplitud.ttf
720.1	n/a	WORD	360050	wordpools/wasnorm_wordpool_less_exclusions.txt	LTP247	ltpFR	4	3	1	WHEAT	1602	n/a	n/a	0	0.422607421875	0.5869140625	0	lower	amplitud.ttf
724.094	n/a	WORD	362047	wordpools/wasnorm_wordpool_less_exclusions.txt	LTP247	ltpFR	4	3	1	CANVAS	234	n/a	n/a	0	0.422607421875	0.5869140625	0	lower	amplitud.ttf
728.156	n/a	WORD	364078	wordpools/wasnorm_wordpool_less_exclusions.txt	LTP247	ltpFR	4	3	1	CROCODILE	411	n/a	n/a	1	0.422607421875	0.5869140625	0	lower	amplitud.ttf
732.0	n/a	WORD	366000	wordpools/wasnorm_wordpool_less_exclusions.txt	LTP247	ltpFR	4	3	1	DOLLAR	482	n/a	n/a	0	0.422607421875	0.5869140625	0	lower	amplitud.ttf
735.894	n/a	WORD	367947	wordpools/wasnorm_wordpool_less_exclusions.txt	LTP247	ltpFR	4	3	1	STORE	1387	n/a	n/a	0	0.422607421875	0.5869140625	0	lower	amplitud.ttf
739.788	n/a	WORD	369894	wordpools/wasnorm_wordpool_less_exclusions.txt	LTP247	ltpFR	4	3	1	CONSOLE	364	n/a	n/a	0	0.422607421875	0.5869140625	0	lower	amplitud.ttf
743.832	n/a	WORD	371916	wordpools/wasnorm_wordpool_less_exclusions.txt	LTP247	ltpFR	4	3	1	ELECTRICIAN	521	n/a	n/a	1	0.422607421875	0.5869140625	0	lower	amplitud.ttf
747.744	n/a	WORD	373872	wordpools/wasnorm_wordpool_less_exclusions.txt	LTP247	ltpFR	4	3	1	GAZELLE	628	n/a	n/a	1	0.422607421875	0.5869140625	0	lower	amplitud.ttf
751.936	n/a	WORD	375968	wordpools/wasnorm_wordpool_less_exclusions.txt	LTP247	ltpFR	4	3	1	BOOTH	151	n/a	n/a	0	0.422607421875	0.5869140625	0	lower	amplitud.ttf
755.882	n/a	WORD	377941	wordpools/wasnorm_wordpool_less_exclusions.txt	LTP247	ltpFR	4	3	1	MARINE	869	n/a	n/a	1	0.422607421875	0.5869140625	0	lower	amplitud.ttf
759.942	n/a	WORD	379971	wordpools/wasnorm_wordpool_less_exclusions.txt	LTP247	ltpFR	4	3	1	BOOT	150	n/a	n/a	0	0.422607421875	0.5869140625	0	lower	amplitud.ttf
763.968	n/a	WORD	381984	wordpools/wasnorm_wordpool_less_exclusions.txt	LTP247	ltpFR	4	3	1	WIRE	1616	n/a	n/a	0	0.422607421875	0.5869140625	0	lower	amplitud.ttf
770.094	n/a	REC_START	385047	n/a	LTP247	ltpFR	4	3	n/a	n/a	n/a	n/a	n/a	n/a	n/a	n/a	n/a	n/a	n/a
771.012	n/a	REC_WORD	385506	wordpools/wasnorm_wordpool_less_exclusions.txt	LTP247	ltpFR	4	3	1	WIRE	1616	n/a	n/a	0	n/a	n/a	n/a	n/a	n/a
771.87	n/a	REC_WORD	385935	wordpools/wasnorm_wordpool_less_exclusions.txt	LTP247	ltpFR	4	3	1	BOOT	150	n/a	n/a	0	n/a	n/a	n/a	n/a	n/a
772.558	n/a	REC_WORD_VV	386279	wordpools/wasnorm_wordpool_less_exclusions.txt	LTP247	ltpFR	4	3	n/a	<>	-1	n/a	n/a	n/a	n/a	n/a	n/a	n/a	n/a
773.126	n/a	REC_WORD	386563	wordpools/wasnorm_wordpool_less_exclusions.txt	LTP247	ltpFR	4	3	1	BOOT	150	n/a	n/a	0	n/a	n/a	n/a	n/a	n/a
773.88	n/a	REC_WORD	386940	wordpools/wasnorm_wordpool_less_exclusions.txt	LTP247	ltpFR	4	3	1	MARINE	869	n/a	n/a	1	n/a	n/a	n/a	n/a	n/a
774.972	n/a	REC_WORD	387486	wordpools/wasnorm_wordpool_less_exclusions.txt	LTP247	ltpFR	4	3	1	BOOTH	151	n/a	n/a	0	n/a	n/a	n/a	n/a	n/a
775.94	n/a	REC_WORD	387970	wordpools/wasnorm_wordpool_less_exclusions.txt	LTP247	ltpFR	4	3	1	GAZELLE	628	n/a	n/a	1	n/a	n/a	n/a	n/a	n/a
777.84	n/a	REC_WORD	388920	wordpools/wasnorm_wordpool_less_exclusions.txt	LTP247	ltpFR	4	3	1	UMPIRE	1535	n/a	n/a	1	n/a	n/a	n/a	n/a	n/a
779.222	n/a	REC_WORD	389611	wordpools/wasnorm_wordpool_less_exclusions.txt	LTP247	ltpFR	4	3	1	REFEREE	1178	n/a	n/a	1	n/a	n/a	n/a	n/a	n/a
781.508	n/a	REC_WORD	390754	wordpools/wasnorm_wordpool_less_exclusions.txt	LTP247	ltpFR	4	3	1	CROCODILE	411	n/a	n/a	1	n/a	n/a	n/a	n/a	n/a
782.934	n/a	REC_WORD	391467	wordpools/wasnorm_wordpool_less_exclusions.txt	LTP247	ltpFR	4	3	1	DOLLAR	482	n/a	n/a	0	n/a	n/a	n/a	n/a	n/a
783.932	n/a	REC_WORD	391966	wordpools/wasnorm_wordpool_less_exclusions.txt	LTP247	ltpFR	4	3	1	STORE	1387	n/a	n/a	0	n/a	n/a	n/a	n/a	n/a
785.384	n/a	REC_WORD	392692	wordpools/wasnorm_wordpool_less_exclusions.txt	LTP247	ltpFR	4	3	1	WHEAT	1602	n/a	n/a	0	n/a	n/a	n/a	n/a	n/a
790.338	n/a	REC_WORD	395169	wordpools/wasnorm_wordpool_less_exclusions.txt	LTP247	ltpFR	4	3	1	ELECTRICIAN	521	n/a	n/a	1	n/a	n/a	n/a	n/a	n/a
851.206	n/a	WORD	425603	wordpools/wasnorm_wordpool_less_exclusions.txt	LTP247	ltpFR	4	4	1	WAIST	1579	n/a	n/a	0	0.422607421875	0.5869140625	0	lower	amplitud.ttf
855.332	n/a	WORD	427666	wordpools/wasnorm_wordpool_less_exclusions.txt	LTP247	ltpFR	4	4	1	PUBLISHER	1137	n/a	n/a	1	0.422607421875	0.5869140625	0	lower	amplitud.ttf
859.426	n/a	WORD	429713	wordpools/wasnorm_wordpool_less_exclusions.txt	LTP247	ltpFR	4	4	1	PARROT	1015	n/a	n/a	1	0.422607421875	0.5869140625	0	lower	amplitud.ttf
863.304	n/a	WORD	431652	wordpools/wasnorm_wordpool_less_exclusions.txt	LTP247	ltpFR	4	4	1	FLASHLIGHT	575	n/a	n/a	0	0.422607421875	0.5869140625	0	lower	amplitud.ttf
867.366	n/a	WORD	433683	wordpools/wasnorm_wordpool_less_exclusions.txt	LTP247	ltpFR	4	4	0	LIMB	822	n/a	n/a	1	0.57763671875	0.412841796875	1	upper	zerothre.ttf
871.194	n/a	WORD	435597	wordpools/wasnorm_wordpool_less_exclusions.txt	LTP247	ltpFR	4	4	0	SAP	1233	n/a	n/a	0	0.57763671875	0.412841796875	1	upper	zerothre.ttf
875.37	n/a	WORD	437685	wordpools/wasnorm_wordpool_less_exclusions.txt	LTP247	ltpFR	4	4	0	FENCE	560	n/a	n/a	1	0.57763671875	0.412841796875	1	upper	zerothre.ttf
879.548	n/a	WORD	439774	wordpools/wasnorm_wordpool_less_exclusions.txt	LTP247	ltpFR	4	4	0	MAILMAN	858	n/a	n/a	1	0.57763671875	0.412841796875	1	upper	zerothre.ttf
883.508	n/a	WORD	441754	wordpools/wasnorm_wordpool_less_exclusions.txt	LTP247	ltpFR	4	4	1	VEGETABLE	1552	n/a	n/a	0	0.422607421875	0.5869140625	0	lower	amplitud.ttf
887.436	n/a	WORD	443718	wordpools/wasnorm_wordpool_less_exclusions.txt	LTP247	ltpFR	4	4	1	CROW	414	n/a	n/a	1	0.422607421875	0.5869140625	0	lower	amplitud.ttf
891.664	n/a	WORD	445832	wordpools/wasnorm_wordpool_less_exclusions.txt	LTP247	ltpFR	4	4	1	DASHBOARD	441	n/a	n/a	0	0.422607421875	0.5869140625	0	lower	amplitud.ttf
895.64	n/a	WORD	447820	wordpools/wasnorm_wordpool_less_exclusions.txt	LTP247	ltpFR	4	4	1	MEDAL	885	n/a	n/a	0	0.422607421875	0.5869140625	0	lower	amplitud.ttf
899.818	n/a	WORD	449909	wordpools/wasnorm_wordpool_less_exclusions.txt	LTP247	ltpFR	4	4	0	CRAB	397	n/a	n/a	0	0.57763671875	0.412841796875	1	upper	zerothre.ttf
903.978	n/a	WORD	451989	wordpools/wasnorm_wordpool_less_exclusions.txt	LTP247	ltpFR	4	4	0	SCALLOP	1242	n/a	n/a	0	0.57763671875	0.412841796875	1	upper	zerothre.ttf
907.806	n/a	WORD	453903	wordpools/wasnorm_wordpool_less_exclusions.txt	LTP247	ltpFR	4	4	0	BEAN	105	n/a	n/a	0	0.57763671875	0.412841796875	1	upper	zerothre.ttf
911.982	n/a	WORD	455991	wordpools/wasnorm_wordpool_less_exclusions.txt	LTP247	ltpFR	4	4	0	TICKET	1464	n/a	n/a	0	0.57763671875	0.412841796875	1	upper	zerothre.ttf
917.958	n/a	REC_START	458979	n/a	LTP247	ltpFR	4	4	n/a	n/a	n/a	n/a	n/a	n/a	n/a	n/a	n/a	n/a	n/a
920.332	n/a	REC_WORD	460166	wordpools/wasnorm_wordpool_less_exclusions.txt	LTP247	ltpFR	4	4	0	TICKET	1464	n/a	n/a	0	n/a	n/a	n/a	n/a	n/a
921.404	n/a	REC_WORD	460702	wordpools/wasnorm_wordpool_less_exclusions.txt	LTP247	ltpFR	4	4	0	SCALLOP	1242	n/a	n/a	0	n/a	n/a	n/a	n/a	n/a
922.656	n/a	REC_WORD	461328	wordpools/wasnorm_wordpool_less_exclusions.txt	LTP247	ltpFR	4	4	0	CRAB	397	n/a	n/a	0	n/a	n/a	n/a	n/a	n/a
924.432	n/a	REC_WORD	462216	wordpools/wasnorm_wordpool_less_exclusions.txt	LTP247	ltpFR	4	4	1	PARROT	1015	n/a	n/a	1	n/a	n/a	n/a	n/a	n/a
925.546	n/a	REC_WORD	462773	wordpools/wasnorm_wordpool_less_exclusions.txt	LTP247	ltpFR	4	4	1	WAIST	1579	n/a	n/a	0	n/a	n/a	n/a	n/a	n/a
926.726	n/a	REC_WORD	463363	wordpools/wasnorm_wordpool_less_exclusions.txt	LTP247	ltpFR	4	4	0	MAILMAN	858	n/a	n/a	1	n/a	n/a	n/a	n/a	n/a
927.884	n/a	REC_WORD	463942	wordpools/wasnorm_wordpool_less_exclusions.txt	LTP247	ltpFR	4	4	1	DASHBOARD	441	n/a	n/a	0	n/a	n/a	n/a	n/a	n/a
936.4	n/a	REC_WORD	468200	wordpools/wasnorm_wordpool_less_exclusions.txt	LTP247	ltpFR	4	4	0	BEAN	105	n/a	n/a	0	n/a	n/a	n/a	n/a	n/a
1004.428	n/a	WORD	502214	wordpools/wasnorm_wordpool_less_exclusions.txt	LTP247	ltpFR	4	5	0	SKATE	1313	n/a	n/a	1	0.57763671875	0.412841796875	1	upper	zerothre.ttf
1008.422	n/a	WORD	504211	wordpools/wasnorm_wordpool_less_exclusions.txt	LTP247	ltpFR	4	5	0	CANDY	230	n/a	n/a	0	0.57763671875	0.412841796875	1	upper	zerothre.ttf
1012.268	n/a	WORD	506134	wordpools/wasnorm_wordpool_less_exclusions.txt	LTP247	ltpFR	4	5	0	TART	1436	n/a	n/a	0	0.57763671875	0.412841796875	1	upper	zerothre.ttf
1016.096	n/a	WORD	508048	wordpools/wasnorm_wordpool_less_exclusions.txt	LTP247	ltpFR	4	5	0	BOAT	144	n/a	n/a	1	0.57763671875	0.412841796875	1	upper	zerothre.ttf
1019.974	n/a	WORD	509987	wordpools/wasnorm_wordpool_less_exclusions.txt	LTP247	ltpFR	4	5	0	CALF	222	n/a	n/a	1	0.57763671875	0.412841796875	1	upper	zerothre.ttf
1023.918	n/a	WORD	511959	wordpools/wasnorm_wordpool_less_exclusions.txt	LTP247	ltpFR	4	5	0	SILVERWARE	1308	n/a	n/a	0	0.57763671875	0.412841796875	1	upper	zerothre.ttf
1027.862	n/a	WORD	513931	wordpools/wasnorm_wordpool_less_exclusions.txt	LTP247	ltpFR	4	5	0	EUROPE	541	n/a	n/a	1	0.57763671875	0.412841796875	1	upper	zerothre.ttf
1031.69	n/a	WORD	515845	wordpools/wasnorm_wordpool_less_exclusions.txt	LTP247	ltpFR	4	5	0	CONTINENT	367	n/a	n/a	1	0.57763671875	0.412841796875	1	upper	zerothre.ttf
1035.734	n/a	WORD	517867	wordpools/wasnorm_wordpool_less_exclusions.txt	LTP247	ltpFR	4	5	0	RUNNER	1218	n/a	n/a	1	0.57763671875	0.412841796875	1	upper	zerothre.ttf
1039.628	n/a	WORD	519814	wordpools/wasnorm_wordpool_less_exclusions.txt	LTP247	ltpFR	4	5	0	EARRING	514	n/a	n/a	0	0.57763671875	0.412841796875	1	upper	zerothre.ttf
1043.538	n/a	WORD	521769	wordpools/wasnorm_wordpool_less_exclusions.txt	LTP247	ltpFR	4	5	0	HOOP	716	n/a	n/a	0	0.57763671875	0.412841796875	1	upper	zerothre.ttf
1047.65	n/a	WORD	523825	wordpools/wasnorm_wordpool_less_exclusions.txt	LTP247	ltpFR	4	5	0	BALLERINA	74	n/a	n/a	1	0.57763671875	0.412841796875	1	upper	zerothre.ttf
1051.744	n/a	WORD	525872	wordpools/wasnorm_wordpool_less_exclusions.txt	LTP247	ltpFR	4	5	0	PROTON	1132	n/a	n/a	0	0.57763671875	0.412841796875	1	upper	zerothre.ttf
1055.838	n/a	WORD	527919	wordpools/wasnorm_wordpool_less_exclusions.txt	LTP247	ltpFR	4	5	0	RECIPE	1175	n/a	n/a	0	0.57763671875	0.412841796875	1	upper	zerothre.ttf
1059.732	n/a	WORD	529866	wordpools/wasnorm_wordpool_less_exclusions.txt	LTP247	ltpFR	4	5	0	BULL	193	n/a	n/a	1	0.57763671875	0.412841796875	1	upper	zerothre.ttf
1063.574	n/a	WORD	531787	wordpools/wasnorm_wordpool_less_exclusions.txt	LTP247	ltpFR	4	5	0	HIKER	708	n/a	n/a	1	0.57763671875	0.412841796875	1	upper	zerothre.ttf
1069.55	n/a	REC_START	534775	n/a	LTP247	ltpFR	4	5	n/a	n/a	n/a	n/a	n/a	n/a	n/a	n/a	n/a	n/a	n/a
1070.158	n/a	REC_WORD	535079	wordpools/wasnorm_wordpool_less_exclusions.txt	LTP247	ltpFR	4	5	0	HIKER	708	n/a	n/a	1	n/a	n/a	n/a	n/a	n/a
1070.866	n/a	REC_WORD	535433	wordpools/wasnorm_wordpool_less_exclusions.txt	LTP247	ltpFR	4	5	0	RUNNER	1218	n/a	n/a	1	n/a	n/a	n/a	n/a	n/a
1071.724	n/a	REC_WORD	535862	wordpools/wasnorm_wordpool_less_exclusions.txt	LTP247	ltpFR	4	5	0	BULL	193	n/a	n/a	1	n/a	n/a	n/a	n/a	n/a
1072.528	n/a	REC_WORD	536264	wordpools/wasnorm_wordpool_less_exclusions.txt	LTP247	ltpFR	4	5	0	CALF	222	n/a	n/a	1	n/a	n/a	n/a	n/a	n/a
1073.914	n/a	REC_WORD	536957	wordpools/wasnorm_wordpool_less_exclusions.txt	LTP247	ltpFR	4	5	0	BALLERINA	74	n/a	n/a	1	n/a	n/a	n/a	n/a	n/a
1075.156	n/a	REC_WORD	537578	wordpools/wasnorm_wordpool_less_exclusions.txt	LTP247	ltpFR	4	5	0	EARRING	514	n/a	n/a	0	n/a	n/a	n/a	n/a	n/a
1076.134	n/a	REC_WORD	538067	wordpools/wasnorm_wordpool_less_exclusions.txt	LTP247	ltpFR	4	5	0	HOOP	716	n/a	n/a	0	n/a	n/a	n/a	n/a	n/a
1077.312	n/a	REC_WORD	538656	wordpools/wasnorm_wordpool_less_exclusions.txt	LTP247	ltpFR	4	5	0	EUROPE	541	n/a	n/a	1	n/a	n/a	n/a	n/a	n/a
1078.344	n/a	REC_WORD	539172	wordpools/wasnorm_wordpool_less_exclusions.txt	LTP247	ltpFR	4	5	0	CONTINENT	367	n/a	n/a	1	n/a	n/a	n/a	n/a	n/a
1079.442	n/a	REC_WORD	539721	wordpools/wasnorm_wordpool_less_exclusions.txt	LTP247	ltpFR	4	5	0	BOAT	144	n/a	n/a	1	n/a	n/a	n/a	n/a	n/a
1083.264	n/a	REC_WORD	541632	wordpools/wasnorm_wordpool_less_exclusions.txt	LTP247	ltpFR	4	5	0	RECIPE	1175	n/a	n/a	0	n/a	n/a	n/a	n/a	n/a
1159.634	n/a	WORD	579817	wordpools/wasnorm_wordpool_less_exclusions.txt	LTP247	ltpFR	4	6	1	SHRUB	1299	n/a	n/a	1	0.422607421875	0.5869140625	0	lower	amplitud.ttf
1163.662	n/a	WORD	581831	wordpools/wasnorm_wordpool_less_exclusions.txt	LTP247	ltpFR	4	6	1	LAWN	805	n/a	n/a	1	0.422607421875	0.5869140625	0	lower	amplitud.ttf
1167.788	n/a	WORD	583894	wordpools/wasnorm_wordpool_less_exclusions.txt	LTP247	ltpFR	4	6	1	VACUUM	1543	n/a	n/a	0	0.422607421875	0.5869140625	0	lower	amplitud.ttf
1171.684	n/a	WORD	585842	wordpools/wasnorm_wordpool_less_exclusions.txt	LTP247	ltpFR	4	6	0	BUGGY	188	n/a	n/a	1	0.57763671875	0.412841796875	1	upper	zerothre.ttf
1175.826	n/a	WORD	587913	wordpools/wasnorm_wordpool_less_exclusions.txt	LTP247	ltpFR	4	6	0	ACTRESS	6	n/a	n/a	1	0.57763671875	0.412841796875	1	upper	zerothre.ttf
1179.688	n/a	WORD	589844	wordpools/wasnorm_wordpool_less_exclusions.txt	LTP247	ltpFR	4	6	0	DUST	508	n/a	n/a	0	0.57763671875	0.412841796875	1	upper	zerothre.ttf
1183.514	n/a	WORD	591757	wordpools/wasnorm_wordpool_less_exclusions.txt	LTP247	ltpFR	4	6	0	JEEP	753	n/a	n/a	1	0.57763671875	0.412841796875	1	upper	zerothre.ttf
1187.542	n/a	WORD	593771	wordpools/wasnorm_wordpool_less_exclusions.txt	LTP247	ltpFR	4	6	1	MECHANIC	884	n/a	n/a	1	0.422607421875	0.5869140625	0	lower	amplitud.ttf
1191.77	n/a	WORD	595885	wordpools/wasnorm_wordpool_less_exclusions.txt	LTP247	ltpFR	4	6	1	TREAD	1499	n/a	n/a	0	0.422607421875	0.5869140625	0	lower	amplitud.ttf
1195.814	n/a	WORD	597907	wordpools/wasnorm_wordpool_less_exclusions.txt	LTP247	ltpFR	4	6	0	CARPET	247	n/a	n/a	1	0.57763671875	0.412841796875	1	upper	zerothre.ttf
1199.974	n/a	WORD	599987	wordpools/wasnorm_wordpool_less_exclusions.txt	LTP247	ltpFR	4	6	0	COCOON	339	n/a	n/a	0	0.57763671875	0.412841796875	1	upper	zerothre.ttf
1203.852	n/a	WORD	601926	wordpools/wasnorm_wordpool_less_exclusions.txt	LTP247	ltpFR	4	6	0	SPONGE	1355	n/a	n/a	0	0.57763671875	0.412841796875	1	upper	zerothre.ttf
1207.944	n/a	WORD	603972	wordpools/wasnorm_wordpool_less_exclusions.txt	LTP247	ltpFR	4	6	0	CARDINAL	244	n/a	n/a	0	0.57763671875	0.412841796875	1	upper	zerothre.ttf
1211.774	n/a	WORD	605887	wordpools/wasnorm_wordpool_less_exclusions.txt	LTP247	ltpFR	4	6	1	TURNIP	1521	n/a	n/a	0	0.422607421875	0.5869140625	0	lower	amplitud.ttf
1215.718	n/a	WORD	607859	wordpools/wasnorm_wordpool_less_exclusions.txt	LTP247	ltpFR	4	6	1	REEF	1177	n/a	n/a	1	0.422607421875	0.5869140625	0	lower	amplitud.ttf
1219.828	n/a	WORD	609914	wordpools/wasnorm_wordpool_less_exclusions.txt	LTP247	ltpFR	4	6	1	RAFT	1159	n/a	n/a	0	0.422607421875	0.5869140625	0	lower	amplitud.ttf
1225.518	n/a	REC_START	612759	n/a	LTP247	ltpFR	4	6	n/a	n/a	n/a	n/a	n/a	n/a	n/a	n/a	n/a	n/a	n/a
1226.422	n/a	REC_WORD	613211	wordpools/wasnorm_wordpool_less_exclusions.txt	LTP247	ltpFR	4	6	1	RAFT	1159	n/a	n/a	0	n/a	n/a	n/a	n/a	n/a
1227.418	n/a	REC_WORD	613709	wordpools/wasnorm_wordpool_less_exclusions.txt	LTP247	ltpFR	4	6	1	RAFT	1159	n/a	n/a	0	n/a	n/a	n/a	n/a	n/a
1228.396	n/a	REC_WORD	614198	wordpools/wasnorm_wordpool_less_exclusions.txt	LTP247	ltpFR	4	6	1	TURNIP	1521	n/a	n/a	0	n/a	n/a	n/a	n/a	n/a
1229.846	n/a	REC_WORD	614923	wordpools/wasnorm_wordpool_less_exclusions.txt	LTP247	ltpFR	4	6	1	LAWN	805	n/a	n/a	1	n/a	n/a	n/a	n/a	n/a
1230.748	n/a	REC_WORD	615374	wordpools/wasnorm_wordpool_less_exclusions.txt	LTP247	ltpFR	4	6	1	SHRUB	1299	n/a	n/a	1	n/a	n/a	n/a	n/a	n/a
1231.994	n/a	REC_WORD	615997	wordpools/wasnorm_wordpool_less_exclusions.txt	LTP247	ltpFR	4	6	0	BUGGY	188	n/a	n/a	1	n/a	n/a	n/a	n/a	n/a
1233.122	n/a	REC_WORD	616561	wordpools/wasnorm_wordpool_less_exclusions.txt	LTP247	ltpFR	4	6	0	JEEP	753	n/a	n/a	1	n/a	n/a	n/a	n/a	n/a
1234.1	n/a	REC_WORD	617050	wordpools/wasnorm_wordpool_less_exclusions.txt	LTP247	ltpFR	4	6	0	ACTRESS	6	n/a	n/a	1	n/a	n/a	n/a	n/a	n/a
1234.99	n/a	REC_WORD	617495	wordpools/wasnorm_wordpool_less_exclusions.txt	LTP247	ltpFR	4	6	1	MECHANIC	884	n/a	n/a	1	n/a	n/a	n/a	n/a	n/a
1236.056	n/a	REC_WORD	618028	wordpools/wasnorm_wordpool_less_exclusions.txt	LTP247	ltpFR	4	6	1	TREAD	1499	n/a	n/a	0	n/a	n/a	n/a	n/a	n/a
1322.76	n/a	WORD	661380	wordpools/wasnorm_wordpool_less_exclusions.txt	LTP247	ltpFR	4	7	-1	MOUNTAIN	924	n/a	n/a	-1	1.0	1.0	1	upper	Verdana.ttf
1326.886	n/a	WORD	663443	wordpools/wasnorm_wordpool_less_exclusions.txt	LTP247	ltpFR	4	7	-1	WATERFALL	1595	n/a	n/a	-1	1.0	1.0	1	upper	Verdana.ttf
1330.914	n/a	WORD	665457	wordpools/wasnorm_wordpool_less_exclusions.txt	LTP247	ltpFR	4	7	-1	LIVER	833	n/a	n/a	-1	1.0	1.0	1	upper	Verdana.ttf
1335.024	n/a	WORD	667512	wordpools/wasnorm_wordpool_less_exclusions.txt	LTP247	ltpFR	4	7	-1	GRILL	661	n/a	n/a	-1	1.0	1.0	1	upper	Verdana.ttf
1339.05	n/a	WORD	669525	wordpools/wasnorm_wordpool_less_exclusions.txt	LTP247	ltpFR	4	7	-1	TURKEY	1520	n/a	n/a	-1	1.0	1.0	1	upper	Verdana.ttf
1343.194	n/a	WORD	671597	wordpools/wasnorm_wordpool_less_exclusions.txt	LTP247	ltpFR	4	7	-1	UNDERWEAR	1537	n/a	n/a	-1	1.0	1.0	1	upper	Verdana.ttf
1347.222	n/a	WORD	673611	wordpools/wasnorm_wordpool_less_exclusions.txt	LTP247	ltpFR	4	7	-1	FACTORY	548	n/a	n/a	-1	1.0	1.0	1	upper	Verdana.ttf
1351.416	n/a	WORD	675708	wordpools/wasnorm_wordpool_less_exclusions.txt	LTP247	ltpFR	4	7	-1	SCAPEGOAT	1244	n/a	n/a	-1	1.0	1.0	1	upper	Verdana.ttf
1355.244	n/a	WORD	677622	wordpools/wasnorm_wordpool_less_exclusions.txt	LTP247	ltpFR	4	7	-1	BANANA	77	n/a	n/a	-1	1.0	1.0	1	upper	Verdana.ttf
1359.254	n/a	WORD	679627	wordpools/wasnorm_wordpool_less_exclusions.txt	LTP247	ltpFR	4	7	-1	CAFETERIA	217	n/a	n/a	-1	1.0	1.0	1	upper	Verdana.ttf
1363.164	n/a	WORD	681582	wordpools/wasnorm_wordpool_less_exclusions.txt	LTP247	ltpFR	4	7	-1	MINK	897	n/a	n/a	-1	1.0	1.0	1	upper	Verdana.ttf
1366.992	n/a	WORD	683496	wordpools/wasnorm_wordpool_less_exclusions.txt	LTP247	ltpFR	4	7	-1	TABLE	1426	n/a	n/a	-1	1.0	1.0	1	upper	Verdana.ttf
1370.854	n/a	WORD	685427	wordpools/wasnorm_wordpool_less_exclusions.txt	LTP247	ltpFR	4	7	-1	CUSHION	428	n/a	n/a	-1	1.0	1.0	1	upper	Verdana.ttf
1374.682	n/a	WORD	687341	wordpools/wasnorm_wordpool_less_exclusions.txt	LTP247	ltpFR	4	7	-1	FLASK	576	n/a	n/a	-1	1.0	1.0	1	upper	Verdana.ttf
1378.794	n/a	WORD	689397	wordpools/wasnorm_wordpool_less_exclusions.txt	LTP247	ltpFR	4	7	-1	DRYER	503	n/a	n/a	-1	1.0	1.0	1	upper	Verdana.ttf
1382.92	n/a	WORD	691460	wordpools/wasnorm_wordpool_less_exclusions.txt	LTP247	ltpFR	4	7	-1	OWNER	993	n/a	n/a	-1	1.0	1.0	1	upper	Verdana.ttf
1388.662	n/a	REC_START	694331	n/a	LTP247	ltpFR	4	7	n/a	n/a	n/a	n/a	n/a	n/a	n/a	n/a	n/a	n/a	n/a
1389.82	n/a	REC_WORD	694910	wordpools/wasnorm_wordpool_less_exclusions.txt	LTP247	ltpFR	4	7	-1	OWNER	993	n/a	n/a	-1	n/a	n/a	n/a	n/a	n/a
1390.642	n/a	REC_WORD	695321	wordpools/wasnorm_wordpool_less_exclusions.txt	LTP247	ltpFR	4	7	-1	DRYER	503	n/a	n/a	-1	n/a	n/a	n/a	n/a	n/a
1391.47	n/a	REC_WORD	695735	wordpools/wasnorm_wordpool_less_exclusions.txt	LTP247	ltpFR	4	7	-1	TABLE	1426	n/a	n/a	-1	n/a	n/a	n/a	n/a	n/a
1392.31	n/a	REC_WORD	696155	wordpools/wasnorm_wordpool_less_exclusions.txt	LTP247	ltpFR	4	7	-1	CUSHION	428	n/a	n/a	-1	n/a	n/a	n/a	n/a	n/a
1393.114	n/a	REC_WORD	696557	wordpools/wasnorm_wordpool_less_exclusions.txt	LTP247	ltpFR	4	7	-1	FLASK	576	n/a	n/a	-1	n/a	n/a	n/a	n/a	n/a
1394.44	n/a	REC_WORD	697220	wordpools/wasnorm_wordpool_less_exclusions.txt	LTP247	ltpFR	4	7	-1	MINK	897	n/a	n/a	-1	n/a	n/a	n/a	n/a	n/a
1395.592	n/a	REC_WORD	697796	wordpools/wasnorm_wordpool_less_exclusions.txt	LTP247	ltpFR	4	7	-1	MOUNTAIN	924	n/a	n/a	-1	n/a	n/a	n/a	n/a	n/a
1396.968	n/a	REC_WORD	698484	wordpools/wasnorm_wordpool_less_exclusions.txt	LTP247	ltpFR	4	7	-1	LIVER	833	n/a	n/a	-1	n/a	n/a	n/a	n/a	n/a
1397.942	n/a	REC_WORD	698971	wordpools/wasnorm_wordpool_less_exclusions.txt	LTP247	ltpFR	4	7	-1	TURKEY	1520	n/a	n/a	-1	n/a	n/a	n/a	n/a	n/a
1399.078	n/a	REC_WORD	699539	wordpools/wasnorm_wordpool_less_exclusions.txt	LTP247	ltpFR	4	7	-1	GRILL	661	n/a	n/a	-1	n/a	n/a	n/a	n/a	n/a
1400.142	n/a	REC_WORD	700071	wordpools/wasnorm_wordpool_less_exclusions.txt	LTP247	ltpFR	4	7	-1	UNDERWEAR	1537	n/a	n/a	-1	n/a	n/a	n/a	n/a	n/a
1401.248	n/a	REC_WORD	700624	wordpools/wasnorm_wordpool_less_exclusions.txt	LTP247	ltpFR	4	7	-1	WATERFALL	1595	n/a	n/a	-1	n/a	n/a	n/a	n/a	n/a
1480.592	n/a	WORD	740296	wordpools/wasnorm_wordpool_less_exclusions.txt	LTP247	ltpFR	4	8	1	TUNA	1518	n/a	n/a	1	0.422607421875	0.5869140625	0	lower	amplitud.ttf
1484.552	n/a	WORD	742276	wordpools/wasnorm_wordpool_less_exclusions.txt	LTP247	ltpFR	4	8	1	FAUCET	555	n/a	n/a	0	0.422607421875	0.5869140625	0	lower	amplitud.ttf
1488.63	n/a	WORD	744315	wordpools/wasnorm_wordpool_less_exclusions.txt	LTP247	ltpFR	4	8	1	WHEEL	1603	n/a	n/a	0	0.422607421875	0.5869140625	0	lower	amplitud.ttf
1492.624	n/a	WORD	746312	wordpools/wasnorm_wordpool_less_exclusions.txt	LTP247	ltpFR	4	8	1	WAITRESS	1581	n/a	n/a	1	0.422607421875	0.5869140625	0	lower	amplitud.ttf
1496.784	n/a	WORD	748392	wordpools/wasnorm_wordpool_less_exclusions.txt	LTP247	ltpFR	4	8	1	GROCERIES	663	n/a	n/a	0	0.422607421875	0.5869140625	0	lower	amplitud.ttf
1500.944	n/a	WORD	750472	wordpools/wasnorm_wordpool_less_exclusions.txt	LTP247	ltpFR	4	8	1	TEACHER	1440	n/a	n/a	1	0.422607421875	0.5869140625	0	lower	amplitud.ttf
1504.922	n/a	WORD	752461	wordpools/wasnorm_wordpool_less_exclusions.txt	LTP247	ltpFR	4	8	1	BOOK	149	n/a	n/a	0	0.422607421875	0.5869140625	0	lower	amplitud.ttf
1508.784	n/a	WORD	754392	wordpools/wasnorm_wordpool_less_exclusions.txt	LTP247	ltpFR	4	8	1	CORAL	378	n/a	n/a	1	0.422607421875	0.5869140625	0	lower	amplitud.ttf
1512.694	n/a	WORD	756347	wordpools/wasnorm_wordpool_less_exclusions.txt	LTP247	ltpFR	4	8	1	TUB	1514	n/a	n/a	0	0.422607421875	0.5869140625	0	lower	amplitud.ttf
1516.706	n/a	WORD	758353	wordpools/wasnorm_wordpool_less_exclusions.txt	LTP247	ltpFR	4	8	1	UNIFORM	1539	n/a	n/a	0	0.422607421875	0.5869140625	0	lower	amplitud.ttf
1520.866	n/a	WORD	760433	wordpools/wasnorm_wordpool_less_exclusions.txt	LTP247	ltpFR	4	8	1	PEDAL	1037	n/a	n/a	0	0.422607421875	0.5869140625	0	lower	amplitud.ttf
1524.942	n/a	WORD	762471	wordpools/wasnorm_wordpool_less_exclusions.txt	LTP247	ltpFR	4	8	1	CELERY	266	n/a	n/a	0	0.422607421875	0.5869140625	0	lower	amplitud.ttf
1528.788	n/a	WORD	764394	wordpools/wasnorm_wordpool_less_exclusions.txt	LTP247	ltpFR	4	8	1	CARROT	249	n/a	n/a	0	0.422607421875	0.5869140625	0	lower	amplitud.ttf
1532.898	n/a	WORD	766449	wordpools/wasnorm_wordpool_less_exclusions.txt	LTP247	ltpFR	4	8	1	CONTRACT	368	n/a	n/a	0	0.422607421875	0.5869140625	0	lower	amplitud.ttf
1537.108	n/a	WORD	768554	wordpools/wasnorm_wordpool_less_exclusions.txt	LTP247	ltpFR	4	8	1	SQUID	1361	n/a	n/a	1	0.422607421875	0.5869140625	0	lower	amplitud.ttf
1541.186	n/a	WORD	770593	wordpools/wasnorm_wordpool_less_exclusions.txt	LTP247	ltpFR	4	8	1	VETERAN	1561	n/a	n/a	1	0.422607421875	0.5869140625	0	lower	amplitud.ttf
1546.878	n/a	REC_START	773439	n/a	LTP247	ltpFR	4	8	n/a	n/a	n/a	n/a	n/a	n/a	n/a	n/a	n/a	n/a	n/a
1547.642	n/a	REC_WORD	773821	wordpools/wasnorm_wordpool_less_exclusions.txt	LTP247	ltpFR	4	8	1	VETERAN	1561	n/a	n/a	1	n/a	n/a	n/a	n/a	n/a
1548.754	n/a	REC_WORD	774377	wordpools/wasnorm_wordpool_less_exclusions.txt	LTP247	ltpFR	4	8	1	SQUID	1361	n/a	n/a	1	n/a	n/a	n/a	n/a	n/a
1550.25	n/a	REC_WORD	775125	wordpools/wasnorm_wordpool_less_exclusions.txt	LTP247	ltpFR	4	8	1	TUB	1514	n/a	n/a	0	n/a	n/a	n/a	n/a	n/a
1551.812	n/a	REC_WORD	775906	wordpools/wasnorm_wordpool_less_exclusions.txt	LTP247	ltpFR	4	8	1	TUNA	1518	n/a	n/a	1	n/a	n/a	n/a	n/a	n/a
1554.082	n/a	REC_WORD	777041	wordpools/wasnorm_wordpool_less_exclusions.txt	LTP247	ltpFR	4	8	1	WHEEL	1603	n/a	n/a	0	n/a	n/a	n/a	n/a	n/a
1555.754	n/a	REC_WORD	777877	wordpools/wasnorm_wordpool_less_exclusions.txt	LTP247	ltpFR	4	8	1	PEDAL	1037	n/a	n/a	0	n/a	n/a	n/a	n/a	n/a
1557.514	n/a	REC_WORD	778757	wordpools/wasnorm_wordpool_less_exclusions.txt	LTP247	ltpFR	4	8	1	WAITRESS	1581	n/a	n/a	1	n/a	n/a	n/a	n/a	n/a
1646.362	n/a	WORD	823181	wordpools/wasnorm_wordpool_less_exclusions.txt	LTP247	ltpFR	4	9	0	CHALK	276	n/a	n/a	0	0.57763671875	0.412841796875	1	upper	zerothre.ttf
1650.206	n/a	WORD	825103	wordpools/wasnorm_wordpool_less_exclusions.txt	LTP247	ltpFR	4	9	0	GAVEL	627	n/a	n/a	0	0.57763671875	0.412841796875	1	upper	zerothre.ttf
1654.184	n/a	WORD	827092	wordpools/wasnorm_wordpool_less_exclusions.txt	LTP247	ltpFR	4	9	0	MILITARY	894	n/a	n/a	1	0.57763671875	0.412841796875	1	upper	zerothre.ttf
1658.228	n/a	WORD	829114	wordpools/wasnorm_wordpool_less_exclusions.txt	LTP247	ltpFR	4	9	0	SLEEVE	1324	n/a	n/a	0	0.57763671875	0.412841796875	1	upper	zerothre.ttf
1662.188	n/a	WORD	831094	wordpools/wasnorm_wordpool_less_exclusions.txt	LTP247	ltpFR	4	9	0	BOSS	152	n/a	n/a	1	0.57763671875	0.412841796875	1	upper	zerothre.ttf
1666.218	n/a	WORD	833109	wordpools/wasnorm_wordpool_less_exclusions.txt	LTP247	ltpFR	4	9	0	TWINE	1529	n/a	n/a	0	0.57763671875	0.412841796875	1	upper	zerothre.ttf
1670.228	n/a	WORD	835114	wordpools/wasnorm_wordpool_less_exclusions.txt	LTP247	ltpFR	4	9	0	BRIEFCASE	175	n/a	n/a	1	0.57763671875	0.412841796875	1	upper	zerothre.ttf
1674.206	n/a	WORD	837103	wordpools/wasnorm_wordpool_less_exclusions.txt	LTP247	ltpFR	4	9	0	BILL	126	n/a	n/a	0	0.57763671875	0.412841796875	1	upper	zerothre.ttf
1678.2	n/a	WORD	839100	wordpools/wasnorm_wordpool_less_exclusions.txt	LTP247	ltpFR	4	9	0	COLONEL	348	n/a	n/a	1	0.57763671875	0.412841796875	1	upper	zerothre.ttf
1682.41	n/a	WORD	841205	wordpools/wasnorm_wordpool_less_exclusions.txt	LTP247	ltpFR	4	9	0	RADIATOR	1156	n/a	n/a	1	0.57763671875	0.412841796875	1	upper	zerothre.ttf
1686.586	n/a	WORD	843293	wordpools/wasnorm_wordpool_less_exclusions.txt	LTP247	ltpFR	4	9	0	TAXI	1438	n/a	n/a	1	0.57763671875	0.412841796875	1	upper	zerothre.ttf
1690.682	n/a	WORD	845341	wordpools/wasnorm_wordpool_less_exclusions.txt	LTP247	ltpFR	4	9	0	CARPENTER	246	n/a	n/a	1	0.57763671875	0.412841796875	1	upper	zerothre.ttf
1694.708	n/a	WORD	847354	wordpools/wasnorm_wordpool_less_exclusions.txt	LTP247	ltpFR	4	9	0	FILM	565	n/a	n/a	0	0.57763671875	0.412841796875	1	upper	zerothre.ttf
1698.87	n/a	WORD	849435	wordpools/wasnorm_wordpool_less_exclusions.txt	LTP247	ltpFR	4	9	0	GLASS	639	n/a	n/a	0	0.57763671875	0.412841796875	1	upper	zerothre.ttf
1702.896	n/a	WORD	851448	wordpools/wasnorm_wordpool_less_exclusions.txt	LTP247	ltpFR	4	9	0	WINDOW	1611	n/a	n/a	1	0.57763671875	0.412841796875	1	upper	zerothre.ttf
1707.04	n/a	WORD	853520	wordpools/wasnorm_wordpool_less_exclusions.txt	LTP247	ltpFR	4	9	0	SHOULDER	1294	n/a	n/a	1	0.57763671875	0.412841796875	1	upper	zerothre.ttf
1712.85	n/a	REC_START	856425	n/a	LTP247	ltpFR	4	9	n/a	n/a	n/a	n/a	n/a	n/a	n/a	n/a	n/a	n/a	n/a
1713.632	n/a	REC_WORD	856816	wordpools/wasnorm_wordpool_less_exclusions.txt	LTP247	ltpFR	4	9	0	SHOULDER	1294	n/a	n/a	1	n/a	n/a	n/a	n/a	n/a
1714.666	n/a	REC_WORD	857333	wordpools/wasnorm_wordpool_less_exclusions.txt	LTP247	ltpFR	4	9	0	GLASS	639	n/a	n/a	0	n/a	n/a	n/a	n/a	n/a
1715.808	n/a	REC_WORD	857904	wordpools/wasnorm_wordpool_less_exclusions.txt	LTP247	ltpFR	4	9	0	WINDOW	1611	n/a	n/a	1	n/a	n/a	n/a	n/a	n/a
1731.546	n/a	REC_WORD	865773	wordpools/wasnorm_wordpool_less_exclusions.txt	LTP247	ltpFR	4	9	0	GAVEL	627	n/a	n/a	0	n/a	n/a	n/a	n/a	n/a
1802.066	n/a	WORD	901033	wordpools/wasnorm_wordpool_less_exclusions.txt	LTP247	ltpFR	4	10	0	NECK	939	n/a	n/a	1	0.57763671875	0.412841796875	1	upper	zerothre.ttf
1806.21	n/a	WORD	903105	wordpools/wasnorm_wordpool_less_exclusions.txt	LTP247	ltpFR	4	10	0	CELLO	268	n/a	n/a	1	0.57763671875	0.412841796875	1	upper	zerothre.ttf
1810.054	n/a	WORD	905027	wordpools/wasnorm_wordpool_less_exclusions.txt	LTP247	ltpFR	4	10	0	FIDDLE	561	n/a	n/a	1	0.57763671875	0.412841796875	1	upper	zerothre.ttf
1813.966	n/a	WORD	906983	wordpools/wasnorm_wordpool_less_exclusions.txt	LTP247	ltpFR	4	10	0	COB	334	n/a	n/a	0	0.57763671875	0.412841796875	1	upper	zerothre.ttf
1817.944	n/a	WORD	908972	wordpools/wasnorm_wordpool_less_exclusions.txt	LTP247	ltpFR	4	10	0	MEAL	882	n/a	n/a	1	0.57763671875	0.412841796875	1	upper	zerothre.ttf
1822.136	n/a	WORD	911068	wordpools/wasnorm_wordpool_less_exclusions.txt	LTP247	ltpFR	4	10	0	BISCUIT	130	n/a	n/a	0	0.57763671875	0.412841796875	1	upper	zerothre.ttf
1825.964	n/a	WORD	912982	wordpools/wasnorm_wordpool_less_exclusions.txt	LTP247	ltpFR	4	10	0	HAT	690	n/a	n/a	1	0.57763671875	0.412841796875	1	upper	zerothre.ttf
1829.974	n/a	WORD	914987	wordpools/wasnorm_wordpool_less_exclusions.txt	LTP247	ltpFR	4	10	0	HOSTESS	723	n/a	n/a	1	0.57763671875	0.412841796875	1	upper	zerothre.ttf
1833.968	n/a	WORD	916984	wordpools/wasnorm_wordpool_less_exclusions.txt	LTP247	ltpFR	4	10	0	CAFE	216	n/a	n/a	1	0.57763671875	0.412841796875	1	upper	zerothre.ttf
1837.93	n/a	WORD	918965	wordpools/wasnorm_wordpool_less_exclusions.txt	LTP247	ltpFR	4	10	0	OATMEAL	967	n/a	n/a	0	0.57763671875	0.412841796875	1	upper	zerothre.ttf
1841.758	n/a	WORD	920879	wordpools/wasnorm_wordpool_less_exclusions.txt	LTP247	ltpFR	4	10	0	JUNGLE	764	n/a	n/a	1	0.57763671875	0.412841796875	1	upper	zerothre.ttf
1845.686	n/a	WORD	922843	wordpools/wasnorm_wordpool_less_exclusions.txt	LTP247	ltpFR	4	10	0	PEAR	1033	n/a	n/a	0	0.57763671875	0.412841796875	1	upper	zerothre.ttf
1849.78	n/a	WORD	924890	wordpools/wasnorm_wordpool_less_exclusions.txt	LTP247	ltpFR	4	10	0	BELT	120	n/a	n/a	0	0.57763671875	0.412841796875	1	upper	zerothre.ttf
1853.656	n/a	WORD	926828	wordpools/wasnorm_wordpool_less_exclusions.txt	LTP247	ltpFR	4	10	0	ASTEROID	50	n/a	n/a	1	0.57763671875	0.412841796875	1	upper	zerothre.ttf
1857.484	n/a	WORD	928742	wordpools/wasnorm_wordpool_less_exclusions.txt	LTP247	ltpFR	4	10	0	LIEUTENANT	818	n/a	n/a	1	0.57763671875	0.412841796875	1	upper	zerothre.ttf
1861.51	n/a	WORD	930755	wordpools/wasnorm_wordpool_less_exclusions.txt	LTP247	ltpFR	4	10	0	MAJOR	859	n/a	n/a	1	0.57763671875	0.412841796875	1	upper	zerothre.ttf
1867.42	n/a	REC_START	933710	n/a	LTP247	ltpFR	4	10	n/a	n/a	n/a	n/a	n/a	n/a	n/a	n/a	n/a	n/a	n/a
1869.532	n/a	REC_WORD	934766	wordpools/wasnorm_wordpool_less_exclusions.txt	LTP247	ltpFR	4	10	0	MAJOR	859	n/a	n/a	1	n/a	n/a	n/a	n/a	n/a
1870.402	n/a	REC_WORD	935201	wordpools/wasnorm_wordpool_less_exclusions.txt	LTP247	ltpFR	4	10	0	LIEUTENANT	818	n/a	n/a	1	n/a	n/a	n/a	n/a	n/a
1871.44	n/a	REC_WORD	935720	wordpools/wasnorm_wordpool_less_exclusions.txt	LTP247	ltpFR	4	10	0	ASTEROID	50	n/a	n/a	1	n/a	n/a	n/a	n/a	n/a
1872.538	n/a	REC_WORD	936269	wordpools/wasnorm_wordpool_less_exclusions.txt	LTP247	ltpFR	4	10	0	NECK	939	n/a	n/a	1	n/a	n/a	n/a	n/a	n/a
1873.3	n/a	REC_WORD	936650	wordpools/wasnorm_wordpool_less_exclusions.txt	LTP247	ltpFR	4	10	0	FIDDLE	561	n/a	n/a	1	n/a	n/a	n/a	n/a	n/a
1874.264	n/a	REC_WORD	937132	wordpools/wasnorm_wordpool_less_exclusions.txt	LTP247	ltpFR	4	10	0	CELLO	268	n/a	n/a	1	n/a	n/a	n/a	n/a	n/a
1875.326	n/a	REC_WORD	937663	wordpools/wasnorm_wordpool_less_exclusions.txt	LTP247	ltpFR	4	10	0	HOSTESS	723	n/a	n/a	1	n/a	n/a	n/a	n/a	n/a
1876.404	n/a	REC_WORD	938202	wordpools/wasnorm_wordpool_less_exclusions.txt	LTP247	ltpFR	4	10	0	MEAL	882	n/a	n/a	1	n/a	n/a	n/a	n/a	n/a
1877.452	n/a	REC_WORD	938726	wordpools/wasnorm_wordpool_less_exclusions.txt	LTP247	ltpFR	4	10	0	COB	334	n/a	n/a	0	n/a	n/a	n/a	n/a	n/a
1878.628	n/a	REC_WORD	939314	wordpools/wasnorm_wordpool_less_exclusions.txt	LTP247	ltpFR	4	10	0	BISCUIT	130	n/a	n/a	0	n/a	n/a	n/a	n/a	n/a
1879.726	n/a	REC_WORD	939863	wordpools/wasnorm_wordpool_less_exclusions.txt	LTP247	ltpFR	4	10	0	OATMEAL	967	n/a	n/a	0	n/a	n/a	n/a	n/a	n/a
1880.764	n/a	REC_WORD	940382	wordpools/wasnorm_wordpool_less_exclusions.txt	LTP247	ltpFR	4	10	0	PEAR	1033	n/a	n/a	0	n/a	n/a	n/a	n/a	n/a
1957.72	n/a	WORD	978860	wordpools/wasnorm_wordpool_less_exclusions.txt	LTP247	ltpFR	4	11	0	PASSAGE	1019	n/a	n/a	1	0.57763671875	0.412841796875	1	upper	zerothre.ttf
1961.564	n/a	WORD	980782	wordpools/wasnorm_wordpool_less_exclusions.txt	LTP247	ltpFR	4	11	0	RAIL	1161	n/a	n/a	1	0.57763671875	0.412841796875	1	upper	zerothre.ttf
1965.508	n/a	WORD	982754	wordpools/wasnorm_wordpool_less_exclusions.txt	LTP247	ltpFR	4	11	0	WRENCH	1625	n/a	n/a	0	0.57763671875	0.412841796875	1	upper	zerothre.ttf
1969.736	n/a	WORD	984868	wordpools/wasnorm_wordpool_less_exclusions.txt	LTP247	ltpFR	4	11	0	DIVER	476	n/a	n/a	1	0.57763671875	0.412841796875	1	upper	zerothre.ttf
1973.578	n/a	WORD	986789	wordpools/wasnorm_wordpool_less_exclusions.txt	LTP247	ltpFR	4	11	1	FIELD	562	n/a	n/a	0	0.422607421875	0.5869140625	0	lower	amplitud.ttf
1977.79	n/a	WORD	988895	wordpools/wasnorm_wordpool_less_exclusions.txt	LTP247	ltpFR	4	11	1	DENIM	446	n/a	n/a	0	0.422607421875	0.5869140625	0	lower	amplitud.ttf
1982.0	n/a	WORD	991000	wordpools/wasnorm_wordpool_less_exclusions.txt	LTP247	ltpFR	4	11	1	GRASSHOPPER	656	n/a	n/a	1	0.422607421875	0.5869140625	0	lower	amplitud.ttf
1985.894	n/a	WORD	992947	wordpools/wasnorm_wordpool_less_exclusions.txt	LTP247	ltpFR	4	11	0	BUCKET	184	n/a	n/a	1	0.57763671875	0.412841796875	1	upper	zerothre.ttf
1990.004	n/a	WORD	995002	wordpools/wasnorm_wordpool_less_exclusions.txt	LTP247	ltpFR	4	11	0	STUDENT	1395	n/a	n/a	1	0.57763671875	0.412841796875	1	upper	zerothre.ttf
1994.164	n/a	WORD	997082	wordpools/wasnorm_wordpool_less_exclusions.txt	LTP247	ltpFR	4	11	0	KNEE	784	n/a	n/a	0	0.57763671875	0.412841796875	1	upper	zerothre.ttf
1998.142	n/a	WORD	999071	wordpools/wasnorm_wordpool_less_exclusions.txt	LTP247	ltpFR	4	11	0	BEE	112	n/a	n/a	0	0.57763671875	0.412841796875	1	upper	zerothre.ttf
2002.352	n/a	WORD	1001176	wordpools/wasnorm_wordpool_less_exclusions.txt	LTP247	ltpFR	4	11	1	WINDSHIELD	1612	n/a	n/a	0	0.422607421875	0.5869140625	0	lower	amplitud.ttf
2006.33	n/a	WORD	1003165	wordpools/wasnorm_wordpool_less_exclusions.txt	LTP247	ltpFR	4	11	1	RUST	1219	n/a	n/a	0	0.422607421875	0.5869140625	0	lower	amplitud.ttf
2010.158	n/a	WORD	1005079	wordpools/wasnorm_wordpool_less_exclusions.txt	LTP247	ltpFR	4	11	1	JUGGLER	763	n/a	n/a	1	0.422607421875	0.5869140625	0	lower	amplitud.ttf
2014.334	n/a	WORD	1007167	wordpools/wasnorm_wordpool_less_exclusions.txt	LTP247	ltpFR	4	11	1	ACROBAT	4	n/a	n/a	1	0.422607421875	0.5869140625	0	lower	amplitud.ttf
2018.246	n/a	WORD	1009123	wordpools/wasnorm_wordpool_less_exclusions.txt	LTP247	ltpFR	4	11	1	COLLEGE	346	n/a	n/a	0	0.422607421875	0.5869140625	0	lower	amplitud.ttf
2024.27	n/a	REC_START	1012135	n/a	LTP247	ltpFR	4	11	n/a	n/a	n/a	n/a	n/a	n/a	n/a	n/a	n/a	n/a	n/a
2025.292	n/a	REC_WORD	1012646	wordpools/wasnorm_wordpool_less_exclusions.txt	LTP247	ltpFR	4	11	1	COLLEGE	346	n/a	n/a	0	n/a	n/a	n/a	n/a	n/a
2026.082	n/a	REC_WORD	1013041	wordpools/wasnorm_wordpool_less_exclusions.txt	LTP247	ltpFR	4	11	1	ACROBAT	4	n/a	n/a	1	n/a	n/a	n/a	n/a	n/a
2027.02	n/a	REC_WORD	1013510	wordpools/wasnorm_wordpool_less_exclusions.txt	LTP247	ltpFR	4	11	1	JUGGLER	763	n/a	n/a	1	n/a	n/a	n/a	n/a	n/a
2028.02	n/a	REC_WORD	1014010	wordpools/wasnorm_wordpool_less_exclusions.txt	LTP247	ltpFR	4	11	0	DIVER	476	n/a	n/a	1	n/a	n/a	n/a	n/a	n/a
2029.38	n/a	REC_WORD	1014690	wordpools/wasnorm_wordpool_less_exclusions.txt	LTP247	ltpFR	4	11	1	WINDSHIELD	1612	n/a	n/a	0	n/a	n/a	n/a	n/a	n/a
2030.418	n/a	REC_WORD	1015209	wordpools/wasnorm_wordpool_less_exclusions.txt	LTP247	ltpFR	4	11	1	GRASSHOPPER	656	n/a	n/a	1	n/a	n/a	n/a	n/a	n/a
2031.602	n/a	REC_WORD	1015801	wordpools/wasnorm_wordpool_less_exclusions.txt	LTP247	ltpFR	4	11	1	FIELD	562	n/a	n/a	0	n/a	n/a	n/a	n/a	n/a
2033.6	n/a	REC_WORD	1016800	wordpools/wasnorm_wordpool_less_exclusions.txt	LTP247	ltpFR	4	11	0	PASSAGE	1019	n/a	n/a	1	n/a	n/a	n/a	n/a	n/a
2034.858	n/a	REC_WORD	1017429	wordpools/wasnorm_wordpool_less_exclusions.txt	LTP247	ltpFR	4	11	0	RAIL	1161	n/a	n/a	1	n/a	n/a	n/a	n/a	n/a
2035.776	n/a	REC_WORD	1017888	wordpools/wasnorm_wordpool_less_exclusions.txt	LTP247	ltpFR	4	11	0	STUDENT	1395	n/a	n/a	1	n/a	n/a	n/a	n/a	n/a
2041.932	n/a	REC_WORD	1020966	wordpools/wasnorm_wordpool_less_exclusions.txt	LTP247	ltpFR	4	11	0	WRENCH	1625	n/a	n/a	0	n/a	n/a	n/a	n/a	n/a
2044.21	n/a	REC_WORD	1022105	wordpools/wasnorm_wordpool_less_exclusions.txt	LTP247	ltpFR	4	11	0	KNEE	784	n/a	n/a	0	n/a	n/a	n/a	n/a	n/a
2112.14	n/a	WORD	1056070	wordpools/wasnorm_wordpool_less_exclusions.txt	LTP247	ltpFR	4	12	-1	KITE	779	n/a	n/a	-1	1.0	1.0	1	upper	Verdana.ttf
2116.052	n/a	WORD	1058026	wordpools/wasnorm_wordpool_less_exclusions.txt	LTP247	ltpFR	4	12	-1	BEETLE	116	n/a	n/a	-1	1.0	1.0	1	upper	Verdana.ttf
2119.996	n/a	WORD	1059998	wordpools/wasnorm_wordpool_less_exclusions.txt	LTP247	ltpFR	4	12	-1	LINEN	825	n/a	n/a	-1	1.0	1.0	1	upper	Verdana.ttf
2123.972	n/a	WORD	1061986	wordpools/wasnorm_wordpool_less_exclusions.txt	LTP247	ltpFR	4	12	-1	TOOTHPASTE	1483	n/a	n/a	-1	1.0	1.0	1	upper	Verdana.ttf
2128.15	n/a	WORD	1064075	wordpools/wasnorm_wordpool_less_exclusions.txt	LTP247	ltpFR	4	12	-1	OFFICER	973	n/a	n/a	-1	1.0	1.0	1	upper	Verdana.ttf
2132.128	n/a	WORD	1066064	wordpools/wasnorm_wordpool_less_exclusions.txt	LTP247	ltpFR	4	12	-1	PADDING	999	n/a	n/a	-1	1.0	1.0	1	upper	Verdana.ttf
2135.988	n/a	WORD	1067994	wordpools/wasnorm_wordpool_less_exclusions.txt	LTP247	ltpFR	4	12	-1	BOWL	158	n/a	n/a	-1	1.0	1.0	1	upper	Verdana.ttf
2140.032	n/a	WORD	1070016	wordpools/wasnorm_wordpool_less_exclusions.txt	LTP247	ltpFR	4	12	-1	LIPSTICK	829	n/a	n/a	-1	1.0	1.0	1	upper	Verdana.ttf
2144.076	n/a	WORD	1072038	wordpools/wasnorm_wordpool_less_exclusions.txt	LTP247	ltpFR	4	12	-1	MASCARA	875	n/a	n/a	-1	1.0	1.0	1	upper	Verdana.ttf
2148.27	n/a	WORD	1074135	wordpools/wasnorm_wordpool_less_exclusions.txt	LTP247	ltpFR	4	12	-1	OLIVE	975	n/a	n/a	-1	1.0	1.0	1	upper	Verdana.ttf
2152.314	n/a	WORD	1076157	wordpools/wasnorm_wordpool_less_exclusions.txt	LTP247	ltpFR	4	12	-1	POLICE	1098	n/a	n/a	-1	1.0	1.0	1	upper	Verdana.ttf
2156.408	n/a	WORD	1078204	wordpools/wasnorm_wordpool_less_exclusions.txt	LTP247	ltpFR	4	12	-1	RESORT	1186	n/a	n/a	-1	1.0	1.0	1	upper	Verdana.ttf
2160.368	n/a	WORD	1080184	wordpools/wasnorm_wordpool_less_exclusions.txt	LTP247	ltpFR	4	12	-1	ATTORNEY	58	n/a	n/a	-1	1.0	1.0	1	upper	Verdana.ttf
2164.23	n/a	WORD	1082115	wordpools/wasnorm_wordpool_less_exclusions.txt	LTP247	ltpFR	4	12	-1	CLAMP	316	n/a	n/a	-1	1.0	1.0	1	upper	Verdana.ttf
2168.224	n/a	WORD	1084112	wordpools/wasnorm_wordpool_less_exclusions.txt	LTP247	ltpFR	4	12	-1	KNUCKLE	789	n/a	n/a	-1	1.0	1.0	1	upper	Verdana.ttf
2172.434	n/a	WORD	1086217	wordpools/wasnorm_wordpool_less_exclusions.txt	LTP247	ltpFR	4	12	-1	WRITER	1627	n/a	n/a	-1	1.0	1.0	1	upper	Verdana.ttf
2178.06	n/a	REC_START	1089030	n/a	LTP247	ltpFR	4	12	n/a	n/a	n/a	n/a	n/a	n/a	n/a	n/a	n/a	n/a	n/a
2178.614	n/a	REC_WORD	1089307	wordpools/wasnorm_wordpool_less_exclusions.txt	LTP247	ltpFR	4	12	-1	WRITER	1627	n/a	n/a	-1	n/a	n/a	n/a	n/a	n/a
2179.446	n/a	REC_WORD	1089723	wordpools/wasnorm_wordpool_less_exclusions.txt	LTP247	ltpFR	4	12	-1	KNUCKLE	789	n/a	n/a	-1	n/a	n/a	n/a	n/a	n/a
2180.414	n/a	REC_WORD	1090207	wordpools/wasnorm_wordpool_less_exclusions.txt	LTP247	ltpFR	4	12	-1	CLAMP	316	n/a	n/a	-1	n/a	n/a	n/a	n/a	n/a
2181.692	n/a	REC_WORD	1090846	wordpools/wasnorm_wordpool_less_exclusions.txt	LTP247	ltpFR	4	12	-1	RESORT	1186	n/a	n/a	-1	n/a	n/a	n/a	n/a	n/a
2182.628	n/a	REC_WORD	1091314	wordpools/wasnorm_wordpool_less_exclusions.txt	LTP247	ltpFR	4	12	-1	ATTORNEY	58	n/a	n/a	-1	n/a	n/a	n/a	n/a	n/a
2184.132	n/a	REC_WORD	1092066	wordpools/wasnorm_wordpool_less_exclusions.txt	LTP247	ltpFR	4	12	-1	POLICE	1098	n/a	n/a	-1	n/a	n/a	n/a	n/a	n/a
2185.284	n/a	REC_WORD	1092642	wordpools/wasnorm_wordpool_less_exclusions.txt	LTP247	ltpFR	4	12	-1	OFFICER	973	n/a	n/a	-1	n/a	n/a	n/a	n/a	n/a
2187.35	n/a	REC_WORD	1093675	wordpools/wasnorm_wordpool_less_exclusions.txt	LTP247	ltpFR	4	12	-1	PADDING	999	n/a	n/a	-1	n/a	n/a	n/a	n/a	n/a
2188.462	n/a	REC_WORD	1094231	wordpools/wasnorm_wordpool_less_exclusions.txt	LTP247	ltpFR	4	12	-1	LIPSTICK	829	n/a	n/a	-1	n/a	n/a	n/a	n/a	n/a
2189.47	n/a	REC_WORD	1094735	wordpools/wasnorm_wordpool_less_exclusions.txt	LTP247	ltpFR	4	12	-1	MASCARA	875	n/a	n/a	-1	n/a	n/a	n/a	n/a	n/a
2190.892	n/a	REC_WORD	1095446	wordpools/wasnorm_wordpool_less_exclusions.txt	LTP247	ltpFR	4	12	-1	BOWL	158	n/a	n/a	-1	n/a	n/a	n/a	n/a	n/a
2192.078	n/a	REC_WORD	1096039	wordpools/wasnorm_wordpool_less_exclusions.txt	LTP247	ltpFR	4	12	-1	KITE	779	n/a	n/a	-1	n/a	n/a	n/a	n/a	n/a
2193.236	n/a	REC_WORD	1096618	wordpools/wasnorm_wordpool_less_exclusions.txt	LTP247	ltpFR	4	12	-1	BEETLE	116	n/a	n/a	-1	n/a	n/a	n/a	n/a	n/a
2199.846	n/a	REC_WORD	1099923	wordpools/wasnorm_wordpool_less_exclusions.txt	LTP247	ltpFR	4	12	-1	WRITER	1627	n/a	n/a	-1	n/a	n/a	n/a	n/a	n/a
2253.666	n/a	REST_REWET	1126833	n/a	LTP247	ltpFR	4	12	n/a	n/a	n/a	n/a	n/a	n/a	n/a	n/a	n/a	n/a	n/a
2610.536	n/a	WORD	1305268	wordpools/wasnorm_wordpool_less_exclusions.txt	LTP247	ltpFR	4	13	-1	SKI	1316	n/a	n/a	-1	1.0	1.0	1	upper	Verdana.ttf
2614.598	n/a	WORD	1307299	wordpools/wasnorm_wordpool_less_exclusions.txt	LTP247	ltpFR	4	13	-1	STEAM	1375	n/a	n/a	-1	1.0	1.0	1	upper	Verdana.ttf
2618.442	n/a	WORD	1309221	wordpools/wasnorm_wordpool_less_exclusions.txt	LTP247	ltpFR	4	13	-1	CHAIR	274	n/a	n/a	-1	1.0	1.0	1	upper	Verdana.ttf
2622.652	n/a	WORD	1311326	wordpools/wasnorm_wordpool_less_exclusions.txt	LTP247	ltpFR	4	13	-1	PALM	1007	n/a	n/a	-1	1.0	1.0	1	upper	Verdana.ttf
2626.612	n/a	WORD	1313306	wordpools/wasnorm_wordpool_less_exclusions.txt	LTP247	ltpFR	4	13	-1	APPENDAGE	32	n/a	n/a	-1	1.0	1.0	1	upper	Verdana.ttf
2630.724	n/a	WORD	1315362	wordpools/wasnorm_wordpool_less_exclusions.txt	LTP247	ltpFR	4	13	-1	PIE	1062	n/a	n/a	-1	1.0	1.0	1	upper	Verdana.ttf
2634.868	n/a	WORD	1317434	wordpools/wasnorm_wordpool_less_exclusions.txt	LTP247	ltpFR	4	13	-1	BOMB	147	n/a	n/a	-1	1.0	1.0	1	upper	Verdana.ttf
2638.978	n/a	WORD	1319489	wordpools/wasnorm_wordpool_less_exclusions.txt	LTP247	ltpFR	4	13	-1	TERRITORY	1452	n/a	n/a	-1	1.0	1.0	1	upper	Verdana.ttf
2642.822	n/a	WORD	1321411	wordpools/wasnorm_wordpool_less_exclusions.txt	LTP247	ltpFR	4	13	-1	DESSERT	453	n/a	n/a	-1	1.0	1.0	1	upper	Verdana.ttf
2646.934	n/a	WORD	1323467	wordpools/wasnorm_wordpool_less_exclusions.txt	LTP247	ltpFR	4	13	-1	CABINET	212	n/a	n/a	-1	1.0	1.0	1	upper	Verdana.ttf
2651.01	n/a	WORD	1325505	wordpools/wasnorm_wordpool_less_exclusions.txt	LTP247	ltpFR	4	13	-1	DRAWER	493	n/a	n/a	-1	1.0	1.0	1	upper	Verdana.ttf
2655.004	n/a	WORD	1327502	wordpools/wasnorm_wordpool_less_exclusions.txt	LTP247	ltpFR	4	13	-1	NET	946	n/a	n/a	-1	1.0	1.0	1	upper	Verdana.ttf
2658.866	n/a	WORD	1329433	wordpools/wasnorm_wordpool_less_exclusions.txt	LTP247	ltpFR	4	13	-1	TWIN	1528	n/a	n/a	-1	1.0	1.0	1	upper	Verdana.ttf
2662.81	n/a	WORD	1331405	wordpools/wasnorm_wordpool_less_exclusions.txt	LTP247	ltpFR	4	13	-1	SISTER	1312	n/a	n/a	-1	1.0	1.0	1	upper	Verdana.ttf
2666.704	n/a	WORD	1333352	wordpools/wasnorm_wordpool_less_exclusions.txt	LTP247	ltpFR	4	13	-1	JOINT	758	n/a	n/a	-1	1.0	1.0	1	upper	Verdana.ttf
2670.564	n/a	WORD	1335282	wordpools/wasnorm_wordpool_less_exclusions.txt	LTP247	ltpFR	4	13	-1	LUMBER	848	n/a	n/a	-1	1.0	1.0	1	upper	Verdana.ttf
2676.356	n/a	REC_START	1338178	n/a	LTP247	ltpFR	4	13	n/a	n/a	n/a	n/a	n/a	n/a	n/a	n/a	n/a	n/a	n/a
2677.074	n/a	REC_WORD	1338537	wordpools/wasnorm_wordpool_less_exclusions.txt	LTP247	ltpFR	4	13	-1	LUMBER	848	n/a	n/a	-1	n/a	n/a	n/a	n/a	n/a
2677.808	n/a	REC_WORD	1338904	wordpools/wasnorm_wordpool_less_exclusions.txt	LTP247	ltpFR	4	13	-1	JOINT	758	n/a	n/a	-1	n/a	n/a	n/a	n/a	n/a
2678.482	n/a	REC_WORD	1339241	wordpools/wasnorm_wordpool_less_exclusions.txt	LTP247	ltpFR	4	13	-1	SISTER	1312	n/a	n/a	-1	n/a	n/a	n/a	n/a	n/a
2679.4	n/a	REC_WORD	1339700	wordpools/wasnorm_wordpool_less_exclusions.txt	LTP247	ltpFR	4	13	-1	TWIN	1528	n/a	n/a	-1	n/a	n/a	n/a	n/a	n/a
2680.872	n/a	REC_WORD	1340436	wordpools/wasnorm_wordpool_less_exclusions.txt	LTP247	ltpFR	4	13	-1	NET	946	n/a	n/a	-1	n/a	n/a	n/a	n/a	n/a
2681.72	n/a	REC_WORD	1340860	wordpools/wasnorm_wordpool_less_exclusions.txt	LTP247	ltpFR	4	13	-1	DESSERT	453	n/a	n/a	-1	n/a	n/a	n/a	n/a	n/a
2682.772	n/a	REC_WORD	1341386	wordpools/wasnorm_wordpool_less_exclusions.txt	LTP247	ltpFR	4	13	-1	BOMB	147	n/a	n/a	-1	n/a	n/a	n/a	n/a	n/a
2683.59	n/a	REC_WORD	1341795	wordpools/wasnorm_wordpool_less_exclusions.txt	LTP247	ltpFR	4	13	-1	TERRITORY	1452	n/a	n/a	-1	n/a	n/a	n/a	n/a	n/a
2685.65	n/a	REC_WORD	1342825	wordpools/wasnorm_wordpool_less_exclusions.txt	LTP247	ltpFR	4	13	-1	SKI	1316	n/a	n/a	-1	n/a	n/a	n/a	n/a	n/a
2686.698	n/a	REC_WORD	1343349	wordpools/wasnorm_wordpool_less_exclusions.txt	LTP247	ltpFR	4	13	-1	STEAM	1375	n/a	n/a	-1	n/a	n/a	n/a	n/a	n/a
2687.944	n/a	REC_WORD	1343972	wordpools/wasnorm_wordpool_less_exclusions.txt	LTP247	ltpFR	4	13	-1	CHAIR	274	n/a	n/a	-1	n/a	n/a	n/a	n/a	n/a
2689.132	n/a	REC_WORD	1344566	wordpools/wasnorm_wordpool_less_exclusions.txt	LTP247	ltpFR	4	13	-1	PALM	1007	n/a	n/a	-1	n/a	n/a	n/a	n/a	n/a
2690.048	n/a	REC_WORD	1345024	wordpools/wasnorm_wordpool_less_exclusions.txt	LTP247	ltpFR	4	13	-1	APPENDAGE	32	n/a	n/a	-1	n/a	n/a	n/a	n/a	n/a
2691.576	n/a	REC_WORD	1345788	wordpools/wasnorm_wordpool_less_exclusions.txt	LTP247	ltpFR	4	13	-1	PIE	1062	n/a	n/a	-1	n/a	n/a	n/a	n/a	n/a
2764.11	n/a	WORD	1382055	wordpools/wasnorm_wordpool_less_exclusions.txt	LTP247	ltpFR	4	14	-1	KITCHEN	778	n/a	n/a	-1	1.0	1.0	1	upper	Verdana.ttf
2767.97	n/a	WORD	1383985	wordpools/wasnorm_wordpool_less_exclusions.txt	LTP247	ltpFR	4	14	-1	SALAD	1224	n/a	n/a	-1	1.0	1.0	1	upper	Verdana.ttf
2771.932	n/a	WORD	1385966	wordpools/wasnorm_wordpool_less_exclusions.txt	LTP247	ltpFR	4	14	-1	GYMNAST	675	n/a	n/a	-1	1.0	1.0	1	upper	Verdana.ttf
2776.108	n/a	WORD	1388054	wordpools/wasnorm_wordpool_less_exclusions.txt	LTP247	ltpFR	4	14	-1	PEANUT	1032	n/a	n/a	-1	1.0	1.0	1	upper	Verdana.ttf
2780.336	n/a	WORD	1390168	wordpools/wasnorm_wordpool_less_exclusions.txt	LTP247	ltpFR	4	14	-1	BULB	192	n/a	n/a	-1	1.0	1.0	1	upper	Verdana.ttf
2784.346	n/a	WORD	1392173	wordpools/wasnorm_wordpool_less_exclusions.txt	LTP247	ltpFR	4	14	-1	BABY	64	n/a	n/a	-1	1.0	1.0	1	upper	Verdana.ttf
2788.39	n/a	WORD	1394195	wordpools/wasnorm_wordpool_less_exclusions.txt	LTP247	ltpFR	4	14	-1	LAGOON	795	n/a	n/a	-1	1.0	1.0	1	upper	Verdana.ttf
2792.318	n/a	WORD	1396159	wordpools/wasnorm_wordpool_less_exclusions.txt	LTP247	ltpFR	4	14	-1	LABYRINTH	791	n/a	n/a	-1	1.0	1.0	1	upper	Verdana.ttf
2796.46	n/a	WORD	1398230	wordpools/wasnorm_wordpool_less_exclusions.txt	LTP247	ltpFR	4	14	-1	MOUSE	925	n/a	n/a	-1	1.0	1.0	1	upper	Verdana.ttf
2800.322	n/a	WORD	1400161	wordpools/wasnorm_wordpool_less_exclusions.txt	LTP247	ltpFR	4	14	-1	BANK	83	n/a	n/a	-1	1.0	1.0	1	upper	Verdana.ttf
2804.166	n/a	WORD	1402083	wordpools/wasnorm_wordpool_less_exclusions.txt	LTP247	ltpFR	4	14	-1	COIN	343	n/a	n/a	-1	1.0	1.0	1	upper	Verdana.ttf
2808.376	n/a	WORD	1404188	wordpools/wasnorm_wordpool_less_exclusions.txt	LTP247	ltpFR	4	14	-1	EARTH	515	n/a	n/a	-1	1.0	1.0	1	upper	Verdana.ttf
2812.536	n/a	WORD	1406268	wordpools/wasnorm_wordpool_less_exclusions.txt	LTP247	ltpFR	4	14	-1	OTTER	986	n/a	n/a	-1	1.0	1.0	1	upper	Verdana.ttf
2816.432	n/a	WORD	1408216	wordpools/wasnorm_wordpool_less_exclusions.txt	LTP247	ltpFR	4	14	-1	PECAN	1036	n/a	n/a	-1	1.0	1.0	1	upper	Verdana.ttf
2820.542	n/a	WORD	1410271	wordpools/wasnorm_wordpool_less_exclusions.txt	LTP247	ltpFR	4	14	-1	WORM	1623	n/a	n/a	-1	1.0	1.0	1	upper	Verdana.ttf
2824.654	n/a	WORD	1412327	wordpools/wasnorm_wordpool_less_exclusions.txt	LTP247	ltpFR	4	14	-1	ALLEY	15	n/a	n/a	-1	1.0	1.0	1	upper	Verdana.ttf
2830.396	n/a	REC_START	1415198	n/a	LTP247	ltpFR	4	14	n/a	n/a	n/a	n/a	n/a	n/a	n/a	n/a	n/a	n/a	n/a
2831.688	n/a	REC_WORD	1415844	wordpools/wasnorm_wordpool_less_exclusions.txt	LTP247	ltpFR	4	14	-1	ALLEY	15	n/a	n/a	-1	n/a	n/a	n/a	n/a	n/a
2832.45	n/a	REC_WORD	1416225	wordpools/wasnorm_wordpool_less_exclusions.txt	LTP247	ltpFR	4	14	-1	WORM	1623	n/a	n/a	-1	n/a	n/a	n/a	n/a	n/a
2833.31	n/a	REC_WORD	1416655	wordpools/wasnorm_wordpool_less_exclusions.txt	LTP247	ltpFR	4	14	-1	PECAN	1036	n/a	n/a	-1	n/a	n/a	n/a	n/a	n/a
2834.69	n/a	REC_WORD	1417345	wordpools/wasnorm_wordpool_less_exclusions.txt	LTP247	ltpFR	4	14	-1	OTTER	986	n/a	n/a	-1	n/a	n/a	n/a	n/a	n/a
2835.728	n/a	REC_WORD	1417864	wordpools/wasnorm_wordpool_less_exclusions.txt	LTP247	ltpFR	4	14	-1	EARTH	515	n/a	n/a	-1	n/a	n/a	n/a	n/a	n/a
2837.154	n/a	REC_WORD	1418577	wordpools/wasnorm_wordpool_less_exclusions.txt	LTP247	ltpFR	4	14	-1	KITCHEN	778	n/a	n/a	-1	n/a	n/a	n/a	n/a	n/a
2838.022	n/a	REC_WORD	1419011	wordpools/wasnorm_wordpool_less_exclusions.txt	LTP247	ltpFR	4	14	-1	SALAD	1224	n/a	n/a	-1	n/a	n/a	n/a	n/a	n/a
2839.22	n/a	REC_WORD	1419610	wordpools/wasnorm_wordpool_less_exclusions.txt	LTP247	ltpFR	4	14	-1	PEANUT	1032	n/a	n/a	-1	n/a	n/a	n/a	n/a	n/a
2840.282	n/a	REC_WORD	1420141	wordpools/wasnorm_wordpool_less_exclusions.txt	LTP247	ltpFR	4	14	-1	BANK	83	n/a	n/a	-1	n/a	n/a	n/a	n/a	n/a
2841.34	n/a	REC_WORD	1420670	wordpools/wasnorm_wordpool_less_exclusions.txt	LTP247	ltpFR	4	14	-1	COIN	343	n/a	n/a	-1	n/a	n/a	n/a	n/a	n/a
2842.442	n/a	REC_WORD	1421221	wordpools/wasnorm_wordpool_less_exclusions.txt	LTP247	ltpFR	4	14	-1	LABYRINTH	791	n/a	n/a	-1	n/a	n/a	n/a	n/a	n/a
2843.586	n/a	REC_WORD	1421793	wordpools/wasnorm_wordpool_less_exclusions.txt	LTP247	ltpFR	4	14	-1	MOUSE	925	n/a	n/a	-1	n/a	n/a	n/a	n/a	n/a
2916.5	n/a	WORD	1458250	wordpools/wasnorm_wordpool_less_exclusions.txt	LTP247	ltpFR	4	15	0	TRAIN	1494	n/a	n/a	1	0.57763671875	0.412841796875	1	upper	zerothre.ttf
2920.344	n/a	WORD	1460172	wordpools/wasnorm_wordpool_less_exclusions.txt	LTP247	ltpFR	4	15	0	WARRIOR	1589	n/a	n/a	1	0.57763671875	0.412841796875	1	upper	zerothre.ttf
2924.188	n/a	WORD	1462094	wordpools/wasnorm_wordpool_less_exclusions.txt	LTP247	ltpFR	4	15	0	NIECE	952	n/a	n/a	1	0.57763671875	0.412841796875	1	upper	zerothre.ttf
2928.25	n/a	WORD	1464125	wordpools/wasnorm_wordpool_less_exclusions.txt	LTP247	ltpFR	4	15	1	LOLLIPOP	842	n/a	n/a	0	0.422607421875	0.5869140625	0	lower	amplitud.ttf
2932.194	n/a	WORD	1466097	wordpools/wasnorm_wordpool_less_exclusions.txt	LTP247	ltpFR	4	15	1	HONEY	713	n/a	n/a	0	0.422607421875	0.5869140625	0	lower	amplitud.ttf
2936.17	n/a	WORD	1468085	wordpools/wasnorm_wordpool_less_exclusions.txt	LTP247	ltpFR	4	15	1	PUDDLE	1140	n/a	n/a	0	0.422607421875	0.5869140625	0	lower	amplitud.ttf
2940.314	n/a	WORD	1470157	wordpools/wasnorm_wordpool_less_exclusions.txt	LTP247	ltpFR	4	15	0	CABOOSE	214	n/a	n/a	1	0.57763671875	0.412841796875	1	upper	zerothre.ttf
2944.376	n/a	WORD	1472188	wordpools/wasnorm_wordpool_less_exclusions.txt	LTP247	ltpFR	4	15	0	FIN	566	n/a	n/a	0	0.57763671875	0.412841796875	1	upper	zerothre.ttf
2948.486	n/a	WORD	1474243	wordpools/wasnorm_wordpool_less_exclusions.txt	LTP247	ltpFR	4	15	1	BARRACUDA	90	n/a	n/a	1	0.422607421875	0.5869140625	0	lower	amplitud.ttf
2952.53	n/a	WORD	1476265	wordpools/wasnorm_wordpool_less_exclusions.txt	LTP247	ltpFR	4	15	1	MARROW	872	n/a	n/a	0	0.422607421875	0.5869140625	0	lower	amplitud.ttf
2956.458	n/a	WORD	1478229	wordpools/wasnorm_wordpool_less_exclusions.txt	LTP247	ltpFR	4	15	1	BOULEVARD	156	n/a	n/a	0	0.422607421875	0.5869140625	0	lower	amplitud.ttf
2960.618	n/a	WORD	1480309	wordpools/wasnorm_wordpool_less_exclusions.txt	LTP247	ltpFR	4	15	1	CHIEF	298	n/a	n/a	1	0.422607421875	0.5869140625	0	lower	amplitud.ttf
2964.73	n/a	WORD	1482365	wordpools/wasnorm_wordpool_less_exclusions.txt	LTP247	ltpFR	4	15	1	PIPE	1073	n/a	n/a	0	0.422607421875	0.5869140625	0	lower	amplitud.ttf
2968.64	n/a	WORD	1484320	wordpools/wasnorm_wordpool_less_exclusions.txt	LTP247	ltpFR	4	15	0	COD	340	n/a	n/a	0	0.57763671875	0.412841796875	1	upper	zerothre.ttf
2972.718	n/a	WORD	1486359	wordpools/wasnorm_wordpool_less_exclusions.txt	LTP247	ltpFR	4	15	0	FLIPPER	580	n/a	n/a	0	0.57763671875	0.412841796875	1	upper	zerothre.ttf
2976.712	n/a	WORD	1488356	wordpools/wasnorm_wordpool_less_exclusions.txt	LTP247	ltpFR	4	15	0	HEN	703	n/a	n/a	1	0.57763671875	0.412841796875	1	upper	zerothre.ttf
2982.586	n/a	REC_START	1491293	n/a	LTP247	ltpFR	4	15	n/a	n/a	n/a	n/a	n/a	n/a	n/a	n/a	n/a	n/a	n/a
2983.204	n/a	REC_WORD	1491602	wordpools/wasnorm_wordpool_less_exclusions.txt	LTP247	ltpFR	4	15	0	HEN	703	n/a	n/a	1	n/a	n/a	n/a	n/a	n/a
2983.808	n/a	REC_WORD	1491904	wordpools/wasnorm_wordpool_less_exclusions.txt	LTP247	ltpFR	4	15	0	FLIPPER	580	n/a	n/a	0	n/a	n/a	n/a	n/a	n/a
2984.792	n/a	REC_WORD	1492396	wordpools/wasnorm_wordpool_less_exclusions.txt	LTP247	ltpFR	4	15	0	COD	340	n/a	n/a	0	n/a	n/a	n/a	n/a	n/a
2985.53	n/a	REC_WORD	1492765	wordpools/wasnorm_wordpool_less_exclusions.txt	LTP247	ltpFR	4	15	1	BARRACUDA	90	n/a	n/a	1	n/a	n/a	n/a	n/a	n/a
2986.472	n/a	REC_WORD	1493236	wordpools/wasnorm_wordpool_less_exclusions.txt	LTP247	ltpFR	4	15	0	FIN	566	n/a	n/a	0	n/a	n/a	n/a	n/a	n/a
2987.584	n/a	REC_WORD	1493792	wordpools/wasnorm_wordpool_less_exclusions.txt	LTP247	ltpFR	4	15	1	CHIEF	298	n/a	n/a	1	n/a	n/a	n/a	n/a	n/a
2988.692	n/a	REC_WORD	1494346	wordpools/wasnorm_wordpool_less_exclusions.txt	LTP247	ltpFR	4	15	1	PIPE	1073	n/a	n/a	0	n/a	n/a	n/a	n/a	n/a
2990.17	n/a	REC_WORD	1495085	wordpools/wasnorm_wordpool_less_exclusions.txt	LTP247	ltpFR	4	15	0	TRAIN	1494	n/a	n/a	1	n/a	n/a	n/a	n/a	n/a
2991.364	n/a	REC_WORD	1495682	wordpools/wasnorm_wordpool_less_exclusions.txt	LTP247	ltpFR	4	15	0	WARRIOR	1589	n/a	n/a	1	n/a	n/a	n/a	n/a	n/a
2992.358	n/a	REC_WORD	1496179	wordpools/wasnorm_wordpool_less_exclusions.txt	LTP247	ltpFR	4	15	0	NIECE	952	n/a	n/a	1	n/a	n/a	n/a	n/a	n/a
3076.814	n/a	WORD	1538407	wordpools/wasnorm_wordpool_less_exclusions.txt	LTP247	ltpFR	4	16	1	OCTOPUS	971	n/a	n/a	1	0.422607421875	0.5869140625	0	lower	amplitud.ttf
3080.99	n/a	WORD	1540495	wordpools/wasnorm_wordpool_less_exclusions.txt	LTP247	ltpFR	4	16	1	MOWER	928	n/a	n/a	0	0.422607421875	0.5869140625	0	lower	amplitud.ttf
3085.134	n/a	WORD	1542567	wordpools/wasnorm_wordpool_less_exclusions.txt	LTP247	ltpFR	4	16	1	BUG	187	n/a	n/a	1	0.422607421875	0.5869140625	0	lower	amplitud.ttf
3088.994	n/a	WORD	1544497	wordpools/wasnorm_wordpool_less_exclusions.txt	LTP247	ltpFR	4	16	1	INSECT	740	n/a	n/a	1	0.422607421875	0.5869140625	0	lower	amplitud.ttf
3093.188	n/a	WORD	1546594	wordpools/wasnorm_wordpool_less_exclusions.txt	LTP247	ltpFR	4	16	1	TOURIST	1488	n/a	n/a	1	0.422607421875	0.5869140625	0	lower	amplitud.ttf
3097.05	n/a	WORD	1548525	wordpools/wasnorm_wordpool_less_exclusions.txt	LTP247	ltpFR	4	16	1	LUGGAGE	847	n/a	n/a	0	0.422607421875	0.5869140625	0	lower	amplitud.ttf
3101.11	n/a	WORD	1550555	wordpools/wasnorm_wordpool_less_exclusions.txt	LTP247	ltpFR	4	16	1	SADDLE	1221	n/a	n/a	0	0.422607421875	0.5869140625	0	lower	amplitud.ttf
3105.17	n/a	WORD	1552585	wordpools/wasnorm_wordpool_less_exclusions.txt	LTP247	ltpFR	4	16	1	WHIP	1604	n/a	n/a	0	0.422607421875	0.5869140625	0	lower	amplitud.ttf
3109.032	n/a	WORD	1554516	wordpools/wasnorm_wordpool_less_exclusions.txt	LTP247	ltpFR	4	16	1	TECHNICIAN	1443	n/a	n/a	1	0.422607421875	0.5869140625	0	lower	amplitud.ttf
3113.242	n/a	WORD	1556621	wordpools/wasnorm_wordpool_less_exclusions.txt	LTP247	ltpFR	4	16	1	COOLER	375	n/a	n/a	0	0.422607421875	0.5869140625	0	lower	amplitud.ttf
3117.454	n/a	WORD	1558727	wordpools/wasnorm_wordpool_less_exclusions.txt	LTP247	ltpFR	4	16	1	PAGE	1001	n/a	n/a	0	0.422607421875	0.5869140625	0	lower	amplitud.ttf
3121.58	n/a	WORD	1560790	wordpools/wasnorm_wordpool_less_exclusions.txt	LTP247	ltpFR	4	16	1	PERCH	1048	n/a	n/a	0	0.422607421875	0.5869140625	0	lower	amplitud.ttf
3125.742	n/a	WORD	1562871	wordpools/wasnorm_wordpool_less_exclusions.txt	LTP247	ltpFR	4	16	1	BAIT	70	n/a	n/a	0	0.422607421875	0.5869140625	0	lower	amplitud.ttf
3129.652	n/a	WORD	1564826	wordpools/wasnorm_wordpool_less_exclusions.txt	LTP247	ltpFR	4	16	1	GRASS	655	n/a	n/a	1	0.422607421875	0.5869140625	0	lower	amplitud.ttf
3133.78	n/a	WORD	1566890	wordpools/wasnorm_wordpool_less_exclusions.txt	LTP247	ltpFR	4	16	1	BANKER	84	n/a	n/a	1	0.422607421875	0.5869140625	0	lower	amplitud.ttf
3137.774	n/a	WORD	1568887	wordpools/wasnorm_wordpool_less_exclusions.txt	LTP247	ltpFR	4	16	1	RELATIVE	1182	n/a	n/a	1	0.422607421875	0.5869140625	0	lower	amplitud.ttf
3143.416	n/a	REC_START	1571708	n/a	LTP247	ltpFR	4	16	n/a	n/a	n/a	n/a	n/a	n/a	n/a	n/a	n/a	n/a	n/a
3144.078	n/a	REC_WORD	1572039	wordpools/wasnorm_wordpool_less_exclusions.txt	LTP247	ltpFR	4	16	1	RELATIVE	1182	n/a	n/a	1	n/a	n/a	n/a	n/a	n/a
3145.022	n/a	REC_WORD	1572511	wordpools/wasnorm_wordpool_less_exclusions.txt	LTP247	ltpFR	4	16	1	BANKER	84	n/a	n/a	1	n/a	n/a	n/a	n/a	n/a
3145.696	n/a	REC_WORD	1572848	wordpools/wasnorm_wordpool_less_exclusions.txt	LTP247	ltpFR	4	16	1	TECHNICIAN	1443	n/a	n/a	1	n/a	n/a	n/a	n/a	n/a
3146.858	n/a	REC_WORD	1573429	wordpools/wasnorm_wordpool_less_exclusions.txt	LTP247	ltpFR	4	16	1	COOLER	375	n/a	n/a	0	n/a	n/a	n/a	n/a	n/a
3148.11	n/a	REC_WORD	1574055	wordpools/wasnorm_wordpool_less_exclusions.txt	LTP247	ltpFR	4	16	1	GRASS	655	n/a	n/a	1	n/a	n/a	n/a	n/a	n/a
3149.372	n/a	REC_WORD	1574686	wordpools/wasnorm_wordpool_less_exclusions.txt	LTP247	ltpFR	4	16	1	BUG	187	n/a	n/a	1	n/a	n/a	n/a	n/a	n/a
3150.454	n/a	REC_WORD	1575227	wordpools/wasnorm_wordpool_less_exclusions.txt	LTP247	ltpFR	4	16	1	INSECT	740	n/a	n/a	1	n/a	n/a	n/a	n/a	n/a
3151.542	n/a	REC_WORD	1575771	wordpools/wasnorm_wordpool_less_exclusions.txt	LTP247	ltpFR	4	16	1	MOWER	928	n/a	n/a	0	n/a	n/a	n/a	n/a	n/a
-0.002	n/a	REC_START	-1	n/a	LTP247	ltpFR	4	1	n/a	n/a	n/a	n/a	n/a	n/a	n/a	n/a	n/a	n/a	n/a
-0.002	n/a	RECOG_LURE	-1	n/a	LTP247	ltpFR	4	1	n/a	PARENT	1013	0	1	n/a	n/a	n/a	n/a	n/a	n/a
-0.002	n/a	RECOG_RESP	-1	n/a	LTP247	ltpFR	4	1	n/a	PARENT	1013	0	n/a	n/a	n/a	n/a	n/a	n/a	n/a
-0.002	n/a	RECOG_CONF	-1	n/a	LTP247	ltpFR	4	1	n/a	PARENT	1013	n/a	1	n/a	n/a	n/a	n/a	n/a	n/a
-0.002	n/a	RECOG_LURE	-1	n/a	LTP247	ltpFR	4	1	n/a	GENERAL	630	1	2	n/a	n/a	n/a	n/a	n/a	n/a
-0.002	n/a	RECOG_RESP	-1	n/a	LTP247	ltpFR	4	1	n/a	GENERAL	630	1	n/a	n/a	n/a	n/a	n/a	n/a	n/a
-0.002	n/a	RECOG_CONF	-1	n/a	LTP247	ltpFR	4	1	n/a	GENERAL	630	n/a	2	n/a	n/a	n/a	n/a	n/a	n/a
-0.002	n/a	RECOG_LURE	-1	n/a	LTP247	ltpFR	4	1	n/a	SALMON	1227	0	3	n/a	n/a	n/a	n/a	n/a	n/a
-0.002	n/a	RECOG_RESP	-1	n/a	LTP247	ltpFR	4	1	n/a	SALMON	1227	0	n/a	n/a	n/a	n/a	n/a	n/a	n/a
-0.002	n/a	RECOG_CONF	-1	n/a	LTP247	ltpFR	4	1	n/a	SALMON	1227	n/a	3	n/a	n/a	n/a	n/a	n/a	n/a
-0.002	n/a	RECOG_LURE	-1	n/a	LTP247	ltpFR	4	1	n/a	PALACE	1006	0	2	n/a	n/a	n/a	n/a	n/a	n/a
-0.002	n/a	RECOG_RESP	-1	n/a	LTP247	ltpFR	4	1	n/a	PALACE	1006	0	n/a	n/a	n/a	n/a	n/a	n/a	n/a
-0.002	n/a	RECOG_CONF	-1	n/a	LTP247	ltpFR	4	1	n/a	PALACE	1006	n/a	2	n/a	n/a	n/a	n/a	n/a	n/a
-0.002	n/a	RECOG_TARGET	-1	n/a	LTP247	ltpFR	4	1	-1	MASCARA	875	1	4	-1	n/a	n/a	n/a	n/a	n/a
-0.002	n/a	RECOG_RESP	-1	n/a	LTP247	ltpFR	4	1	-1	MASCARA	875	1	n/a	-1	n/a	n/a	n/a	n/a	n/a
-0.002	n/a	RECOG_CONF	-1	n/a	LTP247	ltpFR	4	1	-1	MASCARA	875	n/a	4	-1	n/a	n/a	n/a	n/a	n/a
-0.002	n/a	RECOG_TARGET	-1	n/a	LTP247	ltpFR	4	1	1	HONEY	713	1	5	0	n/a	n/a	n/a	n/a	n/a
-0.002	n/a	RECOG_RESP	-1	n/a	LTP247	ltpFR	4	1	1	HONEY	713	1	n/a	0	n/a	n/a	n/a	n/a	n/a
-0.002	n/a	RECOG_CONF	-1	n/a	LTP247	ltpFR	4	1	1	HONEY	713	n/a	5	0	n/a	n/a	n/a	n/a	n/a
-0.002	n/a	RECOG_LURE	-1	n/a	LTP247	ltpFR	4	1	n/a	FUGITIVE	612	0	2	n/a	n/a	n/a	n/a	n/a	n/a
-0.002	n/a	RECOG_RESP	-1	n/a	LTP247	ltpFR	4	1	n/a	FUGITIVE	612	0	n/a	n/a	n/a	n/a	n/a	n/a	n/a
-0.002	n/a	RECOG_CONF	-1	n/a	LTP247	ltpFR	4	1	n/a	FUGITIVE	612	n/a	2	n/a	n/a	n/a	n/a	n/a	n/a
-0.002	n/a	RECOG_TARGET	-1	n/a	LTP247	ltpFR	4	1	-1	DRYER	503	1	3	-1	n/a	n/a	n/a	n/a	n/a
-0.002	n/a	RECOG_RESP	-1	n/a	LTP247	ltpFR	4	1	-1	DRYER	503	1	n/a	-1	n/a	n/a	n/a	n/a	n/a
-0.002	n/a	RECOG_CONF	-1	n/a	LTP247	ltpFR	4	1	-1	DRYER	503	n/a	3	-1	n/a	n/a	n/a	n/a	n/a
-0.002	n/a	RECOG_LURE	-1	n/a	LTP247	ltpFR	4	1	n/a	BOYFRIEND	162	0	1	n/a	n/a	n/a	n/a	n/a	n/a
-0.002	n/a	RECOG_RESP	-1	n/a	LTP247	ltpFR	4	1	n/a	BOYFRIEND	162	0	n/a	n/a	n/a	n/a	n/a	n/a	n/a
-0.002	n/a	RECOG_CONF	-1	n/a	LTP247	ltpFR	4	1	n/a	BOYFRIEND	162	n/a	1	n/a	n/a	n/a	n/a	n/a	n/a
-0.002	n/a	RECOG_LURE	-1	n/a	LTP247	ltpFR	4	1	n/a	FATHER	554	1	1	n/a	n/a	n/a	n/a	n/a	n/a
-0.002	n/a	RECOG_RESP	-1	n/a	LTP247	ltpFR	4	1	n/a	FATHER	554	1	n/a	n/a	n/a	n/a	n/a	n/a	n/a
-0.002	n/a	RECOG_CONF	-1	n/a	LTP247	ltpFR	4	1	n/a	FATHER	554	n/a	1	n/a	n/a	n/a	n/a	n/a	n/a
-0.002	n/a	RECOG_LURE	-1	n/a	LTP247	ltpFR	4	1	n/a	SLACKS	1323	0	1	n/a	n/a	n/a	n/a	n/a	n/a
-0.002	n/a	RECOG_RESP	-1	n/a	LTP247	ltpFR	4	1	n/a	SLACKS	1323	0	n/a	n/a	n/a	n/a	n/a	n/a	n/a
-0.002	n/a	RECOG_CONF	-1	n/a	LTP247	ltpFR	4	1	n/a	SLACKS	1323	n/a	1	n/a	n/a	n/a	n/a	n/a	n/a
-0.002	n/a	RECOG_TARGET	-1	n/a	LTP247	ltpFR	4	1	1	WHIP	1604	1	4	0	n/a	n/a	n/a	n/a	n/a
-0.002	n/a	RECOG_RESP	-1	n/a	LTP247	ltpFR	4	1	1	WHIP	1604	1	n/a	0	n/a	n/a	n/a	n/a	n/a
-0.002	n/a	RECOG_CONF	-1	n/a	LTP247	ltpFR	4	1	1	WHIP	1604	n/a	4	0	n/a	n/a	n/a	n/a	n/a
-0.002	n/a	RECOG_TARGET	-1	n/a	LTP247	ltpFR	4	1	0	SKATE	1313	1	4	1	n/a	n/a	n/a	n/a	n/a
-0.002	n/a	RECOG_RESP	-1	n/a	LTP247	ltpFR	4	1	0	SKATE	1313	1	n/a	1	n/a	n/a	n/a	n/a	n/a
-0.002	n/a	RECOG_CONF	-1	n/a	LTP247	ltpFR	4	1	0	SKATE	1313	n/a	4	1	n/a	n/a	n/a	n/a	n/a
-0.002	n/a	RECOG_TARGET	-1	n/a	LTP247	ltpFR	4	1	1	PIPE	1073	1	5	0	n/a	n/a	n/a	n/a	n/a
-0.002	n/a	RECOG_RESP	-1	n/a	LTP247	ltpFR	4	1	1	PIPE	1073	1	n/a	0	n/a	n/a	n/a	n/a	n/a
-0.002	n/a	RECOG_CONF	-1	n/a	LTP247	ltpFR	4	1	1	PIPE	1073	n/a	5	0	n/a	n/a	n/a	n/a	n/a
-0.002	n/a	RECOG_LURE	-1	n/a	LTP247	ltpFR	4	1	n/a	LEOPARD	812	0	3	n/a	n/a	n/a	n/a	n/a	n/a
-0.002	n/a	RECOG_RESP	-1	n/a	LTP247	ltpFR	4	1	n/a	LEOPARD	812	0	n/a	n/a	n/a	n/a	n/a	n/a	n/a
-0.002	n/a	RECOG_CONF	-1	n/a	LTP247	ltpFR	4	1	n/a	LEOPARD	812	n/a	3	n/a	n/a	n/a	n/a	n/a	n/a
-0.002	n/a	RECOG_LURE	-1	n/a	LTP247	ltpFR	4	1	n/a	PISTOL	1075	0	2	n/a	n/a	n/a	n/a	n/a	n/a
-0.002	n/a	RECOG_RESP	-1	n/a	LTP247	ltpFR	4	1	n/a	PISTOL	1075	0	n/a	n/a	n/a	n/a	n/a	n/a	n/a
-0.002	n/a	RECOG_CONF	-1	n/a	LTP247	ltpFR	4	1	n/a	PISTOL	1075	n/a	2	n/a	n/a	n/a	n/a	n/a	n/a
-0.002	n/a	RECOG_LURE	-1	n/a	LTP247	ltpFR	4	1	n/a	DANDRUFF	439	0	4	n/a	n/a	n/a	n/a	n/a	n/a
-0.002	n/a	RECOG_RESP	-1	n/a	LTP247	ltpFR	4	1	n/a	DANDRUFF	439	0	n/a	n/a	n/a	n/a	n/a	n/a	n/a
-0.002	n/a	RECOG_CONF	-1	n/a	LTP247	ltpFR	4	1	n/a	DANDRUFF	439	n/a	4	n/a	n/a	n/a	n/a	n/a	n/a
-0.002	n/a	RECOG_LURE	-1	n/a	LTP247	ltpFR	4	1	n/a	GRAPE	654	0	1	n/a	n/a	n/a	n/a	n/a	n/a
-0.002	n/a	RECOG_RESP	-1	n/a	LTP247	ltpFR	4	1	n/a	GRAPE	654	0	n/a	n/a	n/a	n/a	n/a	n/a	n/a
-0.002	n/a	RECOG_CONF	-1	n/a	LTP247	ltpFR	4	1	n/a	GRAPE	654	n/a	1	n/a	n/a	n/a	n/a	n/a	n/a
-0.002	n/a	RECOG_LURE	-1	n/a	LTP247	ltpFR	4	1	n/a	UTENSIL	1542	0	2	n/a	n/a	n/a	n/a	n/a	n/a
-0.002	n/a	RECOG_RESP	-1	n/a	LTP247	ltpFR	4	1	n/a	UTENSIL	1542	0	n/a	n/a	n/a	n/a	n/a	n/a	n/a
-0.002	n/a	RECOG_CONF	-1	n/a	LTP247	ltpFR	4	1	n/a	UTENSIL	1542	n/a	2	n/a	n/a	n/a	n/a	n/a	n/a
-0.002	n/a	RECOG_LURE	-1	n/a	LTP247	ltpFR	4	1	n/a	ASH	44	0	2	n/a	n/a	n/a	n/a	n/a	n/a
-0.002	n/a	RECOG_RESP	-1	n/a	LTP247	ltpFR	4	1	n/a	ASH	44	0	n/a	n/a	n/a	n/a	n/a	n/a	n/a
-0.002	n/a	RECOG_CONF	-1	n/a	LTP247	ltpFR	4	1	n/a	ASH	44	n/a	2	n/a	n/a	n/a	n/a	n/a	n/a
-0.002	n/a	REC_START	-1	n/a	LTP247	ltpFR	4	2	n/a	n/a	n/a	n/a	n/a	n/a	n/a	n/a	n/a	n/a	n/a
-0.002	n/a	RECOG_TARGET	-1	n/a	LTP247	ltpFR	4	2	0	WARRIOR	1589	1	5	1	n/a	n/a	n/a	n/a	n/a
-0.002	n/a	RECOG_RESP	-1	n/a	LTP247	ltpFR	4	2	0	WARRIOR	1589	1	n/a	1	n/a	n/a	n/a	n/a	n/a
-0.002	n/a	RECOG_CONF	-1	n/a	LTP247	ltpFR	4	2	0	WARRIOR	1589	n/a	5	1	n/a	n/a	n/a	n/a	n/a
-0.002	n/a	RECOG_TARGET	-1	n/a	LTP247	ltpFR	4	2	0	LIMB	822	1	4	1	n/a	n/a	n/a	n/a	n/a
-0.002	n/a	RECOG_RESP	-1	n/a	LTP247	ltpFR	4	2	0	LIMB	822	1	n/a	1	n/a	n/a	n/a	n/a	n/a
-0.002	n/a	RECOG_CONF	-1	n/a	LTP247	ltpFR	4	2	0	LIMB	822	n/a	4	1	n/a	n/a	n/a	n/a	n/a
-0.002	n/a	RECOG_TARGET	-1	n/a	LTP247	ltpFR	4	2	1	CELERY	266	1	4	0	n/a	n/a	n/a	n/a	n/a
-0.002	n/a	RECOG_RESP	-1	n/a	LTP247	ltpFR	4	2	1	CELERY	266	1	n/a	0	n/a	n/a	n/a	n/a	n/a
-0.002	n/a	RECOG_CONF	-1	n/a	LTP247	ltpFR	4	2	1	CELERY	266	n/a	4	0	n/a	n/a	n/a	n/a	n/a
-0.002	n/a	RECOG_LURE	-1	n/a	LTP247	ltpFR	4	2	n/a	FOE	587	0	3	n/a	n/a	n/a	n/a	n/a	n/a
-0.002	n/a	RECOG_RESP	-1	n/a	LTP247	ltpFR	4	2	n/a	FOE	587	0	n/a	n/a	n/a	n/a	n/a	n/a	n/a
-0.002	n/a	RECOG_CONF	-1	n/a	LTP247	ltpFR	4	2	n/a	FOE	587	n/a	3	n/a	n/a	n/a	n/a	n/a	n/a
-0.002	n/a	RECOG_LURE	-1	n/a	LTP247	ltpFR	4	2	n/a	GANG	619	0	3	n/a	n/a	n/a	n/a	n/a	n/a
-0.002	n/a	RECOG_RESP	-1	n/a	LTP247	ltpFR	4	2	n/a	GANG	619	0	n/a	n/a	n/a	n/a	n/a	n/a	n/a
-0.002	n/a	RECOG_CONF	-1	n/a	LTP247	ltpFR	4	2	n/a	GANG	619	n/a	3	n/a	n/a	n/a	n/a	n/a	n/a
-0.002	n/a	RECOG_TARGET	-1	n/a	LTP247	ltpFR	4	2	1	OCTOPUS	971	1	5	1	n/a	n/a	n/a	n/a	n/a
-0.002	n/a	RECOG_RESP	-1	n/a	LTP247	ltpFR	4	2	1	OCTOPUS	971	1	n/a	1	n/a	n/a	n/a	n/a	n/a
-0.002	n/a	RECOG_CONF	-1	n/a	LTP247	ltpFR	4	2	1	OCTOPUS	971	n/a	5	1	n/a	n/a	n/a	n/a	n/a
-0.002	n/a	RECOG_LURE	-1	n/a	LTP247	ltpFR	4	2	n/a	LAMP	798	0	1	n/a	n/a	n/a	n/a	n/a	n/a
-0.002	n/a	RECOG_RESP	-1	n/a	LTP247	ltpFR	4	2	n/a	LAMP	798	0	n/a	n/a	n/a	n/a	n/a	n/a	n/a
-0.002	n/a	RECOG_CONF	-1	n/a	LTP247	ltpFR	4	2	n/a	LAMP	798	n/a	1	n/a	n/a	n/a	n/a	n/a	n/a
-0.002	n/a	RECOG_TARGET	-1	n/a	LTP247	ltpFR	4	2	-1	WORM	1623	1	4	-1	n/a	n/a	n/a	n/a	n/a
-0.002	n/a	RECOG_RESP	-1	n/a	LTP247	ltpFR	4	2	-1	WORM	1623	1	n/a	-1	n/a	n/a	n/a	n/a	n/a
-0.002	n/a	RECOG_CONF	-1	n/a	LTP247	ltpFR	4	2	-1	WORM	1623	n/a	4	-1	n/a	n/a	n/a	n/a	n/a
-0.002	n/a	RECOG_TARGET	-1	n/a	LTP247	ltpFR	4	2	1	RUST	1219	1	3	0	n/a	n/a	n/a	n/a	n/a
-0.002	n/a	RECOG_RESP	-1	n/a	LTP247	ltpFR	4	2	1	RUST	1219	1	n/a	0	n/a	n/a	n/a	n/a	n/a
-0.002	n/a	RECOG_CONF	-1	n/a	LTP247	ltpFR	4	2	1	RUST	1219	n/a	3	0	n/a	n/a	n/a	n/a	n/a
-0.002	n/a	RECOG_LURE	-1	n/a	LTP247	ltpFR	4	2	n/a	HAMPER	682	0	2	n/a	n/a	n/a	n/a	n/a	n/a
-0.002	n/a	RECOG_RESP	-1	n/a	LTP247	ltpFR	4	2	n/a	HAMPER	682	0	n/a	n/a	n/a	n/a	n/a	n/a	n/a
-0.002	n/a	RECOG_CONF	-1	n/a	LTP247	ltpFR	4	2	n/a	HAMPER	682	n/a	2	n/a	n/a	n/a	n/a	n/a	n/a
-0.002	n/a	RECOG_TARGET	-1	n/a	LTP247	ltpFR	4	2	0	TROMBONE	1508	1	2	1	n/a	n/a	n/a	n/a	n/a
-0.002	n/a	RECOG_RESP	-1	n/a	LTP247	ltpFR	4	2	0	TROMBONE	1508	1	n/a	1	n/a	n/a	n/a	n/a	n/a
-0.002	n/a	RECOG_CONF	-1	n/a	LTP247	ltpFR	4	2	0	TROMBONE	1508	n/a	2	1	n/a	n/a	n/a	n/a	n/a
-0.002	n/a	RECOG_LURE	-1	n/a	LTP247	ltpFR	4	2	n/a	DRUM	502	0	1	n/a	n/a	n/a	n/a	n/a	n/a
-0.002	n/a	RECOG_RESP	-1	n/a	LTP247	ltpFR	4	2	n/a	DRUM	502	0	n/a	n/a	n/a	n/a	n/a	n/a	n/a
-0.002	n/a	RECOG_CONF	-1	n/a	LTP247	ltpFR	4	2	n/a	DRUM	502	n/a	1	n/a	n/a	n/a	n/a	n/a	n/a
-0.002	n/a	RECOG_LURE	-1	n/a	LTP247	ltpFR	4	2	n/a	CHEST	295	1	1	n/a	n/a	n/a	n/a	n/a	n/a
-0.002	n/a	RECOG_RESP	-1	n/a	LTP247	ltpFR	4	2	n/a	CHEST	295	1	n/a	n/a	n/a	n/a	n/a	n/a	n/a
-0.002	n/a	RECOG_CONF	-1	n/a	LTP247	ltpFR	4	2	n/a	CHEST	295	n/a	1	n/a	n/a	n/a	n/a	n/a	n/a
-0.002	n/a	RECOG_TARGET	-1	n/a	LTP247	ltpFR	4	2	0	PUDDING	1139	0	1	0	n/a	n/a	n/a	n/a	n/a
-0.002	n/a	RECOG_RESP	-1	n/a	LTP247	ltpFR	4	2	0	PUDDING	1139	0	n/a	0	n/a	n/a	n/a	n/a	n/a
-0.002	n/a	RECOG_CONF	-1	n/a	LTP247	ltpFR	4	2	0	PUDDING	1139	n/a	1	0	n/a	n/a	n/a	n/a	n/a
-0.002	n/a	RECOG_TARGET	-1	n/a	LTP247	ltpFR	4	2	-1	BEETLE	116	1	4	-1	n/a	n/a	n/a	n/a	n/a
-0.002	n/a	RECOG_RESP	-1	n/a	LTP247	ltpFR	4	2	-1	BEETLE	116	1	n/a	-1	n/a	n/a	n/a	n/a	n/a
-0.002	n/a	RECOG_CONF	-1	n/a	LTP247	ltpFR	4	2	-1	BEETLE	116	n/a	4	-1	n/a	n/a	n/a	n/a	n/a
-0.002	n/a	RECOG_TARGET	-1	n/a	LTP247	ltpFR	4	2	0	MEAL	882	1	5	1	n/a	n/a	n/a	n/a	n/a
-0.002	n/a	RECOG_RESP	-1	n/a	LTP247	ltpFR	4	2	0	MEAL	882	1	n/a	1	n/a	n/a	n/a	n/a	n/a
-0.002	n/a	RECOG_CONF	-1	n/a	LTP247	ltpFR	4	2	0	MEAL	882	n/a	5	1	n/a	n/a	n/a	n/a	n/a
-0.002	n/a	RECOG_LURE	-1	n/a	LTP247	ltpFR	4	2	n/a	FOREHEAD	592	0	1	n/a	n/a	n/a	n/a	n/a	n/a
-0.002	n/a	RECOG_RESP	-1	n/a	LTP247	ltpFR	4	2	n/a	FOREHEAD	592	0	n/a	n/a	n/a	n/a	n/a	n/a	n/a
-0.002	n/a	RECOG_CONF	-1	n/a	LTP247	ltpFR	4	2	n/a	FOREHEAD	592	n/a	1	n/a	n/a	n/a	n/a	n/a	n/a
-0.002	n/a	RECOG_TARGET	-1	n/a	LTP247	ltpFR	4	2	-1	ATTORNEY	58	1	2	-1	n/a	n/a	n/a	n/a	n/a
-0.002	n/a	RECOG_RESP	-1	n/a	LTP247	ltpFR	4	2	-1	ATTORNEY	58	1	n/a	-1	n/a	n/a	n/a	n/a	n/a
-0.002	n/a	RECOG_CONF	-1	n/a	LTP247	ltpFR	4	2	-1	ATTORNEY	58	n/a	2	-1	n/a	n/a	n/a	n/a	n/a
-0.002	n/a	RECOG_TARGET	-1	n/a	LTP247	ltpFR	4	2	-1	OFFICER	973	1	4	-1	n/a	n/a	n/a	n/a	n/a
-0.002	n/a	RECOG_RESP	-1	n/a	LTP247	ltpFR	4	2	-1	OFFICER	973	1	n/a	-1	n/a	n/a	n/a	n/a	n/a
-0.002	n/a	RECOG_CONF	-1	n/a	LTP247	ltpFR	4	2	-1	OFFICER	973	n/a	4	-1	n/a	n/a	n/a	n/a	n/a
-0.002	n/a	RECOG_TARGET	-1	n/a	LTP247	ltpFR	4	2	1	SHEPHERD	1283	1	3	1	n/a	n/a	n/a	n/a	n/a
-0.002	n/a	RECOG_RESP	-1	n/a	LTP247	ltpFR	4	2	1	SHEPHERD	1283	1	n/a	1	n/a	n/a	n/a	n/a	n/a
-0.002	n/a	RECOG_CONF	-1	n/a	LTP247	ltpFR	4	2	1	SHEPHERD	1283	n/a	3	1	n/a	n/a	n/a	n/a	n/a
-0.002	n/a	REC_START	-1	n/a	LTP247	ltpFR	4	3	n/a	n/a	n/a	n/a	n/a	n/a	n/a	n/a	n/a	n/a	n/a
-0.002	n/a	RECOG_LURE	-1	n/a	LTP247	ltpFR	4	3	n/a	VIRUS	1572	0	2	n/a	n/a	n/a	n/a	n/a	n/a
-0.002	n/a	RECOG_RESP	-1	n/a	LTP247	ltpFR	4	3	n/a	VIRUS	1572	0	n/a	n/a	n/a	n/a	n/a	n/a	n/a
-0.002	n/a	RECOG_CONF	-1	n/a	LTP247	ltpFR	4	3	n/a	VIRUS	1572	n/a	2	n/a	n/a	n/a	n/a	n/a	n/a
-0.002	n/a	RECOG_LURE	-1	n/a	LTP247	ltpFR	4	3	n/a	EDITOR	516	0	1	n/a	n/a	n/a	n/a	n/a	n/a
-0.002	n/a	RECOG_RESP	-1	n/a	LTP247	ltpFR	4	3	n/a	EDITOR	516	0	n/a	n/a	n/a	n/a	n/a	n/a	n/a
-0.002	n/a	RECOG_CONF	-1	n/a	LTP247	ltpFR	4	3	n/a	EDITOR	516	n/a	1	n/a	n/a	n/a	n/a	n/a	n/a
-0.002	n/a	RECOG_LURE	-1	n/a	LTP247	ltpFR	4	3	n/a	STRANGER	1389	1	1	n/a	n/a	n/a	n/a	n/a	n/a
-0.002	n/a	RECOG_RESP	-1	n/a	LTP247	ltpFR	4	3	n/a	STRANGER	1389	1	n/a	n/a	n/a	n/a	n/a	n/a	n/a
-0.002	n/a	RECOG_CONF	-1	n/a	LTP247	ltpFR	4	3	n/a	STRANGER	1389	n/a	1	n/a	n/a	n/a	n/a	n/a	n/a
-0.002	n/a	RECOG_TARGET	-1	n/a	LTP247	ltpFR	4	3	0	BOAT	144	1	3	1	n/a	n/a	n/a	n/a	n/a
-0.002	n/a	RECOG_RESP	-1	n/a	LTP247	ltpFR	4	3	0	BOAT	144	1	n/a	1	n/a	n/a	n/a	n/a	n/a
-0.002	n/a	RECOG_CONF	-1	n/a	LTP247	ltpFR	4	3	0	BOAT	144	n/a	3	1	n/a	n/a	n/a	n/a	n/a
-0.002	n/a	RECOG_TARGET	-1	n/a	LTP247	ltpFR	4	3	1	FIELD	562	1	3	0	n/a	n/a	n/a	n/a	n/a
-0.002	n/a	RECOG_RESP	-1	n/a	LTP247	ltpFR	4	3	1	FIELD	562	1	n/a	0	n/a	n/a	n/a	n/a	n/a
-0.002	n/a	RECOG_CONF	-1	n/a	LTP247	ltpFR	4	3	1	FIELD	562	n/a	3	0	n/a	n/a	n/a	n/a	n/a
-0.002	n/a	RECOG_TARGET	-1	n/a	LTP247	ltpFR	4	3	1	BARRACUDA	90	1	5	1	n/a	n/a	n/a	n/a	n/a
-0.002	n/a	RECOG_RESP	-1	n/a	LTP247	ltpFR	4	3	1	BARRACUDA	90	1	n/a	1	n/a	n/a	n/a	n/a	n/a
-0.002	n/a	RECOG_CONF	-1	n/a	LTP247	ltpFR	4	3	1	BARRACUDA	90	n/a	5	1	n/a	n/a	n/a	n/a	n/a
-0.002	n/a	RECOG_TARGET	-1	n/a	LTP247	ltpFR	4	3	-1	MOUSE	925	1	4	-1	n/a	n/a	n/a	n/a	n/a
-0.002	n/a	RECOG_RESP	-1	n/a	LTP247	ltpFR	4	3	-1	MOUSE	925	1	n/a	-1	n/a	n/a	n/a	n/a	n/a
-0.002	n/a	RECOG_CONF	-1	n/a	LTP247	ltpFR	4	3	-1	MOUSE	925	n/a	4	-1	n/a	n/a	n/a	n/a	n/a
-0.002	n/a	RECOG_LURE	-1	n/a	LTP247	ltpFR	4	3	n/a	FIGHTER	564	0	2	n/a	n/a	n/a	n/a	n/a	n/a
-0.002	n/a	RECOG_RESP	-1	n/a	LTP247	ltpFR	4	3	n/a	FIGHTER	564	0	n/a	n/a	n/a	n/a	n/a	n/a	n/a
-0.002	n/a	RECOG_CONF	-1	n/a	LTP247	ltpFR	4	3	n/a	FIGHTER	564	n/a	2	n/a	n/a	n/a	n/a	n/a	n/a
-0.002	n/a	RECOG_LURE	-1	n/a	LTP247	ltpFR	4	3	n/a	TOMB	1477	0	3	n/a	n/a	n/a	n/a	n/a	n/a
-0.002	n/a	RECOG_RESP	-1	n/a	LTP247	ltpFR	4	3	n/a	TOMB	1477	0	n/a	n/a	n/a	n/a	n/a	n/a	n/a
-0.002	n/a	RECOG_CONF	-1	n/a	LTP247	ltpFR	4	3	n/a	TOMB	1477	n/a	3	n/a	n/a	n/a	n/a	n/a	n/a
-0.002	n/a	RECOG_LURE	-1	n/a	LTP247	ltpFR	4	3	n/a	STRAW	1390	0	1	n/a	n/a	n/a	n/a	n/a	n/a
-0.002	n/a	RECOG_RESP	-1	n/a	LTP247	ltpFR	4	3	n/a	STRAW	1390	0	n/a	n/a	n/a	n/a	n/a	n/a	n/a
-0.002	n/a	RECOG_CONF	-1	n/a	LTP247	ltpFR	4	3	n/a	STRAW	1390	n/a	1	n/a	n/a	n/a	n/a	n/a	n/a
-0.002	n/a	RECOG_TARGET	-1	n/a	LTP247	ltpFR	4	3	1	POLYESTER	1100	1	3	0	n/a	n/a	n/a	n/a	n/a
-0.002	n/a	RECOG_RESP	-1	n/a	LTP247	ltpFR	4	3	1	POLYESTER	1100	1	n/a	0	n/a	n/a	n/a	n/a	n/a
-0.002	n/a	RECOG_CONF	-1	n/a	LTP247	ltpFR	4	3	1	POLYESTER	1100	n/a	3	0	n/a	n/a	n/a	n/a	n/a
-0.002	n/a	RECOG_TARGET	-1	n/a	LTP247	ltpFR	4	3	1	PARROT	1015	1	4	1	n/a	n/a	n/a	n/a	n/a
-0.002	n/a	RECOG_RESP	-1	n/a	LTP247	ltpFR	4	3	1	PARROT	1015	1	n/a	1	n/a	n/a	n/a	n/a	n/a
-0.002	n/a	RECOG_CONF	-1	n/a	LTP247	ltpFR	4	3	1	PARROT	1015	n/a	4	1	n/a	n/a	n/a	n/a	n/a
-0.002	n/a	RECOG_TARGET	-1	n/a	LTP247	ltpFR	4	3	0	TART	1436	1	4	0	n/a	n/a	n/a	n/a	n/a
-0.002	n/a	RECOG_RESP	-1	n/a	LTP247	ltpFR	4	3	0	TART	1436	1	n/a	0	n/a	n/a	n/a	n/a	n/a
-0.002	n/a	RECOG_CONF	-1	n/a	LTP247	ltpFR	4	3	0	TART	1436	n/a	4	0	n/a	n/a	n/a	n/a	n/a
-0.002	n/a	RECOG_LURE	-1	n/a	LTP247	ltpFR	4	3	n/a	MINT	898	0	4	n/a	n/a	n/a	n/a	n/a	n/a
-0.002	n/a	RECOG_RESP	-1	n/a	LTP247	ltpFR	4	3	n/a	MINT	898	0	n/a	n/a	n/a	n/a	n/a	n/a	n/a
-0.002	n/a	RECOG_CONF	-1	n/a	LTP247	ltpFR	4	3	n/a	MINT	898	n/a	4	n/a	n/a	n/a	n/a	n/a	n/a
-0.002	n/a	RECOG_TARGET	-1	n/a	LTP247	ltpFR	4	3	0	SILVERWARE	1308	1	4	0	n/a	n/a	n/a	n/a	n/a
-0.002	n/a	RECOG_RESP	-1	n/a	LTP247	ltpFR	4	3	0	SILVERWARE	1308	1	n/a	0	n/a	n/a	n/a	n/a	n/a
-0.002	n/a	RECOG_CONF	-1	n/a	LTP247	ltpFR	4	3	0	SILVERWARE	1308	n/a	4	0	n/a	n/a	n/a	n/a	n/a
-0.002	n/a	RECOG_TARGET	-1	n/a	LTP247	ltpFR	4	3	0	CRAB	397	1	5	0	n/a	n/a	n/a	n/a	n/a
-0.002	n/a	RECOG_RESP	-1	n/a	LTP247	ltpFR	4	3	0	CRAB	397	1	n/a	0	n/a	n/a	n/a	n/a	n/a
-0.002	n/a	RECOG_CONF	-1	n/a	LTP247	ltpFR	4	3	0	CRAB	397	n/a	5	0	n/a	n/a	n/a	n/a	n/a
-0.002	n/a	RECOG_LURE	-1	n/a	LTP247	ltpFR	4	3	n/a	WINE	1613	0	3	n/a	n/a	n/a	n/a	n/a	n/a
-0.002	n/a	RECOG_RESP	-1	n/a	LTP247	ltpFR	4	3	n/a	WINE	1613	0	n/a	n/a	n/a	n/a	n/a	n/a	n/a
-0.002	n/a	RECOG_CONF	-1	n/a	LTP247	ltpFR	4	3	n/a	WINE	1613	n/a	3	n/a	n/a	n/a	n/a	n/a	n/a
-0.002	n/a	RECOG_TARGET	-1	n/a	LTP247	ltpFR	4	3	1	BANKER	84	1	3	1	n/a	n/a	n/a	n/a	n/a
-0.002	n/a	RECOG_RESP	-1	n/a	LTP247	ltpFR	4	3	1	BANKER	84	1	n/a	1	n/a	n/a	n/a	n/a	n/a
-0.002	n/a	RECOG_CONF	-1	n/a	LTP247	ltpFR	4	3	1	BANKER	84	n/a	3	1	n/a	n/a	n/a	n/a	n/a
-0.002	n/a	RECOG_LURE	-1	n/a	LTP247	ltpFR	4	3	n/a	LONDON	843	0	4	n/a	n/a	n/a	n/a	n/a	n/a
-0.002	n/a	RECOG_RESP	-1	n/a	LTP247	ltpFR	4	3	n/a	LONDON	843	0	n/a	n/a	n/a	n/a	n/a	n/a	n/a
-0.002	n/a	RECOG_CONF	-1	n/a	LTP247	ltpFR	4	3	n/a	LONDON	843	n/a	4	n/a	n/a	n/a	n/a	n/a	n/a
-0.002	n/a	RECOG_LURE	-1	n/a	LTP247	ltpFR	4	3	n/a	SOLDIER	1344	1	2	n/a	n/a	n/a	n/a	n/a	n/a
-0.002	n/a	RECOG_RESP	-1	n/a	LTP247	ltpFR	4	3	n/a	SOLDIER	1344	1	n/a	n/a	n/a	n/a	n/a	n/a	n/a
-0.002	n/a	RECOG_CONF	-1	n/a	LTP247	ltpFR	4	3	n/a	SOLDIER	1344	n/a	2	n/a	n/a	n/a	n/a	n/a	n/a
-0.002	n/a	REC_START	-1	n/a	LTP247	ltpFR	4	4	n/a	n/a	n/a	n/a	n/a	n/a	n/a	n/a	n/a	n/a	n/a
-0.002	n/a	RECOG_LURE	-1	n/a	LTP247	ltpFR	4	4	n/a	DIGGER	464	0	1	n/a	n/a	n/a	n/a	n/a	n/a
-0.002	n/a	RECOG_RESP	-1	n/a	LTP247	ltpFR	4	4	n/a	DIGGER	464	0	n/a	n/a	n/a	n/a	n/a	n/a	n/a
-0.002	n/a	RECOG_CONF	-1	n/a	LTP247	ltpFR	4	4	n/a	DIGGER	464	n/a	1	n/a	n/a	n/a	n/a	n/a	n/a
-0.002	n/a	RECOG_LURE	-1	n/a	LTP247	ltpFR	4	4	n/a	PERMIT	1051	0	3	n/a	n/a	n/a	n/a	n/a	n/a
-0.002	n/a	RECOG_RESP	-1	n/a	LTP247	ltpFR	4	4	n/a	PERMIT	1051	0	n/a	n/a	n/a	n/a	n/a	n/a	n/a
-0.002	n/a	RECOG_CONF	-1	n/a	LTP247	ltpFR	4	4	n/a	PERMIT	1051	n/a	3	n/a	n/a	n/a	n/a	n/a	n/a
-0.002	n/a	RECOG_TARGET	-1	n/a	LTP247	ltpFR	4	4	-1	KITE	779	1	4	-1	n/a	n/a	n/a	n/a	n/a
-0.002	n/a	RECOG_RESP	-1	n/a	LTP247	ltpFR	4	4	-1	KITE	779	1	n/a	-1	n/a	n/a	n/a	n/a	n/a
-0.002	n/a	RECOG_CONF	-1	n/a	LTP247	ltpFR	4	4	-1	KITE	779	n/a	4	-1	n/a	n/a	n/a	n/a	n/a
-0.002	n/a	RECOG_TARGET	-1	n/a	LTP247	ltpFR	4	4	-1	PALM	1007	1	4	-1	n/a	n/a	n/a	n/a	n/a
-0.002	n/a	RECOG_RESP	-1	n/a	LTP247	ltpFR	4	4	-1	PALM	1007	1	n/a	-1	n/a	n/a	n/a	n/a	n/a
-0.002	n/a	RECOG_CONF	-1	n/a	LTP247	ltpFR	4	4	-1	PALM	1007	n/a	4	-1	n/a	n/a	n/a	n/a	n/a
-0.002	n/a	RECOG_LURE	-1	n/a	LTP247	ltpFR	4	4	n/a	COMMUNITY	356	0	2	n/a	n/a	n/a	n/a	n/a	n/a
-0.002	n/a	RECOG_RESP	-1	n/a	LTP247	ltpFR	4	4	n/a	COMMUNITY	356	0	n/a	n/a	n/a	n/a	n/a	n/a	n/a
-0.002	n/a	RECOG_CONF	-1	n/a	LTP247	ltpFR	4	4	n/a	COMMUNITY	356	n/a	2	n/a	n/a	n/a	n/a	n/a	n/a
-0.002	n/a	RECOG_TARGET	-1	n/a	LTP247	ltpFR	4	4	-1	RESORT	1186	0	1	-1	n/a	n/a	n/a	n/a	n/a
-0.002	n/a	RECOG_RESP	-1	n/a	LTP247	ltpFR	4	4	-1	RESORT	1186	0	n/a	-1	n/a	n/a	n/a	n/a	n/a
-0.002	n/a	RECOG_CONF	-1	n/a	LTP247	ltpFR	4	4	-1	RESORT	1186	n/a	1	-1	n/a	n/a	n/a	n/a	n/a
-0.002	n/a	RECOG_TARGET	-1	n/a	LTP247	ltpFR	4	4	-1	LABYRINTH	791	1	5	-1	n/a	n/a	n/a	n/a	n/a
-0.002	n/a	RECOG_RESP	-1	n/a	LTP247	ltpFR	4	4	-1	LABYRINTH	791	1	n/a	-1	n/a	n/a	n/a	n/a	n/a
-0.002	n/a	RECOG_CONF	-1	n/a	LTP247	ltpFR	4	4	-1	LABYRINTH	791	n/a	5	-1	n/a	n/a	n/a	n/a	n/a
-0.002	n/a	RECOG_LURE	-1	n/a	LTP247	ltpFR	4	4	n/a	DOG	480	0	3	n/a	n/a	n/a	n/a	n/a	n/a
-0.002	n/a	RECOG_RESP	-1	n/a	LTP247	ltpFR	4	4	n/a	DOG	480	0	n/a	n/a	n/a	n/a	n/a	n/a	n/a
-0.002	n/a	RECOG_CONF	-1	n/a	LTP247	ltpFR	4	4	n/a	DOG	480	n/a	3	n/a	n/a	n/a	n/a	n/a	n/a
-0.002	n/a	RECOG_LURE	-1	n/a	LTP247	ltpFR	4	4	n/a	FIREMAN	569	0	3	n/a	n/a	n/a	n/a	n/a	n/a
-0.002	n/a	RECOG_RESP	-1	n/a	LTP247	ltpFR	4	4	n/a	FIREMAN	569	0	n/a	n/a	n/a	n/a	n/a	n/a	n/a
-0.002	n/a	RECOG_CONF	-1	n/a	LTP247	ltpFR	4	4	n/a	FIREMAN	569	n/a	3	n/a	n/a	n/a	n/a	n/a	n/a
-0.002	n/a	RECOG_TARGET	-1	n/a	LTP247	ltpFR	4	4	1	UNIFORM	1539	1	4	0	n/a	n/a	n/a	n/a	n/a
-0.002	n/a	RECOG_RESP	-1	n/a	LTP247	ltpFR	4	4	1	UNIFORM	1539	1	n/a	0	n/a	n/a	n/a	n/a	n/a
-0.002	n/a	RECOG_CONF	-1	n/a	LTP247	ltpFR	4	4	1	UNIFORM	1539	n/a	4	0	n/a	n/a	n/a	n/a	n/a
-0.002	n/a	RECOG_LURE	-1	n/a	LTP247	ltpFR	4	4	n/a	DENTIST	447	0	4	n/a	n/a	n/a	n/a	n/a	n/a
-0.002	n/a	RECOG_RESP	-1	n/a	LTP247	ltpFR	4	4	n/a	DENTIST	447	0	n/a	n/a	n/a	n/a	n/a	n/a	n/a
-0.002	n/a	RECOG_CONF	-1	n/a	LTP247	ltpFR	4	4	n/a	DENTIST	447	n/a	4	n/a	n/a	n/a	n/a	n/a	n/a
-0.002	n/a	RECOG_LURE	-1	n/a	LTP247	ltpFR	4	4	n/a	SHRIMP	1297	1	1	n/a	n/a	n/a	n/a	n/a	n/a
-0.002	n/a	RECOG_RESP	-1	n/a	LTP247	ltpFR	4	4	n/a	SHRIMP	1297	1	n/a	n/a	n/a	n/a	n/a	n/a	n/a
-0.002	n/a	RECOG_CONF	-1	n/a	LTP247	ltpFR	4	4	n/a	SHRIMP	1297	n/a	1	n/a	n/a	n/a	n/a	n/a	n/a
-0.002	n/a	RECOG_LURE	-1	n/a	LTP247	ltpFR	4	4	n/a	CHEESE	289	0	1	n/a	n/a	n/a	n/a	n/a	n/a
-0.002	n/a	RECOG_RESP	-1	n/a	LTP247	ltpFR	4	4	n/a	CHEESE	289	0	n/a	n/a	n/a	n/a	n/a	n/a	n/a
-0.002	n/a	RECOG_CONF	-1	n/a	LTP247	ltpFR	4	4	n/a	CHEESE	289	n/a	1	n/a	n/a	n/a	n/a	n/a	n/a
-0.002	n/a	RECOG_LURE	-1	n/a	LTP247	ltpFR	4	4	n/a	TRIGGER	1507	0	1	n/a	n/a	n/a	n/a	n/a	n/a
-0.002	n/a	RECOG_RESP	-1	n/a	LTP247	ltpFR	4	4	n/a	TRIGGER	1507	0	n/a	n/a	n/a	n/a	n/a	n/a	n/a
-0.002	n/a	RECOG_CONF	-1	n/a	LTP247	ltpFR	4	4	n/a	TRIGGER	1507	n/a	1	n/a	n/a	n/a	n/a	n/a	n/a
-0.002	n/a	RECOG_TARGET	-1	n/a	LTP247	ltpFR	4	4	0	HEN	703	1	4	1	n/a	n/a	n/a	n/a	n/a
-0.002	n/a	RECOG_RESP	-1	n/a	LTP247	ltpFR	4	4	0	HEN	703	1	n/a	1	n/a	n/a	n/a	n/a	n/a
-0.002	n/a	RECOG_CONF	-1	n/a	LTP247	ltpFR	4	4	0	HEN	703	n/a	4	1	n/a	n/a	n/a	n/a	n/a
-0.002	n/a	RECOG_TARGET	-1	n/a	LTP247	ltpFR	4	4	1	VEGETABLE	1552	1	5	0	n/a	n/a	n/a	n/a	n/a
-0.002	n/a	RECOG_RESP	-1	n/a	LTP247	ltpFR	4	4	1	VEGETABLE	1552	1	n/a	0	n/a	n/a	n/a	n/a	n/a
-0.002	n/a	RECOG_CONF	-1	n/a	LTP247	ltpFR	4	4	1	VEGETABLE	1552	n/a	5	0	n/a	n/a	n/a	n/a	n/a
-0.002	n/a	RECOG_LURE	-1	n/a	LTP247	ltpFR	4	4	n/a	TROUT	1511	0	3	n/a	n/a	n/a	n/a	n/a	n/a
-0.002	n/a	RECOG_RESP	-1	n/a	LTP247	ltpFR	4	4	n/a	TROUT	1511	0	n/a	n/a	n/a	n/a	n/a	n/a	n/a
-0.002	n/a	RECOG_CONF	-1	n/a	LTP247	ltpFR	4	4	n/a	TROUT	1511	n/a	3	n/a	n/a	n/a	n/a	n/a	n/a
-0.002	n/a	RECOG_TARGET	-1	n/a	LTP247	ltpFR	4	4	0	RAIL	1161	1	4	1	n/a	n/a	n/a	n/a	n/a
-0.002	n/a	RECOG_RESP	-1	n/a	LTP247	ltpFR	4	4	0	RAIL	1161	1	n/a	1	n/a	n/a	n/a	n/a	n/a
-0.002	n/a	RECOG_CONF	-1	n/a	LTP247	ltpFR	4	4	0	RAIL	1161	n/a	4	1	n/a	n/a	n/a	n/a	n/a
-0.002	n/a	RECOG_LURE	-1	n/a	LTP247	ltpFR	4	4	n/a	PORCUPINE	1107	0	4	n/a	n/a	n/a	n/a	n/a	n/a
-0.002	n/a	RECOG_RESP	-1	n/a	LTP247	ltpFR	4	4	n/a	PORCUPINE	1107	0	n/a	n/a	n/a	n/a	n/a	n/a	n/a
-0.002	n/a	RECOG_CONF	-1	n/a	LTP247	ltpFR	4	4	n/a	PORCUPINE	1107	n/a	4	n/a	n/a	n/a	n/a	n/a	n/a
-0.002	n/a	RECOG_LURE	-1	n/a	LTP247	ltpFR	4	4	n/a	SPARROW	1347	0	4	n/a	n/a	n/a	n/a	n/a	n/a
-0.002	n/a	RECOG_RESP	-1	n/a	LTP247	ltpFR	4	4	n/a	SPARROW	1347	0	n/a	n/a	n/a	n/a	n/a	n/a	n/a
-0.002	n/a	RECOG_CONF	-1	n/a	LTP247	ltpFR	4	4	n/a	SPARROW	1347	n/a	4	n/a	n/a	n/a	n/a	n/a	n/a
-0.002	n/a	REC_START	-1	n/a	LTP247	ltpFR	4	5	n/a	n/a	n/a	n/a	n/a	n/a	n/a	n/a	n/a	n/a	n/a
-0.002	n/a	RECOG_LURE	-1	n/a	LTP247	ltpFR	4	5	n/a	OPERA	978	0	3	n/a	n/a	n/a	n/a	n/a	n/a
-0.002	n/a	RECOG_RESP	-1	n/a	LTP247	ltpFR	4	5	n/a	OPERA	978	0	n/a	n/a	n/a	n/a	n/a	n/a	n/a
-0.002	n/a	RECOG_CONF	-1	n/a	LTP247	ltpFR	4	5	n/a	OPERA	978	n/a	3	n/a	n/a	n/a	n/a	n/a	n/a
-0.002	n/a	RECOG_TARGET	-1	n/a	LTP247	ltpFR	4	5	-1	PADDING	999	1	4	-1	n/a	n/a	n/a	n/a	n/a
-0.002	n/a	RECOG_RESP	-1	n/a	LTP247	ltpFR	4	5	-1	PADDING	999	1	n/a	-1	n/a	n/a	n/a	n/a	n/a
-0.002	n/a	RECOG_CONF	-1	n/a	LTP247	ltpFR	4	5	-1	PADDING	999	n/a	4	-1	n/a	n/a	n/a	n/a	n/a
-0.002	n/a	RECOG_LURE	-1	n/a	LTP247	ltpFR	4	5	n/a	PITCHFORK	1078	0	2	n/a	n/a	n/a	n/a	n/a	n/a
-0.002	n/a	RECOG_RESP	-1	n/a	LTP247	ltpFR	4	5	n/a	PITCHFORK	1078	0	n/a	n/a	n/a	n/a	n/a	n/a	n/a
-0.002	n/a	RECOG_CONF	-1	n/a	LTP247	ltpFR	4	5	n/a	PITCHFORK	1078	n/a	2	n/a	n/a	n/a	n/a	n/a	n/a
-0.002	n/a	RECOG_LURE	-1	n/a	LTP247	ltpFR	4	5	n/a	SURVEY	1414	0	3	n/a	n/a	n/a	n/a	n/a	n/a
-0.002	n/a	RECOG_RESP	-1	n/a	LTP247	ltpFR	4	5	n/a	SURVEY	1414	0	n/a	n/a	n/a	n/a	n/a	n/a	n/a
-0.002	n/a	RECOG_CONF	-1	n/a	LTP247	ltpFR	4	5	n/a	SURVEY	1414	n/a	3	n/a	n/a	n/a	n/a	n/a	n/a
-0.002	n/a	RECOG_LURE	-1	n/a	LTP247	ltpFR	4	5	n/a	LITERATURE	831	0	3	n/a	n/a	n/a	n/a	n/a	n/a
-0.002	n/a	RECOG_RESP	-1	n/a	LTP247	ltpFR	4	5	n/a	LITERATURE	831	0	n/a	n/a	n/a	n/a	n/a	n/a	n/a
-0.002	n/a	RECOG_CONF	-1	n/a	LTP247	ltpFR	4	5	n/a	LITERATURE	831	n/a	3	n/a	n/a	n/a	n/a	n/a	n/a
-0.002	n/a	RECOG_LURE	-1	n/a	LTP247	ltpFR	4	5	n/a	ROCK	1201	0	2	n/a	n/a	n/a	n/a	n/a	n/a
-0.002	n/a	RECOG_RESP	-1	n/a	LTP247	ltpFR	4	5	n/a	ROCK	1201	0	n/a	n/a	n/a	n/a	n/a	n/a	n/a
-0.002	n/a	RECOG_CONF	-1	n/a	LTP247	ltpFR	4	5	n/a	ROCK	1201	n/a	2	n/a	n/a	n/a	n/a	n/a	n/a
-0.002	n/a	RECOG_LURE	-1	n/a	LTP247	ltpFR	4	5	n/a	SHACK	1273	0	3	n/a	n/a	n/a	n/a	n/a	n/a
-0.002	n/a	RECOG_RESP	-1	n/a	LTP247	ltpFR	4	5	n/a	SHACK	1273	0	n/a	n/a	n/a	n/a	n/a	n/a	n/a
-0.002	n/a	RECOG_CONF	-1	n/a	LTP247	ltpFR	4	5	n/a	SHACK	1273	n/a	3	n/a	n/a	n/a	n/a	n/a	n/a
-0.002	n/a	RECOG_LURE	-1	n/a	LTP247	ltpFR	4	5	n/a	LAPEL	800	0	4	n/a	n/a	n/a	n/a	n/a	n/a
-0.002	n/a	RECOG_RESP	-1	n/a	LTP247	ltpFR	4	5	n/a	LAPEL	800	0	n/a	n/a	n/a	n/a	n/a	n/a	n/a
-0.002	n/a	RECOG_CONF	-1	n/a	LTP247	ltpFR	4	5	n/a	LAPEL	800	n/a	4	n/a	n/a	n/a	n/a	n/a	n/a
-0.002	n/a	RECOG_LURE	-1	n/a	LTP247	ltpFR	4	5	n/a	JACKET	747	0	3	n/a	n/a	n/a	n/a	n/a	n/a
-0.002	n/a	RECOG_RESP	-1	n/a	LTP247	ltpFR	4	5	n/a	JACKET	747	0	n/a	n/a	n/a	n/a	n/a	n/a	n/a
-0.002	n/a	RECOG_CONF	-1	n/a	LTP247	ltpFR	4	5	n/a	JACKET	747	n/a	3	n/a	n/a	n/a	n/a	n/a	n/a
-0.002	n/a	RECOG_LURE	-1	n/a	LTP247	ltpFR	4	5	n/a	CANNON	232	0	3	n/a	n/a	n/a	n/a	n/a	n/a
-0.002	n/a	RECOG_RESP	-1	n/a	LTP247	ltpFR	4	5	n/a	CANNON	232	0	n/a	n/a	n/a	n/a	n/a	n/a	n/a
-0.002	n/a	RECOG_CONF	-1	n/a	LTP247	ltpFR	4	5	n/a	CANNON	232	n/a	3	n/a	n/a	n/a	n/a	n/a	n/a
-0.002	n/a	RECOG_TARGET	-1	n/a	LTP247	ltpFR	4	5	-1	BULB	192	1	3	-1	n/a	n/a	n/a	n/a	n/a
-0.002	n/a	RECOG_RESP	-1	n/a	LTP247	ltpFR	4	5	-1	BULB	192	1	n/a	-1	n/a	n/a	n/a	n/a	n/a
-0.002	n/a	RECOG_CONF	-1	n/a	LTP247	ltpFR	4	5	-1	BULB	192	n/a	3	-1	n/a	n/a	n/a	n/a	n/a
-0.002	n/a	RECOG_TARGET	-1	n/a	LTP247	ltpFR	4	5	0	CALF	222	1	4	1	n/a	n/a	n/a	n/a	n/a
-0.002	n/a	RECOG_RESP	-1	n/a	LTP247	ltpFR	4	5	0	CALF	222	1	n/a	1	n/a	n/a	n/a	n/a	n/a
-0.002	n/a	RECOG_CONF	-1	n/a	LTP247	ltpFR	4	5	0	CALF	222	n/a	4	1	n/a	n/a	n/a	n/a	n/a
-0.002	n/a	RECOG_LURE	-1	n/a	LTP247	ltpFR	4	5	n/a	ORANGE	980	0	4	n/a	n/a	n/a	n/a	n/a	n/a
-0.002	n/a	RECOG_RESP	-1	n/a	LTP247	ltpFR	4	5	n/a	ORANGE	980	0	n/a	n/a	n/a	n/a	n/a	n/a	n/a
-0.002	n/a	RECOG_CONF	-1	n/a	LTP247	ltpFR	4	5	n/a	ORANGE	980	n/a	4	n/a	n/a	n/a	n/a	n/a	n/a
-0.002	n/a	RECOG_TARGET	-1	n/a	LTP247	ltpFR	4	5	-1	SKI	1316	1	5	-1	n/a	n/a	n/a	n/a	n/a
-0.002	n/a	RECOG_RESP	-1	n/a	LTP247	ltpFR	4	5	-1	SKI	1316	1	n/a	-1	n/a	n/a	n/a	n/a	n/a
-0.002	n/a	RECOG_CONF	-1	n/a	LTP247	ltpFR	4	5	-1	SKI	1316	n/a	5	-1	n/a	n/a	n/a	n/a	n/a
-0.002	n/a	RECOG_LURE	-1	n/a	LTP247	ltpFR	4	5	n/a	STAFF	1365	0	2	n/a	n/a	n/a	n/a	n/a	n/a
-0.002	n/a	RECOG_RESP	-1	n/a	LTP247	ltpFR	4	5	n/a	STAFF	1365	0	n/a	n/a	n/a	n/a	n/a	n/a	n/a
-0.002	n/a	RECOG_CONF	-1	n/a	LTP247	ltpFR	4	5	n/a	STAFF	1365	n/a	2	n/a	n/a	n/a	n/a	n/a	n/a
-0.002	n/a	RECOG_TARGET	-1	n/a	LTP247	ltpFR	4	5	-1	UNDERWEAR	1537	1	3	-1	n/a	n/a	n/a	n/a	n/a
-0.002	n/a	RECOG_RESP	-1	n/a	LTP247	ltpFR	4	5	-1	UNDERWEAR	1537	1	n/a	-1	n/a	n/a	n/a	n/a	n/a
-0.002	n/a	RECOG_CONF	-1	n/a	LTP247	ltpFR	4	5	-1	UNDERWEAR	1537	n/a	3	-1	n/a	n/a	n/a	n/a	n/a
-0.002	n/a	RECOG_TARGET	-1	n/a	LTP247	ltpFR	4	5	1	REFEREE	1178	1	4	1	n/a	n/a	n/a	n/a	n/a
-0.002	n/a	RECOG_RESP	-1	n/a	LTP247	ltpFR	4	5	1	REFEREE	1178	1	n/a	1	n/a	n/a	n/a	n/a	n/a
-0.002	n/a	RECOG_CONF	-1	n/a	LTP247	ltpFR	4	5	1	REFEREE	1178	n/a	4	1	n/a	n/a	n/a	n/a	n/a
-0.002	n/a	RECOG_TARGET	-1	n/a	LTP247	ltpFR	4	5	1	MAID	856	1	5	1	n/a	n/a	n/a	n/a	n/a
-0.002	n/a	RECOG_RESP	-1	n/a	LTP247	ltpFR	4	5	1	MAID	856	1	n/a	1	n/a	n/a	n/a	n/a	n/a
-0.002	n/a	RECOG_CONF	-1	n/a	LTP247	ltpFR	4	5	1	MAID	856	n/a	5	1	n/a	n/a	n/a	n/a	n/a
-0.002	n/a	RECOG_LURE	-1	n/a	LTP247	ltpFR	4	5	n/a	DIAGRAM	456	0	3	n/a	n/a	n/a	n/a	n/a	n/a
-0.002	n/a	RECOG_RESP	-1	n/a	LTP247	ltpFR	4	5	n/a	DIAGRAM	456	0	n/a	n/a	n/a	n/a	n/a	n/a	n/a
-0.002	n/a	RECOG_CONF	-1	n/a	LTP247	ltpFR	4	5	n/a	DIAGRAM	456	n/a	3	n/a	n/a	n/a	n/a	n/a	n/a
-0.002	n/a	RECOG_LURE	-1	n/a	LTP247	ltpFR	4	5	n/a	STUMP	1396	0	2	n/a	n/a	n/a	n/a	n/a	n/a
-0.002	n/a	RECOG_RESP	-1	n/a	LTP247	ltpFR	4	5	n/a	STUMP	1396	0	n/a	n/a	n/a	n/a	n/a	n/a	n/a
-0.002	n/a	RECOG_CONF	-1	n/a	LTP247	ltpFR	4	5	n/a	STUMP	1396	n/a	2	n/a	n/a	n/a	n/a	n/a	n/a
-0.002	n/a	REC_START	-1	n/a	LTP247	ltpFR	4	6	n/a	n/a	n/a	n/a	n/a	n/a	n/a	n/a	n/a	n/a	n/a
-0.002	n/a	RECOG_TARGET	-1	n/a	LTP247	ltpFR	4	6	0	ASTEROID	50	1	4	1	n/a	n/a	n/a	n/a	n/a
-0.002	n/a	RECOG_RESP	-1	n/a	LTP247	ltpFR	4	6	0	ASTEROID	50	1	n/a	1	n/a	n/a	n/a	n/a	n/a
-0.002	n/a	RECOG_CONF	-1	n/a	LTP247	ltpFR	4	6	0	ASTEROID	50	n/a	4	1	n/a	n/a	n/a	n/a	n/a
-0.002	n/a	RECOG_TARGET	-1	n/a	LTP247	ltpFR	4	6	0	WORKER	1621	1	2	1	n/a	n/a	n/a	n/a	n/a
-0.002	n/a	RECOG_RESP	-1	n/a	LTP247	ltpFR	4	6	0	WORKER	1621	1	n/a	1	n/a	n/a	n/a	n/a	n/a
-0.002	n/a	RECOG_CONF	-1	n/a	LTP247	ltpFR	4	6	0	WORKER	1621	n/a	2	1	n/a	n/a	n/a	n/a	n/a
-0.002	n/a	RECOG_TARGET	-1	n/a	LTP247	ltpFR	4	6	1	MARROW	872	1	4	0	n/a	n/a	n/a	n/a	n/a
-0.002	n/a	RECOG_RESP	-1	n/a	LTP247	ltpFR	4	6	1	MARROW	872	1	n/a	0	n/a	n/a	n/a	n/a	n/a
-0.002	n/a	RECOG_CONF	-1	n/a	LTP247	ltpFR	4	6	1	MARROW	872	n/a	4	0	n/a	n/a	n/a	n/a	n/a
-0.002	n/a	RECOG_LURE	-1	n/a	LTP247	ltpFR	4	6	n/a	MUSTARD	935	0	3	n/a	n/a	n/a	n/a	n/a	n/a
-0.002	n/a	RECOG_RESP	-1	n/a	LTP247	ltpFR	4	6	n/a	MUSTARD	935	0	n/a	n/a	n/a	n/a	n/a	n/a	n/a
-0.002	n/a	RECOG_CONF	-1	n/a	LTP247	ltpFR	4	6	n/a	MUSTARD	935	n/a	3	n/a	n/a	n/a	n/a	n/a	n/a
-0.002	n/a	RECOG_LURE	-1	n/a	LTP247	ltpFR	4	6	n/a	GALLON	618	0	4	n/a	n/a	n/a	n/a	n/a	n/a
-0.002	n/a	RECOG_RESP	-1	n/a	LTP247	ltpFR	4	6	n/a	GALLON	618	0	n/a	n/a	n/a	n/a	n/a	n/a	n/a
-0.002	n/a	RECOG_CONF	-1	n/a	LTP247	ltpFR	4	6	n/a	GALLON	618	n/a	4	n/a	n/a	n/a	n/a	n/a	n/a
-0.002	n/a	RECOG_TARGET	-1	n/a	LTP247	ltpFR	4	6	-1	EARTH	515	1	1	-1	n/a	n/a	n/a	n/a	n/a
-0.002	n/a	RECOG_RESP	-1	n/a	LTP247	ltpFR	4	6	-1	EARTH	515	1	n/a	-1	n/a	n/a	n/a	n/a	n/a
-0.002	n/a	RECOG_CONF	-1	n/a	LTP247	ltpFR	4	6	-1	EARTH	515	n/a	1	-1	n/a	n/a	n/a	n/a	n/a
-0.002	n/a	RECOG_TARGET	-1	n/a	LTP247	ltpFR	4	6	1	PERCH	1048	1	1	0	n/a	n/a	n/a	n/a	n/a
-0.002	n/a	RECOG_RESP	-1	n/a	LTP247	ltpFR	4	6	1	PERCH	1048	1	n/a	0	n/a	n/a	n/a	n/a	n/a
-0.002	n/a	RECOG_CONF	-1	n/a	LTP247	ltpFR	4	6	1	PERCH	1048	n/a	1	0	n/a	n/a	n/a	n/a	n/a
-0.002	n/a	RECOG_LURE	-1	n/a	LTP247	ltpFR	4	6	n/a	BUGLE	189	0	2	n/a	n/a	n/a	n/a	n/a	n/a
-0.002	n/a	RECOG_RESP	-1	n/a	LTP247	ltpFR	4	6	n/a	BUGLE	189	0	n/a	n/a	n/a	n/a	n/a	n/a	n/a
-0.002	n/a	RECOG_CONF	-1	n/a	LTP247	ltpFR	4	6	n/a	BUGLE	189	n/a	2	n/a	n/a	n/a	n/a	n/a	n/a
-0.002	n/a	RECOG_TARGET	-1	n/a	LTP247	ltpFR	4	6	1	ELECTRICIAN	521	1	5	1	n/a	n/a	n/a	n/a	n/a
-0.002	n/a	RECOG_RESP	-1	n/a	LTP247	ltpFR	4	6	1	ELECTRICIAN	521	1	n/a	1	n/a	n/a	n/a	n/a	n/a
-0.002	n/a	RECOG_CONF	-1	n/a	LTP247	ltpFR	4	6	1	ELECTRICIAN	521	n/a	5	1	n/a	n/a	n/a	n/a	n/a
-0.002	n/a	RECOG_LURE	-1	n/a	LTP247	ltpFR	4	6	n/a	PEOPLE	1046	0	2	n/a	n/a	n/a	n/a	n/a	n/a
-0.002	n/a	RECOG_RESP	-1	n/a	LTP247	ltpFR	4	6	n/a	PEOPLE	1046	0	n/a	n/a	n/a	n/a	n/a	n/a	n/a
-0.002	n/a	RECOG_CONF	-1	n/a	LTP247	ltpFR	4	6	n/a	PEOPLE	1046	n/a	2	n/a	n/a	n/a	n/a	n/a	n/a
-0.002	n/a	RECOG_TARGET	-1	n/a	LTP247	ltpFR	4	6	1	WIRE	1616	1	4	0	n/a	n/a	n/a	n/a	n/a
-0.002	n/a	RECOG_RESP	-1	n/a	LTP247	ltpFR	4	6	1	WIRE	1616	1	n/a	0	n/a	n/a	n/a	n/a	n/a
-0.002	n/a	RECOG_CONF	-1	n/a	LTP247	ltpFR	4	6	1	WIRE	1616	n/a	4	0	n/a	n/a	n/a	n/a	n/a
-0.002	n/a	RECOG_TARGET	-1	n/a	LTP247	ltpFR	4	6	0	HERO	706	1	1	1	n/a	n/a	n/a	n/a	n/a
-0.002	n/a	RECOG_RESP	-1	n/a	LTP247	ltpFR	4	6	0	HERO	706	1	n/a	1	n/a	n/a	n/a	n/a	n/a
-0.002	n/a	RECOG_CONF	-1	n/a	LTP247	ltpFR	4	6	0	HERO	706	n/a	1	1	n/a	n/a	n/a	n/a	n/a
-0.002	n/a	RECOG_LURE	-1	n/a	LTP247	ltpFR	4	6	n/a	FUDGE	611	0	3	n/a	n/a	n/a	n/a	n/a	n/a
-0.002	n/a	RECOG_RESP	-1	n/a	LTP247	ltpFR	4	6	n/a	FUDGE	611	0	n/a	n/a	n/a	n/a	n/a	n/a	n/a
-0.002	n/a	RECOG_CONF	-1	n/a	LTP247	ltpFR	4	6	n/a	FUDGE	611	n/a	3	n/a	n/a	n/a	n/a	n/a	n/a
-0.002	n/a	RECOG_LURE	-1	n/a	LTP247	ltpFR	4	6	n/a	BRUISE	180	0	4	n/a	n/a	n/a	n/a	n/a	n/a
-0.002	n/a	RECOG_RESP	-1	n/a	LTP247	ltpFR	4	6	n/a	BRUISE	180	0	n/a	n/a	n/a	n/a	n/a	n/a	n/a
-0.002	n/a	RECOG_CONF	-1	n/a	LTP247	ltpFR	4	6	n/a	BRUISE	180	n/a	4	n/a	n/a	n/a	n/a	n/a	n/a
-0.002	n/a	RECOG_LURE	-1	n/a	LTP247	ltpFR	4	6	n/a	AUDIENCE	59	0	2	n/a	n/a	n/a	n/a	n/a	n/a
-0.002	n/a	RECOG_RESP	-1	n/a	LTP247	ltpFR	4	6	n/a	AUDIENCE	59	0	n/a	n/a	n/a	n/a	n/a	n/a	n/a
-0.002	n/a	RECOG_CONF	-1	n/a	LTP247	ltpFR	4	6	n/a	AUDIENCE	59	n/a	2	n/a	n/a	n/a	n/a	n/a	n/a
-0.002	n/a	RECOG_TARGET	-1	n/a	LTP247	ltpFR	4	6	0	BUTLER	204	1	3	1	n/a	n/a	n/a	n/a	n/a
-0.002	n/a	RECOG_RESP	-1	n/a	LTP247	ltpFR	4	6	0	BUTLER	204	1	n/a	1	n/a	n/a	n/a	n/a	n/a
-0.002	n/a	RECOG_CONF	-1	n/a	LTP247	ltpFR	4	6	0	BUTLER	204	n/a	3	1	n/a	n/a	n/a	n/a	n/a
-0.002	n/a	RECOG_TARGET	-1	n/a	LTP247	ltpFR	4	6	1	CONSOLE	364	1	4	0	n/a	n/a	n/a	n/a	n/a
-0.002	n/a	RECOG_RESP	-1	n/a	LTP247	ltpFR	4	6	1	CONSOLE	364	1	n/a	0	n/a	n/a	n/a	n/a	n/a
-0.002	n/a	RECOG_CONF	-1	n/a	LTP247	ltpFR	4	6	1	CONSOLE	364	n/a	4	0	n/a	n/a	n/a	n/a	n/a
-0.002	n/a	RECOG_LURE	-1	n/a	LTP247	ltpFR	4	6	n/a	TOASTER	1472	0	3	n/a	n/a	n/a	n/a	n/a	n/a
-0.002	n/a	RECOG_RESP	-1	n/a	LTP247	ltpFR	4	6	n/a	TOASTER	1472	0	n/a	n/a	n/a	n/a	n/a	n/a	n/a
-0.002	n/a	RECOG_CONF	-1	n/a	LTP247	ltpFR	4	6	n/a	TOASTER	1472	n/a	3	n/a	n/a	n/a	n/a	n/a	n/a
-0.002	n/a	RECOG_TARGET	-1	n/a	LTP247	ltpFR	4	6	0	DUST	508	1	2	0	n/a	n/a	n/a	n/a	n/a
-0.002	n/a	RECOG_RESP	-1	n/a	LTP247	ltpFR	4	6	0	DUST	508	1	n/a	0	n/a	n/a	n/a	n/a	n/a
-0.002	n/a	RECOG_CONF	-1	n/a	LTP247	ltpFR	4	6	0	DUST	508	n/a	2	0	n/a	n/a	n/a	n/a	n/a
-0.002	n/a	RECOG_LURE	-1	n/a	LTP247	ltpFR	4	6	n/a	ASPIRIN	47	0	3	n/a	n/a	n/a	n/a	n/a	n/a
-0.002	n/a	RECOG_RESP	-1	n/a	LTP247	ltpFR	4	6	n/a	ASPIRIN	47	0	n/a	n/a	n/a	n/a	n/a	n/a	n/a
-0.002	n/a	RECOG_CONF	-1	n/a	LTP247	ltpFR	4	6	n/a	ASPIRIN	47	n/a	3	n/a	n/a	n/a	n/a	n/a	n/a
-0.002	n/a	REC_START	-1	n/a	LTP247	ltpFR	4	7	n/a	n/a	n/a	n/a	n/a	n/a	n/a	n/a	n/a	n/a	n/a
-0.002	n/a	RECOG_TARGET	-1	n/a	LTP247	ltpFR	4	7	-1	CAFETERIA	217	1	2	-1	n/a	n/a	n/a	n/a	n/a
-0.002	n/a	RECOG_RESP	-1	n/a	LTP247	ltpFR	4	7	-1	CAFETERIA	217	1	n/a	-1	n/a	n/a	n/a	n/a	n/a
-0.002	n/a	RECOG_CONF	-1	n/a	LTP247	ltpFR	4	7	-1	CAFETERIA	217	n/a	2	-1	n/a	n/a	n/a	n/a	n/a
-0.002	n/a	RECOG_LURE	-1	n/a	LTP247	ltpFR	4	7	n/a	LOBSTER	837	0	2	n/a	n/a	n/a	n/a	n/a	n/a
-0.002	n/a	RECOG_RESP	-1	n/a	LTP247	ltpFR	4	7	n/a	LOBSTER	837	0	n/a	n/a	n/a	n/a	n/a	n/a	n/a
-0.002	n/a	RECOG_CONF	-1	n/a	LTP247	ltpFR	4	7	n/a	LOBSTER	837	n/a	2	n/a	n/a	n/a	n/a	n/a	n/a
-0.002	n/a	RECOG_TARGET	-1	n/a	LTP247	ltpFR	4	7	0	SAP	1233	1	4	0	n/a	n/a	n/a	n/a	n/a
-0.002	n/a	RECOG_RESP	-1	n/a	LTP247	ltpFR	4	7	0	SAP	1233	1	n/a	0	n/a	n/a	n/a	n/a	n/a
-0.002	n/a	RECOG_CONF	-1	n/a	LTP247	ltpFR	4	7	0	SAP	1233	n/a	4	0	n/a	n/a	n/a	n/a	n/a
-0.002	n/a	RECOG_LURE	-1	n/a	LTP247	ltpFR	4	7	n/a	BLOSSOM	138	0	3	n/a	n/a	n/a	n/a	n/a	n/a
-0.002	n/a	RECOG_RESP	-1	n/a	LTP247	ltpFR	4	7	n/a	BLOSSOM	138	0	n/a	n/a	n/a	n/a	n/a	n/a	n/a
-0.002	n/a	RECOG_CONF	-1	n/a	LTP247	ltpFR	4	7	n/a	BLOSSOM	138	n/a	3	n/a	n/a	n/a	n/a	n/a	n/a
-0.002	n/a	RECOG_LURE	-1	n/a	LTP247	ltpFR	4	7	n/a	SACK	1220	0	1	n/a	n/a	n/a	n/a	n/a	n/a
-0.002	n/a	RECOG_RESP	-1	n/a	LTP247	ltpFR	4	7	n/a	SACK	1220	0	n/a	n/a	n/a	n/a	n/a	n/a	n/a
-0.002	n/a	RECOG_CONF	-1	n/a	LTP247	ltpFR	4	7	n/a	SACK	1220	n/a	1	n/a	n/a	n/a	n/a	n/a	n/a
-0.002	n/a	RECOG_LURE	-1	n/a	LTP247	ltpFR	4	7	n/a	SMOG	1330	0	3	n/a	n/a	n/a	n/a	n/a	n/a
