mstime	trial_type	stim_file	subject	experiment	session	trial	item_name	item_num	list	answer	test_x	test_y	test_z
0	SESS_START	n/a	LTP379	ltpFR2	1	n/a	n/a	n/a	n/a	n/a	0	0	0
29470	START	n/a	LTP379	ltpFR2	1	n/a	n/a	n/a	-1	n/a	n/a	n/a	n/a
29500	PROB	n/a	LTP379	ltpFR2	1	n/a	n/a	n/a	-1	24	6	9	9
31767	PROB	n/a	LTP379	ltpFR2	1	n/a	n/a	n/a	-1	18	4	8	6
33467	PROB	n/a	LTP379	ltpFR2	1	n/a	n/a	n/a	-1	16	8	2	6
34783	PROB	n/a	LTP379	ltpFR2	1	n/a	n/a	n/a	-1	12	5	4	3
36234	PROB	n/a	LTP379	ltpFR2	1	n/a	n/a	n/a	-1	22	9	9	4
38066	PROB	n/a	LTP379	ltpFR2	1	n/a	n/a	n/a	-1	15	3	5	7
41470	STOP	n/a	LTP379	ltpFR2	1	n/a	n/a	n/a	-1	n/a	n/a	n/a	n/a
108633	WORD	wordpools/wasnorm_wordpool_576.txt	LTP379	ltpFR2	1	1	HEART	697	n/a	n/a	0	0	0
111416	WORD	wordpools/wasnorm_wordpool_576.txt	LTP379	ltpFR2	1	1	ROBIN	1199	n/a	n/a	0	0	0
113898	WORD	wordpools/wasnorm_wordpool_576.txt	LTP379	ltpFR2	1	1	MILK	895	n/a	n/a	0	0	0
116316	WORD	wordpools/wasnorm_wordpool_576.txt	LTP379	ltpFR2	1	1	PICTURE	1061	n/a	n/a	0	0	0
118798	WORD	wordpools/wasnorm_wordpool_576.txt	LTP379	ltpFR2	1	1	CABBAGE	210	n/a	n/a	0	0	0
121499	WORD	wordpools/wasnorm_wordpool_576.txt	LTP379	ltpFR2	1	1	DONOR	485	n/a	n/a	0	0	0
123965	WORD	wordpools/wasnorm_wordpool_576.txt	LTP379	ltpFR2	1	1	UNCLE	1536	n/a	n/a	0	0	0
126582	WORD	wordpools/wasnorm_wordpool_576.txt	LTP379	ltpFR2	1	1	COUSIN	392	n/a	n/a	0	0	0
129399	WORD	wordpools/wasnorm_wordpool_576.txt	LTP379	ltpFR2	1	1	CAMEL	223	n/a	n/a	0	0	0
131848	WORD	wordpools/wasnorm_wordpool_576.txt	LTP379	ltpFR2	1	1	JUDGE	761	n/a	n/a	0	0	0
134449	WORD	wordpools/wasnorm_wordpool_576.txt	LTP379	ltpFR2	1	1	EGYPT	519	n/a	n/a	0	0	0
137115	WORD	wordpools/wasnorm_wordpool_576.txt	LTP379	ltpFR2	1	1	LOVER	846	n/a	n/a	0	0	0
139565	WORD	wordpools/wasnorm_wordpool_576.txt	LTP379	ltpFR2	1	1	JOURNAL	760	n/a	n/a	0	0	0
142382	WORD	wordpools/wasnorm_wordpool_576.txt	LTP379	ltpFR2	1	1	FRUIT	610	n/a	n/a	0	0	0
144864	WORD	wordpools/wasnorm_wordpool_576.txt	LTP379	ltpFR2	1	1	FIREPLACE	570	n/a	n/a	0	0	0
147315	WORD	wordpools/wasnorm_wordpool_576.txt	LTP379	ltpFR2	1	1	SCARF	1246	n/a	n/a	0	0	0
149881	WORD	wordpools/wasnorm_wordpool_576.txt	LTP379	ltpFR2	1	1	PUDDING	1139	n/a	n/a	0	0	0
152449	WORD	wordpools/wasnorm_wordpool_576.txt	LTP379	ltpFR2	1	1	FOREST	593	n/a	n/a	0	0	0
155215	WORD	wordpools/wasnorm_wordpool_576.txt	LTP379	ltpFR2	1	1	WARDROBE	1587	n/a	n/a	0	0	0
157897	WORD	wordpools/wasnorm_wordpool_576.txt	LTP379	ltpFR2	1	1	RECORD	1176	n/a	n/a	0	0	0
160382	WORD	wordpools/wasnorm_wordpool_576.txt	LTP379	ltpFR2	1	1	DASHBOARD	441	n/a	n/a	0	0	0
162897	WORD	wordpools/wasnorm_wordpool_576.txt	LTP379	ltpFR2	1	1	BRAKE	166	n/a	n/a	0	0	0
165448	WORD	wordpools/wasnorm_wordpool_576.txt	LTP379	ltpFR2	1	1	LILY	821	n/a	n/a	0	0	0
168265	WORD	wordpools/wasnorm_wordpool_576.txt	LTP379	ltpFR2	1	1	PISTON	1076	n/a	n/a	0	0	0
169881	START	n/a	LTP379	ltpFR2	1	n/a	n/a	n/a	1	n/a	n/a	n/a	n/a
170686	DISTRACTOR	n/a	LTP379	ltpFR2	1	1	n/a	n/a	n/a	n/a	0	0	0
170698	PROB	n/a	LTP379	ltpFR2	1	n/a	n/a	n/a	1	16	6	9	1
172548	PROB	n/a	LTP379	ltpFR2	1	n/a	n/a	n/a	1	10	5	1	4
174498	PROB	n/a	LTP379	ltpFR2	1	n/a	n/a	n/a	1	13	3	7	3
175698	PROB	n/a	LTP379	ltpFR2	1	n/a	n/a	n/a	1	16	6	8	2
177348	PROB	n/a	LTP379	ltpFR2	1	n/a	n/a	n/a	1	9	5	1	3
179465	PROB	n/a	LTP379	ltpFR2	1	n/a	n/a	n/a	1	20	8	3	9
181331	PROB	n/a	LTP379	ltpFR2	1	n/a	n/a	n/a	1	10	5	3	2
183415	PROB	n/a	LTP379	ltpFR2	1	n/a	n/a	n/a	1	11	1	4	6
185131	PROB	n/a	LTP379	ltpFR2	1	n/a	n/a	n/a	1	6	1	2	3
186515	PROB	n/a	LTP379	ltpFR2	1	n/a	n/a	n/a	1	16	8	5	3
188281	PROB	n/a	LTP379	ltpFR2	1	n/a	n/a	n/a	1	19	5	6	8
190448	PROB	n/a	LTP379	ltpFR2	1	n/a	n/a	n/a	1	21	8	6	7
192478	STOP	n/a	LTP379	ltpFR2	1	n/a	n/a	n/a	1	n/a	n/a	n/a	n/a
195749	REC_START	n/a	LTP379	ltpFR2	1	1	n/a	n/a	n/a	n/a	0	0	0
198276	REC_WORD	wordpools/wasnorm_wordpool_576.txt	LTP379	ltpFR2	1	1	HEART	697	n/a	n/a	0	0	0
199726	REC_WORD	wordpools/wasnorm_wordpool_576.txt	LTP379	ltpFR2	1	1	ROBIN	1199	n/a	n/a	0	0	0
201428	REC_WORD	wordpools/wasnorm_wordpool_576.txt	LTP379	ltpFR2	1	1	MILK	895	n/a	n/a	0	0	0
203199	REC_WORD	wordpools/wasnorm_wordpool_576.txt	LTP379	ltpFR2	1	1	PAINT	1003	n/a	n/a	0	0	0
206074	REC_WORD	wordpools/wasnorm_wordpool_576.txt	LTP379	ltpFR2	1	1	CABBAGE	210	n/a	n/a	0	0	0
211702	REC_WORD	wordpools/wasnorm_wordpool_576.txt	LTP379	ltpFR2	1	1	DONOR	485	n/a	n/a	0	0	0
213180	REC_WORD	wordpools/wasnorm_wordpool_576.txt	LTP379	ltpFR2	1	1	UNCLE	1536	n/a	n/a	0	0	0
215008	REC_WORD	wordpools/wasnorm_wordpool_576.txt	LTP379	ltpFR2	1	1	COUSIN	392	n/a	n/a	0	0	0
217142	REC_WORD	wordpools/wasnorm_wordpool_576.txt	LTP379	ltpFR2	1	1	CAMEL	223	n/a	n/a	0	0	0
218708	REC_WORD	wordpools/wasnorm_wordpool_576.txt	LTP379	ltpFR2	1	1	JUDGE	761	n/a	n/a	0	0	0
220340	REC_WORD	wordpools/wasnorm_wordpool_576.txt	LTP379	ltpFR2	1	1	EGYPT	519	n/a	n/a	0	0	0
222143	REC_WORD	wordpools/wasnorm_wordpool_576.txt	LTP379	ltpFR2	1	1	LOVER	846	n/a	n/a	0	0	0
223892	REC_WORD	wordpools/wasnorm_wordpool_576.txt	LTP379	ltpFR2	1	1	JOURNAL	760	n/a	n/a	0	0	0
225622	REC_WORD	wordpools/wasnorm_wordpool_576.txt	LTP379	ltpFR2	1	1	FRUIT	610	n/a	n/a	0	0	0
227327	REC_WORD	wordpools/wasnorm_wordpool_576.txt	LTP379	ltpFR2	1	1	FIREPLACE	570	n/a	n/a	0	0	0
229198	REC_WORD	wordpools/wasnorm_wordpool_576.txt	LTP379	ltpFR2	1	1	SCARF	1246	n/a	n/a	0	0	0
231732	REC_WORD	wordpools/wasnorm_wordpool_576.txt	LTP379	ltpFR2	1	1	PUDDING	1139	n/a	n/a	0	0	0
233340	REC_WORD	wordpools/wasnorm_wordpool_576.txt	LTP379	ltpFR2	1	1	FOREST	593	n/a	n/a	0	0	0
235787	REC_WORD	wordpools/wasnorm_wordpool_576.txt	LTP379	ltpFR2	1	1	WARDROBE	1587	n/a	n/a	0	0	0
237552	REC_WORD	wordpools/wasnorm_wordpool_576.txt	LTP379	ltpFR2	1	1	RECORD	1176	n/a	n/a	0	0	0
239610	REC_WORD	wordpools/wasnorm_wordpool_576.txt	LTP379	ltpFR2	1	1	DASHBOARD	441	n/a	n/a	0	0	0
248349	REC_WORD	wordpools/wasnorm_wordpool_576.txt	LTP379	ltpFR2	1	1	LILY	821	n/a	n/a	0	0	0
250339	REC_WORD	wordpools/wasnorm_wordpool_576.txt	LTP379	ltpFR2	1	1	PISTON	1076	n/a	n/a	0	0	0
257813	REC_WORD	wordpools/wasnorm_wordpool_576.txt	LTP379	ltpFR2	1	1	BRAKE	166	n/a	n/a	0	0	0
286180	DISTRACTOR	n/a	LTP379	ltpFR2	1	2	n/a	n/a	n/a	n/a	0	0	0
286180	START	n/a	LTP379	ltpFR2	1	n/a	n/a	n/a	2	n/a	n/a	n/a	n/a
286196	PROB	n/a	LTP379	ltpFR2	1	n/a	n/a	n/a	2	8	2	2	4
287746	PROB	n/a	LTP379	ltpFR2	1	n/a	n/a	n/a	2	16	5	4	7
289213	PROB	n/a	LTP379	ltpFR2	1	n/a	n/a	n/a	2	8	4	2	2
290646	PROB	n/a	LTP379	ltpFR2	1	n/a	n/a	n/a	2	10	2	5	3
292313	PROB	n/a	LTP379	ltpFR2	1	n/a	n/a	n/a	2	17	3	5	9
294380	PROB	n/a	LTP379	ltpFR2	1	n/a	n/a	n/a	2	18	4	6	8
295713	PROB	n/a	LTP379	ltpFR2	1	n/a	n/a	n/a	2	12	3	3	6
297413	PROB	n/a	LTP379	ltpFR2	1	n/a	n/a	n/a	2	6	2	1	3
298580	PROB	n/a	LTP379	ltpFR2	1	n/a	n/a	n/a	2	18	8	7	3
300029	PROB	n/a	LTP379	ltpFR2	1	n/a	n/a	n/a	2	20	7	6	7
301895	PROB	n/a	LTP379	ltpFR2	1	n/a	n/a	n/a	2	18	5	8	5
303363	PROB	n/a	LTP379	ltpFR2	1	n/a	n/a	n/a	2	13	8	1	4
304746	PROB	n/a	LTP379	ltpFR2	1	n/a	n/a	n/a	2	15	5	4	6
306479	PROB	n/a	LTP379	ltpFR2	1	n/a	n/a	n/a	2	13	6	5	2
310178	STOP	n/a	LTP379	ltpFR2	1	n/a	n/a	n/a	2	n/a	n/a	n/a	n/a
311196	WORD	wordpools/wasnorm_wordpool_576.txt	LTP379	ltpFR2	1	2	ATLAS	53	n/a	n/a	0	0	0
313729	WORD	wordpools/wasnorm_wordpool_576.txt	LTP379	ltpFR2	1	2	WORLD	1622	n/a	n/a	0	0	0
316329	WORD	wordpools/wasnorm_wordpool_576.txt	LTP379	ltpFR2	1	2	GUITAR	670	n/a	n/a	0	0	0
318978	WORD	wordpools/wasnorm_wordpool_576.txt	LTP379	ltpFR2	1	2	OUTFIT	988	n/a	n/a	0	0	0
321513	WORD	wordpools/wasnorm_wordpool_576.txt	LTP379	ltpFR2	1	2	CLAM	315	n/a	n/a	0	0	0
324196	WORD	wordpools/wasnorm_wordpool_576.txt	LTP379	ltpFR2	1	2	BELLY	119	n/a	n/a	0	0	0
326828	WORD	wordpools/wasnorm_wordpool_576.txt	LTP379	ltpFR2	1	2	CONTRACT	368	n/a	n/a	0	0	0
329296	WORD	wordpools/wasnorm_wordpool_576.txt	LTP379	ltpFR2	1	2	LIPSTICK	829	n/a	n/a	0	0	0
331861	WORD	wordpools/wasnorm_wordpool_576.txt	LTP379	ltpFR2	1	2	INFANT	737	n/a	n/a	0	0	0
334346	WORD	wordpools/wasnorm_wordpool_576.txt	LTP379	ltpFR2	1	2	OYSTER	995	n/a	n/a	0	0	0
336861	WORD	wordpools/wasnorm_wordpool_576.txt	LTP379	ltpFR2	1	2	DENTIST	447	n/a	n/a	0	0	0
339646	WORD	wordpools/wasnorm_wordpool_576.txt	LTP379	ltpFR2	1	2	VIKING	1565	n/a	n/a	0	0	0
342462	WORD	wordpools/wasnorm_wordpool_576.txt	LTP379	ltpFR2	1	2	COBRA	336	n/a	n/a	0	0	0
344895	WORD	wordpools/wasnorm_wordpool_576.txt	LTP379	ltpFR2	1	2	VICTIM	1562	n/a	n/a	0	0	0
347612	WORD	wordpools/wasnorm_wordpool_576.txt	LTP379	ltpFR2	1	2	MACHINE	852	n/a	n/a	0	0	0
350145	WORD	wordpools/wasnorm_wordpool_576.txt	LTP379	ltpFR2	1	2	WASHER	1592	n/a	n/a	0	0	0
352844	WORD	wordpools/wasnorm_wordpool_576.txt	LTP379	ltpFR2	1	2	NURSE	963	n/a	n/a	0	0	0
355662	WORD	wordpools/wasnorm_wordpool_576.txt	LTP379	ltpFR2	1	2	OUTLAW	989	n/a	n/a	0	0	0
358345	WORD	wordpools/wasnorm_wordpool_576.txt	LTP379	ltpFR2	1	2	HAMPER	682	n/a	n/a	0	0	0
360911	WORD	wordpools/wasnorm_wordpool_576.txt	LTP379	ltpFR2	1	2	LACE	792	n/a	n/a	0	0	0
363612	WORD	wordpools/wasnorm_wordpool_576.txt	LTP379	ltpFR2	1	2	HELMET	702	n/a	n/a	0	0	0
366412	WORD	wordpools/wasnorm_wordpool_576.txt	LTP379	ltpFR2	1	2	GAZELLE	628	n/a	n/a	0	0	0
369212	WORD	wordpools/wasnorm_wordpool_576.txt	LTP379	ltpFR2	1	2	HONEY	713	n/a	n/a	0	0	0
371678	WORD	wordpools/wasnorm_wordpool_576.txt	LTP379	ltpFR2	1	2	SNAKE	1333	n/a	n/a	0	0	0
373295	START	n/a	LTP379	ltpFR2	1	n/a	n/a	n/a	3	n/a	n/a	n/a	n/a
374351	DISTRACTOR	n/a	LTP379	ltpFR2	1	2	n/a	n/a	n/a	n/a	0	0	0
374362	PROB	n/a	LTP379	ltpFR2	1	n/a	n/a	n/a	3	14	8	1	5
376678	PROB	n/a	LTP379	ltpFR2	1	n/a	n/a	n/a	3	10	2	1	7
378578	PROB	n/a	LTP379	ltpFR2	1	n/a	n/a	n/a	3	25	9	7	9
380212	PROB	n/a	LTP379	ltpFR2	1	n/a	n/a	n/a	3	18	7	5	6
382645	PROB	n/a	LTP379	ltpFR2	1	n/a	n/a	n/a	3	17	2	8	7
384011	PROB	n/a	LTP379	ltpFR2	1	n/a	n/a	n/a	3	14	6	6	2
385312	PROB	n/a	LTP379	ltpFR2	1	n/a	n/a	n/a	3	11	1	2	8
386578	PROB	n/a	LTP379	ltpFR2	1	n/a	n/a	n/a	3	14	3	9	2
388428	PROB	n/a	LTP379	ltpFR2	1	n/a	n/a	n/a	3	13	1	3	9
390345	PROB	n/a	LTP379	ltpFR2	1	n/a	n/a	n/a	3	10	1	8	1
395245	PROB	n/a	LTP379	ltpFR2	1	n/a	n/a	n/a	3	15	7	5	3
396612	STOP	n/a	LTP379	ltpFR2	1	n/a	n/a	n/a	3	n/a	n/a	n/a	n/a
399162	REC_START	n/a	LTP379	ltpFR2	1	2	n/a	n/a	n/a	n/a	0	0	0
404570	REC_WORD	wordpools/wasnorm_wordpool_576.txt	LTP379	ltpFR2	1	2	ATLAS	53	n/a	n/a	0	0	0
406188	REC_WORD	wordpools/wasnorm_wordpool_576.txt	LTP379	ltpFR2	1	2	WORLD	1622	n/a	n/a	0	0	0
407742	REC_WORD	wordpools/wasnorm_wordpool_576.txt	LTP379	ltpFR2	1	2	GUITAR	670	n/a	n/a	0	0	0
409538	REC_WORD	wordpools/wasnorm_wordpool_576.txt	LTP379	ltpFR2	1	2	OUTFIT	988	n/a	n/a	0	0	0
411257	REC_WORD	wordpools/wasnorm_wordpool_576.txt	LTP379	ltpFR2	1	2	CLAM	315	n/a	n/a	0	0	0
414299	REC_WORD	wordpools/wasnorm_wordpool_576.txt	LTP379	ltpFR2	1	2	BELLY	119	n/a	n/a	0	0	0
415690	REC_WORD	wordpools/wasnorm_wordpool_576.txt	LTP379	ltpFR2	1	2	CONTRACT	368	n/a	n/a	0	0	0
417462	REC_WORD	wordpools/wasnorm_wordpool_576.txt	LTP379	ltpFR2	1	2	LIPSTICK	829	n/a	n/a	0	0	0
419927	REC_WORD	wordpools/wasnorm_wordpool_576.txt	LTP379	ltpFR2	1	2	OYSTER	995	n/a	n/a	0	0	0
421747	REC_WORD	wordpools/wasnorm_wordpool_576.txt	LTP379	ltpFR2	1	2	INFANT	737	n/a	n/a	0	0	0
424988	REC_WORD	wordpools/wasnorm_wordpool_576.txt	LTP379	ltpFR2	1	2	DENTIST	447	n/a	n/a	0	0	0
426587	REC_WORD	wordpools/wasnorm_wordpool_576.txt	LTP379	ltpFR2	1	2	VIKING	1565	n/a	n/a	0	0	0
428288	REC_WORD	wordpools/wasnorm_wordpool_576.txt	LTP379	ltpFR2	1	2	COBRA	336	n/a	n/a	0	0	0
429825	REC_WORD	wordpools/wasnorm_wordpool_576.txt	LTP379	ltpFR2	1	2	VICTIM	1562	n/a	n/a	0	0	0
431235	REC_WORD	wordpools/wasnorm_wordpool_576.txt	LTP379	ltpFR2	1	2	MACHINE	852	n/a	n/a	0	0	0
433859	REC_WORD	wordpools/wasnorm_wordpool_576.txt	LTP379	ltpFR2	1	2	WASHER	1592	n/a	n/a	0	0	0
438755	REC_WORD	wordpools/wasnorm_wordpool_576.txt	LTP379	ltpFR2	1	2	NURSE	963	n/a	n/a	0	0	0
442043	REC_WORD	wordpools/wasnorm_wordpool_576.txt	LTP379	ltpFR2	1	2	HAMPER	682	n/a	n/a	0	0	0
444440	REC_WORD	wordpools/wasnorm_wordpool_576.txt	LTP379	ltpFR2	1	2	LACE	792	n/a	n/a	0	0	0
445695	REC_WORD	wordpools/wasnorm_wordpool_576.txt	LTP379	ltpFR2	1	2	HELMET	702	n/a	n/a	0	0	0
448194	REC_WORD	wordpools/wasnorm_wordpool_576.txt	LTP379	ltpFR2	1	2	GAZELLE	628	n/a	n/a	0	0	0
449968	REC_WORD	wordpools/wasnorm_wordpool_576.txt	LTP379	ltpFR2	1	2	HONEY	713	n/a	n/a	0	0	0
451229	REC_WORD	wordpools/wasnorm_wordpool_576.txt	LTP379	ltpFR2	1	2	SNAKE	1333	n/a	n/a	0	0	0
489593	DISTRACTOR	n/a	LTP379	ltpFR2	1	3	n/a	n/a	n/a	n/a	0	0	0
489594	START	n/a	LTP379	ltpFR2	1	n/a	n/a	n/a	4	n/a	n/a	n/a	n/a
489610	PROB	n/a	LTP379	ltpFR2	1	n/a	n/a	n/a	4	7	3	2	2
492293	PROB	n/a	LTP379	ltpFR2	1	n/a	n/a	n/a	4	24	7	9	8
494942	PROB	n/a	LTP379	ltpFR2	1	n/a	n/a	n/a	4	16	7	5	4
496975	PROB	n/a	LTP379	ltpFR2	1	n/a	n/a	n/a	4	25	9	8	8
498710	PROB	n/a	LTP379	ltpFR2	1	n/a	n/a	n/a	4	7	2	1	4
500059	PROB	n/a	LTP379	ltpFR2	1	n/a	n/a	n/a	4	13	6	5	2
502143	PROB	n/a	LTP379	ltpFR2	1	n/a	n/a	n/a	4	10	6	3	1
503393	PROB	n/a	LTP379	ltpFR2	1	n/a	n/a	n/a	4	9	1	4	4
504693	PROB	n/a	LTP379	ltpFR2	1	n/a	n/a	n/a	4	24	8	9	7
507410	PROB	n/a	LTP379	ltpFR2	1	n/a	n/a	n/a	4	16	2	9	5
509176	PROB	n/a	LTP379	ltpFR2	1	n/a	n/a	n/a	4	15	9	3	3
510892	PROB	n/a	LTP379	ltpFR2	1	n/a	n/a	n/a	4	17	8	8	1
512424	STOP	n/a	LTP379	ltpFR2	1	n/a	n/a	n/a	4	n/a	n/a	n/a	n/a
514543	WORD	wordpools/wasnorm_wordpool_576.txt	LTP379	ltpFR2	1	3	DUST	508	n/a	n/a	0	0	0
517160	WORD	wordpools/wasnorm_wordpool_576.txt	LTP379	ltpFR2	1	3	PASTRY	1022	n/a	n/a	0	0	0
519609	WORD	wordpools/wasnorm_wordpool_576.txt	LTP379	ltpFR2	1	3	PILOT	1070	n/a	n/a	0	0	0
522109	WORD	wordpools/wasnorm_wordpool_576.txt	LTP379	ltpFR2	1	3	INMATE	738	n/a	n/a	0	0	0
524809	WORD	wordpools/wasnorm_wordpool_576.txt	LTP379	ltpFR2	1	3	UMPIRE	1535	n/a	n/a	0	0	0
527243	WORD	wordpools/wasnorm_wordpool_576.txt	LTP379	ltpFR2	1	3	BEEF	113	n/a	n/a	0	0	0
529726	WORD	wordpools/wasnorm_wordpool_576.txt	LTP379	ltpFR2	1	3	FLESH	579	n/a	n/a	0	0	0
532176	WORD	wordpools/wasnorm_wordpool_576.txt	LTP379	ltpFR2	1	3	BRANCH	168	n/a	n/a	0	0	0
534875	WORD	wordpools/wasnorm_wordpool_576.txt	LTP379	ltpFR2	1	3	MAPLE	866	n/a	n/a	0	0	0
537426	WORD	wordpools/wasnorm_wordpool_576.txt	LTP379	ltpFR2	1	3	FIREMAN	569	n/a	n/a	0	0	0
539958	WORD	wordpools/wasnorm_wordpool_576.txt	LTP379	ltpFR2	1	3	COTTAGE	384	n/a	n/a	0	0	0
542643	WORD	wordpools/wasnorm_wordpool_576.txt	LTP379	ltpFR2	1	3	SCALLOP	1242	n/a	n/a	0	0	0
545259	WORD	wordpools/wasnorm_wordpool_576.txt	LTP379	ltpFR2	1	3	SEAFOOD	1260	n/a	n/a	0	0	0
548075	WORD	wordpools/wasnorm_wordpool_576.txt	LTP379	ltpFR2	1	3	ZIPPER	1636	n/a	n/a	0	0	0
550676	WORD	wordpools/wasnorm_wordpool_576.txt	LTP379	ltpFR2	1	3	ANKLE	24	n/a	n/a	0	0	0
553409	WORD	wordpools/wasnorm_wordpool_576.txt	LTP379	ltpFR2	1	3	MILDEW	893	n/a	n/a	0	0	0
556058	WORD	wordpools/wasnorm_wordpool_576.txt	LTP379	ltpFR2	1	3	TWISTER	1530	n/a	n/a	0	0	0
558476	WORD	wordpools/wasnorm_wordpool_576.txt	LTP379	ltpFR2	1	3	SPHINX	1349	n/a	n/a	0	0	0
561109	WORD	wordpools/wasnorm_wordpool_576.txt	LTP379	ltpFR2	1	3	DRILL	497	n/a	n/a	0	0	0
563592	WORD	wordpools/wasnorm_wordpool_576.txt	LTP379	ltpFR2	1	3	TART	1436	n/a	n/a	0	0	0
566058	WORD	wordpools/wasnorm_wordpool_576.txt	LTP379	ltpFR2	1	3	CRITIC	410	n/a	n/a	0	0	0
568559	WORD	wordpools/wasnorm_wordpool_576.txt	LTP379	ltpFR2	1	3	ROBOT	1200	n/a	n/a	0	0	0
571091	WORD	wordpools/wasnorm_wordpool_576.txt	LTP379	ltpFR2	1	3	CATCHER	258	n/a	n/a	0	0	0
573509	WORD	wordpools/wasnorm_wordpool_576.txt	LTP379	ltpFR2	1	3	WIFE	1609	n/a	n/a	0	0	0
575125	START	n/a	LTP379	ltpFR2	1	n/a	n/a	n/a	5	n/a	n/a	n/a	n/a
576160	DISTRACTOR	n/a	LTP379	ltpFR2	1	3	n/a	n/a	n/a	n/a	0	0	0
576175	PROB	n/a	LTP379	ltpFR2	1	n/a	n/a	n/a	5	16	4	5	7
577941	PROB	n/a	LTP379	ltpFR2	1	n/a	n/a	n/a	5	18	6	4	8
579791	PROB	n/a	LTP379	ltpFR2	1	n/a	n/a	n/a	5	13	5	4	4
583292	PROB	n/a	LTP379	ltpFR2	1	n/a	n/a	n/a	5	10	5	1	4
584957	PROB	n/a	LTP379	ltpFR2	1	n/a	n/a	n/a	5	16	7	3	6
586258	PROB	n/a	LTP379	ltpFR2	1	n/a	n/a	n/a	5	19	8	5	6
588392	PROB	n/a	LTP379	ltpFR2	1	n/a	n/a	n/a	5	16	6	1	9
589675	PROB	n/a	LTP379	ltpFR2	1	n/a	n/a	n/a	5	21	6	6	9
591057	PROB	n/a	LTP379	ltpFR2	1	n/a	n/a	n/a	5	12	7	4	1
592874	PROB	n/a	LTP379	ltpFR2	1	n/a	n/a	n/a	5	17	3	6	8
594508	PROB	n/a	LTP379	ltpFR2	1	n/a	n/a	n/a	5	16	5	8	3
595857	PROB	n/a	LTP379	ltpFR2	1	n/a	n/a	n/a	5	16	8	7	1
597308	PROB	n/a	LTP379	ltpFR2	1	n/a	n/a	n/a	5	14	8	1	5
598890	STOP	n/a	LTP379	ltpFR2	1	n/a	n/a	n/a	5	n/a	n/a	n/a	n/a
600908	REC_START	n/a	LTP379	ltpFR2	1	3	n/a	n/a	n/a	n/a	0	0	0
604450	REC_WORD	wordpools/wasnorm_wordpool_576.txt	LTP379	ltpFR2	1	3	DUST	508	n/a	n/a	0	0	0
605990	REC_WORD	wordpools/wasnorm_wordpool_576.txt	LTP379	ltpFR2	1	3	PASTRY	1022	n/a	n/a	0	0	0
608060	REC_WORD	wordpools/wasnorm_wordpool_576.txt	LTP379	ltpFR2	1	3	PILOT	1070	n/a	n/a	0	0	0
614459	REC_WORD	wordpools/wasnorm_wordpool_576.txt	LTP379	ltpFR2	1	3	INMATE	738	n/a	n/a	0	0	0
616555	REC_WORD	wordpools/wasnorm_wordpool_576.txt	LTP379	ltpFR2	1	3	UMPIRE	1535	n/a	n/a	0	0	0
620154	REC_WORD	wordpools/wasnorm_wordpool_576.txt	LTP379	ltpFR2	1	3	BEEF	113	n/a	n/a	0	0	0
621645	REC_WORD	wordpools/wasnorm_wordpool_576.txt	LTP379	ltpFR2	1	3	FLESH	579	n/a	n/a	0	0	0
623868	REC_WORD	wordpools/wasnorm_wordpool_576.txt	LTP379	ltpFR2	1	3	BRANCH	168	n/a	n/a	0	0	0
625796	REC_WORD	wordpools/wasnorm_wordpool_576.txt	LTP379	ltpFR2	1	3	MAPLE	866	n/a	n/a	0	0	0
629494	REC_WORD	wordpools/wasnorm_wordpool_576.txt	LTP379	ltpFR2	1	3	FIREMAN	569	n/a	n/a	0	0	0
631810	REC_WORD	wordpools/wasnorm_wordpool_576.txt	LTP379	ltpFR2	1	3	COTTAGE	384	n/a	n/a	0	0	0
634536	REC_WORD	wordpools/wasnorm_wordpool_576.txt	LTP379	ltpFR2	1	3	SCALLOP	1242	n/a	n/a	0	0	0
636922	REC_WORD	wordpools/wasnorm_wordpool_576.txt	LTP379	ltpFR2	1	3	SEAFOOD	1260	n/a	n/a	0	0	0
638842	REC_WORD	wordpools/wasnorm_wordpool_576.txt	LTP379	ltpFR2	1	3	ZIPPER	1636	n/a	n/a	0	0	0
640656	REC_WORD	wordpools/wasnorm_wordpool_576.txt	LTP379	ltpFR2	1	3	ANKLE	24	n/a	n/a	0	0	0
642200	REC_WORD	wordpools/wasnorm_wordpool_576.txt	LTP379	ltpFR2	1	3	MILDEW	893	n/a	n/a	0	0	0
644657	REC_WORD	wordpools/wasnorm_wordpool_576.txt	LTP379	ltpFR2	1	3	TWISTER	1530	n/a	n/a	0	0	0
646392	REC_WORD	wordpools/wasnorm_wordpool_576.txt	LTP379	ltpFR2	1	3	SPHINX	1349	n/a	n/a	0	0	0
648402	REC_WORD	wordpools/wasnorm_wordpool_576.txt	LTP379	ltpFR2	1	3	DRILL	497	n/a	n/a	0	0	0
650209	REC_WORD	wordpools/wasnorm_wordpool_576.txt	LTP379	ltpFR2	1	3	TART	1436	n/a	n/a	0	0	0
658963	REC_WORD	wordpools/wasnorm_wordpool_576.txt	LTP379	ltpFR2	1	3	CRITIC	410	n/a	n/a	0	0	0
661450	REC_WORD	wordpools/wasnorm_wordpool_576.txt	LTP379	ltpFR2	1	3	ROBOT	1200	n/a	n/a	0	0	0
663099	REC_WORD	wordpools/wasnorm_wordpool_576.txt	LTP379	ltpFR2	1	3	CATCHER	258	n/a	n/a	0	0	0
664555	REC_WORD	wordpools/wasnorm_wordpool_576.txt	LTP379	ltpFR2	1	3	WIFE	1609	n/a	n/a	0	0	0
691340	DISTRACTOR	n/a	LTP379	ltpFR2	1	4	n/a	n/a	n/a	n/a	0	0	0
691340	START	n/a	LTP379	ltpFR2	1	n/a	n/a	n/a	6	n/a	n/a	n/a	n/a
691357	PROB	n/a	LTP379	ltpFR2	1	n/a	n/a	n/a	6	17	2	9	6
693240	PROB	n/a	LTP379	ltpFR2	1	n/a	n/a	n/a	6	20	7	6	7
695507	PROB	n/a	LTP379	ltpFR2	1	n/a	n/a	n/a	6	17	9	7	1
697573	PROB	n/a	LTP379	ltpFR2	1	n/a	n/a	n/a	6	21	9	6	6
699390	PROB	n/a	LTP379	ltpFR2	1	n/a	n/a	n/a	6	13	6	6	1
700557	PROB	n/a	LTP379	ltpFR2	1	n/a	n/a	n/a	6	15	5	7	3
702307	PROB	n/a	LTP379	ltpFR2	1	n/a	n/a	n/a	6	13	4	6	3
703523	PROB	n/a	LTP379	ltpFR2	1	n/a	n/a	n/a	6	20	4	8	8
704956	PROB	n/a	LTP379	ltpFR2	1	n/a	n/a	n/a	6	13	7	5	1
706757	PROB	n/a	LTP379	ltpFR2	1	n/a	n/a	n/a	6	16	3	6	7
708423	PROB	n/a	LTP379	ltpFR2	1	n/a	n/a	n/a	6	21	7	9	5
711022	PROB	n/a	LTP379	ltpFR2	1	n/a	n/a	n/a	6	23	5	9	9
712822	PROB	n/a	LTP379	ltpFR2	1	n/a	n/a	n/a	6	16	5	6	5
714182	STOP	n/a	LTP379	ltpFR2	1	n/a	n/a	n/a	6	n/a	n/a	n/a	n/a
716273	WORD	wordpools/wasnorm_wordpool_576.txt	LTP379	ltpFR2	1	4	DIME	466	n/a	n/a	0	0	0
719089	WORD	wordpools/wasnorm_wordpool_576.txt	LTP379	ltpFR2	1	4	BRIEFCASE	175	n/a	n/a	0	0	0
721656	WORD	wordpools/wasnorm_wordpool_576.txt	LTP379	ltpFR2	1	4	EYELASH	546	n/a	n/a	0	0	0
724106	WORD	wordpools/wasnorm_wordpool_576.txt	LTP379	ltpFR2	1	4	FRECKLE	602	n/a	n/a	0	0	0
726889	WORD	wordpools/wasnorm_wordpool_576.txt	LTP379	ltpFR2	1	4	FOOT	590	n/a	n/a	0	0	0
729356	WORD	wordpools/wasnorm_wordpool_576.txt	LTP379	ltpFR2	1	4	LEG	809	n/a	n/a	0	0	0
732055	WORD	wordpools/wasnorm_wordpool_576.txt	LTP379	ltpFR2	1	4	CUPBOARD	425	n/a	n/a	0	0	0
734473	WORD	wordpools/wasnorm_wordpool_576.txt	LTP379	ltpFR2	1	4	APRON	35	n/a	n/a	0	0	0
737022	WORD	wordpools/wasnorm_wordpool_576.txt	LTP379	ltpFR2	1	4	LAGOON	795	n/a	n/a	0	0	0
739673	WORD	wordpools/wasnorm_wordpool_576.txt	LTP379	ltpFR2	1	4	IDOL	733	n/a	n/a	0	0	0
742389	WORD	wordpools/wasnorm_wordpool_576.txt	LTP379	ltpFR2	1	4	FRIEND	606	n/a	n/a	0	0	0
745139	WORD	wordpools/wasnorm_wordpool_576.txt	LTP379	ltpFR2	1	4	TUNNEL	1519	n/a	n/a	0	0	0
747872	WORD	wordpools/wasnorm_wordpool_576.txt	LTP379	ltpFR2	1	4	TOURIST	1488	n/a	n/a	0	0	0
750406	WORD	wordpools/wasnorm_wordpool_576.txt	LTP379	ltpFR2	1	4	YOLK	1633	n/a	n/a	0	0	0
753088	WORD	wordpools/wasnorm_wordpool_576.txt	LTP379	ltpFR2	1	4	ASIA	46	n/a	n/a	0	0	0
755788	WORD	wordpools/wasnorm_wordpool_576.txt	LTP379	ltpFR2	1	4	CRATER	400	n/a	n/a	0	0	0
758222	WORD	wordpools/wasnorm_wordpool_576.txt	LTP379	ltpFR2	1	4	STAR	1373	n/a	n/a	0	0	0
760988	WORD	wordpools/wasnorm_wordpool_576.txt	LTP379	ltpFR2	1	4	TREAT	1501	n/a	n/a	0	0	0
763656	WORD	wordpools/wasnorm_wordpool_576.txt	LTP379	ltpFR2	1	4	HERO	706	n/a	n/a	0	0	0
766389	WORD	wordpools/wasnorm_wordpool_576.txt	LTP379	ltpFR2	1	4	DANCER	437	n/a	n/a	0	0	0
768855	WORD	wordpools/wasnorm_wordpool_576.txt	LTP379	ltpFR2	1	4	CURTAIN	427	n/a	n/a	0	0	0
771422	WORD	wordpools/wasnorm_wordpool_576.txt	LTP379	ltpFR2	1	4	CAFE	216	n/a	n/a	0	0	0
774038	WORD	wordpools/wasnorm_wordpool_576.txt	LTP379	ltpFR2	1	4	POSSUM	1112	n/a	n/a	0	0	0
776522	WORD	wordpools/wasnorm_wordpool_576.txt	LTP379	ltpFR2	1	4	BEAVER	109	n/a	n/a	0	0	0
778139	START	n/a	LTP379	ltpFR2	1	n/a	n/a	n/a	7	n/a	n/a	n/a	n/a
779307	DISTRACTOR	n/a	LTP379	ltpFR2	1	4	n/a	n/a	n/a	n/a	0	0	0
779322	PROB	n/a	LTP379	ltpFR2	1	n/a	n/a	n/a	7	14	4	6	4
781456	PROB	n/a	LTP379	ltpFR2	1	n/a	n/a	n/a	7	12	7	2	3
783054	PROB	n/a	LTP379	ltpFR2	1	n/a	n/a	n/a	7	11	2	4	5
784672	PROB	n/a	LTP379	ltpFR2	1	n/a	n/a	n/a	7	15	5	3	7
787389	PROB	n/a	LTP379	ltpFR2	1	n/a	n/a	n/a	7	21	8	6	7
789771	PROB	n/a	LTP379	ltpFR2	1	n/a	n/a	n/a	7	11	1	4	6
791054	PROB	n/a	LTP379	ltpFR2	1	n/a	n/a	n/a	7	11	3	7	1
792172	PROB	n/a	LTP379	ltpFR2	1	n/a	n/a	n/a	7	4	2	1	1
793389	PROB	n/a	LTP379	ltpFR2	1	n/a	n/a	n/a	7	23	9	9	5
794804	PROB	n/a	LTP379	ltpFR2	1	n/a	n/a	n/a	7	12	7	1	4
796505	PROB	n/a	LTP379	ltpFR2	1	n/a	n/a	n/a	7	8	1	3	4
798155	PROB	n/a	LTP379	ltpFR2	1	n/a	n/a	n/a	7	15	7	5	3
799954	PROB	n/a	LTP379	ltpFR2	1	n/a	n/a	n/a	7	15	5	8	2
801377	STOP	n/a	LTP379	ltpFR2	1	n/a	n/a	n/a	7	n/a	n/a	n/a	n/a
804071	REC_START	n/a	LTP379	ltpFR2	1	4	n/a	n/a	n/a	n/a	0	0	0
808958	REC_WORD	wordpools/wasnorm_wordpool_576.txt	LTP379	ltpFR2	1	4	DIME	466	n/a	n/a	0	0	0
810553	REC_WORD	wordpools/wasnorm_wordpool_576.txt	LTP379	ltpFR2	1	4	BRIEFCASE	175	n/a	n/a	0	0	0
812552	REC_WORD	wordpools/wasnorm_wordpool_576.txt	LTP379	ltpFR2	1	4	EYELASH	546	n/a	n/a	0	0	0
814232	REC_WORD	wordpools/wasnorm_wordpool_576.txt	LTP379	ltpFR2	1	4	FRECKLE	602	n/a	n/a	0	0	0
816293	REC_WORD	wordpools/wasnorm_wordpool_576.txt	LTP379	ltpFR2	1	4	FOOT	590	n/a	n/a	0	0	0
818102	REC_WORD	wordpools/wasnorm_wordpool_576.txt	LTP379	ltpFR2	1	4	LEG	809	n/a	n/a	0	0	0
819879	REC_WORD	wordpools/wasnorm_wordpool_576.txt	LTP379	ltpFR2	1	4	CUPBOARD	425	n/a	n/a	0	0	0
821857	REC_WORD	wordpools/wasnorm_wordpool_576.txt	LTP379	ltpFR2	1	4	APRON	35	n/a	n/a	0	0	0
823417	REC_WORD	wordpools/wasnorm_wordpool_576.txt	LTP379	ltpFR2	1	4	LAGOON	795	n/a	n/a	0	0	0
826309	REC_WORD	wordpools/wasnorm_wordpool_576.txt	LTP379	ltpFR2	1	4	IDOL	733	n/a	n/a	0	0	0
828662	REC_WORD	wordpools/wasnorm_wordpool_576.txt	LTP379	ltpFR2	1	4	FRIEND	606	n/a	n/a	0	0	0
831333	REC_WORD	wordpools/wasnorm_wordpool_576.txt	LTP379	ltpFR2	1	4	TUNNEL	1519	n/a	n/a	0	0	0
833276	REC_WORD	wordpools/wasnorm_wordpool_576.txt	LTP379	ltpFR2	1	4	TOURIST	1488	n/a	n/a	0	0	0
835060	REC_WORD	wordpools/wasnorm_wordpool_576.txt	LTP379	ltpFR2	1	4	YOLK	1633	n/a	n/a	0	0	0
837281	REC_WORD	wordpools/wasnorm_wordpool_576.txt	LTP379	ltpFR2	1	4	ASIA	46	n/a	n/a	0	0	0
840874	REC_WORD	wordpools/wasnorm_wordpool_576.txt	LTP379	ltpFR2	1	4	CRATER	400	n/a	n/a	0	0	0
842800	REC_WORD	wordpools/wasnorm_wordpool_576.txt	LTP379	ltpFR2	1	4	STAR	1373	n/a	n/a	0	0	0
844811	REC_WORD	wordpools/wasnorm_wordpool_576.txt	LTP379	ltpFR2	1	4	TREAT	1501	n/a	n/a	0	0	0
847704	REC_WORD	wordpools/wasnorm_wordpool_576.txt	LTP379	ltpFR2	1	4	HERO	706	n/a	n/a	0	0	0
850462	REC_WORD	wordpools/wasnorm_wordpool_576.txt	LTP379	ltpFR2	1	4	DANCER	437	n/a	n/a	0	0	0
853269	REC_WORD	wordpools/wasnorm_wordpool_576.txt	LTP379	ltpFR2	1	4	CURTAIN	427	n/a	n/a	0	0	0
858156	REC_WORD	wordpools/wasnorm_wordpool_576.txt	LTP379	ltpFR2	1	4	CAFE	216	n/a	n/a	0	0	0
859980	REC_WORD	wordpools/wasnorm_wordpool_576.txt	LTP379	ltpFR2	1	4	POSSUM	1112	n/a	n/a	0	0	0
861802	REC_WORD	wordpools/wasnorm_wordpool_576.txt	LTP379	ltpFR2	1	4	BEAVER	109	n/a	n/a	0	0	0
894537	WORD	wordpools/wasnorm_wordpool_576.txt	LTP379	ltpFR2	1	5	CUSTARD	429	n/a	n/a	0	0	0
897254	WORD	wordpools/wasnorm_wordpool_576.txt	LTP379	ltpFR2	1	5	OZONE	996	n/a	n/a	0	0	0
900069	WORD	wordpools/wasnorm_wordpool_576.txt	LTP379	ltpFR2	1	5	TERMITE	1451	n/a	n/a	0	0	0
902769	WORD	wordpools/wasnorm_wordpool_576.txt	LTP379	ltpFR2	1	5	BUG	187	n/a	n/a	0	0	0
905187	WORD	wordpools/wasnorm_wordpool_576.txt	LTP379	ltpFR2	1	5	SUNSET	1408	n/a	n/a	0	0	0
907769	WORD	wordpools/wasnorm_wordpool_576.txt	LTP379	ltpFR2	1	5	DOLPHIN	483	n/a	n/a	0	0	0
910487	WORD	wordpools/wasnorm_wordpool_576.txt	LTP379	ltpFR2	1	5	SHOVEL	1295	n/a	n/a	0	0	0
913203	WORD	wordpools/wasnorm_wordpool_576.txt	LTP379	ltpFR2	1	5	GRAVEL	659	n/a	n/a	0	0	0
915852	WORD	wordpools/wasnorm_wordpool_576.txt	LTP379	ltpFR2	1	5	QUEEN	1149	n/a	n/a	0	0	0
918570	WORD	wordpools/wasnorm_wordpool_576.txt	LTP379	ltpFR2	1	5	LUMBER	848	n/a	n/a	0	0	0
921237	WORD	wordpools/wasnorm_wordpool_576.txt	LTP379	ltpFR2	1	5	BURGLAR	200	n/a	n/a	0	0	0
923753	WORD	wordpools/wasnorm_wordpool_576.txt	LTP379	ltpFR2	1	5	GUARD	667	n/a	n/a	0	0	0
926337	WORD	wordpools/wasnorm_wordpool_576.txt	LTP379	ltpFR2	1	5	JELLO	754	n/a	n/a	0	0	0
928836	WORD	wordpools/wasnorm_wordpool_576.txt	LTP379	ltpFR2	1	5	POPCORN	1104	n/a	n/a	0	0	0
931386	WORD	wordpools/wasnorm_wordpool_576.txt	LTP379	ltpFR2	1	5	PORK	1108	n/a	n/a	0	0	0
933935	WORD	wordpools/wasnorm_wordpool_576.txt	LTP379	ltpFR2	1	5	BUTCHER	203	n/a	n/a	0	0	0
936486	WORD	wordpools/wasnorm_wordpool_576.txt	LTP379	ltpFR2	1	5	HARP	689	n/a	n/a	0	0	0
939253	WORD	wordpools/wasnorm_wordpool_576.txt	LTP379	ltpFR2	1	5	KETCHUP	771	n/a	n/a	0	0	0
941952	WORD	wordpools/wasnorm_wordpool_576.txt	LTP379	ltpFR2	1	5	AUTHOR	61	n/a	n/a	0	0	0
944620	WORD	wordpools/wasnorm_wordpool_576.txt	LTP379	ltpFR2	1	5	YARN	1631	n/a	n/a	0	0	0
947186	WORD	wordpools/wasnorm_wordpool_576.txt	LTP379	ltpFR2	1	5	MOP	916	n/a	n/a	0	0	0
949935	WORD	wordpools/wasnorm_wordpool_576.txt	LTP379	ltpFR2	1	5	CASHEW	253	n/a	n/a	0	0	0
952736	WORD	wordpools/wasnorm_wordpool_576.txt	LTP379	ltpFR2	1	5	MARKET	871	n/a	n/a	0	0	0
955286	WORD	wordpools/wasnorm_wordpool_576.txt	LTP379	ltpFR2	1	5	PRINCESS	1125	n/a	n/a	0	0	0
956902	START	n/a	LTP379	ltpFR2	1	n/a	n/a	n/a	8	n/a	n/a	n/a	n/a
957974	DISTRACTOR	n/a	LTP379	ltpFR2	1	5	n/a	n/a	n/a	n/a	0	0	0
957985	PROB	n/a	LTP379	ltpFR2	1	n/a	n/a	n/a	8	20	4	7	9
960119	PROB	n/a	LTP379	ltpFR2	1	n/a	n/a	n/a	8	17	9	4	4
962186	PROB	n/a	LTP379	ltpFR2	1	n/a	n/a	n/a	8	15	2	8	5
963403	PROB	n/a	LTP379	ltpFR2	1	n/a	n/a	n/a	8	18	8	2	8
965453	PROB	n/a	LTP379	ltpFR2	1	n/a	n/a	n/a	8	7	2	3	2
967068	PROB	n/a	LTP379	ltpFR2	1	n/a	n/a	n/a	8	5	1	3	1
968303	PROB	n/a	LTP379	ltpFR2	1	n/a	n/a	n/a	8	18	1	8	9
969935	PROB	n/a	LTP379	ltpFR2	1	n/a	n/a	n/a	8	17	3	6	8
971536	PROB	n/a	LTP379	ltpFR2	1	n/a	n/a	n/a	8	18	9	3	5
973219	PROB	n/a	LTP379	ltpFR2	1	n/a	n/a	n/a	8	17	9	5	3
975851	PROB	n/a	LTP379	ltpFR2	1	n/a	n/a	n/a	8	10	2	5	3
977319	PROB	n/a	LTP379	ltpFR2	1	n/a	n/a	n/a	8	13	2	6	5
978768	PROB	n/a	LTP379	ltpFR2	1	n/a	n/a	n/a	8	23	9	5	9
980430	STOP	n/a	LTP379	ltpFR2	1	n/a	n/a	n/a	8	n/a	n/a	n/a	n/a
982819	REC_START	n/a	LTP379	ltpFR2	1	5	n/a	n/a	n/a	n/a	0	0	0
987591	REC_WORD	wordpools/wasnorm_wordpool_576.txt	LTP379	ltpFR2	1	5	CUSTARD	429	n/a	n/a	0	0	0
989237	REC_WORD	wordpools/wasnorm_wordpool_576.txt	LTP379	ltpFR2	1	5	OZONE	996	n/a	n/a	0	0	0
990976	REC_WORD	wordpools/wasnorm_wordpool_576.txt	LTP379	ltpFR2	1	5	TERMITE	1451	n/a	n/a	0	0	0
992851	REC_WORD	wordpools/wasnorm_wordpool_576.txt	LTP379	ltpFR2	1	5	BUG	187	n/a	n/a	0	0	0
995318	REC_WORD	wordpools/wasnorm_wordpool_576.txt	LTP379	ltpFR2	1	5	SUNSET	1408	n/a	n/a	0	0	0
997328	REC_WORD	wordpools/wasnorm_wordpool_576.txt	LTP379	ltpFR2	1	5	DOLPHIN	483	n/a	n/a	0	0	0
998898	REC_WORD	wordpools/wasnorm_wordpool_576.txt	LTP379	ltpFR2	1	5	SHOVEL	1295	n/a	n/a	0	0	0
1001314	REC_WORD	wordpools/wasnorm_wordpool_576.txt	LTP379	ltpFR2	1	5	GRAVEL	659	n/a	n/a	0	0	0
1004536	REC_WORD	wordpools/wasnorm_wordpool_576.txt	LTP379	ltpFR2	1	5	QUEEN	1149	n/a	n/a	0	0	0
1006898	REC_WORD	wordpools/wasnorm_wordpool_576.txt	LTP379	ltpFR2	1	5	LUMBER	848	n/a	n/a	0	0	0
1009360	REC_WORD	wordpools/wasnorm_wordpool_576.txt	LTP379	ltpFR2	1	5	BURGLAR	200	n/a	n/a	0	0	0
1012213	REC_WORD	wordpools/wasnorm_wordpool_576.txt	LTP379	ltpFR2	1	5	GUARD	667	n/a	n/a	0	0	0
1013985	REC_WORD	wordpools/wasnorm_wordpool_576.txt	LTP379	ltpFR2	1	5	JELLO	754	n/a	n/a	0	0	0
1015448	REC_WORD	wordpools/wasnorm_wordpool_576.txt	LTP379	ltpFR2	1	5	POPCORN	1104	n/a	n/a	0	0	0
1017227	REC_WORD	wordpools/wasnorm_wordpool_576.txt	LTP379	ltpFR2	1	5	PORK	1108	n/a	n/a	0	0	0
1022290	REC_WORD	wordpools/wasnorm_wordpool_576.txt	LTP379	ltpFR2	1	5	BUTCHER	203	n/a	n/a	0	0	0
1024441	REC_WORD	wordpools/wasnorm_wordpool_576.txt	LTP379	ltpFR2	1	5	HARP	689	n/a	n/a	0	0	0
1027905	REC_WORD	wordpools/wasnorm_wordpool_576.txt	LTP379	ltpFR2	1	5	KETCHUP	771	n/a	n/a	0	0	0
1034771	REC_WORD	wordpools/wasnorm_wordpool_576.txt	LTP379	ltpFR2	1	5	AUTHOR	61	n/a	n/a	0	0	0
1036383	REC_WORD	wordpools/wasnorm_wordpool_576.txt	LTP379	ltpFR2	1	5	YARN	1631	n/a	n/a	0	0	0
1037868	REC_WORD	wordpools/wasnorm_wordpool_576.txt	LTP379	ltpFR2	1	5	MOP	916	n/a	n/a	0	0	0
1039449	REC_WORD	wordpools/wasnorm_wordpool_576.txt	LTP379	ltpFR2	1	5	CASHEW	253	n/a	n/a	0	0	0
1041307	REC_WORD	wordpools/wasnorm_wordpool_576.txt	LTP379	ltpFR2	1	5	MARKET	871	n/a	n/a	0	0	0
1043096	REC_WORD	wordpools/wasnorm_wordpool_576.txt	LTP379	ltpFR2	1	5	PRINCESS	1125	n/a	n/a	0	0	0
1073284	WORD	wordpools/wasnorm_wordpool_576.txt	LTP379	ltpFR2	1	6	PASTA	1021	n/a	n/a	0	0	0
1076033	WORD	wordpools/wasnorm_wordpool_576.txt	LTP379	ltpFR2	1	6	VALVE	1546	n/a	n/a	0	0	0
1078501	WORD	wordpools/wasnorm_wordpool_576.txt	LTP379	ltpFR2	1	6	CLOTHES	327	n/a	n/a	0	0	0
1080967	WORD	wordpools/wasnorm_wordpool_576.txt	LTP379	ltpFR2	1	6	CANAL	226	n/a	n/a	0	0	0
1083768	WORD	wordpools/wasnorm_wordpool_576.txt	LTP379	ltpFR2	1	6	BUGGY	188	n/a	n/a	0	0	0
1086334	WORD	wordpools/wasnorm_wordpool_576.txt	LTP379	ltpFR2	1	6	COWBOY	395	n/a	n/a	0	0	0
1089033	WORD	wordpools/wasnorm_wordpool_576.txt	LTP379	ltpFR2	1	6	DINER	467	n/a	n/a	0	0	0
1091767	WORD	wordpools/wasnorm_wordpool_576.txt	LTP379	ltpFR2	1	6	POCKET	1093	n/a	n/a	0	0	0
1094251	WORD	wordpools/wasnorm_wordpool_576.txt	LTP379	ltpFR2	1	6	DIVER	476	n/a	n/a	0	0	0
1096983	WORD	wordpools/wasnorm_wordpool_576.txt	LTP379	ltpFR2	1	6	CEILING	265	n/a	n/a	0	0	0
1099601	WORD	wordpools/wasnorm_wordpool_576.txt	LTP379	ltpFR2	1	6	DRESSER	496	n/a	n/a	0	0	0
1102234	WORD	wordpools/wasnorm_wordpool_576.txt	LTP379	ltpFR2	1	6	HANDBAG	684	n/a	n/a	0	0	0
1104966	WORD	wordpools/wasnorm_wordpool_576.txt	LTP379	ltpFR2	1	6	FOX	598	n/a	n/a	0	0	0
1107600	WORD	wordpools/wasnorm_wordpool_576.txt	LTP379	ltpFR2	1	6	SPARROW	1347	n/a	n/a	0	0	0
1110083	WORD	wordpools/wasnorm_wordpool_576.txt	LTP379	ltpFR2	1	6	WRIST	1626	n/a	n/a	0	0	0
1112517	WORD	wordpools/wasnorm_wordpool_576.txt	LTP379	ltpFR2	1	6	NECKLACE	940	n/a	n/a	0	0	0
1114949	WORD	wordpools/wasnorm_wordpool_576.txt	LTP379	ltpFR2	1	6	APPLE	33	n/a	n/a	0	0	0
1117467	WORD	wordpools/wasnorm_wordpool_576.txt	LTP379	ltpFR2	1	6	PEACH	1031	n/a	n/a	0	0	0
1120066	WORD	wordpools/wasnorm_wordpool_576.txt	LTP379	ltpFR2	1	6	SLIME	1327	n/a	n/a	0	0	0
1122849	WORD	wordpools/wasnorm_wordpool_576.txt	LTP379	ltpFR2	1	6	CASKET	255	n/a	n/a	0	0	0
1125434	WORD	wordpools/wasnorm_wordpool_576.txt	LTP379	ltpFR2	1	6	COURSE	390	n/a	n/a	0	0	0
1128184	WORD	wordpools/wasnorm_wordpool_576.txt	LTP379	ltpFR2	1	6	SKIRT	1319	n/a	n/a	0	0	0
1130932	WORD	wordpools/wasnorm_wordpool_576.txt	LTP379	ltpFR2	1	6	RATTLE	1170	n/a	n/a	0	0	0
1133583	WORD	wordpools/wasnorm_wordpool_576.txt	LTP379	ltpFR2	1	6	SUSPECT	1415	n/a	n/a	0	0	0
1135200	START	n/a	LTP379	ltpFR2	1	n/a	n/a	n/a	9	n/a	n/a	n/a	n/a
1136122	DISTRACTOR	n/a	LTP379	ltpFR2	1	6	n/a	n/a	n/a	n/a	0	0	0
1136133	PROB	n/a	LTP379	ltpFR2	1	n/a	n/a	n/a	9	17	8	5	4
1138667	PROB	n/a	LTP379	ltpFR2	1	n/a	n/a	n/a	9	19	6	8	5
1140966	PROB	n/a	LTP379	ltpFR2	1	n/a	n/a	n/a	9	14	9	4	1
1142533	PROB	n/a	LTP379	ltpFR2	1	n/a	n/a	n/a	9	8	3	3	2
1144583	PROB	n/a	LTP379	ltpFR2	1	n/a	n/a	n/a	9	20	5	7	8
1146283	PROB	n/a	LTP379	ltpFR2	1	n/a	n/a	n/a	9	9	2	2	5
1147600	PROB	n/a	LTP379	ltpFR2	1	n/a	n/a	n/a	9	18	4	8	6
1149450	PROB	n/a	LTP379	ltpFR2	1	n/a	n/a	n/a	9	23	7	8	7
1151150	PROB	n/a	LTP379	ltpFR2	1	n/a	n/a	n/a	9	15	9	3	3
1153316	PROB	n/a	LTP379	ltpFR2	1	n/a	n/a	n/a	9	12	4	6	2
1154733	PROB	n/a	LTP379	ltpFR2	1	n/a	n/a	n/a	9	12	3	1	8
1156333	PROB	n/a	LTP379	ltpFR2	1	n/a	n/a	n/a	9	20	5	7	8
1157963	STOP	n/a	LTP379	ltpFR2	1	n/a	n/a	n/a	9	n/a	n/a	n/a	n/a
1161082	REC_START	n/a	LTP379	ltpFR2	1	6	n/a	n/a	n/a	n/a	0	0	0
1164657	REC_WORD	wordpools/wasnorm_wordpool_576.txt	LTP379	ltpFR2	1	6	PASTA	1021	n/a	n/a	0	0	0
1166081	REC_WORD	wordpools/wasnorm_wordpool_576.txt	LTP379	ltpFR2	1	6	VALVE	1546	n/a	n/a	0	0	0
1168018	REC_WORD	wordpools/wasnorm_wordpool_576.txt	LTP379	ltpFR2	1	6	CLOTHES	327	n/a	n/a	0	0	0
1171276	REC_WORD	wordpools/wasnorm_wordpool_576.txt	LTP379	ltpFR2	1	6	CANAL	226	n/a	n/a	0	0	0
1174434	REC_WORD	wordpools/wasnorm_wordpool_576.txt	LTP379	ltpFR2	1	6	BUGGY	188	n/a	n/a	0	0	0
1176016	REC_WORD	wordpools/wasnorm_wordpool_576.txt	LTP379	ltpFR2	1	6	COWBOY	395	n/a	n/a	0	0	0
1178185	REC_WORD	wordpools/wasnorm_wordpool_576.txt	LTP379	ltpFR2	1	6	DINER	467	n/a	n/a	0	0	0
1179598	REC_WORD	wordpools/wasnorm_wordpool_576.txt	LTP379	ltpFR2	1	6	POCKET	1093	n/a	n/a	0	0	0
1181250	REC_WORD	wordpools/wasnorm_wordpool_576.txt	LTP379	ltpFR2	1	6	DIVER	476	n/a	n/a	0	0	0
1183238	REC_WORD	wordpools/wasnorm_wordpool_576.txt	LTP379	ltpFR2	1	6	CEILING	265	n/a	n/a	0	0	0
1185844	REC_WORD	wordpools/wasnorm_wordpool_576.txt	LTP379	ltpFR2	1	6	DRESSER	496	n/a	n/a	0	0	0
1187328	REC_WORD	wordpools/wasnorm_wordpool_576.txt	LTP379	ltpFR2	1	6	HANDBAG	684	n/a	n/a	0	0	0
1189018	REC_WORD	wordpools/wasnorm_wordpool_576.txt	LTP379	ltpFR2	1	6	FOX	598	n/a	n/a	0	0	0
1190819	REC_WORD	wordpools/wasnorm_wordpool_576.txt	LTP379	ltpFR2	1	6	SPARROW	1347	n/a	n/a	0	0	0
1192603	REC_WORD	wordpools/wasnorm_wordpool_576.txt	LTP379	ltpFR2	1	6	WRIST	1626	n/a	n/a	0	0	0
1194505	REC_WORD	wordpools/wasnorm_wordpool_576.txt	LTP379	ltpFR2	1	6	NECKLACE	940	n/a	n/a	0	0	0
1196223	REC_WORD	wordpools/wasnorm_wordpool_576.txt	LTP379	ltpFR2	1	6	APPLE	33	n/a	n/a	0	0	0
1197885	REC_WORD	wordpools/wasnorm_wordpool_576.txt	LTP379	ltpFR2	1	6	PEACH	1031	n/a	n/a	0	0	0
1199336	REC_WORD	wordpools/wasnorm_wordpool_576.txt	LTP379	ltpFR2	1	6	SLIME	1327	n/a	n/a	0	0	0
1201092	REC_WORD	wordpools/wasnorm_wordpool_576.txt	LTP379	ltpFR2	1	6	CASKET	255	n/a	n/a	0	0	0
1204798	REC_WORD	wordpools/wasnorm_wordpool_576.txt	LTP379	ltpFR2	1	6	COURSE	390	n/a	n/a	0	0	0
1206479	REC_WORD	wordpools/wasnorm_wordpool_576.txt	LTP379	ltpFR2	1	6	SKIRT	1319	n/a	n/a	0	0	0
1208339	REC_WORD	wordpools/wasnorm_wordpool_576.txt	LTP379	ltpFR2	1	6	RATTLE	1170	n/a	n/a	0	0	0
1209772	REC_WORD	wordpools/wasnorm_wordpool_576.txt	LTP379	ltpFR2	1	6	SUSPECT	1415	n/a	n/a	0	0	0
1251532	WORD	wordpools/wasnorm_wordpool_576.txt	LTP379	ltpFR2	1	7	SLOPE	1328	n/a	n/a	0	0	0
1253980	WORD	wordpools/wasnorm_wordpool_576.txt	LTP379	ltpFR2	1	7	DENIM	446	n/a	n/a	0	0	0
1256698	WORD	wordpools/wasnorm_wordpool_576.txt	LTP379	ltpFR2	1	7	SHORTS	1293	n/a	n/a	0	0	0
1259365	WORD	wordpools/wasnorm_wordpool_576.txt	LTP379	ltpFR2	1	7	CARROT	249	n/a	n/a	0	0	0
1262131	WORD	wordpools/wasnorm_wordpool_576.txt	LTP379	ltpFR2	1	7	TABLE	1426	n/a	n/a	0	0	0
1264830	WORD	wordpools/wasnorm_wordpool_576.txt	LTP379	ltpFR2	1	7	TRIBE	1505	n/a	n/a	0	0	0
1267581	WORD	wordpools/wasnorm_wordpool_576.txt	LTP379	ltpFR2	1	7	BISON	131	n/a	n/a	0	0	0
1270064	WORD	wordpools/wasnorm_wordpool_576.txt	LTP379	ltpFR2	1	7	SWAMP	1416	n/a	n/a	0	0	0
1272830	WORD	wordpools/wasnorm_wordpool_576.txt	LTP379	ltpFR2	1	7	CANYON	235	n/a	n/a	0	0	0
1275381	WORD	wordpools/wasnorm_wordpool_576.txt	LTP379	ltpFR2	1	7	LASER	801	n/a	n/a	0	0	0
1278013	WORD	wordpools/wasnorm_wordpool_576.txt	LTP379	ltpFR2	1	7	PANTHER	1009	n/a	n/a	0	0	0
1280714	WORD	wordpools/wasnorm_wordpool_576.txt	LTP379	ltpFR2	1	7	CRUTCH	417	n/a	n/a	0	0	0
1283348	WORD	wordpools/wasnorm_wordpool_576.txt	LTP379	ltpFR2	1	7	WASP	1593	n/a	n/a	0	0	0
1286131	WORD	wordpools/wasnorm_wordpool_576.txt	LTP379	ltpFR2	1	7	LEADER	807	n/a	n/a	0	0	0
1288797	WORD	wordpools/wasnorm_wordpool_576.txt	LTP379	ltpFR2	1	7	QUARTER	1148	n/a	n/a	0	0	0
1291398	WORD	wordpools/wasnorm_wordpool_576.txt	LTP379	ltpFR2	1	7	STAPLE	1371	n/a	n/a	0	0	0
1293896	WORD	wordpools/wasnorm_wordpool_576.txt	LTP379	ltpFR2	1	7	RIFLE	1192	n/a	n/a	0	0	0
1296414	WORD	wordpools/wasnorm_wordpool_576.txt	LTP379	ltpFR2	1	7	PERCH	1048	n/a	n/a	0	0	0
1299164	WORD	wordpools/wasnorm_wordpool_576.txt	LTP379	ltpFR2	1	7	LABEL	790	n/a	n/a	0	0	0
1301614	WORD	wordpools/wasnorm_wordpool_576.txt	LTP379	ltpFR2	1	7	GRILL	661	n/a	n/a	0	0	0
1304214	WORD	wordpools/wasnorm_wordpool_576.txt	LTP379	ltpFR2	1	7	SPIDER	1351	n/a	n/a	0	0	0
1306647	WORD	wordpools/wasnorm_wordpool_576.txt	LTP379	ltpFR2	1	7	SHOULDER	1294	n/a	n/a	0	0	0
1309397	WORD	wordpools/wasnorm_wordpool_576.txt	LTP379	ltpFR2	1	7	PADDING	999	n/a	n/a	0	0	0
1312114	WORD	wordpools/wasnorm_wordpool_576.txt	LTP379	ltpFR2	1	7	FLAG	573	n/a	n/a	0	0	0
1313731	START	n/a	LTP379	ltpFR2	1	n/a	n/a	n/a	10	n/a	n/a	n/a	n/a
1314601	DISTRACTOR	n/a	LTP379	ltpFR2	1	7	n/a	n/a	n/a	n/a	0	0	0
1314614	PROB	n/a	LTP379	ltpFR2	1	n/a	n/a	n/a	10	17	8	7	2
1317264	PROB	n/a	LTP379	ltpFR2	1	n/a	n/a	n/a	10	20	8	4	8
1318996	PROB	n/a	LTP379	ltpFR2	1	n/a	n/a	n/a	10	12	5	5	2
1320164	PROB	n/a	LTP379	ltpFR2	1	n/a	n/a	n/a	10	16	1	9	6
1321414	PROB	n/a	LTP379	ltpFR2	1	n/a	n/a	n/a	10	15	6	2	7
1323664	PROB	n/a	LTP379	ltpFR2	1	n/a	n/a	n/a	10	17	8	1	8
1325380	PROB	n/a	LTP379	ltpFR2	1	n/a	n/a	n/a	10	8	5	2	1
1326846	PROB	n/a	LTP379	ltpFR2	1	n/a	n/a	n/a	10	27	9	9	9
1328764	PROB	n/a	LTP379	ltpFR2	1	n/a	n/a	n/a	10	11	2	7	2
1330597	PROB	n/a	LTP379	ltpFR2	1	n/a	n/a	n/a	10	14	5	3	6
1332280	PROB	n/a	LTP379	ltpFR2	1	n/a	n/a	n/a	10	21	7	8	6
1334029	PROB	n/a	LTP379	ltpFR2	1	n/a	n/a	n/a	10	15	8	1	6
1335580	PROB	n/a	LTP379	ltpFR2	1	n/a	n/a	n/a	10	11	1	6	4
1336784	STOP	n/a	LTP379	ltpFR2	1	n/a	n/a	n/a	10	n/a	n/a	n/a	n/a
1339597	REC_START	n/a	LTP379	ltpFR2	1	7	n/a	n/a	n/a	n/a	0	0	0
1342571	REC_WORD	wordpools/wasnorm_wordpool_576.txt	LTP379	ltpFR2	1	7	SLOPE	1328	n/a	n/a	0	0	0
1344676	REC_WORD	wordpools/wasnorm_wordpool_576.txt	LTP379	ltpFR2	1	7	DENIM	446	n/a	n/a	0	0	0
1346191	REC_WORD	wordpools/wasnorm_wordpool_576.txt	LTP379	ltpFR2	1	7	SHORTS	1293	n/a	n/a	0	0	0
1348547	REC_WORD	wordpools/wasnorm_wordpool_576.txt	LTP379	ltpFR2	1	7	CARROT	249	n/a	n/a	0	0	0
1350997	REC_WORD	wordpools/wasnorm_wordpool_576.txt	LTP379	ltpFR2	1	7	TABLE	1426	n/a	n/a	0	0	0
1354087	REC_WORD	wordpools/wasnorm_wordpool_576.txt	LTP379	ltpFR2	1	7	BISON	131	n/a	n/a	0	0	0
1355631	REC_WORD	wordpools/wasnorm_wordpool_576.txt	LTP379	ltpFR2	1	7	TRIBE	1505	n/a	n/a	0	0	0
1357574	REC_WORD	wordpools/wasnorm_wordpool_576.txt	LTP379	ltpFR2	1	7	SWAMP	1416	n/a	n/a	0	0	0
1359455	REC_WORD	wordpools/wasnorm_wordpool_576.txt	LTP379	ltpFR2	1	7	CANYON	235	n/a	n/a	0	0	0
1361514	REC_WORD	wordpools/wasnorm_wordpool_576.txt	LTP379	ltpFR2	1	7	LASER	801	n/a	n/a	0	0	0
1363860	REC_WORD	wordpools/wasnorm_wordpool_576.txt	LTP379	ltpFR2	1	7	PANTHER	1009	n/a	n/a	0	0	0
1365838	REC_WORD	wordpools/wasnorm_wordpool_576.txt	LTP379	ltpFR2	1	7	CRUTCH	417	n/a	n/a	0	0	0
1374238	REC_WORD	wordpools/wasnorm_wordpool_576.txt	LTP379	ltpFR2	1	7	WASP	1593	n/a	n/a	0	0	0
1376147	REC_WORD	wordpools/wasnorm_wordpool_576.txt	LTP379	ltpFR2	1	7	LEADER	807	n/a	n/a	0	0	0
1378039	REC_WORD	wordpools/wasnorm_wordpool_576.txt	LTP379	ltpFR2	1	7	QUARTER	1148	n/a	n/a	0	0	0
1381623	REC_WORD	wordpools/wasnorm_wordpool_576.txt	LTP379	ltpFR2	1	7	STAPLE	1371	n/a	n/a	0	0	0
1383703	REC_WORD	wordpools/wasnorm_wordpool_576.txt	LTP379	ltpFR2	1	7	RIFLE	1192	n/a	n/a	0	0	0
1385648	REC_WORD	wordpools/wasnorm_wordpool_576.txt	LTP379	ltpFR2	1	7	PERCH	1048	n/a	n/a	0	0	0
1387918	REC_WORD	wordpools/wasnorm_wordpool_576.txt	LTP379	ltpFR2	1	7	LABEL	790	n/a	n/a	0	0	0
1389555	REC_WORD	wordpools/wasnorm_wordpool_576.txt	LTP379	ltpFR2	1	7	GRILL	661	n/a	n/a	0	0	0
1392864	REC_WORD	wordpools/wasnorm_wordpool_576.txt	LTP379	ltpFR2	1	7	SPIDER	1351	n/a	n/a	0	0	0
1394741	REC_WORD	wordpools/wasnorm_wordpool_576.txt	LTP379	ltpFR2	1	7	SHOULDER	1294	n/a	n/a	0	0	0
1396695	REC_WORD	wordpools/wasnorm_wordpool_576.txt	LTP379	ltpFR2	1	7	PADDING	999	n/a	n/a	0	0	0
1399115	REC_WORD	wordpools/wasnorm_wordpool_576.txt	LTP379	ltpFR2	1	7	FLAG	573	n/a	n/a	0	0	0
1430028	DISTRACTOR	n/a	LTP379	ltpFR2	1	8	n/a	n/a	n/a	n/a	0	0	0
1430028	START	n/a	LTP379	ltpFR2	1	n/a	n/a	n/a	11	n/a	n/a	n/a	n/a
1430044	PROB	n/a	LTP379	ltpFR2	1	n/a	n/a	n/a	11	17	8	4	5
1432179	PROB	n/a	LTP379	ltpFR2	1	n/a	n/a	n/a	11	16	5	5	6
1433395	PROB	n/a	LTP379	ltpFR2	1	n/a	n/a	n/a	11	8	3	1	4
1434645	PROB	n/a	LTP379	ltpFR2	1	n/a	n/a	n/a	11	15	8	3	4
1436579	PROB	n/a	LTP379	ltpFR2	1	n/a	n/a	n/a	11	15	3	8	4
1438195	PROB	n/a	LTP379	ltpFR2	1	n/a	n/a	n/a	11	16	4	8	4
1440078	PROB	n/a	LTP379	ltpFR2	1	n/a	n/a	n/a	11	14	4	1	9
1442011	PROB	n/a	LTP379	ltpFR2	1	n/a	n/a	n/a	11	18	5	5	8
1443179	PROB	n/a	LTP379	ltpFR2	1	n/a	n/a	n/a	11	17	7	4	6
1444695	PROB	n/a	LTP379	ltpFR2	1	n/a	n/a	n/a	11	13	4	6	3
1446011	PROB	n/a	LTP379	ltpFR2	1	n/a	n/a	n/a	11	12	6	3	3
1447579	PROB	n/a	LTP379	ltpFR2	1	n/a	n/a	n/a	11	16	5	4	7
1448994	PROB	n/a	LTP379	ltpFR2	1	n/a	n/a	n/a	11	12	3	6	3
1450478	PROB	n/a	LTP379	ltpFR2	1	n/a	n/a	n/a	11	17	8	6	3
1452661	STOP	n/a	LTP379	ltpFR2	1	n/a	n/a	n/a	11	n/a	n/a	n/a	n/a
1455162	WORD	wordpools/wasnorm_wordpool_576.txt	LTP379	ltpFR2	1	8	PERFUME	1049	n/a	n/a	0	0	0
1457745	WORD	wordpools/wasnorm_wordpool_576.txt	LTP379	ltpFR2	1	8	STOMACH	1384	n/a	n/a	0	0	0
1460462	WORD	wordpools/wasnorm_wordpool_576.txt	LTP379	ltpFR2	1	8	TILE	1468	n/a	n/a	0	0	0
1463212	WORD	wordpools/wasnorm_wordpool_576.txt	LTP379	ltpFR2	1	8	LAMP	798	n/a	n/a	0	0	0
1465794	WORD	wordpools/wasnorm_wordpool_576.txt	LTP379	ltpFR2	1	8	PECAN	1036	n/a	n/a	0	0	0
1468428	WORD	wordpools/wasnorm_wordpool_576.txt	LTP379	ltpFR2	1	8	LION	827	n/a	n/a	0	0	0
1471112	WORD	wordpools/wasnorm_wordpool_576.txt	LTP379	ltpFR2	1	8	CHIPMUNK	304	n/a	n/a	0	0	0
1473661	WORD	wordpools/wasnorm_wordpool_576.txt	LTP379	ltpFR2	1	8	BUCKET	184	n/a	n/a	0	0	0
1476411	WORD	wordpools/wasnorm_wordpool_576.txt	LTP379	ltpFR2	1	8	COFFEE	341	n/a	n/a	0	0	0
1478944	WORD	wordpools/wasnorm_wordpool_576.txt	LTP379	ltpFR2	1	8	SHORTCAKE	1292	n/a	n/a	0	0	0
1481461	WORD	wordpools/wasnorm_wordpool_576.txt	LTP379	ltpFR2	1	8	PENGUIN	1044	n/a	n/a	0	0	0
1484211	WORD	wordpools/wasnorm_wordpool_576.txt	LTP379	ltpFR2	1	8	QUAIL	1147	n/a	n/a	0	0	0
1486744	WORD	wordpools/wasnorm_wordpool_576.txt	LTP379	ltpFR2	1	8	GARLIC	624	n/a	n/a	0	0	0
1489228	WORD	wordpools/wasnorm_wordpool_576.txt	LTP379	ltpFR2	1	8	CONCERT	360	n/a	n/a	0	0	0
1491678	WORD	wordpools/wasnorm_wordpool_576.txt	LTP379	ltpFR2	1	8	HEDGE	699	n/a	n/a	0	0	0
1494111	WORD	wordpools/wasnorm_wordpool_576.txt	LTP379	ltpFR2	1	8	RUG	1215	n/a	n/a	0	0	0
1496711	WORD	wordpools/wasnorm_wordpool_576.txt	LTP379	ltpFR2	1	8	WINDOW	1611	n/a	n/a	0	0	0
1499494	WORD	wordpools/wasnorm_wordpool_576.txt	LTP379	ltpFR2	1	8	ROOSTER	1209	n/a	n/a	0	0	0
1501960	WORD	wordpools/wasnorm_wordpool_576.txt	LTP379	ltpFR2	1	8	PLAZA	1088	n/a	n/a	0	0	0
1504511	WORD	wordpools/wasnorm_wordpool_576.txt	LTP379	ltpFR2	1	8	CANDY	230	n/a	n/a	0	0	0
1506960	WORD	wordpools/wasnorm_wordpool_576.txt	LTP379	ltpFR2	1	8	BRANDY	169	n/a	n/a	0	0	0
1509544	WORD	wordpools/wasnorm_wordpool_576.txt	LTP379	ltpFR2	1	8	FLASK	576	n/a	n/a	0	0	0
1512211	WORD	wordpools/wasnorm_wordpool_576.txt	LTP379	ltpFR2	1	8	FRIAR	605	n/a	n/a	0	0	0
1514677	WORD	wordpools/wasnorm_wordpool_576.txt	LTP379	ltpFR2	1	8	ELBOW	520	n/a	n/a	0	0	0
1516294	START	n/a	LTP379	ltpFR2	1	n/a	n/a	n/a	12	n/a	n/a	n/a	n/a
1517161	DISTRACTOR	n/a	LTP379	ltpFR2	1	8	n/a	n/a	n/a	n/a	0	0	0
1517177	PROB	n/a	LTP379	ltpFR2	1	n/a	n/a	n/a	12	16	5	3	8
1518910	PROB	n/a	LTP379	ltpFR2	1	n/a	n/a	n/a	12	16	2	8	6
1520227	PROB	n/a	LTP379	ltpFR2	1	n/a	n/a	n/a	12	10	3	1	6
1522177	PROB	n/a	LTP379	ltpFR2	1	n/a	n/a	n/a	12	13	8	1	4
1523644	PROB	n/a	LTP379	ltpFR2	1	n/a	n/a	n/a	12	4	2	1	1
1524810	PROB	n/a	LTP379	ltpFR2	1	n/a	n/a	n/a	12	10	1	2	7
1526277	PROB	n/a	LTP379	ltpFR2	1	n/a	n/a	n/a	12	11	8	1	2
1527694	PROB	n/a	LTP379	ltpFR2	1	n/a	n/a	n/a	12	23	8	8	7
1530843	PROB	n/a	LTP379	ltpFR2	1	n/a	n/a	n/a	12	15	6	8	1
1532277	PROB	n/a	LTP379	ltpFR2	1	n/a	n/a	n/a	12	20	9	4	7
1534460	PROB	n/a	LTP379	ltpFR2	1	n/a	n/a	n/a	12	13	6	2	5
1536327	PROB	n/a	LTP379	ltpFR2	1	n/a	n/a	n/a	12	7	2	1	4
1537594	PROB	n/a	LTP379	ltpFR2	1	n/a	n/a	n/a	12	14	6	4	4
1538911	STOP	n/a	LTP379	ltpFR2	1	n/a	n/a	n/a	12	n/a	n/a	n/a	n/a
1542144	REC_START	n/a	LTP379	ltpFR2	1	8	n/a	n/a	n/a	n/a	0	0	0
1546196	REC_WORD	wordpools/wasnorm_wordpool_576.txt	LTP379	ltpFR2	1	8	PERFUME	1049	n/a	n/a	0	0	0
1547903	REC_WORD	wordpools/wasnorm_wordpool_576.txt	LTP379	ltpFR2	1	8	STOMACH	1384	n/a	n/a	0	0	0
1559362	REC_WORD	wordpools/wasnorm_wordpool_576.txt	LTP379	ltpFR2	1	8	TILE	1468	n/a	n/a	0	0	0
1560929	REC_WORD	wordpools/wasnorm_wordpool_576.txt	LTP379	ltpFR2	1	8	LAMP	798	n/a	n/a	0	0	0
1562819	REC_WORD	wordpools/wasnorm_wordpool_576.txt	LTP379	ltpFR2	1	8	PECAN	1036	n/a	n/a	0	0	0
1568009	REC_WORD	wordpools/wasnorm_wordpool_576.txt	LTP379	ltpFR2	1	8	LION	827	n/a	n/a	0	0	0
1569817	REC_WORD	wordpools/wasnorm_wordpool_576.txt	LTP379	ltpFR2	1	8	CHIPMUNK	304	n/a	n/a	0	0	0
1571478	REC_WORD	wordpools/wasnorm_wordpool_576.txt	LTP379	ltpFR2	1	8	BUCKET	184	n/a	n/a	0	0	0
1573218	REC_WORD	wordpools/wasnorm_wordpool_576.txt	LTP379	ltpFR2	1	8	COFFEE	341	n/a	n/a	0	0	0
1576292	REC_WORD	wordpools/wasnorm_wordpool_576.txt	LTP379	ltpFR2	1	8	SHORTCAKE	1292	n/a	n/a	0	0	0
1578869	REC_WORD	wordpools/wasnorm_wordpool_576.txt	LTP379	ltpFR2	1	8	PENGUIN	1044	n/a	n/a	0	0	0
1580950	REC_WORD	wordpools/wasnorm_wordpool_576.txt	LTP379	ltpFR2	1	8	QUAIL	1147	n/a	n/a	0	0	0
1584356	REC_WORD	wordpools/wasnorm_wordpool_576.txt	LTP379	ltpFR2	1	8	CONCERT	360	n/a	n/a	0	0	0
1586310	REC_WORD	wordpools/wasnorm_wordpool_576.txt	LTP379	ltpFR2	1	8	HEDGE	699	n/a	n/a	0	0	0
1588096	REC_WORD	wordpools/wasnorm_wordpool_576.txt	LTP379	ltpFR2	1	8	RUG	1215	n/a	n/a	0	0	0
1590056	REC_WORD	wordpools/wasnorm_wordpool_576.txt	LTP379	ltpFR2	1	8	WINDOW	1611	n/a	n/a	0	0	0
1592150	REC_WORD	wordpools/wasnorm_wordpool_576.txt	LTP379	ltpFR2	1	8	ROOSTER	1209	n/a	n/a	0	0	0
1594118	REC_WORD	wordpools/wasnorm_wordpool_576.txt	LTP379	ltpFR2	1	8	PLAZA	1088	n/a	n/a	0	0	0
1596449	REC_WORD	wordpools/wasnorm_wordpool_576.txt	LTP379	ltpFR2	1	8	CANDY	230	n/a	n/a	0	0	0
1598318	REC_WORD	wordpools/wasnorm_wordpool_576.txt	LTP379	ltpFR2	1	8	BRANDY	169	n/a	n/a	0	0	0
1600039	REC_WORD	wordpools/wasnorm_wordpool_576.txt	LTP379	ltpFR2	1	8	FLASK	576	n/a	n/a	0	0	0
1603728	REC_WORD	wordpools/wasnorm_wordpool_576.txt	LTP379	ltpFR2	1	8	FRIAR	605	n/a	n/a	0	0	0
1605715	REC_WORD	wordpools/wasnorm_wordpool_576.txt	LTP379	ltpFR2	1	8	ELBOW	520	n/a	n/a	0	0	0
1618676	REST_REWET	n/a	LTP379	ltpFR2	1	8	n/a	n/a	n/a	n/a	0	0	0
1722940	DISTRACTOR	n/a	LTP379	ltpFR2	1	9	n/a	n/a	n/a	n/a	0	0	0
1722940	START	n/a	LTP379	ltpFR2	1	n/a	n/a	n/a	13	n/a	n/a	n/a	n/a
1722956	PROB	n/a	LTP379	ltpFR2	1	n/a	n/a	n/a	13	17	8	4	5
1724591	PROB	n/a	LTP379	ltpFR2	1	n/a	n/a	n/a	13	13	7	4	2
1726658	PROB	n/a	LTP379	ltpFR2	1	n/a	n/a	n/a	13	13	3	6	4
1728090	PROB	n/a	LTP379	ltpFR2	1	n/a	n/a	n/a	13	23	9	8	6
1732641	PROB	n/a	LTP379	ltpFR2	1	n/a	n/a	n/a	13	24	9	6	9
1734407	PROB	n/a	LTP379	ltpFR2	1	n/a	n/a	n/a	13	21	6	6	9
1736407	PROB	n/a	LTP379	ltpFR2	1	n/a	n/a	n/a	13	8	1	3	4
1737674	PROB	n/a	LTP379	ltpFR2	1	n/a	n/a	n/a	13	14	1	8	5
1739107	PROB	n/a	LTP379	ltpFR2	1	n/a	n/a	n/a	13	21	4	9	8
1740923	PROB	n/a	LTP379	ltpFR2	1	n/a	n/a	n/a	13	19	7	7	5
1742324	PROB	n/a	LTP379	ltpFR2	1	n/a	n/a	n/a	13	12	8	1	3
1743690	PROB	n/a	LTP379	ltpFR2	1	n/a	n/a	n/a	13	13	5	2	6
1746940	STOP	n/a	LTP379	ltpFR2	1	n/a	n/a	n/a	13	n/a	n/a	n/a	n/a
1747906	WORD	wordpools/wasnorm_wordpool_576.txt	LTP379	ltpFR2	1	9	MARSH	874	n/a	n/a	0	0	0
1750590	WORD	wordpools/wasnorm_wordpool_576.txt	LTP379	ltpFR2	1	9	EMPIRE	530	n/a	n/a	0	0	0
1753157	WORD	wordpools/wasnorm_wordpool_576.txt	LTP379	ltpFR2	1	9	CYCLONE	431	n/a	n/a	0	0	0
1755839	WORD	wordpools/wasnorm_wordpool_576.txt	LTP379	ltpFR2	1	9	SNACK	1331	n/a	n/a	0	0	0
1758624	WORD	wordpools/wasnorm_wordpool_576.txt	LTP379	ltpFR2	1	9	PERMIT	1051	n/a	n/a	0	0	0
1761274	WORD	wordpools/wasnorm_wordpool_576.txt	LTP379	ltpFR2	1	9	PISTOL	1075	n/a	n/a	0	0	0
1763740	WORD	wordpools/wasnorm_wordpool_576.txt	LTP379	ltpFR2	1	9	GRAVE	658	n/a	n/a	0	0	0
1766440	WORD	wordpools/wasnorm_wordpool_576.txt	LTP379	ltpFR2	1	9	TOASTER	1472	n/a	n/a	0	0	0
1769240	WORD	wordpools/wasnorm_wordpool_576.txt	LTP379	ltpFR2	1	9	SNAIL	1332	n/a	n/a	0	0	0
1771939	WORD	wordpools/wasnorm_wordpool_576.txt	LTP379	ltpFR2	1	9	CRAYON	401	n/a	n/a	0	0	0
1774440	WORD	wordpools/wasnorm_wordpool_576.txt	LTP379	ltpFR2	1	9	GROUND	666	n/a	n/a	0	0	0
1777072	WORD	wordpools/wasnorm_wordpool_576.txt	LTP379	ltpFR2	1	9	CASHIER	254	n/a	n/a	0	0	0
1779540	WORD	wordpools/wasnorm_wordpool_576.txt	LTP379	ltpFR2	1	9	RECEIPT	1173	n/a	n/a	0	0	0
1782157	WORD	wordpools/wasnorm_wordpool_576.txt	LTP379	ltpFR2	1	9	HEADBAND	696	n/a	n/a	0	0	0
1784805	WORD	wordpools/wasnorm_wordpool_576.txt	LTP379	ltpFR2	1	9	CHEST	295	n/a	n/a	0	0	0
1787340	WORD	wordpools/wasnorm_wordpool_576.txt	LTP379	ltpFR2	1	9	COUNTRY	388	n/a	n/a	0	0	0
1790089	WORD	wordpools/wasnorm_wordpool_576.txt	LTP379	ltpFR2	1	9	VAGRANT	1544	n/a	n/a	0	0	0
1792590	WORD	wordpools/wasnorm_wordpool_576.txt	LTP379	ltpFR2	1	9	PORTRAIT	1111	n/a	n/a	0	0	0
1795206	WORD	wordpools/wasnorm_wordpool_576.txt	LTP379	ltpFR2	1	9	STICKER	1382	n/a	n/a	0	0	0
1797789	WORD	wordpools/wasnorm_wordpool_576.txt	LTP379	ltpFR2	1	9	PRIMATE	1123	n/a	n/a	0	0	0
1800473	WORD	wordpools/wasnorm_wordpool_576.txt	LTP379	ltpFR2	1	9	DOUGHNUT	490	n/a	n/a	0	0	0
1803055	WORD	wordpools/wasnorm_wordpool_576.txt	LTP379	ltpFR2	1	9	SCULPTURE	1258	n/a	n/a	0	0	0
1805590	WORD	wordpools/wasnorm_wordpool_576.txt	LTP379	ltpFR2	1	9	PIGMENT	1066	n/a	n/a	0	0	0
1808039	WORD	wordpools/wasnorm_wordpool_576.txt	LTP379	ltpFR2	1	9	BULLET	194	n/a	n/a	0	0	0
1809656	START	n/a	LTP379	ltpFR2	1	n/a	n/a	n/a	14	n/a	n/a	n/a	n/a
1810708	DISTRACTOR	n/a	LTP379	ltpFR2	1	9	n/a	n/a	n/a	n/a	0	0	0
1810723	PROB	n/a	LTP379	ltpFR2	1	n/a	n/a	n/a	14	19	5	9	5
1812473	PROB	n/a	LTP379	ltpFR2	1	n/a	n/a	n/a	14	18	6	3	9
1814556	PROB	n/a	LTP379	ltpFR2	1	n/a	n/a	n/a	14	8	5	1	2
1816289	PROB	n/a	LTP379	ltpFR2	1	n/a	n/a	n/a	14	9	7	1	1
1817639	PROB	n/a	LTP379	ltpFR2	1	n/a	n/a	n/a	14	21	8	9	4
1820506	PROB	n/a	LTP379	ltpFR2	1	n/a	n/a	n/a	14	24	9	8	7
1823139	PROB	n/a	LTP379	ltpFR2	1	n/a	n/a	n/a	14	10	2	3	5
1824822	PROB	n/a	LTP379	ltpFR2	1	n/a	n/a	n/a	14	15	8	1	6
1826372	PROB	n/a	LTP379	ltpFR2	1	n/a	n/a	n/a	14	8	5	2	1
1827656	PROB	n/a	LTP379	ltpFR2	1	n/a	n/a	n/a	14	16	6	9	1
1829021	PROB	n/a	LTP379	ltpFR2	1	n/a	n/a	n/a	14	22	9	9	4
1830306	PROB	n/a	LTP379	ltpFR2	1	n/a	n/a	n/a	14	10	6	3	1
1833656	STOP	n/a	LTP379	ltpFR2	1	n/a	n/a	n/a	14	n/a	n/a	n/a	n/a
1835440	REC_START	n/a	LTP379	ltpFR2	1	9	n/a	n/a	n/a	n/a	0	0	0
1838066	REC_WORD	wordpools/wasnorm_wordpool_576.txt	LTP379	ltpFR2	1	9	MARSH	874	n/a	n/a	0	0	0
1839705	REC_WORD	wordpools/wasnorm_wordpool_576.txt	LTP379	ltpFR2	1	9	EMPIRE	530	n/a	n/a	0	0	0
1842670	REC_WORD	wordpools/wasnorm_wordpool_576.txt	LTP379	ltpFR2	1	9	CYCLONE	431	n/a	n/a	0	0	0
1844490	REC_WORD	wordpools/wasnorm_wordpool_576.txt	LTP379	ltpFR2	1	9	SNACK	1331	n/a	n/a	0	0	0
1846181	REC_WORD	wordpools/wasnorm_wordpool_576.txt	LTP379	ltpFR2	1	9	PERMIT	1051	n/a	n/a	0	0	0
1848142	REC_WORD	wordpools/wasnorm_wordpool_576.txt	LTP379	ltpFR2	1	9	PISTOL	1075	n/a	n/a	0	0	0
1852031	REC_WORD	wordpools/wasnorm_wordpool_576.txt	LTP379	ltpFR2	1	9	GRAVE	658	n/a	n/a	0	0	0
1854799	REC_WORD	wordpools/wasnorm_wordpool_576.txt	LTP379	ltpFR2	1	9	SNAIL	1332	n/a	n/a	0	0	0
1856691	REC_WORD	wordpools/wasnorm_wordpool_576.txt	LTP379	ltpFR2	1	9	TOASTER	1472	n/a	n/a	0	0	0
1858313	REC_WORD	wordpools/wasnorm_wordpool_576.txt	LTP379	ltpFR2	1	9	CRAYON	401	n/a	n/a	0	0	0
1861944	REC_WORD	wordpools/wasnorm_wordpool_576.txt	LTP379	ltpFR2	1	9	CASHIER	254	n/a	n/a	0	0	0
1864211	REC_WORD	wordpools/wasnorm_wordpool_576.txt	LTP379	ltpFR2	1	9	RECEIPT	1173	n/a	n/a	0	0	0
1868955	REC_WORD	wordpools/wasnorm_wordpool_576.txt	LTP379	ltpFR2	1	9	HEADBAND	696	n/a	n/a	0	0	0
1871212	REC_WORD	wordpools/wasnorm_wordpool_576.txt	LTP379	ltpFR2	1	9	CHEST	295	n/a	n/a	0	0	0
1873489	REC_WORD	wordpools/wasnorm_wordpool_576.txt	LTP379	ltpFR2	1	9	COUNTRY	388	n/a	n/a	0	0	0
1875552	REC_WORD	wordpools/wasnorm_wordpool_576.txt	LTP379	ltpFR2	1	9	VAGRANT	1544	n/a	n/a	0	0	0
1877578	REC_WORD	wordpools/wasnorm_wordpool_576.txt	LTP379	ltpFR2	1	9	PORTRAIT	1111	n/a	n/a	0	0	0
1879213	REC_WORD	wordpools/wasnorm_wordpool_576.txt	LTP379	ltpFR2	1	9	STICKER	1382	n/a	n/a	0	0	0
1881256	REC_WORD	wordpools/wasnorm_wordpool_576.txt	LTP379	ltpFR2	1	9	PRIMATE	1123	n/a	n/a	0	0	0
1883291	REC_WORD	wordpools/wasnorm_wordpool_576.txt	LTP379	ltpFR2	1	9	DOUGHNUT	490	n/a	n/a	0	0	0
1884727	REC_WORD	wordpools/wasnorm_wordpool_576.txt	LTP379	ltpFR2	1	9	SCULPTURE	1258	n/a	n/a	0	0	0
1886860	REC_WORD	wordpools/wasnorm_wordpool_576.txt	LTP379	ltpFR2	1	9	PIGMENT	1066	n/a	n/a	0	0	0
1888533	REC_WORD	wordpools/wasnorm_wordpool_576.txt	LTP379	ltpFR2	1	9	BULLET	194	n/a	n/a	0	0	0
1925887	DISTRACTOR	n/a	LTP379	ltpFR2	1	10	n/a	n/a	n/a	n/a	0	0	0
1925887	START	n/a	LTP379	ltpFR2	1	n/a	n/a	n/a	15	n/a	n/a	n/a	n/a
1925903	PROB	n/a	LTP379	ltpFR2	1	n/a	n/a	n/a	15	16	4	3	9
1927987	PROB	n/a	LTP379	ltpFR2	1	n/a	n/a	n/a	15	16	3	8	5
1929338	PROB	n/a	LTP379	ltpFR2	1	n/a	n/a	n/a	15	14	5	3	6
1930787	PROB	n/a	LTP379	ltpFR2	1	n/a	n/a	n/a	15	14	6	1	7
1932554	PROB	n/a	LTP379	ltpFR2	1	n/a	n/a	n/a	15	8	2	1	5
1933787	PROB	n/a	LTP379	ltpFR2	1	n/a	n/a	n/a	15	18	5	4	9
1935521	PROB	n/a	LTP379	ltpFR2	1	n/a	n/a	n/a	15	12	4	7	1
1937421	PROB	n/a	LTP379	ltpFR2	1	n/a	n/a	n/a	15	17	5	3	9
1939187	PROB	n/a	LTP379	ltpFR2	1	n/a	n/a	n/a	15	12	4	3	5
1941171	PROB	n/a	LTP379	ltpFR2	1	n/a	n/a	n/a	15	15	5	8	2
1943070	PROB	n/a	LTP379	ltpFR2	1	n/a	n/a	n/a	15	15	9	4	2
1944487	PROB	n/a	LTP379	ltpFR2	1	n/a	n/a	n/a	15	14	5	5	4
1945704	PROB	n/a	LTP379	ltpFR2	1	n/a	n/a	n/a	15	15	6	2	7
1947237	PROB	n/a	LTP379	ltpFR2	1	n/a	n/a	n/a	15	10	2	5	3
1948811	STOP	n/a	LTP379	ltpFR2	1	n/a	n/a	n/a	15	n/a	n/a	n/a	n/a
1950853	WORD	wordpools/wasnorm_wordpool_576.txt	LTP379	ltpFR2	1	10	PARSLEY	1016	n/a	n/a	0	0	0
1953370	WORD	wordpools/wasnorm_wordpool_576.txt	LTP379	ltpFR2	1	10	YACHT	1629	n/a	n/a	0	0	0
1956120	WORD	wordpools/wasnorm_wordpool_576.txt	LTP379	ltpFR2	1	10	GRAPE	654	n/a	n/a	0	0	0
1958819	WORD	wordpools/wasnorm_wordpool_576.txt	LTP379	ltpFR2	1	10	LAPEL	800	n/a	n/a	0	0	0
1961537	WORD	wordpools/wasnorm_wordpool_576.txt	LTP379	ltpFR2	1	10	HATCHET	691	n/a	n/a	0	0	0
1964220	WORD	wordpools/wasnorm_wordpool_576.txt	LTP379	ltpFR2	1	10	PUDDLE	1140	n/a	n/a	0	0	0
1966819	WORD	wordpools/wasnorm_wordpool_576.txt	LTP379	ltpFR2	1	10	MARKER	870	n/a	n/a	0	0	0
1969604	WORD	wordpools/wasnorm_wordpool_576.txt	LTP379	ltpFR2	1	10	BABY	64	n/a	n/a	0	0	0
1972220	WORD	wordpools/wasnorm_wordpool_576.txt	LTP379	ltpFR2	1	10	CRIB	407	n/a	n/a	0	0	0
1974869	WORD	wordpools/wasnorm_wordpool_576.txt	LTP379	ltpFR2	1	10	COMPASS	358	n/a	n/a	0	0	0
1977653	WORD	wordpools/wasnorm_wordpool_576.txt	LTP379	ltpFR2	1	10	REBEL	1172	n/a	n/a	0	0	0
1980370	WORD	wordpools/wasnorm_wordpool_576.txt	LTP379	ltpFR2	1	10	MAMMAL	861	n/a	n/a	0	0	0
1983187	WORD	wordpools/wasnorm_wordpool_576.txt	LTP379	ltpFR2	1	10	TWIG	1527	n/a	n/a	0	0	0
1985703	WORD	wordpools/wasnorm_wordpool_576.txt	LTP379	ltpFR2	1	10	ICEBERG	731	n/a	n/a	0	0	0
1988187	WORD	wordpools/wasnorm_wordpool_576.txt	LTP379	ltpFR2	1	10	ATOM	55	n/a	n/a	0	0	0
1990687	WORD	wordpools/wasnorm_wordpool_576.txt	LTP379	ltpFR2	1	10	CHILD	299	n/a	n/a	0	0	0
1993420	WORD	wordpools/wasnorm_wordpool_576.txt	LTP379	ltpFR2	1	10	KNIFE	785	n/a	n/a	0	0	0
1996019	WORD	wordpools/wasnorm_wordpool_576.txt	LTP379	ltpFR2	1	10	SCALPEL	1243	n/a	n/a	0	0	0
1998620	WORD	wordpools/wasnorm_wordpool_576.txt	LTP379	ltpFR2	1	10	BARLEY	88	n/a	n/a	0	0	0
2001320	WORD	wordpools/wasnorm_wordpool_576.txt	LTP379	ltpFR2	1	10	ROCKET	1202	n/a	n/a	0	0	0
2003785	WORD	wordpools/wasnorm_wordpool_576.txt	LTP379	ltpFR2	1	10	GIRL	637	n/a	n/a	0	0	0
2006303	WORD	wordpools/wasnorm_wordpool_576.txt	LTP379	ltpFR2	1	10	SCARECROW	1245	n/a	n/a	0	0	0
2009052	WORD	wordpools/wasnorm_wordpool_576.txt	LTP379	ltpFR2	1	10	PLAID	1080	n/a	n/a	0	0	0
2011536	WORD	wordpools/wasnorm_wordpool_576.txt	LTP379	ltpFR2	1	10	FLIPPER	580	n/a	n/a	0	0	0
2013153	START	n/a	LTP379	ltpFR2	1	n/a	n/a	n/a	16	n/a	n/a	n/a	n/a
2014015	DISTRACTOR	n/a	LTP379	ltpFR2	1	10	n/a	n/a	n/a	n/a	0	0	0
2014019	PROB	n/a	LTP379	ltpFR2	1	n/a	n/a	n/a	16	15	6	5	4
2016035	PROB	n/a	LTP379	ltpFR2	1	n/a	n/a	n/a	16	9	6	2	1
2017720	PROB	n/a	LTP379	ltpFR2	1	n/a	n/a	n/a	16	22	4	9	9
2019170	PROB	n/a	LTP379	ltpFR2	1	n/a	n/a	n/a	16	19	9	7	3
2020835	PROB	n/a	LTP379	ltpFR2	1	n/a	n/a	n/a	16	24	9	7	8
2023486	PROB	n/a	LTP379	ltpFR2	1	n/a	n/a	n/a	16	6	3	2	1
2024885	PROB	n/a	LTP379	ltpFR2	1	n/a	n/a	n/a	16	11	3	3	5
2027486	PROB	n/a	LTP379	ltpFR2	1	n/a	n/a	n/a	16	18	7	7	4
2029902	PROB	n/a	LTP379	ltpFR2	1	n/a	n/a	n/a	16	13	4	1	8
2031403	PROB	n/a	LTP379	ltpFR2	1	n/a	n/a	n/a	16	11	7	3	1
2032619	PROB	n/a	LTP379	ltpFR2	1	n/a	n/a	n/a	16	13	1	3	9
2034018	PROB	n/a	LTP379	ltpFR2	1	n/a	n/a	n/a	16	18	6	6	6
2037153	STOP	n/a	LTP379	ltpFR2	1	n/a	n/a	n/a	16	n/a	n/a	n/a	n/a
2039052	REC_START	n/a	LTP379	ltpFR2	1	10	n/a	n/a	n/a	n/a	0	0	0
2041719	REC_WORD	wordpools/wasnorm_wordpool_576.txt	LTP379	ltpFR2	1	10	PARSLEY	1016	n/a	n/a	0	0	0
2043581	REC_WORD	wordpools/wasnorm_wordpool_576.txt	LTP379	ltpFR2	1	10	YACHT	1629	n/a	n/a	0	0	0
2045669	REC_WORD	wordpools/wasnorm_wordpool_576.txt	LTP379	ltpFR2	1	10	GRAPE	654	n/a	n/a	0	0	0
2047403	REC_WORD	wordpools/wasnorm_wordpool_576.txt	LTP379	ltpFR2	1	10	LAPEL	800	n/a	n/a	0	0	0
2050043	REC_WORD	wordpools/wasnorm_wordpool_576.txt	LTP379	ltpFR2	1	10	HATCHET	691	n/a	n/a	0	0	0
2051662	REC_WORD	wordpools/wasnorm_wordpool_576.txt	LTP379	ltpFR2	1	10	PUDDLE	1140	n/a	n/a	0	0	0
2053277	REC_WORD	wordpools/wasnorm_wordpool_576.txt	LTP379	ltpFR2	1	10	MARKER	870	n/a	n/a	0	0	0
2054980	REC_WORD	wordpools/wasnorm_wordpool_576.txt	LTP379	ltpFR2	1	10	BABY	64	n/a	n/a	0	0	0
2056576	REC_WORD	wordpools/wasnorm_wordpool_576.txt	LTP379	ltpFR2	1	10	CRIB	407	n/a	n/a	0	0	0
2058397	REC_WORD	wordpools/wasnorm_wordpool_576.txt	LTP379	ltpFR2	1	10	COMPASS	358	n/a	n/a	0	0	0
2060938	REC_WORD	wordpools/wasnorm_wordpool_576.txt	LTP379	ltpFR2	1	10	REBEL	1172	n/a	n/a	0	0	0
2063027	REC_WORD	wordpools/wasnorm_wordpool_576.txt	LTP379	ltpFR2	1	10	MAMMAL	861	n/a	n/a	0	0	0
2064650	REC_WORD	wordpools/wasnorm_wordpool_576.txt	LTP379	ltpFR2	1	10	TWIG	1527	n/a	n/a	0	0	0
2066654	REC_WORD	wordpools/wasnorm_wordpool_576.txt	LTP379	ltpFR2	1	10	ICEBERG	731	n/a	n/a	0	0	0
2068497	REC_WORD	wordpools/wasnorm_wordpool_576.txt	LTP379	ltpFR2	1	10	ATOM	55	n/a	n/a	0	0	0
2070270	REC_WORD	wordpools/wasnorm_wordpool_576.txt	LTP379	ltpFR2	1	10	CHILD	299	n/a	n/a	0	0	0
2072185	REC_WORD	wordpools/wasnorm_wordpool_576.txt	LTP379	ltpFR2	1	10	KNIFE	785	n/a	n/a	0	0	0
2074160	REC_WORD	wordpools/wasnorm_wordpool_576.txt	LTP379	ltpFR2	1	10	SCALPEL	1243	n/a	n/a	0	0	0
2086724	REC_WORD	wordpools/wasnorm_wordpool_576.txt	LTP379	ltpFR2	1	10	BARLEY	88	n/a	n/a	0	0	0
2088329	REC_WORD	wordpools/wasnorm_wordpool_576.txt	LTP379	ltpFR2	1	10	ROCKET	1202	n/a	n/a	0	0	0
2090225	REC_WORD	wordpools/wasnorm_wordpool_576.txt	LTP379	ltpFR2	1	10	GIRL	637	n/a	n/a	0	0	0
2092224	REC_WORD	wordpools/wasnorm_wordpool_576.txt	LTP379	ltpFR2	1	10	SCARECROW	1245	n/a	n/a	0	0	0
2094026	REC_WORD	wordpools/wasnorm_wordpool_576.txt	LTP379	ltpFR2	1	10	PLAID	1080	n/a	n/a	0	0	0
2095525	REC_WORD	wordpools/wasnorm_wordpool_576.txt	LTP379	ltpFR2	1	10	FLIPPER	580	n/a	n/a	0	0	0
2129501	WORD	wordpools/wasnorm_wordpool_576.txt	LTP379	ltpFR2	1	11	SUPPER	1411	n/a	n/a	0	0	0
2132067	WORD	wordpools/wasnorm_wordpool_576.txt	LTP379	ltpFR2	1	11	CORAL	378	n/a	n/a	0	0	0
2134501	WORD	wordpools/wasnorm_wordpool_576.txt	LTP379	ltpFR2	1	11	COUCH	386	n/a	n/a	0	0	0
2137118	WORD	wordpools/wasnorm_wordpool_576.txt	LTP379	ltpFR2	1	11	OMELET	976	n/a	n/a	0	0	0
2139618	WORD	wordpools/wasnorm_wordpool_576.txt	LTP379	ltpFR2	1	11	PALACE	1006	n/a	n/a	0	0	0
2142301	WORD	wordpools/wasnorm_wordpool_576.txt	LTP379	ltpFR2	1	11	FIDDLE	561	n/a	n/a	0	0	0
2145033	WORD	wordpools/wasnorm_wordpool_576.txt	LTP379	ltpFR2	1	11	ISLAND	745	n/a	n/a	0	0	0
2147751	WORD	wordpools/wasnorm_wordpool_576.txt	LTP379	ltpFR2	1	11	PREACHER	1119	n/a	n/a	0	0	0
2150367	WORD	wordpools/wasnorm_wordpool_576.txt	LTP379	ltpFR2	1	11	MATTRESS	879	n/a	n/a	0	0	0
2153101	WORD	wordpools/wasnorm_wordpool_576.txt	LTP379	ltpFR2	1	11	MATCH	878	n/a	n/a	0	0	0
2155734	WORD	wordpools/wasnorm_wordpool_576.txt	LTP379	ltpFR2	1	11	FLASHLIGHT	575	n/a	n/a	0	0	0
2158551	WORD	wordpools/wasnorm_wordpool_576.txt	LTP379	ltpFR2	1	11	TOMBSTONE	1478	n/a	n/a	0	0	0
2161016	WORD	wordpools/wasnorm_wordpool_576.txt	LTP379	ltpFR2	1	11	FRAME	600	n/a	n/a	0	0	0
2163701	WORD	wordpools/wasnorm_wordpool_576.txt	LTP379	ltpFR2	1	11	PEBBLE	1035	n/a	n/a	0	0	0
2166301	WORD	wordpools/wasnorm_wordpool_576.txt	LTP379	ltpFR2	1	11	SCOTCH	1251	n/a	n/a	0	0	0
2168999	WORD	wordpools/wasnorm_wordpool_576.txt	LTP379	ltpFR2	1	11	SILK	1307	n/a	n/a	0	0	0
2171767	WORD	wordpools/wasnorm_wordpool_576.txt	LTP379	ltpFR2	1	11	HUSBAND	728	n/a	n/a	0	0	0
2174584	WORD	wordpools/wasnorm_wordpool_576.txt	LTP379	ltpFR2	1	11	POWDER	1117	n/a	n/a	0	0	0
2177367	WORD	wordpools/wasnorm_wordpool_576.txt	LTP379	ltpFR2	1	11	WORKER	1621	n/a	n/a	0	0	0
2179816	WORD	wordpools/wasnorm_wordpool_576.txt	LTP379	ltpFR2	1	11	HORNET	718	n/a	n/a	0	0	0
2182484	WORD	wordpools/wasnorm_wordpool_576.txt	LTP379	ltpFR2	1	11	GHETTO	633	n/a	n/a	0	0	0
2185033	WORD	wordpools/wasnorm_wordpool_576.txt	LTP379	ltpFR2	1	11	DRINK	498	n/a	n/a	0	0	0
2187467	WORD	wordpools/wasnorm_wordpool_576.txt	LTP379	ltpFR2	1	11	WAITER	1580	n/a	n/a	0	0	0
2190167	WORD	wordpools/wasnorm_wordpool_576.txt	LTP379	ltpFR2	1	11	SERVER	1272	n/a	n/a	0	0	0
2191783	START	n/a	LTP379	ltpFR2	1	n/a	n/a	n/a	17	n/a	n/a	n/a	n/a
2192637	DISTRACTOR	n/a	LTP379	ltpFR2	1	11	n/a	n/a	n/a	n/a	0	0	0
2192650	PROB	n/a	LTP379	ltpFR2	1	n/a	n/a	n/a	17	7	5	1	1
2194583	PROB	n/a	LTP379	ltpFR2	1	n/a	n/a	n/a	17	19	8	8	3
2197317	PROB	n/a	LTP379	ltpFR2	1	n/a	n/a	n/a	17	13	3	7	3
2198683	PROB	n/a	LTP379	ltpFR2	1	n/a	n/a	n/a	17	16	4	9	3
2200267	PROB	n/a	LTP379	ltpFR2	1	n/a	n/a	n/a	17	17	8	8	1
2201816	PROB	n/a	LTP379	ltpFR2	1	n/a	n/a	n/a	17	12	5	5	2
2203167	PROB	n/a	LTP379	ltpFR2	1	n/a	n/a	n/a	17	17	7	4	6
2205517	PROB	n/a	LTP379	ltpFR2	1	n/a	n/a	n/a	17	16	5	4	7
2207217	PROB	n/a	LTP379	ltpFR2	1	n/a	n/a	n/a	17	11	2	1	8
2208516	PROB	n/a	LTP379	ltpFR2	1	n/a	n/a	n/a	17	19	5	9	5
2210082	PROB	n/a	LTP379	ltpFR2	1	n/a	n/a	n/a	17	17	8	1	8
2212200	PROB	n/a	LTP379	ltpFR2	1	n/a	n/a	n/a	17	18	8	8	2
2215783	STOP	n/a	LTP379	ltpFR2	1	n/a	n/a	n/a	17	n/a	n/a	n/a	n/a
2217550	REC_START	n/a	LTP379	ltpFR2	1	11	n/a	n/a	n/a	n/a	0	0	0
2222086	REC_WORD	wordpools/wasnorm_wordpool_576.txt	LTP379	ltpFR2	1	11	SUPPER	1411	n/a	n/a	0	0	0
2224620	REC_WORD	wordpools/wasnorm_wordpool_576.txt	LTP379	ltpFR2	1	11	CORAL	378	n/a	n/a	0	0	0
2232887	REC_WORD	wordpools/wasnorm_wordpool_576.txt	LTP379	ltpFR2	1	11	COUCH	386	n/a	n/a	0	0	0
2234902	REC_WORD	wordpools/wasnorm_wordpool_576.txt	LTP379	ltpFR2	1	11	OMELET	976	n/a	n/a	0	0	0
2236692	REC_WORD	wordpools/wasnorm_wordpool_576.txt	LTP379	ltpFR2	1	11	PALACE	1006	n/a	n/a	0	0	0
2238441	REC_WORD	wordpools/wasnorm_wordpool_576.txt	LTP379	ltpFR2	1	11	FIDDLE	561	n/a	n/a	0	0	0
2240878	REC_WORD	wordpools/wasnorm_wordpool_576.txt	LTP379	ltpFR2	1	11	ISLAND	745	n/a	n/a	0	0	0
2242597	REC_WORD	wordpools/wasnorm_wordpool_576.txt	LTP379	ltpFR2	1	11	PREACHER	1119	n/a	n/a	0	0	0
2244244	REC_WORD	wordpools/wasnorm_wordpool_576.txt	LTP379	ltpFR2	1	11	MATTRESS	879	n/a	n/a	0	0	0
2246821	REC_WORD	wordpools/wasnorm_wordpool_576.txt	LTP379	ltpFR2	1	11	MATCH	878	n/a	n/a	0	0	0
2248804	REC_WORD	wordpools/wasnorm_wordpool_576.txt	LTP379	ltpFR2	1	11	FLASHLIGHT	575	n/a	n/a	0	0	0
2251053	REC_WORD	wordpools/wasnorm_wordpool_576.txt	LTP379	ltpFR2	1	11	TOMBSTONE	1478	n/a	n/a	0	0	0
2253223	REC_WORD	wordpools/wasnorm_wordpool_576.txt	LTP379	ltpFR2	1	11	FRAME	600	n/a	n/a	0	0	0
2254959	REC_WORD	wordpools/wasnorm_wordpool_576.txt	LTP379	ltpFR2	1	11	PEBBLE	1035	n/a	n/a	0	0	0
2259292	REC_WORD	wordpools/wasnorm_wordpool_576.txt	LTP379	ltpFR2	1	11	SCOTCH	1251	n/a	n/a	0	0	0
2260987	REC_WORD	wordpools/wasnorm_wordpool_576.txt	LTP379	ltpFR2	1	11	SILK	1307	n/a	n/a	0	0	0
2273444	REC_WORD	wordpools/wasnorm_wordpool_576.txt	LTP379	ltpFR2	1	11	HUSBAND	728	n/a	n/a	0	0	0
2274896	REC_WORD	wordpools/wasnorm_wordpool_576.txt	LTP379	ltpFR2	1	11	POWDER	1117	n/a	n/a	0	0	0
2276842	REC_WORD	wordpools/wasnorm_wordpool_576.txt	LTP379	ltpFR2	1	11	WORKER	1621	n/a	n/a	0	0	0
2278929	REC_WORD	wordpools/wasnorm_wordpool_576.txt	LTP379	ltpFR2	1	11	HORNET	718	n/a	n/a	0	0	0
2281451	REC_WORD	wordpools/wasnorm_wordpool_576.txt	LTP379	ltpFR2	1	11	GHETTO	633	n/a	n/a	0	0	0
2285110	REC_WORD	wordpools/wasnorm_wordpool_576.txt	LTP379	ltpFR2	1	11	DRINKER	-1	n/a	n/a	0	0	0
2287011	REC_WORD	wordpools/wasnorm_wordpool_576.txt	LTP379	ltpFR2	1	11	WAITER	1580	n/a	n/a	0	0	0
2288492	REC_WORD	wordpools/wasnorm_wordpool_576.txt	LTP379	ltpFR2	1	11	SERVER	1272	n/a	n/a	0	0	0
2308014	WORD	wordpools/wasnorm_wordpool_576.txt	LTP379	ltpFR2	1	12	PUPPY	1144	n/a	n/a	0	0	0
2310682	WORD	wordpools/wasnorm_wordpool_576.txt	LTP379	ltpFR2	1	12	LUGGAGE	847	n/a	n/a	0	0	0
2313482	WORD	wordpools/wasnorm_wordpool_576.txt	LTP379	ltpFR2	1	12	KLEENEX	782	n/a	n/a	0	0	0
2316064	WORD	wordpools/wasnorm_wordpool_576.txt	LTP379	ltpFR2	1	12	PAPER	1011	n/a	n/a	0	0	0
2318515	WORD	wordpools/wasnorm_wordpool_576.txt	LTP379	ltpFR2	1	12	DONKEY	484	n/a	n/a	0	0	0
2320980	WORD	wordpools/wasnorm_wordpool_576.txt	LTP379	ltpFR2	1	12	TYPIST	1532	n/a	n/a	0	0	0
2323681	WORD	wordpools/wasnorm_wordpool_576.txt	LTP379	ltpFR2	1	12	OFFICE	972	n/a	n/a	0	0	0
2326398	WORD	wordpools/wasnorm_wordpool_576.txt	LTP379	ltpFR2	1	12	FLUTE	585	n/a	n/a	0	0	0
2328947	WORD	wordpools/wasnorm_wordpool_576.txt	LTP379	ltpFR2	1	12	GLOVE	642	n/a	n/a	0	0	0
2331615	WORD	wordpools/wasnorm_wordpool_576.txt	LTP379	ltpFR2	1	12	FREEZER	604	n/a	n/a	0	0	0
2334131	WORD	wordpools/wasnorm_wordpool_576.txt	LTP379	ltpFR2	1	12	SCISSORS	1250	n/a	n/a	0	0	0
2336797	WORD	wordpools/wasnorm_wordpool_576.txt	LTP379	ltpFR2	1	12	ICING	732	n/a	n/a	0	0	0
2339281	WORD	wordpools/wasnorm_wordpool_576.txt	LTP379	ltpFR2	1	12	CLIMBER	323	n/a	n/a	0	0	0
2341947	WORD	wordpools/wasnorm_wordpool_576.txt	LTP379	ltpFR2	1	12	HORSE	719	n/a	n/a	0	0	0
2344398	WORD	wordpools/wasnorm_wordpool_576.txt	LTP379	ltpFR2	1	12	PLUTO	1092	n/a	n/a	0	0	0
2347013	WORD	wordpools/wasnorm_wordpool_576.txt	LTP379	ltpFR2	1	12	MUFFIN	929	n/a	n/a	0	0	0
2349464	WORD	wordpools/wasnorm_wordpool_576.txt	LTP379	ltpFR2	1	12	FILM	565	n/a	n/a	0	0	0
2352148	WORD	wordpools/wasnorm_wordpool_576.txt	LTP379	ltpFR2	1	12	STALLION	1369	n/a	n/a	0	0	0
2354846	WORD	wordpools/wasnorm_wordpool_576.txt	LTP379	ltpFR2	1	12	PARROT	1015	n/a	n/a	0	0	0
2357498	WORD	wordpools/wasnorm_wordpool_576.txt	LTP379	ltpFR2	1	12	CLOCK	325	n/a	n/a	0	0	0
2360264	WORD	wordpools/wasnorm_wordpool_576.txt	LTP379	ltpFR2	1	12	SPOON	1357	n/a	n/a	0	0	0
2362980	WORD	wordpools/wasnorm_wordpool_576.txt	LTP379	ltpFR2	1	12	FEMALE	559	n/a	n/a	0	0	0
2365414	WORD	wordpools/wasnorm_wordpool_576.txt	LTP379	ltpFR2	1	12	MESSAGE	888	n/a	n/a	0	0	0
2368231	WORD	wordpools/wasnorm_wordpool_576.txt	LTP379	ltpFR2	1	12	SUITCASE	1403	n/a	n/a	0	0	0
2369847	START	n/a	LTP379	ltpFR2	1	n/a	n/a	n/a	18	n/a	n/a	n/a	n/a
2370747	DISTRACTOR	n/a	LTP379	ltpFR2	1	12	n/a	n/a	n/a	n/a	0	0	0
2370764	PROB	n/a	LTP379	ltpFR2	1	n/a	n/a	n/a	18	23	6	8	9
2373896	PROB	n/a	LTP379	ltpFR2	1	n/a	n/a	n/a	18	21	9	5	7
2376381	PROB	n/a	LTP379	ltpFR2	1	n/a	n/a	n/a	18	8	2	2	4
2377664	PROB	n/a	LTP379	ltpFR2	1	n/a	n/a	n/a	18	18	9	7	2
2379464	PROB	n/a	LTP379	ltpFR2	1	n/a	n/a	n/a	18	15	1	9	5
2380764	PROB	n/a	LTP379	ltpFR2	1	n/a	n/a	n/a	18	18	5	8	5
2382114	PROB	n/a	LTP379	ltpFR2	1	n/a	n/a	n/a	18	14	5	3	6
2383680	PROB	n/a	LTP379	ltpFR2	1	n/a	n/a	n/a	18	20	8	6	6
2385147	PROB	n/a	LTP379	ltpFR2	1	n/a	n/a	n/a	18	8	4	2	2
2386380	PROB	n/a	LTP379	ltpFR2	1	n/a	n/a	n/a	18	23	6	8	9
2388430	PROB	n/a	LTP379	ltpFR2	1	n/a	n/a	n/a	18	17	3	6	8
2389829	PROB	n/a	LTP379	ltpFR2	1	n/a	n/a	n/a	18	27	9	9	9
2391480	PROB	n/a	LTP379	ltpFR2	1	n/a	n/a	n/a	18	23	5	9	9
2392985	STOP	n/a	LTP379	ltpFR2	1	n/a	n/a	n/a	18	n/a	n/a	n/a	n/a
2395764	REC_START	n/a	LTP379	ltpFR2	1	12	n/a	n/a	n/a	n/a	0	0	0
2398226	REC_WORD	wordpools/wasnorm_wordpool_576.txt	LTP379	ltpFR2	1	12	PUPPY	1144	n/a	n/a	0	0	0
2399876	REC_WORD	wordpools/wasnorm_wordpool_576.txt	LTP379	ltpFR2	1	12	LUGGAGE	847	n/a	n/a	0	0	0
2401368	REC_WORD	wordpools/wasnorm_wordpool_576.txt	LTP379	ltpFR2	1	12	KLEENEX	782	n/a	n/a	0	0	0
2403206	REC_WORD	wordpools/wasnorm_wordpool_576.txt	LTP379	ltpFR2	1	12	PAPER	1011	n/a	n/a	0	0	0
2406119	REC_WORD	wordpools/wasnorm_wordpool_576.txt	LTP379	ltpFR2	1	12	DONKEY	484	n/a	n/a	0	0	0
2408023	REC_WORD	wordpools/wasnorm_wordpool_576.txt	LTP379	ltpFR2	1	12	TYPIST	1532	n/a	n/a	0	0	0
2409855	REC_WORD	wordpools/wasnorm_wordpool_576.txt	LTP379	ltpFR2	1	12	OFFICE	972	n/a	n/a	0	0	0
2411756	REC_WORD	wordpools/wasnorm_wordpool_576.txt	LTP379	ltpFR2	1	12	FLUTE	585	n/a	n/a	0	0	0
2413921	REC_WORD	wordpools/wasnorm_wordpool_576.txt	LTP379	ltpFR2	1	12	GLOVE	642	n/a	n/a	0	0	0
2416437	REC_WORD	wordpools/wasnorm_wordpool_576.txt	LTP379	ltpFR2	1	12	FREEZER	604	n/a	n/a	0	0	0
2419037	REC_WORD	wordpools/wasnorm_wordpool_576.txt	LTP379	ltpFR2	1	12	SCISSORS	1250	n/a	n/a	0	0	0
2421059	REC_WORD	wordpools/wasnorm_wordpool_576.txt	LTP379	ltpFR2	1	12	ICING	732	n/a	n/a	0	0	0
2423055	REC_WORD	wordpools/wasnorm_wordpool_576.txt	LTP379	ltpFR2	1	12	CLIMBER	323	n/a	n/a	0	0	0
2425399	REC_WORD	wordpools/wasnorm_wordpool_576.txt	LTP379	ltpFR2	1	12	HORSE	719	n/a	n/a	0	0	0
2427278	REC_WORD	wordpools/wasnorm_wordpool_576.txt	LTP379	ltpFR2	1	12	PLUTO	1092	n/a	n/a	0	0	0
2429631	REC_WORD	wordpools/wasnorm_wordpool_576.txt	LTP379	ltpFR2	1	12	MUFFIN	929	n/a	n/a	0	0	0
2433762	REC_WORD	wordpools/wasnorm_wordpool_576.txt	LTP379	ltpFR2	1	12	FILM	565	n/a	n/a	0	0	0
2435484	REC_WORD	wordpools/wasnorm_wordpool_576.txt	LTP379	ltpFR2	1	12	STALLION	1369	n/a	n/a	0	0	0
2437425	REC_WORD	wordpools/wasnorm_wordpool_576.txt	LTP379	ltpFR2	1	12	PARROT	1015	n/a	n/a	0	0	0
2439153	REC_WORD	wordpools/wasnorm_wordpool_576.txt	LTP379	ltpFR2	1	12	CLOCK	325	n/a	n/a	0	0	0
2440798	REC_WORD	wordpools/wasnorm_wordpool_576.txt	LTP379	ltpFR2	1	12	SPOON	1357	n/a	n/a	0	0	0
2442805	REC_WORD	wordpools/wasnorm_wordpool_576.txt	LTP379	ltpFR2	1	12	FEMALE	559	n/a	n/a	0	0	0
2445127	REC_WORD	wordpools/wasnorm_wordpool_576.txt	LTP379	ltpFR2	1	12	MESSAGE	888	n/a	n/a	0	0	0
2449074	REC_WORD	wordpools/wasnorm_wordpool_576.txt	LTP379	ltpFR2	1	12	SUITCASE	1403	n/a	n/a	0	0	0
2486212	DISTRACTOR	n/a	LTP379	ltpFR2	1	13	n/a	n/a	n/a	n/a	0	0	0
2486212	START	n/a	LTP379	ltpFR2	1	n/a	n/a	n/a	19	n/a	n/a	n/a	n/a
2486229	PROB	n/a	LTP379	ltpFR2	1	n/a	n/a	n/a	19	12	4	5	3
2487861	PROB	n/a	LTP379	ltpFR2	1	n/a	n/a	n/a	19	19	7	6	6
2489695	PROB	n/a	LTP379	ltpFR2	1	n/a	n/a	n/a	19	15	9	1	5
2490844	PROB	n/a	LTP379	ltpFR2	1	n/a	n/a	n/a	19	13	8	2	3
2492129	PROB	n/a	LTP379	ltpFR2	1	n/a	n/a	n/a	19	17	8	3	6
2493745	PROB	n/a	LTP379	ltpFR2	1	n/a	n/a	n/a	19	17	4	7	6
2495245	PROB	n/a	LTP379	ltpFR2	1	n/a	n/a	n/a	19	18	3	6	9
2497112	PROB	n/a	LTP379	ltpFR2	1	n/a	n/a	n/a	19	16	3	9	4
2498612	PROB	n/a	LTP379	ltpFR2	1	n/a	n/a	n/a	19	19	9	5	5
2500011	PROB	n/a	LTP379	ltpFR2	1	n/a	n/a	n/a	19	14	4	4	6
2501645	PROB	n/a	LTP379	ltpFR2	1	n/a	n/a	n/a	19	26	9	8	9
2503279	PROB	n/a	LTP379	ltpFR2	1	n/a	n/a	n/a	19	17	4	8	5
2504911	PROB	n/a	LTP379	ltpFR2	1	n/a	n/a	n/a	19	18	5	8	5
2506395	PROB	n/a	LTP379	ltpFR2	1	n/a	n/a	n/a	19	12	6	2	4
2508645	PROB	n/a	LTP379	ltpFR2	1	n/a	n/a	n/a	19	18	4	9	5
2509972	STOP	n/a	LTP379	ltpFR2	1	n/a	n/a	n/a	19	n/a	n/a	n/a	n/a
2511228	WORD	wordpools/wasnorm_wordpool_576.txt	LTP379	ltpFR2	1	13	JELLY	755	n/a	n/a	0	0	0
2513877	WORD	wordpools/wasnorm_wordpool_576.txt	LTP379	ltpFR2	1	13	OINTMENT	974	n/a	n/a	0	0	0
2516562	WORD	wordpools/wasnorm_wordpool_576.txt	LTP379	ltpFR2	1	13	HUMAN	726	n/a	n/a	0	0	0
2519345	WORD	wordpools/wasnorm_wordpool_576.txt	LTP379	ltpFR2	1	13	SUNRISE	1407	n/a	n/a	0	0	0
2521811	WORD	wordpools/wasnorm_wordpool_576.txt	LTP379	ltpFR2	1	13	ACTRESS	6	n/a	n/a	0	0	0
2524512	WORD	wordpools/wasnorm_wordpool_576.txt	LTP379	ltpFR2	1	13	SAUSAGE	1238	n/a	n/a	0	0	0
2527212	WORD	wordpools/wasnorm_wordpool_576.txt	LTP379	ltpFR2	1	13	ARM	38	n/a	n/a	0	0	0
2529911	WORD	wordpools/wasnorm_wordpool_576.txt	LTP379	ltpFR2	1	13	STATUE	1374	n/a	n/a	0	0	0
2532478	WORD	wordpools/wasnorm_wordpool_576.txt	LTP379	ltpFR2	1	13	PEDAL	1037	n/a	n/a	0	0	0
2534927	WORD	wordpools/wasnorm_wordpool_576.txt	LTP379	ltpFR2	1	13	SEAGULL	1261	n/a	n/a	0	0	0
2537345	WORD	wordpools/wasnorm_wordpool_576.txt	LTP379	ltpFR2	1	13	NOMAD	955	n/a	n/a	0	0	0
2540145	WORD	wordpools/wasnorm_wordpool_576.txt	LTP379	ltpFR2	1	13	JUNGLE	764	n/a	n/a	0	0	0
2542595	WORD	wordpools/wasnorm_wordpool_576.txt	LTP379	ltpFR2	1	13	ULCER	1533	n/a	n/a	0	0	0
2545077	WORD	wordpools/wasnorm_wordpool_576.txt	LTP379	ltpFR2	1	13	PACKAGE	997	n/a	n/a	0	0	0
2547511	WORD	wordpools/wasnorm_wordpool_576.txt	LTP379	ltpFR2	1	13	POSTAGE	1113	n/a	n/a	0	0	0
2550010	WORD	wordpools/wasnorm_wordpool_576.txt	LTP379	ltpFR2	1	13	LADY	794	n/a	n/a	0	0	0
2552761	WORD	wordpools/wasnorm_wordpool_576.txt	LTP379	ltpFR2	1	13	BIKE	125	n/a	n/a	0	0	0
2555194	WORD	wordpools/wasnorm_wordpool_576.txt	LTP379	ltpFR2	1	13	PIZZA	1079	n/a	n/a	0	0	0
2558010	WORD	wordpools/wasnorm_wordpool_576.txt	LTP379	ltpFR2	1	13	ROD	1203	n/a	n/a	0	0	0
2560661	WORD	wordpools/wasnorm_wordpool_576.txt	LTP379	ltpFR2	1	13	HAND	683	n/a	n/a	0	0	0
2563111	WORD	wordpools/wasnorm_wordpool_576.txt	LTP379	ltpFR2	1	13	FINGER	567	n/a	n/a	0	0	0
2565644	WORD	wordpools/wasnorm_wordpool_576.txt	LTP379	ltpFR2	1	13	TUTU	1524	n/a	n/a	0	0	0
2568144	WORD	wordpools/wasnorm_wordpool_576.txt	LTP379	ltpFR2	1	13	KIDNEY	776	n/a	n/a	0	0	0
2570976	WORD	wordpools/wasnorm_wordpool_576.txt	LTP379	ltpFR2	1	13	IGLOO	734	n/a	n/a	0	0	0
2572578	START	n/a	LTP379	ltpFR2	1	n/a	n/a	n/a	20	n/a	n/a	n/a	n/a
2573723	DISTRACTOR	n/a	LTP379	ltpFR2	1	13	n/a	n/a	n/a	n/a	0	0	0
2573727	PROB	n/a	LTP379	ltpFR2	1	n/a	n/a	n/a	20	11	4	1	6
2575261	PROB	n/a	LTP379	ltpFR2	1	n/a	n/a	n/a	20	8	4	2	4
2576776	PROB	n/a	LTP379	ltpFR2	1	n/a	n/a	n/a	20	6	2	2	2
2578043	PROB	n/a	LTP379	ltpFR2	1	n/a	n/a	n/a	20	18	4	5	9
2579960	PROB	n/a	LTP379	ltpFR2	1	n/a	n/a	n/a	20	18	9	7	2
2581793	PROB	n/a	LTP379	ltpFR2	1	n/a	n/a	n/a	20	10	3	6	1
2583060	PROB	n/a	LTP379	ltpFR2	1	n/a	n/a	n/a	20	16	2	6	8
2584976	PROB	n/a	LTP379	ltpFR2	1	n/a	n/a	n/a	20	18	6	9	3
2586926	PROB	n/a	LTP379	ltpFR2	1	n/a	n/a	n/a	20	18	3	8	7
2589144	PROB	n/a	LTP379	ltpFR2	1	n/a	n/a	n/a	20	19	6	8	5
2591144	PROB	n/a	LTP379	ltpFR2	1	n/a	n/a	n/a	20	10	2	6	2
2592843	PROB	n/a	LTP379	ltpFR2	1	n/a	n/a	n/a	20	13	6	3	4
2594177	PROB	n/a	LTP379	ltpFR2	1	n/a	n/a	n/a	20	13	8	3	2
2595752	STOP	n/a	LTP379	ltpFR2	1	n/a	n/a	n/a	20	n/a	n/a	n/a	n/a
2598428	REC_START	n/a	LTP379	ltpFR2	1	13	n/a	n/a	n/a	n/a	0	0	0
2602631	REC_WORD	wordpools/wasnorm_wordpool_576.txt	LTP379	ltpFR2	1	13	JELLY	755	n/a	n/a	0	0	0
2604171	REC_WORD	wordpools/wasnorm_wordpool_576.txt	LTP379	ltpFR2	1	13	OINTMENT	974	n/a	n/a	0	0	0
2605687	REC_WORD	wordpools/wasnorm_wordpool_576.txt	LTP379	ltpFR2	1	13	HUMAN	726	n/a	n/a	0	0	0
2607449	REC_WORD	wordpools/wasnorm_wordpool_576.txt	LTP379	ltpFR2	1	13	SUNRISE	1407	n/a	n/a	0	0	0
2609014	REC_WORD	wordpools/wasnorm_wordpool_576.txt	LTP379	ltpFR2	1	13	ACTRESS	6	n/a	n/a	0	0	0
2610440	REC_WORD	wordpools/wasnorm_wordpool_576.txt	LTP379	ltpFR2	1	13	SAUSAGE	1238	n/a	n/a	0	0	0
2613401	REC_WORD	wordpools/wasnorm_wordpool_576.txt	LTP379	ltpFR2	1	13	ARM	38	n/a	n/a	0	0	0
2614899	REC_WORD	wordpools/wasnorm_wordpool_576.txt	LTP379	ltpFR2	1	13	STATUE	1374	n/a	n/a	0	0	0
2616794	REC_WORD	wordpools/wasnorm_wordpool_576.txt	LTP379	ltpFR2	1	13	PEDAL	1037	n/a	n/a	0	0	0
2618411	REC_WORD	wordpools/wasnorm_wordpool_576.txt	LTP379	ltpFR2	1	13	SEAGULL	1261	n/a	n/a	0	0	0
2620423	REC_WORD	wordpools/wasnorm_wordpool_576.txt	LTP379	ltpFR2	1	13	NOMAD	955	n/a	n/a	0	0	0
2622118	REC_WORD	wordpools/wasnorm_wordpool_576.txt	LTP379	ltpFR2	1	13	JUNGLE	764	n/a	n/a	0	0	0
2623769	REC_WORD	wordpools/wasnorm_wordpool_576.txt	LTP379	ltpFR2	1	13	ULCER	1533	n/a	n/a	0	0	0
2625421	REC_WORD	wordpools/wasnorm_wordpool_576.txt	LTP379	ltpFR2	1	13	PACKAGE	997	n/a	n/a	0	0	0
2627188	REC_WORD	wordpools/wasnorm_wordpool_576.txt	LTP379	ltpFR2	1	13	POSTAGE	1113	n/a	n/a	0	0	0
2629137	REC_WORD	wordpools/wasnorm_wordpool_576.txt	LTP379	ltpFR2	1	13	LADY	794	n/a	n/a	0	0	0
2632436	REC_WORD	wordpools/wasnorm_wordpool_576.txt	LTP379	ltpFR2	1	13	BIKE	125	n/a	n/a	0	0	0
2634683	REC_WORD	wordpools/wasnorm_wordpool_576.txt	LTP379	ltpFR2	1	13	PIZZA	1079	n/a	n/a	0	0	0
2636504	REC_WORD	wordpools/wasnorm_wordpool_576.txt	LTP379	ltpFR2	1	13	ROD	1203	n/a	n/a	0	0	0
2638217	REC_WORD	wordpools/wasnorm_wordpool_576.txt	LTP379	ltpFR2	1	13	HAND	683	n/a	n/a	0	0	0
2639761	REC_WORD	wordpools/wasnorm_wordpool_576.txt	LTP379	ltpFR2	1	13	FINGER	567	n/a	n/a	0	0	0
2641760	REC_WORD	wordpools/wasnorm_wordpool_576.txt	LTP379	ltpFR2	1	13	TUTU	1524	n/a	n/a	0	0	0
2643391	REC_WORD	wordpools/wasnorm_wordpool_576.txt	LTP379	ltpFR2	1	13	KIDNEY	776	n/a	n/a	0	0	0
2645047	REC_WORD	wordpools/wasnorm_wordpool_576.txt	LTP379	ltpFR2	1	13	IGLOO	734	n/a	n/a	0	0	0
2688891	WORD	wordpools/wasnorm_wordpool_576.txt	LTP379	ltpFR2	1	14	LEOPARD	812	n/a	n/a	0	0	0
2691542	WORD	wordpools/wasnorm_wordpool_576.txt	LTP379	ltpFR2	1	14	LONDON	843	n/a	n/a	0	0	0
2694091	WORD	wordpools/wasnorm_wordpool_576.txt	LTP379	ltpFR2	1	14	FRANCE	601	n/a	n/a	0	0	0
2696808	WORD	wordpools/wasnorm_wordpool_576.txt	LTP379	ltpFR2	1	14	SIDEWALK	1303	n/a	n/a	0	0	0
2699309	WORD	wordpools/wasnorm_wordpool_576.txt	LTP379	ltpFR2	1	14	BLENDER	136	n/a	n/a	0	0	0
2702109	WORD	wordpools/wasnorm_wordpool_576.txt	LTP379	ltpFR2	1	14	PICNIC	1060	n/a	n/a	0	0	0
2704559	WORD	wordpools/wasnorm_wordpool_576.txt	LTP379	ltpFR2	1	14	GANGSTER	620	n/a	n/a	0	0	0
2707041	WORD	wordpools/wasnorm_wordpool_576.txt	LTP379	ltpFR2	1	14	COCOON	339	n/a	n/a	0	0	0
2709742	WORD	wordpools/wasnorm_wordpool_576.txt	LTP379	ltpFR2	1	14	SANDWICH	1232	n/a	n/a	0	0	0
2712342	WORD	wordpools/wasnorm_wordpool_576.txt	LTP379	ltpFR2	1	14	PIANO	1057	n/a	n/a	0	0	0
2715142	WORD	wordpools/wasnorm_wordpool_576.txt	LTP379	ltpFR2	1	14	GALLON	618	n/a	n/a	0	0	0
2717725	WORD	wordpools/wasnorm_wordpool_576.txt	LTP379	ltpFR2	1	14	KITCHEN	778	n/a	n/a	0	0	0
2720258	WORD	wordpools/wasnorm_wordpool_576.txt	LTP379	ltpFR2	1	14	WITNESS	1618	n/a	n/a	0	0	0
2722957	WORD	wordpools/wasnorm_wordpool_576.txt	LTP379	ltpFR2	1	14	CITRUS	313	n/a	n/a	0	0	0
2725525	WORD	wordpools/wasnorm_wordpool_576.txt	LTP379	ltpFR2	1	14	COLLEGE	346	n/a	n/a	0	0	0
2728258	WORD	wordpools/wasnorm_wordpool_576.txt	LTP379	ltpFR2	1	14	CHAUFFEUR	283	n/a	n/a	0	0	0
2730791	WORD	wordpools/wasnorm_wordpool_576.txt	LTP379	ltpFR2	1	14	SALAD	1224	n/a	n/a	0	0	0
2733575	WORD	wordpools/wasnorm_wordpool_576.txt	LTP379	ltpFR2	1	14	STOVE	1388	n/a	n/a	0	0	0
2736074	WORD	wordpools/wasnorm_wordpool_576.txt	LTP379	ltpFR2	1	14	SKILLET	1317	n/a	n/a	0	0	0
2738641	WORD	wordpools/wasnorm_wordpool_576.txt	LTP379	ltpFR2	1	14	AWARD	63	n/a	n/a	0	0	0
2741425	WORD	wordpools/wasnorm_wordpool_576.txt	LTP379	ltpFR2	1	14	CRICKET	408	n/a	n/a	0	0	0
2744158	WORD	wordpools/wasnorm_wordpool_576.txt	LTP379	ltpFR2	1	14	BARREL	91	n/a	n/a	0	0	0
2746840	WORD	wordpools/wasnorm_wordpool_576.txt	LTP379	ltpFR2	1	14	HIGHWAY	707	n/a	n/a	0	0	0
2749408	WORD	wordpools/wasnorm_wordpool_576.txt	LTP379	ltpFR2	1	14	KNAPSACK	783	n/a	n/a	0	0	0
2751024	START	n/a	LTP379	ltpFR2	1	n/a	n/a	n/a	21	n/a	n/a	n/a	n/a
2751874	DISTRACTOR	n/a	LTP379	ltpFR2	1	14	n/a	n/a	n/a	n/a	0	0	0
2751890	PROB	n/a	LTP379	ltpFR2	1	n/a	n/a	n/a	21	21	6	7	8
2755258	PROB	n/a	LTP379	ltpFR2	1	n/a	n/a	n/a	21	11	4	1	6
2756575	PROB	n/a	LTP379	ltpFR2	1	n/a	n/a	n/a	21	18	9	3	6
2758007	PROB	n/a	LTP379	ltpFR2	1	n/a	n/a	n/a	21	9	2	4	3
2759907	PROB	n/a	LTP379	ltpFR2	1	n/a	n/a	n/a	21	15	9	1	5
2761341	PROB	n/a	LTP379	ltpFR2	1	n/a	n/a	n/a	21	17	8	3	6
2762923	PROB	n/a	LTP379	ltpFR2	1	n/a	n/a	n/a	21	15	5	5	5
2764124	PROB	n/a	LTP379	ltpFR2	1	n/a	n/a	n/a	21	18	5	9	4
2766124	PROB	n/a	LTP379	ltpFR2	1	n/a	n/a	n/a	21	19	4	9	6
2767708	PROB	n/a	LTP379	ltpFR2	1	n/a	n/a	n/a	21	16	5	7	4
2769141	PROB	n/a	LTP379	ltpFR2	1	n/a	n/a	n/a	21	16	8	5	3
2770873	PROB	n/a	LTP379	ltpFR2	1	n/a	n/a	n/a	21	11	7	2	2
2772358	PROB	n/a	LTP379	ltpFR2	1	n/a	n/a	n/a	21	6	2	3	1
2773597	STOP	n/a	LTP379	ltpFR2	1	n/a	n/a	n/a	21	n/a	n/a	n/a	n/a
2776974	REC_START	n/a	LTP379	ltpFR2	1	14	n/a	n/a	n/a	n/a	0	0	0
2779072	REC_WORD	wordpools/wasnorm_wordpool_576.txt	LTP379	ltpFR2	1	14	LEOPARD	812	n/a	n/a	0	0	0
2780471	REC_WORD	wordpools/wasnorm_wordpool_576.txt	LTP379	ltpFR2	1	14	LONDON	843	n/a	n/a	0	0	0
2781987	REC_WORD	wordpools/wasnorm_wordpool_576.txt	LTP379	ltpFR2	1	14	FRANCE	601	n/a	n/a	0	0	0
2783636	REC_WORD	wordpools/wasnorm_wordpool_576.txt	LTP379	ltpFR2	1	14	SIDEWALK	1303	n/a	n/a	0	0	0
2786451	REC_WORD	wordpools/wasnorm_wordpool_576.txt	LTP379	ltpFR2	1	14	BLENDER	136	n/a	n/a	0	0	0
2788035	REC_WORD	wordpools/wasnorm_wordpool_576.txt	LTP379	ltpFR2	1	14	PICNIC	1060	n/a	n/a	0	0	0
2792564	REC_WORD	wordpools/wasnorm_wordpool_576.txt	LTP379	ltpFR2	1	14	GANGSTER	620	n/a	n/a	0	0	0
2793976	REC_WORD	wordpools/wasnorm_wordpool_576.txt	LTP379	ltpFR2	1	14	COCOON	339	n/a	n/a	0	0	0
2795874	REC_WORD	wordpools/wasnorm_wordpool_576.txt	LTP379	ltpFR2	1	14	SANDWICH	1232	n/a	n/a	0	0	0
2797990	REC_WORD	wordpools/wasnorm_wordpool_576.txt	LTP379	ltpFR2	1	14	PIANO	1057	n/a	n/a	0	0	0
2800123	REC_WORD	wordpools/wasnorm_wordpool_576.txt	LTP379	ltpFR2	1	14	GALLON	618	n/a	n/a	0	0	0
2806096	REC_WORD	wordpools/wasnorm_wordpool_576.txt	LTP379	ltpFR2	1	14	KITCHEN	778	n/a	n/a	0	0	0
2807967	REC_WORD	wordpools/wasnorm_wordpool_576.txt	LTP379	ltpFR2	1	14	CITRUS	313	n/a	n/a	0	0	0
2810057	REC_WORD	wordpools/wasnorm_wordpool_576.txt	LTP379	ltpFR2	1	14	COLLEGE	346	n/a	n/a	0	0	0
2811666	REC_WORD	wordpools/wasnorm_wordpool_576.txt	LTP379	ltpFR2	1	14	CHAUFFEUR	283	n/a	n/a	0	0	0
2813506	REC_WORD	wordpools/wasnorm_wordpool_576.txt	LTP379	ltpFR2	1	14	SALAD	1224	n/a	n/a	0	0	0
2815932	REC_WORD	wordpools/wasnorm_wordpool_576.txt	LTP379	ltpFR2	1	14	STOVE	1388	n/a	n/a	0	0	0
2817995	REC_WORD	wordpools/wasnorm_wordpool_576.txt	LTP379	ltpFR2	1	14	SKILLET	1317	n/a	n/a	0	0	0
2820040	REC_WORD	wordpools/wasnorm_wordpool_576.txt	LTP379	ltpFR2	1	14	AWARD	63	n/a	n/a	0	0	0
2822744	REC_WORD	wordpools/wasnorm_wordpool_576.txt	LTP379	ltpFR2	1	14	CRICKET	408	n/a	n/a	0	0	0
2824970	REC_WORD	wordpools/wasnorm_wordpool_576.txt	LTP379	ltpFR2	1	14	BARREL	91	n/a	n/a	0	0	0
2826539	REC_WORD	wordpools/wasnorm_wordpool_576.txt	LTP379	ltpFR2	1	14	HIGHWAY	707	n/a	n/a	0	0	0
2828128	REC_WORD	wordpools/wasnorm_wordpool_576.txt	LTP379	ltpFR2	1	14	KNAPSACK	783	n/a	n/a	0	0	0
2867423	WORD	wordpools/wasnorm_wordpool_576.txt	LTP379	ltpFR2	1	15	LADDER	793	n/a	n/a	0	0	0
2869938	WORD	wordpools/wasnorm_wordpool_576.txt	LTP379	ltpFR2	1	15	DORM	488	n/a	n/a	0	0	0
2872423	WORD	wordpools/wasnorm_wordpool_576.txt	LTP379	ltpFR2	1	15	HIKER	708	n/a	n/a	0	0	0
2874938	WORD	wordpools/wasnorm_wordpool_576.txt	LTP379	ltpFR2	1	15	BLADE	134	n/a	n/a	0	0	0
2877656	WORD	wordpools/wasnorm_wordpool_576.txt	LTP379	ltpFR2	1	15	PLASTER	1085	n/a	n/a	0	0	0
2880389	WORD	wordpools/wasnorm_wordpool_576.txt	LTP379	ltpFR2	1	15	RABBIT	1152	n/a	n/a	0	0	0
2883038	WORD	wordpools/wasnorm_wordpool_576.txt	LTP379	ltpFR2	1	15	DRIVER	499	n/a	n/a	0	0	0
2885573	WORD	wordpools/wasnorm_wordpool_576.txt	LTP379	ltpFR2	1	15	LUNCH	849	n/a	n/a	0	0	0
2888156	WORD	wordpools/wasnorm_wordpool_576.txt	LTP379	ltpFR2	1	15	GOBLIN	645	n/a	n/a	0	0	0
2890871	WORD	wordpools/wasnorm_wordpool_576.txt	LTP379	ltpFR2	1	15	TUBA	1515	n/a	n/a	0	0	0
2893406	WORD	wordpools/wasnorm_wordpool_576.txt	LTP379	ltpFR2	1	15	FOREHEAD	592	n/a	n/a	0	0	0
2896071	WORD	wordpools/wasnorm_wordpool_576.txt	LTP379	ltpFR2	1	15	TWEEZERS	1526	n/a	n/a	0	0	0
2898489	WORD	wordpools/wasnorm_wordpool_576.txt	LTP379	ltpFR2	1	15	LODGE	839	n/a	n/a	0	0	0
2901222	WORD	wordpools/wasnorm_wordpool_576.txt	LTP379	ltpFR2	1	15	VIRUS	1572	n/a	n/a	0	0	0
2904038	WORD	wordpools/wasnorm_wordpool_576.txt	LTP379	ltpFR2	1	15	TABLET	1427	n/a	n/a	0	0	0
2906489	WORD	wordpools/wasnorm_wordpool_576.txt	LTP379	ltpFR2	1	15	RAFT	1159	n/a	n/a	0	0	0
2909122	WORD	wordpools/wasnorm_wordpool_576.txt	LTP379	ltpFR2	1	15	HOSTESS	723	n/a	n/a	0	0	0
2911722	WORD	wordpools/wasnorm_wordpool_576.txt	LTP379	ltpFR2	1	15	WAITRESS	1581	n/a	n/a	0	0	0
2914339	WORD	wordpools/wasnorm_wordpool_576.txt	LTP379	ltpFR2	1	15	TROMBONE	1508	n/a	n/a	0	0	0
2917021	WORD	wordpools/wasnorm_wordpool_576.txt	LTP379	ltpFR2	1	15	VALLEY	1545	n/a	n/a	0	0	0
2919804	WORD	wordpools/wasnorm_wordpool_576.txt	LTP379	ltpFR2	1	15	MEAT	883	n/a	n/a	0	0	0
2922255	WORD	wordpools/wasnorm_wordpool_576.txt	LTP379	ltpFR2	1	15	MEDAL	885	n/a	n/a	0	0	0
2924821	WORD	wordpools/wasnorm_wordpool_576.txt	LTP379	ltpFR2	1	15	COLONEL	348	n/a	n/a	0	0	0
2927355	WORD	wordpools/wasnorm_wordpool_576.txt	LTP379	ltpFR2	1	15	HOOK	715	n/a	n/a	0	0	0
2928971	START	n/a	LTP379	ltpFR2	1	n/a	n/a	n/a	22	n/a	n/a	n/a	n/a
2929780	DISTRACTOR	n/a	LTP379	ltpFR2	1	15	n/a	n/a	n/a	n/a	0	0	0
2929787	PROB	n/a	LTP379	ltpFR2	1	n/a	n/a	n/a	22	15	4	4	7
2931854	PROB	n/a	LTP379	ltpFR2	1	n/a	n/a	n/a	22	11	2	1	8
2933255	PROB	n/a	LTP379	ltpFR2	1	n/a	n/a	n/a	22	18	1	9	8
2934538	PROB	n/a	LTP379	ltpFR2	1	n/a	n/a	n/a	22	19	9	8	2
2936205	PROB	n/a	LTP379	ltpFR2	1	n/a	n/a	n/a	22	16	4	5	7
2937705	PROB	n/a	LTP379	ltpFR2	1	n/a	n/a	n/a	22	14	5	6	3
2939787	PROB	n/a	LTP379	ltpFR2	1	n/a	n/a	n/a	22	18	8	7	3
2941322	PROB	n/a	LTP379	ltpFR2	1	n/a	n/a	n/a	22	15	2	9	4
2943122	PROB	n/a	LTP379	ltpFR2	1	n/a	n/a	n/a	22	11	3	3	5
2944372	PROB	n/a	LTP379	ltpFR2	1	n/a	n/a	n/a	22	13	1	3	9
2945937	PROB	n/a	LTP379	ltpFR2	1	n/a	n/a	n/a	22	7	2	2	3
2949205	PROB	n/a	LTP379	ltpFR2	1	n/a	n/a	n/a	22	16	1	8	7
2950655	PROB	n/a	LTP379	ltpFR2	1	n/a	n/a	n/a	22	14	7	6	1
2952579	STOP	n/a	LTP379	ltpFR2	1	n/a	n/a	n/a	22	n/a	n/a	n/a	n/a
2954821	REC_START	n/a	LTP379	ltpFR2	1	15	n/a	n/a	n/a	n/a	0	0	0
2957336	REC_WORD	wordpools/wasnorm_wordpool_576.txt	LTP379	ltpFR2	1	15	LADDER	793	n/a	n/a	0	0	0
2959067	REC_WORD	wordpools/wasnorm_wordpool_576.txt	LTP379	ltpFR2	1	15	DORM	488	n/a	n/a	0	0	0
2960594	REC_WORD	wordpools/wasnorm_wordpool_576.txt	LTP379	ltpFR2	1	15	HIKER	708	n/a	n/a	0	0	0
2962314	REC_WORD	wordpools/wasnorm_wordpool_576.txt	LTP379	ltpFR2	1	15	BLADE	134	n/a	n/a	0	0	0
2964949	REC_WORD	wordpools/wasnorm_wordpool_576.txt	LTP379	ltpFR2	1	15	PLASTER	1085	n/a	n/a	0	0	0
2966849	REC_WORD	wordpools/wasnorm_wordpool_576.txt	LTP379	ltpFR2	1	15	RABBIT	1152	n/a	n/a	0	0	0
2968646	REC_WORD	wordpools/wasnorm_wordpool_576.txt	LTP379	ltpFR2	1	15	DRIVER	499	n/a	n/a	0	0	0
2970290	REC_WORD	wordpools/wasnorm_wordpool_576.txt	LTP379	ltpFR2	1	15	LUNCH	849	n/a	n/a	0	0	0
2972117	REC_WORD	wordpools/wasnorm_wordpool_576.txt	LTP379	ltpFR2	1	15	GOBLIN	645	n/a	n/a	0	0	0
2974139	REC_WORD	wordpools/wasnorm_wordpool_576.txt	LTP379	ltpFR2	1	15	TUBA	1515	n/a	n/a	0	0	0
2976481	REC_WORD	wordpools/wasnorm_wordpool_576.txt	LTP379	ltpFR2	1	15	FOREHEAD	592	n/a	n/a	0	0	0
2978240	REC_WORD	wordpools/wasnorm_wordpool_576.txt	LTP379	ltpFR2	1	15	TWEEZERS	1526	n/a	n/a	0	0	0
2983086	REC_WORD	wordpools/wasnorm_wordpool_576.txt	LTP379	ltpFR2	1	15	LODGE	839	n/a	n/a	0	0	0
2985028	REC_WORD	wordpools/wasnorm_wordpool_576.txt	LTP379	ltpFR2	1	15	VIRUS	1572	n/a	n/a	0	0	0
2986901	REC_WORD	wordpools/wasnorm_wordpool_576.txt	LTP379	ltpFR2	1	15	TABLET	1427	n/a	n/a	0	0	0
2989114	REC_WORD	wordpools/wasnorm_wordpool_576.txt	LTP379	ltpFR2	1	15	RAFT	1159	n/a	n/a	0	0	0
2991449	REC_WORD	wordpools/wasnorm_wordpool_576.txt	LTP379	ltpFR2	1	15	HOSTESS	723	n/a	n/a	0	0	0
2993663	REC_WORD	wordpools/wasnorm_wordpool_576.txt	LTP379	ltpFR2	1	15	WAITRESS	1581	n/a	n/a	0	0	0
2995453	REC_WORD	wordpools/wasnorm_wordpool_576.txt	LTP379	ltpFR2	1	15	TROMBONE	1508	n/a	n/a	0	0	0
2997667	REC_WORD	wordpools/wasnorm_wordpool_576.txt	LTP379	ltpFR2	1	15	VALLEY	1545	n/a	n/a	0	0	0
2999376	REC_WORD	wordpools/wasnorm_wordpool_576.txt	LTP379	ltpFR2	1	15	MEAT	883	n/a	n/a	0	0	0
3000953	REC_WORD	wordpools/wasnorm_wordpool_576.txt	LTP379	ltpFR2	1	15	MEDAL	885	n/a	n/a	0	0	0
3002519	REC_WORD	wordpools/wasnorm_wordpool_576.txt	LTP379	ltpFR2	1	15	COLONEL	348	n/a	n/a	0	0	0
3004029	REC_WORD	wordpools/wasnorm_wordpool_576.txt	LTP379	ltpFR2	1	15	HOOK	715	n/a	n/a	0	0	0
3045253	DISTRACTOR	n/a	LTP379	ltpFR2	1	16	n/a	n/a	n/a	n/a	0	0	0
3045253	START	n/a	LTP379	ltpFR2	1	n/a	n/a	n/a	23	n/a	n/a	n/a	n/a
3045270	PROB	n/a	LTP379	ltpFR2	1	n/a	n/a	n/a	23	12	7	3	2
3047120	PROB	n/a	LTP379	ltpFR2	1	n/a	n/a	n/a	23	16	8	2	6
3048387	PROB	n/a	LTP379	ltpFR2	1	n/a	n/a	n/a	23	18	3	9	6
3050353	PROB	n/a	LTP379	ltpFR2	1	n/a	n/a	n/a	23	17	6	9	2
3052170	PROB	n/a	LTP379	ltpFR2	1	n/a	n/a	n/a	23	25	9	8	8
3054052	PROB	n/a	LTP379	ltpFR2	1	n/a	n/a	n/a	23	17	1	7	9
3055785	PROB	n/a	LTP379	ltpFR2	1	n/a	n/a	n/a	23	21	9	3	9
3057336	PROB	n/a	LTP379	ltpFR2	1	n/a	n/a	n/a	23	14	7	6	1
3058969	PROB	n/a	LTP379	ltpFR2	1	n/a	n/a	n/a	23	5	1	2	2
3060203	PROB	n/a	LTP379	ltpFR2	1	n/a	n/a	n/a	23	16	3	9	4
3061653	PROB	n/a	LTP379	ltpFR2	1	n/a	n/a	n/a	23	15	6	3	6
3063153	PROB	n/a	LTP379	ltpFR2	1	n/a	n/a	n/a	23	11	3	4	4
3064620	PROB	n/a	LTP379	ltpFR2	1	n/a	n/a	n/a	23	14	7	5	2
3066420	PROB	n/a	LTP379	ltpFR2	1	n/a	n/a	n/a	23	10	4	5	1
3068302	STOP	n/a	LTP379	ltpFR2	1	n/a	n/a	n/a	23	n/a	n/a	n/a	n/a
3070370	WORD	wordpools/wasnorm_wordpool_576.txt	LTP379	ltpFR2	1	16	DAUGHTER	442	n/a	n/a	0	0	0
3073069	WORD	wordpools/wasnorm_wordpool_576.txt	LTP379	ltpFR2	1	16	COCKTAIL	338	n/a	n/a	0	0	0
3075536	WORD	wordpools/wasnorm_wordpool_576.txt	LTP379	ltpFR2	1	16	WOMAN	1620	n/a	n/a	0	0	0
3078136	WORD	wordpools/wasnorm_wordpool_576.txt	LTP379	ltpFR2	1	16	MISTER	901	n/a	n/a	0	0	0
3080653	WORD	wordpools/wasnorm_wordpool_576.txt	LTP379	ltpFR2	1	16	PASSAGE	1019	n/a	n/a	0	0	0
3083403	WORD	wordpools/wasnorm_wordpool_576.txt	LTP379	ltpFR2	1	16	SHIRT	1287	n/a	n/a	0	0	0
3086203	WORD	wordpools/wasnorm_wordpool_576.txt	LTP379	ltpFR2	1	16	PEPPER	1047	n/a	n/a	0	0	0
3088736	WORD	wordpools/wasnorm_wordpool_576.txt	LTP379	ltpFR2	1	16	CAPTIVE	240	n/a	n/a	0	0	0
3091503	WORD	wordpools/wasnorm_wordpool_576.txt	LTP379	ltpFR2	1	16	XEROX	1628	n/a	n/a	0	0	0
3094169	WORD	wordpools/wasnorm_wordpool_576.txt	LTP379	ltpFR2	1	16	HAWK	692	n/a	n/a	0	0	0
3096801	WORD	wordpools/wasnorm_wordpool_576.txt	LTP379	ltpFR2	1	16	SALT	1229	n/a	n/a	0	0	0
3099586	WORD	wordpools/wasnorm_wordpool_576.txt	LTP379	ltpFR2	1	16	POISON	1096	n/a	n/a	0	0	0
3102102	WORD	wordpools/wasnorm_wordpool_576.txt	LTP379	ltpFR2	1	16	BEAST	108	n/a	n/a	0	0	0
3104785	WORD	wordpools/wasnorm_wordpool_576.txt	LTP379	ltpFR2	1	16	STAKE	1368	n/a	n/a	0	0	0
3107286	WORD	wordpools/wasnorm_wordpool_576.txt	LTP379	ltpFR2	1	16	COOKBOOK	373	n/a	n/a	0	0	0
3109985	WORD	wordpools/wasnorm_wordpool_576.txt	LTP379	ltpFR2	1	16	BODY	145	n/a	n/a	0	0	0
3112536	WORD	wordpools/wasnorm_wordpool_576.txt	LTP379	ltpFR2	1	16	SURVEY	1414	n/a	n/a	0	0	0
3115152	WORD	wordpools/wasnorm_wordpool_576.txt	LTP379	ltpFR2	1	16	TURKEY	1520	n/a	n/a	0	0	0
3117818	WORD	wordpools/wasnorm_wordpool_576.txt	LTP379	ltpFR2	1	16	LIZARD	834	n/a	n/a	0	0	0
3120635	WORD	wordpools/wasnorm_wordpool_576.txt	LTP379	ltpFR2	1	16	ROBBER	1197	n/a	n/a	0	0	0
3123219	WORD	wordpools/wasnorm_wordpool_576.txt	LTP379	ltpFR2	1	16	AGENT	10	n/a	n/a	0	0	0
3126018	WORD	wordpools/wasnorm_wordpool_576.txt	LTP379	ltpFR2	1	16	CELLAR	267	n/a	n/a	0	0	0
3128768	WORD	wordpools/wasnorm_wordpool_576.txt	LTP379	ltpFR2	1	16	BASEMENT	94	n/a	n/a	0	0	0
3131502	WORD	wordpools/wasnorm_wordpool_576.txt	LTP379	ltpFR2	1	16	STONE	1385	n/a	n/a	0	0	0
3133119	START	n/a	LTP379	ltpFR2	1	n/a	n/a	n/a	24	n/a	n/a	n/a	n/a
3134212	DISTRACTOR	n/a	LTP379	ltpFR2	1	16	n/a	n/a	n/a	n/a	0	0	0
3134219	PROB	n/a	LTP379	ltpFR2	1	n/a	n/a	n/a	24	10	3	1	6
3136552	PROB	n/a	LTP379	ltpFR2	1	n/a	n/a	n/a	24	19	8	5	6
3138585	PROB	n/a	LTP379	ltpFR2	1	n/a	n/a	n/a	24	19	9	5	5
3140185	PROB	n/a	LTP379	ltpFR2	1	n/a	n/a	n/a	24	15	4	5	6
3141635	PROB	n/a	LTP379	ltpFR2	1	n/a	n/a	n/a	24	22	9	9	4
3143235	PROB	n/a	LTP379	ltpFR2	1	n/a	n/a	n/a	24	12	5	4	3
3144735	PROB	n/a	LTP379	ltpFR2	1	n/a	n/a	n/a	24	9	5	1	3
3146418	PROB	n/a	LTP379	ltpFR2	1	n/a	n/a	n/a	24	17	7	5	5
3147851	PROB	n/a	LTP379	ltpFR2	1	n/a	n/a	n/a	24	11	7	3	1
3149152	PROB	n/a	LTP379	ltpFR2	1	n/a	n/a	n/a	24	8	3	3	2
3150485	PROB	n/a	LTP379	ltpFR2	1	n/a	n/a	n/a	24	15	4	2	9
3152067	PROB	n/a	LTP379	ltpFR2	1	n/a	n/a	n/a	24	16	5	9	2
3154185	PROB	n/a	LTP379	ltpFR2	1	n/a	n/a	n/a	24	13	6	2	5
3155713	STOP	n/a	LTP379	ltpFR2	1	n/a	n/a	n/a	24	n/a	n/a	n/a	n/a
3158951	REC_START	n/a	LTP379	ltpFR2	1	16	n/a	n/a	n/a	n/a	0	0	0
3161148	REC_WORD	wordpools/wasnorm_wordpool_576.txt	LTP379	ltpFR2	1	16	DAUGHTER	442	n/a	n/a	0	0	0
3162300	REC_WORD	wordpools/wasnorm_wordpool_576.txt	LTP379	ltpFR2	1	16	COCKTAIL	338	n/a	n/a	0	0	0
3163803	REC_WORD	wordpools/wasnorm_wordpool_576.txt	LTP379	ltpFR2	1	16	WOMAN	1620	n/a	n/a	0	0	0
3166320	REC_WORD	wordpools/wasnorm_wordpool_576.txt	LTP379	ltpFR2	1	16	MISTER	901	n/a	n/a	0	0	0
3168743	REC_WORD	wordpools/wasnorm_wordpool_576.txt	LTP379	ltpFR2	1	16	PASSAGE	1019	n/a	n/a	0	0	0
3170328	REC_WORD	wordpools/wasnorm_wordpool_576.txt	LTP379	ltpFR2	1	16	SHIRT	1287	n/a	n/a	0	0	0
3172456	REC_WORD	wordpools/wasnorm_wordpool_576.txt	LTP379	ltpFR2	1	16	PEPPER	1047	n/a	n/a	0	0	0
3174406	REC_WORD	wordpools/wasnorm_wordpool_576.txt	LTP379	ltpFR2	1	16	CAPTIVE	240	n/a	n/a	0	0	0
3176076	REC_WORD	wordpools/wasnorm_wordpool_576.txt	LTP379	ltpFR2	1	16	XEROX	1628	n/a	n/a	0	0	0
3178016	REC_WORD	wordpools/wasnorm_wordpool_576.txt	LTP379	ltpFR2	1	16	HAWK	692	n/a	n/a	0	0	0
3180100	REC_WORD	wordpools/wasnorm_wordpool_576.txt	LTP379	ltpFR2	1	16	SALT	1229	n/a	n/a	0	0	0
3182198	REC_WORD	wordpools/wasnorm_wordpool_576.txt	LTP379	ltpFR2	1	16	POISON	1096	n/a	n/a	0	0	0
3184290	REC_WORD	wordpools/wasnorm_wordpool_576.txt	LTP379	ltpFR2	1	16	BEAST	108	n/a	n/a	0	0	0
3185838	REC_WORD	wordpools/wasnorm_wordpool_576.txt	LTP379	ltpFR2	1	16	STAKE	1368	n/a	n/a	0	0	0
3189752	REC_WORD	wordpools/wasnorm_wordpool_576.txt	LTP379	ltpFR2	1	16	COOKBOOK	373	n/a	n/a	0	0	0
3191758	REC_WORD	wordpools/wasnorm_wordpool_576.txt	LTP379	ltpFR2	1	16	BODY	145	n/a	n/a	0	0	0
3194463	REC_WORD	wordpools/wasnorm_wordpool_576.txt	LTP379	ltpFR2	1	16	SURVEY	1414	n/a	n/a	0	0	0
3196490	REC_WORD	wordpools/wasnorm_wordpool_576.txt	LTP379	ltpFR2	1	16	TURKEY	1520	n/a	n/a	0	0	0
3198142	REC_WORD	wordpools/wasnorm_wordpool_576.txt	LTP379	ltpFR2	1	16	LIZARD	834	n/a	n/a	0	0	0
3199700	REC_WORD	wordpools/wasnorm_wordpool_576.txt	LTP379	ltpFR2	1	16	ROBBER	1197	n/a	n/a	0	0	0
3201591	REC_WORD	wordpools/wasnorm_wordpool_576.txt	LTP379	ltpFR2	1	16	AGENT	10	n/a	n/a	0	0	0
3203352	REC_WORD	wordpools/wasnorm_wordpool_576.txt	LTP379	ltpFR2	1	16	CELLAR	267	n/a	n/a	0	0	0
3205423	REC_WORD	wordpools/wasnorm_wordpool_576.txt	LTP379	ltpFR2	1	16	BASEMENT	94	n/a	n/a	0	0	0
3207201	REC_WORD	wordpools/wasnorm_wordpool_576.txt	LTP379	ltpFR2	1	16	STONE	1385	n/a	n/a	0	0	0
3235484	REST_REWET	n/a	LTP379	ltpFR2	1	16	n/a	n/a	n/a	n/a	0	0	0
3388864	DISTRACTOR	n/a	LTP379	ltpFR2	1	17	n/a	n/a	n/a	n/a	0	0	0
3388864	START	n/a	LTP379	ltpFR2	1	n/a	n/a	n/a	25	n/a	n/a	n/a	n/a
3388880	PROB	n/a	LTP379	ltpFR2	1	n/a	n/a	n/a	25	7	1	1	5
3390381	PROB	n/a	LTP379	ltpFR2	1	n/a	n/a	n/a	25	7	1	4	2
3391947	PROB	n/a	LTP379	ltpFR2	1	n/a	n/a	n/a	25	18	3	9	6
3393481	PROB	n/a	LTP379	ltpFR2	1	n/a	n/a	n/a	25	18	7	3	8
3394780	PROB	n/a	LTP379	ltpFR2	1	n/a	n/a	n/a	25	17	2	9	6
3396464	PROB	n/a	LTP379	ltpFR2	1	n/a	n/a	n/a	25	19	5	8	6
3398013	PROB	n/a	LTP379	ltpFR2	1	n/a	n/a	n/a	25	13	7	5	1
3399698	PROB	n/a	LTP379	ltpFR2	1	n/a	n/a	n/a	25	16	6	8	2
3401648	PROB	n/a	LTP379	ltpFR2	1	n/a	n/a	n/a	25	17	9	7	1
3403481	PROB	n/a	LTP379	ltpFR2	1	n/a	n/a	n/a	25	21	7	8	6
3405181	PROB	n/a	LTP379	ltpFR2	1	n/a	n/a	n/a	25	18	9	7	2
3408080	PROB	n/a	LTP379	ltpFR2	1	n/a	n/a	n/a	25	19	3	7	9
3409481	PROB	n/a	LTP379	ltpFR2	1	n/a	n/a	n/a	25	13	7	3	3
3412864	STOP	n/a	LTP379	ltpFR2	1	n/a	n/a	n/a	25	n/a	n/a	n/a	n/a
3414030	WORD	wordpools/wasnorm_wordpool_576.txt	LTP379	ltpFR2	1	17	SALMON	1227	n/a	n/a	0	0	0
3416631	WORD	wordpools/wasnorm_wordpool_576.txt	LTP379	ltpFR2	1	17	PATROL	1027	n/a	n/a	0	0	0
3419063	WORD	wordpools/wasnorm_wordpool_576.txt	LTP379	ltpFR2	1	17	GAVEL	627	n/a	n/a	0	0	0
3421747	WORD	wordpools/wasnorm_wordpool_576.txt	LTP379	ltpFR2	1	17	TRANSPLANT	1496	n/a	n/a	0	0	0
3424347	WORD	wordpools/wasnorm_wordpool_576.txt	LTP379	ltpFR2	1	17	KEEPER	769	n/a	n/a	0	0	0
3426996	WORD	wordpools/wasnorm_wordpool_576.txt	LTP379	ltpFR2	1	17	SHERIFF	1284	n/a	n/a	0	0	0
3429796	WORD	wordpools/wasnorm_wordpool_576.txt	LTP379	ltpFR2	1	17	BALLOON	75	n/a	n/a	0	0	0
3432414	WORD	wordpools/wasnorm_wordpool_576.txt	LTP379	ltpFR2	1	17	REPORT	1184	n/a	n/a	0	0	0
3435130	WORD	wordpools/wasnorm_wordpool_576.txt	LTP379	ltpFR2	1	17	FRAGRANCE	599	n/a	n/a	0	0	0
3437813	WORD	wordpools/wasnorm_wordpool_576.txt	LTP379	ltpFR2	1	17	ONION	977	n/a	n/a	0	0	0
3440380	WORD	wordpools/wasnorm_wordpool_576.txt	LTP379	ltpFR2	1	17	PLIERS	1089	n/a	n/a	0	0	0
3442929	WORD	wordpools/wasnorm_wordpool_576.txt	LTP379	ltpFR2	1	17	COIN	343	n/a	n/a	0	0	0
3445680	WORD	wordpools/wasnorm_wordpool_576.txt	LTP379	ltpFR2	1	17	SWORD	1423	n/a	n/a	0	0	0
3448447	WORD	wordpools/wasnorm_wordpool_576.txt	LTP379	ltpFR2	1	17	VELVET	1555	n/a	n/a	0	0	0
3450996	WORD	wordpools/wasnorm_wordpool_576.txt	LTP379	ltpFR2	1	17	RADISH	1158	n/a	n/a	0	0	0
3453713	WORD	wordpools/wasnorm_wordpool_576.txt	LTP379	ltpFR2	1	17	COUNTY	389	n/a	n/a	0	0	0
3456413	WORD	wordpools/wasnorm_wordpool_576.txt	LTP379	ltpFR2	1	17	BANKER	84	n/a	n/a	0	0	0
3459130	WORD	wordpools/wasnorm_wordpool_576.txt	LTP379	ltpFR2	1	17	DAISY	435	n/a	n/a	0	0	0
3461829	WORD	wordpools/wasnorm_wordpool_576.txt	LTP379	ltpFR2	1	17	FLOWER	584	n/a	n/a	0	0	0
3464597	WORD	wordpools/wasnorm_wordpool_576.txt	LTP379	ltpFR2	1	17	BINDER	127	n/a	n/a	0	0	0
3467147	WORD	wordpools/wasnorm_wordpool_576.txt	LTP379	ltpFR2	1	17	MISSILE	900	n/a	n/a	0	0	0
3469962	WORD	wordpools/wasnorm_wordpool_576.txt	LTP379	ltpFR2	1	17	BLACKBOARD	133	n/a	n/a	0	0	0
3472530	WORD	wordpools/wasnorm_wordpool_576.txt	LTP379	ltpFR2	1	17	WRENCH	1625	n/a	n/a	0	0	0
3475347	WORD	wordpools/wasnorm_wordpool_576.txt	LTP379	ltpFR2	1	17	POET	1095	n/a	n/a	0	0	0
3476962	START	n/a	LTP379	ltpFR2	1	n/a	n/a	n/a	26	n/a	n/a	n/a	n/a
3478058	DISTRACTOR	n/a	LTP379	ltpFR2	1	17	n/a	n/a	n/a	n/a	0	0	0
3478062	PROB	n/a	LTP379	ltpFR2	1	n/a	n/a	n/a	26	9	4	4	1
3479812	PROB	n/a	LTP379	ltpFR2	1	n/a	n/a	n/a	26	20	7	5	8
3482230	PROB	n/a	LTP379	ltpFR2	1	n/a	n/a	n/a	26	12	1	9	2
3483480	PROB	n/a	LTP379	ltpFR2	1	n/a	n/a	n/a	26	8	5	2	1
3484779	PROB	n/a	LTP379	ltpFR2	1	n/a	n/a	n/a	26	17	8	6	3
3486446	PROB	n/a	LTP379	ltpFR2	1	n/a	n/a	n/a	26	6	1	3	2
3487845	PROB	n/a	LTP379	ltpFR2	1	n/a	n/a	n/a	26	23	9	8	6
3490113	PROB	n/a	LTP379	ltpFR2	1	n/a	n/a	n/a	26	25	8	9	8
3491895	PROB	n/a	LTP379	ltpFR2	1	n/a	n/a	n/a	26	7	3	2	2
3493580	PROB	n/a	LTP379	ltpFR2	1	n/a	n/a	n/a	26	10	3	1	6
3495062	PROB	n/a	LTP379	ltpFR2	1	n/a	n/a	n/a	26	13	2	9	1
3496446	PROB	n/a	LTP379	ltpFR2	1	n/a	n/a	n/a	26	15	4	2	9
3498213	PROB	n/a	LTP379	ltpFR2	1	n/a	n/a	n/a	26	19	8	9	2
3500090	STOP	n/a	LTP379	ltpFR2	1	n/a	n/a	n/a	26	n/a	n/a	n/a	n/a
3502779	REC_START	n/a	LTP379	ltpFR2	1	17	n/a	n/a	n/a	n/a	0	0	0
3506380	REC_WORD	wordpools/wasnorm_wordpool_576.txt	LTP379	ltpFR2	1	17	SALMON	1227	n/a	n/a	0	0	0
3507917	REC_WORD	wordpools/wasnorm_wordpool_576.txt	LTP379	ltpFR2	1	17	PATROL	1027	n/a	n/a	0	0	0
3510002	REC_WORD	wordpools/wasnorm_wordpool_576.txt	LTP379	ltpFR2	1	17	GAVEL	627	n/a	n/a	0	0	0
3511402	REC_WORD	wordpools/wasnorm_wordpool_576.txt	LTP379	ltpFR2	1	17	TRANSPLANT	1496	n/a	n/a	0	0	0
3513289	REC_WORD	wordpools/wasnorm_wordpool_576.txt	LTP379	ltpFR2	1	17	KEEPER	769	n/a	n/a	0	0	0
3515134	REC_WORD	wordpools/wasnorm_wordpool_576.txt	LTP379	ltpFR2	1	17	SHERIFF	1284	n/a	n/a	0	0	0
3517142	REC_WORD	wordpools/wasnorm_wordpool_576.txt	LTP379	ltpFR2	1	17	BALLOON	75	n/a	n/a	0	0	0
3518696	REC_WORD	wordpools/wasnorm_wordpool_576.txt	LTP379	ltpFR2	1	17	REPORT	1184	n/a	n/a	0	0	0
