mstime	trial_type	stim_file	subject	experiment	session	trial	task	item_name	item_num	recog_resp	recog_conf	resp	color_r	color_g	color_b	case	font
0	SESS_START	n/a	LTP338	ltpFR	0	n/a	n/a	n/a	n/a	0	n/a	n/a	n/a	n/a	n/a	n/a	n/a
93308	WORD	wordpools/wasnorm_wordpool_less_exclusions.txt	LTP338	ltpFR	0	1	-1	PLAZA	1088	n/a	n/a	-1	1.0	1.0	1	upper	Verdana.ttf
97289	WORD	wordpools/wasnorm_wordpool_less_exclusions.txt	LTP338	ltpFR	0	1	-1	CATERPILLAR	259	n/a	n/a	-1	1.0	1.0	1	upper	Verdana.ttf
101237	WORD	wordpools/wasnorm_wordpool_less_exclusions.txt	LTP338	ltpFR	0	1	-1	ANTEATER	26	n/a	n/a	-1	1.0	1.0	1	upper	Verdana.ttf
105403	WORD	wordpools/wasnorm_wordpool_less_exclusions.txt	LTP338	ltpFR	0	1	-1	WICK	1607	n/a	n/a	-1	1.0	1.0	1	upper	Verdana.ttf
109568	WORD	wordpools/wasnorm_wordpool_less_exclusions.txt	LTP338	ltpFR	0	1	-1	DEPARTMENT	449	n/a	n/a	-1	1.0	1.0	1	upper	Verdana.ttf
113500	WORD	wordpools/wasnorm_wordpool_less_exclusions.txt	LTP338	ltpFR	0	1	-1	CACTUS	215	n/a	n/a	-1	1.0	1.0	1	upper	Verdana.ttf
117481	WORD	wordpools/wasnorm_wordpool_less_exclusions.txt	LTP338	ltpFR	0	1	-1	BLANKET	135	n/a	n/a	-1	1.0	1.0	1	upper	Verdana.ttf
121479	WORD	wordpools/wasnorm_wordpool_less_exclusions.txt	LTP338	ltpFR	0	1	-1	ATTIRE	57	n/a	n/a	-1	1.0	1.0	1	upper	Verdana.ttf
125677	WORD	wordpools/wasnorm_wordpool_less_exclusions.txt	LTP338	ltpFR	0	1	-1	PLAID	1080	n/a	n/a	-1	1.0	1.0	1	upper	Verdana.ttf
129642	WORD	wordpools/wasnorm_wordpool_less_exclusions.txt	LTP338	ltpFR	0	1	-1	MATCH	878	n/a	n/a	-1	1.0	1.0	1	upper	Verdana.ttf
133490	WORD	wordpools/wasnorm_wordpool_less_exclusions.txt	LTP338	ltpFR	0	1	-1	BEAN	105	n/a	n/a	-1	1.0	1.0	1	upper	Verdana.ttf
137371	WORD	wordpools/wasnorm_wordpool_less_exclusions.txt	LTP338	ltpFR	0	1	-1	WATER	1594	n/a	n/a	-1	1.0	1.0	1	upper	Verdana.ttf
141403	WORD	wordpools/wasnorm_wordpool_less_exclusions.txt	LTP338	ltpFR	0	1	-1	BAY	102	n/a	n/a	-1	1.0	1.0	1	upper	Verdana.ttf
145568	WORD	wordpools/wasnorm_wordpool_less_exclusions.txt	LTP338	ltpFR	0	1	-1	BARTENDER	92	n/a	n/a	-1	1.0	1.0	1	upper	Verdana.ttf
149533	WORD	wordpools/wasnorm_wordpool_less_exclusions.txt	LTP338	ltpFR	0	1	-1	SAGE	1222	n/a	n/a	-1	1.0	1.0	1	upper	Verdana.ttf
153698	WORD	wordpools/wasnorm_wordpool_less_exclusions.txt	LTP338	ltpFR	0	1	-1	KNAPSACK	783	n/a	n/a	-1	1.0	1.0	1	upper	Verdana.ttf
159679	REC_START	n/a	LTP338	ltpFR	0	1	n/a	n/a	n/a	n/a	n/a	n/a	n/a	n/a	n/a	n/a	n/a
162124	REC_WORD	wordpools/wasnorm_wordpool_less_exclusions.txt	LTP338	ltpFR	0	1	-1	KNAPSACK	783	n/a	n/a	-1	n/a	n/a	n/a	n/a	n/a
163975	REC_WORD	wordpools/wasnorm_wordpool_less_exclusions.txt	LTP338	ltpFR	0	1	-1	SAGE	1222	n/a	n/a	-1	n/a	n/a	n/a	n/a	n/a
165745	REC_WORD	wordpools/wasnorm_wordpool_less_exclusions.txt	LTP338	ltpFR	0	1	-1	BEAN	105	n/a	n/a	-1	n/a	n/a	n/a	n/a	n/a
167283	REC_WORD	wordpools/wasnorm_wordpool_less_exclusions.txt	LTP338	ltpFR	0	1	-1	WATER	1594	n/a	n/a	-1	n/a	n/a	n/a	n/a	n/a
168869	REC_WORD	wordpools/wasnorm_wordpool_less_exclusions.txt	LTP338	ltpFR	0	1	-1	PLAID	1080	n/a	n/a	-1	n/a	n/a	n/a	n/a	n/a
170749	REC_WORD	wordpools/wasnorm_wordpool_less_exclusions.txt	LTP338	ltpFR	0	1	-1	CATERPILLAR	259	n/a	n/a	-1	n/a	n/a	n/a	n/a	n/a
172604	REC_WORD	wordpools/wasnorm_wordpool_less_exclusions.txt	LTP338	ltpFR	0	1	-1	ANTEATER	26	n/a	n/a	-1	n/a	n/a	n/a	n/a	n/a
174399	REC_WORD	wordpools/wasnorm_wordpool_less_exclusions.txt	LTP338	ltpFR	0	1	-1	WICK	1607	n/a	n/a	-1	n/a	n/a	n/a	n/a	n/a
175892	REC_WORD	wordpools/wasnorm_wordpool_less_exclusions.txt	LTP338	ltpFR	0	1	-1	DEPARTMENT	449	n/a	n/a	-1	n/a	n/a	n/a	n/a	n/a
177668	REC_WORD	wordpools/wasnorm_wordpool_less_exclusions.txt	LTP338	ltpFR	0	1	-1	PLAID	1080	n/a	n/a	-1	n/a	n/a	n/a	n/a	n/a
183649	REC_WORD	wordpools/wasnorm_wordpool_less_exclusions.txt	LTP338	ltpFR	0	1	-1	BAY	102	n/a	n/a	-1	n/a	n/a	n/a	n/a	n/a
241074	WORD	wordpools/wasnorm_wordpool_less_exclusions.txt	LTP338	ltpFR	0	2	-1	LADY	794	n/a	n/a	-1	1.0	1.0	1	upper	Verdana.ttf
245022	WORD	wordpools/wasnorm_wordpool_less_exclusions.txt	LTP338	ltpFR	0	2	-1	WILDERNESS	1610	n/a	n/a	-1	1.0	1.0	1	upper	Verdana.ttf
248987	WORD	wordpools/wasnorm_wordpool_less_exclusions.txt	LTP338	ltpFR	0	2	-1	BOTTLE	153	n/a	n/a	-1	1.0	1.0	1	upper	Verdana.ttf
252985	WORD	wordpools/wasnorm_wordpool_less_exclusions.txt	LTP338	ltpFR	0	2	-1	JUG	762	n/a	n/a	-1	1.0	1.0	1	upper	Verdana.ttf
257083	WORD	wordpools/wasnorm_wordpool_less_exclusions.txt	LTP338	ltpFR	0	2	-1	HOUSE	725	n/a	n/a	-1	1.0	1.0	1	upper	Verdana.ttf
261015	WORD	wordpools/wasnorm_wordpool_less_exclusions.txt	LTP338	ltpFR	0	2	-1	CHIME	300	n/a	n/a	-1	1.0	1.0	1	upper	Verdana.ttf
265096	WORD	wordpools/wasnorm_wordpool_less_exclusions.txt	LTP338	ltpFR	0	2	-1	DESSERT	453	n/a	n/a	-1	1.0	1.0	1	upper	Verdana.ttf
269045	WORD	wordpools/wasnorm_wordpool_less_exclusions.txt	LTP338	ltpFR	0	2	-1	GENTLEMAN	631	n/a	n/a	-1	1.0	1.0	1	upper	Verdana.ttf
272893	WORD	wordpools/wasnorm_wordpool_less_exclusions.txt	LTP338	ltpFR	0	2	-1	PICKLE	1059	n/a	n/a	-1	1.0	1.0	1	upper	Verdana.ttf
277074	WORD	wordpools/wasnorm_wordpool_less_exclusions.txt	LTP338	ltpFR	0	2	-1	CASTLE	256	n/a	n/a	-1	1.0	1.0	1	upper	Verdana.ttf
281272	WORD	wordpools/wasnorm_wordpool_less_exclusions.txt	LTP338	ltpFR	0	2	-1	CRUMB	416	n/a	n/a	-1	1.0	1.0	1	upper	Verdana.ttf
285237	WORD	wordpools/wasnorm_wordpool_less_exclusions.txt	LTP338	ltpFR	0	2	-1	GROCERIES	663	n/a	n/a	-1	1.0	1.0	1	upper	Verdana.ttf
289352	WORD	wordpools/wasnorm_wordpool_less_exclusions.txt	LTP338	ltpFR	0	2	-1	CAFETERIA	217	n/a	n/a	-1	1.0	1.0	1	upper	Verdana.ttf
293217	WORD	wordpools/wasnorm_wordpool_less_exclusions.txt	LTP338	ltpFR	0	2	-1	QUILL	1150	n/a	n/a	-1	1.0	1.0	1	upper	Verdana.ttf
297382	WORD	wordpools/wasnorm_wordpool_less_exclusions.txt	LTP338	ltpFR	0	2	-1	DOCUMENT	479	n/a	n/a	-1	1.0	1.0	1	upper	Verdana.ttf
301313	WORD	wordpools/wasnorm_wordpool_less_exclusions.txt	LTP338	ltpFR	0	2	-1	BEAKER	104	n/a	n/a	-1	1.0	1.0	1	upper	Verdana.ttf
307344	REC_START	n/a	LTP338	ltpFR	0	2	n/a	n/a	n/a	n/a	n/a	n/a	n/a	n/a	n/a	n/a	n/a
309484	REC_WORD	wordpools/wasnorm_wordpool_less_exclusions.txt	LTP338	ltpFR	0	2	-1	BEAKER	104	n/a	n/a	-1	n/a	n/a	n/a	n/a	n/a
311235	REC_WORD	wordpools/wasnorm_wordpool_less_exclusions.txt	LTP338	ltpFR	0	2	-1	DOCUMENT	479	n/a	n/a	-1	n/a	n/a	n/a	n/a	n/a
313395	REC_WORD	wordpools/wasnorm_wordpool_less_exclusions.txt	LTP338	ltpFR	0	2	-1	WILDERNESS	1610	n/a	n/a	-1	n/a	n/a	n/a	n/a	n/a
315932	REC_WORD	wordpools/wasnorm_wordpool_less_exclusions.txt	LTP338	ltpFR	0	2	-1	JUG	762	n/a	n/a	-1	n/a	n/a	n/a	n/a	n/a
318096	REC_WORD	wordpools/wasnorm_wordpool_less_exclusions.txt	LTP338	ltpFR	0	2	-1	BOTTLE	153	n/a	n/a	-1	n/a	n/a	n/a	n/a	n/a
320601	REC_WORD	wordpools/wasnorm_wordpool_less_exclusions.txt	LTP338	ltpFR	0	2	-1	CASTLE	256	n/a	n/a	-1	n/a	n/a	n/a	n/a	n/a
352229	REC_WORD	wordpools/wasnorm_wordpool_less_exclusions.txt	LTP338	ltpFR	0	2	-1	PICKLE	1059	n/a	n/a	-1	n/a	n/a	n/a	n/a	n/a
389823	WORD	wordpools/wasnorm_wordpool_less_exclusions.txt	LTP338	ltpFR	0	3	-1	BANK	83	n/a	n/a	-1	1.0	1.0	1	upper	Verdana.ttf
393706	WORD	wordpools/wasnorm_wordpool_less_exclusions.txt	LTP338	ltpFR	0	3	-1	BARREL	91	n/a	n/a	-1	1.0	1.0	1	upper	Verdana.ttf
397836	WORD	wordpools/wasnorm_wordpool_less_exclusions.txt	LTP338	ltpFR	0	3	-1	SHELL	1281	n/a	n/a	-1	1.0	1.0	1	upper	Verdana.ttf
402018	WORD	wordpools/wasnorm_wordpool_less_exclusions.txt	LTP338	ltpFR	0	3	-1	BOUILLON	154	n/a	n/a	-1	1.0	1.0	1	upper	Verdana.ttf
406099	WORD	wordpools/wasnorm_wordpool_less_exclusions.txt	LTP338	ltpFR	0	3	-1	BUBBLE	183	n/a	n/a	-1	1.0	1.0	1	upper	Verdana.ttf
410281	WORD	wordpools/wasnorm_wordpool_less_exclusions.txt	LTP338	ltpFR	0	3	-1	DIME	466	n/a	n/a	-1	1.0	1.0	1	upper	Verdana.ttf
414496	WORD	wordpools/wasnorm_wordpool_less_exclusions.txt	LTP338	ltpFR	0	3	-1	BABY	64	n/a	n/a	-1	1.0	1.0	1	upper	Verdana.ttf
418628	WORD	wordpools/wasnorm_wordpool_less_exclusions.txt	LTP338	ltpFR	0	3	-1	WAX	1597	n/a	n/a	-1	1.0	1.0	1	upper	Verdana.ttf
422643	WORD	wordpools/wasnorm_wordpool_less_exclusions.txt	LTP338	ltpFR	0	3	-1	PAIL	1002	n/a	n/a	-1	1.0	1.0	1	upper	Verdana.ttf
426524	WORD	wordpools/wasnorm_wordpool_less_exclusions.txt	LTP338	ltpFR	0	3	-1	ASTEROID	50	n/a	n/a	-1	1.0	1.0	1	upper	Verdana.ttf
430523	WORD	wordpools/wasnorm_wordpool_less_exclusions.txt	LTP338	ltpFR	0	3	-1	ACTOR	5	n/a	n/a	-1	1.0	1.0	1	upper	Verdana.ttf
434454	WORD	wordpools/wasnorm_wordpool_less_exclusions.txt	LTP338	ltpFR	0	3	-1	POWDER	1117	n/a	n/a	-1	1.0	1.0	1	upper	Verdana.ttf
438368	WORD	wordpools/wasnorm_wordpool_less_exclusions.txt	LTP338	ltpFR	0	3	-1	MARKET	871	n/a	n/a	-1	1.0	1.0	1	upper	Verdana.ttf
442233	WORD	wordpools/wasnorm_wordpool_less_exclusions.txt	LTP338	ltpFR	0	3	-1	DINNER	468	n/a	n/a	-1	1.0	1.0	1	upper	Verdana.ttf
446364	WORD	wordpools/wasnorm_wordpool_less_exclusions.txt	LTP338	ltpFR	0	3	-1	PEANUT	1032	n/a	n/a	-1	1.0	1.0	1	upper	Verdana.ttf
450379	WORD	wordpools/wasnorm_wordpool_less_exclusions.txt	LTP338	ltpFR	0	3	-1	ALMOND	18	n/a	n/a	-1	1.0	1.0	1	upper	Verdana.ttf
456110	REC_START	n/a	LTP338	ltpFR	0	3	n/a	n/a	n/a	n/a	n/a	n/a	n/a	n/a	n/a	n/a	n/a
458279	REC_WORD	wordpools/wasnorm_wordpool_less_exclusions.txt	LTP338	ltpFR	0	3	-1	PEANUT	1032	n/a	n/a	-1	n/a	n/a	n/a	n/a	n/a
459701	REC_WORD	wordpools/wasnorm_wordpool_less_exclusions.txt	LTP338	ltpFR	0	3	-1	ALMOND	18	n/a	n/a	-1	n/a	n/a	n/a	n/a	n/a
461087	REC_WORD	wordpools/wasnorm_wordpool_less_exclusions.txt	LTP338	ltpFR	0	3	-1	BANK	83	n/a	n/a	-1	n/a	n/a	n/a	n/a	n/a
462344	REC_WORD	wordpools/wasnorm_wordpool_less_exclusions.txt	LTP338	ltpFR	0	3	-1	BARREL	91	n/a	n/a	-1	n/a	n/a	n/a	n/a	n/a
463874	REC_WORD	wordpools/wasnorm_wordpool_less_exclusions.txt	LTP338	ltpFR	0	3	-1	BOUILLON	154	n/a	n/a	-1	n/a	n/a	n/a	n/a	n/a
465608	REC_WORD	wordpools/wasnorm_wordpool_less_exclusions.txt	LTP338	ltpFR	0	3	-1	MARKET	871	n/a	n/a	-1	n/a	n/a	n/a	n/a	n/a
471784	REC_WORD	wordpools/wasnorm_wordpool_less_exclusions.txt	LTP338	ltpFR	0	3	-1	SHELL	1281	n/a	n/a	-1	n/a	n/a	n/a	n/a	n/a
536857	WORD	wordpools/wasnorm_wordpool_less_exclusions.txt	LTP338	ltpFR	0	4	-1	TABLET	1427	n/a	n/a	-1	1.0	1.0	1	upper	Verdana.ttf
540938	WORD	wordpools/wasnorm_wordpool_less_exclusions.txt	LTP338	ltpFR	0	4	-1	MUSTARD	935	n/a	n/a	-1	1.0	1.0	1	upper	Verdana.ttf
544836	WORD	wordpools/wasnorm_wordpool_less_exclusions.txt	LTP338	ltpFR	0	4	-1	BLACKBOARD	133	n/a	n/a	-1	1.0	1.0	1	upper	Verdana.ttf
548884	WORD	wordpools/wasnorm_wordpool_less_exclusions.txt	LTP338	ltpFR	0	4	-1	BIOLOGIST	128	n/a	n/a	-1	1.0	1.0	1	upper	Verdana.ttf
553066	WORD	wordpools/wasnorm_wordpool_less_exclusions.txt	LTP338	ltpFR	0	4	-1	SKATE	1313	n/a	n/a	-1	1.0	1.0	1	upper	Verdana.ttf
556931	WORD	wordpools/wasnorm_wordpool_less_exclusions.txt	LTP338	ltpFR	0	4	-1	CHALK	276	n/a	n/a	-1	1.0	1.0	1	upper	Verdana.ttf
561096	WORD	wordpools/wasnorm_wordpool_less_exclusions.txt	LTP338	ltpFR	0	4	-1	PAPER	1011	n/a	n/a	-1	1.0	1.0	1	upper	Verdana.ttf
565244	WORD	wordpools/wasnorm_wordpool_less_exclusions.txt	LTP338	ltpFR	0	4	-1	UNDERWEAR	1537	n/a	n/a	-1	1.0	1.0	1	upper	Verdana.ttf
569192	WORD	wordpools/wasnorm_wordpool_less_exclusions.txt	LTP338	ltpFR	0	4	-1	DRESSER	496	n/a	n/a	-1	1.0	1.0	1	upper	Verdana.ttf
573240	WORD	wordpools/wasnorm_wordpool_less_exclusions.txt	LTP338	ltpFR	0	4	-1	MAJOR	859	n/a	n/a	-1	1.0	1.0	1	upper	Verdana.ttf
577388	WORD	wordpools/wasnorm_wordpool_less_exclusions.txt	LTP338	ltpFR	0	4	-1	PRODUCER	1129	n/a	n/a	-1	1.0	1.0	1	upper	Verdana.ttf
581604	WORD	wordpools/wasnorm_wordpool_less_exclusions.txt	LTP338	ltpFR	0	4	-1	HANDKERCHIEF	686	n/a	n/a	-1	1.0	1.0	1	upper	Verdana.ttf
585469	WORD	wordpools/wasnorm_wordpool_less_exclusions.txt	LTP338	ltpFR	0	4	-1	PLANT	1083	n/a	n/a	-1	1.0	1.0	1	upper	Verdana.ttf
589401	WORD	wordpools/wasnorm_wordpool_less_exclusions.txt	LTP338	ltpFR	0	4	-1	TAXI	1438	n/a	n/a	-1	1.0	1.0	1	upper	Verdana.ttf
593331	WORD	wordpools/wasnorm_wordpool_less_exclusions.txt	LTP338	ltpFR	0	4	-1	ANTENNA	28	n/a	n/a	-1	1.0	1.0	1	upper	Verdana.ttf
597179	WORD	wordpools/wasnorm_wordpool_less_exclusions.txt	LTP338	ltpFR	0	4	-1	BOARD	143	n/a	n/a	-1	1.0	1.0	1	upper	Verdana.ttf
602777	REC_START	n/a	LTP338	ltpFR	0	4	n/a	n/a	n/a	n/a	n/a	n/a	n/a	n/a	n/a	n/a	n/a
605019	REC_WORD	wordpools/wasnorm_wordpool_less_exclusions.txt	LTP338	ltpFR	0	4	-1	BOARD	143	n/a	n/a	-1	n/a	n/a	n/a	n/a	n/a
606287	REC_WORD	wordpools/wasnorm_wordpool_less_exclusions.txt	LTP338	ltpFR	0	4	-1	ANTENNA	28	n/a	n/a	-1	n/a	n/a	n/a	n/a	n/a
607944	REC_WORD	wordpools/wasnorm_wordpool_less_exclusions.txt	LTP338	ltpFR	0	4	-1	TAXI	1438	n/a	n/a	-1	n/a	n/a	n/a	n/a	n/a
609790	REC_WORD	wordpools/wasnorm_wordpool_less_exclusions.txt	LTP338	ltpFR	0	4	-1	MAJOR	859	n/a	n/a	-1	n/a	n/a	n/a	n/a	n/a
611861	REC_WORD	wordpools/wasnorm_wordpool_less_exclusions.txt	LTP338	ltpFR	0	4	-1	BIOLOGIST	128	n/a	n/a	-1	n/a	n/a	n/a	n/a	n/a
612861	REC_WORD_VV	wordpools/wasnorm_wordpool_less_exclusions.txt	LTP338	ltpFR	0	4	n/a	<>	-1	n/a	n/a	n/a	n/a	n/a	n/a	n/a	n/a
614063	REC_WORD	wordpools/wasnorm_wordpool_less_exclusions.txt	LTP338	ltpFR	0	4	-1	TABLET	1427	n/a	n/a	-1	n/a	n/a	n/a	n/a	n/a
616172	REC_WORD	wordpools/wasnorm_wordpool_less_exclusions.txt	LTP338	ltpFR	0	4	-1	MUSTARD	935	n/a	n/a	-1	n/a	n/a	n/a	n/a	n/a
617172	REC_WORD_VV	wordpools/wasnorm_wordpool_less_exclusions.txt	LTP338	ltpFR	0	4	n/a	<>	-1	n/a	n/a	n/a	n/a	n/a	n/a	n/a	n/a
619144	REC_WORD	wordpools/wasnorm_wordpool_less_exclusions.txt	LTP338	ltpFR	0	4	-1	UNDERWEAR	1537	n/a	n/a	-1	n/a	n/a	n/a	n/a	n/a
910572	WORD	wordpools/wasnorm_wordpool_less_exclusions.txt	LTP338	ltpFR	0	5	0	CENT	270	n/a	n/a	0	0.422607421875	0.5869140625	0	upper	amplitud.ttf
914670	WORD	wordpools/wasnorm_wordpool_less_exclusions.txt	LTP338	ltpFR	0	5	0	OATMEAL	967	n/a	n/a	0	0.422607421875	0.5869140625	0	upper	amplitud.ttf
918685	WORD	wordpools/wasnorm_wordpool_less_exclusions.txt	LTP338	ltpFR	0	5	0	SAUCER	1237	n/a	n/a	1	0.422607421875	0.5869140625	0	upper	amplitud.ttf
922832	WORD	wordpools/wasnorm_wordpool_less_exclusions.txt	LTP338	ltpFR	0	5	0	WAND	1586	n/a	n/a	0	0.422607421875	0.5869140625	0	upper	amplitud.ttf
926763	WORD	wordpools/wasnorm_wordpool_less_exclusions.txt	LTP338	ltpFR	0	5	0	COMPANION	357	n/a	n/a	1	0.422607421875	0.5869140625	0	upper	amplitud.ttf
930978	WORD	wordpools/wasnorm_wordpool_less_exclusions.txt	LTP338	ltpFR	0	5	0	EYE	545	n/a	n/a	0	0.422607421875	0.5869140625	0	upper	amplitud.ttf
935193	WORD	wordpools/wasnorm_wordpool_less_exclusions.txt	LTP338	ltpFR	0	5	0	EYELASH	546	n/a	n/a	0	0.422607421875	0.5869140625	0	upper	amplitud.ttf
939324	WORD	wordpools/wasnorm_wordpool_less_exclusions.txt	LTP338	ltpFR	0	5	0	HEDGE	699	n/a	n/a	1	0.422607421875	0.5869140625	0	upper	amplitud.ttf
943189	WORD	wordpools/wasnorm_wordpool_less_exclusions.txt	LTP338	ltpFR	0	5	0	FLOOR	581	n/a	n/a	1	0.422607421875	0.5869140625	0	upper	amplitud.ttf
947187	WORD	wordpools/wasnorm_wordpool_less_exclusions.txt	LTP338	ltpFR	0	5	0	SHINGLE	1285	n/a	n/a	0	0.422607421875	0.5869140625	0	upper	amplitud.ttf
951069	WORD	wordpools/wasnorm_wordpool_less_exclusions.txt	LTP338	ltpFR	0	5	0	DOLLAR	482	n/a	n/a	0	0.422607421875	0.5869140625	0	upper	amplitud.ttf
954934	WORD	wordpools/wasnorm_wordpool_less_exclusions.txt	LTP338	ltpFR	0	5	0	CUPBOARD	425	n/a	n/a	1	0.422607421875	0.5869140625	0	upper	amplitud.ttf
958932	WORD	wordpools/wasnorm_wordpool_less_exclusions.txt	LTP338	ltpFR	0	5	0	DESK	452	n/a	n/a	1	0.422607421875	0.5869140625	0	upper	amplitud.ttf
962997	WORD	wordpools/wasnorm_wordpool_less_exclusions.txt	LTP338	ltpFR	0	5	0	STEW	1380	n/a	n/a	1	0.422607421875	0.5869140625	0	upper	amplitud.ttf
967228	WORD	wordpools/wasnorm_wordpool_less_exclusions.txt	LTP338	ltpFR	0	5	0	WHEAT	1602	n/a	n/a	0	0.422607421875	0.5869140625	0	upper	amplitud.ttf
971293	WORD	wordpools/wasnorm_wordpool_less_exclusions.txt	LTP338	ltpFR	0	5	0	TUNA	1518	n/a	n/a	0	0.422607421875	0.5869140625	0	upper	amplitud.ttf
977191	REC_START	n/a	LTP338	ltpFR	0	5	n/a	n/a	n/a	n/a	n/a	n/a	n/a	n/a	n/a	n/a	n/a
981951	REC_WORD	wordpools/wasnorm_wordpool_less_exclusions.txt	LTP338	ltpFR	0	5	0	TUNA	1518	n/a	n/a	0	n/a	n/a	n/a	n/a	n/a
983666	REC_WORD	wordpools/wasnorm_wordpool_less_exclusions.txt	LTP338	ltpFR	0	5	0	WHEAT	1602	n/a	n/a	0	n/a	n/a	n/a	n/a	n/a
985570	REC_WORD	wordpools/wasnorm_wordpool_less_exclusions.txt	LTP338	ltpFR	0	5	0	EYE	545	n/a	n/a	0	n/a	n/a	n/a	n/a	n/a
987970	REC_WORD	wordpools/wasnorm_wordpool_less_exclusions.txt	LTP338	ltpFR	0	5	0	EYELASH	546	n/a	n/a	0	n/a	n/a	n/a	n/a	n/a
993984	REC_WORD	wordpools/wasnorm_wordpool_less_exclusions.txt	LTP338	ltpFR	0	5	0	OATMEAL	967	n/a	n/a	0	n/a	n/a	n/a	n/a	n/a
995624	REC_WORD	wordpools/wasnorm_wordpool_less_exclusions.txt	LTP338	ltpFR	0	5	0	STEW	1380	n/a	n/a	1	n/a	n/a	n/a	n/a	n/a
1004928	REC_WORD	wordpools/wasnorm_wordpool_less_exclusions.txt	LTP338	ltpFR	0	5	0	FLOOR	581	n/a	n/a	1	n/a	n/a	n/a	n/a	n/a
1007816	REC_WORD	wordpools/wasnorm_wordpool_less_exclusions.txt	LTP338	ltpFR	0	5	0	CUPBOARD	425	n/a	n/a	1	n/a	n/a	n/a	n/a	n/a
1058588	WORD	wordpools/wasnorm_wordpool_less_exclusions.txt	LTP338	ltpFR	0	6	0	BRUNETTE	181	n/a	n/a	1	0.422607421875	0.5869140625	0	upper	amplitud.ttf
1062785	WORD	wordpools/wasnorm_wordpool_less_exclusions.txt	LTP338	ltpFR	0	6	0	BANDANNA	80	n/a	n/a	0	0.422607421875	0.5869140625	0	upper	amplitud.ttf
1066734	WORD	wordpools/wasnorm_wordpool_less_exclusions.txt	LTP338	ltpFR	0	6	0	BEAVER	109	n/a	n/a	1	0.422607421875	0.5869140625	0	upper	amplitud.ttf
1070798	WORD	wordpools/wasnorm_wordpool_less_exclusions.txt	LTP338	ltpFR	0	6	0	ATTIC	56	n/a	n/a	1	0.422607421875	0.5869140625	0	upper	amplitud.ttf
1074763	WORD	wordpools/wasnorm_wordpool_less_exclusions.txt	LTP338	ltpFR	0	6	0	PATIO	1025	n/a	n/a	1	0.422607421875	0.5869140625	0	upper	amplitud.ttf
1078729	WORD	wordpools/wasnorm_wordpool_less_exclusions.txt	LTP338	ltpFR	0	6	0	WRENCH	1625	n/a	n/a	0	0.422607421875	0.5869140625	0	upper	amplitud.ttf
1082560	WORD	wordpools/wasnorm_wordpool_less_exclusions.txt	LTP338	ltpFR	0	6	0	CHAMBER	277	n/a	n/a	1	0.422607421875	0.5869140625	0	upper	amplitud.ttf
1086592	WORD	wordpools/wasnorm_wordpool_less_exclusions.txt	LTP338	ltpFR	0	6	0	NEST	945	n/a	n/a	0	0.422607421875	0.5869140625	0	upper	amplitud.ttf
1090473	WORD	wordpools/wasnorm_wordpool_less_exclusions.txt	LTP338	ltpFR	0	6	0	WINGS	1614	n/a	n/a	n/a	0.422607421875	0.5869140625	0	upper	amplitud.ttf
1093505	SLOW_MSG	n/a	LTP338	ltpFR	0	6	n/a	n/a	n/a	n/a	n/a	n/a	n/a	n/a	n/a	n/a	n/a
1096153	WORD	wordpools/wasnorm_wordpool_less_exclusions.txt	LTP338	ltpFR	0	6	0	CASHIER	254	n/a	n/a	1	0.422607421875	0.5869140625	0	upper	amplitud.ttf
1100018	WORD	wordpools/wasnorm_wordpool_less_exclusions.txt	LTP338	ltpFR	0	6	0	BIKE	125	n/a	n/a	1	0.422607421875	0.5869140625	0	upper	amplitud.ttf
1103883	WORD	wordpools/wasnorm_wordpool_less_exclusions.txt	LTP338	ltpFR	0	6	0	PRAIRIE	1118	n/a	n/a	1	0.422607421875	0.5869140625	0	upper	amplitud.ttf
1108031	WORD	wordpools/wasnorm_wordpool_less_exclusions.txt	LTP338	ltpFR	0	6	0	AUTHOR	61	n/a	n/a	1	0.422607421875	0.5869140625	0	upper	amplitud.ttf
1112246	WORD	wordpools/wasnorm_wordpool_less_exclusions.txt	LTP338	ltpFR	0	6	0	SUSPECT	1415	n/a	n/a	1	0.422607421875	0.5869140625	0	upper	amplitud.ttf
1116094	WORD	wordpools/wasnorm_wordpool_less_exclusions.txt	LTP338	ltpFR	0	6	0	TOOTHBRUSH	1482	n/a	n/a	0	0.422607421875	0.5869140625	0	upper	amplitud.ttf
1119992	WORD	wordpools/wasnorm_wordpool_less_exclusions.txt	LTP338	ltpFR	0	6	0	SHELF	1280	n/a	n/a	1	0.422607421875	0.5869140625	0	upper	amplitud.ttf
1125857	REC_START	n/a	LTP338	ltpFR	0	6	n/a	n/a	n/a	n/a	n/a	n/a	n/a	n/a	n/a	n/a	n/a
1129384	REC_WORD	wordpools/wasnorm_wordpool_less_exclusions.txt	LTP338	ltpFR	0	6	0	AUTHOR	61	n/a	n/a	1	n/a	n/a	n/a	n/a	n/a
1131064	REC_WORD	wordpools/wasnorm_wordpool_less_exclusions.txt	LTP338	ltpFR	0	6	0	SHELF	1280	n/a	n/a	1	n/a	n/a	n/a	n/a	n/a
1133299	REC_WORD	wordpools/wasnorm_wordpool_less_exclusions.txt	LTP338	ltpFR	0	6	0	TOOTHBRUSH	1482	n/a	n/a	0	n/a	n/a	n/a	n/a	n/a
1135670	REC_WORD	wordpools/wasnorm_wordpool_less_exclusions.txt	LTP338	ltpFR	0	6	0	ATTIC	56	n/a	n/a	1	n/a	n/a	n/a	n/a	n/a
1137815	REC_WORD	wordpools/wasnorm_wordpool_less_exclusions.txt	LTP338	ltpFR	0	6	0	NEST	945	n/a	n/a	0	n/a	n/a	n/a	n/a	n/a
1139956	REC_WORD	wordpools/wasnorm_wordpool_less_exclusions.txt	LTP338	ltpFR	0	6	0	WINGS	1614	n/a	n/a	n/a	n/a	n/a	n/a	n/a	n/a
1205903	WORD	wordpools/wasnorm_wordpool_less_exclusions.txt	LTP338	ltpFR	0	7	0	NIGHTGOWN	953	n/a	n/a	1	0.422607421875	0.5869140625	0	upper	amplitud.ttf
1210101	WORD	wordpools/wasnorm_wordpool_less_exclusions.txt	LTP338	ltpFR	0	7	0	OUTFIT	988	n/a	n/a	1	0.422607421875	0.5869140625	0	upper	amplitud.ttf
1214166	WORD	wordpools/wasnorm_wordpool_less_exclusions.txt	LTP338	ltpFR	0	7	0	HAMPER	682	n/a	n/a	1	0.422607421875	0.5869140625	0	upper	amplitud.ttf
1218248	WORD	wordpools/wasnorm_wordpool_less_exclusions.txt	LTP338	ltpFR	0	7	0	OZONE	996	n/a	n/a	1	0.422607421875	0.5869140625	0	upper	amplitud.ttf
1222329	WORD	wordpools/wasnorm_wordpool_less_exclusions.txt	LTP338	ltpFR	0	7	0	TIDE	1465	n/a	n/a	1	0.422607421875	0.5869140625	0	upper	amplitud.ttf
1226327	WORD	wordpools/wasnorm_wordpool_less_exclusions.txt	LTP338	ltpFR	0	7	0	POLYESTER	1100	n/a	n/a	1	0.422607421875	0.5869140625	0	upper	amplitud.ttf
1230209	WORD	wordpools/wasnorm_wordpool_less_exclusions.txt	LTP338	ltpFR	0	7	0	RAISIN	1163	n/a	n/a	0	0.422607421875	0.5869140625	0	upper	amplitud.ttf
1234291	WORD	wordpools/wasnorm_wordpool_less_exclusions.txt	LTP338	ltpFR	0	7	0	BUTTER	205	n/a	n/a	0	0.422607421875	0.5869140625	0	upper	amplitud.ttf
1238272	WORD	wordpools/wasnorm_wordpool_less_exclusions.txt	LTP338	ltpFR	0	7	0	VALVE	1546	n/a	n/a	0	0.422607421875	0.5869140625	0	upper	amplitud.ttf
1242488	WORD	wordpools/wasnorm_wordpool_less_exclusions.txt	LTP338	ltpFR	0	7	0	MITTEN	902	n/a	n/a	0	0.422607421875	0.5869140625	0	upper	amplitud.ttf
1246486	WORD	wordpools/wasnorm_wordpool_less_exclusions.txt	LTP338	ltpFR	0	7	0	LAKE	796	n/a	n/a	1	0.422607421875	0.5869140625	0	upper	amplitud.ttf
1250684	WORD	wordpools/wasnorm_wordpool_less_exclusions.txt	LTP338	ltpFR	0	7	0	HAT	690	n/a	n/a	0	0.422607421875	0.5869140625	0	upper	amplitud.ttf
1254549	WORD	wordpools/wasnorm_wordpool_less_exclusions.txt	LTP338	ltpFR	0	7	0	KIWI	781	n/a	n/a	0	0.422607421875	0.5869140625	0	upper	amplitud.ttf
1258431	WORD	wordpools/wasnorm_wordpool_less_exclusions.txt	LTP338	ltpFR	0	7	0	GRAPE	654	n/a	n/a	0	0.422607421875	0.5869140625	0	upper	amplitud.ttf
1262479	WORD	wordpools/wasnorm_wordpool_less_exclusions.txt	LTP338	ltpFR	0	7	0	PUB	1135	n/a	n/a	1	0.422607421875	0.5869140625	0	upper	amplitud.ttf
1266343	WORD	wordpools/wasnorm_wordpool_less_exclusions.txt	LTP338	ltpFR	0	7	0	BALLOON	75	n/a	n/a	0	0.422607421875	0.5869140625	0	upper	amplitud.ttf
1272190	REC_START	n/a	LTP338	ltpFR	0	7	n/a	n/a	n/a	n/a	n/a	n/a	n/a	n/a	n/a	n/a	n/a
1274897	REC_WORD	wordpools/wasnorm_wordpool_less_exclusions.txt	LTP338	ltpFR	0	7	0	BALLOON	75	n/a	n/a	0	n/a	n/a	n/a	n/a	n/a
1276541	REC_WORD	wordpools/wasnorm_wordpool_less_exclusions.txt	LTP338	ltpFR	0	7	0	PUB	1135	n/a	n/a	1	n/a	n/a	n/a	n/a	n/a
1278580	REC_WORD	wordpools/wasnorm_wordpool_less_exclusions.txt	LTP338	ltpFR	0	7	0	TIDE	1465	n/a	n/a	1	n/a	n/a	n/a	n/a	n/a
1281382	REC_WORD	wordpools/wasnorm_wordpool_less_exclusions.txt	LTP338	ltpFR	0	7	0	GRAPE	654	n/a	n/a	0	n/a	n/a	n/a	n/a	n/a
1283494	REC_WORD	wordpools/wasnorm_wordpool_less_exclusions.txt	LTP338	ltpFR	0	7	0	KIWI	781	n/a	n/a	0	n/a	n/a	n/a	n/a	n/a
1292556	REC_WORD	wordpools/wasnorm_wordpool_less_exclusions.txt	LTP338	ltpFR	0	7	0	LAKE	796	n/a	n/a	1	n/a	n/a	n/a	n/a	n/a
1298426	REC_WORD	wordpools/wasnorm_wordpool_less_exclusions.txt	LTP338	ltpFR	0	7	0	NIGHTGOWN	953	n/a	n/a	1	n/a	n/a	n/a	n/a	n/a
1351722	WORD	wordpools/wasnorm_wordpool_less_exclusions.txt	LTP338	ltpFR	0	8	0	POOL	1103	n/a	n/a	1	0.422607421875	0.5869140625	0	upper	amplitud.ttf
1355670	WORD	wordpools/wasnorm_wordpool_less_exclusions.txt	LTP338	ltpFR	0	8	0	WELL	1600	n/a	n/a	1	0.422607421875	0.5869140625	0	upper	amplitud.ttf
1359568	WORD	wordpools/wasnorm_wordpool_less_exclusions.txt	LTP338	ltpFR	0	8	0	THERMOMETER	1453	n/a	n/a	0	0.422607421875	0.5869140625	0	upper	amplitud.ttf
1363733	WORD	wordpools/wasnorm_wordpool_less_exclusions.txt	LTP338	ltpFR	0	8	0	SPICE	1350	n/a	n/a	0	0.422607421875	0.5869140625	0	upper	amplitud.ttf
1367598	WORD	wordpools/wasnorm_wordpool_less_exclusions.txt	LTP338	ltpFR	0	8	0	CANOE	233	n/a	n/a	1	0.422607421875	0.5869140625	0	upper	amplitud.ttf
1371429	WORD	wordpools/wasnorm_wordpool_less_exclusions.txt	LTP338	ltpFR	0	8	0	RADIATOR	1156	n/a	n/a	1	0.422607421875	0.5869140625	0	upper	amplitud.ttf
1375627	WORD	wordpools/wasnorm_wordpool_less_exclusions.txt	LTP338	ltpFR	0	8	0	CLOVE	329	n/a	n/a	0	0.422607421875	0.5869140625	0	upper	amplitud.ttf
1379774	WORD	wordpools/wasnorm_wordpool_less_exclusions.txt	LTP338	ltpFR	0	8	0	CELERY	266	n/a	n/a	0	0.422607421875	0.5869140625	0	upper	amplitud.ttf
1383657	WORD	wordpools/wasnorm_wordpool_less_exclusions.txt	LTP338	ltpFR	0	8	0	HOSTESS	723	n/a	n/a	1	0.422607421875	0.5869140625	0	upper	amplitud.ttf
1387605	WORD	wordpools/wasnorm_wordpool_less_exclusions.txt	LTP338	ltpFR	0	8	0	WAITER	1580	n/a	n/a	1	0.422607421875	0.5869140625	0	upper	amplitud.ttf
1391670	WORD	wordpools/wasnorm_wordpool_less_exclusions.txt	LTP338	ltpFR	0	8	0	RABBIT	1152	n/a	n/a	0	0.422607421875	0.5869140625	0	upper	amplitud.ttf
1395552	WORD	wordpools/wasnorm_wordpool_less_exclusions.txt	LTP338	ltpFR	0	8	0	SCAPEGOAT	1244	n/a	n/a	1	0.422607421875	0.5869140625	0	upper	amplitud.ttf
1399533	WORD	wordpools/wasnorm_wordpool_less_exclusions.txt	LTP338	ltpFR	0	8	0	BEAST	108	n/a	n/a	1	0.422607421875	0.5869140625	0	upper	amplitud.ttf
1403448	WORD	wordpools/wasnorm_wordpool_less_exclusions.txt	LTP338	ltpFR	0	8	0	PERCH	1048	n/a	n/a	1	0.422607421875	0.5869140625	0	upper	amplitud.ttf
1407663	WORD	wordpools/wasnorm_wordpool_less_exclusions.txt	LTP338	ltpFR	0	8	0	DUSTPAN	509	n/a	n/a	0	0.422607421875	0.5869140625	0	upper	amplitud.ttf
1411628	WORD	wordpools/wasnorm_wordpool_less_exclusions.txt	LTP338	ltpFR	0	8	0	VENT	1556	n/a	n/a	0	0.422607421875	0.5869140625	0	upper	amplitud.ttf
1417492	REC_START	n/a	LTP338	ltpFR	0	8	n/a	n/a	n/a	n/a	n/a	n/a	n/a	n/a	n/a	n/a	n/a
1419995	REC_WORD	wordpools/wasnorm_wordpool_less_exclusions.txt	LTP338	ltpFR	0	8	0	VENT	1556	n/a	n/a	0	n/a	n/a	n/a	n/a	n/a
1421342	REC_WORD	wordpools/wasnorm_wordpool_less_exclusions.txt	LTP338	ltpFR	0	8	0	DUSTPAN	509	n/a	n/a	0	n/a	n/a	n/a	n/a	n/a
1422938	REC_WORD	wordpools/wasnorm_wordpool_less_exclusions.txt	LTP338	ltpFR	0	8	0	SCAPEGOAT	1244	n/a	n/a	1	n/a	n/a	n/a	n/a	n/a
1423938	REC_WORD_VV	wordpools/wasnorm_wordpool_less_exclusions.txt	LTP338	ltpFR	0	8	n/a	<>	-1	n/a	n/a	n/a	n/a	n/a	n/a	n/a	n/a
1425134	REC_WORD	wordpools/wasnorm_wordpool_less_exclusions.txt	LTP338	ltpFR	0	8	0	PERCH	1048	n/a	n/a	1	n/a	n/a	n/a	n/a	n/a
1428608	REC_WORD	wordpools/wasnorm_wordpool_less_exclusions.txt	LTP338	ltpFR	0	8	0	RABBIT	1152	n/a	n/a	0	n/a	n/a	n/a	n/a	n/a
1431309	REC_WORD	wordpools/wasnorm_wordpool_less_exclusions.txt	LTP338	ltpFR	0	8	0	CELERY	266	n/a	n/a	0	n/a	n/a	n/a	n/a	n/a
1439248	REC_WORD	wordpools/wasnorm_wordpool_less_exclusions.txt	LTP338	ltpFR	0	8	0	HOSTESS	723	n/a	n/a	1	n/a	n/a	n/a	n/a	n/a
1440932	REC_WORD	wordpools/wasnorm_wordpool_less_exclusions.txt	LTP338	ltpFR	0	8	0	WAITER	1580	n/a	n/a	1	n/a	n/a	n/a	n/a	n/a
1493040	REST_REWET	n/a	LTP338	ltpFR	0	8	n/a	n/a	n/a	n/a	n/a	n/a	n/a	n/a	n/a	n/a	n/a
1921112	WORD	wordpools/wasnorm_wordpool_less_exclusions.txt	LTP338	ltpFR	0	9	1	REPTILE	1185	n/a	n/a	1	0.57763671875	0.412841796875	1	lower	zerothre.ttf
1925326	WORD	wordpools/wasnorm_wordpool_less_exclusions.txt	LTP338	ltpFR	0	9	1	COBRA	336	n/a	n/a	1	0.57763671875	0.412841796875	1	lower	zerothre.ttf
1929241	WORD	wordpools/wasnorm_wordpool_less_exclusions.txt	LTP338	ltpFR	0	9	1	LIMOUSINE	824	n/a	n/a	0	0.57763671875	0.412841796875	1	lower	zerothre.ttf
1933306	WORD	wordpools/wasnorm_wordpool_less_exclusions.txt	LTP338	ltpFR	0	9	1	FUGITIVE	612	n/a	n/a	1	0.57763671875	0.412841796875	1	lower	zerothre.ttf
1937472	WORD	wordpools/wasnorm_wordpool_less_exclusions.txt	LTP338	ltpFR	0	9	1	COUGAR	387	n/a	n/a	1	0.57763671875	0.412841796875	1	lower	zerothre.ttf
1941352	WORD	wordpools/wasnorm_wordpool_less_exclusions.txt	LTP338	ltpFR	0	9	1	PIPE	1073	n/a	n/a	0	0.57763671875	0.412841796875	1	lower	zerothre.ttf
1945384	WORD	wordpools/wasnorm_wordpool_less_exclusions.txt	LTP338	ltpFR	0	9	1	VELVET	1555	n/a	n/a	0	0.57763671875	0.412841796875	1	lower	zerothre.ttf
1949550	WORD	wordpools/wasnorm_wordpool_less_exclusions.txt	LTP338	ltpFR	0	9	1	BANKER	84	n/a	n/a	1	0.57763671875	0.412841796875	1	lower	zerothre.ttf
1953465	WORD	wordpools/wasnorm_wordpool_less_exclusions.txt	LTP338	ltpFR	0	9	1	ENGINEER	536	n/a	n/a	1	0.57763671875	0.412841796875	1	lower	zerothre.ttf
1957646	WORD	wordpools/wasnorm_wordpool_less_exclusions.txt	LTP338	ltpFR	0	9	1	FIG	563	n/a	n/a	1	0.57763671875	0.412841796875	1	lower	zerothre.ttf
1961694	WORD	wordpools/wasnorm_wordpool_less_exclusions.txt	LTP338	ltpFR	0	9	1	OTTER	986	n/a	n/a	1	0.57763671875	0.412841796875	1	lower	zerothre.ttf
1965576	WORD	wordpools/wasnorm_wordpool_less_exclusions.txt	LTP338	ltpFR	0	9	1	CLIFF	322	n/a	n/a	0	0.57763671875	0.412841796875	1	lower	zerothre.ttf
1969440	WORD	wordpools/wasnorm_wordpool_less_exclusions.txt	LTP338	ltpFR	0	9	1	SANDPAPER	1231	n/a	n/a	0	0.57763671875	0.412841796875	1	lower	zerothre.ttf
1973505	WORD	wordpools/wasnorm_wordpool_less_exclusions.txt	LTP338	ltpFR	0	9	1	LEAF	808	n/a	n/a	1	0.57763671875	0.412841796875	1	lower	zerothre.ttf
1977737	WORD	wordpools/wasnorm_wordpool_less_exclusions.txt	LTP338	ltpFR	0	9	1	MEDAL	885	n/a	n/a	0	0.57763671875	0.412841796875	1	lower	zerothre.ttf
1981834	WORD	wordpools/wasnorm_wordpool_less_exclusions.txt	LTP338	ltpFR	0	9	1	BEAD	103	n/a	n/a	0	0.57763671875	0.412841796875	1	lower	zerothre.ttf
1987782	REC_START	n/a	LTP338	ltpFR	0	9	n/a	n/a	n/a	n/a	n/a	n/a	n/a	n/a	n/a	n/a	n/a
1989698	REC_WORD	wordpools/wasnorm_wordpool_less_exclusions.txt	LTP338	ltpFR	0	9	1	CLIFF	322	n/a	n/a	0	n/a	n/a	n/a	n/a	n/a
1991055	REC_WORD	wordpools/wasnorm_wordpool_less_exclusions.txt	LTP338	ltpFR	0	9	1	MEDAL	885	n/a	n/a	0	n/a	n/a	n/a	n/a	n/a
1992909	REC_WORD	wordpools/wasnorm_wordpool_less_exclusions.txt	LTP338	ltpFR	0	9	1	BEAD	103	n/a	n/a	0	n/a	n/a	n/a	n/a	n/a
1994457	REC_WORD	wordpools/wasnorm_wordpool_less_exclusions.txt	LTP338	ltpFR	0	9	1	REPTILE	1185	n/a	n/a	1	n/a	n/a	n/a	n/a	n/a
1996204	REC_WORD	wordpools/wasnorm_wordpool_less_exclusions.txt	LTP338	ltpFR	0	9	1	FUGITIVE	612	n/a	n/a	1	n/a	n/a	n/a	n/a	n/a
1998244	REC_WORD	wordpools/wasnorm_wordpool_less_exclusions.txt	LTP338	ltpFR	0	9	1	BANKER	84	n/a	n/a	1	n/a	n/a	n/a	n/a	n/a
2002896	REC_WORD	wordpools/wasnorm_wordpool_less_exclusions.txt	LTP338	ltpFR	0	9	1	COUGAR	387	n/a	n/a	1	n/a	n/a	n/a	n/a	n/a
2009999	REC_WORD	wordpools/wasnorm_wordpool_less_exclusions.txt	LTP338	ltpFR	0	9	1	PIPE	1073	n/a	n/a	0	n/a	n/a	n/a	n/a	n/a
2067845	WORD	wordpools/wasnorm_wordpool_less_exclusions.txt	LTP338	ltpFR	0	10	1	GROUND	666	n/a	n/a	0	0.57763671875	0.412841796875	1	lower	zerothre.ttf
2071711	WORD	wordpools/wasnorm_wordpool_less_exclusions.txt	LTP338	ltpFR	0	10	1	VET	1560	n/a	n/a	1	0.57763671875	0.412841796875	1	lower	zerothre.ttf
2075542	WORD	wordpools/wasnorm_wordpool_less_exclusions.txt	LTP338	ltpFR	0	10	1	CAGE	218	n/a	n/a	0	0.57763671875	0.412841796875	1	lower	zerothre.ttf
2079724	WORD	wordpools/wasnorm_wordpool_less_exclusions.txt	LTP338	ltpFR	0	10	1	ESSAY	540	n/a	n/a	0	0.57763671875	0.412841796875	1	lower	zerothre.ttf
2083788	WORD	wordpools/wasnorm_wordpool_less_exclusions.txt	LTP338	ltpFR	0	10	1	TECHNICIAN	1443	n/a	n/a	1	0.57763671875	0.412841796875	1	lower	zerothre.ttf
2087737	WORD	wordpools/wasnorm_wordpool_less_exclusions.txt	LTP338	ltpFR	0	10	1	APE	31	n/a	n/a	1	0.57763671875	0.412841796875	1	lower	zerothre.ttf
2091750	WORD	wordpools/wasnorm_wordpool_less_exclusions.txt	LTP338	ltpFR	0	10	1	HAYSTACK	694	n/a	n/a	0	0.57763671875	0.412841796875	1	lower	zerothre.ttf
2095815	WORD	wordpools/wasnorm_wordpool_less_exclusions.txt	LTP338	ltpFR	0	10	1	CALF	222	n/a	n/a	1	0.57763671875	0.412841796875	1	lower	zerothre.ttf
2099681	WORD	wordpools/wasnorm_wordpool_less_exclusions.txt	LTP338	ltpFR	0	10	1	BINDER	127	n/a	n/a	0	0.57763671875	0.412841796875	1	lower	zerothre.ttf
2103629	WORD	wordpools/wasnorm_wordpool_less_exclusions.txt	LTP338	ltpFR	0	10	1	ORNAMENT	985	n/a	n/a	0	0.57763671875	0.412841796875	1	lower	zerothre.ttf
2107511	WORD	wordpools/wasnorm_wordpool_less_exclusions.txt	LTP338	ltpFR	0	10	1	SWAMP	1416	n/a	n/a	0	0.57763671875	0.412841796875	1	lower	zerothre.ttf
2111726	WORD	wordpools/wasnorm_wordpool_less_exclusions.txt	LTP338	ltpFR	0	10	1	COOKIE	374	n/a	n/a	0	0.57763671875	0.412841796875	1	lower	zerothre.ttf
2115823	WORD	wordpools/wasnorm_wordpool_less_exclusions.txt	LTP338	ltpFR	0	10	1	BAND	78	n/a	n/a	1	0.57763671875	0.412841796875	1	lower	zerothre.ttf
2119672	WORD	wordpools/wasnorm_wordpool_less_exclusions.txt	LTP338	ltpFR	0	10	1	TROMBONE	1508	n/a	n/a	0	0.57763671875	0.412841796875	1	lower	zerothre.ttf
2123587	WORD	wordpools/wasnorm_wordpool_less_exclusions.txt	LTP338	ltpFR	0	10	1	CHECK	284	n/a	n/a	0	0.57763671875	0.412841796875	1	lower	zerothre.ttf
2127719	WORD	wordpools/wasnorm_wordpool_less_exclusions.txt	LTP338	ltpFR	0	10	1	DIRT	472	n/a	n/a	0	0.57763671875	0.412841796875	1	lower	zerothre.ttf
2133566	REC_START	n/a	LTP338	ltpFR	0	10	n/a	n/a	n/a	n/a	n/a	n/a	n/a	n/a	n/a	n/a	n/a
2135968	REC_WORD	wordpools/wasnorm_wordpool_less_exclusions.txt	LTP338	ltpFR	0	10	1	DIRT	472	n/a	n/a	0	n/a	n/a	n/a	n/a	n/a
2137437	REC_WORD	wordpools/wasnorm_wordpool_less_exclusions.txt	LTP338	ltpFR	0	10	1	BAND	78	n/a	n/a	1	n/a	n/a	n/a	n/a	n/a
2138975	REC_WORD	wordpools/wasnorm_wordpool_less_exclusions.txt	LTP338	ltpFR	0	10	1	TROMBONE	1508	n/a	n/a	0	n/a	n/a	n/a	n/a	n/a
2146279	REC_WORD	wordpools/wasnorm_wordpool_less_exclusions.txt	LTP338	ltpFR	0	10	1	COOKIE	374	n/a	n/a	0	n/a	n/a	n/a	n/a	n/a
2147818	REC_WORD	wordpools/wasnorm_wordpool_less_exclusions.txt	LTP338	ltpFR	0	10	1	SWAMP	1416	n/a	n/a	0	n/a	n/a	n/a	n/a	n/a
2183783	REC_WORD	wordpools/wasnorm_wordpool_less_exclusions.txt	LTP338	ltpFR	0	10	1	TECHNICIAN	1443	n/a	n/a	1	n/a	n/a	n/a	n/a	n/a
2215061	WORD	wordpools/wasnorm_wordpool_less_exclusions.txt	LTP338	ltpFR	0	11	1	STEAM	1375	n/a	n/a	0	0.57763671875	0.412841796875	1	lower	zerothre.ttf
2219226	WORD	wordpools/wasnorm_wordpool_less_exclusions.txt	LTP338	ltpFR	0	11	1	SHOWER	1296	n/a	n/a	0	0.57763671875	0.412841796875	1	lower	zerothre.ttf
2223442	WORD	wordpools/wasnorm_wordpool_less_exclusions.txt	LTP338	ltpFR	0	11	1	COWBOY	395	n/a	n/a	1	0.57763671875	0.412841796875	1	lower	zerothre.ttf
2227490	WORD	wordpools/wasnorm_wordpool_less_exclusions.txt	LTP338	ltpFR	0	11	1	CREATURE	403	n/a	n/a	1	0.57763671875	0.412841796875	1	lower	zerothre.ttf
2231621	WORD	wordpools/wasnorm_wordpool_less_exclusions.txt	LTP338	ltpFR	0	11	1	KETTLE	772	n/a	n/a	0	0.57763671875	0.412841796875	1	lower	zerothre.ttf
2235752	WORD	wordpools/wasnorm_wordpool_less_exclusions.txt	LTP338	ltpFR	0	11	1	MOLECULE	905	n/a	n/a	0	0.57763671875	0.412841796875	1	lower	zerothre.ttf
2239701	WORD	wordpools/wasnorm_wordpool_less_exclusions.txt	LTP338	ltpFR	0	11	1	MAYONNAISE	880	n/a	n/a	0	0.57763671875	0.412841796875	1	lower	zerothre.ttf
2243765	WORD	wordpools/wasnorm_wordpool_less_exclusions.txt	LTP338	ltpFR	0	11	1	PATROL	1027	n/a	n/a	0	0.57763671875	0.412841796875	1	lower	zerothre.ttf
2247846	WORD	wordpools/wasnorm_wordpool_less_exclusions.txt	LTP338	ltpFR	0	11	1	PENGUIN	1044	n/a	n/a	1	0.57763671875	0.412841796875	1	lower	zerothre.ttf
2251712	WORD	wordpools/wasnorm_wordpool_less_exclusions.txt	LTP338	ltpFR	0	11	1	PARROT	1015	n/a	n/a	1	0.57763671875	0.412841796875	1	lower	zerothre.ttf
2255677	WORD	wordpools/wasnorm_wordpool_less_exclusions.txt	LTP338	ltpFR	0	11	1	GREASE	660	n/a	n/a	0	0.57763671875	0.412841796875	1	lower	zerothre.ttf
2259891	WORD	wordpools/wasnorm_wordpool_less_exclusions.txt	LTP338	ltpFR	0	11	1	PUPPY	1144	n/a	n/a	1	0.57763671875	0.412841796875	1	lower	zerothre.ttf
2263740	WORD	wordpools/wasnorm_wordpool_less_exclusions.txt	LTP338	ltpFR	0	11	1	BONE	148	n/a	n/a	0	0.57763671875	0.412841796875	1	lower	zerothre.ttf
2267605	WORD	wordpools/wasnorm_wordpool_less_exclusions.txt	LTP338	ltpFR	0	11	1	KETCHUP	771	n/a	n/a	0	0.57763671875	0.412841796875	1	lower	zerothre.ttf
2271686	WORD	wordpools/wasnorm_wordpool_less_exclusions.txt	LTP338	ltpFR	0	11	1	COLT	349	n/a	n/a	1	0.57763671875	0.412841796875	1	lower	zerothre.ttf
2275618	WORD	wordpools/wasnorm_wordpool_less_exclusions.txt	LTP338	ltpFR	0	11	1	WAVE	1596	n/a	n/a	0	0.57763671875	0.412841796875	1	lower	zerothre.ttf
2281500	REC_START	n/a	LTP338	ltpFR	0	11	n/a	n/a	n/a	n/a	n/a	n/a	n/a	n/a	n/a	n/a	n/a
2283836	REC_WORD	wordpools/wasnorm_wordpool_less_exclusions.txt	LTP338	ltpFR	0	11	1	WAVE	1596	n/a	n/a	0	n/a	n/a	n/a	n/a	n/a
2285055	REC_WORD	wordpools/wasnorm_wordpool_less_exclusions.txt	LTP338	ltpFR	0	11	1	COLT	349	n/a	n/a	1	n/a	n/a	n/a	n/a	n/a
2286335	REC_WORD	wordpools/wasnorm_wordpool_less_exclusions.txt	LTP338	ltpFR	0	11	1	KETCHUP	771	n/a	n/a	0	n/a	n/a	n/a	n/a	n/a
2287760	REC_WORD	wordpools/wasnorm_wordpool_less_exclusions.txt	LTP338	ltpFR	0	11	1	MAYONNAISE	880	n/a	n/a	0	n/a	n/a	n/a	n/a	n/a
2293169	REC_WORD	wordpools/wasnorm_wordpool_less_exclusions.txt	LTP338	ltpFR	0	11	1	KETTLE	772	n/a	n/a	0	n/a	n/a	n/a	n/a	n/a
2294274	REC_WORD	wordpools/wasnorm_wordpool_less_exclusions.txt	LTP338	ltpFR	0	11	1	STEAM	1375	n/a	n/a	0	n/a	n/a	n/a	n/a	n/a
2295723	REC_WORD	wordpools/wasnorm_wordpool_less_exclusions.txt	LTP338	ltpFR	0	11	1	SHOWER	1296	n/a	n/a	0	n/a	n/a	n/a	n/a	n/a
2303935	REC_WORD	wordpools/wasnorm_wordpool_less_exclusions.txt	LTP338	ltpFR	0	11	1	PATROL	1027	n/a	n/a	0	n/a	n/a	n/a	n/a	n/a
2305476	REC_WORD	wordpools/wasnorm_wordpool_less_exclusions.txt	LTP338	ltpFR	0	11	1	PARROT	1015	n/a	n/a	1	n/a	n/a	n/a	n/a	n/a
2306885	REC_WORD	wordpools/wasnorm_wordpool_less_exclusions.txt	LTP338	ltpFR	0	11	1	PENGUIN	1044	n/a	n/a	1	n/a	n/a	n/a	n/a	n/a
2379003	WORD	wordpools/wasnorm_wordpool_less_exclusions.txt	LTP338	ltpFR	0	12	1	BUCKLE	185	n/a	n/a	0	0.57763671875	0.412841796875	1	lower	zerothre.ttf
2383168	WORD	wordpools/wasnorm_wordpool_less_exclusions.txt	LTP338	ltpFR	0	12	1	CONDUCTOR	362	n/a	n/a	1	0.57763671875	0.412841796875	1	lower	zerothre.ttf
2387366	WORD	wordpools/wasnorm_wordpool_less_exclusions.txt	LTP338	ltpFR	0	12	1	THICKET	1455	n/a	n/a	1	0.57763671875	0.412841796875	1	lower	zerothre.ttf
2391432	WORD	wordpools/wasnorm_wordpool_less_exclusions.txt	LTP338	ltpFR	0	12	1	GUARD	667	n/a	n/a	1	0.57763671875	0.412841796875	1	lower	zerothre.ttf
2395597	WORD	wordpools/wasnorm_wordpool_less_exclusions.txt	LTP338	ltpFR	0	12	1	OWNER	993	n/a	n/a	1	0.57763671875	0.412841796875	1	lower	zerothre.ttf
2399662	WORD	wordpools/wasnorm_wordpool_less_exclusions.txt	LTP338	ltpFR	0	12	1	DETERGENT	455	n/a	n/a	0	0.57763671875	0.412841796875	1	lower	zerothre.ttf
2403577	WORD	wordpools/wasnorm_wordpool_less_exclusions.txt	LTP338	ltpFR	0	12	1	SLEEVE	1324	n/a	n/a	0	0.57763671875	0.412841796875	1	lower	zerothre.ttf
2407641	WORD	wordpools/wasnorm_wordpool_less_exclusions.txt	LTP338	ltpFR	0	12	1	PIKE	1067	n/a	n/a	0	0.57763671875	0.412841796875	1	lower	zerothre.ttf
2411523	WORD	wordpools/wasnorm_wordpool_less_exclusions.txt	LTP338	ltpFR	0	12	1	SISTER	1312	n/a	n/a	1	0.57763671875	0.412841796875	1	lower	zerothre.ttf
2415538	WORD	wordpools/wasnorm_wordpool_less_exclusions.txt	LTP338	ltpFR	0	12	1	DEPUTY	450	n/a	n/a	1	0.57763671875	0.412841796875	1	lower	zerothre.ttf
2419419	WORD	wordpools/wasnorm_wordpool_less_exclusions.txt	LTP338	ltpFR	0	12	1	KITCHEN	778	n/a	n/a	0	0.57763671875	0.412841796875	1	lower	zerothre.ttf
2423366	WORD	wordpools/wasnorm_wordpool_less_exclusions.txt	LTP338	ltpFR	0	12	1	APRON	35	n/a	n/a	0	0.57763671875	0.412841796875	1	lower	zerothre.ttf
2427348	WORD	wordpools/wasnorm_wordpool_less_exclusions.txt	LTP338	ltpFR	0	12	1	BLUEPRINT	142	n/a	n/a	0	0.57763671875	0.412841796875	1	lower	zerothre.ttf
2431514	WORD	wordpools/wasnorm_wordpool_less_exclusions.txt	LTP338	ltpFR	0	12	1	CUFF	423	n/a	n/a	0	0.57763671875	0.412841796875	1	lower	zerothre.ttf
2435378	WORD	wordpools/wasnorm_wordpool_less_exclusions.txt	LTP338	ltpFR	0	12	1	PICNIC	1060	n/a	n/a	0	0.57763671875	0.412841796875	1	lower	zerothre.ttf
2439276	WORD	wordpools/wasnorm_wordpool_less_exclusions.txt	LTP338	ltpFR	0	12	1	POTATO	1115	n/a	n/a	1	0.57763671875	0.412841796875	1	lower	zerothre.ttf
2445040	REC_START	n/a	LTP338	ltpFR	0	12	n/a	n/a	n/a	n/a	n/a	n/a	n/a	n/a	n/a	n/a	n/a
2447779	REC_WORD	wordpools/wasnorm_wordpool_less_exclusions.txt	LTP338	ltpFR	0	12	1	POTATO	1115	n/a	n/a	1	n/a	n/a	n/a	n/a	n/a
2449176	REC_WORD	wordpools/wasnorm_wordpool_less_exclusions.txt	LTP338	ltpFR	0	12	1	PICNIC	1060	n/a	n/a	0	n/a	n/a	n/a	n/a	n/a
2450662	REC_WORD	wordpools/wasnorm_wordpool_less_exclusions.txt	LTP338	ltpFR	0	12	1	DEPUTY	450	n/a	n/a	1	n/a	n/a	n/a	n/a	n/a
2460338	REC_WORD	wordpools/wasnorm_wordpool_less_exclusions.txt	LTP338	ltpFR	0	12	1	THICKET	1455	n/a	n/a	1	n/a	n/a	n/a	n/a	n/a
2467753	REC_WORD	wordpools/wasnorm_wordpool_less_exclusions.txt	LTP338	ltpFR	0	12	1	DETERGENT	455	n/a	n/a	0	n/a	n/a	n/a	n/a	n/a
2470004	REC_WORD	wordpools/wasnorm_wordpool_less_exclusions.txt	LTP338	ltpFR	0	12	1	KITCHEN	778	n/a	n/a	0	n/a	n/a	n/a	n/a	n/a
2471577	REC_WORD	wordpools/wasnorm_wordpool_less_exclusions.txt	LTP338	ltpFR	0	12	1	APRON	35	n/a	n/a	0	n/a	n/a	n/a	n/a	n/a
2473347	REC_WORD	wordpools/wasnorm_wordpool_less_exclusions.txt	LTP338	ltpFR	0	12	1	PIKE	1067	n/a	n/a	0	n/a	n/a	n/a	n/a	n/a
2494186	REC_WORD	wordpools/wasnorm_wordpool_less_exclusions.txt	LTP338	ltpFR	0	12	1	CUFF	423	n/a	n/a	0	n/a	n/a	n/a	n/a	n/a
2502110	REC_WORD	wordpools/wasnorm_wordpool_less_exclusions.txt	LTP338	ltpFR	0	12	1	SLEEVE	1324	n/a	n/a	0	n/a	n/a	n/a	n/a	n/a
2526869	WORD	wordpools/wasnorm_wordpool_less_exclusions.txt	LTP338	ltpFR	0	13	1	OFFICE	972	n/a	n/a	0	0.57763671875	0.412841796875	1	lower	zerothre.ttf
2530868	WORD	wordpools/wasnorm_wordpool_less_exclusions.txt	LTP338	ltpFR	0	13	1	MAN	862	n/a	n/a	1	0.57763671875	0.412841796875	1	lower	zerothre.ttf
2534899	WORD	wordpools/wasnorm_wordpool_less_exclusions.txt	LTP338	ltpFR	0	13	1	VISITOR	1573	n/a	n/a	1	0.57763671875	0.412841796875	1	lower	zerothre.ttf
2538831	WORD	wordpools/wasnorm_wordpool_less_exclusions.txt	LTP338	ltpFR	0	13	1	FAMILY	550	n/a	n/a	1	0.57763671875	0.412841796875	1	lower	zerothre.ttf
2542995	WORD	wordpools/wasnorm_wordpool_less_exclusions.txt	LTP338	ltpFR	0	13	0	INFANT	737	n/a	n/a	0	0.422607421875	0.5869140625	0	upper	amplitud.ttf
2547094	WORD	wordpools/wasnorm_wordpool_less_exclusions.txt	LTP338	ltpFR	0	13	0	ORANGE	980	n/a	n/a	0	0.422607421875	0.5869140625	0	upper	amplitud.ttf
2551158	WORD	wordpools/wasnorm_wordpool_less_exclusions.txt	LTP338	ltpFR	0	13	0	METEOR	889	n/a	n/a	1	0.422607421875	0.5869140625	0	upper	amplitud.ttf
2555373	WORD	wordpools/wasnorm_wordpool_less_exclusions.txt	LTP338	ltpFR	0	13	1	SALAD	1224	n/a	n/a	0	0.57763671875	0.412841796875	1	lower	zerothre.ttf
2559271	WORD	wordpools/wasnorm_wordpool_less_exclusions.txt	LTP338	ltpFR	0	13	1	RESTAURANT	1187	n/a	n/a	0	0.57763671875	0.412841796875	1	lower	zerothre.ttf
2563319	WORD	wordpools/wasnorm_wordpool_less_exclusions.txt	LTP338	ltpFR	0	13	0	DIAPER	459	n/a	n/a	0	0.422607421875	0.5869140625	0	upper	amplitud.ttf
2567184	WORD	wordpools/wasnorm_wordpool_less_exclusions.txt	LTP338	ltpFR	0	13	0	CLASS	318	n/a	n/a	1	0.422607421875	0.5869140625	0	upper	amplitud.ttf
2571049	WORD	wordpools/wasnorm_wordpool_less_exclusions.txt	LTP338	ltpFR	0	13	0	GRASSHOPPER	656	n/a	n/a	0	0.422607421875	0.5869140625	0	upper	amplitud.ttf
2575214	WORD	wordpools/wasnorm_wordpool_less_exclusions.txt	LTP338	ltpFR	0	13	0	SPIDER	1351	n/a	n/a	0	0.422607421875	0.5869140625	0	upper	amplitud.ttf
2579362	WORD	wordpools/wasnorm_wordpool_less_exclusions.txt	LTP338	ltpFR	0	13	0	NOTEBOOK	959	n/a	n/a	1	0.422607421875	0.5869140625	0	upper	amplitud.ttf
2583294	WORD	wordpools/wasnorm_wordpool_less_exclusions.txt	LTP338	ltpFR	0	13	1	BALLOT	76	n/a	n/a	0	0.57763671875	0.412841796875	1	lower	zerothre.ttf
2587259	WORD	wordpools/wasnorm_wordpool_less_exclusions.txt	LTP338	ltpFR	0	13	1	BEARD	107	n/a	n/a	0	0.57763671875	0.412841796875	1	lower	zerothre.ttf
2593123	REC_START	n/a	LTP338	ltpFR	0	13	n/a	n/a	n/a	n/a	n/a	n/a	n/a	n/a	n/a	n/a	n/a
2596855	REC_WORD	wordpools/wasnorm_wordpool_less_exclusions.txt	LTP338	ltpFR	0	13	1	BEARD	107	n/a	n/a	0	n/a	n/a	n/a	n/a	n/a
2598837	REC_WORD	wordpools/wasnorm_wordpool_less_exclusions.txt	LTP338	ltpFR	0	13	0	CLASS	318	n/a	n/a	1	n/a	n/a	n/a	n/a	n/a
2601205	REC_WORD	wordpools/wasnorm_wordpool_less_exclusions.txt	LTP338	ltpFR	0	13	0	ORANGE	980	n/a	n/a	0	n/a	n/a	n/a	n/a	n/a
2603326	REC_WORD	wordpools/wasnorm_wordpool_less_exclusions.txt	LTP338	ltpFR	0	13	0	INFANT	737	n/a	n/a	0	n/a	n/a	n/a	n/a	n/a
2627059	REC_WORD	wordpools/wasnorm_wordpool_less_exclusions.txt	LTP338	ltpFR	0	13	1	BALLOT	76	n/a	n/a	0	n/a	n/a	n/a	n/a	n/a
2673487	WORD	wordpools/wasnorm_wordpool_less_exclusions.txt	LTP338	ltpFR	0	14	0	PENDULUM	1043	n/a	n/a	0	0.422607421875	0.5869140625	0	upper	amplitud.ttf
2677384	WORD	wordpools/wasnorm_wordpool_less_exclusions.txt	LTP338	ltpFR	0	14	0	HEEL	700	n/a	n/a	0	0.422607421875	0.5869140625	0	upper	amplitud.ttf
2681600	WORD	wordpools/wasnorm_wordpool_less_exclusions.txt	LTP338	ltpFR	0	14	1	COLESLAW	344	n/a	n/a	0	0.57763671875	0.412841796875	1	lower	zerothre.ttf
2685631	WORD	wordpools/wasnorm_wordpool_less_exclusions.txt	LTP338	ltpFR	0	14	1	MEAL	882	n/a	n/a	0	0.57763671875	0.412841796875	1	lower	zerothre.ttf
2689463	WORD	wordpools/wasnorm_wordpool_less_exclusions.txt	LTP338	ltpFR	0	14	1	SADDLE	1221	n/a	n/a	1	0.57763671875	0.412841796875	1	lower	zerothre.ttf
2693495	WORD	wordpools/wasnorm_wordpool_less_exclusions.txt	LTP338	ltpFR	0	14	1	CLOCK	325	n/a	n/a	0	0.57763671875	0.412841796875	1	lower	zerothre.ttf
2697426	WORD	wordpools/wasnorm_wordpool_less_exclusions.txt	LTP338	ltpFR	0	14	0	POT	1114	n/a	n/a	0	0.422607421875	0.5869140625	0	upper	amplitud.ttf
2701591	WORD	wordpools/wasnorm_wordpool_less_exclusions.txt	LTP338	ltpFR	0	14	0	FLOWER	584	n/a	n/a	0	0.422607421875	0.5869140625	0	upper	amplitud.ttf
2705722	WORD	wordpools/wasnorm_wordpool_less_exclusions.txt	LTP338	ltpFR	0	14	0	FOLLOWER	589	n/a	n/a	1	0.422607421875	0.5869140625	0	upper	amplitud.ttf
2709637	WORD	wordpools/wasnorm_wordpool_less_exclusions.txt	LTP338	ltpFR	0	14	0	PEOPLE	1046	n/a	n/a	1	0.422607421875	0.5869140625	0	upper	amplitud.ttf
2713685	WORD	wordpools/wasnorm_wordpool_less_exclusions.txt	LTP338	ltpFR	0	14	1	AUDIENCE	59	n/a	n/a	0	0.57763671875	0.412841796875	1	lower	zerothre.ttf
2717734	WORD	wordpools/wasnorm_wordpool_less_exclusions.txt	LTP338	ltpFR	0	14	1	MAILBOX	857	n/a	n/a	0	0.57763671875	0.412841796875	1	lower	zerothre.ttf
2721682	WORD	wordpools/wasnorm_wordpool_less_exclusions.txt	LTP338	ltpFR	0	14	1	EMPLOYER	532	n/a	n/a	1	0.57763671875	0.412841796875	1	lower	zerothre.ttf
2725530	WORD	wordpools/wasnorm_wordpool_less_exclusions.txt	LTP338	ltpFR	0	14	1	EUROPE	541	n/a	n/a	0	0.57763671875	0.412841796875	1	lower	zerothre.ttf
2729711	WORD	wordpools/wasnorm_wordpool_less_exclusions.txt	LTP338	ltpFR	0	14	0	SPONGE	1355	n/a	n/a	0	0.422607421875	0.5869140625	0	upper	amplitud.ttf
2733560	WORD	wordpools/wasnorm_wordpool_less_exclusions.txt	LTP338	ltpFR	0	14	0	SEAL	1262	n/a	n/a	1	0.422607421875	0.5869140625	0	upper	amplitud.ttf
2739290	REC_START	n/a	LTP338	ltpFR	0	14	n/a	n/a	n/a	n/a	n/a	n/a	n/a	n/a	n/a	n/a	n/a
2741669	REC_WORD	wordpools/wasnorm_wordpool_less_exclusions.txt	LTP338	ltpFR	0	14	0	SPONGE	1355	n/a	n/a	0	n/a	n/a	n/a	n/a	n/a
2743100	REC_WORD	wordpools/wasnorm_wordpool_less_exclusions.txt	LTP338	ltpFR	0	14	0	SEAL	1262	n/a	n/a	1	n/a	n/a	n/a	n/a	n/a
2744598	REC_WORD	wordpools/wasnorm_wordpool_less_exclusions.txt	LTP338	ltpFR	0	14	0	FLOWER	584	n/a	n/a	0	n/a	n/a	n/a	n/a	n/a
2746211	REC_WORD	wordpools/wasnorm_wordpool_less_exclusions.txt	LTP338	ltpFR	0	14	0	FOLLOWER	589	n/a	n/a	1	n/a	n/a	n/a	n/a	n/a
2748190	REC_WORD	wordpools/wasnorm_wordpool_less_exclusions.txt	LTP338	ltpFR	0	14	1	AUDIENCE	59	n/a	n/a	0	n/a	n/a	n/a	n/a	n/a
2749190	REC_WORD_VV	wordpools/wasnorm_wordpool_less_exclusions.txt	LTP338	ltpFR	0	14	n/a	<>	-1	n/a	n/a	n/a	n/a	n/a	n/a	n/a	n/a
2777520	REC_WORD	wordpools/wasnorm_wordpool_less_exclusions.txt	LTP338	ltpFR	0	14	1	COLESLAW	344	n/a	n/a	0	n/a	n/a	n/a	n/a	n/a
2784338	REC_WORD	wordpools/wasnorm_wordpool_less_exclusions.txt	LTP338	ltpFR	0	14	1	MEAL	882	n/a	n/a	0	n/a	n/a	n/a	n/a	n/a
2821219	WORD	wordpools/wasnorm_wordpool_less_exclusions.txt	LTP338	ltpFR	0	15	1	CARDINAL	244	n/a	n/a	1	0.57763671875	0.412841796875	1	lower	zerothre.ttf
2825067	WORD	wordpools/wasnorm_wordpool_less_exclusions.txt	LTP338	ltpFR	0	15	1	FRUIT	610	n/a	n/a	1	0.57763671875	0.412841796875	1	lower	zerothre.ttf
2828965	WORD	wordpools/wasnorm_wordpool_less_exclusions.txt	LTP338	ltpFR	0	15	1	SWING	1421	n/a	n/a	0	0.57763671875	0.412841796875	1	lower	zerothre.ttf
2833163	WORD	wordpools/wasnorm_wordpool_less_exclusions.txt	LTP338	ltpFR	0	15	1	ANIMAL	23	n/a	n/a	1	0.57763671875	0.412841796875	1	lower	zerothre.ttf
2837062	WORD	wordpools/wasnorm_wordpool_less_exclusions.txt	LTP338	ltpFR	0	15	1	SHOE	1288	n/a	n/a	0	0.57763671875	0.412841796875	1	lower	zerothre.ttf
2841093	WORD	wordpools/wasnorm_wordpool_less_exclusions.txt	LTP338	ltpFR	0	15	0	NOVEL	960	n/a	n/a	0	0.422607421875	0.5869140625	0	upper	amplitud.ttf
2845308	WORD	wordpools/wasnorm_wordpool_less_exclusions.txt	LTP338	ltpFR	0	15	0	TREE	1502	n/a	n/a	1	0.422607421875	0.5869140625	0	upper	amplitud.ttf
2849389	WORD	wordpools/wasnorm_wordpool_less_exclusions.txt	LTP338	ltpFR	0	15	0	MAID	856	n/a	n/a	1	0.422607421875	0.5869140625	0	upper	amplitud.ttf
2853288	WORD	wordpools/wasnorm_wordpool_less_exclusions.txt	LTP338	ltpFR	0	15	0	SERVER	1272	n/a	n/a	1	0.422607421875	0.5869140625	0	upper	amplitud.ttf
2857302	WORD	wordpools/wasnorm_wordpool_less_exclusions.txt	LTP338	ltpFR	0	15	1	PHOTO	1055	n/a	n/a	0	0.57763671875	0.412841796875	1	lower	zerothre.ttf
2861367	WORD	wordpools/wasnorm_wordpool_less_exclusions.txt	LTP338	ltpFR	0	15	1	PICTURE	1061	n/a	n/a	0	0.57763671875	0.412841796875	1	lower	zerothre.ttf
2865450	WORD	wordpools/wasnorm_wordpool_less_exclusions.txt	LTP338	ltpFR	0	15	1	PANTHER	1009	n/a	n/a	1	0.57763671875	0.412841796875	1	lower	zerothre.ttf
2869514	WORD	wordpools/wasnorm_wordpool_less_exclusions.txt	LTP338	ltpFR	0	15	0	SQUIRREL	1362	n/a	n/a	0	0.422607421875	0.5869140625	0	upper	amplitud.ttf
2873529	WORD	wordpools/wasnorm_wordpool_less_exclusions.txt	LTP338	ltpFR	0	15	0	PORCUPINE	1107	n/a	n/a	0	0.422607421875	0.5869140625	0	upper	amplitud.ttf
2877494	WORD	wordpools/wasnorm_wordpool_less_exclusions.txt	LTP338	ltpFR	0	15	0	PUMPKIN	1142	n/a	n/a	1	0.422607421875	0.5869140625	0	upper	amplitud.ttf
2881442	WORD	wordpools/wasnorm_wordpool_less_exclusions.txt	LTP338	ltpFR	0	15	0	PENNY	1045	n/a	n/a	0	0.422607421875	0.5869140625	0	upper	amplitud.ttf
2887306	REC_START	n/a	LTP338	ltpFR	0	15	n/a	n/a	n/a	n/a	n/a	n/a	n/a	n/a	n/a	n/a	n/a
2889278	REC_WORD	wordpools/wasnorm_wordpool_less_exclusions.txt	LTP338	ltpFR	0	15	0	PORCUPINE	1107	n/a	n/a	0	n/a	n/a	n/a	n/a	n/a
2890894	REC_WORD	wordpools/wasnorm_wordpool_less_exclusions.txt	LTP338	ltpFR	0	15	0	PENNY	1045	n/a	n/a	0	n/a	n/a	n/a	n/a	n/a
2899248	REC_WORD	wordpools/wasnorm_wordpool_less_exclusions.txt	LTP338	ltpFR	0	15	1	PANTHER	1009	n/a	n/a	1	n/a	n/a	n/a	n/a	n/a
2902679	REC_WORD	wordpools/wasnorm_wordpool_less_exclusions.txt	LTP338	ltpFR	0	15	0	MAID	856	n/a	n/a	1	n/a	n/a	n/a	n/a	n/a
2904671	REC_WORD	wordpools/wasnorm_wordpool_less_exclusions.txt	LTP338	ltpFR	0	15	1	SHOE	1288	n/a	n/a	0	n/a	n/a	n/a	n/a	n/a
2906622	REC_WORD	wordpools/wasnorm_wordpool_less_exclusions.txt	LTP338	ltpFR	0	15	0	SQUIRREL	1362	n/a	n/a	0	n/a	n/a	n/a	n/a	n/a
2908749	REC_WORD	wordpools/wasnorm_wordpool_less_exclusions.txt	LTP338	ltpFR	0	15	0	PORCUPINE	1107	n/a	n/a	0	n/a	n/a	n/a	n/a	n/a
2914372	REC_WORD	wordpools/wasnorm_wordpool_less_exclusions.txt	LTP338	ltpFR	0	15	1	PHOTO	1055	n/a	n/a	0	n/a	n/a	n/a	n/a	n/a
2967420	WORD	wordpools/wasnorm_wordpool_less_exclusions.txt	LTP338	ltpFR	0	16	0	WHALE	1601	n/a	n/a	1	0.422607421875	0.5869140625	0	upper	amplitud.ttf
2971635	WORD	wordpools/wasnorm_wordpool_less_exclusions.txt	LTP338	ltpFR	0	16	0	CAPE	237	n/a	n/a	1	0.422607421875	0.5869140625	0	upper	amplitud.ttf
2975798	WORD	wordpools/wasnorm_wordpool_less_exclusions.txt	LTP338	ltpFR	0	16	0	MINK	897	n/a	n/a	1	0.422607421875	0.5869140625	0	upper	amplitud.ttf
2979780	WORD	wordpools/wasnorm_wordpool_less_exclusions.txt	LTP338	ltpFR	0	16	0	ANTELOPE	27	n/a	n/a	1	0.422607421875	0.5869140625	0	upper	amplitud.ttf
2983828	WORD	wordpools/wasnorm_wordpool_less_exclusions.txt	LTP338	ltpFR	0	16	0	GOVERNOR	651	n/a	n/a	1	0.422607421875	0.5869140625	0	upper	amplitud.ttf
2987776	WORD	wordpools/wasnorm_wordpool_less_exclusions.txt	LTP338	ltpFR	0	16	0	VINE	1568	n/a	n/a	1	0.422607421875	0.5869140625	0	upper	amplitud.ttf
2991659	WORD	wordpools/wasnorm_wordpool_less_exclusions.txt	LTP338	ltpFR	0	16	1	BEER	114	n/a	n/a	0	0.57763671875	0.412841796875	1	lower	zerothre.ttf
2995789	WORD	wordpools/wasnorm_wordpool_less_exclusions.txt	LTP338	ltpFR	0	16	1	ROOST	1208	n/a	n/a	0	0.57763671875	0.412841796875	1	lower	zerothre.ttf
2999938	WORD	wordpools/wasnorm_wordpool_less_exclusions.txt	LTP338	ltpFR	0	16	1	LIST	830	n/a	n/a	0	0.57763671875	0.412841796875	1	lower	zerothre.ttf
3004136	WORD	wordpools/wasnorm_wordpool_less_exclusions.txt	LTP338	ltpFR	0	16	0	CHEDDAR	286	n/a	n/a	0	0.422607421875	0.5869140625	0	upper	amplitud.ttf
3008184	WORD	wordpools/wasnorm_wordpool_less_exclusions.txt	LTP338	ltpFR	0	16	0	EAGLE	512	n/a	n/a	0	0.422607421875	0.5869140625	0	upper	amplitud.ttf
3012382	WORD	wordpools/wasnorm_wordpool_less_exclusions.txt	LTP338	ltpFR	0	16	1	NEWSSTAND	949	n/a	n/a	0	0.57763671875	0.412841796875	1	lower	zerothre.ttf
3016397	WORD	wordpools/wasnorm_wordpool_less_exclusions.txt	LTP338	ltpFR	0	16	1	TROUSERS	1510	n/a	n/a	0	0.57763671875	0.412841796875	1	lower	zerothre.ttf
3020295	WORD	wordpools/wasnorm_wordpool_less_exclusions.txt	LTP338	ltpFR	0	16	1	FLIPPER	580	n/a	n/a	0	0.57763671875	0.412841796875	1	lower	zerothre.ttf
3024393	WORD	wordpools/wasnorm_wordpool_less_exclusions.txt	LTP338	ltpFR	0	16	1	BREAD	170	n/a	n/a	0	0.57763671875	0.412841796875	1	lower	zerothre.ttf
3028341	WORD	wordpools/wasnorm_wordpool_less_exclusions.txt	LTP338	ltpFR	0	16	1	TOAST	1471	n/a	n/a	0	0.57763671875	0.412841796875	1	lower	zerothre.ttf
3034290	REC_START	n/a	LTP338	ltpFR	0	16	n/a	n/a	n/a	n/a	n/a	n/a	n/a	n/a	n/a	n/a	n/a
3035883	REC_WORD	wordpools/wasnorm_wordpool_less_exclusions.txt	LTP338	ltpFR	0	16	1	BREAD	170	n/a	n/a	0	n/a	n/a	n/a	n/a	n/a
3037019	REC_WORD	wordpools/wasnorm_wordpool_less_exclusions.txt	LTP338	ltpFR	0	16	1	TOAST	1471	n/a	n/a	0	n/a	n/a	n/a	n/a	n/a
3038292	REC_WORD	wordpools/wasnorm_wordpool_less_exclusions.txt	LTP338	ltpFR	0	16	1	FLIPPER	580	n/a	n/a	0	n/a	n/a	n/a	n/a	n/a
3040589	REC_WORD	wordpools/wasnorm_wordpool_less_exclusions.txt	LTP338	ltpFR	0	16	0	CHEDDAR	286	n/a	n/a	0	n/a	n/a	n/a	n/a	n/a
3052410	REC_WORD	wordpools/wasnorm_wordpool_less_exclusions.txt	LTP338	ltpFR	0	16	0	WHALE	1601	n/a	n/a	1	n/a	n/a	n/a	n/a	n/a
3091145	REC_WORD	wordpools/wasnorm_wordpool_less_exclusions.txt	LTP338	ltpFR	0	16	1	ROOST	1208	n/a	n/a	0	n/a	n/a	n/a	n/a	n/a
3162715	REC_START	n/a	LTP338	ltpFR	0	n/a	n/a	n/a	n/a	n/a	n/a	n/a	n/a	n/a	n/a	n/a	n/a
3164405	FFR_REC_WORD	wordpools/wasnorm_wordpool_less_exclusions.txt	LTP338	ltpFR	0	n/a	1	POTATO	1115	n/a	n/a	1	n/a	n/a	n/a	n/a	n/a
3165975	FFR_REC_WORD	wordpools/wasnorm_wordpool_less_exclusions.txt	LTP338	ltpFR	0	n/a	-1	BEAN	105	n/a	n/a	-1	n/a	n/a	n/a	n/a	n/a
3167340	FFR_REC_WORD	wordpools/wasnorm_wordpool_less_exclusions.txt	LTP338	ltpFR	0	n/a	1	FLIPPER	580	n/a	n/a	0	n/a	n/a	n/a	n/a	n/a
3168645	FFR_REC_WORD	wordpools/wasnorm_wordpool_less_exclusions.txt	LTP338	ltpFR	0	n/a	1	BREAD	170	n/a	n/a	0	n/a	n/a	n/a	n/a	n/a
3170027	FFR_REC_WORD	wordpools/wasnorm_wordpool_less_exclusions.txt	LTP338	ltpFR	0	n/a	1	TOAST	1471	n/a	n/a	0	n/a	n/a	n/a	n/a	n/a
3171452	FFR_REC_WORD	wordpools/wasnorm_wordpool_less_exclusions.txt	LTP338	ltpFR	0	n/a	0	WHALE	1601	n/a	n/a	1	n/a	n/a	n/a	n/a	n/a
3172862	FFR_REC_WORD	wordpools/wasnorm_wordpool_less_exclusions.txt	LTP338	ltpFR	0	n/a	0	CHEDDAR	286	n/a	n/a	0	n/a	n/a	n/a	n/a	n/a
3174160	FFR_REC_WORD	wordpools/wasnorm_wordpool_less_exclusions.txt	LTP338	ltpFR	0	n/a	0	SCAPEGOAT	1244	n/a	n/a	1	n/a	n/a	n/a	n/a	n/a
3175664	FFR_REC_WORD	wordpools/wasnorm_wordpool_less_exclusions.txt	LTP338	ltpFR	0	n/a	-1	BOUILLON	154	n/a	n/a	-1	n/a	n/a	n/a	n/a	n/a
3177709	FFR_REC_WORD	wordpools/wasnorm_wordpool_less_exclusions.txt	LTP338	ltpFR	0	n/a	0	SQUIRREL	1362	n/a	n/a	0	n/a	n/a	n/a	n/a	n/a
3179149	FFR_REC_WORD	wordpools/wasnorm_wordpool_less_exclusions.txt	LTP338	ltpFR	0	n/a	0	PORCUPINE	1107	n/a	n/a	0	n/a	n/a	n/a	n/a	n/a
3180922	FFR_REC_WORD	wordpools/wasnorm_wordpool_less_exclusions.txt	LTP338	ltpFR	0	n/a	1	PANTHER	1009	n/a	n/a	1	n/a	n/a	n/a	n/a	n/a
3182452	FFR_REC_WORD	wordpools/wasnorm_wordpool_less_exclusions.txt	LTP338	ltpFR	0	n/a	1	COUGAR	387	n/a	n/a	1	n/a	n/a	n/a	n/a	n/a
3184167	FFR_REC_WORD	wordpools/wasnorm_wordpool_less_exclusions.txt	LTP338	ltpFR	0	n/a	-1	BARTENDER	92	n/a	n/a	-1	n/a	n/a	n/a	n/a	n/a
3186766	FFR_REC_WORD	wordpools/wasnorm_wordpool_less_exclusions.txt	LTP338	ltpFR	0	n/a	-1	BIOLOGIST	128	n/a	n/a	-1	n/a	n/a	n/a	n/a	n/a
3187766	FFR_REC_WORD_VV	wordpools/wasnorm_wordpool_less_exclusions.txt	LTP338	ltpFR	0	n/a	n/a	<>	-1	n/a	n/a	n/a	n/a	n/a	n/a	n/a	n/a
3188671	FFR_REC_WORD	wordpools/wasnorm_wordpool_less_exclusions.txt	LTP338	ltpFR	0	n/a	-1	MAJOR	859	n/a	n/a	-1	n/a	n/a	n/a	n/a	n/a
3197672	FFR_REC_WORD	wordpools/wasnorm_wordpool_less_exclusions.txt	LTP338	ltpFR	0	n/a	0	WINGS	1614	n/a	n/a	n/a	n/a	n/a	n/a	n/a	n/a
3207262	FFR_REC_WORD	wordpools/wasnorm_wordpool_less_exclusions.txt	LTP338	ltpFR	0	n/a	0	WAITER	1580	n/a	n/a	1	n/a	n/a	n/a	n/a	n/a
3208527	FFR_REC_WORD	wordpools/wasnorm_wordpool_less_exclusions.txt	LTP338	ltpFR	0	n/a	0	HOSTESS	723	n/a	n/a	1	n/a	n/a	n/a	n/a	n/a
3209943	FFR_REC_WORD	wordpools/wasnorm_wordpool_less_exclusions.txt	LTP338	ltpFR	0	n/a	1	TECHNICIAN	1443	n/a	n/a	1	n/a	n/a	n/a	n/a	n/a
3216578	FFR_REC_WORD	wordpools/wasnorm_wordpool_less_exclusions.txt	LTP338	ltpFR	0	n/a	1	SISTER	1312	n/a	n/a	1	n/a	n/a	n/a	n/a	n/a
3231003	FFR_REC_WORD	wordpools/wasnorm_wordpool_less_exclusions.txt	LTP338	ltpFR	0	n/a	-1	PLAZA	1088	n/a	n/a	-1	n/a	n/a	n/a	n/a	n/a
3236203	FFR_REC_WORD	wordpools/wasnorm_wordpool_less_exclusions.txt	LTP338	ltpFR	0	n/a	n/a	ARROW	40	n/a	n/a	n/a	n/a	n/a	n/a	n/a	n/a
3237965	FFR_REC_WORD	wordpools/wasnorm_wordpool_less_exclusions.txt	LTP338	ltpFR	0	n/a	-1	BANK	83	n/a	n/a	-1	n/a	n/a	n/a	n/a	n/a
3259917	FFR_REC_WORD	wordpools/wasnorm_wordpool_less_exclusions.txt	LTP338	ltpFR	0	n/a	-1	MUSTARD	935	n/a	n/a	-1	n/a	n/a	n/a	n/a	n/a
3261248	FFR_REC_WORD	wordpools/wasnorm_wordpool_less_exclusions.txt	LTP338	ltpFR	0	n/a	1	KETCHUP	771	n/a	n/a	0	n/a	n/a	n/a	n/a	n/a
3262603	FFR_REC_WORD	wordpools/wasnorm_wordpool_less_exclusions.txt	LTP338	ltpFR	0	n/a	1	MAYONNAISE	880	n/a	n/a	0	n/a	n/a	n/a	n/a	n/a
3268353	FFR_REC_WORD	wordpools/wasnorm_wordpool_less_exclusions.txt	LTP338	ltpFR	0	n/a	1	THICKET	1455	n/a	n/a	1	n/a	n/a	n/a	n/a	n/a
3289411	FFR_REC_WORD	wordpools/wasnorm_wordpool_less_exclusions.txt	LTP338	ltpFR	0	n/a	1	FRUIT	610	n/a	n/a	1	n/a	n/a	n/a	n/a	n/a
3294286	FFR_REC_WORD	wordpools/wasnorm_wordpool_less_exclusions.txt	LTP338	ltpFR	0	n/a	0	ORANGE	980	n/a	n/a	0	n/a	n/a	n/a	n/a	n/a
3295941	FFR_REC_WORD	wordpools/wasnorm_wordpool_less_exclusions.txt	LTP338	ltpFR	0	n/a	0	EYE	545	n/a	n/a	0	n/a	n/a	n/a	n/a	n/a
3304006	FFR_REC_WORD	wordpools/wasnorm_wordpool_less_exclusions.txt	LTP338	ltpFR	0	n/a	n/a	HYPE	-1	n/a	n/a	n/a	n/a	n/a	n/a	n/a	n/a
3305271	FFR_REC_WORD	wordpools/wasnorm_wordpool_less_exclusions.txt	LTP338	ltpFR	0	n/a	n/a	METAL	-1	n/a	n/a	n/a	n/a	n/a	n/a	n/a	n/a
3323961	FFR_REC_WORD	wordpools/wasnorm_wordpool_less_exclusions.txt	LTP338	ltpFR	0	n/a	0	CAPE	237	n/a	n/a	1	n/a	n/a	n/a	n/a	n/a
3325166	FFR_REC_WORD	wordpools/wasnorm_wordpool_less_exclusions.txt	LTP338	ltpFR	0	n/a	1	APRON	35	n/a	n/a	0	n/a	n/a	n/a	n/a	n/a
3326561	FFR_REC_WORD	wordpools/wasnorm_wordpool_less_exclusions.txt	LTP338	ltpFR	0	n/a	1	KITCHEN	778	n/a	n/a	0	n/a	n/a	n/a	n/a	n/a
3403303	FFR_REC_WORD	wordpools/wasnorm_wordpool_less_exclusions.txt	LTP338	ltpFR	0	n/a	0	INFANT	737	n/a	n/a	0	n/a	n/a	n/a	n/a	n/a
3408523	FFR_REC_WORD	wordpools/wasnorm_wordpool_less_exclusions.txt	LTP338	ltpFR	0	n/a	0	SEAL	1262	n/a	n/a	1	n/a	n/a	n/a	n/a	n/a
3415852	FFR_REC_WORD	wordpools/wasnorm_wordpool_less_exclusions.txt	LTP338	ltpFR	0	n/a	0	WRENCH	1625	n/a	n/a	0	n/a	n/a	n/a	n/a	n/a
3463360	REST_REWET	n/a	LTP338	ltpFR	0	16	n/a	n/a	n/a	n/a	n/a	n/a	n/a	n/a	n/a	n/a	n/a
3912676	REC_START	n/a	LTP338	ltpFR	0	1	n/a	n/a	n/a	n/a	n/a	n/a	n/a	n/a	n/a	n/a	n/a
3912707	RECOG_TARGET	n/a	LTP338	ltpFR	0	1	1	BLUEPRINT	142	1	5	0	n/a	n/a	n/a	n/a	n/a
3914540	RECOG_RESP	n/a	LTP338	ltpFR	0	1	1	BLUEPRINT	142	1	n/a	0	n/a	n/a	n/a	n/a	n/a
3917063	RECOG_CONF	n/a	LTP338	ltpFR	0	1	1	BLUEPRINT	142	n/a	5	0	n/a	n/a	n/a	n/a	n/a
3920537	RECOG_LURE	n/a	LTP338	ltpFR	0	1	n/a	CORK	380	0	5	n/a	n/a	n/a	n/a	n/a	n/a
3922529	RECOG_RESP	n/a	LTP338	ltpFR	0	1	n/a	CORK	380	0	n/a	n/a	n/a	n/a	n/a	n/a	n/a
3925733	RECOG_CONF	n/a	LTP338	ltpFR	0	1	n/a	CORK	380	n/a	5	n/a	n/a	n/a	n/a	n/a	n/a
3928599	RECOG_LURE	n/a	LTP338	ltpFR	0	1	n/a	RUG	1215	0	4	n/a	n/a	n/a	n/a	n/a	n/a
3930324	RECOG_RESP	n/a	LTP338	ltpFR	0	1	n/a	RUG	1215	0	n/a	n/a	n/a	n/a	n/a	n/a	n/a
3932843	RECOG_CONF	n/a	LTP338	ltpFR	0	1	n/a	RUG	1215	n/a	4	n/a	n/a	n/a	n/a	n/a	n/a
3934580	RECOG_TARGET	n/a	LTP338	ltpFR	0	1	1	CUFF	423	1	5	0	n/a	n/a	n/a	n/a	n/a
3936060	RECOG_RESP	n/a	LTP338	ltpFR	0	1	1	CUFF	423	1	n/a	0	n/a	n/a	n/a	n/a	n/a
3938703	RECOG_CONF	n/a	LTP338	ltpFR	0	1	1	CUFF	423	n/a	5	0	n/a	n/a	n/a	n/a	n/a
3941126	RECOG_LURE	n/a	LTP338	ltpFR	0	1	n/a	FOE	587	0	5	n/a	n/a	n/a	n/a	n/a	n/a
3942799	RECOG_RESP	n/a	LTP338	ltpFR	0	1	n/a	FOE	587	0	n/a	n/a	n/a	n/a	n/a	n/a	n/a
3944923	RECOG_CONF	n/a	LTP338	ltpFR	0	1	n/a	FOE	587	n/a	5	n/a	n/a	n/a	n/a	n/a	n/a
3947207	RECOG_LURE	n/a	LTP338	ltpFR	0	1	n/a	GATE	625	0	5	n/a	n/a	n/a	n/a	n/a	n/a
3948419	RECOG_RESP	n/a	LTP338	ltpFR	0	1	n/a	GATE	625	0	n/a	n/a	n/a	n/a	n/a	n/a	n/a
3950303	RECOG_CONF	n/a	LTP338	ltpFR	0	1	n/a	GATE	625	n/a	5	n/a	n/a	n/a	n/a	n/a	n/a
3952505	RECOG_LURE	n/a	LTP338	ltpFR	0	1	n/a	NITROGEN	954	0	4	n/a	n/a	n/a	n/a	n/a	n/a
3954224	RECOG_RESP	n/a	LTP338	ltpFR	0	1	n/a	NITROGEN	954	0	n/a	n/a	n/a	n/a	n/a	n/a	n/a
3956033	RECOG_CONF	n/a	LTP338	ltpFR	0	1	n/a	NITROGEN	954	n/a	4	n/a	n/a	n/a	n/a	n/a	n/a
3958368	RECOG_TARGET	n/a	LTP338	ltpFR	0	1	1	BONE	148	1	5	0	n/a	n/a	n/a	n/a	n/a
3960120	RECOG_RESP	n/a	LTP338	ltpFR	0	1	1	BONE	148	1	n/a	0	n/a	n/a	n/a	n/a	n/a
3961873	RECOG_CONF	n/a	LTP338	ltpFR	0	1	1	BONE	148	n/a	5	0	n/a	n/a	n/a	n/a	n/a
3964099	RECOG_TARGET	n/a	LTP338	ltpFR	0	1	-1	BUBBLE	183	0	3	-1	n/a	n/a	n/a	n/a	n/a
3966319	RECOG_RESP	n/a	LTP338	ltpFR	0	1	-1	BUBBLE	183	0	n/a	-1	n/a	n/a	n/a	n/a	n/a
3968171	RECOG_CONF	n/a	LTP338	ltpFR	0	1	-1	BUBBLE	183	n/a	3	-1	n/a	n/a	n/a	n/a	n/a
3970714	RECOG_LURE	n/a	LTP338	ltpFR	0	1	n/a	BOX	159	1	2	n/a	n/a	n/a	n/a	n/a	n/a
3973400	RECOG_RESP	n/a	LTP338	ltpFR	0	1	n/a	BOX	159	1	n/a	n/a	n/a	n/a	n/a	n/a	n/a
3975188	RECOG_CONF	n/a	LTP338	ltpFR	0	1	n/a	BOX	159	n/a	2	n/a	n/a	n/a	n/a	n/a	n/a
3977343	RECOG_TARGET	n/a	LTP338	ltpFR	0	1	1	MEAL	882	1	5	0	n/a	n/a	n/a	n/a	n/a
3978815	RECOG_RESP	n/a	LTP338	ltpFR	0	1	1	MEAL	882	1	n/a	0	n/a	n/a	n/a	n/a	n/a
3980453	RECOG_CONF	n/a	LTP338	ltpFR	0	1	1	MEAL	882	n/a	5	0	n/a	n/a	n/a	n/a	n/a
3982442	RECOG_TARGET	n/a	LTP338	ltpFR	0	1	1	NEWSSTAND	949	0	1	0	n/a	n/a	n/a	n/a	n/a
3984364	RECOG_RESP	n/a	LTP338	ltpFR	0	1	1	NEWSSTAND	949	0	n/a	0	n/a	n/a	n/a	n/a	n/a
3986848	RECOG_CONF	n/a	LTP338	ltpFR	0	1	1	NEWSSTAND	949	n/a	1	0	n/a	n/a	n/a	n/a	n/a
3988971	RECOG_TARGET	n/a	LTP338	ltpFR	0	1	0	CLASS	318	1	5	1	n/a	n/a	n/a	n/a	n/a
3990795	RECOG_RESP	n/a	LTP338	ltpFR	0	1	0	CLASS	318	1	n/a	1	n/a	n/a	n/a	n/a	n/a
3993803	RECOG_CONF	n/a	LTP338	ltpFR	0	1	0	CLASS	318	n/a	5	1	n/a	n/a	n/a	n/a	n/a
3995652	RECOG_TARGET	n/a	LTP338	ltpFR	0	1	1	ANIMAL	23	0	3	1	n/a	n/a	n/a	n/a	n/a
3998239	RECOG_RESP	n/a	LTP338	ltpFR	0	1	1	ANIMAL	23	0	n/a	1	n/a	n/a	n/a	n/a	n/a
4000071	RECOG_CONF	n/a	LTP338	ltpFR	0	1	1	ANIMAL	23	n/a	3	1	n/a	n/a	n/a	n/a	n/a
4001882	RECOG_TARGET	n/a	LTP338	ltpFR	0	1	-1	MAJOR	859	1	5	-1	n/a	n/a	n/a	n/a	n/a
4003195	RECOG_RESP	n/a	LTP338	ltpFR	0	1	-1	MAJOR	859	1	n/a	-1	n/a	n/a	n/a	n/a	n/a
4004653	RECOG_CONF	n/a	LTP338	ltpFR	0	1	-1	MAJOR	859	n/a	5	-1	n/a	n/a	n/a	n/a	n/a
4006448	RECOG_LURE	n/a	LTP338	ltpFR	0	1	n/a	PERSONNEL	1053	0	3	n/a	n/a	n/a	n/a	n/a	n/a
4008189	RECOG_RESP	n/a	LTP338	ltpFR	0	1	n/a	PERSONNEL	1053	0	n/a	n/a	n/a	n/a	n/a	n/a	n/a
4009971	RECOG_CONF	n/a	LTP338	ltpFR	0	1	n/a	PERSONNEL	1053	n/a	3	n/a	n/a	n/a	n/a	n/a	n/a
4011827	RECOG_TARGET	n/a	LTP338	ltpFR	0	1	-1	LADY	794	1	4	-1	n/a	n/a	n/a	n/a	n/a
4013460	RECOG_RESP	n/a	LTP338	ltpFR	0	1	-1	LADY	794	1	n/a	-1	n/a	n/a	n/a	n/a	n/a
4015213	RECOG_CONF	n/a	LTP338	ltpFR	0	1	-1	LADY	794	n/a	4	-1	n/a	n/a	n/a	n/a	n/a
4017125	RECOG_TARGET	n/a	LTP338	ltpFR	0	1	1	PIKE	1067	1	5	0	n/a	n/a	n/a	n/a	n/a
4019710	RECOG_RESP	n/a	LTP338	ltpFR	0	1	1	PIKE	1067	1	n/a	0	n/a	n/a	n/a	n/a	n/a
4022103	RECOG_CONF	n/a	LTP338	ltpFR	0	1	1	PIKE	1067	n/a	5	0	n/a	n/a	n/a	n/a	n/a
4023922	RECOG_TARGET	n/a	LTP338	ltpFR	0	1	0	ANTELOPE	27	1	4	1	n/a	n/a	n/a	n/a	n/a
4025730	RECOG_RESP	n/a	LTP338	ltpFR	0	1	0	ANTELOPE	27	1	n/a	1	n/a	n/a	n/a	n/a	n/a
4027903	RECOG_CONF	n/a	LTP338	ltpFR	0	1	0	ANTELOPE	27	n/a	4	1	n/a	n/a	n/a	n/a	n/a
4029720	RECOG_LURE	n/a	LTP338	ltpFR	0	1	n/a	ELECTRICIAN	521	0	3	n/a	n/a	n/a	n/a	n/a	n/a
4031444	RECOG_RESP	n/a	LTP338	ltpFR	0	1	n/a	ELECTRICIAN	521	0	n/a	n/a	n/a	n/a	n/a	n/a	n/a
4033031	RECOG_CONF	n/a	LTP338	ltpFR	0	1	n/a	ELECTRICIAN	521	n/a	3	n/a	n/a	n/a	n/a	n/a	n/a
4118798	REC_START	n/a	LTP338	ltpFR	0	2	n/a	n/a	n/a	n/a	n/a	n/a	n/a	n/a	n/a	n/a	n/a
4118812	RECOG_LURE	n/a	LTP338	ltpFR	0	2	n/a	SOFA	1342	0	3	n/a	n/a	n/a	n/a	n/a	n/a
4120146	RECOG_RESP	n/a	LTP338	ltpFR	0	2	n/a	SOFA	1342	0	n/a	n/a	n/a	n/a	n/a	n/a	n/a
4122703	RECOG_CONF	n/a	LTP338	ltpFR	0	2	n/a	SOFA	1342	n/a	3	n/a	n/a	n/a	n/a	n/a	n/a
4124494	RECOG_LURE	n/a	LTP338	ltpFR	0	2	n/a	PLIERS	1089	0	4	n/a	n/a	n/a	n/a	n/a	n/a
4126216	RECOG_RESP	n/a	LTP338	ltpFR	0	2	n/a	PLIERS	1089	0	n/a	n/a	n/a	n/a	n/a	n/a	n/a
4127695	RECOG_CONF	n/a	LTP338	ltpFR	0	2	n/a	PLIERS	1089	n/a	4	n/a	n/a	n/a	n/a	n/a	n/a
4130007	RECOG_LURE	n/a	LTP338	ltpFR	0	2	n/a	EAR	513	0	3	n/a	n/a	n/a	n/a	n/a	n/a
4131696	RECOG_RESP	n/a	LTP338	ltpFR	0	2	n/a	EAR	513	0	n/a	n/a	n/a	n/a	n/a	n/a	n/a
4133113	RECOG_CONF	n/a	LTP338	ltpFR	0	2	n/a	EAR	513	n/a	3	n/a	n/a	n/a	n/a	n/a	n/a
4134971	RECOG_LURE	n/a	LTP338	ltpFR	0	2	n/a	CRICKET	408	0	2	n/a	n/a	n/a	n/a	n/a	n/a
4137356	RECOG_RESP	n/a	LTP338	ltpFR	0	2	n/a	CRICKET	408	0	n/a	n/a	n/a	n/a	n/a	n/a	n/a
4139150	RECOG_CONF	n/a	LTP338	ltpFR	0	2	n/a	CRICKET	408	n/a	2	n/a	n/a	n/a	n/a	n/a	n/a
4141052	RECOG_TARGET	n/a	LTP338	ltpFR	0	2	1	ROOST	1208	1	5	0	n/a	n/a	n/a	n/a	n/a
4142277	RECOG_RESP	n/a	LTP338	ltpFR	0	2	1	ROOST	1208	1	n/a	0	n/a	n/a	n/a	n/a	n/a
4143725	RECOG_CONF	n/a	LTP338	ltpFR	0	2	1	ROOST	1208	n/a	5	0	n/a	n/a	n/a	n/a	n/a
4145916	RECOG_LURE	n/a	LTP338	ltpFR	0	2	n/a	CREEK	404	0	2	n/a	n/a	n/a	n/a	n/a	n/a
4147996	RECOG_RESP	n/a	LTP338	ltpFR	0	2	n/a	CREEK	404	0	n/a	n/a	n/a	n/a	n/a	n/a	n/a
4149910	RECOG_CONF	n/a	LTP338	ltpFR	0	2	n/a	CREEK	404	n/a	2	n/a	n/a	n/a	n/a	n/a	n/a
4151665	RECOG_LURE	n/a	LTP338	ltpFR	0	2	n/a	MILK	895	0	2	n/a	n/a	n/a	n/a	n/a	n/a
4153201	RECOG_RESP	n/a	LTP338	ltpFR	0	2	n/a	MILK	895	0	n/a	n/a	n/a	n/a	n/a	n/a	n/a
4155920	RECOG_CONF	n/a	LTP338	ltpFR	0	2	n/a	MILK	895	n/a	2	n/a	n/a	n/a	n/a	n/a	n/a
4157529	RECOG_TARGET	n/a	LTP338	ltpFR	0	2	0	SAUCER	1237	0	3	1	n/a	n/a	n/a	n/a	n/a
4159851	RECOG_RESP	n/a	LTP338	ltpFR	0	2	0	SAUCER	1237	0	n/a	1	n/a	n/a	n/a	n/a	n/a
4161643	RECOG_CONF	n/a	LTP338	ltpFR	0	2	0	SAUCER	1237	n/a	3	1	n/a	n/a	n/a	n/a	n/a
4163742	RECOG_TARGET	n/a	LTP338	ltpFR	0	2	-1	BABY	64	0	3	-1	n/a	n/a	n/a	n/a	n/a
4165411	RECOG_RESP	n/a	LTP338	ltpFR	0	2	-1	BABY	64	0	n/a	-1	n/a	n/a	n/a	n/a	n/a
4167463	RECOG_CONF	n/a	LTP338	ltpFR	0	2	-1	BABY	64	n/a	3	-1	n/a	n/a	n/a	n/a	n/a
4169139	RECOG_TARGET	n/a	LTP338	ltpFR	0	2	-1	BLANKET	135	1	1	-1	n/a	n/a	n/a	n/a	n/a
4173014	RECOG_RESP	n/a	LTP338	ltpFR	0	2	-1	BLANKET	135	1	n/a	-1	n/a	n/a	n/a	n/a	n/a
4176530	RECOG_CONF	n/a	LTP338	ltpFR	0	2	-1	BLANKET	135	n/a	1	-1	n/a	n/a	n/a	n/a	n/a
4178285	RECOG_TARGET	n/a	LTP338	ltpFR	0	2	-1	BAY	102	0	2	-1	n/a	n/a	n/a	n/a	n/a
4180696	RECOG_RESP	n/a	LTP338	ltpFR	0	2	-1	BAY	102	0	n/a	-1	n/a	n/a	n/a	n/a	n/a
4183130	RECOG_CONF	n/a	LTP338	ltpFR	0	2	-1	BAY	102	n/a	2	-1	n/a	n/a	n/a	n/a	n/a
4184965	RECOG_TARGET	n/a	LTP338	ltpFR	0	2	-1	DESSERT	453	1	2	-1	n/a	n/a	n/a	n/a	n/a
4187317	RECOG_RESP	n/a	LTP338	ltpFR	0	2	-1	DESSERT	453	1	n/a	-1	n/a	n/a	n/a	n/a	n/a
4188790	RECOG_CONF	n/a	LTP338	ltpFR	0	2	-1	DESSERT	453	n/a	2	-1	n/a	n/a	n/a	n/a	n/a
4190730	RECOG_LURE	n/a	LTP338	ltpFR	0	2	n/a	SYRINGE	1424	0	4	n/a	n/a	n/a	n/a	n/a	n/a
4191811	RECOG_RESP	n/a	LTP338	ltpFR	0	2	n/a	SYRINGE	1424	0	n/a	n/a	n/a	n/a	n/a	n/a	n/a
4194265	RECOG_CONF	n/a	LTP338	ltpFR	0	2	n/a	SYRINGE	1424	n/a	4	n/a	n/a	n/a	n/a	n/a	n/a
4195977	RECOG_TARGET	n/a	LTP338	ltpFR	0	2	-1	TAXI	1438	1	5	-1	n/a	n/a	n/a	n/a	n/a
4197072	RECOG_RESP	n/a	LTP338	ltpFR	0	2	-1	TAXI	1438	1	n/a	-1	n/a	n/a	n/a	n/a	n/a
4198925	RECOG_CONF	n/a	LTP338	ltpFR	0	2	-1	TAXI	1438	n/a	5	-1	n/a	n/a	n/a	n/a	n/a
4200875	RECOG_LURE	n/a	LTP338	ltpFR	0	2	n/a	CLERK	321	0	3	n/a	n/a	n/a	n/a	n/a	n/a
4202721	RECOG_RESP	n/a	LTP338	ltpFR	0	2	n/a	CLERK	321	0	n/a	n/a	n/a	n/a	n/a	n/a	n/a
4204323	RECOG_CONF	n/a	LTP338	ltpFR	0	2	n/a	CLERK	321	n/a	3	n/a	n/a	n/a	n/a	n/a	n/a
4206222	RECOG_TARGET	n/a	LTP338	ltpFR	0	2	1	FLIPPER	580	1	5	0	n/a	n/a	n/a	n/a	n/a
4207222	RECOG_RESP	n/a	LTP338	ltpFR	0	2	1	FLIPPER	580	1	n/a	0	n/a	n/a	n/a	n/a	n/a
4208855	RECOG_CONF	n/a	LTP338	ltpFR	0	2	1	FLIPPER	580	n/a	5	0	n/a	n/a	n/a	n/a	n/a
4210738	RECOG_LURE	n/a	LTP338	ltpFR	0	2	n/a	VIRUS	1572	0	5	n/a	n/a	n/a	n/a	n/a	n/a
4212331	RECOG_RESP	n/a	LTP338	ltpFR	0	2	n/a	VIRUS	1572	0	n/a	n/a	n/a	n/a	n/a	n/a	n/a
4214085	RECOG_CONF	n/a	LTP338	ltpFR	0	2	n/a	VIRUS	1572	n/a	5	n/a	n/a	n/a	n/a	n/a	n/a
4216218	RECOG_LURE	n/a	LTP338	ltpFR	0	2	n/a	SLUG	1329	0	3	n/a	n/a	n/a	n/a	n/a	n/a
4217981	RECOG_RESP	n/a	LTP338	ltpFR	0	2	n/a	SLUG	1329	0	n/a	n/a	n/a	n/a	n/a	n/a	n/a
4220863	RECOG_CONF	n/a	LTP338	ltpFR	0	2	n/a	SLUG	1329	n/a	3	n/a	n/a	n/a	n/a	n/a	n/a
4222666	RECOG_LURE	n/a	LTP338	ltpFR	0	2	n/a	PIZZA	1079	0	2	n/a	n/a	n/a	n/a	n/a	n/a
4224551	RECOG_RESP	n/a	LTP338	ltpFR	0	2	n/a	PIZZA	1079	0	n/a	n/a	n/a	n/a	n/a	n/a	n/a
4226270	RECOG_CONF	n/a	LTP338	ltpFR	0	2	n/a	PIZZA	1079	n/a	2	n/a	n/a	n/a	n/a	n/a	n/a
4228296	RECOG_TARGET	n/a	LTP338	ltpFR	0	2	0	PATIO	1025	1	4	1	n/a	n/a	n/a	n/a	n/a
4229852	RECOG_RESP	n/a	LTP338	ltpFR	0	2	0	PATIO	1025	1	n/a	1	n/a	n/a	n/a	n/a	n/a
4231365	RECOG_CONF	n/a	LTP338	ltpFR	0	2	0	PATIO	1025	n/a	4	1	n/a	n/a	n/a	n/a	n/a
4237780	REC_START	n/a	LTP338	ltpFR	0	3	n/a	n/a	n/a	n/a	n/a	n/a	n/a	n/a	n/a	n/a	n/a
4237808	RECOG_TARGET	n/a	LTP338	ltpFR	0	3	1	TROUSERS	1510	1	4	0	n/a	n/a	n/a	n/a	n/a
4238929	RECOG_RESP	n/a	LTP338	ltpFR	0	3	1	TROUSERS	1510	1	n/a	0	n/a	n/a	n/a	n/a	n/a
4240517	RECOG_CONF	n/a	LTP338	ltpFR	0	3	1	TROUSERS	1510	n/a	4	0	n/a	n/a	n/a	n/a	n/a
4242424	RECOG_TARGET	n/a	LTP338	ltpFR	0	3	-1	PEANUT	1032	1	3	-1	n/a	n/a	n/a	n/a	n/a
4244219	RECOG_RESP	n/a	LTP338	ltpFR	0	3	-1	PEANUT	1032	1	n/a	-1	n/a	n/a	n/a	n/a	n/a
4245755	RECOG_CONF	n/a	LTP338	ltpFR	0	3	-1	PEANUT	1032	n/a	3	-1	n/a	n/a	n/a	n/a	n/a
4247688	RECOG_TARGET	n/a	LTP338	ltpFR	0	3	1	TROMBONE	1508	1	4	0	n/a	n/a	n/a	n/a	n/a
4249729	RECOG_RESP	n/a	LTP338	ltpFR	0	3	1	TROMBONE	1508	1	n/a	0	n/a	n/a	n/a	n/a	n/a
4251437	RECOG_CONF	n/a	LTP338	ltpFR	0	3	1	TROMBONE	1508	n/a	4	0	n/a	n/a	n/a	n/a	n/a
4253301	RECOG_LURE	n/a	LTP338	ltpFR	0	3	n/a	MAP	865	0	3	n/a	n/a	n/a	n/a	n/a	n/a
4254853	RECOG_RESP	n/a	LTP338	ltpFR	0	3	n/a	MAP	865	0	n/a	n/a	n/a	n/a	n/a	n/a	n/a
4256935	RECOG_CONF	n/a	LTP338	ltpFR	0	3	n/a	MAP	865	n/a	3	n/a	n/a	n/a	n/a	n/a	n/a
4258848	RECOG_LURE	n/a	LTP338	ltpFR	0	3	n/a	TIE	1466	0	2	n/a	n/a	n/a	n/a	n/a	n/a
4261193	RECOG_RESP	n/a	LTP338	ltpFR	0	3	n/a	TIE	1466	0	n/a	n/a	n/a	n/a	n/a	n/a	n/a
4263112	RECOG_CONF	n/a	LTP338	ltpFR	0	3	n/a	TIE	1466	n/a	2	n/a	n/a	n/a	n/a	n/a	n/a
4265262	RECOG_TARGET	n/a	LTP338	ltpFR	0	3	1	PANTHER	1009	1	5	1	n/a	n/a	n/a	n/a	n/a
4266214	RECOG_RESP	n/a	LTP338	ltpFR	0	3	1	PANTHER	1009	1	n/a	1	n/a	n/a	n/a	n/a	n/a
4268047	RECOG_CONF	n/a	LTP338	ltpFR	0	3	1	PANTHER	1009	n/a	5	1	n/a	n/a	n/a	n/a	n/a
4270010	RECOG_TARGET	n/a	LTP338	ltpFR	0	3	-1	BLACKBOARD	133	0	3	-1	n/a	n/a	n/a	n/a	n/a
4271438	RECOG_RESP	n/a	LTP338	ltpFR	0	3	-1	BLACKBOARD	133	0	n/a	-1	n/a	n/a	n/a	n/a	n/a
4273415	RECOG_CONF	n/a	LTP338	ltpFR	0	3	-1	BLACKBOARD	133	n/a	3	-1	n/a	n/a	n/a	n/a	n/a
4275408	RECOG_TARGET	n/a	LTP338	ltpFR	0	3	-1	CASTLE	256	1	5	-1	n/a	n/a	n/a	n/a	n/a
4276544	RECOG_RESP	n/a	LTP338	ltpFR	0	3	-1	CASTLE	256	1	n/a	-1	n/a	n/a	n/a	n/a	n/a
4278227	RECOG_CONF	n/a	LTP338	ltpFR	0	3	-1	CASTLE	256	n/a	5	-1	n/a	n/a	n/a	n/a	n/a
4280355	RECOG_TARGET	n/a	LTP338	ltpFR	0	3	0	EYELASH	546	1	5	0	n/a	n/a	n/a	n/a	n/a
4281344	RECOG_RESP	n/a	LTP338	ltpFR	0	3	0	EYELASH	546	1	n/a	0	n/a	n/a	n/a	n/a	n/a
4282997	RECOG_CONF	n/a	LTP338	ltpFR	0	3	0	EYELASH	546	n/a	5	0	n/a	n/a	n/a	n/a	n/a
4284870	RECOG_LURE	n/a	LTP338	ltpFR	0	3	n/a	PIG	1064	1	2	n/a	n/a	n/a	n/a	n/a	n/a
4287564	RECOG_RESP	n/a	LTP338	ltpFR	0	3	n/a	PIG	1064	1	n/a	n/a	n/a	n/a	n/a	n/a	n/a
4289822	RECOG_CONF	n/a	LTP338	ltpFR	0	3	n/a	PIG	1064	n/a	2	n/a	n/a	n/a	n/a	n/a	n/a
4291668	RECOG_TARGET	n/a	LTP338	ltpFR	0	3	-1	BEAN	105	1	5	-1	n/a	n/a	n/a	n/a	n/a
4292854	RECOG_RESP	n/a	LTP338	ltpFR	0	3	-1	BEAN	105	1	n/a	-1	n/a	n/a	n/a	n/a	n/a
4294737	RECOG_CONF	n/a	LTP338	ltpFR	0	3	-1	BEAN	105	n/a	5	-1	n/a	n/a	n/a	n/a	n/a
4296814	RECOG_TARGET	n/a	LTP338	ltpFR	0	3	-1	WICK	1607	0	3	-1	n/a	n/a	n/a	n/a	n/a
4300238	RECOG_RESP	n/a	LTP338	ltpFR	0	3	-1	WICK	1607	0	n/a	-1	n/a	n/a	n/a	n/a	n/a
4301965	RECOG_CONF	n/a	LTP338	ltpFR	0	3	-1	WICK	1607	n/a	3	-1	n/a	n/a	n/a	n/a	n/a
4304228	RECOG_TARGET	n/a	LTP338	ltpFR	0	3	-1	DOCUMENT	479	0	3	-1	n/a	n/a	n/a	n/a	n/a
4305988	RECOG_RESP	n/a	LTP338	ltpFR	0	3	-1	DOCUMENT	479	0	n/a	-1	n/a	n/a	n/a	n/a	n/a
4308205	RECOG_CONF	n/a	LTP338	ltpFR	0	3	-1	DOCUMENT	479	n/a	3	-1	n/a	n/a	n/a	n/a	n/a
4310192	RECOG_TARGET	n/a	LTP338	ltpFR	0	3	0	CAPE	237	1	5	1	n/a	n/a	n/a	n/a	n/a
4311784	RECOG_RESP	n/a	LTP338	ltpFR	0	3	0	CAPE	237	1	n/a	1	n/a	n/a	n/a	n/a	n/a
4313207	RECOG_CONF	n/a	LTP338	ltpFR	0	3	0	CAPE	237	n/a	5	1	n/a	n/a	n/a	n/a	n/a
4315356	RECOG_TARGET	n/a	LTP338	ltpFR	0	3	1	PIPE	1073	1	4	0	n/a	n/a	n/a	n/a	n/a
4317819	RECOG_RESP	n/a	LTP338	ltpFR	0	3	1	PIPE	1073	1	n/a	0	n/a	n/a	n/a	n/a	n/a
4319417	RECOG_CONF	n/a	LTP338	ltpFR	0	3	1	PIPE	1073	n/a	4	0	n/a	n/a	n/a	n/a	n/a
4321303	RECOG_TARGET	n/a	LTP338	ltpFR	0	3	-1	KNAPSACK	783	1	3	-1	n/a	n/a	n/a	n/a	n/a
4324219	RECOG_RESP	n/a	LTP338	ltpFR	0	3	-1	KNAPSACK	783	1	n/a	-1	n/a	n/a	n/a	n/a	n/a
4326215	RECOG_CONF	n/a	LTP338	ltpFR	0	3	-1	KNAPSACK	783	n/a	3	-1	n/a	n/a	n/a	n/a	n/a
4328217	RECOG_TARGET	n/a	LTP338	ltpFR	0	3	0	SEAL	1262	1	5	1	n/a	n/a	n/a	n/a	n/a
4329509	RECOG_RESP	n/a	LTP338	ltpFR	0	3	0	SEAL	1262	1	n/a	1	n/a	n/a	n/a	n/a	n/a
4331197	RECOG_CONF	n/a	LTP338	ltpFR	0	3	0	SEAL	1262	n/a	5	1	n/a	n/a	n/a	n/a	n/a
4333281	RECOG_TARGET	n/a	LTP338	ltpFR	0	3	0	LAKE	796	1	5	1	n/a	n/a	n/a	n/a	n/a
4334329	RECOG_RESP	n/a	LTP338	ltpFR	0	3	0	LAKE	796	1	n/a	1	n/a	n/a	n/a	n/a	n/a
4336277	RECOG_CONF	n/a	LTP338	ltpFR	0	3	0	LAKE	796	n/a	5	1	n/a	n/a	n/a	n/a	n/a
4338179	RECOG_LURE	n/a	LTP338	ltpFR	0	3	n/a	DONOR	485	0	3	n/a	n/a	n/a	n/a	n/a	n/a
4339658	RECOG_RESP	n/a	LTP338	ltpFR	0	3	n/a	DONOR	485	0	n/a	n/a	n/a	n/a	n/a	n/a	n/a
4341535	RECOG_CONF	n/a	LTP338	ltpFR	0	3	n/a	DONOR	485	n/a	3	n/a	n/a	n/a	n/a	n/a	n/a
4343327	RECOG_LURE	n/a	LTP338	ltpFR	0	3	n/a	RULER	1216	0	2	n/a	n/a	n/a	n/a	n/a	n/a
4345343	RECOG_RESP	n/a	LTP338	ltpFR	0	3	n/a	RULER	1216	0	n/a	n/a	n/a	n/a	n/a	n/a	n/a
4347182	RECOG_CONF	n/a	LTP338	ltpFR	0	3	n/a	RULER	1216	n/a	2	n/a	n/a	n/a	n/a	n/a	n/a
4354000	REC_START	n/a	LTP338	ltpFR	0	4	n/a	n/a	n/a	n/a	n/a	n/a	n/a	n/a	n/a	n/a	n/a
4354022	RECOG_LURE	n/a	LTP338	ltpFR	0	4	n/a	EMPIRE	530	0	2	n/a	n/a	n/a	n/a	n/a	n/a
4355398	RECOG_RESP	n/a	LTP338	ltpFR	0	4	n/a	EMPIRE	530	0	n/a	n/a	n/a	n/a	n/a	n/a	n/a
4358802	RECOG_CONF	n/a	LTP338	ltpFR	0	4	n/a	EMPIRE	530	n/a	2	n/a	n/a	n/a	n/a	n/a	n/a
4360869	RECOG_LURE	n/a	LTP338	ltpFR	0	4	n/a	DRAWING	494	0	3	n/a	n/a	n/a	n/a	n/a	n/a
4362068	RECOG_RESP	n/a	LTP338	ltpFR	0	4	n/a	DRAWING	494	0	n/a	n/a	n/a	n/a	n/a	n/a	n/a
4364275	RECOG_CONF	n/a	LTP338	ltpFR	0	4	n/a	DRAWING	494	n/a	3	n/a	n/a	n/a	n/a	n/a	n/a
4366400	RECOG_TARGET	n/a	LTP338	ltpFR	0	4	1	COBRA	336	1	5	1	n/a	n/a	n/a	n/a	n/a
4367569	RECOG_RESP	n/a	LTP338	ltpFR	0	4	1	COBRA	336	1	n/a	1	n/a	n/a	n/a	n/a	n/a
4370647	RECOG_CONF	n/a	LTP338	ltpFR	0	4	1	COBRA	336	n/a	5	1	n/a	n/a	n/a	n/a	n/a
4372565	RECOG_LURE	n/a	LTP338	ltpFR	0	4	n/a	HURRICANE	727	0	3	n/a	n/a	n/a	n/a	n/a	n/a
4373928	RECOG_RESP	n/a	LTP338	ltpFR	0	4	n/a	HURRICANE	727	0	n/a	n/a	n/a	n/a	n/a	n/a	n/a
4375395	RECOG_CONF	n/a	LTP338	ltpFR	0	4	n/a	HURRICANE	727	n/a	3	n/a	n/a	n/a	n/a	n/a	n/a
4377344	RECOG_TARGET	n/a	LTP338	ltpFR	0	4	0	POLYESTER	1100	1	3	1	n/a	n/a	n/a	n/a	n/a
4381074	RECOG_RESP	n/a	LTP338	ltpFR	0	4	0	POLYESTER	1100	1	n/a	1	n/a	n/a	n/a	n/a	n/a
4382765	RECOG_CONF	n/a	LTP338	ltpFR	0	4	0	POLYESTER	1100	n/a	3	1	n/a	n/a	n/a	n/a	n/a
4384592	RECOG_TARGET	n/a	LTP338	ltpFR	0	4	-1	PLAZA	1088	1	5	-1	n/a	n/a	n/a	n/a	n/a
4385774	RECOG_RESP	n/a	LTP338	ltpFR	0	4	-1	PLAZA	1088	1	n/a	-1	n/a	n/a	n/a	n/a	n/a
4387417	RECOG_CONF	n/a	LTP338	ltpFR	0	4	-1	PLAZA	1088	n/a	5	-1	n/a	n/a	n/a	n/a	n/a
4389322	RECOG_LURE	n/a	LTP338	ltpFR	0	4	n/a	HAMMOCK	681	0	4	n/a	n/a	n/a	n/a	n/a	n/a
4390393	RECOG_RESP	n/a	LTP338	ltpFR	0	4	n/a	HAMMOCK	681	0	n/a	n/a	n/a	n/a	n/a	n/a	n/a
4391917	RECOG_CONF	n/a	LTP338	ltpFR	0	4	n/a	HAMMOCK	681	n/a	4	n/a	n/a	n/a	n/a	n/a	n/a
4393987	RECOG_TARGET	n/a	LTP338	ltpFR	0	4	0	COMPANION	357	1	2	1	n/a	n/a	n/a	n/a	n/a
4396399	RECOG_RESP	n/a	LTP338	ltpFR	0	4	0	COMPANION	357	1	n/a	1	n/a	n/a	n/a	n/a	n/a
4398312	RECOG_CONF	n/a	LTP338	ltpFR	0	4	0	COMPANION	357	n/a	2	1	n/a	n/a	n/a	n/a	n/a
4400201	RECOG_TARGET	n/a	LTP338	ltpFR	0	4	1	RESTAURANT	1187	1	4	0	n/a	n/a	n/a	n/a	n/a
4401589	RECOG_RESP	n/a	LTP338	ltpFR	0	4	1	RESTAURANT	1187	1	n/a	0	n/a	n/a	n/a	n/a	n/a
4403637	RECOG_CONF	n/a	LTP338	ltpFR	0	4	1	RESTAURANT	1187	n/a	4	0	n/a	n/a	n/a	n/a	n/a
4405599	RECOG_TARGET	n/a	LTP338	ltpFR	0	4	1	REPTILE	1185	1	5	1	n/a	n/a	n/a	n/a	n/a
4407099	RECOG_RESP	n/a	LTP338	ltpFR	0	4	1	REPTILE	1185	1	n/a	1	n/a	n/a	n/a	n/a	n/a
4409007	RECOG_CONF	n/a	LTP338	ltpFR	0	4	1	REPTILE	1185	n/a	5	1	n/a	n/a	n/a	n/a	n/a
4410879	RECOG_TARGET	n/a	LTP338	ltpFR	0	4	0	SPICE	1350	1	5	0	n/a	n/a	n/a	n/a	n/a
4412414	RECOG_RESP	n/a	LTP338	ltpFR	0	4	0	SPICE	1350	1	n/a	0	n/a	n/a	n/a	n/a	n/a
4414217	RECOG_CONF	n/a	LTP338	ltpFR	0	4	0	SPICE	1350	n/a	5	0	n/a	n/a	n/a	n/a	n/a
4416194	RECOG_TARGET	n/a	LTP338	ltpFR	0	4	1	SHOE	1288	1	5	0	n/a	n/a	n/a	n/a	n/a
4417154	RECOG_RESP	n/a	LTP338	ltpFR	0	4	1	SHOE	1288	1	n/a	0	n/a	n/a	n/a	n/a	n/a
4419127	RECOG_CONF	n/a	LTP338	ltpFR	0	4	1	SHOE	1288	n/a	5	0	n/a	n/a	n/a	n/a	n/a
4420808	RECOG_TARGET	n/a	LTP338	ltpFR	0	4	-1	GROCERIES	663	1	5	-1	n/a	n/a	n/a	n/a	n/a
4421877	RECOG_RESP	n/a	LTP338	ltpFR	0	4	-1	GROCERIES	663	1	n/a	-1	n/a	n/a	n/a	n/a	n/a
4423717	RECOG_CONF	n/a	LTP338	ltpFR	0	4	-1	GROCERIES	663	n/a	5	-1	n/a	n/a	n/a	n/a	n/a
4425440	RECOG_LURE	n/a	LTP338	ltpFR	0	4	n/a	ACID	2	0	4	n/a	n/a	n/a	n/a	n/a	n/a
4426488	RECOG_RESP	n/a	LTP338	ltpFR	0	4	n/a	ACID	2	0	n/a	n/a	n/a	n/a	n/a	n/a	n/a
4428227	RECOG_CONF	n/a	LTP338	ltpFR	0	4	n/a	ACID	2	n/a	4	n/a	n/a	n/a	n/a	n/a	n/a
4429937	RECOG_TARGET	n/a	LTP338	ltpFR	0	4	-1	BOUILLON	154	1	5	-1	n/a	n/a	n/a	n/a	n/a
4431139	RECOG_RESP	n/a	LTP338	ltpFR	0	4	-1	BOUILLON	154	1	n/a	-1	n/a	n/a	n/a	n/a	n/a
4433137	RECOG_CONF	n/a	LTP338	ltpFR	0	4	-1	BOUILLON	154	n/a	5	-1	n/a	n/a	n/a	n/a	n/a
4434968	RECOG_LURE	n/a	LTP338	ltpFR	0	4	n/a	ISLAND	745	0	2	n/a	n/a	n/a	n/a	n/a	n/a
4436578	RECOG_RESP	n/a	LTP338	ltpFR	0	4	n/a	ISLAND	745	0	n/a	n/a	n/a	n/a	n/a	n/a	n/a
4438472	RECOG_CONF	n/a	LTP338	ltpFR	0	4	n/a	ISLAND	745	n/a	2	n/a	n/a	n/a	n/a	n/a	n/a
4440199	RECOG_LURE	n/a	LTP338	ltpFR	0	4	n/a	GRAVE	658	0	3	n/a	n/a	n/a	n/a	n/a	n/a
4441558	RECOG_RESP	n/a	LTP338	ltpFR	0	4	n/a	GRAVE	658	0	n/a	n/a	n/a	n/a	n/a	n/a	n/a
4443655	RECOG_CONF	n/a	LTP338	ltpFR	0	4	n/a	GRAVE	658	n/a	3	n/a	n/a	n/a	n/a	n/a	n/a
4445498	RECOG_TARGET	n/a	LTP338	ltpFR	0	4	0	OUTFIT	988	1	4	1	n/a	n/a	n/a	n/a	n/a
4446834	RECOG_RESP	n/a	LTP338	ltpFR	0	4	0	OUTFIT	988	1	n/a	1	n/a	n/a	n/a	n/a	n/a
4448287	RECOG_CONF	n/a	LTP338	ltpFR	0	4	0	OUTFIT	988	n/a	4	1	n/a	n/a	n/a	n/a	n/a
4450529	RECOG_LURE	n/a	LTP338	ltpFR	0	4	n/a	BULLETIN	195	0	2	n/a	n/a	n/a	n/a	n/a	n/a
4453508	RECOG_RESP	n/a	LTP338	ltpFR	0	4	n/a	BULLETIN	195	0	n/a	n/a	n/a	n/a	n/a	n/a	n/a
4455272	RECOG_CONF	n/a	LTP338	ltpFR	0	4	n/a	BULLETIN	195	n/a	2	n/a	n/a	n/a	n/a	n/a	n/a
4457258	RECOG_TARGET	n/a	LTP338	ltpFR	0	4	0	PUMPKIN	1142	1	5	1	n/a	n/a	n/a	n/a	n/a
4458384	RECOG_RESP	n/a	LTP338	ltpFR	0	4	0	PUMPKIN	1142	1	n/a	1	n/a	n/a	n/a	n/a	n/a
4460857	RECOG_CONF	n/a	LTP338	ltpFR	0	4	0	PUMPKIN	1142	n/a	5	1	n/a	n/a	n/a	n/a	n/a
4470683	REC_START	n/a	LTP338	ltpFR	0	5	n/a	n/a	n/a	n/a	n/a	n/a	n/a	n/a	n/a	n/a	n/a
4470703	RECOG_LURE	n/a	LTP338	ltpFR	0	5	n/a	DRYER	503	0	2	n/a	n/a	n/a	n/a	n/a	n/a
4472416	RECOG_RESP	n/a	LTP338	ltpFR	0	5	n/a	DRYER	503	0	n/a	n/a	n/a	n/a	n/a	n/a	n/a
4474675	RECOG_CONF	n/a	LTP338	ltpFR	0	5	n/a	DRYER	503	n/a	2	n/a	n/a	n/a	n/a	n/a	n/a
4476400	RECOG_TARGET	n/a	LTP338	ltpFR	0	5	0	POT	1114	1	3	0	n/a	n/a	n/a	n/a	n/a
4478027	RECOG_RESP	n/a	LTP338	ltpFR	0	5	0	POT	1114	1	n/a	0	n/a	n/a	n/a	n/a	n/a
4479878	RECOG_CONF	n/a	LTP338	ltpFR	0	5	0	POT	1114	n/a	3	0	n/a	n/a	n/a	n/a	n/a
4481581	RECOG_TARGET	n/a	LTP338	ltpFR	0	5	1	ESSAY	540	1	5	0	n/a	n/a	n/a	n/a	n/a
4482712	RECOG_RESP	n/a	LTP338	ltpFR	0	5	1	ESSAY	540	1	n/a	0	n/a	n/a	n/a	n/a	n/a
4484240	RECOG_CONF	n/a	LTP338	ltpFR	0	5	1	ESSAY	540	n/a	5	0	n/a	n/a	n/a	n/a	n/a
4485912	RECOG_TARGET	n/a	LTP338	ltpFR	0	5	0	METEOR	889	1	5	1	n/a	n/a	n/a	n/a	n/a
4487182	RECOG_RESP	n/a	LTP338	ltpFR	0	5	0	METEOR	889	1	n/a	1	n/a	n/a	n/a	n/a	n/a
4488900	RECOG_CONF	n/a	LTP338	ltpFR	0	5	0	METEOR	889	n/a	5	1	n/a	n/a	n/a	n/a	n/a
4490760	RECOG_LURE	n/a	LTP338	ltpFR	0	5	n/a	MOTHER	921	0	2	n/a	n/a	n/a	n/a	n/a	n/a
4492326	RECOG_RESP	n/a	LTP338	ltpFR	0	5	n/a	MOTHER	921	0	n/a	n/a	n/a	n/a	n/a	n/a	n/a
4495045	RECOG_CONF	n/a	LTP338	ltpFR	0	5	n/a	MOTHER	921	n/a	2	n/a	n/a	n/a	n/a	n/a	n/a
4496641	RECOG_TARGET	n/a	LTP338	ltpFR	0	5	0	CUPBOARD	425	1	5	1	n/a	n/a	n/a	n/a	n/a
4497687	RECOG_RESP	n/a	LTP338	ltpFR	0	5	0	CUPBOARD	425	1	n/a	1	n/a	n/a	n/a	n/a	n/a
4500470	RECOG_CONF	n/a	LTP338	ltpFR	0	5	0	CUPBOARD	425	n/a	5	1	n/a	n/a	n/a	n/a	n/a
4502021	RECOG_TARGET	n/a	LTP338	ltpFR	0	5	0	AUTHOR	61	1	5	1	n/a	n/a	n/a	n/a	n/a
4502957	RECOG_RESP	n/a	LTP338	ltpFR	0	5	0	AUTHOR	61	1	n/a	1	n/a	n/a	n/a	n/a	n/a
4504650	RECOG_CONF	n/a	LTP338	ltpFR	0	5	0	AUTHOR	61	n/a	5	1	n/a	n/a	n/a	n/a	n/a
4506302	RECOG_TARGET	n/a	LTP338	ltpFR	0	5	0	GRASSHOPPER	656	1	3	0	n/a	n/a	n/a	n/a	n/a
4508557	RECOG_RESP	n/a	LTP338	ltpFR	0	5	0	GRASSHOPPER	656	1	n/a	0	n/a	n/a	n/a	n/a	n/a
4510018	RECOG_CONF	n/a	LTP338	ltpFR	0	5	0	GRASSHOPPER	656	n/a	3	0	n/a	n/a	n/a	n/a	n/a
4511833	RECOG_LURE	n/a	LTP338	ltpFR	0	5	n/a	WALLET	1583	1	2	n/a	n/a	n/a	n/a	n/a	n/a
4514217	RECOG_RESP	n/a	LTP338	ltpFR	0	5	n/a	WALLET	1583	1	n/a	n/a	n/a	n/a	n/a	n/a	n/a
4515775	RECOG_CONF	n/a	LTP338	ltpFR	0	5	n/a	WALLET	1583	n/a	2	n/a	n/a	n/a	n/a	n/a	n/a
4517732	RECOG_LURE	n/a	LTP338	ltpFR	0	5	n/a	GLASSES	640	0	2	n/a	n/a	n/a	n/a	n/a	n/a
4520061	RECOG_RESP	n/a	LTP338	ltpFR	0	5	n/a	GLASSES	640	0	n/a	n/a	n/a	n/a	n/a	n/a	n/a
4521895	RECOG_CONF	n/a	LTP338	ltpFR	0	5	n/a	GLASSES	640	n/a	2	n/a	n/a	n/a	n/a	n/a	n/a
4523429	RECOG_LURE	n/a	LTP338	ltpFR	0	5	n/a	FOX	598	0	1	n/a	n/a	n/a	n/a	n/a	n/a
4525826	RECOG_RESP	n/a	LTP338	ltpFR	0	5	n/a	FOX	598	0	n/a	n/a	n/a	n/a	n/a	n/a	n/a
4527565	RECOG_CONF	n/a	LTP338	ltpFR	0	5	n/a	FOX	598	n/a	1	n/a	n/a	n/a	n/a	n/a	n/a
4529476	RECOG_TARGET	n/a	LTP338	ltpFR	0	5	1	COLT	349	1	5	1	n/a	n/a	n/a	n/a	n/a
4530607	RECOG_RESP	n/a	LTP338	ltpFR	0	5	1	COLT	349	1	n/a	1	n/a	n/a	n/a	n/a	n/a
4532110	RECOG_CONF	n/a	LTP338	ltpFR	0	5	1	COLT	349	n/a	5	1	n/a	n/a	n/a	n/a	n/a
4534040	RECOG_LURE	n/a	LTP338	ltpFR	0	5	n/a	BELLY	119	0	3	n/a	n/a	n/a	n/a	n/a	n/a
4535226	RECOG_RESP	n/a	LTP338	ltpFR	0	5	n/a	BELLY	119	0	n/a	n/a	n/a	n/a	n/a	n/a	n/a
4536838	RECOG_CONF	n/a	LTP338	ltpFR	0	5	n/a	BELLY	119	n/a	3	n/a	n/a	n/a	n/a	n/a	n/a
4538655	RECOG_LURE	n/a	LTP338	ltpFR	0	5	n/a	CANDIDATE	228	0	2	n/a	n/a	n/a	n/a	n/a	n/a
4540596	RECOG_RESP	n/a	LTP338	ltpFR	0	5	n/a	CANDIDATE	228	0	n/a	n/a	n/a	n/a	n/a	n/a	n/a
4543855	RECOG_CONF	n/a	LTP338	ltpFR	0	5	n/a	CANDIDATE	228	n/a	2	n/a	n/a	n/a	n/a	n/a	n/a
4545469	RECOG_TARGET	n/a	LTP338	ltpFR	0	5	1	CONDUCTOR	362	1	3	1	n/a	n/a	n/a	n/a	n/a
4546535	RECOG_RESP	n/a	LTP338	ltpFR	0	5	1	CONDUCTOR	362	1	n/a	1	n/a	n/a	n/a	n/a	n/a
4547958	RECOG_CONF	n/a	LTP338	ltpFR	0	5	1	CONDUCTOR	362	n/a	3	1	n/a	n/a	n/a	n/a	n/a
4549700	RECOG_TARGET	n/a	LTP338	ltpFR	0	5	1	SALAD	1224	1	4	0	n/a	n/a	n/a	n/a	n/a
4551822	RECOG_RESP	n/a	LTP338	ltpFR	0	5	1	SALAD	1224	1	n/a	0	n/a	n/a	n/a	n/a	n/a
4553500	RECOG_CONF	n/a	LTP338	ltpFR	0	5	1	SALAD	1224	n/a	4	0	n/a	n/a	n/a	n/a	n/a
4555330	RECOG_LURE	n/a	LTP338	ltpFR	0	5	n/a	INDIAN	736	0	3	n/a	n/a	n/a	n/a	n/a	n/a
4556636	RECOG_RESP	n/a	LTP338	ltpFR	0	5	n/a	INDIAN	736	0	n/a	n/a	n/a	n/a	n/a	n/a	n/a
4558518	RECOG_CONF	n/a	LTP338	ltpFR	0	5	n/a	INDIAN	736	n/a	3	n/a	n/a	n/a	n/a	n/a	n/a
4560195	RECOG_TARGET	n/a	LTP338	ltpFR	0	5	1	BALLOT	76	1	5	0	n/a	n/a	n/a	n/a	n/a
4561122	RECOG_RESP	n/a	LTP338	ltpFR	0	5	1	BALLOT	76	1	n/a	0	n/a	n/a	n/a	n/a	n/a
4563140	RECOG_CONF	n/a	LTP338	ltpFR	0	5	1	BALLOT	76	n/a	5	0	n/a	n/a	n/a	n/a	n/a
4564809	RECOG_TARGET	n/a	LTP338	ltpFR	0	5	0	MAID	856	1	3	1	n/a	n/a	n/a	n/a	n/a
4566732	RECOG_RESP	n/a	LTP338	ltpFR	0	5	0	MAID	856	1	n/a	1	n/a	n/a	n/a	n/a	n/a
4568368	RECOG_CONF	n/a	LTP338	ltpFR	0	5	0	MAID	856	n/a	3	1	n/a	n/a	n/a	n/a	n/a
4570240	RECOG_LURE	n/a	LTP338	ltpFR	0	5	n/a	GHOST	634	0	3	n/a	n/a	n/a	n/a	n/a	n/a
4571536	RECOG_RESP	n/a	LTP338	ltpFR	0	5	n/a	GHOST	634	0	n/a	n/a	n/a	n/a	n/a	n/a	n/a
4573248	RECOG_CONF	n/a	LTP338	ltpFR	0	5	n/a	GHOST	634	n/a	3	n/a	n/a	n/a	n/a	n/a	n/a
4579125	REC_START	n/a	LTP338	ltpFR	0	6	n/a	n/a	n/a	n/a	n/a	n/a	n/a	n/a	n/a	n/a	n/a
4579153	RECOG_LURE	n/a	LTP338	ltpFR	0	6	n/a	MOB	904	0	2	n/a	n/a	n/a	n/a	n/a	n/a
4580663	RECOG_RESP	n/a	LTP338	ltpFR	0	6	n/a	MOB	904	0	n/a	n/a	n/a	n/a	n/a	n/a	n/a
4582427	RECOG_CONF	n/a	LTP338	ltpFR	0	6	n/a	MOB	904	n/a	2	n/a	n/a	n/a	n/a	n/a	n/a
4584134	RECOG_LURE	n/a	LTP338	ltpFR	0	6	n/a	WARRIOR	1589	0	3	n/a	n/a	n/a	n/a	n/a	n/a
4585688	RECOG_RESP	n/a	LTP338	ltpFR	0	6	n/a	WARRIOR	1589	0	n/a	n/a	n/a	n/a	n/a	n/a	n/a
4587240	RECOG_CONF	n/a	LTP338	ltpFR	0	6	n/a	WARRIOR	1589	n/a	3	n/a	n/a	n/a	n/a	n/a	n/a
4588965	RECOG_TARGET	n/a	LTP338	ltpFR	0	6	0	CENT	270	1	4	0	n/a	n/a	n/a	n/a	n/a
4590044	RECOG_RESP	n/a	LTP338	ltpFR	0	6	0	CENT	270	1	n/a	0	n/a	n/a	n/a	n/a	n/a
4591862	RECOG_CONF	n/a	LTP338	ltpFR	0	6	0	CENT	270	n/a	4	0	n/a	n/a	n/a	n/a	n/a
4593614	RECOG_LURE	n/a	LTP338	ltpFR	0	6	n/a	CARTON	251	0	2	n/a	n/a	n/a	n/a	n/a	n/a
4595208	RECOG_RESP	n/a	LTP338	ltpFR	0	6	n/a	CARTON	251	0	n/a	n/a	n/a	n/a	n/a	n/a	n/a
4596887	RECOG_CONF	n/a	LTP338	ltpFR	0	6	n/a	CARTON	251	n/a	2	n/a	n/a	n/a	n/a	n/a	n/a
4598412	RECOG_LURE	n/a	LTP338	ltpFR	0	6	n/a	CROSS	413	0	2	n/a	n/a	n/a	n/a	n/a	n/a
4599838	RECOG_RESP	n/a	LTP338	ltpFR	0	6	n/a	CROSS	413	0	n/a	n/a	n/a	n/a	n/a	n/a	n/a
4601827	RECOG_CONF	n/a	LTP338	ltpFR	0	6	n/a	CROSS	413	n/a	2	n/a	n/a	n/a	n/a	n/a	n/a
4603443	RECOG_TARGET	n/a	LTP338	ltpFR	0	6	0	VINE	1568	1	5	1	n/a	n/a	n/a	n/a	n/a
4604329	RECOG_RESP	n/a	LTP338	ltpFR	0	6	0	VINE	1568	1	n/a	1	n/a	n/a	n/a	n/a	n/a
4605852	RECOG_CONF	n/a	LTP338	ltpFR	0	6	0	VINE	1568	n/a	5	1	n/a	n/a	n/a	n/a	n/a
4607740	RECOG_TARGET	n/a	LTP338	ltpFR	0	6	-1	POWDER	1117	1	2	-1	n/a	n/a	n/a	n/a	n/a
4609524	RECOG_RESP	n/a	LTP338	ltpFR	0	6	-1	POWDER	1117	1	n/a	-1	n/a	n/a	n/a	n/a	n/a
4610917	RECOG_CONF	n/a	LTP338	ltpFR	0	6	-1	POWDER	1117	n/a	2	-1	n/a	n/a	n/a	n/a	n/a
4612771	RECOG_LURE	n/a	LTP338	ltpFR	0	6	n/a	CHEMICAL	291	0	3	n/a	n/a	n/a	n/a	n/a	n/a
4614648	RECOG_RESP	n/a	LTP338	ltpFR	0	6	n/a	CHEMICAL	291	0	n/a	n/a	n/a	n/a	n/a	n/a	n/a
4616610	RECOG_CONF	n/a	LTP338	ltpFR	0	6	n/a	CHEMICAL	291	n/a	3	n/a	n/a	n/a	n/a	n/a	n/a
4618135	RECOG_TARGET	n/a	LTP338	ltpFR	0	6	-1	DIME	466	1	3	-1	n/a	n/a	n/a	n/a	n/a
4620099	RECOG_RESP	n/a	LTP338	ltpFR	0	6	-1	DIME	466	1	n/a	-1	n/a	n/a	n/a	n/a	n/a
4622190	RECOG_CONF	n/a	LTP338	ltpFR	0	6	-1	DIME	466	n/a	3	-1	n/a	n/a	n/a	n/a	n/a
4623717	RECOG_TARGET	n/a	LTP338	ltpFR	0	6	1	BUCKLE	185	1	2	0	n/a	n/a	n/a	n/a	n/a
4625424	RECOG_RESP	n/a	LTP338	ltpFR	0	6	1	BUCKLE	185	1	n/a	0	n/a	n/a	n/a	n/a	n/a
4627067	RECOG_CONF	n/a	LTP338	ltpFR	0	6	1	BUCKLE	185	n/a	2	0	n/a	n/a	n/a	n/a	n/a
4629097	RECOG_LURE	n/a	LTP338	ltpFR	0	6	n/a	SPOOL	1356	0	4	n/a	n/a	n/a	n/a	n/a	n/a
4630388	RECOG_RESP	n/a	LTP338	ltpFR	0	6	n/a	SPOOL	1356	0	n/a	n/a	n/a	n/a	n/a	n/a	n/a
4632502	RECOG_CONF	n/a	LTP338	ltpFR	0	6	n/a	SPOOL	1356	n/a	4	n/a	n/a	n/a	n/a	n/a	n/a
4633944	RECOG_TARGET	n/a	LTP338	ltpFR	0	6	0	EYE	545	1	5	0	n/a	n/a	n/a	n/a	n/a
4635124	RECOG_RESP	n/a	LTP338	ltpFR	0	6	0	EYE	545	1	n/a	0	n/a	n/a	n/a	n/a	n/a
4636512	RECOG_CONF	n/a	LTP338	ltpFR	0	6	0	EYE	545	n/a	5	0	n/a	n/a	n/a	n/a	n/a
4638510	RECOG_LURE	n/a	LTP338	ltpFR	0	6	n/a	BLACKBERRY	132	0	3	n/a	n/a	n/a	n/a	n/a	n/a
4640328	RECOG_RESP	n/a	LTP338	ltpFR	0	6	n/a	BLACKBERRY	132	0	n/a	n/a	n/a	n/a	n/a	n/a	n/a
4642740	RECOG_CONF	n/a	LTP338	ltpFR	0	6	n/a	BLACKBERRY	132	n/a	3	n/a	n/a	n/a	n/a	n/a	n/a
4644407	RECOG_LURE	n/a	LTP338	ltpFR	0	6	n/a	CITIZEN	312	0	3	n/a	n/a	n/a	n/a	n/a	n/a
4645683	RECOG_RESP	n/a	LTP338	ltpFR	0	6	n/a	CITIZEN	312	0	n/a	n/a	n/a	n/a	n/a	n/a	n/a
4647710	RECOG_CONF	n/a	LTP338	ltpFR	0	6	n/a	CITIZEN	312	n/a	3	n/a	n/a	n/a	n/a	n/a	n/a
4649221	RECOG_TARGET	n/a	LTP338	ltpFR	0	6	0	CASHIER	254	1	4	1	n/a	n/a	n/a	n/a	n/a
4650829	RECOG_RESP	n/a	LTP338	ltpFR	0	6	0	CASHIER	254	1	n/a	1	n/a	n/a	n/a	n/a	n/a
4652362	RECOG_CONF	n/a	LTP338	ltpFR	0	6	0	CASHIER	254	n/a	4	1	n/a	n/a	n/a	n/a	n/a
4654269	RECOG_TARGET	n/a	LTP338	ltpFR	0	6	1	PENGUIN	1044	1	5	1	n/a	n/a	n/a	n/a	n/a
4655294	RECOG_RESP	n/a	LTP338	ltpFR	0	6	1	PENGUIN	1044	1	n/a	1	n/a	n/a	n/a	n/a	n/a
4657082	RECOG_CONF	n/a	LTP338	ltpFR	0	6	1	PENGUIN	1044	n/a	5	1	n/a	n/a	n/a	n/a	n/a
4658816	RECOG_TARGET	n/a	LTP338	ltpFR	0	6	-1	PICKLE	1059	1	5	-1	n/a	n/a	n/a	n/a	n/a
4659649	RECOG_RESP	n/a	LTP338	ltpFR	0	6	-1	PICKLE	1059	1	n/a	-1	n/a	n/a	n/a	n/a	n/a
4661192	RECOG_CONF	n/a	LTP338	ltpFR	0	6	-1	PICKLE	1059	n/a	5	-1	n/a	n/a	n/a	n/a	n/a
4663031	RECOG_TARGET	n/a	LTP338	ltpFR	0	6	0	TOOTHBRUSH	1482	1	5	0	n/a	n/a	n/a	n/a	n/a
4663909	RECOG_RESP	n/a	LTP338	ltpFR	0	6	0	TOOTHBRUSH	1482	1	n/a	0	n/a	n/a	n/a	n/a	n/a
4665182	RECOG_CONF	n/a	LTP338	ltpFR	0	6	0	TOOTHBRUSH	1482	n/a	5	0	n/a	n/a	n/a	n/a	n/a
4667246	RECOG_TARGET	n/a	LTP338	ltpFR	0	6	1	VET	1560	1	5	1	n/a	n/a	n/a	n/a	n/a
4668109	RECOG_RESP	n/a	LTP338	ltpFR	0	6	1	VET	1560	1	n/a	1	n/a	n/a	n/a	n/a	n/a
4669702	RECOG_CONF	n/a	LTP338	ltpFR	0	6	1	VET	1560	n/a	5	1	n/a	n/a	n/a	n/a	n/a
4671462	RECOG_TARGET	n/a	LTP338	ltpFR	0	6	0	WELL	1600	1	5	1	n/a	n/a	n/a	n/a	n/a
4673124	RECOG_RESP	n/a	LTP338	ltpFR	0	6	0	WELL	1600	1	n/a	1	n/a	n/a	n/a	n/a	n/a
4675012	RECOG_CONF	n/a	LTP338	ltpFR	0	6	0	WELL	1600	n/a	5	1	n/a	n/a	n/a	n/a	n/a
4681653	REC_START	n/a	LTP338	ltpFR	0	7	n/a	n/a	n/a	n/a	n/a	n/a	n/a	n/a	n/a	n/a	n/a
4681674	RECOG_TARGET	n/a	LTP338	ltpFR	0	7	-1	CRUMB	416	1	2	-1	n/a	n/a	n/a	n/a	n/a
4683472	RECOG_RESP	n/a	LTP338	ltpFR	0	7	-1	CRUMB	416	1	n/a	-1	n/a	n/a	n/a	n/a	n/a
4685185	RECOG_CONF	n/a	LTP338	ltpFR	0	7	-1	CRUMB	416	n/a	2	-1	n/a	n/a	n/a	n/a	n/a
4686904	RECOG_TARGET	n/a	LTP338	ltpFR	0	7	1	OFFICE	972	1	4	0	n/a	n/a	n/a	n/a	n/a
4688252	RECOG_RESP	n/a	LTP338	ltpFR	0	7	1	OFFICE	972	1	n/a	0	n/a	n/a	n/a	n/a	n/a
4689670	RECOG_CONF	n/a	LTP338	ltpFR	0	7	1	OFFICE	972	n/a	4	0	n/a	n/a	n/a	n/a	n/a
4691335	RECOG_TARGET	n/a	LTP338	ltpFR	0	7	0	FLOOR	581	1	5	1	n/a	n/a	n/a	n/a	n/a
4692057	RECOG_RESP	n/a	LTP338	ltpFR	0	7	0	FLOOR	581	1	n/a	1	n/a	n/a	n/a	n/a	n/a
4693360	RECOG_CONF	n/a	LTP338	ltpFR	0	7	0	FLOOR	581	n/a	5	1	n/a	n/a	n/a	n/a	n/a
4695067	RECOG_LURE	n/a	LTP338	ltpFR	0	7	n/a	STREET	1393	0	2	n/a	n/a	n/a	n/a	n/a	n/a
4696296	RECOG_RESP	n/a	LTP338	ltpFR	0	7	n/a	STREET	1393	0	n/a	n/a	n/a	n/a	n/a	n/a	n/a
4698135	RECOG_CONF	n/a	LTP338	ltpFR	0	7	n/a	STREET	1393	n/a	2	n/a	n/a	n/a	n/a	n/a	n/a
4699798	RECOG_TARGET	n/a	LTP338	ltpFR	0	7	1	GREASE	660	1	5	0	n/a	n/a	n/a	n/a	n/a
4700772	RECOG_RESP	n/a	LTP338	ltpFR	0	7	1	GREASE	660	1	n/a	0	n/a	n/a	n/a	n/a	n/a
4702560	RECOG_CONF	n/a	LTP338	ltpFR	0	7	1	GREASE	660	n/a	5	0	n/a	n/a	n/a	n/a	n/a
4704229	RECOG_TARGET	n/a	LTP338	ltpFR	0	7	0	DESK	452	1	5	1	n/a	n/a	n/a	n/a	n/a
4705322	RECOG_RESP	n/a	LTP338	ltpFR	0	7	0	DESK	452	1	n/a	1	n/a	n/a	n/a	n/a	n/a
4706920	RECOG_CONF	n/a	LTP338	ltpFR	0	7	0	DESK	452	n/a	5	1	n/a	n/a	n/a	n/a	n/a
4708478	RECOG_LURE	n/a	LTP338	ltpFR	0	7	n/a	NUN	962	0	3	n/a	n/a	n/a	n/a	n/a	n/a
4709911	RECOG_RESP	n/a	LTP338	ltpFR	0	7	n/a	NUN	962	0	n/a	n/a	n/a	n/a	n/a	n/a	n/a
4711388	RECOG_CONF	n/a	LTP338	ltpFR	0	7	n/a	NUN	962	n/a	3	n/a	n/a	n/a	n/a	n/a	n/a
4713075	RECOG_TARGET	n/a	LTP338	ltpFR	0	7	-1	TABLET	1427	1	5	-1	n/a	n/a	n/a	n/a	n/a
4714197	RECOG_RESP	n/a	LTP338	ltpFR	0	7	-1	TABLET	1427	1	n/a	-1	n/a	n/a	n/a	n/a	n/a
4715580	RECOG_CONF	n/a	LTP338	ltpFR	0	7	-1	TABLET	1427	n/a	5	-1	n/a	n/a	n/a	n/a	n/a
4717408	RECOG_LURE	n/a	LTP338	ltpFR	0	7	n/a	CABINET	212	0	1	n/a	n/a	n/a	n/a	n/a	n/a
4719286	RECOG_RESP	n/a	LTP338	ltpFR	0	7	n/a	CABINET	212	0	n/a	n/a	n/a	n/a	n/a	n/a	n/a
4720745	RECOG_CONF	n/a	LTP338	ltpFR	0	7	n/a	CABINET	212	n/a	1	n/a	n/a	n/a	n/a	n/a	n/a
4722405	RECOG_LURE	n/a	LTP338	ltpFR	0	7	n/a	CHAIRPERSON	275	0	3	n/a	n/a	n/a	n/a	n/a	n/a
4724271	RECOG_RESP	n/a	LTP338	ltpFR	0	7	n/a	CHAIRPERSON	275	0	n/a	n/a	n/a	n/a	n/a	n/a	n/a
4726198	RECOG_CONF	n/a	LTP338	ltpFR	0	7	n/a	CHAIRPERSON	275	n/a	3	n/a	n/a	n/a	n/a	n/a	n/a
4728002	RECOG_TARGET	n/a	LTP338	ltpFR	0	7	1	COLESLAW	344	1	3	0	n/a	n/a	n/a	n/a	n/a
4730772	RECOG_RESP	n/a	LTP338	ltpFR	0	7	1	COLESLAW	344	1	n/a	0	n/a	n/a	n/a	n/a	n/a
4732778	RECOG_CONF	n/a	LTP338	ltpFR	0	7	1	COLESLAW	344	n/a	3	0	n/a	n/a	n/a	n/a	n/a
4734349	RECOG_LURE	n/a	LTP338	ltpFR	0	7	n/a	MINT	898	0	4	n/a	n/a	n/a	n/a	n/a	n/a
4735436	RECOG_RESP	n/a	LTP338	ltpFR	0	7	n/a	MINT	898	0	n/a	n/a	n/a	n/a	n/a	n/a	n/a
4736640	RECOG_CONF	n/a	LTP338	ltpFR	0	7	n/a	MINT	898	n/a	4	n/a	n/a	n/a	n/a	n/a	n/a
4738465	RECOG_TARGET	n/a	LTP338	ltpFR	0	7	0	PORCUPINE	1107	1	5	0	n/a	n/a	n/a	n/a	n/a
4739537	RECOG_RESP	n/a	LTP338	ltpFR	0	7	0	PORCUPINE	1107	1	n/a	0	n/a	n/a	n/a	n/a	n/a
4740900	RECOG_CONF	n/a	LTP338	ltpFR	0	7	0	PORCUPINE	1107	n/a	5	0	n/a	n/a	n/a	n/a	n/a
4742795	RECOG_LURE	n/a	LTP338	ltpFR	0	7	n/a	ACTRESS	6	1	2	n/a	n/a	n/a	n/a	n/a	n/a
4745382	RECOG_RESP	n/a	LTP338	ltpFR	0	7	n/a	ACTRESS	6	1	n/a	n/a	n/a	n/a	n/a	n/a	n/a
4746835	RECOG_CONF	n/a	LTP338	ltpFR	0	7	n/a	ACTRESS	6	n/a	2	n/a	n/a	n/a	n/a	n/a	n/a
4748677	RECOG_LURE	n/a	LTP338	ltpFR	0	7	n/a	BUS	201	0	3	n/a	n/a	n/a	n/a	n/a	n/a
4750351	RECOG_RESP	n/a	LTP338	ltpFR	0	7	n/a	BUS	201	0	n/a	n/a	n/a	n/a	n/a	n/a	n/a
4752128	RECOG_CONF	n/a	LTP338	ltpFR	0	7	n/a	BUS	201	n/a	3	n/a	n/a	n/a	n/a	n/a	n/a
4753691	RECOG_TARGET	n/a	LTP338	ltpFR	0	7	0	PUB	1135	1	4	1	n/a	n/a	n/a	n/a	n/a
4754822	RECOG_RESP	n/a	LTP338	ltpFR	0	7	0	PUB	1135	1	n/a	1	n/a	n/a	n/a	n/a	n/a
4756340	RECOG_CONF	n/a	LTP338	ltpFR	0	7	0	PUB	1135	n/a	4	1	n/a	n/a	n/a	n/a	n/a
4758188	RECOG_TARGET	n/a	LTP338	ltpFR	0	7	-1	ASTEROID	50	0	2	-1	n/a	n/a	n/a	n/a	n/a
4760136	RECOG_RESP	n/a	LTP338	ltpFR	0	7	-1	ASTEROID	50	0	n/a	-1	n/a	n/a	n/a	n/a	n/a
4761645	RECOG_CONF	n/a	LTP338	ltpFR	0	7	-1	ASTEROID	50	n/a	2	-1	n/a	n/a	n/a	n/a	n/a
4763352	RECOG_TARGET	n/a	LTP338	ltpFR	0	7	0	STEW	1380	1	5	1	n/a	n/a	n/a	n/a	n/a
4764242	RECOG_RESP	n/a	LTP338	ltpFR	0	7	0	STEW	1380	1	n/a	1	n/a	n/a	n/a	n/a	n/a
4766060	RECOG_CONF	n/a	LTP338	ltpFR	0	7	0	STEW	1380	n/a	5	1	n/a	n/a	n/a	n/a	n/a
4768117	RECOG_TARGET	n/a	LTP338	ltpFR	0	7	0	WAITER	1580	1	4	1	n/a	n/a	n/a	n/a	n/a
4769827	RECOG_RESP	n/a	LTP338	ltpFR	0	7	0	WAITER	1580	1	n/a	1	n/a	n/a	n/a	n/a	n/a
4771330	RECOG_CONF	n/a	LTP338	ltpFR	0	7	0	WAITER	1580	n/a	4	1	n/a	n/a	n/a	n/a	n/a
4772981	RECOG_TARGET	n/a	LTP338	ltpFR	0	7	0	NOTEBOOK	959	1	5	1	n/a	n/a	n/a	n/a	n/a
4774202	RECOG_RESP	n/a	LTP338	ltpFR	0	7	0	NOTEBOOK	959	1	n/a	1	n/a	n/a	n/a	n/a	n/a
4775720	RECOG_CONF	n/a	LTP338	ltpFR	0	7	0	NOTEBOOK	959	n/a	5	1	n/a	n/a	n/a	n/a	n/a
4780593	REC_START	n/a	LTP338	ltpFR	0	8	n/a	n/a	n/a	n/a	n/a	n/a	n/a	n/a	n/a	n/a	n/a
4780612	RECOG_TARGET	n/a	LTP338	ltpFR	0	8	0	RAISIN	1163	1	3	0	n/a	n/a	n/a	n/a	n/a
4782702	RECOG_RESP	n/a	LTP338	ltpFR	0	8	0	RAISIN	1163	1	n/a	0	n/a	n/a	n/a	n/a	n/a
4784108	RECOG_CONF	n/a	LTP338	ltpFR	0	8	0	RAISIN	1163	n/a	3	0	n/a	n/a	n/a	n/a	n/a
4785726	RECOG_TARGET	n/a	LTP338	ltpFR	0	8	0	SPIDER	1351	1	5	0	n/a	n/a	n/a	n/a	n/a
4786627	RECOG_RESP	n/a	LTP338	ltpFR	0	8	0	SPIDER	1351	1	n/a	0	n/a	n/a	n/a	n/a	n/a
4787960	RECOG_CONF	n/a	LTP338	ltpFR	0	8	0	SPIDER	1351	n/a	5	0	n/a	n/a	n/a	n/a	n/a
4789725	RECOG_TARGET	n/a	LTP338	ltpFR	0	8	0	BANDANNA	80	1	5	0	n/a	n/a	n/a	n/a	n/a
4790937	RECOG_RESP	n/a	LTP338	ltpFR	0	8	0	BANDANNA	80	1	n/a	0	n/a	n/a	n/a	n/a	n/a
4792440	RECOG_CONF	n/a	LTP338	ltpFR	0	8	0	BANDANNA	80	n/a	5	0	n/a	n/a	n/a	n/a	n/a
4794138	RECOG_TARGET	n/a	LTP338	ltpFR	0	8	1	BEARD	107	1	5	0	n/a	n/a	n/a	n/a	n/a
4795077	RECOG_RESP	n/a	LTP338	ltpFR	0	8	1	BEARD	107	1	n/a	0	n/a	n/a	n/a	n/a	n/a
4796750	RECOG_CONF	n/a	LTP338	ltpFR	0	8	1	BEARD	107	n/a	5	0	n/a	n/a	n/a	n/a	n/a
4798437	RECOG_TARGET	n/a	LTP338	ltpFR	0	8	0	PENDULUM	1043	1	5	0	n/a	n/a	n/a	n/a	n/a
4799612	RECOG_RESP	n/a	LTP338	ltpFR	0	8	0	PENDULUM	1043	1	n/a	0	n/a	n/a	n/a	n/a	n/a
4800760	RECOG_CONF	n/a	LTP338	ltpFR	0	8	0	PENDULUM	1043	n/a	5	0	n/a	n/a	n/a	n/a	n/a
4802968	RECOG_TARGET	n/a	LTP338	ltpFR	0	8	0	NIGHTGOWN	953	1	5	1	n/a	n/a	n/a	n/a	n/a
4803927	RECOG_RESP	n/a	LTP338	ltpFR	0	8	0	NIGHTGOWN	953	1	n/a	1	n/a	n/a	n/a	n/a	n/a
4805360	RECOG_CONF	n/a	LTP338	ltpFR	0	8	0	NIGHTGOWN	953	n/a	5	1	n/a	n/a	n/a	n/a	n/a
4807033	RECOG_TARGET	n/a	LTP338	ltpFR	0	8	0	PERCH	1048	1	3	1	n/a	n/a	n/a	n/a	n/a
4809322	RECOG_RESP	n/a	LTP338	ltpFR	0	8	0	PERCH	1048	1	n/a	1	n/a	n/a	n/a	n/a	n/a
4810708	RECOG_CONF	n/a	LTP338	ltpFR	0	8	0	PERCH	1048	n/a	3	1	n/a	n/a	n/a	n/a	n/a
4812714	RECOG_TARGET	n/a	LTP338	ltpFR	0	8	1	CLOCK	325	1	4	0	n/a	n/a	n/a	n/a	n/a
4814022	RECOG_RESP	n/a	LTP338	ltpFR	0	8	1	CLOCK	325	1	n/a	0	n/a	n/a	n/a	n/a	n/a
4815506	RECOG_CONF	n/a	LTP338	ltpFR	0	8	1	CLOCK	325	n/a	4	0	n/a	n/a	n/a	n/a	n/a
4817128	RECOG_LURE	n/a	LTP338	ltpFR	0	8	n/a	INMATE	738	0	4	n/a	n/a	n/a	n/a	n/a	n/a
4818331	RECOG_RESP	n/a	LTP338	ltpFR	0	8	n/a	INMATE	738	0	n/a	n/a	n/a	n/a	n/a	n/a	n/a
4819740	RECOG_CONF	n/a	LTP338	ltpFR	0	8	n/a	INMATE	738	n/a	4	n/a	n/a	n/a	n/a	n/a	n/a
4821560	RECOG_TARGET	n/a	LTP338	ltpFR	0	8	0	BALLOON	75	1	5	0	n/a	n/a	n/a	n/a	n/a
4822442	RECOG_RESP	n/a	LTP338	ltpFR	0	8	0	BALLOON	75	1	n/a	0	n/a	n/a	n/a	n/a	n/a
4823910	RECOG_CONF	n/a	LTP338	ltpFR	0	8	0	BALLOON	75	n/a	5	0	n/a	n/a	n/a	n/a	n/a
4825575	RECOG_TARGET	n/a	LTP338	ltpFR	0	8	0	WRENCH	1625	1	5	0	n/a	n/a	n/a	n/a	n/a
4827527	RECOG_RESP	n/a	LTP338	ltpFR	0	8	0	WRENCH	1625	1	n/a	0	n/a	n/a	n/a	n/a	n/a
4829510	RECOG_CONF	n/a	LTP338	ltpFR	0	8	0	WRENCH	1625	n/a	5	0	n/a	n/a	n/a	n/a	n/a
4831572	RECOG_LURE	n/a	LTP338	ltpFR	0	8	n/a	WRITER	1627	0	3	n/a	n/a	n/a	n/a	n/a	n/a
4833271	RECOG_RESP	n/a	LTP338	ltpFR	0	8	n/a	WRITER	1627	0	n/a	n/a	n/a	n/a	n/a	n/a	n/a
4834908	RECOG_CONF	n/a	LTP338	ltpFR	0	8	n/a	WRITER	1627	n/a	3	n/a	n/a	n/a	n/a	n/a	n/a
4836620	RECOG_TARGET	n/a	LTP338	ltpFR	0	8	0	NEST	945	1	5	0	n/a	n/a	n/a	n/a	n/a
4838107	RECOG_RESP	n/a	LTP338	ltpFR	0	8	0	NEST	945	1	n/a	0	n/a	n/a	n/a	n/a	n/a
4839990	RECOG_CONF	n/a	LTP338	ltpFR	0	8	0	NEST	945	n/a	5	0	n/a	n/a	n/a	n/a	n/a
4841867	RECOG_TARGET	n/a	LTP338	ltpFR	0	8	0	DUSTPAN	509	1	4	0	n/a	n/a	n/a	n/a	n/a
4842897	RECOG_RESP	n/a	LTP338	ltpFR	0	8	0	DUSTPAN	509	1	n/a	0	n/a	n/a	n/a	n/a	n/a
4845030	RECOG_CONF	n/a	LTP338	ltpFR	0	8	0	DUSTPAN	509	n/a	4	0	n/a	n/a	n/a	n/a	n/a
4846649	RECOG_TARGET	n/a	LTP338	ltpFR	0	8	1	BAND	78	1	5	1	n/a	n/a	n/a	n/a	n/a
4847862	RECOG_RESP	n/a	LTP338	ltpFR	0	8	1	BAND	78	1	n/a	1	n/a	n/a	n/a	n/a	n/a
4849290	RECOG_CONF	n/a	LTP338	ltpFR	0	8	1	BAND	78	n/a	5	1	n/a	n/a	n/a	n/a	n/a
4851029	RECOG_TARGET	n/a	LTP338	ltpFR	0	8	0	BEAVER	109	1	3	1	n/a	n/a	n/a	n/a	n/a
4852382	RECOG_RESP	n/a	LTP338	ltpFR	0	8	0	BEAVER	109	1	n/a	1	n/a	n/a	n/a	n/a	n/a
4854108	RECOG_CONF	n/a	LTP338	ltpFR	0	8	0	BEAVER	109	n/a	3	1	n/a	n/a	n/a	n/a	n/a
4855678	RECOG_LURE	n/a	LTP338	ltpFR	0	8	n/a	BROOK	177	0	2	n/a	n/a	n/a	n/a	n/a	n/a
4857011	RECOG_RESP	n/a	LTP338	ltpFR	0	8	n/a	BROOK	177	0	n/a	n/a	n/a	n/a	n/a	n/a	n/a
4858555	RECOG_CONF	n/a	LTP338	ltpFR	0	8	n/a	BROOK	177	n/a	2	n/a	n/a	n/a	n/a	n/a	n/a
4860426	RECOG_TARGET	n/a	LTP338	ltpFR	0	8	-1	MUSTARD	935	1	5	-1	n/a	n/a	n/a	n/a	n/a
4861392	RECOG_RESP	n/a	LTP338	ltpFR	0	8	-1	MUSTARD	935	1	n/a	-1	n/a	n/a	n/a	n/a	n/a
4862930	RECOG_CONF	n/a	LTP338	ltpFR	0	8	-1	MUSTARD	935	n/a	5	-1	n/a	n/a	n/a	n/a	n/a
4864839	RECOG_LURE	n/a	LTP338	ltpFR	0	8	n/a	WIFE	1609	0	2	n/a	n/a	n/a	n/a	n/a	n/a
