mstime	trial_type	stim_file	subject	experiment	session	trial	task	item_name	item_num	recog_conf	resp	color_b	color_g	color_r	case	font
0	SESS_START	n/a	LTP086	ltpFR	3	n/a	n/a	n/a	n/a	5	n/a	n/a	n/a	n/a	n/a	n/a
83014	WORD	wordpools/wasnorm_wordpool.txt	LTP086	ltpFR	3	1	0	VEGETABLE	1552	n/a	1	0	0.5869140625	0.422607421875	upper	../fonts/amplitud.ttf
87180	WORD	wordpools/wasnorm_wordpool.txt	LTP086	ltpFR	3	1	0	CONVICT	371	n/a	0	0	0.5869140625	0.422607421875	upper	../fonts/amplitud.ttf
91305	WORD	wordpools/wasnorm_wordpool.txt	LTP086	ltpFR	3	1	0	NEST	945	n/a	0	0	0.5869140625	0.422607421875	upper	../fonts/amplitud.ttf
95171	WORD	wordpools/wasnorm_wordpool.txt	LTP086	ltpFR	3	1	0	DAD	433	n/a	1	0	0.5869140625	0.422607421875	upper	../fonts/amplitud.ttf
99088	WORD	wordpools/wasnorm_wordpool.txt	LTP086	ltpFR	3	1	0	ELEVATOR	524	n/a	0	0	0.5869140625	0.422607421875	upper	../fonts/amplitud.ttf
103129	WORD	wordpools/wasnorm_wordpool.txt	LTP086	ltpFR	3	1	0	CORN	381	n/a	0	0	0.5869140625	0.422607421875	upper	../fonts/amplitud.ttf
107212	WORD	wordpools/wasnorm_wordpool.txt	LTP086	ltpFR	3	1	1	PUMPKIN	1142	n/a	0	1	0.412841796875	0.57763671875	lower	../fonts/zerothre.ttf
111370	WORD	wordpools/wasnorm_wordpool.txt	LTP086	ltpFR	3	1	1	PLIERS	1089	n/a	0	1	0.412841796875	0.57763671875	lower	../fonts/zerothre.ttf
115436	WORD	wordpools/wasnorm_wordpool.txt	LTP086	ltpFR	3	1	1	SKYSCRAPER	1322	n/a	1	1	0.412841796875	0.57763671875	lower	../fonts/zerothre.ttf
119428	WORD	wordpools/wasnorm_wordpool.txt	LTP086	ltpFR	3	1	1	BLACKBERRY	132	n/a	0	1	0.412841796875	0.57763671875	lower	../fonts/zerothre.ttf
123595	WORD	wordpools/wasnorm_wordpool.txt	LTP086	ltpFR	3	1	1	CRIMINAL	409	n/a	0	1	0.412841796875	0.57763671875	lower	../fonts/zerothre.ttf
127762	WORD	wordpools/wasnorm_wordpool.txt	LTP086	ltpFR	3	1	0	CHAMPION	279	n/a	1	0	0.5869140625	0.422607421875	upper	../fonts/amplitud.ttf
131753	WORD	wordpools/wasnorm_wordpool.txt	LTP086	ltpFR	3	1	0	RANCH	1166	n/a	1	0	0.5869140625	0.422607421875	upper	../fonts/amplitud.ttf
135569	WORD	wordpools/wasnorm_wordpool.txt	LTP086	ltpFR	3	1	1	ZEBRA	1635	n/a	1	1	0.412841796875	0.57763671875	lower	../fonts/zerothre.ttf
139602	WORD	wordpools/wasnorm_wordpool.txt	LTP086	ltpFR	3	1	1	RIVER	1194	n/a	1	1	0.412841796875	0.57763671875	lower	../fonts/zerothre.ttf
143493	WORD	wordpools/wasnorm_wordpool.txt	LTP086	ltpFR	3	1	1	ISLAND	745	n/a	1	1	0.412841796875	0.57763671875	lower	../fonts/zerothre.ttf
149451	REC_START	n/a	LTP086	ltpFR	3	1	n/a	n/a	n/a	n/a	n/a	n/a	n/a	n/a	n/a	n/a
149870	REC_WORD	wordpools/wasnorm_wordpool.txt	LTP086	ltpFR	3	1	0	CONVICT	371	n/a	0	n/a	n/a	n/a	n/a	n/a
150733	REC_WORD	wordpools/wasnorm_wordpool.txt	LTP086	ltpFR	3	1	1	CRIMINAL	409	n/a	0	n/a	n/a	n/a	n/a	n/a
151521	REC_WORD	wordpools/wasnorm_wordpool.txt	LTP086	ltpFR	3	1	1	SKYSCRAPER	1322	n/a	1	n/a	n/a	n/a	n/a	n/a
153073	REC_WORD	wordpools/wasnorm_wordpool.txt	LTP086	ltpFR	3	1	0	DAD	433	n/a	1	n/a	n/a	n/a	n/a	n/a
153901	REC_WORD	wordpools/wasnorm_wordpool.txt	LTP086	ltpFR	3	1	1	PLIERS	1089	n/a	0	n/a	n/a	n/a	n/a	n/a
155377	REC_WORD	wordpools/wasnorm_wordpool.txt	LTP086	ltpFR	3	1	0	VEGETABLE	1552	n/a	1	n/a	n/a	n/a	n/a	n/a
156560	REC_WORD	wordpools/wasnorm_wordpool.txt	LTP086	ltpFR	3	1	0	NEST	945	n/a	0	n/a	n/a	n/a	n/a	n/a
167380	REC_WORD	wordpools/wasnorm_wordpool.txt	LTP086	ltpFR	3	1	1	ISLAND	745	n/a	1	n/a	n/a	n/a	n/a	n/a
168283	REC_WORD	wordpools/wasnorm_wordpool.txt	LTP086	ltpFR	3	1	1	RIVER	1194	n/a	1	n/a	n/a	n/a	n/a	n/a
180765	REC_WORD	wordpools/wasnorm_wordpool.txt	LTP086	ltpFR	3	1	0	CHAMPION	279	n/a	1	n/a	n/a	n/a	n/a	n/a
183219	REC_WORD	wordpools/wasnorm_wordpool.txt	LTP086	ltpFR	3	1	0	CORN	381	n/a	0	n/a	n/a	n/a	n/a	n/a
197167	REC_WORD	wordpools/wasnorm_wordpool.txt	LTP086	ltpFR	3	1	0	CONVICT	371	n/a	0	n/a	n/a	n/a	n/a	n/a
197886	REC_WORD	wordpools/wasnorm_wordpool.txt	LTP086	ltpFR	3	1	1	CRIMINAL	409	n/a	0	n/a	n/a	n/a	n/a	n/a
215875	REC_WORD	wordpools/wasnorm_wordpool.txt	LTP086	ltpFR	3	1	1	BLACKBERRY	132	n/a	0	n/a	n/a	n/a	n/a	n/a
228637	WORD	wordpools/wasnorm_wordpool.txt	LTP086	ltpFR	3	2	1	GARDEN	623	n/a	1	1	0.412841796875	0.57763671875	lower	../fonts/zerothre.ttf
232804	WORD	wordpools/wasnorm_wordpool.txt	LTP086	ltpFR	3	2	1	SIREN	1310	n/a	0	1	0.412841796875	0.57763671875	lower	../fonts/zerothre.ttf
236886	WORD	wordpools/wasnorm_wordpool.txt	LTP086	ltpFR	3	2	1	SHELTER	1282	n/a	0	1	0.412841796875	0.57763671875	lower	../fonts/zerothre.ttf
240828	WORD	wordpools/wasnorm_wordpool.txt	LTP086	ltpFR	3	2	1	PAINTER	1004	n/a	1	1	0.412841796875	0.57763671875	lower	../fonts/zerothre.ttf
244960	WORD	wordpools/wasnorm_wordpool.txt	LTP086	ltpFR	3	2	0	BRAIN	165	n/a	1	0	0.5869140625	0.422607421875	upper	../fonts/amplitud.ttf
248851	WORD	wordpools/wasnorm_wordpool.txt	LTP086	ltpFR	3	2	0	TWEEZERS	1526	n/a	0	0	0.5869140625	0.422607421875	upper	../fonts/amplitud.ttf
252943	WORD	wordpools/wasnorm_wordpool.txt	LTP086	ltpFR	3	2	0	MATCH	878	n/a	1	0	0.5869140625	0.422607421875	upper	../fonts/amplitud.ttf
257017	WORD	wordpools/wasnorm_wordpool.txt	LTP086	ltpFR	3	2	0	OFFICER	973	n/a	1	0	0.5869140625	0.422607421875	upper	../fonts/amplitud.ttf
261017	WORD	wordpools/wasnorm_wordpool.txt	LTP086	ltpFR	3	2	1	HAY	693	n/a	1	1	0.412841796875	0.57763671875	lower	../fonts/zerothre.ttf
265050	WORD	wordpools/wasnorm_wordpool.txt	LTP086	ltpFR	3	2	1	STALLION	1369	n/a	1	1	0.412841796875	0.57763671875	lower	../fonts/zerothre.ttf
269216	WORD	wordpools/wasnorm_wordpool.txt	LTP086	ltpFR	3	2	0	BIBLE	124	n/a	1	0	0.5869140625	0.422607421875	upper	../fonts/amplitud.ttf
273116	WORD	wordpools/wasnorm_wordpool.txt	LTP086	ltpFR	3	2	0	CHURCH	307	n/a	1	0	0.5869140625	0.422607421875	upper	../fonts/amplitud.ttf
277049	WORD	wordpools/wasnorm_wordpool.txt	LTP086	ltpFR	3	2	0	COP	376	n/a	3	0	0.5869140625	0.422607421875	upper	../fonts/amplitud.ttf
277609	KEY_MSG	n/a	LTP086	ltpFR	3	2	n/a	n/a	n/a	n/a	n/a	n/a	n/a	n/a	n/a	n/a
280874	WORD	wordpools/wasnorm_wordpool.txt	LTP086	ltpFR	3	2	0	CAMERA	224	n/a	1	0	0.5869140625	0.422607421875	upper	../fonts/amplitud.ttf
284857	WORD	wordpools/wasnorm_wordpool.txt	LTP086	ltpFR	3	2	1	BREAST	171	n/a	1	1	0.412841796875	0.57763671875	lower	../fonts/zerothre.ttf
288824	WORD	wordpools/wasnorm_wordpool.txt	LTP086	ltpFR	3	2	1	SKULL	1320	n/a	1	1	0.412841796875	0.57763671875	lower	../fonts/zerothre.ttf
294708	REC_START	n/a	LTP086	ltpFR	3	2	n/a	n/a	n/a	n/a	n/a	n/a	n/a	n/a	n/a	n/a
296010	REC_WORD	wordpools/wasnorm_wordpool.txt	LTP086	ltpFR	3	2	1	BREAST	171	n/a	1	n/a	n/a	n/a	n/a	n/a
296636	REC_WORD	wordpools/wasnorm_wordpool.txt	LTP086	ltpFR	3	2	1	SKULL	1320	n/a	1	n/a	n/a	n/a	n/a	n/a
297736	REC_WORD	wordpools/wasnorm_wordpool.txt	LTP086	ltpFR	3	2	0	COP	376	n/a	3	n/a	n/a	n/a	n/a	n/a
298699	REC_WORD	wordpools/wasnorm_wordpool.txt	LTP086	ltpFR	3	2	0	BIBLE	124	n/a	1	n/a	n/a	n/a	n/a	n/a
299592	REC_WORD	wordpools/wasnorm_wordpool.txt	LTP086	ltpFR	3	2	0	CHURCH	307	n/a	1	n/a	n/a	n/a	n/a	n/a
305698	REC_WORD	wordpools/wasnorm_wordpool.txt	LTP086	ltpFR	3	2	0	OFFICER	973	n/a	1	n/a	n/a	n/a	n/a	n/a
314533	REC_WORD	wordpools/wasnorm_wordpool.txt	LTP086	ltpFR	3	2	0	TWEEZERS	1526	n/a	0	n/a	n/a	n/a	n/a	n/a
315360	REC_WORD	wordpools/wasnorm_wordpool.txt	LTP086	ltpFR	3	2	0	BRAIN	165	n/a	1	n/a	n/a	n/a	n/a	n/a
319606	REC_WORD	wordpools/wasnorm_wordpool.txt	LTP086	ltpFR	3	2	1	SKULL	1320	n/a	1	n/a	n/a	n/a	n/a	n/a
384108	WORD	wordpools/wasnorm_wordpool.txt	LTP086	ltpFR	3	3	0	CAFETERIA	217	n/a	1	0	0.5869140625	0.422607421875	upper	../fonts/amplitud.ttf
388266	WORD	wordpools/wasnorm_wordpool.txt	LTP086	ltpFR	3	3	0	SEAGULL	1261	n/a	1	0	0.5869140625	0.422607421875	upper	../fonts/amplitud.ttf
392432	WORD	wordpools/wasnorm_wordpool.txt	LTP086	ltpFR	3	3	0	CACTUS	215	n/a	1	0	0.5869140625	0.422607421875	upper	../fonts/amplitud.ttf
396324	WORD	wordpools/wasnorm_wordpool.txt	LTP086	ltpFR	3	3	0	ITEM	746	n/a	1	0	0.5869140625	0.422607421875	upper	../fonts/amplitud.ttf
400473	WORD	wordpools/wasnorm_wordpool.txt	LTP086	ltpFR	3	3	1	EMERALD	528	n/a	1	1	0.412841796875	0.57763671875	lower	../fonts/zerothre.ttf
404390	WORD	wordpools/wasnorm_wordpool.txt	LTP086	ltpFR	3	3	1	EWE	542	n/a	1	1	0.412841796875	0.57763671875	lower	../fonts/zerothre.ttf
408348	WORD	wordpools/wasnorm_wordpool.txt	LTP086	ltpFR	3	3	1	PICTURE	1061	n/a	1	1	0.412841796875	0.57763671875	lower	../fonts/zerothre.ttf
412397	WORD	wordpools/wasnorm_wordpool.txt	LTP086	ltpFR	3	3	1	PHOTO	1055	n/a	1	1	0.412841796875	0.57763671875	lower	../fonts/zerothre.ttf
416565	WORD	wordpools/wasnorm_wordpool.txt	LTP086	ltpFR	3	3	1	PLASTER	1085	n/a	1	1	0.412841796875	0.57763671875	lower	../fonts/zerothre.ttf
420455	WORD	wordpools/wasnorm_wordpool.txt	LTP086	ltpFR	3	3	1	STAKE	1368	n/a	0	1	0.412841796875	0.57763671875	lower	../fonts/zerothre.ttf
424380	WORD	wordpools/wasnorm_wordpool.txt	LTP086	ltpFR	3	3	0	TWISTER	1530	n/a	1	0	0.5869140625	0.422607421875	upper	../fonts/amplitud.ttf
428413	WORD	wordpools/wasnorm_wordpool.txt	LTP086	ltpFR	3	3	0	STOMACH	1384	n/a	1	0	0.5869140625	0.422607421875	upper	../fonts/amplitud.ttf
432254	WORD	wordpools/wasnorm_wordpool.txt	LTP086	ltpFR	3	3	0	DOVE	491	n/a	1	0	0.5869140625	0.422607421875	upper	../fonts/amplitud.ttf
436229	WORD	wordpools/wasnorm_wordpool.txt	LTP086	ltpFR	3	3	0	FARMER	553	n/a	1	0	0.5869140625	0.422607421875	upper	../fonts/amplitud.ttf
440062	WORD	wordpools/wasnorm_wordpool.txt	LTP086	ltpFR	3	3	1	FOREHEAD	592	n/a	1	1	0.412841796875	0.57763671875	lower	../fonts/zerothre.ttf
444120	WORD	wordpools/wasnorm_wordpool.txt	LTP086	ltpFR	3	3	1	BRUNETTE	181	n/a	1	1	0.412841796875	0.57763671875	lower	../fonts/zerothre.ttf
449987	REC_START	n/a	LTP086	ltpFR	3	3	n/a	n/a	n/a	n/a	n/a	n/a	n/a	n/a	n/a	n/a
450291	REC_WORD	wordpools/wasnorm_wordpool.txt	LTP086	ltpFR	3	3	1	FOREHEAD	592	n/a	1	n/a	n/a	n/a	n/a	n/a
451279	REC_WORD	wordpools/wasnorm_wordpool.txt	LTP086	ltpFR	3	3	1	BRUNETTE	181	n/a	1	n/a	n/a	n/a	n/a	n/a
452172	REC_WORD	wordpools/wasnorm_wordpool.txt	LTP086	ltpFR	3	3	0	FARMER	553	n/a	1	n/a	n/a	n/a	n/a	n/a
472022	REC_WORD	wordpools/wasnorm_wordpool.txt	LTP086	ltpFR	3	3	0	DOVE	491	n/a	1	n/a	n/a	n/a	n/a	n/a
475853	REC_WORD	wordpools/wasnorm_wordpool.txt	LTP086	ltpFR	3	3	0	TWISTER	1530	n/a	1	n/a	n/a	n/a	n/a	n/a
502353	REC_WORD	wordpools/wasnorm_wordpool.txt	LTP086	ltpFR	3	3	0	ITEM	746	n/a	1	n/a	n/a	n/a	n/a	n/a
508953	REC_WORD	wordpools/wasnorm_wordpool.txt	LTP086	ltpFR	3	3	0	CAFETERIA	217	n/a	1	n/a	n/a	n/a	n/a	n/a
512535	REC_WORD	wordpools/wasnorm_wordpool.txt	LTP086	ltpFR	3	3	0	SEAGULL	1261	n/a	1	n/a	n/a	n/a	n/a	n/a
513188	REC_WORD	wordpools/wasnorm_wordpool.txt	LTP086	ltpFR	3	3	0	CACTUS	215	n/a	1	n/a	n/a	n/a	n/a	n/a
515094	REC_WORD	wordpools/wasnorm_wordpool.txt	LTP086	ltpFR	3	3	0	SEAGULL	1261	n/a	1	n/a	n/a	n/a	n/a	n/a
515982	REC_WORD	wordpools/wasnorm_wordpool.txt	LTP086	ltpFR	3	3	0	CACTUS	215	n/a	1	n/a	n/a	n/a	n/a	n/a
543937	WORD	wordpools/wasnorm_wordpool.txt	LTP086	ltpFR	3	4	1	DAM	436	n/a	1	1	0.412841796875	0.57763671875	lower	../fonts/zerothre.ttf
548104	WORD	wordpools/wasnorm_wordpool.txt	LTP086	ltpFR	3	4	1	FURNITURE	616	n/a	1	1	0.412841796875	0.57763671875	lower	../fonts/zerothre.ttf
552178	WORD	wordpools/wasnorm_wordpool.txt	LTP086	ltpFR	3	4	0	ACID	2	n/a	1	0	0.5869140625	0.422607421875	upper	../fonts/amplitud.ttf
556320	WORD	wordpools/wasnorm_wordpool.txt	LTP086	ltpFR	3	4	0	CYCLONE	431	n/a	1	0	0.5869140625	0.422607421875	upper	../fonts/amplitud.ttf
560403	WORD	wordpools/wasnorm_wordpool.txt	LTP086	ltpFR	3	4	1	LOLLIPOP	842	n/a	1	1	0.412841796875	0.57763671875	lower	../fonts/zerothre.ttf
564436	WORD	wordpools/wasnorm_wordpool.txt	LTP086	ltpFR	3	4	1	FUDGE	611	n/a	3	1	0.412841796875	0.57763671875	lower	../fonts/zerothre.ttf
565002	KEY_MSG	n/a	LTP086	ltpFR	3	4	n/a	n/a	n/a	n/a	n/a	n/a	n/a	n/a	n/a	n/a
568637	WORD	wordpools/wasnorm_wordpool.txt	LTP086	ltpFR	3	4	1	DICE	461	n/a	0	1	0.412841796875	0.57763671875	lower	../fonts/zerothre.ttf
572770	WORD	wordpools/wasnorm_wordpool.txt	LTP086	ltpFR	3	4	1	SUN	1406	n/a	0	1	0.412841796875	0.57763671875	lower	../fonts/zerothre.ttf
576877	WORD	wordpools/wasnorm_wordpool.txt	LTP086	ltpFR	3	4	1	ELF	525	n/a	0	1	0.412841796875	0.57763671875	lower	../fonts/zerothre.ttf
580876	WORD	wordpools/wasnorm_wordpool.txt	LTP086	ltpFR	3	4	1	PATIO	1025	n/a	0	1	0.412841796875	0.57763671875	lower	../fonts/zerothre.ttf
584926	WORD	wordpools/wasnorm_wordpool.txt	LTP086	ltpFR	3	4	0	MARSH	874	n/a	1	0	0.5869140625	0.422607421875	upper	../fonts/amplitud.ttf
588810	WORD	wordpools/wasnorm_wordpool.txt	LTP086	ltpFR	3	4	0	SALIVA	1226	n/a	0	0	0.5869140625	0.422607421875	upper	../fonts/amplitud.ttf
592685	WORD	wordpools/wasnorm_wordpool.txt	LTP086	ltpFR	3	4	0	CROW	414	n/a	1	0	0.5869140625	0.422607421875	upper	../fonts/amplitud.ttf
596508	WORD	wordpools/wasnorm_wordpool.txt	LTP086	ltpFR	3	4	0	SPARROW	1347	n/a	0	0	0.5869140625	0.422607421875	upper	../fonts/amplitud.ttf
600692	WORD	wordpools/wasnorm_wordpool.txt	LTP086	ltpFR	3	4	0	SPONGE	1355	n/a	0	0	0.5869140625	0.422607421875	upper	../fonts/amplitud.ttf
604592	WORD	wordpools/wasnorm_wordpool.txt	LTP086	ltpFR	3	4	0	DETECTIVE	454	n/a	0	0	0.5869140625	0.422607421875	upper	../fonts/amplitud.ttf
610216	REC_START	n/a	LTP086	ltpFR	3	4	n/a	n/a	n/a	n/a	n/a	n/a	n/a	n/a	n/a	n/a
610879	REC_WORD	wordpools/wasnorm_wordpool.txt	LTP086	ltpFR	3	4	0	SPONGE	1355	n/a	0	n/a	n/a	n/a	n/a	n/a
612017	REC_WORD	wordpools/wasnorm_wordpool.txt	LTP086	ltpFR	3	4	0	DETECTIVE	454	n/a	0	n/a	n/a	n/a	n/a	n/a
612990	REC_WORD	wordpools/wasnorm_wordpool.txt	LTP086	ltpFR	3	4	0	SPARROW	1347	n/a	0	n/a	n/a	n/a	n/a	n/a
614277	REC_WORD	wordpools/wasnorm_wordpool.txt	LTP086	ltpFR	3	4	0	CROW	414	n/a	1	n/a	n/a	n/a	n/a	n/a
615359	REC_WORD	wordpools/wasnorm_wordpool.txt	LTP086	ltpFR	3	4	0	CYCLONE	431	n/a	1	n/a	n/a	n/a	n/a	n/a
629791	REC_WORD	wordpools/wasnorm_wordpool.txt	LTP086	ltpFR	3	4	1	PATIO	1025	n/a	0	n/a	n/a	n/a	n/a	n/a
708793	WORD	wordpools/wasnorm_wordpool.txt	LTP086	ltpFR	3	5	1	SHOVEL	1295	n/a	1	1	0.412841796875	0.57763671875	lower	../fonts/zerothre.ttf
712966	WORD	wordpools/wasnorm_wordpool.txt	LTP086	ltpFR	3	5	1	TULIP	1517	n/a	0	1	0.412841796875	0.57763671875	lower	../fonts/zerothre.ttf
716949	WORD	wordpools/wasnorm_wordpool.txt	LTP086	ltpFR	3	5	0	COIN	343	n/a	1	0	0.5869140625	0.422607421875	upper	../fonts/amplitud.ttf
721074	WORD	wordpools/wasnorm_wordpool.txt	LTP086	ltpFR	3	5	0	DOLLAR	482	n/a	0	0	0.5869140625	0.422607421875	upper	../fonts/amplitud.ttf
725149	WORD	wordpools/wasnorm_wordpool.txt	LTP086	ltpFR	3	5	0	SHED	1277	n/a	0	0	0.5869140625	0.422607421875	upper	../fonts/amplitud.ttf
729073	WORD	wordpools/wasnorm_wordpool.txt	LTP086	ltpFR	3	5	0	BARREL	91	n/a	1	0	0.5869140625	0.422607421875	upper	../fonts/amplitud.ttf
733048	WORD	wordpools/wasnorm_wordpool.txt	LTP086	ltpFR	3	5	0	DANDELION	438	n/a	0	0	0.5869140625	0.422607421875	upper	../fonts/amplitud.ttf
736865	WORD	wordpools/wasnorm_wordpool.txt	LTP086	ltpFR	3	5	0	SKELETON	1314	n/a	1	0	0.5869140625	0.422607421875	upper	../fonts/amplitud.ttf
740948	WORD	wordpools/wasnorm_wordpool.txt	LTP086	ltpFR	3	5	1	HORIZON	717	n/a	1	1	0.412841796875	0.57763671875	lower	../fonts/zerothre.ttf
744856	WORD	wordpools/wasnorm_wordpool.txt	LTP086	ltpFR	3	5	1	PLANT	1083	n/a	1	1	0.412841796875	0.57763671875	lower	../fonts/zerothre.ttf
748765	WORD	wordpools/wasnorm_wordpool.txt	LTP086	ltpFR	3	5	0	FLOWER	584	n/a	1	0	0.5869140625	0.422607421875	upper	../fonts/amplitud.ttf
752938	WORD	wordpools/wasnorm_wordpool.txt	LTP086	ltpFR	3	5	0	GROUND	666	n/a	1	0	0.5869140625	0.422607421875	upper	../fonts/amplitud.ttf
757013	WORD	wordpools/wasnorm_wordpool.txt	LTP086	ltpFR	3	5	1	ELEPHANT	523	n/a	1	1	0.412841796875	0.57763671875	lower	../fonts/zerothre.ttf
761063	WORD	wordpools/wasnorm_wordpool.txt	LTP086	ltpFR	3	5	1	BUFFALO	186	n/a	1	1	0.412841796875	0.57763671875	lower	../fonts/zerothre.ttf
764904	WORD	wordpools/wasnorm_wordpool.txt	LTP086	ltpFR	3	5	1	LEOPARD	812	n/a	1	1	0.412841796875	0.57763671875	lower	../fonts/zerothre.ttf
768995	WORD	wordpools/wasnorm_wordpool.txt	LTP086	ltpFR	3	5	1	PEDESTRIAN	1038	n/a	1	1	0.412841796875	0.57763671875	lower	../fonts/zerothre.ttf
774755	REC_START	n/a	LTP086	ltpFR	3	5	n/a	n/a	n/a	n/a	n/a	n/a	n/a	n/a	n/a	n/a
775189	REC_WORD	wordpools/wasnorm_wordpool.txt	LTP086	ltpFR	3	5	1	ELEPHANT	523	n/a	1	n/a	n/a	n/a	n/a	n/a
775877	REC_WORD	wordpools/wasnorm_wordpool.txt	LTP086	ltpFR	3	5	1	BUFFALO	186	n/a	1	n/a	n/a	n/a	n/a	n/a
776646	REC_WORD	wordpools/wasnorm_wordpool.txt	LTP086	ltpFR	3	5	1	LEOPARD	812	n/a	1	n/a	n/a	n/a	n/a	n/a
777424	REC_WORD	wordpools/wasnorm_wordpool.txt	LTP086	ltpFR	3	5	1	PEDESTRIAN	1038	n/a	1	n/a	n/a	n/a	n/a	n/a
785510	REC_WORD	wordpools/wasnorm_wordpool.txt	LTP086	ltpFR	3	5	0	FLOWER	584	n/a	1	n/a	n/a	n/a	n/a	n/a
787002	REC_WORD	wordpools/wasnorm_wordpool.txt	LTP086	ltpFR	3	5	0	DANDELION	438	n/a	0	n/a	n/a	n/a	n/a	n/a
807116	REC_WORD	wordpools/wasnorm_wordpool.txt	LTP086	ltpFR	3	5	0	SKELETON	1314	n/a	1	n/a	n/a	n/a	n/a	n/a
814829	REC_WORD	wordpools/wasnorm_wordpool.txt	LTP086	ltpFR	3	5	1	HORIZON	717	n/a	1	n/a	n/a	n/a	n/a	n/a
868271	WORD	wordpools/wasnorm_wordpool.txt	LTP086	ltpFR	3	6	1	SAUSAGE	1238	n/a	1	1	0.412841796875	0.57763671875	lower	../fonts/zerothre.ttf
872263	WORD	wordpools/wasnorm_wordpool.txt	LTP086	ltpFR	3	6	1	RIB	1188	n/a	1	1	0.412841796875	0.57763671875	lower	../fonts/zerothre.ttf
876471	WORD	wordpools/wasnorm_wordpool.txt	LTP086	ltpFR	3	6	1	DINER	467	n/a	1	1	0.412841796875	0.57763671875	lower	../fonts/zerothre.ttf
880596	WORD	wordpools/wasnorm_wordpool.txt	LTP086	ltpFR	3	6	1	COAT	333	n/a	1	1	0.412841796875	0.57763671875	lower	../fonts/zerothre.ttf
884478	WORD	wordpools/wasnorm_wordpool.txt	LTP086	ltpFR	3	6	1	SWEATER	1419	n/a	0	1	0.412841796875	0.57763671875	lower	../fonts/zerothre.ttf
888311	WORD	wordpools/wasnorm_wordpool.txt	LTP086	ltpFR	3	6	1	CREATURE	403	n/a	0	1	0.412841796875	0.57763671875	lower	../fonts/zerothre.ttf
892436	WORD	wordpools/wasnorm_wordpool.txt	LTP086	ltpFR	3	6	1	COW	393	n/a	0	1	0.412841796875	0.57763671875	lower	../fonts/zerothre.ttf
896527	WORD	wordpools/wasnorm_wordpool.txt	LTP086	ltpFR	3	6	1	CATTLE	261	n/a	1	1	0.412841796875	0.57763671875	lower	../fonts/zerothre.ttf
900486	WORD	wordpools/wasnorm_wordpool.txt	LTP086	ltpFR	3	6	1	SUIT	1402	n/a	0	1	0.412841796875	0.57763671875	lower	../fonts/zerothre.ttf
904611	WORD	wordpools/wasnorm_wordpool.txt	LTP086	ltpFR	3	6	1	BEAST	108	n/a	1	1	0.412841796875	0.57763671875	lower	../fonts/zerothre.ttf
908761	WORD	wordpools/wasnorm_wordpool.txt	LTP086	ltpFR	3	6	1	REPORT	1184	n/a	0	1	0.412841796875	0.57763671875	lower	../fonts/zerothre.ttf
912594	WORD	wordpools/wasnorm_wordpool.txt	LTP086	ltpFR	3	6	1	DIRECTOR	471	n/a	1	1	0.412841796875	0.57763671875	lower	../fonts/zerothre.ttf
916518	WORD	wordpools/wasnorm_wordpool.txt	LTP086	ltpFR	3	6	1	RUNNER	1218	n/a	1	1	0.412841796875	0.57763671875	lower	../fonts/zerothre.ttf
920660	WORD	wordpools/wasnorm_wordpool.txt	LTP086	ltpFR	3	6	1	CANE	231	n/a	1	1	0.412841796875	0.57763671875	lower	../fonts/zerothre.ttf
924850	WORD	wordpools/wasnorm_wordpool.txt	LTP086	ltpFR	3	6	1	CABINET	212	n/a	1	1	0.412841796875	0.57763671875	lower	../fonts/zerothre.ttf
928950	WORD	wordpools/wasnorm_wordpool.txt	LTP086	ltpFR	3	6	1	CASHEW	253	n/a	0	1	0.412841796875	0.57763671875	lower	../fonts/zerothre.ttf
935050	REC_START	n/a	LTP086	ltpFR	3	6	n/a	n/a	n/a	n/a	n/a	n/a	n/a	n/a	n/a	n/a
935419	REC_WORD	wordpools/wasnorm_wordpool.txt	LTP086	ltpFR	3	6	1	CABINET	212	n/a	1	n/a	n/a	n/a	n/a	n/a
936187	REC_WORD	wordpools/wasnorm_wordpool.txt	LTP086	ltpFR	3	6	1	CASHEW	253	n/a	0	n/a	n/a	n/a	n/a	n/a
937120	REC_WORD	wordpools/wasnorm_wordpool.txt	LTP086	ltpFR	3	6	1	RUNNER	1218	n/a	1	n/a	n/a	n/a	n/a	n/a
938008	REC_WORD	wordpools/wasnorm_wordpool.txt	LTP086	ltpFR	3	6	1	DIRECTOR	471	n/a	1	n/a	n/a	n/a	n/a	n/a
950410	REC_WORD	wordpools/wasnorm_wordpool.txt	LTP086	ltpFR	3	6	1	COAT	333	n/a	1	n/a	n/a	n/a	n/a	n/a
950999	REC_WORD	wordpools/wasnorm_wordpool.txt	LTP086	ltpFR	3	6	1	SWEATER	1419	n/a	0	n/a	n/a	n/a	n/a	n/a
951936	REC_WORD	wordpools/wasnorm_wordpool.txt	LTP086	ltpFR	3	6	1	SUIT	1402	n/a	0	n/a	n/a	n/a	n/a	n/a
957244	REC_WORD	wordpools/wasnorm_wordpool.txt	LTP086	ltpFR	3	6	1	SAUSAGE	1238	n/a	1	n/a	n/a	n/a	n/a	n/a
958781	REC_WORD	wordpools/wasnorm_wordpool.txt	LTP086	ltpFR	3	6	n/a	BEEF	113	n/a	n/a	n/a	n/a	n/a	n/a	n/a
959390	REC_WORD_VV	wordpools/wasnorm_wordpool.txt	LTP086	ltpFR	3	6	n/a	<>	-1	n/a	n/a	n/a	n/a	n/a	n/a	n/a
960896	REC_WORD	wordpools/wasnorm_wordpool.txt	LTP086	ltpFR	3	6	1	SAUSAGE	1238	n/a	1	n/a	n/a	n/a	n/a	n/a
961814	REC_WORD	wordpools/wasnorm_wordpool.txt	LTP086	ltpFR	3	6	1	CATTLE	261	n/a	1	n/a	n/a	n/a	n/a	n/a
962692	REC_WORD	wordpools/wasnorm_wordpool.txt	LTP086	ltpFR	3	6	1	COW	393	n/a	0	n/a	n/a	n/a	n/a	n/a
963790	REC_WORD	wordpools/wasnorm_wordpool.txt	LTP086	ltpFR	3	6	1	DINER	467	n/a	1	n/a	n/a	n/a	n/a	n/a
964727	REC_WORD	wordpools/wasnorm_wordpool.txt	LTP086	ltpFR	3	6	1	RIB	1188	n/a	1	n/a	n/a	n/a	n/a	n/a
1013786	WORD	wordpools/wasnorm_wordpool.txt	LTP086	ltpFR	3	7	0	OYSTER	995	n/a	1	0	0.5869140625	0.422607421875	upper	../fonts/amplitud.ttf
1017636	WORD	wordpools/wasnorm_wordpool.txt	LTP086	ltpFR	3	7	0	CREVICE	405	n/a	0	0	0.5869140625	0.422607421875	upper	../fonts/amplitud.ttf
1021727	WORD	wordpools/wasnorm_wordpool.txt	LTP086	ltpFR	3	7	0	PIT	1077	n/a	0	0	0.5869140625	0.422607421875	upper	../fonts/amplitud.ttf
1025544	WORD	wordpools/wasnorm_wordpool.txt	LTP086	ltpFR	3	7	0	CAR	241	n/a	0	0	0.5869140625	0.422607421875	upper	../fonts/amplitud.ttf
1029602	WORD	wordpools/wasnorm_wordpool.txt	LTP086	ltpFR	3	7	0	WOUND	1624	n/a	0	0	0.5869140625	0.422607421875	upper	../fonts/amplitud.ttf
1033475	WORD	wordpools/wasnorm_wordpool.txt	LTP086	ltpFR	3	7	0	SIDING	1304	n/a	0	0	0.5869140625	0.422607421875	upper	../fonts/amplitud.ttf
1037434	WORD	wordpools/wasnorm_wordpool.txt	LTP086	ltpFR	3	7	0	CAP	236	n/a	1	0	0.5869140625	0.422607421875	upper	../fonts/amplitud.ttf
1041525	WORD	wordpools/wasnorm_wordpool.txt	LTP086	ltpFR	3	7	0	DRIVEWAY	500	n/a	1	0	0.5869140625	0.422607421875	upper	../fonts/amplitud.ttf
1045676	WORD	wordpools/wasnorm_wordpool.txt	LTP086	ltpFR	3	7	0	NECKLACE	940	n/a	1	0	0.5869140625	0.422607421875	upper	../fonts/amplitud.ttf
1049684	WORD	wordpools/wasnorm_wordpool.txt	LTP086	ltpFR	3	7	0	LASH	802	n/a	0	0	0.5869140625	0.422607421875	upper	../fonts/amplitud.ttf
1053642	WORD	wordpools/wasnorm_wordpool.txt	LTP086	ltpFR	3	7	0	CRUTCH	417	n/a	0	0	0.5869140625	0.422607421875	upper	../fonts/amplitud.ttf
1057849	WORD	wordpools/wasnorm_wordpool.txt	LTP086	ltpFR	3	7	0	TART	1436	n/a	0	0	0.5869140625	0.422607421875	upper	../fonts/amplitud.ttf
1061965	WORD	wordpools/wasnorm_wordpool.txt	LTP086	ltpFR	3	7	0	SURF	1412	n/a	1	0	0.5869140625	0.422607421875	upper	../fonts/amplitud.ttf
1065948	WORD	wordpools/wasnorm_wordpool.txt	LTP086	ltpFR	3	7	0	BUCKET	184	n/a	1	0	0.5869140625	0.422607421875	upper	../fonts/amplitud.ttf
1069824	WORD	wordpools/wasnorm_wordpool.txt	LTP086	ltpFR	3	7	0	COWBOY	395	n/a	1	0	0.5869140625	0.422607421875	upper	../fonts/amplitud.ttf
1073707	WORD	wordpools/wasnorm_wordpool.txt	LTP086	ltpFR	3	7	0	HOOD	714	n/a	1	0	0.5869140625	0.422607421875	upper	../fonts/amplitud.ttf
1079540	REC_START	n/a	LTP086	ltpFR	3	7	n/a	n/a	n/a	n/a	n/a	n/a	n/a	n/a	n/a	n/a
1080453	REC_WORD	wordpools/wasnorm_wordpool.txt	LTP086	ltpFR	3	7	0	LASH	802	n/a	0	n/a	n/a	n/a	n/a	n/a
1081331	REC_WORD	wordpools/wasnorm_wordpool.txt	LTP086	ltpFR	3	7	0	BUCKET	184	n/a	1	n/a	n/a	n/a	n/a	n/a
1082069	REC_WORD	wordpools/wasnorm_wordpool.txt	LTP086	ltpFR	3	7	0	COWBOY	395	n/a	1	n/a	n/a	n/a	n/a	n/a
1083127	REC_WORD	wordpools/wasnorm_wordpool.txt	LTP086	ltpFR	3	7	0	TART	1436	n/a	0	n/a	n/a	n/a	n/a	n/a
1084134	REC_WORD	wordpools/wasnorm_wordpool.txt	LTP086	ltpFR	3	7	0	HOOD	714	n/a	1	n/a	n/a	n/a	n/a	n/a
1103256	REC_WORD	wordpools/wasnorm_wordpool.txt	LTP086	ltpFR	3	7	0	GROUND	666	n/a	1	n/a	n/a	n/a	n/a	n/a
1103899	REC_WORD	wordpools/wasnorm_wordpool.txt	LTP086	ltpFR	3	7	0	PIT	1077	n/a	0	n/a	n/a	n/a	n/a	n/a
1106045	REC_WORD_VV	wordpools/wasnorm_wordpool.txt	LTP086	ltpFR	3	7	n/a	<>	-1	n/a	n/a	n/a	n/a	n/a	n/a	n/a
1107107	REC_WORD	wordpools/wasnorm_wordpool.txt	LTP086	ltpFR	3	7	0	PIT	1077	n/a	0	n/a	n/a	n/a	n/a	n/a
1114805	REC_WORD	wordpools/wasnorm_wordpool.txt	LTP086	ltpFR	3	7	0	WOUND	1624	n/a	0	n/a	n/a	n/a	n/a	n/a
1169240	WORD	wordpools/wasnorm_wordpool.txt	LTP086	ltpFR	3	8	1	THIGH	1457	n/a	1	1	0.412841796875	0.57763671875	lower	../fonts/zerothre.ttf
1173290	WORD	wordpools/wasnorm_wordpool.txt	LTP086	ltpFR	3	8	1	JOINT	758	n/a	1	1	0.412841796875	0.57763671875	lower	../fonts/zerothre.ttf
1177156	WORD	wordpools/wasnorm_wordpool.txt	LTP086	ltpFR	3	8	1	CUB	419	n/a	1	1	0.412841796875	0.57763671875	lower	../fonts/zerothre.ttf
1181323	WORD	wordpools/wasnorm_wordpool.txt	LTP086	ltpFR	3	8	1	LOBSTER	837	n/a	0	1	0.412841796875	0.57763671875	lower	../fonts/zerothre.ttf
1185189	WORD	wordpools/wasnorm_wordpool.txt	LTP086	ltpFR	3	8	1	SOCIETY	1338	n/a	1	1	0.412841796875	0.57763671875	lower	../fonts/zerothre.ttf
1189255	WORD	wordpools/wasnorm_wordpool.txt	LTP086	ltpFR	3	8	1	CROSS	413	n/a	1	1	0.412841796875	0.57763671875	lower	../fonts/zerothre.ttf
1193338	WORD	wordpools/wasnorm_wordpool.txt	LTP086	ltpFR	3	8	1	SURVEY	1414	n/a	0	1	0.412841796875	0.57763671875	lower	../fonts/zerothre.ttf
1197405	WORD	wordpools/wasnorm_wordpool.txt	LTP086	ltpFR	3	8	1	ASTRONAUT	51	n/a	1	1	0.412841796875	0.57763671875	lower	../fonts/zerothre.ttf
1201529	WORD	wordpools/wasnorm_wordpool.txt	LTP086	ltpFR	3	8	1	GALAXY	617	n/a	1	1	0.412841796875	0.57763671875	lower	../fonts/zerothre.ttf
1205354	WORD	wordpools/wasnorm_wordpool.txt	LTP086	ltpFR	3	8	1	PERSON	1052	n/a	1	1	0.412841796875	0.57763671875	lower	../fonts/zerothre.ttf
1209462	WORD	wordpools/wasnorm_wordpool.txt	LTP086	ltpFR	3	8	1	FREEWAY	603	n/a	1	1	0.412841796875	0.57763671875	lower	../fonts/zerothre.ttf
1213596	WORD	wordpools/wasnorm_wordpool.txt	LTP086	ltpFR	3	8	1	GRIZZLY	662	n/a	1	1	0.412841796875	0.57763671875	lower	../fonts/zerothre.ttf
1217721	WORD	wordpools/wasnorm_wordpool.txt	LTP086	ltpFR	3	8	1	WORM	1623	n/a	1	1	0.412841796875	0.57763671875	lower	../fonts/zerothre.ttf
1221554	WORD	wordpools/wasnorm_wordpool.txt	LTP086	ltpFR	3	8	1	ROAD	1196	n/a	1	1	0.412841796875	0.57763671875	lower	../fonts/zerothre.ttf
1225519	WORD	wordpools/wasnorm_wordpool.txt	LTP086	ltpFR	3	8	1	HIKER	708	n/a	1	1	0.412841796875	0.57763671875	lower	../fonts/zerothre.ttf
1229436	WORD	wordpools/wasnorm_wordpool.txt	LTP086	ltpFR	3	8	1	CHAIR	274	n/a	1	1	0.412841796875	0.57763671875	lower	../fonts/zerothre.ttf
1235186	REC_START	n/a	LTP086	ltpFR	3	8	n/a	n/a	n/a	n/a	n/a	n/a	n/a	n/a	n/a	n/a
1236029	REC_WORD	wordpools/wasnorm_wordpool.txt	LTP086	ltpFR	3	8	1	GRIZZLY	662	n/a	1	n/a	n/a	n/a	n/a	n/a
1236997	REC_WORD	wordpools/wasnorm_wordpool.txt	LTP086	ltpFR	3	8	1	CUB	419	n/a	1	n/a	n/a	n/a	n/a	n/a
1237935	REC_WORD	wordpools/wasnorm_wordpool.txt	LTP086	ltpFR	3	8	1	WORM	1623	n/a	1	n/a	n/a	n/a	n/a	n/a
1238932	REC_WORD	wordpools/wasnorm_wordpool.txt	LTP086	ltpFR	3	8	1	HIKER	708	n/a	1	n/a	n/a	n/a	n/a	n/a
1240120	REC_WORD	wordpools/wasnorm_wordpool.txt	LTP086	ltpFR	3	8	1	CHAIR	274	n/a	1	n/a	n/a	n/a	n/a	n/a
1243617	REC_WORD	wordpools/wasnorm_wordpool.txt	LTP086	ltpFR	3	8	1	LOBSTER	837	n/a	0	n/a	n/a	n/a	n/a	n/a
1276667	REC_WORD	wordpools/wasnorm_wordpool.txt	LTP086	ltpFR	3	8	1	ASTRONAUT	51	n/a	1	n/a	n/a	n/a	n/a	n/a
1278348	REC_WORD	wordpools/wasnorm_wordpool.txt	LTP086	ltpFR	3	8	1	PERSON	1052	n/a	1	n/a	n/a	n/a	n/a	n/a
1334629	WORD	wordpools/wasnorm_wordpool.txt	LTP086	ltpFR	3	9	0	ROOF	1205	n/a	1	0	0.5869140625	0.422607421875	upper	../fonts/amplitud.ttf
1338795	WORD	wordpools/wasnorm_wordpool.txt	LTP086	ltpFR	3	9	0	LOG	841	n/a	1	0	0.5869140625	0.422607421875	upper	../fonts/amplitud.ttf
1342770	WORD	wordpools/wasnorm_wordpool.txt	LTP086	ltpFR	3	9	0	TREE	1502	n/a	1	0	0.5869140625	0.422607421875	upper	../fonts/amplitud.ttf
1346902	WORD	wordpools/wasnorm_wordpool.txt	LTP086	ltpFR	3	9	1	ASHTRAY	45	n/a	1	1	0.412841796875	0.57763671875	lower	../fonts/zerothre.ttf
1350951	WORD	wordpools/wasnorm_wordpool.txt	LTP086	ltpFR	3	9	1	WIRE	1616	n/a	1	1	0.412841796875	0.57763671875	lower	../fonts/zerothre.ttf
1354836	WORD	wordpools/wasnorm_wordpool.txt	LTP086	ltpFR	3	9	1	HEDGE	699	n/a	0	1	0.412841796875	0.57763671875	lower	../fonts/zerothre.ttf
1358868	WORD	wordpools/wasnorm_wordpool.txt	LTP086	ltpFR	3	9	1	CLAM	315	n/a	1	1	0.412841796875	0.57763671875	lower	../fonts/zerothre.ttf
1363009	WORD	wordpools/wasnorm_wordpool.txt	LTP086	ltpFR	3	9	1	PIMPLE	1071	n/a	0	1	0.412841796875	0.57763671875	lower	../fonts/zerothre.ttf
1366925	WORD	wordpools/wasnorm_wordpool.txt	LTP086	ltpFR	3	9	1	FACE	547	n/a	1	1	0.412841796875	0.57763671875	lower	../fonts/zerothre.ttf
1370751	WORD	wordpools/wasnorm_wordpool.txt	LTP086	ltpFR	3	9	0	RECEPTIONIST	1174	n/a	1	0	0.5869140625	0.422607421875	upper	../fonts/amplitud.ttf
1374916	WORD	wordpools/wasnorm_wordpool.txt	LTP086	ltpFR	3	9	0	PUMP	1141	n/a	0	0	0.5869140625	0.422607421875	upper	../fonts/amplitud.ttf
1378949	WORD	wordpools/wasnorm_wordpool.txt	LTP086	ltpFR	3	9	1	NEWSSTAND	949	n/a	1	1	0.412841796875	0.57763671875	lower	../fonts/zerothre.ttf
1382792	WORD	wordpools/wasnorm_wordpool.txt	LTP086	ltpFR	3	9	1	FOLDER	588	n/a	0	1	0.412841796875	0.57763671875	lower	../fonts/zerothre.ttf
1386741	WORD	wordpools/wasnorm_wordpool.txt	LTP086	ltpFR	3	9	0	MAGAZINE	853	n/a	1	0	0.5869140625	0.422607421875	upper	../fonts/amplitud.ttf
1390616	WORD	wordpools/wasnorm_wordpool.txt	LTP086	ltpFR	3	9	0	REBEL	1172	n/a	0	0	0.5869140625	0.422607421875	upper	../fonts/amplitud.ttf
1394732	WORD	wordpools/wasnorm_wordpool.txt	LTP086	ltpFR	3	9	0	TURTLE	1522	n/a	0	0	0.5869140625	0.422607421875	upper	../fonts/amplitud.ttf
1400541	REC_START	n/a	LTP086	ltpFR	3	9	n/a	n/a	n/a	n/a	n/a	n/a	n/a	n/a	n/a	n/a
1400915	REC_WORD	wordpools/wasnorm_wordpool.txt	LTP086	ltpFR	3	9	1	NEWSSTAND	949	n/a	1	n/a	n/a	n/a	n/a	n/a
1401933	REC_WORD	wordpools/wasnorm_wordpool.txt	LTP086	ltpFR	3	9	0	MAGAZINE	853	n/a	1	n/a	n/a	n/a	n/a	n/a
1402980	REC_WORD	wordpools/wasnorm_wordpool.txt	LTP086	ltpFR	3	9	0	REBEL	1172	n/a	0	n/a	n/a	n/a	n/a	n/a
1404048	REC_WORD	wordpools/wasnorm_wordpool.txt	LTP086	ltpFR	3	9	0	TURTLE	1522	n/a	0	n/a	n/a	n/a	n/a	n/a
1407281	REC_WORD	wordpools/wasnorm_wordpool.txt	LTP086	ltpFR	3	9	1	CLAM	315	n/a	1	n/a	n/a	n/a	n/a	n/a
1408089	REC_WORD	wordpools/wasnorm_wordpool.txt	LTP086	ltpFR	3	9	1	FACE	547	n/a	1	n/a	n/a	n/a	n/a	n/a
1409111	REC_WORD	wordpools/wasnorm_wordpool.txt	LTP086	ltpFR	3	9	1	PIMPLE	1071	n/a	0	n/a	n/a	n/a	n/a	n/a
1435636	REC_WORD	wordpools/wasnorm_wordpool.txt	LTP086	ltpFR	3	9	0	RECEPTIONIST	1174	n/a	1	n/a	n/a	n/a	n/a	n/a
1486483	WORD	wordpools/wasnorm_wordpool.txt	LTP086	ltpFR	3	10	-1	FIG	563	n/a	-1	1	1.0	1.0	upper	../fonts/Verdana.ttf
1490675	WORD	wordpools/wasnorm_wordpool.txt	LTP086	ltpFR	3	10	-1	ROOM	1206	n/a	-1	1	1.0	1.0	upper	../fonts/Verdana.ttf
1494633	WORD	wordpools/wasnorm_wordpool.txt	LTP086	ltpFR	3	10	-1	CABIN	211	n/a	-1	1	1.0	1.0	upper	../fonts/Verdana.ttf
1498616	WORD	wordpools/wasnorm_wordpool.txt	LTP086	ltpFR	3	10	-1	PORCH	1106	n/a	-1	1	1.0	1.0	upper	../fonts/Verdana.ttf
1502608	WORD	wordpools/wasnorm_wordpool.txt	LTP086	ltpFR	3	10	-1	THICKET	1455	n/a	-1	1	1.0	1.0	upper	../fonts/Verdana.ttf
1506807	WORD	wordpools/wasnorm_wordpool.txt	LTP086	ltpFR	3	10	-1	DENIM	446	n/a	-1	1	1.0	1.0	upper	../fonts/Verdana.ttf
1510856	WORD	wordpools/wasnorm_wordpool.txt	LTP086	ltpFR	3	10	-1	FRUIT	610	n/a	-1	1	1.0	1.0	upper	../fonts/Verdana.ttf
1514848	WORD	wordpools/wasnorm_wordpool.txt	LTP086	ltpFR	3	10	-1	COTTAGE	384	n/a	-1	1	1.0	1.0	upper	../fonts/Verdana.ttf
1518740	WORD	wordpools/wasnorm_wordpool.txt	LTP086	ltpFR	3	10	-1	ENGINE	535	n/a	-1	1	1.0	1.0	upper	../fonts/Verdana.ttf
1522863	WORD	wordpools/wasnorm_wordpool.txt	LTP086	ltpFR	3	10	-1	GUEST	669	n/a	-1	1	1.0	1.0	upper	../fonts/Verdana.ttf
1526731	WORD	wordpools/wasnorm_wordpool.txt	LTP086	ltpFR	3	10	-1	BANJO	82	n/a	-1	1	1.0	1.0	upper	../fonts/Verdana.ttf
1530913	WORD	wordpools/wasnorm_wordpool.txt	LTP086	ltpFR	3	10	-1	CARD	243	n/a	-1	1	1.0	1.0	upper	../fonts/Verdana.ttf
1534871	WORD	wordpools/wasnorm_wordpool.txt	LTP086	ltpFR	3	10	-1	BATTERY	101	n/a	-1	1	1.0	1.0	upper	../fonts/Verdana.ttf
1538772	WORD	wordpools/wasnorm_wordpool.txt	LTP086	ltpFR	3	10	-1	YOKE	1632	n/a	-1	1	1.0	1.0	upper	../fonts/Verdana.ttf
1542721	WORD	wordpools/wasnorm_wordpool.txt	LTP086	ltpFR	3	10	-1	CHICK	296	n/a	-1	1	1.0	1.0	upper	../fonts/Verdana.ttf
1546579	WORD	wordpools/wasnorm_wordpool.txt	LTP086	ltpFR	3	10	-1	AUTOMOBILE	62	n/a	-1	1	1.0	1.0	upper	../fonts/Verdana.ttf
1552353	REC_START	n/a	LTP086	ltpFR	3	10	n/a	n/a	n/a	n/a	n/a	n/a	n/a	n/a	n/a	n/a
1553091	REC_WORD	wordpools/wasnorm_wordpool.txt	LTP086	ltpFR	3	10	-1	YOKE	1632	n/a	-1	n/a	n/a	n/a	n/a	n/a
1554024	REC_WORD	wordpools/wasnorm_wordpool.txt	LTP086	ltpFR	3	10	-1	CHICK	296	n/a	-1	n/a	n/a	n/a	n/a	n/a
1554907	REC_WORD	wordpools/wasnorm_wordpool.txt	LTP086	ltpFR	3	10	-1	AUTOMOBILE	62	n/a	-1	n/a	n/a	n/a	n/a	n/a
1555990	REC_WORD	wordpools/wasnorm_wordpool.txt	LTP086	ltpFR	3	10	-1	THICKET	1455	n/a	-1	n/a	n/a	n/a	n/a	n/a
1556907	REC_WORD	wordpools/wasnorm_wordpool.txt	LTP086	ltpFR	3	10	-1	PORCH	1106	n/a	-1	n/a	n/a	n/a	n/a	n/a
1557895	REC_WORD	wordpools/wasnorm_wordpool.txt	LTP086	ltpFR	3	10	-1	GUEST	669	n/a	-1	n/a	n/a	n/a	n/a	n/a
1558918	REC_WORD	wordpools/wasnorm_wordpool.txt	LTP086	ltpFR	3	10	-1	BANJO	82	n/a	-1	n/a	n/a	n/a	n/a	n/a
1566925	REC_WORD	wordpools/wasnorm_wordpool.txt	LTP086	ltpFR	3	10	0	LOG	841	n/a	1	n/a	n/a	n/a	n/a	n/a
1582814	REC_WORD	wordpools/wasnorm_wordpool.txt	LTP086	ltpFR	3	10	-1	CARD	243	n/a	-1	n/a	n/a	n/a	n/a	n/a
1583652	REC_WORD	wordpools/wasnorm_wordpool.txt	LTP086	ltpFR	3	10	-1	BATTERY	101	n/a	-1	n/a	n/a	n/a	n/a	n/a
1620104	REC_WORD	wordpools/wasnorm_wordpool.txt	LTP086	ltpFR	3	10	-1	DENIM	446	n/a	-1	n/a	n/a	n/a	n/a	n/a
1646262	WORD	wordpools/wasnorm_wordpool.txt	LTP086	ltpFR	3	11	-1	ICING	732	n/a	-1	1	1.0	1.0	upper	../fonts/Verdana.ttf
1650312	WORD	wordpools/wasnorm_wordpool.txt	LTP086	ltpFR	3	11	-1	CONE	363	n/a	-1	1	1.0	1.0	upper	../fonts/Verdana.ttf
1654162	WORD	wordpools/wasnorm_wordpool.txt	LTP086	ltpFR	3	11	-1	HOSPITAL	721	n/a	-1	1	1.0	1.0	upper	../fonts/Verdana.ttf
1658111	WORD	wordpools/wasnorm_wordpool.txt	LTP086	ltpFR	3	11	-1	NEPTUNE	943	n/a	-1	1	1.0	1.0	upper	../fonts/Verdana.ttf
1661978	WORD	wordpools/wasnorm_wordpool.txt	LTP086	ltpFR	3	11	-1	LETTUCE	814	n/a	-1	1	1.0	1.0	upper	../fonts/Verdana.ttf
1665878	WORD	wordpools/wasnorm_wordpool.txt	LTP086	ltpFR	3	11	-1	ATLAS	53	n/a	-1	1	1.0	1.0	upper	../fonts/Verdana.ttf
1669845	WORD	wordpools/wasnorm_wordpool.txt	LTP086	ltpFR	3	11	-1	UNIVERSE	1540	n/a	-1	1	1.0	1.0	upper	../fonts/Verdana.ttf
1673803	WORD	wordpools/wasnorm_wordpool.txt	LTP086	ltpFR	3	11	-1	BOMB	147	n/a	-1	1	1.0	1.0	upper	../fonts/Verdana.ttf
1677628	WORD	wordpools/wasnorm_wordpool.txt	LTP086	ltpFR	3	11	-1	GOLD	647	n/a	-1	1	1.0	1.0	upper	../fonts/Verdana.ttf
1681577	WORD	wordpools/wasnorm_wordpool.txt	LTP086	ltpFR	3	11	-1	PATIENT	1024	n/a	-1	1	1.0	1.0	upper	../fonts/Verdana.ttf
1685560	WORD	wordpools/wasnorm_wordpool.txt	LTP086	ltpFR	3	11	-1	FEAST	556	n/a	-1	1	1.0	1.0	upper	../fonts/Verdana.ttf
1689434	WORD	wordpools/wasnorm_wordpool.txt	LTP086	ltpFR	3	11	-1	NIECE	952	n/a	-1	1	1.0	1.0	upper	../fonts/Verdana.ttf
1693251	WORD	wordpools/wasnorm_wordpool.txt	LTP086	ltpFR	3	11	-1	OPERATOR	979	n/a	-1	1	1.0	1.0	upper	../fonts/Verdana.ttf
1697225	WORD	wordpools/wasnorm_wordpool.txt	LTP086	ltpFR	3	11	-1	SACK	1220	n/a	-1	1	1.0	1.0	upper	../fonts/Verdana.ttf
1701242	WORD	wordpools/wasnorm_wordpool.txt	LTP086	ltpFR	3	11	-1	POCKET	1093	n/a	-1	1	1.0	1.0	upper	../fonts/Verdana.ttf
1705441	WORD	wordpools/wasnorm_wordpool.txt	LTP086	ltpFR	3	11	-1	EXPLOSION	544	n/a	-1	1	1.0	1.0	upper	../fonts/Verdana.ttf
1711183	REC_START	n/a	LTP086	ltpFR	3	11	n/a	n/a	n/a	n/a	n/a	n/a	n/a	n/a	n/a	n/a
1711766	REC_WORD	wordpools/wasnorm_wordpool.txt	LTP086	ltpFR	3	11	-1	SACK	1220	n/a	-1	n/a	n/a	n/a	n/a	n/a
1712954	REC_WORD	wordpools/wasnorm_wordpool.txt	LTP086	ltpFR	3	11	-1	ICING	732	n/a	-1	n/a	n/a	n/a	n/a	n/a
1713897	REC_WORD	wordpools/wasnorm_wordpool.txt	LTP086	ltpFR	3	11	-1	CONE	363	n/a	-1	n/a	n/a	n/a	n/a	n/a
1715099	REC_WORD	wordpools/wasnorm_wordpool.txt	LTP086	ltpFR	3	11	-1	POCKET	1093	n/a	-1	n/a	n/a	n/a	n/a	n/a
1715957	REC_WORD	wordpools/wasnorm_wordpool.txt	LTP086	ltpFR	3	11	-1	EXPLOSION	544	n/a	-1	n/a	n/a	n/a	n/a	n/a
1717414	REC_WORD	wordpools/wasnorm_wordpool.txt	LTP086	ltpFR	3	11	-1	BOMB	147	n/a	-1	n/a	n/a	n/a	n/a	n/a
1718471	REC_WORD	wordpools/wasnorm_wordpool.txt	LTP086	ltpFR	3	11	-1	NEPTUNE	943	n/a	-1	n/a	n/a	n/a	n/a	n/a
1719604	REC_WORD	wordpools/wasnorm_wordpool.txt	LTP086	ltpFR	3	11	-1	LETTUCE	814	n/a	-1	n/a	n/a	n/a	n/a	n/a
1720736	REC_WORD	wordpools/wasnorm_wordpool.txt	LTP086	ltpFR	3	11	-1	ATLAS	53	n/a	-1	n/a	n/a	n/a	n/a	n/a
1721709	REC_WORD	wordpools/wasnorm_wordpool.txt	LTP086	ltpFR	3	11	-1	UNIVERSE	1540	n/a	-1	n/a	n/a	n/a	n/a	n/a
1729267	REC_WORD	wordpools/wasnorm_wordpool.txt	LTP086	ltpFR	3	11	-1	HOSPITAL	721	n/a	-1	n/a	n/a	n/a	n/a	n/a
1730349	REC_WORD	wordpools/wasnorm_wordpool.txt	LTP086	ltpFR	3	11	-1	PATIENT	1024	n/a	-1	n/a	n/a	n/a	n/a	n/a
1731342	REC_WORD	wordpools/wasnorm_wordpool.txt	LTP086	ltpFR	3	11	-1	OPERATOR	979	n/a	-1	n/a	n/a	n/a	n/a	n/a
1794393	WORD	wordpools/wasnorm_wordpool.txt	LTP086	ltpFR	3	12	1	HAND	683	n/a	1	1	0.412841796875	0.57763671875	lower	../fonts/zerothre.ttf
1798577	WORD	wordpools/wasnorm_wordpool.txt	LTP086	ltpFR	3	12	1	MEAL	882	n/a	1	1	0.412841796875	0.57763671875	lower	../fonts/zerothre.ttf
1802492	WORD	wordpools/wasnorm_wordpool.txt	LTP086	ltpFR	3	12	1	WAITER	1580	n/a	1	1	0.412841796875	0.57763671875	lower	../fonts/zerothre.ttf
1806560	WORD	wordpools/wasnorm_wordpool.txt	LTP086	ltpFR	3	12	1	COYOTE	396	n/a	0	1	0.412841796875	0.57763671875	lower	../fonts/zerothre.ttf
1810525	WORD	wordpools/wasnorm_wordpool.txt	LTP086	ltpFR	3	12	1	BARK	87	n/a	1	1	0.412841796875	0.57763671875	lower	../fonts/zerothre.ttf
1814508	WORD	wordpools/wasnorm_wordpool.txt	LTP086	ltpFR	3	12	1	NICOTINE	951	n/a	0	1	0.412841796875	0.57763671875	lower	../fonts/zerothre.ttf
1818534	WORD	wordpools/wasnorm_wordpool.txt	LTP086	ltpFR	3	12	1	MONSTER	912	n/a	1	1	0.412841796875	0.57763671875	lower	../fonts/zerothre.ttf
1822457	WORD	wordpools/wasnorm_wordpool.txt	LTP086	ltpFR	3	12	1	SKILLET	1317	n/a	1	1	0.412841796875	0.57763671875	lower	../fonts/zerothre.ttf
1826449	WORD	wordpools/wasnorm_wordpool.txt	LTP086	ltpFR	3	12	1	ROUGE	1213	n/a	1	1	0.412841796875	0.57763671875	lower	../fonts/zerothre.ttf
1830523	WORD	wordpools/wasnorm_wordpool.txt	LTP086	ltpFR	3	12	1	FINGERNAIL	568	n/a	0	1	0.412841796875	0.57763671875	lower	../fonts/zerothre.ttf
1834574	WORD	wordpools/wasnorm_wordpool.txt	LTP086	ltpFR	3	12	1	RICE	1190	n/a	1	1	0.412841796875	0.57763671875	lower	../fonts/zerothre.ttf
1838690	WORD	wordpools/wasnorm_wordpool.txt	LTP086	ltpFR	3	12	1	WAGON	1578	n/a	1	1	0.412841796875	0.57763671875	lower	../fonts/zerothre.ttf
1842723	WORD	wordpools/wasnorm_wordpool.txt	LTP086	ltpFR	3	12	1	DIGGER	464	n/a	0	1	0.412841796875	0.57763671875	lower	../fonts/zerothre.ttf
1846723	WORD	wordpools/wasnorm_wordpool.txt	LTP086	ltpFR	3	12	1	BAG	69	n/a	1	1	0.412841796875	0.57763671875	lower	../fonts/zerothre.ttf
1850606	WORD	wordpools/wasnorm_wordpool.txt	LTP086	ltpFR	3	12	1	NOTEBOOK	959	n/a	0	1	0.412841796875	0.57763671875	lower	../fonts/zerothre.ttf
1854505	WORD	wordpools/wasnorm_wordpool.txt	LTP086	ltpFR	3	12	1	FROG	608	n/a	1	1	0.412841796875	0.57763671875	lower	../fonts/zerothre.ttf
1860556	REC_START	n/a	LTP086	ltpFR	3	12	n/a	n/a	n/a	n/a	n/a	n/a	n/a	n/a	n/a	n/a
1861289	REC_WORD	wordpools/wasnorm_wordpool.txt	LTP086	ltpFR	3	12	1	DIGGER	464	n/a	0	n/a	n/a	n/a	n/a	n/a
1861897	REC_WORD	wordpools/wasnorm_wordpool.txt	LTP086	ltpFR	3	12	1	FINGERNAIL	568	n/a	0	n/a	n/a	n/a	n/a	n/a
1863075	REC_WORD	wordpools/wasnorm_wordpool.txt	LTP086	ltpFR	3	12	1	RICE	1190	n/a	1	n/a	n/a	n/a	n/a	n/a
1864063	REC_WORD	wordpools/wasnorm_wordpool.txt	LTP086	ltpFR	3	12	1	FROG	608	n/a	1	n/a	n/a	n/a	n/a	n/a
1865280	REC_WORD	wordpools/wasnorm_wordpool.txt	LTP086	ltpFR	3	12	1	NOTEBOOK	959	n/a	0	n/a	n/a	n/a	n/a	n/a
1866727	REC_WORD	wordpools/wasnorm_wordpool.txt	LTP086	ltpFR	3	12	1	HAND	683	n/a	1	n/a	n/a	n/a	n/a	n/a
1867804	REC_WORD	wordpools/wasnorm_wordpool.txt	LTP086	ltpFR	3	12	1	WAITER	1580	n/a	1	n/a	n/a	n/a	n/a	n/a
1868932	REC_WORD	wordpools/wasnorm_wordpool.txt	LTP086	ltpFR	3	12	1	MEAL	882	n/a	1	n/a	n/a	n/a	n/a	n/a
1869999	REC_WORD	wordpools/wasnorm_wordpool.txt	LTP086	ltpFR	3	12	1	COYOTE	396	n/a	0	n/a	n/a	n/a	n/a	n/a
1871431	REC_WORD	wordpools/wasnorm_wordpool.txt	LTP086	ltpFR	3	12	1	BARK	87	n/a	1	n/a	n/a	n/a	n/a	n/a
1872504	REC_WORD	wordpools/wasnorm_wordpool.txt	LTP086	ltpFR	3	12	1	NICOTINE	951	n/a	0	n/a	n/a	n/a	n/a	n/a
1899672	REC_WORD	wordpools/wasnorm_wordpool.txt	LTP086	ltpFR	3	12	1	BAG	69	n/a	1	n/a	n/a	n/a	n/a	n/a
1936157	REST_REWET	n/a	LTP086	ltpFR	3	12	n/a	n/a	n/a	n/a	n/a	n/a	n/a	n/a	n/a	n/a
2218377	WORD	wordpools/wasnorm_wordpool.txt	LTP086	ltpFR	3	13	-1	MUMMY	932	n/a	-1	1	1.0	1.0	upper	../fonts/Verdana.ttf
2222536	WORD	wordpools/wasnorm_wordpool.txt	LTP086	ltpFR	3	13	-1	COMMUNITY	356	n/a	-1	1	1.0	1.0	upper	../fonts/Verdana.ttf
2226603	WORD	wordpools/wasnorm_wordpool.txt	LTP086	ltpFR	3	13	-1	BRANDY	169	n/a	-1	1	1.0	1.0	upper	../fonts/Verdana.ttf
2230418	WORD	wordpools/wasnorm_wordpool.txt	LTP086	ltpFR	3	13	-1	CLOSET	326	n/a	-1	1	1.0	1.0	upper	../fonts/Verdana.ttf
2234359	WORD	wordpools/wasnorm_wordpool.txt	LTP086	ltpFR	3	13	-1	MOSQUITO	917	n/a	-1	1	1.0	1.0	upper	../fonts/Verdana.ttf
2238276	WORD	wordpools/wasnorm_wordpool.txt	LTP086	ltpFR	3	13	-1	CIGARETTE	309	n/a	-1	1	1.0	1.0	upper	../fonts/Verdana.ttf
2242251	WORD	wordpools/wasnorm_wordpool.txt	LTP086	ltpFR	3	13	-1	CHIMNEY	301	n/a	-1	1	1.0	1.0	upper	../fonts/Verdana.ttf
2246284	WORD	wordpools/wasnorm_wordpool.txt	LTP086	ltpFR	3	13	-1	TRIANGLE	1504	n/a	-1	1	1.0	1.0	upper	../fonts/Verdana.ttf
2250375	WORD	wordpools/wasnorm_wordpool.txt	LTP086	ltpFR	3	13	-1	WAREHOUSE	1588	n/a	-1	1	1.0	1.0	upper	../fonts/Verdana.ttf
2254266	WORD	wordpools/wasnorm_wordpool.txt	LTP086	ltpFR	3	13	-1	COBBLER	335	n/a	-1	1	1.0	1.0	upper	../fonts/Verdana.ttf
2258083	WORD	wordpools/wasnorm_wordpool.txt	LTP086	ltpFR	3	13	-1	PLUM	1090	n/a	-1	1	1.0	1.0	upper	../fonts/Verdana.ttf
2262074	WORD	wordpools/wasnorm_wordpool.txt	LTP086	ltpFR	3	13	-1	RASPBERRY	1168	n/a	-1	1	1.0	1.0	upper	../fonts/Verdana.ttf
2266240	WORD	wordpools/wasnorm_wordpool.txt	LTP086	ltpFR	3	13	-1	JOKER	759	n/a	-1	1	1.0	1.0	upper	../fonts/Verdana.ttf
2270332	WORD	wordpools/wasnorm_wordpool.txt	LTP086	ltpFR	3	13	-1	PEACH	1031	n/a	-1	1	1.0	1.0	upper	../fonts/Verdana.ttf
2274365	WORD	wordpools/wasnorm_wordpool.txt	LTP086	ltpFR	3	13	-1	HAT	690	n/a	-1	1	1.0	1.0	upper	../fonts/Verdana.ttf
2278489	WORD	wordpools/wasnorm_wordpool.txt	LTP086	ltpFR	3	13	-1	BEARD	107	n/a	-1	1	1.0	1.0	upper	../fonts/Verdana.ttf
2284315	REC_START	n/a	LTP086	ltpFR	3	13	n/a	n/a	n/a	n/a	n/a	n/a	n/a	n/a	n/a	n/a
2284859	REC_WORD	wordpools/wasnorm_wordpool.txt	LTP086	ltpFR	3	13	-1	MUMMY	932	n/a	-1	n/a	n/a	n/a	n/a	n/a
2285657	REC_WORD	wordpools/wasnorm_wordpool.txt	LTP086	ltpFR	3	13	-1	PEACH	1031	n/a	-1	n/a	n/a	n/a	n/a	n/a
2286435	REC_WORD	wordpools/wasnorm_wordpool.txt	LTP086	ltpFR	3	13	-1	HAT	690	n/a	-1	n/a	n/a	n/a	n/a	n/a
2287438	REC_WORD	wordpools/wasnorm_wordpool.txt	LTP086	ltpFR	3	13	-1	BEARD	107	n/a	-1	n/a	n/a	n/a	n/a	n/a
2288480	REC_WORD	wordpools/wasnorm_wordpool.txt	LTP086	ltpFR	3	13	-1	RASPBERRY	1168	n/a	-1	n/a	n/a	n/a	n/a	n/a
2290730	REC_WORD	wordpools/wasnorm_wordpool.txt	LTP086	ltpFR	3	13	-1	CHIMNEY	301	n/a	-1	n/a	n/a	n/a	n/a	n/a
2291623	REC_WORD	wordpools/wasnorm_wordpool.txt	LTP086	ltpFR	3	13	-1	TRIANGLE	1504	n/a	-1	n/a	n/a	n/a	n/a	n/a
2294208	REC_WORD_VV	wordpools/wasnorm_wordpool.txt	LTP086	ltpFR	3	13	n/a	<>	-1	n/a	n/a	n/a	n/a	n/a	n/a	n/a
2295578	REC_WORD	wordpools/wasnorm_wordpool.txt	LTP086	ltpFR	3	13	-1	TRIANGLE	1504	n/a	-1	n/a	n/a	n/a	n/a	n/a
2298338	REC_WORD	wordpools/wasnorm_wordpool.txt	LTP086	ltpFR	3	13	-1	MOSQUITO	917	n/a	-1	n/a	n/a	n/a	n/a	n/a
2299655	REC_WORD	wordpools/wasnorm_wordpool.txt	LTP086	ltpFR	3	13	-1	BRANDY	169	n/a	-1	n/a	n/a	n/a	n/a	n/a
2300538	REC_WORD	wordpools/wasnorm_wordpool.txt	LTP086	ltpFR	3	13	-1	COMMUNITY	356	n/a	-1	n/a	n/a	n/a	n/a	n/a
2302389	REC_WORD	wordpools/wasnorm_wordpool.txt	LTP086	ltpFR	3	13	-1	CLOSET	326	n/a	-1	n/a	n/a	n/a	n/a	n/a
2326095	REC_WORD	wordpools/wasnorm_wordpool.txt	LTP086	ltpFR	3	13	-1	BEARD	107	n/a	-1	n/a	n/a	n/a	n/a	n/a
2364866	WORD	wordpools/wasnorm_wordpool.txt	LTP086	ltpFR	3	14	0	FOLLOWER	589	n/a	1	0	0.5869140625	0.422607421875	upper	../fonts/amplitud.ttf
2368974	WORD	wordpools/wasnorm_wordpool.txt	LTP086	ltpFR	3	14	0	HANGER	687	n/a	1	0	0.5869140625	0.422607421875	upper	../fonts/amplitud.ttf
2373032	WORD	wordpools/wasnorm_wordpool.txt	LTP086	ltpFR	3	14	0	ASIA	46	n/a	n/a	0	0.5869140625	0.422607421875	upper	../fonts/amplitud.ttf
2376057	SLOW_MSG	n/a	LTP086	ltpFR	3	14	n/a	n/a	n/a	n/a	n/a	n/a	n/a	n/a	n/a	n/a
2378515	WORD	wordpools/wasnorm_wordpool.txt	LTP086	ltpFR	3	14	0	TOY	1492	n/a	1	0	0.5869140625	0.422607421875	upper	../fonts/amplitud.ttf
2382641	WORD	wordpools/wasnorm_wordpool.txt	LTP086	ltpFR	3	14	0	YOUTH	1634	n/a	1	0	0.5869140625	0.422607421875	upper	../fonts/amplitud.ttf
2386649	WORD	wordpools/wasnorm_wordpool.txt	LTP086	ltpFR	3	14	0	SODA	1341	n/a	1	0	0.5869140625	0.422607421875	upper	../fonts/amplitud.ttf
2390632	WORD	wordpools/wasnorm_wordpool.txt	LTP086	ltpFR	3	14	0	TAXI	1438	n/a	1	0	0.5869140625	0.422607421875	upper	../fonts/amplitud.ttf
2394598	WORD	wordpools/wasnorm_wordpool.txt	LTP086	ltpFR	3	14	0	BUTCHER	203	n/a	1	0	0.5869140625	0.422607421875	upper	../fonts/amplitud.ttf
2398414	WORD	wordpools/wasnorm_wordpool.txt	LTP086	ltpFR	3	14	0	APRON	35	n/a	1	0	0.5869140625	0.422607421875	upper	../fonts/amplitud.ttf
2402614	WORD	wordpools/wasnorm_wordpool.txt	LTP086	ltpFR	3	14	0	POISON	1096	n/a	1	0	0.5869140625	0.422607421875	upper	../fonts/amplitud.ttf
2406463	WORD	wordpools/wasnorm_wordpool.txt	LTP086	ltpFR	3	14	0	COTTON	385	n/a	0	0	0.5869140625	0.422607421875	upper	../fonts/amplitud.ttf
2410396	WORD	wordpools/wasnorm_wordpool.txt	LTP086	ltpFR	3	14	0	RULER	1216	n/a	1	0	0.5869140625	0.422607421875	upper	../fonts/amplitud.ttf
2414504	WORD	wordpools/wasnorm_wordpool.txt	LTP086	ltpFR	3	14	0	SERPENT	1270	n/a	1	0	0.5869140625	0.422607421875	upper	../fonts/amplitud.ttf
2418437	WORD	wordpools/wasnorm_wordpool.txt	LTP086	ltpFR	3	14	0	BRIDGE	174	n/a	1	0	0.5869140625	0.422607421875	upper	../fonts/amplitud.ttf
2422512	WORD	wordpools/wasnorm_wordpool.txt	LTP086	ltpFR	3	14	0	SEAT	1264	n/a	1	0	0.5869140625	0.422607421875	upper	../fonts/amplitud.ttf
2426503	WORD	wordpools/wasnorm_wordpool.txt	LTP086	ltpFR	3	14	0	DESK	452	n/a	1	0	0.5869140625	0.422607421875	upper	../fonts/amplitud.ttf
2432412	REC_START	n/a	LTP086	ltpFR	3	14	n/a	n/a	n/a	n/a	n/a	n/a	n/a	n/a	n/a	n/a
2432931	REC_WORD	wordpools/wasnorm_wordpool.txt	LTP086	ltpFR	3	14	0	BRIDGE	174	n/a	1	n/a	n/a	n/a	n/a	n/a
2433634	REC_WORD	wordpools/wasnorm_wordpool.txt	LTP086	ltpFR	3	14	0	SEAT	1264	n/a	1	n/a	n/a	n/a	n/a	n/a
2434637	REC_WORD	wordpools/wasnorm_wordpool.txt	LTP086	ltpFR	3	14	0	DESK	452	n/a	1	n/a	n/a	n/a	n/a	n/a
2435580	REC_WORD	wordpools/wasnorm_wordpool.txt	LTP086	ltpFR	3	14	0	RULER	1216	n/a	1	n/a	n/a	n/a	n/a	n/a
2444040	REC_WORD	wordpools/wasnorm_wordpool.txt	LTP086	ltpFR	3	14	0	ASIA	46	n/a	n/a	n/a	n/a	n/a	n/a	n/a
2446629	REC_WORD	wordpools/wasnorm_wordpool.txt	LTP086	ltpFR	3	14	0	TAXI	1438	n/a	1	n/a	n/a	n/a	n/a	n/a
2451424	REC_WORD	wordpools/wasnorm_wordpool.txt	LTP086	ltpFR	3	14	0	YOUTH	1634	n/a	1	n/a	n/a	n/a	n/a	n/a
2465122	REC_WORD	wordpools/wasnorm_wordpool.txt	LTP086	ltpFR	3	14	0	SEAT	1264	n/a	1	n/a	n/a	n/a	n/a	n/a
2520363	WORD	wordpools/wasnorm_wordpool.txt	LTP086	ltpFR	3	15	-1	SHACK	1273	n/a	-1	1	1.0	1.0	upper	../fonts/Verdana.ttf
2524271	WORD	wordpools/wasnorm_wordpool.txt	LTP086	ltpFR	3	15	-1	DOLL	481	n/a	-1	1	1.0	1.0	upper	../fonts/Verdana.ttf
2528421	WORD	wordpools/wasnorm_wordpool.txt	LTP086	ltpFR	3	15	-1	RADISH	1158	n/a	-1	1	1.0	1.0	upper	../fonts/Verdana.ttf
2532387	WORD	wordpools/wasnorm_wordpool.txt	LTP086	ltpFR	3	15	-1	SAILOR	1223	n/a	-1	1	1.0	1.0	upper	../fonts/Verdana.ttf
2536320	WORD	wordpools/wasnorm_wordpool.txt	LTP086	ltpFR	3	15	-1	TREAD	1499	n/a	-1	1	1.0	1.0	upper	../fonts/Verdana.ttf
2540253	WORD	wordpools/wasnorm_wordpool.txt	LTP086	ltpFR	3	15	-1	TACK	1428	n/a	-1	1	1.0	1.0	upper	../fonts/Verdana.ttf
2544228	WORD	wordpools/wasnorm_wordpool.txt	LTP086	ltpFR	3	15	-1	CREW	406	n/a	-1	1	1.0	1.0	upper	../fonts/Verdana.ttf
2548394	WORD	wordpools/wasnorm_wordpool.txt	LTP086	ltpFR	3	15	-1	ARTERY	41	n/a	-1	1	1.0	1.0	upper	../fonts/Verdana.ttf
2552410	WORD	wordpools/wasnorm_wordpool.txt	LTP086	ltpFR	3	15	-1	DONOR	485	n/a	-1	1	1.0	1.0	upper	../fonts/Verdana.ttf
2556468	WORD	wordpools/wasnorm_wordpool.txt	LTP086	ltpFR	3	15	-1	RAISIN	1163	n/a	-1	1	1.0	1.0	upper	../fonts/Verdana.ttf
2560393	WORD	wordpools/wasnorm_wordpool.txt	LTP086	ltpFR	3	15	-1	WOLF	1619	n/a	-1	1	1.0	1.0	upper	../fonts/Verdana.ttf
2564343	WORD	wordpools/wasnorm_wordpool.txt	LTP086	ltpFR	3	15	-1	CHIP	303	n/a	-1	1	1.0	1.0	upper	../fonts/Verdana.ttf
2568284	WORD	wordpools/wasnorm_wordpool.txt	LTP086	ltpFR	3	15	-1	FLESH	579	n/a	-1	1	1.0	1.0	upper	../fonts/Verdana.ttf
2572267	WORD	wordpools/wasnorm_wordpool.txt	LTP086	ltpFR	3	15	-1	CHARCOAL	281	n/a	-1	1	1.0	1.0	upper	../fonts/Verdana.ttf
2576250	WORD	wordpools/wasnorm_wordpool.txt	LTP086	ltpFR	3	15	-1	SIRLOIN	1311	n/a	-1	1	1.0	1.0	upper	../fonts/Verdana.ttf
2580442	WORD	wordpools/wasnorm_wordpool.txt	LTP086	ltpFR	3	15	-1	TURNIP	1521	n/a	-1	1	1.0	1.0	upper	../fonts/Verdana.ttf
2586543	REC_START	n/a	LTP086	ltpFR	3	15	n/a	n/a	n/a	n/a	n/a	n/a	n/a	n/a	n/a	n/a
2586947	REC_WORD	wordpools/wasnorm_wordpool.txt	LTP086	ltpFR	3	15	-1	RADISH	1158	n/a	-1	n/a	n/a	n/a	n/a	n/a
2587805	REC_WORD	wordpools/wasnorm_wordpool.txt	LTP086	ltpFR	3	15	-1	TURNIP	1521	n/a	-1	n/a	n/a	n/a	n/a	n/a
2588763	REC_WORD	wordpools/wasnorm_wordpool.txt	LTP086	ltpFR	3	15	-1	CHARCOAL	281	n/a	-1	n/a	n/a	n/a	n/a	n/a
2589830	REC_WORD	wordpools/wasnorm_wordpool.txt	LTP086	ltpFR	3	15	-1	TREAD	1499	n/a	-1	n/a	n/a	n/a	n/a	n/a
2591157	REC_WORD	wordpools/wasnorm_wordpool.txt	LTP086	ltpFR	3	15	-1	TACK	1428	n/a	-1	n/a	n/a	n/a	n/a	n/a
2593653	REC_WORD	wordpools/wasnorm_wordpool.txt	LTP086	ltpFR	3	15	-1	SHACK	1273	n/a	-1	n/a	n/a	n/a	n/a	n/a
2594834	REC_WORD	wordpools/wasnorm_wordpool.txt	LTP086	ltpFR	3	15	-1	DOLL	481	n/a	-1	n/a	n/a	n/a	n/a	n/a
2676059	WORD	wordpools/wasnorm_wordpool.txt	LTP086	ltpFR	3	16	0	JEEP	753	n/a	1	0	0.5869140625	0.422607421875	upper	../fonts/amplitud.ttf
2680101	WORD	wordpools/wasnorm_wordpool.txt	LTP086	ltpFR	3	16	0	TORNADO	1485	n/a	1	0	0.5869140625	0.422607421875	upper	../fonts/amplitud.ttf
2684259	WORD	wordpools/wasnorm_wordpool.txt	LTP086	ltpFR	3	16	0	LAKE	796	n/a	1	0	0.5869140625	0.422607421875	upper	../fonts/amplitud.ttf
2688467	WORD	wordpools/wasnorm_wordpool.txt	LTP086	ltpFR	3	16	0	SCALLOP	1242	n/a	1	0	0.5869140625	0.422607421875	upper	../fonts/amplitud.ttf
2692433	WORD	wordpools/wasnorm_wordpool.txt	LTP086	ltpFR	3	16	0	KEYBOARD	774	n/a	1	0	0.5869140625	0.422607421875	upper	../fonts/amplitud.ttf
2696458	WORD	wordpools/wasnorm_wordpool.txt	LTP086	ltpFR	3	16	0	LIME	823	n/a	1	0	0.5869140625	0.422607421875	upper	../fonts/amplitud.ttf
2700333	WORD	wordpools/wasnorm_wordpool.txt	LTP086	ltpFR	3	16	0	CHESS	294	n/a	0	0	0.5869140625	0.422607421875	upper	../fonts/amplitud.ttf
2704274	WORD	wordpools/wasnorm_wordpool.txt	LTP086	ltpFR	3	16	0	COMPUTER	359	n/a	1	0	0.5869140625	0.422607421875	upper	../fonts/amplitud.ttf
2708449	WORD	wordpools/wasnorm_wordpool.txt	LTP086	ltpFR	3	16	0	SCARF	1246	n/a	0	0	0.5869140625	0.422607421875	upper	../fonts/amplitud.ttf
2712382	WORD	wordpools/wasnorm_wordpool.txt	LTP086	ltpFR	3	16	0	ROBE	1198	n/a	1	0	0.5869140625	0.422607421875	upper	../fonts/amplitud.ttf
2716532	WORD	wordpools/wasnorm_wordpool.txt	LTP086	ltpFR	3	16	0	TRACTOR	1493	n/a	1	0	0.5869140625	0.422607421875	upper	../fonts/amplitud.ttf
2720715	WORD	wordpools/wasnorm_wordpool.txt	LTP086	ltpFR	3	16	0	TANGERINE	1431	n/a	0	0	0.5869140625	0.422607421875	upper	../fonts/amplitud.ttf
2724773	WORD	wordpools/wasnorm_wordpool.txt	LTP086	ltpFR	3	16	0	BIOLOGIST	128	n/a	0	0	0.5869140625	0.422607421875	upper	../fonts/amplitud.ttf
2728765	WORD	wordpools/wasnorm_wordpool.txt	LTP086	ltpFR	3	16	0	TUB	1514	n/a	1	0	0.5869140625	0.422607421875	upper	../fonts/amplitud.ttf
2732839	WORD	wordpools/wasnorm_wordpool.txt	LTP086	ltpFR	3	16	0	SCREEN	1253	n/a	1	0	0.5869140625	0.422607421875	upper	../fonts/amplitud.ttf
2736963	WORD	wordpools/wasnorm_wordpool.txt	LTP086	ltpFR	3	16	0	FILM	565	n/a	1	0	0.5869140625	0.422607421875	upper	../fonts/amplitud.ttf
2742938	REC_START	n/a	LTP086	ltpFR	3	16	n/a	n/a	n/a	n/a	n/a	n/a	n/a	n/a	n/a	n/a
2743556	REC_WORD	wordpools/wasnorm_wordpool.txt	LTP086	ltpFR	3	16	0	TUB	1514	n/a	1	n/a	n/a	n/a	n/a	n/a
2744220	REC_WORD	wordpools/wasnorm_wordpool.txt	LTP086	ltpFR	3	16	0	SCREEN	1253	n/a	1	n/a	n/a	n/a	n/a	n/a
2745173	REC_WORD	wordpools/wasnorm_wordpool.txt	LTP086	ltpFR	3	16	0	FILM	565	n/a	1	n/a	n/a	n/a	n/a	n/a
2746285	REC_WORD	wordpools/wasnorm_wordpool.txt	LTP086	ltpFR	3	16	0	TORNADO	1485	n/a	1	n/a	n/a	n/a	n/a	n/a
2754936	REC_WORD	wordpools/wasnorm_wordpool.txt	LTP086	ltpFR	3	16	0	LIME	823	n/a	1	n/a	n/a	n/a	n/a	n/a
2755893	REC_WORD	wordpools/wasnorm_wordpool.txt	LTP086	ltpFR	3	16	0	TANGERINE	1431	n/a	0	n/a	n/a	n/a	n/a	n/a
2758278	REC_WORD	wordpools/wasnorm_wordpool.txt	LTP086	ltpFR	3	16	0	COMPUTER	359	n/a	1	n/a	n/a	n/a	n/a	n/a
2759440	REC_WORD	wordpools/wasnorm_wordpool.txt	LTP086	ltpFR	3	16	0	KEYBOARD	774	n/a	1	n/a	n/a	n/a	n/a	n/a
2767238	REC_WORD	wordpools/wasnorm_wordpool.txt	LTP086	ltpFR	3	16	0	FILM	565	n/a	1	n/a	n/a	n/a	n/a	n/a
2846740	REC_START	n/a	LTP086	ltpFR	3	1	n/a	n/a	n/a	n/a	n/a	n/a	n/a	n/a	n/a	n/a
2846772	RECOG_LURE	n/a	LTP086	ltpFR	3	1	n/a	VICTOR	1563	4	n/a	n/a	n/a	n/a	n/a	n/a
2847533	RECOG_RESP	n/a	LTP086	ltpFR	3	1	n/a	VICTOR	1563	n/a	n/a	n/a	n/a	n/a	n/a	n/a
2848421	RECOG_CONF	n/a	LTP086	ltpFR	3	1	n/a	VICTOR	1563	4	n/a	n/a	n/a	n/a	n/a	n/a
2849739	RECOG_TARGET	n/a	LTP086	ltpFR	3	1	-1	SAILOR	1223	4	-1	n/a	n/a	n/a	n/a	n/a
2850262	RECOG_RESP	n/a	LTP086	ltpFR	3	1	-1	SAILOR	1223	n/a	-1	n/a	n/a	n/a	n/a	n/a
2851075	RECOG_CONF	n/a	LTP086	ltpFR	3	1	-1	SAILOR	1223	4	-1	n/a	n/a	n/a	n/a	n/a
2852471	RECOG_TARGET	n/a	LTP086	ltpFR	3	1	0	WOUND	1624	5	0	n/a	n/a	n/a	n/a	n/a
2853050	RECOG_RESP	n/a	LTP086	ltpFR	3	1	0	WOUND	1624	n/a	0	n/a	n/a	n/a	n/a	n/a
2853619	RECOG_CONF	n/a	LTP086	ltpFR	3	1	0	WOUND	1624	5	0	n/a	n/a	n/a	n/a	n/a
2854946	RECOG_TARGET	n/a	LTP086	ltpFR	3	1	0	RECEPTIONIST	1174	5	1	n/a	n/a	n/a	n/a	n/a
2855385	RECOG_RESP	n/a	LTP086	ltpFR	3	1	0	RECEPTIONIST	1174	n/a	1	n/a	n/a	n/a	n/a	n/a
2855896	RECOG_CONF	n/a	LTP086	ltpFR	3	1	0	RECEPTIONIST	1174	5	1	n/a	n/a	n/a	n/a	n/a
2857187	RECOG_LURE	n/a	LTP086	ltpFR	3	1	n/a	RADIO	1157	2	n/a	n/a	n/a	n/a	n/a	n/a
2857810	RECOG_RESP	n/a	LTP086	ltpFR	3	1	n/a	RADIO	1157	n/a	n/a	n/a	n/a	n/a	n/a	n/a
2858378	RECOG_CONF	n/a	LTP086	ltpFR	3	1	n/a	RADIO	1157	2	n/a	n/a	n/a	n/a	n/a	n/a
2859672	RECOG_TARGET	n/a	LTP086	ltpFR	3	1	1	BUFFALO	186	5	1	n/a	n/a	n/a	n/a	n/a
2860274	RECOG_RESP	n/a	LTP086	ltpFR	3	1	1	BUFFALO	186	n/a	1	n/a	n/a	n/a	n/a	n/a
2860785	RECOG_CONF	n/a	LTP086	ltpFR	3	1	1	BUFFALO	186	5	1	n/a	n/a	n/a	n/a	n/a
2862070	RECOG_LURE	n/a	LTP086	ltpFR	3	1	n/a	GOVERNOR	651	4	n/a	n/a	n/a	n/a	n/a	n/a
2862714	RECOG_RESP	n/a	LTP086	ltpFR	3	1	n/a	GOVERNOR	651	n/a	n/a	n/a	n/a	n/a	n/a	n/a
2863346	RECOG_CONF	n/a	LTP086	ltpFR	3	1	n/a	GOVERNOR	651	4	n/a	n/a	n/a	n/a	n/a	n/a
2864470	RECOG_LURE	n/a	LTP086	ltpFR	3	1	n/a	APPENDAGE	32	2	n/a	n/a	n/a	n/a	n/a	n/a
2865133	RECOG_RESP	n/a	LTP086	ltpFR	3	1	n/a	APPENDAGE	32	n/a	n/a	n/a	n/a	n/a	n/a	n/a
2865672	RECOG_CONF	n/a	LTP086	ltpFR	3	1	n/a	APPENDAGE	32	2	n/a	n/a	n/a	n/a	n/a	n/a
2866928	RECOG_LURE	n/a	LTP086	ltpFR	3	1	n/a	BULLY	196	5	n/a	n/a	n/a	n/a	n/a	n/a
2867473	RECOG_RESP	n/a	LTP086	ltpFR	3	1	n/a	BULLY	196	n/a	n/a	n/a	n/a	n/a	n/a	n/a
2867966	RECOG_CONF	n/a	LTP086	ltpFR	3	1	n/a	BULLY	196	5	n/a	n/a	n/a	n/a	n/a	n/a
2869195	RECOG_TARGET	n/a	LTP086	ltpFR	3	1	0	TREE	1502	1	1	n/a	n/a	n/a	n/a	n/a
2869802	RECOG_RESP	n/a	LTP086	ltpFR	3	1	0	TREE	1502	n/a	1	n/a	n/a	n/a	n/a	n/a
2870401	RECOG_CONF	n/a	LTP086	ltpFR	3	1	0	TREE	1502	1	1	n/a	n/a	n/a	n/a	n/a
2871621	RECOG_TARGET	n/a	LTP086	ltpFR	3	1	-1	GUEST	669	5	-1	n/a	n/a	n/a	n/a	n/a
2872102	RECOG_RESP	n/a	LTP086	ltpFR	3	1	-1	GUEST	669	n/a	-1	n/a	n/a	n/a	n/a	n/a
2872756	RECOG_CONF	n/a	LTP086	ltpFR	3	1	-1	GUEST	669	5	-1	n/a	n/a	n/a	n/a	n/a
2874003	RECOG_LURE	n/a	LTP086	ltpFR	3	1	n/a	MANAGER	863	4	n/a	n/a	n/a	n/a	n/a	n/a
2874736	RECOG_RESP	n/a	LTP086	ltpFR	3	1	n/a	MANAGER	863	n/a	n/a	n/a	n/a	n/a	n/a	n/a
2875229	RECOG_CONF	n/a	LTP086	ltpFR	3	1	n/a	MANAGER	863	4	n/a	n/a	n/a	n/a	n/a	n/a
2876670	RECOG_LURE	n/a	LTP086	ltpFR	3	1	n/a	STEP	1377	1	n/a	n/a	n/a	n/a	n/a	n/a
2877704	RECOG_RESP	n/a	LTP086	ltpFR	3	1	n/a	STEP	1377	n/a	n/a	n/a	n/a	n/a	n/a	n/a
2878732	RECOG_CONF	n/a	LTP086	ltpFR	3	1	n/a	STEP	1377	1	n/a	n/a	n/a	n/a	n/a	n/a
2879944	RECOG_LURE	n/a	LTP086	ltpFR	3	1	n/a	BROTHER	179	2	n/a	n/a	n/a	n/a	n/a	n/a
2880772	RECOG_RESP	n/a	LTP086	ltpFR	3	1	n/a	BROTHER	179	n/a	n/a	n/a	n/a	n/a	n/a	n/a
2881386	RECOG_CONF	n/a	LTP086	ltpFR	3	1	n/a	BROTHER	179	2	n/a	n/a	n/a	n/a	n/a	n/a
2882703	RECOG_LURE	n/a	LTP086	ltpFR	3	1	n/a	SAPPHIRE	1234	1	n/a	n/a	n/a	n/a	n/a	n/a
2883466	RECOG_RESP	n/a	LTP086	ltpFR	3	1	n/a	SAPPHIRE	1234	n/a	n/a	n/a	n/a	n/a	n/a	n/a
2884075	RECOG_CONF	n/a	LTP086	ltpFR	3	1	n/a	SAPPHIRE	1234	1	n/a	n/a	n/a	n/a	n/a	n/a
2885435	RECOG_TARGET	n/a	LTP086	ltpFR	3	1	1	BAG	69	5	1	n/a	n/a	n/a	n/a	n/a
2885966	RECOG_RESP	n/a	LTP086	ltpFR	3	1	1	BAG	69	n/a	1	n/a	n/a	n/a	n/a	n/a
2886477	RECOG_CONF	n/a	LTP086	ltpFR	3	1	1	BAG	69	5	1	n/a	n/a	n/a	n/a	n/a
2887719	RECOG_LURE	n/a	LTP086	ltpFR	3	1	n/a	FUGITIVE	612	4	n/a	n/a	n/a	n/a	n/a	n/a
2888400	RECOG_RESP	n/a	LTP086	ltpFR	3	1	n/a	FUGITIVE	612	n/a	n/a	n/a	n/a	n/a	n/a	n/a
2888864	RECOG_CONF	n/a	LTP086	ltpFR	3	1	n/a	FUGITIVE	612	4	n/a	n/a	n/a	n/a	n/a	n/a
2890160	RECOG_LURE	n/a	LTP086	ltpFR	3	1	n/a	WAIST	1579	2	n/a	n/a	n/a	n/a	n/a	n/a
2890948	RECOG_RESP	n/a	LTP086	ltpFR	3	1	n/a	WAIST	1579	n/a	n/a	n/a	n/a	n/a	n/a	n/a
2891482	RECOG_CONF	n/a	LTP086	ltpFR	3	1	n/a	WAIST	1579	2	n/a	n/a	n/a	n/a	n/a	n/a
2892811	RECOG_TARGET	n/a	LTP086	ltpFR	3	1	-1	BEARD	107	5	-1	n/a	n/a	n/a	n/a	n/a
2893374	RECOG_RESP	n/a	LTP086	ltpFR	3	1	-1	BEARD	107	n/a	-1	n/a	n/a	n/a	n/a	n/a
2893913	RECOG_CONF	n/a	LTP086	ltpFR	3	1	-1	BEARD	107	5	-1	n/a	n/a	n/a	n/a	n/a
2895126	RECOG_LURE	n/a	LTP086	ltpFR	3	1	n/a	CHEMICAL	291	2	n/a	n/a	n/a	n/a	n/a	n/a
2895758	RECOG_RESP	n/a	LTP086	ltpFR	3	1	n/a	CHEMICAL	291	n/a	n/a	n/a	n/a	n/a	n/a	n/a
2896227	RECOG_CONF	n/a	LTP086	ltpFR	3	1	n/a	CHEMICAL	291	2	n/a	n/a	n/a	n/a	n/a	n/a
2899440	REC_START	n/a	LTP086	ltpFR	3	2	n/a	n/a	n/a	n/a	n/a	n/a	n/a	n/a	n/a	n/a
2899476	RECOG_LURE	n/a	LTP086	ltpFR	3	2	n/a	LAPEL	800	4	n/a	n/a	n/a	n/a	n/a	n/a
2899944	RECOG_RESP	n/a	LTP086	ltpFR	3	2	n/a	LAPEL	800	n/a	n/a	n/a	n/a	n/a	n/a	n/a
2900432	RECOG_CONF	n/a	LTP086	ltpFR	3	2	n/a	LAPEL	800	4	n/a	n/a	n/a	n/a	n/a	n/a
2901677	RECOG_LURE	n/a	LTP086	ltpFR	3	2	n/a	MAN	862	2	n/a	n/a	n/a	n/a	n/a	n/a
2902633	RECOG_RESP	n/a	LTP086	ltpFR	3	2	n/a	MAN	862	n/a	n/a	n/a	n/a	n/a	n/a	n/a
2903144	RECOG_CONF	n/a	LTP086	ltpFR	3	2	n/a	MAN	862	2	n/a	n/a	n/a	n/a	n/a	n/a
2904300	RECOG_LURE	n/a	LTP086	ltpFR	3	2	n/a	PUDDLE	1140	4	n/a	n/a	n/a	n/a	n/a	n/a
2904862	RECOG_RESP_VV	n/a	LTP086	ltpFR	3	2	n/a	PUDDLE	1140	n/a	n/a	n/a	n/a	n/a	n/a	n/a
2905461	RECOG_RESP	n/a	LTP086	ltpFR	3	2	n/a	PUDDLE	1140	n/a	n/a	n/a	n/a	n/a	n/a	n/a
2906319	RECOG_CONF	n/a	LTP086	ltpFR	3	2	n/a	PUDDLE	1140	4	n/a	n/a	n/a	n/a	n/a	n/a
2907751	RECOG_LURE	n/a	LTP086	ltpFR	3	2	n/a	NOOSE	956	1	n/a	n/a	n/a	n/a	n/a	n/a
2908514	RECOG_RESP	n/a	LTP086	ltpFR	3	2	n/a	NOOSE	956	n/a	n/a	n/a	n/a	n/a	n/a	n/a
2910071	RECOG_CONF	n/a	LTP086	ltpFR	3	2	n/a	NOOSE	956	1	n/a	n/a	n/a	n/a	n/a	n/a
2911551	RECOG_LURE	n/a	LTP086	ltpFR	3	2	n/a	DICTIONARY	463	2	n/a	n/a	n/a	n/a	n/a	n/a
2912171	RECOG_RESP	n/a	LTP086	ltpFR	3	2	n/a	DICTIONARY	463	n/a	n/a	n/a	n/a	n/a	n/a	n/a
2912664	RECOG_CONF	n/a	LTP086	ltpFR	3	2	n/a	DICTIONARY	463	2	n/a	n/a	n/a	n/a	n/a	n/a
2914000	RECOG_LURE	n/a	LTP086	ltpFR	3	2	n/a	LIMOUSINE	824	4	n/a	n/a	n/a	n/a	n/a	n/a
2914750	RECOG_RESP	n/a	LTP086	ltpFR	3	2	n/a	LIMOUSINE	824	n/a	n/a	n/a	n/a	n/a	n/a	n/a
2915145	RECOG_CONF	n/a	LTP086	ltpFR	3	2	n/a	LIMOUSINE	824	4	n/a	n/a	n/a	n/a	n/a	n/a
2916592	RECOG_LURE	n/a	LTP086	ltpFR	3	2	n/a	COMPASS	358	1	n/a	n/a	n/a	n/a	n/a	n/a
2917344	RECOG_RESP	n/a	LTP086	ltpFR	3	2	n/a	COMPASS	358	n/a	n/a	n/a	n/a	n/a	n/a	n/a
2918133	RECOG_CONF	n/a	LTP086	ltpFR	3	2	n/a	COMPASS	358	1	n/a	n/a	n/a	n/a	n/a	n/a
2919650	RECOG_TARGET	n/a	LTP086	ltpFR	3	2	0	SALIVA	1226	5	0	n/a	n/a	n/a	n/a	n/a
2920253	RECOG_RESP	n/a	LTP086	ltpFR	3	2	0	SALIVA	1226	n/a	0	n/a	n/a	n/a	n/a	n/a
2920815	RECOG_CONF	n/a	LTP086	ltpFR	3	2	0	SALIVA	1226	5	0	n/a	n/a	n/a	n/a	n/a
2921966	RECOG_TARGET	n/a	LTP086	ltpFR	3	2	-1	WAREHOUSE	1588	5	-1	n/a	n/a	n/a	n/a	n/a
2922592	RECOG_RESP	n/a	LTP086	ltpFR	3	2	-1	WAREHOUSE	1588	n/a	-1	n/a	n/a	n/a	n/a	n/a
2923056	RECOG_CONF	n/a	LTP086	ltpFR	3	2	-1	WAREHOUSE	1588	5	-1	n/a	n/a	n/a	n/a	n/a
2924274	RECOG_TARGET	n/a	LTP086	ltpFR	3	2	1	FREEWAY	603	5	1	n/a	n/a	n/a	n/a	n/a
2924917	RECOG_RESP	n/a	LTP086	ltpFR	3	2	1	FREEWAY	603	n/a	1	n/a	n/a	n/a	n/a	n/a
2925474	RECOG_CONF	n/a	LTP086	ltpFR	3	2	1	FREEWAY	603	5	1	n/a	n/a	n/a	n/a	n/a
2926650	RECOG_TARGET	n/a	LTP086	ltpFR	3	2	-1	POCKET	1093	5	-1	n/a	n/a	n/a	n/a	n/a
2927187	RECOG_RESP	n/a	LTP086	ltpFR	3	2	-1	POCKET	1093	n/a	-1	n/a	n/a	n/a	n/a	n/a
2927749	RECOG_CONF	n/a	LTP086	ltpFR	3	2	-1	POCKET	1093	5	-1	n/a	n/a	n/a	n/a	n/a
2928907	RECOG_LURE	n/a	LTP086	ltpFR	3	2	n/a	SHRINE	1298	4	n/a	n/a	n/a	n/a	n/a	n/a
2929551	RECOG_RESP	n/a	LTP086	ltpFR	3	2	n/a	SHRINE	1298	n/a	n/a	n/a	n/a	n/a	n/a	n/a
2930044	RECOG_CONF	n/a	LTP086	ltpFR	3	2	n/a	SHRINE	1298	4	n/a	n/a	n/a	n/a	n/a	n/a
2931307	RECOG_TARGET	n/a	LTP086	ltpFR	3	2	-1	MOSQUITO	917	5	-1	n/a	n/a	n/a	n/a	n/a
2931836	RECOG_RESP	n/a	LTP086	ltpFR	3	2	-1	MOSQUITO	917	n/a	-1	n/a	n/a	n/a	n/a	n/a
2932393	RECOG_CONF	n/a	LTP086	ltpFR	3	2	-1	MOSQUITO	917	5	-1	n/a	n/a	n/a	n/a	n/a
2933566	RECOG_TARGET	n/a	LTP086	ltpFR	3	2	0	ROBE	1198	5	1	n/a	n/a	n/a	n/a	n/a
2934111	RECOG_RESP	n/a	LTP086	ltpFR	3	2	0	ROBE	1198	n/a	1	n/a	n/a	n/a	n/a	n/a
2934673	RECOG_CONF	n/a	LTP086	ltpFR	3	2	0	ROBE	1198	5	1	n/a	n/a	n/a	n/a	n/a
2935940	RECOG_LURE	n/a	LTP086	ltpFR	3	2	n/a	FIN	566	5	n/a	n/a	n/a	n/a	n/a	n/a
2936521	RECOG_RESP	n/a	LTP086	ltpFR	3	2	n/a	FIN	566	n/a	n/a	n/a	n/a	n/a	n/a	n/a
2937159	RECOG_CONF	n/a	LTP086	ltpFR	3	2	n/a	FIN	566	5	n/a	n/a	n/a	n/a	n/a	n/a
2938398	RECOG_TARGET	n/a	LTP086	ltpFR	3	2	0	TOY	1492	5	1	n/a	n/a	n/a	n/a	n/a
2938945	RECOG_RESP	n/a	LTP086	ltpFR	3	2	0	TOY	1492	n/a	1	n/a	n/a	n/a	n/a	n/a
2939456	RECOG_CONF	n/a	LTP086	ltpFR	3	2	0	TOY	1492	5	1	n/a	n/a	n/a	n/a	n/a
2940732	RECOG_LURE	n/a	LTP086	ltpFR	3	2	n/a	BOOK	149	2	n/a	n/a	n/a	n/a	n/a	n/a
2941621	RECOG_RESP	n/a	LTP086	ltpFR	3	2	n/a	BOOK	149	n/a	n/a	n/a	n/a	n/a	n/a	n/a
2942178	RECOG_CONF	n/a	LTP086	ltpFR	3	2	n/a	BOOK	149	2	n/a	n/a	n/a	n/a	n/a	n/a
2943573	RECOG_TARGET	n/a	LTP086	ltpFR	3	2	1	EMERALD	528	1	1	n/a	n/a	n/a	n/a	n/a
2944492	RECOG_RESP	n/a	LTP086	ltpFR	3	2	1	EMERALD	528	n/a	1	n/a	n/a	n/a	n/a	n/a
2944979	RECOG_CONF	n/a	LTP086	ltpFR	3	2	1	EMERALD	528	1	1	n/a	n/a	n/a	n/a	n/a
2946347	RECOG_TARGET	n/a	LTP086	ltpFR	3	2	0	SODA	1341	1	1	n/a	n/a	n/a	n/a	n/a
2947067	RECOG_RESP	n/a	LTP086	ltpFR	3	2	0	SODA	1341	n/a	1	n/a	n/a	n/a	n/a	n/a
2947996	RECOG_CONF	n/a	LTP086	ltpFR	3	2	0	SODA	1341	1	1	n/a	n/a	n/a	n/a	n/a
2949147	RECOG_TARGET	n/a	LTP086	ltpFR	3	2	1	COAT	333	5	1	n/a	n/a	n/a	n/a	n/a
2949706	RECOG_RESP	n/a	LTP086	ltpFR	3	2	1	COAT	333	n/a	1	n/a	n/a	n/a	n/a	n/a
2950222	RECOG_CONF	n/a	LTP086	ltpFR	3	2	1	COAT	333	5	1	n/a	n/a	n/a	n/a	n/a
2953217	REC_START	n/a	LTP086	ltpFR	3	3	n/a	n/a	n/a	n/a	n/a	n/a	n/a	n/a	n/a	n/a
2953247	RECOG_TARGET	n/a	LTP086	ltpFR	3	3	0	CAR	241	4	0	n/a	n/a	n/a	n/a	n/a
2953611	RECOG_RESP	n/a	LTP086	ltpFR	3	3	0	CAR	241	n/a	0	n/a	n/a	n/a	n/a	n/a
2954220	RECOG_CONF	n/a	LTP086	ltpFR	3	3	0	CAR	241	4	0	n/a	n/a	n/a	n/a	n/a
2955413	RECOG_TARGET	n/a	LTP086	ltpFR	3	3	-1	BOMB	147	5	-1	n/a	n/a	n/a	n/a	n/a
2955856	RECOG_RESP	n/a	LTP086	ltpFR	3	3	-1	BOMB	147	n/a	-1	n/a	n/a	n/a	n/a	n/a
2956320	RECOG_CONF	n/a	LTP086	ltpFR	3	3	-1	BOMB	147	5	-1	n/a	n/a	n/a	n/a	n/a
2957614	RECOG_TARGET	n/a	LTP086	ltpFR	3	3	0	OYSTER	995	5	1	n/a	n/a	n/a	n/a	n/a
2958091	RECOG_RESP	n/a	LTP086	ltpFR	3	3	0	OYSTER	995	n/a	1	n/a	n/a	n/a	n/a	n/a
2958463	RECOG_CONF	n/a	LTP086	ltpFR	3	3	0	OYSTER	995	5	1	n/a	n/a	n/a	n/a	n/a
2959714	RECOG_TARGET	n/a	LTP086	ltpFR	3	3	1	GARDEN	623	5	1	n/a	n/a	n/a	n/a	n/a
2960301	RECOG_RESP_VV	n/a	LTP086	ltpFR	3	3	1	GARDEN	623	n/a	1	n/a	n/a	n/a	n/a	n/a
2960682	RECOG_RESP	n/a	LTP086	ltpFR	3	3	1	GARDEN	623	n/a	1	n/a	n/a	n/a	n/a	n/a
2961193	RECOG_CONF	n/a	LTP086	ltpFR	3	3	1	GARDEN	623	5	1	n/a	n/a	n/a	n/a	n/a
2962446	RECOG_TARGET	n/a	LTP086	ltpFR	3	3	1	STAKE	1368	5	0	n/a	n/a	n/a	n/a	n/a
2962990	RECOG_RESP	n/a	LTP086	ltpFR	3	3	1	STAKE	1368	n/a	0	n/a	n/a	n/a	n/a	n/a
2963454	RECOG_CONF	n/a	LTP086	ltpFR	3	3	1	STAKE	1368	5	0	n/a	n/a	n/a	n/a	n/a
2964622	RECOG_TARGET	n/a	LTP086	ltpFR	3	3	-1	GOLD	647	5	-1	n/a	n/a	n/a	n/a	n/a
2965239	RECOG_RESP	n/a	LTP086	ltpFR	3	3	-1	GOLD	647	n/a	-1	n/a	n/a	n/a	n/a	n/a
2965727	RECOG_CONF	n/a	LTP086	ltpFR	3	3	-1	GOLD	647	5	-1	n/a	n/a	n/a	n/a	n/a
2966954	RECOG_TARGET	n/a	LTP086	ltpFR	3	3	1	SURVEY	1414	4	0	n/a	n/a	n/a	n/a	n/a
2967764	RECOG_RESP	n/a	LTP086	ltpFR	3	3	1	SURVEY	1414	n/a	0	n/a	n/a	n/a	n/a	n/a
2968368	RECOG_CONF	n/a	LTP086	ltpFR	3	3	1	SURVEY	1414	4	0	n/a	n/a	n/a	n/a	n/a
2969630	RECOG_TARGET	n/a	LTP086	ltpFR	3	3	0	SIDING	1304	5	0	n/a	n/a	n/a	n/a	n/a
2970313	RECOG_RESP	n/a	LTP086	ltpFR	3	3	0	SIDING	1304	n/a	0	n/a	n/a	n/a	n/a	n/a
2970708	RECOG_CONF	n/a	LTP086	ltpFR	3	3	0	SIDING	1304	5	0	n/a	n/a	n/a	n/a	n/a
2972037	RECOG_LURE	n/a	LTP086	ltpFR	3	3	n/a	CONTAINER	366	5	n/a	n/a	n/a	n/a	n/a	n/a
2972538	RECOG_RESP	n/a	LTP086	ltpFR	3	3	n/a	CONTAINER	366	n/a	n/a	n/a	n/a	n/a	n/a	n/a
2973002	RECOG_CONF	n/a	LTP086	ltpFR	3	3	n/a	CONTAINER	366	5	n/a	n/a	n/a	n/a	n/a	n/a
2974295	RECOG_LURE	n/a	LTP086	ltpFR	3	3	n/a	BOOT	150	1	n/a	n/a	n/a	n/a	n/a	n/a
2975072	RECOG_RESP	n/a	LTP086	ltpFR	3	3	n/a	BOOT	150	n/a	n/a	n/a	n/a	n/a	n/a	n/a
2975536	RECOG_CONF	n/a	LTP086	ltpFR	3	3	n/a	BOOT	150	1	n/a	n/a	n/a	n/a	n/a	n/a
2976813	RECOG_TARGET	n/a	LTP086	ltpFR	3	3	-1	CHIMNEY	301	5	-1	n/a	n/a	n/a	n/a	n/a
2977477	RECOG_RESP	n/a	LTP086	ltpFR	3	3	-1	CHIMNEY	301	n/a	-1	n/a	n/a	n/a	n/a	n/a
2977965	RECOG_CONF	n/a	LTP086	ltpFR	3	3	-1	CHIMNEY	301	5	-1	n/a	n/a	n/a	n/a	n/a
2979203	RECOG_LURE	n/a	LTP086	ltpFR	3	3	n/a	RUG	1215	4	n/a	n/a	n/a	n/a	n/a	n/a
2979816	RECOG_RESP	n/a	LTP086	ltpFR	3	3	n/a	RUG	1215	n/a	n/a	n/a	n/a	n/a	n/a	n/a
2980425	RECOG_CONF	n/a	LTP086	ltpFR	3	3	n/a	RUG	1215	4	n/a	n/a	n/a	n/a	n/a	n/a
2981495	RECOG_LURE	n/a	LTP086	ltpFR	3	3	n/a	VALLEY	1545	4	n/a	n/a	n/a	n/a	n/a	n/a
2982206	RECOG_RESP	n/a	LTP086	ltpFR	3	3	n/a	VALLEY	1545	n/a	n/a	n/a	n/a	n/a	n/a	n/a
2982740	RECOG_CONF	n/a	LTP086	ltpFR	3	3	n/a	VALLEY	1545	4	n/a	n/a	n/a	n/a	n/a	n/a
2983936	RECOG_LURE	n/a	LTP086	ltpFR	3	3	n/a	WHISKERS	1605	2	n/a	n/a	n/a	n/a	n/a	n/a
2985053	RECOG_RESP	n/a	LTP086	ltpFR	3	3	n/a	WHISKERS	1605	n/a	n/a	n/a	n/a	n/a	n/a	n/a
2985541	RECOG_CONF	n/a	LTP086	ltpFR	3	3	n/a	WHISKERS	1605	2	n/a	n/a	n/a	n/a	n/a	n/a
2986894	RECOG_TARGET	n/a	LTP086	ltpFR	3	3	-1	ROOM	1206	1	-1	n/a	n/a	n/a	n/a	n/a
2987688	RECOG_RESP	n/a	LTP086	ltpFR	3	3	-1	ROOM	1206	n/a	-1	n/a	n/a	n/a	n/a	n/a
2988134	RECOG_CONF	n/a	LTP086	ltpFR	3	3	-1	ROOM	1206	1	-1	n/a	n/a	n/a	n/a	n/a
2989369	RECOG_LURE	n/a	LTP086	ltpFR	3	3	n/a	EMPEROR	529	4	n/a	n/a	n/a	n/a	n/a	n/a
2990083	RECOG_RESP	n/a	LTP086	ltpFR	3	3	n/a	EMPEROR	529	n/a	n/a	n/a	n/a	n/a	n/a	n/a
2990576	RECOG_CONF	n/a	LTP086	ltpFR	3	3	n/a	EMPEROR	529	4	n/a	n/a	n/a	n/a	n/a	n/a
2991653	RECOG_LURE	n/a	LTP086	ltpFR	3	3	n/a	BUREAU	199	4	n/a	n/a	n/a	n/a	n/a	n/a
2992283	RECOG_RESP	n/a	LTP086	ltpFR	3	3	n/a	BUREAU	199	n/a	n/a	n/a	n/a	n/a	n/a	n/a
2992863	RECOG_CONF	n/a	LTP086	ltpFR	3	3	n/a	BUREAU	199	4	n/a	n/a	n/a	n/a	n/a	n/a
2993811	RECOG_LURE	n/a	LTP086	ltpFR	3	3	n/a	FRIEND	606	5	n/a	n/a	n/a	n/a	n/a	n/a
2994358	RECOG_RESP	n/a	LTP086	ltpFR	3	3	n/a	FRIEND	606	n/a	n/a	n/a	n/a	n/a	n/a	n/a
2994869	RECOG_CONF	n/a	LTP086	ltpFR	3	3	n/a	FRIEND	606	5	n/a	n/a	n/a	n/a	n/a	n/a
2996002	RECOG_TARGET	n/a	LTP086	ltpFR	3	3	0	LASH	802	5	0	n/a	n/a	n/a	n/a	n/a
2996578	RECOG_RESP	n/a	LTP086	ltpFR	3	3	0	LASH	802	n/a	0	n/a	n/a	n/a	n/a	n/a
2997071	RECOG_CONF	n/a	LTP086	ltpFR	3	3	0	LASH	802	5	0	n/a	n/a	n/a	n/a	n/a
2998235	RECOG_LURE	n/a	LTP086	ltpFR	3	3	n/a	SAUCER	1237	4	n/a	n/a	n/a	n/a	n/a	n/a
2998776	RECOG_RESP	n/a	LTP086	ltpFR	3	3	n/a	SAUCER	1237	n/a	n/a	n/a	n/a	n/a	n/a	n/a
2999449	RECOG_CONF	n/a	LTP086	ltpFR	3	3	n/a	SAUCER	1237	4	n/a	n/a	n/a	n/a	n/a	n/a
3003094	REC_START	n/a	LTP086	ltpFR	3	4	n/a	n/a	n/a	n/a	n/a	n/a	n/a	n/a	n/a	n/a
3003126	RECOG_TARGET	n/a	LTP086	ltpFR	3	4	0	SPONGE	1355	5	0	n/a	n/a	n/a	n/a	n/a
3003568	RECOG_RESP	n/a	LTP086	ltpFR	3	4	0	SPONGE	1355	n/a	0	n/a	n/a	n/a	n/a	n/a
3004032	RECOG_CONF	n/a	LTP086	ltpFR	3	4	0	SPONGE	1355	5	0	n/a	n/a	n/a	n/a	n/a
3005326	RECOG_TARGET	n/a	LTP086	ltpFR	3	4	0	SEAT	1264	5	1	n/a	n/a	n/a	n/a	n/a
3005693	RECOG_RESP	n/a	LTP086	ltpFR	3	4	0	SEAT	1264	n/a	1	n/a	n/a	n/a	n/a	n/a
3006181	RECOG_CONF	n/a	LTP086	ltpFR	3	4	0	SEAT	1264	5	1	n/a	n/a	n/a	n/a	n/a
3007351	RECOG_TARGET	n/a	LTP086	ltpFR	3	4	1	PLANT	1083	5	1	n/a	n/a	n/a	n/a	n/a
3007828	RECOG_RESP	n/a	LTP086	ltpFR	3	4	1	PLANT	1083	n/a	1	n/a	n/a	n/a	n/a	n/a
3008292	RECOG_CONF	n/a	LTP086	ltpFR	3	4	1	PLANT	1083	5	1	n/a	n/a	n/a	n/a	n/a
3009785	RECOG_TARGET	n/a	LTP086	ltpFR	3	4	1	DAM	436	5	1	n/a	n/a	n/a	n/a	n/a
3010223	RECOG_RESP	n/a	LTP086	ltpFR	3	4	1	DAM	436	n/a	1	n/a	n/a	n/a	n/a	n/a
3010687	RECOG_CONF	n/a	LTP086	ltpFR	3	4	1	DAM	436	5	1	n/a	n/a	n/a	n/a	n/a
3011926	RECOG_LURE	n/a	LTP086	ltpFR	3	4	n/a	FAMILY	550	5	n/a	n/a	n/a	n/a	n/a	n/a
3012517	RECOG_RESP	n/a	LTP086	ltpFR	3	4	n/a	FAMILY	550	n/a	n/a	n/a	n/a	n/a	n/a	n/a
3013056	RECOG_CONF	n/a	LTP086	ltpFR	3	4	n/a	FAMILY	550	5	n/a	n/a	n/a	n/a	n/a	n/a
3014234	RECOG_LURE	n/a	LTP086	ltpFR	3	4	n/a	PUBLICATION	1136	1	n/a	n/a	n/a	n/a	n/a	n/a
3014702	RECOG_RESP	n/a	LTP086	ltpFR	3	4	n/a	PUBLICATION	1136	n/a	n/a	n/a	n/a	n/a	n/a	n/a
3015259	RECOG_CONF	n/a	LTP086	ltpFR	3	4	n/a	PUBLICATION	1136	1	n/a	n/a	n/a	n/a	n/a	n/a
3016568	RECOG_LURE	n/a	LTP086	ltpFR	3	4	n/a	BLOUSE	139	5	n/a	n/a	n/a	n/a	n/a	n/a
3017147	RECOG_RESP	n/a	LTP086	ltpFR	3	4	n/a	BLOUSE	139	n/a	n/a	n/a	n/a	n/a	n/a	n/a
3017588	RECOG_CONF	n/a	LTP086	ltpFR	3	4	n/a	BLOUSE	139	5	n/a	n/a	n/a	n/a	n/a	n/a
3018908	RECOG_TARGET	n/a	LTP086	ltpFR	3	4	0	SHED	1277	5	0	n/a	n/a	n/a	n/a	n/a
3019392	RECOG_RESP	n/a	LTP086	ltpFR	3	4	0	SHED	1277	n/a	0	n/a	n/a	n/a	n/a	n/a
3019903	RECOG_CONF	n/a	LTP086	ltpFR	3	4	0	SHED	1277	5	0	n/a	n/a	n/a	n/a	n/a
3021117	RECOG_TARGET	n/a	LTP086	ltpFR	3	4	1	EWE	542	5	1	n/a	n/a	n/a	n/a	n/a
3021557	RECOG_RESP	n/a	LTP086	ltpFR	3	4	1	EWE	542	n/a	1	n/a	n/a	n/a	n/a	n/a
3022021	RECOG_CONF	n/a	LTP086	ltpFR	3	4	1	EWE	542	5	1	n/a	n/a	n/a	n/a	n/a
3023216	RECOG_LURE	n/a	LTP086	ltpFR	3	4	n/a	DRAWER	493	4	n/a	n/a	n/a	n/a	n/a	n/a
3023817	RECOG_RESP	n/a	LTP086	ltpFR	3	4	n/a	DRAWER	493	n/a	n/a	n/a	n/a	n/a	n/a	n/a
3024333	RECOG_CONF	n/a	LTP086	ltpFR	3	4	n/a	DRAWER	493	4	n/a	n/a	n/a	n/a	n/a	n/a
3025483	RECOG_TARGET	n/a	LTP086	ltpFR	3	4	1	SKULL	1320	5	1	n/a	n/a	n/a	n/a	n/a
3025967	RECOG_RESP	n/a	LTP086	ltpFR	3	4	1	SKULL	1320	n/a	1	n/a	n/a	n/a	n/a	n/a
3026408	RECOG_CONF	n/a	LTP086	ltpFR	3	4	1	SKULL	1320	5	1	n/a	n/a	n/a	n/a	n/a
3027675	RECOG_TARGET	n/a	LTP086	ltpFR	3	4	0	CACTUS	215	5	1	n/a	n/a	n/a	n/a	n/a
3028172	RECOG_RESP	n/a	LTP086	ltpFR	3	4	0	CACTUS	215	n/a	1	n/a	n/a	n/a	n/a	n/a
3028567	RECOG_CONF	n/a	LTP086	ltpFR	3	4	0	CACTUS	215	5	1	n/a	n/a	n/a	n/a	n/a
3029792	RECOG_LURE	n/a	LTP086	ltpFR	3	4	n/a	CHAMBER	277	4	n/a	n/a	n/a	n/a	n/a	n/a
3030457	RECOG_RESP	n/a	LTP086	ltpFR	3	4	n/a	CHAMBER	277	n/a	n/a	n/a	n/a	n/a	n/a	n/a
3031075	RECOG_CONF	n/a	LTP086	ltpFR	3	4	n/a	CHAMBER	277	4	n/a	n/a	n/a	n/a	n/a	n/a
3032432	RECOG_TARGET	n/a	LTP086	ltpFR	3	4	1	SUN	1406	1	0	n/a	n/a	n/a	n/a	n/a
3033361	RECOG_RESP	n/a	LTP086	ltpFR	3	4	1	SUN	1406	n/a	0	n/a	n/a	n/a	n/a	n/a
3033988	RECOG_CONF	n/a	LTP086	ltpFR	3	4	1	SUN	1406	1	0	n/a	n/a	n/a	n/a	n/a
3035316	RECOG_LURE	n/a	LTP086	ltpFR	3	4	n/a	CONTRACTOR	369	2	n/a	n/a	n/a	n/a	n/a	n/a
3036232	RECOG_RESP	n/a	LTP086	ltpFR	3	4	n/a	CONTRACTOR	369	n/a	n/a	n/a	n/a	n/a	n/a	n/a
3036813	RECOG_CONF	n/a	LTP086	ltpFR	3	4	n/a	CONTRACTOR	369	2	n/a	n/a	n/a	n/a	n/a	n/a
3038157	RECOG_TARGET	n/a	LTP086	ltpFR	3	4	1	BRUNETTE	181	5	1	n/a	n/a	n/a	n/a	n/a
3038748	RECOG_RESP	n/a	LTP086	ltpFR	3	4	1	BRUNETTE	181	n/a	1	n/a	n/a	n/a	n/a	n/a
3039189	RECOG_CONF	n/a	LTP086	ltpFR	3	4	1	BRUNETTE	181	5	1	n/a	n/a	n/a	n/a	n/a
3040407	RECOG_LURE	n/a	LTP086	ltpFR	3	4	n/a	TERMITE	1451	5	n/a	n/a	n/a	n/a	n/a	n/a
3041013	RECOG_RESP	n/a	LTP086	ltpFR	3	4	n/a	TERMITE	1451	n/a	n/a	n/a	n/a	n/a	n/a	n/a
3041431	RECOG_CONF	n/a	LTP086	ltpFR	3	4	n/a	TERMITE	1451	5	n/a	n/a	n/a	n/a	n/a	n/a
3042641	RECOG_LURE	n/a	LTP086	ltpFR	3	4	n/a	SPICE	1350	1	n/a	n/a	n/a	n/a	n/a	n/a
3044066	RECOG_RESP	n/a	LTP086	ltpFR	3	4	n/a	SPICE	1350	n/a	n/a	n/a	n/a	n/a	n/a	n/a
3045233	RECOG_CONF	n/a	LTP086	ltpFR	3	4	n/a	SPICE	1350	1	n/a	n/a	n/a	n/a	n/a	n/a
3046724	RECOG_TARGET	n/a	LTP086	ltpFR	3	4	1	DINER	467	5	1	n/a	n/a	n/a	n/a	n/a
3047199	RECOG_RESP	n/a	LTP086	ltpFR	3	4	1	DINER	467	n/a	1	n/a	n/a	n/a	n/a	n/a
3047687	RECOG_CONF	n/a	LTP086	ltpFR	3	4	1	DINER	467	5	1	n/a	n/a	n/a	n/a	n/a
3049006	RECOG_LURE	n/a	LTP086	ltpFR	3	4	n/a	MEAT	883	4	n/a	n/a	n/a	n/a	n/a	n/a
3049956	RECOG_RESP	n/a	LTP086	ltpFR	3	4	n/a	MEAT	883	n/a	n/a	n/a	n/a	n/a	n/a	n/a
3050514	RECOG_CONF	n/a	LTP086	ltpFR	3	4	n/a	MEAT	883	4	n/a	n/a	n/a	n/a	n/a	n/a
3057425	REC_START	n/a	LTP086	ltpFR	3	5	n/a	n/a	n/a	n/a	n/a	n/a	n/a	n/a	n/a	n/a
3057455	RECOG_TARGET	n/a	LTP086	ltpFR	3	5	1	CLAM	315	5	1	n/a	n/a	n/a	n/a	n/a
3057879	RECOG_RESP	n/a	LTP086	ltpFR	3	5	1	CLAM	315	n/a	1	n/a	n/a	n/a	n/a	n/a
3058367	RECOG_CONF	n/a	LTP086	ltpFR	3	5	1	CLAM	315	5	1	n/a	n/a	n/a	n/a	n/a
3059548	RECOG_LURE	n/a	LTP086	ltpFR	3	5	n/a	LION	827	5	n/a	n/a	n/a	n/a	n/a	n/a
3060124	RECOG_RESP	n/a	LTP086	ltpFR	3	5	n/a	LION	827	n/a	n/a	n/a	n/a	n/a	n/a	n/a
3060519	RECOG_CONF	n/a	LTP086	ltpFR	3	5	n/a	LION	827	5	n/a	n/a	n/a	n/a	n/a	n/a
3061765	RECOG_TARGET	n/a	LTP086	ltpFR	3	5	-1	BATTERY	101	5	-1	n/a	n/a	n/a	n/a	n/a
3062249	RECOG_RESP	n/a	LTP086	ltpFR	3	5	-1	BATTERY	101	n/a	-1	n/a	n/a	n/a	n/a	n/a
3062644	RECOG_CONF	n/a	LTP086	ltpFR	3	5	-1	BATTERY	101	5	-1	n/a	n/a	n/a	n/a	n/a
3063839	RECOG_TARGET	n/a	LTP086	ltpFR	3	5	1	LOLLIPOP	842	5	1	n/a	n/a	n/a	n/a	n/a
3064344	RECOG_RESP	n/a	LTP086	ltpFR	3	5	1	LOLLIPOP	842	n/a	1	n/a	n/a	n/a	n/a	n/a
3064739	RECOG_CONF	n/a	LTP086	ltpFR	3	5	1	LOLLIPOP	842	5	1	n/a	n/a	n/a	n/a	n/a
3065913	RECOG_TARGET	n/a	LTP086	ltpFR	3	5	1	PHOTO	1055	4	1	n/a	n/a	n/a	n/a	n/a
3066379	RECOG_RESP	n/a	LTP086	ltpFR	3	5	1	PHOTO	1055	n/a	1	n/a	n/a	n/a	n/a	n/a
3066751	RECOG_CONF	n/a	LTP086	ltpFR	3	5	1	PHOTO	1055	4	1	n/a	n/a	n/a	n/a	n/a
3068021	RECOG_TARGET	n/a	LTP086	ltpFR	3	5	-1	YOKE	1632	5	-1	n/a	n/a	n/a	n/a	n/a
3068510	RECOG_RESP	n/a	LTP086	ltpFR	3	5	-1	YOKE	1632	n/a	-1	n/a	n/a	n/a	n/a	n/a
3068956	RECOG_CONF	n/a	LTP086	ltpFR	3	5	-1	YOKE	1632	5	-1	n/a	n/a	n/a	n/a	n/a
3070171	RECOG_TARGET	n/a	LTP086	ltpFR	3	5	0	DAD	433	5	1	n/a	n/a	n/a	n/a	n/a
3070730	RECOG_RESP	n/a	LTP086	ltpFR	3	5	0	DAD	433	n/a	1	n/a	n/a	n/a	n/a	n/a
3071171	RECOG_CONF	n/a	LTP086	ltpFR	3	5	0	DAD	433	5	1	n/a	n/a	n/a	n/a	n/a
3072547	RECOG_TARGET	n/a	LTP086	ltpFR	3	5	1	CHAIR	274	5	1	n/a	n/a	n/a	n/a	n/a
3073014	RECOG_RESP	n/a	LTP086	ltpFR	3	5	1	CHAIR	274	n/a	1	n/a	n/a	n/a	n/a	n/a
3073409	RECOG_CONF	n/a	LTP086	ltpFR	3	5	1	CHAIR	274	5	1	n/a	n/a	n/a	n/a	n/a
3074714	RECOG_TARGET	n/a	LTP086	ltpFR	3	5	1	BLACKBERRY	132	5	0	n/a	n/a	n/a	n/a	n/a
3075169	RECOG_RESP	n/a	LTP086	ltpFR	3	5	1	BLACKBERRY	132	n/a	0	n/a	n/a	n/a	n/a	n/a
3075633	RECOG_CONF	n/a	LTP086	ltpFR	3	5	1	BLACKBERRY	132	5	0	n/a	n/a	n/a	n/a	n/a
3076862	RECOG_LURE	n/a	LTP086	ltpFR	3	5	n/a	PEDAL	1037	4	n/a	n/a	n/a	n/a	n/a	n/a
3077529	RECOG_RESP	n/a	LTP086	ltpFR	3	5	n/a	PEDAL	1037	n/a	n/a	n/a	n/a	n/a	n/a	n/a
3077993	RECOG_CONF	n/a	LTP086	ltpFR	3	5	n/a	PEDAL	1037	4	n/a	n/a	n/a	n/a	n/a	n/a
3079295	RECOG_TARGET	n/a	LTP086	ltpFR	3	5	-1	DENIM	446	5	-1	n/a	n/a	n/a	n/a	n/a
3079769	RECOG_RESP	n/a	LTP086	ltpFR	3	5	-1	DENIM	446	n/a	-1	n/a	n/a	n/a	n/a	n/a
3080257	RECOG_CONF	n/a	LTP086	ltpFR	3	5	-1	DENIM	446	5	-1	n/a	n/a	n/a	n/a	n/a
3081638	RECOG_LURE	n/a	LTP086	ltpFR	3	5	n/a	STRING	1394	2	n/a	n/a	n/a	n/a	n/a	n/a
3082144	RECOG_RESP	n/a	LTP086	ltpFR	3	5	n/a	STRING	1394	n/a	n/a	n/a	n/a	n/a	n/a	n/a
3083012	RECOG_CONF	n/a	LTP086	ltpFR	3	5	n/a	STRING	1394	2	n/a	n/a	n/a	n/a	n/a	n/a
3084295	RECOG_TARGET	n/a	LTP086	ltpFR	3	5	0	SCALLOP	1242	5	1	n/a	n/a	n/a	n/a	n/a
3084788	RECOG_RESP	n/a	LTP086	ltpFR	3	5	0	SCALLOP	1242	n/a	1	n/a	n/a	n/a	n/a	n/a
3085299	RECOG_CONF	n/a	LTP086	ltpFR	3	5	0	SCALLOP	1242	5	1	n/a	n/a	n/a	n/a	n/a
3086563	RECOG_LURE	n/a	LTP086	ltpFR	3	5	n/a	CANDY	230	1	n/a	n/a	n/a	n/a	n/a	n/a
3086973	RECOG_RESP	n/a	LTP086	ltpFR	3	5	n/a	CANDY	230	n/a	n/a	n/a	n/a	n/a	n/a	n/a
3087484	RECOG_CONF	n/a	LTP086	ltpFR	3	5	n/a	CANDY	230	1	n/a	n/a	n/a	n/a	n/a	n/a
3088712	RECOG_LURE	n/a	LTP086	ltpFR	3	5	n/a	FOREST	593	4	n/a	n/a	n/a	n/a	n/a	n/a
3089482	RECOG_RESP	n/a	LTP086	ltpFR	3	5	n/a	FOREST	593	n/a	n/a	n/a	n/a	n/a	n/a	n/a
3090160	RECOG_CONF	n/a	LTP086	ltpFR	3	5	n/a	FOREST	593	4	n/a	n/a	n/a	n/a	n/a	n/a
3091286	RECOG_LURE	n/a	LTP086	ltpFR	3	5	n/a	OPERA	978	1	n/a	n/a	n/a	n/a	n/a	n/a
3091961	RECOG_RESP	n/a	LTP086	ltpFR	3	5	n/a	OPERA	978	n/a	n/a	n/a	n/a	n/a	n/a	n/a
3092518	RECOG_CONF	n/a	LTP086	ltpFR	3	5	n/a	OPERA	978	1	n/a	n/a	n/a	n/a	n/a	n/a
3093770	RECOG_TARGET	n/a	LTP086	ltpFR	3	5	-1	OPERATOR	979	5	-1	n/a	n/a	n/a	n/a	n/a
3094281	RECOG_RESP	n/a	LTP086	ltpFR	3	5	-1	OPERATOR	979	n/a	-1	n/a	n/a	n/a	n/a	n/a
3094774	RECOG_CONF	n/a	LTP086	ltpFR	3	5	-1	OPERATOR	979	5	-1	n/a	n/a	n/a	n/a	n/a
3095969	RECOG_LURE	n/a	LTP086	ltpFR	3	5	n/a	SQUID	1361	5	n/a	n/a	n/a	n/a	n/a	n/a
3096681	RECOG_RESP	n/a	LTP086	ltpFR	3	5	n/a	SQUID	1361	n/a	n/a	n/a	n/a	n/a	n/a	n/a
3097145	RECOG_CONF	n/a	LTP086	ltpFR	3	5	n/a	SQUID	1361	5	n/a	n/a	n/a	n/a	n/a	n/a
3098419	RECOG_TARGET	n/a	LTP086	ltpFR	3	5	-1	CHARCOAL	281	4	-1	n/a	n/a	n/a	n/a	n/a
3098965	RECOG_RESP	n/a	LTP086	ltpFR	3	5	-1	CHARCOAL	281	n/a	-1	n/a	n/a	n/a	n/a	n/a
3099545	RECOG_CONF	n/a	LTP086	ltpFR	3	5	-1	CHARCOAL	281	4	-1	n/a	n/a	n/a	n/a	n/a
3100537	RECOG_TARGET	n/a	LTP086	ltpFR	3	5	1	FINGERNAIL	568	5	0	n/a	n/a	n/a	n/a	n/a
3101016	RECOG_RESP	n/a	LTP086	ltpFR	3	5	1	FINGERNAIL	568	n/a	0	n/a	n/a	n/a	n/a	n/a
3101509	RECOG_CONF	n/a	LTP086	ltpFR	3	5	1	FINGERNAIL	568	5	0	n/a	n/a	n/a	n/a	n/a
3105025	REC_START	n/a	LTP086	ltpFR	3	6	n/a	n/a	n/a	n/a	n/a	n/a	n/a	n/a	n/a	n/a
3105060	RECOG_LURE	n/a	LTP086	ltpFR	3	6	n/a	WORLD	1622	1	n/a	n/a	n/a	n/a	n/a	n/a
3105439	RECOG_RESP	n/a	LTP086	ltpFR	3	6	n/a	WORLD	1622	n/a	n/a	n/a	n/a	n/a	n/a	n/a
3105973	RECOG_CONF	n/a	LTP086	ltpFR	3	6	n/a	WORLD	1622	1	n/a	n/a	n/a	n/a	n/a	n/a
3107611	RECOG_LURE	n/a	LTP086	ltpFR	3	6	n/a	CREEK	404	1	n/a	n/a	n/a	n/a	n/a	n/a
3108392	RECOG_RESP	n/a	LTP086	ltpFR	3	6	n/a	CREEK	404	n/a	n/a	n/a	n/a	n/a	n/a	n/a
3108972	RECOG_CONF	n/a	LTP086	ltpFR	3	6	n/a	CREEK	404	1	n/a	n/a	n/a	n/a	n/a	n/a
3110177	RECOG_TARGET	n/a	LTP086	ltpFR	3	6	1	SHELTER	1282	5	0	n/a	n/a	n/a	n/a	n/a
3110707	RECOG_RESP	n/a	LTP086	ltpFR	3	6	1	SHELTER	1282	n/a	0	n/a	n/a	n/a	n/a	n/a
3111195	RECOG_CONF	n/a	LTP086	ltpFR	3	6	1	SHELTER	1282	5	0	n/a	n/a	n/a	n/a	n/a
3112351	RECOG_TARGET	n/a	LTP086	ltpFR	3	6	0	SERPENT	1270	5	1	n/a	n/a	n/a	n/a	n/a
3112842	RECOG_RESP	n/a	LTP086	ltpFR	3	6	0	SERPENT	1270	n/a	1	n/a	n/a	n/a	n/a	n/a
3113237	RECOG_CONF	n/a	LTP086	ltpFR	3	6	0	SERPENT	1270	5	1	n/a	n/a	n/a	n/a	n/a
3114561	RECOG_LURE	n/a	LTP086	ltpFR	3	6	n/a	DOCTOR	478	4	n/a	n/a	n/a	n/a	n/a	n/a
3115057	RECOG_RESP_VV	n/a	LTP086	ltpFR	3	6	n/a	DOCTOR	478	n/a	n/a	n/a	n/a	n/a	n/a	n/a
3115795	RECOG_RESP	n/a	LTP086	ltpFR	3	6	n/a	DOCTOR	478	n/a	n/a	n/a	n/a	n/a	n/a	n/a
3116544	RECOG_CONF	n/a	LTP086	ltpFR	3	6	n/a	DOCTOR	478	4	n/a	n/a	n/a	n/a	n/a	n/a
3118068	RECOG_TARGET	n/a	LTP086	ltpFR	3	6	0	TAXI	1438	5	1	n/a	n/a	n/a	n/a	n/a
3118549	RECOG_RESP	n/a	LTP086	ltpFR	3	6	0	TAXI	1438	n/a	1	n/a	n/a	n/a	n/a	n/a
3119013	RECOG_CONF	n/a	LTP086	ltpFR	3	6	0	TAXI	1438	5	1	n/a	n/a	n/a	n/a	n/a
3120259	RECOG_TARGET	n/a	LTP086	ltpFR	3	6	0	TURTLE	1522	5	0	n/a	n/a	n/a	n/a	n/a
3120694	RECOG_RESP	n/a	LTP086	ltpFR	3	6	0	TURTLE	1522	n/a	0	n/a	n/a	n/a	n/a	n/a
3121112	RECOG_CONF	n/a	LTP086	ltpFR	3	6	0	TURTLE	1522	5	0	n/a	n/a	n/a	n/a	n/a
3122467	RECOG_LURE	n/a	LTP086	ltpFR	3	6	n/a	AFRICA	9	5	n/a	n/a	n/a	n/a	n/a	n/a
3123119	RECOG_RESP	n/a	LTP086	ltpFR	3	6	n/a	AFRICA	9	n/a	n/a	n/a	n/a	n/a	n/a	n/a
3123630	RECOG_CONF	n/a	LTP086	ltpFR	3	6	n/a	AFRICA	9	5	n/a	n/a	n/a	n/a	n/a	n/a
3124984	RECOG_TARGET	n/a	LTP086	ltpFR	3	6	1	RUNNER	1218	5	1	n/a	n/a	n/a	n/a	n/a
3125483	RECOG_RESP	n/a	LTP086	ltpFR	3	6	1	RUNNER	1218	n/a	1	n/a	n/a	n/a	n/a	n/a
3125947	RECOG_CONF	n/a	LTP086	ltpFR	3	6	1	RUNNER	1218	5	1	n/a	n/a	n/a	n/a	n/a
3127259	RECOG_LURE	n/a	LTP086	ltpFR	3	6	n/a	SLACKS	1323	1	n/a	n/a	n/a	n/a	n/a	n/a
3127763	RECOG_RESP	n/a	LTP086	ltpFR	3	6	n/a	SLACKS	1323	n/a	n/a	n/a	n/a	n/a	n/a	n/a
3128460	RECOG_CONF	n/a	LTP086	ltpFR	3	6	n/a	SLACKS	1323	1	n/a	n/a	n/a	n/a	n/a	n/a
3129676	RECOG_TARGET	n/a	LTP086	ltpFR	3	6	-1	SIRLOIN	1311	4	-1	n/a	n/a	n/a	n/a	n/a
3130612	RECOG_RESP	n/a	LTP086	ltpFR	3	6	-1	SIRLOIN	1311	n/a	-1	n/a	n/a	n/a	n/a	n/a
3131169	RECOG_CONF	n/a	LTP086	ltpFR	3	6	-1	SIRLOIN	1311	4	-1	n/a	n/a	n/a	n/a	n/a
3132475	RECOG_TARGET	n/a	LTP086	ltpFR	3	6	0	DRIVEWAY	500	1	1	n/a	n/a	n/a	n/a	n/a
3133076	RECOG_RESP	n/a	LTP086	ltpFR	3	6	0	DRIVEWAY	500	n/a	1	n/a	n/a	n/a	n/a	n/a
3133564	RECOG_CONF	n/a	LTP086	ltpFR	3	6	0	DRIVEWAY	500	1	1	n/a	n/a	n/a	n/a	n/a
3134801	RECOG_TARGET	n/a	LTP086	ltpFR	3	6	-1	CREW	406	2	-1	n/a	n/a	n/a	n/a	n/a
3135481	RECOG_RESP	n/a	LTP086	ltpFR	3	6	-1	CREW	406	n/a	-1	n/a	n/a	n/a	n/a	n/a
3135899	RECOG_CONF	n/a	LTP086	ltpFR	3	6	-1	CREW	406	2	-1	n/a	n/a	n/a	n/a	n/a
3137249	RECOG_LURE	n/a	LTP086	ltpFR	3	6	n/a	YARN	1631	1	n/a	n/a	n/a	n/a	n/a	n/a
3138146	RECOG_RESP	n/a	LTP086	ltpFR	3	6	n/a	YARN	1631	n/a	n/a	n/a	n/a	n/a	n/a	n/a
3138680	RECOG_CONF	n/a	LTP086	ltpFR	3	6	n/a	YARN	1631	1	n/a	n/a	n/a	n/a	n/a	n/a
3139899	RECOG_LURE	n/a	LTP086	ltpFR	3	6	n/a	BIKE	125	1	n/a	n/a	n/a	n/a	n/a	n/a
3140469	RECOG_RESP	n/a	LTP086	ltpFR	3	6	n/a	BIKE	125	n/a	n/a	n/a	n/a	n/a	n/a	n/a
3141119	RECOG_CONF	n/a	LTP086	ltpFR	3	6	n/a	BIKE	125	1	n/a	n/a	n/a	n/a	n/a	n/a
3143041	RECOG_TARGET	n/a	LTP086	ltpFR	3	6	0	CONVICT	371	5	0	n/a	n/a	n/a	n/a	n/a
3144022	RECOG_RESP	n/a	LTP086	ltpFR	3	6	0	CONVICT	371	n/a	0	n/a	n/a	n/a	n/a	n/a
3144533	RECOG_CONF	n/a	LTP086	ltpFR	3	6	0	CONVICT	371	5	0	n/a	n/a	n/a	n/a	n/a
3146583	RECOG_LURE	n/a	LTP086	ltpFR	3	6	n/a	CABLE	213	4	n/a	n/a	n/a	n/a	n/a	n/a
3147204	RECOG_RESP_VV	n/a	LTP086	ltpFR	3	6	n/a	CABLE	213	n/a	n/a	n/a	n/a	n/a	n/a	n/a
3148122	RECOG_RESP	n/a	LTP086	ltpFR	3	6	n/a	CABLE	213	n/a	n/a	n/a	n/a	n/a	n/a	n/a
3148970	RECOG_CONF	n/a	LTP086	ltpFR	3	6	n/a	CABLE	213	4	n/a	n/a	n/a	n/a	n/a	n/a
3150440	RECOG_TARGET	n/a	LTP086	ltpFR	3	6	1	FURNITURE	616	5	1	n/a	n/a	n/a	n/a	n/a
3150955	RECOG_RESP	n/a	LTP086	ltpFR	3	6	1	FURNITURE	616	n/a	1	n/a	n/a	n/a	n/a	n/a
3151489	RECOG_CONF	n/a	LTP086	ltpFR	3	6	1	FURNITURE	616	5	1	n/a	n/a	n/a	n/a	n/a
3152749	RECOG_LURE	n/a	LTP086	ltpFR	3	6	n/a	LUNCH	849	5	n/a	n/a	n/a	n/a	n/a	n/a
3153121	RECOG_RESP	n/a	LTP086	ltpFR	3	6	n/a	LUNCH	849	n/a	n/a	n/a	n/a	n/a	n/a	n/a
3153562	RECOG_CONF	n/a	LTP086	ltpFR	3	6	n/a	LUNCH	849	5	n/a	n/a	n/a	n/a	n/a	n/a
3154799	RECOG_TARGET	n/a	LTP086	ltpFR	3	6	-1	AUTOMOBILE	62	5	-1	n/a	n/a	n/a	n/a	n/a
3155291	RECOG_RESP	n/a	LTP086	ltpFR	3	6	-1	AUTOMOBILE	62	n/a	-1	n/a	n/a	n/a	n/a	n/a
3155784	RECOG_CONF	n/a	LTP086	ltpFR	3	6	-1	AUTOMOBILE	62	5	-1	n/a	n/a	n/a	n/a	n/a
3160541	REC_START	n/a	LTP086	ltpFR	3	7	n/a	n/a	n/a	n/a	n/a	n/a	n/a	n/a	n/a	n/a
3160574	RECOG_LURE	n/a	LTP086	ltpFR	3	7	n/a	INCENSE	735	4	n/a	n/a	n/a	n/a	n/a	n/a
3161085	RECOG_RESP	n/a	LTP086	ltpFR	3	7	n/a	INCENSE	735	n/a	n/a	n/a	n/a	n/a	n/a	n/a
3161713	RECOG_CONF	n/a	LTP086	ltpFR	3	7	n/a	INCENSE	735	4	n/a	n/a	n/a	n/a	n/a	n/a
3163072	RECOG_TARGET	n/a	LTP086	ltpFR	3	7	1	CRIMINAL	409	5	0	n/a	n/a	n/a	n/a	n/a
3163489	RECOG_RESP	n/a	LTP086	ltpFR	3	7	1	CRIMINAL	409	n/a	0	n/a	n/a	n/a	n/a	n/a
3163977	RECOG_CONF	n/a	LTP086	ltpFR	3	7	1	CRIMINAL	409	5	0	n/a	n/a	n/a	n/a	n/a
3165372	RECOG_TARGET	n/a	LTP086	ltpFR	3	7	1	THIGH	1457	5	1	n/a	n/a	n/a	n/a	n/a
3165859	RECOG_RESP	n/a	LTP086	ltpFR	3	7	1	THIGH	1457	n/a	1	n/a	n/a	n/a	n/a	n/a
3166375	RECOG_CONF	n/a	LTP086	ltpFR	3	7	1	THIGH	1457	5	1	n/a	n/a	n/a	n/a	n/a
3167855	RECOG_TARGET	n/a	LTP086	ltpFR	3	7	0	CRUTCH	417	1	0	n/a	n/a	n/a	n/a	n/a
3168298	RECOG_RESP	n/a	LTP086	ltpFR	3	7	0	CRUTCH	417	n/a	0	n/a	n/a	n/a	n/a	n/a
3168855	RECOG_CONF	n/a	LTP086	ltpFR	3	7	0	CRUTCH	417	1	0	n/a	n/a	n/a	n/a	n/a
3170089	RECOG_LURE	n/a	LTP086	ltpFR	3	7	n/a	FEMALE	559	5	n/a	n/a	n/a	n/a	n/a	n/a
3170623	RECOG_RESP	n/a	LTP086	ltpFR	3	7	n/a	FEMALE	559	n/a	n/a	n/a	n/a	n/a	n/a	n/a
3171202	RECOG_CONF	n/a	LTP086	ltpFR	3	7	n/a	FEMALE	559	5	n/a	n/a	n/a	n/a	n/a	n/a
3172488	RECOG_TARGET	n/a	LTP086	ltpFR	3	7	-1	ATLAS	53	5	-1	n/a	n/a	n/a	n/a	n/a
3172898	RECOG_RESP	n/a	LTP086	ltpFR	3	7	-1	ATLAS	53	n/a	-1	n/a	n/a	n/a	n/a	n/a
3173386	RECOG_CONF	n/a	LTP086	ltpFR	3	7	-1	ATLAS	53	5	-1	n/a	n/a	n/a	n/a	n/a
3174773	RECOG_TARGET	n/a	LTP086	ltpFR	3	7	1	ASHTRAY	45	4	1	n/a	n/a	n/a	n/a	n/a
3175113	RECOG_RESP	n/a	LTP086	ltpFR	3	7	1	ASHTRAY	45	n/a	1	n/a	n/a	n/a	n/a	n/a
3175811	RECOG_CONF	n/a	LTP086	ltpFR	3	7	1	ASHTRAY	45	4	1	n/a	n/a	n/a	n/a	n/a
3177163	RECOG_TARGET	n/a	LTP086	ltpFR	3	7	1	BARK	87	5	1	n/a	n/a	n/a	n/a	n/a
3177587	RECOG_RESP	n/a	LTP086	ltpFR	3	7	1	BARK	87	n/a	1	n/a	n/a	n/a	n/a	n/a
3178075	RECOG_CONF	n/a	LTP086	ltpFR	3	7	1	BARK	87	5	1	n/a	n/a	n/a	n/a	n/a
3179530	RECOG_LURE	n/a	LTP086	ltpFR	3	7	n/a	SPRINKLE	1359	2	n/a	n/a	n/a	n/a	n/a	n/a
3180269	RECOG_RESP	n/a	LTP086	ltpFR	3	7	n/a	SPRINKLE	1359	n/a	n/a	n/a	n/a	n/a	n/a	n/a
3180850	RECOG_CONF	n/a	LTP086	ltpFR	3	7	n/a	SPRINKLE	1359	2	n/a	n/a	n/a	n/a	n/a	n/a
3182204	RECOG_TARGET	n/a	LTP086	ltpFR	3	7	0	RANCH	1166	5	1	n/a	n/a	n/a	n/a	n/a
3182646	RECOG_RESP	n/a	LTP086	ltpFR	3	7	0	RANCH	1166	n/a	1	n/a	n/a	n/a	n/a	n/a
3183157	RECOG_CONF	n/a	LTP086	ltpFR	3	7	0	RANCH	1166	5	1	n/a	n/a	n/a	n/a	n/a
3184413	RECOG_LURE	n/a	LTP086	ltpFR	3	7	n/a	TERMINAL	1450	1	n/a	n/a	n/a	n/a	n/a	n/a
3184691	RECOG_RESP	n/a	LTP086	ltpFR	3	7	n/a	TERMINAL	1450	n/a	n/a	n/a	n/a	n/a	n/a	n/a
3185202	RECOG_CONF	n/a	LTP086	ltpFR	3	7	n/a	TERMINAL	1450	1	n/a	n/a	n/a	n/a	n/a	n/a
3186521	RECOG_LURE	n/a	LTP086	ltpFR	3	7	n/a	TOWER	1490	5	n/a	n/a	n/a	n/a	n/a	n/a
3187125	RECOG_RESP	n/a	LTP086	ltpFR	3	7	n/a	TOWER	1490	n/a	n/a	n/a	n/a	n/a	n/a	n/a
3187589	RECOG_CONF	n/a	LTP086	ltpFR	3	7	n/a	TOWER	1490	5	n/a	n/a	n/a	n/a	n/a	n/a
3188971	RECOG_LURE	n/a	LTP086	ltpFR	3	7	n/a	EARTH	515	4	n/a	n/a	n/a	n/a	n/a	n/a
3189700	RECOG_RESP	n/a	LTP086	ltpFR	3	7	n/a	EARTH	515	n/a	n/a	n/a	n/a	n/a	n/a	n/a
3190211	RECOG_CONF	n/a	LTP086	ltpFR	3	7	n/a	EARTH	515	4	n/a	n/a	n/a	n/a	n/a	n/a
3191563	RECOG_TARGET	n/a	LTP086	ltpFR	3	7	-1	CIGARETTE	309	5	-1	n/a	n/a	n/a	n/a	n/a
3192139	RECOG_RESP	n/a	LTP086	ltpFR	3	7	-1	CIGARETTE	309	n/a	-1	n/a	n/a	n/a	n/a	n/a
3192655	RECOG_CONF	n/a	LTP086	ltpFR	3	7	-1	CIGARETTE	309	5	-1	n/a	n/a	n/a	n/a	n/a
3193887	RECOG_LURE	n/a	LTP086	ltpFR	3	7	n/a	HUSBAND	728	2	n/a	n/a	n/a	n/a	n/a	n/a
3194464	RECOG_RESP	n/a	LTP086	ltpFR	3	7	n/a	HUSBAND	728	n/a	n/a	n/a	n/a	n/a	n/a	n/a
3195007	RECOG_CONF	n/a	LTP086	ltpFR	3	7	n/a	HUSBAND	728	2	n/a	n/a	n/a	n/a	n/a	n/a
3196245	RECOG_LURE	n/a	LTP086	ltpFR	3	7	n/a	RABBIT	1152	1	n/a	n/a	n/a	n/a	n/a	n/a
3196704	RECOG_RESP	n/a	LTP086	ltpFR	3	7	n/a	RABBIT	1152	n/a	n/a	n/a	n/a	n/a	n/a	n/a
3197192	RECOG_CONF	n/a	LTP086	ltpFR	3	7	n/a	RABBIT	1152	1	n/a	n/a	n/a	n/a	n/a	n/a
3198587	RECOG_LURE	n/a	LTP086	ltpFR	3	7	n/a	SIGNATURE	1306	5	n/a	n/a	n/a	n/a	n/a	n/a
3199108	RECOG_RESP	n/a	LTP086	ltpFR	3	7	n/a	SIGNATURE	1306	n/a	n/a	n/a	n/a	n/a	n/a	n/a
3199619	RECOG_CONF	n/a	LTP086	ltpFR	3	7	n/a	SIGNATURE	1306	5	n/a	n/a	n/a	n/a	n/a	n/a
3200961	RECOG_LURE	n/a	LTP086	ltpFR	3	7	n/a	PARENT	1013	5	n/a	n/a	n/a	n/a	n/a	n/a
3201443	RECOG_RESP	n/a	LTP086	ltpFR	3	7	n/a	PARENT	1013	n/a	n/a	n/a	n/a	n/a	n/a	n/a
3201954	RECOG_CONF	n/a	LTP086	ltpFR	3	7	n/a	PARENT	1013	5	n/a	n/a	n/a	n/a	n/a	n/a
3203386	RECOG_TARGET	n/a	LTP086	ltpFR	3	7	1	PIMPLE	1071	5	0	n/a	n/a	n/a	n/a	n/a
3203977	RECOG_RESP	n/a	LTP086	ltpFR	3	7	1	PIMPLE	1071	n/a	0	n/a	n/a	n/a	n/a	n/a
3204418	RECOG_CONF	n/a	LTP086	ltpFR	3	7	1	PIMPLE	1071	5	0	n/a	n/a	n/a	n/a	n/a
3205853	RECOG_LURE	n/a	LTP086	ltpFR	3	7	n/a	PISTOL	1075	2	n/a	n/a	n/a	n/a	n/a	n/a
3206461	RECOG_RESP	n/a	LTP086	ltpFR	3	7	n/a	PISTOL	1075	n/a	n/a	n/a	n/a	n/a	n/a	n/a
3206949	RECOG_CONF	n/a	LTP086	ltpFR	3	7	n/a	PISTOL	1075	2	n/a	n/a	n/a	n/a	n/a	n/a
3213551	REC_START	n/a	LTP086	ltpFR	3	8	n/a	n/a	n/a	n/a	n/a	n/a	n/a	n/a	n/a	n/a
3213586	RECOG_TARGET	n/a	LTP086	ltpFR	3	8	-1	COTTAGE	384	1	-1	n/a	n/a	n/a	n/a	n/a
3213985	RECOG_RESP_VV	n/a	LTP086	ltpFR	3	8	-1	COTTAGE	384	n/a	-1	n/a	n/a	n/a	n/a	n/a
3214554	RECOG_RESP	n/a	LTP086	ltpFR	3	8	-1	COTTAGE	384	n/a	-1	n/a	n/a	n/a	n/a	n/a
3215202	RECOG_CONF	n/a	LTP086	ltpFR	3	8	-1	COTTAGE	384	1	-1	n/a	n/a	n/a	n/a	n/a
3216703	RECOG_LURE	n/a	LTP086	ltpFR	3	8	n/a	CLIMBER	323	1	n/a	n/a	n/a	n/a	n/a	n/a
3217508	RECOG_RESP	n/a	LTP086	ltpFR	3	8	n/a	CLIMBER	323	n/a	n/a	n/a	n/a	n/a	n/a	n/a
3218076	RECOG_CONF	n/a	LTP086	ltpFR	3	8	n/a	CLIMBER	323	1	n/a	n/a	n/a	n/a	n/a	n/a
3219360	RECOG_TARGET	n/a	LTP086	ltpFR	3	8	0	ASIA	46	5	n/a	n/a	n/a	n/a	n/a	n/a
3219812	RECOG_RESP	n/a	LTP086	ltpFR	3	8	0	ASIA	46	n/a	n/a	n/a	n/a	n/a	n/a	n/a
3220369	RECOG_CONF	n/a	LTP086	ltpFR	3	8	0	ASIA	46	5	n/a	n/a	n/a	n/a	n/a	n/a
3221686	RECOG_LURE	n/a	LTP086	ltpFR	3	8	n/a	MECHANIC	884	5	n/a	n/a	n/a	n/a	n/a	n/a
3222146	RECOG_RESP	n/a	LTP086	ltpFR	3	8	n/a	MECHANIC	884	n/a	n/a	n/a	n/a	n/a	n/a	n/a
3222634	RECOG_CONF	n/a	LTP086	ltpFR	3	8	n/a	MECHANIC	884	5	n/a	n/a	n/a	n/a	n/a	n/a
3224051	RECOG_TARGET	n/a	LTP086	ltpFR	3	8	0	TANGERINE	1431	5	0	n/a	n/a	n/a	n/a	n/a
3224750	RECOG_RESP	n/a	LTP086	ltpFR	3	8	0	TANGERINE	1431	n/a	0	n/a	n/a	n/a	n/a	n/a
3225284	RECOG_CONF	n/a	LTP086	ltpFR	3	8	0	TANGERINE	1431	5	0	n/a	n/a	n/a	n/a	n/a
3226577	RECOG_LURE	n/a	LTP086	ltpFR	3	8	n/a	PATRIOT	1026	5	n/a	n/a	n/a	n/a	n/a	n/a
3227165	RECOG_RESP	n/a	LTP086	ltpFR	3	8	n/a	PATRIOT	1026	n/a	n/a	n/a	n/a	n/a	n/a	n/a
3227629	RECOG_CONF	n/a	LTP086	ltpFR	3	8	n/a	PATRIOT	1026	5	n/a	n/a	n/a	n/a	n/a	n/a
3228943	RECOG_TARGET	n/a	LTP086	ltpFR	3	8	0	TWISTER	1530	5	1	n/a	n/a	n/a	n/a	n/a
3229360	RECOG_RESP	n/a	LTP086	ltpFR	3	8	0	TWISTER	1530	n/a	1	n/a	n/a	n/a	n/a	n/a
3229824	RECOG_CONF	n/a	LTP086	ltpFR	3	8	0	TWISTER	1530	5	1	n/a	n/a	n/a	n/a	n/a
3231076	RECOG_LURE	n/a	LTP086	ltpFR	3	8	n/a	SCHOOL	1248	4	n/a	n/a	n/a	n/a	n/a	n/a
3231545	RECOG_RESP	n/a	LTP086	ltpFR	3	8	n/a	SCHOOL	1248	n/a	n/a	n/a	n/a	n/a	n/a	n/a
3232009	RECOG_CONF	n/a	LTP086	ltpFR	3	8	n/a	SCHOOL	1248	4	n/a	n/a	n/a	n/a	n/a	n/a
3233442	RECOG_TARGET	n/a	LTP086	ltpFR	3	8	1	NEWSSTAND	949	5	1	n/a	n/a	n/a	n/a	n/a
3234240	RECOG_RESP	n/a	LTP086	ltpFR	3	8	1	NEWSSTAND	949	n/a	1	n/a	n/a	n/a	n/a	n/a
3234751	RECOG_CONF	n/a	LTP086	ltpFR	3	8	1	NEWSSTAND	949	5	1	n/a	n/a	n/a	n/a	n/a
3236234	RECOG_LURE	n/a	LTP086	ltpFR	3	8	n/a	TROUSERS	1510	5	n/a	n/a	n/a	n/a	n/a	n/a
3236713	RECOG_RESP	n/a	LTP086	ltpFR	3	8	n/a	TROUSERS	1510	n/a	n/a	n/a	n/a	n/a	n/a	n/a
3237177	RECOG_CONF	n/a	LTP086	ltpFR	3	8	n/a	TROUSERS	1510	5	n/a	n/a	n/a	n/a	n/a	n/a
3238543	RECOG_LURE	n/a	LTP086	ltpFR	3	8	n/a	PARSLEY	1016	5	n/a	n/a	n/a	n/a	n/a	n/a
3238978	RECOG_RESP_VV	n/a	LTP086	ltpFR	3	8	n/a	PARSLEY	1016	n/a	n/a	n/a	n/a	n/a	n/a	n/a
3239419	RECOG_RESP	n/a	LTP086	ltpFR	3	8	n/a	PARSLEY	1016	n/a	n/a	n/a	n/a	n/a	n/a	n/a
3240000	RECOG_CONF	n/a	LTP086	ltpFR	3	8	n/a	PARSLEY	1016	5	n/a	n/a	n/a	n/a	n/a	n/a
3241333	RECOG_TARGET	n/a	LTP086	ltpFR	3	8	0	MATCH	878	5	1	n/a	n/a	n/a	n/a	n/a
3241861	RECOG_RESP	n/a	LTP086	ltpFR	3	8	0	MATCH	878	n/a	1	n/a	n/a	n/a	n/a	n/a
3242418	RECOG_CONF	n/a	LTP086	ltpFR	3	8	0	MATCH	878	5	1	n/a	n/a	n/a	n/a	n/a
3243692	RECOG_TARGET	n/a	LTP086	ltpFR	3	8	0	ACID	2	5	1	n/a	n/a	n/a	n/a	n/a
3244091	RECOG_RESP	n/a	LTP086	ltpFR	3	8	0	ACID	2	n/a	1	n/a	n/a	n/a	n/a	n/a
3244434	RECOG_CONF	n/a	LTP086	ltpFR	3	8	0	ACID	2	5	1	n/a	n/a	n/a	n/a	n/a
3245784	RECOG_LURE	n/a	LTP086	ltpFR	3	8	n/a	DART	440	5	n/a	n/a	n/a	n/a	n/a	n/a
3246281	RECOG_RESP	n/a	LTP086	ltpFR	3	8	n/a	DART	440	n/a	n/a	n/a	n/a	n/a	n/a	n/a
3246629	RECOG_CONF	n/a	LTP086	ltpFR	3	8	n/a	DART	440	5	n/a	n/a	n/a	n/a	n/a	n/a
3248008	RECOG_TARGET	n/a	LTP086	ltpFR	3	8	0	LIME	823	5	1	n/a	n/a	n/a	n/a	n/a
3248427	RECOG_RESP	n/a	LTP086	ltpFR	3	8	0	LIME	823	n/a	1	n/a	n/a	n/a	n/a	n/a
3248868	RECOG_CONF	n/a	LTP086	ltpFR	3	8	0	LIME	823	5	1	n/a	n/a	n/a	n/a	n/a
3250249	RECOG_TARGET	n/a	LTP086	ltpFR	3	8	1	WORM	1623	5	1	n/a	n/a	n/a	n/a	n/a
3250711	RECOG_RESP	n/a	LTP086	ltpFR	3	8	1	WORM	1623	n/a	1	n/a	n/a	n/a	n/a	n/a
3251199	RECOG_CONF	n/a	LTP086	ltpFR	3	8	1	WORM	1623	5	1	n/a	n/a	n/a	n/a	n/a
3252499	RECOG_LURE	n/a	LTP086	ltpFR	3	8	n/a	CUE	422	4	n/a	n/a	n/a	n/a	n/a	n/a
3253121	RECOG_RESP	n/a	LTP086	ltpFR	3	8	n/a	CUE	422	n/a	n/a	n/a	n/a	n/a	n/a	n/a
3253609	RECOG_CONF	n/a	LTP086	ltpFR	3	8	n/a	CUE	422	4	n/a	n/a	n/a	n/a	n/a	n/a
3255007	RECOG_TARGET	n/a	LTP086	ltpFR	3	8	0	DOVE	491	5	1	n/a	n/a	n/a	n/a	n/a
3255520	RECOG_RESP	n/a	LTP086	ltpFR	3	8	0	DOVE	491	n/a	1	n/a	n/a	n/a	n/a	n/a
3255984	RECOG_CONF	n/a	LTP086	ltpFR	3	8	0	DOVE	491	5	1	n/a	n/a	n/a	n/a	n/a
3257432	RECOG_LURE	n/a	LTP086	ltpFR	3	8	n/a	ASH	44	1	n/a	n/a	n/a	n/a	n/a	n/a
3257755	RECOG_RESP	n/a	LTP086	ltpFR	3	8	n/a	ASH	44	n/a	n/a	n/a	n/a	n/a	n/a	n/a
3258266	RECOG_CONF	n/a	LTP086	ltpFR	3	8	n/a	ASH	44	1	n/a	n/a	n/a	n/a	n/a	n/a
3259499	RECOG_LURE	n/a	LTP086	ltpFR	3	8	n/a	LOOP	844	2	n/a	n/a	n/a	n/a	n/a	n/a
3259940	RECOG_RESP_VV	n/a	LTP086	ltpFR	3	8	n/a	LOOP	844	n/a	n/a	n/a	n/a	n/a	n/a	n/a
3260522	RECOG_RESP	n/a	LTP086	ltpFR	3	8	n/a	LOOP	844	n/a	n/a	n/a	n/a	n/a	n/a	n/a
3261128	RECOG_CONF	n/a	LTP086	ltpFR	3	8	n/a	LOOP	844	2	n/a	n/a	n/a	n/a	n/a	n/a
3269075	REC_START	n/a	LTP086	ltpFR	3	9	n/a	n/a	n/a	n/a	n/a	n/a	n/a	n/a	n/a	n/a
3269106	RECOG_LURE	n/a	LTP086	ltpFR	3	9	n/a	CANOE	233	4	n/a	n/a	n/a	n/a	n/a	n/a
3269972	RECOG_RESP	n/a	LTP086	ltpFR	3	9	n/a	CANOE	233	n/a	n/a	n/a	n/a	n/a	n/a	n/a
3270497	RECOG_CONF	n/a	LTP086	ltpFR	3	9	n/a	CANOE	233	4	n/a	n/a	n/a	n/a	n/a	n/a
3271889	RECOG_LURE	n/a	LTP086	ltpFR	3	9	n/a	GHOST	634	2	n/a	n/a	n/a	n/a	n/a	n/a
3272352	RECOG_RESP	n/a	LTP086	ltpFR	3	9	n/a	GHOST	634	n/a	n/a	n/a	n/a	n/a	n/a	n/a
3272979	RECOG_CONF	n/a	LTP086	ltpFR	3	9	n/a	GHOST	634	2	n/a	n/a	n/a	n/a	n/a	n/a
3274665	RECOG_TARGET	n/a	LTP086	ltpFR	3	9	1	CROSS	413	5	1	n/a	n/a	n/a	n/a	n/a
3275156	RECOG_RESP	n/a	LTP086	ltpFR	3	9	1	CROSS	413	n/a	1	n/a	n/a	n/a	n/a	n/a
3275667	RECOG_CONF	n/a	LTP086	ltpFR	3	9	1	CROSS	413	5	1	n/a	n/a	n/a	n/a	n/a
3276972	RECOG_TARGET	n/a	LTP086	ltpFR	3	9	1	HAY	693	5	1	n/a	n/a	n/a	n/a	n/a
3277351	RECOG_RESP	n/a	LTP086	ltpFR	3	9	1	HAY	693	n/a	1	n/a	n/a	n/a	n/a	n/a
3277830	RECOG_CONF	n/a	LTP086	ltpFR	3	9	1	HAY	693	5	1	n/a	n/a	n/a	n/a	n/a
3279089	RECOG_LURE	n/a	LTP086	ltpFR	3	9	n/a	COPIER	377	5	n/a	n/a	n/a	n/a	n/a	n/a
3279486	RECOG_RESP	n/a	LTP086	ltpFR	3	9	n/a	COPIER	377	n/a	n/a	n/a	n/a	n/a	n/a	n/a
3279992	RECOG_CONF	n/a	LTP086	ltpFR	3	9	n/a	COPIER	377	5	n/a	n/a	n/a	n/a	n/a	n/a
3281255	RECOG_LURE	n/a	LTP086	ltpFR	3	9	n/a	ANTENNA	28	5	n/a	n/a	n/a	n/a	n/a	n/a
3281881	RECOG_RESP	n/a	LTP086	ltpFR	3	9	n/a	ANTENNA	28	n/a	n/a	n/a	n/a	n/a	n/a	n/a
3282485	RECOG_CONF	n/a	LTP086	ltpFR	3	9	n/a	ANTENNA	28	5	n/a	n/a	n/a	n/a	n/a	n/a
3283548	RECOG_LURE	n/a	LTP086	ltpFR	3	9	n/a	TIE	1466	4	n/a	n/a	n/a	n/a	n/a	n/a
3284136	RECOG_RESP	n/a	LTP086	ltpFR	3	9	n/a	TIE	1466	n/a	n/a	n/a	n/a	n/a	n/a	n/a
3284577	RECOG_CONF	n/a	LTP086	ltpFR	3	9	n/a	TIE	1466	4	n/a	n/a	n/a	n/a	n/a	n/a
3285831	RECOG_LURE	n/a	LTP086	ltpFR	3	9	n/a	GALLON	618	5	n/a	n/a	n/a	n/a	n/a	n/a
3286390	RECOG_RESP	n/a	LTP086	ltpFR	3	9	n/a	GALLON	618	n/a	n/a	n/a	n/a	n/a	n/a	n/a
3286762	RECOG_CONF	n/a	LTP086	ltpFR	3	9	n/a	GALLON	618	5	n/a	n/a	n/a	n/a	n/a	n/a
3288180	RECOG_LURE	n/a	LTP086	ltpFR	3	9	n/a	PLAYGROUND	1087	2	n/a	n/a	n/a	n/a	n/a	n/a
3288635	RECOG_RESP	n/a	LTP086	ltpFR	3	9	n/a	PLAYGROUND	1087	n/a	n/a	n/a	n/a	n/a	n/a	n/a
3289053	RECOG_CONF	n/a	LTP086	ltpFR	3	9	n/a	PLAYGROUND	1087	2	n/a	n/a	n/a	n/a	n/a	n/a
3290504	RECOG_TARGET	n/a	LTP086	ltpFR	3	9	-1	CARD	243	1	-1	n/a	n/a	n/a	n/a	n/a
3290910	RECOG_RESP	n/a	LTP086	ltpFR	3	9	-1	CARD	243	n/a	-1	n/a	n/a	n/a	n/a	n/a
3291444	RECOG_CONF	n/a	LTP086	ltpFR	3	9	-1	CARD	243	1	-1	n/a	n/a	n/a	n/a	n/a
3292664	RECOG_LURE	n/a	LTP086	ltpFR	3	9	n/a	PUBLISHER	1137	1	n/a	n/a	n/a	n/a	n/a	n/a
3293115	RECOG_RESP	n/a	LTP086	ltpFR	3	9	n/a	PUBLISHER	1137	n/a	n/a	n/a	n/a	n/a	n/a	n/a
3293649	RECOG_CONF	n/a	LTP086	ltpFR	3	9	n/a	PUBLISHER	1137	1	n/a	n/a	n/a	n/a	n/a	n/a
3294789	RECOG_TARGET	n/a	LTP086	ltpFR	3	9	0	FILM	565	5	1	n/a	n/a	n/a	n/a	n/a
3295310	RECOG_RESP	n/a	LTP086	ltpFR	3	9	0	FILM	565	n/a	1	n/a	n/a	n/a	n/a	n/a
3295774	RECOG_CONF	n/a	LTP086	ltpFR	3	9	0	FILM	565	5	1	n/a	n/a	n/a	n/a	n/a
3297104	RECOG_TARGET	n/a	LTP086	ltpFR	3	9	0	TUB	1514	5	1	n/a	n/a	n/a	n/a	n/a
3297505	RECOG_RESP	n/a	LTP086	ltpFR	3	9	0	TUB	1514	n/a	1	n/a	n/a	n/a	n/a	n/a
3297969	RECOG_CONF	n/a	LTP086	ltpFR	3	9	0	TUB	1514	5	1	n/a	n/a	n/a	n/a	n/a
3299312	RECOG_LURE	n/a	LTP086	ltpFR	3	9	n/a	RAILROAD	1162	1	n/a	n/a	n/a	n/a	n/a	n/a
3299730	RECOG_RESP	n/a	LTP086	ltpFR	3	9	n/a	RAILROAD	1162	n/a	n/a	n/a	n/a	n/a	n/a	n/a
3300194	RECOG_CONF	n/a	LTP086	ltpFR	3	9	n/a	RAILROAD	1162	1	n/a	n/a	n/a	n/a	n/a	n/a
3301571	RECOG_TARGET	n/a	LTP086	ltpFR	3	9	0	SCREEN	1253	4	1	n/a	n/a	n/a	n/a	n/a
3302075	RECOG_RESP	n/a	LTP086	ltpFR	3	9	0	SCREEN	1253	n/a	1	n/a	n/a	n/a	n/a	n/a
3302516	RECOG_CONF	n/a	LTP086	ltpFR	3	9	0	SCREEN	1253	4	1	n/a	n/a	n/a	n/a	n/a
3304095	RECOG_TARGET	n/a	LTP086	ltpFR	3	9	1	PEDESTRIAN	1038	5	1	n/a	n/a	n/a	n/a	n/a
3304659	RECOG_RESP	n/a	LTP086	ltpFR	3	9	1	PEDESTRIAN	1038	n/a	1	n/a	n/a	n/a	n/a	n/a
3305147	RECOG_CONF	n/a	LTP086	ltpFR	3	9	1	PEDESTRIAN	1038	5	1	n/a	n/a	n/a	n/a	n/a
3306445	RECOG_TARGET	n/a	LTP086	ltpFR	3	9	-1	ENGINE	535	5	-1	n/a	n/a	n/a	n/a	n/a
3306889	RECOG_RESP	n/a	LTP086	ltpFR	3	9	-1	ENGINE	535	n/a	-1	n/a	n/a	n/a	n/a	n/a
3307382	RECOG_CONF	n/a	LTP086	ltpFR	3	9	-1	ENGINE	535	5	-1	n/a	n/a	n/a	n/a	n/a
3308762	RECOG_LURE	n/a	LTP086	ltpFR	3	9	n/a	VIDEO	1564	4	n/a	n/a	n/a	n/a	n/a	n/a
3309422	RECOG_RESP	n/a	LTP086	ltpFR	3	9	n/a	VIDEO	1564	n/a	n/a	n/a	n/a	n/a	n/a	n/a
3309980	RECOG_CONF	n/a	LTP086	ltpFR	3	9	n/a	VIDEO	1564	4	n/a	n/a	n/a	n/a	n/a	n/a
3311261	RECOG_LURE	n/a	LTP086	ltpFR	3	9	n/a	COUSIN	392	2	n/a	n/a	n/a	n/a	n/a	n/a
3311828	RECOG_RESP	n/a	LTP086	ltpFR	3	9	n/a	COUSIN	392	n/a	n/a	n/a	n/a	n/a	n/a	n/a
3312344	RECOG_CONF	n/a	LTP086	ltpFR	3	9	n/a	COUSIN	392	2	n/a	n/a	n/a	n/a	n/a	n/a
3313554	RECOG_TARGET	n/a	LTP086	ltpFR	3	9	1	GALAXY	617	5	1	n/a	n/a	n/a	n/a	n/a
3314122	RECOG_RESP	n/a	LTP086	ltpFR	3	9	1	GALAXY	617	n/a	1	n/a	n/a	n/a	n/a	n/a
3314661	RECOG_CONF	n/a	LTP086	ltpFR	3	9	1	GALAXY	617	5	1	n/a	n/a	n/a	n/a	n/a
3318696	REC_START	n/a	LTP086	ltpFR	3	10	n/a	n/a	n/a	n/a	n/a	n/a	n/a	n/a	n/a	n/a
3318728	RECOG_LURE	n/a	LTP086	ltpFR	3	10	n/a	INTESTINE	742	4	n/a	n/a	n/a	n/a	n/a	n/a
3319180	RECOG_RESP	n/a	LTP086	ltpFR	3	10	n/a	INTESTINE	742	n/a	n/a	n/a	n/a	n/a	n/a	n/a
3319714	RECOG_CONF	n/a	LTP086	ltpFR	3	10	n/a	INTESTINE	742	4	n/a	n/a	n/a	n/a	n/a	n/a
3321002	RECOG_TARGET	n/a	LTP086	ltpFR	3	10	1	HIKER	708	5	1	n/a	n/a	n/a	n/a	n/a
3321617	RECOG_RESP	n/a	LTP086	ltpFR	3	10	1	HIKER	708	n/a	1	n/a	n/a	n/a	n/a	n/a
3322151	RECOG_CONF	n/a	LTP086	ltpFR	3	10	1	HIKER	708	5	1	n/a	n/a	n/a	n/a	n/a
3323452	RECOG_LURE	n/a	LTP086	ltpFR	3	10	n/a	FROST	609	4	n/a	n/a	n/a	n/a	n/a	n/a
3323944	RECOG_RESP	n/a	LTP086	ltpFR	3	10	n/a	FROST	609	n/a	n/a	n/a	n/a	n/a	n/a	n/a
3324413	RECOG_CONF	n/a	LTP086	ltpFR	3	10	n/a	FROST	609	4	n/a	n/a	n/a	n/a	n/a	n/a
3325661	RECOG_LURE	n/a	LTP086	ltpFR	3	10	n/a	SALMON	1227	2	n/a	n/a	n/a	n/a	n/a	n/a
3326304	RECOG_RESP	n/a	LTP086	ltpFR	3	10	n/a	SALMON	1227	n/a	n/a	n/a	n/a	n/a	n/a	n/a
3326745	RECOG_CONF	n/a	LTP086	ltpFR	3	10	n/a	SALMON	1227	2	n/a	n/a	n/a	n/a	n/a	n/a
3328052	RECOG_TARGET	n/a	LTP086	ltpFR	3	10	1	GRIZZLY	662	5	1	n/a	n/a	n/a	n/a	n/a
3328633	RECOG_RESP	n/a	LTP086	ltpFR	3	10	1	GRIZZLY	662	n/a	1	n/a	n/a	n/a	n/a	n/a
3329149	RECOG_CONF	n/a	LTP086	ltpFR	3	10	1	GRIZZLY	662	5	1	n/a	n/a	n/a	n/a	n/a
3330468	RECOG_LURE	n/a	LTP086	ltpFR	3	10	n/a	PAIL	1002	2	n/a	n/a	n/a	n/a	n/a	n/a
3330928	RECOG_RESP	n/a	LTP086	ltpFR	3	10	n/a	PAIL	1002	n/a	n/a	n/a	n/a	n/a	n/a	n/a
3331502	RECOG_CONF	n/a	LTP086	ltpFR	3	10	n/a	PAIL	1002	2	n/a	n/a	n/a	n/a	n/a	n/a
3332736	RECOG_LURE	n/a	LTP086	ltpFR	3	10	n/a	SERGEANT	1269	1	n/a	n/a	n/a	n/a	n/a	n/a
3333208	RECOG_RESP	n/a	LTP086	ltpFR	3	10	n/a	SERGEANT	1269	n/a	n/a	n/a	n/a	n/a	n/a	n/a
3333742	RECOG_CONF	n/a	LTP086	ltpFR	3	10	n/a	SERGEANT	1269	1	n/a	n/a	n/a	n/a	n/a	n/a
3335051	RECOG_LURE	n/a	LTP086	ltpFR	3	10	n/a	PANTHER	1009	1	n/a	n/a	n/a	n/a	n/a	n/a
3335413	RECOG_RESP	n/a	LTP086	ltpFR	3	10	n/a	PANTHER	1009	n/a	n/a	n/a	n/a	n/a	n/a	n/a
3336202	RECOG_CONF	n/a	LTP086	ltpFR	3	10	n/a	PANTHER	1009	1	n/a	n/a	n/a	n/a	n/a	n/a
