onset	duration	trial_type	sample	stim_file	subject	experiment	session	trial	task	item_name	item_num	recog_resp	recog_conf	resp	answer	test_x	test_y	test_z	color_r	color_g	color_b	case	font
238.96	n/a	SESS_START	119480	n/a	LTP198	ltpFR	11	n/a	n/a	n/a	n/a	1	2	n/a	n/a	0	0	0	n/a	n/a	n/a	n/a	n/a
272.444	n/a	START	136222	n/a	LTP198	ltpFR	11	n/a	n/a	n/a	n/a	n/a	n/a	n/a	n/a	n/a	n/a	n/a	n/a	n/a	n/a	n/a	n/a
272.492	n/a	PROB	136246	n/a	LTP198	ltpFR	11	n/a	n/a	n/a	n/a	n/a	n/a	n/a	18	9	4	5	n/a	n/a	n/a	n/a	n/a
275.872	n/a	PROB	137936	n/a	LTP198	ltpFR	11	n/a	n/a	n/a	n/a	n/a	n/a	n/a	11	2	2	7	n/a	n/a	n/a	n/a	n/a
277.88	n/a	PROB	138940	n/a	LTP198	ltpFR	11	n/a	n/a	n/a	n/a	n/a	n/a	n/a	10	3	3	4	n/a	n/a	n/a	n/a	n/a
279.78	n/a	PROB	139890	n/a	LTP198	ltpFR	11	n/a	n/a	n/a	n/a	n/a	n/a	n/a	12	3	7	2	n/a	n/a	n/a	n/a	n/a
281.144	n/a	PROB	140572	n/a	LTP198	ltpFR	11	n/a	n/a	n/a	n/a	n/a	n/a	n/a	20	8	4	8	n/a	n/a	n/a	n/a	n/a
283.196	n/a	PROB	141598	n/a	LTP198	ltpFR	11	n/a	n/a	n/a	n/a	n/a	n/a	n/a	17	5	4	8	n/a	n/a	n/a	n/a	n/a
285.068	n/a	PROB	142534	n/a	LTP198	ltpFR	11	n/a	n/a	n/a	n/a	n/a	n/a	n/a	22	8	9	5	n/a	n/a	n/a	n/a	n/a
289.686	n/a	PROB	144843	n/a	LTP198	ltpFR	11	n/a	n/a	n/a	n/a	n/a	n/a	n/a	13	3	2	8	n/a	n/a	n/a	n/a	n/a
291.82	n/a	STOP	145910	n/a	LTP198	ltpFR	11	n/a	n/a	n/a	n/a	n/a	n/a	n/a	n/a	n/a	n/a	n/a	n/a	n/a	n/a	n/a	n/a
330.448	n/a	WORD	165224	wordpools/wasnorm_wordpool_less_exclusions.txt	LTP198	ltpFR	11	1	0	BASEBALL	93	0	n/a	0	n/a	0	0	0	0.422607421875	0.5869140625	0	upper	zerothre.ttf
334.446	n/a	WORD	167223	wordpools/wasnorm_wordpool_less_exclusions.txt	LTP198	ltpFR	11	1	0	FOOTBALL	591	n/a	n/a	0	n/a	0	0	0	0.422607421875	0.5869140625	0	upper	zerothre.ttf
338.356	n/a	WORD	169178	wordpools/wasnorm_wordpool_less_exclusions.txt	LTP198	ltpFR	11	1	0	HERD	705	n/a	n/a	1	n/a	0	0	0	0.422607421875	0.5869140625	0	upper	zerothre.ttf
342.238	n/a	WORD	171119	wordpools/wasnorm_wordpool_less_exclusions.txt	LTP198	ltpFR	11	1	0	CAGE	218	n/a	n/a	1	n/a	0	0	0	0.422607421875	0.5869140625	0	upper	zerothre.ttf
346.302	n/a	WORD	173151	wordpools/wasnorm_wordpool_less_exclusions.txt	LTP198	ltpFR	11	1	1	PAN	1008	n/a	n/a	1	n/a	0	0	0	0.57763671875	0.412841796875	1	lower	amplitud.ttf
350.4	n/a	WORD	175200	wordpools/wasnorm_wordpool_less_exclusions.txt	LTP198	ltpFR	11	1	1	CORPORATION	382	n/a	n/a	0	n/a	0	0	0	0.57763671875	0.412841796875	1	lower	amplitud.ttf
354.322	n/a	WORD	177161	wordpools/wasnorm_wordpool_less_exclusions.txt	LTP198	ltpFR	11	1	1	PEOPLE	1046	n/a	n/a	1	n/a	0	0	0	0.57763671875	0.412841796875	1	lower	amplitud.ttf
358.454	n/a	WORD	179227	wordpools/wasnorm_wordpool_less_exclusions.txt	LTP198	ltpFR	11	1	1	DIAGRAM	456	n/a	n/a	0	n/a	0	0	0	0.57763671875	0.412841796875	1	lower	amplitud.ttf
362.62	n/a	WORD	181310	wordpools/wasnorm_wordpool_less_exclusions.txt	LTP198	ltpFR	11	1	1	CHART	282	n/a	n/a	0	n/a	0	0	0	0.57763671875	0.412841796875	1	lower	amplitud.ttf
366.602	n/a	WORD	183301	wordpools/wasnorm_wordpool_less_exclusions.txt	LTP198	ltpFR	11	1	0	GRILL	661	n/a	n/a	1	n/a	0	0	0	0.422607421875	0.5869140625	0	upper	zerothre.ttf
370.55	n/a	WORD	185275	wordpools/wasnorm_wordpool_less_exclusions.txt	LTP198	ltpFR	11	1	0	BANKER	84	n/a	n/a	1	n/a	0	0	0	0.422607421875	0.5869140625	0	upper	zerothre.ttf
374.482	n/a	WORD	187241	wordpools/wasnorm_wordpool_less_exclusions.txt	LTP198	ltpFR	11	1	1	HUMAN	726	n/a	n/a	0	n/a	0	0	0	0.57763671875	0.412841796875	1	lower	amplitud.ttf
378.514	n/a	WORD	189257	wordpools/wasnorm_wordpool_less_exclusions.txt	LTP198	ltpFR	11	1	1	BRAN	167	n/a	n/a	0	n/a	0	0	0	0.57763671875	0.412841796875	1	lower	amplitud.ttf
382.514	n/a	WORD	191257	wordpools/wasnorm_wordpool_less_exclusions.txt	LTP198	ltpFR	11	1	1	DOLLAR	482	n/a	n/a	0	n/a	0	0	0	0.57763671875	0.412841796875	1	lower	amplitud.ttf
386.662	n/a	WORD	193331	wordpools/wasnorm_wordpool_less_exclusions.txt	LTP198	ltpFR	11	1	0	BLANKET	135	n/a	n/a	0	n/a	0	0	0	0.422607421875	0.5869140625	0	upper	zerothre.ttf
390.872	n/a	WORD	195436	wordpools/wasnorm_wordpool_less_exclusions.txt	LTP198	ltpFR	11	1	0	EAGLE	512	n/a	n/a	0	n/a	0	0	0	0.422607421875	0.5869140625	0	upper	zerothre.ttf
393.884	n/a	START	196942	n/a	LTP198	ltpFR	11	n/a	n/a	n/a	n/a	n/a	n/a	n/a	n/a	n/a	n/a	n/a	n/a	n/a	n/a	n/a	n/a
394.994	n/a	PROB	197497	n/a	LTP198	ltpFR	11	n/a	n/a	n/a	n/a	n/a	n/a	n/a	14	3	9	2	n/a	n/a	n/a	n/a	n/a
397.554	n/a	PROB	198777	n/a	LTP198	ltpFR	11	n/a	n/a	n/a	n/a	n/a	n/a	n/a	12	2	1	9	n/a	n/a	n/a	n/a	n/a
398.954	n/a	PROB	199477	n/a	LTP198	ltpFR	11	n/a	n/a	n/a	n/a	n/a	n/a	n/a	21	9	4	8	n/a	n/a	n/a	n/a	n/a
400.89	n/a	STOP	200445	n/a	LTP198	ltpFR	11	n/a	n/a	n/a	n/a	n/a	n/a	n/a	n/a	n/a	n/a	n/a	n/a	n/a	n/a	n/a	n/a
403.722	n/a	REC_START	201861	n/a	LTP198	ltpFR	11	1	n/a	n/a	n/a	n/a	n/a	n/a	n/a	0	0	0	n/a	n/a	n/a	n/a	n/a
404.216	n/a	REC_WORD	202108	wordpools/wasnorm_wordpool_less_exclusions.txt	LTP198	ltpFR	11	1	0	EAGLE	512	n/a	n/a	0	n/a	0	0	0	n/a	n/a	n/a	n/a	n/a
405.02	n/a	REC_WORD	202510	wordpools/wasnorm_wordpool_less_exclusions.txt	LTP198	ltpFR	11	1	0	BLANKET	135	n/a	n/a	0	n/a	0	0	0	n/a	n/a	n/a	n/a	n/a
405.782	n/a	REC_WORD	202891	wordpools/wasnorm_wordpool_less_exclusions.txt	LTP198	ltpFR	11	1	0	FOOTBALL	591	n/a	n/a	0	n/a	0	0	0	n/a	n/a	n/a	n/a	n/a
406.606	n/a	REC_WORD	203303	wordpools/wasnorm_wordpool_less_exclusions.txt	LTP198	ltpFR	11	1	n/a	SOFTBALL	1343	n/a	n/a	n/a	n/a	0	0	0	n/a	n/a	n/a	n/a	n/a
407.958	n/a	REC_WORD	203979	wordpools/wasnorm_wordpool_less_exclusions.txt	LTP198	ltpFR	11	1	0	CAGE	218	n/a	n/a	1	n/a	0	0	0	n/a	n/a	n/a	n/a	n/a
408.97	n/a	REC_WORD	204485	wordpools/wasnorm_wordpool_less_exclusions.txt	LTP198	ltpFR	11	1	0	GRILL	661	n/a	n/a	1	n/a	0	0	0	n/a	n/a	n/a	n/a	n/a
409.844	n/a	REC_WORD	204922	wordpools/wasnorm_wordpool_less_exclusions.txt	LTP198	ltpFR	11	1	1	CORPORATION	382	n/a	n/a	0	n/a	0	0	0	n/a	n/a	n/a	n/a	n/a
411.07	n/a	REC_WORD	205535	wordpools/wasnorm_wordpool_less_exclusions.txt	LTP198	ltpFR	11	1	0	HERD	705	n/a	n/a	1	n/a	0	0	0	n/a	n/a	n/a	n/a	n/a
412.588	n/a	REC_WORD	206294	wordpools/wasnorm_wordpool_less_exclusions.txt	LTP198	ltpFR	11	1	1	PEOPLE	1046	n/a	n/a	1	n/a	0	0	0	n/a	n/a	n/a	n/a	n/a
413.516	n/a	REC_WORD	206758	wordpools/wasnorm_wordpool_less_exclusions.txt	LTP198	ltpFR	11	1	1	HUMAN	726	n/a	n/a	0	n/a	0	0	0	n/a	n/a	n/a	n/a	n/a
416.424	n/a	REC_WORD	208212	wordpools/wasnorm_wordpool_less_exclusions.txt	LTP198	ltpFR	11	1	1	BRAN	167	n/a	n/a	0	n/a	0	0	0	n/a	n/a	n/a	n/a	n/a
425.882	n/a	REC_WORD	212941	wordpools/wasnorm_wordpool_less_exclusions.txt	LTP198	ltpFR	11	1	0	BANKER	84	n/a	n/a	1	n/a	0	0	0	n/a	n/a	n/a	n/a	n/a
465.918	n/a	REC_WORD	232959	wordpools/wasnorm_wordpool_less_exclusions.txt	LTP198	ltpFR	11	1	1	DOLLAR	482	n/a	n/a	0	n/a	0	0	0	n/a	n/a	n/a	n/a	n/a
481.402	n/a	START	240701	n/a	LTP198	ltpFR	11	n/a	n/a	n/a	n/a	n/a	n/a	n/a	n/a	n/a	n/a	n/a	n/a	n/a	n/a	n/a	n/a
482.914	n/a	PROB	241457	n/a	LTP198	ltpFR	11	n/a	n/a	n/a	n/a	n/a	n/a	n/a	5	1	2	2	n/a	n/a	n/a	n/a	n/a
484.814	n/a	PROB	242407	n/a	LTP198	ltpFR	11	n/a	n/a	n/a	n/a	n/a	n/a	n/a	15	8	2	5	n/a	n/a	n/a	n/a	n/a
486.388	n/a	PROB	243194	n/a	LTP198	ltpFR	11	n/a	n/a	n/a	n/a	n/a	n/a	n/a	11	1	4	6	n/a	n/a	n/a	n/a	n/a
489.404	n/a	STOP	244702	n/a	LTP198	ltpFR	11	n/a	n/a	n/a	n/a	n/a	n/a	n/a	n/a	n/a	n/a	n/a	n/a	n/a	n/a	n/a	n/a
490.27	n/a	WORD	245135	wordpools/wasnorm_wordpool_less_exclusions.txt	LTP198	ltpFR	11	2	0	HIKER	708	n/a	n/a	1	n/a	0	0	0	0.422607421875	0.5869140625	0	upper	zerothre.ttf
493.288	n/a	START	246644	n/a	LTP198	ltpFR	11	n/a	n/a	n/a	n/a	n/a	n/a	n/a	n/a	n/a	n/a	n/a	n/a	n/a	n/a	n/a	n/a
494.268	n/a	PROB	247134	n/a	LTP198	ltpFR	11	n/a	n/a	n/a	n/a	n/a	n/a	n/a	18	7	8	3	n/a	n/a	n/a	n/a	n/a
495.98	n/a	PROB	247990	n/a	LTP198	ltpFR	11	n/a	n/a	n/a	n/a	n/a	n/a	n/a	21	4	9	8	n/a	n/a	n/a	n/a	n/a
497.982	n/a	PROB	248991	n/a	LTP198	ltpFR	11	n/a	n/a	n/a	n/a	n/a	n/a	n/a	18	7	4	9	n/a	n/a	n/a	n/a	n/a
500.512	n/a	STOP	250256	n/a	LTP198	ltpFR	11	n/a	n/a	n/a	n/a	n/a	n/a	n/a	n/a	n/a	n/a	n/a	n/a	n/a	n/a	n/a	n/a
502.472	n/a	WORD	251236	wordpools/wasnorm_wordpool_less_exclusions.txt	LTP198	ltpFR	11	2	0	OPERATOR	979	n/a	n/a	1	n/a	0	0	0	0.422607421875	0.5869140625	0	upper	zerothre.ttf
505.484	n/a	START	252742	n/a	LTP198	ltpFR	11	n/a	n/a	n/a	n/a	n/a	n/a	n/a	n/a	n/a	n/a	n/a	n/a	n/a	n/a	n/a	n/a
506.514	n/a	PROB	253257	n/a	LTP198	ltpFR	11	n/a	n/a	n/a	n/a	n/a	n/a	n/a	10	2	7	1	n/a	n/a	n/a	n/a	n/a
507.786	n/a	PROB	253893	n/a	LTP198	ltpFR	11	n/a	n/a	n/a	n/a	n/a	n/a	n/a	10	2	7	1	n/a	n/a	n/a	n/a	n/a
513.484	n/a	STOP	256742	n/a	LTP198	ltpFR	11	n/a	n/a	n/a	n/a	n/a	n/a	n/a	n/a	n/a	n/a	n/a	n/a	n/a	n/a	n/a	n/a
514.678	n/a	WORD	257339	wordpools/wasnorm_wordpool_less_exclusions.txt	LTP198	ltpFR	11	2	0	TRIBE	1505	n/a	n/a	1	n/a	0	0	0	0.422607421875	0.5869140625	0	upper	zerothre.ttf
517.69	n/a	START	258845	n/a	LTP198	ltpFR	11	n/a	n/a	n/a	n/a	n/a	n/a	n/a	n/a	n/a	n/a	n/a	n/a	n/a	n/a	n/a	n/a
518.55	n/a	PROB	259275	n/a	LTP198	ltpFR	11	n/a	n/a	n/a	n/a	n/a	n/a	n/a	13	8	2	3	n/a	n/a	n/a	n/a	n/a
519.948	n/a	PROB	259974	n/a	LTP198	ltpFR	11	n/a	n/a	n/a	n/a	n/a	n/a	n/a	20	3	8	9	n/a	n/a	n/a	n/a	n/a
522.04	n/a	PROB	261020	n/a	LTP198	ltpFR	11	n/a	n/a	n/a	n/a	n/a	n/a	n/a	18	9	7	2	n/a	n/a	n/a	n/a	n/a
523.92	n/a	PROB	261960	n/a	LTP198	ltpFR	11	n/a	n/a	n/a	n/a	n/a	n/a	n/a	15	3	9	3	n/a	n/a	n/a	n/a	n/a
525.576	n/a	STOP	262788	n/a	LTP198	ltpFR	11	n/a	n/a	n/a	n/a	n/a	n/a	n/a	n/a	n/a	n/a	n/a	n/a	n/a	n/a	n/a	n/a
526.892	n/a	WORD	263446	wordpools/wasnorm_wordpool_less_exclusions.txt	LTP198	ltpFR	11	2	0	TROUT	1511	n/a	n/a	0	n/a	0	0	0	0.422607421875	0.5869140625	0	upper	zerothre.ttf
529.904	n/a	START	264952	n/a	LTP198	ltpFR	11	n/a	n/a	n/a	n/a	n/a	n/a	n/a	n/a	n/a	n/a	n/a	n/a	n/a	n/a	n/a	n/a
530.814	n/a	PROB	265407	n/a	LTP198	ltpFR	11	n/a	n/a	n/a	n/a	n/a	n/a	n/a	8	2	2	4	n/a	n/a	n/a	n/a	n/a
532.112	n/a	PROB	266056	n/a	LTP198	ltpFR	11	n/a	n/a	n/a	n/a	n/a	n/a	n/a	14	6	2	6	n/a	n/a	n/a	n/a	n/a
534.154	n/a	PROB	267077	n/a	LTP198	ltpFR	11	n/a	n/a	n/a	n/a	n/a	n/a	n/a	5	3	1	1	n/a	n/a	n/a	n/a	n/a
535.208	n/a	PROB	267604	n/a	LTP198	ltpFR	11	n/a	n/a	n/a	n/a	n/a	n/a	n/a	15	8	4	3	n/a	n/a	n/a	n/a	n/a
537.346	n/a	STOP	268673	n/a	LTP198	ltpFR	11	n/a	n/a	n/a	n/a	n/a	n/a	n/a	n/a	n/a	n/a	n/a	n/a	n/a	n/a	n/a	n/a
538.86	n/a	WORD	269430	wordpools/wasnorm_wordpool_less_exclusions.txt	LTP198	ltpFR	11	2	0	DIARY	460	n/a	n/a	0	n/a	0	0	0	0.422607421875	0.5869140625	0	upper	zerothre.ttf
541.872	n/a	START	270936	n/a	LTP198	ltpFR	11	n/a	n/a	n/a	n/a	n/a	n/a	n/a	n/a	n/a	n/a	n/a	n/a	n/a	n/a	n/a	n/a
543.07	n/a	PROB	271535	n/a	LTP198	ltpFR	11	n/a	n/a	n/a	n/a	n/a	n/a	n/a	18	8	8	2	n/a	n/a	n/a	n/a	n/a
544.366	n/a	PROB	272183	n/a	LTP198	ltpFR	11	n/a	n/a	n/a	n/a	n/a	n/a	n/a	12	5	1	6	n/a	n/a	n/a	n/a	n/a
545.652	n/a	PROB	272826	n/a	LTP198	ltpFR	11	n/a	n/a	n/a	n/a	n/a	n/a	n/a	17	4	5	8	n/a	n/a	n/a	n/a	n/a
547.478	n/a	PROB	273739	n/a	LTP198	ltpFR	11	n/a	n/a	n/a	n/a	n/a	n/a	n/a	9	1	5	3	n/a	n/a	n/a	n/a	n/a
549.466	n/a	STOP	274733	n/a	LTP198	ltpFR	11	n/a	n/a	n/a	n/a	n/a	n/a	n/a	n/a	n/a	n/a	n/a	n/a	n/a	n/a	n/a	n/a
550.94	n/a	WORD	275470	wordpools/wasnorm_wordpool_less_exclusions.txt	LTP198	ltpFR	11	2	0	HAMMER	680	n/a	n/a	0	n/a	0	0	0	0.422607421875	0.5869140625	0	upper	zerothre.ttf
553.952	n/a	START	276976	n/a	LTP198	ltpFR	11	n/a	n/a	n/a	n/a	n/a	n/a	n/a	n/a	n/a	n/a	n/a	n/a	n/a	n/a	n/a	n/a
554.772	n/a	PROB	277386	n/a	LTP198	ltpFR	11	n/a	n/a	n/a	n/a	n/a	n/a	n/a	15	4	7	4	n/a	n/a	n/a	n/a	n/a
558.346	n/a	PROB	279173	n/a	LTP198	ltpFR	11	n/a	n/a	n/a	n/a	n/a	n/a	n/a	12	2	8	2	n/a	n/a	n/a	n/a	n/a
559.65	n/a	PROB	279825	n/a	LTP198	ltpFR	11	n/a	n/a	n/a	n/a	n/a	n/a	n/a	21	7	6	8	n/a	n/a	n/a	n/a	n/a
561.348	n/a	STOP	280674	n/a	LTP198	ltpFR	11	n/a	n/a	n/a	n/a	n/a	n/a	n/a	n/a	n/a	n/a	n/a	n/a	n/a	n/a	n/a	n/a
562.952	n/a	WORD	281476	wordpools/wasnorm_wordpool_less_exclusions.txt	LTP198	ltpFR	11	2	0	CLIPPERS	324	n/a	n/a	0	n/a	0	0	0	0.422607421875	0.5869140625	0	upper	zerothre.ttf
565.966	n/a	START	282983	n/a	LTP198	ltpFR	11	n/a	n/a	n/a	n/a	n/a	n/a	n/a	n/a	n/a	n/a	n/a	n/a	n/a	n/a	n/a	n/a
566.834	n/a	PROB	283417	n/a	LTP198	ltpFR	11	n/a	n/a	n/a	n/a	n/a	n/a	n/a	18	8	6	4	n/a	n/a	n/a	n/a	n/a
568.658	n/a	PROB	284329	n/a	LTP198	ltpFR	11	n/a	n/a	n/a	n/a	n/a	n/a	n/a	18	2	7	9	n/a	n/a	n/a	n/a	n/a
573.964	n/a	STOP	286982	n/a	LTP198	ltpFR	11	n/a	n/a	n/a	n/a	n/a	n/a	n/a	n/a	n/a	n/a	n/a	n/a	n/a	n/a	n/a	n/a
575.11	n/a	WORD	287555	wordpools/wasnorm_wordpool_less_exclusions.txt	LTP198	ltpFR	11	2	0	SOCKET	1340	n/a	n/a	0	n/a	0	0	0	0.422607421875	0.5869140625	0	upper	zerothre.ttf
578.122	n/a	START	289061	n/a	LTP198	ltpFR	11	n/a	n/a	n/a	n/a	n/a	n/a	n/a	n/a	n/a	n/a	n/a	n/a	n/a	n/a	n/a	n/a
579.242	n/a	PROB	289621	n/a	LTP198	ltpFR	11	n/a	n/a	n/a	n/a	n/a	n/a	n/a	14	4	4	6	n/a	n/a	n/a	n/a	n/a
580.686	n/a	PROB	290343	n/a	LTP198	ltpFR	11	n/a	n/a	n/a	n/a	n/a	n/a	n/a	17	6	7	4	n/a	n/a	n/a	n/a	n/a
582.694	n/a	PROB	291347	n/a	LTP198	ltpFR	11	n/a	n/a	n/a	n/a	n/a	n/a	n/a	15	4	9	2	n/a	n/a	n/a	n/a	n/a
584.468	n/a	PROB	292234	n/a	LTP198	ltpFR	11	n/a	n/a	n/a	n/a	n/a	n/a	n/a	13	2	8	3	n/a	n/a	n/a	n/a	n/a
585.868	n/a	STOP	292934	n/a	LTP198	ltpFR	11	n/a	n/a	n/a	n/a	n/a	n/a	n/a	n/a	n/a	n/a	n/a	n/a	n/a	n/a	n/a	n/a
586.994	n/a	WORD	293497	wordpools/wasnorm_wordpool_less_exclusions.txt	LTP198	ltpFR	11	2	0	FLASHLIGHT	575	n/a	n/a	0	n/a	0	0	0	0.422607421875	0.5869140625	0	upper	zerothre.ttf
590.006	n/a	START	295003	n/a	LTP198	ltpFR	11	n/a	n/a	n/a	n/a	n/a	n/a	n/a	n/a	n/a	n/a	n/a	n/a	n/a	n/a	n/a	n/a
590.892	n/a	PROB	295446	n/a	LTP198	ltpFR	11	n/a	n/a	n/a	n/a	n/a	n/a	n/a	13	4	7	2	n/a	n/a	n/a	n/a	n/a
593.914	n/a	PROB	296957	n/a	LTP198	ltpFR	11	n/a	n/a	n/a	n/a	n/a	n/a	n/a	17	6	9	2	n/a	n/a	n/a	n/a	n/a
598.006	n/a	STOP	299003	n/a	LTP198	ltpFR	11	n/a	n/a	n/a	n/a	n/a	n/a	n/a	n/a	n/a	n/a	n/a	n/a	n/a	n/a	n/a	n/a
599.034	n/a	WORD	299517	wordpools/wasnorm_wordpool_less_exclusions.txt	LTP198	ltpFR	11	2	0	SURF	1412	n/a	n/a	1	n/a	0	0	0	0.422607421875	0.5869140625	0	upper	zerothre.ttf
602.052	n/a	START	301026	n/a	LTP198	ltpFR	11	n/a	n/a	n/a	n/a	n/a	n/a	n/a	n/a	n/a	n/a	n/a	n/a	n/a	n/a	n/a	n/a
602.94	n/a	PROB	301470	n/a	LTP198	ltpFR	11	n/a	n/a	n/a	n/a	n/a	n/a	n/a	15	5	8	2	n/a	n/a	n/a	n/a	n/a
604.59	n/a	PROB	302295	n/a	LTP198	ltpFR	11	n/a	n/a	n/a	n/a	n/a	n/a	n/a	6	2	3	1	n/a	n/a	n/a	n/a	n/a
606.062	n/a	PROB	303031	n/a	LTP198	ltpFR	11	n/a	n/a	n/a	n/a	n/a	n/a	n/a	9	4	2	3	n/a	n/a	n/a	n/a	n/a
607.852	n/a	PROB	303926	n/a	LTP198	ltpFR	11	n/a	n/a	n/a	n/a	n/a	n/a	n/a	3	1	1	1	n/a	n/a	n/a	n/a	n/a
608.782	n/a	STOP	304391	n/a	LTP198	ltpFR	11	n/a	n/a	n/a	n/a	n/a	n/a	n/a	n/a	n/a	n/a	n/a	n/a	n/a	n/a	n/a	n/a
610.98	n/a	WORD	305490	wordpools/wasnorm_wordpool_less_exclusions.txt	LTP198	ltpFR	11	2	0	VALLEY	1545	n/a	n/a	1	n/a	0	0	0	0.422607421875	0.5869140625	0	upper	zerothre.ttf
613.992	n/a	START	306996	n/a	LTP198	ltpFR	11	n/a	n/a	n/a	n/a	n/a	n/a	n/a	n/a	n/a	n/a	n/a	n/a	n/a	n/a	n/a	n/a
614.944	n/a	PROB	307472	n/a	LTP198	ltpFR	11	n/a	n/a	n/a	n/a	n/a	n/a	n/a	15	1	7	7	n/a	n/a	n/a	n/a	n/a
617.228	n/a	PROB	308614	n/a	LTP198	ltpFR	11	n/a	n/a	n/a	n/a	n/a	n/a	n/a	14	7	6	1	n/a	n/a	n/a	n/a	n/a
619.352	n/a	PROB	309676	n/a	LTP198	ltpFR	11	n/a	n/a	n/a	n/a	n/a	n/a	n/a	14	7	4	3	n/a	n/a	n/a	n/a	n/a
620.894	n/a	STOP	310447	n/a	LTP198	ltpFR	11	n/a	n/a	n/a	n/a	n/a	n/a	n/a	n/a	n/a	n/a	n/a	n/a	n/a	n/a	n/a	n/a
623.0	n/a	WORD	311500	wordpools/wasnorm_wordpool_less_exclusions.txt	LTP198	ltpFR	11	2	0	PORPOISE	1109	n/a	n/a	1	n/a	0	0	0	0.422607421875	0.5869140625	0	upper	zerothre.ttf
626.012	n/a	START	313006	n/a	LTP198	ltpFR	11	n/a	n/a	n/a	n/a	n/a	n/a	n/a	n/a	n/a	n/a	n/a	n/a	n/a	n/a	n/a	n/a
627.048	n/a	PROB	313524	n/a	LTP198	ltpFR	11	n/a	n/a	n/a	n/a	n/a	n/a	n/a	16	3	4	9	n/a	n/a	n/a	n/a	n/a
629.468	n/a	PROB	314734	n/a	LTP198	ltpFR	11	n/a	n/a	n/a	n/a	n/a	n/a	n/a	5	2	2	1	n/a	n/a	n/a	n/a	n/a
630.522	n/a	PROB	315261	n/a	LTP198	ltpFR	11	n/a	n/a	n/a	n/a	n/a	n/a	n/a	11	5	1	5	n/a	n/a	n/a	n/a	n/a
631.698	n/a	PROB	315849	n/a	LTP198	ltpFR	11	n/a	n/a	n/a	n/a	n/a	n/a	n/a	12	7	2	3	n/a	n/a	n/a	n/a	n/a
633.078	n/a	STOP	316539	n/a	LTP198	ltpFR	11	n/a	n/a	n/a	n/a	n/a	n/a	n/a	n/a	n/a	n/a	n/a	n/a	n/a	n/a	n/a	n/a
635.19	n/a	WORD	317595	wordpools/wasnorm_wordpool_less_exclusions.txt	LTP198	ltpFR	11	2	0	PUBLISHER	1137	n/a	n/a	1	n/a	0	0	0	0.422607421875	0.5869140625	0	upper	zerothre.ttf
638.202	n/a	START	319101	n/a	LTP198	ltpFR	11	n/a	n/a	n/a	n/a	n/a	n/a	n/a	n/a	n/a	n/a	n/a	n/a	n/a	n/a	n/a	n/a
639.11	n/a	PROB	319555	n/a	LTP198	ltpFR	11	n/a	n/a	n/a	n/a	n/a	n/a	n/a	17	8	7	2	n/a	n/a	n/a	n/a	n/a
640.7	n/a	PROB	320350	n/a	LTP198	ltpFR	11	n/a	n/a	n/a	n/a	n/a	n/a	n/a	11	2	4	5	n/a	n/a	n/a	n/a	n/a
643.488	n/a	PROB	321744	n/a	LTP198	ltpFR	11	n/a	n/a	n/a	n/a	n/a	n/a	n/a	16	7	2	7	n/a	n/a	n/a	n/a	n/a
645.144	n/a	STOP	322572	n/a	LTP198	ltpFR	11	n/a	n/a	n/a	n/a	n/a	n/a	n/a	n/a	n/a	n/a	n/a	n/a	n/a	n/a	n/a	n/a
647.342	n/a	WORD	323671	wordpools/wasnorm_wordpool_less_exclusions.txt	LTP198	ltpFR	11	2	0	HERO	706	n/a	n/a	1	n/a	0	0	0	0.422607421875	0.5869140625	0	upper	zerothre.ttf
650.354	n/a	START	325177	n/a	LTP198	ltpFR	11	n/a	n/a	n/a	n/a	n/a	n/a	n/a	n/a	n/a	n/a	n/a	n/a	n/a	n/a	n/a	n/a
651.458	n/a	PROB	325729	n/a	LTP198	ltpFR	11	n/a	n/a	n/a	n/a	n/a	n/a	n/a	14	7	1	6	n/a	n/a	n/a	n/a	n/a
653.298	n/a	PROB	326649	n/a	LTP198	ltpFR	11	n/a	n/a	n/a	n/a	n/a	n/a	n/a	12	9	2	1	n/a	n/a	n/a	n/a	n/a
654.746	n/a	PROB	327373	n/a	LTP198	ltpFR	11	n/a	n/a	n/a	n/a	n/a	n/a	n/a	11	3	5	3	n/a	n/a	n/a	n/a	n/a
656.57	n/a	PROB	328285	n/a	LTP198	ltpFR	11	n/a	n/a	n/a	n/a	n/a	n/a	n/a	14	4	4	6	n/a	n/a	n/a	n/a	n/a
657.936	n/a	STOP	328968	n/a	LTP198	ltpFR	11	n/a	n/a	n/a	n/a	n/a	n/a	n/a	n/a	n/a	n/a	n/a	n/a	n/a	n/a	n/a	n/a
659.538	n/a	WORD	329769	wordpools/wasnorm_wordpool_less_exclusions.txt	LTP198	ltpFR	11	2	0	SPONGE	1355	n/a	n/a	0	n/a	0	0	0	0.422607421875	0.5869140625	0	upper	zerothre.ttf
662.55	n/a	START	331275	n/a	LTP198	ltpFR	11	n/a	n/a	n/a	n/a	n/a	n/a	n/a	n/a	n/a	n/a	n/a	n/a	n/a	n/a	n/a	n/a
663.388	n/a	PROB	331694	n/a	LTP198	ltpFR	11	n/a	n/a	n/a	n/a	n/a	n/a	n/a	10	1	8	1	n/a	n/a	n/a	n/a	n/a
664.702	n/a	PROB	332351	n/a	LTP198	ltpFR	11	n/a	n/a	n/a	n/a	n/a	n/a	n/a	16	1	6	9	n/a	n/a	n/a	n/a	n/a
666.124	n/a	PROB	333062	n/a	LTP198	ltpFR	11	n/a	n/a	n/a	n/a	n/a	n/a	n/a	20	9	5	6	n/a	n/a	n/a	n/a	n/a
669.096	n/a	STOP	334548	n/a	LTP198	ltpFR	11	n/a	n/a	n/a	n/a	n/a	n/a	n/a	n/a	n/a	n/a	n/a	n/a	n/a	n/a	n/a	n/a
671.562	n/a	WORD	335781	wordpools/wasnorm_wordpool_less_exclusions.txt	LTP198	ltpFR	11	2	0	CANAL	226	n/a	n/a	1	n/a	0	0	0	0.422607421875	0.5869140625	0	upper	zerothre.ttf
674.572	n/a	START	337286	n/a	LTP198	ltpFR	11	n/a	n/a	n/a	n/a	n/a	n/a	n/a	n/a	n/a	n/a	n/a	n/a	n/a	n/a	n/a	n/a
675.51	n/a	PROB	337755	n/a	LTP198	ltpFR	11	n/a	n/a	n/a	n/a	n/a	n/a	n/a	12	1	2	9	n/a	n/a	n/a	n/a	n/a
676.948	n/a	PROB	338474	n/a	LTP198	ltpFR	11	n/a	n/a	n/a	n/a	n/a	n/a	n/a	13	7	1	5	n/a	n/a	n/a	n/a	n/a
679.626	n/a	PROB	339813	n/a	LTP198	ltpFR	11	n/a	n/a	n/a	n/a	n/a	n/a	n/a	6	2	3	1	n/a	n/a	n/a	n/a	n/a
682.574	n/a	STOP	341287	n/a	LTP198	ltpFR	11	n/a	n/a	n/a	n/a	n/a	n/a	n/a	n/a	n/a	n/a	n/a	n/a	n/a	n/a	n/a	n/a
684.38	n/a	REC_START	342190	n/a	LTP198	ltpFR	11	2	n/a	n/a	n/a	n/a	n/a	n/a	n/a	0	0	0	n/a	n/a	n/a	n/a	n/a
685.352	n/a	REC_WORD	342676	wordpools/wasnorm_wordpool_less_exclusions.txt	LTP198	ltpFR	11	2	0	CANAL	226	n/a	n/a	1	n/a	0	0	0	n/a	n/a	n/a	n/a	n/a
686.38	n/a	REC_WORD	343190	wordpools/wasnorm_wordpool_less_exclusions.txt	LTP198	ltpFR	11	2	0	HERO	706	n/a	n/a	1	n/a	0	0	0	n/a	n/a	n/a	n/a	n/a
687.388	n/a	REC_WORD	343694	wordpools/wasnorm_wordpool_less_exclusions.txt	LTP198	ltpFR	11	2	0	PUBLISHER	1137	n/a	n/a	1	n/a	0	0	0	n/a	n/a	n/a	n/a	n/a
688.396	n/a	REC_WORD	344198	wordpools/wasnorm_wordpool_less_exclusions.txt	LTP198	ltpFR	11	2	0	HIKER	708	n/a	n/a	1	n/a	0	0	0	n/a	n/a	n/a	n/a	n/a
689.482	n/a	REC_WORD	344741	wordpools/wasnorm_wordpool_less_exclusions.txt	LTP198	ltpFR	11	2	0	OPERATOR	979	n/a	n/a	1	n/a	0	0	0	n/a	n/a	n/a	n/a	n/a
690.59	n/a	REC_WORD	345295	wordpools/wasnorm_wordpool_less_exclusions.txt	LTP198	ltpFR	11	2	0	TRIBE	1505	n/a	n/a	1	n/a	0	0	0	n/a	n/a	n/a	n/a	n/a
691.698	n/a	REC_WORD	345849	wordpools/wasnorm_wordpool_less_exclusions.txt	LTP198	ltpFR	11	2	0	TROUT	1511	n/a	n/a	0	n/a	0	0	0	n/a	n/a	n/a	n/a	n/a
692.67	n/a	REC_WORD	346335	wordpools/wasnorm_wordpool_less_exclusions.txt	LTP198	ltpFR	11	2	0	FLASHLIGHT	575	n/a	n/a	0	n/a	0	0	0	n/a	n/a	n/a	n/a	n/a
693.998	n/a	REC_WORD	346999	wordpools/wasnorm_wordpool_less_exclusions.txt	LTP198	ltpFR	11	2	0	CLIPPERS	324	n/a	n/a	0	n/a	0	0	0	n/a	n/a	n/a	n/a	n/a
694.96	n/a	REC_WORD	347480	wordpools/wasnorm_wordpool_less_exclusions.txt	LTP198	ltpFR	11	2	0	HAMMER	680	n/a	n/a	0	n/a	0	0	0	n/a	n/a	n/a	n/a	n/a
697.076	n/a	REC_WORD	348538	wordpools/wasnorm_wordpool_less_exclusions.txt	LTP198	ltpFR	11	2	0	PORPOISE	1109	n/a	n/a	1	n/a	0	0	0	n/a	n/a	n/a	n/a	n/a
699.306	n/a	REC_WORD	349653	wordpools/wasnorm_wordpool_less_exclusions.txt	LTP198	ltpFR	11	2	0	VALLEY	1545	n/a	n/a	1	n/a	0	0	0	n/a	n/a	n/a	n/a	n/a
700.25	n/a	REC_WORD	350125	wordpools/wasnorm_wordpool_less_exclusions.txt	LTP198	ltpFR	11	2	0	SURF	1412	n/a	n/a	1	n/a	0	0	0	n/a	n/a	n/a	n/a	n/a
701.302	n/a	REC_WORD	350651	wordpools/wasnorm_wordpool_less_exclusions.txt	LTP198	ltpFR	11	2	0	SPONGE	1355	n/a	n/a	0	n/a	0	0	0	n/a	n/a	n/a	n/a	n/a
706.948	n/a	REC_WORD	353474	wordpools/wasnorm_wordpool_less_exclusions.txt	LTP198	ltpFR	11	2	0	SOCKET	1340	n/a	n/a	0	n/a	0	0	0	n/a	n/a	n/a	n/a	n/a
746.236	n/a	REC_WORD	373118	wordpools/wasnorm_wordpool_less_exclusions.txt	LTP198	ltpFR	11	2	0	TRIBE	1505	n/a	n/a	1	n/a	0	0	0	n/a	n/a	n/a	n/a	n/a
769.04	n/a	START	384520	n/a	LTP198	ltpFR	11	n/a	n/a	n/a	n/a	n/a	n/a	n/a	n/a	n/a	n/a	n/a	n/a	n/a	n/a	n/a	n/a
770.556	n/a	PROB	385278	n/a	LTP198	ltpFR	11	n/a	n/a	n/a	n/a	n/a	n/a	n/a	6	2	3	1	n/a	n/a	n/a	n/a	n/a
771.994	n/a	PROB	385997	n/a	LTP198	ltpFR	11	n/a	n/a	n/a	n/a	n/a	n/a	n/a	10	8	1	1	n/a	n/a	n/a	n/a	n/a
773.234	n/a	PROB	386617	n/a	LTP198	ltpFR	11	n/a	n/a	n/a	n/a	n/a	n/a	n/a	15	1	7	7	n/a	n/a	n/a	n/a	n/a
774.638	n/a	PROB	387319	n/a	LTP198	ltpFR	11	n/a	n/a	n/a	n/a	n/a	n/a	n/a	14	8	2	4	n/a	n/a	n/a	n/a	n/a
775.934	n/a	PROB	387967	n/a	LTP198	ltpFR	11	n/a	n/a	n/a	n/a	n/a	n/a	n/a	12	9	2	1	n/a	n/a	n/a	n/a	n/a
777.098	n/a	PROB	388549	n/a	LTP198	ltpFR	11	n/a	n/a	n/a	n/a	n/a	n/a	n/a	18	3	6	9	n/a	n/a	n/a	n/a	n/a
778.944	n/a	PROB	389472	n/a	LTP198	ltpFR	11	n/a	n/a	n/a	n/a	n/a	n/a	n/a	16	8	4	4	n/a	n/a	n/a	n/a	n/a
781.482	n/a	PROB	390741	n/a	LTP198	ltpFR	11	n/a	n/a	n/a	n/a	n/a	n/a	n/a	15	1	8	6	n/a	n/a	n/a	n/a	n/a
783.02	n/a	PROB	391510	n/a	LTP198	ltpFR	11	n/a	n/a	n/a	n/a	n/a	n/a	n/a	9	5	2	2	n/a	n/a	n/a	n/a	n/a
784.518	n/a	STOP	392259	n/a	LTP198	ltpFR	11	n/a	n/a	n/a	n/a	n/a	n/a	n/a	n/a	n/a	n/a	n/a	n/a	n/a	n/a	n/a	n/a
786.24	n/a	WORD	393120	wordpools/wasnorm_wordpool_less_exclusions.txt	LTP198	ltpFR	11	3	0	MOB	904	n/a	n/a	1	n/a	0	0	0	0.422607421875	0.5869140625	0	upper	zerothre.ttf
789.252	n/a	START	394626	n/a	LTP198	ltpFR	11	n/a	n/a	n/a	n/a	n/a	n/a	n/a	n/a	n/a	n/a	n/a	n/a	n/a	n/a	n/a	n/a
790.12	n/a	PROB	395060	n/a	LTP198	ltpFR	11	n/a	n/a	n/a	n/a	n/a	n/a	n/a	14	4	4	6	n/a	n/a	n/a	n/a	n/a
791.386	n/a	PROB	395693	n/a	LTP198	ltpFR	11	n/a	n/a	n/a	n/a	n/a	n/a	n/a	17	5	8	4	n/a	n/a	n/a	n/a	n/a
793.728	n/a	PROB	396864	n/a	LTP198	ltpFR	11	n/a	n/a	n/a	n/a	n/a	n/a	n/a	21	8	4	9	n/a	n/a	n/a	n/a	n/a
795.886	n/a	PROB	397943	n/a	LTP198	ltpFR	11	n/a	n/a	n/a	n/a	n/a	n/a	n/a	9	7	1	1	n/a	n/a	n/a	n/a	n/a
797.192	n/a	PROB	398596	n/a	LTP198	ltpFR	11	n/a	n/a	n/a	n/a	n/a	n/a	n/a	16	7	2	7	n/a	n/a	n/a	n/a	n/a
799.2	n/a	PROB	399600	n/a	LTP198	ltpFR	11	n/a	n/a	n/a	n/a	n/a	n/a	n/a	10	3	5	2	n/a	n/a	n/a	n/a	n/a
800.712	n/a	PROB	400356	n/a	LTP198	ltpFR	11	n/a	n/a	n/a	n/a	n/a	n/a	n/a	24	6	9	9	n/a	n/a	n/a	n/a	n/a
802.802	n/a	PROB	401401	n/a	LTP198	ltpFR	11	n/a	n/a	n/a	n/a	n/a	n/a	n/a	13	6	6	1	n/a	n/a	n/a	n/a	n/a
804.232	n/a	STOP	402116	n/a	LTP198	ltpFR	11	n/a	n/a	n/a	n/a	n/a	n/a	n/a	n/a	n/a	n/a	n/a	n/a	n/a	n/a	n/a	n/a
806.366	n/a	WORD	403183	wordpools/wasnorm_wordpool_less_exclusions.txt	LTP198	ltpFR	11	3	0	SIDEWALK	1303	n/a	n/a	1	n/a	0	0	0	0.422607421875	0.5869140625	0	upper	zerothre.ttf
809.378	n/a	START	404689	n/a	LTP198	ltpFR	11	n/a	n/a	n/a	n/a	n/a	n/a	n/a	n/a	n/a	n/a	n/a	n/a	n/a	n/a	n/a	n/a
810.464	n/a	PROB	405232	n/a	LTP198	ltpFR	11	n/a	n/a	n/a	n/a	n/a	n/a	n/a	7	1	5	1	n/a	n/a	n/a	n/a	n/a
812.032	n/a	PROB	406016	n/a	LTP198	ltpFR	11	n/a	n/a	n/a	n/a	n/a	n/a	n/a	11	3	1	7	n/a	n/a	n/a	n/a	n/a
813.422	n/a	PROB	406711	n/a	LTP198	ltpFR	11	n/a	n/a	n/a	n/a	n/a	n/a	n/a	6	1	2	3	n/a	n/a	n/a	n/a	n/a
814.608	n/a	PROB	407304	n/a	LTP198	ltpFR	11	n/a	n/a	n/a	n/a	n/a	n/a	n/a	14	6	6	2	n/a	n/a	n/a	n/a	n/a
815.97	n/a	PROB	407985	n/a	LTP198	ltpFR	11	n/a	n/a	n/a	n/a	n/a	n/a	n/a	16	1	9	6	n/a	n/a	n/a	n/a	n/a
817.336	n/a	PROB	408668	n/a	LTP198	ltpFR	11	n/a	n/a	n/a	n/a	n/a	n/a	n/a	18	6	3	9	n/a	n/a	n/a	n/a	n/a
819.85	n/a	PROB	409925	n/a	LTP198	ltpFR	11	n/a	n/a	n/a	n/a	n/a	n/a	n/a	11	6	1	4	n/a	n/a	n/a	n/a	n/a
821.218	n/a	PROB	410609	n/a	LTP198	ltpFR	11	n/a	n/a	n/a	n/a	n/a	n/a	n/a	21	8	7	4	n/a	n/a	n/a	n/a	n/a
824.464	n/a	STOP	412232	n/a	LTP198	ltpFR	11	n/a	n/a	n/a	n/a	n/a	n/a	n/a	n/a	n/a	n/a	n/a	n/a	n/a	n/a	n/a	n/a
826.254	n/a	WORD	413127	wordpools/wasnorm_wordpool_less_exclusions.txt	LTP198	ltpFR	11	3	0	CRAB	397	n/a	n/a	0	n/a	0	0	0	0.422607421875	0.5869140625	0	upper	zerothre.ttf
829.266	n/a	START	414633	n/a	LTP198	ltpFR	11	n/a	n/a	n/a	n/a	n/a	n/a	n/a	n/a	n/a	n/a	n/a	n/a	n/a	n/a	n/a	n/a
830.158	n/a	PROB	415079	n/a	LTP198	ltpFR	11	n/a	n/a	n/a	n/a	n/a	n/a	n/a	13	9	1	3	n/a	n/a	n/a	n/a	n/a
834.006	n/a	PROB	417003	n/a	LTP198	ltpFR	11	n/a	n/a	n/a	n/a	n/a	n/a	n/a	13	6	1	6	n/a	n/a	n/a	n/a	n/a
835.356	n/a	PROB	417678	n/a	LTP198	ltpFR	11	n/a	n/a	n/a	n/a	n/a	n/a	n/a	20	6	6	8	n/a	n/a	n/a	n/a	n/a
837.362	n/a	PROB	418681	n/a	LTP198	ltpFR	11	n/a	n/a	n/a	n/a	n/a	n/a	n/a	10	3	1	6	n/a	n/a	n/a	n/a	n/a
838.99	n/a	PROB	419495	n/a	LTP198	ltpFR	11	n/a	n/a	n/a	n/a	n/a	n/a	n/a	17	4	4	9	n/a	n/a	n/a	n/a	n/a
842.638	n/a	PROB	421319	n/a	LTP198	ltpFR	11	n/a	n/a	n/a	n/a	n/a	n/a	n/a	11	5	1	5	n/a	n/a	n/a	n/a	n/a
843.752	n/a	PROB	421876	n/a	LTP198	ltpFR	11	n/a	n/a	n/a	n/a	n/a	n/a	n/a	11	5	1	5	n/a	n/a	n/a	n/a	n/a
844.626	n/a	STOP	422313	n/a	LTP198	ltpFR	11	n/a	n/a	n/a	n/a	n/a	n/a	n/a	n/a	n/a	n/a	n/a	n/a	n/a	n/a	n/a	n/a
846.27	n/a	WORD	423135	wordpools/wasnorm_wordpool_less_exclusions.txt	LTP198	ltpFR	11	3	0	BLUEPRINT	142	n/a	n/a	0	n/a	0	0	0	0.422607421875	0.5869140625	0	upper	zerothre.ttf
849.282	n/a	START	424641	n/a	LTP198	ltpFR	11	n/a	n/a	n/a	n/a	n/a	n/a	n/a	n/a	n/a	n/a	n/a	n/a	n/a	n/a	n/a	n/a
850.428	n/a	PROB	425214	n/a	LTP198	ltpFR	11	n/a	n/a	n/a	n/a	n/a	n/a	n/a	17	9	4	4	n/a	n/a	n/a	n/a	n/a
852.336	n/a	PROB	426168	n/a	LTP198	ltpFR	11	n/a	n/a	n/a	n/a	n/a	n/a	n/a	11	4	1	6	n/a	n/a	n/a	n/a	n/a
853.63	n/a	PROB	426815	n/a	LTP198	ltpFR	11	n/a	n/a	n/a	n/a	n/a	n/a	n/a	16	4	7	5	n/a	n/a	n/a	n/a	n/a
857.874	n/a	PROB	428937	n/a	LTP198	ltpFR	11	n/a	n/a	n/a	n/a	n/a	n/a	n/a	13	1	6	6	n/a	n/a	n/a	n/a	n/a
859.134	n/a	PROB	429567	n/a	LTP198	ltpFR	11	n/a	n/a	n/a	n/a	n/a	n/a	n/a	6	1	3	2	n/a	n/a	n/a	n/a	n/a
860.25	n/a	PROB	430125	n/a	LTP198	ltpFR	11	n/a	n/a	n/a	n/a	n/a	n/a	n/a	21	7	8	9	n/a	n/a	n/a	n/a	n/a
861.588	n/a	PROB	430794	n/a	LTP198	ltpFR	11	n/a	n/a	n/a	n/a	n/a	n/a	n/a	20	5	8	7	n/a	n/a	n/a	n/a	n/a
864.18	n/a	STOP	432090	n/a	LTP198	ltpFR	11	n/a	n/a	n/a	n/a	n/a	n/a	n/a	n/a	n/a	n/a	n/a	n/a	n/a	n/a	n/a	n/a
866.312	n/a	WORD	433156	wordpools/wasnorm_wordpool_less_exclusions.txt	LTP198	ltpFR	11	3	0	CONTRACTOR	369	n/a	n/a	1	n/a	0	0	0	0.422607421875	0.5869140625	0	upper	zerothre.ttf
869.326	n/a	START	434663	n/a	LTP198	ltpFR	11	n/a	n/a	n/a	n/a	n/a	n/a	n/a	n/a	n/a	n/a	n/a	n/a	n/a	n/a	n/a	n/a
870.154	n/a	PROB	435077	n/a	LTP198	ltpFR	11	n/a	n/a	n/a	n/a	n/a	n/a	n/a	24	9	8	7	n/a	n/a	n/a	n/a	n/a
872.92	n/a	PROB	436460	n/a	LTP198	ltpFR	11	n/a	n/a	n/a	n/a	n/a	n/a	n/a	12	7	1	4	n/a	n/a	n/a	n/a	n/a
874.888	n/a	PROB	437444	n/a	LTP198	ltpFR	11	n/a	n/a	n/a	n/a	n/a	n/a	n/a	15	7	7	1	n/a	n/a	n/a	n/a	n/a
876.778	n/a	PROB	438389	n/a	LTP198	ltpFR	11	n/a	n/a	n/a	n/a	n/a	n/a	n/a	16	7	2	7	n/a	n/a	n/a	n/a	n/a
879.038	n/a	PROB	439519	n/a	LTP198	ltpFR	11	n/a	n/a	n/a	n/a	n/a	n/a	n/a	17	5	8	4	n/a	n/a	n/a	n/a	n/a
882.234	n/a	PROB	441117	n/a	LTP198	ltpFR	11	n/a	n/a	n/a	n/a	n/a	n/a	n/a	12	2	1	9	n/a	n/a	n/a	n/a	n/a
885.326	n/a	STOP	442663	n/a	LTP198	ltpFR	11	n/a	n/a	n/a	n/a	n/a	n/a	n/a	n/a	n/a	n/a	n/a	n/a	n/a	n/a	n/a	n/a
886.438	n/a	WORD	443219	wordpools/wasnorm_wordpool_less_exclusions.txt	LTP198	ltpFR	11	3	0	SURVEY	1414	n/a	n/a	0	n/a	0	0	0	0.422607421875	0.5869140625	0	upper	zerothre.ttf
889.452	n/a	START	444726	n/a	LTP198	ltpFR	11	n/a	n/a	n/a	n/a	n/a	n/a	n/a	n/a	n/a	n/a	n/a	n/a	n/a	n/a	n/a	n/a
890.566	n/a	PROB	445283	n/a	LTP198	ltpFR	11	n/a	n/a	n/a	n/a	n/a	n/a	n/a	19	9	5	5	n/a	n/a	n/a	n/a	n/a
892.54	n/a	PROB	446270	n/a	LTP198	ltpFR	11	n/a	n/a	n/a	n/a	n/a	n/a	n/a	17	7	3	7	n/a	n/a	n/a	n/a	n/a
895.088	n/a	PROB	447544	n/a	LTP198	ltpFR	11	n/a	n/a	n/a	n/a	n/a	n/a	n/a	6	2	3	1	n/a	n/a	n/a	n/a	n/a
896.272	n/a	PROB	448136	n/a	LTP198	ltpFR	11	n/a	n/a	n/a	n/a	n/a	n/a	n/a	17	7	6	4	n/a	n/a	n/a	n/a	n/a
897.9	n/a	PROB	448950	n/a	LTP198	ltpFR	11	n/a	n/a	n/a	n/a	n/a	n/a	n/a	19	8	2	9	n/a	n/a	n/a	n/a	n/a
899.582	n/a	PROB	449791	n/a	LTP198	ltpFR	11	n/a	n/a	n/a	n/a	n/a	n/a	n/a	11	4	1	6	n/a	n/a	n/a	n/a	n/a
901.296	n/a	PROB	450648	n/a	LTP198	ltpFR	11	n/a	n/a	n/a	n/a	n/a	n/a	n/a	20	7	6	7	n/a	n/a	n/a	n/a	n/a
905.45	n/a	STOP	452725	n/a	LTP198	ltpFR	11	n/a	n/a	n/a	n/a	n/a	n/a	n/a	n/a	n/a	n/a	n/a	n/a	n/a	n/a	n/a	n/a
906.648	n/a	WORD	453324	wordpools/wasnorm_wordpool_less_exclusions.txt	LTP198	ltpFR	11	3	0	TRIGGER	1507	n/a	n/a	0	n/a	0	0	0	0.422607421875	0.5869140625	0	upper	zerothre.ttf
909.662	n/a	START	454831	n/a	LTP198	ltpFR	11	n/a	n/a	n/a	n/a	n/a	n/a	n/a	n/a	n/a	n/a	n/a	n/a	n/a	n/a	n/a	n/a
910.508	n/a	PROB	455254	n/a	LTP198	ltpFR	11	n/a	n/a	n/a	n/a	n/a	n/a	n/a	16	1	8	7	n/a	n/a	n/a	n/a	n/a
912.248	n/a	PROB	456124	n/a	LTP198	ltpFR	11	n/a	n/a	n/a	n/a	n/a	n/a	n/a	5	2	2	1	n/a	n/a	n/a	n/a	n/a
913.258	n/a	PROB	456629	n/a	LTP198	ltpFR	11	n/a	n/a	n/a	n/a	n/a	n/a	n/a	9	2	3	4	n/a	n/a	n/a	n/a	n/a
916.698	n/a	PROB	458349	n/a	LTP198	ltpFR	11	n/a	n/a	n/a	n/a	n/a	n/a	n/a	10	1	8	1	n/a	n/a	n/a	n/a	n/a
918.238	n/a	PROB	459119	n/a	LTP198	ltpFR	11	n/a	n/a	n/a	n/a	n/a	n/a	n/a	20	6	8	9	n/a	n/a	n/a	n/a	n/a
920.752	n/a	PROB	460376	n/a	LTP198	ltpFR	11	n/a	n/a	n/a	n/a	n/a	n/a	n/a	18	4	5	9	n/a	n/a	n/a	n/a	n/a
922.754	n/a	PROB	461377	n/a	LTP198	ltpFR	11	n/a	n/a	n/a	n/a	n/a	n/a	n/a	17	7	2	8	n/a	n/a	n/a	n/a	n/a
924.35	n/a	STOP	462175	n/a	LTP198	ltpFR	11	n/a	n/a	n/a	n/a	n/a	n/a	n/a	n/a	n/a	n/a	n/a	n/a	n/a	n/a	n/a	n/a
926.86	n/a	WORD	463430	wordpools/wasnorm_wordpool_less_exclusions.txt	LTP198	ltpFR	11	3	0	MEAL	882	n/a	n/a	0	n/a	0	0	0	0.422607421875	0.5869140625	0	upper	zerothre.ttf
929.872	n/a	START	464936	n/a	LTP198	ltpFR	11	n/a	n/a	n/a	n/a	n/a	n/a	n/a	n/a	n/a	n/a	n/a	n/a	n/a	n/a	n/a	n/a
930.886	n/a	PROB	465443	n/a	LTP198	ltpFR	11	n/a	n/a	n/a	n/a	n/a	n/a	n/a	12	2	5	5	n/a	n/a	n/a	n/a	n/a
932.726	n/a	PROB	466363	n/a	LTP198	ltpFR	11	n/a	n/a	n/a	n/a	n/a	n/a	n/a	18	3	9	6	n/a	n/a	n/a	n/a	n/a
934.706	n/a	PROB	467353	n/a	LTP198	ltpFR	11	n/a	n/a	n/a	n/a	n/a	n/a	n/a	18	9	4	5	n/a	n/a	n/a	n/a	n/a
936.424	n/a	PROB	468212	n/a	LTP198	ltpFR	11	n/a	n/a	n/a	n/a	n/a	n/a	n/a	19	7	5	7	n/a	n/a	n/a	n/a	n/a
939.418	n/a	PROB	469709	n/a	LTP198	ltpFR	11	n/a	n/a	n/a	n/a	n/a	n/a	n/a	18	7	2	9	n/a	n/a	n/a	n/a	n/a
941.366	n/a	PROB	470683	n/a	LTP198	ltpFR	11	n/a	n/a	n/a	n/a	n/a	n/a	n/a	18	9	1	8	n/a	n/a	n/a	n/a	n/a
942.754	n/a	PROB	471377	n/a	LTP198	ltpFR	11	n/a	n/a	n/a	n/a	n/a	n/a	n/a	19	6	9	4	n/a	n/a	n/a	n/a	n/a
944.416	n/a	STOP	472208	n/a	LTP198	ltpFR	11	n/a	n/a	n/a	n/a	n/a	n/a	n/a	n/a	n/a	n/a	n/a	n/a	n/a	n/a	n/a	n/a
946.804	n/a	WORD	473402	wordpools/wasnorm_wordpool_less_exclusions.txt	LTP198	ltpFR	11	3	0	PARENT	1013	n/a	n/a	1	n/a	0	0	0	0.422607421875	0.5869140625	0	upper	zerothre.ttf
949.816	n/a	START	474908	n/a	LTP198	ltpFR	11	n/a	n/a	n/a	n/a	n/a	n/a	n/a	n/a	n/a	n/a	n/a	n/a	n/a	n/a	n/a	n/a
950.852	n/a	PROB	475426	n/a	LTP198	ltpFR	11	n/a	n/a	n/a	n/a	n/a	n/a	n/a	14	5	8	1	n/a	n/a	n/a	n/a	n/a
952.402	n/a	PROB	476201	n/a	LTP198	ltpFR	11	n/a	n/a	n/a	n/a	n/a	n/a	n/a	15	4	4	7	n/a	n/a	n/a	n/a	n/a
954.85	n/a	PROB	477425	n/a	LTP198	ltpFR	11	n/a	n/a	n/a	n/a	n/a	n/a	n/a	15	8	5	2	n/a	n/a	n/a	n/a	n/a
956.35	n/a	PROB	478175	n/a	LTP198	ltpFR	11	n/a	n/a	n/a	n/a	n/a	n/a	n/a	18	4	7	7	n/a	n/a	n/a	n/a	n/a
958.106	n/a	PROB	479053	n/a	LTP198	ltpFR	11	n/a	n/a	n/a	n/a	n/a	n/a	n/a	14	6	6	2	n/a	n/a	n/a	n/a	n/a
959.612	n/a	PROB	479806	n/a	LTP198	ltpFR	11	n/a	n/a	n/a	n/a	n/a	n/a	n/a	8	1	3	4	n/a	n/a	n/a	n/a	n/a
961.158	n/a	PROB	480579	n/a	LTP198	ltpFR	11	n/a	n/a	n/a	n/a	n/a	n/a	n/a	18	8	3	7	n/a	n/a	n/a	n/a	n/a
962.64	n/a	PROB	481320	n/a	LTP198	ltpFR	11	n/a	n/a	n/a	n/a	n/a	n/a	n/a	15	5	4	6	n/a	n/a	n/a	n/a	n/a
965.064	n/a	STOP	482532	n/a	LTP198	ltpFR	11	n/a	n/a	n/a	n/a	n/a	n/a	n/a	n/a	n/a	n/a	n/a	n/a	n/a	n/a	n/a	n/a
966.78	n/a	WORD	483390	wordpools/wasnorm_wordpool_less_exclusions.txt	LTP198	ltpFR	11	3	0	TUB	1514	n/a	n/a	1	n/a	0	0	0	0.422607421875	0.5869140625	0	upper	zerothre.ttf
969.792	n/a	START	484896	n/a	LTP198	ltpFR	11	n/a	n/a	n/a	n/a	n/a	n/a	n/a	n/a	n/a	n/a	n/a	n/a	n/a	n/a	n/a	n/a
970.638	n/a	PROB	485319	n/a	LTP198	ltpFR	11	n/a	n/a	n/a	n/a	n/a	n/a	n/a	16	8	6	2	n/a	n/a	n/a	n/a	n/a
972.278	n/a	PROB	486139	n/a	LTP198	ltpFR	11	n/a	n/a	n/a	n/a	n/a	n/a	n/a	12	4	4	4	n/a	n/a	n/a	n/a	n/a
973.516	n/a	PROB	486758	n/a	LTP198	ltpFR	11	n/a	n/a	n/a	n/a	n/a	n/a	n/a	15	2	9	4	n/a	n/a	n/a	n/a	n/a
975.206	n/a	PROB	487603	n/a	LTP198	ltpFR	11	n/a	n/a	n/a	n/a	n/a	n/a	n/a	10	6	1	3	n/a	n/a	n/a	n/a	n/a
977.28	n/a	PROB	488640	n/a	LTP198	ltpFR	11	n/a	n/a	n/a	n/a	n/a	n/a	n/a	10	4	5	1	n/a	n/a	n/a	n/a	n/a
978.64	n/a	PROB	489320	n/a	LTP198	ltpFR	11	n/a	n/a	n/a	n/a	n/a	n/a	n/a	16	6	8	2	n/a	n/a	n/a	n/a	n/a
980.124	n/a	PROB	490062	n/a	LTP198	ltpFR	11	n/a	n/a	n/a	n/a	n/a	n/a	n/a	20	6	7	7	n/a	n/a	n/a	n/a	n/a
982.868	n/a	PROB	491434	n/a	LTP198	ltpFR	11	n/a	n/a	n/a	n/a	n/a	n/a	n/a	20	9	9	2	n/a	n/a	n/a	n/a	n/a
984.25	n/a	STOP	492125	n/a	LTP198	ltpFR	11	n/a	n/a	n/a	n/a	n/a	n/a	n/a	n/a	n/a	n/a	n/a	n/a	n/a	n/a	n/a	n/a
986.85	n/a	WORD	493425	wordpools/wasnorm_wordpool_less_exclusions.txt	LTP198	ltpFR	11	3	0	SCREWDRIVER	1255	n/a	n/a	0	n/a	0	0	0	0.422607421875	0.5869140625	0	upper	zerothre.ttf
989.862	n/a	START	494931	n/a	LTP198	ltpFR	11	n/a	n/a	n/a	n/a	n/a	n/a	n/a	n/a	n/a	n/a	n/a	n/a	n/a	n/a	n/a	n/a
990.814	n/a	PROB	495407	n/a	LTP198	ltpFR	11	n/a	n/a	n/a	n/a	n/a	n/a	n/a	18	4	9	5	n/a	n/a	n/a	n/a	n/a
992.822	n/a	PROB	496411	n/a	LTP198	ltpFR	11	n/a	n/a	n/a	n/a	n/a	n/a	n/a	10	6	3	1	n/a	n/a	n/a	n/a	n/a
994.184	n/a	PROB	497092	n/a	LTP198	ltpFR	11	n/a	n/a	n/a	n/a	n/a	n/a	n/a	19	5	7	7	n/a	n/a	n/a	n/a	n/a
997.44	n/a	PROB	498720	n/a	LTP198	ltpFR	11	n/a	n/a	n/a	n/a	n/a	n/a	n/a	4	1	1	2	n/a	n/a	n/a	n/a	n/a
999.632	n/a	PROB	499816	n/a	LTP198	ltpFR	11	n/a	n/a	n/a	n/a	n/a	n/a	n/a	17	8	8	1	n/a	n/a	n/a	n/a	n/a
1001.504	n/a	PROB	500752	n/a	LTP198	ltpFR	11	n/a	n/a	n/a	n/a	n/a	n/a	n/a	22	8	7	8	n/a	n/a	n/a	n/a	n/a
1005.862	n/a	STOP	502931	n/a	LTP198	ltpFR	11	n/a	n/a	n/a	n/a	n/a	n/a	n/a	n/a	n/a	n/a	n/a	n/a	n/a	n/a	n/a	n/a
1006.826	n/a	WORD	503413	wordpools/wasnorm_wordpool_less_exclusions.txt	LTP198	ltpFR	11	3	0	LIME	823	n/a	n/a	0	n/a	0	0	0	0.422607421875	0.5869140625	0	upper	zerothre.ttf
1009.838	n/a	START	504919	n/a	LTP198	ltpFR	11	n/a	n/a	n/a	n/a	n/a	n/a	n/a	n/a	n/a	n/a	n/a	n/a	n/a	n/a	n/a	n/a
1010.664	n/a	PROB	505332	n/a	LTP198	ltpFR	11	n/a	n/a	n/a	n/a	n/a	n/a	n/a	13	3	7	3	n/a	n/a	n/a	n/a	n/a
1012.288	n/a	PROB	506144	n/a	LTP198	ltpFR	11	n/a	n/a	n/a	n/a	n/a	n/a	n/a	16	3	8	5	n/a	n/a	n/a	n/a	n/a
1014.612	n/a	PROB	507306	n/a	LTP198	ltpFR	11	n/a	n/a	n/a	n/a	n/a	n/a	n/a	10	1	8	1	n/a	n/a	n/a	n/a	n/a
1015.794	n/a	PROB	507897	n/a	LTP198	ltpFR	11	n/a	n/a	n/a	n/a	n/a	n/a	n/a	20	9	2	9	n/a	n/a	n/a	n/a	n/a
1017.5	n/a	PROB	508750	n/a	LTP198	ltpFR	11	n/a	n/a	n/a	n/a	n/a	n/a	n/a	11	7	3	1	n/a	n/a	n/a	n/a	n/a
1019.106	n/a	PROB	509553	n/a	LTP198	ltpFR	11	n/a	n/a	n/a	n/a	n/a	n/a	n/a	18	3	9	6	n/a	n/a	n/a	n/a	n/a
1021.216	n/a	PROB	510608	n/a	LTP198	ltpFR	11	n/a	n/a	n/a	n/a	n/a	n/a	n/a	16	1	7	8	n/a	n/a	n/a	n/a	n/a
1022.96	n/a	PROB	511480	n/a	LTP198	ltpFR	11	n/a	n/a	n/a	n/a	n/a	n/a	n/a	23	7	8	8	n/a	n/a	n/a	n/a	n/a
1024.596	n/a	STOP	512298	n/a	LTP198	ltpFR	11	n/a	n/a	n/a	n/a	n/a	n/a	n/a	n/a	n/a	n/a	n/a	n/a	n/a	n/a	n/a	n/a
1026.908	n/a	WORD	513454	wordpools/wasnorm_wordpool_less_exclusions.txt	LTP198	ltpFR	11	3	0	BANANA	77	n/a	n/a	0	n/a	0	0	0	0.422607421875	0.5869140625	0	upper	zerothre.ttf
1029.92	n/a	START	514960	n/a	LTP198	ltpFR	11	n/a	n/a	n/a	n/a	n/a	n/a	n/a	n/a	n/a	n/a	n/a	n/a	n/a	n/a	n/a	n/a
1031.074	n/a	PROB	515537	n/a	LTP198	ltpFR	11	n/a	n/a	n/a	n/a	n/a	n/a	n/a	11	3	1	7	n/a	n/a	n/a	n/a	n/a
1032.59	n/a	PROB	516295	n/a	LTP198	ltpFR	11	n/a	n/a	n/a	n/a	n/a	n/a	n/a	20	6	6	8	n/a	n/a	n/a	n/a	n/a
1034.748	n/a	PROB	517374	n/a	LTP198	ltpFR	11	n/a	n/a	n/a	n/a	n/a	n/a	n/a	17	6	9	2	n/a	n/a	n/a	n/a	n/a
1036.806	n/a	PROB	518403	n/a	LTP198	ltpFR	11	n/a	n/a	n/a	n/a	n/a	n/a	n/a	15	7	6	2	n/a	n/a	n/a	n/a	n/a
1039.048	n/a	PROB	519524	n/a	LTP198	ltpFR	11	n/a	n/a	n/a	n/a	n/a	n/a	n/a	15	4	4	7	n/a	n/a	n/a	n/a	n/a
1043.104	n/a	PROB	521552	n/a	LTP198	ltpFR	11	n/a	n/a	n/a	n/a	n/a	n/a	n/a	19	9	6	4	n/a	n/a	n/a	n/a	n/a
1044.74	n/a	STOP	522370	n/a	LTP198	ltpFR	11	n/a	n/a	n/a	n/a	n/a	n/a	n/a	n/a	n/a	n/a	n/a	n/a	n/a	n/a	n/a	n/a
1046.896	n/a	WORD	523448	wordpools/wasnorm_wordpool_less_exclusions.txt	LTP198	ltpFR	11	3	0	BAIT	70	n/a	n/a	0	n/a	0	0	0	0.422607421875	0.5869140625	0	upper	zerothre.ttf
1049.914	n/a	START	524957	n/a	LTP198	ltpFR	11	n/a	n/a	n/a	n/a	n/a	n/a	n/a	n/a	n/a	n/a	n/a	n/a	n/a	n/a	n/a	n/a
1051.068	n/a	PROB	525534	n/a	LTP198	ltpFR	11	n/a	n/a	n/a	n/a	n/a	n/a	n/a	10	2	1	7	n/a	n/a	n/a	n/a	n/a
1052.49	n/a	PROB	526245	n/a	LTP198	ltpFR	11	n/a	n/a	n/a	n/a	n/a	n/a	n/a	13	8	1	4	n/a	n/a	n/a	n/a	n/a
1055.244	n/a	PROB	527622	n/a	LTP198	ltpFR	11	n/a	n/a	n/a	n/a	n/a	n/a	n/a	13	3	8	2	n/a	n/a	n/a	n/a	n/a
1057.236	n/a	PROB	528618	n/a	LTP198	ltpFR	11	n/a	n/a	n/a	n/a	n/a	n/a	n/a	15	5	9	1	n/a	n/a	n/a	n/a	n/a
1059.008	n/a	PROB	529504	n/a	LTP198	ltpFR	11	n/a	n/a	n/a	n/a	n/a	n/a	n/a	11	3	4	4	n/a	n/a	n/a	n/a	n/a
1061.14	n/a	PROB	530570	n/a	LTP198	ltpFR	11	n/a	n/a	n/a	n/a	n/a	n/a	n/a	17	4	7	6	n/a	n/a	n/a	n/a	n/a
1065.914	n/a	STOP	532957	n/a	LTP198	ltpFR	11	n/a	n/a	n/a	n/a	n/a	n/a	n/a	n/a	n/a	n/a	n/a	n/a	n/a	n/a	n/a	n/a
1066.922	n/a	WORD	533461	wordpools/wasnorm_wordpool_less_exclusions.txt	LTP198	ltpFR	11	3	0	BARRACUDA	90	n/a	n/a	0	n/a	0	0	0	0.422607421875	0.5869140625	0	upper	zerothre.ttf
1069.94	n/a	START	534970	n/a	LTP198	ltpFR	11	n/a	n/a	n/a	n/a	n/a	n/a	n/a	n/a	n/a	n/a	n/a	n/a	n/a	n/a	n/a	n/a
1070.804	n/a	PROB	535402	n/a	LTP198	ltpFR	11	n/a	n/a	n/a	n/a	n/a	n/a	n/a	18	9	8	1	n/a	n/a	n/a	n/a	n/a
1072.21	n/a	PROB	536105	n/a	LTP198	ltpFR	11	n/a	n/a	n/a	n/a	n/a	n/a	n/a	12	6	5	1	n/a	n/a	n/a	n/a	n/a
1073.788	n/a	PROB	536894	n/a	LTP198	ltpFR	11	n/a	n/a	n/a	n/a	n/a	n/a	n/a	19	9	2	8	n/a	n/a	n/a	n/a	n/a
1075.828	n/a	PROB	537914	n/a	LTP198	ltpFR	11	n/a	n/a	n/a	n/a	n/a	n/a	n/a	10	1	5	4	n/a	n/a	n/a	n/a	n/a
1077.0	n/a	PROB	538500	n/a	LTP198	ltpFR	11	n/a	n/a	n/a	n/a	n/a	n/a	n/a	20	6	8	6	n/a	n/a	n/a	n/a	n/a
1078.858	n/a	PROB	539429	n/a	LTP198	ltpFR	11	n/a	n/a	n/a	n/a	n/a	n/a	n/a	16	9	3	4	n/a	n/a	n/a	n/a	n/a
1081.752	n/a	PROB	540876	n/a	LTP198	ltpFR	11	n/a	n/a	n/a	n/a	n/a	n/a	n/a	10	6	2	2	n/a	n/a	n/a	n/a	n/a
1085.942	n/a	STOP	542971	n/a	LTP198	ltpFR	11	n/a	n/a	n/a	n/a	n/a	n/a	n/a	n/a	n/a	n/a	n/a	n/a	n/a	n/a	n/a	n/a
1086.904	n/a	WORD	543452	wordpools/wasnorm_wordpool_less_exclusions.txt	LTP198	ltpFR	11	3	0	CHISEL	305	n/a	n/a	0	n/a	0	0	0	0.422607421875	0.5869140625	0	upper	zerothre.ttf
1089.916	n/a	START	544958	n/a	LTP198	ltpFR	11	n/a	n/a	n/a	n/a	n/a	n/a	n/a	n/a	n/a	n/a	n/a	n/a	n/a	n/a	n/a	n/a
1090.886	n/a	PROB	545443	n/a	LTP198	ltpFR	11	n/a	n/a	n/a	n/a	n/a	n/a	n/a	10	6	2	2	n/a	n/a	n/a	n/a	n/a
1092.386	n/a	PROB	546193	n/a	LTP198	ltpFR	11	n/a	n/a	n/a	n/a	n/a	n/a	n/a	13	2	3	8	n/a	n/a	n/a	n/a	n/a
1095.002	n/a	PROB	547501	n/a	LTP198	ltpFR	11	n/a	n/a	n/a	n/a	n/a	n/a	n/a	19	6	4	9	n/a	n/a	n/a	n/a	n/a
1097.49	n/a	PROB	548745	n/a	LTP198	ltpFR	11	n/a	n/a	n/a	n/a	n/a	n/a	n/a	17	3	6	8	n/a	n/a	n/a	n/a	n/a
1099.57	n/a	PROB	549785	n/a	LTP198	ltpFR	11	n/a	n/a	n/a	n/a	n/a	n/a	n/a	17	1	7	9	n/a	n/a	n/a	n/a	n/a
1101.756	n/a	PROB	550878	n/a	LTP198	ltpFR	11	n/a	n/a	n/a	n/a	n/a	n/a	n/a	16	7	7	2	n/a	n/a	n/a	n/a	n/a
1103.396	n/a	PROB	551698	n/a	LTP198	ltpFR	11	n/a	n/a	n/a	n/a	n/a	n/a	n/a	6	1	4	1	n/a	n/a	n/a	n/a	n/a
1104.704	n/a	STOP	552352	n/a	LTP198	ltpFR	11	n/a	n/a	n/a	n/a	n/a	n/a	n/a	n/a	n/a	n/a	n/a	n/a	n/a	n/a	n/a	n/a
1107.83	n/a	REC_START	553915	n/a	LTP198	ltpFR	11	3	n/a	n/a	n/a	n/a	n/a	n/a	n/a	0	0	0	n/a	n/a	n/a	n/a	n/a
1109.152	n/a	REC_WORD	554576	wordpools/wasnorm_wordpool_less_exclusions.txt	LTP198	ltpFR	11	3	0	MOB	904	n/a	n/a	1	n/a	0	0	0	n/a	n/a	n/a	n/a	n/a
1110.068	n/a	REC_WORD	555034	wordpools/wasnorm_wordpool_less_exclusions.txt	LTP198	ltpFR	11	3	0	SIDEWALK	1303	n/a	n/a	1	n/a	0	0	0	n/a	n/a	n/a	n/a	n/a
1111.346	n/a	REC_WORD	555673	wordpools/wasnorm_wordpool_less_exclusions.txt	LTP198	ltpFR	11	3	0	CRAB	397	n/a	n/a	0	n/a	0	0	0	n/a	n/a	n/a	n/a	n/a
1112.862	n/a	REC_WORD	556431	wordpools/wasnorm_wordpool_less_exclusions.txt	LTP198	ltpFR	11	3	0	CONTRACTOR	369	n/a	n/a	1	n/a	0	0	0	n/a	n/a	n/a	n/a	n/a
1114.274	n/a	REC_WORD	557137	wordpools/wasnorm_wordpool_less_exclusions.txt	LTP198	ltpFR	11	3	0	BLUEPRINT	142	n/a	n/a	0	n/a	0	0	0	n/a	n/a	n/a	n/a	n/a
1119.548	n/a	REC_WORD	559774	wordpools/wasnorm_wordpool_less_exclusions.txt	LTP198	ltpFR	11	3	0	MEAL	882	n/a	n/a	0	n/a	0	0	0	n/a	n/a	n/a	n/a	n/a
1120.81	n/a	REC_WORD	560405	wordpools/wasnorm_wordpool_less_exclusions.txt	LTP198	ltpFR	11	3	0	PARENT	1013	n/a	n/a	1	n/a	0	0	0	n/a	n/a	n/a	n/a	n/a
1121.924	n/a	REC_WORD	560962	wordpools/wasnorm_wordpool_less_exclusions.txt	LTP198	ltpFR	11	3	0	TUB	1514	n/a	n/a	1	n/a	0	0	0	n/a	n/a	n/a	n/a	n/a
1123.634	n/a	REC_WORD_VV	561817	wordpools/wasnorm_wordpool_less_exclusions.txt	LTP198	ltpFR	11	3	n/a	<>	-1	n/a	n/a	n/a	n/a	0	0	0	n/a	n/a	n/a	n/a	n/a
1125.506	n/a	REC_WORD	562753	wordpools/wasnorm_wordpool_less_exclusions.txt	LTP198	ltpFR	11	3	0	BANANA	77	n/a	n/a	0	n/a	0	0	0	n/a	n/a	n/a	n/a	n/a
1126.578	n/a	REC_WORD	563289	wordpools/wasnorm_wordpool_less_exclusions.txt	LTP198	ltpFR	11	3	0	SCREWDRIVER	1255	n/a	n/a	0	n/a	0	0	0	n/a	n/a	n/a	n/a	n/a
1128.498	n/a	REC_WORD	564249	wordpools/wasnorm_wordpool_less_exclusions.txt	LTP198	ltpFR	11	3	0	LIME	823	n/a	n/a	0	n/a	0	0	0	n/a	n/a	n/a	n/a	n/a
1130.538	n/a	REC_WORD	565269	wordpools/wasnorm_wordpool_less_exclusions.txt	LTP198	ltpFR	11	3	0	CHISEL	305	n/a	n/a	0	n/a	0	0	0	n/a	n/a	n/a	n/a	n/a
1131.582	n/a	REC_WORD	565791	wordpools/wasnorm_wordpool_less_exclusions.txt	LTP198	ltpFR	11	3	0	BARRACUDA	90	n/a	n/a	0	n/a	0	0	0	n/a	n/a	n/a	n/a	n/a
1192.008	n/a	START	596004	n/a	LTP198	ltpFR	11	n/a	n/a	n/a	n/a	n/a	n/a	n/a	n/a	n/a	n/a	n/a	n/a	n/a	n/a	n/a	n/a
1193.522	n/a	PROB	596761	n/a	LTP198	ltpFR	11	n/a	n/a	n/a	n/a	n/a	n/a	n/a	12	2	4	6	n/a	n/a	n/a	n/a	n/a
1194.952	n/a	PROB	597476	n/a	LTP198	ltpFR	11	n/a	n/a	n/a	n/a	n/a	n/a	n/a	16	8	5	3	n/a	n/a	n/a	n/a	n/a
1198.156	n/a	PROB	599078	n/a	LTP198	ltpFR	11	n/a	n/a	n/a	n/a	n/a	n/a	n/a	14	4	5	5	n/a	n/a	n/a	n/a	n/a
1199.358	n/a	STOP	599679	n/a	LTP198	ltpFR	11	n/a	n/a	n/a	n/a	n/a	n/a	n/a	n/a	n/a	n/a	n/a	n/a	n/a	n/a	n/a	n/a
1201.134	n/a	WORD	600567	wordpools/wasnorm_wordpool_less_exclusions.txt	LTP198	ltpFR	11	4	1	PENGUIN	1044	n/a	n/a	1	n/a	0	0	0	0.57763671875	0.412841796875	1	lower	amplitud.ttf
1204.146	n/a	START	602073	n/a	LTP198	ltpFR	11	n/a	n/a	n/a	n/a	n/a	n/a	n/a	n/a	n/a	n/a	n/a	n/a	n/a	n/a	n/a	n/a
1205.24	n/a	PROB	602620	n/a	LTP198	ltpFR	11	n/a	n/a	n/a	n/a	n/a	n/a	n/a	18	8	7	3	n/a	n/a	n/a	n/a	n/a
1206.622	n/a	PROB	603311	n/a	LTP198	ltpFR	11	n/a	n/a	n/a	n/a	n/a	n/a	n/a	15	6	1	8	n/a	n/a	n/a	n/a	n/a
1210.878	n/a	STOP	605439	n/a	LTP198	ltpFR	11	n/a	n/a	n/a	n/a	n/a	n/a	n/a	n/a	n/a	n/a	n/a	n/a	n/a	n/a	n/a	n/a
1213.154	n/a	WORD	606577	wordpools/wasnorm_wordpool_less_exclusions.txt	LTP198	ltpFR	11	4	1	CAT	257	n/a	n/a	0	n/a	0	0	0	0.57763671875	0.412841796875	1	lower	amplitud.ttf
1216.168	n/a	START	608084	n/a	LTP198	ltpFR	11	n/a	n/a	n/a	n/a	n/a	n/a	n/a	n/a	n/a	n/a	n/a	n/a	n/a	n/a	n/a	n/a
1216.986	n/a	PROB	608493	n/a	LTP198	ltpFR	11	n/a	n/a	n/a	n/a	n/a	n/a	n/a	10	3	5	2	n/a	n/a	n/a	n/a	n/a
1218.624	n/a	PROB	609312	n/a	LTP198	ltpFR	11	n/a	n/a	n/a	n/a	n/a	n/a	n/a	12	6	1	5	n/a	n/a	n/a	n/a	n/a
1220.08	n/a	PROB	610040	n/a	LTP198	ltpFR	11	n/a	n/a	n/a	n/a	n/a	n/a	n/a	20	4	9	7	n/a	n/a	n/a	n/a	n/a
1223.07	n/a	STOP	611535	n/a	LTP198	ltpFR	11	n/a	n/a	n/a	n/a	n/a	n/a	n/a	n/a	n/a	n/a	n/a	n/a	n/a	n/a	n/a	n/a
1225.016	n/a	WORD	612508	wordpools/wasnorm_wordpool_less_exclusions.txt	LTP198	ltpFR	11	4	1	RACCOON	1153	n/a	n/a	1	n/a	0	0	0	0.57763671875	0.412841796875	1	lower	amplitud.ttf
1228.028	n/a	START	614014	n/a	LTP198	ltpFR	11	n/a	n/a	n/a	n/a	n/a	n/a	n/a	n/a	n/a	n/a	n/a	n/a	n/a	n/a	n/a	n/a
1228.998	n/a	PROB	614499	n/a	LTP198	ltpFR	11	n/a	n/a	n/a	n/a	n/a	n/a	n/a	14	3	7	4	n/a	n/a	n/a	n/a	n/a
1230.448	n/a	PROB	615224	n/a	LTP198	ltpFR	11	n/a	n/a	n/a	n/a	n/a	n/a	n/a	20	8	7	5	n/a	n/a	n/a	n/a	n/a
1233.526	n/a	PROB	616763	n/a	LTP198	ltpFR	11	n/a	n/a	n/a	n/a	n/a	n/a	n/a	12	1	5	6	n/a	n/a	n/a	n/a	n/a
1234.606	n/a	STOP	617303	n/a	LTP198	ltpFR	11	n/a	n/a	n/a	n/a	n/a	n/a	n/a	n/a	n/a	n/a	n/a	n/a	n/a	n/a	n/a	n/a
1237.174	n/a	WORD	618587	wordpools/wasnorm_wordpool_less_exclusions.txt	LTP198	ltpFR	11	4	1	WINGS	1614	n/a	n/a	0	n/a	0	0	0	0.57763671875	0.412841796875	1	lower	amplitud.ttf
1240.186	n/a	START	620093	n/a	LTP198	ltpFR	11	n/a	n/a	n/a	n/a	n/a	n/a	n/a	n/a	n/a	n/a	n/a	n/a	n/a	n/a	n/a	n/a
1241.196	n/a	PROB	620598	n/a	LTP198	ltpFR	11	n/a	n/a	n/a	n/a	n/a	n/a	n/a	7	1	1	5	n/a	n/a	n/a	n/a	n/a
1243.62	n/a	PROB	621810	n/a	LTP198	ltpFR	11	n/a	n/a	n/a	n/a	n/a	n/a	n/a	19	9	6	4	n/a	n/a	n/a	n/a	n/a
1245.672	n/a	PROB	622836	n/a	LTP198	ltpFR	11	n/a	n/a	n/a	n/a	n/a	n/a	n/a	16	8	1	9	n/a	n/a	n/a	n/a	n/a
1247.11	n/a	STOP	623555	n/a	LTP198	ltpFR	11	n/a	n/a	n/a	n/a	n/a	n/a	n/a	n/a	n/a	n/a	n/a	n/a	n/a	n/a	n/a	n/a
1249.118	n/a	WORD	624559	wordpools/wasnorm_wordpool_less_exclusions.txt	LTP198	ltpFR	11	4	1	GLACIER	638	n/a	n/a	0	n/a	0	0	0	0.57763671875	0.412841796875	1	lower	amplitud.ttf
1252.13	n/a	START	626065	n/a	LTP198	ltpFR	11	n/a	n/a	n/a	n/a	n/a	n/a	n/a	n/a	n/a	n/a	n/a	n/a	n/a	n/a	n/a	n/a
1260.13	n/a	STOP	630065	n/a	LTP198	ltpFR	11	n/a	n/a	n/a	n/a	n/a	n/a	n/a	n/a	n/a	n/a	n/a	n/a	n/a	n/a	n/a	n/a
1261.288	n/a	WORD	630644	wordpools/wasnorm_wordpool_less_exclusions.txt	LTP198	ltpFR	11	4	1	BEARD	107	n/a	n/a	0	n/a	0	0	0	0.57763671875	0.412841796875	1	lower	amplitud.ttf
1264.3	n/a	START	632150	n/a	LTP198	ltpFR	11	n/a	n/a	n/a	n/a	n/a	n/a	n/a	n/a	n/a	n/a	n/a	n/a	n/a	n/a	n/a	n/a
1265.514	n/a	PROB	632757	n/a	LTP198	ltpFR	11	n/a	n/a	n/a	n/a	n/a	n/a	n/a	15	6	7	2	n/a	n/a	n/a	n/a	n/a
1267.338	n/a	PROB	633669	n/a	LTP198	ltpFR	11	n/a	n/a	n/a	n/a	n/a	n/a	n/a	13	1	7	5	n/a	n/a	n/a	n/a	n/a
1269.864	n/a	PROB	634932	n/a	LTP198	ltpFR	11	n/a	n/a	n/a	n/a	n/a	n/a	n/a	19	8	2	9	n/a	n/a	n/a	n/a	n/a
1271.322	n/a	STOP	635661	n/a	LTP198	ltpFR	11	n/a	n/a	n/a	n/a	n/a	n/a	n/a	n/a	n/a	n/a	n/a	n/a	n/a	n/a	n/a	n/a
1273.234	n/a	WORD	636617	wordpools/wasnorm_wordpool_less_exclusions.txt	LTP198	ltpFR	11	4	1	PUDDLE	1140	n/a	n/a	0	n/a	0	0	0	0.57763671875	0.412841796875	1	lower	amplitud.ttf
1276.246	n/a	START	638123	n/a	LTP198	ltpFR	11	n/a	n/a	n/a	n/a	n/a	n/a	n/a	n/a	n/a	n/a	n/a	n/a	n/a	n/a	n/a	n/a
1277.444	n/a	PROB	638722	n/a	LTP198	ltpFR	11	n/a	n/a	n/a	n/a	n/a	n/a	n/a	20	9	4	7	n/a	n/a	n/a	n/a	n/a
1279.334	n/a	PROB	639667	n/a	LTP198	ltpFR	11	n/a	n/a	n/a	n/a	n/a	n/a	n/a	27	9	9	9	n/a	n/a	n/a	n/a	n/a
1282.1	n/a	PROB	641050	n/a	LTP198	ltpFR	11	n/a	n/a	n/a	n/a	n/a	n/a	n/a	8	2	1	5	n/a	n/a	n/a	n/a	n/a
1284.048	n/a	STOP	642024	n/a	LTP198	ltpFR	11	n/a	n/a	n/a	n/a	n/a	n/a	n/a	n/a	n/a	n/a	n/a	n/a	n/a	n/a	n/a	n/a
1285.156	n/a	WORD	642578	wordpools/wasnorm_wordpool_less_exclusions.txt	LTP198	ltpFR	11	4	1	GRADUATE	653	n/a	n/a	0	n/a	0	0	0	0.57763671875	0.412841796875	1	lower	amplitud.ttf
1288.17	n/a	START	644085	n/a	LTP198	ltpFR	11	n/a	n/a	n/a	n/a	n/a	n/a	n/a	n/a	n/a	n/a	n/a	n/a	n/a	n/a	n/a	n/a
1289.01	n/a	PROB	644505	n/a	LTP198	ltpFR	11	n/a	n/a	n/a	n/a	n/a	n/a	n/a	20	9	9	2	n/a	n/a	n/a	n/a	n/a
1290.768	n/a	PROB	645384	n/a	LTP198	ltpFR	11	n/a	n/a	n/a	n/a	n/a	n/a	n/a	12	7	3	2	n/a	n/a	n/a	n/a	n/a
1293.086	n/a	PROB	646543	n/a	LTP198	ltpFR	11	n/a	n/a	n/a	n/a	n/a	n/a	n/a	18	6	4	8	n/a	n/a	n/a	n/a	n/a
1294.532	n/a	PROB	647266	n/a	LTP198	ltpFR	11	n/a	n/a	n/a	n/a	n/a	n/a	n/a	18	7	2	9	n/a	n/a	n/a	n/a	n/a
1296.05	n/a	STOP	648025	n/a	LTP198	ltpFR	11	n/a	n/a	n/a	n/a	n/a	n/a	n/a	n/a	n/a	n/a	n/a	n/a	n/a	n/a	n/a	n/a
1297.36	n/a	WORD	648680	wordpools/wasnorm_wordpool_less_exclusions.txt	LTP198	ltpFR	11	4	1	FACE	547	n/a	n/a	0	n/a	0	0	0	0.57763671875	0.412841796875	1	lower	amplitud.ttf
1300.372	n/a	START	650186	n/a	LTP198	ltpFR	11	n/a	n/a	n/a	n/a	n/a	n/a	n/a	n/a	n/a	n/a	n/a	n/a	n/a	n/a	n/a	n/a
1301.474	n/a	PROB	650737	n/a	LTP198	ltpFR	11	n/a	n/a	n/a	n/a	n/a	n/a	n/a	7	2	2	3	n/a	n/a	n/a	n/a	n/a
1304.262	n/a	PROB	652131	n/a	LTP198	ltpFR	11	n/a	n/a	n/a	n/a	n/a	n/a	n/a	12	3	7	2	n/a	n/a	n/a	n/a	n/a
1305.724	n/a	PROB	652862	n/a	LTP198	ltpFR	11	n/a	n/a	n/a	n/a	n/a	n/a	n/a	11	1	1	9	n/a	n/a	n/a	n/a	n/a
1306.914	n/a	STOP	653457	n/a	LTP198	ltpFR	11	n/a	n/a	n/a	n/a	n/a	n/a	n/a	n/a	n/a	n/a	n/a	n/a	n/a	n/a	n/a	n/a
1309.322	n/a	WORD	654661	wordpools/wasnorm_wordpool_less_exclusions.txt	LTP198	ltpFR	11	4	1	CONTAINER	366	n/a	n/a	0	n/a	0	0	0	0.57763671875	0.412841796875	1	lower	amplitud.ttf
1312.334	n/a	START	656167	n/a	LTP198	ltpFR	11	n/a	n/a	n/a	n/a	n/a	n/a	n/a	n/a	n/a	n/a	n/a	n/a	n/a	n/a	n/a	n/a
1313.23	n/a	PROB	656615	n/a	LTP198	ltpFR	11	n/a	n/a	n/a	n/a	n/a	n/a	n/a	22	6	7	9	n/a	n/a	n/a	n/a	n/a
1319.204	n/a	STOP	659602	n/a	LTP198	ltpFR	11	n/a	n/a	n/a	n/a	n/a	n/a	n/a	n/a	n/a	n/a	n/a	n/a	n/a	n/a	n/a	n/a
1321.178	n/a	WORD	660589	wordpools/wasnorm_wordpool_less_exclusions.txt	LTP198	ltpFR	11	4	1	CUP	424	n/a	n/a	0	n/a	0	0	0	0.57763671875	0.412841796875	1	lower	amplitud.ttf
1324.19	n/a	START	662095	n/a	LTP198	ltpFR	11	n/a	n/a	n/a	n/a	n/a	n/a	n/a	n/a	n/a	n/a	n/a	n/a	n/a	n/a	n/a	n/a
1325.042	n/a	PROB	662521	n/a	LTP198	ltpFR	11	n/a	n/a	n/a	n/a	n/a	n/a	n/a	14	4	8	4	n/a	n/a	n/a	n/a	n/a
1327.15	n/a	PROB	663575	n/a	LTP198	ltpFR	11	n/a	n/a	n/a	n/a	n/a	n/a	n/a	16	3	4	9	n/a	n/a	n/a	n/a	n/a
1329.476	n/a	PROB	664738	n/a	LTP198	ltpFR	11	n/a	n/a	n/a	n/a	n/a	n/a	n/a	23	9	8	7	n/a	n/a	n/a	n/a	n/a
1331.996	n/a	STOP	665998	n/a	LTP198	ltpFR	11	n/a	n/a	n/a	n/a	n/a	n/a	n/a	n/a	n/a	n/a	n/a	n/a	n/a	n/a	n/a	n/a
1333.314	n/a	WORD	666657	wordpools/wasnorm_wordpool_less_exclusions.txt	LTP198	ltpFR	11	4	1	NEST	945	n/a	n/a	0	n/a	0	0	0	0.57763671875	0.412841796875	1	lower	amplitud.ttf
1336.326	n/a	START	668163	n/a	LTP198	ltpFR	11	n/a	n/a	n/a	n/a	n/a	n/a	n/a	n/a	n/a	n/a	n/a	n/a	n/a	n/a	n/a	n/a
1337.446	n/a	PROB	668723	n/a	LTP198	ltpFR	11	n/a	n/a	n/a	n/a	n/a	n/a	n/a	8	2	1	5	n/a	n/a	n/a	n/a	n/a
1340.072	n/a	PROB	670036	n/a	LTP198	ltpFR	11	n/a	n/a	n/a	n/a	n/a	n/a	n/a	21	5	9	7	n/a	n/a	n/a	n/a	n/a
1344.182	n/a	STOP	672091	n/a	LTP198	ltpFR	11	n/a	n/a	n/a	n/a	n/a	n/a	n/a	n/a	n/a	n/a	n/a	n/a	n/a	n/a	n/a	n/a
1345.158	n/a	WORD	672579	wordpools/wasnorm_wordpool_less_exclusions.txt	LTP198	ltpFR	11	4	1	SPARROW	1347	n/a	n/a	1	n/a	0	0	0	0.57763671875	0.412841796875	1	lower	amplitud.ttf
1348.172	n/a	START	674086	n/a	LTP198	ltpFR	11	n/a	n/a	n/a	n/a	n/a	n/a	n/a	n/a	n/a	n/a	n/a	n/a	n/a	n/a	n/a	n/a
1349.268	n/a	PROB	674634	n/a	LTP198	ltpFR	11	n/a	n/a	n/a	n/a	n/a	n/a	n/a	19	8	9	2	n/a	n/a	n/a	n/a	n/a
1351.276	n/a	PROB	675638	n/a	LTP198	ltpFR	11	n/a	n/a	n/a	n/a	n/a	n/a	n/a	7	1	3	3	n/a	n/a	n/a	n/a	n/a
1352.982	n/a	PROB	676491	n/a	LTP198	ltpFR	11	n/a	n/a	n/a	n/a	n/a	n/a	n/a	24	9	9	6	n/a	n/a	n/a	n/a	n/a
1354.956	n/a	STOP	677478	n/a	LTP198	ltpFR	11	n/a	n/a	n/a	n/a	n/a	n/a	n/a	n/a	n/a	n/a	n/a	n/a	n/a	n/a	n/a	n/a
1357.182	n/a	WORD	678591	wordpools/wasnorm_wordpool_less_exclusions.txt	LTP198	ltpFR	11	4	1	HOUND	724	n/a	n/a	1	n/a	0	0	0	0.57763671875	0.412841796875	1	lower	amplitud.ttf
1360.194	n/a	START	680097	n/a	LTP198	ltpFR	11	n/a	n/a	n/a	n/a	n/a	n/a	n/a	n/a	n/a	n/a	n/a	n/a	n/a	n/a	n/a	n/a
1361.052	n/a	PROB	680526	n/a	LTP198	ltpFR	11	n/a	n/a	n/a	n/a	n/a	n/a	n/a	18	6	7	5	n/a	n/a	n/a	n/a	n/a
1365.078	n/a	PROB	682539	n/a	LTP198	ltpFR	11	n/a	n/a	n/a	n/a	n/a	n/a	n/a	10	4	1	5	n/a	n/a	n/a	n/a	n/a
1366.384	n/a	PROB	683192	n/a	LTP198	ltpFR	11	n/a	n/a	n/a	n/a	n/a	n/a	n/a	9	5	3	1	n/a	n/a	n/a	n/a	n/a
1367.974	n/a	STOP	683987	n/a	LTP198	ltpFR	11	n/a	n/a	n/a	n/a	n/a	n/a	n/a	n/a	n/a	n/a	n/a	n/a	n/a	n/a	n/a	n/a
1369.1	n/a	WORD	684550	wordpools/wasnorm_wordpool_less_exclusions.txt	LTP198	ltpFR	11	4	1	BOXER	160	n/a	n/a	1	n/a	0	0	0	0.57763671875	0.412841796875	1	lower	amplitud.ttf
1372.112	n/a	START	686056	n/a	LTP198	ltpFR	11	n/a	n/a	n/a	n/a	n/a	n/a	n/a	n/a	n/a	n/a	n/a	n/a	n/a	n/a	n/a	n/a
1372.948	n/a	PROB	686474	n/a	LTP198	ltpFR	11	n/a	n/a	n/a	n/a	n/a	n/a	n/a	11	3	6	2	n/a	n/a	n/a	n/a	n/a
1374.732	n/a	PROB	687366	n/a	LTP198	ltpFR	11	n/a	n/a	n/a	n/a	n/a	n/a	n/a	12	9	1	2	n/a	n/a	n/a	n/a	n/a
1375.852	n/a	PROB	687926	n/a	LTP198	ltpFR	11	n/a	n/a	n/a	n/a	n/a	n/a	n/a	22	8	8	6	n/a	n/a	n/a	n/a	n/a
1378.87	n/a	STOP	689435	n/a	LTP198	ltpFR	11	n/a	n/a	n/a	n/a	n/a	n/a	n/a	n/a	n/a	n/a	n/a	n/a	n/a	n/a	n/a	n/a
1381.18	n/a	WORD	690590	wordpools/wasnorm_wordpool_less_exclusions.txt	LTP198	ltpFR	11	4	1	SEAGULL	1261	n/a	n/a	1	n/a	0	0	0	0.57763671875	0.412841796875	1	lower	amplitud.ttf
1384.192	n/a	START	692096	n/a	LTP198	ltpFR	11	n/a	n/a	n/a	n/a	n/a	n/a	n/a	n/a	n/a	n/a	n/a	n/a	n/a	n/a	n/a	n/a
1385.306	n/a	PROB	692653	n/a	LTP198	ltpFR	11	n/a	n/a	n/a	n/a	n/a	n/a	n/a	22	7	6	9	n/a	n/a	n/a	n/a	n/a
1390.348	n/a	PROB	695174	n/a	LTP198	ltpFR	11	n/a	n/a	n/a	n/a	n/a	n/a	n/a	11	5	5	1	n/a	n/a	n/a	n/a	n/a
1391.384	n/a	STOP	695692	n/a	LTP198	ltpFR	11	n/a	n/a	n/a	n/a	n/a	n/a	n/a	n/a	n/a	n/a	n/a	n/a	n/a	n/a	n/a	n/a
1394.072	n/a	REC_START	697036	n/a	LTP198	ltpFR	11	4	n/a	n/a	n/a	n/a	n/a	n/a	n/a	0	0	0	n/a	n/a	n/a	n/a	n/a
1397.444	n/a	REC_WORD	698722	wordpools/wasnorm_wordpool_less_exclusions.txt	LTP198	ltpFR	11	4	1	PENGUIN	1044	n/a	n/a	1	n/a	0	0	0	n/a	n/a	n/a	n/a	n/a
1398.448	n/a	REC_WORD	699224	wordpools/wasnorm_wordpool_less_exclusions.txt	LTP198	ltpFR	11	4	1	WINGS	1614	n/a	n/a	0	n/a	0	0	0	n/a	n/a	n/a	n/a	n/a
1399.386	n/a	REC_WORD	699693	wordpools/wasnorm_wordpool_less_exclusions.txt	LTP198	ltpFR	11	4	1	RACCOON	1153	n/a	n/a	1	n/a	0	0	0	n/a	n/a	n/a	n/a	n/a
1400.668	n/a	REC_WORD	700334	wordpools/wasnorm_wordpool_less_exclusions.txt	LTP198	ltpFR	11	4	1	BEARD	107	n/a	n/a	0	n/a	0	0	0	n/a	n/a	n/a	n/a	n/a
1402.34	n/a	REC_WORD	701170	wordpools/wasnorm_wordpool_less_exclusions.txt	LTP198	ltpFR	11	4	1	SPARROW	1347	n/a	n/a	1	n/a	0	0	0	n/a	n/a	n/a	n/a	n/a
1403.506	n/a	REC_WORD	701753	wordpools/wasnorm_wordpool_less_exclusions.txt	LTP198	ltpFR	11	4	1	NEST	945	n/a	n/a	0	n/a	0	0	0	n/a	n/a	n/a	n/a	n/a
1404.574	n/a	REC_WORD	702287	wordpools/wasnorm_wordpool_less_exclusions.txt	LTP198	ltpFR	11	4	1	GRADUATE	653	n/a	n/a	0	n/a	0	0	0	n/a	n/a	n/a	n/a	n/a
1405.618	n/a	REC_WORD	702809	wordpools/wasnorm_wordpool_less_exclusions.txt	LTP198	ltpFR	11	4	1	CAT	257	n/a	n/a	0	n/a	0	0	0	n/a	n/a	n/a	n/a	n/a
1407.752	n/a	REC_WORD	703876	wordpools/wasnorm_wordpool_less_exclusions.txt	LTP198	ltpFR	11	4	1	GLACIER	638	n/a	n/a	0	n/a	0	0	0	n/a	n/a	n/a	n/a	n/a
1408.834	n/a	REC_WORD	704417	wordpools/wasnorm_wordpool_less_exclusions.txt	LTP198	ltpFR	11	4	1	PUDDLE	1140	n/a	n/a	0	n/a	0	0	0	n/a	n/a	n/a	n/a	n/a
1410.008	n/a	REC_WORD	705004	wordpools/wasnorm_wordpool_less_exclusions.txt	LTP198	ltpFR	11	4	1	CUP	424	n/a	n/a	0	n/a	0	0	0	n/a	n/a	n/a	n/a	n/a
1410.96	n/a	REC_WORD	705480	wordpools/wasnorm_wordpool_less_exclusions.txt	LTP198	ltpFR	11	4	1	FACE	547	n/a	n/a	0	n/a	0	0	0	n/a	n/a	n/a	n/a	n/a
1413.484	n/a	REC_WORD	706742	wordpools/wasnorm_wordpool_less_exclusions.txt	LTP198	ltpFR	11	4	1	BOXER	160	n/a	n/a	1	n/a	0	0	0	n/a	n/a	n/a	n/a	n/a
1414.86	n/a	REC_WORD	707430	wordpools/wasnorm_wordpool_less_exclusions.txt	LTP198	ltpFR	11	4	1	HOUND	724	n/a	n/a	1	n/a	0	0	0	n/a	n/a	n/a	n/a	n/a
1537.62	n/a	WORD	768810	wordpools/wasnorm_wordpool_less_exclusions.txt	LTP198	ltpFR	11	5	0	GUM	672	n/a	n/a	0	n/a	0	0	0	0.422607421875	0.5869140625	0	upper	zerothre.ttf
1541.76	n/a	WORD	770880	wordpools/wasnorm_wordpool_less_exclusions.txt	LTP198	ltpFR	11	5	0	LITERATURE	831	n/a	n/a	1	n/a	0	0	0	0.422607421875	0.5869140625	0	upper	zerothre.ttf
1545.708	n/a	WORD	772854	wordpools/wasnorm_wordpool_less_exclusions.txt	LTP198	ltpFR	11	5	0	ROAD	1196	n/a	n/a	1	n/a	0	0	0	0.422607421875	0.5869140625	0	upper	zerothre.ttf
1549.906	n/a	WORD	774953	wordpools/wasnorm_wordpool_less_exclusions.txt	LTP198	ltpFR	11	5	0	BANDANNA	80	n/a	n/a	0	n/a	0	0	0	0.422607421875	0.5869140625	0	upper	zerothre.ttf
1553.772	n/a	WORD	776886	wordpools/wasnorm_wordpool_less_exclusions.txt	LTP198	ltpFR	11	5	0	CHEEK	287	n/a	n/a	0	n/a	0	0	0	0.422607421875	0.5869140625	0	upper	zerothre.ttf
1557.804	n/a	WORD	778902	wordpools/wasnorm_wordpool_less_exclusions.txt	LTP198	ltpFR	11	5	0	MOLECULE	905	n/a	n/a	0	n/a	0	0	0	0.422607421875	0.5869140625	0	upper	zerothre.ttf
1561.636	n/a	WORD	780818	wordpools/wasnorm_wordpool_less_exclusions.txt	LTP198	ltpFR	11	5	0	BIOLOGIST	128	n/a	n/a	1	n/a	0	0	0	0.422607421875	0.5869140625	0	upper	zerothre.ttf
1565.5	n/a	WORD	782750	wordpools/wasnorm_wordpool_less_exclusions.txt	LTP198	ltpFR	11	5	0	FLOWER	584	n/a	n/a	0	n/a	0	0	0	0.422607421875	0.5869140625	0	upper	zerothre.ttf
1569.576	n/a	WORD	784788	wordpools/wasnorm_wordpool_less_exclusions.txt	LTP198	ltpFR	11	5	0	HAYSTACK	694	n/a	n/a	1	n/a	0	0	0	0.422607421875	0.5869140625	0	upper	zerothre.ttf
1573.548	n/a	WORD	786774	wordpools/wasnorm_wordpool_less_exclusions.txt	LTP198	ltpFR	11	5	0	DISC	473	n/a	n/a	0	n/a	0	0	0	0.422607421875	0.5869140625	0	upper	zerothre.ttf
1577.458	n/a	WORD	788729	wordpools/wasnorm_wordpool_less_exclusions.txt	LTP198	ltpFR	11	5	0	LOLLIPOP	842	n/a	n/a	0	n/a	0	0	0	0.422607421875	0.5869140625	0	upper	zerothre.ttf
1581.628	n/a	WORD	790814	wordpools/wasnorm_wordpool_less_exclusions.txt	LTP198	ltpFR	11	5	0	DAISY	435	n/a	n/a	0	n/a	0	0	0	0.422607421875	0.5869140625	0	upper	zerothre.ttf
1585.51	n/a	WORD	792755	wordpools/wasnorm_wordpool_less_exclusions.txt	LTP198	ltpFR	11	5	0	SCROLL	1257	n/a	n/a	0	n/a	0	0	0	0.422607421875	0.5869140625	0	upper	zerothre.ttf
1589.626	n/a	WORD	794813	wordpools/wasnorm_wordpool_less_exclusions.txt	LTP198	ltpFR	11	5	0	GUEST	669	n/a	n/a	1	n/a	0	0	0	0.422607421875	0.5869140625	0	upper	zerothre.ttf
1593.658	n/a	WORD	796829	wordpools/wasnorm_wordpool_less_exclusions.txt	LTP198	ltpFR	11	5	0	BUS	201	n/a	n/a	1	n/a	0	0	0	0.422607421875	0.5869140625	0	upper	zerothre.ttf
1597.65	n/a	WORD	798825	wordpools/wasnorm_wordpool_less_exclusions.txt	LTP198	ltpFR	11	5	0	VEHICLE	1553	n/a	n/a	1	n/a	0	0	0	0.422607421875	0.5869140625	0	upper	zerothre.ttf
1603.674	n/a	REC_START	801837	n/a	LTP198	ltpFR	11	5	n/a	n/a	n/a	n/a	n/a	n/a	n/a	0	0	0	n/a	n/a	n/a	n/a	n/a
1604.886	n/a	REC_WORD	802443	wordpools/wasnorm_wordpool_less_exclusions.txt	LTP198	ltpFR	11	5	0	GUM	672	n/a	n/a	0	n/a	0	0	0	n/a	n/a	n/a	n/a	n/a
1605.764	n/a	REC_WORD	802882	wordpools/wasnorm_wordpool_less_exclusions.txt	LTP198	ltpFR	11	5	0	LITERATURE	831	n/a	n/a	1	n/a	0	0	0	n/a	n/a	n/a	n/a	n/a
1606.886	n/a	REC_WORD	803443	wordpools/wasnorm_wordpool_less_exclusions.txt	LTP198	ltpFR	11	5	0	ROAD	1196	n/a	n/a	1	n/a	0	0	0	n/a	n/a	n/a	n/a	n/a
1607.868	n/a	REC_WORD	803934	wordpools/wasnorm_wordpool_less_exclusions.txt	LTP198	ltpFR	11	5	0	CHEEK	287	n/a	n/a	0	n/a	0	0	0	n/a	n/a	n/a	n/a	n/a
1608.742	n/a	REC_WORD	804371	wordpools/wasnorm_wordpool_less_exclusions.txt	LTP198	ltpFR	11	5	0	BIOLOGIST	128	n/a	n/a	1	n/a	0	0	0	n/a	n/a	n/a	n/a	n/a
1609.75	n/a	REC_WORD	804875	wordpools/wasnorm_wordpool_less_exclusions.txt	LTP198	ltpFR	11	5	0	FLOWER	584	n/a	n/a	0	n/a	0	0	0	n/a	n/a	n/a	n/a	n/a
1610.748	n/a	REC_WORD	805374	wordpools/wasnorm_wordpool_less_exclusions.txt	LTP198	ltpFR	11	5	0	DAISY	435	n/a	n/a	0	n/a	0	0	0	n/a	n/a	n/a	n/a	n/a
1611.76	n/a	REC_WORD	805880	wordpools/wasnorm_wordpool_less_exclusions.txt	LTP198	ltpFR	11	5	0	DISC	473	n/a	n/a	0	n/a	0	0	0	n/a	n/a	n/a	n/a	n/a
1612.788	n/a	REC_WORD	806394	wordpools/wasnorm_wordpool_less_exclusions.txt	LTP198	ltpFR	11	5	0	VEHICLE	1553	n/a	n/a	1	n/a	0	0	0	n/a	n/a	n/a	n/a	n/a
1613.876	n/a	REC_WORD	806938	wordpools/wasnorm_wordpool_less_exclusions.txt	LTP198	ltpFR	11	5	0	BUS	201	n/a	n/a	1	n/a	0	0	0	n/a	n/a	n/a	n/a	n/a
1614.918	n/a	REC_WORD	807459	wordpools/wasnorm_wordpool_less_exclusions.txt	LTP198	ltpFR	11	5	0	GUEST	669	n/a	n/a	1	n/a	0	0	0	n/a	n/a	n/a	n/a	n/a
1615.862	n/a	REC_WORD	807931	wordpools/wasnorm_wordpool_less_exclusions.txt	LTP198	ltpFR	11	5	0	HAYSTACK	694	n/a	n/a	1	n/a	0	0	0	n/a	n/a	n/a	n/a	n/a
1617.876	n/a	REC_WORD	808938	wordpools/wasnorm_wordpool_less_exclusions.txt	LTP198	ltpFR	11	5	0	SCROLL	1257	n/a	n/a	0	n/a	0	0	0	n/a	n/a	n/a	n/a	n/a
1626.148	n/a	REC_WORD	813074	wordpools/wasnorm_wordpool_less_exclusions.txt	LTP198	ltpFR	11	5	0	BANDANNA	80	n/a	n/a	0	n/a	0	0	0	n/a	n/a	n/a	n/a	n/a
1628.098	n/a	REC_WORD	814049	wordpools/wasnorm_wordpool_less_exclusions.txt	LTP198	ltpFR	11	5	0	MOLECULE	905	n/a	n/a	0	n/a	0	0	0	n/a	n/a	n/a	n/a	n/a
1733.0	n/a	WORD	866500	wordpools/wasnorm_wordpool_less_exclusions.txt	LTP198	ltpFR	11	6	1	SERVER	1272	n/a	n/a	1	n/a	0	0	0	0.57763671875	0.412841796875	1	lower	amplitud.ttf
1737.106	n/a	WORD	868553	wordpools/wasnorm_wordpool_less_exclusions.txt	LTP198	ltpFR	11	6	1	OFFICER	973	n/a	n/a	1	n/a	0	0	0	0.57763671875	0.412841796875	1	lower	amplitud.ttf
1741.036	n/a	WORD	870518	wordpools/wasnorm_wordpool_less_exclusions.txt	LTP198	ltpFR	11	6	1	ENGINE	535	n/a	n/a	0	n/a	0	0	0	0.57763671875	0.412841796875	1	lower	amplitud.ttf
1744.996	n/a	WORD	872498	wordpools/wasnorm_wordpool_less_exclusions.txt	LTP198	ltpFR	11	6	1	BUTTERFLY	206	n/a	n/a	1	n/a	0	0	0	0.57763671875	0.412841796875	1	lower	amplitud.ttf
1749.152	n/a	WORD	874576	wordpools/wasnorm_wordpool_less_exclusions.txt	LTP198	ltpFR	11	6	0	PLUM	1090	n/a	n/a	0	n/a	0	0	0	0.422607421875	0.5869140625	0	upper	zerothre.ttf
1753.196	n/a	WORD	876598	wordpools/wasnorm_wordpool_less_exclusions.txt	LTP198	ltpFR	11	6	0	WORLD	1622	n/a	n/a	1	n/a	0	0	0	0.422607421875	0.5869140625	0	upper	zerothre.ttf
1757.4	n/a	WORD	878700	wordpools/wasnorm_wordpool_less_exclusions.txt	LTP198	ltpFR	11	6	0	ATLAS	53	n/a	n/a	1	n/a	0	0	0	0.422607421875	0.5869140625	0	upper	zerothre.ttf
1761.232	n/a	WORD	880616	wordpools/wasnorm_wordpool_less_exclusions.txt	LTP198	ltpFR	11	6	0	DOUGHNUT	490	n/a	n/a	0	n/a	0	0	0	0.422607421875	0.5869140625	0	upper	zerothre.ttf
1765.426	n/a	WORD	882713	wordpools/wasnorm_wordpool_less_exclusions.txt	LTP198	ltpFR	11	6	0	SAUSAGE	1238	n/a	n/a	0	n/a	0	0	0	0.422607421875	0.5869140625	0	upper	zerothre.ttf
1769.53	n/a	WORD	884765	wordpools/wasnorm_wordpool_less_exclusions.txt	LTP198	ltpFR	11	6	0	SWITCH	1422	n/a	n/a	0	n/a	0	0	0	0.422607421875	0.5869140625	0	upper	zerothre.ttf
1773.478	n/a	WORD	886739	wordpools/wasnorm_wordpool_less_exclusions.txt	LTP198	ltpFR	11	6	1	PEAR	1033	n/a	n/a	0	n/a	0	0	0	0.57763671875	0.412841796875	1	lower	amplitud.ttf
1777.36	n/a	WORD	888680	wordpools/wasnorm_wordpool_less_exclusions.txt	LTP198	ltpFR	11	6	1	ANT	25	n/a	n/a	1	n/a	0	0	0	0.57763671875	0.412841796875	1	lower	amplitud.ttf
1781.502	n/a	WORD	890751	wordpools/wasnorm_wordpool_less_exclusions.txt	LTP198	ltpFR	11	6	1	WILDERNESS	1610	n/a	n/a	1	n/a	0	0	0	0.57763671875	0.412841796875	1	lower	amplitud.ttf
1785.674	n/a	WORD	892837	wordpools/wasnorm_wordpool_less_exclusions.txt	LTP198	ltpFR	11	6	1	HOE	711	n/a	n/a	0	n/a	0	0	0	0.57763671875	0.412841796875	1	lower	amplitud.ttf
1789.522	n/a	WORD	894761	wordpools/wasnorm_wordpool_less_exclusions.txt	LTP198	ltpFR	11	6	0	FARMER	553	n/a	n/a	1	n/a	0	0	0	0.422607421875	0.5869140625	0	upper	zerothre.ttf
1793.672	n/a	WORD	896836	wordpools/wasnorm_wordpool_less_exclusions.txt	LTP198	ltpFR	11	6	0	SPINACH	1352	n/a	n/a	0	n/a	0	0	0	0.422607421875	0.5869140625	0	upper	zerothre.ttf
1796.684	n/a	START	898342	n/a	LTP198	ltpFR	11	n/a	n/a	n/a	n/a	n/a	n/a	n/a	n/a	n/a	n/a	n/a	n/a	n/a	n/a	n/a	n/a
1797.698	n/a	PROB	898849	n/a	LTP198	ltpFR	11	n/a	n/a	n/a	n/a	n/a	n/a	n/a	14	5	2	7	n/a	n/a	n/a	n/a	n/a
1800.114	n/a	PROB	900057	n/a	LTP198	ltpFR	11	n/a	n/a	n/a	n/a	n/a	n/a	n/a	20	5	9	6	n/a	n/a	n/a	n/a	n/a
1804.676	n/a	STOP	902338	n/a	LTP198	ltpFR	11	n/a	n/a	n/a	n/a	n/a	n/a	n/a	n/a	n/a	n/a	n/a	n/a	n/a	n/a	n/a	n/a
1806.6	n/a	REC_START	903300	n/a	LTP198	ltpFR	11	6	n/a	n/a	n/a	n/a	n/a	n/a	n/a	0	0	0	n/a	n/a	n/a	n/a	n/a
1807.132	n/a	REC_WORD	903566	wordpools/wasnorm_wordpool_less_exclusions.txt	LTP198	ltpFR	11	6	0	FARMER	553	n/a	n/a	1	n/a	0	0	0	n/a	n/a	n/a	n/a	n/a
1808.15	n/a	REC_WORD	904075	wordpools/wasnorm_wordpool_less_exclusions.txt	LTP198	ltpFR	11	6	1	HOE	711	n/a	n/a	0	n/a	0	0	0	n/a	n/a	n/a	n/a	n/a
1809.254	n/a	REC_WORD	904627	wordpools/wasnorm_wordpool_less_exclusions.txt	LTP198	ltpFR	11	6	1	OFFICER	973	n/a	n/a	1	n/a	0	0	0	n/a	n/a	n/a	n/a	n/a
1810.39	n/a	REC_WORD	905195	wordpools/wasnorm_wordpool_less_exclusions.txt	LTP198	ltpFR	11	6	0	PLUM	1090	n/a	n/a	0	n/a	0	0	0	n/a	n/a	n/a	n/a	n/a
1811.394	n/a	REC_WORD	905697	wordpools/wasnorm_wordpool_less_exclusions.txt	LTP198	ltpFR	11	6	1	SERVER	1272	n/a	n/a	1	n/a	0	0	0	n/a	n/a	n/a	n/a	n/a
1812.466	n/a	REC_WORD	906233	wordpools/wasnorm_wordpool_less_exclusions.txt	LTP198	ltpFR	11	6	1	ENGINE	535	n/a	n/a	0	n/a	0	0	0	n/a	n/a	n/a	n/a	n/a
1813.348	n/a	REC_WORD	906674	wordpools/wasnorm_wordpool_less_exclusions.txt	LTP198	ltpFR	11	6	0	SWITCH	1422	n/a	n/a	0	n/a	0	0	0	n/a	n/a	n/a	n/a	n/a
1814.686	n/a	REC_WORD	907343	wordpools/wasnorm_wordpool_less_exclusions.txt	LTP198	ltpFR	11	6	0	WORLD	1622	n/a	n/a	1	n/a	0	0	0	n/a	n/a	n/a	n/a	n/a
1815.728	n/a	REC_WORD	907864	wordpools/wasnorm_wordpool_less_exclusions.txt	LTP198	ltpFR	11	6	0	ATLAS	53	n/a	n/a	1	n/a	0	0	0	n/a	n/a	n/a	n/a	n/a
1816.836	n/a	REC_WORD	908418	wordpools/wasnorm_wordpool_less_exclusions.txt	LTP198	ltpFR	11	6	0	DOUGHNUT	490	n/a	n/a	0	n/a	0	0	0	n/a	n/a	n/a	n/a	n/a
1817.634	n/a	REC_WORD	908817	wordpools/wasnorm_wordpool_less_exclusions.txt	LTP198	ltpFR	11	6	0	SAUSAGE	1238	n/a	n/a	0	n/a	0	0	0	n/a	n/a	n/a	n/a	n/a
1819.916	n/a	REC_WORD	909958	wordpools/wasnorm_wordpool_less_exclusions.txt	LTP198	ltpFR	11	6	1	BUTTERFLY	206	n/a	n/a	1	n/a	0	0	0	n/a	n/a	n/a	n/a	n/a
1901.578	n/a	WORD	950789	wordpools/wasnorm_wordpool_less_exclusions.txt	LTP198	ltpFR	11	7	1	PAVEMENT	1028	n/a	n/a	0	n/a	0	0	0	0.57763671875	0.412841796875	1	lower	amplitud.ttf
1905.516	n/a	WORD	952758	wordpools/wasnorm_wordpool_less_exclusions.txt	LTP198	ltpFR	11	7	1	WHEAT	1602	n/a	n/a	0	n/a	0	0	0	0.57763671875	0.412841796875	1	lower	amplitud.ttf
1909.398	n/a	WORD	954699	wordpools/wasnorm_wordpool_less_exclusions.txt	LTP198	ltpFR	11	7	1	CORN	381	n/a	n/a	0	n/a	0	0	0	0.57763671875	0.412841796875	1	lower	amplitud.ttf
1913.448	n/a	WORD	956724	wordpools/wasnorm_wordpool_less_exclusions.txt	LTP198	ltpFR	11	7	0	LEVER	815	n/a	n/a	0	n/a	0	0	0	0.422607421875	0.5869140625	0	upper	zerothre.ttf
1917.34	n/a	WORD	958670	wordpools/wasnorm_wordpool_less_exclusions.txt	LTP198	ltpFR	11	7	0	TAR	1435	n/a	n/a	0	n/a	0	0	0	0.422607421875	0.5869140625	0	upper	zerothre.ttf
1921.344	n/a	WORD	960672	wordpools/wasnorm_wordpool_less_exclusions.txt	LTP198	ltpFR	11	7	0	MANSION	864	n/a	n/a	1	n/a	0	0	0	0.422607421875	0.5869140625	0	upper	zerothre.ttf
1925.236	n/a	WORD	962618	wordpools/wasnorm_wordpool_less_exclusions.txt	LTP198	ltpFR	11	7	0	MICROWAVE	892	n/a	n/a	1	n/a	0	0	0	0.422607421875	0.5869140625	0	upper	zerothre.ttf
1929.19	n/a	WORD	964595	wordpools/wasnorm_wordpool_less_exclusions.txt	LTP198	ltpFR	11	7	1	CAFE	216	n/a	n/a	1	n/a	0	0	0	0.57763671875	0.412841796875	1	lower	amplitud.ttf
1933.324	n/a	WORD	966662	wordpools/wasnorm_wordpool_less_exclusions.txt	LTP198	ltpFR	11	7	1	WOLF	1619	n/a	n/a	1	n/a	0	0	0	0.57763671875	0.412841796875	1	lower	amplitud.ttf
1937.382	n/a	WORD	968691	wordpools/wasnorm_wordpool_less_exclusions.txt	LTP198	ltpFR	11	7	1	BLUEJAY	141	n/a	n/a	1	n/a	0	0	0	0.57763671875	0.412841796875	1	lower	amplitud.ttf
1941.536	n/a	WORD	970768	wordpools/wasnorm_wordpool_less_exclusions.txt	LTP198	ltpFR	11	7	0	TOMATO	1476	n/a	n/a	0	n/a	0	0	0	0.422607421875	0.5869140625	0	upper	zerothre.ttf
1945.42	n/a	WORD	972710	wordpools/wasnorm_wordpool_less_exclusions.txt	LTP198	ltpFR	11	7	0	KEEPER	769	n/a	n/a	1	n/a	0	0	0	0.422607421875	0.5869140625	0	upper	zerothre.ttf
1949.634	n/a	WORD	974817	wordpools/wasnorm_wordpool_less_exclusions.txt	LTP198	ltpFR	11	7	0	REFRIGERATOR	1179	n/a	n/a	1	n/a	0	0	0	0.422607421875	0.5869140625	0	upper	zerothre.ttf
1953.61	n/a	WORD	976805	wordpools/wasnorm_wordpool_less_exclusions.txt	LTP198	ltpFR	11	7	0	BROCCOLI	176	n/a	n/a	0	n/a	0	0	0	0.422607421875	0.5869140625	0	upper	zerothre.ttf
1957.548	n/a	WORD	978774	wordpools/wasnorm_wordpool_less_exclusions.txt	LTP198	ltpFR	11	7	1	REPTILE	1185	n/a	n/a	1	n/a	0	0	0	0.57763671875	0.412841796875	1	lower	amplitud.ttf
1961.574	n/a	WORD	980787	wordpools/wasnorm_wordpool_less_exclusions.txt	LTP198	ltpFR	11	7	1	BISON	131	n/a	n/a	1	n/a	0	0	0	0.57763671875	0.412841796875	1	lower	amplitud.ttf
1964.586	n/a	START	982293	n/a	LTP198	ltpFR	11	n/a	n/a	n/a	n/a	n/a	n/a	n/a	n/a	n/a	n/a	n/a	n/a	n/a	n/a	n/a	n/a
1965.712	n/a	PROB	982856	n/a	LTP198	ltpFR	11	n/a	n/a	n/a	n/a	n/a	n/a	n/a	13	4	3	6	n/a	n/a	n/a	n/a	n/a
1967.602	n/a	PROB	983801	n/a	LTP198	ltpFR	11	n/a	n/a	n/a	n/a	n/a	n/a	n/a	14	4	2	8	n/a	n/a	n/a	n/a	n/a
1968.8	n/a	PROB	984400	n/a	LTP198	ltpFR	11	n/a	n/a	n/a	n/a	n/a	n/a	n/a	11	2	5	4	n/a	n/a	n/a	n/a	n/a
1970.608	n/a	PROB	985304	n/a	LTP198	ltpFR	11	n/a	n/a	n/a	n/a	n/a	n/a	n/a	12	2	8	2	n/a	n/a	n/a	n/a	n/a
1971.712	n/a	PROB	985856	n/a	LTP198	ltpFR	11	n/a	n/a	n/a	n/a	n/a	n/a	n/a	14	5	7	5	n/a	n/a	n/a	n/a	n/a
1973.386	n/a	PROB	986693	n/a	LTP198	ltpFR	11	n/a	n/a	n/a	n/a	n/a	n/a	n/a	15	5	2	8	n/a	n/a	n/a	n/a	n/a
1974.874	n/a	PROB	987437	n/a	LTP198	ltpFR	11	n/a	n/a	n/a	n/a	n/a	n/a	n/a	17	9	6	2	n/a	n/a	n/a	n/a	n/a
1976.632	n/a	PROB	988316	n/a	LTP198	ltpFR	11	n/a	n/a	n/a	n/a	n/a	n/a	n/a	20	4	7	9	n/a	n/a	n/a	n/a	n/a
1979.278	n/a	STOP	989639	n/a	LTP198	ltpFR	11	n/a	n/a	n/a	n/a	n/a	n/a	n/a	n/a	n/a	n/a	n/a	n/a	n/a	n/a	n/a	n/a
1982.396	n/a	REC_START	991198	n/a	LTP198	ltpFR	11	7	n/a	n/a	n/a	n/a	n/a	n/a	n/a	0	0	0	n/a	n/a	n/a	n/a	n/a
1983.19	n/a	REC_WORD	991595	wordpools/wasnorm_wordpool_less_exclusions.txt	LTP198	ltpFR	11	7	1	PAVEMENT	1028	n/a	n/a	0	n/a	0	0	0	n/a	n/a	n/a	n/a	n/a
1984.162	n/a	REC_WORD	992081	wordpools/wasnorm_wordpool_less_exclusions.txt	LTP198	ltpFR	11	7	1	WHEAT	1602	n/a	n/a	0	n/a	0	0	0	n/a	n/a	n/a	n/a	n/a
1985.02	n/a	REC_WORD	992510	wordpools/wasnorm_wordpool_less_exclusions.txt	LTP198	ltpFR	11	7	1	CORN	381	n/a	n/a	0	n/a	0	0	0	n/a	n/a	n/a	n/a	n/a
1986.034	n/a	REC_WORD	993017	wordpools/wasnorm_wordpool_less_exclusions.txt	LTP198	ltpFR	11	7	0	MANSION	864	n/a	n/a	1	n/a	0	0	0	n/a	n/a	n/a	n/a	n/a
1987.1	n/a	REC_WORD	993550	wordpools/wasnorm_wordpool_less_exclusions.txt	LTP198	ltpFR	11	7	0	LEVER	815	n/a	n/a	0	n/a	0	0	0	n/a	n/a	n/a	n/a	n/a
1988.118	n/a	REC_WORD	994059	wordpools/wasnorm_wordpool_less_exclusions.txt	LTP198	ltpFR	11	7	0	TAR	1435	n/a	n/a	0	n/a	0	0	0	n/a	n/a	n/a	n/a	n/a
1989.002	n/a	REC_WORD	994501	wordpools/wasnorm_wordpool_less_exclusions.txt	LTP198	ltpFR	11	7	1	CAFE	216	n/a	n/a	1	n/a	0	0	0	n/a	n/a	n/a	n/a	n/a
1990.13	n/a	REC_WORD	995065	wordpools/wasnorm_wordpool_less_exclusions.txt	LTP198	ltpFR	11	7	0	BROCCOLI	176	n/a	n/a	0	n/a	0	0	0	n/a	n/a	n/a	n/a	n/a
1990.952	n/a	REC_WORD	995476	wordpools/wasnorm_wordpool_less_exclusions.txt	LTP198	ltpFR	11	7	0	TOMATO	1476	n/a	n/a	0	n/a	0	0	0	n/a	n/a	n/a	n/a	n/a
1992.004	n/a	REC_WORD	996002	wordpools/wasnorm_wordpool_less_exclusions.txt	LTP198	ltpFR	11	7	0	KEEPER	769	n/a	n/a	1	n/a	0	0	0	n/a	n/a	n/a	n/a	n/a
1993.068	n/a	REC_WORD	996534	wordpools/wasnorm_wordpool_less_exclusions.txt	LTP198	ltpFR	11	7	1	WOLF	1619	n/a	n/a	1	n/a	0	0	0	n/a	n/a	n/a	n/a	n/a
1994.08	n/a	REC_WORD	997040	wordpools/wasnorm_wordpool_less_exclusions.txt	LTP198	ltpFR	11	7	1	BLUEJAY	141	n/a	n/a	1	n/a	0	0	0	n/a	n/a	n/a	n/a	n/a
1995.088	n/a	REC_WORD	997544	wordpools/wasnorm_wordpool_less_exclusions.txt	LTP198	ltpFR	11	7	1	BISON	131	n/a	n/a	1	n/a	0	0	0	n/a	n/a	n/a	n/a	n/a
1996.006	n/a	REC_WORD	998003	wordpools/wasnorm_wordpool_less_exclusions.txt	LTP198	ltpFR	11	7	1	REPTILE	1185	n/a	n/a	1	n/a	0	0	0	n/a	n/a	n/a	n/a	n/a
1996.93	n/a	REC_WORD	998465	wordpools/wasnorm_wordpool_less_exclusions.txt	LTP198	ltpFR	11	7	0	REFRIGERATOR	1179	n/a	n/a	1	n/a	0	0	0	n/a	n/a	n/a	n/a	n/a
1998.106	n/a	REC_WORD	999053	wordpools/wasnorm_wordpool_less_exclusions.txt	LTP198	ltpFR	11	7	0	MICROWAVE	892	n/a	n/a	1	n/a	0	0	0	n/a	n/a	n/a	n/a	n/a
2109.088	n/a	WORD	1054544	wordpools/wasnorm_wordpool_less_exclusions.txt	LTP198	ltpFR	11	8	0	GOVERNOR	651	n/a	n/a	1	n/a	0	0	0	0.422607421875	0.5869140625	0	upper	zerothre.ttf
2113.204	n/a	WORD	1056602	wordpools/wasnorm_wordpool_less_exclusions.txt	LTP198	ltpFR	11	8	0	COMMUNITY	356	n/a	n/a	1	n/a	0	0	0	0.422607421875	0.5869140625	0	upper	zerothre.ttf
2117.326	n/a	WORD	1058663	wordpools/wasnorm_wordpool_less_exclusions.txt	LTP198	ltpFR	11	8	0	OX	994	n/a	n/a	1	n/a	0	0	0	0.422607421875	0.5869140625	0	upper	zerothre.ttf
2121.502	n/a	WORD	1060751	wordpools/wasnorm_wordpool_less_exclusions.txt	LTP198	ltpFR	11	8	1	CREATURE	403	n/a	n/a	1	n/a	0	0	0	0.57763671875	0.412841796875	1	lower	amplitud.ttf
2125.724	n/a	WORD	1062862	wordpools/wasnorm_wordpool_less_exclusions.txt	LTP198	ltpFR	11	8	1	DRINK	498	n/a	n/a	0	n/a	0	0	0	0.57763671875	0.412841796875	1	lower	amplitud.ttf
2129.638	n/a	WORD	1064819	wordpools/wasnorm_wordpool_less_exclusions.txt	LTP198	ltpFR	11	8	1	TOILET	1475	n/a	n/a	0	n/a	0	0	0	0.57763671875	0.412841796875	1	lower	amplitud.ttf
2133.604	n/a	WORD	1066802	wordpools/wasnorm_wordpool_less_exclusions.txt	LTP198	ltpFR	11	8	0	FOUNTAIN	597	n/a	n/a	1	n/a	0	0	0	0.422607421875	0.5869140625	0	upper	zerothre.ttf
2137.714	n/a	WORD	1068857	wordpools/wasnorm_wordpool_less_exclusions.txt	LTP198	ltpFR	11	8	0	TIDE	1465	n/a	n/a	1	n/a	0	0	0	0.422607421875	0.5869140625	0	upper	zerothre.ttf
2141.846	n/a	WORD	1070923	wordpools/wasnorm_wordpool_less_exclusions.txt	LTP198	ltpFR	11	8	0	DETECTIVE	454	n/a	n/a	1	n/a	0	0	0	0.422607421875	0.5869140625	0	upper	zerothre.ttf
2145.984	n/a	WORD	1072992	wordpools/wasnorm_wordpool_less_exclusions.txt	LTP198	ltpFR	11	8	0	JOURNAL	760	n/a	n/a	1	n/a	0	0	0	0.422607421875	0.5869140625	0	upper	zerothre.ttf
2149.866	n/a	WORD	1074933	wordpools/wasnorm_wordpool_less_exclusions.txt	LTP198	ltpFR	11	8	0	KEG	770	n/a	n/a	1	n/a	0	0	0	0.422607421875	0.5869140625	0	upper	zerothre.ttf
2153.692	n/a	WORD	1076846	wordpools/wasnorm_wordpool_less_exclusions.txt	LTP198	ltpFR	11	8	1	TOWEL	1489	n/a	n/a	1	n/a	0	0	0	0.57763671875	0.412841796875	1	lower	amplitud.ttf
2157.562	n/a	WORD	1078781	wordpools/wasnorm_wordpool_less_exclusions.txt	LTP198	ltpFR	11	8	1	RATTLE	1170	n/a	n/a	0	n/a	0	0	0	0.57763671875	0.412841796875	1	lower	amplitud.ttf
2161.644	n/a	WORD	1080822	wordpools/wasnorm_wordpool_less_exclusions.txt	LTP198	ltpFR	11	8	1	VETERAN	1561	n/a	n/a	1	n/a	0	0	0	0.57763671875	0.412841796875	1	lower	amplitud.ttf
2165.52	n/a	WORD	1082760	wordpools/wasnorm_wordpool_less_exclusions.txt	LTP198	ltpFR	11	8	1	BOOK	149	n/a	n/a	0	n/a	0	0	0	0.57763671875	0.412841796875	1	lower	amplitud.ttf
2169.592	n/a	WORD	1084796	wordpools/wasnorm_wordpool_less_exclusions.txt	LTP198	ltpFR	11	8	1	COIN	343	n/a	n/a	0	n/a	0	0	0	0.57763671875	0.412841796875	1	lower	amplitud.ttf
2172.604	n/a	START	1086302	n/a	LTP198	ltpFR	11	n/a	n/a	n/a	n/a	n/a	n/a	n/a	n/a	n/a	n/a	n/a	n/a	n/a	n/a	n/a	n/a
2173.54	n/a	PROB	1086770	n/a	LTP198	ltpFR	11	n/a	n/a	n/a	n/a	n/a	n/a	n/a	18	6	7	5	n/a	n/a	n/a	n/a	n/a
2176.796	n/a	PROB	1088398	n/a	LTP198	ltpFR	11	n/a	n/a	n/a	n/a	n/a	n/a	n/a	16	3	9	4	n/a	n/a	n/a	n/a	n/a
2180.604	n/a	STOP	1090302	n/a	LTP198	ltpFR	11	n/a	n/a	n/a	n/a	n/a	n/a	n/a	n/a	n/a	n/a	n/a	n/a	n/a	n/a	n/a	n/a
2182.518	n/a	REC_START	1091259	n/a	LTP198	ltpFR	11	8	n/a	n/a	n/a	n/a	n/a	n/a	n/a	0	0	0	n/a	n/a	n/a	n/a	n/a
2183.86	n/a	REC_WORD	1091930	wordpools/wasnorm_wordpool_less_exclusions.txt	LTP198	ltpFR	11	8	0	COMMUNITY	356	n/a	n/a	1	n/a	0	0	0	n/a	n/a	n/a	n/a	n/a
2185.386	n/a	REC_WORD	1092693	wordpools/wasnorm_wordpool_less_exclusions.txt	LTP198	ltpFR	11	8	0	GOVERNOR	651	n/a	n/a	1	n/a	0	0	0	n/a	n/a	n/a	n/a	n/a
2186.854	n/a	REC_WORD	1093427	wordpools/wasnorm_wordpool_less_exclusions.txt	LTP198	ltpFR	11	8	1	DRINK	498	n/a	n/a	0	n/a	0	0	0	n/a	n/a	n/a	n/a	n/a
2188.874	n/a	REC_WORD	1094437	wordpools/wasnorm_wordpool_less_exclusions.txt	LTP198	ltpFR	11	8	0	OX	994	n/a	n/a	1	n/a	0	0	0	n/a	n/a	n/a	n/a	n/a
2194.846	n/a	REC_WORD	1097423	wordpools/wasnorm_wordpool_less_exclusions.txt	LTP198	ltpFR	11	8	1	TOILET	1475	n/a	n/a	0	n/a	0	0	0	n/a	n/a	n/a	n/a	n/a
2196.282	n/a	REC_WORD	1098141	wordpools/wasnorm_wordpool_less_exclusions.txt	LTP198	ltpFR	11	8	1	TOWEL	1489	n/a	n/a	1	n/a	0	0	0	n/a	n/a	n/a	n/a	n/a
2197.828	n/a	REC_WORD	1098914	wordpools/wasnorm_wordpool_less_exclusions.txt	LTP198	ltpFR	11	8	1	COIN	343	n/a	n/a	0	n/a	0	0	0	n/a	n/a	n/a	n/a	n/a
2199.586	n/a	REC_WORD	1099793	wordpools/wasnorm_wordpool_less_exclusions.txt	LTP198	ltpFR	11	8	0	TIDE	1465	n/a	n/a	1	n/a	0	0	0	n/a	n/a	n/a	n/a	n/a
2202.724	n/a	REC_WORD	1101362	wordpools/wasnorm_wordpool_less_exclusions.txt	LTP198	ltpFR	11	8	0	DETECTIVE	454	n/a	n/a	1	n/a	0	0	0	n/a	n/a	n/a	n/a	n/a
2204.284	n/a	REC_WORD	1102142	wordpools/wasnorm_wordpool_less_exclusions.txt	LTP198	ltpFR	11	8	1	BOOK	149	n/a	n/a	0	n/a	0	0	0	n/a	n/a	n/a	n/a	n/a
2205.448	n/a	REC_WORD	1102724	wordpools/wasnorm_wordpool_less_exclusions.txt	LTP198	ltpFR	11	8	0	JOURNAL	760	n/a	n/a	1	n/a	0	0	0	n/a	n/a	n/a	n/a	n/a
2214.712	n/a	REC_WORD	1107356	wordpools/wasnorm_wordpool_less_exclusions.txt	LTP198	ltpFR	11	8	0	KEG	770	n/a	n/a	1	n/a	0	0	0	n/a	n/a	n/a	n/a	n/a
2265.636	n/a	WORD	1132818	wordpools/wasnorm_wordpool_less_exclusions.txt	LTP198	ltpFR	11	9	1	DIAMOND	458	n/a	n/a	0	n/a	0	0	0	0.57763671875	0.412841796875	1	lower	amplitud.ttf
2269.59	n/a	WORD	1134795	wordpools/wasnorm_wordpool_less_exclusions.txt	LTP198	ltpFR	11	9	1	DECK	443	n/a	n/a	0	n/a	0	0	0	0.57763671875	0.412841796875	1	lower	amplitud.ttf
2273.7	n/a	WORD	1136850	wordpools/wasnorm_wordpool_less_exclusions.txt	LTP198	ltpFR	11	9	1	CHAIR	274	n/a	n/a	0	n/a	0	0	0	0.57763671875	0.412841796875	1	lower	amplitud.ttf
2277.588	n/a	WORD	1138794	wordpools/wasnorm_wordpool_less_exclusions.txt	LTP198	ltpFR	11	9	1	ANTEATER	26	n/a	n/a	1	n/a	0	0	0	0.57763671875	0.412841796875	1	lower	amplitud.ttf
2281.57	n/a	WORD	1140785	wordpools/wasnorm_wordpool_less_exclusions.txt	LTP198	ltpFR	11	9	1	INSECT	740	n/a	n/a	1	n/a	0	0	0	0.57763671875	0.412841796875	1	lower	amplitud.ttf
2285.702	n/a	WORD	1142851	wordpools/wasnorm_wordpool_less_exclusions.txt	LTP198	ltpFR	11	9	1	SPACE	1345	n/a	n/a	1	n/a	0	0	0	0.57763671875	0.412841796875	1	lower	amplitud.ttf
2289.912	n/a	WORD	1144956	wordpools/wasnorm_wordpool_less_exclusions.txt	LTP198	ltpFR	11	9	1	JUDGE	761	n/a	n/a	0	n/a	0	0	0	0.57763671875	0.412841796875	1	lower	amplitud.ttf
2294.102	n/a	WORD	1147051	wordpools/wasnorm_wordpool_less_exclusions.txt	LTP198	ltpFR	11	9	1	ROUGE	1213	n/a	n/a	0	n/a	0	0	0	0.57763671875	0.412841796875	1	lower	amplitud.ttf
2298.194	n/a	WORD	1149097	wordpools/wasnorm_wordpool_less_exclusions.txt	LTP198	ltpFR	11	9	1	BEET	115	n/a	n/a	0	n/a	0	0	0	0.57763671875	0.412841796875	1	lower	amplitud.ttf
2302.198	n/a	WORD	1151099	wordpools/wasnorm_wordpool_less_exclusions.txt	LTP198	ltpFR	11	9	1	CRUMB	416	n/a	n/a	0	n/a	0	0	0	0.57763671875	0.412841796875	1	lower	amplitud.ttf
2306.232	n/a	WORD	1153116	wordpools/wasnorm_wordpool_less_exclusions.txt	LTP198	ltpFR	11	9	1	PEACH	1031	n/a	n/a	0	n/a	0	0	0	0.57763671875	0.412841796875	1	lower	amplitud.ttf
2310.414	n/a	WORD	1155207	wordpools/wasnorm_wordpool_less_exclusions.txt	LTP198	ltpFR	11	9	1	CREW	406	n/a	n/a	1	n/a	0	0	0	0.57763671875	0.412841796875	1	lower	amplitud.ttf
2314.33	n/a	WORD	1157165	wordpools/wasnorm_wordpool_less_exclusions.txt	LTP198	ltpFR	11	9	1	WITNESS	1618	n/a	n/a	1	n/a	0	0	0	0.57763671875	0.412841796875	1	lower	amplitud.ttf
2318.456	n/a	WORD	1159228	wordpools/wasnorm_wordpool_less_exclusions.txt	LTP198	ltpFR	11	9	1	CRATER	400	n/a	n/a	0	n/a	0	0	0	0.57763671875	0.412841796875	1	lower	amplitud.ttf
2322.676	n/a	WORD	1161338	wordpools/wasnorm_wordpool_less_exclusions.txt	LTP198	ltpFR	11	9	1	BASEMENT	94	n/a	n/a	0	n/a	0	0	0	0.57763671875	0.412841796875	1	lower	amplitud.ttf
2326.674	n/a	WORD	1163337	wordpools/wasnorm_wordpool_less_exclusions.txt	LTP198	ltpFR	11	9	1	HAMMOCK	681	n/a	n/a	0	n/a	0	0	0	0.57763671875	0.412841796875	1	lower	amplitud.ttf
2332.782	n/a	REC_START	1166391	n/a	LTP198	ltpFR	11	9	n/a	n/a	n/a	n/a	n/a	n/a	n/a	0	0	0	n/a	n/a	n/a	n/a	n/a
2333.586	n/a	REC_WORD	1166793	wordpools/wasnorm_wordpool_less_exclusions.txt	LTP198	ltpFR	11	9	1	DIAMOND	458	n/a	n/a	0	n/a	0	0	0	n/a	n/a	n/a	n/a	n/a
2334.688	n/a	REC_WORD	1167344	wordpools/wasnorm_wordpool_less_exclusions.txt	LTP198	ltpFR	11	9	1	DECK	443	n/a	n/a	0	n/a	0	0	0	n/a	n/a	n/a	n/a	n/a
2335.56	n/a	REC_WORD	1167780	wordpools/wasnorm_wordpool_less_exclusions.txt	LTP198	ltpFR	11	9	1	SPACE	1345	n/a	n/a	1	n/a	0	0	0	n/a	n/a	n/a	n/a	n/a
2336.838	n/a	REC_WORD	1168419	wordpools/wasnorm_wordpool_less_exclusions.txt	LTP198	ltpFR	11	9	1	ANTEATER	26	n/a	n/a	1	n/a	0	0	0	n/a	n/a	n/a	n/a	n/a
2338.698	n/a	REC_WORD	1169349	wordpools/wasnorm_wordpool_less_exclusions.txt	LTP198	ltpFR	11	9	1	INSECT	740	n/a	n/a	1	n/a	0	0	0	n/a	n/a	n/a	n/a	n/a
2341.766	n/a	REC_WORD	1170883	wordpools/wasnorm_wordpool_less_exclusions.txt	LTP198	ltpFR	11	9	1	ROUGE	1213	n/a	n/a	0	n/a	0	0	0	n/a	n/a	n/a	n/a	n/a
2342.932	n/a	REC_WORD	1171466	wordpools/wasnorm_wordpool_less_exclusions.txt	LTP198	ltpFR	11	9	1	BEET	115	n/a	n/a	0	n/a	0	0	0	n/a	n/a	n/a	n/a	n/a
2343.908	n/a	REC_WORD	1171954	wordpools/wasnorm_wordpool_less_exclusions.txt	LTP198	ltpFR	11	9	1	JUDGE	761	n/a	n/a	0	n/a	0	0	0	n/a	n/a	n/a	n/a	n/a
2345.004	n/a	REC_WORD	1172502	wordpools/wasnorm_wordpool_less_exclusions.txt	LTP198	ltpFR	11	9	1	WITNESS	1618	n/a	n/a	1	n/a	0	0	0	n/a	n/a	n/a	n/a	n/a
2346.57	n/a	REC_WORD	1173285	wordpools/wasnorm_wordpool_less_exclusions.txt	LTP198	ltpFR	11	9	1	CREW	406	n/a	n/a	1	n/a	0	0	0	n/a	n/a	n/a	n/a	n/a
2348.212	n/a	REC_WORD	1174106	wordpools/wasnorm_wordpool_less_exclusions.txt	LTP198	ltpFR	11	9	1	CRATER	400	n/a	n/a	0	n/a	0	0	0	n/a	n/a	n/a	n/a	n/a
2349.62	n/a	REC_WORD	1174810	wordpools/wasnorm_wordpool_less_exclusions.txt	LTP198	ltpFR	11	9	1	BASEMENT	94	n/a	n/a	0	n/a	0	0	0	n/a	n/a	n/a	n/a	n/a
2350.538	n/a	REC_WORD	1175269	wordpools/wasnorm_wordpool_less_exclusions.txt	LTP198	ltpFR	11	9	1	HAMMOCK	681	n/a	n/a	0	n/a	0	0	0	n/a	n/a	n/a	n/a	n/a
2360.35	n/a	REC_WORD	1180175	wordpools/wasnorm_wordpool_less_exclusions.txt	LTP198	ltpFR	11	9	1	CRUMB	416	n/a	n/a	0	n/a	0	0	0	n/a	n/a	n/a	n/a	n/a
2361.452	n/a	REC_WORD	1180726	wordpools/wasnorm_wordpool_less_exclusions.txt	LTP198	ltpFR	11	9	1	PEACH	1031	n/a	n/a	0	n/a	0	0	0	n/a	n/a	n/a	n/a	n/a
2363.084	n/a	REC_WORD	1181542	wordpools/wasnorm_wordpool_less_exclusions.txt	LTP198	ltpFR	11	9	1	CHAIR	274	n/a	n/a	0	n/a	0	0	0	n/a	n/a	n/a	n/a	n/a
2418.304	n/a	WORD	1209152	wordpools/wasnorm_wordpool_less_exclusions.txt	LTP198	ltpFR	11	10	0	FIN	566	n/a	n/a	0	n/a	0	0	0	0.422607421875	0.5869140625	0	upper	zerothre.ttf
2422.172	n/a	WORD	1211086	wordpools/wasnorm_wordpool_less_exclusions.txt	LTP198	ltpFR	11	10	0	CHIEF	298	n/a	n/a	1	n/a	0	0	0	0.422607421875	0.5869140625	0	upper	zerothre.ttf
2426.39	n/a	WORD	1213195	wordpools/wasnorm_wordpool_less_exclusions.txt	LTP198	ltpFR	11	10	0	COWBOY	395	n/a	n/a	1	n/a	0	0	0	0.422607421875	0.5869140625	0	upper	zerothre.ttf
2430.288	n/a	WORD	1215144	wordpools/wasnorm_wordpool_less_exclusions.txt	LTP198	ltpFR	11	10	1	POLYESTER	1100	n/a	n/a	0	n/a	0	0	0	0.57763671875	0.412841796875	1	lower	amplitud.ttf
2434.466	n/a	WORD	1217233	wordpools/wasnorm_wordpool_less_exclusions.txt	LTP198	ltpFR	11	10	1	TYPIST	1532	n/a	n/a	0	n/a	0	0	0	0.57763671875	0.412841796875	1	lower	amplitud.ttf
2438.696	n/a	WORD	1219348	wordpools/wasnorm_wordpool_less_exclusions.txt	LTP198	ltpFR	11	10	1	REPORT	1184	n/a	n/a	0	n/a	0	0	0	0.57763671875	0.412841796875	1	lower	amplitud.ttf
2442.868	n/a	WORD	1221434	wordpools/wasnorm_wordpool_less_exclusions.txt	LTP198	ltpFR	11	10	0	POPCORN	1104	n/a	n/a	1	n/a	0	0	0	0.422607421875	0.5869140625	0	upper	zerothre.ttf
2446.862	n/a	WORD	1223431	wordpools/wasnorm_wordpool_less_exclusions.txt	LTP198	ltpFR	11	10	0	PRODUCER	1129	n/a	n/a	1	n/a	0	0	0	0.422607421875	0.5869140625	0	upper	zerothre.ttf
2450.9	n/a	WORD	1225450	wordpools/wasnorm_wordpool_less_exclusions.txt	LTP198	ltpFR	11	10	0	TREE	1502	n/a	n/a	1	n/a	0	0	0	0.422607421875	0.5869140625	0	upper	zerothre.ttf
2455.082	n/a	WORD	1227541	wordpools/wasnorm_wordpool_less_exclusions.txt	LTP198	ltpFR	11	10	0	CLOUD	328	n/a	n/a	0	n/a	0	0	0	0.422607421875	0.5869140625	0	upper	zerothre.ttf
2459.214	n/a	WORD	1229607	wordpools/wasnorm_wordpool_less_exclusions.txt	LTP198	ltpFR	11	10	0	SKIRT	1319	n/a	n/a	0	n/a	0	0	0	0.422607421875	0.5869140625	0	upper	zerothre.ttf
2463.292	n/a	WORD	1231646	wordpools/wasnorm_wordpool_less_exclusions.txt	LTP198	ltpFR	11	10	1	ACORN	3	n/a	n/a	0	n/a	0	0	0	0.57763671875	0.412841796875	1	lower	amplitud.ttf
2467.324	n/a	WORD	1233662	wordpools/wasnorm_wordpool_less_exclusions.txt	LTP198	ltpFR	11	10	1	GREASE	660	n/a	n/a	0	n/a	0	0	0	0.57763671875	0.412841796875	1	lower	amplitud.ttf
2471.222	n/a	WORD	1235611	wordpools/wasnorm_wordpool_less_exclusions.txt	LTP198	ltpFR	11	10	1	BOARD	143	n/a	n/a	0	n/a	0	0	0	0.57763671875	0.412841796875	1	lower	amplitud.ttf
2475.41	n/a	WORD	1237705	wordpools/wasnorm_wordpool_less_exclusions.txt	LTP198	ltpFR	11	10	1	SOCK	1339	n/a	n/a	0	n/a	0	0	0	0.57763671875	0.412841796875	1	lower	amplitud.ttf
2479.27	n/a	WORD	1239635	wordpools/wasnorm_wordpool_less_exclusions.txt	LTP198	ltpFR	11	10	1	PIRATE	1074	n/a	n/a	1	n/a	0	0	0	0.57763671875	0.412841796875	1	lower	amplitud.ttf
2482.288	n/a	START	1241144	n/a	LTP198	ltpFR	11	n/a	n/a	n/a	n/a	n/a	n/a	n/a	n/a	n/a	n/a	n/a	n/a	n/a	n/a	n/a	n/a
2483.302	n/a	PROB	1241651	n/a	LTP198	ltpFR	11	n/a	n/a	n/a	n/a	n/a	n/a	n/a	11	8	2	1	n/a	n/a	n/a	n/a	n/a
2484.706	n/a	PROB	1242353	n/a	LTP198	ltpFR	11	n/a	n/a	n/a	n/a	n/a	n/a	n/a	1	5	4	6	n/a	n/a	n/a	n/a	n/a
2486.748	n/a	PROB	1243374	n/a	LTP198	ltpFR	11	n/a	n/a	n/a	n/a	n/a	n/a	n/a	17	8	1	8	n/a	n/a	n/a	n/a	n/a
2488.678	n/a	PROB	1244339	n/a	LTP198	ltpFR	11	n/a	n/a	n/a	n/a	n/a	n/a	n/a	12	8	2	2	n/a	n/a	n/a	n/a	n/a
2489.826	n/a	PROB	1244913	n/a	LTP198	ltpFR	11	n/a	n/a	n/a	n/a	n/a	n/a	n/a	14	4	6	4	n/a	n/a	n/a	n/a	n/a
2491.136	n/a	PROB	1245568	n/a	LTP198	ltpFR	11	n/a	n/a	n/a	n/a	n/a	n/a	n/a	23	9	8	6	n/a	n/a	n/a	n/a	n/a
2495.53	n/a	PROB	1247765	n/a	LTP198	ltpFR	11	n/a	n/a	n/a	n/a	n/a	n/a	n/a	11	4	4	3	n/a	n/a	n/a	n/a	n/a
2498.088	n/a	STOP	1249044	n/a	LTP198	ltpFR	11	n/a	n/a	n/a	n/a	n/a	n/a	n/a	n/a	n/a	n/a	n/a	n/a	n/a	n/a	n/a	n/a
2500.182	n/a	REC_START	1250091	n/a	LTP198	ltpFR	11	10	n/a	n/a	n/a	n/a	n/a	n/a	n/a	0	0	0	n/a	n/a	n/a	n/a	n/a
2501.134	n/a	REC_WORD	1250567	wordpools/wasnorm_wordpool_less_exclusions.txt	LTP198	ltpFR	11	10	1	PIRATE	1074	n/a	n/a	1	n/a	0	0	0	n/a	n/a	n/a	n/a	n/a
2501.868	n/a	REC_WORD	1250934	wordpools/wasnorm_wordpool_less_exclusions.txt	LTP198	ltpFR	11	10	0	PRODUCER	1129	n/a	n/a	1	n/a	0	0	0	n/a	n/a	n/a	n/a	n/a
2502.826	n/a	REC_WORD	1251413	wordpools/wasnorm_wordpool_less_exclusions.txt	LTP198	ltpFR	11	10	0	POPCORN	1104	n/a	n/a	1	n/a	0	0	0	n/a	n/a	n/a	n/a	n/a
2505.39	n/a	REC_WORD_VV	1252695	wordpools/wasnorm_wordpool_less_exclusions.txt	LTP198	ltpFR	11	10	n/a	<>	-1	n/a	n/a	n/a	n/a	0	0	0	n/a	n/a	n/a	n/a	n/a
2505.87	n/a	REC_WORD	1252935	wordpools/wasnorm_wordpool_less_exclusions.txt	LTP198	ltpFR	11	10	0	COWBOY	395	n/a	n/a	1	n/a	0	0	0	n/a	n/a	n/a	n/a	n/a
2506.698	n/a	REC_WORD	1253349	wordpools/wasnorm_wordpool_less_exclusions.txt	LTP198	ltpFR	11	10	0	CHIEF	298	n/a	n/a	1	n/a	0	0	0	n/a	n/a	n/a	n/a	n/a
2507.546	n/a	REC_WORD	1253773	wordpools/wasnorm_wordpool_less_exclusions.txt	LTP198	ltpFR	11	10	0	SKIRT	1319	n/a	n/a	0	n/a	0	0	0	n/a	n/a	n/a	n/a	n/a
2508.454	n/a	REC_WORD	1254227	wordpools/wasnorm_wordpool_less_exclusions.txt	LTP198	ltpFR	11	10	1	SOCK	1339	n/a	n/a	0	n/a	0	0	0	n/a	n/a	n/a	n/a	n/a
2510.538	n/a	REC_WORD	1255269	wordpools/wasnorm_wordpool_less_exclusions.txt	LTP198	ltpFR	11	10	1	TYPIST	1532	n/a	n/a	0	n/a	0	0	0	n/a	n/a	n/a	n/a	n/a
2512.892	n/a	REC_WORD	1256446	wordpools/wasnorm_wordpool_less_exclusions.txt	LTP198	ltpFR	11	10	1	REPORT	1184	n/a	n/a	0	n/a	0	0	0	n/a	n/a	n/a	n/a	n/a
2514.196	n/a	REC_WORD	1257098	wordpools/wasnorm_wordpool_less_exclusions.txt	LTP198	ltpFR	11	10	0	CLOUD	328	n/a	n/a	0	n/a	0	0	0	n/a	n/a	n/a	n/a	n/a
2516.316	n/a	REC_WORD	1258158	wordpools/wasnorm_wordpool_less_exclusions.txt	LTP198	ltpFR	11	10	0	TREE	1502	n/a	n/a	1	n/a	0	0	0	n/a	n/a	n/a	n/a	n/a
2517.138	n/a	REC_WORD	1258569	wordpools/wasnorm_wordpool_less_exclusions.txt	LTP198	ltpFR	11	10	1	ACORN	3	n/a	n/a	0	n/a	0	0	0	n/a	n/a	n/a	n/a	n/a
2527.068	n/a	REC_WORD	1263534	wordpools/wasnorm_wordpool_less_exclusions.txt	LTP198	ltpFR	11	10	1	GREASE	660	n/a	n/a	0	n/a	0	0	0	n/a	n/a	n/a	n/a	n/a
2575.838	n/a	REST_REWET	1287919	n/a	LTP198	ltpFR	11	10	n/a	n/a	n/a	n/a	n/a	n/a	n/a	0	0	0	n/a	n/a	n/a	n/a	n/a
2953.18	n/a	START	1476590	n/a	LTP198	ltpFR	11	n/a	n/a	n/a	n/a	n/a	n/a	n/a	n/a	n/a	n/a	n/a	n/a	n/a	n/a	n/a	n/a
2954.692	n/a	PROB	1477346	n/a	LTP198	ltpFR	11	n/a	n/a	n/a	n/a	n/a	n/a	n/a	21	9	9	3	n/a	n/a	n/a	n/a	n/a
2956.732	n/a	PROB	1478366	n/a	LTP198	ltpFR	11	n/a	n/a	n/a	n/a	n/a	n/a	n/a	25	7	7	9	n/a	n/a	n/a	n/a	n/a
2959.882	n/a	STOP	1479941	n/a	LTP198	ltpFR	11	n/a	n/a	n/a	n/a	n/a	n/a	n/a	n/a	n/a	n/a	n/a	n/a	n/a	n/a	n/a	n/a
2962.18	n/a	WORD	1481090	wordpools/wasnorm_wordpool_less_exclusions.txt	LTP198	ltpFR	11	11	1	SUIT	1402	n/a	n/a	0	n/a	0	0	0	0.57763671875	0.412841796875	1	lower	amplitud.ttf
2965.192	n/a	START	1482596	n/a	LTP198	ltpFR	11	n/a	n/a	n/a	n/a	n/a	n/a	n/a	n/a	n/a	n/a	n/a	n/a	n/a	n/a	n/a	n/a
2966.336	n/a	PROB	1483168	n/a	LTP198	ltpFR	11	n/a	n/a	n/a	n/a	n/a	n/a	n/a	11	7	3	1	n/a	n/a	n/a	n/a	n/a
2967.568	n/a	PROB	1483784	n/a	LTP198	ltpFR	11	n/a	n/a	n/a	n/a	n/a	n/a	n/a	9	5	1	3	n/a	n/a	n/a	n/a	n/a
2970.16	n/a	PROB	1485080	n/a	LTP198	ltpFR	11	n/a	n/a	n/a	n/a	n/a	n/a	n/a	13	6	2	5	n/a	n/a	n/a	n/a	n/a
2972.106	n/a	STOP	1486053	n/a	LTP198	ltpFR	11	n/a	n/a	n/a	n/a	n/a	n/a	n/a	n/a	n/a	n/a	n/a	n/a	n/a	n/a	n/a	n/a
2974.216	n/a	WORD	1487108	wordpools/wasnorm_wordpool_less_exclusions.txt	LTP198	ltpFR	11	11	1	PATRIOT	1026	n/a	n/a	1	n/a	0	0	0	0.57763671875	0.412841796875	1	lower	amplitud.ttf
2977.228	n/a	START	1488614	n/a	LTP198	ltpFR	11	n/a	n/a	n/a	n/a	n/a	n/a	n/a	n/a	n/a	n/a	n/a	n/a	n/a	n/a	n/a	n/a
2978.248	n/a	PROB	1489124	n/a	LTP198	ltpFR	11	n/a	n/a	n/a	n/a	n/a	n/a	n/a	20	5	7	8	n/a	n/a	n/a	n/a	n/a
2981.21	n/a	PROB	1490605	n/a	LTP198	ltpFR	11	n/a	n/a	n/a	n/a	n/a	n/a	n/a	14	3	3	8	n/a	n/a	n/a	n/a	n/a
2983.658	n/a	STOP	1491829	n/a	LTP198	ltpFR	11	n/a	n/a	n/a	n/a	n/a	n/a	n/a	n/a	n/a	n/a	n/a	n/a	n/a	n/a	n/a	n/a
2986.314	n/a	WORD	1493157	wordpools/wasnorm_wordpool_less_exclusions.txt	LTP198	ltpFR	11	11	1	MACARONI	851	n/a	n/a	0	n/a	0	0	0	0.57763671875	0.412841796875	1	lower	amplitud.ttf
2989.326	n/a	START	1494663	n/a	LTP198	ltpFR	11	n/a	n/a	n/a	n/a	n/a	n/a	n/a	n/a	n/a	n/a	n/a	n/a	n/a	n/a	n/a	n/a
2990.17	n/a	PROB	1495085	n/a	LTP198	ltpFR	11	n/a	n/a	n/a	n/a	n/a	n/a	n/a	15	4	3	8	n/a	n/a	n/a	n/a	n/a
2992.034	n/a	PROB	1496017	n/a	LTP198	ltpFR	11	n/a	n/a	n/a	n/a	n/a	n/a	n/a	4	1	2	1	n/a	n/a	n/a	n/a	n/a
2994.41	n/a	PROB	1497205	n/a	LTP198	ltpFR	11	n/a	n/a	n/a	n/a	n/a	n/a	n/a	16	9	3	4	n/a	n/a	n/a	n/a	n/a
2996.7	n/a	STOP	1498350	n/a	LTP198	ltpFR	11	n/a	n/a	n/a	n/a	n/a	n/a	n/a	n/a	n/a	n/a	n/a	n/a	n/a	n/a	n/a	n/a
2998.444	n/a	WORD	1499222	wordpools/wasnorm_wordpool_less_exclusions.txt	LTP198	ltpFR	11	11	0	MANAGER	863	n/a	n/a	3	n/a	0	0	0	0.422607421875	0.5869140625	0	upper	zerothre.ttf
2999.28	n/a	KEY_MSG	1499640	n/a	LTP198	ltpFR	11	11	n/a	n/a	n/a	n/a	n/a	n/a	n/a	0	0	0	n/a	n/a	n/a	n/a	n/a
3001.456	n/a	START	1500728	n/a	LTP198	ltpFR	11	n/a	n/a	n/a	n/a	n/a	n/a	n/a	n/a	n/a	n/a	n/a	n/a	n/a	n/a	n/a	n/a
3002.292	n/a	PROB	1501146	n/a	LTP198	ltpFR	11	n/a	n/a	n/a	n/a	n/a	n/a	n/a	6	1	1	4	n/a	n/a	n/a	n/a	n/a
3003.362	n/a	PROB	1501681	n/a	LTP198	ltpFR	11	n/a	n/a	n/a	n/a	n/a	n/a	n/a	8	2	3	3	n/a	n/a	n/a	n/a	n/a
3004.91	n/a	PROB	1502455	n/a	LTP198	ltpFR	11	n/a	n/a	n/a	n/a	n/a	n/a	n/a	18	9	2	7	n/a	n/a	n/a	n/a	n/a
3007.236	n/a	PROB	1503618	n/a	LTP198	ltpFR	11	n/a	n/a	n/a	n/a	n/a	n/a	n/a	14	2	7	5	n/a	n/a	n/a	n/a	n/a
3008.78	n/a	STOP	1504390	n/a	LTP198	ltpFR	11	n/a	n/a	n/a	n/a	n/a	n/a	n/a	n/a	n/a	n/a	n/a	n/a	n/a	n/a	n/a	n/a
3010.622	n/a	WORD	1505311	wordpools/wasnorm_wordpool_less_exclusions.txt	LTP198	ltpFR	11	11	0	CHEERLEADER	288	n/a	n/a	1	n/a	0	0	0	0.422607421875	0.5869140625	0	upper	zerothre.ttf
3013.634	n/a	START	1506817	n/a	LTP198	ltpFR	11	n/a	n/a	n/a	n/a	n/a	n/a	n/a	n/a	n/a	n/a	n/a	n/a	n/a	n/a	n/a	n/a
3014.486	n/a	PROB	1507243	n/a	LTP198	ltpFR	11	n/a	n/a	n/a	n/a	n/a	n/a	n/a	19	3	7	9	n/a	n/a	n/a	n/a	n/a
3016.004	n/a	PROB	1508002	n/a	LTP198	ltpFR	11	n/a	n/a	n/a	n/a	n/a	n/a	n/a	17	7	9	1	n/a	n/a	n/a	n/a	n/a
3017.494	n/a	PROB	1508747	n/a	LTP198	ltpFR	11	n/a	n/a	n/a	n/a	n/a	n/a	n/a	16	1	8	7	n/a	n/a	n/a	n/a	n/a
3018.982	n/a	PROB	1509491	n/a	LTP198	ltpFR	11	n/a	n/a	n/a	n/a	n/a	n/a	n/a	10	4	4	2	n/a	n/a	n/a	n/a	n/a
3020.612	n/a	STOP	1510306	n/a	LTP198	ltpFR	11	n/a	n/a	n/a	n/a	n/a	n/a	n/a	n/a	n/a	n/a	n/a	n/a	n/a	n/a	n/a	n/a
3022.718	n/a	WORD	1511359	wordpools/wasnorm_wordpool_less_exclusions.txt	LTP198	ltpFR	11	11	0	BRUNETTE	181	n/a	n/a	1	n/a	0	0	0	0.422607421875	0.5869140625	0	upper	zerothre.ttf
3025.73	n/a	START	1512865	n/a	LTP198	ltpFR	11	n/a	n/a	n/a	n/a	n/a	n/a	n/a	n/a	n/a	n/a	n/a	n/a	n/a	n/a	n/a	n/a
3026.81	n/a	PROB	1513405	n/a	LTP198	ltpFR	11	n/a	n/a	n/a	n/a	n/a	n/a	n/a	12	7	1	4	n/a	n/a	n/a	n/a	n/a
3028.458	n/a	PROB	1514229	n/a	LTP198	ltpFR	11	n/a	n/a	n/a	n/a	n/a	n/a	n/a	20	8	8	6	n/a	n/a	n/a	n/a	n/a
3033.73	n/a	STOP	1516865	n/a	LTP198	ltpFR	11	n/a	n/a	n/a	n/a	n/a	n/a	n/a	n/a	n/a	n/a	n/a	n/a	n/a	n/a	n/a	n/a
3034.724	n/a	WORD	1517362	wordpools/wasnorm_wordpool_less_exclusions.txt	LTP198	ltpFR	11	11	0	WHISKERS	1605	n/a	n/a	0	n/a	0	0	0	0.422607421875	0.5869140625	0	upper	zerothre.ttf
3037.736	n/a	START	1518868	n/a	LTP198	ltpFR	11	n/a	n/a	n/a	n/a	n/a	n/a	n/a	n/a	n/a	n/a	n/a	n/a	n/a	n/a	n/a	n/a
3038.864	n/a	PROB	1519432	n/a	LTP198	ltpFR	11	n/a	n/a	n/a	n/a	n/a	n/a	n/a	17	3	5	9	n/a	n/a	n/a	n/a	n/a
3045.736	n/a	STOP	1522868	n/a	LTP198	ltpFR	11	n/a	n/a	n/a	n/a	n/a	n/a	n/a	n/a	n/a	n/a	n/a	n/a	n/a	n/a	n/a	n/a
3046.586	n/a	WORD	1523293	wordpools/wasnorm_wordpool_less_exclusions.txt	LTP198	ltpFR	11	11	0	AIRPLANE	12	n/a	n/a	1	n/a	0	0	0	0.422607421875	0.5869140625	0	upper	zerothre.ttf
3049.604	n/a	START	1524802	n/a	LTP198	ltpFR	11	n/a	n/a	n/a	n/a	n/a	n/a	n/a	n/a	n/a	n/a	n/a	n/a	n/a	n/a	n/a	n/a
3050.808	n/a	PROB	1525404	n/a	LTP198	ltpFR	11	n/a	n/a	n/a	n/a	n/a	n/a	n/a	19	7	7	5	n/a	n/a	n/a	n/a	n/a
3052.666	n/a	PROB	1526333	n/a	LTP198	ltpFR	11	n/a	n/a	n/a	n/a	n/a	n/a	n/a	21	3	9	9	n/a	n/a	n/a	n/a	n/a
3054.768	n/a	PROB	1527384	n/a	LTP198	ltpFR	11	n/a	n/a	n/a	n/a	n/a	n/a	n/a	18	9	2	7	n/a	n/a	n/a	n/a	n/a
3056.814	n/a	STOP	1528407	n/a	LTP198	ltpFR	11	n/a	n/a	n/a	n/a	n/a	n/a	n/a	n/a	n/a	n/a	n/a	n/a	n/a	n/a	n/a	n/a
3058.822	n/a	WORD	1529411	wordpools/wasnorm_wordpool_less_exclusions.txt	LTP198	ltpFR	11	11	1	FLY	586	n/a	n/a	0	n/a	0	0	0	0.57763671875	0.412841796875	1	lower	amplitud.ttf
3061.834	n/a	START	1530917	n/a	LTP198	ltpFR	11	n/a	n/a	n/a	n/a	n/a	n/a	n/a	n/a	n/a	n/a	n/a	n/a	n/a	n/a	n/a	n/a
3062.932	n/a	PROB	1531466	n/a	LTP198	ltpFR	11	n/a	n/a	n/a	n/a	n/a	n/a	n/a	15	1	9	5	n/a	n/a	n/a	n/a	n/a
3064.154	n/a	PROB	1532077	n/a	LTP198	ltpFR	11	n/a	n/a	n/a	n/a	n/a	n/a	n/a	18	2	9	7	n/a	n/a	n/a	n/a	n/a
3066.06	n/a	PROB	1533030	n/a	LTP198	ltpFR	11	n/a	n/a	n/a	n/a	n/a	n/a	n/a	19	6	7	6	n/a	n/a	n/a	n/a	n/a
3069.52	n/a	STOP	1534760	n/a	LTP198	ltpFR	11	n/a	n/a	n/a	n/a	n/a	n/a	n/a	n/a	n/a	n/a	n/a	n/a	n/a	n/a	n/a	n/a
3070.852	n/a	WORD	1535426	wordpools/wasnorm_wordpool_less_exclusions.txt	LTP198	ltpFR	11	11	1	DEPUTY	450	n/a	n/a	1	n/a	0	0	0	0.57763671875	0.412841796875	1	lower	amplitud.ttf
3073.864	n/a	START	1536932	n/a	LTP198	ltpFR	11	n/a	n/a	n/a	n/a	n/a	n/a	n/a	n/a	n/a	n/a	n/a	n/a	n/a	n/a	n/a	n/a
3075.012	n/a	PROB	1537506	n/a	LTP198	ltpFR	11	n/a	n/a	n/a	n/a	n/a	n/a	n/a	20	6	6	8	n/a	n/a	n/a	n/a	n/a
3076.97	n/a	PROB	1538485	n/a	LTP198	ltpFR	11	n/a	n/a	n/a	n/a	n/a	n/a	n/a	10	3	3	4	n/a	n/a	n/a	n/a	n/a
3079.234	n/a	PROB	1539617	n/a	LTP198	ltpFR	11	n/a	n/a	n/a	n/a	n/a	n/a	n/a	8	2	3	3	n/a	n/a	n/a	n/a	n/a
3080.88	n/a	STOP	1540440	n/a	LTP198	ltpFR	11	n/a	n/a	n/a	n/a	n/a	n/a	n/a	n/a	n/a	n/a	n/a	n/a	n/a	n/a	n/a	n/a
3082.998	n/a	WORD	1541499	wordpools/wasnorm_wordpool_less_exclusions.txt	LTP198	ltpFR	11	11	0	HAIL	676	n/a	n/a	0	n/a	0	0	0	0.422607421875	0.5869140625	0	upper	zerothre.ttf
3086.01	n/a	START	1543005	n/a	LTP198	ltpFR	11	n/a	n/a	n/a	n/a	n/a	n/a	n/a	n/a	n/a	n/a	n/a	n/a	n/a	n/a	n/a	n/a
3087.096	n/a	PROB	1543548	n/a	LTP198	ltpFR	11	n/a	n/a	n/a	n/a	n/a	n/a	n/a	11	5	3	3	n/a	n/a	n/a	n/a	n/a
3088.78	n/a	PROB	1544390	n/a	LTP198	ltpFR	11	n/a	n/a	n/a	n/a	n/a	n/a	n/a	13	7	4	2	n/a	n/a	n/a	n/a	n/a
3091.23	n/a	PROB	1545615	n/a	LTP198	ltpFR	11	n/a	n/a	n/a	n/a	n/a	n/a	n/a	4	1	2	1	n/a	n/a	n/a	n/a	n/a
3092.458	n/a	STOP	1546229	n/a	LTP198	ltpFR	11	n/a	n/a	n/a	n/a	n/a	n/a	n/a	n/a	n/a	n/a	n/a	n/a	n/a	n/a	n/a	n/a
3094.904	n/a	WORD	1547452	wordpools/wasnorm_wordpool_less_exclusions.txt	LTP198	ltpFR	11	11	0	FREEZER	604	n/a	n/a	1	n/a	0	0	0	0.422607421875	0.5869140625	0	upper	zerothre.ttf
3097.916	n/a	START	1548958	n/a	LTP198	ltpFR	11	n/a	n/a	n/a	n/a	n/a	n/a	n/a	n/a	n/a	n/a	n/a	n/a	n/a	n/a	n/a	n/a
3098.926	n/a	PROB	1549463	n/a	LTP198	ltpFR	11	n/a	n/a	n/a	n/a	n/a	n/a	n/a	9	2	2	5	n/a	n/a	n/a	n/a	n/a
3100.466	n/a	PROB	1550233	n/a	LTP198	ltpFR	11	n/a	n/a	n/a	n/a	n/a	n/a	n/a	20	2	9	9	n/a	n/a	n/a	n/a	n/a
3101.93	n/a	PROB	1550965	n/a	LTP198	ltpFR	11	n/a	n/a	n/a	n/a	n/a	n/a	n/a	15	7	2	6	n/a	n/a	n/a	n/a	n/a
3103.544	n/a	PROB	1551772	n/a	LTP198	ltpFR	11	n/a	n/a	n/a	n/a	n/a	n/a	n/a	11	3	6	2	n/a	n/a	n/a	n/a	n/a
3105.426	n/a	STOP	1552713	n/a	LTP198	ltpFR	11	n/a	n/a	n/a	n/a	n/a	n/a	n/a	n/a	n/a	n/a	n/a	n/a	n/a	n/a	n/a	n/a
3106.8	n/a	WORD	1553400	wordpools/wasnorm_wordpool_less_exclusions.txt	LTP198	ltpFR	11	11	0	UNDERWEAR	1537	n/a	n/a	0	n/a	0	0	0	0.422607421875	0.5869140625	0	upper	zerothre.ttf
3109.812	n/a	START	1554906	n/a	LTP198	ltpFR	11	n/a	n/a	n/a	n/a	n/a	n/a	n/a	n/a	n/a	n/a	n/a	n/a	n/a	n/a	n/a	n/a
3110.966	n/a	PROB	1555483	n/a	LTP198	ltpFR	11	n/a	n/a	n/a	n/a	n/a	n/a	n/a	14	1	9	4	n/a	n/a	n/a	n/a	n/a
3112.188	n/a	PROB	1556094	n/a	LTP198	ltpFR	11	n/a	n/a	n/a	n/a	n/a	n/a	n/a	17	5	7	5	n/a	n/a	n/a	n/a	n/a
3113.71	n/a	PROB	1556855	n/a	LTP198	ltpFR	11	n/a	n/a	n/a	n/a	n/a	n/a	n/a	10	3	2	5	n/a	n/a	n/a	n/a	n/a
3116.73	n/a	STOP	1558365	n/a	LTP198	ltpFR	11	n/a	n/a	n/a	n/a	n/a	n/a	n/a	n/a	n/a	n/a	n/a	n/a	n/a	n/a	n/a	n/a
3118.896	n/a	WORD	1559448	wordpools/wasnorm_wordpool_less_exclusions.txt	LTP198	ltpFR	11	11	1	MISSILE	900	n/a	n/a	0	n/a	0	0	0	0.57763671875	0.412841796875	1	lower	amplitud.ttf
3121.908	n/a	START	1560954	n/a	LTP198	ltpFR	11	n/a	n/a	n/a	n/a	n/a	n/a	n/a	n/a	n/a	n/a	n/a	n/a	n/a	n/a	n/a	n/a
3129.908	n/a	STOP	1564954	n/a	LTP198	ltpFR	11	n/a	n/a	n/a	n/a	n/a	n/a	n/a	n/a	n/a	n/a	n/a	n/a	n/a	n/a	n/a	n/a
3131.042	n/a	WORD	1565521	wordpools/wasnorm_wordpool_less_exclusions.txt	LTP198	ltpFR	11	11	1	BADGE	68	n/a	n/a	0	n/a	0	0	0	0.57763671875	0.412841796875	1	lower	amplitud.ttf
3134.054	n/a	START	1567027	n/a	LTP198	ltpFR	11	n/a	n/a	n/a	n/a	n/a	n/a	n/a	n/a	n/a	n/a	n/a	n/a	n/a	n/a	n/a	n/a
3135.164	n/a	PROB	1567582	n/a	LTP198	ltpFR	11	n/a	n/a	n/a	n/a	n/a	n/a	n/a	21	9	5	7	n/a	n/a	n/a	n/a	n/a
3138.042	n/a	PROB	1569021	n/a	LTP198	ltpFR	11	n/a	n/a	n/a	n/a	n/a	n/a	n/a	20	9	4	7	n/a	n/a	n/a	n/a	n/a
3140.562	n/a	STOP	1570281	n/a	LTP198	ltpFR	11	n/a	n/a	n/a	n/a	n/a	n/a	n/a	n/a	n/a	n/a	n/a	n/a	n/a	n/a	n/a	n/a
3143.072	n/a	WORD	1571536	wordpools/wasnorm_wordpool_less_exclusions.txt	LTP198	ltpFR	11	11	1	CAKE	219	n/a	n/a	0	n/a	0	0	0	0.57763671875	0.412841796875	1	lower	amplitud.ttf
3146.082	n/a	START	1573041	n/a	LTP198	ltpFR	11	n/a	n/a	n/a	n/a	n/a	n/a	n/a	n/a	n/a	n/a	n/a	n/a	n/a	n/a	n/a	n/a
3147.01	n/a	PROB	1573505	n/a	LTP198	ltpFR	11	n/a	n/a	n/a	n/a	n/a	n/a	n/a	11	8	2	1	n/a	n/a	n/a	n/a	n/a
3148.224	n/a	PROB	1574112	n/a	LTP198	ltpFR	11	n/a	n/a	n/a	n/a	n/a	n/a	n/a	16	8	6	2	n/a	n/a	n/a	n/a	n/a
3150.072	n/a	PROB	1575036	n/a	LTP198	ltpFR	11	n/a	n/a	n/a	n/a	n/a	n/a	n/a	20	8	5	7	n/a	n/a	n/a	n/a	n/a
3154.082	n/a	STOP	1577041	n/a	LTP198	ltpFR	11	n/a	n/a	n/a	n/a	n/a	n/a	n/a	n/a	n/a	n/a	n/a	n/a	n/a	n/a	n/a	n/a
3155.962	n/a	REC_START	1577981	n/a	LTP198	ltpFR	11	11	n/a	n/a	n/a	n/a	n/a	n/a	n/a	0	0	0	n/a	n/a	n/a	n/a	n/a
3156.904	n/a	REC_WORD	1578452	wordpools/wasnorm_wordpool_less_exclusions.txt	LTP198	ltpFR	11	11	1	CAKE	219	n/a	n/a	0	n/a	0	0	0	n/a	n/a	n/a	n/a	n/a
3157.882	n/a	REC_WORD	1578941	wordpools/wasnorm_wordpool_less_exclusions.txt	LTP198	ltpFR	11	11	1	PATRIOT	1026	n/a	n/a	1	n/a	0	0	0	n/a	n/a	n/a	n/a	n/a
3158.754	n/a	REC_WORD	1579377	wordpools/wasnorm_wordpool_less_exclusions.txt	LTP198	ltpFR	11	11	1	SUIT	1402	n/a	n/a	0	n/a	0	0	0	n/a	n/a	n/a	n/a	n/a
3159.792	n/a	REC_WORD	1579896	wordpools/wasnorm_wordpool_less_exclusions.txt	LTP198	ltpFR	11	11	0	CHEERLEADER	288	n/a	n/a	1	n/a	0	0	0	n/a	n/a	n/a	n/a	n/a
3160.74	n/a	REC_WORD	1580370	wordpools/wasnorm_wordpool_less_exclusions.txt	LTP198	ltpFR	11	11	0	MANAGER	863	n/a	n/a	3	n/a	0	0	0	n/a	n/a	n/a	n/a	n/a
