mstime	trial_type	stim_file	subject	experiment	session	trial	task	item_name	item_num	recog_conf	resp	color_b	color_g	color_r	case	font
0	SESS_START	n/a	LTP094	ltpFR	16	n/a	n/a	n/a	n/a	2	n/a	n/a	n/a	n/a	n/a	n/a
54849	WORD	wordpools/wasnorm_wordpool.txt	LTP094	ltpFR	16	1	1	BRAKE	166	n/a	0	0	0.5869140625	0.422607421875	lower	../fonts/amplitud.ttf
59032	WORD	wordpools/wasnorm_wordpool.txt	LTP094	ltpFR	16	1	1	RADIATOR	1156	n/a	0	0	0.5869140625	0.422607421875	lower	../fonts/amplitud.ttf
63141	WORD	wordpools/wasnorm_wordpool.txt	LTP094	ltpFR	16	1	1	ATTIC	56	n/a	0	0	0.5869140625	0.422607421875	lower	../fonts/amplitud.ttf
67315	WORD	wordpools/wasnorm_wordpool.txt	LTP094	ltpFR	16	1	1	SPOUSE	1358	n/a	1	0	0.5869140625	0.422607421875	lower	../fonts/amplitud.ttf
71298	WORD	wordpools/wasnorm_wordpool.txt	LTP094	ltpFR	16	1	1	WIFE	1609	n/a	1	0	0.5869140625	0.422607421875	lower	../fonts/amplitud.ttf
75356	WORD	wordpools/wasnorm_wordpool.txt	LTP094	ltpFR	16	1	1	BOUQUET	157	n/a	1	0	0.5869140625	0.422607421875	lower	../fonts/amplitud.ttf
79540	WORD	wordpools/wasnorm_wordpool.txt	LTP094	ltpFR	16	1	0	RAKE	1164	n/a	0	1	0.412841796875	0.57763671875	upper	../fonts/zerothre.ttf
83464	WORD	wordpools/wasnorm_wordpool.txt	LTP094	ltpFR	16	1	0	ONION	977	n/a	0	1	0.412841796875	0.57763671875	upper	../fonts/zerothre.ttf
87280	WORD	wordpools/wasnorm_wordpool.txt	LTP094	ltpFR	16	1	1	CHAUFFEUR	283	n/a	1	0	0.5869140625	0.422607421875	lower	../fonts/amplitud.ttf
91213	WORD	wordpools/wasnorm_wordpool.txt	LTP094	ltpFR	16	1	1	DISH	474	n/a	0	0	0.5869140625	0.422607421875	lower	../fonts/amplitud.ttf
95163	WORD	wordpools/wasnorm_wordpool.txt	LTP094	ltpFR	16	1	0	KITE	779	n/a	0	1	0.412841796875	0.57763671875	upper	../fonts/zerothre.ttf
99038	WORD	wordpools/wasnorm_wordpool.txt	LTP094	ltpFR	16	1	0	NAVIGATOR	938	n/a	0	1	0.412841796875	0.57763671875	upper	../fonts/zerothre.ttf
103071	WORD	wordpools/wasnorm_wordpool.txt	LTP094	ltpFR	16	1	0	BARN	89	n/a	1	1	0.412841796875	0.57763671875	upper	../fonts/zerothre.ttf
107112	WORD	wordpools/wasnorm_wordpool.txt	LTP094	ltpFR	16	1	0	WATERFALL	1595	n/a	1	1	0.412841796875	0.57763671875	upper	../fonts/zerothre.ttf
111028	WORD	wordpools/wasnorm_wordpool.txt	LTP094	ltpFR	16	1	0	BARLEY	88	n/a	0	1	0.412841796875	0.57763671875	upper	../fonts/zerothre.ttf
115186	WORD	wordpools/wasnorm_wordpool.txt	LTP094	ltpFR	16	1	0	MECHANIC	884	n/a	0	1	0.412841796875	0.57763671875	upper	../fonts/zerothre.ttf
121070	REC_START	n/a	LTP094	ltpFR	16	1	n/a	n/a	n/a	n/a	n/a	n/a	n/a	n/a	n/a	n/a
122126	REC_WORD	wordpools/wasnorm_wordpool.txt	LTP094	ltpFR	16	1	0	MECHANIC	884	n/a	0	n/a	n/a	n/a	n/a	n/a
123080	REC_WORD	wordpools/wasnorm_wordpool.txt	LTP094	ltpFR	16	1	0	BARLEY	88	n/a	0	n/a	n/a	n/a	n/a	n/a
124612	REC_WORD	wordpools/wasnorm_wordpool.txt	LTP094	ltpFR	16	1	1	ATTIC	56	n/a	0	n/a	n/a	n/a	n/a	n/a
125852	REC_WORD	wordpools/wasnorm_wordpool.txt	LTP094	ltpFR	16	1	0	BARN	89	n/a	1	n/a	n/a	n/a	n/a	n/a
127514	REC_WORD	wordpools/wasnorm_wordpool.txt	LTP094	ltpFR	16	1	1	WIFE	1609	n/a	1	n/a	n/a	n/a	n/a	n/a
128390	REC_WORD	wordpools/wasnorm_wordpool.txt	LTP094	ltpFR	16	1	1	SPOUSE	1358	n/a	1	n/a	n/a	n/a	n/a	n/a
129695	REC_WORD	wordpools/wasnorm_wordpool.txt	LTP094	ltpFR	16	1	1	BRAKE	166	n/a	0	n/a	n/a	n/a	n/a	n/a
136376	REC_WORD	wordpools/wasnorm_wordpool.txt	LTP094	ltpFR	16	1	1	CHAUFFEUR	283	n/a	1	n/a	n/a	n/a	n/a	n/a
141334	REC_WORD	wordpools/wasnorm_wordpool.txt	LTP094	ltpFR	16	1	1	BOUQUET	157	n/a	1	n/a	n/a	n/a	n/a	n/a
161577	REC_WORD	wordpools/wasnorm_wordpool.txt	LTP094	ltpFR	16	1	0	WATERFALL	1595	n/a	1	n/a	n/a	n/a	n/a	n/a
166220	REC_WORD	wordpools/wasnorm_wordpool.txt	LTP094	ltpFR	16	1	0	KITE	779	n/a	0	n/a	n/a	n/a	n/a	n/a
169997	REC_WORD	wordpools/wasnorm_wordpool.txt	LTP094	ltpFR	16	1	n/a	SAND	1230	n/a	n/a	n/a	n/a	n/a	n/a	n/a
172371	REC_WORD	wordpools/wasnorm_wordpool.txt	LTP094	ltpFR	16	1	n/a	ROCK	1201	n/a	n/a	n/a	n/a	n/a	n/a	n/a
187945	REC_WORD	wordpools/wasnorm_wordpool.txt	LTP094	ltpFR	16	1	n/a	INCONVENIENT	-1	n/a	n/a	n/a	n/a	n/a	n/a	n/a
193854	REC_WORD	wordpools/wasnorm_wordpool.txt	LTP094	ltpFR	16	1	n/a	SEAGULL	1261	n/a	n/a	n/a	n/a	n/a	n/a	n/a
199573	WORD	wordpools/wasnorm_wordpool.txt	LTP094	ltpFR	16	2	0	BED	110	n/a	0	1	0.412841796875	0.57763671875	upper	../fonts/zerothre.ttf
203756	WORD	wordpools/wasnorm_wordpool.txt	LTP094	ltpFR	16	2	0	LINEN	825	n/a	0	1	0.412841796875	0.57763671875	upper	../fonts/zerothre.ttf
207589	WORD	wordpools/wasnorm_wordpool.txt	LTP094	ltpFR	16	2	1	TAIL	1430	n/a	1	0	0.5869140625	0.422607421875	lower	../fonts/amplitud.ttf
211504	WORD	wordpools/wasnorm_wordpool.txt	LTP094	ltpFR	16	2	1	CHIPMUNK	304	n/a	1	0	0.5869140625	0.422607421875	lower	../fonts/amplitud.ttf
215713	WORD	wordpools/wasnorm_wordpool.txt	LTP094	ltpFR	16	2	1	FLY	586	n/a	1	0	0.5869140625	0.422607421875	lower	../fonts/amplitud.ttf
219671	WORD	wordpools/wasnorm_wordpool.txt	LTP094	ltpFR	16	2	0	FURNITURE	616	n/a	1	1	0.412841796875	0.57763671875	upper	../fonts/zerothre.ttf
223746	WORD	wordpools/wasnorm_wordpool.txt	LTP094	ltpFR	16	2	0	CHEESE	289	n/a	0	1	0.412841796875	0.57763671875	upper	../fonts/zerothre.ttf
227629	WORD	wordpools/wasnorm_wordpool.txt	LTP094	ltpFR	16	2	0	MOTEL	919	n/a	1	1	0.412841796875	0.57763671875	upper	../fonts/zerothre.ttf
231819	WORD	wordpools/wasnorm_wordpool.txt	LTP094	ltpFR	16	2	1	GUEST	669	n/a	1	0	0.5869140625	0.422607421875	lower	../fonts/amplitud.ttf
235977	WORD	wordpools/wasnorm_wordpool.txt	LTP094	ltpFR	16	2	1	DRINK	498	n/a	0	0	0.5869140625	0.422607421875	lower	../fonts/amplitud.ttf
239935	WORD	wordpools/wasnorm_wordpool.txt	LTP094	ltpFR	16	2	1	ANTEATER	26	n/a	1	0	0.5869140625	0.422607421875	lower	../fonts/amplitud.ttf
243902	WORD	wordpools/wasnorm_wordpool.txt	LTP094	ltpFR	16	2	1	CANAL	226	n/a	0	0	0.5869140625	0.422607421875	lower	../fonts/amplitud.ttf
247943	WORD	wordpools/wasnorm_wordpool.txt	LTP094	ltpFR	16	2	1	PAIL	1002	n/a	0	0	0.5869140625	0.422607421875	lower	../fonts/amplitud.ttf
251884	WORD	wordpools/wasnorm_wordpool.txt	LTP094	ltpFR	16	2	0	APPLICATION	34	n/a	1	1	0.412841796875	0.57763671875	upper	../fonts/zerothre.ttf
256076	WORD	wordpools/wasnorm_wordpool.txt	LTP094	ltpFR	16	2	0	SUITE	1404	n/a	1	1	0.412841796875	0.57763671875	upper	../fonts/zerothre.ttf
260217	WORD	wordpools/wasnorm_wordpool.txt	LTP094	ltpFR	16	2	0	FAMILY	550	n/a	1	1	0.412841796875	0.57763671875	upper	../fonts/zerothre.ttf
266059	REC_START	n/a	LTP094	ltpFR	16	2	n/a	n/a	n/a	n/a	n/a	n/a	n/a	n/a	n/a	n/a
266973	REC_WORD	wordpools/wasnorm_wordpool.txt	LTP094	ltpFR	16	2	0	FAMILY	550	n/a	1	n/a	n/a	n/a	n/a	n/a
268087	REC_WORD	wordpools/wasnorm_wordpool.txt	LTP094	ltpFR	16	2	0	MOTEL	919	n/a	1	n/a	n/a	n/a	n/a	n/a
272271	REC_WORD	wordpools/wasnorm_wordpool.txt	LTP094	ltpFR	16	2	1	TAIL	1430	n/a	1	n/a	n/a	n/a	n/a	n/a
273052	REC_WORD	wordpools/wasnorm_wordpool.txt	LTP094	ltpFR	16	2	1	CHIPMUNK	304	n/a	1	n/a	n/a	n/a	n/a	n/a
284577	REC_WORD	wordpools/wasnorm_wordpool.txt	LTP094	ltpFR	16	2	n/a	SWEET	-1	n/a	n/a	n/a	n/a	n/a	n/a	n/a
299637	REC_WORD	wordpools/wasnorm_wordpool.txt	LTP094	ltpFR	16	2	0	CHEESE	289	n/a	0	n/a	n/a	n/a	n/a	n/a
320511	REC_WORD	wordpools/wasnorm_wordpool.txt	LTP094	ltpFR	16	2	0	BARLEY	88	n/a	0	n/a	n/a	n/a	n/a	n/a
324488	REC_WORD	wordpools/wasnorm_wordpool.txt	LTP094	ltpFR	16	2	n/a	FLAG	573	n/a	n/a	n/a	n/a	n/a	n/a	n/a
345302	WORD	wordpools/wasnorm_wordpool.txt	LTP094	ltpFR	16	3	1	DOCUMENT	479	n/a	0	0	0.5869140625	0.422607421875	lower	../fonts/amplitud.ttf
349310	WORD	wordpools/wasnorm_wordpool.txt	LTP094	ltpFR	16	3	1	BUILDER	190	n/a	1	0	0.5869140625	0.422607421875	lower	../fonts/amplitud.ttf
353151	WORD	wordpools/wasnorm_wordpool.txt	LTP094	ltpFR	16	3	1	SKYSCRAPER	1322	n/a	0	0	0.5869140625	0.422607421875	lower	../fonts/amplitud.ttf
357151	WORD	wordpools/wasnorm_wordpool.txt	LTP094	ltpFR	16	3	1	SPARROW	1347	n/a	1	0	0.5869140625	0.422607421875	lower	../fonts/amplitud.ttf
361242	WORD	wordpools/wasnorm_wordpool.txt	LTP094	ltpFR	16	3	1	SWIMMER	1420	n/a	1	0	0.5869140625	0.422607421875	lower	../fonts/amplitud.ttf
365309	WORD	wordpools/wasnorm_wordpool.txt	LTP094	ltpFR	16	3	1	CHAMPAGNE	278	n/a	0	0	0.5869140625	0.422607421875	lower	../fonts/amplitud.ttf
369325	WORD	wordpools/wasnorm_wordpool.txt	LTP094	ltpFR	16	3	1	DUCK	504	n/a	1	0	0.5869140625	0.422607421875	lower	../fonts/amplitud.ttf
373150	WORD	wordpools/wasnorm_wordpool.txt	LTP094	ltpFR	16	3	1	POOL	1103	n/a	0	0	0.5869140625	0.422607421875	lower	../fonts/amplitud.ttf
377066	WORD	wordpools/wasnorm_wordpool.txt	LTP094	ltpFR	16	3	1	JOURNAL	760	n/a	0	0	0.5869140625	0.422607421875	lower	../fonts/amplitud.ttf
381107	WORD	wordpools/wasnorm_wordpool.txt	LTP094	ltpFR	16	3	1	TEENAGER	1444	n/a	1	0	0.5869140625	0.422607421875	lower	../fonts/amplitud.ttf
385124	WORD	wordpools/wasnorm_wordpool.txt	LTP094	ltpFR	16	3	1	LION	827	n/a	1	0	0.5869140625	0.422607421875	lower	../fonts/amplitud.ttf
389190	WORD	wordpools/wasnorm_wordpool.txt	LTP094	ltpFR	16	3	1	SNACK	1331	n/a	0	0	0.5869140625	0.422607421875	lower	../fonts/amplitud.ttf
393215	WORD	wordpools/wasnorm_wordpool.txt	LTP094	ltpFR	16	3	1	DESSERT	453	n/a	0	0	0.5869140625	0.422607421875	lower	../fonts/amplitud.ttf
397281	WORD	wordpools/wasnorm_wordpool.txt	LTP094	ltpFR	16	3	1	SQUID	1361	n/a	1	0	0.5869140625	0.422607421875	lower	../fonts/amplitud.ttf
401231	WORD	wordpools/wasnorm_wordpool.txt	LTP094	ltpFR	16	3	1	PIER	1063	n/a	0	0	0.5869140625	0.422607421875	lower	../fonts/amplitud.ttf
405414	WORD	wordpools/wasnorm_wordpool.txt	LTP094	ltpFR	16	3	1	PIMPLE	1071	n/a	0	0	0.5869140625	0.422607421875	lower	../fonts/amplitud.ttf
411181	REC_START	n/a	LTP094	ltpFR	16	3	n/a	n/a	n/a	n/a	n/a	n/a	n/a	n/a	n/a	n/a
412282	REC_WORD	wordpools/wasnorm_wordpool.txt	LTP094	ltpFR	16	3	1	PIMPLE	1071	n/a	0	n/a	n/a	n/a	n/a	n/a
413328	REC_WORD	wordpools/wasnorm_wordpool.txt	LTP094	ltpFR	16	3	1	PIER	1063	n/a	0	n/a	n/a	n/a	n/a	n/a
417080	REC_WORD	wordpools/wasnorm_wordpool.txt	LTP094	ltpFR	16	3	1	DOCUMENT	479	n/a	0	n/a	n/a	n/a	n/a	n/a
419196	REC_WORD	wordpools/wasnorm_wordpool.txt	LTP094	ltpFR	16	3	1	ANTEATER	26	n/a	1	n/a	n/a	n/a	n/a	n/a
421577	REC_WORD	wordpools/wasnorm_wordpool.txt	LTP094	ltpFR	16	3	0	BED	110	n/a	0	n/a	n/a	n/a	n/a	n/a
436928	REC_WORD	wordpools/wasnorm_wordpool.txt	LTP094	ltpFR	16	3	n/a	CAKE	219	n/a	n/a	n/a	n/a	n/a	n/a	n/a
473873	REC_WORD	wordpools/wasnorm_wordpool.txt	LTP094	ltpFR	16	3	1	SQUID	1361	n/a	1	n/a	n/a	n/a	n/a	n/a
475689	REC_WORD	wordpools/wasnorm_wordpool.txt	LTP094	ltpFR	16	3	n/a	OCTOPUS	971	n/a	n/a	n/a	n/a	n/a	n/a	n/a
477221	REC_WORD	wordpools/wasnorm_wordpool.txt	LTP094	ltpFR	16	3	n/a	SEA	1259	n/a	n/a	n/a	n/a	n/a	n/a	n/a
480640	REC_WORD	wordpools/wasnorm_wordpool.txt	LTP094	ltpFR	16	3	n/a	DIVING	-1	n/a	n/a	n/a	n/a	n/a	n/a	n/a
483394	REC_WORD_VV	wordpools/wasnorm_wordpool.txt	LTP094	ltpFR	16	3	n/a	<>	-1	n/a	n/a	n/a	n/a	n/a	n/a	n/a
484394	REC_WORD_VV	wordpools/wasnorm_wordpool.txt	LTP094	ltpFR	16	3	n/a	<>	-1	n/a	n/a	n/a	n/a	n/a	n/a	n/a
490558	WORD	wordpools/wasnorm_wordpool.txt	LTP094	ltpFR	16	4	-1	OAR	966	n/a	-1	1	1.0	1.0	upper	../fonts/Verdana.ttf
494683	WORD	wordpools/wasnorm_wordpool.txt	LTP094	ltpFR	16	4	-1	RAFT	1159	n/a	-1	1	1.0	1.0	upper	../fonts/Verdana.ttf
498882	WORD	wordpools/wasnorm_wordpool.txt	LTP094	ltpFR	16	4	-1	AIRCRAFT	11	n/a	-1	1	1.0	1.0	upper	../fonts/Verdana.ttf
503006	WORD	wordpools/wasnorm_wordpool.txt	LTP094	ltpFR	16	4	-1	WHISKERS	1605	n/a	-1	1	1.0	1.0	upper	../fonts/Verdana.ttf
507098	WORD	wordpools/wasnorm_wordpool.txt	LTP094	ltpFR	16	4	-1	PRISONER	1128	n/a	-1	1	1.0	1.0	upper	../fonts/Verdana.ttf
510997	WORD	wordpools/wasnorm_wordpool.txt	LTP094	ltpFR	16	4	-1	LOG	841	n/a	-1	1	1.0	1.0	upper	../fonts/Verdana.ttf
514914	WORD	wordpools/wasnorm_wordpool.txt	LTP094	ltpFR	16	4	-1	RODENT	1204	n/a	-1	1	1.0	1.0	upper	../fonts/Verdana.ttf
518913	WORD	wordpools/wasnorm_wordpool.txt	LTP094	ltpFR	16	4	-1	HELICOPTER	701	n/a	-1	1	1.0	1.0	upper	../fonts/Verdana.ttf
522996	WORD	wordpools/wasnorm_wordpool.txt	LTP094	ltpFR	16	4	-1	TWEEZERS	1526	n/a	-1	1	1.0	1.0	upper	../fonts/Verdana.ttf
526863	WORD	wordpools/wasnorm_wordpool.txt	LTP094	ltpFR	16	4	-1	MONEY	908	n/a	-1	1	1.0	1.0	upper	../fonts/Verdana.ttf
530896	WORD	wordpools/wasnorm_wordpool.txt	LTP094	ltpFR	16	4	-1	EMPLOYEE	531	n/a	-1	1	1.0	1.0	upper	../fonts/Verdana.ttf
534821	WORD	wordpools/wasnorm_wordpool.txt	LTP094	ltpFR	16	4	-1	HANDBAG	684	n/a	-1	1	1.0	1.0	upper	../fonts/Verdana.ttf
538837	WORD	wordpools/wasnorm_wordpool.txt	LTP094	ltpFR	16	4	-1	MESSAGE	888	n/a	-1	1	1.0	1.0	upper	../fonts/Verdana.ttf
542795	WORD	wordpools/wasnorm_wordpool.txt	LTP094	ltpFR	16	4	-1	CORD	379	n/a	-1	1	1.0	1.0	upper	../fonts/Verdana.ttf
546771	WORD	wordpools/wasnorm_wordpool.txt	LTP094	ltpFR	16	4	-1	MATCH	878	n/a	-1	1	1.0	1.0	upper	../fonts/Verdana.ttf
550629	WORD	wordpools/wasnorm_wordpool.txt	LTP094	ltpFR	16	4	-1	CLAW	319	n/a	-1	1	1.0	1.0	upper	../fonts/Verdana.ttf
556395	REC_START	n/a	LTP094	ltpFR	16	4	n/a	n/a	n/a	n/a	n/a	n/a	n/a	n/a	n/a	n/a
557592	REC_WORD	wordpools/wasnorm_wordpool.txt	LTP094	ltpFR	16	4	-1	CLAW	319	n/a	-1	n/a	n/a	n/a	n/a	n/a
558681	REC_WORD	wordpools/wasnorm_wordpool.txt	LTP094	ltpFR	16	4	-1	MATCH	878	n/a	-1	n/a	n/a	n/a	n/a	n/a
560720	REC_WORD	wordpools/wasnorm_wordpool.txt	LTP094	ltpFR	16	4	-1	WHISKERS	1605	n/a	-1	n/a	n/a	n/a	n/a	n/a
561862	REC_WORD	wordpools/wasnorm_wordpool.txt	LTP094	ltpFR	16	4	-1	TWEEZERS	1526	n/a	-1	n/a	n/a	n/a	n/a	n/a
568294	REC_WORD	wordpools/wasnorm_wordpool.txt	LTP094	ltpFR	16	4	n/a	SCISSORS	1250	n/a	n/a	n/a	n/a	n/a	n/a	n/a
572949	REC_WORD	wordpools/wasnorm_wordpool.txt	LTP094	ltpFR	16	4	-1	OAR	966	n/a	-1	n/a	n/a	n/a	n/a	n/a
573932	REC_WORD	wordpools/wasnorm_wordpool.txt	LTP094	ltpFR	16	4	-1	RAFT	1159	n/a	-1	n/a	n/a	n/a	n/a	n/a
576549	REC_WORD	wordpools/wasnorm_wordpool.txt	LTP094	ltpFR	16	4	n/a	RIVER	1194	n/a	n/a	n/a	n/a	n/a	n/a	n/a
610982	REC_WORD	wordpools/wasnorm_wordpool.txt	LTP094	ltpFR	16	4	n/a	CAR	241	n/a	n/a	n/a	n/a	n/a	n/a	n/a
642787	WORD	wordpools/wasnorm_wordpool.txt	LTP094	ltpFR	16	5	1	SHOELACE	1289	n/a	0	0	0.5869140625	0.422607421875	lower	../fonts/amplitud.ttf
646904	WORD	wordpools/wasnorm_wordpool.txt	LTP094	ltpFR	16	5	1	SICKLE	1302	n/a	0	0	0.5869140625	0.422607421875	lower	../fonts/amplitud.ttf
651095	WORD	wordpools/wasnorm_wordpool.txt	LTP094	ltpFR	16	5	1	OFFICER	973	n/a	1	0	0.5869140625	0.422607421875	lower	../fonts/amplitud.ttf
655161	WORD	wordpools/wasnorm_wordpool.txt	LTP094	ltpFR	16	5	1	MAPLE	866	n/a	1	0	0.5869140625	0.422607421875	lower	../fonts/amplitud.ttf
659361	WORD	wordpools/wasnorm_wordpool.txt	LTP094	ltpFR	16	5	1	TUNNEL	1519	n/a	0	0	0.5869140625	0.422607421875	lower	../fonts/amplitud.ttf
663512	WORD	wordpools/wasnorm_wordpool.txt	LTP094	ltpFR	16	5	1	ACTRESS	6	n/a	1	0	0.5869140625	0.422607421875	lower	../fonts/amplitud.ttf
667469	WORD	wordpools/wasnorm_wordpool.txt	LTP094	ltpFR	16	5	1	HONEY	713	n/a	0	0	0.5869140625	0.422607421875	lower	../fonts/amplitud.ttf
671360	WORD	wordpools/wasnorm_wordpool.txt	LTP094	ltpFR	16	5	1	BOYFRIEND	162	n/a	1	0	0.5869140625	0.422607421875	lower	../fonts/amplitud.ttf
675176	WORD	wordpools/wasnorm_wordpool.txt	LTP094	ltpFR	16	5	1	TIE	1466	n/a	n/a	0	0.5869140625	0.422607421875	lower	../fonts/amplitud.ttf
678201	SLOW_MSG	n/a	LTP094	ltpFR	16	5	n/a	n/a	n/a	n/a	n/a	n/a	n/a	n/a	n/a	n/a
680594	WORD	wordpools/wasnorm_wordpool.txt	LTP094	ltpFR	16	5	1	BELLY	119	n/a	1	0	0.5869140625	0.422607421875	lower	../fonts/amplitud.ttf
684677	WORD	wordpools/wasnorm_wordpool.txt	LTP094	ltpFR	16	5	1	CHEST	295	n/a	1	0	0.5869140625	0.422607421875	lower	../fonts/amplitud.ttf
688626	WORD	wordpools/wasnorm_wordpool.txt	LTP094	ltpFR	16	5	1	SERGEANT	1269	n/a	1	0	0.5869140625	0.422607421875	lower	../fonts/amplitud.ttf
692792	WORD	wordpools/wasnorm_wordpool.txt	LTP094	ltpFR	16	5	1	MARSH	874	n/a	0	0	0.5869140625	0.422607421875	lower	../fonts/amplitud.ttf
696751	WORD	wordpools/wasnorm_wordpool.txt	LTP094	ltpFR	16	5	1	BRIDGE	174	n/a	0	0	0.5869140625	0.422607421875	lower	../fonts/amplitud.ttf
700958	WORD	wordpools/wasnorm_wordpool.txt	LTP094	ltpFR	16	5	1	CASTLE	256	n/a	0	0	0.5869140625	0.422607421875	lower	../fonts/amplitud.ttf
705016	WORD	wordpools/wasnorm_wordpool.txt	LTP094	ltpFR	16	5	1	QUEEN	1149	n/a	1	0	0.5869140625	0.422607421875	lower	../fonts/amplitud.ttf
710849	REC_START	n/a	LTP094	ltpFR	16	5	n/a	n/a	n/a	n/a	n/a	n/a	n/a	n/a	n/a	n/a
711701	REC_WORD	wordpools/wasnorm_wordpool.txt	LTP094	ltpFR	16	5	1	CASTLE	256	n/a	0	n/a	n/a	n/a	n/a	n/a
712765	REC_WORD	wordpools/wasnorm_wordpool.txt	LTP094	ltpFR	16	5	1	BRIDGE	174	n/a	0	n/a	n/a	n/a	n/a	n/a
714501	REC_WORD	wordpools/wasnorm_wordpool.txt	LTP094	ltpFR	16	5	1	QUEEN	1149	n/a	1	n/a	n/a	n/a	n/a	n/a
716875	REC_WORD	wordpools/wasnorm_wordpool.txt	LTP094	ltpFR	16	5	1	SHOELACE	1289	n/a	0	n/a	n/a	n/a	n/a	n/a
718193	REC_WORD	wordpools/wasnorm_wordpool.txt	LTP094	ltpFR	16	5	1	SICKLE	1302	n/a	0	n/a	n/a	n/a	n/a	n/a
723476	REC_WORD	wordpools/wasnorm_wordpool.txt	LTP094	ltpFR	16	5	1	BELLY	119	n/a	1	n/a	n/a	n/a	n/a	n/a
724428	REC_WORD	wordpools/wasnorm_wordpool.txt	LTP094	ltpFR	16	5	1	CHEST	295	n/a	1	n/a	n/a	n/a	n/a	n/a
774230	REC_WORD	wordpools/wasnorm_wordpool.txt	LTP094	ltpFR	16	5	n/a	LIGHT	-1	n/a	n/a	n/a	n/a	n/a	n/a	n/a
782461	REC_WORD	wordpools/wasnorm_wordpool.txt	LTP094	ltpFR	16	5	n/a	SPEED	-1	n/a	n/a	n/a	n/a	n/a	n/a	n/a
789059	WORD	wordpools/wasnorm_wordpool.txt	LTP094	ltpFR	16	6	0	SCALPEL	1243	n/a	0	1	0.412841796875	0.57763671875	upper	../fonts/zerothre.ttf
792951	WORD	wordpools/wasnorm_wordpool.txt	LTP094	ltpFR	16	6	0	TOENAIL	1474	n/a	0	1	0.412841796875	0.57763671875	upper	../fonts/zerothre.ttf
797067	WORD	wordpools/wasnorm_wordpool.txt	LTP094	ltpFR	16	6	0	DENIM	446	n/a	0	1	0.412841796875	0.57763671875	upper	../fonts/zerothre.ttf
800950	WORD	wordpools/wasnorm_wordpool.txt	LTP094	ltpFR	16	6	0	MONSTER	912	n/a	1	1	0.412841796875	0.57763671875	upper	../fonts/zerothre.ttf
804800	WORD	wordpools/wasnorm_wordpool.txt	LTP094	ltpFR	16	6	0	TANK	1432	n/a	1	1	0.412841796875	0.57763671875	upper	../fonts/zerothre.ttf
808684	WORD	wordpools/wasnorm_wordpool.txt	LTP094	ltpFR	16	6	0	GOWN	652	n/a	0	1	0.412841796875	0.57763671875	upper	../fonts/zerothre.ttf
812683	WORD	wordpools/wasnorm_wordpool.txt	LTP094	ltpFR	16	6	0	BUBBLE	183	n/a	0	1	0.412841796875	0.57763671875	upper	../fonts/zerothre.ttf
816782	WORD	wordpools/wasnorm_wordpool.txt	LTP094	ltpFR	16	6	0	SIDING	1304	n/a	1	1	0.412841796875	0.57763671875	upper	../fonts/zerothre.ttf
820982	WORD	wordpools/wasnorm_wordpool.txt	LTP094	ltpFR	16	6	0	ROBIN	1199	n/a	0	1	0.412841796875	0.57763671875	upper	../fonts/zerothre.ttf
825006	WORD	wordpools/wasnorm_wordpool.txt	LTP094	ltpFR	16	6	0	FEATHER	557	n/a	0	1	0.412841796875	0.57763671875	upper	../fonts/zerothre.ttf
828956	WORD	wordpools/wasnorm_wordpool.txt	LTP094	ltpFR	16	6	0	SIREN	1310	n/a	0	1	0.412841796875	0.57763671875	upper	../fonts/zerothre.ttf
832947	WORD	wordpools/wasnorm_wordpool.txt	LTP094	ltpFR	16	6	0	GHOST	634	n/a	0	1	0.412841796875	0.57763671875	upper	../fonts/zerothre.ttf
837080	WORD	wordpools/wasnorm_wordpool.txt	LTP094	ltpFR	16	6	0	SUGAR	1401	n/a	0	1	0.412841796875	0.57763671875	upper	../fonts/zerothre.ttf
840938	WORD	wordpools/wasnorm_wordpool.txt	LTP094	ltpFR	16	6	0	OREGANO	983	n/a	0	1	0.412841796875	0.57763671875	upper	../fonts/zerothre.ttf
845130	WORD	wordpools/wasnorm_wordpool.txt	LTP094	ltpFR	16	6	0	RACKET	1155	n/a	0	1	0.412841796875	0.57763671875	upper	../fonts/zerothre.ttf
849071	WORD	wordpools/wasnorm_wordpool.txt	LTP094	ltpFR	16	6	0	POLICE	1098	n/a	1	1	0.412841796875	0.57763671875	upper	../fonts/zerothre.ttf
855063	REC_START	n/a	LTP094	ltpFR	16	6	n/a	n/a	n/a	n/a	n/a	n/a	n/a	n/a	n/a	n/a
856030	REC_WORD	wordpools/wasnorm_wordpool.txt	LTP094	ltpFR	16	6	0	OREGANO	983	n/a	0	n/a	n/a	n/a	n/a	n/a
857053	REC_WORD	wordpools/wasnorm_wordpool.txt	LTP094	ltpFR	16	6	0	RACKET	1155	n/a	0	n/a	n/a	n/a	n/a	n/a
858048	REC_WORD	wordpools/wasnorm_wordpool.txt	LTP094	ltpFR	16	6	0	POLICE	1098	n/a	1	n/a	n/a	n/a	n/a	n/a
860881	REC_WORD	wordpools/wasnorm_wordpool.txt	LTP094	ltpFR	16	6	0	GHOST	634	n/a	0	n/a	n/a	n/a	n/a	n/a
875347	REC_WORD_VV	wordpools/wasnorm_wordpool.txt	LTP094	ltpFR	16	6	n/a	<>	-1	n/a	n/a	n/a	n/a	n/a	n/a	n/a
902042	REC_WORD	wordpools/wasnorm_wordpool.txt	LTP094	ltpFR	16	6	n/a	ENGLAND	-1	n/a	n/a	n/a	n/a	n/a	n/a	n/a
911636	REC_WORD	wordpools/wasnorm_wordpool.txt	LTP094	ltpFR	16	6	n/a	PEOPLE	1046	n/a	n/a	n/a	n/a	n/a	n/a	n/a
933373	WORD	wordpools/wasnorm_wordpool.txt	LTP094	ltpFR	16	7	1	COOK	372	n/a	1	0	0.5869140625	0.422607421875	lower	../fonts/amplitud.ttf
937306	WORD	wordpools/wasnorm_wordpool.txt	LTP094	ltpFR	16	7	1	SHRIMP	1297	n/a	1	0	0.5869140625	0.422607421875	lower	../fonts/amplitud.ttf
941389	WORD	wordpools/wasnorm_wordpool.txt	LTP094	ltpFR	16	7	0	DIVER	476	n/a	0	1	0.412841796875	0.57763671875	upper	../fonts/zerothre.ttf
945380	WORD	wordpools/wasnorm_wordpool.txt	LTP094	ltpFR	16	7	0	BUFFALO	186	n/a	1	1	0.412841796875	0.57763671875	upper	../fonts/zerothre.ttf
949338	WORD	wordpools/wasnorm_wordpool.txt	LTP094	ltpFR	16	7	0	POTATO	1115	n/a	0	1	0.412841796875	0.57763671875	upper	../fonts/zerothre.ttf
953230	WORD	wordpools/wasnorm_wordpool.txt	LTP094	ltpFR	16	7	1	FELLOW	558	n/a	1	0	0.5869140625	0.422607421875	lower	../fonts/amplitud.ttf
957371	WORD	wordpools/wasnorm_wordpool.txt	LTP094	ltpFR	16	7	1	HAY	693	n/a	0	0	0.5869140625	0.422607421875	lower	../fonts/amplitud.ttf
961187	WORD	wordpools/wasnorm_wordpool.txt	LTP094	ltpFR	16	7	1	COOKIE	374	n/a	0	0	0.5869140625	0.422607421875	lower	../fonts/amplitud.ttf
965012	WORD	wordpools/wasnorm_wordpool.txt	LTP094	ltpFR	16	7	1	FIREPLACE	570	n/a	0	0	0.5869140625	0.422607421875	lower	../fonts/amplitud.ttf
968862	WORD	wordpools/wasnorm_wordpool.txt	LTP094	ltpFR	16	7	1	SURF	1412	n/a	0	0	0.5869140625	0.422607421875	lower	../fonts/amplitud.ttf
972887	WORD	wordpools/wasnorm_wordpool.txt	LTP094	ltpFR	16	7	1	SAUSAGE	1238	n/a	0	0	0.5869140625	0.422607421875	lower	../fonts/amplitud.ttf
976986	WORD	wordpools/wasnorm_wordpool.txt	LTP094	ltpFR	16	7	0	GOLD	647	n/a	1	1	0.412841796875	0.57763671875	upper	../fonts/zerothre.ttf
981094	WORD	wordpools/wasnorm_wordpool.txt	LTP094	ltpFR	16	7	0	EARRING	514	n/a	0	1	0.412841796875	0.57763671875	upper	../fonts/zerothre.ttf
984911	WORD	wordpools/wasnorm_wordpool.txt	LTP094	ltpFR	16	7	0	VESSEL	1558	n/a	1	1	0.412841796875	0.57763671875	upper	../fonts/zerothre.ttf
988802	WORD	wordpools/wasnorm_wordpool.txt	LTP094	ltpFR	16	7	0	DECK	443	n/a	0	1	0.412841796875	0.57763671875	upper	../fonts/zerothre.ttf
992952	WORD	wordpools/wasnorm_wordpool.txt	LTP094	ltpFR	16	7	0	SEAFOOD	1260	n/a	0	1	0.412841796875	0.57763671875	upper	../fonts/zerothre.ttf
998852	REC_START	n/a	LTP094	ltpFR	16	7	n/a	n/a	n/a	n/a	n/a	n/a	n/a	n/a	n/a	n/a
999987	REC_WORD	wordpools/wasnorm_wordpool.txt	LTP094	ltpFR	16	7	0	SEAFOOD	1260	n/a	0	n/a	n/a	n/a	n/a	n/a
1001267	REC_WORD	wordpools/wasnorm_wordpool.txt	LTP094	ltpFR	16	7	0	DECK	443	n/a	0	n/a	n/a	n/a	n/a	n/a
1017685	REC_WORD	wordpools/wasnorm_wordpool.txt	LTP094	ltpFR	16	7	0	POTATO	1115	n/a	0	n/a	n/a	n/a	n/a	n/a
1022192	REC_WORD	wordpools/wasnorm_wordpool.txt	LTP094	ltpFR	16	7	1	SHRIMP	1297	n/a	1	n/a	n/a	n/a	n/a	n/a
1023792	REC_WORD	wordpools/wasnorm_wordpool.txt	LTP094	ltpFR	16	7	0	SEAFOOD	1260	n/a	0	n/a	n/a	n/a	n/a	n/a
1069179	REC_WORD	wordpools/wasnorm_wordpool.txt	LTP094	ltpFR	16	7	n/a	MUSIC	-1	n/a	n/a	n/a	n/a	n/a	n/a	n/a
1072758	REC_WORD	wordpools/wasnorm_wordpool.txt	LTP094	ltpFR	16	7	n/a	TELEVISION	1447	n/a	n/a	n/a	n/a	n/a	n/a	n/a
1086503	WORD	wordpools/wasnorm_wordpool.txt	LTP094	ltpFR	16	8	0	NOVEL	960	n/a	1	1	0.412841796875	0.57763671875	upper	../fonts/zerothre.ttf
1090537	WORD	wordpools/wasnorm_wordpool.txt	LTP094	ltpFR	16	8	0	BRANCH	168	n/a	0	1	0.412841796875	0.57763671875	upper	../fonts/zerothre.ttf
1094410	WORD	wordpools/wasnorm_wordpool.txt	LTP094	ltpFR	16	8	0	PAPER	1011	n/a	1	1	0.412841796875	0.57763671875	upper	../fonts/zerothre.ttf
1098553	WORD	wordpools/wasnorm_wordpool.txt	LTP094	ltpFR	16	8	1	CRITIC	410	n/a	1	0	0.5869140625	0.422607421875	lower	../fonts/amplitud.ttf
1102686	WORD	wordpools/wasnorm_wordpool.txt	LTP094	ltpFR	16	8	1	JUG	762	n/a	0	0	0.5869140625	0.422607421875	lower	../fonts/amplitud.ttf
1106552	WORD	wordpools/wasnorm_wordpool.txt	LTP094	ltpFR	16	8	0	SNORKEL	1336	n/a	0	1	0.412841796875	0.57763671875	upper	../fonts/zerothre.ttf
1110593	WORD	wordpools/wasnorm_wordpool.txt	LTP094	ltpFR	16	8	0	CORAL	378	n/a	1	1	0.412841796875	0.57763671875	upper	../fonts/zerothre.ttf
1114434	WORD	wordpools/wasnorm_wordpool.txt	LTP094	ltpFR	16	8	1	PASSAGE	1019	n/a	0	0	0.5869140625	0.422607421875	lower	../fonts/amplitud.ttf
1118325	WORD	wordpools/wasnorm_wordpool.txt	LTP094	ltpFR	16	8	1	ALLIGATOR	16	n/a	1	0	0.5869140625	0.422607421875	lower	../fonts/amplitud.ttf
1122242	WORD	wordpools/wasnorm_wordpool.txt	LTP094	ltpFR	16	8	1	OBOE	969	n/a	0	0	0.5869140625	0.422607421875	lower	../fonts/amplitud.ttf
1126350	WORD	wordpools/wasnorm_wordpool.txt	LTP094	ltpFR	16	8	1	CAMEL	223	n/a	1	0	0.5869140625	0.422607421875	lower	../fonts/amplitud.ttf
1130349	WORD	wordpools/wasnorm_wordpool.txt	LTP094	ltpFR	16	8	1	CROCODILE	411	n/a	1	0	0.5869140625	0.422607421875	lower	../fonts/amplitud.ttf
1134332	WORD	wordpools/wasnorm_wordpool.txt	LTP094	ltpFR	16	8	1	OINTMENT	974	n/a	0	0	0.5869140625	0.422607421875	lower	../fonts/amplitud.ttf
1138465	WORD	wordpools/wasnorm_wordpool.txt	LTP094	ltpFR	16	8	0	SYRINGE	1424	n/a	1	1	0.412841796875	0.57763671875	upper	../fonts/zerothre.ttf
1142348	WORD	wordpools/wasnorm_wordpool.txt	LTP094	ltpFR	16	8	0	ACTOR	5	n/a	1	1	0.412841796875	0.57763671875	upper	../fonts/zerothre.ttf
1146398	WORD	wordpools/wasnorm_wordpool.txt	LTP094	ltpFR	16	8	0	STAGE	1366	n/a	1	1	0.412841796875	0.57763671875	upper	../fonts/zerothre.ttf
1152240	REC_START	n/a	LTP094	ltpFR	16	8	n/a	n/a	n/a	n/a	n/a	n/a	n/a	n/a	n/a	n/a
1153153	REC_WORD	wordpools/wasnorm_wordpool.txt	LTP094	ltpFR	16	8	0	STAGE	1366	n/a	1	n/a	n/a	n/a	n/a	n/a
1154562	REC_WORD	wordpools/wasnorm_wordpool.txt	LTP094	ltpFR	16	8	0	ACTOR	5	n/a	1	n/a	n/a	n/a	n/a	n/a
1158648	REC_WORD	wordpools/wasnorm_wordpool.txt	LTP094	ltpFR	16	8	1	ALLIGATOR	16	n/a	1	n/a	n/a	n/a	n/a	n/a
1159852	REC_WORD	wordpools/wasnorm_wordpool.txt	LTP094	ltpFR	16	8	1	CROCODILE	411	n/a	1	n/a	n/a	n/a	n/a	n/a
1173247	REC_WORD	wordpools/wasnorm_wordpool.txt	LTP094	ltpFR	16	8	1	DUCK	504	n/a	1	n/a	n/a	n/a	n/a	n/a
1179502	REC_WORD	wordpools/wasnorm_wordpool.txt	LTP094	ltpFR	16	8	1	ANTEATER	26	n/a	1	n/a	n/a	n/a	n/a	n/a
1185297	REC_WORD	wordpools/wasnorm_wordpool.txt	LTP094	ltpFR	16	8	0	SYRINGE	1424	n/a	1	n/a	n/a	n/a	n/a	n/a
1187593	REC_WORD	wordpools/wasnorm_wordpool.txt	LTP094	ltpFR	16	8	n/a	HOSPITAL	721	n/a	n/a	n/a	n/a	n/a	n/a	n/a
1212749	REC_WORD	wordpools/wasnorm_wordpool.txt	LTP094	ltpFR	16	8	n/a	DOCTOR	478	n/a	n/a	n/a	n/a	n/a	n/a	n/a
1214308	REC_WORD	wordpools/wasnorm_wordpool.txt	LTP094	ltpFR	16	8	n/a	PATIENT	1024	n/a	n/a	n/a	n/a	n/a	n/a	n/a
1221046	REC_WORD	wordpools/wasnorm_wordpool.txt	LTP094	ltpFR	16	8	n/a	MUSIC	-1	n/a	n/a	n/a	n/a	n/a	n/a	n/a
1230950	WORD	wordpools/wasnorm_wordpool.txt	LTP094	ltpFR	16	9	-1	FOUNTAIN	597	n/a	-1	1	1.0	1.0	upper	../fonts/Verdana.ttf
1234799	WORD	wordpools/wasnorm_wordpool.txt	LTP094	ltpFR	16	9	-1	COLESLAW	344	n/a	-1	1	1.0	1.0	upper	../fonts/Verdana.ttf
1238824	WORD	wordpools/wasnorm_wordpool.txt	LTP094	ltpFR	16	9	-1	WARDROBE	1587	n/a	-1	1	1.0	1.0	upper	../fonts/Verdana.ttf
1242791	WORD	wordpools/wasnorm_wordpool.txt	LTP094	ltpFR	16	9	-1	HANGER	687	n/a	-1	1	1.0	1.0	upper	../fonts/Verdana.ttf
1246683	WORD	wordpools/wasnorm_wordpool.txt	LTP094	ltpFR	16	9	-1	TURKEY	1520	n/a	-1	1	1.0	1.0	upper	../fonts/Verdana.ttf
1250832	WORD	wordpools/wasnorm_wordpool.txt	LTP094	ltpFR	16	9	-1	NECKLACE	940	n/a	-1	1	1.0	1.0	upper	../fonts/Verdana.ttf
1254732	WORD	wordpools/wasnorm_wordpool.txt	LTP094	ltpFR	16	9	-1	EARTH	515	n/a	-1	1	1.0	1.0	upper	../fonts/Verdana.ttf
1258732	WORD	wordpools/wasnorm_wordpool.txt	LTP094	ltpFR	16	9	-1	PEBBLE	1035	n/a	-1	1	1.0	1.0	upper	../fonts/Verdana.ttf
1262690	WORD	wordpools/wasnorm_wordpool.txt	LTP094	ltpFR	16	9	-1	TANGERINE	1431	n/a	-1	1	1.0	1.0	upper	../fonts/Verdana.ttf
1266515	WORD	wordpools/wasnorm_wordpool.txt	LTP094	ltpFR	16	9	-1	MOON	914	n/a	-1	1	1.0	1.0	upper	../fonts/Verdana.ttf
1270706	WORD	wordpools/wasnorm_wordpool.txt	LTP094	ltpFR	16	9	-1	UNIVERSE	1540	n/a	-1	1	1.0	1.0	upper	../fonts/Verdana.ttf
1274606	WORD	wordpools/wasnorm_wordpool.txt	LTP094	ltpFR	16	9	-1	BRACELET	163	n/a	-1	1	1.0	1.0	upper	../fonts/Verdana.ttf
1278564	WORD	wordpools/wasnorm_wordpool.txt	LTP094	ltpFR	16	9	-1	BREAD	170	n/a	-1	1	1.0	1.0	upper	../fonts/Verdana.ttf
1282437	WORD	wordpools/wasnorm_wordpool.txt	LTP094	ltpFR	16	9	-1	OVEN	991	n/a	-1	1	1.0	1.0	upper	../fonts/Verdana.ttf
1286370	WORD	wordpools/wasnorm_wordpool.txt	LTP094	ltpFR	16	9	-1	ARENA	37	n/a	-1	1	1.0	1.0	upper	../fonts/Verdana.ttf
1290187	WORD	wordpools/wasnorm_wordpool.txt	LTP094	ltpFR	16	9	-1	STAR	1373	n/a	-1	1	1.0	1.0	upper	../fonts/Verdana.ttf
1295954	REC_START	n/a	LTP094	ltpFR	16	9	n/a	n/a	n/a	n/a	n/a	n/a	n/a	n/a	n/a	n/a
1296820	REC_WORD	wordpools/wasnorm_wordpool.txt	LTP094	ltpFR	16	9	-1	STAR	1373	n/a	-1	n/a	n/a	n/a	n/a	n/a
1297851	REC_WORD	wordpools/wasnorm_wordpool.txt	LTP094	ltpFR	16	9	-1	UNIVERSE	1540	n/a	-1	n/a	n/a	n/a	n/a	n/a
1298800	REC_WORD	wordpools/wasnorm_wordpool.txt	LTP094	ltpFR	16	9	-1	FOUNTAIN	597	n/a	-1	n/a	n/a	n/a	n/a	n/a
1300908	REC_WORD	wordpools/wasnorm_wordpool.txt	LTP094	ltpFR	16	9	n/a	PEACH	1031	n/a	n/a	n/a	n/a	n/a	n/a	n/a
1324018	REC_WORD	wordpools/wasnorm_wordpool.txt	LTP094	ltpFR	16	9	n/a	CAGE	218	n/a	n/a	n/a	n/a	n/a	n/a	n/a
1325996	REC_WORD	wordpools/wasnorm_wordpool.txt	LTP094	ltpFR	16	9	1	SKYSCRAPER	1322	n/a	0	n/a	n/a	n/a	n/a	n/a
1340242	REC_WORD	wordpools/wasnorm_wordpool.txt	LTP094	ltpFR	16	9	n/a	APPLE	33	n/a	n/a	n/a	n/a	n/a	n/a	n/a
1376855	WORD	wordpools/wasnorm_wordpool.txt	LTP094	ltpFR	16	10	0	FLOUR	583	n/a	1	1	0.412841796875	0.57763671875	upper	../fonts/zerothre.ttf
1380938	WORD	wordpools/wasnorm_wordpool.txt	LTP094	ltpFR	16	10	0	SNEAKER	1334	n/a	0	1	0.412841796875	0.57763671875	upper	../fonts/zerothre.ttf
1385113	WORD	wordpools/wasnorm_wordpool.txt	LTP094	ltpFR	16	10	0	LACE	792	n/a	0	1	0.412841796875	0.57763671875	upper	../fonts/zerothre.ttf
1389246	WORD	wordpools/wasnorm_wordpool.txt	LTP094	ltpFR	16	10	0	KITCHEN	778	n/a	1	1	0.412841796875	0.57763671875	upper	../fonts/zerothre.ttf
1393337	WORD	wordpools/wasnorm_wordpool.txt	LTP094	ltpFR	16	10	0	ENCYCLOPEDIA	533	n/a	1	1	0.412841796875	0.57763671875	upper	../fonts/zerothre.ttf
1397237	WORD	wordpools/wasnorm_wordpool.txt	LTP094	ltpFR	16	10	0	STAPLER	1372	n/a	0	1	0.412841796875	0.57763671875	upper	../fonts/zerothre.ttf
1401370	WORD	wordpools/wasnorm_wordpool.txt	LTP094	ltpFR	16	10	0	PERCH	1048	n/a	0	1	0.412841796875	0.57763671875	upper	../fonts/zerothre.ttf
1405245	WORD	wordpools/wasnorm_wordpool.txt	LTP094	ltpFR	16	10	0	PARROT	1015	n/a	0	1	0.412841796875	0.57763671875	upper	../fonts/zerothre.ttf
1409303	WORD	wordpools/wasnorm_wordpool.txt	LTP094	ltpFR	16	10	0	SANDPAPER	1231	n/a	0	1	0.412841796875	0.57763671875	upper	../fonts/zerothre.ttf
1413486	WORD	wordpools/wasnorm_wordpool.txt	LTP094	ltpFR	16	10	0	GARAGE	621	n/a	1	1	0.412841796875	0.57763671875	upper	../fonts/zerothre.ttf
1417611	WORD	wordpools/wasnorm_wordpool.txt	LTP094	ltpFR	16	10	0	FENCE	560	n/a	1	1	0.412841796875	0.57763671875	upper	../fonts/zerothre.ttf
1421511	WORD	wordpools/wasnorm_wordpool.txt	LTP094	ltpFR	16	10	0	RASH	1167	n/a	0	1	0.412841796875	0.57763671875	upper	../fonts/zerothre.ttf
1425727	WORD	wordpools/wasnorm_wordpool.txt	LTP094	ltpFR	16	10	0	BARK	87	n/a	1	1	0.412841796875	0.57763671875	upper	../fonts/zerothre.ttf
1429560	WORD	wordpools/wasnorm_wordpool.txt	LTP094	ltpFR	16	10	0	FAIRY	549	n/a	0	1	0.412841796875	0.57763671875	upper	../fonts/zerothre.ttf
1433467	WORD	wordpools/wasnorm_wordpool.txt	LTP094	ltpFR	16	10	0	SHEET	1279	n/a	0	1	0.412841796875	0.57763671875	upper	../fonts/zerothre.ttf
1437434	WORD	wordpools/wasnorm_wordpool.txt	LTP094	ltpFR	16	10	0	CURTAIN	427	n/a	1	1	0.412841796875	0.57763671875	upper	../fonts/zerothre.ttf
1443367	REC_START	n/a	LTP094	ltpFR	16	10	n/a	n/a	n/a	n/a	n/a	n/a	n/a	n/a	n/a	n/a
1444242	REC_WORD	wordpools/wasnorm_wordpool.txt	LTP094	ltpFR	16	10	0	CURTAIN	427	n/a	1	n/a	n/a	n/a	n/a	n/a
1445163	REC_WORD	wordpools/wasnorm_wordpool.txt	LTP094	ltpFR	16	10	0	SANDPAPER	1231	n/a	0	n/a	n/a	n/a	n/a	n/a
1446461	REC_WORD	wordpools/wasnorm_wordpool.txt	LTP094	ltpFR	16	10	0	GARAGE	621	n/a	1	n/a	n/a	n/a	n/a	n/a
1449730	REC_WORD	wordpools/wasnorm_wordpool.txt	LTP094	ltpFR	16	10	0	ENCYCLOPEDIA	533	n/a	1	n/a	n/a	n/a	n/a	n/a
1462491	REC_WORD	wordpools/wasnorm_wordpool.txt	LTP094	ltpFR	16	10	n/a	DICTIONARY	463	n/a	n/a	n/a	n/a	n/a	n/a	n/a
1466207	REC_WORD	wordpools/wasnorm_wordpool.txt	LTP094	ltpFR	16	10	n/a	TELEPHONE	1445	n/a	n/a	n/a	n/a	n/a	n/a	n/a
1484028	REC_WORD	wordpools/wasnorm_wordpool.txt	LTP094	ltpFR	16	10	n/a	STAPLE	1371	n/a	n/a	n/a	n/a	n/a	n/a	n/a
1485657	REC_WORD	wordpools/wasnorm_wordpool.txt	LTP094	ltpFR	16	10	0	STAPLER	1372	n/a	0	n/a	n/a	n/a	n/a	n/a
1488058	REC_WORD	wordpools/wasnorm_wordpool.txt	LTP094	ltpFR	16	10	n/a	GLUE	643	n/a	n/a	n/a	n/a	n/a	n/a	n/a
1489935	REC_WORD	wordpools/wasnorm_wordpool.txt	LTP094	ltpFR	16	10	n/a	TAPE	1433	n/a	n/a	n/a	n/a	n/a	n/a	n/a
1528218	WORD	wordpools/wasnorm_wordpool.txt	LTP094	ltpFR	16	11	1	GENERAL	630	n/a	1	0	0.5869140625	0.422607421875	lower	../fonts/amplitud.ttf
1532393	WORD	wordpools/wasnorm_wordpool.txt	LTP094	ltpFR	16	11	1	COMMANDER	354	n/a	1	0	0.5869140625	0.422607421875	lower	../fonts/amplitud.ttf
1536519	WORD	wordpools/wasnorm_wordpool.txt	LTP094	ltpFR	16	11	1	RAM	1165	n/a	1	0	0.5869140625	0.422607421875	lower	../fonts/amplitud.ttf
1540585	WORD	wordpools/wasnorm_wordpool.txt	LTP094	ltpFR	16	11	0	GROCERIES	663	n/a	1	1	0.412841796875	0.57763671875	upper	../fonts/zerothre.ttf
1544726	WORD	wordpools/wasnorm_wordpool.txt	LTP094	ltpFR	16	11	0	LIST	830	n/a	1	1	0.412841796875	0.57763671875	upper	../fonts/zerothre.ttf
1548643	WORD	wordpools/wasnorm_wordpool.txt	LTP094	ltpFR	16	11	1	ROCKET	1202	n/a	0	0	0.5869140625	0.422607421875	lower	../fonts/amplitud.ttf
1552767	WORD	wordpools/wasnorm_wordpool.txt	LTP094	ltpFR	16	11	1	ASTRONAUT	51	n/a	1	0	0.5869140625	0.422607421875	lower	../fonts/amplitud.ttf
1556601	WORD	wordpools/wasnorm_wordpool.txt	LTP094	ltpFR	16	11	1	CLOTHES	327	n/a	0	0	0.5869140625	0.422607421875	lower	../fonts/amplitud.ttf
1560633	WORD	wordpools/wasnorm_wordpool.txt	LTP094	ltpFR	16	11	0	CONVICT	371	n/a	0	1	0.412841796875	0.57763671875	upper	../fonts/zerothre.ttf
1564525	WORD	wordpools/wasnorm_wordpool.txt	LTP094	ltpFR	16	11	0	CIGARETTE	309	n/a	0	1	0.412841796875	0.57763671875	upper	../fonts/zerothre.ttf
1568725	WORD	wordpools/wasnorm_wordpool.txt	LTP094	ltpFR	16	11	0	CARTON	251	n/a	0	1	0.412841796875	0.57763671875	upper	../fonts/zerothre.ttf
1572666	WORD	wordpools/wasnorm_wordpool.txt	LTP094	ltpFR	16	11	0	SUIT	1402	n/a	0	1	0.412841796875	0.57763671875	upper	../fonts/zerothre.ttf
1576574	WORD	wordpools/wasnorm_wordpool.txt	LTP094	ltpFR	16	11	0	PAD	998	n/a	0	1	0.412841796875	0.57763671875	upper	../fonts/zerothre.ttf
1580682	WORD	wordpools/wasnorm_wordpool.txt	LTP094	ltpFR	16	11	0	BANDIT	81	n/a	0	1	0.412841796875	0.57763671875	upper	../fonts/zerothre.ttf
1584814	WORD	wordpools/wasnorm_wordpool.txt	LTP094	ltpFR	16	11	1	LOAF	835	n/a	0	0	0.5869140625	0.422607421875	lower	../fonts/amplitud.ttf
1588855	WORD	wordpools/wasnorm_wordpool.txt	LTP094	ltpFR	16	11	1	DRESSER	496	n/a	0	0	0.5869140625	0.422607421875	lower	../fonts/amplitud.ttf
1594565	REC_START	n/a	LTP094	ltpFR	16	11	n/a	n/a	n/a	n/a	n/a	n/a	n/a	n/a	n/a	n/a
1595590	REC_WORD	wordpools/wasnorm_wordpool.txt	LTP094	ltpFR	16	11	1	DRESSER	496	n/a	0	n/a	n/a	n/a	n/a	n/a
1596562	REC_WORD	wordpools/wasnorm_wordpool.txt	LTP094	ltpFR	16	11	0	BANDIT	81	n/a	0	n/a	n/a	n/a	n/a	n/a
1603727	REC_WORD	wordpools/wasnorm_wordpool.txt	LTP094	ltpFR	16	11	n/a	HORSE	719	n/a	n/a	n/a	n/a	n/a	n/a	n/a
1624796	REC_WORD	wordpools/wasnorm_wordpool.txt	LTP094	ltpFR	16	11	n/a	SALAD	1224	n/a	n/a	n/a	n/a	n/a	n/a	n/a
1629554	REC_WORD	wordpools/wasnorm_wordpool.txt	LTP094	ltpFR	16	11	1	GENERAL	630	n/a	1	n/a	n/a	n/a	n/a	n/a
1630759	REC_WORD	wordpools/wasnorm_wordpool.txt	LTP094	ltpFR	16	11	1	COMMANDER	354	n/a	1	n/a	n/a	n/a	n/a	n/a
1650281	REC_WORD	wordpools/wasnorm_wordpool.txt	LTP094	ltpFR	16	11	n/a	ARMY	39	n/a	n/a	n/a	n/a	n/a	n/a	n/a
1672865	WORD	wordpools/wasnorm_wordpool.txt	LTP094	ltpFR	16	12	1	TRANSPLANT	1496	n/a	1	0	0.5869140625	0.422607421875	lower	../fonts/amplitud.ttf
1676708	WORD	wordpools/wasnorm_wordpool.txt	LTP094	ltpFR	16	12	1	PUCK	1138	n/a	0	0	0.5869140625	0.422607421875	lower	../fonts/amplitud.ttf
1680574	WORD	wordpools/wasnorm_wordpool.txt	LTP094	ltpFR	16	12	1	TWIG	1527	n/a	0	0	0.5869140625	0.422607421875	lower	../fonts/amplitud.ttf
1684524	WORD	wordpools/wasnorm_wordpool.txt	LTP094	ltpFR	16	12	1	PENCIL	1042	n/a	0	0	0.5869140625	0.422607421875	lower	../fonts/amplitud.ttf
1688406	WORD	wordpools/wasnorm_wordpool.txt	LTP094	ltpFR	16	12	1	RING	1193	n/a	0	0	0.5869140625	0.422607421875	lower	../fonts/amplitud.ttf
1692497	WORD	wordpools/wasnorm_wordpool.txt	LTP094	ltpFR	16	12	1	PLANET	1082	n/a	0	0	0.5869140625	0.422607421875	lower	../fonts/amplitud.ttf
1696355	WORD	wordpools/wasnorm_wordpool.txt	LTP094	ltpFR	16	12	1	HAMMOCK	681	n/a	0	0	0.5869140625	0.422607421875	lower	../fonts/amplitud.ttf
1700463	WORD	wordpools/wasnorm_wordpool.txt	LTP094	ltpFR	16	12	1	COMPANION	357	n/a	1	0	0.5869140625	0.422607421875	lower	../fonts/amplitud.ttf
1704396	WORD	wordpools/wasnorm_wordpool.txt	LTP094	ltpFR	16	12	1	SATURN	1236	n/a	0	0	0.5869140625	0.422607421875	lower	../fonts/amplitud.ttf
1708463	WORD	wordpools/wasnorm_wordpool.txt	LTP094	ltpFR	16	12	1	STADIUM	1364	n/a	0	0	0.5869140625	0.422607421875	lower	../fonts/amplitud.ttf
1712605	WORD	wordpools/wasnorm_wordpool.txt	LTP094	ltpFR	16	12	1	LIZARD	834	n/a	1	0	0.5869140625	0.422607421875	lower	../fonts/amplitud.ttf
1716696	WORD	wordpools/wasnorm_wordpool.txt	LTP094	ltpFR	16	12	1	PREDATOR	1120	n/a	1	0	0.5869140625	0.422607421875	lower	../fonts/amplitud.ttf
1720546	WORD	wordpools/wasnorm_wordpool.txt	LTP094	ltpFR	16	12	1	NUCLEUS	961	n/a	1	0	0.5869140625	0.422607421875	lower	../fonts/amplitud.ttf
1724671	WORD	wordpools/wasnorm_wordpool.txt	LTP094	ltpFR	16	12	1	MOLECULE	905	n/a	0	0	0.5869140625	0.422607421875	lower	../fonts/amplitud.ttf
1728670	WORD	wordpools/wasnorm_wordpool.txt	LTP094	ltpFR	16	12	1	OTTER	986	n/a	1	0	0.5869140625	0.422607421875	lower	../fonts/amplitud.ttf
1732737	WORD	wordpools/wasnorm_wordpool.txt	LTP094	ltpFR	16	12	1	CAGE	218	n/a	0	0	0.5869140625	0.422607421875	lower	../fonts/amplitud.ttf
1738486	REC_START	n/a	LTP094	ltpFR	16	12	n/a	n/a	n/a	n/a	n/a	n/a	n/a	n/a	n/a	n/a
1739495	REC_WORD	wordpools/wasnorm_wordpool.txt	LTP094	ltpFR	16	12	1	OTTER	986	n/a	1	n/a	n/a	n/a	n/a	n/a
1740540	REC_WORD	wordpools/wasnorm_wordpool.txt	LTP094	ltpFR	16	12	1	CAGE	218	n/a	0	n/a	n/a	n/a	n/a	n/a
1746367	REC_WORD_VV	wordpools/wasnorm_wordpool.txt	LTP094	ltpFR	16	12	n/a	<>	-1	n/a	n/a	n/a	n/a	n/a	n/a	n/a
1761495	REC_WORD	wordpools/wasnorm_wordpool.txt	LTP094	ltpFR	16	12	n/a	FACE	547	n/a	n/a	n/a	n/a	n/a	n/a	n/a
1767141	REC_WORD	wordpools/wasnorm_wordpool.txt	LTP094	ltpFR	16	12	1	PUCK	1138	n/a	0	n/a	n/a	n/a	n/a	n/a
1768618	REC_WORD	wordpools/wasnorm_wordpool.txt	LTP094	ltpFR	16	12	n/a	HOCKEY	-1	n/a	n/a	n/a	n/a	n/a	n/a	n/a
1772749	REC_WORD	wordpools/wasnorm_wordpool.txt	LTP094	ltpFR	16	12	1	TWIG	1527	n/a	0	n/a	n/a	n/a	n/a	n/a
1774669	REC_WORD	wordpools/wasnorm_wordpool.txt	LTP094	ltpFR	16	12	n/a	TREE	1502	n/a	n/a	n/a	n/a	n/a	n/a	n/a
1777469	REC_WORD	wordpools/wasnorm_wordpool.txt	LTP094	ltpFR	16	12	n/a	GARDEN	623	n/a	n/a	n/a	n/a	n/a	n/a	n/a
1780337	REC_WORD	wordpools/wasnorm_wordpool.txt	LTP094	ltpFR	16	12	n/a	FLOWER	584	n/a	n/a	n/a	n/a	n/a	n/a	n/a
1814113	REST_REWET	n/a	LTP094	ltpFR	16	12	n/a	n/a	n/a	n/a	n/a	n/a	n/a	n/a	n/a	n/a
2324524	WORD	wordpools/wasnorm_wordpool.txt	LTP094	ltpFR	16	13	-1	LIVER	833	n/a	-1	1	1.0	1.0	upper	../fonts/Verdana.ttf
2328632	WORD	wordpools/wasnorm_wordpool.txt	LTP094	ltpFR	16	13	-1	GRASSHOPPER	656	n/a	-1	1	1.0	1.0	upper	../fonts/Verdana.ttf
2332748	WORD	wordpools/wasnorm_wordpool.txt	LTP094	ltpFR	16	13	-1	SPIDER	1351	n/a	-1	1	1.0	1.0	upper	../fonts/Verdana.ttf
2336881	WORD	wordpools/wasnorm_wordpool.txt	LTP094	ltpFR	16	13	-1	ZEBRA	1635	n/a	-1	1	1.0	1.0	upper	../fonts/Verdana.ttf
2340955	WORD	wordpools/wasnorm_wordpool.txt	LTP094	ltpFR	16	13	-1	ROBE	1198	n/a	-1	1	1.0	1.0	upper	../fonts/Verdana.ttf
2344813	WORD	wordpools/wasnorm_wordpool.txt	LTP094	ltpFR	16	13	-1	LEMON	810	n/a	-1	1	1.0	1.0	upper	../fonts/Verdana.ttf
2348764	WORD	wordpools/wasnorm_wordpool.txt	LTP094	ltpFR	16	13	-1	RAZOR	1171	n/a	-1	1	1.0	1.0	upper	../fonts/Verdana.ttf
2352904	WORD	wordpools/wasnorm_wordpool.txt	LTP094	ltpFR	16	13	-1	COLLAR	345	n/a	-1	1	1.0	1.0	upper	../fonts/Verdana.ttf
2356829	WORD	wordpools/wasnorm_wordpool.txt	LTP094	ltpFR	16	13	-1	BEARD	107	n/a	-1	1	1.0	1.0	upper	../fonts/Verdana.ttf
2360755	WORD	wordpools/wasnorm_wordpool.txt	LTP094	ltpFR	16	13	-1	LADY	794	n/a	-1	1	1.0	1.0	upper	../fonts/Verdana.ttf
2364970	WORD	wordpools/wasnorm_wordpool.txt	LTP094	ltpFR	16	13	-1	PUMPKIN	1142	n/a	-1	1	1.0	1.0	upper	../fonts/Verdana.ttf
2369103	WORD	wordpools/wasnorm_wordpool.txt	LTP094	ltpFR	16	13	-1	REGISTER	1180	n/a	-1	1	1.0	1.0	upper	../fonts/Verdana.ttf
2373194	WORD	wordpools/wasnorm_wordpool.txt	LTP094	ltpFR	16	13	-1	LINT	826	n/a	-1	1	1.0	1.0	upper	../fonts/Verdana.ttf
2377286	WORD	wordpools/wasnorm_wordpool.txt	LTP094	ltpFR	16	13	-1	UNDERWEAR	1537	n/a	-1	1	1.0	1.0	upper	../fonts/Verdana.ttf
2381435	WORD	wordpools/wasnorm_wordpool.txt	LTP094	ltpFR	16	13	-1	STEW	1380	n/a	-1	1	1.0	1.0	upper	../fonts/Verdana.ttf
2385277	WORD	wordpools/wasnorm_wordpool.txt	LTP094	ltpFR	16	13	-1	STRAWBERRY	1391	n/a	-1	1	1.0	1.0	upper	../fonts/Verdana.ttf
2391185	REC_START	n/a	LTP094	ltpFR	16	13	n/a	n/a	n/a	n/a	n/a	n/a	n/a	n/a	n/a	n/a
2392044	REC_WORD	wordpools/wasnorm_wordpool.txt	LTP094	ltpFR	16	13	-1	STRAWBERRY	1391	n/a	-1	n/a	n/a	n/a	n/a	n/a
2393153	REC_WORD	wordpools/wasnorm_wordpool.txt	LTP094	ltpFR	16	13	-1	STEW	1380	n/a	-1	n/a	n/a	n/a	n/a	n/a
2394312	REC_WORD	wordpools/wasnorm_wordpool.txt	LTP094	ltpFR	16	13	-1	LINT	826	n/a	-1	n/a	n/a	n/a	n/a	n/a
2395491	REC_WORD	wordpools/wasnorm_wordpool.txt	LTP094	ltpFR	16	13	-1	UNDERWEAR	1537	n/a	-1	n/a	n/a	n/a	n/a	n/a
2400173	REC_WORD	wordpools/wasnorm_wordpool.txt	LTP094	ltpFR	16	13	-1	LIVER	833	n/a	-1	n/a	n/a	n/a	n/a	n/a
2406720	REC_WORD	wordpools/wasnorm_wordpool.txt	LTP094	ltpFR	16	13	-1	GRASSHOPPER	656	n/a	-1	n/a	n/a	n/a	n/a	n/a
2407788	REC_WORD	wordpools/wasnorm_wordpool.txt	LTP094	ltpFR	16	13	-1	SPIDER	1351	n/a	-1	n/a	n/a	n/a	n/a	n/a
2411679	REC_WORD	wordpools/wasnorm_wordpool.txt	LTP094	ltpFR	16	13	-1	ZEBRA	1635	n/a	-1	n/a	n/a	n/a	n/a	n/a
2413398	REC_WORD	wordpools/wasnorm_wordpool.txt	LTP094	ltpFR	16	13	-1	ROBE	1198	n/a	-1	n/a	n/a	n/a	n/a	n/a
2470688	WORD	wordpools/wasnorm_wordpool.txt	LTP094	ltpFR	16	14	-1	SWAMP	1416	n/a	-1	1	1.0	1.0	upper	../fonts/Verdana.ttf
2474712	WORD	wordpools/wasnorm_wordpool.txt	LTP094	ltpFR	16	14	-1	TAR	1435	n/a	-1	1	1.0	1.0	upper	../fonts/Verdana.ttf
2478570	WORD	wordpools/wasnorm_wordpool.txt	LTP094	ltpFR	16	14	-1	ALLEY	15	n/a	-1	1	1.0	1.0	upper	../fonts/Verdana.ttf
2482753	WORD	wordpools/wasnorm_wordpool.txt	LTP094	ltpFR	16	14	-1	RELISH	1183	n/a	-1	1	1.0	1.0	upper	../fonts/Verdana.ttf
2486902	WORD	wordpools/wasnorm_wordpool.txt	LTP094	ltpFR	16	14	-1	FAN	551	n/a	-1	1	1.0	1.0	upper	../fonts/Verdana.ttf
2490827	WORD	wordpools/wasnorm_wordpool.txt	LTP094	ltpFR	16	14	-1	EYELASH	546	n/a	-1	1	1.0	1.0	upper	../fonts/Verdana.ttf
2494810	WORD	wordpools/wasnorm_wordpool.txt	LTP094	ltpFR	16	14	-1	INFANT	737	n/a	-1	1	1.0	1.0	upper	../fonts/Verdana.ttf
2498652	WORD	wordpools/wasnorm_wordpool.txt	LTP094	ltpFR	16	14	-1	RUNNER	1218	n/a	-1	1	1.0	1.0	upper	../fonts/Verdana.ttf
2502527	WORD	wordpools/wasnorm_wordpool.txt	LTP094	ltpFR	16	14	-1	DASHBOARD	441	n/a	-1	1	1.0	1.0	upper	../fonts/Verdana.ttf
2506417	WORD	wordpools/wasnorm_wordpool.txt	LTP094	ltpFR	16	14	-1	WAITRESS	1581	n/a	-1	1	1.0	1.0	upper	../fonts/Verdana.ttf
2510384	WORD	wordpools/wasnorm_wordpool.txt	LTP094	ltpFR	16	14	-1	ATMOSPHERE	54	n/a	-1	1	1.0	1.0	upper	../fonts/Verdana.ttf
2514425	WORD	wordpools/wasnorm_wordpool.txt	LTP094	ltpFR	16	14	-1	BUN	197	n/a	-1	1	1.0	1.0	upper	../fonts/Verdana.ttf
2518491	WORD	wordpools/wasnorm_wordpool.txt	LTP094	ltpFR	16	14	-1	BOLT	146	n/a	-1	1	1.0	1.0	upper	../fonts/Verdana.ttf
2522433	WORD	wordpools/wasnorm_wordpool.txt	LTP094	ltpFR	16	14	-1	WALRUS	1585	n/a	-1	1	1.0	1.0	upper	../fonts/Verdana.ttf
2526399	WORD	wordpools/wasnorm_wordpool.txt	LTP094	ltpFR	16	14	-1	CRAB	397	n/a	-1	1	1.0	1.0	upper	../fonts/Verdana.ttf
2530290	WORD	wordpools/wasnorm_wordpool.txt	LTP094	ltpFR	16	14	-1	CLAM	315	n/a	-1	1	1.0	1.0	upper	../fonts/Verdana.ttf
2536332	REC_START	n/a	LTP094	ltpFR	16	14	n/a	n/a	n/a	n/a	n/a	n/a	n/a	n/a	n/a	n/a
2537264	REC_WORD	wordpools/wasnorm_wordpool.txt	LTP094	ltpFR	16	14	-1	CRAB	397	n/a	-1	n/a	n/a	n/a	n/a	n/a
2538181	REC_WORD	wordpools/wasnorm_wordpool.txt	LTP094	ltpFR	16	14	-1	CLAM	315	n/a	-1	n/a	n/a	n/a	n/a	n/a
2539387	REC_WORD	wordpools/wasnorm_wordpool.txt	LTP094	ltpFR	16	14	-1	ATMOSPHERE	54	n/a	-1	n/a	n/a	n/a	n/a	n/a
2540878	REC_WORD	wordpools/wasnorm_wordpool.txt	LTP094	ltpFR	16	14	-1	WAITRESS	1581	n/a	-1	n/a	n/a	n/a	n/a	n/a
2545816	REC_WORD	wordpools/wasnorm_wordpool.txt	LTP094	ltpFR	16	14	-1	SWAMP	1416	n/a	-1	n/a	n/a	n/a	n/a	n/a
2547094	REC_WORD	wordpools/wasnorm_wordpool.txt	LTP094	ltpFR	16	14	-1	TAR	1435	n/a	-1	n/a	n/a	n/a	n/a	n/a
2574098	REC_WORD	wordpools/wasnorm_wordpool.txt	LTP094	ltpFR	16	14	n/a	LOVER	846	n/a	n/a	n/a	n/a	n/a	n/a	n/a
2577046	REC_WORD	wordpools/wasnorm_wordpool.txt	LTP094	ltpFR	16	14	n/a	SHOE	1288	n/a	n/a	n/a	n/a	n/a	n/a	n/a
2579972	REC_WORD_VV	wordpools/wasnorm_wordpool.txt	LTP094	ltpFR	16	14	n/a	<>	-1	n/a	n/a	n/a	n/a	n/a	n/a	n/a
2581183	REC_WORD_VV	wordpools/wasnorm_wordpool.txt	LTP094	ltpFR	16	14	n/a	<>	-1	n/a	n/a	n/a	n/a	n/a	n/a	n/a
2584194	REC_WORD_VV	wordpools/wasnorm_wordpool.txt	LTP094	ltpFR	16	14	n/a	<>	-1	n/a	n/a	n/a	n/a	n/a	n/a	n/a
2614467	WORD	wordpools/wasnorm_wordpool.txt	LTP094	ltpFR	16	15	0	CRIMINAL	409	n/a	1	1	0.412841796875	0.57763671875	upper	../fonts/zerothre.ttf
2618492	WORD	wordpools/wasnorm_wordpool.txt	LTP094	ltpFR	16	15	0	CATCHER	258	n/a	1	1	0.412841796875	0.57763671875	upper	../fonts/zerothre.ttf
2622668	WORD	wordpools/wasnorm_wordpool.txt	LTP094	ltpFR	16	15	0	PIE	1062	n/a	0	1	0.412841796875	0.57763671875	upper	../fonts/zerothre.ttf
2626800	WORD	wordpools/wasnorm_wordpool.txt	LTP094	ltpFR	16	15	0	SILK	1307	n/a	0	1	0.412841796875	0.57763671875	upper	../fonts/zerothre.ttf
2630891	WORD	wordpools/wasnorm_wordpool.txt	LTP094	ltpFR	16	15	0	BELL	118	n/a	0	1	0.412841796875	0.57763671875	upper	../fonts/zerothre.ttf
2634941	WORD	wordpools/wasnorm_wordpool.txt	LTP094	ltpFR	16	15	0	ASSOCIATE	49	n/a	0	1	0.412841796875	0.57763671875	upper	../fonts/zerothre.ttf
2638940	WORD	wordpools/wasnorm_wordpool.txt	LTP094	ltpFR	16	15	1	HOUND	724	n/a	1	0	0.5869140625	0.422607421875	lower	../fonts/amplitud.ttf
2643082	WORD	wordpools/wasnorm_wordpool.txt	LTP094	ltpFR	16	15	1	CHEMICAL	291	n/a	0	0	0.5869140625	0.422607421875	lower	../fonts/amplitud.ttf
2647123	WORD	wordpools/wasnorm_wordpool.txt	LTP094	ltpFR	16	15	1	ENEMY	534	n/a	1	0	0.5869140625	0.422607421875	lower	../fonts/amplitud.ttf
2651164	WORD	wordpools/wasnorm_wordpool.txt	LTP094	ltpFR	16	15	1	SQUIRREL	1362	n/a	1	0	0.5869140625	0.422607421875	lower	../fonts/amplitud.ttf
2655172	WORD	wordpools/wasnorm_wordpool.txt	LTP094	ltpFR	16	15	0	BLACKBERRY	132	n/a	0	1	0.412841796875	0.57763671875	upper	../fonts/zerothre.ttf
2659347	WORD	wordpools/wasnorm_wordpool.txt	LTP094	ltpFR	16	15	0	GRAPE	654	n/a	0	1	0.412841796875	0.57763671875	upper	../fonts/zerothre.ttf
2663322	WORD	wordpools/wasnorm_wordpool.txt	LTP094	ltpFR	16	15	1	SALIVA	1226	n/a	0	0	0.5869140625	0.422607421875	lower	../fonts/amplitud.ttf
2667246	WORD	wordpools/wasnorm_wordpool.txt	LTP094	ltpFR	16	15	1	SPRINKLE	1359	n/a	0	0	0.5869140625	0.422607421875	lower	../fonts/amplitud.ttf
2671063	WORD	wordpools/wasnorm_wordpool.txt	LTP094	ltpFR	16	15	1	BANK	83	n/a	0	0	0.5869140625	0.422607421875	lower	../fonts/amplitud.ttf
2674979	WORD	wordpools/wasnorm_wordpool.txt	LTP094	ltpFR	16	15	1	BILL	126	n/a	0	0	0.5869140625	0.422607421875	lower	../fonts/amplitud.ttf
2680896	REC_START	n/a	LTP094	ltpFR	16	15	n/a	n/a	n/a	n/a	n/a	n/a	n/a	n/a	n/a	n/a
2681560	REC_WORD	wordpools/wasnorm_wordpool.txt	LTP094	ltpFR	16	15	1	BILL	126	n/a	0	n/a	n/a	n/a	n/a	n/a
2682581	REC_WORD	wordpools/wasnorm_wordpool.txt	LTP094	ltpFR	16	15	1	BANK	83	n/a	0	n/a	n/a	n/a	n/a	n/a
2684761	REC_WORD	wordpools/wasnorm_wordpool.txt	LTP094	ltpFR	16	15	-1	MONEY	908	n/a	-1	n/a	n/a	n/a	n/a	n/a
2686913	REC_WORD	wordpools/wasnorm_wordpool.txt	LTP094	ltpFR	16	15	-1	WALRUS	1585	n/a	-1	n/a	n/a	n/a	n/a	n/a
2693071	REC_WORD_VV	wordpools/wasnorm_wordpool.txt	LTP094	ltpFR	16	15	n/a	<>	-1	n/a	n/a	n/a	n/a	n/a	n/a	n/a
2707709	REC_WORD	wordpools/wasnorm_wordpool.txt	LTP094	ltpFR	16	15	0	ASSOCIATE	49	n/a	0	n/a	n/a	n/a	n/a	n/a
2709719	REC_WORD	wordpools/wasnorm_wordpool.txt	LTP094	ltpFR	16	15	n/a	BUSINESS	-1	n/a	n/a	n/a	n/a	n/a	n/a	n/a
2722112	REC_WORD	wordpools/wasnorm_wordpool.txt	LTP094	ltpFR	16	15	0	POLICE	1098	n/a	1	n/a	n/a	n/a	n/a	n/a
2725666	REC_WORD	wordpools/wasnorm_wordpool.txt	LTP094	ltpFR	16	15	n/a	GARDEN	623	n/a	n/a	n/a	n/a	n/a	n/a	n/a
2744614	REC_WORD_VV	wordpools/wasnorm_wordpool.txt	LTP094	ltpFR	16	15	n/a	<>	-1	n/a	n/a	n/a	n/a	n/a	n/a	n/a
2748573	REC_WORD	wordpools/wasnorm_wordpool.txt	LTP094	ltpFR	16	15	1	SPRINKLE	1359	n/a	0	n/a	n/a	n/a	n/a	n/a
2750202	REC_WORD	wordpools/wasnorm_wordpool.txt	LTP094	ltpFR	16	15	n/a	ICE CREAM	-1	n/a	n/a	n/a	n/a	n/a	n/a	n/a
2759181	WORD	wordpools/wasnorm_wordpool.txt	LTP094	ltpFR	16	16	0	GARLIC	624	n/a	0	1	0.412841796875	0.57763671875	upper	../fonts/zerothre.ttf
2763039	WORD	wordpools/wasnorm_wordpool.txt	LTP094	ltpFR	16	16	0	BRIEFCASE	175	n/a	0	1	0.412841796875	0.57763671875	upper	../fonts/zerothre.ttf
2767189	WORD	wordpools/wasnorm_wordpool.txt	LTP094	ltpFR	16	16	0	DAISY	435	n/a	0	1	0.412841796875	0.57763671875	upper	../fonts/zerothre.ttf
2771238	WORD	wordpools/wasnorm_wordpool.txt	LTP094	ltpFR	16	16	0	HERB	704	n/a	0	1	0.412841796875	0.57763671875	upper	../fonts/zerothre.ttf
2775138	WORD	wordpools/wasnorm_wordpool.txt	LTP094	ltpFR	16	16	0	MERMAID	887	n/a	0	1	0.412841796875	0.57763671875	upper	../fonts/zerothre.ttf
2779338	WORD	wordpools/wasnorm_wordpool.txt	LTP094	ltpFR	16	16	0	MEADOW	881	n/a	1	1	0.412841796875	0.57763671875	upper	../fonts/zerothre.ttf
2783204	WORD	wordpools/wasnorm_wordpool.txt	LTP094	ltpFR	16	16	0	COUSIN	392	n/a	0	1	0.412841796875	0.57763671875	upper	../fonts/zerothre.ttf
2787021	WORD	wordpools/wasnorm_wordpool.txt	LTP094	ltpFR	16	16	0	SISTER	1312	n/a	1	1	0.412841796875	0.57763671875	upper	../fonts/zerothre.ttf
2790970	WORD	wordpools/wasnorm_wordpool.txt	LTP094	ltpFR	16	16	0	PACKAGE	997	n/a	1	1	0.412841796875	0.57763671875	upper	../fonts/zerothre.ttf
2795112	WORD	wordpools/wasnorm_wordpool.txt	LTP094	ltpFR	16	16	0	VISITOR	1573	n/a	1	1	0.412841796875	0.57763671875	upper	../fonts/zerothre.ttf
2798986	WORD	wordpools/wasnorm_wordpool.txt	LTP094	ltpFR	16	16	0	TRUCK	1512	n/a	1	1	0.412841796875	0.57763671875	upper	../fonts/zerothre.ttf
2802894	WORD	wordpools/wasnorm_wordpool.txt	LTP094	ltpFR	16	16	0	RASPBERRY	1168	n/a	0	1	0.412841796875	0.57763671875	upper	../fonts/zerothre.ttf
2806762	WORD	wordpools/wasnorm_wordpool.txt	LTP094	ltpFR	16	16	0	FIG	563	n/a	0	1	0.412841796875	0.57763671875	upper	../fonts/zerothre.ttf
2810802	WORD	wordpools/wasnorm_wordpool.txt	LTP094	ltpFR	16	16	0	TIMBER	1469	n/a	1	1	0.412841796875	0.57763671875	upper	../fonts/zerothre.ttf
2814852	WORD	wordpools/wasnorm_wordpool.txt	LTP094	ltpFR	16	16	0	SHRUB	1299	n/a	0	1	0.412841796875	0.57763671875	upper	../fonts/zerothre.ttf
2818960	WORD	wordpools/wasnorm_wordpool.txt	LTP094	ltpFR	16	16	0	BOWL	158	n/a	0	1	0.412841796875	0.57763671875	upper	../fonts/zerothre.ttf
2824818	REC_START	n/a	LTP094	ltpFR	16	16	n/a	n/a	n/a	n/a	n/a	n/a	n/a	n/a	n/a	n/a
2825242	REC_WORD	wordpools/wasnorm_wordpool.txt	LTP094	ltpFR	16	16	0	SHRUB	1299	n/a	0	n/a	n/a	n/a	n/a	n/a
2826914	REC_WORD	wordpools/wasnorm_wordpool.txt	LTP094	ltpFR	16	16	0	BOWL	158	n/a	0	n/a	n/a	n/a	n/a	n/a
2827975	REC_WORD	wordpools/wasnorm_wordpool.txt	LTP094	ltpFR	16	16	n/a	CEREAL	272	n/a	n/a	n/a	n/a	n/a	n/a	n/a
2829752	REC_WORD	wordpools/wasnorm_wordpool.txt	LTP094	ltpFR	16	16	0	RASPBERRY	1168	n/a	0	n/a	n/a	n/a	n/a	n/a
2831451	REC_WORD	wordpools/wasnorm_wordpool.txt	LTP094	ltpFR	16	16	0	BLACKBERRY	132	n/a	0	n/a	n/a	n/a	n/a	n/a
2845285	REC_WORD	wordpools/wasnorm_wordpool.txt	LTP094	ltpFR	16	16	-1	SWAMP	1416	n/a	-1	n/a	n/a	n/a	n/a	n/a
2856217	REC_WORD_VV	wordpools/wasnorm_wordpool.txt	LTP094	ltpFR	16	16	n/a	<>	-1	n/a	n/a	n/a	n/a	n/a	n/a	n/a
2858001	REC_WORD_VV	wordpools/wasnorm_wordpool.txt	LTP094	ltpFR	16	16	n/a	<>	-1	n/a	n/a	n/a	n/a	n/a	n/a	n/a
2868575	REC_WORD	wordpools/wasnorm_wordpool.txt	LTP094	ltpFR	16	16	-1	COLLAR	345	n/a	-1	n/a	n/a	n/a	n/a	n/a
2870495	REC_WORD	wordpools/wasnorm_wordpool.txt	LTP094	ltpFR	16	16	-1	NECKLACE	940	n/a	-1	n/a	n/a	n/a	n/a	n/a
2928335	REC_START	n/a	LTP094	ltpFR	16	n/a	n/a	n/a	n/a	n/a	n/a	n/a	n/a	n/a	n/a	n/a
2928944	FFR_REC_WORD	wordpools/wasnorm_wordpool.txt	LTP094	ltpFR	16	n/a	0	ASSOCIATE	49	n/a	0	n/a	n/a	n/a	n/a	n/a
2930196	FFR_REC_WORD	wordpools/wasnorm_wordpool.txt	LTP094	ltpFR	16	n/a	-1	GRASSHOPPER	656	n/a	-1	n/a	n/a	n/a	n/a	n/a
2931296	FFR_REC_WORD	wordpools/wasnorm_wordpool.txt	LTP094	ltpFR	16	n/a	-1	SPIDER	1351	n/a	-1	n/a	n/a	n/a	n/a	n/a
2932818	FFR_REC_WORD	wordpools/wasnorm_wordpool.txt	LTP094	ltpFR	16	n/a	0	BLACKBERRY	132	n/a	0	n/a	n/a	n/a	n/a	n/a
2933963	FFR_REC_WORD	wordpools/wasnorm_wordpool.txt	LTP094	ltpFR	16	n/a	0	RASPBERRY	1168	n/a	0	n/a	n/a	n/a	n/a	n/a
2935204	FFR_REC_WORD	wordpools/wasnorm_wordpool.txt	LTP094	ltpFR	16	n/a	1	BANK	83	n/a	0	n/a	n/a	n/a	n/a	n/a
2936302	FFR_REC_WORD	wordpools/wasnorm_wordpool.txt	LTP094	ltpFR	16	n/a	-1	MONEY	908	n/a	-1	n/a	n/a	n/a	n/a	n/a
2937579	FFR_REC_WORD	wordpools/wasnorm_wordpool.txt	LTP094	ltpFR	16	n/a	n/a	CASH	252	n/a	n/a	n/a	n/a	n/a	n/a	n/a
2939030	FFR_REC_WORD	wordpools/wasnorm_wordpool.txt	LTP094	ltpFR	16	n/a	0	MECHANIC	884	n/a	0	n/a	n/a	n/a	n/a	n/a
2943840	FFR_REC_WORD	wordpools/wasnorm_wordpool.txt	LTP094	ltpFR	16	n/a	-1	WALRUS	1585	n/a	-1	n/a	n/a	n/a	n/a	n/a
2944860	FFR_REC_WORD	wordpools/wasnorm_wordpool.txt	LTP094	ltpFR	16	n/a	-1	ZEBRA	1635	n/a	-1	n/a	n/a	n/a	n/a	n/a
2945939	FFR_REC_WORD	wordpools/wasnorm_wordpool.txt	LTP094	ltpFR	16	n/a	-1	ROBE	1198	n/a	-1	n/a	n/a	n/a	n/a	n/a
2953395	FFR_REC_WORD	wordpools/wasnorm_wordpool.txt	LTP094	ltpFR	16	n/a	-1	SWAMP	1416	n/a	-1	n/a	n/a	n/a	n/a	n/a
2954878	FFR_REC_WORD	wordpools/wasnorm_wordpool.txt	LTP094	ltpFR	16	n/a	-1	TAR	1435	n/a	-1	n/a	n/a	n/a	n/a	n/a
2961006	FFR_REC_WORD	wordpools/wasnorm_wordpool.txt	LTP094	ltpFR	16	n/a	0	GARLIC	624	n/a	0	n/a	n/a	n/a	n/a	n/a
2971497	FFR_REC_WORD	wordpools/wasnorm_wordpool.txt	LTP094	ltpFR	16	n/a	-1	UNIVERSE	1540	n/a	-1	n/a	n/a	n/a	n/a	n/a
2980255	FFR_REC_WORD	wordpools/wasnorm_wordpool.txt	LTP094	ltpFR	16	n/a	1	CHEST	295	n/a	1	n/a	n/a	n/a	n/a	n/a
2981490	FFR_REC_WORD	wordpools/wasnorm_wordpool.txt	LTP094	ltpFR	16	n/a	1	BELLY	119	n/a	1	n/a	n/a	n/a	n/a	n/a
2988165	FFR_REC_WORD	wordpools/wasnorm_wordpool.txt	LTP094	ltpFR	16	n/a	1	PLANET	1082	n/a	0	n/a	n/a	n/a	n/a	n/a
2993937	FFR_REC_WORD	wordpools/wasnorm_wordpool.txt	LTP094	ltpFR	16	n/a	1	COOK	372	n/a	1	n/a	n/a	n/a	n/a	n/a
3003624	FFR_REC_WORD	wordpools/wasnorm_wordpool.txt	LTP094	ltpFR	16	n/a	1	DISH	474	n/a	0	n/a	n/a	n/a	n/a	n/a
3006824	FFR_REC_WORD	wordpools/wasnorm_wordpool.txt	LTP094	ltpFR	16	n/a	-1	CLAM	315	n/a	-1	n/a	n/a	n/a	n/a	n/a
3008369	FFR_REC_WORD	wordpools/wasnorm_wordpool.txt	LTP094	ltpFR	16	n/a	1	SHRIMP	1297	n/a	1	n/a	n/a	n/a	n/a	n/a
3021003	FFR_REC_WORD	wordpools/wasnorm_wordpool.txt	LTP094	ltpFR	16	n/a	n/a	BURGLAR	200	n/a	n/a	n/a	n/a	n/a	n/a	n/a
3026290	FFR_REC_WORD	wordpools/wasnorm_wordpool.txt	LTP094	ltpFR	16	n/a	0	SISTER	1312	n/a	1	n/a	n/a	n/a	n/a	n/a
3028590	FFR_REC_WORD	wordpools/wasnorm_wordpool.txt	LTP094	ltpFR	16	n/a	n/a	FRIEND	606	n/a	n/a	n/a	n/a	n/a	n/a	n/a
3043972	FFR_REC_WORD	wordpools/wasnorm_wordpool.txt	LTP094	ltpFR	16	n/a	0	WATERFALL	1595	n/a	1	n/a	n/a	n/a	n/a	n/a
3046386	FFR_REC_WORD	wordpools/wasnorm_wordpool.txt	LTP094	ltpFR	16	n/a	1	BOUQUET	157	n/a	1	n/a	n/a	n/a	n/a	n/a
3061111	FFR_REC_WORD	wordpools/wasnorm_wordpool.txt	LTP094	ltpFR	16	n/a	0	CHEESE	289	n/a	0	n/a	n/a	n/a	n/a	n/a
3081838	FFR_REC_WORD	wordpools/wasnorm_wordpool.txt	LTP094	ltpFR	16	n/a	n/a	CHICKEN	297	n/a	n/a	n/a	n/a	n/a	n/a	n/a
3090376	FFR_REC_WORD	wordpools/wasnorm_wordpool.txt	LTP094	ltpFR	16	n/a	1	SICKLE	1302	n/a	0	n/a	n/a	n/a	n/a	n/a
3101198	FFR_REC_WORD	wordpools/wasnorm_wordpool.txt	LTP094	ltpFR	16	n/a	1	WIFE	1609	n/a	1	n/a	n/a	n/a	n/a	n/a
3102178	FFR_REC_WORD	wordpools/wasnorm_wordpool.txt	LTP094	ltpFR	16	n/a	1	SPOUSE	1358	n/a	1	n/a	n/a	n/a	n/a	n/a
3151661	FFR_REC_WORD	wordpools/wasnorm_wordpool.txt	LTP094	ltpFR	16	n/a	-1	RAFT	1159	n/a	-1	n/a	n/a	n/a	n/a	n/a
3155970	FFR_REC_WORD	wordpools/wasnorm_wordpool.txt	LTP094	ltpFR	16	n/a	-1	OAR	966	n/a	-1	n/a	n/a	n/a	n/a	n/a
3202340	FFR_REC_WORD	wordpools/wasnorm_wordpool.txt	LTP094	ltpFR	16	n/a	1	LION	827	n/a	1	n/a	n/a	n/a	n/a	n/a
3210622	FFR_REC_WORD	wordpools/wasnorm_wordpool.txt	LTP094	ltpFR	16	n/a	0	SHRUB	1299	n/a	0	n/a	n/a	n/a	n/a	n/a
3213663	FFR_REC_WORD_VV	wordpools/wasnorm_wordpool.txt	LTP094	ltpFR	16	n/a	n/a	<>	-1	n/a	n/a	n/a	n/a	n/a	n/a	n/a
3226655	FFR_REC_WORD_VV	wordpools/wasnorm_wordpool.txt	LTP094	ltpFR	16	n/a	n/a	<>	-1	n/a	n/a	n/a	n/a	n/a	n/a	n/a
3244244	REC_START	n/a	LTP094	ltpFR	16	1	n/a	n/a	n/a	n/a	n/a	n/a	n/a	n/a	n/a	n/a
3244285	RECOG_TARGET	n/a	LTP094	ltpFR	16	1	0	OREGANO	983	3	0	n/a	n/a	n/a	n/a	n/a
3245696	RECOG_RESP	n/a	LTP094	ltpFR	16	1	0	OREGANO	983	n/a	0	n/a	n/a	n/a	n/a	n/a
3246574	RECOG_CONF	n/a	LTP094	ltpFR	16	1	0	OREGANO	983	3	0	n/a	n/a	n/a	n/a	n/a
3248010	RECOG_TARGET	n/a	LTP094	ltpFR	16	1	0	CRIMINAL	409	2	1	n/a	n/a	n/a	n/a	n/a
3249018	RECOG_RESP	n/a	LTP094	ltpFR	16	1	0	CRIMINAL	409	n/a	1	n/a	n/a	n/a	n/a	n/a
3250046	RECOG_CONF	n/a	LTP094	ltpFR	16	1	0	CRIMINAL	409	2	1	n/a	n/a	n/a	n/a	n/a
3251527	RECOG_LURE	n/a	LTP094	ltpFR	16	1	n/a	KNIFE	785	2	n/a	n/a	n/a	n/a	n/a	n/a
3252171	RECOG_RESP	n/a	LTP094	ltpFR	16	1	n/a	KNIFE	785	n/a	n/a	n/a	n/a	n/a	n/a	n/a
3252759	RECOG_CONF	n/a	LTP094	ltpFR	16	1	n/a	KNIFE	785	2	n/a	n/a	n/a	n/a	n/a	n/a
3254018	RECOG_TARGET	n/a	LTP094	ltpFR	16	1	1	JUG	762	3	0	n/a	n/a	n/a	n/a	n/a
3254695	RECOG_RESP	n/a	LTP094	ltpFR	16	1	1	JUG	762	n/a	0	n/a	n/a	n/a	n/a	n/a
3255324	RECOG_CONF	n/a	LTP094	ltpFR	16	1	1	JUG	762	3	0	n/a	n/a	n/a	n/a	n/a
3256459	RECOG_LURE	n/a	LTP094	ltpFR	16	1	n/a	GAVEL	627	2	n/a	n/a	n/a	n/a	n/a	n/a
3257419	RECOG_RESP	n/a	LTP094	ltpFR	16	1	n/a	GAVEL	627	n/a	n/a	n/a	n/a	n/a	n/a	n/a
3258057	RECOG_CONF	n/a	LTP094	ltpFR	16	1	n/a	GAVEL	627	2	n/a	n/a	n/a	n/a	n/a	n/a
3259217	RECOG_TARGET	n/a	LTP094	ltpFR	16	1	0	RASPBERRY	1168	4	0	n/a	n/a	n/a	n/a	n/a
3259828	RECOG_RESP	n/a	LTP094	ltpFR	16	1	0	RASPBERRY	1168	n/a	0	n/a	n/a	n/a	n/a	n/a
3260422	RECOG_CONF	n/a	LTP094	ltpFR	16	1	0	RASPBERRY	1168	4	0	n/a	n/a	n/a	n/a	n/a
3261635	RECOG_TARGET	n/a	LTP094	ltpFR	16	1	1	CANAL	226	3	0	n/a	n/a	n/a	n/a	n/a
3262348	RECOG_RESP	n/a	LTP094	ltpFR	16	1	1	CANAL	226	n/a	0	n/a	n/a	n/a	n/a	n/a
3262926	RECOG_CONF	n/a	LTP094	ltpFR	16	1	1	CANAL	226	3	0	n/a	n/a	n/a	n/a	n/a
3264150	RECOG_LURE	n/a	LTP094	ltpFR	16	1	n/a	CAPE	237	2	n/a	n/a	n/a	n/a	n/a	n/a
3264862	RECOG_RESP	n/a	LTP094	ltpFR	16	1	n/a	CAPE	237	n/a	n/a	n/a	n/a	n/a	n/a	n/a
3265441	RECOG_CONF	n/a	LTP094	ltpFR	16	1	n/a	CAPE	237	2	n/a	n/a	n/a	n/a	n/a	n/a
3266751	RECOG_TARGET	n/a	LTP094	ltpFR	16	1	1	DRINK	498	2	0	n/a	n/a	n/a	n/a	n/a
3267436	RECOG_RESP	n/a	LTP094	ltpFR	16	1	1	DRINK	498	n/a	0	n/a	n/a	n/a	n/a	n/a
3267965	RECOG_CONF	n/a	LTP094	ltpFR	16	1	1	DRINK	498	2	0	n/a	n/a	n/a	n/a	n/a
3269191	RECOG_TARGET	n/a	LTP094	ltpFR	16	1	0	CATCHER	258	3	1	n/a	n/a	n/a	n/a	n/a
3269846	RECOG_RESP	n/a	LTP094	ltpFR	16	1	0	CATCHER	258	n/a	1	n/a	n/a	n/a	n/a	n/a
3270409	RECOG_CONF	n/a	LTP094	ltpFR	16	1	0	CATCHER	258	3	1	n/a	n/a	n/a	n/a	n/a
3271659	RECOG_LURE	n/a	LTP094	ltpFR	16	1	n/a	BEAN	105	3	n/a	n/a	n/a	n/a	n/a	n/a
3272619	RECOG_RESP	n/a	LTP094	ltpFR	16	1	n/a	BEAN	105	n/a	n/a	n/a	n/a	n/a	n/a	n/a
3273243	RECOG_CONF	n/a	LTP094	ltpFR	16	1	n/a	BEAN	105	3	n/a	n/a	n/a	n/a	n/a	n/a
3274474	RECOG_TARGET	n/a	LTP094	ltpFR	16	1	1	MOLECULE	905	3	0	n/a	n/a	n/a	n/a	n/a
3275258	RECOG_RESP	n/a	LTP094	ltpFR	16	1	1	MOLECULE	905	n/a	0	n/a	n/a	n/a	n/a	n/a
3275767	RECOG_CONF	n/a	LTP094	ltpFR	16	1	1	MOLECULE	905	3	0	n/a	n/a	n/a	n/a	n/a
3277066	RECOG_TARGET	n/a	LTP094	ltpFR	16	1	-1	LOG	841	2	-1	n/a	n/a	n/a	n/a	n/a
3277912	RECOG_RESP	n/a	LTP094	ltpFR	16	1	-1	LOG	841	n/a	-1	n/a	n/a	n/a	n/a	n/a
3278401	RECOG_CONF	n/a	LTP094	ltpFR	16	1	-1	LOG	841	2	-1	n/a	n/a	n/a	n/a	n/a
3279733	RECOG_TARGET	n/a	LTP094	ltpFR	16	1	1	OBOE	969	2	0	n/a	n/a	n/a	n/a	n/a
3280586	RECOG_RESP	n/a	LTP094	ltpFR	16	1	1	OBOE	969	n/a	0	n/a	n/a	n/a	n/a	n/a
3281085	RECOG_CONF	n/a	LTP094	ltpFR	16	1	1	OBOE	969	2	0	n/a	n/a	n/a	n/a	n/a
3282299	RECOG_TARGET	n/a	LTP094	ltpFR	16	1	0	GRAPE	654	3	0	n/a	n/a	n/a	n/a	n/a
3282966	RECOG_RESP	n/a	LTP094	ltpFR	16	1	0	GRAPE	654	n/a	0	n/a	n/a	n/a	n/a	n/a
3283460	RECOG_CONF	n/a	LTP094	ltpFR	16	1	0	GRAPE	654	3	0	n/a	n/a	n/a	n/a	n/a
3284824	RECOG_TARGET	n/a	LTP094	ltpFR	16	1	-1	UNDERWEAR	1537	3	-1	n/a	n/a	n/a	n/a	n/a
3285560	RECOG_RESP	n/a	LTP094	ltpFR	16	1	-1	UNDERWEAR	1537	n/a	-1	n/a	n/a	n/a	n/a	n/a
3286094	RECOG_CONF	n/a	LTP094	ltpFR	16	1	-1	UNDERWEAR	1537	3	-1	n/a	n/a	n/a	n/a	n/a
3287407	RECOG_TARGET	n/a	LTP094	ltpFR	16	1	-1	BEARD	107	3	-1	n/a	n/a	n/a	n/a	n/a
3288329	RECOG_RESP	n/a	LTP094	ltpFR	16	1	-1	BEARD	107	n/a	-1	n/a	n/a	n/a	n/a	n/a
3288877	RECOG_CONF	n/a	LTP094	ltpFR	16	1	-1	BEARD	107	3	-1	n/a	n/a	n/a	n/a	n/a
3290065	RECOG_LURE	n/a	LTP094	ltpFR	16	1	n/a	COMMITTEE	355	3	n/a	n/a	n/a	n/a	n/a	n/a
3290908	RECOG_RESP	n/a	LTP094	ltpFR	16	1	n/a	COMMITTEE	355	n/a	n/a	n/a	n/a	n/a	n/a	n/a
3291471	RECOG_CONF	n/a	LTP094	ltpFR	16	1	n/a	COMMITTEE	355	3	n/a	n/a	n/a	n/a	n/a	n/a
3292790	RECOG_TARGET	n/a	LTP094	ltpFR	16	1	0	RACKET	1155	2	0	n/a	n/a	n/a	n/a	n/a
3293766	RECOG_RESP	n/a	LTP094	ltpFR	16	1	0	RACKET	1155	n/a	0	n/a	n/a	n/a	n/a	n/a
3294285	RECOG_CONF	n/a	LTP094	ltpFR	16	1	0	RACKET	1155	2	0	n/a	n/a	n/a	n/a	n/a
3295540	RECOG_TARGET	n/a	LTP094	ltpFR	16	1	0	CARTON	251	3	0	n/a	n/a	n/a	n/a	n/a
3296261	RECOG_RESP	n/a	LTP094	ltpFR	16	1	0	CARTON	251	n/a	0	n/a	n/a	n/a	n/a	n/a
3296879	RECOG_CONF	n/a	LTP094	ltpFR	16	1	0	CARTON	251	3	0	n/a	n/a	n/a	n/a	n/a
3313077	REC_START	n/a	LTP094	ltpFR	16	2	n/a	n/a	n/a	n/a	n/a	n/a	n/a	n/a	n/a	n/a
3313113	RECOG_TARGET	n/a	LTP094	ltpFR	16	2	1	OINTMENT	974	3	0	n/a	n/a	n/a	n/a	n/a
3314119	RECOG_RESP	n/a	LTP094	ltpFR	16	2	1	OINTMENT	974	n/a	0	n/a	n/a	n/a	n/a	n/a
3314698	RECOG_CONF	n/a	LTP094	ltpFR	16	2	1	OINTMENT	974	3	0	n/a	n/a	n/a	n/a	n/a
3316004	RECOG_TARGET	n/a	LTP094	ltpFR	16	2	-1	MATCH	878	3	-1	n/a	n/a	n/a	n/a	n/a
3316813	RECOG_RESP	n/a	LTP094	ltpFR	16	2	-1	MATCH	878	n/a	-1	n/a	n/a	n/a	n/a	n/a
3317372	RECOG_CONF	n/a	LTP094	ltpFR	16	2	-1	MATCH	878	3	-1	n/a	n/a	n/a	n/a	n/a
3318680	RECOG_TARGET	n/a	LTP094	ltpFR	16	2	1	CASTLE	256	3	0	n/a	n/a	n/a	n/a	n/a
3319532	RECOG_RESP	n/a	LTP094	ltpFR	16	2	1	CASTLE	256	n/a	0	n/a	n/a	n/a	n/a	n/a
3320056	RECOG_CONF	n/a	LTP094	ltpFR	16	2	1	CASTLE	256	3	0	n/a	n/a	n/a	n/a	n/a
3321421	RECOG_TARGET	n/a	LTP094	ltpFR	16	2	-1	LINT	826	4	-1	n/a	n/a	n/a	n/a	n/a
3322091	RECOG_RESP	n/a	LTP094	ltpFR	16	2	-1	LINT	826	n/a	-1	n/a	n/a	n/a	n/a	n/a
3322670	RECOG_CONF	n/a	LTP094	ltpFR	16	2	-1	LINT	826	4	-1	n/a	n/a	n/a	n/a	n/a
3323879	RECOG_TARGET	n/a	LTP094	ltpFR	16	2	1	ALLIGATOR	16	5	1	n/a	n/a	n/a	n/a	n/a
3324501	RECOG_RESP	n/a	LTP094	ltpFR	16	2	1	ALLIGATOR	16	n/a	1	n/a	n/a	n/a	n/a	n/a
3325045	RECOG_CONF	n/a	LTP094	ltpFR	16	2	1	ALLIGATOR	16	5	1	n/a	n/a	n/a	n/a	n/a
3326287	RECOG_LURE	n/a	LTP094	ltpFR	16	2	n/a	SWATTER	1418	3	n/a	n/a	n/a	n/a	n/a	n/a
3327270	RECOG_RESP	n/a	LTP094	ltpFR	16	2	n/a	SWATTER	1418	n/a	n/a	n/a	n/a	n/a	n/a	n/a
3327848	RECOG_CONF	n/a	LTP094	ltpFR	16	2	n/a	SWATTER	1418	3	n/a	n/a	n/a	n/a	n/a	n/a
3329012	RECOG_TARGET	n/a	LTP094	ltpFR	16	2	1	OTTER	986	3	1	n/a	n/a	n/a	n/a	n/a
3329759	RECOG_RESP	n/a	LTP094	ltpFR	16	2	1	OTTER	986	n/a	1	n/a	n/a	n/a	n/a	n/a
3330316	RECOG_CONF	n/a	LTP094	ltpFR	16	2	1	OTTER	986	3	1	n/a	n/a	n/a	n/a	n/a
3331763	RECOG_LURE	n/a	LTP094	ltpFR	16	2	n/a	BURGLAR	200	3	n/a	n/a	n/a	n/a	n/a	n/a
3332538	RECOG_RESP	n/a	LTP094	ltpFR	16	2	n/a	BURGLAR	200	n/a	n/a	n/a	n/a	n/a	n/a	n/a
3333036	RECOG_CONF	n/a	LTP094	ltpFR	16	2	n/a	BURGLAR	200	3	n/a	n/a	n/a	n/a	n/a	n/a
3334386	RECOG_TARGET	n/a	LTP094	ltpFR	16	2	1	SICKLE	1302	3	0	n/a	n/a	n/a	n/a	n/a
3335032	RECOG_RESP	n/a	LTP094	ltpFR	16	2	1	SICKLE	1302	n/a	0	n/a	n/a	n/a	n/a	n/a
3335531	RECOG_CONF	n/a	LTP094	ltpFR	16	2	1	SICKLE	1302	3	0	n/a	n/a	n/a	n/a	n/a
3336762	RECOG_TARGET	n/a	LTP094	ltpFR	16	2	0	STAGE	1366	4	1	n/a	n/a	n/a	n/a	n/a
3337596	RECOG_RESP	n/a	LTP094	ltpFR	16	2	0	STAGE	1366	n/a	1	n/a	n/a	n/a	n/a	n/a
3338175	RECOG_CONF	n/a	LTP094	ltpFR	16	2	0	STAGE	1366	4	1	n/a	n/a	n/a	n/a	n/a
3339336	RECOG_TARGET	n/a	LTP094	ltpFR	16	2	1	SALIVA	1226	2	0	n/a	n/a	n/a	n/a	n/a
3340260	RECOG_RESP	n/a	LTP094	ltpFR	16	2	1	SALIVA	1226	n/a	0	n/a	n/a	n/a	n/a	n/a
3340771	RECOG_CONF	n/a	LTP094	ltpFR	16	2	1	SALIVA	1226	2	0	n/a	n/a	n/a	n/a	n/a
3342011	RECOG_LURE	n/a	LTP094	ltpFR	16	2	n/a	MARKER	870	3	n/a	n/a	n/a	n/a	n/a	n/a
3343553	RECOG_RESP	n/a	LTP094	ltpFR	16	2	n/a	MARKER	870	n/a	n/a	n/a	n/a	n/a	n/a	n/a
3344141	RECOG_CONF	n/a	LTP094	ltpFR	16	2	n/a	MARKER	870	3	n/a	n/a	n/a	n/a	n/a	n/a
3345578	RECOG_TARGET	n/a	LTP094	ltpFR	16	2	1	SAUSAGE	1238	3	0	n/a	n/a	n/a	n/a	n/a
3346436	RECOG_RESP	n/a	LTP094	ltpFR	16	2	1	SAUSAGE	1238	n/a	0	n/a	n/a	n/a	n/a	n/a
3346955	RECOG_CONF	n/a	LTP094	ltpFR	16	2	1	SAUSAGE	1238	3	0	n/a	n/a	n/a	n/a	n/a
3348402	RECOG_TARGET	n/a	LTP094	ltpFR	16	2	1	DOCUMENT	479	3	0	n/a	n/a	n/a	n/a	n/a
3349140	RECOG_RESP	n/a	LTP094	ltpFR	16	2	1	DOCUMENT	479	n/a	0	n/a	n/a	n/a	n/a	n/a
3349659	RECOG_CONF	n/a	LTP094	ltpFR	16	2	1	DOCUMENT	479	3	0	n/a	n/a	n/a	n/a	n/a
3350893	RECOG_TARGET	n/a	LTP094	ltpFR	16	2	1	HAY	693	3	0	n/a	n/a	n/a	n/a	n/a
3351724	RECOG_RESP	n/a	LTP094	ltpFR	16	2	1	HAY	693	n/a	0	n/a	n/a	n/a	n/a	n/a
3352263	RECOG_CONF	n/a	LTP094	ltpFR	16	2	1	HAY	693	3	0	n/a	n/a	n/a	n/a	n/a
3353377	RECOG_TARGET	n/a	LTP094	ltpFR	16	2	-1	EARTH	515	3	-1	n/a	n/a	n/a	n/a	n/a
3354288	RECOG_RESP	n/a	LTP094	ltpFR	16	2	-1	EARTH	515	n/a	-1	n/a	n/a	n/a	n/a	n/a
3354747	RECOG_CONF	n/a	LTP094	ltpFR	16	2	-1	EARTH	515	3	-1	n/a	n/a	n/a	n/a	n/a
3356451	RECOG_TARGET	n/a	LTP094	ltpFR	16	2	-1	HANGER	687	3	-1	n/a	n/a	n/a	n/a	n/a
3357162	RECOG_RESP	n/a	LTP094	ltpFR	16	2	-1	HANGER	687	n/a	-1	n/a	n/a	n/a	n/a	n/a
3357603	RECOG_CONF	n/a	LTP094	ltpFR	16	2	-1	HANGER	687	3	-1	n/a	n/a	n/a	n/a	n/a
3358959	RECOG_TARGET	n/a	LTP094	ltpFR	16	2	1	LOAF	835	3	0	n/a	n/a	n/a	n/a	n/a
3359836	RECOG_RESP	n/a	LTP094	ltpFR	16	2	1	LOAF	835	n/a	0	n/a	n/a	n/a	n/a	n/a
3360440	RECOG_CONF	n/a	LTP094	ltpFR	16	2	1	LOAF	835	3	0	n/a	n/a	n/a	n/a	n/a
3361560	RECOG_TARGET	n/a	LTP094	ltpFR	16	2	1	DISH	474	3	0	n/a	n/a	n/a	n/a	n/a
3362694	RECOG_RESP	n/a	LTP094	ltpFR	16	2	1	DISH	474	n/a	0	n/a	n/a	n/a	n/a	n/a
3363258	RECOG_CONF	n/a	LTP094	ltpFR	16	2	1	DISH	474	3	0	n/a	n/a	n/a	n/a	n/a
3364492	RECOG_TARGET	n/a	LTP094	ltpFR	16	2	0	SUITE	1404	3	1	n/a	n/a	n/a	n/a	n/a
3365268	RECOG_RESP	n/a	LTP094	ltpFR	16	2	0	SUITE	1404	n/a	1	n/a	n/a	n/a	n/a	n/a
3365686	RECOG_CONF	n/a	LTP094	ltpFR	16	2	0	SUITE	1404	3	1	n/a	n/a	n/a	n/a	n/a
3369124	REC_START	n/a	LTP094	ltpFR	16	3	n/a	n/a	n/a	n/a	n/a	n/a	n/a	n/a	n/a	n/a
3369159	RECOG_TARGET	n/a	LTP094	ltpFR	16	3	0	SCALPEL	1243	4	0	n/a	n/a	n/a	n/a	n/a
3369882	RECOG_RESP	n/a	LTP094	ltpFR	16	3	0	SCALPEL	1243	n/a	0	n/a	n/a	n/a	n/a	n/a
3370426	RECOG_CONF	n/a	LTP094	ltpFR	16	3	0	SCALPEL	1243	4	0	n/a	n/a	n/a	n/a	n/a
3371676	RECOG_LURE	n/a	LTP094	ltpFR	16	3	n/a	ARCHITECT	36	3	n/a	n/a	n/a	n/a	n/a	n/a
3372870	RECOG_RESP	n/a	LTP094	ltpFR	16	3	n/a	ARCHITECT	36	n/a	n/a	n/a	n/a	n/a	n/a	n/a
3373419	RECOG_CONF	n/a	LTP094	ltpFR	16	3	n/a	ARCHITECT	36	3	n/a	n/a	n/a	n/a	n/a	n/a
3374643	RECOG_TARGET	n/a	LTP094	ltpFR	16	3	0	BRANCH	168	3	0	n/a	n/a	n/a	n/a	n/a
3375529	RECOG_RESP	n/a	LTP094	ltpFR	16	3	0	BRANCH	168	n/a	0	n/a	n/a	n/a	n/a	n/a
3376133	RECOG_CONF	n/a	LTP094	ltpFR	16	3	0	BRANCH	168	3	0	n/a	n/a	n/a	n/a	n/a
3377692	RECOG_TARGET	n/a	LTP094	ltpFR	16	3	1	SQUIRREL	1362	4	1	n/a	n/a	n/a	n/a	n/a
3378288	RECOG_RESP	n/a	LTP094	ltpFR	16	3	1	SQUIRREL	1362	n/a	1	n/a	n/a	n/a	n/a	n/a
3378827	RECOG_CONF	n/a	LTP094	ltpFR	16	3	1	SQUIRREL	1362	4	1	n/a	n/a	n/a	n/a	n/a
3379991	RECOG_LURE	n/a	LTP094	ltpFR	16	3	n/a	CLOVE	329	3	n/a	n/a	n/a	n/a	n/a	n/a
3381002	RECOG_RESP	n/a	LTP094	ltpFR	16	3	n/a	CLOVE	329	n/a	n/a	n/a	n/a	n/a	n/a	n/a
3381561	RECOG_CONF	n/a	LTP094	ltpFR	16	3	n/a	CLOVE	329	3	n/a	n/a	n/a	n/a	n/a	n/a
3382816	RECOG_TARGET	n/a	LTP094	ltpFR	16	3	1	JOURNAL	760	2	0	n/a	n/a	n/a	n/a	n/a
3383586	RECOG_RESP	n/a	LTP094	ltpFR	16	3	1	JOURNAL	760	n/a	0	n/a	n/a	n/a	n/a	n/a
3384045	RECOG_CONF	n/a	LTP094	ltpFR	16	3	1	JOURNAL	760	2	0	n/a	n/a	n/a	n/a	n/a
3385391	RECOG_LURE	n/a	LTP094	ltpFR	16	3	n/a	HEDGE	699	3	n/a	n/a	n/a	n/a	n/a	n/a
3386839	RECOG_RESP	n/a	LTP094	ltpFR	16	3	n/a	HEDGE	699	n/a	n/a	n/a	n/a	n/a	n/a	n/a
3387387	RECOG_CONF	n/a	LTP094	ltpFR	16	3	n/a	HEDGE	699	3	n/a	n/a	n/a	n/a	n/a	n/a
3388750	RECOG_TARGET	n/a	LTP094	ltpFR	16	3	1	MAPLE	866	3	1	n/a	n/a	n/a	n/a	n/a
3389488	RECOG_RESP	n/a	LTP094	ltpFR	16	3	1	MAPLE	866	n/a	1	n/a	n/a	n/a	n/a	n/a
3389991	RECOG_CONF	n/a	LTP094	ltpFR	16	3	1	MAPLE	866	3	1	n/a	n/a	n/a	n/a	n/a
3391591	RECOG_LURE	n/a	LTP094	ltpFR	16	3	n/a	LITTER	832	2	n/a	n/a	n/a	n/a	n/a	n/a
3392600	RECOG_RESP	n/a	LTP094	ltpFR	16	3	n/a	LITTER	832	n/a	n/a	n/a	n/a	n/a	n/a	n/a
3393044	RECOG_CONF	n/a	LTP094	ltpFR	16	3	n/a	LITTER	832	2	n/a	n/a	n/a	n/a	n/a	n/a
3394423	RECOG_LURE	n/a	LTP094	ltpFR	16	3	n/a	ROOM	1206	2	n/a	n/a	n/a	n/a	n/a	n/a
3395215	RECOG_RESP	n/a	LTP094	ltpFR	16	3	n/a	ROOM	1206	n/a	n/a	n/a	n/a	n/a	n/a	n/a
3395688	RECOG_CONF	n/a	LTP094	ltpFR	16	3	n/a	ROOM	1206	2	n/a	n/a	n/a	n/a	n/a	n/a
3397440	RECOG_LURE	n/a	LTP094	ltpFR	16	3	n/a	ENGINEER	536	2	n/a	n/a	n/a	n/a	n/a	n/a
3398442	RECOG_RESP	n/a	LTP094	ltpFR	16	3	n/a	ENGINEER	536	n/a	n/a	n/a	n/a	n/a	n/a	n/a
3398961	RECOG_CONF	n/a	LTP094	ltpFR	16	3	n/a	ENGINEER	536	2	n/a	n/a	n/a	n/a	n/a	n/a
3400448	RECOG_LURE	n/a	LTP094	ltpFR	16	3	n/a	DOORBELL	487	2	n/a	n/a	n/a	n/a	n/a	n/a
3401795	RECOG_RESP	n/a	LTP094	ltpFR	16	3	n/a	DOORBELL	487	n/a	n/a	n/a	n/a	n/a	n/a	n/a
3402363	RECOG_CONF	n/a	LTP094	ltpFR	16	3	n/a	DOORBELL	487	2	n/a	n/a	n/a	n/a	n/a	n/a
3403682	RECOG_TARGET	n/a	LTP094	ltpFR	16	3	0	PACKAGE	997	3	1	n/a	n/a	n/a	n/a	n/a
3404533	RECOG_RESP	n/a	LTP094	ltpFR	16	3	0	PACKAGE	997	n/a	1	n/a	n/a	n/a	n/a	n/a
3405087	RECOG_CONF	n/a	LTP094	ltpFR	16	3	0	PACKAGE	997	3	1	n/a	n/a	n/a	n/a	n/a
3406431	RECOG_TARGET	n/a	LTP094	ltpFR	16	3	1	SURF	1412	3	0	n/a	n/a	n/a	n/a	n/a
3407187	RECOG_RESP	n/a	LTP094	ltpFR	16	3	1	SURF	1412	n/a	0	n/a	n/a	n/a	n/a	n/a
3407701	RECOG_CONF	n/a	LTP094	ltpFR	16	3	1	SURF	1412	3	0	n/a	n/a	n/a	n/a	n/a
3409039	RECOG_TARGET	n/a	LTP094	ltpFR	16	3	-1	COLESLAW	344	3	-1	n/a	n/a	n/a	n/a	n/a
3409677	RECOG_RESP	n/a	LTP094	ltpFR	16	3	-1	COLESLAW	344	n/a	-1	n/a	n/a	n/a	n/a	n/a
3410265	RECOG_CONF	n/a	LTP094	ltpFR	16	3	-1	COLESLAW	344	3	-1	n/a	n/a	n/a	n/a	n/a
3411598	RECOG_TARGET	n/a	LTP094	ltpFR	16	3	0	PIE	1062	3	0	n/a	n/a	n/a	n/a	n/a
3412395	RECOG_RESP	n/a	LTP094	ltpFR	16	3	0	PIE	1062	n/a	0	n/a	n/a	n/a	n/a	n/a
3412979	RECOG_CONF	n/a	LTP094	ltpFR	16	3	0	PIE	1062	3	0	n/a	n/a	n/a	n/a	n/a
3414255	RECOG_LURE	n/a	LTP094	ltpFR	16	3	n/a	BUTTERFLY	206	3	n/a	n/a	n/a	n/a	n/a	n/a
3415109	RECOG_RESP	n/a	LTP094	ltpFR	16	3	n/a	BUTTERFLY	206	n/a	n/a	n/a	n/a	n/a	n/a	n/a
3415713	RECOG_CONF	n/a	LTP094	ltpFR	16	3	n/a	BUTTERFLY	206	3	n/a	n/a	n/a	n/a	n/a	n/a
3416963	RECOG_LURE	n/a	LTP094	ltpFR	16	3	n/a	LEADER	807	3	n/a	n/a	n/a	n/a	n/a	n/a
3417693	RECOG_RESP	n/a	LTP094	ltpFR	16	3	n/a	LEADER	807	n/a	n/a	n/a	n/a	n/a	n/a	n/a
3418327	RECOG_CONF	n/a	LTP094	ltpFR	16	3	n/a	LEADER	807	3	n/a	n/a	n/a	n/a	n/a	n/a
3419597	RECOG_TARGET	n/a	LTP094	ltpFR	16	3	-1	OVEN	991	2	-1	n/a	n/a	n/a	n/a	n/a
3420542	RECOG_RESP	n/a	LTP094	ltpFR	16	3	-1	OVEN	991	n/a	-1	n/a	n/a	n/a	n/a	n/a
3421181	RECOG_CONF	n/a	LTP094	ltpFR	16	3	-1	OVEN	991	2	-1	n/a	n/a	n/a	n/a	n/a
3422405	RECOG_TARGET	n/a	LTP094	ltpFR	16	3	1	HONEY	713	2	0	n/a	n/a	n/a	n/a	n/a
3423256	RECOG_RESP	n/a	LTP094	ltpFR	16	3	1	HONEY	713	n/a	0	n/a	n/a	n/a	n/a	n/a
3423785	RECOG_CONF	n/a	LTP094	ltpFR	16	3	1	HONEY	713	2	0	n/a	n/a	n/a	n/a	n/a
3428935	REC_START	n/a	LTP094	ltpFR	16	4	n/a	n/a	n/a	n/a	n/a	n/a	n/a	n/a	n/a	n/a
3428971	RECOG_LURE	n/a	LTP094	ltpFR	16	4	n/a	CROOK	412	2	n/a	n/a	n/a	n/a	n/a	n/a
3430217	RECOG_RESP	n/a	LTP094	ltpFR	16	4	n/a	CROOK	412	n/a	n/a	n/a	n/a	n/a	n/a	n/a
3430766	RECOG_CONF	n/a	LTP094	ltpFR	16	4	n/a	CROOK	412	2	n/a	n/a	n/a	n/a	n/a	n/a
3432154	RECOG_LURE	n/a	LTP094	ltpFR	16	4	n/a	TRICYCLE	1506	2	n/a	n/a	n/a	n/a	n/a	n/a
3432926	RECOG_RESP	n/a	LTP094	ltpFR	16	4	n/a	TRICYCLE	1506	n/a	n/a	n/a	n/a	n/a	n/a	n/a
3433450	RECOG_CONF	n/a	LTP094	ltpFR	16	4	n/a	TRICYCLE	1506	2	n/a	n/a	n/a	n/a	n/a	n/a
3434787	RECOG_TARGET	n/a	LTP094	ltpFR	16	4	-1	PUMPKIN	1142	3	-1	n/a	n/a	n/a	n/a	n/a
3435420	RECOG_RESP	n/a	LTP094	ltpFR	16	4	-1	PUMPKIN	1142	n/a	-1	n/a	n/a	n/a	n/a	n/a
3435944	RECOG_CONF	n/a	LTP094	ltpFR	16	4	-1	PUMPKIN	1142	3	-1	n/a	n/a	n/a	n/a	n/a
3437303	RECOG_TARGET	n/a	LTP094	ltpFR	16	4	0	SNEAKER	1334	3	0	n/a	n/a	n/a	n/a	n/a
3438074	RECOG_RESP	n/a	LTP094	ltpFR	16	4	0	SNEAKER	1334	n/a	0	n/a	n/a	n/a	n/a	n/a
3438638	RECOG_CONF	n/a	LTP094	ltpFR	16	4	0	SNEAKER	1334	3	0	n/a	n/a	n/a	n/a	n/a
3440236	RECOG_TARGET	n/a	LTP094	ltpFR	16	4	1	PUCK	1138	4	0	n/a	n/a	n/a	n/a	n/a
3440888	RECOG_RESP	n/a	LTP094	ltpFR	16	4	1	PUCK	1138	n/a	0	n/a	n/a	n/a	n/a	n/a
3441491	RECOG_CONF	n/a	LTP094	ltpFR	16	4	1	PUCK	1138	4	0	n/a	n/a	n/a	n/a	n/a
3442729	RECOG_LURE	n/a	LTP094	ltpFR	16	4	n/a	SLIME	1327	3	n/a	n/a	n/a	n/a	n/a	n/a
3443517	RECOG_RESP	n/a	LTP094	ltpFR	16	4	n/a	SLIME	1327	n/a	n/a	n/a	n/a	n/a	n/a	n/a
3444085	RECOG_CONF	n/a	LTP094	ltpFR	16	4	n/a	SLIME	1327	3	n/a	n/a	n/a	n/a	n/a	n/a
3445595	RECOG_TARGET	n/a	LTP094	ltpFR	16	4	-1	CORD	379	2	-1	n/a	n/a	n/a	n/a	n/a
3446530	RECOG_RESP	n/a	LTP094	ltpFR	16	4	-1	CORD	379	n/a	-1	n/a	n/a	n/a	n/a	n/a
3447039	RECOG_CONF	n/a	LTP094	ltpFR	16	4	-1	CORD	379	2	-1	n/a	n/a	n/a	n/a	n/a
3448378	RECOG_LURE	n/a	LTP094	ltpFR	16	4	n/a	STEWARDESS	1381	3	n/a	n/a	n/a	n/a	n/a	n/a
3449358	RECOG_RESP	n/a	LTP094	ltpFR	16	4	n/a	STEWARDESS	1381	n/a	n/a	n/a	n/a	n/a	n/a	n/a
3449932	RECOG_CONF	n/a	LTP094	ltpFR	16	4	n/a	STEWARDESS	1381	3	n/a	n/a	n/a	n/a	n/a	n/a
3451211	RECOG_LURE	n/a	LTP094	ltpFR	16	4	n/a	LODGE	839	2	n/a	n/a	n/a	n/a	n/a	n/a
3452092	RECOG_RESP	n/a	LTP094	ltpFR	16	4	n/a	LODGE	839	n/a	n/a	n/a	n/a	n/a	n/a	n/a
3452646	RECOG_CONF	n/a	LTP094	ltpFR	16	4	n/a	LODGE	839	2	n/a	n/a	n/a	n/a	n/a	n/a
3453927	RECOG_LURE	n/a	LTP094	ltpFR	16	4	n/a	MAGICIAN	854	3	n/a	n/a	n/a	n/a	n/a	n/a
3454716	RECOG_RESP	n/a	LTP094	ltpFR	16	4	n/a	MAGICIAN	854	n/a	n/a	n/a	n/a	n/a	n/a	n/a
3455230	RECOG_CONF	n/a	LTP094	ltpFR	16	4	n/a	MAGICIAN	854	3	n/a	n/a	n/a	n/a	n/a	n/a
3456586	RECOG_LURE	n/a	LTP094	ltpFR	16	4	n/a	DRAWER	493	3	n/a	n/a	n/a	n/a	n/a	n/a
3457939	RECOG_RESP	n/a	LTP094	ltpFR	16	4	n/a	DRAWER	493	n/a	n/a	n/a	n/a	n/a	n/a	n/a
3458672	RECOG_CONF	n/a	LTP094	ltpFR	16	4	n/a	DRAWER	493	3	n/a	n/a	n/a	n/a	n/a	n/a
3460160	RECOG_TARGET	n/a	LTP094	ltpFR	16	4	-1	ALLEY	15	2	-1	n/a	n/a	n/a	n/a	n/a
3461182	RECOG_RESP	n/a	LTP094	ltpFR	16	4	-1	ALLEY	15	n/a	-1	n/a	n/a	n/a	n/a	n/a
3461845	RECOG_CONF	n/a	LTP094	ltpFR	16	4	-1	ALLEY	15	2	-1	n/a	n/a	n/a	n/a	n/a
3463085	RECOG_LURE	n/a	LTP094	ltpFR	16	4	n/a	LIP	828	3	n/a	n/a	n/a	n/a	n/a	n/a
3463890	RECOG_RESP	n/a	LTP094	ltpFR	16	4	n/a	LIP	828	n/a	n/a	n/a	n/a	n/a	n/a	n/a
3464519	RECOG_CONF	n/a	LTP094	ltpFR	16	4	n/a	LIP	828	3	n/a	n/a	n/a	n/a	n/a	n/a
3465893	RECOG_LURE	n/a	LTP094	ltpFR	16	4	n/a	GARBAGE	622	3	n/a	n/a	n/a	n/a	n/a	n/a
3466754	RECOG_RESP	n/a	LTP094	ltpFR	16	4	n/a	GARBAGE	622	n/a	n/a	n/a	n/a	n/a	n/a	n/a
3467442	RECOG_CONF	n/a	LTP094	ltpFR	16	4	n/a	GARBAGE	622	3	n/a	n/a	n/a	n/a	n/a	n/a
3468744	RECOG_TARGET	n/a	LTP094	ltpFR	16	4	1	SQUID	1361	3	1	n/a	n/a	n/a	n/a	n/a
3469418	RECOG_RESP	n/a	LTP094	ltpFR	16	4	1	SQUID	1361	n/a	1	n/a	n/a	n/a	n/a	n/a
3470016	RECOG_CONF	n/a	LTP094	ltpFR	16	4	1	SQUID	1361	3	1	n/a	n/a	n/a	n/a	n/a
3471259	RECOG_LURE	n/a	LTP094	ltpFR	16	4	n/a	KETTLE	772	3	n/a	n/a	n/a	n/a	n/a	n/a
3472077	RECOG_RESP	n/a	LTP094	ltpFR	16	4	n/a	KETTLE	772	n/a	n/a	n/a	n/a	n/a	n/a	n/a
3472640	RECOG_CONF	n/a	LTP094	ltpFR	16	4	n/a	KETTLE	772	3	n/a	n/a	n/a	n/a	n/a	n/a
3473925	RECOG_TARGET	n/a	LTP094	ltpFR	16	4	-1	STAR	1373	3	-1	n/a	n/a	n/a	n/a	n/a
3474726	RECOG_RESP	n/a	LTP094	ltpFR	16	4	-1	STAR	1373	n/a	-1	n/a	n/a	n/a	n/a	n/a
3475314	RECOG_CONF	n/a	LTP094	ltpFR	16	4	-1	STAR	1373	3	-1	n/a	n/a	n/a	n/a	n/a
3476743	RECOG_TARGET	n/a	LTP094	ltpFR	16	4	1	DESSERT	453	2	0	n/a	n/a	n/a	n/a	n/a
3477774	RECOG_RESP	n/a	LTP094	ltpFR	16	4	1	DESSERT	453	n/a	0	n/a	n/a	n/a	n/a	n/a
3478477	RECOG_CONF	n/a	LTP094	ltpFR	16	4	1	DESSERT	453	2	0	n/a	n/a	n/a	n/a	n/a
3479842	RECOG_TARGET	n/a	LTP094	ltpFR	16	4	-1	AIRCRAFT	11	2	-1	n/a	n/a	n/a	n/a	n/a
3480742	RECOG_RESP	n/a	LTP094	ltpFR	16	4	-1	AIRCRAFT	11	n/a	-1	n/a	n/a	n/a	n/a	n/a
3481341	RECOG_CONF	n/a	LTP094	ltpFR	16	4	-1	AIRCRAFT	11	2	-1	n/a	n/a	n/a	n/a	n/a
3482609	RECOG_LURE	n/a	LTP094	ltpFR	16	4	n/a	DUNGEON	507	3	n/a	n/a	n/a	n/a	n/a	n/a
3483521	RECOG_RESP	n/a	LTP094	ltpFR	16	4	n/a	DUNGEON	507	n/a	n/a	n/a	n/a	n/a	n/a	n/a
3484154	RECOG_CONF	n/a	LTP094	ltpFR	16	4	n/a	DUNGEON	507	3	n/a	n/a	n/a	n/a	n/a	n/a
3489255	REC_START	n/a	LTP094	ltpFR	16	5	n/a	n/a	n/a	n/a	n/a	n/a	n/a	n/a	n/a	n/a
3489291	RECOG_TARGET	n/a	LTP094	ltpFR	16	5	-1	EMPLOYEE	531	2	-1	n/a	n/a	n/a	n/a	n/a
3490213	RECOG_RESP	n/a	LTP094	ltpFR	16	5	-1	EMPLOYEE	531	n/a	-1	n/a	n/a	n/a	n/a	n/a
3490776	RECOG_CONF	n/a	LTP094	ltpFR	16	5	-1	EMPLOYEE	531	2	-1	n/a	n/a	n/a	n/a	n/a
3492049	RECOG_TARGET	n/a	LTP094	ltpFR	16	5	-1	COLLAR	345	3	-1	n/a	n/a	n/a	n/a	n/a
3492727	RECOG_RESP	n/a	LTP094	ltpFR	16	5	-1	COLLAR	345	n/a	-1	n/a	n/a	n/a	n/a	n/a
3493241	RECOG_CONF	n/a	LTP094	ltpFR	16	5	-1	COLLAR	345	3	-1	n/a	n/a	n/a	n/a	n/a
3494592	RECOG_TARGET	n/a	LTP094	ltpFR	16	5	-1	BRACELET	163	3	-1	n/a	n/a	n/a	n/a	n/a
3495291	RECOG_RESP	n/a	LTP094	ltpFR	16	5	-1	BRACELET	163	n/a	-1	n/a	n/a	n/a	n/a	n/a
3495865	RECOG_CONF	n/a	LTP094	ltpFR	16	5	-1	BRACELET	163	3	-1	n/a	n/a	n/a	n/a	n/a
3497215	RECOG_LURE	n/a	LTP094	ltpFR	16	5	n/a	PRISON	1127	2	n/a	n/a	n/a	n/a	n/a	n/a
3498130	RECOG_RESP	n/a	LTP094	ltpFR	16	5	n/a	PRISON	1127	n/a	n/a	n/a	n/a	n/a	n/a	n/a
3498638	RECOG_CONF	n/a	LTP094	ltpFR	16	5	n/a	PRISON	1127	2	n/a	n/a	n/a	n/a	n/a	n/a
3499973	RECOG_TARGET	n/a	LTP094	ltpFR	16	5	-1	TURKEY	1520	2	-1	n/a	n/a	n/a	n/a	n/a
3500853	RECOG_RESP	n/a	LTP094	ltpFR	16	5	-1	TURKEY	1520	n/a	-1	n/a	n/a	n/a	n/a	n/a
3501402	RECOG_CONF	n/a	LTP094	ltpFR	16	5	-1	TURKEY	1520	2	-1	n/a	n/a	n/a	n/a	n/a
3502774	RECOG_LURE	n/a	LTP094	ltpFR	16	5	n/a	FREEWAY	603	2	n/a	n/a	n/a	n/a	n/a	n/a
3503542	RECOG_RESP	n/a	LTP094	ltpFR	16	5	n/a	FREEWAY	603	n/a	n/a	n/a	n/a	n/a	n/a	n/a
3504086	RECOG_CONF	n/a	LTP094	ltpFR	16	5	n/a	FREEWAY	603	2	n/a	n/a	n/a	n/a	n/a	n/a
3505406	RECOG_TARGET	n/a	LTP094	ltpFR	16	5	1	CHEMICAL	291	3	0	n/a	n/a	n/a	n/a	n/a
3506166	RECOG_RESP	n/a	LTP094	ltpFR	16	5	1	CHEMICAL	291	n/a	0	n/a	n/a	n/a	n/a	n/a
3506670	RECOG_CONF	n/a	LTP094	ltpFR	16	5	1	CHEMICAL	291	3	0	n/a	n/a	n/a	n/a	n/a
3507956	RECOG_LURE	n/a	LTP094	ltpFR	16	5	n/a	SCIENTIST	1249	2	n/a	n/a	n/a	n/a	n/a	n/a
3508930	RECOG_RESP	n/a	LTP094	ltpFR	16	5	n/a	SCIENTIST	1249	n/a	n/a	n/a	n/a	n/a	n/a	n/a
3509474	RECOG_CONF	n/a	LTP094	ltpFR	16	5	n/a	SCIENTIST	1249	2	n/a	n/a	n/a	n/a	n/a	n/a
3510749	RECOG_TARGET	n/a	LTP094	ltpFR	16	5	-1	MOON	914	3	-1	n/a	n/a	n/a	n/a	n/a
3511389	RECOG_RESP	n/a	LTP094	ltpFR	16	5	-1	MOON	914	n/a	-1	n/a	n/a	n/a	n/a	n/a
3511928	RECOG_CONF	n/a	LTP094	ltpFR	16	5	-1	MOON	914	3	-1	n/a	n/a	n/a	n/a	n/a
3513272	RECOG_TARGET	n/a	LTP094	ltpFR	16	5	1	SHOELACE	1289	3	0	n/a	n/a	n/a	n/a	n/a
3513939	RECOG_RESP	n/a	LTP094	ltpFR	16	5	1	SHOELACE	1289	n/a	0	n/a	n/a	n/a	n/a	n/a
3514492	RECOG_CONF	n/a	LTP094	ltpFR	16	5	1	SHOELACE	1289	3	0	n/a	n/a	n/a	n/a	n/a
3515847	RECOG_TARGET	n/a	LTP094	ltpFR	16	5	1	GUEST	669	3	1	n/a	n/a	n/a	n/a	n/a
3516503	RECOG_RESP	n/a	LTP094	ltpFR	16	5	1	GUEST	669	n/a	1	n/a	n/a	n/a	n/a	n/a
3517067	RECOG_CONF	n/a	LTP094	ltpFR	16	5	1	GUEST	669	3	1	n/a	n/a	n/a	n/a	n/a
3518405	RECOG_TARGET	n/a	LTP094	ltpFR	16	5	-1	CRAB	397	2	-1	n/a	n/a	n/a	n/a	n/a
3519067	RECOG_RESP	n/a	LTP094	ltpFR	16	5	-1	CRAB	397	n/a	-1	n/a	n/a	n/a	n/a	n/a
3519621	RECOG_CONF	n/a	LTP094	ltpFR	16	5	-1	CRAB	397	2	-1	n/a	n/a	n/a	n/a	n/a
3520980	RECOG_LURE	n/a	LTP094	ltpFR	16	5	n/a	ARTICLE	42	2	n/a	n/a	n/a	n/a	n/a	n/a
3522190	RECOG_RESP	n/a	LTP094	ltpFR	16	5	n/a	ARTICLE	42	n/a	n/a	n/a	n/a	n/a	n/a	n/a
3522714	RECOG_CONF	n/a	LTP094	ltpFR	16	5	n/a	ARTICLE	42	2	n/a	n/a	n/a	n/a	n/a	n/a
3524038	RECOG_LURE	n/a	LTP094	ltpFR	16	5	n/a	CREEK	404	2	n/a	n/a	n/a	n/a	n/a	n/a
3524829	RECOG_RESP	n/a	LTP094	ltpFR	16	5	n/a	CREEK	404	n/a	n/a	n/a	n/a	n/a	n/a	n/a
3525358	RECOG_CONF	n/a	LTP094	ltpFR	16	5	n/a	CREEK	404	2	n/a	n/a	n/a	n/a	n/a	n/a
3526846	RECOG_LURE	n/a	LTP094	ltpFR	16	5	n/a	TRENCH	1503	3	n/a	n/a	n/a	n/a	n/a	n/a
3527852	RECOG_RESP	n/a	LTP094	ltpFR	16	5	n/a	TRENCH	1503	n/a	n/a	n/a	n/a	n/a	n/a	n/a
3528431	RECOG_CONF	n/a	LTP094	ltpFR	16	5	n/a	TRENCH	1503	3	n/a	n/a	n/a	n/a	n/a	n/a
3529830	RECOG_LURE	n/a	LTP094	ltpFR	16	5	n/a	PIKE	1067	2	n/a	n/a	n/a	n/a	n/a	n/a
3531085	RECOG_RESP	n/a	LTP094	ltpFR	16	5	n/a	PIKE	1067	n/a	n/a	n/a	n/a	n/a	n/a	n/a
3531663	RECOG_CONF	n/a	LTP094	ltpFR	16	5	n/a	PIKE	1067	2	n/a	n/a	n/a	n/a	n/a	n/a
3532996	RECOG_LURE	n/a	LTP094	ltpFR	16	5	n/a	TABLE	1426	3	n/a	n/a	n/a	n/a	n/a	n/a
3535160	RECOG_RESP	n/a	LTP094	ltpFR	16	5	n/a	TABLE	1426	n/a	n/a	n/a	n/a	n/a	n/a	n/a
3535824	RECOG_CONF	n/a	LTP094	ltpFR	16	5	n/a	TABLE	1426	3	n/a	n/a	n/a	n/a	n/a	n/a
3537096	RECOG_LURE	n/a	LTP094	ltpFR	16	5	n/a	ERASER	538	3	n/a	n/a	n/a	n/a	n/a	n/a
3537859	RECOG_RESP	n/a	LTP094	ltpFR	16	5	n/a	ERASER	538	n/a	n/a	n/a	n/a	n/a	n/a	n/a
3538388	RECOG_CONF	n/a	LTP094	ltpFR	16	5	n/a	ERASER	538	3	n/a	n/a	n/a	n/a	n/a	n/a
3539696	RECOG_TARGET	n/a	LTP094	ltpFR	16	5	-1	HELICOPTER	701	2	-1	n/a	n/a	n/a	n/a	n/a
3540668	RECOG_RESP	n/a	LTP094	ltpFR	16	5	-1	HELICOPTER	701	n/a	-1	n/a	n/a	n/a	n/a	n/a
3541222	RECOG_CONF	n/a	LTP094	ltpFR	16	5	-1	HELICOPTER	701	2	-1	n/a	n/a	n/a	n/a	n/a
3542554	RECOG_TARGET	n/a	LTP094	ltpFR	16	5	0	RAKE	1164	3	0	n/a	n/a	n/a	n/a	n/a
3543192	RECOG_RESP	n/a	LTP094	ltpFR	16	5	0	RAKE	1164	n/a	0	n/a	n/a	n/a	n/a	n/a
3543786	RECOG_CONF	n/a	LTP094	ltpFR	16	5	0	RAKE	1164	3	0	n/a	n/a	n/a	n/a	n/a
3547297	REC_START	n/a	LTP094	ltpFR	16	6	n/a	n/a	n/a	n/a	n/a	n/a	n/a	n/a	n/a	n/a
3547328	RECOG_LURE	n/a	LTP094	ltpFR	16	6	n/a	SALT	1229	3	n/a	n/a	n/a	n/a	n/a	n/a
3548220	RECOG_RESP	n/a	LTP094	ltpFR	16	6	n/a	SALT	1229	n/a	n/a	n/a	n/a	n/a	n/a	n/a
3548798	RECOG_CONF	n/a	LTP094	ltpFR	16	6	n/a	SALT	1229	3	n/a	n/a	n/a	n/a	n/a	n/a
3550003	RECOG_LURE	n/a	LTP094	ltpFR	16	6	n/a	DAUGHTER	442	3	n/a	n/a	n/a	n/a	n/a	n/a
3551053	RECOG_RESP	n/a	LTP094	ltpFR	16	6	n/a	DAUGHTER	442	n/a	n/a	n/a	n/a	n/a	n/a	n/a
3551632	RECOG_CONF	n/a	LTP094	ltpFR	16	6	n/a	DAUGHTER	442	3	n/a	n/a	n/a	n/a	n/a	n/a
3552944	RECOG_LURE	n/a	LTP094	ltpFR	16	6	n/a	FRUIT	610	3	n/a	n/a	n/a	n/a	n/a	n/a
3553702	RECOG_RESP	n/a	LTP094	ltpFR	16	6	n/a	FRUIT	610	n/a	n/a	n/a	n/a	n/a	n/a	n/a
3554296	RECOG_CONF	n/a	LTP094	ltpFR	16	6	n/a	FRUIT	610	3	n/a	n/a	n/a	n/a	n/a	n/a
3555494	RECOG_TARGET	n/a	LTP094	ltpFR	16	6	0	MONSTER	912	3	1	n/a	n/a	n/a	n/a	n/a
3556336	RECOG_RESP	n/a	LTP094	ltpFR	16	6	0	MONSTER	912	n/a	1	n/a	n/a	n/a	n/a	n/a
3556890	RECOG_CONF	n/a	LTP094	ltpFR	16	6	0	MONSTER	912	3	1	n/a	n/a	n/a	n/a	n/a
3558161	RECOG_LURE	n/a	LTP094	ltpFR	16	6	n/a	CORN	381	2	n/a	n/a	n/a	n/a	n/a	n/a
3558851	RECOG_RESP	n/a	LTP094	ltpFR	16	6	n/a	CORN	381	n/a	n/a	n/a	n/a	n/a	n/a	n/a
3559394	RECOG_CONF	n/a	LTP094	ltpFR	16	6	n/a	CORN	381	2	n/a	n/a	n/a	n/a	n/a	n/a
3560628	RECOG_LURE	n/a	LTP094	ltpFR	16	6	n/a	FOLLOWER	589	3	n/a	n/a	n/a	n/a	n/a	n/a
3561944	RECOG_RESP	n/a	LTP094	ltpFR	16	6	n/a	FOLLOWER	589	n/a	n/a	n/a	n/a	n/a	n/a	n/a
3562627	RECOG_CONF	n/a	LTP094	ltpFR	16	6	n/a	FOLLOWER	589	3	n/a	n/a	n/a	n/a	n/a	n/a
3563935	RECOG_LURE	n/a	LTP094	ltpFR	16	6	n/a	SALESMAN	1225	3	n/a	n/a	n/a	n/a	n/a	n/a
3564782	RECOG_RESP	n/a	LTP094	ltpFR	16	6	n/a	SALESMAN	1225	n/a	n/a	n/a	n/a	n/a	n/a	n/a
3565381	RECOG_CONF	n/a	LTP094	ltpFR	16	6	n/a	SALESMAN	1225	3	n/a	n/a	n/a	n/a	n/a	n/a
3566793	RECOG_TARGET	n/a	LTP094	ltpFR	16	6	0	FLOUR	583	3	1	n/a	n/a	n/a	n/a	n/a
3567516	RECOG_RESP	n/a	LTP094	ltpFR	16	6	0	FLOUR	583	n/a	1	n/a	n/a	n/a	n/a	n/a
3568085	RECOG_CONF	n/a	LTP094	ltpFR	16	6	0	FLOUR	583	3	1	n/a	n/a	n/a	n/a	n/a
3569451	RECOG_TARGET	n/a	LTP094	ltpFR	16	6	1	PIER	1063	2	0	n/a	n/a	n/a	n/a	n/a
3570689	RECOG_RESP	n/a	LTP094	ltpFR	16	6	1	PIER	1063	n/a	0	n/a	n/a	n/a	n/a	n/a
3571347	RECOG_CONF	n/a	LTP094	ltpFR	16	6	1	PIER	1063	2	0	n/a	n/a	n/a	n/a	n/a
3572736	RECOG_TARGET	n/a	LTP094	ltpFR	16	6	1	BELLY	119	3	1	n/a	n/a	n/a	n/a	n/a
3573442	RECOG_RESP	n/a	LTP094	ltpFR	16	6	1	BELLY	119	n/a	1	n/a	n/a	n/a	n/a	n/a
3574051	RECOG_CONF	n/a	LTP094	ltpFR	16	6	1	BELLY	119	3	1	n/a	n/a	n/a	n/a	n/a
3575459	RECOG_TARGET	n/a	LTP094	ltpFR	16	6	0	POTATO	1115	3	0	n/a	n/a	n/a	n/a	n/a
3576231	RECOG_RESP	n/a	LTP094	ltpFR	16	6	0	POTATO	1115	n/a	0	n/a	n/a	n/a	n/a	n/a
3576835	RECOG_CONF	n/a	LTP094	ltpFR	16	6	0	POTATO	1115	3	0	n/a	n/a	n/a	n/a	n/a
3578367	RECOG_LURE	n/a	LTP094	ltpFR	16	6	n/a	SUN	1406	3	n/a	n/a	n/a	n/a	n/a	n/a
3579080	RECOG_RESP	n/a	LTP094	ltpFR	16	6	n/a	SUN	1406	n/a	n/a	n/a	n/a	n/a	n/a	n/a
3579728	RECOG_CONF	n/a	LTP094	ltpFR	16	6	n/a	SUN	1406	3	n/a	n/a	n/a	n/a	n/a	n/a
3581017	RECOG_TARGET	n/a	LTP094	ltpFR	16	6	0	KITE	779	3	0	n/a	n/a	n/a	n/a	n/a
3581729	RECOG_RESP	n/a	LTP094	ltpFR	16	6	0	KITE	779	n/a	0	n/a	n/a	n/a	n/a	n/a
3582322	RECOG_CONF	n/a	LTP094	ltpFR	16	6	0	KITE	779	3	0	n/a	n/a	n/a	n/a	n/a
3583760	RECOG_TARGET	n/a	LTP094	ltpFR	16	6	-1	LADY	794	3	-1	n/a	n/a	n/a	n/a	n/a
3584412	RECOG_RESP	n/a	LTP094	ltpFR	16	6	-1	LADY	794	n/a	-1	n/a	n/a	n/a	n/a	n/a
3585046	RECOG_CONF	n/a	LTP094	ltpFR	16	6	-1	LADY	794	3	-1	n/a	n/a	n/a	n/a	n/a
3586433	RECOG_TARGET	n/a	LTP094	ltpFR	16	6	0	FEATHER	557	3	0	n/a	n/a	n/a	n/a	n/a
3587236	RECOG_RESP	n/a	LTP094	ltpFR	16	6	0	FEATHER	557	n/a	0	n/a	n/a	n/a	n/a	n/a
3587860	RECOG_CONF	n/a	LTP094	ltpFR	16	6	0	FEATHER	557	3	0	n/a	n/a	n/a	n/a	n/a
3589033	RECOG_LURE	n/a	LTP094	ltpFR	16	6	n/a	CUPBOARD	425	2	n/a	n/a	n/a	n/a	n/a	n/a
3590299	RECOG_RESP	n/a	LTP094	ltpFR	16	6	n/a	CUPBOARD	425	n/a	n/a	n/a	n/a	n/a	n/a	n/a
3590953	RECOG_CONF	n/a	LTP094	ltpFR	16	6	n/a	CUPBOARD	425	2	n/a	n/a	n/a	n/a	n/a	n/a
3592425	RECOG_TARGET	n/a	LTP094	ltpFR	16	6	0	BLACKBERRY	132	3	0	n/a	n/a	n/a	n/a	n/a
3593103	RECOG_RESP	n/a	LTP094	ltpFR	16	6	0	BLACKBERRY	132	n/a	0	n/a	n/a	n/a	n/a	n/a
3593716	RECOG_CONF	n/a	LTP094	ltpFR	16	6	0	BLACKBERRY	132	3	0	n/a	n/a	n/a	n/a	n/a
3595191	RECOG_TARGET	n/a	LTP094	ltpFR	16	6	0	VISITOR	1573	3	1	n/a	n/a	n/a	n/a	n/a
3595861	RECOG_RESP	n/a	LTP094	ltpFR	16	6	0	VISITOR	1573	n/a	1	n/a	n/a	n/a	n/a	n/a
3596500	RECOG_CONF	n/a	LTP094	ltpFR	16	6	0	VISITOR	1573	3	1	n/a	n/a	n/a	n/a	n/a
3597833	RECOG_TARGET	n/a	LTP094	ltpFR	16	6	-1	CLAM	315	3	-1	n/a	n/a	n/a	n/a	n/a
3598545	RECOG_RESP	n/a	LTP094	ltpFR	16	6	-1	CLAM	315	n/a	-1	n/a	n/a	n/a	n/a	n/a
3599134	RECOG_CONF	n/a	LTP094	ltpFR	16	6	-1	CLAM	315	3	-1	n/a	n/a	n/a	n/a	n/a
3600525	RECOG_TARGET	n/a	LTP094	ltpFR	16	6	1	SKYSCRAPER	1322	3	0	n/a	n/a	n/a	n/a	n/a
3601558	RECOG_RESP	n/a	LTP094	ltpFR	16	6	1	SKYSCRAPER	1322	n/a	0	n/a	n/a	n/a	n/a	n/a
3602177	RECOG_CONF	n/a	LTP094	ltpFR	16	6	1	SKYSCRAPER	1322	3	0	n/a	n/a	n/a	n/a	n/a
3606071	REC_START	n/a	LTP094	ltpFR	16	7	n/a	n/a	n/a	n/a	n/a	n/a	n/a	n/a	n/a	n/a
3606107	RECOG_TARGET	n/a	LTP094	ltpFR	16	7	-1	BREAD	170	3	-1	n/a	n/a	n/a	n/a	n/a
3607308	RECOG_RESP	n/a	LTP094	ltpFR	16	7	-1	BREAD	170	n/a	-1	n/a	n/a	n/a	n/a	n/a
3607726	RECOG_CONF	n/a	LTP094	ltpFR	16	7	-1	BREAD	170	3	-1	n/a	n/a	n/a	n/a	n/a
3609373	RECOG_TARGET	n/a	LTP094	ltpFR	16	7	-1	DASHBOARD	441	3	-1	n/a	n/a	n/a	n/a	n/a
3610032	RECOG_RESP	n/a	LTP094	ltpFR	16	7	-1	DASHBOARD	441	n/a	-1	n/a	n/a	n/a	n/a	n/a
3610546	RECOG_CONF	n/a	LTP094	ltpFR	16	7	-1	DASHBOARD	441	3	-1	n/a	n/a	n/a	n/a	n/a
3612006	RECOG_LURE	n/a	LTP094	ltpFR	16	7	n/a	STAIRS	1367	2	n/a	n/a	n/a	n/a	n/a	n/a
3612905	RECOG_RESP	n/a	LTP094	ltpFR	16	7	n/a	STAIRS	1367	n/a	n/a	n/a	n/a	n/a	n/a	n/a
3613469	RECOG_CONF	n/a	LTP094	ltpFR	16	7	n/a	STAIRS	1367	2	n/a	n/a	n/a	n/a	n/a	n/a
3614798	RECOG_TARGET	n/a	LTP094	ltpFR	16	7	0	BOWL	158	3	0	n/a	n/a	n/a	n/a	n/a
3615440	RECOG_RESP	n/a	LTP094	ltpFR	16	7	0	BOWL	158	n/a	0	n/a	n/a	n/a	n/a	n/a
3616003	RECOG_CONF	n/a	LTP094	ltpFR	16	7	0	BOWL	158	3	0	n/a	n/a	n/a	n/a	n/a
3617414	RECOG_TARGET	n/a	LTP094	ltpFR	16	7	1	QUEEN	1149	2	1	n/a	n/a	n/a	n/a	n/a
3618263	RECOG_RESP	n/a	LTP094	ltpFR	16	7	1	QUEEN	1149	n/a	1	n/a	n/a	n/a	n/a	n/a
3618837	RECOG_CONF	n/a	LTP094	ltpFR	16	7	1	QUEEN	1149	2	1	n/a	n/a	n/a	n/a	n/a
3620164	RECOG_LURE	n/a	LTP094	ltpFR	16	7	n/a	LASH	802	3	n/a	n/a	n/a	n/a	n/a	n/a
3621221	RECOG_RESP	n/a	LTP094	ltpFR	16	7	n/a	LASH	802	n/a	n/a	n/a	n/a	n/a	n/a	n/a
3621810	RECOG_CONF	n/a	LTP094	ltpFR	16	7	n/a	LASH	802	3	n/a	n/a	n/a	n/a	n/a	n/a
3623247	RECOG_TARGET	n/a	LTP094	ltpFR	16	7	1	FLY	586	3	1	n/a	n/a	n/a	n/a	n/a
3623920	RECOG_RESP	n/a	LTP094	ltpFR	16	7	1	FLY	586	n/a	1	n/a	n/a	n/a	n/a	n/a
3624484	RECOG_CONF	n/a	LTP094	ltpFR	16	7	1	FLY	586	3	1	n/a	n/a	n/a	n/a	n/a
3625897	RECOG_TARGET	n/a	LTP094	ltpFR	16	7	0	SNORKEL	1336	3	0	n/a	n/a	n/a	n/a	n/a
3626559	RECOG_RESP	n/a	LTP094	ltpFR	16	7	0	SNORKEL	1336	n/a	0	n/a	n/a	n/a	n/a	n/a
3627178	RECOG_CONF	n/a	LTP094	ltpFR	16	7	0	SNORKEL	1336	3	0	n/a	n/a	n/a	n/a	n/a
3628430	RECOG_TARGET	n/a	LTP094	ltpFR	16	7	-1	ROBE	1198	3	-1	n/a	n/a	n/a	n/a	n/a
3629168	RECOG_RESP	n/a	LTP094	ltpFR	16	7	-1	ROBE	1198	n/a	-1	n/a	n/a	n/a	n/a	n/a
3629722	RECOG_CONF	n/a	LTP094	ltpFR	16	7	-1	ROBE	1198	3	-1	n/a	n/a	n/a	n/a	n/a
3631072	RECOG_TARGET	n/a	LTP094	ltpFR	16	7	-1	CLAW	319	3	-1	n/a	n/a	n/a	n/a	n/a
3631782	RECOG_RESP	n/a	LTP094	ltpFR	16	7	-1	CLAW	319	n/a	-1	n/a	n/a	n/a	n/a	n/a
3632406	RECOG_CONF	n/a	LTP094	ltpFR	16	7	-1	CLAW	319	3	-1	n/a	n/a	n/a	n/a	n/a
3633888	RECOG_LURE	n/a	LTP094	ltpFR	16	7	n/a	TRACTOR	1493	2	n/a	n/a	n/a	n/a	n/a	n/a
3635055	RECOG_RESP	n/a	LTP094	ltpFR	16	7	n/a	TRACTOR	1493	n/a	n/a	n/a	n/a	n/a	n/a	n/a
3635639	RECOG_CONF	n/a	LTP094	ltpFR	16	7	n/a	TRACTOR	1493	2	n/a	n/a	n/a	n/a	n/a	n/a
3637004	RECOG_LURE	n/a	LTP094	ltpFR	16	7	n/a	PLASTER	1085	2	n/a	n/a	n/a	n/a	n/a	n/a
3637948	RECOG_RESP	n/a	LTP094	ltpFR	16	7	n/a	PLASTER	1085	n/a	n/a	n/a	n/a	n/a	n/a	n/a
3638572	RECOG_CONF	n/a	LTP094	ltpFR	16	7	n/a	PLASTER	1085	2	n/a	n/a	n/a	n/a	n/a	n/a
3640038	RECOG_LURE	n/a	LTP094	ltpFR	16	7	n/a	BELT	120	3	n/a	n/a	n/a	n/a	n/a	n/a
3641560	RECOG_RESP	n/a	LTP094	ltpFR	16	7	n/a	BELT	120	n/a	n/a	n/a	n/a	n/a	n/a	n/a
3642174	RECOG_CONF	n/a	LTP094	ltpFR	16	7	n/a	BELT	120	3	n/a	n/a	n/a	n/a	n/a	n/a
3643613	RECOG_TARGET	n/a	LTP094	ltpFR	16	7	1	STADIUM	1364	3	0	n/a	n/a	n/a	n/a	n/a
3644553	RECOG_RESP	n/a	LTP094	ltpFR	16	7	1	STADIUM	1364	n/a	0	n/a	n/a	n/a	n/a	n/a
3645137	RECOG_CONF	n/a	LTP094	ltpFR	16	7	1	STADIUM	1364	3	0	n/a	n/a	n/a	n/a	n/a
3646580	RECOG_TARGET	n/a	LTP094	ltpFR	16	7	-1	ZEBRA	1635	3	-1	n/a	n/a	n/a	n/a	n/a
3647172	RECOG_RESP	n/a	LTP094	ltpFR	16	7	-1	ZEBRA	1635	n/a	-1	n/a	n/a	n/a	n/a	n/a
3647811	RECOG_CONF	n/a	LTP094	ltpFR	16	7	-1	ZEBRA	1635	3	-1	n/a	n/a	n/a	n/a	n/a
3649187	RECOG_LURE	n/a	LTP094	ltpFR	16	7	n/a	STOVE	1388	2	n/a	n/a	n/a	n/a	n/a	n/a
3650350	RECOG_RESP	n/a	LTP094	ltpFR	16	7	n/a	STOVE	1388	n/a	n/a	n/a	n/a	n/a	n/a	n/a
3650924	RECOG_CONF	n/a	LTP094	ltpFR	16	7	n/a	STOVE	1388	2	n/a	n/a	n/a	n/a	n/a	n/a
3652203	RECOG_LURE	n/a	LTP094	ltpFR	16	7	n/a	PORPOISE	1109	3	n/a	n/a	n/a	n/a	n/a	n/a
3653179	RECOG_RESP	n/a	LTP094	ltpFR	16	7	n/a	PORPOISE	1109	n/a	n/a	n/a	n/a	n/a	n/a	n/a
3653847	RECOG_CONF	n/a	LTP094	ltpFR	16	7	n/a	PORPOISE	1109	3	n/a	n/a	n/a	n/a	n/a	n/a
3655111	RECOG_LURE	n/a	LTP094	ltpFR	16	7	n/a	CHAPEL	280	2	n/a	n/a	n/a	n/a	n/a	n/a
3655883	RECOG_RESP	n/a	LTP094	ltpFR	16	7	n/a	CHAPEL	280	n/a	n/a	n/a	n/a	n/a	n/a	n/a
3656461	RECOG_CONF	n/a	LTP094	ltpFR	16	7	n/a	CHAPEL	280	2	n/a	n/a	n/a	n/a	n/a	n/a
3657945	RECOG_TARGET	n/a	LTP094	ltpFR	16	7	0	BRIEFCASE	175	3	0	n/a	n/a	n/a	n/a	n/a
3658716	RECOG_RESP	n/a	LTP094	ltpFR	16	7	0	BRIEFCASE	175	n/a	0	n/a	n/a	n/a	n/a	n/a
3659355	RECOG_CONF	n/a	LTP094	ltpFR	16	7	0	BRIEFCASE	175	3	0	n/a	n/a	n/a	n/a	n/a
3660645	RECOG_TARGET	n/a	LTP094	ltpFR	16	7	0	FENCE	560	3	1	n/a	n/a	n/a	n/a	n/a
3661560	RECOG_RESP	n/a	LTP094	ltpFR	16	7	0	FENCE	560	n/a	1	n/a	n/a	n/a	n/a	n/a
3662228	RECOG_CONF	n/a	LTP094	ltpFR	16	7	0	FENCE	560	3	1	n/a	n/a	n/a	n/a	n/a
3666671	REC_START	n/a	LTP094	ltpFR	16	8	n/a	n/a	n/a	n/a	n/a	n/a	n/a	n/a	n/a	n/a
3666703	RECOG_TARGET	n/a	LTP094	ltpFR	16	8	0	HERB	704	3	0	n/a	n/a	n/a	n/a	n/a
3667723	RECOG_RESP	n/a	LTP094	ltpFR	16	8	0	HERB	704	n/a	0	n/a	n/a	n/a	n/a	n/a
3668322	RECOG_CONF	n/a	LTP094	ltpFR	16	8	0	HERB	704	3	0	n/a	n/a	n/a	n/a	n/a
3669753	RECOG_TARGET	n/a	LTP094	ltpFR	16	8	-1	MONEY	908	3	-1	n/a	n/a	n/a	n/a	n/a
3670452	RECOG_RESP	n/a	LTP094	ltpFR	16	8	-1	MONEY	908	n/a	-1	n/a	n/a	n/a	n/a	n/a
3671116	RECOG_CONF	n/a	LTP094	ltpFR	16	8	-1	MONEY	908	3	-1	n/a	n/a	n/a	n/a	n/a
3672352	RECOG_LURE	n/a	LTP094	ltpFR	16	8	n/a	CHEEK	287	2	n/a	n/a	n/a	n/a	n/a	n/a
3673051	RECOG_RESP	n/a	LTP094	ltpFR	16	8	n/a	CHEEK	287	n/a	n/a	n/a	n/a	n/a	n/a	n/a
3673610	RECOG_CONF	n/a	LTP094	ltpFR	16	8	n/a	CHEEK	287	2	n/a	n/a	n/a	n/a	n/a	n/a
3674943	RECOG_TARGET	n/a	LTP094	ltpFR	16	8	-1	ATMOSPHERE	54	2	-1	n/a	n/a	n/a	n/a	n/a
3675715	RECOG_RESP	n/a	LTP094	ltpFR	16	8	-1	ATMOSPHERE	54	n/a	-1	n/a	n/a	n/a	n/a	n/a
3676294	RECOG_CONF	n/a	LTP094	ltpFR	16	8	-1	ATMOSPHERE	54	2	-1	n/a	n/a	n/a	n/a	n/a
3677694	RECOG_LURE	n/a	LTP094	ltpFR	16	8	n/a	COOKBOOK	373	2	n/a	n/a	n/a	n/a	n/a	n/a
3678873	RECOG_RESP	n/a	LTP094	ltpFR	16	8	n/a	COOKBOOK	373	n/a	n/a	n/a	n/a	n/a	n/a	n/a
3679437	RECOG_CONF	n/a	LTP094	ltpFR	16	8	n/a	COOKBOOK	373	2	n/a	n/a	n/a	n/a	n/a	n/a
3680784	RECOG_TARGET	n/a	LTP094	ltpFR	16	8	0	BELL	118	3	0	n/a	n/a	n/a	n/a	n/a
3681412	RECOG_RESP	n/a	LTP094	ltpFR	16	8	0	BELL	118	n/a	0	n/a	n/a	n/a	n/a	n/a
3682011	RECOG_CONF	n/a	LTP094	ltpFR	16	8	0	BELL	118	3	0	n/a	n/a	n/a	n/a	n/a
3683418	RECOG_TARGET	n/a	LTP094	ltpFR	16	8	0	SHRUB	1299	3	0	n/a	n/a	n/a	n/a	n/a
3684066	RECOG_RESP	n/a	LTP094	ltpFR	16	8	0	SHRUB	1299	n/a	0	n/a	n/a	n/a	n/a	n/a
3684695	RECOG_CONF	n/a	LTP094	ltpFR	16	8	0	SHRUB	1299	3	0	n/a	n/a	n/a	n/a	n/a
3685984	RECOG_TARGET	n/a	LTP094	ltpFR	16	8	0	TOENAIL	1474	3	0	n/a	n/a	n/a	n/a	n/a
3686725	RECOG_RESP	n/a	LTP094	ltpFR	16	8	0	TOENAIL	1474	n/a	0	n/a	n/a	n/a	n/a	n/a
3687369	RECOG_CONF	n/a	LTP094	ltpFR	16	8	0	TOENAIL	1474	3	0	n/a	n/a	n/a	n/a	n/a
3688743	RECOG_TARGET	n/a	LTP094	ltpFR	16	8	0	TIMBER	1469	3	1	n/a	n/a	n/a	n/a	n/a
3689329	RECOG_RESP	n/a	LTP094	ltpFR	16	8	0	TIMBER	1469	n/a	1	n/a	n/a	n/a	n/a	n/a
3689893	RECOG_CONF	n/a	LTP094	ltpFR	16	8	0	TIMBER	1469	3	1	n/a	n/a	n/a	n/a	n/a
3691300	RECOG_LURE	n/a	LTP094	ltpFR	16	8	n/a	SHAMPOO	1274	2	n/a	n/a	n/a	n/a	n/a	n/a
3692123	RECOG_RESP	n/a	LTP094	ltpFR	16	8	n/a	SHAMPOO	1274	n/a	n/a	n/a	n/a	n/a	n/a	n/a
3692717	RECOG_CONF	n/a	LTP094	ltpFR	16	8	n/a	SHAMPOO	1274	2	n/a	n/a	n/a	n/a	n/a	n/a
3694208	RECOG_TARGET	n/a	LTP094	ltpFR	16	8	1	SATURN	1236	2	0	n/a	n/a	n/a	n/a	n/a
3696174	RECOG_RESP	n/a	LTP094	ltpFR	16	8	1	SATURN	1236	n/a	0	n/a	n/a	n/a	n/a	n/a
3696887	RECOG_CONF	n/a	LTP094	ltpFR	16	8	1	SATURN	1236	2	0	n/a	n/a	n/a	n/a	n/a
3698366	RECOG_LURE	n/a	LTP094	ltpFR	16	8	n/a	POWDER	1117	2	n/a	n/a	n/a	n/a	n/a	n/a
3699416	RECOG_RESP	n/a	LTP094	ltpFR	16	8	n/a	POWDER	1117	n/a	n/a	n/a	n/a	n/a	n/a	n/a
3700040	RECOG_CONF	n/a	LTP094	ltpFR	16	8	n/a	POWDER	1117	2	n/a	n/a	n/a	n/a	n/a	n/a
3701316	RECOG_TARGET	n/a	LTP094	ltpFR	16	8	1	CHEST	295	3	1	n/a	n/a	n/a	n/a	n/a
3702025	RECOG_RESP	n/a	LTP094	ltpFR	16	8	1	CHEST	295	n/a	1	n/a	n/a	n/a	n/a	n/a
3702794	RECOG_CONF	n/a	LTP094	ltpFR	16	8	1	CHEST	295	3	1	n/a	n/a	n/a	n/a	n/a
3704241	RECOG_TARGET	n/a	LTP094	ltpFR	16	8	1	SHRIMP	1297	3	1	n/a	n/a	n/a	n/a	n/a
3704889	RECOG_RESP	n/a	LTP094	ltpFR	16	8	1	SHRIMP	1297	n/a	1	n/a	n/a	n/a	n/a	n/a
3705468	RECOG_CONF	n/a	LTP094	ltpFR	16	8	1	SHRIMP	1297	3	1	n/a	n/a	n/a	n/a	n/a
3706949	RECOG_LURE	n/a	LTP094	ltpFR	16	8	n/a	MOTH	920	2	n/a	n/a	n/a	n/a	n/a	n/a
3707792	RECOG_RESP	n/a	LTP094	ltpFR	16	8	n/a	MOTH	920	n/a	n/a	n/a	n/a	n/a	n/a	n/a
3708421	RECOG_CONF	n/a	LTP094	ltpFR	16	8	n/a	MOTH	920	2	n/a	n/a	n/a	n/a	n/a	n/a
3709775	RECOG_TARGET	n/a	LTP094	ltpFR	16	8	1	PASSAGE	1019	2	0	n/a	n/a	n/a	n/a	n/a
3710536	RECOG_RESP	n/a	LTP094	ltpFR	16	8	1	PASSAGE	1019	n/a	0	n/a	n/a	n/a	n/a	n/a
3711125	RECOG_CONF	n/a	LTP094	ltpFR	16	8	1	PASSAGE	1019	2	0	n/a	n/a	n/a	n/a	n/a
3712525	RECOG_LURE	n/a	LTP094	ltpFR	16	8	n/a	BACK	65	2	n/a	n/a	n/a	n/a	n/a	n/a
3713494	RECOG_RESP	n/a	LTP094	ltpFR	16	8	n/a	BACK	65	n/a	n/a	n/a	n/a	n/a	n/a	n/a
3714118	RECOG_CONF	n/a	LTP094	ltpFR	16	8	n/a	BACK	65	2	n/a	n/a	n/a	n/a	n/a	n/a
3715583	RECOG_TARGET	n/a	LTP094	ltpFR	16	8	-1	SWAMP	1416	3	-1	n/a	n/a	n/a	n/a	n/a
3716238	RECOG_RESP	n/a	LTP094	ltpFR	16	8	-1	SWAMP	1416	n/a	-1	n/a	n/a	n/a	n/a	n/a
3716802	RECOG_CONF	n/a	LTP094	ltpFR	16	8	-1	SWAMP	1416	3	-1	n/a	n/a	n/a	n/a	n/a
3718231	RECOG_TARGET	n/a	LTP094	ltpFR	16	8	-1	LEMON	810	3	-1	n/a	n/a	n/a	n/a	n/a
3718882	RECOG_RESP	n/a	LTP094	ltpFR	16	8	-1	LEMON	810	n/a	-1	n/a	n/a	n/a	n/a	n/a
3719446	RECOG_CONF	n/a	LTP094	ltpFR	16	8	-1	LEMON	810	3	-1	n/a	n/a	n/a	n/a	n/a
3720856	RECOG_TARGET	n/a	LTP094	ltpFR	16	8	0	GARAGE	621	3	1	n/a	n/a	n/a	n/a	n/a
3721571	RECOG_RESP	n/a	LTP094	ltpFR	16	8	0	GARAGE	621	n/a	1	n/a	n/a	n/a	n/a	n/a
3722230	RECOG_CONF	n/a	LTP094	ltpFR	16	8	0	GARAGE	621	3	1	n/a	n/a	n/a	n/a	n/a
3731374	REC_START	n/a	LTP094	ltpFR	16	9	n/a	n/a	n/a	n/a	n/a	n/a	n/a	n/a	n/a	n/a
3731414	RECOG_LURE	n/a	LTP094	ltpFR	16	9	n/a	SEAGULL	1261	2	n/a	n/a	n/a	n/a	n/a	n/a
3732426	RECOG_RESP	n/a	LTP094	ltpFR	16	9	n/a	SEAGULL	1261	n/a	n/a	n/a	n/a	n/a	n/a	n/a
3733005	RECOG_CONF	n/a	LTP094	ltpFR	16	9	n/a	SEAGULL	1261	2	n/a	n/a	n/a	n/a	n/a	n/a
3734455	RECOG_LURE	n/a	LTP094	ltpFR	16	9	n/a	DRAWING	494	2	n/a	n/a	n/a	n/a	n/a	n/a
3736248	RECOG_RESP	n/a	LTP094	ltpFR	16	9	n/a	DRAWING	494	n/a	n/a	n/a	n/a	n/a	n/a	n/a
3736876	RECOG_CONF	n/a	LTP094	ltpFR	16	9	n/a	DRAWING	494	2	n/a	n/a	n/a	n/a	n/a	n/a
3738238	RECOG_TARGET	n/a	LTP094	ltpFR	16	9	-1	WALRUS	1585	3	-1	n/a	n/a	n/a	n/a	n/a
3738907	RECOG_RESP	n/a	LTP094	ltpFR	16	9	-1	WALRUS	1585	n/a	-1	n/a	n/a	n/a	n/a	n/a
3739590	RECOG_CONF	n/a	LTP094	ltpFR	16	9	-1	WALRUS	1585	3	-1	n/a	n/a	n/a	n/a	n/a
3740830	RECOG_LURE	n/a	LTP094	ltpFR	16	9	n/a	SAUCER	1237	3	n/a	n/a	n/a	n/a	n/a	n/a
3741665	RECOG_RESP	n/a	LTP094	ltpFR	16	9	n/a	SAUCER	1237	n/a	n/a	n/a	n/a	n/a	n/a	n/a
3742344	RECOG_CONF	n/a	LTP094	ltpFR	16	9	n/a	SAUCER	1237	3	n/a	n/a	n/a	n/a	n/a	n/a
3743672	RECOG_TARGET	n/a	LTP094	ltpFR	16	9	0	KITCHEN	778	2	1	n/a	n/a	n/a	n/a	n/a
3744329	RECOG_RESP	n/a	LTP094	ltpFR	16	9	0	KITCHEN	778	n/a	1	n/a	n/a	n/a	n/a	n/a
3744908	RECOG_CONF	n/a	LTP094	ltpFR	16	9	0	KITCHEN	778	2	1	n/a	n/a	n/a	n/a	n/a
3746138	RECOG_LURE	n/a	LTP094	ltpFR	16	9	n/a	GODDESS	646	2	n/a	n/a	n/a	n/a	n/a	n/a
3746889	RECOG_RESP	n/a	LTP094	ltpFR	16	9	n/a	GODDESS	646	n/a	n/a	n/a	n/a	n/a	n/a	n/a
3747482	RECOG_CONF	n/a	LTP094	ltpFR	16	9	n/a	GODDESS	646	2	n/a	n/a	n/a	n/a	n/a	n/a
3748846	RECOG_LURE	n/a	LTP094	ltpFR	16	9	n/a	BAKER	71	1	n/a	n/a	n/a	n/a	n/a	n/a
3749687	RECOG_RESP	n/a	LTP094	ltpFR	16	9	n/a	BAKER	71	n/a	n/a	n/a	n/a	n/a	n/a	n/a
3750406	RECOG_CONF	n/a	LTP094	ltpFR	16	9	n/a	BAKER	71	1	n/a	n/a	n/a	n/a	n/a	n/a
3751697	RECOG_TARGET	n/a	LTP094	ltpFR	16	9	-1	WAITRESS	1581	3	-1	n/a	n/a	n/a	n/a	n/a
3752566	RECOG_RESP	n/a	LTP094	ltpFR	16	9	-1	WAITRESS	1581	n/a	-1	n/a	n/a	n/a	n/a	n/a
3753389	RECOG_CONF	n/a	LTP094	ltpFR	16	9	-1	WAITRESS	1581	3	-1	n/a	n/a	n/a	n/a	n/a
3754829	RECOG_LURE	n/a	LTP094	ltpFR	16	9	n/a	LIGHTER	819	2	n/a	n/a	n/a	n/a	n/a	n/a
3756148	RECOG_RESP	n/a	LTP094	ltpFR	16	9	n/a	LIGHTER	819	n/a	n/a	n/a	n/a	n/a	n/a	n/a
3756741	RECOG_CONF	n/a	LTP094	ltpFR	16	9	n/a	LIGHTER	819	2	n/a	n/a	n/a	n/a	n/a	n/a
3757962	RECOG_TARGET	n/a	LTP094	ltpFR	16	9	1	PAIL	1002	2	0	n/a	n/a	n/a	n/a	n/a
3758946	RECOG_RESP	n/a	LTP094	ltpFR	16	9	1	PAIL	1002	n/a	0	n/a	n/a	n/a	n/a	n/a
3759605	RECOG_CONF	n/a	LTP094	ltpFR	16	9	1	PAIL	1002	2	0	n/a	n/a	n/a	n/a	n/a
3760953	RECOG_TARGET	n/a	LTP094	ltpFR	16	9	1	FELLOW	558	3	1	n/a	n/a	n/a	n/a	n/a
3761660	RECOG_RESP	n/a	LTP094	ltpFR	16	9	1	FELLOW	558	n/a	1	n/a	n/a	n/a	n/a	n/a
3762308	RECOG_CONF	n/a	LTP094	ltpFR	16	9	1	FELLOW	558	3	1	n/a	n/a	n/a	n/a	n/a
3763737	RECOG_LURE	n/a	LTP094	ltpFR	16	9	n/a	NUT	965	2	n/a	n/a	n/a	n/a	n/a	n/a
3765571	RECOG_RESP	n/a	LTP094	ltpFR	16	9	n/a	NUT	965	n/a	n/a	n/a	n/a	n/a	n/a	n/a
3766309	RECOG_CONF	n/a	LTP094	ltpFR	16	9	n/a	NUT	965	2	n/a	n/a	n/a	n/a	n/a	n/a
3767770	RECOG_LURE	n/a	LTP094	ltpFR	16	9	n/a	FLANNEL	574	2	n/a	n/a	n/a	n/a	n/a	n/a
3769532	RECOG_RESP	n/a	LTP094	ltpFR	16	9	n/a	FLANNEL	574	n/a	n/a	n/a	n/a	n/a	n/a	n/a
