onset	duration	trial_type	sample	stim_file	subject	experiment	session	trial	item_name	item_num	list	answer	test_x	test_y	test_z
221.87	n/a	SESS_START	110935	n/a	LTP296	ltpFR2	12	n/a	n/a	n/a	n/a	n/a	0	0	0
261.986	n/a	START	130993	n/a	LTP296	ltpFR2	12	n/a	n/a	n/a	-1	n/a	n/a	n/a	n/a
262.014	n/a	PROB	131007	n/a	LTP296	ltpFR2	12	n/a	n/a	n/a	-1	12	3	7	1
263.834	n/a	PROB	131917	n/a	LTP296	ltpFR2	12	n/a	n/a	n/a	-1	10	4	4	2
265.018	n/a	PROB	132509	n/a	LTP296	ltpFR2	12	n/a	n/a	n/a	-1	9	6	2	1
265.986	n/a	PROB	132993	n/a	LTP296	ltpFR2	12	n/a	n/a	n/a	-1	16	4	6	6
267.286	n/a	PROB	133643	n/a	LTP296	ltpFR2	12	n/a	n/a	n/a	-1	15	7	7	1
268.17	n/a	PROB	134085	n/a	LTP296	ltpFR2	12	n/a	n/a	n/a	-1	20	6	5	9
269.504	n/a	PROB	134752	n/a	LTP296	ltpFR2	12	n/a	n/a	n/a	-1	14	2	5	7
270.722	n/a	PROB	135361	n/a	LTP296	ltpFR2	12	n/a	n/a	n/a	-1	18	1	8	9
273.984	n/a	STOP	136992	n/a	LTP296	ltpFR2	12	n/a	n/a	n/a	-1	n/a	n/a	n/a	n/a
308.952	n/a	DISTRACTOR	154476	n/a	LTP296	ltpFR2	12	1	n/a	n/a	n/a	n/a	0	0	0
308.954	n/a	START	154477	n/a	LTP296	ltpFR2	12	n/a	n/a	n/a	1	n/a	n/a	n/a	n/a
308.968	n/a	PROB	154484	n/a	LTP296	ltpFR2	12	n/a	n/a	n/a	1	12	5	2	5
310.052	n/a	PROB	155026	n/a	LTP296	ltpFR2	12	n/a	n/a	n/a	1	16	7	3	6
312.07	n/a	PROB	156035	n/a	LTP296	ltpFR2	12	n/a	n/a	n/a	1	16	9	5	4
313.456	n/a	PROB	156728	n/a	LTP296	ltpFR2	12	n/a	n/a	n/a	1	17	5	7	5
315.124	n/a	PROB	157562	n/a	LTP296	ltpFR2	12	n/a	n/a	n/a	1	21	6	9	6
317.342	n/a	PROB	158671	n/a	LTP296	ltpFR2	12	n/a	n/a	n/a	1	12	2	5	1
318.41	n/a	PROB	159205	n/a	LTP296	ltpFR2	12	n/a	n/a	n/a	1	17	5	3	9
319.91	n/a	PROB	159955	n/a	LTP296	ltpFR2	12	n/a	n/a	n/a	1	18	8	8	2
321.312	n/a	PROB	160656	n/a	LTP296	ltpFR2	12	n/a	n/a	n/a	1	17	3	8	6
323.412	n/a	PROB	161706	n/a	LTP296	ltpFR2	12	n/a	n/a	n/a	1	200	2	9	9
324.764	n/a	PROB	162382	n/a	LTP296	ltpFR2	12	n/a	n/a	n/a	1	12	3	5	4
326.066	n/a	PROB	163033	n/a	LTP296	ltpFR2	12	n/a	n/a	n/a	1	20	9	7	4
327.75	n/a	PROB	163875	n/a	LTP296	ltpFR2	12	n/a	n/a	n/a	1	15	4	9	2
329.302	n/a	PROB	164651	n/a	LTP296	ltpFR2	12	n/a	n/a	n/a	1	11	3	2	6
330.552	n/a	PROB	165276	n/a	LTP296	ltpFR2	12	n/a	n/a	n/a	1	14	7	5	3
331.744	n/a	STOP	165872	n/a	LTP296	ltpFR2	12	n/a	n/a	n/a	1	n/a	n/a	n/a	n/a
334.09	n/a	WORD	167045	wordpools/wasnorm_wordpool_576.txt	LTP296	ltpFR2	12	1	SADDLE	1221	n/a	n/a	0	0	0
336.758	n/a	WORD	168379	wordpools/wasnorm_wordpool_576.txt	LTP296	ltpFR2	12	1	TRACTOR	1493	n/a	n/a	0	0	0
339.382	n/a	WORD	169691	wordpools/wasnorm_wordpool_576.txt	LTP296	ltpFR2	12	1	ARMY	39	n/a	n/a	0	0	0
342.012	n/a	WORD	171006	wordpools/wasnorm_wordpool_576.txt	LTP296	ltpFR2	12	1	DRINK	498	n/a	n/a	0	0	0
344.702	n/a	WORD	172351	wordpools/wasnorm_wordpool_576.txt	LTP296	ltpFR2	12	1	COCKTAIL	338	n/a	n/a	0	0	0
347.366	n/a	WORD	173683	wordpools/wasnorm_wordpool_576.txt	LTP296	ltpFR2	12	1	SPARROW	1347	n/a	n/a	0	0	0
350.174	n/a	WORD	175087	wordpools/wasnorm_wordpool_576.txt	LTP296	ltpFR2	12	1	DRUG	501	n/a	n/a	0	0	0
352.792	n/a	WORD	176396	wordpools/wasnorm_wordpool_576.txt	LTP296	ltpFR2	12	1	OINTMENT	974	n/a	n/a	0	0	0
355.29	n/a	WORD	177645	wordpools/wasnorm_wordpool_576.txt	LTP296	ltpFR2	12	1	BRANCH	168	n/a	n/a	0	0	0
357.756	n/a	WORD	178878	wordpools/wasnorm_wordpool_576.txt	LTP296	ltpFR2	12	1	STOVE	1388	n/a	n/a	0	0	0
360.41	n/a	WORD	180205	wordpools/wasnorm_wordpool_576.txt	LTP296	ltpFR2	12	1	EMPIRE	530	n/a	n/a	0	0	0
363.078	n/a	WORD	181539	wordpools/wasnorm_wordpool_576.txt	LTP296	ltpFR2	12	1	SERVANT	1271	n/a	n/a	0	0	0
365.77	n/a	WORD	182885	wordpools/wasnorm_wordpool_576.txt	LTP296	ltpFR2	12	1	HEDGE	699	n/a	n/a	0	0	0
368.3	n/a	WORD	184150	wordpools/wasnorm_wordpool_576.txt	LTP296	ltpFR2	12	1	PORTRAIT	1111	n/a	n/a	0	0	0
370.96	n/a	WORD	185480	wordpools/wasnorm_wordpool_576.txt	LTP296	ltpFR2	12	1	PICTURE	1061	n/a	n/a	0	0	0
373.694	n/a	WORD	186847	wordpools/wasnorm_wordpool_576.txt	LTP296	ltpFR2	12	1	HOUND	724	n/a	n/a	0	0	0
376.222	n/a	WORD	188111	wordpools/wasnorm_wordpool_576.txt	LTP296	ltpFR2	12	1	TWIG	1527	n/a	n/a	0	0	0
378.892	n/a	WORD	189446	wordpools/wasnorm_wordpool_576.txt	LTP296	ltpFR2	12	1	SNAIL	1332	n/a	n/a	0	0	0
381.434	n/a	WORD	190717	wordpools/wasnorm_wordpool_576.txt	LTP296	ltpFR2	12	1	SKETCH	1315	n/a	n/a	0	0	0
384.236	n/a	WORD	192118	wordpools/wasnorm_wordpool_576.txt	LTP296	ltpFR2	12	1	PLUTO	1092	n/a	n/a	0	0	0
386.754	n/a	WORD	193377	wordpools/wasnorm_wordpool_576.txt	LTP296	ltpFR2	12	1	DORM	488	n/a	n/a	0	0	0
389.282	n/a	WORD	194641	wordpools/wasnorm_wordpool_576.txt	LTP296	ltpFR2	12	1	LODGE	839	n/a	n/a	0	0	0
391.724	n/a	WORD	195862	wordpools/wasnorm_wordpool_576.txt	LTP296	ltpFR2	12	1	HANDBAG	684	n/a	n/a	0	0	0
394.336	n/a	WORD	197168	wordpools/wasnorm_wordpool_576.txt	LTP296	ltpFR2	12	1	COOKBOOK	373	n/a	n/a	0	0	0
395.946	n/a	START	197973	n/a	LTP296	ltpFR2	12	n/a	n/a	n/a	2	n/a	n/a	n/a	n/a
396.912	n/a	DISTRACTOR	198456	n/a	LTP296	ltpFR2	12	1	n/a	n/a	n/a	n/a	0	0	0
396.922	n/a	PROB	198461	n/a	LTP296	ltpFR2	12	n/a	n/a	n/a	2	22	7	7	8
399.774	n/a	PROB	199887	n/a	LTP296	ltpFR2	12	n/a	n/a	n/a	2	8	1	4	3
400.89	n/a	PROB	200445	n/a	LTP296	ltpFR2	12	n/a	n/a	n/a	2	12	7	2	2
402.258	n/a	PROB	201129	n/a	LTP296	ltpFR2	12	n/a	n/a	n/a	2	10	4	2	4
404.144	n/a	PROB	202072	n/a	LTP296	ltpFR2	12	n/a	n/a	n/a	2	9	4	4	1
405.178	n/a	PROB	202589	n/a	LTP296	ltpFR2	12	n/a	n/a	n/a	2	8	2	3	3
406.346	n/a	PROB	203173	n/a	LTP296	ltpFR2	12	n/a	n/a	n/a	2	9	1	1	7
407.478	n/a	PROB	203739	n/a	LTP296	ltpFR2	12	n/a	n/a	n/a	2	15	6	2	7
408.844	n/a	PROB	204422	n/a	LTP296	ltpFR2	12	n/a	n/a	n/a	2	16	7	8	1
409.93	n/a	PROB	204965	n/a	LTP296	ltpFR2	12	n/a	n/a	n/a	2	13	6	5	2
411.348	n/a	PROB	205674	n/a	LTP296	ltpFR2	12	n/a	n/a	n/a	2	11	8	2	1
412.416	n/a	PROB	206208	n/a	LTP296	ltpFR2	12	n/a	n/a	n/a	2	15	5	5	5
413.35	n/a	PROB	206675	n/a	LTP296	ltpFR2	12	n/a	n/a	n/a	2	12	5	2	5
414.884	n/a	PROB	207442	n/a	LTP296	ltpFR2	12	n/a	n/a	n/a	2	17	3	5	9
416.102	n/a	PROB	208051	n/a	LTP296	ltpFR2	12	n/a	n/a	n/a	2	10	3	4	3
417.786	n/a	PROB	208893	n/a	LTP296	ltpFR2	12	n/a	n/a	n/a	2	15	1	5	9
419.324	n/a	STOP	209662	n/a	LTP296	ltpFR2	12	n/a	n/a	n/a	2	n/a	n/a	n/a	n/a
421.79	n/a	REC_START	210895	n/a	LTP296	ltpFR2	12	1	n/a	n/a	n/a	n/a	0	0	0
422.404	n/a	REC_WORD	211202	wordpools/wasnorm_wordpool_576.txt	LTP296	ltpFR2	12	1	SADDLE	1221	n/a	n/a	0	0	0
423.566	n/a	REC_WORD	211783	wordpools/wasnorm_wordpool_576.txt	LTP296	ltpFR2	12	1	TRACTOR	1493	n/a	n/a	0	0	0
424.51	n/a	REC_WORD	212255	wordpools/wasnorm_wordpool_576.txt	LTP296	ltpFR2	12	1	STOVE	1388	n/a	n/a	0	0	0
425.744	n/a	REC_WORD	212872	wordpools/wasnorm_wordpool_576.txt	LTP296	ltpFR2	12	1	OINTMENT	974	n/a	n/a	0	0	0
426.864	n/a	REC_WORD	213432	wordpools/wasnorm_wordpool_576.txt	LTP296	ltpFR2	12	1	BRANCH	168	n/a	n/a	0	0	0
427.934	n/a	REC_WORD	213967	wordpools/wasnorm_wordpool_576.txt	LTP296	ltpFR2	12	1	PICTURE	1061	n/a	n/a	0	0	0
428.972	n/a	REC_WORD	214486	wordpools/wasnorm_wordpool_576.txt	LTP296	ltpFR2	12	1	PORTRAIT	1111	n/a	n/a	0	0	0
430.036	n/a	REC_WORD	215018	wordpools/wasnorm_wordpool_576.txt	LTP296	ltpFR2	12	1	HOUND	724	n/a	n/a	0	0	0
471.2	n/a	REC_WORD	235600	wordpools/wasnorm_wordpool_576.txt	LTP296	ltpFR2	12	1	DRINK	498	n/a	n/a	0	0	0
490.486	n/a	REC_WORD	245243	wordpools/wasnorm_wordpool_576.txt	LTP296	ltpFR2	12	1	ARMY	39	n/a	n/a	0	0	0
512.262	n/a	WORD	256131	wordpools/wasnorm_wordpool_576.txt	LTP296	ltpFR2	12	2	AIRPLANE	12	n/a	n/a	0	0	0
515.062	n/a	WORD	257531	wordpools/wasnorm_wordpool_576.txt	LTP296	ltpFR2	12	2	BUTCHER	203	n/a	n/a	0	0	0
517.598	n/a	WORD	258799	wordpools/wasnorm_wordpool_576.txt	LTP296	ltpFR2	12	2	MASK	876	n/a	n/a	0	0	0
520.15	n/a	WORD	260075	wordpools/wasnorm_wordpool_576.txt	LTP296	ltpFR2	12	2	WHISKERS	1605	n/a	n/a	0	0	0
522.736	n/a	WORD	261368	wordpools/wasnorm_wordpool_576.txt	LTP296	ltpFR2	12	2	LOFT	840	n/a	n/a	0	0	0
525.206	n/a	WORD	262603	wordpools/wasnorm_wordpool_576.txt	LTP296	ltpFR2	12	2	DENIM	446	n/a	n/a	0	0	0
527.756	n/a	WORD	263878	wordpools/wasnorm_wordpool_576.txt	LTP296	ltpFR2	12	2	SCOTCH	1251	n/a	n/a	0	0	0
530.226	n/a	WORD	265113	wordpools/wasnorm_wordpool_576.txt	LTP296	ltpFR2	12	2	CANAL	226	n/a	n/a	0	0	0
532.76	n/a	WORD	266380	wordpools/wasnorm_wordpool_576.txt	LTP296	ltpFR2	12	2	LEADER	807	n/a	n/a	0	0	0
535.314	n/a	WORD	267657	wordpools/wasnorm_wordpool_576.txt	LTP296	ltpFR2	12	2	ROCKET	1202	n/a	n/a	0	0	0
538.016	n/a	WORD	269008	wordpools/wasnorm_wordpool_576.txt	LTP296	ltpFR2	12	2	ZEBRA	1635	n/a	n/a	0	0	0
540.666	n/a	WORD	270333	wordpools/wasnorm_wordpool_576.txt	LTP296	ltpFR2	12	2	STALLION	1369	n/a	n/a	0	0	0
543.202	n/a	WORD	271601	wordpools/wasnorm_wordpool_576.txt	LTP296	ltpFR2	12	2	CHAPEL	280	n/a	n/a	0	0	0
546.006	n/a	WORD	273003	wordpools/wasnorm_wordpool_576.txt	LTP296	ltpFR2	12	2	POSSUM	1112	n/a	n/a	0	0	0
548.758	n/a	WORD	274379	wordpools/wasnorm_wordpool_576.txt	LTP296	ltpFR2	12	2	POSTAGE	1113	n/a	n/a	0	0	0
551.426	n/a	WORD	275713	wordpools/wasnorm_wordpool_576.txt	LTP296	ltpFR2	12	2	PACKAGE	997	n/a	n/a	0	0	0
553.876	n/a	WORD	276938	wordpools/wasnorm_wordpool_576.txt	LTP296	ltpFR2	12	2	CROSS	413	n/a	n/a	0	0	0
556.696	n/a	WORD	278348	wordpools/wasnorm_wordpool_576.txt	LTP296	ltpFR2	12	2	DRAGON	492	n/a	n/a	0	0	0
559.496	n/a	WORD	279748	wordpools/wasnorm_wordpool_576.txt	LTP296	ltpFR2	12	2	SLIDE	1326	n/a	n/a	0	0	0
562.066	n/a	WORD	281033	wordpools/wasnorm_wordpool_576.txt	LTP296	ltpFR2	12	2	VICTIM	1562	n/a	n/a	0	0	0
564.72	n/a	WORD	282360	wordpools/wasnorm_wordpool_576.txt	LTP296	ltpFR2	12	2	WAITRESS	1581	n/a	n/a	0	0	0
567.292	n/a	WORD	283646	wordpools/wasnorm_wordpool_576.txt	LTP296	ltpFR2	12	2	AIRPORT	13	n/a	n/a	0	0	0
569.774	n/a	WORD	284887	wordpools/wasnorm_wordpool_576.txt	LTP296	ltpFR2	12	2	PAIL	1002	n/a	n/a	0	0	0
572.408	n/a	WORD	286204	wordpools/wasnorm_wordpool_576.txt	LTP296	ltpFR2	12	2	BALLOON	75	n/a	n/a	0	0	0
574.014	n/a	START	287007	n/a	LTP296	ltpFR2	12	n/a	n/a	n/a	3	n/a	n/a	n/a	n/a
575.052	n/a	DISTRACTOR	287526	n/a	LTP296	ltpFR2	12	2	n/a	n/a	n/a	n/a	0	0	0
575.06	n/a	PROB	287530	n/a	LTP296	ltpFR2	12	n/a	n/a	n/a	3	16	1	6	9
577.896	n/a	PROB	288948	n/a	LTP296	ltpFR2	12	n/a	n/a	n/a	3	23	8	6	9
579.614	n/a	PROB	289807	n/a	LTP296	ltpFR2	12	n/a	n/a	n/a	3	16	2	8	6
581.198	n/a	PROB	290599	n/a	LTP296	ltpFR2	12	n/a	n/a	n/a	3	8	1	2	5
582.166	n/a	PROB	291083	n/a	LTP296	ltpFR2	12	n/a	n/a	n/a	3	13	3	6	4
583.9	n/a	PROB	291950	n/a	LTP296	ltpFR2	12	n/a	n/a	n/a	3	15	3	7	5
584.832	n/a	PROB	292416	n/a	LTP296	ltpFR2	12	n/a	n/a	n/a	3	16	5	4	7
586.534	n/a	PROB	293267	n/a	LTP296	ltpFR2	12	n/a	n/a	n/a	3	11	3	1	7
588.438	n/a	PROB	294219	n/a	LTP296	ltpFR2	12	n/a	n/a	n/a	3	25	8	9	8
590.306	n/a	PROB	295153	n/a	LTP296	ltpFR2	12	n/a	n/a	n/a	3	9	1	2	6
591.588	n/a	PROB	295794	n/a	LTP296	ltpFR2	12	n/a	n/a	n/a	3	18	7	2	9
593.256	n/a	PROB	296628	n/a	LTP296	ltpFR2	12	n/a	n/a	n/a	3	23	9	8	6
594.824	n/a	PROB	297412	n/a	LTP296	ltpFR2	12	n/a	n/a	n/a	3	6	1	2	3
598.014	n/a	STOP	299007	n/a	LTP296	ltpFR2	12	n/a	n/a	n/a	3	n/a	n/a	n/a	n/a
599.88	n/a	REC_START	299940	n/a	LTP296	ltpFR2	12	2	n/a	n/a	n/a	n/a	0	0	0
600.746	n/a	REC_WORD	300373	wordpools/wasnorm_wordpool_576.txt	LTP296	ltpFR2	12	2	ZEBRA	1635	n/a	n/a	0	0	0
601.22	n/a	REC_WORD	300610	wordpools/wasnorm_wordpool_576.txt	LTP296	ltpFR2	12	2	WHISKERS	1605	n/a	n/a	0	0	0
602.286	n/a	REC_WORD	301143	wordpools/wasnorm_wordpool_576.txt	LTP296	ltpFR2	12	2	STALLION	1369	n/a	n/a	0	0	0
603.198	n/a	REC_WORD	301599	wordpools/wasnorm_wordpool_576.txt	LTP296	ltpFR2	12	2	POSSUM	1112	n/a	n/a	0	0	0
604.13	n/a	REC_WORD	302065	wordpools/wasnorm_wordpool_576.txt	LTP296	ltpFR2	12	2	DRAGON	492	n/a	n/a	0	0	0
605.278	n/a	REC_WORD	302639	wordpools/wasnorm_wordpool_576.txt	LTP296	ltpFR2	12	2	VICTIM	1562	n/a	n/a	0	0	0
606.26	n/a	REC_WORD	303130	wordpools/wasnorm_wordpool_576.txt	LTP296	ltpFR2	12	2	WAITRESS	1581	n/a	n/a	0	0	0
606.954	n/a	REC_WORD	303477	wordpools/wasnorm_wordpool_576.txt	LTP296	ltpFR2	12	2	LOFT	840	n/a	n/a	0	0	0
607.81	n/a	REC_WORD	303905	wordpools/wasnorm_wordpool_576.txt	LTP296	ltpFR2	12	2	SCOTCH	1251	n/a	n/a	0	0	0
608.81	n/a	REC_WORD_VV	304405	wordpools/wasnorm_wordpool_576.txt	LTP296	ltpFR2	12	2	<>	-1	n/a	n/a	0	0	0
609.174	n/a	REC_WORD	304587	wordpools/wasnorm_wordpool_576.txt	LTP296	ltpFR2	12	2	AIRPLANE	12	n/a	n/a	0	0	0
611.144	n/a	REC_WORD	305572	wordpools/wasnorm_wordpool_576.txt	LTP296	ltpFR2	12	2	AIRPORT	13	n/a	n/a	0	0	0
626.81	n/a	REC_WORD	313405	wordpools/wasnorm_wordpool_576.txt	LTP296	ltpFR2	12	2	CANAL	226	n/a	n/a	0	0	0
639.732	n/a	REC_WORD_VV	319866	wordpools/wasnorm_wordpool_576.txt	LTP296	ltpFR2	12	2	<>	-1	n/a	n/a	0	0	0
690.316	n/a	WORD	345158	wordpools/wasnorm_wordpool_576.txt	LTP296	ltpFR2	12	3	CLOTHES	327	n/a	n/a	0	0	0
692.998	n/a	WORD	346499	wordpools/wasnorm_wordpool_576.txt	LTP296	ltpFR2	12	3	JUNGLE	764	n/a	n/a	0	0	0
695.57	n/a	WORD	347785	wordpools/wasnorm_wordpool_576.txt	LTP296	ltpFR2	12	3	STATUE	1374	n/a	n/a	0	0	0
698.156	n/a	WORD	349078	wordpools/wasnorm_wordpool_576.txt	LTP296	ltpFR2	12	3	WASHER	1592	n/a	n/a	0	0	0
700.872	n/a	WORD	350436	wordpools/wasnorm_wordpool_576.txt	LTP296	ltpFR2	12	3	FEMALE	559	n/a	n/a	0	0	0
703.324	n/a	WORD	351662	wordpools/wasnorm_wordpool_576.txt	LTP296	ltpFR2	12	3	COUNTY	389	n/a	n/a	0	0	0
705.91	n/a	WORD	352955	wordpools/wasnorm_wordpool_576.txt	LTP296	ltpFR2	12	3	VAGRANT	1544	n/a	n/a	0	0	0
708.694	n/a	WORD	354347	wordpools/wasnorm_wordpool_576.txt	LTP296	ltpFR2	12	3	DOLPHIN	483	n/a	n/a	0	0	0
711.234	n/a	WORD	355617	wordpools/wasnorm_wordpool_576.txt	LTP296	ltpFR2	12	3	HONEY	713	n/a	n/a	0	0	0
713.866	n/a	WORD	356933	wordpools/wasnorm_wordpool_576.txt	LTP296	ltpFR2	12	3	VIRUS	1572	n/a	n/a	0	0	0
716.52	n/a	WORD	358260	wordpools/wasnorm_wordpool_576.txt	LTP296	ltpFR2	12	3	SALMON	1227	n/a	n/a	0	0	0
719.22	n/a	WORD	359610	wordpools/wasnorm_wordpool_576.txt	LTP296	ltpFR2	12	3	SCALLOP	1242	n/a	n/a	0	0	0
721.67	n/a	WORD	360835	wordpools/wasnorm_wordpool_576.txt	LTP296	ltpFR2	12	3	PADDING	999	n/a	n/a	0	0	0
724.124	n/a	WORD	362062	wordpools/wasnorm_wordpool_576.txt	LTP296	ltpFR2	12	3	BRIEFCASE	175	n/a	n/a	0	0	0
726.758	n/a	WORD	363379	wordpools/wasnorm_wordpool_576.txt	LTP296	ltpFR2	12	3	WARDROBE	1587	n/a	n/a	0	0	0
729.444	n/a	WORD	364722	wordpools/wasnorm_wordpool_576.txt	LTP296	ltpFR2	12	3	SISTER	1312	n/a	n/a	0	0	0
732.25	n/a	WORD	366125	wordpools/wasnorm_wordpool_576.txt	LTP296	ltpFR2	12	3	PUDDING	1139	n/a	n/a	0	0	0
734.852	n/a	WORD	367426	wordpools/wasnorm_wordpool_576.txt	LTP296	ltpFR2	12	3	FUNGUS	614	n/a	n/a	0	0	0
737.302	n/a	WORD	368651	wordpools/wasnorm_wordpool_576.txt	LTP296	ltpFR2	12	3	SURVEY	1414	n/a	n/a	0	0	0
740.038	n/a	WORD	370019	wordpools/wasnorm_wordpool_576.txt	LTP296	ltpFR2	12	3	LOVER	846	n/a	n/a	0	0	0
742.706	n/a	WORD	371353	wordpools/wasnorm_wordpool_576.txt	LTP296	ltpFR2	12	3	PILOT	1070	n/a	n/a	0	0	0
745.492	n/a	WORD	372746	wordpools/wasnorm_wordpool_576.txt	LTP296	ltpFR2	12	3	DAISY	435	n/a	n/a	0	0	0
748.13	n/a	WORD	374065	wordpools/wasnorm_wordpool_576.txt	LTP296	ltpFR2	12	3	BANKER	84	n/a	n/a	0	0	0
750.73	n/a	WORD	375365	wordpools/wasnorm_wordpool_576.txt	LTP296	ltpFR2	12	3	MONEY	908	n/a	n/a	0	0	0
752.35	n/a	START	376175	n/a	LTP296	ltpFR2	12	n/a	n/a	n/a	4	n/a	n/a	n/a	n/a
753.296	n/a	DISTRACTOR	376648	n/a	LTP296	ltpFR2	12	3	n/a	n/a	n/a	n/a	0	0	0
753.316	n/a	PROB	376658	n/a	LTP296	ltpFR2	12	n/a	n/a	n/a	4	16	9	2	5
755.034	n/a	PROB	377517	n/a	LTP296	ltpFR2	12	n/a	n/a	n/a	4	21	8	8	5
756.384	n/a	PROB	378192	n/a	LTP296	ltpFR2	12	n/a	n/a	n/a	4	13	2	2	9
757.586	n/a	PROB	378793	n/a	LTP296	ltpFR2	12	n/a	n/a	n/a	4	20	7	8	5
759.036	n/a	PROB	379518	n/a	LTP296	ltpFR2	12	n/a	n/a	n/a	4	16	6	3	7
760.338	n/a	PROB	380169	n/a	LTP296	ltpFR2	12	n/a	n/a	n/a	4	26	9	9	8
761.638	n/a	PROB	380819	n/a	LTP296	ltpFR2	12	n/a	n/a	n/a	4	12	1	4	7
762.988	n/a	PROB	381494	n/a	LTP296	ltpFR2	12	n/a	n/a	n/a	4	6	1	3	2
763.89	n/a	PROB	381945	n/a	LTP296	ltpFR2	12	n/a	n/a	n/a	4	22	7	8	7
767.092	n/a	PROB	383546	n/a	LTP296	ltpFR2	12	n/a	n/a	n/a	4	12	4	7	1
768.81	n/a	PROB	384405	n/a	LTP296	ltpFR2	12	n/a	n/a	n/a	4	7	1	3	3
770.262	n/a	PROB	385131	n/a	LTP296	ltpFR2	12	n/a	n/a	n/a	4	16	7	8	1
771.244	n/a	PROB	385622	n/a	LTP296	ltpFR2	12	n/a	n/a	n/a	4	14	4	8	2
772.446	n/a	PROB	386223	n/a	LTP296	ltpFR2	12	n/a	n/a	n/a	4	17	5	5	7
773.83	n/a	PROB	386915	n/a	LTP296	ltpFR2	12	n/a	n/a	n/a	4	9	1	2	6
775.026	n/a	STOP	387513	n/a	LTP296	ltpFR2	12	n/a	n/a	n/a	4	n/a	n/a	n/a	n/a
778.202	n/a	REC_START	389101	n/a	LTP296	ltpFR2	12	3	n/a	n/a	n/a	n/a	0	0	0
778.548	n/a	REC_WORD	389274	wordpools/wasnorm_wordpool_576.txt	LTP296	ltpFR2	12	3	DOLPHIN	483	n/a	n/a	0	0	0
779.296	n/a	REC_WORD	389648	wordpools/wasnorm_wordpool_576.txt	LTP296	ltpFR2	12	3	HONEY	713	n/a	n/a	0	0	0
779.688	n/a	REC_WORD	389844	wordpools/wasnorm_wordpool_576.txt	LTP296	ltpFR2	12	3	SALMON	1227	n/a	n/a	0	0	0
780.594	n/a	REC_WORD	390297	wordpools/wasnorm_wordpool_576.txt	LTP296	ltpFR2	12	3	SCALLOP	1242	n/a	n/a	0	0	0
781.564	n/a	REC_WORD	390782	wordpools/wasnorm_wordpool_576.txt	LTP296	ltpFR2	12	3	PUDDING	1139	n/a	n/a	0	0	0
782.648	n/a	REC_WORD	391324	wordpools/wasnorm_wordpool_576.txt	LTP296	ltpFR2	12	3	VIRUS	1572	n/a	n/a	0	0	0
783.4	n/a	REC_WORD	391700	wordpools/wasnorm_wordpool_576.txt	LTP296	ltpFR2	12	3	VAGRANT	1544	n/a	n/a	0	0	0
784.842	n/a	REC_WORD	392421	wordpools/wasnorm_wordpool_576.txt	LTP296	ltpFR2	12	3	FEMALE	559	n/a	n/a	0	0	0
786.978	n/a	REC_WORD	393489	wordpools/wasnorm_wordpool_576.txt	LTP296	ltpFR2	12	3	SISTER	1312	n/a	n/a	0	0	0
796.12	n/a	REC_WORD	398060	wordpools/wasnorm_wordpool_576.txt	LTP296	ltpFR2	12	3	PILOT	1070	n/a	n/a	0	0	0
816.366	n/a	REC_WORD	408183	wordpools/wasnorm_wordpool_576.txt	LTP296	ltpFR2	12	3	CLOTHES	327	n/a	n/a	0	0	0
821.69	n/a	REC_WORD	410845	wordpools/wasnorm_wordpool_576.txt	LTP296	ltpFR2	12	3	JUNGLE	764	n/a	n/a	0	0	0
832.164	n/a	REC_WORD	416082	wordpools/wasnorm_wordpool_576.txt	LTP296	ltpFR2	12	3	MONEY	908	n/a	n/a	0	0	0
835.898	n/a	REC_WORD_VV	417949	wordpools/wasnorm_wordpool_576.txt	LTP296	ltpFR2	12	3	<>	-1	n/a	n/a	0	0	0
838.518	n/a	REC_WORD	419259	wordpools/wasnorm_wordpool_576.txt	LTP296	ltpFR2	12	3	BANKER	84	n/a	n/a	0	0	0
868.638	n/a	WORD	434319	wordpools/wasnorm_wordpool_576.txt	LTP296	ltpFR2	12	4	LIZARD	834	n/a	n/a	0	0	0
871.226	n/a	WORD	435613	wordpools/wasnorm_wordpool_576.txt	LTP296	ltpFR2	12	4	DRIVER	499	n/a	n/a	0	0	0
874.028	n/a	WORD	437014	wordpools/wasnorm_wordpool_576.txt	LTP296	ltpFR2	12	4	PUPPY	1144	n/a	n/a	0	0	0
876.686	n/a	WORD	438343	wordpools/wasnorm_wordpool_576.txt	LTP296	ltpFR2	12	4	HARP	689	n/a	n/a	0	0	0
879.24	n/a	WORD	439620	wordpools/wasnorm_wordpool_576.txt	LTP296	ltpFR2	12	4	BUCKET	184	n/a	n/a	0	0	0
881.992	n/a	WORD	440996	wordpools/wasnorm_wordpool_576.txt	LTP296	ltpFR2	12	4	FIREMAN	569	n/a	n/a	0	0	0
884.452	n/a	WORD	442226	wordpools/wasnorm_wordpool_576.txt	LTP296	ltpFR2	12	4	POLICE	1098	n/a	n/a	0	0	0
887.012	n/a	WORD	443506	wordpools/wasnorm_wordpool_576.txt	LTP296	ltpFR2	12	4	LEOPARD	812	n/a	n/a	0	0	0
889.614	n/a	WORD	444807	wordpools/wasnorm_wordpool_576.txt	LTP296	ltpFR2	12	4	BEAVER	109	n/a	n/a	0	0	0
892.242	n/a	WORD	446121	wordpools/wasnorm_wordpool_576.txt	LTP296	ltpFR2	12	4	BANQUET	86	n/a	n/a	0	0	0
894.726	n/a	WORD	447363	wordpools/wasnorm_wordpool_576.txt	LTP296	ltpFR2	12	4	KITCHEN	778	n/a	n/a	0	0	0
897.496	n/a	WORD	448748	wordpools/wasnorm_wordpool_576.txt	LTP296	ltpFR2	12	4	FRECKLE	602	n/a	n/a	0	0	0
900.08	n/a	WORD	450040	wordpools/wasnorm_wordpool_576.txt	LTP296	ltpFR2	12	4	RAZOR	1171	n/a	n/a	0	0	0
902.698	n/a	WORD	451349	wordpools/wasnorm_wordpool_576.txt	LTP296	ltpFR2	12	4	CHEST	295	n/a	n/a	0	0	0
905.178	n/a	WORD	452589	wordpools/wasnorm_wordpool_576.txt	LTP296	ltpFR2	12	4	SUITCASE	1403	n/a	n/a	0	0	0
907.696	n/a	WORD	453848	wordpools/wasnorm_wordpool_576.txt	LTP296	ltpFR2	12	4	SCARF	1246	n/a	n/a	0	0	0
910.166	n/a	WORD	455083	wordpools/wasnorm_wordpool_576.txt	LTP296	ltpFR2	12	4	STOMACH	1384	n/a	n/a	0	0	0
912.782	n/a	WORD	456391	wordpools/wasnorm_wordpool_576.txt	LTP296	ltpFR2	12	4	BELLY	119	n/a	n/a	0	0	0
915.454	n/a	WORD	457727	wordpools/wasnorm_wordpool_576.txt	LTP296	ltpFR2	12	4	LUGGAGE	847	n/a	n/a	0	0	0
917.872	n/a	WORD	458936	wordpools/wasnorm_wordpool_576.txt	LTP296	ltpFR2	12	4	CUPBOARD	425	n/a	n/a	0	0	0
920.508	n/a	WORD	460254	wordpools/wasnorm_wordpool_576.txt	LTP296	ltpFR2	12	4	SPOON	1357	n/a	n/a	0	0	0
922.998	n/a	WORD	461499	wordpools/wasnorm_wordpool_576.txt	LTP296	ltpFR2	12	4	XEROX	1628	n/a	n/a	0	0	0
925.8	n/a	WORD	462900	wordpools/wasnorm_wordpool_576.txt	LTP296	ltpFR2	12	4	MAMMAL	861	n/a	n/a	0	0	0
928.598	n/a	WORD	464299	wordpools/wasnorm_wordpool_576.txt	LTP296	ltpFR2	12	4	TROUT	1511	n/a	n/a	0	0	0
930.206	n/a	START	465103	n/a	LTP296	ltpFR2	12	n/a	n/a	n/a	5	n/a	n/a	n/a	n/a
931.194	n/a	DISTRACTOR	465597	n/a	LTP296	ltpFR2	12	4	n/a	n/a	n/a	n/a	0	0	0
931.2	n/a	PROB	465600	n/a	LTP296	ltpFR2	12	n/a	n/a	n/a	5	23	8	6	7
934.422	n/a	PROB	467211	n/a	LTP296	ltpFR2	12	n/a	n/a	n/a	5	13	2	8	3
935.49	n/a	PROB	467745	n/a	LTP296	ltpFR2	12	n/a	n/a	n/a	5	16	7	3	6
936.442	n/a	PROB	468221	n/a	LTP296	ltpFR2	12	n/a	n/a	n/a	5	13	7	1	5
937.608	n/a	PROB	468804	n/a	LTP296	ltpFR2	12	n/a	n/a	n/a	5	10	3	1	6
939.01	n/a	PROB	469505	n/a	LTP296	ltpFR2	12	n/a	n/a	n/a	5	18	5	4	9
940.11	n/a	PROB	470055	n/a	LTP296	ltpFR2	12	n/a	n/a	n/a	5	21	9	8	4
941.728	n/a	PROB	470864	n/a	LTP296	ltpFR2	12	n/a	n/a	n/a	5	21	8	5	8
943.142	n/a	PROB	471571	n/a	LTP296	ltpFR2	12	n/a	n/a	n/a	5	20	2	9	9
944.458	n/a	PROB	472229	n/a	LTP296	ltpFR2	12	n/a	n/a	n/a	5	20	9	8	3
946.55	n/a	PROB	473275	n/a	LTP296	ltpFR2	12	n/a	n/a	n/a	5	6	2	2	2
947.412	n/a	PROB	473706	n/a	LTP296	ltpFR2	12	n/a	n/a	n/a	5	12	6	1	5
949.736	n/a	PROB	474868	n/a	LTP296	ltpFR2	12	n/a	n/a	n/a	5	21	9	3	9
951.332	n/a	PROB	475666	n/a	LTP296	ltpFR2	12	n/a	n/a	n/a	5	22	8	9	5
952.724	n/a	STOP	476362	n/a	LTP296	ltpFR2	12	n/a	n/a	n/a	5	n/a	n/a	n/a	n/a
955.972	n/a	REC_START	477986	n/a	LTP296	ltpFR2	12	4	n/a	n/a	n/a	n/a	0	0	0
956.432	n/a	REC_WORD	478216	wordpools/wasnorm_wordpool_576.txt	LTP296	ltpFR2	12	4	LIZARD	834	n/a	n/a	0	0	0
956.956	n/a	REC_WORD	478478	wordpools/wasnorm_wordpool_576.txt	LTP296	ltpFR2	12	4	PUPPY	1144	n/a	n/a	0	0	0
957.624	n/a	REC_WORD	478812	wordpools/wasnorm_wordpool_576.txt	LTP296	ltpFR2	12	4	LEOPARD	812	n/a	n/a	0	0	0
958.496	n/a	REC_WORD	479248	wordpools/wasnorm_wordpool_576.txt	LTP296	ltpFR2	12	4	BEAVER	109	n/a	n/a	0	0	0
958.8	n/a	REC_WORD	479400	wordpools/wasnorm_wordpool_576.txt	LTP296	ltpFR2	12	4	CHEST	295	n/a	n/a	0	0	0
959.45	n/a	REC_WORD	479725	wordpools/wasnorm_wordpool_576.txt	LTP296	ltpFR2	12	4	STOMACH	1384	n/a	n/a	0	0	0
960.258	n/a	REC_WORD	480129	wordpools/wasnorm_wordpool_576.txt	LTP296	ltpFR2	12	4	BELLY	119	n/a	n/a	0	0	0
960.994	n/a	REC_WORD	480497	wordpools/wasnorm_wordpool_576.txt	LTP296	ltpFR2	12	4	MAMMAL	861	n/a	n/a	0	0	0
969.02	n/a	REC_WORD	484510	wordpools/wasnorm_wordpool_576.txt	LTP296	ltpFR2	12	4	XEROX	1628	n/a	n/a	0	0	0
970.02	n/a	REC_WORD_VV	485010	wordpools/wasnorm_wordpool_576.txt	LTP296	ltpFR2	12	4	<>	-1	n/a	n/a	0	0	0
973.242	n/a	REC_WORD_VV	486621	wordpools/wasnorm_wordpool_576.txt	LTP296	ltpFR2	12	4	<>	-1	n/a	n/a	0	0	0
986.192	n/a	REC_WORD	493096	wordpools/wasnorm_wordpool_576.txt	LTP296	ltpFR2	12	4	DRIVER	499	n/a	n/a	0	0	0
988.1	n/a	REC_WORD	494050	wordpools/wasnorm_wordpool_576.txt	LTP296	ltpFR2	12	4	FIREMAN	569	n/a	n/a	0	0	0
1000.034	n/a	REC_WORD	500017	wordpools/wasnorm_wordpool_576.txt	LTP296	ltpFR2	12	4	CUPBOARD	425	n/a	n/a	0	0	0
1000.71	n/a	REC_WORD	500355	wordpools/wasnorm_wordpool_576.txt	LTP296	ltpFR2	12	4	SPOON	1357	n/a	n/a	0	0	0
1046.428	n/a	WORD	523214	wordpools/wasnorm_wordpool_576.txt	LTP296	ltpFR2	12	5	SOFTBALL	1343	n/a	n/a	0	0	0
1049.214	n/a	WORD	524607	wordpools/wasnorm_wordpool_576.txt	LTP296	ltpFR2	12	5	BRICK	172	n/a	n/a	0	0	0
1051.916	n/a	WORD	525958	wordpools/wasnorm_wordpool_576.txt	LTP296	ltpFR2	12	5	JEANS	752	n/a	n/a	0	0	0
1054.656	n/a	WORD	527328	wordpools/wasnorm_wordpool_576.txt	LTP296	ltpFR2	12	5	PERFUME	1049	n/a	n/a	0	0	0
1057.188	n/a	WORD	528594	wordpools/wasnorm_wordpool_576.txt	LTP296	ltpFR2	12	5	MILDEW	893	n/a	n/a	0	0	0
1059.654	n/a	WORD	529827	wordpools/wasnorm_wordpool_576.txt	LTP296	ltpFR2	12	5	PICNIC	1060	n/a	n/a	0	0	0
1062.224	n/a	WORD	531112	wordpools/wasnorm_wordpool_576.txt	LTP296	ltpFR2	12	5	TURTLE	1522	n/a	n/a	0	0	0
1064.774	n/a	WORD	532387	wordpools/wasnorm_wordpool_576.txt	LTP296	ltpFR2	12	5	COUNTRY	388	n/a	n/a	0	0	0
1067.378	n/a	WORD	533689	wordpools/wasnorm_wordpool_576.txt	LTP296	ltpFR2	12	5	LONDON	843	n/a	n/a	0	0	0
1069.902	n/a	WORD	534951	wordpools/wasnorm_wordpool_576.txt	LTP296	ltpFR2	12	5	BUG	187	n/a	n/a	0	0	0
1072.564	n/a	WORD	536282	wordpools/wasnorm_wordpool_576.txt	LTP296	ltpFR2	12	5	ICEBERG	731	n/a	n/a	0	0	0
1075.084	n/a	WORD	537542	wordpools/wasnorm_wordpool_576.txt	LTP296	ltpFR2	12	5	PLIERS	1089	n/a	n/a	0	0	0
1077.584	n/a	WORD	538792	wordpools/wasnorm_wordpool_576.txt	LTP296	ltpFR2	12	5	BREAST	171	n/a	n/a	0	0	0
1080.222	n/a	WORD	540111	wordpools/wasnorm_wordpool_576.txt	LTP296	ltpFR2	12	5	BEAKER	104	n/a	n/a	0	0	0
1082.84	n/a	WORD	541420	wordpools/wasnorm_wordpool_576.txt	LTP296	ltpFR2	12	5	ISLAND	745	n/a	n/a	0	0	0
1085.41	n/a	WORD	542705	wordpools/wasnorm_wordpool_576.txt	LTP296	ltpFR2	12	5	SPONGE	1355	n/a	n/a	0	0	0
1087.844	n/a	WORD	543922	wordpools/wasnorm_wordpool_576.txt	LTP296	ltpFR2	12	5	COCOON	339	n/a	n/a	0	0	0
1090.636	n/a	WORD	545318	wordpools/wasnorm_wordpool_576.txt	LTP296	ltpFR2	12	5	WRENCH	1625	n/a	n/a	0	0	0
1093.232	n/a	WORD	546616	wordpools/wasnorm_wordpool_576.txt	LTP296	ltpFR2	12	5	CONCERT	360	n/a	n/a	0	0	0
1096.034	n/a	WORD	548017	wordpools/wasnorm_wordpool_576.txt	LTP296	ltpFR2	12	5	PIANO	1057	n/a	n/a	0	0	0
1098.726	n/a	WORD	549363	wordpools/wasnorm_wordpool_576.txt	LTP296	ltpFR2	12	5	COSTUME	383	n/a	n/a	0	0	0
1101.188	n/a	WORD	550594	wordpools/wasnorm_wordpool_576.txt	LTP296	ltpFR2	12	5	SUNRISE	1407	n/a	n/a	0	0	0
1103.82	n/a	WORD	551910	wordpools/wasnorm_wordpool_576.txt	LTP296	ltpFR2	12	5	SCALPEL	1243	n/a	n/a	0	0	0
1106.414	n/a	WORD	553207	wordpools/wasnorm_wordpool_576.txt	LTP296	ltpFR2	12	5	GAVEL	627	n/a	n/a	0	0	0
1108.026	n/a	START	554013	n/a	LTP296	ltpFR2	12	n/a	n/a	n/a	6	n/a	n/a	n/a	n/a
1109.004	n/a	DISTRACTOR	554502	n/a	LTP296	ltpFR2	12	5	n/a	n/a	n/a	n/a	0	0	0
1109.01	n/a	PROB	554505	n/a	LTP296	ltpFR2	12	n/a	n/a	n/a	6	14	5	8	1
1110.692	n/a	PROB	555346	n/a	LTP296	ltpFR2	12	n/a	n/a	n/a	6	17	5	9	3
1112.478	n/a	PROB	556239	n/a	LTP296	ltpFR2	12	n/a	n/a	n/a	6	12	4	7	1
1113.61	n/a	PROB	556805	n/a	LTP296	ltpFR2	12	n/a	n/a	n/a	6	20	9	3	8
1116.0	n/a	PROB	558000	n/a	LTP296	ltpFR2	12	n/a	n/a	n/a	6	11	3	3	5
1117.248	n/a	PROB	558624	n/a	LTP296	ltpFR2	12	n/a	n/a	n/a	6	17	4	5	8
1118.582	n/a	PROB	559291	n/a	LTP296	ltpFR2	12	n/a	n/a	n/a	6	7	3	2	2
1120.352	n/a	PROB	560176	n/a	LTP296	ltpFR2	12	n/a	n/a	n/a	6	9	2	6	1
1121.32	n/a	PROB	560660	n/a	LTP296	ltpFR2	12	n/a	n/a	n/a	6	19	9	8	2
1122.786	n/a	PROB	561393	n/a	LTP296	ltpFR2	12	n/a	n/a	n/a	6	21	3	8	8
1123.954	n/a	PROB	561977	n/a	LTP296	ltpFR2	12	n/a	n/a	n/a	6	19	6	6	7
1125.822	n/a	PROB	562911	n/a	LTP296	ltpFR2	12	n/a	n/a	n/a	6	19	2	5	8
1127.724	n/a	PROB	563862	n/a	LTP296	ltpFR2	12	n/a	n/a	n/a	6	17	4	4	9
1129.208	n/a	PROB	564604	n/a	LTP296	ltpFR2	12	n/a	n/a	n/a	6	17	7	6	4
1131.104	n/a	STOP	565552	n/a	LTP296	ltpFR2	12	n/a	n/a	n/a	6	n/a	n/a	n/a	n/a
1133.828	n/a	REC_START	566914	n/a	LTP296	ltpFR2	12	5	n/a	n/a	n/a	n/a	0	0	0
1134.156	n/a	REC_WORD	567078	wordpools/wasnorm_wordpool_576.txt	LTP296	ltpFR2	12	5	TURTLE	1522	n/a	n/a	0	0	0
1135.038	n/a	REC_WORD	567519	wordpools/wasnorm_wordpool_576.txt	LTP296	ltpFR2	12	5	PICNIC	1060	n/a	n/a	0	0	0
1135.842	n/a	REC_WORD	567921	wordpools/wasnorm_wordpool_576.txt	LTP296	ltpFR2	12	5	BUG	187	n/a	n/a	0	0	0
1136.192	n/a	REC_WORD	568096	wordpools/wasnorm_wordpool_576.txt	LTP296	ltpFR2	12	5	COCOON	339	n/a	n/a	0	0	0
1137.258	n/a	REC_WORD	568629	wordpools/wasnorm_wordpool_576.txt	LTP296	ltpFR2	12	5	ICEBERG	731	n/a	n/a	0	0	0
1138.17	n/a	REC_WORD	569085	wordpools/wasnorm_wordpool_576.txt	LTP296	ltpFR2	12	5	BREAST	171	n/a	n/a	0	0	0
1138.684	n/a	REC_WORD	569342	wordpools/wasnorm_wordpool_576.txt	LTP296	ltpFR2	12	5	PIANO	1057	n/a	n/a	0	0	0
1140.272	n/a	REC_WORD	570136	wordpools/wasnorm_wordpool_576.txt	LTP296	ltpFR2	12	5	LONDON	843	n/a	n/a	0	0	0
1142.368	n/a	REC_WORD	571184	wordpools/wasnorm_wordpool_576.txt	LTP296	ltpFR2	12	5	COUNTRY	388	n/a	n/a	0	0	0
1143.668	n/a	REC_WORD	571834	wordpools/wasnorm_wordpool_576.txt	LTP296	ltpFR2	12	5	ISLAND	745	n/a	n/a	0	0	0
1145.094	n/a	REC_WORD	572547	wordpools/wasnorm_wordpool_576.txt	LTP296	ltpFR2	12	5	ICEBERG	731	n/a	n/a	0	0	0
1146.094	n/a	REC_WORD_VV	573047	wordpools/wasnorm_wordpool_576.txt	LTP296	ltpFR2	12	5	<>	-1	n/a	n/a	0	0	0
1180.754	n/a	REC_WORD	590377	wordpools/wasnorm_wordpool_576.txt	LTP296	ltpFR2	12	5	COUNTRY	388	n/a	n/a	0	0	0
1224.302	n/a	WORD	612151	wordpools/wasnorm_wordpool_576.txt	LTP296	ltpFR2	12	6	RATTLE	1170	n/a	n/a	0	0	0
1226.784	n/a	WORD	613392	wordpools/wasnorm_wordpool_576.txt	LTP296	ltpFR2	12	6	PIGEON	1065	n/a	n/a	0	0	0
1229.22	n/a	WORD	614610	wordpools/wasnorm_wordpool_576.txt	LTP296	ltpFR2	12	6	CLIMBER	323	n/a	n/a	0	0	0
1231.922	n/a	WORD	615961	wordpools/wasnorm_wordpool_576.txt	LTP296	ltpFR2	12	6	AWARD	63	n/a	n/a	0	0	0
1234.54	n/a	WORD	617270	wordpools/wasnorm_wordpool_576.txt	LTP296	ltpFR2	12	6	SWORD	1423	n/a	n/a	0	0	0
1237.26	n/a	WORD	618630	wordpools/wasnorm_wordpool_576.txt	LTP296	ltpFR2	12	6	BLADE	134	n/a	n/a	0	0	0
1239.728	n/a	WORD	619864	wordpools/wasnorm_wordpool_576.txt	LTP296	ltpFR2	12	6	YARN	1631	n/a	n/a	0	0	0
1242.23	n/a	WORD	621115	wordpools/wasnorm_wordpool_576.txt	LTP296	ltpFR2	12	6	WHISTLE	1606	n/a	n/a	0	0	0
1244.95	n/a	WORD	622475	wordpools/wasnorm_wordpool_576.txt	LTP296	ltpFR2	12	6	KNIFE	785	n/a	n/a	0	0	0
1247.6	n/a	WORD	623800	wordpools/wasnorm_wordpool_576.txt	LTP296	ltpFR2	12	6	INFANT	737	n/a	n/a	0	0	0
1250.336	n/a	WORD	625168	wordpools/wasnorm_wordpool_576.txt	LTP296	ltpFR2	12	6	MILK	895	n/a	n/a	0	0	0
1252.972	n/a	WORD	626486	wordpools/wasnorm_wordpool_576.txt	LTP296	ltpFR2	12	6	BACON	67	n/a	n/a	0	0	0
1255.708	n/a	WORD	627854	wordpools/wasnorm_wordpool_576.txt	LTP296	ltpFR2	12	6	GUITAR	670	n/a	n/a	0	0	0
1258.378	n/a	WORD	629189	wordpools/wasnorm_wordpool_576.txt	LTP296	ltpFR2	12	6	CRIB	407	n/a	n/a	0	0	0
1261.146	n/a	WORD	630573	wordpools/wasnorm_wordpool_576.txt	LTP296	ltpFR2	12	6	CAFE	216	n/a	n/a	0	0	0
1263.914	n/a	WORD	631957	wordpools/wasnorm_wordpool_576.txt	LTP296	ltpFR2	12	6	PASTA	1021	n/a	n/a	0	0	0
1266.682	n/a	WORD	633341	wordpools/wasnorm_wordpool_576.txt	LTP296	ltpFR2	12	6	JELLY	755	n/a	n/a	0	0	0
1269.12	n/a	WORD	634560	wordpools/wasnorm_wordpool_576.txt	LTP296	ltpFR2	12	6	GAZELLE	628	n/a	n/a	0	0	0
1271.686	n/a	WORD	635843	wordpools/wasnorm_wordpool_576.txt	LTP296	ltpFR2	12	6	FARMER	553	n/a	n/a	0	0	0
1274.188	n/a	WORD	637094	wordpools/wasnorm_wordpool_576.txt	LTP296	ltpFR2	12	6	EXPERT	543	n/a	n/a	0	0	0
1276.64	n/a	WORD	638320	wordpools/wasnorm_wordpool_576.txt	LTP296	ltpFR2	12	6	BUGGY	188	n/a	n/a	0	0	0
1279.294	n/a	WORD	639647	wordpools/wasnorm_wordpool_576.txt	LTP296	ltpFR2	12	6	HOOD	714	n/a	n/a	0	0	0
1282.01	n/a	WORD	641005	wordpools/wasnorm_wordpool_576.txt	LTP296	ltpFR2	12	6	OX	994	n/a	n/a	0	0	0
1284.532	n/a	WORD	642266	wordpools/wasnorm_wordpool_576.txt	LTP296	ltpFR2	12	6	PEANUT	1032	n/a	n/a	0	0	0
1286.15	n/a	START	643075	n/a	LTP296	ltpFR2	12	n/a	n/a	n/a	7	n/a	n/a	n/a	n/a
1287.298	n/a	DISTRACTOR	643649	n/a	LTP296	ltpFR2	12	6	n/a	n/a	n/a	n/a	0	0	0
1287.302	n/a	PROB	643651	n/a	LTP296	ltpFR2	12	n/a	n/a	n/a	7	19	8	2	9
1289.916	n/a	PROB	644958	n/a	LTP296	ltpFR2	12	n/a	n/a	n/a	7	9	2	6	1
1291.068	n/a	PROB	645534	n/a	LTP296	ltpFR2	12	n/a	n/a	n/a	7	4	1	2	1
1291.952	n/a	PROB	645976	n/a	LTP296	ltpFR2	12	n/a	n/a	n/a	7	21	5	8	9
1293.752	n/a	PROB	646876	n/a	LTP296	ltpFR2	12	n/a	n/a	n/a	7	16	3	7	3
1295.17	n/a	PROB	647585	n/a	LTP296	ltpFR2	12	n/a	n/a	n/a	7	15	8	6	1
1296.604	n/a	PROB	648302	n/a	LTP296	ltpFR2	12	n/a	n/a	n/a	7	11	6	1	4
1298.156	n/a	PROB	649078	n/a	LTP296	ltpFR2	12	n/a	n/a	n/a	7	17	1	7	9
1299.858	n/a	PROB	649929	n/a	LTP296	ltpFR2	12	n/a	n/a	n/a	7	18	9	6	3
1301.524	n/a	PROB	650762	n/a	LTP296	ltpFR2	12	n/a	n/a	n/a	7	12	3	7	2
1303.478	n/a	PROB	651739	n/a	LTP296	ltpFR2	12	n/a	n/a	n/a	7	23	7	6	7
1304.978	n/a	PROB	652489	n/a	LTP296	ltpFR2	12	n/a	n/a	n/a	7	12	1	5	6
1306.146	n/a	PROB	653073	n/a	LTP296	ltpFR2	12	n/a	n/a	n/a	7	17	3	9	5
1307.812	n/a	PROB	653906	n/a	LTP296	ltpFR2	12	n/a	n/a	n/a	7	14	4	6	4
1309.298	n/a	STOP	654649	n/a	LTP296	ltpFR2	12	n/a	n/a	n/a	7	n/a	n/a	n/a	n/a
1311.918	n/a	REC_START	655959	n/a	LTP296	ltpFR2	12	6	n/a	n/a	n/a	n/a	0	0	0
1312.262	n/a	REC_WORD	656131	wordpools/wasnorm_wordpool_576.txt	LTP296	ltpFR2	12	6	SWORD	1423	n/a	n/a	0	0	0
1312.96	n/a	REC_WORD_VV	656480	wordpools/wasnorm_wordpool_576.txt	LTP296	ltpFR2	12	6	<>	-1	n/a	n/a	0	0	0
1313.776	n/a	REC_WORD	656888	wordpools/wasnorm_wordpool_576.txt	LTP296	ltpFR2	12	6	KNIFE	785	n/a	n/a	0	0	0
1314.512	n/a	REC_WORD	657256	wordpools/wasnorm_wordpool_576.txt	LTP296	ltpFR2	12	6	INFANT	737	n/a	n/a	0	0	0
1315.2	n/a	REC_WORD	657600	wordpools/wasnorm_wordpool_576.txt	LTP296	ltpFR2	12	6	MILK	895	n/a	n/a	0	0	0
1315.95	n/a	REC_WORD	657975	wordpools/wasnorm_wordpool_576.txt	LTP296	ltpFR2	12	6	CRIB	407	n/a	n/a	0	0	0
1316.992	n/a	REC_WORD	658496	wordpools/wasnorm_wordpool_576.txt	LTP296	ltpFR2	12	6	BACON	67	n/a	n/a	0	0	0
1317.746	n/a	REC_WORD	658873	wordpools/wasnorm_wordpool_576.txt	LTP296	ltpFR2	12	6	JELLY	755	n/a	n/a	0	0	0
1318.536	n/a	REC_WORD	659268	wordpools/wasnorm_wordpool_576.txt	LTP296	ltpFR2	12	6	OX	994	n/a	n/a	0	0	0
1320.304	n/a	REC_WORD	660152	wordpools/wasnorm_wordpool_576.txt	LTP296	ltpFR2	12	6	RATTLE	1170	n/a	n/a	0	0	0
1402.35	n/a	DISTRACTOR	701175	n/a	LTP296	ltpFR2	12	7	n/a	n/a	n/a	n/a	0	0	0
1402.35	n/a	START	701175	n/a	LTP296	ltpFR2	12	n/a	n/a	n/a	8	n/a	n/a	n/a	n/a
1402.364	n/a	PROB	701182	n/a	LTP296	ltpFR2	12	n/a	n/a	n/a	8	13	8	3	2
1404.006	n/a	PROB	702003	n/a	LTP296	ltpFR2	12	n/a	n/a	n/a	8	16	6	2	8
1405.406	n/a	PROB	702703	n/a	LTP296	ltpFR2	12	n/a	n/a	n/a	8	12	5	2	5
1406.456	n/a	PROB	703228	n/a	LTP296	ltpFR2	12	n/a	n/a	n/a	8	6	2	2	2
1407.292	n/a	PROB	703646	n/a	LTP296	ltpFR2	12	n/a	n/a	n/a	8	10	3	6	1
1409.144	n/a	PROB	704572	n/a	LTP296	ltpFR2	12	n/a	n/a	n/a	8	14	4	3	7
1410.362	n/a	PROB	705181	n/a	LTP296	ltpFR2	12	n/a	n/a	n/a	8	16	5	2	9
1411.796	n/a	PROB	705898	n/a	LTP296	ltpFR2	12	n/a	n/a	n/a	8	8	4	2	2
1413.43	n/a	PROB	706715	n/a	LTP296	ltpFR2	12	n/a	n/a	n/a	8	17	8	7	2
1415.014	n/a	PROB	707507	n/a	LTP296	ltpFR2	12	n/a	n/a	n/a	8	17	9	7	1
1416.498	n/a	PROB	708249	n/a	LTP296	ltpFR2	12	n/a	n/a	n/a	8	13	3	3	7
1418.034	n/a	PROB	709017	n/a	LTP296	ltpFR2	12	n/a	n/a	n/a	8	23	5	9	7
1419.396	n/a	PROB	709698	n/a	LTP296	ltpFR2	12	n/a	n/a	n/a	8	21	6	9	6
1421.286	n/a	PROB	710643	n/a	LTP296	ltpFR2	12	n/a	n/a	n/a	8	8	3	2	3
1423.038	n/a	PROB	711519	n/a	LTP296	ltpFR2	12	n/a	n/a	n/a	8	9	4	2	1
1423.988	n/a	PROB	711994	n/a	LTP296	ltpFR2	12	n/a	n/a	n/a	8	11	6	3	2
1425.364	n/a	STOP	712682	n/a	LTP296	ltpFR2	12	n/a	n/a	n/a	8	n/a	n/a	n/a	n/a
1427.372	n/a	WORD	713686	wordpools/wasnorm_wordpool_576.txt	LTP296	ltpFR2	12	7	HORSE	719	n/a	n/a	0	0	0
1429.956	n/a	WORD	714978	wordpools/wasnorm_wordpool_576.txt	LTP296	ltpFR2	12	7	KIDNEY	776	n/a	n/a	0	0	0
1432.426	n/a	WORD	716213	wordpools/wasnorm_wordpool_576.txt	LTP296	ltpFR2	12	7	MONSTER	912	n/a	n/a	0	0	0
1434.91	n/a	WORD	717455	wordpools/wasnorm_wordpool_576.txt	LTP296	ltpFR2	12	7	FLASK	576	n/a	n/a	0	0	0
1437.698	n/a	WORD	718849	wordpools/wasnorm_wordpool_576.txt	LTP296	ltpFR2	12	7	CHEMIST	292	n/a	n/a	0	0	0
1440.216	n/a	WORD	720108	wordpools/wasnorm_wordpool_576.txt	LTP296	ltpFR2	12	7	SODA	1341	n/a	n/a	0	0	0
1442.7	n/a	WORD	721350	wordpools/wasnorm_wordpool_576.txt	LTP296	ltpFR2	12	7	SUPPER	1411	n/a	n/a	0	0	0
1445.452	n/a	WORD	722726	wordpools/wasnorm_wordpool_576.txt	LTP296	ltpFR2	12	7	ROBBER	1197	n/a	n/a	0	0	0
1447.922	n/a	WORD	723961	wordpools/wasnorm_wordpool_576.txt	LTP296	ltpFR2	12	7	MATCH	878	n/a	n/a	0	0	0
1450.674	n/a	WORD	725337	wordpools/wasnorm_wordpool_576.txt	LTP296	ltpFR2	12	7	CHAMPAGNE	278	n/a	n/a	0	0	0
1453.16	n/a	WORD	726580	wordpools/wasnorm_wordpool_576.txt	LTP296	ltpFR2	12	7	PATIENT	1024	n/a	n/a	0	0	0
1455.93	n/a	WORD	727965	wordpools/wasnorm_wordpool_576.txt	LTP296	ltpFR2	12	7	MARS	873	n/a	n/a	0	0	0
1458.464	n/a	WORD	729232	wordpools/wasnorm_wordpool_576.txt	LTP296	ltpFR2	12	7	CARRIAGE	248	n/a	n/a	0	0	0
1460.916	n/a	WORD	730458	wordpools/wasnorm_wordpool_576.txt	LTP296	ltpFR2	12	7	TRANSPLANT	1496	n/a	n/a	0	0	0
1463.368	n/a	WORD	731684	wordpools/wasnorm_wordpool_576.txt	LTP296	ltpFR2	12	7	RELISH	1183	n/a	n/a	0	0	0
1466.156	n/a	WORD	733078	wordpools/wasnorm_wordpool_576.txt	LTP296	ltpFR2	12	7	PALACE	1006	n/a	n/a	0	0	0
1468.856	n/a	WORD	734428	wordpools/wasnorm_wordpool_576.txt	LTP296	ltpFR2	12	7	QUEEN	1149	n/a	n/a	0	0	0
1471.542	n/a	WORD	735771	wordpools/wasnorm_wordpool_576.txt	LTP296	ltpFR2	12	7	LASER	801	n/a	n/a	0	0	0
1474.112	n/a	WORD	737056	wordpools/wasnorm_wordpool_576.txt	LTP296	ltpFR2	12	7	HELMET	702	n/a	n/a	0	0	0
1476.914	n/a	WORD	738457	wordpools/wasnorm_wordpool_576.txt	LTP296	ltpFR2	12	7	CRATER	400	n/a	n/a	0	0	0
1479.664	n/a	WORD	739832	wordpools/wasnorm_wordpool_576.txt	LTP296	ltpFR2	12	7	SEAGULL	1261	n/a	n/a	0	0	0
1482.268	n/a	WORD	741134	wordpools/wasnorm_wordpool_576.txt	LTP296	ltpFR2	12	7	CHILD	299	n/a	n/a	0	0	0
1484.752	n/a	WORD	742376	wordpools/wasnorm_wordpool_576.txt	LTP296	ltpFR2	12	7	GIFT	635	n/a	n/a	0	0	0
1487.522	n/a	WORD	743761	wordpools/wasnorm_wordpool_576.txt	LTP296	ltpFR2	12	7	MAILMAN	858	n/a	n/a	0	0	0
1489.14	n/a	START	744570	n/a	LTP296	ltpFR2	12	n/a	n/a	n/a	9	n/a	n/a	n/a	n/a
1490.188	n/a	DISTRACTOR	745094	n/a	LTP296	ltpFR2	12	7	n/a	n/a	n/a	n/a	0	0	0
1490.206	n/a	PROB	745103	n/a	LTP296	ltpFR2	12	n/a	n/a	n/a	9	18	5	7	6
1492.174	n/a	PROB	746087	n/a	LTP296	ltpFR2	12	n/a	n/a	n/a	9	21	3	9	9
1493.64	n/a	PROB	746820	n/a	LTP296	ltpFR2	12	n/a	n/a	n/a	9	13	6	2	5
1496.294	n/a	PROB	748147	n/a	LTP296	ltpFR2	12	n/a	n/a	n/a	9	18	9	6	3
1497.794	n/a	PROB	748897	n/a	LTP296	ltpFR2	12	n/a	n/a	n/a	9	21	9	9	3
1499.314	n/a	PROB	749657	n/a	LTP296	ltpFR2	12	n/a	n/a	n/a	9	18	2	8	8
1500.53	n/a	PROB	750265	n/a	LTP296	ltpFR2	12	n/a	n/a	n/a	9	10	8	1	1
1501.546	n/a	PROB	750773	n/a	LTP296	ltpFR2	12	n/a	n/a	n/a	9	11	2	2	7
1503.25	n/a	PROB	751625	n/a	LTP296	ltpFR2	12	n/a	n/a	n/a	9	18	2	7	5
1505.202	n/a	PROB	752601	n/a	LTP296	ltpFR2	12	n/a	n/a	n/a	9	9	4	2	3
1506.904	n/a	PROB	753452	n/a	LTP296	ltpFR2	12	n/a	n/a	n/a	9	12	1	9	2
1508.254	n/a	PROB	754127	n/a	LTP296	ltpFR2	12	n/a	n/a	n/a	9	15	4	9	2
1509.72	n/a	PROB	754860	n/a	LTP296	ltpFR2	12	n/a	n/a	n/a	9	19	9	7	3
1511.206	n/a	PROB	755603	n/a	LTP296	ltpFR2	12	n/a	n/a	n/a	9	9	1	2	6
1512.39	n/a	STOP	756195	n/a	LTP296	ltpFR2	12	n/a	n/a	n/a	9	n/a	n/a	n/a	n/a
1515.044	n/a	REC_START	757522	n/a	LTP296	ltpFR2	12	7	n/a	n/a	n/a	n/a	0	0	0
1515.304	n/a	REC_WORD	757652	wordpools/wasnorm_wordpool_576.txt	LTP296	ltpFR2	12	7	HORSE	719	n/a	n/a	0	0	0
1516.212	n/a	REC_WORD	758106	wordpools/wasnorm_wordpool_576.txt	LTP296	ltpFR2	12	7	MONSTER	912	n/a	n/a	0	0	0
1517.068	n/a	REC_WORD	758534	wordpools/wasnorm_wordpool_576.txt	LTP296	ltpFR2	12	7	KIDNEY	776	n/a	n/a	0	0	0
1517.674	n/a	REC_WORD	758837	wordpools/wasnorm_wordpool_576.txt	LTP296	ltpFR2	12	7	SODA	1341	n/a	n/a	0	0	0
1518.274	n/a	REC_WORD	759137	wordpools/wasnorm_wordpool_576.txt	LTP296	ltpFR2	12	7	CHAMPAGNE	278	n/a	n/a	0	0	0
1519.848	n/a	REC_WORD	759924	wordpools/wasnorm_wordpool_576.txt	LTP296	ltpFR2	12	7	RELISH	1183	n/a	n/a	0	0	0
1522.666	n/a	REC_WORD	761333	wordpools/wasnorm_wordpool_576.txt	LTP296	ltpFR2	12	7	TRANSPLANT	1496	n/a	n/a	0	0	0
1523.666	n/a	REC_WORD_VV	761833	wordpools/wasnorm_wordpool_576.txt	LTP296	ltpFR2	12	7	<>	-1	n/a	n/a	0	0	0
1524.018	n/a	REC_WORD	762009	wordpools/wasnorm_wordpool_576.txt	LTP296	ltpFR2	12	7	MAILMAN	858	n/a	n/a	0	0	0
1525.018	n/a	REC_WORD_VV	762509	wordpools/wasnorm_wordpool_576.txt	LTP296	ltpFR2	12	7	<>	-1	n/a	n/a	0	0	0
1605.464	n/a	DISTRACTOR	802732	n/a	LTP296	ltpFR2	12	8	n/a	n/a	n/a	n/a	0	0	0
1605.464	n/a	START	802732	n/a	LTP296	ltpFR2	12	n/a	n/a	n/a	10	n/a	n/a	n/a	n/a
1605.48	n/a	PROB	802740	n/a	LTP296	ltpFR2	12	n/a	n/a	n/a	10	19	8	9	2
1606.866	n/a	PROB	803433	n/a	LTP296	ltpFR2	12	n/a	n/a	n/a	10	16	7	7	2
1608.68	n/a	PROB	804340	n/a	LTP296	ltpFR2	12	n/a	n/a	n/a	10	14	8	4	2
1610.832	n/a	PROB	805416	n/a	LTP296	ltpFR2	12	n/a	n/a	n/a	10	14	1	6	7
1612.084	n/a	PROB	806042	n/a	LTP296	ltpFR2	12	n/a	n/a	n/a	10	16	4	8	4
1613.702	n/a	PROB	806851	n/a	LTP296	ltpFR2	12	n/a	n/a	n/a	10	26	8	9	9
1615.22	n/a	PROB	807610	n/a	LTP296	ltpFR2	12	n/a	n/a	n/a	10	9	3	3	3
1616.37	n/a	PROB	808185	n/a	LTP296	ltpFR2	12	n/a	n/a	n/a	10	13	5	3	5
1617.89	n/a	PROB	808945	n/a	LTP296	ltpFR2	12	n/a	n/a	n/a	10	10	4	3	4
1619.39	n/a	PROB	809695	n/a	LTP296	ltpFR2	12	n/a	n/a	n/a	10	21	5	7	9
1620.96	n/a	PROB	810480	n/a	LTP296	ltpFR2	12	n/a	n/a	n/a	10	23	8	7	6
1624.244	n/a	PROB	812122	n/a	LTP296	ltpFR2	12	n/a	n/a	n/a	10	16	4	9	3
1625.68	n/a	PROB	812840	n/a	LTP296	ltpFR2	12	n/a	n/a	n/a	10	16	3	6	7
1628.44	n/a	STOP	814220	n/a	LTP296	ltpFR2	12	n/a	n/a	n/a	10	n/a	n/a	n/a	n/a
1630.61	n/a	WORD	815305	wordpools/wasnorm_wordpool_576.txt	LTP296	ltpFR2	12	8	LETTUCE	814	n/a	n/a	0	0	0
1633.432	n/a	WORD	816716	wordpools/wasnorm_wordpool_576.txt	LTP296	ltpFR2	12	8	PRINCESS	1125	n/a	n/a	0	0	0
1636.088	n/a	WORD	818044	wordpools/wasnorm_wordpool_576.txt	LTP296	ltpFR2	12	8	BIKE	125	n/a	n/a	0	0	0
1638.772	n/a	WORD	819386	wordpools/wasnorm_wordpool_576.txt	LTP296	ltpFR2	12	8	CHAUFFEUR	283	n/a	n/a	0	0	0
1641.586	n/a	WORD	820793	wordpools/wasnorm_wordpool_576.txt	LTP296	ltpFR2	12	8	CELLAR	267	n/a	n/a	0	0	0
1644.23	n/a	WORD	822115	wordpools/wasnorm_wordpool_576.txt	LTP296	ltpFR2	12	8	PEACH	1031	n/a	n/a	0	0	0
1646.762	n/a	WORD	823381	wordpools/wasnorm_wordpool_576.txt	LTP296	ltpFR2	12	8	BANK	83	n/a	n/a	0	0	0
1649.46	n/a	WORD	824730	wordpools/wasnorm_wordpool_576.txt	LTP296	ltpFR2	12	8	TWISTER	1530	n/a	n/a	0	0	0
1651.912	n/a	WORD	825956	wordpools/wasnorm_wordpool_576.txt	LTP296	ltpFR2	12	8	BISON	131	n/a	n/a	0	0	0
1654.718	n/a	WORD	827359	wordpools/wasnorm_wordpool_576.txt	LTP296	ltpFR2	12	8	DUSTPAN	509	n/a	n/a	0	0	0
1657.42	n/a	WORD	828710	wordpools/wasnorm_wordpool_576.txt	LTP296	ltpFR2	12	8	DUST	508	n/a	n/a	0	0	0
1660.102	n/a	WORD	830051	wordpools/wasnorm_wordpool_576.txt	LTP296	ltpFR2	12	8	BLOUSE	139	n/a	n/a	0	0	0
1662.888	n/a	WORD	831444	wordpools/wasnorm_wordpool_576.txt	LTP296	ltpFR2	12	8	RECORD	1176	n/a	n/a	0	0	0
1665.506	n/a	WORD	832753	wordpools/wasnorm_wordpool_576.txt	LTP296	ltpFR2	12	8	CABBAGE	210	n/a	n/a	0	0	0
1667.926	n/a	WORD	833963	wordpools/wasnorm_wordpool_576.txt	LTP296	ltpFR2	12	8	TRIBE	1505	n/a	n/a	0	0	0
1670.694	n/a	WORD	835347	wordpools/wasnorm_wordpool_576.txt	LTP296	ltpFR2	12	8	OUTLAW	989	n/a	n/a	0	0	0
1673.196	n/a	WORD	836598	wordpools/wasnorm_wordpool_576.txt	LTP296	ltpFR2	12	8	BURGLAR	200	n/a	n/a	0	0	0
1675.95	n/a	WORD	837975	wordpools/wasnorm_wordpool_576.txt	LTP296	ltpFR2	12	8	PASSAGE	1019	n/a	n/a	0	0	0
1678.534	n/a	WORD	839267	wordpools/wasnorm_wordpool_576.txt	LTP296	ltpFR2	12	8	CURTAIN	427	n/a	n/a	0	0	0
1681.136	n/a	WORD	840568	wordpools/wasnorm_wordpool_576.txt	LTP296	ltpFR2	12	8	PISTON	1076	n/a	n/a	0	0	0
1683.738	n/a	WORD	841869	wordpools/wasnorm_wordpool_576.txt	LTP296	ltpFR2	12	8	HUMAN	726	n/a	n/a	0	0	0
1686.392	n/a	WORD	843196	wordpools/wasnorm_wordpool_576.txt	LTP296	ltpFR2	12	8	HUSBAND	728	n/a	n/a	0	0	0
1689.212	n/a	WORD	844606	wordpools/wasnorm_wordpool_576.txt	LTP296	ltpFR2	12	8	FOREHEAD	592	n/a	n/a	0	0	0
1691.662	n/a	WORD	845831	wordpools/wasnorm_wordpool_576.txt	LTP296	ltpFR2	12	8	BASEMENT	94	n/a	n/a	0	0	0
1693.28	n/a	START	846640	n/a	LTP296	ltpFR2	12	n/a	n/a	n/a	11	n/a	n/a	n/a	n/a
1694.166	n/a	DISTRACTOR	847083	n/a	LTP296	ltpFR2	12	8	n/a	n/a	n/a	n/a	0	0	0
1694.18	n/a	PROB	847090	n/a	LTP296	ltpFR2	12	n/a	n/a	n/a	11	16	4	8	4
1697.398	n/a	PROB	848699	n/a	LTP296	ltpFR2	12	n/a	n/a	n/a	11	11	5	5	1
1698.836	n/a	PROB	849418	n/a	LTP296	ltpFR2	12	n/a	n/a	n/a	11	17	8	7	2
1700.554	n/a	PROB	850277	n/a	LTP296	ltpFR2	12	n/a	n/a	n/a	11	23	9	8	6
1702.054	n/a	PROB	851027	n/a	LTP296	ltpFR2	12	n/a	n/a	n/a	11	12	2	1	9
1703.256	n/a	PROB	851628	n/a	LTP296	ltpFR2	12	n/a	n/a	n/a	11	20	9	7	4
1704.624	n/a	PROB	852312	n/a	LTP296	ltpFR2	12	n/a	n/a	n/a	11	15	5	5	5
1705.472	n/a	PROB	852736	n/a	LTP296	ltpFR2	12	n/a	n/a	n/a	11	8	3	3	2
1706.474	n/a	PROB	853237	n/a	LTP296	ltpFR2	12	n/a	n/a	n/a	11	14	3	5	6
1707.96	n/a	PROB	853980	n/a	LTP296	ltpFR2	12	n/a	n/a	n/a	11	23	9	9	6
1709.094	n/a	PROB	854547	n/a	LTP296	ltpFR2	12	n/a	n/a	n/a	11	19	9	4	6
1711.462	n/a	PROB	855731	n/a	LTP296	ltpFR2	12	n/a	n/a	n/a	11	7	3	3	1
1712.83	n/a	PROB	856415	n/a	LTP296	ltpFR2	12	n/a	n/a	n/a	11	6	3	2	1
1713.848	n/a	PROB	856924	n/a	LTP296	ltpFR2	12	n/a	n/a	n/a	11	9	2	1	5
1714.95	n/a	PROB	857475	n/a	LTP296	ltpFR2	12	n/a	n/a	n/a	11	11	2	9	1
1716.954	n/a	STOP	858477	n/a	LTP296	ltpFR2	12	n/a	n/a	n/a	11	n/a	n/a	n/a	n/a
1719.054	n/a	REC_START	859527	n/a	LTP296	ltpFR2	12	8	n/a	n/a	n/a	n/a	0	0	0
1719.716	n/a	REC_WORD	859858	wordpools/wasnorm_wordpool_576.txt	LTP296	ltpFR2	12	8	LETTUCE	814	n/a	n/a	0	0	0
1720.24	n/a	REC_WORD	860120	wordpools/wasnorm_wordpool_576.txt	LTP296	ltpFR2	12	8	PEACH	1031	n/a	n/a	0	0	0
1720.994	n/a	REC_WORD	860497	wordpools/wasnorm_wordpool_576.txt	LTP296	ltpFR2	12	8	BISON	131	n/a	n/a	0	0	0
1721.866	n/a	REC_WORD	860933	wordpools/wasnorm_wordpool_576.txt	LTP296	ltpFR2	12	8	PRINCESS	1125	n/a	n/a	0	0	0
1722.384	n/a	REC_WORD	861192	wordpools/wasnorm_wordpool_576.txt	LTP296	ltpFR2	12	8	CHAUFFEUR	283	n/a	n/a	0	0	0
1723.492	n/a	REC_WORD	861746	wordpools/wasnorm_wordpool_576.txt	LTP296	ltpFR2	12	8	HUMAN	726	n/a	n/a	0	0	0
1724.48	n/a	REC_WORD	862240	wordpools/wasnorm_wordpool_576.txt	LTP296	ltpFR2	12	8	HUSBAND	728	n/a	n/a	0	0	0
1725.456	n/a	REC_WORD	862728	wordpools/wasnorm_wordpool_576.txt	LTP296	ltpFR2	12	8	DUST	508	n/a	n/a	0	0	0
1726.504	n/a	REC_WORD	863252	wordpools/wasnorm_wordpool_576.txt	LTP296	ltpFR2	12	8	DUSTPAN	509	n/a	n/a	0	0	0
1727.686	n/a	REC_WORD	863843	wordpools/wasnorm_wordpool_576.txt	LTP296	ltpFR2	12	8	BANK	83	n/a	n/a	0	0	0
1795.594	n/a	REST_REWET	897797	n/a	LTP296	ltpFR2	12	8	n/a	n/a	n/a	n/a	0	0	0
2100.334	n/a	WORD	1050167	wordpools/wasnorm_wordpool_576.txt	LTP296	ltpFR2	12	9	SCISSORS	1250	n/a	n/a	0	0	0
2103.044	n/a	WORD	1051522	wordpools/wasnorm_wordpool_576.txt	LTP296	ltpFR2	12	9	DASHBOARD	441	n/a	n/a	0	0	0
2105.854	n/a	WORD	1052927	wordpools/wasnorm_wordpool_576.txt	LTP296	ltpFR2	12	9	KEEPER	769	n/a	n/a	0	0	0
2108.556	n/a	WORD	1054278	wordpools/wasnorm_wordpool_576.txt	LTP296	ltpFR2	12	9	COLLEGE	346	n/a	n/a	0	0	0
2111.086	n/a	WORD	1055543	wordpools/wasnorm_wordpool_576.txt	LTP296	ltpFR2	12	9	HEADBAND	696	n/a	n/a	0	0	0
2113.838	n/a	WORD	1056919	wordpools/wasnorm_wordpool_576.txt	LTP296	ltpFR2	12	9	BLACKBOARD	133	n/a	n/a	0	0	0
2116.406	n/a	WORD	1058203	wordpools/wasnorm_wordpool_576.txt	LTP296	ltpFR2	12	9	TABLET	1427	n/a	n/a	0	0	0
2119.158	n/a	WORD	1059579	wordpools/wasnorm_wordpool_576.txt	LTP296	ltpFR2	12	9	ULCER	1533	n/a	n/a	0	0	0
2121.71	n/a	WORD	1060855	wordpools/wasnorm_wordpool_576.txt	LTP296	ltpFR2	12	9	BOARD	143	n/a	n/a	0	0	0
2124.312	n/a	WORD	1062156	wordpools/wasnorm_wordpool_576.txt	LTP296	ltpFR2	12	9	WAGON	1578	n/a	n/a	0	0	0
2127.082	n/a	WORD	1063541	wordpools/wasnorm_wordpool_576.txt	LTP296	ltpFR2	12	9	PIGMENT	1066	n/a	n/a	0	0	0
2129.6	n/a	WORD	1064800	wordpools/wasnorm_wordpool_576.txt	LTP296	ltpFR2	12	9	MUMMY	932	n/a	n/a	0	0	0
2132.22	n/a	WORD	1066110	wordpools/wasnorm_wordpool_576.txt	LTP296	ltpFR2	12	9	VIKING	1565	n/a	n/a	0	0	0
2134.856	n/a	WORD	1067428	wordpools/wasnorm_wordpool_576.txt	LTP296	ltpFR2	12	9	PADDLE	1000	n/a	n/a	0	0	0
2137.488	n/a	WORD	1068744	wordpools/wasnorm_wordpool_576.txt	LTP296	ltpFR2	12	9	TOASTER	1472	n/a	n/a	0	0	0
2140.082	n/a	WORD	1070041	wordpools/wasnorm_wordpool_576.txt	LTP296	ltpFR2	12	9	COOK	372	n/a	n/a	0	0	0
2142.628	n/a	WORD	1071314	wordpools/wasnorm_wordpool_576.txt	LTP296	ltpFR2	12	9	FRIAR	605	n/a	n/a	0	0	0
2145.248	n/a	WORD	1072624	wordpools/wasnorm_wordpool_576.txt	LTP296	ltpFR2	12	9	SWAMP	1416	n/a	n/a	0	0	0
2147.682	n/a	WORD	1073841	wordpools/wasnorm_wordpool_576.txt	LTP296	ltpFR2	12	9	VALLEY	1545	n/a	n/a	0	0	0
2150.39	n/a	WORD	1075195	wordpools/wasnorm_wordpool_576.txt	LTP296	ltpFR2	12	9	EGYPT	519	n/a	n/a	0	0	0
2153.02	n/a	WORD	1076510	wordpools/wasnorm_wordpool_576.txt	LTP296	ltpFR2	12	9	SHOVEL	1295	n/a	n/a	0	0	0
2155.588	n/a	WORD	1077794	wordpools/wasnorm_wordpool_576.txt	LTP296	ltpFR2	12	9	HIGHWAY	707	n/a	n/a	0	0	0
2158.258	n/a	WORD	1079129	wordpools/wasnorm_wordpool_576.txt	LTP296	ltpFR2	12	9	RAFT	1159	n/a	n/a	0	0	0
2160.976	n/a	WORD	1080488	wordpools/wasnorm_wordpool_576.txt	LTP296	ltpFR2	12	9	POET	1095	n/a	n/a	0	0	0
2162.594	n/a	START	1081297	n/a	LTP296	ltpFR2	12	n/a	n/a	n/a	12	n/a	n/a	n/a	n/a
2163.664	n/a	DISTRACTOR	1081832	n/a	LTP296	ltpFR2	12	9	n/a	n/a	n/a	n/a	0	0	0
2163.678	n/a	PROB	1081839	n/a	LTP296	ltpFR2	12	n/a	n/a	n/a	12	17	8	1	8
2164.978	n/a	PROB	1082489	n/a	LTP296	ltpFR2	12	n/a	n/a	n/a	12	10	7	2	1
2166.066	n/a	PROB	1083033	n/a	LTP296	ltpFR2	12	n/a	n/a	n/a	12	16	5	5	6
2167.114	n/a	PROB	1083557	n/a	LTP296	ltpFR2	12	n/a	n/a	n/a	12	12	1	4	7
2168.216	n/a	PROB	1084108	n/a	LTP296	ltpFR2	12	n/a	n/a	n/a	12	19	6	4	9
2169.65	n/a	PROB	1084825	n/a	LTP296	ltpFR2	12	n/a	n/a	n/a	12	14	5	3	6
2170.736	n/a	PROB	1085368	n/a	LTP296	ltpFR2	12	n/a	n/a	n/a	12	5	3	1	1
2171.904	n/a	PROB	1085952	n/a	LTP296	ltpFR2	12	n/a	n/a	n/a	12	17	8	3	6
2173.454	n/a	PROB	1086727	n/a	LTP296	ltpFR2	12	n/a	n/a	n/a	12	9	1	5	3
2175.738	n/a	PROB	1087869	n/a	LTP296	ltpFR2	12	n/a	n/a	n/a	12	14	9	3	2
2176.858	n/a	PROB	1088429	n/a	LTP296	ltpFR2	12	n/a	n/a	n/a	12	11	1	1	9
2177.858	n/a	PROB	1088929	n/a	LTP296	ltpFR2	12	n/a	n/a	n/a	12	11	1	1	9
2179.074	n/a	PROB	1089537	n/a	LTP296	ltpFR2	12	n/a	n/a	n/a	12	16	9	5	2
2181.026	n/a	PROB	1090513	n/a	LTP296	ltpFR2	12	n/a	n/a	n/a	12	17	9	2	6
2183.064	n/a	PROB	1091532	n/a	LTP296	ltpFR2	12	n/a	n/a	n/a	12	14	1	3	9
2185.68	n/a	STOP	1092840	n/a	LTP296	ltpFR2	12	n/a	n/a	n/a	12	n/a	n/a	n/a	n/a
2188.452	n/a	REC_START	1094226	n/a	LTP296	ltpFR2	12	9	n/a	n/a	n/a	n/a	0	0	0
2188.772	n/a	REC_WORD	1094386	wordpools/wasnorm_wordpool_576.txt	LTP296	ltpFR2	12	9	MUMMY	932	n/a	n/a	0	0	0
2189.568	n/a	REC_WORD	1094784	wordpools/wasnorm_wordpool_576.txt	LTP296	ltpFR2	12	9	TABLET	1427	n/a	n/a	0	0	0
2190.472	n/a	REC_WORD	1095236	wordpools/wasnorm_wordpool_576.txt	LTP296	ltpFR2	12	9	SCISSORS	1250	n/a	n/a	0	0	0
2191.54	n/a	REC_WORD	1095770	wordpools/wasnorm_wordpool_576.txt	LTP296	ltpFR2	12	9	KEEPER	769	n/a	n/a	0	0	0
2192.686	n/a	REC_WORD	1096343	wordpools/wasnorm_wordpool_576.txt	LTP296	ltpFR2	12	9	BLACKBOARD	133	n/a	n/a	0	0	0
2193.792	n/a	REC_WORD	1096896	wordpools/wasnorm_wordpool_576.txt	LTP296	ltpFR2	12	9	BOARD	143	n/a	n/a	0	0	0
2194.746	n/a	REC_WORD	1097373	wordpools/wasnorm_wordpool_576.txt	LTP296	ltpFR2	12	9	TABLET	1427	n/a	n/a	0	0	0
2195.662	n/a	REC_WORD	1097831	wordpools/wasnorm_wordpool_576.txt	LTP296	ltpFR2	12	9	FRIAR	605	n/a	n/a	0	0	0
2198.536	n/a	REC_WORD	1099268	wordpools/wasnorm_wordpool_576.txt	LTP296	ltpFR2	12	9	TOASTER	1472	n/a	n/a	0	0	0
2202.078	n/a	REC_WORD	1101039	wordpools/wasnorm_wordpool_576.txt	LTP296	ltpFR2	12	9	HIGHWAY	707	n/a	n/a	0	0	0
2202.686	n/a	REC_WORD	1101343	wordpools/wasnorm_wordpool_576.txt	LTP296	ltpFR2	12	9	EGYPT	519	n/a	n/a	0	0	0
2278.874	n/a	DISTRACTOR	1139437	n/a	LTP296	ltpFR2	12	10	n/a	n/a	n/a	n/a	0	0	0
2278.874	n/a	START	1139437	n/a	LTP296	ltpFR2	12	n/a	n/a	n/a	13	n/a	n/a	n/a	n/a
2278.888	n/a	PROB	1139444	n/a	LTP296	ltpFR2	12	n/a	n/a	n/a	13	18	9	3	6
2280.224	n/a	PROB	1140112	n/a	LTP296	ltpFR2	12	n/a	n/a	n/a	13	16	8	2	6
2281.706	n/a	PROB	1140853	n/a	LTP296	ltpFR2	12	n/a	n/a	n/a	13	11	4	5	2
2282.858	n/a	PROB	1141429	n/a	LTP296	ltpFR2	12	n/a	n/a	n/a	13	2	8	8	7
2283.96	n/a	PROB	1141980	n/a	LTP296	ltpFR2	12	n/a	n/a	n/a	13	16	3	9	4
2285.876	n/a	PROB	1142938	n/a	LTP296	ltpFR2	12	n/a	n/a	n/a	13	22	7	8	7
2287.844	n/a	PROB	1143922	n/a	LTP296	ltpFR2	12	n/a	n/a	n/a	13	7	3	3	1
2288.964	n/a	PROB	1144482	n/a	LTP296	ltpFR2	12	n/a	n/a	n/a	13	16	6	7	3
2291.398	n/a	PROB	1145699	n/a	LTP296	ltpFR2	12	n/a	n/a	n/a	13	8	5	1	2
2292.664	n/a	PROB	1146332	n/a	LTP296	ltpFR2	12	n/a	n/a	n/a	13	17	7	2	8
2294.168	n/a	PROB	1147084	n/a	LTP296	ltpFR2	12	n/a	n/a	n/a	13	13	2	2	9
2296.234	n/a	PROB	1148117	n/a	LTP296	ltpFR2	12	n/a	n/a	n/a	13	16	6	1	9
2297.786	n/a	PROB	1148893	n/a	LTP296	ltpFR2	12	n/a	n/a	n/a	13	20	7	8	5
2300.654	n/a	PROB	1150327	n/a	LTP296	ltpFR2	12	n/a	n/a	n/a	13	18	9	4	5
2302.442	n/a	STOP	1151221	n/a	LTP296	ltpFR2	12	n/a	n/a	n/a	13	n/a	n/a	n/a	n/a
2303.808	n/a	WORD	1151904	wordpools/wasnorm_wordpool_576.txt	LTP296	ltpFR2	12	10	SWITCH	1422	n/a	n/a	0	0	0
2306.51	n/a	WORD	1153255	wordpools/wasnorm_wordpool_576.txt	LTP296	ltpFR2	12	10	SHRUB	1299	n/a	n/a	0	0	0
2309.18	n/a	WORD	1154590	wordpools/wasnorm_wordpool_576.txt	LTP296	ltpFR2	12	10	WRIST	1626	n/a	n/a	0	0	0
2311.772	n/a	WORD	1155886	wordpools/wasnorm_wordpool_576.txt	LTP296	ltpFR2	12	10	FIDDLE	561	n/a	n/a	0	0	0
2314.54	n/a	WORD	1157270	wordpools/wasnorm_wordpool_576.txt	LTP296	ltpFR2	12	10	STAPLE	1371	n/a	n/a	0	0	0
2317.026	n/a	WORD	1158513	wordpools/wasnorm_wordpool_576.txt	LTP296	ltpFR2	12	10	GHETTO	633	n/a	n/a	0	0	0
2319.486	n/a	WORD	1159743	wordpools/wasnorm_wordpool_576.txt	LTP296	ltpFR2	12	10	HEART	697	n/a	n/a	0	0	0
2322.124	n/a	WORD	1161062	wordpools/wasnorm_wordpool_576.txt	LTP296	ltpFR2	12	10	DONOR	485	n/a	n/a	0	0	0
2324.682	n/a	WORD	1162341	wordpools/wasnorm_wordpool_576.txt	LTP296	ltpFR2	12	10	REBEL	1172	n/a	n/a	0	0	0
2327.426	n/a	WORD	1163713	wordpools/wasnorm_wordpool_576.txt	LTP296	ltpFR2	12	10	GLOVE	642	n/a	n/a	0	0	0
2330.078	n/a	WORD	1165039	wordpools/wasnorm_wordpool_576.txt	LTP296	ltpFR2	12	10	BEAST	108	n/a	n/a	0	0	0
2332.764	n/a	WORD	1166382	wordpools/wasnorm_wordpool_576.txt	LTP296	ltpFR2	12	10	COD	340	n/a	n/a	0	0	0
2335.44	n/a	WORD	1167720	wordpools/wasnorm_wordpool_576.txt	LTP296	ltpFR2	12	10	CLAM	315	n/a	n/a	0	0	0
2338.194	n/a	WORD	1169097	wordpools/wasnorm_wordpool_576.txt	LTP296	ltpFR2	12	10	LUMBER	848	n/a	n/a	0	0	0
2340.686	n/a	WORD	1170343	wordpools/wasnorm_wordpool_576.txt	LTP296	ltpFR2	12	10	FOOT	590	n/a	n/a	0	0	0
2343.298	n/a	WORD	1171649	wordpools/wasnorm_wordpool_576.txt	LTP296	ltpFR2	12	10	DONKEY	484	n/a	n/a	0	0	0
2345.892	n/a	WORD	1172946	wordpools/wasnorm_wordpool_576.txt	LTP296	ltpFR2	12	10	DOUGHNUT	490	n/a	n/a	0	0	0
2348.394	n/a	WORD	1174197	wordpools/wasnorm_wordpool_576.txt	LTP296	ltpFR2	12	10	HAND	683	n/a	n/a	0	0	0
2351.156	n/a	WORD	1175578	wordpools/wasnorm_wordpool_576.txt	LTP296	ltpFR2	12	10	FLASHLIGHT	575	n/a	n/a	0	0	0
2353.848	n/a	WORD	1176924	wordpools/wasnorm_wordpool_576.txt	LTP296	ltpFR2	12	10	ELBOW	520	n/a	n/a	0	0	0
2356.426	n/a	WORD	1178213	wordpools/wasnorm_wordpool_576.txt	LTP296	ltpFR2	12	10	FLESH	579	n/a	n/a	0	0	0
2359.162	n/a	WORD	1179581	wordpools/wasnorm_wordpool_576.txt	LTP296	ltpFR2	12	10	SALT	1229	n/a	n/a	0	0	0
2361.696	n/a	WORD	1180848	wordpools/wasnorm_wordpool_576.txt	LTP296	ltpFR2	12	10	LIGHTNING	820	n/a	n/a	0	0	0
2364.15	n/a	WORD	1182075	wordpools/wasnorm_wordpool_576.txt	LTP296	ltpFR2	12	10	BRACES	164	n/a	n/a	0	0	0
2365.768	n/a	START	1182884	n/a	LTP296	ltpFR2	12	n/a	n/a	n/a	14	n/a	n/a	n/a	n/a
2366.78	n/a	DISTRACTOR	1183390	n/a	LTP296	ltpFR2	12	10	n/a	n/a	n/a	n/a	0	0	0
2366.784	n/a	PROB	1183392	n/a	LTP296	ltpFR2	12	n/a	n/a	n/a	14	18	9	2	7
2370.076	n/a	PROB	1185038	n/a	LTP296	ltpFR2	12	n/a	n/a	n/a	14	23	9	9	6
2371.276	n/a	PROB	1185638	n/a	LTP296	ltpFR2	12	n/a	n/a	n/a	14	12	8	1	3
2372.544	n/a	PROB	1186272	n/a	LTP296	ltpFR2	12	n/a	n/a	n/a	14	13	6	2	5
2373.894	n/a	PROB	1186947	n/a	LTP296	ltpFR2	12	n/a	n/a	n/a	14	14	9	3	2
2375.314	n/a	PROB	1187657	n/a	LTP296	ltpFR2	12	n/a	n/a	n/a	14	18	5	8	6
2377.698	n/a	PROB	1188849	n/a	LTP296	ltpFR2	12	n/a	n/a	n/a	14	21	7	6	9
2379.584	n/a	PROB	1189792	n/a	LTP296	ltpFR2	12	n/a	n/a	n/a	14	18	7	7	4
2381.068	n/a	PROB	1190534	n/a	LTP296	ltpFR2	12	n/a	n/a	n/a	14	13	3	5	5
2382.068	n/a	PROB	1191034	n/a	LTP296	ltpFR2	12	n/a	n/a	n/a	14	22	8	8	6
2383.404	n/a	PROB	1191702	n/a	LTP296	ltpFR2	12	n/a	n/a	n/a	14	15	5	5	5
2384.286	n/a	PROB	1192143	n/a	LTP296	ltpFR2	12	n/a	n/a	n/a	14	17	4	6	7
2385.788	n/a	PROB	1192894	n/a	LTP296	ltpFR2	12	n/a	n/a	n/a	14	15	7	3	5
2389.768	n/a	STOP	1194884	n/a	LTP296	ltpFR2	12	n/a	n/a	n/a	14	n/a	n/a	n/a	n/a
2391.662	n/a	REC_START	1195831	n/a	LTP296	ltpFR2	12	10	n/a	n/a	n/a	n/a	0	0	0
2391.668	n/a	REC_WORD	1195834	wordpools/wasnorm_wordpool_576.txt	LTP296	ltpFR2	12	10	ELBOW	520	n/a	n/a	0	0	0
2392.234	n/a	REC_WORD	1196117	wordpools/wasnorm_wordpool_576.txt	LTP296	ltpFR2	12	10	WRIST	1626	n/a	n/a	0	0	0
2393.094	n/a	REC_WORD	1196547	wordpools/wasnorm_wordpool_576.txt	LTP296	ltpFR2	12	10	HEART	697	n/a	n/a	0	0	0
2394.044	n/a	REC_WORD	1197022	wordpools/wasnorm_wordpool_576.txt	LTP296	ltpFR2	12	10	DONOR	485	n/a	n/a	0	0	0
2394.83	n/a	REC_WORD	1197415	wordpools/wasnorm_wordpool_576.txt	LTP296	ltpFR2	12	10	BEAST	108	n/a	n/a	0	0	0
2395.564	n/a	REC_WORD	1197782	wordpools/wasnorm_wordpool_576.txt	LTP296	ltpFR2	12	10	COD	340	n/a	n/a	0	0	0
2396.488	n/a	REC_WORD	1198244	wordpools/wasnorm_wordpool_576.txt	LTP296	ltpFR2	12	10	CLAM	315	n/a	n/a	0	0	0
2397.314	n/a	REC_WORD	1198657	wordpools/wasnorm_wordpool_576.txt	LTP296	ltpFR2	12	10	DONKEY	484	n/a	n/a	0	0	0
2398.314	n/a	REC_WORD	1199157	wordpools/wasnorm_wordpool_576.txt	LTP296	ltpFR2	12	10	DOUGHNUT	490	n/a	n/a	0	0	0
2399.21	n/a	REC_WORD	1199605	wordpools/wasnorm_wordpool_576.txt	LTP296	ltpFR2	12	10	SALT	1229	n/a	n/a	0	0	0
2460.9	n/a	REC_WORD	1230450	wordpools/wasnorm_wordpool_576.txt	LTP296	ltpFR2	12	10	FOOT	590	n/a	n/a	0	0	0
2482.114	n/a	WORD	1241057	wordpools/wasnorm_wordpool_576.txt	LTP296	ltpFR2	12	11	TOMBSTONE	1478	n/a	n/a	0	0	0
2484.548	n/a	WORD	1242274	wordpools/wasnorm_wordpool_576.txt	LTP296	ltpFR2	12	11	ANTLER	29	n/a	n/a	0	0	0
2487.184	n/a	WORD	1243592	wordpools/wasnorm_wordpool_576.txt	LTP296	ltpFR2	12	11	TUBA	1515	n/a	n/a	0	0	0
2489.988	n/a	WORD	1244994	wordpools/wasnorm_wordpool_576.txt	LTP296	ltpFR2	12	11	BANJO	82	n/a	n/a	0	0	0
2492.806	n/a	WORD	1246403	wordpools/wasnorm_wordpool_576.txt	LTP296	ltpFR2	12	11	BATHTUB	100	n/a	n/a	0	0	0
2495.442	n/a	WORD	1247721	wordpools/wasnorm_wordpool_576.txt	LTP296	ltpFR2	12	11	SHERIFF	1284	n/a	n/a	0	0	0
2497.926	n/a	WORD	1248963	wordpools/wasnorm_wordpool_576.txt	LTP296	ltpFR2	12	11	SUBWAY	1400	n/a	n/a	0	0	0
2500.362	n/a	WORD	1250181	wordpools/wasnorm_wordpool_576.txt	LTP296	ltpFR2	12	11	FREEZER	604	n/a	n/a	0	0	0
2503.052	n/a	WORD	1251526	wordpools/wasnorm_wordpool_576.txt	LTP296	ltpFR2	12	11	CASKET	255	n/a	n/a	0	0	0
2505.564	n/a	WORD	1252782	wordpools/wasnorm_wordpool_576.txt	LTP296	ltpFR2	12	11	BABY	64	n/a	n/a	0	0	0
2508.156	n/a	WORD	1254078	wordpools/wasnorm_wordpool_576.txt	LTP296	ltpFR2	12	11	PARENT	1013	n/a	n/a	0	0	0
2510.768	n/a	WORD	1255384	wordpools/wasnorm_wordpool_576.txt	LTP296	ltpFR2	12	11	INMATE	738	n/a	n/a	0	0	0
2513.406	n/a	WORD	1256703	wordpools/wasnorm_wordpool_576.txt	LTP296	ltpFR2	12	11	MATTRESS	879	n/a	n/a	0	0	0
2516.14	n/a	WORD	1258070	wordpools/wasnorm_wordpool_576.txt	LTP296	ltpFR2	12	11	ORCHID	982	n/a	n/a	0	0	0
2518.742	n/a	WORD	1259371	wordpools/wasnorm_wordpool_576.txt	LTP296	ltpFR2	12	11	MESSAGE	888	n/a	n/a	0	0	0
2521.3	n/a	WORD	1260650	wordpools/wasnorm_wordpool_576.txt	LTP296	ltpFR2	12	11	WIDOW	1608	n/a	n/a	0	0	0
2524.016	n/a	WORD	1262008	wordpools/wasnorm_wordpool_576.txt	LTP296	ltpFR2	12	11	THREAD	1460	n/a	n/a	0	0	0
2526.454	n/a	WORD	1263227	wordpools/wasnorm_wordpool_576.txt	LTP296	ltpFR2	12	11	COFFEE	341	n/a	n/a	0	0	0
2529.124	n/a	WORD	1264562	wordpools/wasnorm_wordpool_576.txt	LTP296	ltpFR2	12	11	PLATE	1086	n/a	n/a	0	0	0
2531.552	n/a	WORD	1265776	wordpools/wasnorm_wordpool_576.txt	LTP296	ltpFR2	12	11	STAKE	1368	n/a	n/a	0	0	0
2534.262	n/a	WORD	1267131	wordpools/wasnorm_wordpool_576.txt	LTP296	ltpFR2	12	11	LAPEL	800	n/a	n/a	0	0	0
2536.712	n/a	WORD	1268356	wordpools/wasnorm_wordpool_576.txt	LTP296	ltpFR2	12	11	SUSPECT	1415	n/a	n/a	0	0	0
2539.43	n/a	WORD	1269715	wordpools/wasnorm_wordpool_576.txt	LTP296	ltpFR2	12	11	NAPKIN	937	n/a	n/a	0	0	0
2542.094	n/a	WORD	1271047	wordpools/wasnorm_wordpool_576.txt	LTP296	ltpFR2	12	11	PAPER	1011	n/a	n/a	0	0	0
2543.702	n/a	START	1271851	n/a	LTP296	ltpFR2	12	n/a	n/a	n/a	15	n/a	n/a	n/a	n/a
2544.712	n/a	DISTRACTOR	1272356	n/a	LTP296	ltpFR2	12	11	n/a	n/a	n/a	n/a	0	0	0
2544.718	n/a	PROB	1272359	n/a	LTP296	ltpFR2	12	n/a	n/a	n/a	15	17	2	5	8
2546.578	n/a	PROB	1273289	n/a	LTP296	ltpFR2	12	n/a	n/a	n/a	15	14	4	7	3
2549.184	n/a	PROB	1274592	n/a	LTP296	ltpFR2	12	n/a	n/a	n/a	15	18	7	4	7
2550.834	n/a	PROB	1275417	n/a	LTP296	ltpFR2	12	n/a	n/a	n/a	15	14	3	5	6
2552.216	n/a	PROB	1276108	n/a	LTP296	ltpFR2	12	n/a	n/a	n/a	15	13	1	2	9
2554.102	n/a	PROB	1277051	n/a	LTP296	ltpFR2	12	n/a	n/a	n/a	15	16	6	2	8
2555.404	n/a	PROB	1277702	n/a	LTP296	ltpFR2	12	n/a	n/a	n/a	15	10	8	1	1
2556.536	n/a	PROB	1278268	n/a	LTP296	ltpFR2	12	n/a	n/a	n/a	15	6	1	1	4
2557.572	n/a	PROB	1278786	n/a	LTP296	ltpFR2	12	n/a	n/a	n/a	15	20	6	5	9
2559.472	n/a	PROB	1279736	n/a	LTP296	ltpFR2	12	n/a	n/a	n/a	15	25	8	2	9
2561.142	n/a	PROB	1280571	n/a	LTP296	ltpFR2	12	n/a	n/a	n/a	15	12	5	3	4
2563.394	n/a	PROB	1281697	n/a	LTP296	ltpFR2	12	n/a	n/a	n/a	15	15	1	8	6
2564.978	n/a	PROB	1282489	n/a	LTP296	ltpFR2	12	n/a	n/a	n/a	15	8	6	1	1
2566.128	n/a	PROB	1283064	n/a	LTP296	ltpFR2	12	n/a	n/a	n/a	15	13	7	2	4
2567.488	n/a	STOP	1283744	n/a	LTP296	ltpFR2	12	n/a	n/a	n/a	15	n/a	n/a	n/a	n/a
2569.566	n/a	REC_START	1284783	n/a	LTP296	ltpFR2	12	11	n/a	n/a	n/a	n/a	0	0	0
2570.054	n/a	REC_WORD	1285027	wordpools/wasnorm_wordpool_576.txt	LTP296	ltpFR2	12	11	TUBA	1515	n/a	n/a	0	0	0
2570.674	n/a	REC_WORD	1285337	wordpools/wasnorm_wordpool_576.txt	LTP296	ltpFR2	12	11	BANJO	82	n/a	n/a	0	0	0
2571.774	n/a	REC_WORD	1285887	wordpools/wasnorm_wordpool_576.txt	LTP296	ltpFR2	12	11	BABY	64	n/a	n/a	0	0	0
2572.774	n/a	REC_WORD	1286387	wordpools/wasnorm_wordpool_576.txt	LTP296	ltpFR2	12	11	PARENT	1013	n/a	n/a	0	0	0
2573.684	n/a	REC_WORD	1286842	wordpools/wasnorm_wordpool_576.txt	LTP296	ltpFR2	12	11	INMATE	738	n/a	n/a	0	0	0
2574.438	n/a	REC_WORD	1287219	wordpools/wasnorm_wordpool_576.txt	LTP296	ltpFR2	12	11	WINDOW	1611	n/a	n/a	0	0	0
2575.172	n/a	REC_WORD	1287586	wordpools/wasnorm_wordpool_576.txt	LTP296	ltpFR2	12	11	TOMBSTONE	1478	n/a	n/a	0	0	0
2576.154	n/a	REC_WORD	1288077	wordpools/wasnorm_wordpool_576.txt	LTP296	ltpFR2	12	11	CASKET	255	n/a	n/a	0	0	0
2660.004	n/a	DISTRACTOR	1330002	n/a	LTP296	ltpFR2	12	12	n/a	n/a	n/a	n/a	0	0	0
2660.004	n/a	START	1330002	n/a	LTP296	ltpFR2	12	n/a	n/a	n/a	16	n/a	n/a	n/a	n/a
2660.018	n/a	PROB	1330009	n/a	LTP296	ltpFR2	12	n/a	n/a	n/a	16	18	7	9	2
2661.886	n/a	PROB	1330943	n/a	LTP296	ltpFR2	12	n/a	n/a	n/a	16	23	7	9	7
2664.622	n/a	PROB	1332311	n/a	LTP296	ltpFR2	12	n/a	n/a	n/a	16	16	4	8	4
2666.356	n/a	PROB	1333178	n/a	LTP296	ltpFR2	12	n/a	n/a	n/a	16	14	5	4	5
2668.524	n/a	PROB	1334262	n/a	LTP296	ltpFR2	12	n/a	n/a	n/a	16	19	7	3	9
2669.894	n/a	PROB	1334947	n/a	LTP296	ltpFR2	12	n/a	n/a	n/a	16	5	3	1	1
2670.808	n/a	PROB	1335404	n/a	LTP296	ltpFR2	12	n/a	n/a	n/a	16	11	6	5	5
2672.694	n/a	PROB	1336347	n/a	LTP296	ltpFR2	12	n/a	n/a	n/a	16	22	7	9	6
2674.744	n/a	PROB	1337372	n/a	LTP296	ltpFR2	12	n/a	n/a	n/a	16	16	6	3	7
2676.146	n/a	PROB	1338073	n/a	LTP296	ltpFR2	12	n/a	n/a	n/a	16	6	2	1	3
2677.248	n/a	PROB	1338624	n/a	LTP296	ltpFR2	12	n/a	n/a	n/a	16	16	2	5	9
2679.182	n/a	PROB	1339591	n/a	LTP296	ltpFR2	12	n/a	n/a	n/a	16	15	3	4	8
2680.418	n/a	PROB	1340209	n/a	LTP296	ltpFR2	12	n/a	n/a	n/a	16	20	8	6	6
2684.004	n/a	STOP	1342002	n/a	LTP296	ltpFR2	12	n/a	n/a	n/a	16	n/a	n/a	n/a	n/a
2684.956	n/a	WORD	1342478	wordpools/wasnorm_wordpool_576.txt	LTP296	ltpFR2	12	12	LABEL	790	n/a	n/a	0	0	0
2687.622	n/a	WORD	1343811	wordpools/wasnorm_wordpool_576.txt	LTP296	ltpFR2	12	12	DRESS	495	n/a	n/a	0	0	0
2690.144	n/a	WORD	1345072	wordpools/wasnorm_wordpool_576.txt	LTP296	ltpFR2	12	12	CASHEW	253	n/a	n/a	0	0	0
2692.93	n/a	WORD	1346465	wordpools/wasnorm_wordpool_576.txt	LTP296	ltpFR2	12	12	MOP	916	n/a	n/a	0	0	0
2695.68	n/a	WORD	1347840	wordpools/wasnorm_wordpool_576.txt	LTP296	ltpFR2	12	12	BULLET	194	n/a	n/a	0	0	0
2698.316	n/a	WORD	1349158	wordpools/wasnorm_wordpool_576.txt	LTP296	ltpFR2	12	12	SPIDER	1351	n/a	n/a	0	0	0
2700.852	n/a	WORD	1350426	wordpools/wasnorm_wordpool_576.txt	LTP296	ltpFR2	12	12	STONE	1385	n/a	n/a	0	0	0
2703.67	n/a	WORD	1351835	wordpools/wasnorm_wordpool_576.txt	LTP296	ltpFR2	12	12	ZIPPER	1636	n/a	n/a	0	0	0
2706.322	n/a	WORD	1353161	wordpools/wasnorm_wordpool_576.txt	LTP296	ltpFR2	12	12	ROD	1203	n/a	n/a	0	0	0
2708.858	n/a	WORD	1354429	wordpools/wasnorm_wordpool_576.txt	LTP296	ltpFR2	12	12	CORAL	378	n/a	n/a	0	0	0
2711.376	n/a	WORD	1355688	wordpools/wasnorm_wordpool_576.txt	LTP296	ltpFR2	12	12	PEBBLE	1035	n/a	n/a	0	0	0
2714.094	n/a	WORD	1357047	wordpools/wasnorm_wordpool_576.txt	LTP296	ltpFR2	12	12	DRESSER	496	n/a	n/a	0	0	0
2716.832	n/a	WORD	1358416	wordpools/wasnorm_wordpool_576.txt	LTP296	ltpFR2	12	12	BINDER	127	n/a	n/a	0	0	0
2719.348	n/a	WORD	1359674	wordpools/wasnorm_wordpool_576.txt	LTP296	ltpFR2	12	12	CABIN	211	n/a	n/a	0	0	0
2722.034	n/a	WORD	1361017	wordpools/wasnorm_wordpool_576.txt	LTP296	ltpFR2	12	12	THIEF	1456	n/a	n/a	0	0	0
2724.77	n/a	WORD	1362385	wordpools/wasnorm_wordpool_576.txt	LTP296	ltpFR2	12	12	CONVICT	371	n/a	n/a	0	0	0
2727.388	n/a	WORD	1363694	wordpools/wasnorm_wordpool_576.txt	LTP296	ltpFR2	12	12	WIFE	1609	n/a	n/a	0	0	0
2730.058	n/a	WORD	1365029	wordpools/wasnorm_wordpool_576.txt	LTP296	ltpFR2	12	12	SHELTER	1282	n/a	n/a	0	0	0
2732.608	n/a	WORD	1366304	wordpools/wasnorm_wordpool_576.txt	LTP296	ltpFR2	12	12	WITNESS	1618	n/a	n/a	0	0	0
2735.294	n/a	WORD	1367647	wordpools/wasnorm_wordpool_576.txt	LTP296	ltpFR2	12	12	COUCH	386	n/a	n/a	0	0	0
2738.018	n/a	WORD	1369009	wordpools/wasnorm_wordpool_576.txt	LTP296	ltpFR2	12	12	CAPTIVE	240	n/a	n/a	0	0	0
2740.682	n/a	WORD	1370341	wordpools/wasnorm_wordpool_576.txt	LTP296	ltpFR2	12	12	JELLO	754	n/a	n/a	0	0	0
2743.1	n/a	WORD	1371550	wordpools/wasnorm_wordpool_576.txt	LTP296	ltpFR2	12	12	CUSTARD	429	n/a	n/a	0	0	0
2745.652	n/a	WORD	1372826	wordpools/wasnorm_wordpool_576.txt	LTP296	ltpFR2	12	12	PANTHER	1009	n/a	n/a	0	0	0
2747.26	n/a	START	1373630	n/a	LTP296	ltpFR2	12	n/a	n/a	n/a	17	n/a	n/a	n/a	n/a
2748.216	n/a	DISTRACTOR	1374108	n/a	LTP296	ltpFR2	12	12	n/a	n/a	n/a	n/a	0	0	0
2748.222	n/a	PROB	1374111	n/a	LTP296	ltpFR2	12	n/a	n/a	n/a	17	15	6	8	1
2750.704	n/a	PROB	1375352	n/a	LTP296	ltpFR2	12	n/a	n/a	n/a	17	19	7	9	3
2752.39	n/a	PROB	1376195	n/a	LTP296	ltpFR2	12	n/a	n/a	n/a	17	12	2	8	2
2753.69	n/a	PROB	1376845	n/a	LTP296	ltpFR2	12	n/a	n/a	n/a	17	11	6	3	2
2754.858	n/a	PROB	1377429	n/a	LTP296	ltpFR2	12	n/a	n/a	n/a	17	11	8	2	1
2755.944	n/a	PROB	1377972	n/a	LTP296	ltpFR2	12	n/a	n/a	n/a	17	17	9	3	5
2757.544	n/a	PROB	1378772	n/a	LTP296	ltpFR2	12	n/a	n/a	n/a	17	13	5	6	2
2758.996	n/a	PROB	1379498	n/a	LTP296	ltpFR2	12	n/a	n/a	n/a	17	14	5	3	6
2761.098	n/a	PROB	1380549	n/a	LTP296	ltpFR2	12	n/a	n/a	n/a	17	18	8	2	8
2762.498	n/a	PROB	1381249	n/a	LTP296	ltpFR2	12	n/a	n/a	n/a	17	14	4	9	1
2764.184	n/a	PROB	1382092	n/a	LTP296	ltpFR2	12	n/a	n/a	n/a	17	26	9	8	9
2765.818	n/a	PROB	1382909	n/a	LTP296	ltpFR2	12	n/a	n/a	n/a	17	21	9	9	3
2767.402	n/a	PROB	1383701	n/a	LTP296	ltpFR2	12	n/a	n/a	n/a	17	20	6	9	5
2769.02	n/a	PROB	1384510	n/a	LTP296	ltpFR2	12	n/a	n/a	n/a	17	19	7	8	4
2770.924	n/a	STOP	1385462	n/a	LTP296	ltpFR2	12	n/a	n/a	n/a	17	n/a	n/a	n/a	n/a
2773.008	n/a	REC_START	1386504	n/a	LTP296	ltpFR2	12	12	n/a	n/a	n/a	n/a	0	0	0
2774.514	n/a	REC_WORD	1387257	wordpools/wasnorm_wordpool_576.txt	LTP296	ltpFR2	12	12	CASHEW	253	n/a	n/a	0	0	0
2775.626	n/a	REC_WORD	1387813	wordpools/wasnorm_wordpool_576.txt	LTP296	ltpFR2	12	12	SPIDER	1351	n/a	n/a	0	0	0
2776.964	n/a	REC_WORD	1388482	wordpools/wasnorm_wordpool_576.txt	LTP296	ltpFR2	12	12	JELLO	754	n/a	n/a	0	0	0
2778.48	n/a	REC_WORD	1389240	wordpools/wasnorm_wordpool_576.txt	LTP296	ltpFR2	12	12	LABEL	790	n/a	n/a	0	0	0
2779.83	n/a	REC_WORD	1389915	wordpools/wasnorm_wordpool_576.txt	LTP296	ltpFR2	12	12	DRESS	495	n/a	n/a	0	0	0
2781.026	n/a	REC_WORD	1390513	wordpools/wasnorm_wordpool_576.txt	LTP296	ltpFR2	12	12	ZIPPER	1636	n/a	n/a	0	0	0
2782.306	n/a	REC_WORD	1391153	wordpools/wasnorm_wordpool_576.txt	LTP296	ltpFR2	12	12	MOP	916	n/a	n/a	0	0	0
2783.962	n/a	REC_WORD	1391981	wordpools/wasnorm_wordpool_576.txt	LTP296	ltpFR2	12	12	INMATE	738	n/a	n/a	0	0	0
2785.584	n/a	REC_WORD	1392792	wordpools/wasnorm_wordpool_576.txt	LTP296	ltpFR2	12	12	CABIN	211	n/a	n/a	0	0	0
2788.41	n/a	REC_WORD	1394205	wordpools/wasnorm_wordpool_576.txt	LTP296	ltpFR2	12	12	COUCH	386	n/a	n/a	0	0	0
2791.092	n/a	REC_WORD	1395546	wordpools/wasnorm_wordpool_576.txt	LTP296	ltpFR2	12	12	SHELTER	1282	n/a	n/a	0	0	0
2794.442	n/a	REC_WORD	1397221	wordpools/wasnorm_wordpool_576.txt	LTP296	ltpFR2	12	12	WIFE	1609	n/a	n/a	0	0	0
2863.424	n/a	DISTRACTOR	1431712	n/a	LTP296	ltpFR2	12	13	n/a	n/a	n/a	n/a	0	0	0
2863.424	n/a	START	1431712	n/a	LTP296	ltpFR2	12	n/a	n/a	n/a	18	n/a	n/a	n/a	n/a
2863.438	n/a	PROB	1431719	n/a	LTP296	ltpFR2	12	n/a	n/a	n/a	18	17	5	9	3
2865.364	n/a	PROB	1432682	n/a	LTP296	ltpFR2	12	n/a	n/a	n/a	18	17	8	8	1
2866.562	n/a	PROB	1433281	n/a	LTP296	ltpFR2	12	n/a	n/a	n/a	18	14	5	7	2
2867.78	n/a	PROB	1433890	n/a	LTP296	ltpFR2	12	n/a	n/a	n/a	18	15	5	1	9
2869.066	n/a	PROB	1434533	n/a	LTP296	ltpFR2	12	n/a	n/a	n/a	18	23	9	4	8
2870.712	n/a	PROB	1435356	n/a	LTP296	ltpFR2	12	n/a	n/a	n/a	18	18	9	2	7
2872.97	n/a	PROB	1436485	n/a	LTP296	ltpFR2	12	n/a	n/a	n/a	18	16	3	5	8
2873.988	n/a	PROB	1436994	n/a	LTP296	ltpFR2	12	n/a	n/a	n/a	18	19	6	5	8
2875.372	n/a	PROB	1437686	n/a	LTP296	ltpFR2	12	n/a	n/a	n/a	18	23	8	9	5
2877.018	n/a	PROB	1438509	n/a	LTP296	ltpFR2	12	n/a	n/a	n/a	18	10	3	3	4
2878.3	n/a	PROB	1439150	n/a	LTP296	ltpFR2	12	n/a	n/a	n/a	18	15	1	5	9
2879.602	n/a	PROB	1439801	n/a	LTP296	ltpFR2	12	n/a	n/a	n/a	18	15	5	7	3
2881.774	n/a	PROB	1440887	n/a	LTP296	ltpFR2	12	n/a	n/a	n/a	18	13	3	8	1
2883.222	n/a	PROB	1441611	n/a	LTP296	ltpFR2	12	n/a	n/a	n/a	18	15	2	5	8
2885.158	n/a	PROB	1442579	n/a	LTP296	ltpFR2	12	n/a	n/a	n/a	18	10	1	6	3
2886.878	n/a	STOP	1443439	n/a	LTP296	ltpFR2	12	n/a	n/a	n/a	18	n/a	n/a	n/a	n/a
2888.61	n/a	WORD	1444305	wordpools/wasnorm_wordpool_576.txt	LTP296	ltpFR2	12	13	SLUG	1329	n/a	n/a	0	0	0
2891.214	n/a	WORD	1445607	wordpools/wasnorm_wordpool_576.txt	LTP296	ltpFR2	12	13	ONION	977	n/a	n/a	0	0	0
2893.9	n/a	WORD	1446950	wordpools/wasnorm_wordpool_576.txt	LTP296	ltpFR2	12	13	GROUND	666	n/a	n/a	0	0	0
2896.568	n/a	WORD	1448284	wordpools/wasnorm_wordpool_576.txt	LTP296	ltpFR2	12	13	RUG	1215	n/a	n/a	0	0	0
2899.188	n/a	WORD	1449594	wordpools/wasnorm_wordpool_576.txt	LTP296	ltpFR2	12	13	EAGLE	512	n/a	n/a	0	0	0
2901.924	n/a	WORD	1450962	wordpools/wasnorm_wordpool_576.txt	LTP296	ltpFR2	12	13	TEACHER	1440	n/a	n/a	0	0	0
2904.574	n/a	WORD	1452287	wordpools/wasnorm_wordpool_576.txt	LTP296	ltpFR2	12	13	MOTOR	922	n/a	n/a	0	0	0
2907.194	n/a	WORD	1453597	wordpools/wasnorm_wordpool_576.txt	LTP296	ltpFR2	12	13	GALLON	618	n/a	n/a	0	0	0
2909.762	n/a	WORD	1454881	wordpools/wasnorm_wordpool_576.txt	LTP296	ltpFR2	12	13	COTTAGE	384	n/a	n/a	0	0	0
2912.198	n/a	WORD	1456099	wordpools/wasnorm_wordpool_576.txt	LTP296	ltpFR2	12	13	CRUTCH	417	n/a	n/a	0	0	0
2914.834	n/a	WORD	1457417	wordpools/wasnorm_wordpool_576.txt	LTP296	ltpFR2	12	13	PENGUIN	1044	n/a	n/a	0	0	0
2917.286	n/a	WORD	1458643	wordpools/wasnorm_wordpool_576.txt	LTP296	ltpFR2	12	13	STAR	1373	n/a	n/a	0	0	0
2919.904	n/a	WORD	1459952	wordpools/wasnorm_wordpool_576.txt	LTP296	ltpFR2	12	13	VENUS	1557	n/a	n/a	0	0	0
2922.372	n/a	WORD	1461186	wordpools/wasnorm_wordpool_576.txt	LTP296	ltpFR2	12	13	ATLAS	53	n/a	n/a	0	0	0
2924.958	n/a	WORD	1462479	wordpools/wasnorm_wordpool_576.txt	LTP296	ltpFR2	12	13	SHELF	1280	n/a	n/a	0	0	0
2927.56	n/a	WORD	1463780	wordpools/wasnorm_wordpool_576.txt	LTP296	ltpFR2	12	13	CRICKET	408	n/a	n/a	0	0	0
2930.33	n/a	WORD	1465165	wordpools/wasnorm_wordpool_576.txt	LTP296	ltpFR2	12	13	FRIEND	606	n/a	n/a	0	0	0
2933.032	n/a	WORD	1466516	wordpools/wasnorm_wordpool_576.txt	LTP296	ltpFR2	12	13	HAWK	692	n/a	n/a	0	0	0
2935.55	n/a	WORD	1467775	wordpools/wasnorm_wordpool_576.txt	LTP296	ltpFR2	12	13	CAMEL	223	n/a	n/a	0	0	0
2938.236	n/a	WORD	1469118	wordpools/wasnorm_wordpool_576.txt	LTP296	ltpFR2	12	13	CIGAR	308	n/a	n/a	0	0	0
2941.056	n/a	WORD	1470528	wordpools/wasnorm_wordpool_576.txt	LTP296	ltpFR2	12	13	DINER	467	n/a	n/a	0	0	0
2943.64	n/a	WORD	1471820	wordpools/wasnorm_wordpool_576.txt	LTP296	ltpFR2	12	13	BLUEPRINT	142	n/a	n/a	0	0	0
2946.16	n/a	WORD	1473080	wordpools/wasnorm_wordpool_576.txt	LTP296	ltpFR2	12	13	COURSE	390	n/a	n/a	0	0	0
2948.98	n/a	WORD	1474490	wordpools/wasnorm_wordpool_576.txt	LTP296	ltpFR2	12	13	LUNCH	849	n/a	n/a	0	0	0
2950.596	n/a	START	1475298	n/a	LTP296	ltpFR2	12	n/a	n/a	n/a	19	n/a	n/a	n/a	n/a
2951.668	n/a	DISTRACTOR	1475834	n/a	LTP296	ltpFR2	12	13	n/a	n/a	n/a	n/a	0	0	0
2951.68	n/a	PROB	1475840	n/a	LTP296	ltpFR2	12	n/a	n/a	n/a	19	12	1	6	5
2953.214	n/a	PROB	1476607	n/a	LTP296	ltpFR2	12	n/a	n/a	n/a	19	16	5	8	3
2954.598	n/a	PROB	1477299	n/a	LTP296	ltpFR2	12	n/a	n/a	n/a	19	20	9	9	2
2956.434	n/a	PROB	1478217	n/a	LTP296	ltpFR2	12	n/a	n/a	n/a	19	27	9	9	9
2959.988	n/a	PROB	1479994	n/a	LTP296	ltpFR2	12	n/a	n/a	n/a	19	9	7	1	1
2961.088	n/a	PROB	1480544	n/a	LTP296	ltpFR2	12	n/a	n/a	n/a	19	11	2	7	2
2962.286	n/a	PROB	1481143	n/a	LTP296	ltpFR2	12	n/a	n/a	n/a	19	15	8	4	3
2963.504	n/a	PROB	1481752	n/a	LTP296	ltpFR2	12	n/a	n/a	n/a	19	7	2	3	2
2964.954	n/a	PROB	1482477	n/a	LTP296	ltpFR2	12	n/a	n/a	n/a	19	23	8	6	9
2966.29	n/a	PROB	1483145	n/a	LTP296	ltpFR2	12	n/a	n/a	n/a	19	19	7	5	7
2967.792	n/a	PROB	1483896	n/a	LTP296	ltpFR2	12	n/a	n/a	n/a	19	17	7	5	5
2968.992	n/a	PROB	1484496	n/a	LTP296	ltpFR2	12	n/a	n/a	n/a	19	11	3	2	6
2970.542	n/a	PROB	1485271	n/a	LTP296	ltpFR2	12	n/a	n/a	n/a	19	11	6	2	3
2972.144	n/a	PROB	1486072	n/a	LTP296	ltpFR2	12	n/a	n/a	n/a	19	20	5	8	7
2973.926	n/a	STOP	1486963	n/a	LTP296	ltpFR2	12	n/a	n/a	n/a	19	n/a	n/a	n/a	n/a
2976.55	n/a	REC_START	1488275	n/a	LTP296	ltpFR2	12	13	n/a	n/a	n/a	n/a	0	0	0
2976.55	n/a	REC_WORD	1488275	wordpools/wasnorm_wordpool_576.txt	LTP296	ltpFR2	12	13	SLUG	1329	n/a	n/a	0	0	0
2977.692	n/a	REC_WORD	1488846	wordpools/wasnorm_wordpool_576.txt	LTP296	ltpFR2	12	13	RUG	1215	n/a	n/a	0	0	0
2978.612	n/a	REC_WORD	1489306	wordpools/wasnorm_wordpool_576.txt	LTP296	ltpFR2	12	13	EAGLE	512	n/a	n/a	0	0	0
2979.474	n/a	REC_WORD	1489737	wordpools/wasnorm_wordpool_576.txt	LTP296	ltpFR2	12	13	HAWK	692	n/a	n/a	0	0	0
2980.272	n/a	REC_WORD	1490136	wordpools/wasnorm_wordpool_576.txt	LTP296	ltpFR2	12	13	CAMEL	223	n/a	n/a	0	0	0
2981.792	n/a	REC_WORD	1490896	wordpools/wasnorm_wordpool_576.txt	LTP296	ltpFR2	12	13	GALLON	618	n/a	n/a	0	0	0
2983.388	n/a	REC_WORD	1491694	wordpools/wasnorm_wordpool_576.txt	LTP296	ltpFR2	12	13	VENUS	1557	n/a	n/a	0	0	0
2984.302	n/a	REC_WORD	1492151	wordpools/wasnorm_wordpool_576.txt	LTP296	ltpFR2	12	13	STAR	1373	n/a	n/a	0	0	0
3066.986	n/a	WORD	1533493	wordpools/wasnorm_wordpool_576.txt	LTP296	ltpFR2	12	14	GARBAGE	622	n/a	n/a	0	0	0
3069.8	n/a	WORD	1534900	wordpools/wasnorm_wordpool_576.txt	LTP296	ltpFR2	12	14	COWBOY	395	n/a	n/a	0	0	0
3072.434	n/a	WORD	1536217	wordpools/wasnorm_wordpool_576.txt	LTP296	ltpFR2	12	14	MISTER	901	n/a	n/a	0	0	0
3075.12	n/a	WORD	1537560	wordpools/wasnorm_wordpool_576.txt	LTP296	ltpFR2	12	14	WORLD	1622	n/a	n/a	0	0	0
3077.856	n/a	WORD	1538928	wordpools/wasnorm_wordpool_576.txt	LTP296	ltpFR2	12	14	GREASE	660	n/a	n/a	0	0	0
3080.358	n/a	WORD	1540179	wordpools/wasnorm_wordpool_576.txt	LTP296	ltpFR2	12	14	TILE	1468	n/a	n/a	0	0	0
3083.026	n/a	WORD	1541513	wordpools/wasnorm_wordpool_576.txt	LTP296	ltpFR2	12	14	FRANCE	601	n/a	n/a	0	0	0
3085.512	n/a	WORD	1542756	wordpools/wasnorm_wordpool_576.txt	LTP296	ltpFR2	12	14	FRUIT	610	n/a	n/a	0	0	0
3088.004	n/a	WORD	1544002	wordpools/wasnorm_wordpool_576.txt	LTP296	ltpFR2	12	14	FILM	565	n/a	n/a	0	0	0
3090.464	n/a	WORD	1545232	wordpools/wasnorm_wordpool_576.txt	LTP296	ltpFR2	12	14	CITRUS	313	n/a	n/a	0	0	0
3093.136	n/a	WORD	1546568	wordpools/wasnorm_wordpool_576.txt	LTP296	ltpFR2	12	14	CARROT	249	n/a	n/a	0	0	0
3095.922	n/a	WORD	1547961	wordpools/wasnorm_wordpool_576.txt	LTP296	ltpFR2	12	14	GLOBE	641	n/a	n/a	0	0	0
3098.394	n/a	WORD	1549197	wordpools/wasnorm_wordpool_576.txt	LTP296	ltpFR2	12	14	COBRA	336	n/a	n/a	0	0	0
3101.058	n/a	WORD	1550529	wordpools/wasnorm_wordpool_576.txt	LTP296	ltpFR2	12	14	CREATURE	403	n/a	n/a	0	0	0
3103.476	n/a	WORD	1551738	wordpools/wasnorm_wordpool_576.txt	LTP296	ltpFR2	12	14	BROOK	177	n/a	n/a	0	0	0
3105.964	n/a	WORD	1552982	wordpools/wasnorm_wordpool_576.txt	LTP296	ltpFR2	12	14	CANYON	235	n/a	n/a	0	0	0
3108.736	n/a	WORD	1554368	wordpools/wasnorm_wordpool_576.txt	LTP296	ltpFR2	12	14	NOMAD	955	n/a	n/a	0	0	0
3111.284	n/a	WORD	1555642	wordpools/wasnorm_wordpool_576.txt	LTP296	ltpFR2	12	14	CHIPMUNK	304	n/a	n/a	0	0	0
3114.086	n/a	WORD	1557043	wordpools/wasnorm_wordpool_576.txt	LTP296	ltpFR2	12	14	FINGER	567	n/a	n/a	0	0	0
3116.542	n/a	WORD	1558271	wordpools/wasnorm_wordpool_576.txt	LTP296	ltpFR2	12	14	RADISH	1158	n/a	n/a	0	0	0
3119.242	n/a	WORD	1559621	wordpools/wasnorm_wordpool_576.txt	LTP296	ltpFR2	12	14	SALAD	1224	n/a	n/a	0	0	0
3122.044	n/a	WORD	1561022	wordpools/wasnorm_wordpool_576.txt	LTP296	ltpFR2	12	14	ATOM	55	n/a	n/a	0	0	0
3124.498	n/a	WORD	1562249	wordpools/wasnorm_wordpool_576.txt	LTP296	ltpFR2	12	14	BARREL	91	n/a	n/a	0	0	0
3127.198	n/a	WORD	1563599	wordpools/wasnorm_wordpool_576.txt	LTP296	ltpFR2	12	14	LEG	809	n/a	n/a	0	0	0
3128.802	n/a	START	1564401	n/a	LTP296	ltpFR2	12	n/a	n/a	n/a	20	n/a	n/a	n/a	n/a
3129.892	n/a	DISTRACTOR	1564946	n/a	LTP296	ltpFR2	12	14	n/a	n/a	n/a	n/a	0	0	0
3129.9	n/a	PROB	1564950	n/a	LTP296	ltpFR2	12	n/a	n/a	n/a	20	19	5	5	9
3131.216	n/a	PROB	1565608	n/a	LTP296	ltpFR2	12	n/a	n/a	n/a	20	18	5	5	8
3132.602	n/a	PROB	1566301	n/a	LTP296	ltpFR2	12	n/a	n/a	n/a	20	18	7	8	2
3134.068	n/a	PROB	1567034	n/a	LTP296	ltpFR2	12	n/a	n/a	n/a	20	6	2	3	2
3135.922	n/a	PROB	1567961	n/a	LTP296	ltpFR2	12	n/a	n/a	n/a	20	21	9	8	4
3137.388	n/a	PROB	1568694	n/a	LTP296	ltpFR2	12	n/a	n/a	n/a	20	14	8	1	5
3140.808	n/a	PROB	1570404	n/a	LTP296	ltpFR2	12	n/a	n/a	n/a	20	16	3	6	8
3142.092	n/a	PROB	1571046	n/a	LTP296	ltpFR2	12	n/a	n/a	n/a	20	16	9	5	3
3144.176	n/a	PROB	1572088	n/a	LTP296	ltpFR2	12	n/a	n/a	n/a	20	9	1	1	7
3145.612	n/a	PROB	1572806	n/a	LTP296	ltpFR2	12	n/a	n/a	n/a	20	23	6	8	8
3147.362	n/a	PROB	1573681	n/a	LTP296	ltpFR2	12	n/a	n/a	n/a	20	14	5	1	8
3148.982	n/a	PROB	1574491	n/a	LTP296	ltpFR2	12	n/a	n/a	n/a	20	14	4	1	9
3151.546	n/a	STOP	1575773	n/a	LTP296	ltpFR2	12	n/a	n/a	n/a	20	n/a	n/a	n/a	n/a
3154.622	n/a	REC_START	1577311	n/a	LTP296	ltpFR2	12	14	n/a	n/a	n/a	n/a	0	0	0
3155.178	n/a	REC_WORD	1577589	wordpools/wasnorm_wordpool_576.txt	LTP296	ltpFR2	12	14	FRUIT	610	n/a	n/a	0	0	0
3155.716	n/a	REC_WORD	1577858	wordpools/wasnorm_wordpool_576.txt	LTP296	ltpFR2	12	14	CITRUS	313	n/a	n/a	0	0	0
3156.47	n/a	REC_WORD	1578235	wordpools/wasnorm_wordpool_576.txt	LTP296	ltpFR2	12	14	CARROT	249	n/a	n/a	0	0	0
3157.34	n/a	REC_WORD	1578670	wordpools/wasnorm_wordpool_576.txt	LTP296	ltpFR2	12	14	GREASE	660	n/a	n/a	0	0	0
3157.834	n/a	REC_WORD	1578917	wordpools/wasnorm_wordpool_576.txt	LTP296	ltpFR2	12	14	FRANCE	601	n/a	n/a	0	0	0
3158.768	n/a	REC_WORD	1579384	wordpools/wasnorm_wordpool_576.txt	LTP296	ltpFR2	12	14	SALAD	1224	n/a	n/a	0	0	0
3181.08	n/a	REC_WORD	1590540	wordpools/wasnorm_wordpool_576.txt	LTP296	ltpFR2	12	14	ELBOW	520	n/a	n/a	0	0	0
3193.338	n/a	REC_WORD	1596669	wordpools/wasnorm_wordpool_576.txt	LTP296	ltpFR2	12	14	COWBOY	395	n/a	n/a	0	0	0
3245.066	n/a	DISTRACTOR	1622533	n/a	LTP296	ltpFR2	12	15	n/a	n/a	n/a	n/a	0	0	0
3245.066	n/a	START	1622533	n/a	LTP296	ltpFR2	12	n/a	n/a	n/a	21	n/a	n/a	n/a	n/a
3245.08	n/a	PROB	1622540	n/a	LTP296	ltpFR2	12	n/a	n/a	n/a	21	16	5	8	3
3246.408	n/a	PROB	1623204	n/a	LTP296	ltpFR2	12	n/a	n/a	n/a	21	14	6	5	3
3248.776	n/a	PROB	1624388	n/a	LTP296	ltpFR2	12	n/a	n/a	n/a	21	18	4	7	7
3250.178	n/a	PROB	1625089	n/a	LTP296	ltpFR2	12	n/a	n/a	n/a	21	16	5	8	3
3251.762	n/a	PROB	1625881	n/a	LTP296	ltpFR2	12	n/a	n/a	n/a	21	8	3	2	3
3253.464	n/a	PROB	1626732	n/a	LTP296	ltpFR2	12	n/a	n/a	n/a	21	19	6	8	5
3255.866	n/a	PROB	1627933	n/a	LTP296	ltpFR2	12	n/a	n/a	n/a	21	12	5	2	5
3257.134	n/a	PROB	1628567	n/a	LTP296	ltpFR2	12	n/a	n/a	n/a	21	13	8	4	1
3259.652	n/a	PROB	1629826	n/a	LTP296	ltpFR2	12	n/a	n/a	n/a	21	15	6	5	4
3260.986	n/a	PROB	1630493	n/a	LTP296	ltpFR2	12	n/a	n/a	n/a	21	6	1	2	3
3261.97	n/a	PROB	1630985	n/a	LTP296	ltpFR2	12	n/a	n/a	n/a	21	18	5	3	9
3263.288	n/a	PROB	1631644	n/a	LTP296	ltpFR2	12	n/a	n/a	n/a	21	16	6	4	6
3264.638	n/a	PROB	1632319	n/a	LTP296	ltpFR2	12	n/a	n/a	n/a	21	10	6	2	2
3266.54	n/a	PROB	1633270	n/a	LTP296	ltpFR2	12	n/a	n/a	n/a	21	17	9	8	1
3268.746	n/a	STOP	1634373	n/a	LTP296	ltpFR2	12	n/a	n/a	n/a	21	n/a	n/a	n/a	n/a
3269.994	n/a	WORD	1634997	wordpools/wasnorm_wordpool_576.txt	LTP296	ltpFR2	12	15	POPCORN	1104	n/a	n/a	0	0	0
3272.746	n/a	WORD	1636373	wordpools/wasnorm_wordpool_576.txt	LTP296	ltpFR2	12	15	BLOCKADE	137	n/a	n/a	0	0	0
3275.54	n/a	WORD	1637770	wordpools/wasnorm_wordpool_576.txt	LTP296	ltpFR2	12	15	BRAKE	166	n/a	n/a	0	0	0
3278.208	n/a	WORD	1639104	wordpools/wasnorm_wordpool_576.txt	LTP296	ltpFR2	12	15	HOOK	715	n/a	n/a	0	0	0
3280.686	n/a	WORD	1640343	wordpools/wasnorm_wordpool_576.txt	LTP296	ltpFR2	12	15	BACKBONE	66	n/a	n/a	0	0	0
3283.172	n/a	WORD	1641586	wordpools/wasnorm_wordpool_576.txt	LTP296	ltpFR2	12	15	PLASTER	1085	n/a	n/a	0	0	0
3285.99	n/a	WORD	1642995	wordpools/wasnorm_wordpool_576.txt	LTP296	ltpFR2	12	15	COIN	343	n/a	n/a	0	0	0
3288.82	n/a	WORD	1644410	wordpools/wasnorm_wordpool_576.txt	LTP296	ltpFR2	12	15	CONTRACT	368	n/a	n/a	0	0	0
3291.262	n/a	WORD	1645631	wordpools/wasnorm_wordpool_576.txt	LTP296	ltpFR2	12	15	BLENDER	136	n/a	n/a	0	0	0
3294.064	n/a	WORD	1647032	wordpools/wasnorm_wordpool_576.txt	LTP296	ltpFR2	12	15	SKILLET	1317	n/a	n/a	0	0	0
3296.792	n/a	WORD	1648396	wordpools/wasnorm_wordpool_576.txt	LTP296	ltpFR2	12	15	CLOCK	325	n/a	n/a	0	0	0
3299.21	n/a	WORD	1649605	wordpools/wasnorm_wordpool_576.txt	LTP296	ltpFR2	12	15	JUGGLER	763	n/a	n/a	0	0	0
3301.802	n/a	WORD	1650901	wordpools/wasnorm_wordpool_576.txt	LTP296	ltpFR2	12	15	RACKET	1155	n/a	n/a	0	0	0
3304.372	n/a	WORD	1652186	wordpools/wasnorm_wordpool_576.txt	LTP296	ltpFR2	12	15	PRINCE	1124	n/a	n/a	0	0	0
3307.016	n/a	WORD	1653508	wordpools/wasnorm_wordpool_576.txt	LTP296	ltpFR2	12	15	GUARD	667	n/a	n/a	0	0	0
3309.434	n/a	WORD	1654717	wordpools/wasnorm_wordpool_576.txt	LTP296	ltpFR2	12	15	NURSE	963	n/a	n/a	0	0	0
3311.92	n/a	WORD	1655960	wordpools/wasnorm_wordpool_576.txt	LTP296	ltpFR2	12	15	CYCLONE	431	n/a	n/a	0	0	0
3314.406	n/a	WORD	1657203	wordpools/wasnorm_wordpool_576.txt	LTP296	ltpFR2	12	15	PARROT	1015	n/a	n/a	0	0	0
3317.148	n/a	WORD	1658574	wordpools/wasnorm_wordpool_576.txt	LTP296	ltpFR2	12	15	CRITIC	410	n/a	n/a	0	0	0
3319.682	n/a	WORD	1659841	wordpools/wasnorm_wordpool_576.txt	LTP296	ltpFR2	12	15	CEILING	265	n/a	n/a	0	0	0
3322.386	n/a	WORD	1661193	wordpools/wasnorm_wordpool_576.txt	LTP296	ltpFR2	12	15	GLASS	639	n/a	n/a	0	0	0
3325.088	n/a	WORD	1662544	wordpools/wasnorm_wordpool_576.txt	LTP296	ltpFR2	12	15	WAITER	1580	n/a	n/a	0	0	0
3327.588	n/a	WORD	1663794	wordpools/wasnorm_wordpool_576.txt	LTP296	ltpFR2	12	15	CLOUD	328	n/a	n/a	0	0	0
3330.386	n/a	WORD	1665193	wordpools/wasnorm_wordpool_576.txt	LTP296	ltpFR2	12	15	MUSTARD	935	n/a	n/a	0	0	0
3331.994	n/a	START	1665997	n/a	LTP296	ltpFR2	12	n/a	n/a	n/a	22	n/a	n/a	n/a	n/a
3333.106	n/a	DISTRACTOR	1666553	n/a	LTP296	ltpFR2	12	15	n/a	n/a	n/a	n/a	0	0	0
3333.112	n/a	PROB	1666556	n/a	LTP296	ltpFR2	12	n/a	n/a	n/a	22	17	3	8	6
3335.362	n/a	PROB	1667681	n/a	LTP296	ltpFR2	12	n/a	n/a	n/a	22	11	4	1	6
3336.728	n/a	PROB	1668364	n/a	LTP296	ltpFR2	12	n/a	n/a	n/a	22	12	9	1	2
3338.214	n/a	PROB	1669107	n/a	LTP296	ltpFR2	12	n/a	n/a	n/a	22	19	5	5	9
3340.4	n/a	PROB	1670200	n/a	LTP296	ltpFR2	12	n/a	n/a	n/a	22	13	1	3	9
3341.834	n/a	PROB	1670917	n/a	LTP296	ltpFR2	12	n/a	n/a	n/a	22	20	6	7	7
3343.784	n/a	PROB	1671892	n/a	LTP296	ltpFR2	12	n/a	n/a	n/a	22	10	5	2	3
3345.954	n/a	PROB	1672977	n/a	LTP296	ltpFR2	12	n/a	n/a	n/a	22	17	7	6	4
3347.554	n/a	PROB	1673777	n/a	LTP296	ltpFR2	12	n/a	n/a	n/a	22	18	4	5	9
3349.022	n/a	PROB	1674511	n/a	LTP296	ltpFR2	12	n/a	n/a	n/a	22	6	1	2	3
3350.072	n/a	PROB	1675036	n/a	LTP296	ltpFR2	12	n/a	n/a	n/a	22	25	7	8	8
3351.44	n/a	PROB	1675720	n/a	LTP296	ltpFR2	12	n/a	n/a	n/a	22	13	3	1	7
3353.126	n/a	PROB	1676563	n/a	LTP296	ltpFR2	12	n/a	n/a	n/a	22	13	7	3	3
3354.244	n/a	PROB	1677122	n/a	LTP296	ltpFR2	12	n/a	n/a	n/a	22	14	4	9	1
3355.684	n/a	STOP	1677842	n/a	LTP296	ltpFR2	12	n/a	n/a	n/a	22	n/a	n/a	n/a	n/a
3357.93	n/a	REC_START	1678965	n/a	LTP296	ltpFR2	12	15	n/a	n/a	n/a	n/a	0	0	0
3358.526	n/a	REC_WORD	1679263	wordpools/wasnorm_wordpool_576.txt	LTP296	ltpFR2	12	15	BLOCKADE	137	n/a	n/a	0	0	0
3359.434	n/a	REC_WORD	1679717	wordpools/wasnorm_wordpool_576.txt	LTP296	ltpFR2	12	15	BRAKE	166	n/a	n/a	0	0	0
3359.922	n/a	REC_WORD	1679961	wordpools/wasnorm_wordpool_576.txt	LTP296	ltpFR2	12	15	BACKBONE	66	n/a	n/a	0	0	0
3360.86	n/a	REC_WORD	1680430	wordpools/wasnorm_wordpool_576.txt	LTP296	ltpFR2	12	15	PRINCE	1124	n/a	n/a	0	0	0
3361.708	n/a	REC_WORD	1680854	wordpools/wasnorm_wordpool_576.txt	LTP296	ltpFR2	12	15	GUARD	667	n/a	n/a	0	0	0
3362.444	n/a	REC_WORD	1681222	wordpools/wasnorm_wordpool_576.txt	LTP296	ltpFR2	12	15	NURSE	963	n/a	n/a	0	0	0
3362.97	n/a	REC_WORD	1681485	wordpools/wasnorm_wordpool_576.txt	LTP296	ltpFR2	12	15	GLASS	639	n/a	n/a	0	0	0
3363.698	n/a	REC_WORD	1681849	wordpools/wasnorm_wordpool_576.txt	LTP296	ltpFR2	12	15	CEILING	265	n/a	n/a	0	0	0
3364.296	n/a	REC_WORD	1682148	wordpools/wasnorm_wordpool_576.txt	LTP296	ltpFR2	12	15	CLOUD	328	n/a	n/a	0	0	0
3448.398	n/a	WORD	1724199	wordpools/wasnorm_wordpool_576.txt	LTP296	ltpFR2	12	16	CHURCH	307	n/a	n/a	0	0	0
3450.886	n/a	WORD	1725443	wordpools/wasnorm_wordpool_576.txt	LTP296	ltpFR2	12	16	GRILL	661	n/a	n/a	0	0	0
3453.42	n/a	WORD	1726710	wordpools/wasnorm_wordpool_576.txt	LTP296	ltpFR2	12	16	SLOPE	1328	n/a	n/a	0	0	0
3455.908	n/a	WORD	1727954	wordpools/wasnorm_wordpool_576.txt	LTP296	ltpFR2	12	16	MAPLE	866	n/a	n/a	0	0	0
3458.742	n/a	WORD	1729371	wordpools/wasnorm_wordpool_576.txt	LTP296	ltpFR2	12	16	TOURIST	1488	n/a	n/a	0	0	0
3461.164	n/a	WORD	1730582	wordpools/wasnorm_wordpool_576.txt	LTP296	ltpFR2	12	16	GYMNAST	675	n/a	n/a	0	0	0
3463.6	n/a	WORD	1731800	wordpools/wasnorm_wordpool_576.txt	LTP296	ltpFR2	12	16	BARLEY	88	n/a	n/a	0	0	0
3466.216	n/a	WORD	1733108	wordpools/wasnorm_wordpool_576.txt	LTP296	ltpFR2	12	16	MARINE	869	n/a	n/a	0	0	0
3468.67	n/a	WORD	1734335	wordpools/wasnorm_wordpool_576.txt	LTP296	ltpFR2	12	16	COLONEL	348	n/a	n/a	0	0	0
3471.484	n/a	WORD	1735742	wordpools/wasnorm_wordpool_576.txt	LTP296	ltpFR2	12	16	FOREST	593	n/a	n/a	0	0	0
3474.226	n/a	WORD	1737113	wordpools/wasnorm_wordpool_576.txt	LTP296	ltpFR2	12	16	MAILBOX	857	n/a	n/a	0	0	0
3476.856	n/a	WORD	1738428	wordpools/wasnorm_wordpool_576.txt	LTP296	ltpFR2	12	16	HORNET	718	n/a	n/a	0	0	0
3479.324	n/a	WORD	1739662	wordpools/wasnorm_wordpool_576.txt	LTP296	ltpFR2	12	16	TREAT	1501	n/a	n/a	0	0	0
3481.932	n/a	WORD	1740966	wordpools/wasnorm_wordpool_576.txt	LTP296	ltpFR2	12	16	MOTEL	919	n/a	n/a	0	0	0
3484.444	n/a	WORD	1742222	wordpools/wasnorm_wordpool_576.txt	LTP296	ltpFR2	12	16	NIGHTGOWN	953	n/a	n/a	0	0	0
3486.932	n/a	WORD	1743466	wordpools/wasnorm_wordpool_576.txt	LTP296	ltpFR2	12	16	ARM	38	n/a	n/a	0	0	0
3489.7	n/a	WORD	1744850	wordpools/wasnorm_wordpool_576.txt	LTP296	ltpFR2	12	16	DRAWING	494	n/a	n/a	0	0	0
3492.252	n/a	WORD	1746126	wordpools/wasnorm_wordpool_576.txt	LTP296	ltpFR2	12	16	STICKER	1382	n/a	n/a	0	0	0
3494.972	n/a	WORD	1747486	wordpools/wasnorm_wordpool_576.txt	LTP296	ltpFR2	12	16	PUPIL	1143	n/a	n/a	0	0	0
3497.712	n/a	WORD	1748856	wordpools/wasnorm_wordpool_576.txt	LTP296	ltpFR2	12	16	STUDENT	1395	n/a	n/a	0	0	0
3500.514	n/a	WORD	1750257	wordpools/wasnorm_wordpool_576.txt	LTP296	ltpFR2	12	16	HATCHET	691	n/a	n/a	0	0	0
3503.0	n/a	WORD	1751500	wordpools/wasnorm_wordpool_576.txt	LTP296	ltpFR2	12	16	UNCLE	1536	n/a	n/a	0	0	0
3505.528	n/a	WORD	1752764	wordpools/wasnorm_wordpool_576.txt	LTP296	ltpFR2	12	16	BRANDY	169	n/a	n/a	0	0	0
3508.104	n/a	WORD	1754052	wordpools/wasnorm_wordpool_576.txt	LTP296	ltpFR2	12	16	STAMP	1370	n/a	n/a	0	0	0
3509.714	n/a	START	1754857	n/a	LTP296	ltpFR2	12	n/a	n/a	n/a	23	n/a	n/a	n/a	n/a
3510.588	n/a	DISTRACTOR	1755294	n/a	LTP296	ltpFR2	12	16	n/a	n/a	n/a	n/a	0	0	0
3510.6	n/a	PROB	1755300	n/a	LTP296	ltpFR2	12	n/a	n/a	n/a	23	18	5	7	6
3513.266	n/a	PROB	1756633	n/a	LTP296	ltpFR2	12	n/a	n/a	n/a	23	26	8	7	7
3515.818	n/a	PROB	1757909	n/a	LTP296	ltpFR2	12	n/a	n/a	n/a	23	16	9	2	5
3517.302	n/a	PROB	1758651	n/a	LTP296	ltpFR2	12	n/a	n/a	n/a	23	15	4	9	2
3518.736	n/a	PROB	1759368	n/a	LTP296	ltpFR2	12	n/a	n/a	n/a	23	19	2	9	8
3520.654	n/a	PROB	1760327	n/a	LTP296	ltpFR2	12	n/a	n/a	n/a	23	20	9	9	2
3522.54	n/a	PROB	1761270	n/a	LTP296	ltpFR2	12	n/a	n/a	n/a	23	16	2	9	5
3524.976	n/a	PROB	1762488	n/a	LTP296	ltpFR2	12	n/a	n/a	n/a	23	17	8	7	2
3527.796	n/a	PROB	1763898	n/a	LTP296	ltpFR2	12	n/a	n/a	n/a	23	21	8	7	6
3529.612	n/a	PROB	1764806	n/a	LTP296	ltpFR2	12	n/a	n/a	n/a	23	16	6	7	3
3531.098	n/a	PROB	1765549	n/a	LTP296	ltpFR2	12	n/a	n/a	n/a	23	9	5	2	2
3532.592	n/a	STOP	1766296	n/a	LTP296	ltpFR2	12	n/a	n/a	n/a	23	n/a	n/a	n/a	n/a
3535.65	n/a	REC_START	1767825	n/a	LTP296	ltpFR2	12	16	n/a	n/a	n/a	n/a	0	0	0
3536.114	n/a	REC_WORD	1768057	wordpools/wasnorm_wordpool_576.txt	LTP296	ltpFR2	12	16	TOURIST	1488	n/a	n/a	0	0	0
3536.876	n/a	REC_WORD	1768438	wordpools/wasnorm_wordpool_576.txt	LTP296	ltpFR2	12	16	GYMNAST	675	n/a	n/a	0	0	0
3537.862	n/a	REC_WORD	1768931	wordpools/wasnorm_wordpool_576.txt	LTP296	ltpFR2	12	16	MARINE	869	n/a	n/a	0	0	0
3539.038	n/a	REC_WORD_VV	1769519	wordpools/wasnorm_wordpool_576.txt	LTP296	ltpFR2	12	16	<>	-1	n/a	n/a	0	0	0
3543.786	n/a	REC_WORD	1771893	wordpools/wasnorm_wordpool_576.txt	LTP296	ltpFR2	12	16	ARM	38	n/a	n/a	0	0	0
3612.192	n/a	REST_REWET	1806096	n/a	LTP296	ltpFR2	12	16	n/a	n/a	n/a	n/a	0	0	0
3937.082	n/a	DISTRACTOR	1968541	n/a	LTP296	ltpFR2	12	17	n/a	n/a	n/a	n/a	0	0	0
3937.082	n/a	START	1968541	n/a	LTP296	ltpFR2	12	n/a	n/a	n/a	24	n/a	n/a	n/a	n/a
3937.096	n/a	PROB	1968548	n/a	LTP296	ltpFR2	12	n/a	n/a	n/a	24	25	9	6	9
3939.364	n/a	PROB	1969682	n/a	LTP296	ltpFR2	12	n/a	n/a	n/a	24	15	5	3	7
3941.166	n/a	PROB	1970583	n/a	LTP296	ltpFR2	12	n/a	n/a	n/a	24	21	8	2	5
3942.936	n/a	PROB	1971468	n/a	LTP296	ltpFR2	12	n/a	n/a	n/a	24	17	7	5	5
3945.636	n/a	PROB	1972818	n/a	LTP296	ltpFR2	12	n/a	n/a	n/a	24	10	8	1	1
3946.87	n/a	PROB	1973435	n/a	LTP296	ltpFR2	12	n/a	n/a	n/a	24	8	2	4	2
3948.108	n/a	PROB	1974054	n/a	LTP296	ltpFR2	12	n/a	n/a	n/a	24	15	6	1	8
3949.556	n/a	PROB	1974778	n/a	LTP296	ltpFR2	12	n/a	n/a	n/a	24	19	5	5	9
3950.858	n/a	PROB	1975429	n/a	LTP296	ltpFR2	12	n/a	n/a	n/a	24	15	6	7	2
3952.326	n/a	PROB	1976163	n/a	LTP296	ltpFR2	12	n/a	n/a	n/a	24	14	2	4	9
3954.078	n/a	PROB	1977039	n/a	LTP296	ltpFR2	12	n/a	n/a	n/a	24	15	6	6	3
3956.162	n/a	PROB	1978081	n/a	LTP296	ltpFR2	12	n/a	n/a	n/a	24	18	7	9	2
3957.83	n/a	PROB	1978915	n/a	LTP296	ltpFR2	12	n/a	n/a	n/a	24	19	8	9	2
3959.43	n/a	PROB	1979715	n/a	LTP296	ltpFR2	12	n/a	n/a	n/a	24	21	9	2	9
3960.8	n/a	STOP	1980400	n/a	LTP296	ltpFR2	12	n/a	n/a	n/a	24	n/a	n/a	n/a	n/a
3962.218	n/a	WORD	1981109	wordpools/wasnorm_wordpool_576.txt	LTP296	ltpFR2	12	17	BADGE	68	n/a	n/a	0	0	0
3964.954	n/a	WORD	1982477	wordpools/wasnorm_wordpool_576.txt	LTP296	ltpFR2	12	17	ACTOR	5	n/a	n/a	0	0	0
3967.754	n/a	WORD	1983877	wordpools/wasnorm_wordpool_576.txt	LTP296	ltpFR2	12	17	ASIA	46	n/a	n/a	0	0	0
3970.33	n/a	WORD	1985165	wordpools/wasnorm_wordpool_576.txt	LTP296	ltpFR2	12	17	PARSLEY	1016	n/a	n/a	0	0	0
3972.928	n/a	WORD	1986464	wordpools/wasnorm_wordpool_576.txt	LTP296	ltpFR2	12	17	ANKLE	24	n/a	n/a	0	0	0
3975.578	n/a	WORD	1987789	wordpools/wasnorm_wordpool_576.txt	LTP296	ltpFR2	12	17	YOLK	1633	n/a	n/a	0	0	0
3978.096	n/a	WORD	1989048	wordpools/wasnorm_wordpool_576.txt	LTP296	ltpFR2	12	17	BEEF	113	n/a	n/a	0	0	0
3980.856	n/a	WORD	1990428	wordpools/wasnorm_wordpool_576.txt	LTP296	ltpFR2	12	17	MEAT	883	n/a	n/a	0	0	0
3983.616	n/a	WORD	1991808	wordpools/wasnorm_wordpool_576.txt	LTP296	ltpFR2	12	17	AGENT	10	n/a	n/a	0	0	0
3986.07	n/a	WORD	1993035	wordpools/wasnorm_wordpool_576.txt	LTP296	ltpFR2	12	17	DENTIST	447	n/a	n/a	0	0	0
3988.772	n/a	WORD	1994386	wordpools/wasnorm_wordpool_576.txt	LTP296	ltpFR2	12	17	EUROPE	541	n/a	n/a	0	0	0
3991.59	n/a	WORD	1995795	wordpools/wasnorm_wordpool_576.txt	LTP296	ltpFR2	12	17	SHARK	1275	n/a	n/a	0	0	0
3994.326	n/a	WORD	1997163	wordpools/wasnorm_wordpool_576.txt	LTP296	ltpFR2	12	17	CRAB	397	n/a	n/a	0	0	0
3997.054	n/a	WORD	1998527	wordpools/wasnorm_wordpool_576.txt	LTP296	ltpFR2	12	17	GRAPE	654	n/a	n/a	0	0	0
3999.866	n/a	WORD	1999933	wordpools/wasnorm_wordpool_576.txt	LTP296	ltpFR2	12	17	SPOOL	1356	n/a	n/a	0	0	0
4002.422	n/a	WORD	2001211	wordpools/wasnorm_wordpool_576.txt	LTP296	ltpFR2	12	17	PATROL	1027	n/a	n/a	0	0	0
4004.952	n/a	WORD	2002476	wordpools/wasnorm_wordpool_576.txt	LTP296	ltpFR2	12	17	BUREAU	199	n/a	n/a	0	0	0
4007.402	n/a	WORD	2003701	wordpools/wasnorm_wordpool_576.txt	LTP296	ltpFR2	12	17	TABLE	1426	n/a	n/a	0	0	0
4010.156	n/a	WORD	2005078	wordpools/wasnorm_wordpool_576.txt	LTP296	ltpFR2	12	17	BOX	159	n/a	n/a	0	0	0
4012.868	n/a	WORD	2006434	wordpools/wasnorm_wordpool_576.txt	LTP296	ltpFR2	12	17	GOBLIN	645	n/a	n/a	0	0	0
4015.386	n/a	WORD	2007693	wordpools/wasnorm_wordpool_576.txt	LTP296	ltpFR2	12	17	OMELET	976	n/a	n/a	0	0	0
4018.046	n/a	WORD	2009023	wordpools/wasnorm_wordpool_576.txt	LTP296	ltpFR2	12	17	FOOTBALL	591	n/a	n/a	0	0	0
4020.612	n/a	WORD	2010306	wordpools/wasnorm_wordpool_576.txt	LTP296	ltpFR2	12	17	PECAN	1036	n/a	n/a	0	0	0
4023.032	n/a	WORD	2011516	wordpools/wasnorm_wordpool_576.txt	LTP296	ltpFR2	12	17	TUTU	1524	n/a	n/a	0	0	0
4024.642	n/a	START	2012321	n/a	LTP296	ltpFR2	12	n/a	n/a	n/a	25	n/a	n/a	n/a	n/a
4025.732	n/a	DISTRACTOR	2012866	n/a	LTP296	ltpFR2	12	17	n/a	n/a	n/a	n/a	0	0	0
4025.742	n/a	PROB	2012871	n/a	LTP296	ltpFR2	12	n/a	n/a	n/a	25	16	6	4	6
4028.468	n/a	PROB	2014234	n/a	LTP296	ltpFR2	12	n/a	n/a	n/a	25	26	9	7	8
4032.404	n/a	PROB	2016202	n/a	LTP296	ltpFR2	12	n/a	n/a	n/a	25	18	8	9	1
4034.574	n/a	PROB	2017287	n/a	LTP296	ltpFR2	12	n/a	n/a	n/a	25	21	6	7	8
4038.458	n/a	PROB	2019229	n/a	LTP296	ltpFR2	12	n/a	n/a	n/a	25	18	5	5	8
4040.028	n/a	PROB	2020014	n/a	LTP296	ltpFR2	12	n/a	n/a	n/a	25	14	4	8	2
4042.062	n/a	PROB	2021031	n/a	LTP296	ltpFR2	12	n/a	n/a	n/a	25	18	6	4	8
4043.264	n/a	PROB	2021632	n/a	LTP296	ltpFR2	12	n/a	n/a	n/a	25	22	9	7	6
4045.482	n/a	PROB	2022741	n/a	LTP296	ltpFR2	12	n/a	n/a	n/a	25	19	8	2	9
4047.736	n/a	STOP	2023868	n/a	LTP296	ltpFR2	12	n/a	n/a	n/a	25	n/a	n/a	n/a	n/a
4050.486	n/a	REC_START	2025243	n/a	LTP296	ltpFR2	12	17	n/a	n/a	n/a	n/a	0	0	0
4051.25	n/a	REC_WORD	2025625	wordpools/wasnorm_wordpool_576.txt	LTP296	ltpFR2	12	17	PARSLEY	1016	n/a	n/a	0	0	0
4052.138	n/a	REC_WORD	2026069	wordpools/wasnorm_wordpool_576.txt	LTP296	ltpFR2	12	17	YOLK	1633	n/a	n/a	0	0	0
4052.876	n/a	REC_WORD	2026438	wordpools/wasnorm_wordpool_576.txt	LTP296	ltpFR2	12	17	BEEF	113	n/a	n/a	0	0	0
4053.294	n/a	REC_WORD	2026647	wordpools/wasnorm_wordpool_576.txt	LTP296	ltpFR2	12	17	MEAT	883	n/a	n/a	0	0	0
4054.188	n/a	REC_WORD	2027094	wordpools/wasnorm_wordpool_576.txt	LTP296	ltpFR2	12	17	OMELET	976	n/a	n/a	0	0	0
4054.976	n/a	REC_WORD	2027488	wordpools/wasnorm_wordpool_576.txt	LTP296	ltpFR2	12	17	PECAN	1036	n/a	n/a	0	0	0
4056.324	n/a	REC_WORD	2028162	wordpools/wasnorm_wordpool_576.txt	LTP296	ltpFR2	12	17	ANKLE	24	n/a	n/a	0	0	0
4057.578	n/a	REC_WORD	2028789	wordpools/wasnorm_wordpool_576.txt	LTP296	ltpFR2	12	17	ASIA	46	n/a	n/a	0	0	0
4058.612	n/a	REC_WORD	2029306	wordpools/wasnorm_wordpool_576.txt	LTP296	ltpFR2	12	17	EUROPE	541	n/a	n/a	0	0	0
4063.308	n/a	REC_WORD	2031654	wordpools/wasnorm_wordpool_576.txt	LTP296	ltpFR2	12	17	DENTIST	447	n/a	n/a	0	0	0
4140.942	n/a	DISTRACTOR	2070471	n/a	LTP296	ltpFR2	12	18	n/a	n/a	n/a	n/a	0	0	0
4140.942	n/a	START	2070471	n/a	LTP296	ltpFR2	12	n/a	n/a	n/a	26	n/a	n/a	n/a	n/a
4140.956	n/a	PROB	2070478	n/a	LTP296	ltpFR2	12	n/a	n/a	n/a	26	16	6	1	9
4143.842	n/a	PROB	2071921	n/a	LTP296	ltpFR2	12	n/a	n/a	n/a	26	13	4	3	6
4145.276	n/a	PROB	2072638	n/a	LTP296	ltpFR2	12	n/a	n/a	n/a	26	12	4	4	4
4146.458	n/a	PROB	2073229	n/a	LTP296	ltpFR2	12	n/a	n/a	n/a	26	21	6	8	7
4147.994	n/a	PROB	2073997	n/a	LTP296	ltpFR2	12	n/a	n/a	n/a	26	13	6	2	5
4151.53	n/a	PROB	2075765	n/a	LTP296	ltpFR2	12	n/a	n/a	n/a	26	20	7	9	4
4153.498	n/a	PROB	2076749	n/a	LTP296	ltpFR2	12	n/a	n/a	n/a	26	17	9	5	2
4154.95	n/a	PROB	2077475	n/a	LTP296	ltpFR2	12	n/a	n/a	n/a	26	22	8	7	7
4156.786	n/a	PROB	2078393	n/a	LTP296	ltpFR2	12	n/a	n/a	n/a	26	17	9	4	4
4158.752	n/a	PROB	2079376	n/a	LTP296	ltpFR2	12	n/a	n/a	n/a	26	8	1	1	6
4159.854	n/a	PROB	2079927	n/a	LTP296	ltpFR2	12	n/a	n/a	n/a	26	22	5	6	9
4161.754	n/a	PROB	2080877	n/a	LTP296	ltpFR2	12	n/a	n/a	n/a	26	16	8	2	6
4163.056	n/a	PROB	2081528	n/a	LTP296	ltpFR2	12	n/a	n/a	n/a	26	14	8	5	1
4164.41	n/a	STOP	2082205	n/a	LTP296	ltpFR2	12	n/a	n/a	n/a	26	n/a	n/a	n/a	n/a
4165.994	n/a	WORD	2082997	wordpools/wasnorm_wordpool_576.txt	LTP296	ltpFR2	12	18	SERVER	1272	n/a	n/a	0	0	0
4168.762	n/a	WORD	2084381	wordpools/wasnorm_wordpool_576.txt	LTP296	ltpFR2	12	18	RUST	1219	n/a	n/a	0	0	0
4171.38	n/a	WORD	2085690	wordpools/wasnorm_wordpool_576.txt	LTP296	ltpFR2	12	18	LILY	821	n/a	n/a	0	0	0
4174.086	n/a	WORD	2087043	wordpools/wasnorm_wordpool_576.txt	LTP296	ltpFR2	12	18	FOX	598	n/a	n/a	0	0	0
4176.668	n/a	WORD	2088334	wordpools/wasnorm_wordpool_576.txt	LTP296	ltpFR2	12	18	GIRL	637	n/a	n/a	0	0	0
4179.472	n/a	WORD	2089736	wordpools/wasnorm_wordpool_576.txt	LTP296	ltpFR2	12	18	VALVE	1546	n/a	n/a	0	0	0
4181.99	n/a	WORD	2090995	wordpools/wasnorm_wordpool_576.txt	LTP296	ltpFR2	12	18	CREVICE	405	n/a	n/a	0	0	0
4184.674	n/a	WORD	2092337	wordpools/wasnorm_wordpool_576.txt	LTP296	ltpFR2	12	18	LADY	794	n/a	n/a	0	0	0
4187.31	n/a	WORD	2093655	wordpools/wasnorm_wordpool_576.txt	LTP296	ltpFR2	12	18	WOMAN	1620	n/a	n/a	0	0	0
4189.726	n/a	WORD	2094863	wordpools/wasnorm_wordpool_576.txt	LTP296	ltpFR2	12	18	TWEEZERS	1526	n/a	n/a	0	0	0
4192.23	n/a	WORD	2096115	wordpools/wasnorm_wordpool_576.txt	LTP296	ltpFR2	12	18	TRUCK	1512	n/a	n/a	0	0	0
4194.848	n/a	WORD	2097424	wordpools/wasnorm_wordpool_576.txt	LTP296	ltpFR2	12	18	EYELASH	546	n/a	n/a	0	0	0
4197.384	n/a	WORD	2098692	wordpools/wasnorm_wordpool_576.txt	LTP296	ltpFR2	12	18	LIPSTICK	829	n/a	n/a	0	0	0
4199.886	n/a	WORD	2099943	wordpools/wasnorm_wordpool_576.txt	LTP296	ltpFR2	12	18	RABBIT	1152	n/a	n/a	0	0	0
4202.56	n/a	WORD	2101280	wordpools/wasnorm_wordpool_576.txt	LTP296	ltpFR2	12	18	OUTFIT	988	n/a	n/a	0	0	0
4205.18	n/a	WORD	2102590	wordpools/wasnorm_wordpool_576.txt	LTP296	ltpFR2	12	18	PIZZA	1079	n/a	n/a	0	0	0
4207.73	n/a	WORD	2103865	wordpools/wasnorm_wordpool_576.txt	LTP296	ltpFR2	12	18	TURKEY	1520	n/a	n/a	0	0	0
4210.4	n/a	WORD	2105200	wordpools/wasnorm_wordpool_576.txt	LTP296	ltpFR2	12	18	BUNNY	198	n/a	n/a	0	0	0
4212.964	n/a	WORD	2106482	wordpools/wasnorm_wordpool_576.txt	LTP296	ltpFR2	12	18	CATCHER	258	n/a	n/a	0	0	0
4215.682	n/a	WORD	2107841	wordpools/wasnorm_wordpool_576.txt	LTP296	ltpFR2	12	18	LAVA	804	n/a	n/a	0	0	0
4218.218	n/a	WORD	2109109	wordpools/wasnorm_wordpool_576.txt	LTP296	ltpFR2	12	18	ROBIN	1199	n/a	n/a	0	0	0
4220.77	n/a	WORD	2110385	wordpools/wasnorm_wordpool_576.txt	LTP296	ltpFR2	12	18	SCARECROW	1245	n/a	n/a	0	0	0
4223.572	n/a	WORD	2111786	wordpools/wasnorm_wordpool_576.txt	LTP296	ltpFR2	12	18	HAMPER	682	n/a	n/a	0	0	0
4226.364	n/a	WORD	2113182	wordpools/wasnorm_wordpool_576.txt	LTP296	ltpFR2	12	18	OFFICE	972	n/a	n/a	0	0	0
4227.976	n/a	START	2113988	n/a	LTP296	ltpFR2	12	n/a	n/a	n/a	27	n/a	n/a	n/a	n/a
4228.988	n/a	DISTRACTOR	2114494	n/a	LTP296	ltpFR2	12	18	n/a	n/a	n/a	n/a	0	0	0
4228.994	n/a	PROB	2114497	n/a	LTP296	ltpFR2	12	n/a	n/a	n/a	27	16	3	7	6
4230.294	n/a	PROB	2115147	n/a	LTP296	ltpFR2	12	n/a	n/a	n/a	27	21	8	5	8
4232.41	n/a	PROB	2116205	n/a	LTP296	ltpFR2	12	n/a	n/a	n/a	27	21	8	3	9
4234.814	n/a	PROB	2117407	n/a	LTP296	ltpFR2	12	n/a	n/a	n/a	27	15	4	5	6
4237.33	n/a	PROB	2118665	n/a	LTP296	ltpFR2	12	n/a	n/a	n/a	27	18	4	9	5
4239.3	n/a	PROB	2119650	n/a	LTP296	ltpFR2	12	n/a	n/a	n/a	27	14	2	3	9
4240.95	n/a	PROB	2120475	n/a	LTP296	ltpFR2	12	n/a	n/a	n/a	27	9	3	2	4
4242.77	n/a	PROB	2121385	n/a	LTP296	ltpFR2	12	n/a	n/a	n/a	27	18	8	7	3
4245.904	n/a	PROB	2122952	n/a	LTP296	ltpFR2	12	n/a	n/a	n/a	27	16	9	3	4
4247.438	n/a	PROB	2123719	n/a	LTP296	ltpFR2	12	n/a	n/a	n/a	27	16	6	7	3
4249.758	n/a	PROB	2124879	n/a	LTP296	ltpFR2	12	n/a	n/a	n/a	27	16	1	7	8
4251.108	n/a	STOP	2125554	n/a	LTP296	ltpFR2	12	n/a	n/a	n/a	27	n/a	n/a	n/a	n/a
4253.744	n/a	REC_START	2126872	n/a	LTP296	ltpFR2	12	18	n/a	n/a	n/a	n/a	0	0	0
4254.982	n/a	REC_WORD	2127491	wordpools/wasnorm_wordpool_576.txt	LTP296	ltpFR2	12	18	GIRL	637	n/a	n/a	0	0	0
4256.086	n/a	REC_WORD	2128043	wordpools/wasnorm_wordpool_576.txt	LTP296	ltpFR2	12	18	LADY	794	n/a	n/a	0	0	0
4257.316	n/a	REC_WORD	2128658	wordpools/wasnorm_wordpool_576.txt	LTP296	ltpFR2	12	18	WOMAN	1620	n/a	n/a	0	0	0
4258.964	n/a	REC_WORD	2129482	wordpools/wasnorm_wordpool_576.txt	LTP296	ltpFR2	12	18	LILY	821	n/a	n/a	0	0	0
4259.934	n/a	REC_WORD	2129967	wordpools/wasnorm_wordpool_576.txt	LTP296	ltpFR2	12	18	FOX	598	n/a	n/a	0	0	0
4261.476	n/a	REC_WORD	2130738	wordpools/wasnorm_wordpool_576.txt	LTP296	ltpFR2	12	18	EYELASH	546	n/a	n/a	0	0	0
4262.568	n/a	REC_WORD	2131284	wordpools/wasnorm_wordpool_576.txt	LTP296	ltpFR2	12	18	LIPSTICK	829	n/a	n/a	0	0	0
4271.596	n/a	REC_WORD	2135798	wordpools/wasnorm_wordpool_576.txt	LTP296	ltpFR2	12	18	RUST	1219	n/a	n/a	0	0	0
4280.996	n/a	REC_WORD	2140498	wordpools/wasnorm_wordpool_576.txt	LTP296	ltpFR2	12	18	CREVICE	405	n/a	n/a	0	0	0
